raw_reward_magnitude,stim_reward,stepwise_reward_magnitude,paired_with_stopping,quadrant,response,reaction_time,block,num_trial_presentations,which_part,stop_signal_trial_type,left_SSD,right_SSD,accuracy,chosen_bidding_amount,chosen_bidding_level,possible_bid_1,possible_bid_2,possible_bid_3,possible_bid_4,possible_bid_5,possible_bid_6,color_text,shape_text
98.0,2.0,2.0,0.0,1.0,1.0,331.1574540002766,1.0,1.0,part_1,,,,,,,,,,,,,magenta,square
32.0,5.0,1.0,1.0,3.0,3.0,309.4024999991234,1.0,1.0,part_1,,,,,,,,,,,,,green,I
55.0,1.0,1.0,0.0,2.0,2.0,289.5994770005927,1.0,1.0,part_1,,,,,,,,,,,,,white,hexagon
179.0,3.0,3.0,0.0,2.0,2.0,329.5691669991356,1.0,1.0,part_1,,,,,,,,,,,,,orange,flipped triangle
92.0,6.0,2.0,1.0,1.0,1.0,328.0199119999452,1.0,1.0,part_1,,,,,,,,,,,,,cyan,diamond
390.0,4.0,4.0,0.0,1.0,1.0,296.9222360006824,1.0,1.0,part_1,,,,,,,,,,,,,gray,cross
220.0,3.0,3.0,0.0,3.0,3.0,298.0690290005441,1.0,1.0,part_1,,,,,,,,,,,,,orange,flipped triangle
46.0,5.0,1.0,1.0,4.0,4.0,318.945506000091,1.0,1.0,part_1,,,,,,,,,,,,,green,I
191.0,3.0,3.0,0.0,1.0,1.0,279.6297639997647,1.0,1.0,part_1,,,,,,,,,,,,,orange,flipped triangle
180.0,7.0,3.0,1.0,4.0,4.0,308.2885549993079,1.0,1.0,part_1,,,,,,,,,,,,,yellow,triangle
393.0,4.0,4.0,0.0,2.0,2.0,333.8439689996448,1.0,1.0,part_1,,,,,,,,,,,,,gray,cross
0.0,6.0,0.0,1.0,2.0,2.0,298.8932620010018,1.0,1.0,part_1,,,,,,,,,,,,,cyan,diamond
0.0,3.0,0.0,0.0,2.0,2.0,304.0034850000666,1.0,1.0,part_1,,,,,,,,,,,,,orange,flipped triangle
0.0,4.0,0.0,0.0,4.0,4.0,284.1259649994754,1.0,1.0,part_1,,,,,,,,,,,,,gray,cross
390.0,4.0,4.0,0.0,1.0,1.0,255.1074209986836,1.0,1.0,part_1,,,,,,,,,,,,,gray,cross
0.0,8.0,0.0,1.0,4.0,4.0,303.4496690015658,1.0,1.0,part_1,,,,,,,,,,,,,blue,circle
97.0,2.0,2.0,0.0,4.0,4.0,343.0961310004932,1.0,1.0,part_1,,,,,,,,,,,,,magenta,square
0.0,7.0,0.0,1.0,1.0,1.0,271.7732300006901,1.0,1.0,part_1,,,,,,,,,,,,,yellow,triangle
118.0,6.0,2.0,1.0,3.0,3.0,292.5666459996137,1.0,1.0,part_1,,,,,,,,,,,,,cyan,diamond
0.0,4.0,0.0,0.0,3.0,3.0,324.6257800001331,1.0,1.0,part_1,,,,,,,,,,,,,gray,cross
215.0,3.0,3.0,0.0,4.0,4.0,304.7886650001601,1.0,1.0,part_1,,,,,,,,,,,,,orange,flipped triangle
81.0,2.0,2.0,0.0,3.0,3.0,305.58547200053,1.0,1.0,part_1,,,,,,,,,,,,,magenta,square
220.0,7.0,3.0,1.0,2.0,2.0,326.4172109993524,1.0,1.0,part_1,,,,,,,,,,,,,yellow,triangle
119.0,2.0,2.0,0.0,4.0,4.0,285.8654609990481,1.0,1.0,part_1,,,,,,,,,,,,,magenta,square
176.0,3.0,3.0,0.0,2.0,2.0,337.8334369990625,1.0,1.0,part_1,,,,,,,,,,,,,orange,flipped triangle
180.0,3.0,3.0,0.0,1.0,1.0,250.9666580008343,1.0,1.0,part_1,,,,,,,,,,,,,orange,flipped triangle
87.0,6.0,2.0,1.0,3.0,3.0,323.7817400004132,1.0,1.0,part_1,,,,,,,,,,,,,cyan,diamond
398.0,8.0,4.0,1.0,4.0,4.0,286.4025849994505,1.0,1.0,part_1,,,,,,,,,,,,,blue,circle
68.0,1.0,1.0,0.0,3.0,3.0,335.665071999756,1.0,1.0,part_1,,,,,,,,,,,,,white,hexagon
60.0,5.0,1.0,1.0,1.0,1.0,304.9584349992074,1.0,1.0,part_1,,,,,,,,,,,,,green,I
213.0,7.0,3.0,1.0,3.0,3.0,324.2570549991797,1.0,1.0,part_1,,,,,,,,,,,,,yellow,triangle
41.0,5.0,1.0,1.0,3.0,3.0,294.1234840000106,1.0,1.0,part_1,,,,,,,,,,,,,green,I
396.0,8.0,4.0,1.0,4.0,4.0,321.115311999165,1.0,1.0,part_1,,,,,,,,,,,,,blue,circle
401.0,4.0,4.0,0.0,4.0,4.0,319.10824499937,1.0,1.0,part_1,,,,,,,,,,,,,gray,cross
109.0,6.0,2.0,1.0,3.0,3.0,317.0241690004332,1.0,1.0,part_1,,,,,,,,,,,,,cyan,diamond
71.0,1.0,1.0,0.0,4.0,4.0,267.3507139988942,1.0,1.0,part_1,,,,,,,,,,,,,white,hexagon
411.0,4.0,4.0,0.0,2.0,2.0,287.3806799998419,1.0,1.0,part_1,,,,,,,,,,,,,gray,cross
0.0,2.0,0.0,0.0,2.0,2.0,345.3732849993685,1.0,1.0,part_1,,,,,,,,,,,,,magenta,square
56.0,1.0,1.0,0.0,4.0,4.0,295.4875400009769,1.0,1.0,part_1,,,,,,,,,,,,,white,hexagon
87.0,6.0,2.0,1.0,2.0,2.0,255.6046059999062,1.0,1.0,part_1,,,,,,,,,,,,,cyan,diamond
39.0,5.0,1.0,1.0,2.0,2.0,278.138666999439,1.0,1.0,part_1,,,,,,,,,,,,,green,I
409.0,4.0,4.0,0.0,1.0,1.0,291.3828300006571,1.0,1.0,part_1,,,,,,,,,,,,,gray,cross
201.0,3.0,3.0,0.0,3.0,3.0,298.2611440002074,1.0,1.0,part_1,,,,,,,,,,,,,orange,flipped triangle
0.0,4.0,0.0,0.0,3.0,3.0,321.0959150001145,1.0,1.0,part_1,,,,,,,,,,,,,gray,cross
52.0,1.0,1.0,0.0,2.0,2.0,255.5173949986056,1.0,1.0,part_1,,,,,,,,,,,,,white,hexagon
0.0,5.0,0.0,1.0,1.0,1.0,228.1888210000033,1.0,1.0,part_1,,,,,,,,,,,,,green,I
407.0,4.0,4.0,0.0,1.0,1.0,317.5002780008071,1.0,1.0,part_1,,,,,,,,,,,,,gray,cross
47.0,5.0,1.0,1.0,2.0,2.0,279.6933139998145,1.0,1.0,part_1,,,,,,,,,,,,,green,I
109.0,2.0,2.0,0.0,3.0,3.0,275.2438980005536,1.0,1.0,part_1,,,,,,,,,,,,,magenta,square
408.0,8.0,4.0,1.0,4.0,4.0,353.2947989988315,1.0,1.0,part_1,,,,,,,,,,,,,blue,circle
180.0,3.0,3.0,0.0,1.0,1.0,243.2871640012308,1.0,1.0,part_1,,,,,,,,,,,,,orange,flipped triangle
0.0,3.0,0.0,0.0,1.0,1.0,319.3602390001615,1.0,1.0,part_1,,,,,,,,,,,,,orange,flipped triangle
188.0,7.0,3.0,1.0,4.0,4.0,305.0914450013806,1.0,1.0,part_1,,,,,,,,,,,,,yellow,triangle
41.0,5.0,1.0,1.0,2.0,2.0,356.4385029985715,1.0,1.0,part_1,,,,,,,,,,,,,green,I
413.0,4.0,4.0,0.0,2.0,2.0,290.3672820011707,1.0,1.0,part_1,,,,,,,,,,,,,gray,cross
378.0,8.0,4.0,1.0,2.0,2.0,283.0658629991376,1.0,1.0,part_1,,,,,,,,,,,,,blue,circle
92.0,6.0,2.0,1.0,4.0,4.0,285.5234489998111,1.0,1.0,part_1,,,,,,,,,,,,,cyan,diamond
122.0,2.0,2.0,0.0,1.0,1.0,316.3197810008569,1.0,1.0,part_1,,,,,,,,,,,,,magenta,square
52.0,5.0,1.0,1.0,3.0,3.0,293.6446149997209,1.0,1.0,part_1,,,,,,,,,,,,,green,I
60.0,1.0,1.0,0.0,1.0,1.0,281.8286530000478,1.0,1.0,part_1,,,,,,,,,,,,,white,hexagon
32.0,1.0,1.0,0.0,3.0,3.0,377.5753249992704,1.0,1.0,part_1,,,,,,,,,,,,,white,hexagon
196.0,7.0,3.0,1.0,1.0,1.0,261.9177619999391,1.0,1.0,part_1,,,,,,,,,,,,,yellow,triangle
211.0,3.0,3.0,0.0,1.0,1.0,378.5275230002298,1.0,1.0,part_1,,,,,,,,,,,,,orange,flipped triangle
0.0,8.0,0.0,1.0,3.0,3.0,301.1480049990496,1.0,1.0,part_1,,,,,,,,,,,,,blue,circle
219.0,7.0,3.0,1.0,3.0,3.0,317.0956410012877,1.0,1.0,part_1,,,,,,,,,,,,,yellow,triangle
393.0,8.0,4.0,1.0,3.0,3.0,374.7504910006682,1.0,1.0,part_1,,,,,,,,,,,,,blue,circle
412.0,4.0,4.0,0.0,2.0,2.0,305.8759850009664,1.0,1.0,part_1,,,,,,,,,,,,,gray,cross
219.0,3.0,3.0,0.0,4.0,4.0,319.7257819992956,1.0,1.0,part_1,,,,,,,,,,,,,orange,flipped triangle
0.0,6.0,0.0,1.0,2.0,2.0,294.6435579997342,1.0,1.0,part_1,,,,,,,,,,,,,cyan,diamond
176.0,7.0,3.0,1.0,2.0,2.0,315.7479540004715,1.0,1.0,part_1,,,,,,,,,,,,,yellow,triangle
408.0,8.0,4.0,1.0,3.0,3.0,385.6665580005938,1.0,1.0,part_1,,,,,,,,,,,,,blue,circle
420.0,8.0,4.0,1.0,2.0,2.0,265.1390169994556,1.0,1.0,part_1,,,,,,,,,,,,,blue,circle
37.0,5.0,1.0,1.0,1.0,1.0,297.513848001472,1.0,1.0,part_1,,,,,,,,,,,,,green,I
214.0,7.0,3.0,1.0,3.0,3.0,358.1046550007158,1.0,1.0,part_1,,,,,,,,,,,,,yellow,triangle
420.0,4.0,4.0,0.0,3.0,3.0,470.5495889993472,1.0,1.0,part_1,,,,,,,,,,,,,gray,cross
0.0,4.0,0.0,0.0,3.0,3.0,310.8883510012674,1.0,1.0,part_1,,,,,,,,,,,,,gray,cross
396.0,4.0,4.0,0.0,4.0,4.0,316.0114350012009,1.0,1.0,part_1,,,,,,,,,,,,,gray,cross
0.0,2.0,0.0,0.0,4.0,4.0,385.0569370006269,1.0,1.0,part_1,,,,,,,,,,,,,magenta,square
424.0,8.0,4.0,1.0,2.0,2.0,323.7270520003221,1.0,1.0,part_1,,,,,,,,,,,,,blue,circle
187.0,3.0,3.0,0.0,4.0,4.0,289.2578699993464,1.0,1.0,part_1,,,,,,,,,,,,,orange,flipped triangle
220.0,3.0,3.0,0.0,3.0,3.0,285.0888119992305,1.0,1.0,part_1,,,,,,,,,,,,,orange,flipped triangle
0.0,5.0,0.0,1.0,3.0,3.0,301.090386999931,1.0,1.0,part_1,,,,,,,,,,,,,green,I
184.0,3.0,3.0,0.0,4.0,4.0,380.1113320005242,1.0,1.0,part_1,,,,,,,,,,,,,orange,flipped triangle
124.0,2.0,2.0,0.0,2.0,2.0,357.2174399996584,1.0,1.0,part_1,,,,,,,,,,,,,magenta,square
180.0,7.0,3.0,1.0,2.0,2.0,316.6500099996483,1.0,1.0,part_1,,,,,,,,,,,,,yellow,triangle
107.0,6.0,2.0,1.0,2.0,2.0,298.2461850006075,1.0,1.0,part_1,,,,,,,,,,,,,cyan,diamond
378.0,4.0,4.0,0.0,3.0,3.0,365.9398079998937,1.0,1.0,part_1,,,,,,,,,,,,,gray,cross
0.0,4.0,0.0,0.0,3.0,3.0,362.342284000988,1.0,1.0,part_1,,,,,,,,,,,,,gray,cross
0.0,1.0,0.0,0.0,2.0,2.0,291.0998679999466,1.0,1.0,part_1,,,,,,,,,,,,,white,hexagon
0.0,3.0,0.0,0.0,1.0,1.0,314.7425619990827,1.0,1.0,part_1,,,,,,,,,,,,,orange,flipped triangle
90.0,6.0,2.0,1.0,1.0,1.0,363.5016070002166,1.0,1.0,part_1,,,,,,,,,,,,,cyan,diamond
91.0,6.0,2.0,1.0,2.0,2.0,295.7983090000198,1.0,1.0,part_1,,,,,,,,,,,,,cyan,diamond
191.0,7.0,3.0,1.0,1.0,1.0,312.5446009998995,1.0,1.0,part_1,,,,,,,,,,,,,yellow,triangle
405.0,8.0,4.0,1.0,4.0,4.0,341.2284410005668,1.0,1.0,part_1,,,,,,,,,,,,,blue,circle
85.0,6.0,2.0,1.0,1.0,1.0,316.9208309991518,1.0,1.0,part_1,,,,,,,,,,,,,cyan,diamond
0.0,4.0,0.0,0.0,2.0,2.0,271.9983879997016,1.0,1.0,part_1,,,,,,,,,,,,,gray,cross
99.0,2.0,2.0,0.0,3.0,3.0,280.2407300005143,1.0,1.0,part_1,,,,,,,,,,,,,magenta,square
41.0,1.0,1.0,0.0,4.0,4.0,328.2954490005068,1.0,1.0,part_1,,,,,,,,,,,,,white,hexagon
404.0,4.0,4.0,0.0,2.0,2.0,297.37768799896,1.0,1.0,part_1,,,,,,,,,,,,,gray,cross
92.0,2.0,2.0,0.0,2.0,2.0,293.2642499999929,1.0,1.0,part_1,,,,,,,,,,,,,magenta,square
385.0,8.0,4.0,1.0,3.0,3.0,508.38117099920055,2.0,1.0,part_1,,,,,,,,,,,,,blue,circle
66.0,1.0,1.0,0.0,1.0,1.0,274.0491429995018,2.0,1.0,part_1,,,,,,,,,,,,,white,hexagon
382.0,4.0,4.0,0.0,3.0,3.0,285.89024099892407,2.0,1.0,part_1,,,,,,,,,,,,,gray,cross
184.0,7.0,3.0,1.0,1.0,1.0,273.6630340004922,2.0,1.0,part_1,,,,,,,,,,,,,yellow,triangle
215.0,7.0,3.0,1.0,4.0,4.0,307.8655459994479,2.0,1.0,part_1,,,,,,,,,,,,,yellow,triangle
65.0,1.0,1.0,0.0,1.0,1.0,254.997344000003,2.0,1.0,part_1,,,,,,,,,,,,,white,hexagon
212.0,7.0,3.0,1.0,3.0,3.0,298.7984920000599,2.0,1.0,part_1,,,,,,,,,,,,,yellow,triangle
26.0,1.0,1.0,0.0,1.0,1.0,302.1470699986821,2.0,1.0,part_1,,,,,,,,,,,,,white,hexagon
56.0,5.0,1.0,1.0,2.0,2.0,278.8512999995873,2.0,1.0,part_1,,,,,,,,,,,,,green,I
0.0,3.0,0.0,0.0,2.0,2.0,253.4448790011083,2.0,1.0,part_1,,,,,,,,,,,,,orange,flipped triangle
0.0,3.0,0.0,0.0,3.0,3.0,311.5364269997371,2.0,1.0,part_1,,,,,,,,,,,,,orange,flipped triangle
90.0,2.0,2.0,0.0,1.0,1.0,283.5139369999524,2.0,1.0,part_1,,,,,,,,,,,,,magenta,square
221.0,3.0,3.0,0.0,3.0,3.0,312.1332120008446,2.0,1.0,part_1,,,,,,,,,,,,,orange,flipped triangle
0.0,7.0,0.0,1.0,2.0,2.0,245.7458919998316,2.0,1.0,part_1,,,,,,,,,,,,,yellow,triangle
26.0,5.0,1.0,1.0,3.0,3.0,313.3015780003916,2.0,1.0,part_1,,,,,,,,,,,,,green,I
417.0,8.0,4.0,1.0,4.0,4.0,326.4044160005142,2.0,1.0,part_1,,,,,,,,,,,,,blue,circle
192.0,3.0,3.0,0.0,2.0,2.0,317.2607560009055,2.0,1.0,part_1,,,,,,,,,,,,,orange,flipped triangle
196.0,3.0,3.0,0.0,4.0,4.0,305.8814750002057,2.0,1.0,part_1,,,,,,,,,,,,,orange,flipped triangle
211.0,7.0,3.0,1.0,3.0,3.0,416.2830019995454,2.0,1.0,part_1,,,,,,,,,,,,,yellow,triangle
396.0,8.0,4.0,1.0,3.0,3.0,299.269170000116,2.0,1.0,part_1,,,,,,,,,,,,,blue,circle
0.0,6.0,0.0,1.0,2.0,2.0,261.4103050000267,2.0,1.0,part_1,,,,,,,,,,,,,cyan,diamond
56.0,5.0,1.0,1.0,2.0,2.0,229.4330849999823,2.0,1.0,part_1,,,,,,,,,,,,,green,I
387.0,8.0,4.0,1.0,1.0,1.0,291.9086189995141,2.0,1.0,part_1,,,,,,,,,,,,,blue,circle
84.0,6.0,2.0,1.0,3.0,3.0,415.2019680004741,2.0,1.0,part_1,,,,,,,,,,,,,cyan,diamond
122.0,2.0,2.0,0.0,1.0,1.0,316.2990790006006,2.0,1.0,part_1,,,,,,,,,,,,,magenta,square
415.0,8.0,4.0,1.0,4.0,4.0,314.9579950004408,2.0,1.0,part_1,,,,,,,,,,,,,blue,circle
382.0,8.0,4.0,1.0,1.0,1.0,302.9839549999451,2.0,1.0,part_1,,,,,,,,,,,,,blue,circle
119.0,6.0,2.0,1.0,4.0,4.0,306.0436650011979,2.0,1.0,part_1,,,,,,,,,,,,,cyan,diamond
0.0,2.0,0.0,0.0,2.0,2.0,387.3645879994001,2.0,1.0,part_1,,,,,,,,,,,,,magenta,square
205.0,3.0,3.0,0.0,3.0,3.0,357.9527050005708,2.0,1.0,part_1,,,,,,,,,,,,,orange,flipped triangle
424.0,4.0,4.0,0.0,2.0,2.0,291.3537650001672,2.0,1.0,part_1,,,,,,,,,,,,,gray,cross
402.0,4.0,4.0,0.0,2.0,2.0,360.5707019996771,2.0,1.0,part_1,,,,,,,,,,,,,gray,cross
407.0,8.0,4.0,1.0,2.0,2.0,260.1337789983518,2.0,1.0,part_1,,,,,,,,,,,,,blue,circle
186.0,3.0,3.0,0.0,4.0,4.0,364.1197820015804,2.0,1.0,part_1,,,,,,,,,,,,,orange,flipped triangle
384.0,8.0,4.0,1.0,4.0,4.0,329.4449009990785,2.0,1.0,part_1,,,,,,,,,,,,,blue,circle
401.0,8.0,4.0,1.0,2.0,2.0,289.4211349994293,2.0,1.0,part_1,,,,,,,,,,,,,blue,circle
75.0,1.0,1.0,0.0,2.0,2.0,293.2899050010746,2.0,1.0,part_1,,,,,,,,,,,,,white,hexagon
84.0,2.0,2.0,0.0,1.0,1.0,348.1817769988993,2.0,2.0,part_1,,,,,,,,,,,,,magenta,square
185.0,7.0,3.0,1.0,4.0,4.0,381.2021460016694,2.0,1.0,part_1,,,,,,,,,,,,,yellow,triangle
27.0,5.0,1.0,1.0,1.0,1.0,320.4053640001802,2.0,1.0,part_1,,,,,,,,,,,,,green,I
187.0,7.0,3.0,1.0,2.0,2.0,322.5900010002078,2.0,1.0,part_1,,,,,,,,,,,,,yellow,triangle
0.0,8.0,0.0,1.0,3.0,3.0,392.7204169995093,2.0,1.0,part_1,,,,,,,,,,,,,blue,circle
105.0,6.0,2.0,1.0,4.0,4.0,371.5203200008545,2.0,1.0,part_1,,,,,,,,,,,,,cyan,diamond
375.0,8.0,4.0,1.0,4.0,4.0,323.648208999657,2.0,1.0,part_1,,,,,,,,,,,,,blue,circle
66.0,5.0,1.0,1.0,4.0,4.0,335.278216000006,2.0,1.0,part_1,,,,,,,,,,,,,green,I
123.0,6.0,2.0,1.0,1.0,1.0,301.9728399995074,2.0,1.0,part_1,,,,,,,,,,,,,cyan,diamond
0.0,4.0,0.0,0.0,2.0,2.0,265.2101479998237,2.0,1.0,part_1,,,,,,,,,,,,,gray,cross
0.0,7.0,0.0,1.0,1.0,1.0,262.7761870007816,2.0,1.0,part_1,,,,,,,,,,,,,yellow,triangle
386.0,8.0,4.0,1.0,3.0,3.0,322.4716079985228,2.0,1.0,part_1,,,,,,,,,,,,,blue,circle
103.0,2.0,2.0,0.0,4.0,4.0,322.084311999788,2.0,1.0,part_1,,,,,,,,,,,,,magenta,square
202.0,3.0,3.0,0.0,4.0,4.0,318.1758259997878,2.0,1.0,part_1,,,,,,,,,,,,,orange,flipped triangle
420.0,8.0,4.0,1.0,3.0,3.0,388.9039870009583,2.0,1.0,part_1,,,,,,,,,,,,,blue,circle
26.0,1.0,1.0,0.0,3.0,3.0,321.4771010007098,2.0,1.0,part_1,,,,,,,,,,,,,white,hexagon
83.0,2.0,2.0,0.0,2.0,2.0,275.5660239999997,2.0,1.0,part_1,,,,,,,,,,,,,magenta,square
0.0,7.0,0.0,1.0,2.0,2.0,316.0781679998763,2.0,1.0,part_1,,,,,,,,,,,,,yellow,triangle
185.0,3.0,3.0,0.0,1.0,1.0,323.3381110003392,2.0,2.0,part_1,,,,,,,,,,,,,orange,flipped triangle
105.0,2.0,2.0,0.0,4.0,4.0,465.0113400002738,2.0,1.0,part_1,,,,,,,,,,,,,magenta,square
206.0,7.0,3.0,1.0,4.0,4.0,482.9453359998297,2.0,1.0,part_1,,,,,,,,,,,,,yellow,triangle
212.0,3.0,3.0,0.0,2.0,2.0,461.4535139990039,2.0,1.0,part_1,,,,,,,,,,,,,orange,flipped triangle
406.0,4.0,4.0,0.0,4.0,4.0,370.7506889986689,2.0,1.0,part_1,,,,,,,,,,,,,gray,cross
87.0,2.0,2.0,0.0,4.0,4.0,455.9133919992746,2.0,1.0,part_1,,,,,,,,,,,,,magenta,square
97.0,2.0,2.0,0.0,2.0,2.0,342.2269129987398,2.0,1.0,part_1,,,,,,,,,,,,,magenta,square
103.0,6.0,2.0,1.0,1.0,1.0,404.0019010008109,2.0,1.0,part_1,,,,,,,,,,,,,cyan,diamond
85.0,2.0,2.0,0.0,2.0,2.0,372.3310340010357,2.0,1.0,part_1,,,,,,,,,,,,,magenta,square
85.0,2.0,2.0,0.0,1.0,1.0,340.7344389997888,2.0,1.0,part_1,,,,,,,,,,,,,magenta,square
408.0,4.0,4.0,0.0,3.0,3.0,395.9478180004225,2.0,1.0,part_1,,,,,,,,,,,,,gray,cross
0.0,2.0,0.0,0.0,2.0,2.0,359.8995719985396,2.0,1.0,part_1,,,,,,,,,,,,,magenta,square
409.0,8.0,4.0,1.0,2.0,2.0,347.9278399991017,2.0,1.0,part_1,,,,,,,,,,,,,blue,circle
0.0,6.0,0.0,1.0,3.0,3.0,376.092697999411,2.0,1.0,part_1,,,,,,,,,,,,,cyan,diamond
52.0,5.0,1.0,1.0,2.0,2.0,290.8939850003662,2.0,1.0,part_1,,,,,,,,,,,,,green,I
385.0,4.0,4.0,0.0,3.0,3.0,343.5483269986434,2.0,1.0,part_1,,,,,,,,,,,,,gray,cross
52.0,5.0,1.0,1.0,1.0,1.0,298.9923509994696,2.0,1.0,part_1,,,,,,,,,,,,,green,I
398.0,4.0,4.0,0.0,4.0,4.0,351.3042360009422,2.0,1.0,part_1,,,,,,,,,,,,,gray,cross
52.0,1.0,1.0,0.0,4.0,4.0,388.9774369999941,2.0,1.0,part_1,,,,,,,,,,,,,white,hexagon
176.0,7.0,3.0,1.0,2.0,2.0,369.4050289996085,2.0,1.0,part_1,,,,,,,,,,,,,yellow,triangle
47.0,5.0,1.0,1.0,2.0,2.0,344.2437949997838,2.0,1.0,part_1,,,,,,,,,,,,,green,I
97.0,6.0,2.0,1.0,1.0,1.0,343.7761859986494,2.0,1.0,part_1,,,,,,,,,,,,,cyan,diamond
75.0,2.0,2.0,0.0,1.0,1.0,415.459263998855,2.0,1.0,part_1,,,,,,,,,,,,,magenta,square
55.0,5.0,1.0,1.0,1.0,1.0,333.9825629991537,2.0,1.0,part_1,,,,,,,,,,,,,green,I
0.0,7.0,0.0,1.0,3.0,3.0,348.9183660003618,2.0,1.0,part_1,,,,,,,,,,,,,yellow,triangle
0.0,6.0,0.0,1.0,2.0,2.0,257.5588390009216,2.0,1.0,part_1,,,,,,,,,,,,,cyan,diamond
27.0,1.0,1.0,0.0,3.0,3.0,339.2631549995712,2.0,1.0,part_1,,,,,,,,,,,,,white,hexagon
194.0,3.0,3.0,0.0,1.0,1.0,330.4345960004866,2.0,1.0,part_1,,,,,,,,,,,,,orange,flipped triangle
0.0,1.0,0.0,0.0,2.0,2.0,365.3706109998893,2.0,1.0,part_1,,,,,,,,,,,,,white,hexagon
39.0,1.0,1.0,0.0,2.0,2.0,292.8122249995795,2.0,1.0,part_1,,,,,,,,,,,,,white,hexagon
122.0,6.0,2.0,1.0,3.0,3.0,322.8648809999868,2.0,1.0,part_1,,,,,,,,,,,,,cyan,diamond
32.0,5.0,1.0,1.0,1.0,1.0,300.5554529991059,2.0,1.0,part_1,,,,,,,,,,,,,green,I
0.0,5.0,0.0,1.0,2.0,2.0,257.0944939998298,2.0,1.0,part_1,,,,,,,,,,,,,green,I
211.0,7.0,3.0,1.0,1.0,1.0,326.5808289997949,2.0,1.0,part_1,,,,,,,,,,,,,yellow,triangle
83.0,6.0,2.0,1.0,4.0,4.0,384.7109739999723,2.0,1.0,part_1,,,,,,,,,,,,,cyan,diamond
66.0,5.0,1.0,1.0,2.0,2.0,321.7852260004292,2.0,1.0,part_1,,,,,,,,,,,,,green,I
39.0,1.0,1.0,0.0,3.0,3.0,306.3842979991023,2.0,1.0,part_1,,,,,,,,,,,,,white,hexagon
39.0,5.0,1.0,1.0,1.0,1.0,300.0727310009097,2.0,1.0,part_1,,,,,,,,,,,,,green,I
0.0,8.0,0.0,1.0,3.0,3.0,461.1857140007487,2.0,1.0,part_1,,,,,,,,,,,,,blue,circle
124.0,6.0,2.0,1.0,4.0,4.0,338.85549399929,2.0,1.0,part_1,,,,,,,,,,,,,cyan,diamond
0.0,1.0,0.0,0.0,4.0,4.0,468.9045519990031,2.0,1.0,part_1,,,,,,,,,,,,,white,hexagon
420.0,4.0,4.0,0.0,1.0,1.0,297.5932350000221,2.0,1.0,part_1,,,,,,,,,,,,,gray,cross
31.0,5.0,1.0,1.0,2.0,2.0,353.2379989992478,2.0,1.0,part_1,,,,,,,,,,,,,green,I
0.0,4.0,0.0,0.0,1.0,1.0,306.2618139992992,2.0,1.0,part_1,,,,,,,,,,,,,gray,cross
35.0,1.0,1.0,0.0,4.0,4.0,361.5214560013555,2.0,1.0,part_1,,,,,,,,,,,,,white,hexagon
0.0,5.0,0.0,1.0,3.0,3.0,386.1093359992082,3.0,1.0,part_1,,,,,,,,,,,,,green,I
44.0,5.0,1.0,1.0,4.0,4.0,316.4614540000912,3.0,1.0,part_1,,,,,,,,,,,,,green,I
177.0,7.0,3.0,1.0,3.0,3.0,288.2616110000526,3.0,1.0,part_1,,,,,,,,,,,,,yellow,triangle
201.0,3.0,3.0,0.0,2.0,2.0,287.5909419999516,3.0,1.0,part_1,,,,,,,,,,,,,orange,flipped triangle
205.0,7.0,3.0,1.0,2.0,2.0,286.0496460016293,3.0,1.0,part_1,,,,,,,,,,,,,yellow,triangle
221.0,3.0,3.0,0.0,3.0,3.0,321.2738960010028,3.0,1.0,part_1,,,,,,,,,,,,,orange,flipped triangle
52.0,5.0,1.0,1.0,3.0,3.0,381.01837800059,3.0,1.0,part_1,,,,,,,,,,,,,green,I
64.0,1.0,1.0,0.0,4.0,4.0,344.3848850001814,3.0,1.0,part_1,,,,,,,,,,,,,white,hexagon
0.0,1.0,0.0,0.0,2.0,2.0,325.7874219998484,3.0,1.0,part_1,,,,,,,,,,,,,white,hexagon
99.0,6.0,2.0,1.0,1.0,1.0,386.3688299989007,3.0,1.0,part_1,,,,,,,,,,,,,cyan,diamond
52.0,1.0,1.0,0.0,2.0,2.0,260.7914180007356,3.0,1.0,part_1,,,,,,,,,,,,,white,hexagon
407.0,8.0,4.0,1.0,4.0,4.0,330.1318950016139,3.0,1.0,part_1,,,,,,,,,,,,,blue,circle
201.0,7.0,3.0,1.0,1.0,1.0,251.206805000038,3.0,1.0,part_1,,,,,,,,,,,,,yellow,triangle
81.0,2.0,2.0,0.0,4.0,4.0,435.6121630007692,3.0,1.0,part_1,,,,,,,,,,,,,magenta,square
81.0,6.0,2.0,1.0,2.0,2.0,418.006248999518,3.0,1.0,part_1,,,,,,,,,,,,,cyan,diamond
49.0,5.0,1.0,1.0,4.0,4.0,320.3472140012309,3.0,1.0,part_1,,,,,,,,,,,,,green,I
402.0,8.0,4.0,1.0,3.0,3.0,552.6442150003277,3.0,1.0,part_1,,,,,,,,,,,,,blue,circle
0.0,3.0,0.0,0.0,2.0,2.0,494.211601000643,3.0,1.0,part_1,,,,,,,,,,,,,orange,flipped triangle
49.0,1.0,1.0,0.0,2.0,2.0,291.9022620008036,3.0,1.0,part_1,,,,,,,,,,,,,white,hexagon
0.0,5.0,0.0,1.0,2.0,2.0,292.9167479996977,3.0,1.0,part_1,,,,,,,,,,,,,green,I
214.0,3.0,3.0,0.0,3.0,3.0,343.5657090012682,3.0,1.0,part_1,,,,,,,,,,,,,orange,flipped triangle
81.0,6.0,2.0,1.0,4.0,4.0,301.7621099988901,3.0,2.0,part_1,,,,,,,,,,,,,cyan,diamond
0.0,2.0,0.0,0.0,3.0,3.0,457.7044950001436,3.0,1.0,part_1,,,,,,,,,,,,,magenta,square
56.0,1.0,1.0,0.0,3.0,3.0,365.1329830008762,3.0,1.0,part_1,,,,,,,,,,,,,white,hexagon
202.0,7.0,3.0,1.0,3.0,3.0,324.5851259998744,3.0,1.0,part_1,,,,,,,,,,,,,yellow,triangle
31.0,1.0,1.0,0.0,4.0,4.0,351.6694249992724,3.0,1.0,part_1,,,,,,,,,,,,,white,hexagon
103.0,2.0,2.0,0.0,2.0,2.0,291.3027869999496,3.0,1.0,part_1,,,,,,,,,,,,,magenta,square
71.0,5.0,1.0,1.0,2.0,2.0,322.610823001014,3.0,1.0,part_1,,,,,,,,,,,,,green,I
198.0,3.0,3.0,0.0,3.0,3.0,321.5462360003585,3.0,1.0,part_1,,,,,,,,,,,,,orange,flipped triangle
107.0,6.0,2.0,1.0,2.0,2.0,243.9750779994938,3.0,1.0,part_1,,,,,,,,,,,,,cyan,diamond
387.0,4.0,4.0,0.0,4.0,4.0,278.916854000272,3.0,1.0,part_1,,,,,,,,,,,,,gray,cross
54.0,1.0,1.0,0.0,1.0,1.0,330.9754160000011,3.0,1.0,part_1,,,,,,,,,,,,,white,hexagon
407.0,4.0,4.0,0.0,1.0,1.0,343.8169380006002,3.0,1.0,part_1,,,,,,,,,,,,,gray,cross
221.0,7.0,3.0,1.0,1.0,1.0,380.884939999305,3.0,1.0,part_1,,,,,,,,,,,,,yellow,triangle
105.0,2.0,2.0,0.0,1.0,1.0,319.8177959984605,3.0,1.0,part_1,,,,,,,,,,,,,magenta,square
397.0,4.0,4.0,0.0,4.0,4.0,367.9094939998322,3.0,1.0,part_1,,,,,,,,,,,,,gray,cross
202.0,7.0,3.0,1.0,2.0,2.0,359.7214839992375,3.0,1.0,part_1,,,,,,,,,,,,,yellow,triangle
0.0,6.0,0.0,1.0,2.0,2.0,372.0337840004504,3.0,1.0,part_1,,,,,,,,,,,,,cyan,diamond
0.0,7.0,0.0,1.0,4.0,4.0,313.4572950002621,3.0,1.0,part_1,,,,,,,,,,,,,yellow,triangle
0.0,2.0,0.0,0.0,4.0,4.0,410.315998000442,3.0,1.0,part_1,,,,,,,,,,,,,magenta,square
87.0,2.0,2.0,0.0,2.0,2.0,290.9673869999096,3.0,1.0,part_1,,,,,,,,,,,,,magenta,square
116.0,2.0,2.0,0.0,4.0,4.0,303.8159690004249,3.0,1.0,part_1,,,,,,,,,,,,,magenta,square
122.0,6.0,2.0,1.0,2.0,2.0,305.2818369997112,3.0,1.0,part_1,,,,,,,,,,,,,cyan,diamond
75.0,5.0,1.0,1.0,3.0,3.0,335.8555440008786,3.0,1.0,part_1,,,,,,,,,,,,,green,I
206.0,3.0,3.0,0.0,3.0,3.0,313.0479020001075,3.0,1.0,part_1,,,,,,,,,,,,,orange,flipped triangle
202.0,7.0,3.0,1.0,4.0,4.0,382.4193399996147,3.0,1.0,part_1,,,,,,,,,,,,,yellow,triangle
378.0,8.0,4.0,1.0,1.0,1.0,339.5852699995885,3.0,1.0,part_1,,,,,,,,,,,,,blue,circle
412.0,8.0,4.0,1.0,1.0,1.0,469.8557060000894,3.0,1.0,part_1,,,,,,,,,,,,,blue,circle
0.0,3.0,0.0,0.0,3.0,3.0,362.5041110008169,3.0,1.0,part_1,,,,,,,,,,,,,orange,flipped triangle
406.0,8.0,4.0,1.0,4.0,4.0,400.2571740002167,3.0,1.0,part_1,,,,,,,,,,,,,blue,circle
113.0,6.0,2.0,1.0,2.0,2.0,346.4656150008522,3.0,1.0,part_1,,,,,,,,,,,,,cyan,diamond
79.0,6.0,2.0,1.0,3.0,3.0,357.6496949990542,3.0,1.0,part_1,,,,,,,,,,,,,cyan,diamond
68.0,5.0,1.0,1.0,4.0,4.0,370.7771090012102,3.0,1.0,part_1,,,,,,,,,,,,,green,I
396.0,4.0,4.0,0.0,2.0,2.0,273.2993289992009,3.0,1.0,part_1,,,,,,,,,,,,,gray,cross
0.0,6.0,0.0,1.0,2.0,2.0,301.5898100002232,3.0,1.0,part_1,,,,,,,,,,,,,cyan,diamond
411.0,8.0,4.0,1.0,1.0,1.0,363.9303339987236,3.0,1.0,part_1,,,,,,,,,,,,,blue,circle
99.0,2.0,2.0,0.0,3.0,3.0,283.8278050003282,3.0,1.0,part_1,,,,,,,,,,,,,magenta,square
176.0,3.0,3.0,0.0,2.0,2.0,296.7527260007045,3.0,1.0,part_1,,,,,,,,,,,,,orange,flipped triangle
390.0,8.0,4.0,1.0,3.0,3.0,462.16956599892,3.0,1.0,part_1,,,,,,,,,,,,,blue,circle
68.0,1.0,1.0,0.0,2.0,2.0,329.7516980001092,3.0,1.0,part_1,,,,,,,,,,,,,white,hexagon
38.0,5.0,1.0,1.0,4.0,4.0,326.8293370001629,3.0,1.0,part_1,,,,,,,,,,,,,green,I
203.0,3.0,3.0,0.0,2.0,2.0,276.5840760002902,3.0,1.0,part_1,,,,,,,,,,,,,orange,flipped triangle
52.0,1.0,1.0,0.0,4.0,4.0,317.7929889989173,3.0,1.0,part_1,,,,,,,,,,,,,white,hexagon
0.0,1.0,0.0,0.0,2.0,2.0,298.307778999515,3.0,1.0,part_1,,,,,,,,,,,,,white,hexagon
0.0,1.0,0.0,0.0,3.0,3.0,310.4879949987662,3.0,1.0,part_1,,,,,,,,,,,,,white,hexagon
85.0,6.0,2.0,1.0,4.0,4.0,309.4874859998526,3.0,1.0,part_1,,,,,,,,,,,,,cyan,diamond
193.0,7.0,3.0,1.0,4.0,4.0,319.1366649989504,3.0,1.0,part_1,,,,,,,,,,,,,yellow,triangle
26.0,5.0,1.0,1.0,1.0,1.0,362.7498160003597,3.0,1.0,part_1,,,,,,,,,,,,,green,I
35.0,5.0,1.0,1.0,3.0,3.0,318.1195460001618,3.0,1.0,part_1,,,,,,,,,,,,,green,I
415.0,4.0,4.0,0.0,3.0,3.0,361.2714819992106,3.0,1.0,part_1,,,,,,,,,,,,,gray,cross
0.0,2.0,0.0,0.0,3.0,3.0,440.2945900001214,3.0,1.0,part_1,,,,,,,,,,,,,magenta,square
67.0,5.0,1.0,1.0,4.0,4.0,379.9061760000768,3.0,1.0,part_1,,,,,,,,,,,,,green,I
387.0,4.0,4.0,0.0,1.0,1.0,312.9754950005008,3.0,1.0,part_1,,,,,,,,,,,,,gray,cross
0.0,5.0,0.0,1.0,1.0,1.0,348.6577809999289,3.0,1.0,part_1,,,,,,,,,,,,,green,I
221.0,7.0,3.0,1.0,1.0,1.0,307.5682219987357,3.0,1.0,part_1,,,,,,,,,,,,,yellow,triangle
123.0,2.0,2.0,0.0,3.0,3.0,364.0215909999824,3.0,1.0,part_1,,,,,,,,,,,,,magenta,square
68.0,5.0,1.0,1.0,3.0,3.0,391.1965860006603,3.0,1.0,part_1,,,,,,,,,,,,,green,I
202.0,3.0,3.0,0.0,2.0,2.0,260.4132779997599,3.0,1.0,part_1,,,,,,,,,,,,,orange,flipped triangle
186.0,7.0,3.0,1.0,4.0,4.0,292.2193140002491,3.0,1.0,part_1,,,,,,,,,,,,,yellow,triangle
378.0,4.0,4.0,0.0,4.0,4.0,370.1808620007796,3.0,1.0,part_1,,,,,,,,,,,,,gray,cross
0.0,1.0,0.0,0.0,2.0,2.0,288.8373269997828,3.0,1.0,part_1,,,,,,,,,,,,,white,hexagon
193.0,3.0,3.0,0.0,3.0,3.0,307.4662449998868,3.0,1.0,part_1,,,,,,,,,,,,,orange,flipped triangle
75.0,6.0,2.0,1.0,1.0,1.0,439.3522460013628,3.0,1.0,part_1,,,,,,,,,,,,,cyan,diamond
47.0,1.0,1.0,0.0,2.0,2.0,299.1524349999963,3.0,1.0,part_1,,,,,,,,,,,,,white,hexagon
116.0,6.0,2.0,1.0,2.0,2.0,428.5674160000781,3.0,1.0,part_1,,,,,,,,,,,,,cyan,diamond
113.0,2.0,2.0,0.0,1.0,1.0,350.3430019991356,3.0,1.0,part_1,,,,,,,,,,,,,magenta,square
387.0,8.0,4.0,1.0,2.0,2.0,464.654008999787,3.0,1.0,part_1,,,,,,,,,,,,,blue,circle
386.0,4.0,4.0,0.0,3.0,3.0,332.0249959997454,3.0,1.0,part_1,,,,,,,,,,,,,gray,cross
382.0,4.0,4.0,0.0,4.0,4.0,350.748950999332,3.0,1.0,part_1,,,,,,,,,,,,,gray,cross
188.0,3.0,3.0,0.0,4.0,4.0,329.9283360011031,3.0,1.0,part_1,,,,,,,,,,,,,orange,flipped triangle
92.0,2.0,2.0,0.0,3.0,3.0,369.172624001294,3.0,1.0,part_1,,,,,,,,,,,,,magenta,square
0.0,2.0,0.0,0.0,1.0,1.0,327.0305469995946,3.0,1.0,part_1,,,,,,,,,,,,,magenta,square
401.0,8.0,4.0,1.0,2.0,2.0,293.6305380007979,3.0,1.0,part_1,,,,,,,,,,,,,blue,circle
0.0,3.0,0.0,0.0,1.0,1.0,477.2548969995114,3.0,1.0,part_1,,,,,,,,,,,,,orange,flipped triangle
0.0,4.0,0.0,0.0,4.0,4.0,355.2805180006544,3.0,1.0,part_1,,,,,,,,,,,,,gray,cross
56.0,1.0,1.0,0.0,1.0,1.0,330.3709219999291,3.0,1.0,part_1,,,,,,,,,,,,,white,hexagon
220.0,7.0,3.0,1.0,3.0,3.0,342.344939999748,3.0,1.0,part_1,,,,,,,,,,,,,yellow,triangle
56.0,5.0,1.0,1.0,1.0,1.0,322.8862579999259,3.0,1.0,part_1,,,,,,,,,,,,,green,I
54.0,5.0,1.0,1.0,3.0,3.0,379.217540999889,3.0,1.0,part_1,,,,,,,,,,,,,green,I
70.0,5.0,1.0,1.0,3.0,3.0,407.3710169996047,3.0,1.0,part_1,,,,,,,,,,,,,green,I
382.0,8.0,4.0,1.0,1.0,1.0,376.8192690004071,4.0,1.0,part_1,,,,,,,,,,,,,blue,circle
202.0,3.0,3.0,0.0,1.0,1.0,275.2722810000705,4.0,1.0,part_1,,,,,,,,,,,,,orange,flipped triangle
98.0,6.0,2.0,1.0,3.0,3.0,303.5953630005679,4.0,1.0,part_1,,,,,,,,,,,,,cyan,diamond
115.0,6.0,2.0,1.0,3.0,3.0,343.2585860009567,4.0,1.0,part_1,,,,,,,,,,,,,cyan,diamond
41.0,1.0,1.0,0.0,4.0,4.0,321.5280169988546,4.0,1.0,part_1,,,,,,,,,,,,,white,hexagon
0.0,6.0,0.0,1.0,4.0,4.0,492.9097269996418,4.0,1.0,part_1,,,,,,,,,,,,,cyan,diamond
0.0,8.0,0.0,1.0,4.0,4.0,401.9343879990629,4.0,1.0,part_1,,,,,,,,,,,,,blue,circle
27.0,5.0,1.0,1.0,1.0,1.0,334.21909199933,4.0,1.0,part_1,,,,,,,,,,,,,green,I
384.0,4.0,4.0,0.0,1.0,1.0,489.3316979996598,4.0,1.0,part_1,,,,,,,,,,,,,gray,cross
0.0,8.0,0.0,1.0,2.0,2.0,375.0346149990946,4.0,1.0,part_1,,,,,,,,,,,,,blue,circle
52.0,5.0,1.0,1.0,4.0,4.0,466.7651960007788,4.0,1.0,part_1,,,,,,,,,,,,,green,I
417.0,8.0,4.0,1.0,3.0,3.0,328.816122999342,4.0,1.0,part_1,,,,,,,,,,,,,blue,circle
79.0,2.0,2.0,0.0,3.0,3.0,366.864842000723,4.0,1.0,part_1,,,,,,,,,,,,,magenta,square
65.0,5.0,1.0,1.0,4.0,4.0,395.3437929994834,4.0,1.0,part_1,,,,,,,,,,,,,green,I
192.0,7.0,3.0,1.0,2.0,2.0,290.3904470003908,4.0,1.0,part_1,,,,,,,,,,,,,yellow,triangle
0.0,3.0,0.0,0.0,4.0,4.0,380.6239019995701,4.0,1.0,part_1,,,,,,,,,,,,,orange,flipped triangle
221.0,3.0,3.0,0.0,2.0,2.0,313.4477869989496,4.0,1.0,part_1,,,,,,,,,,,,,orange,flipped triangle
0.0,8.0,0.0,1.0,4.0,4.0,354.0108439992764,4.0,1.0,part_1,,,,,,,,,,,,,blue,circle
27.0,1.0,1.0,0.0,3.0,3.0,329.6574460000556,4.0,1.0,part_1,,,,,,,,,,,,,white,hexagon
0.0,3.0,0.0,0.0,1.0,1.0,370.044235000023,4.0,1.0,part_1,,,,,,,,,,,,,orange,flipped triangle
397.0,8.0,4.0,1.0,2.0,2.0,274.8566450009093,4.0,1.0,part_1,,,,,,,,,,,,,blue,circle
0.0,4.0,0.0,0.0,4.0,4.0,336.9402429998445,4.0,1.0,part_1,,,,,,,,,,,,,gray,cross
0.0,1.0,0.0,0.0,3.0,3.0,342.3853350013814,4.0,1.0,part_1,,,,,,,,,,,,,white,hexagon
114.0,2.0,2.0,0.0,4.0,4.0,336.0756900001433,4.0,1.0,part_1,,,,,,,,,,,,,magenta,square
0.0,7.0,0.0,1.0,2.0,2.0,309.8355089987308,4.0,1.0,part_1,,,,,,,,,,,,,yellow,triangle
393.0,8.0,4.0,1.0,1.0,1.0,340.2613420003035,4.0,1.0,part_1,,,,,,,,,,,,,blue,circle
118.0,2.0,2.0,0.0,3.0,3.0,403.9229009995324,4.0,1.0,part_1,,,,,,,,,,,,,magenta,square
180.0,3.0,3.0,0.0,4.0,4.0,346.7628809994494,4.0,1.0,part_1,,,,,,,,,,,,,orange,flipped triangle
0.0,8.0,0.0,1.0,4.0,4.0,354.3036520004534,4.0,1.0,part_1,,,,,,,,,,,,,blue,circle
375.0,4.0,4.0,0.0,1.0,1.0,329.1354740013048,4.0,1.0,part_1,,,,,,,,,,,,,gray,cross
107.0,2.0,2.0,0.0,3.0,3.0,315.0721780002641,4.0,1.0,part_1,,,,,,,,,,,,,magenta,square
390.0,8.0,4.0,1.0,1.0,1.0,357.4068720008654,4.0,1.0,part_1,,,,,,,,,,,,,blue,circle
0.0,7.0,0.0,1.0,3.0,3.0,330.4910909992031,4.0,1.0,part_1,,,,,,,,,,,,,yellow,triangle
38.0,1.0,1.0,0.0,2.0,2.0,331.6715140008455,4.0,1.0,part_1,,,,,,,,,,,,,white,hexagon
44.0,1.0,1.0,0.0,1.0,1.0,314.7221649996936,4.0,1.0,part_1,,,,,,,,,,,,,white,hexagon
213.0,3.0,3.0,0.0,2.0,2.0,299.9469290007255,4.0,1.0,part_1,,,,,,,,,,,,,orange,flipped triangle
116.0,6.0,2.0,1.0,4.0,4.0,373.9534449996426,4.0,1.0,part_1,,,,,,,,,,,,,cyan,diamond
401.0,4.0,4.0,0.0,2.0,2.0,265.0445669987675,4.0,1.0,part_1,,,,,,,,,,,,,gray,cross
82.0,6.0,2.0,1.0,1.0,1.0,322.0878560005076,4.0,1.0,part_1,,,,,,,,,,,,,cyan,diamond
66.0,1.0,1.0,0.0,2.0,2.0,306.7527849998441,4.0,1.0,part_1,,,,,,,,,,,,,white,hexagon
0.0,5.0,0.0,1.0,4.0,4.0,382.191729000624,4.0,1.0,part_1,,,,,,,,,,,,,green,I
177.0,3.0,3.0,0.0,1.0,1.0,307.1905420001712,4.0,1.0,part_1,,,,,,,,,,,,,orange,flipped triangle
198.0,7.0,3.0,1.0,1.0,1.0,275.3723590012669,4.0,1.0,part_1,,,,,,,,,,,,,yellow,triangle
103.0,6.0,2.0,1.0,2.0,2.0,311.4930470001127,4.0,1.0,part_1,,,,,,,,,,,,,cyan,diamond
115.0,2.0,2.0,0.0,2.0,2.0,329.3479940002726,4.0,1.0,part_1,,,,,,,,,,,,,magenta,square
217.0,7.0,3.0,1.0,1.0,1.0,337.691865999659,4.0,1.0,part_1,,,,,,,,,,,,,yellow,triangle
413.0,8.0,4.0,1.0,1.0,1.0,348.1270230004156,4.0,1.0,part_1,,,,,,,,,,,,,blue,circle
0.0,5.0,0.0,1.0,2.0,2.0,281.3648139999714,4.0,1.0,part_1,,,,,,,,,,,,,green,I
180.0,7.0,3.0,1.0,3.0,3.0,314.5071300004929,4.0,1.0,part_1,,,,,,,,,,,,,yellow,triangle
221.0,7.0,3.0,1.0,1.0,1.0,332.4826030002441,4.0,1.0,part_1,,,,,,,,,,,,,yellow,triangle
67.0,1.0,1.0,0.0,1.0,1.0,351.3500150002073,4.0,1.0,part_1,,,,,,,,,,,,,white,hexagon
0.0,8.0,0.0,1.0,4.0,4.0,335.22321899909,4.0,1.0,part_1,,,,,,,,,,,,,blue,circle
107.0,2.0,2.0,0.0,4.0,4.0,380.98615600029,4.0,1.0,part_1,,,,,,,,,,,,,magenta,square
105.0,6.0,2.0,1.0,4.0,4.0,382.679313999688,4.0,1.0,part_1,,,,,,,,,,,,,cyan,diamond
100.0,6.0,2.0,1.0,2.0,2.0,315.0907320014084,4.0,1.0,part_1,,,,,,,,,,,,,cyan,diamond
0.0,5.0,0.0,1.0,3.0,3.0,325.9966370005713,4.0,1.0,part_1,,,,,,,,,,,,,green,I
0.0,2.0,0.0,0.0,1.0,1.0,250.8031419984036,4.0,1.0,part_1,,,,,,,,,,,,,magenta,square
107.0,6.0,2.0,1.0,1.0,1.0,361.9980060011585,4.0,1.0,part_1,,,,,,,,,,,,,cyan,diamond
417.0,4.0,4.0,0.0,4.0,4.0,344.9986369996622,4.0,1.0,part_1,,,,,,,,,,,,,gray,cross
205.0,3.0,3.0,0.0,1.0,1.0,334.9304920011491,4.0,1.0,part_1,,,,,,,,,,,,,orange,flipped triangle
0.0,1.0,0.0,0.0,1.0,1.0,368.832142001338,4.0,1.0,part_1,,,,,,,,,,,,,white,hexagon
97.0,6.0,2.0,1.0,3.0,3.0,526.8876860009186,4.0,1.0,part_1,,,,,,,,,,,,,cyan,diamond
100.0,2.0,2.0,0.0,4.0,4.0,375.9977639983844,4.0,1.0,part_1,,,,,,,,,,,,,magenta,square
47.0,1.0,1.0,0.0,3.0,3.0,448.3762399995612,4.0,1.0,part_1,,,,,,,,,,,,,white,hexagon
32.0,1.0,1.0,0.0,4.0,4.0,346.4131410000846,4.0,1.0,part_1,,,,,,,,,,,,,white,hexagon
179.0,7.0,3.0,1.0,3.0,3.0,382.1168829999806,4.0,1.0,part_1,,,,,,,,,,,,,yellow,triangle
393.0,4.0,4.0,0.0,2.0,2.0,366.2133299985726,4.0,1.0,part_1,,,,,,,,,,,,,gray,cross
405.0,4.0,4.0,0.0,1.0,1.0,351.9146170001477,4.0,1.0,part_1,,,,,,,,,,,,,gray,cross
408.0,4.0,4.0,0.0,3.0,3.0,331.4760299999761,4.0,1.0,part_1,,,,,,,,,,,,,gray,cross
114.0,6.0,2.0,1.0,3.0,3.0,333.5273079992475,4.0,1.0,part_1,,,,,,,,,,,,,cyan,diamond
70.0,1.0,1.0,0.0,1.0,1.0,329.2947680001816,4.0,1.0,part_1,,,,,,,,,,,,,white,hexagon
205.0,7.0,3.0,1.0,4.0,4.0,384.7740330002125,4.0,1.0,part_1,,,,,,,,,,,,,yellow,triangle
404.0,8.0,4.0,1.0,1.0,1.0,343.1689980006922,4.0,1.0,part_1,,,,,,,,,,,,,blue,circle
211.0,3.0,3.0,0.0,1.0,1.0,319.967297000403,4.0,1.0,part_1,,,,,,,,,,,,,orange,flipped triangle
386.0,8.0,4.0,1.0,2.0,2.0,358.5594719988876,4.0,1.0,part_1,,,,,,,,,,,,,blue,circle
107.0,2.0,2.0,0.0,3.0,3.0,412.3430629988434,4.0,1.0,part_1,,,,,,,,,,,,,magenta,square
0.0,1.0,0.0,0.0,3.0,3.0,394.8901269995986,4.0,1.0,part_1,,,,,,,,,,,,,white,hexagon
52.0,1.0,1.0,0.0,3.0,3.0,361.0742580003716,4.0,1.0,part_1,,,,,,,,,,,,,white,hexagon
46.0,1.0,1.0,0.0,1.0,1.0,299.7737309997319,4.0,1.0,part_1,,,,,,,,,,,,,white,hexagon
0.0,8.0,0.0,1.0,2.0,2.0,329.7499140007858,4.0,1.0,part_1,,,,,,,,,,,,,blue,circle
217.0,3.0,3.0,0.0,4.0,4.0,346.1597530003928,4.0,1.0,part_1,,,,,,,,,,,,,orange,flipped triangle
386.0,4.0,4.0,0.0,4.0,4.0,345.215133000238,4.0,1.0,part_1,,,,,,,,,,,,,gray,cross
116.0,2.0,2.0,0.0,1.0,1.0,316.1590979998436,4.0,1.0,part_1,,,,,,,,,,,,,magenta,square
0.0,2.0,0.0,0.0,1.0,1.0,388.4213290002662,4.0,1.0,part_1,,,,,,,,,,,,,magenta,square
82.0,2.0,2.0,0.0,2.0,2.0,305.3111200006242,4.0,1.0,part_1,,,,,,,,,,,,,magenta,square
37.0,1.0,1.0,0.0,3.0,3.0,484.0341889994306,4.0,1.0,part_1,,,,,,,,,,,,,white,hexagon
412.0,4.0,4.0,0.0,3.0,3.0,411.6151580001315,4.0,1.0,part_1,,,,,,,,,,,,,gray,cross
0.0,6.0,0.0,1.0,4.0,4.0,332.241680000152,4.0,1.0,part_1,,,,,,,,,,,,,cyan,diamond
64.0,5.0,1.0,1.0,4.0,4.0,370.0956110005791,4.0,1.0,part_1,,,,,,,,,,,,,green,I
0.0,7.0,0.0,1.0,2.0,2.0,325.3316509999422,4.0,1.0,part_1,,,,,,,,,,,,,yellow,triangle
0.0,6.0,0.0,1.0,4.0,4.0,365.290890000324,4.0,1.0,part_1,,,,,,,,,,,,,cyan,diamond
0.0,7.0,0.0,1.0,3.0,3.0,309.8237789999984,4.0,1.0,part_1,,,,,,,,,,,,,yellow,triangle
201.0,7.0,3.0,1.0,2.0,2.0,242.4985889992967,4.0,1.0,part_1,,,,,,,,,,,,,yellow,triangle
99.0,6.0,2.0,1.0,4.0,4.0,357.9021759996976,4.0,1.0,part_1,,,,,,,,,,,,,cyan,diamond
203.0,7.0,3.0,1.0,4.0,4.0,359.2777070007287,4.0,1.0,part_1,,,,,,,,,,,,,yellow,triangle
412.0,8.0,4.0,1.0,3.0,3.0,330.8908629987854,4.0,1.0,part_1,,,,,,,,,,,,,blue,circle
91.0,2.0,2.0,0.0,2.0,2.0,318.7473189991578,4.0,1.0,part_1,,,,,,,,,,,,,magenta,square
0.0,5.0,0.0,1.0,1.0,1.0,322.0597359995736,4.0,1.0,part_1,,,,,,,,,,,,,green,I
194.0,7.0,3.0,1.0,2.0,2.0,281.3147500000923,4.0,1.0,part_1,,,,,,,,,,,,,yellow,triangle
417.0,4.0,4.0,0.0,3.0,3.0,295.8012870003585,4.0,1.0,part_1,,,,,,,,,,,,,gray,cross
0.0,1.0,1.0,0.0,6.0,6.0,405.4420630000095,1.0,0.0,part_2,go,250.0,250.0,1.0,,,,,,,,,white,hexagon
0.0,6.0,2.0,1.0,6.0,6.0,406.9151290004811,1.0,0.0,part_2,stop,250.0,250.0,3.0,,,,,,,,,cyan,diamond
0.0,7.0,3.0,1.0,6.0,6.0,615.0426309995964,1.0,0.0,part_2,stop,250.0,200.0,3.0,,,,,,,,,yellow,triangle
0.0,1.0,1.0,0.0,5.0,5.0,374.5722950006893,1.0,0.0,part_2,go,250.0,150.0,1.0,,,,,,,,,white,hexagon
0.0,4.0,4.0,0.0,5.0,5.0,384.3965140004002,1.0,0.0,part_2,go,250.0,150.0,1.0,,,,,,,,,gray,cross
0.0,5.0,1.0,1.0,5.0,5.0,388.8306110002304,1.0,0.0,part_2,go,250.0,150.0,1.0,,,,,,,,,green,I
0.0,2.0,2.0,0.0,5.0,5.0,378.7700369994127,1.0,0.0,part_2,go,250.0,150.0,1.0,,,,,,,,,magenta,square
0.0,2.0,2.0,0.0,6.0,6.0,396.0702170006698,1.0,0.0,part_2,go,250.0,150.0,1.0,,,,,,,,,magenta,square
0.0,2.0,2.0,0.0,5.0,5.0,302.9076850016281,1.0,0.0,part_2,go,250.0,150.0,1.0,,,,,,,,,magenta,square
0.0,6.0,2.0,1.0,5.0,5.0,299.9868930000957,1.0,0.0,part_2,stop,250.0,150.0,3.0,,,,,,,,,cyan,diamond
0.0,5.0,1.0,1.0,5.0,5.0,307.2441820004314,1.0,0.0,part_2,stop,200.0,150.0,3.0,,,,,,,,,green,I
0.0,3.0,3.0,0.0,6.0,6.0,373.3454260000144,1.0,0.0,part_2,go,150.0,150.0,1.0,,,,,,,,,orange,flipped triangle
0.0,6.0,2.0,1.0,6.0,6.0,631.1269710004126,1.0,0.0,part_2,stop,150.0,150.0,3.0,,,,,,,,,cyan,diamond
0.0,6.0,2.0,1.0,5.0,0.0,0.0,1.0,0.0,part_2,stop,150.0,100.0,4.0,,,,,,,,,cyan,diamond
0.0,4.0,4.0,0.0,6.0,6.0,566.6099399986706,1.0,0.0,part_2,go,200.0,100.0,1.0,,,,,,,,,gray,cross
0.0,6.0,2.0,1.0,6.0,0.0,0.0,1.0,0.0,part_2,stop,200.0,100.0,4.0,,,,,,,,,cyan,diamond
0.0,2.0,2.0,0.0,6.0,6.0,606.9226470008289,1.0,0.0,part_2,go,200.0,150.0,1.0,,,,,,,,,magenta,square
0.0,7.0,3.0,1.0,5.0,5.0,626.7826450002758,1.0,0.0,part_2,go,200.0,150.0,1.0,,,,,,,,,yellow,triangle
0.0,8.0,4.0,1.0,6.0,6.0,305.8728579999297,1.0,0.0,part_2,stop,200.0,150.0,3.0,,,,,,,,,blue,circle
0.0,1.0,1.0,0.0,6.0,6.0,666.6586240007746,1.0,0.0,part_2,go,200.0,100.0,1.0,,,,,,,,,white,hexagon
0.0,1.0,1.0,0.0,6.0,6.0,465.6502500001807,1.0,0.0,part_2,go,200.0,100.0,1.0,,,,,,,,,white,hexagon
0.0,4.0,4.0,0.0,6.0,6.0,426.2296079996304,1.0,0.0,part_2,go,200.0,100.0,1.0,,,,,,,,,gray,cross
0.0,3.0,3.0,0.0,6.0,6.0,338.0699700010154,1.0,0.0,part_2,go,200.0,100.0,1.0,,,,,,,,,orange,flipped triangle
0.0,8.0,4.0,1.0,5.0,5.0,466.9646309994277,1.0,0.0,part_2,go,200.0,100.0,1.0,,,,,,,,,blue,circle
0.0,3.0,3.0,0.0,5.0,5.0,412.6521100006357,1.0,0.0,part_2,go,200.0,100.0,1.0,,,,,,,,,orange,flipped triangle
0.0,1.0,1.0,0.0,6.0,6.0,403.2104060006531,1.0,0.0,part_2,go,200.0,100.0,1.0,,,,,,,,,white,hexagon
0.0,4.0,4.0,0.0,5.0,5.0,456.490386999576,1.0,0.0,part_2,go,200.0,100.0,1.0,,,,,,,,,gray,cross
0.0,5.0,1.0,1.0,5.0,0.0,0.0,1.0,0.0,part_2,stop,200.0,100.0,4.0,,,,,,,,,green,I
0.0,4.0,4.0,0.0,6.0,6.0,573.2040860002598,1.0,0.0,part_2,go,250.0,100.0,1.0,,,,,,,,,gray,cross
0.0,7.0,3.0,1.0,5.0,0.0,0.0,1.0,0.0,part_2,stop,250.0,100.0,4.0,,,,,,,,,yellow,triangle
0.0,3.0,3.0,0.0,6.0,6.0,534.4309809988772,1.0,0.0,part_2,go,300.0,100.0,1.0,,,,,,,,,orange,flipped triangle
0.0,4.0,4.0,0.0,5.0,5.0,309.8336269995343,1.0,0.0,part_2,go,300.0,100.0,1.0,,,,,,,,,gray,cross
0.0,5.0,1.0,1.0,5.0,5.0,360.6633270010206,1.0,0.0,part_2,go,300.0,100.0,1.0,,,,,,,,,green,I
0.0,3.0,3.0,0.0,5.0,5.0,326.9425810012762,1.0,0.0,part_2,go,300.0,100.0,1.0,,,,,,,,,orange,flipped triangle
0.0,5.0,1.0,1.0,5.0,5.0,379.3480220010679,1.0,0.0,part_2,stop,300.0,100.0,3.0,,,,,,,,,green,I
0.0,5.0,1.0,1.0,6.0,0.0,0.0,1.0,0.0,part_2,stop,250.0,100.0,4.0,,,,,,,,,green,I
0.0,4.0,4.0,0.0,6.0,6.0,796.4016569985688,2.0,0.0,part_2,go,250.0,150.0,1.0,,,,,,,,,gray,cross
0.0,5.0,1.0,1.0,5.0,5.0,455.6507220004278,2.0,0.0,part_2,go,250.0,150.0,1.0,,,,,,,,,green,I
0.0,2.0,2.0,0.0,5.0,5.0,469.2578689991933,2.0,0.0,part_2,go,250.0,150.0,1.0,,,,,,,,,magenta,square
0.0,3.0,3.0,0.0,5.0,5.0,390.720159999546,2.0,0.0,part_2,go,250.0,150.0,1.0,,,,,,,,,orange,flipped triangle
0.0,7.0,3.0,1.0,5.0,5.0,383.9568099992902,2.0,0.0,part_2,stop,250.0,150.0,3.0,,,,,,,,,yellow,triangle
0.0,4.0,4.0,0.0,5.0,5.0,596.7922399995587,2.0,0.0,part_2,go,200.0,150.0,1.0,,,,,,,,,gray,cross
0.0,5.0,1.0,1.0,5.0,0.0,0.0,2.0,0.0,part_2,stop,200.0,150.0,4.0,,,,,,,,,green,I
0.0,6.0,2.0,1.0,5.0,5.0,436.0441459994035,2.0,0.0,part_2,go,250.0,150.0,1.0,,,,,,,,,cyan,diamond
0.0,5.0,1.0,1.0,5.0,5.0,434.8866750005982,2.0,0.0,part_2,go,250.0,150.0,1.0,,,,,,,,,green,I
0.0,7.0,3.0,1.0,5.0,0.0,0.0,2.0,0.0,part_2,stop,250.0,150.0,4.0,,,,,,,,,yellow,triangle
0.0,1.0,1.0,0.0,5.0,5.0,460.6314450011268,2.0,0.0,part_2,go,300.0,150.0,1.0,,,,,,,,,white,hexagon
0.0,1.0,1.0,0.0,6.0,6.0,512.88354099961,2.0,0.0,part_2,go,300.0,150.0,1.0,,,,,,,,,white,hexagon
0.0,7.0,3.0,1.0,5.0,5.0,471.7361769999115,2.0,0.0,part_2,go,300.0,150.0,1.0,,,,,,,,,yellow,triangle
0.0,3.0,3.0,0.0,5.0,5.0,488.0664320007781,2.0,0.0,part_2,go,300.0,150.0,1.0,,,,,,,,,orange,flipped triangle
0.0,7.0,3.0,1.0,6.0,0.0,0.0,2.0,0.0,part_2,stop,300.0,150.0,4.0,,,,,,,,,yellow,triangle
0.0,2.0,2.0,0.0,5.0,5.0,513.1763000008505,2.0,0.0,part_2,go,300.0,200.0,1.0,,,,,,,,,magenta,square
0.0,7.0,3.0,1.0,6.0,0.0,0.0,2.0,0.0,part_2,stop,300.0,200.0,4.0,,,,,,,,,yellow,triangle
0.0,7.0,3.0,1.0,6.0,6.0,622.2262579995004,2.0,0.0,part_2,go,300.0,250.0,1.0,,,,,,,,,yellow,triangle
0.0,8.0,4.0,1.0,5.0,5.0,360.943784000483,2.0,0.0,part_2,go,300.0,250.0,1.0,,,,,,,,,blue,circle
0.0,7.0,3.0,1.0,6.0,0.0,0.0,2.0,0.0,part_2,stop,300.0,250.0,4.0,,,,,,,,,yellow,triangle
0.0,6.0,2.0,1.0,5.0,5.0,333.077580000463,2.0,0.0,part_2,stop,300.0,300.0,3.0,,,,,,,,,cyan,diamond
0.0,3.0,3.0,0.0,6.0,6.0,442.2236589998647,2.0,0.0,part_2,go,250.0,300.0,1.0,,,,,,,,,orange,flipped triangle
0.0,8.0,4.0,1.0,5.0,5.0,476.2004419990262,2.0,0.0,part_2,go,250.0,300.0,1.0,,,,,,,,,blue,circle
0.0,6.0,2.0,1.0,6.0,6.0,453.3332869996229,2.0,0.0,part_2,stop,250.0,300.0,3.0,,,,,,,,,cyan,diamond
0.0,7.0,3.0,1.0,5.0,0.0,0.0,2.0,0.0,part_2,stop,250.0,250.0,4.0,,,,,,,,,yellow,triangle
0.0,1.0,1.0,0.0,6.0,6.0,627.4434679999104,2.0,0.0,part_2,go,300.0,250.0,1.0,,,,,,,,,white,hexagon
0.0,8.0,4.0,1.0,5.0,5.0,468.6923230001412,2.0,0.0,part_2,stop,300.0,250.0,3.0,,,,,,,,,blue,circle
0.0,1.0,1.0,0.0,6.0,6.0,555.1024099986535,2.0,0.0,part_2,go,250.0,250.0,1.0,,,,,,,,,white,hexagon
0.0,5.0,1.0,1.0,6.0,0.0,0.0,2.0,0.0,part_2,stop,250.0,250.0,4.0,,,,,,,,,green,I
0.0,3.0,3.0,0.0,6.0,6.0,576.0542799998802,2.0,0.0,part_2,go,250.0,300.0,1.0,,,,,,,,,orange,flipped triangle
0.0,8.0,4.0,1.0,5.0,0.0,0.0,2.0,0.0,part_2,stop,250.0,300.0,4.0,,,,,,,,,blue,circle
0.0,4.0,4.0,0.0,6.0,6.0,526.4792359994317,2.0,0.0,part_2,go,300.0,300.0,1.0,,,,,,,,,gray,cross
0.0,3.0,3.0,0.0,6.0,6.0,636.9927959985944,2.0,0.0,part_2,go,300.0,300.0,1.0,,,,,,,,,orange,flipped triangle
0.0,2.0,2.0,0.0,6.0,6.0,457.8651490010088,2.0,0.0,part_2,go,300.0,300.0,1.0,,,,,,,,,magenta,square
0.0,5.0,1.0,1.0,5.0,0.0,0.0,2.0,0.0,part_2,stop,300.0,300.0,4.0,,,,,,,,,green,I
0.0,5.0,1.0,1.0,6.0,6.0,507.2263080000994,2.0,0.0,part_2,go,350.0,300.0,1.0,,,,,,,,,green,I
0.0,5.0,1.0,1.0,5.0,5.0,443.3649429993238,3.0,0.0,part_2,stop,350.0,300.0,3.0,,,,,,,,,green,I
0.0,1.0,1.0,0.0,5.0,5.0,516.4561909987242,3.0,0.0,part_2,go,300.0,300.0,1.0,,,,,,,,,white,hexagon
0.0,5.0,1.0,1.0,5.0,5.0,597.121248001713,3.0,0.0,part_2,go,300.0,300.0,1.0,,,,,,,,,green,I
0.0,3.0,3.0,0.0,6.0,6.0,506.6406529986125,3.0,0.0,part_2,go,300.0,300.0,1.0,,,,,,,,,orange,flipped triangle
0.0,4.0,4.0,0.0,5.0,5.0,550.7967070006998,3.0,0.0,part_2,go,300.0,300.0,1.0,,,,,,,,,gray,cross
0.0,6.0,2.0,1.0,6.0,6.0,572.2719609984779,3.0,0.0,part_2,go,300.0,300.0,1.0,,,,,,,,,cyan,diamond
0.0,8.0,4.0,1.0,5.0,5.0,513.054822000413,3.0,0.0,part_2,go,300.0,300.0,1.0,,,,,,,,,blue,circle
0.0,5.0,1.0,1.0,6.0,0.0,0.0,3.0,0.0,part_2,stop,300.0,300.0,4.0,,,,,,,,,green,I
0.0,5.0,1.0,1.0,6.0,0.0,0.0,3.0,0.0,part_2,stop,300.0,350.0,4.0,,,,,,,,,green,I
0.0,1.0,1.0,0.0,6.0,6.0,525.0384879982448,3.0,0.0,part_2,go,300.0,400.0,1.0,,,,,,,,,white,hexagon
0.0,7.0,3.0,1.0,5.0,5.0,439.067322999108,3.0,0.0,part_2,stop,300.0,400.0,3.0,,,,,,,,,yellow,triangle
0.0,1.0,1.0,0.0,6.0,6.0,714.9070979994576,3.0,0.0,part_2,go,250.0,400.0,1.0,,,,,,,,,white,hexagon
0.0,6.0,2.0,1.0,6.0,6.0,460.6654839990369,3.0,0.0,part_2,stop,250.0,400.0,3.0,,,,,,,,,cyan,diamond
0.0,8.0,4.0,1.0,6.0,0.0,0.0,3.0,0.0,part_2,stop,250.0,350.0,4.0,,,,,,,,,blue,circle
0.0,3.0,3.0,0.0,5.0,5.0,628.8598289993388,3.0,0.0,part_2,go,250.0,400.0,1.0,,,,,,,,,orange,flipped triangle
0.0,6.0,2.0,1.0,5.0,0.0,0.0,3.0,0.0,part_2,stop,250.0,400.0,4.0,,,,,,,,,cyan,diamond
0.0,1.0,1.0,0.0,5.0,5.0,465.014968000105,3.0,0.0,part_2,go,300.0,400.0,1.0,,,,,,,,,white,hexagon
0.0,8.0,4.0,1.0,6.0,0.0,0.0,3.0,0.0,part_2,stop,300.0,400.0,4.0,,,,,,,,,blue,circle
0.0,7.0,3.0,1.0,5.0,0.0,0.0,3.0,0.0,part_2,stop,300.0,450.0,4.0,,,,,,,,,yellow,triangle
0.0,3.0,3.0,0.0,5.0,5.0,601.0406830009742,3.0,0.0,part_2,go,350.0,450.0,1.0,,,,,,,,,orange,flipped triangle
0.0,3.0,3.0,0.0,5.0,5.0,522.4046200000885,3.0,0.0,part_2,go,350.0,450.0,1.0,,,,,,,,,orange,flipped triangle
0.0,1.0,1.0,0.0,5.0,5.0,564.3758839996735,3.0,0.0,part_2,go,350.0,450.0,1.0,,,,,,,,,white,hexagon
0.0,6.0,2.0,1.0,5.0,0.0,0.0,3.0,0.0,part_2,stop,350.0,450.0,4.0,,,,,,,,,cyan,diamond
0.0,6.0,2.0,1.0,6.0,6.0,707.3089989989967,3.0,0.0,part_2,go,400.0,450.0,1.0,,,,,,,,,cyan,diamond
0.0,2.0,2.0,0.0,5.0,5.0,664.579178999702,3.0,0.0,part_2,go,400.0,450.0,1.0,,,,,,,,,magenta,square
0.0,2.0,2.0,0.0,5.0,5.0,577.366905999952,3.0,0.0,part_2,go,400.0,450.0,1.0,,,,,,,,,magenta,square
0.0,8.0,4.0,1.0,6.0,6.0,516.0042560000875,3.0,0.0,part_2,stop,400.0,450.0,3.0,,,,,,,,,blue,circle
0.0,8.0,4.0,1.0,5.0,5.0,360.0590160003776,3.0,0.0,part_2,stop,400.0,400.0,3.0,,,,,,,,,blue,circle
0.0,2.0,2.0,0.0,5.0,5.0,357.3359809997782,3.0,0.0,part_2,go,350.0,400.0,1.0,,,,,,,,,magenta,square
0.0,2.0,2.0,0.0,6.0,6.0,343.7294399991515,3.0,0.0,part_2,go,350.0,400.0,1.0,,,,,,,,,magenta,square
0.0,4.0,4.0,0.0,6.0,6.0,357.9961049999838,3.0,0.0,part_2,go,350.0,400.0,1.0,,,,,,,,,gray,cross
0.0,7.0,3.0,1.0,6.0,6.0,328.1276849993446,3.0,0.0,part_2,go,350.0,400.0,1.0,,,,,,,,,yellow,triangle
0.0,8.0,4.0,1.0,5.0,5.0,380.7714239992492,3.0,0.0,part_2,stop,350.0,400.0,3.0,,,,,,,,,blue,circle
0.0,4.0,4.0,0.0,5.0,5.0,469.3393710003875,3.0,0.0,part_2,go,300.0,400.0,1.0,,,,,,,,,gray,cross
0.0,8.0,4.0,1.0,5.0,5.0,331.6571109990036,3.0,0.0,part_2,go,300.0,400.0,1.0,,,,,,,,,blue,circle
0.0,6.0,2.0,1.0,5.0,5.0,340.9246770006575,3.0,0.0,part_2,stop,300.0,400.0,3.0,,,,,,,,,cyan,diamond
0.0,8.0,4.0,1.0,5.0,5.0,348.2745640012581,4.0,0.0,part_2,stop,250.0,400.0,3.0,,,,,,,,,blue,circle
0.0,2.0,2.0,0.0,5.0,5.0,401.8480899994756,4.0,0.0,part_2,go,200.0,400.0,1.0,,,,,,,,,magenta,square
0.0,4.0,4.0,0.0,5.0,5.0,512.486739000451,4.0,0.0,part_2,go,200.0,400.0,1.0,,,,,,,,,gray,cross
0.0,3.0,3.0,0.0,6.0,6.0,431.1044109999784,4.0,0.0,part_2,go,200.0,400.0,1.0,,,,,,,,,orange,flipped triangle
0.0,8.0,4.0,1.0,5.0,0.0,0.0,4.0,0.0,part_2,stop,200.0,400.0,4.0,,,,,,,,,blue,circle
0.0,7.0,3.0,1.0,6.0,6.0,558.2661349999398,4.0,0.0,part_2,stop,250.0,400.0,3.0,,,,,,,,,yellow,triangle
0.0,1.0,1.0,0.0,6.0,6.0,534.2966899988824,4.0,0.0,part_2,go,250.0,350.0,1.0,,,,,,,,,white,hexagon
0.0,8.0,4.0,1.0,5.0,0.0,0.0,4.0,0.0,part_2,stop,250.0,350.0,4.0,,,,,,,,,blue,circle
0.0,3.0,3.0,0.0,6.0,6.0,736.7600249999668,4.0,0.0,part_2,go,300.0,350.0,1.0,,,,,,,,,orange,flipped triangle
0.0,1.0,1.0,0.0,6.0,6.0,522.2809389997565,4.0,0.0,part_2,go,300.0,350.0,1.0,,,,,,,,,white,hexagon
0.0,3.0,3.0,0.0,6.0,6.0,658.216382998944,4.0,0.0,part_2,go,300.0,350.0,1.0,,,,,,,,,orange,flipped triangle
0.0,2.0,2.0,0.0,6.0,6.0,734.1690819994255,4.0,0.0,part_2,go,300.0,350.0,1.0,,,,,,,,,magenta,square
0.0,8.0,4.0,1.0,6.0,0.0,0.0,4.0,0.0,part_2,stop,300.0,350.0,4.0,,,,,,,,,blue,circle
0.0,2.0,2.0,0.0,5.0,5.0,612.0138210008008,4.0,0.0,part_2,go,300.0,400.0,1.0,,,,,,,,,magenta,square
0.0,5.0,1.0,1.0,6.0,6.0,782.1870730003866,4.0,0.0,part_2,go,300.0,400.0,1.0,,,,,,,,,green,I
0.0,3.0,3.0,0.0,5.0,5.0,509.51509599872224,4.0,0.0,part_2,go,300.0,400.0,1.0,,,,,,,,,orange,flipped triangle
0.0,7.0,3.0,1.0,6.0,0.0,0.0,4.0,0.0,part_2,stop,300.0,400.0,4.0,,,,,,,,,yellow,triangle
0.0,2.0,2.0,0.0,5.0,5.0,558.2127220004622,4.0,0.0,part_2,go,300.0,450.0,1.0,,,,,,,,,magenta,square
0.0,4.0,4.0,0.0,6.0,6.0,630.0838249990193,4.0,0.0,part_2,go,300.0,450.0,1.0,,,,,,,,,gray,cross
0.0,4.0,4.0,0.0,5.0,5.0,567.033908000667,4.0,0.0,part_2,go,300.0,450.0,1.0,,,,,,,,,gray,cross
0.0,7.0,3.0,1.0,5.0,0.0,0.0,4.0,0.0,part_2,stop,300.0,450.0,4.0,,,,,,,,,yellow,triangle
0.0,7.0,3.0,1.0,6.0,0.0,0.0,4.0,0.0,part_2,stop,350.0,450.0,4.0,,,,,,,,,yellow,triangle
0.0,4.0,4.0,0.0,6.0,6.0,636.9094269994093,4.0,0.0,part_2,go,350.0,500.0,1.0,,,,,,,,,gray,cross
0.0,6.0,2.0,1.0,6.0,6.0,548.5474569995858,4.0,0.0,part_2,stop,350.0,500.0,3.0,,,,,,,,,cyan,diamond
0.0,2.0,2.0,0.0,6.0,6.0,554.5178650008893,4.0,0.0,part_2,go,350.0,450.0,1.0,,,,,,,,,magenta,square
0.0,7.0,3.0,1.0,6.0,6.0,1133.5553799999616,4.0,0.0,part_2,go,350.0,450.0,1.0,,,,,,,,,yellow,triangle
0.0,4.0,4.0,0.0,6.0,6.0,452.0325439989392,4.0,0.0,part_2,go,350.0,450.0,1.0,,,,,,,,,gray,cross
0.0,1.0,1.0,0.0,5.0,5.0,474.0381829997204,4.0,0.0,part_2,go,350.0,450.0,1.0,,,,,,,,,white,hexagon
0.0,7.0,3.0,1.0,5.0,5.0,821.380596000381,4.0,0.0,part_2,stop,350.0,450.0,3.0,,,,,,,,,yellow,triangle
0.0,8.0,4.0,1.0,6.0,6.0,700.0838690000819,4.0,0.0,part_2,go,300.0,450.0,1.0,,,,,,,,,blue,circle
0.0,2.0,2.0,0.0,6.0,6.0,410.6191880000551,4.0,0.0,part_2,go,300.0,450.0,1.0,,,,,,,,,magenta,square
0.0,8.0,4.0,1.0,6.0,6.0,565.4115289999027,4.0,0.0,part_2,stop,300.0,450.0,3.0,,,,,,,,,blue,circle
0.0,8.0,4.0,1.0,6.0,6.0,735.49221400026,4.0,0.0,part_2,go,300.0,400.0,1.0,,,,,,,,,blue,circle
0.0,2.0,2.0,0.0,5.0,5.0,501.95238500054984,4.0,0.0,part_2,go,300.0,400.0,1.0,,,,,,,,,magenta,square
0.0,8.0,4.0,1.0,6.0,0.0,0.0,4.0,0.0,part_2,stop,300.0,400.0,4.0,,,,,,,,,blue,circle
0.0,7.0,3.0,1.0,6.0,0.0,0.0,4.0,0.0,part_2,stop,300.0,450.0,4.0,,,,,,,,,yellow,triangle
0.0,3.0,3.0,0.0,6.0,6.0,354.1345869998622,5.0,0.0,part_2,go,300.0,500.0,1.0,,,,,,,,,orange,flipped triangle
0.0,4.0,4.0,0.0,6.0,6.0,380.6167349994211,5.0,0.0,part_2,go,300.0,500.0,1.0,,,,,,,,,gray,cross
0.0,6.0,2.0,1.0,5.0,5.0,341.4921650000906,5.0,0.0,part_2,stop,300.0,500.0,3.0,,,,,,,,,cyan,diamond
0.0,5.0,1.0,1.0,5.0,5.0,488.8572009986092,5.0,0.0,part_2,go,250.0,500.0,1.0,,,,,,,,,green,I
0.0,6.0,2.0,1.0,5.0,5.0,375.8138610010064,5.0,0.0,part_2,stop,250.0,500.0,3.0,,,,,,,,,cyan,diamond
0.0,4.0,4.0,0.0,5.0,5.0,445.8106770016456,5.0,0.0,part_2,go,200.0,500.0,1.0,,,,,,,,,gray,cross
0.0,5.0,1.0,1.0,6.0,6.0,470.1566579988139,5.0,0.0,part_2,stop,200.0,500.0,3.0,,,,,,,,,green,I
0.0,4.0,4.0,0.0,5.0,5.0,376.8153300006815,5.0,0.0,part_2,go,200.0,450.0,1.0,,,,,,,,,gray,cross
0.0,1.0,1.0,0.0,6.0,6.0,438.6531220006873,5.0,0.0,part_2,go,200.0,450.0,1.0,,,,,,,,,white,hexagon
0.0,4.0,4.0,0.0,6.0,6.0,308.0661929998314,5.0,0.0,part_2,go,200.0,450.0,1.0,,,,,,,,,gray,cross
0.0,8.0,4.0,1.0,6.0,6.0,578.5247809999419,5.0,0.0,part_2,stop,200.0,450.0,3.0,,,,,,,,,blue,circle
0.0,6.0,2.0,1.0,5.0,0.0,0.0,5.0,0.0,part_2,stop,200.0,400.0,4.0,,,,,,,,,cyan,diamond
0.0,5.0,1.0,1.0,6.0,6.0,574.2971809995652,5.0,0.0,part_2,stop,250.0,400.0,3.0,,,,,,,,,green,I
0.0,1.0,1.0,0.0,6.0,6.0,624.457715999597,5.0,0.0,part_2,go,250.0,350.0,1.0,,,,,,,,,white,hexagon
0.0,3.0,3.0,0.0,5.0,5.0,774.9286130001565,5.0,0.0,part_2,go,250.0,350.0,1.0,,,,,,,,,orange,flipped triangle
0.0,3.0,3.0,0.0,6.0,6.0,525.3655920005258,5.0,0.0,part_2,go,250.0,350.0,1.0,,,,,,,,,orange,flipped triangle
0.0,5.0,1.0,1.0,5.0,0.0,0.0,5.0,0.0,part_2,stop,250.0,350.0,4.0,,,,,,,,,green,I
0.0,7.0,3.0,1.0,6.0,6.0,800.1313120003033,5.0,0.0,part_2,go,300.0,350.0,1.0,,,,,,,,,yellow,triangle
0.0,4.0,4.0,0.0,5.0,5.0,498.6879320003936,5.0,0.0,part_2,go,300.0,350.0,1.0,,,,,,,,,gray,cross
0.0,5.0,1.0,1.0,6.0,0.0,0.0,5.0,0.0,part_2,stop,300.0,350.0,4.0,,,,,,,,,green,I
0.0,1.0,1.0,0.0,5.0,5.0,547.0042070010095,5.0,0.0,part_2,go,300.0,400.0,1.0,,,,,,,,,white,hexagon
0.0,6.0,2.0,1.0,5.0,5.0,737.8385140000319,5.0,0.0,part_2,go,300.0,400.0,1.0,,,,,,,,,cyan,diamond
0.0,8.0,4.0,1.0,6.0,0.0,0.0,5.0,0.0,part_2,stop,300.0,400.0,4.0,,,,,,,,,blue,circle
0.0,5.0,1.0,1.0,5.0,0.0,0.0,5.0,0.0,part_2,stop,300.0,450.0,4.0,,,,,,,,,green,I
0.0,7.0,3.0,1.0,6.0,6.0,861.6021939997154,5.0,0.0,part_2,go,350.0,450.0,1.0,,,,,,,,,yellow,triangle
0.0,2.0,2.0,0.0,5.0,5.0,529.6920750006393,5.0,0.0,part_2,go,350.0,450.0,1.0,,,,,,,,,magenta,square
0.0,5.0,1.0,1.0,5.0,0.0,0.0,5.0,0.0,part_2,stop,350.0,450.0,4.0,,,,,,,,,green,I
0.0,1.0,1.0,0.0,6.0,6.0,494.0515020007296,5.0,0.0,part_2,go,400.0,450.0,1.0,,,,,,,,,white,hexagon
0.0,3.0,3.0,0.0,6.0,6.0,735.2632910005923,5.0,0.0,part_2,go,400.0,450.0,1.0,,,,,,,,,orange,flipped triangle
0.0,1.0,1.0,0.0,6.0,6.0,469.9616139987483,5.0,0.0,part_2,go,400.0,450.0,1.0,,,,,,,,,white,hexagon
0.0,2.0,2.0,0.0,6.0,6.0,576.8922360002762,5.0,0.0,part_2,go,400.0,450.0,1.0,,,,,,,,,magenta,square
0.0,6.0,2.0,1.0,5.0,5.0,788.5511220010812,5.0,0.0,part_2,go,400.0,450.0,1.0,,,,,,,,,cyan,diamond
0.0,6.0,2.0,1.0,5.0,5.0,381.5219050011365,5.0,0.0,part_2,stop,400.0,450.0,3.0,,,,,,,,,cyan,diamond
0.0,7.0,3.0,1.0,5.0,0.0,0.0,5.0,0.0,part_2,stop,350.0,450.0,4.0,,,,,,,,,yellow,triangle
0.0,3.0,3.0,0.0,5.0,5.0,643.6614340000233,5.0,0.0,part_2,go,400.0,450.0,1.0,,,,,,,,,orange,flipped triangle
0.0,6.0,2.0,1.0,5.0,0.0,0.0,5.0,0.0,part_2,stop,400.0,450.0,4.0,,,,,,,,,cyan,diamond
0.0,2.0,2.0,0.0,5.0,5.0,351.1947639999562,6.0,0.0,part_2,go,450.0,450.0,1.0,,,,,,,,,magenta,square
0.0,4.0,4.0,0.0,5.0,5.0,516.433546999906,6.0,0.0,part_2,go,450.0,450.0,1.0,,,,,,,,,gray,cross
0.0,2.0,2.0,0.0,6.0,6.0,486.3239839996822,6.0,0.0,part_2,go,450.0,450.0,1.0,,,,,,,,,magenta,square
0.0,6.0,2.0,1.0,6.0,6.0,664.9121079990437,6.0,0.0,part_2,go,450.0,450.0,1.0,,,,,,,,,cyan,diamond
0.0,3.0,3.0,0.0,5.0,5.0,547.0585259990912,6.0,0.0,part_2,go,450.0,450.0,1.0,,,,,,,,,orange,flipped triangle
0.0,1.0,1.0,0.0,5.0,5.0,446.238896000068,6.0,0.0,part_2,go,450.0,450.0,1.0,,,,,,,,,white,hexagon
0.0,7.0,3.0,1.0,6.0,0.0,0.0,6.0,0.0,part_2,stop,450.0,450.0,4.0,,,,,,,,,yellow,triangle
0.0,8.0,4.0,1.0,6.0,0.0,0.0,6.0,0.0,part_2,stop,450.0,500.0,4.0,,,,,,,,,blue,circle
0.0,3.0,3.0,0.0,5.0,5.0,618.9419810016261,6.0,0.0,part_2,go,450.0,550.0,1.0,,,,,,,,,orange,flipped triangle
0.0,2.0,2.0,0.0,6.0,6.0,505.58832800015807,6.0,0.0,part_2,go,450.0,550.0,1.0,,,,,,,,,magenta,square
0.0,1.0,1.0,0.0,5.0,5.0,455.2406189995963,6.0,0.0,part_2,go,450.0,550.0,1.0,,,,,,,,,white,hexagon
0.0,6.0,2.0,1.0,5.0,0.0,0.0,6.0,0.0,part_2,stop,450.0,550.0,4.0,,,,,,,,,cyan,diamond
0.0,2.0,2.0,0.0,5.0,5.0,601.9743270007893,6.0,0.0,part_2,go,500.0,550.0,1.0,,,,,,,,,magenta,square
0.0,6.0,2.0,1.0,6.0,6.0,639.1888620000827,6.0,0.0,part_2,stop,500.0,550.0,3.0,,,,,,,,,cyan,diamond
0.0,4.0,4.0,0.0,5.0,5.0,512.9198969989375,6.0,0.0,part_2,go,500.0,500.0,1.0,,,,,,,,,gray,cross
0.0,5.0,1.0,1.0,6.0,6.0,569.7227119999297,6.0,0.0,part_2,stop,500.0,500.0,3.0,,,,,,,,,green,I
0.0,6.0,2.0,1.0,6.0,0.0,0.0,6.0,0.0,part_2,stop,500.0,450.0,4.0,,,,,,,,,cyan,diamond
0.0,3.0,3.0,0.0,5.0,5.0,773.7258719989768,6.0,0.0,part_2,go,500.0,500.0,1.0,,,,,,,,,orange,flipped triangle
0.0,4.0,4.0,0.0,6.0,6.0,504.7110949999478,6.0,0.0,part_2,go,500.0,500.0,1.0,,,,,,,,,gray,cross
0.0,7.0,3.0,1.0,6.0,6.0,741.8404479994933,6.0,0.0,part_2,go,500.0,500.0,1.0,,,,,,,,,yellow,triangle
0.0,4.0,4.0,0.0,6.0,6.0,483.4820720006973,6.0,0.0,part_2,go,500.0,500.0,1.0,,,,,,,,,gray,cross
0.0,6.0,2.0,1.0,5.0,5.0,665.7988729984936,6.0,0.0,part_2,stop,500.0,500.0,3.0,,,,,,,,,cyan,diamond
0.0,7.0,3.0,1.0,6.0,0.0,0.0,6.0,0.0,part_2,stop,450.0,500.0,4.0,,,,,,,,,yellow,triangle
0.0,8.0,4.0,1.0,6.0,0.0,0.0,6.0,0.0,part_2,stop,450.0,550.0,4.0,,,,,,,,,blue,circle
0.0,2.0,2.0,0.0,6.0,6.0,534.9676860005275,6.0,0.0,part_2,go,450.0,600.0,1.0,,,,,,,,,magenta,square
0.0,2.0,2.0,0.0,6.0,6.0,562.0347170006426,6.0,0.0,part_2,go,450.0,600.0,1.0,,,,,,,,,magenta,square
0.0,3.0,3.0,0.0,5.0,5.0,588.2757210001728,6.0,0.0,part_2,go,450.0,600.0,1.0,,,,,,,,,orange,flipped triangle
0.0,4.0,4.0,0.0,6.0,6.0,509.58413500120514,6.0,0.0,part_2,go,450.0,600.0,1.0,,,,,,,,,gray,cross
0.0,5.0,1.0,1.0,6.0,0.0,0.0,6.0,0.0,part_2,stop,450.0,600.0,4.0,,,,,,,,,green,I
0.0,1.0,1.0,0.0,5.0,5.0,509.04578100016806,6.0,0.0,part_2,go,450.0,650.0,1.0,,,,,,,,,white,hexagon
0.0,7.0,3.0,1.0,5.0,0.0,0.0,6.0,0.0,part_2,stop,450.0,650.0,4.0,,,,,,,,,yellow,triangle
0.0,1.0,1.0,0.0,6.0,6.0,531.1221320007462,6.0,0.0,part_2,go,500.0,650.0,1.0,,,,,,,,,white,hexagon
0.0,6.0,2.0,1.0,6.0,0.0,0.0,6.0,0.0,part_2,stop,500.0,650.0,4.0,,,,,,,,,cyan,diamond
0.0,4.0,4.0,0.0,5.0,5.0,508.16733299870975,6.0,0.0,part_2,go,500.0,700.0,1.0,,,,,,,,,gray,cross
0.0,1.0,1.0,0.0,5.0,5.0,441.0783479997917,6.0,0.0,part_2,go,500.0,700.0,1.0,,,,,,,,,white,hexagon
0.0,8.0,4.0,1.0,6.0,6.0,961.6730380002992,6.0,0.0,part_2,go,500.0,700.0,1.0,,,,,,,,,blue,circle
0.0,3.0,3.0,0.0,6.0,6.0,381.55917199947,7.0,0.0,part_2,go,500.0,700.0,1.0,,,,,,,,,orange,flipped triangle
0.0,7.0,3.0,1.0,5.0,0.0,0.0,7.0,0.0,part_2,stop,500.0,700.0,4.0,,,,,,,,,yellow,triangle
0.0,8.0,4.0,1.0,5.0,0.0,0.0,7.0,0.0,part_2,stop,550.0,700.0,4.0,,,,,,,,,blue,circle
0.0,5.0,1.0,1.0,6.0,6.0,919.4019599999592,7.0,0.0,part_2,go,600.0,700.0,1.0,,,,,,,,,green,I
0.0,7.0,3.0,1.0,5.0,0.0,0.0,7.0,0.0,part_2,stop,600.0,700.0,4.0,,,,,,,,,yellow,triangle
0.0,5.0,1.0,1.0,6.0,6.0,829.1045099995245,7.0,0.0,part_2,stop,650.0,700.0,3.0,,,,,,,,,green,I
0.0,2.0,2.0,0.0,5.0,5.0,551.0297479995643,7.0,0.0,part_2,go,650.0,650.0,1.0,,,,,,,,,magenta,square
0.0,2.0,2.0,0.0,6.0,6.0,490.9259829983057,7.0,0.0,part_2,go,650.0,650.0,1.0,,,,,,,,,magenta,square
0.0,3.0,3.0,0.0,5.0,5.0,586.5786600006686,7.0,0.0,part_2,go,650.0,650.0,1.0,,,,,,,,,orange,flipped triangle
0.0,2.0,2.0,0.0,5.0,5.0,762.4391439985629,7.0,0.0,part_2,go,650.0,650.0,1.0,,,,,,,,,magenta,square
0.0,3.0,3.0,0.0,5.0,5.0,639.1371030003938,7.0,0.0,part_2,go,650.0,650.0,1.0,,,,,,,,,orange,flipped triangle
0.0,8.0,4.0,1.0,6.0,0.0,0.0,7.0,0.0,part_2,stop,650.0,650.0,4.0,,,,,,,,,blue,circle
0.0,7.0,3.0,1.0,5.0,0.0,0.0,7.0,0.0,part_2,stop,650.0,700.0,4.0,,,,,,,,,yellow,triangle
0.0,4.0,4.0,0.0,6.0,6.0,596.9887359988206,7.0,0.0,part_2,go,700.0,700.0,1.0,,,,,,,,,gray,cross
0.0,3.0,3.0,0.0,5.0,5.0,590.2622960002191,7.0,0.0,part_2,go,700.0,700.0,1.0,,,,,,,,,orange,flipped triangle
0.0,6.0,2.0,1.0,6.0,6.0,984.4132929993066,7.0,0.0,part_2,go,700.0,700.0,1.0,,,,,,,,,cyan,diamond
0.0,8.0,4.0,1.0,5.0,0.0,0.0,7.0,0.0,part_2,stop,700.0,700.0,4.0,,,,,,,,,blue,circle
0.0,4.0,4.0,0.0,6.0,6.0,530.5982469999435,7.0,0.0,part_2,go,750.0,700.0,1.0,,,,,,,,,gray,cross
0.0,8.0,4.0,1.0,5.0,0.0,0.0,7.0,0.0,part_2,stop,750.0,700.0,4.0,,,,,,,,,blue,circle
0.0,4.0,4.0,0.0,5.0,5.0,765.0033390000317,7.0,0.0,part_2,go,800.0,700.0,1.0,,,,,,,,,gray,cross
0.0,4.0,4.0,0.0,5.0,5.0,425.0148579994857,7.0,0.0,part_2,go,800.0,700.0,1.0,,,,,,,,,gray,cross
0.0,6.0,2.0,1.0,5.0,5.0,636.7639750005765,7.0,0.0,part_2,go,800.0,700.0,1.0,,,,,,,,,cyan,diamond
0.0,4.0,4.0,0.0,6.0,6.0,539.1683189991454,7.0,0.0,part_2,go,800.0,700.0,1.0,,,,,,,,,gray,cross
0.0,2.0,2.0,0.0,6.0,6.0,474.8530340002617,7.0,0.0,part_2,go,800.0,700.0,1.0,,,,,,,,,magenta,square
0.0,5.0,1.0,1.0,6.0,0.0,0.0,7.0,0.0,part_2,stop,800.0,700.0,4.0,,,,,,,,,green,I
0.0,5.0,1.0,1.0,6.0,0.0,0.0,7.0,0.0,part_2,stop,800.0,750.0,4.0,,,,,,,,,green,I
0.0,2.0,2.0,0.0,6.0,6.0,568.4496829999262,7.0,0.0,part_2,go,800.0,800.0,1.0,,,,,,,,,magenta,square
0.0,6.0,2.0,1.0,6.0,6.0,872.1033059991896,7.0,0.0,part_2,stop,800.0,800.0,3.0,,,,,,,,,cyan,diamond
0.0,6.0,2.0,1.0,6.0,0.0,0.0,7.0,0.0,part_2,stop,800.0,750.0,4.0,,,,,,,,,cyan,diamond
0.0,3.0,3.0,0.0,5.0,5.0,939.0311500010284,7.0,0.0,part_2,go,800.0,800.0,1.0,,,,,,,,,orange,flipped triangle
0.0,6.0,2.0,1.0,6.0,0.0,0.0,7.0,0.0,part_2,stop,800.0,800.0,4.0,,,,,,,,,cyan,diamond
0.0,4.0,4.0,0.0,5.0,5.0,526.6401230001065,7.0,0.0,part_2,go,800.0,850.0,1.0,,,,,,,,,gray,cross
0.0,1.0,1.0,0.0,5.0,5.0,441.3914489996386,7.0,0.0,part_2,go,800.0,850.0,1.0,,,,,,,,,white,hexagon
0.0,5.0,1.0,1.0,5.0,0.0,0.0,7.0,0.0,part_2,stop,800.0,850.0,4.0,,,,,,,,,green,I
0.0,7.0,3.0,1.0,5.0,0.0,0.0,7.0,0.0,part_2,stop,850.0,850.0,4.0,,,,,,,,,yellow,triangle
0.0,4.0,4.0,0.0,6.0,6.0,483.6139939998247,7.0,0.0,part_2,go,900.0,850.0,1.0,,,,,,,,,gray,cross
0.0,2.0,2.0,0.0,6.0,6.0,636.4764459995058,8.0,0.0,part_2,go,900.0,850.0,1.0,,,,,,,,,magenta,square
0.0,2.0,2.0,0.0,5.0,5.0,338.9377679995959,8.0,0.0,part_2,go,900.0,850.0,1.0,,,,,,,,,magenta,square
0.0,1.0,1.0,0.0,5.0,5.0,385.4524990001664,8.0,0.0,part_2,go,900.0,850.0,1.0,,,,,,,,,white,hexagon
0.0,6.0,2.0,1.0,5.0,5.0,743.0745279998519,8.0,0.0,part_2,stop,900.0,850.0,3.0,,,,,,,,,cyan,diamond
0.0,2.0,2.0,0.0,6.0,6.0,368.0600469997444,8.0,0.0,part_2,go,850.0,850.0,1.0,,,,,,,,,magenta,square
0.0,2.0,2.0,0.0,5.0,5.0,450.4268760010745,8.0,0.0,part_2,go,850.0,850.0,1.0,,,,,,,,,magenta,square
0.0,5.0,1.0,1.0,6.0,6.0,986.2130110013824,8.0,0.0,part_2,stop,850.0,850.0,3.0,,,,,,,,,green,I
0.0,8.0,4.0,1.0,6.0,0.0,0.0,8.0,0.0,part_2,stop,850.0,800.0,4.0,,,,,,,,,blue,circle
0.0,8.0,4.0,1.0,6.0,0.0,0.0,8.0,0.0,part_2,stop,850.0,850.0,4.0,,,,,,,,,blue,circle
0.0,3.0,3.0,0.0,6.0,6.0,553.5009609993722,8.0,0.0,part_2,go,850.0,900.0,1.0,,,,,,,,,orange,flipped triangle
0.0,1.0,1.0,0.0,5.0,5.0,453.6682399993879,8.0,0.0,part_2,go,850.0,900.0,1.0,,,,,,,,,white,hexagon
0.0,8.0,4.0,1.0,5.0,5.0,1321.5261210007156,8.0,0.0,part_2,go,850.0,900.0,1.0,,,,,,,,,blue,circle
0.0,7.0,3.0,1.0,6.0,6.0,479.8056459985673,8.0,0.0,part_2,stop,850.0,900.0,3.0,,,,,,,,,yellow,triangle
0.0,8.0,4.0,1.0,5.0,5.0,613.5704440002883,8.0,0.0,part_2,stop,850.0,850.0,3.0,,,,,,,,,blue,circle
0.0,3.0,3.0,0.0,6.0,6.0,474.8170620005112,8.0,0.0,part_2,go,800.0,850.0,1.0,,,,,,,,,orange,flipped triangle
0.0,1.0,1.0,0.0,5.0,5.0,391.2615139997797,8.0,0.0,part_2,go,800.0,850.0,1.0,,,,,,,,,white,hexagon
0.0,1.0,1.0,0.0,5.0,5.0,412.5620499999058,8.0,0.0,part_2,go,800.0,850.0,1.0,,,,,,,,,white,hexagon
0.0,5.0,1.0,1.0,6.0,6.0,741.2491909999517,8.0,0.0,part_2,stop,800.0,850.0,3.0,,,,,,,,,green,I
0.0,6.0,2.0,1.0,6.0,6.0,605.9746669998276,8.0,0.0,part_2,stop,800.0,800.0,3.0,,,,,,,,,cyan,diamond
0.0,5.0,1.0,1.0,5.0,5.0,838.9756790002139,8.0,0.0,part_2,stop,800.0,750.0,3.0,,,,,,,,,green,I
0.0,3.0,3.0,0.0,6.0,6.0,638.0868649994227,8.0,0.0,part_2,go,750.0,750.0,1.0,,,,,,,,,orange,flipped triangle
0.0,1.0,1.0,0.0,5.0,5.0,461.0190679995867,8.0,0.0,part_2,go,750.0,750.0,1.0,,,,,,,,,white,hexagon
0.0,3.0,3.0,0.0,6.0,6.0,408.4892340015358,8.0,0.0,part_2,go,750.0,750.0,1.0,,,,,,,,,orange,flipped triangle
0.0,8.0,4.0,1.0,6.0,6.0,402.2192390002601,8.0,0.0,part_2,stop,750.0,750.0,3.0,,,,,,,,,blue,circle
0.0,8.0,4.0,1.0,5.0,5.0,981.7037110005912,8.0,0.0,part_2,stop,750.0,700.0,3.0,,,,,,,,,blue,circle
0.0,4.0,4.0,0.0,5.0,5.0,491.2994090009306,8.0,0.0,part_2,go,700.0,700.0,1.0,,,,,,,,,gray,cross
0.0,1.0,1.0,0.0,5.0,5.0,448.4648139987257,8.0,0.0,part_2,go,700.0,700.0,1.0,,,,,,,,,white,hexagon
0.0,1.0,1.0,0.0,6.0,6.0,465.7443509986478,8.0,0.0,part_2,go,700.0,700.0,1.0,,,,,,,,,white,hexagon
0.0,5.0,1.0,1.0,6.0,6.0,474.8891079998429,8.0,0.0,part_2,stop,700.0,700.0,3.0,,,,,,,,,green,I
0.0,6.0,2.0,1.0,6.0,6.0,945.80573499843,8.0,0.0,part_2,go,700.0,650.0,1.0,,,,,,,,,cyan,diamond
0.0,7.0,3.0,1.0,5.0,5.0,742.8954360002535,8.0,0.0,part_2,stop,700.0,650.0,3.0,,,,,,,,,yellow,triangle
0.0,7.0,3.0,1.0,6.0,6.0,1167.4931350007682,8.0,0.0,part_2,go,650.0,650.0,1.0,,,,,,,,,yellow,triangle
0.0,7.0,3.0,1.0,5.0,5.0,446.8786739998904,8.0,0.0,part_2,stop,650.0,650.0,3.0,,,,,,,,,yellow,triangle
0.0,2.0,2.0,0.0,6.0,6.0,468.0511950009531,8.0,0.0,part_2,go,600.0,650.0,1.0,,,,,,,,,magenta,square
0.0,5.0,1.0,1.0,5.0,5.0,642.3727099991083,8.0,0.0,part_2,stop,600.0,650.0,3.0,,,,,,,,,green,I
0.0,1.0,1.0,0.0,6.0,6.0,442.1878180000931,8.0,0.0,part_2,go,550.0,650.0,1.0,,,,,,,,,white,hexagon
0.0,5.0,1.0,1.0,7.0,1.0,2854.3621370008623,1.0,1.0,part_3,go,0.0,0.0,0.0,156.0,4.0,156.0,195.0,78.0,234.0,39.0,117.0,green,I
0.0,8.0,4.0,1.0,7.0,6.0,2766.285573999994,1.0,1.0,part_3,go,0.0,0.0,0.0,102.0,3.0,170.0,68.0,204.0,136.0,34.0,102.0,blue,circle
0.0,2.0,2.0,0.0,7.0,2.0,1966.5013730009375,1.0,1.0,part_3,go,0.0,0.0,0.0,220.0,5.0,264.0,220.0,132.0,176.0,88.0,44.0,magenta,square
0.0,8.0,4.0,1.0,7.0,5.0,2175.1998140007345,1.0,1.0,part_3,go,0.0,0.0,0.0,196.0,4.0,294.0,98.0,245.0,49.0,196.0,147.0,blue,circle
0.0,7.0,3.0,1.0,7.0,1.0,2362.5638550001895,1.0,1.0,part_3,go,0.0,0.0,0.0,108.0,2.0,108.0,54.0,216.0,270.0,324.0,162.0,yellow,triangle
0.0,8.0,4.0,1.0,7.0,2.0,2511.5159269989817,1.0,1.0,part_3,go,0.0,0.0,0.0,54.0,1.0,108.0,54.0,216.0,270.0,324.0,162.0,blue,circle
0.0,4.0,4.0,0.0,7.0,4.0,2596.2927469990973,1.0,1.0,part_3,go,0.0,0.0,0.0,196.0,4.0,294.0,245.0,147.0,196.0,49.0,98.0,gray,cross
0.0,7.0,3.0,1.0,7.0,5.0,1732.3516050000762,1.0,1.0,part_3,go,0.0,0.0,0.0,68.0,2.0,204.0,34.0,136.0,170.0,68.0,102.0,yellow,triangle
0.0,2.0,2.0,0.0,7.0,2.0,2626.6559360010433,1.0,1.0,part_3,go,0.0,0.0,0.0,136.0,4.0,102.0,136.0,68.0,204.0,170.0,34.0,magenta,square
0.0,5.0,1.0,1.0,7.0,3.0,1428.3625610005402,1.0,1.0,part_3,go,0.0,0.0,0.0,136.0,4.0,204.0,68.0,136.0,34.0,102.0,170.0,green,I
0.0,4.0,4.0,0.0,7.0,1.0,2590.0089789993217,1.0,1.0,part_3,go,0.0,0.0,0.0,136.0,4.0,136.0,170.0,68.0,34.0,102.0,204.0,gray,cross
0.0,4.0,4.0,0.0,7.0,6.0,2785.5094500009727,1.0,1.0,part_3,go,0.0,0.0,0.0,117.0,3.0,78.0,156.0,195.0,234.0,39.0,117.0,gray,cross
0.0,3.0,3.0,0.0,7.0,6.0,2251.850538999861,1.0,1.0,part_3,go,0.0,0.0,0.0,117.0,3.0,156.0,195.0,78.0,39.0,234.0,117.0,orange,flipped triangle
0.0,2.0,2.0,0.0,7.0,2.0,2936.670551000134,1.0,1.0,part_3,go,0.0,0.0,0.0,156.0,4.0,195.0,156.0,117.0,39.0,78.0,234.0,magenta,square
0.0,3.0,3.0,0.0,7.0,2.0,2411.523421000311,1.0,1.0,part_3,go,0.0,0.0,0.0,132.0,3.0,220.0,132.0,88.0,44.0,176.0,264.0,orange,flipped triangle
0.0,5.0,1.0,1.0,7.0,4.0,3369.8119489999954,1.0,1.0,part_3,go,0.0,0.0,0.0,117.0,3.0,195.0,234.0,39.0,117.0,78.0,156.0,green,I
0.0,5.0,1.0,1.0,7.0,5.0,3189.211978999083,1.0,1.0,part_3,go,0.0,0.0,0.0,216.0,4.0,324.0,162.0,54.0,108.0,216.0,270.0,green,I
0.0,2.0,2.0,0.0,7.0,6.0,2593.0155770001875,1.0,1.0,part_3,go,0.0,0.0,0.0,132.0,3.0,220.0,176.0,88.0,44.0,264.0,132.0,magenta,square
0.0,8.0,4.0,1.0,7.0,4.0,1791.3794520009103,1.0,1.0,part_3,go,0.0,0.0,0.0,195.0,5.0,156.0,234.0,78.0,195.0,39.0,117.0,blue,circle
0.0,1.0,1.0,0.0,7.0,6.0,3014.9913300010667,1.0,1.0,part_3,go,0.0,0.0,0.0,204.0,6.0,102.0,136.0,68.0,170.0,34.0,204.0,white,hexagon
0.0,5.0,1.0,1.0,7.0,1.0,2606.710453999767,2.0,1.0,part_3,go,0.0,0.0,0.0,147.0,3.0,147.0,98.0,49.0,196.0,294.0,245.0,green,I
0.0,3.0,3.0,0.0,7.0,5.0,2656.5998470014165,2.0,1.0,part_3,go,0.0,0.0,0.0,216.0,4.0,54.0,270.0,324.0,108.0,216.0,162.0,orange,flipped triangle
0.0,1.0,1.0,0.0,7.0,6.0,2353.1521070017334,2.0,1.0,part_3,go,0.0,0.0,0.0,132.0,3.0,44.0,220.0,264.0,88.0,176.0,132.0,white,hexagon
0.0,7.0,3.0,1.0,7.0,3.0,2953.8119949993416,2.0,1.0,part_3,go,0.0,0.0,0.0,195.0,5.0,78.0,234.0,195.0,117.0,39.0,156.0,yellow,triangle
0.0,2.0,2.0,0.0,7.0,3.0,3445.2550780006277,2.0,1.0,part_3,go,0.0,0.0,0.0,117.0,3.0,78.0,39.0,117.0,156.0,234.0,195.0,magenta,square
0.0,2.0,2.0,0.0,7.0,5.0,2502.1180550011195,2.0,1.0,part_3,go,0.0,0.0,0.0,162.0,3.0,108.0,216.0,324.0,54.0,162.0,270.0,magenta,square
0.0,8.0,4.0,1.0,7.0,2.0,822.6916599996912,2.0,1.0,part_3,go,0.0,0.0,0.0,234.0,6.0,78.0,234.0,117.0,156.0,195.0,39.0,blue,circle
0.0,2.0,2.0,0.0,7.0,4.0,2669.290361998719,2.0,1.0,part_3,go,0.0,0.0,0.0,196.0,4.0,98.0,245.0,49.0,196.0,147.0,294.0,magenta,square
0.0,6.0,2.0,1.0,7.0,2.0,2896.6957070006174,2.0,1.0,part_3,go,0.0,0.0,0.0,68.0,2.0,34.0,68.0,204.0,136.0,102.0,170.0,cyan,diamond
0.0,3.0,3.0,0.0,7.0,5.0,3117.1428429988737,2.0,1.0,part_3,go,0.0,0.0,0.0,170.0,5.0,102.0,204.0,68.0,136.0,170.0,34.0,orange,flipped triangle
0.0,4.0,4.0,0.0,7.0,6.0,3148.760313999446,2.0,1.0,part_3,go,0.0,0.0,0.0,220.0,5.0,132.0,44.0,176.0,264.0,88.0,220.0,gray,cross
0.0,7.0,3.0,1.0,7.0,6.0,2894.732935999855,2.0,1.0,part_3,go,0.0,0.0,0.0,176.0,4.0,264.0,220.0,88.0,44.0,132.0,176.0,yellow,triangle
0.0,4.0,4.0,0.0,7.0,4.0,2294.7492450002756,2.0,1.0,part_3,go,0.0,0.0,0.0,216.0,4.0,108.0,162.0,54.0,216.0,270.0,324.0,gray,cross
0.0,7.0,3.0,1.0,7.0,3.0,2598.7661899998784,2.0,1.0,part_3,go,0.0,0.0,0.0,195.0,5.0,78.0,39.0,195.0,234.0,156.0,117.0,yellow,triangle
0.0,6.0,2.0,1.0,7.0,6.0,3127.4476810012857,2.0,1.0,part_3,go,0.0,0.0,0.0,220.0,5.0,88.0,132.0,264.0,176.0,44.0,220.0,cyan,diamond
0.0,7.0,3.0,1.0,7.0,1.0,2589.158505999876,2.0,1.0,part_3,go,0.0,0.0,0.0,216.0,4.0,216.0,162.0,54.0,324.0,270.0,108.0,yellow,triangle
0.0,6.0,2.0,1.0,7.0,3.0,3685.978548999629,2.0,1.0,part_3,go,0.0,0.0,0.0,245.0,5.0,49.0,294.0,245.0,196.0,147.0,98.0,cyan,diamond
0.0,6.0,2.0,1.0,7.0,3.0,3920.7316229985736,2.0,1.0,part_3,go,0.0,0.0,0.0,170.0,5.0,136.0,68.0,170.0,102.0,204.0,34.0,cyan,diamond
0.0,7.0,3.0,1.0,7.0,6.0,2361.6283159990417,2.0,1.0,part_3,go,0.0,0.0,0.0,196.0,4.0,49.0,294.0,98.0,147.0,245.0,196.0,yellow,triangle
0.0,3.0,3.0,0.0,7.0,1.0,3013.8311279988557,2.0,1.0,part_3,go,0.0,0.0,0.0,117.0,3.0,117.0,234.0,39.0,156.0,195.0,78.0,orange,flipped triangle
0.0,8.0,4.0,1.0,7.0,1.0,2588.3089899998595,3.0,1.0,part_3,go,0.0,0.0,0.0,220.0,5.0,220.0,176.0,44.0,264.0,132.0,88.0,blue,circle
0.0,4.0,4.0,0.0,7.0,3.0,3357.0871409992833,3.0,1.0,part_3,go,0.0,0.0,0.0,156.0,4.0,39.0,117.0,156.0,234.0,78.0,195.0,gray,cross
0.0,6.0,2.0,1.0,7.0,2.0,3224.2004059989995,3.0,1.0,part_3,go,0.0,0.0,0.0,156.0,4.0,39.0,156.0,234.0,78.0,195.0,117.0,cyan,diamond
0.0,5.0,1.0,1.0,7.0,5.0,3122.7820940002857,3.0,1.0,part_3,go,0.0,0.0,0.0,245.0,5.0,98.0,294.0,147.0,49.0,245.0,196.0,green,I
0.0,2.0,2.0,0.0,7.0,2.0,3616.837191000741,3.0,1.0,part_3,go,0.0,0.0,0.0,196.0,4.0,294.0,196.0,245.0,49.0,147.0,98.0,magenta,square
0.0,4.0,4.0,0.0,7.0,6.0,2306.6074149992346,3.0,1.0,part_3,go,0.0,0.0,0.0,216.0,4.0,108.0,162.0,324.0,270.0,54.0,216.0,gray,cross
0.0,1.0,1.0,0.0,7.0,4.0,2721.0288860005676,3.0,1.0,part_3,go,0.0,0.0,0.0,156.0,4.0,39.0,78.0,195.0,156.0,234.0,117.0,white,hexagon
0.0,1.0,1.0,0.0,7.0,1.0,3071.3111859986384,3.0,1.0,part_3,go,0.0,0.0,0.0,170.0,5.0,170.0,102.0,204.0,68.0,34.0,136.0,white,hexagon
0.0,5.0,1.0,1.0,7.0,3.0,4005.3198089990474,3.0,1.0,part_3,go,0.0,0.0,0.0,162.0,3.0,108.0,216.0,162.0,270.0,54.0,324.0,green,I
0.0,3.0,3.0,0.0,7.0,5.0,3150.799761999224,3.0,1.0,part_3,go,0.0,0.0,0.0,270.0,5.0,324.0,162.0,108.0,54.0,270.0,216.0,orange,flipped triangle
0.0,7.0,3.0,1.0,7.0,6.0,2504.3699930010916,3.0,1.0,part_3,go,0.0,0.0,0.0,196.0,4.0,245.0,147.0,294.0,98.0,49.0,196.0,yellow,triangle
0.0,3.0,3.0,0.0,7.0,5.0,3307.5119929999346,3.0,1.0,part_3,go,0.0,0.0,0.0,245.0,5.0,98.0,49.0,147.0,196.0,245.0,294.0,orange,flipped triangle
0.0,3.0,3.0,0.0,7.0,1.0,2987.8542400001606,3.0,1.0,part_3,go,0.0,0.0,0.0,102.0,3.0,102.0,204.0,34.0,136.0,68.0,170.0,orange,flipped triangle
0.0,5.0,1.0,1.0,7.0,3.0,3322.076365000612,3.0,1.0,part_3,go,0.0,0.0,0.0,170.0,5.0,136.0,102.0,170.0,204.0,34.0,68.0,green,I
0.0,1.0,1.0,0.0,7.0,3.0,2797.922252999342,3.0,1.0,part_3,go,0.0,0.0,0.0,245.0,5.0,294.0,98.0,245.0,49.0,196.0,147.0,white,hexagon
0.0,2.0,2.0,0.0,7.0,4.0,3407.6958969999396,3.0,1.0,part_3,go,0.0,0.0,0.0,136.0,4.0,102.0,204.0,68.0,136.0,34.0,170.0,magenta,square
0.0,1.0,1.0,0.0,7.0,3.0,3446.5752950000024,3.0,1.0,part_3,go,0.0,0.0,0.0,216.0,4.0,162.0,108.0,216.0,324.0,270.0,54.0,white,hexagon
0.0,8.0,4.0,1.0,7.0,1.0,2937.719007999476,3.0,1.0,part_3,go,0.0,0.0,0.0,270.0,5.0,270.0,324.0,108.0,216.0,54.0,162.0,blue,circle
0.0,7.0,3.0,1.0,7.0,1.0,3209.1995580012735,3.0,1.0,part_3,go,0.0,0.0,0.0,170.0,5.0,170.0,204.0,136.0,34.0,68.0,102.0,yellow,triangle
0.0,6.0,2.0,1.0,7.0,2.0,2621.840140000131,3.0,1.0,part_3,go,0.0,0.0,0.0,234.0,6.0,39.0,234.0,195.0,117.0,156.0,78.0,cyan,diamond
0.0,6.0,2.0,1.0,7.0,2.0,2581.555152000874,4.0,1.0,part_3,go,0.0,0.0,0.0,245.0,5.0,294.0,245.0,147.0,98.0,196.0,49.0,cyan,diamond
0.0,4.0,4.0,0.0,7.0,2.0,3235.1019929992617,4.0,1.0,part_3,go,0.0,0.0,0.0,102.0,3.0,170.0,102.0,68.0,136.0,34.0,204.0,gray,cross
0.0,3.0,3.0,0.0,7.0,2.0,4091.0398510004597,4.0,1.0,part_3,go,0.0,0.0,0.0,196.0,4.0,98.0,196.0,147.0,245.0,294.0,49.0,orange,flipped triangle
0.0,1.0,1.0,0.0,7.0,2.0,3287.330478999138,4.0,1.0,part_3,go,0.0,0.0,0.0,216.0,4.0,54.0,216.0,162.0,270.0,108.0,324.0,white,hexagon
0.0,1.0,1.0,0.0,7.0,5.0,3672.061614999621,4.0,1.0,part_3,go,0.0,0.0,0.0,245.0,5.0,294.0,98.0,147.0,49.0,245.0,196.0,white,hexagon
0.0,1.0,1.0,0.0,7.0,5.0,2739.270600999589,4.0,1.0,part_3,go,0.0,0.0,0.0,220.0,5.0,176.0,264.0,44.0,132.0,220.0,88.0,white,hexagon
0.0,4.0,4.0,0.0,7.0,6.0,2033.5357659987494,4.0,1.0,part_3,go,0.0,0.0,0.0,196.0,4.0,245.0,98.0,147.0,49.0,294.0,196.0,gray,cross
0.0,5.0,1.0,1.0,7.0,1.0,2065.8709649997036,4.0,1.0,part_3,go,0.0,0.0,0.0,176.0,4.0,176.0,88.0,132.0,44.0,220.0,264.0,green,I
0.0,4.0,4.0,0.0,7.0,5.0,2047.2757080005977,4.0,1.0,part_3,go,0.0,0.0,0.0,220.0,5.0,264.0,88.0,132.0,176.0,220.0,44.0,gray,cross
0.0,6.0,2.0,1.0,7.0,6.0,4093.1112540001777,4.0,1.0,part_3,go,0.0,0.0,0.0,162.0,3.0,54.0,108.0,324.0,216.0,270.0,162.0,cyan,diamond
0.0,8.0,4.0,1.0,7.0,4.0,2735.6740329996683,4.0,1.0,part_3,go,0.0,0.0,0.0,176.0,4.0,264.0,220.0,88.0,176.0,132.0,44.0,blue,circle
0.0,8.0,4.0,1.0,7.0,5.0,3024.847269998645,4.0,1.0,part_3,go,0.0,0.0,0.0,170.0,5.0,204.0,68.0,34.0,136.0,170.0,102.0,blue,circle
0.0,7.0,3.0,1.0,7.0,5.0,2579.80004700039,4.0,1.0,part_3,go,0.0,0.0,0.0,176.0,4.0,264.0,88.0,132.0,44.0,176.0,220.0,yellow,triangle
0.0,1.0,1.0,0.0,7.0,2.0,3559.663542000635,4.0,1.0,part_3,go,0.0,0.0,0.0,156.0,4.0,78.0,156.0,117.0,195.0,39.0,234.0,white,hexagon
0.0,2.0,2.0,0.0,7.0,5.0,2244.592173001365,4.0,1.0,part_3,go,0.0,0.0,0.0,270.0,5.0,54.0,324.0,216.0,108.0,270.0,162.0,magenta,square
0.0,8.0,4.0,1.0,7.0,1.0,1699.6667550010898,4.0,1.0,part_3,go,0.0,0.0,0.0,196.0,4.0,196.0,49.0,147.0,245.0,294.0,98.0,blue,circle
0.0,3.0,3.0,0.0,7.0,1.0,2381.449029999203,4.0,1.0,part_3,go,0.0,0.0,0.0,132.0,3.0,132.0,44.0,220.0,176.0,264.0,88.0,orange,flipped triangle
0.0,6.0,2.0,1.0,7.0,1.0,1571.5494569994917,4.0,1.0,part_3,go,0.0,0.0,0.0,220.0,5.0,220.0,264.0,132.0,176.0,88.0,44.0,cyan,diamond
0.0,5.0,1.0,1.0,7.0,6.0,2821.0826640006417,4.0,1.0,part_3,go,0.0,0.0,0.0,132.0,3.0,88.0,44.0,264.0,176.0,220.0,132.0,green,I
0.0,6.0,2.0,1.0,7.0,3.0,3980.119263000234,4.0,1.0,part_3,go,0.0,0.0,0.0,162.0,3.0,324.0,270.0,162.0,108.0,216.0,54.0,cyan,diamond
