raw_reward_magnitude,stim_reward,stepwise_reward_magnitude,paired_with_stopping,stim_location,response,reaction_time,block,num_trial_presentations,which_phase,stop_signal_trial_type,left_SSD,right_SSD,accuracy,chosen_bidding_amount,chosen_bidding_level,possible_bid_1,possible_bid_2,possible_bid_3,possible_bid_4,possible_bid_5,possible_bid_6,color_text,shape_text
44.0,5.0,1.0,1.0,2.0,2.0,321.1849199999506,1.0,1.0,phase_1,,,,,,,,,,,,,gray,cross
407.0,4.0,4.0,0.0,3.0,3.0,277.5709969998843,1.0,1.0,phase_1,,,,,,,,,,,,,yellow,square
80.0,2.0,2.0,0.0,1.0,1.0,314.2088050001348,1.0,1.0,phase_1,,,,,,,,,,,,,green,circle
121.0,6.0,2.0,1.0,2.0,2.0,347.5221569999576,1.0,1.0,phase_1,,,,,,,,,,,,,blue,I
38.0,5.0,1.0,1.0,2.0,2.0,269.7207300000173,1.0,1.0,phase_1,,,,,,,,,,,,,gray,cross
193.0,3.0,3.0,0.0,3.0,3.0,244.947121999985,1.0,1.0,phase_1,,,,,,,,,,,,,magenta,triangle
0.0,7.0,0.0,1.0,4.0,4.0,257.9418039999837,1.0,1.0,phase_1,,,,,,,,,,,,,white,diamond
401.0,8.0,4.0,1.0,2.0,2.0,269.8314550000305,1.0,1.0,phase_1,,,,,,,,,,,,,cyan,hexagon
185.0,3.0,3.0,0.0,4.0,4.0,266.0210809999626,1.0,1.0,phase_1,,,,,,,,,,,,,magenta,triangle
28.0,5.0,1.0,1.0,1.0,1.0,289.5582459998422,1.0,1.0,phase_1,,,,,,,,,,,,,gray,cross
416.0,4.0,4.0,0.0,2.0,2.0,254.0595549999125,1.0,1.0,phase_1,,,,,,,,,,,,,yellow,square
408.0,8.0,4.0,1.0,1.0,1.0,249.7166870000455,1.0,1.0,phase_1,,,,,,,,,,,,,cyan,hexagon
48.0,1.0,1.0,0.0,2.0,2.0,229.69319499998159,1.0,1.0,phase_1,,,,,,,,,,,,,orange,flipped triangle
379.0,8.0,4.0,1.0,3.0,3.0,255.5602859999908,1.0,1.0,phase_1,,,,,,,,,,,,,cyan,hexagon
0.0,2.0,0.0,0.0,1.0,1.0,248.2503450000877,1.0,1.0,phase_1,,,,,,,,,,,,,green,circle
423.0,4.0,4.0,0.0,1.0,1.0,285.3942490000918,1.0,1.0,phase_1,,,,,,,,,,,,,yellow,square
116.0,2.0,2.0,0.0,2.0,2.0,222.23584399989699,1.0,1.0,phase_1,,,,,,,,,,,,,green,circle
0.0,1.0,0.0,0.0,2.0,2.0,284.1087949998382,1.0,1.0,phase_1,,,,,,,,,,,,,orange,flipped triangle
66.0,5.0,1.0,1.0,4.0,4.0,407.0254340001611,1.0,1.0,phase_1,,,,,,,,,,,,,gray,cross
212.0,7.0,3.0,1.0,3.0,3.0,259.6895649999169,1.0,1.0,phase_1,,,,,,,,,,,,,white,diamond
396.0,8.0,4.0,1.0,3.0,3.0,282.4582999999165,1.0,1.0,phase_1,,,,,,,,,,,,,cyan,hexagon
224.0,7.0,3.0,1.0,3.0,3.0,244.6258779998515,1.0,1.0,phase_1,,,,,,,,,,,,,white,diamond
413.0,8.0,4.0,1.0,1.0,1.0,253.7747899998521,1.0,1.0,phase_1,,,,,,,,,,,,,cyan,hexagon
0.0,6.0,0.0,1.0,3.0,3.0,237.2614639998573,1.0,1.0,phase_1,,,,,,,,,,,,,blue,I
375.0,8.0,4.0,1.0,1.0,1.0,247.6017809999575,1.0,1.0,phase_1,,,,,,,,,,,,,cyan,hexagon
183.0,3.0,3.0,0.0,2.0,2.0,267.5891150001916,1.0,1.0,phase_1,,,,,,,,,,,,,magenta,triangle
0.0,6.0,0.0,1.0,2.0,2.0,233.3044250001421,1.0,1.0,phase_1,,,,,,,,,,,,,blue,I
102.0,2.0,2.0,0.0,1.0,1.0,224.4332810000742,1.0,1.0,phase_1,,,,,,,,,,,,,green,circle
201.0,3.0,3.0,0.0,3.0,3.0,252.4244119999821,1.0,1.0,phase_1,,,,,,,,,,,,,magenta,triangle
221.0,7.0,3.0,1.0,1.0,1.0,256.0423079999054,1.0,1.0,phase_1,,,,,,,,,,,,,white,diamond
218.0,7.0,3.0,1.0,2.0,2.0,232.5869500000408,1.0,1.0,phase_1,,,,,,,,,,,,,white,diamond
177.0,3.0,3.0,0.0,4.0,4.0,273.3934420000423,1.0,1.0,phase_1,,,,,,,,,,,,,magenta,triangle
48.0,5.0,1.0,1.0,3.0,3.0,256.73687099993,1.0,1.0,phase_1,,,,,,,,,,,,,gray,cross
190.0,3.0,3.0,0.0,1.0,1.0,243.2808030000615,1.0,1.0,phase_1,,,,,,,,,,,,,magenta,triangle
184.0,7.0,3.0,1.0,2.0,2.0,239.0765259999625,1.0,1.0,phase_1,,,,,,,,,,,,,white,diamond
189.0,3.0,3.0,0.0,2.0,2.0,272.3105400000349,1.0,1.0,phase_1,,,,,,,,,,,,,magenta,triangle
0.0,5.0,0.0,1.0,1.0,1.0,281.7756859999463,1.0,1.0,phase_1,,,,,,,,,,,,,gray,cross
55.0,5.0,1.0,1.0,2.0,2.0,231.4257929999712,1.0,1.0,phase_1,,,,,,,,,,,,,gray,cross
90.0,2.0,2.0,0.0,1.0,1.0,280.3180089999841,1.0,1.0,phase_1,,,,,,,,,,,,,green,circle
123.0,2.0,2.0,0.0,4.0,4.0,279.2568459999529,1.0,1.0,phase_1,,,,,,,,,,,,,green,circle
84.0,6.0,2.0,1.0,1.0,1.0,268.4932499998922,1.0,1.0,phase_1,,,,,,,,,,,,,blue,I
395.0,4.0,4.0,0.0,4.0,4.0,252.9711189999943,1.0,1.0,phase_1,,,,,,,,,,,,,yellow,square
72.0,5.0,1.0,1.0,4.0,4.0,265.022799999997,1.0,1.0,phase_1,,,,,,,,,,,,,gray,cross
0.0,5.0,0.0,1.0,3.0,3.0,273.73974000011,1.0,1.0,phase_1,,,,,,,,,,,,,gray,cross
409.0,8.0,4.0,1.0,2.0,2.0,240.4289130001871,1.0,1.0,phase_1,,,,,,,,,,,,,cyan,hexagon
107.0,6.0,2.0,1.0,4.0,4.0,267.0587019999857,1.0,1.0,phase_1,,,,,,,,,,,,,blue,I
180.0,3.0,3.0,0.0,4.0,4.0,250.51230499980193,1.0,1.0,phase_1,,,,,,,,,,,,,magenta,triangle
79.0,2.0,2.0,0.0,3.0,3.0,243.7700049999875,1.0,1.0,phase_1,,,,,,,,,,,,,green,circle
184.0,7.0,3.0,1.0,2.0,2.0,266.5715389998695,1.0,1.0,phase_1,,,,,,,,,,,,,white,diamond
183.0,3.0,3.0,0.0,4.0,4.0,212.2183120000045,1.0,1.0,phase_1,,,,,,,,,,,,,magenta,triangle
0.0,1.0,0.0,0.0,1.0,1.0,256.68392700004,1.0,1.0,phase_1,,,,,,,,,,,,,orange,flipped triangle
117.0,6.0,2.0,1.0,3.0,3.0,249.8530160000882,1.0,1.0,phase_1,,,,,,,,,,,,,blue,I
185.0,7.0,3.0,1.0,3.0,3.0,273.2780260000709,1.0,2.0,phase_1,,,,,,,,,,,,,white,diamond
423.0,8.0,4.0,1.0,2.0,2.0,284.4974560000537,1.0,1.0,phase_1,,,,,,,,,,,,,cyan,hexagon
52.0,1.0,1.0,0.0,1.0,1.0,249.9046670000098,1.0,1.0,phase_1,,,,,,,,,,,,,orange,flipped triangle
114.0,6.0,2.0,1.0,2.0,2.0,241.0721319999993,1.0,1.0,phase_1,,,,,,,,,,,,,blue,I
379.0,8.0,4.0,1.0,4.0,4.0,251.5636219998214,1.0,1.0,phase_1,,,,,,,,,,,,,cyan,hexagon
0.0,6.0,0.0,1.0,1.0,1.0,257.9672479998862,1.0,1.0,phase_1,,,,,,,,,,,,,blue,I
0.0,4.0,0.0,0.0,4.0,4.0,281.3444949999848,1.0,1.0,phase_1,,,,,,,,,,,,,yellow,square
401.0,4.0,4.0,0.0,1.0,1.0,267.8147760000229,1.0,1.0,phase_1,,,,,,,,,,,,,yellow,square
52.0,5.0,1.0,1.0,4.0,4.0,280.8833210001467,1.0,1.0,phase_1,,,,,,,,,,,,,gray,cross
25.0,5.0,1.0,1.0,4.0,4.0,302.8760299998794,1.0,1.0,phase_1,,,,,,,,,,,,,gray,cross
31.0,1.0,1.0,0.0,3.0,3.0,271.1169679998875,1.0,1.0,phase_1,,,,,,,,,,,,,orange,flipped triangle
415.0,8.0,4.0,1.0,2.0,2.0,257.8451409999616,1.0,1.0,phase_1,,,,,,,,,,,,,cyan,hexagon
0.0,8.0,0.0,1.0,1.0,1.0,238.7844780000705,1.0,1.0,phase_1,,,,,,,,,,,,,cyan,hexagon
185.0,3.0,3.0,0.0,3.0,3.0,261.8817450002098,1.0,1.0,phase_1,,,,,,,,,,,,,magenta,triangle
0.0,8.0,0.0,1.0,3.0,3.0,256.7043589999684,1.0,1.0,phase_1,,,,,,,,,,,,,cyan,hexagon
0.0,5.0,0.0,1.0,2.0,2.0,270.8395360000395,1.0,1.0,phase_1,,,,,,,,,,,,,gray,cross
207.0,7.0,3.0,1.0,2.0,2.0,265.3456120001465,1.0,1.0,phase_1,,,,,,,,,,,,,white,diamond
402.0,8.0,4.0,1.0,1.0,1.0,239.427581999962,1.0,1.0,phase_1,,,,,,,,,,,,,cyan,hexagon
388.0,8.0,4.0,1.0,1.0,1.0,311.5719160000481,1.0,1.0,phase_1,,,,,,,,,,,,,cyan,hexagon
71.0,5.0,1.0,1.0,2.0,2.0,246.0647750001499,1.0,1.0,phase_1,,,,,,,,,,,,,gray,cross
187.0,3.0,3.0,0.0,2.0,2.0,294.3025839999791,1.0,1.0,phase_1,,,,,,,,,,,,,magenta,triangle
0.0,1.0,0.0,0.0,2.0,2.0,276.9697449998602,1.0,1.0,phase_1,,,,,,,,,,,,,orange,flipped triangle
0.0,3.0,0.0,0.0,2.0,2.0,263.5782249999465,1.0,1.0,phase_1,,,,,,,,,,,,,magenta,triangle
421.0,8.0,4.0,1.0,3.0,3.0,293.3265330000267,1.0,1.0,phase_1,,,,,,,,,,,,,cyan,hexagon
67.0,1.0,1.0,0.0,1.0,1.0,242.6473440000336,1.0,1.0,phase_1,,,,,,,,,,,,,orange,flipped triangle
34.0,5.0,1.0,1.0,3.0,3.0,278.9331209999091,1.0,1.0,phase_1,,,,,,,,,,,,,gray,cross
45.0,5.0,1.0,1.0,3.0,3.0,300.3066079998007,1.0,1.0,phase_1,,,,,,,,,,,,,gray,cross
385.0,8.0,4.0,1.0,2.0,2.0,249.8009869998441,1.0,1.0,phase_1,,,,,,,,,,,,,cyan,hexagon
225.0,3.0,3.0,0.0,1.0,1.0,261.4221590001762,1.0,1.0,phase_1,,,,,,,,,,,,,magenta,triangle
224.0,3.0,3.0,0.0,4.0,4.0,430.8154049999757,1.0,1.0,phase_1,,,,,,,,,,,,,magenta,triangle
0.0,2.0,0.0,0.0,2.0,2.0,243.2318820001455,1.0,1.0,phase_1,,,,,,,,,,,,,green,circle
393.0,4.0,4.0,0.0,4.0,4.0,243.6081829998784,1.0,1.0,phase_1,,,,,,,,,,,,,yellow,square
177.0,7.0,3.0,1.0,3.0,3.0,249.6833150000839,1.0,1.0,phase_1,,,,,,,,,,,,,white,diamond
178.0,7.0,3.0,1.0,1.0,1.0,207.5099420001152,1.0,1.0,phase_1,,,,,,,,,,,,,white,diamond
399.0,4.0,4.0,0.0,3.0,3.0,238.325591000148,1.0,1.0,phase_1,,,,,,,,,,,,,yellow,square
0.0,1.0,0.0,0.0,2.0,2.0,225.5067940000117,1.0,1.0,phase_1,,,,,,,,,,,,,orange,flipped triangle
85.0,6.0,2.0,1.0,4.0,4.0,278.8429380000252,1.0,1.0,phase_1,,,,,,,,,,,,,blue,I
0.0,2.0,0.0,0.0,3.0,3.0,218.5626760001469,1.0,1.0,phase_1,,,,,,,,,,,,,green,circle
190.0,3.0,3.0,0.0,2.0,2.0,229.9374849999367,1.0,1.0,phase_1,,,,,,,,,,,,,magenta,triangle
117.0,2.0,2.0,0.0,4.0,4.0,247.3839310000585,1.0,1.0,phase_1,,,,,,,,,,,,,green,circle
64.0,5.0,1.0,1.0,1.0,1.0,275.4088850001608,1.0,1.0,phase_1,,,,,,,,,,,,,gray,cross
399.0,8.0,4.0,1.0,2.0,2.0,233.9311949999682,1.0,1.0,phase_1,,,,,,,,,,,,,cyan,hexagon
79.0,6.0,2.0,1.0,4.0,4.0,253.51843599992208,1.0,1.0,phase_1,,,,,,,,,,,,,blue,I
54.0,1.0,1.0,0.0,1.0,1.0,214.7617310001806,1.0,1.0,phase_1,,,,,,,,,,,,,orange,flipped triangle
41.0,5.0,1.0,1.0,4.0,4.0,259.0726270000232,1.0,1.0,phase_1,,,,,,,,,,,,,gray,cross
423.0,8.0,4.0,1.0,4.0,4.0,267.9281980001633,1.0,1.0,phase_1,,,,,,,,,,,,,cyan,hexagon
85.0,2.0,2.0,0.0,2.0,2.0,188.5686840000744,1.0,1.0,phase_1,,,,,,,,,,,,,green,circle
0.0,8.0,0.0,1.0,4.0,4.0,256.7513409999264,1.0,1.0,phase_1,,,,,,,,,,,,,cyan,hexagon
396.0,4.0,4.0,0.0,2.0,2.0,301.2614379999832,2.0,1.0,phase_1,,,,,,,,,,,,,yellow,square
388.0,4.0,4.0,0.0,4.0,4.0,232.898822000152,2.0,1.0,phase_1,,,,,,,,,,,,,yellow,square
187.0,7.0,3.0,1.0,3.0,3.0,258.6037959999885,2.0,1.0,phase_1,,,,,,,,,,,,,white,diamond
401.0,8.0,4.0,1.0,4.0,4.0,228.7890809998316,2.0,1.0,phase_1,,,,,,,,,,,,,cyan,hexagon
114.0,6.0,2.0,1.0,4.0,4.0,261.528343000009,2.0,1.0,phase_1,,,,,,,,,,,,,blue,I
390.0,4.0,4.0,0.0,1.0,1.0,273.5350439998001,2.0,1.0,phase_1,,,,,,,,,,,,,yellow,square
66.0,1.0,1.0,0.0,3.0,3.0,231.954601000325,2.0,1.0,phase_1,,,,,,,,,,,,,orange,flipped triangle
180.0,7.0,3.0,1.0,1.0,1.0,380.2911170000698,2.0,2.0,phase_1,,,,,,,,,,,,,white,diamond
196.0,3.0,3.0,0.0,4.0,4.0,314.3170359999203,2.0,1.0,phase_1,,,,,,,,,,,,,magenta,triangle
54.0,5.0,1.0,1.0,1.0,1.0,255.8178029998998,2.0,1.0,phase_1,,,,,,,,,,,,,gray,cross
60.0,1.0,1.0,0.0,1.0,1.0,300.9076100001948,2.0,1.0,phase_1,,,,,,,,,,,,,orange,flipped triangle
102.0,6.0,2.0,1.0,2.0,2.0,257.4182380003549,2.0,1.0,phase_1,,,,,,,,,,,,,blue,I
29.0,1.0,1.0,0.0,4.0,4.0,250.72928600002342,2.0,1.0,phase_1,,,,,,,,,,,,,orange,flipped triangle
180.0,3.0,3.0,0.0,1.0,1.0,286.8216460001349,2.0,1.0,phase_1,,,,,,,,,,,,,magenta,triangle
390.0,8.0,4.0,1.0,3.0,3.0,271.1818769998899,2.0,1.0,phase_1,,,,,,,,,,,,,cyan,hexagon
38.0,1.0,1.0,0.0,3.0,3.0,275.0856460002069,2.0,1.0,phase_1,,,,,,,,,,,,,orange,flipped triangle
190.0,7.0,3.0,1.0,3.0,3.0,245.7785299998249,2.0,1.0,phase_1,,,,,,,,,,,,,white,diamond
223.0,7.0,3.0,1.0,4.0,4.0,365.4365009997491,2.0,1.0,phase_1,,,,,,,,,,,,,white,diamond
387.0,8.0,4.0,1.0,4.0,4.0,275.9525520000352,2.0,1.0,phase_1,,,,,,,,,,,,,cyan,hexagon
68.0,1.0,1.0,0.0,3.0,3.0,264.9396889996751,2.0,1.0,phase_1,,,,,,,,,,,,,orange,flipped triangle
0.0,2.0,0.0,0.0,2.0,2.0,286.9509730003301,2.0,1.0,phase_1,,,,,,,,,,,,,green,circle
193.0,7.0,3.0,1.0,1.0,1.0,293.3155269997769,2.0,1.0,phase_1,,,,,,,,,,,,,white,diamond
123.0,2.0,2.0,0.0,1.0,1.0,252.2032639999452,2.0,1.0,phase_1,,,,,,,,,,,,,green,circle
76.0,2.0,2.0,0.0,3.0,3.0,235.8812329998727,2.0,1.0,phase_1,,,,,,,,,,,,,green,circle
43.0,1.0,1.0,0.0,2.0,2.0,267.8069529997628,2.0,1.0,phase_1,,,,,,,,,,,,,orange,flipped triangle
0.0,7.0,0.0,1.0,4.0,4.0,228.0911429998013,2.0,1.0,phase_1,,,,,,,,,,,,,white,diamond
201.0,7.0,3.0,1.0,1.0,1.0,230.14893099980318,2.0,1.0,phase_1,,,,,,,,,,,,,white,diamond
28.0,1.0,1.0,0.0,4.0,4.0,234.490414999982,2.0,1.0,phase_1,,,,,,,,,,,,,orange,flipped triangle
108.0,2.0,2.0,0.0,3.0,3.0,244.9671889999081,2.0,1.0,phase_1,,,,,,,,,,,,,green,circle
0.0,2.0,0.0,0.0,4.0,4.0,263.8806269997076,2.0,1.0,phase_1,,,,,,,,,,,,,green,circle
123.0,6.0,2.0,1.0,3.0,3.0,249.4471390000399,2.0,1.0,phase_1,,,,,,,,,,,,,blue,I
93.0,6.0,2.0,1.0,4.0,4.0,218.5955619997912,2.0,1.0,phase_1,,,,,,,,,,,,,blue,I
0.0,1.0,0.0,0.0,4.0,4.0,220.166595000137,2.0,1.0,phase_1,,,,,,,,,,,,,orange,flipped triangle
219.0,7.0,3.0,1.0,2.0,2.0,249.9374050003098,2.0,1.0,phase_1,,,,,,,,,,,,,white,diamond
218.0,3.0,3.0,0.0,1.0,1.0,228.9544819996081,2.0,1.0,phase_1,,,,,,,,,,,,,magenta,triangle
393.0,8.0,4.0,1.0,2.0,2.0,332.9295939997791,2.0,1.0,phase_1,,,,,,,,,,,,,cyan,hexagon
121.0,6.0,2.0,1.0,1.0,1.0,241.7096030003449,2.0,1.0,phase_1,,,,,,,,,,,,,blue,I
95.0,2.0,2.0,0.0,4.0,4.0,243.4338500002013,2.0,1.0,phase_1,,,,,,,,,,,,,green,circle
211.0,7.0,3.0,1.0,4.0,4.0,238.9937130001271,2.0,1.0,phase_1,,,,,,,,,,,,,white,diamond
375.0,4.0,4.0,0.0,1.0,1.0,249.6604339999066,2.0,1.0,phase_1,,,,,,,,,,,,,yellow,square
114.0,2.0,2.0,0.0,4.0,4.0,226.8470469998647,2.0,1.0,phase_1,,,,,,,,,,,,,green,circle
52.0,1.0,1.0,0.0,2.0,2.0,268.3262139998987,2.0,1.0,phase_1,,,,,,,,,,,,,orange,flipped triangle
0.0,5.0,0.0,1.0,4.0,4.0,266.9789139999921,2.0,1.0,phase_1,,,,,,,,,,,,,gray,cross
224.0,3.0,3.0,0.0,3.0,3.0,264.7178310003255,2.0,1.0,phase_1,,,,,,,,,,,,,magenta,triangle
0.0,3.0,0.0,0.0,4.0,4.0,277.4236820000624,2.0,1.0,phase_1,,,,,,,,,,,,,magenta,triangle
209.0,7.0,3.0,1.0,4.0,4.0,293.2950809999965,2.0,1.0,phase_1,,,,,,,,,,,,,white,diamond
117.0,2.0,2.0,0.0,1.0,1.0,286.9349869997677,2.0,1.0,phase_1,,,,,,,,,,,,,green,circle
83.0,2.0,2.0,0.0,1.0,1.0,235.6633529998362,2.0,1.0,phase_1,,,,,,,,,,,,,green,circle
422.0,4.0,4.0,0.0,3.0,3.0,234.6946200000275,2.0,1.0,phase_1,,,,,,,,,,,,,yellow,square
421.0,4.0,4.0,0.0,4.0,4.0,278.80596399973,2.0,1.0,phase_1,,,,,,,,,,,,,yellow,square
85.0,6.0,2.0,1.0,1.0,1.0,204.4351200001983,2.0,1.0,phase_1,,,,,,,,,,,,,blue,I
120.0,2.0,2.0,0.0,4.0,4.0,262.5520080000569,2.0,1.0,phase_1,,,,,,,,,,,,,green,circle
33.0,5.0,1.0,1.0,1.0,1.0,282.7494590001151,2.0,1.0,phase_1,,,,,,,,,,,,,gray,cross
37.0,1.0,1.0,0.0,4.0,4.0,237.3752449998392,2.0,1.0,phase_1,,,,,,,,,,,,,orange,flipped triangle
48.0,1.0,1.0,0.0,2.0,2.0,255.1592580002761,2.0,1.0,phase_1,,,,,,,,,,,,,orange,flipped triangle
0.0,3.0,0.0,0.0,4.0,4.0,214.5010140002341,2.0,1.0,phase_1,,,,,,,,,,,,,magenta,triangle
80.0,6.0,2.0,1.0,1.0,1.0,250.7234449999487,2.0,1.0,phase_1,,,,,,,,,,,,,blue,I
116.0,6.0,2.0,1.0,1.0,1.0,234.4559920002211,2.0,1.0,phase_1,,,,,,,,,,,,,blue,I
41.0,1.0,1.0,0.0,2.0,2.0,268.7179889999243,2.0,1.0,phase_1,,,,,,,,,,,,,orange,flipped triangle
0.0,6.0,0.0,1.0,1.0,1.0,241.9052549998923,2.0,1.0,phase_1,,,,,,,,,,,,,blue,I
413.0,4.0,4.0,0.0,4.0,4.0,232.4258630001168,2.0,1.0,phase_1,,,,,,,,,,,,,yellow,square
93.0,2.0,2.0,0.0,3.0,3.0,246.0295629998654,2.0,1.0,phase_1,,,,,,,,,,,,,green,circle
72.0,5.0,1.0,1.0,3.0,3.0,362.458788999902,2.0,2.0,phase_1,,,,,,,,,,,,,gray,cross
0.0,5.0,0.0,1.0,4.0,4.0,313.7467239998841,2.0,1.0,phase_1,,,,,,,,,,,,,gray,cross
50.0,1.0,1.0,0.0,4.0,4.0,288.1349720000798,2.0,1.0,phase_1,,,,,,,,,,,,,orange,flipped triangle
36.0,1.0,1.0,0.0,4.0,4.0,284.3980190000366,2.0,1.0,phase_1,,,,,,,,,,,,,orange,flipped triangle
0.0,4.0,0.0,0.0,4.0,4.0,340.4740269998001,2.0,1.0,phase_1,,,,,,,,,,,,,yellow,square
94.0,2.0,2.0,0.0,2.0,2.0,304.9413009998716,2.0,1.0,phase_1,,,,,,,,,,,,,green,circle
390.0,8.0,4.0,1.0,3.0,3.0,284.5119590001559,2.0,1.0,phase_1,,,,,,,,,,,,,cyan,hexagon
44.0,1.0,1.0,0.0,4.0,4.0,277.0772199996827,2.0,1.0,phase_1,,,,,,,,,,,,,orange,flipped triangle
81.0,2.0,2.0,0.0,4.0,4.0,284.8319210002046,2.0,1.0,phase_1,,,,,,,,,,,,,green,circle
0.0,6.0,0.0,1.0,2.0,2.0,258.1486280000717,2.0,1.0,phase_1,,,,,,,,,,,,,blue,I
395.0,8.0,4.0,1.0,1.0,1.0,300.5962699999145,2.0,1.0,phase_1,,,,,,,,,,,,,cyan,hexagon
380.0,4.0,4.0,0.0,3.0,3.0,275.5988070002786,2.0,1.0,phase_1,,,,,,,,,,,,,yellow,square
0.0,7.0,0.0,1.0,3.0,3.0,313.3850109998093,2.0,1.0,phase_1,,,,,,,,,,,,,white,diamond
388.0,4.0,4.0,0.0,2.0,2.0,313.6183440001332,2.0,1.0,phase_1,,,,,,,,,,,,,yellow,square
102.0,2.0,2.0,0.0,2.0,2.0,247.6660309998806,2.0,1.0,phase_1,,,,,,,,,,,,,green,circle
385.0,4.0,4.0,0.0,1.0,1.0,295.391371000278,2.0,1.0,phase_1,,,,,,,,,,,,,yellow,square
36.0,5.0,1.0,1.0,1.0,1.0,310.4048589998456,2.0,1.0,phase_1,,,,,,,,,,,,,gray,cross
387.0,8.0,4.0,1.0,4.0,4.0,291.2742879998404,2.0,1.0,phase_1,,,,,,,,,,,,,cyan,hexagon
0.0,1.0,0.0,0.0,2.0,2.0,266.5640200002599,2.0,1.0,phase_1,,,,,,,,,,,,,orange,flipped triangle
62.0,1.0,1.0,0.0,4.0,4.0,256.1230850001266,2.0,1.0,phase_1,,,,,,,,,,,,,orange,flipped triangle
0.0,8.0,0.0,1.0,1.0,1.0,207.3598350002612,2.0,1.0,phase_1,,,,,,,,,,,,,cyan,hexagon
0.0,6.0,0.0,1.0,4.0,4.0,260.8511250000447,2.0,1.0,phase_1,,,,,,,,,,,,,blue,I
0.0,7.0,0.0,1.0,1.0,1.0,319.390810999721,2.0,1.0,phase_1,,,,,,,,,,,,,white,diamond
198.0,7.0,3.0,1.0,2.0,2.0,323.9662209998641,2.0,1.0,phase_1,,,,,,,,,,,,,white,diamond
406.0,4.0,4.0,0.0,2.0,2.0,264.2288679999183,2.0,1.0,phase_1,,,,,,,,,,,,,yellow,square
406.0,8.0,4.0,1.0,4.0,4.0,361.2508439996418,2.0,2.0,phase_1,,,,,,,,,,,,,cyan,hexagon
210.0,7.0,3.0,1.0,2.0,2.0,272.8821790001348,2.0,1.0,phase_1,,,,,,,,,,,,,white,diamond
386.0,8.0,4.0,1.0,1.0,1.0,270.8709610001278,2.0,1.0,phase_1,,,,,,,,,,,,,cyan,hexagon
0.0,8.0,0.0,1.0,3.0,3.0,305.1790350000374,2.0,1.0,phase_1,,,,,,,,,,,,,cyan,hexagon
407.0,8.0,4.0,1.0,3.0,3.0,279.9074589997872,2.0,1.0,phase_1,,,,,,,,,,,,,cyan,hexagon
55.0,1.0,1.0,0.0,4.0,4.0,299.6929889995954,2.0,1.0,phase_1,,,,,,,,,,,,,orange,flipped triangle
0.0,5.0,0.0,1.0,1.0,1.0,282.5691620000725,2.0,1.0,phase_1,,,,,,,,,,,,,gray,cross
54.0,1.0,1.0,0.0,1.0,1.0,278.9592260000972,2.0,1.0,phase_1,,,,,,,,,,,,,orange,flipped triangle
198.0,3.0,3.0,0.0,1.0,1.0,299.7060200000305,2.0,2.0,phase_1,,,,,,,,,,,,,magenta,triangle
73.0,5.0,1.0,1.0,2.0,2.0,327.7719660000002,2.0,1.0,phase_1,,,,,,,,,,,,,gray,cross
0.0,5.0,0.0,1.0,2.0,2.0,303.6563389996445,2.0,1.0,phase_1,,,,,,,,,,,,,gray,cross
0.0,4.0,0.0,0.0,4.0,4.0,352.1024209999268,2.0,1.0,phase_1,,,,,,,,,,,,,yellow,square
86.0,6.0,2.0,1.0,2.0,2.0,294.0327309997883,2.0,1.0,phase_1,,,,,,,,,,,,,blue,I
203.0,3.0,3.0,0.0,3.0,3.0,390.2699820000634,3.0,1.0,phase_1,,,,,,,,,,,,,magenta,triangle
111.0,6.0,2.0,1.0,2.0,2.0,243.1650949997674,3.0,1.0,phase_1,,,,,,,,,,,,,blue,I
75.0,6.0,2.0,1.0,2.0,2.0,291.1724389996379,3.0,1.0,phase_1,,,,,,,,,,,,,blue,I
119.0,6.0,2.0,1.0,2.0,2.0,267.558456000188,3.0,1.0,phase_1,,,,,,,,,,,,,blue,I
414.0,8.0,4.0,1.0,1.0,1.0,282.9703379998136,3.0,1.0,phase_1,,,,,,,,,,,,,cyan,hexagon
189.0,7.0,3.0,1.0,3.0,3.0,271.5213500000573,3.0,1.0,phase_1,,,,,,,,,,,,,white,diamond
44.0,5.0,1.0,1.0,4.0,4.0,302.5273020002714,3.0,1.0,phase_1,,,,,,,,,,,,,gray,cross
421.0,4.0,4.0,0.0,2.0,2.0,262.5078709997979,3.0,1.0,phase_1,,,,,,,,,,,,,yellow,square
74.0,1.0,1.0,0.0,1.0,1.0,294.2367989999184,3.0,1.0,phase_1,,,,,,,,,,,,,orange,flipped triangle
388.0,8.0,4.0,1.0,3.0,3.0,282.9731199999514,3.0,1.0,phase_1,,,,,,,,,,,,,cyan,hexagon
72.0,1.0,1.0,0.0,3.0,3.0,304.9631999997473,3.0,1.0,phase_1,,,,,,,,,,,,,orange,flipped triangle
51.0,1.0,1.0,0.0,2.0,2.0,263.1201300000612,3.0,1.0,phase_1,,,,,,,,,,,,,orange,flipped triangle
196.0,7.0,3.0,1.0,4.0,4.0,271.7489550000209,3.0,1.0,phase_1,,,,,,,,,,,,,white,diamond
387.0,4.0,4.0,0.0,4.0,4.0,284.3697459998111,3.0,1.0,phase_1,,,,,,,,,,,,,yellow,square
184.0,3.0,3.0,0.0,3.0,3.0,255.24115700000038,3.0,1.0,phase_1,,,,,,,,,,,,,magenta,triangle
118.0,2.0,2.0,0.0,3.0,3.0,271.6492859999562,3.0,1.0,phase_1,,,,,,,,,,,,,green,circle
185.0,3.0,3.0,0.0,3.0,3.0,255.61969000000317,3.0,1.0,phase_1,,,,,,,,,,,,,magenta,triangle
200.0,7.0,3.0,1.0,1.0,1.0,272.0291209998322,3.0,1.0,phase_1,,,,,,,,,,,,,white,diamond
387.0,4.0,4.0,0.0,3.0,3.0,258.2646589999058,3.0,1.0,phase_1,,,,,,,,,,,,,yellow,square
402.0,4.0,4.0,0.0,4.0,4.0,303.155028999754,3.0,1.0,phase_1,,,,,,,,,,,,,yellow,square
118.0,6.0,2.0,1.0,3.0,3.0,229.6296960003019,3.0,1.0,phase_1,,,,,,,,,,,,,blue,I
416.0,8.0,4.0,1.0,3.0,3.0,289.1384179997658,3.0,1.0,phase_1,,,,,,,,,,,,,cyan,hexagon
43.0,5.0,1.0,1.0,2.0,2.0,288.545571999748,3.0,1.0,phase_1,,,,,,,,,,,,,gray,cross
0.0,2.0,0.0,0.0,1.0,1.0,312.9208679997646,3.0,1.0,phase_1,,,,,,,,,,,,,green,circle
211.0,3.0,3.0,0.0,1.0,1.0,284.1716409998298,3.0,1.0,phase_1,,,,,,,,,,,,,magenta,triangle
0.0,5.0,0.0,1.0,2.0,2.0,269.4351949999145,3.0,1.0,phase_1,,,,,,,,,,,,,gray,cross
0.0,7.0,0.0,1.0,1.0,1.0,266.8536010000935,3.0,1.0,phase_1,,,,,,,,,,,,,white,diamond
0.0,5.0,0.0,1.0,4.0,4.0,285.4422190002879,3.0,1.0,phase_1,,,,,,,,,,,,,gray,cross
62.0,5.0,1.0,1.0,2.0,2.0,236.282790000132,3.0,1.0,phase_1,,,,,,,,,,,,,gray,cross
60.0,1.0,1.0,0.0,1.0,1.0,232.8488530001777,3.0,1.0,phase_1,,,,,,,,,,,,,orange,flipped triangle
60.0,5.0,1.0,1.0,2.0,2.0,246.21096600003509,3.0,1.0,phase_1,,,,,,,,,,,,,gray,cross
0.0,4.0,0.0,0.0,1.0,1.0,208.6427290000756,3.0,1.0,phase_1,,,,,,,,,,,,,yellow,square
52.0,5.0,1.0,1.0,2.0,2.0,269.1004670000438,3.0,1.0,phase_1,,,,,,,,,,,,,gray,cross
98.0,2.0,2.0,0.0,4.0,4.0,362.9611850001311,3.0,1.0,phase_1,,,,,,,,,,,,,green,circle
409.0,4.0,4.0,0.0,4.0,4.0,272.0244910001383,3.0,1.0,phase_1,,,,,,,,,,,,,yellow,square
55.0,5.0,1.0,1.0,3.0,3.0,266.8832250001287,3.0,1.0,phase_1,,,,,,,,,,,,,gray,cross
0.0,8.0,0.0,1.0,2.0,2.0,260.1223629999367,3.0,1.0,phase_1,,,,,,,,,,,,,cyan,hexagon
58.0,1.0,1.0,0.0,2.0,2.0,262.9649139998946,3.0,1.0,phase_1,,,,,,,,,,,,,orange,flipped triangle
0.0,4.0,0.0,0.0,4.0,4.0,292.5532700000985,3.0,1.0,phase_1,,,,,,,,,,,,,yellow,square
191.0,3.0,3.0,0.0,3.0,3.0,266.2571989999378,3.0,1.0,phase_1,,,,,,,,,,,,,magenta,triangle
220.0,3.0,3.0,0.0,2.0,2.0,190.8533390001139,3.0,1.0,phase_1,,,,,,,,,,,,,magenta,triangle
76.0,6.0,2.0,1.0,1.0,1.0,336.3423800001328,3.0,1.0,phase_1,,,,,,,,,,,,,blue,I
203.0,7.0,3.0,1.0,1.0,1.0,322.5462800000969,3.0,1.0,phase_1,,,,,,,,,,,,,white,diamond
219.0,3.0,3.0,0.0,2.0,2.0,222.0208829999137,3.0,1.0,phase_1,,,,,,,,,,,,,magenta,triangle
102.0,2.0,2.0,0.0,3.0,3.0,247.6110709999375,3.0,1.0,phase_1,,,,,,,,,,,,,green,circle
26.0,1.0,1.0,0.0,1.0,1.0,387.0318360000055,3.0,2.0,phase_1,,,,,,,,,,,,,orange,flipped triangle
84.0,2.0,2.0,0.0,2.0,2.0,257.5334649995966,3.0,1.0,phase_1,,,,,,,,,,,,,green,circle
115.0,6.0,2.0,1.0,4.0,4.0,312.4338130000978,3.0,1.0,phase_1,,,,,,,,,,,,,blue,I
401.0,4.0,4.0,0.0,3.0,3.0,260.803709999891,3.0,1.0,phase_1,,,,,,,,,,,,,yellow,square
212.0,3.0,3.0,0.0,4.0,4.0,328.8333280002007,3.0,1.0,phase_1,,,,,,,,,,,,,magenta,triangle
96.0,6.0,2.0,1.0,4.0,4.0,332.8838440002073,3.0,1.0,phase_1,,,,,,,,,,,,,blue,I
0.0,6.0,0.0,1.0,2.0,2.0,258.4501809997164,3.0,1.0,phase_1,,,,,,,,,,,,,blue,I
0.0,3.0,0.0,0.0,3.0,3.0,309.2850370003361,3.0,1.0,phase_1,,,,,,,,,,,,,magenta,triangle
26.0,5.0,1.0,1.0,3.0,3.0,284.0993269996943,3.0,1.0,phase_1,,,,,,,,,,,,,gray,cross
29.0,5.0,1.0,1.0,4.0,4.0,369.5776450003905,3.0,1.0,phase_1,,,,,,,,,,,,,gray,cross
0.0,7.0,0.0,1.0,1.0,1.0,272.1841839997978,3.0,1.0,phase_1,,,,,,,,,,,,,white,diamond
83.0,6.0,2.0,1.0,2.0,2.0,321.8932660001883,3.0,1.0,phase_1,,,,,,,,,,,,,blue,I
99.0,2.0,2.0,0.0,3.0,3.0,293.2707929999196,3.0,1.0,phase_1,,,,,,,,,,,,,green,circle
211.0,7.0,3.0,1.0,2.0,2.0,299.1773580001791,3.0,1.0,phase_1,,,,,,,,,,,,,white,diamond
0.0,1.0,0.0,0.0,3.0,3.0,289.9047920000157,3.0,1.0,phase_1,,,,,,,,,,,,,orange,flipped triangle
0.0,1.0,0.0,0.0,1.0,1.0,274.2611310000029,3.0,1.0,phase_1,,,,,,,,,,,,,orange,flipped triangle
387.0,8.0,4.0,1.0,4.0,4.0,289.0608210000209,3.0,1.0,phase_1,,,,,,,,,,,,,cyan,hexagon
64.0,1.0,1.0,0.0,3.0,3.0,274.2324890000418,3.0,1.0,phase_1,,,,,,,,,,,,,orange,flipped triangle
0.0,3.0,0.0,0.0,2.0,2.0,224.6337209999183,3.0,1.0,phase_1,,,,,,,,,,,,,magenta,triangle
223.0,3.0,3.0,0.0,2.0,2.0,270.8000970001194,3.0,1.0,phase_1,,,,,,,,,,,,,magenta,triangle
379.0,4.0,4.0,0.0,2.0,2.0,251.7722419997881,3.0,1.0,phase_1,,,,,,,,,,,,,yellow,square
414.0,4.0,4.0,0.0,1.0,1.0,280.6910650001555,3.0,1.0,phase_1,,,,,,,,,,,,,yellow,square
0.0,6.0,0.0,1.0,3.0,3.0,277.7955029996519,3.0,1.0,phase_1,,,,,,,,,,,,,blue,I
381.0,8.0,4.0,1.0,4.0,4.0,316.7948130003424,3.0,1.0,phase_1,,,,,,,,,,,,,cyan,hexagon
0.0,1.0,0.0,0.0,1.0,1.0,322.0975029998953,3.0,1.0,phase_1,,,,,,,,,,,,,orange,flipped triangle
81.0,6.0,2.0,1.0,1.0,1.0,289.794981000341,3.0,1.0,phase_1,,,,,,,,,,,,,blue,I
60.0,5.0,1.0,1.0,3.0,3.0,276.1249150003095,3.0,1.0,phase_1,,,,,,,,,,,,,gray,cross
115.0,2.0,2.0,0.0,2.0,2.0,256.8241159997342,3.0,1.0,phase_1,,,,,,,,,,,,,green,circle
37.0,5.0,1.0,1.0,1.0,1.0,267.1124420003252,3.0,1.0,phase_1,,,,,,,,,,,,,gray,cross
96.0,2.0,2.0,0.0,3.0,3.0,254.7116749997258,3.0,1.0,phase_1,,,,,,,,,,,,,green,circle
81.0,6.0,2.0,1.0,2.0,2.0,334.6712600000501,3.0,1.0,phase_1,,,,,,,,,,,,,blue,I
0.0,6.0,0.0,1.0,3.0,3.0,310.7800850002604,3.0,1.0,phase_1,,,,,,,,,,,,,blue,I
423.0,4.0,4.0,0.0,2.0,2.0,269.7669580002184,3.0,1.0,phase_1,,,,,,,,,,,,,yellow,square
387.0,4.0,4.0,0.0,4.0,4.0,314.1406630002166,3.0,1.0,phase_1,,,,,,,,,,,,,yellow,square
0.0,3.0,0.0,0.0,4.0,4.0,307.63883999998137,3.0,1.0,phase_1,,,,,,,,,,,,,magenta,triangle
0.0,2.0,0.0,0.0,1.0,1.0,312.0010850002472,3.0,2.0,phase_1,,,,,,,,,,,,,green,circle
0.0,3.0,0.0,0.0,4.0,4.0,268.4041890001936,3.0,1.0,phase_1,,,,,,,,,,,,,magenta,triangle
421.0,8.0,4.0,1.0,2.0,2.0,327.0933260000674,3.0,1.0,phase_1,,,,,,,,,,,,,cyan,hexagon
50.0,5.0,1.0,1.0,1.0,1.0,319.15402300001,3.0,1.0,phase_1,,,,,,,,,,,,,gray,cross
0.0,8.0,0.0,1.0,4.0,4.0,271.0593740002878,3.0,1.0,phase_1,,,,,,,,,,,,,cyan,hexagon
119.0,2.0,2.0,0.0,2.0,2.0,267.2662610002589,3.0,1.0,phase_1,,,,,,,,,,,,,green,circle
0.0,8.0,0.0,1.0,3.0,3.0,267.8739339999083,3.0,1.0,phase_1,,,,,,,,,,,,,cyan,hexagon
44.0,1.0,1.0,0.0,1.0,1.0,253.07226199993238,3.0,1.0,phase_1,,,,,,,,,,,,,orange,flipped triangle
108.0,6.0,2.0,1.0,3.0,3.0,254.5897469999545,3.0,1.0,phase_1,,,,,,,,,,,,,blue,I
407.0,8.0,4.0,1.0,2.0,2.0,225.48901900017879,3.0,1.0,phase_1,,,,,,,,,,,,,cyan,hexagon
203.0,3.0,3.0,0.0,1.0,1.0,293.3260490003704,3.0,1.0,phase_1,,,,,,,,,,,,,magenta,triangle
0.0,3.0,0.0,0.0,4.0,4.0,258.9123130001098,3.0,1.0,phase_1,,,,,,,,,,,,,magenta,triangle
0.0,6.0,0.0,1.0,1.0,1.0,351.4249720001317,3.0,1.0,phase_1,,,,,,,,,,,,,blue,I
58.0,5.0,1.0,1.0,3.0,3.0,334.2982449998999,3.0,1.0,phase_1,,,,,,,,,,,,,gray,cross
81.0,2.0,2.0,0.0,3.0,3.0,279.688841999814,3.0,1.0,phase_1,,,,,,,,,,,,,green,circle
207.0,3.0,3.0,0.0,1.0,1.0,245.7862430001114,3.0,1.0,phase_1,,,,,,,,,,,,,magenta,triangle
94.0,6.0,2.0,1.0,1.0,1.0,268.373591999989,3.0,1.0,phase_1,,,,,,,,,,,,,blue,I
390.0,4.0,4.0,0.0,3.0,3.0,258.8879099998848,3.0,1.0,phase_1,,,,,,,,,,,,,yellow,square
25.0,1.0,1.0,0.0,2.0,2.0,239.0070790002028,3.0,1.0,phase_1,,,,,,,,,,,,,orange,flipped triangle
48.0,5.0,1.0,1.0,1.0,1.0,293.8395090000085,3.0,1.0,phase_1,,,,,,,,,,,,,gray,cross
185.0,7.0,3.0,1.0,1.0,1.0,303.4214539998174,4.0,1.0,phase_1,,,,,,,,,,,,,white,diamond
114.0,2.0,2.0,0.0,1.0,1.0,253.48358399969578,4.0,1.0,phase_1,,,,,,,,,,,,,green,circle
0.0,7.0,0.0,1.0,4.0,4.0,273.8962080002238,4.0,1.0,phase_1,,,,,,,,,,,,,white,diamond
394.0,4.0,4.0,0.0,3.0,3.0,247.1333429998594,4.0,1.0,phase_1,,,,,,,,,,,,,yellow,square
117.0,6.0,2.0,1.0,3.0,3.0,267.3642139998264,4.0,1.0,phase_1,,,,,,,,,,,,,blue,I
51.0,5.0,1.0,1.0,4.0,4.0,253.80263099987133,4.0,1.0,phase_1,,,,,,,,,,,,,gray,cross
381.0,4.0,4.0,0.0,3.0,3.0,258.4215209999456,4.0,1.0,phase_1,,,,,,,,,,,,,yellow,square
76.0,6.0,2.0,1.0,4.0,4.0,278.2495649998964,4.0,1.0,phase_1,,,,,,,,,,,,,blue,I
34.0,1.0,1.0,0.0,3.0,3.0,271.9245470002533,4.0,1.0,phase_1,,,,,,,,,,,,,orange,flipped triangle
407.0,4.0,4.0,0.0,1.0,1.0,303.8217840003199,4.0,2.0,phase_1,,,,,,,,,,,,,yellow,square
76.0,2.0,2.0,0.0,1.0,1.0,279.077437000069,4.0,1.0,phase_1,,,,,,,,,,,,,green,circle
111.0,2.0,2.0,0.0,2.0,2.0,335.6185890002052,4.0,1.0,phase_1,,,,,,,,,,,,,green,circle
199.0,7.0,3.0,1.0,2.0,2.0,271.5658900001472,4.0,1.0,phase_1,,,,,,,,,,,,,white,diamond
31.0,5.0,1.0,1.0,4.0,4.0,256.3255820000449,4.0,1.0,phase_1,,,,,,,,,,,,,gray,cross
394.0,8.0,4.0,1.0,2.0,2.0,293.8759229996321,4.0,1.0,phase_1,,,,,,,,,,,,,cyan,hexagon
0.0,7.0,0.0,1.0,2.0,2.0,286.3264359998538,4.0,1.0,phase_1,,,,,,,,,,,,,white,diamond
73.0,1.0,1.0,0.0,2.0,2.0,237.3458100000789,4.0,1.0,phase_1,,,,,,,,,,,,,orange,flipped triangle
120.0,6.0,2.0,1.0,3.0,3.0,298.0817309999111,4.0,1.0,phase_1,,,,,,,,,,,,,blue,I
187.0,7.0,3.0,1.0,4.0,4.0,289.8769019998326,4.0,1.0,phase_1,,,,,,,,,,,,,white,diamond
200.0,3.0,3.0,0.0,4.0,4.0,280.6239060000735,4.0,1.0,phase_1,,,,,,,,,,,,,magenta,triangle
180.0,7.0,3.0,1.0,3.0,3.0,246.4730779997808,4.0,1.0,phase_1,,,,,,,,,,,,,white,diamond
67.0,5.0,1.0,1.0,1.0,1.0,308.6255469997923,4.0,1.0,phase_1,,,,,,,,,,,,,gray,cross
91.0,6.0,2.0,1.0,4.0,4.0,329.2214739999508,4.0,1.0,phase_1,,,,,,,,,,,,,blue,I
190.0,7.0,3.0,1.0,4.0,4.0,287.414009999793,4.0,1.0,phase_1,,,,,,,,,,,,,white,diamond
0.0,2.0,0.0,0.0,3.0,3.0,259.2408340001384,4.0,1.0,phase_1,,,,,,,,,,,,,green,circle
0.0,4.0,0.0,0.0,1.0,1.0,268.5436570000092,4.0,1.0,phase_1,,,,,,,,,,,,,yellow,square
421.0,8.0,4.0,1.0,3.0,3.0,273.8213019997602,4.0,1.0,phase_1,,,,,,,,,,,,,cyan,hexagon
121.0,6.0,2.0,1.0,3.0,3.0,263.9352550004332,4.0,1.0,phase_1,,,,,,,,,,,,,blue,I
220.0,7.0,3.0,1.0,2.0,2.0,252.7766260000135,4.0,1.0,phase_1,,,,,,,,,,,,,white,diamond
0.0,2.0,0.0,0.0,2.0,2.0,310.9426759997404,4.0,1.0,phase_1,,,,,,,,,,,,,green,circle
185.0,7.0,3.0,1.0,1.0,1.0,288.5013800000706,4.0,1.0,phase_1,,,,,,,,,,,,,white,diamond
0.0,5.0,0.0,1.0,1.0,1.0,333.0375100003948,4.0,1.0,phase_1,,,,,,,,,,,,,gray,cross
31.0,5.0,1.0,1.0,3.0,3.0,292.2954629998457,4.0,1.0,phase_1,,,,,,,,,,,,,gray,cross
384.0,8.0,4.0,1.0,1.0,1.0,271.4982570000757,4.0,1.0,phase_1,,,,,,,,,,,,,cyan,hexagon
75.0,2.0,2.0,0.0,4.0,4.0,291.0218890001488,4.0,1.0,phase_1,,,,,,,,,,,,,green,circle
178.0,3.0,3.0,0.0,3.0,3.0,304.0348150002501,4.0,1.0,phase_1,,,,,,,,,,,,,magenta,triangle
415.0,4.0,4.0,0.0,1.0,1.0,261.1140210001395,4.0,1.0,phase_1,,,,,,,,,,,,,yellow,square
107.0,2.0,2.0,0.0,4.0,4.0,300.3135779999866,4.0,1.0,phase_1,,,,,,,,,,,,,green,circle
72.0,1.0,1.0,0.0,3.0,3.0,293.1678019999708,4.0,1.0,phase_1,,,,,,,,,,,,,orange,flipped triangle
31.0,1.0,1.0,0.0,3.0,3.0,279.1256900000007,4.0,1.0,phase_1,,,,,,,,,,,,,orange,flipped triangle
225.0,7.0,3.0,1.0,3.0,3.0,266.2491609999051,4.0,1.0,phase_1,,,,,,,,,,,,,white,diamond
211.0,3.0,3.0,0.0,2.0,2.0,280.3156459999627,4.0,1.0,phase_1,,,,,,,,,,,,,magenta,triangle
71.0,1.0,1.0,0.0,3.0,3.0,250.48740800002628,4.0,1.0,phase_1,,,,,,,,,,,,,orange,flipped triangle
183.0,7.0,3.0,1.0,4.0,4.0,267.9567690001931,4.0,1.0,phase_1,,,,,,,,,,,,,white,diamond
91.0,2.0,2.0,0.0,3.0,3.0,199.72842199968,4.0,1.0,phase_1,,,,,,,,,,,,,green,circle
0.0,3.0,0.0,0.0,1.0,1.0,291.6202800001883,4.0,1.0,phase_1,,,,,,,,,,,,,magenta,triangle
54.0,5.0,1.0,1.0,3.0,3.0,262.6303649999499,4.0,1.0,phase_1,,,,,,,,,,,,,gray,cross
210.0,3.0,3.0,0.0,2.0,2.0,237.7478209996297,4.0,1.0,phase_1,,,,,,,,,,,,,magenta,triangle
0.0,4.0,0.0,0.0,4.0,4.0,287.0419319997381,4.0,1.0,phase_1,,,,,,,,,,,,,yellow,square
415.0,8.0,4.0,1.0,1.0,1.0,259.0010769999935,4.0,1.0,phase_1,,,,,,,,,,,,,cyan,hexagon
99.0,6.0,2.0,1.0,1.0,1.0,352.9595250001875,4.0,1.0,phase_1,,,,,,,,,,,,,blue,I
0.0,8.0,0.0,1.0,2.0,2.0,209.9897329999294,4.0,1.0,phase_1,,,,,,,,,,,,,cyan,hexagon
98.0,6.0,2.0,1.0,2.0,2.0,272.9921279997143,4.0,1.0,phase_1,,,,,,,,,,,,,blue,I
191.0,7.0,3.0,1.0,4.0,4.0,344.0155849998518,4.0,1.0,phase_1,,,,,,,,,,,,,white,diamond
199.0,3.0,3.0,0.0,2.0,2.0,277.0431079998161,4.0,1.0,phase_1,,,,,,,,,,,,,magenta,triangle
44.0,5.0,1.0,1.0,2.0,2.0,263.9966030001233,4.0,1.0,phase_1,,,,,,,,,,,,,gray,cross
415.0,4.0,4.0,0.0,1.0,1.0,315.0910259996635,4.0,1.0,phase_1,,,,,,,,,,,,,yellow,square
33.0,1.0,1.0,0.0,4.0,4.0,297.7463629999874,4.0,1.0,phase_1,,,,,,,,,,,,,orange,flipped triangle
380.0,8.0,4.0,1.0,3.0,3.0,271.7776180002147,4.0,1.0,phase_1,,,,,,,,,,,,,cyan,hexagon
0.0,3.0,0.0,0.0,3.0,3.0,264.504529000078,4.0,1.0,phase_1,,,,,,,,,,,,,magenta,triangle
0.0,4.0,0.0,0.0,4.0,4.0,314.3038039997918,4.0,1.0,phase_1,,,,,,,,,,,,,yellow,square
102.0,6.0,2.0,1.0,3.0,3.0,245.7714839997606,4.0,1.0,phase_1,,,,,,,,,,,,,blue,I
221.0,3.0,3.0,0.0,4.0,4.0,314.6237289997771,4.0,1.0,phase_1,,,,,,,,,,,,,magenta,triangle
0.0,7.0,0.0,1.0,2.0,2.0,236.9103630003337,4.0,1.0,phase_1,,,,,,,,,,,,,white,diamond
0.0,2.0,0.0,0.0,1.0,1.0,283.7816010001006,4.0,1.0,phase_1,,,,,,,,,,,,,green,circle
68.0,5.0,1.0,1.0,1.0,1.0,288.0388540002059,4.0,1.0,phase_1,,,,,,,,,,,,,gray,cross
414.0,4.0,4.0,0.0,2.0,2.0,217.601743999694,4.0,1.0,phase_1,,,,,,,,,,,,,yellow,square
90.0,6.0,2.0,1.0,4.0,4.0,251.7230449998351,4.0,1.0,phase_1,,,,,,,,,,,,,blue,I
85.0,2.0,2.0,0.0,2.0,2.0,250.8875799999259,4.0,1.0,phase_1,,,,,,,,,,,,,green,circle
123.0,6.0,2.0,1.0,3.0,3.0,277.1114140000463,4.0,1.0,phase_1,,,,,,,,,,,,,blue,I
203.0,7.0,3.0,1.0,4.0,4.0,261.6502740002033,4.0,1.0,phase_1,,,,,,,,,,,,,white,diamond
121.0,2.0,2.0,0.0,4.0,4.0,269.1108020003412,4.0,1.0,phase_1,,,,,,,,,,,,,green,circle
0.0,1.0,0.0,0.0,3.0,3.0,239.7574799997528,4.0,1.0,phase_1,,,,,,,,,,,,,orange,flipped triangle
422.0,8.0,4.0,1.0,4.0,4.0,250.25745800030558,4.0,1.0,phase_1,,,,,,,,,,,,,cyan,hexagon
0.0,4.0,0.0,0.0,3.0,3.0,264.2186250000122,4.0,1.0,phase_1,,,,,,,,,,,,,yellow,square
74.0,5.0,1.0,1.0,4.0,4.0,281.6572470001119,4.0,1.0,phase_1,,,,,,,,,,,,,gray,cross
218.0,7.0,3.0,1.0,3.0,3.0,297.4584720000166,4.0,1.0,phase_1,,,,,,,,,,,,,white,diamond
0.0,7.0,0.0,1.0,2.0,2.0,274.8159419998046,4.0,1.0,phase_1,,,,,,,,,,,,,white,diamond
55.0,1.0,1.0,0.0,1.0,1.0,311.3300459999664,4.0,1.0,phase_1,,,,,,,,,,,,,orange,flipped triangle
224.0,7.0,3.0,1.0,1.0,1.0,305.1038199996583,4.0,1.0,phase_1,,,,,,,,,,,,,white,diamond
121.0,2.0,2.0,0.0,2.0,2.0,287.7138180001566,4.0,1.0,phase_1,,,,,,,,,,,,,green,circle
414.0,8.0,4.0,1.0,4.0,4.0,236.9045259997619,4.0,1.0,phase_1,,,,,,,,,,,,,cyan,hexagon
187.0,3.0,3.0,0.0,1.0,1.0,280.5747170000359,4.0,1.0,phase_1,,,,,,,,,,,,,magenta,triangle
45.0,1.0,1.0,0.0,4.0,4.0,317.158056000153,4.0,1.0,phase_1,,,,,,,,,,,,,orange,flipped triangle
121.0,2.0,2.0,0.0,1.0,1.0,264.1852720003044,4.0,1.0,phase_1,,,,,,,,,,,,,green,circle
95.0,6.0,2.0,1.0,1.0,1.0,274.2827090000901,4.0,1.0,phase_1,,,,,,,,,,,,,blue,I
86.0,2.0,2.0,0.0,1.0,1.0,250.4303499999878,4.0,1.0,phase_1,,,,,,,,,,,,,green,circle
421.0,4.0,4.0,0.0,3.0,3.0,247.2931090001111,4.0,1.0,phase_1,,,,,,,,,,,,,yellow,square
184.0,3.0,3.0,0.0,4.0,4.0,359.9311339999076,4.0,1.0,phase_1,,,,,,,,,,,,,magenta,triangle
218.0,3.0,3.0,0.0,1.0,1.0,263.0896320001739,4.0,1.0,phase_1,,,,,,,,,,,,,magenta,triangle
408.0,4.0,4.0,0.0,2.0,2.0,240.0449700003264,4.0,1.0,phase_1,,,,,,,,,,,,,yellow,square
183.0,7.0,3.0,1.0,4.0,4.0,249.3265739999515,4.0,1.0,phase_1,,,,,,,,,,,,,white,diamond
379.0,4.0,4.0,0.0,4.0,4.0,278.6804010002015,4.0,1.0,phase_1,,,,,,,,,,,,,yellow,square
44.0,1.0,1.0,0.0,2.0,2.0,233.7359909997758,4.0,1.0,phase_1,,,,,,,,,,,,,orange,flipped triangle
386.0,4.0,4.0,0.0,2.0,2.0,336.2214420003511,4.0,1.0,phase_1,,,,,,,,,,,,,yellow,square
0.0,8.0,0.0,1.0,1.0,1.0,326.3988319999953,4.0,1.0,phase_1,,,,,,,,,,,,,cyan,hexagon
384.0,4.0,4.0,0.0,1.0,1.0,284.4932959997095,4.0,1.0,phase_1,,,,,,,,,,,,,yellow,square
102.0,6.0,2.0,1.0,3.0,3.0,256.0675960003209,4.0,1.0,phase_1,,,,,,,,,,,,,blue,I
209.0,3.0,3.0,0.0,3.0,3.0,292.0244960000673,4.0,1.0,phase_1,,,,,,,,,,,,,magenta,triangle
0.0,4.0,0.0,0.0,1.0,1.0,222.0682189999934,4.0,1.0,phase_1,,,,,,,,,,,,,yellow,square
0.0,5.0,1.0,1.0,6.0,6.0,420.0664179998057,1.0,1.0,phase_2,go,250.0,250.0,1.0,,,,,,,,,gray,cross
0.0,4.0,4.0,0.0,5.0,5.0,278.2912369998485,1.0,1.0,phase_2,go,250.0,250.0,1.0,,,,,,,,,yellow,square
0.0,6.0,2.0,1.0,6.0,6.0,503.73921100026564,1.0,1.0,phase_2,stop,250.0,250.0,3.0,,,,,,,,,blue,I
0.0,1.0,1.0,0.0,5.0,5.0,304.9411979995966,1.0,1.0,phase_2,go,250.0,200.0,1.0,,,,,,,,,orange,flipped triangle
0.0,7.0,3.0,1.0,6.0,0.0,0.0,1.0,1.0,phase_2,stop,250.0,200.0,4.0,,,,,,,,,white,diamond
0.0,3.0,3.0,0.0,6.0,6.0,711.2261399997806,1.0,1.0,phase_2,go,250.0,250.0,1.0,,,,,,,,,magenta,triangle
0.0,3.0,3.0,0.0,5.0,5.0,684.1252369999893,1.0,1.0,phase_2,go,250.0,250.0,1.0,,,,,,,,,magenta,triangle
0.0,1.0,1.0,0.0,5.0,5.0,692.0526030003202,1.0,1.0,phase_2,go,250.0,250.0,1.0,,,,,,,,,orange,flipped triangle
0.0,3.0,3.0,0.0,5.0,5.0,299.8047679998308,1.0,1.0,phase_2,go,250.0,250.0,1.0,,,,,,,,,magenta,triangle
0.0,1.0,1.0,0.0,5.0,5.0,786.3504950000788,1.0,1.0,phase_2,go,250.0,250.0,1.0,,,,,,,,,orange,flipped triangle
0.0,6.0,2.0,1.0,5.0,5.0,355.5203789996994,1.0,1.0,phase_2,stop,250.0,250.0,3.0,,,,,,,,,blue,I
0.0,8.0,4.0,1.0,5.0,0.0,0.0,1.0,1.0,phase_2,stop,200.0,250.0,4.0,,,,,,,,,cyan,hexagon
0.0,2.0,2.0,0.0,5.0,5.0,316.4818539999032,1.0,1.0,phase_2,go,250.0,250.0,1.0,,,,,,,,,green,circle
0.0,3.0,3.0,0.0,6.0,6.0,395.0321959996472,1.0,1.0,phase_2,go,250.0,250.0,1.0,,,,,,,,,magenta,triangle
0.0,7.0,3.0,1.0,5.0,5.0,589.5283489999201,1.0,1.0,phase_2,go,250.0,250.0,1.0,,,,,,,,,white,diamond
0.0,7.0,3.0,1.0,5.0,5.0,936.7315919998872,1.0,1.0,phase_2,go,250.0,250.0,1.0,,,,,,,,,white,diamond
0.0,8.0,4.0,1.0,6.0,0.0,0.0,1.0,1.0,phase_2,stop,250.0,250.0,4.0,,,,,,,,,cyan,hexagon
0.0,1.0,1.0,0.0,6.0,6.0,698.1790529998761,1.0,1.0,phase_2,go,250.0,300.0,1.0,,,,,,,,,orange,flipped triangle
0.0,2.0,2.0,0.0,5.0,5.0,705.816951000088,1.0,1.0,phase_2,go,250.0,300.0,1.0,,,,,,,,,green,circle
0.0,2.0,2.0,0.0,6.0,6.0,786.617969999952,1.0,1.0,phase_2,go,250.0,300.0,1.0,,,,,,,,,green,circle
0.0,6.0,2.0,1.0,6.0,6.0,726.867098999719,1.0,1.0,phase_2,go,250.0,300.0,1.0,,,,,,,,,blue,I
0.0,7.0,3.0,1.0,5.0,0.0,0.0,1.0,1.0,phase_2,stop,250.0,300.0,4.0,,,,,,,,,white,diamond
0.0,1.0,1.0,0.0,5.0,5.0,859.7384800000327,1.0,1.0,phase_2,go,300.0,300.0,1.0,,,,,,,,,orange,flipped triangle
0.0,5.0,1.0,1.0,6.0,0.0,0.0,1.0,1.0,phase_2,stop,300.0,300.0,4.0,,,,,,,,,gray,cross
0.0,6.0,2.0,1.0,6.0,0.0,0.0,1.0,1.0,phase_2,stop,300.0,350.0,4.0,,,,,,,,,blue,I
0.0,1.0,1.0,0.0,5.0,5.0,568.853088999731,1.0,1.0,phase_2,go,300.0,400.0,1.0,,,,,,,,,orange,flipped triangle
0.0,3.0,3.0,0.0,6.0,6.0,758.1299529997523,1.0,1.0,phase_2,go,300.0,400.0,1.0,,,,,,,,,magenta,triangle
0.0,5.0,1.0,1.0,5.0,0.0,0.0,1.0,1.0,phase_2,stop,300.0,400.0,4.0,,,,,,,,,gray,cross
0.0,8.0,4.0,1.0,6.0,6.0,277.9402179999124,1.0,1.0,phase_2,go,350.0,400.0,1.0,,,,,,,,,cyan,hexagon
0.0,5.0,1.0,1.0,5.0,0.0,0.0,1.0,1.0,phase_2,stop,350.0,400.0,4.0,,,,,,,,,gray,cross
0.0,3.0,3.0,0.0,6.0,6.0,783.1572529998994,1.0,1.0,phase_2,go,400.0,400.0,1.0,,,,,,,,,magenta,triangle
0.0,1.0,1.0,0.0,6.0,6.0,838.9652679998107,1.0,1.0,phase_2,go,400.0,400.0,1.0,,,,,,,,,orange,flipped triangle
0.0,8.0,4.0,1.0,6.0,0.0,0.0,1.0,1.0,phase_2,stop,400.0,400.0,4.0,,,,,,,,,cyan,hexagon
0.0,1.0,1.0,0.0,6.0,6.0,724.3097440000383,1.0,1.0,phase_2,go,400.0,450.0,1.0,,,,,,,,,orange,flipped triangle
0.0,4.0,4.0,0.0,6.0,6.0,812.524728000426,1.0,1.0,phase_2,go,400.0,450.0,1.0,,,,,,,,,yellow,square
0.0,2.0,2.0,0.0,5.0,5.0,867.0265790001395,1.0,1.0,phase_2,go,400.0,450.0,1.0,,,,,,,,,green,circle
0.0,5.0,1.0,1.0,6.0,6.0,687.0576369997252,2.0,1.0,phase_2,go,400.0,450.0,1.0,,,,,,,,,gray,cross
0.0,7.0,3.0,1.0,5.0,5.0,236.4368160001504,2.0,1.0,phase_2,go,400.0,450.0,1.0,,,,,,,,,white,diamond
0.0,5.0,1.0,1.0,6.0,6.0,224.8389279998264,2.0,1.0,phase_2,stop,400.0,450.0,3.0,,,,,,,,,gray,cross
0.0,6.0,2.0,1.0,6.0,6.0,524.873227000171,2.0,1.0,phase_2,stop,400.0,400.0,3.0,,,,,,,,,blue,I
0.0,4.0,4.0,0.0,6.0,6.0,577.184189000036,2.0,1.0,phase_2,go,400.0,350.0,1.0,,,,,,,,,yellow,square
0.0,5.0,1.0,1.0,6.0,6.0,533.025404,2.0,1.0,phase_2,go,400.0,350.0,1.0,,,,,,,,,gray,cross
0.0,6.0,2.0,1.0,5.0,5.0,442.1126129996082,2.0,1.0,phase_2,stop,400.0,350.0,3.0,,,,,,,,,blue,I
0.0,3.0,3.0,0.0,6.0,6.0,346.1102280002706,2.0,1.0,phase_2,go,350.0,350.0,1.0,,,,,,,,,magenta,triangle
0.0,5.0,1.0,1.0,6.0,6.0,777.2051440001633,2.0,1.0,phase_2,go,350.0,350.0,1.0,,,,,,,,,gray,cross
0.0,5.0,1.0,1.0,5.0,0.0,0.0,2.0,1.0,phase_2,stop,350.0,350.0,4.0,,,,,,,,,gray,cross
0.0,6.0,2.0,1.0,6.0,0.0,0.0,2.0,1.0,phase_2,stop,400.0,350.0,4.0,,,,,,,,,blue,I
0.0,5.0,1.0,1.0,5.0,5.0,534.271851000085,2.0,1.0,phase_2,go,400.0,400.0,1.0,,,,,,,,,gray,cross
0.0,8.0,4.0,1.0,5.0,0.0,0.0,2.0,1.0,phase_2,stop,400.0,400.0,4.0,,,,,,,,,cyan,hexagon
0.0,4.0,4.0,0.0,5.0,5.0,432.3346969999875,2.0,1.0,phase_2,go,450.0,400.0,1.0,,,,,,,,,yellow,square
0.0,7.0,3.0,1.0,5.0,0.0,0.0,2.0,1.0,phase_2,stop,450.0,400.0,4.0,,,,,,,,,white,diamond
0.0,7.0,3.0,1.0,6.0,6.0,498.5837449999053,2.0,1.0,phase_2,stop,500.0,400.0,3.0,,,,,,,,,white,diamond
0.0,3.0,3.0,0.0,6.0,6.0,715.0849290001133,2.0,1.0,phase_2,go,500.0,350.0,1.0,,,,,,,,,magenta,triangle
0.0,6.0,2.0,1.0,6.0,0.0,0.0,2.0,1.0,phase_2,stop,500.0,350.0,4.0,,,,,,,,,blue,I
0.0,7.0,3.0,1.0,6.0,6.0,504.385731000184,2.0,1.0,phase_2,stop,500.0,400.0,3.0,,,,,,,,,white,diamond
0.0,7.0,3.0,1.0,6.0,6.0,389.8015790000499,2.0,1.0,phase_2,stop,500.0,350.0,3.0,,,,,,,,,white,diamond
0.0,2.0,2.0,0.0,5.0,5.0,595.4625230001511,2.0,1.0,phase_2,go,500.0,300.0,1.0,,,,,,,,,green,circle
0.0,4.0,4.0,0.0,5.0,5.0,698.1075650001003,2.0,1.0,phase_2,go,500.0,300.0,1.0,,,,,,,,,yellow,square
0.0,3.0,3.0,0.0,6.0,6.0,565.1538199999777,2.0,1.0,phase_2,go,500.0,300.0,1.0,,,,,,,,,magenta,triangle
0.0,3.0,3.0,0.0,5.0,5.0,709.8278849998678,2.0,1.0,phase_2,go,500.0,300.0,1.0,,,,,,,,,magenta,triangle
0.0,1.0,1.0,0.0,6.0,6.0,430.2795499997955,2.0,1.0,phase_2,go,500.0,300.0,1.0,,,,,,,,,orange,flipped triangle
0.0,3.0,3.0,0.0,5.0,5.0,501.02709800012235,2.0,1.0,phase_2,go,500.0,300.0,1.0,,,,,,,,,magenta,triangle
0.0,2.0,2.0,0.0,6.0,6.0,410.7579149999765,2.0,1.0,phase_2,go,500.0,300.0,1.0,,,,,,,,,green,circle
0.0,5.0,1.0,1.0,5.0,5.0,395.0380599999334,2.0,1.0,phase_2,stop,500.0,300.0,3.0,,,,,,,,,gray,cross
0.0,7.0,3.0,1.0,6.0,6.0,339.6516329999031,2.0,1.0,phase_2,stop,450.0,300.0,3.0,,,,,,,,,white,diamond
0.0,4.0,4.0,0.0,5.0,5.0,490.7252879997941,2.0,1.0,phase_2,go,450.0,250.0,1.0,,,,,,,,,yellow,square
0.0,5.0,1.0,1.0,5.0,0.0,0.0,2.0,1.0,phase_2,stop,450.0,250.0,4.0,,,,,,,,,gray,cross
0.0,1.0,1.0,0.0,6.0,6.0,585.5421040000692,2.0,1.0,phase_2,go,500.0,250.0,1.0,,,,,,,,,orange,flipped triangle
0.0,6.0,2.0,1.0,5.0,5.0,633.5052379999979,2.0,1.0,phase_2,go,500.0,250.0,1.0,,,,,,,,,blue,I
0.0,2.0,2.0,0.0,5.0,5.0,609.1947469999468,2.0,1.0,phase_2,go,500.0,250.0,1.0,,,,,,,,,green,circle
0.0,5.0,1.0,1.0,6.0,0.0,0.0,2.0,1.0,phase_2,stop,500.0,250.0,4.0,,,,,,,,,gray,cross
0.0,3.0,3.0,0.0,6.0,6.0,570.4487550001431,2.0,1.0,phase_2,go,500.0,300.0,1.0,,,,,,,,,magenta,triangle
0.0,2.0,2.0,0.0,5.0,5.0,607.4664520001534,3.0,1.0,phase_2,go,500.0,300.0,1.0,,,,,,,,,green,circle
0.0,7.0,3.0,1.0,5.0,5.0,567.9052730001786,3.0,1.0,phase_2,stop,500.0,300.0,3.0,,,,,,,,,white,diamond
0.0,6.0,2.0,1.0,5.0,5.0,298.9238819995989,3.0,1.0,phase_2,go,450.0,300.0,1.0,,,,,,,,,blue,I
0.0,2.0,2.0,0.0,6.0,6.0,570.405251000011,3.0,1.0,phase_2,go,450.0,300.0,1.0,,,,,,,,,green,circle
0.0,7.0,3.0,1.0,5.0,5.0,595.9448549997433,3.0,1.0,phase_2,stop,450.0,300.0,3.0,,,,,,,,,white,diamond
0.0,7.0,3.0,1.0,6.0,0.0,0.0,3.0,1.0,phase_2,stop,400.0,300.0,4.0,,,,,,,,,white,diamond
0.0,4.0,4.0,0.0,5.0,5.0,484.3249560003642,3.0,1.0,phase_2,go,400.0,350.0,1.0,,,,,,,,,yellow,square
0.0,3.0,3.0,0.0,5.0,5.0,638.7800990000869,3.0,1.0,phase_2,go,400.0,350.0,1.0,,,,,,,,,magenta,triangle
0.0,6.0,2.0,1.0,5.0,0.0,0.0,3.0,1.0,phase_2,stop,400.0,350.0,4.0,,,,,,,,,blue,I
0.0,5.0,1.0,1.0,6.0,0.0,0.0,3.0,1.0,phase_2,stop,450.0,350.0,4.0,,,,,,,,,gray,cross
0.0,2.0,2.0,0.0,5.0,5.0,547.5716200003262,3.0,1.0,phase_2,go,450.0,400.0,1.0,,,,,,,,,green,circle
0.0,5.0,1.0,1.0,5.0,0.0,0.0,3.0,1.0,phase_2,stop,450.0,400.0,4.0,,,,,,,,,gray,cross
0.0,3.0,3.0,0.0,6.0,6.0,256.2842790002833,3.0,1.0,phase_2,go,500.0,400.0,1.0,,,,,,,,,magenta,triangle
0.0,7.0,3.0,1.0,5.0,5.0,685.008495999682,3.0,1.0,phase_2,stop,500.0,400.0,3.0,,,,,,,,,white,diamond
0.0,5.0,1.0,1.0,6.0,6.0,261.3958839997394,3.0,1.0,phase_2,stop,450.0,400.0,3.0,,,,,,,,,gray,cross
0.0,8.0,4.0,1.0,5.0,5.0,679.4261049999477,3.0,1.0,phase_2,go,450.0,350.0,1.0,,,,,,,,,cyan,hexagon
0.0,7.0,3.0,1.0,6.0,6.0,692.6235840001027,3.0,1.0,phase_2,go,450.0,350.0,1.0,,,,,,,,,white,diamond
0.0,8.0,4.0,1.0,6.0,0.0,0.0,3.0,1.0,phase_2,stop,450.0,350.0,4.0,,,,,,,,,cyan,hexagon
0.0,6.0,2.0,1.0,5.0,5.0,576.7378919999828,3.0,1.0,phase_2,go,450.0,400.0,1.0,,,,,,,,,blue,I
0.0,8.0,4.0,1.0,5.0,0.0,0.0,3.0,1.0,phase_2,stop,450.0,400.0,4.0,,,,,,,,,cyan,hexagon
0.0,2.0,2.0,0.0,6.0,6.0,588.6730160000297,3.0,1.0,phase_2,go,500.0,400.0,1.0,,,,,,,,,green,circle
0.0,2.0,2.0,0.0,5.0,5.0,655.3198180004074,3.0,1.0,phase_2,go,500.0,400.0,1.0,,,,,,,,,green,circle
0.0,1.0,1.0,0.0,6.0,6.0,737.4047580001388,3.0,1.0,phase_2,go,500.0,400.0,1.0,,,,,,,,,orange,flipped triangle
0.0,6.0,2.0,1.0,5.0,5.0,632.0994169996084,3.0,1.0,phase_2,stop,500.0,400.0,3.0,,,,,,,,,blue,I
0.0,7.0,3.0,1.0,6.0,0.0,0.0,3.0,1.0,phase_2,stop,450.0,400.0,4.0,,,,,,,,,white,diamond
0.0,5.0,1.0,1.0,6.0,0.0,0.0,3.0,1.0,phase_2,stop,450.0,450.0,4.0,,,,,,,,,gray,cross
0.0,1.0,1.0,0.0,5.0,5.0,546.1497020000934,3.0,1.0,phase_2,go,450.0,500.0,1.0,,,,,,,,,orange,flipped triangle
0.0,3.0,3.0,0.0,5.0,5.0,853.9352749999125,3.0,1.0,phase_2,go,450.0,500.0,1.0,,,,,,,,,magenta,triangle
0.0,4.0,4.0,0.0,6.0,6.0,845.2489879996392,3.0,1.0,phase_2,go,450.0,500.0,1.0,,,,,,,,,yellow,square
0.0,4.0,4.0,0.0,5.0,5.0,871.806830999958,3.0,1.0,phase_2,go,450.0,500.0,1.0,,,,,,,,,yellow,square
0.0,1.0,1.0,0.0,6.0,6.0,253.46469400028582,3.0,1.0,phase_2,go,450.0,500.0,1.0,,,,,,,,,orange,flipped triangle
0.0,4.0,4.0,0.0,5.0,5.0,675.7827609999367,3.0,1.0,phase_2,go,450.0,500.0,1.0,,,,,,,,,yellow,square
0.0,2.0,2.0,0.0,6.0,6.0,573.8038740000775,3.0,1.0,phase_2,go,450.0,500.0,1.0,,,,,,,,,green,circle
0.0,6.0,2.0,1.0,5.0,0.0,0.0,3.0,1.0,phase_2,stop,450.0,500.0,4.0,,,,,,,,,blue,I
0.0,3.0,3.0,0.0,6.0,6.0,707.3277340000459,3.0,1.0,phase_2,go,500.0,500.0,1.0,,,,,,,,,magenta,triangle
0.0,1.0,1.0,0.0,5.0,5.0,543.2136619997436,3.0,1.0,phase_2,go,500.0,500.0,1.0,,,,,,,,,orange,flipped triangle
0.0,3.0,3.0,0.0,5.0,5.0,529.0812899997945,4.0,1.0,phase_2,go,500.0,500.0,1.0,,,,,,,,,magenta,triangle
0.0,4.0,4.0,0.0,6.0,6.0,468.5985389996858,4.0,1.0,phase_2,go,500.0,500.0,1.0,,,,,,,,,yellow,square
0.0,1.0,1.0,0.0,5.0,5.0,558.5444769999413,4.0,1.0,phase_2,go,500.0,500.0,1.0,,,,,,,,,orange,flipped triangle
0.0,6.0,2.0,1.0,6.0,6.0,553.8354200002686,4.0,1.0,phase_2,go,500.0,500.0,1.0,,,,,,,,,blue,I
0.0,5.0,1.0,1.0,6.0,0.0,0.0,4.0,1.0,phase_2,stop,500.0,500.0,4.0,,,,,,,,,gray,cross
0.0,1.0,1.0,0.0,6.0,6.0,694.2532680000113,4.0,1.0,phase_2,go,500.0,550.0,1.0,,,,,,,,,orange,flipped triangle
0.0,3.0,3.0,0.0,6.0,6.0,634.7065300001304,4.0,1.0,phase_2,go,500.0,550.0,1.0,,,,,,,,,magenta,triangle
0.0,3.0,3.0,0.0,5.0,5.0,659.688825000103,4.0,1.0,phase_2,go,500.0,550.0,1.0,,,,,,,,,magenta,triangle
0.0,8.0,4.0,1.0,6.0,6.0,519.4504930000221,4.0,1.0,phase_2,stop,500.0,550.0,3.0,,,,,,,,,cyan,hexagon
0.0,4.0,4.0,0.0,5.0,5.0,653.252252999664,4.0,1.0,phase_2,go,500.0,500.0,1.0,,,,,,,,,yellow,square
0.0,5.0,1.0,1.0,6.0,6.0,230.5657510000855,4.0,1.0,phase_2,go,500.0,500.0,1.0,,,,,,,,,gray,cross
0.0,1.0,1.0,0.0,6.0,6.0,399.2841829999634,4.0,1.0,phase_2,go,500.0,500.0,1.0,,,,,,,,,orange,flipped triangle
0.0,2.0,2.0,0.0,5.0,5.0,243.6055819998728,4.0,1.0,phase_2,go,500.0,500.0,1.0,,,,,,,,,green,circle
0.0,8.0,4.0,1.0,5.0,5.0,720.4826699999103,4.0,1.0,phase_2,go,500.0,500.0,1.0,,,,,,,,,cyan,hexagon
0.0,3.0,3.0,0.0,6.0,6.0,382.1984850001172,4.0,1.0,phase_2,go,500.0,500.0,1.0,,,,,,,,,magenta,triangle
0.0,8.0,4.0,1.0,6.0,0.0,0.0,4.0,1.0,phase_2,stop,500.0,500.0,4.0,,,,,,,,,cyan,hexagon
0.0,3.0,3.0,0.0,6.0,6.0,657.5724200001787,4.0,1.0,phase_2,go,500.0,550.0,1.0,,,,,,,,,magenta,triangle
0.0,8.0,4.0,1.0,5.0,0.0,0.0,4.0,1.0,phase_2,stop,500.0,550.0,4.0,,,,,,,,,cyan,hexagon
0.0,3.0,3.0,0.0,6.0,6.0,671.7479750000166,4.0,1.0,phase_2,go,550.0,550.0,1.0,,,,,,,,,magenta,triangle
0.0,6.0,2.0,1.0,5.0,0.0,0.0,4.0,1.0,phase_2,stop,550.0,550.0,4.0,,,,,,,,,blue,I
0.0,2.0,2.0,0.0,6.0,6.0,372.549403999983,4.0,1.0,phase_2,go,600.0,550.0,1.0,,,,,,,,,green,circle
0.0,3.0,3.0,0.0,6.0,6.0,937.4773209997328,4.0,1.0,phase_2,go,600.0,550.0,1.0,,,,,,,,,magenta,triangle
0.0,7.0,3.0,1.0,5.0,5.0,462.7893130000302,4.0,1.0,phase_2,stop,600.0,550.0,3.0,,,,,,,,,white,diamond
0.0,7.0,3.0,1.0,6.0,6.0,595.5221149997669,4.0,1.0,phase_2,go,550.0,550.0,1.0,,,,,,,,,white,diamond
0.0,4.0,4.0,0.0,6.0,6.0,716.8717360000301,4.0,1.0,phase_2,go,550.0,550.0,1.0,,,,,,,,,yellow,square
0.0,4.0,4.0,0.0,5.0,5.0,636.3614130000315,4.0,1.0,phase_2,go,550.0,550.0,1.0,,,,,,,,,yellow,square
0.0,1.0,1.0,0.0,6.0,6.0,305.8893459997307,4.0,1.0,phase_2,go,550.0,550.0,1.0,,,,,,,,,orange,flipped triangle
0.0,7.0,3.0,1.0,5.0,5.0,545.9978120002233,4.0,1.0,phase_2,stop,550.0,550.0,3.0,,,,,,,,,white,diamond
0.0,6.0,2.0,1.0,6.0,6.0,439.3809809998856,4.0,1.0,phase_2,stop,500.0,550.0,3.0,,,,,,,,,blue,I
0.0,4.0,4.0,0.0,6.0,6.0,588.0953590003628,4.0,1.0,phase_2,go,500.0,500.0,1.0,,,,,,,,,yellow,square
0.0,4.0,4.0,0.0,5.0,5.0,397.321319999719,4.0,1.0,phase_2,go,500.0,500.0,1.0,,,,,,,,,yellow,square
0.0,7.0,3.0,1.0,6.0,6.0,479.3325830000867,4.0,1.0,phase_2,go,500.0,500.0,1.0,,,,,,,,,white,diamond
0.0,2.0,2.0,0.0,6.0,6.0,658.2578950001334,4.0,1.0,phase_2,go,500.0,500.0,1.0,,,,,,,,,green,circle
0.0,8.0,4.0,1.0,5.0,0.0,0.0,4.0,1.0,phase_2,stop,500.0,500.0,4.0,,,,,,,,,cyan,hexagon
0.0,5.0,1.0,1.0,5.0,0.0,0.0,4.0,1.0,phase_2,stop,550.0,500.0,4.0,,,,,,,,,gray,cross
0.0,2.0,2.0,0.0,5.0,5.0,629.7311969997281,4.0,1.0,phase_2,go,600.0,500.0,1.0,,,,,,,,,green,circle
0.0,8.0,4.0,1.0,6.0,6.0,358.7130920000163,5.0,1.0,phase_2,stop,600.0,500.0,3.0,,,,,,,,,cyan,hexagon
0.0,1.0,1.0,0.0,6.0,6.0,515.1111119998859,5.0,1.0,phase_2,go,600.0,450.0,1.0,,,,,,,,,orange,flipped triangle
0.0,7.0,3.0,1.0,6.0,6.0,573.1696350003403,5.0,1.0,phase_2,stop,600.0,450.0,3.0,,,,,,,,,white,diamond
0.0,5.0,1.0,1.0,6.0,6.0,526.4394599998923,5.0,1.0,phase_2,stop,600.0,400.0,3.0,,,,,,,,,gray,cross
0.0,8.0,4.0,1.0,6.0,0.0,0.0,5.0,1.0,phase_2,stop,600.0,350.0,4.0,,,,,,,,,cyan,hexagon
0.0,1.0,1.0,0.0,5.0,5.0,602.2875759999806,5.0,1.0,phase_2,go,600.0,400.0,1.0,,,,,,,,,orange,flipped triangle
0.0,7.0,3.0,1.0,5.0,5.0,562.7678850000848,5.0,1.0,phase_2,stop,600.0,400.0,3.0,,,,,,,,,white,diamond
0.0,8.0,4.0,1.0,6.0,0.0,0.0,5.0,1.0,phase_2,stop,550.0,400.0,4.0,,,,,,,,,cyan,hexagon
0.0,2.0,2.0,0.0,5.0,5.0,377.0039220003127,5.0,1.0,phase_2,go,550.0,450.0,1.0,,,,,,,,,green,circle
0.0,4.0,4.0,0.0,5.0,5.0,677.7213029999984,5.0,1.0,phase_2,go,550.0,450.0,1.0,,,,,,,,,yellow,square
0.0,8.0,4.0,1.0,5.0,5.0,293.7629090001792,5.0,1.0,phase_2,stop,550.0,450.0,3.0,,,,,,,,,cyan,hexagon
0.0,4.0,4.0,0.0,6.0,6.0,371.1103200002981,5.0,1.0,phase_2,go,500.0,450.0,1.0,,,,,,,,,yellow,square
0.0,8.0,4.0,1.0,5.0,5.0,490.4304040001079,5.0,1.0,phase_2,stop,500.0,450.0,3.0,,,,,,,,,cyan,hexagon
0.0,3.0,3.0,0.0,5.0,5.0,538.1214189997081,5.0,1.0,phase_2,go,450.0,450.0,1.0,,,,,,,,,magenta,triangle
0.0,6.0,2.0,1.0,5.0,5.0,328.088027999911,5.0,1.0,phase_2,go,450.0,450.0,1.0,,,,,,,,,blue,I
0.0,5.0,1.0,1.0,5.0,5.0,574.2316450000544,5.0,1.0,phase_2,stop,450.0,450.0,3.0,,,,,,,,,gray,cross
0.0,1.0,1.0,0.0,5.0,5.0,696.3745580001159,5.0,1.0,phase_2,go,400.0,450.0,1.0,,,,,,,,,orange,flipped triangle
0.0,4.0,4.0,0.0,6.0,6.0,676.7959769999834,5.0,1.0,phase_2,go,400.0,450.0,1.0,,,,,,,,,yellow,square
0.0,5.0,1.0,1.0,5.0,6.0,0.3655339996839,5.0,1.0,phase_2,stop,400.0,450.0,3.0,,,,,,,,,gray,cross
0.0,3.0,3.0,0.0,5.0,5.0,663.1934289998753,5.0,1.0,phase_2,go,350.0,450.0,1.0,,,,,,,,,magenta,triangle
0.0,5.0,1.0,1.0,5.0,0.0,0.0,5.0,1.0,phase_2,stop,350.0,450.0,4.0,,,,,,,,,gray,cross
0.0,5.0,1.0,1.0,6.0,6.0,560.9666069999548,5.0,1.0,phase_2,stop,400.0,450.0,3.0,,,,,,,,,gray,cross
0.0,7.0,3.0,1.0,5.0,0.0,0.0,5.0,1.0,phase_2,stop,400.0,400.0,4.0,,,,,,,,,white,diamond
0.0,1.0,1.0,0.0,5.0,5.0,465.17139999969,5.0,1.0,phase_2,go,450.0,400.0,1.0,,,,,,,,,orange,flipped triangle
0.0,6.0,2.0,1.0,5.0,0.0,0.0,5.0,1.0,phase_2,stop,450.0,400.0,4.0,,,,,,,,,blue,I
0.0,6.0,2.0,1.0,6.0,6.0,546.1862209999708,5.0,1.0,phase_2,stop,500.0,400.0,3.0,,,,,,,,,blue,I
0.0,7.0,3.0,1.0,5.0,5.0,584.2626519997793,5.0,1.0,phase_2,stop,500.0,350.0,3.0,,,,,,,,,white,diamond
0.0,4.0,4.0,0.0,6.0,6.0,943.3313900003668,5.0,1.0,phase_2,go,450.0,350.0,1.0,,,,,,,,,yellow,square
0.0,5.0,1.0,1.0,5.0,0.0,0.0,5.0,1.0,phase_2,stop,450.0,350.0,4.0,,,,,,,,,gray,cross
0.0,4.0,4.0,0.0,5.0,5.0,838.1954729998142,5.0,1.0,phase_2,go,500.0,350.0,1.0,,,,,,,,,yellow,square
0.0,3.0,3.0,0.0,5.0,5.0,1015.0571209996997,5.0,1.0,phase_2,go,500.0,350.0,1.0,,,,,,,,,magenta,triangle
0.0,8.0,4.0,1.0,5.0,5.0,857.2150170002715,5.0,1.0,phase_2,go,500.0,350.0,1.0,,,,,,,,,cyan,hexagon
0.0,2.0,2.0,0.0,6.0,6.0,463.0161079999197,5.0,1.0,phase_2,go,500.0,350.0,1.0,,,,,,,,,green,circle
0.0,6.0,2.0,1.0,6.0,0.0,0.0,5.0,1.0,phase_2,stop,500.0,350.0,4.0,,,,,,,,,blue,I
0.0,2.0,2.0,0.0,6.0,6.0,639.5074410002053,5.0,1.0,phase_2,go,500.0,400.0,1.0,,,,,,,,,green,circle
0.0,8.0,4.0,1.0,5.0,5.0,932.6522219998878,5.0,1.0,phase_2,go,500.0,400.0,1.0,,,,,,,,,cyan,hexagon
0.0,6.0,2.0,1.0,6.0,0.0,0.0,6.0,1.0,phase_2,stop,500.0,400.0,4.0,,,,,,,,,blue,I
0.0,5.0,1.0,1.0,6.0,6.0,312.8409589999137,6.0,1.0,phase_2,go,500.0,450.0,1.0,,,,,,,,,gray,cross
0.0,6.0,2.0,1.0,6.0,6.0,575.834520999706,6.0,1.0,phase_2,stop,500.0,450.0,3.0,,,,,,,,,blue,I
0.0,4.0,4.0,0.0,6.0,6.0,652.1061439998448,6.0,1.0,phase_2,go,500.0,400.0,1.0,,,,,,,,,yellow,square
0.0,7.0,3.0,1.0,5.0,5.0,534.8763920001147,6.0,1.0,phase_2,stop,500.0,400.0,3.0,,,,,,,,,white,diamond
0.0,2.0,2.0,0.0,5.0,5.0,614.3981530003657,6.0,1.0,phase_2,go,450.0,400.0,1.0,,,,,,,,,green,circle
0.0,1.0,1.0,0.0,5.0,5.0,867.9682330002834,6.0,1.0,phase_2,go,450.0,400.0,1.0,,,,,,,,,orange,flipped triangle
0.0,7.0,3.0,1.0,5.0,0.0,0.0,6.0,1.0,phase_2,stop,450.0,400.0,4.0,,,,,,,,,white,diamond
0.0,4.0,4.0,0.0,5.0,5.0,299.9036450000858,6.0,1.0,phase_2,go,500.0,400.0,1.0,,,,,,,,,yellow,square
0.0,4.0,4.0,0.0,6.0,6.0,557.4297170005593,6.0,1.0,phase_2,go,500.0,400.0,1.0,,,,,,,,,yellow,square
0.0,7.0,3.0,1.0,5.0,5.0,617.6294819997565,6.0,1.0,phase_2,go,500.0,400.0,1.0,,,,,,,,,white,diamond
0.0,8.0,4.0,1.0,5.0,5.0,551.1856459997944,6.0,1.0,phase_2,stop,500.0,400.0,3.0,,,,,,,,,cyan,hexagon
0.0,7.0,3.0,1.0,6.0,0.0,0.0,6.0,1.0,phase_2,stop,450.0,400.0,4.0,,,,,,,,,white,diamond
0.0,8.0,4.0,1.0,6.0,0.0,0.0,6.0,1.0,phase_2,stop,450.0,450.0,4.0,,,,,,,,,cyan,hexagon
0.0,8.0,4.0,1.0,5.0,5.0,641.1282660001234,6.0,1.0,phase_2,go,450.0,500.0,1.0,,,,,,,,,cyan,hexagon
0.0,3.0,3.0,0.0,5.0,5.0,822.0569109998905,6.0,1.0,phase_2,go,450.0,500.0,1.0,,,,,,,,,magenta,triangle
0.0,5.0,1.0,1.0,6.0,6.0,307.9266309996455,6.0,1.0,phase_2,stop,450.0,500.0,3.0,,,,,,,,,gray,cross
0.0,3.0,3.0,0.0,6.0,6.0,474.9887759999183,6.0,1.0,phase_2,go,450.0,450.0,1.0,,,,,,,,,magenta,triangle
0.0,3.0,3.0,0.0,5.0,5.0,647.2575909992884,6.0,1.0,phase_2,go,450.0,450.0,1.0,,,,,,,,,magenta,triangle
0.0,1.0,1.0,0.0,5.0,5.0,526.8623880001542,6.0,1.0,phase_2,go,450.0,450.0,1.0,,,,,,,,,orange,flipped triangle
0.0,4.0,4.0,0.0,6.0,6.0,499.5644390000961,6.0,1.0,phase_2,go,450.0,450.0,1.0,,,,,,,,,yellow,square
0.0,6.0,2.0,1.0,5.0,0.0,0.0,6.0,1.0,phase_2,stop,450.0,450.0,4.0,,,,,,,,,blue,I
0.0,4.0,4.0,0.0,5.0,5.0,596.0162390001642,6.0,1.0,phase_2,go,500.0,450.0,1.0,,,,,,,,,yellow,square
0.0,1.0,1.0,0.0,6.0,6.0,632.0040269993115,6.0,1.0,phase_2,go,500.0,450.0,1.0,,,,,,,,,orange,flipped triangle
0.0,2.0,2.0,0.0,5.0,5.0,552.1620819999953,6.0,1.0,phase_2,go,500.0,450.0,1.0,,,,,,,,,green,circle
0.0,4.0,4.0,0.0,6.0,6.0,565.1389269996798,6.0,1.0,phase_2,go,500.0,450.0,1.0,,,,,,,,,yellow,square
0.0,6.0,2.0,1.0,6.0,6.0,249.0396729999702,6.0,1.0,phase_2,go,500.0,450.0,1.0,,,,,,,,,blue,I
0.0,5.0,1.0,1.0,5.0,5.0,557.4210889999449,6.0,1.0,phase_2,stop,500.0,450.0,3.0,,,,,,,,,gray,cross
0.0,8.0,4.0,1.0,5.0,5.0,424.9875420000535,6.0,1.0,phase_2,stop,450.0,450.0,3.0,,,,,,,,,cyan,hexagon
0.0,4.0,4.0,0.0,5.0,5.0,761.0831130004954,6.0,1.0,phase_2,go,400.0,450.0,1.0,,,,,,,,,yellow,square
0.0,1.0,1.0,0.0,5.0,5.0,693.8727050001035,6.0,1.0,phase_2,go,400.0,450.0,1.0,,,,,,,,,orange,flipped triangle
0.0,3.0,3.0,0.0,5.0,5.0,794.279951000135,6.0,1.0,phase_2,go,400.0,450.0,1.0,,,,,,,,,magenta,triangle
0.0,8.0,4.0,1.0,5.0,0.0,0.0,6.0,1.0,phase_2,stop,400.0,450.0,4.0,,,,,,,,,cyan,hexagon
0.0,6.0,2.0,1.0,6.0,0.0,0.0,6.0,1.0,phase_2,stop,450.0,450.0,4.0,,,,,,,,,blue,I
0.0,7.0,3.0,1.0,6.0,6.0,663.1014929998855,6.0,1.0,phase_2,stop,450.0,500.0,3.0,,,,,,,,,white,diamond
0.0,3.0,3.0,0.0,6.0,6.0,667.66493599971,6.0,1.0,phase_2,go,450.0,450.0,1.0,,,,,,,,,magenta,triangle
0.0,4.0,4.0,0.0,6.0,6.0,534.1831189998629,7.0,1.0,phase_2,go,450.0,450.0,1.0,,,,,,,,,yellow,square
0.0,5.0,1.0,1.0,5.0,5.0,597.4195609996968,7.0,1.0,phase_2,stop,450.0,450.0,3.0,,,,,,,,,gray,cross
0.0,2.0,2.0,0.0,6.0,6.0,560.4126070002167,7.0,1.0,phase_2,go,400.0,450.0,1.0,,,,,,,,,green,circle
0.0,2.0,2.0,0.0,6.0,6.0,628.8181970003279,7.0,1.0,phase_2,go,400.0,450.0,1.0,,,,,,,,,green,circle
0.0,8.0,4.0,1.0,6.0,6.0,698.1368960005057,7.0,1.0,phase_2,go,400.0,450.0,1.0,,,,,,,,,cyan,hexagon
0.0,1.0,1.0,0.0,6.0,6.0,555.6156930006182,7.0,1.0,phase_2,go,400.0,450.0,1.0,,,,,,,,,orange,flipped triangle
0.0,1.0,1.0,0.0,5.0,5.0,670.4243129997849,7.0,1.0,phase_2,go,400.0,450.0,1.0,,,,,,,,,orange,flipped triangle
0.0,2.0,2.0,0.0,5.0,5.0,573.6099890000332,7.0,1.0,phase_2,go,400.0,450.0,1.0,,,,,,,,,green,circle
0.0,6.0,2.0,1.0,6.0,6.0,572.5774930006082,7.0,1.0,phase_2,stop,400.0,450.0,3.0,,,,,,,,,blue,I
0.0,2.0,2.0,0.0,5.0,5.0,605.1142489995982,7.0,1.0,phase_2,go,400.0,400.0,1.0,,,,,,,,,green,circle
0.0,1.0,1.0,0.0,5.0,5.0,588.2934530000057,7.0,1.0,phase_2,go,400.0,400.0,1.0,,,,,,,,,orange,flipped triangle
0.0,6.0,2.0,1.0,5.0,0.0,0.0,7.0,1.0,phase_2,stop,400.0,400.0,4.0,,,,,,,,,blue,I
0.0,4.0,4.0,0.0,5.0,5.0,643.7646180002048,7.0,1.0,phase_2,go,450.0,400.0,1.0,,,,,,,,,yellow,square
0.0,2.0,2.0,0.0,5.0,5.0,593.0649749998338,7.0,1.0,phase_2,go,450.0,400.0,1.0,,,,,,,,,green,circle
0.0,3.0,3.0,0.0,5.0,5.0,543.3149489999778,7.0,1.0,phase_2,go,450.0,400.0,1.0,,,,,,,,,magenta,triangle
0.0,3.0,3.0,0.0,5.0,5.0,613.5593830003927,7.0,1.0,phase_2,go,450.0,400.0,1.0,,,,,,,,,magenta,triangle
0.0,8.0,4.0,1.0,6.0,0.0,0.0,7.0,1.0,phase_2,stop,450.0,400.0,4.0,,,,,,,,,cyan,hexagon
0.0,6.0,2.0,1.0,5.0,0.0,0.0,7.0,1.0,phase_2,stop,450.0,450.0,4.0,,,,,,,,,blue,I
0.0,4.0,4.0,0.0,6.0,6.0,473.3005199996114,7.0,1.0,phase_2,go,500.0,450.0,1.0,,,,,,,,,yellow,square
0.0,6.0,2.0,1.0,6.0,6.0,712.9437740004505,7.0,1.0,phase_2,go,500.0,450.0,1.0,,,,,,,,,blue,I
0.0,8.0,4.0,1.0,5.0,5.0,557.9012179996425,7.0,1.0,phase_2,stop,500.0,450.0,3.0,,,,,,,,,cyan,hexagon
0.0,7.0,3.0,1.0,5.0,5.0,590.3491669996583,7.0,1.0,phase_2,go,450.0,450.0,1.0,,,,,,,,,white,diamond
0.0,4.0,4.0,0.0,6.0,6.0,511.1781499999779,7.0,1.0,phase_2,go,450.0,450.0,1.0,,,,,,,,,yellow,square
0.0,8.0,4.0,1.0,6.0,6.0,510.879708000175,7.0,1.0,phase_2,stop,450.0,450.0,3.0,,,,,,,,,cyan,hexagon
0.0,5.0,1.0,1.0,6.0,0.0,0.0,7.0,1.0,phase_2,stop,450.0,400.0,4.0,,,,,,,,,gray,cross
0.0,2.0,2.0,0.0,6.0,6.0,603.477801999361,7.0,1.0,phase_2,go,450.0,450.0,1.0,,,,,,,,,green,circle
0.0,7.0,3.0,1.0,6.0,6.0,562.7286199996888,7.0,1.0,phase_2,go,450.0,450.0,1.0,,,,,,,,,white,diamond
0.0,5.0,1.0,1.0,5.0,5.0,636.6386169993348,7.0,1.0,phase_2,go,450.0,450.0,1.0,,,,,,,,,gray,cross
0.0,3.0,3.0,0.0,6.0,6.0,486.166208999748,7.0,1.0,phase_2,go,450.0,450.0,1.0,,,,,,,,,magenta,triangle
0.0,6.0,2.0,1.0,5.0,5.0,619.7964339999089,7.0,1.0,phase_2,go,450.0,450.0,1.0,,,,,,,,,blue,I
0.0,1.0,1.0,0.0,6.0,6.0,353.1166860002486,7.0,1.0,phase_2,go,450.0,450.0,1.0,,,,,,,,,orange,flipped triangle
0.0,5.0,1.0,1.0,5.0,5.0,488.0710369998269,7.0,1.0,phase_2,stop,450.0,450.0,3.0,,,,,,,,,gray,cross
0.0,7.0,3.0,1.0,5.0,0.0,0.0,7.0,1.0,phase_2,stop,400.0,450.0,4.0,,,,,,,,,white,diamond
0.0,2.0,2.0,0.0,5.0,5.0,575.5201380006838,7.0,1.0,phase_2,go,450.0,450.0,1.0,,,,,,,,,green,circle
0.0,1.0,1.0,0.0,6.0,6.0,585.1513640000121,7.0,1.0,phase_2,go,450.0,450.0,1.0,,,,,,,,,orange,flipped triangle
0.0,3.0,3.0,0.0,5.0,5.0,692.4695560001055,7.0,1.0,phase_2,go,450.0,450.0,1.0,,,,,,,,,magenta,triangle
0.0,6.0,2.0,1.0,5.0,5.0,366.8290579998938,8.0,1.0,phase_2,stop,450.0,450.0,3.0,,,,,,,,,blue,I
0.0,6.0,2.0,1.0,5.0,5.0,584.1245869996783,8.0,1.0,phase_2,stop,400.0,450.0,3.0,,,,,,,,,blue,I
0.0,1.0,1.0,0.0,5.0,5.0,355.8799659995202,8.0,1.0,phase_2,go,350.0,450.0,1.0,,,,,,,,,orange,flipped triangle
0.0,4.0,4.0,0.0,5.0,5.0,660.8452549999129,8.0,1.0,phase_2,go,350.0,450.0,1.0,,,,,,,,,yellow,square
0.0,7.0,3.0,1.0,6.0,0.0,0.0,8.0,1.0,phase_2,stop,350.0,450.0,4.0,,,,,,,,,white,diamond
0.0,6.0,2.0,1.0,6.0,6.0,608.799966999868,8.0,1.0,phase_2,stop,350.0,500.0,3.0,,,,,,,,,blue,I
0.0,2.0,2.0,0.0,6.0,6.0,631.6653720004979,8.0,1.0,phase_2,go,350.0,450.0,1.0,,,,,,,,,green,circle
0.0,2.0,2.0,0.0,6.0,6.0,612.6006280001093,8.0,1.0,phase_2,go,350.0,450.0,1.0,,,,,,,,,green,circle
0.0,7.0,3.0,1.0,6.0,6.0,685.6044249998376,8.0,1.0,phase_2,stop,350.0,450.0,3.0,,,,,,,,,white,diamond
0.0,5.0,1.0,1.0,5.0,5.0,655.8316459995694,8.0,1.0,phase_2,go,350.0,400.0,1.0,,,,,,,,,gray,cross
0.0,5.0,1.0,1.0,5.0,0.0,0.0,8.0,1.0,phase_2,stop,350.0,400.0,4.0,,,,,,,,,gray,cross
0.0,2.0,2.0,0.0,6.0,6.0,585.8060229993498,8.0,1.0,phase_2,go,400.0,400.0,1.0,,,,,,,,,green,circle
0.0,7.0,3.0,1.0,6.0,0.0,0.0,8.0,1.0,phase_2,stop,400.0,400.0,4.0,,,,,,,,,white,diamond
0.0,1.0,1.0,0.0,6.0,6.0,665.1429100002133,8.0,1.0,phase_2,go,400.0,450.0,1.0,,,,,,,,,orange,flipped triangle
0.0,6.0,2.0,1.0,5.0,0.0,0.0,8.0,1.0,phase_2,stop,400.0,450.0,4.0,,,,,,,,,blue,I
0.0,5.0,1.0,1.0,6.0,6.0,617.6262259996292,8.0,1.0,phase_2,stop,450.0,450.0,3.0,,,,,,,,,gray,cross
0.0,4.0,4.0,0.0,6.0,6.0,708.1208290001086,8.0,1.0,phase_2,go,450.0,400.0,1.0,,,,,,,,,yellow,square
0.0,1.0,1.0,0.0,6.0,6.0,628.6928560002707,8.0,1.0,phase_2,go,450.0,400.0,1.0,,,,,,,,,orange,flipped triangle
0.0,8.0,4.0,1.0,6.0,6.0,539.2499950003184,8.0,1.0,phase_2,stop,450.0,400.0,3.0,,,,,,,,,cyan,hexagon
0.0,2.0,2.0,0.0,6.0,6.0,608.6322680002922,8.0,1.0,phase_2,go,450.0,350.0,1.0,,,,,,,,,green,circle
0.0,4.0,4.0,0.0,5.0,5.0,608.3101109998097,8.0,1.0,phase_2,go,450.0,350.0,1.0,,,,,,,,,yellow,square
0.0,8.0,4.0,1.0,6.0,0.0,0.0,8.0,1.0,phase_2,stop,450.0,350.0,4.0,,,,,,,,,cyan,hexagon
0.0,2.0,2.0,0.0,6.0,6.0,802.896893000252,8.0,1.0,phase_2,go,450.0,400.0,1.0,,,,,,,,,green,circle
0.0,6.0,2.0,1.0,6.0,0.0,0.0,8.0,1.0,phase_2,stop,450.0,400.0,4.0,,,,,,,,,blue,I
0.0,4.0,4.0,0.0,6.0,6.0,752.2243100002015,8.0,1.0,phase_2,go,450.0,450.0,1.0,,,,,,,,,yellow,square
0.0,8.0,4.0,1.0,5.0,5.0,489.8205339995911,8.0,1.0,phase_2,stop,450.0,450.0,3.0,,,,,,,,,cyan,hexagon
0.0,8.0,4.0,1.0,6.0,6.0,779.3533679996472,8.0,1.0,phase_2,go,400.0,450.0,1.0,,,,,,,,,cyan,hexagon
0.0,7.0,3.0,1.0,6.0,6.0,722.4001800004771,8.0,1.0,phase_2,stop,400.0,450.0,3.0,,,,,,,,,white,diamond
0.0,1.0,1.0,0.0,6.0,6.0,641.4931700001034,8.0,1.0,phase_2,go,400.0,400.0,1.0,,,,,,,,,orange,flipped triangle
0.0,8.0,4.0,1.0,6.0,0.0,0.0,8.0,1.0,phase_2,stop,400.0,400.0,4.0,,,,,,,,,cyan,hexagon
0.0,2.0,2.0,0.0,5.0,5.0,440.8102349998444,8.0,1.0,phase_2,go,400.0,450.0,1.0,,,,,,,,,green,circle
0.0,1.0,1.0,0.0,5.0,5.0,705.8796589999474,8.0,1.0,phase_2,go,400.0,450.0,1.0,,,,,,,,,orange,flipped triangle
0.0,3.0,3.0,0.0,5.0,5.0,839.3450849998771,8.0,1.0,phase_2,go,400.0,450.0,1.0,,,,,,,,,magenta,triangle
0.0,2.0,2.0,0.0,6.0,6.0,592.4541819995284,8.0,1.0,phase_2,go,400.0,450.0,1.0,,,,,,,,,green,circle
0.0,8.0,4.0,1.0,5.0,5.0,553.0384280000362,8.0,1.0,phase_2,go,400.0,450.0,1.0,,,,,,,,,cyan,hexagon
0.0,8.0,4.0,1.0,6.0,0.0,0.0,8.0,1.0,phase_2,stop,400.0,450.0,4.0,,,,,,,,,cyan,hexagon
0.0,7.0,3.0,1.0,7.0,4.0,4948.37095999992,1.0,1.0,phase_3,,,,,156.0,4.0,117.0,39.0,234.0,156.0,78.0,195.0,white,diamond
0.0,4.0,4.0,0.0,7.0,5.0,3985.961381999914,1.0,1.0,phase_3,,,,,294.0,6.0,196.0,49.0,245.0,147.0,294.0,98.0,yellow,square
0.0,3.0,3.0,0.0,7.0,2.0,1994.661507999808,1.0,2.0,phase_3,,,,,220.0,5.0,88.0,220.0,44.0,176.0,264.0,132.0,magenta,triangle
0.0,1.0,1.0,0.0,7.0,3.0,1739.6622189999107,1.0,1.0,phase_3,,,,,88.0,2.0,176.0,44.0,88.0,132.0,264.0,220.0,orange,flipped triangle
0.0,3.0,3.0,0.0,7.0,6.0,3052.061290999518,1.0,1.0,phase_3,,,,,195.0,5.0,156.0,78.0,39.0,117.0,234.0,195.0,magenta,triangle
0.0,8.0,4.0,1.0,7.0,5.0,1749.220669999886,1.0,1.0,phase_3,,,,,132.0,3.0,220.0,44.0,88.0,264.0,132.0,176.0,cyan,hexagon
0.0,3.0,3.0,0.0,7.0,6.0,2793.400370999734,1.0,1.0,phase_3,,,,,324.0,6.0,216.0,108.0,162.0,54.0,270.0,324.0,magenta,triangle
0.0,4.0,4.0,0.0,7.0,2.0,1895.9193890004824,1.0,1.0,phase_3,,,,,156.0,4.0,39.0,156.0,195.0,78.0,117.0,234.0,yellow,square
0.0,1.0,1.0,0.0,7.0,1.0,2272.788201000367,1.0,1.0,phase_3,,,,,294.0,6.0,294.0,98.0,147.0,49.0,196.0,245.0,orange,flipped triangle
0.0,7.0,3.0,1.0,7.0,3.0,2756.167057000312,1.0,1.0,phase_3,,,,,156.0,4.0,78.0,117.0,156.0,195.0,39.0,234.0,white,diamond
0.0,1.0,1.0,0.0,7.0,4.0,2965.731751000021,1.0,1.0,phase_3,,,,,147.0,3.0,294.0,196.0,245.0,147.0,98.0,49.0,orange,flipped triangle
0.0,1.0,1.0,0.0,7.0,2.0,2923.5331959998803,1.0,1.0,phase_3,,,,,156.0,4.0,39.0,156.0,117.0,195.0,234.0,78.0,orange,flipped triangle
0.0,4.0,4.0,0.0,7.0,5.0,2156.585558000188,1.0,1.0,phase_3,,,,,176.0,4.0,44.0,132.0,88.0,264.0,176.0,220.0,yellow,square
0.0,5.0,1.0,1.0,7.0,2.0,2745.1086669998404,1.0,1.0,phase_3,,,,,294.0,6.0,245.0,294.0,196.0,147.0,49.0,98.0,gray,cross
0.0,6.0,2.0,1.0,7.0,5.0,1760.0425649998217,1.0,1.0,phase_3,,,,,49.0,1.0,245.0,147.0,98.0,294.0,49.0,196.0,blue,I
0.0,8.0,4.0,1.0,7.0,2.0,1619.7103679996872,1.0,1.0,phase_3,,,,,162.0,3.0,270.0,162.0,216.0,54.0,108.0,324.0,cyan,hexagon
0.0,6.0,2.0,1.0,7.0,4.0,1312.4570039999526,1.0,1.0,phase_3,,,,,170.0,5.0,136.0,204.0,34.0,170.0,68.0,102.0,blue,I
0.0,8.0,4.0,1.0,7.0,1.0,2359.6312660001786,1.0,1.0,phase_3,,,,,34.0,1.0,34.0,102.0,170.0,68.0,204.0,136.0,cyan,hexagon
0.0,5.0,1.0,1.0,7.0,3.0,2275.141774000076,1.0,1.0,phase_3,,,,,264.0,6.0,220.0,88.0,264.0,176.0,132.0,44.0,gray,cross
0.0,1.0,1.0,0.0,7.0,6.0,1694.3105000000287,1.0,1.0,phase_3,,,,,162.0,3.0,270.0,216.0,108.0,324.0,54.0,162.0,orange,flipped triangle
0.0,4.0,4.0,0.0,7.0,1.0,1796.2989369998468,2.0,1.0,phase_3,,,,,54.0,1.0,54.0,324.0,216.0,162.0,108.0,270.0,yellow,square
0.0,2.0,2.0,0.0,7.0,3.0,2214.36727299988,2.0,1.0,phase_3,,,,,147.0,3.0,98.0,49.0,147.0,196.0,294.0,245.0,green,circle
0.0,6.0,2.0,1.0,7.0,1.0,3346.934684000189,2.0,1.0,phase_3,,,,,270.0,5.0,270.0,54.0,324.0,216.0,162.0,108.0,blue,I
0.0,2.0,2.0,0.0,7.0,6.0,1526.9515930003763,2.0,1.0,phase_3,,,,,78.0,2.0,156.0,117.0,39.0,234.0,195.0,78.0,green,circle
0.0,6.0,2.0,1.0,7.0,2.0,2196.986926000136,2.0,1.0,phase_3,,,,,270.0,5.0,108.0,270.0,162.0,54.0,216.0,324.0,blue,I
0.0,8.0,4.0,1.0,7.0,5.0,3852.818330999981,2.0,1.0,phase_3,,,,,196.0,4.0,147.0,294.0,98.0,245.0,196.0,49.0,cyan,hexagon
0.0,3.0,3.0,0.0,7.0,5.0,2773.6394499997914,2.0,1.0,phase_3,,,,,108.0,2.0,54.0,270.0,324.0,216.0,108.0,162.0,magenta,triangle
0.0,1.0,1.0,0.0,7.0,2.0,3622.943760999988,2.0,1.0,phase_3,,,,,117.0,3.0,195.0,117.0,156.0,78.0,39.0,234.0,orange,flipped triangle
0.0,5.0,1.0,1.0,7.0,5.0,2178.780022000865,2.0,1.0,phase_3,,,,,234.0,6.0,78.0,195.0,156.0,39.0,234.0,117.0,gray,cross
0.0,7.0,3.0,1.0,7.0,3.0,1031.5449580002678,2.0,1.0,phase_3,,,,,102.0,3.0,136.0,34.0,102.0,170.0,204.0,68.0,white,diamond
0.0,5.0,1.0,1.0,7.0,1.0,1991.7610309994416,2.0,1.0,phase_3,,,,,216.0,4.0,216.0,162.0,270.0,54.0,324.0,108.0,gray,cross
0.0,3.0,3.0,0.0,7.0,5.0,2613.396266000564,2.0,1.0,phase_3,,,,,68.0,2.0,102.0,170.0,34.0,136.0,68.0,204.0,magenta,triangle
0.0,1.0,1.0,0.0,7.0,3.0,2582.293717000539,2.0,1.0,phase_3,,,,,108.0,2.0,216.0,324.0,108.0,54.0,270.0,162.0,orange,flipped triangle
0.0,2.0,2.0,0.0,7.0,5.0,3394.341223999618,2.0,1.0,phase_3,,,,,176.0,4.0,132.0,44.0,264.0,220.0,176.0,88.0,green,circle
0.0,6.0,2.0,1.0,7.0,3.0,1806.4685889994507,2.0,1.0,phase_3,,,,,78.0,2.0,234.0,117.0,78.0,39.0,195.0,156.0,blue,I
0.0,5.0,1.0,1.0,7.0,4.0,2047.0961179998994,2.0,1.0,phase_3,,,,,234.0,6.0,156.0,78.0,117.0,234.0,39.0,195.0,gray,cross
0.0,8.0,4.0,1.0,7.0,4.0,3785.463797000375,2.0,1.0,phase_3,,,,,78.0,2.0,195.0,156.0,117.0,78.0,234.0,39.0,cyan,hexagon
0.0,6.0,2.0,1.0,7.0,5.0,2304.305428000589,2.0,1.0,phase_3,,,,,195.0,5.0,78.0,156.0,117.0,39.0,195.0,234.0,blue,I
0.0,6.0,2.0,1.0,7.0,3.0,2060.870590999912,2.0,1.0,phase_3,,,,,147.0,3.0,49.0,294.0,147.0,196.0,245.0,98.0,blue,I
0.0,8.0,4.0,1.0,7.0,6.0,1549.169887000062,2.0,1.0,phase_3,,,,,54.0,1.0,108.0,162.0,216.0,270.0,324.0,54.0,cyan,hexagon
0.0,7.0,3.0,1.0,7.0,5.0,1046.1257010001646,3.0,1.0,phase_3,,,,,270.0,5.0,162.0,324.0,216.0,54.0,270.0,108.0,white,diamond
0.0,7.0,3.0,1.0,7.0,1.0,1859.310171999823,3.0,1.0,phase_3,,,,,176.0,4.0,176.0,264.0,88.0,132.0,44.0,220.0,white,diamond
0.0,4.0,4.0,0.0,7.0,6.0,1091.3493879997986,3.0,1.0,phase_3,,,,,102.0,3.0,68.0,34.0,136.0,204.0,170.0,102.0,yellow,square
0.0,2.0,2.0,0.0,7.0,1.0,1848.8013229998612,3.0,1.0,phase_3,,,,,78.0,2.0,78.0,195.0,39.0,156.0,117.0,234.0,green,circle
0.0,4.0,4.0,0.0,7.0,5.0,1389.19510300002,3.0,1.0,phase_3,,,,,102.0,3.0,170.0,68.0,34.0,204.0,102.0,136.0,yellow,square
0.0,7.0,3.0,1.0,7.0,3.0,1301.2629269996978,3.0,1.0,phase_3,,,,,49.0,1.0,196.0,294.0,49.0,245.0,147.0,98.0,white,diamond
0.0,3.0,3.0,0.0,7.0,1.0,3085.819120000451,3.0,1.0,phase_3,,,,,204.0,6.0,204.0,102.0,170.0,34.0,68.0,136.0,magenta,triangle
0.0,2.0,2.0,0.0,7.0,6.0,1851.5023319996544,3.0,1.0,phase_3,,,,,49.0,1.0,245.0,294.0,196.0,98.0,147.0,49.0,green,circle
0.0,8.0,4.0,1.0,7.0,5.0,4681.392933000097,3.0,1.0,phase_3,,,,,39.0,1.0,195.0,234.0,117.0,156.0,39.0,78.0,cyan,hexagon
0.0,7.0,3.0,1.0,7.0,2.0,4057.551846000024,3.0,1.0,phase_3,,,,,68.0,2.0,136.0,68.0,34.0,204.0,170.0,102.0,white,diamond
0.0,4.0,4.0,0.0,7.0,4.0,2067.877213999964,3.0,1.0,phase_3,,,,,216.0,4.0,324.0,162.0,270.0,216.0,54.0,108.0,yellow,square
0.0,3.0,3.0,0.0,7.0,6.0,1099.0135939991887,3.0,1.0,phase_3,,,,,156.0,4.0,78.0,234.0,117.0,39.0,195.0,156.0,magenta,triangle
0.0,6.0,2.0,1.0,7.0,5.0,2251.0664219998944,3.0,1.0,phase_3,,,,,170.0,5.0,136.0,102.0,34.0,68.0,170.0,204.0,blue,I
0.0,6.0,2.0,1.0,7.0,4.0,2772.333982999953,3.0,1.0,phase_3,,,,,176.0,4.0,44.0,132.0,264.0,176.0,88.0,220.0,blue,I
0.0,6.0,2.0,1.0,7.0,2.0,2314.1346540005543,3.0,1.0,phase_3,,,,,176.0,4.0,132.0,176.0,264.0,220.0,88.0,44.0,blue,I
0.0,5.0,1.0,1.0,7.0,2.0,3826.06111899986,3.0,1.0,phase_3,,,,,220.0,5.0,44.0,220.0,88.0,176.0,264.0,132.0,gray,cross
0.0,4.0,4.0,0.0,7.0,6.0,1221.0464850004428,3.0,1.0,phase_3,,,,,132.0,3.0,264.0,88.0,44.0,176.0,220.0,132.0,yellow,square
0.0,3.0,3.0,0.0,7.0,2.0,3109.5046159998674,3.0,1.0,phase_3,,,,,49.0,1.0,196.0,49.0,147.0,245.0,294.0,98.0,magenta,triangle
0.0,4.0,4.0,0.0,7.0,2.0,2309.0641139997388,3.0,1.0,phase_3,,,,,49.0,1.0,245.0,49.0,196.0,147.0,294.0,98.0,yellow,square
0.0,8.0,4.0,1.0,7.0,6.0,1537.1747980007058,3.0,1.0,phase_3,,,,,49.0,1.0,98.0,147.0,245.0,196.0,294.0,49.0,cyan,hexagon
0.0,2.0,2.0,0.0,7.0,4.0,1745.6955890002064,4.0,1.0,phase_3,,,,,54.0,1.0,324.0,162.0,108.0,54.0,270.0,216.0,green,circle
0.0,2.0,2.0,0.0,7.0,6.0,1377.1407850008472,4.0,1.0,phase_3,,,,,170.0,5.0,136.0,34.0,204.0,68.0,102.0,170.0,green,circle
0.0,7.0,3.0,1.0,7.0,4.0,2121.3077869997505,4.0,1.0,phase_3,,,,,196.0,4.0,294.0,147.0,98.0,196.0,49.0,245.0,white,diamond
0.0,8.0,4.0,1.0,7.0,2.0,593.4500080002181,4.0,1.0,phase_3,,,,,176.0,4.0,220.0,176.0,44.0,132.0,264.0,88.0,cyan,hexagon
0.0,4.0,4.0,0.0,7.0,1.0,2190.031074999752,4.0,1.0,phase_3,,,,,234.0,6.0,234.0,117.0,195.0,156.0,39.0,78.0,yellow,square
0.0,1.0,1.0,0.0,7.0,3.0,2576.0345279995818,4.0,1.0,phase_3,,,,,102.0,3.0,136.0,34.0,102.0,204.0,68.0,170.0,orange,flipped triangle
0.0,8.0,4.0,1.0,7.0,5.0,1259.0111710005658,4.0,1.0,phase_3,,,,,34.0,1.0,102.0,170.0,204.0,136.0,34.0,68.0,cyan,hexagon
0.0,5.0,1.0,1.0,7.0,4.0,4062.155368000276,4.0,1.0,phase_3,,,,,245.0,5.0,294.0,49.0,147.0,245.0,196.0,98.0,gray,cross
0.0,2.0,2.0,0.0,7.0,2.0,4352.765587000249,4.0,1.0,phase_3,,,,,324.0,6.0,108.0,324.0,54.0,216.0,270.0,162.0,green,circle
0.0,2.0,2.0,0.0,7.0,3.0,274.6120749998226,4.0,2.0,phase_3,,,,,132.0,3.0,264.0,44.0,132.0,220.0,88.0,176.0,green,circle
0.0,5.0,1.0,1.0,7.0,2.0,2685.805571999481,4.0,1.0,phase_3,,,,,270.0,5.0,162.0,270.0,54.0,108.0,324.0,216.0,gray,cross
0.0,5.0,1.0,1.0,7.0,2.0,2955.3707269997176,4.0,1.0,phase_3,,,,,68.0,2.0,136.0,68.0,102.0,204.0,34.0,170.0,gray,cross
0.0,3.0,3.0,0.0,7.0,5.0,1826.391747999878,4.0,1.0,phase_3,,,,,264.0,6.0,176.0,44.0,88.0,220.0,264.0,132.0,magenta,triangle
0.0,2.0,2.0,0.0,7.0,3.0,2739.294463999613,4.0,1.0,phase_3,,,,,34.0,1.0,102.0,68.0,34.0,170.0,204.0,136.0,green,circle
0.0,7.0,3.0,1.0,7.0,5.0,1581.181024999751,4.0,1.0,phase_3,,,,,220.0,5.0,88.0,264.0,132.0,176.0,220.0,44.0,white,diamond
0.0,7.0,3.0,1.0,7.0,2.0,2401.435976000357,4.0,1.0,phase_3,,,,,270.0,5.0,216.0,270.0,162.0,108.0,324.0,54.0,white,diamond
0.0,1.0,1.0,0.0,7.0,1.0,1369.8042919995714,4.0,1.0,phase_3,,,,,170.0,5.0,170.0,102.0,68.0,136.0,204.0,34.0,orange,flipped triangle
0.0,1.0,1.0,0.0,7.0,6.0,757.510717000514,4.0,1.0,phase_3,,,,,176.0,4.0,132.0,44.0,88.0,264.0,220.0,176.0,orange,flipped triangle
0.0,5.0,1.0,1.0,7.0,3.0,4207.0185019993005,4.0,1.0,phase_3,,,,,204.0,6.0,68.0,102.0,204.0,170.0,136.0,34.0,gray,cross
0.0,3.0,3.0,0.0,7.0,5.0,2800.154341999587,4.0,1.0,phase_3,,,,,294.0,6.0,245.0,98.0,147.0,196.0,294.0,49.0,magenta,triangle
