raw_reward_magnitude,stim_reward,stepwise_reward_magnitude,paired_with_stopping,stim_location,response,reaction_time,block,num_trial_presentations,which_phase,stop_signal_trial_type,left_SSD,right_SSD,accuracy,chosen_bidding_amount,chosen_bidding_level,possible_bid_1,possible_bid_2,possible_bid_3,possible_bid_4,possible_bid_5,possible_bid_6,color_text,shape_text
415.0,8.0,4.0,1.0,3.0,3.0,643.5338579999552,1.0,1.0,phase_1,,,,,,,,,,,,,cyan,square
0.0,8.0,0.0,1.0,3.0,3.0,444.9744070002452,1.0,1.0,phase_1,,,,,,,,,,,,,cyan,square
0.0,6.0,0.0,1.0,2.0,2.0,339.030035000178,1.0,1.0,phase_1,,,,,,,,,,,,,magenta,I
409.0,8.0,4.0,1.0,2.0,2.0,462.0912209998096,1.0,1.0,phase_1,,,,,,,,,,,,,cyan,square
403.0,4.0,4.0,0.0,3.0,3.0,411.6228329999103,1.0,1.0,phase_1,,,,,,,,,,,,,green,hexagon
34.0,5.0,0.5,1.0,1.0,1.0,277.9597089997878,1.0,1.0,phase_1,,,,,,,,,,,,,blue,circle
390.0,8.0,4.0,1.0,4.0,4.0,295.2561080001032,1.0,1.0,phase_1,,,,,,,,,,,,,cyan,square
198.0,7.0,2.0,1.0,2.0,2.0,274.4842459997016,1.0,1.0,phase_1,,,,,,,,,,,,,white,flipped triangle
0.0,8.0,0.0,1.0,1.0,1.0,264.9605589999737,1.0,1.0,phase_1,,,,,,,,,,,,,cyan,square
26.0,1.0,0.5,0.0,4.0,4.0,324.382302000231,1.0,1.0,phase_1,,,,,,,,,,,,,orange,diamond
0.0,7.0,0.0,1.0,3.0,3.0,366.9664320000265,1.0,2.0,phase_1,,,,,,,,,,,,,white,flipped triangle
63.0,5.0,0.5,1.0,2.0,2.0,406.6402070002368,1.0,1.0,phase_1,,,,,,,,,,,,,blue,circle
408.0,4.0,4.0,0.0,4.0,4.0,386.6975089999869,1.0,1.0,phase_1,,,,,,,,,,,,,green,hexagon
0.0,5.0,0.0,1.0,2.0,2.0,384.6155279998129,1.0,1.0,phase_1,,,,,,,,,,,,,blue,circle
51.0,1.0,0.5,0.0,2.0,2.0,363.3444649999546,1.0,1.0,phase_1,,,,,,,,,,,,,orange,diamond
80.0,2.0,1.0,0.0,3.0,3.0,361.6390950001005,1.0,1.0,phase_1,,,,,,,,,,,,,gray,triangle
383.0,4.0,4.0,0.0,1.0,1.0,526.4252599999963,1.0,1.0,phase_1,,,,,,,,,,,,,green,hexagon
384.0,8.0,4.0,1.0,2.0,2.0,309.6579319999364,1.0,1.0,phase_1,,,,,,,,,,,,,cyan,square
177.0,7.0,2.0,1.0,2.0,2.0,438.719649000177,1.0,1.0,phase_1,,,,,,,,,,,,,white,flipped triangle
388.0,4.0,4.0,0.0,2.0,2.0,319.721594999919,1.0,1.0,phase_1,,,,,,,,,,,,,green,hexagon
198.0,3.0,2.0,0.0,1.0,1.0,266.50029199981867,1.0,1.0,phase_1,,,,,,,,,,,,,yellow,cross
50.0,5.0,0.5,1.0,3.0,3.0,389.0961280003466,1.0,1.0,phase_1,,,,,,,,,,,,,blue,circle
0.0,2.0,0.0,0.0,2.0,2.0,321.621862000029,1.0,1.0,phase_1,,,,,,,,,,,,,gray,triangle
191.0,3.0,2.0,0.0,2.0,2.0,273.2714320000013,1.0,1.0,phase_1,,,,,,,,,,,,,yellow,cross
41.0,5.0,0.5,1.0,3.0,3.0,385.6920869998248,1.0,1.0,phase_1,,,,,,,,,,,,,blue,circle
401.0,8.0,4.0,1.0,2.0,2.0,312.4530679997406,1.0,1.0,phase_1,,,,,,,,,,,,,cyan,square
48.0,1.0,0.5,0.0,2.0,2.0,452.3325780000959,1.0,1.0,phase_1,,,,,,,,,,,,,orange,diamond
121.0,2.0,1.0,0.0,3.0,3.0,356.7823450002834,1.0,1.0,phase_1,,,,,,,,,,,,,gray,triangle
0.0,8.0,0.0,1.0,2.0,2.0,270.6738710003264,1.0,1.0,phase_1,,,,,,,,,,,,,cyan,square
390.0,4.0,4.0,0.0,4.0,4.0,286.0090150002179,1.0,1.0,phase_1,,,,,,,,,,,,,green,hexagon
384.0,4.0,4.0,0.0,3.0,3.0,285.6323050000355,1.0,1.0,phase_1,,,,,,,,,,,,,green,hexagon
116.0,6.0,1.0,1.0,2.0,2.0,278.9957939999112,1.0,1.0,phase_1,,,,,,,,,,,,,magenta,I
0.0,1.0,0.0,0.0,2.0,2.0,351.1194720003914,1.0,1.0,phase_1,,,,,,,,,,,,,orange,diamond
0.0,1.0,0.0,0.0,1.0,1.0,400.5587470001046,1.0,1.0,phase_1,,,,,,,,,,,,,orange,diamond
383.0,8.0,4.0,1.0,4.0,4.0,331.0744049999812,1.0,1.0,phase_1,,,,,,,,,,,,,cyan,square
207.0,3.0,2.0,0.0,3.0,3.0,518.7022469999647,1.0,1.0,phase_1,,,,,,,,,,,,,yellow,cross
388.0,8.0,4.0,1.0,3.0,3.0,375.2132419999725,1.0,1.0,phase_1,,,,,,,,,,,,,cyan,square
404.0,8.0,4.0,1.0,1.0,1.0,419.1013660001772,1.0,1.0,phase_1,,,,,,,,,,,,,cyan,square
179.0,3.0,2.0,0.0,3.0,3.0,543.0050679997294,1.0,1.0,phase_1,,,,,,,,,,,,,yellow,cross
36.0,1.0,0.5,0.0,1.0,1.0,325.2097540002978,1.0,1.0,phase_1,,,,,,,,,,,,,orange,diamond
0.0,6.0,0.0,1.0,2.0,2.0,339.2027890004101,1.0,1.0,phase_1,,,,,,,,,,,,,magenta,I
0.0,2.0,0.0,0.0,3.0,3.0,442.5368679999337,1.0,1.0,phase_1,,,,,,,,,,,,,gray,triangle
0.0,7.0,0.0,1.0,2.0,2.0,291.314118000173,1.0,1.0,phase_1,,,,,,,,,,,,,white,flipped triangle
106.0,2.0,1.0,0.0,2.0,2.0,373.1370299997252,1.0,1.0,phase_1,,,,,,,,,,,,,gray,triangle
410.0,4.0,4.0,0.0,1.0,1.0,473.157934000028,1.0,1.0,phase_1,,,,,,,,,,,,,green,hexagon
67.0,1.0,0.5,0.0,2.0,2.0,366.0830460003126,1.0,1.0,phase_1,,,,,,,,,,,,,orange,diamond
394.0,4.0,4.0,0.0,1.0,1.0,419.0079209997748,1.0,1.0,phase_1,,,,,,,,,,,,,green,hexagon
418.0,8.0,4.0,1.0,4.0,4.0,544.2814709999766,1.0,1.0,phase_1,,,,,,,,,,,,,cyan,square
59.0,5.0,0.5,1.0,3.0,3.0,341.1900149999383,1.0,1.0,phase_1,,,,,,,,,,,,,blue,circle
73.0,1.0,0.5,0.0,3.0,3.0,399.9408599997878,1.0,1.0,phase_1,,,,,,,,,,,,,orange,diamond
0.0,3.0,0.0,0.0,1.0,1.0,271.0547089995998,1.0,1.0,phase_1,,,,,,,,,,,,,yellow,cross
199.0,7.0,2.0,1.0,2.0,2.0,288.3237260002715,1.0,1.0,phase_1,,,,,,,,,,,,,white,flipped triangle
110.0,2.0,1.0,0.0,3.0,3.0,326.0779570000522,1.0,1.0,phase_1,,,,,,,,,,,,,gray,triangle
70.0,1.0,0.5,0.0,4.0,4.0,811.8317029998252,1.0,2.0,phase_1,,,,,,,,,,,,,orange,diamond
395.0,4.0,4.0,0.0,4.0,4.0,357.2918920003758,1.0,1.0,phase_1,,,,,,,,,,,,,green,hexagon
0.0,8.0,0.0,1.0,3.0,3.0,407.8483130001586,1.0,1.0,phase_1,,,,,,,,,,,,,cyan,square
0.0,5.0,0.0,1.0,4.0,4.0,502.6805509996848,1.0,1.0,phase_1,,,,,,,,,,,,,blue,circle
57.0,5.0,0.5,1.0,1.0,1.0,352.0865129999038,1.0,1.0,phase_1,,,,,,,,,,,,,blue,circle
0.0,8.0,0.0,1.0,4.0,4.0,449.1346699996938,1.0,1.0,phase_1,,,,,,,,,,,,,cyan,square
425.0,8.0,4.0,1.0,1.0,1.0,551.6228039996349,1.0,1.0,phase_1,,,,,,,,,,,,,cyan,square
0.0,4.0,0.0,0.0,2.0,2.0,511.79002299977583,1.0,1.0,phase_1,,,,,,,,,,,,,green,hexagon
179.0,7.0,2.0,1.0,1.0,1.0,448.1663820001813,1.0,1.0,phase_1,,,,,,,,,,,,,white,flipped triangle
36.0,5.0,0.5,1.0,1.0,1.0,366.2620659997628,1.0,1.0,phase_1,,,,,,,,,,,,,blue,circle
407.0,4.0,4.0,0.0,2.0,2.0,324.67266499998,1.0,1.0,phase_1,,,,,,,,,,,,,green,hexagon
395.0,8.0,4.0,1.0,3.0,3.0,489.1632610001579,1.0,1.0,phase_1,,,,,,,,,,,,,cyan,square
217.0,7.0,2.0,1.0,4.0,4.0,360.0113430002238,1.0,1.0,phase_1,,,,,,,,,,,,,white,flipped triangle
92.0,2.0,1.0,0.0,1.0,1.0,405.6252059999679,1.0,1.0,phase_1,,,,,,,,,,,,,gray,triangle
88.0,6.0,1.0,1.0,1.0,1.0,466.9324100000267,1.0,1.0,phase_1,,,,,,,,,,,,,magenta,I
191.0,7.0,2.0,1.0,3.0,3.0,431.2121640000441,1.0,1.0,phase_1,,,,,,,,,,,,,white,flipped triangle
28.0,5.0,0.5,1.0,2.0,2.0,369.9161559998174,1.0,1.0,phase_1,,,,,,,,,,,,,blue,circle
214.0,7.0,2.0,1.0,3.0,3.0,417.2963109999728,1.0,1.0,phase_1,,,,,,,,,,,,,white,flipped triangle
108.0,2.0,1.0,0.0,4.0,4.0,350.6008760000441,1.0,1.0,phase_1,,,,,,,,,,,,,gray,triangle
376.0,8.0,4.0,1.0,1.0,1.0,302.8113000000303,1.0,1.0,phase_1,,,,,,,,,,,,,cyan,square
47.0,5.0,0.5,1.0,2.0,2.0,682.902063000256,1.0,1.0,phase_1,,,,,,,,,,,,,blue,circle
96.0,2.0,1.0,0.0,4.0,4.0,432.3809610000353,1.0,1.0,phase_1,,,,,,,,,,,,,gray,triangle
408.0,8.0,4.0,1.0,2.0,2.0,426.4587659999961,1.0,1.0,phase_1,,,,,,,,,,,,,cyan,square
125.0,6.0,1.0,1.0,3.0,3.0,318.5854860003019,1.0,1.0,phase_1,,,,,,,,,,,,,magenta,I
116.0,2.0,1.0,0.0,4.0,4.0,441.1734600003001,1.0,1.0,phase_1,,,,,,,,,,,,,gray,triangle
0.0,1.0,0.0,0.0,4.0,4.0,358.9378990000114,1.0,1.0,phase_1,,,,,,,,,,,,,orange,diamond
72.0,1.0,0.5,0.0,2.0,2.0,291.8801770001664,1.0,1.0,phase_1,,,,,,,,,,,,,orange,diamond
0.0,7.0,0.0,1.0,3.0,3.0,578.1455660003303,1.0,1.0,phase_1,,,,,,,,,,,,,white,flipped triangle
407.0,8.0,4.0,1.0,4.0,4.0,308.7342320000061,1.0,1.0,phase_1,,,,,,,,,,,,,cyan,square
214.0,3.0,2.0,0.0,4.0,4.0,511.13046399996165,1.0,1.0,phase_1,,,,,,,,,,,,,yellow,cross
220.0,3.0,2.0,0.0,1.0,1.0,356.7981940000209,1.0,1.0,phase_1,,,,,,,,,,,,,yellow,cross
57.0,1.0,0.5,0.0,1.0,1.0,446.8208439998307,1.0,1.0,phase_1,,,,,,,,,,,,,orange,diamond
415.0,4.0,4.0,0.0,4.0,4.0,453.0322539999361,1.0,1.0,phase_1,,,,,,,,,,,,,green,hexagon
206.0,3.0,2.0,0.0,3.0,3.0,372.8568849996918,1.0,1.0,phase_1,,,,,,,,,,,,,yellow,cross
92.0,6.0,1.0,1.0,1.0,1.0,376.0717240002122,1.0,1.0,phase_1,,,,,,,,,,,,,magenta,I
192.0,3.0,2.0,0.0,1.0,1.0,519.9321499999314,1.0,1.0,phase_1,,,,,,,,,,,,,yellow,cross
178.0,3.0,2.0,0.0,2.0,2.0,355.3695729997344,1.0,1.0,phase_1,,,,,,,,,,,,,yellow,cross
211.0,7.0,2.0,1.0,1.0,1.0,472.6716820000547,1.0,1.0,phase_1,,,,,,,,,,,,,white,flipped triangle
49.0,5.0,0.5,1.0,3.0,3.0,661.3980290003383,1.0,1.0,phase_1,,,,,,,,,,,,,blue,circle
0.0,4.0,0.0,0.0,3.0,3.0,837.0936970000002,1.0,1.0,phase_1,,,,,,,,,,,,,green,hexagon
115.0,2.0,1.0,0.0,2.0,2.0,569.1322780003247,1.0,1.0,phase_1,,,,,,,,,,,,,gray,triangle
25.0,1.0,0.5,0.0,4.0,4.0,413.1468169998697,1.0,1.0,phase_1,,,,,,,,,,,,,orange,diamond
39.0,1.0,0.5,0.0,4.0,4.0,393.728392000412,1.0,1.0,phase_1,,,,,,,,,,,,,orange,diamond
89.0,2.0,1.0,0.0,3.0,3.0,448.6263510002573,1.0,1.0,phase_1,,,,,,,,,,,,,gray,triangle
411.0,4.0,4.0,0.0,4.0,4.0,327.9109299996889,1.0,1.0,phase_1,,,,,,,,,,,,,green,hexagon
214.0,7.0,2.0,1.0,3.0,3.0,429.4695440003124,1.0,1.0,phase_1,,,,,,,,,,,,,white,flipped triangle
69.0,5.0,0.5,1.0,3.0,3.0,630.6738180001048,1.0,1.0,phase_1,,,,,,,,,,,,,blue,circle
405.0,4.0,4.0,0.0,1.0,1.0,488.2134740000765,2.0,1.0,phase_1,,,,,,,,,,,,,green,hexagon
189.0,3.0,2.0,0.0,1.0,1.0,303.7170600000536,2.0,1.0,phase_1,,,,,,,,,,,,,yellow,cross
48.0,5.0,0.5,1.0,2.0,2.0,296.3386299998092,2.0,1.0,phase_1,,,,,,,,,,,,,blue,circle
121.0,6.0,1.0,1.0,4.0,4.0,469.9305859999185,2.0,2.0,phase_1,,,,,,,,,,,,,magenta,I
179.0,7.0,2.0,1.0,3.0,3.0,330.9647050000421,2.0,1.0,phase_1,,,,,,,,,,,,,white,flipped triangle
0.0,2.0,0.0,0.0,1.0,1.0,251.50916099983078,2.0,1.0,phase_1,,,,,,,,,,,,,gray,triangle
0.0,3.0,0.0,0.0,2.0,2.0,429.536841999834,2.0,1.0,phase_1,,,,,,,,,,,,,yellow,cross
0.0,3.0,0.0,0.0,2.0,2.0,348.3483370000613,2.0,1.0,phase_1,,,,,,,,,,,,,yellow,cross
404.0,4.0,4.0,0.0,2.0,2.0,261.2299169995822,2.0,1.0,phase_1,,,,,,,,,,,,,green,hexagon
81.0,2.0,1.0,0.0,4.0,4.0,358.9204359996074,2.0,1.0,phase_1,,,,,,,,,,,,,gray,triangle
110.0,6.0,1.0,1.0,2.0,2.0,269.0376570003536,2.0,1.0,phase_1,,,,,,,,,,,,,magenta,I
183.0,7.0,2.0,1.0,3.0,3.0,343.367699999817,2.0,1.0,phase_1,,,,,,,,,,,,,white,flipped triangle
93.0,6.0,1.0,1.0,2.0,2.0,328.1342639998001,2.0,1.0,phase_1,,,,,,,,,,,,,magenta,I
0.0,7.0,0.0,1.0,1.0,1.0,474.2281530002401,2.0,1.0,phase_1,,,,,,,,,,,,,white,flipped triangle
0.0,3.0,0.0,0.0,2.0,2.0,244.170901000416,2.0,1.0,phase_1,,,,,,,,,,,,,yellow,cross
0.0,1.0,0.0,0.0,4.0,4.0,370.2678419999756,2.0,1.0,phase_1,,,,,,,,,,,,,orange,diamond
225.0,3.0,2.0,0.0,2.0,2.0,315.96240399994707,2.0,1.0,phase_1,,,,,,,,,,,,,yellow,cross
59.0,1.0,0.5,0.0,4.0,4.0,564.7323400003188,2.0,1.0,phase_1,,,,,,,,,,,,,orange,diamond
214.0,3.0,2.0,0.0,1.0,1.0,517.4696479998602,2.0,1.0,phase_1,,,,,,,,,,,,,yellow,cross
405.0,8.0,4.0,1.0,3.0,3.0,381.51701400011,2.0,1.0,phase_1,,,,,,,,,,,,,cyan,square
181.0,7.0,2.0,1.0,1.0,1.0,301.4060079999581,2.0,1.0,phase_1,,,,,,,,,,,,,white,flipped triangle
0.0,4.0,0.0,0.0,2.0,2.0,294.4726740001897,2.0,1.0,phase_1,,,,,,,,,,,,,green,hexagon
123.0,6.0,1.0,1.0,1.0,1.0,286.1189560003367,2.0,1.0,phase_1,,,,,,,,,,,,,magenta,I
186.0,3.0,2.0,0.0,4.0,4.0,385.5766779997793,2.0,1.0,phase_1,,,,,,,,,,,,,yellow,cross
26.0,5.0,0.5,1.0,2.0,2.0,588.9744460000657,2.0,1.0,phase_1,,,,,,,,,,,,,blue,circle
124.0,2.0,1.0,0.0,1.0,1.0,415.7353460000195,2.0,1.0,phase_1,,,,,,,,,,,,,gray,triangle
26.0,1.0,0.5,0.0,4.0,4.0,347.0964650000496,2.0,1.0,phase_1,,,,,,,,,,,,,orange,diamond
415.0,4.0,4.0,0.0,2.0,2.0,267.9020780001337,2.0,1.0,phase_1,,,,,,,,,,,,,green,hexagon
95.0,6.0,1.0,1.0,4.0,4.0,359.6058149996679,2.0,1.0,phase_1,,,,,,,,,,,,,magenta,I
424.0,8.0,4.0,1.0,2.0,2.0,382.2262200001205,2.0,2.0,phase_1,,,,,,,,,,,,,cyan,square
93.0,2.0,1.0,0.0,2.0,2.0,312.3410389998753,2.0,1.0,phase_1,,,,,,,,,,,,,gray,triangle
199.0,7.0,2.0,1.0,4.0,4.0,517.8734489995804,2.0,1.0,phase_1,,,,,,,,,,,,,white,flipped triangle
223.0,3.0,2.0,0.0,2.0,2.0,357.6809440000943,2.0,1.0,phase_1,,,,,,,,,,,,,yellow,cross
0.0,7.0,0.0,1.0,3.0,3.0,541.5663100002348,2.0,1.0,phase_1,,,,,,,,,,,,,white,flipped triangle
103.0,2.0,1.0,0.0,3.0,3.0,541.8809669999973,2.0,1.0,phase_1,,,,,,,,,,,,,gray,triangle
199.0,3.0,2.0,0.0,4.0,4.0,585.9168819997649,2.0,1.0,phase_1,,,,,,,,,,,,,yellow,cross
410.0,8.0,4.0,1.0,4.0,4.0,353.6920789997566,2.0,1.0,phase_1,,,,,,,,,,,,,cyan,square
0.0,8.0,0.0,1.0,2.0,2.0,433.6209550001513,2.0,1.0,phase_1,,,,,,,,,,,,,cyan,square
69.0,1.0,0.5,0.0,3.0,3.0,497.8122570000778,2.0,1.0,phase_1,,,,,,,,,,,,,orange,diamond
79.0,2.0,1.0,0.0,1.0,1.0,393.3399630000167,2.0,1.0,phase_1,,,,,,,,,,,,,gray,triangle
190.0,7.0,2.0,1.0,1.0,1.0,291.267783999956,2.0,1.0,phase_1,,,,,,,,,,,,,white,flipped triangle
425.0,4.0,4.0,0.0,4.0,4.0,402.2337500000503,2.0,1.0,phase_1,,,,,,,,,,,,,green,hexagon
211.0,7.0,2.0,1.0,2.0,2.0,416.698948999965,2.0,1.0,phase_1,,,,,,,,,,,,,white,flipped triangle
48.0,1.0,0.5,0.0,4.0,4.0,456.944103999831,2.0,1.0,phase_1,,,,,,,,,,,,,orange,diamond
102.0,2.0,1.0,0.0,1.0,1.0,300.7630100000824,2.0,1.0,phase_1,,,,,,,,,,,,,gray,triangle
196.0,7.0,2.0,1.0,1.0,1.0,360.203434000141,2.0,1.0,phase_1,,,,,,,,,,,,,white,flipped triangle
185.0,3.0,2.0,0.0,2.0,2.0,369.9503729999378,2.0,1.0,phase_1,,,,,,,,,,,,,yellow,cross
403.0,8.0,4.0,1.0,1.0,1.0,324.6468639999875,2.0,1.0,phase_1,,,,,,,,,,,,,cyan,square
102.0,6.0,1.0,1.0,4.0,4.0,428.1078889998753,2.0,1.0,phase_1,,,,,,,,,,,,,magenta,I
398.0,8.0,4.0,1.0,2.0,2.0,332.941545000267,2.0,1.0,phase_1,,,,,,,,,,,,,cyan,square
62.0,5.0,0.5,1.0,4.0,4.0,348.6830460001329,2.0,1.0,phase_1,,,,,,,,,,,,,blue,circle
34.0,1.0,0.5,0.0,2.0,2.0,279.5274499999323,2.0,1.0,phase_1,,,,,,,,,,,,,orange,diamond
190.0,3.0,2.0,0.0,2.0,2.0,370.5684940000537,2.0,1.0,phase_1,,,,,,,,,,,,,yellow,cross
0.0,2.0,0.0,0.0,3.0,3.0,393.3840519998739,2.0,1.0,phase_1,,,,,,,,,,,,,gray,triangle
392.0,4.0,4.0,0.0,1.0,1.0,608.2935270001144,2.0,1.0,phase_1,,,,,,,,,,,,,green,hexagon
203.0,3.0,2.0,0.0,4.0,4.0,618.9146450001317,2.0,1.0,phase_1,,,,,,,,,,,,,yellow,cross
0.0,5.0,0.0,1.0,4.0,4.0,541.4339109997854,2.0,2.0,phase_1,,,,,,,,,,,,,blue,circle
81.0,6.0,1.0,1.0,2.0,2.0,619.3459759997495,2.0,1.0,phase_1,,,,,,,,,,,,,magenta,I
67.0,5.0,0.5,1.0,4.0,4.0,487.2995679997984,2.0,1.0,phase_1,,,,,,,,,,,,,blue,circle
0.0,3.0,0.0,0.0,1.0,1.0,350.6885510000757,2.0,1.0,phase_1,,,,,,,,,,,,,yellow,cross
51.0,5.0,0.5,1.0,1.0,1.0,385.0078759996904,2.0,1.0,phase_1,,,,,,,,,,,,,blue,circle
403.0,4.0,4.0,0.0,3.0,3.0,535.1358069997332,2.0,1.0,phase_1,,,,,,,,,,,,,green,hexagon
79.0,6.0,1.0,1.0,4.0,4.0,449.2563160001737,2.0,1.0,phase_1,,,,,,,,,,,,,magenta,I
223.0,3.0,2.0,0.0,4.0,4.0,335.7486699997025,2.0,1.0,phase_1,,,,,,,,,,,,,yellow,cross
0.0,7.0,0.0,1.0,3.0,3.0,526.7766679999113,2.0,1.0,phase_1,,,,,,,,,,,,,white,flipped triangle
108.0,6.0,1.0,1.0,4.0,4.0,349.474870999984,2.0,1.0,phase_1,,,,,,,,,,,,,magenta,I
70.0,5.0,0.5,1.0,2.0,2.0,409.0727040002093,2.0,1.0,phase_1,,,,,,,,,,,,,blue,circle
407.0,4.0,4.0,0.0,3.0,3.0,519.8423749998256,2.0,1.0,phase_1,,,,,,,,,,,,,green,hexagon
69.0,1.0,0.5,0.0,1.0,1.0,382.426857000155,2.0,1.0,phase_1,,,,,,,,,,,,,orange,diamond
0.0,6.0,0.0,1.0,2.0,2.0,637.2215169999436,2.0,1.0,phase_1,,,,,,,,,,,,,magenta,I
102.0,6.0,1.0,1.0,1.0,1.0,527.2736450001503,2.0,1.0,phase_1,,,,,,,,,,,,,magenta,I
183.0,3.0,2.0,0.0,4.0,4.0,439.6359980000852,2.0,1.0,phase_1,,,,,,,,,,,,,yellow,cross
0.0,6.0,0.0,1.0,3.0,3.0,383.3183010001448,2.0,2.0,phase_1,,,,,,,,,,,,,magenta,I
0.0,1.0,0.0,0.0,4.0,4.0,384.004171000015,2.0,1.0,phase_1,,,,,,,,,,,,,orange,diamond
100.0,2.0,1.0,0.0,1.0,1.0,390.3341989998807,2.0,1.0,phase_1,,,,,,,,,,,,,gray,triangle
121.0,2.0,1.0,0.0,1.0,1.0,332.7915530003338,2.0,1.0,phase_1,,,,,,,,,,,,,gray,triangle
0.0,6.0,0.0,1.0,2.0,2.0,372.2779830000036,2.0,2.0,phase_1,,,,,,,,,,,,,magenta,I
202.0,7.0,2.0,1.0,1.0,1.0,299.5070419997319,2.0,1.0,phase_1,,,,,,,,,,,,,white,flipped triangle
109.0,2.0,1.0,0.0,2.0,2.0,282.2827019999749,2.0,1.0,phase_1,,,,,,,,,,,,,gray,triangle
376.0,4.0,4.0,0.0,3.0,3.0,453.6943329999303,2.0,1.0,phase_1,,,,,,,,,,,,,green,hexagon
86.0,2.0,1.0,0.0,4.0,4.0,486.9299059996592,2.0,1.0,phase_1,,,,,,,,,,,,,gray,triangle
411.0,4.0,4.0,0.0,2.0,2.0,366.9960289998926,2.0,1.0,phase_1,,,,,,,,,,,,,green,hexagon
78.0,2.0,1.0,0.0,4.0,4.0,410.4172869997455,2.0,1.0,phase_1,,,,,,,,,,,,,gray,triangle
25.0,5.0,0.5,1.0,2.0,2.0,449.3177949998426,2.0,1.0,phase_1,,,,,,,,,,,,,blue,circle
392.0,4.0,4.0,0.0,1.0,1.0,276.9152740002027,2.0,1.0,phase_1,,,,,,,,,,,,,green,hexagon
103.0,6.0,1.0,1.0,2.0,2.0,362.8276210001786,2.0,1.0,phase_1,,,,,,,,,,,,,magenta,I
48.0,1.0,0.5,0.0,4.0,4.0,405.3197789999103,2.0,1.0,phase_1,,,,,,,,,,,,,orange,diamond
109.0,6.0,1.0,1.0,1.0,1.0,305.5159110003842,2.0,1.0,phase_1,,,,,,,,,,,,,magenta,I
77.0,6.0,1.0,1.0,3.0,3.0,393.1944659998407,2.0,1.0,phase_1,,,,,,,,,,,,,magenta,I
41.0,1.0,0.5,0.0,3.0,3.0,374.4602520000626,2.0,1.0,phase_1,,,,,,,,,,,,,orange,diamond
89.0,6.0,1.0,1.0,4.0,4.0,560.4874499999823,2.0,1.0,phase_1,,,,,,,,,,,,,magenta,I
88.0,2.0,1.0,0.0,4.0,4.0,388.8646400000652,2.0,1.0,phase_1,,,,,,,,,,,,,gray,triangle
67.0,1.0,0.5,0.0,1.0,1.0,382.840023999961,2.0,1.0,phase_1,,,,,,,,,,,,,orange,diamond
100.0,6.0,1.0,1.0,2.0,2.0,347.4636969999665,2.0,1.0,phase_1,,,,,,,,,,,,,magenta,I
0.0,4.0,0.0,0.0,2.0,2.0,295.8403510001517,2.0,1.0,phase_1,,,,,,,,,,,,,green,hexagon
116.0,2.0,1.0,0.0,4.0,4.0,576.7791610001041,2.0,1.0,phase_1,,,,,,,,,,,,,gray,triangle
0.0,8.0,0.0,1.0,4.0,4.0,404.3561150001551,2.0,1.0,phase_1,,,,,,,,,,,,,cyan,square
48.0,5.0,0.5,1.0,4.0,4.0,337.4530269998104,2.0,1.0,phase_1,,,,,,,,,,,,,blue,circle
80.0,2.0,1.0,0.0,3.0,3.0,484.1554710001219,2.0,1.0,phase_1,,,,,,,,,,,,,gray,triangle
421.0,8.0,4.0,1.0,1.0,1.0,436.090447999959,2.0,1.0,phase_1,,,,,,,,,,,,,cyan,square
0.0,3.0,0.0,0.0,1.0,1.0,526.5345319999142,3.0,1.0,phase_1,,,,,,,,,,,,,yellow,cross
0.0,2.0,0.0,0.0,2.0,2.0,259.6915750000335,3.0,1.0,phase_1,,,,,,,,,,,,,gray,triangle
205.0,7.0,2.0,1.0,4.0,4.0,338.290987000164,3.0,1.0,phase_1,,,,,,,,,,,,,white,flipped triangle
202.0,3.0,2.0,0.0,2.0,2.0,261.5002679999634,3.0,1.0,phase_1,,,,,,,,,,,,,yellow,cross
0.0,8.0,0.0,1.0,3.0,3.0,417.591332000029,3.0,1.0,phase_1,,,,,,,,,,,,,cyan,square
213.0,3.0,2.0,0.0,1.0,1.0,289.5186040000226,3.0,1.0,phase_1,,,,,,,,,,,,,yellow,cross
411.0,8.0,4.0,1.0,4.0,4.0,403.8867829999617,3.0,1.0,phase_1,,,,,,,,,,,,,cyan,square
72.0,5.0,0.5,1.0,1.0,1.0,415.3447269995922,3.0,1.0,phase_1,,,,,,,,,,,,,blue,circle
61.0,5.0,0.5,1.0,3.0,3.0,514.2875869996715,3.0,1.0,phase_1,,,,,,,,,,,,,blue,circle
40.0,1.0,0.5,0.0,3.0,3.0,518.2012909999685,3.0,1.0,phase_1,,,,,,,,,,,,,orange,diamond
417.0,8.0,4.0,1.0,3.0,3.0,481.7762600000606,3.0,1.0,phase_1,,,,,,,,,,,,,cyan,square
0.0,5.0,0.0,1.0,1.0,1.0,372.7177979999396,3.0,1.0,phase_1,,,,,,,,,,,,,blue,circle
25.0,1.0,0.5,0.0,1.0,1.0,383.2052669999939,3.0,1.0,phase_1,,,,,,,,,,,,,orange,diamond
0.0,8.0,0.0,1.0,1.0,1.0,517.635428000176,3.0,1.0,phase_1,,,,,,,,,,,,,cyan,square
49.0,1.0,0.5,0.0,3.0,3.0,472.5186559999201,3.0,1.0,phase_1,,,,,,,,,,,,,orange,diamond
0.0,4.0,0.0,0.0,3.0,3.0,326.1386869999114,3.0,1.0,phase_1,,,,,,,,,,,,,green,hexagon
116.0,6.0,1.0,1.0,2.0,2.0,373.2966029997442,3.0,1.0,phase_1,,,,,,,,,,,,,magenta,I
225.0,7.0,2.0,1.0,4.0,4.0,353.702493000128,3.0,1.0,phase_1,,,,,,,,,,,,,white,flipped triangle
0.0,6.0,0.0,1.0,4.0,4.0,298.1186769998203,3.0,1.0,phase_1,,,,,,,,,,,,,magenta,I
401.0,4.0,4.0,0.0,2.0,2.0,291.5975249998155,3.0,1.0,phase_1,,,,,,,,,,,,,green,hexagon
61.0,1.0,0.5,0.0,1.0,1.0,351.8112259998815,3.0,1.0,phase_1,,,,,,,,,,,,,orange,diamond
88.0,2.0,1.0,0.0,3.0,3.0,655.6683809999413,3.0,1.0,phase_1,,,,,,,,,,,,,gray,triangle
121.0,2.0,1.0,0.0,2.0,2.0,282.7687440003501,3.0,1.0,phase_1,,,,,,,,,,,,,gray,triangle
218.0,7.0,2.0,1.0,4.0,4.0,322.5833750002493,3.0,1.0,phase_1,,,,,,,,,,,,,white,flipped triangle
199.0,3.0,2.0,0.0,3.0,3.0,275.4063530001076,3.0,2.0,phase_1,,,,,,,,,,,,,yellow,cross
86.0,6.0,1.0,1.0,2.0,2.0,363.8414850001936,3.0,1.0,phase_1,,,,,,,,,,,,,magenta,I
121.0,6.0,1.0,1.0,3.0,3.0,395.738084000186,3.0,1.0,phase_1,,,,,,,,,,,,,magenta,I
186.0,7.0,2.0,1.0,3.0,3.0,334.10104900031,3.0,1.0,phase_1,,,,,,,,,,,,,white,flipped triangle
0.0,3.0,0.0,0.0,2.0,2.0,487.1604990003106,3.0,1.0,phase_1,,,,,,,,,,,,,yellow,cross
95.0,2.0,1.0,0.0,1.0,1.0,468.581365999853,3.0,1.0,phase_1,,,,,,,,,,,,,gray,triangle
124.0,6.0,1.0,1.0,3.0,3.0,503.01442199997837,3.0,1.0,phase_1,,,,,,,,,,,,,magenta,I
376.0,8.0,4.0,1.0,2.0,2.0,529.3024920001699,3.0,1.0,phase_1,,,,,,,,,,,,,cyan,square
62.0,1.0,0.5,0.0,2.0,2.0,459.3225709995749,3.0,1.0,phase_1,,,,,,,,,,,,,orange,diamond
203.0,7.0,2.0,1.0,3.0,3.0,650.1253379997252,3.0,1.0,phase_1,,,,,,,,,,,,,white,flipped triangle
183.0,7.0,2.0,1.0,3.0,3.0,697.8177640003196,3.0,1.0,phase_1,,,,,,,,,,,,,white,flipped triangle
379.0,4.0,4.0,0.0,4.0,4.0,578.9035930001774,3.0,1.0,phase_1,,,,,,,,,,,,,green,hexagon
223.0,7.0,2.0,1.0,2.0,2.0,390.4920869999841,3.0,1.0,phase_1,,,,,,,,,,,,,white,flipped triangle
95.0,2.0,1.0,0.0,1.0,1.0,454.3443320003462,3.0,1.0,phase_1,,,,,,,,,,,,,gray,triangle
53.0,1.0,0.5,0.0,4.0,4.0,598.5019019999527,3.0,1.0,phase_1,,,,,,,,,,,,,orange,diamond
67.0,5.0,0.5,1.0,1.0,1.0,358.5668509999777,3.0,1.0,phase_1,,,,,,,,,,,,,blue,circle
413.0,8.0,4.0,1.0,3.0,3.0,374.6715289998974,3.0,1.0,phase_1,,,,,,,,,,,,,cyan,square
61.0,1.0,0.5,0.0,3.0,3.0,375.7740370001556,3.0,1.0,phase_1,,,,,,,,,,,,,orange,diamond
379.0,8.0,4.0,1.0,1.0,1.0,512.5703799999428,3.0,1.0,phase_1,,,,,,,,,,,,,cyan,square
125.0,2.0,1.0,0.0,2.0,2.0,276.1949410000852,3.0,1.0,phase_1,,,,,,,,,,,,,gray,triangle
0.0,6.0,0.0,1.0,4.0,4.0,445.8024109999314,3.0,1.0,phase_1,,,,,,,,,,,,,magenta,I
0.0,7.0,0.0,1.0,2.0,2.0,462.4846120000256,3.0,1.0,phase_1,,,,,,,,,,,,,white,flipped triangle
392.0,8.0,4.0,1.0,1.0,1.0,380.3611620000993,3.0,1.0,phase_1,,,,,,,,,,,,,cyan,square
181.0,3.0,2.0,0.0,4.0,4.0,313.6117760000161,3.0,1.0,phase_1,,,,,,,,,,,,,yellow,cross
211.0,3.0,2.0,0.0,2.0,2.0,264.9463489997288,3.0,1.0,phase_1,,,,,,,,,,,,,yellow,cross
183.0,3.0,2.0,0.0,2.0,2.0,349.4553079999605,3.0,1.0,phase_1,,,,,,,,,,,,,yellow,cross
124.0,6.0,1.0,1.0,3.0,3.0,363.7146229998507,3.0,1.0,phase_1,,,,,,,,,,,,,magenta,I
0.0,5.0,0.0,1.0,1.0,1.0,334.2862290000994,3.0,1.0,phase_1,,,,,,,,,,,,,blue,circle
178.0,7.0,2.0,1.0,3.0,3.0,295.0162100000852,3.0,1.0,phase_1,,,,,,,,,,,,,white,flipped triangle
51.0,5.0,0.5,1.0,4.0,4.0,384.7342499998376,3.0,1.0,phase_1,,,,,,,,,,,,,blue,circle
386.0,4.0,4.0,0.0,1.0,1.0,281.2275889996272,3.0,1.0,phase_1,,,,,,,,,,,,,green,hexagon
211.0,3.0,2.0,0.0,3.0,3.0,299.9848080003175,3.0,1.0,phase_1,,,,,,,,,,,,,yellow,cross
211.0,7.0,2.0,1.0,2.0,2.0,344.7415340001498,3.0,1.0,phase_1,,,,,,,,,,,,,white,flipped triangle
50.0,1.0,0.5,0.0,1.0,1.0,270.1894150000044,3.0,1.0,phase_1,,,,,,,,,,,,,orange,diamond
53.0,1.0,0.5,0.0,3.0,3.0,335.7258119999642,3.0,1.0,phase_1,,,,,,,,,,,,,orange,diamond
48.0,5.0,0.5,1.0,2.0,2.0,635.8412609997686,3.0,1.0,phase_1,,,,,,,,,,,,,blue,circle
40.0,5.0,0.5,1.0,1.0,1.0,329.4835749998128,3.0,1.0,phase_1,,,,,,,,,,,,,blue,circle
386.0,8.0,4.0,1.0,1.0,1.0,640.6280800001696,3.0,1.0,phase_1,,,,,,,,,,,,,cyan,square
211.0,3.0,2.0,0.0,1.0,1.0,288.9244110001527,3.0,1.0,phase_1,,,,,,,,,,,,,yellow,cross
191.0,7.0,2.0,1.0,2.0,2.0,282.331766000425,3.0,1.0,phase_1,,,,,,,,,,,,,white,flipped triangle
76.0,6.0,1.0,1.0,3.0,3.0,544.2194199999904,3.0,1.0,phase_1,,,,,,,,,,,,,magenta,I
205.0,3.0,2.0,0.0,4.0,4.0,511.87588099992354,3.0,1.0,phase_1,,,,,,,,,,,,,yellow,cross
53.0,5.0,0.5,1.0,2.0,2.0,480.1144460002433,3.0,1.0,phase_1,,,,,,,,,,,,,blue,circle
213.0,7.0,2.0,1.0,4.0,4.0,430.9985099998812,3.0,1.0,phase_1,,,,,,,,,,,,,white,flipped triangle
392.0,8.0,4.0,1.0,4.0,4.0,327.3513589997492,3.0,1.0,phase_1,,,,,,,,,,,,,cyan,square
92.0,2.0,1.0,0.0,3.0,3.0,411.7393540000194,3.0,1.0,phase_1,,,,,,,,,,,,,gray,triangle
0.0,7.0,0.0,1.0,4.0,4.0,642.8844600000048,3.0,1.0,phase_1,,,,,,,,,,,,,white,flipped triangle
88.0,6.0,1.0,1.0,3.0,3.0,514.3689510000513,3.0,1.0,phase_1,,,,,,,,,,,,,magenta,I
103.0,6.0,1.0,1.0,3.0,3.0,471.8988080003328,3.0,1.0,phase_1,,,,,,,,,,,,,magenta,I
0.0,6.0,0.0,1.0,1.0,1.0,401.6503849998116,3.0,1.0,phase_1,,,,,,,,,,,,,magenta,I
196.0,3.0,2.0,0.0,4.0,4.0,550.7244030000038,3.0,1.0,phase_1,,,,,,,,,,,,,yellow,cross
121.0,2.0,1.0,0.0,4.0,4.0,364.3693549997806,3.0,2.0,phase_1,,,,,,,,,,,,,gray,triangle
115.0,6.0,1.0,1.0,1.0,1.0,441.4314360001299,3.0,1.0,phase_1,,,,,,,,,,,,,magenta,I
0.0,3.0,0.0,0.0,4.0,4.0,445.7270929997321,3.0,1.0,phase_1,,,,,,,,,,,,,yellow,cross
47.0,1.0,0.5,0.0,3.0,3.0,497.136565999881,3.0,1.0,phase_1,,,,,,,,,,,,,orange,diamond
29.0,1.0,0.5,0.0,1.0,1.0,351.3413109999419,3.0,1.0,phase_1,,,,,,,,,,,,,orange,diamond
77.0,2.0,1.0,0.0,3.0,3.0,462.1946399997796,3.0,1.0,phase_1,,,,,,,,,,,,,gray,triangle
393.0,8.0,4.0,1.0,1.0,1.0,379.5038769999337,3.0,1.0,phase_1,,,,,,,,,,,,,cyan,square
76.0,2.0,1.0,0.0,1.0,1.0,333.7975590002315,3.0,1.0,phase_1,,,,,,,,,,,,,gray,triangle
192.0,7.0,2.0,1.0,4.0,4.0,361.3834029997633,3.0,1.0,phase_1,,,,,,,,,,,,,white,flipped triangle
199.0,3.0,2.0,0.0,3.0,3.0,331.7768619999697,3.0,1.0,phase_1,,,,,,,,,,,,,yellow,cross
199.0,7.0,2.0,1.0,1.0,1.0,325.7118960000298,3.0,1.0,phase_1,,,,,,,,,,,,,white,flipped triangle
0.0,2.0,0.0,0.0,4.0,4.0,381.6268089999539,3.0,1.0,phase_1,,,,,,,,,,,,,gray,triangle
80.0,6.0,1.0,1.0,1.0,1.0,359.3847259999165,3.0,1.0,phase_1,,,,,,,,,,,,,magenta,I
0.0,1.0,0.0,0.0,2.0,2.0,389.7058279999328,3.0,1.0,phase_1,,,,,,,,,,,,,orange,diamond
0.0,4.0,0.0,0.0,2.0,2.0,307.6689350000379,3.0,1.0,phase_1,,,,,,,,,,,,,green,hexagon
0.0,5.0,0.0,1.0,4.0,4.0,383.0782489999365,3.0,1.0,phase_1,,,,,,,,,,,,,blue,circle
121.0,6.0,1.0,1.0,2.0,2.0,324.7595709999586,3.0,1.0,phase_1,,,,,,,,,,,,,magenta,I
0.0,8.0,0.0,1.0,4.0,4.0,353.3779999997932,3.0,1.0,phase_1,,,,,,,,,,,,,cyan,square
417.0,4.0,4.0,0.0,4.0,4.0,360.6424829999923,3.0,1.0,phase_1,,,,,,,,,,,,,green,hexagon
191.0,3.0,2.0,0.0,2.0,2.0,447.1367680002913,3.0,1.0,phase_1,,,,,,,,,,,,,yellow,cross
108.0,2.0,1.0,0.0,4.0,4.0,506.96117200004664,3.0,1.0,phase_1,,,,,,,,,,,,,gray,triangle
418.0,4.0,4.0,0.0,1.0,1.0,564.7289300000011,3.0,1.0,phase_1,,,,,,,,,,,,,green,hexagon
220.0,3.0,2.0,0.0,4.0,4.0,545.9215470000345,3.0,1.0,phase_1,,,,,,,,,,,,,yellow,cross
0.0,3.0,0.0,0.0,1.0,1.0,481.2198280001212,3.0,1.0,phase_1,,,,,,,,,,,,,yellow,cross
33.0,1.0,0.5,0.0,2.0,2.0,362.3927209996509,3.0,1.0,phase_1,,,,,,,,,,,,,orange,diamond
413.0,4.0,4.0,0.0,4.0,4.0,361.52772900004487,4.0,1.0,phase_1,,,,,,,,,,,,,green,hexagon
73.0,5.0,0.5,1.0,3.0,3.0,313.5947870000564,4.0,1.0,phase_1,,,,,,,,,,,,,blue,circle
206.0,7.0,2.0,1.0,4.0,4.0,422.077679999802,4.0,1.0,phase_1,,,,,,,,,,,,,white,flipped triangle
61.0,5.0,0.5,1.0,4.0,4.0,407.1844619998046,4.0,1.0,phase_1,,,,,,,,,,,,,blue,circle
186.0,7.0,2.0,1.0,4.0,4.0,464.7479549998934,4.0,1.0,phase_1,,,,,,,,,,,,,white,flipped triangle
179.0,3.0,2.0,0.0,3.0,3.0,591.205612000067,4.0,1.0,phase_1,,,,,,,,,,,,,yellow,cross
403.0,8.0,4.0,1.0,4.0,4.0,344.5592060002127,4.0,1.0,phase_1,,,,,,,,,,,,,cyan,square
217.0,3.0,2.0,0.0,3.0,3.0,590.4397260001133,4.0,1.0,phase_1,,,,,,,,,,,,,yellow,cross
95.0,6.0,1.0,1.0,3.0,3.0,354.9079909998909,4.0,1.0,phase_1,,,,,,,,,,,,,magenta,I
0.0,7.0,0.0,1.0,2.0,2.0,334.45697700017257,4.0,1.0,phase_1,,,,,,,,,,,,,white,flipped triangle
205.0,7.0,2.0,1.0,2.0,2.0,470.175102000212,4.0,1.0,phase_1,,,,,,,,,,,,,white,flipped triangle
28.0,1.0,0.5,0.0,2.0,2.0,409.4058440000481,4.0,1.0,phase_1,,,,,,,,,,,,,orange,diamond
69.0,5.0,0.5,1.0,2.0,2.0,461.1807860001136,4.0,1.0,phase_1,,,,,,,,,,,,,blue,circle
0.0,2.0,0.0,0.0,4.0,4.0,453.4476940002605,4.0,1.0,phase_1,,,,,,,,,,,,,gray,triangle
190.0,7.0,2.0,1.0,4.0,4.0,414.5847660001891,4.0,1.0,phase_1,,,,,,,,,,,,,white,flipped triangle
36.0,5.0,0.5,1.0,1.0,1.0,645.4291930003819,4.0,1.0,phase_1,,,,,,,,,,,,,blue,circle
380.0,4.0,4.0,0.0,3.0,3.0,469.1139209999164,4.0,1.0,phase_1,,,,,,,,,,,,,green,hexagon
80.0,2.0,1.0,0.0,1.0,1.0,354.2145330002313,4.0,1.0,phase_1,,,,,,,,,,,,,gray,triangle
0.0,3.0,0.0,0.0,4.0,4.0,365.8939579995603,4.0,1.0,phase_1,,,,,,,,,,,,,yellow,cross
398.0,4.0,4.0,0.0,1.0,1.0,360.0298430001203,4.0,1.0,phase_1,,,,,,,,,,,,,green,hexagon
29.0,5.0,0.5,1.0,1.0,1.0,313.2093560002431,4.0,1.0,phase_1,,,,,,,,,,,,,blue,circle
380.0,8.0,4.0,1.0,2.0,2.0,486.4026430000194,4.0,1.0,phase_1,,,,,,,,,,,,,cyan,square
33.0,1.0,0.5,0.0,4.0,4.0,324.0830820000155,4.0,1.0,phase_1,,,,,,,,,,,,,orange,diamond
419.0,8.0,4.0,1.0,2.0,2.0,345.012780000161,4.0,1.0,phase_1,,,,,,,,,,,,,cyan,square
71.0,5.0,0.5,1.0,4.0,4.0,438.4134769998127,4.0,1.0,phase_1,,,,,,,,,,,,,blue,circle
103.0,2.0,1.0,0.0,3.0,3.0,425.7654319999346,4.0,1.0,phase_1,,,,,,,,,,,,,gray,triangle
36.0,1.0,0.5,0.0,1.0,1.0,257.1506170002067,4.0,1.0,phase_1,,,,,,,,,,,,,orange,diamond
80.0,6.0,1.0,1.0,1.0,1.0,309.0320200003589,4.0,1.0,phase_1,,,,,,,,,,,,,magenta,I
0.0,1.0,0.0,0.0,4.0,4.0,295.6025549997321,4.0,1.0,phase_1,,,,,,,,,,,,,orange,diamond
419.0,4.0,4.0,0.0,3.0,3.0,281.5936840001996,4.0,1.0,phase_1,,,,,,,,,,,,,green,hexagon
0.0,5.0,0.0,1.0,1.0,1.0,306.1040429997774,4.0,1.0,phase_1,,,,,,,,,,,,,blue,circle
108.0,6.0,1.0,1.0,3.0,3.0,438.3336840000993,4.0,1.0,phase_1,,,,,,,,,,,,,magenta,I
0.0,1.0,0.0,0.0,4.0,4.0,326.1536439999872,4.0,1.0,phase_1,,,,,,,,,,,,,orange,diamond
407.0,8.0,4.0,1.0,2.0,2.0,308.5826569999881,4.0,1.0,phase_1,,,,,,,,,,,,,cyan,square
394.0,8.0,4.0,1.0,3.0,3.0,383.2005129997924,4.0,1.0,phase_1,,,,,,,,,,,,,cyan,square
205.0,3.0,2.0,0.0,3.0,3.0,357.695245999821,4.0,1.0,phase_1,,,,,,,,,,,,,yellow,cross
379.0,4.0,4.0,0.0,3.0,3.0,478.19757499974,4.0,1.0,phase_1,,,,,,,,,,,,,green,hexagon
26.0,5.0,0.5,1.0,4.0,4.0,383.9071410002361,4.0,1.0,phase_1,,,,,,,,,,,,,blue,circle
415.0,8.0,4.0,1.0,4.0,4.0,749.9622899999849,4.0,1.0,phase_1,,,,,,,,,,,,,cyan,square
220.0,7.0,2.0,1.0,1.0,1.0,561.6656440001861,4.0,1.0,phase_1,,,,,,,,,,,,,white,flipped triangle
424.0,4.0,4.0,0.0,1.0,1.0,334.9204249998365,4.0,1.0,phase_1,,,,,,,,,,,,,green,hexagon
72.0,1.0,0.5,0.0,1.0,1.0,354.5804989998942,4.0,1.0,phase_1,,,,,,,,,,,,,orange,diamond
0.0,5.0,0.0,1.0,4.0,4.0,405.5926770001861,4.0,1.0,phase_1,,,,,,,,,,,,,blue,circle
0.0,4.0,0.0,0.0,3.0,3.0,755.813494999984,4.0,1.0,phase_1,,,,,,,,,,,,,green,hexagon
190.0,3.0,2.0,0.0,1.0,1.0,355.4197359999307,4.0,1.0,phase_1,,,,,,,,,,,,,yellow,cross
189.0,7.0,2.0,1.0,3.0,3.0,485.3230240000812,4.0,1.0,phase_1,,,,,,,,,,,,,white,flipped triangle
220.0,7.0,2.0,1.0,1.0,1.0,274.325023000074,4.0,1.0,phase_1,,,,,,,,,,,,,white,flipped triangle
218.0,3.0,2.0,0.0,1.0,1.0,360.3182650003873,4.0,1.0,phase_1,,,,,,,,,,,,,yellow,cross
121.0,6.0,1.0,1.0,4.0,4.0,410.1221810001334,4.0,1.0,phase_1,,,,,,,,,,,,,magenta,I
96.0,6.0,1.0,1.0,4.0,4.0,631.0123069997644,4.0,1.0,phase_1,,,,,,,,,,,,,magenta,I
376.0,4.0,4.0,0.0,2.0,2.0,360.6150850000631,4.0,1.0,phase_1,,,,,,,,,,,,,green,hexagon
33.0,5.0,0.5,1.0,4.0,4.0,256.2972020000416,4.0,1.0,phase_1,,,,,,,,,,,,,blue,circle
78.0,6.0,1.0,1.0,2.0,2.0,295.3403880001133,4.0,1.0,phase_1,,,,,,,,,,,,,magenta,I
0.0,2.0,0.0,0.0,4.0,4.0,327.7772729998105,4.0,1.0,phase_1,,,,,,,,,,,,,gray,triangle
207.0,7.0,2.0,1.0,2.0,2.0,278.7400100000923,4.0,1.0,phase_1,,,,,,,,,,,,,white,flipped triangle
0.0,7.0,0.0,1.0,3.0,3.0,357.527914000002,4.0,1.0,phase_1,,,,,,,,,,,,,white,flipped triangle
376.0,4.0,4.0,0.0,2.0,2.0,262.9779210001288,4.0,1.0,phase_1,,,,,,,,,,,,,green,hexagon
223.0,7.0,2.0,1.0,1.0,1.0,336.5098720000787,4.0,1.0,phase_1,,,,,,,,,,,,,white,flipped triangle
63.0,1.0,0.5,0.0,2.0,2.0,248.2220440001583,4.0,1.0,phase_1,,,,,,,,,,,,,orange,diamond
0.0,5.0,0.0,1.0,3.0,3.0,309.8047220000808,4.0,1.0,phase_1,,,,,,,,,,,,,blue,circle
106.0,6.0,1.0,1.0,1.0,1.0,266.7258110000148,4.0,1.0,phase_1,,,,,,,,,,,,,magenta,I
0.0,2.0,0.0,0.0,3.0,3.0,432.2720590002973,4.0,1.0,phase_1,,,,,,,,,,,,,gray,triangle
413.0,4.0,4.0,0.0,3.0,3.0,349.1702689998419,4.0,1.0,phase_1,,,,,,,,,,,,,green,hexagon
53.0,5.0,0.5,1.0,1.0,1.0,299.0613549995942,4.0,1.0,phase_1,,,,,,,,,,,,,blue,circle
80.0,6.0,1.0,1.0,4.0,4.0,348.2367789997624,4.0,1.0,phase_1,,,,,,,,,,,,,magenta,I
72.0,5.0,0.5,1.0,4.0,4.0,338.8780370000859,4.0,1.0,phase_1,,,,,,,,,,,,,blue,circle
72.0,1.0,0.5,0.0,3.0,3.0,429.3431209998744,4.0,1.0,phase_1,,,,,,,,,,,,,orange,diamond
39.0,5.0,0.5,1.0,3.0,3.0,332.6963179997619,4.0,1.0,phase_1,,,,,,,,,,,,,blue,circle
399.0,4.0,4.0,0.0,2.0,2.0,315.7852350000212,4.0,1.0,phase_1,,,,,,,,,,,,,green,hexagon
0.0,4.0,0.0,0.0,3.0,3.0,416.4737699998113,4.0,1.0,phase_1,,,,,,,,,,,,,green,hexagon
124.0,2.0,1.0,0.0,2.0,2.0,312.6350219999949,4.0,1.0,phase_1,,,,,,,,,,,,,gray,triangle
409.0,4.0,4.0,0.0,3.0,3.0,355.8611029998246,4.0,1.0,phase_1,,,,,,,,,,,,,green,hexagon
93.0,6.0,1.0,1.0,4.0,4.0,391.7515570001342,4.0,1.0,phase_1,,,,,,,,,,,,,magenta,I
0.0,6.0,0.0,1.0,4.0,4.0,345.3628379998008,4.0,1.0,phase_1,,,,,,,,,,,,,magenta,I
0.0,1.0,0.0,0.0,2.0,2.0,280.4469810002956,4.0,1.0,phase_1,,,,,,,,,,,,,orange,diamond
186.0,3.0,2.0,0.0,1.0,1.0,352.5014409997311,4.0,1.0,phase_1,,,,,,,,,,,,,yellow,cross
0.0,1.0,0.0,0.0,4.0,4.0,432.0626819999233,4.0,1.0,phase_1,,,,,,,,,,,,,orange,diamond
123.0,2.0,1.0,0.0,2.0,2.0,335.7326269997429,4.0,1.0,phase_1,,,,,,,,,,,,,gray,triangle
51.0,1.0,0.5,0.0,3.0,3.0,423.8772260000587,4.0,1.0,phase_1,,,,,,,,,,,,,orange,diamond
0.0,5.0,0.0,1.0,4.0,4.0,375.7767889997012,4.0,1.0,phase_1,,,,,,,,,,,,,blue,circle
0.0,4.0,0.0,0.0,3.0,3.0,519.8535869999432,4.0,1.0,phase_1,,,,,,,,,,,,,green,hexagon
0.0,2.0,0.0,0.0,3.0,3.0,470.1414020000811,4.0,1.0,phase_1,,,,,,,,,,,,,gray,triangle
177.0,3.0,2.0,0.0,3.0,3.0,402.8547090001666,4.0,1.0,phase_1,,,,,,,,,,,,,yellow,cross
399.0,8.0,4.0,1.0,3.0,3.0,316.5045099999588,4.0,1.0,phase_1,,,,,,,,,,,,,cyan,square
411.0,8.0,4.0,1.0,3.0,3.0,311.1360110001442,4.0,1.0,phase_1,,,,,,,,,,,,,cyan,square
379.0,8.0,4.0,1.0,4.0,4.0,400.0192660000721,4.0,1.0,phase_1,,,,,,,,,,,,,cyan,square
33.0,5.0,0.5,1.0,4.0,4.0,769.9611719999666,4.0,1.0,phase_1,,,,,,,,,,,,,blue,circle
71.0,1.0,0.5,0.0,2.0,2.0,372.1901470003104,4.0,1.0,phase_1,,,,,,,,,,,,,orange,diamond
393.0,4.0,4.0,0.0,4.0,4.0,454.0707900000598,4.0,1.0,phase_1,,,,,,,,,,,,,green,hexagon
25.0,5.0,0.5,1.0,3.0,3.0,394.6031929999662,4.0,1.0,phase_1,,,,,,,,,,,,,blue,circle
185.0,7.0,2.0,1.0,2.0,2.0,425.8211880000999,4.0,1.0,phase_1,,,,,,,,,,,,,white,flipped triangle
72.0,5.0,0.5,1.0,3.0,3.0,423.2908119997773,4.0,1.0,phase_1,,,,,,,,,,,,,blue,circle
102.0,2.0,1.0,0.0,2.0,2.0,318.5724499999196,4.0,1.0,phase_1,,,,,,,,,,,,,gray,triangle
92.0,6.0,1.0,1.0,1.0,1.0,532.0304859997123,4.0,1.0,phase_1,,,,,,,,,,,,,magenta,I
0.0,4.0,0.0,0.0,1.0,1.0,313.9889710000716,4.0,1.0,phase_1,,,,,,,,,,,,,green,hexagon
376.0,8.0,4.0,1.0,3.0,3.0,317.575317000319,4.0,1.0,phase_1,,,,,,,,,,,,,cyan,square
0.0,6.0,0.0,1.0,2.0,2.0,358.5745989998941,4.0,1.0,phase_1,,,,,,,,,,,,,magenta,I
93.0,2.0,1.0,0.0,2.0,2.0,334.9029880000671,4.0,1.0,phase_1,,,,,,,,,,,,,gray,triangle
413.0,8.0,4.0,1.0,1.0,1.0,293.6129749996325,4.0,1.0,phase_1,,,,,,,,,,,,,cyan,square
421.0,4.0,4.0,0.0,2.0,2.0,275.7082959997206,4.0,1.0,phase_1,,,,,,,,,,,,,green,hexagon
0.0,3.0,2.0,0.0,5.0,5.0,541.6568340001504,1.0,1.0,phase_2,go,250.0,250.0,1.0,,,,,,,,,yellow,cross
0.0,2.0,1.0,0.0,6.0,6.0,430.4445590000796,1.0,1.0,phase_2,go,250.0,250.0,1.0,,,,,,,,,gray,triangle
0.0,4.0,4.0,0.0,6.0,6.0,566.7642019998311,1.0,1.0,phase_2,go,250.0,250.0,1.0,,,,,,,,,green,hexagon
0.0,5.0,0.5,1.0,5.0,5.0,525.6815760003519,1.0,1.0,phase_2,go,250.0,250.0,1.0,,,,,,,,,blue,circle
0.0,3.0,2.0,0.0,6.0,6.0,429.9970900001426,1.0,1.0,phase_2,go,250.0,250.0,1.0,,,,,,,,,yellow,cross
0.0,4.0,4.0,0.0,6.0,6.0,570.2229529997567,1.0,1.0,phase_2,go,250.0,250.0,1.0,,,,,,,,,green,hexagon
0.0,5.0,0.5,1.0,5.0,0.0,0.0,1.0,1.0,phase_2,stop,250.0,250.0,4.0,,,,,,,,,blue,circle
0.0,6.0,1.0,1.0,5.0,0.0,0.0,1.0,1.0,phase_2,stop,300.0,250.0,4.0,,,,,,,,,magenta,I
0.0,6.0,1.0,1.0,6.0,6.0,574.6761810000862,1.0,1.0,phase_2,go,350.0,250.0,1.0,,,,,,,,,magenta,I
0.0,4.0,4.0,0.0,6.0,6.0,626.7767550002645,1.0,1.0,phase_2,go,350.0,250.0,1.0,,,,,,,,,green,hexagon
0.0,1.0,0.5,0.0,6.0,6.0,439.498796999942,1.0,1.0,phase_2,go,350.0,250.0,1.0,,,,,,,,,orange,diamond
0.0,1.0,0.5,0.0,6.0,6.0,433.1899409999096,1.0,1.0,phase_2,go,350.0,250.0,1.0,,,,,,,,,orange,diamond
0.0,8.0,4.0,1.0,5.0,0.0,0.0,1.0,1.0,phase_2,stop,350.0,250.0,4.0,,,,,,,,,cyan,square
0.0,7.0,2.0,1.0,6.0,6.0,437.5277699996331,1.0,1.0,phase_2,go,400.0,250.0,1.0,,,,,,,,,white,flipped triangle
0.0,7.0,2.0,1.0,5.0,5.0,437.1883089997936,1.0,1.0,phase_2,stop,400.0,250.0,3.0,,,,,,,,,white,flipped triangle
0.0,2.0,1.0,0.0,6.0,6.0,429.6780710001258,1.0,1.0,phase_2,go,350.0,250.0,1.0,,,,,,,,,gray,triangle
0.0,7.0,2.0,1.0,5.0,5.0,430.5645389999881,1.0,1.0,phase_2,stop,350.0,250.0,3.0,,,,,,,,,white,flipped triangle
0.0,2.0,1.0,0.0,5.0,5.0,853.7049749998005,1.0,1.0,phase_2,go,300.0,250.0,1.0,,,,,,,,,gray,triangle
0.0,2.0,1.0,0.0,5.0,5.0,586.9143810000423,1.0,1.0,phase_2,go,300.0,250.0,1.0,,,,,,,,,gray,triangle
0.0,6.0,1.0,1.0,6.0,0.0,0.0,1.0,1.0,phase_2,stop,300.0,250.0,4.0,,,,,,,,,magenta,I
0.0,4.0,4.0,0.0,6.0,6.0,719.315073999951,1.0,1.0,phase_2,go,300.0,300.0,1.0,,,,,,,,,green,hexagon
0.0,3.0,2.0,0.0,5.0,5.0,711.632426000051,1.0,1.0,phase_2,go,300.0,300.0,1.0,,,,,,,,,yellow,cross
0.0,1.0,0.5,0.0,5.0,5.0,527.2550419999789,1.0,1.0,phase_2,go,300.0,300.0,1.0,,,,,,,,,orange,diamond
0.0,5.0,0.5,1.0,6.0,0.0,0.0,1.0,1.0,phase_2,stop,300.0,300.0,4.0,,,,,,,,,blue,circle
0.0,2.0,1.0,0.0,6.0,6.0,485.6176850003066,1.0,1.0,phase_2,go,300.0,350.0,1.0,,,,,,,,,gray,triangle
0.0,3.0,2.0,0.0,5.0,5.0,705.7702540000719,1.0,1.0,phase_2,go,300.0,350.0,1.0,,,,,,,,,yellow,cross
0.0,5.0,0.5,1.0,5.0,0.0,0.0,1.0,1.0,phase_2,stop,300.0,350.0,4.0,,,,,,,,,blue,circle
0.0,5.0,0.5,1.0,5.0,0.0,0.0,1.0,1.0,phase_2,stop,350.0,350.0,4.0,,,,,,,,,blue,circle
0.0,7.0,2.0,1.0,5.0,0.0,0.0,1.0,1.0,phase_2,stop,400.0,350.0,4.0,,,,,,,,,white,flipped triangle
0.0,3.0,2.0,0.0,6.0,6.0,622.6870810000946,1.0,1.0,phase_2,go,450.0,350.0,1.0,,,,,,,,,yellow,cross
0.0,6.0,1.0,1.0,5.0,5.0,724.3876719999207,1.0,1.0,phase_2,go,450.0,350.0,1.0,,,,,,,,,magenta,I
0.0,7.0,2.0,1.0,6.0,0.0,0.0,1.0,1.0,phase_2,stop,450.0,350.0,4.0,,,,,,,,,white,flipped triangle
0.0,5.0,0.5,1.0,6.0,0.0,0.0,1.0,1.0,phase_2,stop,450.0,400.0,4.0,,,,,,,,,blue,circle
0.0,5.0,0.5,1.0,6.0,6.0,521.378869000273,1.0,1.0,phase_2,stop,450.0,450.0,3.0,,,,,,,,,blue,circle
0.0,4.0,4.0,0.0,6.0,6.0,644.0050100000008,1.0,1.0,phase_2,go,450.0,400.0,1.0,,,,,,,,,green,hexagon
0.0,6.0,1.0,1.0,6.0,0.0,0.0,1.0,1.0,phase_2,stop,450.0,400.0,4.0,,,,,,,,,magenta,I
0.0,8.0,4.0,1.0,5.0,5.0,1050.5595899999207,2.0,1.0,phase_2,go,450.0,450.0,1.0,,,,,,,,,cyan,square
0.0,1.0,0.5,0.0,6.0,6.0,723.2799459998205,2.0,1.0,phase_2,go,450.0,450.0,1.0,,,,,,,,,orange,diamond
0.0,8.0,4.0,1.0,6.0,0.0,0.0,2.0,1.0,phase_2,stop,450.0,450.0,4.0,,,,,,,,,cyan,square
0.0,6.0,1.0,1.0,6.0,6.0,616.1036529997546,2.0,1.0,phase_2,stop,450.0,500.0,3.0,,,,,,,,,magenta,I
0.0,6.0,1.0,1.0,5.0,0.0,0.0,2.0,1.0,phase_2,stop,450.0,450.0,4.0,,,,,,,,,magenta,I
0.0,2.0,1.0,0.0,6.0,6.0,867.1509430000697,2.0,1.0,phase_2,go,500.0,450.0,1.0,,,,,,,,,gray,triangle
0.0,1.0,0.5,0.0,6.0,6.0,774.8139440000159,2.0,1.0,phase_2,go,500.0,450.0,1.0,,,,,,,,,orange,diamond
0.0,8.0,4.0,1.0,6.0,6.0,919.3742699999348,2.0,1.0,phase_2,go,500.0,450.0,1.0,,,,,,,,,cyan,square
0.0,2.0,1.0,0.0,6.0,6.0,953.4876050001913,2.0,1.0,phase_2,go,500.0,450.0,1.0,,,,,,,,,gray,triangle
0.0,8.0,4.0,1.0,6.0,6.0,382.0460310003,2.0,1.0,phase_2,stop,500.0,450.0,3.0,,,,,,,,,cyan,square
0.0,1.0,0.5,0.0,6.0,6.0,759.6032940000441,2.0,1.0,phase_2,go,500.0,400.0,1.0,,,,,,,,,orange,diamond
0.0,3.0,2.0,0.0,5.0,5.0,753.1307440003729,2.0,1.0,phase_2,go,500.0,400.0,1.0,,,,,,,,,yellow,cross
0.0,5.0,0.5,1.0,6.0,6.0,369.9907930003974,2.0,1.0,phase_2,stop,500.0,400.0,3.0,,,,,,,,,blue,circle
0.0,2.0,1.0,0.0,6.0,6.0,641.0336769999958,2.0,1.0,phase_2,go,500.0,350.0,1.0,,,,,,,,,gray,triangle
0.0,3.0,2.0,0.0,6.0,6.0,816.6077099999711,2.0,1.0,phase_2,go,500.0,350.0,1.0,,,,,,,,,yellow,cross
0.0,1.0,0.5,0.0,6.0,6.0,744.2884690003666,2.0,1.0,phase_2,go,500.0,350.0,1.0,,,,,,,,,orange,diamond
0.0,1.0,0.5,0.0,6.0,6.0,424.6361020000222,2.0,1.0,phase_2,go,500.0,350.0,1.0,,,,,,,,,orange,diamond
0.0,5.0,0.5,1.0,6.0,6.0,725.4503970002588,2.0,1.0,phase_2,go,500.0,350.0,1.0,,,,,,,,,blue,circle
0.0,8.0,4.0,1.0,5.0,5.0,556.0437130002356,2.0,1.0,phase_2,stop,500.0,350.0,3.0,,,,,,,,,cyan,square
0.0,5.0,0.5,1.0,5.0,0.0,0.0,2.0,1.0,phase_2,stop,450.0,350.0,4.0,,,,,,,,,blue,circle
0.0,2.0,1.0,0.0,5.0,5.0,652.7316080000674,2.0,1.0,phase_2,go,500.0,350.0,1.0,,,,,,,,,gray,triangle
0.0,4.0,4.0,0.0,5.0,5.0,853.2410249999884,2.0,1.0,phase_2,go,500.0,350.0,1.0,,,,,,,,,green,hexagon
0.0,3.0,2.0,0.0,5.0,5.0,1000.4495210000639,2.0,1.0,phase_2,go,500.0,350.0,1.0,,,,,,,,,yellow,cross
0.0,4.0,4.0,0.0,5.0,5.0,722.2872319998714,2.0,1.0,phase_2,go,500.0,350.0,1.0,,,,,,,,,green,hexagon
0.0,4.0,4.0,0.0,5.0,5.0,594.3097750000561,2.0,1.0,phase_2,go,500.0,350.0,1.0,,,,,,,,,green,hexagon
0.0,5.0,0.5,1.0,6.0,0.0,0.0,2.0,1.0,phase_2,stop,500.0,350.0,4.0,,,,,,,,,blue,circle
0.0,6.0,1.0,1.0,5.0,5.0,566.6664899999887,2.0,1.0,phase_2,go,500.0,400.0,1.0,,,,,,,,,magenta,I
0.0,4.0,4.0,0.0,6.0,6.0,563.3533919999536,2.0,1.0,phase_2,go,500.0,400.0,1.0,,,,,,,,,green,hexagon
0.0,3.0,2.0,0.0,6.0,6.0,788.1385699997736,2.0,1.0,phase_2,go,500.0,400.0,1.0,,,,,,,,,yellow,cross
0.0,8.0,4.0,1.0,5.0,5.0,424.4624339999063,2.0,1.0,phase_2,stop,500.0,400.0,3.0,,,,,,,,,cyan,square
0.0,2.0,1.0,0.0,6.0,6.0,360.7708429999547,2.0,1.0,phase_2,go,450.0,400.0,1.0,,,,,,,,,gray,triangle
0.0,4.0,4.0,0.0,5.0,5.0,510.4157880000457,2.0,1.0,phase_2,go,450.0,400.0,1.0,,,,,,,,,green,hexagon
0.0,7.0,2.0,1.0,6.0,6.0,286.6050409998024,2.0,1.0,phase_2,stop,450.0,400.0,3.0,,,,,,,,,white,flipped triangle
0.0,6.0,1.0,1.0,5.0,5.0,425.1280049998058,2.0,1.0,phase_2,go,450.0,350.0,1.0,,,,,,,,,magenta,I
0.0,7.0,2.0,1.0,6.0,6.0,495.8785759999955,2.0,1.0,phase_2,stop,450.0,350.0,3.0,,,,,,,,,white,flipped triangle
0.0,2.0,1.0,0.0,5.0,5.0,581.9322190000094,2.0,1.0,phase_2,go,450.0,300.0,1.0,,,,,,,,,gray,triangle
0.0,1.0,0.5,0.0,6.0,6.0,714.0096590001122,3.0,1.0,phase_2,go,450.0,300.0,1.0,,,,,,,,,orange,diamond
0.0,8.0,4.0,1.0,6.0,6.0,415.2568019999307,3.0,1.0,phase_2,stop,450.0,300.0,3.0,,,,,,,,,cyan,square
0.0,8.0,4.0,1.0,6.0,0.0,0.0,3.0,1.0,phase_2,stop,450.0,250.0,4.0,,,,,,,,,cyan,square
0.0,2.0,1.0,0.0,5.0,5.0,453.4040989997265,3.0,1.0,phase_2,go,450.0,300.0,1.0,,,,,,,,,gray,triangle
0.0,4.0,4.0,0.0,6.0,6.0,342.3944139999548,3.0,1.0,phase_2,go,450.0,300.0,1.0,,,,,,,,,green,hexagon
0.0,2.0,1.0,0.0,6.0,6.0,550.1362119998703,3.0,1.0,phase_2,go,450.0,300.0,1.0,,,,,,,,,gray,triangle
0.0,1.0,0.5,0.0,5.0,5.0,318.6151139998401,3.0,1.0,phase_2,go,450.0,300.0,1.0,,,,,,,,,orange,diamond
0.0,6.0,1.0,1.0,6.0,6.0,272.3304230003123,3.0,1.0,phase_2,stop,450.0,300.0,3.0,,,,,,,,,magenta,I
0.0,4.0,4.0,0.0,5.0,5.0,265.2480920000926,3.0,1.0,phase_2,go,450.0,250.0,1.0,,,,,,,,,green,hexagon
0.0,7.0,2.0,1.0,6.0,6.0,395.682638999915,3.0,1.0,phase_2,stop,450.0,250.0,3.0,,,,,,,,,white,flipped triangle
0.0,5.0,0.5,1.0,6.0,0.0,0.0,3.0,1.0,phase_2,stop,450.0,200.0,4.0,,,,,,,,,blue,circle
0.0,2.0,1.0,0.0,5.0,5.0,317.3935130002974,3.0,1.0,phase_2,go,450.0,250.0,1.0,,,,,,,,,gray,triangle
0.0,8.0,4.0,1.0,5.0,5.0,354.9844760000269,3.0,1.0,phase_2,stop,450.0,250.0,3.0,,,,,,,,,cyan,square
0.0,5.0,0.5,1.0,6.0,0.0,0.0,3.0,1.0,phase_2,stop,400.0,250.0,4.0,,,,,,,,,blue,circle
0.0,2.0,1.0,0.0,5.0,5.0,364.6353739995902,3.0,1.0,phase_2,go,400.0,300.0,1.0,,,,,,,,,gray,triangle
0.0,3.0,2.0,0.0,6.0,6.0,539.2629329999181,3.0,1.0,phase_2,go,400.0,300.0,1.0,,,,,,,,,yellow,cross
0.0,8.0,4.0,1.0,6.0,0.0,0.0,3.0,1.0,phase_2,stop,400.0,300.0,4.0,,,,,,,,,cyan,square
0.0,5.0,0.5,1.0,6.0,0.0,0.0,3.0,1.0,phase_2,stop,400.0,350.0,4.0,,,,,,,,,blue,circle
0.0,3.0,2.0,0.0,5.0,5.0,601.8595710002046,3.0,1.0,phase_2,go,400.0,400.0,1.0,,,,,,,,,yellow,cross
0.0,1.0,0.5,0.0,5.0,5.0,417.8305650002585,3.0,1.0,phase_2,go,400.0,400.0,1.0,,,,,,,,,orange,diamond
0.0,3.0,2.0,0.0,5.0,5.0,373.8565460002974,3.0,1.0,phase_2,go,400.0,400.0,1.0,,,,,,,,,yellow,cross
0.0,3.0,2.0,0.0,5.0,5.0,364.8172670000349,3.0,1.0,phase_2,go,400.0,400.0,1.0,,,,,,,,,yellow,cross
0.0,7.0,2.0,1.0,6.0,6.0,440.7527569997,3.0,1.0,phase_2,stop,400.0,400.0,3.0,,,,,,,,,white,flipped triangle
0.0,8.0,4.0,1.0,6.0,0.0,0.0,3.0,1.0,phase_2,stop,400.0,350.0,4.0,,,,,,,,,cyan,square
0.0,2.0,1.0,0.0,5.0,5.0,451.105464000193,3.0,1.0,phase_2,go,400.0,400.0,1.0,,,,,,,,,gray,triangle
0.0,6.0,1.0,1.0,6.0,0.0,0.0,3.0,1.0,phase_2,stop,400.0,400.0,4.0,,,,,,,,,magenta,I
0.0,3.0,2.0,0.0,6.0,6.0,753.6008500001117,3.0,1.0,phase_2,go,400.0,450.0,1.0,,,,,,,,,yellow,cross
0.0,5.0,0.5,1.0,5.0,5.0,365.7484780001141,3.0,1.0,phase_2,stop,400.0,450.0,3.0,,,,,,,,,blue,circle
0.0,5.0,0.5,1.0,6.0,6.0,563.5514890000195,3.0,1.0,phase_2,stop,350.0,450.0,3.0,,,,,,,,,blue,circle
0.0,8.0,4.0,1.0,6.0,0.0,0.0,3.0,1.0,phase_2,stop,350.0,400.0,4.0,,,,,,,,,cyan,square
0.0,1.0,0.5,0.0,5.0,5.0,331.2494900001184,3.0,1.0,phase_2,go,350.0,450.0,1.0,,,,,,,,,orange,diamond
0.0,7.0,2.0,1.0,5.0,5.0,467.3857429997952,3.0,1.0,phase_2,stop,350.0,450.0,3.0,,,,,,,,,white,flipped triangle
0.0,1.0,0.5,0.0,5.0,5.0,632.214906000172,3.0,1.0,phase_2,go,300.0,450.0,1.0,,,,,,,,,orange,diamond
0.0,8.0,4.0,1.0,5.0,5.0,431.3037460001396,3.0,1.0,phase_2,stop,300.0,450.0,3.0,,,,,,,,,cyan,square
0.0,2.0,1.0,0.0,5.0,5.0,611.8009309998342,3.0,1.0,phase_2,go,250.0,450.0,1.0,,,,,,,,,gray,triangle
0.0,3.0,2.0,0.0,6.0,6.0,504.1201399999409,3.0,1.0,phase_2,go,250.0,450.0,1.0,,,,,,,,,yellow,cross
0.0,7.0,2.0,1.0,5.0,0.0,0.0,4.0,1.0,phase_2,stop,250.0,450.0,4.0,,,,,,,,,white,flipped triangle
0.0,4.0,4.0,0.0,5.0,5.0,548.9661980000164,4.0,1.0,phase_2,go,300.0,450.0,1.0,,,,,,,,,green,hexagon
0.0,1.0,0.5,0.0,5.0,5.0,575.7106189994374,4.0,1.0,phase_2,go,300.0,450.0,1.0,,,,,,,,,orange,diamond
0.0,7.0,2.0,1.0,5.0,5.0,324.3336000005001,4.0,1.0,phase_2,go,300.0,450.0,1.0,,,,,,,,,white,flipped triangle
0.0,6.0,1.0,1.0,6.0,6.0,344.1922960000738,4.0,1.0,phase_2,go,300.0,450.0,1.0,,,,,,,,,magenta,I
0.0,4.0,4.0,0.0,6.0,6.0,365.4011560001891,4.0,1.0,phase_2,go,300.0,450.0,1.0,,,,,,,,,green,hexagon
0.0,3.0,2.0,0.0,6.0,6.0,367.4216019999221,4.0,1.0,phase_2,go,300.0,450.0,1.0,,,,,,,,,yellow,cross
0.0,5.0,0.5,1.0,5.0,0.0,0.0,4.0,1.0,phase_2,stop,300.0,450.0,4.0,,,,,,,,,blue,circle
0.0,3.0,2.0,0.0,5.0,5.0,670.1625790001344,4.0,1.0,phase_2,go,350.0,450.0,1.0,,,,,,,,,yellow,cross
0.0,6.0,1.0,1.0,5.0,5.0,393.1556119996457,4.0,1.0,phase_2,stop,350.0,450.0,3.0,,,,,,,,,magenta,I
0.0,7.0,2.0,1.0,5.0,0.0,0.0,4.0,1.0,phase_2,stop,300.0,450.0,4.0,,,,,,,,,white,flipped triangle
0.0,6.0,1.0,1.0,5.0,0.0,0.0,4.0,1.0,phase_2,stop,350.0,450.0,4.0,,,,,,,,,magenta,I
0.0,4.0,4.0,0.0,5.0,5.0,600.6856940002763,4.0,1.0,phase_2,go,400.0,450.0,1.0,,,,,,,,,green,hexagon
0.0,7.0,2.0,1.0,5.0,5.0,529.2644140008633,4.0,1.0,phase_2,go,400.0,450.0,1.0,,,,,,,,,white,flipped triangle
0.0,2.0,1.0,0.0,6.0,6.0,295.088855999893,4.0,1.0,phase_2,go,400.0,450.0,1.0,,,,,,,,,gray,triangle
0.0,8.0,4.0,1.0,6.0,0.0,0.0,4.0,1.0,phase_2,stop,400.0,450.0,4.0,,,,,,,,,cyan,square
0.0,3.0,2.0,0.0,6.0,6.0,606.4438180001162,4.0,1.0,phase_2,go,400.0,500.0,1.0,,,,,,,,,yellow,cross
0.0,6.0,1.0,1.0,5.0,5.0,552.845946999696,4.0,1.0,phase_2,go,400.0,500.0,1.0,,,,,,,,,magenta,I
0.0,2.0,1.0,0.0,6.0,6.0,470.1061320001827,4.0,1.0,phase_2,go,400.0,500.0,1.0,,,,,,,,,gray,triangle
0.0,2.0,1.0,0.0,5.0,5.0,362.5724389994502,4.0,1.0,phase_2,go,400.0,500.0,1.0,,,,,,,,,gray,triangle
0.0,3.0,2.0,0.0,6.0,6.0,407.8254139994897,4.0,1.0,phase_2,go,400.0,500.0,1.0,,,,,,,,,yellow,cross
0.0,8.0,4.0,1.0,6.0,6.0,337.7377910001087,4.0,1.0,phase_2,go,400.0,500.0,1.0,,,,,,,,,cyan,square
0.0,1.0,0.5,0.0,6.0,6.0,361.6925720007202,4.0,1.0,phase_2,go,400.0,500.0,1.0,,,,,,,,,orange,diamond
0.0,7.0,2.0,1.0,6.0,6.0,495.9827910006424,4.0,1.0,phase_2,go,400.0,500.0,1.0,,,,,,,,,white,flipped triangle
0.0,5.0,0.5,1.0,5.0,0.0,0.0,4.0,1.0,phase_2,stop,400.0,500.0,4.0,,,,,,,,,blue,circle
0.0,7.0,2.0,1.0,6.0,6.0,443.6392890002025,4.0,1.0,phase_2,stop,450.0,500.0,3.0,,,,,,,,,white,flipped triangle
0.0,7.0,2.0,1.0,5.0,5.0,559.2669400002706,4.0,1.0,phase_2,stop,450.0,450.0,3.0,,,,,,,,,white,flipped triangle
0.0,7.0,2.0,1.0,5.0,5.0,721.8450619993746,4.0,1.0,phase_2,go,400.0,450.0,1.0,,,,,,,,,white,flipped triangle
0.0,3.0,2.0,0.0,6.0,6.0,498.3292500000971,4.0,1.0,phase_2,go,400.0,450.0,1.0,,,,,,,,,yellow,cross
0.0,3.0,2.0,0.0,5.0,5.0,338.5252910002236,4.0,1.0,phase_2,go,400.0,450.0,1.0,,,,,,,,,yellow,cross
0.0,1.0,0.5,0.0,5.0,5.0,399.8913020004693,4.0,1.0,phase_2,go,400.0,450.0,1.0,,,,,,,,,orange,diamond
0.0,3.0,2.0,0.0,5.0,5.0,371.5453550003076,4.0,1.0,phase_2,go,400.0,450.0,1.0,,,,,,,,,yellow,cross
0.0,4.0,4.0,0.0,6.0,6.0,410.9076820004702,4.0,1.0,phase_2,go,400.0,450.0,1.0,,,,,,,,,green,hexagon
0.0,4.0,4.0,0.0,5.0,5.0,464.5608150003681,4.0,1.0,phase_2,go,400.0,450.0,1.0,,,,,,,,,green,hexagon
0.0,5.0,0.5,1.0,5.0,0.0,0.0,4.0,1.0,phase_2,stop,400.0,450.0,4.0,,,,,,,,,blue,circle
0.0,3.0,2.0,0.0,5.0,5.0,671.8468239996582,4.0,1.0,phase_2,go,450.0,450.0,1.0,,,,,,,,,yellow,cross
0.0,2.0,1.0,0.0,5.0,5.0,803.5312259999046,5.0,1.0,phase_2,go,450.0,450.0,1.0,,,,,,,,,gray,triangle
0.0,8.0,4.0,1.0,6.0,6.0,604.3491419995917,5.0,1.0,phase_2,stop,450.0,450.0,3.0,,,,,,,,,cyan,square
0.0,1.0,0.5,0.0,5.0,5.0,312.7396669997324,5.0,1.0,phase_2,go,450.0,400.0,1.0,,,,,,,,,orange,diamond
0.0,3.0,2.0,0.0,6.0,6.0,433.5558120001224,5.0,1.0,phase_2,go,450.0,400.0,1.0,,,,,,,,,yellow,cross
0.0,8.0,4.0,1.0,6.0,6.0,625.2492369994798,5.0,1.0,phase_2,go,450.0,400.0,1.0,,,,,,,,,cyan,square
0.0,3.0,2.0,0.0,5.0,5.0,370.1197159998628,5.0,1.0,phase_2,go,450.0,400.0,1.0,,,,,,,,,yellow,cross
0.0,8.0,4.0,1.0,6.0,6.0,341.2306390000594,5.0,1.0,phase_2,go,450.0,400.0,1.0,,,,,,,,,cyan,square
0.0,3.0,2.0,0.0,5.0,5.0,416.4482360001784,5.0,1.0,phase_2,go,450.0,400.0,1.0,,,,,,,,,yellow,cross
0.0,5.0,0.5,1.0,5.0,5.0,587.199382000108,5.0,1.0,phase_2,stop,450.0,400.0,3.0,,,,,,,,,blue,circle
0.0,5.0,0.5,1.0,6.0,6.0,276.7802460002713,5.0,1.0,phase_2,stop,400.0,400.0,3.0,,,,,,,,,blue,circle
0.0,4.0,4.0,0.0,5.0,5.0,482.7961669998331,5.0,1.0,phase_2,go,400.0,350.0,1.0,,,,,,,,,green,hexagon
0.0,4.0,4.0,0.0,5.0,5.0,470.0931409997793,5.0,1.0,phase_2,go,400.0,350.0,1.0,,,,,,,,,green,hexagon
0.0,7.0,2.0,1.0,6.0,6.0,472.247710999909,5.0,1.0,phase_2,stop,400.0,350.0,3.0,,,,,,,,,white,flipped triangle
0.0,8.0,4.0,1.0,5.0,0.0,0.0,5.0,1.0,phase_2,stop,400.0,300.0,4.0,,,,,,,,,cyan,square
0.0,8.0,4.0,1.0,5.0,5.0,683.5622759999751,5.0,1.0,phase_2,go,450.0,300.0,1.0,,,,,,,,,cyan,square
0.0,7.0,2.0,1.0,5.0,5.0,728.4436849995473,5.0,1.0,phase_2,go,450.0,300.0,1.0,,,,,,,,,white,flipped triangle
0.0,2.0,1.0,0.0,6.0,6.0,812.8354970003784,5.0,1.0,phase_2,go,450.0,300.0,1.0,,,,,,,,,gray,triangle
0.0,4.0,4.0,0.0,6.0,6.0,471.8288109997957,5.0,1.0,phase_2,go,450.0,300.0,1.0,,,,,,,,,green,hexagon
0.0,6.0,1.0,1.0,6.0,6.0,400.2713949994358,5.0,1.0,phase_2,stop,450.0,300.0,3.0,,,,,,,,,magenta,I
0.0,1.0,0.5,0.0,5.0,5.0,471.0952539999198,5.0,1.0,phase_2,go,450.0,250.0,1.0,,,,,,,,,orange,diamond
0.0,4.0,4.0,0.0,6.0,6.0,844.4449540002097,5.0,1.0,phase_2,go,450.0,250.0,1.0,,,,,,,,,green,hexagon
0.0,5.0,0.5,1.0,6.0,6.0,439.1224619994318,5.0,1.0,phase_2,stop,450.0,250.0,3.0,,,,,,,,,blue,circle
0.0,1.0,0.5,0.0,5.0,5.0,408.9645389994985,5.0,1.0,phase_2,go,450.0,200.0,1.0,,,,,,,,,orange,diamond
0.0,8.0,4.0,1.0,5.0,5.0,534.0527309999743,5.0,1.0,phase_2,stop,450.0,200.0,3.0,,,,,,,,,cyan,square
0.0,6.0,1.0,1.0,5.0,5.0,394.8304810000991,5.0,1.0,phase_2,stop,400.0,200.0,3.0,,,,,,,,,magenta,I
0.0,7.0,2.0,1.0,6.0,6.0,801.6875399998753,5.0,1.0,phase_2,go,350.0,200.0,1.0,,,,,,,,,white,flipped triangle
0.0,6.0,1.0,1.0,6.0,0.0,0.0,5.0,1.0,phase_2,stop,350.0,200.0,4.0,,,,,,,,,magenta,I
0.0,3.0,2.0,0.0,6.0,6.0,513.8202529997216,5.0,1.0,phase_2,go,350.0,250.0,1.0,,,,,,,,,yellow,cross
0.0,6.0,1.0,1.0,6.0,6.0,438.1479040002887,5.0,1.0,phase_2,stop,350.0,250.0,3.0,,,,,,,,,magenta,I
0.0,4.0,4.0,0.0,5.0,5.0,371.9910009995146,5.0,1.0,phase_2,go,350.0,200.0,1.0,,,,,,,,,green,hexagon
0.0,6.0,1.0,1.0,6.0,0.0,0.0,5.0,1.0,phase_2,stop,350.0,200.0,4.0,,,,,,,,,magenta,I
0.0,8.0,4.0,1.0,6.0,0.0,0.0,5.0,1.0,phase_2,stop,350.0,250.0,4.0,,,,,,,,,cyan,square
0.0,2.0,1.0,0.0,5.0,5.0,580.6616189993292,5.0,1.0,phase_2,go,350.0,300.0,1.0,,,,,,,,,gray,triangle
0.0,7.0,2.0,1.0,6.0,0.0,0.0,5.0,1.0,phase_2,stop,350.0,300.0,4.0,,,,,,,,,white,flipped triangle
0.0,5.0,0.5,1.0,6.0,0.0,0.0,5.0,1.0,phase_2,stop,350.0,350.0,4.0,,,,,,,,,blue,circle
0.0,4.0,4.0,0.0,5.0,5.0,643.9645509999536,5.0,1.0,phase_2,go,350.0,400.0,1.0,,,,,,,,,green,hexagon
0.0,8.0,4.0,1.0,5.0,0.0,0.0,6.0,1.0,phase_2,stop,350.0,400.0,4.0,,,,,,,,,cyan,square
0.0,5.0,0.5,1.0,5.0,5.0,557.4543859993355,6.0,1.0,phase_2,stop,400.0,400.0,3.0,,,,,,,,,blue,circle
0.0,6.0,1.0,1.0,6.0,6.0,552.7957490003246,6.0,1.0,phase_2,stop,350.0,400.0,3.0,,,,,,,,,magenta,I
0.0,7.0,2.0,1.0,6.0,6.0,764.4870900003298,6.0,1.0,phase_2,go,350.0,350.0,1.0,,,,,,,,,white,flipped triangle
0.0,1.0,0.5,0.0,6.0,6.0,540.1658249993488,6.0,1.0,phase_2,go,350.0,350.0,1.0,,,,,,,,,orange,diamond
0.0,2.0,1.0,0.0,5.0,5.0,369.8296120001032,6.0,1.0,phase_2,go,350.0,350.0,1.0,,,,,,,,,gray,triangle
0.0,6.0,1.0,1.0,5.0,0.0,0.0,6.0,1.0,phase_2,stop,350.0,350.0,4.0,,,,,,,,,magenta,I
0.0,7.0,2.0,1.0,5.0,0.0,0.0,6.0,1.0,phase_2,stop,400.0,350.0,4.0,,,,,,,,,white,flipped triangle
0.0,1.0,0.5,0.0,5.0,5.0,617.6969269999972,6.0,1.0,phase_2,go,450.0,350.0,1.0,,,,,,,,,orange,diamond
0.0,1.0,0.5,0.0,6.0,6.0,775.3179649998856,6.0,1.0,phase_2,go,450.0,350.0,1.0,,,,,,,,,orange,diamond
0.0,6.0,1.0,1.0,5.0,0.0,0.0,6.0,1.0,phase_2,stop,450.0,350.0,4.0,,,,,,,,,magenta,I
0.0,2.0,1.0,0.0,6.0,6.0,582.2149749992604,6.0,1.0,phase_2,go,500.0,350.0,1.0,,,,,,,,,gray,triangle
0.0,5.0,0.5,1.0,6.0,6.0,955.2098929998464,6.0,1.0,phase_2,go,500.0,350.0,1.0,,,,,,,,,blue,circle
0.0,4.0,4.0,0.0,5.0,5.0,804.6026649999476,6.0,1.0,phase_2,go,500.0,350.0,1.0,,,,,,,,,green,hexagon
0.0,8.0,4.0,1.0,6.0,0.0,0.0,6.0,1.0,phase_2,stop,500.0,350.0,4.0,,,,,,,,,cyan,square
0.0,3.0,2.0,0.0,5.0,5.0,759.335691999695,6.0,1.0,phase_2,go,500.0,400.0,1.0,,,,,,,,,yellow,cross
0.0,4.0,4.0,0.0,5.0,5.0,646.2151819996507,6.0,1.0,phase_2,go,500.0,400.0,1.0,,,,,,,,,green,hexagon
0.0,5.0,0.5,1.0,5.0,5.0,693.1916419998743,6.0,1.0,phase_2,stop,500.0,400.0,3.0,,,,,,,,,blue,circle
0.0,4.0,4.0,0.0,5.0,5.0,604.8434419999467,6.0,1.0,phase_2,go,450.0,400.0,1.0,,,,,,,,,green,hexagon
0.0,4.0,4.0,0.0,5.0,5.0,621.8166230000861,6.0,1.0,phase_2,go,450.0,400.0,1.0,,,,,,,,,green,hexagon
0.0,8.0,4.0,1.0,5.0,0.0,0.0,6.0,1.0,phase_2,stop,450.0,400.0,4.0,,,,,,,,,cyan,square
0.0,3.0,2.0,0.0,6.0,6.0,581.2534389997381,6.0,1.0,phase_2,go,500.0,400.0,1.0,,,,,,,,,yellow,cross
0.0,2.0,1.0,0.0,5.0,5.0,696.1487510006918,6.0,1.0,phase_2,go,500.0,400.0,1.0,,,,,,,,,gray,triangle
0.0,2.0,1.0,0.0,5.0,5.0,511.77178800026013,6.0,1.0,phase_2,go,500.0,400.0,1.0,,,,,,,,,gray,triangle
0.0,8.0,4.0,1.0,6.0,6.0,1013.0664879998219,6.0,1.0,phase_2,go,500.0,400.0,1.0,,,,,,,,,cyan,square
0.0,1.0,0.5,0.0,6.0,6.0,637.0118640006694,6.0,1.0,phase_2,go,500.0,400.0,1.0,,,,,,,,,orange,diamond
0.0,4.0,4.0,0.0,6.0,6.0,537.7402779995464,6.0,1.0,phase_2,go,500.0,400.0,1.0,,,,,,,,,green,hexagon
0.0,2.0,1.0,0.0,5.0,5.0,668.6603129992363,6.0,1.0,phase_2,go,500.0,400.0,1.0,,,,,,,,,gray,triangle
0.0,1.0,0.5,0.0,5.0,5.0,512.5566520000575,6.0,1.0,phase_2,go,500.0,400.0,1.0,,,,,,,,,orange,diamond
0.0,7.0,2.0,1.0,6.0,6.0,566.7188209999949,6.0,1.0,phase_2,stop,500.0,400.0,3.0,,,,,,,,,white,flipped triangle
0.0,7.0,2.0,1.0,6.0,0.0,0.0,6.0,1.0,phase_2,stop,500.0,350.0,4.0,,,,,,,,,white,flipped triangle
0.0,5.0,0.5,1.0,6.0,6.0,749.7386679997362,6.0,1.0,phase_2,go,500.0,400.0,1.0,,,,,,,,,blue,circle
0.0,8.0,4.0,1.0,6.0,0.0,0.0,6.0,1.0,phase_2,stop,500.0,400.0,4.0,,,,,,,,,cyan,square
0.0,6.0,1.0,1.0,5.0,0.0,0.0,6.0,1.0,phase_2,stop,500.0,450.0,4.0,,,,,,,,,magenta,I
0.0,3.0,2.0,0.0,6.0,6.0,829.5910910001112,6.0,1.0,phase_2,go,550.0,450.0,1.0,,,,,,,,,yellow,cross
0.0,8.0,4.0,1.0,5.0,0.0,0.0,6.0,1.0,phase_2,stop,550.0,450.0,4.0,,,,,,,,,cyan,square
0.0,6.0,1.0,1.0,6.0,6.0,705.651960999603,7.0,1.0,phase_2,go,600.0,450.0,1.0,,,,,,,,,magenta,I
0.0,7.0,2.0,1.0,6.0,6.0,488.3828110005197,7.0,1.0,phase_2,stop,600.0,450.0,3.0,,,,,,,,,white,flipped triangle
0.0,2.0,1.0,0.0,5.0,5.0,278.9083099996787,7.0,1.0,phase_2,go,600.0,400.0,1.0,,,,,,,,,gray,triangle
0.0,6.0,1.0,1.0,6.0,6.0,639.0741209997941,7.0,1.0,phase_2,stop,600.0,400.0,3.0,,,,,,,,,magenta,I
0.0,8.0,4.0,1.0,5.0,5.0,656.5559560003749,7.0,1.0,phase_2,go,600.0,350.0,1.0,,,,,,,,,cyan,square
0.0,7.0,2.0,1.0,5.0,5.0,346.2485560003188,7.0,1.0,phase_2,stop,600.0,350.0,3.0,,,,,,,,,white,flipped triangle
0.0,1.0,0.5,0.0,5.0,5.0,477.0964650006135,7.0,1.0,phase_2,go,550.0,350.0,1.0,,,,,,,,,orange,diamond
0.0,1.0,0.5,0.0,5.0,5.0,331.1764579993905,7.0,1.0,phase_2,go,550.0,350.0,1.0,,,,,,,,,orange,diamond
0.0,2.0,1.0,0.0,6.0,6.0,460.4952569998204,7.0,1.0,phase_2,go,550.0,350.0,1.0,,,,,,,,,gray,triangle
0.0,1.0,0.5,0.0,5.0,5.0,514.111249999587,7.0,1.0,phase_2,go,550.0,350.0,1.0,,,,,,,,,orange,diamond
0.0,5.0,0.5,1.0,6.0,6.0,307.7476730004491,7.0,1.0,phase_2,go,550.0,350.0,1.0,,,,,,,,,blue,circle
0.0,6.0,1.0,1.0,6.0,6.0,329.7567660001732,7.0,1.0,phase_2,stop,550.0,350.0,3.0,,,,,,,,,magenta,I
0.0,3.0,2.0,0.0,5.0,5.0,238.9376219998666,7.0,1.0,phase_2,go,550.0,300.0,1.0,,,,,,,,,yellow,cross
0.0,1.0,0.5,0.0,6.0,6.0,291.3535190000402,7.0,1.0,phase_2,go,550.0,300.0,1.0,,,,,,,,,orange,diamond
0.0,1.0,0.5,0.0,5.0,5.0,689.2619849995754,7.0,1.0,phase_2,go,550.0,300.0,1.0,,,,,,,,,orange,diamond
0.0,4.0,4.0,0.0,5.0,5.0,267.6360580007895,7.0,1.0,phase_2,go,550.0,300.0,1.0,,,,,,,,,green,hexagon
0.0,3.0,2.0,0.0,6.0,6.0,248.567269999512,7.0,1.0,phase_2,go,550.0,300.0,1.0,,,,,,,,,yellow,cross
0.0,6.0,1.0,1.0,5.0,5.0,272.6211859999239,7.0,1.0,phase_2,stop,550.0,300.0,3.0,,,,,,,,,magenta,I
0.0,7.0,2.0,1.0,5.0,5.0,532.8602139998111,7.0,1.0,phase_2,stop,500.0,300.0,3.0,,,,,,,,,white,flipped triangle
0.0,6.0,1.0,1.0,5.0,5.0,567.7693169991471,7.0,1.0,phase_2,go,450.0,300.0,1.0,,,,,,,,,magenta,I
0.0,1.0,0.5,0.0,5.0,5.0,400.3949799998736,7.0,1.0,phase_2,go,450.0,300.0,1.0,,,,,,,,,orange,diamond
0.0,8.0,4.0,1.0,6.0,0.0,0.0,7.0,1.0,phase_2,stop,450.0,300.0,4.0,,,,,,,,,cyan,square
0.0,4.0,4.0,0.0,5.0,5.0,467.4057210004321,7.0,1.0,phase_2,go,450.0,350.0,1.0,,,,,,,,,green,hexagon
0.0,4.0,4.0,0.0,6.0,6.0,427.3201300002256,7.0,1.0,phase_2,go,450.0,350.0,1.0,,,,,,,,,green,hexagon
0.0,2.0,1.0,0.0,6.0,6.0,366.0848179997629,7.0,1.0,phase_2,go,450.0,350.0,1.0,,,,,,,,,gray,triangle
0.0,3.0,2.0,0.0,5.0,5.0,397.0936280002206,7.0,1.0,phase_2,go,450.0,350.0,1.0,,,,,,,,,yellow,cross
0.0,4.0,4.0,0.0,6.0,6.0,248.7799629998335,7.0,1.0,phase_2,go,450.0,350.0,1.0,,,,,,,,,green,hexagon
0.0,6.0,1.0,1.0,5.0,5.0,295.8572759998787,7.0,1.0,phase_2,stop,450.0,350.0,3.0,,,,,,,,,magenta,I
0.0,5.0,0.5,1.0,5.0,5.0,332.2382500000458,7.0,1.0,phase_2,stop,400.0,350.0,3.0,,,,,,,,,blue,circle
0.0,3.0,2.0,0.0,5.0,5.0,467.4955579994275,7.0,1.0,phase_2,go,350.0,350.0,1.0,,,,,,,,,yellow,cross
0.0,4.0,4.0,0.0,6.0,6.0,411.0126420000597,7.0,1.0,phase_2,go,350.0,350.0,1.0,,,,,,,,,green,hexagon
0.0,4.0,4.0,0.0,6.0,6.0,348.5138020005252,7.0,1.0,phase_2,go,350.0,350.0,1.0,,,,,,,,,green,hexagon
0.0,6.0,1.0,1.0,5.0,5.0,295.4841810005746,7.0,1.0,phase_2,stop,350.0,350.0,3.0,,,,,,,,,magenta,I
0.0,6.0,1.0,1.0,5.0,0.0,0.0,7.0,1.0,phase_2,stop,300.0,350.0,4.0,,,,,,,,,magenta,I
0.0,2.0,1.0,0.0,6.0,6.0,372.2986170005242,7.0,1.0,phase_2,go,350.0,350.0,1.0,,,,,,,,,gray,triangle
0.0,5.0,0.5,1.0,5.0,5.0,391.6446299999734,7.0,1.0,phase_2,stop,350.0,350.0,3.0,,,,,,,,,blue,circle
0.0,1.0,0.5,0.0,6.0,6.0,830.2401569999347,8.0,1.0,phase_2,go,300.0,350.0,1.0,,,,,,,,,orange,diamond
0.0,1.0,0.5,0.0,6.0,6.0,438.1953649999559,8.0,1.0,phase_2,go,300.0,350.0,1.0,,,,,,,,,orange,diamond
0.0,6.0,1.0,1.0,6.0,6.0,331.2383450002016,8.0,1.0,phase_2,stop,300.0,350.0,3.0,,,,,,,,,magenta,I
0.0,6.0,1.0,1.0,5.0,5.0,388.673782999831,8.0,1.0,phase_2,stop,300.0,300.0,3.0,,,,,,,,,magenta,I
0.0,6.0,1.0,1.0,6.0,6.0,530.7734629996048,8.0,1.0,phase_2,go,250.0,300.0,1.0,,,,,,,,,magenta,I
0.0,4.0,4.0,0.0,6.0,6.0,334.2167769997104,8.0,1.0,phase_2,go,250.0,300.0,1.0,,,,,,,,,green,hexagon
0.0,1.0,0.5,0.0,6.0,6.0,567.9225009998845,8.0,1.0,phase_2,go,250.0,300.0,1.0,,,,,,,,,orange,diamond
0.0,7.0,2.0,1.0,5.0,5.0,318.2106389995169,8.0,1.0,phase_2,stop,250.0,300.0,3.0,,,,,,,,,white,flipped triangle
0.0,7.0,2.0,1.0,5.0,5.0,496.934255999804,8.0,1.0,phase_2,go,200.0,300.0,1.0,,,,,,,,,white,flipped triangle
0.0,4.0,4.0,0.0,6.0,6.0,478.8961379999819,8.0,1.0,phase_2,go,200.0,300.0,1.0,,,,,,,,,green,hexagon
0.0,5.0,0.5,1.0,5.0,5.0,622.4485610000556,8.0,1.0,phase_2,go,200.0,300.0,1.0,,,,,,,,,blue,circle
0.0,7.0,2.0,1.0,6.0,6.0,419.3153510004777,8.0,1.0,phase_2,stop,200.0,300.0,3.0,,,,,,,,,white,flipped triangle
0.0,5.0,0.5,1.0,5.0,0.0,0.0,8.0,1.0,phase_2,stop,200.0,250.0,4.0,,,,,,,,,blue,circle
0.0,8.0,4.0,1.0,5.0,0.0,0.0,8.0,1.0,phase_2,stop,250.0,250.0,4.0,,,,,,,,,cyan,square
0.0,2.0,1.0,0.0,5.0,5.0,504.1958990004787,8.0,1.0,phase_2,go,300.0,250.0,1.0,,,,,,,,,gray,triangle
0.0,5.0,0.5,1.0,5.0,5.0,788.853172999552,8.0,1.0,phase_2,go,300.0,250.0,1.0,,,,,,,,,blue,circle
0.0,3.0,2.0,0.0,6.0,6.0,528.6034720002135,8.0,1.0,phase_2,go,300.0,250.0,1.0,,,,,,,,,yellow,cross
0.0,5.0,0.5,1.0,6.0,6.0,804.8359939994043,8.0,1.0,phase_2,go,300.0,250.0,1.0,,,,,,,,,blue,circle
0.0,1.0,0.5,0.0,6.0,6.0,473.5669640003834,8.0,1.0,phase_2,go,300.0,250.0,1.0,,,,,,,,,orange,diamond
0.0,2.0,1.0,0.0,6.0,6.0,605.9087099993121,8.0,1.0,phase_2,go,300.0,250.0,1.0,,,,,,,,,gray,triangle
0.0,5.0,0.5,1.0,6.0,6.0,360.1780460003283,8.0,1.0,phase_2,stop,300.0,250.0,3.0,,,,,,,,,blue,circle
0.0,7.0,2.0,1.0,6.0,0.0,0.0,8.0,1.0,phase_2,stop,300.0,200.0,4.0,,,,,,,,,white,flipped triangle
0.0,3.0,2.0,0.0,6.0,6.0,400.5354659993827,8.0,1.0,phase_2,go,300.0,250.0,1.0,,,,,,,,,yellow,cross
0.0,8.0,4.0,1.0,5.0,0.0,0.0,8.0,1.0,phase_2,stop,300.0,250.0,4.0,,,,,,,,,cyan,square
0.0,5.0,0.5,1.0,5.0,5.0,758.5510760000034,8.0,1.0,phase_2,go,350.0,250.0,1.0,,,,,,,,,blue,circle
0.0,1.0,0.5,0.0,5.0,5.0,347.3351439997714,8.0,1.0,phase_2,go,350.0,250.0,1.0,,,,,,,,,orange,diamond
0.0,2.0,1.0,0.0,6.0,6.0,302.4857290001819,8.0,1.0,phase_2,go,350.0,250.0,1.0,,,,,,,,,gray,triangle
0.0,7.0,2.0,1.0,5.0,5.0,391.5893719995438,8.0,1.0,phase_2,stop,350.0,250.0,3.0,,,,,,,,,white,flipped triangle
0.0,1.0,0.5,0.0,6.0,6.0,683.3669610005018,8.0,1.0,phase_2,go,300.0,250.0,1.0,,,,,,,,,orange,diamond
0.0,6.0,1.0,1.0,6.0,0.0,0.0,8.0,1.0,phase_2,stop,300.0,250.0,4.0,,,,,,,,,magenta,I
0.0,2.0,1.0,0.0,6.0,6.0,722.3408239997298,8.0,1.0,phase_2,go,300.0,300.0,1.0,,,,,,,,,gray,triangle
0.0,7.0,2.0,1.0,6.0,0.0,0.0,8.0,1.0,phase_2,stop,300.0,300.0,4.0,,,,,,,,,white,flipped triangle
0.0,8.0,4.0,1.0,5.0,0.0,0.0,8.0,1.0,phase_2,stop,300.0,350.0,4.0,,,,,,,,,cyan,square
0.0,8.0,4.0,1.0,5.0,5.0,597.297577000063,8.0,1.0,phase_2,go,350.0,350.0,1.0,,,,,,,,,cyan,square
0.0,8.0,4.0,1.0,5.0,0.0,0.0,8.0,1.0,phase_2,stop,350.0,350.0,4.0,,,,,,,,,cyan,square
0.0,7.0,2.0,1.0,5.0,0.0,0.0,8.0,1.0,phase_2,stop,400.0,350.0,4.0,,,,,,,,,white,flipped triangle
0.0,5.0,0.5,1.0,7.0,2.0,3501.8083239992848,1.0,1.0,phase_3,,,,,196.0,4.0,98.0,196.0,245.0,147.0,49.0,294.0,blue,circle
0.0,6.0,1.0,1.0,7.0,3.0,3289.1304670001773,1.0,1.0,phase_3,,,,,270.0,5.0,324.0,108.0,270.0,54.0,216.0,162.0,magenta,I
0.0,5.0,0.5,1.0,7.0,1.0,1785.9746659996745,1.0,1.0,phase_3,,,,,195.0,5.0,195.0,39.0,156.0,78.0,117.0,234.0,blue,circle
0.0,6.0,1.0,1.0,7.0,5.0,1665.7111490003444,1.0,1.0,phase_3,,,,,234.0,6.0,78.0,39.0,117.0,156.0,234.0,195.0,magenta,I
0.0,7.0,2.0,1.0,7.0,3.0,2557.908882999982,1.0,1.0,phase_3,,,,,98.0,2.0,147.0,294.0,98.0,245.0,49.0,196.0,white,flipped triangle
0.0,1.0,0.5,0.0,7.0,2.0,1813.1648209991909,1.0,1.0,phase_3,,,,,136.0,4.0,34.0,136.0,204.0,102.0,68.0,170.0,orange,diamond
0.0,7.0,2.0,1.0,7.0,3.0,3464.5261180003217,1.0,1.0,phase_3,,,,,108.0,2.0,162.0,216.0,108.0,54.0,324.0,270.0,white,flipped triangle
0.0,8.0,4.0,1.0,7.0,3.0,1859.0008379997016,1.0,1.0,phase_3,,,,,176.0,4.0,44.0,88.0,176.0,264.0,220.0,132.0,cyan,square
0.0,2.0,1.0,0.0,7.0,5.0,3812.40046000039,1.0,1.0,phase_3,,,,,245.0,5.0,98.0,49.0,294.0,147.0,245.0,196.0,gray,triangle
0.0,3.0,2.0,0.0,7.0,6.0,2363.1266259999397,1.0,1.0,phase_3,,,,,264.0,6.0,176.0,132.0,88.0,220.0,44.0,264.0,yellow,cross
0.0,4.0,4.0,0.0,7.0,1.0,1795.9995890005302,1.0,1.0,phase_3,,,,,264.0,6.0,264.0,132.0,220.0,44.0,88.0,176.0,green,hexagon
0.0,7.0,2.0,1.0,7.0,6.0,2957.3590330001025,1.0,1.0,phase_3,,,,,78.0,2.0,195.0,117.0,39.0,156.0,234.0,78.0,white,flipped triangle
0.0,5.0,0.5,1.0,7.0,2.0,3080.801380000594,1.0,1.0,phase_3,,,,,88.0,2.0,220.0,88.0,132.0,264.0,176.0,44.0,blue,circle
0.0,5.0,0.5,1.0,7.0,4.0,3247.177620000002,1.0,1.0,phase_3,,,,,78.0,2.0,234.0,156.0,117.0,78.0,39.0,195.0,blue,circle
0.0,6.0,1.0,1.0,7.0,2.0,2342.1211959994253,1.0,1.0,phase_3,,,,,162.0,3.0,216.0,162.0,270.0,54.0,108.0,324.0,magenta,I
0.0,7.0,2.0,1.0,7.0,4.0,2687.371639999583,1.0,1.0,phase_3,,,,,78.0,2.0,117.0,156.0,39.0,78.0,234.0,195.0,white,flipped triangle
0.0,2.0,1.0,0.0,7.0,5.0,1508.7159849999807,1.0,1.0,phase_3,,,,,176.0,4.0,132.0,220.0,88.0,264.0,176.0,44.0,gray,triangle
0.0,4.0,4.0,0.0,7.0,2.0,2876.0794410000017,1.0,1.0,phase_3,,,,,245.0,5.0,294.0,245.0,49.0,147.0,196.0,98.0,green,hexagon
0.0,3.0,2.0,0.0,7.0,1.0,2104.1780780005865,1.0,1.0,phase_3,,,,,204.0,6.0,204.0,170.0,34.0,102.0,68.0,136.0,yellow,cross
0.0,8.0,4.0,1.0,7.0,3.0,1828.5009169994737,1.0,1.0,phase_3,,,,,195.0,5.0,117.0,156.0,195.0,78.0,39.0,234.0,cyan,square
0.0,3.0,2.0,0.0,7.0,5.0,1377.1989540000504,2.0,1.0,phase_3,,,,,220.0,5.0,132.0,88.0,176.0,44.0,220.0,264.0,yellow,cross
0.0,5.0,0.5,1.0,7.0,1.0,2631.12409400037,2.0,1.0,phase_3,,,,,102.0,3.0,102.0,204.0,34.0,170.0,68.0,136.0,blue,circle
0.0,8.0,4.0,1.0,7.0,4.0,2171.2349950003045,2.0,1.0,phase_3,,,,,245.0,5.0,147.0,294.0,98.0,245.0,196.0,49.0,cyan,square
0.0,4.0,4.0,0.0,7.0,6.0,2783.6172699999224,2.0,1.0,phase_3,,,,,294.0,6.0,147.0,98.0,245.0,196.0,49.0,294.0,green,hexagon
0.0,1.0,0.5,0.0,7.0,3.0,3573.9683330002663,2.0,1.0,phase_3,,,,,234.0,6.0,156.0,78.0,234.0,39.0,195.0,117.0,orange,diamond
0.0,2.0,1.0,0.0,7.0,3.0,3523.806082999726,2.0,1.0,phase_3,,,,,170.0,5.0,34.0,102.0,170.0,136.0,204.0,68.0,gray,triangle
0.0,1.0,0.5,0.0,7.0,6.0,2285.1840880002783,2.0,1.0,phase_3,,,,,220.0,5.0,176.0,88.0,132.0,44.0,264.0,220.0,orange,diamond
0.0,4.0,4.0,0.0,7.0,6.0,4027.473850000206,2.0,1.0,phase_3,,,,,270.0,5.0,324.0,162.0,108.0,54.0,216.0,270.0,green,hexagon
0.0,8.0,4.0,1.0,7.0,3.0,3134.2817230006403,2.0,1.0,phase_3,,,,,245.0,5.0,196.0,49.0,245.0,147.0,98.0,294.0,cyan,square
0.0,2.0,1.0,0.0,7.0,1.0,2511.4462050005386,2.0,1.0,phase_3,,,,,245.0,5.0,245.0,147.0,49.0,196.0,294.0,98.0,gray,triangle
0.0,6.0,1.0,1.0,7.0,1.0,2397.145580999677,2.0,1.0,phase_3,,,,,234.0,6.0,234.0,117.0,39.0,195.0,78.0,156.0,magenta,I
0.0,1.0,0.5,0.0,7.0,1.0,3002.6715900003182,2.0,1.0,phase_3,,,,,204.0,6.0,204.0,34.0,136.0,102.0,68.0,170.0,orange,diamond
0.0,2.0,1.0,0.0,7.0,5.0,2542.535675999716,2.0,1.0,phase_3,,,,,156.0,4.0,39.0,78.0,195.0,117.0,156.0,234.0,gray,triangle
0.0,5.0,0.5,1.0,7.0,4.0,3279.649995,2.0,1.0,phase_3,,,,,108.0,2.0,324.0,216.0,54.0,108.0,162.0,270.0,blue,circle
0.0,4.0,4.0,0.0,7.0,5.0,2190.3358700001263,2.0,1.0,phase_3,,,,,204.0,6.0,68.0,170.0,136.0,34.0,204.0,102.0,green,hexagon
0.0,5.0,0.5,1.0,7.0,1.0,3469.6011120004187,2.0,1.0,phase_3,,,,,88.0,2.0,88.0,132.0,264.0,220.0,44.0,176.0,blue,circle
0.0,8.0,4.0,1.0,7.0,1.0,3634.575363000295,2.0,1.0,phase_3,,,,,176.0,4.0,176.0,44.0,220.0,88.0,264.0,132.0,cyan,square
0.0,8.0,4.0,1.0,7.0,6.0,2728.3522130001074,2.0,1.0,phase_3,,,,,170.0,5.0,102.0,68.0,136.0,34.0,204.0,170.0,cyan,square
0.0,6.0,1.0,1.0,7.0,2.0,2328.7634649996107,2.0,1.0,phase_3,,,,,176.0,4.0,44.0,176.0,220.0,132.0,88.0,264.0,magenta,I
0.0,7.0,2.0,1.0,7.0,5.0,2696.3461099994674,2.0,1.0,phase_3,,,,,88.0,2.0,176.0,132.0,264.0,220.0,88.0,44.0,white,flipped triangle
0.0,1.0,0.5,0.0,7.0,3.0,2189.8436830006176,3.0,1.0,phase_3,,,,,264.0,6.0,176.0,220.0,264.0,132.0,44.0,88.0,orange,diamond
0.0,3.0,2.0,0.0,7.0,1.0,1537.3227319996658,3.0,1.0,phase_3,,,,,294.0,6.0,294.0,147.0,98.0,49.0,196.0,245.0,yellow,cross
0.0,8.0,4.0,1.0,7.0,5.0,3516.454865999549,3.0,1.0,phase_3,,,,,204.0,6.0,34.0,170.0,102.0,68.0,204.0,136.0,cyan,square
0.0,6.0,1.0,1.0,7.0,2.0,2830.592608999723,3.0,1.0,phase_3,,,,,204.0,6.0,34.0,204.0,170.0,136.0,68.0,102.0,magenta,I
0.0,3.0,2.0,0.0,7.0,3.0,1639.5879080000668,3.0,1.0,phase_3,,,,,234.0,6.0,195.0,156.0,234.0,78.0,117.0,39.0,yellow,cross
0.0,5.0,0.5,1.0,7.0,6.0,3075.9286810007325,3.0,1.0,phase_3,,,,,108.0,2.0,324.0,54.0,162.0,216.0,270.0,108.0,blue,circle
0.0,2.0,1.0,0.0,7.0,2.0,3217.6053749999483,3.0,1.0,phase_3,,,,,216.0,4.0,324.0,216.0,162.0,108.0,54.0,270.0,gray,triangle
0.0,7.0,2.0,1.0,7.0,1.0,2003.7602539996442,3.0,1.0,phase_3,,,,,88.0,2.0,88.0,44.0,176.0,132.0,264.0,220.0,white,flipped triangle
0.0,8.0,4.0,1.0,7.0,3.0,3150.052383000002,3.0,1.0,phase_3,,,,,270.0,5.0,324.0,216.0,270.0,54.0,108.0,162.0,cyan,square
0.0,1.0,0.5,0.0,7.0,6.0,3951.3446820001263,3.0,1.0,phase_3,,,,,270.0,5.0,54.0,324.0,162.0,108.0,216.0,270.0,orange,diamond
0.0,5.0,0.5,1.0,7.0,1.0,4583.004524999524,3.0,1.0,phase_3,,,,,98.0,2.0,98.0,49.0,196.0,245.0,294.0,147.0,blue,circle
0.0,2.0,1.0,0.0,7.0,2.0,3415.997690999575,3.0,1.0,phase_3,,,,,170.0,5.0,102.0,170.0,68.0,204.0,34.0,136.0,gray,triangle
0.0,3.0,2.0,0.0,7.0,4.0,3113.396777000162,3.0,1.0,phase_3,,,,,270.0,5.0,54.0,216.0,162.0,270.0,324.0,108.0,yellow,cross
0.0,5.0,0.5,1.0,7.0,3.0,3295.661043000109,3.0,1.0,phase_3,,,,,102.0,3.0,136.0,170.0,102.0,204.0,68.0,34.0,blue,circle
0.0,2.0,1.0,0.0,7.0,5.0,3768.5528410002007,3.0,1.0,phase_3,,,,,270.0,5.0,324.0,162.0,216.0,108.0,270.0,54.0,gray,triangle
0.0,2.0,1.0,0.0,7.0,1.0,4087.8747540000404,3.0,1.0,phase_3,,,,,234.0,6.0,234.0,39.0,117.0,78.0,195.0,156.0,gray,triangle
0.0,7.0,2.0,1.0,7.0,6.0,1959.7377199997936,3.0,1.0,phase_3,,,,,68.0,2.0,136.0,34.0,102.0,204.0,170.0,68.0,white,flipped triangle
0.0,1.0,0.5,0.0,7.0,5.0,2847.041184000773,3.0,1.0,phase_3,,,,,270.0,5.0,324.0,108.0,162.0,216.0,270.0,54.0,orange,diamond
0.0,8.0,4.0,1.0,7.0,5.0,2534.1041170004246,3.0,1.0,phase_3,,,,,234.0,6.0,195.0,39.0,156.0,117.0,234.0,78.0,cyan,square
0.0,2.0,1.0,0.0,7.0,1.0,3438.161110000692,3.0,1.0,phase_3,,,,,220.0,5.0,220.0,132.0,264.0,88.0,44.0,176.0,gray,triangle
0.0,1.0,0.5,0.0,7.0,5.0,2249.24427499991,4.0,1.0,phase_3,,,,,234.0,6.0,156.0,39.0,78.0,117.0,234.0,195.0,orange,diamond
0.0,6.0,1.0,1.0,7.0,2.0,3162.811147000866,4.0,1.0,phase_3,,,,,245.0,5.0,196.0,245.0,147.0,98.0,294.0,49.0,magenta,I
0.0,7.0,2.0,1.0,7.0,3.0,1770.3997820008226,4.0,1.0,phase_3,,,,,68.0,2.0,34.0,170.0,68.0,204.0,136.0,102.0,white,flipped triangle
0.0,6.0,1.0,1.0,7.0,4.0,1320.3073059994497,4.0,1.0,phase_3,,,,,245.0,5.0,98.0,49.0,196.0,245.0,147.0,294.0,magenta,I
0.0,3.0,2.0,0.0,7.0,6.0,1860.257231000105,4.0,1.0,phase_3,,,,,324.0,6.0,108.0,216.0,162.0,270.0,54.0,324.0,yellow,cross
0.0,7.0,2.0,1.0,7.0,1.0,2519.15433799968,4.0,1.0,phase_3,,,,,54.0,1.0,54.0,162.0,108.0,324.0,270.0,216.0,white,flipped triangle
0.0,7.0,2.0,1.0,7.0,3.0,1286.7171679999956,4.0,1.0,phase_3,,,,,49.0,1.0,196.0,147.0,49.0,98.0,294.0,245.0,white,flipped triangle
0.0,4.0,4.0,0.0,7.0,2.0,2931.2476040004185,4.0,1.0,phase_3,,,,,234.0,6.0,39.0,234.0,195.0,78.0,117.0,156.0,green,hexagon
0.0,1.0,0.5,0.0,7.0,1.0,2146.2555490006707,4.0,1.0,phase_3,,,,,245.0,5.0,245.0,49.0,294.0,147.0,98.0,196.0,orange,diamond
0.0,3.0,2.0,0.0,7.0,4.0,2185.8299750001606,4.0,1.0,phase_3,,,,,234.0,6.0,39.0,78.0,195.0,234.0,156.0,117.0,yellow,cross
0.0,6.0,1.0,1.0,7.0,1.0,2050.6100840002546,4.0,1.0,phase_3,,,,,204.0,6.0,204.0,34.0,68.0,170.0,102.0,136.0,magenta,I
0.0,3.0,2.0,0.0,7.0,3.0,2198.581294999713,4.0,1.0,phase_3,,,,,204.0,6.0,170.0,102.0,204.0,34.0,68.0,136.0,yellow,cross
0.0,1.0,0.5,0.0,7.0,4.0,3387.1614250001585,4.0,1.0,phase_3,,,,,245.0,5.0,147.0,196.0,49.0,245.0,98.0,294.0,orange,diamond
0.0,3.0,2.0,0.0,7.0,6.0,1998.9415059999371,4.0,1.0,phase_3,,,,,245.0,5.0,49.0,294.0,98.0,196.0,147.0,245.0,yellow,cross
0.0,4.0,4.0,0.0,7.0,1.0,3495.451857000262,4.0,1.0,phase_3,,,,,204.0,6.0,204.0,34.0,170.0,68.0,136.0,102.0,green,hexagon
0.0,4.0,4.0,0.0,7.0,6.0,2155.690293999214,4.0,1.0,phase_3,,,,,264.0,6.0,44.0,176.0,220.0,88.0,132.0,264.0,green,hexagon
0.0,4.0,4.0,0.0,7.0,6.0,2828.1364360000225,4.0,1.0,phase_3,,,,,270.0,5.0,216.0,54.0,108.0,324.0,162.0,270.0,green,hexagon
0.0,6.0,1.0,1.0,7.0,2.0,2554.2201709995425,4.0,1.0,phase_3,,,,,220.0,5.0,176.0,220.0,88.0,132.0,264.0,44.0,magenta,I
0.0,4.0,4.0,0.0,7.0,3.0,2649.0830800003096,4.0,1.0,phase_3,,,,,234.0,6.0,156.0,39.0,234.0,195.0,78.0,117.0,green,hexagon
0.0,8.0,4.0,1.0,7.0,3.0,1800.5971630000204,4.0,1.0,phase_3,,,,,270.0,5.0,162.0,216.0,270.0,54.0,324.0,108.0,cyan,square
