raw_reward_magnitude,stim_reward,stepwise_reward_magnitude,paired_with_stopping,quadrant,response,reaction_time,block,num_trial_presentations,which_part,stop_signal_trial_type,left_SSD,right_SSD,accuracy,chosen_bidding_amount,chosen_bidding_level,possible_bid_1,possible_bid_2,possible_bid_3,possible_bid_4,possible_bid_5,possible_bid_6,color_text,shape_text
29.0,5.0,1.0,1.0,1.0,1.0,440.5647630010207,1.0,1.0,part_1,,,,,,,,,,,,,magenta,cross
101.0,2.0,2.0,0.0,1.0,1.0,471.7781949984783,1.0,1.0,part_1,,,,,,,,,,,,,white,flipped triangle
411.0,8.0,4.0,1.0,4.0,4.0,370.7649380012299,1.0,1.0,part_1,,,,,,,,,,,,,green,circle
0.0,5.0,0.0,1.0,1.0,1.0,469.4164700013061,1.0,1.0,part_1,,,,,,,,,,,,,magenta,cross
400.0,4.0,4.0,0.0,3.0,3.0,528.9938899986737,1.0,1.0,part_1,,,,,,,,,,,,,blue,I
93.0,6.0,2.0,1.0,2.0,2.0,410.1397920021554,1.0,1.0,part_1,,,,,,,,,,,,,yellow,diamond
67.0,1.0,1.0,0.0,1.0,1.0,386.9273769996653,1.0,1.0,part_1,,,,,,,,,,,,,gray,hexagon
0.0,6.0,0.0,1.0,3.0,3.0,487.5947729997278,1.0,1.0,part_1,,,,,,,,,,,,,yellow,diamond
0.0,3.0,0.0,0.0,4.0,4.0,438.0537270008062,1.0,1.0,part_1,,,,,,,,,,,,,cyan,triangle
224.0,3.0,3.0,0.0,1.0,1.0,355.1010699993639,1.0,1.0,part_1,,,,,,,,,,,,,cyan,triangle
183.0,7.0,3.0,1.0,2.0,2.0,384.485863000009,1.0,1.0,part_1,,,,,,,,,,,,,orange,square
94.0,2.0,2.0,0.0,3.0,3.0,440.2981599996565,1.0,1.0,part_1,,,,,,,,,,,,,white,flipped triangle
0.0,5.0,0.0,1.0,2.0,2.0,392.1136919998389,1.0,1.0,part_1,,,,,,,,,,,,,magenta,cross
96.0,6.0,2.0,1.0,3.0,3.0,392.1083740024187,1.0,1.0,part_1,,,,,,,,,,,,,yellow,diamond
376.0,4.0,4.0,0.0,4.0,4.0,440.4935679995105,1.0,1.0,part_1,,,,,,,,,,,,,blue,I
190.0,7.0,3.0,1.0,4.0,4.0,516.4523490020656,1.0,1.0,part_1,,,,,,,,,,,,,orange,square
198.0,3.0,3.0,0.0,4.0,4.0,466.1263320012949,1.0,1.0,part_1,,,,,,,,,,,,,cyan,triangle
34.0,1.0,1.0,0.0,4.0,4.0,432.6457280003524,1.0,1.0,part_1,,,,,,,,,,,,,gray,hexagon
0.0,8.0,0.0,1.0,2.0,2.0,460.1103019995207,1.0,1.0,part_1,,,,,,,,,,,,,green,circle
209.0,3.0,3.0,0.0,3.0,3.0,488.8067449974187,1.0,1.0,part_1,,,,,,,,,,,,,cyan,triangle
0.0,4.0,0.0,0.0,3.0,3.0,376.4323539980978,1.0,1.0,part_1,,,,,,,,,,,,,blue,I
0.0,3.0,0.0,0.0,4.0,4.0,425.8841880000545,1.0,1.0,part_1,,,,,,,,,,,,,cyan,triangle
43.0,5.0,1.0,1.0,1.0,1.0,394.3817300023511,1.0,1.0,part_1,,,,,,,,,,,,,magenta,cross
390.0,8.0,4.0,1.0,2.0,2.0,431.2789649993647,1.0,1.0,part_1,,,,,,,,,,,,,green,circle
61.0,1.0,1.0,0.0,4.0,4.0,343.1634109983861,1.0,1.0,part_1,,,,,,,,,,,,,gray,hexagon
0.0,2.0,0.0,0.0,2.0,2.0,398.4005560014338,1.0,1.0,part_1,,,,,,,,,,,,,white,flipped triangle
410.0,4.0,4.0,0.0,1.0,1.0,409.9441859980288,1.0,1.0,part_1,,,,,,,,,,,,,blue,I
176.0,3.0,3.0,0.0,4.0,4.0,337.0799949989305,1.0,1.0,part_1,,,,,,,,,,,,,cyan,triangle
392.0,8.0,4.0,1.0,1.0,1.0,729.7912190006173,1.0,1.0,part_1,,,,,,,,,,,,,green,circle
0.0,3.0,0.0,0.0,4.0,4.0,396.8474319990491,1.0,1.0,part_1,,,,,,,,,,,,,cyan,triangle
201.0,3.0,3.0,0.0,3.0,3.0,346.3671950012212,1.0,1.0,part_1,,,,,,,,,,,,,cyan,triangle
0.0,4.0,0.0,0.0,1.0,1.0,368.5991519996605,1.0,1.0,part_1,,,,,,,,,,,,,blue,I
193.0,3.0,3.0,0.0,1.0,1.0,393.1615779983985,1.0,1.0,part_1,,,,,,,,,,,,,cyan,triangle
378.0,8.0,4.0,1.0,1.0,1.0,346.2821310022264,1.0,1.0,part_1,,,,,,,,,,,,,green,circle
410.0,4.0,4.0,0.0,3.0,3.0,347.3714310021023,1.0,1.0,part_1,,,,,,,,,,,,,blue,I
48.0,1.0,1.0,0.0,3.0,3.0,398.0469249981979,1.0,1.0,part_1,,,,,,,,,,,,,gray,hexagon
0.0,7.0,0.0,1.0,3.0,3.0,377.4114169973472,1.0,1.0,part_1,,,,,,,,,,,,,orange,square
56.0,1.0,1.0,0.0,3.0,3.0,390.3906560008181,1.0,1.0,part_1,,,,,,,,,,,,,gray,hexagon
0.0,7.0,0.0,1.0,4.0,4.0,410.9664500028884,1.0,1.0,part_1,,,,,,,,,,,,,orange,square
402.0,4.0,4.0,0.0,4.0,4.0,350.2702480000152,1.0,1.0,part_1,,,,,,,,,,,,,blue,I
94.0,6.0,2.0,1.0,3.0,3.0,420.3658259975782,1.0,1.0,part_1,,,,,,,,,,,,,yellow,diamond
48.0,1.0,1.0,0.0,1.0,1.0,512.5917340010346,1.0,1.0,part_1,,,,,,,,,,,,,gray,hexagon
179.0,7.0,3.0,1.0,2.0,2.0,389.2512070015073,1.0,1.0,part_1,,,,,,,,,,,,,orange,square
96.0,2.0,2.0,0.0,3.0,3.0,510.0622289974126,1.0,1.0,part_1,,,,,,,,,,,,,white,flipped triangle
82.0,6.0,2.0,1.0,3.0,3.0,332.4291789976996,1.0,1.0,part_1,,,,,,,,,,,,,yellow,diamond
0.0,1.0,0.0,0.0,1.0,1.0,423.0350729994825,1.0,1.0,part_1,,,,,,,,,,,,,gray,hexagon
423.0,4.0,4.0,0.0,2.0,2.0,515.7911630012677,1.0,1.0,part_1,,,,,,,,,,,,,blue,I
396.0,4.0,4.0,0.0,4.0,4.0,381.3513710010738,1.0,1.0,part_1,,,,,,,,,,,,,blue,I
0.0,1.0,0.0,0.0,2.0,2.0,432.9981260016211,1.0,1.0,part_1,,,,,,,,,,,,,gray,hexagon
103.0,6.0,2.0,1.0,3.0,3.0,324.8181779999868,1.0,1.0,part_1,,,,,,,,,,,,,yellow,diamond
53.0,1.0,1.0,0.0,3.0,3.0,337.2847780010488,1.0,1.0,part_1,,,,,,,,,,,,,gray,hexagon
205.0,3.0,3.0,0.0,4.0,4.0,350.705912002013,1.0,1.0,part_1,,,,,,,,,,,,,cyan,triangle
209.0,3.0,3.0,0.0,3.0,3.0,560.1020709982549,1.0,1.0,part_1,,,,,,,,,,,,,cyan,triangle
399.0,8.0,4.0,1.0,1.0,1.0,395.5660169995099,1.0,1.0,part_1,,,,,,,,,,,,,green,circle
201.0,3.0,3.0,0.0,2.0,2.0,388.4392229992954,1.0,1.0,part_1,,,,,,,,,,,,,cyan,triangle
0.0,7.0,0.0,1.0,3.0,3.0,410.2011959985248,1.0,1.0,part_1,,,,,,,,,,,,,orange,square
55.0,1.0,1.0,0.0,1.0,1.0,343.8591909980459,1.0,1.0,part_1,,,,,,,,,,,,,gray,hexagon
399.0,8.0,4.0,1.0,2.0,2.0,386.0776880028425,1.0,1.0,part_1,,,,,,,,,,,,,green,circle
394.0,4.0,4.0,0.0,4.0,4.0,369.9986999999964,1.0,1.0,part_1,,,,,,,,,,,,,blue,I
0.0,4.0,0.0,0.0,2.0,2.0,345.6759399996372,1.0,1.0,part_1,,,,,,,,,,,,,blue,I
119.0,6.0,2.0,1.0,3.0,3.0,356.5108420007163,1.0,1.0,part_1,,,,,,,,,,,,,yellow,diamond
119.0,6.0,2.0,1.0,3.0,3.0,359.4091670020134,1.0,1.0,part_1,,,,,,,,,,,,,yellow,diamond
210.0,7.0,3.0,1.0,2.0,2.0,481.8141260002448,1.0,1.0,part_1,,,,,,,,,,,,,orange,square
422.0,8.0,4.0,1.0,4.0,4.0,363.2296670002688,1.0,1.0,part_1,,,,,,,,,,,,,green,circle
202.0,3.0,3.0,0.0,3.0,3.0,307.6303599991661,1.0,1.0,part_1,,,,,,,,,,,,,cyan,triangle
395.0,4.0,4.0,0.0,4.0,4.0,381.7565720019047,1.0,1.0,part_1,,,,,,,,,,,,,blue,I
400.0,8.0,4.0,1.0,2.0,2.0,369.8670820012921,1.0,1.0,part_1,,,,,,,,,,,,,green,circle
386.0,8.0,4.0,1.0,1.0,1.0,588.8795049977489,1.0,1.0,part_1,,,,,,,,,,,,,green,circle
104.0,2.0,2.0,0.0,3.0,3.0,376.7087369997171,1.0,1.0,part_1,,,,,,,,,,,,,white,flipped triangle
107.0,6.0,2.0,1.0,4.0,4.0,378.9994489998207,1.0,1.0,part_1,,,,,,,,,,,,,yellow,diamond
384.0,4.0,4.0,0.0,2.0,2.0,405.9993639966706,1.0,1.0,part_1,,,,,,,,,,,,,blue,I
0.0,6.0,0.0,1.0,4.0,4.0,378.9359910006169,1.0,1.0,part_1,,,,,,,,,,,,,yellow,diamond
61.0,5.0,1.0,1.0,3.0,3.0,360.883859997557,1.0,1.0,part_1,,,,,,,,,,,,,magenta,cross
401.0,4.0,4.0,0.0,2.0,2.0,505.0861219970102,1.0,1.0,part_1,,,,,,,,,,,,,blue,I
0.0,5.0,0.0,1.0,2.0,2.0,523.3309809991624,1.0,1.0,part_1,,,,,,,,,,,,,magenta,cross
198.0,7.0,3.0,1.0,1.0,1.0,384.9842509989685,1.0,1.0,part_1,,,,,,,,,,,,,orange,square
92.0,6.0,2.0,1.0,4.0,4.0,385.1772710004297,1.0,1.0,part_1,,,,,,,,,,,,,yellow,diamond
410.0,4.0,4.0,0.0,1.0,1.0,403.4499439985666,1.0,1.0,part_1,,,,,,,,,,,,,blue,I
375.0,4.0,4.0,0.0,1.0,1.0,371.0957289986254,1.0,1.0,part_1,,,,,,,,,,,,,blue,I
32.0,5.0,1.0,1.0,2.0,2.0,475.5889389998629,1.0,1.0,part_1,,,,,,,,,,,,,magenta,cross
0.0,1.0,0.0,0.0,3.0,3.0,478.5824079990561,1.0,1.0,part_1,,,,,,,,,,,,,gray,hexagon
396.0,8.0,4.0,1.0,1.0,1.0,444.5761450006102,1.0,1.0,part_1,,,,,,,,,,,,,green,circle
69.0,5.0,1.0,1.0,3.0,3.0,431.3061840002774,1.0,1.0,part_1,,,,,,,,,,,,,magenta,cross
180.0,3.0,3.0,0.0,2.0,2.0,444.9384960025782,1.0,1.0,part_1,,,,,,,,,,,,,cyan,triangle
404.0,8.0,4.0,1.0,4.0,4.0,539.4573470002797,1.0,1.0,part_1,,,,,,,,,,,,,green,circle
89.0,6.0,2.0,1.0,4.0,4.0,352.88736000075,1.0,1.0,part_1,,,,,,,,,,,,,yellow,diamond
391.0,8.0,4.0,1.0,3.0,3.0,450.714466998761,1.0,1.0,part_1,,,,,,,,,,,,,green,circle
401.0,4.0,4.0,0.0,1.0,1.0,372.1937330010405,1.0,1.0,part_1,,,,,,,,,,,,,blue,I
406.0,8.0,4.0,1.0,3.0,3.0,397.7917570009595,1.0,1.0,part_1,,,,,,,,,,,,,green,circle
123.0,6.0,2.0,1.0,1.0,1.0,437.0433629992476,1.0,1.0,part_1,,,,,,,,,,,,,yellow,diamond
177.0,3.0,3.0,0.0,1.0,1.0,474.7627879987703,1.0,1.0,part_1,,,,,,,,,,,,,cyan,triangle
184.0,7.0,3.0,1.0,1.0,1.0,348.6079089998384,1.0,1.0,part_1,,,,,,,,,,,,,orange,square
182.0,3.0,3.0,0.0,3.0,3.0,508.6348350014305,1.0,1.0,part_1,,,,,,,,,,,,,cyan,triangle
92.0,2.0,2.0,0.0,4.0,4.0,381.923035998625,1.0,1.0,part_1,,,,,,,,,,,,,white,flipped triangle
71.0,1.0,1.0,0.0,2.0,2.0,357.8920250001829,1.0,1.0,part_1,,,,,,,,,,,,,gray,hexagon
223.0,3.0,3.0,0.0,2.0,2.0,454.9501189976581,1.0,1.0,part_1,,,,,,,,,,,,,cyan,triangle
40.0,1.0,1.0,0.0,1.0,1.0,478.7925159980659,1.0,1.0,part_1,,,,,,,,,,,,,gray,hexagon
92.0,2.0,2.0,0.0,2.0,2.0,505.82379900151864,1.0,1.0,part_1,,,,,,,,,,,,,white,flipped triangle
213.0,3.0,3.0,0.0,3.0,3.0,418.1913270003861,1.0,1.0,part_1,,,,,,,,,,,,,cyan,triangle
0.0,6.0,0.0,1.0,3.0,3.0,400.17172700027,1.0,1.0,part_1,,,,,,,,,,,,,yellow,diamond
406.0,4.0,4.0,0.0,1.0,1.0,316.9715809999616,2.0,1.0,part_1,,,,,,,,,,,,,blue,I
0.0,2.0,0.0,0.0,3.0,3.0,478.8471589999972,2.0,1.0,part_1,,,,,,,,,,,,,white,flipped triangle
401.0,8.0,4.0,1.0,1.0,1.0,298.102092998306,2.0,1.0,part_1,,,,,,,,,,,,,green,circle
0.0,2.0,0.0,0.0,4.0,4.0,311.4189970001462,2.0,1.0,part_1,,,,,,,,,,,,,white,flipped triangle
66.0,1.0,1.0,0.0,4.0,4.0,358.6444110005686,2.0,1.0,part_1,,,,,,,,,,,,,gray,hexagon
0.0,7.0,0.0,1.0,4.0,4.0,310.6829960015602,2.0,1.0,part_1,,,,,,,,,,,,,orange,square
415.0,4.0,4.0,0.0,3.0,3.0,358.3321669975703,2.0,1.0,part_1,,,,,,,,,,,,,blue,I
189.0,7.0,3.0,1.0,3.0,3.0,317.2678509981779,2.0,1.0,part_1,,,,,,,,,,,,,orange,square
0.0,5.0,0.0,1.0,2.0,2.0,358.5792669982766,2.0,1.0,part_1,,,,,,,,,,,,,magenta,cross
0.0,1.0,0.0,0.0,2.0,2.0,439.9822550003591,2.0,1.0,part_1,,,,,,,,,,,,,gray,hexagon
50.0,5.0,1.0,1.0,2.0,2.0,332.1935379972274,2.0,1.0,part_1,,,,,,,,,,,,,magenta,cross
180.0,7.0,3.0,1.0,1.0,1.0,385.1101719992584,2.0,1.0,part_1,,,,,,,,,,,,,orange,square
38.0,1.0,1.0,0.0,2.0,2.0,336.4869910001289,2.0,1.0,part_1,,,,,,,,,,,,,gray,hexagon
0.0,4.0,0.0,0.0,4.0,4.0,432.5423990012496,2.0,1.0,part_1,,,,,,,,,,,,,blue,I
405.0,4.0,4.0,0.0,3.0,3.0,514.8824659991078,2.0,1.0,part_1,,,,,,,,,,,,,blue,I
396.0,4.0,4.0,0.0,4.0,4.0,336.7023370010429,2.0,1.0,part_1,,,,,,,,,,,,,blue,I
76.0,2.0,2.0,0.0,1.0,1.0,453.7032160005765,2.0,1.0,part_1,,,,,,,,,,,,,white,flipped triangle
118.0,6.0,2.0,1.0,2.0,2.0,324.1405529988697,2.0,1.0,part_1,,,,,,,,,,,,,yellow,diamond
97.0,2.0,2.0,0.0,3.0,3.0,357.9924949990527,2.0,1.0,part_1,,,,,,,,,,,,,white,flipped triangle
385.0,4.0,4.0,0.0,1.0,1.0,282.1180770006322,2.0,1.0,part_1,,,,,,,,,,,,,blue,I
33.0,5.0,1.0,1.0,4.0,4.0,299.8909739981172,2.0,1.0,part_1,,,,,,,,,,,,,magenta,cross
0.0,6.0,0.0,1.0,2.0,2.0,341.9949969975278,2.0,1.0,part_1,,,,,,,,,,,,,yellow,diamond
0.0,1.0,0.0,0.0,4.0,4.0,268.6232810010551,2.0,1.0,part_1,,,,,,,,,,,,,gray,hexagon
192.0,7.0,3.0,1.0,2.0,2.0,339.596450998215,2.0,1.0,part_1,,,,,,,,,,,,,orange,square
180.0,7.0,3.0,1.0,1.0,1.0,353.6759710004844,2.0,1.0,part_1,,,,,,,,,,,,,orange,square
89.0,2.0,2.0,0.0,3.0,3.0,300.8920700012822,2.0,1.0,part_1,,,,,,,,,,,,,white,flipped triangle
38.0,1.0,1.0,0.0,1.0,1.0,326.5209670025797,2.0,1.0,part_1,,,,,,,,,,,,,gray,hexagon
112.0,6.0,2.0,1.0,1.0,1.0,418.9418259993545,2.0,2.0,part_1,,,,,,,,,,,,,yellow,diamond
66.0,5.0,1.0,1.0,2.0,2.0,342.5655489991186,2.0,1.0,part_1,,,,,,,,,,,,,magenta,cross
59.0,1.0,1.0,0.0,3.0,3.0,421.3953130019945,2.0,1.0,part_1,,,,,,,,,,,,,gray,hexagon
29.0,1.0,1.0,0.0,2.0,2.0,327.9498199990485,2.0,1.0,part_1,,,,,,,,,,,,,gray,hexagon
72.0,5.0,1.0,1.0,2.0,2.0,319.0871219994733,2.0,1.0,part_1,,,,,,,,,,,,,magenta,cross
53.0,5.0,1.0,1.0,4.0,4.0,536.5747070027282,2.0,1.0,part_1,,,,,,,,,,,,,magenta,cross
410.0,8.0,4.0,1.0,2.0,2.0,311.5252269999473,2.0,1.0,part_1,,,,,,,,,,,,,green,circle
0.0,5.0,0.0,1.0,2.0,2.0,389.9444230009976,2.0,1.0,part_1,,,,,,,,,,,,,magenta,cross
117.0,6.0,2.0,1.0,2.0,2.0,336.7805020025116,2.0,1.0,part_1,,,,,,,,,,,,,yellow,diamond
0.0,1.0,0.0,0.0,2.0,2.0,368.1845560022339,2.0,1.0,part_1,,,,,,,,,,,,,gray,hexagon
53.0,1.0,1.0,0.0,3.0,3.0,602.0672749982623,2.0,1.0,part_1,,,,,,,,,,,,,gray,hexagon
218.0,7.0,3.0,1.0,2.0,2.0,384.6448469994357,2.0,1.0,part_1,,,,,,,,,,,,,orange,square
34.0,1.0,1.0,0.0,2.0,2.0,311.73336899883,2.0,1.0,part_1,,,,,,,,,,,,,gray,hexagon
104.0,6.0,2.0,1.0,3.0,3.0,381.6249400006199,2.0,1.0,part_1,,,,,,,,,,,,,yellow,diamond
418.0,4.0,4.0,0.0,4.0,4.0,407.593938998616,2.0,1.0,part_1,,,,,,,,,,,,,blue,I
0.0,8.0,0.0,1.0,3.0,3.0,468.098782999732,2.0,1.0,part_1,,,,,,,,,,,,,green,circle
0.0,3.0,0.0,0.0,3.0,3.0,346.939212999132,2.0,1.0,part_1,,,,,,,,,,,,,cyan,triangle
107.0,2.0,2.0,0.0,1.0,1.0,374.363135000749,2.0,1.0,part_1,,,,,,,,,,,,,white,flipped triangle
0.0,8.0,0.0,1.0,3.0,3.0,347.5855670003511,2.0,1.0,part_1,,,,,,,,,,,,,green,circle
189.0,3.0,3.0,0.0,3.0,3.0,370.9472519985866,2.0,1.0,part_1,,,,,,,,,,,,,cyan,triangle
415.0,8.0,4.0,1.0,4.0,4.0,564.3824540020432,2.0,1.0,part_1,,,,,,,,,,,,,green,circle
111.0,2.0,2.0,0.0,2.0,2.0,348.874696999701,2.0,1.0,part_1,,,,,,,,,,,,,white,flipped triangle
34.0,5.0,1.0,1.0,2.0,2.0,349.6031239992589,2.0,1.0,part_1,,,,,,,,,,,,,magenta,cross
207.0,3.0,3.0,0.0,2.0,2.0,289.4880159983586,2.0,1.0,part_1,,,,,,,,,,,,,cyan,triangle
400.0,4.0,4.0,0.0,2.0,2.0,398.8166080016526,2.0,1.0,part_1,,,,,,,,,,,,,blue,I
37.0,5.0,1.0,1.0,4.0,4.0,387.3399840013007,2.0,1.0,part_1,,,,,,,,,,,,,magenta,cross
92.0,6.0,2.0,1.0,4.0,4.0,377.1438619987748,2.0,1.0,part_1,,,,,,,,,,,,,yellow,diamond
399.0,4.0,4.0,0.0,4.0,4.0,352.740703998279,2.0,1.0,part_1,,,,,,,,,,,,,blue,I
215.0,3.0,3.0,0.0,4.0,4.0,308.9675969968084,2.0,1.0,part_1,,,,,,,,,,,,,cyan,triangle
50.0,1.0,1.0,0.0,4.0,4.0,356.9560299984005,2.0,1.0,part_1,,,,,,,,,,,,,gray,hexagon
41.0,1.0,1.0,0.0,1.0,1.0,453.2538519997615,2.0,1.0,part_1,,,,,,,,,,,,,gray,hexagon
34.0,5.0,1.0,1.0,3.0,3.0,380.8278420001443,2.0,1.0,part_1,,,,,,,,,,,,,magenta,cross
58.0,5.0,1.0,1.0,1.0,1.0,509.74845699965954,2.0,1.0,part_1,,,,,,,,,,,,,magenta,cross
0.0,3.0,0.0,0.0,1.0,1.0,352.4210930008848,2.0,1.0,part_1,,,,,,,,,,,,,cyan,triangle
0.0,5.0,0.0,1.0,2.0,2.0,312.4686190021748,2.0,1.0,part_1,,,,,,,,,,,,,magenta,cross
95.0,2.0,2.0,0.0,1.0,1.0,303.3535829999891,2.0,1.0,part_1,,,,,,,,,,,,,white,flipped triangle
97.0,6.0,2.0,1.0,1.0,1.0,310.2166819990088,2.0,1.0,part_1,,,,,,,,,,,,,yellow,diamond
70.0,5.0,1.0,1.0,3.0,3.0,516.5641130006406,2.0,1.0,part_1,,,,,,,,,,,,,magenta,cross
101.0,6.0,2.0,1.0,1.0,1.0,362.3467329998675,2.0,1.0,part_1,,,,,,,,,,,,,yellow,diamond
221.0,3.0,3.0,0.0,4.0,4.0,374.4524940011615,2.0,1.0,part_1,,,,,,,,,,,,,cyan,triangle
418.0,8.0,4.0,1.0,3.0,3.0,412.1654920018045,2.0,1.0,part_1,,,,,,,,,,,,,green,circle
417.0,8.0,4.0,1.0,4.0,4.0,438.6586529981287,2.0,1.0,part_1,,,,,,,,,,,,,green,circle
210.0,3.0,3.0,0.0,4.0,4.0,345.3658879989234,2.0,1.0,part_1,,,,,,,,,,,,,cyan,triangle
0.0,6.0,0.0,1.0,2.0,2.0,483.3787930001563,2.0,1.0,part_1,,,,,,,,,,,,,yellow,diamond
44.0,5.0,1.0,1.0,1.0,1.0,304.3240649967629,2.0,1.0,part_1,,,,,,,,,,,,,magenta,cross
0.0,8.0,0.0,1.0,4.0,4.0,363.9679159969091,2.0,1.0,part_1,,,,,,,,,,,,,green,circle
40.0,5.0,1.0,1.0,2.0,2.0,415.2955520003161,2.0,1.0,part_1,,,,,,,,,,,,,magenta,cross
180.0,3.0,3.0,0.0,3.0,3.0,376.3670389998879,2.0,1.0,part_1,,,,,,,,,,,,,cyan,triangle
102.0,6.0,2.0,1.0,4.0,4.0,473.5884639994765,2.0,1.0,part_1,,,,,,,,,,,,,yellow,diamond
375.0,8.0,4.0,1.0,3.0,3.0,486.3297160009097,2.0,1.0,part_1,,,,,,,,,,,,,green,circle
106.0,6.0,2.0,1.0,3.0,3.0,340.6826640020881,2.0,1.0,part_1,,,,,,,,,,,,,yellow,diamond
44.0,1.0,1.0,0.0,3.0,3.0,333.6974139965605,2.0,1.0,part_1,,,,,,,,,,,,,gray,hexagon
0.0,2.0,0.0,0.0,2.0,2.0,415.5951190004998,2.0,1.0,part_1,,,,,,,,,,,,,white,flipped triangle
67.0,5.0,1.0,1.0,4.0,4.0,413.7226230013766,2.0,1.0,part_1,,,,,,,,,,,,,magenta,cross
75.0,5.0,1.0,1.0,1.0,1.0,418.8821660027315,2.0,1.0,part_1,,,,,,,,,,,,,magenta,cross
179.0,3.0,3.0,0.0,2.0,2.0,315.0388729991391,2.0,1.0,part_1,,,,,,,,,,,,,cyan,triangle
386.0,8.0,4.0,1.0,1.0,1.0,323.4987420000834,2.0,1.0,part_1,,,,,,,,,,,,,green,circle
217.0,3.0,3.0,0.0,1.0,1.0,341.4543860017147,2.0,1.0,part_1,,,,,,,,,,,,,cyan,triangle
118.0,2.0,2.0,0.0,3.0,3.0,384.1037620004499,2.0,1.0,part_1,,,,,,,,,,,,,white,flipped triangle
0.0,6.0,0.0,1.0,4.0,4.0,323.2996799997636,2.0,1.0,part_1,,,,,,,,,,,,,yellow,diamond
424.0,8.0,4.0,1.0,4.0,4.0,364.6754779983894,2.0,1.0,part_1,,,,,,,,,,,,,green,circle
0.0,8.0,0.0,1.0,4.0,4.0,416.7484030003834,2.0,1.0,part_1,,,,,,,,,,,,,green,circle
424.0,4.0,4.0,0.0,1.0,1.0,395.2915469999425,2.0,1.0,part_1,,,,,,,,,,,,,blue,I
56.0,5.0,1.0,1.0,4.0,4.0,385.4258009996556,2.0,1.0,part_1,,,,,,,,,,,,,magenta,cross
202.0,7.0,3.0,1.0,4.0,4.0,327.9299870009708,2.0,1.0,part_1,,,,,,,,,,,,,orange,square
119.0,2.0,2.0,0.0,4.0,4.0,310.7349799975054,2.0,1.0,part_1,,,,,,,,,,,,,white,flipped triangle
0.0,2.0,0.0,0.0,2.0,2.0,370.6824359978782,2.0,1.0,part_1,,,,,,,,,,,,,white,flipped triangle
72.0,1.0,1.0,0.0,1.0,1.0,501.13953500112984,2.0,1.0,part_1,,,,,,,,,,,,,gray,hexagon
56.0,1.0,1.0,0.0,2.0,2.0,312.0511300003272,2.0,1.0,part_1,,,,,,,,,,,,,gray,hexagon
209.0,7.0,3.0,1.0,3.0,3.0,385.0726269993174,2.0,1.0,part_1,,,,,,,,,,,,,orange,square
0.0,4.0,0.0,0.0,2.0,2.0,409.3367030000081,2.0,1.0,part_1,,,,,,,,,,,,,blue,I
69.0,1.0,1.0,0.0,2.0,2.0,369.1081180004403,2.0,1.0,part_1,,,,,,,,,,,,,gray,hexagon
88.0,2.0,2.0,0.0,2.0,2.0,354.040807000274,2.0,1.0,part_1,,,,,,,,,,,,,white,flipped triangle
0.0,6.0,0.0,1.0,2.0,2.0,298.5123219987144,3.0,1.0,part_1,,,,,,,,,,,,,yellow,diamond
0.0,2.0,0.0,0.0,2.0,2.0,291.7856750027567,3.0,1.0,part_1,,,,,,,,,,,,,white,flipped triangle
112.0,2.0,2.0,0.0,3.0,3.0,462.2900849972211,3.0,1.0,part_1,,,,,,,,,,,,,white,flipped triangle
0.0,4.0,0.0,0.0,1.0,1.0,268.302616001165,3.0,1.0,part_1,,,,,,,,,,,,,blue,I
385.0,8.0,4.0,1.0,4.0,4.0,308.57356200067437,3.0,1.0,part_1,,,,,,,,,,,,,green,circle
84.0,6.0,2.0,1.0,1.0,1.0,285.7549719992676,3.0,1.0,part_1,,,,,,,,,,,,,yellow,diamond
0.0,8.0,0.0,1.0,4.0,4.0,318.6964459964656,3.0,1.0,part_1,,,,,,,,,,,,,green,circle
213.0,7.0,3.0,1.0,4.0,4.0,348.4270280023338,3.0,1.0,part_1,,,,,,,,,,,,,orange,square
27.0,1.0,1.0,0.0,3.0,3.0,315.2250519997324,3.0,1.0,part_1,,,,,,,,,,,,,gray,hexagon
0.0,7.0,0.0,1.0,3.0,3.0,400.027632000274,3.0,1.0,part_1,,,,,,,,,,,,,orange,square
221.0,7.0,3.0,1.0,4.0,4.0,317.4486479983898,3.0,1.0,part_1,,,,,,,,,,,,,orange,square
0.0,7.0,0.0,1.0,2.0,2.0,320.0827910004591,3.0,1.0,part_1,,,,,,,,,,,,,orange,square
221.0,3.0,3.0,0.0,2.0,2.0,299.5040970017726,3.0,1.0,part_1,,,,,,,,,,,,,cyan,triangle
209.0,7.0,3.0,1.0,1.0,1.0,289.2218859997228,3.0,1.0,part_1,,,,,,,,,,,,,orange,square
401.0,8.0,4.0,1.0,3.0,3.0,329.3538709986023,3.0,1.0,part_1,,,,,,,,,,,,,green,circle
0.0,7.0,0.0,1.0,3.0,3.0,284.654564999073,3.0,1.0,part_1,,,,,,,,,,,,,orange,square
175.0,3.0,3.0,0.0,1.0,1.0,363.164936999965,3.0,1.0,part_1,,,,,,,,,,,,,cyan,triangle
196.0,7.0,3.0,1.0,3.0,3.0,319.1069879976567,3.0,1.0,part_1,,,,,,,,,,,,,orange,square
217.0,7.0,3.0,1.0,4.0,4.0,391.7665539993322,3.0,1.0,part_1,,,,,,,,,,,,,orange,square
0.0,3.0,0.0,0.0,2.0,2.0,285.2078970026923,3.0,1.0,part_1,,,,,,,,,,,,,cyan,triangle
71.0,1.0,1.0,0.0,3.0,3.0,316.3539269989996,3.0,1.0,part_1,,,,,,,,,,,,,gray,hexagon
113.0,2.0,2.0,0.0,2.0,2.0,327.473782999732,3.0,1.0,part_1,,,,,,,,,,,,,white,flipped triangle
53.0,1.0,1.0,0.0,4.0,4.0,316.008106998197,3.0,1.0,part_1,,,,,,,,,,,,,gray,hexagon
223.0,7.0,3.0,1.0,2.0,2.0,294.4285699995816,3.0,1.0,part_1,,,,,,,,,,,,,orange,square
0.0,2.0,0.0,0.0,4.0,4.0,318.0714339978294,3.0,1.0,part_1,,,,,,,,,,,,,white,flipped triangle
383.0,8.0,4.0,1.0,4.0,4.0,345.3826339973602,3.0,1.0,part_1,,,,,,,,,,,,,green,circle
48.0,5.0,1.0,1.0,1.0,1.0,379.1482509986963,3.0,1.0,part_1,,,,,,,,,,,,,magenta,cross
33.0,1.0,1.0,0.0,1.0,1.0,302.4765090012806,3.0,1.0,part_1,,,,,,,,,,,,,gray,hexagon
29.0,1.0,1.0,0.0,1.0,1.0,325.2691460002097,3.0,1.0,part_1,,,,,,,,,,,,,gray,hexagon
404.0,4.0,4.0,0.0,2.0,2.0,307.5101930007804,3.0,1.0,part_1,,,,,,,,,,,,,blue,I
0.0,7.0,0.0,1.0,4.0,4.0,363.9050339988898,3.0,2.0,part_1,,,,,,,,,,,,,orange,square
84.0,6.0,2.0,1.0,1.0,1.0,470.1377759993193,3.0,1.0,part_1,,,,,,,,,,,,,yellow,diamond
38.0,5.0,1.0,1.0,3.0,3.0,320.1576200008276,3.0,1.0,part_1,,,,,,,,,,,,,magenta,cross
44.0,5.0,1.0,1.0,2.0,2.0,307.3317119997227,3.0,1.0,part_1,,,,,,,,,,,,,magenta,cross
202.0,3.0,3.0,0.0,4.0,4.0,302.9459709978255,3.0,1.0,part_1,,,,,,,,,,,,,cyan,triangle
410.0,8.0,4.0,1.0,3.0,3.0,538.8185420015361,3.0,1.0,part_1,,,,,,,,,,,,,green,circle
383.0,4.0,4.0,0.0,3.0,3.0,348.8281960017048,3.0,1.0,part_1,,,,,,,,,,,,,blue,I
0.0,5.0,0.0,1.0,4.0,4.0,340.2669119968777,3.0,1.0,part_1,,,,,,,,,,,,,magenta,cross
404.0,8.0,4.0,1.0,1.0,1.0,373.6965409989352,3.0,1.0,part_1,,,,,,,,,,,,,green,circle
27.0,5.0,1.0,1.0,2.0,2.0,361.4124800005811,3.0,1.0,part_1,,,,,,,,,,,,,magenta,cross
378.0,4.0,4.0,0.0,3.0,3.0,342.1231459979026,3.0,1.0,part_1,,,,,,,,,,,,,blue,I
0.0,7.0,0.0,1.0,1.0,1.0,356.0144790026243,3.0,1.0,part_1,,,,,,,,,,,,,orange,square
395.0,8.0,4.0,1.0,3.0,3.0,315.8331659979012,3.0,1.0,part_1,,,,,,,,,,,,,green,circle
88.0,6.0,2.0,1.0,3.0,3.0,727.9264839999087,3.0,1.0,part_1,,,,,,,,,,,,,yellow,diamond
385.0,4.0,4.0,0.0,2.0,2.0,453.161124001781,3.0,1.0,part_1,,,,,,,,,,,,,blue,I
0.0,4.0,0.0,0.0,2.0,2.0,390.7331610025721,3.0,1.0,part_1,,,,,,,,,,,,,blue,I
102.0,2.0,2.0,0.0,4.0,4.0,328.1058630018378,3.0,1.0,part_1,,,,,,,,,,,,,white,flipped triangle
416.0,8.0,4.0,1.0,1.0,1.0,330.3461879986571,3.0,1.0,part_1,,,,,,,,,,,,,green,circle
84.0,2.0,2.0,0.0,1.0,1.0,367.5857929993071,3.0,1.0,part_1,,,,,,,,,,,,,white,flipped triangle
48.0,5.0,1.0,1.0,1.0,1.0,342.2775060025742,3.0,1.0,part_1,,,,,,,,,,,,,magenta,cross
94.0,2.0,2.0,0.0,1.0,1.0,356.6303590014286,3.0,1.0,part_1,,,,,,,,,,,,,white,flipped triangle
386.0,4.0,4.0,0.0,3.0,3.0,366.3303549983538,3.0,1.0,part_1,,,,,,,,,,,,,blue,I
102.0,6.0,2.0,1.0,2.0,2.0,447.3395839995646,3.0,1.0,part_1,,,,,,,,,,,,,yellow,diamond
66.0,1.0,1.0,0.0,2.0,2.0,675.395746002323,3.0,1.0,part_1,,,,,,,,,,,,,gray,hexagon
0.0,1.0,0.0,0.0,2.0,2.0,359.8297979988274,3.0,1.0,part_1,,,,,,,,,,,,,gray,hexagon
122.0,2.0,2.0,0.0,1.0,1.0,437.3188270001265,3.0,1.0,part_1,,,,,,,,,,,,,white,flipped triangle
405.0,8.0,4.0,1.0,2.0,2.0,308.4313239996845,3.0,1.0,part_1,,,,,,,,,,,,,green,circle
399.0,4.0,4.0,0.0,4.0,4.0,500.84404700101004,3.0,1.0,part_1,,,,,,,,,,,,,blue,I
27.0,5.0,1.0,1.0,1.0,1.0,415.754862002359,3.0,1.0,part_1,,,,,,,,,,,,,magenta,cross
213.0,7.0,3.0,1.0,2.0,2.0,329.4244810022064,3.0,1.0,part_1,,,,,,,,,,,,,orange,square
406.0,4.0,4.0,0.0,2.0,2.0,382.958731999679,3.0,1.0,part_1,,,,,,,,,,,,,blue,I
394.0,8.0,4.0,1.0,4.0,4.0,451.4037890003237,3.0,1.0,part_1,,,,,,,,,,,,,green,circle
55.0,5.0,1.0,1.0,3.0,3.0,398.0036619977909,3.0,1.0,part_1,,,,,,,,,,,,,magenta,cross
120.0,6.0,2.0,1.0,2.0,2.0,342.4810440010333,3.0,1.0,part_1,,,,,,,,,,,,,yellow,diamond
95.0,6.0,2.0,1.0,2.0,2.0,371.4822129986714,3.0,1.0,part_1,,,,,,,,,,,,,yellow,diamond
207.0,7.0,3.0,1.0,2.0,2.0,324.7490899993863,3.0,1.0,part_1,,,,,,,,,,,,,orange,square
416.0,4.0,4.0,0.0,3.0,3.0,429.498968002008,3.0,1.0,part_1,,,,,,,,,,,,,blue,I
37.0,1.0,1.0,0.0,1.0,1.0,383.3358230003796,3.0,1.0,part_1,,,,,,,,,,,,,gray,hexagon
76.0,6.0,2.0,1.0,2.0,2.0,404.0809340003761,3.0,1.0,part_1,,,,,,,,,,,,,yellow,diamond
177.0,3.0,3.0,0.0,4.0,4.0,382.22709099864,3.0,1.0,part_1,,,,,,,,,,,,,cyan,triangle
71.0,5.0,1.0,1.0,2.0,2.0,375.134395002533,3.0,1.0,part_1,,,,,,,,,,,,,magenta,cross
53.0,5.0,1.0,1.0,3.0,3.0,361.7057760020543,3.0,1.0,part_1,,,,,,,,,,,,,magenta,cross
94.0,6.0,2.0,1.0,1.0,1.0,473.7124580024101,3.0,1.0,part_1,,,,,,,,,,,,,yellow,diamond
189.0,3.0,3.0,0.0,3.0,3.0,337.2442500003672,3.0,1.0,part_1,,,,,,,,,,,,,cyan,triangle
111.0,6.0,2.0,1.0,4.0,4.0,363.1729400003678,3.0,1.0,part_1,,,,,,,,,,,,,yellow,diamond
43.0,1.0,1.0,0.0,2.0,2.0,488.2923690020107,3.0,1.0,part_1,,,,,,,,,,,,,gray,hexagon
390.0,4.0,4.0,0.0,1.0,1.0,346.3890940001874,3.0,1.0,part_1,,,,,,,,,,,,,blue,I
113.0,2.0,2.0,0.0,2.0,2.0,396.1863229997107,3.0,1.0,part_1,,,,,,,,,,,,,white,flipped triangle
75.0,1.0,1.0,0.0,4.0,4.0,519.0215049988183,3.0,1.0,part_1,,,,,,,,,,,,,gray,hexagon
410.0,8.0,4.0,1.0,3.0,3.0,363.7452260009013,3.0,1.0,part_1,,,,,,,,,,,,,green,circle
196.0,3.0,3.0,0.0,1.0,1.0,349.7943770016718,3.0,1.0,part_1,,,,,,,,,,,,,cyan,triangle
0.0,5.0,0.0,1.0,2.0,2.0,361.9699150003725,3.0,1.0,part_1,,,,,,,,,,,,,magenta,cross
0.0,5.0,0.0,1.0,2.0,2.0,378.1096689999685,3.0,1.0,part_1,,,,,,,,,,,,,magenta,cross
70.0,1.0,1.0,0.0,3.0,3.0,381.4545609966444,3.0,1.0,part_1,,,,,,,,,,,,,gray,hexagon
0.0,4.0,0.0,0.0,2.0,2.0,404.6340409986442,3.0,1.0,part_1,,,,,,,,,,,,,blue,I
0.0,3.0,0.0,0.0,4.0,4.0,578.9649690013903,3.0,1.0,part_1,,,,,,,,,,,,,cyan,triangle
102.0,6.0,2.0,1.0,2.0,2.0,355.2548629995726,3.0,1.0,part_1,,,,,,,,,,,,,yellow,diamond
117.0,2.0,2.0,0.0,1.0,1.0,394.0594680025242,3.0,1.0,part_1,,,,,,,,,,,,,white,flipped triangle
82.0,2.0,2.0,0.0,4.0,4.0,353.5837849995005,3.0,1.0,part_1,,,,,,,,,,,,,white,flipped triangle
195.0,7.0,3.0,1.0,4.0,4.0,329.1599069998483,3.0,1.0,part_1,,,,,,,,,,,,,orange,square
99.0,2.0,2.0,0.0,3.0,3.0,330.8855969989963,3.0,1.0,part_1,,,,,,,,,,,,,white,flipped triangle
391.0,4.0,4.0,0.0,4.0,4.0,423.8725989998784,3.0,1.0,part_1,,,,,,,,,,,,,blue,I
58.0,1.0,1.0,0.0,2.0,2.0,359.906364003109,3.0,1.0,part_1,,,,,,,,,,,,,gray,hexagon
47.0,5.0,1.0,1.0,4.0,4.0,453.4370390028925,3.0,1.0,part_1,,,,,,,,,,,,,magenta,cross
376.0,8.0,4.0,1.0,2.0,2.0,331.0985509997408,3.0,1.0,part_1,,,,,,,,,,,,,green,circle
177.0,7.0,3.0,1.0,4.0,4.0,391.0237470008724,3.0,1.0,part_1,,,,,,,,,,,,,orange,square
182.0,7.0,3.0,1.0,1.0,1.0,436.2742000012076,3.0,1.0,part_1,,,,,,,,,,,,,orange,square
386.0,4.0,4.0,0.0,2.0,2.0,388.3246250006777,3.0,1.0,part_1,,,,,,,,,,,,,blue,I
392.0,4.0,4.0,0.0,3.0,3.0,370.7043140020687,3.0,1.0,part_1,,,,,,,,,,,,,blue,I
119.0,2.0,2.0,0.0,2.0,2.0,405.7376189994102,3.0,1.0,part_1,,,,,,,,,,,,,white,flipped triangle
0.0,2.0,0.0,0.0,4.0,4.0,334.0708969990373,4.0,1.0,part_1,,,,,,,,,,,,,white,flipped triangle
190.0,3.0,3.0,0.0,1.0,1.0,299.6151090010244,4.0,1.0,part_1,,,,,,,,,,,,,cyan,triangle
82.0,6.0,2.0,1.0,4.0,4.0,295.9093870013021,4.0,1.0,part_1,,,,,,,,,,,,,yellow,diamond
48.0,1.0,1.0,0.0,4.0,4.0,317.444013999193,4.0,1.0,part_1,,,,,,,,,,,,,gray,hexagon
47.0,1.0,1.0,0.0,2.0,2.0,348.17127900169,4.0,1.0,part_1,,,,,,,,,,,,,gray,hexagon
406.0,8.0,4.0,1.0,2.0,2.0,283.7042959981772,4.0,1.0,part_1,,,,,,,,,,,,,green,circle
224.0,3.0,3.0,0.0,1.0,1.0,338.7127260029956,4.0,1.0,part_1,,,,,,,,,,,,,cyan,triangle
29.0,5.0,1.0,1.0,4.0,4.0,344.0580610003962,4.0,1.0,part_1,,,,,,,,,,,,,magenta,cross
0.0,2.0,0.0,0.0,3.0,3.0,494.9653530020441,4.0,1.0,part_1,,,,,,,,,,,,,white,flipped triangle
87.0,6.0,2.0,1.0,2.0,2.0,307.0467720026499,4.0,1.0,part_1,,,,,,,,,,,,,yellow,diamond
113.0,6.0,2.0,1.0,3.0,3.0,458.0670690011175,4.0,1.0,part_1,,,,,,,,,,,,,yellow,diamond
175.0,7.0,3.0,1.0,1.0,1.0,343.6358719991403,4.0,1.0,part_1,,,,,,,,,,,,,orange,square
209.0,3.0,3.0,0.0,4.0,4.0,336.7827950023638,4.0,1.0,part_1,,,,,,,,,,,,,cyan,triangle
0.0,6.0,0.0,1.0,3.0,3.0,448.821723999572,4.0,1.0,part_1,,,,,,,,,,,,,yellow,diamond
38.0,5.0,1.0,1.0,4.0,4.0,332.1151800009829,4.0,1.0,part_1,,,,,,,,,,,,,magenta,cross
92.0,2.0,2.0,0.0,2.0,2.0,333.2969909970416,4.0,1.0,part_1,,,,,,,,,,,,,white,flipped triangle
32.0,1.0,1.0,0.0,4.0,4.0,363.1178460018418,4.0,1.0,part_1,,,,,,,,,,,,,gray,hexagon
102.0,2.0,2.0,0.0,4.0,4.0,388.0144169997948,4.0,1.0,part_1,,,,,,,,,,,,,white,flipped triangle
0.0,8.0,0.0,1.0,2.0,2.0,401.4685019974422,4.0,1.0,part_1,,,,,,,,,,,,,green,circle
202.0,7.0,3.0,1.0,1.0,1.0,383.2385150017217,4.0,1.0,part_1,,,,,,,,,,,,,orange,square
71.0,5.0,1.0,1.0,4.0,4.0,334.2837480013259,4.0,1.0,part_1,,,,,,,,,,,,,magenta,cross
183.0,3.0,3.0,0.0,2.0,2.0,388.2354429988481,4.0,1.0,part_1,,,,,,,,,,,,,cyan,triangle
193.0,7.0,3.0,1.0,3.0,3.0,388.7759219978761,4.0,1.0,part_1,,,,,,,,,,,,,orange,square
122.0,6.0,2.0,1.0,4.0,4.0,355.9572339981969,4.0,1.0,part_1,,,,,,,,,,,,,yellow,diamond
27.0,1.0,1.0,0.0,4.0,4.0,325.6163650003145,4.0,1.0,part_1,,,,,,,,,,,,,gray,hexagon
218.0,7.0,3.0,1.0,3.0,3.0,316.8292390000715,4.0,1.0,part_1,,,,,,,,,,,,,orange,square
76.0,6.0,2.0,1.0,1.0,1.0,324.1714340001635,4.0,1.0,part_1,,,,,,,,,,,,,yellow,diamond
48.0,5.0,1.0,1.0,3.0,3.0,417.2702039977594,4.0,1.0,part_1,,,,,,,,,,,,,magenta,cross
0.0,3.0,0.0,0.0,4.0,4.0,329.9277309997706,4.0,1.0,part_1,,,,,,,,,,,,,cyan,triangle
417.0,4.0,4.0,0.0,1.0,1.0,348.5602490000019,4.0,1.0,part_1,,,,,,,,,,,,,blue,I
0.0,6.0,0.0,1.0,4.0,4.0,462.201181002456,4.0,1.0,part_1,,,,,,,,,,,,,yellow,diamond
87.0,2.0,2.0,0.0,4.0,4.0,299.4020160003856,4.0,1.0,part_1,,,,,,,,,,,,,white,flipped triangle
84.0,2.0,2.0,0.0,4.0,4.0,279.364786001679,4.0,1.0,part_1,,,,,,,,,,,,,white,flipped triangle
106.0,6.0,2.0,1.0,4.0,4.0,333.2158660014102,4.0,1.0,part_1,,,,,,,,,,,,,yellow,diamond
192.0,3.0,3.0,0.0,2.0,2.0,340.5746509997698,4.0,1.0,part_1,,,,,,,,,,,,,cyan,triangle
82.0,2.0,2.0,0.0,3.0,3.0,346.3840590011386,4.0,1.0,part_1,,,,,,,,,,,,,white,flipped triangle
423.0,8.0,4.0,1.0,2.0,2.0,530.7556129992008,4.0,1.0,part_1,,,,,,,,,,,,,green,circle
0.0,2.0,0.0,0.0,1.0,1.0,310.4744100019161,4.0,1.0,part_1,,,,,,,,,,,,,white,flipped triangle
53.0,5.0,1.0,1.0,2.0,2.0,392.74989999830717,4.0,1.0,part_1,,,,,,,,,,,,,magenta,cross
59.0,5.0,1.0,1.0,3.0,3.0,442.8671030000259,4.0,1.0,part_1,,,,,,,,,,,,,magenta,cross
99.0,6.0,2.0,1.0,2.0,2.0,402.1305040005245,4.0,1.0,part_1,,,,,,,,,,,,,yellow,diamond
402.0,8.0,4.0,1.0,3.0,3.0,402.6486750008189,4.0,1.0,part_1,,,,,,,,,,,,,green,circle
189.0,3.0,3.0,0.0,4.0,4.0,455.0444829983462,4.0,1.0,part_1,,,,,,,,,,,,,cyan,triangle
76.0,2.0,2.0,0.0,4.0,4.0,304.2848069999309,4.0,1.0,part_1,,,,,,,,,,,,,white,flipped triangle
0.0,6.0,0.0,1.0,4.0,4.0,326.1440569986007,4.0,1.0,part_1,,,,,,,,,,,,,yellow,diamond
224.0,7.0,3.0,1.0,3.0,3.0,370.3125440006261,4.0,1.0,part_1,,,,,,,,,,,,,orange,square
0.0,1.0,0.0,0.0,3.0,3.0,390.4187430016463,4.0,1.0,part_1,,,,,,,,,,,,,gray,hexagon
0.0,1.0,0.0,0.0,1.0,1.0,403.1390939999255,4.0,1.0,part_1,,,,,,,,,,,,,gray,hexagon
384.0,8.0,4.0,1.0,4.0,4.0,347.8850309984409,4.0,1.0,part_1,,,,,,,,,,,,,green,circle
78.0,2.0,2.0,0.0,1.0,1.0,748.5866870010796,4.0,1.0,part_1,,,,,,,,,,,,,white,flipped triangle
0.0,8.0,0.0,1.0,4.0,4.0,363.8017250013945,4.0,1.0,part_1,,,,,,,,,,,,,green,circle
218.0,3.0,3.0,0.0,1.0,1.0,505.9490179992281,4.0,1.0,part_1,,,,,,,,,,,,,cyan,triangle
184.0,3.0,3.0,0.0,2.0,2.0,441.5276590007124,4.0,1.0,part_1,,,,,,,,,,,,,cyan,triangle
411.0,4.0,4.0,0.0,2.0,2.0,383.0037609986902,4.0,1.0,part_1,,,,,,,,,,,,,blue,I
195.0,3.0,3.0,0.0,3.0,3.0,470.6020029989304,4.0,1.0,part_1,,,,,,,,,,,,,cyan,triangle
0.0,4.0,0.0,0.0,1.0,1.0,392.8778119989147,4.0,1.0,part_1,,,,,,,,,,,,,blue,I
385.0,8.0,4.0,1.0,1.0,1.0,394.3145480006933,4.0,1.0,part_1,,,,,,,,,,,,,green,circle
93.0,2.0,2.0,0.0,2.0,2.0,355.3689049986133,4.0,1.0,part_1,,,,,,,,,,,,,white,flipped triangle
123.0,2.0,2.0,0.0,4.0,4.0,327.3370839997369,4.0,1.0,part_1,,,,,,,,,,,,,white,flipped triangle
0.0,8.0,0.0,1.0,3.0,3.0,593.9464500006579,4.0,1.0,part_1,,,,,,,,,,,,,green,circle
201.0,7.0,3.0,1.0,4.0,4.0,329.8228480016405,4.0,1.0,part_1,,,,,,,,,,,,,orange,square
0.0,5.0,0.0,1.0,4.0,4.0,363.9264640005422,4.0,1.0,part_1,,,,,,,,,,,,,magenta,cross
213.0,3.0,3.0,0.0,1.0,1.0,354.6287259996461,4.0,1.0,part_1,,,,,,,,,,,,,cyan,triangle
0.0,8.0,0.0,1.0,3.0,3.0,445.4196489969035,4.0,1.0,part_1,,,,,,,,,,,,,green,circle
215.0,7.0,3.0,1.0,4.0,4.0,306.4803140005097,4.0,1.0,part_1,,,,,,,,,,,,,orange,square
201.0,7.0,3.0,1.0,2.0,2.0,840.8507940002892,4.0,1.0,part_1,,,,,,,,,,,,,orange,square
0.0,3.0,0.0,0.0,4.0,4.0,323.5780530012562,4.0,1.0,part_1,,,,,,,,,,,,,cyan,triangle
391.0,8.0,4.0,1.0,3.0,3.0,332.6069960021414,4.0,1.0,part_1,,,,,,,,,,,,,green,circle
209.0,7.0,3.0,1.0,3.0,3.0,341.1527489988657,4.0,1.0,part_1,,,,,,,,,,,,,orange,square
391.0,4.0,4.0,0.0,2.0,2.0,366.1481130002357,4.0,1.0,part_1,,,,,,,,,,,,,blue,I
70.0,5.0,1.0,1.0,1.0,1.0,341.5550850004365,4.0,1.0,part_1,,,,,,,,,,,,,magenta,cross
404.0,4.0,4.0,0.0,1.0,1.0,408.1803080007375,4.0,1.0,part_1,,,,,,,,,,,,,blue,I
56.0,5.0,1.0,1.0,3.0,3.0,346.7306630009261,4.0,1.0,part_1,,,,,,,,,,,,,magenta,cross
44.0,1.0,1.0,0.0,4.0,4.0,341.1105269988184,4.0,1.0,part_1,,,,,,,,,,,,,gray,hexagon
221.0,7.0,3.0,1.0,3.0,3.0,381.3564520023647,4.0,1.0,part_1,,,,,,,,,,,,,orange,square
78.0,6.0,2.0,1.0,1.0,1.0,516.1048129994015,4.0,1.0,part_1,,,,,,,,,,,,,yellow,diamond
70.0,1.0,1.0,0.0,3.0,3.0,381.9698140032415,4.0,1.0,part_1,,,,,,,,,,,,,gray,hexagon
0.0,7.0,0.0,1.0,1.0,1.0,461.9693519998691,4.0,1.0,part_1,,,,,,,,,,,,,orange,square
400.0,8.0,4.0,1.0,2.0,2.0,387.5296320002235,4.0,1.0,part_1,,,,,,,,,,,,,green,circle
0.0,3.0,0.0,0.0,4.0,4.0,379.1875390015775,4.0,1.0,part_1,,,,,,,,,,,,,cyan,triangle
66.0,5.0,1.0,1.0,1.0,1.0,367.2210050026478,4.0,1.0,part_1,,,,,,,,,,,,,magenta,cross
176.0,7.0,3.0,1.0,4.0,4.0,344.9453620014537,4.0,1.0,part_1,,,,,,,,,,,,,orange,square
41.0,5.0,1.0,1.0,4.0,4.0,348.286199998256,4.0,1.0,part_1,,,,,,,,,,,,,magenta,cross
92.0,6.0,2.0,1.0,1.0,1.0,365.1085510027769,4.0,1.0,part_1,,,,,,,,,,,,,yellow,diamond
189.0,7.0,3.0,1.0,1.0,1.0,482.2391910020087,4.0,1.0,part_1,,,,,,,,,,,,,orange,square
422.0,4.0,4.0,0.0,3.0,3.0,499.343661002058,4.0,1.0,part_1,,,,,,,,,,,,,blue,I
106.0,2.0,2.0,0.0,1.0,1.0,364.3588670020108,4.0,1.0,part_1,,,,,,,,,,,,,white,flipped triangle
177.0,7.0,3.0,1.0,2.0,2.0,376.7290920004598,4.0,1.0,part_1,,,,,,,,,,,,,orange,square
396.0,8.0,4.0,1.0,2.0,2.0,376.1857400022563,4.0,1.0,part_1,,,,,,,,,,,,,green,circle
113.0,6.0,2.0,1.0,4.0,4.0,317.9993559970171,4.0,1.0,part_1,,,,,,,,,,,,,yellow,diamond
103.0,2.0,2.0,0.0,2.0,2.0,320.7328040007269,4.0,1.0,part_1,,,,,,,,,,,,,white,flipped triangle
120.0,2.0,2.0,0.0,2.0,2.0,348.5656299999391,4.0,1.0,part_1,,,,,,,,,,,,,white,flipped triangle
189.0,7.0,3.0,1.0,3.0,3.0,355.7321289990796,4.0,1.0,part_1,,,,,,,,,,,,,orange,square
102.0,2.0,2.0,0.0,4.0,4.0,317.7821169992967,4.0,1.0,part_1,,,,,,,,,,,,,white,flipped triangle
224.0,7.0,3.0,1.0,3.0,3.0,340.5709010003193,4.0,1.0,part_1,,,,,,,,,,,,,orange,square
218.0,3.0,3.0,0.0,2.0,2.0,385.2185560026555,4.0,1.0,part_1,,,,,,,,,,,,,cyan,triangle
106.0,2.0,2.0,0.0,3.0,3.0,383.0207909995806,4.0,1.0,part_1,,,,,,,,,,,,,white,flipped triangle
205.0,7.0,3.0,1.0,1.0,1.0,339.4923029991332,4.0,1.0,part_1,,,,,,,,,,,,,orange,square
0.0,4.0,0.0,0.0,4.0,4.0,336.1786440000287,4.0,1.0,part_1,,,,,,,,,,,,,blue,I
0.0,1.0,0.0,0.0,2.0,2.0,352.6757409999845,4.0,1.0,part_1,,,,,,,,,,,,,gray,hexagon
0.0,2.0,2.0,0.0,5.0,5.0,362.7540179986681,1.0,0.0,part_2,go,250.0,250.0,1.0,,,,,,,,,white,flipped triangle
0.0,7.0,3.0,1.0,5.0,0.0,0.0,1.0,0.0,part_2,stop,250.0,250.0,4.0,,,,,,,,,orange,square
0.0,5.0,1.0,1.0,6.0,0.0,0.0,1.0,0.0,part_2,stop,300.0,250.0,4.0,,,,,,,,,magenta,cross
0.0,2.0,2.0,0.0,5.0,5.0,525.5056400019384,1.0,0.0,part_2,go,300.0,300.0,1.0,,,,,,,,,white,flipped triangle
0.0,1.0,1.0,0.0,5.0,5.0,487.1533840014308,1.0,0.0,part_2,go,300.0,300.0,1.0,,,,,,,,,gray,hexagon
0.0,6.0,2.0,1.0,6.0,6.0,640.7234880025499,1.0,0.0,part_2,go,300.0,300.0,1.0,,,,,,,,,yellow,diamond
0.0,6.0,2.0,1.0,6.0,0.0,0.0,1.0,0.0,part_2,stop,300.0,300.0,4.0,,,,,,,,,yellow,diamond
0.0,3.0,3.0,0.0,5.0,5.0,677.1239560002869,1.0,0.0,part_2,go,300.0,350.0,1.0,,,,,,,,,cyan,triangle
0.0,2.0,2.0,0.0,6.0,6.0,743.1540329998825,1.0,0.0,part_2,go,300.0,350.0,1.0,,,,,,,,,white,flipped triangle
0.0,8.0,4.0,1.0,6.0,0.0,0.0,1.0,0.0,part_2,stop,300.0,350.0,4.0,,,,,,,,,green,circle
0.0,1.0,1.0,0.0,5.0,5.0,772.2268180004903,1.0,0.0,part_2,go,300.0,400.0,1.0,,,,,,,,,gray,hexagon
0.0,5.0,1.0,1.0,5.0,5.0,861.055989000306,1.0,0.0,part_2,go,300.0,400.0,1.0,,,,,,,,,magenta,cross
0.0,2.0,2.0,0.0,6.0,6.0,639.7385390009731,1.0,0.0,part_2,go,300.0,400.0,1.0,,,,,,,,,white,flipped triangle
0.0,7.0,3.0,1.0,6.0,0.0,0.0,1.0,0.0,part_2,stop,300.0,400.0,4.0,,,,,,,,,orange,square
0.0,4.0,4.0,0.0,5.0,5.0,769.683286001964,1.0,0.0,part_2,go,300.0,450.0,1.0,,,,,,,,,blue,I
0.0,7.0,3.0,1.0,5.0,0.0,0.0,1.0,0.0,part_2,stop,300.0,450.0,4.0,,,,,,,,,orange,square
0.0,7.0,3.0,1.0,6.0,0.0,0.0,1.0,0.0,part_2,stop,350.0,450.0,4.0,,,,,,,,,orange,square
0.0,4.0,4.0,0.0,5.0,5.0,700.4843979993893,1.0,0.0,part_2,go,350.0,500.0,1.0,,,,,,,,,blue,I
0.0,5.0,1.0,1.0,6.0,0.0,0.0,1.0,0.0,part_2,stop,350.0,500.0,4.0,,,,,,,,,magenta,cross
0.0,5.0,1.0,1.0,5.0,0.0,0.0,1.0,0.0,part_2,stop,350.0,550.0,4.0,,,,,,,,,magenta,cross
0.0,3.0,3.0,0.0,6.0,6.0,953.1723100008094,1.0,0.0,part_2,go,400.0,550.0,1.0,,,,,,,,,cyan,triangle
0.0,4.0,4.0,0.0,6.0,6.0,1017.8051219991175,1.0,0.0,part_2,go,400.0,550.0,1.0,,,,,,,,,blue,I
0.0,6.0,2.0,1.0,6.0,0.0,0.0,1.0,0.0,part_2,stop,400.0,550.0,4.0,,,,,,,,,yellow,diamond
0.0,7.0,3.0,1.0,5.0,5.0,1001.8026270008704,1.0,0.0,part_2,go,400.0,600.0,1.0,,,,,,,,,orange,square
0.0,3.0,3.0,0.0,5.0,5.0,787.288448002073,1.0,0.0,part_2,go,400.0,600.0,1.0,,,,,,,,,cyan,triangle
0.0,7.0,3.0,1.0,6.0,6.0,714.193007999711,1.0,0.0,part_2,stop,400.0,600.0,3.0,,,,,,,,,orange,square
0.0,5.0,1.0,1.0,6.0,0.0,0.0,1.0,0.0,part_2,stop,400.0,550.0,4.0,,,,,,,,,magenta,cross
0.0,2.0,2.0,0.0,6.0,6.0,994.1354900001896,1.0,0.0,part_2,go,400.0,600.0,1.0,,,,,,,,,white,flipped triangle
0.0,4.0,4.0,0.0,5.0,5.0,1195.077983000374,1.0,0.0,part_2,go,400.0,600.0,1.0,,,,,,,,,blue,I
0.0,5.0,1.0,1.0,6.0,0.0,0.0,1.0,0.0,part_2,stop,400.0,600.0,4.0,,,,,,,,,magenta,cross
0.0,7.0,3.0,1.0,5.0,0.0,0.0,1.0,0.0,part_2,stop,400.0,650.0,4.0,,,,,,,,,orange,square
0.0,6.0,2.0,1.0,5.0,5.0,994.7305360001336,1.0,0.0,part_2,go,450.0,650.0,1.0,,,,,,,,,yellow,diamond
0.0,6.0,2.0,1.0,5.0,0.0,0.0,1.0,0.0,part_2,stop,450.0,650.0,4.0,,,,,,,,,yellow,diamond
0.0,8.0,4.0,1.0,5.0,0.0,0.0,1.0,0.0,part_2,stop,500.0,650.0,4.0,,,,,,,,,green,circle
0.0,3.0,3.0,0.0,5.0,5.0,859.4965490010509,1.0,0.0,part_2,go,550.0,650.0,1.0,,,,,,,,,cyan,triangle
0.0,6.0,2.0,1.0,5.0,0.0,0.0,1.0,0.0,part_2,stop,550.0,650.0,4.0,,,,,,,,,yellow,diamond
0.0,1.0,1.0,0.0,6.0,6.0,542.4545650021173,2.0,0.0,part_2,go,600.0,650.0,1.0,,,,,,,,,gray,hexagon
0.0,5.0,1.0,1.0,6.0,6.0,474.0887280022434,2.0,0.0,part_2,stop,600.0,650.0,3.0,,,,,,,,,magenta,cross
0.0,2.0,2.0,0.0,6.0,6.0,515.2458779994049,2.0,0.0,part_2,go,600.0,600.0,1.0,,,,,,,,,white,flipped triangle
0.0,7.0,3.0,1.0,5.0,5.0,642.4147819998325,2.0,0.0,part_2,stop,600.0,600.0,3.0,,,,,,,,,orange,square
0.0,5.0,1.0,1.0,6.0,0.0,0.0,2.0,0.0,part_2,stop,550.0,600.0,4.0,,,,,,,,,magenta,cross
0.0,2.0,2.0,0.0,6.0,6.0,927.6781190019392,2.0,0.0,part_2,go,550.0,650.0,1.0,,,,,,,,,white,flipped triangle
0.0,2.0,2.0,0.0,6.0,6.0,903.1892620005236,2.0,0.0,part_2,go,550.0,650.0,1.0,,,,,,,,,white,flipped triangle
0.0,8.0,4.0,1.0,6.0,0.0,0.0,2.0,0.0,part_2,stop,550.0,650.0,4.0,,,,,,,,,green,circle
0.0,2.0,2.0,0.0,6.0,6.0,991.1331880030048,2.0,0.0,part_2,go,550.0,700.0,1.0,,,,,,,,,white,flipped triangle
0.0,3.0,3.0,0.0,6.0,6.0,860.9870100008266,2.0,0.0,part_2,go,550.0,700.0,1.0,,,,,,,,,cyan,triangle
0.0,3.0,3.0,0.0,6.0,6.0,901.1438640009146,2.0,0.0,part_2,go,550.0,700.0,1.0,,,,,,,,,cyan,triangle
0.0,4.0,4.0,0.0,6.0,6.0,976.4761639999052,2.0,0.0,part_2,go,550.0,700.0,1.0,,,,,,,,,blue,I
0.0,2.0,2.0,0.0,6.0,6.0,801.1693090011249,2.0,0.0,part_2,go,550.0,700.0,1.0,,,,,,,,,white,flipped triangle
0.0,5.0,1.0,1.0,6.0,0.0,0.0,2.0,0.0,part_2,stop,550.0,700.0,4.0,,,,,,,,,magenta,cross
0.0,2.0,2.0,0.0,5.0,5.0,746.7503000007127,2.0,0.0,part_2,go,550.0,750.0,1.0,,,,,,,,,white,flipped triangle
0.0,1.0,1.0,0.0,5.0,5.0,999.8741620001964,2.0,0.0,part_2,go,550.0,750.0,1.0,,,,,,,,,gray,hexagon
0.0,2.0,2.0,0.0,5.0,5.0,1036.268841002311,2.0,0.0,part_2,go,550.0,750.0,1.0,,,,,,,,,white,flipped triangle
0.0,5.0,1.0,1.0,5.0,0.0,0.0,2.0,0.0,part_2,stop,550.0,750.0,4.0,,,,,,,,,magenta,cross
0.0,4.0,4.0,0.0,6.0,6.0,930.0377079998724,2.0,0.0,part_2,go,600.0,750.0,1.0,,,,,,,,,blue,I
0.0,3.0,3.0,0.0,6.0,6.0,1100.2208390018495,2.0,0.0,part_2,go,600.0,750.0,1.0,,,,,,,,,cyan,triangle
0.0,8.0,4.0,1.0,6.0,0.0,0.0,2.0,0.0,part_2,stop,600.0,750.0,4.0,,,,,,,,,green,circle
0.0,6.0,2.0,1.0,6.0,6.0,683.4798919990135,2.0,0.0,part_2,stop,600.0,800.0,3.0,,,,,,,,,yellow,diamond
0.0,5.0,1.0,1.0,6.0,6.0,982.0071409994852,2.0,0.0,part_2,go,600.0,750.0,1.0,,,,,,,,,magenta,cross
0.0,1.0,1.0,0.0,5.0,5.0,1150.2847769988875,2.0,0.0,part_2,go,600.0,750.0,1.0,,,,,,,,,gray,hexagon
0.0,3.0,3.0,0.0,5.0,5.0,760.8890090014029,2.0,0.0,part_2,go,600.0,750.0,1.0,,,,,,,,,cyan,triangle
0.0,2.0,2.0,0.0,5.0,5.0,717.1306499985803,2.0,0.0,part_2,go,600.0,750.0,1.0,,,,,,,,,white,flipped triangle
0.0,7.0,3.0,1.0,5.0,5.0,775.1000200005365,2.0,0.0,part_2,go,600.0,750.0,1.0,,,,,,,,,orange,square
0.0,2.0,2.0,0.0,5.0,5.0,757.6606960028585,2.0,0.0,part_2,go,600.0,750.0,1.0,,,,,,,,,white,flipped triangle
0.0,3.0,3.0,0.0,6.0,6.0,732.3045720004302,2.0,0.0,part_2,go,600.0,750.0,1.0,,,,,,,,,cyan,triangle
0.0,6.0,2.0,1.0,5.0,5.0,460.3004809978301,2.0,0.0,part_2,stop,600.0,750.0,3.0,,,,,,,,,yellow,diamond
0.0,4.0,4.0,0.0,5.0,5.0,731.6656819966738,2.0,0.0,part_2,go,550.0,750.0,1.0,,,,,,,,,blue,I
0.0,3.0,3.0,0.0,6.0,6.0,996.3208449989908,2.0,0.0,part_2,go,550.0,750.0,1.0,,,,,,,,,cyan,triangle
0.0,4.0,4.0,0.0,5.0,5.0,910.3516609975486,2.0,0.0,part_2,go,550.0,750.0,1.0,,,,,,,,,blue,I
0.0,6.0,2.0,1.0,5.0,0.0,0.0,2.0,0.0,part_2,stop,550.0,750.0,4.0,,,,,,,,,yellow,diamond
0.0,5.0,1.0,1.0,5.0,0.0,0.0,2.0,0.0,part_2,stop,600.0,750.0,4.0,,,,,,,,,magenta,cross
0.0,4.0,4.0,0.0,5.0,5.0,778.8002970009984,2.0,0.0,part_2,go,650.0,750.0,1.0,,,,,,,,,blue,I
0.0,4.0,4.0,0.0,6.0,6.0,724.691339997662,3.0,0.0,part_2,go,650.0,750.0,1.0,,,,,,,,,blue,I
0.0,1.0,1.0,0.0,6.0,6.0,316.4979729990591,3.0,0.0,part_2,go,650.0,750.0,1.0,,,,,,,,,gray,hexagon
0.0,3.0,3.0,0.0,5.0,5.0,450.5647660007525,3.0,0.0,part_2,go,650.0,750.0,1.0,,,,,,,,,cyan,triangle
0.0,7.0,3.0,1.0,6.0,6.0,605.247244999191,3.0,0.0,part_2,stop,650.0,750.0,3.0,,,,,,,,,orange,square
0.0,6.0,2.0,1.0,5.0,5.0,821.7036500027461,3.0,0.0,part_2,go,650.0,700.0,1.0,,,,,,,,,yellow,diamond
0.0,6.0,2.0,1.0,5.0,5.0,847.8261669988569,3.0,0.0,part_2,go,650.0,700.0,1.0,,,,,,,,,yellow,diamond
0.0,1.0,1.0,0.0,6.0,6.0,929.1350089988556,3.0,0.0,part_2,go,650.0,700.0,1.0,,,,,,,,,gray,hexagon
0.0,1.0,1.0,0.0,6.0,6.0,329.8704250009905,3.0,0.0,part_2,go,650.0,700.0,1.0,,,,,,,,,gray,hexagon
0.0,2.0,2.0,0.0,6.0,6.0,304.9903730025107,3.0,0.0,part_2,go,650.0,700.0,1.0,,,,,,,,,white,flipped triangle
0.0,8.0,4.0,1.0,5.0,5.0,393.1427339994116,3.0,0.0,part_2,go,650.0,700.0,1.0,,,,,,,,,green,circle
0.0,8.0,4.0,1.0,6.0,6.0,515.2625840019027,3.0,0.0,part_2,go,650.0,700.0,1.0,,,,,,,,,green,circle
0.0,8.0,4.0,1.0,5.0,5.0,268.9598799988744,3.0,0.0,part_2,stop,650.0,700.0,3.0,,,,,,,,,green,circle
0.0,4.0,4.0,0.0,5.0,5.0,366.5572840000095,3.0,0.0,part_2,go,600.0,700.0,1.0,,,,,,,,,blue,I
0.0,4.0,4.0,0.0,5.0,5.0,299.6935270020913,3.0,0.0,part_2,go,600.0,700.0,1.0,,,,,,,,,blue,I
0.0,7.0,3.0,1.0,6.0,6.0,250.4218470021442,3.0,0.0,part_2,go,600.0,700.0,1.0,,,,,,,,,orange,square
0.0,8.0,4.0,1.0,5.0,5.0,219.6745990004274,3.0,0.0,part_2,stop,600.0,700.0,3.0,,,,,,,,,green,circle
0.0,3.0,3.0,0.0,6.0,6.0,337.264434001554,3.0,0.0,part_2,go,550.0,700.0,1.0,,,,,,,,,cyan,triangle
0.0,2.0,2.0,0.0,5.0,5.0,276.7316230019787,3.0,0.0,part_2,go,550.0,700.0,1.0,,,,,,,,,white,flipped triangle
0.0,6.0,2.0,1.0,5.0,5.0,447.5381240008573,3.0,0.0,part_2,stop,550.0,700.0,3.0,,,,,,,,,yellow,diamond
0.0,4.0,4.0,0.0,6.0,6.0,305.8339239978522,3.0,0.0,part_2,go,500.0,700.0,1.0,,,,,,,,,blue,I
0.0,7.0,3.0,1.0,6.0,6.0,305.4613860003883,3.0,0.0,part_2,stop,500.0,700.0,3.0,,,,,,,,,orange,square
0.0,1.0,1.0,0.0,5.0,5.0,385.2539409999735,3.0,0.0,part_2,go,500.0,650.0,1.0,,,,,,,,,gray,hexagon
0.0,4.0,4.0,0.0,6.0,6.0,270.8207789983134,3.0,0.0,part_2,go,500.0,650.0,1.0,,,,,,,,,blue,I
0.0,2.0,2.0,0.0,6.0,6.0,331.0816250013886,3.0,0.0,part_2,go,500.0,650.0,1.0,,,,,,,,,white,flipped triangle
0.0,8.0,4.0,1.0,5.0,5.0,316.0179549995519,3.0,0.0,part_2,go,500.0,650.0,1.0,,,,,,,,,green,circle
0.0,1.0,1.0,0.0,6.0,6.0,381.3997070028563,3.0,0.0,part_2,go,500.0,650.0,1.0,,,,,,,,,gray,hexagon
0.0,8.0,4.0,1.0,5.0,5.0,265.3453179991629,3.0,0.0,part_2,stop,500.0,650.0,3.0,,,,,,,,,green,circle
0.0,6.0,2.0,1.0,6.0,6.0,330.0441339997633,3.0,0.0,part_2,stop,450.0,650.0,3.0,,,,,,,,,yellow,diamond
0.0,7.0,3.0,1.0,6.0,6.0,482.1871819985972,3.0,0.0,part_2,stop,450.0,600.0,3.0,,,,,,,,,orange,square
0.0,1.0,1.0,0.0,5.0,5.0,736.501817998942,3.0,0.0,part_2,go,450.0,550.0,1.0,,,,,,,,,gray,hexagon
0.0,8.0,4.0,1.0,5.0,0.0,0.0,3.0,0.0,part_2,stop,450.0,550.0,4.0,,,,,,,,,green,circle
0.0,8.0,4.0,1.0,5.0,0.0,0.0,3.0,0.0,part_2,stop,500.0,550.0,4.0,,,,,,,,,green,circle
0.0,6.0,2.0,1.0,6.0,0.0,0.0,3.0,0.0,part_2,stop,550.0,550.0,4.0,,,,,,,,,yellow,diamond
0.0,3.0,3.0,0.0,6.0,6.0,869.9588799972844,3.0,0.0,part_2,go,550.0,600.0,1.0,,,,,,,,,cyan,triangle
0.0,8.0,4.0,1.0,5.0,0.0,0.0,3.0,0.0,part_2,stop,550.0,600.0,4.0,,,,,,,,,green,circle
0.0,3.0,3.0,0.0,6.0,6.0,322.6112830016063,3.0,0.0,part_2,go,600.0,600.0,1.0,,,,,,,,,cyan,triangle
0.0,6.0,2.0,1.0,5.0,5.0,319.3383350007934,4.0,0.0,part_2,stop,600.0,600.0,3.0,,,,,,,,,yellow,diamond
0.0,1.0,1.0,0.0,5.0,5.0,287.7936410004622,4.0,0.0,part_2,go,550.0,600.0,1.0,,,,,,,,,gray,hexagon
0.0,7.0,3.0,1.0,6.0,6.0,274.7605830008979,4.0,0.0,part_2,stop,550.0,600.0,3.0,,,,,,,,,orange,square
0.0,1.0,1.0,0.0,5.0,5.0,454.980983002315,4.0,0.0,part_2,go,550.0,550.0,1.0,,,,,,,,,gray,hexagon
0.0,7.0,3.0,1.0,6.0,6.0,528.8195360008103,4.0,0.0,part_2,stop,550.0,550.0,3.0,,,,,,,,,orange,square
0.0,8.0,4.0,1.0,5.0,5.0,436.6579740017187,4.0,0.0,part_2,stop,550.0,500.0,3.0,,,,,,,,,green,circle
0.0,6.0,2.0,1.0,5.0,5.0,651.5657449999708,4.0,0.0,part_2,stop,500.0,500.0,3.0,,,,,,,,,yellow,diamond
0.0,4.0,4.0,0.0,6.0,6.0,784.4850250003219,4.0,0.0,part_2,go,450.0,500.0,1.0,,,,,,,,,blue,I
0.0,4.0,4.0,0.0,6.0,6.0,755.7153299967467,4.0,0.0,part_2,go,450.0,500.0,1.0,,,,,,,,,blue,I
0.0,2.0,2.0,0.0,5.0,5.0,542.4360580000211,4.0,0.0,part_2,go,450.0,500.0,1.0,,,,,,,,,white,flipped triangle
0.0,5.0,1.0,1.0,5.0,5.0,372.6517579998472,4.0,0.0,part_2,go,450.0,500.0,1.0,,,,,,,,,magenta,cross
0.0,2.0,2.0,0.0,6.0,6.0,596.729929002322,4.0,0.0,part_2,go,450.0,500.0,1.0,,,,,,,,,white,flipped triangle
0.0,8.0,4.0,1.0,6.0,0.0,0.0,4.0,0.0,part_2,stop,450.0,500.0,4.0,,,,,,,,,green,circle
0.0,1.0,1.0,0.0,5.0,5.0,620.0700180015701,4.0,0.0,part_2,go,450.0,550.0,1.0,,,,,,,,,gray,hexagon
0.0,6.0,2.0,1.0,5.0,0.0,0.0,4.0,0.0,part_2,stop,450.0,550.0,4.0,,,,,,,,,yellow,diamond
0.0,7.0,3.0,1.0,6.0,6.0,734.3841760011856,4.0,0.0,part_2,stop,500.0,550.0,3.0,,,,,,,,,orange,square
0.0,8.0,4.0,1.0,5.0,5.0,403.3909999998286,4.0,0.0,part_2,go,500.0,500.0,1.0,,,,,,,,,green,circle
0.0,6.0,2.0,1.0,6.0,6.0,619.8469490009302,4.0,0.0,part_2,stop,500.0,500.0,3.0,,,,,,,,,yellow,diamond
0.0,7.0,3.0,1.0,5.0,0.0,0.0,4.0,0.0,part_2,stop,500.0,450.0,4.0,,,,,,,,,orange,square
0.0,7.0,3.0,1.0,5.0,5.0,834.2808929992316,4.0,0.0,part_2,go,550.0,450.0,1.0,,,,,,,,,orange,square
0.0,8.0,4.0,1.0,6.0,0.0,0.0,4.0,0.0,part_2,stop,550.0,450.0,4.0,,,,,,,,,green,circle
0.0,5.0,1.0,1.0,5.0,5.0,413.1919350002135,4.0,0.0,part_2,go,550.0,500.0,1.0,,,,,,,,,magenta,cross
0.0,6.0,2.0,1.0,6.0,6.0,498.5955690026458,4.0,0.0,part_2,stop,550.0,500.0,3.0,,,,,,,,,yellow,diamond
0.0,3.0,3.0,0.0,6.0,6.0,873.9835250016768,4.0,0.0,part_2,go,550.0,450.0,1.0,,,,,,,,,cyan,triangle
0.0,4.0,4.0,0.0,5.0,5.0,650.7165289986006,4.0,0.0,part_2,go,550.0,450.0,1.0,,,,,,,,,blue,I
0.0,8.0,4.0,1.0,6.0,6.0,511.9613479982945,4.0,0.0,part_2,stop,550.0,450.0,3.0,,,,,,,,,green,circle
0.0,5.0,1.0,1.0,6.0,0.0,0.0,4.0,0.0,part_2,stop,550.0,400.0,4.0,,,,,,,,,magenta,cross
0.0,7.0,3.0,1.0,6.0,6.0,584.8615819995757,4.0,0.0,part_2,go,550.0,450.0,1.0,,,,,,,,,orange,square
0.0,3.0,3.0,0.0,6.0,6.0,743.3446739996725,4.0,0.0,part_2,go,550.0,450.0,1.0,,,,,,,,,cyan,triangle
0.0,6.0,2.0,1.0,5.0,5.0,366.9102860003477,4.0,0.0,part_2,stop,550.0,450.0,3.0,,,,,,,,,yellow,diamond
0.0,6.0,2.0,1.0,6.0,6.0,359.8427849974541,4.0,0.0,part_2,stop,500.0,450.0,3.0,,,,,,,,,yellow,diamond
0.0,7.0,3.0,1.0,6.0,0.0,0.0,4.0,0.0,part_2,stop,500.0,400.0,4.0,,,,,,,,,orange,square
0.0,1.0,1.0,0.0,5.0,5.0,505.35952399877715,4.0,0.0,part_2,go,500.0,450.0,1.0,,,,,,,,,gray,hexagon
0.0,6.0,2.0,1.0,6.0,0.0,0.0,4.0,0.0,part_2,stop,500.0,450.0,4.0,,,,,,,,,yellow,diamond
0.0,8.0,4.0,1.0,6.0,6.0,362.2829580017424,4.0,0.0,part_2,go,500.0,500.0,1.0,,,,,,,,,green,circle
0.0,2.0,2.0,0.0,6.0,6.0,525.2147899991542,4.0,0.0,part_2,go,500.0,500.0,1.0,,,,,,,,,white,flipped triangle
0.0,6.0,2.0,1.0,5.0,5.0,302.7674520017172,5.0,0.0,part_2,stop,500.0,500.0,3.0,,,,,,,,,yellow,diamond
0.0,3.0,3.0,0.0,5.0,5.0,500.9004880012071,5.0,0.0,part_2,go,450.0,500.0,1.0,,,,,,,,,cyan,triangle
0.0,3.0,3.0,0.0,5.0,5.0,310.5474889998731,5.0,0.0,part_2,go,450.0,500.0,1.0,,,,,,,,,cyan,triangle
0.0,8.0,4.0,1.0,6.0,6.0,497.2905989998253,5.0,0.0,part_2,stop,450.0,500.0,3.0,,,,,,,,,green,circle
0.0,6.0,2.0,1.0,6.0,6.0,326.9550749973859,5.0,0.0,part_2,go,450.0,450.0,1.0,,,,,,,,,yellow,diamond
0.0,3.0,3.0,0.0,6.0,6.0,354.5967630016093,5.0,0.0,part_2,go,450.0,450.0,1.0,,,,,,,,,cyan,triangle
0.0,4.0,4.0,0.0,6.0,6.0,755.9672110000974,5.0,0.0,part_2,go,450.0,450.0,1.0,,,,,,,,,blue,I
0.0,7.0,3.0,1.0,6.0,0.0,0.0,5.0,0.0,part_2,stop,450.0,450.0,4.0,,,,,,,,,orange,square
0.0,7.0,3.0,1.0,5.0,5.0,664.117955002439,5.0,0.0,part_2,go,450.0,500.0,1.0,,,,,,,,,orange,square
0.0,6.0,2.0,1.0,6.0,0.0,0.0,5.0,0.0,part_2,stop,450.0,500.0,4.0,,,,,,,,,yellow,diamond
0.0,2.0,2.0,0.0,5.0,5.0,718.2556809966627,5.0,0.0,part_2,go,450.0,550.0,1.0,,,,,,,,,white,flipped triangle
0.0,1.0,1.0,0.0,6.0,6.0,395.4344150006363,5.0,0.0,part_2,go,450.0,550.0,1.0,,,,,,,,,gray,hexagon
0.0,2.0,2.0,0.0,6.0,6.0,507.09330899917404,5.0,0.0,part_2,go,450.0,550.0,1.0,,,,,,,,,white,flipped triangle
0.0,5.0,1.0,1.0,5.0,5.0,437.1738940026262,5.0,0.0,part_2,stop,450.0,550.0,3.0,,,,,,,,,magenta,cross
0.0,6.0,2.0,1.0,5.0,5.0,391.0080880013993,5.0,0.0,part_2,stop,400.0,550.0,3.0,,,,,,,,,yellow,diamond
0.0,4.0,4.0,0.0,6.0,6.0,281.3538929985952,5.0,0.0,part_2,go,350.0,550.0,1.0,,,,,,,,,blue,I
0.0,4.0,4.0,0.0,6.0,6.0,298.3257170017168,5.0,0.0,part_2,go,350.0,550.0,1.0,,,,,,,,,blue,I
0.0,8.0,4.0,1.0,6.0,6.0,272.8327449985954,5.0,0.0,part_2,go,350.0,550.0,1.0,,,,,,,,,green,circle
0.0,1.0,1.0,0.0,5.0,5.0,478.6905689979903,5.0,0.0,part_2,go,350.0,550.0,1.0,,,,,,,,,gray,hexagon
0.0,7.0,3.0,1.0,6.0,6.0,154.9575470016861,5.0,0.0,part_2,stop,350.0,550.0,3.0,,,,,,,,,orange,square
0.0,4.0,4.0,0.0,5.0,5.0,408.9084979968902,5.0,0.0,part_2,go,350.0,500.0,1.0,,,,,,,,,blue,I
0.0,8.0,4.0,1.0,6.0,6.0,230.3244649992848,5.0,0.0,part_2,stop,350.0,500.0,3.0,,,,,,,,,green,circle
0.0,5.0,1.0,1.0,5.0,5.0,235.7410990007338,5.0,0.0,part_2,stop,350.0,450.0,3.0,,,,,,,,,magenta,cross
0.0,5.0,1.0,1.0,6.0,6.0,241.4440720021957,5.0,0.0,part_2,stop,300.0,450.0,3.0,,,,,,,,,magenta,cross
0.0,3.0,3.0,0.0,6.0,6.0,556.9648170021537,5.0,0.0,part_2,go,300.0,400.0,1.0,,,,,,,,,cyan,triangle
0.0,1.0,1.0,0.0,6.0,6.0,554.7794220001379,5.0,0.0,part_2,go,300.0,400.0,1.0,,,,,,,,,gray,hexagon
0.0,1.0,1.0,0.0,5.0,5.0,654.3550209971727,5.0,0.0,part_2,go,300.0,400.0,1.0,,,,,,,,,gray,hexagon
0.0,8.0,4.0,1.0,5.0,0.0,0.0,5.0,0.0,part_2,stop,300.0,400.0,4.0,,,,,,,,,green,circle
0.0,1.0,1.0,0.0,5.0,5.0,475.6753709989425,5.0,0.0,part_2,go,350.0,400.0,1.0,,,,,,,,,gray,hexagon
0.0,1.0,1.0,0.0,5.0,5.0,688.7190439992992,5.0,0.0,part_2,go,350.0,400.0,1.0,,,,,,,,,gray,hexagon
0.0,7.0,3.0,1.0,5.0,0.0,0.0,5.0,0.0,part_2,stop,350.0,400.0,4.0,,,,,,,,,orange,square
0.0,2.0,2.0,0.0,5.0,5.0,704.7392149979714,5.0,0.0,part_2,go,400.0,400.0,1.0,,,,,,,,,white,flipped triangle
0.0,8.0,4.0,1.0,5.0,5.0,748.1943689999753,5.0,0.0,part_2,go,400.0,400.0,1.0,,,,,,,,,green,circle
0.0,8.0,4.0,1.0,6.0,6.0,727.2207670030184,5.0,0.0,part_2,go,400.0,400.0,1.0,,,,,,,,,green,circle
0.0,1.0,1.0,0.0,6.0,6.0,280.4307799997332,5.0,0.0,part_2,go,400.0,400.0,1.0,,,,,,,,,gray,hexagon
0.0,6.0,2.0,1.0,5.0,5.0,257.2134139991249,5.0,0.0,part_2,stop,400.0,400.0,3.0,,,,,,,,,yellow,diamond
0.0,1.0,1.0,0.0,6.0,6.0,321.3967419978871,6.0,0.0,part_2,go,350.0,400.0,1.0,,,,,,,,,gray,hexagon
0.0,3.0,3.0,0.0,6.0,6.0,262.8113259997917,6.0,0.0,part_2,go,350.0,400.0,1.0,,,,,,,,,cyan,triangle
0.0,1.0,1.0,0.0,5.0,5.0,221.1777769989567,6.0,0.0,part_2,go,350.0,400.0,1.0,,,,,,,,,gray,hexagon
0.0,3.0,3.0,0.0,5.0,5.0,307.1683210000628,6.0,0.0,part_2,go,350.0,400.0,1.0,,,,,,,,,cyan,triangle
0.0,8.0,4.0,1.0,5.0,5.0,297.008632998768,6.0,0.0,part_2,stop,350.0,400.0,3.0,,,,,,,,,green,circle
0.0,1.0,1.0,0.0,5.0,5.0,534.2174059987883,6.0,0.0,part_2,go,300.0,400.0,1.0,,,,,,,,,gray,hexagon
0.0,5.0,1.0,1.0,6.0,6.0,226.0149059984542,6.0,0.0,part_2,stop,300.0,400.0,3.0,,,,,,,,,magenta,cross
0.0,7.0,3.0,1.0,5.0,5.0,361.6912580000644,6.0,0.0,part_2,go,300.0,350.0,1.0,,,,,,,,,orange,square
0.0,1.0,1.0,0.0,6.0,6.0,349.501701999543,6.0,0.0,part_2,go,300.0,350.0,1.0,,,,,,,,,gray,hexagon
0.0,1.0,1.0,0.0,6.0,6.0,347.3832890013,6.0,0.0,part_2,go,300.0,350.0,1.0,,,,,,,,,gray,hexagon
0.0,4.0,4.0,0.0,5.0,5.0,295.2563489998283,6.0,0.0,part_2,go,300.0,350.0,1.0,,,,,,,,,blue,I
0.0,6.0,2.0,1.0,5.0,5.0,438.4496599996055,6.0,0.0,part_2,stop,300.0,350.0,3.0,,,,,,,,,yellow,diamond
0.0,5.0,1.0,1.0,6.0,6.0,533.0158219985606,6.0,0.0,part_2,go,250.0,350.0,1.0,,,,,,,,,magenta,cross
0.0,6.0,2.0,1.0,5.0,0.0,0.0,6.0,0.0,part_2,stop,250.0,350.0,4.0,,,,,,,,,yellow,diamond
0.0,5.0,1.0,1.0,6.0,6.0,471.5953099985199,6.0,0.0,part_2,stop,300.0,350.0,3.0,,,,,,,,,magenta,cross
0.0,6.0,2.0,1.0,6.0,6.0,496.3687470008153,6.0,0.0,part_2,go,300.0,300.0,1.0,,,,,,,,,yellow,diamond
0.0,1.0,1.0,0.0,6.0,6.0,555.528595999931,6.0,0.0,part_2,go,300.0,300.0,1.0,,,,,,,,,gray,hexagon
0.0,5.0,1.0,1.0,6.0,6.0,339.7265940002398,6.0,0.0,part_2,stop,300.0,300.0,3.0,,,,,,,,,magenta,cross
0.0,2.0,2.0,0.0,5.0,5.0,587.3203650007781,6.0,0.0,part_2,go,300.0,250.0,1.0,,,,,,,,,white,flipped triangle
0.0,7.0,3.0,1.0,5.0,5.0,520.7399710016034,6.0,0.0,part_2,go,300.0,250.0,1.0,,,,,,,,,orange,square
0.0,1.0,1.0,0.0,5.0,5.0,503.0793559999438,6.0,0.0,part_2,go,300.0,250.0,1.0,,,,,,,,,gray,hexagon
0.0,2.0,2.0,0.0,5.0,5.0,264.3756569996185,6.0,0.0,part_2,go,300.0,250.0,1.0,,,,,,,,,white,flipped triangle
0.0,4.0,4.0,0.0,5.0,5.0,306.1769380001351,6.0,0.0,part_2,go,300.0,250.0,1.0,,,,,,,,,blue,I
0.0,5.0,1.0,1.0,6.0,6.0,781.2517640013539,6.0,0.0,part_2,stop,300.0,250.0,3.0,,,,,,,,,magenta,cross
0.0,3.0,3.0,0.0,6.0,6.0,542.0513290009694,6.0,0.0,part_2,go,300.0,200.0,1.0,,,,,,,,,cyan,triangle
0.0,2.0,2.0,0.0,5.0,5.0,386.8108090027817,6.0,0.0,part_2,go,300.0,200.0,1.0,,,,,,,,,white,flipped triangle
0.0,5.0,1.0,1.0,5.0,0.0,0.0,6.0,0.0,part_2,stop,300.0,200.0,4.0,,,,,,,,,magenta,cross
0.0,8.0,4.0,1.0,6.0,0.0,0.0,6.0,0.0,part_2,stop,350.0,200.0,4.0,,,,,,,,,green,circle
0.0,1.0,1.0,0.0,6.0,6.0,615.6406439986313,6.0,0.0,part_2,go,350.0,250.0,1.0,,,,,,,,,gray,hexagon
0.0,5.0,1.0,1.0,6.0,6.0,622.1410200014361,6.0,0.0,part_2,go,350.0,250.0,1.0,,,,,,,,,magenta,cross
0.0,7.0,3.0,1.0,5.0,0.0,0.0,6.0,0.0,part_2,stop,350.0,250.0,4.0,,,,,,,,,orange,square
0.0,3.0,3.0,0.0,5.0,5.0,530.8519389982393,6.0,0.0,part_2,go,400.0,250.0,1.0,,,,,,,,,cyan,triangle
0.0,3.0,3.0,0.0,5.0,5.0,450.817750999704,6.0,0.0,part_2,go,400.0,250.0,1.0,,,,,,,,,cyan,triangle
0.0,3.0,3.0,0.0,5.0,5.0,500.7373059997917,6.0,0.0,part_2,go,400.0,250.0,1.0,,,,,,,,,cyan,triangle
0.0,8.0,4.0,1.0,5.0,5.0,466.8168089992832,6.0,0.0,part_2,stop,400.0,250.0,3.0,,,,,,,,,green,circle
0.0,6.0,2.0,1.0,5.0,0.0,0.0,6.0,0.0,part_2,stop,350.0,250.0,4.0,,,,,,,,,yellow,diamond
0.0,4.0,4.0,0.0,6.0,6.0,309.8233930031711,7.0,0.0,part_2,go,400.0,250.0,1.0,,,,,,,,,blue,I
0.0,5.0,1.0,1.0,5.0,5.0,265.1700629976403,7.0,0.0,part_2,go,400.0,250.0,1.0,,,,,,,,,magenta,cross
0.0,2.0,2.0,0.0,5.0,5.0,290.7978809998894,7.0,0.0,part_2,go,400.0,250.0,1.0,,,,,,,,,white,flipped triangle
0.0,4.0,4.0,0.0,5.0,5.0,308.8120319989684,7.0,0.0,part_2,go,400.0,250.0,1.0,,,,,,,,,blue,I
0.0,8.0,4.0,1.0,6.0,6.0,300.1901589996123,7.0,0.0,part_2,go,400.0,250.0,1.0,,,,,,,,,green,circle
0.0,6.0,2.0,1.0,6.0,6.0,311.7909510001482,7.0,0.0,part_2,go,400.0,250.0,1.0,,,,,,,,,yellow,diamond
0.0,2.0,2.0,0.0,6.0,6.0,425.7327250015805,7.0,0.0,part_2,go,400.0,250.0,1.0,,,,,,,,,white,flipped triangle
0.0,8.0,4.0,1.0,5.0,5.0,389.6533240003919,7.0,0.0,part_2,stop,400.0,250.0,3.0,,,,,,,,,green,circle
0.0,7.0,3.0,1.0,5.0,0.0,0.0,7.0,0.0,part_2,stop,350.0,250.0,4.0,,,,,,,,,orange,square
0.0,8.0,4.0,1.0,6.0,0.0,0.0,7.0,0.0,part_2,stop,400.0,250.0,4.0,,,,,,,,,green,circle
0.0,4.0,4.0,0.0,6.0,6.0,439.4593049983086,7.0,0.0,part_2,go,400.0,300.0,1.0,,,,,,,,,blue,I
0.0,2.0,2.0,0.0,5.0,5.0,507.68714099831413,7.0,0.0,part_2,go,400.0,300.0,1.0,,,,,,,,,white,flipped triangle
0.0,3.0,3.0,0.0,5.0,5.0,343.3957199995348,7.0,0.0,part_2,go,400.0,300.0,1.0,,,,,,,,,cyan,triangle
0.0,1.0,1.0,0.0,6.0,6.0,525.626127000578,7.0,0.0,part_2,go,400.0,300.0,1.0,,,,,,,,,gray,hexagon
0.0,2.0,2.0,0.0,6.0,6.0,343.7242319996585,7.0,0.0,part_2,go,400.0,300.0,1.0,,,,,,,,,white,flipped triangle
0.0,3.0,3.0,0.0,6.0,6.0,334.3161590019008,7.0,0.0,part_2,go,400.0,300.0,1.0,,,,,,,,,cyan,triangle
0.0,8.0,4.0,1.0,6.0,0.0,0.0,7.0,0.0,part_2,stop,400.0,300.0,4.0,,,,,,,,,green,circle
0.0,2.0,2.0,0.0,5.0,5.0,482.0332159979443,7.0,0.0,part_2,go,400.0,350.0,1.0,,,,,,,,,white,flipped triangle
0.0,6.0,2.0,1.0,6.0,6.0,589.8139780001657,7.0,0.0,part_2,go,400.0,350.0,1.0,,,,,,,,,yellow,diamond
0.0,5.0,1.0,1.0,5.0,5.0,455.0270489999093,7.0,0.0,part_2,stop,400.0,350.0,3.0,,,,,,,,,magenta,cross
0.0,5.0,1.0,1.0,5.0,0.0,0.0,7.0,0.0,part_2,stop,350.0,350.0,4.0,,,,,,,,,magenta,cross
0.0,3.0,3.0,0.0,5.0,5.0,575.648440997611,7.0,0.0,part_2,go,400.0,350.0,1.0,,,,,,,,,cyan,triangle
0.0,5.0,1.0,1.0,5.0,0.0,0.0,7.0,0.0,part_2,stop,400.0,350.0,4.0,,,,,,,,,magenta,cross
0.0,7.0,3.0,1.0,5.0,5.0,552.7186809995328,7.0,0.0,part_2,stop,450.0,350.0,3.0,,,,,,,,,orange,square
0.0,5.0,1.0,1.0,5.0,0.0,0.0,7.0,0.0,part_2,stop,400.0,350.0,4.0,,,,,,,,,magenta,cross
0.0,1.0,1.0,0.0,6.0,6.0,641.0034940017795,7.0,0.0,part_2,go,450.0,350.0,1.0,,,,,,,,,gray,hexagon
0.0,3.0,3.0,0.0,5.0,5.0,847.9404130011972,7.0,0.0,part_2,go,450.0,350.0,1.0,,,,,,,,,cyan,triangle
0.0,8.0,4.0,1.0,6.0,0.0,0.0,7.0,0.0,part_2,stop,450.0,350.0,4.0,,,,,,,,,green,circle
0.0,7.0,3.0,1.0,6.0,0.0,0.0,7.0,0.0,part_2,stop,450.0,400.0,4.0,,,,,,,,,orange,square
0.0,8.0,4.0,1.0,5.0,5.0,515.8653689977655,7.0,0.0,part_2,stop,450.0,450.0,3.0,,,,,,,,,green,circle
0.0,6.0,2.0,1.0,6.0,6.0,603.1998069993278,7.0,0.0,part_2,go,400.0,450.0,1.0,,,,,,,,,yellow,diamond
0.0,8.0,4.0,1.0,5.0,0.0,0.0,7.0,0.0,part_2,stop,400.0,450.0,4.0,,,,,,,,,green,circle
0.0,4.0,4.0,0.0,6.0,6.0,700.8749379965593,7.0,0.0,part_2,go,450.0,450.0,1.0,,,,,,,,,blue,I
0.0,3.0,3.0,0.0,5.0,5.0,418.7000299971259,7.0,0.0,part_2,go,450.0,450.0,1.0,,,,,,,,,cyan,triangle
0.0,6.0,2.0,1.0,6.0,6.0,442.7153450014884,7.0,0.0,part_2,stop,450.0,450.0,3.0,,,,,,,,,yellow,diamond
0.0,4.0,4.0,0.0,5.0,5.0,523.0323239993595,7.0,0.0,part_2,go,450.0,400.0,1.0,,,,,,,,,blue,I
0.0,7.0,3.0,1.0,5.0,5.0,352.348919997894,8.0,0.0,part_2,stop,450.0,400.0,3.0,,,,,,,,,orange,square
0.0,1.0,1.0,0.0,6.0,6.0,234.3207779995282,8.0,0.0,part_2,go,400.0,400.0,1.0,,,,,,,,,gray,hexagon
0.0,4.0,4.0,0.0,5.0,5.0,567.5817859992094,8.0,0.0,part_2,go,400.0,400.0,1.0,,,,,,,,,blue,I
0.0,1.0,1.0,0.0,5.0,5.0,423.3915749973675,8.0,0.0,part_2,go,400.0,400.0,1.0,,,,,,,,,gray,hexagon
0.0,5.0,1.0,1.0,6.0,6.0,546.1418699997012,8.0,0.0,part_2,stop,400.0,400.0,3.0,,,,,,,,,magenta,cross
0.0,1.0,1.0,0.0,6.0,6.0,673.0179409969423,8.0,0.0,part_2,go,400.0,350.0,1.0,,,,,,,,,gray,hexagon
0.0,2.0,2.0,0.0,5.0,5.0,604.7035589981533,8.0,0.0,part_2,go,400.0,350.0,1.0,,,,,,,,,white,flipped triangle
0.0,5.0,1.0,1.0,5.0,0.0,0.0,8.0,0.0,part_2,stop,400.0,350.0,4.0,,,,,,,,,magenta,cross
0.0,7.0,3.0,1.0,6.0,0.0,0.0,8.0,0.0,part_2,stop,450.0,350.0,4.0,,,,,,,,,orange,square
0.0,4.0,4.0,0.0,5.0,5.0,562.0997879996139,8.0,0.0,part_2,go,450.0,400.0,1.0,,,,,,,,,blue,I
0.0,5.0,1.0,1.0,5.0,0.0,0.0,8.0,0.0,part_2,stop,450.0,400.0,4.0,,,,,,,,,magenta,cross
0.0,4.0,4.0,0.0,5.0,5.0,502.82223100293777,8.0,0.0,part_2,go,500.0,400.0,1.0,,,,,,,,,blue,I
0.0,4.0,4.0,0.0,6.0,6.0,593.679843001155,8.0,0.0,part_2,go,500.0,400.0,1.0,,,,,,,,,blue,I
0.0,4.0,4.0,0.0,6.0,6.0,694.5315550001396,8.0,0.0,part_2,go,500.0,400.0,1.0,,,,,,,,,blue,I
0.0,5.0,1.0,1.0,5.0,5.0,568.3743820009113,8.0,0.0,part_2,go,500.0,400.0,1.0,,,,,,,,,magenta,cross
0.0,7.0,3.0,1.0,6.0,0.0,0.0,8.0,0.0,part_2,stop,500.0,400.0,4.0,,,,,,,,,orange,square
0.0,6.0,2.0,1.0,6.0,0.0,0.0,8.0,0.0,part_2,stop,500.0,450.0,4.0,,,,,,,,,yellow,diamond
0.0,5.0,1.0,1.0,6.0,6.0,527.9290550024598,8.0,0.0,part_2,go,500.0,500.0,1.0,,,,,,,,,magenta,cross
0.0,3.0,3.0,0.0,5.0,5.0,651.6580340030487,8.0,0.0,part_2,go,500.0,500.0,1.0,,,,,,,,,cyan,triangle
0.0,1.0,1.0,0.0,6.0,6.0,807.8229630009446,8.0,0.0,part_2,go,500.0,500.0,1.0,,,,,,,,,gray,hexagon
0.0,2.0,2.0,0.0,6.0,6.0,1050.2121760000591,8.0,0.0,part_2,go,500.0,500.0,1.0,,,,,,,,,white,flipped triangle
0.0,2.0,2.0,0.0,5.0,5.0,617.8114979993552,8.0,0.0,part_2,go,500.0,500.0,1.0,,,,,,,,,white,flipped triangle
0.0,3.0,3.0,0.0,5.0,5.0,654.7092410000914,8.0,0.0,part_2,go,500.0,500.0,1.0,,,,,,,,,cyan,triangle
0.0,3.0,3.0,0.0,6.0,6.0,615.9939209974254,8.0,0.0,part_2,go,500.0,500.0,1.0,,,,,,,,,cyan,triangle
0.0,7.0,3.0,1.0,5.0,0.0,0.0,8.0,0.0,part_2,stop,500.0,500.0,4.0,,,,,,,,,orange,square
0.0,7.0,3.0,1.0,5.0,5.0,679.0992079986609,8.0,0.0,part_2,stop,550.0,500.0,3.0,,,,,,,,,orange,square
0.0,4.0,4.0,0.0,5.0,5.0,804.666370000632,8.0,0.0,part_2,go,500.0,500.0,1.0,,,,,,,,,blue,I
0.0,3.0,3.0,0.0,5.0,5.0,709.0361499977007,8.0,0.0,part_2,go,500.0,500.0,1.0,,,,,,,,,cyan,triangle
0.0,3.0,3.0,0.0,6.0,6.0,588.2249130008859,8.0,0.0,part_2,go,500.0,500.0,1.0,,,,,,,,,cyan,triangle
0.0,7.0,3.0,1.0,6.0,6.0,667.7395480000996,8.0,0.0,part_2,go,500.0,500.0,1.0,,,,,,,,,orange,square
0.0,2.0,2.0,0.0,6.0,6.0,254.3724429997382,8.0,0.0,part_2,go,500.0,500.0,1.0,,,,,,,,,white,flipped triangle
0.0,5.0,1.0,1.0,5.0,5.0,259.9644280016946,8.0,0.0,part_2,stop,500.0,500.0,3.0,,,,,,,,,magenta,cross
0.0,4.0,4.0,0.0,6.0,6.0,324.5239989992114,8.0,0.0,part_2,go,450.0,500.0,1.0,,,,,,,,,blue,I
0.0,2.0,2.0,0.0,6.0,6.0,302.6579090001178,8.0,0.0,part_2,go,450.0,500.0,1.0,,,,,,,,,white,flipped triangle
0.0,8.0,4.0,1.0,6.0,6.0,371.6209359990898,8.0,0.0,part_2,stop,450.0,500.0,3.0,,,,,,,,,green,circle
0.0,4.0,4.0,0.0,6.0,6.0,312.1297670004423,8.0,0.0,part_2,go,450.0,450.0,1.0,,,,,,,,,blue,I
0.0,2.0,2.0,0.0,7.0,3.0,3030.4023909993703,1.0,1.0,part_3,go,0.0,0.0,0.0,204.0,6.0,170.0,136.0,204.0,102.0,68.0,34.0,white,flipped triangle
0.0,6.0,2.0,1.0,7.0,5.0,1730.740377999609,1.0,1.0,part_3,go,0.0,0.0,0.0,234.0,6.0,195.0,117.0,156.0,78.0,234.0,39.0,yellow,diamond
0.0,7.0,3.0,1.0,7.0,2.0,1986.376549000852,1.0,1.0,part_3,go,0.0,0.0,0.0,162.0,3.0,324.0,162.0,108.0,270.0,54.0,216.0,orange,square
0.0,4.0,4.0,0.0,7.0,2.0,2816.9380569997884,1.0,1.0,part_3,go,0.0,0.0,0.0,216.0,4.0,108.0,216.0,270.0,324.0,54.0,162.0,blue,I
0.0,5.0,1.0,1.0,7.0,1.0,2104.8757169992314,1.0,1.0,part_3,go,0.0,0.0,0.0,170.0,5.0,170.0,34.0,136.0,102.0,68.0,204.0,magenta,cross
0.0,7.0,3.0,1.0,7.0,5.0,2797.69689800014,1.0,1.0,part_3,go,0.0,0.0,0.0,176.0,4.0,264.0,220.0,88.0,44.0,176.0,132.0,orange,square
0.0,6.0,2.0,1.0,7.0,2.0,1380.3636220000044,1.0,1.0,part_3,go,0.0,0.0,0.0,294.0,6.0,49.0,294.0,245.0,98.0,196.0,147.0,yellow,diamond
0.0,6.0,2.0,1.0,7.0,6.0,1720.5823730000702,1.0,1.0,part_3,go,0.0,0.0,0.0,324.0,6.0,270.0,108.0,54.0,216.0,162.0,324.0,yellow,diamond
0.0,1.0,1.0,0.0,7.0,4.0,2420.938777999254,1.0,1.0,part_3,go,0.0,0.0,0.0,220.0,5.0,88.0,132.0,264.0,220.0,176.0,44.0,gray,hexagon
0.0,3.0,3.0,0.0,7.0,1.0,2586.9348280029953,1.0,1.0,part_3,go,0.0,0.0,0.0,156.0,4.0,156.0,39.0,78.0,117.0,234.0,195.0,cyan,triangle
0.0,7.0,3.0,1.0,7.0,5.0,2657.275079000101,1.0,1.0,part_3,go,0.0,0.0,0.0,176.0,4.0,132.0,264.0,220.0,44.0,176.0,88.0,orange,square
0.0,4.0,4.0,0.0,7.0,2.0,2020.9629900018622,1.0,1.0,part_3,go,0.0,0.0,0.0,170.0,5.0,204.0,170.0,136.0,102.0,68.0,34.0,blue,I
0.0,1.0,1.0,0.0,7.0,4.0,2435.6277359984233,1.0,1.0,part_3,go,0.0,0.0,0.0,270.0,5.0,324.0,54.0,162.0,270.0,108.0,216.0,gray,hexagon
0.0,5.0,1.0,1.0,7.0,5.0,2103.5038189984334,1.0,1.0,part_3,go,0.0,0.0,0.0,245.0,5.0,294.0,147.0,49.0,98.0,245.0,196.0,magenta,cross
0.0,1.0,1.0,0.0,7.0,5.0,1738.8422199983324,1.0,1.0,part_3,go,0.0,0.0,0.0,170.0,5.0,204.0,136.0,34.0,68.0,170.0,102.0,gray,hexagon
0.0,2.0,2.0,0.0,7.0,3.0,2497.0063289983955,1.0,1.0,part_3,go,0.0,0.0,0.0,196.0,4.0,49.0,98.0,196.0,294.0,147.0,245.0,white,flipped triangle
0.0,6.0,2.0,1.0,7.0,1.0,1766.1844680005745,1.0,1.0,part_3,go,0.0,0.0,0.0,204.0,6.0,204.0,34.0,136.0,170.0,102.0,68.0,yellow,diamond
0.0,8.0,4.0,1.0,7.0,6.0,2187.0620789995883,1.0,1.0,part_3,go,0.0,0.0,0.0,245.0,5.0,294.0,196.0,49.0,98.0,147.0,245.0,green,circle
0.0,8.0,4.0,1.0,7.0,2.0,2579.456667001068,1.0,1.0,part_3,go,0.0,0.0,0.0,270.0,5.0,324.0,270.0,162.0,54.0,216.0,108.0,green,circle
0.0,5.0,1.0,1.0,7.0,4.0,3227.1214180000243,1.0,1.0,part_3,go,0.0,0.0,0.0,170.0,5.0,204.0,34.0,136.0,170.0,102.0,68.0,magenta,cross
0.0,2.0,2.0,0.0,7.0,2.0,1664.0963580030077,2.0,1.0,part_3,go,0.0,0.0,0.0,270.0,5.0,324.0,270.0,162.0,108.0,54.0,216.0,white,flipped triangle
0.0,1.0,1.0,0.0,7.0,5.0,1653.3136120015115,2.0,1.0,part_3,go,0.0,0.0,0.0,204.0,6.0,170.0,136.0,102.0,34.0,204.0,68.0,gray,hexagon
0.0,3.0,3.0,0.0,7.0,6.0,1317.506436000258,2.0,1.0,part_3,go,0.0,0.0,0.0,170.0,5.0,204.0,34.0,68.0,102.0,136.0,170.0,cyan,triangle
0.0,4.0,4.0,0.0,7.0,5.0,1817.9170910007088,2.0,1.0,part_3,go,0.0,0.0,0.0,176.0,4.0,264.0,44.0,88.0,220.0,176.0,132.0,blue,I
0.0,7.0,3.0,1.0,7.0,3.0,1967.8694610011007,2.0,1.0,part_3,go,0.0,0.0,0.0,147.0,3.0,196.0,245.0,147.0,49.0,294.0,98.0,orange,square
0.0,2.0,2.0,0.0,7.0,4.0,2752.2928479993425,2.0,1.0,part_3,go,0.0,0.0,0.0,117.0,3.0,195.0,78.0,234.0,117.0,156.0,39.0,white,flipped triangle
0.0,1.0,1.0,0.0,7.0,2.0,2650.568696000846,2.0,1.0,part_3,go,0.0,0.0,0.0,270.0,5.0,108.0,270.0,54.0,162.0,216.0,324.0,gray,hexagon
0.0,6.0,2.0,1.0,7.0,1.0,1596.1787840024044,2.0,1.0,part_3,go,0.0,0.0,0.0,264.0,6.0,264.0,132.0,220.0,88.0,44.0,176.0,yellow,diamond
0.0,6.0,2.0,1.0,7.0,5.0,1712.0159589976538,2.0,1.0,part_3,go,0.0,0.0,0.0,234.0,6.0,195.0,117.0,78.0,39.0,234.0,156.0,yellow,diamond
0.0,7.0,3.0,1.0,7.0,1.0,3191.356958999677,2.0,1.0,part_3,go,0.0,0.0,0.0,136.0,4.0,136.0,68.0,204.0,170.0,102.0,34.0,orange,square
0.0,3.0,3.0,0.0,7.0,1.0,2361.15501599852,2.0,1.0,part_3,go,0.0,0.0,0.0,270.0,5.0,270.0,324.0,216.0,162.0,108.0,54.0,cyan,triangle
0.0,4.0,4.0,0.0,7.0,2.0,2078.423587998259,2.0,1.0,part_3,go,0.0,0.0,0.0,117.0,3.0,156.0,117.0,78.0,195.0,39.0,234.0,blue,I
0.0,4.0,4.0,0.0,7.0,6.0,2227.650689001166,2.0,1.0,part_3,go,0.0,0.0,0.0,132.0,3.0,44.0,220.0,88.0,176.0,264.0,132.0,blue,I
0.0,5.0,1.0,1.0,7.0,6.0,2742.162074002408,2.0,1.0,part_3,go,0.0,0.0,0.0,216.0,4.0,324.0,162.0,54.0,108.0,270.0,216.0,magenta,cross
0.0,2.0,2.0,0.0,7.0,2.0,2510.758545002318,2.0,1.0,part_3,go,0.0,0.0,0.0,132.0,3.0,44.0,132.0,264.0,88.0,220.0,176.0,white,flipped triangle
0.0,6.0,2.0,1.0,7.0,6.0,1848.9674990014464,2.0,1.0,part_3,go,0.0,0.0,0.0,204.0,6.0,34.0,136.0,68.0,170.0,102.0,204.0,yellow,diamond
0.0,7.0,3.0,1.0,7.0,3.0,2470.505911998771,2.0,1.0,part_3,go,0.0,0.0,0.0,156.0,4.0,117.0,39.0,156.0,195.0,78.0,234.0,orange,square
0.0,8.0,4.0,1.0,7.0,3.0,2276.0176490010053,2.0,1.0,part_3,go,0.0,0.0,0.0,234.0,6.0,39.0,156.0,234.0,195.0,78.0,117.0,green,circle
0.0,5.0,1.0,1.0,7.0,3.0,2782.033342999057,2.0,1.0,part_3,go,0.0,0.0,0.0,132.0,3.0,176.0,220.0,132.0,264.0,88.0,44.0,magenta,cross
0.0,8.0,4.0,1.0,7.0,6.0,1655.947359999118,2.0,1.0,part_3,go,0.0,0.0,0.0,294.0,6.0,245.0,98.0,196.0,49.0,147.0,294.0,green,circle
0.0,4.0,4.0,0.0,7.0,2.0,1147.8576289991906,3.0,1.0,part_3,go,0.0,0.0,0.0,117.0,3.0,234.0,117.0,156.0,195.0,39.0,78.0,blue,I
0.0,8.0,4.0,1.0,7.0,2.0,1520.0076119981532,3.0,1.0,part_3,go,0.0,0.0,0.0,264.0,6.0,44.0,264.0,88.0,132.0,220.0,176.0,green,circle
0.0,2.0,2.0,0.0,7.0,3.0,1392.8347699984442,3.0,1.0,part_3,go,0.0,0.0,0.0,88.0,2.0,264.0,176.0,88.0,132.0,220.0,44.0,white,flipped triangle
0.0,1.0,1.0,0.0,7.0,5.0,2251.3430869985314,3.0,1.0,part_3,go,0.0,0.0,0.0,220.0,5.0,88.0,132.0,264.0,176.0,220.0,44.0,gray,hexagon
0.0,4.0,4.0,0.0,7.0,4.0,1815.7881440019992,3.0,1.0,part_3,go,0.0,0.0,0.0,98.0,2.0,294.0,147.0,49.0,98.0,196.0,245.0,blue,I
0.0,3.0,3.0,0.0,7.0,6.0,2193.7104589997034,3.0,1.0,part_3,go,0.0,0.0,0.0,147.0,3.0,294.0,49.0,245.0,196.0,98.0,147.0,cyan,triangle
0.0,7.0,3.0,1.0,7.0,1.0,1835.846649002633,3.0,1.0,part_3,go,0.0,0.0,0.0,98.0,2.0,98.0,49.0,294.0,196.0,147.0,245.0,orange,square
0.0,7.0,3.0,1.0,7.0,2.0,2004.574048001814,3.0,1.0,part_3,go,0.0,0.0,0.0,78.0,2.0,156.0,78.0,39.0,117.0,195.0,234.0,orange,square
0.0,1.0,1.0,0.0,7.0,1.0,1929.682760001015,3.0,1.0,part_3,go,0.0,0.0,0.0,156.0,4.0,156.0,195.0,117.0,78.0,234.0,39.0,gray,hexagon
0.0,8.0,4.0,1.0,7.0,1.0,3135.2938760028337,3.0,1.0,part_3,go,0.0,0.0,0.0,170.0,5.0,170.0,34.0,102.0,204.0,68.0,136.0,green,circle
0.0,5.0,1.0,1.0,7.0,6.0,2032.985344001645,3.0,1.0,part_3,go,0.0,0.0,0.0,98.0,2.0,245.0,49.0,147.0,196.0,294.0,98.0,magenta,cross
0.0,2.0,2.0,0.0,7.0,3.0,1907.4934410018616,3.0,1.0,part_3,go,0.0,0.0,0.0,54.0,1.0,162.0,270.0,54.0,108.0,216.0,324.0,white,flipped triangle
0.0,8.0,4.0,1.0,7.0,4.0,2424.962058001256,3.0,1.0,part_3,go,0.0,0.0,0.0,270.0,5.0,162.0,54.0,216.0,270.0,324.0,108.0,green,circle
0.0,2.0,2.0,0.0,7.0,2.0,1331.910205000895,3.0,1.0,part_3,go,0.0,0.0,0.0,98.0,2.0,147.0,98.0,294.0,245.0,49.0,196.0,white,flipped triangle
0.0,6.0,2.0,1.0,7.0,1.0,1602.155822001805,3.0,1.0,part_3,go,0.0,0.0,0.0,220.0,5.0,220.0,176.0,264.0,132.0,44.0,88.0,yellow,diamond
0.0,6.0,2.0,1.0,7.0,3.0,3637.274385997443,3.0,1.0,part_3,go,0.0,0.0,0.0,270.0,5.0,54.0,108.0,270.0,324.0,216.0,162.0,yellow,diamond
0.0,7.0,3.0,1.0,7.0,6.0,2800.8615750004537,3.0,1.0,part_3,go,0.0,0.0,0.0,170.0,5.0,204.0,102.0,136.0,34.0,68.0,170.0,orange,square
0.0,3.0,3.0,0.0,7.0,5.0,3056.6689879997284,3.0,1.0,part_3,go,0.0,0.0,0.0,196.0,4.0,147.0,245.0,49.0,98.0,196.0,294.0,cyan,triangle
0.0,3.0,3.0,0.0,7.0,6.0,3080.4179229999136,3.0,1.0,part_3,go,0.0,0.0,0.0,176.0,4.0,220.0,44.0,88.0,264.0,132.0,176.0,cyan,triangle
0.0,7.0,3.0,1.0,7.0,1.0,2609.9696239980403,3.0,1.0,part_3,go,0.0,0.0,0.0,108.0,2.0,108.0,216.0,324.0,162.0,270.0,54.0,orange,square
0.0,4.0,4.0,0.0,7.0,3.0,1264.3272090026585,4.0,1.0,part_3,go,0.0,0.0,0.0,147.0,3.0,294.0,49.0,147.0,196.0,98.0,245.0,blue,I
0.0,8.0,4.0,1.0,7.0,2.0,2017.1603919989138,4.0,1.0,part_3,go,0.0,0.0,0.0,170.0,5.0,34.0,170.0,136.0,68.0,204.0,102.0,green,circle
0.0,2.0,2.0,0.0,7.0,4.0,1894.307835998916,4.0,1.0,part_3,go,0.0,0.0,0.0,102.0,3.0,170.0,204.0,136.0,102.0,68.0,34.0,white,flipped triangle
0.0,3.0,3.0,0.0,7.0,3.0,1607.699787000456,4.0,1.0,part_3,go,0.0,0.0,0.0,156.0,4.0,234.0,195.0,156.0,39.0,78.0,117.0,cyan,triangle
0.0,1.0,1.0,0.0,7.0,4.0,1716.2411830031488,4.0,1.0,part_3,go,0.0,0.0,0.0,196.0,4.0,294.0,49.0,147.0,196.0,98.0,245.0,gray,hexagon
0.0,4.0,4.0,0.0,7.0,4.0,1599.3767279978783,4.0,1.0,part_3,go,0.0,0.0,0.0,162.0,3.0,108.0,216.0,54.0,162.0,270.0,324.0,blue,I
0.0,1.0,1.0,0.0,7.0,6.0,1227.6203699984762,4.0,1.0,part_3,go,0.0,0.0,0.0,196.0,4.0,245.0,147.0,49.0,294.0,98.0,196.0,gray,hexagon
0.0,8.0,4.0,1.0,7.0,3.0,2052.87730100099,4.0,1.0,part_3,go,0.0,0.0,0.0,264.0,6.0,44.0,88.0,264.0,220.0,176.0,132.0,green,circle
0.0,3.0,3.0,0.0,7.0,1.0,2191.8427669988887,4.0,1.0,part_3,go,0.0,0.0,0.0,170.0,5.0,170.0,68.0,204.0,102.0,34.0,136.0,cyan,triangle
0.0,2.0,2.0,0.0,7.0,3.0,1695.5020159984997,4.0,1.0,part_3,go,0.0,0.0,0.0,156.0,4.0,78.0,234.0,156.0,39.0,117.0,195.0,white,flipped triangle
0.0,3.0,3.0,0.0,7.0,5.0,3048.8829009991605,4.0,1.0,part_3,go,0.0,0.0,0.0,132.0,3.0,88.0,176.0,44.0,264.0,132.0,220.0,cyan,triangle
0.0,4.0,4.0,0.0,7.0,1.0,2093.137964999187,4.0,1.0,part_3,go,0.0,0.0,0.0,68.0,2.0,68.0,204.0,102.0,136.0,170.0,34.0,blue,I
0.0,5.0,1.0,1.0,7.0,3.0,1779.7948400002497,4.0,1.0,part_3,go,0.0,0.0,0.0,117.0,3.0,39.0,156.0,117.0,195.0,234.0,78.0,magenta,cross
0.0,5.0,1.0,1.0,7.0,3.0,1514.3380329973295,4.0,1.0,part_3,go,0.0,0.0,0.0,132.0,3.0,264.0,176.0,132.0,88.0,220.0,44.0,magenta,cross
0.0,5.0,1.0,1.0,7.0,2.0,2723.3701900004235,4.0,1.0,part_3,go,0.0,0.0,0.0,156.0,4.0,117.0,156.0,78.0,234.0,195.0,39.0,magenta,cross
0.0,6.0,2.0,1.0,7.0,6.0,2867.1974720018625,4.0,1.0,part_3,go,0.0,0.0,0.0,245.0,5.0,294.0,147.0,98.0,196.0,49.0,245.0,yellow,diamond
0.0,8.0,4.0,1.0,7.0,3.0,2284.009415998298,4.0,1.0,part_3,go,0.0,0.0,0.0,195.0,5.0,78.0,234.0,195.0,156.0,39.0,117.0,green,circle
0.0,5.0,1.0,1.0,7.0,3.0,3199.805517000641,4.0,1.0,part_3,go,0.0,0.0,0.0,162.0,3.0,324.0,270.0,162.0,216.0,108.0,54.0,magenta,cross
0.0,1.0,1.0,0.0,7.0,2.0,2026.9766250021348,4.0,1.0,part_3,go,0.0,0.0,0.0,195.0,5.0,156.0,195.0,78.0,39.0,117.0,234.0,gray,hexagon
0.0,3.0,3.0,0.0,7.0,5.0,2797.4647719966015,4.0,1.0,part_3,go,0.0,0.0,0.0,162.0,3.0,270.0,324.0,216.0,54.0,162.0,108.0,cyan,triangle
