raw_reward_magnitude,stim_reward,stepwise_reward_magnitude,paired_with_stopping,quadrant,response,reaction_time,block,num_trial_presentations,which_part,stop_signal_trial_type,left_SSD,right_SSD,accuracy,chosen_bidding_amount,chosen_bidding_level,possible_bid_1,possible_bid_2,possible_bid_3,possible_bid_4,possible_bid_5,possible_bid_6,color_text,shape_text
185.0,3.0,3.0,0.0,2.0,2.0,461.1589590003859,1.0,1.0,part_1,,,,,,,,,,,,,blue,diamond
112.0,2.0,2.0,0.0,4.0,4.0,309.1727259998151,1.0,1.0,part_1,,,,,,,,,,,,,magenta,flipped triangle
92.0,6.0,2.0,1.0,2.0,2.0,295.4219920011383,1.0,1.0,part_1,,,,,,,,,,,,,gray,hexagon
53.0,5.0,1.0,1.0,3.0,3.0,286.9077850009489,1.0,1.0,part_1,,,,,,,,,,,,,cyan,triangle
404.0,8.0,4.0,1.0,2.0,2.0,241.6360660008649,1.0,1.0,part_1,,,,,,,,,,,,,green,circle
0.0,7.0,0.0,1.0,3.0,3.0,332.509170000776,1.0,1.0,part_1,,,,,,,,,,,,,orange,square
40.0,5.0,1.0,1.0,4.0,4.0,313.4286830008932,1.0,1.0,part_1,,,,,,,,,,,,,cyan,triangle
0.0,5.0,0.0,1.0,4.0,4.0,331.1659499995585,1.0,1.0,part_1,,,,,,,,,,,,,cyan,triangle
214.0,7.0,3.0,1.0,2.0,2.0,564.7170129996084,1.0,1.0,part_1,,,,,,,,,,,,,orange,square
84.0,2.0,2.0,0.0,2.0,2.0,417.8986210008588,1.0,1.0,part_1,,,,,,,,,,,,,magenta,flipped triangle
0.0,3.0,0.0,0.0,2.0,2.0,340.1262420011335,1.0,1.0,part_1,,,,,,,,,,,,,blue,diamond
379.0,8.0,4.0,1.0,1.0,1.0,335.3867270016053,1.0,1.0,part_1,,,,,,,,,,,,,green,circle
95.0,2.0,2.0,0.0,2.0,2.0,343.1696800016652,1.0,1.0,part_1,,,,,,,,,,,,,magenta,flipped triangle
222.0,7.0,3.0,1.0,2.0,2.0,336.014853000961,1.0,1.0,part_1,,,,,,,,,,,,,orange,square
28.0,1.0,1.0,0.0,4.0,4.0,311.6741770008957,1.0,1.0,part_1,,,,,,,,,,,,,white,I
99.0,2.0,2.0,0.0,3.0,3.0,369.9112329995841,1.0,1.0,part_1,,,,,,,,,,,,,magenta,flipped triangle
222.0,7.0,3.0,1.0,4.0,4.0,485.0601150010334,1.0,1.0,part_1,,,,,,,,,,,,,orange,square
222.0,3.0,3.0,0.0,3.0,3.0,396.7060459999629,1.0,1.0,part_1,,,,,,,,,,,,,blue,diamond
124.0,2.0,2.0,0.0,3.0,3.0,362.0334710012685,1.0,1.0,part_1,,,,,,,,,,,,,magenta,flipped triangle
0.0,1.0,0.0,0.0,3.0,3.0,454.5023509999737,1.0,1.0,part_1,,,,,,,,,,,,,white,I
0.0,7.0,0.0,1.0,2.0,2.0,413.9473550003458,1.0,1.0,part_1,,,,,,,,,,,,,orange,square
63.0,5.0,1.0,1.0,3.0,3.0,391.2174479992245,1.0,1.0,part_1,,,,,,,,,,,,,cyan,triangle
64.0,1.0,1.0,0.0,2.0,2.0,413.1839260007837,1.0,1.0,part_1,,,,,,,,,,,,,white,I
0.0,8.0,0.0,1.0,3.0,3.0,320.2428740005416,1.0,1.0,part_1,,,,,,,,,,,,,green,circle
380.0,4.0,4.0,0.0,2.0,2.0,433.713895999972,1.0,1.0,part_1,,,,,,,,,,,,,yellow,cross
113.0,2.0,2.0,0.0,1.0,1.0,407.1958479999011,1.0,1.0,part_1,,,,,,,,,,,,,magenta,flipped triangle
63.0,5.0,1.0,1.0,2.0,2.0,477.3995310006285,1.0,1.0,part_1,,,,,,,,,,,,,cyan,triangle
394.0,4.0,4.0,0.0,3.0,3.0,414.532386999781,1.0,1.0,part_1,,,,,,,,,,,,,yellow,cross
398.0,4.0,4.0,0.0,3.0,3.0,460.6313330004923,1.0,1.0,part_1,,,,,,,,,,,,,yellow,cross
410.0,8.0,4.0,1.0,2.0,2.0,417.5876620010967,1.0,1.0,part_1,,,,,,,,,,,,,green,circle
49.0,5.0,1.0,1.0,1.0,1.0,445.3835430012987,1.0,1.0,part_1,,,,,,,,,,,,,cyan,triangle
30.0,5.0,1.0,1.0,3.0,3.0,463.6683669996273,1.0,1.0,part_1,,,,,,,,,,,,,cyan,triangle
181.0,3.0,3.0,0.0,3.0,3.0,390.9935620013129,1.0,1.0,part_1,,,,,,,,,,,,,blue,diamond
181.0,3.0,3.0,0.0,3.0,3.0,330.735576000734,1.0,1.0,part_1,,,,,,,,,,,,,blue,diamond
0.0,3.0,0.0,0.0,2.0,2.0,382.0629090005241,1.0,1.0,part_1,,,,,,,,,,,,,blue,diamond
422.0,8.0,4.0,1.0,1.0,1.0,421.1508910011616,1.0,1.0,part_1,,,,,,,,,,,,,green,circle
92.0,2.0,2.0,0.0,2.0,2.0,420.13283699998277,1.0,1.0,part_1,,,,,,,,,,,,,magenta,flipped triangle
0.0,4.0,0.0,0.0,4.0,4.0,483.6551780008449,1.0,1.0,part_1,,,,,,,,,,,,,yellow,cross
119.0,2.0,2.0,0.0,3.0,3.0,476.6982140008622,1.0,1.0,part_1,,,,,,,,,,,,,magenta,flipped triangle
100.0,2.0,2.0,0.0,4.0,4.0,348.5252620012034,1.0,1.0,part_1,,,,,,,,,,,,,magenta,flipped triangle
28.0,5.0,1.0,1.0,2.0,2.0,319.7039419992507,1.0,1.0,part_1,,,,,,,,,,,,,cyan,triangle
63.0,1.0,1.0,0.0,2.0,2.0,403.8950030007981,1.0,1.0,part_1,,,,,,,,,,,,,white,I
397.0,4.0,4.0,0.0,3.0,3.0,409.2226459997619,1.0,1.0,part_1,,,,,,,,,,,,,yellow,cross
177.0,7.0,3.0,1.0,4.0,4.0,416.3469069990242,1.0,1.0,part_1,,,,,,,,,,,,,orange,square
0.0,7.0,0.0,1.0,4.0,4.0,459.2718820003938,1.0,1.0,part_1,,,,,,,,,,,,,orange,square
69.0,1.0,1.0,0.0,3.0,3.0,412.3140190004051,1.0,1.0,part_1,,,,,,,,,,,,,white,I
0.0,5.0,0.0,1.0,3.0,3.0,585.7545169983496,1.0,1.0,part_1,,,,,,,,,,,,,cyan,triangle
203.0,7.0,3.0,1.0,2.0,2.0,356.6240599993762,1.0,1.0,part_1,,,,,,,,,,,,,orange,square
207.0,7.0,3.0,1.0,3.0,3.0,309.2490139988513,1.0,1.0,part_1,,,,,,,,,,,,,orange,square
376.0,8.0,4.0,1.0,3.0,3.0,314.3112409998139,1.0,1.0,part_1,,,,,,,,,,,,,green,circle
0.0,8.0,0.0,1.0,3.0,3.0,366.551625998909,1.0,1.0,part_1,,,,,,,,,,,,,green,circle
74.0,5.0,1.0,1.0,2.0,2.0,467.0693650004978,1.0,1.0,part_1,,,,,,,,,,,,,cyan,triangle
400.0,4.0,4.0,0.0,4.0,4.0,454.4405899996491,1.0,1.0,part_1,,,,,,,,,,,,,yellow,cross
110.0,6.0,2.0,1.0,3.0,3.0,348.1092510010057,1.0,1.0,part_1,,,,,,,,,,,,,gray,hexagon
0.0,1.0,0.0,0.0,1.0,1.0,379.354267999588,1.0,1.0,part_1,,,,,,,,,,,,,white,I
181.0,7.0,3.0,1.0,4.0,4.0,400.4932320003718,1.0,1.0,part_1,,,,,,,,,,,,,orange,square
94.0,2.0,2.0,0.0,1.0,1.0,422.8645749990392,1.0,1.0,part_1,,,,,,,,,,,,,magenta,flipped triangle
64.0,5.0,1.0,1.0,3.0,3.0,336.4454309994471,1.0,1.0,part_1,,,,,,,,,,,,,cyan,triangle
422.0,4.0,4.0,0.0,4.0,4.0,329.5622570003615,1.0,1.0,part_1,,,,,,,,,,,,,yellow,cross
82.0,2.0,2.0,0.0,3.0,3.0,433.2925109993084,1.0,1.0,part_1,,,,,,,,,,,,,magenta,flipped triangle
0.0,7.0,0.0,1.0,2.0,2.0,508.8019830000121,1.0,1.0,part_1,,,,,,,,,,,,,orange,square
203.0,3.0,3.0,0.0,1.0,1.0,390.7494750001206,1.0,1.0,part_1,,,,,,,,,,,,,blue,diamond
74.0,1.0,1.0,0.0,4.0,4.0,356.6986400001042,1.0,1.0,part_1,,,,,,,,,,,,,white,I
0.0,6.0,0.0,1.0,1.0,1.0,436.258280000402,1.0,1.0,part_1,,,,,,,,,,,,,gray,hexagon
91.0,6.0,2.0,1.0,1.0,1.0,521.6719079999166,1.0,1.0,part_1,,,,,,,,,,,,,gray,hexagon
69.0,5.0,1.0,1.0,2.0,2.0,338.3414809995884,1.0,1.0,part_1,,,,,,,,,,,,,cyan,triangle
35.0,5.0,1.0,1.0,4.0,4.0,343.6617480001587,1.0,1.0,part_1,,,,,,,,,,,,,cyan,triangle
0.0,5.0,0.0,1.0,3.0,3.0,400.1775039996573,1.0,1.0,part_1,,,,,,,,,,,,,cyan,triangle
398.0,8.0,4.0,1.0,2.0,2.0,582.8377540001384,1.0,1.0,part_1,,,,,,,,,,,,,green,circle
190.0,3.0,3.0,0.0,4.0,4.0,435.0667640010215,1.0,1.0,part_1,,,,,,,,,,,,,blue,diamond
0.0,4.0,0.0,0.0,3.0,3.0,366.0767050005233,1.0,1.0,part_1,,,,,,,,,,,,,yellow,cross
0.0,2.0,0.0,0.0,4.0,4.0,333.1693049985915,1.0,1.0,part_1,,,,,,,,,,,,,magenta,flipped triangle
113.0,2.0,2.0,0.0,1.0,1.0,445.7423700005165,1.0,1.0,part_1,,,,,,,,,,,,,magenta,flipped triangle
84.0,6.0,2.0,1.0,3.0,3.0,364.6350390008592,1.0,1.0,part_1,,,,,,,,,,,,,gray,hexagon
97.0,6.0,2.0,1.0,1.0,1.0,429.7143429994321,1.0,1.0,part_1,,,,,,,,,,,,,gray,hexagon
0.0,8.0,0.0,1.0,3.0,3.0,340.9003819997451,1.0,1.0,part_1,,,,,,,,,,,,,green,circle
28.0,5.0,1.0,1.0,4.0,4.0,399.1182790014136,1.0,1.0,part_1,,,,,,,,,,,,,cyan,triangle
199.0,3.0,3.0,0.0,2.0,2.0,322.8551419997529,1.0,1.0,part_1,,,,,,,,,,,,,blue,diamond
74.0,1.0,1.0,0.0,3.0,3.0,335.0950820004073,1.0,1.0,part_1,,,,,,,,,,,,,white,I
200.0,3.0,3.0,0.0,4.0,4.0,426.0354939997341,1.0,1.0,part_1,,,,,,,,,,,,,blue,diamond
191.0,3.0,3.0,0.0,2.0,2.0,447.6972169995861,1.0,1.0,part_1,,,,,,,,,,,,,blue,diamond
74.0,5.0,1.0,1.0,3.0,3.0,300.3085810014454,1.0,1.0,part_1,,,,,,,,,,,,,cyan,triangle
379.0,4.0,4.0,0.0,1.0,1.0,345.7515360005345,1.0,1.0,part_1,,,,,,,,,,,,,yellow,cross
193.0,7.0,3.0,1.0,3.0,3.0,318.8132220002444,1.0,1.0,part_1,,,,,,,,,,,,,orange,square
75.0,6.0,2.0,1.0,2.0,2.0,381.3257749989134,1.0,1.0,part_1,,,,,,,,,,,,,gray,hexagon
404.0,4.0,4.0,0.0,4.0,4.0,318.9784570004121,1.0,1.0,part_1,,,,,,,,,,,,,yellow,cross
215.0,7.0,3.0,1.0,1.0,1.0,476.0006340002292,1.0,1.0,part_1,,,,,,,,,,,,,orange,square
0.0,5.0,0.0,1.0,1.0,1.0,334.6913689983921,1.0,1.0,part_1,,,,,,,,,,,,,cyan,triangle
382.0,8.0,4.0,1.0,1.0,1.0,388.5807349997776,1.0,1.0,part_1,,,,,,,,,,,,,green,circle
120.0,2.0,2.0,0.0,3.0,3.0,375.4574459999276,1.0,1.0,part_1,,,,,,,,,,,,,magenta,flipped triangle
193.0,3.0,3.0,0.0,4.0,4.0,319.7430149994034,1.0,1.0,part_1,,,,,,,,,,,,,blue,diamond
117.0,6.0,2.0,1.0,4.0,4.0,325.8219300005294,1.0,1.0,part_1,,,,,,,,,,,,,gray,hexagon
222.0,3.0,3.0,0.0,1.0,1.0,333.8241790006577,1.0,1.0,part_1,,,,,,,,,,,,,blue,diamond
52.0,1.0,1.0,0.0,3.0,3.0,353.9053569984389,1.0,1.0,part_1,,,,,,,,,,,,,white,I
181.0,7.0,3.0,1.0,4.0,4.0,277.6276810000126,1.0,1.0,part_1,,,,,,,,,,,,,orange,square
25.0,5.0,1.0,1.0,1.0,1.0,310.0012960003369,1.0,1.0,part_1,,,,,,,,,,,,,cyan,triangle
200.0,7.0,3.0,1.0,4.0,4.0,384.6250059996237,1.0,1.0,part_1,,,,,,,,,,,,,orange,square
395.0,8.0,4.0,1.0,4.0,4.0,346.6746699996292,1.0,1.0,part_1,,,,,,,,,,,,,green,circle
119.0,6.0,2.0,1.0,4.0,4.0,365.3974190001463,1.0,1.0,part_1,,,,,,,,,,,,,gray,hexagon
219.0,7.0,3.0,1.0,1.0,1.0,389.3255949988088,1.0,1.0,part_1,,,,,,,,,,,,,orange,square
97.0,2.0,2.0,0.0,1.0,1.0,378.076417999182,2.0,1.0,part_1,,,,,,,,,,,,,magenta,flipped triangle
124.0,6.0,2.0,1.0,3.0,3.0,346.661089999543,2.0,1.0,part_1,,,,,,,,,,,,,gray,hexagon
0.0,8.0,0.0,1.0,3.0,3.0,349.7756799988565,2.0,1.0,part_1,,,,,,,,,,,,,green,circle
123.0,2.0,2.0,0.0,2.0,2.0,398.1328219997522,2.0,1.0,part_1,,,,,,,,,,,,,magenta,flipped triangle
80.0,6.0,2.0,1.0,4.0,4.0,327.2420590001275,2.0,1.0,part_1,,,,,,,,,,,,,gray,hexagon
59.0,1.0,1.0,0.0,3.0,3.0,372.890243999791,2.0,1.0,part_1,,,,,,,,,,,,,white,I
0.0,3.0,0.0,0.0,2.0,2.0,309.9162480011728,2.0,1.0,part_1,,,,,,,,,,,,,blue,diamond
185.0,7.0,3.0,1.0,1.0,1.0,366.9698359990434,2.0,1.0,part_1,,,,,,,,,,,,,orange,square
0.0,6.0,0.0,1.0,4.0,4.0,342.1737980006583,2.0,1.0,part_1,,,,,,,,,,,,,gray,hexagon
36.0,1.0,1.0,0.0,4.0,4.0,443.7713650004298,2.0,1.0,part_1,,,,,,,,,,,,,white,I
99.0,2.0,2.0,0.0,2.0,2.0,406.4701770003012,2.0,1.0,part_1,,,,,,,,,,,,,magenta,flipped triangle
0.0,3.0,0.0,0.0,1.0,1.0,368.2823270009976,2.0,1.0,part_1,,,,,,,,,,,,,blue,diamond
45.0,1.0,1.0,0.0,2.0,2.0,434.2942250004853,2.0,1.0,part_1,,,,,,,,,,,,,white,I
0.0,6.0,0.0,1.0,3.0,3.0,380.1811909997923,2.0,1.0,part_1,,,,,,,,,,,,,gray,hexagon
33.0,5.0,1.0,1.0,1.0,1.0,430.2376520008693,2.0,1.0,part_1,,,,,,,,,,,,,cyan,triangle
58.0,5.0,1.0,1.0,1.0,1.0,407.52597699975007,2.0,1.0,part_1,,,,,,,,,,,,,cyan,triangle
222.0,3.0,3.0,0.0,1.0,1.0,370.428811000238,2.0,1.0,part_1,,,,,,,,,,,,,blue,diamond
112.0,6.0,2.0,1.0,1.0,1.0,427.3396569988108,2.0,1.0,part_1,,,,,,,,,,,,,gray,hexagon
422.0,4.0,4.0,0.0,2.0,2.0,383.1989669997711,2.0,1.0,part_1,,,,,,,,,,,,,yellow,cross
48.0,5.0,1.0,1.0,2.0,2.0,429.5405970005959,2.0,1.0,part_1,,,,,,,,,,,,,cyan,triangle
179.0,7.0,3.0,1.0,2.0,2.0,441.6163580008287,2.0,1.0,part_1,,,,,,,,,,,,,orange,square
413.0,4.0,4.0,0.0,3.0,3.0,413.8376419996348,2.0,1.0,part_1,,,,,,,,,,,,,yellow,cross
105.0,2.0,2.0,0.0,3.0,3.0,374.5971909993386,2.0,1.0,part_1,,,,,,,,,,,,,magenta,flipped triangle
95.0,6.0,2.0,1.0,4.0,4.0,365.9391260007396,2.0,1.0,part_1,,,,,,,,,,,,,gray,hexagon
397.0,8.0,4.0,1.0,3.0,3.0,349.4887359993299,2.0,1.0,part_1,,,,,,,,,,,,,green,circle
49.0,1.0,1.0,0.0,3.0,3.0,343.931719999091,2.0,1.0,part_1,,,,,,,,,,,,,white,I
191.0,3.0,3.0,0.0,4.0,4.0,275.6996099997195,2.0,1.0,part_1,,,,,,,,,,,,,blue,diamond
406.0,4.0,4.0,0.0,4.0,4.0,285.9653499999695,2.0,1.0,part_1,,,,,,,,,,,,,yellow,cross
70.0,5.0,1.0,1.0,3.0,3.0,398.0457820016454,2.0,1.0,part_1,,,,,,,,,,,,,cyan,triangle
218.0,3.0,3.0,0.0,2.0,2.0,486.3532159997703,2.0,1.0,part_1,,,,,,,,,,,,,blue,diamond
0.0,4.0,0.0,0.0,1.0,1.0,311.9730399994296,2.0,1.0,part_1,,,,,,,,,,,,,yellow,cross
189.0,3.0,3.0,0.0,3.0,3.0,372.8670720010996,2.0,1.0,part_1,,,,,,,,,,,,,blue,diamond
410.0,4.0,4.0,0.0,4.0,4.0,376.0278129993821,2.0,1.0,part_1,,,,,,,,,,,,,yellow,cross
0.0,4.0,0.0,0.0,1.0,1.0,405.2005089997692,2.0,1.0,part_1,,,,,,,,,,,,,yellow,cross
411.0,8.0,4.0,1.0,1.0,1.0,291.3942440009123,2.0,1.0,part_1,,,,,,,,,,,,,green,circle
190.0,7.0,3.0,1.0,3.0,3.0,369.7144680008932,2.0,1.0,part_1,,,,,,,,,,,,,orange,square
180.0,3.0,3.0,0.0,3.0,3.0,286.7077940009039,2.0,1.0,part_1,,,,,,,,,,,,,blue,diamond
33.0,1.0,1.0,0.0,2.0,2.0,379.3171859997528,2.0,1.0,part_1,,,,,,,,,,,,,white,I
0.0,3.0,0.0,0.0,1.0,1.0,382.3125429989886,2.0,1.0,part_1,,,,,,,,,,,,,blue,diamond
219.0,3.0,3.0,0.0,3.0,3.0,353.7621769992256,2.0,1.0,part_1,,,,,,,,,,,,,blue,diamond
0.0,6.0,0.0,1.0,1.0,1.0,281.9385999991937,2.0,1.0,part_1,,,,,,,,,,,,,gray,hexagon
0.0,6.0,0.0,1.0,2.0,2.0,419.342224000502,2.0,1.0,part_1,,,,,,,,,,,,,gray,hexagon
399.0,4.0,4.0,0.0,1.0,1.0,334.7939590003079,2.0,1.0,part_1,,,,,,,,,,,,,yellow,cross
80.0,2.0,2.0,0.0,4.0,4.0,392.6479590008966,2.0,1.0,part_1,,,,,,,,,,,,,magenta,flipped triangle
111.0,6.0,2.0,1.0,2.0,2.0,398.6600159987574,2.0,1.0,part_1,,,,,,,,,,,,,gray,hexagon
0.0,1.0,0.0,0.0,3.0,3.0,411.1684580002475,2.0,1.0,part_1,,,,,,,,,,,,,white,I
105.0,6.0,2.0,1.0,4.0,4.0,423.0706279995502,2.0,1.0,part_1,,,,,,,,,,,,,gray,hexagon
376.0,4.0,4.0,0.0,4.0,4.0,423.5993849997612,2.0,1.0,part_1,,,,,,,,,,,,,yellow,cross
189.0,7.0,3.0,1.0,2.0,2.0,434.9550650003948,2.0,1.0,part_1,,,,,,,,,,,,,orange,square
0.0,3.0,0.0,0.0,2.0,2.0,433.3176359996287,2.0,1.0,part_1,,,,,,,,,,,,,blue,diamond
207.0,7.0,3.0,1.0,3.0,3.0,435.9148410003399,2.0,1.0,part_1,,,,,,,,,,,,,orange,square
424.0,4.0,4.0,0.0,1.0,1.0,382.7821160011808,2.0,1.0,part_1,,,,,,,,,,,,,yellow,cross
66.0,1.0,1.0,0.0,1.0,1.0,375.0534060000063,2.0,1.0,part_1,,,,,,,,,,,,,white,I
25.0,1.0,1.0,0.0,1.0,1.0,375.8910140004445,2.0,1.0,part_1,,,,,,,,,,,,,white,I
100.0,2.0,2.0,0.0,2.0,2.0,360.9261750007135,2.0,1.0,part_1,,,,,,,,,,,,,magenta,flipped triangle
415.0,8.0,4.0,1.0,1.0,1.0,383.580763998907,2.0,1.0,part_1,,,,,,,,,,,,,green,circle
0.0,2.0,0.0,0.0,2.0,2.0,357.2815200004697,2.0,1.0,part_1,,,,,,,,,,,,,magenta,flipped triangle
32.0,5.0,1.0,1.0,3.0,3.0,380.1307710000401,2.0,1.0,part_1,,,,,,,,,,,,,cyan,triangle
112.0,2.0,2.0,0.0,2.0,2.0,462.0928360000107,2.0,1.0,part_1,,,,,,,,,,,,,magenta,flipped triangle
413.0,8.0,4.0,1.0,3.0,3.0,334.1942859988194,2.0,1.0,part_1,,,,,,,,,,,,,green,circle
0.0,2.0,0.0,0.0,4.0,4.0,354.7722140010592,2.0,1.0,part_1,,,,,,,,,,,,,magenta,flipped triangle
0.0,7.0,0.0,1.0,1.0,1.0,348.0366710009548,2.0,1.0,part_1,,,,,,,,,,,,,orange,square
0.0,1.0,0.0,0.0,3.0,3.0,373.2705479997094,2.0,1.0,part_1,,,,,,,,,,,,,white,I
383.0,8.0,4.0,1.0,1.0,1.0,338.3431250003923,2.0,1.0,part_1,,,,,,,,,,,,,green,circle
191.0,7.0,3.0,1.0,2.0,2.0,402.5932250006008,2.0,1.0,part_1,,,,,,,,,,,,,orange,square
109.0,2.0,2.0,0.0,1.0,1.0,363.040161999379,2.0,1.0,part_1,,,,,,,,,,,,,magenta,flipped triangle
407.0,8.0,4.0,1.0,4.0,4.0,355.6055809985992,2.0,1.0,part_1,,,,,,,,,,,,,green,circle
0.0,1.0,0.0,0.0,2.0,2.0,409.3482250009401,2.0,1.0,part_1,,,,,,,,,,,,,white,I
40.0,5.0,1.0,1.0,4.0,4.0,405.0423090011463,2.0,1.0,part_1,,,,,,,,,,,,,cyan,triangle
0.0,1.0,0.0,0.0,1.0,1.0,452.8646279995882,2.0,1.0,part_1,,,,,,,,,,,,,white,I
97.0,6.0,2.0,1.0,3.0,3.0,437.2873049996997,2.0,1.0,part_1,,,,,,,,,,,,,gray,hexagon
63.0,1.0,1.0,0.0,4.0,4.0,389.7519139991345,2.0,1.0,part_1,,,,,,,,,,,,,white,I
40.0,1.0,1.0,0.0,1.0,1.0,381.2733770009799,2.0,1.0,part_1,,,,,,,,,,,,,white,I
28.0,1.0,1.0,0.0,3.0,3.0,406.9029970014526,2.0,1.0,part_1,,,,,,,,,,,,,white,I
0.0,7.0,0.0,1.0,2.0,2.0,369.1869600006612,2.0,1.0,part_1,,,,,,,,,,,,,orange,square
120.0,6.0,2.0,1.0,2.0,2.0,389.7460579992184,2.0,1.0,part_1,,,,,,,,,,,,,gray,hexagon
400.0,8.0,4.0,1.0,2.0,2.0,425.9312619997217,2.0,1.0,part_1,,,,,,,,,,,,,green,circle
387.0,8.0,4.0,1.0,1.0,1.0,386.6283940005814,2.0,1.0,part_1,,,,,,,,,,,,,green,circle
224.0,3.0,3.0,0.0,2.0,2.0,373.830058000749,2.0,1.0,part_1,,,,,,,,,,,,,blue,diamond
179.0,3.0,3.0,0.0,1.0,1.0,418.6344839999947,2.0,1.0,part_1,,,,,,,,,,,,,blue,diamond
0.0,5.0,0.0,1.0,2.0,2.0,398.1284019992017,2.0,1.0,part_1,,,,,,,,,,,,,cyan,triangle
0.0,4.0,0.0,0.0,1.0,1.0,314.7344449989759,2.0,1.0,part_1,,,,,,,,,,,,,yellow,cross
76.0,2.0,2.0,0.0,4.0,4.0,431.0061390006012,2.0,2.0,part_1,,,,,,,,,,,,,magenta,flipped triangle
410.0,8.0,4.0,1.0,1.0,1.0,436.7181319994415,2.0,1.0,part_1,,,,,,,,,,,,,green,circle
99.0,6.0,2.0,1.0,1.0,1.0,431.8161800001689,2.0,1.0,part_1,,,,,,,,,,,,,gray,hexagon
90.0,6.0,2.0,1.0,1.0,1.0,504.03888699838717,2.0,1.0,part_1,,,,,,,,,,,,,gray,hexagon
63.0,5.0,1.0,1.0,2.0,2.0,372.7902989994618,2.0,1.0,part_1,,,,,,,,,,,,,cyan,triangle
401.0,8.0,4.0,1.0,4.0,4.0,477.2234159991058,2.0,1.0,part_1,,,,,,,,,,,,,green,circle
123.0,6.0,2.0,1.0,2.0,2.0,411.1481260006258,2.0,1.0,part_1,,,,,,,,,,,,,gray,hexagon
35.0,1.0,1.0,0.0,1.0,1.0,515.5445380005403,2.0,1.0,part_1,,,,,,,,,,,,,white,I
202.0,7.0,3.0,1.0,1.0,1.0,420.2425720013707,2.0,1.0,part_1,,,,,,,,,,,,,orange,square
48.0,1.0,1.0,0.0,3.0,3.0,391.515844999958,2.0,1.0,part_1,,,,,,,,,,,,,white,I
399.0,8.0,4.0,1.0,4.0,4.0,417.0398749993182,2.0,1.0,part_1,,,,,,,,,,,,,green,circle
202.0,7.0,3.0,1.0,2.0,2.0,450.8024280003155,2.0,1.0,part_1,,,,,,,,,,,,,orange,square
380.0,8.0,4.0,1.0,3.0,3.0,400.0439470000856,2.0,1.0,part_1,,,,,,,,,,,,,green,circle
100.0,6.0,2.0,1.0,2.0,2.0,354.6586449992901,2.0,1.0,part_1,,,,,,,,,,,,,gray,hexagon
111.0,6.0,2.0,1.0,2.0,2.0,437.1652050012926,2.0,1.0,part_1,,,,,,,,,,,,,gray,hexagon
111.0,2.0,2.0,0.0,3.0,3.0,443.3216679990437,2.0,1.0,part_1,,,,,,,,,,,,,magenta,flipped triangle
48.0,5.0,1.0,1.0,4.0,4.0,424.2031800004042,2.0,1.0,part_1,,,,,,,,,,,,,cyan,triangle
25.0,5.0,1.0,1.0,1.0,1.0,551.608825000585,2.0,1.0,part_1,,,,,,,,,,,,,cyan,triangle
0.0,2.0,0.0,0.0,1.0,1.0,376.4618189998145,3.0,1.0,part_1,,,,,,,,,,,,,magenta,flipped triangle
219.0,3.0,3.0,0.0,1.0,1.0,399.9745750006696,3.0,1.0,part_1,,,,,,,,,,,,,blue,diamond
406.0,8.0,4.0,1.0,2.0,2.0,354.177773999254,3.0,1.0,part_1,,,,,,,,,,,,,green,circle
111.0,2.0,2.0,0.0,1.0,1.0,507.36338299975614,3.0,1.0,part_1,,,,,,,,,,,,,magenta,flipped triangle
122.0,2.0,2.0,0.0,4.0,4.0,469.1340669996862,3.0,1.0,part_1,,,,,,,,,,,,,magenta,flipped triangle
377.0,4.0,4.0,0.0,2.0,2.0,378.8340749997587,3.0,1.0,part_1,,,,,,,,,,,,,yellow,cross
224.0,7.0,3.0,1.0,3.0,3.0,370.5802380009118,3.0,1.0,part_1,,,,,,,,,,,,,orange,square
424.0,4.0,4.0,0.0,2.0,2.0,345.7531060012115,3.0,1.0,part_1,,,,,,,,,,,,,yellow,cross
204.0,7.0,3.0,1.0,1.0,1.0,350.8785169997281,3.0,1.0,part_1,,,,,,,,,,,,,orange,square
69.0,5.0,1.0,1.0,1.0,1.0,390.6885270007478,3.0,1.0,part_1,,,,,,,,,,,,,cyan,triangle
379.0,4.0,4.0,0.0,1.0,1.0,389.7701309997501,3.0,1.0,part_1,,,,,,,,,,,,,yellow,cross
25.0,1.0,1.0,0.0,1.0,1.0,310.173912999744,3.0,1.0,part_1,,,,,,,,,,,,,white,I
36.0,5.0,1.0,1.0,3.0,3.0,386.9035619991336,3.0,1.0,part_1,,,,,,,,,,,,,cyan,triangle
415.0,4.0,4.0,0.0,2.0,2.0,346.4895409997552,3.0,1.0,part_1,,,,,,,,,,,,,yellow,cross
97.0,2.0,2.0,0.0,2.0,2.0,400.7835299998987,3.0,1.0,part_1,,,,,,,,,,,,,magenta,flipped triangle
52.0,5.0,1.0,1.0,1.0,1.0,384.7772369990707,3.0,1.0,part_1,,,,,,,,,,,,,cyan,triangle
404.0,8.0,4.0,1.0,2.0,2.0,326.2852899988502,3.0,1.0,part_1,,,,,,,,,,,,,green,circle
98.0,6.0,2.0,1.0,4.0,4.0,646.023770001193,3.0,1.0,part_1,,,,,,,,,,,,,gray,hexagon
202.0,3.0,3.0,0.0,1.0,1.0,344.4885520002572,3.0,1.0,part_1,,,,,,,,,,,,,blue,diamond
377.0,8.0,4.0,1.0,2.0,2.0,442.4867340003402,3.0,1.0,part_1,,,,,,,,,,,,,green,circle
88.0,2.0,2.0,0.0,3.0,3.0,426.134290999471,3.0,1.0,part_1,,,,,,,,,,,,,magenta,flipped triangle
377.0,4.0,4.0,0.0,3.0,3.0,390.1643059998605,3.0,1.0,part_1,,,,,,,,,,,,,yellow,cross
100.0,6.0,2.0,1.0,3.0,3.0,349.2928140003641,3.0,1.0,part_1,,,,,,,,,,,,,gray,hexagon
0.0,5.0,0.0,1.0,3.0,3.0,365.1228930011712,3.0,1.0,part_1,,,,,,,,,,,,,cyan,triangle
393.0,4.0,4.0,0.0,4.0,4.0,388.8767600001301,3.0,1.0,part_1,,,,,,,,,,,,,yellow,cross
388.0,4.0,4.0,0.0,4.0,4.0,367.8622250008629,3.0,1.0,part_1,,,,,,,,,,,,,yellow,cross
386.0,8.0,4.0,1.0,3.0,3.0,440.90066300123,3.0,1.0,part_1,,,,,,,,,,,,,green,circle
94.0,6.0,2.0,1.0,1.0,1.0,408.0326179991971,3.0,1.0,part_1,,,,,,,,,,,,,gray,hexagon
76.0,6.0,2.0,1.0,3.0,3.0,550.9331439989182,3.0,1.0,part_1,,,,,,,,,,,,,gray,hexagon
0.0,4.0,0.0,0.0,2.0,2.0,521.5246890002163,3.0,1.0,part_1,,,,,,,,,,,,,yellow,cross
393.0,8.0,4.0,1.0,1.0,1.0,403.310182999121,3.0,1.0,part_1,,,,,,,,,,,,,green,circle
383.0,4.0,4.0,0.0,2.0,2.0,559.6745099992404,3.0,1.0,part_1,,,,,,,,,,,,,yellow,cross
0.0,6.0,0.0,1.0,1.0,1.0,369.7518039989518,3.0,1.0,part_1,,,,,,,,,,,,,gray,hexagon
108.0,2.0,2.0,0.0,4.0,4.0,446.4901150004152,3.0,1.0,part_1,,,,,,,,,,,,,magenta,flipped triangle
0.0,6.0,0.0,1.0,4.0,4.0,411.5425250001863,3.0,1.0,part_1,,,,,,,,,,,,,gray,hexagon
72.0,1.0,1.0,0.0,1.0,1.0,433.0589170003804,3.0,1.0,part_1,,,,,,,,,,,,,white,I
112.0,6.0,2.0,1.0,4.0,4.0,353.0919249988073,3.0,1.0,part_1,,,,,,,,,,,,,gray,hexagon
224.0,7.0,3.0,1.0,2.0,2.0,428.2794449991343,3.0,1.0,part_1,,,,,,,,,,,,,orange,square
214.0,3.0,3.0,0.0,2.0,2.0,450.6483450004452,3.0,1.0,part_1,,,,,,,,,,,,,blue,diamond
80.0,6.0,2.0,1.0,1.0,1.0,346.1650340013875,3.0,1.0,part_1,,,,,,,,,,,,,gray,hexagon
396.0,4.0,4.0,0.0,3.0,3.0,330.2431690008234,3.0,1.0,part_1,,,,,,,,,,,,,yellow,cross
424.0,8.0,4.0,1.0,4.0,4.0,406.2813759992423,3.0,1.0,part_1,,,,,,,,,,,,,green,circle
0.0,2.0,0.0,0.0,4.0,4.0,387.9246350006724,3.0,1.0,part_1,,,,,,,,,,,,,magenta,flipped triangle
122.0,6.0,2.0,1.0,4.0,4.0,314.157291999436,3.0,1.0,part_1,,,,,,,,,,,,,gray,hexagon
59.0,5.0,1.0,1.0,4.0,4.0,368.0345419998048,3.0,1.0,part_1,,,,,,,,,,,,,cyan,triangle
411.0,4.0,4.0,0.0,1.0,1.0,565.0171739998768,3.0,1.0,part_1,,,,,,,,,,,,,yellow,cross
422.0,8.0,4.0,1.0,3.0,3.0,474.4056409999757,3.0,1.0,part_1,,,,,,,,,,,,,green,circle
40.0,1.0,1.0,0.0,2.0,2.0,519.9352100007673,3.0,1.0,part_1,,,,,,,,,,,,,white,I
410.0,4.0,4.0,0.0,4.0,4.0,432.7362639996863,3.0,1.0,part_1,,,,,,,,,,,,,yellow,cross
0.0,3.0,0.0,0.0,1.0,1.0,454.8212360004982,3.0,1.0,part_1,,,,,,,,,,,,,blue,diamond
86.0,6.0,2.0,1.0,2.0,2.0,560.6187689991202,3.0,1.0,part_1,,,,,,,,,,,,,gray,hexagon
404.0,4.0,4.0,0.0,1.0,1.0,601.2789059986972,3.0,1.0,part_1,,,,,,,,,,,,,yellow,cross
0.0,2.0,0.0,0.0,4.0,4.0,352.8880950016173,3.0,1.0,part_1,,,,,,,,,,,,,magenta,flipped triangle
66.0,5.0,1.0,1.0,1.0,1.0,406.1344590008957,3.0,1.0,part_1,,,,,,,,,,,,,cyan,triangle
0.0,4.0,0.0,0.0,4.0,4.0,418.4233430005406,3.0,1.0,part_1,,,,,,,,,,,,,yellow,cross
180.0,7.0,3.0,1.0,4.0,4.0,492.2575900000083,3.0,1.0,part_1,,,,,,,,,,,,,orange,square
70.0,1.0,1.0,0.0,1.0,1.0,425.6064620003599,3.0,1.0,part_1,,,,,,,,,,,,,white,I
0.0,5.0,0.0,1.0,1.0,1.0,417.013295000288,3.0,1.0,part_1,,,,,,,,,,,,,cyan,triangle
0.0,3.0,0.0,0.0,2.0,2.0,518.2291959990835,3.0,1.0,part_1,,,,,,,,,,,,,blue,diamond
0.0,6.0,0.0,1.0,1.0,1.0,437.9312590008339,3.0,1.0,part_1,,,,,,,,,,,,,gray,hexagon
219.0,7.0,3.0,1.0,4.0,4.0,818.8170609992085,3.0,1.0,part_1,,,,,,,,,,,,,orange,square
64.0,1.0,1.0,0.0,2.0,2.0,524.4697670004825,3.0,1.0,part_1,,,,,,,,,,,,,white,I
58.0,1.0,1.0,0.0,4.0,4.0,436.8264160002582,3.0,1.0,part_1,,,,,,,,,,,,,white,I
422.0,8.0,4.0,1.0,2.0,2.0,443.4333279987186,3.0,1.0,part_1,,,,,,,,,,,,,green,circle
394.0,8.0,4.0,1.0,3.0,3.0,372.2669039998436,3.0,1.0,part_1,,,,,,,,,,,,,green,circle
386.0,4.0,4.0,0.0,3.0,3.0,609.558840000318,3.0,1.0,part_1,,,,,,,,,,,,,yellow,cross
422.0,4.0,4.0,0.0,1.0,1.0,479.8317910008336,3.0,1.0,part_1,,,,,,,,,,,,,yellow,cross
113.0,6.0,2.0,1.0,2.0,2.0,418.748993999543,3.0,1.0,part_1,,,,,,,,,,,,,gray,hexagon
0.0,1.0,0.0,0.0,3.0,3.0,440.3626309995161,3.0,1.0,part_1,,,,,,,,,,,,,white,I
379.0,8.0,4.0,1.0,2.0,2.0,434.363406000557,3.0,1.0,part_1,,,,,,,,,,,,,green,circle
108.0,6.0,2.0,1.0,1.0,1.0,388.3418440000241,3.0,1.0,part_1,,,,,,,,,,,,,gray,hexagon
189.0,3.0,3.0,0.0,1.0,1.0,428.4722489992418,3.0,1.0,part_1,,,,,,,,,,,,,blue,diamond
110.0,2.0,2.0,0.0,2.0,2.0,521.6904819990305,3.0,1.0,part_1,,,,,,,,,,,,,magenta,flipped triangle
407.0,4.0,4.0,0.0,2.0,2.0,428.6272449990065,3.0,1.0,part_1,,,,,,,,,,,,,yellow,cross
396.0,8.0,4.0,1.0,1.0,1.0,358.71179400055547,3.0,1.0,part_1,,,,,,,,,,,,,green,circle
421.0,8.0,4.0,1.0,4.0,4.0,489.3914069998573,3.0,1.0,part_1,,,,,,,,,,,,,green,circle
40.0,5.0,1.0,1.0,4.0,4.0,511.3694989995565,3.0,1.0,part_1,,,,,,,,,,,,,cyan,triangle
51.0,1.0,1.0,0.0,4.0,4.0,605.8948150002834,3.0,1.0,part_1,,,,,,,,,,,,,white,I
88.0,6.0,2.0,1.0,3.0,3.0,483.8439810009731,3.0,1.0,part_1,,,,,,,,,,,,,gray,hexagon
30.0,5.0,1.0,1.0,4.0,4.0,512.1976499995071,3.0,1.0,part_1,,,,,,,,,,,,,cyan,triangle
0.0,7.0,0.0,1.0,1.0,1.0,406.8384729998797,3.0,1.0,part_1,,,,,,,,,,,,,orange,square
0.0,7.0,0.0,1.0,1.0,1.0,399.0705649994197,3.0,1.0,part_1,,,,,,,,,,,,,orange,square
218.0,7.0,3.0,1.0,3.0,3.0,527.4289799999679,3.0,1.0,part_1,,,,,,,,,,,,,orange,square
376.0,4.0,4.0,0.0,2.0,2.0,484.9917100000311,3.0,1.0,part_1,,,,,,,,,,,,,yellow,cross
86.0,2.0,2.0,0.0,1.0,1.0,492.3858150013984,3.0,1.0,part_1,,,,,,,,,,,,,magenta,flipped triangle
0.0,8.0,0.0,1.0,1.0,1.0,411.5606470004422,3.0,1.0,part_1,,,,,,,,,,,,,green,circle
419.0,8.0,4.0,1.0,2.0,2.0,514.5154540005024,3.0,1.0,part_1,,,,,,,,,,,,,green,circle
45.0,5.0,1.0,1.0,1.0,1.0,487.9251139991538,3.0,1.0,part_1,,,,,,,,,,,,,cyan,triangle
69.0,1.0,1.0,0.0,2.0,2.0,649.4372749984905,3.0,1.0,part_1,,,,,,,,,,,,,white,I
219.0,7.0,3.0,1.0,3.0,3.0,651.0603949991491,3.0,1.0,part_1,,,,,,,,,,,,,orange,square
410.0,8.0,4.0,1.0,3.0,3.0,467.6842889984982,3.0,1.0,part_1,,,,,,,,,,,,,green,circle
388.0,8.0,4.0,1.0,4.0,4.0,619.3775159990764,3.0,1.0,part_1,,,,,,,,,,,,,green,circle
199.0,7.0,3.0,1.0,3.0,3.0,540.0466240007518,3.0,1.0,part_1,,,,,,,,,,,,,orange,square
0.0,8.0,0.0,1.0,4.0,4.0,525.4735910002637,3.0,1.0,part_1,,,,,,,,,,,,,green,circle
419.0,4.0,4.0,0.0,2.0,2.0,453.3233520014619,3.0,1.0,part_1,,,,,,,,,,,,,yellow,cross
30.0,1.0,1.0,0.0,3.0,3.0,452.6266920001944,3.0,1.0,part_1,,,,,,,,,,,,,white,I
52.0,5.0,1.0,1.0,2.0,2.0,681.7325350002648,3.0,1.0,part_1,,,,,,,,,,,,,cyan,triangle
196.0,3.0,3.0,0.0,2.0,2.0,476.6020110000681,3.0,1.0,part_1,,,,,,,,,,,,,blue,diamond
424.0,8.0,4.0,1.0,3.0,3.0,567.0702220013482,3.0,1.0,part_1,,,,,,,,,,,,,green,circle
179.0,7.0,3.0,1.0,1.0,1.0,570.2754450012435,3.0,1.0,part_1,,,,,,,,,,,,,orange,square
0.0,7.0,0.0,1.0,4.0,4.0,430.0593290008692,4.0,1.0,part_1,,,,,,,,,,,,,orange,square
204.0,3.0,3.0,0.0,1.0,1.0,367.7387759998964,4.0,1.0,part_1,,,,,,,,,,,,,blue,diamond
179.0,3.0,3.0,0.0,2.0,2.0,329.6154609997757,4.0,1.0,part_1,,,,,,,,,,,,,blue,diamond
207.0,3.0,3.0,0.0,4.0,4.0,410.4874659988127,4.0,1.0,part_1,,,,,,,,,,,,,blue,diamond
386.0,4.0,4.0,0.0,3.0,3.0,552.516829000524,4.0,1.0,part_1,,,,,,,,,,,,,yellow,cross
0.0,2.0,0.0,0.0,1.0,1.0,310.0488899999618,4.0,1.0,part_1,,,,,,,,,,,,,magenta,flipped triangle
199.0,7.0,3.0,1.0,1.0,1.0,400.660143001005,4.0,1.0,part_1,,,,,,,,,,,,,orange,square
32.0,1.0,1.0,0.0,4.0,4.0,420.2000980003504,4.0,1.0,part_1,,,,,,,,,,,,,white,I
52.0,1.0,1.0,0.0,2.0,2.0,373.8971639995725,4.0,1.0,part_1,,,,,,,,,,,,,white,I
49.0,5.0,1.0,1.0,2.0,2.0,360.5721160001849,4.0,1.0,part_1,,,,,,,,,,,,,cyan,triangle
207.0,3.0,3.0,0.0,2.0,2.0,357.4551970013999,4.0,1.0,part_1,,,,,,,,,,,,,blue,diamond
215.0,3.0,3.0,0.0,3.0,3.0,438.0276129995764,4.0,1.0,part_1,,,,,,,,,,,,,blue,diamond
176.0,7.0,3.0,1.0,1.0,1.0,525.9416400003829,4.0,1.0,part_1,,,,,,,,,,,,,orange,square
224.0,3.0,3.0,0.0,2.0,2.0,389.7756639998988,4.0,1.0,part_1,,,,,,,,,,,,,blue,diamond
100.0,6.0,2.0,1.0,1.0,1.0,372.0054519999394,4.0,1.0,part_1,,,,,,,,,,,,,gray,hexagon
117.0,2.0,2.0,0.0,1.0,1.0,521.3296359997912,4.0,1.0,part_1,,,,,,,,,,,,,magenta,flipped triangle
219.0,3.0,3.0,0.0,4.0,4.0,431.3004449995787,4.0,1.0,part_1,,,,,,,,,,,,,blue,diamond
410.0,4.0,4.0,0.0,2.0,2.0,414.898864000861,4.0,1.0,part_1,,,,,,,,,,,,,yellow,cross
64.0,5.0,1.0,1.0,4.0,4.0,508.0764679987624,4.0,1.0,part_1,,,,,,,,,,,,,cyan,triangle
219.0,7.0,3.0,1.0,1.0,1.0,340.7835190009791,4.0,1.0,part_1,,,,,,,,,,,,,orange,square
82.0,6.0,2.0,1.0,3.0,3.0,454.7809100004087,4.0,1.0,part_1,,,,,,,,,,,,,gray,hexagon
419.0,8.0,4.0,1.0,4.0,4.0,424.6047739998175,4.0,1.0,part_1,,,,,,,,,,,,,green,circle
0.0,4.0,0.0,0.0,4.0,4.0,412.8199449987733,4.0,1.0,part_1,,,,,,,,,,,,,yellow,cross
395.0,4.0,4.0,0.0,1.0,1.0,420.3713229999266,4.0,1.0,part_1,,,,,,,,,,,,,yellow,cross
0.0,5.0,0.0,1.0,1.0,1.0,471.8001119999826,4.0,1.0,part_1,,,,,,,,,,,,,cyan,triangle
0.0,8.0,0.0,1.0,2.0,2.0,445.5957299996953,4.0,1.0,part_1,,,,,,,,,,,,,green,circle
181.0,3.0,3.0,0.0,3.0,3.0,455.7375690001208,4.0,1.0,part_1,,,,,,,,,,,,,blue,diamond
421.0,4.0,4.0,0.0,3.0,3.0,424.6343370014074,4.0,1.0,part_1,,,,,,,,,,,,,yellow,cross
72.0,5.0,1.0,1.0,3.0,3.0,447.8189679994102,4.0,1.0,part_1,,,,,,,,,,,,,cyan,triangle
0.0,2.0,0.0,0.0,4.0,4.0,349.2322429992782,4.0,1.0,part_1,,,,,,,,,,,,,magenta,flipped triangle
48.0,1.0,1.0,0.0,2.0,2.0,411.7863179999403,4.0,1.0,part_1,,,,,,,,,,,,,white,I
28.0,5.0,1.0,1.0,4.0,4.0,409.1766479996295,4.0,1.0,part_1,,,,,,,,,,,,,cyan,triangle
40.0,1.0,1.0,0.0,2.0,2.0,358.8432320011634,4.0,1.0,part_1,,,,,,,,,,,,,white,I
401.0,4.0,4.0,0.0,4.0,4.0,405.3815429997485,4.0,1.0,part_1,,,,,,,,,,,,,yellow,cross
0.0,8.0,0.0,1.0,1.0,1.0,365.1914170004602,4.0,1.0,part_1,,,,,,,,,,,,,green,circle
28.0,1.0,1.0,0.0,4.0,4.0,355.9711420002713,4.0,1.0,part_1,,,,,,,,,,,,,white,I
66.0,5.0,1.0,1.0,2.0,2.0,378.8933480009291,4.0,1.0,part_1,,,,,,,,,,,,,cyan,triangle
186.0,7.0,3.0,1.0,3.0,3.0,345.5345110014605,4.0,1.0,part_1,,,,,,,,,,,,,orange,square
91.0,2.0,2.0,0.0,2.0,2.0,365.2852949999214,4.0,1.0,part_1,,,,,,,,,,,,,magenta,flipped triangle
376.0,8.0,4.0,1.0,4.0,4.0,448.9545409996935,4.0,1.0,part_1,,,,,,,,,,,,,green,circle
0.0,1.0,0.0,0.0,3.0,3.0,462.0645259983575,4.0,1.0,part_1,,,,,,,,,,,,,white,I
0.0,4.0,0.0,0.0,2.0,2.0,390.6684329995187,4.0,1.0,part_1,,,,,,,,,,,,,yellow,cross
0.0,6.0,0.0,1.0,1.0,1.0,411.9999009999446,4.0,1.0,part_1,,,,,,,,,,,,,gray,hexagon
386.0,8.0,4.0,1.0,3.0,3.0,379.6846199984429,4.0,1.0,part_1,,,,,,,,,,,,,green,circle
191.0,7.0,3.0,1.0,2.0,2.0,408.3982360007212,4.0,1.0,part_1,,,,,,,,,,,,,orange,square
66.0,1.0,1.0,0.0,3.0,3.0,493.0999200005317,4.0,1.0,part_1,,,,,,,,,,,,,white,I
0.0,5.0,0.0,1.0,3.0,3.0,414.7180740001204,4.0,1.0,part_1,,,,,,,,,,,,,cyan,triangle
202.0,3.0,3.0,0.0,3.0,3.0,429.5369859992206,4.0,1.0,part_1,,,,,,,,,,,,,blue,diamond
109.0,6.0,2.0,1.0,3.0,3.0,336.5666620011325,4.0,1.0,part_1,,,,,,,,,,,,,gray,hexagon
189.0,7.0,3.0,1.0,3.0,3.0,425.2157799983251,4.0,1.0,part_1,,,,,,,,,,,,,orange,square
177.0,3.0,3.0,0.0,4.0,4.0,322.2194099998887,4.0,1.0,part_1,,,,,,,,,,,,,blue,diamond
51.0,5.0,1.0,1.0,1.0,1.0,432.8075630000967,4.0,1.0,part_1,,,,,,,,,,,,,cyan,triangle
205.0,7.0,3.0,1.0,4.0,4.0,423.6503890006133,4.0,1.0,part_1,,,,,,,,,,,,,orange,square
119.0,2.0,2.0,0.0,3.0,3.0,501.75173400020867,4.0,1.0,part_1,,,,,,,,,,,,,magenta,flipped triangle
0.0,7.0,0.0,1.0,3.0,3.0,511.612600999797,4.0,1.0,part_1,,,,,,,,,,,,,orange,square
86.0,6.0,2.0,1.0,4.0,4.0,375.5593850000878,4.0,1.0,part_1,,,,,,,,,,,,,gray,hexagon
65.0,5.0,1.0,1.0,2.0,2.0,401.2244109999301,4.0,1.0,part_1,,,,,,,,,,,,,cyan,triangle
100.0,2.0,2.0,0.0,1.0,1.0,450.6298380001681,4.0,1.0,part_1,,,,,,,,,,,,,magenta,flipped triangle
30.0,1.0,1.0,0.0,3.0,3.0,562.2853509994457,4.0,1.0,part_1,,,,,,,,,,,,,white,I
0.0,5.0,0.0,1.0,3.0,3.0,487.8821760012215,4.0,1.0,part_1,,,,,,,,,,,,,cyan,triangle
113.0,6.0,2.0,1.0,3.0,3.0,430.9781089996249,4.0,1.0,part_1,,,,,,,,,,,,,gray,hexagon
76.0,6.0,2.0,1.0,4.0,4.0,338.0267299999104,4.0,1.0,part_1,,,,,,,,,,,,,gray,hexagon
196.0,7.0,3.0,1.0,1.0,1.0,403.2187449993216,4.0,1.0,part_1,,,,,,,,,,,,,orange,square
0.0,2.0,0.0,0.0,2.0,2.0,425.0217190001422,4.0,1.0,part_1,,,,,,,,,,,,,magenta,flipped triangle
63.0,1.0,1.0,0.0,1.0,1.0,430.539465000038,4.0,1.0,part_1,,,,,,,,,,,,,white,I
35.0,5.0,1.0,1.0,3.0,3.0,430.9549360004894,4.0,1.0,part_1,,,,,,,,,,,,,cyan,triangle
49.0,1.0,1.0,0.0,1.0,1.0,538.4692970001197,4.0,1.0,part_1,,,,,,,,,,,,,white,I
222.0,7.0,3.0,1.0,4.0,4.0,489.0619630004948,4.0,1.0,part_1,,,,,,,,,,,,,orange,square
176.0,3.0,3.0,0.0,3.0,3.0,655.3817719996005,4.0,1.0,part_1,,,,,,,,,,,,,blue,diamond
205.0,3.0,3.0,0.0,4.0,4.0,414.2750880000676,4.0,1.0,part_1,,,,,,,,,,,,,blue,diamond
75.0,2.0,2.0,0.0,3.0,3.0,420.2526369990664,4.0,1.0,part_1,,,,,,,,,,,,,magenta,flipped triangle
90.0,2.0,2.0,0.0,4.0,4.0,506.8577029996959,4.0,1.0,part_1,,,,,,,,,,,,,magenta,flipped triangle
377.0,8.0,4.0,1.0,4.0,4.0,584.1150910000579,4.0,1.0,part_1,,,,,,,,,,,,,green,circle
0.0,2.0,0.0,0.0,4.0,4.0,459.1739619991131,4.0,1.0,part_1,,,,,,,,,,,,,magenta,flipped triangle
199.0,3.0,3.0,0.0,4.0,4.0,390.5274730004748,4.0,1.0,part_1,,,,,,,,,,,,,blue,diamond
0.0,1.0,0.0,0.0,3.0,3.0,385.8670390000043,4.0,1.0,part_1,,,,,,,,,,,,,white,I
80.0,2.0,2.0,0.0,4.0,4.0,597.7983619995939,4.0,1.0,part_1,,,,,,,,,,,,,magenta,flipped triangle
419.0,4.0,4.0,0.0,3.0,3.0,562.147227999958,4.0,1.0,part_1,,,,,,,,,,,,,yellow,cross
0.0,4.0,0.0,0.0,1.0,1.0,616.2194079988694,4.0,1.0,part_1,,,,,,,,,,,,,yellow,cross
86.0,2.0,2.0,0.0,4.0,4.0,426.6108079991682,4.0,1.0,part_1,,,,,,,,,,,,,magenta,flipped triangle
0.0,3.0,0.0,0.0,3.0,3.0,467.6163090007321,4.0,1.0,part_1,,,,,,,,,,,,,blue,diamond
119.0,6.0,2.0,1.0,2.0,2.0,619.1006100016239,4.0,1.0,part_1,,,,,,,,,,,,,gray,hexagon
0.0,6.0,0.0,1.0,2.0,2.0,581.256140001642,4.0,1.0,part_1,,,,,,,,,,,,,gray,hexagon
382.0,4.0,4.0,0.0,1.0,1.0,559.1068000012456,4.0,1.0,part_1,,,,,,,,,,,,,yellow,cross
219.0,3.0,3.0,0.0,4.0,4.0,763.9373980000528,4.0,1.0,part_1,,,,,,,,,,,,,blue,diamond
76.0,2.0,2.0,0.0,4.0,4.0,409.245536000526,4.0,1.0,part_1,,,,,,,,,,,,,magenta,flipped triangle
0.0,8.0,0.0,1.0,1.0,1.0,433.9449710005283,4.0,1.0,part_1,,,,,,,,,,,,,green,circle
186.0,3.0,3.0,0.0,1.0,1.0,439.0520130000368,4.0,1.0,part_1,,,,,,,,,,,,,blue,diamond
0.0,8.0,0.0,1.0,4.0,4.0,434.3969359997572,4.0,1.0,part_1,,,,,,,,,,,,,green,circle
65.0,1.0,1.0,0.0,4.0,4.0,354.4851860006019,4.0,1.0,part_1,,,,,,,,,,,,,white,I
35.0,1.0,1.0,0.0,4.0,4.0,410.9493630003271,4.0,1.0,part_1,,,,,,,,,,,,,white,I
179.0,3.0,3.0,0.0,1.0,1.0,407.46682699864317,4.0,1.0,part_1,,,,,,,,,,,,,blue,diamond
99.0,6.0,2.0,1.0,1.0,1.0,533.9188409998314,4.0,1.0,part_1,,,,,,,,,,,,,gray,hexagon
0.0,3.0,0.0,0.0,4.0,4.0,592.0278290013812,4.0,1.0,part_1,,,,,,,,,,,,,blue,diamond
98.0,2.0,2.0,0.0,1.0,1.0,558.6424390003231,4.0,1.0,part_1,,,,,,,,,,,,,magenta,flipped triangle
53.0,1.0,1.0,0.0,1.0,1.0,460.2785490005772,4.0,1.0,part_1,,,,,,,,,,,,,white,I
0.0,1.0,0.0,0.0,2.0,2.0,398.505920999014,4.0,1.0,part_1,,,,,,,,,,,,,white,I
181.0,7.0,3.0,1.0,4.0,4.0,439.157401000557,4.0,1.0,part_1,,,,,,,,,,,,,orange,square
387.0,4.0,4.0,0.0,1.0,1.0,523.2175139990431,4.0,1.0,part_1,,,,,,,,,,,,,yellow,cross
179.0,7.0,3.0,1.0,2.0,2.0,592.2562670002662,4.0,1.0,part_1,,,,,,,,,,,,,orange,square
0.0,6.0,2.0,1.0,6.0,0.0,0.0,1.0,0.0,part_2,stop,250.0,250.0,4.0,,,,,,,,,gray,hexagon
0.0,2.0,2.0,0.0,5.0,5.0,500.14240500058804,1.0,0.0,part_2,go,250.0,300.0,1.0,,,,,,,,,magenta,flipped triangle
0.0,8.0,4.0,1.0,5.0,0.0,0.0,1.0,0.0,part_2,stop,250.0,300.0,4.0,,,,,,,,,green,circle
0.0,3.0,3.0,0.0,5.0,5.0,710.9976650008321,1.0,0.0,part_2,go,300.0,300.0,1.0,,,,,,,,,blue,diamond
0.0,4.0,4.0,0.0,6.0,6.0,777.3424160004652,1.0,0.0,part_2,go,300.0,300.0,1.0,,,,,,,,,yellow,cross
0.0,8.0,4.0,1.0,5.0,0.0,0.0,1.0,0.0,part_2,stop,300.0,300.0,4.0,,,,,,,,,green,circle
0.0,5.0,1.0,1.0,6.0,0.0,0.0,1.0,0.0,part_2,stop,350.0,300.0,4.0,,,,,,,,,cyan,triangle
0.0,4.0,4.0,0.0,6.0,6.0,514.4855979997374,1.0,0.0,part_2,go,350.0,350.0,1.0,,,,,,,,,yellow,cross
0.0,5.0,1.0,1.0,5.0,5.0,649.4619020013488,1.0,0.0,part_2,go,350.0,350.0,1.0,,,,,,,,,cyan,triangle
0.0,7.0,3.0,1.0,5.0,0.0,0.0,1.0,0.0,part_2,stop,350.0,350.0,4.0,,,,,,,,,orange,square
0.0,3.0,3.0,0.0,6.0,6.0,771.2179940008355,1.0,0.0,part_2,go,400.0,350.0,1.0,,,,,,,,,blue,diamond
0.0,8.0,4.0,1.0,5.0,5.0,559.5562769995013,1.0,0.0,part_2,go,400.0,350.0,1.0,,,,,,,,,green,circle
0.0,1.0,1.0,0.0,6.0,6.0,417.2256510009902,1.0,0.0,part_2,go,400.0,350.0,1.0,,,,,,,,,white,I
0.0,7.0,3.0,1.0,5.0,5.0,467.6119639989338,1.0,0.0,part_2,stop,400.0,350.0,3.0,,,,,,,,,orange,square
0.0,2.0,2.0,0.0,6.0,6.0,573.4903239990672,1.0,0.0,part_2,go,350.0,350.0,1.0,,,,,,,,,magenta,flipped triangle
0.0,5.0,1.0,1.0,6.0,0.0,0.0,1.0,0.0,part_2,stop,350.0,350.0,4.0,,,,,,,,,cyan,triangle
0.0,8.0,4.0,1.0,6.0,0.0,0.0,1.0,0.0,part_2,stop,350.0,400.0,4.0,,,,,,,,,green,circle
0.0,4.0,4.0,0.0,5.0,5.0,666.1315390010714,1.0,0.0,part_2,go,350.0,450.0,1.0,,,,,,,,,yellow,cross
0.0,3.0,3.0,0.0,6.0,6.0,625.4149799988227,1.0,0.0,part_2,go,350.0,450.0,1.0,,,,,,,,,blue,diamond
0.0,5.0,1.0,1.0,6.0,6.0,816.5648440008226,1.0,0.0,part_2,go,350.0,450.0,1.0,,,,,,,,,cyan,triangle
0.0,3.0,3.0,0.0,5.0,5.0,838.1871999990835,1.0,0.0,part_2,go,350.0,450.0,1.0,,,,,,,,,blue,diamond
0.0,8.0,4.0,1.0,5.0,0.0,0.0,1.0,0.0,part_2,stop,350.0,450.0,4.0,,,,,,,,,green,circle
0.0,8.0,4.0,1.0,5.0,5.0,626.5217410000332,1.0,0.0,part_2,go,400.0,450.0,1.0,,,,,,,,,green,circle
0.0,1.0,1.0,0.0,6.0,6.0,668.2616449998022,1.0,0.0,part_2,go,400.0,450.0,1.0,,,,,,,,,white,I
0.0,5.0,1.0,1.0,5.0,5.0,502.00720700013335,1.0,0.0,part_2,stop,400.0,450.0,3.0,,,,,,,,,cyan,triangle
0.0,5.0,1.0,1.0,5.0,0.0,0.0,1.0,0.0,part_2,stop,350.0,450.0,4.0,,,,,,,,,cyan,triangle
0.0,1.0,1.0,0.0,6.0,6.0,702.7394369997637,1.0,0.0,part_2,go,400.0,450.0,1.0,,,,,,,,,white,I
0.0,6.0,2.0,1.0,6.0,0.0,0.0,1.0,0.0,part_2,stop,400.0,450.0,4.0,,,,,,,,,gray,hexagon
0.0,7.0,3.0,1.0,6.0,0.0,0.0,1.0,0.0,part_2,stop,400.0,500.0,4.0,,,,,,,,,orange,square
0.0,6.0,2.0,1.0,5.0,0.0,0.0,1.0,0.0,part_2,stop,400.0,550.0,4.0,,,,,,,,,gray,hexagon
0.0,3.0,3.0,0.0,6.0,6.0,888.7474789989938,1.0,0.0,part_2,go,450.0,550.0,1.0,,,,,,,,,blue,diamond
0.0,4.0,4.0,0.0,5.0,5.0,662.8538139993907,1.0,0.0,part_2,go,450.0,550.0,1.0,,,,,,,,,yellow,cross
0.0,2.0,2.0,0.0,6.0,6.0,728.9931699997396,1.0,0.0,part_2,go,450.0,550.0,1.0,,,,,,,,,magenta,flipped triangle
0.0,2.0,2.0,0.0,6.0,6.0,631.1579559987877,1.0,0.0,part_2,go,450.0,550.0,1.0,,,,,,,,,magenta,flipped triangle
0.0,3.0,3.0,0.0,5.0,5.0,582.1112930007075,1.0,0.0,part_2,go,450.0,550.0,1.0,,,,,,,,,blue,diamond
0.0,8.0,4.0,1.0,6.0,6.0,619.4289609993575,1.0,0.0,part_2,stop,450.0,550.0,3.0,,,,,,,,,green,circle
0.0,1.0,1.0,0.0,5.0,5.0,559.6368320002512,2.0,0.0,part_2,go,450.0,500.0,1.0,,,,,,,,,white,I
0.0,3.0,3.0,0.0,6.0,6.0,363.8109139992593,2.0,0.0,part_2,go,450.0,500.0,1.0,,,,,,,,,blue,diamond
0.0,3.0,3.0,0.0,6.0,6.0,422.910844999933,2.0,0.0,part_2,go,450.0,500.0,1.0,,,,,,,,,blue,diamond
0.0,5.0,1.0,1.0,6.0,6.0,431.9770259990036,2.0,0.0,part_2,stop,450.0,500.0,3.0,,,,,,,,,cyan,triangle
0.0,7.0,3.0,1.0,5.0,5.0,573.5622809988854,2.0,0.0,part_2,stop,450.0,450.0,3.0,,,,,,,,,orange,square
0.0,6.0,2.0,1.0,6.0,6.0,543.5705529998813,2.0,0.0,part_2,stop,400.0,450.0,3.0,,,,,,,,,gray,hexagon
0.0,3.0,3.0,0.0,5.0,5.0,1191.6930440002034,2.0,0.0,part_2,go,400.0,400.0,1.0,,,,,,,,,blue,diamond
0.0,2.0,2.0,0.0,5.0,5.0,872.9413490000297,2.0,0.0,part_2,go,400.0,400.0,1.0,,,,,,,,,magenta,flipped triangle
0.0,1.0,1.0,0.0,6.0,6.0,885.9628059999523,2.0,0.0,part_2,go,400.0,400.0,1.0,,,,,,,,,white,I
0.0,7.0,3.0,1.0,5.0,0.0,0.0,2.0,0.0,part_2,stop,400.0,400.0,4.0,,,,,,,,,orange,square
0.0,2.0,2.0,0.0,6.0,6.0,823.6209620008594,2.0,0.0,part_2,go,450.0,400.0,1.0,,,,,,,,,magenta,flipped triangle
0.0,3.0,3.0,0.0,6.0,6.0,537.2696360009286,2.0,0.0,part_2,go,450.0,400.0,1.0,,,,,,,,,blue,diamond
0.0,8.0,4.0,1.0,6.0,6.0,703.1925600003888,2.0,0.0,part_2,go,450.0,400.0,1.0,,,,,,,,,green,circle
0.0,3.0,3.0,0.0,5.0,5.0,783.3385270005238,2.0,0.0,part_2,go,450.0,400.0,1.0,,,,,,,,,blue,diamond
0.0,4.0,4.0,0.0,6.0,6.0,540.242268001748,2.0,0.0,part_2,go,450.0,400.0,1.0,,,,,,,,,yellow,cross
0.0,3.0,3.0,0.0,5.0,5.0,698.2366320007714,2.0,0.0,part_2,go,450.0,400.0,1.0,,,,,,,,,blue,diamond
0.0,2.0,2.0,0.0,6.0,6.0,679.7805879996304,2.0,0.0,part_2,go,450.0,400.0,1.0,,,,,,,,,magenta,flipped triangle
0.0,3.0,3.0,0.0,6.0,6.0,534.4348170001467,2.0,0.0,part_2,go,450.0,400.0,1.0,,,,,,,,,blue,diamond
0.0,8.0,4.0,1.0,6.0,0.0,0.0,2.0,0.0,part_2,stop,450.0,400.0,4.0,,,,,,,,,green,circle
0.0,1.0,1.0,0.0,5.0,5.0,693.0148229985207,2.0,0.0,part_2,go,450.0,450.0,1.0,,,,,,,,,white,I
0.0,6.0,2.0,1.0,6.0,0.0,0.0,2.0,0.0,part_2,stop,450.0,450.0,4.0,,,,,,,,,gray,hexagon
0.0,8.0,4.0,1.0,6.0,0.0,0.0,2.0,0.0,part_2,stop,450.0,500.0,4.0,,,,,,,,,green,circle
0.0,1.0,1.0,0.0,5.0,5.0,591.0913989991968,2.0,0.0,part_2,go,450.0,550.0,1.0,,,,,,,,,white,I
0.0,6.0,2.0,1.0,5.0,0.0,0.0,2.0,0.0,part_2,stop,450.0,550.0,4.0,,,,,,,,,gray,hexagon
0.0,3.0,3.0,0.0,6.0,6.0,838.7405510002282,2.0,0.0,part_2,go,500.0,550.0,1.0,,,,,,,,,blue,diamond
0.0,4.0,4.0,0.0,6.0,6.0,784.1200799994112,2.0,0.0,part_2,go,500.0,550.0,1.0,,,,,,,,,yellow,cross
0.0,2.0,2.0,0.0,6.0,6.0,469.2631470006745,2.0,0.0,part_2,go,500.0,550.0,1.0,,,,,,,,,magenta,flipped triangle
0.0,5.0,1.0,1.0,6.0,6.0,505.67348299955484,2.0,0.0,part_2,stop,500.0,550.0,3.0,,,,,,,,,cyan,triangle
0.0,1.0,1.0,0.0,6.0,6.0,774.4475960007549,2.0,0.0,part_2,go,500.0,500.0,1.0,,,,,,,,,white,I
0.0,7.0,3.0,1.0,5.0,5.0,1268.7173039994375,2.0,0.0,part_2,go,500.0,500.0,1.0,,,,,,,,,orange,square
0.0,5.0,1.0,1.0,5.0,5.0,629.3510260002222,2.0,0.0,part_2,go,500.0,500.0,1.0,,,,,,,,,cyan,triangle
0.0,5.0,1.0,1.0,5.0,0.0,0.0,2.0,0.0,part_2,stop,500.0,500.0,4.0,,,,,,,,,cyan,triangle
0.0,8.0,4.0,1.0,5.0,0.0,0.0,2.0,0.0,part_2,stop,550.0,500.0,4.0,,,,,,,,,green,circle
0.0,3.0,3.0,0.0,6.0,6.0,595.1407970005675,2.0,0.0,part_2,go,600.0,500.0,1.0,,,,,,,,,blue,diamond
0.0,1.0,1.0,0.0,6.0,6.0,423.7442639987421,2.0,0.0,part_2,go,600.0,500.0,1.0,,,,,,,,,white,I
0.0,1.0,1.0,0.0,6.0,6.0,682.9585820014472,2.0,0.0,part_2,go,600.0,500.0,1.0,,,,,,,,,white,I
0.0,4.0,4.0,0.0,6.0,6.0,425.3126989988232,3.0,0.0,part_2,go,600.0,500.0,1.0,,,,,,,,,yellow,cross
0.0,1.0,1.0,0.0,5.0,5.0,462.6682099988102,3.0,0.0,part_2,go,600.0,500.0,1.0,,,,,,,,,white,I
0.0,7.0,3.0,1.0,6.0,6.0,459.8969059989031,3.0,0.0,part_2,stop,600.0,500.0,3.0,,,,,,,,,orange,square
0.0,8.0,4.0,1.0,6.0,0.0,0.0,3.0,0.0,part_2,stop,600.0,450.0,4.0,,,,,,,,,green,circle
0.0,7.0,3.0,1.0,5.0,5.0,334.3906970003445,3.0,0.0,part_2,go,600.0,500.0,1.0,,,,,,,,,orange,square
0.0,1.0,1.0,0.0,6.0,6.0,839.92725600001,3.0,0.0,part_2,go,600.0,500.0,1.0,,,,,,,,,white,I
0.0,2.0,2.0,0.0,5.0,5.0,300.493295000706,3.0,0.0,part_2,go,600.0,500.0,1.0,,,,,,,,,magenta,flipped triangle
0.0,4.0,4.0,0.0,6.0,6.0,674.317515000439,3.0,0.0,part_2,go,600.0,500.0,1.0,,,,,,,,,yellow,cross
0.0,2.0,2.0,0.0,6.0,6.0,621.1509730001126,3.0,0.0,part_2,go,600.0,500.0,1.0,,,,,,,,,magenta,flipped triangle
0.0,8.0,4.0,1.0,5.0,5.0,694.2294029995537,3.0,0.0,part_2,stop,600.0,500.0,3.0,,,,,,,,,green,circle
0.0,1.0,1.0,0.0,5.0,5.0,797.1482769989962,3.0,0.0,part_2,go,550.0,500.0,1.0,,,,,,,,,white,I
0.0,5.0,1.0,1.0,6.0,6.0,498.7149699991278,3.0,0.0,part_2,stop,550.0,500.0,3.0,,,,,,,,,cyan,triangle
0.0,7.0,3.0,1.0,6.0,6.0,706.8761519985856,3.0,0.0,part_2,go,550.0,450.0,1.0,,,,,,,,,orange,square
0.0,6.0,2.0,1.0,5.0,5.0,663.2660430004762,3.0,0.0,part_2,stop,550.0,450.0,3.0,,,,,,,,,gray,hexagon
0.0,6.0,2.0,1.0,5.0,0.0,0.0,3.0,0.0,part_2,stop,500.0,450.0,4.0,,,,,,,,,gray,hexagon
0.0,8.0,4.0,1.0,5.0,5.0,582.8231569994387,3.0,0.0,part_2,go,550.0,450.0,1.0,,,,,,,,,green,circle
0.0,4.0,4.0,0.0,5.0,5.0,678.179557000476,3.0,0.0,part_2,go,550.0,450.0,1.0,,,,,,,,,yellow,cross
0.0,8.0,4.0,1.0,5.0,5.0,415.7050489993708,3.0,0.0,part_2,stop,550.0,450.0,3.0,,,,,,,,,green,circle
0.0,1.0,1.0,0.0,6.0,6.0,673.2066580007086,3.0,0.0,part_2,go,500.0,450.0,1.0,,,,,,,,,white,I
0.0,8.0,4.0,1.0,5.0,5.0,636.4141430003656,3.0,0.0,part_2,stop,500.0,450.0,3.0,,,,,,,,,green,circle
0.0,5.0,1.0,1.0,5.0,0.0,0.0,3.0,0.0,part_2,stop,450.0,450.0,4.0,,,,,,,,,cyan,triangle
0.0,7.0,3.0,1.0,5.0,5.0,750.56269200104,3.0,0.0,part_2,go,500.0,450.0,1.0,,,,,,,,,orange,square
0.0,5.0,1.0,1.0,5.0,0.0,0.0,3.0,0.0,part_2,stop,500.0,450.0,4.0,,,,,,,,,cyan,triangle
0.0,5.0,1.0,1.0,6.0,0.0,0.0,3.0,0.0,part_2,stop,550.0,450.0,4.0,,,,,,,,,cyan,triangle
0.0,6.0,2.0,1.0,5.0,5.0,474.6075229995767,3.0,0.0,part_2,stop,550.0,500.0,3.0,,,,,,,,,gray,hexagon
0.0,4.0,4.0,0.0,5.0,5.0,635.5083810012729,3.0,0.0,part_2,go,500.0,500.0,1.0,,,,,,,,,yellow,cross
0.0,5.0,1.0,1.0,6.0,6.0,701.6530069995497,3.0,0.0,part_2,go,500.0,500.0,1.0,,,,,,,,,cyan,triangle
0.0,6.0,2.0,1.0,5.0,5.0,654.4955050012504,3.0,0.0,part_2,go,500.0,500.0,1.0,,,,,,,,,gray,hexagon
0.0,3.0,3.0,0.0,5.0,5.0,666.9491959983134,3.0,0.0,part_2,go,500.0,500.0,1.0,,,,,,,,,blue,diamond
0.0,2.0,2.0,0.0,5.0,5.0,688.9282600004663,3.0,0.0,part_2,go,500.0,500.0,1.0,,,,,,,,,magenta,flipped triangle
0.0,7.0,3.0,1.0,6.0,6.0,348.0064849991322,3.0,0.0,part_2,stop,500.0,500.0,3.0,,,,,,,,,orange,square
0.0,6.0,2.0,1.0,6.0,0.0,0.0,3.0,0.0,part_2,stop,500.0,450.0,4.0,,,,,,,,,gray,hexagon
0.0,7.0,3.0,1.0,5.0,5.0,844.4479669997236,3.0,0.0,part_2,go,500.0,500.0,1.0,,,,,,,,,orange,square
0.0,4.0,4.0,0.0,6.0,6.0,526.9668900000397,3.0,0.0,part_2,go,500.0,500.0,1.0,,,,,,,,,yellow,cross
0.0,2.0,2.0,0.0,5.0,5.0,706.832822999786,3.0,0.0,part_2,go,500.0,500.0,1.0,,,,,,,,,magenta,flipped triangle
0.0,3.0,3.0,0.0,5.0,5.0,723.686268000165,3.0,0.0,part_2,go,500.0,500.0,1.0,,,,,,,,,blue,diamond
0.0,4.0,4.0,0.0,5.0,5.0,366.1467540005105,4.0,0.0,part_2,go,500.0,500.0,1.0,,,,,,,,,yellow,cross
0.0,7.0,3.0,1.0,5.0,5.0,311.390326000037,4.0,0.0,part_2,stop,500.0,500.0,3.0,,,,,,,,,orange,square
0.0,1.0,1.0,0.0,6.0,6.0,597.7076950002811,4.0,0.0,part_2,go,450.0,500.0,1.0,,,,,,,,,white,I
0.0,1.0,1.0,0.0,6.0,6.0,481.3296499996795,4.0,0.0,part_2,go,450.0,500.0,1.0,,,,,,,,,white,I
0.0,6.0,2.0,1.0,6.0,6.0,412.7420429995254,4.0,0.0,part_2,stop,450.0,500.0,3.0,,,,,,,,,gray,hexagon
0.0,3.0,3.0,0.0,5.0,5.0,467.2079600004508,4.0,0.0,part_2,go,450.0,450.0,1.0,,,,,,,,,blue,diamond
0.0,3.0,3.0,0.0,5.0,5.0,399.0429059995222,4.0,0.0,part_2,go,450.0,450.0,1.0,,,,,,,,,blue,diamond
0.0,1.0,1.0,0.0,6.0,6.0,293.2411010006035,4.0,0.0,part_2,go,450.0,450.0,1.0,,,,,,,,,white,I
0.0,2.0,2.0,0.0,6.0,6.0,276.7194259995449,4.0,0.0,part_2,go,450.0,450.0,1.0,,,,,,,,,magenta,flipped triangle
0.0,4.0,4.0,0.0,6.0,6.0,520.2351790012472,4.0,0.0,part_2,go,450.0,450.0,1.0,,,,,,,,,yellow,cross
0.0,6.0,2.0,1.0,6.0,6.0,387.9973330003849,4.0,0.0,part_2,go,450.0,450.0,1.0,,,,,,,,,gray,hexagon
0.0,7.0,3.0,1.0,5.0,5.0,486.7888750013662,4.0,0.0,part_2,stop,450.0,450.0,3.0,,,,,,,,,orange,square
0.0,3.0,3.0,0.0,6.0,6.0,627.6243369993608,4.0,0.0,part_2,go,400.0,450.0,1.0,,,,,,,,,blue,diamond
0.0,5.0,1.0,1.0,6.0,6.0,487.3599409984308,4.0,0.0,part_2,stop,400.0,450.0,3.0,,,,,,,,,cyan,triangle
0.0,2.0,2.0,0.0,6.0,6.0,657.509630000277,4.0,0.0,part_2,go,400.0,400.0,1.0,,,,,,,,,magenta,flipped triangle
0.0,5.0,1.0,1.0,6.0,6.0,391.3353339994501,4.0,0.0,part_2,stop,400.0,400.0,3.0,,,,,,,,,cyan,triangle
0.0,6.0,2.0,1.0,6.0,0.0,0.0,4.0,0.0,part_2,stop,400.0,350.0,4.0,,,,,,,,,gray,hexagon
0.0,8.0,4.0,1.0,6.0,6.0,584.5764579989918,4.0,0.0,part_2,go,400.0,400.0,1.0,,,,,,,,,green,circle
0.0,5.0,1.0,1.0,6.0,6.0,436.2381620012456,4.0,0.0,part_2,stop,400.0,400.0,3.0,,,,,,,,,cyan,triangle
0.0,2.0,2.0,0.0,6.0,6.0,761.3565320007183,4.0,0.0,part_2,go,400.0,350.0,1.0,,,,,,,,,magenta,flipped triangle
0.0,2.0,2.0,0.0,5.0,5.0,384.7642930013535,4.0,0.0,part_2,go,400.0,350.0,1.0,,,,,,,,,magenta,flipped triangle
0.0,3.0,3.0,0.0,6.0,6.0,748.0111260010744,4.0,0.0,part_2,go,400.0,350.0,1.0,,,,,,,,,blue,diamond
0.0,1.0,1.0,0.0,5.0,5.0,455.5375540003297,4.0,0.0,part_2,go,400.0,350.0,1.0,,,,,,,,,white,I
0.0,4.0,4.0,0.0,6.0,6.0,472.430596999402,4.0,0.0,part_2,go,400.0,350.0,1.0,,,,,,,,,yellow,cross
0.0,7.0,3.0,1.0,6.0,0.0,0.0,4.0,0.0,part_2,stop,400.0,350.0,4.0,,,,,,,,,orange,square
0.0,8.0,4.0,1.0,6.0,6.0,556.1939960007294,4.0,0.0,part_2,stop,400.0,400.0,3.0,,,,,,,,,green,circle
0.0,4.0,4.0,0.0,5.0,5.0,374.6547749997262,4.0,0.0,part_2,go,400.0,350.0,1.0,,,,,,,,,yellow,cross
0.0,5.0,1.0,1.0,5.0,0.0,0.0,4.0,0.0,part_2,stop,400.0,350.0,4.0,,,,,,,,,cyan,triangle
0.0,2.0,2.0,0.0,6.0,6.0,618.5079039987613,4.0,0.0,part_2,go,450.0,350.0,1.0,,,,,,,,,magenta,flipped triangle
0.0,4.0,4.0,0.0,6.0,6.0,375.6849900000816,4.0,0.0,part_2,go,450.0,350.0,1.0,,,,,,,,,yellow,cross
0.0,4.0,4.0,0.0,5.0,5.0,312.3281649986893,4.0,0.0,part_2,go,450.0,350.0,1.0,,,,,,,,,yellow,cross
0.0,8.0,4.0,1.0,6.0,6.0,360.2688369992393,4.0,0.0,part_2,go,450.0,350.0,1.0,,,,,,,,,green,circle
0.0,5.0,1.0,1.0,5.0,5.0,326.8270349999511,4.0,0.0,part_2,stop,450.0,350.0,3.0,,,,,,,,,cyan,triangle
0.0,4.0,4.0,0.0,5.0,5.0,696.3050340000336,4.0,0.0,part_2,go,400.0,350.0,1.0,,,,,,,,,yellow,cross
0.0,2.0,2.0,0.0,5.0,5.0,741.1501530004898,4.0,0.0,part_2,go,400.0,350.0,1.0,,,,,,,,,magenta,flipped triangle
0.0,8.0,4.0,1.0,6.0,6.0,306.1967680005182,4.0,0.0,part_2,stop,400.0,350.0,3.0,,,,,,,,,green,circle
0.0,2.0,2.0,0.0,5.0,5.0,365.0655229994299,5.0,0.0,part_2,go,400.0,300.0,1.0,,,,,,,,,magenta,flipped triangle
0.0,4.0,4.0,0.0,5.0,5.0,365.9421339998516,5.0,0.0,part_2,go,400.0,300.0,1.0,,,,,,,,,yellow,cross
0.0,4.0,4.0,0.0,6.0,6.0,311.2423700004001,5.0,0.0,part_2,go,400.0,300.0,1.0,,,,,,,,,yellow,cross
0.0,2.0,2.0,0.0,5.0,5.0,273.5759919996781,5.0,0.0,part_2,go,400.0,300.0,1.0,,,,,,,,,magenta,flipped triangle
0.0,4.0,4.0,0.0,6.0,6.0,593.5478620012873,5.0,0.0,part_2,go,400.0,300.0,1.0,,,,,,,,,yellow,cross
0.0,2.0,2.0,0.0,5.0,5.0,613.2023059999483,5.0,0.0,part_2,go,400.0,300.0,1.0,,,,,,,,,magenta,flipped triangle
0.0,3.0,3.0,0.0,5.0,5.0,412.0211259996722,5.0,0.0,part_2,go,400.0,300.0,1.0,,,,,,,,,blue,diamond
0.0,5.0,1.0,1.0,6.0,6.0,253.4761290007736,5.0,0.0,part_2,stop,400.0,300.0,3.0,,,,,,,,,cyan,triangle
0.0,6.0,2.0,1.0,5.0,5.0,500.46905199997127,5.0,0.0,part_2,stop,400.0,250.0,3.0,,,,,,,,,gray,hexagon
0.0,6.0,2.0,1.0,6.0,0.0,0.0,5.0,0.0,part_2,stop,350.0,250.0,4.0,,,,,,,,,gray,hexagon
0.0,2.0,2.0,0.0,6.0,6.0,578.7030980009149,5.0,0.0,part_2,go,350.0,300.0,1.0,,,,,,,,,magenta,flipped triangle
0.0,6.0,2.0,1.0,6.0,6.0,592.2305139993114,5.0,0.0,part_2,go,350.0,300.0,1.0,,,,,,,,,gray,hexagon
0.0,8.0,4.0,1.0,5.0,5.0,283.4090299984382,5.0,0.0,part_2,stop,350.0,300.0,3.0,,,,,,,,,green,circle
0.0,1.0,1.0,0.0,5.0,5.0,849.5509679996758,5.0,0.0,part_2,go,300.0,300.0,1.0,,,,,,,,,white,I
0.0,3.0,3.0,0.0,6.0,6.0,612.0107179995102,5.0,0.0,part_2,go,300.0,300.0,1.0,,,,,,,,,blue,diamond
0.0,2.0,2.0,0.0,5.0,5.0,547.362866000185,5.0,0.0,part_2,go,300.0,300.0,1.0,,,,,,,,,magenta,flipped triangle
0.0,6.0,2.0,1.0,5.0,5.0,498.8828229998034,5.0,0.0,part_2,go,300.0,300.0,1.0,,,,,,,,,gray,hexagon
0.0,4.0,4.0,0.0,5.0,5.0,513.3173019985406,5.0,0.0,part_2,go,300.0,300.0,1.0,,,,,,,,,yellow,cross
0.0,3.0,3.0,0.0,6.0,6.0,507.2944899984577,5.0,0.0,part_2,go,300.0,300.0,1.0,,,,,,,,,blue,diamond
0.0,6.0,2.0,1.0,5.0,5.0,280.6973030001245,5.0,0.0,part_2,stop,300.0,300.0,3.0,,,,,,,,,gray,hexagon
0.0,2.0,2.0,0.0,5.0,5.0,616.7114489999221,5.0,0.0,part_2,go,250.0,300.0,1.0,,,,,,,,,magenta,flipped triangle
0.0,3.0,3.0,0.0,5.0,5.0,458.81424000072,5.0,0.0,part_2,go,250.0,300.0,1.0,,,,,,,,,blue,diamond
0.0,6.0,2.0,1.0,5.0,5.0,355.4781319999165,5.0,0.0,part_2,stop,250.0,300.0,3.0,,,,,,,,,gray,hexagon
0.0,4.0,4.0,0.0,5.0,5.0,467.1368440012884,5.0,0.0,part_2,go,200.0,300.0,1.0,,,,,,,,,yellow,cross
0.0,5.0,1.0,1.0,5.0,5.0,500.58352899941383,5.0,0.0,part_2,go,200.0,300.0,1.0,,,,,,,,,cyan,triangle
0.0,1.0,1.0,0.0,6.0,6.0,522.4355150003248,5.0,0.0,part_2,go,200.0,300.0,1.0,,,,,,,,,white,I
0.0,6.0,2.0,1.0,6.0,6.0,425.6309909997071,5.0,0.0,part_2,stop,200.0,300.0,3.0,,,,,,,,,gray,hexagon
0.0,3.0,3.0,0.0,5.0,5.0,304.4189200008986,5.0,0.0,part_2,go,200.0,250.0,1.0,,,,,,,,,blue,diamond
0.0,6.0,2.0,1.0,6.0,0.0,0.0,5.0,0.0,part_2,stop,200.0,250.0,4.0,,,,,,,,,gray,hexagon
0.0,8.0,4.0,1.0,5.0,0.0,0.0,5.0,0.0,part_2,stop,200.0,300.0,4.0,,,,,,,,,green,circle
0.0,5.0,1.0,1.0,5.0,5.0,653.0908820004697,5.0,0.0,part_2,go,250.0,300.0,1.0,,,,,,,,,cyan,triangle
0.0,5.0,1.0,1.0,5.0,5.0,342.0707090008363,5.0,0.0,part_2,stop,250.0,300.0,3.0,,,,,,,,,cyan,triangle
0.0,7.0,3.0,1.0,5.0,5.0,455.0607300006959,5.0,0.0,part_2,go,200.0,300.0,1.0,,,,,,,,,orange,square
0.0,8.0,4.0,1.0,5.0,0.0,0.0,5.0,0.0,part_2,stop,200.0,300.0,4.0,,,,,,,,,green,circle
0.0,2.0,2.0,0.0,6.0,6.0,529.0476469999703,5.0,0.0,part_2,go,250.0,300.0,1.0,,,,,,,,,magenta,flipped triangle
0.0,1.0,1.0,0.0,5.0,5.0,619.3851640000503,5.0,0.0,part_2,go,250.0,300.0,1.0,,,,,,,,,white,I
0.0,8.0,4.0,1.0,5.0,5.0,350.8682399988174,6.0,0.0,part_2,stop,250.0,300.0,3.0,,,,,,,,,green,circle
0.0,2.0,2.0,0.0,6.0,6.0,539.5390020003106,6.0,0.0,part_2,go,200.0,300.0,1.0,,,,,,,,,magenta,flipped triangle
0.0,7.0,3.0,1.0,6.0,6.0,440.1723800001491,6.0,0.0,part_2,stop,200.0,300.0,3.0,,,,,,,,,orange,square
0.0,7.0,3.0,1.0,6.0,0.0,0.0,6.0,0.0,part_2,stop,200.0,250.0,4.0,,,,,,,,,orange,square
0.0,6.0,2.0,1.0,5.0,0.0,0.0,6.0,0.0,part_2,stop,200.0,300.0,4.0,,,,,,,,,gray,hexagon
0.0,2.0,2.0,0.0,5.0,5.0,349.6631180005352,6.0,0.0,part_2,go,250.0,300.0,1.0,,,,,,,,,magenta,flipped triangle
0.0,8.0,4.0,1.0,6.0,6.0,340.9307029996853,6.0,0.0,part_2,stop,250.0,300.0,3.0,,,,,,,,,green,circle
0.0,4.0,4.0,0.0,6.0,6.0,372.1493009998085,6.0,0.0,part_2,go,250.0,250.0,1.0,,,,,,,,,yellow,cross
0.0,6.0,2.0,1.0,5.0,0.0,0.0,6.0,0.0,part_2,stop,250.0,250.0,4.0,,,,,,,,,gray,hexagon
0.0,5.0,1.0,1.0,6.0,0.0,0.0,6.0,0.0,part_2,stop,300.0,250.0,4.0,,,,,,,,,cyan,triangle
0.0,7.0,3.0,1.0,6.0,6.0,410.7935110005201,6.0,0.0,part_2,stop,300.0,300.0,3.0,,,,,,,,,orange,square
0.0,7.0,3.0,1.0,5.0,5.0,341.361382001196,6.0,0.0,part_2,go,300.0,250.0,1.0,,,,,,,,,orange,square
0.0,8.0,4.0,1.0,6.0,0.0,0.0,6.0,0.0,part_2,stop,300.0,250.0,4.0,,,,,,,,,green,circle
0.0,1.0,1.0,0.0,6.0,6.0,840.7382890000008,6.0,0.0,part_2,go,300.0,300.0,1.0,,,,,,,,,white,I
0.0,2.0,2.0,0.0,6.0,6.0,371.2107310002466,6.0,0.0,part_2,go,300.0,300.0,1.0,,,,,,,,,magenta,flipped triangle
0.0,2.0,2.0,0.0,5.0,5.0,410.8130160002474,6.0,0.0,part_2,go,300.0,300.0,1.0,,,,,,,,,magenta,flipped triangle
0.0,2.0,2.0,0.0,6.0,6.0,393.1408440002997,6.0,0.0,part_2,go,300.0,300.0,1.0,,,,,,,,,magenta,flipped triangle
0.0,1.0,1.0,0.0,5.0,5.0,521.2923490016692,6.0,0.0,part_2,go,300.0,300.0,1.0,,,,,,,,,white,I
0.0,3.0,3.0,0.0,5.0,5.0,651.3514609996491,6.0,0.0,part_2,go,300.0,300.0,1.0,,,,,,,,,blue,diamond
0.0,5.0,1.0,1.0,5.0,5.0,349.9298320002708,6.0,0.0,part_2,go,300.0,300.0,1.0,,,,,,,,,cyan,triangle
0.0,7.0,3.0,1.0,6.0,0.0,0.0,6.0,0.0,part_2,stop,300.0,300.0,4.0,,,,,,,,,orange,square
0.0,7.0,3.0,1.0,6.0,0.0,0.0,6.0,0.0,part_2,stop,300.0,350.0,4.0,,,,,,,,,orange,square
0.0,3.0,3.0,0.0,5.0,5.0,388.3144379997247,6.0,0.0,part_2,go,300.0,400.0,1.0,,,,,,,,,blue,diamond
0.0,3.0,3.0,0.0,6.0,6.0,510.1301100003184,6.0,0.0,part_2,go,300.0,400.0,1.0,,,,,,,,,blue,diamond
0.0,4.0,4.0,0.0,5.0,5.0,462.2052140002779,6.0,0.0,part_2,go,300.0,400.0,1.0,,,,,,,,,yellow,cross
0.0,4.0,4.0,0.0,5.0,5.0,335.8227289991191,6.0,0.0,part_2,go,300.0,400.0,1.0,,,,,,,,,yellow,cross
0.0,5.0,1.0,1.0,6.0,6.0,435.5021129995293,6.0,0.0,part_2,stop,300.0,400.0,3.0,,,,,,,,,cyan,triangle
0.0,6.0,2.0,1.0,6.0,6.0,504.7033940008987,6.0,0.0,part_2,go,300.0,350.0,1.0,,,,,,,,,gray,hexagon
0.0,7.0,3.0,1.0,6.0,0.0,0.0,6.0,0.0,part_2,stop,300.0,350.0,4.0,,,,,,,,,orange,square
0.0,6.0,2.0,1.0,5.0,5.0,349.1605879989947,6.0,0.0,part_2,stop,300.0,400.0,3.0,,,,,,,,,gray,hexagon
0.0,7.0,3.0,1.0,6.0,6.0,508.7181370017788,6.0,0.0,part_2,stop,250.0,400.0,3.0,,,,,,,,,orange,square
0.0,1.0,1.0,0.0,5.0,5.0,376.3203519993112,6.0,0.0,part_2,go,250.0,350.0,1.0,,,,,,,,,white,I
0.0,5.0,1.0,1.0,6.0,0.0,0.0,6.0,0.0,part_2,stop,250.0,350.0,4.0,,,,,,,,,cyan,triangle
0.0,3.0,3.0,0.0,5.0,5.0,736.132402000294,6.0,0.0,part_2,go,250.0,400.0,1.0,,,,,,,,,blue,diamond
0.0,3.0,3.0,0.0,5.0,5.0,348.0715250007051,6.0,0.0,part_2,go,250.0,400.0,1.0,,,,,,,,,blue,diamond
0.0,8.0,4.0,1.0,5.0,5.0,373.6019969983317,6.0,0.0,part_2,go,250.0,400.0,1.0,,,,,,,,,green,circle
0.0,6.0,2.0,1.0,5.0,5.0,327.4730069988436,7.0,0.0,part_2,stop,250.0,400.0,3.0,,,,,,,,,gray,hexagon
0.0,1.0,1.0,0.0,6.0,6.0,471.5288789993792,7.0,0.0,part_2,go,200.0,400.0,1.0,,,,,,,,,white,I
0.0,5.0,1.0,1.0,5.0,5.0,268.7643849985761,7.0,0.0,part_2,stop,200.0,400.0,3.0,,,,,,,,,cyan,triangle
0.0,6.0,2.0,1.0,6.0,6.0,410.4291980002017,7.0,0.0,part_2,go,150.0,400.0,1.0,,,,,,,,,gray,hexagon
0.0,2.0,2.0,0.0,6.0,6.0,358.0997059998481,7.0,0.0,part_2,go,150.0,400.0,1.0,,,,,,,,,magenta,flipped triangle
0.0,5.0,1.0,1.0,5.0,0.0,0.0,7.0,0.0,part_2,stop,150.0,400.0,4.0,,,,,,,,,cyan,triangle
0.0,1.0,1.0,0.0,6.0,6.0,443.2494910015521,7.0,0.0,part_2,go,200.0,400.0,1.0,,,,,,,,,white,I
0.0,1.0,1.0,0.0,5.0,5.0,573.9993079987471,7.0,0.0,part_2,go,200.0,400.0,1.0,,,,,,,,,white,I
0.0,7.0,3.0,1.0,6.0,6.0,461.0617480011569,7.0,0.0,part_2,stop,200.0,400.0,3.0,,,,,,,,,orange,square
0.0,7.0,3.0,1.0,5.0,0.0,0.0,7.0,0.0,part_2,stop,200.0,350.0,4.0,,,,,,,,,orange,square
0.0,5.0,1.0,1.0,5.0,0.0,0.0,7.0,0.0,part_2,stop,250.0,350.0,4.0,,,,,,,,,cyan,triangle
0.0,1.0,1.0,0.0,5.0,5.0,393.1359190009971,7.0,0.0,part_2,go,300.0,350.0,1.0,,,,,,,,,white,I
0.0,7.0,3.0,1.0,5.0,0.0,0.0,7.0,0.0,part_2,stop,300.0,350.0,4.0,,,,,,,,,orange,square
0.0,4.0,4.0,0.0,5.0,5.0,380.3145210004004,7.0,0.0,part_2,go,350.0,350.0,1.0,,,,,,,,,yellow,cross
0.0,7.0,3.0,1.0,6.0,0.0,0.0,7.0,0.0,part_2,stop,350.0,350.0,4.0,,,,,,,,,orange,square
0.0,2.0,2.0,0.0,5.0,5.0,361.4703220009687,7.0,0.0,part_2,go,350.0,400.0,1.0,,,,,,,,,magenta,flipped triangle
0.0,6.0,2.0,1.0,6.0,6.0,459.1213819985569,7.0,0.0,part_2,go,350.0,400.0,1.0,,,,,,,,,gray,hexagon
0.0,4.0,4.0,0.0,6.0,6.0,533.2383020013367,7.0,0.0,part_2,go,350.0,400.0,1.0,,,,,,,,,yellow,cross
0.0,5.0,1.0,1.0,6.0,0.0,0.0,7.0,0.0,part_2,stop,350.0,400.0,4.0,,,,,,,,,cyan,triangle
0.0,7.0,3.0,1.0,6.0,6.0,848.2007530001283,7.0,0.0,part_2,go,350.0,450.0,1.0,,,,,,,,,orange,square
0.0,3.0,3.0,0.0,6.0,6.0,631.7948169998999,7.0,0.0,part_2,go,350.0,450.0,1.0,,,,,,,,,blue,diamond
0.0,7.0,3.0,1.0,6.0,6.0,511.0231399994518,7.0,0.0,part_2,stop,350.0,450.0,3.0,,,,,,,,,orange,square
0.0,6.0,2.0,1.0,5.0,0.0,0.0,7.0,0.0,part_2,stop,350.0,400.0,4.0,,,,,,,,,gray,hexagon
0.0,1.0,1.0,0.0,5.0,5.0,536.1008599993511,7.0,0.0,part_2,go,400.0,400.0,1.0,,,,,,,,,white,I
0.0,7.0,3.0,1.0,6.0,6.0,544.6880959989358,7.0,0.0,part_2,stop,400.0,400.0,3.0,,,,,,,,,orange,square
0.0,6.0,2.0,1.0,5.0,0.0,0.0,7.0,0.0,part_2,stop,400.0,350.0,4.0,,,,,,,,,gray,hexagon
0.0,1.0,1.0,0.0,5.0,5.0,379.0982640002767,7.0,0.0,part_2,go,450.0,350.0,1.0,,,,,,,,,white,I
0.0,8.0,4.0,1.0,5.0,5.0,496.7143699996086,7.0,0.0,part_2,stop,450.0,350.0,3.0,,,,,,,,,green,circle
0.0,3.0,3.0,0.0,6.0,6.0,560.4432139989513,7.0,0.0,part_2,go,400.0,350.0,1.0,,,,,,,,,blue,diamond
0.0,1.0,1.0,0.0,6.0,6.0,610.88257099982,7.0,0.0,part_2,go,400.0,350.0,1.0,,,,,,,,,white,I
0.0,8.0,4.0,1.0,5.0,5.0,512.7935529999377,7.0,0.0,part_2,stop,400.0,350.0,3.0,,,,,,,,,green,circle
0.0,3.0,3.0,0.0,6.0,6.0,889.2632440001762,7.0,0.0,part_2,go,350.0,350.0,1.0,,,,,,,,,blue,diamond
0.0,4.0,4.0,0.0,5.0,5.0,764.5277159990655,7.0,0.0,part_2,go,350.0,350.0,1.0,,,,,,,,,yellow,cross
0.0,3.0,3.0,0.0,5.0,5.0,627.5903929999913,7.0,0.0,part_2,go,350.0,350.0,1.0,,,,,,,,,blue,diamond
0.0,5.0,1.0,1.0,5.0,5.0,607.3359620004339,7.0,0.0,part_2,go,350.0,350.0,1.0,,,,,,,,,cyan,triangle
0.0,8.0,4.0,1.0,5.0,5.0,454.0595520011266,7.0,0.0,part_2,stop,350.0,350.0,3.0,,,,,,,,,green,circle
0.0,6.0,2.0,1.0,6.0,0.0,0.0,8.0,0.0,part_2,stop,300.0,350.0,4.0,,,,,,,,,gray,hexagon
0.0,8.0,4.0,1.0,6.0,6.0,456.2023010003031,8.0,0.0,part_2,stop,300.0,400.0,3.0,,,,,,,,,green,circle
0.0,1.0,1.0,0.0,5.0,5.0,346.3671099998464,8.0,0.0,part_2,go,300.0,350.0,1.0,,,,,,,,,white,I
0.0,6.0,2.0,1.0,5.0,5.0,396.9175949987402,8.0,0.0,part_2,go,300.0,350.0,1.0,,,,,,,,,gray,hexagon
0.0,4.0,4.0,0.0,6.0,6.0,347.2416450003948,8.0,0.0,part_2,go,300.0,350.0,1.0,,,,,,,,,yellow,cross
0.0,4.0,4.0,0.0,5.0,5.0,345.8427450004819,8.0,0.0,part_2,go,300.0,350.0,1.0,,,,,,,,,yellow,cross
0.0,2.0,2.0,0.0,5.0,5.0,524.4667259994458,8.0,0.0,part_2,go,300.0,350.0,1.0,,,,,,,,,magenta,flipped triangle
0.0,7.0,3.0,1.0,5.0,5.0,338.2351379987085,8.0,0.0,part_2,stop,300.0,350.0,3.0,,,,,,,,,orange,square
0.0,8.0,4.0,1.0,6.0,0.0,0.0,8.0,0.0,part_2,stop,250.0,350.0,4.0,,,,,,,,,green,circle
0.0,7.0,3.0,1.0,6.0,6.0,423.8567960001091,8.0,0.0,part_2,go,250.0,400.0,1.0,,,,,,,,,orange,square
0.0,1.0,1.0,0.0,5.0,5.0,528.9381680013321,8.0,0.0,part_2,go,250.0,400.0,1.0,,,,,,,,,white,I
0.0,8.0,4.0,1.0,6.0,6.0,357.0997420010826,8.0,0.0,part_2,go,250.0,400.0,1.0,,,,,,,,,green,circle
0.0,8.0,4.0,1.0,6.0,6.0,353.0714400003489,8.0,0.0,part_2,stop,250.0,400.0,3.0,,,,,,,,,green,circle
0.0,7.0,3.0,1.0,5.0,0.0,0.0,8.0,0.0,part_2,stop,250.0,350.0,4.0,,,,,,,,,orange,square
0.0,4.0,4.0,0.0,6.0,6.0,530.6122050005797,8.0,0.0,part_2,go,300.0,350.0,1.0,,,,,,,,,yellow,cross
0.0,5.0,1.0,1.0,6.0,6.0,465.1736779997009,8.0,0.0,part_2,go,300.0,350.0,1.0,,,,,,,,,cyan,triangle
0.0,8.0,4.0,1.0,6.0,6.0,652.8799469997466,8.0,0.0,part_2,go,300.0,350.0,1.0,,,,,,,,,green,circle
0.0,2.0,2.0,0.0,5.0,5.0,512.8659990004962,8.0,0.0,part_2,go,300.0,350.0,1.0,,,,,,,,,magenta,flipped triangle
0.0,6.0,2.0,1.0,6.0,0.0,0.0,8.0,0.0,part_2,stop,300.0,350.0,4.0,,,,,,,,,gray,hexagon
0.0,5.0,1.0,1.0,5.0,0.0,0.0,8.0,0.0,part_2,stop,300.0,400.0,4.0,,,,,,,,,cyan,triangle
0.0,6.0,2.0,1.0,6.0,6.0,789.4682309997734,8.0,0.0,part_2,go,350.0,400.0,1.0,,,,,,,,,gray,hexagon
0.0,5.0,1.0,1.0,6.0,6.0,352.9451699996571,8.0,0.0,part_2,stop,350.0,400.0,3.0,,,,,,,,,cyan,triangle
0.0,2.0,2.0,0.0,5.0,5.0,362.6128899995819,8.0,0.0,part_2,go,350.0,350.0,1.0,,,,,,,,,magenta,flipped triangle
0.0,4.0,4.0,0.0,5.0,5.0,434.6248019992345,8.0,0.0,part_2,go,350.0,350.0,1.0,,,,,,,,,yellow,cross
0.0,1.0,1.0,0.0,6.0,6.0,609.4831919999706,8.0,0.0,part_2,go,350.0,350.0,1.0,,,,,,,,,white,I
0.0,6.0,2.0,1.0,5.0,5.0,330.9277359985572,8.0,0.0,part_2,stop,350.0,350.0,3.0,,,,,,,,,gray,hexagon
0.0,4.0,4.0,0.0,6.0,6.0,499.2258900001616,8.0,0.0,part_2,go,300.0,350.0,1.0,,,,,,,,,yellow,cross
0.0,7.0,3.0,1.0,5.0,0.0,0.0,8.0,0.0,part_2,stop,300.0,350.0,4.0,,,,,,,,,orange,square
0.0,1.0,1.0,0.0,5.0,5.0,605.3422080003656,8.0,0.0,part_2,go,350.0,350.0,1.0,,,,,,,,,white,I
0.0,7.0,3.0,1.0,5.0,5.0,395.5664239983889,8.0,0.0,part_2,stop,350.0,350.0,3.0,,,,,,,,,orange,square
0.0,1.0,1.0,0.0,5.0,5.0,564.4576049999159,8.0,0.0,part_2,go,300.0,350.0,1.0,,,,,,,,,white,I
0.0,8.0,4.0,1.0,6.0,6.0,404.9390939999284,8.0,0.0,part_2,stop,300.0,350.0,3.0,,,,,,,,,green,circle
0.0,2.0,2.0,0.0,6.0,6.0,613.0325869999069,8.0,0.0,part_2,go,300.0,300.0,1.0,,,,,,,,,magenta,flipped triangle
0.0,3.0,3.0,0.0,6.0,6.0,671.3682419995166,8.0,0.0,part_2,go,300.0,300.0,1.0,,,,,,,,,blue,diamond
0.0,4.0,4.0,0.0,5.0,5.0,304.2565369996737,8.0,0.0,part_2,go,300.0,300.0,1.0,,,,,,,,,yellow,cross
0.0,4.0,4.0,0.0,6.0,6.0,393.3442609995836,8.0,0.0,part_2,go,300.0,300.0,1.0,,,,,,,,,yellow,cross
0.0,5.0,1.0,1.0,7.0,2.0,1061.1392669998168,1.0,1.0,part_3,go,0.0,0.0,0.0,264.0,6.0,220.0,264.0,88.0,176.0,44.0,132.0,cyan,triangle
0.0,6.0,2.0,1.0,7.0,4.0,1147.3934580008065,1.0,1.0,part_3,go,0.0,0.0,0.0,294.0,6.0,196.0,98.0,245.0,294.0,49.0,147.0,gray,hexagon
0.0,8.0,4.0,1.0,7.0,2.0,2126.012974000332,1.0,1.0,part_3,go,0.0,0.0,0.0,78.0,2.0,156.0,78.0,195.0,234.0,117.0,39.0,green,circle
0.0,6.0,2.0,1.0,7.0,6.0,2952.548420000312,1.0,1.0,part_3,go,0.0,0.0,0.0,68.0,2.0,204.0,102.0,170.0,136.0,34.0,68.0,gray,hexagon
0.0,1.0,1.0,0.0,7.0,2.0,2065.0833309991867,1.0,1.0,part_3,go,0.0,0.0,0.0,220.0,5.0,88.0,220.0,44.0,176.0,132.0,264.0,white,I
0.0,8.0,4.0,1.0,7.0,5.0,2618.339799999376,1.0,1.0,part_3,go,0.0,0.0,0.0,34.0,1.0,68.0,204.0,136.0,102.0,34.0,170.0,green,circle
0.0,6.0,2.0,1.0,7.0,2.0,1688.6800450010924,1.0,1.0,part_3,go,0.0,0.0,0.0,39.0,1.0,117.0,39.0,156.0,195.0,234.0,78.0,gray,hexagon
0.0,3.0,3.0,0.0,7.0,2.0,1923.515574000703,1.0,1.0,part_3,go,0.0,0.0,0.0,324.0,6.0,216.0,324.0,108.0,270.0,54.0,162.0,blue,diamond
0.0,5.0,1.0,1.0,7.0,6.0,1739.729074999559,1.0,1.0,part_3,go,0.0,0.0,0.0,270.0,5.0,108.0,162.0,216.0,54.0,324.0,270.0,cyan,triangle
0.0,5.0,1.0,1.0,7.0,5.0,2268.3418150008947,1.0,1.0,part_3,go,0.0,0.0,0.0,204.0,6.0,34.0,68.0,136.0,170.0,204.0,102.0,cyan,triangle
0.0,1.0,1.0,0.0,7.0,3.0,2239.034148000428,1.0,1.0,part_3,go,0.0,0.0,0.0,108.0,2.0,216.0,162.0,108.0,270.0,324.0,54.0,white,I
0.0,2.0,2.0,0.0,7.0,3.0,2039.9556559987104,1.0,1.0,part_3,go,0.0,0.0,0.0,294.0,6.0,147.0,245.0,294.0,98.0,49.0,196.0,magenta,flipped triangle
0.0,3.0,3.0,0.0,7.0,5.0,1877.6152259997616,1.0,1.0,part_3,go,0.0,0.0,0.0,234.0,6.0,39.0,117.0,156.0,195.0,234.0,78.0,blue,diamond
0.0,8.0,4.0,1.0,7.0,2.0,986.2176490005368,1.0,1.0,part_3,go,0.0,0.0,0.0,324.0,6.0,270.0,324.0,162.0,216.0,108.0,54.0,green,circle
0.0,4.0,4.0,0.0,7.0,5.0,919.9391169986484,1.0,1.0,part_3,go,0.0,0.0,0.0,156.0,4.0,78.0,39.0,195.0,117.0,156.0,234.0,yellow,cross
0.0,4.0,4.0,0.0,7.0,3.0,1682.1546890005266,1.0,1.0,part_3,go,0.0,0.0,0.0,98.0,2.0,245.0,294.0,98.0,147.0,196.0,49.0,yellow,cross
0.0,4.0,4.0,0.0,7.0,2.0,990.4287419994944,1.0,1.0,part_3,go,0.0,0.0,0.0,78.0,2.0,234.0,78.0,156.0,117.0,195.0,39.0,yellow,cross
0.0,6.0,2.0,1.0,7.0,5.0,974.0987829991354,1.0,1.0,part_3,go,0.0,0.0,0.0,108.0,2.0,54.0,162.0,216.0,270.0,108.0,324.0,gray,hexagon
0.0,3.0,3.0,0.0,7.0,2.0,1047.6668560004327,1.0,1.0,part_3,go,0.0,0.0,0.0,204.0,6.0,34.0,204.0,102.0,170.0,68.0,136.0,blue,diamond
0.0,1.0,1.0,0.0,7.0,4.0,1344.461519000106,1.0,1.0,part_3,go,0.0,0.0,0.0,54.0,1.0,270.0,162.0,216.0,54.0,324.0,108.0,white,I
0.0,7.0,3.0,1.0,7.0,2.0,567.4899260011443,2.0,1.0,part_3,go,0.0,0.0,0.0,176.0,4.0,132.0,176.0,220.0,44.0,264.0,88.0,orange,square
0.0,3.0,3.0,0.0,7.0,2.0,1192.86879900028,2.0,1.0,part_3,go,0.0,0.0,0.0,324.0,6.0,270.0,324.0,108.0,216.0,54.0,162.0,blue,diamond
0.0,7.0,3.0,1.0,7.0,2.0,997.5952770000732,2.0,1.0,part_3,go,0.0,0.0,0.0,54.0,1.0,270.0,54.0,324.0,162.0,108.0,216.0,orange,square
0.0,1.0,1.0,0.0,7.0,1.0,1317.4330910005665,2.0,1.0,part_3,go,0.0,0.0,0.0,49.0,1.0,49.0,294.0,245.0,196.0,147.0,98.0,white,I
0.0,7.0,3.0,1.0,7.0,4.0,1274.8413500012248,2.0,1.0,part_3,go,0.0,0.0,0.0,156.0,4.0,39.0,234.0,195.0,156.0,78.0,117.0,orange,square
0.0,8.0,4.0,1.0,7.0,1.0,842.8131119999307,2.0,1.0,part_3,go,0.0,0.0,0.0,220.0,5.0,220.0,88.0,132.0,176.0,44.0,264.0,green,circle
0.0,4.0,4.0,0.0,7.0,5.0,1019.5974440011923,2.0,1.0,part_3,go,0.0,0.0,0.0,176.0,4.0,132.0,264.0,88.0,220.0,176.0,44.0,yellow,cross
0.0,7.0,3.0,1.0,7.0,5.0,1175.1083169983758,2.0,1.0,part_3,go,0.0,0.0,0.0,34.0,1.0,68.0,136.0,170.0,102.0,34.0,204.0,orange,square
0.0,5.0,1.0,1.0,7.0,3.0,1024.788978998913,2.0,1.0,part_3,go,0.0,0.0,0.0,78.0,2.0,195.0,117.0,78.0,39.0,156.0,234.0,cyan,triangle
0.0,4.0,4.0,0.0,7.0,4.0,840.8315180004138,2.0,1.0,part_3,go,0.0,0.0,0.0,98.0,2.0,147.0,294.0,49.0,98.0,245.0,196.0,yellow,cross
0.0,1.0,1.0,0.0,7.0,1.0,881.1475849997805,2.0,1.0,part_3,go,0.0,0.0,0.0,49.0,1.0,49.0,294.0,98.0,147.0,245.0,196.0,white,I
0.0,6.0,2.0,1.0,7.0,5.0,764.9014650014578,2.0,1.0,part_3,go,0.0,0.0,0.0,44.0,1.0,264.0,132.0,176.0,88.0,44.0,220.0,gray,hexagon
0.0,1.0,1.0,0.0,7.0,2.0,558.3927250008855,2.0,1.0,part_3,go,0.0,0.0,0.0,78.0,2.0,117.0,78.0,39.0,234.0,195.0,156.0,white,I
0.0,3.0,3.0,0.0,7.0,4.0,788.4023520000483,2.0,1.0,part_3,go,0.0,0.0,0.0,220.0,5.0,176.0,264.0,88.0,220.0,132.0,44.0,blue,diamond
0.0,7.0,3.0,1.0,7.0,6.0,639.3929290006781,2.0,1.0,part_3,go,0.0,0.0,0.0,147.0,3.0,294.0,196.0,49.0,245.0,98.0,147.0,orange,square
0.0,8.0,4.0,1.0,7.0,1.0,609.1641350012651,2.0,1.0,part_3,go,0.0,0.0,0.0,196.0,4.0,196.0,245.0,49.0,147.0,294.0,98.0,green,circle
0.0,5.0,1.0,1.0,7.0,2.0,604.6454589995847,2.0,1.0,part_3,go,0.0,0.0,0.0,108.0,2.0,270.0,108.0,54.0,216.0,162.0,324.0,cyan,triangle
0.0,8.0,4.0,1.0,7.0,5.0,970.0362940002378,2.0,1.0,part_3,go,0.0,0.0,0.0,54.0,1.0,216.0,270.0,162.0,108.0,54.0,324.0,green,circle
0.0,1.0,1.0,0.0,7.0,2.0,447.1821429997362,2.0,1.0,part_3,go,0.0,0.0,0.0,88.0,2.0,132.0,88.0,44.0,220.0,264.0,176.0,white,I
0.0,2.0,2.0,0.0,7.0,6.0,1367.802027001744,2.0,1.0,part_3,go,0.0,0.0,0.0,234.0,6.0,117.0,195.0,39.0,78.0,156.0,234.0,magenta,flipped triangle
0.0,7.0,3.0,1.0,7.0,5.0,738.7665820006077,3.0,1.0,part_3,go,0.0,0.0,0.0,136.0,4.0,68.0,102.0,34.0,204.0,136.0,170.0,orange,square
0.0,1.0,1.0,0.0,7.0,1.0,512.7489520000381,3.0,1.0,part_3,go,0.0,0.0,0.0,34.0,1.0,34.0,204.0,170.0,136.0,102.0,68.0,white,I
0.0,2.0,2.0,0.0,7.0,5.0,851.2896009997348,3.0,1.0,part_3,go,0.0,0.0,0.0,136.0,4.0,204.0,68.0,34.0,102.0,136.0,170.0,magenta,flipped triangle
0.0,7.0,3.0,1.0,7.0,2.0,740.4176569998526,3.0,1.0,part_3,go,0.0,0.0,0.0,49.0,1.0,98.0,49.0,147.0,196.0,294.0,245.0,orange,square
0.0,5.0,1.0,1.0,7.0,2.0,965.7673940000676,3.0,1.0,part_3,go,0.0,0.0,0.0,204.0,6.0,170.0,204.0,102.0,136.0,34.0,68.0,cyan,triangle
0.0,2.0,2.0,0.0,7.0,4.0,598.6900030002289,3.0,1.0,part_3,go,0.0,0.0,0.0,324.0,6.0,162.0,216.0,54.0,324.0,270.0,108.0,magenta,flipped triangle
0.0,7.0,3.0,1.0,7.0,2.0,592.6425929992547,3.0,1.0,part_3,go,0.0,0.0,0.0,156.0,4.0,234.0,156.0,78.0,117.0,39.0,195.0,orange,square
0.0,3.0,3.0,0.0,7.0,6.0,612.0268649992795,3.0,1.0,part_3,go,0.0,0.0,0.0,102.0,3.0,204.0,170.0,68.0,136.0,34.0,102.0,blue,diamond
0.0,1.0,1.0,0.0,7.0,5.0,454.6339730004547,3.0,1.0,part_3,go,0.0,0.0,0.0,156.0,4.0,117.0,78.0,234.0,195.0,156.0,39.0,white,I
0.0,2.0,2.0,0.0,7.0,6.0,539.0590930001053,3.0,1.0,part_3,go,0.0,0.0,0.0,34.0,1.0,102.0,170.0,204.0,136.0,68.0,34.0,magenta,flipped triangle
0.0,4.0,4.0,0.0,7.0,2.0,370.716524999807,3.0,1.0,part_3,go,0.0,0.0,0.0,68.0,2.0,102.0,68.0,170.0,204.0,136.0,34.0,yellow,cross
0.0,3.0,3.0,0.0,7.0,5.0,288.7036940010148,3.0,1.0,part_3,go,0.0,0.0,0.0,234.0,6.0,39.0,117.0,195.0,156.0,234.0,78.0,blue,diamond
0.0,2.0,2.0,0.0,7.0,2.0,855.7574189999286,3.0,1.0,part_3,go,0.0,0.0,0.0,44.0,1.0,88.0,44.0,132.0,220.0,264.0,176.0,magenta,flipped triangle
0.0,8.0,4.0,1.0,7.0,3.0,886.373987999832,3.0,1.0,part_3,go,0.0,0.0,0.0,68.0,2.0,136.0,102.0,68.0,204.0,170.0,34.0,green,circle
0.0,5.0,1.0,1.0,7.0,5.0,665.4181720004999,3.0,1.0,part_3,go,0.0,0.0,0.0,245.0,5.0,49.0,196.0,294.0,147.0,245.0,98.0,cyan,triangle
0.0,6.0,2.0,1.0,7.0,4.0,778.3671319994028,3.0,1.0,part_3,go,0.0,0.0,0.0,245.0,5.0,294.0,147.0,196.0,245.0,49.0,98.0,gray,hexagon
0.0,3.0,3.0,0.0,7.0,2.0,587.1418570004607,3.0,1.0,part_3,go,0.0,0.0,0.0,245.0,5.0,147.0,245.0,98.0,49.0,294.0,196.0,blue,diamond
0.0,2.0,2.0,0.0,7.0,4.0,655.4690299999493,3.0,1.0,part_3,go,0.0,0.0,0.0,245.0,5.0,147.0,196.0,49.0,245.0,294.0,98.0,magenta,flipped triangle
0.0,3.0,3.0,0.0,7.0,2.0,501.8688229993131,3.0,1.0,part_3,go,0.0,0.0,0.0,132.0,3.0,264.0,132.0,88.0,176.0,44.0,220.0,blue,diamond
0.0,6.0,2.0,1.0,7.0,5.0,682.2485370012146,3.0,1.0,part_3,go,0.0,0.0,0.0,34.0,1.0,68.0,170.0,136.0,204.0,34.0,102.0,gray,hexagon
0.0,8.0,4.0,1.0,7.0,4.0,671.1949299988191,4.0,1.0,part_3,go,0.0,0.0,0.0,39.0,1.0,195.0,156.0,234.0,39.0,117.0,78.0,green,circle
0.0,5.0,1.0,1.0,7.0,2.0,829.8011980004958,4.0,1.0,part_3,go,0.0,0.0,0.0,294.0,6.0,49.0,294.0,98.0,196.0,147.0,245.0,cyan,triangle
0.0,8.0,4.0,1.0,7.0,1.0,769.6891550003784,4.0,1.0,part_3,go,0.0,0.0,0.0,49.0,1.0,49.0,294.0,98.0,245.0,147.0,196.0,green,circle
0.0,4.0,4.0,0.0,7.0,4.0,883.2284309992247,4.0,1.0,part_3,go,0.0,0.0,0.0,108.0,2.0,162.0,216.0,54.0,108.0,270.0,324.0,yellow,cross
0.0,6.0,2.0,1.0,7.0,5.0,1271.2883359999978,4.0,1.0,part_3,go,0.0,0.0,0.0,156.0,4.0,117.0,39.0,234.0,78.0,156.0,195.0,gray,hexagon
0.0,4.0,4.0,0.0,7.0,1.0,838.6915080009203,4.0,1.0,part_3,go,0.0,0.0,0.0,102.0,3.0,102.0,136.0,34.0,204.0,170.0,68.0,yellow,cross
0.0,2.0,2.0,0.0,7.0,2.0,891.99790100065,4.0,1.0,part_3,go,0.0,0.0,0.0,162.0,3.0,216.0,162.0,324.0,270.0,54.0,108.0,magenta,flipped triangle
0.0,8.0,4.0,1.0,7.0,3.0,1533.2343840000249,4.0,1.0,part_3,go,0.0,0.0,0.0,264.0,6.0,220.0,88.0,264.0,176.0,132.0,44.0,green,circle
0.0,3.0,3.0,0.0,7.0,5.0,938.6331599998812,4.0,1.0,part_3,go,0.0,0.0,0.0,294.0,6.0,196.0,147.0,49.0,98.0,294.0,245.0,blue,diamond
0.0,4.0,4.0,0.0,7.0,2.0,932.1252440004172,4.0,1.0,part_3,go,0.0,0.0,0.0,216.0,4.0,324.0,216.0,162.0,108.0,54.0,270.0,yellow,cross
0.0,2.0,2.0,0.0,7.0,5.0,823.2762290008395,4.0,1.0,part_3,go,0.0,0.0,0.0,88.0,2.0,176.0,264.0,220.0,132.0,88.0,44.0,magenta,flipped triangle
0.0,6.0,2.0,1.0,7.0,5.0,1145.984959000998,4.0,1.0,part_3,go,0.0,0.0,0.0,220.0,5.0,132.0,176.0,264.0,88.0,220.0,44.0,gray,hexagon
0.0,7.0,3.0,1.0,7.0,2.0,915.7821869994224,4.0,1.0,part_3,go,0.0,0.0,0.0,220.0,5.0,44.0,220.0,88.0,176.0,132.0,264.0,orange,square
0.0,2.0,2.0,0.0,7.0,6.0,1013.9968660005252,4.0,1.0,part_3,go,0.0,0.0,0.0,39.0,1.0,195.0,234.0,156.0,78.0,117.0,39.0,magenta,flipped triangle
0.0,6.0,2.0,1.0,7.0,2.0,1257.2575179983687,4.0,1.0,part_3,go,0.0,0.0,0.0,270.0,5.0,216.0,270.0,54.0,108.0,162.0,324.0,gray,hexagon
0.0,1.0,1.0,0.0,7.0,5.0,1116.0082040005364,4.0,1.0,part_3,go,0.0,0.0,0.0,34.0,1.0,102.0,136.0,170.0,68.0,34.0,204.0,white,I
0.0,7.0,3.0,1.0,7.0,3.0,779.3762710007286,4.0,1.0,part_3,go,0.0,0.0,0.0,54.0,1.0,162.0,270.0,54.0,324.0,108.0,216.0,orange,square
0.0,4.0,4.0,0.0,7.0,2.0,1268.8292559996626,4.0,1.0,part_3,go,0.0,0.0,0.0,44.0,1.0,132.0,44.0,176.0,264.0,220.0,88.0,yellow,cross
0.0,5.0,1.0,1.0,7.0,1.0,1048.9196039998203,4.0,1.0,part_3,go,0.0,0.0,0.0,44.0,1.0,44.0,88.0,176.0,220.0,132.0,264.0,cyan,triangle
0.0,5.0,1.0,1.0,7.0,6.0,748.8248949994158,4.0,1.0,part_3,go,0.0,0.0,0.0,39.0,1.0,156.0,117.0,78.0,195.0,234.0,39.0,cyan,triangle
