raw_reward_magnitude,stim_reward,stepwise_reward_magnitude,paired_with_stopping,stim_location,response,reaction_time,block,num_trial_presentations,which_phase,stop_signal_trial_type,left_SSD,right_SSD,accuracy,chosen_bidding_amount,chosen_bidding_level,possible_bid_1,possible_bid_2,possible_bid_3,possible_bid_4,possible_bid_5,possible_bid_6,color_text,shape_text
377.0,8.0,4.0,1.0,4.0,4.0,340.7125510002515,1.0,1.0,phase_1,,,,,,,,,,,,,magenta,I
66.0,5.0,1.0,1.0,4.0,4.0,353.0974360000982,1.0,1.0,phase_1,,,,,,,,,,,,,cyan,cross
416.0,4.0,4.0,0.0,3.0,3.0,371.7988759999571,1.0,1.0,phase_1,,,,,,,,,,,,,white,square
119.0,6.0,2.0,1.0,1.0,1.0,283.3667089998926,1.0,1.0,phase_1,,,,,,,,,,,,,yellow,hexagon
201.0,3.0,3.0,0.0,4.0,4.0,303.1476649994147,1.0,1.0,phase_1,,,,,,,,,,,,,blue,flipped triangle
81.0,6.0,2.0,1.0,3.0,3.0,264.3585040004836,1.0,1.0,phase_1,,,,,,,,,,,,,yellow,hexagon
0.0,7.0,0.0,1.0,2.0,2.0,311.5188849988044,1.0,1.0,phase_1,,,,,,,,,,,,,orange,circle
0.0,3.0,0.0,0.0,4.0,4.0,280.4670639998221,1.0,1.0,phase_1,,,,,,,,,,,,,blue,flipped triangle
0.0,7.0,0.0,1.0,2.0,2.0,248.7361850016896,1.0,1.0,phase_1,,,,,,,,,,,,,orange,circle
407.0,8.0,4.0,1.0,2.0,2.0,242.8189549991657,1.0,1.0,phase_1,,,,,,,,,,,,,magenta,I
122.0,6.0,2.0,1.0,2.0,2.0,254.4676849993266,1.0,1.0,phase_1,,,,,,,,,,,,,yellow,hexagon
71.0,1.0,1.0,0.0,3.0,3.0,318.6569829995278,1.0,1.0,phase_1,,,,,,,,,,,,,gray,triangle
95.0,2.0,2.0,0.0,3.0,3.0,286.1759370007348,1.0,1.0,phase_1,,,,,,,,,,,,,green,diamond
106.0,2.0,2.0,0.0,3.0,3.0,281.5970449992164,1.0,1.0,phase_1,,,,,,,,,,,,,green,diamond
67.0,5.0,1.0,1.0,2.0,2.0,260.7167639998806,1.0,1.0,phase_1,,,,,,,,,,,,,cyan,cross
0.0,7.0,0.0,1.0,3.0,3.0,306.9942459987942,1.0,1.0,phase_1,,,,,,,,,,,,,orange,circle
0.0,8.0,0.0,1.0,2.0,2.0,260.4232279991265,1.0,1.0,phase_1,,,,,,,,,,,,,magenta,I
0.0,6.0,0.0,1.0,1.0,1.0,241.2898969996604,1.0,1.0,phase_1,,,,,,,,,,,,,yellow,hexagon
196.0,3.0,3.0,0.0,2.0,2.0,264.8683949992119,1.0,1.0,phase_1,,,,,,,,,,,,,blue,flipped triangle
211.0,3.0,3.0,0.0,1.0,1.0,289.0995960005966,1.0,1.0,phase_1,,,,,,,,,,,,,blue,flipped triangle
401.0,4.0,4.0,0.0,2.0,2.0,274.9411369986774,1.0,1.0,phase_1,,,,,,,,,,,,,white,square
377.0,8.0,4.0,1.0,1.0,1.0,291.5344369994272,1.0,1.0,phase_1,,,,,,,,,,,,,magenta,I
219.0,3.0,3.0,0.0,2.0,2.0,253.8213830011955,1.0,1.0,phase_1,,,,,,,,,,,,,blue,flipped triangle
42.0,1.0,1.0,0.0,3.0,3.0,290.1716800006397,1.0,1.0,phase_1,,,,,,,,,,,,,gray,triangle
73.0,1.0,1.0,0.0,4.0,4.0,296.2166729994351,1.0,1.0,phase_1,,,,,,,,,,,,,gray,triangle
422.0,8.0,4.0,1.0,1.0,1.0,208.9192350013036,1.0,1.0,phase_1,,,,,,,,,,,,,magenta,I
114.0,6.0,2.0,1.0,4.0,4.0,247.3268030007602,1.0,1.0,phase_1,,,,,,,,,,,,,yellow,hexagon
0.0,8.0,0.0,1.0,4.0,4.0,250.09010100075102,1.0,1.0,phase_1,,,,,,,,,,,,,magenta,I
95.0,6.0,2.0,1.0,1.0,1.0,269.6463669999502,1.0,1.0,phase_1,,,,,,,,,,,,,yellow,hexagon
0.0,4.0,0.0,0.0,3.0,3.0,274.2178099997545,1.0,1.0,phase_1,,,,,,,,,,,,,white,square
190.0,3.0,3.0,0.0,3.0,3.0,289.6253979997709,1.0,1.0,phase_1,,,,,,,,,,,,,blue,flipped triangle
0.0,5.0,0.0,1.0,4.0,4.0,317.2710649996588,1.0,2.0,phase_1,,,,,,,,,,,,,cyan,cross
184.0,3.0,3.0,0.0,3.0,3.0,311.162335001427,1.0,1.0,phase_1,,,,,,,,,,,,,blue,flipped triangle
212.0,3.0,3.0,0.0,1.0,1.0,265.3069380012312,1.0,1.0,phase_1,,,,,,,,,,,,,blue,flipped triangle
0.0,4.0,0.0,0.0,1.0,1.0,277.0755469991854,1.0,1.0,phase_1,,,,,,,,,,,,,white,square
69.0,5.0,1.0,1.0,2.0,2.0,307.8941339990706,1.0,1.0,phase_1,,,,,,,,,,,,,cyan,cross
408.0,4.0,4.0,0.0,4.0,4.0,238.5939550003968,1.0,1.0,phase_1,,,,,,,,,,,,,white,square
219.0,7.0,3.0,1.0,3.0,3.0,303.3743989999493,1.0,1.0,phase_1,,,,,,,,,,,,,orange,circle
0.0,6.0,0.0,1.0,3.0,3.0,313.9220850007405,1.0,1.0,phase_1,,,,,,,,,,,,,yellow,hexagon
0.0,1.0,0.0,0.0,3.0,3.0,274.9343790001148,1.0,1.0,phase_1,,,,,,,,,,,,,gray,triangle
0.0,1.0,0.0,0.0,4.0,4.0,323.5230699992826,1.0,1.0,phase_1,,,,,,,,,,,,,gray,triangle
382.0,4.0,4.0,0.0,4.0,4.0,282.0367709991842,1.0,1.0,phase_1,,,,,,,,,,,,,white,square
88.0,6.0,2.0,1.0,1.0,1.0,269.4841809989157,1.0,1.0,phase_1,,,,,,,,,,,,,yellow,hexagon
186.0,7.0,3.0,1.0,3.0,3.0,271.7880960008187,1.0,1.0,phase_1,,,,,,,,,,,,,orange,circle
93.0,2.0,2.0,0.0,4.0,4.0,248.7742039993463,1.0,1.0,phase_1,,,,,,,,,,,,,green,diamond
115.0,2.0,2.0,0.0,4.0,4.0,287.1267220016307,1.0,1.0,phase_1,,,,,,,,,,,,,green,diamond
73.0,1.0,1.0,0.0,1.0,1.0,245.6946290003543,1.0,1.0,phase_1,,,,,,,,,,,,,gray,triangle
182.0,3.0,3.0,0.0,2.0,2.0,262.0931689998542,1.0,1.0,phase_1,,,,,,,,,,,,,blue,flipped triangle
26.0,5.0,1.0,1.0,3.0,3.0,240.0266349995945,1.0,1.0,phase_1,,,,,,,,,,,,,cyan,cross
77.0,2.0,2.0,0.0,4.0,4.0,244.0127999998367,1.0,1.0,phase_1,,,,,,,,,,,,,green,diamond
52.0,5.0,1.0,1.0,4.0,4.0,307.7687619988865,1.0,1.0,phase_1,,,,,,,,,,,,,cyan,cross
94.0,2.0,2.0,0.0,4.0,4.0,279.5259310005349,1.0,1.0,phase_1,,,,,,,,,,,,,green,diamond
397.0,4.0,4.0,0.0,4.0,4.0,296.6669500001444,1.0,1.0,phase_1,,,,,,,,,,,,,white,square
396.0,8.0,4.0,1.0,1.0,1.0,283.0871440000919,1.0,1.0,phase_1,,,,,,,,,,,,,magenta,I
419.0,4.0,4.0,0.0,2.0,2.0,261.1767750004219,1.0,1.0,phase_1,,,,,,,,,,,,,white,square
196.0,7.0,3.0,1.0,3.0,3.0,347.7456700002221,1.0,1.0,phase_1,,,,,,,,,,,,,orange,circle
404.0,4.0,4.0,0.0,3.0,3.0,307.6164800004335,1.0,1.0,phase_1,,,,,,,,,,,,,white,square
391.0,8.0,4.0,1.0,1.0,1.0,222.0952580009907,1.0,1.0,phase_1,,,,,,,,,,,,,magenta,I
80.0,6.0,2.0,1.0,2.0,2.0,240.0194259989803,1.0,1.0,phase_1,,,,,,,,,,,,,yellow,hexagon
407.0,4.0,4.0,0.0,1.0,1.0,261.834725000881,1.0,1.0,phase_1,,,,,,,,,,,,,white,square
110.0,6.0,2.0,1.0,3.0,3.0,258.1132729992532,1.0,1.0,phase_1,,,,,,,,,,,,,yellow,hexagon
114.0,2.0,2.0,0.0,3.0,3.0,276.6760999984399,1.0,1.0,phase_1,,,,,,,,,,,,,green,diamond
214.0,7.0,3.0,1.0,3.0,3.0,283.3345429990004,1.0,1.0,phase_1,,,,,,,,,,,,,orange,circle
74.0,5.0,1.0,1.0,4.0,4.0,291.0706359998585,1.0,1.0,phase_1,,,,,,,,,,,,,cyan,cross
32.0,5.0,1.0,1.0,1.0,1.0,218.2428229989454,1.0,1.0,phase_1,,,,,,,,,,,,,cyan,cross
65.0,5.0,1.0,1.0,2.0,2.0,243.6028680003801,1.0,1.0,phase_1,,,,,,,,,,,,,cyan,cross
0.0,7.0,0.0,1.0,3.0,3.0,395.7915110004251,1.0,1.0,phase_1,,,,,,,,,,,,,orange,circle
418.0,8.0,4.0,1.0,3.0,3.0,289.3077659991832,1.0,1.0,phase_1,,,,,,,,,,,,,magenta,I
208.0,7.0,3.0,1.0,1.0,1.0,232.8418230008537,1.0,1.0,phase_1,,,,,,,,,,,,,orange,circle
43.0,1.0,1.0,0.0,2.0,2.0,291.0614590000477,1.0,1.0,phase_1,,,,,,,,,,,,,gray,triangle
108.0,2.0,2.0,0.0,3.0,3.0,296.4552299999923,1.0,1.0,phase_1,,,,,,,,,,,,,green,diamond
88.0,2.0,2.0,0.0,4.0,4.0,264.4022950007638,1.0,1.0,phase_1,,,,,,,,,,,,,green,diamond
66.0,1.0,1.0,0.0,1.0,1.0,278.5502099995938,1.0,1.0,phase_1,,,,,,,,,,,,,gray,triangle
45.0,1.0,1.0,0.0,2.0,2.0,269.2368860007263,1.0,1.0,phase_1,,,,,,,,,,,,,gray,triangle
45.0,1.0,1.0,0.0,4.0,4.0,228.1586429999151,1.0,1.0,phase_1,,,,,,,,,,,,,gray,triangle
39.0,5.0,1.0,1.0,2.0,2.0,208.6157949997868,1.0,1.0,phase_1,,,,,,,,,,,,,cyan,cross
36.0,1.0,1.0,0.0,4.0,4.0,236.7679140006657,1.0,1.0,phase_1,,,,,,,,,,,,,gray,triangle
408.0,8.0,4.0,1.0,2.0,2.0,202.6970389997586,1.0,1.0,phase_1,,,,,,,,,,,,,magenta,I
52.0,1.0,1.0,0.0,3.0,3.0,335.4678730011073,1.0,1.0,phase_1,,,,,,,,,,,,,gray,triangle
179.0,7.0,3.0,1.0,2.0,2.0,267.7022410007339,1.0,1.0,phase_1,,,,,,,,,,,,,orange,circle
223.0,7.0,3.0,1.0,3.0,3.0,303.2334170002286,1.0,1.0,phase_1,,,,,,,,,,,,,orange,circle
77.0,6.0,2.0,1.0,2.0,2.0,218.1272189991432,1.0,1.0,phase_1,,,,,,,,,,,,,yellow,hexagon
63.0,5.0,1.0,1.0,3.0,3.0,289.6868379993975,1.0,2.0,phase_1,,,,,,,,,,,,,cyan,cross
379.0,8.0,4.0,1.0,1.0,1.0,279.1162920002534,1.0,1.0,phase_1,,,,,,,,,,,,,magenta,I
223.0,3.0,3.0,0.0,3.0,3.0,283.1344730002456,1.0,1.0,phase_1,,,,,,,,,,,,,blue,flipped triangle
0.0,6.0,0.0,1.0,3.0,3.0,296.2295319994155,1.0,1.0,phase_1,,,,,,,,,,,,,yellow,hexagon
42.0,5.0,1.0,1.0,3.0,3.0,279.6028899992961,1.0,1.0,phase_1,,,,,,,,,,,,,cyan,cross
82.0,2.0,2.0,0.0,4.0,4.0,264.6967109994875,1.0,1.0,phase_1,,,,,,,,,,,,,green,diamond
410.0,4.0,4.0,0.0,3.0,3.0,304.6715330001461,1.0,1.0,phase_1,,,,,,,,,,,,,white,square
94.0,2.0,2.0,0.0,2.0,2.0,247.5147010009095,1.0,1.0,phase_1,,,,,,,,,,,,,green,diamond
31.0,5.0,1.0,1.0,2.0,2.0,272.4526139991212,1.0,1.0,phase_1,,,,,,,,,,,,,cyan,cross
0.0,7.0,0.0,1.0,1.0,1.0,256.2186520008254,1.0,1.0,phase_1,,,,,,,,,,,,,orange,circle
401.0,8.0,4.0,1.0,3.0,3.0,259.3143400008557,1.0,1.0,phase_1,,,,,,,,,,,,,magenta,I
36.0,1.0,1.0,0.0,4.0,4.0,284.3879560005007,1.0,1.0,phase_1,,,,,,,,,,,,,gray,triangle
178.0,7.0,3.0,1.0,1.0,1.0,218.3930420014803,1.0,1.0,phase_1,,,,,,,,,,,,,orange,circle
0.0,8.0,0.0,1.0,4.0,4.0,276.5807940013474,1.0,1.0,phase_1,,,,,,,,,,,,,magenta,I
38.0,5.0,1.0,1.0,1.0,1.0,245.5645320005715,1.0,1.0,phase_1,,,,,,,,,,,,,cyan,cross
30.0,5.0,1.0,1.0,2.0,2.0,229.4991529997787,1.0,1.0,phase_1,,,,,,,,,,,,,cyan,cross
45.0,5.0,1.0,1.0,3.0,3.0,243.16858900056098,1.0,1.0,phase_1,,,,,,,,,,,,,cyan,cross
0.0,1.0,0.0,0.0,3.0,3.0,298.9239859998633,1.0,1.0,phase_1,,,,,,,,,,,,,gray,triangle
0.0,6.0,0.0,1.0,2.0,2.0,262.0850160001282,2.0,1.0,phase_1,,,,,,,,,,,,,yellow,hexagon
39.0,1.0,1.0,0.0,2.0,2.0,313.4308839998994,2.0,1.0,phase_1,,,,,,,,,,,,,gray,triangle
0.0,5.0,0.0,1.0,4.0,4.0,295.5016920004709,2.0,1.0,phase_1,,,,,,,,,,,,,cyan,cross
80.0,2.0,2.0,0.0,3.0,3.0,283.1839209993632,2.0,1.0,phase_1,,,,,,,,,,,,,green,diamond
44.0,5.0,1.0,1.0,2.0,2.0,255.22350999926852,2.0,1.0,phase_1,,,,,,,,,,,,,cyan,cross
63.0,5.0,1.0,1.0,1.0,1.0,256.8044629988435,2.0,1.0,phase_1,,,,,,,,,,,,,cyan,cross
225.0,7.0,3.0,1.0,2.0,2.0,254.41433199921448,2.0,1.0,phase_1,,,,,,,,,,,,,orange,circle
48.0,5.0,1.0,1.0,1.0,1.0,322.2587109994492,2.0,1.0,phase_1,,,,,,,,,,,,,cyan,cross
53.0,5.0,1.0,1.0,1.0,1.0,300.2082010007143,2.0,1.0,phase_1,,,,,,,,,,,,,cyan,cross
391.0,4.0,4.0,0.0,4.0,4.0,267.036563000147,2.0,1.0,phase_1,,,,,,,,,,,,,white,square
392.0,8.0,4.0,1.0,1.0,1.0,220.09169300145,2.0,1.0,phase_1,,,,,,,,,,,,,magenta,I
102.0,2.0,2.0,0.0,2.0,2.0,193.2024689995159,2.0,1.0,phase_1,,,,,,,,,,,,,green,diamond
0.0,2.0,0.0,0.0,3.0,3.0,205.9477669990883,2.0,1.0,phase_1,,,,,,,,,,,,,green,diamond
179.0,3.0,3.0,0.0,1.0,1.0,230.8879639986116,2.0,1.0,phase_1,,,,,,,,,,,,,blue,flipped triangle
121.0,6.0,2.0,1.0,4.0,4.0,266.6496190013276,2.0,1.0,phase_1,,,,,,,,,,,,,yellow,hexagon
200.0,3.0,3.0,0.0,4.0,4.0,270.5685380005889,2.0,1.0,phase_1,,,,,,,,,,,,,blue,flipped triangle
215.0,3.0,3.0,0.0,1.0,1.0,236.0473799999454,2.0,1.0,phase_1,,,,,,,,,,,,,blue,flipped triangle
0.0,7.0,0.0,1.0,2.0,2.0,225.3347980004036,2.0,1.0,phase_1,,,,,,,,,,,,,orange,circle
410.0,8.0,4.0,1.0,1.0,1.0,209.0541360012139,2.0,1.0,phase_1,,,,,,,,,,,,,magenta,I
0.0,4.0,0.0,0.0,2.0,2.0,263.5403880012745,2.0,1.0,phase_1,,,,,,,,,,,,,white,square
106.0,2.0,2.0,0.0,1.0,1.0,246.0476280011789,2.0,2.0,phase_1,,,,,,,,,,,,,green,diamond
396.0,4.0,4.0,0.0,4.0,4.0,264.63657199929,2.0,1.0,phase_1,,,,,,,,,,,,,white,square
0.0,1.0,0.0,0.0,4.0,4.0,344.6040550006728,2.0,1.0,phase_1,,,,,,,,,,,,,gray,triangle
387.0,8.0,4.0,1.0,3.0,3.0,302.985639000326,2.0,1.0,phase_1,,,,,,,,,,,,,magenta,I
36.0,5.0,1.0,1.0,4.0,4.0,324.2271740000433,2.0,1.0,phase_1,,,,,,,,,,,,,cyan,cross
43.0,1.0,1.0,0.0,1.0,1.0,268.2396749987674,2.0,1.0,phase_1,,,,,,,,,,,,,gray,triangle
425.0,4.0,4.0,0.0,1.0,1.0,224.8246950002794,2.0,1.0,phase_1,,,,,,,,,,,,,white,square
55.0,1.0,1.0,0.0,1.0,1.0,253.53947900111962,2.0,1.0,phase_1,,,,,,,,,,,,,gray,triangle
30.0,1.0,1.0,0.0,2.0,2.0,260.0882059996365,2.0,1.0,phase_1,,,,,,,,,,,,,gray,triangle
0.0,5.0,0.0,1.0,3.0,3.0,282.4472190004599,2.0,1.0,phase_1,,,,,,,,,,,,,cyan,cross
196.0,7.0,3.0,1.0,1.0,1.0,228.5920360009186,2.0,1.0,phase_1,,,,,,,,,,,,,orange,circle
197.0,7.0,3.0,1.0,4.0,4.0,248.211894000633,2.0,1.0,phase_1,,,,,,,,,,,,,orange,circle
30.0,5.0,1.0,1.0,3.0,3.0,335.4531439999846,2.0,1.0,phase_1,,,,,,,,,,,,,cyan,cross
106.0,6.0,2.0,1.0,4.0,4.0,281.4495660004468,2.0,1.0,phase_1,,,,,,,,,,,,,yellow,hexagon
205.0,7.0,3.0,1.0,3.0,3.0,305.1902589995734,2.0,1.0,phase_1,,,,,,,,,,,,,orange,circle
0.0,5.0,0.0,1.0,2.0,2.0,293.8357960010762,2.0,1.0,phase_1,,,,,,,,,,,,,cyan,cross
100.0,2.0,2.0,0.0,4.0,4.0,295.883517999755,2.0,1.0,phase_1,,,,,,,,,,,,,green,diamond
108.0,2.0,2.0,0.0,2.0,2.0,242.4448530000518,2.0,2.0,phase_1,,,,,,,,,,,,,green,diamond
119.0,2.0,2.0,0.0,3.0,3.0,303.8552509988221,2.0,1.0,phase_1,,,,,,,,,,,,,green,diamond
95.0,6.0,2.0,1.0,3.0,3.0,346.9048000006296,2.0,1.0,phase_1,,,,,,,,,,,,,yellow,hexagon
0.0,7.0,0.0,1.0,3.0,3.0,287.5287520000711,2.0,1.0,phase_1,,,,,,,,,,,,,orange,circle
106.0,6.0,2.0,1.0,1.0,1.0,239.35575499854158,2.0,1.0,phase_1,,,,,,,,,,,,,yellow,hexagon
100.0,6.0,2.0,1.0,4.0,4.0,295.4913209996448,2.0,1.0,phase_1,,,,,,,,,,,,,yellow,hexagon
200.0,7.0,3.0,1.0,1.0,1.0,274.2645399994217,2.0,1.0,phase_1,,,,,,,,,,,,,orange,circle
0.0,2.0,0.0,0.0,2.0,2.0,236.8672699994931,2.0,1.0,phase_1,,,,,,,,,,,,,green,diamond
184.0,7.0,3.0,1.0,1.0,1.0,290.535052999985,2.0,1.0,phase_1,,,,,,,,,,,,,orange,circle
0.0,1.0,0.0,0.0,1.0,1.0,255.02399099968898,2.0,1.0,phase_1,,,,,,,,,,,,,gray,triangle
216.0,7.0,3.0,1.0,4.0,4.0,305.673138000202,2.0,1.0,phase_1,,,,,,,,,,,,,orange,circle
396.0,4.0,4.0,0.0,1.0,1.0,274.00102699903067,2.0,1.0,phase_1,,,,,,,,,,,,,white,square
54.0,1.0,1.0,0.0,1.0,1.0,266.4791759998479,2.0,1.0,phase_1,,,,,,,,,,,,,gray,triangle
389.0,8.0,4.0,1.0,2.0,2.0,276.6795780007669,2.0,1.0,phase_1,,,,,,,,,,,,,magenta,I
0.0,2.0,0.0,0.0,3.0,3.0,311.100973000066,2.0,1.0,phase_1,,,,,,,,,,,,,green,diamond
419.0,4.0,4.0,0.0,1.0,1.0,245.5023370002891,2.0,1.0,phase_1,,,,,,,,,,,,,white,square
379.0,8.0,4.0,1.0,1.0,1.0,249.8128470015217,2.0,1.0,phase_1,,,,,,,,,,,,,magenta,I
184.0,3.0,3.0,0.0,4.0,4.0,310.3040459991462,2.0,1.0,phase_1,,,,,,,,,,,,,blue,flipped triangle
65.0,1.0,1.0,0.0,4.0,4.0,307.2404640006425,2.0,1.0,phase_1,,,,,,,,,,,,,gray,triangle
397.0,8.0,4.0,1.0,3.0,3.0,317.2550199997204,2.0,1.0,phase_1,,,,,,,,,,,,,magenta,I
0.0,1.0,0.0,0.0,3.0,3.0,301.4399420007976,2.0,1.0,phase_1,,,,,,,,,,,,,gray,triangle
38.0,1.0,1.0,0.0,4.0,4.0,261.3444499984325,2.0,1.0,phase_1,,,,,,,,,,,,,gray,triangle
210.0,3.0,3.0,0.0,1.0,1.0,212.9031879994727,2.0,1.0,phase_1,,,,,,,,,,,,,blue,flipped triangle
379.0,4.0,4.0,0.0,3.0,3.0,275.5569040000409,2.0,1.0,phase_1,,,,,,,,,,,,,white,square
424.0,4.0,4.0,0.0,2.0,2.0,247.0682150014909,2.0,1.0,phase_1,,,,,,,,,,,,,white,square
392.0,8.0,4.0,1.0,4.0,4.0,297.0923220000259,2.0,2.0,phase_1,,,,,,,,,,,,,magenta,I
78.0,6.0,2.0,1.0,4.0,4.0,296.7772089996288,2.0,1.0,phase_1,,,,,,,,,,,,,yellow,hexagon
45.0,5.0,1.0,1.0,1.0,1.0,264.3495350002922,2.0,1.0,phase_1,,,,,,,,,,,,,cyan,cross
389.0,4.0,4.0,0.0,1.0,1.0,264.3107759995473,2.0,1.0,phase_1,,,,,,,,,,,,,white,square
73.0,5.0,1.0,1.0,4.0,4.0,286.6971980001835,2.0,1.0,phase_1,,,,,,,,,,,,,cyan,cross
214.0,3.0,3.0,0.0,4.0,4.0,317.9080129993963,2.0,1.0,phase_1,,,,,,,,,,,,,blue,flipped triangle
377.0,4.0,4.0,0.0,4.0,4.0,323.6513329993613,2.0,1.0,phase_1,,,,,,,,,,,,,white,square
45.0,5.0,1.0,1.0,3.0,3.0,343.2139449996612,2.0,1.0,phase_1,,,,,,,,,,,,,cyan,cross
205.0,3.0,3.0,0.0,4.0,4.0,259.5705120002094,2.0,2.0,phase_1,,,,,,,,,,,,,blue,flipped triangle
0.0,6.0,0.0,1.0,1.0,1.0,276.2927379990287,2.0,1.0,phase_1,,,,,,,,,,,,,yellow,hexagon
100.0,6.0,2.0,1.0,2.0,2.0,271.8403759990906,2.0,1.0,phase_1,,,,,,,,,,,,,yellow,hexagon
0.0,4.0,0.0,0.0,3.0,3.0,325.9224760004144,2.0,1.0,phase_1,,,,,,,,,,,,,white,square
56.0,1.0,1.0,0.0,3.0,3.0,302.6496059992496,2.0,1.0,phase_1,,,,,,,,,,,,,gray,triangle
110.0,2.0,2.0,0.0,1.0,1.0,274.5855409993964,2.0,1.0,phase_1,,,,,,,,,,,,,green,diamond
47.0,5.0,1.0,1.0,1.0,1.0,374.8268290000851,2.0,1.0,phase_1,,,,,,,,,,,,,cyan,cross
196.0,3.0,3.0,0.0,3.0,3.0,294.8650119997182,2.0,1.0,phase_1,,,,,,,,,,,,,blue,flipped triangle
187.0,7.0,3.0,1.0,2.0,2.0,367.5958469993929,2.0,1.0,phase_1,,,,,,,,,,,,,orange,circle
46.0,1.0,1.0,0.0,3.0,3.0,325.7086049998179,2.0,1.0,phase_1,,,,,,,,,,,,,gray,triangle
189.0,7.0,3.0,1.0,4.0,4.0,350.7371409996267,2.0,1.0,phase_1,,,,,,,,,,,,,orange,circle
210.0,7.0,3.0,1.0,2.0,2.0,294.9999350003054,2.0,1.0,phase_1,,,,,,,,,,,,,orange,circle
125.0,2.0,2.0,0.0,2.0,2.0,310.2275620003638,2.0,1.0,phase_1,,,,,,,,,,,,,green,diamond
404.0,8.0,4.0,1.0,1.0,1.0,279.8686780006392,2.0,1.0,phase_1,,,,,,,,,,,,,magenta,I
205.0,7.0,3.0,1.0,4.0,4.0,336.4599390006333,2.0,1.0,phase_1,,,,,,,,,,,,,orange,circle
186.0,3.0,3.0,0.0,3.0,3.0,396.2744190012017,2.0,1.0,phase_1,,,,,,,,,,,,,blue,flipped triangle
67.0,1.0,1.0,0.0,2.0,2.0,375.7696639986534,2.0,1.0,phase_1,,,,,,,,,,,,,gray,triangle
0.0,3.0,0.0,0.0,4.0,4.0,309.0073910007049,2.0,1.0,phase_1,,,,,,,,,,,,,blue,flipped triangle
86.0,2.0,2.0,0.0,4.0,4.0,356.7402480002783,2.0,1.0,phase_1,,,,,,,,,,,,,green,diamond
45.0,1.0,1.0,0.0,3.0,3.0,324.5510300002934,2.0,1.0,phase_1,,,,,,,,,,,,,gray,triangle
0.0,4.0,0.0,0.0,4.0,4.0,280.2891659994202,2.0,1.0,phase_1,,,,,,,,,,,,,white,square
122.0,2.0,2.0,0.0,4.0,4.0,294.3338149998453,2.0,1.0,phase_1,,,,,,,,,,,,,green,diamond
396.0,8.0,4.0,1.0,4.0,4.0,313.2505410012527,2.0,1.0,phase_1,,,,,,,,,,,,,magenta,I
191.0,7.0,3.0,1.0,3.0,3.0,316.7847159984376,2.0,1.0,phase_1,,,,,,,,,,,,,orange,circle
0.0,4.0,0.0,0.0,3.0,3.0,295.1069380014814,2.0,1.0,phase_1,,,,,,,,,,,,,white,square
95.0,6.0,2.0,1.0,3.0,3.0,297.3248899997998,2.0,1.0,phase_1,,,,,,,,,,,,,yellow,hexagon
0.0,5.0,0.0,1.0,3.0,3.0,313.854480998998,2.0,1.0,phase_1,,,,,,,,,,,,,cyan,cross
179.0,3.0,3.0,0.0,4.0,4.0,284.2135049995704,2.0,1.0,phase_1,,,,,,,,,,,,,blue,flipped triangle
0.0,7.0,0.0,1.0,4.0,4.0,257.2665600000619,2.0,1.0,phase_1,,,,,,,,,,,,,orange,circle
415.0,8.0,4.0,1.0,2.0,2.0,239.8679549987719,2.0,1.0,phase_1,,,,,,,,,,,,,magenta,I
53.0,1.0,1.0,0.0,3.0,3.0,403.6381280002388,3.0,1.0,phase_1,,,,,,,,,,,,,gray,triangle
183.0,7.0,3.0,1.0,4.0,4.0,322.984106000149,3.0,1.0,phase_1,,,,,,,,,,,,,orange,circle
0.0,1.0,0.0,0.0,4.0,4.0,326.7117550003604,3.0,1.0,phase_1,,,,,,,,,,,,,gray,triangle
0.0,8.0,0.0,1.0,2.0,2.0,275.2958830005809,3.0,1.0,phase_1,,,,,,,,,,,,,magenta,I
0.0,1.0,0.0,0.0,4.0,4.0,244.8122199984936,3.0,1.0,phase_1,,,,,,,,,,,,,gray,triangle
105.0,6.0,2.0,1.0,2.0,2.0,232.5338370010286,3.0,1.0,phase_1,,,,,,,,,,,,,yellow,hexagon
0.0,1.0,0.0,0.0,3.0,3.0,282.2211589991639,3.0,1.0,phase_1,,,,,,,,,,,,,gray,triangle
0.0,6.0,0.0,1.0,4.0,4.0,251.73884200012247,3.0,1.0,phase_1,,,,,,,,,,,,,yellow,hexagon
0.0,6.0,0.0,1.0,4.0,4.0,267.8937489999953,3.0,1.0,phase_1,,,,,,,,,,,,,yellow,hexagon
392.0,4.0,4.0,0.0,2.0,2.0,248.7872220008284,3.0,1.0,phase_1,,,,,,,,,,,,,white,square
0.0,2.0,0.0,0.0,1.0,1.0,268.3128079988819,3.0,1.0,phase_1,,,,,,,,,,,,,green,diamond
94.0,6.0,2.0,1.0,3.0,3.0,213.96776999972639,3.0,1.0,phase_1,,,,,,,,,,,,,yellow,hexagon
31.0,1.0,1.0,0.0,4.0,4.0,262.4585030007438,3.0,1.0,phase_1,,,,,,,,,,,,,gray,triangle
214.0,7.0,3.0,1.0,4.0,4.0,261.0843109996494,3.0,1.0,phase_1,,,,,,,,,,,,,orange,circle
31.0,5.0,1.0,1.0,3.0,3.0,277.8838590002124,3.0,1.0,phase_1,,,,,,,,,,,,,cyan,cross
392.0,4.0,4.0,0.0,1.0,1.0,254.73146399963298,3.0,1.0,phase_1,,,,,,,,,,,,,white,square
95.0,2.0,2.0,0.0,1.0,1.0,298.0803070004185,3.0,1.0,phase_1,,,,,,,,,,,,,green,diamond
57.0,5.0,1.0,1.0,4.0,4.0,252.6154200004384,3.0,1.0,phase_1,,,,,,,,,,,,,cyan,cross
184.0,7.0,3.0,1.0,2.0,2.0,246.0737100009282,3.0,1.0,phase_1,,,,,,,,,,,,,orange,circle
415.0,4.0,4.0,0.0,2.0,2.0,332.2099470005923,3.0,1.0,phase_1,,,,,,,,,,,,,white,square
115.0,6.0,2.0,1.0,1.0,1.0,256.1540599999716,3.0,1.0,phase_1,,,,,,,,,,,,,yellow,hexagon
422.0,4.0,4.0,0.0,3.0,3.0,254.85717799892882,3.0,1.0,phase_1,,,,,,,,,,,,,white,square
0.0,8.0,0.0,1.0,1.0,1.0,271.8731369986926,3.0,1.0,phase_1,,,,,,,,,,,,,magenta,I
43.0,5.0,1.0,1.0,4.0,4.0,275.5968429992208,3.0,1.0,phase_1,,,,,,,,,,,,,cyan,cross
53.0,5.0,1.0,1.0,4.0,4.0,256.9427680009539,3.0,1.0,phase_1,,,,,,,,,,,,,cyan,cross
54.0,5.0,1.0,1.0,4.0,4.0,256.934793000255,3.0,1.0,phase_1,,,,,,,,,,,,,cyan,cross
0.0,2.0,0.0,0.0,2.0,2.0,245.2959210004337,3.0,1.0,phase_1,,,,,,,,,,,,,green,diamond
121.0,2.0,2.0,0.0,1.0,1.0,205.7100540005194,3.0,1.0,phase_1,,,,,,,,,,,,,green,diamond
0.0,7.0,0.0,1.0,2.0,2.0,251.26236400137708,3.0,1.0,phase_1,,,,,,,,,,,,,orange,circle
100.0,2.0,2.0,0.0,2.0,2.0,259.8953979995713,3.0,1.0,phase_1,,,,,,,,,,,,,green,diamond
95.0,2.0,2.0,0.0,1.0,1.0,242.7575580004486,3.0,1.0,phase_1,,,,,,,,,,,,,green,diamond
0.0,8.0,0.0,1.0,2.0,2.0,236.2358549999044,3.0,1.0,phase_1,,,,,,,,,,,,,magenta,I
31.0,1.0,1.0,0.0,1.0,1.0,295.210173999294,3.0,1.0,phase_1,,,,,,,,,,,,,gray,triangle
79.0,2.0,2.0,0.0,1.0,1.0,324.7605970009317,3.0,1.0,phase_1,,,,,,,,,,,,,green,diamond
222.0,3.0,3.0,0.0,1.0,1.0,286.8341840003268,3.0,1.0,phase_1,,,,,,,,,,,,,blue,flipped triangle
382.0,8.0,4.0,1.0,3.0,3.0,266.383987998779,3.0,1.0,phase_1,,,,,,,,,,,,,magenta,I
412.0,8.0,4.0,1.0,4.0,4.0,266.2446320009621,3.0,1.0,phase_1,,,,,,,,,,,,,magenta,I
189.0,3.0,3.0,0.0,4.0,4.0,285.8081760005007,3.0,2.0,phase_1,,,,,,,,,,,,,blue,flipped triangle
0.0,5.0,0.0,1.0,1.0,1.0,265.02621100007667,3.0,1.0,phase_1,,,,,,,,,,,,,cyan,cross
0.0,8.0,0.0,1.0,1.0,1.0,230.4917339988605,3.0,1.0,phase_1,,,,,,,,,,,,,magenta,I
214.0,3.0,3.0,0.0,2.0,2.0,264.6249459994578,3.0,1.0,phase_1,,,,,,,,,,,,,blue,flipped triangle
188.0,7.0,3.0,1.0,2.0,2.0,269.2271979994984,3.0,1.0,phase_1,,,,,,,,,,,,,orange,circle
63.0,1.0,1.0,0.0,3.0,3.0,279.06945500035357,3.0,1.0,phase_1,,,,,,,,,,,,,gray,triangle
182.0,7.0,3.0,1.0,4.0,4.0,307.4878730003547,3.0,1.0,phase_1,,,,,,,,,,,,,orange,circle
190.0,7.0,3.0,1.0,2.0,2.0,274.7446410012344,3.0,1.0,phase_1,,,,,,,,,,,,,orange,circle
110.0,2.0,2.0,0.0,1.0,1.0,208.9061730002868,3.0,1.0,phase_1,,,,,,,,,,,,,green,diamond
0.0,4.0,0.0,0.0,1.0,1.0,254.03237499995151,3.0,1.0,phase_1,,,,,,,,,,,,,white,square
98.0,2.0,2.0,0.0,3.0,3.0,286.2219430007826,3.0,1.0,phase_1,,,,,,,,,,,,,green,diamond
216.0,3.0,3.0,0.0,1.0,1.0,265.8392720004485,3.0,1.0,phase_1,,,,,,,,,,,,,blue,flipped triangle
201.0,7.0,3.0,1.0,1.0,1.0,253.03709600120777,3.0,1.0,phase_1,,,,,,,,,,,,,orange,circle
416.0,8.0,4.0,1.0,3.0,3.0,301.7575960002432,3.0,1.0,phase_1,,,,,,,,,,,,,magenta,I
401.0,8.0,4.0,1.0,2.0,2.0,256.7816579994542,3.0,1.0,phase_1,,,,,,,,,,,,,magenta,I
61.0,5.0,1.0,1.0,3.0,3.0,300.1311230000283,3.0,1.0,phase_1,,,,,,,,,,,,,cyan,cross
0.0,4.0,0.0,0.0,1.0,1.0,397.7787260009791,3.0,1.0,phase_1,,,,,,,,,,,,,white,square
392.0,8.0,4.0,1.0,4.0,4.0,362.8877850005665,3.0,1.0,phase_1,,,,,,,,,,,,,magenta,I
86.0,6.0,2.0,1.0,1.0,1.0,296.1698990002332,3.0,1.0,phase_1,,,,,,,,,,,,,yellow,hexagon
421.0,8.0,4.0,1.0,4.0,4.0,318.2569190012145,3.0,1.0,phase_1,,,,,,,,,,,,,magenta,I
178.0,3.0,3.0,0.0,2.0,2.0,290.5214939983125,3.0,1.0,phase_1,,,,,,,,,,,,,blue,flipped triangle
0.0,6.0,0.0,1.0,2.0,2.0,253.7928940000711,3.0,1.0,phase_1,,,,,,,,,,,,,yellow,hexagon
48.0,1.0,1.0,0.0,1.0,1.0,249.4932179997704,3.0,1.0,phase_1,,,,,,,,,,,,,gray,triangle
0.0,5.0,0.0,1.0,3.0,3.0,361.329035999006,3.0,1.0,phase_1,,,,,,,,,,,,,cyan,cross
115.0,2.0,2.0,0.0,1.0,1.0,237.1096659990144,3.0,1.0,phase_1,,,,,,,,,,,,,green,diamond
81.0,2.0,2.0,0.0,1.0,1.0,285.7696610008133,3.0,1.0,phase_1,,,,,,,,,,,,,green,diamond
407.0,4.0,4.0,0.0,3.0,3.0,290.8679030006169,3.0,1.0,phase_1,,,,,,,,,,,,,white,square
78.0,2.0,2.0,0.0,1.0,1.0,290.8221630004846,3.0,1.0,phase_1,,,,,,,,,,,,,green,diamond
43.0,5.0,1.0,1.0,1.0,1.0,256.9774399999005,3.0,1.0,phase_1,,,,,,,,,,,,,cyan,cross
193.0,3.0,3.0,0.0,3.0,3.0,310.7003530003567,3.0,1.0,phase_1,,,,,,,,,,,,,blue,flipped triangle
413.0,4.0,4.0,0.0,2.0,2.0,255.1402739991317,3.0,1.0,phase_1,,,,,,,,,,,,,white,square
393.0,8.0,4.0,1.0,2.0,2.0,294.6996330010734,3.0,1.0,phase_1,,,,,,,,,,,,,magenta,I
125.0,6.0,2.0,1.0,4.0,4.0,269.8282450000988,3.0,1.0,phase_1,,,,,,,,,,,,,yellow,hexagon
211.0,3.0,3.0,0.0,2.0,2.0,263.0170780012122,3.0,1.0,phase_1,,,,,,,,,,,,,blue,flipped triangle
98.0,6.0,2.0,1.0,1.0,1.0,256.9694930007244,3.0,1.0,phase_1,,,,,,,,,,,,,yellow,hexagon
0.0,2.0,0.0,0.0,2.0,2.0,323.0834229998436,3.0,1.0,phase_1,,,,,,,,,,,,,green,diamond
30.0,1.0,1.0,0.0,1.0,1.0,247.949922000771,3.0,1.0,phase_1,,,,,,,,,,,,,gray,triangle
393.0,4.0,4.0,0.0,4.0,4.0,296.2567869999475,3.0,1.0,phase_1,,,,,,,,,,,,,white,square
188.0,3.0,3.0,0.0,2.0,2.0,274.9269060004735,3.0,1.0,phase_1,,,,,,,,,,,,,blue,flipped triangle
0.0,8.0,0.0,1.0,3.0,3.0,362.3618199999328,3.0,1.0,phase_1,,,,,,,,,,,,,magenta,I
25.0,5.0,1.0,1.0,4.0,4.0,285.1533459997881,3.0,1.0,phase_1,,,,,,,,,,,,,cyan,cross
190.0,3.0,3.0,0.0,3.0,3.0,302.3507869984314,3.0,1.0,phase_1,,,,,,,,,,,,,blue,flipped triangle
0.0,3.0,0.0,0.0,4.0,4.0,324.6699449991865,3.0,1.0,phase_1,,,,,,,,,,,,,blue,flipped triangle
222.0,7.0,3.0,1.0,4.0,4.0,303.2249930001853,3.0,1.0,phase_1,,,,,,,,,,,,,orange,circle
0.0,3.0,0.0,0.0,2.0,2.0,246.5522509992297,3.0,1.0,phase_1,,,,,,,,,,,,,blue,flipped triangle
377.0,4.0,4.0,0.0,2.0,2.0,287.1894269992481,3.0,1.0,phase_1,,,,,,,,,,,,,white,square
197.0,3.0,3.0,0.0,4.0,4.0,338.3622460005426,3.0,1.0,phase_1,,,,,,,,,,,,,blue,flipped triangle
425.0,8.0,4.0,1.0,4.0,4.0,306.9413440007338,3.0,1.0,phase_1,,,,,,,,,,,,,magenta,I
25.0,1.0,1.0,0.0,2.0,2.0,247.0610329983174,3.0,1.0,phase_1,,,,,,,,,,,,,gray,triangle
191.0,3.0,3.0,0.0,1.0,1.0,256.7266109999764,3.0,2.0,phase_1,,,,,,,,,,,,,blue,flipped triangle
214.0,3.0,3.0,0.0,4.0,4.0,284.7133329996723,3.0,1.0,phase_1,,,,,,,,,,,,,blue,flipped triangle
26.0,1.0,1.0,0.0,3.0,3.0,313.0972850012767,3.0,1.0,phase_1,,,,,,,,,,,,,gray,triangle
36.0,5.0,1.0,1.0,3.0,3.0,320.2309750013228,3.0,1.0,phase_1,,,,,,,,,,,,,cyan,cross
211.0,7.0,3.0,1.0,3.0,3.0,310.0255409990495,3.0,1.0,phase_1,,,,,,,,,,,,,orange,circle
32.0,1.0,1.0,0.0,2.0,2.0,265.4974749984831,3.0,1.0,phase_1,,,,,,,,,,,,,gray,triangle
0.0,7.0,0.0,1.0,1.0,1.0,235.8648429999448,3.0,1.0,phase_1,,,,,,,,,,,,,orange,circle
225.0,3.0,3.0,0.0,3.0,3.0,294.2596490011055,3.0,1.0,phase_1,,,,,,,,,,,,,blue,flipped triangle
205.0,3.0,3.0,0.0,3.0,3.0,291.1374219984282,3.0,1.0,phase_1,,,,,,,,,,,,,blue,flipped triangle
0.0,1.0,0.0,0.0,2.0,2.0,292.0069689989759,3.0,1.0,phase_1,,,,,,,,,,,,,gray,triangle
419.0,8.0,4.0,1.0,3.0,3.0,291.6261829996074,3.0,1.0,phase_1,,,,,,,,,,,,,magenta,I
95.0,6.0,2.0,1.0,4.0,4.0,282.1394359998521,3.0,1.0,phase_1,,,,,,,,,,,,,yellow,hexagon
71.0,5.0,1.0,1.0,2.0,2.0,301.8198479985585,3.0,1.0,phase_1,,,,,,,,,,,,,cyan,cross
412.0,4.0,4.0,0.0,4.0,4.0,436.4331809993018,3.0,1.0,phase_1,,,,,,,,,,,,,white,square
381.0,8.0,4.0,1.0,2.0,2.0,337.3728019996633,4.0,1.0,phase_1,,,,,,,,,,,,,magenta,I
115.0,6.0,2.0,1.0,4.0,4.0,298.327557000448,4.0,1.0,phase_1,,,,,,,,,,,,,yellow,hexagon
223.0,3.0,3.0,0.0,1.0,1.0,276.2637480009289,4.0,1.0,phase_1,,,,,,,,,,,,,blue,flipped triangle
78.0,6.0,2.0,1.0,3.0,3.0,261.4845970001624,4.0,1.0,phase_1,,,,,,,,,,,,,yellow,hexagon
102.0,6.0,2.0,1.0,2.0,2.0,244.7072969989676,4.0,1.0,phase_1,,,,,,,,,,,,,yellow,hexagon
386.0,8.0,4.0,1.0,3.0,3.0,313.2159310007409,4.0,1.0,phase_1,,,,,,,,,,,,,magenta,I
187.0,3.0,3.0,0.0,2.0,2.0,287.035344999822,4.0,1.0,phase_1,,,,,,,,,,,,,blue,flipped triangle
0.0,3.0,0.0,0.0,1.0,1.0,279.566896999313,4.0,1.0,phase_1,,,,,,,,,,,,,blue,flipped triangle
379.0,4.0,4.0,0.0,2.0,2.0,247.0487919999868,4.0,1.0,phase_1,,,,,,,,,,,,,white,square
211.0,7.0,3.0,1.0,1.0,1.0,345.5382579995785,4.0,1.0,phase_1,,,,,,,,,,,,,orange,circle
0.0,2.0,0.0,0.0,1.0,1.0,323.8437700001668,4.0,1.0,phase_1,,,,,,,,,,,,,green,diamond
108.0,6.0,2.0,1.0,2.0,2.0,251.3803250003548,4.0,1.0,phase_1,,,,,,,,,,,,,yellow,hexagon
379.0,4.0,4.0,0.0,3.0,3.0,290.2838239988341,4.0,1.0,phase_1,,,,,,,,,,,,,white,square
0.0,3.0,0.0,0.0,1.0,1.0,279.1958390007494,4.0,1.0,phase_1,,,,,,,,,,,,,blue,flipped triangle
74.0,1.0,1.0,0.0,2.0,2.0,258.1939540013991,4.0,1.0,phase_1,,,,,,,,,,,,,gray,triangle
214.0,7.0,3.0,1.0,1.0,1.0,343.7578229986684,4.0,1.0,phase_1,,,,,,,,,,,,,orange,circle
124.0,2.0,2.0,0.0,3.0,3.0,277.371657999538,4.0,1.0,phase_1,,,,,,,,,,,,,green,diamond
401.0,4.0,4.0,0.0,4.0,4.0,282.5969609984895,4.0,1.0,phase_1,,,,,,,,,,,,,white,square
0.0,5.0,0.0,1.0,2.0,2.0,226.0783629990328,4.0,1.0,phase_1,,,,,,,,,,,,,cyan,cross
413.0,8.0,4.0,1.0,3.0,3.0,283.9010280004004,4.0,1.0,phase_1,,,,,,,,,,,,,magenta,I
0.0,2.0,0.0,0.0,1.0,1.0,217.6227060008386,4.0,1.0,phase_1,,,,,,,,,,,,,green,diamond
400.0,4.0,4.0,0.0,2.0,2.0,208.1094759996631,4.0,1.0,phase_1,,,,,,,,,,,,,white,square
0.0,8.0,0.0,1.0,3.0,3.0,258.3936030005134,4.0,1.0,phase_1,,,,,,,,,,,,,magenta,I
71.0,1.0,1.0,0.0,4.0,4.0,291.2371689999418,4.0,2.0,phase_1,,,,,,,,,,,,,gray,triangle
0.0,2.0,0.0,0.0,3.0,3.0,283.5595790002116,4.0,1.0,phase_1,,,,,,,,,,,,,green,diamond
57.0,1.0,1.0,0.0,2.0,2.0,261.7781850003666,4.0,1.0,phase_1,,,,,,,,,,,,,gray,triangle
0.0,2.0,0.0,0.0,3.0,3.0,255.5223030012712,4.0,1.0,phase_1,,,,,,,,,,,,,green,diamond
53.0,1.0,1.0,0.0,1.0,1.0,307.7819320005801,4.0,1.0,phase_1,,,,,,,,,,,,,gray,triangle
183.0,3.0,3.0,0.0,2.0,2.0,286.6422520000924,4.0,1.0,phase_1,,,,,,,,,,,,,blue,flipped triangle
416.0,8.0,4.0,1.0,2.0,2.0,297.0933259985031,4.0,1.0,phase_1,,,,,,,,,,,,,magenta,I
400.0,8.0,4.0,1.0,3.0,3.0,288.9426400015509,4.0,1.0,phase_1,,,,,,,,,,,,,magenta,I
208.0,3.0,3.0,0.0,1.0,1.0,250.9517039998172,4.0,1.0,phase_1,,,,,,,,,,,,,blue,flipped triangle
69.0,1.0,1.0,0.0,4.0,4.0,264.5677199998317,4.0,1.0,phase_1,,,,,,,,,,,,,gray,triangle
418.0,4.0,4.0,0.0,1.0,1.0,296.8485330002295,4.0,1.0,phase_1,,,,,,,,,,,,,white,square
93.0,6.0,2.0,1.0,1.0,1.0,299.7562090004066,4.0,1.0,phase_1,,,,,,,,,,,,,yellow,hexagon
0.0,3.0,0.0,0.0,2.0,2.0,278.9272829995752,4.0,1.0,phase_1,,,,,,,,,,,,,blue,flipped triangle
204.0,3.0,3.0,0.0,4.0,4.0,268.6499430001277,4.0,1.0,phase_1,,,,,,,,,,,,,blue,flipped triangle
61.0,1.0,1.0,0.0,3.0,3.0,303.4704800011241,4.0,1.0,phase_1,,,,,,,,,,,,,gray,triangle
215.0,7.0,3.0,1.0,1.0,1.0,237.0074720001866,4.0,1.0,phase_1,,,,,,,,,,,,,orange,circle
81.0,2.0,2.0,0.0,4.0,4.0,336.0895300011179,4.0,1.0,phase_1,,,,,,,,,,,,,green,diamond
384.0,4.0,4.0,0.0,3.0,3.0,320.9773430007772,4.0,1.0,phase_1,,,,,,,,,,,,,white,square
0.0,5.0,0.0,1.0,1.0,1.0,283.8786060001439,4.0,1.0,phase_1,,,,,,,,,,,,,cyan,cross
0.0,4.0,0.0,0.0,2.0,2.0,269.5966150004096,4.0,1.0,phase_1,,,,,,,,,,,,,white,square
424.0,8.0,4.0,1.0,4.0,4.0,252.64297200010333,4.0,1.0,phase_1,,,,,,,,,,,,,magenta,I
205.0,7.0,3.0,1.0,2.0,2.0,305.3357490007329,4.0,1.0,phase_1,,,,,,,,,,,,,orange,circle
95.0,2.0,2.0,0.0,2.0,2.0,264.6483610005816,4.0,1.0,phase_1,,,,,,,,,,,,,green,diamond
0.0,6.0,0.0,1.0,4.0,4.0,243.3131569996476,4.0,1.0,phase_1,,,,,,,,,,,,,yellow,hexagon
387.0,4.0,4.0,0.0,1.0,1.0,255.1643420010805,4.0,1.0,phase_1,,,,,,,,,,,,,white,square
386.0,4.0,4.0,0.0,3.0,3.0,381.9051940008648,4.0,1.0,phase_1,,,,,,,,,,,,,white,square
189.0,3.0,3.0,0.0,2.0,2.0,273.2083859991689,4.0,1.0,phase_1,,,,,,,,,,,,,blue,flipped triangle
223.0,7.0,3.0,1.0,4.0,4.0,244.2116769998392,4.0,1.0,phase_1,,,,,,,,,,,,,orange,circle
44.0,1.0,1.0,0.0,2.0,2.0,263.3600829994975,4.0,1.0,phase_1,,,,,,,,,,,,,gray,triangle
384.0,8.0,4.0,1.0,4.0,4.0,263.88943100027967,4.0,1.0,phase_1,,,,,,,,,,,,,magenta,I
407.0,8.0,4.0,1.0,2.0,2.0,262.3271480006224,4.0,1.0,phase_1,,,,,,,,,,,,,magenta,I
190.0,7.0,3.0,1.0,4.0,4.0,373.6645570006658,4.0,1.0,phase_1,,,,,,,,,,,,,orange,circle
116.0,6.0,2.0,1.0,4.0,4.0,295.8177630007412,4.0,1.0,phase_1,,,,,,,,,,,,,yellow,hexagon
212.0,7.0,3.0,1.0,2.0,2.0,251.15461899986258,4.0,1.0,phase_1,,,,,,,,,,,,,orange,circle
102.0,2.0,2.0,0.0,2.0,2.0,287.2414650009887,4.0,1.0,phase_1,,,,,,,,,,,,,green,diamond
94.0,6.0,2.0,1.0,3.0,3.0,371.0333740000351,4.0,1.0,phase_1,,,,,,,,,,,,,yellow,hexagon
0.0,5.0,0.0,1.0,4.0,4.0,339.208403000157,4.0,1.0,phase_1,,,,,,,,,,,,,cyan,cross
389.0,4.0,4.0,0.0,4.0,4.0,277.5165710008878,4.0,1.0,phase_1,,,,,,,,,,,,,white,square
55.0,5.0,1.0,1.0,3.0,3.0,385.1807609989919,4.0,1.0,phase_1,,,,,,,,,,,,,cyan,cross
47.0,1.0,1.0,0.0,1.0,1.0,280.5468500009738,4.0,1.0,phase_1,,,,,,,,,,,,,gray,triangle
102.0,6.0,2.0,1.0,2.0,2.0,244.4907839999359,4.0,1.0,phase_1,,,,,,,,,,,,,yellow,hexagon
79.0,2.0,2.0,0.0,2.0,2.0,283.2409820002795,4.0,1.0,phase_1,,,,,,,,,,,,,green,diamond
124.0,6.0,2.0,1.0,1.0,1.0,274.4881729995541,4.0,1.0,phase_1,,,,,,,,,,,,,yellow,hexagon
381.0,4.0,4.0,0.0,1.0,1.0,243.5624029985774,4.0,1.0,phase_1,,,,,,,,,,,,,white,square
421.0,4.0,4.0,0.0,3.0,3.0,279.0052370000921,4.0,1.0,phase_1,,,,,,,,,,,,,white,square
179.0,7.0,3.0,1.0,3.0,3.0,367.9339709997293,4.0,1.0,phase_1,,,,,,,,,,,,,orange,circle
78.0,2.0,2.0,0.0,2.0,2.0,317.1909969987609,4.0,1.0,phase_1,,,,,,,,,,,,,green,diamond
379.0,8.0,4.0,1.0,1.0,1.0,247.78973100001159,4.0,1.0,phase_1,,,,,,,,,,,,,magenta,I
73.0,5.0,1.0,1.0,2.0,2.0,230.6622420001076,4.0,1.0,phase_1,,,,,,,,,,,,,cyan,cross
56.0,5.0,1.0,1.0,2.0,2.0,244.524319001357,4.0,1.0,phase_1,,,,,,,,,,,,,cyan,cross
416.0,4.0,4.0,0.0,1.0,1.0,287.6793670002371,4.0,1.0,phase_1,,,,,,,,,,,,,white,square
0.0,6.0,0.0,1.0,2.0,2.0,257.8037160001258,4.0,1.0,phase_1,,,,,,,,,,,,,yellow,hexagon
0.0,3.0,0.0,0.0,4.0,4.0,283.45854100007267,4.0,1.0,phase_1,,,,,,,,,,,,,blue,flipped triangle
81.0,6.0,2.0,1.0,3.0,3.0,336.1363720014196,4.0,1.0,phase_1,,,,,,,,,,,,,yellow,hexagon
0.0,4.0,0.0,0.0,1.0,1.0,256.0565420008061,4.0,1.0,phase_1,,,,,,,,,,,,,white,square
123.0,6.0,2.0,1.0,3.0,3.0,386.5541800005303,4.0,1.0,phase_1,,,,,,,,,,,,,yellow,hexagon
71.0,5.0,1.0,1.0,1.0,1.0,368.077371000254,4.0,1.0,phase_1,,,,,,,,,,,,,cyan,cross
392.0,4.0,4.0,0.0,2.0,2.0,226.3025320007727,4.0,1.0,phase_1,,,,,,,,,,,,,white,square
79.0,6.0,2.0,1.0,1.0,1.0,394.4879850005236,4.0,1.0,phase_1,,,,,,,,,,,,,yellow,hexagon
123.0,2.0,2.0,0.0,3.0,3.0,287.6127009985794,4.0,1.0,phase_1,,,,,,,,,,,,,green,diamond
205.0,3.0,3.0,0.0,3.0,3.0,283.7528589989233,4.0,1.0,phase_1,,,,,,,,,,,,,blue,flipped triangle
110.0,6.0,2.0,1.0,3.0,3.0,309.081198000058,4.0,1.0,phase_1,,,,,,,,,,,,,yellow,hexagon
193.0,7.0,3.0,1.0,3.0,3.0,285.043110998231,4.0,1.0,phase_1,,,,,,,,,,,,,orange,circle
79.0,6.0,2.0,1.0,2.0,2.0,267.5703080003586,4.0,1.0,phase_1,,,,,,,,,,,,,yellow,hexagon
204.0,7.0,3.0,1.0,1.0,1.0,274.190534999434,4.0,1.0,phase_1,,,,,,,,,,,,,orange,circle
0.0,3.0,0.0,0.0,3.0,3.0,287.6396459996613,4.0,1.0,phase_1,,,,,,,,,,,,,blue,flipped triangle
63.0,1.0,1.0,0.0,4.0,4.0,312.2210420006013,4.0,1.0,phase_1,,,,,,,,,,,,,gray,triangle
108.0,6.0,2.0,1.0,2.0,2.0,230.6641549985215,4.0,1.0,phase_1,,,,,,,,,,,,,yellow,hexagon
105.0,2.0,2.0,0.0,2.0,2.0,278.3339249999699,4.0,1.0,phase_1,,,,,,,,,,,,,green,diamond
46.0,5.0,1.0,1.0,1.0,1.0,251.1882720009453,4.0,1.0,phase_1,,,,,,,,,,,,,cyan,cross
189.0,7.0,3.0,1.0,2.0,2.0,280.866529999912,4.0,1.0,phase_1,,,,,,,,,,,,,orange,circle
389.0,8.0,4.0,1.0,4.0,4.0,336.5014969986077,4.0,1.0,phase_1,,,,,,,,,,,,,magenta,I
419.0,8.0,4.0,1.0,2.0,2.0,269.8274539998238,4.0,1.0,phase_1,,,,,,,,,,,,,magenta,I
82.0,6.0,2.0,1.0,4.0,4.0,354.3575409985351,4.0,1.0,phase_1,,,,,,,,,,,,,yellow,hexagon
0.0,3.0,0.0,0.0,4.0,4.0,312.7811890008161,4.0,1.0,phase_1,,,,,,,,,,,,,blue,flipped triangle
0.0,8.0,0.0,1.0,1.0,1.0,290.122414000507,4.0,1.0,phase_1,,,,,,,,,,,,,magenta,I
116.0,2.0,2.0,0.0,3.0,3.0,385.8198080015427,4.0,1.0,phase_1,,,,,,,,,,,,,green,diamond
0.0,5.0,1.0,1.0,6.0,6.0,409.0489130012429,1.0,1.0,phase_2,stop,250.0,250.0,3.0,,,,,,,,,cyan,cross
0.0,7.0,3.0,1.0,5.0,5.0,390.965282000252,1.0,1.0,phase_2,stop,250.0,200.0,3.0,,,,,,,,,orange,circle
0.0,1.0,1.0,0.0,6.0,6.0,377.5103100015258,1.0,1.0,phase_2,go,200.0,200.0,1.0,,,,,,,,,gray,triangle
0.0,2.0,2.0,0.0,5.0,5.0,383.1009989989979,1.0,1.0,phase_2,go,200.0,200.0,1.0,,,,,,,,,green,diamond
0.0,7.0,3.0,1.0,6.0,0.0,0.0,1.0,1.0,phase_2,stop,200.0,200.0,4.0,,,,,,,,,orange,circle
0.0,1.0,1.0,0.0,6.0,6.0,342.5083399997675,1.0,1.0,phase_2,go,200.0,250.0,1.0,,,,,,,,,gray,triangle
0.0,3.0,3.0,0.0,5.0,5.0,393.6841260001529,1.0,1.0,phase_2,go,200.0,250.0,1.0,,,,,,,,,blue,flipped triangle
0.0,7.0,3.0,1.0,6.0,6.0,340.3577909994055,1.0,1.0,phase_2,stop,200.0,250.0,3.0,,,,,,,,,orange,circle
0.0,8.0,4.0,1.0,5.0,5.0,252.97219599997328,1.0,1.0,phase_2,stop,200.0,200.0,3.0,,,,,,,,,magenta,I
0.0,2.0,2.0,0.0,5.0,5.0,438.3652200012875,1.0,1.0,phase_2,go,150.0,200.0,1.0,,,,,,,,,green,diamond
0.0,4.0,4.0,0.0,5.0,5.0,444.9874920010188,1.0,1.0,phase_2,go,150.0,200.0,1.0,,,,,,,,,white,square
0.0,7.0,3.0,1.0,6.0,6.0,431.0877289990458,1.0,1.0,phase_2,go,150.0,200.0,1.0,,,,,,,,,orange,circle
0.0,6.0,2.0,1.0,6.0,6.0,329.9912319998839,1.0,1.0,phase_2,stop,150.0,200.0,3.0,,,,,,,,,yellow,hexagon
0.0,4.0,4.0,0.0,6.0,6.0,364.5701780005765,1.0,1.0,phase_2,go,150.0,150.0,1.0,,,,,,,,,white,square
0.0,6.0,2.0,1.0,6.0,0.0,0.0,1.0,1.0,phase_2,stop,150.0,150.0,4.0,,,,,,,,,yellow,hexagon
0.0,7.0,3.0,1.0,5.0,0.0,0.0,1.0,1.0,phase_2,stop,150.0,200.0,4.0,,,,,,,,,orange,circle
0.0,8.0,4.0,1.0,5.0,0.0,0.0,1.0,1.0,phase_2,stop,200.0,200.0,4.0,,,,,,,,,magenta,I
0.0,1.0,1.0,0.0,6.0,6.0,362.5472260009701,1.0,1.0,phase_2,go,250.0,200.0,1.0,,,,,,,,,gray,triangle
0.0,8.0,4.0,1.0,6.0,0.0,0.0,1.0,1.0,phase_2,stop,250.0,200.0,4.0,,,,,,,,,magenta,I
0.0,4.0,4.0,0.0,5.0,5.0,280.9752600005595,1.0,1.0,phase_2,go,250.0,250.0,1.0,,,,,,,,,white,square
0.0,3.0,3.0,0.0,5.0,5.0,462.7102150006976,1.0,1.0,phase_2,go,250.0,250.0,1.0,,,,,,,,,blue,flipped triangle
0.0,8.0,4.0,1.0,6.0,6.0,409.4466489987098,1.0,1.0,phase_2,stop,250.0,250.0,3.0,,,,,,,,,magenta,I
0.0,2.0,2.0,0.0,5.0,5.0,318.6654130004172,1.0,1.0,phase_2,go,250.0,200.0,1.0,,,,,,,,,green,diamond
0.0,1.0,1.0,0.0,5.0,5.0,481.5979300001345,1.0,1.0,phase_2,go,250.0,200.0,1.0,,,,,,,,,gray,triangle
0.0,5.0,1.0,1.0,5.0,5.0,345.4932010008633,1.0,1.0,phase_2,go,250.0,200.0,1.0,,,,,,,,,cyan,cross
0.0,3.0,3.0,0.0,6.0,6.0,452.2027080001862,1.0,1.0,phase_2,go,250.0,200.0,1.0,,,,,,,,,blue,flipped triangle
0.0,2.0,2.0,0.0,6.0,6.0,447.8348049997294,1.0,1.0,phase_2,go,250.0,200.0,1.0,,,,,,,,,green,diamond
0.0,6.0,2.0,1.0,5.0,5.0,426.1169900000823,1.0,1.0,phase_2,go,250.0,200.0,1.0,,,,,,,,,yellow,hexagon
0.0,5.0,1.0,1.0,6.0,6.0,369.2326190011954,1.0,1.0,phase_2,stop,250.0,200.0,3.0,,,,,,,,,cyan,cross
0.0,6.0,2.0,1.0,6.0,0.0,0.0,1.0,1.0,phase_2,stop,250.0,150.0,4.0,,,,,,,,,yellow,hexagon
0.0,4.0,4.0,0.0,5.0,5.0,380.8762589997059,1.0,1.0,phase_2,go,250.0,200.0,1.0,,,,,,,,,white,square
0.0,5.0,1.0,1.0,6.0,0.0,0.0,1.0,1.0,phase_2,stop,250.0,200.0,4.0,,,,,,,,,cyan,cross
0.0,1.0,1.0,0.0,6.0,6.0,370.8030259986117,1.0,1.0,phase_2,go,250.0,250.0,1.0,,,,,,,,,gray,triangle
0.0,4.0,4.0,0.0,5.0,5.0,385.2473539991479,1.0,1.0,phase_2,go,250.0,250.0,1.0,,,,,,,,,white,square
0.0,1.0,1.0,0.0,5.0,5.0,380.8443210000405,1.0,1.0,phase_2,go,250.0,250.0,1.0,,,,,,,,,gray,triangle
0.0,6.0,2.0,1.0,5.0,5.0,362.0317950008029,1.0,1.0,phase_2,stop,250.0,250.0,3.0,,,,,,,,,yellow,hexagon
0.0,6.0,2.0,1.0,6.0,5.0,554.283186000248,2.0,1.0,phase_2,stop,200.0,250.0,3.0,,,,,,,,,yellow,hexagon
0.0,5.0,1.0,1.0,5.0,5.0,416.6043669993087,2.0,1.0,phase_2,go,200.0,200.0,1.0,,,,,,,,,cyan,cross
0.0,3.0,3.0,0.0,6.0,6.0,338.9817730003415,2.0,1.0,phase_2,go,200.0,200.0,1.0,,,,,,,,,blue,flipped triangle
0.0,5.0,1.0,1.0,6.0,6.0,347.9555489993799,2.0,1.0,phase_2,go,200.0,200.0,1.0,,,,,,,,,cyan,cross
0.0,3.0,3.0,0.0,6.0,6.0,400.4301969998778,2.0,1.0,phase_2,go,200.0,200.0,1.0,,,,,,,,,blue,flipped triangle
0.0,3.0,3.0,0.0,5.0,5.0,403.6606030003895,2.0,1.0,phase_2,go,200.0,200.0,1.0,,,,,,,,,blue,flipped triangle
0.0,8.0,4.0,1.0,6.0,6.0,317.1598089993495,2.0,1.0,phase_2,stop,200.0,200.0,3.0,,,,,,,,,magenta,I
0.0,7.0,3.0,1.0,5.0,5.0,298.2026310000947,2.0,1.0,phase_2,go,200.0,150.0,1.0,,,,,,,,,orange,circle
0.0,4.0,4.0,0.0,6.0,6.0,425.5565179992118,2.0,1.0,phase_2,go,200.0,150.0,1.0,,,,,,,,,white,square
0.0,3.0,3.0,0.0,6.0,6.0,362.2718049991817,2.0,1.0,phase_2,go,200.0,150.0,1.0,,,,,,,,,blue,flipped triangle
0.0,7.0,3.0,1.0,6.0,0.0,0.0,2.0,1.0,phase_2,stop,200.0,150.0,4.0,,,,,,,,,orange,circle
0.0,3.0,3.0,0.0,6.0,6.0,341.1527370008116,2.0,1.0,phase_2,go,200.0,200.0,1.0,,,,,,,,,blue,flipped triangle
0.0,5.0,1.0,1.0,5.0,5.0,343.4219139999186,2.0,1.0,phase_2,stop,200.0,200.0,3.0,,,,,,,,,cyan,cross
0.0,8.0,4.0,1.0,6.0,6.0,266.9369649993314,2.0,1.0,phase_2,stop,150.0,200.0,3.0,,,,,,,,,magenta,I
0.0,1.0,1.0,0.0,6.0,6.0,286.4570839992666,2.0,1.0,phase_2,go,150.0,150.0,1.0,,,,,,,,,gray,triangle
0.0,1.0,1.0,0.0,6.0,6.0,422.0058499995502,2.0,1.0,phase_2,go,150.0,150.0,1.0,,,,,,,,,gray,triangle
0.0,2.0,2.0,0.0,6.0,6.0,447.4094249999325,2.0,1.0,phase_2,go,150.0,150.0,1.0,,,,,,,,,green,diamond
0.0,1.0,1.0,0.0,5.0,5.0,425.0433850011177,2.0,1.0,phase_2,go,150.0,150.0,1.0,,,,,,,,,gray,triangle
0.0,5.0,1.0,1.0,5.0,0.0,0.0,2.0,1.0,phase_2,stop,150.0,150.0,4.0,,,,,,,,,cyan,cross
0.0,4.0,4.0,0.0,6.0,6.0,320.4366019999725,2.0,1.0,phase_2,go,200.0,150.0,1.0,,,,,,,,,white,square
0.0,4.0,4.0,0.0,5.0,5.0,400.3741690012248,2.0,1.0,phase_2,go,200.0,150.0,1.0,,,,,,,,,white,square
0.0,8.0,4.0,1.0,5.0,5.0,325.8859300003678,2.0,1.0,phase_2,stop,200.0,150.0,3.0,,,,,,,,,magenta,I
0.0,6.0,2.0,1.0,6.0,6.0,332.6906390011572,2.0,1.0,phase_2,stop,150.0,150.0,3.0,,,,,,,,,yellow,hexagon
0.0,2.0,2.0,0.0,5.0,5.0,520.5926290000207,2.0,1.0,phase_2,go,150.0,100.0,1.0,,,,,,,,,green,diamond
0.0,8.0,4.0,1.0,5.0,0.0,0.0,2.0,1.0,phase_2,stop,150.0,100.0,4.0,,,,,,,,,magenta,I
0.0,1.0,1.0,0.0,6.0,6.0,312.1935540002596,2.0,1.0,phase_2,go,200.0,100.0,1.0,,,,,,,,,gray,triangle
0.0,1.0,1.0,0.0,6.0,6.0,356.9517030009592,2.0,1.0,phase_2,go,200.0,100.0,1.0,,,,,,,,,gray,triangle
0.0,2.0,2.0,0.0,5.0,5.0,371.7466190009872,2.0,1.0,phase_2,go,200.0,100.0,1.0,,,,,,,,,green,diamond
0.0,2.0,2.0,0.0,6.0,6.0,477.0206890007102,2.0,1.0,phase_2,go,200.0,100.0,1.0,,,,,,,,,green,diamond
0.0,2.0,2.0,0.0,6.0,6.0,316.6212029991584,2.0,1.0,phase_2,go,200.0,100.0,1.0,,,,,,,,,green,diamond
0.0,4.0,4.0,0.0,6.0,6.0,363.9233699996111,2.0,1.0,phase_2,go,200.0,100.0,1.0,,,,,,,,,white,square
0.0,1.0,1.0,0.0,5.0,5.0,395.5055330006871,2.0,1.0,phase_2,go,200.0,100.0,1.0,,,,,,,,,gray,triangle
0.0,4.0,4.0,0.0,6.0,6.0,300.7897419993242,2.0,1.0,phase_2,go,200.0,100.0,1.0,,,,,,,,,white,square
0.0,2.0,2.0,0.0,5.0,5.0,374.7259810006653,2.0,1.0,phase_2,go,200.0,100.0,1.0,,,,,,,,,green,diamond
0.0,6.0,2.0,1.0,6.0,0.0,0.0,2.0,1.0,phase_2,stop,200.0,100.0,4.0,,,,,,,,,yellow,hexagon
0.0,6.0,2.0,1.0,6.0,6.0,362.5571930006117,2.0,1.0,phase_2,stop,200.0,150.0,3.0,,,,,,,,,yellow,hexagon
0.0,4.0,4.0,0.0,6.0,6.0,388.540803000069,3.0,1.0,phase_2,go,200.0,100.0,1.0,,,,,,,,,white,square
0.0,5.0,1.0,1.0,6.0,6.0,373.1384269995033,3.0,1.0,phase_2,go,200.0,100.0,1.0,,,,,,,,,cyan,cross
0.0,7.0,3.0,1.0,5.0,5.0,399.767017999693,3.0,1.0,phase_2,stop,200.0,100.0,3.0,,,,,,,,,orange,circle
0.0,8.0,4.0,1.0,5.0,5.0,329.1611530003138,3.0,1.0,phase_2,stop,150.0,100.0,3.0,,,,,,,,,magenta,I
0.0,7.0,3.0,1.0,6.0,0.0,0.0,3.0,1.0,phase_2,stop,100.0,100.0,4.0,,,,,,,,,orange,circle
0.0,4.0,4.0,0.0,5.0,5.0,319.0962850003416,3.0,1.0,phase_2,go,100.0,150.0,1.0,,,,,,,,,white,square
0.0,5.0,1.0,1.0,6.0,0.0,0.0,3.0,1.0,phase_2,stop,100.0,150.0,4.0,,,,,,,,,cyan,cross
0.0,8.0,4.0,1.0,5.0,0.0,0.0,3.0,1.0,phase_2,stop,100.0,200.0,4.0,,,,,,,,,magenta,I
0.0,3.0,3.0,0.0,6.0,6.0,428.9117600001191,3.0,1.0,phase_2,go,150.0,200.0,1.0,,,,,,,,,blue,flipped triangle
0.0,5.0,1.0,1.0,6.0,6.0,314.5886239999527,3.0,1.0,phase_2,stop,150.0,200.0,3.0,,,,,,,,,cyan,cross
0.0,2.0,2.0,0.0,6.0,6.0,484.0814560011495,3.0,1.0,phase_2,go,150.0,150.0,1.0,,,,,,,,,green,diamond
0.0,5.0,1.0,1.0,5.0,0.0,0.0,3.0,1.0,phase_2,stop,150.0,150.0,4.0,,,,,,,,,cyan,cross
0.0,7.0,3.0,1.0,5.0,5.0,351.7221340007381,3.0,1.0,phase_2,stop,200.0,150.0,3.0,,,,,,,,,orange,circle
0.0,7.0,3.0,1.0,5.0,0.0,0.0,3.0,1.0,phase_2,stop,150.0,150.0,4.0,,,,,,,,,orange,circle
0.0,1.0,1.0,0.0,6.0,6.0,473.488757999803,3.0,1.0,phase_2,go,200.0,150.0,1.0,,,,,,,,,gray,triangle
0.0,6.0,2.0,1.0,5.0,0.0,0.0,3.0,1.0,phase_2,stop,200.0,150.0,4.0,,,,,,,,,yellow,hexagon
0.0,5.0,1.0,1.0,5.0,5.0,503.65208000039274,3.0,1.0,phase_2,go,250.0,150.0,1.0,,,,,,,,,cyan,cross
0.0,2.0,2.0,0.0,6.0,6.0,302.0006020014989,3.0,1.0,phase_2,go,250.0,150.0,1.0,,,,,,,,,green,diamond
0.0,5.0,1.0,1.0,5.0,5.0,368.8955760007957,3.0,1.0,phase_2,stop,250.0,150.0,3.0,,,,,,,,,cyan,cross
0.0,5.0,1.0,1.0,6.0,6.0,289.6402659989689,3.0,1.0,phase_2,go,200.0,150.0,1.0,,,,,,,,,cyan,cross
0.0,6.0,2.0,1.0,6.0,6.0,392.4675289999868,3.0,1.0,phase_2,stop,200.0,150.0,3.0,,,,,,,,,yellow,hexagon
0.0,3.0,3.0,0.0,5.0,5.0,437.9823330000363,3.0,1.0,phase_2,go,200.0,100.0,1.0,,,,,,,,,blue,flipped triangle
0.0,8.0,4.0,1.0,6.0,0.0,0.0,3.0,1.0,phase_2,stop,200.0,100.0,4.0,,,,,,,,,magenta,I
0.0,5.0,1.0,1.0,5.0,5.0,378.7748529994132,3.0,1.0,phase_2,stop,200.0,150.0,3.0,,,,,,,,,cyan,cross
0.0,3.0,3.0,0.0,5.0,5.0,429.0407199987385,3.0,1.0,phase_2,go,150.0,150.0,1.0,,,,,,,,,blue,flipped triangle
0.0,8.0,4.0,1.0,5.0,0.0,0.0,3.0,1.0,phase_2,stop,150.0,150.0,4.0,,,,,,,,,magenta,I
0.0,3.0,3.0,0.0,5.0,5.0,449.3381180000142,3.0,1.0,phase_2,go,200.0,150.0,1.0,,,,,,,,,blue,flipped triangle
0.0,8.0,4.0,1.0,5.0,5.0,311.9633969999995,3.0,1.0,phase_2,stop,200.0,150.0,3.0,,,,,,,,,magenta,I
0.0,8.0,4.0,1.0,6.0,0.0,0.0,3.0,1.0,phase_2,stop,150.0,150.0,4.0,,,,,,,,,magenta,I
0.0,2.0,2.0,0.0,6.0,6.0,455.7432769997831,3.0,1.0,phase_2,go,150.0,200.0,1.0,,,,,,,,,green,diamond
0.0,8.0,4.0,1.0,6.0,6.0,372.2487190007086,3.0,1.0,phase_2,go,150.0,200.0,1.0,,,,,,,,,magenta,I
0.0,6.0,2.0,1.0,5.0,5.0,301.527215000533,3.0,1.0,phase_2,stop,150.0,200.0,3.0,,,,,,,,,yellow,hexagon
0.0,5.0,1.0,1.0,5.0,0.0,0.0,3.0,1.0,phase_2,stop,100.0,200.0,4.0,,,,,,,,,cyan,cross
0.0,4.0,4.0,0.0,6.0,6.0,422.7172109985986,3.0,1.0,phase_2,go,150.0,200.0,1.0,,,,,,,,,white,square
0.0,8.0,4.0,1.0,6.0,6.0,345.1823239993246,3.0,1.0,phase_2,stop,150.0,200.0,3.0,,,,,,,,,magenta,I
0.0,7.0,3.0,1.0,6.0,6.0,311.6427780005324,3.0,1.0,phase_2,stop,150.0,150.0,3.0,,,,,,,,,orange,circle
0.0,8.0,4.0,1.0,5.0,5.0,304.6368830000574,4.0,1.0,phase_2,go,150.0,100.0,1.0,,,,,,,,,magenta,I
0.0,8.0,4.0,1.0,5.0,5.0,292.8798860011739,4.0,1.0,phase_2,stop,150.0,100.0,3.0,,,,,,,,,magenta,I
0.0,2.0,2.0,0.0,5.0,5.0,286.6162059999624,4.0,1.0,phase_2,go,100.0,100.0,1.0,,,,,,,,,green,diamond
0.0,2.0,2.0,0.0,6.0,6.0,292.0307559998036,4.0,1.0,phase_2,go,100.0,100.0,1.0,,,,,,,,,green,diamond
0.0,5.0,1.0,1.0,5.0,0.0,0.0,4.0,1.0,phase_2,stop,100.0,100.0,4.0,,,,,,,,,cyan,cross
0.0,6.0,2.0,1.0,5.0,5.0,321.3311370000156,4.0,1.0,phase_2,go,150.0,100.0,1.0,,,,,,,,,yellow,hexagon
0.0,3.0,3.0,0.0,5.0,5.0,348.8473830002476,4.0,1.0,phase_2,go,150.0,100.0,1.0,,,,,,,,,blue,flipped triangle
0.0,2.0,2.0,0.0,6.0,6.0,409.0927239994926,4.0,1.0,phase_2,go,150.0,100.0,1.0,,,,,,,,,green,diamond
0.0,5.0,1.0,1.0,6.0,6.0,292.7590620001865,4.0,1.0,phase_2,stop,150.0,100.0,3.0,,,,,,,,,cyan,cross
0.0,5.0,1.0,1.0,6.0,0.0,0.0,4.0,1.0,phase_2,stop,150.0,50.0,4.0,,,,,,,,,cyan,cross
0.0,1.0,1.0,0.0,6.0,6.0,387.2863289998349,4.0,1.0,phase_2,go,150.0,100.0,1.0,,,,,,,,,gray,triangle
0.0,5.0,1.0,1.0,5.0,0.0,0.0,4.0,1.0,phase_2,stop,150.0,100.0,4.0,,,,,,,,,cyan,cross
0.0,6.0,2.0,1.0,5.0,5.0,413.0622939992463,4.0,1.0,phase_2,stop,200.0,100.0,3.0,,,,,,,,,yellow,hexagon
0.0,7.0,3.0,1.0,6.0,0.0,0.0,4.0,1.0,phase_2,stop,150.0,100.0,4.0,,,,,,,,,orange,circle
0.0,3.0,3.0,0.0,5.0,5.0,333.6255459998938,4.0,1.0,phase_2,go,150.0,150.0,1.0,,,,,,,,,blue,flipped triangle
0.0,4.0,4.0,0.0,6.0,6.0,474.2604470011429,4.0,1.0,phase_2,go,150.0,150.0,1.0,,,,,,,,,white,square
0.0,6.0,2.0,1.0,5.0,5.0,322.2410509988549,4.0,1.0,phase_2,stop,150.0,150.0,3.0,,,,,,,,,yellow,hexagon
0.0,4.0,4.0,0.0,5.0,5.0,414.9653530002979,4.0,1.0,phase_2,go,100.0,150.0,1.0,,,,,,,,,white,square
0.0,5.0,1.0,1.0,5.0,0.0,0.0,4.0,1.0,phase_2,stop,100.0,150.0,4.0,,,,,,,,,cyan,cross
0.0,6.0,2.0,1.0,6.0,6.0,363.1403370000043,4.0,1.0,phase_2,go,150.0,150.0,1.0,,,,,,,,,yellow,hexagon
0.0,8.0,4.0,1.0,6.0,6.0,390.9592340005474,4.0,1.0,phase_2,go,150.0,150.0,1.0,,,,,,,,,magenta,I
0.0,5.0,1.0,1.0,5.0,5.0,322.7082069988682,4.0,1.0,phase_2,stop,150.0,150.0,3.0,,,,,,,,,cyan,cross
0.0,2.0,2.0,0.0,6.0,6.0,331.8080619992543,4.0,1.0,phase_2,go,100.0,150.0,1.0,,,,,,,,,green,diamond
0.0,7.0,3.0,1.0,6.0,6.0,330.2217879991076,4.0,1.0,phase_2,stop,100.0,150.0,3.0,,,,,,,,,orange,circle
0.0,6.0,2.0,1.0,5.0,5.0,311.2767309994524,4.0,1.0,phase_2,stop,100.0,100.0,3.0,,,,,,,,,yellow,hexagon
0.0,6.0,2.0,1.0,5.0,0.0,0.0,4.0,1.0,phase_2,stop,50.0,100.0,4.0,,,,,,,,,yellow,hexagon
0.0,2.0,2.0,0.0,5.0,5.0,487.3186019995046,4.0,1.0,phase_2,go,100.0,100.0,1.0,,,,,,,,,green,diamond
0.0,4.0,4.0,0.0,5.0,5.0,347.0670969982166,4.0,1.0,phase_2,go,100.0,100.0,1.0,,,,,,,,,white,square
0.0,2.0,2.0,0.0,6.0,6.0,371.0618789991713,4.0,1.0,phase_2,go,100.0,100.0,1.0,,,,,,,,,green,diamond
0.0,6.0,2.0,1.0,6.0,6.0,297.7688480004872,4.0,1.0,phase_2,stop,100.0,100.0,3.0,,,,,,,,,yellow,hexagon
0.0,4.0,4.0,0.0,6.0,6.0,465.6095469999854,4.0,1.0,phase_2,go,100.0,50.0,1.0,,,,,,,,,white,square
0.0,2.0,2.0,0.0,5.0,5.0,323.2642820003093,4.0,1.0,phase_2,go,100.0,50.0,1.0,,,,,,,,,green,diamond
0.0,2.0,2.0,0.0,6.0,6.0,378.7045939989184,4.0,1.0,phase_2,go,100.0,50.0,1.0,,,,,,,,,green,diamond
0.0,5.0,1.0,1.0,5.0,0.0,0.0,4.0,1.0,phase_2,stop,100.0,50.0,4.0,,,,,,,,,cyan,cross
0.0,8.0,4.0,1.0,5.0,5.0,385.3693229993951,4.0,1.0,phase_2,stop,150.0,50.0,3.0,,,,,,,,,magenta,I
0.0,4.0,4.0,0.0,6.0,6.0,287.9809679998288,4.0,1.0,phase_2,go,100.0,50.0,1.0,,,,,,,,,white,square
0.0,6.0,2.0,1.0,5.0,5.0,243.5693400002492,5.0,1.0,phase_2,stop,100.0,50.0,3.0,,,,,,,,,yellow,hexagon
0.0,8.0,4.0,1.0,6.0,6.0,245.4955189987231,5.0,1.0,phase_2,stop,50.0,50.0,3.0,,,,,,,,,magenta,I
0.0,7.0,3.0,1.0,6.0,0.0,0.0,5.0,1.0,phase_2,stop,50.0,0.0,4.0,,,,,,,,,orange,circle
0.0,1.0,1.0,0.0,6.0,6.0,340.4404110005998,5.0,1.0,phase_2,go,50.0,50.0,1.0,,,,,,,,,gray,triangle
0.0,8.0,4.0,1.0,6.0,6.0,292.7878570008033,5.0,1.0,phase_2,stop,50.0,50.0,3.0,,,,,,,,,magenta,I
0.0,7.0,3.0,1.0,6.0,6.0,328.6322399999335,5.0,1.0,phase_2,go,50.0,0.0,1.0,,,,,,,,,orange,circle
0.0,3.0,3.0,0.0,6.0,6.0,294.8761700008617,5.0,1.0,phase_2,go,50.0,0.0,1.0,,,,,,,,,blue,flipped triangle
0.0,5.0,1.0,1.0,5.0,5.0,292.0756779985822,5.0,1.0,phase_2,go,50.0,0.0,1.0,,,,,,,,,cyan,cross
0.0,7.0,3.0,1.0,5.0,5.0,314.8326329992414,5.0,1.0,phase_2,stop,50.0,0.0,3.0,,,,,,,,,orange,circle
0.0,1.0,1.0,0.0,5.0,5.0,338.3536439996533,5.0,1.0,phase_2,go,0.0,0.0,1.0,,,,,,,,,gray,triangle
0.0,7.0,3.0,1.0,5.0,5.0,301.7231350004294,5.0,1.0,phase_2,go,0.0,0.0,1.0,,,,,,,,,orange,circle
0.0,7.0,3.0,1.0,5.0,0.0,0.0,5.0,1.0,phase_2,stop,0.0,0.0,4.0,,,,,,,,,orange,circle
0.0,8.0,4.0,1.0,6.0,6.0,361.9766070005425,5.0,1.0,phase_2,go,50.0,0.0,1.0,,,,,,,,,magenta,I
0.0,3.0,3.0,0.0,6.0,6.0,297.5714980002522,5.0,1.0,phase_2,go,50.0,0.0,1.0,,,,,,,,,blue,flipped triangle
0.0,1.0,1.0,0.0,6.0,6.0,330.2172839994455,5.0,1.0,phase_2,go,50.0,0.0,1.0,,,,,,,,,gray,triangle
0.0,2.0,2.0,0.0,5.0,5.0,258.4421970004769,5.0,1.0,phase_2,go,50.0,0.0,1.0,,,,,,,,,green,diamond
0.0,1.0,1.0,0.0,5.0,5.0,337.3844730012934,5.0,1.0,phase_2,go,50.0,0.0,1.0,,,,,,,,,gray,triangle
0.0,5.0,1.0,1.0,6.0,0.0,0.0,5.0,1.0,phase_2,stop,50.0,0.0,4.0,,,,,,,,,cyan,cross
0.0,3.0,3.0,0.0,6.0,6.0,453.0483480011753,5.0,1.0,phase_2,go,50.0,50.0,1.0,,,,,,,,,blue,flipped triangle
0.0,7.0,3.0,1.0,5.0,5.0,433.6981910000759,5.0,1.0,phase_2,go,50.0,50.0,1.0,,,,,,,,,orange,circle
0.0,1.0,1.0,0.0,5.0,5.0,329.8736199994891,5.0,1.0,phase_2,go,50.0,50.0,1.0,,,,,,,,,gray,triangle
0.0,1.0,1.0,0.0,6.0,6.0,281.7865189990698,5.0,1.0,phase_2,go,50.0,50.0,1.0,,,,,,,,,gray,triangle
0.0,8.0,4.0,1.0,5.0,5.0,277.4573570004577,5.0,1.0,phase_2,stop,50.0,50.0,3.0,,,,,,,,,magenta,I
0.0,2.0,2.0,0.0,5.0,5.0,349.8601800001779,5.0,1.0,phase_2,go,0.0,50.0,1.0,,,,,,,,,green,diamond
0.0,2.0,2.0,0.0,5.0,5.0,303.3002020001731,5.0,1.0,phase_2,go,0.0,50.0,1.0,,,,,,,,,green,diamond
0.0,8.0,4.0,1.0,6.0,0.0,0.0,5.0,1.0,phase_2,stop,0.0,50.0,4.0,,,,,,,,,magenta,I
0.0,2.0,2.0,0.0,5.0,5.0,280.5477040001278,5.0,1.0,phase_2,go,0.0,100.0,1.0,,,,,,,,,green,diamond
0.0,7.0,3.0,1.0,6.0,6.0,316.0551119999581,5.0,1.0,phase_2,stop,0.0,100.0,3.0,,,,,,,,,orange,circle
0.0,7.0,3.0,1.0,6.0,6.0,308.1918799998675,5.0,1.0,phase_2,go,0.0,50.0,1.0,,,,,,,,,orange,circle
0.0,1.0,1.0,0.0,5.0,5.0,274.1382260010141,5.0,1.0,phase_2,go,0.0,50.0,1.0,,,,,,,,,gray,triangle
0.0,3.0,3.0,0.0,6.0,6.0,309.8415559998102,5.0,1.0,phase_2,go,0.0,50.0,1.0,,,,,,,,,blue,flipped triangle
0.0,3.0,3.0,0.0,6.0,6.0,311.3641330000973,5.0,1.0,phase_2,go,0.0,50.0,1.0,,,,,,,,,blue,flipped triangle
0.0,2.0,2.0,0.0,5.0,5.0,283.2247410005948,5.0,1.0,phase_2,go,0.0,50.0,1.0,,,,,,,,,green,diamond
0.0,5.0,1.0,1.0,6.0,6.0,236.8619089993444,5.0,1.0,phase_2,stop,0.0,50.0,3.0,,,,,,,,,cyan,cross
0.0,2.0,2.0,0.0,6.0,6.0,393.7596809992101,5.0,1.0,phase_2,go,0.0,0.0,1.0,,,,,,,,,green,diamond
0.0,4.0,4.0,0.0,5.0,5.0,309.1828899996471,5.0,1.0,phase_2,go,0.0,0.0,1.0,,,,,,,,,white,square
0.0,3.0,3.0,0.0,5.0,5.0,400.5044389996328,6.0,1.0,phase_2,go,0.0,0.0,1.0,,,,,,,,,blue,flipped triangle
0.0,3.0,3.0,0.0,6.0,6.0,370.3950420003821,6.0,1.0,phase_2,go,0.0,0.0,1.0,,,,,,,,,blue,flipped triangle
0.0,3.0,3.0,0.0,6.0,6.0,415.5850799998006,6.0,1.0,phase_2,go,0.0,0.0,1.0,,,,,,,,,blue,flipped triangle
0.0,1.0,1.0,0.0,5.0,5.0,347.625952999806,6.0,1.0,phase_2,go,0.0,0.0,1.0,,,,,,,,,gray,triangle
0.0,2.0,2.0,0.0,5.0,5.0,380.5134840004029,6.0,1.0,phase_2,go,0.0,0.0,1.0,,,,,,,,,green,diamond
0.0,1.0,1.0,0.0,6.0,6.0,389.9493090011674,6.0,1.0,phase_2,go,0.0,0.0,1.0,,,,,,,,,gray,triangle
0.0,5.0,1.0,1.0,5.0,0.0,0.0,6.0,1.0,phase_2,stop,0.0,0.0,4.0,,,,,,,,,cyan,cross
0.0,6.0,2.0,1.0,5.0,0.0,0.0,6.0,1.0,phase_2,stop,50.0,0.0,4.0,,,,,,,,,yellow,hexagon
0.0,4.0,4.0,0.0,6.0,6.0,435.5272129996592,6.0,1.0,phase_2,go,100.0,0.0,1.0,,,,,,,,,white,square
0.0,7.0,3.0,1.0,6.0,6.0,367.1121499992296,6.0,1.0,phase_2,go,100.0,0.0,1.0,,,,,,,,,orange,circle
0.0,7.0,3.0,1.0,6.0,0.0,0.0,6.0,1.0,phase_2,stop,100.0,0.0,4.0,,,,,,,,,orange,circle
0.0,1.0,1.0,0.0,6.0,6.0,390.8906470005604,6.0,1.0,phase_2,go,100.0,50.0,1.0,,,,,,,,,gray,triangle
0.0,6.0,2.0,1.0,6.0,6.0,417.1041049994528,6.0,1.0,phase_2,go,100.0,50.0,1.0,,,,,,,,,yellow,hexagon
0.0,1.0,1.0,0.0,5.0,5.0,426.2253769993549,6.0,1.0,phase_2,go,100.0,50.0,1.0,,,,,,,,,gray,triangle
0.0,7.0,3.0,1.0,5.0,0.0,0.0,6.0,1.0,phase_2,stop,100.0,50.0,4.0,,,,,,,,,orange,circle
0.0,6.0,2.0,1.0,5.0,5.0,333.4133329990436,6.0,1.0,phase_2,stop,150.0,50.0,3.0,,,,,,,,,yellow,hexagon
0.0,4.0,4.0,0.0,6.0,6.0,381.70892800008,6.0,1.0,phase_2,go,100.0,50.0,1.0,,,,,,,,,white,square
0.0,4.0,4.0,0.0,5.0,5.0,450.6104409992986,6.0,1.0,phase_2,go,100.0,50.0,1.0,,,,,,,,,white,square
0.0,1.0,1.0,0.0,6.0,6.0,359.9826130011934,6.0,1.0,phase_2,go,100.0,50.0,1.0,,,,,,,,,gray,triangle
0.0,4.0,4.0,0.0,6.0,6.0,349.8569399998814,6.0,1.0,phase_2,go,100.0,50.0,1.0,,,,,,,,,white,square
0.0,6.0,2.0,1.0,6.0,0.0,0.0,6.0,1.0,phase_2,stop,100.0,50.0,4.0,,,,,,,,,yellow,hexagon
0.0,5.0,1.0,1.0,6.0,0.0,0.0,6.0,1.0,phase_2,stop,100.0,100.0,4.0,,,,,,,,,cyan,cross
0.0,3.0,3.0,0.0,5.0,5.0,422.25614400013,6.0,1.0,phase_2,go,100.0,150.0,1.0,,,,,,,,,blue,flipped triangle
0.0,6.0,2.0,1.0,5.0,0.0,0.0,6.0,1.0,phase_2,stop,100.0,150.0,4.0,,,,,,,,,yellow,hexagon
0.0,8.0,4.0,1.0,5.0,0.0,0.0,6.0,1.0,phase_2,stop,150.0,150.0,4.0,,,,,,,,,magenta,I
0.0,6.0,2.0,1.0,6.0,6.0,455.00609499868,6.0,1.0,phase_2,go,200.0,150.0,1.0,,,,,,,,,yellow,hexagon
0.0,7.0,3.0,1.0,6.0,6.0,329.3947479996859,6.0,1.0,phase_2,go,200.0,150.0,1.0,,,,,,,,,orange,circle
0.0,5.0,1.0,1.0,6.0,0.0,0.0,6.0,1.0,phase_2,stop,200.0,150.0,4.0,,,,,,,,,cyan,cross
0.0,3.0,3.0,0.0,6.0,6.0,393.3656919998611,6.0,1.0,phase_2,go,200.0,200.0,1.0,,,,,,,,,blue,flipped triangle
0.0,4.0,4.0,0.0,6.0,6.0,376.8986169998243,6.0,1.0,phase_2,go,200.0,200.0,1.0,,,,,,,,,white,square
0.0,1.0,1.0,0.0,5.0,5.0,508.29456099927484,6.0,1.0,phase_2,go,200.0,200.0,1.0,,,,,,,,,gray,triangle
0.0,7.0,3.0,1.0,5.0,0.0,0.0,6.0,1.0,phase_2,stop,200.0,200.0,4.0,,,,,,,,,orange,circle
0.0,7.0,3.0,1.0,6.0,6.0,423.4296140002698,6.0,1.0,phase_2,go,250.0,200.0,1.0,,,,,,,,,orange,circle
0.0,3.0,3.0,0.0,6.0,6.0,364.0716259997134,6.0,1.0,phase_2,go,250.0,200.0,1.0,,,,,,,,,blue,flipped triangle
0.0,8.0,4.0,1.0,6.0,6.0,312.8826870015473,6.0,1.0,phase_2,go,250.0,200.0,1.0,,,,,,,,,magenta,I
0.0,1.0,1.0,0.0,5.0,5.0,375.7953889999044,6.0,1.0,phase_2,go,250.0,200.0,1.0,,,,,,,,,gray,triangle
0.0,8.0,4.0,1.0,6.0,6.0,317.1607820004283,7.0,1.0,phase_2,stop,250.0,200.0,3.0,,,,,,,,,magenta,I
0.0,6.0,2.0,1.0,6.0,6.0,338.7060349996318,7.0,1.0,phase_2,stop,250.0,150.0,3.0,,,,,,,,,yellow,hexagon
0.0,5.0,1.0,1.0,6.0,6.0,525.4392200004077,7.0,1.0,phase_2,go,250.0,100.0,1.0,,,,,,,,,cyan,cross
0.0,7.0,3.0,1.0,5.0,5.0,290.3050710010575,7.0,1.0,phase_2,stop,250.0,100.0,3.0,,,,,,,,,orange,circle
0.0,7.0,3.0,1.0,5.0,0.0,0.0,7.0,1.0,phase_2,stop,200.0,100.0,4.0,,,,,,,,,orange,circle
0.0,1.0,1.0,0.0,5.0,5.0,438.6311140006,7.0,1.0,phase_2,go,250.0,100.0,1.0,,,,,,,,,gray,triangle
0.0,4.0,4.0,0.0,5.0,5.0,339.7486350004328,7.0,1.0,phase_2,go,250.0,100.0,1.0,,,,,,,,,white,square
0.0,7.0,3.0,1.0,5.0,5.0,428.8614590004727,7.0,1.0,phase_2,stop,250.0,100.0,3.0,,,,,,,,,orange,circle
0.0,4.0,4.0,0.0,5.0,5.0,483.8603579992195,7.0,1.0,phase_2,go,200.0,100.0,1.0,,,,,,,,,white,square
0.0,1.0,1.0,0.0,5.0,5.0,436.0133009995479,7.0,1.0,phase_2,go,200.0,100.0,1.0,,,,,,,,,gray,triangle
0.0,7.0,3.0,1.0,5.0,5.0,405.7684920007887,7.0,1.0,phase_2,stop,200.0,100.0,3.0,,,,,,,,,orange,circle
0.0,5.0,1.0,1.0,6.0,0.0,0.0,7.0,1.0,phase_2,stop,150.0,100.0,4.0,,,,,,,,,cyan,cross
0.0,8.0,4.0,1.0,5.0,5.0,529.8605499992846,7.0,1.0,phase_2,go,150.0,150.0,1.0,,,,,,,,,magenta,I
0.0,1.0,1.0,0.0,5.0,5.0,426.0897729982389,7.0,1.0,phase_2,go,150.0,150.0,1.0,,,,,,,,,gray,triangle
0.0,4.0,4.0,0.0,6.0,6.0,400.6750119988282,7.0,1.0,phase_2,go,150.0,150.0,1.0,,,,,,,,,white,square
0.0,1.0,1.0,0.0,5.0,5.0,603.6061350005184,7.0,1.0,phase_2,go,150.0,150.0,1.0,,,,,,,,,gray,triangle
0.0,1.0,1.0,0.0,5.0,5.0,428.0304860003525,7.0,1.0,phase_2,go,150.0,150.0,1.0,,,,,,,,,gray,triangle
0.0,5.0,1.0,1.0,5.0,0.0,0.0,7.0,1.0,phase_2,stop,150.0,150.0,4.0,,,,,,,,,cyan,cross
0.0,5.0,1.0,1.0,5.0,0.0,0.0,7.0,1.0,phase_2,stop,200.0,150.0,4.0,,,,,,,,,cyan,cross
0.0,2.0,2.0,0.0,6.0,6.0,340.553425001417,7.0,1.0,phase_2,go,250.0,150.0,1.0,,,,,,,,,green,diamond
0.0,7.0,3.0,1.0,5.0,0.0,0.0,7.0,1.0,phase_2,stop,250.0,150.0,4.0,,,,,,,,,orange,circle
0.0,5.0,1.0,1.0,6.0,6.0,315.5978150025476,7.0,1.0,phase_2,go,300.0,150.0,1.0,,,,,,,,,cyan,cross
0.0,8.0,4.0,1.0,5.0,5.0,600.2422370002023,7.0,1.0,phase_2,go,300.0,150.0,1.0,,,,,,,,,magenta,I
0.0,4.0,4.0,0.0,6.0,6.0,478.4970769978827,7.0,1.0,phase_2,go,300.0,150.0,1.0,,,,,,,,,white,square
0.0,6.0,2.0,1.0,6.0,0.0,0.0,7.0,1.0,phase_2,stop,300.0,150.0,4.0,,,,,,,,,yellow,hexagon
0.0,8.0,4.0,1.0,5.0,5.0,366.1764219978067,7.0,1.0,phase_2,go,300.0,200.0,1.0,,,,,,,,,magenta,I
0.0,1.0,1.0,0.0,6.0,6.0,492.6221239984443,7.0,1.0,phase_2,go,300.0,200.0,1.0,,,,,,,,,gray,triangle
0.0,6.0,2.0,1.0,5.0,5.0,491.2412679987028,7.0,1.0,phase_2,go,300.0,200.0,1.0,,,,,,,,,yellow,hexagon
0.0,3.0,3.0,0.0,5.0,5.0,376.099956996768,7.0,1.0,phase_2,go,300.0,200.0,1.0,,,,,,,,,blue,flipped triangle
0.0,7.0,3.0,1.0,6.0,0.0,0.0,7.0,1.0,phase_2,stop,300.0,200.0,4.0,,,,,,,,,orange,circle
0.0,6.0,2.0,1.0,6.0,6.0,338.2304480001039,7.0,1.0,phase_2,stop,300.0,250.0,3.0,,,,,,,,,yellow,hexagon
0.0,3.0,3.0,0.0,6.0,6.0,430.2406669994525,7.0,1.0,phase_2,go,300.0,200.0,1.0,,,,,,,,,blue,flipped triangle
0.0,1.0,1.0,0.0,6.0,6.0,379.692487000284,7.0,1.0,phase_2,go,300.0,200.0,1.0,,,,,,,,,gray,triangle
0.0,3.0,3.0,0.0,5.0,5.0,314.5758730024681,7.0,1.0,phase_2,go,300.0,200.0,1.0,,,,,,,,,blue,flipped triangle
0.0,4.0,4.0,0.0,6.0,6.0,338.8577769983385,7.0,1.0,phase_2,go,300.0,200.0,1.0,,,,,,,,,white,square
0.0,3.0,3.0,0.0,5.0,5.0,395.8065030019497,7.0,1.0,phase_2,go,300.0,200.0,1.0,,,,,,,,,blue,flipped triangle
0.0,2.0,2.0,0.0,6.0,6.0,347.302258000127,8.0,1.0,phase_2,go,300.0,200.0,1.0,,,,,,,,,green,diamond
0.0,2.0,2.0,0.0,5.0,5.0,440.91793499683257,8.0,1.0,phase_2,go,300.0,200.0,1.0,,,,,,,,,green,diamond
0.0,3.0,3.0,0.0,6.0,6.0,262.9313440011174,8.0,1.0,phase_2,go,300.0,200.0,1.0,,,,,,,,,blue,flipped triangle
0.0,6.0,2.0,1.0,5.0,5.0,331.71281300019467,8.0,1.0,phase_2,stop,300.0,200.0,3.0,,,,,,,,,yellow,hexagon
0.0,3.0,3.0,0.0,5.0,5.0,382.826387998648,8.0,1.0,phase_2,go,250.0,200.0,1.0,,,,,,,,,blue,flipped triangle
0.0,2.0,2.0,0.0,6.0,6.0,288.8061340017884,8.0,1.0,phase_2,go,250.0,200.0,1.0,,,,,,,,,green,diamond
0.0,7.0,3.0,1.0,5.0,5.0,308.4154969983501,8.0,1.0,phase_2,stop,250.0,200.0,3.0,,,,,,,,,orange,circle
0.0,6.0,2.0,1.0,6.0,6.0,305.660154997895,8.0,1.0,phase_2,go,200.0,200.0,1.0,,,,,,,,,yellow,hexagon
0.0,6.0,2.0,1.0,5.0,0.0,0.0,8.0,1.0,phase_2,stop,200.0,200.0,4.0,,,,,,,,,yellow,hexagon
0.0,3.0,3.0,0.0,6.0,6.0,311.4282239985186,8.0,1.0,phase_2,go,250.0,200.0,1.0,,,,,,,,,blue,flipped triangle
0.0,8.0,4.0,1.0,6.0,0.0,0.0,8.0,1.0,phase_2,stop,250.0,200.0,4.0,,,,,,,,,magenta,I
0.0,6.0,2.0,1.0,5.0,5.0,326.0713460003899,8.0,1.0,phase_2,stop,250.0,250.0,3.0,,,,,,,,,yellow,hexagon
0.0,8.0,4.0,1.0,5.0,0.0,0.0,8.0,1.0,phase_2,stop,200.0,250.0,4.0,,,,,,,,,magenta,I
0.0,6.0,2.0,1.0,5.0,5.0,463.2838830002583,8.0,1.0,phase_2,go,250.0,250.0,1.0,,,,,,,,,yellow,hexagon
0.0,4.0,4.0,0.0,5.0,5.0,309.1920799997751,8.0,1.0,phase_2,go,250.0,250.0,1.0,,,,,,,,,white,square
0.0,8.0,4.0,1.0,5.0,5.0,511.07652000064263,8.0,1.0,phase_2,stop,250.0,250.0,3.0,,,,,,,,,magenta,I
0.0,3.0,3.0,0.0,5.0,5.0,376.2080560009053,8.0,1.0,phase_2,go,200.0,250.0,1.0,,,,,,,,,blue,flipped triangle
0.0,3.0,3.0,0.0,5.0,5.0,368.3690229991043,8.0,1.0,phase_2,go,200.0,250.0,1.0,,,,,,,,,blue,flipped triangle
0.0,2.0,2.0,0.0,5.0,5.0,398.9440479999757,8.0,1.0,phase_2,go,200.0,250.0,1.0,,,,,,,,,green,diamond
0.0,8.0,4.0,1.0,6.0,6.0,290.509471000405,8.0,1.0,phase_2,go,200.0,250.0,1.0,,,,,,,,,magenta,I
0.0,1.0,1.0,0.0,5.0,5.0,294.4526550018054,8.0,1.0,phase_2,go,200.0,250.0,1.0,,,,,,,,,gray,triangle
0.0,4.0,4.0,0.0,5.0,5.0,324.1258570014906,8.0,1.0,phase_2,go,200.0,250.0,1.0,,,,,,,,,white,square
0.0,2.0,2.0,0.0,6.0,6.0,293.3636429988837,8.0,1.0,phase_2,go,200.0,250.0,1.0,,,,,,,,,green,diamond
0.0,4.0,4.0,0.0,5.0,5.0,379.7435489977943,8.0,1.0,phase_2,go,200.0,250.0,1.0,,,,,,,,,white,square
0.0,4.0,4.0,0.0,6.0,6.0,324.0999990011914,8.0,1.0,phase_2,go,200.0,250.0,1.0,,,,,,,,,white,square
0.0,7.0,3.0,1.0,6.0,6.0,316.1468200014496,8.0,1.0,phase_2,stop,200.0,250.0,3.0,,,,,,,,,orange,circle
0.0,4.0,4.0,0.0,5.0,5.0,395.8931420020235,8.0,1.0,phase_2,go,200.0,200.0,1.0,,,,,,,,,white,square
0.0,8.0,4.0,1.0,6.0,6.0,310.3446929999336,8.0,1.0,phase_2,stop,200.0,200.0,3.0,,,,,,,,,magenta,I
0.0,3.0,3.0,0.0,5.0,5.0,429.7792670004128,8.0,1.0,phase_2,go,200.0,150.0,1.0,,,,,,,,,blue,flipped triangle
0.0,5.0,1.0,1.0,6.0,0.0,0.0,8.0,1.0,phase_2,stop,200.0,150.0,4.0,,,,,,,,,cyan,cross
0.0,4.0,4.0,0.0,5.0,5.0,391.4353470026981,8.0,1.0,phase_2,go,200.0,200.0,1.0,,,,,,,,,white,square
0.0,4.0,4.0,0.0,5.0,5.0,396.2885079999978,8.0,1.0,phase_2,go,200.0,200.0,1.0,,,,,,,,,white,square
0.0,3.0,3.0,0.0,5.0,5.0,364.5501560022239,8.0,1.0,phase_2,go,200.0,200.0,1.0,,,,,,,,,blue,flipped triangle
0.0,2.0,2.0,0.0,6.0,6.0,374.2512819990224,8.0,1.0,phase_2,go,200.0,200.0,1.0,,,,,,,,,green,diamond
0.0,2.0,2.0,0.0,5.0,5.0,325.1541140016343,8.0,1.0,phase_2,go,200.0,200.0,1.0,,,,,,,,,green,diamond
0.0,6.0,2.0,1.0,6.0,6.0,348.8708209988544,8.0,1.0,phase_2,go,200.0,200.0,1.0,,,,,,,,,yellow,hexagon
0.0,6.0,2.0,1.0,7.0,5.0,4644.657095002913,1.0,1.0,phase_3,,,,,162.0,3.0,216.0,108.0,270.0,324.0,162.0,54.0,yellow,hexagon
0.0,2.0,2.0,0.0,7.0,2.0,3207.635852999374,1.0,1.0,phase_3,,,,,49.0,1.0,147.0,49.0,245.0,294.0,196.0,98.0,green,diamond
0.0,1.0,1.0,0.0,7.0,6.0,4247.122117001709,1.0,1.0,phase_3,,,,,195.0,5.0,156.0,39.0,117.0,78.0,234.0,195.0,gray,triangle
0.0,3.0,3.0,0.0,7.0,2.0,1581.2081830008538,1.0,2.0,phase_3,,,,,270.0,5.0,162.0,270.0,216.0,324.0,108.0,54.0,blue,flipped triangle
0.0,8.0,4.0,1.0,7.0,4.0,1257.137166998291,1.0,1.0,phase_3,,,,,270.0,5.0,108.0,324.0,216.0,270.0,54.0,162.0,magenta,I
0.0,4.0,4.0,0.0,7.0,2.0,2094.7325120032474,1.0,1.0,phase_3,,,,,220.0,5.0,264.0,220.0,176.0,44.0,132.0,88.0,white,square
0.0,1.0,1.0,0.0,7.0,6.0,1620.9400570005528,1.0,1.0,phase_3,,,,,204.0,6.0,136.0,34.0,102.0,170.0,68.0,204.0,gray,triangle
0.0,6.0,2.0,1.0,7.0,2.0,2019.169830000465,1.0,1.0,phase_3,,,,,195.0,5.0,156.0,195.0,39.0,78.0,117.0,234.0,yellow,hexagon
0.0,8.0,4.0,1.0,7.0,3.0,1713.160756000434,1.0,1.0,phase_3,,,,,204.0,6.0,34.0,136.0,204.0,68.0,170.0,102.0,magenta,I
0.0,1.0,1.0,0.0,7.0,5.0,971.8890989970532,1.0,1.0,phase_3,,,,,78.0,2.0,117.0,156.0,234.0,39.0,78.0,195.0,gray,triangle
0.0,7.0,3.0,1.0,7.0,4.0,1362.869481999951,1.0,1.0,phase_3,,,,,245.0,5.0,196.0,49.0,98.0,245.0,294.0,147.0,orange,circle
0.0,7.0,3.0,1.0,7.0,1.0,1786.274798996601,1.0,1.0,phase_3,,,,,170.0,5.0,170.0,136.0,102.0,204.0,34.0,68.0,orange,circle
0.0,3.0,3.0,0.0,7.0,5.0,2009.9756210001942,1.0,1.0,phase_3,,,,,324.0,6.0,54.0,162.0,270.0,108.0,324.0,216.0,blue,flipped triangle
0.0,4.0,4.0,0.0,7.0,3.0,1699.4048369997472,1.0,1.0,phase_3,,,,,204.0,6.0,34.0,102.0,204.0,170.0,136.0,68.0,white,square
0.0,2.0,2.0,0.0,7.0,5.0,1452.65902599931,1.0,1.0,phase_3,,,,,162.0,3.0,216.0,324.0,54.0,108.0,162.0,270.0,green,diamond
0.0,7.0,3.0,1.0,7.0,2.0,1985.0314570030605,1.0,1.0,phase_3,,,,,195.0,5.0,39.0,195.0,156.0,117.0,234.0,78.0,orange,circle
0.0,1.0,1.0,0.0,7.0,4.0,1329.364404999069,1.0,1.0,phase_3,,,,,324.0,6.0,108.0,216.0,54.0,324.0,162.0,270.0,gray,triangle
0.0,4.0,4.0,0.0,7.0,5.0,914.9425780015008,1.0,1.0,phase_3,,,,,117.0,3.0,156.0,234.0,195.0,78.0,117.0,39.0,white,square
0.0,2.0,2.0,0.0,7.0,2.0,1869.201126002736,1.0,1.0,phase_3,,,,,195.0,5.0,39.0,195.0,78.0,156.0,117.0,234.0,green,diamond
0.0,6.0,2.0,1.0,7.0,3.0,2350.954476001789,1.0,1.0,phase_3,,,,,216.0,4.0,162.0,270.0,216.0,54.0,324.0,108.0,yellow,hexagon
0.0,5.0,1.0,1.0,7.0,4.0,1089.697843999602,2.0,1.0,phase_3,,,,,196.0,4.0,147.0,294.0,49.0,196.0,245.0,98.0,cyan,cross
0.0,8.0,4.0,1.0,7.0,6.0,1670.3586429975985,2.0,1.0,phase_3,,,,,270.0,5.0,324.0,216.0,162.0,108.0,54.0,270.0,magenta,I
0.0,5.0,1.0,1.0,7.0,2.0,1938.5770120024968,2.0,1.0,phase_3,,,,,162.0,3.0,216.0,162.0,54.0,270.0,324.0,108.0,cyan,cross
0.0,6.0,2.0,1.0,7.0,5.0,1299.6091569984856,2.0,1.0,phase_3,,,,,294.0,6.0,49.0,245.0,196.0,98.0,294.0,147.0,yellow,hexagon
0.0,5.0,1.0,1.0,7.0,2.0,1130.427224001323,2.0,1.0,phase_3,,,,,294.0,6.0,196.0,294.0,49.0,98.0,147.0,245.0,cyan,cross
0.0,2.0,2.0,0.0,7.0,6.0,1194.56266799898,2.0,1.0,phase_3,,,,,234.0,6.0,156.0,39.0,117.0,78.0,195.0,234.0,green,diamond
0.0,8.0,4.0,1.0,7.0,2.0,912.5733059991036,2.0,1.0,phase_3,,,,,195.0,5.0,78.0,195.0,117.0,39.0,234.0,156.0,magenta,I
0.0,8.0,4.0,1.0,7.0,5.0,954.335132999404,2.0,1.0,phase_3,,,,,264.0,6.0,88.0,132.0,220.0,176.0,264.0,44.0,magenta,I
0.0,1.0,1.0,0.0,7.0,3.0,1337.8144950002024,2.0,1.0,phase_3,,,,,147.0,3.0,49.0,196.0,147.0,245.0,98.0,294.0,gray,triangle
0.0,6.0,2.0,1.0,7.0,1.0,1128.3452800016676,2.0,1.0,phase_3,,,,,170.0,5.0,170.0,34.0,204.0,102.0,136.0,68.0,yellow,hexagon
0.0,4.0,4.0,0.0,7.0,6.0,1156.8077670017374,2.0,1.0,phase_3,,,,,98.0,2.0,294.0,245.0,147.0,196.0,49.0,98.0,white,square
0.0,5.0,1.0,1.0,7.0,1.0,1853.0469780016572,2.0,1.0,phase_3,,,,,132.0,3.0,132.0,220.0,88.0,264.0,44.0,176.0,cyan,cross
0.0,6.0,2.0,1.0,7.0,4.0,1736.331328000233,2.0,1.0,phase_3,,,,,204.0,6.0,102.0,170.0,136.0,204.0,34.0,68.0,yellow,hexagon
0.0,1.0,1.0,0.0,7.0,2.0,1193.5382450028555,2.0,1.0,phase_3,,,,,220.0,5.0,44.0,220.0,176.0,132.0,264.0,88.0,gray,triangle
0.0,7.0,3.0,1.0,7.0,6.0,1553.8411289999203,2.0,1.0,phase_3,,,,,54.0,1.0,108.0,162.0,324.0,270.0,216.0,54.0,orange,circle
0.0,3.0,3.0,0.0,7.0,3.0,1354.5176359984907,2.0,1.0,phase_3,,,,,156.0,4.0,234.0,195.0,156.0,117.0,78.0,39.0,blue,flipped triangle
0.0,8.0,4.0,1.0,7.0,1.0,1230.2272630004154,2.0,1.0,phase_3,,,,,196.0,4.0,196.0,294.0,147.0,98.0,245.0,49.0,magenta,I
0.0,2.0,2.0,0.0,7.0,6.0,1067.855393001082,2.0,1.0,phase_3,,,,,136.0,4.0,34.0,102.0,170.0,204.0,68.0,136.0,green,diamond
0.0,8.0,4.0,1.0,7.0,4.0,1374.2974040033005,2.0,1.0,phase_3,,,,,78.0,2.0,195.0,39.0,117.0,78.0,234.0,156.0,magenta,I
0.0,3.0,3.0,0.0,7.0,6.0,1437.1853280026698,2.0,1.0,phase_3,,,,,204.0,6.0,34.0,68.0,102.0,170.0,136.0,204.0,blue,flipped triangle
0.0,1.0,1.0,0.0,7.0,3.0,1210.3539030031245,3.0,1.0,phase_3,,,,,132.0,3.0,220.0,264.0,132.0,44.0,176.0,88.0,gray,triangle
0.0,1.0,1.0,0.0,7.0,5.0,1168.2668370012834,3.0,1.0,phase_3,,,,,196.0,4.0,245.0,98.0,294.0,49.0,196.0,147.0,gray,triangle
0.0,7.0,3.0,1.0,7.0,3.0,1095.966912998847,3.0,1.0,phase_3,,,,,78.0,2.0,195.0,117.0,78.0,39.0,156.0,234.0,orange,circle
0.0,5.0,1.0,1.0,7.0,3.0,996.2206760028494,3.0,1.0,phase_3,,,,,195.0,5.0,39.0,156.0,195.0,117.0,78.0,234.0,cyan,cross
0.0,4.0,4.0,0.0,7.0,5.0,1033.7992629974906,3.0,1.0,phase_3,,,,,270.0,5.0,54.0,216.0,324.0,108.0,270.0,162.0,white,square
0.0,8.0,4.0,1.0,7.0,6.0,1427.6526749999905,3.0,1.0,phase_3,,,,,220.0,5.0,176.0,132.0,264.0,44.0,88.0,220.0,magenta,I
0.0,7.0,3.0,1.0,7.0,2.0,1391.1625040018407,3.0,1.0,phase_3,,,,,88.0,2.0,44.0,88.0,264.0,132.0,220.0,176.0,orange,circle
0.0,7.0,3.0,1.0,7.0,2.0,1687.3650480010838,3.0,1.0,phase_3,,,,,102.0,3.0,34.0,102.0,204.0,68.0,170.0,136.0,orange,circle
0.0,1.0,1.0,0.0,7.0,5.0,1398.095939999621,3.0,1.0,phase_3,,,,,270.0,5.0,216.0,162.0,324.0,108.0,270.0,54.0,gray,triangle
0.0,3.0,3.0,0.0,7.0,3.0,941.1201990005792,3.0,1.0,phase_3,,,,,176.0,4.0,88.0,132.0,176.0,44.0,220.0,264.0,blue,flipped triangle
0.0,2.0,2.0,0.0,7.0,4.0,2151.626574999682,3.0,1.0,phase_3,,,,,204.0,6.0,136.0,102.0,68.0,204.0,170.0,34.0,green,diamond
0.0,3.0,3.0,0.0,7.0,1.0,2128.3026169985533,3.0,1.0,phase_3,,,,,170.0,5.0,170.0,204.0,102.0,34.0,136.0,68.0,blue,flipped triangle
0.0,3.0,3.0,0.0,7.0,4.0,1473.3275690014125,3.0,1.0,phase_3,,,,,294.0,6.0,49.0,147.0,98.0,294.0,196.0,245.0,blue,flipped triangle
0.0,5.0,1.0,1.0,7.0,1.0,1462.4221779995423,3.0,1.0,phase_3,,,,,136.0,4.0,136.0,170.0,204.0,102.0,34.0,68.0,cyan,cross
0.0,2.0,2.0,0.0,7.0,5.0,1273.8215710014629,3.0,1.0,phase_3,,,,,176.0,4.0,220.0,44.0,132.0,88.0,176.0,264.0,green,diamond
0.0,3.0,3.0,0.0,7.0,3.0,1556.660209000256,3.0,1.0,phase_3,,,,,264.0,6.0,176.0,220.0,264.0,44.0,88.0,132.0,blue,flipped triangle
0.0,6.0,2.0,1.0,7.0,5.0,932.0140519994312,3.0,1.0,phase_3,,,,,156.0,4.0,39.0,234.0,117.0,78.0,156.0,195.0,yellow,hexagon
0.0,6.0,2.0,1.0,7.0,5.0,1027.259283000603,3.0,1.0,phase_3,,,,,220.0,5.0,88.0,132.0,44.0,176.0,220.0,264.0,yellow,hexagon
0.0,6.0,2.0,1.0,7.0,2.0,1101.9649850022688,3.0,1.0,phase_3,,,,,196.0,4.0,245.0,196.0,294.0,147.0,98.0,49.0,yellow,hexagon
0.0,7.0,3.0,1.0,7.0,2.0,2070.5074300021806,3.0,1.0,phase_3,,,,,270.0,5.0,324.0,270.0,108.0,216.0,54.0,162.0,orange,circle
0.0,2.0,2.0,0.0,7.0,4.0,845.5462199999602,4.0,1.0,phase_3,,,,,147.0,3.0,49.0,245.0,196.0,147.0,98.0,294.0,green,diamond
0.0,3.0,3.0,0.0,7.0,1.0,1105.0866119985585,4.0,1.0,phase_3,,,,,294.0,6.0,294.0,98.0,245.0,147.0,196.0,49.0,blue,flipped triangle
0.0,6.0,2.0,1.0,7.0,5.0,1960.370754997712,4.0,1.0,phase_3,,,,,88.0,2.0,220.0,264.0,132.0,176.0,88.0,44.0,yellow,hexagon
0.0,5.0,1.0,1.0,7.0,5.0,1179.4734280010744,4.0,1.0,phase_3,,,,,162.0,3.0,108.0,216.0,324.0,54.0,162.0,270.0,cyan,cross
0.0,5.0,1.0,1.0,7.0,3.0,1324.5986980000453,4.0,1.0,phase_3,,,,,132.0,3.0,176.0,264.0,132.0,44.0,220.0,88.0,cyan,cross
0.0,7.0,3.0,1.0,7.0,5.0,734.5851230020344,4.0,1.0,phase_3,,,,,245.0,5.0,49.0,196.0,294.0,147.0,245.0,98.0,orange,circle
0.0,4.0,4.0,0.0,7.0,2.0,1092.2652080007538,4.0,1.0,phase_3,,,,,196.0,4.0,245.0,196.0,294.0,98.0,147.0,49.0,white,square
0.0,1.0,1.0,0.0,7.0,5.0,877.2314359994198,4.0,1.0,phase_3,,,,,170.0,5.0,34.0,68.0,204.0,102.0,170.0,136.0,gray,triangle
0.0,4.0,4.0,0.0,7.0,3.0,1416.1102500002016,4.0,1.0,phase_3,,,,,264.0,6.0,88.0,44.0,264.0,132.0,176.0,220.0,white,square
0.0,5.0,1.0,1.0,7.0,5.0,911.6928760013252,4.0,1.0,phase_3,,,,,156.0,4.0,234.0,117.0,39.0,78.0,156.0,195.0,cyan,cross
0.0,4.0,4.0,0.0,7.0,6.0,1543.117249002535,4.0,1.0,phase_3,,,,,216.0,4.0,162.0,270.0,108.0,324.0,54.0,216.0,white,square
0.0,7.0,3.0,1.0,7.0,2.0,1140.5554689990822,4.0,1.0,phase_3,,,,,264.0,6.0,220.0,264.0,88.0,44.0,176.0,132.0,orange,circle
0.0,4.0,4.0,0.0,7.0,4.0,1105.4622960000415,4.0,1.0,phase_3,,,,,204.0,6.0,34.0,170.0,68.0,204.0,136.0,102.0,white,square
0.0,5.0,1.0,1.0,7.0,5.0,1925.0975539980573,4.0,1.0,phase_3,,,,,170.0,5.0,204.0,102.0,136.0,34.0,170.0,68.0,cyan,cross
0.0,4.0,4.0,0.0,7.0,3.0,2161.4636089980195,4.0,1.0,phase_3,,,,,117.0,3.0,156.0,195.0,117.0,78.0,39.0,234.0,white,square
0.0,8.0,4.0,1.0,7.0,4.0,1396.6110710025532,4.0,1.0,phase_3,,,,,147.0,3.0,294.0,196.0,98.0,147.0,245.0,49.0,magenta,I
0.0,8.0,4.0,1.0,7.0,5.0,1127.8199699991092,4.0,1.0,phase_3,,,,,204.0,6.0,136.0,170.0,34.0,68.0,204.0,102.0,magenta,I
0.0,2.0,2.0,0.0,7.0,2.0,1701.1196790008398,4.0,1.0,phase_3,,,,,162.0,3.0,108.0,162.0,216.0,270.0,54.0,324.0,green,diamond
0.0,3.0,3.0,0.0,7.0,6.0,1348.9855350017024,4.0,1.0,phase_3,,,,,195.0,5.0,117.0,156.0,78.0,234.0,39.0,195.0,blue,flipped triangle
0.0,2.0,2.0,0.0,7.0,1.0,1174.2779630003497,4.0,1.0,phase_3,,,,,220.0,5.0,220.0,176.0,264.0,132.0,88.0,44.0,green,diamond
