raw_reward_magnitude,stim_reward,stepwise_reward_magnitude,paired_with_stopping,stim_location,response,reaction_time,block,num_trial_presentations,which_phase,stop_signal_trial_type,left_SSD,right_SSD,accuracy,chosen_bidding_amount,chosen_bidding_level,possible_bid_1,possible_bid_2,possible_bid_3,possible_bid_4,possible_bid_5,possible_bid_6,color_text,shape_text
86.0,2.0,2.0,0.0,3.0,3.0,449.6267999998053,1.0,1.0,phase_1,,,,,,,,,,,,,gray,hexagon
27.0,5.0,1.0,1.0,2.0,2.0,350.1424580001639,1.0,1.0,phase_1,,,,,,,,,,,,,blue,triangle
63.0,1.0,1.0,0.0,4.0,4.0,322.8751770000144,1.0,1.0,phase_1,,,,,,,,,,,,,magenta,flipped triangle
404.0,8.0,4.0,1.0,3.0,3.0,314.6694219999517,1.0,1.0,phase_1,,,,,,,,,,,,,orange,I
0.0,7.0,0.0,1.0,1.0,1.0,241.9484170000032,1.0,1.0,phase_1,,,,,,,,,,,,,white,cross
93.0,2.0,2.0,0.0,4.0,4.0,279.3980759997794,1.0,1.0,phase_1,,,,,,,,,,,,,gray,hexagon
43.0,1.0,1.0,0.0,4.0,4.0,296.669286999986,1.0,1.0,phase_1,,,,,,,,,,,,,magenta,flipped triangle
123.0,2.0,2.0,0.0,1.0,1.0,281.3536209998801,1.0,1.0,phase_1,,,,,,,,,,,,,gray,hexagon
0.0,2.0,0.0,0.0,1.0,1.0,347.2208609998688,1.0,1.0,phase_1,,,,,,,,,,,,,gray,hexagon
0.0,1.0,0.0,0.0,2.0,2.0,331.8336410000029,1.0,1.0,phase_1,,,,,,,,,,,,,magenta,flipped triangle
73.0,5.0,1.0,1.0,1.0,1.0,346.8068060001315,1.0,1.0,phase_1,,,,,,,,,,,,,blue,triangle
183.0,7.0,3.0,1.0,1.0,1.0,326.2671520001277,1.0,1.0,phase_1,,,,,,,,,,,,,white,cross
83.0,6.0,2.0,1.0,3.0,3.0,355.9765089999018,1.0,1.0,phase_1,,,,,,,,,,,,,yellow,square
76.0,2.0,2.0,0.0,1.0,1.0,309.6948659999725,1.0,1.0,phase_1,,,,,,,,,,,,,gray,hexagon
412.0,8.0,4.0,1.0,1.0,1.0,289.9170210000648,1.0,1.0,phase_1,,,,,,,,,,,,,orange,I
188.0,3.0,3.0,0.0,2.0,2.0,312.2827019999477,1.0,1.0,phase_1,,,,,,,,,,,,,green,diamond
119.0,2.0,2.0,0.0,1.0,1.0,268.618755000034,1.0,1.0,phase_1,,,,,,,,,,,,,gray,hexagon
102.0,6.0,2.0,1.0,2.0,2.0,323.2981219998692,1.0,1.0,phase_1,,,,,,,,,,,,,yellow,square
27.0,1.0,1.0,0.0,1.0,1.0,287.4892610000188,1.0,1.0,phase_1,,,,,,,,,,,,,magenta,flipped triangle
62.0,5.0,1.0,1.0,4.0,4.0,312.6840620000166,1.0,1.0,phase_1,,,,,,,,,,,,,blue,triangle
111.0,2.0,2.0,0.0,2.0,2.0,303.9197069999773,1.0,1.0,phase_1,,,,,,,,,,,,,gray,hexagon
0.0,4.0,0.0,0.0,4.0,4.0,287.0456509999712,1.0,1.0,phase_1,,,,,,,,,,,,,cyan,circle
392.0,4.0,4.0,0.0,1.0,1.0,269.85567499991697,1.0,1.0,phase_1,,,,,,,,,,,,,cyan,circle
76.0,6.0,2.0,1.0,2.0,2.0,297.0543840001483,1.0,1.0,phase_1,,,,,,,,,,,,,yellow,square
108.0,2.0,2.0,0.0,1.0,1.0,320.1836270000058,1.0,1.0,phase_1,,,,,,,,,,,,,gray,hexagon
0.0,4.0,0.0,0.0,1.0,1.0,285.7896199998322,1.0,1.0,phase_1,,,,,,,,,,,,,cyan,circle
391.0,4.0,4.0,0.0,1.0,1.0,257.8597410001748,1.0,1.0,phase_1,,,,,,,,,,,,,cyan,circle
409.0,4.0,4.0,0.0,2.0,2.0,302.1385199999713,1.0,1.0,phase_1,,,,,,,,,,,,,cyan,circle
0.0,3.0,0.0,0.0,1.0,1.0,242.0942480000576,1.0,1.0,phase_1,,,,,,,,,,,,,green,diamond
182.0,3.0,3.0,0.0,4.0,4.0,315.1997429999937,1.0,1.0,phase_1,,,,,,,,,,,,,green,diamond
224.0,3.0,3.0,0.0,3.0,3.0,282.0439689999148,1.0,1.0,phase_1,,,,,,,,,,,,,green,diamond
118.0,2.0,2.0,0.0,4.0,4.0,375.4217460000291,1.0,1.0,phase_1,,,,,,,,,,,,,gray,hexagon
201.0,3.0,3.0,0.0,2.0,2.0,285.4063780000615,1.0,1.0,phase_1,,,,,,,,,,,,,green,diamond
38.0,1.0,1.0,0.0,4.0,4.0,296.878979999974,1.0,1.0,phase_1,,,,,,,,,,,,,magenta,flipped triangle
205.0,7.0,3.0,1.0,3.0,3.0,331.8309650001083,1.0,1.0,phase_1,,,,,,,,,,,,,white,cross
118.0,6.0,2.0,1.0,3.0,3.0,318.5110819999863,1.0,1.0,phase_1,,,,,,,,,,,,,yellow,square
424.0,8.0,4.0,1.0,2.0,2.0,313.6838309999348,1.0,1.0,phase_1,,,,,,,,,,,,,orange,I
418.0,8.0,4.0,1.0,1.0,1.0,273.1692150000526,1.0,1.0,phase_1,,,,,,,,,,,,,orange,I
107.0,6.0,2.0,1.0,4.0,4.0,250.1643609998609,1.0,1.0,phase_1,,,,,,,,,,,,,yellow,square
46.0,5.0,1.0,1.0,3.0,3.0,352.4504130000423,1.0,1.0,phase_1,,,,,,,,,,,,,blue,triangle
188.0,7.0,3.0,1.0,1.0,1.0,276.5443959999629,1.0,1.0,phase_1,,,,,,,,,,,,,white,cross
104.0,6.0,2.0,1.0,1.0,1.0,387.927186999832,1.0,1.0,phase_1,,,,,,,,,,,,,yellow,square
413.0,4.0,4.0,0.0,3.0,3.0,298.0339739999635,1.0,1.0,phase_1,,,,,,,,,,,,,cyan,circle
217.0,3.0,3.0,0.0,4.0,4.0,356.181136000032,1.0,1.0,phase_1,,,,,,,,,,,,,green,diamond
0.0,3.0,0.0,0.0,1.0,1.0,314.27411000004207,1.0,1.0,phase_1,,,,,,,,,,,,,green,diamond
93.0,6.0,2.0,1.0,1.0,1.0,248.4358310000516,1.0,1.0,phase_1,,,,,,,,,,,,,yellow,square
0.0,3.0,0.0,0.0,1.0,1.0,304.7225439997874,1.0,1.0,phase_1,,,,,,,,,,,,,green,diamond
417.0,8.0,4.0,1.0,3.0,3.0,356.1514359998909,1.0,1.0,phase_1,,,,,,,,,,,,,orange,I
179.0,3.0,3.0,0.0,1.0,1.0,282.6178299999355,1.0,1.0,phase_1,,,,,,,,,,,,,green,diamond
104.0,2.0,2.0,0.0,1.0,1.0,402.3504320000484,1.0,1.0,phase_1,,,,,,,,,,,,,gray,hexagon
104.0,6.0,2.0,1.0,3.0,3.0,278.5577879999437,1.0,1.0,phase_1,,,,,,,,,,,,,yellow,square
52.0,5.0,1.0,1.0,2.0,2.0,334.3999900000654,1.0,1.0,phase_1,,,,,,,,,,,,,blue,triangle
0.0,7.0,0.0,1.0,4.0,4.0,308.5007059999043,1.0,1.0,phase_1,,,,,,,,,,,,,white,cross
76.0,2.0,2.0,0.0,3.0,3.0,296.5347790000123,1.0,1.0,phase_1,,,,,,,,,,,,,gray,hexagon
122.0,2.0,2.0,0.0,4.0,4.0,312.8569969999262,1.0,1.0,phase_1,,,,,,,,,,,,,gray,hexagon
0.0,2.0,0.0,0.0,3.0,3.0,316.7068190000464,1.0,1.0,phase_1,,,,,,,,,,,,,gray,hexagon
213.0,3.0,3.0,0.0,2.0,2.0,303.3482759999515,1.0,1.0,phase_1,,,,,,,,,,,,,green,diamond
97.0,6.0,2.0,1.0,1.0,1.0,290.8788849999837,1.0,1.0,phase_1,,,,,,,,,,,,,yellow,square
409.0,4.0,4.0,0.0,3.0,3.0,300.6003810000948,1.0,1.0,phase_1,,,,,,,,,,,,,cyan,circle
183.0,7.0,3.0,1.0,3.0,3.0,312.7733019998686,1.0,1.0,phase_1,,,,,,,,,,,,,white,cross
396.0,4.0,4.0,0.0,4.0,4.0,414.3422320000809,1.0,1.0,phase_1,,,,,,,,,,,,,cyan,circle
213.0,3.0,3.0,0.0,4.0,4.0,303.9775140000529,1.0,1.0,phase_1,,,,,,,,,,,,,green,diamond
0.0,1.0,0.0,0.0,1.0,1.0,415.4786300000523,1.0,1.0,phase_1,,,,,,,,,,,,,magenta,flipped triangle
91.0,6.0,2.0,1.0,1.0,1.0,392.9329719999259,1.0,1.0,phase_1,,,,,,,,,,,,,yellow,square
123.0,6.0,2.0,1.0,2.0,2.0,344.6259220002048,1.0,1.0,phase_1,,,,,,,,,,,,,yellow,square
201.0,7.0,3.0,1.0,4.0,4.0,325.2309869999408,1.0,1.0,phase_1,,,,,,,,,,,,,white,cross
91.0,2.0,2.0,0.0,4.0,4.0,480.8723999999529,1.0,1.0,phase_1,,,,,,,,,,,,,gray,hexagon
0.0,1.0,0.0,0.0,1.0,1.0,365.3736200001276,1.0,1.0,phase_1,,,,,,,,,,,,,magenta,flipped triangle
182.0,7.0,3.0,1.0,2.0,2.0,333.3089280001786,1.0,1.0,phase_1,,,,,,,,,,,,,white,cross
81.0,6.0,2.0,1.0,3.0,3.0,345.9130210001149,1.0,1.0,phase_1,,,,,,,,,,,,,yellow,square
0.0,5.0,0.0,1.0,3.0,3.0,422.5501799999165,1.0,1.0,phase_1,,,,,,,,,,,,,blue,triangle
394.0,8.0,4.0,1.0,4.0,4.0,380.4673440001807,1.0,1.0,phase_1,,,,,,,,,,,,,orange,I
61.0,5.0,1.0,1.0,3.0,3.0,318.4325239999452,1.0,1.0,phase_1,,,,,,,,,,,,,blue,triangle
0.0,1.0,0.0,0.0,3.0,3.0,307.7640279998377,1.0,1.0,phase_1,,,,,,,,,,,,,magenta,flipped triangle
0.0,6.0,0.0,1.0,1.0,1.0,325.6418769999527,1.0,1.0,phase_1,,,,,,,,,,,,,yellow,square
70.0,5.0,1.0,1.0,1.0,1.0,446.3458989998798,1.0,1.0,phase_1,,,,,,,,,,,,,blue,triangle
42.0,5.0,1.0,1.0,4.0,4.0,401.1975470000379,1.0,1.0,phase_1,,,,,,,,,,,,,blue,triangle
86.0,6.0,2.0,1.0,1.0,1.0,318.446214000005,1.0,1.0,phase_1,,,,,,,,,,,,,yellow,square
179.0,7.0,3.0,1.0,3.0,3.0,544.8044549998485,1.0,1.0,phase_1,,,,,,,,,,,,,white,cross
57.0,1.0,1.0,0.0,4.0,4.0,387.0007499999701,1.0,1.0,phase_1,,,,,,,,,,,,,magenta,flipped triangle
0.0,5.0,0.0,1.0,1.0,1.0,292.5612250000995,1.0,1.0,phase_1,,,,,,,,,,,,,blue,triangle
409.0,8.0,4.0,1.0,1.0,1.0,413.4901669999635,1.0,1.0,phase_1,,,,,,,,,,,,,orange,I
185.0,3.0,3.0,0.0,2.0,2.0,375.2524389999507,1.0,1.0,phase_1,,,,,,,,,,,,,green,diamond
188.0,7.0,3.0,1.0,3.0,3.0,374.4061290001355,1.0,1.0,phase_1,,,,,,,,,,,,,white,cross
0.0,3.0,0.0,0.0,1.0,1.0,351.5124860000469,1.0,1.0,phase_1,,,,,,,,,,,,,green,diamond
199.0,7.0,3.0,1.0,1.0,1.0,375.6021589999818,1.0,1.0,phase_1,,,,,,,,,,,,,white,cross
85.0,2.0,2.0,0.0,3.0,3.0,405.4727299999285,1.0,1.0,phase_1,,,,,,,,,,,,,gray,hexagon
190.0,3.0,3.0,0.0,2.0,2.0,312.2455769998851,1.0,1.0,phase_1,,,,,,,,,,,,,green,diamond
421.0,8.0,4.0,1.0,4.0,4.0,276.6864949999217,1.0,1.0,phase_1,,,,,,,,,,,,,orange,I
119.0,6.0,2.0,1.0,3.0,3.0,282.8635759999542,1.0,1.0,phase_1,,,,,,,,,,,,,yellow,square
0.0,3.0,0.0,0.0,4.0,4.0,348.5513159998845,1.0,1.0,phase_1,,,,,,,,,,,,,green,diamond
192.0,3.0,3.0,0.0,3.0,3.0,300.0394150001284,1.0,1.0,phase_1,,,,,,,,,,,,,green,diamond
0.0,7.0,0.0,1.0,3.0,3.0,334.4257649998781,1.0,1.0,phase_1,,,,,,,,,,,,,white,cross
183.0,3.0,3.0,0.0,2.0,2.0,315.3158060001715,1.0,1.0,phase_1,,,,,,,,,,,,,green,diamond
205.0,3.0,3.0,0.0,3.0,3.0,267.2289569998156,1.0,1.0,phase_1,,,,,,,,,,,,,green,diamond
413.0,8.0,4.0,1.0,1.0,1.0,361.5383890000885,1.0,1.0,phase_1,,,,,,,,,,,,,orange,I
0.0,5.0,0.0,1.0,2.0,2.0,325.2001680000376,1.0,1.0,phase_1,,,,,,,,,,,,,blue,triangle
388.0,4.0,4.0,0.0,3.0,3.0,300.9119550001742,1.0,1.0,phase_1,,,,,,,,,,,,,cyan,circle
40.0,1.0,1.0,0.0,4.0,4.0,388.2591039998715,1.0,1.0,phase_1,,,,,,,,,,,,,magenta,flipped triangle
402.0,8.0,4.0,1.0,2.0,2.0,345.7498599998416,1.0,1.0,phase_1,,,,,,,,,,,,,orange,I
0.0,6.0,0.0,1.0,4.0,4.0,415.3345270001409,2.0,1.0,phase_1,,,,,,,,,,,,,yellow,square
388.0,4.0,4.0,0.0,2.0,2.0,334.1579159998673,2.0,1.0,phase_1,,,,,,,,,,,,,cyan,circle
182.0,3.0,3.0,0.0,1.0,1.0,314.0646080000806,2.0,1.0,phase_1,,,,,,,,,,,,,green,diamond
102.0,2.0,2.0,0.0,2.0,2.0,371.3095180000891,2.0,1.0,phase_1,,,,,,,,,,,,,gray,hexagon
419.0,4.0,4.0,0.0,2.0,2.0,361.1472970001159,2.0,1.0,phase_1,,,,,,,,,,,,,cyan,circle
0.0,6.0,0.0,1.0,2.0,2.0,322.0271449999927,2.0,1.0,phase_1,,,,,,,,,,,,,yellow,square
29.0,5.0,1.0,1.0,1.0,1.0,357.8475050001088,2.0,1.0,phase_1,,,,,,,,,,,,,blue,triangle
224.0,3.0,3.0,0.0,2.0,2.0,282.3680300000433,2.0,1.0,phase_1,,,,,,,,,,,,,green,diamond
182.0,7.0,3.0,1.0,1.0,1.0,358.5621940001147,2.0,1.0,phase_1,,,,,,,,,,,,,white,cross
402.0,4.0,4.0,0.0,4.0,4.0,373.8048459999845,2.0,1.0,phase_1,,,,,,,,,,,,,cyan,circle
213.0,7.0,3.0,1.0,3.0,3.0,315.9612020001532,2.0,1.0,phase_1,,,,,,,,,,,,,white,cross
91.0,2.0,2.0,0.0,3.0,3.0,332.440219000091,2.0,1.0,phase_1,,,,,,,,,,,,,gray,hexagon
123.0,2.0,2.0,0.0,4.0,4.0,477.0316270000876,2.0,2.0,phase_1,,,,,,,,,,,,,gray,hexagon
43.0,5.0,1.0,1.0,1.0,1.0,422.6292620001004,2.0,1.0,phase_1,,,,,,,,,,,,,blue,triangle
0.0,7.0,0.0,1.0,1.0,1.0,438.1968160000724,2.0,1.0,phase_1,,,,,,,,,,,,,white,cross
389.0,8.0,4.0,1.0,4.0,4.0,494.1015769998103,2.0,1.0,phase_1,,,,,,,,,,,,,orange,I
57.0,5.0,1.0,1.0,2.0,2.0,386.5008479999687,2.0,1.0,phase_1,,,,,,,,,,,,,blue,triangle
217.0,7.0,3.0,1.0,2.0,2.0,431.4333489999171,2.0,1.0,phase_1,,,,,,,,,,,,,white,cross
0.0,1.0,0.0,0.0,3.0,3.0,350.9270659999401,2.0,1.0,phase_1,,,,,,,,,,,,,magenta,flipped triangle
101.0,6.0,2.0,1.0,2.0,2.0,350.3099460001522,2.0,1.0,phase_1,,,,,,,,,,,,,yellow,square
376.0,8.0,4.0,1.0,3.0,3.0,324.0659650000452,2.0,1.0,phase_1,,,,,,,,,,,,,orange,I
115.0,2.0,2.0,0.0,4.0,4.0,446.0971430000882,2.0,1.0,phase_1,,,,,,,,,,,,,gray,hexagon
104.0,2.0,2.0,0.0,3.0,3.0,328.2389450000664,2.0,1.0,phase_1,,,,,,,,,,,,,gray,hexagon
223.0,7.0,3.0,1.0,4.0,4.0,389.4869669998115,2.0,1.0,phase_1,,,,,,,,,,,,,white,cross
42.0,1.0,1.0,0.0,2.0,2.0,332.790464000027,2.0,1.0,phase_1,,,,,,,,,,,,,magenta,flipped triangle
111.0,6.0,2.0,1.0,2.0,2.0,367.4310250000872,2.0,1.0,phase_1,,,,,,,,,,,,,yellow,square
37.0,1.0,1.0,0.0,2.0,2.0,353.9502070000253,2.0,1.0,phase_1,,,,,,,,,,,,,magenta,flipped triangle
188.0,7.0,3.0,1.0,2.0,2.0,317.8866270000071,2.0,1.0,phase_1,,,,,,,,,,,,,white,cross
47.0,5.0,1.0,1.0,2.0,2.0,317.4253530000896,2.0,1.0,phase_1,,,,,,,,,,,,,blue,triangle
0.0,5.0,0.0,1.0,1.0,1.0,514.9473510000462,2.0,1.0,phase_1,,,,,,,,,,,,,blue,triangle
417.0,4.0,4.0,0.0,4.0,4.0,487.070612000025,2.0,1.0,phase_1,,,,,,,,,,,,,cyan,circle
419.0,4.0,4.0,0.0,1.0,1.0,465.355726000098,2.0,1.0,phase_1,,,,,,,,,,,,,cyan,circle
0.0,6.0,0.0,1.0,3.0,3.0,419.1964480000933,2.0,1.0,phase_1,,,,,,,,,,,,,yellow,square
81.0,2.0,2.0,0.0,1.0,1.0,381.2179159999687,2.0,1.0,phase_1,,,,,,,,,,,,,gray,hexagon
0.0,6.0,0.0,1.0,2.0,2.0,436.1934659998496,2.0,1.0,phase_1,,,,,,,,,,,,,yellow,square
52.0,1.0,1.0,0.0,4.0,4.0,336.3881269999638,2.0,1.0,phase_1,,,,,,,,,,,,,magenta,flipped triangle
395.0,8.0,4.0,1.0,1.0,1.0,412.8714880000643,2.0,1.0,phase_1,,,,,,,,,,,,,orange,I
212.0,7.0,3.0,1.0,3.0,3.0,440.2781910000612,2.0,2.0,phase_1,,,,,,,,,,,,,white,cross
106.0,2.0,2.0,0.0,4.0,4.0,608.6055030000352,2.0,1.0,phase_1,,,,,,,,,,,,,gray,hexagon
197.0,7.0,3.0,1.0,2.0,2.0,789.7211269998934,2.0,1.0,phase_1,,,,,,,,,,,,,white,cross
402.0,4.0,4.0,0.0,1.0,1.0,409.3853949998447,2.0,1.0,phase_1,,,,,,,,,,,,,cyan,circle
0.0,5.0,0.0,1.0,3.0,3.0,497.1175190000849,2.0,1.0,phase_1,,,,,,,,,,,,,blue,triangle
0.0,1.0,0.0,0.0,2.0,2.0,463.1437840000671,2.0,1.0,phase_1,,,,,,,,,,,,,magenta,flipped triangle
79.0,6.0,2.0,1.0,4.0,4.0,349.58173499990147,2.0,1.0,phase_1,,,,,,,,,,,,,yellow,square
42.0,1.0,1.0,0.0,1.0,1.0,517.4238750000768,2.0,1.0,phase_1,,,,,,,,,,,,,magenta,flipped triangle
418.0,4.0,4.0,0.0,3.0,3.0,458.7522310000622,2.0,1.0,phase_1,,,,,,,,,,,,,cyan,circle
0.0,2.0,0.0,0.0,1.0,1.0,514.1765419998592,2.0,1.0,phase_1,,,,,,,,,,,,,gray,hexagon
121.0,2.0,2.0,0.0,2.0,2.0,800.2976020000006,2.0,1.0,phase_1,,,,,,,,,,,,,gray,hexagon
0.0,4.0,0.0,0.0,3.0,3.0,441.6000930000336,2.0,1.0,phase_1,,,,,,,,,,,,,cyan,circle
0.0,8.0,0.0,1.0,2.0,2.0,433.9027650000844,2.0,1.0,phase_1,,,,,,,,,,,,,orange,I
198.0,3.0,3.0,0.0,2.0,2.0,448.2520020001175,2.0,1.0,phase_1,,,,,,,,,,,,,green,diamond
0.0,1.0,0.0,0.0,4.0,4.0,493.349875000149,2.0,1.0,phase_1,,,,,,,,,,,,,magenta,flipped triangle
383.0,4.0,4.0,0.0,3.0,3.0,402.2816420001618,2.0,1.0,phase_1,,,,,,,,,,,,,cyan,circle
384.0,8.0,4.0,1.0,3.0,3.0,358.9673760000096,2.0,1.0,phase_1,,,,,,,,,,,,,orange,I
0.0,7.0,0.0,1.0,2.0,2.0,559.0025619999324,2.0,1.0,phase_1,,,,,,,,,,,,,white,cross
93.0,6.0,2.0,1.0,4.0,4.0,497.2255740001401,2.0,1.0,phase_1,,,,,,,,,,,,,yellow,square
0.0,8.0,0.0,1.0,2.0,2.0,556.7587830000775,2.0,1.0,phase_1,,,,,,,,,,,,,orange,I
63.0,5.0,1.0,1.0,4.0,4.0,476.8982739999501,2.0,1.0,phase_1,,,,,,,,,,,,,blue,triangle
84.0,2.0,2.0,0.0,4.0,4.0,422.3538940000253,2.0,1.0,phase_1,,,,,,,,,,,,,gray,hexagon
189.0,3.0,3.0,0.0,1.0,1.0,457.9894910000348,2.0,1.0,phase_1,,,,,,,,,,,,,green,diamond
0.0,7.0,0.0,1.0,4.0,4.0,444.2383450000307,2.0,1.0,phase_1,,,,,,,,,,,,,white,cross
25.0,1.0,1.0,0.0,4.0,4.0,415.2142199998252,2.0,1.0,phase_1,,,,,,,,,,,,,magenta,flipped triangle
79.0,2.0,2.0,0.0,4.0,4.0,490.4416570000194,2.0,1.0,phase_1,,,,,,,,,,,,,gray,hexagon
389.0,4.0,4.0,0.0,2.0,2.0,560.237670999868,2.0,1.0,phase_1,,,,,,,,,,,,,cyan,circle
0.0,2.0,0.0,0.0,1.0,1.0,483.26239099992557,2.0,1.0,phase_1,,,,,,,,,,,,,gray,hexagon
393.0,8.0,4.0,1.0,4.0,4.0,435.0107230000049,2.0,1.0,phase_1,,,,,,,,,,,,,orange,I
412.0,8.0,4.0,1.0,4.0,4.0,336.0194510000838,2.0,1.0,phase_1,,,,,,,,,,,,,orange,I
33.0,5.0,1.0,1.0,2.0,2.0,474.9191819998941,2.0,1.0,phase_1,,,,,,,,,,,,,blue,triangle
0.0,4.0,0.0,0.0,4.0,4.0,392.889205000074,2.0,1.0,phase_1,,,,,,,,,,,,,cyan,circle
73.0,1.0,1.0,0.0,3.0,3.0,371.7619449998892,2.0,1.0,phase_1,,,,,,,,,,,,,magenta,flipped triangle
402.0,8.0,4.0,1.0,1.0,1.0,336.1491709999882,2.0,1.0,phase_1,,,,,,,,,,,,,orange,I
0.0,1.0,0.0,0.0,1.0,1.0,514.8222489999625,2.0,1.0,phase_1,,,,,,,,,,,,,magenta,flipped triangle
90.0,2.0,2.0,0.0,2.0,2.0,477.4957750000794,2.0,1.0,phase_1,,,,,,,,,,,,,gray,hexagon
207.0,3.0,3.0,0.0,3.0,3.0,371.2944590001825,2.0,1.0,phase_1,,,,,,,,,,,,,green,diamond
39.0,5.0,1.0,1.0,3.0,3.0,476.1420810000345,2.0,1.0,phase_1,,,,,,,,,,,,,blue,triangle
68.0,1.0,1.0,0.0,2.0,2.0,386.9920199999797,2.0,1.0,phase_1,,,,,,,,,,,,,magenta,flipped triangle
212.0,3.0,3.0,0.0,1.0,1.0,268.5947410000153,2.0,1.0,phase_1,,,,,,,,,,,,,green,diamond
65.0,5.0,1.0,1.0,3.0,3.0,498.1618079998497,2.0,1.0,phase_1,,,,,,,,,,,,,blue,triangle
47.0,1.0,1.0,0.0,3.0,3.0,433.9950999999473,2.0,1.0,phase_1,,,,,,,,,,,,,magenta,flipped triangle
81.0,6.0,2.0,1.0,4.0,4.0,377.8764920000412,2.0,1.0,phase_1,,,,,,,,,,,,,yellow,square
112.0,6.0,2.0,1.0,3.0,3.0,366.1419610000394,2.0,1.0,phase_1,,,,,,,,,,,,,yellow,square
189.0,7.0,3.0,1.0,4.0,4.0,481.4083479998317,2.0,1.0,phase_1,,,,,,,,,,,,,white,cross
220.0,3.0,3.0,0.0,2.0,2.0,434.4173720000981,2.0,1.0,phase_1,,,,,,,,,,,,,green,diamond
223.0,3.0,3.0,0.0,3.0,3.0,366.9368460000441,2.0,1.0,phase_1,,,,,,,,,,,,,green,diamond
51.0,5.0,1.0,1.0,3.0,3.0,383.845446000123,2.0,1.0,phase_1,,,,,,,,,,,,,blue,triangle
0.0,2.0,0.0,0.0,4.0,4.0,380.3993600004105,2.0,1.0,phase_1,,,,,,,,,,,,,gray,hexagon
224.0,7.0,3.0,1.0,2.0,2.0,438.9059660002203,2.0,1.0,phase_1,,,,,,,,,,,,,white,cross
58.0,1.0,1.0,0.0,1.0,1.0,424.1314579999198,2.0,1.0,phase_1,,,,,,,,,,,,,magenta,flipped triangle
379.0,8.0,4.0,1.0,2.0,2.0,432.9265289998147,2.0,1.0,phase_1,,,,,,,,,,,,,orange,I
384.0,4.0,4.0,0.0,4.0,4.0,350.3425400003834,2.0,1.0,phase_1,,,,,,,,,,,,,cyan,circle
34.0,1.0,1.0,0.0,3.0,3.0,334.8641989996395,2.0,1.0,phase_1,,,,,,,,,,,,,magenta,flipped triangle
121.0,6.0,2.0,1.0,2.0,2.0,360.788961000253,2.0,1.0,phase_1,,,,,,,,,,,,,yellow,square
0.0,2.0,0.0,0.0,4.0,4.0,389.0466560001187,2.0,1.0,phase_1,,,,,,,,,,,,,gray,hexagon
0.0,8.0,0.0,1.0,3.0,3.0,445.7373010000083,2.0,1.0,phase_1,,,,,,,,,,,,,orange,I
87.0,6.0,2.0,1.0,4.0,4.0,353.5231509999903,2.0,1.0,phase_1,,,,,,,,,,,,,yellow,square
73.0,1.0,1.0,0.0,2.0,2.0,381.4494299999751,2.0,1.0,phase_1,,,,,,,,,,,,,magenta,flipped triangle
71.0,5.0,1.0,1.0,1.0,1.0,426.6275589998258,2.0,1.0,phase_1,,,,,,,,,,,,,blue,triangle
0.0,8.0,0.0,1.0,1.0,1.0,432.6250379999692,2.0,1.0,phase_1,,,,,,,,,,,,,orange,I
183.0,7.0,3.0,1.0,3.0,3.0,408.3751329999359,2.0,1.0,phase_1,,,,,,,,,,,,,white,cross
401.0,4.0,4.0,0.0,3.0,3.0,412.71025900005037,2.0,1.0,phase_1,,,,,,,,,,,,,cyan,circle
65.0,1.0,1.0,0.0,3.0,3.0,392.5658809998822,3.0,1.0,phase_1,,,,,,,,,,,,,magenta,flipped triangle
0.0,2.0,0.0,0.0,2.0,2.0,365.7014249997701,3.0,1.0,phase_1,,,,,,,,,,,,,gray,hexagon
0.0,2.0,0.0,0.0,2.0,2.0,379.2916920001516,3.0,1.0,phase_1,,,,,,,,,,,,,gray,hexagon
398.0,8.0,4.0,1.0,4.0,4.0,396.7077070001323,3.0,1.0,phase_1,,,,,,,,,,,,,orange,I
91.0,6.0,2.0,1.0,1.0,1.0,421.8487760003881,3.0,1.0,phase_1,,,,,,,,,,,,,yellow,square
424.0,8.0,4.0,1.0,3.0,3.0,350.3621489999204,3.0,1.0,phase_1,,,,,,,,,,,,,orange,I
404.0,4.0,4.0,0.0,2.0,2.0,430.8141730002717,3.0,1.0,phase_1,,,,,,,,,,,,,cyan,circle
406.0,8.0,4.0,1.0,1.0,1.0,477.1739180000622,3.0,1.0,phase_1,,,,,,,,,,,,,orange,I
61.0,1.0,1.0,0.0,4.0,4.0,403.6632830002418,3.0,1.0,phase_1,,,,,,,,,,,,,magenta,flipped triangle
382.0,4.0,4.0,0.0,1.0,1.0,399.7988770001939,3.0,1.0,phase_1,,,,,,,,,,,,,cyan,circle
0.0,4.0,0.0,0.0,2.0,2.0,416.23550300028,3.0,1.0,phase_1,,,,,,,,,,,,,cyan,circle
392.0,8.0,4.0,1.0,2.0,2.0,365.3610979999939,3.0,1.0,phase_1,,,,,,,,,,,,,orange,I
0.0,8.0,0.0,1.0,1.0,1.0,396.0346019998724,3.0,1.0,phase_1,,,,,,,,,,,,,orange,I
206.0,3.0,3.0,0.0,1.0,1.0,421.3064489999851,3.0,1.0,phase_1,,,,,,,,,,,,,green,diamond
0.0,4.0,0.0,0.0,2.0,2.0,370.1021239999136,3.0,1.0,phase_1,,,,,,,,,,,,,cyan,circle
391.0,8.0,4.0,1.0,3.0,3.0,542.9114280000249,3.0,1.0,phase_1,,,,,,,,,,,,,orange,I
394.0,4.0,4.0,0.0,3.0,3.0,368.1404910003039,3.0,1.0,phase_1,,,,,,,,,,,,,cyan,circle
0.0,8.0,0.0,1.0,1.0,1.0,508.4965970004305,3.0,1.0,phase_1,,,,,,,,,,,,,orange,I
224.0,7.0,3.0,1.0,4.0,4.0,523.4710099998665,3.0,2.0,phase_1,,,,,,,,,,,,,white,cross
38.0,5.0,1.0,1.0,1.0,1.0,657.5423550002597,3.0,1.0,phase_1,,,,,,,,,,,,,blue,triangle
203.0,7.0,3.0,1.0,2.0,2.0,533.405779000077,3.0,1.0,phase_1,,,,,,,,,,,,,white,cross
183.0,7.0,3.0,1.0,1.0,1.0,447.4513709997154,3.0,1.0,phase_1,,,,,,,,,,,,,white,cross
34.0,5.0,1.0,1.0,1.0,1.0,613.6742159997084,3.0,1.0,phase_1,,,,,,,,,,,,,blue,triangle
81.0,2.0,2.0,0.0,3.0,3.0,474.5502870000564,3.0,1.0,phase_1,,,,,,,,,,,,,gray,hexagon
183.0,3.0,3.0,0.0,4.0,4.0,449.6052959998451,3.0,1.0,phase_1,,,,,,,,,,,,,green,diamond
0.0,8.0,0.0,1.0,2.0,2.0,467.9795040001409,3.0,1.0,phase_1,,,,,,,,,,,,,orange,I
401.0,8.0,4.0,1.0,4.0,4.0,455.6847099997867,3.0,1.0,phase_1,,,,,,,,,,,,,orange,I
198.0,7.0,3.0,1.0,4.0,4.0,445.3089979997457,3.0,1.0,phase_1,,,,,,,,,,,,,white,cross
0.0,6.0,0.0,1.0,4.0,4.0,377.409309000086,3.0,1.0,phase_1,,,,,,,,,,,,,yellow,square
0.0,3.0,0.0,0.0,2.0,2.0,343.1769439998788,3.0,1.0,phase_1,,,,,,,,,,,,,green,diamond
0.0,3.0,0.0,0.0,3.0,3.0,354.7623919998841,3.0,1.0,phase_1,,,,,,,,,,,,,green,diamond
0.0,5.0,0.0,1.0,1.0,1.0,450.2379599998676,3.0,1.0,phase_1,,,,,,,,,,,,,blue,triangle
58.0,5.0,1.0,1.0,1.0,1.0,386.2736749997566,3.0,1.0,phase_1,,,,,,,,,,,,,blue,triangle
101.0,2.0,2.0,0.0,4.0,4.0,420.8210480001071,3.0,1.0,phase_1,,,,,,,,,,,,,gray,hexagon
188.0,3.0,3.0,0.0,3.0,3.0,344.4012280001516,3.0,1.0,phase_1,,,,,,,,,,,,,green,diamond
38.0,5.0,1.0,1.0,4.0,4.0,366.2945270002637,3.0,1.0,phase_1,,,,,,,,,,,,,blue,triangle
46.0,1.0,1.0,0.0,3.0,3.0,344.992270000148,3.0,1.0,phase_1,,,,,,,,,,,,,magenta,flipped triangle
183.0,3.0,3.0,0.0,3.0,3.0,377.7679939998961,3.0,1.0,phase_1,,,,,,,,,,,,,green,diamond
42.0,5.0,1.0,1.0,2.0,2.0,479.3563770003857,3.0,1.0,phase_1,,,,,,,,,,,,,blue,triangle
409.0,8.0,4.0,1.0,2.0,2.0,461.8993059998502,3.0,1.0,phase_1,,,,,,,,,,,,,orange,I
0.0,7.0,0.0,1.0,2.0,2.0,531.0898409998117,3.0,1.0,phase_1,,,,,,,,,,,,,white,cross
122.0,6.0,2.0,1.0,2.0,2.0,320.640653999817,3.0,1.0,phase_1,,,,,,,,,,,,,yellow,square
386.0,4.0,4.0,0.0,1.0,1.0,454.1681799996695,3.0,1.0,phase_1,,,,,,,,,,,,,cyan,circle
0.0,8.0,0.0,1.0,4.0,4.0,481.1428980001437,3.0,1.0,phase_1,,,,,,,,,,,,,orange,I
190.0,7.0,3.0,1.0,1.0,1.0,399.3478860002142,3.0,1.0,phase_1,,,,,,,,,,,,,white,cross
72.0,5.0,1.0,1.0,4.0,4.0,312.7409949997854,3.0,1.0,phase_1,,,,,,,,,,,,,blue,triangle
419.0,8.0,4.0,1.0,4.0,4.0,411.8623589997696,3.0,1.0,phase_1,,,,,,,,,,,,,orange,I
424.0,4.0,4.0,0.0,1.0,1.0,382.0846349999556,3.0,1.0,phase_1,,,,,,,,,,,,,cyan,circle
25.0,5.0,1.0,1.0,2.0,2.0,412.1050690000629,3.0,1.0,phase_1,,,,,,,,,,,,,blue,triangle
0.0,8.0,0.0,1.0,3.0,3.0,396.9697009997617,3.0,1.0,phase_1,,,,,,,,,,,,,orange,I
65.0,1.0,1.0,0.0,2.0,2.0,532.3197200000322,3.0,1.0,phase_1,,,,,,,,,,,,,magenta,flipped triangle
397.0,8.0,4.0,1.0,2.0,2.0,530.3837520000343,3.0,1.0,phase_1,,,,,,,,,,,,,orange,I
424.0,4.0,4.0,0.0,4.0,4.0,540.9613709998666,3.0,1.0,phase_1,,,,,,,,,,,,,cyan,circle
112.0,2.0,2.0,0.0,2.0,2.0,483.5331300000689,3.0,2.0,phase_1,,,,,,,,,,,,,gray,hexagon
40.0,1.0,1.0,0.0,1.0,1.0,594.8659380001118,3.0,1.0,phase_1,,,,,,,,,,,,,magenta,flipped triangle
46.0,1.0,1.0,0.0,2.0,2.0,616.2298150002243,3.0,1.0,phase_1,,,,,,,,,,,,,magenta,flipped triangle
419.0,8.0,4.0,1.0,2.0,2.0,594.2535469998802,3.0,1.0,phase_1,,,,,,,,,,,,,orange,I
68.0,5.0,1.0,1.0,2.0,2.0,464.1794469998785,3.0,1.0,phase_1,,,,,,,,,,,,,blue,triangle
393.0,4.0,4.0,0.0,3.0,3.0,556.1896070003058,3.0,1.0,phase_1,,,,,,,,,,,,,cyan,circle
389.0,4.0,4.0,0.0,4.0,4.0,510.05673800000295,3.0,1.0,phase_1,,,,,,,,,,,,,cyan,circle
67.0,1.0,1.0,0.0,2.0,2.0,477.5954110000384,3.0,1.0,phase_1,,,,,,,,,,,,,magenta,flipped triangle
0.0,5.0,0.0,1.0,1.0,1.0,669.3862280003486,3.0,1.0,phase_1,,,,,,,,,,,,,blue,triangle
72.0,1.0,1.0,0.0,3.0,3.0,441.5322569998352,3.0,1.0,phase_1,,,,,,,,,,,,,magenta,flipped triangle
421.0,4.0,4.0,0.0,3.0,3.0,429.7422390000065,3.0,1.0,phase_1,,,,,,,,,,,,,cyan,circle
406.0,4.0,4.0,0.0,4.0,4.0,426.8357300002208,3.0,1.0,phase_1,,,,,,,,,,,,,cyan,circle
0.0,6.0,0.0,1.0,3.0,3.0,480.1856359999874,3.0,1.0,phase_1,,,,,,,,,,,,,yellow,square
30.0,1.0,1.0,0.0,1.0,1.0,515.0682859998597,3.0,1.0,phase_1,,,,,,,,,,,,,magenta,flipped triangle
175.0,7.0,3.0,1.0,1.0,1.0,545.395068000289,3.0,1.0,phase_1,,,,,,,,,,,,,white,cross
388.0,8.0,4.0,1.0,3.0,3.0,467.09263799994,3.0,1.0,phase_1,,,,,,,,,,,,,orange,I
68.0,1.0,1.0,0.0,3.0,3.0,387.4870780000492,3.0,1.0,phase_1,,,,,,,,,,,,,magenta,flipped triangle
62.0,1.0,1.0,0.0,4.0,4.0,471.4817949998178,3.0,1.0,phase_1,,,,,,,,,,,,,magenta,flipped triangle
0.0,7.0,0.0,1.0,1.0,1.0,533.465551000063,3.0,1.0,phase_1,,,,,,,,,,,,,white,cross
37.0,5.0,1.0,1.0,3.0,3.0,541.8678430000909,3.0,1.0,phase_1,,,,,,,,,,,,,blue,triangle
185.0,7.0,3.0,1.0,2.0,2.0,556.6759690000254,3.0,1.0,phase_1,,,,,,,,,,,,,white,cross
394.0,4.0,4.0,0.0,4.0,4.0,415.5065119998653,3.0,1.0,phase_1,,,,,,,,,,,,,cyan,circle
118.0,6.0,2.0,1.0,1.0,1.0,405.384918999971,3.0,1.0,phase_1,,,,,,,,,,,,,yellow,square
85.0,6.0,2.0,1.0,4.0,4.0,548.949089999951,3.0,1.0,phase_1,,,,,,,,,,,,,yellow,square
398.0,4.0,4.0,0.0,1.0,1.0,605.5992709998463,3.0,1.0,phase_1,,,,,,,,,,,,,cyan,circle
217.0,7.0,3.0,1.0,1.0,1.0,493.9038889997391,3.0,1.0,phase_1,,,,,,,,,,,,,white,cross
217.0,3.0,3.0,0.0,3.0,3.0,502.5290099997619,3.0,1.0,phase_1,,,,,,,,,,,,,green,diamond
0.0,3.0,0.0,0.0,4.0,4.0,532.1911179999006,3.0,1.0,phase_1,,,,,,,,,,,,,green,diamond
224.0,3.0,3.0,0.0,1.0,1.0,557.3577860000114,3.0,1.0,phase_1,,,,,,,,,,,,,green,diamond
409.0,4.0,4.0,0.0,2.0,2.0,437.0127099996352,3.0,1.0,phase_1,,,,,,,,,,,,,cyan,circle
203.0,3.0,3.0,0.0,3.0,3.0,609.3300530001216,3.0,1.0,phase_1,,,,,,,,,,,,,green,diamond
83.0,2.0,2.0,0.0,3.0,3.0,600.2343559998735,3.0,1.0,phase_1,,,,,,,,,,,,,gray,hexagon
46.0,5.0,1.0,1.0,2.0,2.0,550.5165260001377,3.0,1.0,phase_1,,,,,,,,,,,,,blue,triangle
27.0,1.0,1.0,0.0,3.0,3.0,378.4934579998662,3.0,1.0,phase_1,,,,,,,,,,,,,magenta,flipped triangle
204.0,7.0,3.0,1.0,4.0,4.0,468.9671890000682,3.0,1.0,phase_1,,,,,,,,,,,,,white,cross
0.0,4.0,0.0,0.0,4.0,4.0,389.648287,3.0,1.0,phase_1,,,,,,,,,,,,,cyan,circle
0.0,4.0,0.0,0.0,2.0,2.0,477.8424330002053,3.0,1.0,phase_1,,,,,,,,,,,,,cyan,circle
0.0,6.0,0.0,1.0,2.0,2.0,471.2360479998096,3.0,1.0,phase_1,,,,,,,,,,,,,yellow,square
65.0,5.0,1.0,1.0,4.0,4.0,445.71445199972,3.0,1.0,phase_1,,,,,,,,,,,,,blue,triangle
383.0,8.0,4.0,1.0,3.0,3.0,499.2166890001499,3.0,1.0,phase_1,,,,,,,,,,,,,orange,I
388.0,4.0,4.0,0.0,4.0,4.0,437.7920870001617,3.0,1.0,phase_1,,,,,,,,,,,,,cyan,circle
388.0,8.0,4.0,1.0,2.0,2.0,397.3489559998597,3.0,1.0,phase_1,,,,,,,,,,,,,orange,I
39.0,1.0,1.0,0.0,1.0,1.0,496.8614600002183,3.0,1.0,phase_1,,,,,,,,,,,,,magenta,flipped triangle
183.0,3.0,3.0,0.0,1.0,1.0,490.9478750000744,3.0,1.0,phase_1,,,,,,,,,,,,,green,diamond
207.0,7.0,3.0,1.0,4.0,4.0,439.6835269999428,3.0,1.0,phase_1,,,,,,,,,,,,,white,cross
192.0,7.0,3.0,1.0,1.0,1.0,417.5262259996088,3.0,1.0,phase_1,,,,,,,,,,,,,white,cross
110.0,2.0,2.0,0.0,1.0,1.0,546.2644270000965,3.0,1.0,phase_1,,,,,,,,,,,,,gray,hexagon
67.0,5.0,1.0,1.0,3.0,3.0,418.6100860001716,4.0,1.0,phase_1,,,,,,,,,,,,,blue,triangle
0.0,1.0,0.0,0.0,2.0,2.0,379.1480700001557,4.0,1.0,phase_1,,,,,,,,,,,,,magenta,flipped triangle
392.0,8.0,4.0,1.0,3.0,3.0,405.0323520000347,4.0,1.0,phase_1,,,,,,,,,,,,,orange,I
394.0,8.0,4.0,1.0,3.0,3.0,345.0289950001206,4.0,1.0,phase_1,,,,,,,,,,,,,orange,I
0.0,2.0,0.0,0.0,2.0,2.0,414.4121640001685,4.0,1.0,phase_1,,,,,,,,,,,,,gray,hexagon
218.0,7.0,3.0,1.0,4.0,4.0,389.1164930000741,4.0,1.0,phase_1,,,,,,,,,,,,,white,cross
58.0,5.0,1.0,1.0,3.0,3.0,356.8682330001138,4.0,1.0,phase_1,,,,,,,,,,,,,blue,triangle
394.0,8.0,4.0,1.0,1.0,1.0,465.8362379996106,4.0,1.0,phase_1,,,,,,,,,,,,,orange,I
73.0,5.0,1.0,1.0,4.0,4.0,397.1614219999537,4.0,1.0,phase_1,,,,,,,,,,,,,blue,triangle
112.0,6.0,2.0,1.0,4.0,4.0,843.765398999949,4.0,1.0,phase_1,,,,,,,,,,,,,yellow,square
376.0,4.0,4.0,0.0,1.0,1.0,579.9177819999386,4.0,1.0,phase_1,,,,,,,,,,,,,cyan,circle
210.0,3.0,3.0,0.0,4.0,4.0,349.9729600002865,4.0,1.0,phase_1,,,,,,,,,,,,,green,diamond
84.0,6.0,2.0,1.0,3.0,3.0,429.6736969999983,4.0,1.0,phase_1,,,,,,,,,,,,,yellow,square
188.0,3.0,3.0,0.0,4.0,4.0,536.9151150002835,4.0,1.0,phase_1,,,,,,,,,,,,,green,diamond
397.0,4.0,4.0,0.0,1.0,1.0,477.3432420001882,4.0,1.0,phase_1,,,,,,,,,,,,,cyan,circle
0.0,2.0,0.0,0.0,2.0,2.0,454.741168000055,4.0,1.0,phase_1,,,,,,,,,,,,,gray,hexagon
116.0,2.0,2.0,0.0,1.0,1.0,509.27113999978246,4.0,1.0,phase_1,,,,,,,,,,,,,gray,hexagon
102.0,2.0,2.0,0.0,2.0,2.0,409.2739070001698,4.0,1.0,phase_1,,,,,,,,,,,,,gray,hexagon
58.0,1.0,1.0,0.0,1.0,1.0,521.8902430001435,4.0,1.0,phase_1,,,,,,,,,,,,,magenta,flipped triangle
33.0,1.0,1.0,0.0,1.0,1.0,508.0291799999941,4.0,1.0,phase_1,,,,,,,,,,,,,magenta,flipped triangle
0.0,5.0,0.0,1.0,1.0,1.0,502.89110300036555,4.0,1.0,phase_1,,,,,,,,,,,,,blue,triangle
87.0,2.0,2.0,0.0,3.0,3.0,498.38579100014607,4.0,1.0,phase_1,,,,,,,,,,,,,gray,hexagon
115.0,6.0,2.0,1.0,4.0,4.0,435.7899409997117,4.0,1.0,phase_1,,,,,,,,,,,,,yellow,square
90.0,6.0,2.0,1.0,2.0,2.0,490.5475240002488,4.0,1.0,phase_1,,,,,,,,,,,,,yellow,square
389.0,8.0,4.0,1.0,2.0,2.0,511.09418199985157,4.0,1.0,phase_1,,,,,,,,,,,,,orange,I
214.0,7.0,3.0,1.0,3.0,3.0,489.7718709999026,4.0,1.0,phase_1,,,,,,,,,,,,,white,cross
409.0,8.0,4.0,1.0,4.0,4.0,512.7220379999926,4.0,1.0,phase_1,,,,,,,,,,,,,orange,I
386.0,8.0,4.0,1.0,2.0,2.0,442.9079709998405,4.0,1.0,phase_1,,,,,,,,,,,,,orange,I
118.0,2.0,2.0,0.0,3.0,3.0,402.722647000246,4.0,1.0,phase_1,,,,,,,,,,,,,gray,hexagon
88.0,6.0,2.0,1.0,2.0,2.0,400.1102769998397,4.0,1.0,phase_1,,,,,,,,,,,,,yellow,square
176.0,7.0,3.0,1.0,3.0,3.0,373.2288249998419,4.0,1.0,phase_1,,,,,,,,,,,,,white,cross
29.0,1.0,1.0,0.0,2.0,2.0,523.9923350000026,4.0,1.0,phase_1,,,,,,,,,,,,,magenta,flipped triangle
199.0,3.0,3.0,0.0,3.0,3.0,459.2649559999699,4.0,1.0,phase_1,,,,,,,,,,,,,green,diamond
0.0,3.0,0.0,0.0,4.0,4.0,485.6738879998374,4.0,2.0,phase_1,,,,,,,,,,,,,green,diamond
382.0,8.0,4.0,1.0,1.0,1.0,502.5973060000979,4.0,1.0,phase_1,,,,,,,,,,,,,orange,I
0.0,4.0,0.0,0.0,1.0,1.0,736.400157999924,4.0,1.0,phase_1,,,,,,,,,,,,,cyan,circle
206.0,7.0,3.0,1.0,3.0,3.0,416.1982609998631,4.0,1.0,phase_1,,,,,,,,,,,,,white,cross
38.0,1.0,1.0,0.0,4.0,4.0,400.3168240001287,4.0,1.0,phase_1,,,,,,,,,,,,,magenta,flipped triangle
88.0,2.0,2.0,0.0,3.0,3.0,498.9117139998598,4.0,1.0,phase_1,,,,,,,,,,,,,gray,hexagon
0.0,7.0,0.0,1.0,3.0,3.0,402.3613650001607,4.0,1.0,phase_1,,,,,,,,,,,,,white,cross
213.0,7.0,3.0,1.0,4.0,4.0,406.9393700001456,4.0,1.0,phase_1,,,,,,,,,,,,,white,cross
218.0,3.0,3.0,0.0,4.0,4.0,388.5527670004194,4.0,1.0,phase_1,,,,,,,,,,,,,green,diamond
30.0,5.0,1.0,1.0,4.0,4.0,339.8608029997376,4.0,1.0,phase_1,,,,,,,,,,,,,blue,triangle
388.0,8.0,4.0,1.0,4.0,4.0,357.9289970002719,4.0,1.0,phase_1,,,,,,,,,,,,,orange,I
112.0,2.0,2.0,0.0,1.0,1.0,556.3190319999194,4.0,1.0,phase_1,,,,,,,,,,,,,gray,hexagon
210.0,7.0,3.0,1.0,2.0,2.0,642.9335719999472,4.0,1.0,phase_1,,,,,,,,,,,,,white,cross
110.0,6.0,2.0,1.0,3.0,3.0,673.8925429999654,4.0,1.0,phase_1,,,,,,,,,,,,,yellow,square
214.0,3.0,3.0,0.0,4.0,4.0,465.5181750003976,4.0,1.0,phase_1,,,,,,,,,,,,,green,diamond
197.0,3.0,3.0,0.0,1.0,1.0,367.493254999772,4.0,1.0,phase_1,,,,,,,,,,,,,green,diamond
0.0,5.0,0.0,1.0,4.0,4.0,458.4026470001845,4.0,1.0,phase_1,,,,,,,,,,,,,blue,triangle
176.0,3.0,3.0,0.0,4.0,4.0,473.3538410000619,4.0,1.0,phase_1,,,,,,,,,,,,,green,diamond
220.0,7.0,3.0,1.0,2.0,2.0,587.6895839996905,4.0,1.0,phase_1,,,,,,,,,,,,,white,cross
412.0,4.0,4.0,0.0,2.0,2.0,434.4347900000684,4.0,1.0,phase_1,,,,,,,,,,,,,cyan,circle
123.0,6.0,2.0,1.0,4.0,4.0,486.176525999781,4.0,1.0,phase_1,,,,,,,,,,,,,yellow,square
0.0,1.0,0.0,0.0,1.0,1.0,572.0579150001868,4.0,1.0,phase_1,,,,,,,,,,,,,magenta,flipped triangle
67.0,1.0,1.0,0.0,2.0,2.0,472.03469599980957,4.0,1.0,phase_1,,,,,,,,,,,,,magenta,flipped triangle
189.0,3.0,3.0,0.0,4.0,4.0,477.4524620002012,4.0,1.0,phase_1,,,,,,,,,,,,,green,diamond
71.0,1.0,1.0,0.0,3.0,3.0,560.0004469997657,4.0,1.0,phase_1,,,,,,,,,,,,,magenta,flipped triangle
81.0,2.0,2.0,0.0,2.0,2.0,505.62132099958035,4.0,1.0,phase_1,,,,,,,,,,,,,gray,hexagon
93.0,2.0,2.0,0.0,2.0,2.0,482.7808499999264,4.0,1.0,phase_1,,,,,,,,,,,,,gray,hexagon
395.0,4.0,4.0,0.0,2.0,2.0,451.5444049998223,4.0,1.0,phase_1,,,,,,,,,,,,,cyan,circle
40.0,5.0,1.0,1.0,3.0,3.0,483.6345909998272,4.0,1.0,phase_1,,,,,,,,,,,,,blue,triangle
28.0,5.0,1.0,1.0,4.0,4.0,537.5612769998952,4.0,1.0,phase_1,,,,,,,,,,,,,blue,triangle
0.0,7.0,0.0,1.0,3.0,3.0,468.9286150000953,4.0,1.0,phase_1,,,,,,,,,,,,,white,cross
67.0,5.0,1.0,1.0,1.0,1.0,447.2154669997508,4.0,1.0,phase_1,,,,,,,,,,,,,blue,triangle
121.0,6.0,2.0,1.0,1.0,1.0,719.1673070001343,4.0,1.0,phase_1,,,,,,,,,,,,,yellow,square
224.0,7.0,3.0,1.0,4.0,4.0,531.8244469999627,4.0,1.0,phase_1,,,,,,,,,,,,,white,cross
108.0,6.0,2.0,1.0,4.0,4.0,560.0379000002249,4.0,1.0,phase_1,,,,,,,,,,,,,yellow,square
0.0,4.0,0.0,0.0,2.0,2.0,650.2401759998975,4.0,1.0,phase_1,,,,,,,,,,,,,cyan,circle
97.0,2.0,2.0,0.0,1.0,1.0,720.7206419998329,4.0,1.0,phase_1,,,,,,,,,,,,,gray,hexagon
76.0,6.0,2.0,1.0,3.0,3.0,615.0892999999087,4.0,1.0,phase_1,,,,,,,,,,,,,yellow,square
412.0,4.0,4.0,0.0,2.0,2.0,455.2485789999991,4.0,1.0,phase_1,,,,,,,,,,,,,cyan,circle
27.0,5.0,1.0,1.0,4.0,4.0,484.3531279998387,4.0,1.0,phase_1,,,,,,,,,,,,,blue,triangle
0.0,3.0,0.0,0.0,3.0,3.0,578.8033260000702,4.0,1.0,phase_1,,,,,,,,,,,,,green,diamond
396.0,8.0,4.0,1.0,1.0,1.0,467.8045969999402,4.0,1.0,phase_1,,,,,,,,,,,,,orange,I
204.0,3.0,3.0,0.0,1.0,1.0,469.224571000268,4.0,1.0,phase_1,,,,,,,,,,,,,green,diamond
116.0,6.0,2.0,1.0,1.0,1.0,484.1556010001113,4.0,1.0,phase_1,,,,,,,,,,,,,yellow,square
0.0,8.0,0.0,1.0,4.0,4.0,529.2262210000445,4.0,1.0,phase_1,,,,,,,,,,,,,orange,I
70.0,1.0,1.0,0.0,2.0,2.0,625.460127000224,4.0,1.0,phase_1,,,,,,,,,,,,,magenta,flipped triangle
107.0,2.0,2.0,0.0,2.0,2.0,501.2883569997939,4.0,1.0,phase_1,,,,,,,,,,,,,gray,hexagon
81.0,6.0,2.0,1.0,2.0,2.0,444.1117790001954,4.0,1.0,phase_1,,,,,,,,,,,,,yellow,square
379.0,4.0,4.0,0.0,2.0,2.0,548.7889780001751,4.0,1.0,phase_1,,,,,,,,,,,,,cyan,circle
0.0,5.0,0.0,1.0,3.0,3.0,619.7757410000122,4.0,1.0,phase_1,,,,,,,,,,,,,blue,triangle
51.0,1.0,1.0,0.0,1.0,1.0,615.9407360000841,4.0,1.0,phase_1,,,,,,,,,,,,,magenta,flipped triangle
175.0,3.0,3.0,0.0,2.0,2.0,663.7559730002067,4.0,1.0,phase_1,,,,,,,,,,,,,green,diamond
102.0,6.0,2.0,1.0,1.0,1.0,593.1576140001198,4.0,1.0,phase_1,,,,,,,,,,,,,yellow,square
40.0,5.0,1.0,1.0,1.0,1.0,449.9783960000059,4.0,1.0,phase_1,,,,,,,,,,,,,blue,triangle
28.0,1.0,1.0,0.0,3.0,3.0,476.8333619999794,4.0,1.0,phase_1,,,,,,,,,,,,,magenta,flipped triangle
106.0,6.0,2.0,1.0,3.0,3.0,462.3349690000395,4.0,1.0,phase_1,,,,,,,,,,,,,yellow,square
41.0,1.0,1.0,0.0,1.0,1.0,547.1151070000815,4.0,1.0,phase_1,,,,,,,,,,,,,magenta,flipped triangle
121.0,2.0,2.0,0.0,2.0,2.0,581.3424049997593,4.0,1.0,phase_1,,,,,,,,,,,,,gray,hexagon
0.0,6.0,0.0,1.0,2.0,2.0,478.4802839999429,4.0,1.0,phase_1,,,,,,,,,,,,,yellow,square
394.0,4.0,4.0,0.0,3.0,3.0,502.0546219998323,4.0,1.0,phase_1,,,,,,,,,,,,,cyan,circle
41.0,5.0,1.0,1.0,3.0,3.0,589.3294100001185,4.0,1.0,phase_1,,,,,,,,,,,,,blue,triangle
68.0,5.0,1.0,1.0,2.0,2.0,631.9095759999982,4.0,1.0,phase_1,,,,,,,,,,,,,blue,triangle
392.0,4.0,4.0,0.0,4.0,4.0,522.3348599997735,4.0,1.0,phase_1,,,,,,,,,,,,,cyan,circle
217.0,3.0,3.0,0.0,1.0,1.0,462.0584019999114,4.0,1.0,phase_1,,,,,,,,,,,,,green,diamond
217.0,7.0,3.0,1.0,2.0,2.0,488.37274700008487,4.0,1.0,phase_1,,,,,,,,,,,,,white,cross
0.0,6.0,0.0,1.0,2.0,2.0,458.3981559999301,4.0,1.0,phase_1,,,,,,,,,,,,,yellow,square
189.0,7.0,3.0,1.0,1.0,1.0,594.2469800002073,4.0,1.0,phase_1,,,,,,,,,,,,,white,cross
0.0,1.0,1.0,0.0,5.0,5.0,393.6883270002909,1.0,1.0,phase_2,go,250.0,250.0,1.0,,,,,,,,,magenta,flipped triangle
0.0,6.0,2.0,1.0,6.0,6.0,405.3953189995809,1.0,1.0,phase_2,stop,250.0,250.0,3.0,,,,,,,,,yellow,square
0.0,7.0,3.0,1.0,6.0,6.0,698.0043399998976,1.0,1.0,phase_2,go,250.0,200.0,1.0,,,,,,,,,white,cross
0.0,8.0,4.0,1.0,6.0,6.0,802.054168000268,1.0,1.0,phase_2,go,250.0,200.0,1.0,,,,,,,,,orange,I
0.0,4.0,4.0,0.0,6.0,6.0,474.3949550002071,1.0,1.0,phase_2,go,250.0,200.0,1.0,,,,,,,,,cyan,circle
0.0,7.0,3.0,1.0,5.0,0.0,0.0,1.0,1.0,phase_2,stop,250.0,200.0,4.0,,,,,,,,,white,cross
0.0,1.0,1.0,0.0,5.0,5.0,574.5404850003979,1.0,1.0,phase_2,go,300.0,200.0,1.0,,,,,,,,,magenta,flipped triangle
0.0,4.0,4.0,0.0,5.0,5.0,794.5681999999579,1.0,1.0,phase_2,go,300.0,200.0,1.0,,,,,,,,,cyan,circle
0.0,5.0,1.0,1.0,5.0,0.0,0.0,1.0,1.0,phase_2,stop,300.0,200.0,4.0,,,,,,,,,blue,triangle
0.0,5.0,1.0,1.0,5.0,5.0,586.1246199997368,1.0,1.0,phase_2,go,350.0,200.0,1.0,,,,,,,,,blue,triangle
0.0,4.0,4.0,0.0,5.0,5.0,473.1108629998743,1.0,1.0,phase_2,go,350.0,200.0,1.0,,,,,,,,,cyan,circle
0.0,6.0,2.0,1.0,6.0,0.0,0.0,1.0,1.0,phase_2,stop,350.0,200.0,4.0,,,,,,,,,yellow,square
0.0,5.0,1.0,1.0,6.0,0.0,0.0,1.0,1.0,phase_2,stop,350.0,250.0,4.0,,,,,,,,,blue,triangle
0.0,2.0,2.0,0.0,5.0,5.0,657.3805389998597,1.0,1.0,phase_2,go,350.0,300.0,1.0,,,,,,,,,gray,hexagon
0.0,3.0,3.0,0.0,5.0,5.0,388.0953829998361,1.0,1.0,phase_2,go,350.0,300.0,1.0,,,,,,,,,green,diamond
0.0,8.0,4.0,1.0,5.0,0.0,0.0,1.0,1.0,phase_2,stop,350.0,300.0,4.0,,,,,,,,,orange,I
0.0,1.0,1.0,0.0,5.0,5.0,764.0090939999027,1.0,1.0,phase_2,go,400.0,300.0,1.0,,,,,,,,,magenta,flipped triangle
0.0,8.0,4.0,1.0,6.0,6.0,535.7864040001914,1.0,1.0,phase_2,go,400.0,300.0,1.0,,,,,,,,,orange,I
0.0,8.0,4.0,1.0,6.0,0.0,0.0,1.0,1.0,phase_2,stop,400.0,300.0,4.0,,,,,,,,,orange,I
0.0,5.0,1.0,1.0,6.0,0.0,0.0,1.0,1.0,phase_2,stop,400.0,350.0,4.0,,,,,,,,,blue,triangle
0.0,2.0,2.0,0.0,5.0,5.0,403.211586999987,1.0,1.0,phase_2,go,400.0,400.0,1.0,,,,,,,,,gray,hexagon
0.0,8.0,4.0,1.0,5.0,0.0,0.0,1.0,1.0,phase_2,stop,400.0,400.0,4.0,,,,,,,,,orange,I
0.0,1.0,1.0,0.0,5.0,5.0,584.1960739999195,1.0,1.0,phase_2,go,450.0,400.0,1.0,,,,,,,,,magenta,flipped triangle
0.0,3.0,3.0,0.0,6.0,6.0,908.8065200003256,1.0,1.0,phase_2,go,450.0,400.0,1.0,,,,,,,,,green,diamond
0.0,1.0,1.0,0.0,6.0,6.0,415.1628429999618,1.0,1.0,phase_2,go,450.0,400.0,1.0,,,,,,,,,magenta,flipped triangle
0.0,1.0,1.0,0.0,6.0,6.0,368.9015290001407,1.0,1.0,phase_2,go,450.0,400.0,1.0,,,,,,,,,magenta,flipped triangle
0.0,6.0,2.0,1.0,6.0,0.0,0.0,1.0,1.0,phase_2,stop,450.0,400.0,4.0,,,,,,,,,yellow,square
0.0,6.0,2.0,1.0,5.0,5.0,385.0692820001313,1.0,1.0,phase_2,stop,450.0,450.0,3.0,,,,,,,,,yellow,square
0.0,1.0,1.0,0.0,5.0,5.0,609.0273189997788,1.0,1.0,phase_2,go,400.0,450.0,1.0,,,,,,,,,magenta,flipped triangle
0.0,3.0,3.0,0.0,6.0,6.0,387.9162409998571,1.0,1.0,phase_2,go,400.0,450.0,1.0,,,,,,,,,green,diamond
0.0,2.0,2.0,0.0,6.0,6.0,340.6909380000797,1.0,1.0,phase_2,go,400.0,450.0,1.0,,,,,,,,,gray,hexagon
0.0,5.0,1.0,1.0,5.0,5.0,416.9994339999903,1.0,1.0,phase_2,go,400.0,450.0,1.0,,,,,,,,,blue,triangle
0.0,5.0,1.0,1.0,6.0,6.0,627.4987490000967,1.0,1.0,phase_2,go,400.0,450.0,1.0,,,,,,,,,blue,triangle
0.0,4.0,4.0,0.0,6.0,6.0,483.4073520000856,1.0,1.0,phase_2,go,400.0,450.0,1.0,,,,,,,,,cyan,circle
0.0,5.0,1.0,1.0,6.0,6.0,353.2834940001521,1.0,1.0,phase_2,stop,400.0,450.0,3.0,,,,,,,,,blue,triangle
0.0,5.0,1.0,1.0,5.0,5.0,597.5098369999614,1.0,1.0,phase_2,stop,400.0,400.0,3.0,,,,,,,,,blue,triangle
0.0,8.0,4.0,1.0,6.0,6.0,841.8616509998174,2.0,1.0,phase_2,stop,350.0,400.0,3.0,,,,,,,,,orange,I
0.0,2.0,2.0,0.0,6.0,6.0,769.4236209999872,2.0,1.0,phase_2,go,350.0,350.0,1.0,,,,,,,,,gray,hexagon
0.0,6.0,2.0,1.0,5.0,5.0,334.9224359999425,2.0,1.0,phase_2,stop,350.0,350.0,3.0,,,,,,,,,yellow,square
0.0,6.0,2.0,1.0,5.0,5.0,521.4341949999834,2.0,1.0,phase_2,go,300.0,350.0,1.0,,,,,,,,,yellow,square
0.0,5.0,1.0,1.0,6.0,0.0,0.0,2.0,1.0,phase_2,stop,300.0,350.0,4.0,,,,,,,,,blue,triangle
0.0,5.0,1.0,1.0,5.0,5.0,465.0331369998639,2.0,1.0,phase_2,stop,300.0,400.0,3.0,,,,,,,,,blue,triangle
0.0,3.0,3.0,0.0,5.0,5.0,460.6012909998753,2.0,1.0,phase_2,go,250.0,400.0,1.0,,,,,,,,,green,diamond
0.0,7.0,3.0,1.0,6.0,6.0,327.0099319997825,2.0,1.0,phase_2,go,250.0,400.0,1.0,,,,,,,,,white,cross
0.0,1.0,1.0,0.0,6.0,6.0,336.0906419998173,2.0,1.0,phase_2,go,250.0,400.0,1.0,,,,,,,,,magenta,flipped triangle
0.0,7.0,3.0,1.0,5.0,5.0,297.9756469999302,2.0,1.0,phase_2,go,250.0,400.0,1.0,,,,,,,,,white,cross
0.0,8.0,4.0,1.0,5.0,5.0,301.5397600001961,2.0,1.0,phase_2,stop,250.0,400.0,3.0,,,,,,,,,orange,I
0.0,7.0,3.0,1.0,5.0,5.0,651.6923340000176,2.0,1.0,phase_2,go,200.0,400.0,1.0,,,,,,,,,white,cross
0.0,8.0,4.0,1.0,5.0,0.0,0.0,2.0,1.0,phase_2,stop,200.0,400.0,4.0,,,,,,,,,orange,I
0.0,5.0,1.0,1.0,5.0,5.0,431.2825830002111,2.0,1.0,phase_2,go,250.0,400.0,1.0,,,,,,,,,blue,triangle
0.0,6.0,2.0,1.0,6.0,6.0,486.07273899961,2.0,1.0,phase_2,stop,250.0,400.0,3.0,,,,,,,,,yellow,square
0.0,4.0,4.0,0.0,6.0,6.0,532.7036079997924,2.0,1.0,phase_2,go,250.0,350.0,1.0,,,,,,,,,cyan,circle
0.0,8.0,4.0,1.0,5.0,5.0,344.497021999814,2.0,1.0,phase_2,stop,250.0,350.0,3.0,,,,,,,,,orange,I
0.0,6.0,2.0,1.0,5.0,0.0,0.0,2.0,1.0,phase_2,stop,200.0,350.0,4.0,,,,,,,,,yellow,square
0.0,5.0,1.0,1.0,5.0,0.0,0.0,2.0,1.0,phase_2,stop,250.0,350.0,4.0,,,,,,,,,blue,triangle
0.0,3.0,3.0,0.0,5.0,5.0,635.249568999825,2.0,1.0,phase_2,go,300.0,350.0,1.0,,,,,,,,,green,diamond
0.0,4.0,4.0,0.0,6.0,6.0,512.3547020002661,2.0,1.0,phase_2,go,300.0,350.0,1.0,,,,,,,,,cyan,circle
0.0,6.0,2.0,1.0,5.0,0.0,0.0,2.0,1.0,phase_2,stop,300.0,350.0,4.0,,,,,,,,,yellow,square
0.0,7.0,3.0,1.0,5.0,5.0,574.4797209999888,2.0,1.0,phase_2,go,350.0,350.0,1.0,,,,,,,,,white,cross
0.0,2.0,2.0,0.0,6.0,6.0,502.5619050002206,2.0,1.0,phase_2,go,350.0,350.0,1.0,,,,,,,,,gray,hexagon
0.0,5.0,1.0,1.0,5.0,5.0,557.8118329999597,2.0,1.0,phase_2,go,350.0,350.0,1.0,,,,,,,,,blue,triangle
0.0,6.0,2.0,1.0,5.0,5.0,471.7828299999382,2.0,1.0,phase_2,stop,350.0,350.0,3.0,,,,,,,,,yellow,square
0.0,1.0,1.0,0.0,5.0,5.0,686.777285000062,2.0,1.0,phase_2,go,300.0,350.0,1.0,,,,,,,,,magenta,flipped triangle
0.0,1.0,1.0,0.0,5.0,5.0,558.2219379998605,2.0,1.0,phase_2,go,300.0,350.0,1.0,,,,,,,,,magenta,flipped triangle
0.0,6.0,2.0,1.0,6.0,6.0,462.9330770003435,2.0,1.0,phase_2,go,300.0,350.0,1.0,,,,,,,,,yellow,square
0.0,5.0,1.0,1.0,6.0,6.0,823.830899999848,2.0,1.0,phase_2,go,300.0,350.0,1.0,,,,,,,,,blue,triangle
0.0,6.0,2.0,1.0,5.0,0.0,0.0,2.0,1.0,phase_2,stop,300.0,350.0,4.0,,,,,,,,,yellow,square
0.0,5.0,1.0,1.0,5.0,0.0,0.0,2.0,1.0,phase_2,stop,350.0,350.0,4.0,,,,,,,,,blue,triangle
0.0,8.0,4.0,1.0,6.0,6.0,465.5968289998782,2.0,1.0,phase_2,go,400.0,350.0,1.0,,,,,,,,,orange,I
0.0,6.0,2.0,1.0,6.0,6.0,523.223336999763,2.0,1.0,phase_2,go,400.0,350.0,1.0,,,,,,,,,yellow,square
0.0,1.0,1.0,0.0,6.0,6.0,690.1289229999747,2.0,1.0,phase_2,go,400.0,350.0,1.0,,,,,,,,,magenta,flipped triangle
0.0,7.0,3.0,1.0,6.0,0.0,0.0,2.0,1.0,phase_2,stop,400.0,350.0,4.0,,,,,,,,,white,cross
0.0,6.0,2.0,1.0,5.0,5.0,662.8170419999151,3.0,1.0,phase_2,go,400.0,400.0,1.0,,,,,,,,,yellow,square
0.0,5.0,1.0,1.0,5.0,5.0,435.0930279997556,3.0,1.0,phase_2,stop,400.0,400.0,3.0,,,,,,,,,blue,triangle
0.0,5.0,1.0,1.0,6.0,0.0,0.0,3.0,1.0,phase_2,stop,350.0,400.0,4.0,,,,,,,,,blue,triangle
0.0,2.0,2.0,0.0,5.0,5.0,890.5829059999633,3.0,1.0,phase_2,go,350.0,450.0,1.0,,,,,,,,,gray,hexagon
0.0,4.0,4.0,0.0,5.0,5.0,637.2370070002944,3.0,1.0,phase_2,go,350.0,450.0,1.0,,,,,,,,,cyan,circle
0.0,7.0,3.0,1.0,6.0,0.0,0.0,3.0,1.0,phase_2,stop,350.0,450.0,4.0,,,,,,,,,white,cross
0.0,7.0,3.0,1.0,5.0,0.0,0.0,3.0,1.0,phase_2,stop,350.0,500.0,4.0,,,,,,,,,white,cross
0.0,5.0,1.0,1.0,5.0,0.0,0.0,3.0,1.0,phase_2,stop,400.0,500.0,4.0,,,,,,,,,blue,triangle
0.0,3.0,3.0,0.0,6.0,6.0,579.4637009998951,3.0,1.0,phase_2,go,450.0,500.0,1.0,,,,,,,,,green,diamond
0.0,3.0,3.0,0.0,5.0,5.0,431.1618179999641,3.0,1.0,phase_2,go,450.0,500.0,1.0,,,,,,,,,green,diamond
0.0,2.0,2.0,0.0,6.0,6.0,581.8887450000148,3.0,1.0,phase_2,go,450.0,500.0,1.0,,,,,,,,,gray,hexagon
0.0,3.0,3.0,0.0,5.0,5.0,479.404629000328,3.0,1.0,phase_2,go,450.0,500.0,1.0,,,,,,,,,green,diamond
0.0,7.0,3.0,1.0,5.0,5.0,602.4727650001296,3.0,1.0,phase_2,stop,450.0,500.0,3.0,,,,,,,,,white,cross
0.0,3.0,3.0,0.0,6.0,6.0,326.5645920000679,3.0,1.0,phase_2,go,400.0,500.0,1.0,,,,,,,,,green,diamond
0.0,2.0,2.0,0.0,5.0,5.0,479.5218670001304,3.0,1.0,phase_2,go,400.0,500.0,1.0,,,,,,,,,gray,hexagon
0.0,2.0,2.0,0.0,6.0,6.0,678.5324449997461,3.0,1.0,phase_2,go,400.0,500.0,1.0,,,,,,,,,gray,hexagon
0.0,8.0,4.0,1.0,6.0,6.0,461.5509300001577,3.0,1.0,phase_2,stop,400.0,500.0,3.0,,,,,,,,,orange,I
0.0,1.0,1.0,0.0,5.0,5.0,713.0270319998999,3.0,1.0,phase_2,go,400.0,450.0,1.0,,,,,,,,,magenta,flipped triangle
0.0,8.0,4.0,1.0,5.0,5.0,552.791649000028,3.0,1.0,phase_2,stop,400.0,450.0,3.0,,,,,,,,,orange,I
0.0,6.0,2.0,1.0,6.0,0.0,0.0,3.0,1.0,phase_2,stop,350.0,450.0,4.0,,,,,,,,,yellow,square
0.0,5.0,1.0,1.0,6.0,0.0,0.0,3.0,1.0,phase_2,stop,350.0,500.0,4.0,,,,,,,,,blue,triangle
0.0,4.0,4.0,0.0,5.0,5.0,788.1968760002565,3.0,1.0,phase_2,go,350.0,550.0,1.0,,,,,,,,,cyan,circle
0.0,7.0,3.0,1.0,5.0,5.0,530.7369910001398,3.0,1.0,phase_2,stop,350.0,550.0,3.0,,,,,,,,,white,cross
0.0,2.0,2.0,0.0,5.0,5.0,809.6123389996137,3.0,1.0,phase_2,go,300.0,550.0,1.0,,,,,,,,,gray,hexagon
0.0,3.0,3.0,0.0,5.0,5.0,477.8184829997371,3.0,1.0,phase_2,go,300.0,550.0,1.0,,,,,,,,,green,diamond
0.0,5.0,1.0,1.0,6.0,6.0,616.5870119998544,3.0,1.0,phase_2,stop,300.0,550.0,3.0,,,,,,,,,blue,triangle
0.0,8.0,4.0,1.0,5.0,0.0,0.0,3.0,1.0,phase_2,stop,300.0,500.0,4.0,,,,,,,,,orange,I
0.0,1.0,1.0,0.0,6.0,6.0,805.7013170000573,3.0,1.0,phase_2,go,350.0,500.0,1.0,,,,,,,,,magenta,flipped triangle
0.0,7.0,3.0,1.0,6.0,6.0,573.1630730001598,3.0,1.0,phase_2,go,350.0,500.0,1.0,,,,,,,,,white,cross
0.0,7.0,3.0,1.0,6.0,6.0,602.8493399999206,3.0,1.0,phase_2,stop,350.0,500.0,3.0,,,,,,,,,white,cross
0.0,4.0,4.0,0.0,5.0,5.0,526.7907029997332,3.0,1.0,phase_2,go,350.0,450.0,1.0,,,,,,,,,cyan,circle
0.0,5.0,1.0,1.0,6.0,6.0,695.3787600000396,3.0,1.0,phase_2,go,350.0,450.0,1.0,,,,,,,,,blue,triangle
0.0,2.0,2.0,0.0,6.0,6.0,441.3348909997694,3.0,1.0,phase_2,go,350.0,450.0,1.0,,,,,,,,,gray,hexagon
0.0,7.0,3.0,1.0,6.0,6.0,552.6276629998392,3.0,1.0,phase_2,stop,350.0,450.0,3.0,,,,,,,,,white,cross
0.0,6.0,2.0,1.0,6.0,6.0,587.8442009998253,3.0,1.0,phase_2,stop,350.0,400.0,3.0,,,,,,,,,yellow,square
0.0,3.0,3.0,0.0,6.0,6.0,817.8743569997096,3.0,1.0,phase_2,go,350.0,350.0,1.0,,,,,,,,,green,diamond
0.0,1.0,1.0,0.0,6.0,6.0,872.2405880002952,4.0,1.0,phase_2,go,350.0,350.0,1.0,,,,,,,,,magenta,flipped triangle
0.0,7.0,3.0,1.0,6.0,6.0,310.9685310000714,4.0,1.0,phase_2,go,350.0,350.0,1.0,,,,,,,,,white,cross
0.0,4.0,4.0,0.0,5.0,5.0,352.8970959996513,4.0,1.0,phase_2,go,350.0,350.0,1.0,,,,,,,,,cyan,circle
0.0,7.0,3.0,1.0,6.0,6.0,386.8868760000623,4.0,1.0,phase_2,stop,350.0,350.0,3.0,,,,,,,,,white,cross
0.0,4.0,4.0,0.0,5.0,5.0,327.4240270002337,4.0,1.0,phase_2,go,350.0,300.0,1.0,,,,,,,,,cyan,circle
0.0,4.0,4.0,0.0,5.0,5.0,569.4976969998606,4.0,1.0,phase_2,go,350.0,300.0,1.0,,,,,,,,,cyan,circle
0.0,3.0,3.0,0.0,5.0,5.0,740.4305850000128,4.0,1.0,phase_2,go,350.0,300.0,1.0,,,,,,,,,green,diamond
0.0,8.0,4.0,1.0,5.0,5.0,331.3159149997773,4.0,1.0,phase_2,stop,350.0,300.0,3.0,,,,,,,,,orange,I
0.0,2.0,2.0,0.0,5.0,5.0,640.4811960001098,4.0,1.0,phase_2,go,300.0,300.0,1.0,,,,,,,,,gray,hexagon
0.0,6.0,2.0,1.0,5.0,5.0,314.6425969998745,4.0,1.0,phase_2,go,300.0,300.0,1.0,,,,,,,,,yellow,square
0.0,1.0,1.0,0.0,5.0,5.0,396.2439540000559,4.0,1.0,phase_2,go,300.0,300.0,1.0,,,,,,,,,magenta,flipped triangle
0.0,8.0,4.0,1.0,6.0,0.0,0.0,4.0,1.0,phase_2,stop,300.0,300.0,4.0,,,,,,,,,orange,I
0.0,6.0,2.0,1.0,5.0,5.0,350.9258760000193,4.0,1.0,phase_2,go,300.0,350.0,1.0,,,,,,,,,yellow,square
0.0,3.0,3.0,0.0,5.0,5.0,437.7774879999379,4.0,1.0,phase_2,go,300.0,350.0,1.0,,,,,,,,,green,diamond
0.0,7.0,3.0,1.0,5.0,5.0,422.2711530001106,4.0,1.0,phase_2,stop,300.0,350.0,3.0,,,,,,,,,white,cross
0.0,5.0,1.0,1.0,6.0,0.0,0.0,4.0,1.0,phase_2,stop,250.0,350.0,4.0,,,,,,,,,blue,triangle
0.0,1.0,1.0,0.0,6.0,6.0,758.7725140001567,4.0,1.0,phase_2,go,250.0,400.0,1.0,,,,,,,,,magenta,flipped triangle
0.0,8.0,4.0,1.0,5.0,5.0,357.1648340002866,4.0,1.0,phase_2,stop,250.0,400.0,3.0,,,,,,,,,orange,I
0.0,8.0,4.0,1.0,6.0,6.0,685.7700639998257,4.0,1.0,phase_2,go,200.0,400.0,1.0,,,,,,,,,orange,I
0.0,5.0,1.0,1.0,6.0,6.0,551.2942300001669,4.0,1.0,phase_2,stop,200.0,400.0,3.0,,,,,,,,,blue,triangle
0.0,2.0,2.0,0.0,6.0,6.0,836.5654230001383,4.0,1.0,phase_2,go,200.0,350.0,1.0,,,,,,,,,gray,hexagon
0.0,3.0,3.0,0.0,6.0,6.0,564.0237229999912,4.0,1.0,phase_2,go,200.0,350.0,1.0,,,,,,,,,green,diamond
0.0,2.0,2.0,0.0,5.0,5.0,640.5896770002073,4.0,1.0,phase_2,go,200.0,350.0,1.0,,,,,,,,,gray,hexagon
0.0,4.0,4.0,0.0,5.0,5.0,708.27230399982,4.0,1.0,phase_2,go,200.0,350.0,1.0,,,,,,,,,cyan,circle
0.0,6.0,2.0,1.0,5.0,0.0,0.0,4.0,1.0,phase_2,stop,200.0,350.0,4.0,,,,,,,,,yellow,square
0.0,4.0,4.0,0.0,5.0,5.0,777.6886520000517,4.0,1.0,phase_2,go,250.0,350.0,1.0,,,,,,,,,cyan,circle
0.0,8.0,4.0,1.0,6.0,0.0,0.0,4.0,1.0,phase_2,stop,250.0,350.0,4.0,,,,,,,,,orange,I
0.0,7.0,3.0,1.0,6.0,0.0,0.0,4.0,1.0,phase_2,stop,250.0,400.0,4.0,,,,,,,,,white,cross
0.0,6.0,2.0,1.0,6.0,6.0,759.4353399999818,4.0,1.0,phase_2,go,250.0,450.0,1.0,,,,,,,,,yellow,square
0.0,4.0,4.0,0.0,6.0,6.0,645.0086539998665,4.0,1.0,phase_2,go,250.0,450.0,1.0,,,,,,,,,cyan,circle
0.0,4.0,4.0,0.0,6.0,6.0,566.3856390001456,4.0,1.0,phase_2,go,250.0,450.0,1.0,,,,,,,,,cyan,circle
0.0,2.0,2.0,0.0,5.0,5.0,564.0520410001955,4.0,1.0,phase_2,go,250.0,450.0,1.0,,,,,,,,,gray,hexagon
0.0,5.0,1.0,1.0,5.0,0.0,0.0,4.0,1.0,phase_2,stop,250.0,450.0,4.0,,,,,,,,,blue,triangle
0.0,8.0,4.0,1.0,6.0,6.0,1118.3974020000278,4.0,1.0,phase_2,go,300.0,450.0,1.0,,,,,,,,,orange,I
0.0,5.0,1.0,1.0,6.0,6.0,481.0735790001672,4.0,1.0,phase_2,stop,300.0,450.0,3.0,,,,,,,,,blue,triangle
0.0,6.0,2.0,1.0,5.0,0.0,0.0,4.0,1.0,phase_2,stop,300.0,400.0,4.0,,,,,,,,,yellow,square
0.0,4.0,4.0,0.0,6.0,6.0,733.7079799999628,5.0,1.0,phase_2,go,350.0,400.0,1.0,,,,,,,,,cyan,circle
0.0,4.0,4.0,0.0,6.0,6.0,335.4099039997891,5.0,1.0,phase_2,go,350.0,400.0,1.0,,,,,,,,,cyan,circle
0.0,3.0,3.0,0.0,6.0,6.0,695.2237229997991,5.0,1.0,phase_2,go,350.0,400.0,1.0,,,,,,,,,green,diamond
0.0,1.0,1.0,0.0,6.0,6.0,408.35497999978537,5.0,1.0,phase_2,go,350.0,400.0,1.0,,,,,,,,,magenta,flipped triangle
0.0,5.0,1.0,1.0,6.0,6.0,487.5111780002044,5.0,1.0,phase_2,go,350.0,400.0,1.0,,,,,,,,,blue,triangle
0.0,1.0,1.0,0.0,5.0,5.0,379.2931840002893,5.0,1.0,phase_2,go,350.0,400.0,1.0,,,,,,,,,magenta,flipped triangle
0.0,7.0,3.0,1.0,5.0,5.0,392.7620210001805,5.0,1.0,phase_2,stop,350.0,400.0,3.0,,,,,,,,,white,cross
0.0,8.0,4.0,1.0,6.0,6.0,498.0237889999444,5.0,1.0,phase_2,stop,300.0,400.0,3.0,,,,,,,,,orange,I
0.0,5.0,1.0,1.0,5.0,0.0,0.0,5.0,1.0,phase_2,stop,300.0,350.0,4.0,,,,,,,,,blue,triangle
0.0,2.0,2.0,0.0,5.0,5.0,618.5518390002471,5.0,1.0,phase_2,go,350.0,350.0,1.0,,,,,,,,,gray,hexagon
0.0,5.0,1.0,1.0,6.0,0.0,0.0,5.0,1.0,phase_2,stop,350.0,350.0,4.0,,,,,,,,,blue,triangle
0.0,2.0,2.0,0.0,5.0,5.0,625.4003799999737,5.0,1.0,phase_2,go,350.0,400.0,1.0,,,,,,,,,gray,hexagon
0.0,7.0,3.0,1.0,5.0,0.0,0.0,5.0,1.0,phase_2,stop,350.0,400.0,4.0,,,,,,,,,white,cross
0.0,4.0,4.0,0.0,5.0,5.0,380.2542110001923,5.0,1.0,phase_2,go,400.0,400.0,1.0,,,,,,,,,cyan,circle
0.0,4.0,4.0,0.0,5.0,5.0,340.8256920001804,5.0,1.0,phase_2,go,400.0,400.0,1.0,,,,,,,,,cyan,circle
0.0,3.0,3.0,0.0,6.0,6.0,674.0200010003718,5.0,1.0,phase_2,go,400.0,400.0,1.0,,,,,,,,,green,diamond
0.0,4.0,4.0,0.0,5.0,5.0,628.0367310000656,5.0,1.0,phase_2,go,400.0,400.0,1.0,,,,,,,,,cyan,circle
0.0,1.0,1.0,0.0,5.0,5.0,612.9767889997311,5.0,1.0,phase_2,go,400.0,400.0,1.0,,,,,,,,,magenta,flipped triangle
0.0,3.0,3.0,0.0,5.0,5.0,329.4344949999868,5.0,1.0,phase_2,go,400.0,400.0,1.0,,,,,,,,,green,diamond
0.0,1.0,1.0,0.0,6.0,6.0,460.2617589998772,5.0,1.0,phase_2,go,400.0,400.0,1.0,,,,,,,,,magenta,flipped triangle
0.0,4.0,4.0,0.0,6.0,6.0,352.3222310000165,5.0,1.0,phase_2,go,400.0,400.0,1.0,,,,,,,,,cyan,circle
0.0,8.0,4.0,1.0,5.0,5.0,391.411362999861,5.0,1.0,phase_2,stop,400.0,400.0,3.0,,,,,,,,,orange,I
0.0,2.0,2.0,0.0,6.0,6.0,566.0379169999032,5.0,1.0,phase_2,go,350.0,400.0,1.0,,,,,,,,,gray,hexagon
0.0,3.0,3.0,0.0,5.0,5.0,623.5681510001996,5.0,1.0,phase_2,go,350.0,400.0,1.0,,,,,,,,,green,diamond
0.0,1.0,1.0,0.0,5.0,5.0,477.833493000162,5.0,1.0,phase_2,go,350.0,400.0,1.0,,,,,,,,,magenta,flipped triangle
0.0,4.0,4.0,0.0,6.0,6.0,542.1477949998916,5.0,1.0,phase_2,go,350.0,400.0,1.0,,,,,,,,,cyan,circle
0.0,1.0,1.0,0.0,6.0,6.0,495.8634190002158,5.0,1.0,phase_2,go,350.0,400.0,1.0,,,,,,,,,magenta,flipped triangle
0.0,5.0,1.0,1.0,6.0,6.0,438.0340930001694,5.0,1.0,phase_2,stop,350.0,400.0,3.0,,,,,,,,,blue,triangle
0.0,7.0,3.0,1.0,5.0,0.0,0.0,5.0,1.0,phase_2,stop,350.0,350.0,4.0,,,,,,,,,white,cross
0.0,6.0,2.0,1.0,6.0,0.0,0.0,5.0,1.0,phase_2,stop,400.0,350.0,4.0,,,,,,,,,yellow,square
0.0,3.0,3.0,0.0,6.0,6.0,423.9902360000087,5.0,1.0,phase_2,go,400.0,400.0,1.0,,,,,,,,,green,diamond
0.0,8.0,4.0,1.0,5.0,5.0,453.8725679999515,5.0,1.0,phase_2,stop,400.0,400.0,3.0,,,,,,,,,orange,I
0.0,4.0,4.0,0.0,6.0,6.0,703.9373949996843,5.0,1.0,phase_2,go,350.0,400.0,1.0,,,,,,,,,cyan,circle
0.0,1.0,1.0,0.0,6.0,6.0,524.4514750002054,5.0,1.0,phase_2,go,350.0,400.0,1.0,,,,,,,,,magenta,flipped triangle
0.0,7.0,3.0,1.0,6.0,6.0,597.202071999618,5.0,1.0,phase_2,stop,350.0,400.0,3.0,,,,,,,,,white,cross
0.0,6.0,2.0,1.0,5.0,0.0,0.0,5.0,1.0,phase_2,stop,350.0,350.0,4.0,,,,,,,,,yellow,square
0.0,5.0,1.0,1.0,6.0,6.0,418.6451709997527,6.0,1.0,phase_2,stop,400.0,350.0,3.0,,,,,,,,,blue,triangle
0.0,3.0,3.0,0.0,5.0,5.0,417.9121370002576,6.0,1.0,phase_2,go,400.0,300.0,1.0,,,,,,,,,green,diamond
0.0,3.0,3.0,0.0,5.0,5.0,393.7305649997142,6.0,1.0,phase_2,go,400.0,300.0,1.0,,,,,,,,,green,diamond
0.0,8.0,4.0,1.0,6.0,6.0,475.9607310002138,6.0,1.0,phase_2,go,400.0,300.0,1.0,,,,,,,,,orange,I
0.0,8.0,4.0,1.0,5.0,5.0,521.0983800002396,6.0,1.0,phase_2,go,400.0,300.0,1.0,,,,,,,,,orange,I
0.0,1.0,1.0,0.0,6.0,6.0,528.6210009999195,6.0,1.0,phase_2,go,400.0,300.0,1.0,,,,,,,,,magenta,flipped triangle
0.0,3.0,3.0,0.0,5.0,5.0,529.9180669999259,6.0,1.0,phase_2,go,400.0,300.0,1.0,,,,,,,,,green,diamond
0.0,2.0,2.0,0.0,5.0,5.0,369.1468829997575,6.0,1.0,phase_2,go,400.0,300.0,1.0,,,,,,,,,gray,hexagon
0.0,8.0,4.0,1.0,5.0,5.0,398.0686890004108,6.0,1.0,phase_2,stop,400.0,300.0,3.0,,,,,,,,,orange,I
0.0,7.0,3.0,1.0,5.0,5.0,721.4216649999798,6.0,1.0,phase_2,go,350.0,300.0,1.0,,,,,,,,,white,cross
0.0,2.0,2.0,0.0,6.0,6.0,535.2050649999001,6.0,1.0,phase_2,go,350.0,300.0,1.0,,,,,,,,,gray,hexagon
0.0,1.0,1.0,0.0,5.0,5.0,443.0226290000973,6.0,1.0,phase_2,go,350.0,300.0,1.0,,,,,,,,,magenta,flipped triangle
0.0,7.0,3.0,1.0,6.0,6.0,376.4925710001989,6.0,1.0,phase_2,stop,350.0,300.0,3.0,,,,,,,,,white,cross
0.0,1.0,1.0,0.0,5.0,5.0,322.0966840003711,6.0,1.0,phase_2,go,350.0,250.0,1.0,,,,,,,,,magenta,flipped triangle
0.0,2.0,2.0,0.0,5.0,5.0,400.5206520000683,6.0,1.0,phase_2,go,350.0,250.0,1.0,,,,,,,,,gray,hexagon
0.0,8.0,4.0,1.0,5.0,5.0,318.9125170001716,6.0,1.0,phase_2,stop,350.0,250.0,3.0,,,,,,,,,orange,I
0.0,6.0,2.0,1.0,6.0,0.0,0.0,6.0,1.0,phase_2,stop,300.0,250.0,4.0,,,,,,,,,yellow,square
0.0,4.0,4.0,0.0,6.0,6.0,612.6111960002163,6.0,1.0,phase_2,go,300.0,300.0,1.0,,,,,,,,,cyan,circle
0.0,7.0,3.0,1.0,6.0,6.0,395.8141630000682,6.0,1.0,phase_2,stop,300.0,300.0,3.0,,,,,,,,,white,cross
0.0,7.0,3.0,1.0,5.0,0.0,0.0,6.0,1.0,phase_2,stop,300.0,250.0,4.0,,,,,,,,,white,cross
0.0,5.0,1.0,1.0,5.0,0.0,0.0,6.0,1.0,phase_2,stop,350.0,250.0,4.0,,,,,,,,,blue,triangle
0.0,1.0,1.0,0.0,6.0,6.0,310.7383889996526,6.0,1.0,phase_2,go,400.0,250.0,1.0,,,,,,,,,magenta,flipped triangle
0.0,7.0,3.0,1.0,6.0,0.0,0.0,6.0,1.0,phase_2,stop,400.0,250.0,4.0,,,,,,,,,white,cross
0.0,5.0,1.0,1.0,6.0,0.0,0.0,6.0,1.0,phase_2,stop,400.0,300.0,4.0,,,,,,,,,blue,triangle
0.0,2.0,2.0,0.0,6.0,6.0,410.6084439999904,6.0,1.0,phase_2,go,400.0,350.0,1.0,,,,,,,,,gray,hexagon
0.0,2.0,2.0,0.0,5.0,5.0,543.9701600002991,6.0,1.0,phase_2,go,400.0,350.0,1.0,,,,,,,,,gray,hexagon
0.0,8.0,4.0,1.0,6.0,0.0,0.0,6.0,1.0,phase_2,stop,400.0,350.0,4.0,,,,,,,,,orange,I
0.0,2.0,2.0,0.0,6.0,6.0,920.7763250001336,6.0,1.0,phase_2,go,400.0,400.0,1.0,,,,,,,,,gray,hexagon
0.0,6.0,2.0,1.0,6.0,0.0,0.0,6.0,1.0,phase_2,stop,400.0,400.0,4.0,,,,,,,,,yellow,square
0.0,4.0,4.0,0.0,5.0,5.0,629.6745019999435,6.0,1.0,phase_2,go,400.0,450.0,1.0,,,,,,,,,cyan,circle
0.0,2.0,2.0,0.0,6.0,6.0,654.7924750002494,6.0,1.0,phase_2,go,400.0,450.0,1.0,,,,,,,,,gray,hexagon
0.0,6.0,2.0,1.0,6.0,6.0,483.6809019998327,6.0,1.0,phase_2,stop,400.0,450.0,3.0,,,,,,,,,yellow,square
0.0,3.0,3.0,0.0,6.0,6.0,695.029378000072,6.0,1.0,phase_2,go,400.0,400.0,1.0,,,,,,,,,green,diamond
0.0,5.0,1.0,1.0,5.0,5.0,313.3331680000992,6.0,1.0,phase_2,stop,400.0,400.0,3.0,,,,,,,,,blue,triangle
0.0,5.0,1.0,1.0,5.0,0.0,0.0,6.0,1.0,phase_2,stop,350.0,400.0,4.0,,,,,,,,,blue,triangle
0.0,2.0,2.0,0.0,6.0,6.0,640.7589469999948,6.0,1.0,phase_2,go,400.0,400.0,1.0,,,,,,,,,gray,hexagon
0.0,2.0,2.0,0.0,6.0,6.0,384.0255079999224,7.0,1.0,phase_2,go,400.0,400.0,1.0,,,,,,,,,gray,hexagon
0.0,3.0,3.0,0.0,5.0,5.0,517.79775399973,7.0,1.0,phase_2,go,400.0,400.0,1.0,,,,,,,,,green,diamond
0.0,1.0,1.0,0.0,5.0,5.0,463.5028940001575,7.0,1.0,phase_2,go,400.0,400.0,1.0,,,,,,,,,magenta,flipped triangle
0.0,3.0,3.0,0.0,6.0,6.0,294.8426379998636,7.0,1.0,phase_2,go,400.0,400.0,1.0,,,,,,,,,green,diamond
0.0,2.0,2.0,0.0,5.0,5.0,391.0479969999869,7.0,1.0,phase_2,go,400.0,400.0,1.0,,,,,,,,,gray,hexagon
0.0,7.0,3.0,1.0,5.0,5.0,430.1702870002373,7.0,1.0,phase_2,stop,400.0,400.0,3.0,,,,,,,,,white,cross
0.0,2.0,2.0,0.0,6.0,6.0,550.8049899999605,7.0,1.0,phase_2,go,350.0,400.0,1.0,,,,,,,,,gray,hexagon
0.0,7.0,3.0,1.0,6.0,6.0,496.777849999944,7.0,1.0,phase_2,stop,350.0,400.0,3.0,,,,,,,,,white,cross
0.0,3.0,3.0,0.0,5.0,5.0,652.8605839998818,7.0,1.0,phase_2,go,350.0,350.0,1.0,,,,,,,,,green,diamond
0.0,7.0,3.0,1.0,5.0,0.0,0.0,7.0,1.0,phase_2,stop,350.0,350.0,4.0,,,,,,,,,white,cross
0.0,6.0,2.0,1.0,6.0,0.0,0.0,7.0,1.0,phase_2,stop,400.0,350.0,4.0,,,,,,,,,yellow,square
0.0,4.0,4.0,0.0,6.0,6.0,669.6109829999841,7.0,1.0,phase_2,go,400.0,400.0,1.0,,,,,,,,,cyan,circle
0.0,3.0,3.0,0.0,5.0,5.0,645.4459599999609,7.0,1.0,phase_2,go,400.0,400.0,1.0,,,,,,,,,green,diamond
0.0,7.0,3.0,1.0,5.0,5.0,431.8029170003683,7.0,1.0,phase_2,stop,400.0,400.0,3.0,,,,,,,,,white,cross
0.0,2.0,2.0,0.0,6.0,6.0,428.8033119996726,7.0,1.0,phase_2,go,350.0,400.0,1.0,,,,,,,,,gray,hexagon
0.0,4.0,4.0,0.0,5.0,5.0,586.5537429999677,7.0,1.0,phase_2,go,350.0,400.0,1.0,,,,,,,,,cyan,circle
0.0,1.0,1.0,0.0,6.0,6.0,690.2767610004048,7.0,1.0,phase_2,go,350.0,400.0,1.0,,,,,,,,,magenta,flipped triangle
0.0,8.0,4.0,1.0,5.0,0.0,0.0,7.0,1.0,phase_2,stop,350.0,400.0,4.0,,,,,,,,,orange,I
0.0,6.0,2.0,1.0,6.0,6.0,638.9142590001029,7.0,1.0,phase_2,go,400.0,400.0,1.0,,,,,,,,,yellow,square
0.0,4.0,4.0,0.0,6.0,6.0,540.6499890000305,7.0,1.0,phase_2,go,400.0,400.0,1.0,,,,,,,,,cyan,circle
0.0,6.0,2.0,1.0,5.0,5.0,559.9815679997846,7.0,1.0,phase_2,stop,400.0,400.0,3.0,,,,,,,,,yellow,square
0.0,3.0,3.0,0.0,6.0,6.0,625.6667160000688,7.0,1.0,phase_2,go,350.0,400.0,1.0,,,,,,,,,green,diamond
0.0,5.0,1.0,1.0,5.0,0.0,0.0,7.0,1.0,phase_2,stop,350.0,400.0,4.0,,,,,,,,,blue,triangle
0.0,1.0,1.0,0.0,6.0,6.0,681.759650999993,7.0,1.0,phase_2,go,400.0,400.0,1.0,,,,,,,,,magenta,flipped triangle
0.0,3.0,3.0,0.0,6.0,6.0,631.9711740002276,7.0,1.0,phase_2,go,400.0,400.0,1.0,,,,,,,,,green,diamond
0.0,6.0,2.0,1.0,6.0,6.0,559.0147090001665,7.0,1.0,phase_2,go,400.0,400.0,1.0,,,,,,,,,yellow,square
0.0,4.0,4.0,0.0,6.0,6.0,626.5885309999248,7.0,1.0,phase_2,go,400.0,400.0,1.0,,,,,,,,,cyan,circle
0.0,2.0,2.0,0.0,6.0,6.0,445.4686859999128,7.0,1.0,phase_2,go,400.0,400.0,1.0,,,,,,,,,gray,hexagon
0.0,3.0,3.0,0.0,6.0,6.0,405.0713729998279,7.0,1.0,phase_2,go,400.0,400.0,1.0,,,,,,,,,green,diamond
0.0,8.0,4.0,1.0,6.0,0.0,0.0,7.0,1.0,phase_2,stop,400.0,400.0,4.0,,,,,,,,,orange,I
0.0,1.0,1.0,0.0,5.0,5.0,500.93525100010083,7.0,1.0,phase_2,go,400.0,450.0,1.0,,,,,,,,,magenta,flipped triangle
0.0,4.0,4.0,0.0,6.0,6.0,617.1489009998368,7.0,1.0,phase_2,go,400.0,450.0,1.0,,,,,,,,,cyan,circle
0.0,3.0,3.0,0.0,6.0,6.0,540.9255910003594,7.0,1.0,phase_2,go,400.0,450.0,1.0,,,,,,,,,green,diamond
0.0,4.0,4.0,0.0,6.0,6.0,374.5829429999503,7.0,1.0,phase_2,go,400.0,450.0,1.0,,,,,,,,,cyan,circle
0.0,8.0,4.0,1.0,6.0,6.0,560.3569869999774,7.0,1.0,phase_2,stop,400.0,450.0,3.0,,,,,,,,,orange,I
0.0,8.0,4.0,1.0,5.0,0.0,0.0,7.0,1.0,phase_2,stop,400.0,400.0,4.0,,,,,,,,,orange,I
0.0,4.0,4.0,0.0,6.0,6.0,337.5512890002028,8.0,1.0,phase_2,go,450.0,400.0,1.0,,,,,,,,,cyan,circle
0.0,2.0,2.0,0.0,5.0,5.0,519.2415679998703,8.0,1.0,phase_2,go,450.0,400.0,1.0,,,,,,,,,gray,hexagon
0.0,8.0,4.0,1.0,5.0,5.0,630.7621619998827,8.0,1.0,phase_2,go,450.0,400.0,1.0,,,,,,,,,orange,I
0.0,3.0,3.0,0.0,6.0,6.0,486.0529429997768,8.0,1.0,phase_2,go,450.0,400.0,1.0,,,,,,,,,green,diamond
0.0,7.0,3.0,1.0,6.0,6.0,480.4852180000125,8.0,1.0,phase_2,stop,450.0,400.0,3.0,,,,,,,,,white,cross
0.0,6.0,2.0,1.0,6.0,0.0,0.0,8.0,1.0,phase_2,stop,450.0,350.0,4.0,,,,,,,,,yellow,square
0.0,4.0,4.0,0.0,5.0,5.0,661.5025579994835,8.0,1.0,phase_2,go,450.0,400.0,1.0,,,,,,,,,cyan,circle
0.0,1.0,1.0,0.0,5.0,5.0,372.7722530002211,8.0,1.0,phase_2,go,450.0,400.0,1.0,,,,,,,,,magenta,flipped triangle
0.0,2.0,2.0,0.0,5.0,5.0,346.0438259999137,8.0,1.0,phase_2,go,450.0,400.0,1.0,,,,,,,,,gray,hexagon
0.0,6.0,2.0,1.0,5.0,5.0,363.7332239995885,8.0,1.0,phase_2,stop,450.0,400.0,3.0,,,,,,,,,yellow,square
0.0,8.0,4.0,1.0,6.0,6.0,630.2488369992716,8.0,1.0,phase_2,go,400.0,400.0,1.0,,,,,,,,,orange,I
0.0,5.0,1.0,1.0,5.0,5.0,301.4611150001656,8.0,1.0,phase_2,go,400.0,400.0,1.0,,,,,,,,,blue,triangle
0.0,2.0,2.0,0.0,6.0,6.0,637.8184720006175,8.0,1.0,phase_2,go,400.0,400.0,1.0,,,,,,,,,gray,hexagon
0.0,8.0,4.0,1.0,6.0,0.0,0.0,8.0,1.0,phase_2,stop,400.0,400.0,4.0,,,,,,,,,orange,I
0.0,2.0,2.0,0.0,5.0,5.0,693.1376530001216,8.0,1.0,phase_2,go,400.0,450.0,1.0,,,,,,,,,gray,hexagon
0.0,6.0,2.0,1.0,5.0,0.0,0.0,8.0,1.0,phase_2,stop,400.0,450.0,4.0,,,,,,,,,yellow,square
0.0,7.0,3.0,1.0,6.0,0.0,0.0,8.0,1.0,phase_2,stop,450.0,450.0,4.0,,,,,,,,,white,cross
0.0,4.0,4.0,0.0,5.0,5.0,667.6204420000431,8.0,1.0,phase_2,go,450.0,500.0,1.0,,,,,,,,,cyan,circle
0.0,7.0,3.0,1.0,5.0,5.0,398.9625750000414,8.0,1.0,phase_2,stop,450.0,500.0,3.0,,,,,,,,,white,cross
0.0,6.0,2.0,1.0,5.0,0.0,0.0,8.0,1.0,phase_2,stop,400.0,500.0,4.0,,,,,,,,,yellow,square
0.0,8.0,4.0,1.0,5.0,0.0,0.0,8.0,1.0,phase_2,stop,450.0,500.0,4.0,,,,,,,,,orange,I
0.0,3.0,3.0,0.0,6.0,6.0,298.7180069994792,8.0,1.0,phase_2,go,500.0,500.0,1.0,,,,,,,,,green,diamond
0.0,1.0,1.0,0.0,6.0,6.0,666.2018710003395,8.0,1.0,phase_2,go,500.0,500.0,1.0,,,,,,,,,magenta,flipped triangle
0.0,1.0,1.0,0.0,6.0,6.0,638.4181280000121,8.0,1.0,phase_2,go,500.0,500.0,1.0,,,,,,,,,magenta,flipped triangle
0.0,7.0,3.0,1.0,6.0,6.0,536.3348189994213,8.0,1.0,phase_2,go,500.0,500.0,1.0,,,,,,,,,white,cross
0.0,6.0,2.0,1.0,6.0,6.0,439.071333999891,8.0,1.0,phase_2,stop,500.0,500.0,3.0,,,,,,,,,yellow,square
0.0,3.0,3.0,0.0,5.0,5.0,751.3583859999926,8.0,1.0,phase_2,go,500.0,450.0,1.0,,,,,,,,,green,diamond
0.0,1.0,1.0,0.0,5.0,5.0,570.0504460000957,8.0,1.0,phase_2,go,500.0,450.0,1.0,,,,,,,,,magenta,flipped triangle
0.0,6.0,2.0,1.0,5.0,5.0,468.340397999782,8.0,1.0,phase_2,stop,500.0,450.0,3.0,,,,,,,,,yellow,square
0.0,8.0,4.0,1.0,6.0,0.0,0.0,8.0,1.0,phase_2,stop,450.0,450.0,4.0,,,,,,,,,orange,I
0.0,2.0,2.0,0.0,5.0,5.0,1036.6965530001837,8.0,1.0,phase_2,go,450.0,500.0,1.0,,,,,,,,,gray,hexagon
0.0,7.0,3.0,1.0,5.0,5.0,518.798818000505,8.0,1.0,phase_2,stop,450.0,500.0,3.0,,,,,,,,,white,cross
0.0,4.0,4.0,0.0,5.0,5.0,544.3239959995481,8.0,1.0,phase_2,go,400.0,500.0,1.0,,,,,,,,,cyan,circle
0.0,3.0,3.0,0.0,6.0,6.0,392.8707009999925,8.0,1.0,phase_2,go,400.0,500.0,1.0,,,,,,,,,green,diamond
0.0,3.0,3.0,0.0,5.0,5.0,320.5872970002019,8.0,1.0,phase_2,go,400.0,500.0,1.0,,,,,,,,,green,diamond
0.0,1.0,1.0,0.0,6.0,6.0,347.5360969996472,8.0,1.0,phase_2,go,400.0,500.0,1.0,,,,,,,,,magenta,flipped triangle
0.0,2.0,2.0,0.0,7.0,4.0,1876.919960000123,1.0,1.0,phase_3,,,,,196.0,4.0,147.0,294.0,245.0,196.0,49.0,98.0,gray,hexagon
0.0,8.0,4.0,1.0,7.0,3.0,1582.067427999391,1.0,1.0,phase_3,,,,,245.0,5.0,147.0,49.0,245.0,294.0,196.0,98.0,orange,I
0.0,3.0,3.0,0.0,7.0,5.0,1619.9720799995705,1.0,1.0,phase_3,,,,,204.0,6.0,170.0,34.0,68.0,136.0,204.0,102.0,green,diamond
0.0,5.0,1.0,1.0,7.0,2.0,821.7837000001964,1.0,1.0,phase_3,,,,,136.0,4.0,204.0,136.0,102.0,68.0,170.0,34.0,blue,triangle
0.0,1.0,1.0,0.0,7.0,2.0,1551.8900939996456,1.0,1.0,phase_3,,,,,39.0,1.0,195.0,39.0,234.0,78.0,117.0,156.0,magenta,flipped triangle
0.0,3.0,3.0,0.0,7.0,5.0,998.4436409995396,1.0,1.0,phase_3,,,,,117.0,3.0,39.0,234.0,156.0,195.0,117.0,78.0,green,diamond
0.0,7.0,3.0,1.0,7.0,4.0,773.3735929996328,1.0,1.0,phase_3,,,,,216.0,4.0,54.0,324.0,270.0,216.0,108.0,162.0,white,cross
0.0,4.0,4.0,0.0,7.0,6.0,867.8136190001169,1.0,1.0,phase_3,,,,,245.0,5.0,98.0,49.0,147.0,294.0,196.0,245.0,cyan,circle
0.0,2.0,2.0,0.0,7.0,6.0,1547.9948889997104,1.0,1.0,phase_3,,,,,78.0,2.0,117.0,195.0,156.0,234.0,39.0,78.0,gray,hexagon
0.0,1.0,1.0,0.0,7.0,1.0,1075.8636900000056,1.0,1.0,phase_3,,,,,98.0,2.0,98.0,147.0,49.0,245.0,196.0,294.0,magenta,flipped triangle
0.0,6.0,2.0,1.0,7.0,2.0,701.5697430006185,1.0,1.0,phase_3,,,,,176.0,4.0,220.0,176.0,264.0,88.0,44.0,132.0,yellow,square
0.0,5.0,1.0,1.0,7.0,4.0,1328.663375999895,1.0,1.0,phase_3,,,,,196.0,4.0,49.0,245.0,294.0,196.0,98.0,147.0,blue,triangle
0.0,6.0,2.0,1.0,7.0,2.0,1116.9343080000544,1.0,1.0,phase_3,,,,,324.0,6.0,216.0,324.0,162.0,270.0,54.0,108.0,yellow,square
0.0,7.0,3.0,1.0,7.0,1.0,1605.7166729997334,1.0,1.0,phase_3,,,,,117.0,3.0,117.0,39.0,78.0,234.0,156.0,195.0,white,cross
0.0,4.0,4.0,0.0,7.0,6.0,1461.1010039998291,1.0,1.0,phase_3,,,,,270.0,5.0,108.0,162.0,54.0,216.0,324.0,270.0,cyan,circle
0.0,2.0,2.0,0.0,7.0,5.0,1279.3101910001496,1.0,1.0,phase_3,,,,,98.0,2.0,196.0,245.0,147.0,294.0,98.0,49.0,gray,hexagon
0.0,5.0,1.0,1.0,7.0,2.0,906.5607849997832,1.0,1.0,phase_3,,,,,108.0,2.0,162.0,108.0,54.0,324.0,270.0,216.0,blue,triangle
0.0,8.0,4.0,1.0,7.0,5.0,931.4229700003124,1.0,1.0,phase_3,,,,,204.0,6.0,136.0,170.0,34.0,68.0,204.0,102.0,orange,I
0.0,2.0,2.0,0.0,7.0,2.0,1555.4433500001323,1.0,1.0,phase_3,,,,,88.0,2.0,264.0,88.0,132.0,44.0,176.0,220.0,gray,hexagon
0.0,2.0,2.0,0.0,7.0,1.0,1584.144467000442,1.0,1.0,phase_3,,,,,44.0,1.0,44.0,132.0,176.0,264.0,88.0,220.0,gray,hexagon
0.0,5.0,1.0,1.0,7.0,4.0,689.8075730005075,2.0,1.0,phase_3,,,,,220.0,5.0,88.0,264.0,44.0,220.0,132.0,176.0,blue,triangle
0.0,4.0,4.0,0.0,7.0,3.0,1860.4644329998337,2.0,1.0,phase_3,,,,,34.0,1.0,102.0,204.0,34.0,170.0,136.0,68.0,cyan,circle
0.0,3.0,3.0,0.0,7.0,1.0,1083.6566709995168,2.0,1.0,phase_3,,,,,245.0,5.0,245.0,49.0,147.0,196.0,294.0,98.0,green,diamond
0.0,1.0,1.0,0.0,7.0,2.0,993.7472000001436,2.0,1.0,phase_3,,,,,220.0,5.0,264.0,220.0,132.0,176.0,44.0,88.0,magenta,flipped triangle
0.0,7.0,3.0,1.0,7.0,5.0,876.5636719999748,2.0,1.0,phase_3,,,,,147.0,3.0,294.0,245.0,196.0,98.0,147.0,49.0,white,cross
0.0,3.0,3.0,0.0,7.0,2.0,1130.3027539997856,2.0,1.0,phase_3,,,,,195.0,5.0,39.0,195.0,117.0,156.0,78.0,234.0,green,diamond
0.0,3.0,3.0,0.0,7.0,3.0,1399.557308999647,2.0,1.0,phase_3,,,,,54.0,1.0,270.0,216.0,54.0,108.0,162.0,324.0,green,diamond
0.0,3.0,3.0,0.0,7.0,5.0,1607.5868629995966,2.0,1.0,phase_3,,,,,49.0,1.0,196.0,147.0,98.0,294.0,49.0,245.0,green,diamond
0.0,2.0,2.0,0.0,7.0,1.0,1604.0199179997217,2.0,1.0,phase_3,,,,,216.0,4.0,216.0,270.0,162.0,324.0,108.0,54.0,gray,hexagon
0.0,8.0,4.0,1.0,7.0,2.0,1245.227636999516,2.0,1.0,phase_3,,,,,49.0,1.0,147.0,49.0,98.0,245.0,294.0,196.0,orange,I
0.0,8.0,4.0,1.0,7.0,3.0,1304.4771089998903,2.0,1.0,phase_3,,,,,39.0,1.0,195.0,234.0,39.0,117.0,156.0,78.0,orange,I
0.0,6.0,2.0,1.0,7.0,4.0,1350.5608040004518,2.0,1.0,phase_3,,,,,162.0,3.0,270.0,324.0,216.0,162.0,54.0,108.0,yellow,square
0.0,8.0,4.0,1.0,7.0,2.0,1852.439606000189,2.0,1.0,phase_3,,,,,68.0,2.0,136.0,68.0,170.0,102.0,204.0,34.0,orange,I
0.0,7.0,3.0,1.0,7.0,5.0,1212.600012000621,2.0,1.0,phase_3,,,,,196.0,4.0,98.0,147.0,294.0,49.0,196.0,245.0,white,cross
0.0,3.0,3.0,0.0,7.0,6.0,626.4501519999612,2.0,1.0,phase_3,,,,,220.0,5.0,44.0,264.0,176.0,88.0,132.0,220.0,green,diamond
0.0,4.0,4.0,0.0,7.0,1.0,818.1832560003386,2.0,1.0,phase_3,,,,,324.0,6.0,324.0,270.0,54.0,108.0,162.0,216.0,cyan,circle
0.0,8.0,4.0,1.0,7.0,1.0,1525.3674699997646,2.0,1.0,phase_3,,,,,132.0,3.0,132.0,264.0,176.0,220.0,88.0,44.0,orange,I
0.0,8.0,4.0,1.0,7.0,1.0,1746.573231000184,2.0,1.0,phase_3,,,,,117.0,3.0,117.0,156.0,39.0,234.0,195.0,78.0,orange,I
0.0,1.0,1.0,0.0,7.0,4.0,1085.7465159997446,2.0,1.0,phase_3,,,,,54.0,1.0,216.0,162.0,270.0,54.0,324.0,108.0,magenta,flipped triangle
0.0,6.0,2.0,1.0,7.0,3.0,922.0870640001522,2.0,1.0,phase_3,,,,,39.0,1.0,195.0,78.0,39.0,117.0,156.0,234.0,yellow,square
0.0,8.0,4.0,1.0,7.0,2.0,1212.9266189995178,3.0,1.0,phase_3,,,,,216.0,4.0,324.0,216.0,108.0,162.0,270.0,54.0,orange,I
0.0,1.0,1.0,0.0,7.0,5.0,400.3762820002521,3.0,1.0,phase_3,,,,,195.0,5.0,39.0,117.0,156.0,234.0,195.0,78.0,magenta,flipped triangle
0.0,5.0,1.0,1.0,7.0,1.0,384.4354470002145,3.0,1.0,phase_3,,,,,78.0,2.0,78.0,117.0,39.0,156.0,234.0,195.0,blue,triangle
0.0,4.0,4.0,0.0,7.0,2.0,643.2692620001035,3.0,1.0,phase_3,,,,,220.0,5.0,88.0,220.0,176.0,132.0,264.0,44.0,cyan,circle
0.0,1.0,1.0,0.0,7.0,3.0,1186.6277580002134,3.0,1.0,phase_3,,,,,264.0,6.0,176.0,44.0,264.0,220.0,132.0,88.0,magenta,flipped triangle
0.0,2.0,2.0,0.0,7.0,5.0,707.9901610004526,3.0,1.0,phase_3,,,,,54.0,1.0,162.0,108.0,270.0,216.0,54.0,324.0,gray,hexagon
0.0,1.0,1.0,0.0,7.0,3.0,1234.7919559997536,3.0,1.0,phase_3,,,,,162.0,3.0,216.0,324.0,162.0,108.0,270.0,54.0,magenta,flipped triangle
0.0,6.0,2.0,1.0,7.0,5.0,362.5013119999494,3.0,1.0,phase_3,,,,,34.0,1.0,204.0,102.0,136.0,170.0,34.0,68.0,yellow,square
0.0,4.0,4.0,0.0,7.0,4.0,686.2263980001444,3.0,1.0,phase_3,,,,,170.0,5.0,68.0,204.0,102.0,170.0,136.0,34.0,cyan,circle
0.0,1.0,1.0,0.0,7.0,6.0,755.3739000004498,3.0,1.0,phase_3,,,,,147.0,3.0,196.0,245.0,49.0,98.0,294.0,147.0,magenta,flipped triangle
0.0,5.0,1.0,1.0,7.0,3.0,635.9490759996334,3.0,1.0,phase_3,,,,,68.0,2.0,34.0,136.0,68.0,204.0,170.0,102.0,blue,triangle
0.0,4.0,4.0,0.0,7.0,1.0,481.7798949998177,3.0,1.0,phase_3,,,,,88.0,2.0,88.0,44.0,176.0,132.0,264.0,220.0,cyan,circle
0.0,2.0,2.0,0.0,7.0,3.0,607.5499199996557,3.0,1.0,phase_3,,,,,102.0,3.0,170.0,34.0,102.0,68.0,204.0,136.0,gray,hexagon
0.0,5.0,1.0,1.0,7.0,5.0,885.0822390004396,3.0,1.0,phase_3,,,,,195.0,5.0,234.0,156.0,78.0,39.0,195.0,117.0,blue,triangle
0.0,7.0,3.0,1.0,7.0,2.0,840.7484990002558,3.0,1.0,phase_3,,,,,204.0,6.0,136.0,204.0,68.0,34.0,170.0,102.0,white,cross
0.0,1.0,1.0,0.0,7.0,5.0,626.7135570005848,3.0,1.0,phase_3,,,,,136.0,4.0,204.0,68.0,170.0,34.0,136.0,102.0,magenta,flipped triangle
0.0,5.0,1.0,1.0,7.0,6.0,489.1803360005724,3.0,1.0,phase_3,,,,,176.0,4.0,132.0,88.0,264.0,44.0,220.0,176.0,blue,triangle
0.0,7.0,3.0,1.0,7.0,2.0,517.6282019992868,3.0,1.0,phase_3,,,,,216.0,4.0,324.0,216.0,108.0,270.0,54.0,162.0,white,cross
0.0,5.0,1.0,1.0,7.0,3.0,595.6727270004194,3.0,1.0,phase_3,,,,,270.0,5.0,108.0,216.0,270.0,324.0,54.0,162.0,blue,triangle
0.0,4.0,4.0,0.0,7.0,4.0,898.850551000578,3.0,1.0,phase_3,,,,,117.0,3.0,78.0,39.0,234.0,117.0,195.0,156.0,cyan,circle
0.0,6.0,2.0,1.0,7.0,4.0,621.4340589995118,4.0,1.0,phase_3,,,,,245.0,5.0,49.0,147.0,196.0,245.0,98.0,294.0,yellow,square
0.0,2.0,2.0,0.0,7.0,2.0,603.1304970001656,4.0,1.0,phase_3,,,,,170.0,5.0,34.0,170.0,204.0,68.0,102.0,136.0,gray,hexagon
0.0,8.0,4.0,1.0,7.0,5.0,490.6132180003624,4.0,1.0,phase_3,,,,,324.0,6.0,108.0,162.0,270.0,216.0,324.0,54.0,orange,I
0.0,7.0,3.0,1.0,7.0,2.0,806.6265090001252,4.0,1.0,phase_3,,,,,176.0,4.0,132.0,176.0,88.0,220.0,44.0,264.0,white,cross
0.0,4.0,4.0,0.0,7.0,5.0,821.5344549998918,4.0,1.0,phase_3,,,,,39.0,1.0,195.0,156.0,117.0,78.0,39.0,234.0,cyan,circle
0.0,3.0,3.0,0.0,7.0,2.0,800.5177420000109,4.0,1.0,phase_3,,,,,68.0,2.0,136.0,68.0,34.0,102.0,170.0,204.0,green,diamond
0.0,1.0,1.0,0.0,7.0,1.0,914.5688300004622,4.0,1.0,phase_3,,,,,136.0,4.0,136.0,34.0,204.0,68.0,102.0,170.0,magenta,flipped triangle
0.0,6.0,2.0,1.0,7.0,5.0,842.4173170005815,4.0,1.0,phase_3,,,,,102.0,3.0,34.0,136.0,170.0,204.0,102.0,68.0,yellow,square
0.0,6.0,2.0,1.0,7.0,2.0,531.0917179995158,4.0,1.0,phase_3,,,,,44.0,1.0,88.0,44.0,220.0,132.0,176.0,264.0,yellow,square
0.0,2.0,2.0,0.0,7.0,4.0,428.4829850003007,4.0,1.0,phase_3,,,,,156.0,4.0,78.0,195.0,117.0,156.0,234.0,39.0,gray,hexagon
0.0,7.0,3.0,1.0,7.0,1.0,431.1847279996073,4.0,1.0,phase_3,,,,,88.0,2.0,88.0,44.0,264.0,176.0,220.0,132.0,white,cross
0.0,5.0,1.0,1.0,7.0,5.0,633.3631779998541,4.0,1.0,phase_3,,,,,294.0,6.0,196.0,147.0,98.0,245.0,294.0,49.0,blue,triangle
0.0,6.0,2.0,1.0,7.0,2.0,611.3042040005894,4.0,1.0,phase_3,,,,,195.0,5.0,234.0,195.0,156.0,78.0,117.0,39.0,yellow,square
0.0,6.0,2.0,1.0,7.0,6.0,1180.0454500007618,4.0,1.0,phase_3,,,,,147.0,3.0,245.0,98.0,294.0,49.0,196.0,147.0,yellow,square
0.0,8.0,4.0,1.0,7.0,6.0,1158.601787000407,4.0,1.0,phase_3,,,,,176.0,4.0,132.0,88.0,220.0,264.0,44.0,176.0,orange,I
0.0,3.0,3.0,0.0,7.0,3.0,573.5448999994333,4.0,1.0,phase_3,,,,,54.0,1.0,108.0,216.0,54.0,270.0,162.0,324.0,green,diamond
0.0,3.0,3.0,0.0,7.0,4.0,656.0285870000371,4.0,1.0,phase_3,,,,,132.0,3.0,44.0,220.0,88.0,132.0,264.0,176.0,green,diamond
0.0,7.0,3.0,1.0,7.0,2.0,485.2540239999143,4.0,1.0,phase_3,,,,,156.0,4.0,195.0,156.0,39.0,117.0,234.0,78.0,white,cross
0.0,7.0,3.0,1.0,7.0,5.0,363.3522290001565,4.0,1.0,phase_3,,,,,34.0,1.0,170.0,204.0,68.0,102.0,34.0,136.0,white,cross
0.0,4.0,4.0,0.0,7.0,2.0,554.7153709994745,4.0,1.0,phase_3,,,,,245.0,5.0,294.0,245.0,98.0,49.0,196.0,147.0,cyan,circle
