raw_reward_magnitude,stim_reward,stepwise_reward_magnitude,paired_with_stopping,stim_location,response,reaction_time,block,num_trial_presentations,which_phase,stop_signal_trial_type,left_SSD,right_SSD,accuracy,chosen_bidding_amount,chosen_bidding_level,possible_bid_1,possible_bid_2,possible_bid_3,possible_bid_4,possible_bid_5,possible_bid_6,color_text,shape_text
0.0,8.0,0.0,1.0,2.0,2.0,639.8815779998586,1.0,1.0,phase_1,,,,,,,,,,,,,orange,circle
46.0,5.0,1.0,1.0,4.0,4.0,453.0416980001064,1.0,1.0,phase_1,,,,,,,,,,,,,cyan,triangle
33.0,5.0,1.0,1.0,1.0,1.0,413.9502149996588,1.0,1.0,phase_1,,,,,,,,,,,,,cyan,triangle
413.0,4.0,4.0,0.0,3.0,3.0,438.3398909999414,1.0,1.0,phase_1,,,,,,,,,,,,,gray,flipped triangle
0.0,2.0,0.0,0.0,4.0,4.0,522.892316999787,1.0,1.0,phase_1,,,,,,,,,,,,,yellow,diamond
42.0,5.0,1.0,1.0,4.0,4.0,403.3110069999566,1.0,1.0,phase_1,,,,,,,,,,,,,cyan,triangle
183.0,7.0,3.0,1.0,3.0,3.0,433.4898219999559,1.0,1.0,phase_1,,,,,,,,,,,,,magenta,I
184.0,3.0,3.0,0.0,3.0,3.0,501.12856799978545,1.0,1.0,phase_1,,,,,,,,,,,,,green,square
189.0,7.0,3.0,1.0,1.0,1.0,564.6520249997593,1.0,1.0,phase_1,,,,,,,,,,,,,magenta,I
63.0,1.0,1.0,0.0,4.0,4.0,353.1005750000986,1.0,1.0,phase_1,,,,,,,,,,,,,white,hexagon
383.0,4.0,4.0,0.0,2.0,2.0,639.8967380000613,1.0,1.0,phase_1,,,,,,,,,,,,,gray,flipped triangle
379.0,8.0,4.0,1.0,4.0,4.0,419.355355999869,1.0,1.0,phase_1,,,,,,,,,,,,,orange,circle
120.0,6.0,2.0,1.0,4.0,4.0,443.8430750001316,1.0,1.0,phase_1,,,,,,,,,,,,,blue,cross
0.0,2.0,0.0,0.0,1.0,1.0,351.3818820001688,1.0,1.0,phase_1,,,,,,,,,,,,,yellow,diamond
181.0,3.0,3.0,0.0,4.0,4.0,367.290106999917,1.0,1.0,phase_1,,,,,,,,,,,,,green,square
80.0,2.0,2.0,0.0,2.0,2.0,369.2993889999343,1.0,1.0,phase_1,,,,,,,,,,,,,yellow,diamond
420.0,4.0,4.0,0.0,3.0,3.0,456.8343390001246,1.0,1.0,phase_1,,,,,,,,,,,,,gray,flipped triangle
108.0,6.0,2.0,1.0,4.0,4.0,336.1584340000263,1.0,1.0,phase_1,,,,,,,,,,,,,blue,cross
206.0,3.0,3.0,0.0,1.0,1.0,378.2956320001176,1.0,1.0,phase_1,,,,,,,,,,,,,green,square
425.0,8.0,4.0,1.0,1.0,1.0,497.2397819997241,1.0,1.0,phase_1,,,,,,,,,,,,,orange,circle
0.0,7.0,0.0,1.0,3.0,3.0,408.4479299999657,1.0,1.0,phase_1,,,,,,,,,,,,,magenta,I
418.0,8.0,4.0,1.0,3.0,3.0,472.6320459999442,1.0,1.0,phase_1,,,,,,,,,,,,,orange,circle
201.0,7.0,3.0,1.0,1.0,1.0,448.9139849997627,1.0,1.0,phase_1,,,,,,,,,,,,,magenta,I
80.0,6.0,2.0,1.0,2.0,2.0,567.8073540002515,1.0,1.0,phase_1,,,,,,,,,,,,,blue,cross
0.0,4.0,0.0,0.0,2.0,2.0,584.6323690002464,1.0,1.0,phase_1,,,,,,,,,,,,,gray,flipped triangle
388.0,4.0,4.0,0.0,3.0,3.0,437.0223099999748,1.0,1.0,phase_1,,,,,,,,,,,,,gray,flipped triangle
413.0,8.0,4.0,1.0,2.0,2.0,511.18701899986263,1.0,1.0,phase_1,,,,,,,,,,,,,orange,circle
0.0,3.0,0.0,0.0,4.0,4.0,383.9495289998922,1.0,1.0,phase_1,,,,,,,,,,,,,green,square
184.0,3.0,3.0,0.0,3.0,3.0,471.8587990000742,1.0,1.0,phase_1,,,,,,,,,,,,,green,square
0.0,1.0,0.0,0.0,3.0,3.0,443.2440089999545,1.0,1.0,phase_1,,,,,,,,,,,,,white,hexagon
223.0,3.0,3.0,0.0,3.0,3.0,367.0799530000295,1.0,1.0,phase_1,,,,,,,,,,,,,green,square
396.0,4.0,4.0,0.0,1.0,1.0,519.6169949999785,1.0,1.0,phase_1,,,,,,,,,,,,,gray,flipped triangle
50.0,5.0,1.0,1.0,1.0,1.0,581.2333270000636,1.0,1.0,phase_1,,,,,,,,,,,,,cyan,triangle
0.0,2.0,0.0,0.0,4.0,4.0,408.6136259998056,1.0,1.0,phase_1,,,,,,,,,,,,,yellow,diamond
390.0,4.0,4.0,0.0,3.0,3.0,389.577446000203,1.0,1.0,phase_1,,,,,,,,,,,,,gray,flipped triangle
96.0,2.0,2.0,0.0,1.0,1.0,629.2672889999267,1.0,1.0,phase_1,,,,,,,,,,,,,yellow,diamond
0.0,5.0,0.0,1.0,1.0,1.0,428.9441749997422,1.0,1.0,phase_1,,,,,,,,,,,,,cyan,triangle
109.0,2.0,2.0,0.0,2.0,2.0,490.8428950002417,1.0,1.0,phase_1,,,,,,,,,,,,,yellow,diamond
391.0,4.0,4.0,0.0,2.0,2.0,546.4912660004302,1.0,1.0,phase_1,,,,,,,,,,,,,gray,flipped triangle
104.0,2.0,2.0,0.0,4.0,4.0,434.3729520001034,1.0,1.0,phase_1,,,,,,,,,,,,,yellow,diamond
212.0,3.0,3.0,0.0,4.0,4.0,502.8294150001784,1.0,1.0,phase_1,,,,,,,,,,,,,green,square
221.0,7.0,3.0,1.0,1.0,1.0,559.9614940001629,1.0,1.0,phase_1,,,,,,,,,,,,,magenta,I
58.0,1.0,1.0,0.0,4.0,4.0,401.972594000199,1.0,1.0,phase_1,,,,,,,,,,,,,white,hexagon
206.0,3.0,3.0,0.0,2.0,2.0,557.407991999753,1.0,1.0,phase_1,,,,,,,,,,,,,green,square
397.0,4.0,4.0,0.0,1.0,1.0,429.7302140003012,1.0,1.0,phase_1,,,,,,,,,,,,,gray,flipped triangle
422.0,8.0,4.0,1.0,1.0,1.0,515.2990659998977,1.0,1.0,phase_1,,,,,,,,,,,,,orange,circle
115.0,2.0,2.0,0.0,3.0,3.0,583.7841709999338,1.0,1.0,phase_1,,,,,,,,,,,,,yellow,diamond
182.0,7.0,3.0,1.0,3.0,3.0,374.929845999759,1.0,1.0,phase_1,,,,,,,,,,,,,magenta,I
425.0,4.0,4.0,0.0,4.0,4.0,505.5854239999462,1.0,1.0,phase_1,,,,,,,,,,,,,gray,flipped triangle
401.0,8.0,4.0,1.0,3.0,3.0,418.0647769999268,1.0,1.0,phase_1,,,,,,,,,,,,,orange,circle
189.0,3.0,3.0,0.0,1.0,1.0,502.40893899990624,1.0,1.0,phase_1,,,,,,,,,,,,,green,square
25.0,1.0,1.0,0.0,2.0,2.0,492.7656009999737,1.0,1.0,phase_1,,,,,,,,,,,,,white,hexagon
0.0,7.0,0.0,1.0,4.0,4.0,328.9744290000271,1.0,1.0,phase_1,,,,,,,,,,,,,magenta,I
0.0,5.0,0.0,1.0,1.0,1.0,455.7360849998986,1.0,1.0,phase_1,,,,,,,,,,,,,cyan,triangle
395.0,8.0,4.0,1.0,4.0,4.0,532.7423869998711,1.0,1.0,phase_1,,,,,,,,,,,,,orange,circle
403.0,4.0,4.0,0.0,4.0,4.0,420.4515069995977,1.0,1.0,phase_1,,,,,,,,,,,,,gray,flipped triangle
209.0,3.0,3.0,0.0,1.0,1.0,543.7165799999093,1.0,1.0,phase_1,,,,,,,,,,,,,green,square
0.0,1.0,0.0,0.0,3.0,3.0,425.0782720000643,1.0,1.0,phase_1,,,,,,,,,,,,,white,hexagon
222.0,7.0,3.0,1.0,1.0,1.0,477.6135719998819,1.0,1.0,phase_1,,,,,,,,,,,,,magenta,I
113.0,6.0,2.0,1.0,4.0,4.0,350.2885889997742,1.0,1.0,phase_1,,,,,,,,,,,,,blue,cross
0.0,6.0,0.0,1.0,4.0,4.0,387.7771560000838,1.0,1.0,phase_1,,,,,,,,,,,,,blue,cross
121.0,2.0,2.0,0.0,4.0,4.0,346.8254740000702,1.0,1.0,phase_1,,,,,,,,,,,,,yellow,diamond
36.0,1.0,1.0,0.0,4.0,4.0,381.4284009999937,1.0,1.0,phase_1,,,,,,,,,,,,,white,hexagon
195.0,7.0,3.0,1.0,3.0,3.0,499.9733979998382,1.0,1.0,phase_1,,,,,,,,,,,,,magenta,I
189.0,7.0,3.0,1.0,3.0,3.0,405.0041539999256,1.0,1.0,phase_1,,,,,,,,,,,,,magenta,I
401.0,4.0,4.0,0.0,4.0,4.0,425.4642939999939,1.0,1.0,phase_1,,,,,,,,,,,,,gray,flipped triangle
0.0,3.0,0.0,0.0,4.0,4.0,424.3442920001143,1.0,1.0,phase_1,,,,,,,,,,,,,green,square
176.0,7.0,3.0,1.0,4.0,4.0,404.568867999842,1.0,1.0,phase_1,,,,,,,,,,,,,magenta,I
381.0,4.0,4.0,0.0,2.0,2.0,532.8950920002171,1.0,1.0,phase_1,,,,,,,,,,,,,gray,flipped triangle
390.0,8.0,4.0,1.0,2.0,2.0,457.6544030001059,1.0,1.0,phase_1,,,,,,,,,,,,,orange,circle
95.0,2.0,2.0,0.0,4.0,4.0,356.4614890001394,1.0,1.0,phase_1,,,,,,,,,,,,,yellow,diamond
125.0,2.0,2.0,0.0,1.0,1.0,368.543561000024,1.0,1.0,phase_1,,,,,,,,,,,,,yellow,diamond
215.0,3.0,3.0,0.0,4.0,4.0,321.5394839999135,1.0,1.0,phase_1,,,,,,,,,,,,,green,square
215.0,7.0,3.0,1.0,1.0,1.0,500.09482899986324,1.0,1.0,phase_1,,,,,,,,,,,,,magenta,I
50.0,1.0,1.0,0.0,1.0,1.0,545.5368110001473,1.0,1.0,phase_1,,,,,,,,,,,,,white,hexagon
187.0,7.0,3.0,1.0,2.0,2.0,583.2845520003502,1.0,1.0,phase_1,,,,,,,,,,,,,magenta,I
43.0,5.0,1.0,1.0,3.0,3.0,364.3527670001276,1.0,1.0,phase_1,,,,,,,,,,,,,cyan,triangle
420.0,8.0,4.0,1.0,1.0,1.0,432.7406180000253,1.0,1.0,phase_1,,,,,,,,,,,,,orange,circle
0.0,1.0,0.0,0.0,2.0,2.0,302.6852049997615,1.0,1.0,phase_1,,,,,,,,,,,,,white,hexagon
61.0,5.0,1.0,1.0,2.0,2.0,400.0740710002901,1.0,1.0,phase_1,,,,,,,,,,,,,cyan,triangle
393.0,8.0,4.0,1.0,1.0,1.0,360.6434789999184,1.0,1.0,phase_1,,,,,,,,,,,,,orange,circle
0.0,6.0,0.0,1.0,1.0,1.0,462.7291470001182,1.0,1.0,phase_1,,,,,,,,,,,,,blue,cross
0.0,8.0,0.0,1.0,1.0,1.0,453.1028249998599,1.0,1.0,phase_1,,,,,,,,,,,,,orange,circle
396.0,8.0,4.0,1.0,3.0,3.0,352.9950000001918,1.0,1.0,phase_1,,,,,,,,,,,,,orange,circle
82.0,6.0,2.0,1.0,3.0,3.0,471.5701710001667,1.0,1.0,phase_1,,,,,,,,,,,,,blue,cross
0.0,7.0,0.0,1.0,3.0,3.0,454.3062940001618,1.0,1.0,phase_1,,,,,,,,,,,,,magenta,I
386.0,8.0,4.0,1.0,4.0,4.0,370.0697600002058,1.0,1.0,phase_1,,,,,,,,,,,,,orange,circle
53.0,5.0,1.0,1.0,4.0,4.0,410.0309949999428,1.0,1.0,phase_1,,,,,,,,,,,,,cyan,triangle
50.0,5.0,1.0,1.0,1.0,1.0,327.9991770000379,1.0,1.0,phase_1,,,,,,,,,,,,,cyan,triangle
381.0,4.0,4.0,0.0,4.0,4.0,418.0143059998045,1.0,1.0,phase_1,,,,,,,,,,,,,gray,flipped triangle
218.0,3.0,3.0,0.0,1.0,1.0,408.199618999788,1.0,1.0,phase_1,,,,,,,,,,,,,green,square
0.0,3.0,0.0,0.0,1.0,1.0,429.2398080001476,1.0,1.0,phase_1,,,,,,,,,,,,,green,square
25.0,1.0,1.0,0.0,2.0,2.0,466.103467999801,1.0,1.0,phase_1,,,,,,,,,,,,,white,hexagon
196.0,3.0,3.0,0.0,1.0,1.0,380.342742999801,1.0,1.0,phase_1,,,,,,,,,,,,,green,square
175.0,3.0,3.0,0.0,4.0,4.0,352.7418769999713,1.0,1.0,phase_1,,,,,,,,,,,,,green,square
74.0,1.0,1.0,0.0,1.0,1.0,345.6400489999396,1.0,1.0,phase_1,,,,,,,,,,,,,white,hexagon
99.0,2.0,2.0,0.0,1.0,1.0,356.7658380002285,1.0,1.0,phase_1,,,,,,,,,,,,,yellow,diamond
413.0,4.0,4.0,0.0,3.0,3.0,507.33526600015466,1.0,1.0,phase_1,,,,,,,,,,,,,gray,flipped triangle
113.0,2.0,2.0,0.0,4.0,4.0,368.58491699968,1.0,1.0,phase_1,,,,,,,,,,,,,yellow,diamond
186.0,7.0,3.0,1.0,2.0,2.0,438.9553900000464,1.0,1.0,phase_1,,,,,,,,,,,,,magenta,I
0.0,2.0,0.0,0.0,3.0,3.0,428.652664999845,2.0,1.0,phase_1,,,,,,,,,,,,,yellow,diamond
0.0,5.0,0.0,1.0,4.0,4.0,372.6736449998498,2.0,1.0,phase_1,,,,,,,,,,,,,cyan,triangle
0.0,7.0,0.0,1.0,1.0,1.0,349.1524800001571,2.0,1.0,phase_1,,,,,,,,,,,,,magenta,I
36.0,1.0,1.0,0.0,1.0,1.0,424.6660040003007,2.0,1.0,phase_1,,,,,,,,,,,,,white,hexagon
70.0,5.0,1.0,1.0,4.0,4.0,364.1443479996269,2.0,1.0,phase_1,,,,,,,,,,,,,cyan,triangle
0.0,2.0,0.0,0.0,2.0,2.0,446.8302420000327,2.0,1.0,phase_1,,,,,,,,,,,,,yellow,diamond
61.0,1.0,1.0,0.0,4.0,4.0,298.7593060001927,2.0,1.0,phase_1,,,,,,,,,,,,,white,hexagon
60.0,1.0,1.0,0.0,3.0,3.0,362.5927740004044,2.0,1.0,phase_1,,,,,,,,,,,,,white,hexagon
73.0,1.0,1.0,0.0,2.0,2.0,368.0706439999994,2.0,1.0,phase_1,,,,,,,,,,,,,white,hexagon
417.0,8.0,4.0,1.0,4.0,4.0,333.7250439999479,2.0,1.0,phase_1,,,,,,,,,,,,,orange,circle
46.0,5.0,1.0,1.0,1.0,1.0,464.67501100005387,2.0,1.0,phase_1,,,,,,,,,,,,,cyan,triangle
104.0,2.0,2.0,0.0,2.0,2.0,346.1949219999951,2.0,1.0,phase_1,,,,,,,,,,,,,yellow,diamond
0.0,8.0,0.0,1.0,1.0,1.0,419.3306180000036,2.0,1.0,phase_1,,,,,,,,,,,,,orange,circle
206.0,7.0,3.0,1.0,2.0,2.0,329.5307110001886,2.0,1.0,phase_1,,,,,,,,,,,,,magenta,I
58.0,5.0,1.0,1.0,4.0,4.0,325.5799160001515,2.0,1.0,phase_1,,,,,,,,,,,,,cyan,triangle
214.0,3.0,3.0,0.0,3.0,3.0,377.4788209998405,2.0,1.0,phase_1,,,,,,,,,,,,,green,square
54.0,1.0,1.0,0.0,2.0,2.0,353.2225730000391,2.0,1.0,phase_1,,,,,,,,,,,,,white,hexagon
0.0,8.0,0.0,1.0,3.0,3.0,350.3695290000905,2.0,1.0,phase_1,,,,,,,,,,,,,orange,circle
0.0,8.0,0.0,1.0,3.0,3.0,374.6017290000054,2.0,1.0,phase_1,,,,,,,,,,,,,orange,circle
418.0,4.0,4.0,0.0,4.0,4.0,363.3233150003434,2.0,1.0,phase_1,,,,,,,,,,,,,gray,flipped triangle
181.0,7.0,3.0,1.0,2.0,2.0,399.7317159996782,2.0,1.0,phase_1,,,,,,,,,,,,,magenta,I
0.0,4.0,0.0,0.0,4.0,4.0,330.994993999866,2.0,1.0,phase_1,,,,,,,,,,,,,gray,flipped triangle
109.0,6.0,2.0,1.0,2.0,2.0,390.6372139999803,2.0,1.0,phase_1,,,,,,,,,,,,,blue,cross
113.0,2.0,2.0,0.0,1.0,1.0,409.6292210001593,2.0,1.0,phase_1,,,,,,,,,,,,,yellow,diamond
69.0,5.0,1.0,1.0,2.0,2.0,288.6574899998777,2.0,1.0,phase_1,,,,,,,,,,,,,cyan,triangle
404.0,4.0,4.0,0.0,1.0,1.0,428.7103659999047,2.0,1.0,phase_1,,,,,,,,,,,,,gray,flipped triangle
0.0,1.0,0.0,0.0,1.0,1.0,391.828813000302,2.0,1.0,phase_1,,,,,,,,,,,,,white,hexagon
102.0,6.0,2.0,1.0,4.0,4.0,328.4306390000893,2.0,1.0,phase_1,,,,,,,,,,,,,blue,cross
108.0,2.0,2.0,0.0,3.0,3.0,335.387449999871,2.0,1.0,phase_1,,,,,,,,,,,,,yellow,diamond
0.0,8.0,0.0,1.0,4.0,4.0,347.0251509997979,2.0,1.0,phase_1,,,,,,,,,,,,,orange,circle
46.0,1.0,1.0,0.0,3.0,3.0,421.8564520001564,2.0,1.0,phase_1,,,,,,,,,,,,,white,hexagon
113.0,6.0,2.0,1.0,4.0,4.0,419.5626569999149,2.0,1.0,phase_1,,,,,,,,,,,,,blue,cross
25.0,5.0,1.0,1.0,3.0,3.0,324.5202680000147,2.0,1.0,phase_1,,,,,,,,,,,,,cyan,triangle
422.0,4.0,4.0,0.0,1.0,1.0,392.0667109996429,2.0,1.0,phase_1,,,,,,,,,,,,,gray,flipped triangle
184.0,7.0,3.0,1.0,4.0,4.0,466.1433370001759,2.0,1.0,phase_1,,,,,,,,,,,,,magenta,I
50.0,1.0,1.0,0.0,4.0,4.0,576.9708759999048,2.0,1.0,phase_1,,,,,,,,,,,,,white,hexagon
394.0,8.0,4.0,1.0,1.0,1.0,456.9906009996884,2.0,1.0,phase_1,,,,,,,,,,,,,orange,circle
46.0,5.0,1.0,1.0,3.0,3.0,383.6434100003316,2.0,1.0,phase_1,,,,,,,,,,,,,cyan,triangle
201.0,7.0,3.0,1.0,4.0,4.0,380.5920039999364,2.0,1.0,phase_1,,,,,,,,,,,,,magenta,I
379.0,4.0,4.0,0.0,2.0,2.0,611.6263720000461,2.0,1.0,phase_1,,,,,,,,,,,,,gray,flipped triangle
0.0,7.0,0.0,1.0,3.0,3.0,369.0598749999481,2.0,1.0,phase_1,,,,,,,,,,,,,magenta,I
103.0,6.0,2.0,1.0,4.0,4.0,508.69382099972427,2.0,1.0,phase_1,,,,,,,,,,,,,blue,cross
46.0,1.0,1.0,0.0,4.0,4.0,462.027684000077,2.0,1.0,phase_1,,,,,,,,,,,,,white,hexagon
0.0,6.0,0.0,1.0,1.0,1.0,549.351194999872,2.0,1.0,phase_1,,,,,,,,,,,,,blue,cross
58.0,1.0,1.0,0.0,3.0,3.0,366.5775479998956,2.0,1.0,phase_1,,,,,,,,,,,,,white,hexagon
0.0,5.0,0.0,1.0,2.0,2.0,370.7451430000219,2.0,1.0,phase_1,,,,,,,,,,,,,cyan,triangle
66.0,5.0,1.0,1.0,1.0,1.0,407.7841220000664,2.0,1.0,phase_1,,,,,,,,,,,,,cyan,triangle
39.0,1.0,1.0,0.0,3.0,3.0,310.3381740002078,2.0,1.0,phase_1,,,,,,,,,,,,,white,hexagon
213.0,7.0,3.0,1.0,2.0,2.0,376.37504700023777,2.0,1.0,phase_1,,,,,,,,,,,,,magenta,I
397.0,8.0,4.0,1.0,2.0,2.0,394.131292000111,2.0,1.0,phase_1,,,,,,,,,,,,,orange,circle
32.0,1.0,1.0,0.0,3.0,3.0,341.2630249999893,2.0,1.0,phase_1,,,,,,,,,,,,,white,hexagon
109.0,6.0,2.0,1.0,3.0,3.0,471.31834899983,2.0,1.0,phase_1,,,,,,,,,,,,,blue,cross
218.0,7.0,3.0,1.0,2.0,2.0,398.85057399988,2.0,1.0,phase_1,,,,,,,,,,,,,magenta,I
182.0,3.0,3.0,0.0,3.0,3.0,347.2711350000281,2.0,1.0,phase_1,,,,,,,,,,,,,green,square
75.0,6.0,2.0,1.0,2.0,2.0,374.1585320003651,2.0,1.0,phase_1,,,,,,,,,,,,,blue,cross
46.0,1.0,1.0,0.0,3.0,3.0,321.703107999383,2.0,1.0,phase_1,,,,,,,,,,,,,white,hexagon
93.0,2.0,2.0,0.0,1.0,1.0,426.6403379997427,2.0,1.0,phase_1,,,,,,,,,,,,,yellow,diamond
389.0,4.0,4.0,0.0,2.0,2.0,566.232516999662,2.0,1.0,phase_1,,,,,,,,,,,,,gray,flipped triangle
104.0,6.0,2.0,1.0,1.0,1.0,463.5215150001386,2.0,1.0,phase_1,,,,,,,,,,,,,blue,cross
81.0,6.0,2.0,1.0,4.0,4.0,411.8650639993575,2.0,1.0,phase_1,,,,,,,,,,,,,blue,cross
0.0,8.0,0.0,1.0,4.0,4.0,428.3651799996733,2.0,1.0,phase_1,,,,,,,,,,,,,orange,circle
0.0,7.0,0.0,1.0,3.0,3.0,431.2911520000853,2.0,1.0,phase_1,,,,,,,,,,,,,magenta,I
194.0,3.0,3.0,0.0,1.0,1.0,650.3806099999565,2.0,1.0,phase_1,,,,,,,,,,,,,green,square
36.0,5.0,1.0,1.0,4.0,4.0,387.7074439997159,2.0,1.0,phase_1,,,,,,,,,,,,,cyan,triangle
420.0,8.0,4.0,1.0,4.0,4.0,396.3682949997746,2.0,1.0,phase_1,,,,,,,,,,,,,orange,circle
49.0,1.0,1.0,0.0,1.0,1.0,427.7200340002309,2.0,1.0,phase_1,,,,,,,,,,,,,white,hexagon
0.0,6.0,0.0,1.0,2.0,2.0,444.8665670006448,2.0,1.0,phase_1,,,,,,,,,,,,,blue,cross
194.0,7.0,3.0,1.0,1.0,1.0,419.012195000505,2.0,1.0,phase_1,,,,,,,,,,,,,magenta,I
78.0,6.0,2.0,1.0,1.0,1.0,472.24911199919,2.0,1.0,phase_1,,,,,,,,,,,,,blue,cross
420.0,8.0,4.0,1.0,2.0,2.0,335.0613160000648,2.0,1.0,phase_1,,,,,,,,,,,,,orange,circle
0.0,1.0,0.0,0.0,3.0,3.0,434.4542440003351,2.0,1.0,phase_1,,,,,,,,,,,,,white,hexagon
64.0,1.0,1.0,0.0,3.0,3.0,393.0910279996169,2.0,1.0,phase_1,,,,,,,,,,,,,white,hexagon
82.0,2.0,2.0,0.0,2.0,2.0,402.9511529997762,2.0,1.0,phase_1,,,,,,,,,,,,,yellow,diamond
109.0,2.0,2.0,0.0,1.0,1.0,476.3867579995349,2.0,1.0,phase_1,,,,,,,,,,,,,yellow,diamond
37.0,5.0,1.0,1.0,2.0,2.0,399.6683750001466,2.0,1.0,phase_1,,,,,,,,,,,,,cyan,triangle
375.0,8.0,4.0,1.0,2.0,2.0,446.7520849993889,2.0,1.0,phase_1,,,,,,,,,,,,,orange,circle
0.0,4.0,0.0,0.0,1.0,1.0,672.4461419998988,2.0,1.0,phase_1,,,,,,,,,,,,,gray,flipped triangle
220.0,3.0,3.0,0.0,2.0,2.0,398.0489770001441,2.0,1.0,phase_1,,,,,,,,,,,,,green,square
0.0,5.0,0.0,1.0,2.0,2.0,417.7700930003993,2.0,1.0,phase_1,,,,,,,,,,,,,cyan,triangle
108.0,2.0,2.0,0.0,3.0,3.0,334.8159030001625,2.0,1.0,phase_1,,,,,,,,,,,,,yellow,diamond
41.0,5.0,1.0,1.0,4.0,4.0,364.6075760007079,2.0,1.0,phase_1,,,,,,,,,,,,,cyan,triangle
125.0,6.0,2.0,1.0,3.0,3.0,434.3266189998758,2.0,1.0,phase_1,,,,,,,,,,,,,blue,cross
224.0,7.0,3.0,1.0,2.0,2.0,536.0887599999842,2.0,1.0,phase_1,,,,,,,,,,,,,magenta,I
403.0,8.0,4.0,1.0,2.0,2.0,380.8309570003985,2.0,1.0,phase_1,,,,,,,,,,,,,orange,circle
73.0,5.0,1.0,1.0,3.0,3.0,354.728124999383,2.0,1.0,phase_1,,,,,,,,,,,,,cyan,triangle
0.0,5.0,0.0,1.0,1.0,1.0,429.3381739998949,2.0,1.0,phase_1,,,,,,,,,,,,,cyan,triangle
0.0,6.0,0.0,1.0,1.0,1.0,645.7061699993574,2.0,1.0,phase_1,,,,,,,,,,,,,blue,cross
30.0,1.0,1.0,0.0,2.0,2.0,493.3573870002874,2.0,1.0,phase_1,,,,,,,,,,,,,white,hexagon
113.0,6.0,2.0,1.0,4.0,4.0,612.304225999651,2.0,1.0,phase_1,,,,,,,,,,,,,blue,cross
395.0,4.0,4.0,0.0,4.0,4.0,418.3075009996173,2.0,1.0,phase_1,,,,,,,,,,,,,gray,flipped triangle
76.0,6.0,2.0,1.0,3.0,3.0,365.3667010003119,2.0,1.0,phase_1,,,,,,,,,,,,,blue,cross
0.0,2.0,0.0,0.0,4.0,4.0,311.3286910001989,2.0,1.0,phase_1,,,,,,,,,,,,,yellow,diamond
64.0,5.0,1.0,1.0,2.0,2.0,469.397327000479,2.0,1.0,phase_1,,,,,,,,,,,,,cyan,triangle
212.0,3.0,3.0,0.0,2.0,2.0,387.4087899994265,2.0,1.0,phase_1,,,,,,,,,,,,,green,square
177.0,3.0,3.0,0.0,4.0,4.0,340.9813099997336,2.0,1.0,phase_1,,,,,,,,,,,,,green,square
110.0,6.0,2.0,1.0,1.0,1.0,606.2573409999459,2.0,1.0,phase_1,,,,,,,,,,,,,blue,cross
175.0,7.0,3.0,1.0,1.0,1.0,616.0283859999254,2.0,1.0,phase_1,,,,,,,,,,,,,magenta,I
79.0,6.0,2.0,1.0,2.0,2.0,429.7171589996651,2.0,1.0,phase_1,,,,,,,,,,,,,blue,cross
120.0,2.0,2.0,0.0,2.0,2.0,394.1134719998445,2.0,1.0,phase_1,,,,,,,,,,,,,yellow,diamond
0.0,3.0,0.0,0.0,3.0,3.0,324.2139339999994,2.0,1.0,phase_1,,,,,,,,,,,,,green,square
399.0,8.0,4.0,1.0,3.0,3.0,420.2316170003541,3.0,1.0,phase_1,,,,,,,,,,,,,orange,circle
0.0,6.0,0.0,1.0,2.0,2.0,374.0869760003988,3.0,1.0,phase_1,,,,,,,,,,,,,blue,cross
75.0,2.0,2.0,0.0,3.0,3.0,365.6636630003049,3.0,1.0,phase_1,,,,,,,,,,,,,yellow,diamond
117.0,6.0,2.0,1.0,3.0,3.0,374.9847230001251,3.0,1.0,phase_1,,,,,,,,,,,,,blue,cross
112.0,2.0,2.0,0.0,1.0,1.0,453.3038569998098,3.0,1.0,phase_1,,,,,,,,,,,,,yellow,diamond
0.0,4.0,0.0,0.0,2.0,2.0,481.8920469997465,3.0,1.0,phase_1,,,,,,,,,,,,,gray,flipped triangle
120.0,6.0,2.0,1.0,4.0,4.0,418.9492740006244,3.0,1.0,phase_1,,,,,,,,,,,,,blue,cross
113.0,2.0,2.0,0.0,1.0,1.0,433.0376170000818,3.0,1.0,phase_1,,,,,,,,,,,,,yellow,diamond
0.0,4.0,0.0,0.0,3.0,3.0,379.5557109997389,3.0,1.0,phase_1,,,,,,,,,,,,,gray,flipped triangle
0.0,6.0,0.0,1.0,1.0,1.0,557.8560560006736,3.0,1.0,phase_1,,,,,,,,,,,,,blue,cross
383.0,8.0,4.0,1.0,1.0,1.0,391.6457699997409,3.0,1.0,phase_1,,,,,,,,,,,,,orange,circle
36.0,5.0,1.0,1.0,2.0,2.0,438.112729999375,3.0,1.0,phase_1,,,,,,,,,,,,,cyan,triangle
212.0,7.0,3.0,1.0,2.0,2.0,480.6810729996869,3.0,1.0,phase_1,,,,,,,,,,,,,magenta,I
0.0,7.0,0.0,1.0,2.0,2.0,401.8488809997507,3.0,1.0,phase_1,,,,,,,,,,,,,magenta,I
183.0,7.0,3.0,1.0,4.0,4.0,344.7305849995246,3.0,1.0,phase_1,,,,,,,,,,,,,magenta,I
187.0,3.0,3.0,0.0,2.0,2.0,494.5760190003057,3.0,1.0,phase_1,,,,,,,,,,,,,green,square
93.0,6.0,2.0,1.0,3.0,3.0,608.5252110005968,3.0,1.0,phase_1,,,,,,,,,,,,,blue,cross
0.0,3.0,0.0,0.0,1.0,1.0,451.801458000773,3.0,1.0,phase_1,,,,,,,,,,,,,green,square
184.0,7.0,3.0,1.0,3.0,3.0,443.3096140000998,3.0,1.0,phase_1,,,,,,,,,,,,,magenta,I
386.0,4.0,4.0,0.0,4.0,4.0,312.2080339999229,3.0,1.0,phase_1,,,,,,,,,,,,,gray,flipped triangle
0.0,8.0,0.0,1.0,4.0,4.0,437.0157049997942,3.0,1.0,phase_1,,,,,,,,,,,,,orange,circle
193.0,7.0,3.0,1.0,3.0,3.0,329.1091709997999,3.0,1.0,phase_1,,,,,,,,,,,,,magenta,I
39.0,5.0,1.0,1.0,4.0,4.0,344.0637309995509,3.0,1.0,phase_1,,,,,,,,,,,,,cyan,triangle
50.0,1.0,1.0,0.0,2.0,2.0,403.2272229997033,3.0,1.0,phase_1,,,,,,,,,,,,,white,hexagon
0.0,6.0,0.0,1.0,1.0,1.0,458.6674040001526,3.0,1.0,phase_1,,,,,,,,,,,,,blue,cross
389.0,8.0,4.0,1.0,1.0,1.0,467.8256990000591,3.0,1.0,phase_1,,,,,,,,,,,,,orange,circle
70.0,1.0,1.0,0.0,2.0,2.0,341.5941160001239,3.0,1.0,phase_1,,,,,,,,,,,,,white,hexagon
218.0,7.0,3.0,1.0,3.0,3.0,322.4024139999528,3.0,1.0,phase_1,,,,,,,,,,,,,magenta,I
54.0,5.0,1.0,1.0,3.0,3.0,517.7625879996413,3.0,1.0,phase_1,,,,,,,,,,,,,cyan,triangle
0.0,5.0,0.0,1.0,1.0,1.0,454.0713169999435,3.0,1.0,phase_1,,,,,,,,,,,,,cyan,triangle
201.0,3.0,3.0,0.0,4.0,4.0,445.4400559998248,3.0,1.0,phase_1,,,,,,,,,,,,,green,square
212.0,7.0,3.0,1.0,4.0,4.0,395.3830740001649,3.0,1.0,phase_1,,,,,,,,,,,,,magenta,I
0.0,3.0,0.0,0.0,2.0,2.0,427.1478370001205,3.0,1.0,phase_1,,,,,,,,,,,,,green,square
115.0,6.0,2.0,1.0,3.0,3.0,354.7062340003322,3.0,1.0,phase_1,,,,,,,,,,,,,blue,cross
40.0,5.0,1.0,1.0,3.0,3.0,343.9608509997924,3.0,1.0,phase_1,,,,,,,,,,,,,cyan,triangle
0.0,3.0,0.0,0.0,4.0,4.0,437.1187970000392,3.0,1.0,phase_1,,,,,,,,,,,,,green,square
71.0,1.0,1.0,0.0,4.0,4.0,418.7540140001147,3.0,1.0,phase_1,,,,,,,,,,,,,white,hexagon
95.0,6.0,2.0,1.0,2.0,2.0,391.5858579994165,3.0,1.0,phase_1,,,,,,,,,,,,,blue,cross
99.0,6.0,2.0,1.0,1.0,1.0,437.6747139995132,3.0,1.0,phase_1,,,,,,,,,,,,,blue,cross
58.0,5.0,1.0,1.0,1.0,1.0,378.3579069995539,3.0,1.0,phase_1,,,,,,,,,,,,,cyan,triangle
394.0,4.0,4.0,0.0,2.0,2.0,450.9499999994659,3.0,1.0,phase_1,,,,,,,,,,,,,gray,flipped triangle
0.0,5.0,0.0,1.0,3.0,3.0,509.8277639999651,3.0,1.0,phase_1,,,,,,,,,,,,,cyan,triangle
0.0,3.0,0.0,0.0,2.0,2.0,451.2962919998244,3.0,1.0,phase_1,,,,,,,,,,,,,green,square
53.0,1.0,1.0,0.0,3.0,3.0,344.914547999906,3.0,1.0,phase_1,,,,,,,,,,,,,white,hexagon
404.0,4.0,4.0,0.0,1.0,1.0,531.6066969999156,3.0,1.0,phase_1,,,,,,,,,,,,,gray,flipped triangle
0.0,7.0,0.0,1.0,3.0,3.0,328.2498280004802,3.0,1.0,phase_1,,,,,,,,,,,,,magenta,I
0.0,1.0,0.0,0.0,2.0,2.0,376.9632000003184,3.0,1.0,phase_1,,,,,,,,,,,,,white,hexagon
393.0,8.0,4.0,1.0,4.0,4.0,474.5879580004839,3.0,1.0,phase_1,,,,,,,,,,,,,orange,circle
99.0,6.0,2.0,1.0,1.0,1.0,539.230855999449,3.0,1.0,phase_1,,,,,,,,,,,,,blue,cross
99.0,2.0,2.0,0.0,2.0,2.0,473.2311019997723,3.0,1.0,phase_1,,,,,,,,,,,,,yellow,diamond
213.0,3.0,3.0,0.0,2.0,2.0,454.8258649992931,3.0,1.0,phase_1,,,,,,,,,,,,,green,square
221.0,3.0,3.0,0.0,3.0,3.0,330.9819119995154,3.0,1.0,phase_1,,,,,,,,,,,,,green,square
37.0,5.0,1.0,1.0,3.0,3.0,373.1540879998647,3.0,1.0,phase_1,,,,,,,,,,,,,cyan,triangle
420.0,4.0,4.0,0.0,4.0,4.0,656.7781509993438,3.0,1.0,phase_1,,,,,,,,,,,,,gray,flipped triangle
379.0,8.0,4.0,1.0,3.0,3.0,351.3906579992181,3.0,1.0,phase_1,,,,,,,,,,,,,orange,circle
186.0,3.0,3.0,0.0,3.0,3.0,366.8639419993269,3.0,1.0,phase_1,,,,,,,,,,,,,green,square
375.0,4.0,4.0,0.0,3.0,3.0,367.1877050001058,3.0,1.0,phase_1,,,,,,,,,,,,,gray,flipped triangle
208.0,3.0,3.0,0.0,2.0,2.0,419.2000869998082,3.0,1.0,phase_1,,,,,,,,,,,,,green,square
189.0,3.0,3.0,0.0,2.0,2.0,432.5609450006595,3.0,1.0,phase_1,,,,,,,,,,,,,green,square
386.0,8.0,4.0,1.0,3.0,3.0,330.7089979998636,3.0,1.0,phase_1,,,,,,,,,,,,,orange,circle
41.0,1.0,1.0,0.0,4.0,4.0,502.86300700008724,3.0,1.0,phase_1,,,,,,,,,,,,,white,hexagon
0.0,7.0,0.0,1.0,3.0,3.0,333.8743220001561,3.0,1.0,phase_1,,,,,,,,,,,,,magenta,I
30.0,5.0,1.0,1.0,2.0,2.0,383.4502119998433,3.0,1.0,phase_1,,,,,,,,,,,,,cyan,triangle
413.0,8.0,4.0,1.0,2.0,2.0,428.5479989994201,3.0,1.0,phase_1,,,,,,,,,,,,,orange,circle
73.0,5.0,1.0,1.0,2.0,2.0,434.3772149995857,3.0,1.0,phase_1,,,,,,,,,,,,,cyan,triangle
81.0,6.0,2.0,1.0,2.0,2.0,466.630191999684,3.0,1.0,phase_1,,,,,,,,,,,,,blue,cross
43.0,1.0,1.0,0.0,1.0,1.0,436.4442169999165,3.0,1.0,phase_1,,,,,,,,,,,,,white,hexagon
58.0,1.0,1.0,0.0,3.0,3.0,362.9074709997439,3.0,1.0,phase_1,,,,,,,,,,,,,white,hexagon
98.0,2.0,2.0,0.0,3.0,3.0,371.6906370000288,3.0,1.0,phase_1,,,,,,,,,,,,,yellow,diamond
396.0,8.0,4.0,1.0,1.0,1.0,610.7961370007615,3.0,1.0,phase_1,,,,,,,,,,,,,orange,circle
0.0,1.0,0.0,0.0,4.0,4.0,508.95163100085483,3.0,1.0,phase_1,,,,,,,,,,,,,white,hexagon
420.0,8.0,4.0,1.0,2.0,2.0,359.6300810004322,3.0,1.0,phase_1,,,,,,,,,,,,,orange,circle
0.0,6.0,0.0,1.0,3.0,3.0,355.6348179999986,3.0,1.0,phase_1,,,,,,,,,,,,,blue,cross
208.0,7.0,3.0,1.0,2.0,2.0,410.6485080001221,3.0,1.0,phase_1,,,,,,,,,,,,,magenta,I
404.0,8.0,4.0,1.0,4.0,4.0,401.740150000478,3.0,1.0,phase_1,,,,,,,,,,,,,orange,circle
396.0,4.0,4.0,0.0,3.0,3.0,402.8704330003165,3.0,1.0,phase_1,,,,,,,,,,,,,gray,flipped triangle
419.0,8.0,4.0,1.0,1.0,1.0,502.86279400006606,3.0,1.0,phase_1,,,,,,,,,,,,,orange,circle
0.0,8.0,0.0,1.0,4.0,4.0,500.3580249995139,3.0,1.0,phase_1,,,,,,,,,,,,,orange,circle
81.0,6.0,2.0,1.0,1.0,1.0,569.8752660000537,3.0,1.0,phase_1,,,,,,,,,,,,,blue,cross
120.0,2.0,2.0,0.0,3.0,3.0,396.6892870002994,3.0,1.0,phase_1,,,,,,,,,,,,,yellow,diamond
50.0,5.0,1.0,1.0,1.0,1.0,525.1873059996797,3.0,1.0,phase_1,,,,,,,,,,,,,cyan,triangle
0.0,1.0,0.0,0.0,4.0,4.0,417.6478090003002,3.0,1.0,phase_1,,,,,,,,,,,,,white,hexagon
79.0,2.0,2.0,0.0,2.0,2.0,405.2821209998001,3.0,1.0,phase_1,,,,,,,,,,,,,yellow,diamond
409.0,4.0,4.0,0.0,2.0,2.0,549.0897449999466,3.0,1.0,phase_1,,,,,,,,,,,,,gray,flipped triangle
56.0,1.0,1.0,0.0,2.0,2.0,443.2720650002011,3.0,1.0,phase_1,,,,,,,,,,,,,white,hexagon
0.0,4.0,0.0,0.0,4.0,4.0,501.6036500001064,3.0,1.0,phase_1,,,,,,,,,,,,,gray,flipped triangle
0.0,2.0,0.0,0.0,1.0,1.0,732.1406020000722,3.0,1.0,phase_1,,,,,,,,,,,,,yellow,diamond
81.0,2.0,2.0,0.0,3.0,3.0,360.4390200007401,3.0,1.0,phase_1,,,,,,,,,,,,,yellow,diamond
202.0,3.0,3.0,0.0,1.0,1.0,777.5314680002339,3.0,1.0,phase_1,,,,,,,,,,,,,green,square
0.0,7.0,0.0,1.0,4.0,4.0,456.1576750002132,3.0,1.0,phase_1,,,,,,,,,,,,,magenta,I
193.0,3.0,3.0,0.0,1.0,1.0,817.4908940000023,3.0,1.0,phase_1,,,,,,,,,,,,,green,square
53.0,1.0,1.0,0.0,4.0,4.0,456.0875170000145,3.0,1.0,phase_1,,,,,,,,,,,,,white,hexagon
82.0,6.0,2.0,1.0,2.0,2.0,382.7657070005443,3.0,1.0,phase_1,,,,,,,,,,,,,blue,cross
0.0,4.0,0.0,0.0,4.0,4.0,428.5097400006634,3.0,1.0,phase_1,,,,,,,,,,,,,gray,flipped triangle
53.0,5.0,1.0,1.0,2.0,2.0,475.067219000266,3.0,1.0,phase_1,,,,,,,,,,,,,cyan,triangle
201.0,3.0,3.0,0.0,1.0,1.0,588.5057909999887,3.0,1.0,phase_1,,,,,,,,,,,,,green,square
417.0,4.0,4.0,0.0,2.0,2.0,395.4497329996229,3.0,1.0,phase_1,,,,,,,,,,,,,gray,flipped triangle
386.0,4.0,4.0,0.0,2.0,2.0,440.1129820007554,3.0,1.0,phase_1,,,,,,,,,,,,,gray,flipped triangle
420.0,4.0,4.0,0.0,4.0,4.0,405.728153000382,3.0,1.0,phase_1,,,,,,,,,,,,,gray,flipped triangle
120.0,6.0,2.0,1.0,1.0,1.0,571.3587910004208,3.0,1.0,phase_1,,,,,,,,,,,,,blue,cross
28.0,1.0,1.0,0.0,1.0,1.0,439.2295309999099,4.0,1.0,phase_1,,,,,,,,,,,,,white,hexagon
89.0,2.0,2.0,0.0,4.0,4.0,396.7946609991486,4.0,1.0,phase_1,,,,,,,,,,,,,yellow,diamond
224.0,3.0,3.0,0.0,4.0,4.0,398.9499029994476,4.0,1.0,phase_1,,,,,,,,,,,,,green,square
409.0,4.0,4.0,0.0,2.0,2.0,458.2666650003375,4.0,1.0,phase_1,,,,,,,,,,,,,gray,flipped triangle
58.0,5.0,1.0,1.0,3.0,3.0,421.4387609999903,4.0,1.0,phase_1,,,,,,,,,,,,,cyan,triangle
102.0,2.0,2.0,0.0,4.0,4.0,362.0049539995307,4.0,1.0,phase_1,,,,,,,,,,,,,yellow,diamond
49.0,5.0,1.0,1.0,3.0,3.0,418.9296189997549,4.0,1.0,phase_1,,,,,,,,,,,,,cyan,triangle
60.0,5.0,1.0,1.0,1.0,1.0,525.1470329994845,4.0,1.0,phase_1,,,,,,,,,,,,,cyan,triangle
218.0,3.0,3.0,0.0,2.0,2.0,448.2903759999317,4.0,1.0,phase_1,,,,,,,,,,,,,green,square
69.0,1.0,1.0,0.0,3.0,3.0,382.3696700001164,4.0,1.0,phase_1,,,,,,,,,,,,,white,hexagon
117.0,2.0,2.0,0.0,3.0,3.0,485.0300940006491,4.0,1.0,phase_1,,,,,,,,,,,,,yellow,diamond
74.0,5.0,1.0,1.0,1.0,1.0,431.4874380006586,4.0,1.0,phase_1,,,,,,,,,,,,,cyan,triangle
66.0,1.0,1.0,0.0,1.0,1.0,403.6067359993467,4.0,1.0,phase_1,,,,,,,,,,,,,white,hexagon
0.0,8.0,0.0,1.0,1.0,1.0,646.7494479993547,4.0,1.0,phase_1,,,,,,,,,,,,,orange,circle
388.0,8.0,4.0,1.0,4.0,4.0,455.5818630005888,4.0,1.0,phase_1,,,,,,,,,,,,,orange,circle
96.0,6.0,2.0,1.0,4.0,4.0,518.5820530005003,4.0,1.0,phase_1,,,,,,,,,,,,,blue,cross
222.0,3.0,3.0,0.0,3.0,3.0,440.719309999622,4.0,1.0,phase_1,,,,,,,,,,,,,green,square
63.0,5.0,1.0,1.0,3.0,3.0,403.1569749995469,4.0,1.0,phase_1,,,,,,,,,,,,,cyan,triangle
71.0,5.0,1.0,1.0,2.0,2.0,478.204356999413,4.0,1.0,phase_1,,,,,,,,,,,,,cyan,triangle
76.0,2.0,2.0,0.0,1.0,1.0,731.9649350001782,4.0,1.0,phase_1,,,,,,,,,,,,,yellow,diamond
214.0,7.0,3.0,1.0,4.0,4.0,392.4202320004042,4.0,1.0,phase_1,,,,,,,,,,,,,magenta,I
81.0,2.0,2.0,0.0,4.0,4.0,447.8149710002981,4.0,1.0,phase_1,,,,,,,,,,,,,yellow,diamond
108.0,6.0,2.0,1.0,1.0,1.0,457.3230770001828,4.0,1.0,phase_1,,,,,,,,,,,,,blue,cross
409.0,8.0,4.0,1.0,1.0,1.0,729.7281959999964,4.0,1.0,phase_1,,,,,,,,,,,,,orange,circle
0.0,6.0,0.0,1.0,1.0,1.0,535.1695230001496,4.0,1.0,phase_1,,,,,,,,,,,,,blue,cross
177.0,3.0,3.0,0.0,1.0,1.0,453.4553889998278,4.0,1.0,phase_1,,,,,,,,,,,,,green,square
205.0,7.0,3.0,1.0,3.0,3.0,424.5181590003994,4.0,1.0,phase_1,,,,,,,,,,,,,magenta,I
95.0,6.0,2.0,1.0,1.0,1.0,361.8692380005086,4.0,1.0,phase_1,,,,,,,,,,,,,blue,cross
82.0,2.0,2.0,0.0,2.0,2.0,505.2764299998671,4.0,1.0,phase_1,,,,,,,,,,,,,yellow,diamond
183.0,3.0,3.0,0.0,4.0,4.0,379.6047300002101,4.0,1.0,phase_1,,,,,,,,,,,,,green,square
177.0,7.0,3.0,1.0,4.0,4.0,696.1205889992925,4.0,1.0,phase_1,,,,,,,,,,,,,magenta,I
37.0,1.0,1.0,0.0,1.0,1.0,763.6155070003952,4.0,1.0,phase_1,,,,,,,,,,,,,white,hexagon
420.0,4.0,4.0,0.0,1.0,1.0,971.0335600002508,4.0,1.0,phase_1,,,,,,,,,,,,,gray,flipped triangle
205.0,3.0,3.0,0.0,3.0,3.0,669.9526720003632,4.0,1.0,phase_1,,,,,,,,,,,,,green,square
399.0,4.0,4.0,0.0,3.0,3.0,620.8887380007582,4.0,1.0,phase_1,,,,,,,,,,,,,gray,flipped triangle
381.0,8.0,4.0,1.0,2.0,2.0,450.3197210005965,4.0,1.0,phase_1,,,,,,,,,,,,,orange,circle
0.0,2.0,0.0,0.0,3.0,3.0,488.9353819999087,4.0,1.0,phase_1,,,,,,,,,,,,,yellow,diamond
176.0,3.0,3.0,0.0,3.0,3.0,436.0401690000799,4.0,1.0,phase_1,,,,,,,,,,,,,green,square
110.0,2.0,2.0,0.0,2.0,2.0,738.3581219992266,4.0,1.0,phase_1,,,,,,,,,,,,,yellow,diamond
0.0,2.0,0.0,0.0,4.0,4.0,408.4266200006823,4.0,1.0,phase_1,,,,,,,,,,,,,yellow,diamond
425.0,4.0,4.0,0.0,1.0,1.0,602.7813749997222,4.0,1.0,phase_1,,,,,,,,,,,,,gray,flipped triangle
104.0,6.0,2.0,1.0,3.0,3.0,439.3463430005795,4.0,1.0,phase_1,,,,,,,,,,,,,blue,cross
177.0,7.0,3.0,1.0,4.0,4.0,398.7944090004021,4.0,1.0,phase_1,,,,,,,,,,,,,magenta,I
37.0,1.0,1.0,0.0,4.0,4.0,384.9082139995516,4.0,1.0,phase_1,,,,,,,,,,,,,white,hexagon
89.0,2.0,2.0,0.0,4.0,4.0,548.4237059999941,4.0,1.0,phase_1,,,,,,,,,,,,,yellow,diamond
32.0,5.0,1.0,1.0,2.0,2.0,563.7906140000268,4.0,1.0,phase_1,,,,,,,,,,,,,cyan,triangle
98.0,6.0,2.0,1.0,2.0,2.0,534.3035590003637,4.0,1.0,phase_1,,,,,,,,,,,,,blue,cross
419.0,4.0,4.0,0.0,3.0,3.0,461.0077930001353,4.0,1.0,phase_1,,,,,,,,,,,,,gray,flipped triangle
56.0,5.0,1.0,1.0,4.0,4.0,481.261232000179,4.0,1.0,phase_1,,,,,,,,,,,,,cyan,triangle
192.0,3.0,3.0,0.0,2.0,2.0,610.7080150004549,4.0,1.0,phase_1,,,,,,,,,,,,,green,square
0.0,4.0,0.0,0.0,2.0,2.0,562.3183480001899,4.0,1.0,phase_1,,,,,,,,,,,,,gray,flipped triangle
183.0,3.0,3.0,0.0,2.0,2.0,593.2934910006225,4.0,1.0,phase_1,,,,,,,,,,,,,green,square
220.0,7.0,3.0,1.0,1.0,1.0,627.7696750003088,4.0,1.0,phase_1,,,,,,,,,,,,,magenta,I
211.0,3.0,3.0,0.0,4.0,4.0,473.7334350002129,4.0,1.0,phase_1,,,,,,,,,,,,,green,square
89.0,6.0,2.0,1.0,2.0,2.0,362.9708539992862,4.0,1.0,phase_1,,,,,,,,,,,,,blue,cross
393.0,4.0,4.0,0.0,1.0,1.0,657.6640619996397,4.0,1.0,phase_1,,,,,,,,,,,,,gray,flipped triangle
211.0,7.0,3.0,1.0,4.0,4.0,482.5436859991896,4.0,1.0,phase_1,,,,,,,,,,,,,magenta,I
120.0,2.0,2.0,0.0,2.0,2.0,468.7541539997255,4.0,1.0,phase_1,,,,,,,,,,,,,yellow,diamond
209.0,7.0,3.0,1.0,1.0,1.0,400.1343990003079,4.0,1.0,phase_1,,,,,,,,,,,,,magenta,I
33.0,1.0,1.0,0.0,1.0,1.0,664.0863839993472,4.0,1.0,phase_1,,,,,,,,,,,,,white,hexagon
28.0,5.0,1.0,1.0,4.0,4.0,439.963412999532,4.0,1.0,phase_1,,,,,,,,,,,,,cyan,triangle
409.0,8.0,4.0,1.0,3.0,3.0,486.9411820000096,4.0,1.0,phase_1,,,,,,,,,,,,,orange,circle
89.0,6.0,2.0,1.0,3.0,3.0,469.8750600000494,4.0,1.0,phase_1,,,,,,,,,,,,,blue,cross
202.0,7.0,3.0,1.0,3.0,3.0,387.4977400000716,4.0,1.0,phase_1,,,,,,,,,,,,,magenta,I
195.0,3.0,3.0,0.0,4.0,4.0,379.1871949997585,4.0,1.0,phase_1,,,,,,,,,,,,,green,square
0.0,4.0,0.0,0.0,3.0,3.0,375.8601239997006,4.0,1.0,phase_1,,,,,,,,,,,,,gray,flipped triangle
92.0,6.0,2.0,1.0,2.0,2.0,486.6461519995937,4.0,1.0,phase_1,,,,,,,,,,,,,blue,cross
103.0,2.0,2.0,0.0,3.0,3.0,401.783479000187,4.0,1.0,phase_1,,,,,,,,,,,,,yellow,diamond
0.0,3.0,0.0,0.0,2.0,2.0,483.9391539999269,4.0,1.0,phase_1,,,,,,,,,,,,,green,square
25.0,5.0,1.0,1.0,1.0,1.0,684.3459700003223,4.0,1.0,phase_1,,,,,,,,,,,,,cyan,triangle
0.0,3.0,0.0,0.0,4.0,4.0,464.8314440000831,4.0,1.0,phase_1,,,,,,,,,,,,,green,square
404.0,8.0,4.0,1.0,4.0,4.0,430.7132690000799,4.0,1.0,phase_1,,,,,,,,,,,,,orange,circle
391.0,8.0,4.0,1.0,2.0,2.0,463.6580890000914,4.0,1.0,phase_1,,,,,,,,,,,,,orange,circle
391.0,8.0,4.0,1.0,4.0,4.0,358.0584600003931,4.0,1.0,phase_1,,,,,,,,,,,,,orange,circle
121.0,6.0,2.0,1.0,1.0,1.0,679.0616210000735,4.0,1.0,phase_1,,,,,,,,,,,,,blue,cross
381.0,8.0,4.0,1.0,3.0,3.0,352.578464000544,4.0,1.0,phase_1,,,,,,,,,,,,,orange,circle
379.0,4.0,4.0,0.0,1.0,1.0,537.2555290005039,4.0,1.0,phase_1,,,,,,,,,,,,,gray,flipped triangle
0.0,5.0,0.0,1.0,4.0,4.0,374.3101260006369,4.0,1.0,phase_1,,,,,,,,,,,,,cyan,triangle
192.0,7.0,3.0,1.0,1.0,1.0,508.99887700052204,4.0,1.0,phase_1,,,,,,,,,,,,,magenta,I
0.0,5.0,0.0,1.0,3.0,3.0,379.920958999719,4.0,1.0,phase_1,,,,,,,,,,,,,cyan,triangle
0.0,2.0,0.0,0.0,4.0,4.0,350.0212090002605,4.0,1.0,phase_1,,,,,,,,,,,,,yellow,diamond
393.0,4.0,4.0,0.0,4.0,4.0,428.3983299992542,4.0,1.0,phase_1,,,,,,,,,,,,,gray,flipped triangle
388.0,8.0,4.0,1.0,3.0,3.0,444.2708790002143,4.0,1.0,phase_1,,,,,,,,,,,,,orange,circle
0.0,4.0,0.0,0.0,3.0,3.0,425.3616759997385,4.0,1.0,phase_1,,,,,,,,,,,,,gray,flipped triangle
223.0,7.0,3.0,1.0,2.0,2.0,462.155488999997,4.0,1.0,phase_1,,,,,,,,,,,,,magenta,I
92.0,2.0,2.0,0.0,1.0,1.0,631.8529560003299,4.0,1.0,phase_1,,,,,,,,,,,,,yellow,diamond
95.0,2.0,2.0,0.0,4.0,4.0,420.4228309999962,4.0,1.0,phase_1,,,,,,,,,,,,,yellow,diamond
112.0,6.0,2.0,1.0,3.0,3.0,353.8654289995975,4.0,1.0,phase_1,,,,,,,,,,,,,blue,cross
196.0,7.0,3.0,1.0,3.0,3.0,412.5135470003442,4.0,1.0,phase_1,,,,,,,,,,,,,magenta,I
78.0,2.0,2.0,0.0,3.0,3.0,352.7037730000302,4.0,1.0,phase_1,,,,,,,,,,,,,yellow,diamond
40.0,1.0,1.0,0.0,2.0,2.0,437.0195680003235,4.0,1.0,phase_1,,,,,,,,,,,,,white,hexagon
388.0,4.0,4.0,0.0,1.0,1.0,563.8587539997388,4.0,1.0,phase_1,,,,,,,,,,,,,gray,flipped triangle
0.0,1.0,0.0,0.0,1.0,1.0,536.2949430000299,4.0,1.0,phase_1,,,,,,,,,,,,,white,hexagon
42.0,1.0,1.0,0.0,2.0,2.0,493.0620690001888,4.0,1.0,phase_1,,,,,,,,,,,,,white,hexagon
81.0,2.0,2.0,0.0,4.0,4.0,441.2396369998532,4.0,1.0,phase_1,,,,,,,,,,,,,yellow,diamond
391.0,4.0,4.0,0.0,3.0,3.0,419.0270730005068,4.0,1.0,phase_1,,,,,,,,,,,,,gray,flipped triangle
206.0,7.0,3.0,1.0,4.0,4.0,582.1621080003752,4.0,1.0,phase_1,,,,,,,,,,,,,magenta,I
425.0,8.0,4.0,1.0,3.0,3.0,396.544877999986,4.0,1.0,phase_1,,,,,,,,,,,,,orange,circle
73.0,1.0,1.0,0.0,1.0,1.0,495.6730869998864,4.0,1.0,phase_1,,,,,,,,,,,,,white,hexagon
0.0,1.0,0.0,0.0,4.0,4.0,428.0103880000752,4.0,1.0,phase_1,,,,,,,,,,,,,white,hexagon
0.0,3.0,3.0,0.0,6.0,6.0,653.0314369992993,1.0,1.0,phase_2,go,250.0,250.0,1.0,,,,,,,,,green,square
0.0,5.0,1.0,1.0,5.0,0.0,0.0,1.0,1.0,phase_2,stop,250.0,250.0,4.0,,,,,,,,,cyan,triangle
0.0,7.0,3.0,1.0,6.0,6.0,907.5042390004456,1.0,1.0,phase_2,go,300.0,250.0,1.0,,,,,,,,,magenta,I
0.0,4.0,4.0,0.0,6.0,6.0,625.7226520001495,1.0,1.0,phase_2,go,300.0,250.0,1.0,,,,,,,,,gray,flipped triangle
0.0,4.0,4.0,0.0,6.0,6.0,656.2995090007462,1.0,1.0,phase_2,go,300.0,250.0,1.0,,,,,,,,,gray,flipped triangle
0.0,2.0,2.0,0.0,6.0,6.0,345.3170620005039,1.0,1.0,phase_2,go,300.0,250.0,1.0,,,,,,,,,yellow,diamond
0.0,2.0,2.0,0.0,5.0,5.0,564.5351709999886,1.0,1.0,phase_2,go,300.0,250.0,1.0,,,,,,,,,yellow,diamond
0.0,1.0,1.0,0.0,6.0,6.0,648.3255260000078,1.0,1.0,phase_2,go,300.0,250.0,1.0,,,,,,,,,white,hexagon
0.0,5.0,1.0,1.0,6.0,0.0,0.0,1.0,1.0,phase_2,stop,300.0,250.0,4.0,,,,,,,,,cyan,triangle
0.0,2.0,2.0,0.0,6.0,6.0,679.01247699956,1.0,1.0,phase_2,go,300.0,300.0,1.0,,,,,,,,,yellow,diamond
0.0,6.0,2.0,1.0,6.0,6.0,391.1878799999613,1.0,1.0,phase_2,stop,300.0,300.0,3.0,,,,,,,,,blue,cross
0.0,2.0,2.0,0.0,5.0,5.0,804.7166749993266,1.0,1.0,phase_2,go,300.0,250.0,1.0,,,,,,,,,yellow,diamond
0.0,1.0,1.0,0.0,6.0,6.0,376.9718980001926,1.0,1.0,phase_2,go,300.0,250.0,1.0,,,,,,,,,white,hexagon
0.0,2.0,2.0,0.0,5.0,5.0,453.8027219996365,1.0,1.0,phase_2,go,300.0,250.0,1.0,,,,,,,,,yellow,diamond
0.0,4.0,4.0,0.0,5.0,5.0,628.8366600001609,1.0,1.0,phase_2,go,300.0,250.0,1.0,,,,,,,,,gray,flipped triangle
0.0,7.0,3.0,1.0,5.0,0.0,0.0,1.0,1.0,phase_2,stop,300.0,250.0,4.0,,,,,,,,,magenta,I
0.0,4.0,4.0,0.0,5.0,5.0,575.7900630005679,1.0,1.0,phase_2,go,350.0,250.0,1.0,,,,,,,,,gray,flipped triangle
0.0,7.0,3.0,1.0,6.0,0.0,0.0,1.0,1.0,phase_2,stop,350.0,250.0,4.0,,,,,,,,,magenta,I
0.0,3.0,3.0,0.0,6.0,6.0,687.2567000000345,1.0,1.0,phase_2,go,350.0,300.0,1.0,,,,,,,,,green,square
0.0,7.0,3.0,1.0,5.0,5.0,722.4434750005457,1.0,1.0,phase_2,go,350.0,300.0,1.0,,,,,,,,,magenta,I
0.0,1.0,1.0,0.0,5.0,5.0,715.1829209997231,1.0,1.0,phase_2,go,350.0,300.0,1.0,,,,,,,,,white,hexagon
0.0,6.0,2.0,1.0,6.0,0.0,0.0,1.0,1.0,phase_2,stop,350.0,300.0,4.0,,,,,,,,,blue,cross
0.0,2.0,2.0,0.0,5.0,5.0,659.0372009995917,1.0,1.0,phase_2,go,350.0,350.0,1.0,,,,,,,,,yellow,diamond
0.0,8.0,4.0,1.0,6.0,0.0,0.0,1.0,1.0,phase_2,stop,350.0,350.0,4.0,,,,,,,,,orange,circle
0.0,1.0,1.0,0.0,5.0,5.0,744.218866000665,1.0,1.0,phase_2,go,350.0,400.0,1.0,,,,,,,,,white,hexagon
0.0,5.0,1.0,1.0,5.0,5.0,877.2630149996985,1.0,1.0,phase_2,go,350.0,400.0,1.0,,,,,,,,,cyan,triangle
0.0,3.0,3.0,0.0,5.0,5.0,807.8634710000188,1.0,1.0,phase_2,go,350.0,400.0,1.0,,,,,,,,,green,square
0.0,1.0,1.0,0.0,5.0,5.0,821.2412499997299,1.0,1.0,phase_2,go,350.0,400.0,1.0,,,,,,,,,white,hexagon
0.0,6.0,2.0,1.0,5.0,0.0,0.0,1.0,1.0,phase_2,stop,350.0,400.0,4.0,,,,,,,,,blue,cross
0.0,6.0,2.0,1.0,6.0,0.0,0.0,1.0,1.0,phase_2,stop,400.0,400.0,4.0,,,,,,,,,blue,cross
0.0,8.0,4.0,1.0,5.0,5.0,815.7188900004257,1.0,1.0,phase_2,go,400.0,450.0,1.0,,,,,,,,,orange,circle
0.0,5.0,1.0,1.0,6.0,0.0,0.0,1.0,1.0,phase_2,stop,400.0,450.0,4.0,,,,,,,,,cyan,triangle
0.0,8.0,4.0,1.0,5.0,0.0,0.0,1.0,1.0,phase_2,stop,400.0,500.0,4.0,,,,,,,,,orange,circle
0.0,6.0,2.0,1.0,5.0,0.0,0.0,1.0,1.0,phase_2,stop,450.0,500.0,4.0,,,,,,,,,blue,cross
0.0,1.0,1.0,0.0,6.0,6.0,910.144711000612,1.0,1.0,phase_2,go,500.0,500.0,1.0,,,,,,,,,white,hexagon
0.0,2.0,2.0,0.0,6.0,6.0,1160.5430710005749,1.0,1.0,phase_2,go,500.0,500.0,1.0,,,,,,,,,yellow,diamond
0.0,4.0,4.0,0.0,5.0,5.0,622.2145230003662,2.0,1.0,phase_2,go,500.0,500.0,1.0,,,,,,,,,gray,flipped triangle
0.0,5.0,1.0,1.0,5.0,5.0,373.3212170000115,2.0,1.0,phase_2,stop,500.0,500.0,3.0,,,,,,,,,cyan,triangle
0.0,5.0,1.0,1.0,5.0,5.0,356.7551530004493,2.0,1.0,phase_2,stop,450.0,500.0,3.0,,,,,,,,,cyan,triangle
0.0,6.0,2.0,1.0,6.0,6.0,309.9156210000728,2.0,1.0,phase_2,stop,400.0,500.0,3.0,,,,,,,,,blue,cross
0.0,4.0,4.0,0.0,6.0,6.0,381.7560730003606,2.0,1.0,phase_2,go,400.0,450.0,1.0,,,,,,,,,gray,flipped triangle
0.0,6.0,2.0,1.0,5.0,5.0,540.5053720005526,2.0,1.0,phase_2,stop,400.0,450.0,3.0,,,,,,,,,blue,cross
0.0,6.0,2.0,1.0,5.0,0.0,0.0,2.0,1.0,phase_2,stop,350.0,450.0,4.0,,,,,,,,,blue,cross
0.0,8.0,4.0,1.0,6.0,6.0,483.6930359997495,2.0,1.0,phase_2,stop,400.0,450.0,3.0,,,,,,,,,orange,circle
0.0,1.0,1.0,0.0,5.0,5.0,625.3286720002507,2.0,1.0,phase_2,go,400.0,400.0,1.0,,,,,,,,,white,hexagon
0.0,4.0,4.0,0.0,6.0,6.0,454.9958409997998,2.0,1.0,phase_2,go,400.0,400.0,1.0,,,,,,,,,gray,flipped triangle
0.0,5.0,1.0,1.0,6.0,6.0,390.9054770001603,2.0,1.0,phase_2,stop,400.0,400.0,3.0,,,,,,,,,cyan,triangle
0.0,7.0,3.0,1.0,6.0,6.0,468.2317919996421,2.0,1.0,phase_2,stop,400.0,350.0,3.0,,,,,,,,,magenta,I
0.0,3.0,3.0,0.0,5.0,5.0,908.794578999732,2.0,1.0,phase_2,go,400.0,300.0,1.0,,,,,,,,,green,square
0.0,8.0,4.0,1.0,6.0,0.0,0.0,2.0,1.0,phase_2,stop,400.0,300.0,4.0,,,,,,,,,orange,circle
0.0,7.0,3.0,1.0,6.0,6.0,781.9157849999101,2.0,1.0,phase_2,go,400.0,350.0,1.0,,,,,,,,,magenta,I
0.0,2.0,2.0,0.0,5.0,5.0,564.6277670002746,2.0,1.0,phase_2,go,400.0,350.0,1.0,,,,,,,,,yellow,diamond
0.0,1.0,1.0,0.0,6.0,6.0,479.0950859996883,2.0,1.0,phase_2,go,400.0,350.0,1.0,,,,,,,,,white,hexagon
0.0,1.0,1.0,0.0,6.0,6.0,380.848535000041,2.0,1.0,phase_2,go,400.0,350.0,1.0,,,,,,,,,white,hexagon
0.0,7.0,3.0,1.0,5.0,5.0,445.9825269996145,2.0,1.0,phase_2,stop,400.0,350.0,3.0,,,,,,,,,magenta,I
0.0,7.0,3.0,1.0,6.0,6.0,600.5650200004311,2.0,1.0,phase_2,go,350.0,350.0,1.0,,,,,,,,,magenta,I
0.0,6.0,2.0,1.0,6.0,6.0,345.6749839997428,2.0,1.0,phase_2,go,350.0,350.0,1.0,,,,,,,,,blue,cross
0.0,4.0,4.0,0.0,6.0,6.0,330.1059570003417,2.0,1.0,phase_2,go,350.0,350.0,1.0,,,,,,,,,gray,flipped triangle
0.0,2.0,2.0,0.0,5.0,5.0,273.6551849993702,2.0,1.0,phase_2,go,350.0,350.0,1.0,,,,,,,,,yellow,diamond
0.0,8.0,4.0,1.0,6.0,6.0,441.447928999878,2.0,1.0,phase_2,stop,350.0,350.0,3.0,,,,,,,,,orange,circle
0.0,8.0,4.0,1.0,6.0,0.0,0.0,2.0,1.0,phase_2,stop,350.0,300.0,4.0,,,,,,,,,orange,circle
0.0,4.0,4.0,0.0,6.0,6.0,646.3683060001131,2.0,1.0,phase_2,go,350.0,350.0,1.0,,,,,,,,,gray,flipped triangle
0.0,8.0,4.0,1.0,6.0,0.0,0.0,2.0,1.0,phase_2,stop,350.0,350.0,4.0,,,,,,,,,orange,circle
0.0,2.0,2.0,0.0,6.0,6.0,453.7944730000163,2.0,1.0,phase_2,go,350.0,400.0,1.0,,,,,,,,,yellow,diamond
0.0,7.0,3.0,1.0,5.0,0.0,0.0,2.0,1.0,phase_2,stop,350.0,400.0,4.0,,,,,,,,,magenta,I
0.0,1.0,1.0,0.0,6.0,6.0,376.7284989999098,2.0,1.0,phase_2,go,400.0,400.0,1.0,,,,,,,,,white,hexagon
0.0,8.0,4.0,1.0,5.0,5.0,600.9794619994864,2.0,1.0,phase_2,go,400.0,400.0,1.0,,,,,,,,,orange,circle
0.0,2.0,2.0,0.0,5.0,5.0,380.0504999999248,2.0,1.0,phase_2,go,400.0,400.0,1.0,,,,,,,,,yellow,diamond
0.0,7.0,3.0,1.0,6.0,6.0,392.6467909996063,2.0,1.0,phase_2,stop,400.0,400.0,3.0,,,,,,,,,magenta,I
0.0,6.0,2.0,1.0,5.0,5.0,504.35228100013774,2.0,1.0,phase_2,stop,400.0,350.0,3.0,,,,,,,,,blue,cross
0.0,6.0,2.0,1.0,5.0,5.0,629.3078449998575,2.0,1.0,phase_2,go,350.0,350.0,1.0,,,,,,,,,blue,cross
0.0,3.0,3.0,0.0,5.0,5.0,541.038424999897,2.0,1.0,phase_2,go,350.0,350.0,1.0,,,,,,,,,green,square
0.0,5.0,1.0,1.0,5.0,5.0,453.4526780007581,3.0,1.0,phase_2,stop,350.0,350.0,3.0,,,,,,,,,cyan,triangle
0.0,5.0,1.0,1.0,5.0,0.0,0.0,3.0,1.0,phase_2,stop,300.0,350.0,4.0,,,,,,,,,cyan,triangle
0.0,1.0,1.0,0.0,6.0,6.0,412.8438669995375,3.0,1.0,phase_2,go,350.0,350.0,1.0,,,,,,,,,white,hexagon
0.0,1.0,1.0,0.0,5.0,5.0,512.0482570000604,3.0,1.0,phase_2,go,350.0,350.0,1.0,,,,,,,,,white,hexagon
0.0,1.0,1.0,0.0,6.0,6.0,388.4698629999548,3.0,1.0,phase_2,go,350.0,350.0,1.0,,,,,,,,,white,hexagon
0.0,4.0,4.0,0.0,5.0,5.0,567.2432319997824,3.0,1.0,phase_2,go,350.0,350.0,1.0,,,,,,,,,gray,flipped triangle
0.0,5.0,1.0,1.0,5.0,0.0,0.0,3.0,1.0,phase_2,stop,350.0,350.0,4.0,,,,,,,,,cyan,triangle
0.0,7.0,3.0,1.0,6.0,6.0,391.5826130005371,3.0,1.0,phase_2,stop,400.0,350.0,3.0,,,,,,,,,magenta,I
0.0,2.0,2.0,0.0,6.0,6.0,541.3922349998757,3.0,1.0,phase_2,go,400.0,300.0,1.0,,,,,,,,,yellow,diamond
0.0,7.0,3.0,1.0,6.0,6.0,471.7781220006145,3.0,1.0,phase_2,stop,400.0,300.0,3.0,,,,,,,,,magenta,I
0.0,4.0,4.0,0.0,5.0,5.0,622.154896000211,3.0,1.0,phase_2,go,400.0,250.0,1.0,,,,,,,,,gray,flipped triangle
0.0,1.0,1.0,0.0,6.0,6.0,551.0652770008164,3.0,1.0,phase_2,go,400.0,250.0,1.0,,,,,,,,,white,hexagon
0.0,5.0,1.0,1.0,6.0,6.0,589.5186950001516,3.0,1.0,phase_2,go,400.0,250.0,1.0,,,,,,,,,cyan,triangle
0.0,1.0,1.0,0.0,6.0,6.0,366.5791210005409,3.0,1.0,phase_2,go,400.0,250.0,1.0,,,,,,,,,white,hexagon
0.0,2.0,2.0,0.0,6.0,6.0,405.5291120002948,3.0,1.0,phase_2,go,400.0,250.0,1.0,,,,,,,,,yellow,diamond
0.0,1.0,1.0,0.0,6.0,6.0,553.7131750006665,3.0,1.0,phase_2,go,400.0,250.0,1.0,,,,,,,,,white,hexagon
0.0,5.0,1.0,1.0,5.0,5.0,478.1906029993479,3.0,1.0,phase_2,stop,400.0,250.0,3.0,,,,,,,,,cyan,triangle
0.0,6.0,2.0,1.0,5.0,0.0,0.0,3.0,1.0,phase_2,stop,350.0,250.0,4.0,,,,,,,,,blue,cross
0.0,3.0,3.0,0.0,6.0,6.0,509.7971380000672,3.0,1.0,phase_2,go,400.0,250.0,1.0,,,,,,,,,green,square
0.0,5.0,1.0,1.0,6.0,0.0,0.0,3.0,1.0,phase_2,stop,400.0,250.0,4.0,,,,,,,,,cyan,triangle
0.0,2.0,2.0,0.0,6.0,6.0,587.3005790008392,3.0,1.0,phase_2,go,400.0,300.0,1.0,,,,,,,,,yellow,diamond
0.0,4.0,4.0,0.0,5.0,5.0,629.4148169999971,3.0,1.0,phase_2,go,400.0,300.0,1.0,,,,,,,,,gray,flipped triangle
0.0,5.0,1.0,1.0,5.0,5.0,617.9067609991762,3.0,1.0,phase_2,go,400.0,300.0,1.0,,,,,,,,,cyan,triangle
0.0,5.0,1.0,1.0,5.0,0.0,0.0,3.0,1.0,phase_2,stop,400.0,300.0,4.0,,,,,,,,,cyan,triangle
0.0,5.0,1.0,1.0,6.0,0.0,0.0,3.0,1.0,phase_2,stop,450.0,300.0,4.0,,,,,,,,,cyan,triangle
0.0,8.0,4.0,1.0,5.0,5.0,598.486297000818,3.0,1.0,phase_2,go,450.0,350.0,1.0,,,,,,,,,orange,circle
0.0,7.0,3.0,1.0,6.0,0.0,0.0,3.0,1.0,phase_2,stop,450.0,350.0,4.0,,,,,,,,,magenta,I
0.0,4.0,4.0,0.0,5.0,5.0,769.4974539999748,3.0,1.0,phase_2,go,450.0,400.0,1.0,,,,,,,,,gray,flipped triangle
0.0,4.0,4.0,0.0,5.0,5.0,678.122333999454,3.0,1.0,phase_2,go,450.0,400.0,1.0,,,,,,,,,gray,flipped triangle
0.0,3.0,3.0,0.0,5.0,5.0,683.0226890006088,3.0,1.0,phase_2,go,450.0,400.0,1.0,,,,,,,,,green,square
0.0,4.0,4.0,0.0,6.0,6.0,625.8860930001902,3.0,1.0,phase_2,go,450.0,400.0,1.0,,,,,,,,,gray,flipped triangle
0.0,5.0,1.0,1.0,6.0,6.0,449.9245990000418,3.0,1.0,phase_2,stop,450.0,400.0,3.0,,,,,,,,,cyan,triangle
0.0,4.0,4.0,0.0,5.0,5.0,600.3825960005997,3.0,1.0,phase_2,go,450.0,350.0,1.0,,,,,,,,,gray,flipped triangle
0.0,8.0,4.0,1.0,6.0,0.0,0.0,3.0,1.0,phase_2,stop,450.0,350.0,4.0,,,,,,,,,orange,circle
0.0,1.0,1.0,0.0,5.0,5.0,579.874590000145,3.0,1.0,phase_2,go,450.0,400.0,1.0,,,,,,,,,white,hexagon
0.0,6.0,2.0,1.0,6.0,6.0,560.8249200004138,3.0,1.0,phase_2,go,450.0,400.0,1.0,,,,,,,,,blue,cross
0.0,7.0,3.0,1.0,5.0,0.0,0.0,4.0,1.0,phase_2,stop,450.0,400.0,4.0,,,,,,,,,magenta,I
0.0,2.0,2.0,0.0,6.0,6.0,553.2477370006745,4.0,1.0,phase_2,go,500.0,400.0,1.0,,,,,,,,,yellow,diamond
0.0,7.0,3.0,1.0,6.0,0.0,0.0,4.0,1.0,phase_2,stop,500.0,400.0,4.0,,,,,,,,,magenta,I
0.0,5.0,1.0,1.0,5.0,5.0,701.4025190001121,4.0,1.0,phase_2,go,500.0,450.0,1.0,,,,,,,,,cyan,triangle
0.0,4.0,4.0,0.0,6.0,6.0,622.4367670001811,4.0,1.0,phase_2,go,500.0,450.0,1.0,,,,,,,,,gray,flipped triangle
0.0,5.0,1.0,1.0,6.0,0.0,0.0,4.0,1.0,phase_2,stop,500.0,450.0,4.0,,,,,,,,,cyan,triangle
0.0,4.0,4.0,0.0,5.0,5.0,503.31529499999306,4.0,1.0,phase_2,go,500.0,500.0,1.0,,,,,,,,,gray,flipped triangle
0.0,2.0,2.0,0.0,5.0,5.0,634.4782109999869,4.0,1.0,phase_2,go,500.0,500.0,1.0,,,,,,,,,yellow,diamond
0.0,5.0,1.0,1.0,6.0,6.0,626.6348039998775,4.0,1.0,phase_2,stop,500.0,500.0,3.0,,,,,,,,,cyan,triangle
0.0,1.0,1.0,0.0,5.0,5.0,589.1150090001247,4.0,1.0,phase_2,go,500.0,450.0,1.0,,,,,,,,,white,hexagon
0.0,2.0,2.0,0.0,5.0,5.0,491.7264929999874,4.0,1.0,phase_2,go,500.0,450.0,1.0,,,,,,,,,yellow,diamond
0.0,8.0,4.0,1.0,6.0,0.0,0.0,4.0,1.0,phase_2,stop,500.0,450.0,4.0,,,,,,,,,orange,circle
0.0,6.0,2.0,1.0,5.0,5.0,621.7194889995881,4.0,1.0,phase_2,stop,500.0,500.0,3.0,,,,,,,,,blue,cross
0.0,8.0,4.0,1.0,5.0,0.0,0.0,4.0,1.0,phase_2,stop,450.0,500.0,4.0,,,,,,,,,orange,circle
0.0,2.0,2.0,0.0,5.0,5.0,659.7275069998432,4.0,1.0,phase_2,go,500.0,500.0,1.0,,,,,,,,,yellow,diamond
0.0,2.0,2.0,0.0,6.0,6.0,499.0674600003331,4.0,1.0,phase_2,go,500.0,500.0,1.0,,,,,,,,,yellow,diamond
0.0,1.0,1.0,0.0,5.0,5.0,548.2892939999147,4.0,1.0,phase_2,go,500.0,500.0,1.0,,,,,,,,,white,hexagon
0.0,6.0,2.0,1.0,6.0,6.0,281.8761050002649,4.0,1.0,phase_2,stop,500.0,500.0,3.0,,,,,,,,,blue,cross
0.0,3.0,3.0,0.0,5.0,5.0,568.4847410002476,4.0,1.0,phase_2,go,500.0,450.0,1.0,,,,,,,,,green,square
0.0,2.0,2.0,0.0,5.0,5.0,350.605896000161,4.0,1.0,phase_2,go,500.0,450.0,1.0,,,,,,,,,yellow,diamond
0.0,2.0,2.0,0.0,6.0,6.0,511.0017520000838,4.0,1.0,phase_2,go,500.0,450.0,1.0,,,,,,,,,yellow,diamond
0.0,3.0,3.0,0.0,6.0,6.0,609.3303810002908,4.0,1.0,phase_2,go,500.0,450.0,1.0,,,,,,,,,green,square
0.0,2.0,2.0,0.0,6.0,6.0,574.7167760000593,4.0,1.0,phase_2,go,500.0,450.0,1.0,,,,,,,,,yellow,diamond
0.0,3.0,3.0,0.0,6.0,6.0,412.8464770001301,4.0,1.0,phase_2,go,500.0,450.0,1.0,,,,,,,,,green,square
0.0,6.0,2.0,1.0,6.0,0.0,0.0,4.0,1.0,phase_2,stop,500.0,450.0,4.0,,,,,,,,,blue,cross
0.0,7.0,3.0,1.0,6.0,0.0,0.0,4.0,1.0,phase_2,stop,500.0,500.0,4.0,,,,,,,,,magenta,I
0.0,1.0,1.0,0.0,5.0,5.0,458.3938319992739,4.0,1.0,phase_2,go,500.0,550.0,1.0,,,,,,,,,white,hexagon
0.0,7.0,3.0,1.0,5.0,0.0,0.0,4.0,1.0,phase_2,stop,500.0,550.0,4.0,,,,,,,,,magenta,I
0.0,5.0,1.0,1.0,5.0,0.0,0.0,4.0,1.0,phase_2,stop,550.0,550.0,4.0,,,,,,,,,cyan,triangle
0.0,4.0,4.0,0.0,6.0,6.0,583.7621689997832,4.0,1.0,phase_2,go,600.0,550.0,1.0,,,,,,,,,gray,flipped triangle
0.0,1.0,1.0,0.0,5.0,5.0,543.5964419993979,4.0,1.0,phase_2,go,600.0,550.0,1.0,,,,,,,,,white,hexagon
0.0,2.0,2.0,0.0,5.0,5.0,425.4559830005746,4.0,1.0,phase_2,go,600.0,550.0,1.0,,,,,,,,,yellow,diamond
0.0,6.0,2.0,1.0,6.0,6.0,331.1040709995723,4.0,1.0,phase_2,go,600.0,550.0,1.0,,,,,,,,,blue,cross
0.0,2.0,2.0,0.0,6.0,6.0,438.1862009995529,4.0,1.0,phase_2,go,600.0,550.0,1.0,,,,,,,,,yellow,diamond
0.0,3.0,3.0,0.0,5.0,5.0,324.5010829996317,4.0,1.0,phase_2,go,600.0,550.0,1.0,,,,,,,,,green,square
0.0,7.0,3.0,1.0,5.0,5.0,443.2272029998785,4.0,1.0,phase_2,stop,600.0,550.0,3.0,,,,,,,,,magenta,I
0.0,3.0,3.0,0.0,5.0,5.0,656.5900549994694,5.0,1.0,phase_2,go,550.0,550.0,1.0,,,,,,,,,green,square
0.0,3.0,3.0,0.0,6.0,6.0,488.2272129998455,5.0,1.0,phase_2,go,550.0,550.0,1.0,,,,,,,,,green,square
0.0,8.0,4.0,1.0,5.0,5.0,372.3709349997079,5.0,1.0,phase_2,stop,550.0,550.0,3.0,,,,,,,,,orange,circle
0.0,6.0,2.0,1.0,5.0,5.0,725.5115019997902,5.0,1.0,phase_2,go,500.0,550.0,1.0,,,,,,,,,blue,cross
0.0,5.0,1.0,1.0,6.0,6.0,676.5827009994609,5.0,1.0,phase_2,go,500.0,550.0,1.0,,,,,,,,,cyan,triangle
0.0,3.0,3.0,0.0,6.0,6.0,398.5618030001205,5.0,1.0,phase_2,go,500.0,550.0,1.0,,,,,,,,,green,square
0.0,7.0,3.0,1.0,6.0,6.0,392.8840259995922,5.0,1.0,phase_2,stop,500.0,550.0,3.0,,,,,,,,,magenta,I
0.0,8.0,4.0,1.0,5.0,5.0,577.1397720000095,5.0,1.0,phase_2,stop,500.0,500.0,3.0,,,,,,,,,orange,circle
0.0,6.0,2.0,1.0,6.0,6.0,568.8807169999563,5.0,1.0,phase_2,stop,450.0,500.0,3.0,,,,,,,,,blue,cross
0.0,6.0,2.0,1.0,5.0,5.0,512.746327000059,5.0,1.0,phase_2,go,450.0,450.0,1.0,,,,,,,,,blue,cross
0.0,5.0,1.0,1.0,5.0,5.0,384.1750869996758,5.0,1.0,phase_2,stop,450.0,450.0,3.0,,,,,,,,,cyan,triangle
0.0,4.0,4.0,0.0,5.0,5.0,486.7538139997123,5.0,1.0,phase_2,go,400.0,450.0,1.0,,,,,,,,,gray,flipped triangle
0.0,3.0,3.0,0.0,6.0,6.0,331.5801789995021,5.0,1.0,phase_2,go,400.0,450.0,1.0,,,,,,,,,green,square
0.0,8.0,4.0,1.0,5.0,5.0,318.4900750002271,5.0,1.0,phase_2,go,400.0,450.0,1.0,,,,,,,,,orange,circle
0.0,8.0,4.0,1.0,5.0,5.0,340.8405270001822,5.0,1.0,phase_2,stop,400.0,450.0,3.0,,,,,,,,,orange,circle
0.0,2.0,2.0,0.0,6.0,6.0,320.7070230000681,5.0,1.0,phase_2,go,350.0,450.0,1.0,,,,,,,,,yellow,diamond
0.0,1.0,1.0,0.0,6.0,6.0,425.7030899998426,5.0,1.0,phase_2,go,350.0,450.0,1.0,,,,,,,,,white,hexagon
0.0,3.0,3.0,0.0,5.0,5.0,282.9748100002689,5.0,1.0,phase_2,go,350.0,450.0,1.0,,,,,,,,,green,square
0.0,5.0,1.0,1.0,6.0,6.0,274.3513400000665,5.0,1.0,phase_2,stop,350.0,450.0,3.0,,,,,,,,,cyan,triangle
0.0,1.0,1.0,0.0,5.0,5.0,581.6274569997404,5.0,1.0,phase_2,go,350.0,400.0,1.0,,,,,,,,,white,hexagon
0.0,2.0,2.0,0.0,5.0,5.0,381.2273419998746,5.0,1.0,phase_2,go,350.0,400.0,1.0,,,,,,,,,yellow,diamond
0.0,2.0,2.0,0.0,5.0,5.0,317.0174300003054,5.0,1.0,phase_2,go,350.0,400.0,1.0,,,,,,,,,yellow,diamond
0.0,3.0,3.0,0.0,6.0,6.0,399.579265000284,5.0,1.0,phase_2,go,350.0,400.0,1.0,,,,,,,,,green,square
0.0,4.0,4.0,0.0,6.0,6.0,513.7965430003533,5.0,1.0,phase_2,go,350.0,400.0,1.0,,,,,,,,,gray,flipped triangle
0.0,4.0,4.0,0.0,5.0,5.0,302.8712759996779,5.0,1.0,phase_2,go,350.0,400.0,1.0,,,,,,,,,gray,flipped triangle
0.0,8.0,4.0,1.0,5.0,5.0,389.8370800006887,5.0,1.0,phase_2,stop,350.0,400.0,3.0,,,,,,,,,orange,circle
0.0,8.0,4.0,1.0,6.0,0.0,0.0,5.0,1.0,phase_2,stop,300.0,400.0,4.0,,,,,,,,,orange,circle
0.0,6.0,2.0,1.0,5.0,0.0,0.0,5.0,1.0,phase_2,stop,300.0,450.0,4.0,,,,,,,,,blue,cross
0.0,4.0,4.0,0.0,5.0,5.0,565.6237399998645,5.0,1.0,phase_2,go,350.0,450.0,1.0,,,,,,,,,gray,flipped triangle
0.0,4.0,4.0,0.0,6.0,6.0,549.0992120003284,5.0,1.0,phase_2,go,350.0,450.0,1.0,,,,,,,,,gray,flipped triangle
0.0,6.0,2.0,1.0,5.0,5.0,595.6952830001683,5.0,1.0,phase_2,go,350.0,450.0,1.0,,,,,,,,,blue,cross
0.0,7.0,3.0,1.0,5.0,0.0,0.0,5.0,1.0,phase_2,stop,350.0,450.0,4.0,,,,,,,,,magenta,I
0.0,2.0,2.0,0.0,6.0,6.0,555.0204070004838,5.0,1.0,phase_2,go,400.0,450.0,1.0,,,,,,,,,yellow,diamond
0.0,1.0,1.0,0.0,6.0,6.0,582.7892030001749,5.0,1.0,phase_2,go,400.0,450.0,1.0,,,,,,,,,white,hexagon
0.0,7.0,3.0,1.0,6.0,6.0,581.5292030001729,5.0,1.0,phase_2,go,400.0,450.0,1.0,,,,,,,,,magenta,I
0.0,7.0,3.0,1.0,6.0,6.0,353.5914069998398,5.0,1.0,phase_2,stop,400.0,450.0,3.0,,,,,,,,,magenta,I
0.0,4.0,4.0,0.0,6.0,6.0,699.9326539998947,6.0,1.0,phase_2,go,400.0,400.0,1.0,,,,,,,,,gray,flipped triangle
0.0,7.0,3.0,1.0,5.0,5.0,398.0817169995134,6.0,1.0,phase_2,stop,400.0,400.0,3.0,,,,,,,,,magenta,I
0.0,5.0,1.0,1.0,5.0,0.0,0.0,6.0,1.0,phase_2,stop,350.0,400.0,4.0,,,,,,,,,cyan,triangle
0.0,4.0,4.0,0.0,6.0,6.0,404.7410230004971,6.0,1.0,phase_2,go,400.0,400.0,1.0,,,,,,,,,gray,flipped triangle
0.0,6.0,2.0,1.0,5.0,5.0,481.8243280005845,6.0,1.0,phase_2,go,400.0,400.0,1.0,,,,,,,,,blue,cross
0.0,6.0,2.0,1.0,6.0,6.0,361.0501140001361,6.0,1.0,phase_2,stop,400.0,400.0,3.0,,,,,,,,,blue,cross
0.0,6.0,2.0,1.0,5.0,0.0,0.0,6.0,1.0,phase_2,stop,400.0,350.0,4.0,,,,,,,,,blue,cross
0.0,8.0,4.0,1.0,5.0,5.0,553.8359319998563,6.0,1.0,phase_2,go,450.0,350.0,1.0,,,,,,,,,orange,circle
0.0,3.0,3.0,0.0,6.0,6.0,510.4801759998736,6.0,1.0,phase_2,go,450.0,350.0,1.0,,,,,,,,,green,square
0.0,7.0,3.0,1.0,5.0,5.0,269.1745069996614,6.0,1.0,phase_2,go,450.0,350.0,1.0,,,,,,,,,magenta,I
0.0,7.0,3.0,1.0,6.0,0.0,0.0,6.0,1.0,phase_2,stop,450.0,350.0,4.0,,,,,,,,,magenta,I
0.0,3.0,3.0,0.0,6.0,6.0,427.1996469997248,6.0,1.0,phase_2,go,450.0,400.0,1.0,,,,,,,,,green,square
0.0,4.0,4.0,0.0,5.0,5.0,549.5052960004614,6.0,1.0,phase_2,go,450.0,400.0,1.0,,,,,,,,,gray,flipped triangle
0.0,1.0,1.0,0.0,6.0,6.0,579.4189330008521,6.0,1.0,phase_2,go,450.0,400.0,1.0,,,,,,,,,white,hexagon
0.0,3.0,3.0,0.0,6.0,6.0,560.291552000308,6.0,1.0,phase_2,go,450.0,400.0,1.0,,,,,,,,,green,square
0.0,7.0,3.0,1.0,5.0,5.0,268.1648469997526,6.0,1.0,phase_2,stop,450.0,400.0,3.0,,,,,,,,,magenta,I
0.0,8.0,4.0,1.0,6.0,6.0,482.5800210001034,6.0,1.0,phase_2,stop,400.0,400.0,3.0,,,,,,,,,orange,circle
0.0,5.0,1.0,1.0,6.0,6.0,561.3215120001769,6.0,1.0,phase_2,go,400.0,350.0,1.0,,,,,,,,,cyan,triangle
0.0,8.0,4.0,1.0,6.0,6.0,459.0249869997933,6.0,1.0,phase_2,stop,400.0,350.0,3.0,,,,,,,,,orange,circle
0.0,5.0,1.0,1.0,5.0,0.0,0.0,6.0,1.0,phase_2,stop,400.0,300.0,4.0,,,,,,,,,cyan,triangle
0.0,5.0,1.0,1.0,5.0,5.0,567.8672519998145,6.0,1.0,phase_2,stop,450.0,300.0,3.0,,,,,,,,,cyan,triangle
0.0,3.0,3.0,0.0,5.0,5.0,584.2879150004592,6.0,1.0,phase_2,go,400.0,300.0,1.0,,,,,,,,,green,square
0.0,6.0,2.0,1.0,6.0,0.0,0.0,6.0,1.0,phase_2,stop,400.0,300.0,4.0,,,,,,,,,blue,cross
0.0,4.0,4.0,0.0,6.0,6.0,718.1289480004125,6.0,1.0,phase_2,go,400.0,350.0,1.0,,,,,,,,,gray,flipped triangle
0.0,3.0,3.0,0.0,6.0,6.0,584.007247000045,6.0,1.0,phase_2,go,400.0,350.0,1.0,,,,,,,,,green,square
0.0,3.0,3.0,0.0,6.0,6.0,577.1423849992061,6.0,1.0,phase_2,go,400.0,350.0,1.0,,,,,,,,,green,square
0.0,8.0,4.0,1.0,6.0,6.0,418.0944729996554,6.0,1.0,phase_2,stop,400.0,350.0,3.0,,,,,,,,,orange,circle
0.0,2.0,2.0,0.0,6.0,6.0,582.0395809996626,6.0,1.0,phase_2,go,400.0,300.0,1.0,,,,,,,,,yellow,diamond
0.0,1.0,1.0,0.0,6.0,6.0,581.7216570003438,6.0,1.0,phase_2,go,400.0,300.0,1.0,,,,,,,,,white,hexagon
0.0,4.0,4.0,0.0,5.0,5.0,424.5990760000495,6.0,1.0,phase_2,go,400.0,300.0,1.0,,,,,,,,,gray,flipped triangle
0.0,7.0,3.0,1.0,6.0,0.0,0.0,6.0,1.0,phase_2,stop,400.0,300.0,4.0,,,,,,,,,magenta,I
0.0,3.0,3.0,0.0,5.0,5.0,591.2845430002562,6.0,1.0,phase_2,go,400.0,350.0,1.0,,,,,,,,,green,square
0.0,3.0,3.0,0.0,6.0,6.0,566.35398599974,6.0,1.0,phase_2,go,400.0,350.0,1.0,,,,,,,,,green,square
0.0,7.0,3.0,1.0,6.0,6.0,572.5513190000129,6.0,1.0,phase_2,go,400.0,350.0,1.0,,,,,,,,,magenta,I
0.0,3.0,3.0,0.0,5.0,5.0,547.9638209999393,6.0,1.0,phase_2,go,400.0,350.0,1.0,,,,,,,,,green,square
0.0,4.0,4.0,0.0,6.0,6.0,518.7428110002656,6.0,1.0,phase_2,go,400.0,350.0,1.0,,,,,,,,,gray,flipped triangle
0.0,7.0,3.0,1.0,6.0,0.0,0.0,7.0,1.0,phase_2,stop,400.0,350.0,4.0,,,,,,,,,magenta,I
0.0,4.0,4.0,0.0,5.0,5.0,578.9104670002416,7.0,1.0,phase_2,go,400.0,400.0,1.0,,,,,,,,,gray,flipped triangle
0.0,6.0,2.0,1.0,6.0,0.0,0.0,7.0,1.0,phase_2,stop,400.0,400.0,4.0,,,,,,,,,blue,cross
0.0,2.0,2.0,0.0,5.0,5.0,512.0118590002676,7.0,1.0,phase_2,go,400.0,450.0,1.0,,,,,,,,,yellow,diamond
0.0,7.0,3.0,1.0,5.0,5.0,681.84021199977,7.0,1.0,phase_2,go,400.0,450.0,1.0,,,,,,,,,magenta,I
0.0,8.0,4.0,1.0,5.0,5.0,591.6524129997924,7.0,1.0,phase_2,go,400.0,450.0,1.0,,,,,,,,,orange,circle
0.0,3.0,3.0,0.0,6.0,6.0,704.5903560001534,7.0,1.0,phase_2,go,400.0,450.0,1.0,,,,,,,,,green,square
0.0,6.0,2.0,1.0,5.0,0.0,0.0,7.0,1.0,phase_2,stop,400.0,450.0,4.0,,,,,,,,,blue,cross
0.0,5.0,1.0,1.0,5.0,0.0,0.0,7.0,1.0,phase_2,stop,450.0,450.0,4.0,,,,,,,,,cyan,triangle
0.0,1.0,1.0,0.0,5.0,5.0,593.0411139997886,7.0,1.0,phase_2,go,500.0,450.0,1.0,,,,,,,,,white,hexagon
0.0,5.0,1.0,1.0,6.0,6.0,614.9121190001097,7.0,1.0,phase_2,stop,500.0,450.0,3.0,,,,,,,,,cyan,triangle
0.0,5.0,1.0,1.0,6.0,6.0,639.1040689995862,7.0,1.0,phase_2,go,500.0,400.0,1.0,,,,,,,,,cyan,triangle
0.0,3.0,3.0,0.0,5.0,5.0,327.3339079996731,7.0,1.0,phase_2,go,500.0,400.0,1.0,,,,,,,,,green,square
0.0,7.0,3.0,1.0,5.0,5.0,326.9046699997489,7.0,1.0,phase_2,stop,500.0,400.0,3.0,,,,,,,,,magenta,I
0.0,8.0,4.0,1.0,5.0,5.0,532.64199700061,7.0,1.0,phase_2,stop,450.0,400.0,3.0,,,,,,,,,orange,circle
0.0,8.0,4.0,1.0,6.0,6.0,273.5831109994251,7.0,1.0,phase_2,stop,400.0,400.0,3.0,,,,,,,,,orange,circle
0.0,1.0,1.0,0.0,5.0,5.0,524.0707659995678,7.0,1.0,phase_2,go,400.0,350.0,1.0,,,,,,,,,white,hexagon
0.0,6.0,2.0,1.0,6.0,0.0,0.0,7.0,1.0,phase_2,stop,400.0,350.0,4.0,,,,,,,,,blue,cross
0.0,1.0,1.0,0.0,6.0,6.0,581.8046550002691,7.0,1.0,phase_2,go,400.0,400.0,1.0,,,,,,,,,white,hexagon
0.0,2.0,2.0,0.0,6.0,6.0,351.7691789993478,7.0,1.0,phase_2,go,400.0,400.0,1.0,,,,,,,,,yellow,diamond
0.0,3.0,3.0,0.0,6.0,6.0,608.7932390000788,7.0,1.0,phase_2,go,400.0,400.0,1.0,,,,,,,,,green,square
0.0,2.0,2.0,0.0,5.0,5.0,346.3169709993963,7.0,1.0,phase_2,go,400.0,400.0,1.0,,,,,,,,,yellow,diamond
0.0,4.0,4.0,0.0,6.0,6.0,370.2676879993305,7.0,1.0,phase_2,go,400.0,400.0,1.0,,,,,,,,,gray,flipped triangle
0.0,4.0,4.0,0.0,6.0,6.0,428.7903180002104,7.0,1.0,phase_2,go,400.0,400.0,1.0,,,,,,,,,gray,flipped triangle
0.0,8.0,4.0,1.0,6.0,6.0,308.9611049999803,7.0,1.0,phase_2,stop,400.0,400.0,3.0,,,,,,,,,orange,circle
0.0,6.0,2.0,1.0,5.0,5.0,383.7097469995569,7.0,1.0,phase_2,stop,400.0,350.0,3.0,,,,,,,,,blue,cross
0.0,8.0,4.0,1.0,6.0,0.0,0.0,7.0,1.0,phase_2,stop,350.0,350.0,4.0,,,,,,,,,orange,circle
0.0,1.0,1.0,0.0,6.0,6.0,568.6172720006653,7.0,1.0,phase_2,go,350.0,400.0,1.0,,,,,,,,,white,hexagon
0.0,7.0,3.0,1.0,5.0,0.0,0.0,7.0,1.0,phase_2,stop,350.0,400.0,4.0,,,,,,,,,magenta,I
0.0,3.0,3.0,0.0,5.0,5.0,560.2372710000054,7.0,1.0,phase_2,go,400.0,400.0,1.0,,,,,,,,,green,square
0.0,7.0,3.0,1.0,5.0,5.0,310.2920869996524,7.0,1.0,phase_2,stop,400.0,400.0,3.0,,,,,,,,,magenta,I
0.0,1.0,1.0,0.0,5.0,5.0,527.1636559991748,7.0,1.0,phase_2,go,350.0,400.0,1.0,,,,,,,,,white,hexagon
0.0,7.0,3.0,1.0,5.0,5.0,385.1977599997553,7.0,1.0,phase_2,go,350.0,400.0,1.0,,,,,,,,,magenta,I
0.0,8.0,4.0,1.0,6.0,6.0,350.4691039997851,7.0,1.0,phase_2,go,350.0,400.0,1.0,,,,,,,,,orange,circle
0.0,8.0,4.0,1.0,6.0,6.0,346.0082000001421,7.0,1.0,phase_2,stop,350.0,400.0,3.0,,,,,,,,,orange,circle
0.0,8.0,4.0,1.0,5.0,5.0,426.6653060003591,7.0,1.0,phase_2,stop,350.0,350.0,3.0,,,,,,,,,orange,circle
0.0,3.0,3.0,0.0,5.0,5.0,580.2793899993048,8.0,1.0,phase_2,go,300.0,350.0,1.0,,,,,,,,,green,square
0.0,8.0,4.0,1.0,5.0,5.0,331.6487219999544,8.0,1.0,phase_2,go,300.0,350.0,1.0,,,,,,,,,orange,circle
0.0,3.0,3.0,0.0,5.0,5.0,193.8865470001474,8.0,1.0,phase_2,go,300.0,350.0,1.0,,,,,,,,,green,square
0.0,6.0,2.0,1.0,6.0,6.0,388.8178930001231,8.0,1.0,phase_2,stop,300.0,350.0,3.0,,,,,,,,,blue,cross
0.0,4.0,4.0,0.0,5.0,5.0,479.7205119994032,8.0,1.0,phase_2,go,300.0,300.0,1.0,,,,,,,,,gray,flipped triangle
0.0,8.0,4.0,1.0,5.0,5.0,345.670178000546,8.0,1.0,phase_2,stop,300.0,300.0,3.0,,,,,,,,,orange,circle
0.0,8.0,4.0,1.0,5.0,5.0,332.0608920002996,8.0,1.0,phase_2,go,250.0,300.0,1.0,,,,,,,,,orange,circle
0.0,3.0,3.0,0.0,6.0,6.0,405.0959020005393,8.0,1.0,phase_2,go,250.0,300.0,1.0,,,,,,,,,green,square
0.0,3.0,3.0,0.0,5.0,5.0,346.3050189993737,8.0,1.0,phase_2,go,250.0,300.0,1.0,,,,,,,,,green,square
0.0,1.0,1.0,0.0,5.0,5.0,336.4360969999325,8.0,1.0,phase_2,go,250.0,300.0,1.0,,,,,,,,,white,hexagon
0.0,7.0,3.0,1.0,5.0,0.0,0.0,8.0,1.0,phase_2,stop,250.0,300.0,4.0,,,,,,,,,magenta,I
0.0,7.0,3.0,1.0,5.0,0.0,0.0,8.0,1.0,phase_2,stop,300.0,300.0,4.0,,,,,,,,,magenta,I
0.0,6.0,2.0,1.0,6.0,0.0,0.0,8.0,1.0,phase_2,stop,350.0,300.0,4.0,,,,,,,,,blue,cross
0.0,3.0,3.0,0.0,5.0,5.0,369.1758139993908,8.0,1.0,phase_2,go,350.0,350.0,1.0,,,,,,,,,green,square
0.0,4.0,4.0,0.0,6.0,6.0,553.9423380005246,8.0,1.0,phase_2,go,350.0,350.0,1.0,,,,,,,,,gray,flipped triangle
0.0,2.0,2.0,0.0,5.0,5.0,477.662741000131,8.0,1.0,phase_2,go,350.0,350.0,1.0,,,,,,,,,yellow,diamond
0.0,6.0,2.0,1.0,5.0,0.0,0.0,8.0,1.0,phase_2,stop,350.0,350.0,4.0,,,,,,,,,blue,cross
0.0,1.0,1.0,0.0,5.0,5.0,516.0951389998445,8.0,1.0,phase_2,go,400.0,350.0,1.0,,,,,,,,,white,hexagon
0.0,1.0,1.0,0.0,6.0,6.0,587.5391689996832,8.0,1.0,phase_2,go,400.0,350.0,1.0,,,,,,,,,white,hexagon
0.0,4.0,4.0,0.0,5.0,5.0,514.9987049999254,8.0,1.0,phase_2,go,400.0,350.0,1.0,,,,,,,,,gray,flipped triangle
0.0,5.0,1.0,1.0,6.0,6.0,626.7958529997486,8.0,1.0,phase_2,go,400.0,350.0,1.0,,,,,,,,,cyan,triangle
0.0,8.0,4.0,1.0,5.0,5.0,528.7550370003373,8.0,1.0,phase_2,stop,400.0,350.0,3.0,,,,,,,,,orange,circle
0.0,5.0,1.0,1.0,5.0,5.0,329.8306790002243,8.0,1.0,phase_2,stop,350.0,350.0,3.0,,,,,,,,,cyan,triangle
0.0,6.0,2.0,1.0,6.0,6.0,515.2221389998886,8.0,1.0,phase_2,go,300.0,350.0,1.0,,,,,,,,,blue,cross
0.0,3.0,3.0,0.0,5.0,5.0,428.7999349999154,8.0,1.0,phase_2,go,300.0,350.0,1.0,,,,,,,,,green,square
0.0,8.0,4.0,1.0,6.0,0.0,0.0,8.0,1.0,phase_2,stop,300.0,350.0,4.0,,,,,,,,,orange,circle
0.0,5.0,1.0,1.0,6.0,6.0,454.787884000325,8.0,1.0,phase_2,go,300.0,400.0,1.0,,,,,,,,,cyan,triangle
0.0,5.0,1.0,1.0,6.0,6.0,351.0263719999784,8.0,1.0,phase_2,stop,300.0,400.0,3.0,,,,,,,,,cyan,triangle
0.0,6.0,2.0,1.0,5.0,5.0,361.0043509997922,8.0,1.0,phase_2,stop,300.0,350.0,3.0,,,,,,,,,blue,cross
0.0,1.0,1.0,0.0,5.0,5.0,517.4955430002228,8.0,1.0,phase_2,go,250.0,350.0,1.0,,,,,,,,,white,hexagon
0.0,6.0,2.0,1.0,6.0,6.0,541.3136199995279,8.0,1.0,phase_2,stop,250.0,350.0,3.0,,,,,,,,,blue,cross
0.0,2.0,2.0,0.0,6.0,6.0,339.1128089997437,8.0,1.0,phase_2,go,250.0,300.0,1.0,,,,,,,,,yellow,diamond
0.0,5.0,1.0,1.0,6.0,0.0,0.0,8.0,1.0,phase_2,stop,250.0,300.0,4.0,,,,,,,,,cyan,triangle
0.0,1.0,1.0,0.0,5.0,5.0,529.5919520003736,8.0,1.0,phase_2,go,250.0,350.0,1.0,,,,,,,,,white,hexagon
0.0,2.0,2.0,0.0,6.0,6.0,583.7274730001809,8.0,1.0,phase_2,go,250.0,350.0,1.0,,,,,,,,,yellow,diamond
0.0,2.0,2.0,0.0,5.0,5.0,329.3971399998554,8.0,1.0,phase_2,go,250.0,350.0,1.0,,,,,,,,,yellow,diamond
0.0,2.0,2.0,0.0,7.0,5.0,2958.0071930004124,1.0,1.0,phase_3,,,,,204.0,6.0,102.0,34.0,68.0,170.0,204.0,136.0,yellow,diamond
0.0,7.0,3.0,1.0,7.0,1.0,2891.8364629998905,1.0,1.0,phase_3,,,,,245.0,5.0,245.0,147.0,294.0,49.0,196.0,98.0,magenta,I
0.0,4.0,4.0,0.0,7.0,6.0,2921.1253450002914,1.0,1.0,phase_3,,,,,196.0,4.0,98.0,245.0,294.0,147.0,49.0,196.0,gray,flipped triangle
0.0,1.0,1.0,0.0,7.0,2.0,3266.0082699994746,1.0,1.0,phase_3,,,,,170.0,5.0,136.0,170.0,68.0,34.0,102.0,204.0,white,hexagon
0.0,5.0,1.0,1.0,7.0,2.0,3113.6966859994573,1.0,1.0,phase_3,,,,,216.0,4.0,270.0,216.0,54.0,324.0,162.0,108.0,cyan,triangle
0.0,3.0,3.0,0.0,7.0,3.0,3508.299555000121,1.0,1.0,phase_3,,,,,54.0,1.0,270.0,108.0,54.0,162.0,216.0,324.0,green,square
0.0,5.0,1.0,1.0,7.0,3.0,3486.2740480002685,1.0,1.0,phase_3,,,,,270.0,5.0,324.0,216.0,270.0,162.0,108.0,54.0,cyan,triangle
0.0,8.0,4.0,1.0,7.0,4.0,2959.6978069994293,1.0,1.0,phase_3,,,,,176.0,4.0,44.0,220.0,132.0,176.0,88.0,264.0,orange,circle
0.0,2.0,2.0,0.0,7.0,4.0,2634.2152269999133,1.0,1.0,phase_3,,,,,78.0,2.0,117.0,195.0,156.0,78.0,234.0,39.0,yellow,diamond
0.0,8.0,4.0,1.0,7.0,2.0,1836.6610279999804,1.0,1.0,phase_3,,,,,294.0,6.0,147.0,294.0,196.0,98.0,245.0,49.0,orange,circle
0.0,1.0,1.0,0.0,7.0,1.0,3616.203634999693,1.0,1.0,phase_3,,,,,98.0,2.0,98.0,245.0,147.0,294.0,49.0,196.0,white,hexagon
0.0,2.0,2.0,0.0,7.0,5.0,3368.0584189996807,1.0,1.0,phase_3,,,,,176.0,4.0,44.0,264.0,220.0,88.0,176.0,132.0,yellow,diamond
0.0,2.0,2.0,0.0,7.0,6.0,1184.1797030001544,1.0,1.0,phase_3,,,,,102.0,3.0,34.0,204.0,170.0,136.0,68.0,102.0,yellow,diamond
0.0,6.0,2.0,1.0,7.0,5.0,1273.1107440004052,1.0,1.0,phase_3,,,,,216.0,4.0,324.0,270.0,162.0,108.0,216.0,54.0,blue,cross
0.0,8.0,4.0,1.0,7.0,3.0,1204.4755490005628,1.0,1.0,phase_3,,,,,195.0,5.0,117.0,39.0,195.0,234.0,156.0,78.0,orange,circle
0.0,4.0,4.0,0.0,7.0,3.0,2545.0495659997614,1.0,1.0,phase_3,,,,,324.0,6.0,54.0,216.0,324.0,270.0,162.0,108.0,gray,flipped triangle
0.0,5.0,1.0,1.0,7.0,6.0,984.7666539999408,1.0,1.0,phase_3,,,,,49.0,1.0,245.0,294.0,196.0,147.0,98.0,49.0,cyan,triangle
0.0,7.0,3.0,1.0,7.0,5.0,1224.7410760001003,1.0,1.0,phase_3,,,,,78.0,2.0,39.0,117.0,156.0,195.0,78.0,234.0,magenta,I
0.0,2.0,2.0,0.0,7.0,3.0,1770.2481369997258,1.0,1.0,phase_3,,,,,264.0,6.0,88.0,44.0,264.0,220.0,132.0,176.0,yellow,diamond
0.0,1.0,1.0,0.0,7.0,2.0,1584.5491039999615,1.0,1.0,phase_3,,,,,162.0,3.0,54.0,162.0,108.0,270.0,216.0,324.0,white,hexagon
0.0,7.0,3.0,1.0,7.0,5.0,967.1044699998674,2.0,1.0,phase_3,,,,,68.0,2.0,136.0,102.0,170.0,34.0,68.0,204.0,magenta,I
0.0,4.0,4.0,0.0,7.0,2.0,589.9767680002697,2.0,1.0,phase_3,,,,,176.0,4.0,88.0,176.0,44.0,132.0,220.0,264.0,gray,flipped triangle
0.0,1.0,1.0,0.0,7.0,4.0,940.7175980004469,2.0,1.0,phase_3,,,,,136.0,4.0,170.0,34.0,102.0,136.0,68.0,204.0,white,hexagon
0.0,8.0,4.0,1.0,7.0,2.0,941.899624999678,2.0,1.0,phase_3,,,,,204.0,6.0,170.0,204.0,34.0,136.0,102.0,68.0,orange,circle
0.0,7.0,3.0,1.0,7.0,6.0,553.6781540004085,2.0,1.0,phase_3,,,,,220.0,5.0,88.0,132.0,176.0,264.0,44.0,220.0,magenta,I
0.0,3.0,3.0,0.0,7.0,4.0,866.6628729997683,2.0,1.0,phase_3,,,,,39.0,1.0,78.0,234.0,117.0,39.0,195.0,156.0,green,square
0.0,8.0,4.0,1.0,7.0,2.0,944.0014199999496,2.0,1.0,phase_3,,,,,78.0,2.0,234.0,78.0,39.0,195.0,117.0,156.0,orange,circle
0.0,4.0,4.0,0.0,7.0,4.0,1191.0922500001109,2.0,1.0,phase_3,,,,,78.0,2.0,195.0,117.0,156.0,78.0,39.0,234.0,gray,flipped triangle
0.0,5.0,1.0,1.0,7.0,6.0,1004.0678189998289,2.0,1.0,phase_3,,,,,88.0,2.0,176.0,132.0,44.0,220.0,264.0,88.0,cyan,triangle
0.0,1.0,1.0,0.0,7.0,5.0,1052.9215769993243,2.0,1.0,phase_3,,,,,176.0,4.0,132.0,264.0,220.0,44.0,176.0,88.0,white,hexagon
0.0,7.0,3.0,1.0,7.0,2.0,777.5676549999844,2.0,1.0,phase_3,,,,,220.0,5.0,44.0,220.0,176.0,264.0,132.0,88.0,magenta,I
0.0,5.0,1.0,1.0,7.0,3.0,968.1311799995456,2.0,1.0,phase_3,,,,,156.0,4.0,39.0,78.0,156.0,117.0,234.0,195.0,cyan,triangle
0.0,3.0,3.0,0.0,7.0,3.0,734.0524310002365,2.0,1.0,phase_3,,,,,78.0,2.0,39.0,156.0,78.0,117.0,195.0,234.0,green,square
0.0,2.0,2.0,0.0,7.0,4.0,599.9443910004629,2.0,1.0,phase_3,,,,,245.0,5.0,49.0,147.0,98.0,245.0,196.0,294.0,yellow,diamond
0.0,4.0,4.0,0.0,7.0,5.0,530.315218999931,2.0,1.0,phase_3,,,,,147.0,3.0,294.0,98.0,245.0,49.0,147.0,196.0,gray,flipped triangle
0.0,6.0,2.0,1.0,7.0,2.0,806.384433999483,2.0,1.0,phase_3,,,,,220.0,5.0,132.0,220.0,88.0,176.0,264.0,44.0,blue,cross
0.0,2.0,2.0,0.0,7.0,2.0,610.1695509996716,2.0,1.0,phase_3,,,,,54.0,1.0,324.0,54.0,108.0,162.0,216.0,270.0,yellow,diamond
0.0,5.0,1.0,1.0,7.0,4.0,630.74897199931,2.0,1.0,phase_3,,,,,234.0,6.0,78.0,117.0,39.0,234.0,195.0,156.0,cyan,triangle
0.0,1.0,1.0,0.0,7.0,5.0,447.8081470006145,2.0,1.0,phase_3,,,,,108.0,2.0,324.0,270.0,216.0,54.0,108.0,162.0,white,hexagon
0.0,6.0,2.0,1.0,7.0,5.0,389.0446539999175,2.0,1.0,phase_3,,,,,216.0,4.0,54.0,324.0,162.0,108.0,216.0,270.0,blue,cross
0.0,6.0,2.0,1.0,7.0,2.0,422.8649999995468,3.0,1.0,phase_3,,,,,220.0,5.0,264.0,220.0,44.0,88.0,132.0,176.0,blue,cross
0.0,7.0,3.0,1.0,7.0,3.0,452.2149089998493,3.0,1.0,phase_3,,,,,216.0,4.0,54.0,324.0,216.0,270.0,162.0,108.0,magenta,I
0.0,7.0,3.0,1.0,7.0,5.0,418.2017930006623,3.0,1.0,phase_3,,,,,170.0,5.0,102.0,34.0,136.0,204.0,170.0,68.0,magenta,I
0.0,7.0,3.0,1.0,7.0,2.0,645.1315290005368,3.0,1.0,phase_3,,,,,294.0,6.0,245.0,294.0,98.0,49.0,147.0,196.0,magenta,I
0.0,3.0,3.0,0.0,7.0,2.0,492.154876999848,3.0,1.0,phase_3,,,,,264.0,6.0,176.0,264.0,88.0,132.0,220.0,44.0,green,square
0.0,6.0,2.0,1.0,7.0,3.0,446.6044239998155,3.0,1.0,phase_3,,,,,102.0,3.0,34.0,136.0,102.0,204.0,170.0,68.0,blue,cross
0.0,4.0,4.0,0.0,7.0,6.0,449.1256889996293,3.0,1.0,phase_3,,,,,34.0,1.0,68.0,204.0,102.0,170.0,136.0,34.0,gray,flipped triangle
0.0,8.0,4.0,1.0,7.0,5.0,408.1707929999538,3.0,1.0,phase_3,,,,,98.0,2.0,245.0,49.0,196.0,294.0,98.0,147.0,orange,circle
0.0,4.0,4.0,0.0,7.0,1.0,463.9354420005475,3.0,1.0,phase_3,,,,,34.0,1.0,34.0,204.0,136.0,68.0,102.0,170.0,gray,flipped triangle
0.0,4.0,4.0,0.0,7.0,6.0,302.6446059993759,3.0,1.0,phase_3,,,,,220.0,5.0,264.0,176.0,44.0,132.0,88.0,220.0,gray,flipped triangle
0.0,8.0,4.0,1.0,7.0,6.0,369.0551330000744,3.0,1.0,phase_3,,,,,34.0,1.0,170.0,68.0,204.0,102.0,136.0,34.0,orange,circle
0.0,6.0,2.0,1.0,7.0,6.0,654.8443740002767,3.0,1.0,phase_3,,,,,117.0,3.0,234.0,78.0,156.0,195.0,39.0,117.0,blue,cross
0.0,3.0,3.0,0.0,7.0,6.0,1280.0894410002002,3.0,1.0,phase_3,,,,,245.0,5.0,196.0,49.0,98.0,147.0,294.0,245.0,green,square
0.0,7.0,3.0,1.0,7.0,4.0,418.8035790002686,3.0,1.0,phase_3,,,,,54.0,1.0,270.0,216.0,108.0,54.0,162.0,324.0,magenta,I
0.0,5.0,1.0,1.0,7.0,3.0,513.1071669993617,3.0,1.0,phase_3,,,,,132.0,3.0,264.0,44.0,132.0,176.0,88.0,220.0,cyan,triangle
0.0,6.0,2.0,1.0,7.0,3.0,1041.5296759992998,3.0,1.0,phase_3,,,,,147.0,3.0,98.0,49.0,147.0,196.0,294.0,245.0,blue,cross
0.0,8.0,4.0,1.0,7.0,5.0,974.9845299993468,3.0,1.0,phase_3,,,,,132.0,3.0,220.0,176.0,264.0,88.0,132.0,44.0,orange,circle
0.0,3.0,3.0,0.0,7.0,2.0,1412.7365419999478,3.0,1.0,phase_3,,,,,220.0,5.0,44.0,220.0,132.0,88.0,176.0,264.0,green,square
0.0,3.0,3.0,0.0,7.0,4.0,1181.2686729999768,3.0,1.0,phase_3,,,,,34.0,1.0,68.0,102.0,204.0,34.0,136.0,170.0,green,square
0.0,5.0,1.0,1.0,7.0,1.0,331.0972730005233,3.0,1.0,phase_3,,,,,170.0,5.0,170.0,102.0,204.0,34.0,68.0,136.0,cyan,triangle
0.0,2.0,2.0,0.0,7.0,3.0,620.7237660000828,4.0,1.0,phase_3,,,,,39.0,1.0,195.0,117.0,39.0,78.0,234.0,156.0,yellow,diamond
0.0,1.0,1.0,0.0,7.0,3.0,424.3595110001479,4.0,1.0,phase_3,,,,,176.0,4.0,264.0,132.0,176.0,220.0,88.0,44.0,white,hexagon
0.0,6.0,2.0,1.0,7.0,4.0,537.7841499994247,4.0,1.0,phase_3,,,,,195.0,5.0,39.0,234.0,78.0,195.0,156.0,117.0,blue,cross
0.0,8.0,4.0,1.0,7.0,4.0,448.8965010004904,4.0,1.0,phase_3,,,,,270.0,5.0,108.0,216.0,54.0,270.0,162.0,324.0,orange,circle
0.0,1.0,1.0,0.0,7.0,6.0,277.4397939992923,4.0,1.0,phase_3,,,,,195.0,5.0,117.0,39.0,156.0,234.0,78.0,195.0,white,hexagon
0.0,3.0,3.0,0.0,7.0,1.0,579.6024500004933,4.0,1.0,phase_3,,,,,170.0,5.0,170.0,102.0,136.0,34.0,204.0,68.0,green,square
0.0,5.0,1.0,1.0,7.0,4.0,543.1134959999326,4.0,1.0,phase_3,,,,,68.0,2.0,34.0,170.0,102.0,68.0,136.0,204.0,cyan,triangle
0.0,2.0,2.0,0.0,7.0,2.0,607.5569180002276,4.0,1.0,phase_3,,,,,245.0,5.0,49.0,245.0,147.0,98.0,294.0,196.0,yellow,diamond
0.0,1.0,1.0,0.0,7.0,3.0,633.8534940005047,4.0,1.0,phase_3,,,,,195.0,5.0,156.0,117.0,195.0,234.0,39.0,78.0,white,hexagon
0.0,8.0,4.0,1.0,7.0,3.0,764.1425829997388,4.0,1.0,phase_3,,,,,270.0,5.0,216.0,108.0,270.0,54.0,162.0,324.0,orange,circle
0.0,6.0,2.0,1.0,7.0,2.0,396.2750900000173,4.0,1.0,phase_3,,,,,147.0,3.0,294.0,147.0,98.0,196.0,245.0,49.0,blue,cross
0.0,4.0,4.0,0.0,7.0,4.0,636.2998770000559,4.0,1.0,phase_3,,,,,270.0,5.0,54.0,216.0,324.0,270.0,108.0,162.0,gray,flipped triangle
0.0,1.0,1.0,0.0,7.0,6.0,475.281435999932,4.0,1.0,phase_3,,,,,147.0,3.0,245.0,98.0,49.0,196.0,294.0,147.0,white,hexagon
0.0,7.0,3.0,1.0,7.0,5.0,571.5804749997915,4.0,1.0,phase_3,,,,,156.0,4.0,78.0,39.0,117.0,195.0,156.0,234.0,magenta,I
0.0,2.0,2.0,0.0,7.0,2.0,444.9591299999156,4.0,1.0,phase_3,,,,,54.0,1.0,324.0,54.0,216.0,162.0,270.0,108.0,yellow,diamond
0.0,3.0,3.0,0.0,7.0,3.0,569.9247510001442,4.0,1.0,phase_3,,,,,294.0,6.0,98.0,49.0,294.0,196.0,147.0,245.0,green,square
0.0,3.0,3.0,0.0,7.0,6.0,388.7558269998408,4.0,1.0,phase_3,,,,,162.0,3.0,216.0,324.0,54.0,270.0,108.0,162.0,green,square
0.0,4.0,4.0,0.0,7.0,2.0,589.406279999821,4.0,1.0,phase_3,,,,,78.0,2.0,117.0,78.0,156.0,195.0,39.0,234.0,gray,flipped triangle
0.0,6.0,2.0,1.0,7.0,1.0,452.5110109998422,4.0,1.0,phase_3,,,,,170.0,5.0,170.0,34.0,68.0,204.0,102.0,136.0,blue,cross
0.0,5.0,1.0,1.0,7.0,3.0,913.202161999834,4.0,1.0,phase_3,,,,,49.0,1.0,196.0,98.0,49.0,294.0,147.0,245.0,cyan,triangle
