raw_reward_magnitude,stim_reward,stepwise_reward_magnitude,paired_with_stopping,quadrant,response,reaction_time,block,num_trial_presentations,which_part,stop_signal_trial_type,left_SSD,right_SSD,accuracy,chosen_bidding_amount,chosen_bidding_level,possible_bid_1,possible_bid_2,possible_bid_3,possible_bid_4,possible_bid_5,possible_bid_6,color_text,shape_text
70.0,5.0,1.0,1.0,1.0,1.0,475.5548190000809,1.0,1.0,part_1,,,,,,,,,,,,,yellow,cross
0.0,5.0,0.0,1.0,1.0,1.0,398.0943679998745,1.0,1.0,part_1,,,,,,,,,,,,,yellow,cross
181.0,3.0,3.0,0.0,3.0,3.0,648.1190270001207,1.0,1.0,part_1,,,,,,,,,,,,,cyan,I
35.0,1.0,1.0,0.0,2.0,2.0,427.6817400000254,1.0,1.0,part_1,,,,,,,,,,,,,blue,triangle
30.0,5.0,1.0,1.0,3.0,3.0,395.2141989998381,1.0,1.0,part_1,,,,,,,,,,,,,yellow,cross
0.0,6.0,0.0,1.0,1.0,1.0,548.1344029999491,1.0,1.0,part_1,,,,,,,,,,,,,magenta,hexagon
64.0,5.0,1.0,1.0,3.0,3.0,371.1027389999799,1.0,1.0,part_1,,,,,,,,,,,,,yellow,cross
97.0,6.0,2.0,1.0,2.0,2.0,284.6997599999668,1.0,1.0,part_1,,,,,,,,,,,,,magenta,hexagon
0.0,5.0,0.0,1.0,4.0,4.0,393.5310430001664,1.0,1.0,part_1,,,,,,,,,,,,,yellow,cross
123.0,2.0,2.0,0.0,2.0,2.0,385.9174059998622,1.0,1.0,part_1,,,,,,,,,,,,,orange,diamond
390.0,8.0,4.0,1.0,2.0,2.0,397.9939349997039,1.0,1.0,part_1,,,,,,,,,,,,,white,square
390.0,8.0,4.0,1.0,1.0,1.0,414.4791930002611,1.0,1.0,part_1,,,,,,,,,,,,,white,square
212.0,3.0,3.0,0.0,2.0,2.0,431.7258080000101,1.0,1.0,part_1,,,,,,,,,,,,,cyan,I
0.0,8.0,0.0,1.0,3.0,3.0,318.5122949998913,1.0,1.0,part_1,,,,,,,,,,,,,white,square
390.0,4.0,4.0,0.0,2.0,2.0,262.5904139999875,1.0,1.0,part_1,,,,,,,,,,,,,gray,circle
397.0,8.0,4.0,1.0,3.0,3.0,352.3612059998413,1.0,1.0,part_1,,,,,,,,,,,,,white,square
0.0,4.0,0.0,0.0,4.0,4.0,514.1670879997946,1.0,1.0,part_1,,,,,,,,,,,,,gray,circle
202.0,3.0,3.0,0.0,4.0,4.0,476.3603280002826,1.0,1.0,part_1,,,,,,,,,,,,,cyan,I
0.0,5.0,0.0,1.0,3.0,3.0,414.7398069999326,1.0,1.0,part_1,,,,,,,,,,,,,yellow,cross
393.0,8.0,4.0,1.0,4.0,4.0,431.1874169998191,1.0,1.0,part_1,,,,,,,,,,,,,white,square
0.0,7.0,0.0,1.0,1.0,1.0,322.278451999864,1.0,1.0,part_1,,,,,,,,,,,,,green,flipped triangle
380.0,4.0,4.0,0.0,1.0,1.0,385.4195179997077,1.0,1.0,part_1,,,,,,,,,,,,,gray,circle
198.0,3.0,3.0,0.0,4.0,4.0,383.1995989999086,1.0,1.0,part_1,,,,,,,,,,,,,cyan,I
380.0,4.0,4.0,0.0,2.0,2.0,372.8471069998704,1.0,1.0,part_1,,,,,,,,,,,,,gray,circle
77.0,2.0,2.0,0.0,3.0,3.0,288.4347080002953,1.0,1.0,part_1,,,,,,,,,,,,,orange,diamond
31.0,5.0,1.0,1.0,4.0,4.0,406.7864130001908,1.0,1.0,part_1,,,,,,,,,,,,,yellow,cross
376.0,4.0,4.0,0.0,2.0,2.0,354.2754360000799,1.0,1.0,part_1,,,,,,,,,,,,,gray,circle
0.0,1.0,0.0,0.0,3.0,3.0,336.6659580001396,1.0,1.0,part_1,,,,,,,,,,,,,blue,triangle
176.0,3.0,3.0,0.0,2.0,2.0,488.4752789998856,1.0,1.0,part_1,,,,,,,,,,,,,cyan,I
49.0,5.0,1.0,1.0,1.0,1.0,789.641209000365,1.0,1.0,part_1,,,,,,,,,,,,,yellow,cross
0.0,5.0,0.0,1.0,2.0,2.0,387.551053000152,1.0,1.0,part_1,,,,,,,,,,,,,yellow,cross
53.0,5.0,1.0,1.0,4.0,4.0,318.9965709998432,1.0,1.0,part_1,,,,,,,,,,,,,yellow,cross
123.0,6.0,2.0,1.0,3.0,3.0,328.9054140000189,1.0,1.0,part_1,,,,,,,,,,,,,magenta,hexagon
106.0,2.0,2.0,0.0,2.0,2.0,262.5765060001868,1.0,1.0,part_1,,,,,,,,,,,,,orange,diamond
67.0,5.0,1.0,1.0,2.0,2.0,402.2008020001522,1.0,2.0,part_1,,,,,,,,,,,,,yellow,cross
49.0,5.0,1.0,1.0,4.0,4.0,383.925148000344,1.0,1.0,part_1,,,,,,,,,,,,,yellow,cross
376.0,4.0,4.0,0.0,4.0,4.0,356.6689330000372,1.0,1.0,part_1,,,,,,,,,,,,,gray,circle
191.0,3.0,3.0,0.0,3.0,3.0,361.3092460000189,1.0,1.0,part_1,,,,,,,,,,,,,cyan,I
86.0,2.0,2.0,0.0,1.0,1.0,314.3232560000797,1.0,1.0,part_1,,,,,,,,,,,,,orange,diamond
39.0,1.0,1.0,0.0,2.0,2.0,371.2334570000166,1.0,1.0,part_1,,,,,,,,,,,,,blue,triangle
0.0,7.0,0.0,1.0,3.0,3.0,282.3132580001584,1.0,1.0,part_1,,,,,,,,,,,,,green,flipped triangle
0.0,3.0,0.0,0.0,2.0,2.0,345.9701879996828,1.0,1.0,part_1,,,,,,,,,,,,,cyan,I
390.0,8.0,4.0,1.0,1.0,1.0,318.9421450001646,1.0,1.0,part_1,,,,,,,,,,,,,white,square
376.0,8.0,4.0,1.0,2.0,2.0,462.6249460002327,1.0,1.0,part_1,,,,,,,,,,,,,white,square
110.0,6.0,2.0,1.0,3.0,3.0,415.0329170001896,1.0,1.0,part_1,,,,,,,,,,,,,magenta,hexagon
29.0,1.0,1.0,0.0,1.0,1.0,292.8662449999137,1.0,1.0,part_1,,,,,,,,,,,,,blue,triangle
395.0,4.0,4.0,0.0,3.0,3.0,333.7656250000691,1.0,1.0,part_1,,,,,,,,,,,,,gray,circle
219.0,7.0,3.0,1.0,2.0,2.0,345.7805729999563,1.0,1.0,part_1,,,,,,,,,,,,,green,flipped triangle
186.0,7.0,3.0,1.0,1.0,1.0,317.0874799998273,1.0,1.0,part_1,,,,,,,,,,,,,green,flipped triangle
0.0,2.0,0.0,0.0,2.0,2.0,313.9965820000725,1.0,1.0,part_1,,,,,,,,,,,,,orange,diamond
0.0,2.0,0.0,0.0,4.0,4.0,288.5761279999315,1.0,1.0,part_1,,,,,,,,,,,,,orange,diamond
0.0,1.0,0.0,0.0,4.0,4.0,359.2126319999806,1.0,1.0,part_1,,,,,,,,,,,,,blue,triangle
62.0,5.0,1.0,1.0,1.0,1.0,371.8109920000643,1.0,1.0,part_1,,,,,,,,,,,,,yellow,cross
74.0,5.0,1.0,1.0,3.0,3.0,303.2961949998025,1.0,1.0,part_1,,,,,,,,,,,,,yellow,cross
56.0,5.0,1.0,1.0,3.0,3.0,364.0139760000238,1.0,1.0,part_1,,,,,,,,,,,,,yellow,cross
84.0,2.0,2.0,0.0,2.0,2.0,296.1779710003611,1.0,1.0,part_1,,,,,,,,,,,,,orange,diamond
86.0,6.0,2.0,1.0,2.0,2.0,380.6917739998425,1.0,1.0,part_1,,,,,,,,,,,,,magenta,hexagon
209.0,3.0,3.0,0.0,4.0,4.0,525.6584430003386,1.0,1.0,part_1,,,,,,,,,,,,,cyan,I
108.0,2.0,2.0,0.0,3.0,3.0,388.5817250002219,1.0,1.0,part_1,,,,,,,,,,,,,orange,diamond
39.0,5.0,1.0,1.0,3.0,3.0,361.6934809997474,1.0,1.0,part_1,,,,,,,,,,,,,yellow,cross
410.0,4.0,4.0,0.0,1.0,1.0,418.5046749998946,1.0,1.0,part_1,,,,,,,,,,,,,gray,circle
390.0,4.0,4.0,0.0,3.0,3.0,312.9610810001395,1.0,1.0,part_1,,,,,,,,,,,,,gray,circle
93.0,2.0,2.0,0.0,4.0,4.0,390.0512660002277,1.0,2.0,part_1,,,,,,,,,,,,,orange,diamond
0.0,2.0,0.0,0.0,3.0,3.0,314.795322000009,1.0,1.0,part_1,,,,,,,,,,,,,orange,diamond
414.0,8.0,4.0,1.0,3.0,3.0,336.3950580001074,1.0,1.0,part_1,,,,,,,,,,,,,white,square
41.0,1.0,1.0,0.0,1.0,1.0,381.9098220001251,1.0,1.0,part_1,,,,,,,,,,,,,blue,triangle
425.0,8.0,4.0,1.0,1.0,1.0,522.0077120002315,1.0,1.0,part_1,,,,,,,,,,,,,white,square
212.0,7.0,3.0,1.0,1.0,1.0,314.870644000166,1.0,1.0,part_1,,,,,,,,,,,,,green,flipped triangle
62.0,1.0,1.0,0.0,4.0,4.0,359.7051540000393,1.0,1.0,part_1,,,,,,,,,,,,,blue,triangle
100.0,6.0,2.0,1.0,1.0,1.0,398.1638950003798,1.0,1.0,part_1,,,,,,,,,,,,,magenta,hexagon
28.0,1.0,1.0,0.0,1.0,1.0,444.6542840000802,1.0,1.0,part_1,,,,,,,,,,,,,blue,triangle
0.0,8.0,0.0,1.0,2.0,2.0,360.7854080000834,1.0,1.0,part_1,,,,,,,,,,,,,white,square
50.0,5.0,1.0,1.0,2.0,2.0,360.6981640000413,1.0,1.0,part_1,,,,,,,,,,,,,yellow,cross
110.0,6.0,2.0,1.0,4.0,4.0,567.4141480003527,1.0,1.0,part_1,,,,,,,,,,,,,magenta,hexagon
0.0,4.0,0.0,0.0,1.0,1.0,354.2988810004317,1.0,1.0,part_1,,,,,,,,,,,,,gray,circle
115.0,6.0,2.0,1.0,1.0,1.0,332.2124639998947,1.0,1.0,part_1,,,,,,,,,,,,,magenta,hexagon
105.0,2.0,2.0,0.0,2.0,2.0,388.6733680001271,1.0,1.0,part_1,,,,,,,,,,,,,orange,diamond
74.0,1.0,1.0,0.0,2.0,2.0,396.6669970000112,1.0,1.0,part_1,,,,,,,,,,,,,blue,triangle
196.0,7.0,3.0,1.0,4.0,4.0,453.2333849997485,1.0,1.0,part_1,,,,,,,,,,,,,green,flipped triangle
212.0,7.0,3.0,1.0,1.0,1.0,320.5807399999685,1.0,1.0,part_1,,,,,,,,,,,,,green,flipped triangle
93.0,6.0,2.0,1.0,4.0,4.0,414.7108009997282,1.0,1.0,part_1,,,,,,,,,,,,,magenta,hexagon
0.0,7.0,0.0,1.0,4.0,4.0,331.432715000119,1.0,1.0,part_1,,,,,,,,,,,,,green,flipped triangle
29.0,5.0,1.0,1.0,3.0,3.0,378.6179710000397,1.0,1.0,part_1,,,,,,,,,,,,,yellow,cross
192.0,3.0,3.0,0.0,4.0,4.0,561.7172679999385,1.0,1.0,part_1,,,,,,,,,,,,,cyan,I
216.0,7.0,3.0,1.0,3.0,3.0,399.8463799998717,1.0,1.0,part_1,,,,,,,,,,,,,green,flipped triangle
206.0,3.0,3.0,0.0,4.0,4.0,412.915668000096,1.0,1.0,part_1,,,,,,,,,,,,,cyan,I
53.0,1.0,1.0,0.0,4.0,4.0,369.7248409998792,1.0,1.0,part_1,,,,,,,,,,,,,blue,triangle
381.0,4.0,4.0,0.0,2.0,2.0,466.2572230004116,1.0,1.0,part_1,,,,,,,,,,,,,gray,circle
200.0,7.0,3.0,1.0,4.0,4.0,365.3157519997876,1.0,1.0,part_1,,,,,,,,,,,,,green,flipped triangle
375.0,4.0,4.0,0.0,2.0,2.0,425.9366699998281,1.0,1.0,part_1,,,,,,,,,,,,,gray,circle
0.0,4.0,0.0,0.0,3.0,3.0,486.730259000069,1.0,1.0,part_1,,,,,,,,,,,,,gray,circle
108.0,6.0,2.0,1.0,3.0,3.0,472.1131470000728,1.0,1.0,part_1,,,,,,,,,,,,,magenta,hexagon
181.0,7.0,3.0,1.0,3.0,3.0,415.5590029999985,1.0,1.0,part_1,,,,,,,,,,,,,green,flipped triangle
77.0,2.0,2.0,0.0,3.0,3.0,407.7123209999627,1.0,1.0,part_1,,,,,,,,,,,,,orange,diamond
0.0,7.0,0.0,1.0,1.0,1.0,451.6809570000077,1.0,1.0,part_1,,,,,,,,,,,,,green,flipped triangle
68.0,5.0,1.0,1.0,4.0,4.0,400.2232429998003,1.0,1.0,part_1,,,,,,,,,,,,,yellow,cross
204.0,7.0,3.0,1.0,1.0,1.0,556.0792270002821,1.0,1.0,part_1,,,,,,,,,,,,,green,flipped triangle
198.0,7.0,3.0,1.0,4.0,4.0,649.6931189999486,1.0,1.0,part_1,,,,,,,,,,,,,green,flipped triangle
0.0,6.0,0.0,1.0,3.0,3.0,394.491046999974,1.0,1.0,part_1,,,,,,,,,,,,,magenta,hexagon
0.0,1.0,0.0,0.0,1.0,1.0,615.9300060003261,1.0,1.0,part_1,,,,,,,,,,,,,blue,triangle
68.0,5.0,1.0,1.0,3.0,3.0,482.5818640001671,2.0,1.0,part_1,,,,,,,,,,,,,yellow,cross
406.0,4.0,4.0,0.0,4.0,4.0,502.2790680000071,2.0,1.0,part_1,,,,,,,,,,,,,gray,circle
0.0,1.0,0.0,0.0,2.0,2.0,433.3056549999128,2.0,1.0,part_1,,,,,,,,,,,,,blue,triangle
0.0,4.0,0.0,0.0,3.0,3.0,345.4360870000528,2.0,1.0,part_1,,,,,,,,,,,,,gray,circle
394.0,4.0,4.0,0.0,1.0,1.0,318.8187480000124,2.0,1.0,part_1,,,,,,,,,,,,,gray,circle
50.0,1.0,1.0,0.0,3.0,3.0,278.8076430001638,2.0,1.0,part_1,,,,,,,,,,,,,blue,triangle
0.0,8.0,0.0,1.0,2.0,2.0,600.2936159998171,2.0,1.0,part_1,,,,,,,,,,,,,white,square
92.0,2.0,2.0,0.0,1.0,1.0,543.8825470000666,2.0,1.0,part_1,,,,,,,,,,,,,orange,diamond
197.0,3.0,3.0,0.0,3.0,3.0,394.0629530002297,2.0,1.0,part_1,,,,,,,,,,,,,cyan,I
396.0,4.0,4.0,0.0,2.0,2.0,428.0024550002963,2.0,1.0,part_1,,,,,,,,,,,,,gray,circle
403.0,8.0,4.0,1.0,4.0,4.0,480.8244400001058,2.0,1.0,part_1,,,,,,,,,,,,,white,square
49.0,1.0,1.0,0.0,2.0,2.0,553.0932850001591,2.0,1.0,part_1,,,,,,,,,,,,,blue,triangle
410.0,8.0,4.0,1.0,4.0,4.0,431.4379249999547,2.0,1.0,part_1,,,,,,,,,,,,,white,square
39.0,5.0,1.0,1.0,2.0,2.0,592.8324950000388,2.0,1.0,part_1,,,,,,,,,,,,,yellow,cross
375.0,8.0,4.0,1.0,2.0,2.0,401.8361250000453,2.0,1.0,part_1,,,,,,,,,,,,,white,square
103.0,2.0,2.0,0.0,3.0,3.0,483.154313000341,2.0,1.0,part_1,,,,,,,,,,,,,orange,diamond
0.0,6.0,0.0,1.0,3.0,3.0,464.3811000000823,2.0,1.0,part_1,,,,,,,,,,,,,magenta,hexagon
216.0,3.0,3.0,0.0,1.0,1.0,465.5931060001421,2.0,1.0,part_1,,,,,,,,,,,,,cyan,I
203.0,3.0,3.0,0.0,2.0,2.0,364.2726319999383,2.0,1.0,part_1,,,,,,,,,,,,,cyan,I
196.0,3.0,3.0,0.0,1.0,1.0,496.7901230002098,2.0,1.0,part_1,,,,,,,,,,,,,cyan,I
0.0,3.0,0.0,0.0,4.0,4.0,419.8542449998967,2.0,1.0,part_1,,,,,,,,,,,,,cyan,I
0.0,4.0,0.0,0.0,3.0,3.0,415.0263450001148,2.0,1.0,part_1,,,,,,,,,,,,,gray,circle
206.0,7.0,3.0,1.0,4.0,4.0,460.7123189998674,2.0,1.0,part_1,,,,,,,,,,,,,green,flipped triangle
412.0,4.0,4.0,0.0,1.0,1.0,359.5309540000926,2.0,1.0,part_1,,,,,,,,,,,,,gray,circle
191.0,7.0,3.0,1.0,2.0,2.0,392.3077849999572,2.0,1.0,part_1,,,,,,,,,,,,,green,flipped triangle
376.0,8.0,4.0,1.0,1.0,1.0,358.7428330001785,2.0,1.0,part_1,,,,,,,,,,,,,white,square
389.0,8.0,4.0,1.0,4.0,4.0,417.9773850000856,2.0,1.0,part_1,,,,,,,,,,,,,white,square
395.0,8.0,4.0,1.0,1.0,1.0,423.816533000263,2.0,1.0,part_1,,,,,,,,,,,,,white,square
116.0,2.0,2.0,0.0,1.0,1.0,428.815079999822,2.0,1.0,part_1,,,,,,,,,,,,,orange,diamond
68.0,1.0,1.0,0.0,4.0,4.0,465.3674459996182,2.0,1.0,part_1,,,,,,,,,,,,,blue,triangle
35.0,5.0,1.0,1.0,1.0,1.0,430.3330420002567,2.0,1.0,part_1,,,,,,,,,,,,,yellow,cross
96.0,2.0,2.0,0.0,4.0,4.0,347.1175079998829,2.0,1.0,part_1,,,,,,,,,,,,,orange,diamond
43.0,5.0,1.0,1.0,4.0,4.0,502.34816100009994,2.0,1.0,part_1,,,,,,,,,,,,,yellow,cross
404.0,4.0,4.0,0.0,3.0,3.0,397.1670549999544,2.0,1.0,part_1,,,,,,,,,,,,,gray,circle
412.0,8.0,4.0,1.0,1.0,1.0,402.8754380001373,2.0,1.0,part_1,,,,,,,,,,,,,white,square
84.0,6.0,2.0,1.0,2.0,2.0,391.9777119999708,2.0,1.0,part_1,,,,,,,,,,,,,magenta,hexagon
0.0,2.0,0.0,0.0,4.0,4.0,681.3650340000095,2.0,1.0,part_1,,,,,,,,,,,,,orange,diamond
200.0,3.0,3.0,0.0,1.0,1.0,564.024894999875,2.0,1.0,part_1,,,,,,,,,,,,,cyan,I
57.0,1.0,1.0,0.0,1.0,1.0,390.7748880001236,2.0,1.0,part_1,,,,,,,,,,,,,blue,triangle
105.0,6.0,2.0,1.0,3.0,3.0,333.7725639999007,2.0,1.0,part_1,,,,,,,,,,,,,magenta,hexagon
417.0,8.0,4.0,1.0,4.0,4.0,369.0932909998992,2.0,1.0,part_1,,,,,,,,,,,,,white,square
110.0,2.0,2.0,0.0,4.0,4.0,359.7291249998307,2.0,1.0,part_1,,,,,,,,,,,,,orange,diamond
421.0,8.0,4.0,1.0,2.0,2.0,439.2366940001011,2.0,1.0,part_1,,,,,,,,,,,,,white,square
190.0,3.0,3.0,0.0,1.0,1.0,442.3413839999739,2.0,1.0,part_1,,,,,,,,,,,,,cyan,I
190.0,7.0,3.0,1.0,1.0,1.0,567.1858590003467,2.0,1.0,part_1,,,,,,,,,,,,,green,flipped triangle
219.0,3.0,3.0,0.0,4.0,4.0,404.9059730000408,2.0,1.0,part_1,,,,,,,,,,,,,cyan,I
219.0,3.0,3.0,0.0,2.0,2.0,421.9330609998906,2.0,1.0,part_1,,,,,,,,,,,,,cyan,I
397.0,4.0,4.0,0.0,2.0,2.0,389.8336859997471,2.0,1.0,part_1,,,,,,,,,,,,,gray,circle
178.0,7.0,3.0,1.0,4.0,4.0,663.8117390002662,2.0,1.0,part_1,,,,,,,,,,,,,green,flipped triangle
209.0,3.0,3.0,0.0,1.0,1.0,421.2809040000138,2.0,1.0,part_1,,,,,,,,,,,,,cyan,I
114.0,2.0,2.0,0.0,2.0,2.0,394.6766159997423,2.0,1.0,part_1,,,,,,,,,,,,,orange,diamond
96.0,6.0,2.0,1.0,2.0,2.0,410.8720100002756,2.0,1.0,part_1,,,,,,,,,,,,,magenta,hexagon
421.0,8.0,4.0,1.0,3.0,3.0,367.1070979999058,2.0,1.0,part_1,,,,,,,,,,,,,white,square
57.0,5.0,1.0,1.0,2.0,2.0,454.0070549996926,2.0,1.0,part_1,,,,,,,,,,,,,yellow,cross
92.0,2.0,2.0,0.0,2.0,2.0,330.6615450001118,2.0,1.0,part_1,,,,,,,,,,,,,orange,diamond
90.0,2.0,2.0,0.0,1.0,1.0,443.4048279999842,2.0,1.0,part_1,,,,,,,,,,,,,orange,diamond
394.0,8.0,4.0,1.0,3.0,3.0,304.8687590003283,2.0,1.0,part_1,,,,,,,,,,,,,white,square
28.0,5.0,1.0,1.0,2.0,2.0,344.2104109999491,2.0,1.0,part_1,,,,,,,,,,,,,yellow,cross
0.0,6.0,0.0,1.0,3.0,3.0,393.3863359998213,2.0,1.0,part_1,,,,,,,,,,,,,magenta,hexagon
191.0,3.0,3.0,0.0,1.0,1.0,340.7722609999837,2.0,1.0,part_1,,,,,,,,,,,,,cyan,I
0.0,2.0,0.0,0.0,2.0,2.0,362.8629039999396,2.0,1.0,part_1,,,,,,,,,,,,,orange,diamond
106.0,2.0,2.0,0.0,3.0,3.0,532.3992489998091,2.0,1.0,part_1,,,,,,,,,,,,,orange,diamond
47.0,1.0,1.0,0.0,3.0,3.0,371.8434459997297,2.0,1.0,part_1,,,,,,,,,,,,,blue,triangle
0.0,3.0,0.0,0.0,4.0,4.0,392.7718589998221,2.0,1.0,part_1,,,,,,,,,,,,,cyan,I
117.0,2.0,2.0,0.0,1.0,1.0,385.980944000039,2.0,1.0,part_1,,,,,,,,,,,,,orange,diamond
223.0,3.0,3.0,0.0,3.0,3.0,313.2804639999449,2.0,1.0,part_1,,,,,,,,,,,,,cyan,I
192.0,3.0,3.0,0.0,1.0,1.0,404.2306440001084,2.0,1.0,part_1,,,,,,,,,,,,,cyan,I
90.0,6.0,2.0,1.0,2.0,2.0,415.2322119998644,2.0,1.0,part_1,,,,,,,,,,,,,magenta,hexagon
0.0,7.0,0.0,1.0,2.0,2.0,361.56715099969,2.0,1.0,part_1,,,,,,,,,,,,,green,flipped triangle
41.0,5.0,1.0,1.0,2.0,2.0,359.3263770003432,2.0,1.0,part_1,,,,,,,,,,,,,yellow,cross
218.0,3.0,3.0,0.0,3.0,3.0,361.7930360001082,2.0,1.0,part_1,,,,,,,,,,,,,cyan,I
212.0,7.0,3.0,1.0,3.0,3.0,352.0184420003716,2.0,1.0,part_1,,,,,,,,,,,,,green,flipped triangle
0.0,4.0,0.0,0.0,2.0,2.0,353.2052380001005,2.0,1.0,part_1,,,,,,,,,,,,,gray,circle
389.0,4.0,4.0,0.0,1.0,1.0,413.9990280000347,2.0,1.0,part_1,,,,,,,,,,,,,gray,circle
411.0,8.0,4.0,1.0,3.0,3.0,367.1616990000075,2.0,1.0,part_1,,,,,,,,,,,,,white,square
390.0,4.0,4.0,0.0,3.0,3.0,396.6875619998973,2.0,1.0,part_1,,,,,,,,,,,,,gray,circle
108.0,6.0,2.0,1.0,4.0,4.0,461.0439850002876,2.0,1.0,part_1,,,,,,,,,,,,,magenta,hexagon
404.0,8.0,4.0,1.0,2.0,2.0,376.8374649998804,2.0,1.0,part_1,,,,,,,,,,,,,white,square
400.0,8.0,4.0,1.0,3.0,3.0,292.2868870000457,2.0,1.0,part_1,,,,,,,,,,,,,white,square
396.0,8.0,4.0,1.0,1.0,1.0,408.8295779997679,2.0,1.0,part_1,,,,,,,,,,,,,white,square
212.0,3.0,3.0,0.0,2.0,2.0,471.0775120001926,2.0,1.0,part_1,,,,,,,,,,,,,cyan,I
197.0,7.0,3.0,1.0,2.0,2.0,402.89076199997,2.0,1.0,part_1,,,,,,,,,,,,,green,flipped triangle
77.0,6.0,2.0,1.0,4.0,4.0,457.9591800002163,2.0,1.0,part_1,,,,,,,,,,,,,magenta,hexagon
110.0,6.0,2.0,1.0,2.0,2.0,308.633699999973,2.0,1.0,part_1,,,,,,,,,,,,,magenta,hexagon
47.0,5.0,1.0,1.0,1.0,1.0,538.8249829998131,2.0,1.0,part_1,,,,,,,,,,,,,yellow,cross
215.0,7.0,3.0,1.0,3.0,3.0,367.5141680000706,2.0,1.0,part_1,,,,,,,,,,,,,green,flipped triangle
108.0,2.0,2.0,0.0,1.0,1.0,296.5661060002276,2.0,1.0,part_1,,,,,,,,,,,,,orange,diamond
185.0,3.0,3.0,0.0,2.0,2.0,424.4069440001112,2.0,1.0,part_1,,,,,,,,,,,,,cyan,I
103.0,6.0,2.0,1.0,2.0,2.0,373.9547670002139,2.0,1.0,part_1,,,,,,,,,,,,,magenta,hexagon
119.0,2.0,2.0,0.0,4.0,4.0,305.0878210001428,2.0,1.0,part_1,,,,,,,,,,,,,orange,diamond
398.0,4.0,4.0,0.0,4.0,4.0,416.0238320000644,2.0,1.0,part_1,,,,,,,,,,,,,gray,circle
203.0,7.0,3.0,1.0,2.0,2.0,301.1512230000335,2.0,1.0,part_1,,,,,,,,,,,,,green,flipped triangle
0.0,4.0,0.0,0.0,3.0,3.0,349.5011569998496,2.0,1.0,part_1,,,,,,,,,,,,,gray,circle
96.0,6.0,2.0,1.0,1.0,1.0,356.3488109998616,2.0,1.0,part_1,,,,,,,,,,,,,magenta,hexagon
39.0,1.0,1.0,0.0,3.0,3.0,294.1860420000921,2.0,1.0,part_1,,,,,,,,,,,,,blue,triangle
0.0,1.0,0.0,0.0,3.0,3.0,425.6028479999258,2.0,1.0,part_1,,,,,,,,,,,,,blue,triangle
92.0,6.0,2.0,1.0,3.0,3.0,353.425629999947,2.0,1.0,part_1,,,,,,,,,,,,,magenta,hexagon
90.0,6.0,2.0,1.0,1.0,1.0,445.3462950000357,2.0,1.0,part_1,,,,,,,,,,,,,magenta,hexagon
219.0,7.0,3.0,1.0,3.0,3.0,312.2646159999931,2.0,1.0,part_1,,,,,,,,,,,,,green,flipped triangle
60.0,5.0,1.0,1.0,3.0,3.0,370.6763099999079,2.0,1.0,part_1,,,,,,,,,,,,,yellow,cross
424.0,8.0,4.0,1.0,2.0,2.0,342.9324630001247,3.0,1.0,part_1,,,,,,,,,,,,,white,square
184.0,3.0,3.0,0.0,3.0,3.0,306.7138870001145,3.0,1.0,part_1,,,,,,,,,,,,,cyan,I
31.0,1.0,1.0,0.0,4.0,4.0,468.7596539997685,3.0,1.0,part_1,,,,,,,,,,,,,blue,triangle
86.0,6.0,2.0,1.0,3.0,3.0,337.3364419999234,3.0,1.0,part_1,,,,,,,,,,,,,magenta,hexagon
0.0,5.0,0.0,1.0,2.0,2.0,286.469827000019,3.0,1.0,part_1,,,,,,,,,,,,,yellow,cross
0.0,6.0,0.0,1.0,3.0,3.0,269.1177169999719,3.0,1.0,part_1,,,,,,,,,,,,,magenta,hexagon
218.0,7.0,3.0,1.0,3.0,3.0,369.9977840001338,3.0,1.0,part_1,,,,,,,,,,,,,green,flipped triangle
424.0,4.0,4.0,0.0,4.0,4.0,404.3860509996193,3.0,1.0,part_1,,,,,,,,,,,,,gray,circle
412.0,8.0,4.0,1.0,4.0,4.0,367.0160420001593,3.0,1.0,part_1,,,,,,,,,,,,,white,square
405.0,4.0,4.0,0.0,1.0,1.0,404.9471039998025,3.0,1.0,part_1,,,,,,,,,,,,,gray,circle
223.0,7.0,3.0,1.0,4.0,4.0,354.0718100002777,3.0,1.0,part_1,,,,,,,,,,,,,green,flipped triangle
68.0,5.0,1.0,1.0,3.0,3.0,349.3695180000031,3.0,1.0,part_1,,,,,,,,,,,,,yellow,cross
68.0,1.0,1.0,0.0,1.0,1.0,347.1766079996996,3.0,1.0,part_1,,,,,,,,,,,,,blue,triangle
97.0,2.0,2.0,0.0,2.0,2.0,389.969844999996,3.0,1.0,part_1,,,,,,,,,,,,,orange,diamond
82.0,2.0,2.0,0.0,2.0,2.0,411.3396449997708,3.0,1.0,part_1,,,,,,,,,,,,,orange,diamond
421.0,4.0,4.0,0.0,3.0,3.0,300.2887729999202,3.0,1.0,part_1,,,,,,,,,,,,,gray,circle
110.0,2.0,2.0,0.0,3.0,3.0,318.067088999669,3.0,1.0,part_1,,,,,,,,,,,,,orange,diamond
0.0,3.0,0.0,0.0,3.0,3.0,298.8371709998318,3.0,1.0,part_1,,,,,,,,,,,,,cyan,I
116.0,2.0,2.0,0.0,4.0,4.0,415.5642539999462,3.0,1.0,part_1,,,,,,,,,,,,,orange,diamond
115.0,2.0,2.0,0.0,1.0,1.0,363.4980050001104,3.0,1.0,part_1,,,,,,,,,,,,,orange,diamond
419.0,4.0,4.0,0.0,4.0,4.0,363.0258969997157,3.0,1.0,part_1,,,,,,,,,,,,,gray,circle
116.0,6.0,2.0,1.0,3.0,3.0,336.0380609997264,3.0,1.0,part_1,,,,,,,,,,,,,magenta,hexagon
0.0,6.0,0.0,1.0,3.0,3.0,305.4434160003438,3.0,1.0,part_1,,,,,,,,,,,,,magenta,hexagon
192.0,7.0,3.0,1.0,2.0,2.0,337.6662139999098,3.0,1.0,part_1,,,,,,,,,,,,,green,flipped triangle
30.0,5.0,1.0,1.0,1.0,1.0,357.0782140000119,3.0,1.0,part_1,,,,,,,,,,,,,yellow,cross
119.0,6.0,2.0,1.0,1.0,1.0,337.2109629999613,3.0,1.0,part_1,,,,,,,,,,,,,magenta,hexagon
212.0,3.0,3.0,0.0,1.0,1.0,389.7837040003651,3.0,1.0,part_1,,,,,,,,,,,,,cyan,I
399.0,8.0,4.0,1.0,2.0,2.0,350.6820580000749,3.0,1.0,part_1,,,,,,,,,,,,,white,square
50.0,1.0,1.0,0.0,1.0,1.0,425.4755219999424,3.0,1.0,part_1,,,,,,,,,,,,,blue,triangle
0.0,2.0,0.0,0.0,3.0,3.0,290.3606979998585,3.0,1.0,part_1,,,,,,,,,,,,,orange,diamond
425.0,4.0,4.0,0.0,4.0,4.0,359.2700539998077,3.0,1.0,part_1,,,,,,,,,,,,,gray,circle
106.0,6.0,2.0,1.0,4.0,4.0,443.3363019998069,3.0,1.0,part_1,,,,,,,,,,,,,magenta,hexagon
114.0,6.0,2.0,1.0,1.0,1.0,401.0904950000622,3.0,1.0,part_1,,,,,,,,,,,,,magenta,hexagon
0.0,8.0,0.0,1.0,2.0,2.0,303.6954090002837,3.0,1.0,part_1,,,,,,,,,,,,,white,square
0.0,7.0,0.0,1.0,3.0,3.0,303.0846470001052,3.0,1.0,part_1,,,,,,,,,,,,,green,flipped triangle
185.0,7.0,3.0,1.0,2.0,2.0,445.1704670000254,3.0,1.0,part_1,,,,,,,,,,,,,green,flipped triangle
424.0,8.0,4.0,1.0,4.0,4.0,549.2882039998221,3.0,1.0,part_1,,,,,,,,,,,,,white,square
75.0,1.0,1.0,0.0,2.0,2.0,361.1158169996997,3.0,1.0,part_1,,,,,,,,,,,,,blue,triangle
60.0,1.0,1.0,0.0,3.0,3.0,505.7930600000873,3.0,1.0,part_1,,,,,,,,,,,,,blue,triangle
43.0,1.0,1.0,0.0,4.0,4.0,351.3002979998418,3.0,1.0,part_1,,,,,,,,,,,,,blue,triangle
179.0,3.0,3.0,0.0,1.0,1.0,376.1357009998392,3.0,1.0,part_1,,,,,,,,,,,,,cyan,I
0.0,6.0,0.0,1.0,3.0,3.0,265.8635580000918,3.0,1.0,part_1,,,,,,,,,,,,,magenta,hexagon
185.0,7.0,3.0,1.0,3.0,3.0,305.8058310002707,3.0,1.0,part_1,,,,,,,,,,,,,green,flipped triangle
0.0,6.0,0.0,1.0,2.0,2.0,359.4240339998578,3.0,1.0,part_1,,,,,,,,,,,,,magenta,hexagon
0.0,8.0,0.0,1.0,1.0,1.0,338.9592849998735,3.0,1.0,part_1,,,,,,,,,,,,,white,square
110.0,2.0,2.0,0.0,4.0,4.0,567.7345379999679,3.0,1.0,part_1,,,,,,,,,,,,,orange,diamond
0.0,7.0,0.0,1.0,1.0,1.0,398.6306140000124,3.0,1.0,part_1,,,,,,,,,,,,,green,flipped triangle
0.0,4.0,0.0,0.0,1.0,1.0,424.8849420000624,3.0,1.0,part_1,,,,,,,,,,,,,gray,circle
0.0,2.0,0.0,0.0,3.0,3.0,376.7050090000339,3.0,1.0,part_1,,,,,,,,,,,,,orange,diamond
64.0,1.0,1.0,0.0,4.0,4.0,507.071433999954,3.0,1.0,part_1,,,,,,,,,,,,,blue,triangle
386.0,8.0,4.0,1.0,2.0,2.0,840.8847579999019,3.0,1.0,part_1,,,,,,,,,,,,,white,square
0.0,4.0,0.0,0.0,3.0,3.0,399.9079529999108,3.0,1.0,part_1,,,,,,,,,,,,,gray,circle
205.0,7.0,3.0,1.0,2.0,2.0,441.2380369999482,3.0,1.0,part_1,,,,,,,,,,,,,green,flipped triangle
0.0,1.0,0.0,0.0,3.0,3.0,281.6643969999859,3.0,1.0,part_1,,,,,,,,,,,,,blue,triangle
388.0,8.0,4.0,1.0,2.0,2.0,368.2431180000094,3.0,1.0,part_1,,,,,,,,,,,,,white,square
419.0,4.0,4.0,0.0,1.0,1.0,352.4414339999566,3.0,1.0,part_1,,,,,,,,,,,,,gray,circle
61.0,5.0,1.0,1.0,1.0,1.0,353.4575219996441,3.0,1.0,part_1,,,,,,,,,,,,,yellow,cross
34.0,5.0,1.0,1.0,4.0,4.0,325.6255380001676,3.0,1.0,part_1,,,,,,,,,,,,,yellow,cross
186.0,3.0,3.0,0.0,4.0,4.0,378.5843199998453,3.0,1.0,part_1,,,,,,,,,,,,,cyan,I
49.0,1.0,1.0,0.0,2.0,2.0,388.7251870000909,3.0,1.0,part_1,,,,,,,,,,,,,blue,triangle
388.0,4.0,4.0,0.0,4.0,4.0,391.0457530000713,3.0,1.0,part_1,,,,,,,,,,,,,gray,circle
112.0,6.0,2.0,1.0,4.0,4.0,361.8134309999732,3.0,1.0,part_1,,,,,,,,,,,,,magenta,hexagon
393.0,4.0,4.0,0.0,3.0,3.0,333.1404309997197,3.0,1.0,part_1,,,,,,,,,,,,,gray,circle
0.0,5.0,0.0,1.0,4.0,4.0,364.6735399997851,3.0,1.0,part_1,,,,,,,,,,,,,yellow,cross
43.0,5.0,1.0,1.0,3.0,3.0,351.1482690000775,3.0,1.0,part_1,,,,,,,,,,,,,yellow,cross
0.0,5.0,0.0,1.0,4.0,4.0,330.1023509998231,3.0,1.0,part_1,,,,,,,,,,,,,yellow,cross
33.0,1.0,1.0,0.0,4.0,4.0,322.1494129998064,3.0,1.0,part_1,,,,,,,,,,,,,blue,triangle
212.0,7.0,3.0,1.0,3.0,3.0,317.3169910000979,3.0,1.0,part_1,,,,,,,,,,,,,green,flipped triangle
68.0,1.0,1.0,0.0,1.0,1.0,429.97369099975907,3.0,1.0,part_1,,,,,,,,,,,,,blue,triangle
0.0,8.0,0.0,1.0,2.0,2.0,391.0502700000506,3.0,1.0,part_1,,,,,,,,,,,,,white,square
191.0,7.0,3.0,1.0,1.0,1.0,327.3501629996644,3.0,1.0,part_1,,,,,,,,,,,,,green,flipped triangle
34.0,1.0,1.0,0.0,3.0,3.0,308.0130210000789,3.0,1.0,part_1,,,,,,,,,,,,,blue,triangle
194.0,3.0,3.0,0.0,4.0,4.0,310.208271999727,3.0,1.0,part_1,,,,,,,,,,,,,cyan,I
380.0,8.0,4.0,1.0,4.0,4.0,337.3558190000949,3.0,1.0,part_1,,,,,,,,,,,,,white,square
65.0,1.0,1.0,0.0,3.0,3.0,484.8568809998141,3.0,1.0,part_1,,,,,,,,,,,,,blue,triangle
0.0,5.0,0.0,1.0,1.0,1.0,327.3841549998906,3.0,1.0,part_1,,,,,,,,,,,,,yellow,cross
0.0,5.0,0.0,1.0,3.0,3.0,370.2162570002656,3.0,1.0,part_1,,,,,,,,,,,,,yellow,cross
117.0,6.0,2.0,1.0,1.0,1.0,260.9979520002525,3.0,1.0,part_1,,,,,,,,,,,,,magenta,hexagon
29.0,5.0,1.0,1.0,1.0,1.0,424.4753020002463,3.0,1.0,part_1,,,,,,,,,,,,,yellow,cross
188.0,3.0,3.0,0.0,4.0,4.0,400.3763079999771,3.0,2.0,part_1,,,,,,,,,,,,,cyan,I
395.0,8.0,4.0,1.0,3.0,3.0,343.7477420002324,3.0,1.0,part_1,,,,,,,,,,,,,white,square
78.0,2.0,2.0,0.0,1.0,1.0,434.5132299999932,3.0,1.0,part_1,,,,,,,,,,,,,orange,diamond
403.0,4.0,4.0,0.0,4.0,4.0,407.7833410001403,3.0,1.0,part_1,,,,,,,,,,,,,gray,circle
376.0,8.0,4.0,1.0,4.0,4.0,394.9970849998863,3.0,1.0,part_1,,,,,,,,,,,,,white,square
83.0,2.0,2.0,0.0,3.0,3.0,493.351660999906,3.0,1.0,part_1,,,,,,,,,,,,,orange,diamond
0.0,2.0,0.0,0.0,4.0,4.0,357.0255810000162,3.0,1.0,part_1,,,,,,,,,,,,,orange,diamond
86.0,2.0,2.0,0.0,3.0,3.0,394.486856000185,3.0,1.0,part_1,,,,,,,,,,,,,orange,diamond
0.0,8.0,0.0,1.0,2.0,2.0,366.6231809997953,3.0,1.0,part_1,,,,,,,,,,,,,white,square
0.0,8.0,0.0,1.0,1.0,1.0,328.7072759999319,3.0,1.0,part_1,,,,,,,,,,,,,white,square
39.0,5.0,1.0,1.0,2.0,2.0,368.5673410000163,3.0,1.0,part_1,,,,,,,,,,,,,yellow,cross
411.0,4.0,4.0,0.0,1.0,1.0,540.3461430000789,3.0,1.0,part_1,,,,,,,,,,,,,gray,circle
0.0,4.0,0.0,0.0,3.0,3.0,459.5105160001367,3.0,1.0,part_1,,,,,,,,,,,,,gray,circle
0.0,8.0,0.0,1.0,2.0,2.0,452.9260569997859,3.0,1.0,part_1,,,,,,,,,,,,,white,square
0.0,1.0,0.0,0.0,2.0,2.0,350.5283730000883,3.0,1.0,part_1,,,,,,,,,,,,,blue,triangle
107.0,2.0,2.0,0.0,3.0,3.0,376.0733879998952,3.0,1.0,part_1,,,,,,,,,,,,,orange,diamond
394.0,4.0,4.0,0.0,2.0,2.0,510.37772800009407,3.0,1.0,part_1,,,,,,,,,,,,,gray,circle
30.0,1.0,1.0,0.0,2.0,2.0,343.4838160001163,3.0,1.0,part_1,,,,,,,,,,,,,blue,triangle
400.0,4.0,4.0,0.0,3.0,3.0,295.779297000081,3.0,1.0,part_1,,,,,,,,,,,,,gray,circle
78.0,6.0,2.0,1.0,1.0,1.0,407.2933329998704,3.0,1.0,part_1,,,,,,,,,,,,,magenta,hexagon
53.0,1.0,1.0,0.0,3.0,3.0,308.6804099998517,3.0,1.0,part_1,,,,,,,,,,,,,blue,triangle
106.0,6.0,2.0,1.0,3.0,3.0,354.9771079997299,4.0,1.0,part_1,,,,,,,,,,,,,magenta,hexagon
199.0,7.0,3.0,1.0,3.0,3.0,259.064827000202,4.0,1.0,part_1,,,,,,,,,,,,,green,flipped triangle
394.0,8.0,4.0,1.0,4.0,4.0,379.2404680002619,4.0,1.0,part_1,,,,,,,,,,,,,white,square
43.0,1.0,1.0,0.0,2.0,2.0,327.0362600001135,4.0,1.0,part_1,,,,,,,,,,,,,blue,triangle
406.0,8.0,4.0,1.0,2.0,2.0,368.8543469997967,4.0,1.0,part_1,,,,,,,,,,,,,white,square
414.0,4.0,4.0,0.0,1.0,1.0,425.1854100002674,4.0,1.0,part_1,,,,,,,,,,,,,gray,circle
0.0,3.0,0.0,0.0,2.0,2.0,352.9252129997076,4.0,1.0,part_1,,,,,,,,,,,,,cyan,I
220.0,7.0,3.0,1.0,4.0,4.0,345.7074299999476,4.0,1.0,part_1,,,,,,,,,,,,,green,flipped triangle
37.0,1.0,1.0,0.0,1.0,1.0,387.8820279996944,4.0,1.0,part_1,,,,,,,,,,,,,blue,triangle
0.0,3.0,0.0,0.0,3.0,3.0,317.0150289997764,4.0,1.0,part_1,,,,,,,,,,,,,cyan,I
50.0,5.0,1.0,1.0,1.0,1.0,615.861901000244,4.0,1.0,part_1,,,,,,,,,,,,,yellow,cross
0.0,7.0,0.0,1.0,4.0,4.0,367.2195570002259,4.0,1.0,part_1,,,,,,,,,,,,,green,flipped triangle
75.0,5.0,1.0,1.0,4.0,4.0,395.9920480001528,4.0,1.0,part_1,,,,,,,,,,,,,yellow,cross
192.0,7.0,3.0,1.0,1.0,1.0,421.0671269997874,4.0,1.0,part_1,,,,,,,,,,,,,green,flipped triangle
0.0,6.0,0.0,1.0,4.0,4.0,358.8701879998552,4.0,1.0,part_1,,,,,,,,,,,,,magenta,hexagon
0.0,1.0,0.0,0.0,2.0,2.0,321.9657640001969,4.0,1.0,part_1,,,,,,,,,,,,,blue,triangle
53.0,5.0,1.0,1.0,2.0,2.0,354.4657490001555,4.0,1.0,part_1,,,,,,,,,,,,,yellow,cross
116.0,6.0,2.0,1.0,2.0,2.0,298.145900000236,4.0,1.0,part_1,,,,,,,,,,,,,magenta,hexagon
376.0,4.0,4.0,0.0,3.0,3.0,339.3698079999012,4.0,1.0,part_1,,,,,,,,,,,,,gray,circle
29.0,1.0,1.0,0.0,3.0,3.0,316.6248749998885,4.0,1.0,part_1,,,,,,,,,,,,,blue,triangle
405.0,8.0,4.0,1.0,3.0,3.0,340.9680069999012,4.0,1.0,part_1,,,,,,,,,,,,,white,square
205.0,3.0,3.0,0.0,3.0,3.0,365.159708000192,4.0,1.0,part_1,,,,,,,,,,,,,cyan,I
0.0,5.0,0.0,1.0,4.0,4.0,358.3160270000007,4.0,1.0,part_1,,,,,,,,,,,,,yellow,cross
194.0,7.0,3.0,1.0,1.0,1.0,320.2094599996599,4.0,1.0,part_1,,,,,,,,,,,,,green,flipped triangle
95.0,6.0,2.0,1.0,1.0,1.0,344.3277989999842,4.0,1.0,part_1,,,,,,,,,,,,,magenta,hexagon
37.0,5.0,1.0,1.0,4.0,4.0,397.8350540000974,4.0,1.0,part_1,,,,,,,,,,,,,yellow,cross
199.0,3.0,3.0,0.0,2.0,2.0,338.6522989999321,4.0,1.0,part_1,,,,,,,,,,,,,cyan,I
0.0,3.0,0.0,0.0,3.0,3.0,290.8713030001308,4.0,1.0,part_1,,,,,,,,,,,,,cyan,I
124.0,2.0,2.0,0.0,3.0,3.0,367.5382330002321,4.0,1.0,part_1,,,,,,,,,,,,,orange,diamond
37.0,5.0,1.0,1.0,4.0,4.0,375.0714830002835,4.0,1.0,part_1,,,,,,,,,,,,,yellow,cross
123.0,2.0,2.0,0.0,4.0,4.0,319.0696589999788,4.0,1.0,part_1,,,,,,,,,,,,,orange,diamond
419.0,8.0,4.0,1.0,3.0,3.0,343.9769250003337,4.0,1.0,part_1,,,,,,,,,,,,,white,square
90.0,2.0,2.0,0.0,2.0,2.0,355.5928269997821,4.0,1.0,part_1,,,,,,,,,,,,,orange,diamond
74.0,1.0,1.0,0.0,3.0,3.0,405.994942000234,4.0,1.0,part_1,,,,,,,,,,,,,blue,triangle
86.0,6.0,2.0,1.0,1.0,1.0,510.11194200009413,4.0,1.0,part_1,,,,,,,,,,,,,magenta,hexagon
0.0,7.0,0.0,1.0,3.0,3.0,287.0533949999299,4.0,1.0,part_1,,,,,,,,,,,,,green,flipped triangle
398.0,8.0,4.0,1.0,1.0,1.0,389.2973420001908,4.0,1.0,part_1,,,,,,,,,,,,,white,square
178.0,3.0,3.0,0.0,3.0,3.0,258.5136890002104,4.0,1.0,part_1,,,,,,,,,,,,,cyan,I
179.0,7.0,3.0,1.0,3.0,3.0,295.5976480002391,4.0,1.0,part_1,,,,,,,,,,,,,green,flipped triangle
386.0,4.0,4.0,0.0,2.0,2.0,365.794969000035,4.0,1.0,part_1,,,,,,,,,,,,,gray,circle
37.0,1.0,1.0,0.0,2.0,2.0,316.6563699996914,4.0,1.0,part_1,,,,,,,,,,,,,blue,triangle
56.0,1.0,1.0,0.0,1.0,1.0,339.4298770003843,4.0,1.0,part_1,,,,,,,,,,,,,blue,triangle
124.0,6.0,2.0,1.0,2.0,2.0,350.5482069999743,4.0,2.0,part_1,,,,,,,,,,,,,magenta,hexagon
33.0,5.0,1.0,1.0,4.0,4.0,364.2321130000709,4.0,1.0,part_1,,,,,,,,,,,,,yellow,cross
424.0,4.0,4.0,0.0,3.0,3.0,303.5298429999784,4.0,1.0,part_1,,,,,,,,,,,,,gray,circle
67.0,1.0,1.0,0.0,1.0,1.0,253.5983369998575,4.0,1.0,part_1,,,,,,,,,,,,,blue,triangle
209.0,7.0,3.0,1.0,1.0,1.0,365.1054249999106,4.0,1.0,part_1,,,,,,,,,,,,,green,flipped triangle
204.0,3.0,3.0,0.0,4.0,4.0,362.7071150003758,4.0,1.0,part_1,,,,,,,,,,,,,cyan,I
419.0,8.0,4.0,1.0,3.0,3.0,302.4502569996912,4.0,1.0,part_1,,,,,,,,,,,,,white,square
0.0,8.0,0.0,1.0,4.0,4.0,368.6650470003769,4.0,1.0,part_1,,,,,,,,,,,,,white,square
95.0,2.0,2.0,0.0,4.0,4.0,380.2870430004077,4.0,1.0,part_1,,,,,,,,,,,,,orange,diamond
123.0,6.0,2.0,1.0,2.0,2.0,350.7885300000453,4.0,1.0,part_1,,,,,,,,,,,,,magenta,hexagon
0.0,6.0,0.0,1.0,1.0,1.0,364.257926999926,4.0,1.0,part_1,,,,,,,,,,,,,magenta,hexagon
61.0,1.0,1.0,0.0,4.0,4.0,352.5839819999419,4.0,1.0,part_1,,,,,,,,,,,,,blue,triangle
85.0,6.0,2.0,1.0,4.0,4.0,370.1550490000045,4.0,1.0,part_1,,,,,,,,,,,,,magenta,hexagon
184.0,7.0,3.0,1.0,2.0,2.0,318.069660999754,4.0,1.0,part_1,,,,,,,,,,,,,green,flipped triangle
215.0,3.0,3.0,0.0,2.0,2.0,404.4247109995922,4.0,1.0,part_1,,,,,,,,,,,,,cyan,I
205.0,3.0,3.0,0.0,3.0,3.0,341.5488699997695,4.0,1.0,part_1,,,,,,,,,,,,,cyan,I
0.0,1.0,0.0,0.0,4.0,4.0,301.7385389998708,4.0,1.0,part_1,,,,,,,,,,,,,blue,triangle
70.0,1.0,1.0,0.0,4.0,4.0,600.8722599999601,4.0,1.0,part_1,,,,,,,,,,,,,blue,triangle
176.0,7.0,3.0,1.0,4.0,4.0,399.9141099998269,4.0,1.0,part_1,,,,,,,,,,,,,green,flipped triangle
399.0,4.0,4.0,0.0,2.0,2.0,295.0174080001488,4.0,1.0,part_1,,,,,,,,,,,,,gray,circle
0.0,7.0,0.0,1.0,3.0,3.0,335.8710869997594,4.0,1.0,part_1,,,,,,,,,,,,,green,flipped triangle
202.0,7.0,3.0,1.0,2.0,2.0,351.6151509998053,4.0,1.0,part_1,,,,,,,,,,,,,green,flipped triangle
212.0,3.0,3.0,0.0,1.0,1.0,490.0448329999562,4.0,1.0,part_1,,,,,,,,,,,,,cyan,I
30.0,1.0,1.0,0.0,3.0,3.0,291.7414739999913,4.0,1.0,part_1,,,,,,,,,,,,,blue,triangle
82.0,6.0,2.0,1.0,4.0,4.0,260.4609799996069,4.0,1.0,part_1,,,,,,,,,,,,,magenta,hexagon
107.0,6.0,2.0,1.0,3.0,3.0,358.0985589996999,4.0,1.0,part_1,,,,,,,,,,,,,magenta,hexagon
203.0,7.0,3.0,1.0,4.0,4.0,352.5264139998398,4.0,1.0,part_1,,,,,,,,,,,,,green,flipped triangle
0.0,3.0,0.0,0.0,4.0,4.0,372.8729069998735,4.0,1.0,part_1,,,,,,,,,,,,,cyan,I
65.0,5.0,1.0,1.0,2.0,2.0,390.0232890000552,4.0,1.0,part_1,,,,,,,,,,,,,yellow,cross
395.0,4.0,4.0,0.0,1.0,1.0,483.6125309998351,4.0,1.0,part_1,,,,,,,,,,,,,gray,circle
0.0,1.0,0.0,0.0,1.0,1.0,362.9591920002895,4.0,1.0,part_1,,,,,,,,,,,,,blue,triangle
380.0,8.0,4.0,1.0,1.0,1.0,343.4993420000864,4.0,1.0,part_1,,,,,,,,,,,,,white,square
417.0,4.0,4.0,0.0,4.0,4.0,437.1518930001912,4.0,1.0,part_1,,,,,,,,,,,,,gray,circle
96.0,2.0,2.0,0.0,2.0,2.0,359.0859810001348,4.0,1.0,part_1,,,,,,,,,,,,,orange,diamond
83.0,6.0,2.0,1.0,4.0,4.0,314.7633570001744,4.0,1.0,part_1,,,,,,,,,,,,,magenta,hexagon
50.0,1.0,1.0,0.0,4.0,4.0,349.490113000229,4.0,1.0,part_1,,,,,,,,,,,,,blue,triangle
77.0,6.0,2.0,1.0,4.0,4.0,323.1042649999835,4.0,1.0,part_1,,,,,,,,,,,,,magenta,hexagon
112.0,2.0,2.0,0.0,1.0,1.0,522.5316529999873,4.0,1.0,part_1,,,,,,,,,,,,,orange,diamond
185.0,3.0,3.0,0.0,2.0,2.0,544.4721690000733,4.0,1.0,part_1,,,,,,,,,,,,,cyan,I
100.0,2.0,2.0,0.0,4.0,4.0,460.9548079997694,4.0,1.0,part_1,,,,,,,,,,,,,orange,diamond
381.0,8.0,4.0,1.0,1.0,1.0,383.8496119997217,4.0,1.0,part_1,,,,,,,,,,,,,white,square
39.0,1.0,1.0,0.0,2.0,2.0,345.0373650002802,4.0,1.0,part_1,,,,,,,,,,,,,blue,triangle
50.0,5.0,1.0,1.0,2.0,2.0,274.8990369996136,4.0,1.0,part_1,,,,,,,,,,,,,yellow,cross
220.0,3.0,3.0,0.0,2.0,2.0,317.2369990002153,4.0,1.0,part_1,,,,,,,,,,,,,cyan,I
421.0,4.0,4.0,0.0,4.0,4.0,364.8502549999648,4.0,1.0,part_1,,,,,,,,,,,,,gray,circle
203.0,3.0,3.0,0.0,3.0,3.0,389.7121639997749,4.0,1.0,part_1,,,,,,,,,,,,,cyan,I
412.0,4.0,4.0,0.0,3.0,3.0,353.2802510003421,4.0,1.0,part_1,,,,,,,,,,,,,gray,circle
188.0,7.0,3.0,1.0,4.0,4.0,331.2958020001133,4.0,1.0,part_1,,,,,,,,,,,,,green,flipped triangle
205.0,7.0,3.0,1.0,1.0,1.0,398.6081699999886,4.0,1.0,part_1,,,,,,,,,,,,,green,flipped triangle
86.0,2.0,2.0,0.0,1.0,1.0,333.6900979998063,4.0,1.0,part_1,,,,,,,,,,,,,orange,diamond
0.0,3.0,0.0,0.0,1.0,1.0,329.5149800001127,4.0,1.0,part_1,,,,,,,,,,,,,cyan,I
74.0,5.0,1.0,1.0,1.0,1.0,338.2962529999531,4.0,1.0,part_1,,,,,,,,,,,,,yellow,cross
0.0,2.0,0.0,0.0,2.0,2.0,305.2656320001006,4.0,1.0,part_1,,,,,,,,,,,,,orange,diamond
209.0,7.0,3.0,1.0,2.0,2.0,338.3967459999439,4.0,1.0,part_1,,,,,,,,,,,,,green,flipped triangle
0.0,2.0,0.0,0.0,3.0,3.0,323.4340340000017,4.0,1.0,part_1,,,,,,,,,,,,,orange,diamond
0.0,3.0,0.0,0.0,2.0,2.0,312.7137809997293,4.0,1.0,part_1,,,,,,,,,,,,,cyan,I
85.0,2.0,2.0,0.0,4.0,4.0,710.8348179999666,4.0,1.0,part_1,,,,,,,,,,,,,orange,diamond
92.0,6.0,2.0,1.0,3.0,3.0,317.0205250003164,4.0,1.0,part_1,,,,,,,,,,,,,magenta,hexagon
0.0,6.0,2.0,1.0,5.0,5.0,398.4434029998738,1.0,0.0,part_2,stop,250.0,250.0,3.0,,,,,,,,,magenta,hexagon
0.0,7.0,3.0,1.0,6.0,0.0,0.0,1.0,0.0,part_2,stop,200.0,250.0,4.0,,,,,,,,,green,flipped triangle
0.0,7.0,3.0,1.0,6.0,6.0,445.2543600000354,1.0,0.0,part_2,stop,200.0,300.0,3.0,,,,,,,,,green,flipped triangle
0.0,8.0,4.0,1.0,6.0,6.0,1005.668710000009,1.0,0.0,part_2,go,200.0,250.0,1.0,,,,,,,,,white,square
0.0,7.0,3.0,1.0,6.0,0.0,0.0,1.0,0.0,part_2,stop,200.0,250.0,4.0,,,,,,,,,green,flipped triangle
0.0,4.0,4.0,0.0,5.0,5.0,651.9191319998754,1.0,0.0,part_2,go,200.0,300.0,1.0,,,,,,,,,gray,circle
0.0,2.0,2.0,0.0,5.0,5.0,815.2133640001011,1.0,0.0,part_2,go,200.0,300.0,1.0,,,,,,,,,orange,diamond
0.0,8.0,4.0,1.0,6.0,0.0,0.0,1.0,0.0,part_2,stop,200.0,300.0,4.0,,,,,,,,,white,square
0.0,2.0,2.0,0.0,5.0,5.0,684.5256770002379,1.0,0.0,part_2,go,200.0,350.0,1.0,,,,,,,,,orange,diamond
0.0,7.0,3.0,1.0,5.0,5.0,451.1789349999162,1.0,0.0,part_2,go,200.0,350.0,1.0,,,,,,,,,green,flipped triangle
0.0,8.0,4.0,1.0,5.0,0.0,0.0,1.0,0.0,part_2,stop,200.0,350.0,4.0,,,,,,,,,white,square
0.0,1.0,1.0,0.0,6.0,6.0,383.3714059996964,1.0,0.0,part_2,go,250.0,350.0,1.0,,,,,,,,,blue,triangle
0.0,1.0,1.0,0.0,5.0,5.0,710.9227819996704,1.0,0.0,part_2,go,250.0,350.0,1.0,,,,,,,,,blue,triangle
0.0,4.0,4.0,0.0,5.0,5.0,729.7138009998889,1.0,0.0,part_2,go,250.0,350.0,1.0,,,,,,,,,gray,circle
0.0,3.0,3.0,0.0,5.0,5.0,643.4134639998774,1.0,0.0,part_2,go,250.0,350.0,1.0,,,,,,,,,cyan,I
0.0,5.0,1.0,1.0,5.0,5.0,676.0279860000082,1.0,0.0,part_2,go,250.0,350.0,1.0,,,,,,,,,yellow,cross
0.0,4.0,4.0,0.0,5.0,5.0,670.9075250000751,1.0,0.0,part_2,go,250.0,350.0,1.0,,,,,,,,,gray,circle
0.0,5.0,1.0,1.0,6.0,0.0,0.0,1.0,0.0,part_2,stop,250.0,350.0,4.0,,,,,,,,,yellow,cross
0.0,2.0,2.0,0.0,6.0,6.0,1372.9495509996923,1.0,0.0,part_2,go,250.0,400.0,1.0,,,,,,,,,orange,diamond
0.0,2.0,2.0,0.0,6.0,6.0,629.4449590000113,1.0,0.0,part_2,go,250.0,400.0,1.0,,,,,,,,,orange,diamond
0.0,5.0,1.0,1.0,6.0,0.0,0.0,1.0,0.0,part_2,stop,250.0,400.0,4.0,,,,,,,,,yellow,cross
0.0,7.0,3.0,1.0,6.0,6.0,1014.2467460000262,1.0,0.0,part_2,go,250.0,450.0,1.0,,,,,,,,,green,flipped triangle
0.0,3.0,3.0,0.0,5.0,5.0,624.2734270003893,1.0,0.0,part_2,go,250.0,450.0,1.0,,,,,,,,,cyan,I
0.0,2.0,2.0,0.0,6.0,6.0,677.6388690000203,1.0,0.0,part_2,go,250.0,450.0,1.0,,,,,,,,,orange,diamond
0.0,8.0,4.0,1.0,5.0,0.0,0.0,1.0,0.0,part_2,stop,250.0,450.0,4.0,,,,,,,,,white,square
0.0,5.0,1.0,1.0,6.0,6.0,489.7882260002006,1.0,0.0,part_2,stop,300.0,450.0,3.0,,,,,,,,,yellow,cross
0.0,6.0,2.0,1.0,6.0,0.0,0.0,1.0,0.0,part_2,stop,300.0,400.0,4.0,,,,,,,,,magenta,hexagon
0.0,4.0,4.0,0.0,6.0,6.0,691.4683429999968,1.0,0.0,part_2,go,300.0,450.0,1.0,,,,,,,,,gray,circle
0.0,4.0,4.0,0.0,5.0,5.0,832.0001360002607,1.0,0.0,part_2,go,300.0,450.0,1.0,,,,,,,,,gray,circle
0.0,6.0,2.0,1.0,6.0,0.0,0.0,1.0,0.0,part_2,stop,300.0,450.0,4.0,,,,,,,,,magenta,hexagon
0.0,4.0,4.0,0.0,5.0,5.0,891.7568690003463,1.0,0.0,part_2,go,300.0,500.0,1.0,,,,,,,,,gray,circle
0.0,1.0,1.0,0.0,6.0,6.0,781.0874730002979,1.0,0.0,part_2,go,300.0,500.0,1.0,,,,,,,,,blue,triangle
0.0,6.0,2.0,1.0,5.0,5.0,1077.5261369999498,1.0,0.0,part_2,go,300.0,500.0,1.0,,,,,,,,,magenta,hexagon
0.0,2.0,2.0,0.0,5.0,5.0,1073.732791000111,1.0,0.0,part_2,go,300.0,500.0,1.0,,,,,,,,,orange,diamond
0.0,5.0,1.0,1.0,5.0,0.0,0.0,1.0,0.0,part_2,stop,300.0,500.0,4.0,,,,,,,,,yellow,cross
0.0,4.0,4.0,0.0,6.0,6.0,882.4644689998422,1.0,0.0,part_2,go,350.0,500.0,1.0,,,,,,,,,gray,circle
0.0,5.0,1.0,1.0,5.0,5.0,658.0992280000828,2.0,0.0,part_2,stop,350.0,500.0,3.0,,,,,,,,,yellow,cross
0.0,5.0,1.0,1.0,6.0,6.0,653.442394999729,2.0,0.0,part_2,stop,300.0,500.0,3.0,,,,,,,,,yellow,cross
0.0,4.0,4.0,0.0,5.0,5.0,688.108105000083,2.0,0.0,part_2,go,300.0,450.0,1.0,,,,,,,,,gray,circle
0.0,1.0,1.0,0.0,5.0,5.0,963.1362889999764,2.0,0.0,part_2,go,300.0,450.0,1.0,,,,,,,,,blue,triangle
0.0,2.0,2.0,0.0,5.0,5.0,571.4000360003411,2.0,0.0,part_2,go,300.0,450.0,1.0,,,,,,,,,orange,diamond
0.0,8.0,4.0,1.0,6.0,0.0,0.0,2.0,0.0,part_2,stop,300.0,450.0,4.0,,,,,,,,,white,square
0.0,4.0,4.0,0.0,5.0,5.0,609.2275209998661,2.0,0.0,part_2,go,300.0,500.0,1.0,,,,,,,,,gray,circle
0.0,7.0,3.0,1.0,6.0,6.0,693.5242300000937,2.0,0.0,part_2,stop,300.0,500.0,3.0,,,,,,,,,green,flipped triangle
0.0,6.0,2.0,1.0,6.0,0.0,0.0,2.0,0.0,part_2,stop,300.0,450.0,4.0,,,,,,,,,magenta,hexagon
0.0,6.0,2.0,1.0,5.0,0.0,0.0,2.0,0.0,part_2,stop,300.0,500.0,4.0,,,,,,,,,magenta,hexagon
0.0,3.0,3.0,0.0,5.0,5.0,859.9897199997031,2.0,0.0,part_2,go,350.0,500.0,1.0,,,,,,,,,cyan,I
0.0,8.0,4.0,1.0,6.0,6.0,664.6637139997438,2.0,0.0,part_2,stop,350.0,500.0,3.0,,,,,,,,,white,square
0.0,8.0,4.0,1.0,6.0,6.0,1294.223448000139,2.0,0.0,part_2,go,350.0,450.0,1.0,,,,,,,,,white,square
0.0,5.0,1.0,1.0,5.0,5.0,996.2628949997452,2.0,0.0,part_2,go,350.0,450.0,1.0,,,,,,,,,yellow,cross
0.0,3.0,3.0,0.0,5.0,5.0,754.9319350000587,2.0,0.0,part_2,go,350.0,450.0,1.0,,,,,,,,,cyan,I
0.0,6.0,2.0,1.0,5.0,5.0,633.4643199998027,2.0,0.0,part_2,go,350.0,450.0,1.0,,,,,,,,,magenta,hexagon
0.0,5.0,1.0,1.0,5.0,5.0,547.5961819997792,2.0,0.0,part_2,go,350.0,450.0,1.0,,,,,,,,,yellow,cross
0.0,2.0,2.0,0.0,5.0,5.0,357.0959479998237,2.0,0.0,part_2,go,350.0,450.0,1.0,,,,,,,,,orange,diamond
0.0,7.0,3.0,1.0,6.0,0.0,0.0,2.0,0.0,part_2,stop,350.0,450.0,4.0,,,,,,,,,green,flipped triangle
0.0,3.0,3.0,0.0,5.0,5.0,607.0809969996844,2.0,0.0,part_2,go,350.0,500.0,1.0,,,,,,,,,cyan,I
0.0,5.0,1.0,1.0,6.0,0.0,0.0,2.0,0.0,part_2,stop,350.0,500.0,4.0,,,,,,,,,yellow,cross
0.0,3.0,3.0,0.0,6.0,6.0,724.1538270000092,2.0,0.0,part_2,go,350.0,550.0,1.0,,,,,,,,,cyan,I
0.0,2.0,2.0,0.0,6.0,6.0,681.9615750000594,2.0,0.0,part_2,go,350.0,550.0,1.0,,,,,,,,,orange,diamond
0.0,1.0,1.0,0.0,6.0,6.0,814.7047269999348,2.0,0.0,part_2,go,350.0,550.0,1.0,,,,,,,,,blue,triangle
0.0,4.0,4.0,0.0,5.0,5.0,628.127553000013,2.0,0.0,part_2,go,350.0,550.0,1.0,,,,,,,,,gray,circle
0.0,2.0,2.0,0.0,5.0,5.0,474.4601699999293,2.0,0.0,part_2,go,350.0,550.0,1.0,,,,,,,,,orange,diamond
0.0,8.0,4.0,1.0,6.0,6.0,364.6636150001541,2.0,0.0,part_2,stop,350.0,550.0,3.0,,,,,,,,,white,square
0.0,4.0,4.0,0.0,5.0,5.0,612.0103809998909,2.0,0.0,part_2,go,350.0,500.0,1.0,,,,,,,,,gray,circle
0.0,3.0,3.0,0.0,6.0,6.0,667.6376599998548,2.0,0.0,part_2,go,350.0,500.0,1.0,,,,,,,,,cyan,I
0.0,6.0,2.0,1.0,6.0,6.0,676.9091749997642,2.0,0.0,part_2,stop,350.0,500.0,3.0,,,,,,,,,magenta,hexagon
0.0,3.0,3.0,0.0,6.0,6.0,1057.0752869998614,2.0,0.0,part_2,go,350.0,450.0,1.0,,,,,,,,,cyan,I
0.0,6.0,2.0,1.0,5.0,0.0,0.0,2.0,0.0,part_2,stop,350.0,450.0,4.0,,,,,,,,,magenta,hexagon
0.0,2.0,2.0,0.0,6.0,6.0,540.5406639997636,2.0,0.0,part_2,go,400.0,450.0,1.0,,,,,,,,,orange,diamond
0.0,7.0,3.0,1.0,5.0,0.0,0.0,2.0,0.0,part_2,stop,400.0,450.0,4.0,,,,,,,,,green,flipped triangle
0.0,6.0,2.0,1.0,5.0,5.0,696.1596219998682,2.0,0.0,part_2,stop,450.0,450.0,3.0,,,,,,,,,magenta,hexagon
0.0,8.0,4.0,1.0,6.0,0.0,0.0,2.0,0.0,part_2,stop,400.0,450.0,4.0,,,,,,,,,white,square
0.0,1.0,1.0,0.0,6.0,6.0,603.7845070000003,3.0,0.0,part_2,go,400.0,500.0,1.0,,,,,,,,,blue,triangle
0.0,7.0,3.0,1.0,5.0,5.0,620.0480370002879,3.0,0.0,part_2,go,400.0,500.0,1.0,,,,,,,,,green,flipped triangle
0.0,6.0,2.0,1.0,6.0,6.0,596.2756389999413,3.0,0.0,part_2,go,400.0,500.0,1.0,,,,,,,,,magenta,hexagon
0.0,5.0,1.0,1.0,6.0,6.0,400.2992910000102,3.0,0.0,part_2,stop,400.0,500.0,3.0,,,,,,,,,yellow,cross
0.0,6.0,2.0,1.0,6.0,6.0,585.8884019999095,3.0,0.0,part_2,stop,400.0,450.0,3.0,,,,,,,,,magenta,hexagon
0.0,5.0,1.0,1.0,6.0,0.0,0.0,3.0,0.0,part_2,stop,400.0,400.0,4.0,,,,,,,,,yellow,cross
0.0,4.0,4.0,0.0,5.0,5.0,448.725602000195,3.0,0.0,part_2,go,400.0,450.0,1.0,,,,,,,,,gray,circle
0.0,4.0,4.0,0.0,6.0,6.0,709.5947140001044,3.0,0.0,part_2,go,400.0,450.0,1.0,,,,,,,,,gray,circle
0.0,6.0,2.0,1.0,5.0,5.0,434.1976169998816,3.0,0.0,part_2,stop,400.0,450.0,3.0,,,,,,,,,magenta,hexagon
0.0,5.0,1.0,1.0,6.0,0.0,0.0,3.0,0.0,part_2,stop,350.0,450.0,4.0,,,,,,,,,yellow,cross
0.0,8.0,4.0,1.0,6.0,0.0,0.0,3.0,0.0,part_2,stop,350.0,500.0,4.0,,,,,,,,,white,square
0.0,5.0,1.0,1.0,5.0,5.0,750.787711999692,3.0,0.0,part_2,go,350.0,550.0,1.0,,,,,,,,,yellow,cross
0.0,7.0,3.0,1.0,5.0,5.0,434.3772249999347,3.0,0.0,part_2,stop,350.0,550.0,3.0,,,,,,,,,green,flipped triangle
0.0,7.0,3.0,1.0,5.0,0.0,0.0,3.0,0.0,part_2,stop,300.0,550.0,4.0,,,,,,,,,green,flipped triangle
0.0,5.0,1.0,1.0,6.0,0.0,0.0,3.0,0.0,part_2,stop,350.0,550.0,4.0,,,,,,,,,yellow,cross
0.0,1.0,1.0,0.0,6.0,6.0,495.2776999998605,3.0,0.0,part_2,go,350.0,600.0,1.0,,,,,,,,,blue,triangle
0.0,5.0,1.0,1.0,6.0,6.0,551.0297309997441,3.0,0.0,part_2,stop,350.0,600.0,3.0,,,,,,,,,yellow,cross
0.0,7.0,3.0,1.0,6.0,6.0,693.9853920002861,3.0,0.0,part_2,go,350.0,550.0,1.0,,,,,,,,,green,flipped triangle
0.0,7.0,3.0,1.0,5.0,0.0,0.0,3.0,0.0,part_2,stop,350.0,550.0,4.0,,,,,,,,,green,flipped triangle
0.0,6.0,2.0,1.0,5.0,0.0,0.0,3.0,0.0,part_2,stop,400.0,550.0,4.0,,,,,,,,,magenta,hexagon
0.0,7.0,3.0,1.0,6.0,6.0,787.5763980000556,3.0,0.0,part_2,go,450.0,550.0,1.0,,,,,,,,,green,flipped triangle
0.0,8.0,4.0,1.0,6.0,6.0,671.9666979997783,3.0,0.0,part_2,stop,450.0,550.0,3.0,,,,,,,,,white,square
0.0,4.0,4.0,0.0,6.0,6.0,772.4653929999477,3.0,0.0,part_2,go,450.0,500.0,1.0,,,,,,,,,gray,circle
0.0,2.0,2.0,0.0,6.0,6.0,850.9402280001268,3.0,0.0,part_2,go,450.0,500.0,1.0,,,,,,,,,orange,diamond
0.0,3.0,3.0,0.0,6.0,0.0,0.0,3.0,0.0,part_2,go,450.0,500.0,5.0,,,,,,,,,cyan,I
0.0,8.0,4.0,1.0,5.0,5.0,536.6193509998993,3.0,0.0,part_2,stop,450.0,500.0,3.0,,,,,,,,,white,square
0.0,1.0,1.0,0.0,6.0,6.0,422.2297920000528,3.0,0.0,part_2,go,400.0,500.0,1.0,,,,,,,,,blue,triangle
0.0,6.0,2.0,1.0,6.0,0.0,0.0,3.0,0.0,part_2,stop,400.0,500.0,4.0,,,,,,,,,magenta,hexagon
0.0,1.0,1.0,0.0,5.0,5.0,755.9626000002027,3.0,0.0,part_2,go,400.0,550.0,1.0,,,,,,,,,blue,triangle
0.0,5.0,1.0,1.0,6.0,0.0,0.0,3.0,0.0,part_2,stop,400.0,550.0,4.0,,,,,,,,,yellow,cross
0.0,2.0,2.0,0.0,5.0,5.0,532.9632369998762,3.0,0.0,part_2,go,400.0,600.0,1.0,,,,,,,,,orange,diamond
0.0,5.0,1.0,1.0,5.0,0.0,0.0,3.0,0.0,part_2,stop,400.0,600.0,4.0,,,,,,,,,yellow,cross
0.0,8.0,4.0,1.0,5.0,5.0,530.4936469997301,3.0,0.0,part_2,go,450.0,600.0,1.0,,,,,,,,,white,square
0.0,6.0,2.0,1.0,6.0,6.0,365.3186850001475,3.0,0.0,part_2,stop,450.0,600.0,3.0,,,,,,,,,magenta,hexagon
0.0,2.0,2.0,0.0,6.0,6.0,846.9095980003658,3.0,0.0,part_2,go,450.0,550.0,1.0,,,,,,,,,orange,diamond
0.0,2.0,2.0,0.0,5.0,5.0,639.0942569996696,3.0,0.0,part_2,go,450.0,550.0,1.0,,,,,,,,,orange,diamond
0.0,6.0,2.0,1.0,5.0,0.0,0.0,4.0,0.0,part_2,stop,450.0,550.0,4.0,,,,,,,,,magenta,hexagon
0.0,4.0,4.0,0.0,5.0,5.0,450.1232759998856,4.0,0.0,part_2,go,500.0,550.0,1.0,,,,,,,,,gray,circle
0.0,3.0,3.0,0.0,5.0,5.0,650.794883999879,4.0,0.0,part_2,go,500.0,550.0,1.0,,,,,,,,,cyan,I
0.0,1.0,1.0,0.0,6.0,6.0,283.5908799997924,4.0,0.0,part_2,go,500.0,550.0,1.0,,,,,,,,,blue,triangle
0.0,2.0,2.0,0.0,5.0,5.0,505.212150999796,4.0,0.0,part_2,go,500.0,550.0,1.0,,,,,,,,,orange,diamond
0.0,5.0,1.0,1.0,6.0,6.0,351.5974760002791,4.0,0.0,part_2,stop,500.0,550.0,3.0,,,,,,,,,yellow,cross
0.0,4.0,4.0,0.0,5.0,5.0,557.9738849992282,4.0,0.0,part_2,go,500.0,500.0,1.0,,,,,,,,,gray,circle
0.0,1.0,1.0,0.0,5.0,5.0,519.995124000161,4.0,0.0,part_2,go,500.0,500.0,1.0,,,,,,,,,blue,triangle
0.0,3.0,3.0,0.0,6.0,0.0,0.0,4.0,0.0,part_2,go,500.0,500.0,5.0,,,,,,,,,cyan,I
0.0,6.0,2.0,1.0,5.0,5.0,1092.7860299998429,4.0,0.0,part_2,go,500.0,500.0,1.0,,,,,,,,,magenta,hexagon
0.0,5.0,1.0,1.0,6.0,6.0,384.1678219996538,4.0,0.0,part_2,stop,500.0,500.0,3.0,,,,,,,,,yellow,cross
0.0,7.0,3.0,1.0,6.0,6.0,480.661272999896,4.0,0.0,part_2,stop,500.0,450.0,3.0,,,,,,,,,green,flipped triangle
0.0,8.0,4.0,1.0,5.0,5.0,462.5219469999138,4.0,0.0,part_2,stop,500.0,400.0,3.0,,,,,,,,,white,square
0.0,3.0,3.0,0.0,5.0,5.0,665.7257979995848,4.0,0.0,part_2,go,450.0,400.0,1.0,,,,,,,,,cyan,I
0.0,4.0,4.0,0.0,6.0,6.0,341.1468719996264,4.0,0.0,part_2,go,450.0,400.0,1.0,,,,,,,,,gray,circle
0.0,7.0,3.0,1.0,6.0,6.0,488.7499920005211,4.0,0.0,part_2,stop,450.0,400.0,3.0,,,,,,,,,green,flipped triangle
0.0,8.0,4.0,1.0,6.0,0.0,0.0,4.0,0.0,part_2,stop,450.0,350.0,4.0,,,,,,,,,white,square
0.0,3.0,3.0,0.0,6.0,6.0,634.1581590004353,4.0,0.0,part_2,go,450.0,400.0,1.0,,,,,,,,,cyan,I
0.0,5.0,1.0,1.0,5.0,5.0,567.061286000353,4.0,0.0,part_2,stop,450.0,400.0,3.0,,,,,,,,,yellow,cross
0.0,4.0,4.0,0.0,6.0,6.0,625.9922250001182,4.0,0.0,part_2,go,400.0,400.0,1.0,,,,,,,,,gray,circle
0.0,5.0,1.0,1.0,6.0,6.0,334.4982680000612,4.0,0.0,part_2,stop,400.0,400.0,3.0,,,,,,,,,yellow,cross
0.0,6.0,2.0,1.0,5.0,5.0,358.3706999997957,4.0,0.0,part_2,stop,400.0,350.0,3.0,,,,,,,,,magenta,hexagon
0.0,3.0,3.0,0.0,6.0,6.0,514.5927080002366,4.0,0.0,part_2,go,350.0,350.0,1.0,,,,,,,,,cyan,I
0.0,6.0,2.0,1.0,5.0,5.0,681.8564569994123,4.0,0.0,part_2,go,350.0,350.0,1.0,,,,,,,,,magenta,hexagon
0.0,3.0,3.0,0.0,5.0,5.0,686.3806209994436,4.0,0.0,part_2,go,350.0,350.0,1.0,,,,,,,,,cyan,I
0.0,3.0,3.0,0.0,5.0,5.0,390.8478940002169,4.0,0.0,part_2,go,350.0,350.0,1.0,,,,,,,,,cyan,I
0.0,4.0,4.0,0.0,6.0,6.0,358.9650699996127,4.0,0.0,part_2,go,350.0,350.0,1.0,,,,,,,,,gray,circle
0.0,1.0,1.0,0.0,5.0,5.0,334.1323159993408,4.0,0.0,part_2,go,350.0,350.0,1.0,,,,,,,,,blue,triangle
0.0,2.0,2.0,0.0,5.0,5.0,622.9512800000521,4.0,0.0,part_2,go,350.0,350.0,1.0,,,,,,,,,orange,diamond
0.0,4.0,4.0,0.0,6.0,6.0,472.1150929999567,4.0,0.0,part_2,go,350.0,350.0,1.0,,,,,,,,,gray,circle
0.0,7.0,3.0,1.0,6.0,0.0,0.0,4.0,0.0,part_2,stop,350.0,350.0,4.0,,,,,,,,,green,flipped triangle
0.0,1.0,1.0,0.0,5.0,5.0,588.7790570004654,4.0,0.0,part_2,go,350.0,400.0,1.0,,,,,,,,,blue,triangle
0.0,5.0,1.0,1.0,5.0,5.0,426.1254620005275,4.0,0.0,part_2,stop,350.0,400.0,3.0,,,,,,,,,yellow,cross
0.0,1.0,1.0,0.0,6.0,6.0,500.6547170005433,4.0,0.0,part_2,go,300.0,400.0,1.0,,,,,,,,,blue,triangle
0.0,7.0,3.0,1.0,6.0,6.0,367.3330429992347,4.0,0.0,part_2,stop,300.0,400.0,3.0,,,,,,,,,green,flipped triangle
0.0,6.0,2.0,1.0,5.0,0.0,0.0,4.0,0.0,part_2,stop,300.0,350.0,4.0,,,,,,,,,magenta,hexagon
0.0,5.0,1.0,1.0,5.0,0.0,0.0,5.0,0.0,part_2,stop,350.0,350.0,4.0,,,,,,,,,yellow,cross
0.0,4.0,4.0,0.0,5.0,5.0,472.4101519996111,5.0,0.0,part_2,go,400.0,350.0,1.0,,,,,,,,,gray,circle
0.0,7.0,3.0,1.0,6.0,6.0,400.5862129997695,5.0,0.0,part_2,stop,400.0,350.0,3.0,,,,,,,,,green,flipped triangle
0.0,8.0,4.0,1.0,6.0,0.0,0.0,5.0,0.0,part_2,stop,400.0,300.0,4.0,,,,,,,,,white,square
0.0,8.0,4.0,1.0,5.0,5.0,262.0985290004682,5.0,0.0,part_2,stop,400.0,350.0,3.0,,,,,,,,,white,square
0.0,1.0,1.0,0.0,6.0,6.0,412.7022960001341,5.0,0.0,part_2,go,350.0,350.0,1.0,,,,,,,,,blue,triangle
0.0,2.0,2.0,0.0,6.0,6.0,634.8384989996703,5.0,0.0,part_2,go,350.0,350.0,1.0,,,,,,,,,orange,diamond
0.0,3.0,3.0,0.0,6.0,6.0,545.9521239999958,5.0,0.0,part_2,go,350.0,350.0,1.0,,,,,,,,,cyan,I
0.0,8.0,4.0,1.0,5.0,5.0,387.0803429999796,5.0,0.0,part_2,stop,350.0,350.0,3.0,,,,,,,,,white,square
0.0,3.0,3.0,0.0,6.0,6.0,328.48777000072,5.0,0.0,part_2,go,300.0,350.0,1.0,,,,,,,,,cyan,I
0.0,4.0,4.0,0.0,6.0,6.0,409.592686999531,5.0,0.0,part_2,go,300.0,350.0,1.0,,,,,,,,,gray,circle
0.0,4.0,4.0,0.0,5.0,5.0,417.5685520003753,5.0,0.0,part_2,go,300.0,350.0,1.0,,,,,,,,,gray,circle
0.0,1.0,1.0,0.0,5.0,5.0,611.6027449998,5.0,0.0,part_2,go,300.0,350.0,1.0,,,,,,,,,blue,triangle
0.0,8.0,4.0,1.0,6.0,6.0,382.3930519993155,5.0,0.0,part_2,stop,300.0,350.0,3.0,,,,,,,,,white,square
0.0,8.0,4.0,1.0,5.0,5.0,391.3546640005734,5.0,0.0,part_2,stop,300.0,300.0,3.0,,,,,,,,,white,square
0.0,2.0,2.0,0.0,6.0,6.0,319.1825579997385,5.0,0.0,part_2,go,250.0,300.0,1.0,,,,,,,,,orange,diamond
0.0,3.0,3.0,0.0,5.0,5.0,395.1109939998787,5.0,0.0,part_2,go,250.0,300.0,1.0,,,,,,,,,cyan,I
0.0,8.0,4.0,1.0,6.0,6.0,359.5413230004851,5.0,0.0,part_2,stop,250.0,300.0,3.0,,,,,,,,,white,square
0.0,1.0,1.0,0.0,5.0,5.0,317.2773420001249,5.0,0.0,part_2,go,250.0,250.0,1.0,,,,,,,,,blue,triangle
0.0,3.0,3.0,0.0,5.0,5.0,348.48676000001427,5.0,0.0,part_2,go,250.0,250.0,1.0,,,,,,,,,cyan,I
0.0,2.0,2.0,0.0,6.0,6.0,363.6415689998102,5.0,0.0,part_2,go,250.0,250.0,1.0,,,,,,,,,orange,diamond
0.0,6.0,2.0,1.0,6.0,6.0,417.2768259995791,5.0,0.0,part_2,go,250.0,250.0,1.0,,,,,,,,,magenta,hexagon
0.0,8.0,4.0,1.0,5.0,0.0,0.0,5.0,0.0,part_2,stop,250.0,250.0,4.0,,,,,,,,,white,square
0.0,4.0,4.0,0.0,6.0,6.0,445.8512620003603,5.0,0.0,part_2,go,300.0,250.0,1.0,,,,,,,,,gray,circle
0.0,3.0,3.0,0.0,5.0,5.0,379.3029650005337,5.0,0.0,part_2,go,300.0,250.0,1.0,,,,,,,,,cyan,I
0.0,6.0,2.0,1.0,6.0,6.0,292.2817630005738,5.0,0.0,part_2,stop,300.0,250.0,3.0,,,,,,,,,magenta,hexagon
0.0,3.0,3.0,0.0,5.0,5.0,483.640411000124,5.0,0.0,part_2,go,300.0,200.0,1.0,,,,,,,,,cyan,I
0.0,1.0,1.0,0.0,5.0,5.0,492.4427880005169,5.0,0.0,part_2,go,300.0,200.0,1.0,,,,,,,,,blue,triangle
0.0,7.0,3.0,1.0,5.0,0.0,0.0,5.0,0.0,part_2,stop,300.0,200.0,4.0,,,,,,,,,green,flipped triangle
0.0,5.0,1.0,1.0,5.0,5.0,501.66661700041004,5.0,0.0,part_2,go,350.0,200.0,1.0,,,,,,,,,yellow,cross
0.0,2.0,2.0,0.0,5.0,5.0,564.4199979997211,5.0,0.0,part_2,go,350.0,200.0,1.0,,,,,,,,,orange,diamond
0.0,7.0,3.0,1.0,6.0,6.0,598.390795999876,5.0,0.0,part_2,go,350.0,200.0,1.0,,,,,,,,,green,flipped triangle
0.0,4.0,4.0,0.0,5.0,5.0,338.5841320005056,5.0,0.0,part_2,go,350.0,200.0,1.0,,,,,,,,,gray,circle
0.0,8.0,4.0,1.0,5.0,5.0,327.3172930003056,5.0,0.0,part_2,stop,350.0,200.0,3.0,,,,,,,,,white,square
0.0,5.0,1.0,1.0,5.0,5.0,455.5560179996973,5.0,0.0,part_2,go,300.0,200.0,1.0,,,,,,,,,yellow,cross
0.0,2.0,2.0,0.0,5.0,5.0,436.9364859994675,5.0,0.0,part_2,go,300.0,200.0,1.0,,,,,,,,,orange,diamond
0.0,1.0,1.0,0.0,6.0,6.0,463.9467369997874,6.0,0.0,part_2,go,300.0,200.0,1.0,,,,,,,,,blue,triangle
0.0,2.0,2.0,0.0,5.0,5.0,330.7287150000775,6.0,0.0,part_2,go,300.0,200.0,1.0,,,,,,,,,orange,diamond
0.0,4.0,4.0,0.0,6.0,6.0,312.3104779997447,6.0,0.0,part_2,go,300.0,200.0,1.0,,,,,,,,,gray,circle
0.0,4.0,4.0,0.0,6.0,6.0,522.064407000471,6.0,0.0,part_2,go,300.0,200.0,1.0,,,,,,,,,gray,circle
0.0,3.0,3.0,0.0,6.0,6.0,355.4696760002116,6.0,0.0,part_2,go,300.0,200.0,1.0,,,,,,,,,cyan,I
0.0,6.0,2.0,1.0,5.0,0.0,0.0,6.0,0.0,part_2,stop,300.0,200.0,4.0,,,,,,,,,magenta,hexagon
0.0,1.0,1.0,0.0,5.0,5.0,428.4308529995542,6.0,0.0,part_2,go,350.0,200.0,1.0,,,,,,,,,blue,triangle
0.0,6.0,2.0,1.0,5.0,5.0,322.3348429992256,6.0,0.0,part_2,stop,350.0,200.0,3.0,,,,,,,,,magenta,hexagon
0.0,5.0,1.0,1.0,6.0,0.0,0.0,6.0,0.0,part_2,stop,300.0,200.0,4.0,,,,,,,,,yellow,cross
0.0,6.0,2.0,1.0,6.0,6.0,504.93644699963625,6.0,0.0,part_2,go,300.0,250.0,1.0,,,,,,,,,magenta,hexagon
0.0,7.0,3.0,1.0,5.0,5.0,419.9791230003029,6.0,0.0,part_2,stop,300.0,250.0,3.0,,,,,,,,,green,flipped triangle
0.0,3.0,3.0,0.0,5.0,5.0,724.5057540003472,6.0,0.0,part_2,go,250.0,250.0,1.0,,,,,,,,,cyan,I
0.0,8.0,4.0,1.0,5.0,5.0,694.0333039992765,6.0,0.0,part_2,go,250.0,250.0,1.0,,,,,,,,,white,square
0.0,7.0,3.0,1.0,5.0,5.0,356.6663070005234,6.0,0.0,part_2,go,250.0,250.0,1.0,,,,,,,,,green,flipped triangle
0.0,8.0,4.0,1.0,5.0,5.0,393.3652870000514,6.0,0.0,part_2,go,250.0,250.0,1.0,,,,,,,,,white,square
0.0,1.0,1.0,0.0,6.0,6.0,414.6221930004685,6.0,0.0,part_2,go,250.0,250.0,1.0,,,,,,,,,blue,triangle
0.0,7.0,3.0,1.0,5.0,0.0,0.0,6.0,0.0,part_2,stop,250.0,250.0,4.0,,,,,,,,,green,flipped triangle
0.0,5.0,1.0,1.0,5.0,5.0,569.7644209994905,6.0,0.0,part_2,go,300.0,250.0,1.0,,,,,,,,,yellow,cross
0.0,2.0,2.0,0.0,6.0,6.0,538.9052059999813,6.0,0.0,part_2,go,300.0,250.0,1.0,,,,,,,,,orange,diamond
0.0,6.0,2.0,1.0,6.0,0.0,0.0,6.0,0.0,part_2,stop,300.0,250.0,4.0,,,,,,,,,magenta,hexagon
0.0,2.0,2.0,0.0,5.0,5.0,562.2785980003755,6.0,0.0,part_2,go,300.0,300.0,1.0,,,,,,,,,orange,diamond
0.0,6.0,2.0,1.0,5.0,5.0,431.2242690002676,6.0,0.0,part_2,stop,300.0,300.0,3.0,,,,,,,,,magenta,hexagon
0.0,1.0,1.0,0.0,6.0,6.0,603.5364970002774,6.0,0.0,part_2,go,250.0,300.0,1.0,,,,,,,,,blue,triangle
0.0,4.0,4.0,0.0,5.0,5.0,1005.6137049996323,6.0,0.0,part_2,go,250.0,300.0,1.0,,,,,,,,,gray,circle
0.0,8.0,4.0,1.0,5.0,0.0,0.0,6.0,0.0,part_2,stop,250.0,300.0,4.0,,,,,,,,,white,square
0.0,2.0,2.0,0.0,6.0,6.0,355.0943999998708,6.0,0.0,part_2,go,300.0,300.0,1.0,,,,,,,,,orange,diamond
0.0,2.0,2.0,0.0,5.0,5.0,365.249237000171,6.0,0.0,part_2,go,300.0,300.0,1.0,,,,,,,,,orange,diamond
0.0,1.0,1.0,0.0,6.0,6.0,487.0917869993718,6.0,0.0,part_2,go,300.0,300.0,1.0,,,,,,,,,blue,triangle
0.0,1.0,1.0,0.0,6.0,6.0,336.5321989995209,6.0,0.0,part_2,go,300.0,300.0,1.0,,,,,,,,,blue,triangle
0.0,5.0,1.0,1.0,5.0,5.0,750.2827329999491,6.0,0.0,part_2,stop,300.0,300.0,3.0,,,,,,,,,yellow,cross
0.0,2.0,2.0,0.0,6.0,6.0,386.3981109998349,6.0,0.0,part_2,go,250.0,300.0,1.0,,,,,,,,,orange,diamond
0.0,3.0,3.0,0.0,6.0,6.0,362.1206789994176,6.0,0.0,part_2,go,250.0,300.0,1.0,,,,,,,,,cyan,I
0.0,5.0,1.0,1.0,5.0,0.0,0.0,6.0,0.0,part_2,stop,250.0,300.0,4.0,,,,,,,,,yellow,cross
0.0,3.0,3.0,0.0,6.0,6.0,796.1549960000411,6.0,0.0,part_2,go,300.0,300.0,1.0,,,,,,,,,cyan,I
0.0,5.0,1.0,1.0,5.0,0.0,0.0,6.0,0.0,part_2,stop,300.0,300.0,4.0,,,,,,,,,yellow,cross
0.0,8.0,4.0,1.0,6.0,0.0,0.0,6.0,0.0,part_2,stop,350.0,300.0,4.0,,,,,,,,,white,square
0.0,7.0,3.0,1.0,5.0,0.0,0.0,7.0,0.0,part_2,stop,350.0,350.0,4.0,,,,,,,,,green,flipped triangle
0.0,1.0,1.0,0.0,6.0,6.0,598.1933519997256,7.0,0.0,part_2,go,400.0,350.0,1.0,,,,,,,,,blue,triangle
0.0,5.0,1.0,1.0,6.0,0.0,0.0,7.0,0.0,part_2,stop,400.0,350.0,4.0,,,,,,,,,yellow,cross
0.0,7.0,3.0,1.0,6.0,0.0,0.0,7.0,0.0,part_2,stop,400.0,400.0,4.0,,,,,,,,,green,flipped triangle
0.0,2.0,2.0,0.0,6.0,6.0,941.6609410000092,7.0,0.0,part_2,go,400.0,450.0,1.0,,,,,,,,,orange,diamond
0.0,1.0,1.0,0.0,5.0,5.0,388.3535320001101,7.0,0.0,part_2,go,400.0,450.0,1.0,,,,,,,,,blue,triangle
0.0,1.0,1.0,0.0,5.0,5.0,477.9858940000849,7.0,0.0,part_2,go,400.0,450.0,1.0,,,,,,,,,blue,triangle
0.0,7.0,3.0,1.0,5.0,5.0,397.2184270005527,7.0,0.0,part_2,stop,400.0,450.0,3.0,,,,,,,,,green,flipped triangle
0.0,4.0,4.0,0.0,6.0,6.0,448.5966960000951,7.0,0.0,part_2,go,350.0,450.0,1.0,,,,,,,,,gray,circle
0.0,1.0,1.0,0.0,5.0,5.0,355.3341209999416,7.0,0.0,part_2,go,350.0,450.0,1.0,,,,,,,,,blue,triangle
0.0,4.0,4.0,0.0,6.0,6.0,482.2952709992023,7.0,0.0,part_2,go,350.0,450.0,1.0,,,,,,,,,gray,circle
0.0,3.0,3.0,0.0,6.0,6.0,426.6103979998661,7.0,0.0,part_2,go,350.0,450.0,1.0,,,,,,,,,cyan,I
0.0,2.0,2.0,0.0,5.0,5.0,330.6112139998731,7.0,0.0,part_2,go,350.0,450.0,1.0,,,,,,,,,orange,diamond
0.0,6.0,2.0,1.0,6.0,6.0,363.2175680004366,7.0,0.0,part_2,go,350.0,450.0,1.0,,,,,,,,,magenta,hexagon
0.0,6.0,2.0,1.0,5.0,5.0,398.7897429997247,7.0,0.0,part_2,stop,350.0,450.0,3.0,,,,,,,,,magenta,hexagon
0.0,4.0,4.0,0.0,5.0,5.0,739.2654909999692,7.0,0.0,part_2,go,300.0,450.0,1.0,,,,,,,,,gray,circle
0.0,1.0,1.0,0.0,5.0,5.0,694.5018710002842,7.0,0.0,part_2,go,300.0,450.0,1.0,,,,,,,,,blue,triangle
0.0,7.0,3.0,1.0,5.0,5.0,393.9043759992273,7.0,0.0,part_2,stop,300.0,450.0,3.0,,,,,,,,,green,flipped triangle
0.0,3.0,3.0,0.0,6.0,6.0,728.6640949996581,7.0,0.0,part_2,go,250.0,450.0,1.0,,,,,,,,,cyan,I
0.0,8.0,4.0,1.0,6.0,0.0,0.0,7.0,0.0,part_2,stop,250.0,450.0,4.0,,,,,,,,,white,square
0.0,2.0,2.0,0.0,5.0,5.0,1420.7036869993317,7.0,0.0,part_2,go,250.0,500.0,1.0,,,,,,,,,orange,diamond
0.0,3.0,3.0,0.0,5.0,5.0,477.4091369999951,7.0,0.0,part_2,go,250.0,500.0,1.0,,,,,,,,,cyan,I
0.0,7.0,3.0,1.0,6.0,6.0,568.2865500002663,7.0,0.0,part_2,go,250.0,500.0,1.0,,,,,,,,,green,flipped triangle
0.0,2.0,2.0,0.0,6.0,6.0,505.7942389994423,7.0,0.0,part_2,go,250.0,500.0,1.0,,,,,,,,,orange,diamond
0.0,6.0,2.0,1.0,5.0,5.0,630.2537769997798,7.0,0.0,part_2,go,250.0,500.0,1.0,,,,,,,,,magenta,hexagon
0.0,1.0,1.0,0.0,6.0,6.0,519.2296530003659,7.0,0.0,part_2,go,250.0,500.0,1.0,,,,,,,,,blue,triangle
0.0,8.0,4.0,1.0,6.0,6.0,405.5290749993219,7.0,0.0,part_2,stop,250.0,500.0,3.0,,,,,,,,,white,square
0.0,4.0,4.0,0.0,6.0,6.0,399.4805579995955,7.0,0.0,part_2,go,250.0,450.0,1.0,,,,,,,,,gray,circle
0.0,7.0,3.0,1.0,6.0,6.0,875.358483999662,7.0,0.0,part_2,stop,250.0,450.0,3.0,,,,,,,,,green,flipped triangle
0.0,4.0,4.0,0.0,6.0,6.0,614.987588999611,7.0,0.0,part_2,go,250.0,400.0,1.0,,,,,,,,,gray,circle
0.0,6.0,2.0,1.0,6.0,6.0,468.0446089996621,7.0,0.0,part_2,stop,250.0,400.0,3.0,,,,,,,,,magenta,hexagon
0.0,8.0,4.0,1.0,5.0,0.0,0.0,7.0,0.0,part_2,stop,250.0,350.0,4.0,,,,,,,,,white,square
0.0,7.0,3.0,1.0,5.0,0.0,0.0,7.0,0.0,part_2,stop,300.0,350.0,4.0,,,,,,,,,green,flipped triangle
0.0,3.0,3.0,0.0,5.0,5.0,765.3835199998866,7.0,0.0,part_2,go,350.0,350.0,1.0,,,,,,,,,cyan,I
0.0,1.0,1.0,0.0,5.0,5.0,434.1377860000648,7.0,0.0,part_2,go,350.0,350.0,1.0,,,,,,,,,blue,triangle
0.0,8.0,4.0,1.0,5.0,5.0,571.2303459995383,7.0,0.0,part_2,go,350.0,350.0,1.0,,,,,,,,,white,square
0.0,1.0,1.0,0.0,5.0,0.0,0.0,8.0,0.0,part_2,go,350.0,350.0,5.0,,,,,,,,,blue,triangle
0.0,4.0,4.0,0.0,5.0,5.0,557.4456750000536,8.0,0.0,part_2,go,350.0,350.0,1.0,,,,,,,,,gray,circle
0.0,2.0,2.0,0.0,6.0,6.0,503.84863299950666,8.0,0.0,part_2,go,350.0,350.0,1.0,,,,,,,,,orange,diamond
0.0,8.0,4.0,1.0,6.0,6.0,395.4047759998502,8.0,0.0,part_2,go,350.0,350.0,1.0,,,,,,,,,white,square
0.0,4.0,4.0,0.0,6.0,6.0,472.206568000729,8.0,0.0,part_2,go,350.0,350.0,1.0,,,,,,,,,gray,circle
0.0,3.0,3.0,0.0,6.0,6.0,389.3934540001282,8.0,0.0,part_2,go,350.0,350.0,1.0,,,,,,,,,cyan,I
0.0,5.0,1.0,1.0,6.0,6.0,342.7924569996321,8.0,0.0,part_2,stop,350.0,350.0,3.0,,,,,,,,,yellow,cross
0.0,1.0,1.0,0.0,5.0,5.0,357.4576749997504,8.0,0.0,part_2,go,350.0,300.0,1.0,,,,,,,,,blue,triangle
0.0,3.0,3.0,0.0,6.0,6.0,472.4133900008382,8.0,0.0,part_2,go,350.0,300.0,1.0,,,,,,,,,cyan,I
0.0,2.0,2.0,0.0,5.0,5.0,481.3881210002364,8.0,0.0,part_2,go,350.0,300.0,1.0,,,,,,,,,orange,diamond
0.0,6.0,2.0,1.0,6.0,6.0,333.0781029999343,8.0,0.0,part_2,stop,350.0,300.0,3.0,,,,,,,,,magenta,hexagon
0.0,3.0,3.0,0.0,5.0,5.0,366.8877569998585,8.0,0.0,part_2,go,350.0,250.0,1.0,,,,,,,,,cyan,I
0.0,7.0,3.0,1.0,5.0,5.0,515.3652480003075,8.0,0.0,part_2,stop,350.0,250.0,3.0,,,,,,,,,green,flipped triangle
0.0,1.0,1.0,0.0,5.0,5.0,678.2417439999335,8.0,0.0,part_2,go,300.0,250.0,1.0,,,,,,,,,blue,triangle
0.0,7.0,3.0,1.0,5.0,0.0,0.0,8.0,0.0,part_2,stop,300.0,250.0,4.0,,,,,,,,,green,flipped triangle
0.0,4.0,4.0,0.0,6.0,6.0,388.7210069997309,8.0,0.0,part_2,go,350.0,250.0,1.0,,,,,,,,,gray,circle
0.0,3.0,3.0,0.0,6.0,6.0,631.3665650004623,8.0,0.0,part_2,go,350.0,250.0,1.0,,,,,,,,,cyan,I
0.0,2.0,2.0,0.0,6.0,6.0,337.5080810001236,8.0,0.0,part_2,go,350.0,250.0,1.0,,,,,,,,,orange,diamond
0.0,1.0,1.0,0.0,6.0,6.0,393.7974469999972,8.0,0.0,part_2,go,350.0,250.0,1.0,,,,,,,,,blue,triangle
0.0,2.0,2.0,0.0,6.0,6.0,345.9150399994541,8.0,0.0,part_2,go,350.0,250.0,1.0,,,,,,,,,orange,diamond
0.0,5.0,1.0,1.0,5.0,5.0,450.4379029995107,8.0,0.0,part_2,go,350.0,250.0,1.0,,,,,,,,,yellow,cross
0.0,7.0,3.0,1.0,6.0,6.0,550.3053450001971,8.0,0.0,part_2,go,350.0,250.0,1.0,,,,,,,,,green,flipped triangle
0.0,6.0,2.0,1.0,6.0,6.0,354.5179390002886,8.0,0.0,part_2,stop,350.0,250.0,3.0,,,,,,,,,magenta,hexagon
0.0,1.0,1.0,0.0,6.0,6.0,560.5539099997259,8.0,0.0,part_2,go,350.0,200.0,1.0,,,,,,,,,blue,triangle
0.0,6.0,2.0,1.0,6.0,0.0,0.0,8.0,0.0,part_2,stop,350.0,200.0,4.0,,,,,,,,,magenta,hexagon
0.0,5.0,1.0,1.0,6.0,6.0,628.1156650002231,8.0,0.0,part_2,go,350.0,250.0,1.0,,,,,,,,,yellow,cross
0.0,3.0,3.0,0.0,5.0,5.0,729.561289999765,8.0,0.0,part_2,go,350.0,250.0,1.0,,,,,,,,,cyan,I
0.0,7.0,3.0,1.0,5.0,5.0,486.17666500013,8.0,0.0,part_2,stop,350.0,250.0,3.0,,,,,,,,,green,flipped triangle
0.0,8.0,4.0,1.0,5.0,5.0,804.5288069997696,8.0,0.0,part_2,go,300.0,250.0,1.0,,,,,,,,,white,square
0.0,6.0,2.0,1.0,6.0,0.0,0.0,8.0,0.0,part_2,stop,300.0,250.0,4.0,,,,,,,,,magenta,hexagon
0.0,8.0,4.0,1.0,5.0,0.0,0.0,8.0,0.0,part_2,stop,300.0,300.0,4.0,,,,,,,,,white,square
0.0,3.0,3.0,0.0,6.0,6.0,567.4148680000144,8.0,0.0,part_2,go,350.0,300.0,1.0,,,,,,,,,cyan,I
0.0,8.0,4.0,1.0,6.0,6.0,387.2419019999142,8.0,0.0,part_2,stop,350.0,300.0,3.0,,,,,,,,,white,square
0.0,5.0,1.0,1.0,5.0,0.0,0.0,8.0,0.0,part_2,stop,350.0,250.0,4.0,,,,,,,,,yellow,cross
0.0,8.0,4.0,1.0,5.0,5.0,931.1775639998814,8.0,0.0,part_2,go,400.0,250.0,1.0,,,,,,,,,white,square
0.0,7.0,3.0,1.0,5.0,0.0,0.0,8.0,0.0,part_2,stop,400.0,250.0,4.0,,,,,,,,,green,flipped triangle
0.0,2.0,2.0,0.0,7.0,4.0,127.81508600073721,1.0,1.0,part_3,go,0.0,0.0,0.0,34.0,1.0,68.0,136.0,170.0,34.0,204.0,102.0,orange,diamond
0.0,5.0,1.0,1.0,7.0,2.0,3114.147326999955,1.0,1.0,part_3,go,0.0,0.0,0.0,132.0,3.0,176.0,132.0,44.0,264.0,88.0,220.0,yellow,cross
0.0,4.0,4.0,0.0,7.0,6.0,3527.5697790002596,1.0,1.0,part_3,go,0.0,0.0,0.0,78.0,2.0,156.0,234.0,117.0,195.0,39.0,78.0,gray,circle
0.0,7.0,3.0,1.0,7.0,2.0,1813.355811999827,1.0,1.0,part_3,go,0.0,0.0,0.0,68.0,2.0,136.0,68.0,34.0,102.0,170.0,204.0,green,flipped triangle
0.0,3.0,3.0,0.0,7.0,5.0,2262.5435480003944,1.0,1.0,part_3,go,0.0,0.0,0.0,176.0,4.0,220.0,264.0,132.0,44.0,176.0,88.0,cyan,I
0.0,5.0,1.0,1.0,7.0,2.0,1761.2685049998618,1.0,1.0,part_3,go,0.0,0.0,0.0,162.0,3.0,270.0,162.0,54.0,216.0,324.0,108.0,yellow,cross
0.0,2.0,2.0,0.0,7.0,1.0,732.1800150002673,1.0,1.0,part_3,go,0.0,0.0,0.0,324.0,6.0,324.0,270.0,54.0,216.0,108.0,162.0,orange,diamond
0.0,7.0,3.0,1.0,7.0,3.0,2394.594338999923,1.0,1.0,part_3,go,0.0,0.0,0.0,117.0,3.0,78.0,195.0,117.0,156.0,39.0,234.0,green,flipped triangle
0.0,8.0,4.0,1.0,7.0,4.0,1582.521538999572,1.0,1.0,part_3,go,0.0,0.0,0.0,88.0,2.0,220.0,132.0,176.0,88.0,264.0,44.0,white,square
0.0,7.0,3.0,1.0,7.0,1.0,2004.549971000415,1.0,1.0,part_3,go,0.0,0.0,0.0,156.0,4.0,156.0,39.0,195.0,117.0,78.0,234.0,green,flipped triangle
0.0,3.0,3.0,0.0,7.0,5.0,1854.4200169999383,1.0,1.0,part_3,go,0.0,0.0,0.0,54.0,1.0,162.0,270.0,324.0,108.0,54.0,216.0,cyan,I
0.0,6.0,2.0,1.0,7.0,2.0,1625.5172679993848,1.0,1.0,part_3,go,0.0,0.0,0.0,170.0,5.0,102.0,170.0,34.0,136.0,68.0,204.0,magenta,hexagon
0.0,2.0,2.0,0.0,7.0,3.0,3691.7347280004833,1.0,1.0,part_3,go,0.0,0.0,0.0,220.0,5.0,176.0,132.0,220.0,44.0,264.0,88.0,orange,diamond
0.0,4.0,4.0,0.0,7.0,4.0,2566.8010809995394,1.0,1.0,part_3,go,0.0,0.0,0.0,98.0,2.0,147.0,245.0,196.0,98.0,294.0,49.0,gray,circle
0.0,1.0,1.0,0.0,7.0,6.0,2879.527673999291,1.0,1.0,part_3,go,0.0,0.0,0.0,54.0,1.0,216.0,162.0,324.0,270.0,108.0,54.0,blue,triangle
0.0,8.0,4.0,1.0,7.0,2.0,2823.377547000746,1.0,2.0,part_3,go,0.0,0.0,0.0,78.0,2.0,234.0,78.0,195.0,156.0,39.0,117.0,white,square
0.0,6.0,2.0,1.0,7.0,5.0,1184.554880000178,1.0,1.0,part_3,go,0.0,0.0,0.0,195.0,5.0,117.0,234.0,39.0,78.0,195.0,156.0,magenta,hexagon
0.0,1.0,1.0,0.0,7.0,6.0,1510.7035780001752,1.0,1.0,part_3,go,0.0,0.0,0.0,49.0,1.0,294.0,196.0,147.0,98.0,245.0,49.0,blue,triangle
0.0,8.0,4.0,1.0,7.0,2.0,2128.8182289999895,1.0,1.0,part_3,go,0.0,0.0,0.0,216.0,4.0,108.0,216.0,324.0,270.0,54.0,162.0,white,square
0.0,1.0,1.0,0.0,7.0,2.0,1417.539234999822,1.0,1.0,part_3,go,0.0,0.0,0.0,234.0,6.0,39.0,234.0,156.0,117.0,195.0,78.0,blue,triangle
0.0,4.0,4.0,0.0,7.0,2.0,838.2042089997412,2.0,1.0,part_3,go,0.0,0.0,0.0,98.0,2.0,294.0,98.0,49.0,245.0,147.0,196.0,gray,circle
0.0,8.0,4.0,1.0,7.0,3.0,1340.0759300002392,2.0,1.0,part_3,go,0.0,0.0,0.0,117.0,3.0,156.0,39.0,117.0,195.0,234.0,78.0,white,square
0.0,8.0,4.0,1.0,7.0,3.0,0.2585450001788,2.0,1.0,part_3,go,0.0,0.0,0.0,220.0,5.0,132.0,176.0,220.0,88.0,44.0,264.0,white,square
0.0,7.0,3.0,1.0,7.0,4.0,792.0597339998494,2.0,1.0,part_3,go,0.0,0.0,0.0,34.0,1.0,204.0,170.0,102.0,34.0,136.0,68.0,green,flipped triangle
0.0,7.0,3.0,1.0,7.0,2.0,564.4787479996012,2.0,1.0,part_3,go,0.0,0.0,0.0,162.0,3.0,324.0,162.0,270.0,54.0,108.0,216.0,green,flipped triangle
0.0,5.0,1.0,1.0,7.0,4.0,765.9785249998095,2.0,1.0,part_3,go,0.0,0.0,0.0,136.0,4.0,170.0,102.0,204.0,136.0,68.0,34.0,yellow,cross
0.0,3.0,3.0,0.0,7.0,1.0,1834.866867000528,2.0,1.0,part_3,go,0.0,0.0,0.0,176.0,4.0,176.0,44.0,220.0,88.0,132.0,264.0,cyan,I
0.0,5.0,1.0,1.0,7.0,2.0,1238.3768230001806,2.0,1.0,part_3,go,0.0,0.0,0.0,216.0,4.0,270.0,216.0,108.0,324.0,162.0,54.0,yellow,cross
0.0,2.0,2.0,0.0,7.0,4.0,1152.7997869998217,2.0,1.0,part_3,go,0.0,0.0,0.0,102.0,3.0,136.0,170.0,68.0,102.0,204.0,34.0,orange,diamond
0.0,8.0,4.0,1.0,7.0,5.0,1594.7944819999975,2.0,1.0,part_3,go,0.0,0.0,0.0,68.0,2.0,102.0,34.0,136.0,170.0,68.0,204.0,white,square
0.0,1.0,1.0,0.0,7.0,2.0,1063.8154119997123,2.0,1.0,part_3,go,0.0,0.0,0.0,39.0,1.0,117.0,39.0,195.0,156.0,234.0,78.0,blue,triangle
0.0,2.0,2.0,0.0,7.0,6.0,1141.8545590004214,2.0,1.0,part_3,go,0.0,0.0,0.0,39.0,1.0,195.0,234.0,117.0,78.0,156.0,39.0,orange,diamond
0.0,4.0,4.0,0.0,7.0,3.0,1015.9545090000393,2.0,1.0,part_3,go,0.0,0.0,0.0,117.0,3.0,234.0,39.0,117.0,156.0,78.0,195.0,gray,circle
0.0,4.0,4.0,0.0,7.0,2.0,1018.0949349996808,2.0,1.0,part_3,go,0.0,0.0,0.0,88.0,2.0,264.0,88.0,176.0,44.0,132.0,220.0,gray,circle
0.0,2.0,2.0,0.0,7.0,2.0,806.1103889995138,2.0,1.0,part_3,go,0.0,0.0,0.0,162.0,3.0,270.0,162.0,108.0,216.0,324.0,54.0,orange,diamond
0.0,5.0,1.0,1.0,7.0,3.0,1132.278377000148,2.0,1.0,part_3,go,0.0,0.0,0.0,147.0,3.0,196.0,98.0,147.0,49.0,245.0,294.0,yellow,cross
0.0,2.0,2.0,0.0,7.0,3.0,648.5696380004811,2.0,1.0,part_3,go,0.0,0.0,0.0,117.0,3.0,78.0,195.0,117.0,156.0,39.0,234.0,orange,diamond
0.0,2.0,2.0,0.0,7.0,5.0,1463.440184999854,2.0,1.0,part_3,go,0.0,0.0,0.0,196.0,4.0,49.0,294.0,147.0,98.0,196.0,245.0,orange,diamond
0.0,6.0,2.0,1.0,7.0,4.0,698.4637589994236,2.0,1.0,part_3,go,0.0,0.0,0.0,102.0,3.0,204.0,170.0,136.0,102.0,68.0,34.0,magenta,hexagon
0.0,4.0,4.0,0.0,7.0,6.0,1327.6190100004897,2.0,1.0,part_3,go,0.0,0.0,0.0,176.0,4.0,44.0,264.0,88.0,220.0,132.0,176.0,gray,circle
0.0,3.0,3.0,0.0,7.0,1.0,986.9120430003022,3.0,1.0,part_3,go,0.0,0.0,0.0,195.0,5.0,195.0,39.0,78.0,156.0,234.0,117.0,cyan,I
0.0,7.0,3.0,1.0,7.0,4.0,1643.5397449995437,3.0,1.0,part_3,go,0.0,0.0,0.0,147.0,3.0,245.0,294.0,196.0,147.0,49.0,98.0,green,flipped triangle
0.0,3.0,3.0,0.0,7.0,5.0,1067.3462810000274,3.0,1.0,part_3,go,0.0,0.0,0.0,170.0,5.0,68.0,102.0,34.0,136.0,170.0,204.0,cyan,I
0.0,7.0,3.0,1.0,7.0,3.0,1884.4370090000664,3.0,1.0,part_3,go,0.0,0.0,0.0,88.0,2.0,132.0,220.0,88.0,264.0,44.0,176.0,green,flipped triangle
0.0,8.0,4.0,1.0,7.0,3.0,1067.9617150008198,3.0,1.0,part_3,go,0.0,0.0,0.0,245.0,5.0,98.0,147.0,245.0,196.0,49.0,294.0,white,square
0.0,5.0,1.0,1.0,7.0,5.0,638.6686400001054,3.0,1.0,part_3,go,0.0,0.0,0.0,49.0,1.0,294.0,196.0,245.0,98.0,49.0,147.0,yellow,cross
0.0,6.0,2.0,1.0,7.0,4.0,1486.894699000004,3.0,1.0,part_3,go,0.0,0.0,0.0,196.0,4.0,294.0,245.0,98.0,196.0,147.0,49.0,magenta,hexagon
0.0,5.0,1.0,1.0,7.0,3.0,821.4325019998796,3.0,1.0,part_3,go,0.0,0.0,0.0,170.0,5.0,34.0,102.0,170.0,204.0,136.0,68.0,yellow,cross
0.0,2.0,2.0,0.0,7.0,5.0,2057.6542409999092,3.0,1.0,part_3,go,0.0,0.0,0.0,264.0,6.0,132.0,44.0,176.0,88.0,264.0,220.0,orange,diamond
0.0,4.0,4.0,0.0,7.0,4.0,980.4025140001612,3.0,1.0,part_3,go,0.0,0.0,0.0,270.0,5.0,162.0,324.0,54.0,270.0,216.0,108.0,gray,circle
0.0,1.0,1.0,0.0,7.0,2.0,1169.1614669998671,3.0,1.0,part_3,go,0.0,0.0,0.0,264.0,6.0,132.0,264.0,88.0,220.0,176.0,44.0,blue,triangle
0.0,1.0,1.0,0.0,7.0,6.0,1610.4323009994914,3.0,1.0,part_3,go,0.0,0.0,0.0,204.0,6.0,34.0,136.0,170.0,68.0,102.0,204.0,blue,triangle
0.0,1.0,1.0,0.0,7.0,3.0,1184.0550760007318,3.0,1.0,part_3,go,0.0,0.0,0.0,264.0,6.0,88.0,176.0,264.0,132.0,220.0,44.0,blue,triangle
0.0,1.0,1.0,0.0,7.0,3.0,1467.1943889998147,3.0,1.0,part_3,go,0.0,0.0,0.0,49.0,1.0,245.0,196.0,49.0,147.0,294.0,98.0,blue,triangle
0.0,5.0,1.0,1.0,7.0,5.0,937.7301389995408,3.0,1.0,part_3,go,0.0,0.0,0.0,117.0,3.0,234.0,39.0,156.0,78.0,117.0,195.0,yellow,cross
0.0,1.0,1.0,0.0,7.0,5.0,2008.5649669999839,3.0,1.0,part_3,go,0.0,0.0,0.0,108.0,2.0,54.0,324.0,216.0,162.0,108.0,270.0,blue,triangle
0.0,6.0,2.0,1.0,7.0,2.0,916.4135419996456,3.0,1.0,part_3,go,0.0,0.0,0.0,324.0,6.0,54.0,324.0,216.0,162.0,270.0,108.0,magenta,hexagon
0.0,8.0,4.0,1.0,7.0,5.0,1880.307360000188,3.0,1.0,part_3,go,0.0,0.0,0.0,68.0,2.0,136.0,170.0,102.0,204.0,68.0,34.0,white,square
0.0,8.0,4.0,1.0,7.0,5.0,761.0443140001735,3.0,1.0,part_3,go,0.0,0.0,0.0,270.0,5.0,162.0,108.0,216.0,324.0,270.0,54.0,white,square
0.0,7.0,3.0,1.0,7.0,6.0,1653.0784220003625,3.0,1.0,part_3,go,0.0,0.0,0.0,44.0,1.0,264.0,132.0,220.0,88.0,176.0,44.0,green,flipped triangle
0.0,5.0,1.0,1.0,7.0,5.0,1377.2444059995903,4.0,1.0,part_3,go,0.0,0.0,0.0,132.0,3.0,44.0,220.0,88.0,264.0,132.0,176.0,yellow,cross
0.0,3.0,3.0,0.0,7.0,5.0,1348.8599040001643,4.0,1.0,part_3,go,0.0,0.0,0.0,68.0,2.0,102.0,170.0,34.0,136.0,68.0,204.0,cyan,I
0.0,8.0,4.0,1.0,7.0,6.0,1544.476394999947,4.0,1.0,part_3,go,0.0,0.0,0.0,98.0,2.0,245.0,49.0,196.0,147.0,294.0,98.0,white,square
0.0,4.0,4.0,0.0,7.0,6.0,1570.7785350004997,4.0,1.0,part_3,go,0.0,0.0,0.0,108.0,2.0,216.0,324.0,270.0,54.0,162.0,108.0,gray,circle
0.0,2.0,2.0,0.0,7.0,4.0,1590.3407240002707,4.0,1.0,part_3,go,0.0,0.0,0.0,147.0,3.0,98.0,294.0,245.0,147.0,49.0,196.0,orange,diamond
0.0,6.0,2.0,1.0,7.0,3.0,1477.6776850003444,4.0,1.0,part_3,go,0.0,0.0,0.0,147.0,3.0,294.0,49.0,147.0,245.0,98.0,196.0,magenta,hexagon
0.0,5.0,1.0,1.0,7.0,6.0,1353.0465660005575,4.0,1.0,part_3,go,0.0,0.0,0.0,156.0,4.0,39.0,117.0,195.0,234.0,78.0,156.0,yellow,cross
0.0,6.0,2.0,1.0,7.0,6.0,1480.7577789997597,4.0,1.0,part_3,go,0.0,0.0,0.0,132.0,3.0,220.0,264.0,44.0,88.0,176.0,132.0,magenta,hexagon
0.0,3.0,3.0,0.0,7.0,2.0,1405.7550530005756,4.0,1.0,part_3,go,0.0,0.0,0.0,108.0,2.0,54.0,108.0,324.0,216.0,270.0,162.0,cyan,I
0.0,1.0,1.0,0.0,7.0,5.0,1137.586439000188,4.0,1.0,part_3,go,0.0,0.0,0.0,204.0,6.0,170.0,34.0,102.0,136.0,204.0,68.0,blue,triangle
0.0,3.0,3.0,0.0,7.0,1.0,1780.8106610000325,4.0,1.0,part_3,go,0.0,0.0,0.0,196.0,4.0,196.0,147.0,245.0,49.0,294.0,98.0,cyan,I
0.0,3.0,3.0,0.0,7.0,1.0,1232.034950000525,4.0,1.0,part_3,go,0.0,0.0,0.0,156.0,4.0,156.0,39.0,78.0,117.0,195.0,234.0,cyan,I
0.0,7.0,3.0,1.0,7.0,5.0,1225.0252699996054,4.0,1.0,part_3,go,0.0,0.0,0.0,54.0,1.0,216.0,270.0,324.0,108.0,54.0,162.0,green,flipped triangle
0.0,6.0,2.0,1.0,7.0,3.0,1249.441509999997,4.0,1.0,part_3,go,0.0,0.0,0.0,195.0,5.0,117.0,156.0,195.0,39.0,78.0,234.0,magenta,hexagon
0.0,3.0,3.0,0.0,7.0,5.0,996.5661050000564,4.0,1.0,part_3,go,0.0,0.0,0.0,147.0,3.0,98.0,49.0,294.0,245.0,147.0,196.0,cyan,I
0.0,4.0,4.0,0.0,7.0,5.0,1639.7412119995352,4.0,1.0,part_3,go,0.0,0.0,0.0,68.0,2.0,102.0,204.0,170.0,136.0,68.0,34.0,gray,circle
0.0,6.0,2.0,1.0,7.0,3.0,2170.8577939998577,4.0,1.0,part_3,go,0.0,0.0,0.0,162.0,3.0,270.0,108.0,162.0,324.0,216.0,54.0,magenta,hexagon
0.0,7.0,3.0,1.0,7.0,6.0,2060.9767539999666,4.0,1.0,part_3,go,0.0,0.0,0.0,98.0,2.0,245.0,294.0,147.0,49.0,196.0,98.0,green,flipped triangle
0.0,6.0,2.0,1.0,7.0,4.0,1463.4620679998989,4.0,1.0,part_3,go,0.0,0.0,0.0,132.0,3.0,176.0,44.0,220.0,132.0,264.0,88.0,magenta,hexagon
0.0,4.0,4.0,0.0,7.0,4.0,1948.2374329991217,4.0,1.0,part_3,go,0.0,0.0,0.0,170.0,5.0,34.0,204.0,136.0,170.0,68.0,102.0,gray,circle
