raw_reward_magnitude,stim_reward,stepwise_reward_magnitude,paired_with_stopping,stim_location,response,reaction_time,block,num_trial_presentations,which_phase,stop_signal_trial_type,left_SSD,right_SSD,accuracy,chosen_bidding_amount,chosen_bidding_level,possible_bid_1,possible_bid_2,possible_bid_3,possible_bid_4,possible_bid_5,possible_bid_6,color_text,shape_text
26.0,1.0,0.5,0.0,3.0,3.0,678.5933690002821,1.0,1.0,phase_1,,,,,,,,,,,,,magenta,triangle
68.0,5.0,0.5,1.0,1.0,1.0,544.7703700001512,1.0,1.0,phase_1,,,,,,,,,,,,,cyan,hexagon
217.0,7.0,2.0,1.0,1.0,1.0,477.3200949998681,1.0,1.0,phase_1,,,,,,,,,,,,,white,diamond
0.0,8.0,0.0,1.0,4.0,4.0,573.4106099998826,1.0,1.0,phase_1,,,,,,,,,,,,,orange,I
32.0,1.0,0.5,0.0,3.0,3.0,583.4985229998892,1.0,1.0,phase_1,,,,,,,,,,,,,magenta,triangle
389.0,8.0,4.0,1.0,1.0,1.0,503.238415999931,1.0,1.0,phase_1,,,,,,,,,,,,,orange,I
54.0,5.0,0.5,1.0,3.0,3.0,395.2395129999786,1.0,1.0,phase_1,,,,,,,,,,,,,cyan,hexagon
196.0,3.0,2.0,0.0,1.0,1.0,498.7705429998641,1.0,1.0,phase_1,,,,,,,,,,,,,yellow,circle
0.0,1.0,0.0,0.0,1.0,1.0,502.8211100002409,1.0,1.0,phase_1,,,,,,,,,,,,,magenta,triangle
0.0,6.0,0.0,1.0,3.0,3.0,584.0639210000518,1.0,1.0,phase_1,,,,,,,,,,,,,blue,flipped triangle
116.0,2.0,1.0,0.0,3.0,3.0,587.6247780001904,1.0,1.0,phase_1,,,,,,,,,,,,,gray,cross
0.0,3.0,0.0,0.0,2.0,2.0,525.3358630002367,1.0,1.0,phase_1,,,,,,,,,,,,,yellow,circle
104.0,2.0,1.0,0.0,3.0,3.0,471.8982160002269,1.0,1.0,phase_1,,,,,,,,,,,,,gray,cross
0.0,1.0,0.0,0.0,1.0,1.0,396.9311559999369,1.0,1.0,phase_1,,,,,,,,,,,,,magenta,triangle
0.0,4.0,0.0,0.0,2.0,2.0,542.8685559995756,1.0,1.0,phase_1,,,,,,,,,,,,,green,square
195.0,3.0,2.0,0.0,3.0,3.0,405.5745149998984,1.0,1.0,phase_1,,,,,,,,,,,,,yellow,circle
0.0,8.0,0.0,1.0,2.0,2.0,475.6157749998237,1.0,1.0,phase_1,,,,,,,,,,,,,orange,I
413.0,8.0,4.0,1.0,4.0,4.0,501.6850799997883,1.0,1.0,phase_1,,,,,,,,,,,,,orange,I
115.0,2.0,1.0,0.0,4.0,4.0,455.2508679998936,1.0,1.0,phase_1,,,,,,,,,,,,,gray,cross
204.0,7.0,2.0,1.0,2.0,2.0,443.4539489998315,1.0,1.0,phase_1,,,,,,,,,,,,,white,diamond
113.0,2.0,1.0,0.0,1.0,1.0,486.8586949996825,1.0,1.0,phase_1,,,,,,,,,,,,,gray,cross
70.0,5.0,0.5,1.0,4.0,4.0,343.9608200001203,1.0,1.0,phase_1,,,,,,,,,,,,,cyan,hexagon
394.0,8.0,4.0,1.0,3.0,3.0,326.4583240002139,1.0,1.0,phase_1,,,,,,,,,,,,,orange,I
208.0,7.0,2.0,1.0,1.0,1.0,331.5167069999916,1.0,1.0,phase_1,,,,,,,,,,,,,white,diamond
215.0,7.0,2.0,1.0,2.0,2.0,453.1889459999547,1.0,1.0,phase_1,,,,,,,,,,,,,white,diamond
0.0,8.0,0.0,1.0,1.0,1.0,303.4805870001946,1.0,1.0,phase_1,,,,,,,,,,,,,orange,I
0.0,8.0,0.0,1.0,4.0,4.0,484.3980209998335,1.0,1.0,phase_1,,,,,,,,,,,,,orange,I
0.0,6.0,0.0,1.0,3.0,3.0,349.2238190001444,1.0,1.0,phase_1,,,,,,,,,,,,,blue,flipped triangle
212.0,3.0,2.0,0.0,1.0,1.0,303.9397699999426,1.0,1.0,phase_1,,,,,,,,,,,,,yellow,circle
28.0,1.0,0.5,0.0,1.0,1.0,412.8759719997106,1.0,1.0,phase_1,,,,,,,,,,,,,magenta,triangle
0.0,2.0,0.0,0.0,3.0,3.0,414.3103299998074,1.0,1.0,phase_1,,,,,,,,,,,,,gray,cross
421.0,8.0,4.0,1.0,1.0,1.0,305.0368390004223,1.0,1.0,phase_1,,,,,,,,,,,,,orange,I
112.0,2.0,1.0,0.0,3.0,3.0,336.2484419999418,1.0,1.0,phase_1,,,,,,,,,,,,,gray,cross
69.0,1.0,0.5,0.0,3.0,3.0,452.0795590001398,1.0,1.0,phase_1,,,,,,,,,,,,,magenta,triangle
185.0,3.0,2.0,0.0,3.0,3.0,460.7316159999755,1.0,1.0,phase_1,,,,,,,,,,,,,yellow,circle
181.0,7.0,2.0,1.0,3.0,3.0,393.4491279997019,1.0,1.0,phase_1,,,,,,,,,,,,,white,diamond
406.0,4.0,4.0,0.0,1.0,1.0,420.0640670001121,1.0,1.0,phase_1,,,,,,,,,,,,,green,square
0.0,4.0,0.0,0.0,3.0,3.0,363.333861999763,1.0,1.0,phase_1,,,,,,,,,,,,,green,square
378.0,8.0,4.0,1.0,4.0,4.0,420.2143839997916,1.0,1.0,phase_1,,,,,,,,,,,,,orange,I
98.0,6.0,1.0,1.0,4.0,4.0,440.5852259997118,1.0,1.0,phase_1,,,,,,,,,,,,,blue,flipped triangle
0.0,1.0,0.0,0.0,3.0,3.0,331.462515000112,1.0,1.0,phase_1,,,,,,,,,,,,,magenta,triangle
35.0,1.0,0.5,0.0,3.0,3.0,355.5685840001388,1.0,1.0,phase_1,,,,,,,,,,,,,magenta,triangle
188.0,3.0,2.0,0.0,3.0,3.0,341.2420790000396,1.0,1.0,phase_1,,,,,,,,,,,,,yellow,circle
67.0,1.0,0.5,0.0,3.0,3.0,319.0842020003401,1.0,1.0,phase_1,,,,,,,,,,,,,magenta,triangle
376.0,8.0,4.0,1.0,1.0,1.0,460.0106070001857,1.0,2.0,phase_1,,,,,,,,,,,,,orange,I
68.0,1.0,0.5,0.0,1.0,1.0,458.4642760000861,1.0,1.0,phase_1,,,,,,,,,,,,,magenta,triangle
100.0,6.0,1.0,1.0,3.0,3.0,515.440185999978,1.0,1.0,phase_1,,,,,,,,,,,,,blue,flipped triangle
415.0,4.0,4.0,0.0,2.0,2.0,463.535738000246,1.0,1.0,phase_1,,,,,,,,,,,,,green,square
210.0,7.0,2.0,1.0,4.0,4.0,610.7876420001048,1.0,1.0,phase_1,,,,,,,,,,,,,white,diamond
414.0,8.0,4.0,1.0,3.0,3.0,506.19007199975385,1.0,1.0,phase_1,,,,,,,,,,,,,orange,I
40.0,1.0,0.5,0.0,4.0,4.0,530.0775870000507,1.0,1.0,phase_1,,,,,,,,,,,,,magenta,triangle
179.0,3.0,2.0,0.0,4.0,4.0,484.3371309998474,1.0,1.0,phase_1,,,,,,,,,,,,,yellow,circle
416.0,4.0,4.0,0.0,3.0,3.0,568.7430239995592,1.0,1.0,phase_1,,,,,,,,,,,,,green,square
389.0,4.0,4.0,0.0,3.0,3.0,434.2925650003053,1.0,1.0,phase_1,,,,,,,,,,,,,green,square
0.0,1.0,0.0,0.0,3.0,3.0,845.3267079999023,1.0,1.0,phase_1,,,,,,,,,,,,,magenta,triangle
107.0,2.0,1.0,0.0,2.0,2.0,484.9737589997858,1.0,1.0,phase_1,,,,,,,,,,,,,gray,cross
121.0,2.0,1.0,0.0,2.0,2.0,440.0505580001663,1.0,1.0,phase_1,,,,,,,,,,,,,gray,cross
74.0,1.0,0.5,0.0,4.0,4.0,562.5857959998939,1.0,1.0,phase_1,,,,,,,,,,,,,magenta,triangle
409.0,8.0,4.0,1.0,3.0,3.0,554.3301270004122,1.0,1.0,phase_1,,,,,,,,,,,,,orange,I
210.0,3.0,2.0,0.0,4.0,4.0,480.7788500002061,1.0,1.0,phase_1,,,,,,,,,,,,,yellow,circle
219.0,7.0,2.0,1.0,1.0,1.0,445.8870899998146,1.0,1.0,phase_1,,,,,,,,,,,,,white,diamond
121.0,6.0,1.0,1.0,4.0,4.0,392.772837999928,1.0,1.0,phase_1,,,,,,,,,,,,,blue,flipped triangle
416.0,4.0,4.0,0.0,1.0,1.0,356.506463000187,1.0,1.0,phase_1,,,,,,,,,,,,,green,square
0.0,1.0,0.0,0.0,2.0,2.0,432.4914939998052,1.0,1.0,phase_1,,,,,,,,,,,,,magenta,triangle
0.0,7.0,0.0,1.0,3.0,3.0,429.7852409999905,1.0,1.0,phase_1,,,,,,,,,,,,,white,diamond
93.0,2.0,1.0,0.0,1.0,1.0,517.9794649998257,1.0,1.0,phase_1,,,,,,,,,,,,,gray,cross
217.0,3.0,2.0,0.0,1.0,1.0,517.3845669996808,1.0,1.0,phase_1,,,,,,,,,,,,,yellow,circle
380.0,8.0,4.0,1.0,1.0,1.0,393.7788379998892,1.0,1.0,phase_1,,,,,,,,,,,,,orange,I
99.0,6.0,1.0,1.0,2.0,2.0,493.0208380001204,1.0,1.0,phase_1,,,,,,,,,,,,,blue,flipped triangle
0.0,7.0,0.0,1.0,3.0,3.0,556.3314490000266,1.0,1.0,phase_1,,,,,,,,,,,,,white,diamond
88.0,2.0,1.0,0.0,1.0,1.0,406.1971419996553,1.0,1.0,phase_1,,,,,,,,,,,,,gray,cross
77.0,2.0,1.0,0.0,1.0,1.0,401.3715879996198,1.0,1.0,phase_1,,,,,,,,,,,,,gray,cross
60.0,1.0,0.5,0.0,3.0,3.0,472.5077670000246,1.0,1.0,phase_1,,,,,,,,,,,,,magenta,triangle
195.0,3.0,2.0,0.0,4.0,4.0,529.3580860002294,1.0,1.0,phase_1,,,,,,,,,,,,,yellow,circle
388.0,4.0,4.0,0.0,3.0,3.0,415.3093449999687,1.0,1.0,phase_1,,,,,,,,,,,,,green,square
32.0,5.0,0.5,1.0,4.0,4.0,454.4693019997794,1.0,1.0,phase_1,,,,,,,,,,,,,cyan,hexagon
175.0,7.0,2.0,1.0,3.0,3.0,432.3700810000446,1.0,1.0,phase_1,,,,,,,,,,,,,white,diamond
0.0,8.0,0.0,1.0,4.0,4.0,436.9115320000674,1.0,1.0,phase_1,,,,,,,,,,,,,orange,I
0.0,6.0,0.0,1.0,1.0,1.0,458.9713220002522,1.0,1.0,phase_1,,,,,,,,,,,,,blue,flipped triangle
181.0,3.0,2.0,0.0,2.0,2.0,424.7190450000744,1.0,1.0,phase_1,,,,,,,,,,,,,yellow,circle
99.0,2.0,1.0,0.0,2.0,2.0,391.7086129999916,1.0,2.0,phase_1,,,,,,,,,,,,,gray,cross
378.0,4.0,4.0,0.0,1.0,1.0,340.7470239999384,1.0,1.0,phase_1,,,,,,,,,,,,,green,square
102.0,2.0,1.0,0.0,4.0,4.0,530.4762929999924,1.0,1.0,phase_1,,,,,,,,,,,,,gray,cross
33.0,1.0,0.5,0.0,3.0,3.0,477.41358400026,1.0,1.0,phase_1,,,,,,,,,,,,,magenta,triangle
81.0,2.0,1.0,0.0,2.0,2.0,371.5279520001786,1.0,1.0,phase_1,,,,,,,,,,,,,gray,cross
44.0,1.0,0.5,0.0,1.0,1.0,351.569814999948,1.0,1.0,phase_1,,,,,,,,,,,,,magenta,triangle
108.0,2.0,1.0,0.0,4.0,4.0,544.0538900002139,1.0,1.0,phase_1,,,,,,,,,,,,,gray,cross
108.0,6.0,1.0,1.0,3.0,3.0,499.880967000081,1.0,1.0,phase_1,,,,,,,,,,,,,blue,flipped triangle
204.0,7.0,2.0,1.0,2.0,2.0,440.9159779997935,1.0,1.0,phase_1,,,,,,,,,,,,,white,diamond
0.0,8.0,0.0,1.0,4.0,4.0,553.8844909997351,1.0,1.0,phase_1,,,,,,,,,,,,,orange,I
388.0,8.0,4.0,1.0,2.0,2.0,535.0193829999625,1.0,1.0,phase_1,,,,,,,,,,,,,orange,I
389.0,4.0,4.0,0.0,4.0,4.0,461.9372340002883,1.0,1.0,phase_1,,,,,,,,,,,,,green,square
398.0,8.0,4.0,1.0,4.0,4.0,492.3187019999204,1.0,1.0,phase_1,,,,,,,,,,,,,orange,I
0.0,8.0,0.0,1.0,4.0,4.0,423.1597759999204,1.0,1.0,phase_1,,,,,,,,,,,,,orange,I
0.0,3.0,0.0,0.0,2.0,2.0,480.0332989998424,1.0,1.0,phase_1,,,,,,,,,,,,,yellow,circle
0.0,4.0,0.0,0.0,4.0,4.0,390.5500969999593,1.0,1.0,phase_1,,,,,,,,,,,,,green,square
77.0,6.0,1.0,1.0,1.0,1.0,456.0144179999952,1.0,1.0,phase_1,,,,,,,,,,,,,blue,flipped triangle
418.0,8.0,4.0,1.0,4.0,4.0,359.3293209996773,1.0,1.0,phase_1,,,,,,,,,,,,,orange,I
102.0,2.0,1.0,0.0,1.0,1.0,414.8072210000464,1.0,1.0,phase_1,,,,,,,,,,,,,gray,cross
394.0,4.0,4.0,0.0,1.0,1.0,412.7062520001345,1.0,1.0,phase_1,,,,,,,,,,,,,green,square
122.0,6.0,1.0,1.0,2.0,2.0,520.8819869999388,2.0,1.0,phase_1,,,,,,,,,,,,,blue,flipped triangle
395.0,8.0,4.0,1.0,1.0,1.0,465.8950539997022,2.0,1.0,phase_1,,,,,,,,,,,,,orange,I
189.0,3.0,2.0,0.0,1.0,1.0,379.218604000016,2.0,1.0,phase_1,,,,,,,,,,,,,yellow,circle
89.0,2.0,1.0,0.0,4.0,4.0,490.3336140000647,2.0,1.0,phase_1,,,,,,,,,,,,,gray,cross
33.0,5.0,0.5,1.0,1.0,1.0,348.0078509996929,2.0,1.0,phase_1,,,,,,,,,,,,,cyan,hexagon
397.0,4.0,4.0,0.0,1.0,1.0,400.81650499996607,2.0,1.0,phase_1,,,,,,,,,,,,,green,square
181.0,3.0,2.0,0.0,1.0,1.0,357.3920909998378,2.0,1.0,phase_1,,,,,,,,,,,,,yellow,circle
67.0,1.0,0.5,0.0,2.0,2.0,387.6010829999359,2.0,1.0,phase_1,,,,,,,,,,,,,magenta,triangle
0.0,5.0,0.0,1.0,4.0,4.0,580.1989589999721,2.0,1.0,phase_1,,,,,,,,,,,,,cyan,hexagon
0.0,3.0,0.0,0.0,4.0,4.0,582.5775489997795,2.0,1.0,phase_1,,,,,,,,,,,,,yellow,circle
0.0,2.0,0.0,0.0,1.0,1.0,408.5361000002194,2.0,1.0,phase_1,,,,,,,,,,,,,gray,cross
60.0,1.0,0.5,0.0,3.0,3.0,695.6974449999507,2.0,1.0,phase_1,,,,,,,,,,,,,magenta,triangle
68.0,1.0,0.5,0.0,4.0,4.0,398.5151609999775,2.0,1.0,phase_1,,,,,,,,,,,,,magenta,triangle
67.0,5.0,0.5,1.0,2.0,2.0,382.0507899999938,2.0,1.0,phase_1,,,,,,,,,,,,,cyan,hexagon
204.0,3.0,2.0,0.0,3.0,3.0,429.5612749997417,2.0,1.0,phase_1,,,,,,,,,,,,,yellow,circle
52.0,5.0,0.5,1.0,3.0,3.0,443.068580000272,2.0,1.0,phase_1,,,,,,,,,,,,,cyan,hexagon
86.0,2.0,1.0,0.0,1.0,1.0,635.1345590001074,2.0,1.0,phase_1,,,,,,,,,,,,,gray,cross
409.0,4.0,4.0,0.0,2.0,2.0,462.9114529998333,2.0,1.0,phase_1,,,,,,,,,,,,,green,square
375.0,4.0,4.0,0.0,1.0,1.0,427.0615780001208,2.0,1.0,phase_1,,,,,,,,,,,,,green,square
59.0,5.0,0.5,1.0,4.0,4.0,440.1894819998233,2.0,1.0,phase_1,,,,,,,,,,,,,cyan,hexagon
0.0,4.0,0.0,0.0,2.0,2.0,369.1955689996575,2.0,1.0,phase_1,,,,,,,,,,,,,green,square
0.0,8.0,0.0,1.0,2.0,2.0,421.8320179998045,2.0,1.0,phase_1,,,,,,,,,,,,,orange,I
395.0,4.0,4.0,0.0,1.0,1.0,411.9829450000907,2.0,1.0,phase_1,,,,,,,,,,,,,green,square
28.0,1.0,0.5,0.0,2.0,2.0,378.9202030002343,2.0,1.0,phase_1,,,,,,,,,,,,,magenta,triangle
38.0,5.0,0.5,1.0,1.0,1.0,342.9701119998753,2.0,1.0,phase_1,,,,,,,,,,,,,cyan,hexagon
108.0,6.0,1.0,1.0,4.0,4.0,435.1469829998677,2.0,1.0,phase_1,,,,,,,,,,,,,blue,flipped triangle
88.0,6.0,1.0,1.0,1.0,1.0,445.4530430002705,2.0,1.0,phase_1,,,,,,,,,,,,,blue,flipped triangle
89.0,6.0,1.0,1.0,4.0,4.0,422.3750790001759,2.0,1.0,phase_1,,,,,,,,,,,,,blue,flipped triangle
102.0,2.0,1.0,0.0,4.0,4.0,450.6970219999857,2.0,1.0,phase_1,,,,,,,,,,,,,gray,cross
56.0,5.0,0.5,1.0,3.0,3.0,520.575307999934,2.0,1.0,phase_1,,,,,,,,,,,,,cyan,hexagon
0.0,2.0,0.0,0.0,1.0,1.0,371.3252569996257,2.0,1.0,phase_1,,,,,,,,,,,,,gray,cross
68.0,5.0,0.5,1.0,2.0,2.0,428.4729040000457,2.0,1.0,phase_1,,,,,,,,,,,,,cyan,hexagon
112.0,6.0,1.0,1.0,4.0,4.0,586.5303259997745,2.0,1.0,phase_1,,,,,,,,,,,,,blue,flipped triangle
98.0,2.0,1.0,0.0,3.0,3.0,512.5694949997524,2.0,1.0,phase_1,,,,,,,,,,,,,gray,cross
56.0,1.0,0.5,0.0,4.0,4.0,617.9855390000739,2.0,1.0,phase_1,,,,,,,,,,,,,magenta,triangle
72.0,5.0,0.5,1.0,2.0,2.0,631.8981280001026,2.0,1.0,phase_1,,,,,,,,,,,,,cyan,hexagon
208.0,3.0,2.0,0.0,3.0,3.0,614.9407789998804,2.0,1.0,phase_1,,,,,,,,,,,,,yellow,circle
113.0,6.0,1.0,1.0,3.0,3.0,436.0260100002051,2.0,1.0,phase_1,,,,,,,,,,,,,blue,flipped triangle
113.0,6.0,1.0,1.0,3.0,3.0,416.9796480000514,2.0,1.0,phase_1,,,,,,,,,,,,,blue,flipped triangle
415.0,8.0,4.0,1.0,3.0,3.0,600.8820379997815,2.0,1.0,phase_1,,,,,,,,,,,,,orange,I
100.0,2.0,1.0,0.0,1.0,1.0,550.6831889997557,2.0,1.0,phase_1,,,,,,,,,,,,,gray,cross
398.0,4.0,4.0,0.0,4.0,4.0,450.2356530001634,2.0,1.0,phase_1,,,,,,,,,,,,,green,square
38.0,1.0,0.5,0.0,2.0,2.0,409.0694159999657,2.0,1.0,phase_1,,,,,,,,,,,,,magenta,triangle
212.0,7.0,2.0,1.0,2.0,2.0,490.3056929997547,2.0,1.0,phase_1,,,,,,,,,,,,,white,diamond
44.0,5.0,0.5,1.0,4.0,4.0,483.0493710001065,2.0,1.0,phase_1,,,,,,,,,,,,,cyan,hexagon
421.0,4.0,4.0,0.0,2.0,2.0,387.7156260000447,2.0,1.0,phase_1,,,,,,,,,,,,,green,square
0.0,7.0,0.0,1.0,1.0,1.0,510.0179700002627,2.0,1.0,phase_1,,,,,,,,,,,,,white,diamond
204.0,7.0,2.0,1.0,4.0,4.0,558.5030059996825,2.0,1.0,phase_1,,,,,,,,,,,,,white,diamond
406.0,8.0,4.0,1.0,2.0,2.0,516.459450000184,2.0,1.0,phase_1,,,,,,,,,,,,,orange,I
28.0,5.0,0.5,1.0,3.0,3.0,576.4914989999852,2.0,1.0,phase_1,,,,,,,,,,,,,cyan,hexagon
410.0,8.0,4.0,1.0,1.0,1.0,600.6160390002151,2.0,1.0,phase_1,,,,,,,,,,,,,orange,I
214.0,7.0,2.0,1.0,1.0,1.0,420.7352409998748,2.0,1.0,phase_1,,,,,,,,,,,,,white,diamond
31.0,1.0,0.5,0.0,4.0,4.0,440.7305169997926,2.0,1.0,phase_1,,,,,,,,,,,,,magenta,triangle
413.0,4.0,4.0,0.0,1.0,1.0,548.3047630000328,2.0,1.0,phase_1,,,,,,,,,,,,,green,square
0.0,3.0,0.0,0.0,3.0,3.0,501.14652899992507,2.0,1.0,phase_1,,,,,,,,,,,,,yellow,circle
52.0,1.0,0.5,0.0,4.0,4.0,448.6993839996103,2.0,1.0,phase_1,,,,,,,,,,,,,magenta,triangle
71.0,1.0,0.5,0.0,2.0,2.0,500.70408100009445,2.0,1.0,phase_1,,,,,,,,,,,,,magenta,triangle
175.0,3.0,2.0,0.0,2.0,2.0,366.2001299999247,2.0,1.0,phase_1,,,,,,,,,,,,,yellow,circle
52.0,5.0,0.5,1.0,4.0,4.0,458.4629699998004,2.0,1.0,phase_1,,,,,,,,,,,,,cyan,hexagon
0.0,7.0,0.0,1.0,1.0,1.0,469.7809979998055,2.0,1.0,phase_1,,,,,,,,,,,,,white,diamond
85.0,6.0,1.0,1.0,2.0,2.0,413.9107639998656,2.0,1.0,phase_1,,,,,,,,,,,,,blue,flipped triangle
0.0,5.0,0.0,1.0,4.0,4.0,649.8622970002543,2.0,1.0,phase_1,,,,,,,,,,,,,cyan,hexagon
0.0,5.0,0.0,1.0,2.0,2.0,397.3032230001081,2.0,1.0,phase_1,,,,,,,,,,,,,cyan,hexagon
0.0,4.0,0.0,0.0,4.0,4.0,603.6246789999495,2.0,1.0,phase_1,,,,,,,,,,,,,green,square
204.0,3.0,2.0,0.0,1.0,1.0,534.9195070002679,2.0,1.0,phase_1,,,,,,,,,,,,,yellow,circle
416.0,8.0,4.0,1.0,4.0,4.0,565.6195179999486,2.0,1.0,phase_1,,,,,,,,,,,,,orange,I
0.0,2.0,0.0,0.0,1.0,1.0,460.21034100022,2.0,1.0,phase_1,,,,,,,,,,,,,gray,cross
104.0,6.0,1.0,1.0,3.0,3.0,596.7300319998685,2.0,1.0,phase_1,,,,,,,,,,,,,blue,flipped triangle
210.0,7.0,2.0,1.0,1.0,1.0,509.2377660002967,2.0,1.0,phase_1,,,,,,,,,,,,,white,diamond
27.0,5.0,0.5,1.0,1.0,1.0,501.75136899997597,2.0,1.0,phase_1,,,,,,,,,,,,,cyan,hexagon
189.0,7.0,2.0,1.0,3.0,3.0,493.06695499990377,2.0,1.0,phase_1,,,,,,,,,,,,,white,diamond
189.0,3.0,2.0,0.0,1.0,1.0,488.7366149996524,2.0,1.0,phase_1,,,,,,,,,,,,,yellow,circle
382.0,4.0,4.0,0.0,2.0,2.0,402.9599139998936,2.0,1.0,phase_1,,,,,,,,,,,,,green,square
41.0,1.0,0.5,0.0,1.0,1.0,429.4373200000336,2.0,1.0,phase_1,,,,,,,,,,,,,magenta,triangle
400.0,4.0,4.0,0.0,2.0,2.0,432.2241730001224,2.0,1.0,phase_1,,,,,,,,,,,,,green,square
26.0,5.0,0.5,1.0,4.0,4.0,590.2043799997045,2.0,1.0,phase_1,,,,,,,,,,,,,cyan,hexagon
175.0,7.0,2.0,1.0,4.0,4.0,412.2371140001633,2.0,1.0,phase_1,,,,,,,,,,,,,white,diamond
44.0,5.0,0.5,1.0,2.0,2.0,394.5710550001422,2.0,1.0,phase_1,,,,,,,,,,,,,cyan,hexagon
32.0,5.0,0.5,1.0,3.0,3.0,520.9747169997172,2.0,1.0,phase_1,,,,,,,,,,,,,cyan,hexagon
99.0,2.0,1.0,0.0,4.0,4.0,498.7905429998136,2.0,1.0,phase_1,,,,,,,,,,,,,gray,cross
0.0,5.0,0.0,1.0,2.0,2.0,376.4971690002312,2.0,1.0,phase_1,,,,,,,,,,,,,cyan,hexagon
100.0,2.0,1.0,0.0,2.0,2.0,371.7366289997699,2.0,1.0,phase_1,,,,,,,,,,,,,gray,cross
0.0,6.0,0.0,1.0,2.0,2.0,369.1489339998952,2.0,1.0,phase_1,,,,,,,,,,,,,blue,flipped triangle
189.0,7.0,2.0,1.0,3.0,3.0,469.7400260001814,2.0,1.0,phase_1,,,,,,,,,,,,,white,diamond
0.0,4.0,0.0,0.0,4.0,4.0,463.9353410002513,2.0,1.0,phase_1,,,,,,,,,,,,,green,square
35.0,5.0,0.5,1.0,2.0,2.0,378.0098689999249,2.0,1.0,phase_1,,,,,,,,,,,,,cyan,hexagon
179.0,7.0,2.0,1.0,3.0,3.0,524.2564539998966,2.0,1.0,phase_1,,,,,,,,,,,,,white,diamond
0.0,3.0,0.0,0.0,1.0,1.0,502.40593599983185,2.0,1.0,phase_1,,,,,,,,,,,,,yellow,circle
54.0,1.0,0.5,0.0,2.0,2.0,468.267022999953,2.0,1.0,phase_1,,,,,,,,,,,,,magenta,triangle
181.0,7.0,2.0,1.0,1.0,1.0,612.6394070001879,2.0,1.0,phase_1,,,,,,,,,,,,,white,diamond
418.0,4.0,4.0,0.0,3.0,3.0,679.6351660000255,2.0,1.0,phase_1,,,,,,,,,,,,,green,square
389.0,8.0,4.0,1.0,3.0,3.0,633.2004599998982,2.0,1.0,phase_1,,,,,,,,,,,,,orange,I
214.0,3.0,2.0,0.0,2.0,2.0,486.1062360000687,2.0,1.0,phase_1,,,,,,,,,,,,,yellow,circle
201.0,3.0,2.0,0.0,4.0,4.0,665.1804979996996,2.0,1.0,phase_1,,,,,,,,,,,,,yellow,circle
102.0,6.0,1.0,1.0,1.0,1.0,468.6898899999505,2.0,1.0,phase_1,,,,,,,,,,,,,blue,flipped triangle
118.0,2.0,1.0,0.0,1.0,1.0,577.9985369999849,2.0,1.0,phase_1,,,,,,,,,,,,,gray,cross
192.0,7.0,2.0,1.0,3.0,3.0,600.0827949997074,2.0,1.0,phase_1,,,,,,,,,,,,,white,diamond
223.0,3.0,2.0,0.0,2.0,2.0,581.004982000195,2.0,1.0,phase_1,,,,,,,,,,,,,yellow,circle
99.0,2.0,1.0,0.0,2.0,2.0,424.5855949998258,2.0,1.0,phase_1,,,,,,,,,,,,,gray,cross
0.0,2.0,0.0,0.0,4.0,4.0,608.0073869998159,2.0,1.0,phase_1,,,,,,,,,,,,,gray,cross
58.0,5.0,0.5,1.0,3.0,3.0,573.0617969998093,3.0,1.0,phase_1,,,,,,,,,,,,,cyan,hexagon
0.0,5.0,0.0,1.0,3.0,3.0,413.3446040000308,3.0,1.0,phase_1,,,,,,,,,,,,,cyan,hexagon
195.0,7.0,2.0,1.0,3.0,3.0,334.1025800000352,3.0,1.0,phase_1,,,,,,,,,,,,,white,diamond
0.0,2.0,0.0,0.0,3.0,3.0,372.4028490000819,3.0,1.0,phase_1,,,,,,,,,,,,,gray,cross
99.0,6.0,1.0,1.0,3.0,3.0,351.5881220000665,3.0,1.0,phase_1,,,,,,,,,,,,,blue,flipped triangle
400.0,4.0,4.0,0.0,3.0,3.0,310.0670029998582,3.0,1.0,phase_1,,,,,,,,,,,,,green,square
416.0,8.0,4.0,1.0,4.0,4.0,395.5519149999418,3.0,1.0,phase_1,,,,,,,,,,,,,orange,I
41.0,5.0,0.5,1.0,3.0,3.0,363.0112460000418,3.0,1.0,phase_1,,,,,,,,,,,,,cyan,hexagon
392.0,8.0,4.0,1.0,2.0,2.0,478.2112439997945,3.0,1.0,phase_1,,,,,,,,,,,,,orange,I
414.0,4.0,4.0,0.0,4.0,4.0,520.8639259999472,3.0,1.0,phase_1,,,,,,,,,,,,,green,square
86.0,6.0,1.0,1.0,2.0,2.0,393.5631499998635,3.0,1.0,phase_1,,,,,,,,,,,,,blue,flipped triangle
183.0,3.0,2.0,0.0,2.0,2.0,376.5857409998716,3.0,1.0,phase_1,,,,,,,,,,,,,yellow,circle
39.0,1.0,0.5,0.0,4.0,4.0,427.1739760001765,3.0,1.0,phase_1,,,,,,,,,,,,,magenta,triangle
71.0,5.0,0.5,1.0,1.0,1.0,377.0809839998037,3.0,1.0,phase_1,,,,,,,,,,,,,cyan,hexagon
196.0,7.0,2.0,1.0,1.0,1.0,367.0377030002782,3.0,1.0,phase_1,,,,,,,,,,,,,white,diamond
113.0,2.0,1.0,0.0,4.0,4.0,406.7679120003049,3.0,1.0,phase_1,,,,,,,,,,,,,gray,cross
59.0,1.0,0.5,0.0,2.0,2.0,369.1024670001752,3.0,1.0,phase_1,,,,,,,,,,,,,magenta,triangle
413.0,8.0,4.0,1.0,2.0,2.0,370.3863680002541,3.0,1.0,phase_1,,,,,,,,,,,,,orange,I
201.0,7.0,2.0,1.0,2.0,2.0,344.2212139998446,3.0,1.0,phase_1,,,,,,,,,,,,,white,diamond
421.0,8.0,4.0,1.0,3.0,3.0,631.2670340003024,3.0,1.0,phase_1,,,,,,,,,,,,,orange,I
93.0,6.0,1.0,1.0,2.0,2.0,444.8506430003363,3.0,1.0,phase_1,,,,,,,,,,,,,blue,flipped triangle
194.0,3.0,2.0,0.0,1.0,1.0,388.0269920000501,3.0,1.0,phase_1,,,,,,,,,,,,,yellow,circle
375.0,8.0,4.0,1.0,3.0,3.0,481.3763130000552,3.0,1.0,phase_1,,,,,,,,,,,,,orange,I
397.0,8.0,4.0,1.0,3.0,3.0,473.4505389997139,3.0,1.0,phase_1,,,,,,,,,,,,,orange,I
49.0,5.0,0.5,1.0,1.0,1.0,456.9142159998591,3.0,1.0,phase_1,,,,,,,,,,,,,cyan,hexagon
224.0,7.0,2.0,1.0,4.0,4.0,603.2049599998572,3.0,1.0,phase_1,,,,,,,,,,,,,white,diamond
38.0,1.0,0.5,0.0,1.0,1.0,466.8262349996439,3.0,1.0,phase_1,,,,,,,,,,,,,magenta,triangle
39.0,5.0,0.5,1.0,2.0,2.0,488.9863680000417,3.0,1.0,phase_1,,,,,,,,,,,,,cyan,hexagon
125.0,6.0,1.0,1.0,3.0,3.0,619.7333830000389,3.0,1.0,phase_1,,,,,,,,,,,,,blue,flipped triangle
417.0,4.0,4.0,0.0,3.0,3.0,507.6418610001383,3.0,1.0,phase_1,,,,,,,,,,,,,green,square
195.0,7.0,2.0,1.0,4.0,4.0,636.9807850001052,3.0,1.0,phase_1,,,,,,,,,,,,,white,diamond
177.0,7.0,2.0,1.0,2.0,2.0,419.6700470001815,3.0,1.0,phase_1,,,,,,,,,,,,,white,diamond
209.0,3.0,2.0,0.0,4.0,4.0,491.284634999829,3.0,1.0,phase_1,,,,,,,,,,,,,yellow,circle
217.0,7.0,2.0,1.0,3.0,3.0,490.3223430001162,3.0,1.0,phase_1,,,,,,,,,,,,,white,diamond
218.0,7.0,2.0,1.0,4.0,4.0,493.555975000163,3.0,1.0,phase_1,,,,,,,,,,,,,white,diamond
85.0,2.0,1.0,0.0,3.0,3.0,501.56373200024973,3.0,1.0,phase_1,,,,,,,,,,,,,gray,cross
58.0,1.0,0.5,0.0,1.0,1.0,549.9647100000402,3.0,1.0,phase_1,,,,,,,,,,,,,magenta,triangle
52.0,1.0,0.5,0.0,1.0,1.0,581.1674049996327,3.0,1.0,phase_1,,,,,,,,,,,,,magenta,triangle
102.0,6.0,1.0,1.0,2.0,2.0,401.4396049997231,3.0,1.0,phase_1,,,,,,,,,,,,,blue,flipped triangle
122.0,2.0,1.0,0.0,4.0,4.0,566.3416269999288,3.0,1.0,phase_1,,,,,,,,,,,,,gray,cross
394.0,4.0,4.0,0.0,2.0,2.0,431.6012790000059,3.0,1.0,phase_1,,,,,,,,,,,,,green,square
408.0,8.0,4.0,1.0,4.0,4.0,592.4494629998662,3.0,1.0,phase_1,,,,,,,,,,,,,orange,I
0.0,5.0,0.0,1.0,3.0,3.0,528.0897220000043,3.0,1.0,phase_1,,,,,,,,,,,,,cyan,hexagon
0.0,5.0,0.0,1.0,2.0,2.0,393.3487700001024,3.0,1.0,phase_1,,,,,,,,,,,,,cyan,hexagon
379.0,4.0,4.0,0.0,4.0,4.0,521.5166259999933,3.0,1.0,phase_1,,,,,,,,,,,,,green,square
48.0,1.0,0.5,0.0,2.0,2.0,419.8532620002879,3.0,1.0,phase_1,,,,,,,,,,,,,magenta,triangle
396.0,4.0,4.0,0.0,3.0,3.0,442.0138330001464,3.0,1.0,phase_1,,,,,,,,,,,,,green,square
212.0,3.0,2.0,0.0,4.0,4.0,560.0736680003138,3.0,1.0,phase_1,,,,,,,,,,,,,yellow,circle
0.0,5.0,0.0,1.0,3.0,3.0,378.9056539999365,3.0,1.0,phase_1,,,,,,,,,,,,,cyan,hexagon
0.0,7.0,0.0,1.0,1.0,1.0,384.7670639997886,3.0,1.0,phase_1,,,,,,,,,,,,,white,diamond
90.0,2.0,1.0,0.0,2.0,2.0,542.1672490001583,3.0,1.0,phase_1,,,,,,,,,,,,,gray,cross
0.0,7.0,0.0,1.0,2.0,2.0,390.0898009997036,3.0,1.0,phase_1,,,,,,,,,,,,,white,diamond
398.0,4.0,4.0,0.0,4.0,4.0,517.1553770001083,3.0,1.0,phase_1,,,,,,,,,,,,,green,square
183.0,7.0,2.0,1.0,2.0,2.0,425.7018240000434,3.0,1.0,phase_1,,,,,,,,,,,,,white,diamond
0.0,1.0,0.0,0.0,4.0,4.0,505.08997199995065,3.0,1.0,phase_1,,,,,,,,,,,,,magenta,triangle
75.0,5.0,0.5,1.0,1.0,1.0,425.2726800000346,3.0,1.0,phase_1,,,,,,,,,,,,,cyan,hexagon
27.0,1.0,0.5,0.0,3.0,3.0,419.376641999861,3.0,1.0,phase_1,,,,,,,,,,,,,magenta,triangle
394.0,8.0,4.0,1.0,3.0,3.0,498.8724700001512,3.0,1.0,phase_1,,,,,,,,,,,,,orange,I
35.0,5.0,0.5,1.0,4.0,4.0,536.299840999618,3.0,1.0,phase_1,,,,,,,,,,,,,cyan,hexagon
76.0,2.0,1.0,0.0,3.0,3.0,480.475374999969,3.0,1.0,phase_1,,,,,,,,,,,,,gray,cross
49.0,1.0,0.5,0.0,1.0,1.0,451.5839890000279,3.0,1.0,phase_1,,,,,,,,,,,,,magenta,triangle
84.0,6.0,1.0,1.0,2.0,2.0,443.3977609996873,3.0,1.0,phase_1,,,,,,,,,,,,,blue,flipped triangle
188.0,7.0,2.0,1.0,2.0,2.0,433.4664580001117,3.0,1.0,phase_1,,,,,,,,,,,,,white,diamond
33.0,5.0,0.5,1.0,4.0,4.0,511.13680600019507,3.0,1.0,phase_1,,,,,,,,,,,,,cyan,hexagon
86.0,6.0,1.0,1.0,1.0,1.0,487.63865699993397,3.0,1.0,phase_1,,,,,,,,,,,,,blue,flipped triangle
204.0,3.0,2.0,0.0,2.0,2.0,366.5077949999613,3.0,1.0,phase_1,,,,,,,,,,,,,yellow,circle
0.0,3.0,0.0,0.0,1.0,1.0,562.3704770000586,3.0,1.0,phase_1,,,,,,,,,,,,,yellow,circle
0.0,3.0,0.0,0.0,3.0,3.0,527.4634900001729,3.0,1.0,phase_1,,,,,,,,,,,,,yellow,circle
69.0,5.0,0.5,1.0,2.0,2.0,406.5343709999069,3.0,1.0,phase_1,,,,,,,,,,,,,cyan,hexagon
0.0,3.0,0.0,0.0,4.0,4.0,530.7005780000509,3.0,1.0,phase_1,,,,,,,,,,,,,yellow,circle
181.0,7.0,2.0,1.0,3.0,3.0,503.8008820001778,3.0,1.0,phase_1,,,,,,,,,,,,,white,diamond
82.0,6.0,1.0,1.0,1.0,1.0,414.5299009996961,3.0,1.0,phase_1,,,,,,,,,,,,,blue,flipped triangle
116.0,6.0,1.0,1.0,4.0,4.0,592.8683649999584,3.0,1.0,phase_1,,,,,,,,,,,,,blue,flipped triangle
0.0,4.0,0.0,0.0,3.0,3.0,658.3569690001241,3.0,1.0,phase_1,,,,,,,,,,,,,green,square
217.0,3.0,2.0,0.0,4.0,4.0,554.1548619999048,3.0,1.0,phase_1,,,,,,,,,,,,,yellow,circle
72.0,5.0,0.5,1.0,4.0,4.0,605.7684500001415,3.0,1.0,phase_1,,,,,,,,,,,,,cyan,hexagon
94.0,6.0,1.0,1.0,4.0,4.0,449.0920660000483,3.0,1.0,phase_1,,,,,,,,,,,,,blue,flipped triangle
400.0,8.0,4.0,1.0,4.0,4.0,603.5123379997458,3.0,1.0,phase_1,,,,,,,,,,,,,orange,I
0.0,2.0,0.0,0.0,1.0,1.0,459.8114579998764,3.0,1.0,phase_1,,,,,,,,,,,,,gray,cross
74.0,5.0,0.5,1.0,2.0,2.0,425.8787540002231,3.0,1.0,phase_1,,,,,,,,,,,,,cyan,hexagon
0.0,6.0,0.0,1.0,2.0,2.0,400.0487419998535,3.0,1.0,phase_1,,,,,,,,,,,,,blue,flipped triangle
396.0,8.0,4.0,1.0,2.0,2.0,386.179278000327,3.0,1.0,phase_1,,,,,,,,,,,,,orange,I
413.0,4.0,4.0,0.0,1.0,1.0,416.5026529999522,3.0,1.0,phase_1,,,,,,,,,,,,,green,square
193.0,3.0,2.0,0.0,4.0,4.0,564.9265410002045,3.0,1.0,phase_1,,,,,,,,,,,,,yellow,circle
398.0,8.0,4.0,1.0,2.0,2.0,357.0428250000077,3.0,1.0,phase_1,,,,,,,,,,,,,orange,I
407.0,4.0,4.0,0.0,4.0,4.0,438.3838049998303,3.0,1.0,phase_1,,,,,,,,,,,,,green,square
213.0,7.0,2.0,1.0,3.0,3.0,546.3626659998226,3.0,2.0,phase_1,,,,,,,,,,,,,white,diamond
90.0,6.0,1.0,1.0,2.0,2.0,488.2776429999467,3.0,1.0,phase_1,,,,,,,,,,,,,blue,flipped triangle
108.0,2.0,1.0,0.0,2.0,2.0,427.5627960000747,3.0,1.0,phase_1,,,,,,,,,,,,,gray,cross
411.0,4.0,4.0,0.0,3.0,3.0,547.930792000443,3.0,1.0,phase_1,,,,,,,,,,,,,green,square
421.0,4.0,4.0,0.0,1.0,1.0,438.0092849996799,3.0,1.0,phase_1,,,,,,,,,,,,,green,square
0.0,1.0,0.0,0.0,3.0,3.0,545.9089339997263,3.0,1.0,phase_1,,,,,,,,,,,,,magenta,triangle
0.0,4.0,0.0,0.0,1.0,1.0,550.707538000097,3.0,1.0,phase_1,,,,,,,,,,,,,green,square
70.0,1.0,0.5,0.0,1.0,1.0,439.4455010001366,3.0,1.0,phase_1,,,,,,,,,,,,,magenta,triangle
417.0,4.0,4.0,0.0,3.0,3.0,571.7074380004306,3.0,1.0,phase_1,,,,,,,,,,,,,green,square
35.0,1.0,0.5,0.0,4.0,4.0,493.1973840002683,3.0,1.0,phase_1,,,,,,,,,,,,,magenta,triangle
223.0,7.0,2.0,1.0,4.0,4.0,415.5405629999222,3.0,1.0,phase_1,,,,,,,,,,,,,white,diamond
0.0,7.0,0.0,1.0,4.0,4.0,474.1455680000399,3.0,1.0,phase_1,,,,,,,,,,,,,white,diamond
209.0,7.0,2.0,1.0,4.0,4.0,385.2459930003533,3.0,1.0,phase_1,,,,,,,,,,,,,white,diamond
28.0,5.0,0.5,1.0,1.0,1.0,587.5234670002101,3.0,1.0,phase_1,,,,,,,,,,,,,cyan,hexagon
48.0,5.0,0.5,1.0,2.0,2.0,520.1977330002592,4.0,1.0,phase_1,,,,,,,,,,,,,cyan,hexagon
417.0,8.0,4.0,1.0,4.0,4.0,536.4851399999679,4.0,1.0,phase_1,,,,,,,,,,,,,orange,I
118.0,6.0,1.0,1.0,1.0,1.0,451.3713450000978,4.0,1.0,phase_1,,,,,,,,,,,,,blue,flipped triangle
0.0,6.0,0.0,1.0,4.0,4.0,582.3842240001795,4.0,1.0,phase_1,,,,,,,,,,,,,blue,flipped triangle
0.0,5.0,0.0,1.0,3.0,3.0,515.1914500002022,4.0,1.0,phase_1,,,,,,,,,,,,,cyan,hexagon
102.0,6.0,1.0,1.0,1.0,1.0,498.3860610000192,4.0,1.0,phase_1,,,,,,,,,,,,,blue,flipped triangle
378.0,4.0,4.0,0.0,4.0,4.0,446.6857750003328,4.0,1.0,phase_1,,,,,,,,,,,,,green,square
380.0,4.0,4.0,0.0,4.0,4.0,437.4017830000412,4.0,1.0,phase_1,,,,,,,,,,,,,green,square
185.0,7.0,2.0,1.0,1.0,1.0,464.7188260000803,4.0,1.0,phase_1,,,,,,,,,,,,,white,diamond
417.0,8.0,4.0,1.0,1.0,1.0,387.8200139997716,4.0,1.0,phase_1,,,,,,,,,,,,,orange,I
387.0,8.0,4.0,1.0,2.0,2.0,433.8560749997668,4.0,1.0,phase_1,,,,,,,,,,,,,orange,I
121.0,2.0,1.0,0.0,3.0,3.0,741.6605100002016,4.0,1.0,phase_1,,,,,,,,,,,,,gray,cross
84.0,2.0,1.0,0.0,4.0,4.0,540.1637300001312,4.0,1.0,phase_1,,,,,,,,,,,,,gray,cross
108.0,2.0,1.0,0.0,2.0,2.0,455.6675939998058,4.0,1.0,phase_1,,,,,,,,,,,,,gray,cross
108.0,6.0,1.0,1.0,3.0,3.0,554.0823759997693,4.0,1.0,phase_1,,,,,,,,,,,,,blue,flipped triangle
72.0,1.0,0.5,0.0,4.0,4.0,483.0987020000066,4.0,1.0,phase_1,,,,,,,,,,,,,magenta,triangle
121.0,6.0,1.0,1.0,4.0,4.0,479.7212859998581,4.0,1.0,phase_1,,,,,,,,,,,,,blue,flipped triangle
71.0,1.0,0.5,0.0,1.0,1.0,477.9462989999956,4.0,1.0,phase_1,,,,,,,,,,,,,magenta,triangle
421.0,8.0,4.0,1.0,3.0,3.0,478.352305000044,4.0,1.0,phase_1,,,,,,,,,,,,,orange,I
397.0,4.0,4.0,0.0,3.0,3.0,543.068471999959,4.0,1.0,phase_1,,,,,,,,,,,,,green,square
205.0,7.0,2.0,1.0,2.0,2.0,430.9498299999177,4.0,1.0,phase_1,,,,,,,,,,,,,white,diamond
40.0,5.0,0.5,1.0,1.0,1.0,457.2291689996746,4.0,1.0,phase_1,,,,,,,,,,,,,cyan,hexagon
387.0,4.0,4.0,0.0,2.0,2.0,400.7290469999134,4.0,1.0,phase_1,,,,,,,,,,,,,green,square
0.0,8.0,0.0,1.0,2.0,2.0,396.9946490001348,4.0,1.0,phase_1,,,,,,,,,,,,,orange,I
410.0,4.0,4.0,0.0,2.0,2.0,366.1448670000027,4.0,1.0,phase_1,,,,,,,,,,,,,green,square
408.0,4.0,4.0,0.0,2.0,2.0,362.0142499999019,4.0,1.0,phase_1,,,,,,,,,,,,,green,square
181.0,3.0,2.0,0.0,4.0,4.0,590.4851479999706,4.0,1.0,phase_1,,,,,,,,,,,,,yellow,circle
219.0,3.0,2.0,0.0,2.0,2.0,458.2474449998699,4.0,1.0,phase_1,,,,,,,,,,,,,yellow,circle
376.0,4.0,4.0,0.0,4.0,4.0,442.7293409999038,4.0,1.0,phase_1,,,,,,,,,,,,,green,square
218.0,3.0,2.0,0.0,3.0,3.0,543.9894270002696,4.0,1.0,phase_1,,,,,,,,,,,,,yellow,circle
100.0,6.0,1.0,1.0,2.0,2.0,394.0248769999925,4.0,1.0,phase_1,,,,,,,,,,,,,blue,flipped triangle
89.0,2.0,1.0,0.0,3.0,3.0,561.9700649999686,4.0,1.0,phase_1,,,,,,,,,,,,,gray,cross
32.0,1.0,0.5,0.0,4.0,4.0,539.0052600000672,4.0,1.0,phase_1,,,,,,,,,,,,,magenta,triangle
60.0,5.0,0.5,1.0,2.0,2.0,425.5670619995726,4.0,1.0,phase_1,,,,,,,,,,,,,cyan,hexagon
100.0,6.0,1.0,1.0,1.0,1.0,421.2267539996901,4.0,1.0,phase_1,,,,,,,,,,,,,blue,flipped triangle
0.0,8.0,0.0,1.0,4.0,4.0,485.5449400001816,4.0,1.0,phase_1,,,,,,,,,,,,,orange,I
94.0,2.0,1.0,0.0,4.0,4.0,442.8528250000454,4.0,1.0,phase_1,,,,,,,,,,,,,gray,cross
72.0,1.0,0.5,0.0,3.0,3.0,436.5989130001253,4.0,1.0,phase_1,,,,,,,,,,,,,magenta,triangle
400.0,8.0,4.0,1.0,1.0,1.0,491.4867180000328,4.0,1.0,phase_1,,,,,,,,,,,,,orange,I
99.0,6.0,1.0,1.0,3.0,3.0,576.7608389996894,4.0,1.0,phase_1,,,,,,,,,,,,,blue,flipped triangle
210.0,3.0,2.0,0.0,2.0,2.0,451.9900020000023,4.0,1.0,phase_1,,,,,,,,,,,,,yellow,circle
0.0,3.0,0.0,0.0,3.0,3.0,451.913692999824,4.0,1.0,phase_1,,,,,,,,,,,,,yellow,circle
125.0,2.0,1.0,0.0,1.0,1.0,411.2957920001463,4.0,1.0,phase_1,,,,,,,,,,,,,gray,cross
378.0,8.0,4.0,1.0,2.0,2.0,452.066953999747,4.0,1.0,phase_1,,,,,,,,,,,,,orange,I
397.0,8.0,4.0,1.0,4.0,4.0,477.3413279999658,4.0,1.0,phase_1,,,,,,,,,,,,,orange,I
210.0,7.0,2.0,1.0,1.0,1.0,477.9754990004221,4.0,1.0,phase_1,,,,,,,,,,,,,white,diamond
0.0,1.0,0.0,0.0,1.0,1.0,363.7171319996923,4.0,1.0,phase_1,,,,,,,,,,,,,magenta,triangle
31.0,5.0,0.5,1.0,3.0,3.0,534.1906220000965,4.0,1.0,phase_1,,,,,,,,,,,,,cyan,hexagon
0.0,7.0,0.0,1.0,2.0,2.0,519.3165480000062,4.0,1.0,phase_1,,,,,,,,,,,,,white,diamond
93.0,2.0,1.0,0.0,2.0,2.0,363.2275679997292,4.0,1.0,phase_1,,,,,,,,,,,,,gray,cross
191.0,3.0,2.0,0.0,1.0,1.0,473.6968039997009,4.0,1.0,phase_1,,,,,,,,,,,,,yellow,circle
0.0,1.0,0.0,0.0,1.0,1.0,480.5622710000534,4.0,1.0,phase_1,,,,,,,,,,,,,magenta,triangle
82.0,2.0,1.0,0.0,3.0,3.0,570.2206819996718,4.0,1.0,phase_1,,,,,,,,,,,,,gray,cross
0.0,4.0,0.0,0.0,2.0,2.0,412.14799699992,4.0,1.0,phase_1,,,,,,,,,,,,,green,square
89.0,6.0,1.0,1.0,1.0,1.0,438.7889030003862,4.0,1.0,phase_1,,,,,,,,,,,,,blue,flipped triangle
60.0,5.0,0.5,1.0,4.0,4.0,559.658367999873,4.0,1.0,phase_1,,,,,,,,,,,,,cyan,hexagon
379.0,8.0,4.0,1.0,2.0,2.0,369.2338720002226,4.0,1.0,phase_1,,,,,,,,,,,,,orange,I
86.0,2.0,1.0,0.0,3.0,3.0,418.8841039999715,4.0,1.0,phase_1,,,,,,,,,,,,,gray,cross
0.0,6.0,0.0,1.0,4.0,4.0,491.3192730000446,4.0,1.0,phase_1,,,,,,,,,,,,,blue,flipped triangle
71.0,5.0,0.5,1.0,1.0,1.0,398.4423440001592,4.0,1.0,phase_1,,,,,,,,,,,,,cyan,hexagon
93.0,6.0,1.0,1.0,4.0,4.0,430.4882220003492,4.0,1.0,phase_1,,,,,,,,,,,,,blue,flipped triangle
115.0,6.0,1.0,1.0,3.0,3.0,498.2465389998651,4.0,1.0,phase_1,,,,,,,,,,,,,blue,flipped triangle
33.0,1.0,0.5,0.0,2.0,2.0,560.2864610000324,4.0,1.0,phase_1,,,,,,,,,,,,,magenta,triangle
75.0,1.0,0.5,0.0,2.0,2.0,373.78307400013,4.0,1.0,phase_1,,,,,,,,,,,,,magenta,triangle
0.0,4.0,0.0,0.0,3.0,3.0,580.1006780002353,4.0,1.0,phase_1,,,,,,,,,,,,,green,square
192.0,3.0,2.0,0.0,1.0,1.0,528.8807189999716,4.0,1.0,phase_1,,,,,,,,,,,,,yellow,circle
212.0,7.0,2.0,1.0,4.0,4.0,588.8307969999005,4.0,1.0,phase_1,,,,,,,,,,,,,white,diamond
0.0,2.0,0.0,0.0,2.0,2.0,492.1973110003819,4.0,1.0,phase_1,,,,,,,,,,,,,gray,cross
0.0,6.0,0.0,1.0,1.0,1.0,400.2777069999865,4.0,1.0,phase_1,,,,,,,,,,,,,blue,flipped triangle
224.0,3.0,2.0,0.0,4.0,4.0,447.0857599999362,4.0,1.0,phase_1,,,,,,,,,,,,,yellow,circle
67.0,5.0,0.5,1.0,3.0,3.0,591.6597780001212,4.0,1.0,phase_1,,,,,,,,,,,,,cyan,hexagon
193.0,7.0,2.0,1.0,2.0,2.0,469.134662000215,4.0,1.0,phase_1,,,,,,,,,,,,,white,diamond
411.0,8.0,4.0,1.0,1.0,1.0,436.5869859998383,4.0,1.0,phase_1,,,,,,,,,,,,,orange,I
38.0,5.0,0.5,1.0,3.0,3.0,418.5449880001215,4.0,1.0,phase_1,,,,,,,,,,,,,cyan,hexagon
0.0,5.0,0.0,1.0,3.0,3.0,444.5856759998605,4.0,1.0,phase_1,,,,,,,,,,,,,cyan,hexagon
0.0,7.0,0.0,1.0,3.0,3.0,410.0799840002764,4.0,1.0,phase_1,,,,,,,,,,,,,white,diamond
205.0,3.0,2.0,0.0,3.0,3.0,393.1187520001913,4.0,1.0,phase_1,,,,,,,,,,,,,yellow,circle
177.0,3.0,2.0,0.0,3.0,3.0,382.7764470001966,4.0,1.0,phase_1,,,,,,,,,,,,,yellow,circle
0.0,2.0,0.0,0.0,3.0,3.0,454.6434890003183,4.0,1.0,phase_1,,,,,,,,,,,,,gray,cross
210.0,3.0,2.0,0.0,2.0,2.0,567.366027999924,4.0,1.0,phase_1,,,,,,,,,,,,,yellow,circle
392.0,4.0,4.0,0.0,2.0,2.0,499.7010339998269,4.0,1.0,phase_1,,,,,,,,,,,,,green,square
0.0,2.0,0.0,0.0,4.0,4.0,509.69938600019304,4.0,1.0,phase_1,,,,,,,,,,,,,gray,cross
213.0,3.0,2.0,0.0,3.0,3.0,473.3668440003384,4.0,1.0,phase_1,,,,,,,,,,,,,yellow,circle
421.0,4.0,4.0,0.0,4.0,4.0,475.7703340001171,4.0,1.0,phase_1,,,,,,,,,,,,,green,square
107.0,6.0,1.0,1.0,1.0,1.0,439.2845060001491,4.0,1.0,phase_1,,,,,,,,,,,,,blue,flipped triangle
0.0,6.0,0.0,1.0,3.0,3.0,633.2062820001738,4.0,1.0,phase_1,,,,,,,,,,,,,blue,flipped triangle
175.0,3.0,2.0,0.0,2.0,2.0,552.9236940001283,4.0,1.0,phase_1,,,,,,,,,,,,,yellow,circle
0.0,7.0,0.0,1.0,1.0,1.0,449.5276830002694,4.0,1.0,phase_1,,,,,,,,,,,,,white,diamond
0.0,6.0,0.0,1.0,2.0,2.0,347.5564229997872,4.0,1.0,phase_1,,,,,,,,,,,,,blue,flipped triangle
44.0,1.0,0.5,0.0,2.0,2.0,406.3424340001802,4.0,1.0,phase_1,,,,,,,,,,,,,magenta,triangle
382.0,8.0,4.0,1.0,2.0,2.0,401.3933609999185,4.0,1.0,phase_1,,,,,,,,,,,,,orange,I
0.0,1.0,0.0,0.0,3.0,3.0,602.909284999896,4.0,1.0,phase_1,,,,,,,,,,,,,magenta,triangle
407.0,8.0,4.0,1.0,1.0,1.0,479.0591440000753,4.0,1.0,phase_1,,,,,,,,,,,,,orange,I
0.0,3.0,0.0,0.0,3.0,3.0,599.5688510001855,4.0,1.0,phase_1,,,,,,,,,,,,,yellow,circle
215.0,3.0,2.0,0.0,3.0,3.0,472.5263129998893,4.0,1.0,phase_1,,,,,,,,,,,,,yellow,circle
191.0,7.0,2.0,1.0,1.0,1.0,414.4344689998434,4.0,1.0,phase_1,,,,,,,,,,,,,white,diamond
81.0,6.0,1.0,1.0,4.0,4.0,465.226912000162,4.0,1.0,phase_1,,,,,,,,,,,,,blue,flipped triangle
100.0,2.0,1.0,0.0,1.0,1.0,460.3046389997871,4.0,1.0,phase_1,,,,,,,,,,,,,gray,cross
76.0,6.0,1.0,1.0,2.0,2.0,352.8554579997944,4.0,1.0,phase_1,,,,,,,,,,,,,blue,flipped triangle
194.0,7.0,2.0,1.0,4.0,4.0,512.6325030000771,4.0,1.0,phase_1,,,,,,,,,,,,,white,diamond
0.0,8.0,4.0,1.0,6.0,6.0,514.4095610003205,1.0,1.0,phase_2,go,250.0,250.0,1.0,,,,,,,,,orange,I
0.0,8.0,4.0,1.0,6.0,6.0,420.8650420000595,1.0,1.0,phase_2,go,250.0,250.0,1.0,,,,,,,,,orange,I
0.0,7.0,2.0,1.0,5.0,5.0,410.7148439998127,1.0,1.0,phase_2,stop,250.0,250.0,3.0,,,,,,,,,white,diamond
0.0,8.0,4.0,1.0,6.0,6.0,318.3053309999195,1.0,1.0,phase_2,stop,200.0,250.0,3.0,,,,,,,,,orange,I
0.0,1.0,0.5,0.0,6.0,6.0,338.0540200000723,1.0,1.0,phase_2,go,200.0,200.0,1.0,,,,,,,,,magenta,triangle
0.0,5.0,0.5,1.0,5.0,5.0,375.5142540003362,1.0,1.0,phase_2,stop,200.0,200.0,3.0,,,,,,,,,cyan,hexagon
0.0,3.0,2.0,0.0,5.0,5.0,545.5455880000954,1.0,1.0,phase_2,go,150.0,200.0,1.0,,,,,,,,,yellow,circle
0.0,5.0,0.5,1.0,5.0,5.0,374.41244799993,1.0,1.0,phase_2,stop,150.0,200.0,3.0,,,,,,,,,cyan,hexagon
0.0,2.0,1.0,0.0,5.0,5.0,450.1113189999159,1.0,1.0,phase_2,go,100.0,200.0,1.0,,,,,,,,,gray,cross
0.0,8.0,4.0,1.0,6.0,6.0,346.0840000002463,1.0,1.0,phase_2,go,100.0,200.0,1.0,,,,,,,,,orange,I
0.0,7.0,2.0,1.0,6.0,6.0,373.9700340001946,1.0,1.0,phase_2,stop,100.0,200.0,3.0,,,,,,,,,white,diamond
0.0,8.0,4.0,1.0,6.0,6.0,594.7845890000281,1.0,1.0,phase_2,go,100.0,150.0,1.0,,,,,,,,,orange,I
0.0,2.0,1.0,0.0,5.0,5.0,491.5041360000032,1.0,1.0,phase_2,go,100.0,150.0,1.0,,,,,,,,,gray,cross
0.0,4.0,4.0,0.0,6.0,6.0,499.671964999834,1.0,1.0,phase_2,go,100.0,150.0,1.0,,,,,,,,,green,square
0.0,3.0,2.0,0.0,6.0,6.0,601.0052239998913,1.0,1.0,phase_2,go,100.0,150.0,1.0,,,,,,,,,yellow,circle
0.0,8.0,4.0,1.0,5.0,0.0,0.0,1.0,1.0,phase_2,stop,100.0,150.0,4.0,,,,,,,,,orange,I
0.0,3.0,2.0,0.0,5.0,5.0,728.4176620000835,1.0,1.0,phase_2,go,150.0,150.0,1.0,,,,,,,,,yellow,circle
0.0,1.0,0.5,0.0,5.0,5.0,448.470627000006,1.0,1.0,phase_2,go,150.0,150.0,1.0,,,,,,,,,magenta,triangle
0.0,5.0,0.5,1.0,5.0,0.0,0.0,1.0,1.0,phase_2,stop,150.0,150.0,4.0,,,,,,,,,cyan,hexagon
0.0,2.0,1.0,0.0,6.0,6.0,395.3160840001146,1.0,1.0,phase_2,go,200.0,150.0,1.0,,,,,,,,,gray,cross
0.0,3.0,2.0,0.0,5.0,5.0,414.0918540001621,1.0,1.0,phase_2,go,200.0,150.0,1.0,,,,,,,,,yellow,circle
0.0,2.0,1.0,0.0,6.0,6.0,358.1290469996929,1.0,1.0,phase_2,go,200.0,150.0,1.0,,,,,,,,,gray,cross
0.0,5.0,0.5,1.0,6.0,6.0,390.7020319998082,1.0,1.0,phase_2,go,200.0,150.0,1.0,,,,,,,,,cyan,hexagon
0.0,1.0,0.5,0.0,6.0,6.0,466.5528669997911,1.0,1.0,phase_2,go,200.0,150.0,1.0,,,,,,,,,magenta,triangle
0.0,4.0,4.0,0.0,5.0,5.0,422.0098519999737,1.0,1.0,phase_2,go,200.0,150.0,1.0,,,,,,,,,green,square
0.0,1.0,0.5,0.0,5.0,5.0,440.9586459996717,1.0,1.0,phase_2,go,200.0,150.0,1.0,,,,,,,,,magenta,triangle
0.0,1.0,0.5,0.0,5.0,5.0,414.6493800003554,1.0,1.0,phase_2,go,200.0,150.0,1.0,,,,,,,,,magenta,triangle
0.0,5.0,0.5,1.0,6.0,6.0,316.7208939999,1.0,1.0,phase_2,stop,200.0,150.0,3.0,,,,,,,,,cyan,hexagon
0.0,6.0,1.0,1.0,6.0,0.0,0.0,1.0,1.0,phase_2,stop,200.0,100.0,4.0,,,,,,,,,blue,flipped triangle
0.0,3.0,2.0,0.0,6.0,6.0,402.5715840002704,1.0,1.0,phase_2,go,200.0,150.0,1.0,,,,,,,,,yellow,circle
0.0,2.0,1.0,0.0,5.0,5.0,457.252531999984,1.0,1.0,phase_2,go,200.0,150.0,1.0,,,,,,,,,gray,cross
0.0,7.0,2.0,1.0,5.0,5.0,411.7959099999098,1.0,1.0,phase_2,stop,200.0,150.0,3.0,,,,,,,,,white,diamond
0.0,4.0,4.0,0.0,6.0,6.0,472.5253100000373,1.0,1.0,phase_2,go,150.0,150.0,1.0,,,,,,,,,green,square
0.0,6.0,1.0,1.0,5.0,5.0,341.1534039996695,1.0,1.0,phase_2,stop,150.0,150.0,3.0,,,,,,,,,blue,flipped triangle
0.0,5.0,0.5,1.0,6.0,6.0,390.3529660001368,1.0,1.0,phase_2,go,100.0,150.0,1.0,,,,,,,,,cyan,hexagon
0.0,3.0,2.0,0.0,5.0,5.0,590.9649800000807,1.0,1.0,phase_2,go,100.0,150.0,1.0,,,,,,,,,yellow,circle
0.0,5.0,0.5,1.0,6.0,6.0,412.8874789998917,2.0,1.0,phase_2,stop,100.0,150.0,3.0,,,,,,,,,cyan,hexagon
0.0,7.0,2.0,1.0,5.0,5.0,278.4142860000429,2.0,1.0,phase_2,stop,100.0,100.0,3.0,,,,,,,,,white,diamond
0.0,6.0,1.0,1.0,6.0,6.0,537.421484999868,2.0,1.0,phase_2,stop,50.0,100.0,3.0,,,,,,,,,blue,flipped triangle
0.0,3.0,2.0,0.0,6.0,6.0,491.9488249997812,2.0,1.0,phase_2,go,50.0,50.0,1.0,,,,,,,,,yellow,circle
0.0,8.0,4.0,1.0,5.0,0.0,0.0,2.0,1.0,phase_2,stop,50.0,50.0,4.0,,,,,,,,,orange,I
0.0,3.0,2.0,0.0,6.0,6.0,401.7462519996115,2.0,1.0,phase_2,go,100.0,50.0,1.0,,,,,,,,,yellow,circle
0.0,6.0,1.0,1.0,5.0,0.0,0.0,2.0,1.0,phase_2,stop,100.0,50.0,4.0,,,,,,,,,blue,flipped triangle
0.0,4.0,4.0,0.0,5.0,5.0,677.4429309998595,2.0,1.0,phase_2,go,150.0,50.0,1.0,,,,,,,,,green,square
0.0,8.0,4.0,1.0,6.0,0.0,0.0,2.0,1.0,phase_2,stop,150.0,50.0,4.0,,,,,,,,,orange,I
0.0,6.0,1.0,1.0,6.0,0.0,0.0,2.0,1.0,phase_2,stop,150.0,100.0,4.0,,,,,,,,,blue,flipped triangle
0.0,8.0,4.0,1.0,6.0,0.0,0.0,2.0,1.0,phase_2,stop,150.0,150.0,4.0,,,,,,,,,orange,I
0.0,2.0,1.0,0.0,5.0,5.0,390.9997139999177,2.0,1.0,phase_2,go,150.0,200.0,1.0,,,,,,,,,gray,cross
0.0,3.0,2.0,0.0,5.0,5.0,414.3238279993966,2.0,1.0,phase_2,go,150.0,200.0,1.0,,,,,,,,,yellow,circle
0.0,6.0,1.0,1.0,6.0,0.0,0.0,2.0,1.0,phase_2,stop,150.0,200.0,4.0,,,,,,,,,blue,flipped triangle
0.0,5.0,0.5,1.0,5.0,0.0,0.0,2.0,1.0,phase_2,stop,150.0,250.0,4.0,,,,,,,,,cyan,hexagon
0.0,8.0,4.0,1.0,5.0,0.0,0.0,2.0,1.0,phase_2,stop,200.0,250.0,4.0,,,,,,,,,orange,I
0.0,6.0,1.0,1.0,5.0,5.0,479.270359000111,2.0,1.0,phase_2,go,250.0,250.0,1.0,,,,,,,,,blue,flipped triangle
0.0,8.0,4.0,1.0,5.0,5.0,410.7710549997136,2.0,1.0,phase_2,stop,250.0,250.0,3.0,,,,,,,,,orange,I
0.0,3.0,2.0,0.0,6.0,6.0,478.7552429997959,2.0,1.0,phase_2,go,200.0,250.0,1.0,,,,,,,,,yellow,circle
0.0,4.0,4.0,0.0,5.0,5.0,374.4132439996974,2.0,1.0,phase_2,go,200.0,250.0,1.0,,,,,,,,,green,square
0.0,3.0,2.0,0.0,5.0,5.0,397.0127259999572,2.0,1.0,phase_2,go,200.0,250.0,1.0,,,,,,,,,yellow,circle
0.0,2.0,1.0,0.0,6.0,6.0,324.3160510000962,2.0,1.0,phase_2,go,200.0,250.0,1.0,,,,,,,,,gray,cross
0.0,3.0,2.0,0.0,5.0,5.0,336.9039839999459,2.0,1.0,phase_2,go,200.0,250.0,1.0,,,,,,,,,yellow,circle
0.0,1.0,0.5,0.0,5.0,5.0,344.4389779997436,2.0,1.0,phase_2,go,200.0,250.0,1.0,,,,,,,,,magenta,triangle
0.0,1.0,0.5,0.0,6.0,6.0,350.0666549998641,2.0,1.0,phase_2,go,200.0,250.0,1.0,,,,,,,,,magenta,triangle
0.0,2.0,1.0,0.0,5.0,5.0,351.8199590007498,2.0,1.0,phase_2,go,200.0,250.0,1.0,,,,,,,,,gray,cross
0.0,6.0,1.0,1.0,5.0,5.0,369.7463669996068,2.0,1.0,phase_2,stop,200.0,250.0,3.0,,,,,,,,,blue,flipped triangle
0.0,5.0,0.5,1.0,5.0,5.0,360.2747919994726,2.0,1.0,phase_2,stop,150.0,250.0,3.0,,,,,,,,,cyan,hexagon
0.0,4.0,4.0,0.0,6.0,6.0,343.3385460002682,2.0,1.0,phase_2,go,100.0,250.0,1.0,,,,,,,,,green,square
0.0,4.0,4.0,0.0,6.0,6.0,299.1469210001014,2.0,1.0,phase_2,go,100.0,250.0,1.0,,,,,,,,,green,square
0.0,4.0,4.0,0.0,5.0,5.0,319.8759739998422,2.0,1.0,phase_2,go,100.0,250.0,1.0,,,,,,,,,green,square
0.0,2.0,1.0,0.0,5.0,5.0,353.032826999879,2.0,1.0,phase_2,go,100.0,250.0,1.0,,,,,,,,,gray,cross
0.0,6.0,1.0,1.0,6.0,6.0,336.2334779994853,2.0,1.0,phase_2,stop,100.0,250.0,3.0,,,,,,,,,blue,flipped triangle
0.0,7.0,2.0,1.0,6.0,6.0,324.6984020006493,2.0,1.0,phase_2,stop,100.0,200.0,3.0,,,,,,,,,white,diamond
0.0,1.0,0.5,0.0,6.0,6.0,568.3059520006282,2.0,1.0,phase_2,go,100.0,150.0,1.0,,,,,,,,,magenta,triangle
0.0,4.0,4.0,0.0,5.0,5.0,385.5642389999048,2.0,1.0,phase_2,go,100.0,150.0,1.0,,,,,,,,,green,square
0.0,7.0,2.0,1.0,5.0,5.0,446.4514589999453,3.0,1.0,phase_2,go,100.0,150.0,1.0,,,,,,,,,white,diamond
0.0,8.0,4.0,1.0,5.0,5.0,360.3111770007672,3.0,1.0,phase_2,stop,100.0,150.0,3.0,,,,,,,,,orange,I
0.0,3.0,2.0,0.0,5.0,5.0,370.5439779996595,3.0,1.0,phase_2,go,50.0,150.0,1.0,,,,,,,,,yellow,circle
0.0,7.0,2.0,1.0,5.0,5.0,316.5655290003997,3.0,1.0,phase_2,go,50.0,150.0,1.0,,,,,,,,,white,diamond
0.0,8.0,4.0,1.0,6.0,6.0,321.5291099995738,3.0,1.0,phase_2,stop,50.0,150.0,3.0,,,,,,,,,orange,I
0.0,8.0,4.0,1.0,5.0,5.0,333.3371670005363,3.0,1.0,phase_2,stop,50.0,100.0,3.0,,,,,,,,,orange,I
0.0,6.0,1.0,1.0,5.0,5.0,439.6159560001251,3.0,1.0,phase_2,go,0.0,100.0,1.0,,,,,,,,,blue,flipped triangle
0.0,8.0,4.0,1.0,5.0,5.0,368.1328449993089,3.0,1.0,phase_2,go,0.0,100.0,1.0,,,,,,,,,orange,I
0.0,5.0,0.5,1.0,5.0,5.0,289.7202300000572,3.0,1.0,phase_2,stop,0.0,100.0,3.0,,,,,,,,,cyan,hexagon
0.0,4.0,4.0,0.0,5.0,5.0,363.9215160001186,3.0,1.0,phase_2,go,0.0,100.0,1.0,,,,,,,,,green,square
0.0,6.0,1.0,1.0,6.0,6.0,340.0321400004031,3.0,1.0,phase_2,go,0.0,100.0,1.0,,,,,,,,,blue,flipped triangle
0.0,8.0,4.0,1.0,5.0,0.0,0.0,3.0,1.0,phase_2,stop,0.0,100.0,4.0,,,,,,,,,orange,I
0.0,6.0,1.0,1.0,5.0,0.0,0.0,3.0,1.0,phase_2,stop,50.0,100.0,4.0,,,,,,,,,blue,flipped triangle
0.0,3.0,2.0,0.0,6.0,6.0,420.2153959995485,3.0,1.0,phase_2,go,100.0,100.0,1.0,,,,,,,,,yellow,circle
0.0,3.0,2.0,0.0,6.0,6.0,356.8707980002727,3.0,1.0,phase_2,go,100.0,100.0,1.0,,,,,,,,,yellow,circle
0.0,6.0,1.0,1.0,5.0,5.0,320.5735789997561,3.0,1.0,phase_2,stop,100.0,100.0,3.0,,,,,,,,,blue,flipped triangle
0.0,8.0,4.0,1.0,6.0,6.0,297.4321069996222,3.0,1.0,phase_2,stop,50.0,100.0,3.0,,,,,,,,,orange,I
0.0,5.0,0.5,1.0,6.0,6.0,321.7011970000385,3.0,1.0,phase_2,stop,50.0,50.0,3.0,,,,,,,,,cyan,hexagon
0.0,1.0,0.5,0.0,5.0,5.0,486.0229299993079,3.0,1.0,phase_2,go,50.0,0.0,1.0,,,,,,,,,magenta,triangle
0.0,4.0,4.0,0.0,6.0,6.0,318.6662159996558,3.0,1.0,phase_2,go,50.0,0.0,1.0,,,,,,,,,green,square
0.0,7.0,2.0,1.0,6.0,6.0,320.2957000003152,3.0,1.0,phase_2,go,50.0,0.0,1.0,,,,,,,,,white,diamond
0.0,1.0,0.5,0.0,5.0,5.0,454.9389180001526,3.0,1.0,phase_2,go,50.0,0.0,1.0,,,,,,,,,magenta,triangle
0.0,1.0,0.5,0.0,6.0,6.0,266.2069159996463,3.0,1.0,phase_2,go,50.0,0.0,1.0,,,,,,,,,magenta,triangle
0.0,4.0,4.0,0.0,5.0,5.0,317.5726680001389,3.0,1.0,phase_2,go,50.0,0.0,1.0,,,,,,,,,green,square
0.0,2.0,1.0,0.0,6.0,6.0,324.3296529999497,3.0,1.0,phase_2,go,50.0,0.0,1.0,,,,,,,,,gray,cross
0.0,1.0,0.5,0.0,6.0,6.0,291.3352440000381,3.0,1.0,phase_2,go,50.0,0.0,1.0,,,,,,,,,magenta,triangle
0.0,7.0,2.0,1.0,6.0,6.0,393.4674730007828,3.0,1.0,phase_2,go,50.0,0.0,1.0,,,,,,,,,white,diamond
0.0,8.0,4.0,1.0,6.0,0.0,0.0,3.0,1.0,phase_2,stop,50.0,0.0,4.0,,,,,,,,,orange,I
0.0,7.0,2.0,1.0,5.0,0.0,0.0,3.0,1.0,phase_2,stop,50.0,50.0,4.0,,,,,,,,,white,diamond
0.0,3.0,2.0,0.0,5.0,5.0,393.07607200044,3.0,1.0,phase_2,go,100.0,50.0,1.0,,,,,,,,,yellow,circle
0.0,7.0,2.0,1.0,6.0,6.0,309.2807410002933,3.0,1.0,phase_2,stop,100.0,50.0,3.0,,,,,,,,,white,diamond
0.0,4.0,4.0,0.0,5.0,5.0,432.1876979993249,3.0,1.0,phase_2,go,100.0,0.0,1.0,,,,,,,,,green,square
0.0,2.0,1.0,0.0,6.0,6.0,349.8218750000887,3.0,1.0,phase_2,go,100.0,0.0,1.0,,,,,,,,,gray,cross
0.0,7.0,2.0,1.0,6.0,6.0,325.9358299992527,3.0,1.0,phase_2,stop,100.0,0.0,3.0,,,,,,,,,white,diamond
0.0,2.0,1.0,0.0,5.0,5.0,491.3364039994121,3.0,1.0,phase_2,go,100.0,0.0,1.0,,,,,,,,,gray,cross
0.0,3.0,2.0,0.0,6.0,6.0,346.0071330000573,3.0,1.0,phase_2,go,100.0,0.0,1.0,,,,,,,,,yellow,circle
0.0,1.0,0.5,0.0,6.0,6.0,423.2301080000979,4.0,1.0,phase_2,go,100.0,0.0,1.0,,,,,,,,,magenta,triangle
0.0,7.0,2.0,1.0,6.0,6.0,315.7087959998534,4.0,1.0,phase_2,go,100.0,0.0,1.0,,,,,,,,,white,diamond
0.0,1.0,0.5,0.0,5.0,5.0,328.6049979997187,4.0,1.0,phase_2,go,100.0,0.0,1.0,,,,,,,,,magenta,triangle
0.0,3.0,2.0,0.0,5.0,5.0,329.1278609995061,4.0,1.0,phase_2,go,100.0,0.0,1.0,,,,,,,,,yellow,circle
0.0,5.0,0.5,1.0,5.0,5.0,331.6324209999948,4.0,1.0,phase_2,stop,100.0,0.0,3.0,,,,,,,,,cyan,hexagon
0.0,6.0,1.0,1.0,5.0,5.0,378.4580699993967,4.0,1.0,phase_2,go,50.0,0.0,1.0,,,,,,,,,blue,flipped triangle
0.0,3.0,2.0,0.0,6.0,6.0,305.5241820002266,4.0,1.0,phase_2,go,50.0,0.0,1.0,,,,,,,,,yellow,circle
0.0,7.0,2.0,1.0,6.0,6.0,283.8592299995071,4.0,1.0,phase_2,stop,50.0,0.0,3.0,,,,,,,,,white,diamond
0.0,7.0,2.0,1.0,5.0,0.0,0.0,4.0,1.0,phase_2,stop,50.0,0.0,4.0,,,,,,,,,white,diamond
0.0,8.0,4.0,1.0,6.0,0.0,0.0,4.0,1.0,phase_2,stop,100.0,0.0,4.0,,,,,,,,,orange,I
0.0,4.0,4.0,0.0,5.0,5.0,521.7692389996955,4.0,1.0,phase_2,go,100.0,50.0,1.0,,,,,,,,,green,square
0.0,5.0,0.5,1.0,5.0,0.0,0.0,4.0,1.0,phase_2,stop,100.0,50.0,4.0,,,,,,,,,cyan,hexagon
0.0,4.0,4.0,0.0,5.0,5.0,374.443433000124,4.0,1.0,phase_2,go,150.0,50.0,1.0,,,,,,,,,green,square
0.0,1.0,0.5,0.0,5.0,5.0,411.4654550003251,4.0,1.0,phase_2,go,150.0,50.0,1.0,,,,,,,,,magenta,triangle
0.0,5.0,0.5,1.0,5.0,5.0,326.8848690004233,4.0,1.0,phase_2,go,150.0,50.0,1.0,,,,,,,,,cyan,hexagon
0.0,6.0,1.0,1.0,6.0,0.0,0.0,4.0,1.0,phase_2,stop,150.0,50.0,4.0,,,,,,,,,blue,flipped triangle
0.0,2.0,1.0,0.0,6.0,6.0,465.8328450004774,4.0,1.0,phase_2,go,150.0,100.0,1.0,,,,,,,,,gray,cross
0.0,5.0,0.5,1.0,6.0,0.0,0.0,4.0,1.0,phase_2,stop,150.0,100.0,4.0,,,,,,,,,cyan,hexagon
0.0,7.0,2.0,1.0,5.0,0.0,0.0,4.0,1.0,phase_2,stop,150.0,150.0,4.0,,,,,,,,,white,diamond
0.0,4.0,4.0,0.0,5.0,5.0,377.8759790002368,4.0,1.0,phase_2,go,200.0,150.0,1.0,,,,,,,,,green,square
0.0,1.0,0.5,0.0,6.0,6.0,360.744866999994,4.0,1.0,phase_2,go,200.0,150.0,1.0,,,,,,,,,magenta,triangle
0.0,4.0,4.0,0.0,5.0,5.0,446.5682560003188,4.0,1.0,phase_2,go,200.0,150.0,1.0,,,,,,,,,green,square
0.0,3.0,2.0,0.0,6.0,6.0,366.4018639992719,4.0,1.0,phase_2,go,200.0,150.0,1.0,,,,,,,,,yellow,circle
0.0,4.0,4.0,0.0,6.0,6.0,385.4898310000862,4.0,1.0,phase_2,go,200.0,150.0,1.0,,,,,,,,,green,square
0.0,7.0,2.0,1.0,6.0,6.0,309.0095699999438,4.0,1.0,phase_2,stop,200.0,150.0,3.0,,,,,,,,,white,diamond
0.0,6.0,1.0,1.0,5.0,5.0,397.4068500001522,4.0,1.0,phase_2,stop,200.0,100.0,3.0,,,,,,,,,blue,flipped triangle
0.0,5.0,0.5,1.0,5.0,5.0,379.9226009996346,4.0,1.0,phase_2,stop,150.0,100.0,3.0,,,,,,,,,cyan,hexagon
0.0,2.0,1.0,0.0,5.0,5.0,423.268953999468,4.0,1.0,phase_2,go,100.0,100.0,1.0,,,,,,,,,gray,cross
0.0,2.0,1.0,0.0,5.0,5.0,412.3553199997332,4.0,1.0,phase_2,go,100.0,100.0,1.0,,,,,,,,,gray,cross
0.0,1.0,0.5,0.0,6.0,6.0,352.0904119995975,4.0,1.0,phase_2,go,100.0,100.0,1.0,,,,,,,,,magenta,triangle
0.0,8.0,4.0,1.0,5.0,5.0,345.4839239993816,4.0,1.0,phase_2,stop,100.0,100.0,3.0,,,,,,,,,orange,I
0.0,6.0,1.0,1.0,5.0,0.0,0.0,4.0,1.0,phase_2,stop,50.0,100.0,4.0,,,,,,,,,blue,flipped triangle
0.0,3.0,2.0,0.0,6.0,6.0,344.4689720008682,4.0,1.0,phase_2,go,100.0,100.0,1.0,,,,,,,,,yellow,circle
0.0,2.0,1.0,0.0,5.0,5.0,428.7620019995302,4.0,1.0,phase_2,go,100.0,100.0,1.0,,,,,,,,,gray,cross
0.0,8.0,4.0,1.0,6.0,6.0,354.1162990004523,4.0,1.0,phase_2,stop,100.0,100.0,3.0,,,,,,,,,orange,I
0.0,2.0,1.0,0.0,5.0,5.0,342.9751249996116,4.0,1.0,phase_2,go,100.0,50.0,1.0,,,,,,,,,gray,cross
0.0,1.0,0.5,0.0,5.0,5.0,474.6744370004307,5.0,1.0,phase_2,go,100.0,50.0,1.0,,,,,,,,,magenta,triangle
0.0,7.0,2.0,1.0,5.0,5.0,314.3028200001936,5.0,1.0,phase_2,stop,100.0,50.0,3.0,,,,,,,,,white,diamond
0.0,6.0,1.0,1.0,5.0,0.0,0.0,5.0,1.0,phase_2,stop,50.0,50.0,4.0,,,,,,,,,blue,flipped triangle
0.0,7.0,2.0,1.0,6.0,0.0,0.0,5.0,1.0,phase_2,stop,100.0,50.0,4.0,,,,,,,,,white,diamond
0.0,8.0,4.0,1.0,6.0,6.0,358.4611850001238,5.0,1.0,phase_2,go,100.0,100.0,1.0,,,,,,,,,orange,I
0.0,6.0,1.0,1.0,6.0,6.0,409.1176819993052,5.0,1.0,phase_2,stop,100.0,100.0,3.0,,,,,,,,,blue,flipped triangle
0.0,7.0,2.0,1.0,5.0,0.0,0.0,5.0,1.0,phase_2,stop,100.0,50.0,4.0,,,,,,,,,white,diamond
0.0,6.0,1.0,1.0,5.0,5.0,339.3466659999831,5.0,1.0,phase_2,stop,150.0,50.0,3.0,,,,,,,,,blue,flipped triangle
0.0,4.0,4.0,0.0,5.0,5.0,458.8911040000312,5.0,1.0,phase_2,go,100.0,50.0,1.0,,,,,,,,,green,square
0.0,8.0,4.0,1.0,6.0,0.0,0.0,5.0,1.0,phase_2,stop,100.0,50.0,4.0,,,,,,,,,orange,I
0.0,1.0,0.5,0.0,5.0,5.0,369.449030999931,5.0,1.0,phase_2,go,100.0,100.0,1.0,,,,,,,,,magenta,triangle
0.0,3.0,2.0,0.0,6.0,6.0,305.8134220000283,5.0,1.0,phase_2,go,100.0,100.0,1.0,,,,,,,,,yellow,circle
0.0,4.0,4.0,0.0,6.0,6.0,331.1527850000857,5.0,1.0,phase_2,go,100.0,100.0,1.0,,,,,,,,,green,square
0.0,5.0,0.5,1.0,6.0,6.0,353.1752199996845,5.0,1.0,phase_2,stop,100.0,100.0,3.0,,,,,,,,,cyan,hexagon
0.0,2.0,1.0,0.0,6.0,6.0,320.0943679994452,5.0,1.0,phase_2,go,100.0,50.0,1.0,,,,,,,,,gray,cross
0.0,3.0,2.0,0.0,6.0,6.0,337.8754340001251,5.0,1.0,phase_2,go,100.0,50.0,1.0,,,,,,,,,yellow,circle
0.0,8.0,4.0,1.0,5.0,0.0,0.0,5.0,1.0,phase_2,stop,100.0,50.0,4.0,,,,,,,,,orange,I
0.0,2.0,1.0,0.0,6.0,6.0,349.096758000087,5.0,1.0,phase_2,go,150.0,50.0,1.0,,,,,,,,,gray,cross
0.0,4.0,4.0,0.0,5.0,5.0,316.0892219993911,5.0,1.0,phase_2,go,150.0,50.0,1.0,,,,,,,,,green,square
0.0,8.0,4.0,1.0,6.0,6.0,299.0897090003273,5.0,1.0,phase_2,stop,150.0,50.0,3.0,,,,,,,,,orange,I
0.0,6.0,1.0,1.0,6.0,6.0,662.1550089994344,5.0,1.0,phase_2,go,150.0,0.0,1.0,,,,,,,,,blue,flipped triangle
0.0,2.0,1.0,0.0,6.0,6.0,357.8969600002892,5.0,1.0,phase_2,go,150.0,0.0,1.0,,,,,,,,,gray,cross
0.0,2.0,1.0,0.0,6.0,6.0,328.299309000613,5.0,1.0,phase_2,go,150.0,0.0,1.0,,,,,,,,,gray,cross
0.0,1.0,0.5,0.0,6.0,6.0,371.2266729999101,5.0,1.0,phase_2,go,150.0,0.0,1.0,,,,,,,,,magenta,triangle
0.0,2.0,1.0,0.0,6.0,6.0,346.6503210001974,5.0,1.0,phase_2,go,150.0,0.0,1.0,,,,,,,,,gray,cross
0.0,7.0,2.0,1.0,6.0,0.0,0.0,5.0,1.0,phase_2,stop,150.0,0.0,4.0,,,,,,,,,white,diamond
0.0,5.0,0.5,1.0,5.0,0.0,0.0,5.0,1.0,phase_2,stop,150.0,50.0,4.0,,,,,,,,,cyan,hexagon
0.0,1.0,0.5,0.0,6.0,6.0,486.1213000003772,5.0,1.0,phase_2,go,200.0,50.0,1.0,,,,,,,,,magenta,triangle
0.0,3.0,2.0,0.0,6.0,6.0,384.0177550000589,5.0,1.0,phase_2,go,200.0,50.0,1.0,,,,,,,,,yellow,circle
0.0,6.0,1.0,1.0,5.0,5.0,579.5246349998706,5.0,1.0,phase_2,go,200.0,50.0,1.0,,,,,,,,,blue,flipped triangle
0.0,2.0,1.0,0.0,5.0,5.0,382.040431999485,5.0,1.0,phase_2,go,200.0,50.0,1.0,,,,,,,,,gray,cross
0.0,3.0,2.0,0.0,6.0,6.0,377.7968630001851,5.0,1.0,phase_2,go,200.0,50.0,1.0,,,,,,,,,yellow,circle
0.0,1.0,0.5,0.0,5.0,5.0,347.6846399998976,5.0,1.0,phase_2,go,200.0,50.0,1.0,,,,,,,,,magenta,triangle
0.0,5.0,0.5,1.0,5.0,5.0,360.9621990008236,5.0,1.0,phase_2,go,200.0,50.0,1.0,,,,,,,,,cyan,hexagon
0.0,7.0,2.0,1.0,5.0,5.0,301.6376999994463,5.0,1.0,phase_2,stop,200.0,50.0,3.0,,,,,,,,,white,diamond
0.0,8.0,4.0,1.0,5.0,5.0,360.1849650003714,5.0,1.0,phase_2,go,150.0,50.0,1.0,,,,,,,,,orange,I
0.0,3.0,2.0,0.0,6.0,6.0,403.6872239994409,6.0,1.0,phase_2,go,150.0,50.0,1.0,,,,,,,,,yellow,circle
0.0,1.0,0.5,0.0,5.0,5.0,373.1692730007125,6.0,1.0,phase_2,go,150.0,50.0,1.0,,,,,,,,,magenta,triangle
0.0,1.0,0.5,0.0,5.0,5.0,354.9169960006111,6.0,1.0,phase_2,go,150.0,50.0,1.0,,,,,,,,,magenta,triangle
0.0,8.0,4.0,1.0,6.0,6.0,322.2843989997273,6.0,1.0,phase_2,stop,150.0,50.0,3.0,,,,,,,,,orange,I
0.0,2.0,1.0,0.0,6.0,6.0,387.8980660001616,6.0,1.0,phase_2,go,150.0,0.0,1.0,,,,,,,,,gray,cross
0.0,4.0,4.0,0.0,6.0,6.0,353.9314999998169,6.0,1.0,phase_2,go,150.0,0.0,1.0,,,,,,,,,green,square
0.0,8.0,4.0,1.0,5.0,0.0,0.0,6.0,1.0,phase_2,stop,150.0,0.0,4.0,,,,,,,,,orange,I
0.0,7.0,2.0,1.0,6.0,0.0,0.0,6.0,1.0,phase_2,stop,200.0,0.0,4.0,,,,,,,,,white,diamond
0.0,2.0,1.0,0.0,6.0,6.0,460.177907999423,6.0,1.0,phase_2,go,200.0,50.0,1.0,,,,,,,,,gray,cross
0.0,2.0,1.0,0.0,5.0,5.0,331.0003019996657,6.0,1.0,phase_2,go,200.0,50.0,1.0,,,,,,,,,gray,cross
0.0,6.0,1.0,1.0,6.0,6.0,344.7499149997384,6.0,1.0,phase_2,go,200.0,50.0,1.0,,,,,,,,,blue,flipped triangle
0.0,7.0,2.0,1.0,6.0,0.0,0.0,6.0,1.0,phase_2,stop,200.0,50.0,4.0,,,,,,,,,white,diamond
0.0,6.0,1.0,1.0,6.0,0.0,0.0,6.0,1.0,phase_2,stop,200.0,100.0,4.0,,,,,,,,,blue,flipped triangle
0.0,5.0,0.5,1.0,5.0,0.0,0.0,6.0,1.0,phase_2,stop,200.0,150.0,4.0,,,,,,,,,cyan,hexagon
0.0,4.0,4.0,0.0,6.0,6.0,463.0307020006512,6.0,1.0,phase_2,go,250.0,150.0,1.0,,,,,,,,,green,square
0.0,3.0,2.0,0.0,5.0,5.0,441.6185870004483,6.0,1.0,phase_2,go,250.0,150.0,1.0,,,,,,,,,yellow,circle
0.0,4.0,4.0,0.0,5.0,5.0,443.6684709999099,6.0,1.0,phase_2,go,250.0,150.0,1.0,,,,,,,,,green,square
0.0,4.0,4.0,0.0,5.0,5.0,408.9144480003597,6.0,1.0,phase_2,go,250.0,150.0,1.0,,,,,,,,,green,square
0.0,3.0,2.0,0.0,5.0,5.0,460.2476370000659,6.0,1.0,phase_2,go,250.0,150.0,1.0,,,,,,,,,yellow,circle
0.0,1.0,0.5,0.0,6.0,6.0,346.05541000019,6.0,1.0,phase_2,go,250.0,150.0,1.0,,,,,,,,,magenta,triangle
0.0,8.0,4.0,1.0,5.0,5.0,405.8053790004123,6.0,1.0,phase_2,go,250.0,150.0,1.0,,,,,,,,,orange,I
0.0,3.0,2.0,0.0,5.0,5.0,476.0872490005567,6.0,1.0,phase_2,go,250.0,150.0,1.0,,,,,,,,,yellow,circle
0.0,6.0,1.0,1.0,5.0,0.0,0.0,6.0,1.0,phase_2,stop,250.0,150.0,4.0,,,,,,,,,blue,flipped triangle
0.0,7.0,2.0,1.0,5.0,5.0,384.7354290001021,6.0,1.0,phase_2,stop,300.0,150.0,3.0,,,,,,,,,white,diamond
0.0,3.0,2.0,0.0,5.0,5.0,370.5694090003817,6.0,1.0,phase_2,go,250.0,150.0,1.0,,,,,,,,,yellow,circle
0.0,5.0,0.5,1.0,6.0,6.0,363.8275829998747,6.0,1.0,phase_2,stop,250.0,150.0,3.0,,,,,,,,,cyan,hexagon
0.0,6.0,1.0,1.0,6.0,0.0,0.0,6.0,1.0,phase_2,stop,250.0,100.0,4.0,,,,,,,,,blue,flipped triangle
0.0,5.0,0.5,1.0,5.0,0.0,0.0,6.0,1.0,phase_2,stop,250.0,150.0,4.0,,,,,,,,,cyan,hexagon
0.0,3.0,2.0,0.0,5.0,5.0,435.4736939994836,6.0,1.0,phase_2,go,300.0,150.0,1.0,,,,,,,,,yellow,circle
0.0,1.0,0.5,0.0,5.0,5.0,368.4407750006357,6.0,1.0,phase_2,go,300.0,150.0,1.0,,,,,,,,,magenta,triangle
0.0,6.0,1.0,1.0,5.0,5.0,392.2086739994483,6.0,1.0,phase_2,stop,300.0,150.0,3.0,,,,,,,,,blue,flipped triangle
0.0,5.0,0.5,1.0,6.0,6.0,343.1486139998014,6.0,1.0,phase_2,go,250.0,150.0,1.0,,,,,,,,,cyan,hexagon
0.0,4.0,4.0,0.0,6.0,6.0,353.0185669997081,6.0,1.0,phase_2,go,250.0,150.0,1.0,,,,,,,,,green,square
0.0,6.0,1.0,1.0,6.0,6.0,313.8391279999268,6.0,1.0,phase_2,stop,250.0,150.0,3.0,,,,,,,,,blue,flipped triangle
0.0,4.0,4.0,0.0,6.0,6.0,399.6521709996159,6.0,1.0,phase_2,go,250.0,100.0,1.0,,,,,,,,,green,square
0.0,1.0,0.5,0.0,6.0,6.0,305.2131280001049,6.0,1.0,phase_2,go,250.0,100.0,1.0,,,,,,,,,magenta,triangle
0.0,5.0,0.5,1.0,6.0,6.0,381.7864700004065,7.0,1.0,phase_2,stop,250.0,100.0,3.0,,,,,,,,,cyan,hexagon
0.0,6.0,1.0,1.0,6.0,0.0,0.0,7.0,1.0,phase_2,stop,250.0,50.0,4.0,,,,,,,,,blue,flipped triangle
0.0,2.0,1.0,0.0,6.0,6.0,511.64164500005427,7.0,1.0,phase_2,go,250.0,100.0,1.0,,,,,,,,,gray,cross
0.0,4.0,4.0,0.0,6.0,6.0,369.2095689993948,7.0,1.0,phase_2,go,250.0,100.0,1.0,,,,,,,,,green,square
0.0,5.0,0.5,1.0,5.0,5.0,354.7595179998097,7.0,1.0,phase_2,stop,250.0,100.0,3.0,,,,,,,,,cyan,hexagon
0.0,3.0,2.0,0.0,6.0,6.0,413.7757030002831,7.0,1.0,phase_2,go,200.0,100.0,1.0,,,,,,,,,yellow,circle
0.0,1.0,0.5,0.0,5.0,5.0,373.9447210000435,7.0,1.0,phase_2,go,200.0,100.0,1.0,,,,,,,,,magenta,triangle
0.0,7.0,2.0,1.0,5.0,5.0,382.7697050001006,7.0,1.0,phase_2,stop,200.0,100.0,3.0,,,,,,,,,white,diamond
0.0,5.0,0.5,1.0,6.0,6.0,339.1024430002289,7.0,1.0,phase_2,go,150.0,100.0,1.0,,,,,,,,,cyan,hexagon
0.0,1.0,0.5,0.0,6.0,6.0,384.0996689996245,7.0,1.0,phase_2,go,150.0,100.0,1.0,,,,,,,,,magenta,triangle
0.0,7.0,2.0,1.0,6.0,6.0,339.3314620007004,7.0,1.0,phase_2,stop,150.0,100.0,3.0,,,,,,,,,white,diamond
0.0,8.0,4.0,1.0,5.0,0.0,0.0,7.0,1.0,phase_2,stop,150.0,50.0,4.0,,,,,,,,,orange,I
0.0,1.0,0.5,0.0,6.0,6.0,391.8312559999322,7.0,1.0,phase_2,go,200.0,50.0,1.0,,,,,,,,,magenta,triangle
0.0,4.0,4.0,0.0,6.0,6.0,372.1280209992983,7.0,1.0,phase_2,go,200.0,50.0,1.0,,,,,,,,,green,square
0.0,2.0,1.0,0.0,5.0,5.0,388.8829560000886,7.0,1.0,phase_2,go,200.0,50.0,1.0,,,,,,,,,gray,cross
0.0,5.0,0.5,1.0,5.0,5.0,382.9412189998038,7.0,1.0,phase_2,stop,200.0,50.0,3.0,,,,,,,,,cyan,hexagon
0.0,4.0,4.0,0.0,6.0,6.0,375.928864999878,7.0,1.0,phase_2,go,150.0,50.0,1.0,,,,,,,,,green,square
0.0,5.0,0.5,1.0,5.0,0.0,0.0,7.0,1.0,phase_2,stop,150.0,50.0,4.0,,,,,,,,,cyan,hexagon
0.0,4.0,4.0,0.0,5.0,5.0,453.5104849992422,7.0,1.0,phase_2,go,200.0,50.0,1.0,,,,,,,,,green,square
0.0,6.0,1.0,1.0,6.0,0.0,0.0,7.0,1.0,phase_2,stop,200.0,50.0,4.0,,,,,,,,,blue,flipped triangle
0.0,1.0,0.5,0.0,6.0,6.0,495.1002260004316,7.0,1.0,phase_2,go,200.0,100.0,1.0,,,,,,,,,magenta,triangle
0.0,7.0,2.0,1.0,5.0,5.0,484.0705690003233,7.0,1.0,phase_2,go,200.0,100.0,1.0,,,,,,,,,white,diamond
0.0,2.0,1.0,0.0,5.0,5.0,362.6330180004515,7.0,1.0,phase_2,go,200.0,100.0,1.0,,,,,,,,,gray,cross
0.0,5.0,0.5,1.0,6.0,0.0,0.0,7.0,1.0,phase_2,stop,200.0,100.0,4.0,,,,,,,,,cyan,hexagon
0.0,4.0,4.0,0.0,6.0,6.0,447.8545790007047,7.0,1.0,phase_2,go,200.0,150.0,1.0,,,,,,,,,green,square
0.0,7.0,2.0,1.0,5.0,0.0,0.0,7.0,1.0,phase_2,stop,200.0,150.0,4.0,,,,,,,,,white,diamond
0.0,4.0,4.0,0.0,5.0,5.0,480.0904620005894,7.0,1.0,phase_2,go,250.0,150.0,1.0,,,,,,,,,green,square
0.0,2.0,1.0,0.0,6.0,6.0,476.7850270000053,7.0,1.0,phase_2,go,250.0,150.0,1.0,,,,,,,,,gray,cross
0.0,5.0,0.5,1.0,6.0,6.0,342.8567589999147,7.0,1.0,phase_2,go,250.0,150.0,1.0,,,,,,,,,cyan,hexagon
0.0,8.0,4.0,1.0,6.0,6.0,413.5856680004508,7.0,1.0,phase_2,stop,250.0,150.0,3.0,,,,,,,,,orange,I
0.0,1.0,0.5,0.0,5.0,5.0,544.799425999372,7.0,1.0,phase_2,go,250.0,100.0,1.0,,,,,,,,,magenta,triangle
0.0,2.0,1.0,0.0,5.0,5.0,405.7213590003812,7.0,1.0,phase_2,go,250.0,100.0,1.0,,,,,,,,,gray,cross
0.0,8.0,4.0,1.0,6.0,6.0,364.6616349997202,7.0,1.0,phase_2,go,250.0,100.0,1.0,,,,,,,,,orange,I
0.0,5.0,0.5,1.0,6.0,6.0,354.8752349997812,7.0,1.0,phase_2,stop,250.0,100.0,3.0,,,,,,,,,cyan,hexagon
0.0,7.0,2.0,1.0,6.0,0.0,0.0,7.0,1.0,phase_2,stop,250.0,50.0,4.0,,,,,,,,,white,diamond
0.0,2.0,1.0,0.0,6.0,6.0,416.0714919999009,7.0,1.0,phase_2,go,250.0,100.0,1.0,,,,,,,,,gray,cross
0.0,2.0,1.0,0.0,6.0,6.0,447.1990800002459,8.0,1.0,phase_2,go,250.0,100.0,1.0,,,,,,,,,gray,cross
0.0,8.0,4.0,1.0,5.0,5.0,341.6057159993215,8.0,1.0,phase_2,stop,250.0,100.0,3.0,,,,,,,,,orange,I
0.0,7.0,2.0,1.0,6.0,6.0,354.548971999975,8.0,1.0,phase_2,go,200.0,100.0,1.0,,,,,,,,,white,diamond
0.0,5.0,0.5,1.0,6.0,6.0,349.5580930002688,8.0,1.0,phase_2,stop,200.0,100.0,3.0,,,,,,,,,cyan,hexagon
0.0,5.0,0.5,1.0,5.0,5.0,410.1134390002698,8.0,1.0,phase_2,go,200.0,50.0,1.0,,,,,,,,,cyan,hexagon
0.0,7.0,2.0,1.0,6.0,0.0,0.0,8.0,1.0,phase_2,stop,200.0,50.0,4.0,,,,,,,,,white,diamond
0.0,5.0,0.5,1.0,6.0,0.0,0.0,8.0,1.0,phase_2,stop,200.0,100.0,4.0,,,,,,,,,cyan,hexagon
0.0,7.0,2.0,1.0,5.0,5.0,456.7379830004938,8.0,1.0,phase_2,go,200.0,150.0,1.0,,,,,,,,,white,diamond
0.0,7.0,2.0,1.0,5.0,0.0,0.0,8.0,1.0,phase_2,stop,200.0,150.0,4.0,,,,,,,,,white,diamond
0.0,7.0,2.0,1.0,5.0,0.0,0.0,8.0,1.0,phase_2,stop,250.0,150.0,4.0,,,,,,,,,white,diamond
0.0,1.0,0.5,0.0,5.0,5.0,554.4301119998636,8.0,1.0,phase_2,go,300.0,150.0,1.0,,,,,,,,,magenta,triangle
0.0,6.0,1.0,1.0,5.0,5.0,350.2622010000777,8.0,1.0,phase_2,go,300.0,150.0,1.0,,,,,,,,,blue,flipped triangle
0.0,8.0,4.0,1.0,5.0,5.0,399.0405200001987,8.0,1.0,phase_2,stop,300.0,150.0,3.0,,,,,,,,,orange,I
0.0,6.0,1.0,1.0,6.0,6.0,318.2889179997801,8.0,1.0,phase_2,go,250.0,150.0,1.0,,,,,,,,,blue,flipped triangle
0.0,7.0,2.0,1.0,6.0,6.0,340.3508780002084,8.0,1.0,phase_2,go,250.0,150.0,1.0,,,,,,,,,white,diamond
0.0,1.0,0.5,0.0,6.0,6.0,367.5992059997952,8.0,1.0,phase_2,go,250.0,150.0,1.0,,,,,,,,,magenta,triangle
0.0,3.0,2.0,0.0,5.0,5.0,361.7728729996088,8.0,1.0,phase_2,go,250.0,150.0,1.0,,,,,,,,,yellow,circle
0.0,2.0,1.0,0.0,6.0,6.0,336.6179940003349,8.0,1.0,phase_2,go,250.0,150.0,1.0,,,,,,,,,gray,cross
0.0,4.0,4.0,0.0,6.0,6.0,321.0291949999373,8.0,1.0,phase_2,go,250.0,150.0,1.0,,,,,,,,,green,square
0.0,6.0,1.0,1.0,6.0,6.0,322.4985040005776,8.0,1.0,phase_2,stop,250.0,150.0,3.0,,,,,,,,,blue,flipped triangle
0.0,3.0,2.0,0.0,5.0,5.0,444.6264230000452,8.0,1.0,phase_2,go,250.0,100.0,1.0,,,,,,,,,yellow,circle
0.0,6.0,1.0,1.0,5.0,5.0,367.6291550000314,8.0,1.0,phase_2,stop,250.0,100.0,3.0,,,,,,,,,blue,flipped triangle
0.0,1.0,0.5,0.0,5.0,5.0,364.8816489994715,8.0,1.0,phase_2,go,200.0,100.0,1.0,,,,,,,,,magenta,triangle
0.0,8.0,4.0,1.0,5.0,5.0,317.4038380002457,8.0,1.0,phase_2,stop,200.0,100.0,3.0,,,,,,,,,orange,I
0.0,6.0,1.0,1.0,5.0,5.0,411.6255719991386,8.0,1.0,phase_2,stop,150.0,100.0,3.0,,,,,,,,,blue,flipped triangle
0.0,4.0,4.0,0.0,6.0,6.0,329.9814570000308,8.0,1.0,phase_2,go,100.0,100.0,1.0,,,,,,,,,green,square
0.0,3.0,2.0,0.0,5.0,5.0,419.8901729996578,8.0,1.0,phase_2,go,100.0,100.0,1.0,,,,,,,,,yellow,circle
0.0,5.0,0.5,1.0,6.0,6.0,476.8501589996958,8.0,1.0,phase_2,go,100.0,100.0,1.0,,,,,,,,,cyan,hexagon
0.0,2.0,1.0,0.0,5.0,5.0,371.0964140000214,8.0,1.0,phase_2,go,100.0,100.0,1.0,,,,,,,,,gray,cross
0.0,6.0,1.0,1.0,6.0,6.0,352.3325080004724,8.0,1.0,phase_2,stop,100.0,100.0,3.0,,,,,,,,,blue,flipped triangle
0.0,2.0,1.0,0.0,5.0,5.0,454.7459320001508,8.0,1.0,phase_2,go,100.0,50.0,1.0,,,,,,,,,gray,cross
0.0,4.0,4.0,0.0,6.0,6.0,295.4837260003842,8.0,1.0,phase_2,go,100.0,50.0,1.0,,,,,,,,,green,square
0.0,5.0,0.5,1.0,6.0,6.0,303.0238199999076,8.0,1.0,phase_2,stop,100.0,50.0,3.0,,,,,,,,,cyan,hexagon
0.0,1.0,0.5,0.0,6.0,6.0,400.1012990001982,8.0,1.0,phase_2,go,100.0,0.0,1.0,,,,,,,,,magenta,triangle
0.0,3.0,2.0,0.0,6.0,6.0,343.1491790006475,8.0,1.0,phase_2,go,100.0,0.0,1.0,,,,,,,,,yellow,circle
0.0,8.0,4.0,1.0,5.0,0.0,0.0,8.0,1.0,phase_2,stop,100.0,0.0,4.0,,,,,,,,,orange,I
0.0,4.0,4.0,0.0,7.0,5.0,3339.1275169997243,1.0,2.0,phase_3,,,,,156.0,4.0,234.0,117.0,39.0,78.0,156.0,195.0,green,square
0.0,5.0,0.5,1.0,7.0,2.0,4746.387844999845,1.0,1.0,phase_3,,,,,156.0,4.0,117.0,156.0,78.0,234.0,195.0,39.0,cyan,hexagon
0.0,7.0,2.0,1.0,7.0,2.0,3647.660634999738,1.0,1.0,phase_3,,,,,170.0,5.0,136.0,170.0,204.0,68.0,34.0,102.0,white,diamond
0.0,4.0,4.0,0.0,7.0,6.0,3431.075193000652,1.0,2.0,phase_3,,,,,102.0,3.0,68.0,204.0,170.0,34.0,136.0,102.0,green,square
0.0,6.0,1.0,1.0,7.0,6.0,3824.434846999793,1.0,1.0,phase_3,,,,,170.0,5.0,34.0,102.0,204.0,136.0,68.0,170.0,blue,flipped triangle
0.0,3.0,2.0,0.0,7.0,4.0,4338.496039000347,1.0,2.0,phase_3,,,,,162.0,3.0,108.0,270.0,324.0,162.0,54.0,216.0,yellow,circle
0.0,3.0,2.0,0.0,7.0,1.0,3964.891280999837,1.0,1.0,phase_3,,,,,196.0,4.0,196.0,147.0,49.0,294.0,98.0,245.0,yellow,circle
0.0,8.0,4.0,1.0,7.0,4.0,3967.479220000314,1.0,1.0,phase_3,,,,,147.0,3.0,98.0,49.0,245.0,147.0,294.0,196.0,orange,I
0.0,4.0,4.0,0.0,7.0,3.0,4040.19327900005,1.0,1.0,phase_3,,,,,132.0,3.0,44.0,264.0,132.0,176.0,220.0,88.0,green,square
0.0,6.0,1.0,1.0,7.0,3.0,4883.853723000357,1.0,1.0,phase_3,,,,,196.0,4.0,245.0,98.0,196.0,49.0,147.0,294.0,blue,flipped triangle
0.0,4.0,4.0,0.0,7.0,5.0,2656.2078899996777,1.0,1.0,phase_3,,,,,147.0,3.0,294.0,196.0,49.0,98.0,147.0,245.0,green,square
0.0,3.0,2.0,0.0,7.0,3.0,3719.9455399995713,1.0,1.0,phase_3,,,,,176.0,4.0,132.0,220.0,176.0,88.0,264.0,44.0,yellow,circle
0.0,1.0,0.5,0.0,7.0,2.0,3510.311921999346,1.0,1.0,phase_3,,,,,162.0,3.0,324.0,162.0,216.0,54.0,270.0,108.0,magenta,triangle
0.0,1.0,0.5,0.0,7.0,6.0,4062.423706000118,1.0,2.0,phase_3,,,,,136.0,4.0,102.0,170.0,204.0,68.0,34.0,136.0,magenta,triangle
0.0,6.0,1.0,1.0,7.0,6.0,4037.341139000091,1.0,2.0,phase_3,,,,,162.0,3.0,324.0,270.0,108.0,216.0,54.0,162.0,blue,flipped triangle
0.0,1.0,0.5,0.0,7.0,5.0,3307.602928999586,1.0,1.0,phase_3,,,,,156.0,4.0,39.0,78.0,117.0,195.0,156.0,234.0,magenta,triangle
0.0,7.0,2.0,1.0,7.0,6.0,3549.7329899999386,1.0,1.0,phase_3,,,,,170.0,5.0,102.0,136.0,68.0,34.0,204.0,170.0,white,diamond
0.0,5.0,0.5,1.0,7.0,6.0,3034.497980999731,1.0,1.0,phase_3,,,,,176.0,4.0,220.0,132.0,44.0,88.0,264.0,176.0,cyan,hexagon
0.0,5.0,0.5,1.0,7.0,5.0,3830.3372869995655,1.0,1.0,phase_3,,,,,176.0,4.0,88.0,264.0,132.0,220.0,176.0,44.0,cyan,hexagon
0.0,2.0,1.0,0.0,7.0,3.0,3218.044012000064,1.0,1.0,phase_3,,,,,136.0,4.0,170.0,68.0,136.0,102.0,34.0,204.0,gray,cross
0.0,5.0,0.5,1.0,7.0,3.0,3831.1584900002345,2.0,1.0,phase_3,,,,,147.0,3.0,196.0,245.0,147.0,49.0,294.0,98.0,cyan,hexagon
0.0,8.0,4.0,1.0,7.0,2.0,3802.913419000106,2.0,1.0,phase_3,,,,,156.0,4.0,78.0,156.0,195.0,234.0,117.0,39.0,orange,I
0.0,7.0,2.0,1.0,7.0,3.0,3827.116594000472,2.0,1.0,phase_3,,,,,132.0,3.0,88.0,220.0,132.0,264.0,176.0,44.0,white,diamond
0.0,8.0,4.0,1.0,7.0,3.0,4499.126595999769,2.0,1.0,phase_3,,,,,196.0,4.0,98.0,49.0,196.0,245.0,147.0,294.0,orange,I
0.0,7.0,2.0,1.0,7.0,2.0,4062.6019620003717,2.0,1.0,phase_3,,,,,270.0,5.0,54.0,270.0,162.0,216.0,108.0,324.0,white,diamond
0.0,5.0,0.5,1.0,7.0,4.0,3793.889059000321,2.0,1.0,phase_3,,,,,156.0,4.0,117.0,234.0,78.0,156.0,195.0,39.0,cyan,hexagon
0.0,1.0,0.5,0.0,7.0,5.0,3178.009100000054,2.0,1.0,phase_3,,,,,156.0,4.0,195.0,234.0,39.0,117.0,156.0,78.0,magenta,triangle
0.0,8.0,4.0,1.0,7.0,2.0,3363.4961329998987,2.0,1.0,phase_3,,,,,136.0,4.0,102.0,136.0,204.0,68.0,170.0,34.0,orange,I
0.0,1.0,0.5,0.0,7.0,5.0,2940.13311299932,2.0,1.0,phase_3,,,,,136.0,4.0,68.0,34.0,102.0,170.0,136.0,204.0,magenta,triangle
0.0,2.0,1.0,0.0,7.0,1.0,4325.080706000335,2.0,1.0,phase_3,,,,,176.0,4.0,176.0,44.0,132.0,88.0,264.0,220.0,gray,cross
0.0,2.0,1.0,0.0,7.0,2.0,3167.0113199998013,2.0,1.0,phase_3,,,,,136.0,4.0,68.0,136.0,102.0,34.0,170.0,204.0,gray,cross
0.0,1.0,0.5,0.0,7.0,1.0,3896.377383000072,2.0,1.0,phase_3,,,,,147.0,3.0,147.0,294.0,98.0,49.0,245.0,196.0,magenta,triangle
0.0,2.0,1.0,0.0,7.0,4.0,3594.686962999731,2.0,1.0,phase_3,,,,,156.0,4.0,78.0,117.0,39.0,156.0,234.0,195.0,gray,cross
0.0,3.0,2.0,0.0,7.0,5.0,3979.544302999784,2.0,1.0,phase_3,,,,,156.0,4.0,195.0,78.0,117.0,234.0,156.0,39.0,yellow,circle
0.0,2.0,1.0,0.0,7.0,6.0,4707.637903000432,2.0,1.0,phase_3,,,,,156.0,4.0,195.0,78.0,117.0,234.0,39.0,156.0,gray,cross
0.0,3.0,2.0,0.0,7.0,4.0,4720.700443000169,2.0,1.0,phase_3,,,,,136.0,4.0,204.0,34.0,68.0,136.0,102.0,170.0,yellow,circle
0.0,4.0,4.0,0.0,7.0,4.0,3862.3426350004593,2.0,1.0,phase_3,,,,,176.0,4.0,88.0,264.0,220.0,176.0,44.0,132.0,green,square
0.0,2.0,1.0,0.0,7.0,4.0,3515.080246999787,2.0,2.0,phase_3,,,,,147.0,3.0,294.0,49.0,245.0,147.0,98.0,196.0,gray,cross
0.0,7.0,2.0,1.0,7.0,2.0,3763.343757999792,2.0,1.0,phase_3,,,,,162.0,3.0,54.0,162.0,270.0,324.0,108.0,216.0,white,diamond
0.0,5.0,0.5,1.0,7.0,4.0,3312.2425020001174,2.0,1.0,phase_3,,,,,170.0,5.0,34.0,204.0,68.0,170.0,102.0,136.0,cyan,hexagon
0.0,1.0,0.5,0.0,7.0,2.0,4199.3349760005,3.0,1.0,phase_3,,,,,216.0,4.0,270.0,216.0,324.0,108.0,54.0,162.0,magenta,triangle
0.0,8.0,4.0,1.0,7.0,4.0,2579.247826000028,3.0,1.0,phase_3,,,,,132.0,3.0,88.0,44.0,264.0,132.0,220.0,176.0,orange,I
0.0,6.0,1.0,1.0,7.0,2.0,3285.0935119995484,3.0,1.0,phase_3,,,,,156.0,4.0,39.0,156.0,195.0,234.0,78.0,117.0,blue,flipped triangle
0.0,2.0,1.0,0.0,7.0,6.0,4982.720601999972,3.0,1.0,phase_3,,,,,162.0,3.0,108.0,270.0,324.0,216.0,54.0,162.0,gray,cross
0.0,1.0,0.5,0.0,7.0,1.0,3720.8631169996806,3.0,1.0,phase_3,,,,,132.0,3.0,132.0,220.0,264.0,176.0,44.0,88.0,magenta,triangle
0.0,2.0,1.0,0.0,7.0,4.0,3482.599203999598,3.0,1.0,phase_3,,,,,162.0,3.0,270.0,54.0,216.0,162.0,108.0,324.0,gray,cross
0.0,3.0,2.0,0.0,7.0,4.0,2717.438721999315,3.0,1.0,phase_3,,,,,136.0,4.0,34.0,68.0,204.0,136.0,170.0,102.0,yellow,circle
0.0,7.0,2.0,1.0,7.0,3.0,3357.9245929995523,3.0,1.0,phase_3,,,,,147.0,3.0,98.0,294.0,147.0,245.0,196.0,49.0,white,diamond
0.0,5.0,0.5,1.0,7.0,3.0,2512.004230999992,3.0,2.0,phase_3,,,,,162.0,3.0,324.0,216.0,162.0,54.0,108.0,270.0,cyan,hexagon
0.0,8.0,4.0,1.0,7.0,3.0,2248.3054059994174,3.0,1.0,phase_3,,,,,136.0,4.0,102.0,170.0,136.0,68.0,204.0,34.0,orange,I
0.0,8.0,4.0,1.0,7.0,2.0,2871.8208529999174,3.0,1.0,phase_3,,,,,156.0,4.0,195.0,156.0,39.0,234.0,117.0,78.0,orange,I
0.0,5.0,0.5,1.0,7.0,5.0,2497.5368589994105,3.0,1.0,phase_3,,,,,170.0,5.0,34.0,204.0,102.0,136.0,170.0,68.0,cyan,hexagon
0.0,3.0,2.0,0.0,7.0,5.0,2943.653436999739,3.0,1.0,phase_3,,,,,162.0,3.0,324.0,54.0,216.0,270.0,162.0,108.0,yellow,circle
0.0,2.0,1.0,0.0,7.0,3.0,2419.510552000247,3.0,1.0,phase_3,,,,,132.0,3.0,176.0,88.0,132.0,220.0,44.0,264.0,gray,cross
0.0,4.0,4.0,0.0,7.0,1.0,3028.240706999896,3.0,1.0,phase_3,,,,,162.0,3.0,162.0,216.0,108.0,54.0,270.0,324.0,green,square
0.0,5.0,0.5,1.0,7.0,5.0,2748.743705999914,3.0,1.0,phase_3,,,,,196.0,4.0,98.0,245.0,147.0,294.0,196.0,49.0,cyan,hexagon
0.0,3.0,2.0,0.0,7.0,3.0,2485.3595600006884,3.0,1.0,phase_3,,,,,132.0,3.0,220.0,264.0,132.0,176.0,44.0,88.0,yellow,circle
0.0,7.0,2.0,1.0,7.0,3.0,2296.961611999905,3.0,1.0,phase_3,,,,,156.0,4.0,117.0,195.0,156.0,78.0,39.0,234.0,white,diamond
0.0,1.0,0.5,0.0,7.0,1.0,3978.586592999818,3.0,1.0,phase_3,,,,,132.0,3.0,132.0,220.0,264.0,88.0,44.0,176.0,magenta,triangle
0.0,3.0,2.0,0.0,7.0,5.0,3809.253022000121,3.0,1.0,phase_3,,,,,195.0,5.0,78.0,39.0,234.0,156.0,195.0,117.0,yellow,circle
0.0,6.0,1.0,1.0,7.0,4.0,2265.292142999897,4.0,1.0,phase_3,,,,,136.0,4.0,34.0,102.0,68.0,136.0,170.0,204.0,blue,flipped triangle
0.0,4.0,4.0,0.0,7.0,5.0,2239.485222999974,4.0,1.0,phase_3,,,,,117.0,3.0,156.0,78.0,39.0,195.0,117.0,234.0,green,square
0.0,4.0,4.0,0.0,7.0,5.0,2649.47642199968,4.0,1.0,phase_3,,,,,196.0,4.0,49.0,245.0,294.0,147.0,196.0,98.0,green,square
0.0,6.0,1.0,1.0,7.0,6.0,3140.51946499967,4.0,1.0,phase_3,,,,,176.0,4.0,132.0,220.0,264.0,88.0,44.0,176.0,blue,flipped triangle
0.0,2.0,1.0,0.0,7.0,4.0,3028.668002000813,4.0,1.0,phase_3,,,,,147.0,3.0,49.0,196.0,245.0,147.0,98.0,294.0,gray,cross
0.0,5.0,0.5,1.0,7.0,5.0,3177.6463950000107,4.0,1.0,phase_3,,,,,162.0,3.0,216.0,270.0,324.0,54.0,162.0,108.0,cyan,hexagon
0.0,4.0,4.0,0.0,7.0,5.0,3316.0364780005693,4.0,1.0,phase_3,,,,,162.0,3.0,270.0,324.0,108.0,216.0,162.0,54.0,green,square
0.0,8.0,4.0,1.0,7.0,1.0,3356.983446000413,4.0,1.0,phase_3,,,,,176.0,4.0,176.0,264.0,44.0,220.0,132.0,88.0,orange,I
0.0,6.0,1.0,1.0,7.0,5.0,3650.7966720000695,4.0,1.0,phase_3,,,,,147.0,3.0,49.0,294.0,98.0,245.0,147.0,196.0,blue,flipped triangle
0.0,6.0,1.0,1.0,7.0,2.0,3511.3277130003557,4.0,1.0,phase_3,,,,,176.0,4.0,220.0,176.0,132.0,88.0,44.0,264.0,blue,flipped triangle
0.0,8.0,4.0,1.0,7.0,2.0,3710.491199999524,4.0,1.0,phase_3,,,,,162.0,3.0,108.0,162.0,54.0,216.0,270.0,324.0,orange,I
0.0,7.0,2.0,1.0,7.0,5.0,3043.895910000174,4.0,1.0,phase_3,,,,,132.0,3.0,220.0,88.0,176.0,44.0,132.0,264.0,white,diamond
0.0,6.0,1.0,1.0,7.0,2.0,2510.1606409998567,4.0,1.0,phase_3,,,,,156.0,4.0,234.0,156.0,195.0,78.0,39.0,117.0,blue,flipped triangle
0.0,1.0,0.5,0.0,7.0,4.0,2406.210777000524,4.0,1.0,phase_3,,,,,147.0,3.0,49.0,294.0,245.0,147.0,196.0,98.0,magenta,triangle
0.0,4.0,4.0,0.0,7.0,3.0,2294.494130999737,4.0,1.0,phase_3,,,,,170.0,5.0,136.0,102.0,170.0,204.0,68.0,34.0,green,square
0.0,3.0,2.0,0.0,7.0,3.0,2094.74129299997,4.0,1.0,phase_3,,,,,147.0,3.0,49.0,294.0,147.0,98.0,196.0,245.0,yellow,circle
0.0,6.0,1.0,1.0,7.0,4.0,2797.1289150000302,4.0,1.0,phase_3,,,,,162.0,3.0,324.0,54.0,108.0,162.0,216.0,270.0,blue,flipped triangle
0.0,8.0,4.0,1.0,7.0,6.0,2741.106532000231,4.0,1.0,phase_3,,,,,162.0,3.0,216.0,324.0,108.0,54.0,270.0,162.0,orange,I
0.0,7.0,2.0,1.0,7.0,2.0,2895.539923000797,4.0,1.0,phase_3,,,,,156.0,4.0,117.0,156.0,78.0,195.0,234.0,39.0,white,diamond
0.0,7.0,2.0,1.0,7.0,4.0,2852.180380999925,4.0,1.0,phase_3,,,,,147.0,3.0,245.0,196.0,294.0,147.0,98.0,49.0,white,diamond
