raw_reward_magnitude,stim_reward,stepwise_reward_magnitude,paired_with_stopping,quadrant,response,reaction_time,block,num_trial_presentations,which_part,stop_signal_trial_type,left_SSD,right_SSD,accuracy,chosen_bidding_amount,chosen_bidding_level,possible_bid_1,possible_bid_2,possible_bid_3,possible_bid_4,possible_bid_5,possible_bid_6,color_text,shape_text
0.0,4.0,0.0,0.0,3.0,3.0,377.7731840000342,1.0,1.0,part_1,,,,,,,,,,,,,magenta,circle
0.0,6.0,0.0,1.0,4.0,4.0,289.0750050009956,1.0,1.0,part_1,,,,,,,,,,,,,blue,triangle
0.0,7.0,0.0,1.0,4.0,4.0,275.9925990012561,1.0,1.0,part_1,,,,,,,,,,,,,yellow,diamond
65.0,1.0,1.0,0.0,3.0,3.0,267.7200460002495,1.0,1.0,part_1,,,,,,,,,,,,,green,hexagon
0.0,6.0,0.0,1.0,4.0,4.0,264.8018649997539,1.0,1.0,part_1,,,,,,,,,,,,,blue,triangle
86.0,6.0,2.0,1.0,4.0,4.0,251.27160400006687,1.0,1.0,part_1,,,,,,,,,,,,,blue,triangle
0.0,5.0,0.0,1.0,4.0,4.0,260.0319449993549,1.0,1.0,part_1,,,,,,,,,,,,,gray,cross
0.0,1.0,0.0,0.0,4.0,4.0,260.1731710001331,1.0,1.0,part_1,,,,,,,,,,,,,green,hexagon
120.0,6.0,2.0,1.0,2.0,2.0,310.6422549990384,1.0,1.0,part_1,,,,,,,,,,,,,blue,triangle
81.0,2.0,2.0,0.0,1.0,1.0,257.8727000000071,1.0,1.0,part_1,,,,,,,,,,,,,cyan,I
393.0,8.0,4.0,1.0,1.0,1.0,277.5970459988457,1.0,1.0,part_1,,,,,,,,,,,,,white,square
0.0,4.0,0.0,0.0,2.0,2.0,269.4472469993343,1.0,1.0,part_1,,,,,,,,,,,,,magenta,circle
408.0,4.0,4.0,0.0,4.0,4.0,278.8154110003233,1.0,1.0,part_1,,,,,,,,,,,,,magenta,circle
0.0,6.0,0.0,1.0,4.0,4.0,303.1632699985493,1.0,1.0,part_1,,,,,,,,,,,,,blue,triangle
68.0,1.0,1.0,0.0,3.0,3.0,286.8444440009625,1.0,1.0,part_1,,,,,,,,,,,,,green,hexagon
384.0,4.0,4.0,0.0,1.0,1.0,252.6580419998936,1.0,1.0,part_1,,,,,,,,,,,,,magenta,circle
61.0,5.0,1.0,1.0,3.0,3.0,329.7535219990095,1.0,1.0,part_1,,,,,,,,,,,,,gray,cross
0.0,2.0,0.0,0.0,3.0,3.0,640.9790870002325,1.0,1.0,part_1,,,,,,,,,,,,,cyan,I
108.0,6.0,2.0,1.0,1.0,1.0,310.0098489994707,1.0,1.0,part_1,,,,,,,,,,,,,blue,triangle
47.0,5.0,1.0,1.0,1.0,1.0,291.7275689997041,1.0,1.0,part_1,,,,,,,,,,,,,gray,cross
0.0,5.0,0.0,1.0,2.0,2.0,267.9740410003433,1.0,1.0,part_1,,,,,,,,,,,,,gray,cross
86.0,2.0,2.0,0.0,2.0,2.0,313.2498269987991,1.0,1.0,part_1,,,,,,,,,,,,,cyan,I
30.0,1.0,1.0,0.0,1.0,1.0,427.3655079996388,1.0,1.0,part_1,,,,,,,,,,,,,green,hexagon
417.0,4.0,4.0,0.0,3.0,3.0,271.7054840013588,1.0,1.0,part_1,,,,,,,,,,,,,magenta,circle
38.0,1.0,1.0,0.0,3.0,3.0,236.3413350012706,1.0,1.0,part_1,,,,,,,,,,,,,green,hexagon
388.0,8.0,4.0,1.0,2.0,2.0,264.8134339997341,1.0,1.0,part_1,,,,,,,,,,,,,white,square
182.0,7.0,3.0,1.0,4.0,4.0,247.717869000553,1.0,1.0,part_1,,,,,,,,,,,,,yellow,diamond
0.0,6.0,0.0,1.0,1.0,1.0,272.4762139987433,1.0,1.0,part_1,,,,,,,,,,,,,blue,triangle
75.0,2.0,2.0,0.0,3.0,3.0,243.175830999462,1.0,1.0,part_1,,,,,,,,,,,,,cyan,I
94.0,2.0,2.0,0.0,1.0,1.0,235.8858989991858,1.0,1.0,part_1,,,,,,,,,,,,,cyan,I
112.0,2.0,2.0,0.0,3.0,3.0,206.3712229992234,1.0,1.0,part_1,,,,,,,,,,,,,cyan,I
81.0,2.0,2.0,0.0,2.0,2.0,242.0314970004256,1.0,1.0,part_1,,,,,,,,,,,,,cyan,I
83.0,2.0,2.0,0.0,1.0,1.0,319.4464090011024,1.0,2.0,part_1,,,,,,,,,,,,,cyan,I
0.0,5.0,0.0,1.0,2.0,2.0,345.7598060012969,1.0,1.0,part_1,,,,,,,,,,,,,gray,cross
118.0,6.0,2.0,1.0,1.0,1.0,258.4495400005835,1.0,1.0,part_1,,,,,,,,,,,,,blue,triangle
396.0,8.0,4.0,1.0,1.0,1.0,236.5253700008907,1.0,1.0,part_1,,,,,,,,,,,,,white,square
416.0,8.0,4.0,1.0,3.0,3.0,240.1743769987661,1.0,1.0,part_1,,,,,,,,,,,,,white,square
44.0,1.0,1.0,0.0,1.0,1.0,252.2046049998607,1.0,1.0,part_1,,,,,,,,,,,,,green,hexagon
218.0,7.0,3.0,1.0,3.0,3.0,272.9584440003236,1.0,1.0,part_1,,,,,,,,,,,,,yellow,diamond
124.0,6.0,2.0,1.0,2.0,2.0,270.0865410006372,1.0,1.0,part_1,,,,,,,,,,,,,blue,triangle
405.0,8.0,4.0,1.0,2.0,2.0,310.2287689998775,1.0,1.0,part_1,,,,,,,,,,,,,white,square
62.0,5.0,1.0,1.0,4.0,4.0,308.6918810004135,1.0,1.0,part_1,,,,,,,,,,,,,gray,cross
36.0,1.0,1.0,0.0,1.0,1.0,231.6391410004143,1.0,1.0,part_1,,,,,,,,,,,,,green,hexagon
87.0,6.0,2.0,1.0,1.0,1.0,286.8220009986544,1.0,1.0,part_1,,,,,,,,,,,,,blue,triangle
185.0,7.0,3.0,1.0,4.0,4.0,294.1582069997821,1.0,1.0,part_1,,,,,,,,,,,,,yellow,diamond
0.0,8.0,0.0,1.0,4.0,4.0,294.6300619987596,1.0,1.0,part_1,,,,,,,,,,,,,white,square
94.0,6.0,2.0,1.0,2.0,2.0,309.3580249988008,1.0,1.0,part_1,,,,,,,,,,,,,blue,triangle
96.0,6.0,2.0,1.0,3.0,3.0,261.5562610008055,1.0,1.0,part_1,,,,,,,,,,,,,blue,triangle
386.0,8.0,4.0,1.0,3.0,3.0,309.9833680007577,1.0,1.0,part_1,,,,,,,,,,,,,white,square
121.0,6.0,2.0,1.0,1.0,1.0,283.7152219999552,1.0,1.0,part_1,,,,,,,,,,,,,blue,triangle
380.0,8.0,4.0,1.0,1.0,1.0,306.7068330001348,1.0,1.0,part_1,,,,,,,,,,,,,white,square
0.0,7.0,0.0,1.0,4.0,4.0,278.3342540005833,1.0,1.0,part_1,,,,,,,,,,,,,yellow,diamond
210.0,3.0,3.0,0.0,1.0,1.0,279.0759859999525,1.0,1.0,part_1,,,,,,,,,,,,,orange,flipped triangle
105.0,2.0,2.0,0.0,4.0,4.0,305.1807949996146,1.0,1.0,part_1,,,,,,,,,,,,,cyan,I
71.0,5.0,1.0,1.0,1.0,1.0,443.78314000096,1.0,1.0,part_1,,,,,,,,,,,,,gray,cross
118.0,2.0,2.0,0.0,1.0,1.0,280.4311510008119,1.0,1.0,part_1,,,,,,,,,,,,,cyan,I
180.0,7.0,3.0,1.0,3.0,3.0,232.8692079991015,1.0,1.0,part_1,,,,,,,,,,,,,yellow,diamond
182.0,7.0,3.0,1.0,4.0,4.0,270.6821200008562,1.0,2.0,part_1,,,,,,,,,,,,,yellow,diamond
390.0,4.0,4.0,0.0,4.0,4.0,354.6635050006443,1.0,1.0,part_1,,,,,,,,,,,,,magenta,circle
66.0,5.0,1.0,1.0,4.0,4.0,245.9179790002963,1.0,1.0,part_1,,,,,,,,,,,,,gray,cross
386.0,4.0,4.0,0.0,2.0,2.0,344.2596700006106,1.0,1.0,part_1,,,,,,,,,,,,,magenta,circle
0.0,2.0,0.0,0.0,4.0,4.0,291.3622239993856,1.0,1.0,part_1,,,,,,,,,,,,,cyan,I
206.0,3.0,3.0,0.0,1.0,1.0,304.5084229997883,1.0,1.0,part_1,,,,,,,,,,,,,orange,flipped triangle
94.0,6.0,2.0,1.0,3.0,3.0,270.2429719993233,1.0,1.0,part_1,,,,,,,,,,,,,blue,triangle
191.0,7.0,3.0,1.0,4.0,4.0,272.3331389988743,1.0,1.0,part_1,,,,,,,,,,,,,yellow,diamond
96.0,2.0,2.0,0.0,2.0,2.0,288.2823679992725,1.0,1.0,part_1,,,,,,,,,,,,,cyan,I
217.0,3.0,3.0,0.0,1.0,1.0,272.644594000667,1.0,1.0,part_1,,,,,,,,,,,,,orange,flipped triangle
62.0,1.0,1.0,0.0,2.0,2.0,285.7042380001076,1.0,1.0,part_1,,,,,,,,,,,,,green,hexagon
424.0,4.0,4.0,0.0,4.0,4.0,270.3633349992742,1.0,1.0,part_1,,,,,,,,,,,,,magenta,circle
98.0,6.0,2.0,1.0,1.0,1.0,285.2221169996483,1.0,1.0,part_1,,,,,,,,,,,,,blue,triangle
99.0,6.0,2.0,1.0,3.0,3.0,294.1031310001563,1.0,1.0,part_1,,,,,,,,,,,,,blue,triangle
75.0,6.0,2.0,1.0,3.0,3.0,330.902473999231,1.0,1.0,part_1,,,,,,,,,,,,,blue,triangle
94.0,6.0,2.0,1.0,4.0,4.0,306.8470139987767,1.0,1.0,part_1,,,,,,,,,,,,,blue,triangle
58.0,5.0,1.0,1.0,1.0,1.0,308.2967079990339,1.0,1.0,part_1,,,,,,,,,,,,,gray,cross
0.0,2.0,0.0,0.0,2.0,2.0,326.7730259995005,1.0,1.0,part_1,,,,,,,,,,,,,cyan,I
81.0,6.0,2.0,1.0,4.0,4.0,745.2991819991439,1.0,1.0,part_1,,,,,,,,,,,,,blue,triangle
184.0,3.0,3.0,0.0,2.0,2.0,354.2077519996383,1.0,1.0,part_1,,,,,,,,,,,,,orange,flipped triangle
388.0,4.0,4.0,0.0,4.0,4.0,282.3308679999172,1.0,1.0,part_1,,,,,,,,,,,,,magenta,circle
41.0,5.0,1.0,1.0,2.0,2.0,294.9399919998541,1.0,1.0,part_1,,,,,,,,,,,,,gray,cross
223.0,7.0,3.0,1.0,1.0,1.0,314.3808320000971,1.0,1.0,part_1,,,,,,,,,,,,,yellow,diamond
100.0,2.0,2.0,0.0,2.0,2.0,340.0316989991552,1.0,1.0,part_1,,,,,,,,,,,,,cyan,I
379.0,8.0,4.0,1.0,3.0,3.0,249.6653460002562,1.0,1.0,part_1,,,,,,,,,,,,,white,square
112.0,6.0,2.0,1.0,3.0,3.0,344.3649239998194,1.0,1.0,part_1,,,,,,,,,,,,,blue,triangle
98.0,6.0,2.0,1.0,4.0,4.0,269.3283509997854,1.0,1.0,part_1,,,,,,,,,,,,,blue,triangle
408.0,8.0,4.0,1.0,2.0,2.0,291.8611589993816,1.0,1.0,part_1,,,,,,,,,,,,,white,square
45.0,1.0,1.0,0.0,4.0,4.0,253.7640139998984,1.0,1.0,part_1,,,,,,,,,,,,,green,hexagon
377.0,8.0,4.0,1.0,3.0,3.0,255.1293020005687,1.0,1.0,part_1,,,,,,,,,,,,,white,square
184.0,7.0,3.0,1.0,4.0,4.0,281.3741360005224,1.0,1.0,part_1,,,,,,,,,,,,,yellow,diamond
210.0,7.0,3.0,1.0,2.0,2.0,252.6580069988995,1.0,1.0,part_1,,,,,,,,,,,,,yellow,diamond
177.0,7.0,3.0,1.0,4.0,4.0,237.2224569990066,1.0,1.0,part_1,,,,,,,,,,,,,yellow,diamond
105.0,2.0,2.0,0.0,1.0,1.0,272.8015800003049,1.0,1.0,part_1,,,,,,,,,,,,,cyan,I
212.0,7.0,3.0,1.0,2.0,2.0,294.6210200007044,1.0,1.0,part_1,,,,,,,,,,,,,yellow,diamond
380.0,4.0,4.0,0.0,4.0,4.0,255.9452630011947,1.0,1.0,part_1,,,,,,,,,,,,,magenta,circle
25.0,5.0,1.0,1.0,1.0,1.0,312.2898069996154,1.0,1.0,part_1,,,,,,,,,,,,,gray,cross
397.0,8.0,4.0,1.0,4.0,4.0,298.0724160006502,1.0,1.0,part_1,,,,,,,,,,,,,white,square
26.0,5.0,1.0,1.0,3.0,3.0,285.3226860006543,1.0,1.0,part_1,,,,,,,,,,,,,gray,cross
0.0,1.0,0.0,0.0,2.0,2.0,321.7264200011414,1.0,1.0,part_1,,,,,,,,,,,,,green,hexagon
222.0,7.0,3.0,1.0,2.0,2.0,310.7557690000249,1.0,1.0,part_1,,,,,,,,,,,,,yellow,diamond
211.0,3.0,3.0,0.0,3.0,3.0,347.8337010001269,1.0,1.0,part_1,,,,,,,,,,,,,orange,flipped triangle
27.0,1.0,1.0,0.0,4.0,4.0,262.6428889998351,1.0,1.0,part_1,,,,,,,,,,,,,green,hexagon
49.0,5.0,1.0,1.0,3.0,3.0,412.1473970008082,2.0,1.0,part_1,,,,,,,,,,,,,gray,cross
400.0,4.0,4.0,0.0,1.0,1.0,304.5980709994182,2.0,1.0,part_1,,,,,,,,,,,,,magenta,circle
178.0,3.0,3.0,0.0,3.0,3.0,264.509505001115,2.0,1.0,part_1,,,,,,,,,,,,,orange,flipped triangle
49.0,5.0,1.0,1.0,3.0,3.0,248.9411169990489,2.0,1.0,part_1,,,,,,,,,,,,,gray,cross
0.0,4.0,0.0,0.0,4.0,4.0,278.1469260007725,2.0,1.0,part_1,,,,,,,,,,,,,magenta,circle
0.0,3.0,0.0,0.0,1.0,1.0,326.9992229998024,2.0,1.0,part_1,,,,,,,,,,,,,orange,flipped triangle
31.0,1.0,1.0,0.0,2.0,2.0,302.3085120003088,2.0,1.0,part_1,,,,,,,,,,,,,green,hexagon
0.0,8.0,0.0,1.0,4.0,4.0,279.3553159990551,2.0,1.0,part_1,,,,,,,,,,,,,white,square
113.0,6.0,2.0,1.0,4.0,4.0,264.1142600004968,2.0,1.0,part_1,,,,,,,,,,,,,blue,triangle
396.0,4.0,4.0,0.0,2.0,2.0,348.825635999674,2.0,1.0,part_1,,,,,,,,,,,,,magenta,circle
0.0,8.0,0.0,1.0,4.0,4.0,263.1266219996178,2.0,1.0,part_1,,,,,,,,,,,,,white,square
37.0,5.0,1.0,1.0,3.0,3.0,261.7244059983932,2.0,1.0,part_1,,,,,,,,,,,,,gray,cross
177.0,3.0,3.0,0.0,2.0,2.0,290.3296520016738,2.0,1.0,part_1,,,,,,,,,,,,,orange,flipped triangle
0.0,6.0,0.0,1.0,2.0,2.0,298.3465739998792,2.0,1.0,part_1,,,,,,,,,,,,,blue,triangle
57.0,1.0,1.0,0.0,4.0,4.0,274.6198029999505,2.0,1.0,part_1,,,,,,,,,,,,,green,hexagon
51.0,5.0,1.0,1.0,4.0,4.0,275.3976370004238,2.0,1.0,part_1,,,,,,,,,,,,,gray,cross
203.0,7.0,3.0,1.0,4.0,4.0,276.255251999828,2.0,1.0,part_1,,,,,,,,,,,,,yellow,diamond
397.0,4.0,4.0,0.0,1.0,1.0,453.409861000182,2.0,1.0,part_1,,,,,,,,,,,,,magenta,circle
57.0,5.0,1.0,1.0,1.0,1.0,325.6418969995138,2.0,1.0,part_1,,,,,,,,,,,,,gray,cross
0.0,4.0,0.0,0.0,1.0,1.0,436.8660290001571,2.0,1.0,part_1,,,,,,,,,,,,,magenta,circle
383.0,4.0,4.0,0.0,3.0,3.0,276.5331570008129,2.0,1.0,part_1,,,,,,,,,,,,,magenta,circle
205.0,7.0,3.0,1.0,3.0,3.0,285.0055310009338,2.0,1.0,part_1,,,,,,,,,,,,,yellow,diamond
397.0,8.0,4.0,1.0,1.0,1.0,384.7832480005309,2.0,1.0,part_1,,,,,,,,,,,,,white,square
98.0,2.0,2.0,0.0,3.0,3.0,319.3624489995272,2.0,1.0,part_1,,,,,,,,,,,,,cyan,I
383.0,8.0,4.0,1.0,1.0,1.0,274.7421960011706,2.0,1.0,part_1,,,,,,,,,,,,,white,square
184.0,7.0,3.0,1.0,3.0,3.0,288.7163010000222,2.0,1.0,part_1,,,,,,,,,,,,,yellow,diamond
0.0,1.0,0.0,0.0,2.0,2.0,311.6271020007843,2.0,1.0,part_1,,,,,,,,,,,,,green,hexagon
184.0,3.0,3.0,0.0,2.0,2.0,296.5625609995186,2.0,1.0,part_1,,,,,,,,,,,,,orange,flipped triangle
405.0,4.0,4.0,0.0,3.0,3.0,294.145510000817,2.0,1.0,part_1,,,,,,,,,,,,,magenta,circle
103.0,2.0,2.0,0.0,1.0,1.0,323.8661380000849,2.0,1.0,part_1,,,,,,,,,,,,,cyan,I
29.0,1.0,1.0,0.0,2.0,2.0,344.1949139996723,2.0,1.0,part_1,,,,,,,,,,,,,green,hexagon
98.0,2.0,2.0,0.0,2.0,2.0,265.7418979997601,2.0,1.0,part_1,,,,,,,,,,,,,cyan,I
425.0,4.0,4.0,0.0,2.0,2.0,302.5573439990694,2.0,1.0,part_1,,,,,,,,,,,,,magenta,circle
379.0,8.0,4.0,1.0,4.0,4.0,305.1794070015603,2.0,1.0,part_1,,,,,,,,,,,,,white,square
200.0,3.0,3.0,0.0,1.0,1.0,323.5291159999178,2.0,1.0,part_1,,,,,,,,,,,,,orange,flipped triangle
412.0,4.0,4.0,0.0,3.0,3.0,242.2947269988071,2.0,1.0,part_1,,,,,,,,,,,,,magenta,circle
37.0,1.0,1.0,0.0,2.0,2.0,263.0653750002238,2.0,1.0,part_1,,,,,,,,,,,,,green,hexagon
214.0,7.0,3.0,1.0,2.0,2.0,275.8492530010699,2.0,1.0,part_1,,,,,,,,,,,,,yellow,diamond
424.0,8.0,4.0,1.0,4.0,4.0,285.5876850007917,2.0,1.0,part_1,,,,,,,,,,,,,white,square
105.0,6.0,2.0,1.0,1.0,1.0,328.7711539996962,2.0,1.0,part_1,,,,,,,,,,,,,blue,triangle
220.0,3.0,3.0,0.0,2.0,2.0,332.6878780007973,2.0,1.0,part_1,,,,,,,,,,,,,orange,flipped triangle
108.0,2.0,2.0,0.0,2.0,2.0,325.3967240016209,2.0,1.0,part_1,,,,,,,,,,,,,cyan,I
399.0,8.0,4.0,1.0,3.0,3.0,283.1925749997026,2.0,1.0,part_1,,,,,,,,,,,,,white,square
71.0,1.0,1.0,0.0,2.0,2.0,252.36885300000722,2.0,1.0,part_1,,,,,,,,,,,,,green,hexagon
400.0,8.0,4.0,1.0,4.0,4.0,264.3007670012594,2.0,1.0,part_1,,,,,,,,,,,,,white,square
70.0,5.0,1.0,1.0,1.0,1.0,275.7170089989813,2.0,1.0,part_1,,,,,,,,,,,,,gray,cross
379.0,8.0,4.0,1.0,4.0,4.0,286.4908700012165,2.0,1.0,part_1,,,,,,,,,,,,,white,square
0.0,7.0,0.0,1.0,1.0,1.0,254.18181399982132,2.0,1.0,part_1,,,,,,,,,,,,,yellow,diamond
190.0,3.0,3.0,0.0,4.0,4.0,472.8075759994681,2.0,1.0,part_1,,,,,,,,,,,,,orange,flipped triangle
101.0,6.0,2.0,1.0,2.0,2.0,325.4039280000143,2.0,1.0,part_1,,,,,,,,,,,,,blue,triangle
105.0,6.0,2.0,1.0,4.0,4.0,262.0468380009697,2.0,1.0,part_1,,,,,,,,,,,,,blue,triangle
65.0,5.0,1.0,1.0,3.0,3.0,331.1420029986038,2.0,1.0,part_1,,,,,,,,,,,,,gray,cross
26.0,1.0,1.0,0.0,1.0,1.0,239.8722779998934,2.0,1.0,part_1,,,,,,,,,,,,,green,hexagon
115.0,6.0,2.0,1.0,1.0,1.0,369.9353150004754,2.0,1.0,part_1,,,,,,,,,,,,,blue,triangle
223.0,3.0,3.0,0.0,4.0,4.0,304.9574439992284,2.0,1.0,part_1,,,,,,,,,,,,,orange,flipped triangle
0.0,5.0,0.0,1.0,2.0,2.0,299.5774320006603,2.0,1.0,part_1,,,,,,,,,,,,,gray,cross
49.0,1.0,1.0,0.0,1.0,1.0,279.8808860006829,2.0,2.0,part_1,,,,,,,,,,,,,green,hexagon
175.0,7.0,3.0,1.0,1.0,1.0,337.2525029990356,2.0,1.0,part_1,,,,,,,,,,,,,yellow,diamond
94.0,2.0,2.0,0.0,1.0,1.0,356.2745100007305,2.0,1.0,part_1,,,,,,,,,,,,,cyan,I
0.0,3.0,0.0,0.0,4.0,4.0,294.8123430014675,2.0,1.0,part_1,,,,,,,,,,,,,orange,flipped triangle
422.0,4.0,4.0,0.0,1.0,1.0,304.8068719999719,2.0,1.0,part_1,,,,,,,,,,,,,magenta,circle
196.0,7.0,3.0,1.0,4.0,4.0,315.3958889997739,2.0,1.0,part_1,,,,,,,,,,,,,yellow,diamond
212.0,7.0,3.0,1.0,1.0,1.0,270.0323890003346,2.0,1.0,part_1,,,,,,,,,,,,,yellow,diamond
0.0,5.0,0.0,1.0,1.0,1.0,301.1664229998132,2.0,1.0,part_1,,,,,,,,,,,,,gray,cross
114.0,2.0,2.0,0.0,3.0,3.0,322.8687349983374,2.0,1.0,part_1,,,,,,,,,,,,,cyan,I
190.0,3.0,3.0,0.0,2.0,2.0,303.6870699997962,2.0,1.0,part_1,,,,,,,,,,,,,orange,flipped triangle
180.0,3.0,3.0,0.0,3.0,3.0,343.3845010004006,2.0,1.0,part_1,,,,,,,,,,,,,orange,flipped triangle
194.0,3.0,3.0,0.0,1.0,1.0,293.0755359993782,2.0,1.0,part_1,,,,,,,,,,,,,orange,flipped triangle
215.0,3.0,3.0,0.0,4.0,4.0,278.1554499997583,2.0,1.0,part_1,,,,,,,,,,,,,orange,flipped triangle
223.0,3.0,3.0,0.0,3.0,3.0,336.5640949996304,2.0,1.0,part_1,,,,,,,,,,,,,orange,flipped triangle
36.0,5.0,1.0,1.0,1.0,1.0,304.4951510000828,2.0,1.0,part_1,,,,,,,,,,,,,gray,cross
222.0,3.0,3.0,0.0,4.0,4.0,361.1531360002118,2.0,1.0,part_1,,,,,,,,,,,,,orange,flipped triangle
399.0,4.0,4.0,0.0,2.0,2.0,331.9094529997528,2.0,1.0,part_1,,,,,,,,,,,,,magenta,circle
53.0,1.0,1.0,0.0,2.0,2.0,297.2811790004925,2.0,1.0,part_1,,,,,,,,,,,,,green,hexagon
94.0,6.0,2.0,1.0,1.0,1.0,315.52664100127,2.0,1.0,part_1,,,,,,,,,,,,,blue,triangle
102.0,6.0,2.0,1.0,3.0,3.0,315.5115600002318,2.0,1.0,part_1,,,,,,,,,,,,,blue,triangle
87.0,2.0,2.0,0.0,1.0,1.0,267.8715780002676,2.0,1.0,part_1,,,,,,,,,,,,,cyan,I
0.0,5.0,0.0,1.0,2.0,2.0,295.7039190005162,2.0,1.0,part_1,,,,,,,,,,,,,gray,cross
47.0,1.0,1.0,0.0,1.0,1.0,326.8313209991902,2.0,1.0,part_1,,,,,,,,,,,,,green,hexagon
212.0,3.0,3.0,0.0,3.0,3.0,261.9683760003681,2.0,1.0,part_1,,,,,,,,,,,,,orange,flipped triangle
0.0,6.0,0.0,1.0,3.0,3.0,312.929260000601,2.0,1.0,part_1,,,,,,,,,,,,,blue,triangle
412.0,8.0,4.0,1.0,1.0,1.0,265.5160059985064,2.0,1.0,part_1,,,,,,,,,,,,,white,square
114.0,6.0,2.0,1.0,2.0,2.0,323.3236420001049,2.0,1.0,part_1,,,,,,,,,,,,,blue,triangle
0.0,8.0,0.0,1.0,2.0,2.0,291.2943510000332,2.0,1.0,part_1,,,,,,,,,,,,,white,square
0.0,7.0,0.0,1.0,4.0,4.0,283.8628539993806,2.0,1.0,part_1,,,,,,,,,,,,,yellow,diamond
66.0,1.0,1.0,0.0,4.0,4.0,299.6571490002679,2.0,1.0,part_1,,,,,,,,,,,,,green,hexagon
422.0,8.0,4.0,1.0,2.0,2.0,278.58096700038,2.0,1.0,part_1,,,,,,,,,,,,,white,square
393.0,4.0,4.0,0.0,4.0,4.0,279.1384760002984,2.0,1.0,part_1,,,,,,,,,,,,,magenta,circle
31.0,5.0,1.0,1.0,2.0,2.0,287.364128000263,2.0,1.0,part_1,,,,,,,,,,,,,gray,cross
0.0,3.0,0.0,0.0,2.0,2.0,337.7084700005071,2.0,1.0,part_1,,,,,,,,,,,,,orange,flipped triangle
50.0,5.0,1.0,1.0,4.0,4.0,293.0773309999495,2.0,1.0,part_1,,,,,,,,,,,,,gray,cross
390.0,8.0,4.0,1.0,3.0,3.0,287.3401489996467,2.0,1.0,part_1,,,,,,,,,,,,,white,square
94.0,6.0,2.0,1.0,3.0,3.0,292.7174759988702,2.0,1.0,part_1,,,,,,,,,,,,,blue,triangle
108.0,6.0,2.0,1.0,3.0,3.0,375.3854049991787,2.0,1.0,part_1,,,,,,,,,,,,,blue,triangle
72.0,1.0,1.0,0.0,2.0,2.0,345.8169109999289,2.0,1.0,part_1,,,,,,,,,,,,,green,hexagon
410.0,8.0,4.0,1.0,3.0,3.0,316.7950639999617,2.0,1.0,part_1,,,,,,,,,,,,,white,square
83.0,6.0,2.0,1.0,4.0,4.0,383.5082599998713,2.0,1.0,part_1,,,,,,,,,,,,,blue,triangle
54.0,1.0,1.0,0.0,3.0,3.0,305.1519069995265,2.0,1.0,part_1,,,,,,,,,,,,,green,hexagon
63.0,1.0,1.0,0.0,3.0,3.0,320.3997830005392,2.0,1.0,part_1,,,,,,,,,,,,,green,hexagon
0.0,4.0,0.0,0.0,4.0,4.0,306.5705959998013,2.0,1.0,part_1,,,,,,,,,,,,,magenta,circle
0.0,6.0,0.0,1.0,2.0,2.0,397.3670579998725,3.0,1.0,part_1,,,,,,,,,,,,,blue,triangle
0.0,1.0,0.0,0.0,2.0,2.0,348.1932599988795,3.0,1.0,part_1,,,,,,,,,,,,,green,hexagon
217.0,7.0,3.0,1.0,1.0,1.0,349.6843320008338,3.0,1.0,part_1,,,,,,,,,,,,,yellow,diamond
176.0,3.0,3.0,0.0,1.0,1.0,468.9776889990753,3.0,1.0,part_1,,,,,,,,,,,,,orange,flipped triangle
76.0,6.0,2.0,1.0,2.0,2.0,297.0421469999564,3.0,1.0,part_1,,,,,,,,,,,,,blue,triangle
121.0,2.0,2.0,0.0,4.0,4.0,350.0761840004998,3.0,2.0,part_1,,,,,,,,,,,,,cyan,I
67.0,1.0,1.0,0.0,3.0,3.0,321.7001560005883,3.0,1.0,part_1,,,,,,,,,,,,,green,hexagon
0.0,5.0,0.0,1.0,2.0,2.0,293.412259001343,3.0,1.0,part_1,,,,,,,,,,,,,gray,cross
422.0,4.0,4.0,0.0,3.0,3.0,310.12863900105,3.0,1.0,part_1,,,,,,,,,,,,,magenta,circle
406.0,4.0,4.0,0.0,4.0,4.0,275.3224230000342,3.0,1.0,part_1,,,,,,,,,,,,,magenta,circle
95.0,2.0,2.0,0.0,3.0,3.0,310.003222000887,3.0,1.0,part_1,,,,,,,,,,,,,cyan,I
0.0,5.0,0.0,1.0,1.0,1.0,362.8237820012145,3.0,1.0,part_1,,,,,,,,,,,,,gray,cross
422.0,8.0,4.0,1.0,3.0,3.0,275.2989669988892,3.0,1.0,part_1,,,,,,,,,,,,,white,square
208.0,3.0,3.0,0.0,3.0,3.0,289.960666999832,3.0,1.0,part_1,,,,,,,,,,,,,orange,flipped triangle
0.0,3.0,0.0,0.0,1.0,1.0,381.3036880001164,3.0,1.0,part_1,,,,,,,,,,,,,orange,flipped triangle
178.0,7.0,3.0,1.0,3.0,3.0,310.0541950007027,3.0,1.0,part_1,,,,,,,,,,,,,yellow,diamond
0.0,5.0,0.0,1.0,4.0,4.0,324.8895329998049,3.0,1.0,part_1,,,,,,,,,,,,,gray,cross
83.0,2.0,2.0,0.0,1.0,1.0,289.6636580007907,3.0,1.0,part_1,,,,,,,,,,,,,cyan,I
205.0,3.0,3.0,0.0,2.0,2.0,342.7624519990786,3.0,1.0,part_1,,,,,,,,,,,,,orange,flipped triangle
59.0,5.0,1.0,1.0,3.0,3.0,295.5878440006927,3.0,1.0,part_1,,,,,,,,,,,,,gray,cross
222.0,3.0,3.0,0.0,4.0,4.0,306.0628329985775,3.0,1.0,part_1,,,,,,,,,,,,,orange,flipped triangle
202.0,3.0,3.0,0.0,4.0,4.0,529.7749220007972,3.0,1.0,part_1,,,,,,,,,,,,,orange,flipped triangle
49.0,1.0,1.0,0.0,3.0,3.0,315.414344000601,3.0,1.0,part_1,,,,,,,,,,,,,green,hexagon
418.0,8.0,4.0,1.0,2.0,2.0,348.5597360013344,3.0,1.0,part_1,,,,,,,,,,,,,white,square
376.0,4.0,4.0,0.0,1.0,1.0,480.4527960004634,3.0,1.0,part_1,,,,,,,,,,,,,magenta,circle
218.0,3.0,3.0,0.0,4.0,4.0,325.9882749989629,3.0,1.0,part_1,,,,,,,,,,,,,orange,flipped triangle
182.0,3.0,3.0,0.0,4.0,4.0,324.5397909995517,3.0,1.0,part_1,,,,,,,,,,,,,orange,flipped triangle
406.0,8.0,4.0,1.0,2.0,2.0,299.3251070001861,3.0,1.0,part_1,,,,,,,,,,,,,white,square
425.0,8.0,4.0,1.0,4.0,4.0,289.8489450017223,3.0,1.0,part_1,,,,,,,,,,,,,white,square
72.0,1.0,1.0,0.0,4.0,4.0,355.3173400014202,3.0,1.0,part_1,,,,,,,,,,,,,green,hexagon
176.0,7.0,3.0,1.0,2.0,2.0,341.4386130007187,3.0,1.0,part_1,,,,,,,,,,,,,yellow,diamond
417.0,8.0,4.0,1.0,1.0,1.0,287.3856559999694,3.0,1.0,part_1,,,,,,,,,,,,,white,square
99.0,2.0,2.0,0.0,4.0,4.0,351.2013949984975,3.0,1.0,part_1,,,,,,,,,,,,,cyan,I
376.0,4.0,4.0,0.0,3.0,3.0,307.5020939995738,3.0,1.0,part_1,,,,,,,,,,,,,magenta,circle
105.0,2.0,2.0,0.0,1.0,1.0,306.861093000407,3.0,1.0,part_1,,,,,,,,,,,,,cyan,I
41.0,1.0,1.0,0.0,4.0,4.0,514.9578060008935,3.0,1.0,part_1,,,,,,,,,,,,,green,hexagon
81.0,6.0,2.0,1.0,3.0,3.0,304.5735779996903,3.0,1.0,part_1,,,,,,,,,,,,,blue,triangle
0.0,4.0,0.0,0.0,4.0,4.0,283.7050430007366,3.0,1.0,part_1,,,,,,,,,,,,,magenta,circle
0.0,2.0,0.0,0.0,4.0,4.0,286.3125639996724,3.0,1.0,part_1,,,,,,,,,,,,,cyan,I
0.0,1.0,0.0,0.0,2.0,2.0,279.8513300003833,3.0,1.0,part_1,,,,,,,,,,,,,green,hexagon
88.0,6.0,2.0,1.0,2.0,2.0,329.3153240010724,3.0,1.0,part_1,,,,,,,,,,,,,blue,triangle
53.0,5.0,1.0,1.0,2.0,2.0,311.6098240006977,3.0,1.0,part_1,,,,,,,,,,,,,gray,cross
44.0,5.0,1.0,1.0,2.0,2.0,321.43330100007,3.0,1.0,part_1,,,,,,,,,,,,,gray,cross
67.0,5.0,1.0,1.0,2.0,2.0,337.1860120005294,3.0,1.0,part_1,,,,,,,,,,,,,gray,cross
96.0,6.0,2.0,1.0,1.0,1.0,328.0938980005885,3.0,1.0,part_1,,,,,,,,,,,,,blue,triangle
408.0,4.0,4.0,0.0,3.0,3.0,250.86907900004007,3.0,1.0,part_1,,,,,,,,,,,,,magenta,circle
88.0,6.0,2.0,1.0,2.0,2.0,309.0615989985963,3.0,1.0,part_1,,,,,,,,,,,,,blue,triangle
0.0,8.0,0.0,1.0,4.0,4.0,327.498156000729,3.0,1.0,part_1,,,,,,,,,,,,,white,square
0.0,2.0,0.0,0.0,3.0,3.0,323.11809699967847,3.0,1.0,part_1,,,,,,,,,,,,,cyan,I
389.0,4.0,4.0,0.0,3.0,3.0,303.0975519995991,3.0,1.0,part_1,,,,,,,,,,,,,magenta,circle
202.0,7.0,3.0,1.0,1.0,1.0,299.1913869991549,3.0,1.0,part_1,,,,,,,,,,,,,yellow,diamond
63.0,5.0,1.0,1.0,1.0,1.0,343.353238000418,3.0,2.0,part_1,,,,,,,,,,,,,gray,cross
54.0,1.0,1.0,0.0,4.0,4.0,308.3633690002898,3.0,1.0,part_1,,,,,,,,,,,,,green,hexagon
0.0,8.0,0.0,1.0,3.0,3.0,335.1076319995627,3.0,1.0,part_1,,,,,,,,,,,,,white,square
40.0,5.0,1.0,1.0,4.0,4.0,356.3121659990429,3.0,1.0,part_1,,,,,,,,,,,,,gray,cross
0.0,1.0,0.0,0.0,1.0,1.0,319.686601000285,3.0,1.0,part_1,,,,,,,,,,,,,green,hexagon
389.0,8.0,4.0,1.0,1.0,1.0,345.0486209985683,3.0,1.0,part_1,,,,,,,,,,,,,white,square
54.0,5.0,1.0,1.0,2.0,2.0,332.7066099991498,3.0,1.0,part_1,,,,,,,,,,,,,gray,cross
0.0,3.0,0.0,0.0,1.0,1.0,328.1752959992445,3.0,1.0,part_1,,,,,,,,,,,,,orange,flipped triangle
0.0,7.0,0.0,1.0,2.0,2.0,322.4591070011229,3.0,1.0,part_1,,,,,,,,,,,,,yellow,diamond
72.0,5.0,1.0,1.0,3.0,3.0,316.4585419999639,3.0,1.0,part_1,,,,,,,,,,,,,gray,cross
416.0,4.0,4.0,0.0,3.0,3.0,360.9527669996168,3.0,1.0,part_1,,,,,,,,,,,,,magenta,circle
33.0,5.0,1.0,1.0,3.0,3.0,317.5149309990956,3.0,1.0,part_1,,,,,,,,,,,,,gray,cross
0.0,2.0,0.0,0.0,1.0,1.0,320.7925269998668,3.0,1.0,part_1,,,,,,,,,,,,,cyan,I
41.0,5.0,1.0,1.0,4.0,4.0,285.2233339999657,3.0,1.0,part_1,,,,,,,,,,,,,gray,cross
88.0,2.0,2.0,0.0,2.0,2.0,286.8104760000278,3.0,1.0,part_1,,,,,,,,,,,,,cyan,I
205.0,7.0,3.0,1.0,2.0,2.0,322.5617570005852,3.0,1.0,part_1,,,,,,,,,,,,,yellow,diamond
115.0,2.0,2.0,0.0,4.0,4.0,331.2406860004557,3.0,1.0,part_1,,,,,,,,,,,,,cyan,I
101.0,2.0,2.0,0.0,3.0,3.0,316.4338400001725,3.0,1.0,part_1,,,,,,,,,,,,,cyan,I
399.0,4.0,4.0,0.0,2.0,2.0,315.4911120000179,3.0,1.0,part_1,,,,,,,,,,,,,magenta,circle
45.0,5.0,1.0,1.0,2.0,2.0,328.4449890015821,3.0,1.0,part_1,,,,,,,,,,,,,gray,cross
124.0,2.0,2.0,0.0,2.0,2.0,350.2233350009192,3.0,1.0,part_1,,,,,,,,,,,,,cyan,I
403.0,4.0,4.0,0.0,1.0,1.0,373.9605880000454,3.0,1.0,part_1,,,,,,,,,,,,,magenta,circle
416.0,8.0,4.0,1.0,4.0,4.0,341.2722109987953,3.0,2.0,part_1,,,,,,,,,,,,,white,square
45.0,1.0,1.0,0.0,3.0,3.0,287.867160001042,3.0,1.0,part_1,,,,,,,,,,,,,green,hexagon
106.0,6.0,2.0,1.0,2.0,2.0,261.4695789998222,3.0,1.0,part_1,,,,,,,,,,,,,blue,triangle
0.0,8.0,0.0,1.0,4.0,4.0,318.3317260009062,3.0,1.0,part_1,,,,,,,,,,,,,white,square
177.0,3.0,3.0,0.0,3.0,3.0,298.2889419999992,3.0,1.0,part_1,,,,,,,,,,,,,orange,flipped triangle
0.0,4.0,0.0,0.0,1.0,1.0,336.8157999993855,3.0,1.0,part_1,,,,,,,,,,,,,magenta,circle
40.0,1.0,1.0,0.0,2.0,2.0,287.6859589996456,3.0,1.0,part_1,,,,,,,,,,,,,green,hexagon
0.0,3.0,0.0,0.0,4.0,4.0,524.6604780004418,3.0,1.0,part_1,,,,,,,,,,,,,orange,flipped triangle
224.0,3.0,3.0,0.0,4.0,4.0,348.3289100004185,3.0,1.0,part_1,,,,,,,,,,,,,orange,flipped triangle
399.0,8.0,4.0,1.0,3.0,3.0,330.6662889990548,3.0,1.0,part_1,,,,,,,,,,,,,white,square
0.0,7.0,0.0,1.0,2.0,2.0,300.059051000062,3.0,1.0,part_1,,,,,,,,,,,,,yellow,diamond
0.0,8.0,0.0,1.0,1.0,1.0,278.3808109998062,3.0,1.0,part_1,,,,,,,,,,,,,white,square
73.0,1.0,1.0,0.0,4.0,4.0,356.5927149993513,3.0,1.0,part_1,,,,,,,,,,,,,green,hexagon
182.0,3.0,3.0,0.0,3.0,3.0,329.0080149999994,3.0,1.0,part_1,,,,,,,,,,,,,orange,flipped triangle
83.0,6.0,2.0,1.0,2.0,2.0,317.5479300007282,3.0,1.0,part_1,,,,,,,,,,,,,blue,triangle
95.0,6.0,2.0,1.0,4.0,4.0,317.7807160009251,3.0,1.0,part_1,,,,,,,,,,,,,blue,triangle
94.0,2.0,2.0,0.0,3.0,3.0,388.2028089992673,3.0,1.0,part_1,,,,,,,,,,,,,cyan,I
222.0,7.0,3.0,1.0,4.0,4.0,312.003476999962,3.0,1.0,part_1,,,,,,,,,,,,,yellow,diamond
403.0,8.0,4.0,1.0,2.0,2.0,266.0807230004138,3.0,1.0,part_1,,,,,,,,,,,,,white,square
94.0,2.0,2.0,0.0,3.0,3.0,292.7958600012061,3.0,1.0,part_1,,,,,,,,,,,,,cyan,I
393.0,8.0,4.0,1.0,4.0,4.0,389.2280979998759,3.0,1.0,part_1,,,,,,,,,,,,,white,square
0.0,7.0,0.0,1.0,2.0,2.0,300.0332989995513,3.0,1.0,part_1,,,,,,,,,,,,,yellow,diamond
416.0,4.0,4.0,0.0,1.0,1.0,316.0260539989394,3.0,1.0,part_1,,,,,,,,,,,,,magenta,circle
0.0,6.0,0.0,1.0,4.0,4.0,315.5203890000848,3.0,1.0,part_1,,,,,,,,,,,,,blue,triangle
0.0,1.0,0.0,0.0,2.0,2.0,306.8046520002099,3.0,1.0,part_1,,,,,,,,,,,,,green,hexagon
200.0,7.0,3.0,1.0,3.0,3.0,432.8577189990028,3.0,1.0,part_1,,,,,,,,,,,,,yellow,diamond
403.0,8.0,4.0,1.0,4.0,4.0,363.2509940016462,3.0,1.0,part_1,,,,,,,,,,,,,white,square
177.0,7.0,3.0,1.0,1.0,1.0,386.6797490009048,4.0,1.0,part_1,,,,,,,,,,,,,yellow,diamond
191.0,3.0,3.0,0.0,2.0,2.0,313.5237010010314,4.0,1.0,part_1,,,,,,,,,,,,,orange,flipped triangle
0.0,8.0,0.0,1.0,4.0,4.0,325.5448959989735,4.0,1.0,part_1,,,,,,,,,,,,,white,square
189.0,7.0,3.0,1.0,1.0,1.0,324.1012849994149,4.0,1.0,part_1,,,,,,,,,,,,,yellow,diamond
0.0,3.0,0.0,0.0,4.0,4.0,367.8510949994233,4.0,1.0,part_1,,,,,,,,,,,,,orange,flipped triangle
214.0,3.0,3.0,0.0,2.0,2.0,300.0557079994905,4.0,1.0,part_1,,,,,,,,,,,,,orange,flipped triangle
212.0,3.0,3.0,0.0,4.0,4.0,328.1995979996281,4.0,1.0,part_1,,,,,,,,,,,,,orange,flipped triangle
58.0,1.0,1.0,0.0,2.0,2.0,322.0866350002325,4.0,1.0,part_1,,,,,,,,,,,,,green,hexagon
88.0,2.0,2.0,0.0,4.0,4.0,286.8820309995499,4.0,1.0,part_1,,,,,,,,,,,,,cyan,I
0.0,2.0,0.0,0.0,1.0,1.0,478.3066700001654,4.0,1.0,part_1,,,,,,,,,,,,,cyan,I
0.0,3.0,0.0,0.0,2.0,2.0,324.8999580009695,4.0,1.0,part_1,,,,,,,,,,,,,orange,flipped triangle
113.0,2.0,2.0,0.0,3.0,3.0,309.6811559989874,4.0,1.0,part_1,,,,,,,,,,,,,cyan,I
185.0,3.0,3.0,0.0,1.0,1.0,408.0068330003996,4.0,1.0,part_1,,,,,,,,,,,,,orange,flipped triangle
0.0,2.0,0.0,0.0,3.0,3.0,357.3382839986152,4.0,1.0,part_1,,,,,,,,,,,,,cyan,I
397.0,4.0,4.0,0.0,2.0,2.0,476.277513000241,4.0,1.0,part_1,,,,,,,,,,,,,magenta,circle
106.0,2.0,2.0,0.0,2.0,2.0,369.6470559989393,4.0,1.0,part_1,,,,,,,,,,,,,cyan,I
0.0,4.0,0.0,0.0,3.0,3.0,327.236578999873,4.0,1.0,part_1,,,,,,,,,,,,,magenta,circle
25.0,1.0,1.0,0.0,4.0,4.0,323.6023720000958,4.0,1.0,part_1,,,,,,,,,,,,,green,hexagon
0.0,3.0,0.0,0.0,2.0,2.0,322.4330649991316,4.0,1.0,part_1,,,,,,,,,,,,,orange,flipped triangle
175.0,3.0,3.0,0.0,2.0,2.0,382.2102590002032,4.0,1.0,part_1,,,,,,,,,,,,,orange,flipped triangle
0.0,6.0,0.0,1.0,4.0,4.0,348.7561430010828,4.0,1.0,part_1,,,,,,,,,,,,,blue,triangle
72.0,5.0,1.0,1.0,1.0,1.0,343.4617350012559,4.0,1.0,part_1,,,,,,,,,,,,,gray,cross
203.0,3.0,3.0,0.0,1.0,1.0,323.7783099993976,4.0,1.0,part_1,,,,,,,,,,,,,orange,flipped triangle
379.0,4.0,4.0,0.0,3.0,3.0,330.3160469986324,4.0,1.0,part_1,,,,,,,,,,,,,magenta,circle
34.0,1.0,1.0,0.0,2.0,2.0,306.1390439997922,4.0,1.0,part_1,,,,,,,,,,,,,green,hexagon
0.0,3.0,0.0,0.0,2.0,2.0,617.9384389997722,4.0,1.0,part_1,,,,,,,,,,,,,orange,flipped triangle
68.0,5.0,1.0,1.0,2.0,2.0,345.1212959989789,4.0,1.0,part_1,,,,,,,,,,,,,gray,cross
108.0,2.0,2.0,0.0,3.0,3.0,354.1978520006523,4.0,1.0,part_1,,,,,,,,,,,,,cyan,I
394.0,8.0,4.0,1.0,2.0,2.0,303.3827990002464,4.0,1.0,part_1,,,,,,,,,,,,,white,square
206.0,7.0,3.0,1.0,1.0,1.0,361.3880250013608,4.0,1.0,part_1,,,,,,,,,,,,,yellow,diamond
0.0,4.0,0.0,0.0,4.0,4.0,335.338849999971,4.0,1.0,part_1,,,,,,,,,,,,,magenta,circle
0.0,6.0,0.0,1.0,2.0,2.0,284.7198569997999,4.0,1.0,part_1,,,,,,,,,,,,,blue,triangle
33.0,1.0,1.0,0.0,4.0,4.0,297.8540700005396,4.0,1.0,part_1,,,,,,,,,,,,,green,hexagon
194.0,7.0,3.0,1.0,1.0,1.0,286.2901680000504,4.0,1.0,part_1,,,,,,,,,,,,,yellow,diamond
0.0,2.0,0.0,0.0,1.0,1.0,370.7115760007582,4.0,1.0,part_1,,,,,,,,,,,,,cyan,I
30.0,5.0,1.0,1.0,2.0,2.0,310.7313010004873,4.0,1.0,part_1,,,,,,,,,,,,,gray,cross
379.0,4.0,4.0,0.0,2.0,2.0,334.435560998827,4.0,1.0,part_1,,,,,,,,,,,,,magenta,circle
0.0,2.0,0.0,0.0,3.0,3.0,290.6669460007833,4.0,1.0,part_1,,,,,,,,,,,,,cyan,I
410.0,4.0,4.0,0.0,2.0,2.0,317.0674399989366,4.0,1.0,part_1,,,,,,,,,,,,,magenta,circle
215.0,7.0,3.0,1.0,2.0,2.0,309.167562998482,4.0,1.0,part_1,,,,,,,,,,,,,yellow,diamond
0.0,8.0,0.0,1.0,2.0,2.0,292.7505389998259,4.0,1.0,part_1,,,,,,,,,,,,,white,square
61.0,1.0,1.0,0.0,3.0,3.0,356.4330789995438,4.0,1.0,part_1,,,,,,,,,,,,,green,hexagon
0.0,1.0,0.0,0.0,1.0,1.0,321.7780579998361,4.0,1.0,part_1,,,,,,,,,,,,,green,hexagon
199.0,7.0,3.0,1.0,3.0,3.0,319.2196790005255,4.0,2.0,part_1,,,,,,,,,,,,,yellow,diamond
190.0,7.0,3.0,1.0,1.0,1.0,359.2731110002205,4.0,1.0,part_1,,,,,,,,,,,,,yellow,diamond
29.0,5.0,1.0,1.0,2.0,2.0,305.0421660009306,4.0,1.0,part_1,,,,,,,,,,,,,gray,cross
220.0,7.0,3.0,1.0,4.0,4.0,300.5465040005219,4.0,1.0,part_1,,,,,,,,,,,,,yellow,diamond
59.0,1.0,1.0,0.0,1.0,1.0,451.2008060009975,4.0,1.0,part_1,,,,,,,,,,,,,green,hexagon
415.0,4.0,4.0,0.0,1.0,1.0,400.6365590012137,4.0,1.0,part_1,,,,,,,,,,,,,magenta,circle
103.0,6.0,2.0,1.0,4.0,4.0,328.5610010007076,4.0,1.0,part_1,,,,,,,,,,,,,blue,triangle
51.0,1.0,1.0,0.0,3.0,3.0,340.926025999579,4.0,1.0,part_1,,,,,,,,,,,,,green,hexagon
393.0,4.0,4.0,0.0,1.0,1.0,318.5933919994568,4.0,1.0,part_1,,,,,,,,,,,,,magenta,circle
94.0,2.0,2.0,0.0,4.0,4.0,301.1952699998801,4.0,1.0,part_1,,,,,,,,,,,,,cyan,I
0.0,4.0,0.0,0.0,4.0,4.0,301.5457339988643,4.0,1.0,part_1,,,,,,,,,,,,,magenta,circle
120.0,2.0,2.0,0.0,4.0,4.0,288.481106999825,4.0,1.0,part_1,,,,,,,,,,,,,cyan,I
421.0,8.0,4.0,1.0,1.0,1.0,320.7735220003087,4.0,1.0,part_1,,,,,,,,,,,,,white,square
96.0,2.0,2.0,0.0,4.0,4.0,336.5614389986149,4.0,1.0,part_1,,,,,,,,,,,,,cyan,I
0.0,5.0,0.0,1.0,3.0,3.0,319.7989100008271,4.0,1.0,part_1,,,,,,,,,,,,,gray,cross
211.0,7.0,3.0,1.0,3.0,3.0,310.3603510007815,4.0,1.0,part_1,,,,,,,,,,,,,yellow,diamond
27.0,5.0,1.0,1.0,4.0,4.0,282.9155790004733,4.0,1.0,part_1,,,,,,,,,,,,,gray,cross
408.0,8.0,4.0,1.0,3.0,3.0,312.0333220012981,4.0,1.0,part_1,,,,,,,,,,,,,white,square
190.0,7.0,3.0,1.0,2.0,2.0,282.4496299999737,4.0,1.0,part_1,,,,,,,,,,,,,yellow,diamond
224.0,7.0,3.0,1.0,2.0,2.0,297.876118998829,4.0,1.0,part_1,,,,,,,,,,,,,yellow,diamond
105.0,6.0,2.0,1.0,4.0,4.0,328.8101289999758,4.0,1.0,part_1,,,,,,,,,,,,,blue,triangle
50.0,1.0,1.0,0.0,1.0,1.0,380.629780000163,4.0,1.0,part_1,,,,,,,,,,,,,green,hexagon
76.0,2.0,2.0,0.0,4.0,4.0,323.1782610000664,4.0,1.0,part_1,,,,,,,,,,,,,cyan,I
403.0,4.0,4.0,0.0,2.0,2.0,278.9123490001657,4.0,1.0,part_1,,,,,,,,,,,,,magenta,circle
0.0,1.0,0.0,0.0,1.0,1.0,329.1396979984711,4.0,1.0,part_1,,,,,,,,,,,,,green,hexagon
54.0,5.0,1.0,1.0,1.0,1.0,556.8861369993101,4.0,1.0,part_1,,,,,,,,,,,,,gray,cross
418.0,4.0,4.0,0.0,1.0,1.0,306.7307510009414,4.0,1.0,part_1,,,,,,,,,,,,,magenta,circle
45.0,5.0,1.0,1.0,3.0,3.0,304.6097079986793,4.0,1.0,part_1,,,,,,,,,,,,,gray,cross
384.0,8.0,4.0,1.0,1.0,1.0,292.689899000834,4.0,1.0,part_1,,,,,,,,,,,,,white,square
376.0,8.0,4.0,1.0,2.0,2.0,291.2276220013154,4.0,1.0,part_1,,,,,,,,,,,,,white,square
394.0,4.0,4.0,0.0,4.0,4.0,302.2039450006559,4.0,1.0,part_1,,,,,,,,,,,,,magenta,circle
205.0,3.0,3.0,0.0,1.0,1.0,340.2683259992045,4.0,1.0,part_1,,,,,,,,,,,,,orange,flipped triangle
0.0,7.0,0.0,1.0,1.0,1.0,299.8904460000631,4.0,1.0,part_1,,,,,,,,,,,,,yellow,diamond
100.0,6.0,2.0,1.0,1.0,1.0,329.2585050003254,4.0,1.0,part_1,,,,,,,,,,,,,blue,triangle
376.0,8.0,4.0,1.0,2.0,2.0,258.5725290009577,4.0,1.0,part_1,,,,,,,,,,,,,white,square
415.0,8.0,4.0,1.0,4.0,4.0,306.1237860001711,4.0,1.0,part_1,,,,,,,,,,,,,white,square
124.0,6.0,2.0,1.0,3.0,3.0,304.9124359986308,4.0,1.0,part_1,,,,,,,,,,,,,blue,triangle
41.0,1.0,1.0,0.0,1.0,1.0,320.4277549994003,4.0,1.0,part_1,,,,,,,,,,,,,green,hexagon
223.0,7.0,3.0,1.0,3.0,3.0,408.6774770003103,4.0,1.0,part_1,,,,,,,,,,,,,yellow,diamond
73.0,5.0,1.0,1.0,4.0,4.0,346.5167160011333,4.0,1.0,part_1,,,,,,,,,,,,,gray,cross
377.0,4.0,4.0,0.0,2.0,2.0,252.51795500116708,4.0,1.0,part_1,,,,,,,,,,,,,magenta,circle
421.0,4.0,4.0,0.0,4.0,4.0,278.2210519999353,4.0,1.0,part_1,,,,,,,,,,,,,magenta,circle
215.0,3.0,3.0,0.0,3.0,3.0,506.3064999994822,4.0,1.0,part_1,,,,,,,,,,,,,orange,flipped triangle
38.0,5.0,1.0,1.0,4.0,4.0,321.8020139993314,4.0,1.0,part_1,,,,,,,,,,,,,gray,cross
34.0,5.0,1.0,1.0,4.0,4.0,329.8385769994638,4.0,1.0,part_1,,,,,,,,,,,,,gray,cross
196.0,3.0,3.0,0.0,3.0,3.0,353.825386000608,4.0,1.0,part_1,,,,,,,,,,,,,orange,flipped triangle
102.0,2.0,2.0,0.0,2.0,2.0,299.7199689998524,4.0,1.0,part_1,,,,,,,,,,,,,cyan,I
208.0,7.0,3.0,1.0,3.0,3.0,488.6396059991966,4.0,1.0,part_1,,,,,,,,,,,,,yellow,diamond
0.0,1.0,0.0,0.0,2.0,2.0,331.5834719996928,4.0,1.0,part_1,,,,,,,,,,,,,green,hexagon
189.0,3.0,3.0,0.0,2.0,2.0,292.848690000028,4.0,1.0,part_1,,,,,,,,,,,,,orange,flipped triangle
70.0,1.0,1.0,0.0,1.0,1.0,496.9617820006533,4.0,1.0,part_1,,,,,,,,,,,,,green,hexagon
199.0,3.0,3.0,0.0,1.0,1.0,341.3378019995434,4.0,1.0,part_1,,,,,,,,,,,,,orange,flipped triangle
0.0,7.0,0.0,1.0,3.0,3.0,308.600825999747,4.0,1.0,part_1,,,,,,,,,,,,,yellow,diamond
379.0,4.0,4.0,0.0,4.0,4.0,391.170458000488,4.0,1.0,part_1,,,,,,,,,,,,,magenta,circle
124.0,2.0,2.0,0.0,4.0,4.0,303.3156649999,4.0,1.0,part_1,,,,,,,,,,,,,cyan,I
0.0,7.0,0.0,1.0,3.0,3.0,369.7426060007274,4.0,1.0,part_1,,,,,,,,,,,,,yellow,diamond
215.0,7.0,3.0,1.0,2.0,2.0,291.64967700126,4.0,1.0,part_1,,,,,,,,,,,,,yellow,diamond
0.0,5.0,1.0,1.0,5.0,5.0,483.8081470006727,1.0,0.0,part_2,go,250.0,250.0,1.0,,,,,,,,,gray,cross
0.0,2.0,2.0,0.0,6.0,6.0,491.1603140008083,1.0,0.0,part_2,go,250.0,250.0,1.0,,,,,,,,,cyan,I
0.0,1.0,1.0,0.0,5.0,5.0,541.4862850011559,1.0,0.0,part_2,go,250.0,250.0,1.0,,,,,,,,,green,hexagon
0.0,3.0,3.0,0.0,5.0,5.0,374.864207000428,1.0,0.0,part_2,go,250.0,250.0,1.0,,,,,,,,,orange,flipped triangle
0.0,8.0,4.0,1.0,6.0,6.0,389.076120000027,1.0,0.0,part_2,go,250.0,250.0,1.0,,,,,,,,,white,square
0.0,5.0,1.0,1.0,6.0,6.0,550.5496739988303,1.0,0.0,part_2,stop,250.0,250.0,3.0,,,,,,,,,gray,cross
0.0,5.0,1.0,1.0,6.0,0.0,0.0,1.0,0.0,part_2,stop,250.0,200.0,4.0,,,,,,,,,gray,cross
0.0,1.0,1.0,0.0,6.0,6.0,427.6643989996955,1.0,0.0,part_2,go,250.0,250.0,1.0,,,,,,,,,green,hexagon
0.0,2.0,2.0,0.0,6.0,6.0,369.5177429999603,1.0,0.0,part_2,go,250.0,250.0,1.0,,,,,,,,,cyan,I
0.0,5.0,1.0,1.0,6.0,6.0,336.9627289994241,1.0,0.0,part_2,go,250.0,250.0,1.0,,,,,,,,,gray,cross
0.0,7.0,3.0,1.0,5.0,5.0,526.1231719996431,1.0,0.0,part_2,go,250.0,250.0,1.0,,,,,,,,,yellow,diamond
0.0,6.0,2.0,1.0,6.0,6.0,390.2760870005295,1.0,0.0,part_2,stop,250.0,250.0,3.0,,,,,,,,,blue,triangle
0.0,5.0,1.0,1.0,6.0,0.0,0.0,1.0,0.0,part_2,stop,250.0,200.0,4.0,,,,,,,,,gray,cross
0.0,6.0,2.0,1.0,5.0,5.0,518.152046999603,1.0,0.0,part_2,go,250.0,250.0,1.0,,,,,,,,,blue,triangle
0.0,3.0,3.0,0.0,5.0,5.0,479.4811039992055,1.0,0.0,part_2,go,250.0,250.0,1.0,,,,,,,,,orange,flipped triangle
0.0,6.0,2.0,1.0,5.0,0.0,0.0,1.0,0.0,part_2,stop,250.0,250.0,4.0,,,,,,,,,blue,triangle
0.0,3.0,3.0,0.0,5.0,5.0,362.7034199998888,1.0,0.0,part_2,go,300.0,250.0,1.0,,,,,,,,,orange,flipped triangle
0.0,4.0,4.0,0.0,6.0,6.0,423.9395189997594,1.0,0.0,part_2,go,300.0,250.0,1.0,,,,,,,,,magenta,circle
0.0,6.0,2.0,1.0,6.0,0.0,0.0,1.0,0.0,part_2,stop,300.0,250.0,4.0,,,,,,,,,blue,triangle
0.0,8.0,4.0,1.0,6.0,6.0,440.7895999993343,1.0,0.0,part_2,stop,300.0,300.0,3.0,,,,,,,,,white,square
0.0,4.0,4.0,0.0,5.0,5.0,457.5751060001494,1.0,0.0,part_2,go,300.0,250.0,1.0,,,,,,,,,magenta,circle
0.0,2.0,2.0,0.0,5.0,5.0,436.2835510000877,1.0,0.0,part_2,go,300.0,250.0,1.0,,,,,,,,,cyan,I
0.0,6.0,2.0,1.0,5.0,0.0,0.0,1.0,0.0,part_2,stop,300.0,250.0,4.0,,,,,,,,,blue,triangle
0.0,7.0,3.0,1.0,5.0,5.0,452.3873840007582,1.0,0.0,part_2,go,350.0,250.0,1.0,,,,,,,,,yellow,diamond
0.0,3.0,3.0,0.0,6.0,6.0,492.3879079997277,1.0,0.0,part_2,go,350.0,250.0,1.0,,,,,,,,,orange,flipped triangle
0.0,2.0,2.0,0.0,5.0,5.0,604.528896001284,1.0,0.0,part_2,go,350.0,250.0,1.0,,,,,,,,,cyan,I
0.0,8.0,4.0,1.0,6.0,0.0,0.0,1.0,0.0,part_2,stop,350.0,250.0,4.0,,,,,,,,,white,square
0.0,7.0,3.0,1.0,6.0,6.0,480.9614599998895,1.0,0.0,part_2,stop,350.0,300.0,3.0,,,,,,,,,yellow,diamond
0.0,4.0,4.0,0.0,6.0,6.0,438.4214749989041,1.0,0.0,part_2,go,350.0,250.0,1.0,,,,,,,,,magenta,circle
0.0,8.0,4.0,1.0,6.0,6.0,366.3982620000752,1.0,0.0,part_2,stop,350.0,250.0,3.0,,,,,,,,,white,square
0.0,2.0,2.0,0.0,6.0,6.0,397.5524170000426,1.0,0.0,part_2,go,350.0,200.0,1.0,,,,,,,,,cyan,I
0.0,5.0,1.0,1.0,6.0,6.0,398.4573140005523,1.0,0.0,part_2,go,350.0,200.0,1.0,,,,,,,,,gray,cross
0.0,3.0,3.0,0.0,5.0,5.0,424.0629779997107,1.0,0.0,part_2,go,350.0,200.0,1.0,,,,,,,,,orange,flipped triangle
0.0,7.0,3.0,1.0,5.0,5.0,438.1082769996283,1.0,0.0,part_2,go,350.0,200.0,1.0,,,,,,,,,yellow,diamond
0.0,4.0,4.0,0.0,6.0,6.0,534.1431930010003,1.0,0.0,part_2,go,350.0,200.0,1.0,,,,,,,,,magenta,circle
0.0,6.0,2.0,1.0,6.0,6.0,379.7765910003363,1.0,0.0,part_2,go,350.0,200.0,1.0,,,,,,,,,blue,triangle
0.0,7.0,3.0,1.0,5.0,0.0,0.0,2.0,0.0,part_2,stop,350.0,200.0,4.0,,,,,,,,,yellow,diamond
0.0,1.0,1.0,0.0,6.0,6.0,388.1115639997006,2.0,0.0,part_2,go,400.0,200.0,1.0,,,,,,,,,green,hexagon
0.0,7.0,3.0,1.0,6.0,0.0,0.0,2.0,0.0,part_2,stop,400.0,200.0,4.0,,,,,,,,,yellow,diamond
0.0,7.0,3.0,1.0,5.0,5.0,342.4382689991034,2.0,0.0,part_2,stop,400.0,250.0,3.0,,,,,,,,,yellow,diamond
0.0,8.0,4.0,1.0,6.0,6.0,437.157570000636,2.0,0.0,part_2,go,350.0,250.0,1.0,,,,,,,,,white,square
0.0,8.0,4.0,1.0,6.0,6.0,480.068126000333,2.0,0.0,part_2,go,350.0,250.0,1.0,,,,,,,,,white,square
0.0,7.0,3.0,1.0,6.0,6.0,388.391615000728,2.0,0.0,part_2,stop,350.0,250.0,3.0,,,,,,,,,yellow,diamond
0.0,4.0,4.0,0.0,5.0,5.0,416.2634779986547,2.0,0.0,part_2,go,350.0,200.0,1.0,,,,,,,,,magenta,circle
0.0,4.0,4.0,0.0,5.0,5.0,403.4588529993925,2.0,0.0,part_2,go,350.0,200.0,1.0,,,,,,,,,magenta,circle
0.0,3.0,3.0,0.0,6.0,6.0,469.3181339989678,2.0,0.0,part_2,go,350.0,200.0,1.0,,,,,,,,,orange,flipped triangle
0.0,4.0,4.0,0.0,6.0,6.0,399.3134130014368,2.0,0.0,part_2,go,350.0,200.0,1.0,,,,,,,,,magenta,circle
0.0,6.0,2.0,1.0,5.0,5.0,402.1711040004447,2.0,0.0,part_2,go,350.0,200.0,1.0,,,,,,,,,blue,triangle
0.0,3.0,3.0,0.0,6.0,6.0,438.1954939999559,2.0,0.0,part_2,go,350.0,200.0,1.0,,,,,,,,,orange,flipped triangle
0.0,5.0,1.0,1.0,5.0,5.0,419.40415499993827,2.0,0.0,part_2,stop,350.0,200.0,3.0,,,,,,,,,gray,cross
0.0,1.0,1.0,0.0,5.0,5.0,391.219157998421,2.0,0.0,part_2,go,300.0,200.0,1.0,,,,,,,,,green,hexagon
0.0,3.0,3.0,0.0,6.0,6.0,524.569243998485,2.0,0.0,part_2,go,300.0,200.0,1.0,,,,,,,,,orange,flipped triangle
0.0,8.0,4.0,1.0,5.0,5.0,447.332264000579,2.0,0.0,part_2,stop,300.0,200.0,3.0,,,,,,,,,white,square
0.0,5.0,1.0,1.0,6.0,6.0,311.8517109996901,2.0,0.0,part_2,stop,250.0,200.0,3.0,,,,,,,,,gray,cross
0.0,3.0,3.0,0.0,6.0,6.0,525.7195760004834,2.0,0.0,part_2,go,250.0,150.0,1.0,,,,,,,,,orange,flipped triangle
0.0,6.0,2.0,1.0,6.0,0.0,0.0,2.0,0.0,part_2,stop,250.0,150.0,4.0,,,,,,,,,blue,triangle
0.0,5.0,1.0,1.0,5.0,5.0,450.6365040015225,2.0,0.0,part_2,go,250.0,200.0,1.0,,,,,,,,,gray,cross
0.0,4.0,4.0,0.0,6.0,6.0,450.535142001172,2.0,0.0,part_2,go,250.0,200.0,1.0,,,,,,,,,magenta,circle
0.0,6.0,2.0,1.0,6.0,6.0,367.9306379999616,2.0,0.0,part_2,go,250.0,200.0,1.0,,,,,,,,,blue,triangle
0.0,1.0,1.0,0.0,6.0,6.0,541.7825589993299,2.0,0.0,part_2,go,250.0,200.0,1.0,,,,,,,,,green,hexagon
0.0,2.0,2.0,0.0,6.0,6.0,450.1401170000463,2.0,0.0,part_2,go,250.0,200.0,1.0,,,,,,,,,cyan,I
0.0,4.0,4.0,0.0,5.0,5.0,375.6144070011942,2.0,0.0,part_2,go,250.0,200.0,1.0,,,,,,,,,magenta,circle
0.0,8.0,4.0,1.0,5.0,0.0,0.0,2.0,0.0,part_2,stop,250.0,200.0,4.0,,,,,,,,,white,square
0.0,3.0,3.0,0.0,5.0,5.0,450.0677640007779,2.0,0.0,part_2,go,300.0,200.0,1.0,,,,,,,,,orange,flipped triangle
0.0,7.0,3.0,1.0,6.0,0.0,0.0,2.0,0.0,part_2,stop,300.0,200.0,4.0,,,,,,,,,yellow,diamond
0.0,2.0,2.0,0.0,5.0,5.0,427.5324500013084,2.0,0.0,part_2,go,300.0,250.0,1.0,,,,,,,,,cyan,I
0.0,7.0,3.0,1.0,5.0,0.0,0.0,2.0,0.0,part_2,stop,300.0,250.0,4.0,,,,,,,,,yellow,diamond
0.0,3.0,3.0,0.0,6.0,6.0,504.22378099938214,2.0,0.0,part_2,go,350.0,250.0,1.0,,,,,,,,,orange,flipped triangle
0.0,1.0,1.0,0.0,5.0,5.0,444.8054109998338,2.0,0.0,part_2,go,350.0,250.0,1.0,,,,,,,,,green,hexagon
0.0,2.0,2.0,0.0,5.0,5.0,419.9297809991549,2.0,0.0,part_2,go,350.0,250.0,1.0,,,,,,,,,cyan,I
0.0,8.0,4.0,1.0,6.0,0.0,0.0,2.0,0.0,part_2,stop,350.0,250.0,4.0,,,,,,,,,white,square
0.0,1.0,1.0,0.0,5.0,5.0,542.5306429988268,2.0,0.0,part_2,go,350.0,300.0,1.0,,,,,,,,,green,hexagon
0.0,4.0,4.0,0.0,5.0,5.0,538.2500790001359,3.0,0.0,part_2,go,350.0,300.0,1.0,,,,,,,,,magenta,circle
0.0,8.0,4.0,1.0,6.0,6.0,375.1953729988599,3.0,0.0,part_2,stop,350.0,300.0,3.0,,,,,,,,,white,square
0.0,8.0,4.0,1.0,5.0,5.0,500.6409369998437,3.0,0.0,part_2,go,350.0,250.0,1.0,,,,,,,,,white,square
0.0,2.0,2.0,0.0,5.0,5.0,371.3175350003439,3.0,0.0,part_2,go,350.0,250.0,1.0,,,,,,,,,cyan,I
0.0,4.0,4.0,0.0,5.0,5.0,453.1545620011457,3.0,0.0,part_2,go,350.0,250.0,1.0,,,,,,,,,magenta,circle
0.0,2.0,2.0,0.0,5.0,5.0,458.7017750000086,3.0,0.0,part_2,go,350.0,250.0,1.0,,,,,,,,,cyan,I
0.0,5.0,1.0,1.0,5.0,5.0,414.0938930013362,3.0,0.0,part_2,stop,350.0,250.0,3.0,,,,,,,,,gray,cross
0.0,3.0,3.0,0.0,6.0,6.0,337.4582550004561,3.0,0.0,part_2,go,300.0,250.0,1.0,,,,,,,,,orange,flipped triangle
0.0,6.0,2.0,1.0,6.0,6.0,328.9258519998839,3.0,0.0,part_2,stop,300.0,250.0,3.0,,,,,,,,,blue,triangle
0.0,1.0,1.0,0.0,6.0,6.0,310.0860860013199,3.0,0.0,part_2,go,300.0,200.0,1.0,,,,,,,,,green,hexagon
0.0,1.0,1.0,0.0,6.0,6.0,296.6181760002655,3.0,0.0,part_2,go,300.0,200.0,1.0,,,,,,,,,green,hexagon
0.0,4.0,4.0,0.0,6.0,6.0,434.4781690015225,3.0,0.0,part_2,go,300.0,200.0,1.0,,,,,,,,,magenta,circle
0.0,5.0,1.0,1.0,5.0,0.0,0.0,3.0,0.0,part_2,stop,300.0,200.0,4.0,,,,,,,,,gray,cross
0.0,4.0,4.0,0.0,6.0,6.0,406.3528400001814,3.0,0.0,part_2,go,350.0,200.0,1.0,,,,,,,,,magenta,circle
0.0,6.0,2.0,1.0,6.0,6.0,368.6619259988219,3.0,0.0,part_2,stop,350.0,200.0,3.0,,,,,,,,,blue,triangle
0.0,5.0,1.0,1.0,5.0,5.0,539.8397870012559,3.0,0.0,part_2,stop,350.0,150.0,3.0,,,,,,,,,gray,cross
0.0,7.0,3.0,1.0,5.0,0.0,0.0,3.0,0.0,part_2,stop,300.0,150.0,4.0,,,,,,,,,yellow,diamond
0.0,6.0,2.0,1.0,5.0,5.0,632.1617840003455,3.0,0.0,part_2,go,350.0,150.0,1.0,,,,,,,,,blue,triangle
0.0,5.0,1.0,1.0,6.0,0.0,0.0,3.0,0.0,part_2,stop,350.0,150.0,4.0,,,,,,,,,gray,cross
0.0,2.0,2.0,0.0,5.0,5.0,442.4287469992123,3.0,0.0,part_2,go,350.0,200.0,1.0,,,,,,,,,cyan,I
0.0,5.0,1.0,1.0,5.0,0.0,0.0,3.0,0.0,part_2,stop,350.0,200.0,4.0,,,,,,,,,gray,cross
0.0,1.0,1.0,0.0,5.0,5.0,387.5025559991627,3.0,0.0,part_2,go,400.0,200.0,1.0,,,,,,,,,green,hexagon
0.0,8.0,4.0,1.0,5.0,5.0,371.8933620002644,3.0,0.0,part_2,stop,400.0,200.0,3.0,,,,,,,,,white,square
0.0,2.0,2.0,0.0,5.0,5.0,451.9817820000753,3.0,0.0,part_2,go,350.0,200.0,1.0,,,,,,,,,cyan,I
0.0,3.0,3.0,0.0,6.0,6.0,407.0917650005867,3.0,0.0,part_2,go,350.0,200.0,1.0,,,,,,,,,orange,flipped triangle
0.0,2.0,2.0,0.0,6.0,6.0,586.4421620008216,3.0,0.0,part_2,go,350.0,200.0,1.0,,,,,,,,,cyan,I
0.0,7.0,3.0,1.0,6.0,6.0,369.1424839998944,3.0,0.0,part_2,go,350.0,200.0,1.0,,,,,,,,,yellow,diamond
0.0,7.0,3.0,1.0,6.0,6.0,341.586909000398,3.0,0.0,part_2,go,350.0,200.0,1.0,,,,,,,,,yellow,diamond
0.0,3.0,3.0,0.0,6.0,6.0,403.1444209995243,3.0,0.0,part_2,go,350.0,200.0,1.0,,,,,,,,,orange,flipped triangle
0.0,3.0,3.0,0.0,6.0,6.0,552.2491440005979,3.0,0.0,part_2,go,350.0,200.0,1.0,,,,,,,,,orange,flipped triangle
0.0,7.0,3.0,1.0,6.0,0.0,0.0,3.0,0.0,part_2,stop,350.0,200.0,4.0,,,,,,,,,yellow,diamond
0.0,4.0,4.0,0.0,6.0,6.0,537.4426310008857,3.0,0.0,part_2,go,350.0,250.0,1.0,,,,,,,,,magenta,circle
0.0,1.0,1.0,0.0,6.0,6.0,404.4048880004993,3.0,0.0,part_2,go,350.0,250.0,1.0,,,,,,,,,green,hexagon
0.0,7.0,3.0,1.0,6.0,6.0,352.4518829999579,3.0,0.0,part_2,stop,350.0,250.0,3.0,,,,,,,,,yellow,diamond
0.0,4.0,4.0,0.0,5.0,5.0,515.6742389990541,3.0,0.0,part_2,go,350.0,200.0,1.0,,,,,,,,,magenta,circle
0.0,3.0,3.0,0.0,5.0,5.0,400.6931789990631,3.0,0.0,part_2,go,350.0,200.0,1.0,,,,,,,,,orange,flipped triangle
0.0,5.0,1.0,1.0,5.0,0.0,0.0,4.0,0.0,part_2,stop,350.0,200.0,4.0,,,,,,,,,gray,cross
0.0,7.0,3.0,1.0,5.0,5.0,369.6982790006586,4.0,0.0,part_2,stop,400.0,200.0,3.0,,,,,,,,,yellow,diamond
0.0,8.0,4.0,1.0,6.0,0.0,0.0,4.0,0.0,part_2,stop,350.0,200.0,4.0,,,,,,,,,white,square
0.0,8.0,4.0,1.0,6.0,6.0,798.1969100001152,4.0,0.0,part_2,go,350.0,250.0,1.0,,,,,,,,,white,square
0.0,2.0,2.0,0.0,5.0,5.0,407.4830609988566,4.0,0.0,part_2,go,350.0,250.0,1.0,,,,,,,,,cyan,I
0.0,7.0,3.0,1.0,6.0,0.0,0.0,4.0,0.0,part_2,stop,350.0,250.0,4.0,,,,,,,,,yellow,diamond
0.0,2.0,2.0,0.0,5.0,5.0,404.521668999223,4.0,0.0,part_2,go,350.0,300.0,1.0,,,,,,,,,cyan,I
0.0,3.0,3.0,0.0,5.0,5.0,384.6825500004343,4.0,0.0,part_2,go,350.0,300.0,1.0,,,,,,,,,orange,flipped triangle
0.0,8.0,4.0,1.0,5.0,0.0,0.0,4.0,0.0,part_2,stop,350.0,300.0,4.0,,,,,,,,,white,square
0.0,2.0,2.0,0.0,6.0,6.0,412.060995999127,4.0,0.0,part_2,go,400.0,300.0,1.0,,,,,,,,,cyan,I
0.0,4.0,4.0,0.0,5.0,5.0,379.3082689990115,4.0,0.0,part_2,go,400.0,300.0,1.0,,,,,,,,,magenta,circle
0.0,1.0,1.0,0.0,5.0,5.0,412.7648049998242,4.0,0.0,part_2,go,400.0,300.0,1.0,,,,,,,,,green,hexagon
0.0,6.0,2.0,1.0,5.0,5.0,376.335458999165,4.0,0.0,part_2,stop,400.0,300.0,3.0,,,,,,,,,blue,triangle
0.0,1.0,1.0,0.0,6.0,6.0,450.0579520008614,4.0,0.0,part_2,go,350.0,300.0,1.0,,,,,,,,,green,hexagon
0.0,7.0,3.0,1.0,5.0,5.0,334.3266739993851,4.0,0.0,part_2,stop,350.0,300.0,3.0,,,,,,,,,yellow,diamond
0.0,6.0,2.0,1.0,6.0,6.0,386.9443200001115,4.0,0.0,part_2,stop,300.0,300.0,3.0,,,,,,,,,blue,triangle
0.0,4.0,4.0,0.0,5.0,5.0,407.8776990008919,4.0,0.0,part_2,go,300.0,250.0,1.0,,,,,,,,,magenta,circle
0.0,3.0,3.0,0.0,6.0,6.0,442.8771000002598,4.0,0.0,part_2,go,300.0,250.0,1.0,,,,,,,,,orange,flipped triangle
0.0,1.0,1.0,0.0,5.0,5.0,385.5049939993478,4.0,0.0,part_2,go,300.0,250.0,1.0,,,,,,,,,green,hexagon
0.0,3.0,3.0,0.0,6.0,6.0,366.8673390002368,4.0,0.0,part_2,go,300.0,250.0,1.0,,,,,,,,,orange,flipped triangle
0.0,4.0,4.0,0.0,6.0,6.0,349.698312998953,4.0,0.0,part_2,go,300.0,250.0,1.0,,,,,,,,,magenta,circle
0.0,5.0,1.0,1.0,6.0,6.0,348.5867780000262,4.0,0.0,part_2,go,300.0,250.0,1.0,,,,,,,,,gray,cross
0.0,2.0,2.0,0.0,5.0,5.0,470.1801890005299,4.0,0.0,part_2,go,300.0,250.0,1.0,,,,,,,,,cyan,I
0.0,1.0,1.0,0.0,5.0,5.0,385.2796620012668,4.0,0.0,part_2,go,300.0,250.0,1.0,,,,,,,,,green,hexagon
0.0,5.0,1.0,1.0,5.0,0.0,0.0,4.0,0.0,part_2,stop,300.0,250.0,4.0,,,,,,,,,gray,cross
0.0,7.0,3.0,1.0,5.0,0.0,0.0,4.0,0.0,part_2,stop,350.0,250.0,4.0,,,,,,,,,yellow,diamond
0.0,4.0,4.0,0.0,5.0,5.0,413.7424199998349,4.0,0.0,part_2,go,400.0,250.0,1.0,,,,,,,,,magenta,circle
0.0,7.0,3.0,1.0,6.0,6.0,811.8804219993763,4.0,0.0,part_2,go,400.0,250.0,1.0,,,,,,,,,yellow,diamond
0.0,5.0,1.0,1.0,5.0,5.0,663.0411419992015,4.0,0.0,part_2,go,400.0,250.0,1.0,,,,,,,,,gray,cross
0.0,3.0,3.0,0.0,6.0,6.0,459.167246999641,4.0,0.0,part_2,go,400.0,250.0,1.0,,,,,,,,,orange,flipped triangle
0.0,8.0,4.0,1.0,5.0,0.0,0.0,4.0,0.0,part_2,stop,400.0,250.0,4.0,,,,,,,,,white,square
0.0,6.0,2.0,1.0,5.0,0.0,0.0,4.0,0.0,part_2,stop,450.0,250.0,4.0,,,,,,,,,blue,triangle
0.0,5.0,1.0,1.0,6.0,6.0,344.8664500010636,4.0,0.0,part_2,stop,500.0,250.0,3.0,,,,,,,,,gray,cross
0.0,2.0,2.0,0.0,5.0,5.0,470.3120660014974,4.0,0.0,part_2,go,500.0,200.0,1.0,,,,,,,,,cyan,I
0.0,1.0,1.0,0.0,6.0,6.0,467.2722209998028,4.0,0.0,part_2,go,500.0,200.0,1.0,,,,,,,,,green,hexagon
0.0,7.0,3.0,1.0,5.0,0.0,0.0,4.0,0.0,part_2,stop,500.0,200.0,4.0,,,,,,,,,yellow,diamond
0.0,2.0,2.0,0.0,6.0,6.0,422.8626930016617,5.0,0.0,part_2,go,550.0,200.0,1.0,,,,,,,,,cyan,I
0.0,7.0,3.0,1.0,5.0,5.0,696.7959430003248,5.0,0.0,part_2,stop,550.0,200.0,3.0,,,,,,,,,yellow,diamond
0.0,1.0,1.0,0.0,5.0,5.0,448.599880999609,5.0,0.0,part_2,go,500.0,200.0,1.0,,,,,,,,,green,hexagon
0.0,3.0,3.0,0.0,5.0,5.0,469.6610880000662,5.0,0.0,part_2,go,500.0,200.0,1.0,,,,,,,,,orange,flipped triangle
0.0,6.0,2.0,1.0,6.0,0.0,0.0,5.0,0.0,part_2,stop,500.0,200.0,4.0,,,,,,,,,blue,triangle
0.0,1.0,1.0,0.0,5.0,5.0,439.865018999626,5.0,0.0,part_2,go,500.0,250.0,1.0,,,,,,,,,green,hexagon
0.0,5.0,1.0,1.0,6.0,6.0,808.4022479997657,5.0,0.0,part_2,go,500.0,250.0,1.0,,,,,,,,,gray,cross
0.0,3.0,3.0,0.0,5.0,5.0,377.9762160011159,5.0,0.0,part_2,go,500.0,250.0,1.0,,,,,,,,,orange,flipped triangle
0.0,4.0,4.0,0.0,6.0,6.0,371.6833199996472,5.0,0.0,part_2,go,500.0,250.0,1.0,,,,,,,,,magenta,circle
0.0,4.0,4.0,0.0,6.0,6.0,361.1918379992858,5.0,0.0,part_2,go,500.0,250.0,1.0,,,,,,,,,magenta,circle
0.0,5.0,1.0,1.0,6.0,0.0,0.0,5.0,0.0,part_2,stop,500.0,250.0,4.0,,,,,,,,,gray,cross
0.0,6.0,2.0,1.0,6.0,0.0,0.0,5.0,0.0,part_2,stop,500.0,300.0,4.0,,,,,,,,,blue,triangle
0.0,8.0,4.0,1.0,5.0,5.0,845.9111399988615,5.0,0.0,part_2,go,500.0,350.0,1.0,,,,,,,,,white,square
0.0,8.0,4.0,1.0,5.0,5.0,663.7678629995207,5.0,0.0,part_2,stop,500.0,350.0,3.0,,,,,,,,,white,square
0.0,5.0,1.0,1.0,5.0,0.0,0.0,5.0,0.0,part_2,stop,450.0,350.0,4.0,,,,,,,,,gray,cross
0.0,4.0,4.0,0.0,6.0,6.0,391.7077749993041,5.0,0.0,part_2,go,500.0,350.0,1.0,,,,,,,,,magenta,circle
0.0,8.0,4.0,1.0,5.0,0.0,0.0,5.0,0.0,part_2,stop,500.0,350.0,4.0,,,,,,,,,white,square
0.0,3.0,3.0,0.0,5.0,5.0,513.025430000198,5.0,0.0,part_2,go,550.0,350.0,1.0,,,,,,,,,orange,flipped triangle
0.0,2.0,2.0,0.0,6.0,6.0,393.0387599993992,5.0,0.0,part_2,go,550.0,350.0,1.0,,,,,,,,,cyan,I
0.0,5.0,1.0,1.0,6.0,0.0,0.0,5.0,0.0,part_2,stop,550.0,350.0,4.0,,,,,,,,,gray,cross
0.0,6.0,2.0,1.0,5.0,0.0,0.0,5.0,0.0,part_2,stop,550.0,400.0,4.0,,,,,,,,,blue,triangle
0.0,5.0,1.0,1.0,5.0,0.0,0.0,5.0,0.0,part_2,stop,600.0,400.0,4.0,,,,,,,,,gray,cross
0.0,1.0,1.0,0.0,5.0,5.0,552.1534950003115,5.0,0.0,part_2,go,650.0,400.0,1.0,,,,,,,,,green,hexagon
0.0,3.0,3.0,0.0,5.0,5.0,388.6629090011411,5.0,0.0,part_2,go,650.0,400.0,1.0,,,,,,,,,orange,flipped triangle
0.0,5.0,1.0,1.0,6.0,0.0,0.0,5.0,0.0,part_2,stop,650.0,400.0,4.0,,,,,,,,,gray,cross
0.0,1.0,1.0,0.0,6.0,6.0,471.8594070000108,5.0,0.0,part_2,go,650.0,450.0,1.0,,,,,,,,,green,hexagon
0.0,8.0,4.0,1.0,6.0,0.0,0.0,5.0,0.0,part_2,stop,650.0,450.0,4.0,,,,,,,,,white,square
0.0,1.0,1.0,0.0,6.0,6.0,474.3038449996675,5.0,0.0,part_2,go,650.0,500.0,1.0,,,,,,,,,green,hexagon
0.0,5.0,1.0,1.0,6.0,0.0,0.0,5.0,0.0,part_2,stop,650.0,500.0,4.0,,,,,,,,,gray,cross
0.0,8.0,4.0,1.0,5.0,0.0,0.0,5.0,0.0,part_2,stop,650.0,550.0,4.0,,,,,,,,,white,square
0.0,6.0,2.0,1.0,6.0,6.0,956.3549479989888,5.0,0.0,part_2,go,700.0,550.0,1.0,,,,,,,,,blue,triangle
0.0,6.0,2.0,1.0,6.0,6.0,1022.1208640014083,5.0,0.0,part_2,go,700.0,550.0,1.0,,,,,,,,,blue,triangle
0.0,6.0,2.0,1.0,6.0,0.0,0.0,5.0,0.0,part_2,stop,700.0,550.0,4.0,,,,,,,,,blue,triangle
0.0,8.0,4.0,1.0,6.0,0.0,0.0,5.0,0.0,part_2,stop,700.0,600.0,4.0,,,,,,,,,white,square
0.0,4.0,4.0,0.0,6.0,6.0,419.5092429999931,5.0,0.0,part_2,go,700.0,650.0,1.0,,,,,,,,,magenta,circle
0.0,4.0,4.0,0.0,6.0,6.0,318.3295239996369,5.0,0.0,part_2,go,700.0,650.0,1.0,,,,,,,,,magenta,circle
0.0,5.0,1.0,1.0,5.0,0.0,0.0,6.0,0.0,part_2,stop,700.0,650.0,4.0,,,,,,,,,gray,cross
0.0,6.0,2.0,1.0,6.0,0.0,0.0,6.0,0.0,part_2,stop,750.0,650.0,4.0,,,,,,,,,blue,triangle
0.0,7.0,3.0,1.0,6.0,0.0,0.0,6.0,0.0,part_2,stop,750.0,700.0,4.0,,,,,,,,,yellow,diamond
0.0,5.0,1.0,1.0,6.0,6.0,1187.4113179983397,6.0,0.0,part_2,go,750.0,750.0,1.0,,,,,,,,,gray,cross
0.0,3.0,3.0,0.0,5.0,5.0,484.525008001583,6.0,0.0,part_2,go,750.0,750.0,1.0,,,,,,,,,orange,flipped triangle
0.0,6.0,2.0,1.0,6.0,6.0,933.8830300002884,6.0,0.0,part_2,stop,750.0,750.0,3.0,,,,,,,,,blue,triangle
0.0,7.0,3.0,1.0,6.0,6.0,941.9316479998088,6.0,0.0,part_2,go,750.0,700.0,1.0,,,,,,,,,yellow,diamond
0.0,2.0,2.0,0.0,5.0,5.0,443.2913569999073,6.0,0.0,part_2,go,750.0,700.0,1.0,,,,,,,,,cyan,I
0.0,1.0,1.0,0.0,5.0,5.0,377.4093119991448,6.0,0.0,part_2,go,750.0,700.0,1.0,,,,,,,,,green,hexagon
0.0,4.0,4.0,0.0,6.0,6.0,389.7263669987296,6.0,0.0,part_2,go,750.0,700.0,1.0,,,,,,,,,magenta,circle
0.0,5.0,1.0,1.0,5.0,5.0,1025.9392370007845,6.0,0.0,part_2,go,750.0,700.0,1.0,,,,,,,,,gray,cross
0.0,7.0,3.0,1.0,6.0,6.0,1022.2072270007629,6.0,0.0,part_2,go,750.0,700.0,1.0,,,,,,,,,yellow,diamond
0.0,4.0,4.0,0.0,5.0,5.0,468.0094830000598,6.0,0.0,part_2,go,750.0,700.0,1.0,,,,,,,,,magenta,circle
0.0,7.0,3.0,1.0,5.0,5.0,877.7391459989303,6.0,0.0,part_2,stop,750.0,700.0,3.0,,,,,,,,,yellow,diamond
0.0,8.0,4.0,1.0,5.0,5.0,1012.6314900007856,6.0,0.0,part_2,go,700.0,700.0,1.0,,,,,,,,,white,square
0.0,6.0,2.0,1.0,6.0,6.0,878.9100539997889,6.0,0.0,part_2,stop,700.0,700.0,3.0,,,,,,,,,blue,triangle
0.0,8.0,4.0,1.0,5.0,0.0,0.0,6.0,0.0,part_2,stop,700.0,650.0,4.0,,,,,,,,,white,square
0.0,8.0,4.0,1.0,6.0,0.0,0.0,6.0,0.0,part_2,stop,750.0,650.0,4.0,,,,,,,,,white,square
0.0,2.0,2.0,0.0,5.0,5.0,526.7439090002881,6.0,0.0,part_2,go,750.0,700.0,1.0,,,,,,,,,cyan,I
0.0,4.0,4.0,0.0,5.0,5.0,483.4307419987453,6.0,0.0,part_2,go,750.0,700.0,1.0,,,,,,,,,magenta,circle
0.0,8.0,4.0,1.0,6.0,6.0,866.6606189999584,6.0,0.0,part_2,stop,750.0,700.0,3.0,,,,,,,,,white,square
0.0,7.0,3.0,1.0,5.0,0.0,0.0,6.0,0.0,part_2,stop,750.0,650.0,4.0,,,,,,,,,yellow,diamond
0.0,2.0,2.0,0.0,6.0,6.0,477.8770520006219,6.0,0.0,part_2,go,800.0,650.0,1.0,,,,,,,,,cyan,I
0.0,5.0,1.0,1.0,6.0,0.0,0.0,6.0,0.0,part_2,stop,800.0,650.0,4.0,,,,,,,,,gray,cross
0.0,4.0,4.0,0.0,6.0,6.0,514.1456170003949,6.0,0.0,part_2,go,800.0,700.0,1.0,,,,,,,,,magenta,circle
0.0,2.0,2.0,0.0,5.0,5.0,502.0541210014926,6.0,0.0,part_2,go,800.0,700.0,1.0,,,,,,,,,cyan,I
0.0,2.0,2.0,0.0,6.0,6.0,493.7949640006991,6.0,0.0,part_2,go,800.0,700.0,1.0,,,,,,,,,cyan,I
0.0,7.0,3.0,1.0,6.0,0.0,0.0,6.0,0.0,part_2,stop,800.0,700.0,4.0,,,,,,,,,yellow,diamond
0.0,7.0,3.0,1.0,6.0,0.0,0.0,6.0,0.0,part_2,stop,800.0,750.0,4.0,,,,,,,,,yellow,diamond
0.0,6.0,2.0,1.0,5.0,0.0,0.0,6.0,0.0,part_2,stop,800.0,800.0,4.0,,,,,,,,,blue,triangle
0.0,8.0,4.0,1.0,6.0,6.0,1048.7338040002214,6.0,0.0,part_2,go,850.0,800.0,1.0,,,,,,,,,white,square
0.0,3.0,3.0,0.0,5.0,5.0,526.2278270001843,6.0,0.0,part_2,go,850.0,800.0,1.0,,,,,,,,,orange,flipped triangle
0.0,1.0,1.0,0.0,5.0,5.0,385.2801209995959,6.0,0.0,part_2,go,850.0,800.0,1.0,,,,,,,,,green,hexagon
0.0,1.0,1.0,0.0,6.0,6.0,484.941278999031,6.0,0.0,part_2,go,850.0,800.0,1.0,,,,,,,,,green,hexagon
0.0,8.0,4.0,1.0,5.0,0.0,0.0,6.0,0.0,part_2,stop,850.0,800.0,4.0,,,,,,,,,white,square
0.0,1.0,1.0,0.0,5.0,5.0,561.0503200005041,6.0,0.0,part_2,go,900.0,800.0,1.0,,,,,,,,,green,hexagon
0.0,1.0,1.0,0.0,6.0,6.0,553.2977339989884,7.0,0.0,part_2,go,900.0,800.0,1.0,,,,,,,,,green,hexagon
0.0,4.0,4.0,0.0,5.0,5.0,321.7494569998962,7.0,0.0,part_2,go,900.0,800.0,1.0,,,,,,,,,magenta,circle
0.0,5.0,1.0,1.0,6.0,6.0,840.59598299973,7.0,0.0,part_2,stop,900.0,800.0,3.0,,,,,,,,,gray,cross
0.0,2.0,2.0,0.0,6.0,6.0,436.8723209991003,7.0,0.0,part_2,go,900.0,750.0,1.0,,,,,,,,,cyan,I
0.0,6.0,2.0,1.0,6.0,6.0,372.4538059996121,7.0,0.0,part_2,stop,900.0,750.0,3.0,,,,,,,,,blue,triangle
0.0,8.0,4.0,1.0,5.0,5.0,1065.4821960015397,7.0,0.0,part_2,stop,900.0,700.0,3.0,,,,,,,,,white,square
0.0,7.0,3.0,1.0,5.0,0.0,0.0,7.0,0.0,part_2,stop,850.0,700.0,4.0,,,,,,,,,yellow,diamond
0.0,1.0,1.0,0.0,5.0,5.0,451.8132329994841,7.0,0.0,part_2,go,900.0,700.0,1.0,,,,,,,,,green,hexagon
0.0,6.0,2.0,1.0,5.0,5.0,401.103136000529,7.0,0.0,part_2,stop,900.0,700.0,3.0,,,,,,,,,blue,triangle
0.0,1.0,1.0,0.0,5.0,5.0,459.9401049999869,7.0,0.0,part_2,go,850.0,700.0,1.0,,,,,,,,,green,hexagon
0.0,4.0,4.0,0.0,5.0,5.0,388.5507960003451,7.0,0.0,part_2,go,850.0,700.0,1.0,,,,,,,,,magenta,circle
0.0,2.0,2.0,0.0,6.0,6.0,386.3056729987875,7.0,0.0,part_2,go,850.0,700.0,1.0,,,,,,,,,cyan,I
0.0,7.0,3.0,1.0,5.0,5.0,342.470334000609,7.0,0.0,part_2,stop,850.0,700.0,3.0,,,,,,,,,yellow,diamond
0.0,7.0,3.0,1.0,6.0,0.0,0.0,7.0,0.0,part_2,stop,800.0,700.0,4.0,,,,,,,,,yellow,diamond
0.0,1.0,1.0,0.0,6.0,6.0,435.7295959998737,7.0,0.0,part_2,go,800.0,750.0,1.0,,,,,,,,,green,hexagon
0.0,5.0,1.0,1.0,6.0,0.0,0.0,7.0,0.0,part_2,stop,800.0,750.0,4.0,,,,,,,,,gray,cross
0.0,1.0,1.0,0.0,6.0,6.0,408.2227259987121,7.0,0.0,part_2,go,800.0,800.0,1.0,,,,,,,,,green,hexagon
0.0,1.0,1.0,0.0,6.0,6.0,394.3877410001732,7.0,0.0,part_2,go,800.0,800.0,1.0,,,,,,,,,green,hexagon
0.0,1.0,1.0,0.0,5.0,5.0,471.3784679988748,7.0,0.0,part_2,go,800.0,800.0,1.0,,,,,,,,,green,hexagon
0.0,6.0,2.0,1.0,5.0,0.0,0.0,7.0,0.0,part_2,stop,800.0,800.0,4.0,,,,,,,,,blue,triangle
0.0,6.0,2.0,1.0,5.0,0.0,0.0,7.0,0.0,part_2,stop,850.0,800.0,4.0,,,,,,,,,blue,triangle
0.0,2.0,2.0,0.0,6.0,6.0,427.8303970004344,7.0,0.0,part_2,go,900.0,800.0,1.0,,,,,,,,,cyan,I
0.0,8.0,4.0,1.0,5.0,5.0,1035.20339699935,7.0,0.0,part_2,stop,900.0,800.0,3.0,,,,,,,,,white,square
0.0,3.0,3.0,0.0,6.0,6.0,401.1296820008283,7.0,0.0,part_2,go,850.0,800.0,1.0,,,,,,,,,orange,flipped triangle
0.0,3.0,3.0,0.0,6.0,6.0,428.9327530004811,7.0,0.0,part_2,go,850.0,800.0,1.0,,,,,,,,,orange,flipped triangle
0.0,3.0,3.0,0.0,6.0,6.0,416.6398280012799,7.0,0.0,part_2,go,850.0,800.0,1.0,,,,,,,,,orange,flipped triangle
0.0,2.0,2.0,0.0,6.0,6.0,417.6120259999152,7.0,0.0,part_2,go,850.0,800.0,1.0,,,,,,,,,cyan,I
0.0,4.0,4.0,0.0,6.0,6.0,361.8382120002934,7.0,0.0,part_2,go,850.0,800.0,1.0,,,,,,,,,magenta,circle
0.0,7.0,3.0,1.0,5.0,0.0,0.0,7.0,0.0,part_2,stop,850.0,800.0,4.0,,,,,,,,,yellow,diamond
0.0,5.0,1.0,1.0,5.0,0.0,0.0,7.0,0.0,part_2,stop,900.0,800.0,4.0,,,,,,,,,gray,cross
0.0,3.0,3.0,0.0,6.0,6.0,445.7395490007911,7.0,0.0,part_2,go,950.0,800.0,1.0,,,,,,,,,orange,flipped triangle
0.0,6.0,2.0,1.0,5.0,5.0,521.9266420008353,7.0,0.0,part_2,stop,950.0,800.0,3.0,,,,,,,,,blue,triangle
0.0,8.0,4.0,1.0,6.0,6.0,335.7834159996855,7.0,0.0,part_2,stop,900.0,800.0,3.0,,,,,,,,,white,square
0.0,4.0,4.0,0.0,6.0,6.0,467.5012980005704,7.0,0.0,part_2,go,900.0,750.0,1.0,,,,,,,,,magenta,circle
0.0,7.0,3.0,1.0,5.0,0.0,0.0,7.0,0.0,part_2,stop,900.0,750.0,4.0,,,,,,,,,yellow,diamond
0.0,6.0,2.0,1.0,5.0,5.0,1277.6089510007296,7.0,0.0,part_2,go,950.0,750.0,1.0,,,,,,,,,blue,triangle
0.0,3.0,3.0,0.0,5.0,5.0,453.2111689986777,8.0,0.0,part_2,go,950.0,750.0,1.0,,,,,,,,,orange,flipped triangle
0.0,3.0,3.0,0.0,6.0,6.0,346.8668139994406,8.0,0.0,part_2,go,950.0,750.0,1.0,,,,,,,,,orange,flipped triangle
0.0,2.0,2.0,0.0,5.0,5.0,570.209680001426,8.0,0.0,part_2,go,950.0,750.0,1.0,,,,,,,,,cyan,I
0.0,3.0,3.0,0.0,5.0,5.0,435.5751429993688,8.0,0.0,part_2,go,950.0,750.0,1.0,,,,,,,,,orange,flipped triangle
0.0,1.0,1.0,0.0,6.0,6.0,651.8718669994996,8.0,0.0,part_2,go,950.0,750.0,1.0,,,,,,,,,green,hexagon
0.0,6.0,2.0,1.0,5.0,0.0,0.0,8.0,0.0,part_2,stop,950.0,750.0,4.0,,,,,,,,,blue,triangle
0.0,2.0,2.0,0.0,5.0,5.0,406.7493900001864,8.0,0.0,part_2,go,1000.0,750.0,1.0,,,,,,,,,cyan,I
0.0,1.0,1.0,0.0,5.0,5.0,344.7602750002261,8.0,0.0,part_2,go,1000.0,750.0,1.0,,,,,,,,,green,hexagon
0.0,4.0,4.0,0.0,5.0,5.0,364.5480800005316,8.0,0.0,part_2,go,1000.0,750.0,1.0,,,,,,,,,magenta,circle
0.0,1.0,1.0,0.0,6.0,6.0,329.040681999686,8.0,0.0,part_2,go,1000.0,750.0,1.0,,,,,,,,,green,hexagon
0.0,2.0,2.0,0.0,6.0,6.0,349.40262300006,8.0,0.0,part_2,go,1000.0,750.0,1.0,,,,,,,,,cyan,I
0.0,2.0,2.0,0.0,6.0,6.0,390.8988640014286,8.0,0.0,part_2,go,1000.0,750.0,1.0,,,,,,,,,cyan,I
0.0,3.0,3.0,0.0,5.0,5.0,394.6877729995321,8.0,0.0,part_2,go,1000.0,750.0,1.0,,,,,,,,,orange,flipped triangle
0.0,5.0,1.0,1.0,5.0,0.0,0.0,8.0,0.0,part_2,stop,1000.0,750.0,4.0,,,,,,,,,gray,cross
0.0,6.0,2.0,1.0,5.0,5.0,1230.6325270001253,8.0,0.0,part_2,go,1050.0,750.0,1.0,,,,,,,,,blue,triangle
0.0,3.0,3.0,0.0,5.0,5.0,394.878572999005,8.0,0.0,part_2,go,1050.0,750.0,1.0,,,,,,,,,orange,flipped triangle
0.0,5.0,1.0,1.0,5.0,0.0,0.0,8.0,0.0,part_2,stop,1050.0,750.0,4.0,,,,,,,,,gray,cross
0.0,1.0,1.0,0.0,6.0,6.0,417.2672139993665,8.0,0.0,part_2,go,1100.0,750.0,1.0,,,,,,,,,green,hexagon
0.0,3.0,3.0,0.0,5.0,5.0,470.1120720001199,8.0,0.0,part_2,go,1100.0,750.0,1.0,,,,,,,,,orange,flipped triangle
0.0,6.0,2.0,1.0,5.0,5.0,1213.4531560004689,8.0,0.0,part_2,stop,1100.0,750.0,3.0,,,,,,,,,blue,triangle
0.0,8.0,4.0,1.0,6.0,0.0,0.0,8.0,0.0,part_2,stop,1050.0,750.0,4.0,,,,,,,,,white,square
0.0,2.0,2.0,0.0,6.0,6.0,415.4807140002958,8.0,0.0,part_2,go,1050.0,800.0,1.0,,,,,,,,,cyan,I
0.0,2.0,2.0,0.0,5.0,5.0,507.4557679999998,8.0,0.0,part_2,go,1050.0,800.0,1.0,,,,,,,,,cyan,I
0.0,8.0,4.0,1.0,5.0,0.0,0.0,8.0,0.0,part_2,stop,1050.0,800.0,4.0,,,,,,,,,white,square
0.0,5.0,1.0,1.0,5.0,0.0,0.0,8.0,0.0,part_2,stop,1100.0,800.0,4.0,,,,,,,,,gray,cross
0.0,8.0,4.0,1.0,5.0,5.0,1452.3786359986843,8.0,0.0,part_2,go,1150.0,800.0,1.0,,,,,,,,,white,square
0.0,2.0,2.0,0.0,6.0,6.0,475.5421770005341,8.0,0.0,part_2,go,1150.0,800.0,1.0,,,,,,,,,cyan,I
0.0,4.0,4.0,0.0,5.0,5.0,433.8651569996727,8.0,0.0,part_2,go,1150.0,800.0,1.0,,,,,,,,,magenta,circle
0.0,4.0,4.0,0.0,5.0,5.0,352.933304000544,8.0,0.0,part_2,go,1150.0,800.0,1.0,,,,,,,,,magenta,circle
0.0,8.0,4.0,1.0,5.0,0.0,0.0,8.0,0.0,part_2,stop,1150.0,800.0,4.0,,,,,,,,,white,square
0.0,4.0,4.0,0.0,5.0,5.0,411.8831409996346,8.0,0.0,part_2,go,1200.0,800.0,1.0,,,,,,,,,magenta,circle
0.0,7.0,3.0,1.0,6.0,0.0,0.0,8.0,0.0,part_2,stop,1200.0,800.0,4.0,,,,,,,,,yellow,diamond
0.0,8.0,4.0,1.0,6.0,0.0,0.0,8.0,0.0,part_2,stop,1200.0,850.0,4.0,,,,,,,,,white,square
0.0,6.0,2.0,1.0,6.0,6.0,417.8506460011704,8.0,0.0,part_2,stop,1200.0,900.0,3.0,,,,,,,,,blue,triangle
0.0,7.0,3.0,1.0,6.0,6.0,1279.5473210007913,8.0,0.0,part_2,go,1200.0,850.0,1.0,,,,,,,,,yellow,diamond
0.0,6.0,2.0,1.0,5.0,5.0,1320.79940299991,8.0,0.0,part_2,stop,1200.0,850.0,3.0,,,,,,,,,blue,triangle
0.0,5.0,1.0,1.0,7.0,1.0,1592.0075149988406,1.0,1.0,part_3,go,0.0,0.0,0.0,264.0,6.0,264.0,220.0,88.0,132.0,176.0,44.0,gray,cross
0.0,7.0,3.0,1.0,7.0,2.0,1542.0004289990177,1.0,1.0,part_3,go,0.0,0.0,0.0,176.0,4.0,132.0,176.0,44.0,88.0,264.0,220.0,yellow,diamond
0.0,6.0,2.0,1.0,7.0,4.0,1321.778023000661,1.0,1.0,part_3,go,0.0,0.0,0.0,216.0,4.0,324.0,108.0,54.0,216.0,162.0,270.0,blue,triangle
0.0,8.0,4.0,1.0,7.0,5.0,1813.7599369983943,1.0,1.0,part_3,go,0.0,0.0,0.0,147.0,3.0,49.0,196.0,98.0,245.0,147.0,294.0,white,square
0.0,3.0,3.0,0.0,7.0,4.0,1750.7534219985246,1.0,1.0,part_3,go,0.0,0.0,0.0,98.0,2.0,147.0,294.0,245.0,98.0,196.0,49.0,orange,flipped triangle
0.0,5.0,1.0,1.0,7.0,5.0,2303.878114998952,1.0,1.0,part_3,go,0.0,0.0,0.0,136.0,4.0,34.0,68.0,170.0,102.0,136.0,204.0,gray,cross
0.0,7.0,3.0,1.0,7.0,4.0,1757.4019769999722,1.0,1.0,part_3,go,0.0,0.0,0.0,204.0,6.0,34.0,102.0,136.0,204.0,170.0,68.0,yellow,diamond
0.0,3.0,3.0,0.0,7.0,5.0,2619.6399410000595,1.0,1.0,part_3,go,0.0,0.0,0.0,68.0,2.0,136.0,204.0,170.0,102.0,68.0,34.0,orange,flipped triangle
0.0,6.0,2.0,1.0,7.0,1.0,1432.806195000012,1.0,1.0,part_3,go,0.0,0.0,0.0,88.0,2.0,88.0,44.0,220.0,132.0,176.0,264.0,blue,triangle
0.0,7.0,3.0,1.0,7.0,3.0,1983.6420100000396,1.0,1.0,part_3,go,0.0,0.0,0.0,234.0,6.0,78.0,195.0,234.0,117.0,39.0,156.0,yellow,diamond
0.0,8.0,4.0,1.0,7.0,6.0,1137.366042999929,1.0,1.0,part_3,go,0.0,0.0,0.0,264.0,6.0,44.0,132.0,220.0,88.0,176.0,264.0,white,square
0.0,6.0,2.0,1.0,7.0,2.0,1289.4281579974631,1.0,1.0,part_3,go,0.0,0.0,0.0,98.0,2.0,147.0,98.0,245.0,294.0,196.0,49.0,blue,triangle
0.0,6.0,2.0,1.0,7.0,6.0,2312.55900099859,1.0,1.0,part_3,go,0.0,0.0,0.0,108.0,2.0,162.0,216.0,270.0,324.0,54.0,108.0,blue,triangle
0.0,6.0,2.0,1.0,7.0,1.0,1032.8838310015271,1.0,1.0,part_3,go,0.0,0.0,0.0,98.0,2.0,98.0,147.0,49.0,245.0,196.0,294.0,blue,triangle
0.0,8.0,4.0,1.0,7.0,1.0,1815.7974579989968,1.0,1.0,part_3,go,0.0,0.0,0.0,204.0,6.0,204.0,136.0,68.0,170.0,34.0,102.0,white,square
0.0,7.0,3.0,1.0,7.0,2.0,2427.3538080014987,1.0,1.0,part_3,go,0.0,0.0,0.0,170.0,5.0,204.0,170.0,136.0,68.0,102.0,34.0,yellow,diamond
0.0,1.0,1.0,0.0,7.0,4.0,943.408188999456,1.0,1.0,part_3,go,0.0,0.0,0.0,34.0,1.0,204.0,102.0,68.0,34.0,170.0,136.0,green,hexagon
0.0,8.0,4.0,1.0,7.0,1.0,3919.954891000089,1.0,1.0,part_3,go,0.0,0.0,0.0,162.0,3.0,162.0,324.0,270.0,54.0,216.0,108.0,white,square
0.0,7.0,3.0,1.0,7.0,4.0,1831.147234999662,1.0,1.0,part_3,go,0.0,0.0,0.0,196.0,4.0,98.0,147.0,294.0,196.0,49.0,245.0,yellow,diamond
0.0,2.0,2.0,0.0,7.0,5.0,2264.583139000024,1.0,1.0,part_3,go,0.0,0.0,0.0,117.0,3.0,156.0,234.0,78.0,195.0,117.0,39.0,cyan,I
0.0,2.0,2.0,0.0,7.0,5.0,1756.4834090007937,2.0,1.0,part_3,go,0.0,0.0,0.0,216.0,4.0,324.0,108.0,162.0,54.0,216.0,270.0,cyan,I
0.0,7.0,3.0,1.0,7.0,1.0,533.344881998346,2.0,1.0,part_3,go,0.0,0.0,0.0,294.0,6.0,294.0,49.0,98.0,147.0,245.0,196.0,yellow,diamond
0.0,6.0,2.0,1.0,7.0,6.0,1140.5944189973525,2.0,1.0,part_3,go,0.0,0.0,0.0,102.0,3.0,204.0,34.0,170.0,136.0,68.0,102.0,blue,triangle
0.0,3.0,3.0,0.0,7.0,5.0,780.0844630000938,2.0,1.0,part_3,go,0.0,0.0,0.0,195.0,5.0,39.0,78.0,234.0,117.0,195.0,156.0,orange,flipped triangle
0.0,4.0,4.0,0.0,7.0,1.0,1381.2239250000855,2.0,1.0,part_3,go,0.0,0.0,0.0,54.0,1.0,54.0,108.0,324.0,270.0,162.0,216.0,magenta,circle
0.0,4.0,4.0,0.0,7.0,4.0,2338.5849490005057,2.0,1.0,part_3,go,0.0,0.0,0.0,78.0,2.0,39.0,195.0,117.0,78.0,234.0,156.0,magenta,circle
0.0,2.0,2.0,0.0,7.0,3.0,2216.6948259982746,2.0,1.0,part_3,go,0.0,0.0,0.0,44.0,1.0,176.0,132.0,44.0,264.0,220.0,88.0,cyan,I
0.0,3.0,3.0,0.0,7.0,6.0,1235.572706998937,2.0,1.0,part_3,go,0.0,0.0,0.0,195.0,5.0,39.0,234.0,78.0,156.0,117.0,195.0,orange,flipped triangle
0.0,5.0,1.0,1.0,7.0,2.0,1745.977631999267,2.0,1.0,part_3,go,0.0,0.0,0.0,216.0,4.0,270.0,216.0,162.0,324.0,54.0,108.0,gray,cross
0.0,3.0,3.0,0.0,7.0,4.0,2009.158953998849,2.0,1.0,part_3,go,0.0,0.0,0.0,54.0,1.0,162.0,324.0,270.0,54.0,108.0,216.0,orange,flipped triangle
0.0,8.0,4.0,1.0,7.0,1.0,1663.711520999641,2.0,1.0,part_3,go,0.0,0.0,0.0,195.0,5.0,195.0,156.0,78.0,39.0,234.0,117.0,white,square
0.0,8.0,4.0,1.0,7.0,4.0,3171.4491589991667,2.0,1.0,part_3,go,0.0,0.0,0.0,216.0,4.0,270.0,162.0,324.0,216.0,54.0,108.0,white,square
0.0,5.0,1.0,1.0,7.0,5.0,1857.843778001552,2.0,1.0,part_3,go,0.0,0.0,0.0,234.0,6.0,39.0,195.0,117.0,156.0,234.0,78.0,gray,cross
0.0,4.0,4.0,0.0,7.0,2.0,1739.0941270023177,2.0,1.0,part_3,go,0.0,0.0,0.0,68.0,2.0,170.0,68.0,102.0,136.0,34.0,204.0,magenta,circle
0.0,6.0,2.0,1.0,7.0,2.0,2128.8444040001195,2.0,1.0,part_3,go,0.0,0.0,0.0,234.0,6.0,117.0,234.0,39.0,78.0,195.0,156.0,blue,triangle
0.0,5.0,1.0,1.0,7.0,6.0,2083.329713001149,2.0,1.0,part_3,go,0.0,0.0,0.0,234.0,6.0,78.0,156.0,117.0,195.0,39.0,234.0,gray,cross
0.0,2.0,2.0,0.0,7.0,4.0,1150.5729589989642,2.0,1.0,part_3,go,0.0,0.0,0.0,49.0,1.0,147.0,245.0,98.0,49.0,196.0,294.0,cyan,I
0.0,3.0,3.0,0.0,7.0,2.0,2226.600619000237,2.0,1.0,part_3,go,0.0,0.0,0.0,132.0,3.0,176.0,132.0,44.0,88.0,264.0,220.0,orange,flipped triangle
0.0,1.0,1.0,0.0,7.0,6.0,2197.83609300066,2.0,1.0,part_3,go,0.0,0.0,0.0,196.0,4.0,49.0,294.0,245.0,98.0,147.0,196.0,green,hexagon
0.0,7.0,3.0,1.0,7.0,2.0,3056.4256190009473,2.0,1.0,part_3,go,0.0,0.0,0.0,270.0,5.0,324.0,270.0,216.0,162.0,108.0,54.0,yellow,diamond
0.0,4.0,4.0,0.0,7.0,6.0,1981.2203830006183,3.0,1.0,part_3,go,0.0,0.0,0.0,54.0,1.0,324.0,108.0,216.0,162.0,270.0,54.0,magenta,circle
0.0,5.0,1.0,1.0,7.0,3.0,911.795025000174,3.0,1.0,part_3,go,0.0,0.0,0.0,294.0,6.0,49.0,147.0,294.0,98.0,245.0,196.0,gray,cross
0.0,6.0,2.0,1.0,7.0,3.0,1894.0430639995611,3.0,1.0,part_3,go,0.0,0.0,0.0,170.0,5.0,204.0,136.0,170.0,68.0,34.0,102.0,blue,triangle
0.0,2.0,2.0,0.0,7.0,6.0,632.8229089995148,3.0,1.0,part_3,go,0.0,0.0,0.0,39.0,1.0,195.0,78.0,117.0,156.0,234.0,39.0,cyan,I
0.0,1.0,1.0,0.0,7.0,4.0,1222.074403998704,3.0,1.0,part_3,go,0.0,0.0,0.0,78.0,2.0,234.0,117.0,156.0,78.0,195.0,39.0,green,hexagon
0.0,4.0,4.0,0.0,7.0,2.0,1720.5679670005338,3.0,1.0,part_3,go,0.0,0.0,0.0,294.0,6.0,147.0,294.0,245.0,196.0,98.0,49.0,magenta,circle
0.0,7.0,3.0,1.0,7.0,2.0,2311.2705999992613,3.0,1.0,part_3,go,0.0,0.0,0.0,234.0,6.0,39.0,234.0,156.0,195.0,117.0,78.0,yellow,diamond
0.0,1.0,1.0,0.0,7.0,3.0,1242.9804560015327,3.0,1.0,part_3,go,0.0,0.0,0.0,54.0,1.0,108.0,162.0,54.0,324.0,270.0,216.0,green,hexagon
0.0,3.0,3.0,0.0,7.0,6.0,1105.5909269998665,3.0,1.0,part_3,go,0.0,0.0,0.0,108.0,2.0,54.0,324.0,270.0,216.0,162.0,108.0,orange,flipped triangle
0.0,1.0,1.0,0.0,7.0,2.0,996.1727050031186,3.0,1.0,part_3,go,0.0,0.0,0.0,78.0,2.0,234.0,78.0,156.0,39.0,117.0,195.0,green,hexagon
0.0,2.0,2.0,0.0,7.0,5.0,1183.3551380004792,3.0,1.0,part_3,go,0.0,0.0,0.0,68.0,2.0,34.0,170.0,204.0,136.0,68.0,102.0,cyan,I
0.0,1.0,1.0,0.0,7.0,2.0,1379.3474939993755,3.0,1.0,part_3,go,0.0,0.0,0.0,34.0,1.0,170.0,34.0,204.0,102.0,68.0,136.0,green,hexagon
0.0,4.0,4.0,0.0,7.0,3.0,1688.383585998963,3.0,1.0,part_3,go,0.0,0.0,0.0,34.0,1.0,170.0,102.0,34.0,204.0,136.0,68.0,magenta,circle
0.0,8.0,4.0,1.0,7.0,4.0,1255.7264819988632,3.0,1.0,part_3,go,0.0,0.0,0.0,294.0,6.0,196.0,98.0,49.0,294.0,147.0,245.0,white,square
0.0,5.0,1.0,1.0,7.0,4.0,1119.0385070003686,3.0,1.0,part_3,go,0.0,0.0,0.0,264.0,6.0,44.0,132.0,220.0,264.0,88.0,176.0,gray,cross
0.0,3.0,3.0,0.0,7.0,5.0,3337.0687639981043,3.0,1.0,part_3,go,0.0,0.0,0.0,147.0,3.0,196.0,49.0,245.0,294.0,147.0,98.0,orange,flipped triangle
0.0,5.0,1.0,1.0,7.0,3.0,2020.0598020019243,3.0,1.0,part_3,go,0.0,0.0,0.0,270.0,5.0,216.0,324.0,270.0,162.0,54.0,108.0,gray,cross
0.0,4.0,4.0,0.0,7.0,2.0,1307.777949998126,3.0,1.0,part_3,go,0.0,0.0,0.0,44.0,1.0,220.0,44.0,88.0,264.0,176.0,132.0,magenta,circle
0.0,4.0,4.0,0.0,7.0,6.0,1795.2245759988728,3.0,1.0,part_3,go,0.0,0.0,0.0,39.0,1.0,156.0,234.0,78.0,195.0,117.0,39.0,magenta,circle
0.0,3.0,3.0,0.0,7.0,5.0,1024.792312997306,3.0,1.0,part_3,go,0.0,0.0,0.0,88.0,2.0,132.0,264.0,176.0,220.0,88.0,44.0,orange,flipped triangle
0.0,1.0,1.0,0.0,7.0,3.0,876.5428199985763,4.0,1.0,part_3,go,0.0,0.0,0.0,44.0,1.0,264.0,132.0,44.0,220.0,176.0,88.0,green,hexagon
0.0,1.0,1.0,0.0,7.0,5.0,1391.1729589999595,4.0,1.0,part_3,go,0.0,0.0,0.0,49.0,1.0,245.0,196.0,98.0,147.0,49.0,294.0,green,hexagon
0.0,8.0,4.0,1.0,7.0,3.0,1340.5701579977176,4.0,1.0,part_3,go,0.0,0.0,0.0,204.0,6.0,34.0,102.0,204.0,68.0,136.0,170.0,white,square
0.0,2.0,2.0,0.0,7.0,5.0,1257.10265899761,4.0,1.0,part_3,go,0.0,0.0,0.0,68.0,2.0,102.0,170.0,34.0,204.0,68.0,136.0,cyan,I
0.0,2.0,2.0,0.0,7.0,2.0,1157.3142960005498,4.0,1.0,part_3,go,0.0,0.0,0.0,54.0,1.0,270.0,54.0,162.0,108.0,324.0,216.0,cyan,I
0.0,5.0,1.0,1.0,7.0,4.0,1335.4433569984394,4.0,1.0,part_3,go,0.0,0.0,0.0,245.0,5.0,294.0,49.0,98.0,245.0,147.0,196.0,gray,cross
0.0,1.0,1.0,0.0,7.0,2.0,1278.8606449976214,4.0,1.0,part_3,go,0.0,0.0,0.0,54.0,1.0,270.0,54.0,216.0,324.0,162.0,108.0,green,hexagon
0.0,7.0,3.0,1.0,7.0,4.0,1259.477286999754,4.0,1.0,part_3,go,0.0,0.0,0.0,270.0,5.0,216.0,108.0,162.0,270.0,324.0,54.0,yellow,diamond
0.0,6.0,2.0,1.0,7.0,6.0,1022.6154019983369,4.0,1.0,part_3,go,0.0,0.0,0.0,156.0,4.0,78.0,195.0,234.0,39.0,117.0,156.0,blue,triangle
0.0,4.0,4.0,0.0,7.0,6.0,1448.6352610001632,4.0,1.0,part_3,go,0.0,0.0,0.0,49.0,1.0,294.0,245.0,98.0,196.0,147.0,49.0,magenta,circle
0.0,5.0,1.0,1.0,7.0,3.0,1250.6610499985982,4.0,1.0,part_3,go,0.0,0.0,0.0,204.0,6.0,68.0,34.0,204.0,136.0,102.0,170.0,gray,cross
0.0,3.0,3.0,0.0,7.0,1.0,839.0007529997092,4.0,1.0,part_3,go,0.0,0.0,0.0,102.0,3.0,102.0,204.0,34.0,170.0,68.0,136.0,orange,flipped triangle
0.0,8.0,4.0,1.0,7.0,4.0,1522.5584789986897,4.0,1.0,part_3,go,0.0,0.0,0.0,220.0,5.0,88.0,264.0,132.0,220.0,176.0,44.0,white,square
0.0,4.0,4.0,0.0,7.0,1.0,1656.486734002101,4.0,1.0,part_3,go,0.0,0.0,0.0,88.0,2.0,88.0,176.0,44.0,264.0,220.0,132.0,magenta,circle
0.0,7.0,3.0,1.0,7.0,3.0,2254.8063159993035,4.0,1.0,part_3,go,0.0,0.0,0.0,220.0,5.0,44.0,264.0,220.0,132.0,176.0,88.0,yellow,diamond
0.0,1.0,1.0,0.0,7.0,4.0,1174.580580998736,4.0,1.0,part_3,go,0.0,0.0,0.0,88.0,2.0,176.0,44.0,132.0,88.0,220.0,264.0,green,hexagon
0.0,2.0,2.0,0.0,7.0,5.0,1122.7278530022886,4.0,1.0,part_3,go,0.0,0.0,0.0,44.0,1.0,176.0,264.0,88.0,132.0,44.0,220.0,cyan,I
0.0,8.0,4.0,1.0,7.0,1.0,1454.820304999885,4.0,1.0,part_3,go,0.0,0.0,0.0,234.0,6.0,234.0,195.0,39.0,117.0,156.0,78.0,white,square
0.0,6.0,2.0,1.0,7.0,3.0,1846.5470139999525,4.0,1.0,part_3,go,0.0,0.0,0.0,220.0,5.0,132.0,264.0,220.0,88.0,44.0,176.0,blue,triangle
0.0,2.0,2.0,0.0,7.0,2.0,2598.788149000029,4.0,1.0,part_3,go,0.0,0.0,0.0,245.0,5.0,147.0,245.0,98.0,49.0,196.0,294.0,cyan,I
