raw_reward_magnitude,stim_reward,stepwise_reward_magnitude,paired_with_stopping,stim_location,response,reaction_time,block,num_trial_presentations,which_phase,stop_signal_trial_type,left_SSD,right_SSD,accuracy,chosen_bidding_amount,chosen_bidding_level,possible_bid_1,possible_bid_2,possible_bid_3,possible_bid_4,possible_bid_5,possible_bid_6,color_text,shape_text
181.0,7.0,3.0,1.0,1.0,1.0,500.28427200004444,1.0,1.0,phase_1,,,,,,,,,,,,,green,triangle
65.0,1.0,1.0,0.0,1.0,1.0,401.1594419998801,1.0,1.0,phase_1,,,,,,,,,,,,,yellow,cross
222.0,3.0,3.0,0.0,2.0,2.0,221.7032379999182,1.0,1.0,phase_1,,,,,,,,,,,,,cyan,diamond
403.0,8.0,4.0,1.0,3.0,3.0,270.7473210000444,1.0,1.0,phase_1,,,,,,,,,,,,,gray,hexagon
102.0,2.0,2.0,0.0,3.0,3.0,308.0059400001573,1.0,1.0,phase_1,,,,,,,,,,,,,white,flipped triangle
0.0,4.0,0.0,0.0,1.0,1.0,236.7939349999233,1.0,1.0,phase_1,,,,,,,,,,,,,magenta,square
89.0,6.0,2.0,1.0,1.0,1.0,287.6987049999115,1.0,2.0,phase_1,,,,,,,,,,,,,orange,circle
64.0,1.0,1.0,0.0,2.0,2.0,216.3618899999164,1.0,1.0,phase_1,,,,,,,,,,,,,yellow,cross
44.0,1.0,1.0,0.0,2.0,2.0,236.1948709999524,1.0,1.0,phase_1,,,,,,,,,,,,,yellow,cross
0.0,2.0,0.0,0.0,1.0,1.0,244.7697599998264,1.0,1.0,phase_1,,,,,,,,,,,,,white,flipped triangle
105.0,2.0,2.0,0.0,2.0,2.0,289.5923699998093,1.0,1.0,phase_1,,,,,,,,,,,,,white,flipped triangle
376.0,4.0,4.0,0.0,3.0,3.0,259.5643260001452,1.0,1.0,phase_1,,,,,,,,,,,,,magenta,square
207.0,7.0,3.0,1.0,2.0,2.0,324.8198599999341,1.0,1.0,phase_1,,,,,,,,,,,,,green,triangle
119.0,6.0,2.0,1.0,1.0,1.0,257.8376270000717,1.0,1.0,phase_1,,,,,,,,,,,,,orange,circle
215.0,3.0,3.0,0.0,4.0,4.0,274.3547000000035,1.0,1.0,phase_1,,,,,,,,,,,,,cyan,diamond
118.0,2.0,2.0,0.0,2.0,2.0,195.3937579999092,1.0,1.0,phase_1,,,,,,,,,,,,,white,flipped triangle
96.0,6.0,2.0,1.0,1.0,1.0,188.8656579999406,1.0,1.0,phase_1,,,,,,,,,,,,,orange,circle
224.0,7.0,3.0,1.0,2.0,2.0,361.4292620000014,1.0,2.0,phase_1,,,,,,,,,,,,,green,triangle
403.0,4.0,4.0,0.0,4.0,4.0,423.4092830001827,1.0,1.0,phase_1,,,,,,,,,,,,,magenta,square
0.0,5.0,0.0,1.0,4.0,4.0,354.0134840000064,1.0,1.0,phase_1,,,,,,,,,,,,,blue,I
201.0,7.0,3.0,1.0,1.0,1.0,401.1553459999959,1.0,1.0,phase_1,,,,,,,,,,,,,green,triangle
183.0,7.0,3.0,1.0,3.0,3.0,409.9573559999498,1.0,1.0,phase_1,,,,,,,,,,,,,green,triangle
125.0,6.0,2.0,1.0,4.0,4.0,339.4586030001392,1.0,1.0,phase_1,,,,,,,,,,,,,orange,circle
383.0,4.0,4.0,0.0,1.0,1.0,274.6754249999412,1.0,1.0,phase_1,,,,,,,,,,,,,magenta,square
67.0,5.0,1.0,1.0,3.0,3.0,426.0716219998812,1.0,1.0,phase_1,,,,,,,,,,,,,blue,I
104.0,6.0,2.0,1.0,4.0,4.0,393.4760720001122,1.0,1.0,phase_1,,,,,,,,,,,,,orange,circle
96.0,2.0,2.0,0.0,1.0,1.0,277.570414000138,1.0,1.0,phase_1,,,,,,,,,,,,,white,flipped triangle
46.0,1.0,1.0,0.0,4.0,4.0,306.0233730000163,1.0,1.0,phase_1,,,,,,,,,,,,,yellow,cross
43.0,5.0,1.0,1.0,3.0,3.0,366.1760339998636,1.0,1.0,phase_1,,,,,,,,,,,,,blue,I
0.0,7.0,0.0,1.0,3.0,3.0,333.9409259999684,1.0,1.0,phase_1,,,,,,,,,,,,,green,triangle
122.0,2.0,2.0,0.0,4.0,4.0,381.1257100001057,1.0,1.0,phase_1,,,,,,,,,,,,,white,flipped triangle
49.0,1.0,1.0,0.0,1.0,1.0,223.3455519999552,1.0,1.0,phase_1,,,,,,,,,,,,,yellow,cross
0.0,3.0,0.0,0.0,2.0,2.0,355.2752909999981,1.0,1.0,phase_1,,,,,,,,,,,,,cyan,diamond
0.0,8.0,0.0,1.0,3.0,3.0,295.10104100018,1.0,1.0,phase_1,,,,,,,,,,,,,gray,hexagon
78.0,2.0,2.0,0.0,2.0,2.0,222.7347820000886,1.0,1.0,phase_1,,,,,,,,,,,,,white,flipped triangle
0.0,5.0,0.0,1.0,3.0,3.0,310.7501800000136,1.0,1.0,phase_1,,,,,,,,,,,,,blue,I
177.0,3.0,3.0,0.0,2.0,2.0,226.4297189999524,1.0,1.0,phase_1,,,,,,,,,,,,,cyan,diamond
97.0,2.0,2.0,0.0,2.0,2.0,269.4176059999336,1.0,1.0,phase_1,,,,,,,,,,,,,white,flipped triangle
379.0,4.0,4.0,0.0,3.0,3.0,453.1064880000031,1.0,1.0,phase_1,,,,,,,,,,,,,magenta,square
0.0,6.0,0.0,1.0,2.0,2.0,292.0129999999972,1.0,1.0,phase_1,,,,,,,,,,,,,orange,circle
406.0,4.0,4.0,0.0,2.0,2.0,342.5559249999423,1.0,1.0,phase_1,,,,,,,,,,,,,magenta,square
190.0,7.0,3.0,1.0,4.0,4.0,371.6266950000317,1.0,1.0,phase_1,,,,,,,,,,,,,green,triangle
416.0,4.0,4.0,0.0,1.0,1.0,304.9474689998988,1.0,1.0,phase_1,,,,,,,,,,,,,magenta,square
379.0,8.0,4.0,1.0,4.0,4.0,340.3566680001404,1.0,1.0,phase_1,,,,,,,,,,,,,gray,hexagon
179.0,3.0,3.0,0.0,3.0,3.0,328.9221980001002,1.0,1.0,phase_1,,,,,,,,,,,,,cyan,diamond
31.0,5.0,1.0,1.0,1.0,1.0,260.608664000074,1.0,1.0,phase_1,,,,,,,,,,,,,blue,I
113.0,6.0,2.0,1.0,1.0,1.0,306.8582709997827,1.0,2.0,phase_1,,,,,,,,,,,,,orange,circle
71.0,1.0,1.0,0.0,3.0,3.0,353.3860339998682,1.0,1.0,phase_1,,,,,,,,,,,,,yellow,cross
388.0,4.0,4.0,0.0,1.0,1.0,288.7172769999324,1.0,1.0,phase_1,,,,,,,,,,,,,magenta,square
86.0,2.0,2.0,0.0,3.0,3.0,445.9744989999308,1.0,1.0,phase_1,,,,,,,,,,,,,white,flipped triangle
416.0,8.0,4.0,1.0,1.0,1.0,400.4032440000173,1.0,1.0,phase_1,,,,,,,,,,,,,gray,hexagon
401.0,8.0,4.0,1.0,1.0,1.0,368.1378799999493,1.0,1.0,phase_1,,,,,,,,,,,,,gray,hexagon
412.0,4.0,4.0,0.0,4.0,4.0,344.3857869999647,1.0,1.0,phase_1,,,,,,,,,,,,,magenta,square
120.0,2.0,2.0,0.0,1.0,1.0,376.8063920001623,1.0,1.0,phase_1,,,,,,,,,,,,,white,flipped triangle
31.0,5.0,1.0,1.0,1.0,1.0,371.4702579998175,1.0,1.0,phase_1,,,,,,,,,,,,,blue,I
0.0,7.0,0.0,1.0,1.0,1.0,300.7431170001382,1.0,1.0,phase_1,,,,,,,,,,,,,green,triangle
419.0,8.0,4.0,1.0,3.0,3.0,317.2528249999686,1.0,1.0,phase_1,,,,,,,,,,,,,gray,hexagon
33.0,5.0,1.0,1.0,1.0,1.0,242.72220699981509,1.0,1.0,phase_1,,,,,,,,,,,,,blue,I
0.0,1.0,0.0,0.0,3.0,3.0,309.1789430000062,1.0,1.0,phase_1,,,,,,,,,,,,,yellow,cross
102.0,6.0,2.0,1.0,1.0,1.0,263.0349030000616,1.0,1.0,phase_1,,,,,,,,,,,,,orange,circle
0.0,8.0,0.0,1.0,2.0,2.0,337.9247769998983,1.0,1.0,phase_1,,,,,,,,,,,,,gray,hexagon
29.0,1.0,1.0,0.0,3.0,3.0,341.9536260000768,1.0,1.0,phase_1,,,,,,,,,,,,,yellow,cross
195.0,7.0,3.0,1.0,1.0,1.0,281.5081709998139,1.0,1.0,phase_1,,,,,,,,,,,,,green,triangle
34.0,5.0,1.0,1.0,3.0,3.0,356.0265900000559,1.0,1.0,phase_1,,,,,,,,,,,,,blue,I
210.0,3.0,3.0,0.0,4.0,4.0,354.8083519999636,1.0,1.0,phase_1,,,,,,,,,,,,,cyan,diamond
0.0,3.0,0.0,0.0,1.0,1.0,315.200569000126,1.0,1.0,phase_1,,,,,,,,,,,,,cyan,diamond
111.0,6.0,2.0,1.0,3.0,3.0,342.9435709999779,1.0,1.0,phase_1,,,,,,,,,,,,,orange,circle
201.0,3.0,3.0,0.0,3.0,3.0,301.6102450001199,1.0,1.0,phase_1,,,,,,,,,,,,,cyan,diamond
102.0,6.0,2.0,1.0,4.0,4.0,384.150327000043,1.0,1.0,phase_1,,,,,,,,,,,,,orange,circle
68.0,1.0,1.0,0.0,4.0,4.0,335.7451529998343,1.0,1.0,phase_1,,,,,,,,,,,,,yellow,cross
0.0,2.0,0.0,0.0,3.0,3.0,439.3816729998434,1.0,1.0,phase_1,,,,,,,,,,,,,white,flipped triangle
0.0,8.0,0.0,1.0,3.0,3.0,335.3562370000418,1.0,1.0,phase_1,,,,,,,,,,,,,gray,hexagon
68.0,5.0,1.0,1.0,4.0,4.0,360.0623760000871,1.0,1.0,phase_1,,,,,,,,,,,,,blue,I
0.0,7.0,0.0,1.0,4.0,4.0,379.0888260000429,1.0,1.0,phase_1,,,,,,,,,,,,,green,triangle
31.0,1.0,1.0,0.0,1.0,1.0,292.1999669999877,1.0,1.0,phase_1,,,,,,,,,,,,,yellow,cross
0.0,5.0,0.0,1.0,3.0,3.0,343.8205380000454,1.0,1.0,phase_1,,,,,,,,,,,,,blue,I
0.0,1.0,0.0,0.0,4.0,4.0,310.8420329999717,1.0,1.0,phase_1,,,,,,,,,,,,,yellow,cross
87.0,2.0,2.0,0.0,3.0,3.0,297.5022910000007,1.0,1.0,phase_1,,,,,,,,,,,,,white,flipped triangle
377.0,8.0,4.0,1.0,2.0,2.0,278.0018509999991,1.0,1.0,phase_1,,,,,,,,,,,,,gray,hexagon
105.0,6.0,2.0,1.0,3.0,3.0,334.3202139999448,1.0,1.0,phase_1,,,,,,,,,,,,,orange,circle
184.0,3.0,3.0,0.0,2.0,2.0,290.1096770001459,1.0,1.0,phase_1,,,,,,,,,,,,,cyan,diamond
397.0,8.0,4.0,1.0,2.0,2.0,315.8997810000983,1.0,1.0,phase_1,,,,,,,,,,,,,gray,hexagon
177.0,7.0,3.0,1.0,4.0,4.0,273.3723679998547,1.0,1.0,phase_1,,,,,,,,,,,,,green,triangle
64.0,5.0,1.0,1.0,1.0,1.0,298.3270740000989,1.0,1.0,phase_1,,,,,,,,,,,,,blue,I
185.0,7.0,3.0,1.0,1.0,1.0,303.6949180000192,1.0,1.0,phase_1,,,,,,,,,,,,,green,triangle
93.0,6.0,2.0,1.0,4.0,4.0,351.9668540000111,1.0,1.0,phase_1,,,,,,,,,,,,,orange,circle
36.0,5.0,1.0,1.0,1.0,1.0,296.0225629999513,1.0,1.0,phase_1,,,,,,,,,,,,,blue,I
33.0,5.0,1.0,1.0,3.0,3.0,306.5675540001393,1.0,1.0,phase_1,,,,,,,,,,,,,blue,I
0.0,1.0,0.0,0.0,4.0,4.0,400.3299270000298,1.0,1.0,phase_1,,,,,,,,,,,,,yellow,cross
118.0,6.0,2.0,1.0,2.0,2.0,352.0971450000161,1.0,1.0,phase_1,,,,,,,,,,,,,orange,circle
0.0,3.0,0.0,0.0,3.0,3.0,505.33686900007524,1.0,1.0,phase_1,,,,,,,,,,,,,cyan,diamond
119.0,6.0,2.0,1.0,3.0,3.0,370.1873269999396,1.0,1.0,phase_1,,,,,,,,,,,,,orange,circle
411.0,4.0,4.0,0.0,3.0,3.0,366.7850060001001,1.0,1.0,phase_1,,,,,,,,,,,,,magenta,square
401.0,4.0,4.0,0.0,1.0,1.0,314.869692000002,1.0,1.0,phase_1,,,,,,,,,,,,,magenta,square
216.0,7.0,3.0,1.0,3.0,3.0,327.1987660000377,1.0,1.0,phase_1,,,,,,,,,,,,,green,triangle
71.0,1.0,1.0,0.0,1.0,1.0,311.0878350000803,1.0,1.0,phase_1,,,,,,,,,,,,,yellow,cross
102.0,6.0,2.0,1.0,2.0,2.0,302.0622240001103,1.0,1.0,phase_1,,,,,,,,,,,,,orange,circle
420.0,8.0,4.0,1.0,2.0,2.0,369.4511170001533,1.0,1.0,phase_1,,,,,,,,,,,,,gray,hexagon
392.0,4.0,4.0,0.0,4.0,4.0,340.8446529999764,1.0,1.0,phase_1,,,,,,,,,,,,,magenta,square
416.0,4.0,4.0,0.0,2.0,2.0,462.5089959999968,1.0,1.0,phase_1,,,,,,,,,,,,,magenta,square
57.0,1.0,1.0,0.0,2.0,2.0,345.3736690000824,2.0,1.0,phase_1,,,,,,,,,,,,,yellow,cross
204.0,7.0,3.0,1.0,2.0,2.0,276.3195059999361,2.0,1.0,phase_1,,,,,,,,,,,,,green,triangle
184.0,7.0,3.0,1.0,4.0,4.0,377.794392999931,2.0,3.0,phase_1,,,,,,,,,,,,,green,triangle
0.0,7.0,0.0,1.0,1.0,1.0,314.1124670000863,2.0,1.0,phase_1,,,,,,,,,,,,,green,triangle
96.0,6.0,2.0,1.0,4.0,4.0,460.2305600001273,2.0,1.0,phase_1,,,,,,,,,,,,,orange,circle
119.0,2.0,2.0,0.0,4.0,4.0,379.5533570000771,2.0,1.0,phase_1,,,,,,,,,,,,,white,flipped triangle
119.0,2.0,2.0,0.0,3.0,3.0,384.2142350003996,2.0,1.0,phase_1,,,,,,,,,,,,,white,flipped triangle
387.0,8.0,4.0,1.0,1.0,1.0,329.4130960002803,2.0,1.0,phase_1,,,,,,,,,,,,,gray,hexagon
0.0,5.0,0.0,1.0,1.0,1.0,421.9968540000991,2.0,1.0,phase_1,,,,,,,,,,,,,blue,I
192.0,7.0,3.0,1.0,4.0,4.0,335.0902970000788,2.0,1.0,phase_1,,,,,,,,,,,,,green,triangle
0.0,2.0,0.0,0.0,1.0,1.0,330.0081389998013,2.0,1.0,phase_1,,,,,,,,,,,,,white,flipped triangle
31.0,5.0,1.0,1.0,4.0,4.0,331.7468260001988,2.0,1.0,phase_1,,,,,,,,,,,,,blue,I
425.0,8.0,4.0,1.0,4.0,4.0,431.6634749998229,2.0,1.0,phase_1,,,,,,,,,,,,,gray,hexagon
36.0,1.0,1.0,0.0,2.0,2.0,285.0720169999476,2.0,1.0,phase_1,,,,,,,,,,,,,yellow,cross
204.0,3.0,3.0,0.0,4.0,4.0,301.998999999796,2.0,1.0,phase_1,,,,,,,,,,,,,cyan,diamond
96.0,2.0,2.0,0.0,3.0,3.0,399.1513589999158,2.0,1.0,phase_1,,,,,,,,,,,,,white,flipped triangle
0.0,4.0,0.0,0.0,1.0,1.0,326.479916000153,2.0,1.0,phase_1,,,,,,,,,,,,,magenta,square
74.0,1.0,1.0,0.0,3.0,3.0,472.4485480001021,2.0,1.0,phase_1,,,,,,,,,,,,,yellow,cross
394.0,4.0,4.0,0.0,4.0,4.0,370.3490509997209,2.0,1.0,phase_1,,,,,,,,,,,,,magenta,square
102.0,2.0,2.0,0.0,4.0,4.0,390.0683830001981,2.0,1.0,phase_1,,,,,,,,,,,,,white,flipped triangle
106.0,2.0,2.0,0.0,1.0,1.0,496.6754120000587,2.0,2.0,phase_1,,,,,,,,,,,,,white,flipped triangle
0.0,8.0,0.0,1.0,4.0,4.0,351.0974179998811,2.0,1.0,phase_1,,,,,,,,,,,,,gray,hexagon
57.0,5.0,1.0,1.0,2.0,2.0,264.3046329999379,2.0,1.0,phase_1,,,,,,,,,,,,,blue,I
199.0,3.0,3.0,0.0,2.0,2.0,381.0370050000529,2.0,1.0,phase_1,,,,,,,,,,,,,cyan,diamond
60.0,5.0,1.0,1.0,1.0,1.0,357.3086820001663,2.0,1.0,phase_1,,,,,,,,,,,,,blue,I
54.0,5.0,1.0,1.0,2.0,2.0,259.7898249996433,2.0,1.0,phase_1,,,,,,,,,,,,,blue,I
0.0,4.0,0.0,0.0,3.0,3.0,336.7102500001238,2.0,1.0,phase_1,,,,,,,,,,,,,magenta,square
181.0,3.0,3.0,0.0,3.0,3.0,364.1341659999852,2.0,1.0,phase_1,,,,,,,,,,,,,cyan,diamond
179.0,7.0,3.0,1.0,3.0,3.0,374.4974680002997,2.0,1.0,phase_1,,,,,,,,,,,,,green,triangle
383.0,8.0,4.0,1.0,2.0,2.0,307.0448939997732,2.0,1.0,phase_1,,,,,,,,,,,,,gray,hexagon
98.0,6.0,2.0,1.0,4.0,4.0,332.2966420000739,2.0,1.0,phase_1,,,,,,,,,,,,,orange,circle
192.0,3.0,3.0,0.0,1.0,1.0,288.4528350000437,2.0,1.0,phase_1,,,,,,,,,,,,,cyan,diamond
0.0,5.0,0.0,1.0,3.0,3.0,405.2293989998361,2.0,1.0,phase_1,,,,,,,,,,,,,blue,I
110.0,6.0,2.0,1.0,3.0,3.0,386.3392299999759,2.0,1.0,phase_1,,,,,,,,,,,,,orange,circle
95.0,6.0,2.0,1.0,2.0,2.0,314.9728479997975,2.0,1.0,phase_1,,,,,,,,,,,,,orange,circle
390.0,8.0,4.0,1.0,3.0,3.0,313.2940330001474,2.0,1.0,phase_1,,,,,,,,,,,,,gray,hexagon
195.0,3.0,3.0,0.0,2.0,2.0,344.7722720002275,2.0,1.0,phase_1,,,,,,,,,,,,,cyan,diamond
199.0,7.0,3.0,1.0,4.0,4.0,324.3556130000797,2.0,1.0,phase_1,,,,,,,,,,,,,green,triangle
411.0,8.0,4.0,1.0,3.0,3.0,326.5574620004372,2.0,1.0,phase_1,,,,,,,,,,,,,gray,hexagon
184.0,3.0,3.0,0.0,1.0,1.0,272.5965459999315,2.0,1.0,phase_1,,,,,,,,,,,,,cyan,diamond
75.0,1.0,1.0,0.0,2.0,2.0,315.6454879999728,2.0,1.0,phase_1,,,,,,,,,,,,,yellow,cross
222.0,7.0,3.0,1.0,3.0,3.0,335.0223719999121,2.0,1.0,phase_1,,,,,,,,,,,,,green,triangle
421.0,4.0,4.0,0.0,2.0,2.0,375.5697199999304,2.0,1.0,phase_1,,,,,,,,,,,,,magenta,square
31.0,1.0,1.0,0.0,4.0,4.0,323.4530219997396,2.0,1.0,phase_1,,,,,,,,,,,,,yellow,cross
207.0,3.0,3.0,0.0,1.0,1.0,300.7973069998115,2.0,1.0,phase_1,,,,,,,,,,,,,cyan,diamond
217.0,7.0,3.0,1.0,4.0,4.0,324.8401920000106,2.0,1.0,phase_1,,,,,,,,,,,,,green,triangle
78.0,6.0,2.0,1.0,1.0,1.0,298.7636500001827,2.0,1.0,phase_1,,,,,,,,,,,,,orange,circle
187.0,7.0,3.0,1.0,1.0,1.0,285.6598500002292,2.0,1.0,phase_1,,,,,,,,,,,,,green,triangle
101.0,2.0,2.0,0.0,1.0,1.0,299.0031639997141,2.0,1.0,phase_1,,,,,,,,,,,,,white,flipped triangle
84.0,2.0,2.0,0.0,3.0,3.0,317.2124660000008,2.0,1.0,phase_1,,,,,,,,,,,,,white,flipped triangle
31.0,5.0,1.0,1.0,3.0,3.0,338.9437099999668,2.0,2.0,phase_1,,,,,,,,,,,,,blue,I
49.0,5.0,1.0,1.0,4.0,4.0,331.4525840000897,2.0,1.0,phase_1,,,,,,,,,,,,,blue,I
387.0,4.0,4.0,0.0,3.0,3.0,309.1923050001242,2.0,1.0,phase_1,,,,,,,,,,,,,magenta,square
0.0,1.0,0.0,0.0,3.0,3.0,356.78512200001927,2.0,1.0,phase_1,,,,,,,,,,,,,yellow,cross
0.0,8.0,0.0,1.0,3.0,3.0,301.7171139999846,2.0,1.0,phase_1,,,,,,,,,,,,,gray,hexagon
74.0,5.0,1.0,1.0,4.0,4.0,274.64295999971,2.0,1.0,phase_1,,,,,,,,,,,,,blue,I
397.0,8.0,4.0,1.0,4.0,4.0,499.9810580002304,2.0,1.0,phase_1,,,,,,,,,,,,,gray,hexagon
0.0,8.0,0.0,1.0,1.0,1.0,350.6959080000342,2.0,1.0,phase_1,,,,,,,,,,,,,gray,hexagon
57.0,1.0,1.0,0.0,3.0,3.0,233.8451820000955,2.0,1.0,phase_1,,,,,,,,,,,,,yellow,cross
0.0,8.0,0.0,1.0,4.0,4.0,342.122097000356,2.0,1.0,phase_1,,,,,,,,,,,,,gray,hexagon
98.0,2.0,2.0,0.0,2.0,2.0,327.2331719999783,2.0,1.0,phase_1,,,,,,,,,,,,,white,flipped triangle
202.0,7.0,3.0,1.0,2.0,2.0,324.589054000171,2.0,1.0,phase_1,,,,,,,,,,,,,green,triangle
386.0,8.0,4.0,1.0,4.0,4.0,315.2245010001024,2.0,1.0,phase_1,,,,,,,,,,,,,gray,hexagon
0.0,6.0,0.0,1.0,2.0,2.0,300.2156779998586,2.0,1.0,phase_1,,,,,,,,,,,,,orange,circle
57.0,5.0,1.0,1.0,2.0,2.0,327.0638489998418,2.0,1.0,phase_1,,,,,,,,,,,,,blue,I
0.0,7.0,0.0,1.0,1.0,1.0,304.0855849999389,2.0,1.0,phase_1,,,,,,,,,,,,,green,triangle
206.0,7.0,3.0,1.0,2.0,2.0,275.8577770000556,2.0,1.0,phase_1,,,,,,,,,,,,,green,triangle
77.0,2.0,2.0,0.0,4.0,4.0,323.1935790004172,2.0,1.0,phase_1,,,,,,,,,,,,,white,flipped triangle
415.0,8.0,4.0,1.0,4.0,4.0,432.6547420000679,2.0,1.0,phase_1,,,,,,,,,,,,,gray,hexagon
0.0,1.0,0.0,0.0,3.0,3.0,310.2472279997528,2.0,1.0,phase_1,,,,,,,,,,,,,yellow,cross
70.0,5.0,1.0,1.0,1.0,1.0,236.6794619997563,2.0,1.0,phase_1,,,,,,,,,,,,,blue,I
0.0,3.0,0.0,0.0,3.0,3.0,328.5897319997275,2.0,1.0,phase_1,,,,,,,,,,,,,cyan,diamond
213.0,7.0,3.0,1.0,4.0,4.0,303.4570740001072,2.0,1.0,phase_1,,,,,,,,,,,,,green,triangle
393.0,4.0,4.0,0.0,1.0,1.0,296.6572529999212,2.0,1.0,phase_1,,,,,,,,,,,,,magenta,square
84.0,6.0,2.0,1.0,4.0,4.0,309.5389089999116,2.0,1.0,phase_1,,,,,,,,,,,,,orange,circle
412.0,8.0,4.0,1.0,1.0,1.0,293.3658330002799,2.0,1.0,phase_1,,,,,,,,,,,,,gray,hexagon
387.0,4.0,4.0,0.0,1.0,1.0,306.853171000057,2.0,1.0,phase_1,,,,,,,,,,,,,magenta,square
101.0,6.0,2.0,1.0,2.0,2.0,327.4035409999669,2.0,1.0,phase_1,,,,,,,,,,,,,orange,circle
49.0,5.0,1.0,1.0,3.0,3.0,316.5191160001086,2.0,1.0,phase_1,,,,,,,,,,,,,blue,I
383.0,8.0,4.0,1.0,3.0,3.0,391.3987089999864,2.0,1.0,phase_1,,,,,,,,,,,,,gray,hexagon
401.0,4.0,4.0,0.0,1.0,1.0,283.1814470000608,2.0,1.0,phase_1,,,,,,,,,,,,,magenta,square
379.0,8.0,4.0,1.0,4.0,4.0,302.0157890000519,2.0,1.0,phase_1,,,,,,,,,,,,,gray,hexagon
420.0,4.0,4.0,0.0,3.0,3.0,401.7788490000384,2.0,1.0,phase_1,,,,,,,,,,,,,magenta,square
0.0,2.0,0.0,0.0,3.0,3.0,316.8109589996675,2.0,1.0,phase_1,,,,,,,,,,,,,white,flipped triangle
0.0,1.0,0.0,0.0,2.0,2.0,265.3062600002158,2.0,1.0,phase_1,,,,,,,,,,,,,yellow,cross
416.0,8.0,4.0,1.0,2.0,2.0,302.7871610001966,2.0,1.0,phase_1,,,,,,,,,,,,,gray,hexagon
28.0,1.0,1.0,0.0,1.0,1.0,286.8651069998122,2.0,1.0,phase_1,,,,,,,,,,,,,yellow,cross
200.0,7.0,3.0,1.0,3.0,3.0,349.5812339997428,2.0,1.0,phase_1,,,,,,,,,,,,,green,triangle
191.0,3.0,3.0,0.0,1.0,1.0,302.0214719999785,2.0,1.0,phase_1,,,,,,,,,,,,,cyan,diamond
39.0,5.0,1.0,1.0,2.0,2.0,287.9754670002512,2.0,1.0,phase_1,,,,,,,,,,,,,blue,I
64.0,1.0,1.0,0.0,3.0,3.0,320.0181809997957,2.0,1.0,phase_1,,,,,,,,,,,,,yellow,cross
394.0,4.0,4.0,0.0,2.0,2.0,260.045290999642,2.0,1.0,phase_1,,,,,,,,,,,,,magenta,square
377.0,4.0,4.0,0.0,3.0,3.0,272.0560429997931,2.0,1.0,phase_1,,,,,,,,,,,,,magenta,square
416.0,4.0,4.0,0.0,4.0,4.0,413.1498919996375,2.0,1.0,phase_1,,,,,,,,,,,,,magenta,square
0.0,1.0,0.0,0.0,3.0,3.0,310.4597810001905,2.0,1.0,phase_1,,,,,,,,,,,,,yellow,cross
60.0,5.0,1.0,1.0,1.0,1.0,262.2982329999104,2.0,1.0,phase_1,,,,,,,,,,,,,blue,I
0.0,4.0,0.0,0.0,3.0,3.0,267.174499000248,2.0,1.0,phase_1,,,,,,,,,,,,,magenta,square
93.0,2.0,2.0,0.0,1.0,1.0,330.2116370000476,2.0,1.0,phase_1,,,,,,,,,,,,,white,flipped triangle
0.0,2.0,0.0,0.0,4.0,4.0,255.50603200008482,2.0,1.0,phase_1,,,,,,,,,,,,,white,flipped triangle
206.0,3.0,3.0,0.0,2.0,2.0,309.3891940002322,2.0,2.0,phase_1,,,,,,,,,,,,,cyan,diamond
415.0,4.0,4.0,0.0,3.0,3.0,376.315606999924,3.0,1.0,phase_1,,,,,,,,,,,,,magenta,square
222.0,3.0,3.0,0.0,4.0,4.0,415.6170129999736,3.0,1.0,phase_1,,,,,,,,,,,,,cyan,diamond
105.0,6.0,2.0,1.0,1.0,1.0,278.235947000212,3.0,1.0,phase_1,,,,,,,,,,,,,orange,circle
66.0,5.0,1.0,1.0,4.0,4.0,280.7444029999715,3.0,1.0,phase_1,,,,,,,,,,,,,blue,I
113.0,2.0,2.0,0.0,3.0,3.0,269.0911360000427,3.0,1.0,phase_1,,,,,,,,,,,,,white,flipped triangle
76.0,6.0,2.0,1.0,3.0,3.0,416.0930429998188,3.0,1.0,phase_1,,,,,,,,,,,,,orange,circle
179.0,3.0,3.0,0.0,2.0,2.0,358.1243240000731,3.0,1.0,phase_1,,,,,,,,,,,,,cyan,diamond
67.0,1.0,1.0,0.0,4.0,4.0,317.306968000139,3.0,1.0,phase_1,,,,,,,,,,,,,yellow,cross
419.0,4.0,4.0,0.0,2.0,2.0,306.8509999998241,3.0,1.0,phase_1,,,,,,,,,,,,,magenta,square
396.0,4.0,4.0,0.0,4.0,4.0,288.0287920002047,3.0,1.0,phase_1,,,,,,,,,,,,,magenta,square
0.0,5.0,0.0,1.0,1.0,1.0,261.3265610002599,3.0,1.0,phase_1,,,,,,,,,,,,,blue,I
406.0,8.0,4.0,1.0,2.0,2.0,310.1620329998695,3.0,1.0,phase_1,,,,,,,,,,,,,gray,hexagon
377.0,4.0,4.0,0.0,2.0,2.0,360.5095610000717,3.0,1.0,phase_1,,,,,,,,,,,,,magenta,square
27.0,1.0,1.0,0.0,3.0,3.0,376.1669939999592,3.0,1.0,phase_1,,,,,,,,,,,,,yellow,cross
179.0,7.0,3.0,1.0,4.0,4.0,321.2360219999937,3.0,1.0,phase_1,,,,,,,,,,,,,green,triangle
0.0,6.0,0.0,1.0,3.0,3.0,327.5040459998308,3.0,1.0,phase_1,,,,,,,,,,,,,orange,circle
215.0,3.0,3.0,0.0,4.0,4.0,324.0327339999567,3.0,1.0,phase_1,,,,,,,,,,,,,cyan,diamond
118.0,6.0,2.0,1.0,2.0,2.0,271.9324930003495,3.0,1.0,phase_1,,,,,,,,,,,,,orange,circle
213.0,3.0,3.0,0.0,4.0,4.0,334.8462609997114,3.0,1.0,phase_1,,,,,,,,,,,,,cyan,diamond
0.0,7.0,0.0,1.0,3.0,3.0,363.0792200001451,3.0,1.0,phase_1,,,,,,,,,,,,,green,triangle
77.0,6.0,2.0,1.0,1.0,1.0,272.8164719997039,3.0,1.0,phase_1,,,,,,,,,,,,,orange,circle
397.0,4.0,4.0,0.0,1.0,1.0,295.4856420001306,3.0,1.0,phase_1,,,,,,,,,,,,,magenta,square
0.0,2.0,0.0,0.0,1.0,1.0,312.3418629998014,3.0,1.0,phase_1,,,,,,,,,,,,,white,flipped triangle
0.0,1.0,0.0,0.0,2.0,2.0,377.8621760002352,3.0,1.0,phase_1,,,,,,,,,,,,,yellow,cross
0.0,4.0,0.0,0.0,2.0,2.0,293.7591330000941,3.0,1.0,phase_1,,,,,,,,,,,,,magenta,square
118.0,2.0,2.0,0.0,1.0,1.0,328.6382369997227,3.0,1.0,phase_1,,,,,,,,,,,,,white,flipped triangle
184.0,7.0,3.0,1.0,1.0,1.0,317.3719239998718,3.0,1.0,phase_1,,,,,,,,,,,,,green,triangle
115.0,2.0,2.0,0.0,2.0,2.0,277.3205570001664,3.0,1.0,phase_1,,,,,,,,,,,,,white,flipped triangle
0.0,5.0,0.0,1.0,2.0,2.0,300.683317000221,3.0,1.0,phase_1,,,,,,,,,,,,,blue,I
195.0,3.0,3.0,0.0,3.0,3.0,372.685349999756,3.0,1.0,phase_1,,,,,,,,,,,,,cyan,diamond
54.0,1.0,1.0,0.0,3.0,3.0,329.2499019999013,3.0,1.0,phase_1,,,,,,,,,,,,,yellow,cross
220.0,3.0,3.0,0.0,3.0,3.0,460.804896999889,3.0,1.0,phase_1,,,,,,,,,,,,,cyan,diamond
189.0,3.0,3.0,0.0,1.0,1.0,253.9780700003575,3.0,1.0,phase_1,,,,,,,,,,,,,cyan,diamond
0.0,2.0,0.0,0.0,3.0,3.0,313.1263049999688,3.0,1.0,phase_1,,,,,,,,,,,,,white,flipped triangle
224.0,7.0,3.0,1.0,1.0,1.0,294.8791049998363,3.0,1.0,phase_1,,,,,,,,,,,,,green,triangle
87.0,6.0,2.0,1.0,1.0,1.0,297.4812179995751,3.0,1.0,phase_1,,,,,,,,,,,,,orange,circle
403.0,8.0,4.0,1.0,1.0,1.0,282.7939469998455,3.0,1.0,phase_1,,,,,,,,,,,,,gray,hexagon
0.0,4.0,0.0,0.0,3.0,3.0,361.4277599999695,3.0,1.0,phase_1,,,,,,,,,,,,,magenta,square
0.0,6.0,0.0,1.0,2.0,2.0,281.0468630000287,3.0,1.0,phase_1,,,,,,,,,,,,,orange,circle
184.0,3.0,3.0,0.0,3.0,3.0,303.7927259997559,3.0,1.0,phase_1,,,,,,,,,,,,,cyan,diamond
71.0,5.0,1.0,1.0,1.0,1.0,225.4682860002503,3.0,1.0,phase_1,,,,,,,,,,,,,blue,I
0.0,5.0,0.0,1.0,4.0,4.0,302.4409800000285,3.0,1.0,phase_1,,,,,,,,,,,,,blue,I
216.0,3.0,3.0,0.0,3.0,3.0,343.2374829999389,3.0,1.0,phase_1,,,,,,,,,,,,,cyan,diamond
115.0,6.0,2.0,1.0,4.0,4.0,331.3031669999873,3.0,2.0,phase_1,,,,,,,,,,,,,orange,circle
78.0,6.0,2.0,1.0,3.0,3.0,387.10471600006707,3.0,1.0,phase_1,,,,,,,,,,,,,orange,circle
0.0,3.0,0.0,0.0,1.0,1.0,426.189192000038,3.0,1.0,phase_1,,,,,,,,,,,,,cyan,diamond
224.0,3.0,3.0,0.0,2.0,2.0,275.0555980001081,3.0,1.0,phase_1,,,,,,,,,,,,,cyan,diamond
202.0,3.0,3.0,0.0,1.0,1.0,331.8201119996047,3.0,1.0,phase_1,,,,,,,,,,,,,cyan,diamond
46.0,5.0,1.0,1.0,2.0,2.0,285.4545219997817,3.0,1.0,phase_1,,,,,,,,,,,,,blue,I
107.0,2.0,2.0,0.0,3.0,3.0,331.1778939996657,3.0,1.0,phase_1,,,,,,,,,,,,,white,flipped triangle
394.0,8.0,4.0,1.0,2.0,2.0,271.1016709999967,3.0,1.0,phase_1,,,,,,,,,,,,,gray,hexagon
0.0,2.0,0.0,0.0,3.0,3.0,303.2036209997386,3.0,1.0,phase_1,,,,,,,,,,,,,white,flipped triangle
83.0,6.0,2.0,1.0,2.0,2.0,266.1425290002626,3.0,1.0,phase_1,,,,,,,,,,,,,orange,circle
97.0,6.0,2.0,1.0,2.0,2.0,255.7538239998393,3.0,1.0,phase_1,,,,,,,,,,,,,orange,circle
84.0,2.0,2.0,0.0,1.0,1.0,291.8192189999899,3.0,1.0,phase_1,,,,,,,,,,,,,white,flipped triangle
79.0,2.0,2.0,0.0,4.0,4.0,345.5123479998292,3.0,1.0,phase_1,,,,,,,,,,,,,white,flipped triangle
34.0,1.0,1.0,0.0,4.0,4.0,400.3956239998842,3.0,1.0,phase_1,,,,,,,,,,,,,yellow,cross
66.0,1.0,1.0,0.0,4.0,4.0,325.1567719999002,3.0,1.0,phase_1,,,,,,,,,,,,,yellow,cross
386.0,4.0,4.0,0.0,4.0,4.0,366.0329099998307,3.0,1.0,phase_1,,,,,,,,,,,,,magenta,square
0.0,3.0,0.0,0.0,4.0,4.0,324.475923999671,3.0,1.0,phase_1,,,,,,,,,,,,,cyan,diamond
0.0,6.0,0.0,1.0,2.0,2.0,320.8117109998056,3.0,1.0,phase_1,,,,,,,,,,,,,orange,circle
104.0,2.0,2.0,0.0,1.0,1.0,269.0869259999999,3.0,1.0,phase_1,,,,,,,,,,,,,white,flipped triangle
75.0,5.0,1.0,1.0,3.0,3.0,311.4635819997602,3.0,1.0,phase_1,,,,,,,,,,,,,blue,I
0.0,6.0,0.0,1.0,1.0,1.0,278.7867759998335,3.0,1.0,phase_1,,,,,,,,,,,,,orange,circle
83.0,2.0,2.0,0.0,1.0,1.0,296.7719860002944,3.0,1.0,phase_1,,,,,,,,,,,,,white,flipped triangle
111.0,2.0,2.0,0.0,4.0,4.0,357.3744380000789,3.0,2.0,phase_1,,,,,,,,,,,,,white,flipped triangle
208.0,7.0,3.0,1.0,2.0,2.0,322.2872700002881,3.0,1.0,phase_1,,,,,,,,,,,,,green,triangle
418.0,4.0,4.0,0.0,4.0,4.0,340.4168850001952,3.0,1.0,phase_1,,,,,,,,,,,,,magenta,square
43.0,1.0,1.0,0.0,3.0,3.0,427.266432000124,3.0,1.0,phase_1,,,,,,,,,,,,,yellow,cross
396.0,8.0,4.0,1.0,3.0,3.0,332.507471000099,3.0,1.0,phase_1,,,,,,,,,,,,,gray,hexagon
29.0,5.0,1.0,1.0,2.0,2.0,257.9594519997954,3.0,1.0,phase_1,,,,,,,,,,,,,blue,I
60.0,1.0,1.0,0.0,2.0,2.0,300.6375700001626,3.0,1.0,phase_1,,,,,,,,,,,,,yellow,cross
33.0,1.0,1.0,0.0,2.0,2.0,249.7762070001954,3.0,1.0,phase_1,,,,,,,,,,,,,yellow,cross
0.0,8.0,0.0,1.0,4.0,4.0,366.5458209998178,3.0,1.0,phase_1,,,,,,,,,,,,,gray,hexagon
0.0,6.0,0.0,1.0,1.0,1.0,285.4960330000722,3.0,1.0,phase_1,,,,,,,,,,,,,orange,circle
421.0,8.0,4.0,1.0,2.0,2.0,227.6850919997741,3.0,1.0,phase_1,,,,,,,,,,,,,gray,hexagon
398.0,8.0,4.0,1.0,4.0,4.0,408.427409000069,3.0,1.0,phase_1,,,,,,,,,,,,,gray,hexagon
181.0,3.0,3.0,0.0,4.0,4.0,340.7132629999978,3.0,1.0,phase_1,,,,,,,,,,,,,cyan,diamond
51.0,1.0,1.0,0.0,3.0,3.0,546.3033630003338,3.0,1.0,phase_1,,,,,,,,,,,,,yellow,cross
422.0,4.0,4.0,0.0,2.0,2.0,356.330041000092,3.0,1.0,phase_1,,,,,,,,,,,,,magenta,square
36.0,1.0,1.0,0.0,2.0,2.0,258.3918170003016,3.0,1.0,phase_1,,,,,,,,,,,,,yellow,cross
122.0,6.0,2.0,1.0,2.0,2.0,310.3806340000119,3.0,1.0,phase_1,,,,,,,,,,,,,orange,circle
49.0,1.0,1.0,0.0,4.0,4.0,605.8759419997841,3.0,1.0,phase_1,,,,,,,,,,,,,yellow,cross
398.0,4.0,4.0,0.0,3.0,3.0,427.1511860001737,3.0,1.0,phase_1,,,,,,,,,,,,,magenta,square
200.0,3.0,3.0,0.0,2.0,2.0,298.0313240000214,3.0,1.0,phase_1,,,,,,,,,,,,,cyan,diamond
0.0,3.0,0.0,0.0,4.0,4.0,370.9553640001104,3.0,1.0,phase_1,,,,,,,,,,,,,cyan,diamond
0.0,7.0,0.0,1.0,2.0,2.0,297.3994889998721,3.0,1.0,phase_1,,,,,,,,,,,,,green,triangle
95.0,2.0,2.0,0.0,1.0,1.0,296.1181539999415,3.0,1.0,phase_1,,,,,,,,,,,,,white,flipped triangle
222.0,7.0,3.0,1.0,2.0,2.0,251.37394700004728,3.0,1.0,phase_1,,,,,,,,,,,,,green,triangle
393.0,8.0,4.0,1.0,3.0,3.0,392.6279779998367,3.0,1.0,phase_1,,,,,,,,,,,,,gray,hexagon
53.0,5.0,1.0,1.0,2.0,2.0,371.3611759999367,3.0,1.0,phase_1,,,,,,,,,,,,,blue,I
102.0,2.0,2.0,0.0,3.0,3.0,317.7323620002426,3.0,2.0,phase_1,,,,,,,,,,,,,white,flipped triangle
410.0,4.0,4.0,0.0,1.0,1.0,292.2833030002039,3.0,1.0,phase_1,,,,,,,,,,,,,magenta,square
425.0,4.0,4.0,0.0,2.0,2.0,240.8197409999957,3.0,1.0,phase_1,,,,,,,,,,,,,magenta,square
0.0,2.0,0.0,0.0,3.0,3.0,400.4975449997801,3.0,1.0,phase_1,,,,,,,,,,,,,white,flipped triangle
125.0,2.0,2.0,0.0,2.0,2.0,333.3245300000271,3.0,1.0,phase_1,,,,,,,,,,,,,white,flipped triangle
86.0,6.0,2.0,1.0,4.0,4.0,394.4428059999154,3.0,1.0,phase_1,,,,,,,,,,,,,orange,circle
383.0,4.0,4.0,0.0,3.0,3.0,411.9978050002828,3.0,1.0,phase_1,,,,,,,,,,,,,magenta,square
413.0,4.0,4.0,0.0,2.0,2.0,388.4176330002447,3.0,1.0,phase_1,,,,,,,,,,,,,magenta,square
210.0,7.0,3.0,1.0,4.0,4.0,303.0608079998274,3.0,1.0,phase_1,,,,,,,,,,,,,green,triangle
177.0,7.0,3.0,1.0,1.0,1.0,460.5829399997674,4.0,1.0,phase_1,,,,,,,,,,,,,green,triangle
64.0,5.0,1.0,1.0,4.0,4.0,343.8144950000605,4.0,1.0,phase_1,,,,,,,,,,,,,blue,I
0.0,1.0,0.0,0.0,3.0,3.0,365.519612999833,4.0,1.0,phase_1,,,,,,,,,,,,,yellow,cross
41.0,1.0,1.0,0.0,1.0,1.0,375.0802129998192,4.0,1.0,phase_1,,,,,,,,,,,,,yellow,cross
184.0,7.0,3.0,1.0,3.0,3.0,340.6995169998481,4.0,1.0,phase_1,,,,,,,,,,,,,green,triangle
390.0,4.0,4.0,0.0,4.0,4.0,283.5553879999679,4.0,1.0,phase_1,,,,,,,,,,,,,magenta,square
216.0,3.0,3.0,0.0,4.0,4.0,360.1966360001825,4.0,1.0,phase_1,,,,,,,,,,,,,cyan,diamond
413.0,8.0,4.0,1.0,3.0,3.0,456.7723340001066,4.0,1.0,phase_1,,,,,,,,,,,,,gray,hexagon
31.0,1.0,1.0,0.0,3.0,3.0,282.5358069999311,4.0,1.0,phase_1,,,,,,,,,,,,,yellow,cross
0.0,4.0,0.0,0.0,2.0,2.0,302.8447270003198,4.0,1.0,phase_1,,,,,,,,,,,,,magenta,square
110.0,2.0,2.0,0.0,2.0,2.0,380.9317390000615,4.0,1.0,phase_1,,,,,,,,,,,,,white,flipped triangle
181.0,7.0,3.0,1.0,2.0,2.0,375.9783880000213,4.0,1.0,phase_1,,,,,,,,,,,,,green,triangle
49.0,5.0,1.0,1.0,2.0,2.0,258.8446630002181,4.0,1.0,phase_1,,,,,,,,,,,,,blue,I
388.0,8.0,4.0,1.0,1.0,1.0,370.0169730000198,4.0,1.0,phase_1,,,,,,,,,,,,,gray,hexagon
38.0,5.0,1.0,1.0,4.0,4.0,411.9542930002353,4.0,1.0,phase_1,,,,,,,,,,,,,blue,I
44.0,5.0,1.0,1.0,3.0,3.0,381.0967839999648,4.0,1.0,phase_1,,,,,,,,,,,,,blue,I
0.0,7.0,0.0,1.0,4.0,4.0,424.8215099996741,4.0,1.0,phase_1,,,,,,,,,,,,,green,triangle
377.0,8.0,4.0,1.0,3.0,3.0,380.7267120000688,4.0,1.0,phase_1,,,,,,,,,,,,,gray,hexagon
208.0,3.0,3.0,0.0,1.0,1.0,313.6116260002382,4.0,1.0,phase_1,,,,,,,,,,,,,cyan,diamond
387.0,8.0,4.0,1.0,1.0,1.0,347.2090039999784,4.0,1.0,phase_1,,,,,,,,,,,,,gray,hexagon
33.0,1.0,1.0,0.0,4.0,4.0,412.4934839996967,4.0,1.0,phase_1,,,,,,,,,,,,,yellow,cross
38.0,1.0,1.0,0.0,1.0,1.0,304.0505330000087,4.0,1.0,phase_1,,,,,,,,,,,,,yellow,cross
106.0,6.0,2.0,1.0,1.0,1.0,353.5235930003182,4.0,1.0,phase_1,,,,,,,,,,,,,orange,circle
215.0,7.0,3.0,1.0,3.0,3.0,902.0518549996268,4.0,1.0,phase_1,,,,,,,,,,,,,green,triangle
379.0,4.0,4.0,0.0,1.0,1.0,310.014744,4.0,1.0,phase_1,,,,,,,,,,,,,magenta,square
76.0,2.0,2.0,0.0,4.0,4.0,326.7723120002301,4.0,1.0,phase_1,,,,,,,,,,,,,white,flipped triangle
410.0,8.0,4.0,1.0,2.0,2.0,301.6427819998171,4.0,1.0,phase_1,,,,,,,,,,,,,gray,hexagon
220.0,7.0,3.0,1.0,1.0,1.0,350.6448010002714,4.0,1.0,phase_1,,,,,,,,,,,,,green,triangle
120.0,6.0,2.0,1.0,4.0,4.0,348.1041499999264,4.0,1.0,phase_1,,,,,,,,,,,,,orange,circle
102.0,6.0,2.0,1.0,2.0,2.0,275.1734319999741,4.0,1.0,phase_1,,,,,,,,,,,,,orange,circle
27.0,5.0,1.0,1.0,1.0,1.0,273.721820999981,4.0,1.0,phase_1,,,,,,,,,,,,,blue,I
183.0,3.0,3.0,0.0,2.0,2.0,364.9116659998981,4.0,1.0,phase_1,,,,,,,,,,,,,cyan,diamond
0.0,7.0,0.0,1.0,1.0,1.0,558.6643110000296,4.0,1.0,phase_1,,,,,,,,,,,,,green,triangle
224.0,3.0,3.0,0.0,1.0,1.0,480.1573760000792,4.0,1.0,phase_1,,,,,,,,,,,,,cyan,diamond
36.0,5.0,1.0,1.0,3.0,3.0,396.3020940000206,4.0,1.0,phase_1,,,,,,,,,,,,,blue,I
51.0,5.0,1.0,1.0,4.0,4.0,356.8864439998833,4.0,1.0,phase_1,,,,,,,,,,,,,blue,I
0.0,3.0,0.0,0.0,3.0,3.0,405.256940000072,4.0,1.0,phase_1,,,,,,,,,,,,,cyan,diamond
177.0,3.0,3.0,0.0,3.0,3.0,365.3359899999486,4.0,1.0,phase_1,,,,,,,,,,,,,cyan,diamond
190.0,3.0,3.0,0.0,3.0,3.0,395.9748800002671,4.0,1.0,phase_1,,,,,,,,,,,,,cyan,diamond
217.0,3.0,3.0,0.0,1.0,1.0,296.6495280002164,4.0,1.0,phase_1,,,,,,,,,,,,,cyan,diamond
67.0,1.0,1.0,0.0,1.0,1.0,292.6593150000371,4.0,1.0,phase_1,,,,,,,,,,,,,yellow,cross
89.0,2.0,2.0,0.0,4.0,4.0,448.0548139999882,4.0,1.0,phase_1,,,,,,,,,,,,,white,flipped triangle
0.0,6.0,0.0,1.0,1.0,1.0,329.3739720002122,4.0,1.0,phase_1,,,,,,,,,,,,,orange,circle
223.0,3.0,3.0,0.0,4.0,4.0,304.7750199998518,4.0,1.0,phase_1,,,,,,,,,,,,,cyan,diamond
102.0,2.0,2.0,0.0,4.0,4.0,431.8823169996904,4.0,1.0,phase_1,,,,,,,,,,,,,white,flipped triangle
28.0,5.0,1.0,1.0,3.0,3.0,337.5475939997159,4.0,2.0,phase_1,,,,,,,,,,,,,blue,I
107.0,6.0,2.0,1.0,2.0,2.0,340.9420999996655,4.0,1.0,phase_1,,,,,,,,,,,,,orange,circle
0.0,7.0,0.0,1.0,3.0,3.0,291.9117609999375,4.0,1.0,phase_1,,,,,,,,,,,,,green,triangle
0.0,3.0,0.0,0.0,1.0,1.0,373.8900710000052,4.0,1.0,phase_1,,,,,,,,,,,,,cyan,diamond
416.0,8.0,4.0,1.0,1.0,1.0,390.2824469996631,4.0,1.0,phase_1,,,,,,,,,,,,,gray,hexagon
60.0,1.0,1.0,0.0,1.0,1.0,295.865717000197,4.0,1.0,phase_1,,,,,,,,,,,,,yellow,cross
67.0,5.0,1.0,1.0,4.0,4.0,373.0249909999656,4.0,1.0,phase_1,,,,,,,,,,,,,blue,I
70.0,1.0,1.0,0.0,2.0,2.0,307.5161010001466,4.0,1.0,phase_1,,,,,,,,,,,,,yellow,cross
0.0,3.0,0.0,0.0,4.0,4.0,400.9603849999621,4.0,1.0,phase_1,,,,,,,,,,,,,cyan,diamond
80.0,2.0,2.0,0.0,2.0,2.0,315.6810069999665,4.0,1.0,phase_1,,,,,,,,,,,,,white,flipped triangle
187.0,3.0,3.0,0.0,4.0,4.0,353.6459260003539,4.0,2.0,phase_1,,,,,,,,,,,,,cyan,diamond
39.0,1.0,1.0,0.0,4.0,4.0,411.3824269998076,4.0,1.0,phase_1,,,,,,,,,,,,,yellow,cross
394.0,8.0,4.0,1.0,3.0,3.0,323.9015140002266,4.0,1.0,phase_1,,,,,,,,,,,,,gray,hexagon
0.0,6.0,0.0,1.0,2.0,2.0,322.1972720002668,4.0,1.0,phase_1,,,,,,,,,,,,,orange,circle
49.0,1.0,1.0,0.0,1.0,1.0,281.4216609999675,4.0,1.0,phase_1,,,,,,,,,,,,,yellow,cross
397.0,4.0,4.0,0.0,4.0,4.0,289.0377530002297,4.0,1.0,phase_1,,,,,,,,,,,,,magenta,square
31.0,1.0,1.0,0.0,2.0,2.0,345.0110809999387,4.0,1.0,phase_1,,,,,,,,,,,,,yellow,cross
71.0,5.0,1.0,1.0,2.0,2.0,348.8593219999529,4.0,1.0,phase_1,,,,,,,,,,,,,blue,I
407.0,4.0,4.0,0.0,2.0,2.0,291.8208849996517,4.0,1.0,phase_1,,,,,,,,,,,,,magenta,square
0.0,1.0,0.0,0.0,2.0,2.0,431.7472249999809,4.0,1.0,phase_1,,,,,,,,,,,,,yellow,cross
0.0,8.0,0.0,1.0,2.0,2.0,308.5469340003328,4.0,1.0,phase_1,,,,,,,,,,,,,gray,hexagon
65.0,5.0,1.0,1.0,4.0,4.0,751.0152449999623,4.0,1.0,phase_1,,,,,,,,,,,,,blue,I
218.0,3.0,3.0,0.0,1.0,1.0,339.4769609999457,4.0,1.0,phase_1,,,,,,,,,,,,,cyan,diamond
191.0,7.0,3.0,1.0,3.0,3.0,432.1342150001328,4.0,1.0,phase_1,,,,,,,,,,,,,green,triangle
223.0,7.0,3.0,1.0,2.0,2.0,337.3196729999108,4.0,1.0,phase_1,,,,,,,,,,,,,green,triangle
113.0,6.0,2.0,1.0,3.0,3.0,326.3145680002708,4.0,1.0,phase_1,,,,,,,,,,,,,orange,circle
216.0,7.0,3.0,1.0,3.0,3.0,371.1617130002196,4.0,1.0,phase_1,,,,,,,,,,,,,green,triangle
113.0,2.0,2.0,0.0,3.0,3.0,329.6316000000843,4.0,1.0,phase_1,,,,,,,,,,,,,white,flipped triangle
41.0,5.0,1.0,1.0,2.0,2.0,272.3492569998598,4.0,1.0,phase_1,,,,,,,,,,,,,blue,I
0.0,5.0,0.0,1.0,2.0,2.0,297.072174999812,4.0,1.0,phase_1,,,,,,,,,,,,,blue,I
218.0,7.0,3.0,1.0,3.0,3.0,344.6861679999529,4.0,1.0,phase_1,,,,,,,,,,,,,green,triangle
189.0,7.0,3.0,1.0,1.0,1.0,285.1170890003232,4.0,1.0,phase_1,,,,,,,,,,,,,green,triangle
0.0,4.0,0.0,0.0,1.0,1.0,379.1022670002348,4.0,1.0,phase_1,,,,,,,,,,,,,magenta,square
0.0,4.0,0.0,0.0,3.0,3.0,275.0693620000675,4.0,1.0,phase_1,,,,,,,,,,,,,magenta,square
80.0,6.0,2.0,1.0,3.0,3.0,478.1374529998174,4.0,1.0,phase_1,,,,,,,,,,,,,orange,circle
403.0,4.0,4.0,0.0,3.0,3.0,414.1664740000124,4.0,1.0,phase_1,,,,,,,,,,,,,magenta,square
79.0,6.0,2.0,1.0,3.0,3.0,466.4143509999121,4.0,1.0,phase_1,,,,,,,,,,,,,orange,circle
0.0,6.0,0.0,1.0,1.0,1.0,421.1369540003034,4.0,1.0,phase_1,,,,,,,,,,,,,orange,circle
215.0,7.0,3.0,1.0,2.0,2.0,268.5651299998426,4.0,1.0,phase_1,,,,,,,,,,,,,green,triangle
105.0,2.0,2.0,0.0,4.0,4.0,326.3620490001813,4.0,1.0,phase_1,,,,,,,,,,,,,white,flipped triangle
407.0,8.0,4.0,1.0,1.0,1.0,310.9912730001269,4.0,1.0,phase_1,,,,,,,,,,,,,gray,hexagon
185.0,3.0,3.0,0.0,3.0,3.0,307.4959800001124,4.0,1.0,phase_1,,,,,,,,,,,,,cyan,diamond
84.0,6.0,2.0,1.0,3.0,3.0,347.4635359998501,4.0,1.0,phase_1,,,,,,,,,,,,,orange,circle
195.0,7.0,3.0,1.0,4.0,4.0,325.1420409997081,4.0,1.0,phase_1,,,,,,,,,,,,,green,triangle
392.0,8.0,4.0,1.0,4.0,4.0,384.5704660002411,4.0,1.0,phase_1,,,,,,,,,,,,,gray,hexagon
0.0,5.0,0.0,1.0,1.0,1.0,210.0194549998377,4.0,2.0,phase_1,,,,,,,,,,,,,blue,I
376.0,8.0,4.0,1.0,2.0,2.0,360.2702119997047,4.0,1.0,phase_1,,,,,,,,,,,,,gray,hexagon
422.0,8.0,4.0,1.0,1.0,1.0,334.7073439999803,4.0,1.0,phase_1,,,,,,,,,,,,,gray,hexagon
0.0,8.0,0.0,1.0,3.0,3.0,269.6200000000317,4.0,1.0,phase_1,,,,,,,,,,,,,gray,hexagon
0.0,2.0,0.0,0.0,3.0,3.0,358.359128000302,4.0,1.0,phase_1,,,,,,,,,,,,,white,flipped triangle
53.0,1.0,1.0,0.0,4.0,4.0,734.2651979997754,4.0,1.0,phase_1,,,,,,,,,,,,,yellow,cross
78.0,2.0,2.0,0.0,2.0,2.0,433.862381000381,4.0,1.0,phase_1,,,,,,,,,,,,,white,flipped triangle
401.0,8.0,4.0,1.0,4.0,4.0,327.7331700001014,4.0,1.0,phase_1,,,,,,,,,,,,,gray,hexagon
0.0,4.0,0.0,0.0,2.0,2.0,313.3259969999926,4.0,1.0,phase_1,,,,,,,,,,,,,magenta,square
418.0,8.0,4.0,1.0,4.0,4.0,272.7707110002484,4.0,1.0,phase_1,,,,,,,,,,,,,gray,hexagon
0.0,7.0,3.0,1.0,6.0,6.0,407.4020240000209,1.0,1.0,phase_2,stop,250.0,250.0,3.0,,,,,,,,,green,triangle
0.0,7.0,3.0,1.0,6.0,0.0,0.0,1.0,1.0,phase_2,stop,250.0,200.0,4.0,,,,,,,,,green,triangle
0.0,5.0,1.0,1.0,6.0,6.0,369.9981939998906,1.0,1.0,phase_2,go,250.0,250.0,1.0,,,,,,,,,blue,I
0.0,2.0,2.0,0.0,6.0,6.0,460.1236580001568,1.0,1.0,phase_2,go,250.0,250.0,1.0,,,,,,,,,white,flipped triangle
0.0,5.0,1.0,1.0,5.0,5.0,332.0147059998817,1.0,1.0,phase_2,stop,250.0,250.0,3.0,,,,,,,,,blue,I
0.0,8.0,4.0,1.0,5.0,0.0,0.0,1.0,1.0,phase_2,stop,200.0,250.0,4.0,,,,,,,,,gray,hexagon
0.0,6.0,2.0,1.0,5.0,0.0,0.0,1.0,1.0,phase_2,stop,250.0,250.0,4.0,,,,,,,,,orange,circle
0.0,1.0,1.0,0.0,6.0,6.0,271.8829890000052,1.0,1.0,phase_2,go,300.0,250.0,1.0,,,,,,,,,yellow,cross
0.0,6.0,2.0,1.0,5.0,0.0,0.0,1.0,1.0,phase_2,stop,300.0,250.0,4.0,,,,,,,,,orange,circle
0.0,1.0,1.0,0.0,5.0,5.0,655.776627999785,1.0,1.0,phase_2,go,350.0,250.0,1.0,,,,,,,,,yellow,cross
0.0,6.0,2.0,1.0,5.0,0.0,0.0,1.0,1.0,phase_2,stop,350.0,250.0,4.0,,,,,,,,,orange,circle
0.0,4.0,4.0,0.0,6.0,6.0,309.230127000319,1.0,1.0,phase_2,go,400.0,250.0,1.0,,,,,,,,,magenta,square
0.0,4.0,4.0,0.0,5.0,5.0,597.0759789997828,1.0,1.0,phase_2,go,400.0,250.0,1.0,,,,,,,,,magenta,square
0.0,8.0,4.0,1.0,5.0,5.0,505.3106889999981,1.0,1.0,phase_2,stop,400.0,250.0,3.0,,,,,,,,,gray,hexagon
0.0,5.0,1.0,1.0,6.0,0.0,0.0,1.0,1.0,phase_2,stop,350.0,250.0,4.0,,,,,,,,,blue,I
0.0,5.0,1.0,1.0,5.0,0.0,0.0,1.0,1.0,phase_2,stop,350.0,300.0,4.0,,,,,,,,,blue,I
0.0,4.0,4.0,0.0,6.0,6.0,697.6721149999321,1.0,1.0,phase_2,go,400.0,300.0,1.0,,,,,,,,,magenta,square
0.0,8.0,4.0,1.0,6.0,0.0,0.0,1.0,1.0,phase_2,stop,400.0,300.0,4.0,,,,,,,,,gray,hexagon
0.0,1.0,1.0,0.0,6.0,6.0,578.7814489999619,1.0,1.0,phase_2,go,400.0,350.0,1.0,,,,,,,,,yellow,cross
0.0,7.0,3.0,1.0,6.0,6.0,550.9982600001422,1.0,1.0,phase_2,go,400.0,350.0,1.0,,,,,,,,,green,triangle
0.0,5.0,1.0,1.0,5.0,0.0,0.0,1.0,1.0,phase_2,stop,400.0,350.0,4.0,,,,,,,,,blue,I
0.0,8.0,4.0,1.0,5.0,0.0,0.0,1.0,1.0,phase_2,stop,450.0,350.0,4.0,,,,,,,,,gray,hexagon
0.0,7.0,3.0,1.0,5.0,0.0,0.0,1.0,1.0,phase_2,stop,500.0,350.0,4.0,,,,,,,,,green,triangle
0.0,6.0,2.0,1.0,6.0,6.0,687.6200760002575,1.0,1.0,phase_2,go,550.0,350.0,1.0,,,,,,,,,orange,circle
0.0,8.0,4.0,1.0,5.0,5.0,428.5387869999795,1.0,1.0,phase_2,stop,550.0,350.0,3.0,,,,,,,,,gray,hexagon
0.0,7.0,3.0,1.0,5.0,5.0,655.4232319999755,1.0,1.0,phase_2,go,500.0,350.0,1.0,,,,,,,,,green,triangle
0.0,6.0,2.0,1.0,6.0,6.0,500.02399000004516,1.0,1.0,phase_2,stop,500.0,350.0,3.0,,,,,,,,,orange,circle
0.0,8.0,4.0,1.0,6.0,0.0,0.0,1.0,1.0,phase_2,stop,500.0,300.0,4.0,,,,,,,,,gray,hexagon
0.0,8.0,4.0,1.0,5.0,5.0,753.089782999723,1.0,1.0,phase_2,go,500.0,350.0,1.0,,,,,,,,,gray,hexagon
0.0,2.0,2.0,0.0,5.0,5.0,828.9077099998394,1.0,1.0,phase_2,go,500.0,350.0,1.0,,,,,,,,,white,flipped triangle
0.0,5.0,1.0,1.0,6.0,0.0,0.0,1.0,1.0,phase_2,stop,500.0,350.0,4.0,,,,,,,,,blue,I
0.0,7.0,3.0,1.0,6.0,0.0,0.0,1.0,1.0,phase_2,stop,500.0,400.0,4.0,,,,,,,,,green,triangle
0.0,8.0,4.0,1.0,6.0,0.0,0.0,1.0,1.0,phase_2,stop,500.0,450.0,4.0,,,,,,,,,gray,hexagon
0.0,3.0,3.0,0.0,6.0,6.0,561.549405000278,1.0,1.0,phase_2,go,500.0,500.0,1.0,,,,,,,,,cyan,diamond
0.0,1.0,1.0,0.0,6.0,6.0,327.1224170002824,1.0,1.0,phase_2,go,500.0,500.0,1.0,,,,,,,,,yellow,cross
0.0,1.0,1.0,0.0,6.0,6.0,425.9960160002265,1.0,1.0,phase_2,go,500.0,500.0,1.0,,,,,,,,,yellow,cross
0.0,2.0,2.0,0.0,6.0,6.0,786.5519360002509,2.0,1.0,phase_2,go,500.0,500.0,1.0,,,,,,,,,white,flipped triangle
0.0,1.0,1.0,0.0,5.0,5.0,283.6849139998776,2.0,1.0,phase_2,go,500.0,500.0,1.0,,,,,,,,,yellow,cross
0.0,1.0,1.0,0.0,6.0,6.0,384.1479849997995,2.0,1.0,phase_2,go,500.0,500.0,1.0,,,,,,,,,yellow,cross
0.0,1.0,1.0,0.0,5.0,5.0,502.9854859999432,2.0,1.0,phase_2,go,500.0,500.0,1.0,,,,,,,,,yellow,cross
0.0,3.0,3.0,0.0,6.0,6.0,383.0174999998235,2.0,1.0,phase_2,go,500.0,500.0,1.0,,,,,,,,,cyan,diamond
0.0,5.0,1.0,1.0,5.0,5.0,633.6094100001901,2.0,1.0,phase_2,stop,500.0,500.0,3.0,,,,,,,,,blue,I
0.0,6.0,2.0,1.0,6.0,6.0,562.4778430001243,2.0,1.0,phase_2,go,450.0,500.0,1.0,,,,,,,,,orange,circle
0.0,3.0,3.0,0.0,5.0,5.0,756.9999080001253,2.0,1.0,phase_2,go,450.0,500.0,1.0,,,,,,,,,cyan,diamond
0.0,6.0,2.0,1.0,5.0,5.0,568.4528809997573,2.0,1.0,phase_2,go,450.0,500.0,1.0,,,,,,,,,orange,circle
0.0,4.0,4.0,0.0,5.0,5.0,782.9479710003397,2.0,1.0,phase_2,go,450.0,500.0,1.0,,,,,,,,,magenta,square
0.0,1.0,1.0,0.0,6.0,6.0,709.5677419997628,2.0,1.0,phase_2,go,450.0,500.0,1.0,,,,,,,,,yellow,cross
0.0,8.0,4.0,1.0,6.0,6.0,588.5160120001274,2.0,1.0,phase_2,stop,450.0,500.0,3.0,,,,,,,,,gray,hexagon
0.0,1.0,1.0,0.0,5.0,5.0,681.0652230001324,2.0,1.0,phase_2,go,450.0,450.0,1.0,,,,,,,,,yellow,cross
0.0,5.0,1.0,1.0,6.0,6.0,554.6228439998231,2.0,1.0,phase_2,stop,450.0,450.0,3.0,,,,,,,,,blue,I
0.0,2.0,2.0,0.0,6.0,6.0,759.2853460000697,2.0,1.0,phase_2,go,450.0,400.0,1.0,,,,,,,,,white,flipped triangle
0.0,6.0,2.0,1.0,6.0,0.0,0.0,2.0,1.0,phase_2,stop,450.0,400.0,4.0,,,,,,,,,orange,circle
0.0,3.0,3.0,0.0,6.0,6.0,449.6624889998202,2.0,1.0,phase_2,go,450.0,450.0,1.0,,,,,,,,,cyan,diamond
0.0,4.0,4.0,0.0,5.0,5.0,694.1198499998791,2.0,1.0,phase_2,go,450.0,450.0,1.0,,,,,,,,,magenta,square
0.0,4.0,4.0,0.0,6.0,6.0,654.4412550001653,2.0,1.0,phase_2,go,450.0,450.0,1.0,,,,,,,,,magenta,square
0.0,4.0,4.0,0.0,6.0,6.0,444.3307020001157,2.0,1.0,phase_2,go,450.0,450.0,1.0,,,,,,,,,magenta,square
0.0,5.0,1.0,1.0,5.0,5.0,653.5013369998524,2.0,1.0,phase_2,go,450.0,450.0,1.0,,,,,,,,,blue,I
0.0,4.0,4.0,0.0,5.0,5.0,405.1311070002157,2.0,1.0,phase_2,go,450.0,450.0,1.0,,,,,,,,,magenta,square
0.0,2.0,2.0,0.0,5.0,5.0,368.4667659999832,2.0,1.0,phase_2,go,450.0,450.0,1.0,,,,,,,,,white,flipped triangle
0.0,6.0,2.0,1.0,6.0,6.0,323.4148820001792,2.0,1.0,phase_2,stop,450.0,450.0,3.0,,,,,,,,,orange,circle
0.0,4.0,4.0,0.0,5.0,5.0,631.9314259999373,2.0,1.0,phase_2,go,450.0,400.0,1.0,,,,,,,,,magenta,square
0.0,3.0,3.0,0.0,5.0,5.0,516.8199159998039,2.0,1.0,phase_2,go,450.0,400.0,1.0,,,,,,,,,cyan,diamond
0.0,7.0,3.0,1.0,5.0,5.0,318.692474999807,2.0,1.0,phase_2,stop,450.0,400.0,3.0,,,,,,,,,green,triangle
0.0,7.0,3.0,1.0,6.0,0.0,0.0,2.0,1.0,phase_2,stop,400.0,400.0,4.0,,,,,,,,,green,triangle
0.0,2.0,2.0,0.0,5.0,5.0,478.6503209998045,2.0,1.0,phase_2,go,400.0,450.0,1.0,,,,,,,,,white,flipped triangle
0.0,6.0,2.0,1.0,5.0,0.0,0.0,2.0,1.0,phase_2,stop,400.0,450.0,4.0,,,,,,,,,orange,circle
0.0,4.0,4.0,0.0,5.0,5.0,487.0036799998161,2.0,1.0,phase_2,go,450.0,450.0,1.0,,,,,,,,,magenta,square
0.0,4.0,4.0,0.0,6.0,6.0,558.375753999826,2.0,1.0,phase_2,go,450.0,450.0,1.0,,,,,,,,,magenta,square
0.0,3.0,3.0,0.0,5.0,5.0,651.446463999946,2.0,1.0,phase_2,go,450.0,450.0,1.0,,,,,,,,,cyan,diamond
0.0,7.0,3.0,1.0,6.0,6.0,410.2095500002178,2.0,1.0,phase_2,go,450.0,450.0,1.0,,,,,,,,,green,triangle
0.0,8.0,4.0,1.0,5.0,0.0,0.0,2.0,1.0,phase_2,stop,450.0,450.0,4.0,,,,,,,,,gray,hexagon
0.0,2.0,2.0,0.0,5.0,5.0,510.1929680004105,2.0,1.0,phase_2,go,500.0,450.0,1.0,,,,,,,,,white,flipped triangle
0.0,8.0,4.0,1.0,6.0,6.0,595.3562800000327,3.0,1.0,phase_2,go,500.0,450.0,1.0,,,,,,,,,gray,hexagon
0.0,1.0,1.0,0.0,6.0,6.0,432.3812319998978,3.0,1.0,phase_2,go,500.0,450.0,1.0,,,,,,,,,yellow,cross
0.0,2.0,2.0,0.0,5.0,5.0,373.0435180000313,3.0,1.0,phase_2,go,500.0,450.0,1.0,,,,,,,,,white,flipped triangle
0.0,2.0,2.0,0.0,5.0,5.0,375.7347050000135,3.0,1.0,phase_2,go,500.0,450.0,1.0,,,,,,,,,white,flipped triangle
0.0,6.0,2.0,1.0,6.0,0.0,0.0,3.0,1.0,phase_2,stop,500.0,450.0,4.0,,,,,,,,,orange,circle
0.0,3.0,3.0,0.0,5.0,5.0,376.7579100003786,3.0,1.0,phase_2,go,500.0,500.0,1.0,,,,,,,,,cyan,diamond
0.0,7.0,3.0,1.0,6.0,6.0,325.7279730000846,3.0,1.0,phase_2,stop,500.0,500.0,3.0,,,,,,,,,green,triangle
0.0,7.0,3.0,1.0,5.0,5.0,338.8668600000528,3.0,1.0,phase_2,go,500.0,450.0,1.0,,,,,,,,,green,triangle
0.0,2.0,2.0,0.0,5.0,5.0,382.7042739999342,3.0,1.0,phase_2,go,500.0,450.0,1.0,,,,,,,,,white,flipped triangle
0.0,3.0,3.0,0.0,6.0,6.0,586.1331239998435,3.0,1.0,phase_2,go,500.0,450.0,1.0,,,,,,,,,cyan,diamond
0.0,3.0,3.0,0.0,6.0,6.0,611.786344000393,3.0,1.0,phase_2,go,500.0,450.0,1.0,,,,,,,,,cyan,diamond
0.0,5.0,1.0,1.0,5.0,5.0,267.1998220002933,3.0,1.0,phase_2,stop,500.0,450.0,3.0,,,,,,,,,blue,I
0.0,1.0,1.0,0.0,5.0,5.0,603.3161390000714,3.0,1.0,phase_2,go,450.0,450.0,1.0,,,,,,,,,yellow,cross
0.0,3.0,3.0,0.0,5.0,5.0,556.7170049998822,3.0,1.0,phase_2,go,450.0,450.0,1.0,,,,,,,,,cyan,diamond
0.0,1.0,1.0,0.0,5.0,5.0,397.3553780001566,3.0,1.0,phase_2,go,450.0,450.0,1.0,,,,,,,,,yellow,cross
0.0,3.0,3.0,0.0,5.0,5.0,503.6051550000593,3.0,1.0,phase_2,go,450.0,450.0,1.0,,,,,,,,,cyan,diamond
0.0,5.0,1.0,1.0,5.0,5.0,290.6285589997424,3.0,1.0,phase_2,stop,450.0,450.0,3.0,,,,,,,,,blue,I
0.0,1.0,1.0,0.0,5.0,5.0,449.0520449999167,3.0,1.0,phase_2,go,400.0,450.0,1.0,,,,,,,,,yellow,cross
0.0,8.0,4.0,1.0,5.0,0.0,0.0,3.0,1.0,phase_2,stop,400.0,450.0,4.0,,,,,,,,,gray,hexagon
0.0,8.0,4.0,1.0,5.0,5.0,671.8544240002302,3.0,1.0,phase_2,go,450.0,450.0,1.0,,,,,,,,,gray,hexagon
0.0,1.0,1.0,0.0,5.0,5.0,708.2993630001511,3.0,1.0,phase_2,go,450.0,450.0,1.0,,,,,,,,,yellow,cross
0.0,7.0,3.0,1.0,6.0,6.0,535.6162189996212,3.0,1.0,phase_2,go,450.0,450.0,1.0,,,,,,,,,green,triangle
0.0,1.0,1.0,0.0,5.0,5.0,445.8961539999109,3.0,1.0,phase_2,go,450.0,450.0,1.0,,,,,,,,,yellow,cross
0.0,3.0,3.0,0.0,6.0,6.0,793.114562000028,3.0,1.0,phase_2,go,450.0,450.0,1.0,,,,,,,,,cyan,diamond
0.0,6.0,2.0,1.0,5.0,5.0,320.0787129999298,3.0,1.0,phase_2,stop,450.0,450.0,3.0,,,,,,,,,orange,circle
0.0,6.0,2.0,1.0,6.0,6.0,515.4347039997447,3.0,1.0,phase_2,go,400.0,450.0,1.0,,,,,,,,,orange,circle
0.0,5.0,1.0,1.0,5.0,5.0,658.6296840000614,3.0,1.0,phase_2,go,400.0,450.0,1.0,,,,,,,,,blue,I
0.0,3.0,3.0,0.0,6.0,6.0,479.6095219999188,3.0,1.0,phase_2,go,400.0,450.0,1.0,,,,,,,,,cyan,diamond
0.0,5.0,1.0,1.0,6.0,0.0,0.0,3.0,1.0,phase_2,stop,400.0,450.0,4.0,,,,,,,,,blue,I
0.0,2.0,2.0,0.0,6.0,6.0,430.8825930002058,3.0,1.0,phase_2,go,400.0,500.0,1.0,,,,,,,,,white,flipped triangle
0.0,5.0,1.0,1.0,5.0,0.0,0.0,3.0,1.0,phase_2,stop,400.0,500.0,4.0,,,,,,,,,blue,I
0.0,6.0,2.0,1.0,6.0,6.0,565.2843929997289,3.0,1.0,phase_2,stop,450.0,500.0,3.0,,,,,,,,,orange,circle
0.0,5.0,1.0,1.0,5.0,5.0,652.3225050000292,3.0,1.0,phase_2,go,450.0,450.0,1.0,,,,,,,,,blue,I
0.0,1.0,1.0,0.0,5.0,5.0,729.3871479996596,3.0,1.0,phase_2,go,450.0,450.0,1.0,,,,,,,,,yellow,cross
0.0,8.0,4.0,1.0,6.0,0.0,0.0,3.0,1.0,phase_2,stop,450.0,450.0,4.0,,,,,,,,,gray,hexagon
0.0,5.0,1.0,1.0,6.0,0.0,0.0,3.0,1.0,phase_2,stop,450.0,500.0,4.0,,,,,,,,,blue,I
0.0,4.0,4.0,0.0,6.0,6.0,630.0560019999466,4.0,1.0,phase_2,go,450.0,550.0,1.0,,,,,,,,,magenta,square
0.0,6.0,2.0,1.0,5.0,5.0,562.2033609997743,4.0,1.0,phase_2,stop,450.0,550.0,3.0,,,,,,,,,orange,circle
0.0,6.0,2.0,1.0,6.0,0.0,0.0,4.0,1.0,phase_2,stop,400.0,550.0,4.0,,,,,,,,,orange,circle
0.0,6.0,2.0,1.0,5.0,5.0,363.7816740001653,4.0,1.0,phase_2,go,400.0,600.0,1.0,,,,,,,,,orange,circle
0.0,8.0,4.0,1.0,6.0,6.0,794.3621319996055,4.0,1.0,phase_2,go,400.0,600.0,1.0,,,,,,,,,gray,hexagon
0.0,3.0,3.0,0.0,6.0,6.0,672.5585789999968,4.0,1.0,phase_2,go,400.0,600.0,1.0,,,,,,,,,cyan,diamond
0.0,2.0,2.0,0.0,5.0,5.0,268.5779099997489,4.0,1.0,phase_2,go,400.0,600.0,1.0,,,,,,,,,white,flipped triangle
0.0,7.0,3.0,1.0,5.0,5.0,623.9351029998943,4.0,1.0,phase_2,go,400.0,600.0,1.0,,,,,,,,,green,triangle
0.0,6.0,2.0,1.0,6.0,6.0,303.5841730002175,4.0,1.0,phase_2,stop,400.0,600.0,3.0,,,,,,,,,orange,circle
0.0,3.0,3.0,0.0,5.0,5.0,624.1286189997481,4.0,1.0,phase_2,go,400.0,550.0,1.0,,,,,,,,,cyan,diamond
0.0,4.0,4.0,0.0,5.0,5.0,397.9684650003037,4.0,1.0,phase_2,go,400.0,550.0,1.0,,,,,,,,,magenta,square
0.0,8.0,4.0,1.0,5.0,5.0,374.6526950003499,4.0,1.0,phase_2,stop,400.0,550.0,3.0,,,,,,,,,gray,hexagon
0.0,7.0,3.0,1.0,5.0,0.0,0.0,4.0,1.0,phase_2,stop,350.0,550.0,4.0,,,,,,,,,green,triangle
0.0,3.0,3.0,0.0,5.0,5.0,710.4042810001374,4.0,1.0,phase_2,go,400.0,550.0,1.0,,,,,,,,,cyan,diamond
0.0,3.0,3.0,0.0,5.0,5.0,661.829914000009,4.0,1.0,phase_2,go,400.0,550.0,1.0,,,,,,,,,cyan,diamond
0.0,3.0,3.0,0.0,5.0,5.0,837.4636690000443,4.0,1.0,phase_2,go,400.0,550.0,1.0,,,,,,,,,cyan,diamond
0.0,7.0,3.0,1.0,5.0,5.0,357.6921539997784,4.0,1.0,phase_2,stop,400.0,550.0,3.0,,,,,,,,,green,triangle
0.0,7.0,3.0,1.0,6.0,6.0,711.2646179998592,4.0,1.0,phase_2,stop,350.0,550.0,3.0,,,,,,,,,green,triangle
0.0,2.0,2.0,0.0,6.0,6.0,482.6892380001482,4.0,1.0,phase_2,go,350.0,500.0,1.0,,,,,,,,,white,flipped triangle
0.0,4.0,4.0,0.0,6.0,6.0,645.85811500001,4.0,1.0,phase_2,go,350.0,500.0,1.0,,,,,,,,,magenta,square
0.0,8.0,4.0,1.0,6.0,0.0,0.0,4.0,1.0,phase_2,stop,350.0,500.0,4.0,,,,,,,,,gray,hexagon
0.0,6.0,2.0,1.0,5.0,0.0,0.0,4.0,1.0,phase_2,stop,350.0,550.0,4.0,,,,,,,,,orange,circle
0.0,8.0,4.0,1.0,6.0,6.0,538.3161680001649,4.0,1.0,phase_2,stop,400.0,550.0,3.0,,,,,,,,,gray,hexagon
0.0,2.0,2.0,0.0,5.0,5.0,397.610504000113,4.0,1.0,phase_2,go,400.0,500.0,1.0,,,,,,,,,white,flipped triangle
0.0,1.0,1.0,0.0,6.0,6.0,384.324258000106,4.0,1.0,phase_2,go,400.0,500.0,1.0,,,,,,,,,yellow,cross
0.0,7.0,3.0,1.0,5.0,0.0,0.0,4.0,1.0,phase_2,stop,400.0,500.0,4.0,,,,,,,,,green,triangle
0.0,8.0,4.0,1.0,6.0,6.0,539.7878479998326,4.0,1.0,phase_2,stop,450.0,500.0,3.0,,,,,,,,,gray,hexagon
0.0,7.0,3.0,1.0,5.0,5.0,519.7388149999824,4.0,1.0,phase_2,stop,450.0,450.0,3.0,,,,,,,,,green,triangle
0.0,4.0,4.0,0.0,5.0,5.0,695.589628000107,4.0,1.0,phase_2,go,400.0,450.0,1.0,,,,,,,,,magenta,square
0.0,1.0,1.0,0.0,6.0,6.0,708.7438210000983,4.0,1.0,phase_2,go,400.0,450.0,1.0,,,,,,,,,yellow,cross
0.0,6.0,2.0,1.0,6.0,6.0,723.1188140003724,4.0,1.0,phase_2,go,400.0,450.0,1.0,,,,,,,,,orange,circle
0.0,7.0,3.0,1.0,5.0,0.0,0.0,4.0,1.0,phase_2,stop,400.0,450.0,4.0,,,,,,,,,green,triangle
0.0,2.0,2.0,0.0,6.0,6.0,724.2460319998827,4.0,1.0,phase_2,go,450.0,450.0,1.0,,,,,,,,,white,flipped triangle
0.0,3.0,3.0,0.0,6.0,6.0,337.3679890000858,4.0,1.0,phase_2,go,450.0,450.0,1.0,,,,,,,,,cyan,diamond
0.0,6.0,2.0,1.0,5.0,5.0,483.7977410002168,4.0,1.0,phase_2,stop,450.0,450.0,3.0,,,,,,,,,orange,circle
0.0,5.0,1.0,1.0,6.0,6.0,553.8320810001096,4.0,1.0,phase_2,go,400.0,450.0,1.0,,,,,,,,,blue,I
0.0,2.0,2.0,0.0,6.0,6.0,364.4314049997774,5.0,1.0,phase_2,go,400.0,450.0,1.0,,,,,,,,,white,flipped triangle
0.0,3.0,3.0,0.0,5.0,5.0,401.777655999922,5.0,1.0,phase_2,go,400.0,450.0,1.0,,,,,,,,,cyan,diamond
0.0,6.0,2.0,1.0,6.0,6.0,258.1919180001932,5.0,1.0,phase_2,stop,400.0,450.0,3.0,,,,,,,,,orange,circle
0.0,3.0,3.0,0.0,5.0,5.0,548.2325909997599,5.0,1.0,phase_2,go,400.0,400.0,1.0,,,,,,,,,cyan,diamond
0.0,6.0,2.0,1.0,5.0,0.0,0.0,5.0,1.0,phase_2,stop,400.0,400.0,4.0,,,,,,,,,orange,circle
0.0,5.0,1.0,1.0,6.0,0.0,0.0,5.0,1.0,phase_2,stop,450.0,400.0,4.0,,,,,,,,,blue,I
0.0,1.0,1.0,0.0,5.0,5.0,269.1866889999801,5.0,1.0,phase_2,go,450.0,450.0,1.0,,,,,,,,,yellow,cross
0.0,3.0,3.0,0.0,5.0,5.0,611.1182179997741,5.0,1.0,phase_2,go,450.0,450.0,1.0,,,,,,,,,cyan,diamond
0.0,7.0,3.0,1.0,6.0,6.0,655.5065140000806,5.0,1.0,phase_2,go,450.0,450.0,1.0,,,,,,,,,green,triangle
0.0,1.0,1.0,0.0,5.0,5.0,515.9539810001661,5.0,1.0,phase_2,go,450.0,450.0,1.0,,,,,,,,,yellow,cross
0.0,8.0,4.0,1.0,5.0,5.0,428.4436509997249,5.0,1.0,phase_2,stop,450.0,450.0,3.0,,,,,,,,,gray,hexagon
0.0,3.0,3.0,0.0,5.0,5.0,546.9174750001002,5.0,1.0,phase_2,go,400.0,450.0,1.0,,,,,,,,,cyan,diamond
0.0,4.0,4.0,0.0,6.0,6.0,585.3338100000656,5.0,1.0,phase_2,go,400.0,450.0,1.0,,,,,,,,,magenta,square
0.0,6.0,2.0,1.0,6.0,6.0,658.7077270000918,5.0,1.0,phase_2,go,400.0,450.0,1.0,,,,,,,,,orange,circle
0.0,5.0,1.0,1.0,6.0,0.0,0.0,5.0,1.0,phase_2,stop,400.0,450.0,4.0,,,,,,,,,blue,I
0.0,5.0,1.0,1.0,5.0,5.0,382.2578690001137,5.0,1.0,phase_2,stop,400.0,500.0,3.0,,,,,,,,,blue,I
0.0,2.0,2.0,0.0,6.0,6.0,864.7920490002434,5.0,1.0,phase_2,go,350.0,500.0,1.0,,,,,,,,,white,flipped triangle
0.0,1.0,1.0,0.0,5.0,5.0,653.9701110000351,5.0,1.0,phase_2,go,350.0,500.0,1.0,,,,,,,,,yellow,cross
0.0,2.0,2.0,0.0,6.0,6.0,658.0349589999059,5.0,1.0,phase_2,go,350.0,500.0,1.0,,,,,,,,,white,flipped triangle
0.0,7.0,3.0,1.0,6.0,6.0,356.1180240003523,5.0,1.0,phase_2,go,350.0,500.0,1.0,,,,,,,,,green,triangle
0.0,3.0,3.0,0.0,6.0,6.0,604.5835830000215,5.0,1.0,phase_2,go,350.0,500.0,1.0,,,,,,,,,cyan,diamond
0.0,7.0,3.0,1.0,5.0,0.0,0.0,5.0,1.0,phase_2,stop,350.0,500.0,4.0,,,,,,,,,green,triangle
0.0,6.0,2.0,1.0,5.0,5.0,576.9387090003875,5.0,1.0,phase_2,stop,400.0,500.0,3.0,,,,,,,,,orange,circle
0.0,6.0,2.0,1.0,5.0,0.0,0.0,5.0,1.0,phase_2,stop,350.0,500.0,4.0,,,,,,,,,orange,circle
0.0,2.0,2.0,0.0,6.0,6.0,660.5713519998062,5.0,1.0,phase_2,go,400.0,500.0,1.0,,,,,,,,,white,flipped triangle
0.0,2.0,2.0,0.0,5.0,5.0,586.864174999846,5.0,1.0,phase_2,go,400.0,500.0,1.0,,,,,,,,,white,flipped triangle
0.0,1.0,1.0,0.0,6.0,6.0,618.8088159997278,5.0,1.0,phase_2,go,400.0,500.0,1.0,,,,,,,,,yellow,cross
0.0,4.0,4.0,0.0,6.0,6.0,603.6143720002656,5.0,1.0,phase_2,go,400.0,500.0,1.0,,,,,,,,,magenta,square
0.0,8.0,4.0,1.0,6.0,0.0,0.0,5.0,1.0,phase_2,stop,400.0,500.0,4.0,,,,,,,,,gray,hexagon
0.0,4.0,4.0,0.0,5.0,5.0,552.4043089999395,5.0,1.0,phase_2,go,400.0,550.0,1.0,,,,,,,,,magenta,square
0.0,7.0,3.0,1.0,6.0,6.0,590.1820590001989,5.0,1.0,phase_2,stop,400.0,550.0,3.0,,,,,,,,,green,triangle
0.0,2.0,2.0,0.0,6.0,6.0,629.0837100000317,5.0,1.0,phase_2,go,400.0,500.0,1.0,,,,,,,,,white,flipped triangle
0.0,5.0,1.0,1.0,5.0,0.0,0.0,5.0,1.0,phase_2,stop,400.0,500.0,4.0,,,,,,,,,blue,I
0.0,5.0,1.0,1.0,6.0,6.0,635.1393049999388,5.0,1.0,phase_2,go,450.0,500.0,1.0,,,,,,,,,blue,I
0.0,8.0,4.0,1.0,6.0,6.0,333.2677819998935,5.0,1.0,phase_2,stop,450.0,500.0,3.0,,,,,,,,,gray,hexagon
0.0,4.0,4.0,0.0,5.0,5.0,278.1930629998896,5.0,1.0,phase_2,go,450.0,450.0,1.0,,,,,,,,,magenta,square
0.0,1.0,1.0,0.0,6.0,6.0,567.0010490002824,6.0,1.0,phase_2,go,450.0,450.0,1.0,,,,,,,,,yellow,cross
0.0,4.0,4.0,0.0,5.0,5.0,365.0092610000683,6.0,1.0,phase_2,go,450.0,450.0,1.0,,,,,,,,,magenta,square
0.0,8.0,4.0,1.0,5.0,5.0,525.0995879996481,6.0,1.0,phase_2,go,450.0,450.0,1.0,,,,,,,,,gray,hexagon
0.0,7.0,3.0,1.0,6.0,6.0,239.343048000137,6.0,1.0,phase_2,stop,450.0,450.0,3.0,,,,,,,,,green,triangle
0.0,4.0,4.0,0.0,6.0,6.0,494.8023249999096,6.0,1.0,phase_2,go,450.0,400.0,1.0,,,,,,,,,magenta,square
0.0,1.0,1.0,0.0,6.0,6.0,477.5687629999083,6.0,1.0,phase_2,go,450.0,400.0,1.0,,,,,,,,,yellow,cross
0.0,3.0,3.0,0.0,6.0,6.0,309.6581039999364,6.0,1.0,phase_2,go,450.0,400.0,1.0,,,,,,,,,cyan,diamond
0.0,4.0,4.0,0.0,5.0,5.0,540.9087980001459,6.0,1.0,phase_2,go,450.0,400.0,1.0,,,,,,,,,magenta,square
0.0,1.0,1.0,0.0,6.0,6.0,276.8516149999414,6.0,1.0,phase_2,go,450.0,400.0,1.0,,,,,,,,,yellow,cross
0.0,1.0,1.0,0.0,6.0,6.0,286.8271900001673,6.0,1.0,phase_2,go,450.0,400.0,1.0,,,,,,,,,yellow,cross
0.0,7.0,3.0,1.0,5.0,5.0,305.9953699998914,6.0,1.0,phase_2,stop,450.0,400.0,3.0,,,,,,,,,green,triangle
0.0,1.0,1.0,0.0,6.0,6.0,498.1793460001427,6.0,1.0,phase_2,go,400.0,400.0,1.0,,,,,,,,,yellow,cross
0.0,8.0,4.0,1.0,5.0,0.0,0.0,6.0,1.0,phase_2,stop,400.0,400.0,4.0,,,,,,,,,gray,hexagon
0.0,8.0,4.0,1.0,5.0,5.0,577.4254459997792,6.0,1.0,phase_2,go,450.0,400.0,1.0,,,,,,,,,gray,hexagon
0.0,7.0,3.0,1.0,6.0,0.0,0.0,6.0,1.0,phase_2,stop,450.0,400.0,4.0,,,,,,,,,green,triangle
0.0,7.0,3.0,1.0,5.0,0.0,0.0,6.0,1.0,phase_2,stop,450.0,450.0,4.0,,,,,,,,,green,triangle
0.0,2.0,2.0,0.0,5.0,5.0,708.8417999998455,6.0,1.0,phase_2,go,500.0,450.0,1.0,,,,,,,,,white,flipped triangle
0.0,5.0,1.0,1.0,6.0,6.0,529.05960399994,6.0,1.0,phase_2,go,500.0,450.0,1.0,,,,,,,,,blue,I
0.0,2.0,2.0,0.0,5.0,5.0,573.6491339998793,6.0,1.0,phase_2,go,500.0,450.0,1.0,,,,,,,,,white,flipped triangle
0.0,6.0,2.0,1.0,5.0,5.0,393.375141999968,6.0,1.0,phase_2,stop,500.0,450.0,3.0,,,,,,,,,orange,circle
0.0,7.0,3.0,1.0,5.0,0.0,0.0,6.0,1.0,phase_2,stop,450.0,450.0,4.0,,,,,,,,,green,triangle
0.0,1.0,1.0,0.0,5.0,5.0,713.1262120001338,6.0,1.0,phase_2,go,500.0,450.0,1.0,,,,,,,,,yellow,cross
0.0,2.0,2.0,0.0,6.0,6.0,308.9084590001221,6.0,1.0,phase_2,go,500.0,450.0,1.0,,,,,,,,,white,flipped triangle
0.0,5.0,1.0,1.0,6.0,6.0,389.6833620001416,6.0,1.0,phase_2,stop,500.0,450.0,3.0,,,,,,,,,blue,I
0.0,4.0,4.0,0.0,6.0,6.0,564.8189009998532,6.0,1.0,phase_2,go,500.0,400.0,1.0,,,,,,,,,magenta,square
0.0,3.0,3.0,0.0,6.0,6.0,297.0571830001063,6.0,1.0,phase_2,go,500.0,400.0,1.0,,,,,,,,,cyan,diamond
0.0,3.0,3.0,0.0,6.0,6.0,265.6206760002533,6.0,1.0,phase_2,go,500.0,400.0,1.0,,,,,,,,,cyan,diamond
0.0,3.0,3.0,0.0,5.0,5.0,289.3785549999847,6.0,1.0,phase_2,go,500.0,400.0,1.0,,,,,,,,,cyan,diamond
0.0,8.0,4.0,1.0,5.0,5.0,577.7187640001102,6.0,1.0,phase_2,stop,500.0,400.0,3.0,,,,,,,,,gray,hexagon
0.0,3.0,3.0,0.0,6.0,6.0,553.0147760000546,6.0,1.0,phase_2,go,450.0,400.0,1.0,,,,,,,,,cyan,diamond
0.0,4.0,4.0,0.0,5.0,5.0,693.5951259997637,6.0,1.0,phase_2,go,450.0,400.0,1.0,,,,,,,,,magenta,square
0.0,4.0,4.0,0.0,6.0,6.0,441.4735909999763,6.0,1.0,phase_2,go,450.0,400.0,1.0,,,,,,,,,magenta,square
0.0,5.0,1.0,1.0,6.0,6.0,493.1491979996281,6.0,1.0,phase_2,stop,450.0,400.0,3.0,,,,,,,,,blue,I
0.0,8.0,4.0,1.0,6.0,6.0,625.4464570001801,6.0,1.0,phase_2,go,450.0,350.0,1.0,,,,,,,,,gray,hexagon
0.0,2.0,2.0,0.0,5.0,5.0,615.6466219999857,6.0,1.0,phase_2,go,450.0,350.0,1.0,,,,,,,,,white,flipped triangle
0.0,6.0,2.0,1.0,5.0,5.0,490.5828030000521,6.0,1.0,phase_2,stop,450.0,350.0,3.0,,,,,,,,,orange,circle
0.0,6.0,2.0,1.0,6.0,0.0,0.0,7.0,1.0,phase_2,stop,400.0,350.0,4.0,,,,,,,,,orange,circle
0.0,2.0,2.0,0.0,5.0,5.0,541.04938699993,7.0,1.0,phase_2,go,400.0,400.0,1.0,,,,,,,,,white,flipped triangle
0.0,7.0,3.0,1.0,5.0,5.0,517.7371909999238,7.0,1.0,phase_2,stop,400.0,400.0,3.0,,,,,,,,,green,triangle
0.0,3.0,3.0,0.0,5.0,5.0,679.5069390000208,7.0,1.0,phase_2,go,350.0,400.0,1.0,,,,,,,,,cyan,diamond
0.0,5.0,1.0,1.0,6.0,0.0,0.0,7.0,1.0,phase_2,stop,350.0,400.0,4.0,,,,,,,,,blue,I
0.0,3.0,3.0,0.0,6.0,6.0,744.528113999877,7.0,1.0,phase_2,go,350.0,450.0,1.0,,,,,,,,,cyan,diamond
0.0,4.0,4.0,0.0,5.0,5.0,324.4050029998107,7.0,1.0,phase_2,go,350.0,450.0,1.0,,,,,,,,,magenta,square
0.0,6.0,2.0,1.0,6.0,6.0,287.0592250001209,7.0,1.0,phase_2,go,350.0,450.0,1.0,,,,,,,,,orange,circle
0.0,5.0,1.0,1.0,6.0,0.0,0.0,7.0,1.0,phase_2,stop,350.0,450.0,4.0,,,,,,,,,blue,I
0.0,2.0,2.0,0.0,6.0,6.0,1064.1239489996224,7.0,1.0,phase_2,go,350.0,500.0,1.0,,,,,,,,,white,flipped triangle
0.0,8.0,4.0,1.0,5.0,5.0,295.1423970002906,7.0,1.0,phase_2,stop,350.0,500.0,3.0,,,,,,,,,gray,hexagon
0.0,5.0,1.0,1.0,5.0,5.0,438.7414679999892,7.0,1.0,phase_2,stop,300.0,500.0,3.0,,,,,,,,,blue,I
0.0,4.0,4.0,0.0,6.0,6.0,735.4900350001117,7.0,1.0,phase_2,go,250.0,500.0,1.0,,,,,,,,,magenta,square
0.0,5.0,1.0,1.0,6.0,6.0,538.7397730000885,7.0,1.0,phase_2,stop,250.0,500.0,3.0,,,,,,,,,blue,I
0.0,1.0,1.0,0.0,5.0,5.0,554.8684800000956,7.0,1.0,phase_2,go,250.0,450.0,1.0,,,,,,,,,yellow,cross
0.0,6.0,2.0,1.0,6.0,0.0,0.0,7.0,1.0,phase_2,stop,250.0,450.0,4.0,,,,,,,,,orange,circle
0.0,8.0,4.0,1.0,6.0,6.0,555.6814889996531,7.0,1.0,phase_2,stop,250.0,500.0,3.0,,,,,,,,,gray,hexagon
0.0,3.0,3.0,0.0,5.0,5.0,671.2890620001417,7.0,1.0,phase_2,go,250.0,450.0,1.0,,,,,,,,,cyan,diamond
0.0,5.0,1.0,1.0,5.0,0.0,0.0,7.0,1.0,phase_2,stop,250.0,450.0,4.0,,,,,,,,,blue,I
0.0,4.0,4.0,0.0,6.0,6.0,835.242542999822,7.0,1.0,phase_2,go,300.0,450.0,1.0,,,,,,,,,magenta,square
0.0,2.0,2.0,0.0,6.0,6.0,990.9475150002436,7.0,1.0,phase_2,go,300.0,450.0,1.0,,,,,,,,,white,flipped triangle
0.0,1.0,1.0,0.0,5.0,5.0,716.1644719999458,7.0,1.0,phase_2,go,300.0,450.0,1.0,,,,,,,,,yellow,cross
0.0,7.0,3.0,1.0,6.0,0.0,0.0,7.0,1.0,phase_2,stop,300.0,450.0,4.0,,,,,,,,,green,triangle
0.0,5.0,1.0,1.0,5.0,0.0,0.0,7.0,1.0,phase_2,stop,300.0,500.0,4.0,,,,,,,,,blue,I
0.0,4.0,4.0,0.0,6.0,6.0,821.9832589998077,7.0,1.0,phase_2,go,350.0,500.0,1.0,,,,,,,,,magenta,square
0.0,7.0,3.0,1.0,5.0,0.0,0.0,7.0,1.0,phase_2,stop,350.0,500.0,4.0,,,,,,,,,green,triangle
0.0,6.0,2.0,1.0,5.0,0.0,0.0,7.0,1.0,phase_2,stop,400.0,500.0,4.0,,,,,,,,,orange,circle
0.0,8.0,4.0,1.0,5.0,0.0,0.0,7.0,1.0,phase_2,stop,450.0,500.0,4.0,,,,,,,,,gray,hexagon
0.0,2.0,2.0,0.0,6.0,6.0,749.9314649994631,7.0,1.0,phase_2,go,500.0,500.0,1.0,,,,,,,,,white,flipped triangle
0.0,1.0,1.0,0.0,5.0,5.0,764.3384450002486,7.0,1.0,phase_2,go,500.0,500.0,1.0,,,,,,,,,yellow,cross
0.0,3.0,3.0,0.0,5.0,5.0,408.0776339997101,7.0,1.0,phase_2,go,500.0,500.0,1.0,,,,,,,,,cyan,diamond
0.0,1.0,1.0,0.0,6.0,6.0,422.0968789995822,7.0,1.0,phase_2,go,500.0,500.0,1.0,,,,,,,,,yellow,cross
0.0,8.0,4.0,1.0,5.0,5.0,329.4780639998862,7.0,1.0,phase_2,stop,500.0,500.0,3.0,,,,,,,,,gray,hexagon
0.0,7.0,3.0,1.0,5.0,5.0,507.8390409998974,7.0,1.0,phase_2,stop,450.0,500.0,3.0,,,,,,,,,green,triangle
0.0,4.0,4.0,0.0,5.0,5.0,762.6364110001305,7.0,1.0,phase_2,go,400.0,500.0,1.0,,,,,,,,,magenta,square
0.0,8.0,4.0,1.0,5.0,5.0,435.675581000396,7.0,1.0,phase_2,go,400.0,500.0,1.0,,,,,,,,,gray,hexagon
0.0,4.0,4.0,0.0,5.0,5.0,457.7826249997088,8.0,1.0,phase_2,go,400.0,500.0,1.0,,,,,,,,,magenta,square
0.0,6.0,2.0,1.0,5.0,5.0,346.7569849999563,8.0,1.0,phase_2,go,400.0,500.0,1.0,,,,,,,,,orange,circle
0.0,2.0,2.0,0.0,5.0,5.0,294.8523869999917,8.0,1.0,phase_2,go,400.0,500.0,1.0,,,,,,,,,white,flipped triangle
0.0,4.0,4.0,0.0,6.0,6.0,478.729573000237,8.0,1.0,phase_2,go,400.0,500.0,1.0,,,,,,,,,magenta,square
0.0,7.0,3.0,1.0,6.0,6.0,362.7767319994746,8.0,1.0,phase_2,stop,400.0,500.0,3.0,,,,,,,,,green,triangle
0.0,6.0,2.0,1.0,5.0,5.0,550.2092799997627,8.0,1.0,phase_2,stop,400.0,450.0,3.0,,,,,,,,,orange,circle
0.0,6.0,2.0,1.0,6.0,6.0,410.231267999734,8.0,1.0,phase_2,stop,350.0,450.0,3.0,,,,,,,,,orange,circle
0.0,2.0,2.0,0.0,5.0,5.0,342.5139669998316,8.0,1.0,phase_2,go,350.0,400.0,1.0,,,,,,,,,white,flipped triangle
0.0,7.0,3.0,1.0,6.0,6.0,678.7733069995738,8.0,1.0,phase_2,go,350.0,400.0,1.0,,,,,,,,,green,triangle
0.0,3.0,3.0,0.0,6.0,6.0,449.787477999962,8.0,1.0,phase_2,go,350.0,400.0,1.0,,,,,,,,,cyan,diamond
0.0,3.0,3.0,0.0,6.0,6.0,429.9113019997094,8.0,1.0,phase_2,go,350.0,400.0,1.0,,,,,,,,,cyan,diamond
0.0,4.0,4.0,0.0,6.0,6.0,581.726754000556,8.0,1.0,phase_2,go,350.0,400.0,1.0,,,,,,,,,magenta,square
0.0,8.0,4.0,1.0,6.0,6.0,299.2991720002464,8.0,1.0,phase_2,stop,350.0,400.0,3.0,,,,,,,,,gray,hexagon
0.0,5.0,1.0,1.0,5.0,5.0,485.0189700000555,8.0,1.0,phase_2,go,350.0,350.0,1.0,,,,,,,,,blue,I
0.0,1.0,1.0,0.0,5.0,5.0,440.2069269999629,8.0,1.0,phase_2,go,350.0,350.0,1.0,,,,,,,,,yellow,cross
0.0,5.0,1.0,1.0,6.0,6.0,398.6684199999217,8.0,1.0,phase_2,stop,350.0,350.0,3.0,,,,,,,,,blue,I
0.0,7.0,3.0,1.0,5.0,0.0,0.0,8.0,1.0,phase_2,stop,350.0,300.0,4.0,,,,,,,,,green,triangle
0.0,2.0,2.0,0.0,6.0,6.0,585.693003000415,8.0,1.0,phase_2,go,400.0,300.0,1.0,,,,,,,,,white,flipped triangle
0.0,4.0,4.0,0.0,5.0,5.0,652.4497780001184,8.0,1.0,phase_2,go,400.0,300.0,1.0,,,,,,,,,magenta,square
0.0,7.0,3.0,1.0,6.0,6.0,414.3017050000708,8.0,1.0,phase_2,stop,400.0,300.0,3.0,,,,,,,,,green,triangle
0.0,5.0,1.0,1.0,5.0,5.0,278.6966769999708,8.0,1.0,phase_2,stop,400.0,250.0,3.0,,,,,,,,,blue,I
0.0,6.0,2.0,1.0,6.0,6.0,280.8934300001056,8.0,1.0,phase_2,stop,350.0,250.0,3.0,,,,,,,,,orange,circle
0.0,2.0,2.0,0.0,5.0,5.0,672.2303030001058,8.0,1.0,phase_2,go,350.0,200.0,1.0,,,,,,,,,white,flipped triangle
0.0,8.0,4.0,1.0,6.0,6.0,288.5585320000245,8.0,1.0,phase_2,go,350.0,200.0,1.0,,,,,,,,,gray,hexagon
0.0,3.0,3.0,0.0,6.0,6.0,518.3907310001814,8.0,1.0,phase_2,go,350.0,200.0,1.0,,,,,,,,,cyan,diamond
0.0,8.0,4.0,1.0,6.0,0.0,0.0,8.0,1.0,phase_2,stop,350.0,200.0,4.0,,,,,,,,,gray,hexagon
0.0,8.0,4.0,1.0,6.0,0.0,0.0,8.0,1.0,phase_2,stop,350.0,250.0,4.0,,,,,,,,,gray,hexagon
0.0,2.0,2.0,0.0,6.0,6.0,445.4160010000123,8.0,1.0,phase_2,go,350.0,300.0,1.0,,,,,,,,,white,flipped triangle
0.0,5.0,1.0,1.0,5.0,0.0,0.0,8.0,1.0,phase_2,stop,350.0,300.0,4.0,,,,,,,,,blue,I
0.0,1.0,1.0,0.0,6.0,6.0,605.1869519997126,8.0,1.0,phase_2,go,400.0,300.0,1.0,,,,,,,,,yellow,cross
0.0,2.0,2.0,0.0,5.0,5.0,647.0824070001981,8.0,1.0,phase_2,go,400.0,300.0,1.0,,,,,,,,,white,flipped triangle
0.0,4.0,4.0,0.0,5.0,5.0,522.7410340003189,8.0,1.0,phase_2,go,400.0,300.0,1.0,,,,,,,,,magenta,square
0.0,4.0,4.0,0.0,6.0,6.0,296.1108139998032,8.0,1.0,phase_2,go,400.0,300.0,1.0,,,,,,,,,magenta,square
0.0,2.0,2.0,0.0,6.0,6.0,285.9075439992011,8.0,1.0,phase_2,go,400.0,300.0,1.0,,,,,,,,,white,flipped triangle
0.0,1.0,1.0,0.0,6.0,6.0,556.8379309997908,8.0,1.0,phase_2,go,400.0,300.0,1.0,,,,,,,,,yellow,cross
0.0,5.0,1.0,1.0,6.0,6.0,325.0395929999286,8.0,1.0,phase_2,go,400.0,300.0,1.0,,,,,,,,,blue,I
0.0,5.0,1.0,1.0,7.0,3.0,2304.2724939996333,1.0,1.0,phase_3,,,,,136.0,4.0,102.0,34.0,136.0,68.0,170.0,204.0,blue,I
0.0,7.0,3.0,1.0,7.0,6.0,2239.453758000309,1.0,1.0,phase_3,,,,,102.0,3.0,170.0,34.0,68.0,204.0,136.0,102.0,green,triangle
0.0,2.0,2.0,0.0,7.0,1.0,1787.189396000031,1.0,1.0,phase_3,,,,,44.0,1.0,44.0,176.0,132.0,220.0,88.0,264.0,white,flipped triangle
0.0,6.0,2.0,1.0,7.0,2.0,1976.8047659999863,1.0,1.0,phase_3,,,,,264.0,6.0,132.0,264.0,220.0,88.0,44.0,176.0,orange,circle
0.0,5.0,1.0,1.0,7.0,4.0,1506.2152150003385,1.0,1.0,phase_3,,,,,294.0,6.0,49.0,147.0,98.0,294.0,245.0,196.0,blue,I
0.0,2.0,2.0,0.0,7.0,6.0,2012.0655430000625,1.0,1.0,phase_3,,,,,49.0,1.0,294.0,196.0,98.0,147.0,245.0,49.0,white,flipped triangle
0.0,3.0,3.0,0.0,7.0,6.0,2099.482749999879,1.0,1.0,phase_3,,,,,216.0,4.0,324.0,162.0,108.0,54.0,270.0,216.0,cyan,diamond
0.0,1.0,1.0,0.0,7.0,1.0,2626.718618000268,1.0,1.0,phase_3,,,,,117.0,3.0,117.0,156.0,195.0,234.0,39.0,78.0,yellow,cross
0.0,3.0,3.0,0.0,7.0,4.0,3300.505100999544,1.0,1.0,phase_3,,,,,220.0,5.0,176.0,88.0,44.0,220.0,264.0,132.0,cyan,diamond
0.0,8.0,4.0,1.0,7.0,6.0,1754.673673999605,1.0,1.0,phase_3,,,,,324.0,6.0,162.0,54.0,270.0,216.0,108.0,324.0,gray,hexagon
0.0,6.0,2.0,1.0,7.0,1.0,2185.852587000227,1.0,1.0,phase_3,,,,,264.0,6.0,264.0,44.0,88.0,220.0,176.0,132.0,orange,circle
0.0,8.0,4.0,1.0,7.0,1.0,3621.793969999999,1.0,1.0,phase_3,,,,,245.0,5.0,245.0,49.0,294.0,98.0,196.0,147.0,gray,hexagon
0.0,8.0,4.0,1.0,7.0,1.0,2005.9913459999734,1.0,1.0,phase_3,,,,,220.0,5.0,220.0,88.0,44.0,132.0,176.0,264.0,gray,hexagon
0.0,2.0,2.0,0.0,7.0,6.0,1062.429205000626,1.0,1.0,phase_3,,,,,54.0,1.0,162.0,108.0,270.0,324.0,216.0,54.0,white,flipped triangle
0.0,4.0,4.0,0.0,7.0,1.0,1277.6380479999716,1.0,1.0,phase_3,,,,,98.0,2.0,98.0,196.0,294.0,147.0,245.0,49.0,magenta,square
0.0,7.0,3.0,1.0,7.0,4.0,2747.11499499972,1.0,1.0,phase_3,,,,,108.0,2.0,216.0,162.0,54.0,108.0,324.0,270.0,green,triangle
0.0,7.0,3.0,1.0,7.0,1.0,3438.82975500037,1.0,1.0,phase_3,,,,,147.0,3.0,147.0,49.0,196.0,294.0,98.0,245.0,green,triangle
0.0,6.0,2.0,1.0,7.0,5.0,1534.1557199999445,1.0,1.0,phase_3,,,,,324.0,6.0,108.0,162.0,54.0,216.0,324.0,270.0,orange,circle
0.0,7.0,3.0,1.0,7.0,2.0,2397.93090799958,1.0,1.0,phase_3,,,,,147.0,3.0,98.0,147.0,49.0,245.0,196.0,294.0,green,triangle
0.0,3.0,3.0,0.0,7.0,4.0,2539.5857289995547,1.0,1.0,phase_3,,,,,102.0,3.0,204.0,68.0,170.0,102.0,136.0,34.0,cyan,diamond
0.0,4.0,4.0,0.0,7.0,2.0,1728.415677999692,2.0,1.0,phase_3,,,,,117.0,3.0,156.0,117.0,78.0,195.0,39.0,234.0,magenta,square
0.0,1.0,1.0,0.0,7.0,5.0,1944.7319279997828,2.0,1.0,phase_3,,,,,294.0,6.0,98.0,245.0,147.0,196.0,294.0,49.0,yellow,cross
0.0,2.0,2.0,0.0,7.0,1.0,2455.002751000393,2.0,1.0,phase_3,,,,,132.0,3.0,132.0,88.0,44.0,220.0,176.0,264.0,white,flipped triangle
0.0,4.0,4.0,0.0,7.0,2.0,1650.1876089996586,2.0,1.0,phase_3,,,,,220.0,5.0,44.0,220.0,132.0,176.0,88.0,264.0,magenta,square
0.0,6.0,2.0,1.0,7.0,3.0,1620.382946999598,2.0,1.0,phase_3,,,,,204.0,6.0,136.0,102.0,204.0,170.0,68.0,34.0,orange,circle
0.0,6.0,2.0,1.0,7.0,5.0,1748.0683599997064,2.0,1.0,phase_3,,,,,195.0,5.0,156.0,234.0,39.0,78.0,195.0,117.0,orange,circle
0.0,7.0,3.0,1.0,7.0,1.0,2004.8503569996683,2.0,1.0,phase_3,,,,,117.0,3.0,117.0,78.0,195.0,234.0,156.0,39.0,green,triangle
0.0,7.0,3.0,1.0,7.0,2.0,911.8796180000572,2.0,1.0,phase_3,,,,,176.0,4.0,88.0,176.0,44.0,132.0,264.0,220.0,green,triangle
0.0,1.0,1.0,0.0,7.0,5.0,2173.857367999517,2.0,1.0,phase_3,,,,,264.0,6.0,176.0,44.0,220.0,88.0,264.0,132.0,yellow,cross
0.0,1.0,1.0,0.0,7.0,1.0,4109.032850000403,2.0,1.0,phase_3,,,,,245.0,5.0,245.0,147.0,196.0,49.0,294.0,98.0,yellow,cross
0.0,3.0,3.0,0.0,7.0,5.0,1395.388013000229,2.0,1.0,phase_3,,,,,136.0,4.0,68.0,34.0,170.0,102.0,136.0,204.0,cyan,diamond
0.0,4.0,4.0,0.0,7.0,4.0,1344.0780539995103,2.0,1.0,phase_3,,,,,147.0,3.0,98.0,49.0,294.0,147.0,196.0,245.0,magenta,square
0.0,2.0,2.0,0.0,7.0,5.0,755.5209929996636,2.0,1.0,phase_3,,,,,54.0,1.0,324.0,216.0,270.0,108.0,54.0,162.0,white,flipped triangle
0.0,3.0,3.0,0.0,7.0,4.0,2801.902514000176,2.0,1.0,phase_3,,,,,147.0,3.0,294.0,49.0,245.0,147.0,196.0,98.0,cyan,diamond
0.0,5.0,1.0,1.0,7.0,6.0,3006.8545670001185,2.0,1.0,phase_3,,,,,220.0,5.0,88.0,132.0,176.0,44.0,264.0,220.0,blue,I
0.0,8.0,4.0,1.0,7.0,6.0,2471.7848319996847,2.0,1.0,phase_3,,,,,204.0,6.0,34.0,170.0,68.0,102.0,136.0,204.0,gray,hexagon
0.0,1.0,1.0,0.0,7.0,5.0,3442.7531060000547,2.0,1.0,phase_3,,,,,117.0,3.0,78.0,156.0,234.0,39.0,117.0,195.0,yellow,cross
0.0,3.0,3.0,0.0,7.0,1.0,2125.598650999564,2.0,1.0,phase_3,,,,,216.0,4.0,216.0,108.0,324.0,162.0,54.0,270.0,cyan,diamond
0.0,2.0,2.0,0.0,7.0,4.0,2694.1657360002864,2.0,1.0,phase_3,,,,,102.0,3.0,68.0,170.0,136.0,102.0,204.0,34.0,white,flipped triangle
0.0,5.0,1.0,1.0,7.0,3.0,2182.009295999705,2.0,1.0,phase_3,,,,,195.0,5.0,78.0,117.0,195.0,156.0,39.0,234.0,blue,I
0.0,6.0,2.0,1.0,7.0,2.0,2622.992289000649,3.0,1.0,phase_3,,,,,270.0,5.0,324.0,270.0,162.0,54.0,108.0,216.0,orange,circle
0.0,3.0,3.0,0.0,7.0,2.0,2016.7175540000244,3.0,1.0,phase_3,,,,,88.0,2.0,132.0,88.0,220.0,44.0,264.0,176.0,cyan,diamond
0.0,2.0,2.0,0.0,7.0,6.0,2588.0693610006347,3.0,1.0,phase_3,,,,,102.0,3.0,34.0,204.0,136.0,170.0,68.0,102.0,white,flipped triangle
0.0,4.0,4.0,0.0,7.0,5.0,3618.543041000521,3.0,1.0,phase_3,,,,,216.0,4.0,162.0,270.0,324.0,108.0,216.0,54.0,magenta,square
0.0,6.0,2.0,1.0,7.0,6.0,1119.4596720006302,3.0,1.0,phase_3,,,,,294.0,6.0,98.0,196.0,147.0,245.0,49.0,294.0,orange,circle
0.0,5.0,1.0,1.0,7.0,3.0,2338.614203000361,3.0,1.0,phase_3,,,,,176.0,4.0,264.0,88.0,176.0,220.0,132.0,44.0,blue,I
0.0,8.0,4.0,1.0,7.0,2.0,0.3245369998694,3.0,1.0,phase_3,,,,,156.0,4.0,39.0,156.0,234.0,117.0,195.0,78.0,gray,hexagon
0.0,4.0,4.0,0.0,7.0,3.0,2203.684127000088,3.0,1.0,phase_3,,,,,132.0,3.0,264.0,44.0,132.0,220.0,176.0,88.0,magenta,square
0.0,7.0,3.0,1.0,7.0,6.0,1748.4912099998835,3.0,1.0,phase_3,,,,,162.0,3.0,108.0,216.0,270.0,54.0,324.0,162.0,green,triangle
0.0,5.0,1.0,1.0,7.0,1.0,1336.0568139996758,3.0,1.0,phase_3,,,,,204.0,6.0,204.0,34.0,170.0,102.0,136.0,68.0,blue,I
0.0,7.0,3.0,1.0,7.0,5.0,902.6040270000522,3.0,1.0,phase_3,,,,,156.0,4.0,234.0,78.0,39.0,117.0,156.0,195.0,green,triangle
0.0,5.0,1.0,1.0,7.0,1.0,2493.808096999601,3.0,1.0,phase_3,,,,,324.0,6.0,324.0,270.0,162.0,108.0,54.0,216.0,blue,I
0.0,1.0,1.0,0.0,7.0,2.0,1575.4430710003362,3.0,1.0,phase_3,,,,,170.0,5.0,136.0,170.0,204.0,102.0,68.0,34.0,yellow,cross
0.0,4.0,4.0,0.0,7.0,4.0,966.579369000101,3.0,1.0,phase_3,,,,,117.0,3.0,195.0,78.0,156.0,117.0,39.0,234.0,magenta,square
0.0,5.0,1.0,1.0,7.0,2.0,2002.4751270002525,3.0,1.0,phase_3,,,,,195.0,5.0,117.0,195.0,156.0,78.0,234.0,39.0,blue,I
0.0,4.0,4.0,0.0,7.0,4.0,1597.7173040000707,3.0,1.0,phase_3,,,,,102.0,3.0,68.0,204.0,34.0,102.0,136.0,170.0,magenta,square
0.0,8.0,4.0,1.0,7.0,5.0,1274.315325000316,3.0,1.0,phase_3,,,,,147.0,3.0,245.0,196.0,49.0,294.0,147.0,98.0,gray,hexagon
0.0,7.0,3.0,1.0,7.0,1.0,2328.433632999804,3.0,1.0,phase_3,,,,,136.0,4.0,136.0,170.0,68.0,204.0,102.0,34.0,green,triangle
0.0,5.0,1.0,1.0,7.0,2.0,1154.899770999691,3.0,1.0,phase_3,,,,,245.0,5.0,196.0,245.0,147.0,294.0,49.0,98.0,blue,I
0.0,5.0,1.0,1.0,7.0,5.0,1541.2897779997363,3.0,1.0,phase_3,,,,,216.0,4.0,54.0,270.0,324.0,162.0,216.0,108.0,blue,I
0.0,2.0,2.0,0.0,7.0,3.0,2650.741573999767,4.0,1.0,phase_3,,,,,117.0,3.0,39.0,156.0,117.0,78.0,195.0,234.0,white,flipped triangle
0.0,2.0,2.0,0.0,7.0,2.0,3381.3467469999523,4.0,1.0,phase_3,,,,,147.0,3.0,294.0,147.0,49.0,245.0,98.0,196.0,white,flipped triangle
0.0,3.0,3.0,0.0,7.0,2.0,884.884797000268,4.0,1.0,phase_3,,,,,78.0,2.0,195.0,78.0,156.0,39.0,117.0,234.0,cyan,diamond
0.0,3.0,3.0,0.0,7.0,5.0,1750.0162269998327,4.0,1.0,phase_3,,,,,147.0,3.0,294.0,245.0,98.0,49.0,147.0,196.0,cyan,diamond
0.0,8.0,4.0,1.0,7.0,2.0,1076.4036050004506,4.0,1.0,phase_3,,,,,324.0,6.0,108.0,324.0,216.0,270.0,54.0,162.0,gray,hexagon
0.0,8.0,4.0,1.0,7.0,6.0,2126.397343999997,4.0,1.0,phase_3,,,,,264.0,6.0,88.0,176.0,220.0,44.0,132.0,264.0,gray,hexagon
0.0,3.0,3.0,0.0,7.0,1.0,1699.3344410002464,4.0,1.0,phase_3,,,,,117.0,3.0,117.0,156.0,39.0,78.0,234.0,195.0,cyan,diamond
0.0,8.0,4.0,1.0,7.0,1.0,2428.972686999259,4.0,1.0,phase_3,,,,,170.0,5.0,170.0,136.0,204.0,34.0,102.0,68.0,gray,hexagon
0.0,8.0,4.0,1.0,7.0,6.0,1018.8297690001491,4.0,1.0,phase_3,,,,,156.0,4.0,234.0,117.0,195.0,39.0,78.0,156.0,gray,hexagon
0.0,4.0,4.0,0.0,7.0,2.0,833.9475900002071,4.0,1.0,phase_3,,,,,102.0,3.0,34.0,102.0,170.0,136.0,68.0,204.0,magenta,square
0.0,6.0,2.0,1.0,7.0,5.0,2392.2990860000937,4.0,1.0,phase_3,,,,,196.0,4.0,294.0,245.0,49.0,98.0,196.0,147.0,orange,circle
0.0,1.0,1.0,0.0,7.0,3.0,1314.0815869992366,4.0,1.0,phase_3,,,,,170.0,5.0,102.0,204.0,170.0,34.0,68.0,136.0,yellow,cross
0.0,1.0,1.0,0.0,7.0,4.0,961.9848789998288,4.0,1.0,phase_3,,,,,176.0,4.0,44.0,220.0,132.0,176.0,264.0,88.0,yellow,cross
0.0,6.0,2.0,1.0,7.0,2.0,3184.9015690004308,4.0,1.0,phase_3,,,,,156.0,4.0,39.0,156.0,195.0,234.0,78.0,117.0,orange,circle
0.0,1.0,1.0,0.0,7.0,5.0,4080.982220999431,4.0,1.0,phase_3,,,,,216.0,4.0,162.0,108.0,324.0,54.0,216.0,270.0,yellow,cross
0.0,6.0,2.0,1.0,7.0,3.0,1956.120358999215,4.0,1.0,phase_3,,,,,204.0,6.0,34.0,68.0,204.0,102.0,170.0,136.0,orange,circle
0.0,7.0,3.0,1.0,7.0,2.0,1601.4325430005556,4.0,1.0,phase_3,,,,,132.0,3.0,88.0,132.0,220.0,176.0,264.0,44.0,green,triangle
0.0,4.0,4.0,0.0,7.0,5.0,990.4010899999776,4.0,1.0,phase_3,,,,,54.0,1.0,270.0,324.0,162.0,216.0,54.0,108.0,magenta,square
0.0,1.0,1.0,0.0,7.0,2.0,1608.067406000373,4.0,1.0,phase_3,,,,,54.0,1.0,270.0,54.0,162.0,216.0,108.0,324.0,yellow,cross
0.0,2.0,2.0,0.0,7.0,5.0,2317.6991049995195,4.0,1.0,phase_3,,,,,117.0,3.0,78.0,156.0,234.0,39.0,117.0,195.0,white,flipped triangle
