raw_reward_magnitude,stim_reward,stepwise_reward_magnitude,paired_with_stopping,stim_location,response,reaction_time,block,num_trial_presentations,which_phase,stop_signal_trial_type,left_SSD,right_SSD,accuracy,chosen_bidding_amount,chosen_bidding_level,possible_bid_1,possible_bid_2,possible_bid_3,possible_bid_4,possible_bid_5,possible_bid_6,color_text,shape_text
205.0,7.0,3.0,1.0,2.0,2.0,391.4126419999775,1.0,1.0,phase_1,,,,,,,,,,,,,blue,flipped triangle
399.0,8.0,4.0,1.0,2.0,2.0,371.4367829998082,1.0,1.0,phase_1,,,,,,,,,,,,,green,cross
199.0,7.0,3.0,1.0,4.0,4.0,457.1624310001425,1.0,1.0,phase_1,,,,,,,,,,,,,blue,flipped triangle
402.0,8.0,4.0,1.0,2.0,2.0,315.95796800002057,1.0,1.0,phase_1,,,,,,,,,,,,,green,cross
48.0,1.0,1.0,0.0,1.0,1.0,310.6050740000228,1.0,1.0,phase_1,,,,,,,,,,,,,white,square
0.0,3.0,0.0,0.0,4.0,4.0,395.2141580000443,1.0,1.0,phase_1,,,,,,,,,,,,,yellow,hexagon
423.0,4.0,4.0,0.0,4.0,4.0,472.5667059999523,1.0,2.0,phase_1,,,,,,,,,,,,,cyan,I
89.0,2.0,2.0,0.0,2.0,2.0,396.9084610000664,1.0,1.0,phase_1,,,,,,,,,,,,,magenta,triangle
200.0,7.0,3.0,1.0,2.0,2.0,436.4937929999541,1.0,1.0,phase_1,,,,,,,,,,,,,blue,flipped triangle
40.0,5.0,1.0,1.0,2.0,2.0,311.8318740000632,1.0,1.0,phase_1,,,,,,,,,,,,,orange,circle
0.0,7.0,0.0,1.0,4.0,4.0,326.5330449999055,1.0,1.0,phase_1,,,,,,,,,,,,,blue,flipped triangle
175.0,3.0,3.0,0.0,4.0,4.0,414.8242430001119,1.0,1.0,phase_1,,,,,,,,,,,,,yellow,hexagon
399.0,4.0,4.0,0.0,1.0,1.0,345.387429000084,1.0,1.0,phase_1,,,,,,,,,,,,,cyan,I
177.0,7.0,3.0,1.0,3.0,3.0,371.2504820000504,1.0,1.0,phase_1,,,,,,,,,,,,,blue,flipped triangle
192.0,7.0,3.0,1.0,1.0,1.0,433.9946179998151,1.0,1.0,phase_1,,,,,,,,,,,,,blue,flipped triangle
391.0,4.0,4.0,0.0,3.0,3.0,314.9398279999786,1.0,1.0,phase_1,,,,,,,,,,,,,cyan,I
418.0,8.0,4.0,1.0,3.0,3.0,491.3398690000576,1.0,1.0,phase_1,,,,,,,,,,,,,green,cross
389.0,8.0,4.0,1.0,3.0,3.0,463.3388449999529,1.0,1.0,phase_1,,,,,,,,,,,,,green,cross
0.0,2.0,0.0,0.0,1.0,1.0,576.7245439999442,1.0,1.0,phase_1,,,,,,,,,,,,,magenta,triangle
412.0,8.0,4.0,1.0,4.0,4.0,412.7188180000303,1.0,1.0,phase_1,,,,,,,,,,,,,green,cross
0.0,3.0,0.0,0.0,3.0,3.0,331.5763389998665,1.0,1.0,phase_1,,,,,,,,,,,,,yellow,hexagon
382.0,8.0,4.0,1.0,3.0,3.0,358.460027999854,1.0,1.0,phase_1,,,,,,,,,,,,,green,cross
418.0,4.0,4.0,0.0,1.0,1.0,376.4472069999556,1.0,1.0,phase_1,,,,,,,,,,,,,cyan,I
376.0,4.0,4.0,0.0,4.0,4.0,412.5107540000954,1.0,1.0,phase_1,,,,,,,,,,,,,cyan,I
207.0,7.0,3.0,1.0,3.0,3.0,365.1903360000688,1.0,1.0,phase_1,,,,,,,,,,,,,blue,flipped triangle
187.0,7.0,3.0,1.0,2.0,2.0,410.2741420001621,1.0,1.0,phase_1,,,,,,,,,,,,,blue,flipped triangle
200.0,3.0,3.0,0.0,1.0,1.0,338.8216430000739,1.0,1.0,phase_1,,,,,,,,,,,,,yellow,hexagon
103.0,6.0,2.0,1.0,4.0,4.0,316.8130000001383,1.0,1.0,phase_1,,,,,,,,,,,,,gray,diamond
47.0,1.0,1.0,0.0,2.0,2.0,396.1983789999976,1.0,1.0,phase_1,,,,,,,,,,,,,white,square
0.0,2.0,0.0,0.0,1.0,1.0,389.1283339999063,1.0,1.0,phase_1,,,,,,,,,,,,,magenta,triangle
79.0,2.0,2.0,0.0,3.0,3.0,412.9401390000566,1.0,1.0,phase_1,,,,,,,,,,,,,magenta,triangle
37.0,1.0,1.0,0.0,4.0,4.0,348.5846539999784,1.0,1.0,phase_1,,,,,,,,,,,,,white,square
101.0,6.0,2.0,1.0,3.0,3.0,347.1409809999386,1.0,1.0,phase_1,,,,,,,,,,,,,gray,diamond
120.0,6.0,2.0,1.0,4.0,4.0,336.9524210002055,1.0,1.0,phase_1,,,,,,,,,,,,,gray,diamond
0.0,4.0,0.0,0.0,1.0,1.0,295.651868999812,1.0,1.0,phase_1,,,,,,,,,,,,,cyan,I
383.0,8.0,4.0,1.0,2.0,2.0,408.7043280001126,1.0,1.0,phase_1,,,,,,,,,,,,,green,cross
103.0,2.0,2.0,0.0,3.0,3.0,388.7568169998303,1.0,1.0,phase_1,,,,,,,,,,,,,magenta,triangle
217.0,7.0,3.0,1.0,2.0,2.0,393.4815299999172,1.0,1.0,phase_1,,,,,,,,,,,,,blue,flipped triangle
34.0,1.0,1.0,0.0,1.0,1.0,421.9439789999342,1.0,1.0,phase_1,,,,,,,,,,,,,white,square
106.0,6.0,2.0,1.0,2.0,2.0,362.9235589999098,1.0,1.0,phase_1,,,,,,,,,,,,,gray,diamond
194.0,3.0,3.0,0.0,2.0,2.0,396.6751150001073,1.0,1.0,phase_1,,,,,,,,,,,,,yellow,hexagon
67.0,5.0,1.0,1.0,4.0,4.0,369.2114539999238,1.0,1.0,phase_1,,,,,,,,,,,,,orange,circle
55.0,1.0,1.0,0.0,4.0,4.0,350.8376150000458,1.0,1.0,phase_1,,,,,,,,,,,,,white,square
35.0,5.0,1.0,1.0,4.0,4.0,395.4551719998562,1.0,1.0,phase_1,,,,,,,,,,,,,orange,circle
0.0,1.0,0.0,0.0,1.0,1.0,400.5084160000933,1.0,1.0,phase_1,,,,,,,,,,,,,white,square
59.0,5.0,1.0,1.0,4.0,4.0,527.6347590001933,1.0,1.0,phase_1,,,,,,,,,,,,,orange,circle
181.0,7.0,3.0,1.0,1.0,1.0,355.3594390000398,1.0,1.0,phase_1,,,,,,,,,,,,,blue,flipped triangle
0.0,2.0,0.0,0.0,1.0,1.0,466.2364470000284,1.0,1.0,phase_1,,,,,,,,,,,,,magenta,triangle
0.0,5.0,0.0,1.0,3.0,3.0,482.4520219999613,1.0,1.0,phase_1,,,,,,,,,,,,,orange,circle
0.0,4.0,0.0,0.0,4.0,4.0,327.3158320000675,1.0,1.0,phase_1,,,,,,,,,,,,,cyan,I
70.0,5.0,1.0,1.0,4.0,4.0,387.8830250000646,1.0,1.0,phase_1,,,,,,,,,,,,,orange,circle
0.0,3.0,0.0,0.0,1.0,1.0,485.5028780000339,1.0,1.0,phase_1,,,,,,,,,,,,,yellow,hexagon
410.0,4.0,4.0,0.0,4.0,4.0,473.5000329999366,1.0,1.0,phase_1,,,,,,,,,,,,,cyan,I
397.0,4.0,4.0,0.0,1.0,1.0,459.0108699999291,1.0,1.0,phase_1,,,,,,,,,,,,,cyan,I
96.0,2.0,2.0,0.0,1.0,1.0,448.0176990000473,1.0,1.0,phase_1,,,,,,,,,,,,,magenta,triangle
32.0,1.0,1.0,0.0,1.0,1.0,647.7610569997978,1.0,1.0,phase_1,,,,,,,,,,,,,white,square
199.0,3.0,3.0,0.0,1.0,1.0,407.6523960000031,1.0,1.0,phase_1,,,,,,,,,,,,,yellow,hexagon
213.0,3.0,3.0,0.0,1.0,1.0,484.5645059999697,1.0,1.0,phase_1,,,,,,,,,,,,,yellow,hexagon
105.0,2.0,2.0,0.0,4.0,4.0,398.5786410000855,1.0,1.0,phase_1,,,,,,,,,,,,,magenta,triangle
214.0,3.0,3.0,0.0,2.0,2.0,548.5574879999149,1.0,1.0,phase_1,,,,,,,,,,,,,yellow,hexagon
0.0,6.0,0.0,1.0,3.0,3.0,463.3237610000833,1.0,1.0,phase_1,,,,,,,,,,,,,gray,diamond
39.0,5.0,1.0,1.0,4.0,4.0,350.377109999954,1.0,1.0,phase_1,,,,,,,,,,,,,orange,circle
112.0,6.0,2.0,1.0,3.0,3.0,355.1259430000755,1.0,1.0,phase_1,,,,,,,,,,,,,gray,diamond
411.0,4.0,4.0,0.0,2.0,2.0,513.6764439998842,1.0,1.0,phase_1,,,,,,,,,,,,,cyan,I
379.0,8.0,4.0,1.0,1.0,1.0,441.6943580001771,1.0,1.0,phase_1,,,,,,,,,,,,,green,cross
209.0,3.0,3.0,0.0,1.0,1.0,355.6326719999561,1.0,1.0,phase_1,,,,,,,,,,,,,yellow,hexagon
204.0,7.0,3.0,1.0,4.0,4.0,444.7983210000075,1.0,1.0,phase_1,,,,,,,,,,,,,blue,flipped triangle
110.0,6.0,2.0,1.0,1.0,1.0,578.796341000043,1.0,1.0,phase_1,,,,,,,,,,,,,gray,diamond
113.0,6.0,2.0,1.0,2.0,2.0,589.8468150001008,1.0,1.0,phase_1,,,,,,,,,,,,,gray,diamond
103.0,6.0,2.0,1.0,3.0,3.0,566.1659840000084,1.0,1.0,phase_1,,,,,,,,,,,,,gray,diamond
89.0,6.0,2.0,1.0,3.0,3.0,529.684350000025,1.0,1.0,phase_1,,,,,,,,,,,,,gray,diamond
412.0,4.0,4.0,0.0,3.0,3.0,530.4461270000047,1.0,1.0,phase_1,,,,,,,,,,,,,cyan,I
124.0,6.0,2.0,1.0,3.0,3.0,530.5622309999762,1.0,1.0,phase_1,,,,,,,,,,,,,gray,diamond
415.0,4.0,4.0,0.0,3.0,3.0,316.9255769998926,1.0,1.0,phase_1,,,,,,,,,,,,,cyan,I
209.0,7.0,3.0,1.0,2.0,2.0,324.4219480000083,1.0,1.0,phase_1,,,,,,,,,,,,,blue,flipped triangle
381.0,8.0,4.0,1.0,3.0,3.0,344.7179760000836,1.0,1.0,phase_1,,,,,,,,,,,,,green,cross
33.0,5.0,1.0,1.0,3.0,3.0,486.6914050001014,1.0,1.0,phase_1,,,,,,,,,,,,,orange,circle
0.0,7.0,0.0,1.0,2.0,2.0,495.0495460000184,1.0,1.0,phase_1,,,,,,,,,,,,,blue,flipped triangle
414.0,4.0,4.0,0.0,3.0,3.0,335.0044710000475,1.0,1.0,phase_1,,,,,,,,,,,,,cyan,I
0.0,1.0,0.0,0.0,1.0,1.0,405.2158930001042,1.0,1.0,phase_1,,,,,,,,,,,,,white,square
84.0,2.0,2.0,0.0,4.0,4.0,383.6164280000957,1.0,1.0,phase_1,,,,,,,,,,,,,magenta,triangle
63.0,1.0,1.0,0.0,3.0,3.0,364.9582409998402,1.0,1.0,phase_1,,,,,,,,,,,,,white,square
70.0,5.0,1.0,1.0,3.0,3.0,336.7682890000196,1.0,1.0,phase_1,,,,,,,,,,,,,orange,circle
100.0,2.0,2.0,0.0,4.0,4.0,332.3597390001396,1.0,1.0,phase_1,,,,,,,,,,,,,magenta,triangle
107.0,6.0,2.0,1.0,1.0,1.0,318.8844789999621,1.0,1.0,phase_1,,,,,,,,,,,,,gray,diamond
397.0,8.0,4.0,1.0,4.0,4.0,347.315695999896,1.0,1.0,phase_1,,,,,,,,,,,,,green,cross
180.0,3.0,3.0,0.0,4.0,4.0,347.8195049999613,1.0,1.0,phase_1,,,,,,,,,,,,,yellow,hexagon
0.0,1.0,0.0,0.0,2.0,2.0,372.0375439997951,1.0,1.0,phase_1,,,,,,,,,,,,,white,square
90.0,2.0,2.0,0.0,4.0,4.0,368.1005680000453,1.0,1.0,phase_1,,,,,,,,,,,,,magenta,triangle
121.0,6.0,2.0,1.0,4.0,4.0,406.030304000069,1.0,1.0,phase_1,,,,,,,,,,,,,gray,diamond
90.0,6.0,2.0,1.0,2.0,2.0,513.3685210000749,1.0,1.0,phase_1,,,,,,,,,,,,,gray,diamond
35.0,1.0,1.0,0.0,4.0,4.0,442.1124059999783,1.0,2.0,phase_1,,,,,,,,,,,,,white,square
0.0,4.0,0.0,0.0,1.0,1.0,474.6628540001438,1.0,1.0,phase_1,,,,,,,,,,,,,cyan,I
70.0,1.0,1.0,0.0,3.0,3.0,397.990357000026,1.0,1.0,phase_1,,,,,,,,,,,,,white,square
420.0,8.0,4.0,1.0,2.0,2.0,359.6932880000167,1.0,1.0,phase_1,,,,,,,,,,,,,green,cross
109.0,2.0,2.0,0.0,1.0,1.0,525.1676489999682,1.0,1.0,phase_1,,,,,,,,,,,,,magenta,triangle
385.0,4.0,4.0,0.0,1.0,1.0,470.3234290000182,1.0,1.0,phase_1,,,,,,,,,,,,,cyan,I
110.0,2.0,2.0,0.0,1.0,1.0,376.7077130000871,1.0,1.0,phase_1,,,,,,,,,,,,,magenta,triangle
0.0,2.0,0.0,0.0,4.0,4.0,414.165672000081,1.0,1.0,phase_1,,,,,,,,,,,,,magenta,triangle
376.0,8.0,4.0,1.0,4.0,4.0,365.1815079999778,1.0,1.0,phase_1,,,,,,,,,,,,,green,cross
117.0,6.0,2.0,1.0,2.0,2.0,460.4087420000269,2.0,1.0,phase_1,,,,,,,,,,,,,gray,diamond
121.0,2.0,2.0,0.0,3.0,3.0,365.9219549999761,2.0,1.0,phase_1,,,,,,,,,,,,,magenta,triangle
423.0,8.0,4.0,1.0,2.0,2.0,335.1693029999296,2.0,1.0,phase_1,,,,,,,,,,,,,green,cross
94.0,2.0,2.0,0.0,3.0,3.0,356.3470550000147,2.0,1.0,phase_1,,,,,,,,,,,,,magenta,triangle
0.0,1.0,0.0,0.0,1.0,1.0,507.81145800010563,2.0,1.0,phase_1,,,,,,,,,,,,,white,square
54.0,1.0,1.0,0.0,2.0,2.0,374.8162710000997,2.0,1.0,phase_1,,,,,,,,,,,,,white,square
117.0,2.0,2.0,0.0,1.0,1.0,309.606697999925,2.0,1.0,phase_1,,,,,,,,,,,,,magenta,triangle
71.0,5.0,1.0,1.0,4.0,4.0,352.3965770000359,2.0,1.0,phase_1,,,,,,,,,,,,,orange,circle
204.0,3.0,3.0,0.0,3.0,3.0,298.6046440000791,2.0,1.0,phase_1,,,,,,,,,,,,,yellow,hexagon
420.0,8.0,4.0,1.0,1.0,1.0,499.6119269999326,2.0,1.0,phase_1,,,,,,,,,,,,,green,cross
0.0,8.0,0.0,1.0,2.0,2.0,414.3648389999725,2.0,1.0,phase_1,,,,,,,,,,,,,green,cross
103.0,2.0,2.0,0.0,1.0,1.0,399.579906000099,2.0,1.0,phase_1,,,,,,,,,,,,,magenta,triangle
406.0,4.0,4.0,0.0,3.0,3.0,403.8689699998485,2.0,1.0,phase_1,,,,,,,,,,,,,cyan,I
0.0,3.0,0.0,0.0,1.0,1.0,428.5194270000829,2.0,1.0,phase_1,,,,,,,,,,,,,yellow,hexagon
412.0,4.0,4.0,0.0,3.0,3.0,563.7831639999149,2.0,1.0,phase_1,,,,,,,,,,,,,cyan,I
79.0,6.0,2.0,1.0,4.0,4.0,478.4583230000407,2.0,1.0,phase_1,,,,,,,,,,,,,gray,diamond
219.0,7.0,3.0,1.0,1.0,1.0,483.0603240000073,2.0,2.0,phase_1,,,,,,,,,,,,,blue,flipped triangle
0.0,4.0,0.0,0.0,4.0,4.0,458.7355380001554,2.0,1.0,phase_1,,,,,,,,,,,,,cyan,I
0.0,6.0,0.0,1.0,2.0,2.0,408.0538390001038,2.0,1.0,phase_1,,,,,,,,,,,,,gray,diamond
40.0,1.0,1.0,0.0,4.0,4.0,457.841142999996,2.0,1.0,phase_1,,,,,,,,,,,,,white,square
110.0,2.0,2.0,0.0,4.0,4.0,438.6142129999371,2.0,1.0,phase_1,,,,,,,,,,,,,magenta,triangle
42.0,1.0,1.0,0.0,1.0,1.0,406.3860490000479,2.0,1.0,phase_1,,,,,,,,,,,,,white,square
406.0,8.0,4.0,1.0,1.0,1.0,366.4284989999942,2.0,1.0,phase_1,,,,,,,,,,,,,green,cross
35.0,1.0,1.0,0.0,3.0,3.0,399.2237129998557,2.0,1.0,phase_1,,,,,,,,,,,,,white,square
402.0,4.0,4.0,0.0,2.0,2.0,356.4610379999067,2.0,1.0,phase_1,,,,,,,,,,,,,cyan,I
0.0,4.0,0.0,0.0,4.0,4.0,558.272130999967,2.0,1.0,phase_1,,,,,,,,,,,,,cyan,I
34.0,5.0,1.0,1.0,4.0,4.0,430.5296610000368,2.0,1.0,phase_1,,,,,,,,,,,,,orange,circle
0.0,1.0,0.0,0.0,2.0,2.0,341.7457400000785,2.0,1.0,phase_1,,,,,,,,,,,,,white,square
0.0,5.0,0.0,1.0,3.0,3.0,393.7893229999645,2.0,1.0,phase_1,,,,,,,,,,,,,orange,circle
0.0,4.0,0.0,0.0,3.0,3.0,465.7780499999262,2.0,1.0,phase_1,,,,,,,,,,,,,cyan,I
175.0,7.0,3.0,1.0,2.0,2.0,378.1141760000537,2.0,1.0,phase_1,,,,,,,,,,,,,blue,flipped triangle
43.0,5.0,1.0,1.0,2.0,2.0,432.6876879999872,2.0,1.0,phase_1,,,,,,,,,,,,,orange,circle
29.0,5.0,1.0,1.0,2.0,2.0,350.9233009999661,2.0,1.0,phase_1,,,,,,,,,,,,,orange,circle
101.0,2.0,2.0,0.0,2.0,2.0,381.4311050000469,2.0,1.0,phase_1,,,,,,,,,,,,,magenta,triangle
199.0,3.0,3.0,0.0,2.0,2.0,387.250885999947,2.0,1.0,phase_1,,,,,,,,,,,,,yellow,hexagon
38.0,5.0,1.0,1.0,4.0,4.0,404.7095139999328,2.0,1.0,phase_1,,,,,,,,,,,,,orange,circle
0.0,3.0,0.0,0.0,3.0,3.0,460.5805410001267,2.0,1.0,phase_1,,,,,,,,,,,,,yellow,hexagon
0.0,8.0,0.0,1.0,2.0,2.0,434.2383519999657,2.0,1.0,phase_1,,,,,,,,,,,,,green,cross
80.0,6.0,2.0,1.0,1.0,1.0,365.4170569998314,2.0,1.0,phase_1,,,,,,,,,,,,,gray,diamond
86.0,2.0,2.0,0.0,3.0,3.0,398.798817999932,2.0,1.0,phase_1,,,,,,,,,,,,,magenta,triangle
219.0,3.0,3.0,0.0,1.0,1.0,431.0813049999069,2.0,1.0,phase_1,,,,,,,,,,,,,yellow,hexagon
185.0,7.0,3.0,1.0,3.0,3.0,418.2210390001728,2.0,1.0,phase_1,,,,,,,,,,,,,blue,flipped triangle
0.0,7.0,0.0,1.0,4.0,4.0,348.7082690000989,2.0,1.0,phase_1,,,,,,,,,,,,,blue,flipped triangle
113.0,6.0,2.0,1.0,1.0,1.0,383.8729740000417,2.0,1.0,phase_1,,,,,,,,,,,,,gray,diamond
113.0,2.0,2.0,0.0,4.0,4.0,453.764615999944,2.0,1.0,phase_1,,,,,,,,,,,,,magenta,triangle
381.0,4.0,4.0,0.0,1.0,1.0,374.3885240000963,2.0,1.0,phase_1,,,,,,,,,,,,,cyan,I
405.0,4.0,4.0,0.0,2.0,2.0,352.6436359998115,2.0,1.0,phase_1,,,,,,,,,,,,,cyan,I
399.0,4.0,4.0,0.0,3.0,3.0,373.9851479999743,2.0,1.0,phase_1,,,,,,,,,,,,,cyan,I
43.0,1.0,1.0,0.0,4.0,4.0,336.948490000168,2.0,1.0,phase_1,,,,,,,,,,,,,white,square
32.0,5.0,1.0,1.0,3.0,3.0,481.3330649999443,2.0,1.0,phase_1,,,,,,,,,,,,,orange,circle
177.0,3.0,3.0,0.0,1.0,1.0,500.1503749999756,2.0,1.0,phase_1,,,,,,,,,,,,,yellow,hexagon
198.0,3.0,3.0,0.0,2.0,2.0,290.4657959998076,2.0,1.0,phase_1,,,,,,,,,,,,,yellow,hexagon
32.0,5.0,1.0,1.0,2.0,2.0,560.49205599993,2.0,1.0,phase_1,,,,,,,,,,,,,orange,circle
70.0,1.0,1.0,0.0,4.0,4.0,455.8670779999829,2.0,1.0,phase_1,,,,,,,,,,,,,white,square
94.0,6.0,2.0,1.0,4.0,4.0,426.1856659998102,2.0,1.0,phase_1,,,,,,,,,,,,,gray,diamond
113.0,2.0,2.0,0.0,1.0,1.0,657.8874890001316,2.0,1.0,phase_1,,,,,,,,,,,,,magenta,triangle
412.0,4.0,4.0,0.0,4.0,4.0,423.0825370000275,2.0,1.0,phase_1,,,,,,,,,,,,,cyan,I
27.0,1.0,1.0,0.0,4.0,4.0,611.7620130000887,2.0,1.0,phase_1,,,,,,,,,,,,,white,square
37.0,5.0,1.0,1.0,1.0,1.0,590.8789869999964,2.0,1.0,phase_1,,,,,,,,,,,,,orange,circle
199.0,3.0,3.0,0.0,3.0,3.0,612.0867290001115,2.0,1.0,phase_1,,,,,,,,,,,,,yellow,hexagon
116.0,2.0,2.0,0.0,2.0,2.0,476.5727689998584,2.0,1.0,phase_1,,,,,,,,,,,,,magenta,triangle
0.0,3.0,0.0,0.0,4.0,4.0,444.3915150000066,2.0,1.0,phase_1,,,,,,,,,,,,,yellow,hexagon
207.0,3.0,3.0,0.0,4.0,4.0,443.1615610001245,2.0,1.0,phase_1,,,,,,,,,,,,,yellow,hexagon
57.0,5.0,1.0,1.0,4.0,4.0,429.5493869999518,2.0,1.0,phase_1,,,,,,,,,,,,,orange,circle
0.0,6.0,0.0,1.0,1.0,1.0,488.6350599999787,2.0,1.0,phase_1,,,,,,,,,,,,,gray,diamond
180.0,7.0,3.0,1.0,1.0,1.0,501.26539500001854,2.0,1.0,phase_1,,,,,,,,,,,,,blue,flipped triangle
33.0,5.0,1.0,1.0,2.0,2.0,438.6259890000019,2.0,1.0,phase_1,,,,,,,,,,,,,orange,circle
47.0,5.0,1.0,1.0,1.0,1.0,604.2698559999735,2.0,1.0,phase_1,,,,,,,,,,,,,orange,circle
412.0,8.0,4.0,1.0,1.0,1.0,395.2874179999526,2.0,1.0,phase_1,,,,,,,,,,,,,green,cross
0.0,5.0,0.0,1.0,1.0,1.0,340.3023480000229,2.0,1.0,phase_1,,,,,,,,,,,,,orange,circle
187.0,3.0,3.0,0.0,4.0,4.0,448.3753609999894,2.0,1.0,phase_1,,,,,,,,,,,,,yellow,hexagon
101.0,6.0,2.0,1.0,4.0,4.0,546.8572180000137,2.0,1.0,phase_1,,,,,,,,,,,,,gray,diamond
115.0,6.0,2.0,1.0,3.0,3.0,442.927735000012,2.0,1.0,phase_1,,,,,,,,,,,,,gray,diamond
51.0,5.0,1.0,1.0,3.0,3.0,338.0648320001,2.0,1.0,phase_1,,,,,,,,,,,,,orange,circle
421.0,8.0,4.0,1.0,4.0,4.0,411.1403100000643,2.0,1.0,phase_1,,,,,,,,,,,,,green,cross
57.0,5.0,1.0,1.0,1.0,1.0,951.8042449999484,2.0,1.0,phase_1,,,,,,,,,,,,,orange,circle
82.0,2.0,2.0,0.0,3.0,3.0,673.9748790000704,2.0,1.0,phase_1,,,,,,,,,,,,,magenta,triangle
67.0,5.0,1.0,1.0,1.0,1.0,592.7787560001434,2.0,1.0,phase_1,,,,,,,,,,,,,orange,circle
0.0,8.0,0.0,1.0,1.0,1.0,722.4526329998753,2.0,1.0,phase_1,,,,,,,,,,,,,green,cross
406.0,4.0,4.0,0.0,1.0,1.0,509.0533420000156,2.0,1.0,phase_1,,,,,,,,,,,,,cyan,I
181.0,3.0,3.0,0.0,3.0,3.0,485.9431140000652,2.0,1.0,phase_1,,,,,,,,,,,,,yellow,hexagon
416.0,4.0,4.0,0.0,2.0,2.0,333.1812999999783,2.0,1.0,phase_1,,,,,,,,,,,,,cyan,I
0.0,5.0,0.0,1.0,3.0,3.0,370.4242599999361,2.0,1.0,phase_1,,,,,,,,,,,,,orange,circle
217.0,3.0,3.0,0.0,3.0,3.0,406.720562999908,2.0,1.0,phase_1,,,,,,,,,,,,,yellow,hexagon
77.0,2.0,2.0,0.0,3.0,3.0,357.9295719998754,2.0,1.0,phase_1,,,,,,,,,,,,,magenta,triangle
212.0,7.0,3.0,1.0,4.0,4.0,499.7318299999733,2.0,1.0,phase_1,,,,,,,,,,,,,blue,flipped triangle
112.0,2.0,2.0,0.0,2.0,2.0,455.4001450001124,2.0,1.0,phase_1,,,,,,,,,,,,,magenta,triangle
0.0,7.0,0.0,1.0,4.0,4.0,471.0990330002005,2.0,1.0,phase_1,,,,,,,,,,,,,blue,flipped triangle
36.0,1.0,1.0,0.0,1.0,1.0,444.9585259999367,2.0,1.0,phase_1,,,,,,,,,,,,,white,square
67.0,5.0,1.0,1.0,3.0,3.0,361.114427000075,2.0,1.0,phase_1,,,,,,,,,,,,,orange,circle
26.0,1.0,1.0,0.0,4.0,4.0,358.1779419998838,2.0,1.0,phase_1,,,,,,,,,,,,,white,square
33.0,1.0,1.0,0.0,3.0,3.0,556.9556499999635,2.0,1.0,phase_1,,,,,,,,,,,,,white,square
406.0,8.0,4.0,1.0,2.0,2.0,389.3088720001287,2.0,1.0,phase_1,,,,,,,,,,,,,green,cross
406.0,4.0,4.0,0.0,3.0,3.0,451.7247589999442,2.0,1.0,phase_1,,,,,,,,,,,,,cyan,I
96.0,6.0,2.0,1.0,4.0,4.0,393.369795000126,2.0,1.0,phase_1,,,,,,,,,,,,,gray,diamond
212.0,3.0,3.0,0.0,1.0,1.0,362.0886230000906,2.0,1.0,phase_1,,,,,,,,,,,,,yellow,hexagon
0.0,6.0,0.0,1.0,4.0,4.0,422.3989519998667,2.0,1.0,phase_1,,,,,,,,,,,,,gray,diamond
86.0,2.0,2.0,0.0,1.0,1.0,383.1868589998066,2.0,2.0,phase_1,,,,,,,,,,,,,magenta,triangle
0.0,4.0,0.0,0.0,4.0,4.0,405.5808950001847,2.0,1.0,phase_1,,,,,,,,,,,,,cyan,I
224.0,7.0,3.0,1.0,3.0,3.0,467.2624799998175,2.0,1.0,phase_1,,,,,,,,,,,,,blue,flipped triangle
391.0,8.0,4.0,1.0,2.0,2.0,338.25344599995327,3.0,1.0,phase_1,,,,,,,,,,,,,green,cross
75.0,2.0,2.0,0.0,3.0,3.0,346.6586210001878,3.0,1.0,phase_1,,,,,,,,,,,,,magenta,triangle
0.0,3.0,0.0,0.0,4.0,4.0,343.5310400000162,3.0,1.0,phase_1,,,,,,,,,,,,,yellow,hexagon
409.0,8.0,4.0,1.0,3.0,3.0,352.0632400000067,3.0,1.0,phase_1,,,,,,,,,,,,,green,cross
104.0,6.0,2.0,1.0,2.0,2.0,436.0940399999435,3.0,1.0,phase_1,,,,,,,,,,,,,gray,diamond
0.0,5.0,0.0,1.0,3.0,3.0,340.5723860000762,3.0,1.0,phase_1,,,,,,,,,,,,,orange,circle
415.0,8.0,4.0,1.0,1.0,1.0,328.6371439999129,3.0,1.0,phase_1,,,,,,,,,,,,,green,cross
410.0,8.0,4.0,1.0,2.0,2.0,296.8719410000631,3.0,1.0,phase_1,,,,,,,,,,,,,green,cross
48.0,5.0,1.0,1.0,3.0,3.0,317.7713410000251,3.0,1.0,phase_1,,,,,,,,,,,,,orange,circle
0.0,2.0,0.0,0.0,4.0,4.0,304.0967499998714,3.0,1.0,phase_1,,,,,,,,,,,,,magenta,triangle
42.0,5.0,1.0,1.0,1.0,1.0,453.330330999961,3.0,1.0,phase_1,,,,,,,,,,,,,orange,circle
0.0,5.0,0.0,1.0,4.0,4.0,324.4956969999748,3.0,1.0,phase_1,,,,,,,,,,,,,orange,circle
80.0,2.0,2.0,0.0,4.0,4.0,345.9339190001174,3.0,1.0,phase_1,,,,,,,,,,,,,magenta,triangle
0.0,1.0,0.0,0.0,3.0,3.0,339.056027999959,3.0,1.0,phase_1,,,,,,,,,,,,,white,square
0.0,7.0,0.0,1.0,4.0,4.0,396.5891919999649,3.0,1.0,phase_1,,,,,,,,,,,,,blue,flipped triangle
221.0,3.0,3.0,0.0,1.0,1.0,348.131543999898,3.0,1.0,phase_1,,,,,,,,,,,,,yellow,hexagon
201.0,3.0,3.0,0.0,3.0,3.0,410.2464699999473,3.0,1.0,phase_1,,,,,,,,,,,,,yellow,hexagon
84.0,6.0,2.0,1.0,4.0,4.0,355.2746799998658,3.0,1.0,phase_1,,,,,,,,,,,,,gray,diamond
0.0,5.0,0.0,1.0,1.0,1.0,441.4932970000791,3.0,1.0,phase_1,,,,,,,,,,,,,orange,circle
397.0,8.0,4.0,1.0,4.0,4.0,395.5561679999846,3.0,1.0,phase_1,,,,,,,,,,,,,green,cross
67.0,1.0,1.0,0.0,3.0,3.0,283.5881469998185,3.0,1.0,phase_1,,,,,,,,,,,,,white,square
185.0,3.0,3.0,0.0,3.0,3.0,382.7596329999778,3.0,1.0,phase_1,,,,,,,,,,,,,yellow,hexagon
198.0,3.0,3.0,0.0,3.0,3.0,388.4629239998958,3.0,1.0,phase_1,,,,,,,,,,,,,yellow,hexagon
64.0,1.0,1.0,0.0,1.0,1.0,978.6981349998314,3.0,2.0,phase_1,,,,,,,,,,,,,white,square
55.0,5.0,1.0,1.0,2.0,2.0,452.6675980000618,3.0,1.0,phase_1,,,,,,,,,,,,,orange,circle
0.0,6.0,0.0,1.0,4.0,4.0,391.0237840000263,3.0,1.0,phase_1,,,,,,,,,,,,,gray,diamond
38.0,1.0,1.0,0.0,2.0,2.0,359.6901470000375,3.0,1.0,phase_1,,,,,,,,,,,,,white,square
68.0,5.0,1.0,1.0,1.0,1.0,392.8736499999559,3.0,1.0,phase_1,,,,,,,,,,,,,orange,circle
193.0,3.0,3.0,0.0,3.0,3.0,608.0386999999519,3.0,1.0,phase_1,,,,,,,,,,,,,yellow,hexagon
400.0,4.0,4.0,0.0,4.0,4.0,376.7015520002132,3.0,1.0,phase_1,,,,,,,,,,,,,cyan,I
0.0,3.0,0.0,0.0,2.0,2.0,407.9399429999739,3.0,1.0,phase_1,,,,,,,,,,,,,yellow,hexagon
194.0,7.0,3.0,1.0,1.0,1.0,595.5934879998495,3.0,1.0,phase_1,,,,,,,,,,,,,blue,flipped triangle
63.0,5.0,1.0,1.0,1.0,1.0,321.3357999998152,3.0,1.0,phase_1,,,,,,,,,,,,,orange,circle
105.0,6.0,2.0,1.0,1.0,1.0,342.4582540001211,3.0,1.0,phase_1,,,,,,,,,,,,,gray,diamond
116.0,6.0,2.0,1.0,3.0,3.0,484.7632200001044,3.0,2.0,phase_1,,,,,,,,,,,,,gray,diamond
187.0,7.0,3.0,1.0,3.0,3.0,364.750420999826,3.0,1.0,phase_1,,,,,,,,,,,,,blue,flipped triangle
0.0,4.0,0.0,0.0,4.0,4.0,356.6759089999323,3.0,1.0,phase_1,,,,,,,,,,,,,cyan,I
0.0,1.0,0.0,0.0,4.0,4.0,395.0911349998023,3.0,1.0,phase_1,,,,,,,,,,,,,white,square
198.0,7.0,3.0,1.0,4.0,4.0,363.1427640000311,3.0,1.0,phase_1,,,,,,,,,,,,,blue,flipped triangle
199.0,7.0,3.0,1.0,3.0,3.0,359.5593260001806,3.0,1.0,phase_1,,,,,,,,,,,,,blue,flipped triangle
94.0,2.0,2.0,0.0,2.0,2.0,317.4452989999281,3.0,1.0,phase_1,,,,,,,,,,,,,magenta,triangle
79.0,2.0,2.0,0.0,2.0,2.0,325.8293870001125,3.0,1.0,phase_1,,,,,,,,,,,,,magenta,triangle
115.0,2.0,2.0,0.0,2.0,2.0,335.4010820000894,3.0,1.0,phase_1,,,,,,,,,,,,,magenta,triangle
110.0,2.0,2.0,0.0,2.0,2.0,281.0545810000349,3.0,1.0,phase_1,,,,,,,,,,,,,magenta,triangle
391.0,8.0,4.0,1.0,1.0,1.0,472.805161999986,3.0,1.0,phase_1,,,,,,,,,,,,,green,cross
379.0,4.0,4.0,0.0,1.0,1.0,454.1097129999798,3.0,1.0,phase_1,,,,,,,,,,,,,cyan,I
405.0,8.0,4.0,1.0,4.0,4.0,404.9006340001142,3.0,1.0,phase_1,,,,,,,,,,,,,green,cross
0.0,1.0,0.0,0.0,4.0,4.0,379.5071790000293,3.0,1.0,phase_1,,,,,,,,,,,,,white,square
209.0,3.0,3.0,0.0,1.0,1.0,330.4230909998296,3.0,1.0,phase_1,,,,,,,,,,,,,yellow,hexagon
0.0,7.0,0.0,1.0,1.0,1.0,372.8820839996842,3.0,1.0,phase_1,,,,,,,,,,,,,blue,flipped triangle
203.0,7.0,3.0,1.0,1.0,1.0,324.9175079999986,3.0,1.0,phase_1,,,,,,,,,,,,,blue,flipped triangle
397.0,4.0,4.0,0.0,2.0,2.0,496.9220859998131,3.0,1.0,phase_1,,,,,,,,,,,,,cyan,I
206.0,7.0,3.0,1.0,4.0,4.0,357.4435209998228,3.0,1.0,phase_1,,,,,,,,,,,,,blue,flipped triangle
109.0,6.0,2.0,1.0,1.0,1.0,390.7829609997861,3.0,1.0,phase_1,,,,,,,,,,,,,gray,diamond
26.0,5.0,1.0,1.0,1.0,1.0,318.8670319996163,3.0,3.0,phase_1,,,,,,,,,,,,,orange,circle
0.0,6.0,0.0,1.0,1.0,1.0,617.2514790000605,3.0,1.0,phase_1,,,,,,,,,,,,,gray,diamond
104.0,2.0,2.0,0.0,2.0,2.0,479.0692289998333,3.0,1.0,phase_1,,,,,,,,,,,,,magenta,triangle
0.0,7.0,0.0,1.0,1.0,1.0,477.2779360000641,3.0,1.0,phase_1,,,,,,,,,,,,,blue,flipped triangle
106.0,2.0,2.0,0.0,4.0,4.0,646.1880330002714,3.0,1.0,phase_1,,,,,,,,,,,,,magenta,triangle
217.0,3.0,3.0,0.0,2.0,2.0,647.505478000312,3.0,1.0,phase_1,,,,,,,,,,,,,yellow,hexagon
181.0,3.0,3.0,0.0,2.0,2.0,938.1754850001016,3.0,1.0,phase_1,,,,,,,,,,,,,yellow,hexagon
54.0,5.0,1.0,1.0,1.0,1.0,693.3049269996445,3.0,1.0,phase_1,,,,,,,,,,,,,orange,circle
0.0,7.0,0.0,1.0,4.0,4.0,443.5964229996898,3.0,1.0,phase_1,,,,,,,,,,,,,blue,flipped triangle
79.0,6.0,2.0,1.0,2.0,2.0,551.5307040000152,3.0,1.0,phase_1,,,,,,,,,,,,,gray,diamond
67.0,1.0,1.0,0.0,3.0,3.0,390.0753190000614,3.0,1.0,phase_1,,,,,,,,,,,,,white,square
94.0,6.0,2.0,1.0,4.0,4.0,367.0928470000945,3.0,1.0,phase_1,,,,,,,,,,,,,gray,diamond
211.0,7.0,3.0,1.0,3.0,3.0,381.7855460001738,3.0,1.0,phase_1,,,,,,,,,,,,,blue,flipped triangle
0.0,2.0,0.0,0.0,3.0,3.0,298.4444079997956,3.0,1.0,phase_1,,,,,,,,,,,,,magenta,triangle
221.0,7.0,3.0,1.0,2.0,2.0,359.0597630000047,3.0,1.0,phase_1,,,,,,,,,,,,,blue,flipped triangle
0.0,6.0,0.0,1.0,3.0,3.0,559.4976980000865,3.0,1.0,phase_1,,,,,,,,,,,,,gray,diamond
189.0,3.0,3.0,0.0,2.0,2.0,375.9004200001072,3.0,1.0,phase_1,,,,,,,,,,,,,yellow,hexagon
420.0,4.0,4.0,0.0,1.0,1.0,351.7951750000065,3.0,1.0,phase_1,,,,,,,,,,,,,cyan,I
110.0,6.0,2.0,1.0,4.0,4.0,467.5510769998254,3.0,1.0,phase_1,,,,,,,,,,,,,gray,diamond
0.0,8.0,0.0,1.0,4.0,4.0,540.1684569997087,3.0,1.0,phase_1,,,,,,,,,,,,,green,cross
390.0,8.0,4.0,1.0,4.0,4.0,384.8586129997784,3.0,1.0,phase_1,,,,,,,,,,,,,green,cross
115.0,6.0,2.0,1.0,2.0,2.0,376.0375219999332,3.0,1.0,phase_1,,,,,,,,,,,,,gray,diamond
213.0,7.0,3.0,1.0,4.0,4.0,475.7338710001022,3.0,1.0,phase_1,,,,,,,,,,,,,blue,flipped triangle
0.0,2.0,0.0,0.0,1.0,1.0,360.0369270002375,3.0,1.0,phase_1,,,,,,,,,,,,,magenta,triangle
0.0,6.0,0.0,1.0,3.0,3.0,442.5309249995734,3.0,1.0,phase_1,,,,,,,,,,,,,gray,diamond
204.0,7.0,3.0,1.0,3.0,3.0,336.1110309997457,3.0,1.0,phase_1,,,,,,,,,,,,,blue,flipped triangle
380.0,4.0,4.0,0.0,2.0,2.0,549.4778450001832,3.0,1.0,phase_1,,,,,,,,,,,,,cyan,I
0.0,8.0,0.0,1.0,4.0,4.0,602.7361900000869,3.0,1.0,phase_1,,,,,,,,,,,,,green,cross
86.0,6.0,2.0,1.0,1.0,1.0,516.557536000164,3.0,1.0,phase_1,,,,,,,,,,,,,gray,diamond
385.0,8.0,4.0,1.0,1.0,1.0,566.1466199999268,3.0,1.0,phase_1,,,,,,,,,,,,,green,cross
383.0,4.0,4.0,0.0,2.0,2.0,509.6337439999843,3.0,1.0,phase_1,,,,,,,,,,,,,cyan,I
0.0,5.0,0.0,1.0,1.0,1.0,396.1997180003891,3.0,1.0,phase_1,,,,,,,,,,,,,orange,circle
181.0,7.0,3.0,1.0,3.0,3.0,377.0435129999896,3.0,1.0,phase_1,,,,,,,,,,,,,blue,flipped triangle
211.0,3.0,3.0,0.0,3.0,3.0,796.4405689999694,3.0,1.0,phase_1,,,,,,,,,,,,,yellow,hexagon
406.0,8.0,4.0,1.0,4.0,4.0,317.9489170001943,3.0,1.0,phase_1,,,,,,,,,,,,,green,cross
211.0,3.0,3.0,0.0,2.0,2.0,843.1894729997111,3.0,1.0,phase_1,,,,,,,,,,,,,yellow,hexagon
29.0,1.0,1.0,0.0,1.0,1.0,390.0367169999299,3.0,1.0,phase_1,,,,,,,,,,,,,white,square
62.0,5.0,1.0,1.0,2.0,2.0,634.3292550000115,3.0,1.0,phase_1,,,,,,,,,,,,,orange,circle
412.0,8.0,4.0,1.0,2.0,2.0,880.916993000028,3.0,1.0,phase_1,,,,,,,,,,,,,green,cross
409.0,4.0,4.0,0.0,2.0,2.0,559.3709489999128,3.0,1.0,phase_1,,,,,,,,,,,,,cyan,I
409.0,8.0,4.0,1.0,1.0,1.0,386.7612859999099,3.0,1.0,phase_1,,,,,,,,,,,,,green,cross
399.0,8.0,4.0,1.0,2.0,2.0,432.5687710002057,3.0,1.0,phase_1,,,,,,,,,,,,,green,cross
0.0,8.0,0.0,1.0,4.0,4.0,463.9813129997492,3.0,1.0,phase_1,,,,,,,,,,,,,green,cross
0.0,8.0,0.0,1.0,4.0,4.0,712.7920150001046,3.0,1.0,phase_1,,,,,,,,,,,,,green,cross
77.0,6.0,2.0,1.0,1.0,1.0,418.0899580001096,3.0,1.0,phase_1,,,,,,,,,,,,,gray,diamond
414.0,8.0,4.0,1.0,3.0,3.0,369.977684999867,3.0,1.0,phase_1,,,,,,,,,,,,,green,cross
0.0,2.0,0.0,0.0,1.0,1.0,457.0168170002944,4.0,1.0,phase_1,,,,,,,,,,,,,magenta,triangle
100.0,6.0,2.0,1.0,2.0,2.0,386.7469209999399,4.0,1.0,phase_1,,,,,,,,,,,,,gray,diamond
217.0,7.0,3.0,1.0,4.0,4.0,366.9948790002308,4.0,1.0,phase_1,,,,,,,,,,,,,blue,flipped triangle
57.0,1.0,1.0,0.0,2.0,2.0,478.2951959996353,4.0,1.0,phase_1,,,,,,,,,,,,,white,square
382.0,4.0,4.0,0.0,4.0,4.0,342.1751880000556,4.0,1.0,phase_1,,,,,,,,,,,,,cyan,I
67.0,1.0,1.0,0.0,2.0,2.0,249.6785020002789,4.0,1.0,phase_1,,,,,,,,,,,,,white,square
409.0,4.0,4.0,0.0,3.0,3.0,318.1117369999811,4.0,1.0,phase_1,,,,,,,,,,,,,cyan,I
82.0,6.0,2.0,1.0,2.0,2.0,415.0076370001443,4.0,1.0,phase_1,,,,,,,,,,,,,gray,diamond
0.0,8.0,0.0,1.0,2.0,2.0,318.8429649999307,4.0,1.0,phase_1,,,,,,,,,,,,,green,cross
83.0,6.0,2.0,1.0,1.0,1.0,287.9854719999457,4.0,1.0,phase_1,,,,,,,,,,,,,gray,diamond
382.0,8.0,4.0,1.0,1.0,1.0,394.4437199997992,4.0,1.0,phase_1,,,,,,,,,,,,,green,cross
36.0,5.0,1.0,1.0,3.0,3.0,442.6828109999405,4.0,1.0,phase_1,,,,,,,,,,,,,orange,circle
0.0,7.0,0.0,1.0,3.0,3.0,442.3333299996557,4.0,1.0,phase_1,,,,,,,,,,,,,blue,flipped triangle
0.0,2.0,0.0,0.0,4.0,4.0,365.3352439996524,4.0,1.0,phase_1,,,,,,,,,,,,,magenta,triangle
393.0,4.0,4.0,0.0,4.0,4.0,362.4356010000156,4.0,2.0,phase_1,,,,,,,,,,,,,cyan,I
0.0,3.0,0.0,0.0,1.0,1.0,444.6120050001809,4.0,1.0,phase_1,,,,,,,,,,,,,yellow,hexagon
54.0,1.0,1.0,0.0,1.0,1.0,417.5852380003562,4.0,1.0,phase_1,,,,,,,,,,,,,white,square
0.0,7.0,0.0,1.0,3.0,3.0,376.836768999965,4.0,1.0,phase_1,,,,,,,,,,,,,blue,flipped triangle
120.0,2.0,2.0,0.0,1.0,1.0,432.4269130001994,4.0,1.0,phase_1,,,,,,,,,,,,,magenta,triangle
89.0,2.0,2.0,0.0,4.0,4.0,558.2456029997047,4.0,2.0,phase_1,,,,,,,,,,,,,magenta,triangle
62.0,5.0,1.0,1.0,2.0,2.0,612.6801559998967,4.0,1.0,phase_1,,,,,,,,,,,,,orange,circle
0.0,8.0,0.0,1.0,2.0,2.0,444.6671620003144,4.0,1.0,phase_1,,,,,,,,,,,,,green,cross
205.0,3.0,3.0,0.0,4.0,4.0,446.6122509998058,4.0,1.0,phase_1,,,,,,,,,,,,,yellow,hexagon
192.0,3.0,3.0,0.0,4.0,4.0,455.7642839999971,4.0,1.0,phase_1,,,,,,,,,,,,,yellow,hexagon
107.0,2.0,2.0,0.0,4.0,4.0,390.4864850001104,4.0,1.0,phase_1,,,,,,,,,,,,,magenta,triangle
51.0,1.0,1.0,0.0,2.0,2.0,450.6698219997815,4.0,1.0,phase_1,,,,,,,,,,,,,white,square
420.0,4.0,4.0,0.0,1.0,1.0,405.9928420001597,4.0,1.0,phase_1,,,,,,,,,,,,,cyan,I
180.0,3.0,3.0,0.0,4.0,4.0,486.8534479996924,4.0,1.0,phase_1,,,,,,,,,,,,,yellow,hexagon
189.0,3.0,3.0,0.0,2.0,2.0,446.9111120001798,4.0,1.0,phase_1,,,,,,,,,,,,,yellow,hexagon
387.0,4.0,4.0,0.0,4.0,4.0,425.3446610000537,4.0,1.0,phase_1,,,,,,,,,,,,,cyan,I
380.0,8.0,4.0,1.0,3.0,3.0,647.5085120000585,4.0,1.0,phase_1,,,,,,,,,,,,,green,cross
393.0,8.0,4.0,1.0,3.0,3.0,437.3931089999132,4.0,1.0,phase_1,,,,,,,,,,,,,green,cross
51.0,5.0,1.0,1.0,1.0,1.0,449.6751609999592,4.0,1.0,phase_1,,,,,,,,,,,,,orange,circle
411.0,8.0,4.0,1.0,3.0,3.0,519.9381970001014,4.0,1.0,phase_1,,,,,,,,,,,,,green,cross
59.0,1.0,1.0,0.0,3.0,3.0,559.0484220001599,4.0,1.0,phase_1,,,,,,,,,,,,,white,square
115.0,2.0,2.0,0.0,3.0,3.0,441.7370129999654,4.0,1.0,phase_1,,,,,,,,,,,,,magenta,triangle
211.0,7.0,3.0,1.0,1.0,1.0,602.116443000341,4.0,1.0,phase_1,,,,,,,,,,,,,blue,flipped triangle
382.0,4.0,4.0,0.0,4.0,4.0,591.6749210000489,4.0,1.0,phase_1,,,,,,,,,,,,,cyan,I
57.0,1.0,1.0,0.0,2.0,2.0,415.989356999944,4.0,1.0,phase_1,,,,,,,,,,,,,white,square
187.0,3.0,3.0,0.0,3.0,3.0,809.1999230000511,4.0,1.0,phase_1,,,,,,,,,,,,,yellow,hexagon
62.0,1.0,1.0,0.0,1.0,1.0,493.5577579999517,4.0,1.0,phase_1,,,,,,,,,,,,,white,square
199.0,7.0,3.0,1.0,4.0,4.0,416.5103029999955,4.0,1.0,phase_1,,,,,,,,,,,,,blue,flipped triangle
110.0,6.0,2.0,1.0,1.0,1.0,441.7970760000571,4.0,1.0,phase_1,,,,,,,,,,,,,gray,diamond
210.0,7.0,3.0,1.0,3.0,3.0,579.1506139999001,4.0,1.0,phase_1,,,,,,,,,,,,,blue,flipped triangle
204.0,3.0,3.0,0.0,4.0,4.0,616.121447000296,4.0,1.0,phase_1,,,,,,,,,,,,,yellow,hexagon
68.0,1.0,1.0,0.0,2.0,2.0,526.5260099999978,4.0,1.0,phase_1,,,,,,,,,,,,,white,square
377.0,8.0,4.0,1.0,3.0,3.0,487.6910499997393,4.0,1.0,phase_1,,,,,,,,,,,,,green,cross
206.0,3.0,3.0,0.0,4.0,4.0,888.1121889999122,4.0,1.0,phase_1,,,,,,,,,,,,,yellow,hexagon
39.0,1.0,1.0,0.0,1.0,1.0,647.8104170000734,4.0,1.0,phase_1,,,,,,,,,,,,,white,square
0.0,4.0,0.0,0.0,3.0,3.0,424.5628660000875,4.0,2.0,phase_1,,,,,,,,,,,,,cyan,I
101.0,2.0,2.0,0.0,1.0,1.0,339.1007270001864,4.0,1.0,phase_1,,,,,,,,,,,,,magenta,triangle
180.0,7.0,3.0,1.0,4.0,4.0,346.4732779998485,4.0,1.0,phase_1,,,,,,,,,,,,,blue,flipped triangle
214.0,7.0,3.0,1.0,1.0,1.0,349.3471080000745,4.0,1.0,phase_1,,,,,,,,,,,,,blue,flipped triangle
89.0,6.0,2.0,1.0,3.0,3.0,533.0158399997345,4.0,1.0,phase_1,,,,,,,,,,,,,gray,diamond
0.0,3.0,0.0,0.0,1.0,1.0,500.0129670002025,4.0,1.0,phase_1,,,,,,,,,,,,,yellow,hexagon
390.0,4.0,4.0,0.0,3.0,3.0,365.5195439996532,4.0,1.0,phase_1,,,,,,,,,,,,,cyan,I
201.0,7.0,3.0,1.0,4.0,4.0,403.9098739999645,4.0,1.0,phase_1,,,,,,,,,,,,,blue,flipped triangle
0.0,2.0,0.0,0.0,3.0,3.0,482.1390789998077,4.0,1.0,phase_1,,,,,,,,,,,,,magenta,triangle
35.0,5.0,1.0,1.0,3.0,3.0,367.572810999718,4.0,1.0,phase_1,,,,,,,,,,,,,orange,circle
389.0,4.0,4.0,0.0,1.0,1.0,476.7757190002157,4.0,1.0,phase_1,,,,,,,,,,,,,cyan,I
32.0,1.0,1.0,0.0,3.0,3.0,522.4805040002138,4.0,1.0,phase_1,,,,,,,,,,,,,white,square
70.0,5.0,1.0,1.0,3.0,3.0,497.1556959999361,4.0,1.0,phase_1,,,,,,,,,,,,,orange,circle
71.0,1.0,1.0,0.0,3.0,3.0,769.7916590000204,4.0,1.0,phase_1,,,,,,,,,,,,,white,square
0.0,1.0,0.0,0.0,1.0,1.0,740.8492380000098,4.0,1.0,phase_1,,,,,,,,,,,,,white,square
71.0,5.0,1.0,1.0,2.0,2.0,663.1733789999998,4.0,1.0,phase_1,,,,,,,,,,,,,orange,circle
421.0,4.0,4.0,0.0,2.0,2.0,354.9900520001756,4.0,2.0,phase_1,,,,,,,,,,,,,cyan,I
0.0,6.0,0.0,1.0,2.0,2.0,355.7236130000092,4.0,1.0,phase_1,,,,,,,,,,,,,gray,diamond
71.0,1.0,1.0,0.0,2.0,2.0,418.6602229997334,4.0,1.0,phase_1,,,,,,,,,,,,,white,square
105.0,2.0,2.0,0.0,2.0,2.0,853.8965669999925,4.0,1.0,phase_1,,,,,,,,,,,,,magenta,triangle
33.0,1.0,1.0,0.0,4.0,4.0,486.3792520000061,4.0,1.0,phase_1,,,,,,,,,,,,,white,square
377.0,4.0,4.0,0.0,4.0,4.0,389.6964460000163,4.0,1.0,phase_1,,,,,,,,,,,,,cyan,I
189.0,7.0,3.0,1.0,2.0,2.0,423.6777510000138,4.0,1.0,phase_1,,,,,,,,,,,,,blue,flipped triangle
54.0,5.0,1.0,1.0,3.0,3.0,555.1670750000994,4.0,1.0,phase_1,,,,,,,,,,,,,orange,circle
86.0,6.0,2.0,1.0,3.0,3.0,442.477914000392,4.0,1.0,phase_1,,,,,,,,,,,,,gray,diamond
0.0,8.0,0.0,1.0,1.0,1.0,488.4512819999145,4.0,1.0,phase_1,,,,,,,,,,,,,green,cross
391.0,4.0,4.0,0.0,2.0,2.0,493.6188390001916,4.0,1.0,phase_1,,,,,,,,,,,,,cyan,I
416.0,8.0,4.0,1.0,4.0,4.0,369.1168310001558,4.0,1.0,phase_1,,,,,,,,,,,,,green,cross
83.0,2.0,2.0,0.0,3.0,3.0,423.1894510003258,4.0,1.0,phase_1,,,,,,,,,,,,,magenta,triangle
209.0,7.0,3.0,1.0,2.0,2.0,389.8040120002406,4.0,1.0,phase_1,,,,,,,,,,,,,blue,flipped triangle
70.0,1.0,1.0,0.0,4.0,4.0,383.1517300000087,4.0,1.0,phase_1,,,,,,,,,,,,,white,square
210.0,3.0,3.0,0.0,1.0,1.0,400.2949460000309,4.0,1.0,phase_1,,,,,,,,,,,,,yellow,hexagon
105.0,6.0,2.0,1.0,3.0,3.0,369.2313020001165,4.0,1.0,phase_1,,,,,,,,,,,,,gray,diamond
0.0,5.0,0.0,1.0,2.0,2.0,444.2925670000477,4.0,1.0,phase_1,,,,,,,,,,,,,orange,circle
64.0,5.0,1.0,1.0,4.0,4.0,457.5941860002785,4.0,1.0,phase_1,,,,,,,,,,,,,orange,circle
400.0,8.0,4.0,1.0,1.0,1.0,644.4210310000926,4.0,1.0,phase_1,,,,,,,,,,,,,green,cross
0.0,4.0,0.0,0.0,3.0,3.0,428.4380909998617,4.0,1.0,phase_1,,,,,,,,,,,,,cyan,I
224.0,3.0,3.0,0.0,4.0,4.0,764.0744550003546,4.0,1.0,phase_1,,,,,,,,,,,,,yellow,hexagon
189.0,7.0,3.0,1.0,1.0,1.0,795.7606350000788,4.0,1.0,phase_1,,,,,,,,,,,,,blue,flipped triangle
198.0,7.0,3.0,1.0,1.0,1.0,590.3106230002777,4.0,1.0,phase_1,,,,,,,,,,,,,blue,flipped triangle
27.0,5.0,1.0,1.0,2.0,2.0,580.3511839999373,4.0,1.0,phase_1,,,,,,,,,,,,,orange,circle
193.0,7.0,3.0,1.0,2.0,2.0,546.5611099998569,4.0,1.0,phase_1,,,,,,,,,,,,,blue,flipped triangle
75.0,6.0,2.0,1.0,2.0,2.0,514.5543700000417,4.0,1.0,phase_1,,,,,,,,,,,,,gray,diamond
124.0,2.0,2.0,0.0,1.0,1.0,827.3668030001318,4.0,1.0,phase_1,,,,,,,,,,,,,magenta,triangle
51.0,1.0,1.0,0.0,3.0,3.0,575.5318600004102,4.0,1.0,phase_1,,,,,,,,,,,,,white,square
203.0,3.0,3.0,0.0,2.0,2.0,817.8369379998003,4.0,1.0,phase_1,,,,,,,,,,,,,yellow,hexagon
0.0,5.0,0.0,1.0,4.0,4.0,977.043201000015,4.0,1.0,phase_1,,,,,,,,,,,,,orange,circle
0.0,6.0,0.0,1.0,3.0,3.0,458.7497709999297,4.0,1.0,phase_1,,,,,,,,,,,,,gray,diamond
62.0,1.0,1.0,0.0,2.0,2.0,367.5986050002393,4.0,1.0,phase_1,,,,,,,,,,,,,white,square
387.0,8.0,4.0,1.0,4.0,4.0,426.8502680001802,4.0,1.0,phase_1,,,,,,,,,,,,,green,cross
0.0,1.0,0.0,0.0,4.0,4.0,704.167673000029,4.0,1.0,phase_1,,,,,,,,,,,,,white,square
0.0,4.0,4.0,0.0,6.0,6.0,484.4040500001938,1.0,1.0,phase_2,go,250.0,250.0,1.0,,,,,,,,,cyan,I
0.0,4.0,4.0,0.0,5.0,5.0,388.7100130000362,1.0,1.0,phase_2,go,250.0,250.0,1.0,,,,,,,,,cyan,I
0.0,8.0,4.0,1.0,6.0,6.0,406.1890110001513,1.0,1.0,phase_2,go,250.0,250.0,1.0,,,,,,,,,green,cross
0.0,2.0,2.0,0.0,6.0,6.0,417.9337919999852,1.0,1.0,phase_2,go,250.0,250.0,1.0,,,,,,,,,magenta,triangle
0.0,4.0,4.0,0.0,5.0,5.0,471.238925000307,1.0,1.0,phase_2,go,250.0,250.0,1.0,,,,,,,,,cyan,I
0.0,7.0,3.0,1.0,6.0,6.0,406.9201550000798,1.0,1.0,phase_2,stop,250.0,250.0,3.0,,,,,,,,,blue,flipped triangle
0.0,4.0,4.0,0.0,5.0,5.0,433.5405609999725,1.0,1.0,phase_2,go,250.0,200.0,1.0,,,,,,,,,cyan,I
0.0,1.0,1.0,0.0,5.0,5.0,446.7172650001885,1.0,1.0,phase_2,go,250.0,200.0,1.0,,,,,,,,,white,square
0.0,7.0,3.0,1.0,6.0,6.0,408.9398639998762,1.0,1.0,phase_2,stop,250.0,200.0,3.0,,,,,,,,,blue,flipped triangle
0.0,6.0,2.0,1.0,6.0,0.0,0.0,1.0,1.0,phase_2,stop,250.0,150.0,4.0,,,,,,,,,gray,diamond
0.0,3.0,3.0,0.0,6.0,6.0,717.610887000319,1.0,1.0,phase_2,go,250.0,200.0,1.0,,,,,,,,,yellow,hexagon
0.0,8.0,4.0,1.0,6.0,0.0,0.0,1.0,1.0,phase_2,stop,250.0,200.0,4.0,,,,,,,,,green,cross
0.0,5.0,1.0,1.0,6.0,0.0,0.0,1.0,1.0,phase_2,stop,250.0,250.0,4.0,,,,,,,,,orange,circle
0.0,8.0,4.0,1.0,6.0,6.0,614.6865559999242,1.0,1.0,phase_2,go,250.0,300.0,1.0,,,,,,,,,green,cross
0.0,2.0,2.0,0.0,5.0,5.0,774.2571930002669,1.0,1.0,phase_2,go,250.0,300.0,1.0,,,,,,,,,magenta,triangle
0.0,3.0,3.0,0.0,5.0,5.0,392.6561869998295,1.0,1.0,phase_2,go,250.0,300.0,1.0,,,,,,,,,yellow,hexagon
0.0,8.0,4.0,1.0,5.0,5.0,458.9228049999292,1.0,1.0,phase_2,go,250.0,300.0,1.0,,,,,,,,,green,cross
0.0,7.0,3.0,1.0,5.0,5.0,447.1777439998732,1.0,1.0,phase_2,go,250.0,300.0,1.0,,,,,,,,,blue,flipped triangle
0.0,2.0,2.0,0.0,6.0,6.0,418.7345279997316,1.0,1.0,phase_2,go,250.0,300.0,1.0,,,,,,,,,magenta,triangle
0.0,4.0,4.0,0.0,5.0,5.0,607.3944460003986,1.0,1.0,phase_2,go,250.0,300.0,1.0,,,,,,,,,cyan,I
0.0,6.0,2.0,1.0,5.0,5.0,613.7501060002251,1.0,1.0,phase_2,go,250.0,300.0,1.0,,,,,,,,,gray,diamond
0.0,6.0,2.0,1.0,5.0,5.0,414.9964749999526,1.0,1.0,phase_2,stop,250.0,300.0,3.0,,,,,,,,,gray,diamond
0.0,6.0,2.0,1.0,6.0,0.0,0.0,1.0,1.0,phase_2,stop,200.0,300.0,4.0,,,,,,,,,gray,diamond
0.0,2.0,2.0,0.0,5.0,5.0,722.4129630003517,1.0,1.0,phase_2,go,200.0,350.0,1.0,,,,,,,,,magenta,triangle
0.0,1.0,1.0,0.0,5.0,5.0,417.1794519998002,1.0,1.0,phase_2,go,200.0,350.0,1.0,,,,,,,,,white,square
0.0,2.0,2.0,0.0,5.0,5.0,495.1145449999785,1.0,1.0,phase_2,go,200.0,350.0,1.0,,,,,,,,,magenta,triangle
0.0,3.0,3.0,0.0,5.0,5.0,619.6982139999818,1.0,1.0,phase_2,go,200.0,350.0,1.0,,,,,,,,,yellow,hexagon
0.0,5.0,1.0,1.0,6.0,6.0,387.304892999964,1.0,1.0,phase_2,stop,200.0,350.0,3.0,,,,,,,,,orange,circle
0.0,4.0,4.0,0.0,5.0,5.0,566.9017010000061,1.0,1.0,phase_2,go,200.0,300.0,1.0,,,,,,,,,cyan,I
0.0,7.0,3.0,1.0,6.0,0.0,0.0,1.0,1.0,phase_2,stop,200.0,300.0,4.0,,,,,,,,,blue,flipped triangle
0.0,8.0,4.0,1.0,6.0,0.0,0.0,1.0,1.0,phase_2,stop,200.0,350.0,4.0,,,,,,,,,green,cross
0.0,5.0,1.0,1.0,5.0,0.0,0.0,1.0,1.0,phase_2,stop,200.0,400.0,4.0,,,,,,,,,orange,circle
0.0,6.0,2.0,1.0,6.0,6.0,427.1080379999148,1.0,1.0,phase_2,go,250.0,400.0,1.0,,,,,,,,,gray,diamond
0.0,5.0,1.0,1.0,5.0,0.0,0.0,1.0,1.0,phase_2,stop,250.0,400.0,4.0,,,,,,,,,orange,circle
0.0,4.0,4.0,0.0,6.0,6.0,698.5676260001128,1.0,1.0,phase_2,go,300.0,400.0,1.0,,,,,,,,,cyan,I
0.0,5.0,1.0,1.0,5.0,0.0,0.0,1.0,1.0,phase_2,stop,300.0,400.0,4.0,,,,,,,,,orange,circle
0.0,2.0,2.0,0.0,5.0,5.0,571.1897439996392,2.0,1.0,phase_2,go,350.0,400.0,1.0,,,,,,,,,magenta,triangle
0.0,4.0,4.0,0.0,6.0,6.0,650.5583160001152,2.0,1.0,phase_2,go,350.0,400.0,1.0,,,,,,,,,cyan,I
0.0,4.0,4.0,0.0,6.0,6.0,363.4525960001156,2.0,1.0,phase_2,go,350.0,400.0,1.0,,,,,,,,,cyan,I
0.0,7.0,3.0,1.0,6.0,6.0,391.3707499996235,2.0,1.0,phase_2,stop,350.0,400.0,3.0,,,,,,,,,blue,flipped triangle
0.0,3.0,3.0,0.0,6.0,6.0,630.4249310001069,2.0,1.0,phase_2,go,350.0,350.0,1.0,,,,,,,,,yellow,hexagon
0.0,3.0,3.0,0.0,5.0,5.0,478.6882289999994,2.0,1.0,phase_2,go,350.0,350.0,1.0,,,,,,,,,yellow,hexagon
0.0,2.0,2.0,0.0,5.0,5.0,454.8969630000101,2.0,1.0,phase_2,go,350.0,350.0,1.0,,,,,,,,,magenta,triangle
0.0,1.0,1.0,0.0,6.0,6.0,554.1514420001477,2.0,1.0,phase_2,go,350.0,350.0,1.0,,,,,,,,,white,square
0.0,5.0,1.0,1.0,5.0,5.0,433.1195559998377,2.0,1.0,phase_2,go,350.0,350.0,1.0,,,,,,,,,orange,circle
0.0,2.0,2.0,0.0,6.0,6.0,524.6690359999775,2.0,1.0,phase_2,go,350.0,350.0,1.0,,,,,,,,,magenta,triangle
0.0,6.0,2.0,1.0,6.0,0.0,0.0,2.0,1.0,phase_2,stop,350.0,350.0,4.0,,,,,,,,,gray,diamond
0.0,7.0,3.0,1.0,5.0,5.0,759.2536930001188,2.0,1.0,phase_2,go,350.0,400.0,1.0,,,,,,,,,blue,flipped triangle
0.0,4.0,4.0,0.0,6.0,6.0,688.8207749998401,2.0,1.0,phase_2,go,350.0,400.0,1.0,,,,,,,,,cyan,I
0.0,4.0,4.0,0.0,5.0,5.0,429.1205260001334,2.0,1.0,phase_2,go,350.0,400.0,1.0,,,,,,,,,cyan,I
0.0,3.0,3.0,0.0,5.0,5.0,355.8965269999135,2.0,1.0,phase_2,go,350.0,400.0,1.0,,,,,,,,,yellow,hexagon
0.0,2.0,2.0,0.0,6.0,6.0,478.5197199998947,2.0,1.0,phase_2,go,350.0,400.0,1.0,,,,,,,,,magenta,triangle
0.0,4.0,4.0,0.0,5.0,5.0,526.9239930003096,2.0,1.0,phase_2,go,350.0,400.0,1.0,,,,,,,,,cyan,I
0.0,5.0,1.0,1.0,5.0,5.0,461.6568500000539,2.0,1.0,phase_2,stop,350.0,400.0,3.0,,,,,,,,,orange,circle
0.0,5.0,1.0,1.0,6.0,0.0,0.0,2.0,1.0,phase_2,stop,300.0,400.0,4.0,,,,,,,,,orange,circle
0.0,2.0,2.0,0.0,6.0,6.0,646.3597780002601,2.0,1.0,phase_2,go,300.0,450.0,1.0,,,,,,,,,magenta,triangle
0.0,1.0,1.0,0.0,6.0,6.0,608.5791629998312,2.0,1.0,phase_2,go,300.0,450.0,1.0,,,,,,,,,white,square
0.0,1.0,1.0,0.0,6.0,6.0,489.1914360000555,2.0,1.0,phase_2,go,300.0,450.0,1.0,,,,,,,,,white,square
0.0,6.0,2.0,1.0,6.0,0.0,0.0,2.0,1.0,phase_2,stop,300.0,450.0,4.0,,,,,,,,,gray,diamond
0.0,2.0,2.0,0.0,5.0,5.0,569.2549890000009,2.0,1.0,phase_2,go,300.0,500.0,1.0,,,,,,,,,magenta,triangle
0.0,3.0,3.0,0.0,5.0,5.0,429.1061959997932,2.0,1.0,phase_2,go,300.0,500.0,1.0,,,,,,,,,yellow,hexagon
0.0,1.0,1.0,0.0,5.0,5.0,452.3005760001979,2.0,1.0,phase_2,go,300.0,500.0,1.0,,,,,,,,,white,square
0.0,5.0,1.0,1.0,5.0,5.0,434.2628939998576,2.0,1.0,phase_2,go,300.0,500.0,1.0,,,,,,,,,orange,circle
0.0,5.0,1.0,1.0,5.0,0.0,0.0,2.0,1.0,phase_2,stop,300.0,500.0,4.0,,,,,,,,,orange,circle
0.0,4.0,4.0,0.0,5.0,5.0,571.9089809999787,2.0,1.0,phase_2,go,350.0,500.0,1.0,,,,,,,,,cyan,I
0.0,4.0,4.0,0.0,5.0,5.0,447.9319600000053,2.0,1.0,phase_2,go,350.0,500.0,1.0,,,,,,,,,cyan,I
0.0,2.0,2.0,0.0,6.0,6.0,597.9960340000616,2.0,1.0,phase_2,go,350.0,500.0,1.0,,,,,,,,,magenta,triangle
0.0,5.0,1.0,1.0,6.0,6.0,535.5934529998194,2.0,1.0,phase_2,stop,350.0,500.0,3.0,,,,,,,,,orange,circle
0.0,7.0,3.0,1.0,5.0,5.0,533.2466039999417,2.0,1.0,phase_2,go,350.0,450.0,1.0,,,,,,,,,blue,flipped triangle
0.0,1.0,1.0,0.0,5.0,5.0,623.8061340000058,2.0,1.0,phase_2,go,350.0,450.0,1.0,,,,,,,,,white,square
0.0,6.0,2.0,1.0,6.0,0.0,0.0,2.0,1.0,phase_2,stop,350.0,450.0,4.0,,,,,,,,,gray,diamond
0.0,7.0,3.0,1.0,6.0,6.0,772.4230879998686,2.0,1.0,phase_2,go,350.0,500.0,1.0,,,,,,,,,blue,flipped triangle
0.0,7.0,3.0,1.0,6.0,6.0,737.8296410001894,3.0,1.0,phase_2,stop,350.0,500.0,3.0,,,,,,,,,blue,flipped triangle
0.0,7.0,3.0,1.0,6.0,6.0,521.227134000128,3.0,1.0,phase_2,go,350.0,450.0,1.0,,,,,,,,,blue,flipped triangle
0.0,2.0,2.0,0.0,5.0,5.0,432.1126539998658,3.0,1.0,phase_2,go,350.0,450.0,1.0,,,,,,,,,magenta,triangle
0.0,3.0,3.0,0.0,5.0,5.0,665.8732819996658,3.0,1.0,phase_2,go,350.0,450.0,1.0,,,,,,,,,yellow,hexagon
0.0,1.0,1.0,0.0,6.0,6.0,491.4460079999116,3.0,1.0,phase_2,go,350.0,450.0,1.0,,,,,,,,,white,square
0.0,7.0,3.0,1.0,5.0,5.0,472.5530999999137,3.0,1.0,phase_2,stop,350.0,450.0,3.0,,,,,,,,,blue,flipped triangle
0.0,5.0,1.0,1.0,5.0,5.0,765.8191219998116,3.0,1.0,phase_2,go,300.0,450.0,1.0,,,,,,,,,orange,circle
0.0,5.0,1.0,1.0,5.0,0.0,0.0,3.0,1.0,phase_2,stop,300.0,450.0,4.0,,,,,,,,,orange,circle
0.0,6.0,2.0,1.0,5.0,0.0,0.0,3.0,1.0,phase_2,stop,350.0,450.0,4.0,,,,,,,,,gray,diamond
0.0,2.0,2.0,0.0,6.0,6.0,629.5861609996791,3.0,1.0,phase_2,go,400.0,450.0,1.0,,,,,,,,,magenta,triangle
0.0,1.0,1.0,0.0,6.0,6.0,680.4347100000996,3.0,1.0,phase_2,go,400.0,450.0,1.0,,,,,,,,,white,square
0.0,8.0,4.0,1.0,5.0,0.0,0.0,3.0,1.0,phase_2,stop,400.0,450.0,4.0,,,,,,,,,green,cross
0.0,7.0,3.0,1.0,5.0,0.0,0.0,3.0,1.0,phase_2,stop,450.0,450.0,4.0,,,,,,,,,blue,flipped triangle
0.0,7.0,3.0,1.0,6.0,0.0,0.0,3.0,1.0,phase_2,stop,500.0,450.0,4.0,,,,,,,,,blue,flipped triangle
0.0,5.0,1.0,1.0,5.0,5.0,684.947849999844,3.0,1.0,phase_2,go,500.0,500.0,1.0,,,,,,,,,orange,circle
0.0,5.0,1.0,1.0,6.0,0.0,0.0,3.0,1.0,phase_2,stop,500.0,500.0,4.0,,,,,,,,,orange,circle
0.0,8.0,4.0,1.0,6.0,6.0,811.1991659998239,3.0,1.0,phase_2,stop,500.0,550.0,3.0,,,,,,,,,green,cross
0.0,4.0,4.0,0.0,6.0,6.0,830.7546840001123,3.0,1.0,phase_2,go,500.0,500.0,1.0,,,,,,,,,cyan,I
0.0,2.0,2.0,0.0,6.0,6.0,779.6436230000836,3.0,1.0,phase_2,go,500.0,500.0,1.0,,,,,,,,,magenta,triangle
0.0,6.0,2.0,1.0,5.0,5.0,452.0009379998555,3.0,1.0,phase_2,stop,500.0,500.0,3.0,,,,,,,,,gray,diamond
0.0,1.0,1.0,0.0,5.0,5.0,753.6323160002212,3.0,1.0,phase_2,go,450.0,500.0,1.0,,,,,,,,,white,square
0.0,5.0,1.0,1.0,5.0,0.0,0.0,3.0,1.0,phase_2,stop,450.0,500.0,4.0,,,,,,,,,orange,circle
0.0,3.0,3.0,0.0,5.0,5.0,714.7523540002112,3.0,1.0,phase_2,go,500.0,500.0,1.0,,,,,,,,,yellow,hexagon
0.0,3.0,3.0,0.0,5.0,5.0,537.833134000266,3.0,1.0,phase_2,go,500.0,500.0,1.0,,,,,,,,,yellow,hexagon
0.0,1.0,1.0,0.0,5.0,5.0,814.8622789999536,3.0,1.0,phase_2,go,500.0,500.0,1.0,,,,,,,,,white,square
0.0,2.0,2.0,0.0,6.0,6.0,462.51751699992377,3.0,1.0,phase_2,go,500.0,500.0,1.0,,,,,,,,,magenta,triangle
0.0,1.0,1.0,0.0,5.0,5.0,466.9180400001096,3.0,1.0,phase_2,go,500.0,500.0,1.0,,,,,,,,,white,square
0.0,6.0,2.0,1.0,5.0,5.0,489.2428490002203,3.0,1.0,phase_2,stop,500.0,500.0,3.0,,,,,,,,,gray,diamond
0.0,7.0,3.0,1.0,5.0,0.0,0.0,3.0,1.0,phase_2,stop,450.0,500.0,4.0,,,,,,,,,blue,flipped triangle
0.0,6.0,2.0,1.0,5.0,5.0,570.0433000001794,3.0,1.0,phase_2,stop,500.0,500.0,3.0,,,,,,,,,gray,diamond
0.0,3.0,3.0,0.0,6.0,6.0,650.1012429998809,3.0,1.0,phase_2,go,450.0,500.0,1.0,,,,,,,,,yellow,hexagon
0.0,8.0,4.0,1.0,5.0,5.0,525.6436629997552,3.0,1.0,phase_2,stop,450.0,500.0,3.0,,,,,,,,,green,cross
0.0,1.0,1.0,0.0,6.0,6.0,758.9820459998009,3.0,1.0,phase_2,go,400.0,500.0,1.0,,,,,,,,,white,square
0.0,1.0,1.0,0.0,5.0,5.0,662.5856159998875,3.0,1.0,phase_2,go,400.0,500.0,1.0,,,,,,,,,white,square
0.0,6.0,2.0,1.0,6.0,6.0,553.9649800002735,3.0,1.0,phase_2,stop,400.0,500.0,3.0,,,,,,,,,gray,diamond
0.0,7.0,3.0,1.0,6.0,0.0,0.0,3.0,1.0,phase_2,stop,400.0,450.0,4.0,,,,,,,,,blue,flipped triangle
0.0,3.0,3.0,0.0,5.0,5.0,776.3173989997085,4.0,1.0,phase_2,go,400.0,500.0,1.0,,,,,,,,,yellow,hexagon
0.0,6.0,2.0,1.0,5.0,5.0,439.8894599999039,4.0,1.0,phase_2,stop,400.0,500.0,3.0,,,,,,,,,gray,diamond
0.0,4.0,4.0,0.0,5.0,5.0,513.0981520001114,4.0,1.0,phase_2,go,350.0,500.0,1.0,,,,,,,,,cyan,I
0.0,7.0,3.0,1.0,6.0,0.0,0.0,4.0,1.0,phase_2,stop,350.0,500.0,4.0,,,,,,,,,blue,flipped triangle
0.0,8.0,4.0,1.0,6.0,6.0,517.7470759999778,4.0,1.0,phase_2,stop,350.0,550.0,3.0,,,,,,,,,green,cross
0.0,3.0,3.0,0.0,6.0,6.0,502.5258999999096,4.0,1.0,phase_2,go,350.0,500.0,1.0,,,,,,,,,yellow,hexagon
0.0,6.0,2.0,1.0,6.0,6.0,417.1328970001013,4.0,1.0,phase_2,go,350.0,500.0,1.0,,,,,,,,,gray,diamond
0.0,3.0,3.0,0.0,5.0,5.0,396.7594890000328,4.0,1.0,phase_2,go,350.0,500.0,1.0,,,,,,,,,yellow,hexagon
0.0,7.0,3.0,1.0,6.0,6.0,584.0101740000136,4.0,1.0,phase_2,stop,350.0,500.0,3.0,,,,,,,,,blue,flipped triangle
0.0,4.0,4.0,0.0,5.0,5.0,512.8613399997448,4.0,1.0,phase_2,go,350.0,450.0,1.0,,,,,,,,,cyan,I
0.0,2.0,2.0,0.0,5.0,5.0,531.9554829998197,4.0,1.0,phase_2,go,350.0,450.0,1.0,,,,,,,,,magenta,triangle
0.0,6.0,2.0,1.0,6.0,0.0,0.0,4.0,1.0,phase_2,stop,350.0,450.0,4.0,,,,,,,,,gray,diamond
0.0,7.0,3.0,1.0,6.0,6.0,487.8172099997755,4.0,1.0,phase_2,stop,350.0,500.0,3.0,,,,,,,,,blue,flipped triangle
0.0,8.0,4.0,1.0,5.0,5.0,384.5831689995975,4.0,1.0,phase_2,stop,350.0,450.0,3.0,,,,,,,,,green,cross
0.0,2.0,2.0,0.0,6.0,6.0,498.6732239999583,4.0,1.0,phase_2,go,300.0,450.0,1.0,,,,,,,,,magenta,triangle
0.0,5.0,1.0,1.0,5.0,5.0,364.4581100002142,4.0,1.0,phase_2,go,300.0,450.0,1.0,,,,,,,,,orange,circle
0.0,3.0,3.0,0.0,6.0,6.0,714.9815870002385,4.0,1.0,phase_2,go,300.0,450.0,1.0,,,,,,,,,yellow,hexagon
0.0,4.0,4.0,0.0,5.0,5.0,544.8206269998082,4.0,1.0,phase_2,go,300.0,450.0,1.0,,,,,,,,,cyan,I
0.0,6.0,2.0,1.0,5.0,5.0,575.4614400002538,4.0,1.0,phase_2,stop,300.0,450.0,3.0,,,,,,,,,gray,diamond
0.0,8.0,4.0,1.0,5.0,1.0,661.9048200000179,4.0,1.0,phase_2,stop,250.0,450.0,3.0,,,,,,,,,green,cross
0.0,4.0,4.0,0.0,6.0,6.0,353.4970310001881,4.0,1.0,phase_2,go,200.0,450.0,1.0,,,,,,,,,cyan,I
0.0,6.0,2.0,1.0,6.0,6.0,532.616457000131,4.0,1.0,phase_2,stop,200.0,450.0,3.0,,,,,,,,,gray,diamond
0.0,3.0,3.0,0.0,5.0,5.0,452.7543680001145,4.0,1.0,phase_2,go,200.0,400.0,1.0,,,,,,,,,yellow,hexagon
0.0,5.0,1.0,1.0,6.0,6.0,811.0618690002411,4.0,1.0,phase_2,stop,200.0,400.0,3.0,,,,,,,,,orange,circle
0.0,5.0,1.0,1.0,6.0,0.0,0.0,4.0,1.0,phase_2,go,200.0,350.0,5.0,,,,,,,,,orange,circle
0.0,1.0,1.0,0.0,6.0,6.0,507.333780999943,4.0,1.0,phase_2,go,200.0,350.0,1.0,,,,,,,,,white,square
0.0,2.0,2.0,0.0,5.0,5.0,371.680983999795,4.0,1.0,phase_2,go,200.0,350.0,1.0,,,,,,,,,magenta,triangle
0.0,2.0,2.0,0.0,5.0,5.0,325.7639889998245,4.0,1.0,phase_2,go,200.0,350.0,1.0,,,,,,,,,magenta,triangle
0.0,6.0,2.0,1.0,5.0,5.0,564.6007300001656,4.0,1.0,phase_2,stop,200.0,350.0,3.0,,,,,,,,,gray,diamond
0.0,7.0,3.0,1.0,6.0,6.0,586.3879390003603,4.0,1.0,phase_2,stop,150.0,350.0,3.0,,,,,,,,,blue,flipped triangle
0.0,3.0,3.0,0.0,6.0,6.0,535.6374409998352,4.0,1.0,phase_2,go,150.0,300.0,1.0,,,,,,,,,yellow,hexagon
0.0,3.0,3.0,0.0,5.0,5.0,377.0539199999803,4.0,1.0,phase_2,go,150.0,300.0,1.0,,,,,,,,,yellow,hexagon
0.0,6.0,2.0,1.0,5.0,5.0,390.7917279998401,4.0,1.0,phase_2,stop,150.0,300.0,3.0,,,,,,,,,gray,diamond
0.0,1.0,1.0,0.0,6.0,6.0,354.6285630000056,4.0,1.0,phase_2,go,100.0,300.0,1.0,,,,,,,,,white,square
0.0,5.0,1.0,1.0,6.0,0.0,0.0,4.0,1.0,phase_2,stop,100.0,300.0,4.0,,,,,,,,,orange,circle
0.0,4.0,4.0,0.0,6.0,6.0,466.262424999968,4.0,1.0,phase_2,go,100.0,350.0,1.0,,,,,,,,,cyan,I
0.0,3.0,3.0,0.0,5.0,5.0,452.884479000204,5.0,1.0,phase_2,go,100.0,350.0,1.0,,,,,,,,,yellow,hexagon
0.0,5.0,1.0,1.0,5.0,0.0,0.0,5.0,1.0,phase_2,stop,100.0,350.0,4.0,,,,,,,,,orange,circle
0.0,1.0,1.0,0.0,5.0,5.0,421.3576709998961,5.0,1.0,phase_2,go,150.0,350.0,1.0,,,,,,,,,white,square
0.0,6.0,2.0,1.0,5.0,0.0,0.0,5.0,1.0,phase_2,stop,150.0,350.0,4.0,,,,,,,,,gray,diamond
0.0,5.0,1.0,1.0,6.0,6.0,588.2765310002469,5.0,1.0,phase_2,stop,200.0,350.0,3.0,,,,,,,,,orange,circle
0.0,7.0,3.0,1.0,6.0,0.0,0.0,5.0,1.0,phase_2,stop,200.0,300.0,4.0,,,,,,,,,blue,flipped triangle
0.0,2.0,2.0,0.0,5.0,5.0,389.3149509999603,5.0,1.0,phase_2,go,200.0,350.0,1.0,,,,,,,,,magenta,triangle
0.0,8.0,4.0,1.0,5.0,0.0,0.0,5.0,1.0,phase_2,stop,200.0,350.0,4.0,,,,,,,,,green,cross
0.0,7.0,3.0,1.0,5.0,0.0,0.0,5.0,1.0,phase_2,stop,250.0,350.0,4.0,,,,,,,,,blue,flipped triangle
0.0,7.0,3.0,1.0,5.0,5.0,447.1747190000315,5.0,1.0,phase_2,go,300.0,350.0,1.0,,,,,,,,,blue,flipped triangle
0.0,8.0,4.0,1.0,5.0,5.0,348.0498070002795,5.0,1.0,phase_2,stop,300.0,350.0,3.0,,,,,,,,,green,cross
0.0,6.0,2.0,1.0,6.0,6.0,391.5368350003518,5.0,1.0,phase_2,stop,250.0,350.0,3.0,,,,,,,,,gray,diamond
0.0,5.0,1.0,1.0,5.0,5.0,312.2973509998701,5.0,1.0,phase_2,stop,250.0,300.0,3.0,,,,,,,,,orange,circle
0.0,4.0,4.0,0.0,5.0,5.0,366.3700389997757,5.0,1.0,phase_2,go,200.0,300.0,1.0,,,,,,,,,cyan,I
0.0,4.0,4.0,0.0,6.0,6.0,318.6973400001989,5.0,1.0,phase_2,go,200.0,300.0,1.0,,,,,,,,,cyan,I
0.0,5.0,1.0,1.0,6.0,6.0,398.2712290003292,5.0,1.0,phase_2,stop,200.0,300.0,3.0,,,,,,,,,orange,circle
0.0,3.0,3.0,0.0,6.0,6.0,365.8698809999805,5.0,1.0,phase_2,go,200.0,250.0,1.0,,,,,,,,,yellow,hexagon
0.0,6.0,2.0,1.0,6.0,6.0,329.4622919997891,5.0,1.0,phase_2,stop,200.0,250.0,3.0,,,,,,,,,gray,diamond
0.0,6.0,2.0,1.0,6.0,0.0,0.0,5.0,1.0,phase_2,stop,200.0,200.0,4.0,,,,,,,,,gray,diamond
0.0,1.0,1.0,0.0,5.0,5.0,498.2845459999225,5.0,1.0,phase_2,go,200.0,250.0,1.0,,,,,,,,,white,square
0.0,3.0,3.0,0.0,6.0,6.0,540.8447109998633,5.0,1.0,phase_2,go,200.0,250.0,1.0,,,,,,,,,yellow,hexagon
0.0,3.0,3.0,0.0,6.0,6.0,630.6823889999578,5.0,1.0,phase_2,go,200.0,250.0,1.0,,,,,,,,,yellow,hexagon
0.0,8.0,4.0,1.0,5.0,0.0,0.0,5.0,1.0,phase_2,stop,200.0,250.0,4.0,,,,,,,,,green,cross
0.0,6.0,2.0,1.0,6.0,0.0,0.0,5.0,1.0,phase_2,stop,250.0,250.0,4.0,,,,,,,,,gray,diamond
0.0,1.0,1.0,0.0,5.0,5.0,497.6681009998174,5.0,1.0,phase_2,go,250.0,300.0,1.0,,,,,,,,,white,square
0.0,1.0,1.0,0.0,5.0,5.0,462.6741759998367,5.0,1.0,phase_2,go,250.0,300.0,1.0,,,,,,,,,white,square
0.0,2.0,2.0,0.0,5.0,5.0,345.1256250000369,5.0,1.0,phase_2,go,250.0,300.0,1.0,,,,,,,,,magenta,triangle
0.0,8.0,4.0,1.0,6.0,6.0,290.9284389997992,5.0,1.0,phase_2,go,250.0,300.0,1.0,,,,,,,,,green,cross
0.0,4.0,4.0,0.0,6.0,6.0,557.8568769997219,5.0,1.0,phase_2,go,250.0,300.0,1.0,,,,,,,,,cyan,I
0.0,7.0,3.0,1.0,6.0,6.0,386.9858269999895,5.0,1.0,phase_2,stop,250.0,300.0,3.0,,,,,,,,,blue,flipped triangle
0.0,1.0,1.0,0.0,6.0,6.0,629.5847960000174,5.0,1.0,phase_2,go,250.0,250.0,1.0,,,,,,,,,white,square
0.0,7.0,3.0,1.0,5.0,0.0,0.0,5.0,1.0,phase_2,stop,250.0,250.0,4.0,,,,,,,,,blue,flipped triangle
0.0,1.0,1.0,0.0,5.0,5.0,562.1800710000571,5.0,1.0,phase_2,go,300.0,250.0,1.0,,,,,,,,,white,square
0.0,1.0,1.0,0.0,5.0,5.0,382.2445450000487,5.0,1.0,phase_2,go,300.0,250.0,1.0,,,,,,,,,white,square
0.0,3.0,3.0,0.0,5.0,5.0,528.4007539999038,5.0,1.0,phase_2,go,300.0,250.0,1.0,,,,,,,,,yellow,hexagon
0.0,7.0,3.0,1.0,6.0,6.0,352.1913950003181,5.0,1.0,phase_2,stop,300.0,250.0,3.0,,,,,,,,,blue,flipped triangle
0.0,2.0,2.0,0.0,6.0,6.0,369.2914610001025,6.0,1.0,phase_2,go,300.0,200.0,1.0,,,,,,,,,magenta,triangle
0.0,6.0,2.0,1.0,5.0,5.0,365.4174580001381,6.0,1.0,phase_2,stop,300.0,200.0,3.0,,,,,,,,,gray,diamond
0.0,1.0,1.0,0.0,6.0,6.0,336.0347180000644,6.0,1.0,phase_2,go,250.0,200.0,1.0,,,,,,,,,white,square
0.0,1.0,1.0,0.0,6.0,6.0,300.328638999872,6.0,1.0,phase_2,go,250.0,200.0,1.0,,,,,,,,,white,square
0.0,7.0,3.0,1.0,5.0,0.0,0.0,6.0,1.0,phase_2,stop,250.0,200.0,4.0,,,,,,,,,blue,flipped triangle
0.0,2.0,2.0,0.0,6.0,6.0,426.718990000154,6.0,1.0,phase_2,go,300.0,200.0,1.0,,,,,,,,,magenta,triangle
0.0,5.0,1.0,1.0,6.0,6.0,622.7662109999983,6.0,1.0,phase_2,go,300.0,200.0,1.0,,,,,,,,,orange,circle
0.0,1.0,1.0,0.0,6.0,6.0,387.0166680003422,6.0,1.0,phase_2,go,300.0,200.0,1.0,,,,,,,,,white,square
0.0,5.0,1.0,1.0,6.0,0.0,0.0,6.0,1.0,phase_2,stop,300.0,200.0,4.0,,,,,,,,,orange,circle
0.0,3.0,3.0,0.0,6.0,6.0,559.369912999955,6.0,1.0,phase_2,go,300.0,250.0,1.0,,,,,,,,,yellow,hexagon
0.0,4.0,4.0,0.0,6.0,6.0,537.0913079996171,6.0,1.0,phase_2,go,300.0,250.0,1.0,,,,,,,,,cyan,I
0.0,5.0,1.0,1.0,5.0,0.0,0.0,6.0,1.0,phase_2,stop,300.0,250.0,4.0,,,,,,,,,orange,circle
0.0,8.0,4.0,1.0,6.0,0.0,0.0,6.0,1.0,phase_2,stop,350.0,250.0,4.0,,,,,,,,,green,cross
0.0,8.0,4.0,1.0,5.0,5.0,462.702543999967,6.0,1.0,phase_2,go,350.0,300.0,1.0,,,,,,,,,green,cross
0.0,6.0,2.0,1.0,5.0,5.0,505.81288400007907,6.0,1.0,phase_2,go,350.0,300.0,1.0,,,,,,,,,gray,diamond
0.0,6.0,2.0,1.0,5.0,5.0,591.2521640002524,6.0,1.0,phase_2,go,350.0,300.0,1.0,,,,,,,,,gray,diamond
0.0,8.0,4.0,1.0,6.0,0.0,0.0,6.0,1.0,phase_2,stop,350.0,300.0,4.0,,,,,,,,,green,cross
0.0,2.0,2.0,0.0,5.0,5.0,609.9617459999536,6.0,1.0,phase_2,go,350.0,350.0,1.0,,,,,,,,,magenta,triangle
0.0,2.0,2.0,0.0,6.0,6.0,529.3167019999601,6.0,1.0,phase_2,go,350.0,350.0,1.0,,,,,,,,,magenta,triangle
0.0,1.0,1.0,0.0,5.0,5.0,488.2304779998776,6.0,1.0,phase_2,go,350.0,350.0,1.0,,,,,,,,,white,square
0.0,5.0,1.0,1.0,6.0,6.0,477.3318070001551,6.0,1.0,phase_2,go,350.0,350.0,1.0,,,,,,,,,orange,circle
0.0,5.0,1.0,1.0,6.0,6.0,407.0779150001726,6.0,1.0,phase_2,stop,350.0,350.0,3.0,,,,,,,,,orange,circle
0.0,7.0,3.0,1.0,6.0,6.0,409.6059879998392,6.0,1.0,phase_2,stop,350.0,300.0,3.0,,,,,,,,,blue,flipped triangle
0.0,6.0,2.0,1.0,5.0,5.0,341.0964770000646,6.0,1.0,phase_2,go,350.0,250.0,1.0,,,,,,,,,gray,diamond
0.0,4.0,4.0,0.0,6.0,6.0,330.8624219998819,6.0,1.0,phase_2,go,350.0,250.0,1.0,,,,,,,,,cyan,I
0.0,7.0,3.0,1.0,5.0,5.0,481.4144950000809,6.0,1.0,phase_2,stop,350.0,250.0,3.0,,,,,,,,,blue,flipped triangle
0.0,3.0,3.0,0.0,5.0,5.0,377.9859619999115,6.0,1.0,phase_2,go,300.0,250.0,1.0,,,,,,,,,yellow,hexagon
0.0,7.0,3.0,1.0,5.0,5.0,412.3370239999531,6.0,1.0,phase_2,stop,300.0,250.0,3.0,,,,,,,,,blue,flipped triangle
0.0,8.0,4.0,1.0,6.0,6.0,350.6844559997262,6.0,1.0,phase_2,go,250.0,250.0,1.0,,,,,,,,,green,cross
0.0,3.0,3.0,0.0,6.0,6.0,339.5685390000835,6.0,1.0,phase_2,go,250.0,250.0,1.0,,,,,,,,,yellow,hexagon
0.0,7.0,3.0,1.0,6.0,6.0,962.4120830003448,6.0,1.0,phase_2,stop,250.0,250.0,3.0,,,,,,,,,blue,flipped triangle
0.0,7.0,3.0,1.0,5.0,5.0,444.9907880002683,6.0,1.0,phase_2,go,250.0,200.0,1.0,,,,,,,,,blue,flipped triangle
0.0,2.0,2.0,0.0,5.0,5.0,377.0897459999105,6.0,1.0,phase_2,go,250.0,200.0,1.0,,,,,,,,,magenta,triangle
0.0,8.0,4.0,1.0,6.0,6.0,327.738687999954,6.0,1.0,phase_2,stop,250.0,200.0,3.0,,,,,,,,,green,cross
0.0,7.0,3.0,1.0,5.0,5.0,388.3079819997874,6.0,1.0,phase_2,go,250.0,150.0,1.0,,,,,,,,,blue,flipped triangle
0.0,2.0,2.0,0.0,6.0,6.0,481.813676999991,6.0,1.0,phase_2,go,250.0,150.0,1.0,,,,,,,,,magenta,triangle
0.0,7.0,3.0,1.0,5.0,5.0,549.9004799999057,7.0,1.0,phase_2,stop,250.0,150.0,3.0,,,,,,,,,blue,flipped triangle
0.0,5.0,1.0,1.0,6.0,6.0,369.3091410000306,7.0,1.0,phase_2,stop,200.0,150.0,3.0,,,,,,,,,orange,circle
0.0,7.0,3.0,1.0,5.0,5.0,439.004224999735,7.0,1.0,phase_2,go,200.0,100.0,1.0,,,,,,,,,blue,flipped triangle
0.0,5.0,1.0,1.0,6.0,0.0,0.0,7.0,1.0,phase_2,stop,200.0,100.0,4.0,,,,,,,,,orange,circle
0.0,3.0,3.0,0.0,5.0,5.0,366.5653369998836,7.0,1.0,phase_2,go,200.0,150.0,1.0,,,,,,,,,yellow,hexagon
0.0,3.0,3.0,0.0,5.0,5.0,421.8735530002959,7.0,1.0,phase_2,go,200.0,150.0,1.0,,,,,,,,,yellow,hexagon
0.0,8.0,4.0,1.0,6.0,0.0,0.0,7.0,1.0,phase_2,stop,200.0,150.0,4.0,,,,,,,,,green,cross
0.0,6.0,2.0,1.0,5.0,0.0,0.0,7.0,1.0,phase_2,stop,200.0,200.0,4.0,,,,,,,,,gray,diamond
0.0,5.0,1.0,1.0,5.0,5.0,303.5695540002052,7.0,1.0,phase_2,stop,250.0,200.0,3.0,,,,,,,,,orange,circle
0.0,3.0,3.0,0.0,6.0,6.0,546.8932709995897,7.0,1.0,phase_2,go,200.0,200.0,1.0,,,,,,,,,yellow,hexagon
0.0,2.0,2.0,0.0,5.0,5.0,417.2780169997168,7.0,1.0,phase_2,go,200.0,200.0,1.0,,,,,,,,,magenta,triangle
0.0,8.0,4.0,1.0,5.0,5.0,374.0020789996379,7.0,1.0,phase_2,stop,200.0,200.0,3.0,,,,,,,,,green,cross
0.0,2.0,2.0,0.0,6.0,6.0,557.3461269996187,7.0,1.0,phase_2,go,150.0,200.0,1.0,,,,,,,,,magenta,triangle
0.0,4.0,4.0,0.0,6.0,6.0,435.1189449998855,7.0,1.0,phase_2,go,150.0,200.0,1.0,,,,,,,,,cyan,I
0.0,4.0,4.0,0.0,5.0,5.0,690.3915590000906,7.0,1.0,phase_2,go,150.0,200.0,1.0,,,,,,,,,cyan,I
0.0,6.0,2.0,1.0,6.0,0.0,0.0,7.0,1.0,phase_2,stop,150.0,200.0,4.0,,,,,,,,,gray,diamond
0.0,8.0,4.0,1.0,5.0,0.0,0.0,7.0,1.0,phase_2,stop,150.0,250.0,4.0,,,,,,,,,green,cross
0.0,3.0,3.0,0.0,6.0,6.0,650.7898869999735,7.0,1.0,phase_2,go,200.0,250.0,1.0,,,,,,,,,yellow,hexagon
0.0,4.0,4.0,0.0,6.0,6.0,662.0401089999177,7.0,1.0,phase_2,go,200.0,250.0,1.0,,,,,,,,,cyan,I
0.0,4.0,4.0,0.0,6.0,6.0,416.8786510003883,7.0,1.0,phase_2,go,200.0,250.0,1.0,,,,,,,,,cyan,I
0.0,2.0,2.0,0.0,6.0,6.0,330.9386629998698,7.0,1.0,phase_2,go,200.0,250.0,1.0,,,,,,,,,magenta,triangle
0.0,6.0,2.0,1.0,5.0,5.0,538.8991519998854,7.0,1.0,phase_2,go,200.0,250.0,1.0,,,,,,,,,gray,diamond
0.0,5.0,1.0,1.0,6.0,6.0,472.2289989999808,7.0,1.0,phase_2,stop,200.0,250.0,3.0,,,,,,,,,orange,circle
0.0,8.0,4.0,1.0,6.0,0.0,0.0,7.0,1.0,phase_2,stop,200.0,200.0,4.0,,,,,,,,,green,cross
0.0,3.0,3.0,0.0,6.0,6.0,923.9721949998057,7.0,1.0,phase_2,go,200.0,250.0,1.0,,,,,,,,,yellow,hexagon
0.0,1.0,1.0,0.0,6.0,6.0,464.0667740000026,7.0,1.0,phase_2,go,200.0,250.0,1.0,,,,,,,,,white,square
0.0,1.0,1.0,0.0,5.0,5.0,447.1437219999643,7.0,1.0,phase_2,go,200.0,250.0,1.0,,,,,,,,,white,square
0.0,3.0,3.0,0.0,6.0,6.0,559.0697069997077,7.0,1.0,phase_2,go,200.0,250.0,1.0,,,,,,,,,yellow,hexagon
0.0,8.0,4.0,1.0,5.0,5.0,389.4123710001622,7.0,1.0,phase_2,stop,200.0,250.0,3.0,,,,,,,,,green,cross
0.0,4.0,4.0,0.0,5.0,5.0,499.2535589999534,7.0,1.0,phase_2,go,150.0,250.0,1.0,,,,,,,,,cyan,I
0.0,2.0,2.0,0.0,6.0,6.0,352.273046999926,7.0,1.0,phase_2,go,150.0,250.0,1.0,,,,,,,,,magenta,triangle
0.0,7.0,3.0,1.0,5.0,5.0,460.4602969998268,7.0,1.0,phase_2,stop,150.0,250.0,3.0,,,,,,,,,blue,flipped triangle
0.0,4.0,4.0,0.0,5.0,5.0,409.5584409997173,7.0,1.0,phase_2,go,100.0,250.0,1.0,,,,,,,,,cyan,I
0.0,1.0,1.0,0.0,5.0,5.0,495.6490969998413,7.0,1.0,phase_2,go,100.0,250.0,1.0,,,,,,,,,white,square
0.0,3.0,3.0,0.0,6.0,6.0,326.3591200002338,7.0,1.0,phase_2,go,100.0,250.0,1.0,,,,,,,,,yellow,hexagon
0.0,2.0,2.0,0.0,5.0,5.0,522.6394549999895,7.0,1.0,phase_2,go,100.0,250.0,1.0,,,,,,,,,magenta,triangle
0.0,8.0,4.0,1.0,6.0,6.0,455.9709549998842,8.0,1.0,phase_2,go,100.0,250.0,1.0,,,,,,,,,green,cross
0.0,1.0,1.0,0.0,5.0,5.0,400.460417999966,8.0,1.0,phase_2,go,100.0,250.0,1.0,,,,,,,,,white,square
0.0,1.0,1.0,0.0,6.0,6.0,381.8594320000557,8.0,1.0,phase_2,go,100.0,250.0,1.0,,,,,,,,,white,square
0.0,8.0,4.0,1.0,6.0,0.0,0.0,8.0,1.0,phase_2,stop,100.0,250.0,4.0,,,,,,,,,green,cross
0.0,1.0,1.0,0.0,6.0,6.0,736.6384520000793,8.0,1.0,phase_2,go,100.0,300.0,1.0,,,,,,,,,white,square
0.0,8.0,4.0,1.0,5.0,0.0,0.0,8.0,1.0,phase_2,stop,100.0,300.0,4.0,,,,,,,,,green,cross
0.0,3.0,3.0,0.0,5.0,5.0,624.4992890001413,8.0,1.0,phase_2,go,150.0,300.0,1.0,,,,,,,,,yellow,hexagon
0.0,3.0,3.0,0.0,6.0,6.0,324.0641069996854,8.0,1.0,phase_2,go,150.0,300.0,1.0,,,,,,,,,yellow,hexagon
0.0,7.0,3.0,1.0,5.0,5.0,420.766803999868,8.0,1.0,phase_2,stop,150.0,300.0,3.0,,,,,,,,,blue,flipped triangle
0.0,1.0,1.0,0.0,6.0,6.0,349.528993000149,8.0,1.0,phase_2,go,100.0,300.0,1.0,,,,,,,,,white,square
0.0,8.0,4.0,1.0,5.0,5.0,359.0563279999514,8.0,1.0,phase_2,go,100.0,300.0,1.0,,,,,,,,,green,cross
0.0,4.0,4.0,0.0,5.0,5.0,392.1343709998837,8.0,1.0,phase_2,go,100.0,300.0,1.0,,,,,,,,,cyan,I
0.0,8.0,4.0,1.0,5.0,5.0,450.6746639999619,8.0,1.0,phase_2,stop,100.0,300.0,3.0,,,,,,,,,green,cross
0.0,2.0,2.0,0.0,5.0,5.0,484.3755699998837,8.0,1.0,phase_2,go,50.0,300.0,1.0,,,,,,,,,magenta,triangle
0.0,6.0,2.0,1.0,6.0,6.0,460.0256310000077,8.0,1.0,phase_2,stop,50.0,300.0,3.0,,,,,,,,,gray,diamond
0.0,4.0,4.0,0.0,5.0,5.0,340.7955000002403,8.0,1.0,phase_2,go,50.0,250.0,1.0,,,,,,,,,cyan,I
0.0,8.0,4.0,1.0,5.0,0.0,0.0,8.0,1.0,phase_2,stop,50.0,250.0,4.0,,,,,,,,,green,cross
0.0,4.0,4.0,0.0,6.0,6.0,578.9322929999798,8.0,1.0,phase_2,go,100.0,250.0,1.0,,,,,,,,,cyan,I
0.0,3.0,3.0,0.0,6.0,6.0,484.1575750001539,8.0,1.0,phase_2,go,100.0,250.0,1.0,,,,,,,,,yellow,hexagon
0.0,2.0,2.0,0.0,5.0,5.0,453.214915999979,8.0,1.0,phase_2,go,100.0,250.0,1.0,,,,,,,,,magenta,triangle
0.0,2.0,2.0,0.0,6.0,6.0,403.144119999979,8.0,1.0,phase_2,go,100.0,250.0,1.0,,,,,,,,,magenta,triangle
0.0,6.0,2.0,1.0,6.0,0.0,0.0,8.0,1.0,phase_2,stop,100.0,250.0,4.0,,,,,,,,,gray,diamond
0.0,1.0,1.0,0.0,6.0,6.0,479.2261350003173,8.0,1.0,phase_2,go,100.0,300.0,1.0,,,,,,,,,white,square
0.0,5.0,1.0,1.0,5.0,0.0,0.0,8.0,1.0,phase_2,stop,100.0,300.0,4.0,,,,,,,,,orange,circle
0.0,4.0,4.0,0.0,6.0,6.0,477.5740790000782,8.0,1.0,phase_2,go,150.0,300.0,1.0,,,,,,,,,cyan,I
0.0,1.0,1.0,0.0,6.0,6.0,466.2881550002566,8.0,1.0,phase_2,go,150.0,300.0,1.0,,,,,,,,,white,square
0.0,8.0,4.0,1.0,6.0,0.0,0.0,8.0,1.0,phase_2,stop,150.0,300.0,4.0,,,,,,,,,green,cross
0.0,8.0,4.0,1.0,5.0,0.0,0.0,8.0,1.0,phase_2,stop,150.0,350.0,4.0,,,,,,,,,green,cross
0.0,5.0,1.0,1.0,6.0,6.0,536.1015049998059,8.0,1.0,phase_2,go,200.0,350.0,1.0,,,,,,,,,orange,circle
0.0,6.0,2.0,1.0,5.0,5.0,557.8588700000182,8.0,1.0,phase_2,go,200.0,350.0,1.0,,,,,,,,,gray,diamond
0.0,8.0,4.0,1.0,6.0,6.0,337.7151980002963,8.0,1.0,phase_2,stop,200.0,350.0,3.0,,,,,,,,,green,cross
0.0,8.0,4.0,1.0,5.0,0.0,0.0,8.0,1.0,phase_2,stop,200.0,300.0,4.0,,,,,,,,,green,cross
0.0,8.0,4.0,1.0,6.0,6.0,656.3160230002723,8.0,1.0,phase_2,go,250.0,300.0,1.0,,,,,,,,,green,cross
0.0,5.0,1.0,1.0,5.0,0.0,0.0,8.0,1.0,phase_2,stop,250.0,300.0,4.0,,,,,,,,,orange,circle
0.0,6.0,2.0,1.0,6.0,6.0,583.1351549995816,8.0,1.0,phase_2,go,300.0,300.0,1.0,,,,,,,,,gray,diamond
0.0,4.0,4.0,0.0,6.0,6.0,481.8016230001376,8.0,1.0,phase_2,go,300.0,300.0,1.0,,,,,,,,,cyan,I
0.0,5.0,1.0,1.0,7.0,3.0,1182.692016999681,1.0,1.0,phase_3,,,,,162.0,3.0,54.0,108.0,162.0,216.0,270.0,324.0,orange,circle
0.0,2.0,2.0,0.0,7.0,1.0,1399.611263999759,1.0,1.0,phase_3,,,,,78.0,2.0,78.0,117.0,234.0,195.0,156.0,39.0,magenta,triangle
0.0,5.0,1.0,1.0,7.0,5.0,1122.415042999819,1.0,1.0,phase_3,,,,,108.0,2.0,216.0,162.0,54.0,270.0,108.0,324.0,orange,circle
0.0,2.0,2.0,0.0,7.0,5.0,1067.8148790002524,1.0,1.0,phase_3,,,,,44.0,1.0,132.0,220.0,264.0,88.0,44.0,176.0,magenta,triangle
0.0,5.0,1.0,1.0,7.0,2.0,1109.230916999877,1.0,1.0,phase_3,,,,,176.0,4.0,220.0,176.0,88.0,132.0,44.0,264.0,orange,circle
0.0,8.0,4.0,1.0,7.0,4.0,945.8697199997914,1.0,1.0,phase_3,,,,,216.0,4.0,54.0,270.0,108.0,216.0,162.0,324.0,green,cross
0.0,4.0,4.0,0.0,7.0,1.0,977.9358550003964,1.0,1.0,phase_3,,,,,234.0,6.0,234.0,117.0,156.0,78.0,39.0,195.0,cyan,I
0.0,3.0,3.0,0.0,7.0,5.0,798.890613000367,1.0,1.0,phase_3,,,,,147.0,3.0,294.0,196.0,98.0,245.0,147.0,49.0,yellow,hexagon
0.0,1.0,1.0,0.0,7.0,5.0,1134.2869509999218,1.0,1.0,phase_3,,,,,34.0,1.0,170.0,102.0,204.0,136.0,34.0,68.0,white,square
0.0,5.0,1.0,1.0,7.0,3.0,1383.7947399997574,1.0,1.0,phase_3,,,,,102.0,3.0,34.0,68.0,102.0,136.0,170.0,204.0,orange,circle
0.0,7.0,3.0,1.0,7.0,6.0,1368.868649000433,1.0,1.0,phase_3,,,,,216.0,4.0,324.0,270.0,108.0,54.0,162.0,216.0,blue,flipped triangle
0.0,8.0,4.0,1.0,7.0,3.0,1247.638281000036,1.0,1.0,phase_3,,,,,234.0,6.0,117.0,195.0,234.0,78.0,156.0,39.0,green,cross
0.0,5.0,1.0,1.0,7.0,5.0,1148.5906750003778,1.0,1.0,phase_3,,,,,220.0,5.0,176.0,44.0,264.0,132.0,220.0,88.0,orange,circle
0.0,3.0,3.0,0.0,7.0,2.0,861.3118049997865,1.0,1.0,phase_3,,,,,220.0,5.0,88.0,220.0,44.0,176.0,264.0,132.0,yellow,hexagon
0.0,7.0,3.0,1.0,7.0,5.0,1108.2292169994616,1.0,1.0,phase_3,,,,,102.0,3.0,136.0,204.0,170.0,34.0,102.0,68.0,blue,flipped triangle
0.0,6.0,2.0,1.0,7.0,6.0,2109.8729790001016,1.0,1.0,phase_3,,,,,98.0,2.0,196.0,147.0,49.0,294.0,245.0,98.0,gray,diamond
0.0,5.0,1.0,1.0,7.0,2.0,1349.3528939998214,1.0,1.0,phase_3,,,,,245.0,5.0,294.0,245.0,196.0,147.0,49.0,98.0,orange,circle
0.0,3.0,3.0,0.0,7.0,4.0,1133.2197130004715,1.0,1.0,phase_3,,,,,195.0,5.0,234.0,156.0,78.0,195.0,117.0,39.0,yellow,hexagon
0.0,8.0,4.0,1.0,7.0,1.0,842.5667129995418,1.0,1.0,phase_3,,,,,176.0,4.0,176.0,88.0,44.0,220.0,132.0,264.0,green,cross
0.0,2.0,2.0,0.0,7.0,5.0,701.5460310003618,1.0,1.0,phase_3,,,,,176.0,4.0,132.0,88.0,44.0,220.0,176.0,264.0,magenta,triangle
0.0,2.0,2.0,0.0,7.0,3.0,1135.64049300021,2.0,1.0,phase_3,,,,,170.0,5.0,204.0,34.0,170.0,136.0,68.0,102.0,magenta,triangle
0.0,6.0,2.0,1.0,7.0,6.0,922.4444400006178,2.0,1.0,phase_3,,,,,108.0,2.0,270.0,54.0,162.0,324.0,216.0,108.0,gray,diamond
0.0,1.0,1.0,0.0,7.0,1.0,670.5406179999045,2.0,1.0,phase_3,,,,,195.0,5.0,195.0,117.0,234.0,156.0,39.0,78.0,white,square
0.0,4.0,4.0,0.0,7.0,5.0,793.9912929996353,2.0,1.0,phase_3,,,,,102.0,3.0,170.0,136.0,68.0,34.0,102.0,204.0,cyan,I
0.0,4.0,4.0,0.0,7.0,3.0,1411.0783840005752,2.0,1.0,phase_3,,,,,264.0,6.0,44.0,88.0,264.0,220.0,132.0,176.0,cyan,I
0.0,3.0,3.0,0.0,7.0,4.0,901.8897089999882,2.0,1.0,phase_3,,,,,216.0,4.0,270.0,324.0,54.0,216.0,108.0,162.0,yellow,hexagon
0.0,3.0,3.0,0.0,7.0,1.0,2029.289100000824,2.0,1.0,phase_3,,,,,102.0,3.0,102.0,136.0,68.0,170.0,34.0,204.0,yellow,hexagon
0.0,7.0,3.0,1.0,7.0,4.0,984.2377889999624,2.0,1.0,phase_3,,,,,176.0,4.0,44.0,132.0,264.0,176.0,88.0,220.0,blue,flipped triangle
0.0,2.0,2.0,0.0,7.0,3.0,984.9545669994768,2.0,1.0,phase_3,,,,,216.0,4.0,108.0,270.0,216.0,54.0,324.0,162.0,magenta,triangle
0.0,6.0,2.0,1.0,7.0,6.0,933.0356939999548,2.0,1.0,phase_3,,,,,234.0,6.0,39.0,78.0,195.0,117.0,156.0,234.0,gray,diamond
0.0,8.0,4.0,1.0,7.0,2.0,0.28755800030920003,2.0,1.0,phase_3,,,,,136.0,4.0,68.0,136.0,170.0,34.0,102.0,204.0,green,cross
0.0,8.0,4.0,1.0,7.0,5.0,1426.4921160001904,2.0,1.0,phase_3,,,,,204.0,6.0,68.0,170.0,34.0,136.0,204.0,102.0,green,cross
0.0,2.0,2.0,0.0,7.0,4.0,1800.0998199995593,2.0,1.0,phase_3,,,,,170.0,5.0,102.0,204.0,34.0,170.0,68.0,136.0,magenta,triangle
0.0,6.0,2.0,1.0,7.0,2.0,888.5264040000038,2.0,1.0,phase_3,,,,,136.0,4.0,34.0,136.0,68.0,170.0,204.0,102.0,gray,diamond
0.0,1.0,1.0,0.0,7.0,6.0,1297.9993750004724,2.0,1.0,phase_3,,,,,49.0,1.0,147.0,294.0,245.0,196.0,98.0,49.0,white,square
0.0,4.0,4.0,0.0,7.0,3.0,859.3234720001419,2.0,1.0,phase_3,,,,,136.0,4.0,34.0,68.0,136.0,204.0,170.0,102.0,cyan,I
0.0,1.0,1.0,0.0,7.0,5.0,539.246465999895,2.0,1.0,phase_3,,,,,204.0,6.0,34.0,102.0,170.0,136.0,204.0,68.0,white,square
0.0,3.0,3.0,0.0,7.0,2.0,309.3846289993962,2.0,1.0,phase_3,,,,,136.0,4.0,34.0,136.0,170.0,204.0,68.0,102.0,yellow,hexagon
0.0,2.0,2.0,0.0,7.0,3.0,1819.9622180000008,2.0,1.0,phase_3,,,,,216.0,4.0,162.0,324.0,216.0,270.0,108.0,54.0,magenta,triangle
0.0,7.0,3.0,1.0,7.0,5.0,831.7433219999657,2.0,1.0,phase_3,,,,,196.0,4.0,49.0,245.0,294.0,98.0,196.0,147.0,blue,flipped triangle
0.0,6.0,2.0,1.0,7.0,2.0,992.2867759996734,3.0,1.0,phase_3,,,,,234.0,6.0,195.0,234.0,117.0,78.0,156.0,39.0,gray,diamond
0.0,5.0,1.0,1.0,7.0,5.0,284.6043199997439,3.0,1.0,phase_3,,,,,34.0,1.0,204.0,68.0,136.0,102.0,34.0,170.0,orange,circle
0.0,8.0,4.0,1.0,7.0,4.0,1291.9005120002112,3.0,1.0,phase_3,,,,,49.0,1.0,98.0,294.0,147.0,49.0,245.0,196.0,green,cross
0.0,1.0,1.0,0.0,7.0,6.0,1189.7706449999532,3.0,1.0,phase_3,,,,,108.0,2.0,216.0,324.0,162.0,270.0,54.0,108.0,white,square
0.0,6.0,2.0,1.0,7.0,1.0,870.1543349998246,3.0,1.0,phase_3,,,,,176.0,4.0,176.0,44.0,132.0,220.0,264.0,88.0,gray,diamond
0.0,3.0,3.0,0.0,7.0,5.0,1318.8189530001182,3.0,1.0,phase_3,,,,,162.0,3.0,108.0,216.0,54.0,270.0,162.0,324.0,yellow,hexagon
0.0,1.0,1.0,0.0,7.0,2.0,1062.6997059998755,3.0,1.0,phase_3,,,,,216.0,4.0,54.0,216.0,270.0,162.0,324.0,108.0,white,square
0.0,1.0,1.0,0.0,7.0,1.0,430.9847620006621,3.0,1.0,phase_3,,,,,156.0,4.0,156.0,78.0,117.0,39.0,234.0,195.0,white,square
0.0,8.0,4.0,1.0,7.0,4.0,853.1098519997613,3.0,1.0,phase_3,,,,,88.0,2.0,220.0,264.0,132.0,88.0,44.0,176.0,green,cross
0.0,4.0,4.0,0.0,7.0,2.0,414.60378600004327,3.0,1.0,phase_3,,,,,49.0,1.0,294.0,49.0,147.0,196.0,98.0,245.0,cyan,I
0.0,5.0,1.0,1.0,7.0,4.0,677.0170520003376,3.0,1.0,phase_3,,,,,78.0,2.0,234.0,195.0,156.0,78.0,39.0,117.0,orange,circle
0.0,7.0,3.0,1.0,7.0,3.0,638.3445359997495,3.0,1.0,phase_3,,,,,147.0,3.0,196.0,98.0,147.0,294.0,245.0,49.0,blue,flipped triangle
0.0,4.0,4.0,0.0,7.0,4.0,801.9034199996895,3.0,1.0,phase_3,,,,,108.0,2.0,270.0,162.0,324.0,108.0,54.0,216.0,cyan,I
0.0,7.0,3.0,1.0,7.0,1.0,848.9573679999012,3.0,1.0,phase_3,,,,,78.0,2.0,78.0,234.0,39.0,117.0,195.0,156.0,blue,flipped triangle
0.0,8.0,4.0,1.0,7.0,5.0,864.0472030001547,3.0,1.0,phase_3,,,,,156.0,4.0,195.0,117.0,39.0,78.0,156.0,234.0,green,cross
0.0,6.0,2.0,1.0,7.0,3.0,1075.9875930007183,3.0,1.0,phase_3,,,,,216.0,4.0,324.0,108.0,216.0,54.0,162.0,270.0,gray,diamond
0.0,1.0,1.0,0.0,7.0,4.0,617.3811689996,3.0,1.0,phase_3,,,,,147.0,3.0,98.0,294.0,245.0,147.0,49.0,196.0,white,square
0.0,4.0,4.0,0.0,7.0,1.0,829.0372049996222,3.0,1.0,phase_3,,,,,216.0,4.0,216.0,54.0,270.0,162.0,324.0,108.0,cyan,I
0.0,5.0,1.0,1.0,7.0,5.0,630.7234019996031,3.0,1.0,phase_3,,,,,147.0,3.0,98.0,245.0,294.0,196.0,147.0,49.0,orange,circle
0.0,1.0,1.0,0.0,7.0,2.0,857.2129929998482,3.0,1.0,phase_3,,,,,88.0,2.0,132.0,88.0,44.0,264.0,176.0,220.0,white,square
0.0,7.0,3.0,1.0,7.0,1.0,1181.1681159997534,4.0,1.0,phase_3,,,,,108.0,2.0,108.0,324.0,270.0,54.0,162.0,216.0,blue,flipped triangle
0.0,6.0,2.0,1.0,7.0,5.0,862.305412000751,4.0,1.0,phase_3,,,,,294.0,6.0,196.0,147.0,98.0,49.0,294.0,245.0,gray,diamond
0.0,1.0,1.0,0.0,7.0,1.0,1116.2144179997997,4.0,1.0,phase_3,,,,,132.0,3.0,132.0,220.0,264.0,176.0,44.0,88.0,white,square
0.0,3.0,3.0,0.0,7.0,5.0,816.6911029993571,4.0,1.0,phase_3,,,,,49.0,1.0,98.0,294.0,147.0,196.0,49.0,245.0,yellow,hexagon
0.0,7.0,3.0,1.0,7.0,4.0,1210.1693569993586,4.0,1.0,phase_3,,,,,102.0,3.0,204.0,136.0,34.0,102.0,68.0,170.0,blue,flipped triangle
0.0,4.0,4.0,0.0,7.0,3.0,1634.4216739998956,4.0,1.0,phase_3,,,,,117.0,3.0,234.0,39.0,117.0,78.0,156.0,195.0,cyan,I
0.0,2.0,2.0,0.0,7.0,4.0,2482.122096999774,4.0,1.0,phase_3,,,,,39.0,1.0,78.0,195.0,117.0,39.0,234.0,156.0,magenta,triangle
0.0,4.0,4.0,0.0,7.0,2.0,504.3685780001397,4.0,1.0,phase_3,,,,,147.0,3.0,294.0,147.0,98.0,245.0,196.0,49.0,cyan,I
0.0,7.0,3.0,1.0,7.0,1.0,1057.7512990003015,4.0,1.0,phase_3,,,,,44.0,1.0,44.0,220.0,264.0,132.0,176.0,88.0,blue,flipped triangle
0.0,2.0,2.0,0.0,7.0,5.0,808.2748659999197,4.0,1.0,phase_3,,,,,49.0,1.0,294.0,245.0,196.0,98.0,49.0,147.0,magenta,triangle
0.0,7.0,3.0,1.0,7.0,2.0,470.3953000007459,4.0,1.0,phase_3,,,,,39.0,1.0,195.0,39.0,156.0,117.0,234.0,78.0,blue,flipped triangle
0.0,2.0,2.0,0.0,7.0,6.0,398.9908730000024,4.0,1.0,phase_3,,,,,245.0,5.0,49.0,98.0,294.0,196.0,147.0,245.0,magenta,triangle
0.0,3.0,3.0,0.0,7.0,2.0,368.4377409999797,4.0,1.0,phase_3,,,,,88.0,2.0,176.0,88.0,44.0,132.0,220.0,264.0,yellow,hexagon
0.0,3.0,3.0,0.0,7.0,5.0,534.9300329999096,4.0,1.0,phase_3,,,,,117.0,3.0,195.0,156.0,78.0,39.0,117.0,234.0,yellow,hexagon
0.0,6.0,2.0,1.0,7.0,4.0,969.3733220001376,4.0,1.0,phase_3,,,,,88.0,2.0,132.0,44.0,176.0,88.0,264.0,220.0,gray,diamond
0.0,8.0,4.0,1.0,7.0,6.0,710.3339989998858,4.0,1.0,phase_3,,,,,270.0,5.0,216.0,108.0,324.0,54.0,162.0,270.0,green,cross
0.0,8.0,4.0,1.0,7.0,2.0,368.738692000079,4.0,1.0,phase_3,,,,,245.0,5.0,294.0,245.0,147.0,98.0,49.0,196.0,green,cross
0.0,6.0,2.0,1.0,7.0,4.0,1305.4076440002973,4.0,1.0,phase_3,,,,,170.0,5.0,136.0,68.0,102.0,170.0,204.0,34.0,gray,diamond
0.0,5.0,1.0,1.0,7.0,1.0,838.4954949997336,4.0,1.0,phase_3,,,,,195.0,5.0,195.0,117.0,234.0,78.0,39.0,156.0,orange,circle
0.0,4.0,4.0,0.0,7.0,6.0,1107.4724489999426,4.0,1.0,phase_3,,,,,176.0,4.0,220.0,88.0,44.0,264.0,132.0,176.0,cyan,I
