raw_reward_magnitude,stim_reward,stepwise_reward_magnitude,paired_with_stopping,stim_location,response,reaction_time,block,num_trial_presentations,which_phase,stop_signal_trial_type,left_SSD,right_SSD,accuracy,chosen_bidding_amount,chosen_bidding_level,possible_bid_1,possible_bid_2,possible_bid_3,possible_bid_4,possible_bid_5,possible_bid_6,color_text,shape_text
0.0,5.0,0.0,1.0,4.0,4.0,412.5128220000533,1.0,1.0,phase_1,,,,,,,,,,,,,white,triangle
0.0,6.0,0.0,1.0,3.0,3.0,332.9439359999924,1.0,1.0,phase_1,,,,,,,,,,,,,cyan,diamond
175.0,7.0,2.0,1.0,3.0,3.0,340.4588569999305,1.0,1.0,phase_1,,,,,,,,,,,,,magenta,I
78.0,2.0,1.0,0.0,3.0,3.0,347.7378399998088,1.0,1.0,phase_1,,,,,,,,,,,,,green,hexagon
0.0,4.0,0.0,0.0,4.0,4.0,365.556258000197,1.0,1.0,phase_1,,,,,,,,,,,,,gray,circle
67.0,1.0,0.5,0.0,1.0,1.0,329.8493210002107,1.0,1.0,phase_1,,,,,,,,,,,,,orange,square
385.0,4.0,4.0,0.0,4.0,4.0,309.8587550000502,1.0,1.0,phase_1,,,,,,,,,,,,,gray,circle
68.0,5.0,0.5,1.0,3.0,3.0,345.1569039998503,1.0,1.0,phase_1,,,,,,,,,,,,,white,triangle
0.0,4.0,0.0,0.0,4.0,4.0,321.7134750000241,1.0,1.0,phase_1,,,,,,,,,,,,,gray,circle
52.0,1.0,0.5,0.0,4.0,4.0,327.6101260000814,1.0,1.0,phase_1,,,,,,,,,,,,,orange,square
68.0,1.0,0.5,0.0,2.0,2.0,334.3287920001785,1.0,1.0,phase_1,,,,,,,,,,,,,orange,square
38.0,5.0,0.5,1.0,4.0,4.0,314.7213140000531,1.0,1.0,phase_1,,,,,,,,,,,,,white,triangle
60.0,5.0,0.5,1.0,4.0,4.0,300.5356859998755,1.0,1.0,phase_1,,,,,,,,,,,,,white,triangle
391.0,8.0,4.0,1.0,4.0,4.0,314.7071920000144,1.0,1.0,phase_1,,,,,,,,,,,,,blue,cross
52.0,5.0,0.5,1.0,3.0,3.0,323.5848449999139,1.0,1.0,phase_1,,,,,,,,,,,,,white,triangle
114.0,2.0,1.0,0.0,1.0,1.0,297.9043149998688,1.0,1.0,phase_1,,,,,,,,,,,,,green,hexagon
115.0,2.0,1.0,0.0,2.0,2.0,326.1920100001134,1.0,1.0,phase_1,,,,,,,,,,,,,green,hexagon
67.0,1.0,0.5,0.0,1.0,1.0,348.1682629999341,1.0,1.0,phase_1,,,,,,,,,,,,,orange,square
124.0,2.0,1.0,0.0,2.0,2.0,332.7432399998997,1.0,1.0,phase_1,,,,,,,,,,,,,green,hexagon
0.0,1.0,0.0,0.0,4.0,4.0,329.9506670000482,1.0,1.0,phase_1,,,,,,,,,,,,,orange,square
0.0,4.0,0.0,0.0,4.0,4.0,318.1533639999543,1.0,1.0,phase_1,,,,,,,,,,,,,gray,circle
0.0,6.0,0.0,1.0,4.0,4.0,345.6474140000409,1.0,1.0,phase_1,,,,,,,,,,,,,cyan,diamond
407.0,8.0,4.0,1.0,1.0,1.0,301.0173319999012,1.0,1.0,phase_1,,,,,,,,,,,,,blue,cross
125.0,2.0,1.0,0.0,1.0,1.0,345.3249890001189,1.0,1.0,phase_1,,,,,,,,,,,,,green,hexagon
206.0,7.0,2.0,1.0,1.0,1.0,306.2430959998892,1.0,1.0,phase_1,,,,,,,,,,,,,magenta,I
393.0,4.0,4.0,0.0,2.0,2.0,322.4787409999408,1.0,1.0,phase_1,,,,,,,,,,,,,gray,circle
192.0,3.0,2.0,0.0,1.0,1.0,301.8954040001063,1.0,1.0,phase_1,,,,,,,,,,,,,yellow,flipped triangle
225.0,7.0,2.0,1.0,2.0,2.0,302.8948690000561,1.0,1.0,phase_1,,,,,,,,,,,,,magenta,I
387.0,8.0,4.0,1.0,3.0,3.0,370.1648820001537,1.0,2.0,phase_1,,,,,,,,,,,,,blue,cross
125.0,6.0,1.0,1.0,3.0,3.0,384.106236999969,1.0,1.0,phase_1,,,,,,,,,,,,,cyan,diamond
198.0,3.0,2.0,0.0,3.0,3.0,327.0132059999469,1.0,1.0,phase_1,,,,,,,,,,,,,yellow,flipped triangle
76.0,2.0,1.0,0.0,3.0,3.0,344.7895709998647,1.0,1.0,phase_1,,,,,,,,,,,,,green,hexagon
201.0,7.0,2.0,1.0,3.0,3.0,352.1834840000792,1.0,1.0,phase_1,,,,,,,,,,,,,magenta,I
398.0,4.0,4.0,0.0,4.0,4.0,350.8068930000263,1.0,1.0,phase_1,,,,,,,,,,,,,gray,circle
85.0,2.0,1.0,0.0,3.0,3.0,327.1236919999865,1.0,1.0,phase_1,,,,,,,,,,,,,green,hexagon
406.0,4.0,4.0,0.0,4.0,4.0,303.3184789999268,1.0,1.0,phase_1,,,,,,,,,,,,,gray,circle
50.0,5.0,0.5,1.0,2.0,2.0,319.1862279998076,1.0,1.0,phase_1,,,,,,,,,,,,,white,triangle
0.0,8.0,0.0,1.0,2.0,2.0,359.7609209998609,1.0,1.0,phase_1,,,,,,,,,,,,,blue,cross
179.0,7.0,2.0,1.0,2.0,2.0,348.4642470000381,1.0,1.0,phase_1,,,,,,,,,,,,,magenta,I
219.0,7.0,2.0,1.0,1.0,1.0,328.6279970000123,1.0,1.0,phase_1,,,,,,,,,,,,,magenta,I
119.0,2.0,1.0,0.0,1.0,1.0,359.3781909999052,1.0,1.0,phase_1,,,,,,,,,,,,,green,hexagon
419.0,8.0,4.0,1.0,2.0,2.0,328.9924460000293,1.0,1.0,phase_1,,,,,,,,,,,,,blue,cross
185.0,7.0,2.0,1.0,1.0,1.0,310.8746309999333,1.0,1.0,phase_1,,,,,,,,,,,,,magenta,I
0.0,5.0,0.0,1.0,3.0,3.0,304.4862209999337,1.0,1.0,phase_1,,,,,,,,,,,,,white,triangle
206.0,3.0,2.0,0.0,2.0,2.0,350.4283510001187,1.0,1.0,phase_1,,,,,,,,,,,,,yellow,flipped triangle
35.0,5.0,0.5,1.0,4.0,4.0,330.5691030000162,1.0,1.0,phase_1,,,,,,,,,,,,,white,triangle
186.0,3.0,2.0,0.0,2.0,2.0,314.4825169999876,1.0,1.0,phase_1,,,,,,,,,,,,,yellow,flipped triangle
33.0,1.0,0.5,0.0,2.0,2.0,345.5698010000105,1.0,1.0,phase_1,,,,,,,,,,,,,orange,square
0.0,8.0,0.0,1.0,4.0,4.0,343.4680369998659,1.0,1.0,phase_1,,,,,,,,,,,,,blue,cross
0.0,8.0,0.0,1.0,2.0,2.0,316.226424999968,1.0,1.0,phase_1,,,,,,,,,,,,,blue,cross
217.0,3.0,2.0,0.0,1.0,1.0,336.0170150001522,1.0,1.0,phase_1,,,,,,,,,,,,,yellow,flipped triangle
220.0,7.0,2.0,1.0,1.0,1.0,348.6442040000383,1.0,1.0,phase_1,,,,,,,,,,,,,magenta,I
406.0,8.0,4.0,1.0,3.0,3.0,343.3516110001164,1.0,1.0,phase_1,,,,,,,,,,,,,blue,cross
47.0,5.0,0.5,1.0,2.0,2.0,320.1586059999499,1.0,1.0,phase_1,,,,,,,,,,,,,white,triangle
92.0,2.0,1.0,0.0,4.0,4.0,331.2708880000627,1.0,1.0,phase_1,,,,,,,,,,,,,green,hexagon
202.0,7.0,2.0,1.0,2.0,2.0,293.7702110000373,1.0,1.0,phase_1,,,,,,,,,,,,,magenta,I
401.0,8.0,4.0,1.0,2.0,2.0,385.93186999992207,1.0,1.0,phase_1,,,,,,,,,,,,,blue,cross
206.0,7.0,2.0,1.0,2.0,2.0,324.659863000079,1.0,1.0,phase_1,,,,,,,,,,,,,magenta,I
72.0,5.0,0.5,1.0,4.0,4.0,300.0204679999569,1.0,1.0,phase_1,,,,,,,,,,,,,white,triangle
96.0,2.0,1.0,0.0,4.0,4.0,314.8193399999854,1.0,1.0,phase_1,,,,,,,,,,,,,green,hexagon
42.0,5.0,0.5,1.0,4.0,4.0,357.0666589998836,1.0,1.0,phase_1,,,,,,,,,,,,,white,triangle
402.0,8.0,4.0,1.0,4.0,4.0,320.9385700001803,1.0,1.0,phase_1,,,,,,,,,,,,,blue,cross
67.0,5.0,0.5,1.0,2.0,2.0,331.0150449999582,1.0,1.0,phase_1,,,,,,,,,,,,,white,triangle
0.0,2.0,0.0,0.0,2.0,2.0,347.7966360001119,1.0,1.0,phase_1,,,,,,,,,,,,,green,hexagon
0.0,7.0,0.0,1.0,4.0,4.0,336.791003999906,1.0,1.0,phase_1,,,,,,,,,,,,,magenta,I
223.0,7.0,2.0,1.0,3.0,3.0,361.9400109998878,1.0,1.0,phase_1,,,,,,,,,,,,,magenta,I
184.0,3.0,2.0,0.0,1.0,1.0,346.0268159999486,1.0,1.0,phase_1,,,,,,,,,,,,,yellow,flipped triangle
0.0,8.0,0.0,1.0,1.0,1.0,388.7285299999803,1.0,1.0,phase_1,,,,,,,,,,,,,blue,cross
124.0,2.0,1.0,0.0,3.0,3.0,347.833405999836,1.0,1.0,phase_1,,,,,,,,,,,,,green,hexagon
386.0,4.0,4.0,0.0,2.0,2.0,357.8002310000556,1.0,1.0,phase_1,,,,,,,,,,,,,gray,circle
104.0,6.0,1.0,1.0,1.0,1.0,348.3562490000622,1.0,1.0,phase_1,,,,,,,,,,,,,cyan,diamond
203.0,7.0,2.0,1.0,4.0,4.0,374.4054639998921,1.0,1.0,phase_1,,,,,,,,,,,,,magenta,I
67.0,1.0,0.5,0.0,2.0,2.0,342.5253709999651,1.0,1.0,phase_1,,,,,,,,,,,,,orange,square
0.0,7.0,0.0,1.0,3.0,3.0,345.4343640000843,1.0,1.0,phase_1,,,,,,,,,,,,,magenta,I
0.0,2.0,0.0,0.0,3.0,3.0,346.812577999799,1.0,1.0,phase_1,,,,,,,,,,,,,green,hexagon
77.0,2.0,1.0,0.0,4.0,4.0,345.096569999896,1.0,1.0,phase_1,,,,,,,,,,,,,green,hexagon
115.0,6.0,1.0,1.0,1.0,1.0,326.793311000074,1.0,1.0,phase_1,,,,,,,,,,,,,cyan,diamond
184.0,7.0,2.0,1.0,2.0,2.0,320.657613000094,1.0,1.0,phase_1,,,,,,,,,,,,,magenta,I
86.0,2.0,1.0,0.0,2.0,2.0,348.0983740000738,1.0,1.0,phase_1,,,,,,,,,,,,,green,hexagon
402.0,4.0,4.0,0.0,3.0,3.0,322.7781519999553,1.0,1.0,phase_1,,,,,,,,,,,,,gray,circle
124.0,6.0,1.0,1.0,1.0,1.0,329.355532000136,1.0,1.0,phase_1,,,,,,,,,,,,,cyan,diamond
76.0,2.0,1.0,0.0,3.0,3.0,314.9183430000448,1.0,1.0,phase_1,,,,,,,,,,,,,green,hexagon
27.0,5.0,0.5,1.0,3.0,3.0,357.0907769999394,1.0,1.0,phase_1,,,,,,,,,,,,,white,triangle
206.0,3.0,2.0,0.0,1.0,1.0,349.4636600000831,1.0,1.0,phase_1,,,,,,,,,,,,,yellow,flipped triangle
198.0,7.0,2.0,1.0,3.0,3.0,335.2243429999362,1.0,1.0,phase_1,,,,,,,,,,,,,magenta,I
0.0,5.0,0.0,1.0,2.0,2.0,336.4702339999894,1.0,1.0,phase_1,,,,,,,,,,,,,white,triangle
207.0,7.0,2.0,1.0,3.0,3.0,338.7806490000002,1.0,1.0,phase_1,,,,,,,,,,,,,magenta,I
124.0,6.0,1.0,1.0,1.0,1.0,345.162006999999,1.0,1.0,phase_1,,,,,,,,,,,,,cyan,diamond
67.0,5.0,0.5,1.0,4.0,4.0,345.1112879999982,1.0,1.0,phase_1,,,,,,,,,,,,,white,triangle
51.0,5.0,0.5,1.0,1.0,1.0,359.4228829999792,1.0,1.0,phase_1,,,,,,,,,,,,,white,triangle
0.0,2.0,0.0,0.0,3.0,3.0,347.6187100000061,1.0,1.0,phase_1,,,,,,,,,,,,,green,hexagon
422.0,8.0,4.0,1.0,1.0,1.0,334.4232890001422,1.0,1.0,phase_1,,,,,,,,,,,,,blue,cross
67.0,5.0,0.5,1.0,2.0,2.0,335.2607060000991,1.0,1.0,phase_1,,,,,,,,,,,,,white,triangle
0.0,4.0,0.0,0.0,2.0,2.0,365.2924079999593,1.0,1.0,phase_1,,,,,,,,,,,,,gray,circle
0.0,4.0,0.0,0.0,3.0,3.0,348.8194799999746,1.0,1.0,phase_1,,,,,,,,,,,,,gray,circle
403.0,8.0,4.0,1.0,2.0,2.0,328.8673989998187,1.0,1.0,phase_1,,,,,,,,,,,,,blue,cross
192.0,3.0,2.0,0.0,2.0,2.0,355.5437200000142,1.0,1.0,phase_1,,,,,,,,,,,,,yellow,flipped triangle
220.0,7.0,2.0,1.0,4.0,4.0,481.9274030000997,1.0,1.0,phase_1,,,,,,,,,,,,,magenta,I
407.0,4.0,4.0,0.0,4.0,4.0,385.2868860001308,1.0,1.0,phase_1,,,,,,,,,,,,,gray,circle
376.0,4.0,4.0,0.0,3.0,3.0,381.6777610002191,1.0,1.0,phase_1,,,,,,,,,,,,,gray,circle
48.0,1.0,0.5,0.0,3.0,3.0,422.6911770001607,2.0,1.0,phase_1,,,,,,,,,,,,,orange,square
387.0,4.0,4.0,0.0,1.0,1.0,367.8765520000979,2.0,1.0,phase_1,,,,,,,,,,,,,gray,circle
217.0,3.0,2.0,0.0,2.0,2.0,329.6311410001635,2.0,1.0,phase_1,,,,,,,,,,,,,yellow,flipped triangle
192.0,7.0,2.0,1.0,2.0,2.0,368.542466000008,2.0,1.0,phase_1,,,,,,,,,,,,,magenta,I
121.0,2.0,1.0,0.0,1.0,1.0,361.9275710000238,2.0,1.0,phase_1,,,,,,,,,,,,,green,hexagon
0.0,8.0,0.0,1.0,4.0,4.0,402.4166419999346,2.0,1.0,phase_1,,,,,,,,,,,,,blue,cross
178.0,3.0,2.0,0.0,3.0,3.0,366.9136539999726,2.0,1.0,phase_1,,,,,,,,,,,,,yellow,flipped triangle
0.0,1.0,0.0,0.0,1.0,1.0,359.1088789999048,2.0,1.0,phase_1,,,,,,,,,,,,,orange,square
115.0,6.0,1.0,1.0,4.0,4.0,357.5496519999888,2.0,1.0,phase_1,,,,,,,,,,,,,cyan,diamond
188.0,3.0,2.0,0.0,4.0,4.0,326.7777930000193,2.0,1.0,phase_1,,,,,,,,,,,,,yellow,flipped triangle
414.0,8.0,4.0,1.0,2.0,2.0,319.9410419999822,2.0,1.0,phase_1,,,,,,,,,,,,,blue,cross
0.0,2.0,0.0,0.0,4.0,4.0,308.5921019999205,2.0,1.0,phase_1,,,,,,,,,,,,,green,hexagon
194.0,3.0,2.0,0.0,4.0,4.0,300.5885320001198,2.0,1.0,phase_1,,,,,,,,,,,,,yellow,flipped triangle
220.0,3.0,2.0,0.0,1.0,1.0,320.1349019998361,2.0,1.0,phase_1,,,,,,,,,,,,,yellow,flipped triangle
417.0,8.0,4.0,1.0,3.0,3.0,338.9195250001648,2.0,1.0,phase_1,,,,,,,,,,,,,blue,cross
114.0,6.0,1.0,1.0,2.0,2.0,327.6919019999695,2.0,1.0,phase_1,,,,,,,,,,,,,cyan,diamond
37.0,1.0,0.5,0.0,4.0,4.0,302.5223739998637,2.0,1.0,phase_1,,,,,,,,,,,,,orange,square
54.0,5.0,0.5,1.0,2.0,2.0,295.3010229998654,2.0,1.0,phase_1,,,,,,,,,,,,,white,triangle
0.0,6.0,0.0,1.0,3.0,3.0,443.7979899998936,2.0,1.0,phase_1,,,,,,,,,,,,,cyan,diamond
422.0,4.0,4.0,0.0,2.0,2.0,357.3183579999295,2.0,1.0,phase_1,,,,,,,,,,,,,gray,circle
50.0,1.0,0.5,0.0,3.0,3.0,355.2922490000583,2.0,1.0,phase_1,,,,,,,,,,,,,orange,square
381.0,8.0,4.0,1.0,2.0,2.0,347.3572610000701,2.0,1.0,phase_1,,,,,,,,,,,,,blue,cross
64.0,5.0,0.5,1.0,2.0,2.0,360.9503109998968,2.0,1.0,phase_1,,,,,,,,,,,,,white,triangle
107.0,6.0,1.0,1.0,1.0,1.0,389.6150609998585,2.0,1.0,phase_1,,,,,,,,,,,,,cyan,diamond
114.0,2.0,1.0,0.0,4.0,4.0,364.2006539998874,2.0,1.0,phase_1,,,,,,,,,,,,,green,hexagon
406.0,8.0,4.0,1.0,4.0,4.0,327.263376000019,2.0,1.0,phase_1,,,,,,,,,,,,,blue,cross
175.0,3.0,2.0,0.0,2.0,2.0,320.7437770001888,2.0,1.0,phase_1,,,,,,,,,,,,,yellow,flipped triangle
378.0,8.0,4.0,1.0,1.0,1.0,307.787603999941,2.0,1.0,phase_1,,,,,,,,,,,,,blue,cross
0.0,1.0,0.0,0.0,3.0,3.0,299.5949680000649,2.0,1.0,phase_1,,,,,,,,,,,,,orange,square
0.0,6.0,0.0,1.0,1.0,1.0,317.7513229998112,2.0,1.0,phase_1,,,,,,,,,,,,,cyan,diamond
0.0,1.0,0.0,0.0,1.0,1.0,371.3375279999127,2.0,1.0,phase_1,,,,,,,,,,,,,orange,square
419.0,4.0,4.0,0.0,3.0,3.0,376.8221010000161,2.0,1.0,phase_1,,,,,,,,,,,,,gray,circle
47.0,1.0,0.5,0.0,4.0,4.0,359.8395090000394,2.0,1.0,phase_1,,,,,,,,,,,,,orange,square
0.0,5.0,0.0,1.0,4.0,4.0,334.1616969998995,2.0,1.0,phase_1,,,,,,,,,,,,,white,triangle
376.0,8.0,4.0,1.0,1.0,1.0,302.1296660001553,2.0,1.0,phase_1,,,,,,,,,,,,,blue,cross
377.0,8.0,4.0,1.0,2.0,2.0,305.5818429997998,2.0,1.0,phase_1,,,,,,,,,,,,,blue,cross
0.0,3.0,0.0,0.0,1.0,1.0,350.1465289998577,2.0,1.0,phase_1,,,,,,,,,,,,,yellow,flipped triangle
0.0,8.0,0.0,1.0,1.0,1.0,340.6419919999734,2.0,1.0,phase_1,,,,,,,,,,,,,blue,cross
210.0,7.0,2.0,1.0,3.0,3.0,356.3440789998822,2.0,1.0,phase_1,,,,,,,,,,,,,magenta,I
42.0,1.0,0.5,0.0,2.0,2.0,326.2029210000037,2.0,1.0,phase_1,,,,,,,,,,,,,orange,square
207.0,3.0,2.0,0.0,4.0,4.0,313.5787620001338,2.0,1.0,phase_1,,,,,,,,,,,,,yellow,flipped triangle
90.0,2.0,1.0,0.0,1.0,1.0,301.6032559999075,2.0,1.0,phase_1,,,,,,,,,,,,,green,hexagon
197.0,3.0,2.0,0.0,2.0,2.0,333.0140810001012,2.0,1.0,phase_1,,,,,,,,,,,,,yellow,flipped triangle
0.0,6.0,0.0,1.0,1.0,1.0,341.6691600000376,2.0,1.0,phase_1,,,,,,,,,,,,,cyan,diamond
56.0,5.0,0.5,1.0,1.0,1.0,338.9396049999504,2.0,1.0,phase_1,,,,,,,,,,,,,white,triangle
0.0,2.0,0.0,0.0,1.0,1.0,325.8822450000025,2.0,1.0,phase_1,,,,,,,,,,,,,green,hexagon
90.0,6.0,1.0,1.0,3.0,3.0,343.6178550000477,2.0,1.0,phase_1,,,,,,,,,,,,,cyan,diamond
96.0,6.0,1.0,1.0,4.0,4.0,326.6564529999414,2.0,1.0,phase_1,,,,,,,,,,,,,cyan,diamond
0.0,3.0,0.0,0.0,1.0,1.0,289.827994999996,2.0,1.0,phase_1,,,,,,,,,,,,,yellow,flipped triangle
378.0,4.0,4.0,0.0,1.0,1.0,346.8212070001755,2.0,1.0,phase_1,,,,,,,,,,,,,gray,circle
406.0,4.0,4.0,0.0,4.0,4.0,369.4328020001194,2.0,1.0,phase_1,,,,,,,,,,,,,gray,circle
0.0,4.0,0.0,0.0,4.0,4.0,357.1020589999989,2.0,1.0,phase_1,,,,,,,,,,,,,gray,circle
83.0,2.0,1.0,0.0,3.0,3.0,361.0110980000627,2.0,1.0,phase_1,,,,,,,,,,,,,green,hexagon
115.0,2.0,1.0,0.0,4.0,4.0,348.8302680000288,2.0,1.0,phase_1,,,,,,,,,,,,,green,hexagon
393.0,8.0,4.0,1.0,2.0,2.0,321.4472580000347,2.0,1.0,phase_1,,,,,,,,,,,,,blue,cross
0.0,2.0,0.0,0.0,4.0,4.0,322.7445190000253,2.0,1.0,phase_1,,,,,,,,,,,,,green,hexagon
214.0,3.0,2.0,0.0,4.0,4.0,345.5011169999125,2.0,1.0,phase_1,,,,,,,,,,,,,yellow,flipped triangle
386.0,4.0,4.0,0.0,4.0,4.0,337.4574370000118,2.0,1.0,phase_1,,,,,,,,,,,,,gray,circle
388.0,4.0,4.0,0.0,1.0,1.0,355.6694659998811,2.0,1.0,phase_1,,,,,,,,,,,,,gray,circle
0.0,2.0,0.0,0.0,4.0,4.0,311.6917030001787,2.0,1.0,phase_1,,,,,,,,,,,,,green,hexagon
198.0,7.0,2.0,1.0,1.0,1.0,373.0358550001256,2.0,1.0,phase_1,,,,,,,,,,,,,magenta,I
46.0,5.0,0.5,1.0,2.0,2.0,312.5740279999718,2.0,1.0,phase_1,,,,,,,,,,,,,white,triangle
210.0,7.0,2.0,1.0,2.0,2.0,374.2687589999605,2.0,1.0,phase_1,,,,,,,,,,,,,magenta,I
210.0,3.0,2.0,0.0,1.0,1.0,339.2191220000313,2.0,1.0,phase_1,,,,,,,,,,,,,yellow,flipped triangle
190.0,3.0,2.0,0.0,3.0,3.0,331.6470790000494,2.0,1.0,phase_1,,,,,,,,,,,,,yellow,flipped triangle
67.0,5.0,0.5,1.0,2.0,2.0,332.7881279999474,2.0,1.0,phase_1,,,,,,,,,,,,,white,triangle
223.0,3.0,2.0,0.0,4.0,4.0,289.2745110000305,2.0,1.0,phase_1,,,,,,,,,,,,,yellow,flipped triangle
109.0,2.0,1.0,0.0,3.0,3.0,327.5097959999584,2.0,1.0,phase_1,,,,,,,,,,,,,green,hexagon
65.0,5.0,0.5,1.0,3.0,3.0,375.4828889998407,2.0,1.0,phase_1,,,,,,,,,,,,,white,triangle
212.0,3.0,2.0,0.0,1.0,1.0,336.7417949998526,2.0,1.0,phase_1,,,,,,,,,,,,,yellow,flipped triangle
378.0,4.0,4.0,0.0,1.0,1.0,376.9702990000496,2.0,1.0,phase_1,,,,,,,,,,,,,gray,circle
28.0,1.0,0.5,0.0,1.0,1.0,367.1380460000364,2.0,1.0,phase_1,,,,,,,,,,,,,orange,square
423.0,4.0,4.0,0.0,2.0,2.0,372.0382920000702,2.0,1.0,phase_1,,,,,,,,,,,,,gray,circle
210.0,3.0,2.0,0.0,3.0,3.0,326.8994529998963,2.0,1.0,phase_1,,,,,,,,,,,,,yellow,flipped triangle
0.0,5.0,0.0,1.0,2.0,2.0,307.4615309999444,2.0,1.0,phase_1,,,,,,,,,,,,,white,triangle
0.0,1.0,0.0,0.0,3.0,3.0,332.2774439998284,2.0,1.0,phase_1,,,,,,,,,,,,,orange,square
36.0,1.0,0.5,0.0,1.0,1.0,301.3254859999961,2.0,1.0,phase_1,,,,,,,,,,,,,orange,square
192.0,7.0,2.0,1.0,4.0,4.0,283.1772639999599,2.0,1.0,phase_1,,,,,,,,,,,,,magenta,I
92.0,6.0,1.0,1.0,2.0,2.0,288.025972000014,2.0,1.0,phase_1,,,,,,,,,,,,,cyan,diamond
25.0,5.0,0.5,1.0,1.0,1.0,332.858521000162,2.0,1.0,phase_1,,,,,,,,,,,,,white,triangle
217.0,7.0,2.0,1.0,3.0,3.0,651.9564099999116,2.0,1.0,phase_1,,,,,,,,,,,,,magenta,I
112.0,6.0,1.0,1.0,3.0,3.0,360.7980100000532,2.0,1.0,phase_1,,,,,,,,,,,,,cyan,diamond
0.0,4.0,0.0,0.0,4.0,4.0,330.4592389999925,2.0,1.0,phase_1,,,,,,,,,,,,,gray,circle
37.0,5.0,0.5,1.0,4.0,4.0,319.8498369999925,2.0,1.0,phase_1,,,,,,,,,,,,,white,triangle
393.0,8.0,4.0,1.0,3.0,3.0,329.931550999845,2.0,1.0,phase_1,,,,,,,,,,,,,blue,cross
0.0,8.0,0.0,1.0,2.0,2.0,311.7039219998787,2.0,1.0,phase_1,,,,,,,,,,,,,blue,cross
202.0,3.0,2.0,0.0,1.0,1.0,315.9150070000578,2.0,1.0,phase_1,,,,,,,,,,,,,yellow,flipped triangle
99.0,2.0,1.0,0.0,3.0,3.0,350.8812269999453,2.0,1.0,phase_1,,,,,,,,,,,,,green,hexagon
104.0,6.0,1.0,1.0,3.0,3.0,321.5487289999146,2.0,1.0,phase_1,,,,,,,,,,,,,cyan,diamond
110.0,6.0,1.0,1.0,3.0,3.0,322.09007100004777,2.0,1.0,phase_1,,,,,,,,,,,,,cyan,diamond
83.0,6.0,1.0,1.0,2.0,2.0,307.0100390000334,2.0,1.0,phase_1,,,,,,,,,,,,,cyan,diamond
0.0,5.0,0.0,1.0,4.0,4.0,279.1052049999507,2.0,1.0,phase_1,,,,,,,,,,,,,white,triangle
28.0,5.0,0.5,1.0,4.0,4.0,321.3851119999162,2.0,1.0,phase_1,,,,,,,,,,,,,white,triangle
197.0,7.0,2.0,1.0,4.0,4.0,367.0326090000344,2.0,1.0,phase_1,,,,,,,,,,,,,magenta,I
84.0,2.0,1.0,0.0,4.0,4.0,372.5883719998819,2.0,1.0,phase_1,,,,,,,,,,,,,green,hexagon
0.0,5.0,0.0,1.0,3.0,3.0,320.3042469999673,2.0,1.0,phase_1,,,,,,,,,,,,,white,triangle
27.0,1.0,0.5,0.0,3.0,3.0,327.0286660001602,2.0,1.0,phase_1,,,,,,,,,,,,,orange,square
423.0,8.0,4.0,1.0,3.0,3.0,356.8040410000321,2.0,1.0,phase_1,,,,,,,,,,,,,blue,cross
201.0,3.0,2.0,0.0,1.0,1.0,338.6531319999903,2.0,1.0,phase_1,,,,,,,,,,,,,yellow,flipped triangle
33.0,5.0,0.5,1.0,1.0,1.0,347.4332460000369,2.0,1.0,phase_1,,,,,,,,,,,,,white,triangle
177.0,3.0,2.0,0.0,4.0,4.0,368.4937040000022,3.0,1.0,phase_1,,,,,,,,,,,,,yellow,flipped triangle
188.0,7.0,2.0,1.0,1.0,1.0,346.1211010001079,3.0,1.0,phase_1,,,,,,,,,,,,,magenta,I
187.0,3.0,2.0,0.0,4.0,4.0,319.8706190000848,3.0,1.0,phase_1,,,,,,,,,,,,,yellow,flipped triangle
86.0,6.0,1.0,1.0,4.0,4.0,302.3233409999193,3.0,1.0,phase_1,,,,,,,,,,,,,cyan,diamond
420.0,8.0,4.0,1.0,1.0,1.0,298.7826240000686,3.0,1.0,phase_1,,,,,,,,,,,,,blue,cross
210.0,3.0,2.0,0.0,2.0,2.0,332.0481650000602,3.0,1.0,phase_1,,,,,,,,,,,,,yellow,flipped triangle
71.0,5.0,0.5,1.0,3.0,3.0,320.7926579998457,3.0,1.0,phase_1,,,,,,,,,,,,,white,triangle
384.0,8.0,4.0,1.0,4.0,4.0,297.5314369998614,3.0,1.0,phase_1,,,,,,,,,,,,,blue,cross
109.0,6.0,1.0,1.0,2.0,2.0,334.652989999995,3.0,1.0,phase_1,,,,,,,,,,,,,cyan,diamond
56.0,1.0,0.5,0.0,4.0,4.0,327.0295840000017,3.0,1.0,phase_1,,,,,,,,,,,,,orange,square
407.0,4.0,4.0,0.0,4.0,4.0,349.6712040000602,3.0,1.0,phase_1,,,,,,,,,,,,,gray,circle
56.0,1.0,0.5,0.0,1.0,1.0,297.4859580001521,3.0,1.0,phase_1,,,,,,,,,,,,,orange,square
54.0,1.0,0.5,0.0,4.0,4.0,289.4883950000348,3.0,1.0,phase_1,,,,,,,,,,,,,orange,square
405.0,4.0,4.0,0.0,2.0,2.0,328.4558860000288,3.0,1.0,phase_1,,,,,,,,,,,,,gray,circle
0.0,5.0,0.0,1.0,4.0,4.0,320.9185929999876,3.0,1.0,phase_1,,,,,,,,,,,,,white,triangle
114.0,6.0,1.0,1.0,2.0,2.0,285.9131980001166,3.0,1.0,phase_1,,,,,,,,,,,,,cyan,diamond
28.0,5.0,0.5,1.0,3.0,3.0,335.1187650000611,3.0,1.0,phase_1,,,,,,,,,,,,,white,triangle
217.0,7.0,2.0,1.0,2.0,2.0,325.9005890001845,3.0,1.0,phase_1,,,,,,,,,,,,,magenta,I
36.0,5.0,0.5,1.0,3.0,3.0,345.4667019998396,3.0,1.0,phase_1,,,,,,,,,,,,,white,triangle
190.0,7.0,2.0,1.0,3.0,3.0,346.1559529998794,3.0,1.0,phase_1,,,,,,,,,,,,,magenta,I
0.0,3.0,0.0,0.0,4.0,4.0,336.2635470000441,3.0,1.0,phase_1,,,,,,,,,,,,,yellow,flipped triangle
206.0,3.0,2.0,0.0,2.0,2.0,302.0509239997864,3.0,1.0,phase_1,,,,,,,,,,,,,yellow,flipped triangle
110.0,2.0,1.0,0.0,2.0,2.0,339.2053039999609,3.0,1.0,phase_1,,,,,,,,,,,,,green,hexagon
0.0,3.0,0.0,0.0,2.0,2.0,333.4357769999769,3.0,1.0,phase_1,,,,,,,,,,,,,yellow,flipped triangle
0.0,4.0,0.0,0.0,2.0,2.0,346.290609999869,3.0,1.0,phase_1,,,,,,,,,,,,,gray,circle
106.0,2.0,1.0,0.0,4.0,4.0,344.760375000078,3.0,1.0,phase_1,,,,,,,,,,,,,green,hexagon
56.0,1.0,0.5,0.0,1.0,1.0,345.2140829999734,3.0,1.0,phase_1,,,,,,,,,,,,,orange,square
375.0,4.0,4.0,0.0,3.0,3.0,363.0469409999932,3.0,1.0,phase_1,,,,,,,,,,,,,gray,circle
414.0,4.0,4.0,0.0,3.0,3.0,383.0820759999369,3.0,1.0,phase_1,,,,,,,,,,,,,gray,circle
0.0,3.0,0.0,0.0,4.0,4.0,350.2326899999843,3.0,1.0,phase_1,,,,,,,,,,,,,yellow,flipped triangle
36.0,5.0,0.5,1.0,3.0,3.0,352.2969780001403,3.0,1.0,phase_1,,,,,,,,,,,,,white,triangle
405.0,8.0,4.0,1.0,1.0,1.0,363.9244650000819,3.0,1.0,phase_1,,,,,,,,,,,,,blue,cross
120.0,2.0,1.0,0.0,4.0,4.0,370.0602280000566,3.0,1.0,phase_1,,,,,,,,,,,,,green,hexagon
388.0,8.0,4.0,1.0,4.0,4.0,364.4739700000627,3.0,1.0,phase_1,,,,,,,,,,,,,blue,cross
179.0,3.0,2.0,0.0,2.0,2.0,325.4517889999988,3.0,1.0,phase_1,,,,,,,,,,,,,yellow,flipped triangle
186.0,7.0,2.0,1.0,2.0,2.0,332.4837659999957,3.0,1.0,phase_1,,,,,,,,,,,,,magenta,I
95.0,2.0,1.0,0.0,4.0,4.0,317.1747660001074,3.0,1.0,phase_1,,,,,,,,,,,,,green,hexagon
123.0,2.0,1.0,0.0,3.0,3.0,324.4864969999526,3.0,1.0,phase_1,,,,,,,,,,,,,green,hexagon
64.0,1.0,0.5,0.0,4.0,4.0,318.9288789999409,3.0,1.0,phase_1,,,,,,,,,,,,,orange,square
420.0,4.0,4.0,0.0,3.0,3.0,321.8565189999935,3.0,1.0,phase_1,,,,,,,,,,,,,gray,circle
81.0,6.0,1.0,1.0,1.0,1.0,270.7499089999601,3.0,1.0,phase_1,,,,,,,,,,,,,cyan,diamond
28.0,1.0,0.5,0.0,2.0,2.0,301.075548999961,3.0,1.0,phase_1,,,,,,,,,,,,,orange,square
60.0,1.0,0.5,0.0,2.0,2.0,330.685442999993,3.0,1.0,phase_1,,,,,,,,,,,,,orange,square
123.0,6.0,1.0,1.0,3.0,3.0,303.1677349999881,3.0,1.0,phase_1,,,,,,,,,,,,,cyan,diamond
206.0,7.0,2.0,1.0,4.0,4.0,326.8376860000899,3.0,1.0,phase_1,,,,,,,,,,,,,magenta,I
398.0,8.0,4.0,1.0,1.0,1.0,304.1721510001025,3.0,1.0,phase_1,,,,,,,,,,,,,blue,cross
51.0,1.0,0.5,0.0,4.0,4.0,324.1976930000874,3.0,1.0,phase_1,,,,,,,,,,,,,orange,square
43.0,1.0,0.5,0.0,2.0,2.0,311.6128879998996,3.0,1.0,phase_1,,,,,,,,,,,,,orange,square
89.0,2.0,1.0,0.0,1.0,1.0,295.9404730002006,3.0,1.0,phase_1,,,,,,,,,,,,,green,hexagon
416.0,8.0,4.0,1.0,2.0,2.0,343.2866620000823,3.0,1.0,phase_1,,,,,,,,,,,,,blue,cross
104.0,2.0,1.0,0.0,3.0,3.0,343.5807870000644,3.0,1.0,phase_1,,,,,,,,,,,,,green,hexagon
0.0,6.0,0.0,1.0,3.0,3.0,311.5287640000588,3.0,1.0,phase_1,,,,,,,,,,,,,cyan,diamond
0.0,5.0,0.0,1.0,2.0,2.0,315.8072710000397,3.0,1.0,phase_1,,,,,,,,,,,,,white,triangle
223.0,3.0,2.0,0.0,3.0,3.0,315.7916180000484,3.0,1.0,phase_1,,,,,,,,,,,,,yellow,flipped triangle
56.0,5.0,0.5,1.0,4.0,4.0,340.6815499999993,3.0,1.0,phase_1,,,,,,,,,,,,,white,triangle
0.0,8.0,0.0,1.0,3.0,3.0,364.5225029999892,3.0,1.0,phase_1,,,,,,,,,,,,,blue,cross
404.0,4.0,4.0,0.0,2.0,2.0,301.1256519998824,3.0,1.0,phase_1,,,,,,,,,,,,,gray,circle
86.0,6.0,1.0,1.0,2.0,2.0,322.8607329999704,3.0,1.0,phase_1,,,,,,,,,,,,,cyan,diamond
214.0,7.0,2.0,1.0,4.0,4.0,313.4597490000033,3.0,1.0,phase_1,,,,,,,,,,,,,magenta,I
0.0,7.0,0.0,1.0,1.0,1.0,317.0847250000861,3.0,1.0,phase_1,,,,,,,,,,,,,magenta,I
0.0,3.0,0.0,0.0,3.0,3.0,297.9410489999736,3.0,1.0,phase_1,,,,,,,,,,,,,yellow,flipped triangle
0.0,2.0,0.0,0.0,2.0,2.0,277.3844000000736,3.0,1.0,phase_1,,,,,,,,,,,,,green,hexagon
77.0,6.0,1.0,1.0,3.0,3.0,307.9622159998507,3.0,1.0,phase_1,,,,,,,,,,,,,cyan,diamond
76.0,6.0,1.0,1.0,4.0,4.0,327.4951629998668,3.0,1.0,phase_1,,,,,,,,,,,,,cyan,diamond
391.0,4.0,4.0,0.0,1.0,1.0,329.7456550001243,3.0,1.0,phase_1,,,,,,,,,,,,,gray,circle
197.0,7.0,2.0,1.0,2.0,2.0,289.9287400000503,3.0,1.0,phase_1,,,,,,,,,,,,,magenta,I
0.0,6.0,0.0,1.0,1.0,1.0,306.111177000048,3.0,1.0,phase_1,,,,,,,,,,,,,cyan,diamond
46.0,5.0,0.5,1.0,4.0,4.0,329.2107229999601,3.0,1.0,phase_1,,,,,,,,,,,,,white,triangle
0.0,8.0,0.0,1.0,3.0,3.0,346.6897669998161,3.0,1.0,phase_1,,,,,,,,,,,,,blue,cross
392.0,4.0,4.0,0.0,3.0,3.0,339.4397749998461,3.0,1.0,phase_1,,,,,,,,,,,,,gray,circle
104.0,2.0,1.0,0.0,1.0,1.0,333.4488220000366,3.0,1.0,phase_1,,,,,,,,,,,,,green,hexagon
194.0,7.0,2.0,1.0,3.0,3.0,331.875539000066,3.0,1.0,phase_1,,,,,,,,,,,,,magenta,I
106.0,6.0,1.0,1.0,4.0,4.0,323.9099679999526,3.0,1.0,phase_1,,,,,,,,,,,,,cyan,diamond
403.0,4.0,4.0,0.0,1.0,1.0,332.9992149999725,3.0,1.0,phase_1,,,,,,,,,,,,,gray,circle
43.0,5.0,0.5,1.0,1.0,1.0,320.4847570000311,3.0,1.0,phase_1,,,,,,,,,,,,,white,triangle
72.0,1.0,0.5,0.0,4.0,4.0,314.3583280000257,3.0,1.0,phase_1,,,,,,,,,,,,,orange,square
413.0,8.0,4.0,1.0,4.0,4.0,334.1582320001635,3.0,1.0,phase_1,,,,,,,,,,,,,blue,cross
404.0,8.0,4.0,1.0,2.0,2.0,309.3757210001513,3.0,1.0,phase_1,,,,,,,,,,,,,blue,cross
39.0,1.0,0.5,0.0,3.0,3.0,350.3819499999281,3.0,1.0,phase_1,,,,,,,,,,,,,orange,square
0.0,7.0,0.0,1.0,3.0,3.0,327.2643980001248,3.0,1.0,phase_1,,,,,,,,,,,,,magenta,I
418.0,8.0,4.0,1.0,4.0,4.0,330.0685110000358,3.0,1.0,phase_1,,,,,,,,,,,,,blue,cross
119.0,6.0,1.0,1.0,2.0,2.0,303.2928559998709,3.0,1.0,phase_1,,,,,,,,,,,,,cyan,diamond
416.0,8.0,4.0,1.0,3.0,3.0,320.1117870000871,3.0,1.0,phase_1,,,,,,,,,,,,,blue,cross
0.0,1.0,0.0,0.0,4.0,4.0,658.3361360001163,3.0,1.0,phase_1,,,,,,,,,,,,,orange,square
198.0,3.0,2.0,0.0,4.0,4.0,344.781968999996,3.0,1.0,phase_1,,,,,,,,,,,,,yellow,flipped triangle
120.0,6.0,1.0,1.0,4.0,4.0,287.4097809999512,3.0,1.0,phase_1,,,,,,,,,,,,,cyan,diamond
0.0,7.0,0.0,1.0,1.0,1.0,325.6735780000781,3.0,1.0,phase_1,,,,,,,,,,,,,magenta,I
417.0,4.0,4.0,0.0,1.0,1.0,346.4145809998626,3.0,1.0,phase_1,,,,,,,,,,,,,gray,circle
78.0,6.0,1.0,1.0,4.0,4.0,326.2869429997863,3.0,1.0,phase_1,,,,,,,,,,,,,cyan,diamond
393.0,4.0,4.0,0.0,1.0,1.0,327.8999429999203,3.0,1.0,phase_1,,,,,,,,,,,,,gray,circle
89.0,6.0,1.0,1.0,4.0,4.0,336.2046280001323,3.0,1.0,phase_1,,,,,,,,,,,,,cyan,diamond
114.0,6.0,1.0,1.0,1.0,1.0,298.1362079999599,3.0,1.0,phase_1,,,,,,,,,,,,,cyan,diamond
0.0,6.0,0.0,1.0,4.0,4.0,302.312559000029,3.0,1.0,phase_1,,,,,,,,,,,,,cyan,diamond
406.0,4.0,4.0,0.0,3.0,3.0,346.1330719999296,3.0,1.0,phase_1,,,,,,,,,,,,,gray,circle
38.0,1.0,0.5,0.0,1.0,1.0,294.7429140001532,3.0,1.0,phase_1,,,,,,,,,,,,,orange,square
25.0,1.0,0.5,0.0,3.0,3.0,320.0710959999924,3.0,1.0,phase_1,,,,,,,,,,,,,orange,square
112.0,2.0,1.0,0.0,2.0,2.0,306.4717590000327,3.0,1.0,phase_1,,,,,,,,,,,,,green,hexagon
416.0,4.0,4.0,0.0,1.0,1.0,313.1159760000628,3.0,1.0,phase_1,,,,,,,,,,,,,gray,circle
46.0,1.0,0.5,0.0,1.0,1.0,318.26098800002,3.0,1.0,phase_1,,,,,,,,,,,,,orange,square
384.0,4.0,4.0,0.0,4.0,4.0,332.8572739999345,3.0,1.0,phase_1,,,,,,,,,,,,,gray,circle
401.0,4.0,4.0,0.0,1.0,1.0,323.5037590000047,4.0,1.0,phase_1,,,,,,,,,,,,,gray,circle
386.0,8.0,4.0,1.0,4.0,4.0,301.0975530000905,4.0,1.0,phase_1,,,,,,,,,,,,,blue,cross
186.0,7.0,2.0,1.0,1.0,1.0,294.7394720001739,4.0,1.0,phase_1,,,,,,,,,,,,,magenta,I
185.0,3.0,2.0,0.0,3.0,3.0,322.448113000064,4.0,1.0,phase_1,,,,,,,,,,,,,yellow,flipped triangle
79.0,2.0,1.0,0.0,2.0,2.0,316.5084909999223,4.0,1.0,phase_1,,,,,,,,,,,,,green,hexagon
192.0,7.0,2.0,1.0,4.0,4.0,295.1176920000762,4.0,1.0,phase_1,,,,,,,,,,,,,magenta,I
0.0,4.0,0.0,0.0,1.0,1.0,299.0920320000896,4.0,1.0,phase_1,,,,,,,,,,,,,gray,circle
392.0,8.0,4.0,1.0,4.0,4.0,289.5853080001416,4.0,1.0,phase_1,,,,,,,,,,,,,blue,cross
46.0,1.0,0.5,0.0,4.0,4.0,291.904575999979,4.0,1.0,phase_1,,,,,,,,,,,,,orange,square
187.0,7.0,2.0,1.0,4.0,4.0,336.0399110001708,4.0,1.0,phase_1,,,,,,,,,,,,,magenta,I
62.0,1.0,0.5,0.0,2.0,2.0,304.5030819998828,4.0,1.0,phase_1,,,,,,,,,,,,,orange,square
95.0,6.0,1.0,1.0,2.0,2.0,310.5976110000483,4.0,1.0,phase_1,,,,,,,,,,,,,cyan,diamond
423.0,8.0,4.0,1.0,1.0,1.0,293.0003810001835,4.0,1.0,phase_1,,,,,,,,,,,,,blue,cross
406.0,8.0,4.0,1.0,1.0,1.0,326.9017400002667,4.0,1.0,phase_1,,,,,,,,,,,,,blue,cross
377.0,4.0,4.0,0.0,2.0,2.0,305.8276199999454,4.0,1.0,phase_1,,,,,,,,,,,,,gray,circle
0.0,2.0,0.0,0.0,3.0,3.0,292.5323880003816,4.0,1.0,phase_1,,,,,,,,,,,,,green,hexagon
203.0,3.0,2.0,0.0,2.0,2.0,320.5791310001586,4.0,1.0,phase_1,,,,,,,,,,,,,yellow,flipped triangle
386.0,8.0,4.0,1.0,4.0,4.0,289.2837809999946,4.0,1.0,phase_1,,,,,,,,,,,,,blue,cross
84.0,6.0,1.0,1.0,4.0,4.0,315.5252190003921,4.0,1.0,phase_1,,,,,,,,,,,,,cyan,diamond
0.0,7.0,0.0,1.0,1.0,1.0,296.0467030002291,4.0,1.0,phase_1,,,,,,,,,,,,,magenta,I
42.0,1.0,0.5,0.0,2.0,2.0,308.2141969998702,4.0,1.0,phase_1,,,,,,,,,,,,,orange,square
375.0,8.0,4.0,1.0,2.0,2.0,300.5803529999866,4.0,1.0,phase_1,,,,,,,,,,,,,blue,cross
407.0,8.0,4.0,1.0,3.0,3.0,648.0467179999323,4.0,1.0,phase_1,,,,,,,,,,,,,blue,cross
178.0,3.0,2.0,0.0,4.0,4.0,314.8715699999229,4.0,1.0,phase_1,,,,,,,,,,,,,yellow,flipped triangle
36.0,1.0,0.5,0.0,3.0,3.0,372.7168819996223,4.0,1.0,phase_1,,,,,,,,,,,,,orange,square
0.0,5.0,0.0,1.0,2.0,2.0,287.5712370000656,4.0,1.0,phase_1,,,,,,,,,,,,,white,triangle
57.0,1.0,0.5,0.0,3.0,3.0,292.6250410000648,4.0,1.0,phase_1,,,,,,,,,,,,,orange,square
0.0,4.0,0.0,0.0,3.0,3.0,364.4479820000015,4.0,1.0,phase_1,,,,,,,,,,,,,gray,circle
0.0,6.0,0.0,1.0,4.0,4.0,346.0324980001132,4.0,1.0,phase_1,,,,,,,,,,,,,cyan,diamond
48.0,1.0,0.5,0.0,4.0,4.0,316.1179909998282,4.0,1.0,phase_1,,,,,,,,,,,,,orange,square
56.0,5.0,0.5,1.0,2.0,2.0,294.660462000138,4.0,1.0,phase_1,,,,,,,,,,,,,white,triangle
423.0,4.0,4.0,0.0,3.0,3.0,329.6983459999865,4.0,1.0,phase_1,,,,,,,,,,,,,gray,circle
0.0,6.0,0.0,1.0,3.0,3.0,308.7779889997364,4.0,1.0,phase_1,,,,,,,,,,,,,cyan,diamond
79.0,6.0,1.0,1.0,2.0,2.0,312.024269000176,4.0,1.0,phase_1,,,,,,,,,,,,,cyan,diamond
178.0,7.0,2.0,1.0,3.0,3.0,328.2717039996896,4.0,1.0,phase_1,,,,,,,,,,,,,magenta,I
0.0,7.0,0.0,1.0,2.0,2.0,338.3993299999019,4.0,1.0,phase_1,,,,,,,,,,,,,magenta,I
212.0,7.0,2.0,1.0,1.0,1.0,335.5627969999659,4.0,1.0,phase_1,,,,,,,,,,,,,magenta,I
0.0,2.0,0.0,0.0,3.0,3.0,310.4991150003116,4.0,1.0,phase_1,,,,,,,,,,,,,green,hexagon
197.0,3.0,2.0,0.0,1.0,1.0,319.6789419998822,4.0,1.0,phase_1,,,,,,,,,,,,,yellow,flipped triangle
0.0,3.0,0.0,0.0,2.0,2.0,272.3174979996656,4.0,1.0,phase_1,,,,,,,,,,,,,yellow,flipped triangle
0.0,7.0,0.0,1.0,4.0,4.0,281.0353549998581,4.0,1.0,phase_1,,,,,,,,,,,,,magenta,I
0.0,3.0,0.0,0.0,2.0,2.0,285.5136560001483,4.0,1.0,phase_1,,,,,,,,,,,,,yellow,flipped triangle
178.0,7.0,2.0,1.0,4.0,4.0,296.7670469997756,4.0,1.0,phase_1,,,,,,,,,,,,,magenta,I
85.0,6.0,1.0,1.0,3.0,3.0,296.2498249999044,4.0,1.0,phase_1,,,,,,,,,,,,,cyan,diamond
0.0,3.0,0.0,0.0,1.0,1.0,303.3921979999832,4.0,1.0,phase_1,,,,,,,,,,,,,yellow,flipped triangle
418.0,4.0,4.0,0.0,2.0,2.0,311.1640080001052,4.0,1.0,phase_1,,,,,,,,,,,,,gray,circle
48.0,5.0,0.5,1.0,1.0,1.0,336.7196170001989,4.0,1.0,phase_1,,,,,,,,,,,,,white,triangle
92.0,2.0,1.0,0.0,2.0,2.0,273.2305609997638,4.0,1.0,phase_1,,,,,,,,,,,,,green,hexagon
93.0,2.0,1.0,0.0,1.0,1.0,312.2072430001026,4.0,1.0,phase_1,,,,,,,,,,,,,green,hexagon
413.0,4.0,4.0,0.0,3.0,3.0,297.8641869999592,4.0,1.0,phase_1,,,,,,,,,,,,,gray,circle
220.0,3.0,2.0,0.0,3.0,3.0,308.4707160001017,4.0,1.0,phase_1,,,,,,,,,,,,,yellow,flipped triangle
93.0,6.0,1.0,1.0,3.0,3.0,308.0136900002799,4.0,1.0,phase_1,,,,,,,,,,,,,cyan,diamond
71.0,1.0,0.5,0.0,3.0,3.0,316.6528209999342,4.0,1.0,phase_1,,,,,,,,,,,,,orange,square
121.0,6.0,1.0,1.0,3.0,3.0,315.6135159997575,4.0,1.0,phase_1,,,,,,,,,,,,,cyan,diamond
219.0,3.0,2.0,0.0,3.0,3.0,304.0477930003362,4.0,1.0,phase_1,,,,,,,,,,,,,yellow,flipped triangle
381.0,4.0,4.0,0.0,4.0,4.0,306.0197190002327,4.0,2.0,phase_1,,,,,,,,,,,,,gray,circle
71.0,5.0,0.5,1.0,3.0,3.0,329.1411190002691,4.0,1.0,phase_1,,,,,,,,,,,,,white,triangle
192.0,3.0,2.0,0.0,3.0,3.0,304.9188710001544,4.0,1.0,phase_1,,,,,,,,,,,,,yellow,flipped triangle
225.0,3.0,2.0,0.0,3.0,3.0,301.8854759998248,4.0,1.0,phase_1,,,,,,,,,,,,,yellow,flipped triangle
62.0,5.0,0.5,1.0,1.0,1.0,332.1083959999669,4.0,1.0,phase_1,,,,,,,,,,,,,white,triangle
78.0,6.0,1.0,1.0,2.0,2.0,314.2476380003245,4.0,1.0,phase_1,,,,,,,,,,,,,cyan,diamond
42.0,5.0,0.5,1.0,3.0,3.0,324.7424000001047,4.0,1.0,phase_1,,,,,,,,,,,,,white,triangle
65.0,1.0,0.5,0.0,1.0,1.0,318.9652199998818,4.0,1.0,phase_1,,,,,,,,,,,,,orange,square
114.0,2.0,1.0,0.0,4.0,4.0,330.4859989998476,4.0,1.0,phase_1,,,,,,,,,,,,,green,hexagon
124.0,2.0,1.0,0.0,2.0,2.0,293.9041569998153,4.0,1.0,phase_1,,,,,,,,,,,,,green,hexagon
177.0,7.0,2.0,1.0,1.0,1.0,369.1811950002375,4.0,1.0,phase_1,,,,,,,,,,,,,magenta,I
78.0,2.0,1.0,0.0,2.0,2.0,329.5187329999862,4.0,1.0,phase_1,,,,,,,,,,,,,green,hexagon
400.0,8.0,4.0,1.0,3.0,3.0,311.8450380002286,4.0,1.0,phase_1,,,,,,,,,,,,,blue,cross
57.0,5.0,0.5,1.0,1.0,1.0,327.8167389998998,4.0,1.0,phase_1,,,,,,,,,,,,,white,triangle
399.0,8.0,4.0,1.0,3.0,3.0,319.8737120001169,4.0,1.0,phase_1,,,,,,,,,,,,,blue,cross
81.0,2.0,1.0,0.0,1.0,1.0,325.8382090002669,4.0,1.0,phase_1,,,,,,,,,,,,,green,hexagon
35.0,1.0,0.5,0.0,3.0,3.0,313.9224849996935,4.0,1.0,phase_1,,,,,,,,,,,,,orange,square
33.0,1.0,0.5,0.0,1.0,1.0,302.5708140003189,4.0,1.0,phase_1,,,,,,,,,,,,,orange,square
378.0,8.0,4.0,1.0,1.0,1.0,362.4727760002315,4.0,1.0,phase_1,,,,,,,,,,,,,blue,cross
124.0,6.0,1.0,1.0,1.0,1.0,353.6060960000213,4.0,1.0,phase_1,,,,,,,,,,,,,cyan,diamond
399.0,4.0,4.0,0.0,2.0,2.0,332.6397430000725,4.0,1.0,phase_1,,,,,,,,,,,,,gray,circle
0.0,1.0,0.0,0.0,1.0,1.0,335.7734579999487,4.0,1.0,phase_1,,,,,,,,,,,,,orange,square
76.0,6.0,1.0,1.0,1.0,1.0,325.1434660000996,4.0,1.0,phase_1,,,,,,,,,,,,,cyan,diamond
0.0,1.0,0.0,0.0,4.0,4.0,364.3007020000368,4.0,1.0,phase_1,,,,,,,,,,,,,orange,square
0.0,7.0,0.0,1.0,2.0,2.0,330.8555450003041,4.0,1.0,phase_1,,,,,,,,,,,,,magenta,I
48.0,5.0,0.5,1.0,1.0,1.0,322.9368319998684,4.0,1.0,phase_1,,,,,,,,,,,,,white,triangle
0.0,3.0,0.0,0.0,4.0,4.0,357.7326489998995,4.0,1.0,phase_1,,,,,,,,,,,,,yellow,flipped triangle
0.0,1.0,0.0,0.0,2.0,2.0,312.3264269997889,4.0,1.0,phase_1,,,,,,,,,,,,,orange,square
0.0,8.0,0.0,1.0,3.0,3.0,354.7095130002162,4.0,1.0,phase_1,,,,,,,,,,,,,blue,cross
86.0,2.0,1.0,0.0,1.0,1.0,274.6792599996297,4.0,1.0,phase_1,,,,,,,,,,,,,green,hexagon
0.0,1.0,0.0,0.0,2.0,2.0,309.2987830000311,4.0,1.0,phase_1,,,,,,,,,,,,,orange,square
92.0,6.0,1.0,1.0,1.0,1.0,399.8053800000889,4.0,1.0,phase_1,,,,,,,,,,,,,cyan,diamond
210.0,7.0,2.0,1.0,1.0,1.0,338.3285980003165,4.0,1.0,phase_1,,,,,,,,,,,,,magenta,I
67.0,1.0,0.5,0.0,3.0,3.0,310.3404280000177,4.0,1.0,phase_1,,,,,,,,,,,,,orange,square
33.0,5.0,0.5,1.0,2.0,2.0,280.5334009999569,4.0,1.0,phase_1,,,,,,,,,,,,,white,triangle
71.0,1.0,0.5,0.0,2.0,2.0,296.7316990002473,4.0,1.0,phase_1,,,,,,,,,,,,,orange,square
0.0,7.0,0.0,1.0,2.0,2.0,290.0063239999326,4.0,1.0,phase_1,,,,,,,,,,,,,magenta,I
385.0,8.0,4.0,1.0,3.0,3.0,344.011213000158,4.0,1.0,phase_1,,,,,,,,,,,,,blue,cross
416.0,4.0,4.0,0.0,4.0,4.0,327.6443039999321,4.0,1.0,phase_1,,,,,,,,,,,,,gray,circle
186.0,3.0,2.0,0.0,4.0,4.0,334.3574860000444,4.0,1.0,phase_1,,,,,,,,,,,,,yellow,flipped triangle
400.0,4.0,4.0,0.0,2.0,2.0,288.614107000285,4.0,1.0,phase_1,,,,,,,,,,,,,gray,circle
99.0,6.0,1.0,1.0,4.0,4.0,302.6701080002567,4.0,1.0,phase_1,,,,,,,,,,,,,cyan,diamond
223.0,7.0,2.0,1.0,4.0,4.0,320.5469719996472,4.0,1.0,phase_1,,,,,,,,,,,,,magenta,I
39.0,5.0,0.5,1.0,1.0,1.0,325.7736049999948,4.0,1.0,phase_1,,,,,,,,,,,,,white,triangle
107.0,2.0,1.0,0.0,2.0,2.0,275.4291289998036,4.0,1.0,phase_1,,,,,,,,,,,,,green,hexagon
0.0,2.0,1.0,0.0,6.0,6.0,377.2353320000547,1.0,1.0,phase_2,go,250.0,250.0,1.0,,,,,,,,,green,hexagon
0.0,4.0,4.0,0.0,5.0,5.0,530.6542070002251,1.0,1.0,phase_2,go,250.0,250.0,1.0,,,,,,,,,gray,circle
0.0,5.0,0.5,1.0,6.0,0.0,0.0,1.0,1.0,phase_2,stop,250.0,250.0,4.0,,,,,,,,,white,triangle
0.0,6.0,1.0,1.0,6.0,6.0,415.1011989997641,1.0,1.0,phase_2,stop,250.0,300.0,3.0,,,,,,,,,cyan,diamond
0.0,7.0,2.0,1.0,6.0,0.0,0.0,1.0,1.0,phase_2,stop,250.0,250.0,4.0,,,,,,,,,magenta,I
0.0,3.0,2.0,0.0,6.0,6.0,627.0811720000893,1.0,1.0,phase_2,go,250.0,300.0,1.0,,,,,,,,,yellow,flipped triangle
0.0,6.0,1.0,1.0,6.0,6.0,407.8850109999621,1.0,1.0,phase_2,stop,250.0,300.0,3.0,,,,,,,,,cyan,diamond
0.0,5.0,0.5,1.0,6.0,0.0,0.0,1.0,1.0,phase_2,stop,250.0,250.0,4.0,,,,,,,,,white,triangle
0.0,2.0,1.0,0.0,6.0,6.0,608.9747010000792,1.0,1.0,phase_2,go,250.0,300.0,1.0,,,,,,,,,green,hexagon
0.0,1.0,0.5,0.0,5.0,5.0,634.1748320000988,1.0,1.0,phase_2,go,250.0,300.0,1.0,,,,,,,,,orange,square
0.0,3.0,2.0,0.0,6.0,6.0,663.4586620002665,1.0,1.0,phase_2,go,250.0,300.0,1.0,,,,,,,,,yellow,flipped triangle
0.0,6.0,1.0,1.0,5.0,0.0,0.0,1.0,1.0,phase_2,stop,250.0,300.0,4.0,,,,,,,,,cyan,diamond
0.0,5.0,0.5,1.0,5.0,0.0,0.0,1.0,1.0,phase_2,stop,300.0,300.0,4.0,,,,,,,,,white,triangle
0.0,4.0,4.0,0.0,6.0,6.0,625.1375250003548,1.0,1.0,phase_2,go,350.0,300.0,1.0,,,,,,,,,gray,circle
0.0,8.0,4.0,1.0,6.0,6.0,561.203593999835,1.0,1.0,phase_2,go,350.0,300.0,1.0,,,,,,,,,blue,cross
0.0,3.0,2.0,0.0,5.0,5.0,491.5719649998209,1.0,1.0,phase_2,go,350.0,300.0,1.0,,,,,,,,,yellow,flipped triangle
0.0,3.0,2.0,0.0,6.0,6.0,587.1480509999856,1.0,1.0,phase_2,go,350.0,300.0,1.0,,,,,,,,,yellow,flipped triangle
0.0,1.0,0.5,0.0,5.0,5.0,543.9324730000408,1.0,1.0,phase_2,go,350.0,300.0,1.0,,,,,,,,,orange,square
0.0,5.0,0.5,1.0,5.0,5.0,505.4006129998925,1.0,1.0,phase_2,stop,350.0,300.0,3.0,,,,,,,,,white,triangle
0.0,2.0,1.0,0.0,5.0,5.0,649.7938839997914,1.0,1.0,phase_2,go,300.0,300.0,1.0,,,,,,,,,green,hexagon
0.0,2.0,1.0,0.0,6.0,6.0,709.7004679999372,1.0,1.0,phase_2,go,300.0,300.0,1.0,,,,,,,,,green,hexagon
0.0,8.0,4.0,1.0,6.0,6.0,608.4357190002265,1.0,1.0,phase_2,go,300.0,300.0,1.0,,,,,,,,,blue,cross
0.0,8.0,4.0,1.0,6.0,0.0,0.0,1.0,1.0,phase_2,stop,300.0,300.0,4.0,,,,,,,,,blue,cross
0.0,4.0,4.0,0.0,6.0,6.0,710.0301250002303,1.0,1.0,phase_2,go,300.0,350.0,1.0,,,,,,,,,gray,circle
0.0,8.0,4.0,1.0,5.0,0.0,0.0,1.0,1.0,phase_2,stop,300.0,350.0,4.0,,,,,,,,,blue,cross
0.0,3.0,2.0,0.0,5.0,5.0,1015.0865549999253,1.0,1.0,phase_2,go,350.0,350.0,1.0,,,,,,,,,yellow,flipped triangle
0.0,5.0,0.5,1.0,5.0,5.0,764.245695000227,1.0,1.0,phase_2,go,350.0,350.0,1.0,,,,,,,,,white,triangle
0.0,4.0,4.0,0.0,6.0,6.0,707.7776070000255,1.0,1.0,phase_2,go,350.0,350.0,1.0,,,,,,,,,gray,circle
0.0,5.0,0.5,1.0,6.0,0.0,0.0,1.0,1.0,phase_2,stop,350.0,350.0,4.0,,,,,,,,,white,triangle
0.0,1.0,0.5,0.0,6.0,6.0,711.4247290001003,1.0,1.0,phase_2,go,350.0,400.0,1.0,,,,,,,,,orange,square
0.0,5.0,0.5,1.0,5.0,0.0,0.0,1.0,1.0,phase_2,stop,350.0,400.0,4.0,,,,,,,,,white,triangle
0.0,8.0,4.0,1.0,5.0,0.0,0.0,1.0,1.0,phase_2,stop,400.0,400.0,4.0,,,,,,,,,blue,cross
0.0,4.0,4.0,0.0,6.0,6.0,659.1571670001031,1.0,1.0,phase_2,go,450.0,400.0,1.0,,,,,,,,,gray,circle
0.0,7.0,2.0,1.0,6.0,0.0,0.0,1.0,1.0,phase_2,stop,450.0,400.0,4.0,,,,,,,,,magenta,I
0.0,1.0,0.5,0.0,5.0,5.0,629.4961520002289,1.0,1.0,phase_2,go,450.0,450.0,1.0,,,,,,,,,orange,square
0.0,3.0,2.0,0.0,5.0,5.0,723.795563999829,1.0,1.0,phase_2,go,450.0,450.0,1.0,,,,,,,,,yellow,flipped triangle
0.0,5.0,0.5,1.0,5.0,5.0,436.0891240003184,2.0,1.0,phase_2,stop,450.0,450.0,3.0,,,,,,,,,white,triangle
0.0,8.0,4.0,1.0,6.0,6.0,324.0553419996104,2.0,1.0,phase_2,stop,400.0,450.0,3.0,,,,,,,,,blue,cross
0.0,8.0,4.0,1.0,5.0,5.0,515.5101850000392,2.0,1.0,phase_2,stop,400.0,400.0,3.0,,,,,,,,,blue,cross
0.0,3.0,2.0,0.0,6.0,6.0,517.5121950001085,2.0,1.0,phase_2,go,350.0,400.0,1.0,,,,,,,,,yellow,flipped triangle
0.0,8.0,4.0,1.0,6.0,6.0,522.4246010002389,2.0,1.0,phase_2,stop,350.0,400.0,3.0,,,,,,,,,blue,cross
0.0,8.0,4.0,1.0,6.0,6.0,508.6356709998654,2.0,1.0,phase_2,stop,350.0,350.0,3.0,,,,,,,,,blue,cross
0.0,2.0,1.0,0.0,6.0,6.0,690.5488600000353,2.0,1.0,phase_2,go,350.0,300.0,1.0,,,,,,,,,green,hexagon
0.0,6.0,1.0,1.0,5.0,0.0,0.0,2.0,1.0,phase_2,stop,350.0,300.0,4.0,,,,,,,,,cyan,diamond
0.0,4.0,4.0,0.0,6.0,6.0,712.9549860001134,2.0,1.0,phase_2,go,400.0,300.0,1.0,,,,,,,,,gray,circle
0.0,7.0,2.0,1.0,5.0,0.0,0.0,2.0,1.0,phase_2,stop,400.0,300.0,4.0,,,,,,,,,magenta,I
0.0,4.0,4.0,0.0,5.0,5.0,613.7467870003093,2.0,1.0,phase_2,go,450.0,300.0,1.0,,,,,,,,,gray,circle
0.0,7.0,2.0,1.0,5.0,5.0,482.4175650001052,2.0,1.0,phase_2,stop,450.0,300.0,3.0,,,,,,,,,magenta,I
0.0,2.0,1.0,0.0,5.0,5.0,620.7176319999235,2.0,1.0,phase_2,go,400.0,300.0,1.0,,,,,,,,,green,hexagon
0.0,1.0,0.5,0.0,5.0,5.0,355.6418230000417,2.0,1.0,phase_2,go,400.0,300.0,1.0,,,,,,,,,orange,square
0.0,8.0,4.0,1.0,5.0,5.0,453.8840209997943,2.0,1.0,phase_2,go,400.0,300.0,1.0,,,,,,,,,blue,cross
0.0,2.0,1.0,0.0,6.0,6.0,443.6341919999904,2.0,1.0,phase_2,go,400.0,300.0,1.0,,,,,,,,,green,hexagon
0.0,2.0,1.0,0.0,6.0,6.0,546.2665929999275,2.0,1.0,phase_2,go,400.0,300.0,1.0,,,,,,,,,green,hexagon
0.0,1.0,0.5,0.0,5.0,5.0,617.4697909996212,2.0,1.0,phase_2,go,400.0,300.0,1.0,,,,,,,,,orange,square
0.0,8.0,4.0,1.0,6.0,6.0,324.976353999773,2.0,1.0,phase_2,go,400.0,300.0,1.0,,,,,,,,,blue,cross
0.0,4.0,4.0,0.0,5.0,5.0,553.3030520000466,2.0,1.0,phase_2,go,400.0,300.0,1.0,,,,,,,,,gray,circle
0.0,7.0,2.0,1.0,5.0,5.0,413.6898889996701,2.0,1.0,phase_2,go,400.0,300.0,1.0,,,,,,,,,magenta,I
0.0,7.0,2.0,1.0,6.0,0.0,0.0,2.0,1.0,phase_2,stop,400.0,300.0,4.0,,,,,,,,,magenta,I
0.0,1.0,0.5,0.0,5.0,5.0,542.9713539997465,2.0,1.0,phase_2,go,400.0,350.0,1.0,,,,,,,,,orange,square
0.0,6.0,1.0,1.0,6.0,6.0,465.8158909996928,2.0,1.0,phase_2,stop,400.0,350.0,3.0,,,,,,,,,cyan,diamond
0.0,1.0,0.5,0.0,5.0,5.0,530.9316350003428,2.0,1.0,phase_2,go,400.0,300.0,1.0,,,,,,,,,orange,square
0.0,4.0,4.0,0.0,5.0,5.0,555.8915449996675,2.0,1.0,phase_2,go,400.0,300.0,1.0,,,,,,,,,gray,circle
0.0,4.0,4.0,0.0,6.0,6.0,495.9551080000892,2.0,1.0,phase_2,go,400.0,300.0,1.0,,,,,,,,,gray,circle
0.0,4.0,4.0,0.0,6.0,6.0,595.0787720003063,2.0,1.0,phase_2,go,400.0,300.0,1.0,,,,,,,,,gray,circle
0.0,1.0,0.5,0.0,6.0,6.0,364.8819919999368,2.0,1.0,phase_2,go,400.0,300.0,1.0,,,,,,,,,orange,square
0.0,1.0,0.5,0.0,5.0,5.0,510.6395169996176,2.0,1.0,phase_2,go,400.0,300.0,1.0,,,,,,,,,orange,square
0.0,2.0,1.0,0.0,5.0,5.0,336.4061139996011,2.0,1.0,phase_2,go,400.0,300.0,1.0,,,,,,,,,green,hexagon
0.0,4.0,4.0,0.0,5.0,5.0,443.1591050001771,2.0,1.0,phase_2,go,400.0,300.0,1.0,,,,,,,,,gray,circle
0.0,1.0,0.5,0.0,6.0,6.0,300.7836679998945,2.0,1.0,phase_2,go,400.0,300.0,1.0,,,,,,,,,orange,square
0.0,7.0,2.0,1.0,5.0,5.0,240.7287040000483,2.0,1.0,phase_2,stop,400.0,300.0,3.0,,,,,,,,,magenta,I
0.0,5.0,0.5,1.0,5.0,5.0,460.1859630001854,2.0,1.0,phase_2,stop,350.0,300.0,3.0,,,,,,,,,white,triangle
0.0,6.0,1.0,1.0,5.0,0.0,0.0,2.0,1.0,phase_2,stop,300.0,300.0,4.0,,,,,,,,,cyan,diamond
0.0,4.0,4.0,0.0,5.0,5.0,500.9325669998361,3.0,1.0,phase_2,go,350.0,300.0,1.0,,,,,,,,,gray,circle
0.0,8.0,4.0,1.0,5.0,5.0,336.2391519999619,3.0,1.0,phase_2,stop,350.0,300.0,3.0,,,,,,,,,blue,cross
0.0,2.0,1.0,0.0,5.0,5.0,531.6616539998904,3.0,1.0,phase_2,go,300.0,300.0,1.0,,,,,,,,,green,hexagon
0.0,2.0,1.0,0.0,5.0,5.0,337.6379430001179,3.0,1.0,phase_2,go,300.0,300.0,1.0,,,,,,,,,green,hexagon
0.0,4.0,4.0,0.0,5.0,5.0,316.5653389996805,3.0,1.0,phase_2,go,300.0,300.0,1.0,,,,,,,,,gray,circle
0.0,7.0,2.0,1.0,5.0,5.0,362.4144469999919,3.0,1.0,phase_2,stop,300.0,300.0,3.0,,,,,,,,,magenta,I
0.0,5.0,0.5,1.0,6.0,0.0,0.0,3.0,1.0,phase_2,stop,250.0,300.0,4.0,,,,,,,,,white,triangle
0.0,3.0,2.0,0.0,6.0,6.0,623.165943999993,3.0,1.0,phase_2,go,250.0,350.0,1.0,,,,,,,,,yellow,flipped triangle
0.0,4.0,4.0,0.0,5.0,5.0,531.6682930001662,3.0,1.0,phase_2,go,250.0,350.0,1.0,,,,,,,,,gray,circle
0.0,8.0,4.0,1.0,5.0,0.0,0.0,3.0,1.0,phase_2,stop,250.0,350.0,4.0,,,,,,,,,blue,cross
0.0,5.0,0.5,1.0,6.0,6.0,491.5632819997881,3.0,1.0,phase_2,stop,300.0,350.0,3.0,,,,,,,,,white,triangle
0.0,8.0,4.0,1.0,5.0,0.0,0.0,3.0,1.0,phase_2,stop,300.0,300.0,4.0,,,,,,,,,blue,cross
0.0,2.0,1.0,0.0,6.0,6.0,519.417027000145,3.0,1.0,phase_2,go,350.0,300.0,1.0,,,,,,,,,green,hexagon
0.0,3.0,2.0,0.0,6.0,6.0,572.9779450002752,3.0,1.0,phase_2,go,350.0,300.0,1.0,,,,,,,,,yellow,flipped triangle
0.0,6.0,1.0,1.0,6.0,6.0,401.3573239999459,3.0,1.0,phase_2,stop,350.0,300.0,3.0,,,,,,,,,cyan,diamond
0.0,1.0,0.5,0.0,6.0,6.0,507.91332800008604,3.0,1.0,phase_2,go,350.0,250.0,1.0,,,,,,,,,orange,square
0.0,1.0,0.5,0.0,5.0,5.0,550.1940979997926,3.0,1.0,phase_2,go,350.0,250.0,1.0,,,,,,,,,orange,square
0.0,2.0,1.0,0.0,5.0,5.0,334.1345279995948,3.0,1.0,phase_2,go,350.0,250.0,1.0,,,,,,,,,green,hexagon
0.0,1.0,0.5,0.0,6.0,6.0,296.8816769998739,3.0,1.0,phase_2,go,350.0,250.0,1.0,,,,,,,,,orange,square
0.0,6.0,1.0,1.0,6.0,0.0,0.0,3.0,1.0,phase_2,stop,350.0,250.0,4.0,,,,,,,,,cyan,diamond
0.0,8.0,4.0,1.0,5.0,5.0,493.9204629999949,3.0,1.0,phase_2,stop,350.0,300.0,3.0,,,,,,,,,blue,cross
0.0,5.0,0.5,1.0,5.0,5.0,623.511633000362,3.0,1.0,phase_2,go,300.0,300.0,1.0,,,,,,,,,white,triangle
0.0,1.0,0.5,0.0,6.0,6.0,448.8978619997397,3.0,1.0,phase_2,go,300.0,300.0,1.0,,,,,,,,,orange,square
0.0,1.0,0.5,0.0,6.0,6.0,375.6078970000089,3.0,1.0,phase_2,go,300.0,300.0,1.0,,,,,,,,,orange,square
0.0,5.0,0.5,1.0,5.0,5.0,470.3782560000036,3.0,1.0,phase_2,stop,300.0,300.0,3.0,,,,,,,,,white,triangle
0.0,1.0,0.5,0.0,6.0,6.0,435.655061000034,3.0,1.0,phase_2,go,250.0,300.0,1.0,,,,,,,,,orange,square
0.0,3.0,2.0,0.0,5.0,5.0,611.5351809999083,3.0,1.0,phase_2,go,250.0,300.0,1.0,,,,,,,,,yellow,flipped triangle
0.0,2.0,1.0,0.0,6.0,6.0,431.6033820000484,3.0,1.0,phase_2,go,250.0,300.0,1.0,,,,,,,,,green,hexagon
0.0,5.0,0.5,1.0,6.0,6.0,531.0791770002652,3.0,1.0,phase_2,go,250.0,300.0,1.0,,,,,,,,,white,triangle
0.0,5.0,0.5,1.0,6.0,0.0,0.0,3.0,1.0,phase_2,stop,250.0,300.0,4.0,,,,,,,,,white,triangle
0.0,2.0,1.0,0.0,6.0,6.0,564.3351630001234,3.0,1.0,phase_2,go,250.0,350.0,1.0,,,,,,,,,green,hexagon
0.0,2.0,1.0,0.0,6.0,6.0,581.4623979999851,3.0,1.0,phase_2,go,250.0,350.0,1.0,,,,,,,,,green,hexagon
0.0,4.0,4.0,0.0,6.0,6.0,539.1112419997626,3.0,1.0,phase_2,go,250.0,350.0,1.0,,,,,,,,,gray,circle
0.0,7.0,2.0,1.0,6.0,0.0,0.0,3.0,1.0,phase_2,stop,250.0,350.0,4.0,,,,,,,,,magenta,I
0.0,1.0,0.5,0.0,5.0,5.0,510.4920169997058,3.0,1.0,phase_2,go,250.0,400.0,1.0,,,,,,,,,orange,square
0.0,1.0,0.5,0.0,5.0,5.0,632.7230990000317,3.0,1.0,phase_2,go,250.0,400.0,1.0,,,,,,,,,orange,square
0.0,4.0,4.0,0.0,6.0,6.0,484.1630729997632,4.0,1.0,phase_2,go,250.0,400.0,1.0,,,,,,,,,gray,circle
0.0,4.0,4.0,0.0,5.0,5.0,431.7869910000809,4.0,1.0,phase_2,go,250.0,400.0,1.0,,,,,,,,,gray,circle
0.0,6.0,1.0,1.0,5.0,0.0,0.0,4.0,1.0,phase_2,stop,250.0,400.0,4.0,,,,,,,,,cyan,diamond
0.0,2.0,1.0,0.0,5.0,5.0,393.7633479999931,4.0,1.0,phase_2,go,300.0,400.0,1.0,,,,,,,,,green,hexagon
0.0,1.0,0.5,0.0,6.0,6.0,444.4683970000369,4.0,1.0,phase_2,go,300.0,400.0,1.0,,,,,,,,,orange,square
0.0,4.0,4.0,0.0,5.0,5.0,498.1629979997706,4.0,1.0,phase_2,go,300.0,400.0,1.0,,,,,,,,,gray,circle
0.0,4.0,4.0,0.0,6.0,6.0,505.24354700019103,4.0,1.0,phase_2,go,300.0,400.0,1.0,,,,,,,,,gray,circle
0.0,2.0,1.0,0.0,5.0,5.0,517.92696099983,4.0,1.0,phase_2,go,300.0,400.0,1.0,,,,,,,,,green,hexagon
0.0,6.0,1.0,1.0,5.0,5.0,438.9348810000228,4.0,1.0,phase_2,stop,300.0,400.0,3.0,,,,,,,,,cyan,diamond
0.0,7.0,2.0,1.0,5.0,5.0,576.3264970000819,4.0,1.0,phase_2,go,250.0,400.0,1.0,,,,,,,,,magenta,I
0.0,1.0,0.5,0.0,6.0,6.0,567.3117119999915,4.0,1.0,phase_2,go,250.0,400.0,1.0,,,,,,,,,orange,square
0.0,7.0,2.0,1.0,6.0,6.0,600.5746199998612,4.0,1.0,phase_2,go,250.0,400.0,1.0,,,,,,,,,magenta,I
0.0,8.0,4.0,1.0,5.0,0.0,0.0,4.0,1.0,phase_2,stop,250.0,400.0,4.0,,,,,,,,,blue,cross
0.0,5.0,0.5,1.0,6.0,6.0,460.4558360001647,4.0,1.0,phase_2,stop,300.0,400.0,3.0,,,,,,,,,white,triangle
0.0,3.0,2.0,0.0,5.0,5.0,584.0531320000082,4.0,1.0,phase_2,go,300.0,350.0,1.0,,,,,,,,,yellow,flipped triangle
0.0,7.0,2.0,1.0,6.0,0.0,0.0,4.0,1.0,phase_2,stop,300.0,350.0,4.0,,,,,,,,,magenta,I
0.0,8.0,4.0,1.0,6.0,6.0,605.548187000295,4.0,1.0,phase_2,go,300.0,400.0,1.0,,,,,,,,,blue,cross
0.0,6.0,1.0,1.0,5.0,0.0,0.0,4.0,1.0,phase_2,stop,300.0,400.0,4.0,,,,,,,,,cyan,diamond
0.0,5.0,0.5,1.0,5.0,5.0,508.6683540002923,4.0,1.0,phase_2,stop,350.0,400.0,3.0,,,,,,,,,white,triangle
0.0,8.0,4.0,1.0,6.0,6.0,528.4045250000418,4.0,1.0,phase_2,stop,300.0,400.0,3.0,,,,,,,,,blue,cross
0.0,8.0,4.0,1.0,5.0,5.0,582.5697370000853,4.0,1.0,phase_2,go,300.0,350.0,1.0,,,,,,,,,blue,cross
0.0,3.0,2.0,0.0,6.0,6.0,435.5942899996989,4.0,1.0,phase_2,go,300.0,350.0,1.0,,,,,,,,,yellow,flipped triangle
0.0,8.0,4.0,1.0,6.0,6.0,508.35226999970473,4.0,1.0,phase_2,stop,300.0,350.0,3.0,,,,,,,,,blue,cross
0.0,2.0,1.0,0.0,6.0,6.0,488.8063550001789,4.0,1.0,phase_2,go,300.0,300.0,1.0,,,,,,,,,green,hexagon
0.0,5.0,0.5,1.0,6.0,6.0,572.0140449998325,4.0,1.0,phase_2,go,300.0,300.0,1.0,,,,,,,,,white,triangle
0.0,2.0,1.0,0.0,5.0,5.0,543.2419399999162,4.0,1.0,phase_2,go,300.0,300.0,1.0,,,,,,,,,green,hexagon
0.0,8.0,4.0,1.0,5.0,0.0,0.0,4.0,1.0,phase_2,stop,300.0,300.0,4.0,,,,,,,,,blue,cross
0.0,8.0,4.0,1.0,5.0,5.0,541.2378529999842,4.0,1.0,phase_2,go,350.0,300.0,1.0,,,,,,,,,blue,cross
0.0,4.0,4.0,0.0,5.0,5.0,610.0748740000199,4.0,1.0,phase_2,go,350.0,300.0,1.0,,,,,,,,,gray,circle
0.0,4.0,4.0,0.0,5.0,5.0,635.2221859997371,4.0,1.0,phase_2,go,350.0,300.0,1.0,,,,,,,,,gray,circle
0.0,4.0,4.0,0.0,6.0,6.0,514.4808059999377,4.0,1.0,phase_2,go,350.0,300.0,1.0,,,,,,,,,gray,circle
0.0,5.0,0.5,1.0,6.0,6.0,584.2337889998817,4.0,1.0,phase_2,go,350.0,300.0,1.0,,,,,,,,,white,triangle
0.0,7.0,2.0,1.0,6.0,0.0,0.0,4.0,1.0,phase_2,stop,350.0,300.0,4.0,,,,,,,,,magenta,I
0.0,6.0,1.0,1.0,5.0,5.0,510.33301200004644,4.0,1.0,phase_2,stop,350.0,350.0,3.0,,,,,,,,,cyan,diamond
0.0,5.0,0.5,1.0,5.0,0.0,0.0,4.0,1.0,phase_2,stop,300.0,350.0,4.0,,,,,,,,,white,triangle
0.0,6.0,1.0,1.0,5.0,5.0,435.0695080001969,4.0,1.0,phase_2,go,350.0,350.0,1.0,,,,,,,,,cyan,diamond
0.0,3.0,2.0,0.0,6.0,6.0,496.3702310001281,5.0,1.0,phase_2,go,350.0,350.0,1.0,,,,,,,,,yellow,flipped triangle
0.0,7.0,2.0,1.0,5.0,5.0,465.0336049999168,5.0,1.0,phase_2,stop,350.0,350.0,3.0,,,,,,,,,magenta,I
0.0,3.0,2.0,0.0,6.0,6.0,576.878602999841,5.0,1.0,phase_2,go,300.0,350.0,1.0,,,,,,,,,yellow,flipped triangle
0.0,1.0,0.5,0.0,6.0,6.0,421.272570000383,5.0,1.0,phase_2,go,300.0,350.0,1.0,,,,,,,,,orange,square
0.0,1.0,0.5,0.0,5.0,5.0,438.8602139997601,5.0,1.0,phase_2,go,300.0,350.0,1.0,,,,,,,,,orange,square
0.0,1.0,0.5,0.0,6.0,6.0,435.0508590000572,5.0,1.0,phase_2,go,300.0,350.0,1.0,,,,,,,,,orange,square
0.0,6.0,1.0,1.0,6.0,6.0,432.834886999899,5.0,1.0,phase_2,stop,300.0,350.0,3.0,,,,,,,,,cyan,diamond
0.0,6.0,1.0,1.0,6.0,6.0,491.5131669999937,5.0,1.0,phase_2,go,300.0,300.0,1.0,,,,,,,,,cyan,diamond
0.0,4.0,4.0,0.0,5.0,5.0,493.0771509998521,5.0,1.0,phase_2,go,300.0,300.0,1.0,,,,,,,,,gray,circle
0.0,2.0,1.0,0.0,5.0,5.0,529.0352950000852,5.0,1.0,phase_2,go,300.0,300.0,1.0,,,,,,,,,green,hexagon
0.0,5.0,0.5,1.0,6.0,0.0,0.0,5.0,1.0,phase_2,stop,300.0,300.0,4.0,,,,,,,,,white,triangle
0.0,2.0,1.0,0.0,5.0,5.0,495.5323620001763,5.0,1.0,phase_2,go,300.0,350.0,1.0,,,,,,,,,green,hexagon
0.0,6.0,1.0,1.0,6.0,6.0,541.1285499999394,5.0,1.0,phase_2,go,300.0,350.0,1.0,,,,,,,,,cyan,diamond
0.0,4.0,4.0,0.0,6.0,6.0,487.970081000185,5.0,1.0,phase_2,go,300.0,350.0,1.0,,,,,,,,,gray,circle
0.0,7.0,2.0,1.0,6.0,6.0,464.3950240001686,5.0,1.0,phase_2,stop,300.0,350.0,3.0,,,,,,,,,magenta,I
0.0,2.0,1.0,0.0,5.0,5.0,542.6929879999989,5.0,1.0,phase_2,go,300.0,300.0,1.0,,,,,,,,,green,hexagon
0.0,6.0,1.0,1.0,5.0,0.0,0.0,5.0,1.0,phase_2,stop,300.0,300.0,4.0,,,,,,,,,cyan,diamond
0.0,3.0,2.0,0.0,6.0,6.0,510.0874700001441,5.0,1.0,phase_2,go,350.0,300.0,1.0,,,,,,,,,yellow,flipped triangle
0.0,5.0,0.5,1.0,6.0,0.0,0.0,5.0,1.0,phase_2,stop,350.0,300.0,4.0,,,,,,,,,white,triangle
0.0,6.0,1.0,1.0,5.0,0.0,0.0,5.0,1.0,phase_2,stop,350.0,350.0,4.0,,,,,,,,,cyan,diamond
0.0,6.0,1.0,1.0,6.0,6.0,490.449973000068,5.0,1.0,phase_2,go,400.0,350.0,1.0,,,,,,,,,cyan,diamond
0.0,7.0,2.0,1.0,5.0,5.0,436.4812810003968,5.0,1.0,phase_2,stop,400.0,350.0,3.0,,,,,,,,,magenta,I
0.0,8.0,4.0,1.0,6.0,0.0,0.0,5.0,1.0,phase_2,stop,350.0,350.0,4.0,,,,,,,,,blue,cross
0.0,2.0,1.0,0.0,5.0,5.0,603.5238530002971,5.0,1.0,phase_2,go,350.0,400.0,1.0,,,,,,,,,green,hexagon
0.0,3.0,2.0,0.0,6.0,6.0,454.0187340003285,5.0,1.0,phase_2,go,350.0,400.0,1.0,,,,,,,,,yellow,flipped triangle
0.0,3.0,2.0,0.0,5.0,5.0,593.2384579996324,5.0,1.0,phase_2,go,350.0,400.0,1.0,,,,,,,,,yellow,flipped triangle
0.0,4.0,4.0,0.0,6.0,6.0,513.1661269997494,5.0,1.0,phase_2,go,350.0,400.0,1.0,,,,,,,,,gray,circle
0.0,1.0,0.5,0.0,6.0,6.0,583.1009010003072,5.0,1.0,phase_2,go,350.0,400.0,1.0,,,,,,,,,orange,square
0.0,3.0,2.0,0.0,5.0,5.0,542.0985750001819,5.0,1.0,phase_2,go,350.0,400.0,1.0,,,,,,,,,yellow,flipped triangle
0.0,6.0,1.0,1.0,5.0,0.0,0.0,5.0,1.0,phase_2,stop,350.0,400.0,4.0,,,,,,,,,cyan,diamond
0.0,7.0,2.0,1.0,6.0,6.0,432.6087340000413,5.0,1.0,phase_2,stop,400.0,400.0,3.0,,,,,,,,,magenta,I
0.0,5.0,0.5,1.0,5.0,5.0,615.3879729999971,5.0,1.0,phase_2,go,400.0,350.0,1.0,,,,,,,,,white,triangle
0.0,4.0,4.0,0.0,6.0,6.0,602.0748679998178,5.0,1.0,phase_2,go,400.0,350.0,1.0,,,,,,,,,gray,circle
0.0,6.0,1.0,1.0,6.0,6.0,433.8489809997554,5.0,1.0,phase_2,stop,400.0,350.0,3.0,,,,,,,,,cyan,diamond
0.0,3.0,2.0,0.0,5.0,5.0,543.8928779999515,5.0,1.0,phase_2,go,400.0,300.0,1.0,,,,,,,,,yellow,flipped triangle
0.0,4.0,4.0,0.0,6.0,6.0,510.39991499965254,5.0,1.0,phase_2,go,400.0,300.0,1.0,,,,,,,,,gray,circle
0.0,3.0,2.0,0.0,5.0,5.0,388.5571779997008,6.0,1.0,phase_2,go,400.0,300.0,1.0,,,,,,,,,yellow,flipped triangle
0.0,7.0,2.0,1.0,6.0,6.0,495.8007679997536,6.0,1.0,phase_2,go,400.0,300.0,1.0,,,,,,,,,magenta,I
0.0,7.0,2.0,1.0,5.0,5.0,551.8318189997444,6.0,1.0,phase_2,stop,400.0,300.0,3.0,,,,,,,,,magenta,I
0.0,3.0,2.0,0.0,6.0,6.0,351.7568960000972,6.0,1.0,phase_2,go,350.0,300.0,1.0,,,,,,,,,yellow,flipped triangle
0.0,7.0,2.0,1.0,6.0,6.0,567.1824870000819,6.0,1.0,phase_2,go,350.0,300.0,1.0,,,,,,,,,magenta,I
0.0,2.0,1.0,0.0,6.0,6.0,517.7017219998561,6.0,1.0,phase_2,go,350.0,300.0,1.0,,,,,,,,,green,hexagon
0.0,6.0,1.0,1.0,5.0,5.0,460.2236410000841,6.0,1.0,phase_2,stop,350.0,300.0,3.0,,,,,,,,,cyan,diamond
0.0,2.0,1.0,0.0,5.0,5.0,600.1668469998549,6.0,1.0,phase_2,go,300.0,300.0,1.0,,,,,,,,,green,hexagon
0.0,6.0,1.0,1.0,6.0,0.0,0.0,6.0,1.0,phase_2,stop,300.0,300.0,4.0,,,,,,,,,cyan,diamond
0.0,3.0,2.0,0.0,6.0,6.0,549.2470760000288,6.0,1.0,phase_2,go,300.0,350.0,1.0,,,,,,,,,yellow,flipped triangle
0.0,6.0,1.0,1.0,5.0,0.0,0.0,6.0,1.0,phase_2,stop,300.0,350.0,4.0,,,,,,,,,cyan,diamond
0.0,6.0,1.0,1.0,6.0,6.0,519.9067319999813,6.0,1.0,phase_2,go,350.0,350.0,1.0,,,,,,,,,cyan,diamond
0.0,1.0,0.5,0.0,6.0,6.0,552.5489699998616,6.0,1.0,phase_2,go,350.0,350.0,1.0,,,,,,,,,orange,square
0.0,5.0,0.5,1.0,6.0,6.0,583.7279860002127,6.0,1.0,phase_2,go,350.0,350.0,1.0,,,,,,,,,white,triangle
0.0,5.0,0.5,1.0,6.0,0.0,0.0,6.0,1.0,phase_2,stop,350.0,350.0,4.0,,,,,,,,,white,triangle
0.0,4.0,4.0,0.0,6.0,6.0,454.8565689997303,6.0,1.0,phase_2,go,350.0,400.0,1.0,,,,,,,,,gray,circle
0.0,2.0,1.0,0.0,6.0,6.0,553.3395929996914,6.0,1.0,phase_2,go,350.0,400.0,1.0,,,,,,,,,green,hexagon
0.0,5.0,0.5,1.0,5.0,5.0,535.906800000248,6.0,1.0,phase_2,stop,350.0,400.0,3.0,,,,,,,,,white,triangle
0.0,8.0,4.0,1.0,5.0,0.0,0.0,6.0,1.0,phase_2,stop,300.0,400.0,4.0,,,,,,,,,blue,cross
0.0,7.0,2.0,1.0,6.0,6.0,583.6228809998829,6.0,1.0,phase_2,go,350.0,400.0,1.0,,,,,,,,,magenta,I
0.0,7.0,2.0,1.0,5.0,5.0,562.7308690000064,6.0,1.0,phase_2,go,350.0,400.0,1.0,,,,,,,,,magenta,I
0.0,2.0,1.0,0.0,6.0,6.0,707.7371870000206,6.0,1.0,phase_2,go,350.0,400.0,1.0,,,,,,,,,green,hexagon
0.0,7.0,2.0,1.0,5.0,0.0,0.0,6.0,1.0,phase_2,stop,350.0,400.0,4.0,,,,,,,,,magenta,I
0.0,7.0,2.0,1.0,6.0,6.0,509.7939359998236,6.0,1.0,phase_2,go,400.0,400.0,1.0,,,,,,,,,magenta,I
0.0,3.0,2.0,0.0,5.0,5.0,658.7180400001671,6.0,1.0,phase_2,go,400.0,400.0,1.0,,,,,,,,,yellow,flipped triangle
0.0,8.0,4.0,1.0,6.0,6.0,436.9963680001092,6.0,1.0,phase_2,stop,400.0,400.0,3.0,,,,,,,,,blue,cross
0.0,5.0,0.5,1.0,5.0,5.0,472.8562029999921,6.0,1.0,phase_2,stop,400.0,350.0,3.0,,,,,,,,,white,triangle
0.0,6.0,1.0,1.0,6.0,6.0,475.0057699998251,6.0,1.0,phase_2,stop,350.0,350.0,3.0,,,,,,,,,cyan,diamond
0.0,3.0,2.0,0.0,5.0,5.0,509.2267360000733,6.0,1.0,phase_2,go,350.0,300.0,1.0,,,,,,,,,yellow,flipped triangle
0.0,6.0,1.0,1.0,6.0,6.0,546.365192000394,6.0,1.0,phase_2,go,350.0,300.0,1.0,,,,,,,,,cyan,diamond
0.0,8.0,4.0,1.0,6.0,0.0,0.0,6.0,1.0,phase_2,stop,350.0,300.0,4.0,,,,,,,,,blue,cross
0.0,3.0,2.0,0.0,5.0,5.0,579.6079309998277,6.0,1.0,phase_2,go,350.0,350.0,1.0,,,,,,,,,yellow,flipped triangle
0.0,2.0,1.0,0.0,5.0,5.0,586.103890999766,6.0,1.0,phase_2,go,350.0,350.0,1.0,,,,,,,,,green,hexagon
0.0,7.0,2.0,1.0,6.0,6.0,479.9822410000161,6.0,1.0,phase_2,stop,350.0,350.0,3.0,,,,,,,,,magenta,I
0.0,1.0,0.5,0.0,6.0,6.0,500.3550510000423,6.0,1.0,phase_2,go,350.0,300.0,1.0,,,,,,,,,orange,square
0.0,3.0,2.0,0.0,5.0,5.0,514.7346499998093,6.0,1.0,phase_2,go,350.0,300.0,1.0,,,,,,,,,yellow,flipped triangle
0.0,7.0,2.0,1.0,5.0,5.0,310.1271790001192,7.0,1.0,phase_2,stop,350.0,300.0,3.0,,,,,,,,,magenta,I
0.0,1.0,0.5,0.0,5.0,5.0,524.8927010002262,7.0,1.0,phase_2,go,300.0,300.0,1.0,,,,,,,,,orange,square
0.0,7.0,2.0,1.0,5.0,0.0,0.0,7.0,1.0,phase_2,stop,300.0,300.0,4.0,,,,,,,,,magenta,I
0.0,3.0,2.0,0.0,5.0,5.0,626.4138190003905,7.0,1.0,phase_2,go,350.0,300.0,1.0,,,,,,,,,yellow,flipped triangle
0.0,3.0,2.0,0.0,5.0,5.0,613.573315999929,7.0,1.0,phase_2,go,350.0,300.0,1.0,,,,,,,,,yellow,flipped triangle
0.0,5.0,0.5,1.0,5.0,0.0,0.0,7.0,1.0,phase_2,stop,350.0,300.0,4.0,,,,,,,,,white,triangle
0.0,1.0,0.5,0.0,6.0,6.0,528.8519010000527,7.0,1.0,phase_2,go,400.0,300.0,1.0,,,,,,,,,orange,square
0.0,8.0,4.0,1.0,5.0,0.0,0.0,7.0,1.0,phase_2,stop,400.0,300.0,4.0,,,,,,,,,blue,cross
0.0,4.0,4.0,0.0,5.0,5.0,580.4413040000327,7.0,1.0,phase_2,go,450.0,300.0,1.0,,,,,,,,,gray,circle
0.0,2.0,1.0,0.0,6.0,6.0,525.1378349998959,7.0,1.0,phase_2,go,450.0,300.0,1.0,,,,,,,,,green,hexagon
0.0,2.0,1.0,0.0,6.0,6.0,509.34057900030894,7.0,1.0,phase_2,go,450.0,300.0,1.0,,,,,,,,,green,hexagon
0.0,6.0,1.0,1.0,5.0,5.0,606.8528480000168,7.0,1.0,phase_2,go,450.0,300.0,1.0,,,,,,,,,cyan,diamond
0.0,8.0,4.0,1.0,6.0,6.0,668.6306220003644,7.0,1.0,phase_2,go,450.0,300.0,1.0,,,,,,,,,blue,cross
0.0,6.0,1.0,1.0,5.0,0.0,0.0,7.0,1.0,phase_2,stop,450.0,300.0,4.0,,,,,,,,,cyan,diamond
0.0,5.0,0.5,1.0,6.0,0.0,0.0,7.0,1.0,phase_2,stop,500.0,300.0,4.0,,,,,,,,,white,triangle
0.0,7.0,2.0,1.0,5.0,5.0,645.6002029999581,7.0,1.0,phase_2,stop,500.0,350.0,3.0,,,,,,,,,magenta,I
0.0,3.0,2.0,0.0,6.0,6.0,553.7037149997559,7.0,1.0,phase_2,go,450.0,350.0,1.0,,,,,,,,,yellow,flipped triangle
0.0,7.0,2.0,1.0,6.0,0.0,0.0,7.0,1.0,phase_2,stop,450.0,350.0,4.0,,,,,,,,,magenta,I
0.0,8.0,4.0,1.0,5.0,5.0,510.8567420002146,7.0,1.0,phase_2,stop,450.0,400.0,3.0,,,,,,,,,blue,cross
0.0,6.0,1.0,1.0,6.0,6.0,554.4654250002168,7.0,1.0,phase_2,go,400.0,400.0,1.0,,,,,,,,,cyan,diamond
0.0,7.0,2.0,1.0,6.0,6.0,358.0064200000379,7.0,1.0,phase_2,go,400.0,400.0,1.0,,,,,,,,,magenta,I
0.0,7.0,2.0,1.0,6.0,6.0,526.332168999943,7.0,1.0,phase_2,stop,400.0,400.0,3.0,,,,,,,,,magenta,I
0.0,1.0,0.5,0.0,6.0,6.0,660.3986170002827,7.0,1.0,phase_2,go,400.0,350.0,1.0,,,,,,,,,orange,square
0.0,8.0,4.0,1.0,6.0,0.0,0.0,7.0,1.0,phase_2,stop,400.0,350.0,4.0,,,,,,,,,blue,cross
0.0,3.0,2.0,0.0,5.0,5.0,732.4468219999289,7.0,1.0,phase_2,go,400.0,400.0,1.0,,,,,,,,,yellow,flipped triangle
0.0,1.0,0.5,0.0,6.0,6.0,610.05902099987,7.0,1.0,phase_2,go,400.0,400.0,1.0,,,,,,,,,orange,square
0.0,4.0,4.0,0.0,6.0,6.0,455.3514829999585,7.0,1.0,phase_2,go,400.0,400.0,1.0,,,,,,,,,gray,circle
0.0,7.0,2.0,1.0,6.0,6.0,527.8222450001522,7.0,1.0,phase_2,stop,400.0,400.0,3.0,,,,,,,,,magenta,I
0.0,2.0,1.0,0.0,5.0,5.0,523.4523529998114,7.0,1.0,phase_2,go,400.0,350.0,1.0,,,,,,,,,green,hexagon
0.0,4.0,4.0,0.0,5.0,5.0,562.8277559999333,7.0,1.0,phase_2,go,400.0,350.0,1.0,,,,,,,,,gray,circle
0.0,6.0,1.0,1.0,5.0,5.0,580.4130950000399,7.0,1.0,phase_2,stop,400.0,350.0,3.0,,,,,,,,,cyan,diamond
0.0,4.0,4.0,0.0,5.0,5.0,553.4983239999747,7.0,1.0,phase_2,go,350.0,350.0,1.0,,,,,,,,,gray,circle
0.0,5.0,0.5,1.0,5.0,0.0,0.0,7.0,1.0,phase_2,stop,350.0,350.0,4.0,,,,,,,,,white,triangle
0.0,1.0,0.5,0.0,5.0,5.0,551.3593929999843,7.0,1.0,phase_2,go,400.0,350.0,1.0,,,,,,,,,orange,square
0.0,4.0,4.0,0.0,5.0,5.0,640.8704489999764,7.0,1.0,phase_2,go,400.0,350.0,1.0,,,,,,,,,gray,circle
0.0,2.0,1.0,0.0,5.0,5.0,678.9997000000767,7.0,1.0,phase_2,go,400.0,350.0,1.0,,,,,,,,,green,hexagon
0.0,2.0,1.0,0.0,6.0,6.0,416.5848990000995,8.0,1.0,phase_2,go,400.0,350.0,1.0,,,,,,,,,green,hexagon
0.0,6.0,1.0,1.0,6.0,0.0,0.0,8.0,1.0,phase_2,stop,400.0,350.0,4.0,,,,,,,,,cyan,diamond
0.0,1.0,0.5,0.0,5.0,5.0,360.2420010001879,8.0,1.0,phase_2,go,400.0,400.0,1.0,,,,,,,,,orange,square
0.0,3.0,2.0,0.0,5.0,5.0,512.577013000282,8.0,1.0,phase_2,go,400.0,400.0,1.0,,,,,,,,,yellow,flipped triangle
0.0,7.0,2.0,1.0,5.0,5.0,543.8036669997928,8.0,1.0,phase_2,stop,400.0,400.0,3.0,,,,,,,,,magenta,I
0.0,2.0,1.0,0.0,5.0,5.0,543.38412900006,8.0,1.0,phase_2,go,350.0,400.0,1.0,,,,,,,,,green,hexagon
0.0,6.0,1.0,1.0,5.0,5.0,434.6192840002914,8.0,1.0,phase_2,stop,350.0,400.0,3.0,,,,,,,,,cyan,diamond
0.0,6.0,1.0,1.0,6.0,6.0,517.7027449999514,8.0,1.0,phase_2,stop,300.0,400.0,3.0,,,,,,,,,cyan,diamond
0.0,5.0,0.5,1.0,5.0,5.0,497.6054469998416,8.0,1.0,phase_2,go,300.0,350.0,1.0,,,,,,,,,white,triangle
0.0,5.0,0.5,1.0,6.0,6.0,433.6804640001901,8.0,1.0,phase_2,stop,300.0,350.0,3.0,,,,,,,,,white,triangle
0.0,8.0,4.0,1.0,6.0,0.0,0.0,8.0,1.0,phase_2,stop,300.0,300.0,4.0,,,,,,,,,blue,cross
0.0,5.0,0.5,1.0,5.0,5.0,532.4170799999592,8.0,1.0,phase_2,go,300.0,350.0,1.0,,,,,,,,,white,triangle
0.0,1.0,0.5,0.0,5.0,5.0,604.301046999808,8.0,1.0,phase_2,go,300.0,350.0,1.0,,,,,,,,,orange,square
0.0,5.0,0.5,1.0,6.0,0.0,0.0,8.0,1.0,phase_2,stop,300.0,350.0,4.0,,,,,,,,,white,triangle
0.0,7.0,2.0,1.0,5.0,0.0,0.0,8.0,1.0,phase_2,stop,300.0,400.0,4.0,,,,,,,,,magenta,I
0.0,6.0,1.0,1.0,6.0,6.0,520.324716000232,8.0,1.0,phase_2,stop,350.0,400.0,3.0,,,,,,,,,cyan,diamond
0.0,4.0,4.0,0.0,6.0,6.0,562.3587089999091,8.0,1.0,phase_2,go,350.0,350.0,1.0,,,,,,,,,gray,circle
0.0,1.0,0.5,0.0,5.0,5.0,610.2100530001735,8.0,1.0,phase_2,go,350.0,350.0,1.0,,,,,,,,,orange,square
0.0,8.0,4.0,1.0,5.0,0.0,0.0,8.0,1.0,phase_2,stop,350.0,350.0,4.0,,,,,,,,,blue,cross
0.0,8.0,4.0,1.0,5.0,5.0,663.4977379999327,8.0,1.0,phase_2,go,400.0,350.0,1.0,,,,,,,,,blue,cross
0.0,6.0,1.0,1.0,5.0,5.0,723.0599829999846,8.0,1.0,phase_2,go,400.0,350.0,1.0,,,,,,,,,cyan,diamond
0.0,7.0,2.0,1.0,5.0,5.0,503.61263000013423,8.0,1.0,phase_2,stop,400.0,350.0,3.0,,,,,,,,,magenta,I
0.0,8.0,4.0,1.0,6.0,0.0,0.0,8.0,1.0,phase_2,stop,350.0,350.0,4.0,,,,,,,,,blue,cross
0.0,7.0,2.0,1.0,5.0,0.0,0.0,8.0,1.0,phase_2,stop,350.0,400.0,4.0,,,,,,,,,magenta,I
0.0,3.0,2.0,0.0,6.0,6.0,326.9246929999099,8.0,1.0,phase_2,go,400.0,400.0,1.0,,,,,,,,,yellow,flipped triangle
0.0,1.0,0.5,0.0,5.0,5.0,657.4241830003302,8.0,1.0,phase_2,go,400.0,400.0,1.0,,,,,,,,,orange,square
0.0,5.0,0.5,1.0,6.0,0.0,0.0,8.0,1.0,phase_2,stop,400.0,400.0,4.0,,,,,,,,,white,triangle
0.0,8.0,4.0,1.0,5.0,0.0,0.0,8.0,1.0,phase_2,stop,400.0,450.0,4.0,,,,,,,,,blue,cross
0.0,3.0,2.0,0.0,5.0,5.0,519.0955929997472,8.0,1.0,phase_2,go,450.0,450.0,1.0,,,,,,,,,yellow,flipped triangle
0.0,2.0,1.0,0.0,6.0,6.0,509.76166600003125,8.0,1.0,phase_2,go,450.0,450.0,1.0,,,,,,,,,green,hexagon
0.0,3.0,2.0,0.0,6.0,6.0,522.3505240001032,8.0,1.0,phase_2,go,450.0,450.0,1.0,,,,,,,,,yellow,flipped triangle
0.0,3.0,2.0,0.0,6.0,6.0,620.6314800001564,8.0,1.0,phase_2,go,450.0,450.0,1.0,,,,,,,,,yellow,flipped triangle
0.0,3.0,2.0,0.0,6.0,6.0,476.512207000269,8.0,1.0,phase_2,go,450.0,450.0,1.0,,,,,,,,,yellow,flipped triangle
0.0,5.0,0.5,1.0,5.0,5.0,570.2709719998893,8.0,1.0,phase_2,stop,450.0,450.0,3.0,,,,,,,,,white,triangle
0.0,4.0,4.0,0.0,5.0,5.0,607.647715999974,8.0,1.0,phase_2,go,400.0,450.0,1.0,,,,,,,,,gray,circle
0.0,8.0,4.0,1.0,6.0,0.0,0.0,8.0,1.0,phase_2,stop,400.0,450.0,4.0,,,,,,,,,blue,cross
0.0,3.0,2.0,0.0,7.0,1.0,3171.297331999994,1.0,1.0,phase_3,,,,,196.0,4.0,196.0,49.0,294.0,147.0,245.0,98.0,yellow,flipped triangle
0.0,4.0,4.0,0.0,7.0,2.0,3154.2633429999114,1.0,1.0,phase_3,,,,,204.0,6.0,136.0,204.0,170.0,102.0,68.0,34.0,gray,circle
0.0,5.0,0.5,1.0,7.0,5.0,2146.603353000046,1.0,1.0,phase_3,,,,,102.0,3.0,68.0,34.0,136.0,170.0,102.0,204.0,white,triangle
0.0,8.0,4.0,1.0,7.0,4.0,3550.357908000024,1.0,1.0,phase_3,,,,,78.0,2.0,156.0,117.0,234.0,78.0,195.0,39.0,blue,cross
0.0,4.0,4.0,0.0,7.0,4.0,2856.4489320001485,1.0,1.0,phase_3,,,,,195.0,5.0,234.0,78.0,117.0,195.0,39.0,156.0,gray,circle
0.0,7.0,2.0,1.0,7.0,4.0,3589.196250999976,1.0,1.0,phase_3,,,,,216.0,4.0,270.0,108.0,162.0,216.0,54.0,324.0,magenta,I
0.0,5.0,0.5,1.0,7.0,6.0,2264.6914809997725,1.0,1.0,phase_3,,,,,117.0,3.0,234.0,195.0,156.0,78.0,39.0,117.0,white,triangle
0.0,1.0,0.5,0.0,7.0,4.0,2139.9160730002222,1.0,1.0,phase_3,,,,,54.0,1.0,216.0,270.0,162.0,54.0,108.0,324.0,orange,square
0.0,4.0,4.0,0.0,7.0,3.0,3034.065332999944,1.0,1.0,phase_3,,,,,245.0,5.0,147.0,49.0,245.0,294.0,98.0,196.0,gray,circle
0.0,8.0,4.0,1.0,7.0,4.0,2419.693405000089,1.0,1.0,phase_3,,,,,108.0,2.0,324.0,54.0,162.0,108.0,270.0,216.0,blue,cross
0.0,1.0,0.5,0.0,7.0,1.0,2046.8340439997519,1.0,1.0,phase_3,,,,,49.0,1.0,49.0,147.0,245.0,196.0,294.0,98.0,orange,square
0.0,6.0,1.0,1.0,7.0,2.0,2237.648021000041,1.0,1.0,phase_3,,,,,117.0,3.0,39.0,117.0,234.0,195.0,78.0,156.0,cyan,diamond
0.0,8.0,4.0,1.0,7.0,6.0,2108.080038000025,1.0,1.0,phase_3,,,,,195.0,5.0,117.0,78.0,234.0,156.0,39.0,195.0,blue,cross
0.0,7.0,2.0,1.0,7.0,3.0,1915.9753730000373,1.0,1.0,phase_3,,,,,220.0,5.0,88.0,176.0,220.0,264.0,44.0,132.0,magenta,I
0.0,5.0,0.5,1.0,7.0,5.0,2447.057192000102,1.0,1.0,phase_3,,,,,98.0,2.0,147.0,196.0,49.0,245.0,98.0,294.0,white,triangle
0.0,6.0,1.0,1.0,7.0,1.0,3120.880834999753,1.0,1.0,phase_3,,,,,102.0,3.0,102.0,136.0,34.0,68.0,170.0,204.0,cyan,diamond
0.0,7.0,2.0,1.0,7.0,3.0,3433.411177999915,1.0,1.0,phase_3,,,,,245.0,5.0,98.0,49.0,245.0,196.0,294.0,147.0,magenta,I
0.0,3.0,2.0,0.0,7.0,4.0,3027.2213220000594,1.0,1.0,phase_3,,,,,88.0,2.0,44.0,176.0,220.0,88.0,264.0,132.0,yellow,flipped triangle
0.0,1.0,0.5,0.0,7.0,4.0,2388.936670000021,1.0,1.0,phase_3,,,,,98.0,2.0,245.0,294.0,49.0,98.0,147.0,196.0,orange,square
0.0,7.0,2.0,1.0,7.0,6.0,2099.833936999857,1.0,1.0,phase_3,,,,,98.0,2.0,147.0,245.0,49.0,294.0,196.0,98.0,magenta,I
0.0,8.0,4.0,1.0,7.0,2.0,1548.0420950002554,2.0,1.0,phase_3,,,,,147.0,3.0,49.0,147.0,98.0,294.0,196.0,245.0,blue,cross
0.0,8.0,4.0,1.0,7.0,2.0,3148.520278999968,2.0,1.0,phase_3,,,,,170.0,5.0,34.0,170.0,68.0,136.0,204.0,102.0,blue,cross
0.0,8.0,4.0,1.0,7.0,1.0,3039.28885500045,2.0,1.0,phase_3,,,,,136.0,4.0,136.0,170.0,34.0,68.0,102.0,204.0,blue,cross
0.0,3.0,2.0,0.0,7.0,1.0,2836.6160970003875,2.0,1.0,phase_3,,,,,98.0,2.0,98.0,196.0,147.0,49.0,294.0,245.0,yellow,flipped triangle
0.0,2.0,1.0,0.0,7.0,5.0,2069.342613000117,2.0,1.0,phase_3,,,,,108.0,2.0,162.0,54.0,270.0,324.0,108.0,216.0,green,hexagon
0.0,7.0,2.0,1.0,7.0,3.0,3078.445329999795,2.0,1.0,phase_3,,,,,162.0,3.0,270.0,54.0,162.0,216.0,324.0,108.0,magenta,I
0.0,4.0,4.0,0.0,7.0,3.0,2549.16712000022,2.0,1.0,phase_3,,,,,234.0,6.0,117.0,78.0,234.0,195.0,39.0,156.0,gray,circle
0.0,4.0,4.0,0.0,7.0,4.0,3586.8251089996197,2.0,1.0,phase_3,,,,,108.0,2.0,162.0,54.0,324.0,108.0,270.0,216.0,gray,circle
0.0,6.0,1.0,1.0,7.0,5.0,3620.270478999373,2.0,1.0,phase_3,,,,,108.0,2.0,216.0,324.0,162.0,54.0,108.0,270.0,cyan,diamond
0.0,2.0,1.0,0.0,7.0,1.0,1851.3536579994247,2.0,1.0,phase_3,,,,,98.0,2.0,98.0,196.0,147.0,49.0,245.0,294.0,green,hexagon
0.0,3.0,2.0,0.0,7.0,1.0,2151.937997999994,2.0,1.0,phase_3,,,,,170.0,5.0,170.0,204.0,34.0,136.0,102.0,68.0,yellow,flipped triangle
0.0,4.0,4.0,0.0,7.0,6.0,2315.8845190000648,2.0,1.0,phase_3,,,,,68.0,2.0,204.0,34.0,102.0,136.0,170.0,68.0,gray,circle
0.0,7.0,2.0,1.0,7.0,4.0,4245.672063000711,2.0,1.0,phase_3,,,,,132.0,3.0,176.0,220.0,264.0,132.0,88.0,44.0,magenta,I
0.0,1.0,0.5,0.0,7.0,1.0,2691.089309000745,2.0,1.0,phase_3,,,,,78.0,2.0,78.0,117.0,156.0,39.0,195.0,234.0,orange,square
0.0,5.0,0.5,1.0,7.0,1.0,3890.0661300003776,2.0,1.0,phase_3,,,,,162.0,3.0,162.0,324.0,270.0,216.0,108.0,54.0,white,triangle
0.0,6.0,1.0,1.0,7.0,3.0,3985.102671999812,2.0,1.0,phase_3,,,,,98.0,2.0,147.0,245.0,98.0,294.0,49.0,196.0,cyan,diamond
0.0,6.0,1.0,1.0,7.0,5.0,2806.307838999601,2.0,1.0,phase_3,,,,,132.0,3.0,176.0,264.0,88.0,44.0,132.0,220.0,cyan,diamond
0.0,6.0,1.0,1.0,7.0,6.0,3822.4139639996793,2.0,1.0,phase_3,,,,,98.0,2.0,196.0,294.0,245.0,49.0,147.0,98.0,cyan,diamond
0.0,3.0,2.0,0.0,7.0,5.0,4598.143761000756,2.0,1.0,phase_3,,,,,68.0,2.0,34.0,170.0,136.0,204.0,68.0,102.0,yellow,flipped triangle
0.0,2.0,1.0,0.0,7.0,3.0,1475.224353000158,2.0,1.0,phase_3,,,,,117.0,3.0,156.0,78.0,117.0,234.0,195.0,39.0,green,hexagon
0.0,6.0,1.0,1.0,7.0,4.0,1511.118303999865,3.0,1.0,phase_3,,,,,156.0,4.0,117.0,78.0,195.0,156.0,39.0,234.0,cyan,diamond
0.0,7.0,2.0,1.0,7.0,2.0,2068.288959999336,3.0,1.0,phase_3,,,,,234.0,6.0,78.0,234.0,117.0,195.0,39.0,156.0,magenta,I
0.0,1.0,0.5,0.0,7.0,5.0,3467.414114999883,3.0,1.0,phase_3,,,,,44.0,1.0,220.0,88.0,264.0,132.0,44.0,176.0,orange,square
0.0,1.0,0.5,0.0,7.0,4.0,3234.8186649996933,3.0,1.0,phase_3,,,,,54.0,1.0,324.0,270.0,108.0,54.0,216.0,162.0,orange,square
0.0,4.0,4.0,0.0,7.0,6.0,3611.98552299993,3.0,1.0,phase_3,,,,,324.0,6.0,216.0,270.0,108.0,54.0,162.0,324.0,gray,circle
0.0,1.0,0.5,0.0,7.0,6.0,2937.58558799982,3.0,1.0,phase_3,,,,,88.0,2.0,220.0,264.0,44.0,132.0,176.0,88.0,orange,square
0.0,3.0,2.0,0.0,7.0,6.0,4676.316750999831,3.0,1.0,phase_3,,,,,162.0,3.0,108.0,324.0,54.0,216.0,270.0,162.0,yellow,flipped triangle
0.0,5.0,0.5,1.0,7.0,1.0,3571.6191450001133,3.0,1.0,phase_3,,,,,88.0,2.0,88.0,132.0,220.0,176.0,44.0,264.0,white,triangle
0.0,1.0,0.5,0.0,7.0,5.0,3964.777346000119,3.0,1.0,phase_3,,,,,68.0,2.0,170.0,34.0,136.0,204.0,68.0,102.0,orange,square
0.0,2.0,1.0,0.0,7.0,4.0,3393.270200999723,3.0,1.0,phase_3,,,,,88.0,2.0,132.0,176.0,44.0,88.0,264.0,220.0,green,hexagon
0.0,5.0,0.5,1.0,7.0,5.0,3691.906207000102,3.0,1.0,phase_3,,,,,176.0,4.0,88.0,264.0,220.0,44.0,176.0,132.0,white,triangle
0.0,6.0,1.0,1.0,7.0,3.0,1123.1420539997998,3.0,2.0,phase_3,,,,,132.0,3.0,44.0,264.0,132.0,176.0,220.0,88.0,cyan,diamond
0.0,2.0,1.0,0.0,7.0,5.0,3054.2499829998637,3.0,1.0,phase_3,,,,,108.0,2.0,324.0,162.0,54.0,216.0,108.0,270.0,green,hexagon
0.0,6.0,1.0,1.0,7.0,1.0,4004.5901599996796,3.0,1.0,phase_3,,,,,170.0,5.0,170.0,102.0,34.0,136.0,68.0,204.0,cyan,diamond
0.0,3.0,2.0,0.0,7.0,5.0,3759.0408779997233,3.0,1.0,phase_3,,,,,156.0,4.0,39.0,195.0,234.0,78.0,156.0,117.0,yellow,flipped triangle
0.0,3.0,2.0,0.0,7.0,4.0,4186.044877999848,3.0,1.0,phase_3,,,,,176.0,4.0,264.0,44.0,132.0,176.0,88.0,220.0,yellow,flipped triangle
0.0,1.0,0.5,0.0,7.0,2.0,2012.5768160005464,3.0,1.0,phase_3,,,,,102.0,3.0,68.0,102.0,34.0,170.0,204.0,136.0,orange,square
0.0,3.0,2.0,0.0,7.0,3.0,3975.8705230005935,3.0,1.0,phase_3,,,,,216.0,4.0,162.0,324.0,216.0,108.0,270.0,54.0,yellow,flipped triangle
0.0,4.0,4.0,0.0,7.0,1.0,2664.1386800001783,3.0,1.0,phase_3,,,,,88.0,2.0,88.0,132.0,264.0,176.0,220.0,44.0,gray,circle
0.0,8.0,4.0,1.0,7.0,4.0,3556.602565000503,3.0,1.0,phase_3,,,,,176.0,4.0,44.0,88.0,220.0,176.0,132.0,264.0,blue,cross
0.0,4.0,4.0,0.0,7.0,4.0,2729.6704799991858,4.0,1.0,phase_3,,,,,294.0,6.0,98.0,147.0,196.0,294.0,49.0,245.0,gray,circle
0.0,2.0,1.0,0.0,7.0,2.0,3509.261672999856,4.0,1.0,phase_3,,,,,102.0,3.0,204.0,102.0,136.0,170.0,34.0,68.0,green,hexagon
0.0,5.0,0.5,1.0,7.0,3.0,3352.2053629994844,4.0,1.0,phase_3,,,,,108.0,2.0,162.0,54.0,108.0,216.0,324.0,270.0,white,triangle
0.0,7.0,2.0,1.0,7.0,1.0,2844.8063489995548,4.0,1.0,phase_3,,,,,136.0,4.0,136.0,204.0,34.0,170.0,68.0,102.0,magenta,I
0.0,1.0,0.5,0.0,7.0,5.0,3254.621345000487,4.0,1.0,phase_3,,,,,117.0,3.0,39.0,234.0,78.0,195.0,117.0,156.0,orange,square
0.0,5.0,0.5,1.0,7.0,5.0,3297.8409780007496,4.0,1.0,phase_3,,,,,195.0,5.0,39.0,156.0,117.0,234.0,195.0,78.0,white,triangle
0.0,8.0,4.0,1.0,7.0,4.0,2868.8135240008705,4.0,1.0,phase_3,,,,,264.0,6.0,88.0,220.0,132.0,264.0,44.0,176.0,blue,cross
0.0,5.0,0.5,1.0,7.0,1.0,2962.564255999496,4.0,1.0,phase_3,,,,,136.0,4.0,136.0,170.0,204.0,102.0,34.0,68.0,white,triangle
0.0,3.0,2.0,0.0,7.0,6.0,2655.1882169997043,4.0,1.0,phase_3,,,,,156.0,4.0,117.0,39.0,234.0,195.0,78.0,156.0,yellow,flipped triangle
0.0,2.0,1.0,0.0,7.0,4.0,3718.543963999764,4.0,1.0,phase_3,,,,,136.0,4.0,170.0,204.0,34.0,136.0,68.0,102.0,green,hexagon
0.0,2.0,1.0,0.0,7.0,6.0,3119.01420599952,4.0,1.0,phase_3,,,,,147.0,3.0,49.0,196.0,98.0,245.0,294.0,147.0,green,hexagon
0.0,2.0,1.0,0.0,7.0,5.0,2923.07239999991,4.0,1.0,phase_3,,,,,88.0,2.0,220.0,44.0,132.0,176.0,88.0,264.0,green,hexagon
0.0,2.0,1.0,0.0,7.0,3.0,1990.977337000004,4.0,1.0,phase_3,,,,,39.0,1.0,156.0,117.0,39.0,195.0,78.0,234.0,green,hexagon
0.0,8.0,4.0,1.0,7.0,2.0,1806.4854000003836,4.0,1.0,phase_3,,,,,216.0,4.0,54.0,216.0,162.0,270.0,108.0,324.0,blue,cross
0.0,7.0,2.0,1.0,7.0,3.0,2738.518168000155,4.0,1.0,phase_3,,,,,136.0,4.0,170.0,68.0,136.0,34.0,204.0,102.0,magenta,I
0.0,4.0,4.0,0.0,7.0,4.0,2471.20274900044,4.0,1.0,phase_3,,,,,264.0,6.0,176.0,44.0,220.0,264.0,132.0,88.0,gray,circle
0.0,6.0,1.0,1.0,7.0,1.0,3578.024407999692,4.0,1.0,phase_3,,,,,162.0,3.0,162.0,108.0,216.0,324.0,270.0,54.0,cyan,diamond
0.0,7.0,2.0,1.0,7.0,3.0,3100.63739799989,4.0,1.0,phase_3,,,,,156.0,4.0,195.0,78.0,156.0,234.0,117.0,39.0,magenta,I
0.0,8.0,4.0,1.0,7.0,2.0,3156.308299000557,4.0,1.0,phase_3,,,,,147.0,3.0,294.0,147.0,245.0,49.0,98.0,196.0,blue,cross
0.0,5.0,0.5,1.0,7.0,6.0,2519.0990760002023,4.0,1.0,phase_3,,,,,147.0,3.0,49.0,245.0,294.0,196.0,98.0,147.0,white,triangle
