raw_reward_magnitude,stim_reward,stepwise_reward_magnitude,paired_with_stopping,quadrant,response,reaction_time,block,num_trial_presentations,which_part,stop_signal_trial_type,left_SSD,right_SSD,accuracy,chosen_bidding_amount,chosen_bidding_level,possible_bid_1,possible_bid_2,possible_bid_3,possible_bid_4,possible_bid_5,possible_bid_6,color_text,shape_text
393.0,8.0,4.0,1.0,3.0,3.0,673.7219299998287,1.0,1.0,part_1,,,,,,,,,,,,,cyan,cross
0.0,5.0,0.0,1.0,4.0,4.0,544.870680999793,1.0,1.0,part_1,,,,,,,,,,,,,blue,diamond
0.0,3.0,0.0,0.0,3.0,3.0,453.5911410000608,1.0,1.0,part_1,,,,,,,,,,,,,gray,circle
217.0,7.0,3.0,1.0,2.0,2.0,421.5767949999645,1.0,1.0,part_1,,,,,,,,,,,,,green,flipped triangle
49.0,5.0,1.0,1.0,2.0,2.0,504.80504299980566,1.0,1.0,part_1,,,,,,,,,,,,,blue,diamond
99.0,6.0,2.0,1.0,1.0,1.0,447.3244749999594,1.0,1.0,part_1,,,,,,,,,,,,,orange,hexagon
99.0,2.0,2.0,0.0,3.0,3.0,367.4988860000212,1.0,1.0,part_1,,,,,,,,,,,,,yellow,square
0.0,2.0,0.0,0.0,3.0,3.0,485.8227310000984,1.0,1.0,part_1,,,,,,,,,,,,,yellow,square
114.0,2.0,2.0,0.0,4.0,4.0,497.0734329999686,1.0,1.0,part_1,,,,,,,,,,,,,yellow,square
88.0,2.0,2.0,0.0,2.0,2.0,382.811515999947,1.0,1.0,part_1,,,,,,,,,,,,,yellow,square
85.0,6.0,2.0,1.0,4.0,4.0,482.3667499999828,1.0,1.0,part_1,,,,,,,,,,,,,orange,hexagon
176.0,7.0,3.0,1.0,2.0,2.0,316.9971810000334,1.0,1.0,part_1,,,,,,,,,,,,,green,flipped triangle
60.0,5.0,1.0,1.0,3.0,3.0,471.6927670001496,1.0,1.0,part_1,,,,,,,,,,,,,blue,diamond
0.0,1.0,0.0,0.0,1.0,1.0,414.6028780000961,1.0,1.0,part_1,,,,,,,,,,,,,white,I
220.0,3.0,3.0,0.0,4.0,4.0,436.9507970000086,1.0,1.0,part_1,,,,,,,,,,,,,gray,circle
401.0,8.0,4.0,1.0,1.0,1.0,403.2748360000369,1.0,1.0,part_1,,,,,,,,,,,,,cyan,cross
377.0,4.0,4.0,0.0,2.0,2.0,425.2270780000344,1.0,1.0,part_1,,,,,,,,,,,,,magenta,triangle
218.0,3.0,3.0,0.0,3.0,3.0,440.5921640000088,1.0,1.0,part_1,,,,,,,,,,,,,gray,circle
183.0,7.0,3.0,1.0,4.0,4.0,522.9760839999926,1.0,1.0,part_1,,,,,,,,,,,,,green,flipped triangle
60.0,1.0,1.0,0.0,4.0,4.0,449.4370530001106,1.0,1.0,part_1,,,,,,,,,,,,,white,I
222.0,7.0,3.0,1.0,1.0,1.0,439.8887920001471,1.0,1.0,part_1,,,,,,,,,,,,,green,flipped triangle
97.0,6.0,2.0,1.0,4.0,4.0,406.7685889999666,1.0,1.0,part_1,,,,,,,,,,,,,orange,hexagon
180.0,7.0,3.0,1.0,1.0,1.0,431.3599100000829,1.0,1.0,part_1,,,,,,,,,,,,,green,flipped triangle
38.0,5.0,1.0,1.0,2.0,2.0,558.2260560001941,1.0,1.0,part_1,,,,,,,,,,,,,blue,diamond
103.0,2.0,2.0,0.0,2.0,2.0,480.2267629997914,1.0,1.0,part_1,,,,,,,,,,,,,yellow,square
109.0,2.0,2.0,0.0,1.0,1.0,516.6578179998851,1.0,1.0,part_1,,,,,,,,,,,,,yellow,square
0.0,8.0,0.0,1.0,4.0,4.0,386.3190409999788,1.0,1.0,part_1,,,,,,,,,,,,,cyan,cross
0.0,7.0,0.0,1.0,1.0,1.0,391.1766090000128,1.0,1.0,part_1,,,,,,,,,,,,,green,flipped triangle
85.0,2.0,2.0,0.0,3.0,3.0,469.0108810000311,1.0,1.0,part_1,,,,,,,,,,,,,yellow,square
208.0,7.0,3.0,1.0,1.0,1.0,431.9829620001201,1.0,1.0,part_1,,,,,,,,,,,,,green,flipped triangle
32.0,1.0,1.0,0.0,3.0,3.0,428.0532189998212,1.0,1.0,part_1,,,,,,,,,,,,,white,I
39.0,5.0,1.0,1.0,1.0,1.0,433.951167000032,1.0,1.0,part_1,,,,,,,,,,,,,blue,diamond
0.0,3.0,0.0,0.0,1.0,1.0,493.8743289999365,1.0,1.0,part_1,,,,,,,,,,,,,gray,circle
180.0,3.0,3.0,0.0,4.0,4.0,396.6301020000173,1.0,1.0,part_1,,,,,,,,,,,,,gray,circle
196.0,3.0,3.0,0.0,1.0,1.0,386.2172830001782,1.0,1.0,part_1,,,,,,,,,,,,,gray,circle
222.0,7.0,3.0,1.0,2.0,2.0,374.1353719999551,1.0,1.0,part_1,,,,,,,,,,,,,green,flipped triangle
0.0,1.0,0.0,0.0,4.0,4.0,360.6593839999732,1.0,1.0,part_1,,,,,,,,,,,,,white,I
213.0,3.0,3.0,0.0,3.0,3.0,397.7186820000042,1.0,1.0,part_1,,,,,,,,,,,,,gray,circle
100.0,6.0,2.0,1.0,3.0,3.0,409.2303209999954,1.0,1.0,part_1,,,,,,,,,,,,,orange,hexagon
422.0,4.0,4.0,0.0,1.0,1.0,345.7390920000307,1.0,1.0,part_1,,,,,,,,,,,,,magenta,triangle
104.0,6.0,2.0,1.0,3.0,3.0,436.0713599999144,1.0,1.0,part_1,,,,,,,,,,,,,orange,hexagon
0.0,4.0,0.0,0.0,2.0,2.0,420.9633190000659,1.0,1.0,part_1,,,,,,,,,,,,,magenta,triangle
0.0,8.0,0.0,1.0,4.0,4.0,378.962010999885,1.0,1.0,part_1,,,,,,,,,,,,,cyan,cross
62.0,1.0,1.0,0.0,3.0,3.0,440.0379310000062,1.0,1.0,part_1,,,,,,,,,,,,,white,I
60.0,5.0,1.0,1.0,2.0,2.0,453.4751649998725,1.0,1.0,part_1,,,,,,,,,,,,,blue,diamond
408.0,8.0,4.0,1.0,1.0,1.0,476.6520270000001,1.0,1.0,part_1,,,,,,,,,,,,,cyan,cross
62.0,1.0,1.0,0.0,3.0,3.0,530.9381140000369,1.0,1.0,part_1,,,,,,,,,,,,,white,I
376.0,8.0,4.0,1.0,2.0,2.0,375.6995850001203,1.0,1.0,part_1,,,,,,,,,,,,,cyan,cross
94.0,2.0,2.0,0.0,3.0,3.0,419.2108880001797,1.0,1.0,part_1,,,,,,,,,,,,,yellow,square
0.0,1.0,0.0,0.0,3.0,3.0,408.5152229999949,1.0,1.0,part_1,,,,,,,,,,,,,white,I
408.0,8.0,4.0,1.0,1.0,1.0,637.649250000095,1.0,1.0,part_1,,,,,,,,,,,,,cyan,cross
119.0,2.0,2.0,0.0,1.0,1.0,438.6422000000038,1.0,1.0,part_1,,,,,,,,,,,,,yellow,square
90.0,2.0,2.0,0.0,4.0,4.0,440.0195919999987,1.0,1.0,part_1,,,,,,,,,,,,,yellow,square
0.0,2.0,0.0,0.0,2.0,2.0,445.9133270001985,1.0,1.0,part_1,,,,,,,,,,,,,yellow,square
218.0,7.0,3.0,1.0,4.0,4.0,435.0227209999957,1.0,1.0,part_1,,,,,,,,,,,,,green,flipped triangle
203.0,3.0,3.0,0.0,3.0,3.0,364.5998889999191,1.0,1.0,part_1,,,,,,,,,,,,,gray,circle
40.0,1.0,1.0,0.0,1.0,1.0,533.1023119999827,1.0,1.0,part_1,,,,,,,,,,,,,white,I
403.0,8.0,4.0,1.0,3.0,3.0,372.4486209998758,1.0,1.0,part_1,,,,,,,,,,,,,cyan,cross
65.0,1.0,1.0,0.0,3.0,3.0,507.37717199990584,1.0,1.0,part_1,,,,,,,,,,,,,white,I
220.0,7.0,3.0,1.0,4.0,4.0,486.9332869998288,1.0,1.0,part_1,,,,,,,,,,,,,green,flipped triangle
45.0,5.0,1.0,1.0,4.0,4.0,446.3742679999996,1.0,1.0,part_1,,,,,,,,,,,,,blue,diamond
55.0,1.0,1.0,0.0,1.0,1.0,419.1793769998639,1.0,1.0,part_1,,,,,,,,,,,,,white,I
35.0,1.0,1.0,0.0,2.0,2.0,482.29480100008,1.0,1.0,part_1,,,,,,,,,,,,,white,I
398.0,4.0,4.0,0.0,3.0,3.0,510.901062999892,1.0,1.0,part_1,,,,,,,,,,,,,magenta,triangle
201.0,3.0,3.0,0.0,1.0,1.0,425.4739579998841,1.0,1.0,part_1,,,,,,,,,,,,,gray,circle
190.0,3.0,3.0,0.0,3.0,3.0,434.9615789999461,1.0,1.0,part_1,,,,,,,,,,,,,gray,circle
56.0,5.0,1.0,1.0,3.0,3.0,585.8953619999738,1.0,1.0,part_1,,,,,,,,,,,,,blue,diamond
211.0,7.0,3.0,1.0,2.0,2.0,398.748243,1.0,1.0,part_1,,,,,,,,,,,,,green,flipped triangle
103.0,6.0,2.0,1.0,3.0,3.0,339.5142599999872,1.0,1.0,part_1,,,,,,,,,,,,,orange,hexagon
196.0,3.0,3.0,0.0,4.0,4.0,469.8848139998972,1.0,1.0,part_1,,,,,,,,,,,,,gray,circle
408.0,4.0,4.0,0.0,1.0,1.0,602.6530379999713,1.0,1.0,part_1,,,,,,,,,,,,,magenta,triangle
83.0,6.0,2.0,1.0,3.0,3.0,326.714531999869,1.0,1.0,part_1,,,,,,,,,,,,,orange,hexagon
51.0,1.0,1.0,0.0,3.0,3.0,336.9703959999697,1.0,1.0,part_1,,,,,,,,,,,,,white,I
69.0,1.0,1.0,0.0,3.0,3.0,295.6449819998852,1.0,1.0,part_1,,,,,,,,,,,,,white,I
0.0,3.0,0.0,0.0,4.0,4.0,573.3094329998494,1.0,1.0,part_1,,,,,,,,,,,,,gray,circle
0.0,7.0,0.0,1.0,3.0,3.0,520.5630079999537,1.0,1.0,part_1,,,,,,,,,,,,,green,flipped triangle
183.0,3.0,3.0,0.0,1.0,1.0,355.5590920000213,1.0,1.0,part_1,,,,,,,,,,,,,gray,circle
109.0,6.0,2.0,1.0,1.0,1.0,430.5786439999792,1.0,1.0,part_1,,,,,,,,,,,,,orange,hexagon
0.0,6.0,0.0,1.0,4.0,4.0,404.6308359997965,1.0,1.0,part_1,,,,,,,,,,,,,orange,hexagon
0.0,7.0,0.0,1.0,3.0,3.0,362.3374169999351,1.0,1.0,part_1,,,,,,,,,,,,,green,flipped triangle
38.0,1.0,1.0,0.0,4.0,4.0,398.9599509998243,1.0,1.0,part_1,,,,,,,,,,,,,white,I
421.0,8.0,4.0,1.0,1.0,1.0,339.6801149999646,1.0,1.0,part_1,,,,,,,,,,,,,cyan,cross
0.0,8.0,0.0,1.0,2.0,2.0,338.3444689998214,1.0,1.0,part_1,,,,,,,,,,,,,cyan,cross
67.0,5.0,1.0,1.0,3.0,3.0,386.1222989999078,1.0,1.0,part_1,,,,,,,,,,,,,blue,diamond
123.0,2.0,2.0,0.0,4.0,4.0,449.5065339999655,1.0,1.0,part_1,,,,,,,,,,,,,yellow,square
78.0,2.0,2.0,0.0,3.0,3.0,345.9924329999921,1.0,1.0,part_1,,,,,,,,,,,,,yellow,square
178.0,3.0,3.0,0.0,4.0,4.0,373.7188730001435,1.0,1.0,part_1,,,,,,,,,,,,,gray,circle
201.0,7.0,3.0,1.0,3.0,3.0,348.182720000068,1.0,1.0,part_1,,,,,,,,,,,,,green,flipped triangle
0.0,2.0,0.0,0.0,4.0,4.0,323.2047469998633,1.0,1.0,part_1,,,,,,,,,,,,,yellow,square
0.0,2.0,0.0,0.0,4.0,4.0,374.465735000058,1.0,1.0,part_1,,,,,,,,,,,,,yellow,square
178.0,3.0,3.0,0.0,2.0,2.0,418.4747450001396,1.0,1.0,part_1,,,,,,,,,,,,,gray,circle
211.0,3.0,3.0,0.0,3.0,3.0,451.5574540000671,1.0,1.0,part_1,,,,,,,,,,,,,gray,circle
109.0,6.0,2.0,1.0,3.0,3.0,749.4192930000736,1.0,1.0,part_1,,,,,,,,,,,,,orange,hexagon
399.0,4.0,4.0,0.0,4.0,4.0,518.5591730000851,1.0,1.0,part_1,,,,,,,,,,,,,magenta,triangle
0.0,8.0,0.0,1.0,3.0,3.0,559.5163469999989,1.0,1.0,part_1,,,,,,,,,,,,,cyan,cross
200.0,7.0,3.0,1.0,3.0,3.0,595.1269770000636,1.0,1.0,part_1,,,,,,,,,,,,,green,flipped triangle
196.0,7.0,3.0,1.0,3.0,3.0,889.7613380001985,1.0,1.0,part_1,,,,,,,,,,,,,green,flipped triangle
197.0,3.0,3.0,0.0,2.0,2.0,357.1415050000723,1.0,2.0,part_1,,,,,,,,,,,,,gray,circle
30.0,5.0,1.0,1.0,3.0,3.0,378.7969610000345,1.0,1.0,part_1,,,,,,,,,,,,,blue,diamond
103.0,6.0,2.0,1.0,2.0,2.0,380.2629429999342,1.0,1.0,part_1,,,,,,,,,,,,,orange,hexagon
90.0,2.0,2.0,0.0,3.0,3.0,402.0574029998442,2.0,1.0,part_1,,,,,,,,,,,,,yellow,square
0.0,2.0,0.0,0.0,3.0,3.0,901.1419259998092,2.0,1.0,part_1,,,,,,,,,,,,,yellow,square
386.0,4.0,4.0,0.0,3.0,3.0,647.8265109999484,2.0,1.0,part_1,,,,,,,,,,,,,magenta,triangle
393.0,4.0,4.0,0.0,3.0,3.0,366.9926689999556,2.0,1.0,part_1,,,,,,,,,,,,,magenta,triangle
402.0,4.0,4.0,0.0,4.0,4.0,428.0311090001305,2.0,1.0,part_1,,,,,,,,,,,,,magenta,triangle
190.0,7.0,3.0,1.0,3.0,3.0,419.4459600000755,2.0,1.0,part_1,,,,,,,,,,,,,green,flipped triangle
110.0,2.0,2.0,0.0,2.0,2.0,392.5903030001336,2.0,1.0,part_1,,,,,,,,,,,,,yellow,square
0.0,4.0,0.0,0.0,1.0,1.0,412.8063599998768,2.0,1.0,part_1,,,,,,,,,,,,,magenta,triangle
0.0,7.0,0.0,1.0,1.0,1.0,372.373164999999,2.0,1.0,part_1,,,,,,,,,,,,,green,flipped triangle
199.0,7.0,3.0,1.0,1.0,1.0,417.1381759999804,2.0,1.0,part_1,,,,,,,,,,,,,green,flipped triangle
198.0,3.0,3.0,0.0,4.0,4.0,394.4044739998844,2.0,1.0,part_1,,,,,,,,,,,,,gray,circle
421.0,8.0,4.0,1.0,3.0,3.0,435.670527999946,2.0,1.0,part_1,,,,,,,,,,,,,cyan,cross
62.0,1.0,1.0,0.0,3.0,3.0,336.827797000069,2.0,1.0,part_1,,,,,,,,,,,,,white,I
33.0,5.0,1.0,1.0,4.0,4.0,334.887690999949,2.0,1.0,part_1,,,,,,,,,,,,,blue,diamond
415.0,4.0,4.0,0.0,1.0,1.0,370.1896120001038,2.0,1.0,part_1,,,,,,,,,,,,,magenta,triangle
381.0,8.0,4.0,1.0,4.0,4.0,381.5211419998832,2.0,1.0,part_1,,,,,,,,,,,,,cyan,cross
398.0,4.0,4.0,0.0,2.0,2.0,442.7681049999137,2.0,1.0,part_1,,,,,,,,,,,,,magenta,triangle
39.0,1.0,1.0,0.0,2.0,2.0,423.3003110000481,2.0,1.0,part_1,,,,,,,,,,,,,white,I
0.0,1.0,0.0,0.0,4.0,4.0,363.71340200003027,2.0,2.0,part_1,,,,,,,,,,,,,white,I
72.0,1.0,1.0,0.0,1.0,1.0,389.2281849998653,2.0,1.0,part_1,,,,,,,,,,,,,white,I
69.0,5.0,1.0,1.0,1.0,1.0,526.9381629998406,2.0,1.0,part_1,,,,,,,,,,,,,blue,diamond
178.0,7.0,3.0,1.0,1.0,1.0,345.3069229999528,2.0,1.0,part_1,,,,,,,,,,,,,green,flipped triangle
0.0,3.0,0.0,0.0,4.0,4.0,385.9676900001432,2.0,1.0,part_1,,,,,,,,,,,,,gray,circle
395.0,4.0,4.0,0.0,4.0,4.0,334.9398029999975,2.0,1.0,part_1,,,,,,,,,,,,,magenta,triangle
419.0,8.0,4.0,1.0,3.0,3.0,332.454448000135,2.0,1.0,part_1,,,,,,,,,,,,,cyan,cross
102.0,6.0,2.0,1.0,2.0,2.0,331.1749540000619,2.0,1.0,part_1,,,,,,,,,,,,,orange,hexagon
408.0,4.0,4.0,0.0,4.0,4.0,403.0241499999647,2.0,1.0,part_1,,,,,,,,,,,,,magenta,triangle
194.0,7.0,3.0,1.0,1.0,1.0,370.8971559999554,2.0,1.0,part_1,,,,,,,,,,,,,green,flipped triangle
406.0,8.0,4.0,1.0,1.0,1.0,489.0285399999357,2.0,1.0,part_1,,,,,,,,,,,,,cyan,cross
106.0,2.0,2.0,0.0,1.0,1.0,291.8733889998748,2.0,1.0,part_1,,,,,,,,,,,,,yellow,square
402.0,8.0,4.0,1.0,2.0,2.0,344.7402760000386,2.0,1.0,part_1,,,,,,,,,,,,,cyan,cross
118.0,2.0,2.0,0.0,2.0,2.0,375.3358630001457,2.0,1.0,part_1,,,,,,,,,,,,,yellow,square
0.0,6.0,0.0,1.0,2.0,2.0,330.6916530000308,2.0,1.0,part_1,,,,,,,,,,,,,orange,hexagon
0.0,7.0,0.0,1.0,3.0,3.0,328.2766390000233,2.0,1.0,part_1,,,,,,,,,,,,,green,flipped triangle
106.0,6.0,2.0,1.0,1.0,1.0,500.141160000112,2.0,1.0,part_1,,,,,,,,,,,,,orange,hexagon
207.0,7.0,3.0,1.0,3.0,3.0,517.0792680000886,2.0,1.0,part_1,,,,,,,,,,,,,green,flipped triangle
60.0,1.0,1.0,0.0,3.0,3.0,553.7597580000693,2.0,1.0,part_1,,,,,,,,,,,,,white,I
33.0,1.0,1.0,0.0,4.0,4.0,474.1121059998932,2.0,1.0,part_1,,,,,,,,,,,,,white,I
419.0,8.0,4.0,1.0,4.0,4.0,366.6883640000833,2.0,1.0,part_1,,,,,,,,,,,,,cyan,cross
93.0,2.0,2.0,0.0,2.0,2.0,270.7134150000456,2.0,1.0,part_1,,,,,,,,,,,,,yellow,square
0.0,4.0,0.0,0.0,1.0,1.0,447.3292690001926,2.0,1.0,part_1,,,,,,,,,,,,,magenta,triangle
59.0,5.0,1.0,1.0,2.0,2.0,449.5334770001591,2.0,1.0,part_1,,,,,,,,,,,,,blue,diamond
422.0,8.0,4.0,1.0,1.0,1.0,448.3246099998723,2.0,1.0,part_1,,,,,,,,,,,,,cyan,cross
38.0,1.0,1.0,0.0,1.0,1.0,412.7427900000384,2.0,1.0,part_1,,,,,,,,,,,,,white,I
118.0,6.0,2.0,1.0,1.0,1.0,471.2022240000806,2.0,1.0,part_1,,,,,,,,,,,,,orange,hexagon
0.0,1.0,0.0,0.0,2.0,2.0,312.1994390000964,2.0,1.0,part_1,,,,,,,,,,,,,white,I
0.0,2.0,0.0,0.0,4.0,4.0,607.6448460000847,2.0,1.0,part_1,,,,,,,,,,,,,yellow,square
378.0,8.0,4.0,1.0,4.0,4.0,546.0277300001053,2.0,1.0,part_1,,,,,,,,,,,,,cyan,cross
205.0,3.0,3.0,0.0,2.0,2.0,543.6808659999315,2.0,1.0,part_1,,,,,,,,,,,,,gray,circle
30.0,1.0,1.0,0.0,4.0,4.0,371.9156399999974,2.0,1.0,part_1,,,,,,,,,,,,,white,I
0.0,4.0,0.0,0.0,3.0,3.0,393.3359919999475,2.0,1.0,part_1,,,,,,,,,,,,,magenta,triangle
49.0,1.0,1.0,0.0,1.0,1.0,724.0350529998523,2.0,1.0,part_1,,,,,,,,,,,,,white,I
212.0,3.0,3.0,0.0,3.0,3.0,447.061450000092,2.0,1.0,part_1,,,,,,,,,,,,,gray,circle
406.0,4.0,4.0,0.0,1.0,1.0,441.3387439999496,2.0,1.0,part_1,,,,,,,,,,,,,magenta,triangle
397.0,4.0,4.0,0.0,4.0,4.0,462.568168999951,2.0,1.0,part_1,,,,,,,,,,,,,magenta,triangle
0.0,4.0,0.0,0.0,3.0,3.0,407.0842759999777,2.0,1.0,part_1,,,,,,,,,,,,,magenta,triangle
40.0,5.0,1.0,1.0,1.0,1.0,330.3219110000555,2.0,1.0,part_1,,,,,,,,,,,,,blue,diamond
398.0,8.0,4.0,1.0,1.0,1.0,400.853804999997,2.0,1.0,part_1,,,,,,,,,,,,,cyan,cross
107.0,6.0,2.0,1.0,2.0,2.0,478.1863619998603,2.0,1.0,part_1,,,,,,,,,,,,,orange,hexagon
80.0,6.0,2.0,1.0,3.0,3.0,394.3555260000266,2.0,1.0,part_1,,,,,,,,,,,,,orange,hexagon
45.0,1.0,1.0,0.0,1.0,1.0,444.4180139998934,2.0,1.0,part_1,,,,,,,,,,,,,white,I
40.0,5.0,1.0,1.0,3.0,3.0,534.5293299999412,2.0,1.0,part_1,,,,,,,,,,,,,blue,diamond
46.0,1.0,1.0,0.0,2.0,2.0,406.4642159999039,2.0,1.0,part_1,,,,,,,,,,,,,white,I
0.0,2.0,0.0,0.0,1.0,1.0,307.7979209999739,2.0,1.0,part_1,,,,,,,,,,,,,yellow,square
0.0,4.0,0.0,0.0,4.0,4.0,408.4121260000302,2.0,1.0,part_1,,,,,,,,,,,,,magenta,triangle
40.0,1.0,1.0,0.0,3.0,3.0,334.6945969999524,2.0,1.0,part_1,,,,,,,,,,,,,white,I
211.0,7.0,3.0,1.0,4.0,4.0,451.1161670000092,2.0,1.0,part_1,,,,,,,,,,,,,green,flipped triangle
178.0,7.0,3.0,1.0,2.0,2.0,340.3628759999719,2.0,1.0,part_1,,,,,,,,,,,,,green,flipped triangle
200.0,3.0,3.0,0.0,2.0,2.0,425.4386420000173,2.0,1.0,part_1,,,,,,,,,,,,,gray,circle
109.0,6.0,2.0,1.0,2.0,2.0,595.9501889999501,2.0,1.0,part_1,,,,,,,,,,,,,orange,hexagon
408.0,8.0,4.0,1.0,1.0,1.0,372.3891869999534,2.0,1.0,part_1,,,,,,,,,,,,,cyan,cross
109.0,2.0,2.0,0.0,2.0,2.0,400.919875999989,2.0,1.0,part_1,,,,,,,,,,,,,yellow,square
93.0,6.0,2.0,1.0,2.0,2.0,381.2758849999227,2.0,1.0,part_1,,,,,,,,,,,,,orange,hexagon
211.0,7.0,3.0,1.0,1.0,1.0,378.8385169998491,2.0,1.0,part_1,,,,,,,,,,,,,green,flipped triangle
34.0,1.0,1.0,0.0,1.0,1.0,342.7089970000452,2.0,1.0,part_1,,,,,,,,,,,,,white,I
422.0,8.0,4.0,1.0,3.0,3.0,395.2721279999878,2.0,1.0,part_1,,,,,,,,,,,,,cyan,cross
200.0,3.0,3.0,0.0,1.0,1.0,337.9101540001556,2.0,1.0,part_1,,,,,,,,,,,,,gray,circle
75.0,1.0,1.0,0.0,1.0,1.0,427.5936300000467,2.0,1.0,part_1,,,,,,,,,,,,,white,I
0.0,6.0,0.0,1.0,4.0,4.0,401.0886259998187,2.0,1.0,part_1,,,,,,,,,,,,,orange,hexagon
218.0,3.0,3.0,0.0,3.0,3.0,623.9100619998226,2.0,1.0,part_1,,,,,,,,,,,,,gray,circle
0.0,8.0,0.0,1.0,4.0,4.0,420.1627719999123,2.0,1.0,part_1,,,,,,,,,,,,,cyan,cross
399.0,8.0,4.0,1.0,4.0,4.0,401.4837770000667,2.0,1.0,part_1,,,,,,,,,,,,,cyan,cross
90.0,6.0,2.0,1.0,4.0,4.0,384.2621620001409,2.0,1.0,part_1,,,,,,,,,,,,,orange,hexagon
200.0,7.0,3.0,1.0,3.0,3.0,442.7676889999929,2.0,1.0,part_1,,,,,,,,,,,,,green,flipped triangle
0.0,3.0,0.0,0.0,1.0,1.0,424.25569299985,2.0,1.0,part_1,,,,,,,,,,,,,gray,circle
98.0,6.0,2.0,1.0,3.0,3.0,382.2979840001608,2.0,1.0,part_1,,,,,,,,,,,,,orange,hexagon
207.0,3.0,3.0,0.0,4.0,4.0,390.1040279999961,2.0,1.0,part_1,,,,,,,,,,,,,gray,circle
401.0,4.0,4.0,0.0,3.0,3.0,401.4896239998506,2.0,1.0,part_1,,,,,,,,,,,,,magenta,triangle
0.0,3.0,0.0,0.0,4.0,4.0,439.3834080001397,2.0,1.0,part_1,,,,,,,,,,,,,gray,circle
180.0,3.0,3.0,0.0,3.0,3.0,400.4175590000614,2.0,1.0,part_1,,,,,,,,,,,,,gray,circle
32.0,5.0,1.0,1.0,1.0,1.0,362.396063999995,2.0,1.0,part_1,,,,,,,,,,,,,blue,diamond
79.0,6.0,2.0,1.0,2.0,2.0,391.5471709999565,2.0,1.0,part_1,,,,,,,,,,,,,orange,hexagon
381.0,4.0,4.0,0.0,1.0,1.0,368.9114730000256,2.0,1.0,part_1,,,,,,,,,,,,,magenta,triangle
0.0,5.0,0.0,1.0,2.0,2.0,447.5601520000509,2.0,1.0,part_1,,,,,,,,,,,,,blue,diamond
0.0,7.0,0.0,1.0,4.0,4.0,641.0407490000125,2.0,1.0,part_1,,,,,,,,,,,,,green,flipped triangle
0.0,6.0,0.0,1.0,4.0,4.0,410.1107840001532,2.0,1.0,part_1,,,,,,,,,,,,,orange,hexagon
120.0,2.0,2.0,0.0,1.0,1.0,344.3161350000991,2.0,1.0,part_1,,,,,,,,,,,,,yellow,square
416.0,8.0,4.0,1.0,2.0,2.0,378.2590159999017,2.0,1.0,part_1,,,,,,,,,,,,,cyan,cross
78.0,6.0,2.0,1.0,4.0,4.0,352.4563270000271,2.0,1.0,part_1,,,,,,,,,,,,,orange,hexagon
178.0,3.0,3.0,0.0,1.0,1.0,358.7280599999758,2.0,1.0,part_1,,,,,,,,,,,,,gray,circle
98.0,2.0,2.0,0.0,3.0,3.0,585.3504849999354,3.0,1.0,part_1,,,,,,,,,,,,,yellow,square
403.0,4.0,4.0,0.0,2.0,2.0,520.0306409999484,3.0,1.0,part_1,,,,,,,,,,,,,magenta,triangle
386.0,8.0,4.0,1.0,2.0,2.0,426.7369140000028,3.0,1.0,part_1,,,,,,,,,,,,,cyan,cross
85.0,2.0,2.0,0.0,2.0,2.0,630.0501200000781,3.0,1.0,part_1,,,,,,,,,,,,,yellow,square
55.0,5.0,1.0,1.0,4.0,4.0,611.4664320000429,3.0,1.0,part_1,,,,,,,,,,,,,blue,diamond
73.0,5.0,1.0,1.0,4.0,4.0,582.5199239998256,3.0,1.0,part_1,,,,,,,,,,,,,blue,diamond
0.0,3.0,0.0,0.0,4.0,4.0,409.4753189999665,3.0,1.0,part_1,,,,,,,,,,,,,gray,circle
94.0,6.0,2.0,1.0,4.0,4.0,643.3979430000818,3.0,1.0,part_1,,,,,,,,,,,,,orange,hexagon
213.0,7.0,3.0,1.0,3.0,3.0,475.3307089999907,3.0,1.0,part_1,,,,,,,,,,,,,green,flipped triangle
49.0,5.0,1.0,1.0,3.0,3.0,422.4588330000642,3.0,1.0,part_1,,,,,,,,,,,,,blue,diamond
0.0,6.0,0.0,1.0,2.0,2.0,714.3159049999213,3.0,1.0,part_1,,,,,,,,,,,,,orange,hexagon
110.0,6.0,2.0,1.0,3.0,3.0,375.8574230000704,3.0,1.0,part_1,,,,,,,,,,,,,orange,hexagon
116.0,2.0,2.0,0.0,1.0,1.0,537.8287109999746,3.0,1.0,part_1,,,,,,,,,,,,,yellow,square
30.0,5.0,1.0,1.0,3.0,3.0,522.5661599999967,3.0,1.0,part_1,,,,,,,,,,,,,blue,diamond
82.0,6.0,2.0,1.0,2.0,2.0,463.9971800002058,3.0,1.0,part_1,,,,,,,,,,,,,orange,hexagon
40.0,1.0,1.0,0.0,4.0,4.0,533.2657179999387,3.0,1.0,part_1,,,,,,,,,,,,,white,I
421.0,4.0,4.0,0.0,1.0,1.0,531.110056999978,3.0,1.0,part_1,,,,,,,,,,,,,magenta,triangle
203.0,7.0,3.0,1.0,4.0,4.0,736.9974819998788,3.0,1.0,part_1,,,,,,,,,,,,,green,flipped triangle
0.0,2.0,0.0,0.0,2.0,2.0,668.1471060001059,3.0,1.0,part_1,,,,,,,,,,,,,yellow,square
67.0,1.0,1.0,0.0,2.0,2.0,662.7729120000367,3.0,1.0,part_1,,,,,,,,,,,,,white,I
400.0,8.0,4.0,1.0,4.0,4.0,750.4980720000276,3.0,1.0,part_1,,,,,,,,,,,,,cyan,cross
386.0,8.0,4.0,1.0,1.0,1.0,523.5287140001219,3.0,1.0,part_1,,,,,,,,,,,,,cyan,cross
0.0,1.0,0.0,0.0,1.0,1.0,398.1827810000595,3.0,1.0,part_1,,,,,,,,,,,,,white,I
107.0,2.0,2.0,0.0,4.0,4.0,595.9296199998789,3.0,1.0,part_1,,,,,,,,,,,,,yellow,square
51.0,5.0,1.0,1.0,3.0,3.0,478.4015150000869,3.0,1.0,part_1,,,,,,,,,,,,,blue,diamond
0.0,5.0,0.0,1.0,1.0,1.0,440.8477379997748,3.0,1.0,part_1,,,,,,,,,,,,,blue,diamond
40.0,5.0,1.0,1.0,2.0,2.0,449.3786460000137,3.0,1.0,part_1,,,,,,,,,,,,,blue,diamond
377.0,8.0,4.0,1.0,2.0,2.0,499.358022000024,3.0,1.0,part_1,,,,,,,,,,,,,cyan,cross
212.0,7.0,3.0,1.0,3.0,3.0,821.0277189998578,3.0,1.0,part_1,,,,,,,,,,,,,green,flipped triangle
41.0,5.0,1.0,1.0,3.0,3.0,948.0735449999428,3.0,1.0,part_1,,,,,,,,,,,,,blue,diamond
378.0,4.0,4.0,0.0,1.0,1.0,657.0483650000369,3.0,1.0,part_1,,,,,,,,,,,,,magenta,triangle
410.0,4.0,4.0,0.0,3.0,3.0,923.213110000006,3.0,1.0,part_1,,,,,,,,,,,,,magenta,triangle
0.0,4.0,0.0,0.0,2.0,2.0,622.5833759999659,3.0,1.0,part_1,,,,,,,,,,,,,magenta,triangle
35.0,5.0,1.0,1.0,4.0,4.0,513.3170080000582,3.0,1.0,part_1,,,,,,,,,,,,,blue,diamond
46.0,5.0,1.0,1.0,2.0,2.0,523.2347200001186,3.0,1.0,part_1,,,,,,,,,,,,,blue,diamond
109.0,6.0,2.0,1.0,1.0,1.0,545.554151000033,3.0,1.0,part_1,,,,,,,,,,,,,orange,hexagon
182.0,7.0,3.0,1.0,1.0,1.0,440.4969120000714,3.0,1.0,part_1,,,,,,,,,,,,,green,flipped triangle
34.0,5.0,1.0,1.0,2.0,2.0,539.3655420000414,3.0,1.0,part_1,,,,,,,,,,,,,blue,diamond
75.0,5.0,1.0,1.0,4.0,4.0,604.8971689999689,3.0,1.0,part_1,,,,,,,,,,,,,blue,diamond
0.0,7.0,0.0,1.0,1.0,1.0,598.1724789999134,3.0,1.0,part_1,,,,,,,,,,,,,green,flipped triangle
222.0,3.0,3.0,0.0,4.0,4.0,796.8632549998347,3.0,1.0,part_1,,,,,,,,,,,,,gray,circle
194.0,3.0,3.0,0.0,1.0,1.0,977.6076539999394,3.0,1.0,part_1,,,,,,,,,,,,,gray,circle
0.0,6.0,0.0,1.0,1.0,1.0,731.920528000046,3.0,1.0,part_1,,,,,,,,,,,,,orange,hexagon
219.0,7.0,3.0,1.0,4.0,4.0,608.2657729998573,3.0,1.0,part_1,,,,,,,,,,,,,green,flipped triangle
104.0,2.0,2.0,0.0,4.0,4.0,698.5996660000637,3.0,1.0,part_1,,,,,,,,,,,,,yellow,square
178.0,7.0,3.0,1.0,4.0,4.0,594.0034049999667,3.0,1.0,part_1,,,,,,,,,,,,,green,flipped triangle
221.0,3.0,3.0,0.0,4.0,4.0,507.9656650000288,3.0,1.0,part_1,,,,,,,,,,,,,gray,circle
0.0,8.0,0.0,1.0,2.0,2.0,543.2622769999398,3.0,1.0,part_1,,,,,,,,,,,,,cyan,cross
31.0,1.0,1.0,0.0,4.0,4.0,494.4040589998622,3.0,1.0,part_1,,,,,,,,,,,,,white,I
385.0,8.0,4.0,1.0,2.0,2.0,482.6671999999234,3.0,1.0,part_1,,,,,,,,,,,,,cyan,cross
414.0,4.0,4.0,0.0,4.0,4.0,505.60074600002736,3.0,1.0,part_1,,,,,,,,,,,,,magenta,triangle
219.0,3.0,3.0,0.0,2.0,2.0,707.026955000174,3.0,1.0,part_1,,,,,,,,,,,,,gray,circle
119.0,6.0,2.0,1.0,4.0,4.0,559.3968719999793,3.0,1.0,part_1,,,,,,,,,,,,,orange,hexagon
0.0,8.0,0.0,1.0,4.0,4.0,749.2911770000319,3.0,1.0,part_1,,,,,,,,,,,,,cyan,cross
0.0,7.0,0.0,1.0,1.0,1.0,517.8027480001219,3.0,1.0,part_1,,,,,,,,,,,,,green,flipped triangle
385.0,4.0,4.0,0.0,2.0,2.0,474.9542380000093,3.0,1.0,part_1,,,,,,,,,,,,,magenta,triangle
91.0,2.0,2.0,0.0,1.0,1.0,600.4086899999947,3.0,1.0,part_1,,,,,,,,,,,,,yellow,square
102.0,2.0,2.0,0.0,4.0,4.0,907.2242180000104,3.0,1.0,part_1,,,,,,,,,,,,,yellow,square
422.0,4.0,4.0,0.0,3.0,3.0,667.7915729999313,3.0,1.0,part_1,,,,,,,,,,,,,magenta,triangle
118.0,6.0,2.0,1.0,3.0,3.0,534.1505159999542,3.0,1.0,part_1,,,,,,,,,,,,,orange,hexagon
0.0,7.0,0.0,1.0,1.0,1.0,389.611651999985,3.0,1.0,part_1,,,,,,,,,,,,,green,flipped triangle
28.0,1.0,1.0,0.0,2.0,2.0,474.4561600000452,3.0,1.0,part_1,,,,,,,,,,,,,white,I
103.0,2.0,2.0,0.0,2.0,2.0,459.6252480000657,3.0,1.0,part_1,,,,,,,,,,,,,yellow,square
377.0,8.0,4.0,1.0,4.0,4.0,629.4641759998285,3.0,1.0,part_1,,,,,,,,,,,,,cyan,cross
208.0,3.0,3.0,0.0,1.0,1.0,408.0149129999881,3.0,1.0,part_1,,,,,,,,,,,,,gray,circle
382.0,4.0,4.0,0.0,3.0,3.0,799.2335439998897,3.0,1.0,part_1,,,,,,,,,,,,,magenta,triangle
382.0,8.0,4.0,1.0,2.0,2.0,629.0782010000839,3.0,1.0,part_1,,,,,,,,,,,,,cyan,cross
62.0,5.0,1.0,1.0,2.0,2.0,458.3105500000783,3.0,1.0,part_1,,,,,,,,,,,,,blue,diamond
0.0,6.0,0.0,1.0,2.0,2.0,384.5263129996965,3.0,1.0,part_1,,,,,,,,,,,,,orange,hexagon
0.0,5.0,0.0,1.0,2.0,2.0,337.0087040002545,3.0,1.0,part_1,,,,,,,,,,,,,blue,diamond
97.0,2.0,2.0,0.0,4.0,4.0,573.6712289999559,3.0,1.0,part_1,,,,,,,,,,,,,yellow,square
49.0,1.0,1.0,0.0,4.0,4.0,388.5604229999444,3.0,1.0,part_1,,,,,,,,,,,,,white,I
0.0,7.0,0.0,1.0,3.0,3.0,403.9054439999745,3.0,1.0,part_1,,,,,,,,,,,,,green,flipped triangle
99.0,6.0,2.0,1.0,1.0,1.0,292.2806640003728,3.0,1.0,part_1,,,,,,,,,,,,,orange,hexagon
208.0,3.0,3.0,0.0,4.0,4.0,421.0420109998267,3.0,1.0,part_1,,,,,,,,,,,,,gray,circle
79.0,2.0,2.0,0.0,2.0,2.0,477.3350909999863,3.0,1.0,part_1,,,,,,,,,,,,,yellow,square
218.0,7.0,3.0,1.0,3.0,3.0,406.1884239999926,3.0,2.0,part_1,,,,,,,,,,,,,green,flipped triangle
88.0,6.0,2.0,1.0,1.0,1.0,407.0738689997597,3.0,1.0,part_1,,,,,,,,,,,,,orange,hexagon
414.0,8.0,4.0,1.0,4.0,4.0,594.818497000233,3.0,1.0,part_1,,,,,,,,,,,,,cyan,cross
0.0,1.0,0.0,0.0,3.0,3.0,353.6291999998866,3.0,1.0,part_1,,,,,,,,,,,,,white,I
81.0,2.0,2.0,0.0,1.0,1.0,459.4508679997489,3.0,1.0,part_1,,,,,,,,,,,,,yellow,square
0.0,8.0,0.0,1.0,4.0,4.0,406.4725960001851,3.0,1.0,part_1,,,,,,,,,,,,,cyan,cross
0.0,3.0,0.0,0.0,1.0,1.0,450.1667600002292,3.0,1.0,part_1,,,,,,,,,,,,,gray,circle
386.0,4.0,4.0,0.0,2.0,2.0,661.2569930002792,3.0,1.0,part_1,,,,,,,,,,,,,magenta,triangle
51.0,5.0,1.0,1.0,4.0,4.0,848.686804999943,3.0,1.0,part_1,,,,,,,,,,,,,blue,diamond
90.0,6.0,2.0,1.0,4.0,4.0,489.6879279999666,3.0,1.0,part_1,,,,,,,,,,,,,orange,hexagon
0.0,5.0,0.0,1.0,2.0,2.0,420.9125309998853,3.0,1.0,part_1,,,,,,,,,,,,,blue,diamond
423.0,4.0,4.0,0.0,2.0,2.0,458.1102269999064,3.0,1.0,part_1,,,,,,,,,,,,,magenta,triangle
76.0,6.0,2.0,1.0,4.0,4.0,777.5564309999936,3.0,1.0,part_1,,,,,,,,,,,,,orange,hexagon
0.0,4.0,0.0,0.0,1.0,1.0,519.5978669999022,3.0,1.0,part_1,,,,,,,,,,,,,magenta,triangle
0.0,4.0,0.0,0.0,1.0,1.0,678.7929120000626,3.0,1.0,part_1,,,,,,,,,,,,,magenta,triangle
181.0,3.0,3.0,0.0,1.0,1.0,618.8733899998624,3.0,1.0,part_1,,,,,,,,,,,,,gray,circle
0.0,5.0,0.0,1.0,4.0,4.0,696.7798209998364,3.0,1.0,part_1,,,,,,,,,,,,,blue,diamond
82.0,2.0,2.0,0.0,4.0,4.0,460.4210780003086,3.0,1.0,part_1,,,,,,,,,,,,,yellow,square
116.0,6.0,2.0,1.0,4.0,4.0,409.0661820000605,3.0,1.0,part_1,,,,,,,,,,,,,orange,hexagon
83.0,2.0,2.0,0.0,3.0,3.0,683.394331999807,3.0,1.0,part_1,,,,,,,,,,,,,yellow,square
109.0,2.0,2.0,0.0,1.0,1.0,383.1900939999286,3.0,1.0,part_1,,,,,,,,,,,,,yellow,square
51.0,1.0,1.0,0.0,4.0,4.0,451.1436220000178,3.0,1.0,part_1,,,,,,,,,,,,,white,I
123.0,6.0,2.0,1.0,2.0,2.0,354.8742680000032,3.0,1.0,part_1,,,,,,,,,,,,,orange,hexagon
0.0,1.0,0.0,0.0,1.0,1.0,398.503645999881,3.0,1.0,part_1,,,,,,,,,,,,,white,I
402.0,4.0,4.0,0.0,4.0,4.0,502.7663229998325,4.0,1.0,part_1,,,,,,,,,,,,,magenta,triangle
194.0,3.0,3.0,0.0,3.0,3.0,424.076616000093,4.0,1.0,part_1,,,,,,,,,,,,,gray,circle
378.0,8.0,4.0,1.0,3.0,3.0,453.0534810000972,4.0,1.0,part_1,,,,,,,,,,,,,cyan,cross
419.0,4.0,4.0,0.0,3.0,3.0,410.6704920000084,4.0,1.0,part_1,,,,,,,,,,,,,magenta,triangle
221.0,7.0,3.0,1.0,3.0,3.0,417.3267559999658,4.0,1.0,part_1,,,,,,,,,,,,,green,flipped triangle
119.0,2.0,2.0,0.0,4.0,4.0,528.7419090000185,4.0,1.0,part_1,,,,,,,,,,,,,yellow,square
118.0,2.0,2.0,0.0,3.0,3.0,483.2988530001785,4.0,1.0,part_1,,,,,,,,,,,,,yellow,square
0.0,4.0,0.0,0.0,1.0,1.0,310.7346179999695,4.0,1.0,part_1,,,,,,,,,,,,,magenta,triangle
0.0,6.0,0.0,1.0,1.0,1.0,397.5297629999659,4.0,1.0,part_1,,,,,,,,,,,,,orange,hexagon
376.0,4.0,4.0,0.0,1.0,1.0,290.8959569999751,4.0,1.0,part_1,,,,,,,,,,,,,magenta,triangle
116.0,6.0,2.0,1.0,1.0,1.0,328.1633100000363,4.0,1.0,part_1,,,,,,,,,,,,,orange,hexagon
119.0,6.0,2.0,1.0,1.0,1.0,326.7386040001838,4.0,1.0,part_1,,,,,,,,,,,,,orange,hexagon
211.0,3.0,3.0,0.0,1.0,1.0,320.4734959999769,4.0,1.0,part_1,,,,,,,,,,,,,gray,circle
0.0,5.0,0.0,1.0,3.0,3.0,410.0820210001075,4.0,1.0,part_1,,,,,,,,,,,,,blue,diamond
398.0,8.0,4.0,1.0,4.0,4.0,794.3421129998569,4.0,1.0,part_1,,,,,,,,,,,,,cyan,cross
203.0,3.0,3.0,0.0,3.0,3.0,702.9466839999259,4.0,1.0,part_1,,,,,,,,,,,,,gray,circle
197.0,7.0,3.0,1.0,2.0,2.0,695.4032240000743,4.0,1.0,part_1,,,,,,,,,,,,,green,flipped triangle
199.0,3.0,3.0,0.0,1.0,1.0,315.5743649999749,4.0,1.0,part_1,,,,,,,,,,,,,gray,circle
116.0,2.0,2.0,0.0,4.0,4.0,458.5086230003981,4.0,1.0,part_1,,,,,,,,,,,,,yellow,square
0.0,5.0,0.0,1.0,3.0,3.0,413.2205139999314,4.0,1.0,part_1,,,,,,,,,,,,,blue,diamond
395.0,8.0,4.0,1.0,2.0,2.0,376.012296999761,4.0,1.0,part_1,,,,,,,,,,,,,cyan,cross
31.0,5.0,1.0,1.0,4.0,4.0,797.0613470001808,4.0,1.0,part_1,,,,,,,,,,,,,blue,diamond
91.0,6.0,2.0,1.0,3.0,3.0,704.0730459998485,4.0,1.0,part_1,,,,,,,,,,,,,orange,hexagon
0.0,3.0,0.0,0.0,3.0,3.0,497.6828959997874,4.0,1.0,part_1,,,,,,,,,,,,,gray,circle
389.0,8.0,4.0,1.0,3.0,3.0,416.2064919996737,4.0,1.0,part_1,,,,,,,,,,,,,cyan,cross
408.0,4.0,4.0,0.0,3.0,3.0,789.0966840000146,4.0,1.0,part_1,,,,,,,,,,,,,magenta,triangle
62.0,5.0,1.0,1.0,4.0,4.0,862.1943029997965,4.0,1.0,part_1,,,,,,,,,,,,,blue,diamond
196.0,7.0,3.0,1.0,4.0,4.0,755.1430979997349,4.0,1.0,part_1,,,,,,,,,,,,,green,flipped triangle
400.0,4.0,4.0,0.0,4.0,4.0,662.6391810000314,4.0,1.0,part_1,,,,,,,,,,,,,magenta,triangle
109.0,2.0,2.0,0.0,3.0,3.0,632.2241709999616,4.0,1.0,part_1,,,,,,,,,,,,,yellow,square
59.0,1.0,1.0,0.0,1.0,1.0,543.0729129998326,4.0,1.0,part_1,,,,,,,,,,,,,white,I
62.0,5.0,1.0,1.0,3.0,3.0,455.4032130004088,4.0,1.0,part_1,,,,,,,,,,,,,blue,diamond
423.0,8.0,4.0,1.0,2.0,2.0,528.1791689999409,4.0,1.0,part_1,,,,,,,,,,,,,cyan,cross
0.0,6.0,0.0,1.0,1.0,1.0,403.4842619998926,4.0,1.0,part_1,,,,,,,,,,,,,orange,hexagon
409.0,4.0,4.0,0.0,4.0,4.0,532.8505439997571,4.0,1.0,part_1,,,,,,,,,,,,,magenta,triangle
0.0,5.0,0.0,1.0,3.0,3.0,783.0751609999425,4.0,1.0,part_1,,,,,,,,,,,,,blue,diamond
0.0,1.0,0.0,0.0,1.0,1.0,600.3505530002258,4.0,1.0,part_1,,,,,,,,,,,,,white,I
114.0,6.0,2.0,1.0,2.0,2.0,461.62834200004,4.0,1.0,part_1,,,,,,,,,,,,,orange,hexagon
0.0,3.0,0.0,0.0,3.0,3.0,430.0139960000706,4.0,1.0,part_1,,,,,,,,,,,,,gray,circle
377.0,4.0,4.0,0.0,2.0,2.0,397.9066580000108,4.0,1.0,part_1,,,,,,,,,,,,,magenta,triangle
390.0,4.0,4.0,0.0,2.0,2.0,458.2171560000461,4.0,1.0,part_1,,,,,,,,,,,,,magenta,triangle
189.0,7.0,3.0,1.0,1.0,1.0,630.4092570003377,4.0,1.0,part_1,,,,,,,,,,,,,green,flipped triangle
421.0,4.0,4.0,0.0,3.0,3.0,537.3690730002636,4.0,1.0,part_1,,,,,,,,,,,,,magenta,triangle
387.0,8.0,4.0,1.0,4.0,4.0,701.5522040001088,4.0,1.0,part_1,,,,,,,,,,,,,cyan,cross
0.0,6.0,0.0,1.0,3.0,3.0,405.7251470003393,4.0,1.0,part_1,,,,,,,,,,,,,orange,hexagon
180.0,7.0,3.0,1.0,2.0,2.0,461.9599749998997,4.0,1.0,part_1,,,,,,,,,,,,,green,flipped triangle
416.0,4.0,4.0,0.0,1.0,1.0,423.4044129998437,4.0,1.0,part_1,,,,,,,,,,,,,magenta,triangle
402.0,8.0,4.0,1.0,1.0,1.0,591.1116710003625,4.0,1.0,part_1,,,,,,,,,,,,,cyan,cross
0.0,2.0,0.0,0.0,3.0,3.0,766.9550559999152,4.0,1.0,part_1,,,,,,,,,,,,,yellow,square
72.0,5.0,1.0,1.0,1.0,1.0,554.8013459997492,4.0,1.0,part_1,,,,,,,,,,,,,blue,diamond
390.0,8.0,4.0,1.0,3.0,3.0,417.3297930001354,4.0,1.0,part_1,,,,,,,,,,,,,cyan,cross
0.0,1.0,0.0,0.0,3.0,3.0,389.02950300007427,4.0,1.0,part_1,,,,,,,,,,,,,white,I
415.0,8.0,4.0,1.0,2.0,2.0,612.6738299999488,4.0,1.0,part_1,,,,,,,,,,,,,cyan,cross
81.0,6.0,2.0,1.0,4.0,4.0,757.3379729997214,4.0,1.0,part_1,,,,,,,,,,,,,orange,hexagon
211.0,3.0,3.0,0.0,2.0,2.0,878.9544469996144,4.0,1.0,part_1,,,,,,,,,,,,,gray,circle
41.0,1.0,1.0,0.0,2.0,2.0,847.0793600004072,4.0,1.0,part_1,,,,,,,,,,,,,white,I
0.0,2.0,0.0,0.0,4.0,4.0,643.842701000267,4.0,1.0,part_1,,,,,,,,,,,,,yellow,square
181.0,7.0,3.0,1.0,2.0,2.0,426.1394639997888,4.0,1.0,part_1,,,,,,,,,,,,,green,flipped triangle
38.0,5.0,1.0,1.0,1.0,1.0,324.6508940001149,4.0,1.0,part_1,,,,,,,,,,,,,blue,diamond
25.0,1.0,1.0,0.0,1.0,1.0,428.5691199997927,4.0,1.0,part_1,,,,,,,,,,,,,white,I
74.0,1.0,1.0,0.0,2.0,2.0,494.2768400001114,4.0,1.0,part_1,,,,,,,,,,,,,white,I
0.0,8.0,0.0,1.0,3.0,3.0,585.120850000294,4.0,1.0,part_1,,,,,,,,,,,,,cyan,cross
62.0,5.0,1.0,1.0,1.0,1.0,435.7644489996346,4.0,1.0,part_1,,,,,,,,,,,,,blue,diamond
0.0,8.0,0.0,1.0,2.0,2.0,574.3727429999126,4.0,1.0,part_1,,,,,,,,,,,,,cyan,cross
176.0,3.0,3.0,0.0,2.0,2.0,873.6218429999099,4.0,2.0,part_1,,,,,,,,,,,,,gray,circle
100.0,2.0,2.0,0.0,1.0,1.0,318.890165999619,4.0,2.0,part_1,,,,,,,,,,,,,yellow,square
80.0,2.0,2.0,0.0,3.0,3.0,581.7913910000243,4.0,1.0,part_1,,,,,,,,,,,,,yellow,square
419.0,4.0,4.0,0.0,1.0,1.0,399.6610439999131,4.0,1.0,part_1,,,,,,,,,,,,,magenta,triangle
198.0,7.0,3.0,1.0,2.0,2.0,376.5708399996583,4.0,1.0,part_1,,,,,,,,,,,,,green,flipped triangle
182.0,3.0,3.0,0.0,2.0,2.0,565.061058000083,4.0,1.0,part_1,,,,,,,,,,,,,gray,circle
208.0,7.0,3.0,1.0,1.0,1.0,311.0865460002969,4.0,1.0,part_1,,,,,,,,,,,,,green,flipped triangle
76.0,2.0,2.0,0.0,2.0,2.0,397.6261160000831,4.0,1.0,part_1,,,,,,,,,,,,,yellow,square
0.0,5.0,0.0,1.0,1.0,1.0,311.7592110002078,4.0,1.0,part_1,,,,,,,,,,,,,blue,diamond
378.0,4.0,4.0,0.0,4.0,4.0,741.5720639996835,4.0,1.0,part_1,,,,,,,,,,,,,magenta,triangle
194.0,7.0,3.0,1.0,4.0,4.0,606.2507230003575,4.0,1.0,part_1,,,,,,,,,,,,,green,flipped triangle
409.0,8.0,4.0,1.0,3.0,3.0,502.5010129998009,4.0,1.0,part_1,,,,,,,,,,,,,cyan,cross
62.0,1.0,1.0,0.0,2.0,2.0,446.7631310003526,4.0,1.0,part_1,,,,,,,,,,,,,white,I
45.0,5.0,1.0,1.0,4.0,4.0,603.8981380002042,4.0,1.0,part_1,,,,,,,,,,,,,blue,diamond
30.0,1.0,1.0,0.0,4.0,4.0,603.3943110001019,4.0,1.0,part_1,,,,,,,,,,,,,white,I
205.0,7.0,3.0,1.0,2.0,2.0,358.0932290001328,4.0,1.0,part_1,,,,,,,,,,,,,green,flipped triangle
65.0,5.0,1.0,1.0,2.0,2.0,476.2621519998902,4.0,1.0,part_1,,,,,,,,,,,,,blue,diamond
387.0,4.0,4.0,0.0,2.0,2.0,412.1490160000576,4.0,1.0,part_1,,,,,,,,,,,,,magenta,triangle
67.0,5.0,1.0,1.0,1.0,1.0,414.8642689997359,4.0,1.0,part_1,,,,,,,,,,,,,blue,diamond
25.0,5.0,1.0,1.0,2.0,2.0,398.1807690001915,4.0,1.0,part_1,,,,,,,,,,,,,blue,diamond
99.0,2.0,2.0,0.0,1.0,1.0,551.9564020000871,4.0,1.0,part_1,,,,,,,,,,,,,yellow,square
397.0,8.0,4.0,1.0,4.0,4.0,402.5263059997996,4.0,2.0,part_1,,,,,,,,,,,,,cyan,cross
203.0,7.0,3.0,1.0,4.0,4.0,392.8182109998488,4.0,1.0,part_1,,,,,,,,,,,,,green,flipped triangle
410.0,8.0,4.0,1.0,3.0,3.0,405.0175020001916,4.0,1.0,part_1,,,,,,,,,,,,,cyan,cross
45.0,1.0,1.0,0.0,4.0,4.0,509.8251459999119,4.0,1.0,part_1,,,,,,,,,,,,,white,I
389.0,4.0,4.0,0.0,2.0,2.0,363.12983300013,4.0,1.0,part_1,,,,,,,,,,,,,magenta,triangle
120.0,6.0,2.0,1.0,1.0,1.0,481.7827410001882,4.0,1.0,part_1,,,,,,,,,,,,,orange,hexagon
28.0,5.0,1.0,1.0,1.0,1.0,379.8906879997048,4.0,1.0,part_1,,,,,,,,,,,,,blue,diamond
217.0,3.0,3.0,0.0,2.0,2.0,320.5709389999356,4.0,1.0,part_1,,,,,,,,,,,,,gray,circle
73.0,1.0,1.0,0.0,2.0,2.0,366.8161209998288,4.0,1.0,part_1,,,,,,,,,,,,,white,I
222.0,3.0,3.0,0.0,4.0,4.0,435.2012630001809,4.0,2.0,part_1,,,,,,,,,,,,,gray,circle
56.0,1.0,1.0,0.0,3.0,3.0,372.5614089998998,4.0,1.0,part_1,,,,,,,,,,,,,white,I
74.0,5.0,1.0,1.0,1.0,1.0,364.5338110000011,4.0,1.0,part_1,,,,,,,,,,,,,blue,diamond
189.0,3.0,3.0,0.0,2.0,2.0,392.9560579999815,4.0,1.0,part_1,,,,,,,,,,,,,gray,circle
85.0,6.0,2.0,1.0,2.0,2.0,385.2261899996847,4.0,1.0,part_1,,,,,,,,,,,,,orange,hexagon
67.0,1.0,1.0,0.0,2.0,2.0,403.2371819998843,4.0,1.0,part_1,,,,,,,,,,,,,white,I
0.0,5.0,1.0,1.0,5.0,5.0,350.8228630003032,1.0,0.0,part_2,go,250.0,250.0,1.0,,,,,,,,,blue,diamond
0.0,1.0,1.0,0.0,5.0,5.0,1201.785416000348,1.0,0.0,part_2,go,250.0,250.0,1.0,,,,,,,,,white,I
0.0,4.0,4.0,0.0,5.0,0.0,0.0,1.0,0.0,part_2,go,250.0,250.0,5.0,,,,,,,,,magenta,triangle
0.0,4.0,4.0,0.0,5.0,5.0,969.149441999889,1.0,0.0,part_2,go,250.0,250.0,1.0,,,,,,,,,magenta,triangle
0.0,5.0,1.0,1.0,6.0,0.0,0.0,1.0,0.0,part_2,stop,250.0,250.0,4.0,,,,,,,,,blue,diamond
0.0,1.0,1.0,0.0,5.0,5.0,291.7685849997724,1.0,0.0,part_2,go,250.0,300.0,1.0,,,,,,,,,white,I
0.0,5.0,1.0,1.0,5.0,0.0,0.0,1.0,0.0,part_2,stop,250.0,300.0,4.0,,,,,,,,,blue,diamond
0.0,8.0,4.0,1.0,6.0,0.0,0.0,1.0,0.0,part_2,stop,300.0,300.0,4.0,,,,,,,,,cyan,cross
0.0,1.0,1.0,0.0,5.0,5.0,774.9057519999951,1.0,0.0,part_2,go,300.0,350.0,1.0,,,,,,,,,white,I
0.0,4.0,4.0,0.0,5.0,5.0,834.3794480001634,1.0,0.0,part_2,go,300.0,350.0,1.0,,,,,,,,,magenta,triangle
0.0,3.0,3.0,0.0,5.0,5.0,974.781842000084,1.0,0.0,part_2,go,300.0,350.0,1.0,,,,,,,,,gray,circle
0.0,5.0,1.0,1.0,5.0,5.0,837.628818000212,1.0,0.0,part_2,go,300.0,350.0,1.0,,,,,,,,,blue,diamond
0.0,1.0,1.0,0.0,6.0,6.0,951.196267999876,1.0,0.0,part_2,go,300.0,350.0,1.0,,,,,,,,,white,I
0.0,4.0,4.0,0.0,5.0,5.0,794.1579950002051,1.0,0.0,part_2,go,300.0,350.0,1.0,,,,,,,,,magenta,triangle
0.0,7.0,3.0,1.0,6.0,0.0,0.0,1.0,0.0,part_2,stop,300.0,350.0,4.0,,,,,,,,,green,flipped triangle
0.0,8.0,4.0,1.0,6.0,0.0,0.0,1.0,0.0,part_2,stop,300.0,400.0,4.0,,,,,,,,,cyan,cross
0.0,1.0,1.0,0.0,6.0,6.0,706.2392610000643,1.0,0.0,part_2,go,300.0,450.0,1.0,,,,,,,,,white,I
0.0,2.0,2.0,0.0,6.0,6.0,674.697814999945,1.0,0.0,part_2,go,300.0,450.0,1.0,,,,,,,,,yellow,square
0.0,5.0,1.0,1.0,5.0,5.0,382.1467620000476,1.0,0.0,part_2,go,300.0,450.0,1.0,,,,,,,,,blue,diamond
0.0,2.0,2.0,0.0,5.0,5.0,444.1995749998568,1.0,0.0,part_2,go,300.0,450.0,1.0,,,,,,,,,yellow,square
0.0,6.0,2.0,1.0,5.0,5.0,384.5521099997313,1.0,0.0,part_2,stop,300.0,450.0,3.0,,,,,,,,,orange,hexagon
0.0,1.0,1.0,0.0,6.0,6.0,645.8520639998824,1.0,0.0,part_2,go,250.0,450.0,1.0,,,,,,,,,white,I
0.0,2.0,2.0,0.0,6.0,6.0,418.4911510001257,1.0,0.0,part_2,go,250.0,450.0,1.0,,,,,,,,,yellow,square
0.0,7.0,3.0,1.0,5.0,5.0,284.2603119997875,1.0,0.0,part_2,stop,250.0,450.0,3.0,,,,,,,,,green,flipped triangle
0.0,6.0,2.0,1.0,5.0,0.0,0.0,1.0,0.0,part_2,stop,200.0,450.0,4.0,,,,,,,,,orange,hexagon
0.0,3.0,3.0,0.0,5.0,5.0,359.0146369997455,1.0,0.0,part_2,go,250.0,450.0,1.0,,,,,,,,,gray,circle
0.0,8.0,4.0,1.0,6.0,6.0,447.0822950002002,1.0,0.0,part_2,stop,250.0,450.0,3.0,,,,,,,,,cyan,cross
0.0,1.0,1.0,0.0,5.0,5.0,699.0061279998372,1.0,0.0,part_2,go,250.0,400.0,1.0,,,,,,,,,white,I
0.0,3.0,3.0,0.0,6.0,6.0,931.929369000045,1.0,0.0,part_2,go,250.0,400.0,1.0,,,,,,,,,gray,circle
0.0,1.0,1.0,0.0,5.0,5.0,1051.130700000158,1.0,0.0,part_2,go,250.0,400.0,1.0,,,,,,,,,white,I
0.0,5.0,1.0,1.0,5.0,0.0,0.0,1.0,0.0,part_2,stop,250.0,400.0,4.0,,,,,,,,,blue,diamond
0.0,7.0,3.0,1.0,5.0,5.0,836.9625269997414,1.0,0.0,part_2,go,300.0,400.0,1.0,,,,,,,,,green,flipped triangle
0.0,5.0,1.0,1.0,5.0,5.0,387.9727749999802,1.0,0.0,part_2,stop,300.0,400.0,3.0,,,,,,,,,blue,diamond
0.0,3.0,3.0,0.0,5.0,5.0,853.5784400000921,1.0,0.0,part_2,go,250.0,400.0,1.0,,,,,,,,,gray,circle
0.0,5.0,1.0,1.0,5.0,0.0,0.0,1.0,0.0,part_2,stop,250.0,400.0,4.0,,,,,,,,,blue,diamond
0.0,2.0,2.0,0.0,6.0,6.0,572.5428369996735,1.0,0.0,part_2,go,300.0,400.0,1.0,,,,,,,,,yellow,square
0.0,8.0,4.0,1.0,6.0,0.0,0.0,2.0,0.0,part_2,stop,300.0,400.0,4.0,,,,,,,,,cyan,cross
0.0,5.0,1.0,1.0,5.0,5.0,407.8383099999882,2.0,0.0,part_2,stop,300.0,450.0,3.0,,,,,,,,,blue,diamond
0.0,4.0,4.0,0.0,5.0,5.0,565.0476109999545,2.0,0.0,part_2,go,250.0,450.0,1.0,,,,,,,,,magenta,triangle
0.0,7.0,3.0,1.0,5.0,0.0,0.0,2.0,0.0,part_2,stop,250.0,450.0,4.0,,,,,,,,,green,flipped triangle
0.0,3.0,3.0,0.0,5.0,5.0,578.447528000197,2.0,0.0,part_2,go,300.0,450.0,1.0,,,,,,,,,gray,circle
0.0,5.0,1.0,1.0,5.0,5.0,734.1054660000736,2.0,0.0,part_2,go,300.0,450.0,1.0,,,,,,,,,blue,diamond
0.0,1.0,1.0,0.0,5.0,5.0,648.7667579999652,2.0,0.0,part_2,go,300.0,450.0,1.0,,,,,,,,,white,I
0.0,8.0,4.0,1.0,5.0,0.0,0.0,2.0,0.0,part_2,stop,300.0,450.0,4.0,,,,,,,,,cyan,cross
0.0,1.0,1.0,0.0,6.0,6.0,630.3354799997578,2.0,0.0,part_2,go,350.0,450.0,1.0,,,,,,,,,white,I
0.0,2.0,2.0,0.0,5.0,5.0,640.1400170002489,2.0,0.0,part_2,go,350.0,450.0,1.0,,,,,,,,,yellow,square
0.0,3.0,3.0,0.0,6.0,6.0,672.5222360000771,2.0,0.0,part_2,go,350.0,450.0,1.0,,,,,,,,,gray,circle
0.0,1.0,1.0,0.0,6.0,6.0,702.665048000199,2.0,0.0,part_2,go,350.0,450.0,1.0,,,,,,,,,white,I
0.0,5.0,1.0,1.0,6.0,0.0,0.0,2.0,0.0,part_2,stop,350.0,450.0,4.0,,,,,,,,,blue,diamond
0.0,2.0,2.0,0.0,6.0,6.0,468.3155029997579,2.0,0.0,part_2,go,350.0,500.0,1.0,,,,,,,,,yellow,square
0.0,2.0,2.0,0.0,6.0,6.0,445.0982059997841,2.0,0.0,part_2,go,350.0,500.0,1.0,,,,,,,,,yellow,square
0.0,2.0,2.0,0.0,6.0,6.0,768.1195959999059,2.0,0.0,part_2,go,350.0,500.0,1.0,,,,,,,,,yellow,square
0.0,6.0,2.0,1.0,6.0,0.0,0.0,2.0,0.0,part_2,stop,350.0,500.0,4.0,,,,,,,,,orange,hexagon
0.0,2.0,2.0,0.0,5.0,5.0,239.1468499999973,2.0,0.0,part_2,go,350.0,550.0,1.0,,,,,,,,,yellow,square
0.0,4.0,4.0,0.0,5.0,5.0,424.7529329995814,2.0,0.0,part_2,go,350.0,550.0,1.0,,,,,,,,,magenta,triangle
0.0,3.0,3.0,0.0,6.0,6.0,571.1114649998308,2.0,0.0,part_2,go,350.0,550.0,1.0,,,,,,,,,gray,circle
0.0,3.0,3.0,0.0,6.0,6.0,424.7001349999664,2.0,0.0,part_2,go,350.0,550.0,1.0,,,,,,,,,gray,circle
0.0,5.0,1.0,1.0,5.0,5.0,474.9964840002576,2.0,0.0,part_2,stop,350.0,550.0,3.0,,,,,,,,,blue,diamond
0.0,3.0,3.0,0.0,6.0,6.0,226.5260460003446,2.0,0.0,part_2,go,300.0,550.0,1.0,,,,,,,,,gray,circle
0.0,2.0,2.0,0.0,5.0,5.0,278.8733769998543,2.0,0.0,part_2,go,300.0,550.0,1.0,,,,,,,,,yellow,square
0.0,6.0,2.0,1.0,5.0,0.0,0.0,2.0,0.0,part_2,stop,300.0,550.0,4.0,,,,,,,,,orange,hexagon
0.0,7.0,3.0,1.0,6.0,6.0,308.2745179999619,2.0,0.0,part_2,stop,350.0,550.0,3.0,,,,,,,,,green,flipped triangle
0.0,8.0,4.0,1.0,5.0,5.0,230.7631829999081,2.0,0.0,part_2,stop,350.0,500.0,3.0,,,,,,,,,cyan,cross
0.0,6.0,2.0,1.0,6.0,6.0,264.8209539997879,2.0,0.0,part_2,go,300.0,500.0,1.0,,,,,,,,,orange,hexagon
0.0,8.0,4.0,1.0,5.0,5.0,291.1715979998917,2.0,0.0,part_2,go,300.0,500.0,1.0,,,,,,,,,cyan,cross
0.0,7.0,3.0,1.0,5.0,5.0,660.6157530000019,2.0,0.0,part_2,go,300.0,500.0,1.0,,,,,,,,,green,flipped triangle
0.0,7.0,3.0,1.0,5.0,0.0,0.0,2.0,0.0,part_2,stop,300.0,500.0,4.0,,,,,,,,,green,flipped triangle
0.0,6.0,2.0,1.0,6.0,6.0,491.3110489997052,2.0,0.0,part_2,stop,350.0,500.0,3.0,,,,,,,,,orange,hexagon
0.0,8.0,4.0,1.0,5.0,0.0,0.0,2.0,0.0,part_2,stop,350.0,450.0,4.0,,,,,,,,,cyan,cross
0.0,4.0,4.0,0.0,5.0,5.0,657.4962830000004,2.0,0.0,part_2,go,400.0,450.0,1.0,,,,,,,,,magenta,triangle
0.0,1.0,1.0,0.0,6.0,6.0,795.8177000000433,2.0,0.0,part_2,go,400.0,450.0,1.0,,,,,,,,,white,I
0.0,8.0,4.0,1.0,6.0,0.0,0.0,2.0,0.0,part_2,stop,400.0,450.0,4.0,,,,,,,,,cyan,cross
0.0,4.0,4.0,0.0,6.0,6.0,431.6516509998109,3.0,0.0,part_2,go,400.0,500.0,1.0,,,,,,,,,magenta,triangle
0.0,2.0,2.0,0.0,5.0,5.0,418.2084779999968,3.0,0.0,part_2,go,400.0,500.0,1.0,,,,,,,,,yellow,square
0.0,1.0,1.0,0.0,6.0,6.0,340.4670249997252,3.0,0.0,part_2,go,400.0,500.0,1.0,,,,,,,,,white,I
0.0,7.0,3.0,1.0,6.0,6.0,732.1019159999196,3.0,0.0,part_2,go,400.0,500.0,1.0,,,,,,,,,green,flipped triangle
0.0,6.0,2.0,1.0,5.0,0.0,0.0,3.0,0.0,part_2,stop,400.0,500.0,4.0,,,,,,,,,orange,hexagon
0.0,4.0,4.0,0.0,5.0,5.0,427.3515350000707,3.0,0.0,part_2,go,450.0,500.0,1.0,,,,,,,,,magenta,triangle
0.0,5.0,1.0,1.0,5.0,5.0,577.4812239997118,3.0,0.0,part_2,stop,450.0,500.0,3.0,,,,,,,,,blue,diamond
0.0,8.0,4.0,1.0,6.0,6.0,528.0655179999485,3.0,0.0,part_2,go,400.0,500.0,1.0,,,,,,,,,cyan,cross
0.0,4.0,4.0,0.0,5.0,5.0,737.9425379999702,3.0,0.0,part_2,go,400.0,500.0,1.0,,,,,,,,,magenta,triangle
0.0,7.0,3.0,1.0,6.0,0.0,0.0,3.0,0.0,part_2,stop,400.0,500.0,4.0,,,,,,,,,green,flipped triangle
0.0,7.0,3.0,1.0,6.0,6.0,682.2057889999087,3.0,0.0,part_2,stop,400.0,550.0,3.0,,,,,,,,,green,flipped triangle
0.0,2.0,2.0,0.0,5.0,5.0,468.388578000031,3.0,0.0,part_2,go,400.0,500.0,1.0,,,,,,,,,yellow,square
0.0,3.0,3.0,0.0,6.0,6.0,714.0132039999116,3.0,0.0,part_2,go,400.0,500.0,1.0,,,,,,,,,gray,circle
0.0,1.0,1.0,0.0,5.0,5.0,400.4577750001772,3.0,0.0,part_2,go,400.0,500.0,1.0,,,,,,,,,white,I
0.0,6.0,2.0,1.0,5.0,0.0,0.0,3.0,0.0,part_2,stop,400.0,500.0,4.0,,,,,,,,,orange,hexagon
0.0,8.0,4.0,1.0,6.0,6.0,613.0382159999499,3.0,0.0,part_2,stop,450.0,500.0,3.0,,,,,,,,,cyan,cross
0.0,8.0,4.0,1.0,5.0,5.0,715.4703139999583,3.0,0.0,part_2,go,450.0,450.0,1.0,,,,,,,,,cyan,cross
0.0,5.0,1.0,1.0,6.0,6.0,414.2691219999506,3.0,0.0,part_2,stop,450.0,450.0,3.0,,,,,,,,,blue,diamond
0.0,6.0,2.0,1.0,6.0,0.0,0.0,3.0,0.0,part_2,stop,450.0,400.0,4.0,,,,,,,,,orange,hexagon
0.0,4.0,4.0,0.0,6.0,6.0,359.7382990001279,3.0,0.0,part_2,go,450.0,450.0,1.0,,,,,,,,,magenta,triangle
0.0,6.0,2.0,1.0,5.0,0.0,0.0,3.0,0.0,part_2,stop,450.0,450.0,4.0,,,,,,,,,orange,hexagon
0.0,7.0,3.0,1.0,6.0,6.0,445.8914560000266,3.0,0.0,part_2,stop,500.0,450.0,3.0,,,,,,,,,green,flipped triangle
0.0,3.0,3.0,0.0,5.0,5.0,464.6791469999698,3.0,0.0,part_2,go,500.0,400.0,1.0,,,,,,,,,gray,circle
0.0,6.0,2.0,1.0,6.0,6.0,401.4231090000066,3.0,0.0,part_2,go,500.0,400.0,1.0,,,,,,,,,orange,hexagon
0.0,5.0,1.0,1.0,6.0,0.0,0.0,3.0,0.0,part_2,stop,500.0,400.0,4.0,,,,,,,,,blue,diamond
0.0,3.0,3.0,0.0,6.0,6.0,593.7008339997192,3.0,0.0,part_2,go,500.0,450.0,1.0,,,,,,,,,gray,circle
0.0,6.0,2.0,1.0,6.0,6.0,443.1394560001536,3.0,0.0,part_2,go,500.0,450.0,1.0,,,,,,,,,orange,hexagon
0.0,6.0,2.0,1.0,5.0,5.0,413.3640069999273,3.0,0.0,part_2,stop,500.0,450.0,3.0,,,,,,,,,orange,hexagon
0.0,5.0,1.0,1.0,5.0,5.0,392.1774489999734,3.0,0.0,part_2,stop,450.0,450.0,3.0,,,,,,,,,blue,diamond
0.0,2.0,2.0,0.0,6.0,6.0,577.7917340001295,3.0,0.0,part_2,go,400.0,450.0,1.0,,,,,,,,,yellow,square
0.0,4.0,4.0,0.0,5.0,5.0,803.7165820001064,3.0,0.0,part_2,go,400.0,450.0,1.0,,,,,,,,,magenta,triangle
0.0,4.0,4.0,0.0,6.0,6.0,903.9367430000312,3.0,0.0,part_2,go,400.0,450.0,1.0,,,,,,,,,magenta,triangle
0.0,5.0,1.0,1.0,5.0,5.0,279.0830509998159,3.0,0.0,part_2,stop,400.0,450.0,3.0,,,,,,,,,blue,diamond
0.0,3.0,3.0,0.0,6.0,6.0,348.6546620001718,3.0,0.0,part_2,go,350.0,450.0,1.0,,,,,,,,,gray,circle
0.0,6.0,2.0,1.0,6.0,6.0,387.0983790002356,3.0,0.0,part_2,stop,350.0,450.0,3.0,,,,,,,,,orange,hexagon
0.0,4.0,4.0,0.0,5.0,5.0,529.462610000337,3.0,0.0,part_2,go,350.0,400.0,1.0,,,,,,,,,magenta,triangle
0.0,7.0,3.0,1.0,5.0,0.0,0.0,4.0,0.0,part_2,stop,350.0,400.0,4.0,,,,,,,,,green,flipped triangle
0.0,8.0,4.0,1.0,5.0,5.0,312.0084540000789,4.0,0.0,part_2,stop,400.0,400.0,3.0,,,,,,,,,cyan,cross
0.0,1.0,1.0,0.0,5.0,5.0,514.4991900001514,4.0,0.0,part_2,go,350.0,400.0,1.0,,,,,,,,,white,I
0.0,7.0,3.0,1.0,6.0,6.0,290.861034000045,4.0,0.0,part_2,stop,350.0,400.0,3.0,,,,,,,,,green,flipped triangle
0.0,1.0,1.0,0.0,6.0,6.0,385.905790000379,4.0,0.0,part_2,go,350.0,350.0,1.0,,,,,,,,,white,I
0.0,3.0,3.0,0.0,5.0,5.0,458.7927590000618,4.0,0.0,part_2,go,350.0,350.0,1.0,,,,,,,,,gray,circle
0.0,6.0,2.0,1.0,6.0,6.0,266.8622249998407,4.0,0.0,part_2,stop,350.0,350.0,3.0,,,,,,,,,orange,hexagon
0.0,7.0,3.0,1.0,5.0,5.0,309.733554000104,4.0,0.0,part_2,stop,350.0,300.0,3.0,,,,,,,,,green,flipped triangle
0.0,4.0,4.0,0.0,6.0,6.0,269.7740510002404,4.0,0.0,part_2,go,300.0,300.0,1.0,,,,,,,,,magenta,triangle
0.0,8.0,4.0,1.0,6.0,0.0,0.0,4.0,0.0,part_2,stop,300.0,300.0,4.0,,,,,,,,,cyan,cross
0.0,7.0,3.0,1.0,6.0,6.0,440.2050610001424,4.0,0.0,part_2,stop,300.0,350.0,3.0,,,,,,,,,green,flipped triangle
0.0,4.0,4.0,0.0,6.0,6.0,557.9975690002357,4.0,0.0,part_2,go,300.0,300.0,1.0,,,,,,,,,magenta,triangle
0.0,3.0,3.0,0.0,6.0,6.0,767.791797999962,4.0,0.0,part_2,go,300.0,300.0,1.0,,,,,,,,,gray,circle
0.0,2.0,2.0,0.0,5.0,5.0,282.9448349998529,4.0,0.0,part_2,go,300.0,300.0,1.0,,,,,,,,,yellow,square
0.0,5.0,1.0,1.0,6.0,0.0,0.0,4.0,0.0,part_2,stop,300.0,300.0,4.0,,,,,,,,,blue,diamond
0.0,4.0,4.0,0.0,6.0,6.0,757.207883999854,4.0,0.0,part_2,go,300.0,350.0,1.0,,,,,,,,,magenta,triangle
0.0,7.0,3.0,1.0,6.0,6.0,734.466558999884,4.0,0.0,part_2,go,300.0,350.0,1.0,,,,,,,,,green,flipped triangle
0.0,4.0,4.0,0.0,6.0,6.0,418.9432329999363,4.0,0.0,part_2,go,300.0,350.0,1.0,,,,,,,,,magenta,triangle
0.0,4.0,4.0,0.0,6.0,6.0,331.0780969995903,4.0,0.0,part_2,go,300.0,350.0,1.0,,,,,,,,,magenta,triangle
0.0,8.0,4.0,1.0,6.0,6.0,435.7272439997359,4.0,0.0,part_2,stop,300.0,350.0,3.0,,,,,,,,,cyan,cross
0.0,3.0,3.0,0.0,6.0,6.0,737.9826149999644,4.0,0.0,part_2,go,300.0,300.0,1.0,,,,,,,,,gray,circle
0.0,4.0,4.0,0.0,5.0,5.0,721.8936160002158,4.0,0.0,part_2,go,300.0,300.0,1.0,,,,,,,,,magenta,triangle
0.0,6.0,2.0,1.0,5.0,5.0,408.008633999998,4.0,0.0,part_2,go,300.0,300.0,1.0,,,,,,,,,orange,hexagon
0.0,6.0,2.0,1.0,6.0,6.0,262.1893339996859,4.0,0.0,part_2,stop,300.0,300.0,3.0,,,,,,,,,orange,hexagon
0.0,2.0,2.0,0.0,6.0,6.0,551.7796439999074,4.0,0.0,part_2,go,300.0,250.0,1.0,,,,,,,,,yellow,square
0.0,1.0,1.0,0.0,5.0,5.0,449.8454710001169,4.0,0.0,part_2,go,300.0,250.0,1.0,,,,,,,,,white,I
0.0,6.0,2.0,1.0,5.0,5.0,338.673953000125,4.0,0.0,part_2,stop,300.0,250.0,3.0,,,,,,,,,orange,hexagon
0.0,8.0,4.0,1.0,6.0,6.0,342.4791970001024,4.0,0.0,part_2,stop,250.0,250.0,3.0,,,,,,,,,cyan,cross
0.0,8.0,4.0,1.0,5.0,0.0,0.0,4.0,0.0,part_2,stop,250.0,200.0,4.0,,,,,,,,,cyan,cross
0.0,4.0,4.0,0.0,5.0,5.0,592.1399929998188,4.0,0.0,part_2,go,300.0,200.0,1.0,,,,,,,,,magenta,triangle
0.0,8.0,4.0,1.0,5.0,0.0,0.0,4.0,0.0,part_2,stop,300.0,200.0,4.0,,,,,,,,,cyan,cross
0.0,2.0,2.0,0.0,6.0,6.0,654.2667869998695,4.0,0.0,part_2,go,350.0,200.0,1.0,,,,,,,,,yellow,square
0.0,8.0,4.0,1.0,6.0,0.0,0.0,4.0,0.0,part_2,stop,350.0,200.0,4.0,,,,,,,,,cyan,cross
0.0,3.0,3.0,0.0,6.0,6.0,854.5613199999025,4.0,0.0,part_2,go,350.0,250.0,1.0,,,,,,,,,gray,circle
0.0,6.0,2.0,1.0,6.0,6.0,850.9917050000695,4.0,0.0,part_2,go,350.0,250.0,1.0,,,,,,,,,orange,hexagon
0.0,2.0,2.0,0.0,5.0,5.0,392.3725680001553,4.0,0.0,part_2,go,350.0,250.0,1.0,,,,,,,,,yellow,square
0.0,5.0,1.0,1.0,6.0,6.0,443.3420279997335,5.0,0.0,part_2,stop,350.0,250.0,3.0,,,,,,,,,blue,diamond
0.0,6.0,2.0,1.0,5.0,0.0,0.0,5.0,0.0,part_2,stop,350.0,200.0,4.0,,,,,,,,,orange,hexagon
0.0,7.0,3.0,1.0,6.0,0.0,0.0,5.0,0.0,part_2,stop,400.0,200.0,4.0,,,,,,,,,green,flipped triangle
0.0,3.0,3.0,0.0,5.0,5.0,308.1094139997731,5.0,0.0,part_2,go,400.0,250.0,1.0,,,,,,,,,gray,circle
0.0,6.0,2.0,1.0,5.0,0.0,0.0,5.0,0.0,part_2,stop,400.0,250.0,4.0,,,,,,,,,orange,hexagon
0.0,4.0,4.0,0.0,5.0,5.0,641.4242780001587,5.0,0.0,part_2,go,450.0,250.0,1.0,,,,,,,,,magenta,triangle
0.0,5.0,1.0,1.0,6.0,6.0,665.6845510001403,5.0,0.0,part_2,go,450.0,250.0,1.0,,,,,,,,,blue,diamond
0.0,7.0,3.0,1.0,6.0,6.0,354.7911499999827,5.0,0.0,part_2,stop,450.0,250.0,3.0,,,,,,,,,green,flipped triangle
0.0,6.0,2.0,1.0,5.0,5.0,558.6740889998509,5.0,0.0,part_2,stop,450.0,200.0,3.0,,,,,,,,,orange,hexagon
0.0,2.0,2.0,0.0,6.0,6.0,232.3623130000669,5.0,0.0,part_2,go,400.0,200.0,1.0,,,,,,,,,yellow,square
0.0,4.0,4.0,0.0,5.0,5.0,706.0567730000002,5.0,0.0,part_2,go,400.0,200.0,1.0,,,,,,,,,magenta,triangle
0.0,3.0,3.0,0.0,5.0,5.0,669.8610849998659,5.0,0.0,part_2,go,400.0,200.0,1.0,,,,,,,,,gray,circle
0.0,3.0,3.0,0.0,5.0,5.0,1025.0266940001893,5.0,0.0,part_2,go,400.0,200.0,1.0,,,,,,,,,gray,circle
0.0,1.0,1.0,0.0,5.0,5.0,522.8453810000246,5.0,0.0,part_2,go,400.0,200.0,1.0,,,,,,,,,white,I
0.0,4.0,4.0,0.0,5.0,5.0,810.0559409999732,5.0,0.0,part_2,go,400.0,200.0,1.0,,,,,,,,,magenta,triangle
0.0,3.0,3.0,0.0,6.0,6.0,628.0216879999898,5.0,0.0,part_2,go,400.0,200.0,1.0,,,,,,,,,gray,circle
0.0,8.0,4.0,1.0,6.0,0.0,0.0,5.0,0.0,part_2,stop,400.0,200.0,4.0,,,,,,,,,cyan,cross
0.0,4.0,4.0,0.0,6.0,6.0,596.4865769997232,5.0,0.0,part_2,go,400.0,250.0,1.0,,,,,,,,,magenta,triangle
0.0,7.0,3.0,1.0,6.0,0.0,0.0,5.0,0.0,part_2,stop,400.0,250.0,4.0,,,,,,,,,green,flipped triangle
0.0,8.0,4.0,1.0,5.0,5.0,550.8470979998492,5.0,0.0,part_2,go,400.0,300.0,1.0,,,,,,,,,cyan,cross
0.0,2.0,2.0,0.0,5.0,5.0,348.6221009998189,5.0,0.0,part_2,go,400.0,300.0,1.0,,,,,,,,,yellow,square
0.0,6.0,2.0,1.0,6.0,0.0,0.0,5.0,0.0,part_2,stop,400.0,300.0,4.0,,,,,,,,,orange,hexagon
0.0,2.0,2.0,0.0,6.0,6.0,466.8664910000188,5.0,0.0,part_2,go,400.0,350.0,1.0,,,,,,,,,yellow,square
0.0,8.0,4.0,1.0,6.0,6.0,508.30296300000555,5.0,0.0,part_2,go,400.0,350.0,1.0,,,,,,,,,cyan,cross
0.0,2.0,2.0,0.0,6.0,6.0,474.5519570001306,5.0,0.0,part_2,go,400.0,350.0,1.0,,,,,,,,,yellow,square
0.0,4.0,4.0,0.0,5.0,5.0,473.7292149998211,5.0,0.0,part_2,go,400.0,350.0,1.0,,,,,,,,,magenta,triangle
0.0,8.0,4.0,1.0,5.0,5.0,401.3060890001725,5.0,0.0,part_2,go,400.0,350.0,1.0,,,,,,,,,cyan,cross
0.0,1.0,1.0,0.0,6.0,6.0,310.37248299981,5.0,0.0,part_2,go,400.0,350.0,1.0,,,,,,,,,white,I
0.0,3.0,3.0,0.0,5.0,5.0,498.4356530003424,5.0,0.0,part_2,go,400.0,350.0,1.0,,,,,,,,,gray,circle
0.0,2.0,2.0,0.0,6.0,6.0,579.9591459999647,5.0,0.0,part_2,go,400.0,350.0,1.0,,,,,,,,,yellow,square
0.0,1.0,1.0,0.0,6.0,6.0,410.4972230002204,5.0,0.0,part_2,go,400.0,350.0,1.0,,,,,,,,,white,I
0.0,5.0,1.0,1.0,6.0,6.0,389.8538010002994,5.0,0.0,part_2,stop,400.0,350.0,3.0,,,,,,,,,blue,diamond
0.0,2.0,2.0,0.0,6.0,6.0,570.2742139997099,5.0,0.0,part_2,go,400.0,300.0,1.0,,,,,,,,,yellow,square
0.0,8.0,4.0,1.0,5.0,5.0,340.667496000151,5.0,0.0,part_2,stop,400.0,300.0,3.0,,,,,,,,,cyan,cross
0.0,6.0,2.0,1.0,6.0,0.0,0.0,5.0,0.0,part_2,stop,350.0,300.0,4.0,,,,,,,,,orange,hexagon
0.0,8.0,4.0,1.0,5.0,5.0,565.6531969998468,5.0,0.0,part_2,go,350.0,350.0,1.0,,,,,,,,,cyan,cross
0.0,7.0,3.0,1.0,5.0,0.0,0.0,6.0,0.0,part_2,stop,350.0,350.0,4.0,,,,,,,,,green,flipped triangle
0.0,7.0,3.0,1.0,6.0,6.0,382.7560849999827,6.0,0.0,part_2,stop,400.0,350.0,3.0,,,,,,,,,green,flipped triangle
0.0,8.0,4.0,1.0,5.0,5.0,357.6176370002031,6.0,0.0,part_2,go,400.0,300.0,1.0,,,,,,,,,cyan,cross
0.0,6.0,2.0,1.0,5.0,5.0,462.0126319996416,6.0,0.0,part_2,go,400.0,300.0,1.0,,,,,,,,,orange,hexagon
0.0,6.0,2.0,1.0,6.0,6.0,356.2854930000867,6.0,0.0,part_2,stop,400.0,300.0,3.0,,,,,,,,,orange,hexagon
0.0,3.0,3.0,0.0,6.0,6.0,480.5785260000448,6.0,0.0,part_2,go,400.0,250.0,1.0,,,,,,,,,gray,circle
0.0,5.0,1.0,1.0,6.0,0.0,0.0,6.0,0.0,part_2,stop,400.0,250.0,4.0,,,,,,,,,blue,diamond
0.0,7.0,3.0,1.0,5.0,5.0,517.3555849996774,6.0,0.0,part_2,go,400.0,300.0,1.0,,,,,,,,,green,flipped triangle
0.0,3.0,3.0,0.0,6.0,6.0,390.6109889999243,6.0,0.0,part_2,go,400.0,300.0,1.0,,,,,,,,,gray,circle
0.0,8.0,4.0,1.0,6.0,0.0,0.0,6.0,0.0,part_2,stop,400.0,300.0,4.0,,,,,,,,,cyan,cross
0.0,1.0,1.0,0.0,5.0,5.0,448.8207019999208,6.0,0.0,part_2,go,400.0,350.0,1.0,,,,,,,,,white,I
0.0,8.0,4.0,1.0,5.0,5.0,437.5593979998484,6.0,0.0,part_2,stop,400.0,350.0,3.0,,,,,,,,,cyan,cross
0.0,5.0,1.0,1.0,5.0,5.0,590.1585510000587,6.0,0.0,part_2,go,350.0,350.0,1.0,,,,,,,,,blue,diamond
0.0,7.0,3.0,1.0,5.0,5.0,481.0601300000598,6.0,0.0,part_2,go,350.0,350.0,1.0,,,,,,,,,green,flipped triangle
0.0,1.0,1.0,0.0,5.0,5.0,598.0331959999603,6.0,0.0,part_2,go,350.0,350.0,1.0,,,,,,,,,white,I
0.0,4.0,4.0,0.0,6.0,6.0,545.422542000324,6.0,0.0,part_2,go,350.0,350.0,1.0,,,,,,,,,magenta,triangle
0.0,1.0,1.0,0.0,6.0,6.0,371.7988650000734,6.0,0.0,part_2,go,350.0,350.0,1.0,,,,,,,,,white,I
0.0,8.0,4.0,1.0,6.0,6.0,427.995928999735,6.0,0.0,part_2,stop,350.0,350.0,3.0,,,,,,,,,cyan,cross
0.0,7.0,3.0,1.0,5.0,5.0,392.458484999679,6.0,0.0,part_2,stop,350.0,300.0,3.0,,,,,,,,,green,flipped triangle
0.0,7.0,3.0,1.0,5.0,5.0,528.7401589998808,6.0,0.0,part_2,go,300.0,300.0,1.0,,,,,,,,,green,flipped triangle
0.0,1.0,1.0,0.0,5.0,5.0,699.1550080001616,6.0,0.0,part_2,go,300.0,300.0,1.0,,,,,,,,,white,I
0.0,5.0,1.0,1.0,6.0,6.0,362.2434500002782,6.0,0.0,part_2,stop,300.0,300.0,3.0,,,,,,,,,blue,diamond
0.0,4.0,4.0,0.0,6.0,6.0,543.4876270001041,6.0,0.0,part_2,go,300.0,250.0,1.0,,,,,,,,,magenta,triangle
0.0,3.0,3.0,0.0,6.0,6.0,610.0213110003097,6.0,0.0,part_2,go,300.0,250.0,1.0,,,,,,,,,gray,circle
0.0,2.0,2.0,0.0,6.0,6.0,541.3136629999826,6.0,0.0,part_2,go,300.0,250.0,1.0,,,,,,,,,yellow,square
0.0,5.0,1.0,1.0,5.0,5.0,612.3168160002024,6.0,0.0,part_2,go,300.0,250.0,1.0,,,,,,,,,blue,diamond
0.0,1.0,1.0,0.0,5.0,5.0,471.0739510001076,6.0,0.0,part_2,go,300.0,250.0,1.0,,,,,,,,,white,I
0.0,2.0,2.0,0.0,5.0,5.0,714.4358820000889,6.0,0.0,part_2,go,300.0,250.0,1.0,,,,,,,,,yellow,square
0.0,6.0,2.0,1.0,5.0,0.0,0.0,6.0,0.0,part_2,stop,300.0,250.0,4.0,,,,,,,,,orange,hexagon
0.0,3.0,3.0,0.0,5.0,5.0,436.298459000227,6.0,0.0,part_2,go,350.0,250.0,1.0,,,,,,,,,gray,circle
0.0,7.0,3.0,1.0,6.0,0.0,0.0,6.0,0.0,part_2,stop,350.0,250.0,4.0,,,,,,,,,green,flipped triangle
0.0,3.0,3.0,0.0,5.0,5.0,569.4804129998374,6.0,0.0,part_2,go,350.0,300.0,1.0,,,,,,,,,gray,circle
0.0,5.0,1.0,1.0,6.0,0.0,0.0,6.0,0.0,part_2,stop,350.0,300.0,4.0,,,,,,,,,blue,diamond
0.0,3.0,3.0,0.0,5.0,5.0,614.9307229998158,6.0,0.0,part_2,go,350.0,350.0,1.0,,,,,,,,,gray,circle
0.0,1.0,1.0,0.0,6.0,6.0,382.7639440000894,6.0,0.0,part_2,go,350.0,350.0,1.0,,,,,,,,,white,I
0.0,4.0,4.0,0.0,6.0,6.0,719.1352770000776,6.0,0.0,part_2,go,350.0,350.0,1.0,,,,,,,,,magenta,triangle
0.0,4.0,4.0,0.0,6.0,6.0,787.0699509999213,7.0,0.0,part_2,go,350.0,350.0,1.0,,,,,,,,,magenta,triangle
0.0,5.0,1.0,1.0,6.0,0.0,0.0,7.0,0.0,part_2,stop,350.0,350.0,4.0,,,,,,,,,blue,diamond
0.0,1.0,1.0,0.0,5.0,5.0,588.2618820000971,7.0,0.0,part_2,go,350.0,400.0,1.0,,,,,,,,,white,I
0.0,6.0,2.0,1.0,6.0,6.0,584.7741679999672,7.0,0.0,part_2,go,350.0,400.0,1.0,,,,,,,,,orange,hexagon
0.0,7.0,3.0,1.0,5.0,0.0,0.0,7.0,0.0,part_2,stop,350.0,400.0,4.0,,,,,,,,,green,flipped triangle
0.0,1.0,1.0,0.0,5.0,5.0,425.0648459997137,7.0,0.0,part_2,go,400.0,400.0,1.0,,,,,,,,,white,I
0.0,2.0,2.0,0.0,6.0,6.0,559.2951120001999,7.0,0.0,part_2,go,400.0,400.0,1.0,,,,,,,,,yellow,square
0.0,2.0,2.0,0.0,5.0,5.0,457.7918209997733,7.0,0.0,part_2,go,400.0,400.0,1.0,,,,,,,,,yellow,square
0.0,5.0,1.0,1.0,6.0,6.0,476.8380329996944,7.0,0.0,part_2,stop,400.0,400.0,3.0,,,,,,,,,blue,diamond
0.0,3.0,3.0,0.0,6.0,6.0,509.56518399971173,7.0,0.0,part_2,go,400.0,350.0,1.0,,,,,,,,,gray,circle
0.0,4.0,4.0,0.0,6.0,6.0,581.9303680000303,7.0,0.0,part_2,go,400.0,350.0,1.0,,,,,,,,,magenta,triangle
0.0,7.0,3.0,1.0,6.0,0.0,0.0,7.0,0.0,part_2,stop,400.0,350.0,4.0,,,,,,,,,green,flipped triangle
0.0,2.0,2.0,0.0,6.0,6.0,703.6403649999556,7.0,0.0,part_2,go,400.0,400.0,1.0,,,,,,,,,yellow,square
0.0,8.0,4.0,1.0,6.0,0.0,0.0,7.0,0.0,part_2,stop,400.0,400.0,4.0,,,,,,,,,cyan,cross
0.0,1.0,1.0,0.0,6.0,6.0,686.4010399999643,7.0,0.0,part_2,go,400.0,450.0,1.0,,,,,,,,,white,I
0.0,6.0,2.0,1.0,5.0,0.0,0.0,7.0,0.0,part_2,stop,400.0,450.0,4.0,,,,,,,,,orange,hexagon
0.0,4.0,4.0,0.0,6.0,6.0,569.07941999998,7.0,0.0,part_2,go,450.0,450.0,1.0,,,,,,,,,magenta,triangle
0.0,3.0,3.0,0.0,5.0,5.0,641.4168500000414,7.0,0.0,part_2,go,450.0,450.0,1.0,,,,,,,,,gray,circle
0.0,5.0,1.0,1.0,6.0,0.0,0.0,7.0,0.0,part_2,stop,450.0,450.0,4.0,,,,,,,,,blue,diamond
0.0,7.0,3.0,1.0,5.0,5.0,672.6993699999184,7.0,0.0,part_2,stop,450.0,500.0,3.0,,,,,,,,,green,flipped triangle
0.0,1.0,1.0,0.0,6.0,6.0,491.562624999915,7.0,0.0,part_2,go,400.0,500.0,1.0,,,,,,,,,white,I
0.0,3.0,3.0,0.0,6.0,0.0,0.0,7.0,0.0,part_2,go,400.0,500.0,5.0,,,,,,,,,gray,circle
0.0,5.0,1.0,1.0,6.0,6.0,452.540110999962,7.0,0.0,part_2,stop,400.0,500.0,3.0,,,,,,,,,blue,diamond
0.0,4.0,4.0,0.0,6.0,6.0,398.7949679999474,7.0,0.0,part_2,go,400.0,450.0,1.0,,,,,,,,,magenta,triangle
0.0,8.0,4.0,1.0,5.0,5.0,383.7459219998891,7.0,0.0,part_2,stop,400.0,450.0,3.0,,,,,,,,,cyan,cross
0.0,8.0,4.0,1.0,6.0,6.0,330.3187939995951,7.0,0.0,part_2,stop,350.0,450.0,3.0,,,,,,,,,cyan,cross
0.0,5.0,1.0,1.0,6.0,6.0,493.84560899989077,7.0,0.0,part_2,stop,350.0,400.0,3.0,,,,,,,,,blue,diamond
0.0,5.0,1.0,1.0,5.0,5.0,305.8543060001284,7.0,0.0,part_2,go,350.0,350.0,1.0,,,,,,,,,blue,diamond
0.0,4.0,4.0,0.0,6.0,6.0,503.6430130003282,7.0,0.0,part_2,go,350.0,350.0,1.0,,,,,,,,,magenta,triangle
0.0,6.0,2.0,1.0,6.0,0.0,0.0,7.0,0.0,part_2,stop,350.0,350.0,4.0,,,,,,,,,orange,hexagon
0.0,6.0,2.0,1.0,5.0,5.0,401.2643120004213,7.0,0.0,part_2,go,350.0,400.0,1.0,,,,,,,,,orange,hexagon
0.0,1.0,1.0,0.0,6.0,6.0,480.1717400000598,7.0,0.0,part_2,go,350.0,400.0,1.0,,,,,,,,,white,I
0.0,3.0,3.0,0.0,5.0,5.0,570.859505000044,7.0,0.0,part_2,go,350.0,400.0,1.0,,,,,,,,,gray,circle
0.0,2.0,2.0,0.0,5.0,5.0,455.5438980000872,7.0,0.0,part_2,go,350.0,400.0,1.0,,,,,,,,,yellow,square
0.0,2.0,2.0,0.0,5.0,5.0,690.57476900025,7.0,0.0,part_2,go,350.0,400.0,1.0,,,,,,,,,yellow,square
0.0,7.0,3.0,1.0,6.0,0.0,0.0,7.0,0.0,part_2,stop,350.0,400.0,4.0,,,,,,,,,green,flipped triangle
0.0,7.0,3.0,1.0,6.0,6.0,383.7705400001141,8.0,0.0,part_2,stop,350.0,450.0,3.0,,,,,,,,,green,flipped triangle
0.0,5.0,1.0,1.0,5.0,5.0,471.3781269997525,8.0,0.0,part_2,go,350.0,400.0,1.0,,,,,,,,,blue,diamond
0.0,8.0,4.0,1.0,5.0,5.0,547.2802340000271,8.0,0.0,part_2,go,350.0,400.0,1.0,,,,,,,,,cyan,cross
0.0,7.0,3.0,1.0,6.0,6.0,455.8057720000761,8.0,0.0,part_2,stop,350.0,400.0,3.0,,,,,,,,,green,flipped triangle
0.0,6.0,2.0,1.0,5.0,5.0,467.6018350000959,8.0,0.0,part_2,stop,350.0,350.0,3.0,,,,,,,,,orange,hexagon
0.0,2.0,2.0,0.0,5.0,5.0,438.4725109998726,8.0,0.0,part_2,go,300.0,350.0,1.0,,,,,,,,,yellow,square
0.0,4.0,4.0,0.0,6.0,6.0,567.4466479999865,8.0,0.0,part_2,go,300.0,350.0,1.0,,,,,,,,,magenta,triangle
0.0,1.0,1.0,0.0,6.0,6.0,388.7656120000429,8.0,0.0,part_2,go,300.0,350.0,1.0,,,,,,,,,white,I
0.0,4.0,4.0,0.0,5.0,5.0,660.2216969999972,8.0,0.0,part_2,go,300.0,350.0,1.0,,,,,,,,,magenta,triangle
0.0,7.0,3.0,1.0,5.0,5.0,850.4277030001504,8.0,0.0,part_2,go,300.0,350.0,1.0,,,,,,,,,green,flipped triangle
0.0,1.0,1.0,0.0,5.0,5.0,862.2079860001577,8.0,0.0,part_2,go,300.0,350.0,1.0,,,,,,,,,white,I
0.0,5.0,1.0,1.0,6.0,0.0,0.0,8.0,0.0,part_2,stop,300.0,350.0,4.0,,,,,,,,,blue,diamond
0.0,3.0,3.0,0.0,5.0,5.0,623.46020699988,8.0,0.0,part_2,go,300.0,400.0,1.0,,,,,,,,,gray,circle
0.0,7.0,3.0,1.0,5.0,5.0,527.0854619998318,8.0,0.0,part_2,go,300.0,400.0,1.0,,,,,,,,,green,flipped triangle
0.0,1.0,1.0,0.0,6.0,6.0,766.9785309999497,8.0,0.0,part_2,go,300.0,400.0,1.0,,,,,,,,,white,I
0.0,2.0,2.0,0.0,5.0,5.0,632.0368779997807,8.0,0.0,part_2,go,300.0,400.0,1.0,,,,,,,,,yellow,square
0.0,8.0,4.0,1.0,5.0,0.0,0.0,8.0,0.0,part_2,stop,300.0,400.0,4.0,,,,,,,,,cyan,cross
0.0,6.0,2.0,1.0,6.0,0.0,0.0,8.0,0.0,part_2,stop,350.0,400.0,4.0,,,,,,,,,orange,hexagon
0.0,2.0,2.0,0.0,5.0,5.0,593.6030620000565,8.0,0.0,part_2,go,350.0,450.0,1.0,,,,,,,,,yellow,square
0.0,7.0,3.0,1.0,5.0,0.0,0.0,8.0,0.0,part_2,stop,350.0,450.0,4.0,,,,,,,,,green,flipped triangle
0.0,3.0,3.0,0.0,6.0,6.0,429.787572999885,8.0,0.0,part_2,go,400.0,450.0,1.0,,,,,,,,,gray,circle
0.0,6.0,2.0,1.0,6.0,6.0,564.7072500000831,8.0,0.0,part_2,go,400.0,450.0,1.0,,,,,,,,,orange,hexagon
0.0,5.0,1.0,1.0,6.0,0.0,0.0,8.0,0.0,part_2,stop,400.0,450.0,4.0,,,,,,,,,blue,diamond
0.0,1.0,1.0,0.0,5.0,5.0,391.4081580001038,8.0,0.0,part_2,go,400.0,500.0,1.0,,,,,,,,,white,I
0.0,6.0,2.0,1.0,5.0,5.0,537.8957839998293,8.0,0.0,part_2,stop,400.0,500.0,3.0,,,,,,,,,orange,hexagon
0.0,2.0,2.0,0.0,6.0,6.0,543.9310110000406,8.0,0.0,part_2,go,350.0,500.0,1.0,,,,,,,,,yellow,square
0.0,1.0,1.0,0.0,6.0,6.0,682.554577999781,8.0,0.0,part_2,go,350.0,500.0,1.0,,,,,,,,,white,I
0.0,2.0,2.0,0.0,5.0,5.0,393.1573030004074,8.0,0.0,part_2,go,350.0,500.0,1.0,,,,,,,,,yellow,square
0.0,8.0,4.0,1.0,6.0,6.0,582.3110840001391,8.0,0.0,part_2,stop,350.0,500.0,3.0,,,,,,,,,cyan,cross
0.0,7.0,3.0,1.0,5.0,0.0,0.0,8.0,0.0,part_2,stop,350.0,450.0,4.0,,,,,,,,,green,flipped triangle
0.0,2.0,2.0,0.0,5.0,5.0,636.3580030001685,8.0,0.0,part_2,go,400.0,450.0,1.0,,,,,,,,,yellow,square
0.0,3.0,3.0,0.0,5.0,5.0,522.5246959998913,8.0,0.0,part_2,go,400.0,450.0,1.0,,,,,,,,,gray,circle
0.0,5.0,1.0,1.0,5.0,5.0,485.3634520000014,8.0,0.0,part_2,stop,400.0,450.0,3.0,,,,,,,,,blue,diamond
0.0,6.0,2.0,1.0,6.0,0.0,0.0,8.0,0.0,part_2,stop,350.0,450.0,4.0,,,,,,,,,orange,hexagon
0.0,8.0,4.0,1.0,5.0,0.0,0.0,8.0,0.0,part_2,stop,350.0,500.0,4.0,,,,,,,,,cyan,cross
0.0,3.0,3.0,0.0,5.0,5.0,524.9035300003015,8.0,0.0,part_2,go,400.0,500.0,1.0,,,,,,,,,gray,circle
0.0,6.0,2.0,1.0,7.0,2.0,2706.396926000707,1.0,1.0,part_3,go,0.0,0.0,0.0,195.0,5.0,156.0,195.0,39.0,234.0,78.0,117.0,orange,hexagon
0.0,1.0,1.0,0.0,7.0,4.0,2679.941016000157,1.0,1.0,part_3,go,0.0,0.0,0.0,234.0,6.0,156.0,39.0,78.0,234.0,117.0,195.0,white,I
0.0,3.0,3.0,0.0,7.0,6.0,2228.0062930003623,1.0,1.0,part_3,go,0.0,0.0,0.0,220.0,5.0,88.0,264.0,132.0,176.0,44.0,220.0,gray,circle
0.0,8.0,4.0,1.0,7.0,2.0,1426.879132000067,1.0,1.0,part_3,go,0.0,0.0,0.0,44.0,1.0,176.0,44.0,88.0,220.0,264.0,132.0,cyan,cross
0.0,8.0,4.0,1.0,7.0,5.0,2641.33989199945,1.0,1.0,part_3,go,0.0,0.0,0.0,294.0,6.0,245.0,196.0,98.0,49.0,294.0,147.0,cyan,cross
0.0,2.0,2.0,0.0,7.0,1.0,1375.392287000068,1.0,1.0,part_3,go,0.0,0.0,0.0,68.0,2.0,68.0,170.0,136.0,102.0,204.0,34.0,yellow,square
0.0,6.0,2.0,1.0,7.0,3.0,613.4293160002926,1.0,1.0,part_3,go,0.0,0.0,0.0,108.0,2.0,162.0,216.0,108.0,54.0,324.0,270.0,orange,hexagon
0.0,5.0,1.0,1.0,7.0,4.0,785.7882550006252,1.0,1.0,part_3,go,0.0,0.0,0.0,98.0,2.0,196.0,49.0,147.0,98.0,245.0,294.0,blue,diamond
0.0,7.0,3.0,1.0,7.0,5.0,842.8081400006704,1.0,1.0,part_3,go,0.0,0.0,0.0,54.0,1.0,270.0,108.0,162.0,216.0,54.0,324.0,green,flipped triangle
0.0,7.0,3.0,1.0,7.0,2.0,531.662000000324,1.0,1.0,part_3,go,0.0,0.0,0.0,170.0,5.0,68.0,170.0,136.0,34.0,204.0,102.0,green,flipped triangle
0.0,4.0,4.0,0.0,7.0,3.0,323.0101240005751,1.0,1.0,part_3,go,0.0,0.0,0.0,324.0,6.0,108.0,54.0,324.0,162.0,270.0,216.0,magenta,triangle
0.0,1.0,1.0,0.0,7.0,5.0,718.9755939998577,1.0,1.0,part_3,go,0.0,0.0,0.0,196.0,4.0,245.0,147.0,294.0,49.0,196.0,98.0,white,I
0.0,7.0,3.0,1.0,7.0,2.0,339.733453000008,1.0,1.0,part_3,go,0.0,0.0,0.0,294.0,6.0,147.0,294.0,98.0,49.0,245.0,196.0,green,flipped triangle
0.0,8.0,4.0,1.0,7.0,1.0,2444.986546999644,1.0,1.0,part_3,go,0.0,0.0,0.0,234.0,6.0,234.0,78.0,156.0,117.0,195.0,39.0,cyan,cross
0.0,7.0,3.0,1.0,7.0,2.0,1928.907533999336,1.0,1.0,part_3,go,0.0,0.0,0.0,264.0,6.0,132.0,264.0,88.0,44.0,220.0,176.0,green,flipped triangle
0.0,4.0,4.0,0.0,7.0,3.0,945.6406660001448,1.0,1.0,part_3,go,0.0,0.0,0.0,176.0,4.0,88.0,44.0,176.0,220.0,132.0,264.0,magenta,triangle
0.0,2.0,2.0,0.0,7.0,6.0,501.5401419996124,1.0,1.0,part_3,go,0.0,0.0,0.0,102.0,3.0,68.0,34.0,170.0,136.0,204.0,102.0,yellow,square
0.0,5.0,1.0,1.0,7.0,4.0,664.5731869994052,1.0,1.0,part_3,go,0.0,0.0,0.0,216.0,4.0,54.0,270.0,108.0,216.0,324.0,162.0,blue,diamond
0.0,4.0,4.0,0.0,7.0,5.0,390.6301819997679,1.0,1.0,part_3,go,0.0,0.0,0.0,324.0,6.0,54.0,216.0,270.0,162.0,324.0,108.0,magenta,triangle
0.0,3.0,3.0,0.0,7.0,1.0,494.5183480003834,1.0,1.0,part_3,go,0.0,0.0,0.0,136.0,4.0,136.0,102.0,204.0,68.0,170.0,34.0,gray,circle
0.0,4.0,4.0,0.0,7.0,3.0,368.1636390001586,2.0,1.0,part_3,go,0.0,0.0,0.0,156.0,4.0,39.0,234.0,156.0,78.0,195.0,117.0,magenta,triangle
0.0,8.0,4.0,1.0,7.0,1.0,422.5139780000972,2.0,1.0,part_3,go,0.0,0.0,0.0,196.0,4.0,196.0,49.0,98.0,245.0,294.0,147.0,cyan,cross
0.0,5.0,1.0,1.0,7.0,3.0,463.1138639997516,2.0,1.0,part_3,go,0.0,0.0,0.0,68.0,2.0,34.0,204.0,68.0,170.0,136.0,102.0,blue,diamond
0.0,6.0,2.0,1.0,7.0,3.0,546.8489389995739,2.0,1.0,part_3,go,0.0,0.0,0.0,270.0,5.0,54.0,162.0,270.0,324.0,108.0,216.0,orange,hexagon
0.0,2.0,2.0,0.0,7.0,6.0,308.3486590003303,2.0,1.0,part_3,go,0.0,0.0,0.0,117.0,3.0,156.0,78.0,39.0,195.0,234.0,117.0,yellow,square
0.0,4.0,4.0,0.0,7.0,4.0,372.5282200002766,2.0,1.0,part_3,go,0.0,0.0,0.0,44.0,1.0,220.0,264.0,176.0,44.0,132.0,88.0,magenta,triangle
0.0,3.0,3.0,0.0,7.0,3.0,443.3682230001068,2.0,1.0,part_3,go,0.0,0.0,0.0,234.0,6.0,39.0,195.0,234.0,117.0,78.0,156.0,gray,circle
0.0,3.0,3.0,0.0,7.0,2.0,427.9793969999446,2.0,1.0,part_3,go,0.0,0.0,0.0,324.0,6.0,216.0,324.0,162.0,54.0,270.0,108.0,gray,circle
0.0,2.0,2.0,0.0,7.0,1.0,254.0590609996798,2.0,1.0,part_3,go,0.0,0.0,0.0,78.0,2.0,78.0,195.0,156.0,117.0,39.0,234.0,yellow,square
0.0,4.0,4.0,0.0,7.0,6.0,0.293099999908,2.0,1.0,part_3,go,0.0,0.0,0.0,34.0,1.0,170.0,102.0,68.0,136.0,204.0,34.0,magenta,triangle
0.0,5.0,1.0,1.0,7.0,2.0,339.3880590001572,2.0,1.0,part_3,go,0.0,0.0,0.0,132.0,3.0,44.0,132.0,176.0,220.0,264.0,88.0,blue,diamond
0.0,3.0,3.0,0.0,7.0,4.0,339.8601640001288,2.0,1.0,part_3,go,0.0,0.0,0.0,117.0,3.0,39.0,156.0,234.0,117.0,195.0,78.0,gray,circle
0.0,1.0,1.0,0.0,7.0,5.0,487.8917879996152,2.0,1.0,part_3,go,0.0,0.0,0.0,245.0,5.0,147.0,294.0,98.0,196.0,245.0,49.0,white,I
0.0,8.0,4.0,1.0,7.0,2.0,288.9428199996473,2.0,1.0,part_3,go,0.0,0.0,0.0,170.0,5.0,102.0,170.0,204.0,136.0,34.0,68.0,cyan,cross
0.0,5.0,1.0,1.0,7.0,6.0,387.9579639997246,2.0,1.0,part_3,go,0.0,0.0,0.0,324.0,6.0,54.0,270.0,108.0,162.0,216.0,324.0,blue,diamond
0.0,4.0,4.0,0.0,7.0,5.0,314.0381909997813,2.0,1.0,part_3,go,0.0,0.0,0.0,147.0,3.0,196.0,98.0,49.0,294.0,147.0,245.0,magenta,triangle
0.0,1.0,1.0,0.0,7.0,3.0,419.5943340000667,2.0,1.0,part_3,go,0.0,0.0,0.0,162.0,3.0,324.0,108.0,162.0,270.0,216.0,54.0,white,I
0.0,2.0,2.0,0.0,7.0,3.0,424.9749250002423,2.0,1.0,part_3,go,0.0,0.0,0.0,294.0,6.0,196.0,245.0,294.0,98.0,147.0,49.0,yellow,square
0.0,7.0,3.0,1.0,7.0,3.0,556.9516269997621,2.0,1.0,part_3,go,0.0,0.0,0.0,34.0,1.0,204.0,170.0,34.0,68.0,136.0,102.0,green,flipped triangle
0.0,5.0,1.0,1.0,7.0,4.0,415.3193479996844,2.0,1.0,part_3,go,0.0,0.0,0.0,117.0,3.0,156.0,195.0,39.0,117.0,234.0,78.0,blue,diamond
0.0,8.0,4.0,1.0,7.0,2.0,872.1293689995946,3.0,1.0,part_3,go,0.0,0.0,0.0,204.0,6.0,68.0,204.0,136.0,102.0,34.0,170.0,cyan,cross
0.0,1.0,1.0,0.0,7.0,1.0,400.9243960008462,3.0,1.0,part_3,go,0.0,0.0,0.0,204.0,6.0,204.0,102.0,34.0,136.0,68.0,170.0,white,I
0.0,7.0,3.0,1.0,7.0,2.0,250.72976699993887,3.0,1.0,part_3,go,0.0,0.0,0.0,195.0,5.0,78.0,195.0,39.0,156.0,117.0,234.0,green,flipped triangle
0.0,3.0,3.0,0.0,7.0,3.0,411.6848069998013,3.0,1.0,part_3,go,0.0,0.0,0.0,220.0,5.0,44.0,88.0,220.0,264.0,176.0,132.0,gray,circle
0.0,6.0,2.0,1.0,7.0,4.0,224.4570689999818,3.0,1.0,part_3,go,0.0,0.0,0.0,44.0,1.0,88.0,220.0,132.0,44.0,176.0,264.0,orange,hexagon
0.0,7.0,3.0,1.0,7.0,5.0,333.5095499996896,3.0,1.0,part_3,go,0.0,0.0,0.0,270.0,5.0,54.0,162.0,108.0,324.0,270.0,216.0,green,flipped triangle
0.0,6.0,2.0,1.0,7.0,5.0,462.7443019999191,3.0,1.0,part_3,go,0.0,0.0,0.0,49.0,1.0,294.0,98.0,196.0,245.0,49.0,147.0,orange,hexagon
0.0,3.0,3.0,0.0,7.0,3.0,456.2412400000539,3.0,1.0,part_3,go,0.0,0.0,0.0,49.0,1.0,98.0,147.0,49.0,294.0,245.0,196.0,gray,circle
0.0,4.0,4.0,0.0,7.0,1.0,493.6063759996614,3.0,1.0,part_3,go,0.0,0.0,0.0,294.0,6.0,294.0,98.0,245.0,49.0,147.0,196.0,magenta,triangle
0.0,7.0,3.0,1.0,7.0,2.0,274.1737579999608,3.0,1.0,part_3,go,0.0,0.0,0.0,220.0,5.0,132.0,220.0,264.0,44.0,176.0,88.0,green,flipped triangle
0.0,3.0,3.0,0.0,7.0,5.0,466.3787549998233,3.0,1.0,part_3,go,0.0,0.0,0.0,108.0,2.0,270.0,216.0,324.0,162.0,108.0,54.0,gray,circle
0.0,4.0,4.0,0.0,7.0,2.0,320.7770540002457,3.0,1.0,part_3,go,0.0,0.0,0.0,234.0,6.0,117.0,234.0,39.0,78.0,195.0,156.0,magenta,triangle
0.0,1.0,1.0,0.0,7.0,3.0,563.777661000131,3.0,1.0,part_3,go,0.0,0.0,0.0,136.0,4.0,34.0,102.0,136.0,204.0,170.0,68.0,white,I
0.0,6.0,2.0,1.0,7.0,1.0,489.4289490002848,3.0,1.0,part_3,go,0.0,0.0,0.0,102.0,3.0,102.0,34.0,68.0,136.0,170.0,204.0,orange,hexagon
0.0,6.0,2.0,1.0,7.0,4.0,676.5293329999622,3.0,1.0,part_3,go,0.0,0.0,0.0,117.0,3.0,156.0,39.0,195.0,117.0,78.0,234.0,orange,hexagon
0.0,5.0,1.0,1.0,7.0,4.0,182.4896330008414,3.0,1.0,part_3,go,0.0,0.0,0.0,245.0,5.0,196.0,98.0,294.0,245.0,49.0,147.0,blue,diamond
0.0,3.0,3.0,0.0,7.0,5.0,0.2682730000742,3.0,1.0,part_3,go,0.0,0.0,0.0,34.0,1.0,102.0,68.0,204.0,136.0,34.0,170.0,gray,circle
0.0,2.0,2.0,0.0,7.0,1.0,834.071679999397,3.0,1.0,part_3,go,0.0,0.0,0.0,88.0,2.0,88.0,264.0,132.0,176.0,44.0,220.0,yellow,square
0.0,7.0,3.0,1.0,7.0,2.0,428.0197899997802,3.0,1.0,part_3,go,0.0,0.0,0.0,156.0,4.0,234.0,156.0,78.0,39.0,117.0,195.0,green,flipped triangle
0.0,2.0,2.0,0.0,7.0,4.0,418.6245389992109,3.0,1.0,part_3,go,0.0,0.0,0.0,98.0,2.0,147.0,49.0,294.0,98.0,245.0,196.0,yellow,square
0.0,5.0,1.0,1.0,7.0,4.0,320.4920090001906,4.0,1.0,part_3,go,0.0,0.0,0.0,264.0,6.0,176.0,44.0,88.0,264.0,132.0,220.0,blue,diamond
0.0,6.0,2.0,1.0,7.0,2.0,301.4170529995681,4.0,1.0,part_3,go,0.0,0.0,0.0,44.0,1.0,176.0,44.0,88.0,220.0,132.0,264.0,orange,hexagon
0.0,7.0,3.0,1.0,7.0,1.0,340.9338390001721,4.0,1.0,part_3,go,0.0,0.0,0.0,294.0,6.0,294.0,98.0,196.0,147.0,49.0,245.0,green,flipped triangle
0.0,8.0,4.0,1.0,7.0,4.0,557.6262159993348,4.0,1.0,part_3,go,0.0,0.0,0.0,162.0,3.0,270.0,108.0,54.0,162.0,324.0,216.0,cyan,cross
0.0,8.0,4.0,1.0,7.0,5.0,1555.2476699995168,4.0,1.0,part_3,go,0.0,0.0,0.0,324.0,6.0,54.0,162.0,216.0,108.0,324.0,270.0,cyan,cross
0.0,2.0,2.0,0.0,7.0,4.0,1494.315290000486,4.0,1.0,part_3,go,0.0,0.0,0.0,324.0,6.0,270.0,162.0,54.0,324.0,108.0,216.0,yellow,square
0.0,8.0,4.0,1.0,7.0,1.0,1806.449435000104,4.0,1.0,part_3,go,0.0,0.0,0.0,264.0,6.0,264.0,176.0,44.0,132.0,220.0,88.0,cyan,cross
0.0,6.0,2.0,1.0,7.0,1.0,1421.5636999997514,4.0,1.0,part_3,go,0.0,0.0,0.0,102.0,3.0,102.0,204.0,68.0,170.0,136.0,34.0,orange,hexagon
0.0,2.0,2.0,0.0,7.0,2.0,730.3376170002593,4.0,1.0,part_3,go,0.0,0.0,0.0,162.0,3.0,108.0,162.0,54.0,270.0,216.0,324.0,yellow,square
0.0,1.0,1.0,0.0,7.0,6.0,524.991909000164,4.0,1.0,part_3,go,0.0,0.0,0.0,324.0,6.0,270.0,216.0,162.0,54.0,108.0,324.0,white,I
0.0,3.0,3.0,0.0,7.0,2.0,788.9982099995905,4.0,1.0,part_3,go,0.0,0.0,0.0,294.0,6.0,49.0,294.0,196.0,147.0,98.0,245.0,gray,circle
0.0,6.0,2.0,1.0,7.0,2.0,977.1873179997784,4.0,1.0,part_3,go,0.0,0.0,0.0,147.0,3.0,294.0,147.0,245.0,98.0,49.0,196.0,orange,hexagon
0.0,1.0,1.0,0.0,7.0,3.0,968.0587180000656,4.0,1.0,part_3,go,0.0,0.0,0.0,220.0,5.0,264.0,88.0,220.0,132.0,44.0,176.0,white,I
0.0,5.0,1.0,1.0,7.0,1.0,1594.8747190004724,4.0,1.0,part_3,go,0.0,0.0,0.0,204.0,6.0,204.0,136.0,68.0,102.0,34.0,170.0,blue,diamond
0.0,1.0,1.0,0.0,7.0,2.0,1228.3211410003787,4.0,1.0,part_3,go,0.0,0.0,0.0,234.0,6.0,195.0,234.0,117.0,78.0,156.0,39.0,white,I
0.0,2.0,2.0,0.0,7.0,3.0,1273.879358999693,4.0,1.0,part_3,go,0.0,0.0,0.0,220.0,5.0,176.0,88.0,220.0,44.0,264.0,132.0,yellow,square
0.0,8.0,4.0,1.0,7.0,1.0,1505.8227339995938,4.0,1.0,part_3,go,0.0,0.0,0.0,234.0,6.0,234.0,156.0,117.0,195.0,39.0,78.0,cyan,cross
0.0,1.0,1.0,0.0,7.0,3.0,1807.5844669992875,4.0,1.0,part_3,go,0.0,0.0,0.0,264.0,6.0,176.0,220.0,264.0,88.0,44.0,132.0,white,I
0.0,5.0,1.0,1.0,7.0,5.0,1503.4037559998978,4.0,1.0,part_3,go,0.0,0.0,0.0,234.0,6.0,195.0,78.0,39.0,117.0,234.0,156.0,blue,diamond
0.0,4.0,4.0,0.0,7.0,1.0,1194.4836340007896,4.0,1.0,part_3,go,0.0,0.0,0.0,204.0,6.0,204.0,34.0,102.0,68.0,136.0,170.0,magenta,triangle
