raw_reward_magnitude,stim_reward,stepwise_reward_magnitude,paired_with_stopping,stim_location,response,reaction_time,block,num_trial_presentations,which_phase,stop_signal_trial_type,left_SSD,right_SSD,accuracy,chosen_bidding_amount,chosen_bidding_level,possible_bid_1,possible_bid_2,possible_bid_3,possible_bid_4,possible_bid_5,possible_bid_6,color_text,shape_text
176.0,3.0,2.0,0.0,2.0,2.0,358.247750999908,1.0,1.0,phase_1,,,,,,,,,,,,,green,cross
222.0,7.0,2.0,1.0,3.0,3.0,321.0823619999701,1.0,1.0,phase_1,,,,,,,,,,,,,blue,diamond
109.0,2.0,1.0,0.0,1.0,1.0,341.3562870000532,1.0,1.0,phase_1,,,,,,,,,,,,,magenta,triangle
40.0,1.0,0.5,0.0,4.0,4.0,319.6129420000488,1.0,1.0,phase_1,,,,,,,,,,,,,orange,circle
0.0,6.0,0.0,1.0,1.0,1.0,348.8027089999832,1.0,1.0,phase_1,,,,,,,,,,,,,cyan,flipped triangle
0.0,4.0,0.0,0.0,1.0,1.0,324.5227619997877,1.0,1.0,phase_1,,,,,,,,,,,,,white,hexagon
72.0,1.0,0.5,0.0,2.0,2.0,460.3245250000327,1.0,1.0,phase_1,,,,,,,,,,,,,orange,circle
60.0,1.0,0.5,0.0,1.0,1.0,317.3942349999379,1.0,1.0,phase_1,,,,,,,,,,,,,orange,circle
179.0,7.0,2.0,1.0,1.0,1.0,305.289779000077,1.0,1.0,phase_1,,,,,,,,,,,,,blue,diamond
51.0,5.0,0.5,1.0,4.0,4.0,341.0369939999782,1.0,1.0,phase_1,,,,,,,,,,,,,yellow,I
110.0,6.0,1.0,1.0,3.0,3.0,277.7640200001769,1.0,1.0,phase_1,,,,,,,,,,,,,cyan,flipped triangle
67.0,1.0,0.5,0.0,2.0,2.0,268.3937599999808,1.0,1.0,phase_1,,,,,,,,,,,,,orange,circle
86.0,2.0,1.0,0.0,4.0,4.0,426.0229070000605,1.0,1.0,phase_1,,,,,,,,,,,,,magenta,triangle
114.0,2.0,1.0,0.0,2.0,2.0,282.6650490001157,1.0,1.0,phase_1,,,,,,,,,,,,,magenta,triangle
49.0,1.0,0.5,0.0,2.0,2.0,346.6523780000443,1.0,1.0,phase_1,,,,,,,,,,,,,orange,circle
102.0,6.0,1.0,1.0,4.0,4.0,341.8367599999783,1.0,1.0,phase_1,,,,,,,,,,,,,cyan,flipped triangle
70.0,5.0,0.5,1.0,4.0,4.0,350.8217639998747,1.0,1.0,phase_1,,,,,,,,,,,,,yellow,I
103.0,6.0,1.0,1.0,4.0,4.0,330.4058900000655,1.0,1.0,phase_1,,,,,,,,,,,,,cyan,flipped triangle
401.0,8.0,4.0,1.0,3.0,3.0,360.3211120000651,1.0,1.0,phase_1,,,,,,,,,,,,,gray,square
117.0,6.0,1.0,1.0,1.0,1.0,288.7324380001246,1.0,1.0,phase_1,,,,,,,,,,,,,cyan,flipped triangle
410.0,4.0,4.0,0.0,3.0,3.0,358.2365900001605,1.0,1.0,phase_1,,,,,,,,,,,,,white,hexagon
35.0,5.0,0.5,1.0,1.0,1.0,351.1827659999653,1.0,1.0,phase_1,,,,,,,,,,,,,yellow,I
205.0,7.0,2.0,1.0,2.0,2.0,321.0750089999692,1.0,1.0,phase_1,,,,,,,,,,,,,blue,diamond
219.0,7.0,2.0,1.0,1.0,1.0,334.2557070000111,1.0,1.0,phase_1,,,,,,,,,,,,,blue,diamond
44.0,5.0,0.5,1.0,1.0,1.0,339.0019650000795,1.0,1.0,phase_1,,,,,,,,,,,,,yellow,I
194.0,7.0,2.0,1.0,3.0,3.0,380.5732240000452,1.0,1.0,phase_1,,,,,,,,,,,,,blue,diamond
78.0,6.0,1.0,1.0,3.0,3.0,323.658350000187,1.0,1.0,phase_1,,,,,,,,,,,,,cyan,flipped triangle
379.0,8.0,4.0,1.0,1.0,1.0,347.4653030000354,1.0,1.0,phase_1,,,,,,,,,,,,,gray,square
116.0,6.0,1.0,1.0,1.0,1.0,397.1753859998443,1.0,1.0,phase_1,,,,,,,,,,,,,cyan,flipped triangle
424.0,4.0,4.0,0.0,4.0,4.0,314.8896810000678,1.0,1.0,phase_1,,,,,,,,,,,,,white,hexagon
103.0,2.0,1.0,0.0,2.0,2.0,366.1260499998207,1.0,1.0,phase_1,,,,,,,,,,,,,magenta,triangle
110.0,2.0,1.0,0.0,2.0,2.0,407.3730059999434,1.0,1.0,phase_1,,,,,,,,,,,,,magenta,triangle
60.0,5.0,0.5,1.0,3.0,3.0,391.3379299999633,1.0,1.0,phase_1,,,,,,,,,,,,,yellow,I
0.0,5.0,0.0,1.0,3.0,3.0,366.7015419998733,1.0,2.0,phase_1,,,,,,,,,,,,,yellow,I
224.0,7.0,2.0,1.0,4.0,4.0,434.4024770000487,1.0,1.0,phase_1,,,,,,,,,,,,,blue,diamond
401.0,4.0,4.0,0.0,3.0,3.0,325.2914800000326,1.0,1.0,phase_1,,,,,,,,,,,,,white,hexagon
388.0,4.0,4.0,0.0,2.0,2.0,334.5962569999301,1.0,1.0,phase_1,,,,,,,,,,,,,white,hexagon
398.0,4.0,4.0,0.0,4.0,4.0,414.7088340000664,1.0,1.0,phase_1,,,,,,,,,,,,,white,hexagon
388.0,8.0,4.0,1.0,1.0,1.0,400.8622589999504,1.0,1.0,phase_1,,,,,,,,,,,,,gray,square
82.0,2.0,1.0,0.0,2.0,2.0,398.1652289999147,1.0,1.0,phase_1,,,,,,,,,,,,,magenta,triangle
378.0,8.0,4.0,1.0,3.0,3.0,407.6046269999551,1.0,1.0,phase_1,,,,,,,,,,,,,gray,square
382.0,8.0,4.0,1.0,2.0,2.0,423.165680000011,1.0,1.0,phase_1,,,,,,,,,,,,,gray,square
176.0,3.0,2.0,0.0,3.0,3.0,348.5964300000432,1.0,1.0,phase_1,,,,,,,,,,,,,green,cross
0.0,5.0,0.0,1.0,2.0,2.0,401.8604479999794,1.0,1.0,phase_1,,,,,,,,,,,,,yellow,I
213.0,7.0,2.0,1.0,4.0,4.0,333.1308940000781,1.0,1.0,phase_1,,,,,,,,,,,,,blue,diamond
64.0,5.0,0.5,1.0,4.0,4.0,528.0733029999283,1.0,1.0,phase_1,,,,,,,,,,,,,yellow,I
0.0,2.0,0.0,0.0,1.0,1.0,404.9952299999404,1.0,1.0,phase_1,,,,,,,,,,,,,magenta,triangle
223.0,3.0,2.0,0.0,3.0,3.0,323.7549880000188,1.0,1.0,phase_1,,,,,,,,,,,,,green,cross
0.0,4.0,0.0,0.0,3.0,3.0,400.8717180001895,1.0,1.0,phase_1,,,,,,,,,,,,,white,hexagon
0.0,5.0,0.0,1.0,2.0,2.0,414.2493669999112,1.0,1.0,phase_1,,,,,,,,,,,,,yellow,I
0.0,7.0,0.0,1.0,1.0,1.0,541.4596279999841,1.0,1.0,phase_1,,,,,,,,,,,,,blue,diamond
0.0,5.0,0.0,1.0,1.0,1.0,602.7823330000501,1.0,1.0,phase_1,,,,,,,,,,,,,yellow,I
60.0,1.0,0.5,0.0,4.0,4.0,424.6535720001247,1.0,1.0,phase_1,,,,,,,,,,,,,orange,circle
381.0,4.0,4.0,0.0,3.0,3.0,460.665525999957,1.0,1.0,phase_1,,,,,,,,,,,,,white,hexagon
76.0,6.0,1.0,1.0,1.0,1.0,502.704322999989,1.0,1.0,phase_1,,,,,,,,,,,,,cyan,flipped triangle
82.0,6.0,1.0,1.0,1.0,1.0,387.2945020000315,1.0,1.0,phase_1,,,,,,,,,,,,,cyan,flipped triangle
222.0,7.0,2.0,1.0,3.0,3.0,370.1824379998015,1.0,1.0,phase_1,,,,,,,,,,,,,blue,diamond
52.0,5.0,0.5,1.0,1.0,1.0,454.7688269999526,1.0,1.0,phase_1,,,,,,,,,,,,,yellow,I
0.0,6.0,0.0,1.0,4.0,4.0,352.4004690000311,1.0,1.0,phase_1,,,,,,,,,,,,,cyan,flipped triangle
0.0,7.0,0.0,1.0,4.0,4.0,478.233758999977,1.0,1.0,phase_1,,,,,,,,,,,,,blue,diamond
223.0,7.0,2.0,1.0,1.0,1.0,380.8127329998569,1.0,1.0,phase_1,,,,,,,,,,,,,blue,diamond
50.0,1.0,0.5,0.0,1.0,1.0,533.5778280000341,1.0,1.0,phase_1,,,,,,,,,,,,,orange,circle
388.0,8.0,4.0,1.0,1.0,1.0,437.9988050000065,1.0,1.0,phase_1,,,,,,,,,,,,,gray,square
381.0,8.0,4.0,1.0,1.0,1.0,392.4440000000686,1.0,1.0,phase_1,,,,,,,,,,,,,gray,square
0.0,8.0,0.0,1.0,3.0,3.0,345.6373900000926,1.0,1.0,phase_1,,,,,,,,,,,,,gray,square
407.0,4.0,4.0,0.0,3.0,3.0,337.2777289998794,1.0,1.0,phase_1,,,,,,,,,,,,,white,hexagon
65.0,1.0,0.5,0.0,1.0,1.0,332.4968650001665,1.0,1.0,phase_1,,,,,,,,,,,,,orange,circle
108.0,6.0,1.0,1.0,3.0,3.0,352.6131459998396,1.0,1.0,phase_1,,,,,,,,,,,,,cyan,flipped triangle
217.0,7.0,2.0,1.0,4.0,4.0,296.654996999905,1.0,1.0,phase_1,,,,,,,,,,,,,blue,diamond
406.0,8.0,4.0,1.0,2.0,2.0,272.1722950000185,1.0,1.0,phase_1,,,,,,,,,,,,,gray,square
195.0,7.0,2.0,1.0,2.0,2.0,300.2652279999438,1.0,1.0,phase_1,,,,,,,,,,,,,blue,diamond
206.0,3.0,2.0,0.0,1.0,1.0,320.5801629999314,1.0,1.0,phase_1,,,,,,,,,,,,,green,cross
402.0,4.0,4.0,0.0,2.0,2.0,405.7230979999531,1.0,1.0,phase_1,,,,,,,,,,,,,white,hexagon
33.0,1.0,0.5,0.0,2.0,2.0,346.6072999999596,1.0,1.0,phase_1,,,,,,,,,,,,,orange,circle
0.0,4.0,0.0,0.0,4.0,4.0,444.4121569999879,1.0,1.0,phase_1,,,,,,,,,,,,,white,hexagon
78.0,6.0,1.0,1.0,3.0,3.0,498.6646309998832,1.0,1.0,phase_1,,,,,,,,,,,,,cyan,flipped triangle
185.0,3.0,2.0,0.0,2.0,2.0,497.7187049998974,1.0,1.0,phase_1,,,,,,,,,,,,,green,cross
208.0,3.0,2.0,0.0,4.0,4.0,393.6746159999984,1.0,1.0,phase_1,,,,,,,,,,,,,green,cross
32.0,5.0,0.5,1.0,3.0,3.0,399.9728679998497,1.0,1.0,phase_1,,,,,,,,,,,,,yellow,I
75.0,1.0,0.5,0.0,2.0,2.0,443.1952090001232,1.0,1.0,phase_1,,,,,,,,,,,,,orange,circle
0.0,5.0,0.0,1.0,1.0,1.0,473.3414159998119,1.0,1.0,phase_1,,,,,,,,,,,,,yellow,I
195.0,3.0,2.0,0.0,2.0,2.0,372.5126120000368,1.0,1.0,phase_1,,,,,,,,,,,,,green,cross
408.0,8.0,4.0,1.0,3.0,3.0,452.1593950000806,1.0,1.0,phase_1,,,,,,,,,,,,,gray,square
415.0,4.0,4.0,0.0,1.0,1.0,444.7501469999224,1.0,1.0,phase_1,,,,,,,,,,,,,white,hexagon
219.0,3.0,2.0,0.0,4.0,4.0,380.4531409998617,1.0,1.0,phase_1,,,,,,,,,,,,,green,cross
390.0,4.0,4.0,0.0,4.0,4.0,431.5338439998868,1.0,1.0,phase_1,,,,,,,,,,,,,white,hexagon
64.0,1.0,0.5,0.0,2.0,2.0,626.6763010000886,1.0,1.0,phase_1,,,,,,,,,,,,,orange,circle
0.0,6.0,0.0,1.0,1.0,1.0,493.1412449998333,1.0,1.0,phase_1,,,,,,,,,,,,,cyan,flipped triangle
222.0,3.0,2.0,0.0,4.0,4.0,432.6069950000146,1.0,2.0,phase_1,,,,,,,,,,,,,green,cross
94.0,2.0,1.0,0.0,3.0,3.0,701.7616430000544,1.0,1.0,phase_1,,,,,,,,,,,,,magenta,triangle
106.0,2.0,1.0,0.0,1.0,1.0,561.4746300000206,1.0,2.0,phase_1,,,,,,,,,,,,,magenta,triangle
411.0,8.0,4.0,1.0,2.0,2.0,476.3861399999314,1.0,1.0,phase_1,,,,,,,,,,,,,gray,square
419.0,4.0,4.0,0.0,3.0,3.0,487.2971509998933,1.0,1.0,phase_1,,,,,,,,,,,,,white,hexagon
37.0,1.0,0.5,0.0,4.0,4.0,367.3684080001749,1.0,1.0,phase_1,,,,,,,,,,,,,orange,circle
195.0,3.0,2.0,0.0,3.0,3.0,432.5537750000876,1.0,1.0,phase_1,,,,,,,,,,,,,green,cross
384.0,4.0,4.0,0.0,4.0,4.0,440.9421570001086,1.0,1.0,phase_1,,,,,,,,,,,,,white,hexagon
178.0,3.0,2.0,0.0,1.0,1.0,429.3679390000307,1.0,1.0,phase_1,,,,,,,,,,,,,green,cross
379.0,4.0,4.0,0.0,3.0,3.0,403.4476230001473,1.0,1.0,phase_1,,,,,,,,,,,,,white,hexagon
56.0,1.0,0.5,0.0,1.0,1.0,429.0153869999358,1.0,1.0,phase_1,,,,,,,,,,,,,orange,circle
106.0,6.0,1.0,1.0,3.0,3.0,407.111820000182,1.0,1.0,phase_1,,,,,,,,,,,,,cyan,flipped triangle
0.0,8.0,0.0,1.0,2.0,2.0,445.3097170001001,2.0,1.0,phase_1,,,,,,,,,,,,,gray,square
75.0,5.0,0.5,1.0,4.0,4.0,333.5598199998912,2.0,1.0,phase_1,,,,,,,,,,,,,yellow,I
83.0,2.0,1.0,0.0,1.0,1.0,301.5693570000621,2.0,1.0,phase_1,,,,,,,,,,,,,magenta,triangle
51.0,1.0,0.5,0.0,3.0,3.0,292.6904329999615,2.0,1.0,phase_1,,,,,,,,,,,,,orange,circle
192.0,7.0,2.0,1.0,2.0,2.0,349.4742510001742,2.0,1.0,phase_1,,,,,,,,,,,,,blue,diamond
52.0,1.0,0.5,0.0,3.0,3.0,315.2253250000285,2.0,1.0,phase_1,,,,,,,,,,,,,orange,circle
50.0,5.0,0.5,1.0,1.0,1.0,339.3192000000908,2.0,1.0,phase_1,,,,,,,,,,,,,yellow,I
224.0,3.0,2.0,0.0,4.0,4.0,342.1732589999919,2.0,1.0,phase_1,,,,,,,,,,,,,green,cross
82.0,2.0,1.0,0.0,1.0,1.0,317.072792999852,2.0,1.0,phase_1,,,,,,,,,,,,,magenta,triangle
214.0,3.0,2.0,0.0,1.0,1.0,313.5926429999927,2.0,1.0,phase_1,,,,,,,,,,,,,green,cross
412.0,8.0,4.0,1.0,4.0,4.0,365.0133999999525,2.0,1.0,phase_1,,,,,,,,,,,,,gray,square
59.0,1.0,0.5,0.0,1.0,1.0,328.5325740000644,2.0,1.0,phase_1,,,,,,,,,,,,,orange,circle
27.0,5.0,0.5,1.0,2.0,2.0,331.6277830001581,2.0,1.0,phase_1,,,,,,,,,,,,,yellow,I
0.0,7.0,0.0,1.0,3.0,3.0,280.1109009999436,2.0,1.0,phase_1,,,,,,,,,,,,,blue,diamond
65.0,5.0,0.5,1.0,4.0,4.0,401.9747939998979,2.0,1.0,phase_1,,,,,,,,,,,,,yellow,I
208.0,7.0,2.0,1.0,3.0,3.0,375.7366519998868,2.0,1.0,phase_1,,,,,,,,,,,,,blue,diamond
0.0,2.0,0.0,0.0,2.0,2.0,414.6675009999399,2.0,1.0,phase_1,,,,,,,,,,,,,magenta,triangle
123.0,6.0,1.0,1.0,1.0,1.0,317.3704299999826,2.0,1.0,phase_1,,,,,,,,,,,,,cyan,flipped triangle
94.0,6.0,1.0,1.0,4.0,4.0,301.1493110000174,2.0,1.0,phase_1,,,,,,,,,,,,,cyan,flipped triangle
195.0,7.0,2.0,1.0,3.0,3.0,376.8632460000845,2.0,1.0,phase_1,,,,,,,,,,,,,blue,diamond
98.0,2.0,1.0,0.0,4.0,4.0,362.8045230000225,2.0,1.0,phase_1,,,,,,,,,,,,,magenta,triangle
113.0,2.0,1.0,0.0,4.0,4.0,419.2322339999919,2.0,1.0,phase_1,,,,,,,,,,,,,magenta,triangle
82.0,6.0,1.0,1.0,3.0,3.0,343.3865479998985,2.0,1.0,phase_1,,,,,,,,,,,,,cyan,flipped triangle
49.0,5.0,0.5,1.0,1.0,1.0,310.3730559998894,2.0,1.0,phase_1,,,,,,,,,,,,,yellow,I
421.0,4.0,4.0,0.0,2.0,2.0,473.649160999912,2.0,1.0,phase_1,,,,,,,,,,,,,white,hexagon
123.0,6.0,1.0,1.0,3.0,3.0,321.9291159998647,2.0,1.0,phase_1,,,,,,,,,,,,,cyan,flipped triangle
64.0,1.0,0.5,0.0,3.0,3.0,519.8457359999793,2.0,1.0,phase_1,,,,,,,,,,,,,orange,circle
222.0,7.0,2.0,1.0,4.0,4.0,346.1085120000007,2.0,1.0,phase_1,,,,,,,,,,,,,blue,diamond
396.0,4.0,4.0,0.0,3.0,3.0,340.3101619999233,2.0,1.0,phase_1,,,,,,,,,,,,,white,hexagon
0.0,4.0,0.0,0.0,3.0,3.0,326.7388470001151,2.0,1.0,phase_1,,,,,,,,,,,,,white,hexagon
217.0,3.0,2.0,0.0,1.0,1.0,326.040126999942,2.0,1.0,phase_1,,,,,,,,,,,,,green,cross
39.0,1.0,0.5,0.0,3.0,3.0,327.1103679999214,2.0,1.0,phase_1,,,,,,,,,,,,,orange,circle
72.0,5.0,0.5,1.0,3.0,3.0,326.4682139999877,2.0,1.0,phase_1,,,,,,,,,,,,,yellow,I
88.0,2.0,1.0,0.0,2.0,2.0,247.2403130000202,2.0,1.0,phase_1,,,,,,,,,,,,,magenta,triangle
36.0,5.0,0.5,1.0,2.0,2.0,316.5433839999423,2.0,1.0,phase_1,,,,,,,,,,,,,yellow,I
101.0,2.0,1.0,0.0,3.0,3.0,358.5060499999599,2.0,1.0,phase_1,,,,,,,,,,,,,magenta,triangle
119.0,2.0,1.0,0.0,3.0,3.0,318.791942999951,2.0,1.0,phase_1,,,,,,,,,,,,,magenta,triangle
197.0,7.0,2.0,1.0,1.0,1.0,340.1319229999444,2.0,1.0,phase_1,,,,,,,,,,,,,blue,diamond
60.0,5.0,0.5,1.0,1.0,1.0,381.9828670000333,2.0,1.0,phase_1,,,,,,,,,,,,,yellow,I
120.0,6.0,1.0,1.0,4.0,4.0,686.3603320000493,2.0,1.0,phase_1,,,,,,,,,,,,,cyan,flipped triangle
180.0,3.0,2.0,0.0,4.0,4.0,393.3822490000693,2.0,1.0,phase_1,,,,,,,,,,,,,green,cross
403.0,8.0,4.0,1.0,1.0,1.0,433.9724179999393,2.0,1.0,phase_1,,,,,,,,,,,,,gray,square
402.0,8.0,4.0,1.0,4.0,4.0,600.5430029999843,2.0,1.0,phase_1,,,,,,,,,,,,,gray,square
181.0,7.0,2.0,1.0,4.0,4.0,584.1377310000553,2.0,1.0,phase_1,,,,,,,,,,,,,blue,diamond
0.0,4.0,0.0,0.0,2.0,2.0,350.4142819999742,2.0,1.0,phase_1,,,,,,,,,,,,,white,hexagon
0.0,1.0,0.0,0.0,4.0,4.0,631.390533000058,2.0,1.0,phase_1,,,,,,,,,,,,,orange,circle
56.0,5.0,0.5,1.0,2.0,2.0,531.683282999893,2.0,1.0,phase_1,,,,,,,,,,,,,yellow,I
82.0,2.0,1.0,0.0,2.0,2.0,388.0915189999996,2.0,1.0,phase_1,,,,,,,,,,,,,magenta,triangle
121.0,2.0,1.0,0.0,3.0,3.0,421.680115999834,2.0,1.0,phase_1,,,,,,,,,,,,,magenta,triangle
0.0,5.0,0.0,1.0,1.0,1.0,460.922913999866,2.0,1.0,phase_1,,,,,,,,,,,,,yellow,I
37.0,5.0,0.5,1.0,2.0,2.0,351.9952250001097,2.0,1.0,phase_1,,,,,,,,,,,,,yellow,I
46.0,5.0,0.5,1.0,3.0,3.0,791.2230430001728,2.0,1.0,phase_1,,,,,,,,,,,,,yellow,I
84.0,2.0,1.0,0.0,1.0,1.0,386.8845869999404,2.0,1.0,phase_1,,,,,,,,,,,,,magenta,triangle
0.0,7.0,0.0,1.0,4.0,4.0,369.6021570001448,2.0,1.0,phase_1,,,,,,,,,,,,,blue,diamond
0.0,3.0,0.0,0.0,2.0,2.0,273.1048900000132,2.0,1.0,phase_1,,,,,,,,,,,,,green,cross
103.0,6.0,1.0,1.0,4.0,4.0,307.6241010001013,2.0,1.0,phase_1,,,,,,,,,,,,,cyan,flipped triangle
108.0,2.0,1.0,0.0,4.0,4.0,396.6688250000061,2.0,1.0,phase_1,,,,,,,,,,,,,magenta,triangle
0.0,6.0,0.0,1.0,1.0,1.0,415.2512310001839,2.0,1.0,phase_1,,,,,,,,,,,,,cyan,flipped triangle
0.0,2.0,0.0,0.0,1.0,1.0,508.44027199991615,2.0,1.0,phase_1,,,,,,,,,,,,,magenta,triangle
113.0,6.0,1.0,1.0,1.0,1.0,307.9924829999072,2.0,1.0,phase_1,,,,,,,,,,,,,cyan,flipped triangle
44.0,1.0,0.5,0.0,1.0,1.0,496.2742709999475,2.0,1.0,phase_1,,,,,,,,,,,,,orange,circle
0.0,1.0,0.0,0.0,4.0,4.0,389.5818820001295,2.0,1.0,phase_1,,,,,,,,,,,,,orange,circle
0.0,8.0,0.0,1.0,2.0,2.0,628.9635030000227,2.0,1.0,phase_1,,,,,,,,,,,,,gray,square
0.0,1.0,0.0,0.0,1.0,1.0,365.4843530000562,2.0,1.0,phase_1,,,,,,,,,,,,,orange,circle
0.0,6.0,0.0,1.0,3.0,3.0,266.8204240001159,2.0,1.0,phase_1,,,,,,,,,,,,,cyan,flipped triangle
0.0,1.0,0.0,0.0,4.0,4.0,531.4076350000505,2.0,1.0,phase_1,,,,,,,,,,,,,orange,circle
217.0,3.0,2.0,0.0,3.0,3.0,474.5943959999295,2.0,1.0,phase_1,,,,,,,,,,,,,green,cross
0.0,2.0,0.0,0.0,2.0,2.0,368.7919910000801,2.0,1.0,phase_1,,,,,,,,,,,,,magenta,triangle
79.0,6.0,1.0,1.0,3.0,3.0,562.4655680001069,2.0,1.0,phase_1,,,,,,,,,,,,,cyan,flipped triangle
0.0,8.0,0.0,1.0,4.0,4.0,482.6929559999371,2.0,1.0,phase_1,,,,,,,,,,,,,gray,square
424.0,4.0,4.0,0.0,2.0,2.0,649.5166520001021,2.0,1.0,phase_1,,,,,,,,,,,,,white,hexagon
97.0,6.0,1.0,1.0,4.0,4.0,460.5380749999312,2.0,1.0,phase_1,,,,,,,,,,,,,cyan,flipped triangle
378.0,8.0,4.0,1.0,4.0,4.0,366.8461469999329,2.0,1.0,phase_1,,,,,,,,,,,,,gray,square
380.0,4.0,4.0,0.0,2.0,2.0,359.912414000064,2.0,1.0,phase_1,,,,,,,,,,,,,white,hexagon
55.0,1.0,0.5,0.0,4.0,4.0,452.5147489998744,2.0,1.0,phase_1,,,,,,,,,,,,,orange,circle
191.0,7.0,2.0,1.0,3.0,3.0,443.9473620000171,2.0,1.0,phase_1,,,,,,,,,,,,,blue,diamond
407.0,4.0,4.0,0.0,1.0,1.0,434.4176469999183,2.0,1.0,phase_1,,,,,,,,,,,,,white,hexagon
180.0,7.0,2.0,1.0,2.0,2.0,382.4726860002556,2.0,1.0,phase_1,,,,,,,,,,,,,blue,diamond
33.0,5.0,0.5,1.0,1.0,1.0,415.851099000065,2.0,1.0,phase_1,,,,,,,,,,,,,yellow,I
114.0,6.0,1.0,1.0,2.0,2.0,444.2035850001957,2.0,1.0,phase_1,,,,,,,,,,,,,cyan,flipped triangle
379.0,8.0,4.0,1.0,2.0,2.0,436.1257199998363,2.0,1.0,phase_1,,,,,,,,,,,,,gray,square
214.0,7.0,2.0,1.0,2.0,2.0,419.6959490000154,2.0,1.0,phase_1,,,,,,,,,,,,,blue,diamond
0.0,5.0,0.0,1.0,4.0,4.0,344.4890949999717,2.0,1.0,phase_1,,,,,,,,,,,,,yellow,I
0.0,8.0,0.0,1.0,2.0,2.0,405.1493229999323,2.0,1.0,phase_1,,,,,,,,,,,,,gray,square
82.0,6.0,1.0,1.0,4.0,4.0,457.3043939999479,2.0,1.0,phase_1,,,,,,,,,,,,,cyan,flipped triangle
57.0,5.0,0.5,1.0,4.0,4.0,450.5858910001734,2.0,1.0,phase_1,,,,,,,,,,,,,yellow,I
0.0,2.0,0.0,0.0,2.0,2.0,439.8487499997827,2.0,1.0,phase_1,,,,,,,,,,,,,magenta,triangle
0.0,5.0,0.0,1.0,3.0,3.0,267.3341739996431,2.0,1.0,phase_1,,,,,,,,,,,,,yellow,I
0.0,6.0,0.0,1.0,4.0,4.0,508.97131299961984,2.0,1.0,phase_1,,,,,,,,,,,,,cyan,flipped triangle
75.0,5.0,0.5,1.0,4.0,4.0,336.4989759998025,2.0,1.0,phase_1,,,,,,,,,,,,,yellow,I
109.0,6.0,1.0,1.0,1.0,1.0,342.4709790001543,2.0,1.0,phase_1,,,,,,,,,,,,,cyan,flipped triangle
123.0,6.0,1.0,1.0,3.0,3.0,310.4531750000205,2.0,1.0,phase_1,,,,,,,,,,,,,cyan,flipped triangle
382.0,4.0,4.0,0.0,3.0,3.0,290.8097200001975,2.0,1.0,phase_1,,,,,,,,,,,,,white,hexagon
209.0,7.0,2.0,1.0,4.0,4.0,298.8194459999249,2.0,1.0,phase_1,,,,,,,,,,,,,blue,diamond
388.0,4.0,4.0,0.0,2.0,2.0,310.0340410001081,2.0,1.0,phase_1,,,,,,,,,,,,,white,hexagon
390.0,4.0,4.0,0.0,1.0,1.0,376.0864609998862,2.0,1.0,phase_1,,,,,,,,,,,,,white,hexagon
384.0,8.0,4.0,1.0,1.0,1.0,533.5176819999106,2.0,1.0,phase_1,,,,,,,,,,,,,gray,square
0.0,3.0,0.0,0.0,1.0,1.0,306.2217659999078,2.0,1.0,phase_1,,,,,,,,,,,,,green,cross
64.0,5.0,0.5,1.0,1.0,1.0,426.8848060000891,2.0,1.0,phase_1,,,,,,,,,,,,,yellow,I
217.0,3.0,2.0,0.0,3.0,3.0,596.2690510000357,2.0,1.0,phase_1,,,,,,,,,,,,,green,cross
0.0,2.0,0.0,0.0,4.0,4.0,665.183941000123,3.0,1.0,phase_1,,,,,,,,,,,,,magenta,triangle
209.0,7.0,2.0,1.0,4.0,4.0,381.9842869997956,3.0,1.0,phase_1,,,,,,,,,,,,,blue,diamond
0.0,4.0,0.0,0.0,2.0,2.0,276.5777390000039,3.0,1.0,phase_1,,,,,,,,,,,,,white,hexagon
117.0,2.0,1.0,0.0,3.0,3.0,319.9529319999783,3.0,1.0,phase_1,,,,,,,,,,,,,magenta,triangle
86.0,6.0,1.0,1.0,3.0,3.0,364.0648729997338,3.0,1.0,phase_1,,,,,,,,,,,,,cyan,flipped triangle
421.0,8.0,4.0,1.0,3.0,3.0,391.0699779999049,3.0,1.0,phase_1,,,,,,,,,,,,,gray,square
0.0,6.0,0.0,1.0,3.0,3.0,332.5551339999038,3.0,1.0,phase_1,,,,,,,,,,,,,cyan,flipped triangle
0.0,1.0,0.0,0.0,2.0,2.0,303.9218249996338,3.0,1.0,phase_1,,,,,,,,,,,,,orange,circle
418.0,8.0,4.0,1.0,4.0,4.0,360.2397259996905,3.0,1.0,phase_1,,,,,,,,,,,,,gray,square
108.0,2.0,1.0,0.0,2.0,2.0,322.2118870003214,3.0,1.0,phase_1,,,,,,,,,,,,,magenta,triangle
97.0,2.0,1.0,0.0,4.0,4.0,456.2964860001557,3.0,1.0,phase_1,,,,,,,,,,,,,magenta,triangle
94.0,6.0,1.0,1.0,2.0,2.0,454.975579999882,3.0,1.0,phase_1,,,,,,,,,,,,,cyan,flipped triangle
35.0,1.0,0.5,0.0,2.0,2.0,381.6911210001308,3.0,1.0,phase_1,,,,,,,,,,,,,orange,circle
0.0,8.0,0.0,1.0,2.0,2.0,423.0218150000837,3.0,1.0,phase_1,,,,,,,,,,,,,gray,square
217.0,7.0,2.0,1.0,4.0,4.0,378.5740580001402,3.0,1.0,phase_1,,,,,,,,,,,,,blue,diamond
187.0,3.0,2.0,0.0,4.0,4.0,392.3409100002573,3.0,1.0,phase_1,,,,,,,,,,,,,green,cross
414.0,8.0,4.0,1.0,1.0,1.0,421.9850220001717,3.0,1.0,phase_1,,,,,,,,,,,,,gray,square
414.0,4.0,4.0,0.0,1.0,1.0,379.5504839999921,3.0,1.0,phase_1,,,,,,,,,,,,,white,hexagon
0.0,2.0,0.0,0.0,2.0,2.0,394.904102000055,3.0,1.0,phase_1,,,,,,,,,,,,,magenta,triangle
418.0,4.0,4.0,0.0,1.0,1.0,373.7087409999731,3.0,1.0,phase_1,,,,,,,,,,,,,white,hexagon
378.0,4.0,4.0,0.0,4.0,4.0,262.6157079998847,3.0,1.0,phase_1,,,,,,,,,,,,,white,hexagon
0.0,1.0,0.0,0.0,4.0,4.0,345.7215010002983,3.0,1.0,phase_1,,,,,,,,,,,,,orange,circle
407.0,8.0,4.0,1.0,4.0,4.0,353.3056520000173,3.0,1.0,phase_1,,,,,,,,,,,,,gray,square
192.0,7.0,2.0,1.0,3.0,3.0,476.3584860002083,3.0,1.0,phase_1,,,,,,,,,,,,,blue,diamond
0.0,8.0,0.0,1.0,3.0,3.0,495.96953199989,3.0,1.0,phase_1,,,,,,,,,,,,,gray,square
401.0,4.0,4.0,0.0,1.0,1.0,356.0788969998611,3.0,1.0,phase_1,,,,,,,,,,,,,white,hexagon
91.0,6.0,1.0,1.0,1.0,1.0,373.7481119997028,3.0,1.0,phase_1,,,,,,,,,,,,,cyan,flipped triangle
411.0,8.0,4.0,1.0,1.0,1.0,357.0293289999426,3.0,1.0,phase_1,,,,,,,,,,,,,gray,square
0.0,3.0,0.0,0.0,1.0,1.0,450.3680630000417,3.0,1.0,phase_1,,,,,,,,,,,,,green,cross
32.0,1.0,0.5,0.0,3.0,3.0,411.4643810003144,3.0,1.0,phase_1,,,,,,,,,,,,,orange,circle
90.0,2.0,1.0,0.0,4.0,4.0,420.8390240000881,3.0,1.0,phase_1,,,,,,,,,,,,,magenta,triangle
0.0,7.0,0.0,1.0,1.0,1.0,336.8793409999853,3.0,1.0,phase_1,,,,,,,,,,,,,blue,diamond
185.0,3.0,2.0,0.0,2.0,2.0,776.6207319996283,3.0,1.0,phase_1,,,,,,,,,,,,,green,cross
180.0,3.0,2.0,0.0,1.0,1.0,538.3104239999739,3.0,1.0,phase_1,,,,,,,,,,,,,green,cross
419.0,8.0,4.0,1.0,4.0,4.0,531.154190000052,3.0,1.0,phase_1,,,,,,,,,,,,,gray,square
81.0,2.0,1.0,0.0,1.0,1.0,629.6629550001853,3.0,1.0,phase_1,,,,,,,,,,,,,magenta,triangle
110.0,6.0,1.0,1.0,2.0,2.0,700.8770880001975,3.0,1.0,phase_1,,,,,,,,,,,,,cyan,flipped triangle
0.0,6.0,0.0,1.0,4.0,4.0,448.7577299996701,3.0,1.0,phase_1,,,,,,,,,,,,,cyan,flipped triangle
108.0,6.0,1.0,1.0,1.0,1.0,450.5453649999253,3.0,1.0,phase_1,,,,,,,,,,,,,cyan,flipped triangle
411.0,4.0,4.0,0.0,4.0,4.0,430.3431390003425,3.0,1.0,phase_1,,,,,,,,,,,,,white,hexagon
424.0,8.0,4.0,1.0,2.0,2.0,393.1647260001227,3.0,1.0,phase_1,,,,,,,,,,,,,gray,square
408.0,4.0,4.0,0.0,1.0,1.0,413.0431069997939,3.0,1.0,phase_1,,,,,,,,,,,,,white,hexagon
220.0,7.0,2.0,1.0,1.0,1.0,548.1390840000131,3.0,1.0,phase_1,,,,,,,,,,,,,blue,diamond
408.0,4.0,4.0,0.0,4.0,4.0,531.0052370000449,3.0,1.0,phase_1,,,,,,,,,,,,,white,hexagon
390.0,8.0,4.0,1.0,4.0,4.0,589.4656519999444,3.0,1.0,phase_1,,,,,,,,,,,,,gray,square
388.0,8.0,4.0,1.0,4.0,4.0,501.43918399999166,3.0,1.0,phase_1,,,,,,,,,,,,,gray,square
29.0,1.0,0.5,0.0,1.0,1.0,437.2169480002412,3.0,1.0,phase_1,,,,,,,,,,,,,orange,circle
90.0,6.0,1.0,1.0,1.0,1.0,401.5328310001678,3.0,1.0,phase_1,,,,,,,,,,,,,cyan,flipped triangle
52.0,5.0,0.5,1.0,3.0,3.0,571.549856999809,3.0,1.0,phase_1,,,,,,,,,,,,,yellow,I
57.0,1.0,0.5,0.0,4.0,4.0,505.21359599997595,3.0,1.0,phase_1,,,,,,,,,,,,,orange,circle
417.0,4.0,4.0,0.0,2.0,2.0,396.3311780003096,3.0,1.0,phase_1,,,,,,,,,,,,,white,hexagon
33.0,1.0,0.5,0.0,4.0,4.0,405.4628380004033,3.0,1.0,phase_1,,,,,,,,,,,,,orange,circle
424.0,8.0,4.0,1.0,2.0,2.0,376.3477180000336,3.0,1.0,phase_1,,,,,,,,,,,,,gray,square
206.0,7.0,2.0,1.0,1.0,1.0,423.9290929999697,3.0,1.0,phase_1,,,,,,,,,,,,,blue,diamond
415.0,8.0,4.0,1.0,3.0,3.0,444.1093079999518,3.0,1.0,phase_1,,,,,,,,,,,,,gray,square
388.0,4.0,4.0,0.0,1.0,1.0,472.4466669999856,3.0,1.0,phase_1,,,,,,,,,,,,,white,hexagon
91.0,2.0,1.0,0.0,3.0,3.0,397.910726000191,3.0,1.0,phase_1,,,,,,,,,,,,,magenta,triangle
0.0,1.0,0.0,0.0,2.0,2.0,390.990605999832,3.0,1.0,phase_1,,,,,,,,,,,,,orange,circle
0.0,5.0,0.0,1.0,4.0,4.0,539.6266220000143,3.0,1.0,phase_1,,,,,,,,,,,,,yellow,I
0.0,3.0,0.0,0.0,2.0,2.0,326.5855699996791,3.0,1.0,phase_1,,,,,,,,,,,,,green,cross
0.0,2.0,0.0,0.0,2.0,2.0,311.7602340003031,3.0,1.0,phase_1,,,,,,,,,,,,,magenta,triangle
187.0,7.0,2.0,1.0,1.0,1.0,346.9984100001966,3.0,1.0,phase_1,,,,,,,,,,,,,blue,diamond
75.0,1.0,0.5,0.0,3.0,3.0,437.5083750001067,3.0,1.0,phase_1,,,,,,,,,,,,,orange,circle
89.0,2.0,1.0,0.0,2.0,2.0,465.9869799997977,3.0,1.0,phase_1,,,,,,,,,,,,,magenta,triangle
72.0,5.0,0.5,1.0,3.0,3.0,807.5367970000116,3.0,1.0,phase_1,,,,,,,,,,,,,yellow,I
123.0,2.0,1.0,0.0,1.0,1.0,350.9392099999786,3.0,1.0,phase_1,,,,,,,,,,,,,magenta,triangle
185.0,7.0,2.0,1.0,2.0,2.0,348.6625539999295,3.0,1.0,phase_1,,,,,,,,,,,,,blue,diamond
380.0,8.0,4.0,1.0,4.0,4.0,603.3987470000284,3.0,1.0,phase_1,,,,,,,,,,,,,gray,square
197.0,3.0,2.0,0.0,3.0,3.0,484.9022939997667,3.0,2.0,phase_1,,,,,,,,,,,,,green,cross
0.0,7.0,0.0,1.0,3.0,3.0,365.1703169998654,3.0,1.0,phase_1,,,,,,,,,,,,,blue,diamond
119.0,6.0,1.0,1.0,2.0,2.0,614.6973270001581,3.0,1.0,phase_1,,,,,,,,,,,,,cyan,flipped triangle
78.0,2.0,1.0,0.0,4.0,4.0,637.0983249998972,3.0,2.0,phase_1,,,,,,,,,,,,,magenta,triangle
98.0,6.0,1.0,1.0,2.0,2.0,459.5009599997866,3.0,1.0,phase_1,,,,,,,,,,,,,cyan,flipped triangle
0.0,3.0,0.0,0.0,1.0,1.0,487.972500000069,3.0,1.0,phase_1,,,,,,,,,,,,,green,cross
406.0,8.0,4.0,1.0,4.0,4.0,507.1948949998841,3.0,1.0,phase_1,,,,,,,,,,,,,gray,square
0.0,8.0,0.0,1.0,3.0,3.0,974.4911150000916,3.0,1.0,phase_1,,,,,,,,,,,,,gray,square
44.0,1.0,0.5,0.0,3.0,3.0,591.4498780002759,3.0,1.0,phase_1,,,,,,,,,,,,,orange,circle
40.0,5.0,0.5,1.0,3.0,3.0,626.2352260000625,3.0,1.0,phase_1,,,,,,,,,,,,,yellow,I
185.0,7.0,2.0,1.0,3.0,3.0,428.8816000002953,3.0,1.0,phase_1,,,,,,,,,,,,,blue,diamond
46.0,1.0,0.5,0.0,4.0,4.0,545.5125050002607,3.0,1.0,phase_1,,,,,,,,,,,,,orange,circle
103.0,2.0,1.0,0.0,3.0,3.0,380.6503239998164,3.0,1.0,phase_1,,,,,,,,,,,,,magenta,triangle
412.0,4.0,4.0,0.0,2.0,2.0,681.44069400023,3.0,1.0,phase_1,,,,,,,,,,,,,white,hexagon
378.0,4.0,4.0,0.0,1.0,1.0,544.4205029998557,3.0,1.0,phase_1,,,,,,,,,,,,,white,hexagon
121.0,6.0,1.0,1.0,4.0,4.0,514.9468519998663,3.0,1.0,phase_1,,,,,,,,,,,,,cyan,flipped triangle
192.0,3.0,2.0,0.0,2.0,2.0,691.408612000032,3.0,1.0,phase_1,,,,,,,,,,,,,green,cross
183.0,7.0,2.0,1.0,2.0,2.0,681.241805999889,3.0,1.0,phase_1,,,,,,,,,,,,,blue,diamond
390.0,8.0,4.0,1.0,2.0,2.0,438.9313360002234,3.0,1.0,phase_1,,,,,,,,,,,,,gray,square
32.0,1.0,0.5,0.0,1.0,1.0,703.1153790003373,3.0,1.0,phase_1,,,,,,,,,,,,,orange,circle
72.0,1.0,0.5,0.0,3.0,3.0,812.7614060003907,3.0,1.0,phase_1,,,,,,,,,,,,,orange,circle
33.0,5.0,0.5,1.0,2.0,2.0,492.7890120002303,3.0,1.0,phase_1,,,,,,,,,,,,,yellow,I
182.0,7.0,2.0,1.0,1.0,1.0,468.5322539999106,3.0,1.0,phase_1,,,,,,,,,,,,,blue,diamond
27.0,1.0,0.5,0.0,1.0,1.0,479.6062109999184,3.0,1.0,phase_1,,,,,,,,,,,,,orange,circle
191.0,3.0,2.0,0.0,3.0,3.0,481.5853089999109,3.0,1.0,phase_1,,,,,,,,,,,,,green,cross
123.0,2.0,1.0,0.0,2.0,2.0,959.1934290001518,3.0,1.0,phase_1,,,,,,,,,,,,,magenta,triangle
178.0,7.0,2.0,1.0,4.0,4.0,539.2769690001842,3.0,1.0,phase_1,,,,,,,,,,,,,blue,diamond
398.0,8.0,4.0,1.0,2.0,2.0,459.5527749997927,3.0,1.0,phase_1,,,,,,,,,,,,,gray,square
408.0,8.0,4.0,1.0,3.0,3.0,639.5313140001235,3.0,1.0,phase_1,,,,,,,,,,,,,gray,square
0.0,7.0,0.0,1.0,3.0,3.0,426.1121040003672,3.0,1.0,phase_1,,,,,,,,,,,,,blue,diamond
178.0,7.0,2.0,1.0,2.0,2.0,477.001520000158,3.0,1.0,phase_1,,,,,,,,,,,,,blue,diamond
176.0,7.0,2.0,1.0,3.0,3.0,531.5914060001887,3.0,1.0,phase_1,,,,,,,,,,,,,blue,diamond
0.0,8.0,0.0,1.0,4.0,4.0,451.4961069999117,4.0,1.0,phase_1,,,,,,,,,,,,,gray,square
0.0,6.0,0.0,1.0,3.0,3.0,606.7557729998043,4.0,1.0,phase_1,,,,,,,,,,,,,cyan,flipped triangle
0.0,6.0,0.0,1.0,2.0,2.0,328.0534380000972,4.0,1.0,phase_1,,,,,,,,,,,,,cyan,flipped triangle
220.0,3.0,2.0,0.0,1.0,1.0,388.2377089998954,4.0,1.0,phase_1,,,,,,,,,,,,,green,cross
101.0,6.0,1.0,1.0,2.0,2.0,274.4905220001783,4.0,2.0,phase_1,,,,,,,,,,,,,cyan,flipped triangle
33.0,5.0,0.5,1.0,2.0,2.0,418.289821000144,4.0,1.0,phase_1,,,,,,,,,,,,,yellow,I
423.0,8.0,4.0,1.0,2.0,2.0,442.1863070001564,4.0,1.0,phase_1,,,,,,,,,,,,,gray,square
209.0,3.0,2.0,0.0,4.0,4.0,491.3906990000214,4.0,1.0,phase_1,,,,,,,,,,,,,green,cross
0.0,7.0,0.0,1.0,4.0,4.0,441.8638180000016,4.0,1.0,phase_1,,,,,,,,,,,,,blue,diamond
212.0,7.0,2.0,1.0,3.0,3.0,512.6749420001033,4.0,1.0,phase_1,,,,,,,,,,,,,blue,diamond
406.0,4.0,4.0,0.0,4.0,4.0,370.6023270001424,4.0,1.0,phase_1,,,,,,,,,,,,,white,hexagon
0.0,1.0,0.0,0.0,4.0,4.0,356.0106749996521,4.0,1.0,phase_1,,,,,,,,,,,,,orange,circle
84.0,6.0,1.0,1.0,2.0,2.0,402.7312580001307,4.0,1.0,phase_1,,,,,,,,,,,,,cyan,flipped triangle
417.0,8.0,4.0,1.0,3.0,3.0,436.8876160001491,4.0,1.0,phase_1,,,,,,,,,,,,,gray,square
67.0,5.0,0.5,1.0,3.0,3.0,386.0894629997347,4.0,1.0,phase_1,,,,,,,,,,,,,yellow,I
49.0,1.0,0.5,0.0,4.0,4.0,439.3617960004121,4.0,1.0,phase_1,,,,,,,,,,,,,orange,circle
0.0,4.0,0.0,0.0,3.0,3.0,445.9845310002492,4.0,1.0,phase_1,,,,,,,,,,,,,white,hexagon
401.0,8.0,4.0,1.0,3.0,3.0,442.3338680003326,4.0,1.0,phase_1,,,,,,,,,,,,,gray,square
116.0,2.0,1.0,0.0,3.0,3.0,400.678771999992,4.0,1.0,phase_1,,,,,,,,,,,,,magenta,triangle
0.0,4.0,0.0,0.0,3.0,3.0,448.3379309999691,4.0,1.0,phase_1,,,,,,,,,,,,,white,hexagon
0.0,1.0,0.0,0.0,1.0,1.0,353.4320710000429,4.0,1.0,phase_1,,,,,,,,,,,,,orange,circle
32.0,5.0,0.5,1.0,4.0,4.0,404.5901459999186,4.0,1.0,phase_1,,,,,,,,,,,,,yellow,I
44.0,5.0,0.5,1.0,2.0,2.0,330.1010290001613,4.0,1.0,phase_1,,,,,,,,,,,,,yellow,I
52.0,1.0,0.5,0.0,2.0,2.0,268.0862219999653,4.0,1.0,phase_1,,,,,,,,,,,,,orange,circle
0.0,3.0,0.0,0.0,1.0,1.0,308.1740810002884,4.0,1.0,phase_1,,,,,,,,,,,,,green,cross
0.0,7.0,0.0,1.0,2.0,2.0,358.2550109999829,4.0,1.0,phase_1,,,,,,,,,,,,,blue,diamond
120.0,2.0,1.0,0.0,4.0,4.0,379.099270000097,4.0,1.0,phase_1,,,,,,,,,,,,,magenta,triangle
78.0,2.0,1.0,0.0,3.0,3.0,435.9841769996819,4.0,1.0,phase_1,,,,,,,,,,,,,magenta,triangle
222.0,3.0,2.0,0.0,4.0,4.0,393.8287260002653,4.0,1.0,phase_1,,,,,,,,,,,,,green,cross
176.0,7.0,2.0,1.0,2.0,2.0,281.192361000194,4.0,1.0,phase_1,,,,,,,,,,,,,blue,diamond
0.0,3.0,0.0,0.0,2.0,2.0,332.1737140004188,4.0,1.0,phase_1,,,,,,,,,,,,,green,cross
94.0,2.0,1.0,0.0,2.0,2.0,392.277527999795,4.0,1.0,phase_1,,,,,,,,,,,,,magenta,triangle
209.0,3.0,2.0,0.0,1.0,1.0,480.4537310001251,4.0,1.0,phase_1,,,,,,,,,,,,,green,cross
106.0,2.0,1.0,0.0,4.0,4.0,498.4012870004335,4.0,1.0,phase_1,,,,,,,,,,,,,magenta,triangle
210.0,7.0,2.0,1.0,2.0,2.0,471.8624399997679,4.0,1.0,phase_1,,,,,,,,,,,,,blue,diamond
222.0,3.0,2.0,0.0,1.0,1.0,403.9379630003168,4.0,1.0,phase_1,,,,,,,,,,,,,green,cross
213.0,3.0,2.0,0.0,1.0,1.0,578.4766629999467,4.0,1.0,phase_1,,,,,,,,,,,,,green,cross
70.0,1.0,0.5,0.0,3.0,3.0,689.8104710003281,4.0,1.0,phase_1,,,,,,,,,,,,,orange,circle
36.0,1.0,0.5,0.0,4.0,4.0,514.1346549999071,4.0,1.0,phase_1,,,,,,,,,,,,,orange,circle
379.0,4.0,4.0,0.0,4.0,4.0,517.1680130001732,4.0,1.0,phase_1,,,,,,,,,,,,,white,hexagon
89.0,6.0,1.0,1.0,2.0,2.0,521.1959879998176,4.0,1.0,phase_1,,,,,,,,,,,,,cyan,flipped triangle
0.0,5.0,0.0,1.0,4.0,4.0,523.9361519998056,4.0,1.0,phase_1,,,,,,,,,,,,,yellow,I
0.0,3.0,0.0,0.0,2.0,2.0,518.84215400014,4.0,1.0,phase_1,,,,,,,,,,,,,green,cross
0.0,3.0,0.0,0.0,3.0,3.0,481.3101879999522,4.0,1.0,phase_1,,,,,,,,,,,,,green,cross
79.0,2.0,1.0,0.0,4.0,4.0,532.0610919998217,4.0,1.0,phase_1,,,,,,,,,,,,,magenta,triangle
55.0,5.0,0.5,1.0,1.0,1.0,535.3102979997857,4.0,1.0,phase_1,,,,,,,,,,,,,yellow,I
50.0,1.0,0.5,0.0,2.0,2.0,627.0479720001276,4.0,1.0,phase_1,,,,,,,,,,,,,orange,circle
194.0,3.0,2.0,0.0,2.0,2.0,653.147161999641,4.0,1.0,phase_1,,,,,,,,,,,,,green,cross
183.0,3.0,2.0,0.0,2.0,2.0,547.5804060001792,4.0,1.0,phase_1,,,,,,,,,,,,,green,cross
0.0,7.0,0.0,1.0,2.0,2.0,550.0446010000815,4.0,1.0,phase_1,,,,,,,,,,,,,blue,diamond
0.0,1.0,0.0,0.0,4.0,4.0,431.7066469998281,4.0,1.0,phase_1,,,,,,,,,,,,,orange,circle
180.0,7.0,2.0,1.0,1.0,1.0,539.7915639996427,4.0,1.0,phase_1,,,,,,,,,,,,,blue,diamond
0.0,8.0,0.0,1.0,3.0,3.0,505.21627399984936,4.0,1.0,phase_1,,,,,,,,,,,,,gray,square
205.0,3.0,2.0,0.0,2.0,2.0,580.5385280000337,4.0,2.0,phase_1,,,,,,,,,,,,,green,cross
380.0,4.0,4.0,0.0,2.0,2.0,491.0029229999963,4.0,1.0,phase_1,,,,,,,,,,,,,white,hexagon
403.0,4.0,4.0,0.0,3.0,3.0,450.7112440001037,4.0,1.0,phase_1,,,,,,,,,,,,,white,hexagon
50.0,5.0,0.5,1.0,4.0,4.0,495.982369000103,4.0,1.0,phase_1,,,,,,,,,,,,,yellow,I
380.0,8.0,4.0,1.0,3.0,3.0,403.1784639996658,4.0,1.0,phase_1,,,,,,,,,,,,,gray,square
81.0,6.0,1.0,1.0,4.0,4.0,527.0168819997707,4.0,1.0,phase_1,,,,,,,,,,,,,cyan,flipped triangle
407.0,8.0,4.0,1.0,1.0,1.0,514.8999620000723,4.0,1.0,phase_1,,,,,,,,,,,,,gray,square
88.0,6.0,1.0,1.0,2.0,2.0,516.5849149998394,4.0,1.0,phase_1,,,,,,,,,,,,,cyan,flipped triangle
390.0,8.0,4.0,1.0,1.0,1.0,539.0330359996369,4.0,1.0,phase_1,,,,,,,,,,,,,gray,square
39.0,5.0,0.5,1.0,2.0,2.0,369.7847520002142,4.0,1.0,phase_1,,,,,,,,,,,,,yellow,I
210.0,3.0,2.0,0.0,3.0,3.0,782.6540129999557,4.0,1.0,phase_1,,,,,,,,,,,,,green,cross
179.0,3.0,2.0,0.0,4.0,4.0,792.9243950002274,4.0,1.0,phase_1,,,,,,,,,,,,,green,cross
64.0,1.0,0.5,0.0,4.0,4.0,568.2691240003805,4.0,1.0,phase_1,,,,,,,,,,,,,orange,circle
192.0,3.0,2.0,0.0,3.0,3.0,419.2912769999566,4.0,1.0,phase_1,,,,,,,,,,,,,green,cross
59.0,5.0,0.5,1.0,2.0,2.0,555.9165249997022,4.0,1.0,phase_1,,,,,,,,,,,,,yellow,I
102.0,2.0,1.0,0.0,1.0,1.0,402.8269600003114,4.0,1.0,phase_1,,,,,,,,,,,,,magenta,triangle
200.0,3.0,2.0,0.0,2.0,2.0,528.1202050000502,4.0,1.0,phase_1,,,,,,,,,,,,,green,cross
423.0,4.0,4.0,0.0,2.0,2.0,541.369467000095,4.0,1.0,phase_1,,,,,,,,,,,,,white,hexagon
33.0,1.0,0.5,0.0,2.0,2.0,531.6415209999832,4.0,1.0,phase_1,,,,,,,,,,,,,orange,circle
200.0,7.0,2.0,1.0,4.0,4.0,491.7243830000188,4.0,1.0,phase_1,,,,,,,,,,,,,blue,diamond
0.0,2.0,0.0,0.0,2.0,2.0,393.2427579998148,4.0,1.0,phase_1,,,,,,,,,,,,,magenta,triangle
123.0,2.0,1.0,0.0,1.0,1.0,432.5778369998261,4.0,1.0,phase_1,,,,,,,,,,,,,magenta,triangle
406.0,4.0,4.0,0.0,3.0,3.0,434.34438699978267,4.0,1.0,phase_1,,,,,,,,,,,,,white,hexagon
106.0,6.0,1.0,1.0,2.0,2.0,457.7751280003213,4.0,1.0,phase_1,,,,,,,,,,,,,cyan,flipped triangle
45.0,1.0,0.5,0.0,1.0,1.0,514.9096489999465,4.0,1.0,phase_1,,,,,,,,,,,,,orange,circle
396.0,8.0,4.0,1.0,2.0,2.0,634.4774550002512,4.0,1.0,phase_1,,,,,,,,,,,,,gray,square
212.0,3.0,2.0,0.0,1.0,1.0,464.4716709999557,4.0,1.0,phase_1,,,,,,,,,,,,,green,cross
178.0,3.0,2.0,0.0,4.0,4.0,489.4999329999336,4.0,1.0,phase_1,,,,,,,,,,,,,green,cross
411.0,4.0,4.0,0.0,4.0,4.0,526.205757000298,4.0,1.0,phase_1,,,,,,,,,,,,,white,hexagon
0.0,4.0,0.0,0.0,4.0,4.0,809.0258779998294,4.0,1.0,phase_1,,,,,,,,,,,,,white,hexagon
390.0,4.0,4.0,0.0,1.0,1.0,481.4618290001817,4.0,1.0,phase_1,,,,,,,,,,,,,white,hexagon
181.0,3.0,2.0,0.0,2.0,2.0,396.2048529997446,4.0,1.0,phase_1,,,,,,,,,,,,,green,cross
46.0,1.0,0.5,0.0,3.0,3.0,547.8264039998066,4.0,1.0,phase_1,,,,,,,,,,,,,orange,circle
49.0,5.0,0.5,1.0,3.0,3.0,327.4104439997245,4.0,1.0,phase_1,,,,,,,,,,,,,yellow,I
410.0,8.0,4.0,1.0,3.0,3.0,359.1234959999383,4.0,1.0,phase_1,,,,,,,,,,,,,gray,square
182.0,3.0,2.0,0.0,3.0,3.0,278.4893490002105,4.0,1.0,phase_1,,,,,,,,,,,,,green,cross
0.0,2.0,0.0,0.0,4.0,4.0,443.0961269999898,4.0,1.0,phase_1,,,,,,,,,,,,,magenta,triangle
0.0,4.0,0.0,0.0,4.0,4.0,366.6720910000549,4.0,1.0,phase_1,,,,,,,,,,,,,white,hexagon
83.0,6.0,1.0,1.0,4.0,4.0,477.6686129998779,4.0,1.0,phase_1,,,,,,,,,,,,,cyan,flipped triangle
45.0,5.0,0.5,1.0,4.0,4.0,508.0423740000697,4.0,1.0,phase_1,,,,,,,,,,,,,yellow,I
64.0,5.0,0.5,1.0,1.0,1.0,497.4793910000699,4.0,1.0,phase_1,,,,,,,,,,,,,yellow,I
110.0,2.0,1.0,0.0,3.0,3.0,439.3104250002579,4.0,1.0,phase_1,,,,,,,,,,,,,magenta,triangle
217.0,7.0,2.0,1.0,1.0,1.0,494.8888730000362,4.0,1.0,phase_1,,,,,,,,,,,,,blue,diamond
0.0,3.0,0.0,0.0,1.0,1.0,402.8512990003037,4.0,1.0,phase_1,,,,,,,,,,,,,green,cross
46.0,5.0,0.5,1.0,3.0,3.0,361.1840530002155,4.0,1.0,phase_1,,,,,,,,,,,,,yellow,I
29.0,5.0,0.5,1.0,2.0,2.0,345.1752149999265,4.0,1.0,phase_1,,,,,,,,,,,,,yellow,I
76.0,2.0,1.0,0.0,1.0,1.0,412.3437840003134,4.0,1.0,phase_1,,,,,,,,,,,,,magenta,triangle
0.0,5.0,0.5,1.0,6.0,6.0,800.8850189999066,1.0,1.0,phase_2,stop,250.0,250.0,3.0,,,,,,,,,yellow,I
0.0,3.0,2.0,0.0,6.0,6.0,424.980737000169,1.0,1.0,phase_2,go,250.0,200.0,1.0,,,,,,,,,green,cross
0.0,2.0,1.0,0.0,6.0,6.0,310.3372990003663,1.0,1.0,phase_2,go,250.0,200.0,1.0,,,,,,,,,magenta,triangle
0.0,8.0,4.0,1.0,6.0,6.0,577.5539819996993,1.0,1.0,phase_2,go,250.0,200.0,1.0,,,,,,,,,gray,square
0.0,5.0,0.5,1.0,5.0,5.0,342.1023239998249,1.0,1.0,phase_2,stop,250.0,200.0,3.0,,,,,,,,,yellow,I
0.0,6.0,1.0,1.0,6.0,6.0,455.001811999864,1.0,1.0,phase_2,go,200.0,200.0,1.0,,,,,,,,,cyan,flipped triangle
0.0,1.0,0.5,0.0,6.0,6.0,303.4938259997943,1.0,1.0,phase_2,go,200.0,200.0,1.0,,,,,,,,,orange,circle
0.0,7.0,2.0,1.0,5.0,0.0,0.0,1.0,1.0,phase_2,stop,200.0,200.0,4.0,,,,,,,,,blue,diamond
0.0,3.0,2.0,0.0,6.0,6.0,387.9541129999779,1.0,1.0,phase_2,go,250.0,200.0,1.0,,,,,,,,,green,cross
0.0,3.0,2.0,0.0,6.0,6.0,408.4663100002217,1.0,1.0,phase_2,go,250.0,200.0,1.0,,,,,,,,,green,cross
0.0,4.0,4.0,0.0,6.0,6.0,602.8119839997998,1.0,1.0,phase_2,go,250.0,200.0,1.0,,,,,,,,,white,hexagon
0.0,4.0,4.0,0.0,6.0,6.0,663.977261999662,1.0,1.0,phase_2,go,250.0,200.0,1.0,,,,,,,,,white,hexagon
0.0,1.0,0.5,0.0,6.0,6.0,449.000346000048,1.0,1.0,phase_2,go,250.0,200.0,1.0,,,,,,,,,orange,circle
0.0,2.0,1.0,0.0,5.0,5.0,586.9722340003136,1.0,1.0,phase_2,go,250.0,200.0,1.0,,,,,,,,,magenta,triangle
0.0,6.0,1.0,1.0,5.0,0.0,0.0,1.0,1.0,phase_2,stop,250.0,200.0,4.0,,,,,,,,,cyan,flipped triangle
0.0,5.0,0.5,1.0,6.0,0.0,0.0,1.0,1.0,phase_2,stop,300.0,200.0,4.0,,,,,,,,,yellow,I
0.0,4.0,4.0,0.0,6.0,6.0,512.7963459999592,1.0,1.0,phase_2,go,300.0,250.0,1.0,,,,,,,,,white,hexagon
0.0,4.0,4.0,0.0,6.0,6.0,363.5678270002245,1.0,1.0,phase_2,go,300.0,250.0,1.0,,,,,,,,,white,hexagon
0.0,3.0,2.0,0.0,5.0,5.0,741.7450989996723,1.0,1.0,phase_2,go,300.0,250.0,1.0,,,,,,,,,green,cross
0.0,8.0,4.0,1.0,6.0,6.0,322.2384270002294,1.0,1.0,phase_2,stop,300.0,250.0,3.0,,,,,,,,,gray,square
0.0,8.0,4.0,1.0,6.0,0.0,0.0,1.0,1.0,phase_2,stop,300.0,200.0,4.0,,,,,,,,,gray,square
0.0,5.0,0.5,1.0,5.0,0.0,0.0,1.0,1.0,phase_2,stop,300.0,250.0,4.0,,,,,,,,,yellow,I
0.0,6.0,1.0,1.0,6.0,6.0,474.4150219999028,1.0,1.0,phase_2,go,350.0,250.0,1.0,,,,,,,,,cyan,flipped triangle
0.0,3.0,2.0,0.0,6.0,6.0,469.8323270004039,1.0,1.0,phase_2,go,350.0,250.0,1.0,,,,,,,,,green,cross
0.0,8.0,4.0,1.0,6.0,0.0,0.0,1.0,1.0,phase_2,stop,350.0,250.0,4.0,,,,,,,,,gray,square
0.0,2.0,1.0,0.0,5.0,5.0,465.2585969997744,1.0,1.0,phase_2,go,350.0,300.0,1.0,,,,,,,,,magenta,triangle
0.0,2.0,1.0,0.0,6.0,6.0,524.8919430000569,1.0,1.0,phase_2,go,350.0,300.0,1.0,,,,,,,,,magenta,triangle
0.0,6.0,1.0,1.0,5.0,0.0,0.0,1.0,1.0,phase_2,stop,350.0,300.0,4.0,,,,,,,,,cyan,flipped triangle
0.0,1.0,0.5,0.0,6.0,6.0,517.0383810000203,1.0,1.0,phase_2,go,400.0,300.0,1.0,,,,,,,,,orange,circle
0.0,6.0,1.0,1.0,5.0,5.0,522.3389069997211,1.0,1.0,phase_2,stop,400.0,300.0,3.0,,,,,,,,,cyan,flipped triangle
0.0,2.0,1.0,0.0,6.0,0.0,0.0,1.0,1.0,phase_2,go,350.0,300.0,5.0,,,,,,,,,magenta,triangle
0.0,5.0,0.5,1.0,5.0,5.0,756.6304679999121,1.0,1.0,phase_2,go,350.0,300.0,1.0,,,,,,,,,yellow,I
0.0,1.0,0.5,0.0,5.0,5.0,597.1358130000226,1.0,1.0,phase_2,go,350.0,300.0,1.0,,,,,,,,,orange,circle
0.0,1.0,0.5,0.0,6.0,6.0,457.8167350000512,1.0,1.0,phase_2,go,350.0,300.0,1.0,,,,,,,,,orange,circle
0.0,6.0,1.0,1.0,5.0,0.0,0.0,1.0,1.0,phase_2,stop,350.0,300.0,4.0,,,,,,,,,cyan,flipped triangle
0.0,1.0,0.5,0.0,5.0,5.0,559.3853589998616,1.0,1.0,phase_2,go,400.0,300.0,1.0,,,,,,,,,orange,circle
0.0,4.0,4.0,0.0,5.0,5.0,881.8198179997125,2.0,1.0,phase_2,go,400.0,300.0,1.0,,,,,,,,,white,hexagon
0.0,7.0,2.0,1.0,6.0,6.0,331.9150369998169,2.0,1.0,phase_2,stop,400.0,300.0,3.0,,,,,,,,,blue,diamond
0.0,2.0,1.0,0.0,6.0,6.0,511.13393400009954,2.0,1.0,phase_2,go,400.0,250.0,1.0,,,,,,,,,magenta,triangle
0.0,3.0,2.0,0.0,6.0,6.0,312.6292309998462,2.0,1.0,phase_2,go,400.0,250.0,1.0,,,,,,,,,green,cross
0.0,7.0,2.0,1.0,5.0,5.0,443.1260009996549,2.0,1.0,phase_2,stop,400.0,250.0,3.0,,,,,,,,,blue,diamond
0.0,2.0,1.0,0.0,6.0,6.0,624.572246000298,2.0,1.0,phase_2,go,350.0,250.0,1.0,,,,,,,,,magenta,triangle
0.0,4.0,4.0,0.0,5.0,5.0,302.6456759998837,2.0,1.0,phase_2,go,350.0,250.0,1.0,,,,,,,,,white,hexagon
0.0,5.0,0.5,1.0,6.0,0.0,0.0,2.0,1.0,phase_2,stop,350.0,250.0,4.0,,,,,,,,,yellow,I
0.0,3.0,2.0,0.0,6.0,6.0,433.2716720000462,2.0,1.0,phase_2,go,350.0,300.0,1.0,,,,,,,,,green,cross
0.0,4.0,4.0,0.0,6.0,6.0,460.3438190001725,2.0,1.0,phase_2,go,350.0,300.0,1.0,,,,,,,,,white,hexagon
0.0,8.0,4.0,1.0,6.0,6.0,472.1508889997494,2.0,1.0,phase_2,go,350.0,300.0,1.0,,,,,,,,,gray,square
0.0,6.0,1.0,1.0,6.0,6.0,399.4753100000707,2.0,1.0,phase_2,stop,350.0,300.0,3.0,,,,,,,,,cyan,flipped triangle
0.0,3.0,2.0,0.0,5.0,5.0,506.3999959998,2.0,1.0,phase_2,go,350.0,250.0,1.0,,,,,,,,,green,cross
0.0,2.0,1.0,0.0,5.0,5.0,567.0186759998614,2.0,1.0,phase_2,go,350.0,250.0,1.0,,,,,,,,,magenta,triangle
0.0,1.0,0.5,0.0,5.0,5.0,785.0607860000309,2.0,1.0,phase_2,go,350.0,250.0,1.0,,,,,,,,,orange,circle
0.0,5.0,0.5,1.0,5.0,0.0,0.0,2.0,1.0,phase_2,stop,350.0,250.0,4.0,,,,,,,,,yellow,I
0.0,6.0,1.0,1.0,5.0,5.0,537.365041999692,2.0,1.0,phase_2,stop,400.0,250.0,3.0,,,,,,,,,cyan,flipped triangle
0.0,5.0,0.5,1.0,6.0,0.0,0.0,2.0,1.0,phase_2,stop,350.0,250.0,4.0,,,,,,,,,yellow,I
0.0,3.0,2.0,0.0,5.0,5.0,588.9410459999453,2.0,1.0,phase_2,go,350.0,300.0,1.0,,,,,,,,,green,cross
0.0,5.0,0.5,1.0,5.0,5.0,473.8947539999572,2.0,1.0,phase_2,stop,350.0,300.0,3.0,,,,,,,,,yellow,I
0.0,4.0,4.0,0.0,5.0,5.0,889.47559799999,2.0,1.0,phase_2,go,300.0,300.0,1.0,,,,,,,,,white,hexagon
0.0,6.0,1.0,1.0,5.0,0.0,0.0,2.0,1.0,phase_2,stop,300.0,300.0,4.0,,,,,,,,,cyan,flipped triangle
0.0,8.0,4.0,1.0,6.0,0.0,0.0,2.0,1.0,phase_2,stop,350.0,300.0,4.0,,,,,,,,,gray,square
0.0,7.0,2.0,1.0,5.0,5.0,805.9343420000005,2.0,1.0,phase_2,stop,350.0,350.0,3.0,,,,,,,,,blue,diamond
0.0,3.0,2.0,0.0,6.0,6.0,647.6296519999778,2.0,1.0,phase_2,go,300.0,350.0,1.0,,,,,,,,,green,cross
0.0,2.0,1.0,0.0,5.0,5.0,811.4448119999906,2.0,1.0,phase_2,go,300.0,350.0,1.0,,,,,,,,,magenta,triangle
0.0,7.0,2.0,1.0,5.0,5.0,688.4089089999179,2.0,1.0,phase_2,go,300.0,350.0,1.0,,,,,,,,,blue,diamond
0.0,2.0,1.0,0.0,5.0,5.0,488.2530720001341,2.0,1.0,phase_2,go,300.0,350.0,1.0,,,,,,,,,magenta,triangle
0.0,6.0,1.0,1.0,6.0,6.0,393.9116110000213,2.0,1.0,phase_2,go,300.0,350.0,1.0,,,,,,,,,cyan,flipped triangle
0.0,8.0,4.0,1.0,6.0,6.0,404.9191019998943,2.0,1.0,phase_2,go,300.0,350.0,1.0,,,,,,,,,gray,square
0.0,2.0,1.0,0.0,6.0,6.0,570.34157399994,2.0,1.0,phase_2,go,300.0,350.0,1.0,,,,,,,,,magenta,triangle
0.0,2.0,1.0,0.0,6.0,6.0,641.7092910000974,2.0,1.0,phase_2,go,300.0,350.0,1.0,,,,,,,,,magenta,triangle
0.0,5.0,0.5,1.0,6.0,0.0,0.0,2.0,1.0,phase_2,stop,300.0,350.0,4.0,,,,,,,,,yellow,I
0.0,8.0,4.0,1.0,5.0,5.0,385.9721160001754,2.0,1.0,phase_2,stop,300.0,400.0,3.0,,,,,,,,,gray,square
0.0,2.0,1.0,0.0,5.0,5.0,852.626637999947,2.0,1.0,phase_2,go,250.0,400.0,1.0,,,,,,,,,magenta,triangle
0.0,2.0,1.0,0.0,6.0,6.0,357.3279310003272,2.0,1.0,phase_2,go,250.0,400.0,1.0,,,,,,,,,magenta,triangle
0.0,2.0,1.0,0.0,5.0,5.0,655.5883770001856,3.0,1.0,phase_2,go,250.0,400.0,1.0,,,,,,,,,magenta,triangle
0.0,4.0,4.0,0.0,6.0,6.0,284.3828400000348,3.0,1.0,phase_2,go,250.0,400.0,1.0,,,,,,,,,white,hexagon
0.0,2.0,1.0,0.0,5.0,5.0,281.5066260000094,3.0,1.0,phase_2,go,250.0,400.0,1.0,,,,,,,,,magenta,triangle
0.0,6.0,1.0,1.0,6.0,6.0,294.2509869999412,3.0,1.0,phase_2,stop,250.0,400.0,3.0,,,,,,,,,cyan,flipped triangle
0.0,8.0,4.0,1.0,5.0,0.0,0.0,3.0,1.0,phase_2,stop,250.0,350.0,4.0,,,,,,,,,gray,square
0.0,8.0,4.0,1.0,6.0,6.0,424.4704590000765,3.0,1.0,phase_2,stop,300.0,350.0,3.0,,,,,,,,,gray,square
0.0,8.0,4.0,1.0,6.0,6.0,429.228078000051,3.0,1.0,phase_2,go,300.0,300.0,1.0,,,,,,,,,gray,square
0.0,6.0,1.0,1.0,5.0,5.0,387.0500729999548,3.0,1.0,phase_2,stop,300.0,300.0,3.0,,,,,,,,,cyan,flipped triangle
0.0,2.0,1.0,0.0,6.0,6.0,639.5306589997745,3.0,1.0,phase_2,go,250.0,300.0,1.0,,,,,,,,,magenta,triangle
0.0,4.0,4.0,0.0,6.0,6.0,579.5085589998052,3.0,1.0,phase_2,go,250.0,300.0,1.0,,,,,,,,,white,hexagon
0.0,6.0,1.0,1.0,5.0,0.0,0.0,3.0,1.0,phase_2,stop,250.0,300.0,4.0,,,,,,,,,cyan,flipped triangle
0.0,8.0,4.0,1.0,5.0,0.0,0.0,3.0,1.0,phase_2,stop,300.0,300.0,4.0,,,,,,,,,gray,square
0.0,7.0,2.0,1.0,6.0,6.0,462.3320269997748,3.0,1.0,phase_2,go,350.0,300.0,1.0,,,,,,,,,blue,diamond
0.0,8.0,4.0,1.0,6.0,0.0,0.0,3.0,1.0,phase_2,stop,350.0,300.0,4.0,,,,,,,,,gray,square
0.0,6.0,1.0,1.0,6.0,6.0,939.1522789996998,3.0,1.0,phase_2,go,350.0,350.0,1.0,,,,,,,,,cyan,flipped triangle
0.0,6.0,1.0,1.0,6.0,6.0,1197.1529789998383,3.0,1.0,phase_2,go,350.0,350.0,1.0,,,,,,,,,cyan,flipped triangle
0.0,4.0,4.0,0.0,6.0,6.0,895.5541630002699,3.0,1.0,phase_2,go,350.0,350.0,1.0,,,,,,,,,white,hexagon
0.0,1.0,0.5,0.0,5.0,5.0,848.4997219998149,3.0,1.0,phase_2,go,350.0,350.0,1.0,,,,,,,,,orange,circle
0.0,8.0,4.0,1.0,5.0,5.0,1121.9227609999507,3.0,1.0,phase_2,go,350.0,350.0,1.0,,,,,,,,,gray,square
0.0,7.0,2.0,1.0,5.0,5.0,1034.5449830001598,3.0,1.0,phase_2,go,350.0,350.0,1.0,,,,,,,,,blue,diamond
0.0,7.0,2.0,1.0,5.0,0.0,0.0,3.0,1.0,phase_2,go,350.0,350.0,5.0,,,,,,,,,blue,diamond
0.0,4.0,4.0,0.0,6.0,6.0,705.6923420000203,3.0,1.0,phase_2,go,350.0,350.0,1.0,,,,,,,,,white,hexagon
0.0,8.0,4.0,1.0,5.0,0.0,0.0,3.0,1.0,phase_2,stop,350.0,350.0,4.0,,,,,,,,,gray,square
0.0,7.0,2.0,1.0,5.0,0.0,0.0,3.0,1.0,phase_2,stop,400.0,350.0,4.0,,,,,,,,,blue,diamond
0.0,7.0,2.0,1.0,6.0,0.0,0.0,3.0,1.0,phase_2,stop,450.0,350.0,4.0,,,,,,,,,blue,diamond
0.0,6.0,1.0,1.0,5.0,5.0,558.2749870000043,3.0,1.0,phase_2,go,450.0,400.0,1.0,,,,,,,,,cyan,flipped triangle
0.0,6.0,1.0,1.0,5.0,5.0,650.331450000067,3.0,1.0,phase_2,go,450.0,400.0,1.0,,,,,,,,,cyan,flipped triangle
0.0,1.0,0.5,0.0,6.0,6.0,602.8823299998294,3.0,1.0,phase_2,go,450.0,400.0,1.0,,,,,,,,,orange,circle
0.0,3.0,2.0,0.0,5.0,5.0,757.6932239999223,3.0,1.0,phase_2,go,450.0,400.0,1.0,,,,,,,,,green,cross
0.0,7.0,2.0,1.0,6.0,6.0,439.8048450002534,3.0,1.0,phase_2,stop,450.0,400.0,3.0,,,,,,,,,blue,diamond
0.0,1.0,0.5,0.0,6.0,6.0,757.6694200001839,3.0,1.0,phase_2,go,450.0,350.0,1.0,,,,,,,,,orange,circle
0.0,1.0,0.5,0.0,6.0,6.0,355.9487600000466,3.0,1.0,phase_2,go,450.0,350.0,1.0,,,,,,,,,orange,circle
0.0,3.0,2.0,0.0,6.0,6.0,427.5942160002159,3.0,1.0,phase_2,go,450.0,350.0,1.0,,,,,,,,,green,cross
0.0,7.0,2.0,1.0,5.0,5.0,554.9627460000011,3.0,1.0,phase_2,stop,450.0,350.0,3.0,,,,,,,,,blue,diamond
0.0,2.0,1.0,0.0,5.0,5.0,646.2753410000914,3.0,1.0,phase_2,go,400.0,350.0,1.0,,,,,,,,,magenta,triangle
0.0,1.0,0.5,0.0,5.0,5.0,737.2868649999873,3.0,1.0,phase_2,go,400.0,350.0,1.0,,,,,,,,,orange,circle
0.0,2.0,1.0,0.0,6.0,6.0,395.0195659999735,4.0,1.0,phase_2,go,400.0,350.0,1.0,,,,,,,,,magenta,triangle
0.0,7.0,2.0,1.0,6.0,6.0,312.9598799996529,4.0,1.0,phase_2,stop,400.0,350.0,3.0,,,,,,,,,blue,diamond
0.0,3.0,2.0,0.0,5.0,5.0,352.3806379998859,4.0,1.0,phase_2,go,400.0,300.0,1.0,,,,,,,,,green,cross
0.0,7.0,2.0,1.0,6.0,6.0,282.327118000012,4.0,1.0,phase_2,stop,400.0,300.0,3.0,,,,,,,,,blue,diamond
0.0,2.0,1.0,0.0,5.0,5.0,493.4697710000364,4.0,1.0,phase_2,go,400.0,250.0,1.0,,,,,,,,,magenta,triangle
0.0,7.0,2.0,1.0,5.0,5.0,381.8819509997411,4.0,1.0,phase_2,stop,400.0,250.0,3.0,,,,,,,,,blue,diamond
0.0,3.0,2.0,0.0,5.0,5.0,392.1620510000139,4.0,1.0,phase_2,go,350.0,250.0,1.0,,,,,,,,,green,cross
0.0,4.0,4.0,0.0,6.0,6.0,297.344246999728,4.0,1.0,phase_2,go,350.0,250.0,1.0,,,,,,,,,white,hexagon
0.0,1.0,0.5,0.0,5.0,5.0,276.3461340000503,4.0,1.0,phase_2,go,350.0,250.0,1.0,,,,,,,,,orange,circle
0.0,2.0,1.0,0.0,6.0,6.0,279.8170979999668,4.0,1.0,phase_2,go,350.0,250.0,1.0,,,,,,,,,magenta,triangle
0.0,7.0,2.0,1.0,6.0,6.0,321.656933000213,4.0,1.0,phase_2,stop,350.0,250.0,3.0,,,,,,,,,blue,diamond
0.0,4.0,4.0,0.0,5.0,5.0,290.4916689999481,4.0,1.0,phase_2,go,350.0,200.0,1.0,,,,,,,,,white,hexagon
0.0,4.0,4.0,0.0,5.0,5.0,443.085751000126,4.0,1.0,phase_2,go,350.0,200.0,1.0,,,,,,,,,white,hexagon
0.0,7.0,2.0,1.0,6.0,6.0,228.1744140000228,4.0,1.0,phase_2,go,350.0,200.0,1.0,,,,,,,,,blue,diamond
0.0,5.0,0.5,1.0,5.0,5.0,265.7688240001334,4.0,1.0,phase_2,stop,350.0,200.0,3.0,,,,,,,,,yellow,I
0.0,5.0,0.5,1.0,5.0,5.0,281.6313130001617,4.0,1.0,phase_2,go,300.0,200.0,1.0,,,,,,,,,yellow,I
0.0,1.0,0.5,0.0,5.0,5.0,319.2360059997554,4.0,1.0,phase_2,go,300.0,200.0,1.0,,,,,,,,,orange,circle
0.0,7.0,2.0,1.0,5.0,5.0,332.1187950000421,4.0,1.0,phase_2,stop,300.0,200.0,3.0,,,,,,,,,blue,diamond
0.0,3.0,2.0,0.0,6.0,6.0,288.631923000139,4.0,1.0,phase_2,go,250.0,200.0,1.0,,,,,,,,,green,cross
0.0,3.0,2.0,0.0,5.0,5.0,328.14510900016097,4.0,1.0,phase_2,go,250.0,200.0,1.0,,,,,,,,,green,cross
0.0,7.0,2.0,1.0,5.0,5.0,303.2377009999436,4.0,1.0,phase_2,go,250.0,200.0,1.0,,,,,,,,,blue,diamond
0.0,8.0,4.0,1.0,5.0,5.0,337.9356899999948,4.0,1.0,phase_2,stop,250.0,200.0,3.0,,,,,,,,,gray,square
0.0,3.0,2.0,0.0,5.0,5.0,332.871305000026,4.0,1.0,phase_2,go,200.0,200.0,1.0,,,,,,,,,green,cross
0.0,6.0,1.0,1.0,6.0,6.0,270.0401639999654,4.0,1.0,phase_2,stop,200.0,200.0,3.0,,,,,,,,,cyan,flipped triangle
0.0,3.0,2.0,0.0,6.0,6.0,325.6035980002707,4.0,1.0,phase_2,go,200.0,150.0,1.0,,,,,,,,,green,cross
0.0,4.0,4.0,0.0,6.0,6.0,293.8663569998425,4.0,1.0,phase_2,go,200.0,150.0,1.0,,,,,,,,,white,hexagon
0.0,4.0,4.0,0.0,5.0,5.0,280.6891320001341,4.0,1.0,phase_2,go,200.0,150.0,1.0,,,,,,,,,white,hexagon
0.0,1.0,0.5,0.0,6.0,6.0,277.706825000223,4.0,1.0,phase_2,go,200.0,150.0,1.0,,,,,,,,,orange,circle
0.0,1.0,0.5,0.0,5.0,5.0,247.8074340001512,4.0,1.0,phase_2,go,200.0,150.0,1.0,,,,,,,,,orange,circle
0.0,6.0,1.0,1.0,6.0,6.0,328.3624030000283,4.0,1.0,phase_2,stop,200.0,150.0,3.0,,,,,,,,,cyan,flipped triangle
0.0,2.0,1.0,0.0,5.0,5.0,287.9723599999124,4.0,1.0,phase_2,go,200.0,100.0,1.0,,,,,,,,,magenta,triangle
0.0,4.0,4.0,0.0,6.0,6.0,398.5749779999423,4.0,1.0,phase_2,go,200.0,100.0,1.0,,,,,,,,,white,hexagon
0.0,2.0,1.0,0.0,6.0,6.0,369.1619199998968,4.0,1.0,phase_2,go,200.0,100.0,1.0,,,,,,,,,magenta,triangle
0.0,4.0,4.0,0.0,5.0,5.0,345.4256570003053,4.0,1.0,phase_2,go,200.0,100.0,1.0,,,,,,,,,white,hexagon
0.0,1.0,0.5,0.0,5.0,5.0,385.8529710000766,4.0,1.0,phase_2,go,200.0,100.0,1.0,,,,,,,,,orange,circle
0.0,5.0,0.5,1.0,5.0,5.0,359.5941650000895,4.0,1.0,phase_2,stop,200.0,100.0,3.0,,,,,,,,,yellow,I
0.0,6.0,1.0,1.0,5.0,5.0,638.0296190000081,5.0,1.0,phase_2,stop,150.0,100.0,3.0,,,,,,,,,cyan,flipped triangle
0.0,4.0,4.0,0.0,6.0,6.0,451.270913999906,5.0,1.0,phase_2,go,100.0,100.0,1.0,,,,,,,,,white,hexagon
0.0,8.0,4.0,1.0,5.0,0.0,0.0,5.0,1.0,phase_2,stop,100.0,100.0,4.0,,,,,,,,,gray,square
0.0,5.0,0.5,1.0,6.0,6.0,341.1302800000158,5.0,1.0,phase_2,stop,150.0,100.0,3.0,,,,,,,,,yellow,I
0.0,1.0,0.5,0.0,6.0,6.0,465.9079590001056,5.0,1.0,phase_2,go,150.0,50.0,1.0,,,,,,,,,orange,circle
0.0,7.0,2.0,1.0,6.0,6.0,384.1260500003045,5.0,1.0,phase_2,go,150.0,50.0,1.0,,,,,,,,,blue,diamond
0.0,7.0,2.0,1.0,6.0,0.0,0.0,5.0,1.0,phase_2,stop,150.0,50.0,4.0,,,,,,,,,blue,diamond
0.0,4.0,4.0,0.0,6.0,6.0,424.7779219999756,5.0,1.0,phase_2,go,150.0,100.0,1.0,,,,,,,,,white,hexagon
0.0,8.0,4.0,1.0,5.0,0.0,0.0,5.0,1.0,phase_2,stop,150.0,100.0,4.0,,,,,,,,,gray,square
0.0,2.0,1.0,0.0,5.0,5.0,574.4594349998806,5.0,1.0,phase_2,go,200.0,100.0,1.0,,,,,,,,,magenta,triangle
0.0,1.0,0.5,0.0,5.0,5.0,365.3448000000026,5.0,1.0,phase_2,go,200.0,100.0,1.0,,,,,,,,,orange,circle
0.0,3.0,2.0,0.0,6.0,6.0,377.1218609999778,5.0,1.0,phase_2,go,200.0,100.0,1.0,,,,,,,,,green,cross
0.0,1.0,0.5,0.0,6.0,6.0,296.0934129996531,5.0,1.0,phase_2,go,200.0,100.0,1.0,,,,,,,,,orange,circle
0.0,4.0,4.0,0.0,5.0,5.0,238.0462900000566,5.0,1.0,phase_2,go,200.0,100.0,1.0,,,,,,,,,white,hexagon
0.0,3.0,2.0,0.0,5.0,5.0,338.8294000001224,5.0,1.0,phase_2,go,200.0,100.0,1.0,,,,,,,,,green,cross
0.0,3.0,2.0,0.0,6.0,6.0,384.6878619997369,5.0,1.0,phase_2,go,200.0,100.0,1.0,,,,,,,,,green,cross
0.0,1.0,0.5,0.0,5.0,5.0,353.97226699979,5.0,1.0,phase_2,go,200.0,100.0,1.0,,,,,,,,,orange,circle
0.0,6.0,1.0,1.0,5.0,5.0,332.5718400001278,5.0,1.0,phase_2,stop,200.0,100.0,3.0,,,,,,,,,cyan,flipped triangle
0.0,4.0,4.0,0.0,5.0,5.0,431.8261190001067,5.0,1.0,phase_2,go,150.0,100.0,1.0,,,,,,,,,white,hexagon
0.0,4.0,4.0,0.0,6.0,6.0,310.7121590001043,5.0,1.0,phase_2,go,150.0,100.0,1.0,,,,,,,,,white,hexagon
0.0,2.0,1.0,0.0,6.0,6.0,367.4482199999147,5.0,1.0,phase_2,go,150.0,100.0,1.0,,,,,,,,,magenta,triangle
0.0,8.0,4.0,1.0,5.0,0.0,0.0,5.0,1.0,phase_2,stop,150.0,100.0,4.0,,,,,,,,,gray,square
0.0,6.0,1.0,1.0,6.0,0.0,0.0,5.0,1.0,phase_2,stop,200.0,100.0,4.0,,,,,,,,,cyan,flipped triangle
0.0,5.0,0.5,1.0,6.0,0.0,0.0,5.0,1.0,phase_2,stop,200.0,150.0,4.0,,,,,,,,,yellow,I
0.0,6.0,1.0,1.0,5.0,5.0,422.290582000187,5.0,1.0,phase_2,go,200.0,200.0,1.0,,,,,,,,,cyan,flipped triangle
0.0,5.0,0.5,1.0,6.0,6.0,477.1518979996472,5.0,1.0,phase_2,go,200.0,200.0,1.0,,,,,,,,,yellow,I
0.0,6.0,1.0,1.0,6.0,6.0,340.7208789999458,5.0,1.0,phase_2,stop,200.0,200.0,3.0,,,,,,,,,cyan,flipped triangle
0.0,5.0,0.5,1.0,5.0,0.0,0.0,5.0,1.0,phase_2,stop,200.0,150.0,4.0,,,,,,,,,yellow,I
0.0,4.0,4.0,0.0,5.0,5.0,459.7793709999678,5.0,1.0,phase_2,go,250.0,150.0,1.0,,,,,,,,,white,hexagon
0.0,5.0,0.5,1.0,5.0,0.0,0.0,5.0,1.0,phase_2,stop,250.0,150.0,4.0,,,,,,,,,yellow,I
0.0,3.0,2.0,0.0,6.0,6.0,600.4664170000069,5.0,1.0,phase_2,go,300.0,150.0,1.0,,,,,,,,,green,cross
0.0,3.0,2.0,0.0,5.0,5.0,589.1569620002883,5.0,1.0,phase_2,go,300.0,150.0,1.0,,,,,,,,,green,cross
0.0,8.0,4.0,1.0,5.0,0.0,0.0,5.0,1.0,phase_2,stop,300.0,150.0,4.0,,,,,,,,,gray,square
0.0,2.0,1.0,0.0,6.0,6.0,365.825137000229,5.0,1.0,phase_2,go,350.0,150.0,1.0,,,,,,,,,magenta,triangle
0.0,3.0,2.0,0.0,5.0,5.0,429.0883610001401,5.0,1.0,phase_2,go,350.0,150.0,1.0,,,,,,,,,green,cross
0.0,4.0,4.0,0.0,5.0,5.0,393.3680380000623,5.0,1.0,phase_2,go,350.0,150.0,1.0,,,,,,,,,white,hexagon
0.0,8.0,4.0,1.0,6.0,0.0,0.0,6.0,1.0,phase_2,stop,350.0,150.0,4.0,,,,,,,,,gray,square
0.0,6.0,1.0,1.0,6.0,0.0,0.0,6.0,1.0,phase_2,stop,350.0,200.0,4.0,,,,,,,,,cyan,flipped triangle
0.0,8.0,4.0,1.0,6.0,0.0,0.0,6.0,1.0,phase_2,stop,350.0,250.0,4.0,,,,,,,,,gray,square
0.0,1.0,0.5,0.0,5.0,5.0,334.1368500000499,6.0,1.0,phase_2,go,350.0,300.0,1.0,,,,,,,,,orange,circle
0.0,5.0,0.5,1.0,5.0,5.0,378.6196050000399,6.0,1.0,phase_2,go,350.0,300.0,1.0,,,,,,,,,yellow,I
0.0,4.0,4.0,0.0,5.0,5.0,420.782446999965,6.0,1.0,phase_2,go,350.0,300.0,1.0,,,,,,,,,white,hexagon
0.0,7.0,2.0,1.0,5.0,0.0,0.0,6.0,1.0,phase_2,stop,350.0,300.0,4.0,,,,,,,,,blue,diamond
0.0,8.0,4.0,1.0,5.0,5.0,456.1023180003758,6.0,1.0,phase_2,stop,400.0,300.0,3.0,,,,,,,,,gray,square
0.0,7.0,2.0,1.0,5.0,0.0,0.0,6.0,1.0,phase_2,stop,350.0,300.0,4.0,,,,,,,,,blue,diamond
0.0,2.0,1.0,0.0,5.0,5.0,757.8516889998355,6.0,1.0,phase_2,go,400.0,300.0,1.0,,,,,,,,,magenta,triangle
0.0,8.0,4.0,1.0,6.0,6.0,386.2026189999596,6.0,1.0,phase_2,stop,400.0,300.0,3.0,,,,,,,,,gray,square
0.0,7.0,2.0,1.0,5.0,0.0,0.0,6.0,1.0,phase_2,stop,400.0,250.0,4.0,,,,,,,,,blue,diamond
0.0,5.0,0.5,1.0,5.0,0.0,0.0,6.0,1.0,phase_2,stop,450.0,250.0,4.0,,,,,,,,,yellow,I
0.0,8.0,4.0,1.0,5.0,5.0,577.4010019999878,6.0,1.0,phase_2,go,500.0,250.0,1.0,,,,,,,,,gray,square
0.0,5.0,0.5,1.0,6.0,6.0,506.7264890003571,6.0,1.0,phase_2,go,500.0,250.0,1.0,,,,,,,,,yellow,I
0.0,1.0,0.5,0.0,6.0,6.0,417.684687000019,6.0,1.0,phase_2,go,500.0,250.0,1.0,,,,,,,,,orange,circle
0.0,6.0,1.0,1.0,6.0,0.0,0.0,6.0,1.0,phase_2,stop,500.0,250.0,4.0,,,,,,,,,cyan,flipped triangle
0.0,2.0,1.0,0.0,6.0,6.0,536.5980940000554,6.0,1.0,phase_2,go,500.0,300.0,1.0,,,,,,,,,magenta,triangle
0.0,3.0,2.0,0.0,5.0,5.0,529.7901869998896,6.0,1.0,phase_2,go,500.0,300.0,1.0,,,,,,,,,green,cross
0.0,5.0,0.5,1.0,5.0,5.0,559.6181209998576,6.0,1.0,phase_2,go,500.0,300.0,1.0,,,,,,,,,yellow,I
0.0,1.0,0.5,0.0,6.0,6.0,385.3367189999517,6.0,1.0,phase_2,go,500.0,300.0,1.0,,,,,,,,,orange,circle
0.0,7.0,2.0,1.0,6.0,6.0,289.1935269999521,6.0,1.0,phase_2,stop,500.0,300.0,3.0,,,,,,,,,blue,diamond
0.0,5.0,0.5,1.0,6.0,6.0,691.6290359999948,6.0,1.0,phase_2,go,500.0,250.0,1.0,,,,,,,,,yellow,I
0.0,1.0,0.5,0.0,5.0,5.0,498.3471150003424,6.0,1.0,phase_2,go,500.0,250.0,1.0,,,,,,,,,orange,circle
0.0,6.0,1.0,1.0,6.0,6.0,381.8249219998506,6.0,1.0,phase_2,stop,500.0,250.0,3.0,,,,,,,,,cyan,flipped triangle
0.0,5.0,0.5,1.0,6.0,0.0,0.0,6.0,1.0,phase_2,stop,500.0,200.0,4.0,,,,,,,,,yellow,I
0.0,1.0,0.5,0.0,6.0,6.0,692.1286769998005,6.0,1.0,phase_2,go,500.0,250.0,1.0,,,,,,,,,orange,circle
0.0,8.0,4.0,1.0,6.0,0.0,0.0,6.0,1.0,phase_2,stop,500.0,250.0,4.0,,,,,,,,,gray,square
0.0,2.0,1.0,0.0,5.0,5.0,679.6557310003664,6.0,1.0,phase_2,go,500.0,300.0,1.0,,,,,,,,,magenta,triangle
0.0,3.0,2.0,0.0,5.0,5.0,445.4860460000418,6.0,1.0,phase_2,go,500.0,300.0,1.0,,,,,,,,,green,cross
0.0,1.0,0.5,0.0,6.0,6.0,285.8820410001499,6.0,1.0,phase_2,go,500.0,300.0,1.0,,,,,,,,,orange,circle
0.0,6.0,1.0,1.0,5.0,5.0,348.5403939998832,6.0,1.0,phase_2,stop,500.0,300.0,3.0,,,,,,,,,cyan,flipped triangle
0.0,2.0,1.0,0.0,6.0,6.0,503.7216499999886,6.0,1.0,phase_2,go,450.0,300.0,1.0,,,,,,,,,magenta,triangle
0.0,5.0,0.5,1.0,5.0,5.0,407.4773140000616,6.0,1.0,phase_2,stop,450.0,300.0,3.0,,,,,,,,,yellow,I
0.0,5.0,0.5,1.0,6.0,0.0,0.0,6.0,1.0,phase_2,stop,400.0,300.0,4.0,,,,,,,,,yellow,I
0.0,4.0,4.0,0.0,5.0,5.0,494.9190209999869,6.0,1.0,phase_2,go,400.0,350.0,1.0,,,,,,,,,white,hexagon
0.0,1.0,0.5,0.0,6.0,5.0,872.6335470000777,7.0,1.0,phase_2,go,400.0,350.0,2.0,,,,,,,,,orange,circle
0.0,6.0,1.0,1.0,5.0,5.0,329.722533000222,7.0,1.0,phase_2,stop,400.0,350.0,3.0,,,,,,,,,cyan,flipped triangle
0.0,7.0,2.0,1.0,5.0,5.0,465.1685190001444,7.0,1.0,phase_2,stop,350.0,350.0,3.0,,,,,,,,,blue,diamond
0.0,1.0,0.5,0.0,5.0,5.0,520.1564700000745,7.0,1.0,phase_2,go,300.0,350.0,1.0,,,,,,,,,orange,circle
0.0,3.0,2.0,0.0,6.0,6.0,285.8225699997092,7.0,1.0,phase_2,go,300.0,350.0,1.0,,,,,,,,,green,cross
0.0,7.0,2.0,1.0,5.0,5.0,275.5165910002688,7.0,1.0,phase_2,stop,300.0,350.0,3.0,,,,,,,,,blue,diamond
0.0,5.0,0.5,1.0,6.0,6.0,298.2882789997347,7.0,1.0,phase_2,stop,250.0,350.0,3.0,,,,,,,,,yellow,I
0.0,6.0,1.0,1.0,5.0,5.0,680.9292359998835,7.0,1.0,phase_2,go,250.0,300.0,1.0,,,,,,,,,cyan,flipped triangle
0.0,7.0,2.0,1.0,6.0,6.0,636.944393000249,7.0,1.0,phase_2,go,250.0,300.0,1.0,,,,,,,,,blue,diamond
0.0,6.0,1.0,1.0,6.0,0.0,0.0,7.0,1.0,phase_2,stop,250.0,300.0,4.0,,,,,,,,,cyan,flipped triangle
0.0,4.0,4.0,0.0,6.0,6.0,548.4763399999792,7.0,1.0,phase_2,go,250.0,350.0,1.0,,,,,,,,,white,hexagon
0.0,8.0,4.0,1.0,5.0,5.0,377.8784289997929,7.0,1.0,phase_2,stop,250.0,350.0,3.0,,,,,,,,,gray,square
0.0,2.0,1.0,0.0,5.0,5.0,568.8181460000123,7.0,1.0,phase_2,go,200.0,350.0,1.0,,,,,,,,,magenta,triangle
0.0,5.0,0.5,1.0,6.0,6.0,406.153452000126,7.0,1.0,phase_2,stop,200.0,350.0,3.0,,,,,,,,,yellow,I
0.0,3.0,2.0,0.0,5.0,5.0,558.3191539999461,7.0,1.0,phase_2,go,200.0,300.0,1.0,,,,,,,,,green,cross
0.0,8.0,4.0,1.0,5.0,0.0,0.0,7.0,1.0,phase_2,stop,200.0,300.0,4.0,,,,,,,,,gray,square
0.0,4.0,4.0,0.0,6.0,6.0,578.8678769999933,7.0,1.0,phase_2,go,250.0,300.0,1.0,,,,,,,,,white,hexagon
0.0,3.0,2.0,0.0,5.0,5.0,380.573526000262,7.0,1.0,phase_2,go,250.0,300.0,1.0,,,,,,,,,green,cross
0.0,8.0,4.0,1.0,6.0,6.0,358.3347690000664,7.0,1.0,phase_2,stop,250.0,300.0,3.0,,,,,,,,,gray,square
0.0,3.0,2.0,0.0,5.0,5.0,570.0382230002106,7.0,1.0,phase_2,go,250.0,250.0,1.0,,,,,,,,,green,cross
0.0,8.0,4.0,1.0,5.0,5.0,381.7386820001047,7.0,1.0,phase_2,go,250.0,250.0,1.0,,,,,,,,,gray,square
0.0,1.0,0.5,0.0,6.0,6.0,281.0025410003618,7.0,1.0,phase_2,go,250.0,250.0,1.0,,,,,,,,,orange,circle
0.0,6.0,1.0,1.0,5.0,5.0,286.0524719999375,7.0,1.0,phase_2,stop,250.0,250.0,3.0,,,,,,,,,cyan,flipped triangle
0.0,3.0,2.0,0.0,6.0,6.0,289.0674620002755,7.0,1.0,phase_2,go,200.0,250.0,1.0,,,,,,,,,green,cross
0.0,7.0,2.0,1.0,6.0,6.0,386.5078879998691,7.0,1.0,phase_2,stop,200.0,250.0,3.0,,,,,,,,,blue,diamond
0.0,1.0,0.5,0.0,6.0,6.0,373.972490000142,7.0,1.0,phase_2,go,200.0,200.0,1.0,,,,,,,,,orange,circle
0.0,8.0,4.0,1.0,5.0,5.0,426.4489500001218,7.0,1.0,phase_2,go,200.0,200.0,1.0,,,,,,,,,gray,square
0.0,3.0,2.0,0.0,5.0,5.0,521.1464520002664,7.0,1.0,phase_2,go,200.0,200.0,1.0,,,,,,,,,green,cross
0.0,6.0,1.0,1.0,6.0,0.0,0.0,7.0,1.0,phase_2,stop,200.0,200.0,4.0,,,,,,,,,cyan,flipped triangle
0.0,6.0,1.0,1.0,5.0,0.0,0.0,7.0,1.0,phase_2,stop,200.0,250.0,4.0,,,,,,,,,cyan,flipped triangle
0.0,4.0,4.0,0.0,5.0,5.0,562.8317380001135,7.0,1.0,phase_2,go,250.0,250.0,1.0,,,,,,,,,white,hexagon
0.0,5.0,0.5,1.0,6.0,6.0,521.6853510000874,7.0,1.0,phase_2,go,250.0,250.0,1.0,,,,,,,,,yellow,I
0.0,4.0,4.0,0.0,5.0,5.0,520.3661919999831,7.0,1.0,phase_2,go,250.0,250.0,1.0,,,,,,,,,white,hexagon
0.0,5.0,0.5,1.0,5.0,5.0,496.4941670000371,7.0,1.0,phase_2,go,250.0,250.0,1.0,,,,,,,,,yellow,I
0.0,7.0,2.0,1.0,5.0,0.0,0.0,7.0,1.0,phase_2,stop,250.0,250.0,4.0,,,,,,,,,blue,diamond
0.0,8.0,4.0,1.0,5.0,5.0,501.41646199972456,7.0,1.0,phase_2,go,300.0,250.0,1.0,,,,,,,,,gray,square
0.0,8.0,4.0,1.0,6.0,6.0,562.7372409999225,8.0,1.0,phase_2,stop,300.0,250.0,3.0,,,,,,,,,gray,square
0.0,4.0,4.0,0.0,6.0,6.0,486.6636029996698,8.0,1.0,phase_2,go,300.0,200.0,1.0,,,,,,,,,white,hexagon
0.0,5.0,0.5,1.0,5.0,0.0,0.0,8.0,1.0,phase_2,stop,300.0,200.0,4.0,,,,,,,,,yellow,I
0.0,7.0,2.0,1.0,6.0,6.0,293.3081109999875,8.0,1.0,phase_2,stop,350.0,200.0,3.0,,,,,,,,,blue,diamond
0.0,2.0,1.0,0.0,6.0,6.0,407.870998999897,8.0,1.0,phase_2,go,350.0,150.0,1.0,,,,,,,,,magenta,triangle
0.0,5.0,0.5,1.0,6.0,0.0,0.0,8.0,1.0,phase_2,stop,350.0,150.0,4.0,,,,,,,,,yellow,I
0.0,7.0,2.0,1.0,6.0,0.0,0.0,8.0,1.0,phase_2,stop,350.0,200.0,4.0,,,,,,,,,blue,diamond
0.0,1.0,0.5,0.0,6.0,6.0,504.5761589999529,8.0,1.0,phase_2,go,350.0,250.0,1.0,,,,,,,,,orange,circle
0.0,4.0,4.0,0.0,5.0,5.0,638.7869400000454,8.0,1.0,phase_2,go,350.0,250.0,1.0,,,,,,,,,white,hexagon
0.0,7.0,2.0,1.0,6.0,0.0,0.0,8.0,1.0,phase_2,stop,350.0,250.0,4.0,,,,,,,,,blue,diamond
0.0,7.0,2.0,1.0,5.0,5.0,486.8576979997669,8.0,1.0,phase_2,stop,350.0,300.0,3.0,,,,,,,,,blue,diamond
0.0,5.0,0.5,1.0,6.0,0.0,0.0,8.0,1.0,phase_2,stop,300.0,300.0,4.0,,,,,,,,,yellow,I
0.0,1.0,0.5,0.0,5.0,5.0,383.5061449999557,8.0,1.0,phase_2,go,300.0,350.0,1.0,,,,,,,,,orange,circle
0.0,3.0,2.0,0.0,5.0,5.0,538.9807659998951,8.0,1.0,phase_2,go,300.0,350.0,1.0,,,,,,,,,green,cross
0.0,6.0,1.0,1.0,6.0,6.0,514.8694069998783,8.0,1.0,phase_2,stop,300.0,350.0,3.0,,,,,,,,,cyan,flipped triangle
0.0,8.0,4.0,1.0,5.0,0.0,0.0,8.0,1.0,phase_2,stop,300.0,300.0,4.0,,,,,,,,,gray,square
0.0,8.0,4.0,1.0,6.0,0.0,0.0,8.0,1.0,phase_2,stop,350.0,300.0,4.0,,,,,,,,,gray,square
0.0,2.0,1.0,0.0,6.0,6.0,527.3660440002459,8.0,1.0,phase_2,go,350.0,350.0,1.0,,,,,,,,,magenta,triangle
0.0,1.0,0.5,0.0,5.0,5.0,459.5856529999764,8.0,1.0,phase_2,go,350.0,350.0,1.0,,,,,,,,,orange,circle
0.0,5.0,0.5,1.0,5.0,5.0,392.5722009998935,8.0,1.0,phase_2,stop,350.0,350.0,3.0,,,,,,,,,yellow,I
0.0,4.0,4.0,0.0,5.0,5.0,343.902168999648,8.0,1.0,phase_2,go,300.0,350.0,1.0,,,,,,,,,white,hexagon
0.0,3.0,2.0,0.0,6.0,6.0,386.162153999976,8.0,1.0,phase_2,go,300.0,350.0,1.0,,,,,,,,,green,cross
0.0,5.0,0.5,1.0,5.0,5.0,349.2484429998512,8.0,1.0,phase_2,stop,300.0,350.0,3.0,,,,,,,,,yellow,I
0.0,2.0,1.0,0.0,5.0,5.0,839.4862959999045,8.0,1.0,phase_2,go,250.0,350.0,1.0,,,,,,,,,magenta,triangle
0.0,8.0,4.0,1.0,6.0,0.0,0.0,8.0,1.0,phase_2,stop,250.0,350.0,4.0,,,,,,,,,gray,square
0.0,1.0,0.5,0.0,5.0,5.0,402.2213289999854,8.0,1.0,phase_2,go,250.0,400.0,1.0,,,,,,,,,orange,circle
0.0,2.0,1.0,0.0,5.0,5.0,431.190049000179,8.0,1.0,phase_2,go,250.0,400.0,1.0,,,,,,,,,magenta,triangle
0.0,1.0,0.5,0.0,5.0,5.0,533.7855960001434,8.0,1.0,phase_2,go,250.0,400.0,1.0,,,,,,,,,orange,circle
0.0,2.0,1.0,0.0,5.0,5.0,447.9893369998535,8.0,1.0,phase_2,go,250.0,400.0,1.0,,,,,,,,,magenta,triangle
0.0,3.0,2.0,0.0,6.0,6.0,360.038546999931,8.0,1.0,phase_2,go,250.0,400.0,1.0,,,,,,,,,green,cross
0.0,7.0,2.0,1.0,6.0,6.0,443.6334520000855,8.0,1.0,phase_2,go,250.0,400.0,1.0,,,,,,,,,blue,diamond
0.0,3.0,2.0,0.0,6.0,6.0,469.4703640002444,8.0,1.0,phase_2,go,250.0,400.0,1.0,,,,,,,,,green,cross
0.0,4.0,4.0,0.0,5.0,5.0,368.4547110001404,8.0,1.0,phase_2,go,250.0,400.0,1.0,,,,,,,,,white,hexagon
0.0,7.0,2.0,1.0,6.0,6.0,436.2260449997848,8.0,1.0,phase_2,stop,250.0,400.0,3.0,,,,,,,,,blue,diamond
0.0,6.0,1.0,1.0,6.0,0.0,0.0,8.0,1.0,phase_2,stop,250.0,350.0,4.0,,,,,,,,,cyan,flipped triangle
0.0,5.0,0.5,1.0,6.0,0.0,0.0,8.0,1.0,phase_2,stop,250.0,400.0,4.0,,,,,,,,,yellow,I
0.0,8.0,4.0,1.0,7.0,3.0,2663.62885199942,1.0,1.0,phase_3,,,,,162.0,3.0,108.0,324.0,162.0,270.0,54.0,216.0,gray,square
0.0,4.0,4.0,0.0,7.0,4.0,3081.703916000152,1.0,1.0,phase_3,,,,,245.0,5.0,196.0,49.0,294.0,245.0,147.0,98.0,white,hexagon
0.0,3.0,2.0,0.0,7.0,1.0,3528.0266159998064,1.0,1.0,phase_3,,,,,54.0,1.0,54.0,324.0,108.0,270.0,162.0,216.0,green,cross
0.0,1.0,0.5,0.0,7.0,6.0,1534.7033959997134,1.0,1.0,phase_3,,,,,294.0,6.0,196.0,98.0,49.0,147.0,245.0,294.0,orange,circle
0.0,8.0,4.0,1.0,7.0,2.0,2466.1818340000536,1.0,1.0,phase_3,,,,,294.0,6.0,196.0,294.0,98.0,147.0,49.0,245.0,gray,square
0.0,6.0,1.0,1.0,7.0,5.0,1116.5397400000074,1.0,1.0,phase_3,,,,,39.0,1.0,117.0,234.0,195.0,78.0,39.0,156.0,cyan,flipped triangle
0.0,3.0,2.0,0.0,7.0,5.0,2999.754882999696,1.0,1.0,phase_3,,,,,216.0,4.0,162.0,54.0,108.0,324.0,216.0,270.0,green,cross
0.0,1.0,0.5,0.0,7.0,3.0,2114.766309000516,1.0,1.0,phase_3,,,,,324.0,6.0,54.0,162.0,324.0,108.0,216.0,270.0,orange,circle
0.0,1.0,0.5,0.0,7.0,5.0,1632.5345799996285,1.0,1.0,phase_3,,,,,264.0,6.0,88.0,132.0,176.0,220.0,264.0,44.0,orange,circle
0.0,4.0,4.0,0.0,7.0,1.0,2211.2332039996545,1.0,1.0,phase_3,,,,,34.0,1.0,34.0,102.0,68.0,204.0,170.0,136.0,white,hexagon
0.0,8.0,4.0,1.0,7.0,6.0,934.8673520007652,1.0,1.0,phase_3,,,,,147.0,3.0,245.0,49.0,294.0,98.0,196.0,147.0,gray,square
0.0,7.0,2.0,1.0,7.0,4.0,1928.0724430000191,1.0,1.0,phase_3,,,,,245.0,5.0,196.0,49.0,294.0,245.0,98.0,147.0,blue,diamond
0.0,6.0,1.0,1.0,7.0,2.0,1308.451688999412,1.0,1.0,phase_3,,,,,196.0,4.0,245.0,196.0,294.0,147.0,98.0,49.0,cyan,flipped triangle
0.0,2.0,1.0,0.0,7.0,4.0,3925.8500739997535,1.0,1.0,phase_3,,,,,98.0,2.0,147.0,294.0,245.0,98.0,49.0,196.0,magenta,triangle
0.0,8.0,4.0,1.0,7.0,2.0,1022.9303810001511,1.0,1.0,phase_3,,,,,264.0,6.0,88.0,264.0,132.0,44.0,176.0,220.0,gray,square
0.0,5.0,0.5,1.0,7.0,2.0,1401.0244290002447,1.0,1.0,phase_3,,,,,88.0,2.0,220.0,88.0,176.0,44.0,132.0,264.0,yellow,I
0.0,1.0,0.5,0.0,7.0,5.0,1145.329489000687,1.0,1.0,phase_3,,,,,264.0,6.0,176.0,44.0,88.0,220.0,264.0,132.0,orange,circle
0.0,3.0,2.0,0.0,7.0,4.0,1505.3310530001909,1.0,1.0,phase_3,,,,,49.0,1.0,294.0,98.0,245.0,49.0,196.0,147.0,green,cross
0.0,7.0,2.0,1.0,7.0,1.0,1977.9725150001468,1.0,1.0,phase_3,,,,,204.0,6.0,204.0,68.0,136.0,170.0,102.0,34.0,blue,diamond
0.0,5.0,0.5,1.0,7.0,6.0,1496.8412029993488,1.0,1.0,phase_3,,,,,88.0,2.0,264.0,220.0,44.0,132.0,176.0,88.0,yellow,I
0.0,5.0,0.5,1.0,7.0,3.0,2356.258460999925,2.0,1.0,phase_3,,,,,108.0,2.0,324.0,54.0,108.0,216.0,162.0,270.0,yellow,I
0.0,7.0,2.0,1.0,7.0,1.0,3229.9303919999147,2.0,1.0,phase_3,,,,,234.0,6.0,234.0,78.0,195.0,39.0,156.0,117.0,blue,diamond
0.0,8.0,4.0,1.0,7.0,5.0,2041.2621559999025,2.0,1.0,phase_3,,,,,117.0,3.0,156.0,195.0,78.0,39.0,117.0,234.0,gray,square
0.0,1.0,0.5,0.0,7.0,4.0,1680.0230620001455,2.0,1.0,phase_3,,,,,294.0,6.0,245.0,98.0,196.0,294.0,49.0,147.0,orange,circle
0.0,4.0,4.0,0.0,7.0,6.0,823.2141649996265,2.0,1.0,phase_3,,,,,78.0,2.0,117.0,234.0,156.0,195.0,39.0,78.0,white,hexagon
0.0,4.0,4.0,0.0,7.0,6.0,2999.083036999764,2.0,1.0,phase_3,,,,,108.0,2.0,324.0,216.0,270.0,162.0,54.0,108.0,white,hexagon
0.0,5.0,0.5,1.0,7.0,6.0,4602.224209000269,2.0,1.0,phase_3,,,,,102.0,3.0,68.0,170.0,136.0,204.0,34.0,102.0,yellow,I
0.0,7.0,2.0,1.0,7.0,3.0,3638.4860309999567,2.0,1.0,phase_3,,,,,264.0,6.0,88.0,176.0,264.0,132.0,44.0,220.0,blue,diamond
0.0,3.0,2.0,0.0,7.0,4.0,1740.0380319995747,2.0,1.0,phase_3,,,,,136.0,4.0,68.0,170.0,102.0,136.0,34.0,204.0,green,cross
0.0,6.0,1.0,1.0,7.0,1.0,2756.541050999658,2.0,1.0,phase_3,,,,,196.0,4.0,196.0,49.0,98.0,294.0,147.0,245.0,cyan,flipped triangle
0.0,6.0,1.0,1.0,7.0,5.0,1312.827273000039,2.0,1.0,phase_3,,,,,136.0,4.0,68.0,170.0,204.0,102.0,136.0,34.0,cyan,flipped triangle
0.0,6.0,1.0,1.0,7.0,1.0,2176.7128179999418,2.0,1.0,phase_3,,,,,132.0,3.0,132.0,176.0,264.0,220.0,88.0,44.0,cyan,flipped triangle
0.0,8.0,4.0,1.0,7.0,2.0,1162.8206549994502,2.0,1.0,phase_3,,,,,156.0,4.0,39.0,156.0,195.0,78.0,117.0,234.0,gray,square
0.0,2.0,1.0,0.0,7.0,4.0,363.9489609995507,2.0,1.0,phase_3,,,,,196.0,4.0,245.0,49.0,98.0,196.0,294.0,147.0,magenta,triangle
0.0,1.0,0.5,0.0,7.0,5.0,891.1930679996658,2.0,1.0,phase_3,,,,,136.0,4.0,170.0,34.0,68.0,102.0,136.0,204.0,orange,circle
0.0,2.0,1.0,0.0,7.0,5.0,2381.1107089995858,2.0,1.0,phase_3,,,,,162.0,3.0,324.0,216.0,270.0,108.0,162.0,54.0,magenta,triangle
0.0,7.0,2.0,1.0,7.0,3.0,230.6323839993638,2.0,1.0,phase_3,,,,,78.0,2.0,156.0,234.0,78.0,39.0,195.0,117.0,blue,diamond
0.0,4.0,4.0,0.0,7.0,4.0,1083.3338140000706,2.0,1.0,phase_3,,,,,88.0,2.0,220.0,264.0,176.0,88.0,132.0,44.0,white,hexagon
0.0,8.0,4.0,1.0,7.0,2.0,1364.7686849999443,2.0,1.0,phase_3,,,,,324.0,6.0,270.0,324.0,216.0,108.0,54.0,162.0,gray,square
0.0,8.0,4.0,1.0,7.0,5.0,1745.167443000355,2.0,1.0,phase_3,,,,,204.0,6.0,68.0,136.0,102.0,170.0,204.0,34.0,gray,square
0.0,5.0,0.5,1.0,7.0,5.0,1806.5601750004132,3.0,1.0,phase_3,,,,,49.0,1.0,294.0,147.0,196.0,98.0,49.0,245.0,yellow,I
0.0,4.0,4.0,0.0,7.0,1.0,2252.7170140001544,3.0,1.0,phase_3,,,,,170.0,5.0,170.0,68.0,136.0,204.0,102.0,34.0,white,hexagon
0.0,4.0,4.0,0.0,7.0,6.0,2134.197471000334,3.0,1.0,phase_3,,,,,117.0,3.0,234.0,195.0,78.0,156.0,39.0,117.0,white,hexagon
0.0,3.0,2.0,0.0,7.0,4.0,1187.8336079998917,3.0,1.0,phase_3,,,,,78.0,2.0,234.0,117.0,39.0,78.0,195.0,156.0,green,cross
0.0,7.0,2.0,1.0,7.0,2.0,1770.8121510004275,3.0,1.0,phase_3,,,,,170.0,5.0,204.0,170.0,136.0,102.0,34.0,68.0,blue,diamond
0.0,5.0,0.5,1.0,7.0,2.0,829.6679370005222,3.0,1.0,phase_3,,,,,54.0,1.0,216.0,54.0,270.0,162.0,324.0,108.0,yellow,I
0.0,2.0,1.0,0.0,7.0,5.0,212.6355090003926,3.0,1.0,phase_3,,,,,39.0,1.0,78.0,156.0,234.0,195.0,39.0,117.0,magenta,triangle
0.0,1.0,0.5,0.0,7.0,1.0,520.1998180000373,3.0,1.0,phase_3,,,,,54.0,1.0,54.0,324.0,216.0,270.0,108.0,162.0,orange,circle
0.0,2.0,1.0,0.0,7.0,6.0,273.2856829998127,3.0,1.0,phase_3,,,,,204.0,6.0,136.0,68.0,34.0,102.0,170.0,204.0,magenta,triangle
0.0,5.0,0.5,1.0,7.0,6.0,607.4617670001317,3.0,1.0,phase_3,,,,,245.0,5.0,196.0,147.0,294.0,49.0,98.0,245.0,yellow,I
0.0,3.0,2.0,0.0,7.0,1.0,338.1932029997188,3.0,1.0,phase_3,,,,,102.0,3.0,102.0,68.0,136.0,34.0,170.0,204.0,green,cross
0.0,6.0,1.0,1.0,7.0,4.0,54.158715000084996,3.0,1.0,phase_3,,,,,270.0,5.0,216.0,108.0,324.0,270.0,54.0,162.0,cyan,flipped triangle
0.0,2.0,1.0,0.0,7.0,1.0,294.4572019996485,3.0,1.0,phase_3,,,,,88.0,2.0,88.0,264.0,44.0,132.0,176.0,220.0,magenta,triangle
0.0,3.0,2.0,0.0,7.0,3.0,486.333339000339,3.0,1.0,phase_3,,,,,78.0,2.0,117.0,156.0,78.0,195.0,39.0,234.0,green,cross
0.0,1.0,0.5,0.0,7.0,2.0,661.0824350000257,3.0,1.0,phase_3,,,,,234.0,6.0,156.0,234.0,78.0,117.0,195.0,39.0,orange,circle
0.0,7.0,2.0,1.0,7.0,5.0,446.8019710002409,3.0,1.0,phase_3,,,,,216.0,4.0,162.0,324.0,54.0,108.0,216.0,270.0,blue,diamond
0.0,7.0,2.0,1.0,7.0,3.0,1011.0512339997513,3.0,1.0,phase_3,,,,,162.0,3.0,270.0,54.0,162.0,324.0,108.0,216.0,blue,diamond
0.0,2.0,1.0,0.0,7.0,5.0,951.2018650002574,3.0,1.0,phase_3,,,,,136.0,4.0,170.0,204.0,34.0,102.0,136.0,68.0,magenta,triangle
0.0,7.0,2.0,1.0,7.0,1.0,647.4098500002583,3.0,1.0,phase_3,,,,,245.0,5.0,245.0,294.0,98.0,196.0,147.0,49.0,blue,diamond
0.0,2.0,1.0,0.0,7.0,1.0,1240.0395920003575,3.0,1.0,phase_3,,,,,54.0,1.0,54.0,216.0,162.0,270.0,108.0,324.0,magenta,triangle
0.0,2.0,1.0,0.0,7.0,6.0,1023.4415800005081,4.0,1.0,phase_3,,,,,176.0,4.0,220.0,264.0,132.0,44.0,88.0,176.0,magenta,triangle
0.0,5.0,0.5,1.0,7.0,4.0,462.427330000537,4.0,1.0,phase_3,,,,,170.0,5.0,68.0,136.0,34.0,170.0,102.0,204.0,yellow,I
0.0,6.0,1.0,1.0,7.0,6.0,1002.2744790003344,4.0,1.0,phase_3,,,,,88.0,2.0,44.0,220.0,176.0,132.0,264.0,88.0,cyan,flipped triangle
0.0,8.0,4.0,1.0,7.0,2.0,351.6785900001196,4.0,1.0,phase_3,,,,,102.0,3.0,170.0,102.0,68.0,204.0,136.0,34.0,gray,square
0.0,5.0,0.5,1.0,7.0,4.0,1055.4697170000509,4.0,1.0,phase_3,,,,,39.0,1.0,78.0,234.0,195.0,39.0,156.0,117.0,yellow,I
0.0,5.0,0.5,1.0,7.0,2.0,1033.317497999633,4.0,1.0,phase_3,,,,,39.0,1.0,195.0,39.0,156.0,234.0,117.0,78.0,yellow,I
0.0,4.0,4.0,0.0,7.0,5.0,543.9554810000118,4.0,1.0,phase_3,,,,,294.0,6.0,49.0,147.0,245.0,196.0,294.0,98.0,white,hexagon
0.0,6.0,1.0,1.0,7.0,4.0,487.9607789998772,4.0,1.0,phase_3,,,,,156.0,4.0,78.0,117.0,39.0,156.0,234.0,195.0,cyan,flipped triangle
0.0,2.0,1.0,0.0,7.0,1.0,635.2416559993799,4.0,1.0,phase_3,,,,,117.0,3.0,117.0,195.0,39.0,156.0,234.0,78.0,magenta,triangle
0.0,3.0,2.0,0.0,7.0,2.0,353.0099279996648,4.0,1.0,phase_3,,,,,264.0,6.0,44.0,264.0,220.0,88.0,176.0,132.0,green,cross
0.0,6.0,1.0,1.0,7.0,4.0,256.4097840004251,4.0,1.0,phase_3,,,,,216.0,4.0,270.0,108.0,54.0,216.0,162.0,324.0,cyan,flipped triangle
0.0,1.0,0.5,0.0,7.0,5.0,388.8985289995617,4.0,1.0,phase_3,,,,,170.0,5.0,102.0,136.0,204.0,34.0,170.0,68.0,orange,circle
0.0,7.0,2.0,1.0,7.0,2.0,499.014468000496,4.0,1.0,phase_3,,,,,88.0,2.0,44.0,88.0,176.0,264.0,132.0,220.0,blue,diamond
0.0,6.0,1.0,1.0,7.0,3.0,961.5492940001786,4.0,1.0,phase_3,,,,,170.0,5.0,68.0,102.0,170.0,34.0,204.0,136.0,cyan,flipped triangle
0.0,3.0,2.0,0.0,7.0,4.0,549.9043469999378,4.0,1.0,phase_3,,,,,132.0,3.0,44.0,220.0,88.0,132.0,176.0,264.0,green,cross
0.0,4.0,4.0,0.0,7.0,5.0,534.1522979997535,4.0,1.0,phase_3,,,,,108.0,2.0,54.0,270.0,216.0,162.0,108.0,324.0,white,hexagon
0.0,4.0,4.0,0.0,7.0,5.0,967.1821579995594,4.0,1.0,phase_3,,,,,176.0,4.0,132.0,264.0,88.0,44.0,176.0,220.0,white,hexagon
0.0,1.0,0.5,0.0,7.0,3.0,414.1429569999673,4.0,1.0,phase_3,,,,,156.0,4.0,78.0,39.0,156.0,195.0,234.0,117.0,orange,circle
0.0,8.0,4.0,1.0,7.0,1.0,270.7294900001216,4.0,1.0,phase_3,,,,,220.0,5.0,220.0,88.0,176.0,44.0,132.0,264.0,gray,square
0.0,3.0,2.0,0.0,7.0,4.0,635.8157750000828,4.0,1.0,phase_3,,,,,98.0,2.0,294.0,245.0,196.0,98.0,49.0,147.0,green,cross
