raw_reward_magnitude,stim_reward,stepwise_reward_magnitude,paired_with_stopping,quadrant,response,reaction_time,block,num_trial_presentations,which_part,stop_signal_trial_type,left_SSD,right_SSD,accuracy,chosen_bidding_amount,chosen_bidding_level,possible_bid_1,possible_bid_2,possible_bid_3,possible_bid_4,possible_bid_5,possible_bid_6,color_text,shape_text
398.0,4.0,4.0,0.0,4.0,4.0,386.8730539998068,1.0,1.0,part_1,,,,,,,,,,,,,yellow,triangle
194.0,7.0,3.0,1.0,1.0,1.0,414.6194530003413,1.0,1.0,part_1,,,,,,,,,,,,,white,circle
59.0,1.0,1.0,0.0,2.0,2.0,348.8772959999551,1.0,1.0,part_1,,,,,,,,,,,,,cyan,flipped triangle
0.0,5.0,0.0,1.0,3.0,3.0,372.3618510002779,1.0,1.0,part_1,,,,,,,,,,,,,orange,square
39.0,5.0,1.0,1.0,4.0,4.0,344.2245400001411,1.0,1.0,part_1,,,,,,,,,,,,,orange,square
0.0,7.0,0.0,1.0,4.0,4.0,383.4574640000028,1.0,1.0,part_1,,,,,,,,,,,,,white,circle
71.0,1.0,1.0,0.0,1.0,1.0,341.5077169997857,1.0,1.0,part_1,,,,,,,,,,,,,cyan,flipped triangle
195.0,3.0,3.0,0.0,4.0,4.0,356.9368029998259,1.0,1.0,part_1,,,,,,,,,,,,,blue,hexagon
0.0,8.0,0.0,1.0,1.0,1.0,384.7950899998977,1.0,1.0,part_1,,,,,,,,,,,,,magenta,cross
179.0,3.0,3.0,0.0,3.0,3.0,321.7832610002915,1.0,1.0,part_1,,,,,,,,,,,,,blue,hexagon
32.0,5.0,1.0,1.0,2.0,2.0,290.9002970000074,1.0,1.0,part_1,,,,,,,,,,,,,orange,square
124.0,6.0,2.0,1.0,4.0,4.0,281.3006440001118,1.0,1.0,part_1,,,,,,,,,,,,,gray,diamond
28.0,5.0,1.0,1.0,3.0,3.0,331.0230970000702,1.0,1.0,part_1,,,,,,,,,,,,,orange,square
0.0,6.0,0.0,1.0,3.0,3.0,314.2375110001012,1.0,1.0,part_1,,,,,,,,,,,,,gray,diamond
76.0,2.0,2.0,0.0,3.0,3.0,360.1841459999377,1.0,1.0,part_1,,,,,,,,,,,,,green,I
0.0,5.0,0.0,1.0,2.0,2.0,319.4840770001974,1.0,1.0,part_1,,,,,,,,,,,,,orange,square
0.0,7.0,0.0,1.0,1.0,1.0,371.3484049999351,1.0,1.0,part_1,,,,,,,,,,,,,white,circle
94.0,6.0,2.0,1.0,2.0,2.0,353.3834879999631,1.0,1.0,part_1,,,,,,,,,,,,,gray,diamond
0.0,1.0,0.0,0.0,4.0,4.0,244.6229820002372,1.0,1.0,part_1,,,,,,,,,,,,,cyan,flipped triangle
400.0,8.0,4.0,1.0,4.0,4.0,291.0967140001048,1.0,1.0,part_1,,,,,,,,,,,,,magenta,cross
179.0,3.0,3.0,0.0,4.0,4.0,286.5901540003506,1.0,1.0,part_1,,,,,,,,,,,,,blue,hexagon
399.0,4.0,4.0,0.0,2.0,2.0,335.5893750003815,1.0,1.0,part_1,,,,,,,,,,,,,yellow,triangle
74.0,1.0,1.0,0.0,4.0,4.0,288.7594879998687,1.0,1.0,part_1,,,,,,,,,,,,,cyan,flipped triangle
205.0,7.0,3.0,1.0,2.0,2.0,290.0821140001426,1.0,1.0,part_1,,,,,,,,,,,,,white,circle
416.0,8.0,4.0,1.0,3.0,3.0,328.7805350000781,1.0,1.0,part_1,,,,,,,,,,,,,magenta,cross
71.0,1.0,1.0,0.0,1.0,1.0,290.5186789998879,1.0,1.0,part_1,,,,,,,,,,,,,cyan,flipped triangle
400.0,4.0,4.0,0.0,3.0,3.0,273.8420999999107,1.0,1.0,part_1,,,,,,,,,,,,,yellow,triangle
0.0,1.0,0.0,0.0,4.0,4.0,275.424036000004,1.0,1.0,part_1,,,,,,,,,,,,,cyan,flipped triangle
115.0,6.0,2.0,1.0,3.0,3.0,314.0180899999905,1.0,1.0,part_1,,,,,,,,,,,,,gray,diamond
175.0,7.0,3.0,1.0,2.0,2.0,318.0212070001289,1.0,1.0,part_1,,,,,,,,,,,,,white,circle
107.0,2.0,2.0,0.0,1.0,1.0,498.0026769999313,1.0,1.0,part_1,,,,,,,,,,,,,green,I
41.0,5.0,1.0,1.0,3.0,3.0,393.3907020000333,1.0,1.0,part_1,,,,,,,,,,,,,orange,square
0.0,5.0,0.0,1.0,4.0,4.0,316.3781620000918,1.0,1.0,part_1,,,,,,,,,,,,,orange,square
416.0,8.0,4.0,1.0,1.0,1.0,384.0036569999938,1.0,1.0,part_1,,,,,,,,,,,,,magenta,cross
208.0,7.0,3.0,1.0,1.0,1.0,351.1915550002413,1.0,1.0,part_1,,,,,,,,,,,,,white,circle
64.0,5.0,1.0,1.0,4.0,4.0,292.0466840000699,1.0,1.0,part_1,,,,,,,,,,,,,orange,square
74.0,5.0,1.0,1.0,2.0,2.0,300.8625319998828,1.0,1.0,part_1,,,,,,,,,,,,,orange,square
71.0,5.0,1.0,1.0,2.0,2.0,325.5626760001178,1.0,1.0,part_1,,,,,,,,,,,,,orange,square
32.0,1.0,1.0,0.0,3.0,3.0,312.4941349997243,1.0,1.0,part_1,,,,,,,,,,,,,cyan,flipped triangle
76.0,2.0,2.0,0.0,1.0,1.0,334.1004260000773,1.0,1.0,part_1,,,,,,,,,,,,,green,I
394.0,8.0,4.0,1.0,2.0,2.0,314.7077160001572,1.0,1.0,part_1,,,,,,,,,,,,,magenta,cross
392.0,8.0,4.0,1.0,4.0,4.0,314.2299410001214,1.0,1.0,part_1,,,,,,,,,,,,,magenta,cross
396.0,8.0,4.0,1.0,3.0,3.0,322.8246130001935,1.0,1.0,part_1,,,,,,,,,,,,,magenta,cross
0.0,5.0,0.0,1.0,2.0,2.0,324.973387999762,1.0,1.0,part_1,,,,,,,,,,,,,orange,square
44.0,5.0,1.0,1.0,2.0,2.0,339.2753339999217,1.0,1.0,part_1,,,,,,,,,,,,,orange,square
205.0,3.0,3.0,0.0,3.0,3.0,317.6505689998521,1.0,1.0,part_1,,,,,,,,,,,,,blue,hexagon
392.0,4.0,4.0,0.0,3.0,3.0,350.8274269997855,1.0,1.0,part_1,,,,,,,,,,,,,yellow,triangle
207.0,7.0,3.0,1.0,4.0,4.0,339.4779109999035,1.0,1.0,part_1,,,,,,,,,,,,,white,circle
67.0,1.0,1.0,0.0,3.0,3.0,423.1699619999745,1.0,1.0,part_1,,,,,,,,,,,,,cyan,flipped triangle
0.0,2.0,0.0,0.0,4.0,4.0,322.8385759998673,1.0,1.0,part_1,,,,,,,,,,,,,green,I
123.0,6.0,2.0,1.0,3.0,3.0,290.9320379999371,1.0,1.0,part_1,,,,,,,,,,,,,gray,diamond
57.0,5.0,1.0,1.0,4.0,4.0,319.9745310002981,1.0,1.0,part_1,,,,,,,,,,,,,orange,square
0.0,1.0,0.0,0.0,2.0,2.0,305.1620839996758,1.0,1.0,part_1,,,,,,,,,,,,,cyan,flipped triangle
104.0,6.0,2.0,1.0,4.0,4.0,337.2629219998089,1.0,1.0,part_1,,,,,,,,,,,,,gray,diamond
0.0,6.0,0.0,1.0,1.0,1.0,285.6940030001169,1.0,1.0,part_1,,,,,,,,,,,,,gray,diamond
43.0,5.0,1.0,1.0,3.0,3.0,345.48857100026,1.0,1.0,part_1,,,,,,,,,,,,,orange,square
49.0,1.0,1.0,0.0,1.0,1.0,317.5645420001274,1.0,1.0,part_1,,,,,,,,,,,,,cyan,flipped triangle
57.0,1.0,1.0,0.0,1.0,1.0,352.7878309996595,1.0,1.0,part_1,,,,,,,,,,,,,cyan,flipped triangle
76.0,6.0,2.0,1.0,3.0,3.0,325.4926849999719,1.0,1.0,part_1,,,,,,,,,,,,,gray,diamond
389.0,4.0,4.0,0.0,2.0,2.0,297.7623860001586,1.0,1.0,part_1,,,,,,,,,,,,,yellow,triangle
123.0,6.0,2.0,1.0,1.0,1.0,333.1690709997019,1.0,1.0,part_1,,,,,,,,,,,,,gray,diamond
376.0,4.0,4.0,0.0,4.0,4.0,309.575058000064,1.0,1.0,part_1,,,,,,,,,,,,,yellow,triangle
412.0,4.0,4.0,0.0,1.0,1.0,279.3257419998554,1.0,1.0,part_1,,,,,,,,,,,,,yellow,triangle
85.0,2.0,2.0,0.0,4.0,4.0,336.3807919999999,1.0,1.0,part_1,,,,,,,,,,,,,green,I
48.0,5.0,1.0,1.0,1.0,1.0,335.2084029997968,1.0,1.0,part_1,,,,,,,,,,,,,orange,square
97.0,6.0,2.0,1.0,2.0,2.0,342.0330479998483,1.0,1.0,part_1,,,,,,,,,,,,,gray,diamond
200.0,3.0,3.0,0.0,2.0,2.0,284.1890030003924,1.0,1.0,part_1,,,,,,,,,,,,,blue,hexagon
0.0,8.0,0.0,1.0,4.0,4.0,298.3365230002164,1.0,1.0,part_1,,,,,,,,,,,,,magenta,cross
222.0,3.0,3.0,0.0,1.0,1.0,364.0739120000944,1.0,1.0,part_1,,,,,,,,,,,,,blue,hexagon
379.0,4.0,4.0,0.0,4.0,4.0,307.6315039998007,1.0,1.0,part_1,,,,,,,,,,,,,yellow,triangle
110.0,2.0,2.0,0.0,3.0,3.0,388.4025000002111,1.0,1.0,part_1,,,,,,,,,,,,,green,I
76.0,6.0,2.0,1.0,1.0,1.0,280.361128000095,1.0,1.0,part_1,,,,,,,,,,,,,gray,diamond
385.0,8.0,4.0,1.0,1.0,1.0,290.8352060003381,1.0,1.0,part_1,,,,,,,,,,,,,magenta,cross
0.0,6.0,0.0,1.0,2.0,2.0,325.7454590002453,1.0,1.0,part_1,,,,,,,,,,,,,gray,diamond
28.0,1.0,1.0,0.0,2.0,2.0,340.382270000191,1.0,1.0,part_1,,,,,,,,,,,,,cyan,flipped triangle
0.0,3.0,0.0,0.0,4.0,4.0,325.240813000164,1.0,1.0,part_1,,,,,,,,,,,,,blue,hexagon
35.0,5.0,1.0,1.0,2.0,2.0,257.4784839998756,1.0,1.0,part_1,,,,,,,,,,,,,orange,square
184.0,3.0,3.0,0.0,4.0,4.0,246.0200790001181,1.0,1.0,part_1,,,,,,,,,,,,,blue,hexagon
0.0,3.0,0.0,0.0,3.0,3.0,262.023795999994,1.0,1.0,part_1,,,,,,,,,,,,,blue,hexagon
74.0,1.0,1.0,0.0,2.0,2.0,323.3335590002753,1.0,2.0,part_1,,,,,,,,,,,,,cyan,flipped triangle
416.0,4.0,4.0,0.0,3.0,3.0,350.716501000079,1.0,1.0,part_1,,,,,,,,,,,,,yellow,triangle
0.0,8.0,0.0,1.0,1.0,1.0,294.7268399998393,1.0,1.0,part_1,,,,,,,,,,,,,magenta,cross
0.0,6.0,0.0,1.0,3.0,3.0,381.1424450000231,1.0,1.0,part_1,,,,,,,,,,,,,gray,diamond
123.0,6.0,2.0,1.0,3.0,3.0,324.4611299996904,1.0,1.0,part_1,,,,,,,,,,,,,gray,diamond
181.0,3.0,3.0,0.0,3.0,3.0,350.4660769999645,1.0,1.0,part_1,,,,,,,,,,,,,blue,hexagon
84.0,2.0,2.0,0.0,3.0,3.0,314.4554420000531,1.0,1.0,part_1,,,,,,,,,,,,,green,I
413.0,8.0,4.0,1.0,1.0,1.0,269.5494399999916,1.0,1.0,part_1,,,,,,,,,,,,,magenta,cross
187.0,7.0,3.0,1.0,1.0,1.0,293.7778400000752,1.0,1.0,part_1,,,,,,,,,,,,,white,circle
90.0,6.0,2.0,1.0,3.0,3.0,308.1519610000214,1.0,1.0,part_1,,,,,,,,,,,,,gray,diamond
28.0,1.0,1.0,0.0,1.0,1.0,273.4125390002191,1.0,1.0,part_1,,,,,,,,,,,,,cyan,flipped triangle
123.0,2.0,2.0,0.0,2.0,2.0,295.3672789999473,1.0,1.0,part_1,,,,,,,,,,,,,green,I
382.0,8.0,4.0,1.0,4.0,4.0,284.5441630001915,1.0,1.0,part_1,,,,,,,,,,,,,magenta,cross
0.0,3.0,0.0,0.0,1.0,1.0,309.1602070003318,1.0,1.0,part_1,,,,,,,,,,,,,blue,hexagon
60.0,5.0,1.0,1.0,1.0,1.0,291.630690999682,1.0,2.0,part_1,,,,,,,,,,,,,orange,square
0.0,6.0,0.0,1.0,4.0,4.0,379.6794849999969,1.0,1.0,part_1,,,,,,,,,,,,,gray,diamond
214.0,7.0,3.0,1.0,4.0,4.0,342.7454549996582,1.0,1.0,part_1,,,,,,,,,,,,,white,circle
114.0,2.0,2.0,0.0,1.0,1.0,293.3461339998757,1.0,1.0,part_1,,,,,,,,,,,,,green,I
71.0,5.0,1.0,1.0,1.0,1.0,328.3079869997891,1.0,1.0,part_1,,,,,,,,,,,,,orange,square
409.0,8.0,4.0,1.0,2.0,2.0,324.3366390001938,1.0,1.0,part_1,,,,,,,,,,,,,magenta,cross
43.0,1.0,1.0,0.0,1.0,1.0,313.02538799991447,1.0,1.0,part_1,,,,,,,,,,,,,cyan,flipped triangle
0.0,3.0,0.0,0.0,3.0,3.0,377.7511200000845,2.0,1.0,part_1,,,,,,,,,,,,,blue,hexagon
33.0,1.0,1.0,0.0,3.0,3.0,320.7999280002696,2.0,1.0,part_1,,,,,,,,,,,,,cyan,flipped triangle
101.0,6.0,2.0,1.0,3.0,3.0,313.7570490002872,2.0,1.0,part_1,,,,,,,,,,,,,gray,diamond
191.0,3.0,3.0,0.0,2.0,2.0,345.1080509998974,2.0,1.0,part_1,,,,,,,,,,,,,blue,hexagon
100.0,2.0,2.0,0.0,4.0,4.0,340.0371879997692,2.0,1.0,part_1,,,,,,,,,,,,,green,I
48.0,1.0,1.0,0.0,3.0,3.0,309.3693499999972,2.0,1.0,part_1,,,,,,,,,,,,,cyan,flipped triangle
218.0,3.0,3.0,0.0,3.0,3.0,286.8704840002465,2.0,1.0,part_1,,,,,,,,,,,,,blue,hexagon
184.0,7.0,3.0,1.0,2.0,2.0,299.1960780000227,2.0,1.0,part_1,,,,,,,,,,,,,white,circle
413.0,4.0,4.0,0.0,1.0,1.0,283.4815629998957,2.0,1.0,part_1,,,,,,,,,,,,,yellow,triangle
111.0,2.0,2.0,0.0,2.0,2.0,287.1882179997556,2.0,1.0,part_1,,,,,,,,,,,,,green,I
419.0,4.0,4.0,0.0,1.0,1.0,289.8157320000791,2.0,1.0,part_1,,,,,,,,,,,,,yellow,triangle
91.0,2.0,2.0,0.0,1.0,1.0,316.2333310001486,2.0,1.0,part_1,,,,,,,,,,,,,green,I
175.0,3.0,3.0,0.0,4.0,4.0,321.0846520000814,2.0,1.0,part_1,,,,,,,,,,,,,blue,hexagon
219.0,3.0,3.0,0.0,2.0,2.0,299.6836739998798,2.0,1.0,part_1,,,,,,,,,,,,,blue,hexagon
0.0,3.0,0.0,0.0,2.0,2.0,314.1592370002399,2.0,1.0,part_1,,,,,,,,,,,,,blue,hexagon
92.0,2.0,2.0,0.0,1.0,1.0,291.4938789999723,2.0,1.0,part_1,,,,,,,,,,,,,green,I
188.0,7.0,3.0,1.0,3.0,3.0,326.9895459998224,2.0,1.0,part_1,,,,,,,,,,,,,white,circle
396.0,4.0,4.0,0.0,4.0,4.0,326.5157170003476,2.0,1.0,part_1,,,,,,,,,,,,,yellow,triangle
400.0,8.0,4.0,1.0,4.0,4.0,309.6474700000726,2.0,1.0,part_1,,,,,,,,,,,,,magenta,cross
389.0,8.0,4.0,1.0,2.0,2.0,307.1667270000944,2.0,1.0,part_1,,,,,,,,,,,,,magenta,cross
59.0,1.0,1.0,0.0,3.0,3.0,307.4960049998481,2.0,1.0,part_1,,,,,,,,,,,,,cyan,flipped triangle
404.0,8.0,4.0,1.0,2.0,2.0,322.3961349999626,2.0,1.0,part_1,,,,,,,,,,,,,magenta,cross
389.0,4.0,4.0,0.0,1.0,1.0,274.5676230001663,2.0,1.0,part_1,,,,,,,,,,,,,yellow,triangle
96.0,6.0,2.0,1.0,3.0,3.0,296.3081359998796,2.0,1.0,part_1,,,,,,,,,,,,,gray,diamond
384.0,4.0,4.0,0.0,1.0,1.0,233.963790999951,2.0,1.0,part_1,,,,,,,,,,,,,yellow,triangle
91.0,6.0,2.0,1.0,4.0,4.0,311.3472390000424,2.0,1.0,part_1,,,,,,,,,,,,,gray,diamond
0.0,6.0,0.0,1.0,4.0,4.0,331.8999820003228,2.0,1.0,part_1,,,,,,,,,,,,,gray,diamond
192.0,3.0,3.0,0.0,1.0,1.0,465.2970649999588,2.0,1.0,part_1,,,,,,,,,,,,,blue,hexagon
0.0,7.0,0.0,1.0,2.0,2.0,302.2668440003144,2.0,1.0,part_1,,,,,,,,,,,,,white,circle
198.0,3.0,3.0,0.0,4.0,4.0,289.3905099999756,2.0,1.0,part_1,,,,,,,,,,,,,blue,hexagon
64.0,5.0,1.0,1.0,1.0,1.0,304.2391079998197,2.0,1.0,part_1,,,,,,,,,,,,,orange,square
0.0,2.0,0.0,0.0,1.0,1.0,431.3625659997342,2.0,1.0,part_1,,,,,,,,,,,,,green,I
106.0,2.0,2.0,0.0,3.0,3.0,356.9985320000342,2.0,1.0,part_1,,,,,,,,,,,,,green,I
419.0,4.0,4.0,0.0,1.0,1.0,282.7797370000553,2.0,1.0,part_1,,,,,,,,,,,,,yellow,triangle
198.0,7.0,3.0,1.0,3.0,3.0,376.7122160002145,2.0,1.0,part_1,,,,,,,,,,,,,white,circle
0.0,5.0,0.0,1.0,4.0,4.0,288.898897999843,2.0,1.0,part_1,,,,,,,,,,,,,orange,square
76.0,6.0,2.0,1.0,4.0,4.0,328.7916129997938,2.0,1.0,part_1,,,,,,,,,,,,,gray,diamond
0.0,7.0,0.0,1.0,2.0,2.0,300.6981479998103,2.0,1.0,part_1,,,,,,,,,,,,,white,circle
31.0,5.0,1.0,1.0,3.0,3.0,445.9745630001634,2.0,1.0,part_1,,,,,,,,,,,,,orange,square
0.0,4.0,0.0,0.0,4.0,4.0,298.1500129999404,2.0,1.0,part_1,,,,,,,,,,,,,yellow,triangle
40.0,5.0,1.0,1.0,1.0,1.0,268.6490480000429,2.0,1.0,part_1,,,,,,,,,,,,,orange,square
115.0,2.0,2.0,0.0,4.0,4.0,309.4376779999948,2.0,1.0,part_1,,,,,,,,,,,,,green,I
57.0,1.0,1.0,0.0,4.0,4.0,277.0997919997171,2.0,1.0,part_1,,,,,,,,,,,,,cyan,flipped triangle
186.0,7.0,3.0,1.0,3.0,3.0,391.5099509999891,2.0,1.0,part_1,,,,,,,,,,,,,white,circle
112.0,6.0,2.0,1.0,3.0,3.0,285.5695550001655,2.0,1.0,part_1,,,,,,,,,,,,,gray,diamond
39.0,1.0,1.0,0.0,4.0,4.0,261.5637750000132,2.0,1.0,part_1,,,,,,,,,,,,,cyan,flipped triangle
398.0,4.0,4.0,0.0,2.0,2.0,286.8546530003186,2.0,1.0,part_1,,,,,,,,,,,,,yellow,triangle
222.0,7.0,3.0,1.0,3.0,3.0,327.0969679997506,2.0,1.0,part_1,,,,,,,,,,,,,white,circle
202.0,7.0,3.0,1.0,2.0,2.0,294.7281860001567,2.0,1.0,part_1,,,,,,,,,,,,,white,circle
51.0,5.0,1.0,1.0,3.0,3.0,285.3938359999119,2.0,1.0,part_1,,,,,,,,,,,,,orange,square
39.0,5.0,1.0,1.0,3.0,3.0,284.3716080001286,2.0,1.0,part_1,,,,,,,,,,,,,orange,square
224.0,3.0,3.0,0.0,1.0,1.0,281.4412389998324,2.0,1.0,part_1,,,,,,,,,,,,,blue,hexagon
0.0,1.0,0.0,0.0,4.0,4.0,301.8581779997475,2.0,1.0,part_1,,,,,,,,,,,,,cyan,flipped triangle
208.0,3.0,3.0,0.0,3.0,3.0,271.3854299995546,2.0,1.0,part_1,,,,,,,,,,,,,blue,hexagon
415.0,4.0,4.0,0.0,1.0,1.0,277.2684889996526,2.0,1.0,part_1,,,,,,,,,,,,,yellow,triangle
221.0,7.0,3.0,1.0,4.0,4.0,320.1717759998246,2.0,1.0,part_1,,,,,,,,,,,,,white,circle
385.0,4.0,4.0,0.0,4.0,4.0,291.1706350000713,2.0,1.0,part_1,,,,,,,,,,,,,yellow,triangle
64.0,1.0,1.0,0.0,1.0,1.0,320.7604539998101,2.0,1.0,part_1,,,,,,,,,,,,,cyan,flipped triangle
400.0,4.0,4.0,0.0,3.0,3.0,265.2650449999782,2.0,1.0,part_1,,,,,,,,,,,,,yellow,triangle
108.0,6.0,2.0,1.0,3.0,3.0,337.3010540003633,2.0,1.0,part_1,,,,,,,,,,,,,gray,diamond
0.0,3.0,0.0,0.0,4.0,4.0,311.0344130000158,2.0,1.0,part_1,,,,,,,,,,,,,blue,hexagon
187.0,3.0,3.0,0.0,4.0,4.0,294.2332389998228,2.0,1.0,part_1,,,,,,,,,,,,,blue,hexagon
412.0,8.0,4.0,1.0,1.0,1.0,339.470841000093,2.0,1.0,part_1,,,,,,,,,,,,,magenta,cross
51.0,1.0,1.0,0.0,1.0,1.0,391.2780830000884,2.0,1.0,part_1,,,,,,,,,,,,,cyan,flipped triangle
194.0,3.0,3.0,0.0,1.0,1.0,278.5908649998418,2.0,1.0,part_1,,,,,,,,,,,,,blue,hexagon
182.0,3.0,3.0,0.0,2.0,2.0,331.7941479999717,2.0,1.0,part_1,,,,,,,,,,,,,blue,hexagon
45.0,5.0,1.0,1.0,4.0,4.0,306.27567800002,2.0,1.0,part_1,,,,,,,,,,,,,orange,square
67.0,5.0,1.0,1.0,4.0,4.0,291.6030989999854,2.0,1.0,part_1,,,,,,,,,,,,,orange,square
0.0,2.0,0.0,0.0,4.0,4.0,277.3287810000511,2.0,1.0,part_1,,,,,,,,,,,,,green,I
0.0,4.0,0.0,0.0,1.0,1.0,269.6020900002622,2.0,1.0,part_1,,,,,,,,,,,,,yellow,triangle
407.0,8.0,4.0,1.0,3.0,3.0,367.8028439999252,2.0,1.0,part_1,,,,,,,,,,,,,magenta,cross
0.0,2.0,0.0,0.0,1.0,1.0,301.0043910003332,2.0,1.0,part_1,,,,,,,,,,,,,green,I
0.0,8.0,0.0,1.0,3.0,3.0,331.1966309997842,2.0,1.0,part_1,,,,,,,,,,,,,magenta,cross
41.0,1.0,1.0,0.0,3.0,3.0,301.896790000228,2.0,1.0,part_1,,,,,,,,,,,,,cyan,flipped triangle
0.0,3.0,0.0,0.0,3.0,3.0,298.4626950001257,2.0,1.0,part_1,,,,,,,,,,,,,blue,hexagon
0.0,5.0,0.0,1.0,1.0,1.0,229.5262689999617,2.0,1.0,part_1,,,,,,,,,,,,,orange,square
385.0,8.0,4.0,1.0,2.0,2.0,318.5945139998694,2.0,1.0,part_1,,,,,,,,,,,,,magenta,cross
399.0,8.0,4.0,1.0,3.0,3.0,311.2218089995622,2.0,1.0,part_1,,,,,,,,,,,,,magenta,cross
0.0,7.0,0.0,1.0,1.0,1.0,292.530736000117,2.0,1.0,part_1,,,,,,,,,,,,,white,circle
0.0,5.0,0.0,1.0,2.0,2.0,335.9156839997013,2.0,1.0,part_1,,,,,,,,,,,,,orange,square
64.0,1.0,1.0,0.0,3.0,3.0,276.7043050002939,2.0,1.0,part_1,,,,,,,,,,,,,cyan,flipped triangle
219.0,7.0,3.0,1.0,1.0,1.0,285.4813310000281,2.0,1.0,part_1,,,,,,,,,,,,,white,circle
27.0,1.0,1.0,0.0,3.0,3.0,316.7759930001921,2.0,1.0,part_1,,,,,,,,,,,,,cyan,flipped triangle
0.0,7.0,0.0,1.0,1.0,1.0,248.3235880004031,2.0,1.0,part_1,,,,,,,,,,,,,white,circle
0.0,8.0,0.0,1.0,1.0,1.0,279.4979420000345,2.0,1.0,part_1,,,,,,,,,,,,,magenta,cross
44.0,1.0,1.0,0.0,1.0,1.0,294.763647000309,2.0,1.0,part_1,,,,,,,,,,,,,cyan,flipped triangle
125.0,6.0,2.0,1.0,3.0,3.0,284.3742559998645,2.0,1.0,part_1,,,,,,,,,,,,,gray,diamond
225.0,3.0,3.0,0.0,4.0,4.0,296.8731010000738,2.0,1.0,part_1,,,,,,,,,,,,,blue,hexagon
96.0,6.0,2.0,1.0,4.0,4.0,300.0201390000256,2.0,1.0,part_1,,,,,,,,,,,,,gray,diamond
376.0,4.0,4.0,0.0,2.0,2.0,268.4753690000434,2.0,1.0,part_1,,,,,,,,,,,,,yellow,triangle
398.0,8.0,4.0,1.0,1.0,1.0,284.4676129998333,2.0,2.0,part_1,,,,,,,,,,,,,magenta,cross
108.0,6.0,2.0,1.0,1.0,1.0,290.3705899998385,2.0,1.0,part_1,,,,,,,,,,,,,gray,diamond
0.0,6.0,0.0,1.0,4.0,4.0,298.4607299999879,2.0,1.0,part_1,,,,,,,,,,,,,gray,diamond
407.0,8.0,4.0,1.0,4.0,4.0,347.1080079998501,2.0,1.0,part_1,,,,,,,,,,,,,magenta,cross
0.0,4.0,0.0,0.0,3.0,3.0,323.8823579999916,2.0,1.0,part_1,,,,,,,,,,,,,yellow,triangle
412.0,4.0,4.0,0.0,2.0,2.0,301.5029139996841,2.0,1.0,part_1,,,,,,,,,,,,,yellow,triangle
114.0,6.0,2.0,1.0,2.0,2.0,281.7791020002005,2.0,1.0,part_1,,,,,,,,,,,,,gray,diamond
96.0,2.0,2.0,0.0,1.0,1.0,285.2679890002036,2.0,1.0,part_1,,,,,,,,,,,,,green,I
419.0,8.0,4.0,1.0,4.0,4.0,274.6897219999482,2.0,1.0,part_1,,,,,,,,,,,,,magenta,cross
60.0,1.0,1.0,0.0,2.0,2.0,280.8586870000908,2.0,1.0,part_1,,,,,,,,,,,,,cyan,flipped triangle
84.0,6.0,2.0,1.0,2.0,2.0,395.1266839999334,3.0,1.0,part_1,,,,,,,,,,,,,gray,diamond
59.0,5.0,1.0,1.0,1.0,1.0,237.9665969997404,3.0,1.0,part_1,,,,,,,,,,,,,orange,square
64.0,5.0,1.0,1.0,2.0,2.0,298.8537490000453,3.0,1.0,part_1,,,,,,,,,,,,,orange,square
0.0,4.0,0.0,0.0,4.0,4.0,267.6091690000248,3.0,1.0,part_1,,,,,,,,,,,,,yellow,triangle
26.0,1.0,1.0,0.0,4.0,4.0,321.4145679999092,3.0,1.0,part_1,,,,,,,,,,,,,cyan,flipped triangle
208.0,7.0,3.0,1.0,3.0,3.0,328.8889269997526,3.0,2.0,part_1,,,,,,,,,,,,,white,circle
87.0,2.0,2.0,0.0,3.0,3.0,325.7200499997452,3.0,1.0,part_1,,,,,,,,,,,,,green,I
0.0,1.0,0.0,0.0,2.0,2.0,329.9639550000393,3.0,1.0,part_1,,,,,,,,,,,,,cyan,flipped triangle
214.0,3.0,3.0,0.0,1.0,1.0,257.3564270001043,3.0,1.0,part_1,,,,,,,,,,,,,blue,hexagon
0.0,7.0,0.0,1.0,3.0,3.0,325.4010600003312,3.0,1.0,part_1,,,,,,,,,,,,,white,circle
192.0,7.0,3.0,1.0,4.0,4.0,264.9427609999293,3.0,1.0,part_1,,,,,,,,,,,,,white,circle
189.0,3.0,3.0,0.0,2.0,2.0,280.3453419996913,3.0,1.0,part_1,,,,,,,,,,,,,blue,hexagon
383.0,4.0,4.0,0.0,2.0,2.0,316.7659470000217,3.0,1.0,part_1,,,,,,,,,,,,,yellow,triangle
110.0,2.0,2.0,0.0,1.0,1.0,276.9913880001695,3.0,1.0,part_1,,,,,,,,,,,,,green,I
39.0,1.0,1.0,0.0,2.0,2.0,258.0262470000889,3.0,1.0,part_1,,,,,,,,,,,,,cyan,flipped triangle
394.0,4.0,4.0,0.0,3.0,3.0,293.9974710002389,3.0,1.0,part_1,,,,,,,,,,,,,yellow,triangle
76.0,2.0,2.0,0.0,4.0,4.0,331.3084139999773,3.0,1.0,part_1,,,,,,,,,,,,,green,I
186.0,3.0,3.0,0.0,1.0,1.0,274.983162999888,3.0,1.0,part_1,,,,,,,,,,,,,blue,hexagon
385.0,4.0,4.0,0.0,2.0,2.0,247.5516039999092,3.0,1.0,part_1,,,,,,,,,,,,,yellow,triangle
0.0,4.0,0.0,0.0,1.0,1.0,311.4031120003346,3.0,1.0,part_1,,,,,,,,,,,,,yellow,triangle
101.0,6.0,2.0,1.0,4.0,4.0,344.0506940000887,3.0,1.0,part_1,,,,,,,,,,,,,gray,diamond
204.0,3.0,3.0,0.0,2.0,2.0,284.5318659997247,3.0,1.0,part_1,,,,,,,,,,,,,blue,hexagon
420.0,8.0,4.0,1.0,4.0,4.0,309.8794430002272,3.0,1.0,part_1,,,,,,,,,,,,,magenta,cross
223.0,3.0,3.0,0.0,4.0,4.0,299.1640010000083,3.0,1.0,part_1,,,,,,,,,,,,,blue,hexagon
393.0,4.0,4.0,0.0,3.0,3.0,311.3757739997709,3.0,1.0,part_1,,,,,,,,,,,,,yellow,triangle
35.0,1.0,1.0,0.0,2.0,2.0,285.2778520000356,3.0,1.0,part_1,,,,,,,,,,,,,cyan,flipped triangle
80.0,6.0,2.0,1.0,4.0,4.0,298.1343120000019,3.0,1.0,part_1,,,,,,,,,,,,,gray,diamond
412.0,4.0,4.0,0.0,3.0,3.0,346.1129010001968,3.0,2.0,part_1,,,,,,,,,,,,,yellow,triangle
67.0,5.0,1.0,1.0,1.0,1.0,324.2925310000828,3.0,1.0,part_1,,,,,,,,,,,,,orange,square
0.0,1.0,0.0,0.0,1.0,1.0,374.9280649999491,3.0,1.0,part_1,,,,,,,,,,,,,cyan,flipped triangle
422.0,8.0,4.0,1.0,1.0,1.0,336.682230000406,3.0,1.0,part_1,,,,,,,,,,,,,magenta,cross
0.0,2.0,0.0,0.0,2.0,2.0,495.5105999997613,3.0,1.0,part_1,,,,,,,,,,,,,green,I
74.0,5.0,1.0,1.0,4.0,4.0,342.7295369997409,3.0,1.0,part_1,,,,,,,,,,,,,orange,square
224.0,7.0,3.0,1.0,1.0,1.0,331.1990500001229,3.0,1.0,part_1,,,,,,,,,,,,,white,circle
27.0,5.0,1.0,1.0,4.0,4.0,295.069684000282,3.0,1.0,part_1,,,,,,,,,,,,,orange,square
123.0,2.0,2.0,0.0,2.0,2.0,372.2556200000326,3.0,1.0,part_1,,,,,,,,,,,,,green,I
223.0,7.0,3.0,1.0,4.0,4.0,320.9206390001782,3.0,1.0,part_1,,,,,,,,,,,,,white,circle
0.0,7.0,0.0,1.0,2.0,2.0,337.4408579998089,3.0,1.0,part_1,,,,,,,,,,,,,white,circle
393.0,8.0,4.0,1.0,3.0,3.0,280.8850129999882,3.0,1.0,part_1,,,,,,,,,,,,,magenta,cross
211.0,3.0,3.0,0.0,3.0,3.0,330.835178000143,3.0,1.0,part_1,,,,,,,,,,,,,blue,hexagon
107.0,6.0,2.0,1.0,2.0,2.0,346.4743049999015,3.0,1.0,part_1,,,,,,,,,,,,,gray,diamond
407.0,4.0,4.0,0.0,4.0,4.0,298.1469010001092,3.0,1.0,part_1,,,,,,,,,,,,,yellow,triangle
96.0,2.0,2.0,0.0,4.0,4.0,349.9536519998401,3.0,1.0,part_1,,,,,,,,,,,,,green,I
0.0,2.0,0.0,0.0,3.0,3.0,322.1183710002151,3.0,1.0,part_1,,,,,,,,,,,,,green,I
389.0,8.0,4.0,1.0,4.0,4.0,319.9538219996611,3.0,1.0,part_1,,,,,,,,,,,,,magenta,cross
376.0,8.0,4.0,1.0,1.0,1.0,299.0926120000949,3.0,1.0,part_1,,,,,,,,,,,,,magenta,cross
83.0,2.0,2.0,0.0,2.0,2.0,325.9024369999679,3.0,1.0,part_1,,,,,,,,,,,,,green,I
67.0,1.0,1.0,0.0,4.0,4.0,301.0867590000998,3.0,1.0,part_1,,,,,,,,,,,,,cyan,flipped triangle
41.0,1.0,1.0,0.0,4.0,4.0,340.7461740002873,3.0,1.0,part_1,,,,,,,,,,,,,cyan,flipped triangle
0.0,5.0,0.0,1.0,3.0,3.0,353.409042000294,3.0,1.0,part_1,,,,,,,,,,,,,orange,square
87.0,6.0,2.0,1.0,1.0,1.0,278.4933029997773,3.0,1.0,part_1,,,,,,,,,,,,,gray,diamond
200.0,7.0,3.0,1.0,2.0,2.0,274.2325700000947,3.0,1.0,part_1,,,,,,,,,,,,,white,circle
379.0,8.0,4.0,1.0,4.0,4.0,253.9470359997722,3.0,1.0,part_1,,,,,,,,,,,,,magenta,cross
422.0,4.0,4.0,0.0,4.0,4.0,313.1654859998889,3.0,1.0,part_1,,,,,,,,,,,,,yellow,triangle
0.0,6.0,0.0,1.0,3.0,3.0,281.7498109998269,3.0,1.0,part_1,,,,,,,,,,,,,gray,diamond
207.0,3.0,3.0,0.0,2.0,2.0,289.4884920001459,3.0,1.0,part_1,,,,,,,,,,,,,blue,hexagon
123.0,2.0,2.0,0.0,4.0,4.0,276.4409979999982,3.0,1.0,part_1,,,,,,,,,,,,,green,I
376.0,4.0,4.0,0.0,4.0,4.0,278.5551789997953,3.0,1.0,part_1,,,,,,,,,,,,,yellow,triangle
183.0,3.0,3.0,0.0,1.0,1.0,308.0357489998278,3.0,1.0,part_1,,,,,,,,,,,,,blue,hexagon
45.0,1.0,1.0,0.0,3.0,3.0,337.0383169999513,3.0,2.0,part_1,,,,,,,,,,,,,cyan,flipped triangle
0.0,8.0,0.0,1.0,4.0,4.0,273.8376239999525,3.0,2.0,part_1,,,,,,,,,,,,,magenta,cross
39.0,5.0,1.0,1.0,2.0,2.0,353.6996099996941,3.0,1.0,part_1,,,,,,,,,,,,,orange,square
111.0,6.0,2.0,1.0,1.0,1.0,301.4345480000884,3.0,1.0,part_1,,,,,,,,,,,,,gray,diamond
94.0,2.0,2.0,0.0,4.0,4.0,272.0353669997166,3.0,1.0,part_1,,,,,,,,,,,,,green,I
117.0,2.0,2.0,0.0,2.0,2.0,307.1406500002922,3.0,1.0,part_1,,,,,,,,,,,,,green,I
108.0,2.0,2.0,0.0,3.0,3.0,283.6900450001849,3.0,1.0,part_1,,,,,,,,,,,,,green,I
0.0,3.0,0.0,0.0,1.0,1.0,323.5848079998504,3.0,1.0,part_1,,,,,,,,,,,,,blue,hexagon
59.0,5.0,1.0,1.0,3.0,3.0,317.7091649999966,3.0,1.0,part_1,,,,,,,,,,,,,orange,square
39.0,1.0,1.0,0.0,2.0,2.0,307.5343279997469,3.0,1.0,part_1,,,,,,,,,,,,,cyan,flipped triangle
385.0,4.0,4.0,0.0,4.0,4.0,281.4123100001779,3.0,1.0,part_1,,,,,,,,,,,,,yellow,triangle
179.0,7.0,3.0,1.0,3.0,3.0,358.009266999943,3.0,1.0,part_1,,,,,,,,,,,,,white,circle
403.0,8.0,4.0,1.0,2.0,2.0,307.9101280000031,3.0,1.0,part_1,,,,,,,,,,,,,magenta,cross
59.0,1.0,1.0,0.0,4.0,4.0,269.9472640001659,3.0,1.0,part_1,,,,,,,,,,,,,cyan,flipped triangle
56.0,5.0,1.0,1.0,1.0,1.0,579.7088879999137,3.0,1.0,part_1,,,,,,,,,,,,,orange,square
383.0,8.0,4.0,1.0,1.0,1.0,307.952602000114,3.0,1.0,part_1,,,,,,,,,,,,,magenta,cross
108.0,2.0,2.0,0.0,4.0,4.0,323.5121419997995,3.0,1.0,part_1,,,,,,,,,,,,,green,I
222.0,3.0,3.0,0.0,3.0,3.0,345.789097999841,3.0,1.0,part_1,,,,,,,,,,,,,blue,hexagon
112.0,2.0,2.0,0.0,2.0,2.0,323.9608479998423,3.0,1.0,part_1,,,,,,,,,,,,,green,I
54.0,5.0,1.0,1.0,2.0,2.0,347.1956600001249,3.0,1.0,part_1,,,,,,,,,,,,,orange,square
416.0,4.0,4.0,0.0,1.0,1.0,289.41269500001,3.0,1.0,part_1,,,,,,,,,,,,,yellow,triangle
182.0,7.0,3.0,1.0,1.0,1.0,317.4359700001332,3.0,1.0,part_1,,,,,,,,,,,,,white,circle
57.0,5.0,1.0,1.0,1.0,1.0,302.7244270001574,3.0,1.0,part_1,,,,,,,,,,,,,orange,square
389.0,8.0,4.0,1.0,3.0,3.0,287.4665499998627,3.0,1.0,part_1,,,,,,,,,,,,,magenta,cross
107.0,6.0,2.0,1.0,1.0,1.0,396.5136920000986,3.0,1.0,part_1,,,,,,,,,,,,,gray,diamond
0.0,8.0,0.0,1.0,1.0,1.0,292.0231749999402,3.0,1.0,part_1,,,,,,,,,,,,,magenta,cross
0.0,4.0,0.0,0.0,2.0,2.0,646.1872040003982,3.0,1.0,part_1,,,,,,,,,,,,,yellow,triangle
221.0,3.0,3.0,0.0,2.0,2.0,346.8356719999974,3.0,1.0,part_1,,,,,,,,,,,,,blue,hexagon
194.0,7.0,3.0,1.0,3.0,3.0,460.6331279996993,3.0,1.0,part_1,,,,,,,,,,,,,white,circle
398.0,8.0,4.0,1.0,1.0,1.0,275.9503769998446,3.0,1.0,part_1,,,,,,,,,,,,,magenta,cross
0.0,3.0,0.0,0.0,1.0,1.0,285.0986820003527,3.0,1.0,part_1,,,,,,,,,,,,,blue,hexagon
412.0,8.0,4.0,1.0,4.0,4.0,353.3077199999752,3.0,1.0,part_1,,,,,,,,,,,,,magenta,cross
0.0,6.0,0.0,1.0,4.0,4.0,287.1155620000536,3.0,1.0,part_1,,,,,,,,,,,,,gray,diamond
181.0,7.0,3.0,1.0,1.0,1.0,334.0783880003073,3.0,1.0,part_1,,,,,,,,,,,,,white,circle
0.0,8.0,0.0,1.0,3.0,3.0,335.1970260000598,3.0,1.0,part_1,,,,,,,,,,,,,magenta,cross
101.0,2.0,2.0,0.0,2.0,2.0,322.1867889997156,3.0,1.0,part_1,,,,,,,,,,,,,green,I
0.0,2.0,0.0,0.0,2.0,2.0,298.1982370001788,3.0,1.0,part_1,,,,,,,,,,,,,green,I
31.0,1.0,1.0,0.0,4.0,4.0,282.4761749998288,3.0,1.0,part_1,,,,,,,,,,,,,cyan,flipped triangle
0.0,4.0,0.0,0.0,2.0,2.0,293.676236000465,3.0,1.0,part_1,,,,,,,,,,,,,yellow,triangle
0.0,1.0,0.0,0.0,1.0,1.0,304.8376309998275,3.0,1.0,part_1,,,,,,,,,,,,,cyan,flipped triangle
90.0,6.0,2.0,1.0,1.0,1.0,269.6294450006462,3.0,1.0,part_1,,,,,,,,,,,,,gray,diamond
218.0,7.0,3.0,1.0,1.0,1.0,372.6927119996617,4.0,1.0,part_1,,,,,,,,,,,,,white,circle
83.0,6.0,2.0,1.0,1.0,1.0,274.7740960003284,4.0,1.0,part_1,,,,,,,,,,,,,gray,diamond
195.0,7.0,3.0,1.0,2.0,2.0,382.34486500005,4.0,1.0,part_1,,,,,,,,,,,,,white,circle
28.0,5.0,1.0,1.0,2.0,2.0,315.9726650001175,4.0,1.0,part_1,,,,,,,,,,,,,orange,square
92.0,2.0,2.0,0.0,2.0,2.0,271.5039690001504,4.0,1.0,part_1,,,,,,,,,,,,,green,I
0.0,2.0,0.0,0.0,4.0,4.0,319.4063199998709,4.0,1.0,part_1,,,,,,,,,,,,,green,I
182.0,7.0,3.0,1.0,4.0,4.0,331.7249510000692,4.0,1.0,part_1,,,,,,,,,,,,,white,circle
0.0,1.0,0.0,0.0,2.0,2.0,328.7719499994637,4.0,1.0,part_1,,,,,,,,,,,,,cyan,flipped triangle
40.0,1.0,1.0,0.0,1.0,1.0,247.0493350001561,4.0,1.0,part_1,,,,,,,,,,,,,cyan,flipped triangle
85.0,6.0,2.0,1.0,1.0,1.0,321.9636180001544,4.0,1.0,part_1,,,,,,,,,,,,,gray,diamond
70.0,1.0,1.0,0.0,3.0,3.0,276.3110140003846,4.0,1.0,part_1,,,,,,,,,,,,,cyan,flipped triangle
419.0,8.0,4.0,1.0,1.0,1.0,269.929296000555,4.0,1.0,part_1,,,,,,,,,,,,,magenta,cross
100.0,6.0,2.0,1.0,2.0,2.0,274.67335899928,4.0,1.0,part_1,,,,,,,,,,,,,gray,diamond
204.0,7.0,3.0,1.0,4.0,4.0,304.633546000332,4.0,1.0,part_1,,,,,,,,,,,,,white,circle
124.0,2.0,2.0,0.0,1.0,1.0,272.8945759999988,4.0,1.0,part_1,,,,,,,,,,,,,green,I
0.0,5.0,0.0,1.0,3.0,3.0,340.6327909997344,4.0,1.0,part_1,,,,,,,,,,,,,orange,square
0.0,5.0,0.0,1.0,4.0,4.0,384.1182619999017,4.0,1.0,part_1,,,,,,,,,,,,,orange,square
0.0,7.0,0.0,1.0,3.0,3.0,352.1103490002133,4.0,1.0,part_1,,,,,,,,,,,,,white,circle
225.0,7.0,3.0,1.0,3.0,3.0,341.7309630003728,4.0,1.0,part_1,,,,,,,,,,,,,white,circle
389.0,4.0,4.0,0.0,3.0,3.0,339.0384389995233,4.0,2.0,part_1,,,,,,,,,,,,,yellow,triangle
0.0,1.0,0.0,0.0,4.0,4.0,312.711472999581,4.0,1.0,part_1,,,,,,,,,,,,,cyan,flipped triangle
0.0,1.0,0.0,0.0,4.0,4.0,333.3801369999492,4.0,1.0,part_1,,,,,,,,,,,,,cyan,flipped triangle
190.0,3.0,3.0,0.0,2.0,2.0,361.3523829999394,4.0,1.0,part_1,,,,,,,,,,,,,blue,hexagon
26.0,5.0,1.0,1.0,1.0,1.0,344.3528500001775,4.0,1.0,part_1,,,,,,,,,,,,,orange,square
222.0,7.0,3.0,1.0,2.0,2.0,348.0887180003265,4.0,1.0,part_1,,,,,,,,,,,,,white,circle
49.0,5.0,1.0,1.0,2.0,2.0,294.5903019999605,4.0,1.0,part_1,,,,,,,,,,,,,orange,square
110.0,6.0,2.0,1.0,4.0,4.0,312.9791170003955,4.0,1.0,part_1,,,,,,,,,,,,,gray,diamond
404.0,4.0,4.0,0.0,3.0,3.0,467.4607599999945,4.0,1.0,part_1,,,,,,,,,,,,,yellow,triangle
125.0,2.0,2.0,0.0,3.0,3.0,321.5006319996973,4.0,1.0,part_1,,,,,,,,,,,,,green,I
211.0,7.0,3.0,1.0,2.0,2.0,307.6974610003162,4.0,1.0,part_1,,,,,,,,,,,,,white,circle
35.0,1.0,1.0,0.0,2.0,2.0,379.0421140001854,4.0,1.0,part_1,,,,,,,,,,,,,cyan,flipped triangle
423.0,4.0,4.0,0.0,1.0,1.0,323.2071219999852,4.0,1.0,part_1,,,,,,,,,,,,,yellow,triangle
191.0,7.0,3.0,1.0,1.0,1.0,300.8137549995808,4.0,1.0,part_1,,,,,,,,,,,,,white,circle
382.0,4.0,4.0,0.0,2.0,2.0,282.7958660000149,4.0,1.0,part_1,,,,,,,,,,,,,yellow,triangle
104.0,2.0,2.0,0.0,2.0,2.0,282.07333499995,4.0,1.0,part_1,,,,,,,,,,,,,green,I
0.0,2.0,0.0,0.0,2.0,2.0,278.8537819997145,4.0,1.0,part_1,,,,,,,,,,,,,green,I
79.0,2.0,2.0,0.0,4.0,4.0,306.7151830000512,4.0,1.0,part_1,,,,,,,,,,,,,green,I
409.0,4.0,4.0,0.0,4.0,4.0,307.9774859997997,4.0,1.0,part_1,,,,,,,,,,,,,yellow,triangle
190.0,7.0,3.0,1.0,4.0,4.0,341.299042999708,4.0,1.0,part_1,,,,,,,,,,,,,white,circle
384.0,8.0,4.0,1.0,3.0,3.0,395.7018929995683,4.0,1.0,part_1,,,,,,,,,,,,,magenta,cross
0.0,4.0,0.0,0.0,1.0,1.0,253.0622599997514,4.0,1.0,part_1,,,,,,,,,,,,,yellow,triangle
41.0,5.0,1.0,1.0,3.0,3.0,292.2371559998282,4.0,2.0,part_1,,,,,,,,,,,,,orange,square
0.0,4.0,0.0,0.0,2.0,2.0,316.4701569994577,4.0,1.0,part_1,,,,,,,,,,,,,yellow,triangle
59.0,5.0,1.0,1.0,3.0,3.0,353.2690330002879,4.0,1.0,part_1,,,,,,,,,,,,,orange,square
182.0,3.0,3.0,0.0,3.0,3.0,393.7004880008317,4.0,1.0,part_1,,,,,,,,,,,,,blue,hexagon
188.0,3.0,3.0,0.0,3.0,3.0,355.8153519998086,4.0,1.0,part_1,,,,,,,,,,,,,blue,hexagon
195.0,7.0,3.0,1.0,1.0,1.0,314.3956129997605,4.0,1.0,part_1,,,,,,,,,,,,,white,circle
0.0,2.0,0.0,0.0,3.0,3.0,323.8683229992602,4.0,1.0,part_1,,,,,,,,,,,,,green,I
73.0,5.0,1.0,1.0,4.0,4.0,319.7435709998899,4.0,1.0,part_1,,,,,,,,,,,,,orange,square
220.0,7.0,3.0,1.0,3.0,3.0,328.7090680005349,4.0,1.0,part_1,,,,,,,,,,,,,white,circle
92.0,6.0,2.0,1.0,1.0,1.0,352.6600709992635,4.0,1.0,part_1,,,,,,,,,,,,,gray,diamond
376.0,8.0,4.0,1.0,3.0,3.0,309.8662029997285,4.0,1.0,part_1,,,,,,,,,,,,,magenta,cross
220.0,3.0,3.0,0.0,4.0,4.0,312.9927580002913,4.0,1.0,part_1,,,,,,,,,,,,,blue,hexagon
100.0,6.0,2.0,1.0,2.0,2.0,316.0536799996407,4.0,1.0,part_1,,,,,,,,,,,,,gray,diamond
117.0,6.0,2.0,1.0,2.0,2.0,327.8207109997311,4.0,1.0,part_1,,,,,,,,,,,,,gray,diamond
407.0,4.0,4.0,0.0,3.0,3.0,304.1805539996858,4.0,1.0,part_1,,,,,,,,,,,,,yellow,triangle
194.0,3.0,3.0,0.0,1.0,1.0,295.4570510000849,4.0,1.0,part_1,,,,,,,,,,,,,blue,hexagon
64.0,1.0,1.0,0.0,2.0,2.0,291.107774000011,4.0,1.0,part_1,,,,,,,,,,,,,cyan,flipped triangle
107.0,2.0,2.0,0.0,3.0,3.0,305.523987000015,4.0,1.0,part_1,,,,,,,,,,,,,green,I
100.0,2.0,2.0,0.0,1.0,1.0,251.98244200055342,4.0,1.0,part_1,,,,,,,,,,,,,green,I
0.0,8.0,0.0,1.0,4.0,4.0,348.9170679995368,4.0,1.0,part_1,,,,,,,,,,,,,magenta,cross
0.0,6.0,0.0,1.0,3.0,3.0,331.9925750001857,4.0,1.0,part_1,,,,,,,,,,,,,gray,diamond
177.0,7.0,3.0,1.0,4.0,4.0,301.9131529999868,4.0,1.0,part_1,,,,,,,,,,,,,white,circle
202.0,3.0,3.0,0.0,3.0,3.0,417.8374829998574,4.0,1.0,part_1,,,,,,,,,,,,,blue,hexagon
92.0,6.0,2.0,1.0,2.0,2.0,325.0037249999877,4.0,1.0,part_1,,,,,,,,,,,,,gray,diamond
0.0,7.0,0.0,1.0,2.0,2.0,321.6812439995919,4.0,1.0,part_1,,,,,,,,,,,,,white,circle
0.0,8.0,0.0,1.0,4.0,4.0,322.3584819997995,4.0,1.0,part_1,,,,,,,,,,,,,magenta,cross
90.0,2.0,2.0,0.0,4.0,4.0,278.2580600005531,4.0,1.0,part_1,,,,,,,,,,,,,green,I
412.0,8.0,4.0,1.0,2.0,2.0,292.2810979998758,4.0,1.0,part_1,,,,,,,,,,,,,magenta,cross
420.0,4.0,4.0,0.0,2.0,2.0,288.8943859998107,4.0,1.0,part_1,,,,,,,,,,,,,yellow,triangle
177.0,3.0,3.0,0.0,2.0,2.0,285.0815519996104,4.0,1.0,part_1,,,,,,,,,,,,,blue,hexagon
183.0,7.0,3.0,1.0,2.0,2.0,317.2811499998715,4.0,1.0,part_1,,,,,,,,,,,,,white,circle
403.0,4.0,4.0,0.0,2.0,2.0,278.1816269998671,4.0,1.0,part_1,,,,,,,,,,,,,yellow,triangle
376.0,8.0,4.0,1.0,3.0,3.0,280.1460059999954,4.0,1.0,part_1,,,,,,,,,,,,,magenta,cross
416.0,8.0,4.0,1.0,2.0,2.0,271.1140359997444,4.0,1.0,part_1,,,,,,,,,,,,,magenta,cross
70.0,5.0,1.0,1.0,4.0,4.0,341.933479000545,4.0,1.0,part_1,,,,,,,,,,,,,orange,square
56.0,1.0,1.0,0.0,4.0,4.0,294.3029590005608,4.0,1.0,part_1,,,,,,,,,,,,,cyan,flipped triangle
33.0,5.0,1.0,1.0,3.0,3.0,482.3246609994385,4.0,1.0,part_1,,,,,,,,,,,,,orange,square
385.0,8.0,4.0,1.0,2.0,2.0,277.8572700008226,4.0,1.0,part_1,,,,,,,,,,,,,magenta,cross
101.0,2.0,2.0,0.0,2.0,2.0,508.18363899998076,4.0,1.0,part_1,,,,,,,,,,,,,green,I
0.0,4.0,0.0,0.0,2.0,2.0,292.8966019999279,4.0,1.0,part_1,,,,,,,,,,,,,yellow,triangle
73.0,1.0,1.0,0.0,2.0,2.0,294.0145820002726,4.0,1.0,part_1,,,,,,,,,,,,,cyan,flipped triangle
195.0,3.0,3.0,0.0,1.0,1.0,296.5193910004018,4.0,1.0,part_1,,,,,,,,,,,,,blue,hexagon
179.0,7.0,3.0,1.0,2.0,2.0,271.8403050002962,4.0,1.0,part_1,,,,,,,,,,,,,white,circle
223.0,7.0,3.0,1.0,4.0,4.0,272.445517000051,4.0,1.0,part_1,,,,,,,,,,,,,white,circle
90.0,2.0,2.0,0.0,3.0,3.0,336.8657159999202,4.0,1.0,part_1,,,,,,,,,,,,,green,I
35.0,5.0,1.0,1.0,4.0,4.0,323.4897649999766,4.0,1.0,part_1,,,,,,,,,,,,,orange,square
423.0,8.0,4.0,1.0,2.0,2.0,291.1069310002858,4.0,1.0,part_1,,,,,,,,,,,,,magenta,cross
80.0,2.0,2.0,0.0,1.0,1.0,293.0560799995874,4.0,1.0,part_1,,,,,,,,,,,,,green,I
54.0,1.0,1.0,0.0,4.0,4.0,358.0223939998177,4.0,1.0,part_1,,,,,,,,,,,,,cyan,flipped triangle
79.0,6.0,2.0,1.0,4.0,4.0,328.3198609997271,4.0,1.0,part_1,,,,,,,,,,,,,gray,diamond
416.0,4.0,4.0,0.0,1.0,1.0,334.1814120003619,4.0,1.0,part_1,,,,,,,,,,,,,yellow,triangle
223.0,3.0,3.0,0.0,4.0,4.0,340.3566540000611,4.0,1.0,part_1,,,,,,,,,,,,,blue,hexagon
208.0,3.0,3.0,0.0,1.0,1.0,274.2284329997346,4.0,1.0,part_1,,,,,,,,,,,,,blue,hexagon
0.0,3.0,0.0,0.0,4.0,4.0,284.0934890000426,4.0,1.0,part_1,,,,,,,,,,,,,blue,hexagon
110.0,6.0,2.0,1.0,2.0,2.0,276.9403830006922,4.0,1.0,part_1,,,,,,,,,,,,,gray,diamond
97.0,2.0,2.0,0.0,3.0,3.0,287.9489589995501,4.0,1.0,part_1,,,,,,,,,,,,,green,I
415.0,8.0,4.0,1.0,3.0,3.0,317.7795999999944,4.0,1.0,part_1,,,,,,,,,,,,,magenta,cross
189.0,7.0,3.0,1.0,3.0,3.0,356.235469999774,4.0,1.0,part_1,,,,,,,,,,,,,white,circle
106.0,6.0,2.0,1.0,4.0,4.0,285.1541569998517,4.0,1.0,part_1,,,,,,,,,,,,,gray,diamond
0.0,2.0,2.0,0.0,6.0,6.0,320.257538000078,1.0,0.0,part_2,go,250.0,250.0,1.0,,,,,,,,,green,I
0.0,7.0,3.0,1.0,5.0,5.0,398.0272059998242,1.0,0.0,part_2,stop,250.0,250.0,3.0,,,,,,,,,white,circle
0.0,4.0,4.0,0.0,6.0,6.0,288.9113050005107,1.0,0.0,part_2,go,200.0,250.0,1.0,,,,,,,,,yellow,triangle
0.0,1.0,1.0,0.0,6.0,6.0,497.4354369996945,1.0,0.0,part_2,go,200.0,250.0,1.0,,,,,,,,,cyan,flipped triangle
0.0,5.0,1.0,1.0,5.0,0.0,0.0,1.0,0.0,part_2,stop,200.0,250.0,4.0,,,,,,,,,orange,square
0.0,2.0,2.0,0.0,6.0,6.0,429.0908570001193,1.0,0.0,part_2,go,250.0,250.0,1.0,,,,,,,,,green,I
0.0,2.0,2.0,0.0,5.0,5.0,418.3730340000693,1.0,0.0,part_2,go,250.0,250.0,1.0,,,,,,,,,green,I
0.0,3.0,3.0,0.0,6.0,6.0,504.931315000249,1.0,0.0,part_2,go,250.0,250.0,1.0,,,,,,,,,blue,hexagon
0.0,8.0,4.0,1.0,5.0,5.0,450.6536109993249,1.0,0.0,part_2,stop,250.0,250.0,3.0,,,,,,,,,magenta,cross
0.0,3.0,3.0,0.0,5.0,5.0,243.6773969993737,1.0,0.0,part_2,go,200.0,250.0,1.0,,,,,,,,,blue,hexagon
0.0,7.0,3.0,1.0,5.0,5.0,278.6354119998577,1.0,0.0,part_2,stop,200.0,250.0,3.0,,,,,,,,,white,circle
0.0,1.0,1.0,0.0,6.0,6.0,416.2864279996938,1.0,0.0,part_2,go,150.0,250.0,1.0,,,,,,,,,cyan,flipped triangle
0.0,7.0,3.0,1.0,5.0,5.0,256.1804939996364,1.0,0.0,part_2,go,150.0,250.0,1.0,,,,,,,,,white,circle
0.0,5.0,1.0,1.0,6.0,0.0,0.0,1.0,0.0,part_2,stop,150.0,250.0,4.0,,,,,,,,,orange,square
0.0,7.0,3.0,1.0,6.0,6.0,457.6441330000307,1.0,0.0,part_2,stop,150.0,300.0,3.0,,,,,,,,,white,circle
0.0,1.0,1.0,0.0,6.0,6.0,476.7206229998919,1.0,0.0,part_2,go,150.0,250.0,1.0,,,,,,,,,cyan,flipped triangle
0.0,1.0,1.0,0.0,6.0,6.0,556.4498489993639,1.0,0.0,part_2,go,150.0,250.0,1.0,,,,,,,,,cyan,flipped triangle
0.0,8.0,4.0,1.0,6.0,0.0,0.0,1.0,0.0,part_2,stop,150.0,250.0,4.0,,,,,,,,,magenta,cross
0.0,2.0,2.0,0.0,6.0,6.0,588.3921659997213,1.0,0.0,part_2,go,150.0,300.0,1.0,,,,,,,,,green,I
0.0,7.0,3.0,1.0,6.0,0.0,0.0,1.0,0.0,part_2,stop,150.0,300.0,4.0,,,,,,,,,white,circle
0.0,2.0,2.0,0.0,6.0,6.0,490.3443490002246,1.0,0.0,part_2,go,150.0,350.0,1.0,,,,,,,,,green,I
0.0,5.0,1.0,1.0,6.0,6.0,612.1247159999257,1.0,0.0,part_2,go,150.0,350.0,1.0,,,,,,,,,orange,square
0.0,6.0,2.0,1.0,6.0,0.0,0.0,1.0,0.0,part_2,stop,150.0,350.0,4.0,,,,,,,,,gray,diamond
0.0,2.0,2.0,0.0,6.0,6.0,360.0593119999757,1.0,0.0,part_2,go,150.0,400.0,1.0,,,,,,,,,green,I
0.0,4.0,4.0,0.0,5.0,5.0,506.23694400019303,1.0,0.0,part_2,go,150.0,400.0,1.0,,,,,,,,,yellow,triangle
0.0,3.0,3.0,0.0,5.0,5.0,643.8418609996006,1.0,0.0,part_2,go,150.0,400.0,1.0,,,,,,,,,blue,hexagon
0.0,6.0,2.0,1.0,5.0,0.0,0.0,1.0,0.0,part_2,stop,150.0,400.0,4.0,,,,,,,,,gray,diamond
0.0,5.0,1.0,1.0,5.0,5.0,293.4471700000358,1.0,0.0,part_2,go,200.0,400.0,1.0,,,,,,,,,orange,square
0.0,8.0,4.0,1.0,5.0,5.0,472.4943629998961,1.0,0.0,part_2,go,200.0,400.0,1.0,,,,,,,,,magenta,cross
0.0,4.0,4.0,0.0,5.0,5.0,679.5619989998158,1.0,0.0,part_2,go,200.0,400.0,1.0,,,,,,,,,yellow,triangle
0.0,5.0,1.0,1.0,6.0,0.0,0.0,1.0,0.0,part_2,stop,200.0,400.0,4.0,,,,,,,,,orange,square
0.0,8.0,4.0,1.0,6.0,6.0,348.5723189996861,1.0,0.0,part_2,stop,200.0,450.0,3.0,,,,,,,,,magenta,cross
0.0,3.0,3.0,0.0,5.0,5.0,392.2875289999865,1.0,0.0,part_2,go,200.0,400.0,1.0,,,,,,,,,blue,hexagon
0.0,1.0,1.0,0.0,5.0,5.0,505.1228259999334,1.0,0.0,part_2,go,200.0,400.0,1.0,,,,,,,,,cyan,flipped triangle
0.0,1.0,1.0,0.0,5.0,5.0,501.1126099998364,1.0,0.0,part_2,go,200.0,400.0,1.0,,,,,,,,,cyan,flipped triangle
0.0,4.0,4.0,0.0,6.0,6.0,765.1726940002845,1.0,0.0,part_2,go,200.0,400.0,1.0,,,,,,,,,yellow,triangle
0.0,8.0,4.0,1.0,6.0,6.0,430.7002329996976,2.0,0.0,part_2,stop,200.0,400.0,3.0,,,,,,,,,magenta,cross
0.0,2.0,2.0,0.0,6.0,6.0,379.2298389998905,2.0,0.0,part_2,go,200.0,350.0,1.0,,,,,,,,,green,I
0.0,2.0,2.0,0.0,6.0,6.0,574.8410560008779,2.0,0.0,part_2,go,200.0,350.0,1.0,,,,,,,,,green,I
0.0,5.0,1.0,1.0,6.0,6.0,546.2273020002613,2.0,0.0,part_2,go,200.0,350.0,1.0,,,,,,,,,orange,square
0.0,7.0,3.0,1.0,5.0,0.0,0.0,2.0,0.0,part_2,stop,200.0,350.0,4.0,,,,,,,,,white,circle
0.0,2.0,2.0,0.0,5.0,5.0,531.0820720005722,2.0,0.0,part_2,go,250.0,350.0,1.0,,,,,,,,,green,I
0.0,6.0,2.0,1.0,5.0,0.0,0.0,2.0,0.0,part_2,stop,250.0,350.0,4.0,,,,,,,,,gray,diamond
0.0,8.0,4.0,1.0,6.0,6.0,469.6425570000428,2.0,0.0,part_2,go,300.0,350.0,1.0,,,,,,,,,magenta,cross
0.0,4.0,4.0,0.0,6.0,6.0,543.9736639991679,2.0,0.0,part_2,go,300.0,350.0,1.0,,,,,,,,,yellow,triangle
0.0,5.0,1.0,1.0,6.0,0.0,0.0,2.0,0.0,part_2,stop,300.0,350.0,4.0,,,,,,,,,orange,square
0.0,5.0,1.0,1.0,5.0,5.0,401.147810999646,2.0,0.0,part_2,stop,300.0,400.0,3.0,,,,,,,,,orange,square
0.0,7.0,3.0,1.0,5.0,5.0,396.3112980000005,2.0,0.0,part_2,stop,250.0,400.0,3.0,,,,,,,,,white,circle
0.0,4.0,4.0,0.0,6.0,6.0,604.1387889999896,2.0,0.0,part_2,go,200.0,400.0,1.0,,,,,,,,,yellow,triangle
0.0,8.0,4.0,1.0,6.0,0.0,0.0,2.0,0.0,part_2,stop,200.0,400.0,4.0,,,,,,,,,magenta,cross
0.0,5.0,1.0,1.0,6.0,0.0,0.0,2.0,0.0,part_2,stop,200.0,450.0,4.0,,,,,,,,,orange,square
0.0,4.0,4.0,0.0,5.0,5.0,450.5831559999933,2.0,0.0,part_2,go,200.0,500.0,1.0,,,,,,,,,yellow,triangle
0.0,3.0,3.0,0.0,5.0,5.0,520.2802419998989,2.0,0.0,part_2,go,200.0,500.0,1.0,,,,,,,,,blue,hexagon
0.0,7.0,3.0,1.0,6.0,6.0,653.278123999371,2.0,0.0,part_2,stop,200.0,500.0,3.0,,,,,,,,,white,circle
0.0,5.0,1.0,1.0,6.0,6.0,748.8957360001223,2.0,0.0,part_2,go,200.0,450.0,1.0,,,,,,,,,orange,square
0.0,8.0,4.0,1.0,5.0,0.0,0.0,2.0,0.0,part_2,stop,200.0,450.0,4.0,,,,,,,,,magenta,cross
0.0,6.0,2.0,1.0,6.0,6.0,481.810964000033,2.0,0.0,part_2,stop,250.0,450.0,3.0,,,,,,,,,gray,diamond
0.0,3.0,3.0,0.0,6.0,6.0,779.1597619998356,2.0,0.0,part_2,go,250.0,400.0,1.0,,,,,,,,,blue,hexagon
0.0,7.0,3.0,1.0,5.0,0.0,0.0,2.0,0.0,part_2,stop,250.0,400.0,4.0,,,,,,,,,white,circle
0.0,1.0,1.0,0.0,5.0,5.0,714.6733219997259,2.0,0.0,part_2,go,300.0,400.0,1.0,,,,,,,,,cyan,flipped triangle
0.0,5.0,1.0,1.0,5.0,0.0,0.0,2.0,0.0,part_2,stop,300.0,400.0,4.0,,,,,,,,,orange,square
0.0,1.0,1.0,0.0,6.0,6.0,522.1351179998237,2.0,0.0,part_2,go,350.0,400.0,1.0,,,,,,,,,cyan,flipped triangle
0.0,6.0,2.0,1.0,5.0,5.0,707.7434330003598,2.0,0.0,part_2,go,350.0,400.0,1.0,,,,,,,,,gray,diamond
0.0,4.0,4.0,0.0,5.0,5.0,448.7056230000235,2.0,0.0,part_2,go,350.0,400.0,1.0,,,,,,,,,yellow,triangle
0.0,3.0,3.0,0.0,6.0,6.0,444.0452910002932,2.0,0.0,part_2,go,350.0,400.0,1.0,,,,,,,,,blue,hexagon
0.0,1.0,1.0,0.0,6.0,6.0,504.615833000571,2.0,0.0,part_2,go,350.0,400.0,1.0,,,,,,,,,cyan,flipped triangle
0.0,7.0,3.0,1.0,5.0,5.0,832.1288689994617,2.0,0.0,part_2,go,350.0,400.0,1.0,,,,,,,,,white,circle
0.0,1.0,1.0,0.0,6.0,6.0,851.3039680001384,2.0,0.0,part_2,go,350.0,400.0,1.0,,,,,,,,,cyan,flipped triangle
0.0,8.0,4.0,1.0,6.0,6.0,472.9372499996316,2.0,0.0,part_2,stop,350.0,400.0,3.0,,,,,,,,,magenta,cross
0.0,2.0,2.0,0.0,6.0,6.0,360.8239780005533,2.0,0.0,part_2,go,350.0,350.0,1.0,,,,,,,,,green,I
0.0,1.0,1.0,0.0,6.0,6.0,722.4097549997168,2.0,0.0,part_2,go,350.0,350.0,1.0,,,,,,,,,cyan,flipped triangle
0.0,7.0,3.0,1.0,6.0,0.0,0.0,2.0,0.0,part_2,stop,350.0,350.0,4.0,,,,,,,,,white,circle
0.0,1.0,1.0,0.0,6.0,6.0,621.0273579999921,3.0,0.0,part_2,go,350.0,400.0,1.0,,,,,,,,,cyan,flipped triangle
0.0,4.0,4.0,0.0,6.0,6.0,522.847639000247,3.0,0.0,part_2,go,350.0,400.0,1.0,,,,,,,,,yellow,triangle
0.0,8.0,4.0,1.0,6.0,0.0,0.0,3.0,0.0,part_2,stop,350.0,400.0,4.0,,,,,,,,,magenta,cross
0.0,6.0,2.0,1.0,5.0,5.0,432.7210229994307,3.0,0.0,part_2,stop,350.0,450.0,3.0,,,,,,,,,gray,diamond
0.0,1.0,1.0,0.0,6.0,6.0,513.3697790006408,3.0,0.0,part_2,go,300.0,450.0,1.0,,,,,,,,,cyan,flipped triangle
0.0,3.0,3.0,0.0,6.0,6.0,733.979879000799,3.0,0.0,part_2,go,300.0,450.0,1.0,,,,,,,,,blue,hexagon
0.0,4.0,4.0,0.0,6.0,6.0,587.6699749996988,3.0,0.0,part_2,go,300.0,450.0,1.0,,,,,,,,,yellow,triangle
0.0,6.0,2.0,1.0,5.0,5.0,433.7142229996971,3.0,0.0,part_2,stop,300.0,450.0,3.0,,,,,,,,,gray,diamond
0.0,6.0,2.0,1.0,6.0,6.0,541.6718520000359,3.0,0.0,part_2,go,250.0,450.0,1.0,,,,,,,,,gray,diamond
0.0,2.0,2.0,0.0,6.0,6.0,551.1815649997516,3.0,0.0,part_2,go,250.0,450.0,1.0,,,,,,,,,green,I
0.0,3.0,3.0,0.0,6.0,6.0,893.4788819997266,3.0,0.0,part_2,go,250.0,450.0,1.0,,,,,,,,,blue,hexagon
0.0,7.0,3.0,1.0,6.0,0.0,0.0,3.0,0.0,part_2,stop,250.0,450.0,4.0,,,,,,,,,white,circle
0.0,4.0,4.0,0.0,5.0,5.0,657.4362129995279,3.0,0.0,part_2,go,250.0,500.0,1.0,,,,,,,,,yellow,triangle
0.0,5.0,1.0,1.0,6.0,0.0,0.0,3.0,0.0,part_2,stop,250.0,500.0,4.0,,,,,,,,,orange,square
0.0,6.0,2.0,1.0,6.0,6.0,368.7825120005072,3.0,0.0,part_2,stop,250.0,550.0,3.0,,,,,,,,,gray,diamond
0.0,7.0,3.0,1.0,6.0,6.0,607.41189700002,3.0,0.0,part_2,stop,250.0,500.0,3.0,,,,,,,,,white,circle
0.0,3.0,3.0,0.0,6.0,6.0,676.6417660001025,3.0,0.0,part_2,go,250.0,450.0,1.0,,,,,,,,,blue,hexagon
0.0,3.0,3.0,0.0,5.0,5.0,648.5609239998666,3.0,0.0,part_2,go,250.0,450.0,1.0,,,,,,,,,blue,hexagon
0.0,4.0,4.0,0.0,5.0,5.0,767.4457550001534,3.0,0.0,part_2,go,250.0,450.0,1.0,,,,,,,,,yellow,triangle
0.0,4.0,4.0,0.0,6.0,6.0,756.3588290004191,3.0,0.0,part_2,go,250.0,450.0,1.0,,,,,,,,,yellow,triangle
0.0,8.0,4.0,1.0,6.0,0.0,0.0,3.0,0.0,part_2,stop,250.0,450.0,4.0,,,,,,,,,magenta,cross
0.0,1.0,1.0,0.0,5.0,5.0,719.7784190002494,3.0,0.0,part_2,go,250.0,500.0,1.0,,,,,,,,,cyan,flipped triangle
0.0,3.0,3.0,0.0,5.0,5.0,813.1189030000314,3.0,0.0,part_2,go,250.0,500.0,1.0,,,,,,,,,blue,hexagon
0.0,2.0,2.0,0.0,6.0,6.0,790.5647810002847,3.0,0.0,part_2,go,250.0,500.0,1.0,,,,,,,,,green,I
0.0,8.0,4.0,1.0,6.0,0.0,0.0,3.0,0.0,part_2,stop,250.0,500.0,4.0,,,,,,,,,magenta,cross
0.0,2.0,2.0,0.0,6.0,6.0,751.0134490003111,3.0,0.0,part_2,go,250.0,550.0,1.0,,,,,,,,,green,I
0.0,8.0,4.0,1.0,5.0,0.0,0.0,3.0,0.0,part_2,stop,250.0,550.0,4.0,,,,,,,,,magenta,cross
0.0,3.0,3.0,0.0,6.0,6.0,769.979775000138,3.0,0.0,part_2,go,300.0,550.0,1.0,,,,,,,,,blue,hexagon
0.0,3.0,3.0,0.0,5.0,5.0,502.4598749996585,3.0,0.0,part_2,go,300.0,550.0,1.0,,,,,,,,,blue,hexagon
0.0,2.0,2.0,0.0,6.0,6.0,599.7078190002867,3.0,0.0,part_2,go,300.0,550.0,1.0,,,,,,,,,green,I
0.0,8.0,4.0,1.0,5.0,0.0,0.0,3.0,0.0,part_2,stop,300.0,550.0,4.0,,,,,,,,,magenta,cross
0.0,5.0,1.0,1.0,6.0,0.0,0.0,3.0,0.0,part_2,stop,350.0,550.0,4.0,,,,,,,,,orange,square
0.0,6.0,2.0,1.0,6.0,6.0,584.7550930002399,3.0,0.0,part_2,stop,350.0,600.0,3.0,,,,,,,,,gray,diamond
0.0,1.0,1.0,0.0,5.0,5.0,747.5293520001287,3.0,0.0,part_2,go,350.0,550.0,1.0,,,,,,,,,cyan,flipped triangle
0.0,3.0,3.0,0.0,6.0,6.0,437.0586479999474,3.0,0.0,part_2,go,350.0,550.0,1.0,,,,,,,,,blue,hexagon
0.0,3.0,3.0,0.0,6.0,6.0,886.0301210006583,3.0,0.0,part_2,go,350.0,550.0,1.0,,,,,,,,,blue,hexagon
0.0,7.0,3.0,1.0,5.0,5.0,416.6301129998828,4.0,0.0,part_2,stop,350.0,550.0,3.0,,,,,,,,,white,circle
0.0,6.0,2.0,1.0,6.0,6.0,582.8564880002887,4.0,0.0,part_2,stop,300.0,550.0,3.0,,,,,,,,,gray,diamond
0.0,3.0,3.0,0.0,6.0,6.0,293.5770840003897,4.0,0.0,part_2,go,300.0,500.0,1.0,,,,,,,,,blue,hexagon
0.0,1.0,1.0,0.0,6.0,6.0,495.1423110005635,4.0,0.0,part_2,go,300.0,500.0,1.0,,,,,,,,,cyan,flipped triangle
0.0,8.0,4.0,1.0,5.0,0.0,0.0,4.0,0.0,part_2,stop,300.0,500.0,4.0,,,,,,,,,magenta,cross
0.0,1.0,1.0,0.0,5.0,5.0,357.7524399997855,4.0,0.0,part_2,go,350.0,500.0,1.0,,,,,,,,,cyan,flipped triangle
0.0,4.0,4.0,0.0,5.0,5.0,411.859345999801,4.0,0.0,part_2,go,350.0,500.0,1.0,,,,,,,,,yellow,triangle
0.0,3.0,3.0,0.0,6.0,6.0,526.8388720005532,4.0,0.0,part_2,go,350.0,500.0,1.0,,,,,,,,,blue,hexagon
0.0,2.0,2.0,0.0,5.0,5.0,313.5598930002743,4.0,0.0,part_2,go,350.0,500.0,1.0,,,,,,,,,green,I
0.0,1.0,1.0,0.0,5.0,5.0,503.50914299997385,4.0,0.0,part_2,go,350.0,500.0,1.0,,,,,,,,,cyan,flipped triangle
0.0,8.0,4.0,1.0,5.0,0.0,0.0,4.0,0.0,part_2,stop,350.0,500.0,4.0,,,,,,,,,magenta,cross
0.0,1.0,1.0,0.0,6.0,6.0,333.0612399995516,4.0,0.0,part_2,go,400.0,500.0,1.0,,,,,,,,,cyan,flipped triangle
0.0,5.0,1.0,1.0,5.0,5.0,363.7491560002672,4.0,0.0,part_2,go,400.0,500.0,1.0,,,,,,,,,orange,square
0.0,6.0,2.0,1.0,6.0,6.0,470.9202639996874,4.0,0.0,part_2,stop,400.0,500.0,3.0,,,,,,,,,gray,diamond
0.0,5.0,1.0,1.0,6.0,6.0,600.4917010004647,4.0,0.0,part_2,go,400.0,450.0,1.0,,,,,,,,,orange,square
0.0,8.0,4.0,1.0,5.0,0.0,0.0,4.0,0.0,part_2,stop,400.0,450.0,4.0,,,,,,,,,magenta,cross
0.0,8.0,4.0,1.0,6.0,0.0,0.0,4.0,0.0,part_2,stop,450.0,450.0,4.0,,,,,,,,,magenta,cross
0.0,3.0,3.0,0.0,5.0,5.0,585.1728449997609,4.0,0.0,part_2,go,450.0,500.0,1.0,,,,,,,,,blue,hexagon
0.0,8.0,4.0,1.0,6.0,6.0,770.539627999824,4.0,0.0,part_2,go,450.0,500.0,1.0,,,,,,,,,magenta,cross
0.0,5.0,1.0,1.0,6.0,6.0,426.9013749999431,4.0,0.0,part_2,stop,450.0,500.0,3.0,,,,,,,,,orange,square
0.0,7.0,3.0,1.0,6.0,0.0,0.0,4.0,0.0,part_2,stop,450.0,450.0,4.0,,,,,,,,,white,circle
0.0,1.0,1.0,0.0,6.0,6.0,791.0451739999189,4.0,0.0,part_2,go,450.0,500.0,1.0,,,,,,,,,cyan,flipped triangle
0.0,7.0,3.0,1.0,6.0,0.0,0.0,4.0,0.0,part_2,stop,450.0,500.0,4.0,,,,,,,,,white,circle
0.0,2.0,2.0,0.0,5.0,5.0,822.2013199992944,4.0,0.0,part_2,go,450.0,550.0,1.0,,,,,,,,,green,I
0.0,5.0,1.0,1.0,5.0,0.0,0.0,4.0,0.0,part_2,stop,450.0,550.0,4.0,,,,,,,,,orange,square
0.0,2.0,2.0,0.0,5.0,5.0,449.1179770002418,4.0,0.0,part_2,go,500.0,550.0,1.0,,,,,,,,,green,I
0.0,7.0,3.0,1.0,6.0,6.0,702.0168290000584,4.0,0.0,part_2,stop,500.0,550.0,3.0,,,,,,,,,white,circle
0.0,6.0,2.0,1.0,6.0,6.0,627.368070000557,4.0,0.0,part_2,stop,500.0,500.0,3.0,,,,,,,,,gray,diamond
0.0,3.0,3.0,0.0,5.0,5.0,781.8051209997066,4.0,0.0,part_2,go,500.0,450.0,1.0,,,,,,,,,blue,hexagon
0.0,6.0,2.0,1.0,6.0,0.0,0.0,4.0,0.0,part_2,stop,500.0,450.0,4.0,,,,,,,,,gray,diamond
0.0,4.0,4.0,0.0,5.0,5.0,834.9873960005425,4.0,0.0,part_2,go,500.0,500.0,1.0,,,,,,,,,yellow,triangle
0.0,7.0,3.0,1.0,6.0,0.0,0.0,4.0,0.0,part_2,stop,500.0,500.0,4.0,,,,,,,,,white,circle
0.0,7.0,3.0,1.0,5.0,5.0,751.4625599997089,4.0,0.0,part_2,go,500.0,550.0,1.0,,,,,,,,,white,circle
0.0,8.0,4.0,1.0,5.0,0.0,0.0,4.0,0.0,part_2,stop,500.0,550.0,4.0,,,,,,,,,magenta,cross
0.0,2.0,2.0,0.0,6.0,6.0,750.0899409997146,4.0,0.0,part_2,go,550.0,550.0,1.0,,,,,,,,,green,I
0.0,3.0,3.0,0.0,5.0,5.0,654.3214160001298,4.0,0.0,part_2,go,550.0,550.0,1.0,,,,,,,,,blue,hexagon
0.0,8.0,4.0,1.0,5.0,0.0,0.0,5.0,0.0,part_2,stop,550.0,550.0,4.0,,,,,,,,,magenta,cross
0.0,8.0,4.0,1.0,6.0,0.0,0.0,5.0,0.0,part_2,stop,600.0,550.0,4.0,,,,,,,,,magenta,cross
0.0,4.0,4.0,0.0,6.0,6.0,503.8963639999565,5.0,0.0,part_2,go,600.0,600.0,1.0,,,,,,,,,yellow,triangle
0.0,1.0,1.0,0.0,5.0,5.0,673.5671540000112,5.0,0.0,part_2,go,600.0,600.0,1.0,,,,,,,,,cyan,flipped triangle
0.0,4.0,4.0,0.0,6.0,6.0,702.6630989994374,5.0,0.0,part_2,go,600.0,600.0,1.0,,,,,,,,,yellow,triangle
0.0,5.0,1.0,1.0,6.0,0.0,0.0,5.0,0.0,part_2,stop,600.0,600.0,4.0,,,,,,,,,orange,square
0.0,2.0,2.0,0.0,5.0,5.0,500.43990399990435,5.0,0.0,part_2,go,600.0,650.0,1.0,,,,,,,,,green,I
0.0,1.0,1.0,0.0,5.0,5.0,602.4163669999325,5.0,0.0,part_2,go,600.0,650.0,1.0,,,,,,,,,cyan,flipped triangle
0.0,5.0,1.0,1.0,5.0,5.0,543.0101789997934,5.0,0.0,part_2,stop,600.0,650.0,3.0,,,,,,,,,orange,square
0.0,6.0,2.0,1.0,5.0,5.0,483.5642519992689,5.0,0.0,part_2,stop,550.0,650.0,3.0,,,,,,,,,gray,diamond
0.0,8.0,4.0,1.0,6.0,6.0,876.8505350008127,5.0,0.0,part_2,go,500.0,650.0,1.0,,,,,,,,,magenta,cross
0.0,5.0,1.0,1.0,5.0,0.0,0.0,5.0,0.0,part_2,stop,500.0,650.0,4.0,,,,,,,,,orange,square
0.0,2.0,2.0,0.0,5.0,5.0,519.452793999335,5.0,0.0,part_2,go,550.0,650.0,1.0,,,,,,,,,green,I
0.0,3.0,3.0,0.0,5.0,5.0,684.8898569996891,5.0,0.0,part_2,go,550.0,650.0,1.0,,,,,,,,,blue,hexagon
0.0,5.0,1.0,1.0,6.0,6.0,778.5379840006499,5.0,0.0,part_2,stop,550.0,650.0,3.0,,,,,,,,,orange,square
0.0,1.0,1.0,0.0,6.0,6.0,707.2761979998177,5.0,0.0,part_2,go,550.0,600.0,1.0,,,,,,,,,cyan,flipped triangle
0.0,4.0,4.0,0.0,5.0,5.0,847.9433270003938,5.0,0.0,part_2,go,550.0,600.0,1.0,,,,,,,,,yellow,triangle
0.0,3.0,3.0,0.0,6.0,6.0,695.7843560003312,5.0,0.0,part_2,go,550.0,600.0,1.0,,,,,,,,,blue,hexagon
0.0,7.0,3.0,1.0,5.0,0.0,0.0,5.0,0.0,part_2,stop,550.0,600.0,4.0,,,,,,,,,white,circle
0.0,8.0,4.0,1.0,6.0,0.0,0.0,5.0,0.0,part_2,stop,600.0,600.0,4.0,,,,,,,,,magenta,cross
0.0,1.0,1.0,0.0,5.0,5.0,520.6087110000226,5.0,0.0,part_2,go,600.0,650.0,1.0,,,,,,,,,cyan,flipped triangle
0.0,7.0,3.0,1.0,5.0,5.0,595.1193600003535,5.0,0.0,part_2,go,600.0,650.0,1.0,,,,,,,,,white,circle
0.0,5.0,1.0,1.0,5.0,0.0,0.0,5.0,0.0,part_2,stop,600.0,650.0,4.0,,,,,,,,,orange,square
0.0,5.0,1.0,1.0,5.0,5.0,848.7796979998166,5.0,0.0,part_2,stop,650.0,650.0,3.0,,,,,,,,,orange,square
0.0,6.0,2.0,1.0,6.0,6.0,730.0539240004582,5.0,0.0,part_2,stop,600.0,650.0,3.0,,,,,,,,,gray,diamond
0.0,6.0,2.0,1.0,6.0,6.0,406.4230849999148,5.0,0.0,part_2,go,600.0,600.0,1.0,,,,,,,,,gray,diamond
0.0,3.0,3.0,0.0,6.0,6.0,911.2385680000444,5.0,0.0,part_2,go,600.0,600.0,1.0,,,,,,,,,blue,hexagon
0.0,4.0,4.0,0.0,6.0,6.0,867.1240560006481,5.0,0.0,part_2,go,600.0,600.0,1.0,,,,,,,,,yellow,triangle
0.0,6.0,2.0,1.0,5.0,5.0,813.8924060003774,5.0,0.0,part_2,go,600.0,600.0,1.0,,,,,,,,,gray,diamond
0.0,1.0,1.0,0.0,5.0,5.0,929.1722720008692,5.0,0.0,part_2,go,600.0,600.0,1.0,,,,,,,,,cyan,flipped triangle
0.0,6.0,2.0,1.0,5.0,0.0,0.0,5.0,0.0,part_2,stop,600.0,600.0,4.0,,,,,,,,,gray,diamond
0.0,2.0,2.0,0.0,5.0,5.0,678.7729749994469,5.0,0.0,part_2,go,650.0,600.0,1.0,,,,,,,,,green,I
0.0,5.0,1.0,1.0,5.0,0.0,0.0,5.0,0.0,part_2,stop,650.0,600.0,4.0,,,,,,,,,orange,square
0.0,8.0,4.0,1.0,5.0,0.0,0.0,5.0,0.0,part_2,stop,700.0,600.0,4.0,,,,,,,,,magenta,cross
0.0,8.0,4.0,1.0,5.0,0.0,0.0,5.0,0.0,part_2,stop,750.0,600.0,4.0,,,,,,,,,magenta,cross
0.0,3.0,3.0,0.0,6.0,6.0,505.8540460004224,5.0,0.0,part_2,go,800.0,600.0,1.0,,,,,,,,,blue,hexagon
0.0,7.0,3.0,1.0,5.0,5.0,522.0370119996005,6.0,0.0,part_2,stop,800.0,600.0,3.0,,,,,,,,,white,circle
0.0,4.0,4.0,0.0,5.0,5.0,751.3466119999066,6.0,0.0,part_2,go,750.0,600.0,1.0,,,,,,,,,yellow,triangle
0.0,4.0,4.0,0.0,6.0,6.0,421.9380649992672,6.0,0.0,part_2,go,750.0,600.0,1.0,,,,,,,,,yellow,triangle
0.0,3.0,3.0,0.0,5.0,5.0,898.5326669999267,6.0,0.0,part_2,go,750.0,600.0,1.0,,,,,,,,,blue,hexagon
0.0,2.0,2.0,0.0,5.0,5.0,507.5157580004088,6.0,0.0,part_2,go,750.0,600.0,1.0,,,,,,,,,green,I
0.0,3.0,3.0,0.0,5.0,5.0,789.2806900008509,6.0,0.0,part_2,go,750.0,600.0,1.0,,,,,,,,,blue,hexagon
0.0,1.0,1.0,0.0,6.0,6.0,772.9058549994079,6.0,0.0,part_2,go,750.0,600.0,1.0,,,,,,,,,cyan,flipped triangle
0.0,5.0,1.0,1.0,5.0,5.0,667.4957040004301,6.0,0.0,part_2,go,750.0,600.0,1.0,,,,,,,,,orange,square
0.0,7.0,3.0,1.0,6.0,6.0,372.6881780003168,6.0,0.0,part_2,stop,750.0,600.0,3.0,,,,,,,,,white,circle
0.0,6.0,2.0,1.0,5.0,5.0,535.3140739998707,6.0,0.0,part_2,stop,750.0,550.0,3.0,,,,,,,,,gray,diamond
0.0,7.0,3.0,1.0,6.0,6.0,903.2308719997671,6.0,0.0,part_2,go,700.0,550.0,1.0,,,,,,,,,white,circle
0.0,7.0,3.0,1.0,5.0,5.0,730.3369359997305,6.0,0.0,part_2,stop,700.0,550.0,3.0,,,,,,,,,white,circle
0.0,1.0,1.0,0.0,5.0,5.0,941.3876070002516,6.0,0.0,part_2,go,650.0,550.0,1.0,,,,,,,,,cyan,flipped triangle
0.0,1.0,1.0,0.0,6.0,6.0,908.5716999998112,6.0,0.0,part_2,go,650.0,550.0,1.0,,,,,,,,,cyan,flipped triangle
0.0,4.0,4.0,0.0,5.0,5.0,722.6509769998302,6.0,0.0,part_2,go,650.0,550.0,1.0,,,,,,,,,yellow,triangle
0.0,2.0,2.0,0.0,5.0,5.0,700.1769990001776,6.0,0.0,part_2,go,650.0,550.0,1.0,,,,,,,,,green,I
0.0,4.0,4.0,0.0,5.0,5.0,840.982566999628,6.0,0.0,part_2,go,650.0,550.0,1.0,,,,,,,,,yellow,triangle
0.0,8.0,4.0,1.0,5.0,0.0,0.0,6.0,0.0,part_2,stop,650.0,550.0,4.0,,,,,,,,,magenta,cross
0.0,4.0,4.0,0.0,5.0,5.0,710.6350439999005,6.0,0.0,part_2,go,700.0,550.0,1.0,,,,,,,,,yellow,triangle
0.0,6.0,2.0,1.0,6.0,6.0,295.5044020000059,6.0,0.0,part_2,go,700.0,550.0,1.0,,,,,,,,,gray,diamond
0.0,6.0,2.0,1.0,6.0,6.0,419.0961999993305,6.0,0.0,part_2,stop,700.0,550.0,3.0,,,,,,,,,gray,diamond
0.0,2.0,2.0,0.0,6.0,6.0,529.6064770000157,6.0,0.0,part_2,go,700.0,500.0,1.0,,,,,,,,,green,I
0.0,6.0,2.0,1.0,6.0,0.0,0.0,6.0,0.0,part_2,stop,700.0,500.0,4.0,,,,,,,,,gray,diamond
0.0,7.0,3.0,1.0,6.0,6.0,595.8483840004192,6.0,0.0,part_2,go,700.0,550.0,1.0,,,,,,,,,white,circle
0.0,4.0,4.0,0.0,6.0,6.0,336.9249269999272,6.0,0.0,part_2,go,700.0,550.0,1.0,,,,,,,,,yellow,triangle
0.0,2.0,2.0,0.0,5.0,5.0,587.8655920005258,6.0,0.0,part_2,go,700.0,550.0,1.0,,,,,,,,,green,I
0.0,8.0,4.0,1.0,5.0,5.0,931.434707000335,6.0,0.0,part_2,go,700.0,550.0,1.0,,,,,,,,,magenta,cross
0.0,5.0,1.0,1.0,6.0,0.0,0.0,6.0,0.0,part_2,stop,700.0,550.0,4.0,,,,,,,,,orange,square
0.0,3.0,3.0,0.0,5.0,5.0,307.1062529998016,6.0,0.0,part_2,go,700.0,600.0,1.0,,,,,,,,,blue,hexagon
0.0,1.0,1.0,0.0,5.0,5.0,287.1854660006647,6.0,0.0,part_2,go,700.0,600.0,1.0,,,,,,,,,cyan,flipped triangle
0.0,3.0,3.0,0.0,6.0,6.0,851.4073009991989,6.0,0.0,part_2,go,700.0,600.0,1.0,,,,,,,,,blue,hexagon
0.0,2.0,2.0,0.0,6.0,6.0,727.3237119998157,6.0,0.0,part_2,go,700.0,600.0,1.0,,,,,,,,,green,I
0.0,7.0,3.0,1.0,6.0,0.0,0.0,6.0,0.0,part_2,stop,700.0,600.0,4.0,,,,,,,,,white,circle
0.0,4.0,4.0,0.0,6.0,6.0,269.6186079992912,6.0,0.0,part_2,go,700.0,650.0,1.0,,,,,,,,,yellow,triangle
0.0,1.0,1.0,0.0,5.0,5.0,420.0209399996311,6.0,0.0,part_2,go,700.0,650.0,1.0,,,,,,,,,cyan,flipped triangle
0.0,6.0,2.0,1.0,6.0,0.0,0.0,6.0,0.0,part_2,stop,700.0,650.0,4.0,,,,,,,,,gray,diamond
0.0,8.0,4.0,1.0,6.0,0.0,0.0,7.0,0.0,part_2,stop,700.0,700.0,4.0,,,,,,,,,magenta,cross
0.0,2.0,2.0,0.0,6.0,6.0,266.8620859994917,7.0,0.0,part_2,go,700.0,750.0,1.0,,,,,,,,,green,I
0.0,5.0,1.0,1.0,6.0,6.0,666.8859979999979,7.0,0.0,part_2,stop,700.0,750.0,3.0,,,,,,,,,orange,square
0.0,6.0,2.0,1.0,6.0,6.0,377.0972110005459,7.0,0.0,part_2,go,700.0,700.0,1.0,,,,,,,,,gray,diamond
0.0,4.0,4.0,0.0,5.0,5.0,510.5564730001788,7.0,0.0,part_2,go,700.0,700.0,1.0,,,,,,,,,yellow,triangle
0.0,6.0,2.0,1.0,5.0,5.0,230.8975320001991,7.0,0.0,part_2,stop,700.0,700.0,3.0,,,,,,,,,gray,diamond
0.0,4.0,4.0,0.0,5.0,5.0,429.8316660006094,7.0,0.0,part_2,go,650.0,700.0,1.0,,,,,,,,,yellow,triangle
0.0,2.0,2.0,0.0,5.0,5.0,550.987515000088,7.0,0.0,part_2,go,650.0,700.0,1.0,,,,,,,,,green,I
0.0,7.0,3.0,1.0,5.0,5.0,601.210369999535,7.0,0.0,part_2,stop,650.0,700.0,3.0,,,,,,,,,white,circle
0.0,6.0,2.0,1.0,6.0,6.0,448.1446210002104,7.0,0.0,part_2,stop,600.0,700.0,3.0,,,,,,,,,gray,diamond
0.0,6.0,2.0,1.0,5.0,5.0,507.2520089997852,7.0,0.0,part_2,stop,600.0,650.0,3.0,,,,,,,,,gray,diamond
0.0,4.0,4.0,0.0,5.0,5.0,348.5178279997853,7.0,0.0,part_2,go,550.0,650.0,1.0,,,,,,,,,yellow,triangle
0.0,8.0,4.0,1.0,6.0,6.0,764.9593919995823,7.0,0.0,part_2,stop,550.0,650.0,3.0,,,,,,,,,magenta,cross
0.0,6.0,2.0,1.0,5.0,0.0,0.0,7.0,0.0,part_2,stop,550.0,600.0,4.0,,,,,,,,,gray,diamond
0.0,5.0,1.0,1.0,6.0,0.0,0.0,7.0,0.0,part_2,stop,600.0,600.0,4.0,,,,,,,,,orange,square
0.0,5.0,1.0,1.0,5.0,5.0,226.8566209995697,7.0,0.0,part_2,go,600.0,650.0,1.0,,,,,,,,,orange,square
0.0,3.0,3.0,0.0,5.0,5.0,465.1798340000823,7.0,0.0,part_2,go,600.0,650.0,1.0,,,,,,,,,blue,hexagon
0.0,2.0,2.0,0.0,5.0,5.0,227.6801380003235,7.0,0.0,part_2,go,600.0,650.0,1.0,,,,,,,,,green,I
0.0,8.0,4.0,1.0,5.0,6.0,0.307039999825,7.0,0.0,part_2,stop,600.0,650.0,3.0,,,,,,,,,magenta,cross
0.0,1.0,1.0,0.0,5.0,5.0,407.7472629996919,7.0,0.0,part_2,go,550.0,650.0,1.0,,,,,,,,,cyan,flipped triangle
0.0,5.0,1.0,1.0,6.0,0.0,0.0,7.0,0.0,part_2,stop,550.0,650.0,4.0,,,,,,,,,orange,square
0.0,4.0,4.0,0.0,5.0,5.0,291.3152989995069,7.0,0.0,part_2,go,550.0,700.0,1.0,,,,,,,,,yellow,triangle
0.0,3.0,3.0,0.0,6.0,6.0,841.8062900000223,7.0,0.0,part_2,go,550.0,700.0,1.0,,,,,,,,,blue,hexagon
0.0,4.0,4.0,0.0,6.0,6.0,262.3292779999246,7.0,0.0,part_2,go,550.0,700.0,1.0,,,,,,,,,yellow,triangle
0.0,5.0,1.0,1.0,5.0,5.0,231.1970239998118,7.0,0.0,part_2,stop,550.0,700.0,3.0,,,,,,,,,orange,square
0.0,1.0,1.0,0.0,5.0,5.0,855.5239430006623,7.0,0.0,part_2,go,500.0,700.0,1.0,,,,,,,,,cyan,flipped triangle
0.0,3.0,3.0,0.0,6.0,6.0,739.138443000229,7.0,0.0,part_2,go,500.0,700.0,1.0,,,,,,,,,blue,hexagon
0.0,4.0,4.0,0.0,5.0,5.0,286.1602020002465,7.0,0.0,part_2,go,500.0,700.0,1.0,,,,,,,,,yellow,triangle
0.0,3.0,3.0,0.0,6.0,6.0,803.9814450003178,7.0,0.0,part_2,go,500.0,700.0,1.0,,,,,,,,,blue,hexagon
0.0,6.0,2.0,1.0,5.0,5.0,689.5434059997569,7.0,0.0,part_2,go,500.0,700.0,1.0,,,,,,,,,gray,diamond
0.0,7.0,3.0,1.0,5.0,5.0,259.8754070004361,7.0,0.0,part_2,stop,500.0,700.0,3.0,,,,,,,,,white,circle
0.0,1.0,1.0,0.0,5.0,5.0,564.3627069994182,7.0,0.0,part_2,go,450.0,700.0,1.0,,,,,,,,,cyan,flipped triangle
0.0,7.0,3.0,1.0,5.0,5.0,1094.6416359993236,7.0,0.0,part_2,go,450.0,700.0,1.0,,,,,,,,,white,circle
0.0,8.0,4.0,1.0,5.0,5.0,241.40193499988519,7.0,0.0,part_2,go,450.0,700.0,1.0,,,,,,,,,magenta,cross
0.0,2.0,2.0,0.0,5.0,5.0,445.2303199996095,7.0,0.0,part_2,go,450.0,700.0,1.0,,,,,,,,,green,I
0.0,8.0,4.0,1.0,6.0,6.0,1143.2265880002888,7.0,0.0,part_2,go,450.0,700.0,1.0,,,,,,,,,magenta,cross
0.0,2.0,2.0,0.0,6.0,6.0,365.205748000335,8.0,0.0,part_2,go,450.0,700.0,1.0,,,,,,,,,green,I
0.0,6.0,2.0,1.0,5.0,5.0,704.812062000201,8.0,0.0,part_2,go,450.0,700.0,1.0,,,,,,,,,gray,diamond
0.0,7.0,3.0,1.0,6.0,6.0,731.2818190002872,8.0,0.0,part_2,stop,450.0,700.0,3.0,,,,,,,,,white,circle
0.0,6.0,2.0,1.0,5.0,5.0,400.6725959998221,8.0,0.0,part_2,stop,450.0,650.0,3.0,,,,,,,,,gray,diamond
0.0,6.0,2.0,1.0,5.0,5.0,456.4842139998291,8.0,0.0,part_2,stop,400.0,650.0,3.0,,,,,,,,,gray,diamond
0.0,8.0,4.0,1.0,5.0,5.0,745.0440840002557,8.0,0.0,part_2,go,350.0,650.0,1.0,,,,,,,,,magenta,cross
0.0,5.0,1.0,1.0,5.0,5.0,264.9630170008095,8.0,0.0,part_2,stop,350.0,650.0,3.0,,,,,,,,,orange,square
0.0,1.0,1.0,0.0,5.0,5.0,767.881148000015,8.0,0.0,part_2,go,300.0,650.0,1.0,,,,,,,,,cyan,flipped triangle
0.0,8.0,4.0,1.0,6.0,6.0,207.1581549998882,8.0,0.0,part_2,stop,300.0,650.0,3.0,,,,,,,,,magenta,cross
0.0,2.0,2.0,0.0,6.0,6.0,613.1138290002127,8.0,0.0,part_2,go,300.0,600.0,1.0,,,,,,,,,green,I
0.0,6.0,2.0,1.0,6.0,6.0,759.9881090000054,8.0,0.0,part_2,stop,300.0,600.0,3.0,,,,,,,,,gray,diamond
0.0,5.0,1.0,1.0,6.0,0.0,0.0,8.0,0.0,part_2,stop,300.0,550.0,4.0,,,,,,,,,orange,square
0.0,5.0,1.0,1.0,5.0,5.0,831.0271430000284,8.0,0.0,part_2,go,300.0,600.0,1.0,,,,,,,,,orange,square
0.0,4.0,4.0,0.0,6.0,6.0,281.8865059998643,8.0,0.0,part_2,go,300.0,600.0,1.0,,,,,,,,,yellow,triangle
0.0,1.0,1.0,0.0,6.0,6.0,470.296132999465,8.0,0.0,part_2,go,300.0,600.0,1.0,,,,,,,,,cyan,flipped triangle
0.0,6.0,2.0,1.0,5.0,5.0,596.9524840002123,8.0,0.0,part_2,go,300.0,600.0,1.0,,,,,,,,,gray,diamond
0.0,7.0,3.0,1.0,5.0,5.0,248.4093729999585,8.0,0.0,part_2,go,300.0,600.0,1.0,,,,,,,,,white,circle
0.0,3.0,3.0,0.0,5.0,5.0,473.586578999857,8.0,0.0,part_2,go,300.0,600.0,1.0,,,,,,,,,blue,hexagon
0.0,2.0,2.0,0.0,5.0,5.0,611.6580620000605,8.0,0.0,part_2,go,300.0,600.0,1.0,,,,,,,,,green,I
0.0,4.0,4.0,0.0,6.0,6.0,856.6964759993425,8.0,0.0,part_2,go,300.0,600.0,1.0,,,,,,,,,yellow,triangle
0.0,5.0,1.0,1.0,5.0,0.0,0.0,8.0,0.0,part_2,stop,300.0,600.0,4.0,,,,,,,,,orange,square
0.0,3.0,3.0,0.0,5.0,5.0,383.9056919996437,8.0,0.0,part_2,go,350.0,600.0,1.0,,,,,,,,,blue,hexagon
0.0,3.0,3.0,0.0,5.0,5.0,412.7823800008627,8.0,0.0,part_2,go,350.0,600.0,1.0,,,,,,,,,blue,hexagon
0.0,7.0,3.0,1.0,6.0,0.0,0.0,8.0,0.0,part_2,stop,350.0,600.0,4.0,,,,,,,,,white,circle
0.0,1.0,1.0,0.0,6.0,6.0,493.040645000292,8.0,0.0,part_2,go,350.0,650.0,1.0,,,,,,,,,cyan,flipped triangle
0.0,2.0,2.0,0.0,5.0,5.0,502.1483310001713,8.0,0.0,part_2,go,350.0,650.0,1.0,,,,,,,,,green,I
0.0,7.0,3.0,1.0,5.0,5.0,230.9104089999891,8.0,0.0,part_2,go,350.0,650.0,1.0,,,,,,,,,white,circle
0.0,7.0,3.0,1.0,6.0,6.0,798.3208129999184,8.0,0.0,part_2,stop,350.0,650.0,3.0,,,,,,,,,white,circle
0.0,2.0,2.0,0.0,5.0,5.0,307.214438000301,8.0,0.0,part_2,go,350.0,600.0,1.0,,,,,,,,,green,I
0.0,2.0,2.0,0.0,5.0,5.0,566.6113810002571,8.0,0.0,part_2,go,350.0,600.0,1.0,,,,,,,,,green,I
0.0,4.0,4.0,0.0,6.0,6.0,418.833755000378,8.0,0.0,part_2,go,350.0,600.0,1.0,,,,,,,,,yellow,triangle
0.0,5.0,1.0,1.0,5.0,0.0,0.0,8.0,0.0,part_2,stop,350.0,600.0,4.0,,,,,,,,,orange,square
0.0,8.0,4.0,1.0,5.0,5.0,625.0219230005314,8.0,0.0,part_2,go,400.0,600.0,1.0,,,,,,,,,magenta,cross
0.0,6.0,2.0,1.0,5.0,5.0,459.6473889996559,8.0,0.0,part_2,stop,400.0,600.0,3.0,,,,,,,,,gray,diamond
0.0,7.0,3.0,1.0,6.0,0.0,0.0,8.0,0.0,part_2,stop,350.0,600.0,4.0,,,,,,,,,white,circle
0.0,4.0,4.0,0.0,6.0,6.0,389.0913850000288,8.0,0.0,part_2,go,350.0,650.0,1.0,,,,,,,,,yellow,triangle
0.0,1.0,1.0,0.0,7.0,5.0,1537.9954780000844,1.0,2.0,part_3,go,0.0,0.0,0.0,176.0,4.0,264.0,88.0,44.0,220.0,176.0,132.0,cyan,flipped triangle
0.0,5.0,1.0,1.0,7.0,3.0,1657.6165709993802,1.0,1.0,part_3,go,0.0,0.0,0.0,147.0,3.0,98.0,49.0,147.0,245.0,196.0,294.0,orange,square
0.0,8.0,4.0,1.0,7.0,4.0,1854.0639489992827,1.0,1.0,part_3,go,0.0,0.0,0.0,324.0,6.0,108.0,54.0,270.0,324.0,216.0,162.0,magenta,cross
0.0,6.0,2.0,1.0,7.0,1.0,2011.075508000431,1.0,1.0,part_3,go,0.0,0.0,0.0,98.0,2.0,98.0,294.0,245.0,49.0,196.0,147.0,gray,diamond
0.0,3.0,3.0,0.0,7.0,2.0,1690.1210839996563,1.0,1.0,part_3,go,0.0,0.0,0.0,204.0,6.0,34.0,204.0,170.0,136.0,102.0,68.0,blue,hexagon
0.0,8.0,4.0,1.0,7.0,6.0,1560.9945859996517,1.0,1.0,part_3,go,0.0,0.0,0.0,234.0,6.0,156.0,117.0,39.0,195.0,78.0,234.0,magenta,cross
0.0,1.0,1.0,0.0,7.0,3.0,1860.4000089999315,1.0,1.0,part_3,go,0.0,0.0,0.0,176.0,4.0,88.0,264.0,176.0,132.0,44.0,220.0,cyan,flipped triangle
0.0,4.0,4.0,0.0,7.0,1.0,2102.409183000418,1.0,1.0,part_3,go,0.0,0.0,0.0,196.0,4.0,196.0,294.0,98.0,147.0,49.0,245.0,yellow,triangle
0.0,6.0,2.0,1.0,7.0,6.0,2223.5668749999604,1.0,1.0,part_3,go,0.0,0.0,0.0,68.0,2.0,102.0,170.0,204.0,136.0,34.0,68.0,gray,diamond
0.0,1.0,1.0,0.0,7.0,6.0,2066.0800780005957,1.0,1.0,part_3,go,0.0,0.0,0.0,162.0,3.0,216.0,324.0,54.0,270.0,108.0,162.0,cyan,flipped triangle
0.0,2.0,2.0,0.0,7.0,3.0,2791.802769000242,1.0,1.0,part_3,go,0.0,0.0,0.0,78.0,2.0,117.0,156.0,78.0,234.0,195.0,39.0,green,I
0.0,2.0,2.0,0.0,7.0,5.0,3525.079487999392,1.0,1.0,part_3,go,0.0,0.0,0.0,78.0,2.0,39.0,156.0,117.0,195.0,78.0,234.0,green,I
0.0,5.0,1.0,1.0,7.0,1.0,2654.3845960004546,1.0,1.0,part_3,go,0.0,0.0,0.0,220.0,5.0,220.0,44.0,176.0,132.0,264.0,88.0,orange,square
0.0,5.0,1.0,1.0,7.0,3.0,1758.6547079999946,1.0,1.0,part_3,go,0.0,0.0,0.0,132.0,3.0,220.0,176.0,132.0,44.0,264.0,88.0,orange,square
0.0,8.0,4.0,1.0,7.0,1.0,2743.546769000204,1.0,1.0,part_3,go,0.0,0.0,0.0,245.0,5.0,245.0,147.0,98.0,294.0,196.0,49.0,magenta,cross
0.0,5.0,1.0,1.0,7.0,3.0,3034.387517999676,1.0,1.0,part_3,go,0.0,0.0,0.0,170.0,5.0,34.0,204.0,170.0,136.0,68.0,102.0,orange,square
0.0,5.0,1.0,1.0,7.0,1.0,2828.765025999928,1.0,1.0,part_3,go,0.0,0.0,0.0,162.0,3.0,162.0,108.0,270.0,54.0,216.0,324.0,orange,square
0.0,8.0,4.0,1.0,7.0,4.0,2040.2579049996348,1.0,1.0,part_3,go,0.0,0.0,0.0,204.0,6.0,68.0,34.0,170.0,204.0,102.0,136.0,magenta,cross
0.0,2.0,2.0,0.0,7.0,5.0,3316.934095999386,1.0,1.0,part_3,go,0.0,0.0,0.0,102.0,3.0,68.0,204.0,170.0,136.0,102.0,34.0,green,I
0.0,4.0,4.0,0.0,7.0,1.0,3751.373893000164,1.0,1.0,part_3,go,0.0,0.0,0.0,136.0,4.0,136.0,34.0,204.0,170.0,68.0,102.0,yellow,triangle
0.0,5.0,1.0,1.0,7.0,5.0,2153.551131000313,2.0,1.0,part_3,go,0.0,0.0,0.0,136.0,4.0,170.0,102.0,204.0,34.0,136.0,68.0,orange,square
0.0,2.0,2.0,0.0,7.0,5.0,1601.5185320002274,2.0,1.0,part_3,go,0.0,0.0,0.0,49.0,1.0,245.0,196.0,147.0,98.0,49.0,294.0,green,I
0.0,7.0,3.0,1.0,7.0,6.0,940.7891920000112,2.0,1.0,part_3,go,0.0,0.0,0.0,54.0,1.0,162.0,270.0,324.0,108.0,216.0,54.0,white,circle
0.0,8.0,4.0,1.0,7.0,4.0,2525.3951040003813,2.0,1.0,part_3,go,0.0,0.0,0.0,220.0,5.0,264.0,132.0,44.0,220.0,176.0,88.0,magenta,cross
0.0,1.0,1.0,0.0,7.0,6.0,2677.193299999999,2.0,1.0,part_3,go,0.0,0.0,0.0,136.0,4.0,102.0,204.0,170.0,68.0,34.0,136.0,cyan,flipped triangle
0.0,4.0,4.0,0.0,7.0,1.0,3512.2557160002543,2.0,1.0,part_3,go,0.0,0.0,0.0,270.0,5.0,270.0,324.0,162.0,54.0,108.0,216.0,yellow,triangle
0.0,2.0,2.0,0.0,7.0,2.0,1625.1738250002743,2.0,1.0,part_3,go,0.0,0.0,0.0,88.0,2.0,220.0,88.0,44.0,176.0,264.0,132.0,green,I
0.0,6.0,2.0,1.0,7.0,2.0,1767.9341149996617,2.0,1.0,part_3,go,0.0,0.0,0.0,54.0,1.0,162.0,54.0,324.0,270.0,108.0,216.0,gray,diamond
0.0,4.0,4.0,0.0,7.0,5.0,3251.759996999681,2.0,1.0,part_3,go,0.0,0.0,0.0,162.0,3.0,216.0,324.0,54.0,270.0,162.0,108.0,yellow,triangle
0.0,4.0,4.0,0.0,7.0,4.0,2449.336124999718,2.0,1.0,part_3,go,0.0,0.0,0.0,195.0,5.0,156.0,234.0,117.0,195.0,39.0,78.0,yellow,triangle
0.0,4.0,4.0,0.0,7.0,6.0,1957.3727040005904,2.0,1.0,part_3,go,0.0,0.0,0.0,136.0,4.0,204.0,170.0,34.0,68.0,102.0,136.0,yellow,triangle
0.0,8.0,4.0,1.0,7.0,2.0,2138.0835979998665,2.0,1.0,part_3,go,0.0,0.0,0.0,220.0,5.0,264.0,220.0,176.0,132.0,88.0,44.0,magenta,cross
0.0,2.0,2.0,0.0,7.0,3.0,1612.1519140006058,2.0,1.0,part_3,go,0.0,0.0,0.0,68.0,2.0,34.0,170.0,68.0,102.0,204.0,136.0,green,I
0.0,3.0,3.0,0.0,7.0,4.0,1850.894531999984,2.0,1.0,part_3,go,0.0,0.0,0.0,220.0,5.0,88.0,44.0,176.0,220.0,132.0,264.0,blue,hexagon
0.0,7.0,3.0,1.0,7.0,1.0,3600.8119680000163,2.0,1.0,part_3,go,0.0,0.0,0.0,68.0,2.0,68.0,204.0,102.0,34.0,170.0,136.0,white,circle
0.0,6.0,2.0,1.0,7.0,3.0,2154.0928939994046,2.0,1.0,part_3,go,0.0,0.0,0.0,54.0,1.0,216.0,108.0,54.0,324.0,162.0,270.0,gray,diamond
0.0,8.0,4.0,1.0,7.0,4.0,2529.8946089997116,2.0,1.0,part_3,go,0.0,0.0,0.0,245.0,5.0,98.0,147.0,294.0,245.0,196.0,49.0,magenta,cross
0.0,3.0,3.0,0.0,7.0,6.0,2895.896924999761,2.0,1.0,part_3,go,0.0,0.0,0.0,156.0,4.0,78.0,117.0,39.0,195.0,234.0,156.0,blue,hexagon
0.0,4.0,4.0,0.0,7.0,4.0,2881.9468330002564,2.0,1.0,part_3,go,0.0,0.0,0.0,156.0,4.0,39.0,195.0,78.0,156.0,234.0,117.0,yellow,triangle
0.0,8.0,4.0,1.0,7.0,6.0,1079.9623860002612,2.0,1.0,part_3,go,0.0,0.0,0.0,234.0,6.0,195.0,78.0,117.0,156.0,39.0,234.0,magenta,cross
0.0,1.0,1.0,0.0,7.0,2.0,2659.1509489999225,3.0,1.0,part_3,go,0.0,0.0,0.0,98.0,2.0,49.0,98.0,294.0,147.0,196.0,245.0,cyan,flipped triangle
0.0,6.0,2.0,1.0,7.0,5.0,1246.9894400001067,3.0,1.0,part_3,go,0.0,0.0,0.0,34.0,1.0,204.0,68.0,136.0,102.0,34.0,170.0,gray,diamond
0.0,1.0,1.0,0.0,7.0,1.0,2221.0174809997625,3.0,1.0,part_3,go,0.0,0.0,0.0,156.0,4.0,156.0,117.0,39.0,234.0,78.0,195.0,cyan,flipped triangle
0.0,2.0,2.0,0.0,7.0,6.0,2887.8807350001807,3.0,1.0,part_3,go,0.0,0.0,0.0,162.0,3.0,216.0,270.0,54.0,324.0,108.0,162.0,green,I
0.0,3.0,3.0,0.0,7.0,5.0,2679.3698809997295,3.0,1.0,part_3,go,0.0,0.0,0.0,216.0,4.0,54.0,324.0,162.0,108.0,216.0,270.0,blue,hexagon
0.0,1.0,1.0,0.0,7.0,4.0,2823.8509259999773,3.0,1.0,part_3,go,0.0,0.0,0.0,156.0,4.0,234.0,195.0,78.0,156.0,117.0,39.0,cyan,flipped triangle
0.0,7.0,3.0,1.0,7.0,5.0,1263.8172939996366,3.0,1.0,part_3,go,0.0,0.0,0.0,39.0,1.0,78.0,117.0,156.0,195.0,39.0,234.0,white,circle
0.0,1.0,1.0,0.0,7.0,6.0,1314.6008800003983,3.0,1.0,part_3,go,0.0,0.0,0.0,108.0,2.0,162.0,54.0,270.0,324.0,216.0,108.0,cyan,flipped triangle
0.0,1.0,1.0,0.0,7.0,5.0,2687.383372000113,3.0,1.0,part_3,go,0.0,0.0,0.0,136.0,4.0,34.0,68.0,204.0,170.0,136.0,102.0,cyan,flipped triangle
0.0,7.0,3.0,1.0,7.0,6.0,1289.9330039999768,3.0,1.0,part_3,go,0.0,0.0,0.0,44.0,1.0,176.0,220.0,88.0,132.0,264.0,44.0,white,circle
0.0,2.0,2.0,0.0,7.0,6.0,573.0332170005568,3.0,1.0,part_3,go,0.0,0.0,0.0,44.0,1.0,176.0,220.0,264.0,132.0,88.0,44.0,green,I
0.0,2.0,2.0,0.0,7.0,5.0,671.2027449993911,3.0,1.0,part_3,go,0.0,0.0,0.0,108.0,2.0,162.0,270.0,216.0,54.0,108.0,324.0,green,I
0.0,7.0,3.0,1.0,7.0,5.0,842.0452810005372,3.0,1.0,part_3,go,0.0,0.0,0.0,44.0,1.0,176.0,264.0,88.0,220.0,44.0,132.0,white,circle
0.0,3.0,3.0,0.0,7.0,5.0,1437.7151469998353,3.0,1.0,part_3,go,0.0,0.0,0.0,220.0,5.0,88.0,132.0,264.0,176.0,220.0,44.0,blue,hexagon
0.0,3.0,3.0,0.0,7.0,3.0,1798.6670039999808,3.0,1.0,part_3,go,0.0,0.0,0.0,245.0,5.0,98.0,49.0,245.0,147.0,196.0,294.0,blue,hexagon
0.0,5.0,1.0,1.0,7.0,4.0,1923.3908750002229,3.0,1.0,part_3,go,0.0,0.0,0.0,108.0,2.0,270.0,54.0,162.0,108.0,216.0,324.0,orange,square
0.0,7.0,3.0,1.0,7.0,6.0,1081.175283000448,3.0,1.0,part_3,go,0.0,0.0,0.0,49.0,1.0,147.0,294.0,245.0,196.0,98.0,49.0,white,circle
0.0,7.0,3.0,1.0,7.0,4.0,729.4131399994512,3.0,1.0,part_3,go,0.0,0.0,0.0,49.0,1.0,196.0,294.0,245.0,49.0,147.0,98.0,white,circle
0.0,5.0,1.0,1.0,7.0,1.0,2726.621191999584,3.0,1.0,part_3,go,0.0,0.0,0.0,156.0,4.0,156.0,39.0,117.0,195.0,78.0,234.0,orange,square
0.0,1.0,1.0,0.0,7.0,5.0,1680.404520000593,3.0,1.0,part_3,go,0.0,0.0,0.0,147.0,3.0,98.0,49.0,245.0,294.0,147.0,196.0,cyan,flipped triangle
0.0,5.0,1.0,1.0,7.0,6.0,1815.9292070004085,4.0,1.0,part_3,go,0.0,0.0,0.0,147.0,3.0,49.0,294.0,196.0,98.0,245.0,147.0,orange,square
0.0,5.0,1.0,1.0,7.0,4.0,2196.192094000253,4.0,1.0,part_3,go,0.0,0.0,0.0,195.0,5.0,117.0,78.0,234.0,195.0,39.0,156.0,orange,square
0.0,3.0,3.0,0.0,7.0,4.0,1771.5884520002874,4.0,1.0,part_3,go,0.0,0.0,0.0,216.0,4.0,162.0,54.0,108.0,216.0,270.0,324.0,blue,hexagon
0.0,8.0,4.0,1.0,7.0,5.0,2053.9721439999994,4.0,1.0,part_3,go,0.0,0.0,0.0,204.0,6.0,102.0,34.0,68.0,170.0,204.0,136.0,magenta,cross
0.0,3.0,3.0,0.0,7.0,1.0,3872.133345000293,4.0,1.0,part_3,go,0.0,0.0,0.0,170.0,5.0,170.0,68.0,34.0,102.0,136.0,204.0,blue,hexagon
0.0,2.0,2.0,0.0,7.0,1.0,2778.1116249998377,4.0,1.0,part_3,go,0.0,0.0,0.0,98.0,2.0,98.0,49.0,147.0,245.0,196.0,294.0,green,I
0.0,6.0,2.0,1.0,7.0,1.0,888.6641549997876,4.0,1.0,part_3,go,0.0,0.0,0.0,49.0,1.0,49.0,98.0,294.0,196.0,147.0,245.0,gray,diamond
0.0,4.0,4.0,0.0,7.0,5.0,1548.337145000005,4.0,1.0,part_3,go,0.0,0.0,0.0,132.0,3.0,176.0,44.0,88.0,220.0,132.0,264.0,yellow,triangle
0.0,8.0,4.0,1.0,7.0,3.0,1760.074996000185,4.0,1.0,part_3,go,0.0,0.0,0.0,216.0,4.0,108.0,324.0,216.0,162.0,54.0,270.0,magenta,cross
0.0,7.0,3.0,1.0,7.0,6.0,2701.2892109996756,4.0,1.0,part_3,go,0.0,0.0,0.0,54.0,1.0,108.0,216.0,324.0,162.0,270.0,54.0,white,circle
0.0,6.0,2.0,1.0,7.0,4.0,1869.799789999888,4.0,1.0,part_3,go,0.0,0.0,0.0,88.0,2.0,220.0,264.0,132.0,88.0,44.0,176.0,gray,diamond
0.0,7.0,3.0,1.0,7.0,2.0,2238.477442000658,4.0,1.0,part_3,go,0.0,0.0,0.0,78.0,2.0,156.0,78.0,195.0,117.0,234.0,39.0,white,circle
0.0,7.0,3.0,1.0,7.0,1.0,660.6671379995532,4.0,1.0,part_3,go,0.0,0.0,0.0,34.0,1.0,34.0,102.0,170.0,136.0,68.0,204.0,white,circle
0.0,6.0,2.0,1.0,7.0,6.0,991.0083240001768,4.0,1.0,part_3,go,0.0,0.0,0.0,88.0,2.0,176.0,44.0,220.0,264.0,132.0,88.0,gray,diamond
0.0,6.0,2.0,1.0,7.0,2.0,875.4825420000998,4.0,1.0,part_3,go,0.0,0.0,0.0,39.0,1.0,234.0,39.0,117.0,156.0,195.0,78.0,gray,diamond
0.0,4.0,4.0,0.0,7.0,6.0,2077.3565129993585,4.0,1.0,part_3,go,0.0,0.0,0.0,196.0,4.0,147.0,245.0,98.0,294.0,49.0,196.0,yellow,triangle
0.0,3.0,3.0,0.0,7.0,2.0,2176.3584460004495,4.0,1.0,part_3,go,0.0,0.0,0.0,234.0,6.0,39.0,234.0,195.0,78.0,156.0,117.0,blue,hexagon
0.0,6.0,2.0,1.0,7.0,2.0,1670.6604230002997,4.0,1.0,part_3,go,0.0,0.0,0.0,195.0,5.0,234.0,195.0,39.0,156.0,117.0,78.0,gray,diamond
0.0,3.0,3.0,0.0,7.0,5.0,1108.868913999686,4.0,1.0,part_3,go,0.0,0.0,0.0,245.0,5.0,98.0,147.0,294.0,196.0,245.0,49.0,blue,hexagon
0.0,4.0,4.0,0.0,7.0,6.0,1206.8668330002763,4.0,1.0,part_3,go,0.0,0.0,0.0,220.0,5.0,88.0,132.0,44.0,264.0,176.0,220.0,yellow,triangle
