raw_reward_magnitude,stim_reward,stepwise_reward_magnitude,paired_with_stopping,quadrant,response,reaction_time,block,num_trial_presentations,which_part,stop_signal_trial_type,left_SSD,right_SSD,accuracy,chosen_bidding_amount,chosen_bidding_level,possible_bid_1,possible_bid_2,possible_bid_3,possible_bid_4,possible_bid_5,possible_bid_6,color_text,shape_text
381.0,4.0,4.0,0.0,1.0,1.0,293.9341709998189,1.0,1.0,part_1,,,,,,,,,,,,,magenta,circle
53.0,5.0,1.0,1.0,4.0,4.0,314.4712930002242,1.0,1.0,part_1,,,,,,,,,,,,,yellow,square
86.0,6.0,2.0,1.0,3.0,3.0,249.7135969997543,1.0,1.0,part_1,,,,,,,,,,,,,blue,cross
92.0,2.0,2.0,0.0,4.0,4.0,258.0725679999887,1.0,1.0,part_1,,,,,,,,,,,,,gray,hexagon
48.0,1.0,1.0,0.0,3.0,3.0,261.0257139999703,1.0,1.0,part_1,,,,,,,,,,,,,green,flipped triangle
105.0,6.0,2.0,1.0,2.0,2.0,258.0572859997119,1.0,1.0,part_1,,,,,,,,,,,,,blue,cross
415.0,4.0,4.0,0.0,4.0,4.0,269.8319000000992,1.0,1.0,part_1,,,,,,,,,,,,,magenta,circle
222.0,7.0,3.0,1.0,1.0,1.0,279.9360750000232,1.0,1.0,part_1,,,,,,,,,,,,,orange,diamond
225.0,7.0,3.0,1.0,3.0,3.0,274.4268870001178,1.0,1.0,part_1,,,,,,,,,,,,,orange,diamond
59.0,5.0,1.0,1.0,3.0,3.0,245.3327989996978,1.0,1.0,part_1,,,,,,,,,,,,,yellow,square
184.0,3.0,3.0,0.0,2.0,2.0,277.1449890001349,1.0,1.0,part_1,,,,,,,,,,,,,cyan,triangle
0.0,8.0,0.0,1.0,3.0,3.0,275.1467600000978,1.0,1.0,part_1,,,,,,,,,,,,,white,I
118.0,6.0,2.0,1.0,3.0,3.0,255.28522000013248,1.0,1.0,part_1,,,,,,,,,,,,,blue,cross
183.0,7.0,3.0,1.0,2.0,2.0,230.7921639999222,1.0,1.0,part_1,,,,,,,,,,,,,orange,diamond
0.0,2.0,0.0,0.0,4.0,4.0,278.7436730000081,1.0,1.0,part_1,,,,,,,,,,,,,gray,hexagon
0.0,5.0,0.0,1.0,4.0,4.0,275.9163789996819,1.0,1.0,part_1,,,,,,,,,,,,,yellow,square
28.0,5.0,1.0,1.0,1.0,1.0,302.3166420002781,1.0,1.0,part_1,,,,,,,,,,,,,yellow,square
0.0,5.0,0.0,1.0,4.0,4.0,270.5664549998801,1.0,1.0,part_1,,,,,,,,,,,,,yellow,square
28.0,1.0,1.0,0.0,1.0,1.0,279.2762660001244,1.0,2.0,part_1,,,,,,,,,,,,,green,flipped triangle
39.0,5.0,1.0,1.0,3.0,3.0,269.2735590003394,1.0,1.0,part_1,,,,,,,,,,,,,yellow,square
389.0,8.0,4.0,1.0,4.0,4.0,318.7468310002259,1.0,1.0,part_1,,,,,,,,,,,,,white,I
209.0,3.0,3.0,0.0,3.0,3.0,289.2500130001281,1.0,1.0,part_1,,,,,,,,,,,,,cyan,triangle
0.0,7.0,0.0,1.0,2.0,2.0,246.4805619997605,1.0,1.0,part_1,,,,,,,,,,,,,orange,diamond
388.0,8.0,4.0,1.0,1.0,1.0,288.3849150002788,1.0,1.0,part_1,,,,,,,,,,,,,white,I
181.0,7.0,3.0,1.0,4.0,4.0,263.5084069997901,1.0,1.0,part_1,,,,,,,,,,,,,orange,diamond
69.0,5.0,1.0,1.0,2.0,2.0,280.3982509999514,1.0,1.0,part_1,,,,,,,,,,,,,yellow,square
377.0,4.0,4.0,0.0,3.0,3.0,265.06044400002787,1.0,1.0,part_1,,,,,,,,,,,,,magenta,circle
0.0,4.0,0.0,0.0,1.0,1.0,265.3996009998991,1.0,1.0,part_1,,,,,,,,,,,,,magenta,circle
45.0,1.0,1.0,0.0,2.0,2.0,286.5675680000095,1.0,1.0,part_1,,,,,,,,,,,,,green,flipped triangle
69.0,1.0,1.0,0.0,3.0,3.0,247.9038510000464,1.0,1.0,part_1,,,,,,,,,,,,,green,flipped triangle
65.0,1.0,1.0,0.0,4.0,4.0,384.6231669999724,1.0,2.0,part_1,,,,,,,,,,,,,green,flipped triangle
31.0,5.0,1.0,1.0,3.0,3.0,274.5835900000202,1.0,1.0,part_1,,,,,,,,,,,,,yellow,square
31.0,1.0,1.0,0.0,4.0,4.0,260.322793999876,1.0,1.0,part_1,,,,,,,,,,,,,green,flipped triangle
183.0,7.0,3.0,1.0,2.0,2.0,361.8660239999371,1.0,1.0,part_1,,,,,,,,,,,,,orange,diamond
183.0,7.0,3.0,1.0,2.0,2.0,274.6146499998758,1.0,1.0,part_1,,,,,,,,,,,,,orange,diamond
125.0,6.0,2.0,1.0,3.0,3.0,257.2496750003665,1.0,1.0,part_1,,,,,,,,,,,,,blue,cross
206.0,7.0,3.0,1.0,3.0,3.0,265.4142110000066,1.0,1.0,part_1,,,,,,,,,,,,,orange,diamond
75.0,2.0,2.0,0.0,3.0,3.0,278.0627629999799,1.0,1.0,part_1,,,,,,,,,,,,,gray,hexagon
400.0,4.0,4.0,0.0,3.0,3.0,270.3987390000293,1.0,1.0,part_1,,,,,,,,,,,,,magenta,circle
0.0,3.0,0.0,0.0,3.0,3.0,266.5658920000169,1.0,1.0,part_1,,,,,,,,,,,,,cyan,triangle
74.0,1.0,1.0,0.0,3.0,3.0,246.6806469997209,1.0,1.0,part_1,,,,,,,,,,,,,green,flipped triangle
377.0,4.0,4.0,0.0,1.0,1.0,338.2771940000566,1.0,1.0,part_1,,,,,,,,,,,,,magenta,circle
0.0,4.0,0.0,0.0,3.0,3.0,247.2607589998006,1.0,1.0,part_1,,,,,,,,,,,,,magenta,circle
384.0,8.0,4.0,1.0,2.0,2.0,284.9364199996671,1.0,1.0,part_1,,,,,,,,,,,,,white,I
124.0,6.0,2.0,1.0,3.0,3.0,275.3067280000323,1.0,1.0,part_1,,,,,,,,,,,,,blue,cross
86.0,6.0,2.0,1.0,4.0,4.0,293.2848260002174,1.0,1.0,part_1,,,,,,,,,,,,,blue,cross
75.0,1.0,1.0,0.0,1.0,1.0,309.5762749999267,1.0,1.0,part_1,,,,,,,,,,,,,green,flipped triangle
86.0,2.0,2.0,0.0,4.0,4.0,328.7922920003439,1.0,1.0,part_1,,,,,,,,,,,,,gray,hexagon
103.0,2.0,2.0,0.0,4.0,4.0,313.0380680004236,1.0,1.0,part_1,,,,,,,,,,,,,gray,hexagon
34.0,1.0,1.0,0.0,4.0,4.0,323.0133360002583,1.0,1.0,part_1,,,,,,,,,,,,,green,flipped triangle
221.0,7.0,3.0,1.0,1.0,1.0,314.7714550000273,1.0,1.0,part_1,,,,,,,,,,,,,orange,diamond
62.0,1.0,1.0,0.0,3.0,3.0,291.5118790001543,1.0,1.0,part_1,,,,,,,,,,,,,green,flipped triangle
222.0,7.0,3.0,1.0,3.0,3.0,273.6217640003815,1.0,1.0,part_1,,,,,,,,,,,,,orange,diamond
179.0,7.0,3.0,1.0,4.0,4.0,281.0522720001245,1.0,1.0,part_1,,,,,,,,,,,,,orange,diamond
395.0,8.0,4.0,1.0,3.0,3.0,240.4009009997025,1.0,1.0,part_1,,,,,,,,,,,,,white,I
62.0,5.0,1.0,1.0,1.0,1.0,308.8307109997004,1.0,1.0,part_1,,,,,,,,,,,,,yellow,square
0.0,6.0,0.0,1.0,1.0,1.0,301.9188180001038,1.0,1.0,part_1,,,,,,,,,,,,,blue,cross
221.0,3.0,3.0,0.0,3.0,3.0,219.8251869999694,1.0,1.0,part_1,,,,,,,,,,,,,cyan,triangle
399.0,8.0,4.0,1.0,4.0,4.0,297.7225380000163,1.0,1.0,part_1,,,,,,,,,,,,,white,I
394.0,8.0,4.0,1.0,4.0,4.0,309.4129400001293,1.0,1.0,part_1,,,,,,,,,,,,,white,I
384.0,4.0,4.0,0.0,4.0,4.0,276.2756260003698,1.0,1.0,part_1,,,,,,,,,,,,,magenta,circle
403.0,8.0,4.0,1.0,4.0,4.0,284.8981660004028,1.0,1.0,part_1,,,,,,,,,,,,,white,I
0.0,1.0,0.0,0.0,3.0,3.0,272.5209730001552,1.0,1.0,part_1,,,,,,,,,,,,,green,flipped triangle
408.0,4.0,4.0,0.0,2.0,2.0,279.2960430001585,1.0,2.0,part_1,,,,,,,,,,,,,magenta,circle
417.0,4.0,4.0,0.0,2.0,2.0,276.0276529998009,1.0,1.0,part_1,,,,,,,,,,,,,magenta,circle
99.0,2.0,2.0,0.0,3.0,3.0,326.9046410000555,1.0,1.0,part_1,,,,,,,,,,,,,gray,hexagon
71.0,5.0,1.0,1.0,2.0,2.0,281.1435109997546,1.0,1.0,part_1,,,,,,,,,,,,,yellow,square
88.0,2.0,2.0,0.0,1.0,1.0,300.9416439999768,1.0,1.0,part_1,,,,,,,,,,,,,gray,hexagon
113.0,2.0,2.0,0.0,2.0,2.0,352.6667580003959,1.0,1.0,part_1,,,,,,,,,,,,,gray,hexagon
91.0,2.0,2.0,0.0,4.0,4.0,336.5161330002593,1.0,1.0,part_1,,,,,,,,,,,,,gray,hexagon
211.0,3.0,3.0,0.0,4.0,4.0,369.4812190001357,1.0,1.0,part_1,,,,,,,,,,,,,cyan,triangle
114.0,6.0,2.0,1.0,1.0,1.0,282.4303830002463,1.0,1.0,part_1,,,,,,,,,,,,,blue,cross
199.0,7.0,3.0,1.0,2.0,2.0,306.2345199996343,1.0,1.0,part_1,,,,,,,,,,,,,orange,diamond
59.0,1.0,1.0,0.0,4.0,4.0,279.5126589999199,1.0,1.0,part_1,,,,,,,,,,,,,green,flipped triangle
0.0,8.0,0.0,1.0,1.0,1.0,248.500607999631,1.0,1.0,part_1,,,,,,,,,,,,,white,I
184.0,7.0,3.0,1.0,1.0,1.0,252.68748300004518,1.0,1.0,part_1,,,,,,,,,,,,,orange,diamond
0.0,3.0,0.0,0.0,1.0,1.0,273.554021000109,1.0,1.0,part_1,,,,,,,,,,,,,cyan,triangle
103.0,6.0,2.0,1.0,2.0,2.0,255.33463100009612,1.0,1.0,part_1,,,,,,,,,,,,,blue,cross
410.0,4.0,4.0,0.0,1.0,1.0,275.2555359998041,1.0,1.0,part_1,,,,,,,,,,,,,magenta,circle
189.0,7.0,3.0,1.0,1.0,1.0,274.8478069997873,1.0,1.0,part_1,,,,,,,,,,,,,orange,diamond
80.0,6.0,2.0,1.0,3.0,3.0,248.2254379997357,1.0,1.0,part_1,,,,,,,,,,,,,blue,cross
423.0,4.0,4.0,0.0,1.0,1.0,262.2619449998637,1.0,1.0,part_1,,,,,,,,,,,,,magenta,circle
411.0,8.0,4.0,1.0,2.0,2.0,250.30959799960328,1.0,1.0,part_1,,,,,,,,,,,,,white,I
40.0,1.0,1.0,0.0,1.0,1.0,267.1129840000503,1.0,1.0,part_1,,,,,,,,,,,,,green,flipped triangle
28.0,5.0,1.0,1.0,4.0,4.0,286.9661340000675,1.0,1.0,part_1,,,,,,,,,,,,,yellow,square
46.0,5.0,1.0,1.0,3.0,3.0,250.5325960000846,1.0,2.0,part_1,,,,,,,,,,,,,yellow,square
198.0,3.0,3.0,0.0,3.0,3.0,260.1264029999584,1.0,1.0,part_1,,,,,,,,,,,,,cyan,triangle
124.0,2.0,2.0,0.0,2.0,2.0,287.2130599998854,1.0,2.0,part_1,,,,,,,,,,,,,gray,hexagon
410.0,8.0,4.0,1.0,1.0,1.0,241.9912179998391,1.0,1.0,part_1,,,,,,,,,,,,,white,I
402.0,8.0,4.0,1.0,4.0,4.0,298.6255269997855,1.0,1.0,part_1,,,,,,,,,,,,,white,I
195.0,7.0,3.0,1.0,2.0,2.0,264.236179999898,1.0,1.0,part_1,,,,,,,,,,,,,orange,diamond
388.0,4.0,4.0,0.0,3.0,3.0,240.6550260002404,1.0,1.0,part_1,,,,,,,,,,,,,magenta,circle
32.0,5.0,1.0,1.0,1.0,1.0,236.4966780000941,1.0,1.0,part_1,,,,,,,,,,,,,yellow,square
209.0,7.0,3.0,1.0,1.0,1.0,254.45758000023488,1.0,1.0,part_1,,,,,,,,,,,,,orange,diamond
36.0,1.0,1.0,0.0,2.0,2.0,226.1457730000984,1.0,1.0,part_1,,,,,,,,,,,,,green,flipped triangle
404.0,8.0,4.0,1.0,3.0,3.0,276.1922220001906,1.0,1.0,part_1,,,,,,,,,,,,,white,I
124.0,2.0,2.0,0.0,1.0,1.0,269.680204999986,1.0,1.0,part_1,,,,,,,,,,,,,gray,hexagon
27.0,1.0,1.0,0.0,1.0,1.0,241.3418510000156,1.0,1.0,part_1,,,,,,,,,,,,,green,flipped triangle
201.0,7.0,3.0,1.0,1.0,1.0,255.66241799970157,1.0,1.0,part_1,,,,,,,,,,,,,orange,diamond
0.0,5.0,0.0,1.0,3.0,3.0,239.8969339997165,1.0,1.0,part_1,,,,,,,,,,,,,yellow,square
81.0,6.0,2.0,1.0,4.0,4.0,351.4625830002842,2.0,1.0,part_1,,,,,,,,,,,,,blue,cross
0.0,7.0,0.0,1.0,4.0,4.0,305.2832390003459,2.0,1.0,part_1,,,,,,,,,,,,,orange,diamond
0.0,7.0,0.0,1.0,2.0,2.0,228.9651090000006,2.0,1.0,part_1,,,,,,,,,,,,,orange,diamond
219.0,7.0,3.0,1.0,1.0,1.0,267.3961870000312,2.0,1.0,part_1,,,,,,,,,,,,,orange,diamond
209.0,3.0,3.0,0.0,4.0,4.0,274.9692209999921,2.0,1.0,part_1,,,,,,,,,,,,,cyan,triangle
0.0,8.0,0.0,1.0,4.0,4.0,272.3401719999856,2.0,1.0,part_1,,,,,,,,,,,,,white,I
35.0,1.0,1.0,0.0,4.0,4.0,253.23065500015218,2.0,1.0,part_1,,,,,,,,,,,,,green,flipped triangle
414.0,4.0,4.0,0.0,2.0,2.0,239.3199729999651,2.0,1.0,part_1,,,,,,,,,,,,,magenta,circle
381.0,4.0,4.0,0.0,2.0,2.0,263.369381999837,2.0,1.0,part_1,,,,,,,,,,,,,magenta,circle
0.0,2.0,0.0,0.0,1.0,1.0,237.1568730000035,2.0,1.0,part_1,,,,,,,,,,,,,gray,hexagon
0.0,2.0,0.0,0.0,4.0,4.0,285.9385970000403,2.0,1.0,part_1,,,,,,,,,,,,,gray,hexagon
102.0,6.0,2.0,1.0,2.0,2.0,227.1945560000858,2.0,1.0,part_1,,,,,,,,,,,,,blue,cross
176.0,3.0,3.0,0.0,3.0,3.0,253.43014800000668,2.0,2.0,part_1,,,,,,,,,,,,,cyan,triangle
58.0,1.0,1.0,0.0,2.0,2.0,240.5760709998503,2.0,1.0,part_1,,,,,,,,,,,,,green,flipped triangle
0.0,2.0,0.0,0.0,1.0,1.0,248.3479050001733,2.0,1.0,part_1,,,,,,,,,,,,,gray,hexagon
82.0,6.0,2.0,1.0,1.0,1.0,264.1902669997762,2.0,1.0,part_1,,,,,,,,,,,,,blue,cross
179.0,3.0,3.0,0.0,4.0,4.0,305.6598100001793,2.0,1.0,part_1,,,,,,,,,,,,,cyan,triangle
411.0,4.0,4.0,0.0,3.0,3.0,237.2401100001298,2.0,1.0,part_1,,,,,,,,,,,,,magenta,circle
32.0,1.0,1.0,0.0,4.0,4.0,244.8138360000484,2.0,1.0,part_1,,,,,,,,,,,,,green,flipped triangle
0.0,4.0,0.0,0.0,2.0,2.0,293.1716359998972,2.0,1.0,part_1,,,,,,,,,,,,,magenta,circle
407.0,8.0,4.0,1.0,3.0,3.0,240.741545000219,2.0,1.0,part_1,,,,,,,,,,,,,white,I
225.0,3.0,3.0,0.0,3.0,3.0,291.0009429997444,2.0,2.0,part_1,,,,,,,,,,,,,cyan,triangle
402.0,4.0,4.0,0.0,2.0,2.0,225.7111779999832,2.0,1.0,part_1,,,,,,,,,,,,,magenta,circle
28.0,1.0,1.0,0.0,1.0,1.0,236.9770630002676,2.0,1.0,part_1,,,,,,,,,,,,,green,flipped triangle
27.0,5.0,1.0,1.0,4.0,4.0,270.5092109999896,2.0,1.0,part_1,,,,,,,,,,,,,yellow,square
421.0,4.0,4.0,0.0,2.0,2.0,217.2842659997513,2.0,1.0,part_1,,,,,,,,,,,,,magenta,circle
83.0,2.0,2.0,0.0,2.0,2.0,270.6508930000382,2.0,1.0,part_1,,,,,,,,,,,,,gray,hexagon
421.0,8.0,4.0,1.0,2.0,2.0,234.85989500022689,2.0,2.0,part_1,,,,,,,,,,,,,white,I
408.0,8.0,4.0,1.0,3.0,3.0,266.4236799996615,2.0,1.0,part_1,,,,,,,,,,,,,white,I
62.0,5.0,1.0,1.0,1.0,1.0,377.8340099997876,2.0,1.0,part_1,,,,,,,,,,,,,yellow,square
187.0,7.0,3.0,1.0,2.0,2.0,333.426873999997,2.0,1.0,part_1,,,,,,,,,,,,,orange,diamond
109.0,6.0,2.0,1.0,2.0,2.0,264.4024360001822,2.0,1.0,part_1,,,,,,,,,,,,,blue,cross
70.0,1.0,1.0,0.0,3.0,3.0,230.7140660000186,2.0,1.0,part_1,,,,,,,,,,,,,green,flipped triangle
223.0,7.0,3.0,1.0,4.0,4.0,269.8468940002385,2.0,1.0,part_1,,,,,,,,,,,,,orange,diamond
0.0,8.0,0.0,1.0,4.0,4.0,269.9976949998017,2.0,2.0,part_1,,,,,,,,,,,,,white,I
113.0,6.0,2.0,1.0,3.0,3.0,256.3233719997697,2.0,1.0,part_1,,,,,,,,,,,,,blue,cross
78.0,2.0,2.0,0.0,4.0,4.0,265.1232379998873,2.0,1.0,part_1,,,,,,,,,,,,,gray,hexagon
203.0,7.0,3.0,1.0,1.0,1.0,254.2056559996126,2.0,1.0,part_1,,,,,,,,,,,,,orange,diamond
86.0,6.0,2.0,1.0,4.0,4.0,250.99321900006538,2.0,1.0,part_1,,,,,,,,,,,,,blue,cross
54.0,1.0,1.0,0.0,3.0,3.0,251.81343099984588,2.0,1.0,part_1,,,,,,,,,,,,,green,flipped triangle
0.0,6.0,0.0,1.0,3.0,3.0,227.9937889998109,2.0,1.0,part_1,,,,,,,,,,,,,blue,cross
413.0,4.0,4.0,0.0,2.0,2.0,245.9601079999629,2.0,1.0,part_1,,,,,,,,,,,,,magenta,circle
395.0,8.0,4.0,1.0,2.0,2.0,232.3540289999073,2.0,1.0,part_1,,,,,,,,,,,,,white,I
206.0,7.0,3.0,1.0,3.0,3.0,220.6663950000802,2.0,1.0,part_1,,,,,,,,,,,,,orange,diamond
383.0,8.0,4.0,1.0,3.0,3.0,284.1832939998312,2.0,1.0,part_1,,,,,,,,,,,,,white,I
97.0,2.0,2.0,0.0,3.0,3.0,257.1111679999376,2.0,1.0,part_1,,,,,,,,,,,,,gray,hexagon
0.0,4.0,0.0,0.0,3.0,3.0,264.145770000141,2.0,1.0,part_1,,,,,,,,,,,,,magenta,circle
114.0,2.0,2.0,0.0,1.0,1.0,278.542020000259,2.0,1.0,part_1,,,,,,,,,,,,,gray,hexagon
190.0,7.0,3.0,1.0,3.0,3.0,276.2089240000023,2.0,1.0,part_1,,,,,,,,,,,,,orange,diamond
112.0,6.0,2.0,1.0,4.0,4.0,287.53413000004,2.0,1.0,part_1,,,,,,,,,,,,,blue,cross
53.0,1.0,1.0,0.0,1.0,1.0,271.1127819998182,2.0,3.0,part_1,,,,,,,,,,,,,green,flipped triangle
0.0,2.0,0.0,0.0,1.0,1.0,259.261572000014,2.0,1.0,part_1,,,,,,,,,,,,,gray,hexagon
62.0,1.0,1.0,0.0,2.0,2.0,295.5774439997185,2.0,1.0,part_1,,,,,,,,,,,,,green,flipped triangle
0.0,4.0,0.0,0.0,3.0,3.0,295.3935949999504,2.0,1.0,part_1,,,,,,,,,,,,,magenta,circle
385.0,4.0,4.0,0.0,4.0,4.0,287.6575049999701,2.0,1.0,part_1,,,,,,,,,,,,,magenta,circle
176.0,7.0,3.0,1.0,4.0,4.0,299.1056999999273,2.0,1.0,part_1,,,,,,,,,,,,,orange,diamond
0.0,7.0,0.0,1.0,1.0,1.0,208.8305080001191,2.0,1.0,part_1,,,,,,,,,,,,,orange,diamond
205.0,7.0,3.0,1.0,4.0,4.0,315.9672199999477,2.0,1.0,part_1,,,,,,,,,,,,,orange,diamond
86.0,2.0,2.0,0.0,2.0,2.0,246.3964909998139,2.0,1.0,part_1,,,,,,,,,,,,,gray,hexagon
98.0,6.0,2.0,1.0,1.0,1.0,239.44421499982118,2.0,1.0,part_1,,,,,,,,,,,,,blue,cross
219.0,3.0,3.0,0.0,2.0,2.0,245.8422849999806,2.0,2.0,part_1,,,,,,,,,,,,,cyan,triangle
0.0,1.0,0.0,0.0,1.0,1.0,229.719249000027,2.0,1.0,part_1,,,,,,,,,,,,,green,flipped triangle
394.0,4.0,4.0,0.0,3.0,3.0,252.6949929997499,2.0,2.0,part_1,,,,,,,,,,,,,magenta,circle
74.0,1.0,1.0,0.0,4.0,4.0,255.3965649999554,2.0,1.0,part_1,,,,,,,,,,,,,green,flipped triangle
209.0,3.0,3.0,0.0,4.0,4.0,289.2391400000633,2.0,2.0,part_1,,,,,,,,,,,,,cyan,triangle
383.0,4.0,4.0,0.0,1.0,1.0,276.1145110002871,2.0,1.0,part_1,,,,,,,,,,,,,magenta,circle
118.0,6.0,2.0,1.0,1.0,1.0,266.03048700008,2.0,1.0,part_1,,,,,,,,,,,,,blue,cross
218.0,3.0,3.0,0.0,1.0,1.0,242.3251440000058,2.0,1.0,part_1,,,,,,,,,,,,,cyan,triangle
0.0,1.0,0.0,0.0,3.0,3.0,264.8467209996852,2.0,1.0,part_1,,,,,,,,,,,,,green,flipped triangle
391.0,8.0,4.0,1.0,3.0,3.0,264.9725129999751,2.0,1.0,part_1,,,,,,,,,,,,,white,I
40.0,5.0,1.0,1.0,1.0,1.0,206.0995420001745,2.0,1.0,part_1,,,,,,,,,,,,,yellow,square
399.0,4.0,4.0,0.0,3.0,3.0,232.3547460000554,2.0,1.0,part_1,,,,,,,,,,,,,magenta,circle
45.0,5.0,1.0,1.0,3.0,3.0,238.0034859997977,2.0,1.0,part_1,,,,,,,,,,,,,yellow,square
0.0,7.0,0.0,1.0,1.0,1.0,247.2358069999245,2.0,1.0,part_1,,,,,,,,,,,,,orange,diamond
103.0,2.0,2.0,0.0,3.0,3.0,263.6498780002512,2.0,1.0,part_1,,,,,,,,,,,,,gray,hexagon
120.0,2.0,2.0,0.0,2.0,2.0,245.6922699998358,2.0,1.0,part_1,,,,,,,,,,,,,gray,hexagon
53.0,1.0,1.0,0.0,2.0,2.0,233.5122750000664,2.0,1.0,part_1,,,,,,,,,,,,,green,flipped triangle
204.0,3.0,3.0,0.0,3.0,3.0,276.8460460001734,2.0,1.0,part_1,,,,,,,,,,,,,cyan,triangle
45.0,5.0,1.0,1.0,1.0,1.0,210.4320490002464,2.0,1.0,part_1,,,,,,,,,,,,,yellow,square
65.0,5.0,1.0,1.0,1.0,1.0,259.0213069997844,2.0,1.0,part_1,,,,,,,,,,,,,yellow,square
398.0,4.0,4.0,0.0,4.0,4.0,288.5655959998985,2.0,1.0,part_1,,,,,,,,,,,,,magenta,circle
75.0,6.0,2.0,1.0,2.0,2.0,249.6987429999535,2.0,1.0,part_1,,,,,,,,,,,,,blue,cross
421.0,4.0,4.0,0.0,4.0,4.0,269.0189630002351,2.0,2.0,part_1,,,,,,,,,,,,,magenta,circle
58.0,5.0,1.0,1.0,2.0,2.0,217.7006599999913,2.0,1.0,part_1,,,,,,,,,,,,,yellow,square
29.0,5.0,1.0,1.0,3.0,3.0,244.3530089999512,2.0,1.0,part_1,,,,,,,,,,,,,yellow,square
84.0,2.0,2.0,0.0,3.0,3.0,273.3919390002484,2.0,1.0,part_1,,,,,,,,,,,,,gray,hexagon
103.0,6.0,2.0,1.0,1.0,1.0,293.5375499996553,2.0,2.0,part_1,,,,,,,,,,,,,blue,cross
218.0,7.0,3.0,1.0,4.0,4.0,269.8509120000381,2.0,1.0,part_1,,,,,,,,,,,,,orange,diamond
0.0,7.0,0.0,1.0,2.0,2.0,297.620432000258,2.0,1.0,part_1,,,,,,,,,,,,,orange,diamond
387.0,8.0,4.0,1.0,4.0,4.0,278.7083700000039,2.0,1.0,part_1,,,,,,,,,,,,,white,I
92.0,6.0,2.0,1.0,3.0,3.0,254.3734690002566,2.0,2.0,part_1,,,,,,,,,,,,,blue,cross
0.0,5.0,0.0,1.0,3.0,3.0,237.966151999899,2.0,1.0,part_1,,,,,,,,,,,,,yellow,square
0.0,8.0,0.0,1.0,3.0,3.0,234.9817379999876,2.0,1.0,part_1,,,,,,,,,,,,,white,I
209.0,3.0,3.0,0.0,2.0,2.0,280.4093439999633,2.0,1.0,part_1,,,,,,,,,,,,,cyan,triangle
211.0,7.0,3.0,1.0,3.0,3.0,275.8415469997999,2.0,1.0,part_1,,,,,,,,,,,,,orange,diamond
195.0,3.0,3.0,0.0,3.0,3.0,260.1632519999839,2.0,1.0,part_1,,,,,,,,,,,,,cyan,triangle
192.0,3.0,3.0,0.0,4.0,4.0,229.4775029999982,2.0,1.0,part_1,,,,,,,,,,,,,cyan,triangle
51.0,5.0,1.0,1.0,4.0,4.0,275.4668010002206,2.0,1.0,part_1,,,,,,,,,,,,,yellow,square
201.0,3.0,3.0,0.0,1.0,1.0,254.7234160001608,2.0,1.0,part_1,,,,,,,,,,,,,cyan,triangle
191.0,3.0,3.0,0.0,1.0,1.0,302.0145600003161,2.0,1.0,part_1,,,,,,,,,,,,,cyan,triangle
0.0,6.0,0.0,1.0,2.0,2.0,295.7039259999874,3.0,1.0,part_1,,,,,,,,,,,,,blue,cross
118.0,2.0,2.0,0.0,2.0,2.0,294.3984309999905,3.0,3.0,part_1,,,,,,,,,,,,,gray,hexagon
421.0,8.0,4.0,1.0,2.0,2.0,358.281953000187,3.0,1.0,part_1,,,,,,,,,,,,,white,I
407.0,4.0,4.0,0.0,3.0,3.0,308.4471910001412,3.0,1.0,part_1,,,,,,,,,,,,,magenta,circle
391.0,4.0,4.0,0.0,2.0,2.0,282.4960010002542,3.0,1.0,part_1,,,,,,,,,,,,,magenta,circle
71.0,1.0,1.0,0.0,4.0,4.0,267.4503169996569,3.0,1.0,part_1,,,,,,,,,,,,,green,flipped triangle
64.0,5.0,1.0,1.0,4.0,4.0,358.0822220001209,3.0,1.0,part_1,,,,,,,,,,,,,yellow,square
403.0,4.0,4.0,0.0,1.0,1.0,250.89111199986291,3.0,1.0,part_1,,,,,,,,,,,,,magenta,circle
82.0,2.0,2.0,0.0,3.0,3.0,260.1229870001589,3.0,1.0,part_1,,,,,,,,,,,,,gray,hexagon
398.0,4.0,4.0,0.0,4.0,4.0,304.657607000081,3.0,1.0,part_1,,,,,,,,,,,,,magenta,circle
105.0,6.0,2.0,1.0,2.0,2.0,232.0898580001085,3.0,1.0,part_1,,,,,,,,,,,,,blue,cross
58.0,1.0,1.0,0.0,1.0,1.0,211.3195619999714,3.0,1.0,part_1,,,,,,,,,,,,,green,flipped triangle
189.0,3.0,3.0,0.0,1.0,1.0,291.2611179999658,3.0,1.0,part_1,,,,,,,,,,,,,cyan,triangle
0.0,8.0,0.0,1.0,1.0,1.0,274.6592569997119,3.0,1.0,part_1,,,,,,,,,,,,,white,I
377.0,8.0,4.0,1.0,3.0,3.0,258.558064999761,3.0,1.0,part_1,,,,,,,,,,,,,white,I
116.0,2.0,2.0,0.0,1.0,1.0,258.3843930001421,3.0,1.0,part_1,,,,,,,,,,,,,gray,hexagon
34.0,5.0,1.0,1.0,3.0,3.0,223.3105780001096,3.0,1.0,part_1,,,,,,,,,,,,,yellow,square
0.0,5.0,0.0,1.0,2.0,2.0,240.8985789998041,3.0,1.0,part_1,,,,,,,,,,,,,yellow,square
105.0,2.0,2.0,0.0,4.0,4.0,243.8804359999267,3.0,1.0,part_1,,,,,,,,,,,,,gray,hexagon
0.0,6.0,0.0,1.0,4.0,4.0,247.9441179998502,3.0,1.0,part_1,,,,,,,,,,,,,blue,cross
0.0,3.0,0.0,0.0,2.0,2.0,201.2585590000526,3.0,1.0,part_1,,,,,,,,,,,,,cyan,triangle
0.0,6.0,0.0,1.0,3.0,3.0,246.3362430003144,3.0,1.0,part_1,,,,,,,,,,,,,blue,cross
398.0,8.0,4.0,1.0,4.0,4.0,317.9553970003326,3.0,1.0,part_1,,,,,,,,,,,,,white,I
0.0,1.0,0.0,0.0,2.0,2.0,232.6033270001062,3.0,1.0,part_1,,,,,,,,,,,,,green,flipped triangle
0.0,3.0,0.0,0.0,4.0,4.0,254.9793120001595,3.0,1.0,part_1,,,,,,,,,,,,,cyan,triangle
38.0,5.0,1.0,1.0,4.0,4.0,291.9539090003127,3.0,1.0,part_1,,,,,,,,,,,,,yellow,square
97.0,6.0,2.0,1.0,4.0,4.0,242.8431700000146,3.0,1.0,part_1,,,,,,,,,,,,,blue,cross
206.0,3.0,3.0,0.0,2.0,2.0,229.6599200003584,3.0,1.0,part_1,,,,,,,,,,,,,cyan,triangle
0.0,5.0,0.0,1.0,3.0,3.0,245.8545050003522,3.0,1.0,part_1,,,,,,,,,,,,,yellow,square
0.0,8.0,0.0,1.0,2.0,2.0,229.556028999923,3.0,1.0,part_1,,,,,,,,,,,,,white,I
103.0,2.0,2.0,0.0,1.0,1.0,246.4520140001695,3.0,1.0,part_1,,,,,,,,,,,,,gray,hexagon
116.0,6.0,2.0,1.0,1.0,1.0,320.4977369996413,3.0,1.0,part_1,,,,,,,,,,,,,blue,cross
75.0,5.0,1.0,1.0,4.0,4.0,264.9986780002109,3.0,1.0,part_1,,,,,,,,,,,,,yellow,square
223.0,3.0,3.0,0.0,1.0,1.0,257.3513940001248,3.0,1.0,part_1,,,,,,,,,,,,,cyan,triangle
191.0,7.0,3.0,1.0,4.0,4.0,260.0758119997408,3.0,1.0,part_1,,,,,,,,,,,,,orange,diamond
48.0,5.0,1.0,1.0,2.0,2.0,239.7275700000136,3.0,1.0,part_1,,,,,,,,,,,,,yellow,square
86.0,2.0,2.0,0.0,1.0,1.0,235.9034280002561,3.0,1.0,part_1,,,,,,,,,,,,,gray,hexagon
0.0,1.0,0.0,0.0,4.0,4.0,276.889774999745,3.0,1.0,part_1,,,,,,,,,,,,,green,flipped triangle
0.0,4.0,0.0,0.0,3.0,3.0,236.1938889998782,3.0,1.0,part_1,,,,,,,,,,,,,magenta,circle
71.0,5.0,1.0,1.0,2.0,2.0,220.9641069998724,3.0,1.0,part_1,,,,,,,,,,,,,yellow,square
35.0,5.0,1.0,1.0,3.0,3.0,234.1432769999301,3.0,1.0,part_1,,,,,,,,,,,,,yellow,square
0.0,1.0,0.0,0.0,2.0,2.0,249.0187299999888,3.0,1.0,part_1,,,,,,,,,,,,,green,flipped triangle
60.0,5.0,1.0,1.0,3.0,3.0,253.05381299995128,3.0,2.0,part_1,,,,,,,,,,,,,yellow,square
0.0,1.0,0.0,0.0,1.0,1.0,238.1969329999265,3.0,1.0,part_1,,,,,,,,,,,,,green,flipped triangle
107.0,2.0,2.0,0.0,3.0,3.0,235.2059469999403,3.0,1.0,part_1,,,,,,,,,,,,,gray,hexagon
71.0,1.0,1.0,0.0,4.0,4.0,259.9551870002869,3.0,1.0,part_1,,,,,,,,,,,,,green,flipped triangle
199.0,3.0,3.0,0.0,3.0,3.0,257.1417019998989,3.0,1.0,part_1,,,,,,,,,,,,,cyan,triangle
407.0,8.0,4.0,1.0,1.0,1.0,247.4343489998318,3.0,1.0,part_1,,,,,,,,,,,,,white,I
120.0,2.0,2.0,0.0,1.0,1.0,260.7598009999492,3.0,1.0,part_1,,,,,,,,,,,,,gray,hexagon
389.0,4.0,4.0,0.0,1.0,1.0,232.5219590002234,3.0,1.0,part_1,,,,,,,,,,,,,magenta,circle
124.0,6.0,2.0,1.0,1.0,1.0,287.4691450001592,3.0,1.0,part_1,,,,,,,,,,,,,blue,cross
80.0,2.0,2.0,0.0,2.0,2.0,235.9317340001325,3.0,1.0,part_1,,,,,,,,,,,,,gray,hexagon
423.0,8.0,4.0,1.0,4.0,4.0,304.2606320000232,3.0,1.0,part_1,,,,,,,,,,,,,white,I
222.0,3.0,3.0,0.0,2.0,2.0,266.1808319999181,3.0,1.0,part_1,,,,,,,,,,,,,cyan,triangle
0.0,6.0,0.0,1.0,3.0,3.0,253.37627799990508,3.0,1.0,part_1,,,,,,,,,,,,,blue,cross
188.0,3.0,3.0,0.0,1.0,1.0,264.9940979999883,3.0,1.0,part_1,,,,,,,,,,,,,cyan,triangle
125.0,2.0,2.0,0.0,4.0,4.0,347.62595500023957,3.0,1.0,part_1,,,,,,,,,,,,,gray,hexagon
192.0,7.0,3.0,1.0,3.0,3.0,241.9339249995573,3.0,1.0,part_1,,,,,,,,,,,,,orange,diamond
0.0,4.0,0.0,0.0,1.0,1.0,219.5066920003228,3.0,1.0,part_1,,,,,,,,,,,,,magenta,circle
223.0,3.0,3.0,0.0,2.0,2.0,254.9917989999812,3.0,1.0,part_1,,,,,,,,,,,,,cyan,triangle
98.0,2.0,2.0,0.0,4.0,4.0,261.7467050004052,3.0,1.0,part_1,,,,,,,,,,,,,gray,hexagon
398.0,8.0,4.0,1.0,2.0,2.0,213.2951100002174,3.0,1.0,part_1,,,,,,,,,,,,,white,I
404.0,4.0,4.0,0.0,3.0,3.0,272.4461709999559,3.0,1.0,part_1,,,,,,,,,,,,,magenta,circle
36.0,5.0,1.0,1.0,1.0,1.0,216.7883429997346,3.0,2.0,part_1,,,,,,,,,,,,,yellow,square
407.0,4.0,4.0,0.0,1.0,1.0,266.4419910001925,3.0,1.0,part_1,,,,,,,,,,,,,magenta,circle
45.0,1.0,1.0,0.0,3.0,3.0,245.2875960002529,3.0,1.0,part_1,,,,,,,,,,,,,green,flipped triangle
209.0,7.0,3.0,1.0,4.0,4.0,280.5417550002858,3.0,1.0,part_1,,,,,,,,,,,,,orange,diamond
27.0,1.0,1.0,0.0,2.0,2.0,231.2486589999025,3.0,1.0,part_1,,,,,,,,,,,,,green,flipped triangle
0.0,6.0,0.0,1.0,4.0,4.0,247.5924939999458,3.0,2.0,part_1,,,,,,,,,,,,,blue,cross
64.0,1.0,1.0,0.0,2.0,2.0,246.9632920001458,3.0,2.0,part_1,,,,,,,,,,,,,green,flipped triangle
205.0,3.0,3.0,0.0,4.0,4.0,352.9444340001646,3.0,2.0,part_1,,,,,,,,,,,,,cyan,triangle
39.0,1.0,1.0,0.0,3.0,3.0,310.8383099997809,3.0,1.0,part_1,,,,,,,,,,,,,green,flipped triangle
385.0,8.0,4.0,1.0,1.0,1.0,353.135401000145,3.0,1.0,part_1,,,,,,,,,,,,,white,I
394.0,8.0,4.0,1.0,3.0,3.0,226.8771330000163,3.0,1.0,part_1,,,,,,,,,,,,,white,I
204.0,7.0,3.0,1.0,4.0,4.0,220.7792250001148,3.0,1.0,part_1,,,,,,,,,,,,,orange,diamond
60.0,1.0,1.0,0.0,2.0,2.0,242.3816199998327,3.0,1.0,part_1,,,,,,,,,,,,,green,flipped triangle
120.0,6.0,2.0,1.0,1.0,1.0,239.8105790002773,3.0,1.0,part_1,,,,,,,,,,,,,blue,cross
0.0,7.0,0.0,1.0,3.0,3.0,208.9516749997528,3.0,1.0,part_1,,,,,,,,,,,,,orange,diamond
99.0,6.0,2.0,1.0,3.0,3.0,276.4242160001231,3.0,1.0,part_1,,,,,,,,,,,,,blue,cross
183.0,3.0,3.0,0.0,4.0,4.0,285.9874979999404,3.0,1.0,part_1,,,,,,,,,,,,,cyan,triangle
107.0,6.0,2.0,1.0,2.0,2.0,211.5247219999219,3.0,2.0,part_1,,,,,,,,,,,,,blue,cross
187.0,3.0,3.0,0.0,3.0,3.0,264.9115549997987,3.0,1.0,part_1,,,,,,,,,,,,,cyan,triangle
203.0,3.0,3.0,0.0,2.0,2.0,237.2858240000823,3.0,1.0,part_1,,,,,,,,,,,,,cyan,triangle
417.0,8.0,4.0,1.0,2.0,2.0,292.7251589999287,3.0,1.0,part_1,,,,,,,,,,,,,white,I
74.0,5.0,1.0,1.0,1.0,1.0,302.0576019998771,3.0,1.0,part_1,,,,,,,,,,,,,yellow,square
407.0,8.0,4.0,1.0,1.0,1.0,281.6779710001356,3.0,1.0,part_1,,,,,,,,,,,,,white,I
95.0,6.0,2.0,1.0,2.0,2.0,245.595706000131,3.0,1.0,part_1,,,,,,,,,,,,,blue,cross
223.0,7.0,3.0,1.0,3.0,3.0,256.1561249999613,3.0,1.0,part_1,,,,,,,,,,,,,orange,diamond
421.0,8.0,4.0,1.0,2.0,2.0,272.785995999584,3.0,1.0,part_1,,,,,,,,,,,,,white,I
88.0,2.0,2.0,0.0,2.0,2.0,256.1115589996916,3.0,1.0,part_1,,,,,,,,,,,,,gray,hexagon
70.0,5.0,1.0,1.0,4.0,4.0,320.0842070000362,3.0,1.0,part_1,,,,,,,,,,,,,yellow,square
0.0,8.0,0.0,1.0,4.0,4.0,302.1804170002724,3.0,1.0,part_1,,,,,,,,,,,,,white,I
27.0,5.0,1.0,1.0,1.0,1.0,299.1487859999324,3.0,1.0,part_1,,,,,,,,,,,,,yellow,square
0.0,2.0,0.0,0.0,2.0,2.0,281.0630399999354,3.0,1.0,part_1,,,,,,,,,,,,,gray,hexagon
86.0,6.0,2.0,1.0,3.0,3.0,263.3249720001913,3.0,1.0,part_1,,,,,,,,,,,,,blue,cross
120.0,6.0,2.0,1.0,4.0,4.0,279.3623919997117,3.0,2.0,part_1,,,,,,,,,,,,,blue,cross
202.0,7.0,3.0,1.0,1.0,1.0,294.3818489998193,3.0,1.0,part_1,,,,,,,,,,,,,orange,diamond
83.0,6.0,2.0,1.0,4.0,4.0,251.38068500018562,3.0,1.0,part_1,,,,,,,,,,,,,blue,cross
118.0,2.0,2.0,0.0,3.0,3.0,233.1459530000756,3.0,1.0,part_1,,,,,,,,,,,,,gray,hexagon
0.0,2.0,0.0,0.0,2.0,2.0,299.1914369999904,3.0,1.0,part_1,,,,,,,,,,,,,gray,hexagon
58.0,5.0,1.0,1.0,2.0,2.0,320.1053030002185,4.0,1.0,part_1,,,,,,,,,,,,,yellow,square
0.0,3.0,0.0,0.0,3.0,3.0,255.3094909999345,4.0,1.0,part_1,,,,,,,,,,,,,cyan,triangle
402.0,8.0,4.0,1.0,1.0,1.0,266.3684110002577,4.0,1.0,part_1,,,,,,,,,,,,,white,I
395.0,4.0,4.0,0.0,2.0,2.0,263.1858039999315,4.0,1.0,part_1,,,,,,,,,,,,,magenta,circle
206.0,3.0,3.0,0.0,3.0,3.0,253.96698999975342,4.0,1.0,part_1,,,,,,,,,,,,,cyan,triangle
0.0,8.0,0.0,1.0,2.0,2.0,266.2944839998999,4.0,1.0,part_1,,,,,,,,,,,,,white,I
202.0,3.0,3.0,0.0,4.0,4.0,291.5822360000675,4.0,1.0,part_1,,,,,,,,,,,,,cyan,triangle
395.0,4.0,4.0,0.0,4.0,4.0,284.1716269999779,4.0,1.0,part_1,,,,,,,,,,,,,magenta,circle
209.0,7.0,3.0,1.0,2.0,2.0,228.8237540001318,4.0,1.0,part_1,,,,,,,,,,,,,orange,diamond
0.0,4.0,0.0,0.0,3.0,3.0,305.2870510000502,4.0,1.0,part_1,,,,,,,,,,,,,magenta,circle
377.0,8.0,4.0,1.0,2.0,2.0,219.9688890000288,4.0,1.0,part_1,,,,,,,,,,,,,white,I
392.0,8.0,4.0,1.0,2.0,2.0,231.1211010000988,4.0,1.0,part_1,,,,,,,,,,,,,white,I
414.0,8.0,4.0,1.0,4.0,4.0,274.9836920002053,4.0,1.0,part_1,,,,,,,,,,,,,white,I
119.0,2.0,2.0,0.0,4.0,4.0,251.0123720003321,4.0,2.0,part_1,,,,,,,,,,,,,gray,hexagon
0.0,7.0,0.0,1.0,3.0,3.0,245.2580639996995,4.0,1.0,part_1,,,,,,,,,,,,,orange,diamond
409.0,8.0,4.0,1.0,1.0,1.0,385.7499440000538,4.0,1.0,part_1,,,,,,,,,,,,,white,I
0.0,5.0,0.0,1.0,2.0,2.0,239.5651599999837,4.0,1.0,part_1,,,,,,,,,,,,,yellow,square
0.0,2.0,0.0,0.0,4.0,4.0,258.9476019998074,4.0,1.0,part_1,,,,,,,,,,,,,gray,hexagon
0.0,5.0,0.0,1.0,2.0,2.0,234.6733590002259,4.0,1.0,part_1,,,,,,,,,,,,,yellow,square
0.0,1.0,0.0,0.0,3.0,3.0,282.2148760001255,4.0,1.0,part_1,,,,,,,,,,,,,green,flipped triangle
74.0,5.0,1.0,1.0,4.0,4.0,261.8669879998379,4.0,1.0,part_1,,,,,,,,,,,,,yellow,square
222.0,3.0,3.0,0.0,2.0,2.0,235.0835360002747,4.0,1.0,part_1,,,,,,,,,,,,,cyan,triangle
177.0,7.0,3.0,1.0,2.0,2.0,224.1483590000825,4.0,1.0,part_1,,,,,,,,,,,,,orange,diamond
102.0,2.0,2.0,0.0,3.0,3.0,245.5313609998484,4.0,2.0,part_1,,,,,,,,,,,,,gray,hexagon
381.0,8.0,4.0,1.0,4.0,4.0,304.7581649998392,4.0,1.0,part_1,,,,,,,,,,,,,white,I
109.0,2.0,2.0,0.0,4.0,4.0,283.6389879998933,4.0,1.0,part_1,,,,,,,,,,,,,gray,hexagon
400.0,8.0,4.0,1.0,1.0,1.0,274.6991160001926,4.0,1.0,part_1,,,,,,,,,,,,,white,I
0.0,6.0,0.0,1.0,2.0,2.0,263.9715620002789,4.0,2.0,part_1,,,,,,,,,,,,,blue,cross
84.0,6.0,2.0,1.0,1.0,1.0,259.9058539999532,4.0,1.0,part_1,,,,,,,,,,,,,blue,cross
416.0,8.0,4.0,1.0,1.0,1.0,295.9479850001116,4.0,1.0,part_1,,,,,,,,,,,,,white,I
0.0,8.0,0.0,1.0,3.0,3.0,309.6111790000577,4.0,1.0,part_1,,,,,,,,,,,,,white,I
407.0,4.0,4.0,0.0,4.0,4.0,269.3236350000916,4.0,1.0,part_1,,,,,,,,,,,,,magenta,circle
0.0,2.0,0.0,0.0,3.0,3.0,309.0467859997261,4.0,1.0,part_1,,,,,,,,,,,,,gray,hexagon
402.0,4.0,4.0,0.0,3.0,3.0,406.4807139998265,4.0,1.0,part_1,,,,,,,,,,,,,magenta,circle
26.0,5.0,1.0,1.0,4.0,4.0,221.9874909997088,4.0,2.0,part_1,,,,,,,,,,,,,yellow,square
0.0,4.0,0.0,0.0,4.0,4.0,297.6121960000455,4.0,1.0,part_1,,,,,,,,,,,,,magenta,circle
119.0,6.0,2.0,1.0,2.0,2.0,375.6118340002103,4.0,1.0,part_1,,,,,,,,,,,,,blue,cross
213.0,3.0,3.0,0.0,1.0,1.0,266.3977140000497,4.0,1.0,part_1,,,,,,,,,,,,,cyan,triangle
392.0,4.0,4.0,0.0,1.0,1.0,331.9658580003306,4.0,1.0,part_1,,,,,,,,,,,,,magenta,circle
0.0,7.0,0.0,1.0,1.0,1.0,300.2529269997467,4.0,1.0,part_1,,,,,,,,,,,,,orange,diamond
181.0,3.0,3.0,0.0,1.0,1.0,298.8721239998995,4.0,1.0,part_1,,,,,,,,,,,,,cyan,triangle
0.0,6.0,0.0,1.0,3.0,3.0,271.2916770001357,4.0,2.0,part_1,,,,,,,,,,,,,blue,cross
0.0,5.0,0.0,1.0,2.0,2.0,264.990097000009,4.0,1.0,part_1,,,,,,,,,,,,,yellow,square
51.0,1.0,1.0,0.0,3.0,3.0,244.9639720002778,4.0,1.0,part_1,,,,,,,,,,,,,green,flipped triangle
98.0,6.0,2.0,1.0,2.0,2.0,256.9330020000961,4.0,1.0,part_1,,,,,,,,,,,,,blue,cross
105.0,2.0,2.0,0.0,3.0,3.0,307.5135300000511,4.0,1.0,part_1,,,,,,,,,,,,,gray,hexagon
195.0,3.0,3.0,0.0,4.0,4.0,300.7686910000302,4.0,1.0,part_1,,,,,,,,,,,,,cyan,triangle
409.0,4.0,4.0,0.0,2.0,2.0,225.6248759999835,4.0,1.0,part_1,,,,,,,,,,,,,magenta,circle
0.0,3.0,0.0,0.0,1.0,1.0,250.94360299999607,4.0,1.0,part_1,,,,,,,,,,,,,cyan,triangle
0.0,1.0,0.0,0.0,2.0,2.0,306.4964770001097,4.0,1.0,part_1,,,,,,,,,,,,,green,flipped triangle
0.0,5.0,0.0,1.0,4.0,4.0,238.18349199973449,4.0,1.0,part_1,,,,,,,,,,,,,yellow,square
95.0,2.0,2.0,0.0,1.0,1.0,329.0084400000523,4.0,1.0,part_1,,,,,,,,,,,,,gray,hexagon
91.0,6.0,2.0,1.0,4.0,4.0,356.8916429999262,4.0,1.0,part_1,,,,,,,,,,,,,blue,cross
213.0,7.0,3.0,1.0,2.0,2.0,250.7778270000926,4.0,1.0,part_1,,,,,,,,,,,,,orange,diamond
387.0,4.0,4.0,0.0,4.0,4.0,289.3906340000285,4.0,1.0,part_1,,,,,,,,,,,,,magenta,circle
381.0,8.0,4.0,1.0,1.0,1.0,293.1693649998124,4.0,1.0,part_1,,,,,,,,,,,,,white,I
0.0,3.0,0.0,0.0,2.0,2.0,283.449482999913,4.0,1.0,part_1,,,,,,,,,,,,,cyan,triangle
183.0,3.0,3.0,0.0,2.0,2.0,272.1638879997954,4.0,1.0,part_1,,,,,,,,,,,,,cyan,triangle
36.0,5.0,1.0,1.0,2.0,2.0,253.7047379996693,4.0,1.0,part_1,,,,,,,,,,,,,yellow,square
413.0,8.0,4.0,1.0,3.0,3.0,284.7609190002913,4.0,1.0,part_1,,,,,,,,,,,,,white,I
66.0,5.0,1.0,1.0,2.0,2.0,248.3026290001362,4.0,1.0,part_1,,,,,,,,,,,,,yellow,square
183.0,3.0,3.0,0.0,1.0,1.0,269.0271599999505,4.0,1.0,part_1,,,,,,,,,,,,,cyan,triangle
0.0,3.0,0.0,0.0,2.0,2.0,262.278194999908,4.0,1.0,part_1,,,,,,,,,,,,,cyan,triangle
36.0,1.0,1.0,0.0,2.0,2.0,242.6653889997396,4.0,1.0,part_1,,,,,,,,,,,,,green,flipped triangle
0.0,3.0,0.0,0.0,4.0,4.0,282.740203999765,4.0,1.0,part_1,,,,,,,,,,,,,cyan,triangle
416.0,4.0,4.0,0.0,4.0,4.0,292.138437000176,4.0,2.0,part_1,,,,,,,,,,,,,magenta,circle
47.0,5.0,1.0,1.0,2.0,2.0,247.6145800001177,4.0,1.0,part_1,,,,,,,,,,,,,yellow,square
198.0,7.0,3.0,1.0,1.0,1.0,285.3235800002949,4.0,1.0,part_1,,,,,,,,,,,,,orange,diamond
66.0,1.0,1.0,0.0,3.0,3.0,254.77578200025158,4.0,1.0,part_1,,,,,,,,,,,,,green,flipped triangle
179.0,3.0,3.0,0.0,4.0,4.0,245.3483730000698,4.0,1.0,part_1,,,,,,,,,,,,,cyan,triangle
88.0,6.0,2.0,1.0,4.0,4.0,302.5978329997087,4.0,1.0,part_1,,,,,,,,,,,,,blue,cross
112.0,2.0,2.0,0.0,2.0,2.0,247.7762680000523,4.0,1.0,part_1,,,,,,,,,,,,,gray,hexagon
188.0,7.0,3.0,1.0,3.0,3.0,245.4511840001032,4.0,1.0,part_1,,,,,,,,,,,,,orange,diamond
53.0,5.0,1.0,1.0,2.0,2.0,261.408436000238,4.0,1.0,part_1,,,,,,,,,,,,,yellow,square
26.0,1.0,1.0,0.0,1.0,1.0,276.9570790001125,4.0,2.0,part_1,,,,,,,,,,,,,green,flipped triangle
98.0,2.0,2.0,0.0,1.0,1.0,288.1112239997492,4.0,2.0,part_1,,,,,,,,,,,,,gray,hexagon
0.0,2.0,0.0,0.0,1.0,1.0,283.7346490000527,4.0,1.0,part_1,,,,,,,,,,,,,gray,hexagon
195.0,7.0,3.0,1.0,2.0,2.0,261.7778520002503,4.0,1.0,part_1,,,,,,,,,,,,,orange,diamond
177.0,3.0,3.0,0.0,1.0,1.0,252.1696920002796,4.0,1.0,part_1,,,,,,,,,,,,,cyan,triangle
81.0,2.0,2.0,0.0,2.0,2.0,280.3439680001247,4.0,1.0,part_1,,,,,,,,,,,,,gray,hexagon
394.0,4.0,4.0,0.0,1.0,1.0,269.6122379998087,4.0,1.0,part_1,,,,,,,,,,,,,magenta,circle
0.0,7.0,0.0,1.0,3.0,3.0,258.8696450002317,4.0,1.0,part_1,,,,,,,,,,,,,orange,diamond
179.0,7.0,3.0,1.0,4.0,4.0,249.0442710000024,4.0,1.0,part_1,,,,,,,,,,,,,orange,diamond
46.0,1.0,1.0,0.0,1.0,1.0,284.4069679999847,4.0,1.0,part_1,,,,,,,,,,,,,green,flipped triangle
103.0,6.0,2.0,1.0,3.0,3.0,261.9533750003029,4.0,1.0,part_1,,,,,,,,,,,,,blue,cross
209.0,7.0,3.0,1.0,3.0,3.0,279.3817140000101,4.0,1.0,part_1,,,,,,,,,,,,,orange,diamond
54.0,5.0,1.0,1.0,3.0,3.0,258.8842719997046,4.0,1.0,part_1,,,,,,,,,,,,,yellow,square
421.0,4.0,4.0,0.0,3.0,3.0,280.8247920002031,4.0,1.0,part_1,,,,,,,,,,,,,magenta,circle
47.0,1.0,1.0,0.0,2.0,2.0,230.4402340000706,4.0,1.0,part_1,,,,,,,,,,,,,green,flipped triangle
29.0,1.0,1.0,0.0,4.0,4.0,262.3702179998872,4.0,1.0,part_1,,,,,,,,,,,,,green,flipped triangle
86.0,2.0,2.0,0.0,1.0,1.0,305.2526329997818,4.0,1.0,part_1,,,,,,,,,,,,,gray,hexagon
0.0,1.0,0.0,0.0,3.0,3.0,250.04846699994232,4.0,1.0,part_1,,,,,,,,,,,,,green,flipped triangle
190.0,3.0,3.0,0.0,2.0,2.0,271.8538429999171,4.0,1.0,part_1,,,,,,,,,,,,,cyan,triangle
78.0,6.0,2.0,1.0,4.0,4.0,249.6309680000195,4.0,1.0,part_1,,,,,,,,,,,,,blue,cross
88.0,6.0,2.0,1.0,1.0,1.0,265.0059180000426,4.0,1.0,part_1,,,,,,,,,,,,,blue,cross
0.0,6.0,0.0,1.0,3.0,3.0,281.2890409995816,4.0,1.0,part_1,,,,,,,,,,,,,blue,cross
0.0,3.0,0.0,0.0,1.0,1.0,232.5019660001999,4.0,1.0,part_1,,,,,,,,,,,,,cyan,triangle
415.0,8.0,4.0,1.0,3.0,3.0,239.2190850000588,4.0,1.0,part_1,,,,,,,,,,,,,white,I
0.0,4.0,0.0,0.0,1.0,1.0,246.5873269998155,4.0,1.0,part_1,,,,,,,,,,,,,magenta,circle
38.0,1.0,1.0,0.0,1.0,1.0,288.4773380001206,4.0,1.0,part_1,,,,,,,,,,,,,green,flipped triangle
0.0,2.0,2.0,0.0,6.0,6.0,385.9244199998102,1.0,0.0,part_2,go,250.0,250.0,1.0,,,,,,,,,gray,hexagon
0.0,7.0,3.0,1.0,5.0,5.0,257.8294070003721,1.0,0.0,part_2,go,250.0,250.0,1.0,,,,,,,,,orange,diamond
0.0,3.0,3.0,0.0,6.0,6.0,231.8419940002059,1.0,0.0,part_2,go,250.0,250.0,1.0,,,,,,,,,cyan,triangle
0.0,5.0,1.0,1.0,6.0,0.0,0.0,1.0,0.0,part_2,stop,250.0,250.0,4.0,,,,,,,,,yellow,square
0.0,5.0,1.0,1.0,6.0,6.0,257.8879160000724,1.0,0.0,part_2,go,250.0,300.0,1.0,,,,,,,,,yellow,square
0.0,1.0,1.0,0.0,5.0,5.0,239.0172929999607,1.0,0.0,part_2,go,250.0,300.0,1.0,,,,,,,,,green,flipped triangle
0.0,7.0,3.0,1.0,6.0,6.0,261.024634000023,1.0,0.0,part_2,stop,250.0,300.0,3.0,,,,,,,,,orange,diamond
0.0,1.0,1.0,0.0,5.0,5.0,238.3203389999835,1.0,0.0,part_2,go,250.0,250.0,1.0,,,,,,,,,green,flipped triangle
0.0,1.0,1.0,0.0,5.0,5.0,271.1705380002058,1.0,0.0,part_2,go,250.0,250.0,1.0,,,,,,,,,green,flipped triangle
0.0,1.0,1.0,0.0,5.0,5.0,310.1099080004132,1.0,0.0,part_2,go,250.0,250.0,1.0,,,,,,,,,green,flipped triangle
0.0,7.0,3.0,1.0,5.0,5.0,345.2125540002271,1.0,0.0,part_2,go,250.0,250.0,1.0,,,,,,,,,orange,diamond
0.0,4.0,4.0,0.0,6.0,6.0,275.4982869996638,1.0,0.0,part_2,go,250.0,250.0,1.0,,,,,,,,,magenta,circle
0.0,2.0,2.0,0.0,5.0,5.0,313.4231160001945,1.0,0.0,part_2,go,250.0,250.0,1.0,,,,,,,,,gray,hexagon
0.0,3.0,3.0,0.0,5.0,5.0,289.339027999631,1.0,0.0,part_2,go,250.0,250.0,1.0,,,,,,,,,cyan,triangle
0.0,3.0,3.0,0.0,5.0,5.0,265.8802290002313,1.0,0.0,part_2,go,250.0,250.0,1.0,,,,,,,,,cyan,triangle
0.0,6.0,2.0,1.0,6.0,6.0,227.485285000057,1.0,0.0,part_2,stop,250.0,250.0,3.0,,,,,,,,,blue,cross
0.0,8.0,4.0,1.0,5.0,5.0,220.6435449998025,1.0,0.0,part_2,go,250.0,200.0,1.0,,,,,,,,,white,I
0.0,3.0,3.0,0.0,6.0,6.0,243.7928379999903,1.0,0.0,part_2,go,250.0,200.0,1.0,,,,,,,,,cyan,triangle
0.0,6.0,2.0,1.0,6.0,6.0,279.7734519999721,1.0,0.0,part_2,go,250.0,200.0,1.0,,,,,,,,,blue,cross
0.0,8.0,4.0,1.0,5.0,5.0,233.3046399999148,1.0,0.0,part_2,go,250.0,200.0,1.0,,,,,,,,,white,I
0.0,7.0,3.0,1.0,6.0,6.0,233.2258669998737,1.0,0.0,part_2,stop,250.0,200.0,3.0,,,,,,,,,orange,diamond
0.0,6.0,2.0,1.0,5.0,5.0,224.5169960001476,1.0,0.0,part_2,stop,250.0,150.0,3.0,,,,,,,,,blue,cross
0.0,8.0,4.0,1.0,6.0,6.0,243.2186910000382,1.0,0.0,part_2,stop,200.0,150.0,3.0,,,,,,,,,white,I
0.0,3.0,3.0,0.0,6.0,6.0,279.5849109998016,1.0,0.0,part_2,go,200.0,100.0,1.0,,,,,,,,,cyan,triangle
0.0,6.0,2.0,1.0,5.0,5.0,233.9723110003433,1.0,0.0,part_2,go,200.0,100.0,1.0,,,,,,,,,blue,cross
0.0,6.0,2.0,1.0,6.0,6.0,249.0612999999939,1.0,0.0,part_2,go,200.0,100.0,1.0,,,,,,,,,blue,cross
0.0,1.0,1.0,0.0,6.0,6.0,207.75496500027648,1.0,0.0,part_2,go,200.0,100.0,1.0,,,,,,,,,green,flipped triangle
0.0,2.0,2.0,0.0,5.0,5.0,231.1056630001076,1.0,0.0,part_2,go,200.0,100.0,1.0,,,,,,,,,gray,hexagon
0.0,2.0,2.0,0.0,5.0,5.0,294.0915770000174,1.0,0.0,part_2,go,200.0,100.0,1.0,,,,,,,,,gray,hexagon
0.0,4.0,4.0,0.0,5.0,5.0,257.9038519997993,1.0,0.0,part_2,go,200.0,100.0,1.0,,,,,,,,,magenta,circle
0.0,7.0,3.0,1.0,6.0,6.0,224.6241679999912,1.0,0.0,part_2,stop,200.0,100.0,3.0,,,,,,,,,orange,diamond
0.0,3.0,3.0,0.0,6.0,6.0,250.7089079999787,1.0,0.0,part_2,go,200.0,50.0,1.0,,,,,,,,,cyan,triangle
0.0,1.0,1.0,0.0,5.0,5.0,260.3253289998974,1.0,0.0,part_2,go,200.0,50.0,1.0,,,,,,,,,green,flipped triangle
0.0,4.0,4.0,0.0,6.0,6.0,276.8378840000878,1.0,0.0,part_2,go,200.0,50.0,1.0,,,,,,,,,magenta,circle
0.0,5.0,1.0,1.0,5.0,5.0,242.3626859999785,1.0,0.0,part_2,stop,200.0,50.0,3.0,,,,,,,,,yellow,square
0.0,5.0,1.0,1.0,6.0,6.0,255.0449989998924,1.0,0.0,part_2,stop,150.0,50.0,3.0,,,,,,,,,yellow,square
0.0,8.0,4.0,1.0,6.0,6.0,293.1948970003759,2.0,0.0,part_2,stop,150.0,0.0,3.0,,,,,,,,,white,I
0.0,2.0,2.0,0.0,6.0,6.0,435.2089359999809,2.0,0.0,part_2,go,150.0,0.0,1.0,,,,,,,,,gray,hexagon
0.0,6.0,2.0,1.0,5.0,0.0,0.0,2.0,0.0,part_2,stop,150.0,0.0,4.0,,,,,,,,,blue,cross
0.0,2.0,2.0,0.0,5.0,5.0,389.4967719998021,2.0,0.0,part_2,go,200.0,0.0,1.0,,,,,,,,,gray,hexagon
0.0,6.0,2.0,1.0,6.0,0.0,0.0,2.0,0.0,part_2,stop,200.0,0.0,4.0,,,,,,,,,blue,cross
0.0,1.0,1.0,0.0,5.0,5.0,461.65775999998,2.0,0.0,part_2,go,200.0,50.0,1.0,,,,,,,,,green,flipped triangle
0.0,8.0,4.0,1.0,5.0,5.0,357.454295000025,2.0,0.0,part_2,go,200.0,50.0,1.0,,,,,,,,,white,I
0.0,3.0,3.0,0.0,5.0,5.0,252.12972600002098,2.0,0.0,part_2,go,200.0,50.0,1.0,,,,,,,,,cyan,triangle
0.0,2.0,2.0,0.0,6.0,6.0,262.2952789997725,2.0,0.0,part_2,go,200.0,50.0,1.0,,,,,,,,,gray,hexagon
0.0,7.0,3.0,1.0,5.0,5.0,239.33286399960699,2.0,0.0,part_2,stop,200.0,50.0,3.0,,,,,,,,,orange,diamond
0.0,7.0,3.0,1.0,5.0,5.0,314.2369700003655,2.0,0.0,part_2,stop,150.0,50.0,3.0,,,,,,,,,orange,diamond
0.0,2.0,2.0,0.0,6.0,6.0,425.0683219997881,2.0,0.0,part_2,go,100.0,50.0,1.0,,,,,,,,,gray,hexagon
0.0,6.0,2.0,1.0,6.0,0.0,0.0,2.0,0.0,part_2,stop,100.0,50.0,4.0,,,,,,,,,blue,cross
0.0,8.0,4.0,1.0,5.0,0.0,0.0,2.0,0.0,part_2,stop,100.0,100.0,4.0,,,,,,,,,white,I
0.0,4.0,4.0,0.0,5.0,5.0,363.2899510002971,2.0,0.0,part_2,go,150.0,100.0,1.0,,,,,,,,,magenta,circle
0.0,5.0,1.0,1.0,6.0,0.0,0.0,2.0,0.0,part_2,stop,150.0,100.0,4.0,,,,,,,,,yellow,square
0.0,4.0,4.0,0.0,5.0,5.0,382.8826730004948,2.0,0.0,part_2,go,150.0,150.0,1.0,,,,,,,,,magenta,circle
0.0,3.0,3.0,0.0,6.0,6.0,332.1662039998045,2.0,0.0,part_2,go,150.0,150.0,1.0,,,,,,,,,cyan,triangle
0.0,4.0,4.0,0.0,5.0,5.0,257.4359979998917,2.0,0.0,part_2,go,150.0,150.0,1.0,,,,,,,,,magenta,circle
0.0,4.0,4.0,0.0,6.0,6.0,256.8922509999538,2.0,0.0,part_2,go,150.0,150.0,1.0,,,,,,,,,magenta,circle
0.0,2.0,2.0,0.0,5.0,5.0,273.6665030006406,2.0,0.0,part_2,go,150.0,150.0,1.0,,,,,,,,,gray,hexagon
0.0,5.0,1.0,1.0,6.0,6.0,220.5009389999759,2.0,0.0,part_2,stop,150.0,150.0,3.0,,,,,,,,,yellow,square
0.0,7.0,3.0,1.0,6.0,0.0,0.0,2.0,0.0,part_2,stop,150.0,100.0,4.0,,,,,,,,,orange,diamond
0.0,3.0,3.0,0.0,5.0,5.0,272.064390000196,2.0,0.0,part_2,go,150.0,150.0,1.0,,,,,,,,,cyan,triangle
0.0,6.0,2.0,1.0,6.0,6.0,243.7800119996609,2.0,0.0,part_2,stop,150.0,150.0,3.0,,,,,,,,,blue,cross
0.0,8.0,4.0,1.0,5.0,5.0,459.111020999444,2.0,0.0,part_2,go,150.0,100.0,1.0,,,,,,,,,white,I
0.0,6.0,2.0,1.0,6.0,0.0,0.0,2.0,0.0,part_2,stop,150.0,100.0,4.0,,,,,,,,,blue,cross
0.0,2.0,2.0,0.0,6.0,6.0,323.6301199995068,2.0,0.0,part_2,go,150.0,150.0,1.0,,,,,,,,,gray,hexagon
0.0,7.0,3.0,1.0,5.0,5.0,216.2943439998343,2.0,0.0,part_2,stop,150.0,150.0,3.0,,,,,,,,,orange,diamond
0.0,8.0,4.0,1.0,5.0,5.0,333.3268709993717,2.0,0.0,part_2,stop,100.0,150.0,3.0,,,,,,,,,white,I
0.0,4.0,4.0,0.0,6.0,6.0,299.3181909996565,2.0,0.0,part_2,go,50.0,150.0,1.0,,,,,,,,,magenta,circle
0.0,1.0,1.0,0.0,5.0,5.0,306.6061809995517,2.0,0.0,part_2,go,50.0,150.0,1.0,,,,,,,,,green,flipped triangle
0.0,5.0,1.0,1.0,5.0,0.0,0.0,2.0,0.0,part_2,stop,50.0,150.0,4.0,,,,,,,,,yellow,square
0.0,8.0,4.0,1.0,6.0,6.0,317.5168850002592,2.0,0.0,part_2,go,100.0,150.0,1.0,,,,,,,,,white,I
0.0,1.0,1.0,0.0,6.0,6.0,286.2287830002969,2.0,0.0,part_2,go,100.0,150.0,1.0,,,,,,,,,green,flipped triangle
0.0,1.0,1.0,0.0,6.0,6.0,280.7270610001069,2.0,0.0,part_2,go,100.0,150.0,1.0,,,,,,,,,green,flipped triangle
0.0,8.0,4.0,1.0,5.0,5.0,376.4670690006824,3.0,0.0,part_2,stop,100.0,150.0,3.0,,,,,,,,,white,I
0.0,7.0,3.0,1.0,5.0,0.0,0.0,3.0,0.0,part_2,stop,50.0,150.0,4.0,,,,,,,,,orange,diamond
0.0,1.0,1.0,0.0,6.0,6.0,335.8020069999838,3.0,0.0,part_2,go,100.0,150.0,1.0,,,,,,,,,green,flipped triangle
0.0,2.0,2.0,0.0,6.0,6.0,288.0732490002629,3.0,0.0,part_2,go,100.0,150.0,1.0,,,,,,,,,gray,hexagon
0.0,7.0,3.0,1.0,6.0,6.0,227.1332860000257,3.0,0.0,part_2,stop,100.0,150.0,3.0,,,,,,,,,orange,diamond
0.0,8.0,4.0,1.0,5.0,5.0,319.7857240002122,3.0,0.0,part_2,go,100.0,100.0,1.0,,,,,,,,,white,I
0.0,8.0,4.0,1.0,6.0,0.0,0.0,3.0,0.0,part_2,stop,100.0,100.0,4.0,,,,,,,,,white,I
0.0,7.0,3.0,1.0,6.0,0.0,0.0,3.0,0.0,part_2,stop,100.0,150.0,4.0,,,,,,,,,orange,diamond
0.0,2.0,2.0,0.0,5.0,5.0,446.090756000558,3.0,0.0,part_2,go,100.0,200.0,1.0,,,,,,,,,gray,hexagon
0.0,4.0,4.0,0.0,5.0,5.0,298.4608440001466,3.0,0.0,part_2,go,100.0,200.0,1.0,,,,,,,,,magenta,circle
0.0,5.0,1.0,1.0,5.0,0.0,0.0,3.0,0.0,part_2,stop,100.0,200.0,4.0,,,,,,,,,yellow,square
0.0,8.0,4.0,1.0,5.0,0.0,0.0,3.0,0.0,part_2,stop,150.0,200.0,4.0,,,,,,,,,white,I
0.0,2.0,2.0,0.0,6.0,6.0,409.7456749996127,3.0,0.0,part_2,go,200.0,200.0,1.0,,,,,,,,,gray,hexagon
0.0,1.0,1.0,0.0,6.0,6.0,389.4065639997279,3.0,0.0,part_2,go,200.0,200.0,1.0,,,,,,,,,green,flipped triangle
0.0,7.0,3.0,1.0,5.0,0.0,0.0,3.0,0.0,part_2,stop,200.0,200.0,4.0,,,,,,,,,orange,diamond
0.0,2.0,2.0,0.0,6.0,6.0,420.4492759999994,3.0,0.0,part_2,go,250.0,200.0,1.0,,,,,,,,,gray,hexagon
0.0,4.0,4.0,0.0,6.0,6.0,277.1660939997673,3.0,0.0,part_2,go,250.0,200.0,1.0,,,,,,,,,magenta,circle
0.0,3.0,3.0,0.0,6.0,6.0,296.0065460001715,3.0,0.0,part_2,go,250.0,200.0,1.0,,,,,,,,,cyan,triangle
0.0,2.0,2.0,0.0,5.0,5.0,296.613311999863,3.0,0.0,part_2,go,250.0,200.0,1.0,,,,,,,,,gray,hexagon
0.0,6.0,2.0,1.0,6.0,6.0,266.1643510000431,3.0,0.0,part_2,stop,250.0,200.0,3.0,,,,,,,,,blue,cross
0.0,3.0,3.0,0.0,6.0,6.0,374.6468670005924,3.0,0.0,part_2,go,250.0,150.0,1.0,,,,,,,,,cyan,triangle
0.0,2.0,2.0,0.0,6.0,6.0,341.5686770003958,3.0,0.0,part_2,go,250.0,150.0,1.0,,,,,,,,,gray,hexagon
0.0,7.0,3.0,1.0,6.0,6.0,296.4315120007086,3.0,0.0,part_2,stop,250.0,150.0,3.0,,,,,,,,,orange,diamond
0.0,6.0,2.0,1.0,5.0,0.0,0.0,3.0,0.0,part_2,stop,250.0,100.0,4.0,,,,,,,,,blue,cross
0.0,5.0,1.0,1.0,5.0,5.0,490.4267419997268,3.0,0.0,part_2,go,300.0,100.0,1.0,,,,,,,,,yellow,square
0.0,7.0,3.0,1.0,6.0,6.0,467.8153499999098,3.0,0.0,part_2,go,300.0,100.0,1.0,,,,,,,,,orange,diamond
0.0,4.0,4.0,0.0,6.0,6.0,362.0939980000912,3.0,0.0,part_2,go,300.0,100.0,1.0,,,,,,,,,magenta,circle
0.0,2.0,2.0,0.0,5.0,5.0,424.7181300006559,3.0,0.0,part_2,go,300.0,100.0,1.0,,,,,,,,,gray,hexagon
0.0,3.0,3.0,0.0,5.0,5.0,386.5299219996814,3.0,0.0,part_2,go,300.0,100.0,1.0,,,,,,,,,cyan,triangle
0.0,8.0,4.0,1.0,5.0,5.0,459.6013279997351,3.0,0.0,part_2,stop,300.0,100.0,3.0,,,,,,,,,white,I
0.0,5.0,1.0,1.0,5.0,5.0,548.5999120000997,3.0,0.0,part_2,go,250.0,100.0,1.0,,,,,,,,,yellow,square
0.0,3.0,3.0,0.0,5.0,5.0,570.0623040002029,3.0,0.0,part_2,go,250.0,100.0,1.0,,,,,,,,,cyan,triangle
0.0,4.0,4.0,0.0,5.0,5.0,582.0532150000872,3.0,0.0,part_2,go,250.0,100.0,1.0,,,,,,,,,magenta,circle
0.0,3.0,3.0,0.0,6.0,6.0,494.7020979998342,3.0,0.0,part_2,go,250.0,100.0,1.0,,,,,,,,,cyan,triangle
0.0,4.0,4.0,0.0,5.0,5.0,449.7749370002566,3.0,0.0,part_2,go,250.0,100.0,1.0,,,,,,,,,magenta,circle
0.0,1.0,1.0,0.0,5.0,5.0,462.7983249993121,3.0,0.0,part_2,go,250.0,100.0,1.0,,,,,,,,,green,flipped triangle
0.0,2.0,2.0,0.0,5.0,5.0,466.9043320000128,4.0,0.0,part_2,go,250.0,100.0,1.0,,,,,,,,,gray,hexagon
0.0,4.0,4.0,0.0,5.0,5.0,286.5468250001868,4.0,0.0,part_2,go,250.0,100.0,1.0,,,,,,,,,magenta,circle
0.0,6.0,2.0,1.0,5.0,5.0,293.9084320005349,4.0,0.0,part_2,stop,250.0,100.0,3.0,,,,,,,,,blue,cross
0.0,1.0,1.0,0.0,6.0,6.0,341.5742979996139,4.0,0.0,part_2,go,200.0,100.0,1.0,,,,,,,,,green,flipped triangle
0.0,7.0,3.0,1.0,5.0,5.0,301.1440039999797,4.0,0.0,part_2,stop,200.0,100.0,3.0,,,,,,,,,orange,diamond
0.0,7.0,3.0,1.0,6.0,0.0,0.0,4.0,0.0,part_2,stop,150.0,100.0,4.0,,,,,,,,,orange,diamond
0.0,7.0,3.0,1.0,5.0,5.0,518.1857690004108,4.0,0.0,part_2,go,150.0,150.0,1.0,,,,,,,,,orange,diamond
0.0,5.0,1.0,1.0,6.0,0.0,0.0,4.0,0.0,part_2,stop,150.0,150.0,4.0,,,,,,,,,yellow,square
0.0,7.0,3.0,1.0,5.0,0.0,0.0,4.0,0.0,part_2,stop,150.0,200.0,4.0,,,,,,,,,orange,diamond
0.0,6.0,2.0,1.0,6.0,0.0,0.0,4.0,0.0,part_2,stop,200.0,200.0,4.0,,,,,,,,,blue,cross
0.0,4.0,4.0,0.0,6.0,6.0,450.5190010004298,4.0,0.0,part_2,go,200.0,250.0,1.0,,,,,,,,,magenta,circle
0.0,2.0,2.0,0.0,6.0,6.0,458.6935359993731,4.0,0.0,part_2,go,200.0,250.0,1.0,,,,,,,,,gray,hexagon
0.0,4.0,4.0,0.0,5.0,5.0,472.4096840000129,4.0,0.0,part_2,go,200.0,250.0,1.0,,,,,,,,,magenta,circle
0.0,4.0,4.0,0.0,5.0,5.0,373.6426650002613,4.0,0.0,part_2,go,200.0,250.0,1.0,,,,,,,,,magenta,circle
0.0,4.0,4.0,0.0,6.0,6.0,431.3327210002171,4.0,0.0,part_2,go,200.0,250.0,1.0,,,,,,,,,magenta,circle
0.0,7.0,3.0,1.0,6.0,6.0,349.5703389999107,4.0,0.0,part_2,stop,200.0,250.0,3.0,,,,,,,,,orange,diamond
0.0,4.0,4.0,0.0,6.0,6.0,355.2162699998007,4.0,0.0,part_2,go,200.0,200.0,1.0,,,,,,,,,magenta,circle
0.0,3.0,3.0,0.0,6.0,6.0,494.3574110002373,4.0,0.0,part_2,go,200.0,200.0,1.0,,,,,,,,,cyan,triangle
0.0,8.0,4.0,1.0,6.0,0.0,0.0,4.0,0.0,part_2,stop,200.0,200.0,4.0,,,,,,,,,white,I
0.0,2.0,2.0,0.0,5.0,5.0,533.941309000511,4.0,0.0,part_2,go,200.0,250.0,1.0,,,,,,,,,gray,hexagon
0.0,2.0,2.0,0.0,5.0,5.0,392.5239069994859,4.0,0.0,part_2,go,200.0,250.0,1.0,,,,,,,,,gray,hexagon
0.0,2.0,2.0,0.0,6.0,6.0,455.6922450001366,4.0,0.0,part_2,go,200.0,250.0,1.0,,,,,,,,,gray,hexagon
0.0,3.0,3.0,0.0,5.0,5.0,508.2241669997529,4.0,0.0,part_2,go,200.0,250.0,1.0,,,,,,,,,cyan,triangle
0.0,1.0,1.0,0.0,5.0,5.0,480.2440100002059,4.0,0.0,part_2,go,200.0,250.0,1.0,,,,,,,,,green,flipped triangle
0.0,3.0,3.0,0.0,5.0,5.0,375.9009779996631,4.0,0.0,part_2,go,200.0,250.0,1.0,,,,,,,,,cyan,triangle
0.0,5.0,1.0,1.0,5.0,0.0,0.0,4.0,0.0,part_2,stop,200.0,250.0,4.0,,,,,,,,,yellow,square
0.0,3.0,3.0,0.0,6.0,6.0,481.0627710003246,4.0,0.0,part_2,go,250.0,250.0,1.0,,,,,,,,,cyan,triangle
0.0,5.0,1.0,1.0,5.0,5.0,577.1107969994773,4.0,0.0,part_2,go,250.0,250.0,1.0,,,,,,,,,yellow,square
0.0,5.0,1.0,1.0,5.0,0.0,0.0,4.0,0.0,part_2,stop,250.0,250.0,4.0,,,,,,,,,yellow,square
0.0,6.0,2.0,1.0,5.0,0.0,0.0,4.0,0.0,part_2,stop,300.0,250.0,4.0,,,,,,,,,blue,cross
0.0,7.0,3.0,1.0,5.0,5.0,735.7142680002653,4.0,0.0,part_2,go,350.0,250.0,1.0,,,,,,,,,orange,diamond
0.0,5.0,1.0,1.0,5.0,0.0,0.0,4.0,0.0,part_2,stop,350.0,250.0,4.0,,,,,,,,,yellow,square
0.0,6.0,2.0,1.0,5.0,5.0,741.1651130005339,4.0,0.0,part_2,go,400.0,250.0,1.0,,,,,,,,,blue,cross
0.0,3.0,3.0,0.0,5.0,5.0,551.170421000279,4.0,0.0,part_2,go,400.0,250.0,1.0,,,,,,,,,cyan,triangle
0.0,2.0,2.0,0.0,5.0,5.0,539.0225249993819,4.0,0.0,part_2,go,400.0,250.0,1.0,,,,,,,,,gray,hexagon
0.0,5.0,1.0,1.0,6.0,0.0,0.0,4.0,0.0,part_2,stop,400.0,250.0,4.0,,,,,,,,,yellow,square
0.0,8.0,4.0,1.0,5.0,5.0,298.4021040001607,5.0,0.0,part_2,go,400.0,300.0,1.0,,,,,,,,,white,I
0.0,3.0,3.0,0.0,5.0,5.0,298.3257830001093,5.0,0.0,part_2,go,400.0,300.0,1.0,,,,,,,,,cyan,triangle
0.0,4.0,4.0,0.0,5.0,5.0,276.7538569996759,5.0,0.0,part_2,go,400.0,300.0,1.0,,,,,,,,,magenta,circle
0.0,6.0,2.0,1.0,5.0,5.0,369.5108740002979,5.0,0.0,part_2,go,400.0,300.0,1.0,,,,,,,,,blue,cross
0.0,8.0,4.0,1.0,6.0,6.0,430.1574319997598,5.0,0.0,part_2,stop,400.0,300.0,3.0,,,,,,,,,white,I
0.0,7.0,3.0,1.0,6.0,6.0,392.6629010002216,5.0,0.0,part_2,go,400.0,250.0,1.0,,,,,,,,,orange,diamond
0.0,8.0,4.0,1.0,6.0,0.0,0.0,5.0,0.0,part_2,stop,400.0,250.0,4.0,,,,,,,,,white,I
0.0,1.0,1.0,0.0,5.0,5.0,325.2101799998854,5.0,0.0,part_2,go,400.0,300.0,1.0,,,,,,,,,green,flipped triangle
0.0,3.0,3.0,0.0,6.0,6.0,276.7581670004801,5.0,0.0,part_2,go,400.0,300.0,1.0,,,,,,,,,cyan,triangle
0.0,4.0,4.0,0.0,6.0,6.0,334.4014049998804,5.0,0.0,part_2,go,400.0,300.0,1.0,,,,,,,,,magenta,circle
0.0,8.0,4.0,1.0,6.0,6.0,417.5685110003542,5.0,0.0,part_2,stop,400.0,300.0,3.0,,,,,,,,,white,I
0.0,4.0,4.0,0.0,5.0,5.0,374.6321590006118,5.0,0.0,part_2,go,400.0,250.0,1.0,,,,,,,,,magenta,circle
0.0,1.0,1.0,0.0,6.0,6.0,315.0286479994975,5.0,0.0,part_2,go,400.0,250.0,1.0,,,,,,,,,green,flipped triangle
0.0,4.0,4.0,0.0,6.0,6.0,432.4366590008139,5.0,0.0,part_2,go,400.0,250.0,1.0,,,,,,,,,magenta,circle
0.0,1.0,1.0,0.0,6.0,6.0,474.0922480004883,5.0,0.0,part_2,go,400.0,250.0,1.0,,,,,,,,,green,flipped triangle
0.0,2.0,2.0,0.0,5.0,5.0,326.5531659999396,5.0,0.0,part_2,go,400.0,250.0,1.0,,,,,,,,,gray,hexagon
0.0,6.0,2.0,1.0,6.0,6.0,407.7941870000359,5.0,0.0,part_2,go,400.0,250.0,1.0,,,,,,,,,blue,cross
0.0,6.0,2.0,1.0,6.0,0.0,0.0,5.0,0.0,part_2,stop,400.0,250.0,4.0,,,,,,,,,blue,cross
0.0,2.0,2.0,0.0,5.0,5.0,426.8441249996613,5.0,0.0,part_2,go,400.0,300.0,1.0,,,,,,,,,gray,hexagon
0.0,4.0,4.0,0.0,6.0,6.0,370.6423980002,5.0,0.0,part_2,go,400.0,300.0,1.0,,,,,,,,,magenta,circle
0.0,8.0,4.0,1.0,5.0,5.0,382.9578849999961,5.0,0.0,part_2,stop,400.0,300.0,3.0,,,,,,,,,white,I
0.0,1.0,1.0,0.0,6.0,6.0,509.83597100002953,5.0,0.0,part_2,go,350.0,300.0,1.0,,,,,,,,,green,flipped triangle
0.0,5.0,1.0,1.0,6.0,6.0,590.6859040005656,5.0,0.0,part_2,go,350.0,300.0,1.0,,,,,,,,,yellow,square
0.0,7.0,3.0,1.0,6.0,0.0,0.0,5.0,0.0,part_2,stop,350.0,300.0,4.0,,,,,,,,,orange,diamond
0.0,7.0,3.0,1.0,6.0,6.0,451.9459899993308,5.0,0.0,part_2,go,350.0,350.0,1.0,,,,,,,,,orange,diamond
0.0,3.0,3.0,0.0,5.0,5.0,510.5159980003009,5.0,0.0,part_2,go,350.0,350.0,1.0,,,,,,,,,cyan,triangle
0.0,8.0,4.0,1.0,6.0,6.0,279.2186299993773,5.0,0.0,part_2,stop,350.0,350.0,3.0,,,,,,,,,white,I
0.0,5.0,1.0,1.0,6.0,6.0,341.3064599999416,5.0,0.0,part_2,stop,350.0,300.0,3.0,,,,,,,,,yellow,square
0.0,7.0,3.0,1.0,5.0,5.0,521.4735290001045,5.0,0.0,part_2,go,350.0,250.0,1.0,,,,,,,,,orange,diamond
0.0,3.0,3.0,0.0,6.0,6.0,466.1180670000249,5.0,0.0,part_2,go,350.0,250.0,1.0,,,,,,,,,cyan,triangle
0.0,6.0,2.0,1.0,6.0,0.0,0.0,5.0,0.0,part_2,stop,350.0,250.0,4.0,,,,,,,,,blue,cross
0.0,6.0,2.0,1.0,6.0,6.0,517.5548820006952,5.0,0.0,part_2,go,350.0,300.0,1.0,,,,,,,,,blue,cross
0.0,3.0,3.0,0.0,6.0,6.0,392.2927869998602,5.0,0.0,part_2,go,350.0,300.0,1.0,,,,,,,,,cyan,triangle
0.0,2.0,2.0,0.0,6.0,6.0,262.5765810007578,5.0,0.0,part_2,go,350.0,300.0,1.0,,,,,,,,,gray,hexagon
0.0,5.0,1.0,1.0,5.0,5.0,510.30202099991584,5.0,0.0,part_2,stop,350.0,300.0,3.0,,,,,,,,,yellow,square
0.0,6.0,2.0,1.0,5.0,0.0,0.0,5.0,0.0,part_2,stop,300.0,300.0,4.0,,,,,,,,,blue,cross
0.0,6.0,2.0,1.0,5.0,5.0,420.5183120002402,6.0,0.0,part_2,stop,350.0,300.0,3.0,,,,,,,,,blue,cross
0.0,1.0,1.0,0.0,6.0,6.0,440.5737300003238,6.0,0.0,part_2,go,300.0,300.0,1.0,,,,,,,,,green,flipped triangle
0.0,1.0,1.0,0.0,6.0,6.0,449.2985500000941,6.0,0.0,part_2,go,300.0,300.0,1.0,,,,,,,,,green,flipped triangle
0.0,5.0,1.0,1.0,6.0,0.0,0.0,6.0,0.0,part_2,stop,300.0,300.0,4.0,,,,,,,,,yellow,square
0.0,4.0,4.0,0.0,6.0,6.0,511.4854789999299,6.0,0.0,part_2,go,300.0,350.0,1.0,,,,,,,,,magenta,circle
0.0,3.0,3.0,0.0,5.0,5.0,440.4576350007119,6.0,0.0,part_2,go,300.0,350.0,1.0,,,,,,,,,cyan,triangle
0.0,1.0,1.0,0.0,5.0,5.0,418.8808029994106,6.0,0.0,part_2,go,300.0,350.0,1.0,,,,,,,,,green,flipped triangle
0.0,4.0,4.0,0.0,6.0,6.0,484.0909329996066,6.0,0.0,part_2,go,300.0,350.0,1.0,,,,,,,,,magenta,circle
0.0,5.0,1.0,1.0,5.0,0.0,0.0,6.0,0.0,part_2,stop,300.0,350.0,4.0,,,,,,,,,yellow,square
0.0,8.0,4.0,1.0,6.0,6.0,553.3725180002875,6.0,0.0,part_2,go,350.0,350.0,1.0,,,,,,,,,white,I
0.0,7.0,3.0,1.0,5.0,5.0,434.7180670001762,6.0,0.0,part_2,stop,350.0,350.0,3.0,,,,,,,,,orange,diamond
0.0,7.0,3.0,1.0,6.0,0.0,0.0,6.0,0.0,part_2,stop,300.0,350.0,4.0,,,,,,,,,orange,diamond
0.0,5.0,1.0,1.0,6.0,6.0,714.1701810005543,6.0,0.0,part_2,go,300.0,400.0,1.0,,,,,,,,,yellow,square
0.0,1.0,1.0,0.0,5.0,5.0,790.3724220004733,6.0,0.0,part_2,go,300.0,400.0,1.0,,,,,,,,,green,flipped triangle
0.0,5.0,1.0,1.0,5.0,5.0,859.7540150003624,6.0,0.0,part_2,stop,300.0,400.0,3.0,,,,,,,,,yellow,square
0.0,2.0,2.0,0.0,6.0,6.0,588.1068989992855,6.0,0.0,part_2,go,250.0,400.0,1.0,,,,,,,,,gray,hexagon
0.0,5.0,1.0,1.0,6.0,0.0,0.0,6.0,0.0,part_2,stop,250.0,400.0,4.0,,,,,,,,,yellow,square
0.0,1.0,1.0,0.0,6.0,6.0,504.8552270000073,6.0,0.0,part_2,go,250.0,450.0,1.0,,,,,,,,,green,flipped triangle
0.0,8.0,4.0,1.0,6.0,0.0,0.0,6.0,0.0,part_2,stop,250.0,450.0,4.0,,,,,,,,,white,I
0.0,3.0,3.0,0.0,6.0,6.0,545.0886589997026,6.0,0.0,part_2,go,250.0,500.0,1.0,,,,,,,,,cyan,triangle
0.0,1.0,1.0,0.0,5.0,5.0,516.3716150000255,6.0,0.0,part_2,go,250.0,500.0,1.0,,,,,,,,,green,flipped triangle
0.0,1.0,1.0,0.0,5.0,5.0,575.0239489998421,6.0,0.0,part_2,go,250.0,500.0,1.0,,,,,,,,,green,flipped triangle
0.0,7.0,3.0,1.0,6.0,0.0,0.0,6.0,0.0,part_2,stop,250.0,500.0,4.0,,,,,,,,,orange,diamond
0.0,5.0,1.0,1.0,5.0,5.0,861.5339339994534,6.0,0.0,part_2,go,250.0,550.0,1.0,,,,,,,,,yellow,square
0.0,1.0,1.0,0.0,6.0,6.0,636.0480189996451,6.0,0.0,part_2,go,250.0,550.0,1.0,,,,,,,,,green,flipped triangle
0.0,6.0,2.0,1.0,5.0,0.0,0.0,6.0,0.0,part_2,stop,250.0,550.0,4.0,,,,,,,,,blue,cross
0.0,5.0,1.0,1.0,6.0,6.0,774.5591740003874,6.0,0.0,part_2,go,300.0,550.0,1.0,,,,,,,,,yellow,square
0.0,3.0,3.0,0.0,6.0,6.0,589.3410660000882,6.0,0.0,part_2,go,300.0,550.0,1.0,,,,,,,,,cyan,triangle
0.0,4.0,4.0,0.0,5.0,5.0,666.689851999763,6.0,0.0,part_2,go,300.0,550.0,1.0,,,,,,,,,magenta,circle
0.0,4.0,4.0,0.0,5.0,5.0,712.27024899963,6.0,0.0,part_2,go,300.0,550.0,1.0,,,,,,,,,magenta,circle
0.0,8.0,4.0,1.0,6.0,0.0,0.0,6.0,0.0,part_2,stop,300.0,550.0,4.0,,,,,,,,,white,I
0.0,2.0,2.0,0.0,6.0,6.0,581.9569400000546,6.0,0.0,part_2,go,300.0,600.0,1.0,,,,,,,,,gray,hexagon
0.0,5.0,1.0,1.0,5.0,0.0,0.0,6.0,0.0,part_2,stop,300.0,600.0,4.0,,,,,,,,,yellow,square
0.0,6.0,2.0,1.0,5.0,0.0,0.0,6.0,0.0,part_2,stop,350.0,600.0,4.0,,,,,,,,,blue,cross
0.0,3.0,3.0,0.0,5.0,5.0,595.1760010002545,6.0,0.0,part_2,go,400.0,600.0,1.0,,,,,,,,,cyan,triangle
0.0,5.0,1.0,1.0,5.0,0.0,0.0,6.0,0.0,part_2,stop,400.0,600.0,4.0,,,,,,,,,yellow,square
0.0,3.0,3.0,0.0,5.0,5.0,386.9039600003816,7.0,0.0,part_2,go,450.0,600.0,1.0,,,,,,,,,cyan,triangle
0.0,8.0,4.0,1.0,6.0,6.0,577.0605660000001,7.0,0.0,part_2,stop,450.0,600.0,3.0,,,,,,,,,white,I
0.0,6.0,2.0,1.0,5.0,5.0,715.821028999926,7.0,0.0,part_2,go,450.0,550.0,1.0,,,,,,,,,blue,cross
0.0,5.0,1.0,1.0,5.0,0.0,0.0,7.0,0.0,part_2,stop,450.0,550.0,4.0,,,,,,,,,yellow,square
0.0,7.0,3.0,1.0,5.0,0.0,0.0,7.0,0.0,part_2,stop,500.0,550.0,4.0,,,,,,,,,orange,diamond
0.0,5.0,1.0,1.0,6.0,0.0,0.0,7.0,0.0,part_2,stop,550.0,550.0,4.0,,,,,,,,,yellow,square
0.0,1.0,1.0,0.0,6.0,6.0,567.066476999571,7.0,0.0,part_2,go,550.0,600.0,1.0,,,,,,,,,green,flipped triangle
0.0,8.0,4.0,1.0,5.0,0.0,0.0,7.0,0.0,part_2,stop,550.0,600.0,4.0,,,,,,,,,white,I
0.0,7.0,3.0,1.0,5.0,5.0,933.9615319995572,7.0,0.0,part_2,go,600.0,600.0,1.0,,,,,,,,,orange,diamond
0.0,8.0,4.0,1.0,5.0,0.0,0.0,7.0,0.0,part_2,stop,600.0,600.0,4.0,,,,,,,,,white,I
0.0,6.0,2.0,1.0,6.0,6.0,718.9927569997963,7.0,0.0,part_2,stop,650.0,600.0,3.0,,,,,,,,,blue,cross
0.0,5.0,1.0,1.0,6.0,0.0,0.0,7.0,0.0,part_2,stop,650.0,550.0,4.0,,,,,,,,,yellow,square
0.0,1.0,1.0,0.0,5.0,5.0,799.0574639998158,7.0,0.0,part_2,go,650.0,600.0,1.0,,,,,,,,,green,flipped triangle
0.0,8.0,4.0,1.0,6.0,0.0,0.0,7.0,0.0,part_2,stop,650.0,600.0,4.0,,,,,,,,,white,I
0.0,3.0,3.0,0.0,5.0,5.0,721.3891029996375,7.0,0.0,part_2,go,650.0,650.0,1.0,,,,,,,,,cyan,triangle
0.0,6.0,2.0,1.0,6.0,0.0,0.0,7.0,0.0,part_2,stop,650.0,650.0,4.0,,,,,,,,,blue,cross
0.0,6.0,2.0,1.0,6.0,6.0,755.6247539996548,7.0,0.0,part_2,stop,650.0,700.0,3.0,,,,,,,,,blue,cross
0.0,2.0,2.0,0.0,5.0,5.0,612.7075449994663,7.0,0.0,part_2,go,650.0,650.0,1.0,,,,,,,,,gray,hexagon
0.0,8.0,4.0,1.0,5.0,0.0,0.0,7.0,0.0,part_2,stop,650.0,650.0,4.0,,,,,,,,,white,I
0.0,3.0,3.0,0.0,5.0,5.0,577.3602830004165,7.0,0.0,part_2,go,700.0,650.0,1.0,,,,,,,,,cyan,triangle
0.0,4.0,4.0,0.0,6.0,6.0,515.0069729997995,7.0,0.0,part_2,go,700.0,650.0,1.0,,,,,,,,,magenta,circle
0.0,8.0,4.0,1.0,6.0,0.0,0.0,7.0,0.0,part_2,stop,700.0,650.0,4.0,,,,,,,,,white,I
0.0,8.0,4.0,1.0,5.0,0.0,0.0,7.0,0.0,part_2,stop,700.0,700.0,4.0,,,,,,,,,white,I
0.0,2.0,2.0,0.0,6.0,6.0,560.596522999731,7.0,0.0,part_2,go,750.0,700.0,1.0,,,,,,,,,gray,hexagon
0.0,1.0,1.0,0.0,6.0,6.0,534.3883550003738,7.0,0.0,part_2,go,750.0,700.0,1.0,,,,,,,,,green,flipped triangle
0.0,4.0,4.0,0.0,5.0,5.0,537.0376300006683,7.0,0.0,part_2,go,750.0,700.0,1.0,,,,,,,,,magenta,circle
0.0,4.0,4.0,0.0,6.0,6.0,410.9293800001978,7.0,0.0,part_2,go,750.0,700.0,1.0,,,,,,,,,magenta,circle
0.0,2.0,2.0,0.0,5.0,5.0,542.5108189992898,7.0,0.0,part_2,go,750.0,700.0,1.0,,,,,,,,,gray,hexagon
0.0,7.0,3.0,1.0,5.0,0.0,0.0,7.0,0.0,part_2,stop,750.0,700.0,4.0,,,,,,,,,orange,diamond
0.0,8.0,4.0,1.0,6.0,0.0,0.0,7.0,0.0,part_2,stop,800.0,700.0,4.0,,,,,,,,,white,I
0.0,6.0,2.0,1.0,5.0,0.0,0.0,7.0,0.0,part_2,stop,800.0,750.0,4.0,,,,,,,,,blue,cross
0.0,8.0,4.0,1.0,5.0,5.0,1359.6582989994204,7.0,0.0,part_2,go,850.0,750.0,1.0,,,,,,,,,white,I
0.0,1.0,1.0,0.0,5.0,5.0,453.9238010002009,7.0,0.0,part_2,go,850.0,750.0,1.0,,,,,,,,,green,flipped triangle
0.0,4.0,4.0,0.0,5.0,5.0,478.0073850006374,7.0,0.0,part_2,go,850.0,750.0,1.0,,,,,,,,,magenta,circle
0.0,8.0,4.0,1.0,5.0,5.0,981.8114709996736,7.0,0.0,part_2,stop,850.0,750.0,3.0,,,,,,,,,white,I
0.0,2.0,2.0,0.0,5.0,5.0,545.4334539999763,7.0,0.0,part_2,go,800.0,750.0,1.0,,,,,,,,,gray,hexagon
0.0,1.0,1.0,0.0,6.0,6.0,435.2039389996207,8.0,0.0,part_2,go,800.0,750.0,1.0,,,,,,,,,green,flipped triangle
0.0,2.0,2.0,0.0,6.0,6.0,488.5560200000327,8.0,0.0,part_2,go,800.0,750.0,1.0,,,,,,,,,gray,hexagon
0.0,7.0,3.0,1.0,5.0,0.0,0.0,8.0,0.0,part_2,stop,800.0,750.0,4.0,,,,,,,,,orange,diamond
0.0,8.0,4.0,1.0,6.0,0.0,0.0,8.0,0.0,part_2,stop,850.0,750.0,4.0,,,,,,,,,white,I
0.0,3.0,3.0,0.0,6.0,6.0,434.490052000001,8.0,0.0,part_2,go,850.0,800.0,1.0,,,,,,,,,cyan,triangle
0.0,4.0,4.0,0.0,5.0,5.0,405.7551620007871,8.0,0.0,part_2,go,850.0,800.0,1.0,,,,,,,,,magenta,circle
0.0,4.0,4.0,0.0,5.0,5.0,442.9925929998717,8.0,0.0,part_2,go,850.0,800.0,1.0,,,,,,,,,magenta,circle
0.0,7.0,3.0,1.0,6.0,6.0,355.3530469998804,8.0,0.0,part_2,stop,850.0,800.0,3.0,,,,,,,,,orange,diamond
0.0,1.0,1.0,0.0,6.0,6.0,480.5646940003498,8.0,0.0,part_2,go,850.0,750.0,1.0,,,,,,,,,green,flipped triangle
0.0,5.0,1.0,1.0,6.0,6.0,345.1140890001625,8.0,0.0,part_2,stop,850.0,750.0,3.0,,,,,,,,,yellow,square
0.0,7.0,3.0,1.0,6.0,0.0,0.0,8.0,0.0,part_2,stop,850.0,700.0,4.0,,,,,,,,,orange,diamond
0.0,7.0,3.0,1.0,6.0,0.0,0.0,8.0,0.0,part_2,stop,850.0,750.0,4.0,,,,,,,,,orange,diamond
0.0,3.0,3.0,0.0,5.0,5.0,500.6703600001856,8.0,0.0,part_2,go,850.0,800.0,1.0,,,,,,,,,cyan,triangle
0.0,4.0,4.0,0.0,6.0,6.0,457.6804339994851,8.0,0.0,part_2,go,850.0,800.0,1.0,,,,,,,,,magenta,circle
0.0,6.0,2.0,1.0,5.0,0.0,0.0,8.0,0.0,part_2,stop,850.0,800.0,4.0,,,,,,,,,blue,cross
0.0,6.0,2.0,1.0,5.0,5.0,1369.4450869998036,8.0,0.0,part_2,go,900.0,800.0,1.0,,,,,,,,,blue,cross
0.0,2.0,2.0,0.0,6.0,6.0,481.1894439999378,8.0,0.0,part_2,go,900.0,800.0,1.0,,,,,,,,,gray,hexagon
0.0,2.0,2.0,0.0,5.0,5.0,478.8481069999761,8.0,0.0,part_2,go,900.0,800.0,1.0,,,,,,,,,gray,hexagon
0.0,5.0,1.0,1.0,5.0,0.0,0.0,8.0,0.0,part_2,stop,900.0,800.0,4.0,,,,,,,,,yellow,square
0.0,1.0,1.0,0.0,6.0,6.0,505.2244560001782,8.0,0.0,part_2,go,950.0,800.0,1.0,,,,,,,,,green,flipped triangle
0.0,8.0,4.0,1.0,6.0,0.0,0.0,8.0,0.0,part_2,stop,950.0,800.0,4.0,,,,,,,,,white,I
0.0,6.0,2.0,1.0,5.0,0.0,0.0,8.0,0.0,part_2,stop,950.0,850.0,4.0,,,,,,,,,blue,cross
0.0,1.0,1.0,0.0,5.0,5.0,520.4809529996055,8.0,0.0,part_2,go,1000.0,850.0,1.0,,,,,,,,,green,flipped triangle
0.0,5.0,1.0,1.0,5.0,0.0,0.0,8.0,0.0,part_2,stop,1000.0,850.0,4.0,,,,,,,,,yellow,square
0.0,6.0,2.0,1.0,6.0,0.0,0.0,8.0,0.0,part_2,stop,1050.0,850.0,4.0,,,,,,,,,blue,cross
0.0,2.0,2.0,0.0,6.0,6.0,524.5159980004246,8.0,0.0,part_2,go,1050.0,900.0,1.0,,,,,,,,,gray,hexagon
0.0,6.0,2.0,1.0,6.0,0.0,0.0,8.0,0.0,part_2,stop,1050.0,900.0,4.0,,,,,,,,,blue,cross
0.0,4.0,4.0,0.0,6.0,6.0,514.2591649992028,8.0,0.0,part_2,go,1050.0,950.0,1.0,,,,,,,,,magenta,circle
0.0,3.0,3.0,0.0,6.0,6.0,452.2763430004488,8.0,0.0,part_2,go,1050.0,950.0,1.0,,,,,,,,,cyan,triangle
0.0,3.0,3.0,0.0,5.0,5.0,472.3158180004247,8.0,0.0,part_2,go,1050.0,950.0,1.0,,,,,,,,,cyan,triangle
0.0,5.0,1.0,1.0,6.0,0.0,0.0,8.0,0.0,part_2,stop,1050.0,950.0,4.0,,,,,,,,,yellow,square
0.0,6.0,2.0,1.0,5.0,0.0,0.0,8.0,0.0,part_2,stop,1050.0,1000.0,4.0,,,,,,,,,blue,cross
0.0,3.0,3.0,0.0,6.0,6.0,481.1681009996391,8.0,0.0,part_2,go,1100.0,1000.0,1.0,,,,,,,,,cyan,triangle
0.0,7.0,3.0,1.0,5.0,0.0,0.0,8.0,0.0,part_2,stop,1100.0,1000.0,4.0,,,,,,,,,orange,diamond
0.0,5.0,1.0,1.0,6.0,0.0,0.0,8.0,0.0,part_2,go,1150.0,1000.0,5.0,,,,,,,,,yellow,square
0.0,1.0,1.0,0.0,5.0,5.0,605.8282250005504,8.0,0.0,part_2,go,1150.0,1000.0,1.0,,,,,,,,,green,flipped triangle
0.0,5.0,1.0,1.0,7.0,3.0,2160.7306200003222,1.0,1.0,part_3,go,0.0,0.0,0.0,34.0,1.0,204.0,170.0,34.0,68.0,136.0,102.0,yellow,square
0.0,2.0,2.0,0.0,7.0,4.0,2290.8981239997956,1.0,1.0,part_3,go,0.0,0.0,0.0,44.0,1.0,176.0,132.0,264.0,44.0,220.0,88.0,gray,hexagon
0.0,3.0,3.0,0.0,7.0,1.0,2444.273866000003,1.0,1.0,part_3,go,0.0,0.0,0.0,156.0,4.0,156.0,39.0,234.0,78.0,117.0,195.0,cyan,triangle
0.0,5.0,1.0,1.0,7.0,1.0,2149.2421180000747,1.0,1.0,part_3,go,0.0,0.0,0.0,98.0,2.0,98.0,245.0,147.0,49.0,196.0,294.0,yellow,square
0.0,3.0,3.0,0.0,7.0,3.0,1692.0718239998678,1.0,1.0,part_3,go,0.0,0.0,0.0,117.0,3.0,156.0,39.0,117.0,78.0,195.0,234.0,cyan,triangle
0.0,1.0,1.0,0.0,7.0,6.0,2350.403680999989,1.0,1.0,part_3,go,0.0,0.0,0.0,220.0,5.0,132.0,44.0,176.0,88.0,264.0,220.0,green,flipped triangle
0.0,4.0,4.0,0.0,7.0,6.0,1618.3795749993806,1.0,1.0,part_3,go,0.0,0.0,0.0,264.0,6.0,176.0,132.0,44.0,220.0,88.0,264.0,magenta,circle
0.0,2.0,2.0,0.0,7.0,2.0,1582.113690999904,1.0,2.0,part_3,go,0.0,0.0,0.0,54.0,1.0,162.0,54.0,324.0,270.0,108.0,216.0,gray,hexagon
0.0,6.0,2.0,1.0,7.0,5.0,1573.3004940002502,1.0,1.0,part_3,go,0.0,0.0,0.0,147.0,3.0,196.0,294.0,245.0,98.0,147.0,49.0,blue,cross
0.0,3.0,3.0,0.0,7.0,5.0,1885.6940709993069,1.0,1.0,part_3,go,0.0,0.0,0.0,176.0,4.0,132.0,264.0,220.0,44.0,176.0,88.0,cyan,triangle
0.0,4.0,4.0,0.0,7.0,5.0,1613.7369329999274,1.0,1.0,part_3,go,0.0,0.0,0.0,204.0,6.0,68.0,136.0,102.0,170.0,204.0,34.0,magenta,circle
0.0,2.0,2.0,0.0,7.0,5.0,1327.973122000003,1.0,1.0,part_3,go,0.0,0.0,0.0,39.0,1.0,156.0,234.0,195.0,117.0,39.0,78.0,gray,hexagon
0.0,3.0,3.0,0.0,7.0,6.0,2077.872983999441,1.0,1.0,part_3,go,0.0,0.0,0.0,170.0,5.0,102.0,136.0,68.0,34.0,204.0,170.0,cyan,triangle
0.0,8.0,4.0,1.0,7.0,2.0,2303.951793000124,1.0,1.0,part_3,go,0.0,0.0,0.0,44.0,1.0,88.0,44.0,132.0,176.0,264.0,220.0,white,I
0.0,1.0,1.0,0.0,7.0,2.0,1652.6321640003516,1.0,1.0,part_3,go,0.0,0.0,0.0,147.0,3.0,245.0,147.0,98.0,196.0,294.0,49.0,green,flipped triangle
0.0,6.0,2.0,1.0,7.0,4.0,1654.3539530002818,1.0,1.0,part_3,go,0.0,0.0,0.0,162.0,3.0,324.0,216.0,108.0,162.0,270.0,54.0,blue,cross
0.0,2.0,2.0,0.0,7.0,4.0,1344.878101000177,1.0,1.0,part_3,go,0.0,0.0,0.0,54.0,1.0,270.0,216.0,108.0,54.0,162.0,324.0,gray,hexagon
0.0,5.0,1.0,1.0,7.0,1.0,1538.4560319998857,1.0,1.0,part_3,go,0.0,0.0,0.0,68.0,2.0,68.0,34.0,204.0,102.0,136.0,170.0,yellow,square
0.0,1.0,1.0,0.0,7.0,1.0,1495.4668520003906,1.0,1.0,part_3,go,0.0,0.0,0.0,117.0,3.0,117.0,39.0,156.0,78.0,234.0,195.0,green,flipped triangle
0.0,3.0,3.0,0.0,7.0,3.0,2446.8590070000573,1.0,1.0,part_3,go,0.0,0.0,0.0,147.0,3.0,294.0,245.0,147.0,49.0,196.0,98.0,cyan,triangle
0.0,7.0,3.0,1.0,7.0,5.0,1560.5300399993212,2.0,1.0,part_3,go,0.0,0.0,0.0,49.0,1.0,147.0,98.0,196.0,294.0,49.0,245.0,orange,diamond
0.0,2.0,2.0,0.0,7.0,2.0,902.630044000034,2.0,1.0,part_3,go,0.0,0.0,0.0,34.0,1.0,68.0,34.0,102.0,204.0,136.0,170.0,gray,hexagon
0.0,6.0,2.0,1.0,7.0,3.0,1444.553826999254,2.0,1.0,part_3,go,0.0,0.0,0.0,176.0,4.0,220.0,132.0,176.0,264.0,44.0,88.0,blue,cross
0.0,4.0,4.0,0.0,7.0,1.0,2018.1539010000051,2.0,1.0,part_3,go,0.0,0.0,0.0,216.0,4.0,216.0,270.0,108.0,324.0,162.0,54.0,magenta,circle
0.0,8.0,4.0,1.0,7.0,6.0,1046.6713260002507,2.0,1.0,part_3,go,0.0,0.0,0.0,34.0,1.0,68.0,102.0,204.0,170.0,136.0,34.0,white,I
0.0,8.0,4.0,1.0,7.0,6.0,1721.958948000065,2.0,1.0,part_3,go,0.0,0.0,0.0,117.0,3.0,39.0,195.0,78.0,234.0,156.0,117.0,white,I
0.0,6.0,2.0,1.0,7.0,1.0,1457.301106000159,2.0,1.0,part_3,go,0.0,0.0,0.0,156.0,4.0,156.0,78.0,234.0,195.0,117.0,39.0,blue,cross
0.0,1.0,1.0,0.0,7.0,2.0,1088.9688260003825,2.0,1.0,part_3,go,0.0,0.0,0.0,147.0,3.0,98.0,147.0,49.0,294.0,196.0,245.0,green,flipped triangle
0.0,5.0,1.0,1.0,7.0,1.0,1160.5012459995123,2.0,1.0,part_3,go,0.0,0.0,0.0,78.0,2.0,78.0,195.0,156.0,117.0,39.0,234.0,yellow,square
0.0,5.0,1.0,1.0,7.0,5.0,1219.818204999683,2.0,1.0,part_3,go,0.0,0.0,0.0,98.0,2.0,147.0,49.0,294.0,245.0,98.0,196.0,yellow,square
0.0,1.0,1.0,0.0,7.0,2.0,1478.2741649996751,2.0,1.0,part_3,go,0.0,0.0,0.0,108.0,2.0,216.0,108.0,270.0,162.0,324.0,54.0,green,flipped triangle
0.0,6.0,2.0,1.0,7.0,4.0,1876.0018310003943,2.0,1.0,part_3,go,0.0,0.0,0.0,136.0,4.0,102.0,68.0,34.0,136.0,204.0,170.0,blue,cross
0.0,5.0,1.0,1.0,7.0,5.0,1035.9359490003044,2.0,1.0,part_3,go,0.0,0.0,0.0,78.0,2.0,39.0,234.0,156.0,117.0,78.0,195.0,yellow,square
0.0,1.0,1.0,0.0,7.0,5.0,1240.4047560003164,2.0,1.0,part_3,go,0.0,0.0,0.0,102.0,3.0,34.0,170.0,136.0,68.0,102.0,204.0,green,flipped triangle
0.0,8.0,4.0,1.0,7.0,4.0,1104.3921239997871,2.0,1.0,part_3,go,0.0,0.0,0.0,98.0,2.0,245.0,294.0,147.0,98.0,49.0,196.0,white,I
0.0,1.0,1.0,0.0,7.0,1.0,1729.540943999382,2.0,1.0,part_3,go,0.0,0.0,0.0,170.0,5.0,170.0,34.0,204.0,68.0,102.0,136.0,green,flipped triangle
0.0,5.0,1.0,1.0,7.0,6.0,1305.8416849999048,2.0,1.0,part_3,go,0.0,0.0,0.0,108.0,2.0,324.0,54.0,270.0,162.0,216.0,108.0,yellow,square
0.0,8.0,4.0,1.0,7.0,5.0,896.2038059999031,2.0,1.0,part_3,go,0.0,0.0,0.0,39.0,1.0,156.0,117.0,78.0,195.0,39.0,234.0,white,I
0.0,7.0,3.0,1.0,7.0,5.0,1185.803764999946,2.0,1.0,part_3,go,0.0,0.0,0.0,294.0,6.0,98.0,245.0,49.0,147.0,294.0,196.0,orange,diamond
0.0,8.0,4.0,1.0,7.0,3.0,2420.670780999899,2.0,1.0,part_3,go,0.0,0.0,0.0,54.0,1.0,108.0,270.0,54.0,216.0,162.0,324.0,white,I
0.0,6.0,2.0,1.0,7.0,5.0,1293.974027999866,3.0,1.0,part_3,go,0.0,0.0,0.0,147.0,3.0,49.0,245.0,294.0,98.0,147.0,196.0,blue,cross
0.0,4.0,4.0,0.0,7.0,2.0,1403.6996349996116,3.0,1.0,part_3,go,0.0,0.0,0.0,204.0,6.0,34.0,204.0,136.0,102.0,170.0,68.0,magenta,circle
0.0,7.0,3.0,1.0,7.0,5.0,1451.4150080003674,3.0,1.0,part_3,go,0.0,0.0,0.0,170.0,5.0,136.0,34.0,102.0,204.0,170.0,68.0,orange,diamond
0.0,3.0,3.0,0.0,7.0,1.0,1113.3342319999429,3.0,1.0,part_3,go,0.0,0.0,0.0,132.0,3.0,132.0,264.0,176.0,88.0,44.0,220.0,cyan,triangle
0.0,6.0,2.0,1.0,7.0,1.0,1366.0075530005995,3.0,1.0,part_3,go,0.0,0.0,0.0,136.0,4.0,136.0,204.0,68.0,34.0,170.0,102.0,blue,cross
0.0,4.0,4.0,0.0,7.0,2.0,1267.077200000131,3.0,1.0,part_3,go,0.0,0.0,0.0,234.0,6.0,195.0,234.0,39.0,78.0,117.0,156.0,magenta,circle
0.0,7.0,3.0,1.0,7.0,1.0,1683.1517989994609,3.0,1.0,part_3,go,0.0,0.0,0.0,195.0,5.0,195.0,117.0,234.0,39.0,78.0,156.0,orange,diamond
0.0,6.0,2.0,1.0,7.0,5.0,1841.542414000287,3.0,1.0,part_3,go,0.0,0.0,0.0,156.0,4.0,195.0,39.0,117.0,234.0,156.0,78.0,blue,cross
0.0,1.0,1.0,0.0,7.0,4.0,1686.1687640002856,3.0,1.0,part_3,go,0.0,0.0,0.0,132.0,3.0,88.0,176.0,220.0,132.0,44.0,264.0,green,flipped triangle
0.0,8.0,4.0,1.0,7.0,2.0,1084.710234999875,3.0,1.0,part_3,go,0.0,0.0,0.0,54.0,1.0,324.0,54.0,108.0,270.0,162.0,216.0,white,I
0.0,5.0,1.0,1.0,7.0,6.0,1217.941198000517,3.0,1.0,part_3,go,0.0,0.0,0.0,54.0,1.0,162.0,108.0,216.0,324.0,270.0,54.0,yellow,square
0.0,7.0,3.0,1.0,7.0,6.0,1484.9151070002335,3.0,1.0,part_3,go,0.0,0.0,0.0,136.0,4.0,102.0,34.0,68.0,170.0,204.0,136.0,orange,diamond
0.0,7.0,3.0,1.0,7.0,6.0,1711.0113680000725,3.0,1.0,part_3,go,0.0,0.0,0.0,117.0,3.0,234.0,195.0,78.0,39.0,156.0,117.0,orange,diamond
0.0,4.0,4.0,0.0,7.0,1.0,1179.80647100012,3.0,1.0,part_3,go,0.0,0.0,0.0,234.0,6.0,234.0,156.0,117.0,39.0,195.0,78.0,magenta,circle
0.0,2.0,2.0,0.0,7.0,3.0,1145.7445140003983,3.0,1.0,part_3,go,0.0,0.0,0.0,34.0,1.0,68.0,102.0,34.0,170.0,136.0,204.0,gray,hexagon
0.0,2.0,2.0,0.0,7.0,4.0,1065.3014559993608,3.0,1.0,part_3,go,0.0,0.0,0.0,44.0,1.0,220.0,176.0,132.0,44.0,264.0,88.0,gray,hexagon
0.0,4.0,4.0,0.0,7.0,1.0,1806.8488100007016,3.0,1.0,part_3,go,0.0,0.0,0.0,245.0,5.0,245.0,98.0,49.0,196.0,294.0,147.0,magenta,circle
0.0,1.0,1.0,0.0,7.0,1.0,1553.7298870003724,3.0,1.0,part_3,go,0.0,0.0,0.0,162.0,3.0,162.0,54.0,216.0,270.0,324.0,108.0,green,flipped triangle
0.0,8.0,4.0,1.0,7.0,4.0,1847.0548739996957,3.0,1.0,part_3,go,0.0,0.0,0.0,49.0,1.0,245.0,294.0,98.0,49.0,196.0,147.0,white,I
0.0,2.0,2.0,0.0,7.0,1.0,1412.5752370000555,3.0,1.0,part_3,go,0.0,0.0,0.0,49.0,1.0,49.0,147.0,98.0,245.0,196.0,294.0,gray,hexagon
0.0,1.0,1.0,0.0,7.0,4.0,1111.9711450000975,4.0,1.0,part_3,go,0.0,0.0,0.0,156.0,4.0,195.0,117.0,39.0,156.0,78.0,234.0,green,flipped triangle
0.0,4.0,4.0,0.0,7.0,1.0,1316.1742110005434,4.0,1.0,part_3,go,0.0,0.0,0.0,270.0,5.0,270.0,108.0,54.0,324.0,162.0,216.0,magenta,circle
0.0,5.0,1.0,1.0,7.0,3.0,1243.6107180001272,4.0,1.0,part_3,go,0.0,0.0,0.0,44.0,1.0,132.0,264.0,44.0,88.0,220.0,176.0,yellow,square
0.0,7.0,3.0,1.0,7.0,3.0,1646.4900150003814,4.0,1.0,part_3,go,0.0,0.0,0.0,162.0,3.0,108.0,270.0,162.0,54.0,324.0,216.0,orange,diamond
0.0,3.0,3.0,0.0,7.0,1.0,1253.2558900002186,4.0,1.0,part_3,go,0.0,0.0,0.0,102.0,3.0,102.0,170.0,68.0,34.0,204.0,136.0,cyan,triangle
0.0,4.0,4.0,0.0,7.0,1.0,1070.3292210000654,4.0,1.0,part_3,go,0.0,0.0,0.0,220.0,5.0,220.0,132.0,176.0,88.0,264.0,44.0,magenta,circle
0.0,8.0,4.0,1.0,7.0,2.0,1313.448492000134,4.0,1.0,part_3,go,0.0,0.0,0.0,44.0,1.0,132.0,44.0,264.0,176.0,88.0,220.0,white,I
0.0,2.0,2.0,0.0,7.0,3.0,1274.5758000000933,4.0,1.0,part_3,go,0.0,0.0,0.0,49.0,1.0,147.0,245.0,49.0,196.0,98.0,294.0,gray,hexagon
0.0,6.0,2.0,1.0,7.0,5.0,2252.8222890005054,4.0,1.0,part_3,go,0.0,0.0,0.0,162.0,3.0,216.0,54.0,108.0,324.0,162.0,270.0,blue,cross
0.0,7.0,3.0,1.0,7.0,5.0,1553.719075999652,4.0,1.0,part_3,go,0.0,0.0,0.0,132.0,3.0,220.0,264.0,176.0,88.0,132.0,44.0,orange,diamond
0.0,6.0,2.0,1.0,7.0,5.0,1495.984361999945,4.0,1.0,part_3,go,0.0,0.0,0.0,132.0,3.0,220.0,176.0,44.0,88.0,132.0,264.0,blue,cross
0.0,4.0,4.0,0.0,7.0,1.0,1556.446507000146,4.0,1.0,part_3,go,0.0,0.0,0.0,245.0,5.0,245.0,98.0,196.0,147.0,49.0,294.0,magenta,circle
0.0,7.0,3.0,1.0,7.0,3.0,1147.7172459999565,4.0,1.0,part_3,go,0.0,0.0,0.0,162.0,3.0,108.0,324.0,162.0,54.0,270.0,216.0,orange,diamond
0.0,2.0,2.0,0.0,7.0,6.0,1559.2853809994267,4.0,1.0,part_3,go,0.0,0.0,0.0,39.0,1.0,234.0,195.0,156.0,117.0,78.0,39.0,gray,hexagon
0.0,3.0,3.0,0.0,7.0,5.0,1689.4237529995737,4.0,1.0,part_3,go,0.0,0.0,0.0,108.0,2.0,270.0,162.0,324.0,216.0,108.0,54.0,cyan,triangle
0.0,3.0,3.0,0.0,7.0,5.0,1398.5059830001774,4.0,1.0,part_3,go,0.0,0.0,0.0,108.0,2.0,54.0,324.0,216.0,270.0,108.0,162.0,cyan,triangle
0.0,7.0,3.0,1.0,7.0,1.0,1616.9821769999544,4.0,1.0,part_3,go,0.0,0.0,0.0,176.0,4.0,176.0,220.0,44.0,132.0,264.0,88.0,orange,diamond
0.0,3.0,3.0,0.0,7.0,2.0,1642.3170329999266,4.0,1.0,part_3,go,0.0,0.0,0.0,147.0,3.0,196.0,147.0,245.0,294.0,98.0,49.0,cyan,triangle
0.0,8.0,4.0,1.0,7.0,4.0,1272.8377060002458,4.0,1.0,part_3,go,0.0,0.0,0.0,34.0,1.0,204.0,68.0,102.0,34.0,170.0,136.0,white,I
0.0,5.0,1.0,1.0,7.0,2.0,1393.602694999572,4.0,1.0,part_3,go,0.0,0.0,0.0,44.0,1.0,88.0,44.0,220.0,132.0,176.0,264.0,yellow,square
