raw_reward_magnitude,stim_reward,stepwise_reward_magnitude,paired_with_stopping,quadrant,response,reaction_time,block,num_trial_presentations,which_part,stop_signal_trial_type,left_SSD,right_SSD,accuracy,chosen_bidding_amount,chosen_bidding_level,possible_bid_1,possible_bid_2,possible_bid_3,possible_bid_4,possible_bid_5,possible_bid_6,color_text,shape_text
421.0,4.0,4.0,0.0,4.0,4.0,428.3762309999019,1.0,1.0,part_1,,,,,,,,,,,,,white,cross
0.0,1.0,0.0,0.0,1.0,1.0,304.5620529999269,1.0,1.0,part_1,,,,,,,,,,,,,magenta,flipped triangle
180.0,3.0,3.0,0.0,2.0,2.0,320.863147999944,1.0,1.0,part_1,,,,,,,,,,,,,orange,diamond
54.0,5.0,1.0,1.0,3.0,3.0,326.083208,1.0,1.0,part_1,,,,,,,,,,,,,green,circle
0.0,6.0,0.0,1.0,1.0,1.0,274.8316300001079,1.0,1.0,part_1,,,,,,,,,,,,,cyan,I
214.0,7.0,3.0,1.0,1.0,1.0,369.5869640000637,1.0,1.0,part_1,,,,,,,,,,,,,yellow,hexagon
396.0,4.0,4.0,0.0,1.0,1.0,344.9846999999408,1.0,1.0,part_1,,,,,,,,,,,,,white,cross
0.0,8.0,0.0,1.0,2.0,2.0,344.9554030000854,1.0,1.0,part_1,,,,,,,,,,,,,gray,triangle
387.0,8.0,4.0,1.0,2.0,2.0,383.5978660001728,1.0,1.0,part_1,,,,,,,,,,,,,gray,triangle
0.0,4.0,0.0,0.0,1.0,1.0,318.7906549999297,1.0,1.0,part_1,,,,,,,,,,,,,white,cross
60.0,1.0,1.0,0.0,1.0,1.0,381.0188929999185,1.0,1.0,part_1,,,,,,,,,,,,,magenta,flipped triangle
32.0,5.0,1.0,1.0,4.0,4.0,341.4572990000124,1.0,1.0,part_1,,,,,,,,,,,,,green,circle
110.0,2.0,2.0,0.0,4.0,4.0,386.8292780000502,1.0,1.0,part_1,,,,,,,,,,,,,blue,square
53.0,5.0,1.0,1.0,3.0,3.0,391.7675069999404,1.0,1.0,part_1,,,,,,,,,,,,,green,circle
203.0,7.0,3.0,1.0,2.0,2.0,276.3736679999056,1.0,1.0,part_1,,,,,,,,,,,,,yellow,hexagon
102.0,2.0,2.0,0.0,1.0,1.0,260.6403429999773,1.0,1.0,part_1,,,,,,,,,,,,,blue,square
0.0,2.0,0.0,0.0,1.0,1.0,312.5464839999949,1.0,1.0,part_1,,,,,,,,,,,,,blue,square
84.0,2.0,2.0,0.0,2.0,2.0,284.201553999992,1.0,1.0,part_1,,,,,,,,,,,,,blue,square
0.0,6.0,0.0,1.0,3.0,3.0,310.4673539999112,1.0,1.0,part_1,,,,,,,,,,,,,cyan,I
0.0,4.0,0.0,0.0,4.0,4.0,349.1465380000136,1.0,1.0,part_1,,,,,,,,,,,,,white,cross
78.0,2.0,2.0,0.0,4.0,4.0,380.1434179999887,1.0,1.0,part_1,,,,,,,,,,,,,blue,square
390.0,4.0,4.0,0.0,3.0,3.0,412.366092999946,1.0,1.0,part_1,,,,,,,,,,,,,white,cross
377.0,4.0,4.0,0.0,2.0,2.0,291.8555349999678,1.0,1.0,part_1,,,,,,,,,,,,,white,cross
44.0,5.0,1.0,1.0,4.0,4.0,341.6406750000078,1.0,1.0,part_1,,,,,,,,,,,,,green,circle
198.0,7.0,3.0,1.0,3.0,3.0,294.5935039999767,1.0,1.0,part_1,,,,,,,,,,,,,yellow,hexagon
74.0,5.0,1.0,1.0,4.0,4.0,350.8402630000091,1.0,1.0,part_1,,,,,,,,,,,,,green,circle
0.0,3.0,0.0,0.0,2.0,2.0,313.4661469998718,1.0,1.0,part_1,,,,,,,,,,,,,orange,diamond
395.0,4.0,4.0,0.0,2.0,2.0,349.0713690000575,1.0,1.0,part_1,,,,,,,,,,,,,white,cross
390.0,4.0,4.0,0.0,2.0,2.0,319.9535420001211,1.0,1.0,part_1,,,,,,,,,,,,,white,cross
0.0,2.0,0.0,0.0,4.0,4.0,436.2075989999994,1.0,1.0,part_1,,,,,,,,,,,,,blue,square
208.0,7.0,3.0,1.0,3.0,3.0,297.346429999834,1.0,1.0,part_1,,,,,,,,,,,,,yellow,hexagon
73.0,1.0,1.0,0.0,1.0,1.0,267.8869680000844,1.0,1.0,part_1,,,,,,,,,,,,,magenta,flipped triangle
41.0,5.0,1.0,1.0,2.0,2.0,303.0021310000848,1.0,1.0,part_1,,,,,,,,,,,,,green,circle
0.0,1.0,0.0,0.0,4.0,4.0,408.002568000029,1.0,1.0,part_1,,,,,,,,,,,,,magenta,flipped triangle
73.0,5.0,1.0,1.0,4.0,4.0,343.1150669998715,1.0,1.0,part_1,,,,,,,,,,,,,green,circle
113.0,6.0,2.0,1.0,3.0,3.0,315.4908709998381,1.0,1.0,part_1,,,,,,,,,,,,,cyan,I
0.0,4.0,0.0,0.0,4.0,4.0,300.4896279999229,1.0,1.0,part_1,,,,,,,,,,,,,white,cross
63.0,1.0,1.0,0.0,3.0,3.0,238.2774440000048,1.0,1.0,part_1,,,,,,,,,,,,,magenta,flipped triangle
112.0,2.0,2.0,0.0,3.0,3.0,272.3052720000396,1.0,1.0,part_1,,,,,,,,,,,,,blue,square
98.0,2.0,2.0,0.0,3.0,3.0,283.1509019999885,1.0,1.0,part_1,,,,,,,,,,,,,blue,square
95.0,6.0,2.0,1.0,2.0,2.0,303.49760099989,1.0,1.0,part_1,,,,,,,,,,,,,cyan,I
0.0,6.0,0.0,1.0,4.0,4.0,292.2463150000567,1.0,1.0,part_1,,,,,,,,,,,,,cyan,I
403.0,4.0,4.0,0.0,4.0,4.0,310.3471080000872,1.0,1.0,part_1,,,,,,,,,,,,,white,cross
425.0,8.0,4.0,1.0,3.0,3.0,296.9588939999994,1.0,1.0,part_1,,,,,,,,,,,,,gray,triangle
105.0,6.0,2.0,1.0,1.0,1.0,296.7305090000991,1.0,1.0,part_1,,,,,,,,,,,,,cyan,I
402.0,4.0,4.0,0.0,2.0,2.0,245.7556970000496,1.0,1.0,part_1,,,,,,,,,,,,,white,cross
0.0,1.0,0.0,0.0,3.0,3.0,265.9602830001404,1.0,1.0,part_1,,,,,,,,,,,,,magenta,flipped triangle
55.0,1.0,1.0,0.0,3.0,3.0,296.4893250000386,1.0,1.0,part_1,,,,,,,,,,,,,magenta,flipped triangle
125.0,2.0,2.0,0.0,3.0,3.0,329.7528000000511,1.0,1.0,part_1,,,,,,,,,,,,,blue,square
214.0,3.0,3.0,0.0,1.0,1.0,496.7289870000968,1.0,2.0,part_1,,,,,,,,,,,,,orange,diamond
0.0,2.0,0.0,0.0,3.0,3.0,399.3334479998793,1.0,1.0,part_1,,,,,,,,,,,,,blue,square
112.0,6.0,2.0,1.0,4.0,4.0,366.2251210000704,1.0,1.0,part_1,,,,,,,,,,,,,cyan,I
176.0,3.0,3.0,0.0,4.0,4.0,373.9574229998652,1.0,1.0,part_1,,,,,,,,,,,,,orange,diamond
391.0,8.0,4.0,1.0,2.0,2.0,339.8765790000198,1.0,1.0,part_1,,,,,,,,,,,,,gray,triangle
47.0,5.0,1.0,1.0,1.0,1.0,384.1156789999331,1.0,1.0,part_1,,,,,,,,,,,,,green,circle
395.0,8.0,4.0,1.0,4.0,4.0,424.6808420000434,1.0,1.0,part_1,,,,,,,,,,,,,gray,triangle
32.0,5.0,1.0,1.0,3.0,3.0,346.308542000088,1.0,1.0,part_1,,,,,,,,,,,,,green,circle
0.0,3.0,0.0,0.0,1.0,1.0,374.1690829999697,1.0,1.0,part_1,,,,,,,,,,,,,orange,diamond
47.0,1.0,1.0,0.0,3.0,3.0,470.2066239999567,1.0,1.0,part_1,,,,,,,,,,,,,magenta,flipped triangle
69.0,1.0,1.0,0.0,4.0,4.0,420.3422719999707,1.0,1.0,part_1,,,,,,,,,,,,,magenta,flipped triangle
120.0,6.0,2.0,1.0,2.0,2.0,276.160020999896,1.0,1.0,part_1,,,,,,,,,,,,,cyan,I
38.0,5.0,1.0,1.0,2.0,2.0,377.1106149999923,1.0,1.0,part_1,,,,,,,,,,,,,green,circle
95.0,2.0,2.0,0.0,1.0,1.0,281.3277719999405,1.0,1.0,part_1,,,,,,,,,,,,,blue,square
0.0,3.0,0.0,0.0,3.0,3.0,375.6827900001553,1.0,1.0,part_1,,,,,,,,,,,,,orange,diamond
48.0,1.0,1.0,0.0,4.0,4.0,391.7182870000033,1.0,1.0,part_1,,,,,,,,,,,,,magenta,flipped triangle
100.0,2.0,2.0,0.0,2.0,2.0,358.0168299999968,1.0,1.0,part_1,,,,,,,,,,,,,blue,square
376.0,8.0,4.0,1.0,2.0,2.0,354.0079240001432,1.0,1.0,part_1,,,,,,,,,,,,,gray,triangle
36.0,1.0,1.0,0.0,2.0,2.0,298.9374539999971,1.0,1.0,part_1,,,,,,,,,,,,,magenta,flipped triangle
0.0,2.0,0.0,0.0,2.0,2.0,310.0142230000529,1.0,1.0,part_1,,,,,,,,,,,,,blue,square
30.0,5.0,1.0,1.0,3.0,3.0,296.6781959999025,1.0,1.0,part_1,,,,,,,,,,,,,green,circle
224.0,7.0,3.0,1.0,2.0,2.0,283.2817030000569,1.0,1.0,part_1,,,,,,,,,,,,,yellow,hexagon
199.0,7.0,3.0,1.0,1.0,1.0,322.9234949999409,1.0,1.0,part_1,,,,,,,,,,,,,yellow,hexagon
112.0,6.0,2.0,1.0,3.0,3.0,383.8136609999765,1.0,1.0,part_1,,,,,,,,,,,,,cyan,I
186.0,7.0,3.0,1.0,4.0,4.0,359.0103939998244,1.0,1.0,part_1,,,,,,,,,,,,,yellow,hexagon
0.0,6.0,0.0,1.0,4.0,4.0,608.590033000155,1.0,1.0,part_1,,,,,,,,,,,,,cyan,I
201.0,7.0,3.0,1.0,3.0,3.0,377.3473399999147,1.0,1.0,part_1,,,,,,,,,,,,,yellow,hexagon
59.0,5.0,1.0,1.0,1.0,1.0,423.6573249997946,1.0,1.0,part_1,,,,,,,,,,,,,green,circle
79.0,2.0,2.0,0.0,1.0,1.0,349.8098150000714,1.0,1.0,part_1,,,,,,,,,,,,,blue,square
0.0,8.0,0.0,1.0,3.0,3.0,384.297424000124,1.0,1.0,part_1,,,,,,,,,,,,,gray,triangle
0.0,5.0,0.0,1.0,4.0,4.0,332.7628580000237,1.0,1.0,part_1,,,,,,,,,,,,,green,circle
214.0,7.0,3.0,1.0,3.0,3.0,307.3911889998726,1.0,1.0,part_1,,,,,,,,,,,,,yellow,hexagon
57.0,5.0,1.0,1.0,1.0,1.0,522.3827909999272,1.0,1.0,part_1,,,,,,,,,,,,,green,circle
0.0,4.0,0.0,0.0,4.0,4.0,390.7121290001214,1.0,1.0,part_1,,,,,,,,,,,,,white,cross
0.0,4.0,0.0,0.0,3.0,3.0,306.2372490001053,1.0,1.0,part_1,,,,,,,,,,,,,white,cross
399.0,4.0,4.0,0.0,1.0,1.0,370.5844870000874,1.0,1.0,part_1,,,,,,,,,,,,,white,cross
224.0,3.0,3.0,0.0,4.0,4.0,339.4217919999391,1.0,1.0,part_1,,,,,,,,,,,,,orange,diamond
98.0,6.0,2.0,1.0,3.0,3.0,390.1089139999385,1.0,1.0,part_1,,,,,,,,,,,,,cyan,I
393.0,8.0,4.0,1.0,1.0,1.0,390.0625610001498,1.0,1.0,part_1,,,,,,,,,,,,,gray,triangle
29.0,1.0,1.0,0.0,1.0,1.0,440.6709720001345,1.0,1.0,part_1,,,,,,,,,,,,,magenta,flipped triangle
0.0,3.0,0.0,0.0,1.0,1.0,314.0700359999755,1.0,1.0,part_1,,,,,,,,,,,,,orange,diamond
69.0,1.0,1.0,0.0,2.0,2.0,325.8045580000726,1.0,1.0,part_1,,,,,,,,,,,,,magenta,flipped triangle
0.0,7.0,0.0,1.0,2.0,2.0,329.8972520001371,1.0,1.0,part_1,,,,,,,,,,,,,yellow,hexagon
32.0,1.0,1.0,0.0,3.0,3.0,389.8013089999494,1.0,1.0,part_1,,,,,,,,,,,,,magenta,flipped triangle
415.0,4.0,4.0,0.0,2.0,2.0,318.4007969998674,1.0,1.0,part_1,,,,,,,,,,,,,white,cross
0.0,8.0,0.0,1.0,2.0,2.0,328.0774969998674,1.0,1.0,part_1,,,,,,,,,,,,,gray,triangle
70.0,1.0,1.0,0.0,2.0,2.0,324.6331989998907,1.0,1.0,part_1,,,,,,,,,,,,,magenta,flipped triangle
95.0,6.0,2.0,1.0,1.0,1.0,253.7220829999569,1.0,1.0,part_1,,,,,,,,,,,,,cyan,I
201.0,3.0,3.0,0.0,4.0,4.0,321.23639800011,1.0,1.0,part_1,,,,,,,,,,,,,orange,diamond
0.0,5.0,0.0,1.0,1.0,1.0,309.2238870003712,1.0,1.0,part_1,,,,,,,,,,,,,green,circle
55.0,5.0,1.0,1.0,4.0,4.0,529.6041209999203,1.0,1.0,part_1,,,,,,,,,,,,,green,circle
87.0,6.0,2.0,1.0,3.0,3.0,376.0380670000813,2.0,1.0,part_1,,,,,,,,,,,,,cyan,I
180.0,7.0,3.0,1.0,2.0,2.0,312.4809450000612,2.0,1.0,part_1,,,,,,,,,,,,,yellow,hexagon
211.0,3.0,3.0,0.0,4.0,4.0,379.6956729997873,2.0,1.0,part_1,,,,,,,,,,,,,orange,diamond
32.0,1.0,1.0,0.0,4.0,4.0,373.0342750000091,2.0,1.0,part_1,,,,,,,,,,,,,magenta,flipped triangle
76.0,2.0,2.0,0.0,1.0,1.0,457.5451440000506,2.0,1.0,part_1,,,,,,,,,,,,,blue,square
206.0,3.0,3.0,0.0,3.0,3.0,352.1956469999168,2.0,1.0,part_1,,,,,,,,,,,,,orange,diamond
59.0,1.0,1.0,0.0,3.0,3.0,317.4128740001833,2.0,1.0,part_1,,,,,,,,,,,,,magenta,flipped triangle
101.0,6.0,2.0,1.0,2.0,2.0,336.987924999903,2.0,1.0,part_1,,,,,,,,,,,,,cyan,I
176.0,3.0,3.0,0.0,3.0,3.0,366.119450000042,2.0,1.0,part_1,,,,,,,,,,,,,orange,diamond
114.0,6.0,2.0,1.0,2.0,2.0,349.9614540000948,2.0,1.0,part_1,,,,,,,,,,,,,cyan,I
206.0,7.0,3.0,1.0,2.0,2.0,465.3153799999927,2.0,1.0,part_1,,,,,,,,,,,,,yellow,hexagon
125.0,6.0,2.0,1.0,1.0,1.0,335.9968560002926,2.0,1.0,part_1,,,,,,,,,,,,,cyan,I
376.0,8.0,4.0,1.0,4.0,4.0,324.3695219998699,2.0,1.0,part_1,,,,,,,,,,,,,gray,triangle
0.0,6.0,0.0,1.0,2.0,2.0,319.0925250000873,2.0,1.0,part_1,,,,,,,,,,,,,cyan,I
0.0,8.0,0.0,1.0,4.0,4.0,500.83615299990925,2.0,1.0,part_1,,,,,,,,,,,,,gray,triangle
423.0,4.0,4.0,0.0,2.0,2.0,276.7266920000111,2.0,1.0,part_1,,,,,,,,,,,,,white,cross
183.0,3.0,3.0,0.0,3.0,3.0,388.9889790002598,2.0,1.0,part_1,,,,,,,,,,,,,orange,diamond
0.0,7.0,0.0,1.0,3.0,3.0,345.0215359998765,2.0,1.0,part_1,,,,,,,,,,,,,yellow,hexagon
0.0,6.0,0.0,1.0,3.0,3.0,407.4484809998466,2.0,1.0,part_1,,,,,,,,,,,,,cyan,I
0.0,5.0,0.0,1.0,2.0,2.0,301.6998100001729,2.0,1.0,part_1,,,,,,,,,,,,,green,circle
105.0,2.0,2.0,0.0,1.0,1.0,294.9786619997212,2.0,1.0,part_1,,,,,,,,,,,,,blue,square
68.0,1.0,1.0,0.0,4.0,4.0,298.1294480000542,2.0,1.0,part_1,,,,,,,,,,,,,magenta,flipped triangle
117.0,6.0,2.0,1.0,4.0,4.0,318.3102220000364,2.0,1.0,part_1,,,,,,,,,,,,,cyan,I
185.0,3.0,3.0,0.0,2.0,2.0,364.2044819998773,2.0,2.0,part_1,,,,,,,,,,,,,orange,diamond
100.0,6.0,2.0,1.0,2.0,2.0,328.8473809998322,2.0,1.0,part_1,,,,,,,,,,,,,cyan,I
390.0,8.0,4.0,1.0,1.0,1.0,314.8066270000527,2.0,1.0,part_1,,,,,,,,,,,,,gray,triangle
376.0,4.0,4.0,0.0,1.0,1.0,306.4271420003024,2.0,1.0,part_1,,,,,,,,,,,,,white,cross
212.0,3.0,3.0,0.0,4.0,4.0,401.1886240000422,2.0,1.0,part_1,,,,,,,,,,,,,orange,diamond
422.0,8.0,4.0,1.0,1.0,1.0,327.4955189999673,2.0,1.0,part_1,,,,,,,,,,,,,gray,triangle
224.0,7.0,3.0,1.0,4.0,4.0,422.2506989999601,2.0,1.0,part_1,,,,,,,,,,,,,yellow,hexagon
203.0,3.0,3.0,0.0,3.0,3.0,390.2757239998209,2.0,1.0,part_1,,,,,,,,,,,,,orange,diamond
415.0,4.0,4.0,0.0,2.0,2.0,378.3189649998348,2.0,1.0,part_1,,,,,,,,,,,,,white,cross
81.0,2.0,2.0,0.0,2.0,2.0,338.9864559999296,2.0,1.0,part_1,,,,,,,,,,,,,blue,square
109.0,6.0,2.0,1.0,4.0,4.0,354.7600460001376,2.0,1.0,part_1,,,,,,,,,,,,,cyan,I
222.0,3.0,3.0,0.0,1.0,1.0,351.5703190000749,2.0,1.0,part_1,,,,,,,,,,,,,orange,diamond
207.0,3.0,3.0,0.0,2.0,2.0,333.5665399999925,2.0,1.0,part_1,,,,,,,,,,,,,orange,diamond
217.0,7.0,3.0,1.0,1.0,1.0,494.886129000406,2.0,1.0,part_1,,,,,,,,,,,,,yellow,hexagon
392.0,8.0,4.0,1.0,4.0,4.0,349.7608080001555,2.0,1.0,part_1,,,,,,,,,,,,,gray,triangle
409.0,4.0,4.0,0.0,1.0,1.0,336.6687140000977,2.0,1.0,part_1,,,,,,,,,,,,,white,cross
393.0,4.0,4.0,0.0,1.0,1.0,303.9726380002321,2.0,1.0,part_1,,,,,,,,,,,,,white,cross
0.0,5.0,0.0,1.0,2.0,2.0,319.5030909996603,2.0,1.0,part_1,,,,,,,,,,,,,green,circle
384.0,4.0,4.0,0.0,3.0,3.0,397.9169079998428,2.0,1.0,part_1,,,,,,,,,,,,,white,cross
44.0,1.0,1.0,0.0,1.0,1.0,408.0510110002251,2.0,1.0,part_1,,,,,,,,,,,,,magenta,flipped triangle
412.0,8.0,4.0,1.0,2.0,2.0,278.067653999642,2.0,1.0,part_1,,,,,,,,,,,,,gray,triangle
412.0,4.0,4.0,0.0,1.0,1.0,261.8747000001349,2.0,1.0,part_1,,,,,,,,,,,,,white,cross
0.0,1.0,0.0,0.0,2.0,2.0,267.3876650001148,2.0,1.0,part_1,,,,,,,,,,,,,magenta,flipped triangle
30.0,1.0,1.0,0.0,4.0,4.0,449.6348969996688,2.0,1.0,part_1,,,,,,,,,,,,,magenta,flipped triangle
55.0,5.0,1.0,1.0,1.0,1.0,343.9183630002844,2.0,1.0,part_1,,,,,,,,,,,,,green,circle
199.0,7.0,3.0,1.0,2.0,2.0,296.3039740002386,2.0,1.0,part_1,,,,,,,,,,,,,yellow,hexagon
385.0,4.0,4.0,0.0,4.0,4.0,323.9369369998712,2.0,1.0,part_1,,,,,,,,,,,,,white,cross
100.0,2.0,2.0,0.0,3.0,3.0,325.8665849998579,2.0,1.0,part_1,,,,,,,,,,,,,blue,square
425.0,4.0,4.0,0.0,1.0,1.0,308.88460999995,2.0,1.0,part_1,,,,,,,,,,,,,white,cross
0.0,5.0,0.0,1.0,3.0,3.0,349.8291020000579,2.0,1.0,part_1,,,,,,,,,,,,,green,circle
398.0,4.0,4.0,0.0,1.0,1.0,407.1516469998641,2.0,1.0,part_1,,,,,,,,,,,,,white,cross
0.0,7.0,0.0,1.0,4.0,4.0,346.3053880000188,2.0,1.0,part_1,,,,,,,,,,,,,yellow,hexagon
93.0,2.0,2.0,0.0,3.0,3.0,485.6060539996178,2.0,1.0,part_1,,,,,,,,,,,,,blue,square
97.0,2.0,2.0,0.0,4.0,4.0,317.5913310001306,2.0,1.0,part_1,,,,,,,,,,,,,blue,square
78.0,6.0,2.0,1.0,1.0,1.0,341.3394300000618,2.0,1.0,part_1,,,,,,,,,,,,,cyan,I
214.0,3.0,3.0,0.0,2.0,2.0,325.7408200001919,2.0,1.0,part_1,,,,,,,,,,,,,orange,diamond
0.0,6.0,0.0,1.0,1.0,1.0,352.3731760001283,2.0,1.0,part_1,,,,,,,,,,,,,cyan,I
0.0,3.0,0.0,0.0,1.0,1.0,340.4109779999089,2.0,1.0,part_1,,,,,,,,,,,,,orange,diamond
211.0,7.0,3.0,1.0,2.0,2.0,400.8971959997325,2.0,1.0,part_1,,,,,,,,,,,,,yellow,hexagon
118.0,6.0,2.0,1.0,2.0,2.0,343.5500000000502,2.0,1.0,part_1,,,,,,,,,,,,,cyan,I
184.0,3.0,3.0,0.0,1.0,1.0,394.2128859998774,2.0,1.0,part_1,,,,,,,,,,,,,orange,diamond
390.0,8.0,4.0,1.0,1.0,1.0,298.8930129999971,2.0,1.0,part_1,,,,,,,,,,,,,gray,triangle
0.0,7.0,0.0,1.0,4.0,4.0,338.0335389997526,2.0,1.0,part_1,,,,,,,,,,,,,yellow,hexagon
413.0,4.0,4.0,0.0,3.0,3.0,315.4985630003466,2.0,1.0,part_1,,,,,,,,,,,,,white,cross
55.0,1.0,1.0,0.0,3.0,3.0,340.8560019997821,2.0,1.0,part_1,,,,,,,,,,,,,magenta,flipped triangle
424.0,4.0,4.0,0.0,3.0,3.0,329.6351700000741,2.0,1.0,part_1,,,,,,,,,,,,,white,cross
224.0,3.0,3.0,0.0,4.0,4.0,372.6999559999058,2.0,1.0,part_1,,,,,,,,,,,,,orange,diamond
183.0,7.0,3.0,1.0,3.0,3.0,292.8813509997781,2.0,1.0,part_1,,,,,,,,,,,,,yellow,hexagon
376.0,4.0,4.0,0.0,4.0,4.0,339.3150590000005,2.0,1.0,part_1,,,,,,,,,,,,,white,cross
69.0,5.0,1.0,1.0,2.0,2.0,364.0247459998136,2.0,1.0,part_1,,,,,,,,,,,,,green,circle
413.0,8.0,4.0,1.0,1.0,1.0,337.5673370001095,2.0,1.0,part_1,,,,,,,,,,,,,gray,triangle
207.0,7.0,3.0,1.0,4.0,4.0,345.5138079998505,2.0,1.0,part_1,,,,,,,,,,,,,yellow,hexagon
41.0,1.0,1.0,0.0,1.0,1.0,492.5873870001851,2.0,1.0,part_1,,,,,,,,,,,,,magenta,flipped triangle
70.0,5.0,1.0,1.0,2.0,2.0,318.3874599999399,2.0,2.0,part_1,,,,,,,,,,,,,green,circle
402.0,8.0,4.0,1.0,1.0,1.0,327.3754960000588,2.0,1.0,part_1,,,,,,,,,,,,,gray,triangle
94.0,6.0,2.0,1.0,3.0,3.0,323.9679839998644,2.0,1.0,part_1,,,,,,,,,,,,,cyan,I
0.0,2.0,0.0,0.0,3.0,3.0,328.4585020001032,2.0,1.0,part_1,,,,,,,,,,,,,blue,square
199.0,3.0,3.0,0.0,4.0,4.0,309.1397500002131,2.0,1.0,part_1,,,,,,,,,,,,,orange,diamond
393.0,8.0,4.0,1.0,3.0,3.0,329.500236000058,2.0,1.0,part_1,,,,,,,,,,,,,gray,triangle
0.0,1.0,0.0,0.0,4.0,4.0,308.5143579996838,2.0,1.0,part_1,,,,,,,,,,,,,magenta,flipped triangle
392.0,4.0,4.0,0.0,4.0,4.0,310.5273979999765,2.0,1.0,part_1,,,,,,,,,,,,,white,cross
0.0,1.0,0.0,0.0,2.0,2.0,297.2420529999908,2.0,1.0,part_1,,,,,,,,,,,,,magenta,flipped triangle
0.0,8.0,0.0,1.0,2.0,2.0,300.8239850000791,2.0,1.0,part_1,,,,,,,,,,,,,gray,triangle
420.0,4.0,4.0,0.0,3.0,3.0,311.0661850000724,2.0,1.0,part_1,,,,,,,,,,,,,white,cross
217.0,3.0,3.0,0.0,2.0,2.0,312.0794370001931,2.0,1.0,part_1,,,,,,,,,,,,,orange,diamond
35.0,1.0,1.0,0.0,4.0,4.0,293.7916490000134,2.0,1.0,part_1,,,,,,,,,,,,,magenta,flipped triangle
100.0,6.0,2.0,1.0,2.0,2.0,289.2679130000033,2.0,1.0,part_1,,,,,,,,,,,,,cyan,I
207.0,3.0,3.0,0.0,1.0,1.0,457.3358009997719,2.0,1.0,part_1,,,,,,,,,,,,,orange,diamond
413.0,8.0,4.0,1.0,3.0,3.0,290.2004580000721,2.0,1.0,part_1,,,,,,,,,,,,,gray,triangle
68.0,1.0,1.0,0.0,1.0,1.0,377.4968999996417,2.0,1.0,part_1,,,,,,,,,,,,,magenta,flipped triangle
53.0,1.0,1.0,0.0,1.0,1.0,362.794901000143,2.0,1.0,part_1,,,,,,,,,,,,,magenta,flipped triangle
93.0,6.0,2.0,1.0,3.0,3.0,424.8738920000505,2.0,1.0,part_1,,,,,,,,,,,,,cyan,I
198.0,3.0,3.0,0.0,1.0,1.0,292.6746539997111,2.0,1.0,part_1,,,,,,,,,,,,,orange,diamond
385.0,8.0,4.0,1.0,1.0,1.0,461.5000210001199,2.0,1.0,part_1,,,,,,,,,,,,,gray,triangle
89.0,2.0,2.0,0.0,2.0,2.0,272.3553609998816,2.0,1.0,part_1,,,,,,,,,,,,,blue,square
32.0,5.0,1.0,1.0,3.0,3.0,286.7192339999747,2.0,1.0,part_1,,,,,,,,,,,,,green,circle
217.0,7.0,3.0,1.0,1.0,1.0,338.4429590000763,2.0,1.0,part_1,,,,,,,,,,,,,yellow,hexagon
97.0,6.0,2.0,1.0,4.0,4.0,619.4820450000407,3.0,1.0,part_1,,,,,,,,,,,,,cyan,I
0.0,6.0,0.0,1.0,2.0,2.0,343.6923480003315,3.0,1.0,part_1,,,,,,,,,,,,,cyan,I
200.0,3.0,3.0,0.0,2.0,2.0,285.6166029996529,3.0,1.0,part_1,,,,,,,,,,,,,orange,diamond
412.0,8.0,4.0,1.0,3.0,3.0,355.8988249997128,3.0,1.0,part_1,,,,,,,,,,,,,gray,triangle
180.0,3.0,3.0,0.0,1.0,1.0,253.8384770000448,3.0,1.0,part_1,,,,,,,,,,,,,orange,diamond
0.0,7.0,0.0,1.0,4.0,4.0,440.9071569998559,3.0,1.0,part_1,,,,,,,,,,,,,yellow,hexagon
100.0,2.0,2.0,0.0,4.0,4.0,385.0016250003136,3.0,1.0,part_1,,,,,,,,,,,,,blue,square
0.0,7.0,0.0,1.0,4.0,4.0,415.1181450001786,3.0,1.0,part_1,,,,,,,,,,,,,yellow,hexagon
88.0,6.0,2.0,1.0,1.0,1.0,306.8517520000569,3.0,1.0,part_1,,,,,,,,,,,,,cyan,I
98.0,6.0,2.0,1.0,3.0,3.0,287.9879379997874,3.0,1.0,part_1,,,,,,,,,,,,,cyan,I
73.0,1.0,1.0,0.0,1.0,1.0,267.3886560000937,3.0,1.0,part_1,,,,,,,,,,,,,magenta,flipped triangle
412.0,4.0,4.0,0.0,3.0,3.0,322.8510940002707,3.0,1.0,part_1,,,,,,,,,,,,,white,cross
180.0,7.0,3.0,1.0,3.0,3.0,320.1001249999535,3.0,1.0,part_1,,,,,,,,,,,,,yellow,hexagon
0.0,1.0,0.0,0.0,2.0,2.0,308.3455369996954,3.0,1.0,part_1,,,,,,,,,,,,,magenta,flipped triangle
383.0,4.0,4.0,0.0,3.0,3.0,428.0935229999159,3.0,1.0,part_1,,,,,,,,,,,,,white,cross
381.0,8.0,4.0,1.0,3.0,3.0,307.7578889997312,3.0,1.0,part_1,,,,,,,,,,,,,gray,triangle
177.0,3.0,3.0,0.0,4.0,4.0,291.749573999823,3.0,1.0,part_1,,,,,,,,,,,,,orange,diamond
48.0,5.0,1.0,1.0,2.0,2.0,324.5701169998938,3.0,1.0,part_1,,,,,,,,,,,,,green,circle
68.0,5.0,1.0,1.0,2.0,2.0,287.5796340003944,3.0,1.0,part_1,,,,,,,,,,,,,green,circle
387.0,4.0,4.0,0.0,4.0,4.0,307.9207350001525,3.0,1.0,part_1,,,,,,,,,,,,,white,cross
0.0,4.0,0.0,0.0,4.0,4.0,381.3600969997424,3.0,1.0,part_1,,,,,,,,,,,,,white,cross
95.0,2.0,2.0,0.0,3.0,3.0,318.2351430000381,3.0,1.0,part_1,,,,,,,,,,,,,blue,square
121.0,6.0,2.0,1.0,4.0,4.0,398.7747109999873,3.0,1.0,part_1,,,,,,,,,,,,,cyan,I
0.0,7.0,0.0,1.0,4.0,4.0,322.6770950000173,3.0,1.0,part_1,,,,,,,,,,,,,yellow,hexagon
222.0,3.0,3.0,0.0,3.0,3.0,318.4315769999557,3.0,1.0,part_1,,,,,,,,,,,,,orange,diamond
117.0,2.0,2.0,0.0,3.0,3.0,300.7373609998467,3.0,1.0,part_1,,,,,,,,,,,,,blue,square
0.0,2.0,0.0,0.0,2.0,2.0,321.8148559999463,3.0,1.0,part_1,,,,,,,,,,,,,blue,square
110.0,6.0,2.0,1.0,1.0,1.0,302.7296850000311,3.0,1.0,part_1,,,,,,,,,,,,,cyan,I
176.0,7.0,3.0,1.0,4.0,4.0,326.7278719999922,3.0,1.0,part_1,,,,,,,,,,,,,yellow,hexagon
0.0,1.0,0.0,0.0,4.0,4.0,436.0656260000723,3.0,1.0,part_1,,,,,,,,,,,,,magenta,flipped triangle
38.0,1.0,1.0,0.0,2.0,2.0,421.8660449996605,3.0,1.0,part_1,,,,,,,,,,,,,magenta,flipped triangle
32.0,1.0,1.0,0.0,4.0,4.0,321.1921910001365,3.0,1.0,part_1,,,,,,,,,,,,,magenta,flipped triangle
32.0,1.0,1.0,0.0,2.0,2.0,333.3354069995948,3.0,1.0,part_1,,,,,,,,,,,,,magenta,flipped triangle
0.0,5.0,0.0,1.0,2.0,2.0,362.6853349996963,3.0,1.0,part_1,,,,,,,,,,,,,green,circle
208.0,3.0,3.0,0.0,3.0,3.0,265.4092090001541,3.0,1.0,part_1,,,,,,,,,,,,,orange,diamond
0.0,8.0,0.0,1.0,3.0,3.0,443.0665550003141,3.0,1.0,part_1,,,,,,,,,,,,,gray,triangle
399.0,8.0,4.0,1.0,3.0,3.0,351.8000829999437,3.0,1.0,part_1,,,,,,,,,,,,,gray,triangle
211.0,7.0,3.0,1.0,1.0,1.0,296.0948639997696,3.0,1.0,part_1,,,,,,,,,,,,,yellow,hexagon
384.0,8.0,4.0,1.0,4.0,4.0,337.7365559999816,3.0,1.0,part_1,,,,,,,,,,,,,gray,triangle
85.0,6.0,2.0,1.0,4.0,4.0,341.1604109996915,3.0,1.0,part_1,,,,,,,,,,,,,cyan,I
393.0,4.0,4.0,0.0,4.0,4.0,315.7594020003671,3.0,1.0,part_1,,,,,,,,,,,,,white,cross
207.0,7.0,3.0,1.0,3.0,3.0,332.2042639997562,3.0,1.0,part_1,,,,,,,,,,,,,yellow,hexagon
199.0,3.0,3.0,0.0,3.0,3.0,287.2819290000734,3.0,1.0,part_1,,,,,,,,,,,,,orange,diamond
403.0,8.0,4.0,1.0,4.0,4.0,314.3907049998233,3.0,1.0,part_1,,,,,,,,,,,,,gray,triangle
54.0,1.0,1.0,0.0,3.0,3.0,326.8849309997677,3.0,1.0,part_1,,,,,,,,,,,,,magenta,flipped triangle
98.0,2.0,2.0,0.0,2.0,2.0,264.9650389998896,3.0,1.0,part_1,,,,,,,,,,,,,blue,square
92.0,6.0,2.0,1.0,3.0,3.0,485.7037540000419,3.0,1.0,part_1,,,,,,,,,,,,,cyan,I
29.0,5.0,1.0,1.0,4.0,4.0,327.7896230001715,3.0,1.0,part_1,,,,,,,,,,,,,green,circle
69.0,5.0,1.0,1.0,4.0,4.0,381.8530670000655,3.0,1.0,part_1,,,,,,,,,,,,,green,circle
199.0,7.0,3.0,1.0,2.0,2.0,303.5439529999166,3.0,1.0,part_1,,,,,,,,,,,,,yellow,hexagon
32.0,5.0,1.0,1.0,2.0,2.0,304.4733920000908,3.0,1.0,part_1,,,,,,,,,,,,,green,circle
104.0,6.0,2.0,1.0,1.0,1.0,310.3655730001264,3.0,1.0,part_1,,,,,,,,,,,,,cyan,I
120.0,2.0,2.0,0.0,2.0,2.0,250.8992990001388,3.0,1.0,part_1,,,,,,,,,,,,,blue,square
199.0,3.0,3.0,0.0,4.0,4.0,304.8972349997711,3.0,1.0,part_1,,,,,,,,,,,,,orange,diamond
207.0,3.0,3.0,0.0,1.0,1.0,244.6270739997089,3.0,1.0,part_1,,,,,,,,,,,,,orange,diamond
116.0,2.0,2.0,0.0,4.0,4.0,281.8273960001534,3.0,1.0,part_1,,,,,,,,,,,,,blue,square
413.0,4.0,4.0,0.0,3.0,3.0,352.4107640000693,3.0,1.0,part_1,,,,,,,,,,,,,white,cross
0.0,5.0,0.0,1.0,2.0,2.0,263.6670599999888,3.0,1.0,part_1,,,,,,,,,,,,,green,circle
0.0,2.0,0.0,0.0,4.0,4.0,266.7198350000035,3.0,1.0,part_1,,,,,,,,,,,,,blue,square
212.0,7.0,3.0,1.0,4.0,4.0,330.3568460000861,3.0,1.0,part_1,,,,,,,,,,,,,yellow,hexagon
81.0,2.0,2.0,0.0,2.0,2.0,312.7904569996644,3.0,1.0,part_1,,,,,,,,,,,,,blue,square
0.0,8.0,0.0,1.0,1.0,1.0,300.3910359998372,3.0,1.0,part_1,,,,,,,,,,,,,gray,triangle
109.0,2.0,2.0,0.0,4.0,4.0,306.9615620001968,3.0,1.0,part_1,,,,,,,,,,,,,blue,square
422.0,4.0,4.0,0.0,1.0,1.0,291.1384260000886,3.0,1.0,part_1,,,,,,,,,,,,,white,cross
81.0,6.0,2.0,1.0,4.0,4.0,338.0437769997115,3.0,1.0,part_1,,,,,,,,,,,,,cyan,I
407.0,8.0,4.0,1.0,3.0,3.0,320.9804100001747,3.0,1.0,part_1,,,,,,,,,,,,,gray,triangle
76.0,6.0,2.0,1.0,3.0,3.0,364.6127769998202,3.0,1.0,part_1,,,,,,,,,,,,,cyan,I
36.0,5.0,1.0,1.0,1.0,1.0,320.083484999941,3.0,1.0,part_1,,,,,,,,,,,,,green,circle
381.0,4.0,4.0,0.0,2.0,2.0,301.1420940001699,3.0,1.0,part_1,,,,,,,,,,,,,white,cross
0.0,3.0,0.0,0.0,1.0,1.0,437.4186300001383,3.0,1.0,part_1,,,,,,,,,,,,,orange,diamond
59.0,1.0,1.0,0.0,3.0,3.0,646.2140210001053,3.0,1.0,part_1,,,,,,,,,,,,,magenta,flipped triangle
421.0,8.0,4.0,1.0,4.0,4.0,343.5024049999811,3.0,1.0,part_1,,,,,,,,,,,,,gray,triangle
0.0,3.0,0.0,0.0,4.0,4.0,450.1361600000564,3.0,1.0,part_1,,,,,,,,,,,,,orange,diamond
81.0,6.0,2.0,1.0,3.0,3.0,308.4730410000702,3.0,1.0,part_1,,,,,,,,,,,,,cyan,I
377.0,8.0,4.0,1.0,2.0,2.0,296.2352609997651,3.0,1.0,part_1,,,,,,,,,,,,,gray,triangle
68.0,5.0,1.0,1.0,4.0,4.0,323.3500350002032,3.0,1.0,part_1,,,,,,,,,,,,,green,circle
380.0,4.0,4.0,0.0,2.0,2.0,285.8801819998007,3.0,1.0,part_1,,,,,,,,,,,,,white,cross
0.0,3.0,0.0,0.0,3.0,3.0,406.151434000094,3.0,1.0,part_1,,,,,,,,,,,,,orange,diamond
222.0,7.0,3.0,1.0,3.0,3.0,340.4581320000943,3.0,1.0,part_1,,,,,,,,,,,,,yellow,hexagon
58.0,5.0,1.0,1.0,4.0,4.0,335.9241629996177,3.0,1.0,part_1,,,,,,,,,,,,,green,circle
0.0,1.0,0.0,0.0,3.0,3.0,317.3212419997071,3.0,1.0,part_1,,,,,,,,,,,,,magenta,flipped triangle
41.0,5.0,1.0,1.0,2.0,2.0,283.5697870000331,3.0,1.0,part_1,,,,,,,,,,,,,green,circle
35.0,1.0,1.0,0.0,4.0,4.0,324.419220999971,3.0,1.0,part_1,,,,,,,,,,,,,magenta,flipped triangle
198.0,7.0,3.0,1.0,4.0,4.0,307.164174999798,3.0,1.0,part_1,,,,,,,,,,,,,yellow,hexagon
84.0,6.0,2.0,1.0,2.0,2.0,347.34822099972,3.0,1.0,part_1,,,,,,,,,,,,,cyan,I
377.0,4.0,4.0,0.0,4.0,4.0,357.041647999722,3.0,1.0,part_1,,,,,,,,,,,,,white,cross
101.0,2.0,2.0,0.0,2.0,2.0,307.2465259997443,3.0,1.0,part_1,,,,,,,,,,,,,blue,square
390.0,4.0,4.0,0.0,4.0,4.0,338.3932459996686,3.0,1.0,part_1,,,,,,,,,,,,,white,cross
94.0,2.0,2.0,0.0,2.0,2.0,319.0733679998629,3.0,1.0,part_1,,,,,,,,,,,,,blue,square
29.0,5.0,1.0,1.0,2.0,2.0,278.8972729999841,3.0,1.0,part_1,,,,,,,,,,,,,green,circle
29.0,5.0,1.0,1.0,1.0,1.0,286.5915029997268,3.0,1.0,part_1,,,,,,,,,,,,,green,circle
0.0,4.0,0.0,0.0,4.0,4.0,279.2208189998746,3.0,1.0,part_1,,,,,,,,,,,,,white,cross
0.0,6.0,0.0,1.0,3.0,3.0,339.0032500001325,3.0,1.0,part_1,,,,,,,,,,,,,cyan,I
32.0,5.0,1.0,1.0,3.0,3.0,302.9190759998528,3.0,1.0,part_1,,,,,,,,,,,,,green,circle
405.0,8.0,4.0,1.0,4.0,4.0,319.661250000081,3.0,1.0,part_1,,,,,,,,,,,,,gray,triangle
176.0,3.0,3.0,0.0,2.0,2.0,267.6823879996846,3.0,1.0,part_1,,,,,,,,,,,,,orange,diamond
377.0,8.0,4.0,1.0,1.0,1.0,249.3742019996716,3.0,1.0,part_1,,,,,,,,,,,,,gray,triangle
104.0,2.0,2.0,0.0,3.0,3.0,281.7024590003711,3.0,1.0,part_1,,,,,,,,,,,,,blue,square
0.0,1.0,0.0,0.0,2.0,2.0,261.6543480003201,3.0,1.0,part_1,,,,,,,,,,,,,magenta,flipped triangle
121.0,2.0,2.0,0.0,3.0,3.0,300.2405349998298,3.0,1.0,part_1,,,,,,,,,,,,,blue,square
102.0,6.0,2.0,1.0,2.0,2.0,326.8497819999538,4.0,1.0,part_1,,,,,,,,,,,,,cyan,I
41.0,1.0,1.0,0.0,2.0,2.0,286.0483020003812,4.0,1.0,part_1,,,,,,,,,,,,,magenta,flipped triangle
398.0,8.0,4.0,1.0,4.0,4.0,354.3409709996012,4.0,1.0,part_1,,,,,,,,,,,,,gray,triangle
194.0,7.0,3.0,1.0,3.0,3.0,285.5227670002023,4.0,1.0,part_1,,,,,,,,,,,,,yellow,hexagon
224.0,3.0,3.0,0.0,2.0,2.0,303.4939230001328,4.0,1.0,part_1,,,,,,,,,,,,,orange,diamond
185.0,3.0,3.0,0.0,1.0,1.0,264.9250330000541,4.0,1.0,part_1,,,,,,,,,,,,,orange,diamond
0.0,2.0,0.0,0.0,4.0,4.0,297.7626359997884,4.0,1.0,part_1,,,,,,,,,,,,,blue,square
67.0,1.0,1.0,0.0,3.0,3.0,264.9955459996818,4.0,1.0,part_1,,,,,,,,,,,,,magenta,flipped triangle
412.0,4.0,4.0,0.0,2.0,2.0,250.45421799995887,4.0,1.0,part_1,,,,,,,,,,,,,white,cross
0.0,5.0,0.0,1.0,2.0,2.0,306.0687090001011,4.0,1.0,part_1,,,,,,,,,,,,,green,circle
198.0,3.0,3.0,0.0,4.0,4.0,332.3936310002864,4.0,1.0,part_1,,,,,,,,,,,,,orange,diamond
0.0,8.0,0.0,1.0,4.0,4.0,520.2687989999504,4.0,1.0,part_1,,,,,,,,,,,,,gray,triangle
207.0,7.0,3.0,1.0,3.0,3.0,429.9517439999363,4.0,1.0,part_1,,,,,,,,,,,,,yellow,hexagon
51.0,5.0,1.0,1.0,3.0,3.0,329.901990000053,4.0,1.0,part_1,,,,,,,,,,,,,green,circle
390.0,8.0,4.0,1.0,2.0,2.0,261.9909139998526,4.0,1.0,part_1,,,,,,,,,,,,,gray,triangle
217.0,3.0,3.0,0.0,3.0,3.0,682.8863579999052,4.0,1.0,part_1,,,,,,,,,,,,,orange,diamond
409.0,8.0,4.0,1.0,3.0,3.0,350.8474089999254,4.0,1.0,part_1,,,,,,,,,,,,,gray,triangle
177.0,7.0,3.0,1.0,4.0,4.0,298.6834799999087,4.0,1.0,part_1,,,,,,,,,,,,,yellow,hexagon
104.0,6.0,2.0,1.0,1.0,1.0,300.6128970000645,4.0,1.0,part_1,,,,,,,,,,,,,cyan,I
222.0,7.0,3.0,1.0,4.0,4.0,343.3042159999786,4.0,1.0,part_1,,,,,,,,,,,,,yellow,hexagon
118.0,2.0,2.0,0.0,4.0,4.0,271.6425799999342,4.0,1.0,part_1,,,,,,,,,,,,,blue,square
116.0,6.0,2.0,1.0,4.0,4.0,295.7582710000679,4.0,1.0,part_1,,,,,,,,,,,,,cyan,I
120.0,2.0,2.0,0.0,4.0,4.0,270.3438170001391,4.0,1.0,part_1,,,,,,,,,,,,,blue,square
0.0,7.0,0.0,1.0,4.0,4.0,288.2411779996801,4.0,1.0,part_1,,,,,,,,,,,,,yellow,hexagon
224.0,7.0,3.0,1.0,4.0,4.0,309.6614579999368,4.0,1.0,part_1,,,,,,,,,,,,,yellow,hexagon
0.0,2.0,0.0,0.0,1.0,1.0,434.0871909998895,4.0,1.0,part_1,,,,,,,,,,,,,blue,square
184.0,7.0,3.0,1.0,4.0,4.0,239.3894570000156,4.0,1.0,part_1,,,,,,,,,,,,,yellow,hexagon
0.0,3.0,0.0,0.0,4.0,4.0,267.3272000001816,4.0,1.0,part_1,,,,,,,,,,,,,orange,diamond
0.0,3.0,0.0,0.0,4.0,4.0,342.2625319999497,4.0,1.0,part_1,,,,,,,,,,,,,orange,diamond
412.0,8.0,4.0,1.0,4.0,4.0,376.6942820002441,4.0,1.0,part_1,,,,,,,,,,,,,gray,triangle
0.0,4.0,0.0,0.0,1.0,1.0,315.3892109999106,4.0,1.0,part_1,,,,,,,,,,,,,white,cross
114.0,2.0,2.0,0.0,2.0,2.0,368.9046750000671,4.0,1.0,part_1,,,,,,,,,,,,,blue,square
51.0,1.0,1.0,0.0,1.0,1.0,456.2891750001654,4.0,1.0,part_1,,,,,,,,,,,,,magenta,flipped triangle
67.0,5.0,1.0,1.0,3.0,3.0,325.5753499997809,4.0,1.0,part_1,,,,,,,,,,,,,green,circle
73.0,5.0,1.0,1.0,2.0,2.0,285.3143180000188,4.0,1.0,part_1,,,,,,,,,,,,,green,circle
100.0,6.0,2.0,1.0,1.0,1.0,277.6334489999499,4.0,1.0,part_1,,,,,,,,,,,,,cyan,I
0.0,5.0,0.0,1.0,2.0,2.0,443.2383970001865,4.0,1.0,part_1,,,,,,,,,,,,,green,circle
420.0,8.0,4.0,1.0,2.0,2.0,302.2318130001622,4.0,1.0,part_1,,,,,,,,,,,,,gray,triangle
188.0,3.0,3.0,0.0,3.0,3.0,312.841409000157,4.0,1.0,part_1,,,,,,,,,,,,,orange,diamond
35.0,5.0,1.0,1.0,3.0,3.0,357.0091689998662,4.0,1.0,part_1,,,,,,,,,,,,,green,circle
104.0,2.0,2.0,0.0,3.0,3.0,328.978257000017,4.0,1.0,part_1,,,,,,,,,,,,,blue,square
59.0,5.0,1.0,1.0,1.0,1.0,388.9017870001225,4.0,1.0,part_1,,,,,,,,,,,,,green,circle
29.0,1.0,1.0,0.0,1.0,1.0,417.7210889997695,4.0,1.0,part_1,,,,,,,,,,,,,magenta,flipped triangle
396.0,8.0,4.0,1.0,3.0,3.0,304.5892479999565,4.0,1.0,part_1,,,,,,,,,,,,,gray,triangle
185.0,7.0,3.0,1.0,1.0,1.0,341.2405999997645,4.0,1.0,part_1,,,,,,,,,,,,,yellow,hexagon
90.0,2.0,2.0,0.0,1.0,1.0,333.1611730000077,4.0,1.0,part_1,,,,,,,,,,,,,blue,square
176.0,7.0,3.0,1.0,1.0,1.0,262.80216799978,4.0,1.0,part_1,,,,,,,,,,,,,yellow,hexagon
188.0,7.0,3.0,1.0,1.0,1.0,285.3886559996681,4.0,1.0,part_1,,,,,,,,,,,,,yellow,hexagon
186.0,3.0,3.0,0.0,2.0,2.0,309.2315290000442,4.0,1.0,part_1,,,,,,,,,,,,,orange,diamond
46.0,5.0,1.0,1.0,1.0,1.0,241.1244119998628,4.0,1.0,part_1,,,,,,,,,,,,,green,circle
0.0,5.0,0.0,1.0,3.0,3.0,311.8793200001164,4.0,1.0,part_1,,,,,,,,,,,,,green,circle
74.0,1.0,1.0,0.0,3.0,3.0,496.4112129996465,4.0,1.0,part_1,,,,,,,,,,,,,magenta,flipped triangle
113.0,2.0,2.0,0.0,4.0,4.0,322.3099350002485,4.0,1.0,part_1,,,,,,,,,,,,,blue,square
194.0,3.0,3.0,0.0,1.0,1.0,336.8602770001416,4.0,1.0,part_1,,,,,,,,,,,,,orange,diamond
211.0,3.0,3.0,0.0,1.0,1.0,279.3886429999475,4.0,1.0,part_1,,,,,,,,,,,,,orange,diamond
401.0,4.0,4.0,0.0,1.0,1.0,318.1109309998646,4.0,1.0,part_1,,,,,,,,,,,,,white,cross
183.0,7.0,3.0,1.0,2.0,2.0,379.8271609998664,4.0,1.0,part_1,,,,,,,,,,,,,yellow,hexagon
415.0,8.0,4.0,1.0,1.0,1.0,306.034198999896,4.0,1.0,part_1,,,,,,,,,,,,,gray,triangle
85.0,2.0,2.0,0.0,1.0,1.0,301.4168390000122,4.0,1.0,part_1,,,,,,,,,,,,,blue,square
79.0,6.0,2.0,1.0,2.0,2.0,284.5579589998124,4.0,1.0,part_1,,,,,,,,,,,,,cyan,I
383.0,8.0,4.0,1.0,3.0,3.0,292.876901999989,4.0,1.0,part_1,,,,,,,,,,,,,gray,triangle
405.0,4.0,4.0,0.0,3.0,3.0,322.6780609998059,4.0,1.0,part_1,,,,,,,,,,,,,white,cross
200.0,7.0,3.0,1.0,2.0,2.0,315.6729689999338,4.0,1.0,part_1,,,,,,,,,,,,,yellow,hexagon
88.0,2.0,2.0,0.0,4.0,4.0,311.0968699998011,4.0,1.0,part_1,,,,,,,,,,,,,blue,square
87.0,2.0,2.0,0.0,1.0,1.0,292.6069660002213,4.0,1.0,part_1,,,,,,,,,,,,,blue,square
46.0,5.0,1.0,1.0,1.0,1.0,323.0225520001113,4.0,1.0,part_1,,,,,,,,,,,,,green,circle
0.0,6.0,0.0,1.0,2.0,2.0,341.5553290001298,4.0,1.0,part_1,,,,,,,,,,,,,cyan,I
188.0,7.0,3.0,1.0,1.0,1.0,315.1986970001417,4.0,1.0,part_1,,,,,,,,,,,,,yellow,hexagon
89.0,6.0,2.0,1.0,1.0,1.0,314.5921569998791,4.0,1.0,part_1,,,,,,,,,,,,,cyan,I
46.0,1.0,1.0,0.0,4.0,4.0,425.1308410002821,4.0,1.0,part_1,,,,,,,,,,,,,magenta,flipped triangle
188.0,3.0,3.0,0.0,2.0,2.0,337.9946289996951,4.0,1.0,part_1,,,,,,,,,,,,,orange,diamond
60.0,5.0,1.0,1.0,1.0,1.0,407.1514689999276,4.0,1.0,part_1,,,,,,,,,,,,,green,circle
57.0,1.0,1.0,0.0,2.0,2.0,416.5976230001433,4.0,1.0,part_1,,,,,,,,,,,,,magenta,flipped triangle
63.0,5.0,1.0,1.0,4.0,4.0,446.2749269996493,4.0,1.0,part_1,,,,,,,,,,,,,green,circle
415.0,8.0,4.0,1.0,1.0,1.0,317.5162169995928,4.0,1.0,part_1,,,,,,,,,,,,,gray,triangle
423.0,8.0,4.0,1.0,2.0,2.0,367.0562239999526,4.0,1.0,part_1,,,,,,,,,,,,,gray,triangle
185.0,7.0,3.0,1.0,1.0,1.0,378.2089850001284,4.0,1.0,part_1,,,,,,,,,,,,,yellow,hexagon
401.0,8.0,4.0,1.0,2.0,2.0,360.09674800016,4.0,1.0,part_1,,,,,,,,,,,,,gray,triangle
380.0,8.0,4.0,1.0,4.0,4.0,467.5443480000467,4.0,1.0,part_1,,,,,,,,,,,,,gray,triangle
90.0,6.0,2.0,1.0,4.0,4.0,455.3535509999165,4.0,1.0,part_1,,,,,,,,,,,,,cyan,I
0.0,7.0,0.0,1.0,4.0,4.0,370.0582820001727,4.0,1.0,part_1,,,,,,,,,,,,,yellow,hexagon
92.0,2.0,2.0,0.0,1.0,1.0,294.6079060002375,4.0,1.0,part_1,,,,,,,,,,,,,blue,square
183.0,3.0,3.0,0.0,3.0,3.0,275.8640500001093,4.0,1.0,part_1,,,,,,,,,,,,,orange,diamond
58.0,1.0,1.0,0.0,2.0,2.0,281.0586400000829,4.0,1.0,part_1,,,,,,,,,,,,,magenta,flipped triangle
0.0,7.0,0.0,1.0,2.0,2.0,278.7356740000177,4.0,1.0,part_1,,,,,,,,,,,,,yellow,hexagon
176.0,7.0,3.0,1.0,2.0,2.0,336.0201979999146,4.0,1.0,part_1,,,,,,,,,,,,,yellow,hexagon
424.0,8.0,4.0,1.0,2.0,2.0,291.2103230000866,4.0,1.0,part_1,,,,,,,,,,,,,gray,triangle
112.0,2.0,2.0,0.0,1.0,1.0,377.7517910002643,4.0,1.0,part_1,,,,,,,,,,,,,blue,square
46.0,1.0,1.0,0.0,2.0,2.0,308.9619779998429,4.0,1.0,part_1,,,,,,,,,,,,,magenta,flipped triangle
0.0,4.0,0.0,0.0,4.0,4.0,366.9320210001388,4.0,1.0,part_1,,,,,,,,,,,,,white,cross
0.0,4.0,0.0,0.0,2.0,2.0,285.0048450000031,4.0,1.0,part_1,,,,,,,,,,,,,white,cross
35.0,5.0,1.0,1.0,3.0,3.0,304.4547409999723,4.0,1.0,part_1,,,,,,,,,,,,,green,circle
407.0,4.0,4.0,0.0,4.0,4.0,350.2703419999307,4.0,1.0,part_1,,,,,,,,,,,,,white,cross
0.0,2.0,0.0,0.0,1.0,1.0,308.9943079999102,4.0,1.0,part_1,,,,,,,,,,,,,blue,square
120.0,6.0,2.0,1.0,4.0,4.0,367.5683569999819,4.0,1.0,part_1,,,,,,,,,,,,,cyan,I
29.0,1.0,1.0,0.0,4.0,4.0,334.9715910003397,4.0,2.0,part_1,,,,,,,,,,,,,magenta,flipped triangle
0.0,8.0,0.0,1.0,3.0,3.0,398.6273569998957,4.0,1.0,part_1,,,,,,,,,,,,,gray,triangle
32.0,1.0,1.0,0.0,2.0,2.0,333.3910050000668,4.0,1.0,part_1,,,,,,,,,,,,,magenta,flipped triangle
0.0,8.0,0.0,1.0,2.0,2.0,332.4663789999249,4.0,1.0,part_1,,,,,,,,,,,,,gray,triangle
391.0,4.0,4.0,0.0,3.0,3.0,352.9626019999341,4.0,1.0,part_1,,,,,,,,,,,,,white,cross
0.0,3.0,3.0,0.0,5.0,5.0,528.6249300002055,1.0,0.0,part_2,go,250.0,250.0,1.0,,,,,,,,,orange,diamond
0.0,6.0,2.0,1.0,6.0,6.0,310.7098590003261,1.0,0.0,part_2,go,250.0,250.0,1.0,,,,,,,,,cyan,I
0.0,5.0,1.0,1.0,5.0,5.0,579.6106310003779,1.0,0.0,part_2,stop,250.0,250.0,3.0,,,,,,,,,green,circle
0.0,1.0,1.0,0.0,6.0,6.0,641.3106099998913,1.0,0.0,part_2,go,200.0,250.0,1.0,,,,,,,,,magenta,flipped triangle
0.0,5.0,1.0,1.0,6.0,0.0,0.0,1.0,0.0,part_2,stop,200.0,250.0,4.0,,,,,,,,,green,circle
0.0,3.0,3.0,0.0,6.0,6.0,635.0010300002396,1.0,0.0,part_2,go,200.0,300.0,1.0,,,,,,,,,orange,diamond
0.0,8.0,4.0,1.0,6.0,0.0,0.0,1.0,0.0,part_2,stop,200.0,300.0,4.0,,,,,,,,,gray,triangle
0.0,3.0,3.0,0.0,6.0,6.0,683.9256790003674,1.0,0.0,part_2,go,200.0,350.0,1.0,,,,,,,,,orange,diamond
0.0,6.0,2.0,1.0,5.0,0.0,0.0,1.0,0.0,part_2,stop,200.0,350.0,4.0,,,,,,,,,cyan,I
0.0,4.0,4.0,0.0,5.0,5.0,549.0487329998359,1.0,0.0,part_2,go,250.0,350.0,1.0,,,,,,,,,white,cross
0.0,8.0,4.0,1.0,6.0,0.0,0.0,1.0,0.0,part_2,stop,250.0,350.0,4.0,,,,,,,,,gray,triangle
0.0,7.0,3.0,1.0,5.0,0.0,0.0,1.0,0.0,part_2,stop,250.0,400.0,4.0,,,,,,,,,yellow,hexagon
0.0,3.0,3.0,0.0,5.0,5.0,333.3944010000778,1.0,0.0,part_2,go,300.0,400.0,1.0,,,,,,,,,orange,diamond
0.0,4.0,4.0,0.0,6.0,6.0,279.5064960000673,1.0,0.0,part_2,go,300.0,400.0,1.0,,,,,,,,,white,cross
0.0,8.0,4.0,1.0,6.0,0.0,0.0,1.0,0.0,part_2,stop,300.0,400.0,4.0,,,,,,,,,gray,triangle
0.0,7.0,3.0,1.0,6.0,0.0,0.0,1.0,0.0,part_2,stop,300.0,450.0,4.0,,,,,,,,,yellow,hexagon
0.0,4.0,4.0,0.0,5.0,5.0,699.221530000159,1.0,0.0,part_2,go,300.0,500.0,1.0,,,,,,,,,white,cross
0.0,8.0,4.0,1.0,6.0,0.0,0.0,1.0,0.0,part_2,stop,300.0,500.0,4.0,,,,,,,,,gray,triangle
0.0,7.0,3.0,1.0,6.0,6.0,745.5511679995652,1.0,0.0,part_2,go,300.0,550.0,1.0,,,,,,,,,yellow,hexagon
0.0,7.0,3.0,1.0,5.0,0.0,0.0,1.0,0.0,part_2,stop,300.0,550.0,4.0,,,,,,,,,yellow,hexagon
0.0,5.0,1.0,1.0,5.0,0.0,0.0,1.0,0.0,part_2,stop,350.0,550.0,4.0,,,,,,,,,green,circle
0.0,4.0,4.0,0.0,5.0,5.0,743.4075010000925,1.0,0.0,part_2,go,400.0,550.0,1.0,,,,,,,,,white,cross
0.0,2.0,2.0,0.0,5.0,5.0,867.2054540002136,1.0,0.0,part_2,go,400.0,550.0,1.0,,,,,,,,,blue,square
0.0,3.0,3.0,0.0,6.0,6.0,563.7340919997769,1.0,0.0,part_2,go,400.0,550.0,1.0,,,,,,,,,orange,diamond
0.0,2.0,2.0,0.0,6.0,6.0,329.1670240000712,1.0,0.0,part_2,go,400.0,550.0,1.0,,,,,,,,,blue,square
0.0,8.0,4.0,1.0,5.0,0.0,0.0,1.0,0.0,part_2,stop,400.0,550.0,4.0,,,,,,,,,gray,triangle
0.0,3.0,3.0,0.0,6.0,6.0,754.7143500000857,1.0,0.0,part_2,go,450.0,550.0,1.0,,,,,,,,,orange,diamond
0.0,6.0,2.0,1.0,5.0,5.0,529.0983429999869,1.0,0.0,part_2,stop,450.0,550.0,3.0,,,,,,,,,cyan,I
0.0,7.0,3.0,1.0,6.0,6.0,946.3732829999572,1.0,0.0,part_2,go,400.0,550.0,1.0,,,,,,,,,yellow,hexagon
0.0,3.0,3.0,0.0,6.0,6.0,757.7920650001033,1.0,0.0,part_2,go,400.0,550.0,1.0,,,,,,,,,orange,diamond
0.0,6.0,2.0,1.0,6.0,6.0,476.3423750000584,1.0,0.0,part_2,go,400.0,550.0,1.0,,,,,,,,,cyan,I
0.0,8.0,4.0,1.0,6.0,6.0,676.7649880002864,1.0,0.0,part_2,stop,400.0,550.0,3.0,,,,,,,,,gray,triangle
0.0,3.0,3.0,0.0,6.0,6.0,753.5808620000353,1.0,0.0,part_2,go,400.0,500.0,1.0,,,,,,,,,orange,diamond
0.0,8.0,4.0,1.0,6.0,0.0,0.0,1.0,0.0,part_2,stop,400.0,500.0,4.0,,,,,,,,,gray,triangle
0.0,7.0,3.0,1.0,5.0,5.0,439.2812179999055,1.0,0.0,part_2,stop,400.0,550.0,3.0,,,,,,,,,yellow,hexagon
0.0,4.0,4.0,0.0,5.0,5.0,674.5981060003032,1.0,0.0,part_2,go,350.0,550.0,1.0,,,,,,,,,white,cross
0.0,5.0,1.0,1.0,5.0,5.0,746.8191649995788,2.0,0.0,part_2,go,350.0,550.0,1.0,,,,,,,,,green,circle
0.0,1.0,1.0,0.0,6.0,6.0,290.234516000055,2.0,0.0,part_2,go,350.0,550.0,1.0,,,,,,,,,magenta,flipped triangle
0.0,1.0,1.0,0.0,6.0,6.0,291.6140219999761,2.0,0.0,part_2,go,350.0,550.0,1.0,,,,,,,,,magenta,flipped triangle
0.0,7.0,3.0,1.0,6.0,6.0,690.8844089998638,2.0,0.0,part_2,go,350.0,550.0,1.0,,,,,,,,,yellow,hexagon
0.0,1.0,1.0,0.0,5.0,5.0,943.074635999892,2.0,0.0,part_2,go,350.0,550.0,1.0,,,,,,,,,magenta,flipped triangle
0.0,5.0,1.0,1.0,5.0,5.0,462.7875289997973,2.0,0.0,part_2,stop,350.0,550.0,3.0,,,,,,,,,green,circle
0.0,2.0,2.0,0.0,6.0,6.0,329.6331459996509,2.0,0.0,part_2,go,300.0,550.0,1.0,,,,,,,,,blue,square
0.0,1.0,1.0,0.0,6.0,6.0,610.0694090000616,2.0,0.0,part_2,go,300.0,550.0,1.0,,,,,,,,,magenta,flipped triangle
0.0,6.0,2.0,1.0,6.0,6.0,740.7418850002614,2.0,0.0,part_2,go,300.0,550.0,1.0,,,,,,,,,cyan,I
0.0,7.0,3.0,1.0,5.0,0.0,0.0,2.0,0.0,part_2,stop,300.0,550.0,4.0,,,,,,,,,yellow,hexagon
0.0,6.0,2.0,1.0,6.0,6.0,639.4469050001135,2.0,0.0,part_2,go,350.0,550.0,1.0,,,,,,,,,cyan,I
0.0,8.0,4.0,1.0,5.0,5.0,802.0929429999342,2.0,0.0,part_2,go,350.0,550.0,1.0,,,,,,,,,gray,triangle
0.0,2.0,2.0,0.0,6.0,6.0,622.505664000073,2.0,0.0,part_2,go,350.0,550.0,1.0,,,,,,,,,blue,square
0.0,5.0,1.0,1.0,5.0,5.0,619.4211469996844,2.0,0.0,part_2,go,350.0,550.0,1.0,,,,,,,,,green,circle
0.0,2.0,2.0,0.0,6.0,6.0,961.5565730000526,2.0,0.0,part_2,go,350.0,550.0,1.0,,,,,,,,,blue,square
0.0,3.0,3.0,0.0,5.0,5.0,745.8864449999965,2.0,0.0,part_2,go,350.0,550.0,1.0,,,,,,,,,orange,diamond
0.0,3.0,3.0,0.0,6.0,6.0,607.3884789998374,2.0,0.0,part_2,go,350.0,550.0,1.0,,,,,,,,,orange,diamond
0.0,6.0,2.0,1.0,5.0,5.0,536.9374279998738,2.0,0.0,part_2,stop,350.0,550.0,3.0,,,,,,,,,cyan,I
0.0,6.0,2.0,1.0,5.0,0.0,0.0,2.0,0.0,part_2,stop,300.0,550.0,4.0,,,,,,,,,cyan,I
0.0,5.0,1.0,1.0,6.0,6.0,348.6043630000495,2.0,0.0,part_2,stop,350.0,550.0,3.0,,,,,,,,,green,circle
0.0,2.0,2.0,0.0,6.0,6.0,1020.0077849999616,2.0,0.0,part_2,go,350.0,500.0,1.0,,,,,,,,,blue,square
0.0,1.0,1.0,0.0,6.0,6.0,669.5246570002382,2.0,0.0,part_2,go,350.0,500.0,1.0,,,,,,,,,magenta,flipped triangle
0.0,2.0,2.0,0.0,6.0,6.0,922.9904620001436,2.0,0.0,part_2,go,350.0,500.0,1.0,,,,,,,,,blue,square
0.0,7.0,3.0,1.0,5.0,0.0,0.0,2.0,0.0,part_2,stop,350.0,500.0,4.0,,,,,,,,,yellow,hexagon
0.0,4.0,4.0,0.0,6.0,6.0,674.323080999784,2.0,0.0,part_2,go,400.0,500.0,1.0,,,,,,,,,white,cross
0.0,5.0,1.0,1.0,6.0,0.0,0.0,2.0,0.0,part_2,stop,400.0,500.0,4.0,,,,,,,,,green,circle
0.0,1.0,1.0,0.0,5.0,5.0,616.673179999907,2.0,0.0,part_2,go,400.0,550.0,1.0,,,,,,,,,magenta,flipped triangle
0.0,7.0,3.0,1.0,5.0,0.0,0.0,2.0,0.0,part_2,stop,400.0,550.0,4.0,,,,,,,,,yellow,hexagon
0.0,8.0,4.0,1.0,6.0,6.0,953.3928939999896,2.0,0.0,part_2,go,450.0,550.0,1.0,,,,,,,,,gray,triangle
0.0,5.0,1.0,1.0,6.0,6.0,1013.0899399996451,2.0,0.0,part_2,go,450.0,550.0,1.0,,,,,,,,,green,circle
0.0,3.0,3.0,0.0,5.0,5.0,1224.6639280001546,2.0,0.0,part_2,go,450.0,550.0,1.0,,,,,,,,,orange,diamond
0.0,3.0,3.0,0.0,5.0,5.0,884.479475000262,2.0,0.0,part_2,go,450.0,550.0,1.0,,,,,,,,,orange,diamond
0.0,2.0,2.0,0.0,5.0,5.0,1143.9628200000698,2.0,0.0,part_2,go,450.0,550.0,1.0,,,,,,,,,blue,square
0.0,5.0,1.0,1.0,5.0,0.0,0.0,2.0,0.0,part_2,stop,450.0,550.0,4.0,,,,,,,,,green,circle
0.0,3.0,3.0,0.0,5.0,5.0,705.1232680000794,2.0,0.0,part_2,go,500.0,550.0,1.0,,,,,,,,,orange,diamond
0.0,1.0,1.0,0.0,5.0,5.0,722.1021789996485,2.0,0.0,part_2,go,500.0,550.0,1.0,,,,,,,,,magenta,flipped triangle
0.0,2.0,2.0,0.0,6.0,6.0,471.9261039999765,3.0,0.0,part_2,go,500.0,550.0,1.0,,,,,,,,,blue,square
0.0,7.0,3.0,1.0,5.0,5.0,386.4473789999465,3.0,0.0,part_2,stop,500.0,550.0,3.0,,,,,,,,,yellow,hexagon
0.0,6.0,2.0,1.0,6.0,6.0,306.8217479999475,3.0,0.0,part_2,go,450.0,550.0,1.0,,,,,,,,,cyan,I
0.0,4.0,4.0,0.0,5.0,5.0,562.1003880000899,3.0,0.0,part_2,go,450.0,550.0,1.0,,,,,,,,,white,cross
0.0,7.0,3.0,1.0,5.0,5.0,361.7439320000812,3.0,0.0,part_2,go,450.0,550.0,1.0,,,,,,,,,yellow,hexagon
0.0,1.0,1.0,0.0,6.0,6.0,314.5781110001735,3.0,0.0,part_2,go,450.0,550.0,1.0,,,,,,,,,magenta,flipped triangle
0.0,8.0,4.0,1.0,5.0,5.0,482.9043209997508,3.0,0.0,part_2,stop,450.0,550.0,3.0,,,,,,,,,gray,triangle
0.0,8.0,4.0,1.0,5.0,5.0,528.4652710001865,3.0,0.0,part_2,stop,400.0,550.0,3.0,,,,,,,,,gray,triangle
0.0,6.0,2.0,1.0,6.0,6.0,626.9397979999667,3.0,0.0,part_2,stop,350.0,550.0,3.0,,,,,,,,,cyan,I
0.0,3.0,3.0,0.0,6.0,6.0,776.6205450002417,3.0,0.0,part_2,go,350.0,500.0,1.0,,,,,,,,,orange,diamond
0.0,4.0,4.0,0.0,6.0,6.0,477.5638159999289,3.0,0.0,part_2,go,350.0,500.0,1.0,,,,,,,,,white,cross
0.0,8.0,4.0,1.0,6.0,6.0,751.2109409999539,3.0,0.0,part_2,stop,350.0,500.0,3.0,,,,,,,,,gray,triangle
0.0,6.0,2.0,1.0,6.0,0.0,0.0,3.0,0.0,part_2,stop,350.0,450.0,4.0,,,,,,,,,cyan,I
0.0,4.0,4.0,0.0,5.0,5.0,714.8712680000244,3.0,0.0,part_2,go,350.0,500.0,1.0,,,,,,,,,white,cross
0.0,7.0,3.0,1.0,6.0,6.0,496.1423939998894,3.0,0.0,part_2,stop,350.0,500.0,3.0,,,,,,,,,yellow,hexagon
0.0,3.0,3.0,0.0,6.0,6.0,1267.550673000187,3.0,0.0,part_2,go,350.0,450.0,1.0,,,,,,,,,orange,diamond
0.0,3.0,3.0,0.0,5.0,5.0,1175.305685999774,3.0,0.0,part_2,go,350.0,450.0,1.0,,,,,,,,,orange,diamond
0.0,7.0,3.0,1.0,6.0,0.0,0.0,3.0,0.0,part_2,stop,350.0,450.0,4.0,,,,,,,,,yellow,hexagon
0.0,8.0,4.0,1.0,6.0,0.0,0.0,3.0,0.0,part_2,stop,350.0,500.0,4.0,,,,,,,,,gray,triangle
0.0,1.0,1.0,0.0,5.0,5.0,1051.017526000123,3.0,0.0,part_2,go,350.0,550.0,1.0,,,,,,,,,magenta,flipped triangle
0.0,2.0,2.0,0.0,6.0,6.0,1161.4238269999078,3.0,0.0,part_2,go,350.0,550.0,1.0,,,,,,,,,blue,square
0.0,8.0,4.0,1.0,5.0,0.0,0.0,3.0,0.0,part_2,stop,350.0,550.0,4.0,,,,,,,,,gray,triangle
0.0,1.0,1.0,0.0,6.0,6.0,313.4286889999202,3.0,0.0,part_2,go,400.0,550.0,1.0,,,,,,,,,magenta,flipped triangle
0.0,2.0,2.0,0.0,5.0,5.0,996.3099619999412,3.0,0.0,part_2,go,400.0,550.0,1.0,,,,,,,,,blue,square
0.0,8.0,4.0,1.0,6.0,6.0,491.8289509996612,3.0,0.0,part_2,go,400.0,550.0,1.0,,,,,,,,,gray,triangle
0.0,7.0,3.0,1.0,5.0,0.0,0.0,3.0,0.0,part_2,stop,400.0,550.0,4.0,,,,,,,,,yellow,hexagon
0.0,1.0,1.0,0.0,5.0,5.0,1065.4445410000335,3.0,0.0,part_2,go,450.0,550.0,1.0,,,,,,,,,magenta,flipped triangle
0.0,6.0,2.0,1.0,6.0,6.0,842.3019729998487,3.0,0.0,part_2,go,450.0,550.0,1.0,,,,,,,,,cyan,I
0.0,5.0,1.0,1.0,5.0,5.0,300.4118519997973,3.0,0.0,part_2,stop,450.0,550.0,3.0,,,,,,,,,green,circle
0.0,2.0,2.0,0.0,5.0,5.0,915.105992000008,3.0,0.0,part_2,go,400.0,550.0,1.0,,,,,,,,,blue,square
0.0,7.0,3.0,1.0,5.0,5.0,674.7761060000812,3.0,0.0,part_2,stop,400.0,550.0,3.0,,,,,,,,,yellow,hexagon
0.0,4.0,4.0,0.0,5.0,5.0,1359.354949000135,3.0,0.0,part_2,go,350.0,550.0,1.0,,,,,,,,,white,cross
0.0,2.0,2.0,0.0,5.0,5.0,310.3721269999369,3.0,0.0,part_2,go,350.0,550.0,1.0,,,,,,,,,blue,square
0.0,7.0,3.0,1.0,6.0,6.0,363.2186039999396,3.0,0.0,part_2,go,350.0,550.0,1.0,,,,,,,,,yellow,hexagon
0.0,1.0,1.0,0.0,6.0,6.0,750.8375439997508,3.0,0.0,part_2,go,350.0,550.0,1.0,,,,,,,,,magenta,flipped triangle
0.0,4.0,4.0,0.0,5.0,5.0,491.0607150000032,3.0,0.0,part_2,go,350.0,550.0,1.0,,,,,,,,,white,cross
0.0,3.0,3.0,0.0,5.0,5.0,340.2000259998203,4.0,0.0,part_2,go,350.0,550.0,1.0,,,,,,,,,orange,diamond
0.0,3.0,3.0,0.0,5.0,5.0,278.974830000152,4.0,0.0,part_2,go,350.0,550.0,1.0,,,,,,,,,orange,diamond
0.0,7.0,3.0,1.0,6.0,6.0,586.7443629999798,4.0,0.0,part_2,stop,350.0,550.0,3.0,,,,,,,,,yellow,hexagon
0.0,6.0,2.0,1.0,5.0,5.0,322.7070829998411,4.0,0.0,part_2,stop,350.0,500.0,3.0,,,,,,,,,cyan,I
0.0,6.0,2.0,1.0,5.0,5.0,298.4374870002284,4.0,0.0,part_2,stop,300.0,500.0,3.0,,,,,,,,,cyan,I
0.0,4.0,4.0,0.0,6.0,6.0,287.3338250001325,4.0,0.0,part_2,go,250.0,500.0,1.0,,,,,,,,,white,cross
0.0,7.0,3.0,1.0,5.0,5.0,248.5283450000679,4.0,0.0,part_2,stop,250.0,500.0,3.0,,,,,,,,,yellow,hexagon
0.0,3.0,3.0,0.0,5.0,5.0,266.8363689999751,4.0,0.0,part_2,go,200.0,500.0,1.0,,,,,,,,,orange,diamond
0.0,7.0,3.0,1.0,6.0,6.0,286.68474899996,4.0,0.0,part_2,stop,200.0,500.0,3.0,,,,,,,,,yellow,hexagon
0.0,3.0,3.0,0.0,6.0,6.0,266.8794600003821,4.0,0.0,part_2,go,200.0,450.0,1.0,,,,,,,,,orange,diamond
0.0,7.0,3.0,1.0,6.0,6.0,289.2480800001067,4.0,0.0,part_2,go,200.0,450.0,1.0,,,,,,,,,yellow,hexagon
0.0,3.0,3.0,0.0,6.0,6.0,221.5789140000197,4.0,0.0,part_2,go,200.0,450.0,1.0,,,,,,,,,orange,diamond
0.0,5.0,1.0,1.0,6.0,6.0,289.3270439999469,4.0,0.0,part_2,stop,200.0,450.0,3.0,,,,,,,,,green,circle
0.0,5.0,1.0,1.0,6.0,6.0,290.8726810001099,4.0,0.0,part_2,stop,200.0,400.0,3.0,,,,,,,,,green,circle
0.0,2.0,2.0,0.0,5.0,5.0,569.8349130002498,4.0,0.0,part_2,go,200.0,350.0,1.0,,,,,,,,,blue,square
0.0,5.0,1.0,1.0,6.0,6.0,486.1727439997594,4.0,0.0,part_2,stop,200.0,350.0,3.0,,,,,,,,,green,circle
0.0,5.0,1.0,1.0,6.0,6.0,264.2474580002272,4.0,0.0,part_2,stop,200.0,300.0,3.0,,,,,,,,,green,circle
0.0,7.0,3.0,1.0,6.0,0.0,0.0,4.0,0.0,part_2,stop,200.0,250.0,4.0,,,,,,,,,yellow,hexagon
0.0,3.0,3.0,0.0,6.0,6.0,285.3005910001229,4.0,0.0,part_2,go,200.0,300.0,1.0,,,,,,,,,orange,diamond
0.0,1.0,1.0,0.0,5.0,5.0,266.2407739999253,4.0,0.0,part_2,go,200.0,300.0,1.0,,,,,,,,,magenta,flipped triangle
0.0,3.0,3.0,0.0,5.0,5.0,418.3304929997575,4.0,0.0,part_2,go,200.0,300.0,1.0,,,,,,,,,orange,diamond
0.0,4.0,4.0,0.0,6.0,6.0,262.1852369998123,4.0,0.0,part_2,go,200.0,300.0,1.0,,,,,,,,,white,cross
0.0,3.0,3.0,0.0,6.0,6.0,272.394169999643,4.0,0.0,part_2,go,200.0,300.0,1.0,,,,,,,,,orange,diamond
0.0,6.0,2.0,1.0,5.0,5.0,237.5574759998926,4.0,0.0,part_2,stop,200.0,300.0,3.0,,,,,,,,,cyan,I
0.0,4.0,4.0,0.0,5.0,5.0,303.1688880000729,4.0,0.0,part_2,go,150.0,300.0,1.0,,,,,,,,,white,cross
0.0,2.0,2.0,0.0,5.0,5.0,284.6495160001723,4.0,0.0,part_2,go,150.0,300.0,1.0,,,,,,,,,blue,square
0.0,3.0,3.0,0.0,5.0,5.0,266.7062030000124,4.0,0.0,part_2,go,150.0,300.0,1.0,,,,,,,,,orange,diamond
0.0,3.0,3.0,0.0,6.0,6.0,258.0280140000468,4.0,0.0,part_2,go,150.0,300.0,1.0,,,,,,,,,orange,diamond
0.0,5.0,1.0,1.0,6.0,6.0,349.2749199999707,4.0,0.0,part_2,stop,150.0,300.0,3.0,,,,,,,,,green,circle
0.0,4.0,4.0,0.0,5.0,5.0,270.8657749999474,4.0,0.0,part_2,go,150.0,250.0,1.0,,,,,,,,,white,cross
0.0,2.0,2.0,0.0,6.0,6.0,273.3778880001409,4.0,0.0,part_2,go,150.0,250.0,1.0,,,,,,,,,blue,square
0.0,1.0,1.0,0.0,5.0,5.0,265.6967880002412,4.0,0.0,part_2,go,150.0,250.0,1.0,,,,,,,,,magenta,flipped triangle
0.0,1.0,1.0,0.0,5.0,5.0,285.9483360002741,4.0,0.0,part_2,go,150.0,250.0,1.0,,,,,,,,,magenta,flipped triangle
0.0,5.0,1.0,1.0,5.0,5.0,278.4695780001129,4.0,0.0,part_2,stop,150.0,250.0,3.0,,,,,,,,,green,circle
0.0,8.0,4.0,1.0,5.0,5.0,307.3152639999534,4.0,0.0,part_2,go,100.0,250.0,1.0,,,,,,,,,gray,triangle
0.0,6.0,2.0,1.0,6.0,0.0,0.0,4.0,0.0,part_2,stop,100.0,250.0,4.0,,,,,,,,,cyan,I
0.0,7.0,3.0,1.0,5.0,5.0,458.0467480000152,5.0,0.0,part_2,stop,100.0,300.0,3.0,,,,,,,,,yellow,hexagon
0.0,8.0,4.0,1.0,6.0,6.0,478.3825810000053,5.0,0.0,part_2,stop,50.0,300.0,3.0,,,,,,,,,gray,triangle
0.0,6.0,2.0,1.0,5.0,5.0,268.4051910000562,5.0,0.0,part_2,go,50.0,250.0,1.0,,,,,,,,,cyan,I
0.0,8.0,4.0,1.0,5.0,0.0,0.0,5.0,0.0,part_2,stop,50.0,250.0,4.0,,,,,,,,,gray,triangle
0.0,5.0,1.0,1.0,5.0,0.0,0.0,5.0,0.0,part_2,stop,100.0,250.0,4.0,,,,,,,,,green,circle
0.0,4.0,4.0,0.0,5.0,5.0,695.8011440001428,5.0,0.0,part_2,go,150.0,250.0,1.0,,,,,,,,,white,cross
0.0,1.0,1.0,0.0,5.0,5.0,772.5475399997777,5.0,0.0,part_2,go,150.0,250.0,1.0,,,,,,,,,magenta,flipped triangle
0.0,4.0,4.0,0.0,6.0,6.0,681.8522449998454,5.0,0.0,part_2,go,150.0,250.0,1.0,,,,,,,,,white,cross
0.0,8.0,4.0,1.0,6.0,0.0,0.0,5.0,0.0,part_2,stop,150.0,250.0,4.0,,,,,,,,,gray,triangle
0.0,2.0,2.0,0.0,5.0,5.0,846.0878619998766,5.0,0.0,part_2,go,150.0,300.0,1.0,,,,,,,,,blue,square
0.0,7.0,3.0,1.0,5.0,0.0,0.0,5.0,0.0,part_2,stop,150.0,300.0,4.0,,,,,,,,,yellow,hexagon
0.0,7.0,3.0,1.0,5.0,0.0,0.0,5.0,0.0,part_2,stop,200.0,300.0,4.0,,,,,,,,,yellow,hexagon
0.0,4.0,4.0,0.0,6.0,6.0,672.012241000175,5.0,0.0,part_2,go,250.0,300.0,1.0,,,,,,,,,white,cross
0.0,4.0,4.0,0.0,5.0,5.0,759.7152670000469,5.0,0.0,part_2,go,250.0,300.0,1.0,,,,,,,,,white,cross
0.0,4.0,4.0,0.0,6.0,6.0,277.4246219996712,5.0,0.0,part_2,go,250.0,300.0,1.0,,,,,,,,,white,cross
0.0,3.0,3.0,0.0,6.0,6.0,975.0932900001316,5.0,0.0,part_2,go,250.0,300.0,1.0,,,,,,,,,orange,diamond
0.0,5.0,1.0,1.0,6.0,6.0,746.3802259999284,5.0,0.0,part_2,go,250.0,300.0,1.0,,,,,,,,,green,circle
0.0,6.0,2.0,1.0,6.0,0.0,0.0,5.0,0.0,part_2,stop,250.0,300.0,4.0,,,,,,,,,cyan,I
0.0,5.0,1.0,1.0,6.0,0.0,0.0,5.0,0.0,part_2,stop,250.0,350.0,4.0,,,,,,,,,green,circle
0.0,1.0,1.0,0.0,6.0,6.0,1169.1194260001794,5.0,0.0,part_2,go,250.0,400.0,1.0,,,,,,,,,magenta,flipped triangle
0.0,2.0,2.0,0.0,5.0,5.0,782.2478779999074,5.0,0.0,part_2,go,250.0,400.0,1.0,,,,,,,,,blue,square
0.0,1.0,1.0,0.0,6.0,6.0,1099.8153059999822,5.0,0.0,part_2,go,250.0,400.0,1.0,,,,,,,,,magenta,flipped triangle
0.0,3.0,3.0,0.0,5.0,5.0,295.2071589998013,5.0,0.0,part_2,go,250.0,400.0,1.0,,,,,,,,,orange,diamond
0.0,7.0,3.0,1.0,6.0,6.0,332.5424479999128,5.0,0.0,part_2,stop,250.0,400.0,3.0,,,,,,,,,yellow,hexagon
0.0,4.0,4.0,0.0,6.0,6.0,632.5098949996573,5.0,0.0,part_2,go,250.0,350.0,1.0,,,,,,,,,white,cross
0.0,7.0,3.0,1.0,5.0,0.0,0.0,5.0,0.0,part_2,stop,250.0,350.0,4.0,,,,,,,,,yellow,hexagon
0.0,8.0,4.0,1.0,6.0,0.0,0.0,5.0,0.0,part_2,stop,300.0,350.0,4.0,,,,,,,,,gray,triangle
0.0,1.0,1.0,0.0,6.0,6.0,551.6191340002479,5.0,0.0,part_2,go,300.0,400.0,1.0,,,,,,,,,magenta,flipped triangle
0.0,8.0,4.0,1.0,5.0,5.0,341.536539000117,5.0,0.0,part_2,stop,300.0,400.0,3.0,,,,,,,,,gray,triangle
0.0,7.0,3.0,1.0,6.0,0.0,0.0,5.0,0.0,part_2,stop,250.0,400.0,4.0,,,,,,,,,yellow,hexagon
0.0,4.0,4.0,0.0,6.0,6.0,377.7699869997377,5.0,0.0,part_2,go,250.0,450.0,1.0,,,,,,,,,white,cross
0.0,1.0,1.0,0.0,5.0,5.0,933.9396119999036,5.0,0.0,part_2,go,250.0,450.0,1.0,,,,,,,,,magenta,flipped triangle
0.0,1.0,1.0,0.0,5.0,5.0,641.6928660000849,5.0,0.0,part_2,go,250.0,450.0,1.0,,,,,,,,,magenta,flipped triangle
0.0,1.0,1.0,0.0,6.0,6.0,255.2808659997936,5.0,0.0,part_2,go,250.0,450.0,1.0,,,,,,,,,magenta,flipped triangle
0.0,6.0,2.0,1.0,5.0,5.0,392.8686369999923,5.0,0.0,part_2,stop,250.0,450.0,3.0,,,,,,,,,cyan,I
0.0,5.0,1.0,1.0,5.0,5.0,548.9200470001379,5.0,0.0,part_2,go,200.0,450.0,1.0,,,,,,,,,green,circle
0.0,8.0,4.0,1.0,6.0,6.0,584.5808670001134,6.0,0.0,part_2,go,200.0,450.0,1.0,,,,,,,,,gray,triangle
0.0,8.0,4.0,1.0,5.0,5.0,271.0109619997638,6.0,0.0,part_2,stop,200.0,450.0,3.0,,,,,,,,,gray,triangle
0.0,5.0,1.0,1.0,5.0,1.0,348.1313559996124,6.0,0.0,part_2,go,150.0,450.0,2.0,,,,,,,,,green,circle
0.0,4.0,4.0,0.0,6.0,6.0,263.5865580000427,6.0,0.0,part_2,go,150.0,450.0,1.0,,,,,,,,,white,cross
0.0,2.0,2.0,0.0,5.0,5.0,281.3927040001545,6.0,0.0,part_2,go,150.0,450.0,1.0,,,,,,,,,blue,square
0.0,1.0,1.0,0.0,6.0,6.0,585.5579170001874,6.0,0.0,part_2,go,150.0,450.0,1.0,,,,,,,,,magenta,flipped triangle
0.0,4.0,4.0,0.0,6.0,6.0,297.3062169999139,6.0,0.0,part_2,go,150.0,450.0,1.0,,,,,,,,,white,cross
0.0,5.0,1.0,1.0,6.0,6.0,675.3068530001656,6.0,0.0,part_2,stop,150.0,450.0,3.0,,,,,,,,,green,circle
0.0,2.0,2.0,0.0,5.0,5.0,674.8083900001802,6.0,0.0,part_2,go,150.0,400.0,1.0,,,,,,,,,blue,square
0.0,2.0,2.0,0.0,5.0,5.0,293.097638999825,6.0,0.0,part_2,go,150.0,400.0,1.0,,,,,,,,,blue,square
0.0,8.0,4.0,1.0,5.0,0.0,0.0,6.0,0.0,part_2,stop,150.0,400.0,4.0,,,,,,,,,gray,triangle
0.0,5.0,1.0,1.0,5.0,5.0,759.5429009998043,6.0,0.0,part_2,go,200.0,400.0,1.0,,,,,,,,,green,circle
0.0,4.0,4.0,0.0,6.0,6.0,277.1759059996839,6.0,0.0,part_2,go,200.0,400.0,1.0,,,,,,,,,white,cross
0.0,5.0,1.0,1.0,6.0,6.0,537.304008999854,6.0,0.0,part_2,stop,200.0,400.0,3.0,,,,,,,,,green,circle
0.0,1.0,1.0,0.0,6.0,6.0,513.8907499999732,6.0,0.0,part_2,go,200.0,350.0,1.0,,,,,,,,,magenta,flipped triangle
0.0,1.0,1.0,0.0,5.0,5.0,292.8496899999118,6.0,0.0,part_2,go,200.0,350.0,1.0,,,,,,,,,magenta,flipped triangle
0.0,5.0,1.0,1.0,6.0,6.0,474.1518220002945,6.0,0.0,part_2,stop,200.0,350.0,3.0,,,,,,,,,green,circle
0.0,2.0,2.0,0.0,6.0,6.0,709.9601879999682,6.0,0.0,part_2,go,200.0,300.0,1.0,,,,,,,,,blue,square
0.0,5.0,1.0,1.0,6.0,6.0,292.590483999902,6.0,0.0,part_2,stop,200.0,300.0,3.0,,,,,,,,,green,circle
0.0,5.0,1.0,1.0,6.0,0.0,0.0,6.0,0.0,part_2,stop,200.0,250.0,4.0,,,,,,,,,green,circle
0.0,1.0,1.0,0.0,5.0,5.0,396.5750560000742,6.0,0.0,part_2,go,200.0,300.0,1.0,,,,,,,,,magenta,flipped triangle
0.0,4.0,4.0,0.0,5.0,5.0,558.2209469998816,6.0,0.0,part_2,go,200.0,300.0,1.0,,,,,,,,,white,cross
0.0,2.0,2.0,0.0,5.0,5.0,453.3643239997218,6.0,0.0,part_2,go,200.0,300.0,1.0,,,,,,,,,blue,square
0.0,8.0,4.0,1.0,6.0,0.0,0.0,6.0,0.0,part_2,stop,200.0,300.0,4.0,,,,,,,,,gray,triangle
0.0,1.0,1.0,0.0,6.0,6.0,601.0031620003247,6.0,0.0,part_2,go,200.0,350.0,1.0,,,,,,,,,magenta,flipped triangle
0.0,3.0,3.0,0.0,5.0,5.0,324.2126000000098,6.0,0.0,part_2,go,200.0,350.0,1.0,,,,,,,,,orange,diamond
0.0,3.0,3.0,0.0,6.0,6.0,615.6805330001589,6.0,0.0,part_2,go,200.0,350.0,1.0,,,,,,,,,orange,diamond
0.0,6.0,2.0,1.0,6.0,6.0,584.3592470000658,6.0,0.0,part_2,stop,200.0,350.0,3.0,,,,,,,,,cyan,I
0.0,2.0,2.0,0.0,5.0,5.0,628.5507490001692,6.0,0.0,part_2,go,200.0,300.0,1.0,,,,,,,,,blue,square
0.0,8.0,4.0,1.0,5.0,5.0,604.1610940001192,6.0,0.0,part_2,go,200.0,300.0,1.0,,,,,,,,,gray,triangle
0.0,8.0,4.0,1.0,5.0,5.0,340.9611370002494,6.0,0.0,part_2,stop,200.0,300.0,3.0,,,,,,,,,gray,triangle
0.0,5.0,1.0,1.0,5.0,5.0,302.730449000137,6.0,0.0,part_2,stop,150.0,300.0,3.0,,,,,,,,,green,circle
0.0,2.0,2.0,0.0,5.0,5.0,713.2407419999254,6.0,0.0,part_2,go,100.0,300.0,1.0,,,,,,,,,blue,square
0.0,6.0,2.0,1.0,6.0,6.0,482.4274080001487,6.0,0.0,part_2,stop,100.0,300.0,3.0,,,,,,,,,cyan,I
0.0,4.0,4.0,0.0,6.0,6.0,748.5328439997829,6.0,0.0,part_2,go,100.0,250.0,1.0,,,,,,,,,white,cross
0.0,2.0,2.0,0.0,6.0,6.0,606.0123419997581,6.0,0.0,part_2,go,100.0,250.0,1.0,,,,,,,,,blue,square
0.0,5.0,1.0,1.0,5.0,0.0,0.0,7.0,0.0,part_2,stop,100.0,250.0,4.0,,,,,,,,,green,circle
0.0,5.0,1.0,1.0,6.0,6.0,310.8606309997412,7.0,0.0,part_2,stop,150.0,250.0,3.0,,,,,,,,,green,circle
0.0,8.0,4.0,1.0,6.0,0.0,0.0,7.0,0.0,part_2,stop,150.0,200.0,4.0,,,,,,,,,gray,triangle
0.0,6.0,2.0,1.0,5.0,5.0,425.9678409998741,7.0,0.0,part_2,go,150.0,250.0,1.0,,,,,,,,,cyan,I
0.0,1.0,1.0,0.0,5.0,5.0,673.6247339995316,7.0,0.0,part_2,go,150.0,250.0,1.0,,,,,,,,,magenta,flipped triangle
0.0,8.0,4.0,1.0,5.0,5.0,315.0757579996934,7.0,0.0,part_2,stop,150.0,250.0,3.0,,,,,,,,,gray,triangle
0.0,3.0,3.0,0.0,5.0,5.0,458.6188619996392,7.0,0.0,part_2,go,100.0,250.0,1.0,,,,,,,,,orange,diamond
0.0,6.0,2.0,1.0,5.0,5.0,405.2372369997101,7.0,0.0,part_2,stop,100.0,250.0,3.0,,,,,,,,,cyan,I
0.0,7.0,3.0,1.0,6.0,6.0,300.2747169994109,7.0,0.0,part_2,stop,50.0,250.0,3.0,,,,,,,,,yellow,hexagon
0.0,4.0,4.0,0.0,5.0,5.0,698.3518489996641,7.0,0.0,part_2,go,50.0,200.0,1.0,,,,,,,,,white,cross
0.0,2.0,2.0,0.0,6.0,6.0,407.0387470001151,7.0,0.0,part_2,go,50.0,200.0,1.0,,,,,,,,,blue,square
0.0,6.0,2.0,1.0,5.0,5.0,301.73413600005,7.0,0.0,part_2,stop,50.0,200.0,3.0,,,,,,,,,cyan,I
0.0,6.0,2.0,1.0,6.0,0.0,0.0,7.0,0.0,part_2,stop,0.0,200.0,4.0,,,,,,,,,cyan,I
0.0,7.0,3.0,1.0,5.0,0.0,0.0,7.0,0.0,part_2,stop,0.0,250.0,4.0,,,,,,,,,yellow,hexagon
0.0,2.0,2.0,0.0,6.0,6.0,460.6618309999248,7.0,0.0,part_2,go,50.0,250.0,1.0,,,,,,,,,blue,square
0.0,5.0,1.0,1.0,5.0,0.0,0.0,7.0,0.0,part_2,stop,50.0,250.0,4.0,,,,,,,,,green,circle
0.0,4.0,4.0,0.0,6.0,6.0,479.6214240004701,7.0,0.0,part_2,go,100.0,250.0,1.0,,,,,,,,,white,cross
0.0,8.0,4.0,1.0,5.0,5.0,503.1313909994424,7.0,0.0,part_2,go,100.0,250.0,1.0,,,,,,,,,gray,triangle
0.0,4.0,4.0,0.0,5.0,5.0,535.5235759998322,7.0,0.0,part_2,go,100.0,250.0,1.0,,,,,,,,,white,cross
0.0,2.0,2.0,0.0,6.0,6.0,270.909596999445,7.0,0.0,part_2,go,100.0,250.0,1.0,,,,,,,,,blue,square
0.0,4.0,4.0,0.0,6.0,6.0,323.9813599993795,7.0,0.0,part_2,go,100.0,250.0,1.0,,,,,,,,,white,cross
0.0,6.0,2.0,1.0,6.0,6.0,358.5334549998151,7.0,0.0,part_2,stop,100.0,250.0,3.0,,,,,,,,,cyan,I
0.0,8.0,4.0,1.0,5.0,5.0,299.415620000218,7.0,0.0,part_2,stop,100.0,200.0,3.0,,,,,,,,,gray,triangle
0.0,4.0,4.0,0.0,5.0,5.0,313.0391539998527,7.0,0.0,part_2,go,50.0,200.0,1.0,,,,,,,,,white,cross
0.0,5.0,1.0,1.0,5.0,5.0,324.6742609999273,7.0,0.0,part_2,stop,50.0,200.0,3.0,,,,,,,,,green,circle
0.0,6.0,2.0,1.0,5.0,0.0,0.0,7.0,0.0,part_2,stop,0.0,200.0,4.0,,,,,,,,,cyan,I
0.0,3.0,3.0,0.0,5.0,5.0,712.5860420001118,7.0,0.0,part_2,go,50.0,200.0,1.0,,,,,,,,,orange,diamond
0.0,7.0,3.0,1.0,6.0,6.0,304.2422979997354,7.0,0.0,part_2,stop,50.0,200.0,3.0,,,,,,,,,yellow,hexagon
0.0,1.0,1.0,0.0,6.0,6.0,671.4494169991667,7.0,0.0,part_2,go,50.0,150.0,1.0,,,,,,,,,magenta,flipped triangle
0.0,8.0,4.0,1.0,5.0,5.0,945.341527999517,7.0,0.0,part_2,go,50.0,150.0,1.0,,,,,,,,,gray,triangle
0.0,4.0,4.0,0.0,5.0,5.0,1209.7396019998996,7.0,0.0,part_2,go,50.0,150.0,1.0,,,,,,,,,white,cross
0.0,5.0,1.0,1.0,6.0,6.0,549.5642079995378,7.0,0.0,part_2,go,50.0,150.0,1.0,,,,,,,,,green,circle
0.0,6.0,2.0,1.0,5.0,0.0,0.0,7.0,0.0,part_2,stop,50.0,150.0,4.0,,,,,,,,,cyan,I
0.0,6.0,2.0,1.0,5.0,0.0,0.0,7.0,0.0,part_2,stop,100.0,150.0,4.0,,,,,,,,,cyan,I
0.0,8.0,4.0,1.0,5.0,0.0,0.0,7.0,0.0,part_2,stop,150.0,150.0,4.0,,,,,,,,,gray,triangle
0.0,1.0,1.0,0.0,5.0,5.0,317.5481799999033,7.0,0.0,part_2,go,200.0,150.0,1.0,,,,,,,,,magenta,flipped triangle
0.0,7.0,3.0,1.0,6.0,6.0,493.2178100007149,8.0,0.0,part_2,go,200.0,150.0,1.0,,,,,,,,,yellow,hexagon
0.0,6.0,2.0,1.0,6.0,6.0,284.1533040000286,8.0,0.0,part_2,stop,200.0,150.0,3.0,,,,,,,,,cyan,I
0.0,8.0,4.0,1.0,6.0,6.0,271.8122249998487,8.0,0.0,part_2,stop,200.0,100.0,3.0,,,,,,,,,gray,triangle
0.0,2.0,2.0,0.0,6.0,6.0,709.9048370000673,8.0,0.0,part_2,go,200.0,50.0,1.0,,,,,,,,,blue,square
0.0,7.0,3.0,1.0,5.0,5.0,362.5668129998303,8.0,0.0,part_2,go,200.0,50.0,1.0,,,,,,,,,yellow,hexagon
0.0,1.0,1.0,0.0,5.0,5.0,561.4769009998781,8.0,0.0,part_2,go,200.0,50.0,1.0,,,,,,,,,magenta,flipped triangle
0.0,1.0,1.0,0.0,6.0,6.0,379.886978000286,8.0,0.0,part_2,go,200.0,50.0,1.0,,,,,,,,,magenta,flipped triangle
0.0,3.0,3.0,0.0,5.0,5.0,346.0974529998566,8.0,0.0,part_2,go,200.0,50.0,1.0,,,,,,,,,orange,diamond
0.0,8.0,4.0,1.0,6.0,0.0,0.0,8.0,0.0,part_2,stop,200.0,50.0,4.0,,,,,,,,,gray,triangle
0.0,5.0,1.0,1.0,5.0,0.0,0.0,8.0,0.0,part_2,stop,200.0,100.0,4.0,,,,,,,,,green,circle
0.0,6.0,2.0,1.0,5.0,0.0,0.0,8.0,0.0,part_2,stop,250.0,100.0,4.0,,,,,,,,,cyan,I
0.0,3.0,3.0,0.0,6.0,6.0,494.9893530001645,8.0,0.0,part_2,go,300.0,100.0,1.0,,,,,,,,,orange,diamond
0.0,1.0,1.0,0.0,6.0,6.0,503.3310579992758,8.0,0.0,part_2,go,300.0,100.0,1.0,,,,,,,,,magenta,flipped triangle
0.0,6.0,2.0,1.0,6.0,0.0,0.0,8.0,0.0,part_2,stop,300.0,100.0,4.0,,,,,,,,,cyan,I
0.0,6.0,2.0,1.0,6.0,0.0,0.0,8.0,0.0,part_2,stop,300.0,150.0,4.0,,,,,,,,,cyan,I
0.0,6.0,2.0,1.0,5.0,0.0,0.0,8.0,0.0,part_2,stop,300.0,200.0,4.0,,,,,,,,,cyan,I
0.0,4.0,4.0,0.0,6.0,6.0,316.8138290002389,8.0,0.0,part_2,go,350.0,200.0,1.0,,,,,,,,,white,cross
0.0,7.0,3.0,1.0,6.0,6.0,720.9735879996515,8.0,0.0,part_2,go,350.0,200.0,1.0,,,,,,,,,yellow,hexagon
0.0,2.0,2.0,0.0,6.0,6.0,484.7117139997863,8.0,0.0,part_2,go,350.0,200.0,1.0,,,,,,,,,blue,square
0.0,6.0,2.0,1.0,6.0,0.0,0.0,8.0,0.0,part_2,stop,350.0,200.0,4.0,,,,,,,,,cyan,I
0.0,7.0,3.0,1.0,5.0,0.0,0.0,8.0,0.0,part_2,stop,350.0,250.0,4.0,,,,,,,,,yellow,hexagon
0.0,2.0,2.0,0.0,5.0,5.0,721.5088209995884,8.0,0.0,part_2,go,400.0,250.0,1.0,,,,,,,,,blue,square
0.0,2.0,2.0,0.0,6.0,6.0,313.8834850005878,8.0,0.0,part_2,go,400.0,250.0,1.0,,,,,,,,,blue,square
0.0,3.0,3.0,0.0,6.0,6.0,275.9016859999974,8.0,0.0,part_2,go,400.0,250.0,1.0,,,,,,,,,orange,diamond
0.0,2.0,2.0,0.0,6.0,6.0,553.1438590005564,8.0,0.0,part_2,go,400.0,250.0,1.0,,,,,,,,,blue,square
0.0,3.0,3.0,0.0,5.0,5.0,390.200896999886,8.0,0.0,part_2,go,400.0,250.0,1.0,,,,,,,,,orange,diamond
0.0,7.0,3.0,1.0,6.0,6.0,320.0898180002696,8.0,0.0,part_2,stop,400.0,250.0,3.0,,,,,,,,,yellow,hexagon
0.0,2.0,2.0,0.0,5.0,5.0,655.162814000505,8.0,0.0,part_2,go,400.0,200.0,1.0,,,,,,,,,blue,square
0.0,4.0,4.0,0.0,6.0,6.0,604.177747999529,8.0,0.0,part_2,go,400.0,200.0,1.0,,,,,,,,,white,cross
0.0,8.0,4.0,1.0,5.0,5.0,778.1198689999655,8.0,0.0,part_2,go,400.0,200.0,1.0,,,,,,,,,gray,triangle
0.0,6.0,2.0,1.0,5.0,5.0,335.3311749997374,8.0,0.0,part_2,go,400.0,200.0,1.0,,,,,,,,,cyan,I
0.0,2.0,2.0,0.0,5.0,5.0,582.2443710003427,8.0,0.0,part_2,go,400.0,200.0,1.0,,,,,,,,,blue,square
0.0,4.0,4.0,0.0,5.0,5.0,337.6534640001409,8.0,0.0,part_2,go,400.0,200.0,1.0,,,,,,,,,white,cross
0.0,5.0,1.0,1.0,5.0,5.0,300.6358120001096,8.0,0.0,part_2,go,400.0,200.0,1.0,,,,,,,,,green,circle
0.0,1.0,1.0,0.0,5.0,5.0,286.0278230000403,8.0,0.0,part_2,go,400.0,200.0,1.0,,,,,,,,,magenta,flipped triangle
0.0,1.0,1.0,0.0,5.0,5.0,332.0263150008031,8.0,0.0,part_2,go,400.0,200.0,1.0,,,,,,,,,magenta,flipped triangle
0.0,6.0,2.0,1.0,7.0,4.0,2176.341592999961,1.0,1.0,part_3,go,0.0,0.0,0.0,102.0,3.0,68.0,34.0,170.0,102.0,204.0,136.0,cyan,I
0.0,7.0,3.0,1.0,7.0,2.0,3031.9481409997024,1.0,1.0,part_3,go,0.0,0.0,0.0,78.0,2.0,117.0,78.0,234.0,195.0,156.0,39.0,yellow,hexagon
0.0,1.0,1.0,0.0,7.0,3.0,2731.7826949993105,1.0,1.0,part_3,go,0.0,0.0,0.0,117.0,3.0,78.0,39.0,117.0,156.0,234.0,195.0,magenta,flipped triangle
0.0,7.0,3.0,1.0,7.0,4.0,2223.5974799996256,1.0,2.0,part_3,go,0.0,0.0,0.0,162.0,3.0,54.0,324.0,216.0,162.0,108.0,270.0,yellow,hexagon
0.0,8.0,4.0,1.0,7.0,3.0,3044.478968000476,1.0,1.0,part_3,go,0.0,0.0,0.0,294.0,6.0,245.0,98.0,294.0,196.0,147.0,49.0,gray,triangle
0.0,6.0,2.0,1.0,7.0,5.0,2116.9400950002455,1.0,1.0,part_3,go,0.0,0.0,0.0,216.0,4.0,162.0,324.0,54.0,270.0,216.0,108.0,cyan,I
0.0,3.0,3.0,0.0,7.0,6.0,2681.338604999837,1.0,1.0,part_3,go,0.0,0.0,0.0,170.0,5.0,136.0,34.0,68.0,204.0,102.0,170.0,orange,diamond
0.0,3.0,3.0,0.0,7.0,2.0,1795.0798760002726,1.0,1.0,part_3,go,0.0,0.0,0.0,264.0,6.0,132.0,264.0,88.0,176.0,220.0,44.0,orange,diamond
0.0,5.0,1.0,1.0,7.0,2.0,1817.9522079999515,1.0,1.0,part_3,go,0.0,0.0,0.0,156.0,4.0,78.0,156.0,117.0,234.0,39.0,195.0,green,circle
0.0,6.0,2.0,1.0,7.0,2.0,2387.76956699985,1.0,1.0,part_3,go,0.0,0.0,0.0,220.0,5.0,176.0,220.0,132.0,264.0,88.0,44.0,cyan,I
0.0,1.0,1.0,0.0,7.0,6.0,2240.6699260000096,1.0,1.0,part_3,go,0.0,0.0,0.0,156.0,4.0,195.0,78.0,39.0,234.0,117.0,156.0,magenta,flipped triangle
0.0,4.0,4.0,0.0,7.0,6.0,2392.477573999713,1.0,1.0,part_3,go,0.0,0.0,0.0,204.0,6.0,34.0,136.0,68.0,170.0,102.0,204.0,white,cross
0.0,7.0,3.0,1.0,7.0,2.0,1997.71981899994,1.0,1.0,part_3,go,0.0,0.0,0.0,34.0,1.0,102.0,34.0,170.0,68.0,136.0,204.0,yellow,hexagon
0.0,1.0,1.0,0.0,7.0,1.0,1744.185116999688,1.0,1.0,part_3,go,0.0,0.0,0.0,147.0,3.0,147.0,98.0,49.0,294.0,196.0,245.0,magenta,flipped triangle
0.0,2.0,2.0,0.0,7.0,1.0,2275.1620569997613,1.0,1.0,part_3,go,0.0,0.0,0.0,78.0,2.0,78.0,39.0,117.0,234.0,156.0,195.0,blue,square
0.0,6.0,2.0,1.0,7.0,4.0,1545.6754239994552,1.0,1.0,part_3,go,0.0,0.0,0.0,196.0,4.0,147.0,98.0,49.0,196.0,294.0,245.0,cyan,I
0.0,4.0,4.0,0.0,7.0,4.0,1740.1058929999635,1.0,1.0,part_3,go,0.0,0.0,0.0,264.0,6.0,176.0,220.0,132.0,264.0,44.0,88.0,white,cross
0.0,7.0,3.0,1.0,7.0,4.0,1435.2199420000034,1.0,1.0,part_3,go,0.0,0.0,0.0,44.0,1.0,88.0,220.0,132.0,44.0,176.0,264.0,yellow,hexagon
0.0,6.0,2.0,1.0,7.0,6.0,1390.382922999379,1.0,1.0,part_3,go,0.0,0.0,0.0,117.0,3.0,234.0,78.0,39.0,156.0,195.0,117.0,cyan,I
0.0,6.0,2.0,1.0,7.0,1.0,2075.022048000392,1.0,1.0,part_3,go,0.0,0.0,0.0,147.0,3.0,147.0,294.0,98.0,245.0,49.0,196.0,cyan,I
0.0,7.0,3.0,1.0,7.0,6.0,1645.7388039998475,2.0,1.0,part_3,go,0.0,0.0,0.0,49.0,1.0,294.0,196.0,147.0,98.0,245.0,49.0,yellow,hexagon
0.0,5.0,1.0,1.0,7.0,4.0,1658.093848000135,2.0,1.0,part_3,go,0.0,0.0,0.0,136.0,4.0,68.0,170.0,102.0,136.0,204.0,34.0,green,circle
0.0,2.0,2.0,0.0,7.0,3.0,1362.9636949999622,2.0,1.0,part_3,go,0.0,0.0,0.0,88.0,2.0,264.0,220.0,88.0,176.0,44.0,132.0,blue,square
0.0,3.0,3.0,0.0,7.0,4.0,1619.664518000718,2.0,1.0,part_3,go,0.0,0.0,0.0,176.0,4.0,44.0,220.0,264.0,176.0,132.0,88.0,orange,diamond
0.0,2.0,2.0,0.0,7.0,6.0,1542.0329150001637,2.0,1.0,part_3,go,0.0,0.0,0.0,44.0,1.0,88.0,220.0,176.0,264.0,132.0,44.0,blue,square
0.0,7.0,3.0,1.0,7.0,1.0,1480.5386560001352,2.0,1.0,part_3,go,0.0,0.0,0.0,34.0,1.0,34.0,170.0,68.0,136.0,102.0,204.0,yellow,hexagon
0.0,8.0,4.0,1.0,7.0,5.0,1620.496395000373,2.0,1.0,part_3,go,0.0,0.0,0.0,234.0,6.0,39.0,195.0,117.0,156.0,234.0,78.0,gray,triangle
0.0,5.0,1.0,1.0,7.0,3.0,1369.217468999523,2.0,1.0,part_3,go,0.0,0.0,0.0,136.0,4.0,204.0,68.0,136.0,102.0,170.0,34.0,green,circle
0.0,7.0,3.0,1.0,7.0,6.0,1162.057955999444,2.0,1.0,part_3,go,0.0,0.0,0.0,44.0,1.0,88.0,132.0,220.0,264.0,176.0,44.0,yellow,hexagon
0.0,5.0,1.0,1.0,7.0,5.0,2347.4019690002024,2.0,1.0,part_3,go,0.0,0.0,0.0,147.0,3.0,294.0,98.0,49.0,196.0,147.0,245.0,green,circle
0.0,2.0,2.0,0.0,7.0,2.0,2282.2757740004818,2.0,1.0,part_3,go,0.0,0.0,0.0,98.0,2.0,196.0,98.0,49.0,147.0,245.0,294.0,blue,square
0.0,8.0,4.0,1.0,7.0,4.0,2153.2151609999346,2.0,1.0,part_3,go,0.0,0.0,0.0,264.0,6.0,88.0,176.0,220.0,264.0,44.0,132.0,gray,triangle
0.0,1.0,1.0,0.0,7.0,2.0,2344.2364769998676,2.0,1.0,part_3,go,0.0,0.0,0.0,136.0,4.0,68.0,136.0,204.0,102.0,170.0,34.0,magenta,flipped triangle
0.0,1.0,1.0,0.0,7.0,5.0,1779.646894000507,2.0,1.0,part_3,go,0.0,0.0,0.0,176.0,4.0,44.0,220.0,132.0,88.0,176.0,264.0,magenta,flipped triangle
0.0,1.0,1.0,0.0,7.0,5.0,1829.341643000589,2.0,1.0,part_3,go,0.0,0.0,0.0,170.0,5.0,34.0,204.0,102.0,136.0,170.0,68.0,magenta,flipped triangle
0.0,6.0,2.0,1.0,7.0,1.0,2297.009505999995,2.0,1.0,part_3,go,0.0,0.0,0.0,156.0,4.0,156.0,195.0,117.0,234.0,78.0,39.0,cyan,I
0.0,3.0,3.0,0.0,7.0,1.0,3084.8973789998126,2.0,1.0,part_3,go,0.0,0.0,0.0,117.0,3.0,117.0,234.0,195.0,156.0,78.0,39.0,orange,diamond
0.0,7.0,3.0,1.0,7.0,6.0,1224.6742850002192,2.0,1.0,part_3,go,0.0,0.0,0.0,39.0,1.0,156.0,117.0,234.0,195.0,78.0,39.0,yellow,hexagon
0.0,4.0,4.0,0.0,7.0,1.0,1632.5095170004715,2.0,1.0,part_3,go,0.0,0.0,0.0,294.0,6.0,294.0,196.0,147.0,49.0,98.0,245.0,white,cross
0.0,8.0,4.0,1.0,7.0,2.0,2873.95781000032,2.0,1.0,part_3,go,0.0,0.0,0.0,264.0,6.0,132.0,264.0,44.0,220.0,176.0,88.0,gray,triangle
0.0,5.0,1.0,1.0,7.0,4.0,1472.7763549999509,3.0,1.0,part_3,go,0.0,0.0,0.0,196.0,4.0,98.0,147.0,49.0,196.0,294.0,245.0,green,circle
0.0,4.0,4.0,0.0,7.0,4.0,1546.6486859995712,3.0,1.0,part_3,go,0.0,0.0,0.0,294.0,6.0,49.0,196.0,245.0,294.0,98.0,147.0,white,cross
0.0,8.0,4.0,1.0,7.0,3.0,1671.7767939999248,3.0,1.0,part_3,go,0.0,0.0,0.0,234.0,6.0,117.0,156.0,234.0,39.0,78.0,195.0,gray,triangle
0.0,2.0,2.0,0.0,7.0,3.0,1545.2415320005457,3.0,1.0,part_3,go,0.0,0.0,0.0,98.0,2.0,245.0,147.0,98.0,196.0,49.0,294.0,blue,square
0.0,2.0,2.0,0.0,7.0,5.0,2040.0542600000335,3.0,1.0,part_3,go,0.0,0.0,0.0,54.0,1.0,216.0,108.0,162.0,270.0,54.0,324.0,blue,square
0.0,6.0,2.0,1.0,7.0,3.0,2935.9110420000434,3.0,1.0,part_3,go,0.0,0.0,0.0,162.0,3.0,108.0,54.0,162.0,324.0,216.0,270.0,cyan,I
0.0,4.0,4.0,0.0,7.0,2.0,2021.04443799999,3.0,1.0,part_3,go,0.0,0.0,0.0,270.0,5.0,162.0,270.0,324.0,216.0,108.0,54.0,white,cross
0.0,3.0,3.0,0.0,7.0,6.0,2688.647568000306,3.0,1.0,part_3,go,0.0,0.0,0.0,162.0,3.0,270.0,216.0,108.0,324.0,54.0,162.0,orange,diamond
0.0,4.0,4.0,0.0,7.0,1.0,1404.0732419998676,3.0,1.0,part_3,go,0.0,0.0,0.0,270.0,5.0,270.0,108.0,324.0,216.0,162.0,54.0,white,cross
0.0,6.0,2.0,1.0,7.0,3.0,1991.827380000359,3.0,1.0,part_3,go,0.0,0.0,0.0,136.0,4.0,170.0,102.0,136.0,204.0,68.0,34.0,cyan,I
0.0,3.0,3.0,0.0,7.0,5.0,1305.8874060006929,3.0,1.0,part_3,go,0.0,0.0,0.0,117.0,3.0,234.0,156.0,39.0,195.0,117.0,78.0,orange,diamond
0.0,8.0,4.0,1.0,7.0,4.0,1657.9061000002184,3.0,1.0,part_3,go,0.0,0.0,0.0,204.0,6.0,170.0,68.0,102.0,204.0,136.0,34.0,gray,triangle
0.0,3.0,3.0,0.0,7.0,4.0,2109.4105639995178,3.0,1.0,part_3,go,0.0,0.0,0.0,162.0,3.0,54.0,324.0,270.0,162.0,216.0,108.0,orange,diamond
0.0,1.0,1.0,0.0,7.0,5.0,2245.1768669998273,3.0,1.0,part_3,go,0.0,0.0,0.0,108.0,2.0,54.0,270.0,324.0,216.0,108.0,162.0,magenta,flipped triangle
0.0,2.0,2.0,0.0,7.0,3.0,2311.2192910002705,3.0,1.0,part_3,go,0.0,0.0,0.0,68.0,2.0,204.0,136.0,68.0,34.0,170.0,102.0,blue,square
0.0,1.0,1.0,0.0,7.0,3.0,2241.911860000073,3.0,1.0,part_3,go,0.0,0.0,0.0,132.0,3.0,44.0,220.0,132.0,88.0,176.0,264.0,magenta,flipped triangle
0.0,7.0,3.0,1.0,7.0,2.0,2080.137349999859,3.0,1.0,part_3,go,0.0,0.0,0.0,54.0,1.0,324.0,54.0,270.0,108.0,216.0,162.0,yellow,hexagon
0.0,1.0,1.0,0.0,7.0,2.0,2442.4237700004596,3.0,1.0,part_3,go,0.0,0.0,0.0,147.0,3.0,294.0,147.0,196.0,49.0,245.0,98.0,magenta,flipped triangle
0.0,2.0,2.0,0.0,7.0,5.0,1395.993534999434,3.0,1.0,part_3,go,0.0,0.0,0.0,68.0,2.0,34.0,102.0,136.0,170.0,68.0,204.0,blue,square
0.0,3.0,3.0,0.0,7.0,2.0,2849.860763999459,3.0,1.0,part_3,go,0.0,0.0,0.0,196.0,4.0,147.0,196.0,294.0,49.0,98.0,245.0,orange,diamond
0.0,8.0,4.0,1.0,7.0,5.0,2035.5005149995118,4.0,1.0,part_3,go,0.0,0.0,0.0,270.0,5.0,108.0,162.0,216.0,54.0,270.0,324.0,gray,triangle
0.0,1.0,1.0,0.0,7.0,2.0,2246.5493679992505,4.0,1.0,part_3,go,0.0,0.0,0.0,162.0,3.0,270.0,162.0,216.0,108.0,324.0,54.0,magenta,flipped triangle
0.0,8.0,4.0,1.0,7.0,4.0,1964.9606950006273,4.0,1.0,part_3,go,0.0,0.0,0.0,324.0,6.0,216.0,54.0,162.0,324.0,108.0,270.0,gray,triangle
0.0,2.0,2.0,0.0,7.0,3.0,1692.5650160001169,4.0,1.0,part_3,go,0.0,0.0,0.0,78.0,2.0,39.0,234.0,78.0,117.0,156.0,195.0,blue,square
0.0,4.0,4.0,0.0,7.0,5.0,2045.8901120000519,4.0,1.0,part_3,go,0.0,0.0,0.0,234.0,6.0,195.0,78.0,117.0,39.0,234.0,156.0,white,cross
0.0,6.0,2.0,1.0,7.0,4.0,1491.45578200023,4.0,1.0,part_3,go,0.0,0.0,0.0,132.0,3.0,264.0,176.0,88.0,132.0,44.0,220.0,cyan,I
0.0,4.0,4.0,0.0,7.0,5.0,2126.6429080005764,4.0,1.0,part_3,go,0.0,0.0,0.0,170.0,5.0,204.0,68.0,136.0,102.0,170.0,34.0,white,cross
0.0,2.0,2.0,0.0,7.0,3.0,3147.7488509999603,4.0,1.0,part_3,go,0.0,0.0,0.0,54.0,1.0,108.0,270.0,54.0,324.0,216.0,162.0,blue,square
0.0,5.0,1.0,1.0,7.0,3.0,1920.40907000046,4.0,1.0,part_3,go,0.0,0.0,0.0,162.0,3.0,270.0,108.0,162.0,324.0,216.0,54.0,green,circle
0.0,5.0,1.0,1.0,7.0,2.0,2162.944497999888,4.0,1.0,part_3,go,0.0,0.0,0.0,132.0,3.0,220.0,132.0,88.0,264.0,44.0,176.0,green,circle
0.0,5.0,1.0,1.0,7.0,2.0,2257.9797490006968,4.0,1.0,part_3,go,0.0,0.0,0.0,132.0,3.0,44.0,132.0,176.0,220.0,88.0,264.0,green,circle
0.0,4.0,4.0,0.0,7.0,4.0,1701.6571340000155,4.0,1.0,part_3,go,0.0,0.0,0.0,264.0,6.0,132.0,44.0,220.0,264.0,176.0,88.0,white,cross
0.0,7.0,3.0,1.0,7.0,1.0,2323.9220360001127,4.0,1.0,part_3,go,0.0,0.0,0.0,49.0,1.0,49.0,98.0,147.0,245.0,196.0,294.0,yellow,hexagon
0.0,8.0,4.0,1.0,7.0,5.0,1825.9883020000416,4.0,1.0,part_3,go,0.0,0.0,0.0,294.0,6.0,196.0,49.0,98.0,245.0,294.0,147.0,gray,triangle
0.0,3.0,3.0,0.0,7.0,5.0,1653.187197000079,4.0,1.0,part_3,go,0.0,0.0,0.0,170.0,5.0,34.0,68.0,136.0,204.0,170.0,102.0,orange,diamond
0.0,8.0,4.0,1.0,7.0,6.0,2497.4439010002243,4.0,1.0,part_3,go,0.0,0.0,0.0,204.0,6.0,102.0,34.0,68.0,170.0,136.0,204.0,gray,triangle
0.0,5.0,1.0,1.0,7.0,4.0,2308.3083809997333,4.0,1.0,part_3,go,0.0,0.0,0.0,162.0,3.0,54.0,108.0,216.0,162.0,324.0,270.0,green,circle
0.0,4.0,4.0,0.0,7.0,2.0,2206.2565059995904,4.0,1.0,part_3,go,0.0,0.0,0.0,234.0,6.0,39.0,234.0,78.0,195.0,156.0,117.0,white,cross
0.0,3.0,3.0,0.0,7.0,3.0,2218.76692800015,4.0,1.0,part_3,go,0.0,0.0,0.0,147.0,3.0,98.0,196.0,147.0,294.0,245.0,49.0,orange,diamond
0.0,5.0,1.0,1.0,7.0,6.0,2149.475561000145,4.0,1.0,part_3,go,0.0,0.0,0.0,156.0,4.0,39.0,117.0,234.0,78.0,195.0,156.0,green,circle
