raw_reward_magnitude,stim_reward,stepwise_reward_magnitude,paired_with_stopping,stim_location,response,reaction_time,block,num_trial_presentations,which_phase,stop_signal_trial_type,left_SSD,right_SSD,accuracy,chosen_bidding_amount,chosen_bidding_level,possible_bid_1,possible_bid_2,possible_bid_3,possible_bid_4,possible_bid_5,possible_bid_6,color_text,shape_text
400.0,4.0,4.0,0.0,3.0,3.0,331.0871150024468,1.0,1.0,phase_1,,,,,,,,,,,,,cyan,flipped triangle
27.0,5.0,1.0,1.0,2.0,2.0,273.3793189981952,1.0,1.0,phase_1,,,,,,,,,,,,,yellow,square
375.0,8.0,4.0,1.0,3.0,3.0,317.0525950008596,1.0,1.0,phase_1,,,,,,,,,,,,,blue,triangle
0.0,6.0,0.0,1.0,3.0,3.0,464.3627890000061,1.0,1.0,phase_1,,,,,,,,,,,,,magenta,I
31.0,5.0,1.0,1.0,1.0,1.0,316.2621250012307,1.0,1.0,phase_1,,,,,,,,,,,,,yellow,square
197.0,7.0,3.0,1.0,4.0,4.0,301.9388039974728,1.0,1.0,phase_1,,,,,,,,,,,,,gray,diamond
0.0,7.0,0.0,1.0,2.0,2.0,263.0297579999023,1.0,1.0,phase_1,,,,,,,,,,,,,gray,diamond
0.0,6.0,0.0,1.0,4.0,4.0,278.6564599991834,1.0,1.0,phase_1,,,,,,,,,,,,,magenta,I
0.0,5.0,0.0,1.0,2.0,2.0,269.0475980016344,1.0,1.0,phase_1,,,,,,,,,,,,,yellow,square
401.0,4.0,4.0,0.0,3.0,3.0,305.9853619997739,1.0,1.0,phase_1,,,,,,,,,,,,,cyan,flipped triangle
0.0,3.0,0.0,0.0,1.0,1.0,326.8531930007157,1.0,1.0,phase_1,,,,,,,,,,,,,green,circle
193.0,7.0,3.0,1.0,2.0,2.0,302.8413710017048,1.0,1.0,phase_1,,,,,,,,,,,,,gray,diamond
50.0,1.0,1.0,0.0,4.0,4.0,277.5779650000913,1.0,1.0,phase_1,,,,,,,,,,,,,white,cross
381.0,8.0,4.0,1.0,2.0,2.0,254.39079399802722,1.0,1.0,phase_1,,,,,,,,,,,,,blue,triangle
0.0,2.0,0.0,0.0,1.0,1.0,341.2078469991684,1.0,1.0,phase_1,,,,,,,,,,,,,orange,hexagon
397.0,8.0,4.0,1.0,1.0,1.0,279.2283730013878,1.0,1.0,phase_1,,,,,,,,,,,,,blue,triangle
0.0,4.0,0.0,0.0,2.0,2.0,269.2993790005857,1.0,1.0,phase_1,,,,,,,,,,,,,cyan,flipped triangle
401.0,8.0,4.0,1.0,3.0,3.0,304.7645420010667,1.0,1.0,phase_1,,,,,,,,,,,,,blue,triangle
0.0,2.0,0.0,0.0,1.0,1.0,279.570352002338,1.0,1.0,phase_1,,,,,,,,,,,,,orange,hexagon
0.0,4.0,0.0,0.0,4.0,4.0,296.0893449999275,1.0,1.0,phase_1,,,,,,,,,,,,,cyan,flipped triangle
412.0,4.0,4.0,0.0,2.0,2.0,262.67999799893,1.0,1.0,phase_1,,,,,,,,,,,,,cyan,flipped triangle
379.0,4.0,4.0,0.0,2.0,2.0,285.4938049968041,1.0,1.0,phase_1,,,,,,,,,,,,,cyan,flipped triangle
56.0,1.0,1.0,0.0,1.0,1.0,281.9484819992794,1.0,1.0,phase_1,,,,,,,,,,,,,white,cross
0.0,1.0,0.0,0.0,3.0,3.0,300.4016710001451,1.0,1.0,phase_1,,,,,,,,,,,,,white,cross
201.0,3.0,3.0,0.0,1.0,1.0,289.0451669991307,1.0,1.0,phase_1,,,,,,,,,,,,,green,circle
0.0,2.0,0.0,0.0,1.0,1.0,362.5567000017327,1.0,1.0,phase_1,,,,,,,,,,,,,orange,hexagon
123.0,2.0,2.0,0.0,2.0,2.0,270.6296979995386,1.0,1.0,phase_1,,,,,,,,,,,,,orange,hexagon
0.0,5.0,0.0,1.0,4.0,4.0,271.3125749978644,1.0,1.0,phase_1,,,,,,,,,,,,,yellow,square
412.0,8.0,4.0,1.0,1.0,1.0,294.8245439984021,1.0,1.0,phase_1,,,,,,,,,,,,,blue,triangle
406.0,4.0,4.0,0.0,3.0,3.0,349.2319079996377,1.0,1.0,phase_1,,,,,,,,,,,,,cyan,flipped triangle
62.0,5.0,1.0,1.0,2.0,2.0,312.0529410007293,1.0,1.0,phase_1,,,,,,,,,,,,,yellow,square
0.0,2.0,0.0,0.0,1.0,1.0,273.8109130004886,1.0,1.0,phase_1,,,,,,,,,,,,,orange,hexagon
107.0,2.0,2.0,0.0,4.0,4.0,301.539257998229,1.0,1.0,phase_1,,,,,,,,,,,,,orange,hexagon
0.0,2.0,0.0,0.0,2.0,2.0,261.0316520003835,1.0,1.0,phase_1,,,,,,,,,,,,,orange,hexagon
61.0,1.0,1.0,0.0,4.0,4.0,320.1131540008646,1.0,1.0,phase_1,,,,,,,,,,,,,white,cross
391.0,4.0,4.0,0.0,3.0,3.0,290.8413760014809,1.0,1.0,phase_1,,,,,,,,,,,,,cyan,flipped triangle
29.0,5.0,1.0,1.0,4.0,4.0,301.6049259967985,1.0,1.0,phase_1,,,,,,,,,,,,,yellow,square
95.0,6.0,2.0,1.0,4.0,4.0,338.1017799983965,1.0,1.0,phase_1,,,,,,,,,,,,,magenta,I
113.0,6.0,2.0,1.0,1.0,1.0,336.2368479974975,1.0,1.0,phase_1,,,,,,,,,,,,,magenta,I
116.0,2.0,2.0,0.0,2.0,2.0,315.2129650006827,1.0,1.0,phase_1,,,,,,,,,,,,,orange,hexagon
399.0,4.0,4.0,0.0,4.0,4.0,246.7681979978806,1.0,1.0,phase_1,,,,,,,,,,,,,cyan,flipped triangle
224.0,3.0,3.0,0.0,4.0,4.0,299.4393179978942,1.0,1.0,phase_1,,,,,,,,,,,,,green,circle
0.0,5.0,0.0,1.0,1.0,1.0,262.2441170024103,1.0,1.0,phase_1,,,,,,,,,,,,,yellow,square
183.0,3.0,3.0,0.0,4.0,4.0,296.4085120001982,1.0,1.0,phase_1,,,,,,,,,,,,,green,circle
418.0,8.0,4.0,1.0,2.0,2.0,301.7962470003112,1.0,1.0,phase_1,,,,,,,,,,,,,blue,triangle
399.0,4.0,4.0,0.0,2.0,2.0,305.0111909979023,1.0,1.0,phase_1,,,,,,,,,,,,,cyan,flipped triangle
107.0,6.0,2.0,1.0,4.0,4.0,330.3869320006924,1.0,1.0,phase_1,,,,,,,,,,,,,magenta,I
208.0,7.0,3.0,1.0,4.0,4.0,315.8150210001622,1.0,1.0,phase_1,,,,,,,,,,,,,gray,diamond
390.0,4.0,4.0,0.0,1.0,1.0,262.1340459991188,1.0,1.0,phase_1,,,,,,,,,,,,,cyan,flipped triangle
395.0,4.0,4.0,0.0,3.0,3.0,256.3090820003708,1.0,1.0,phase_1,,,,,,,,,,,,,cyan,flipped triangle
63.0,5.0,1.0,1.0,1.0,1.0,280.5312279997451,1.0,1.0,phase_1,,,,,,,,,,,,,yellow,square
104.0,2.0,2.0,0.0,3.0,3.0,338.1259620000492,1.0,1.0,phase_1,,,,,,,,,,,,,orange,hexagon
122.0,6.0,2.0,1.0,4.0,4.0,340.7496760009962,1.0,1.0,phase_1,,,,,,,,,,,,,magenta,I
79.0,6.0,2.0,1.0,1.0,1.0,480.7392010006879,1.0,1.0,phase_1,,,,,,,,,,,,,magenta,I
119.0,2.0,2.0,0.0,3.0,3.0,334.2327640020812,1.0,1.0,phase_1,,,,,,,,,,,,,orange,hexagon
0.0,5.0,0.0,1.0,4.0,4.0,277.6373850028903,1.0,1.0,phase_1,,,,,,,,,,,,,yellow,square
71.0,1.0,1.0,0.0,4.0,4.0,291.3804719973996,1.0,1.0,phase_1,,,,,,,,,,,,,white,cross
400.0,8.0,4.0,1.0,4.0,4.0,369.2388469971774,1.0,1.0,phase_1,,,,,,,,,,,,,blue,triangle
406.0,8.0,4.0,1.0,2.0,2.0,325.8103279986244,1.0,1.0,phase_1,,,,,,,,,,,,,blue,triangle
116.0,2.0,2.0,0.0,3.0,3.0,303.6928509973222,1.0,1.0,phase_1,,,,,,,,,,,,,orange,hexagon
217.0,7.0,3.0,1.0,3.0,3.0,345.3389360001893,1.0,1.0,phase_1,,,,,,,,,,,,,gray,diamond
86.0,2.0,2.0,0.0,4.0,4.0,317.6907020024373,1.0,1.0,phase_1,,,,,,,,,,,,,orange,hexagon
82.0,6.0,2.0,1.0,2.0,2.0,315.3517059981823,1.0,1.0,phase_1,,,,,,,,,,,,,magenta,I
215.0,7.0,3.0,1.0,1.0,1.0,300.7665629993425,1.0,1.0,phase_1,,,,,,,,,,,,,gray,diamond
424.0,8.0,4.0,1.0,4.0,4.0,288.6332180023601,1.0,1.0,phase_1,,,,,,,,,,,,,blue,triangle
0.0,1.0,0.0,0.0,1.0,1.0,284.9389010007144,1.0,1.0,phase_1,,,,,,,,,,,,,white,cross
0.0,8.0,0.0,1.0,4.0,4.0,303.5477100020216,1.0,1.0,phase_1,,,,,,,,,,,,,blue,triangle
209.0,7.0,3.0,1.0,3.0,3.0,334.41025499996607,1.0,1.0,phase_1,,,,,,,,,,,,,gray,diamond
224.0,7.0,3.0,1.0,3.0,3.0,344.080576000124,1.0,1.0,phase_1,,,,,,,,,,,,,gray,diamond
31.0,1.0,1.0,0.0,1.0,1.0,292.5049859986757,1.0,1.0,phase_1,,,,,,,,,,,,,white,cross
107.0,6.0,2.0,1.0,2.0,2.0,319.1692790023808,1.0,1.0,phase_1,,,,,,,,,,,,,magenta,I
33.0,1.0,1.0,0.0,3.0,3.0,301.4294679996965,1.0,1.0,phase_1,,,,,,,,,,,,,white,cross
203.0,7.0,3.0,1.0,1.0,1.0,383.7427600010414,1.0,1.0,phase_1,,,,,,,,,,,,,gray,diamond
0.0,4.0,0.0,0.0,4.0,4.0,303.4843189998355,1.0,1.0,phase_1,,,,,,,,,,,,,cyan,flipped triangle
187.0,3.0,3.0,0.0,4.0,4.0,345.6999199988786,1.0,1.0,phase_1,,,,,,,,,,,,,green,circle
420.0,8.0,4.0,1.0,2.0,2.0,321.453467997344,1.0,1.0,phase_1,,,,,,,,,,,,,blue,triangle
57.0,1.0,1.0,0.0,3.0,3.0,377.0003669997095,1.0,1.0,phase_1,,,,,,,,,,,,,white,cross
83.0,2.0,2.0,0.0,2.0,2.0,337.9651920004107,1.0,1.0,phase_1,,,,,,,,,,,,,orange,hexagon
0.0,3.0,0.0,0.0,4.0,4.0,301.1123769974801,1.0,1.0,phase_1,,,,,,,,,,,,,green,circle
89.0,2.0,2.0,0.0,3.0,3.0,362.7433689980535,1.0,1.0,phase_1,,,,,,,,,,,,,orange,hexagon
404.0,4.0,4.0,0.0,4.0,4.0,323.6365830016439,1.0,1.0,phase_1,,,,,,,,,,,,,cyan,flipped triangle
29.0,5.0,1.0,1.0,3.0,3.0,320.7890080011566,1.0,1.0,phase_1,,,,,,,,,,,,,yellow,square
0.0,3.0,0.0,0.0,3.0,3.0,299.6800389992131,1.0,1.0,phase_1,,,,,,,,,,,,,green,circle
84.0,6.0,2.0,1.0,4.0,4.0,297.2903150002821,1.0,1.0,phase_1,,,,,,,,,,,,,magenta,I
183.0,7.0,3.0,1.0,1.0,1.0,380.9955489996355,1.0,1.0,phase_1,,,,,,,,,,,,,gray,diamond
0.0,7.0,0.0,1.0,4.0,4.0,352.1260409979732,1.0,1.0,phase_1,,,,,,,,,,,,,gray,diamond
44.0,1.0,1.0,0.0,1.0,1.0,355.9864019989618,1.0,1.0,phase_1,,,,,,,,,,,,,white,cross
416.0,8.0,4.0,1.0,2.0,2.0,338.7704040032986,1.0,1.0,phase_1,,,,,,,,,,,,,blue,triangle
47.0,5.0,1.0,1.0,4.0,4.0,260.0523910004995,1.0,1.0,phase_1,,,,,,,,,,,,,yellow,square
0.0,4.0,0.0,0.0,3.0,3.0,320.2433299993572,1.0,1.0,phase_1,,,,,,,,,,,,,cyan,flipped triangle
0.0,7.0,0.0,1.0,1.0,1.0,357.6715579984011,1.0,1.0,phase_1,,,,,,,,,,,,,gray,diamond
102.0,2.0,2.0,0.0,2.0,2.0,321.6328380003688,1.0,1.0,phase_1,,,,,,,,,,,,,orange,hexagon
114.0,2.0,2.0,0.0,4.0,4.0,306.2716339991311,1.0,1.0,phase_1,,,,,,,,,,,,,orange,hexagon
113.0,6.0,2.0,1.0,4.0,4.0,324.7312029998284,1.0,1.0,phase_1,,,,,,,,,,,,,magenta,I
71.0,5.0,1.0,1.0,3.0,3.0,328.9079160022083,1.0,1.0,phase_1,,,,,,,,,,,,,yellow,square
119.0,6.0,2.0,1.0,4.0,4.0,360.9249300025112,1.0,1.0,phase_1,,,,,,,,,,,,,magenta,I
176.0,7.0,3.0,1.0,1.0,1.0,402.0959570007107,1.0,1.0,phase_1,,,,,,,,,,,,,gray,diamond
56.0,5.0,1.0,1.0,1.0,1.0,310.0203230023908,1.0,1.0,phase_1,,,,,,,,,,,,,yellow,square
206.0,7.0,3.0,1.0,3.0,3.0,345.2281950012548,1.0,1.0,phase_1,,,,,,,,,,,,,gray,diamond
393.0,8.0,4.0,1.0,3.0,3.0,320.4005369989318,1.0,1.0,phase_1,,,,,,,,,,,,,blue,triangle
33.0,5.0,1.0,1.0,2.0,2.0,381.481692998932,2.0,1.0,phase_1,,,,,,,,,,,,,yellow,square
114.0,6.0,2.0,1.0,1.0,1.0,298.4766379995562,2.0,1.0,phase_1,,,,,,,,,,,,,magenta,I
104.0,6.0,2.0,1.0,3.0,3.0,336.9412760002888,2.0,1.0,phase_1,,,,,,,,,,,,,magenta,I
395.0,4.0,4.0,0.0,4.0,4.0,332.2849590003898,2.0,1.0,phase_1,,,,,,,,,,,,,cyan,flipped triangle
81.0,6.0,2.0,1.0,4.0,4.0,309.2914630033192,2.0,1.0,phase_1,,,,,,,,,,,,,magenta,I
0.0,7.0,0.0,1.0,3.0,3.0,285.7568859981256,2.0,1.0,phase_1,,,,,,,,,,,,,gray,diamond
204.0,3.0,3.0,0.0,2.0,2.0,300.8680329985509,2.0,1.0,phase_1,,,,,,,,,,,,,green,circle
103.0,6.0,2.0,1.0,2.0,2.0,363.2495450001443,2.0,1.0,phase_1,,,,,,,,,,,,,magenta,I
26.0,1.0,1.0,0.0,3.0,3.0,491.9968829999561,2.0,1.0,phase_1,,,,,,,,,,,,,white,cross
411.0,8.0,4.0,1.0,1.0,1.0,267.3459329998877,2.0,1.0,phase_1,,,,,,,,,,,,,blue,triangle
94.0,2.0,2.0,0.0,4.0,4.0,306.6803020010411,2.0,1.0,phase_1,,,,,,,,,,,,,orange,hexagon
403.0,4.0,4.0,0.0,2.0,2.0,257.6254790001258,2.0,1.0,phase_1,,,,,,,,,,,,,cyan,flipped triangle
409.0,4.0,4.0,0.0,1.0,1.0,350.3893599990988,2.0,2.0,phase_1,,,,,,,,,,,,,cyan,flipped triangle
49.0,1.0,1.0,0.0,2.0,2.0,320.5619030013622,2.0,1.0,phase_1,,,,,,,,,,,,,white,cross
386.0,4.0,4.0,0.0,3.0,3.0,348.32897600063,2.0,1.0,phase_1,,,,,,,,,,,,,cyan,flipped triangle
0.0,8.0,0.0,1.0,1.0,1.0,254.02585100164288,2.0,1.0,phase_1,,,,,,,,,,,,,blue,triangle
50.0,5.0,1.0,1.0,3.0,3.0,330.5481730021711,2.0,1.0,phase_1,,,,,,,,,,,,,yellow,square
46.0,1.0,1.0,0.0,3.0,3.0,343.752411998139,2.0,1.0,phase_1,,,,,,,,,,,,,white,cross
0.0,4.0,0.0,0.0,2.0,2.0,318.9753000006021,2.0,1.0,phase_1,,,,,,,,,,,,,cyan,flipped triangle
180.0,3.0,3.0,0.0,4.0,4.0,288.6787260031269,2.0,1.0,phase_1,,,,,,,,,,,,,green,circle
192.0,3.0,3.0,0.0,1.0,1.0,382.865096002206,2.0,1.0,phase_1,,,,,,,,,,,,,green,circle
397.0,4.0,4.0,0.0,1.0,1.0,356.0849440000311,2.0,1.0,phase_1,,,,,,,,,,,,,cyan,flipped triangle
411.0,4.0,4.0,0.0,2.0,2.0,273.2662230009737,2.0,1.0,phase_1,,,,,,,,,,,,,cyan,flipped triangle
116.0,6.0,2.0,1.0,3.0,3.0,301.270971998747,2.0,1.0,phase_1,,,,,,,,,,,,,magenta,I
220.0,3.0,3.0,0.0,3.0,3.0,367.4177680004504,2.0,1.0,phase_1,,,,,,,,,,,,,green,circle
51.0,5.0,1.0,1.0,2.0,2.0,282.5943640018522,2.0,1.0,phase_1,,,,,,,,,,,,,yellow,square
82.0,2.0,2.0,0.0,4.0,4.0,309.173171997827,2.0,1.0,phase_1,,,,,,,,,,,,,orange,hexagon
85.0,2.0,2.0,0.0,1.0,1.0,300.43826399924,2.0,1.0,phase_1,,,,,,,,,,,,,orange,hexagon
103.0,2.0,2.0,0.0,1.0,1.0,350.2490610007953,2.0,1.0,phase_1,,,,,,,,,,,,,orange,hexagon
213.0,7.0,3.0,1.0,2.0,2.0,320.9773039998254,2.0,1.0,phase_1,,,,,,,,,,,,,gray,diamond
86.0,2.0,2.0,0.0,2.0,2.0,317.4804539994511,2.0,1.0,phase_1,,,,,,,,,,,,,orange,hexagon
178.0,7.0,3.0,1.0,4.0,4.0,307.924531000026,2.0,1.0,phase_1,,,,,,,,,,,,,gray,diamond
418.0,4.0,4.0,0.0,1.0,1.0,308.1946829988737,2.0,1.0,phase_1,,,,,,,,,,,,,cyan,flipped triangle
209.0,7.0,3.0,1.0,3.0,3.0,303.1654749975132,2.0,1.0,phase_1,,,,,,,,,,,,,gray,diamond
390.0,8.0,4.0,1.0,1.0,1.0,284.169564001786,2.0,1.0,phase_1,,,,,,,,,,,,,blue,triangle
0.0,8.0,0.0,1.0,2.0,2.0,302.9079699990689,2.0,1.0,phase_1,,,,,,,,,,,,,blue,triangle
413.0,8.0,4.0,1.0,2.0,2.0,327.5950600000215,2.0,1.0,phase_1,,,,,,,,,,,,,blue,triangle
55.0,1.0,1.0,0.0,1.0,1.0,316.9990700007474,2.0,1.0,phase_1,,,,,,,,,,,,,white,cross
71.0,1.0,1.0,0.0,4.0,4.0,376.473285999964,2.0,2.0,phase_1,,,,,,,,,,,,,white,cross
191.0,7.0,3.0,1.0,4.0,4.0,328.9568190011778,2.0,1.0,phase_1,,,,,,,,,,,,,gray,diamond
84.0,2.0,2.0,0.0,3.0,3.0,370.978102000663,2.0,1.0,phase_1,,,,,,,,,,,,,orange,hexagon
377.0,4.0,4.0,0.0,3.0,3.0,441.7025519978779,2.0,1.0,phase_1,,,,,,,,,,,,,cyan,flipped triangle
85.0,6.0,2.0,1.0,1.0,1.0,525.2246730015031,2.0,1.0,phase_1,,,,,,,,,,,,,magenta,I
180.0,7.0,3.0,1.0,2.0,2.0,376.4077730011195,2.0,1.0,phase_1,,,,,,,,,,,,,gray,diamond
424.0,4.0,4.0,0.0,4.0,4.0,272.6553829998011,2.0,1.0,phase_1,,,,,,,,,,,,,cyan,flipped triangle
420.0,8.0,4.0,1.0,4.0,4.0,354.0760620016954,2.0,1.0,phase_1,,,,,,,,,,,,,blue,triangle
33.0,5.0,1.0,1.0,4.0,4.0,322.8243170015048,2.0,1.0,phase_1,,,,,,,,,,,,,yellow,square
395.0,8.0,4.0,1.0,2.0,2.0,280.8144830014498,2.0,1.0,phase_1,,,,,,,,,,,,,blue,triangle
215.0,3.0,3.0,0.0,4.0,4.0,313.2673689979128,2.0,1.0,phase_1,,,,,,,,,,,,,green,circle
81.0,2.0,2.0,0.0,2.0,2.0,281.9017639994854,2.0,1.0,phase_1,,,,,,,,,,,,,orange,hexagon
66.0,1.0,1.0,0.0,4.0,4.0,306.7244789999677,2.0,1.0,phase_1,,,,,,,,,,,,,white,cross
409.0,8.0,4.0,1.0,3.0,3.0,364.2927559994859,2.0,1.0,phase_1,,,,,,,,,,,,,blue,triangle
183.0,3.0,3.0,0.0,2.0,2.0,307.7472410004702,2.0,1.0,phase_1,,,,,,,,,,,,,green,circle
33.0,1.0,1.0,0.0,1.0,1.0,291.273678001744,2.0,1.0,phase_1,,,,,,,,,,,,,white,cross
180.0,3.0,3.0,0.0,1.0,1.0,358.501888000319,2.0,1.0,phase_1,,,,,,,,,,,,,green,circle
179.0,3.0,3.0,0.0,1.0,1.0,472.7637269970728,2.0,1.0,phase_1,,,,,,,,,,,,,green,circle
384.0,4.0,4.0,0.0,3.0,3.0,260.9257969997998,2.0,1.0,phase_1,,,,,,,,,,,,,cyan,flipped triangle
205.0,3.0,3.0,0.0,4.0,4.0,337.4633469975379,2.0,1.0,phase_1,,,,,,,,,,,,,green,circle
0.0,6.0,0.0,1.0,1.0,1.0,311.5388949991029,2.0,1.0,phase_1,,,,,,,,,,,,,magenta,I
179.0,7.0,3.0,1.0,4.0,4.0,322.3109899990959,2.0,1.0,phase_1,,,,,,,,,,,,,gray,diamond
0.0,8.0,0.0,1.0,4.0,4.0,348.1977579976956,2.0,1.0,phase_1,,,,,,,,,,,,,blue,triangle
201.0,7.0,3.0,1.0,1.0,1.0,338.0675859989424,2.0,1.0,phase_1,,,,,,,,,,,,,gray,diamond
39.0,1.0,1.0,0.0,2.0,2.0,312.0300589980616,2.0,1.0,phase_1,,,,,,,,,,,,,white,cross
0.0,8.0,0.0,1.0,3.0,3.0,345.3191640001023,2.0,1.0,phase_1,,,,,,,,,,,,,blue,triangle
114.0,6.0,2.0,1.0,2.0,2.0,362.5902280000446,2.0,1.0,phase_1,,,,,,,,,,,,,magenta,I
95.0,2.0,2.0,0.0,2.0,2.0,337.0211680012289,2.0,1.0,phase_1,,,,,,,,,,,,,orange,hexagon
0.0,7.0,0.0,1.0,4.0,4.0,324.9157760001253,2.0,1.0,phase_1,,,,,,,,,,,,,gray,diamond
94.0,6.0,2.0,1.0,3.0,3.0,310.4933890026586,2.0,1.0,phase_1,,,,,,,,,,,,,magenta,I
118.0,6.0,2.0,1.0,3.0,3.0,358.4459929988952,2.0,1.0,phase_1,,,,,,,,,,,,,magenta,I
39.0,5.0,1.0,1.0,1.0,1.0,265.1123770010599,2.0,1.0,phase_1,,,,,,,,,,,,,yellow,square
109.0,6.0,2.0,1.0,1.0,1.0,340.3586099993845,2.0,1.0,phase_1,,,,,,,,,,,,,magenta,I
66.0,1.0,1.0,0.0,4.0,4.0,329.9362280013156,2.0,1.0,phase_1,,,,,,,,,,,,,white,cross
0.0,1.0,0.0,0.0,1.0,1.0,353.3673489982902,2.0,1.0,phase_1,,,,,,,,,,,,,white,cross
393.0,4.0,4.0,0.0,2.0,2.0,389.1399999993155,2.0,1.0,phase_1,,,,,,,,,,,,,cyan,flipped triangle
83.0,6.0,2.0,1.0,3.0,3.0,331.270852999296,2.0,1.0,phase_1,,,,,,,,,,,,,magenta,I
0.0,6.0,0.0,1.0,4.0,4.0,346.09348199956,2.0,2.0,phase_1,,,,,,,,,,,,,magenta,I
90.0,2.0,2.0,0.0,1.0,1.0,446.1327839999285,2.0,1.0,phase_1,,,,,,,,,,,,,orange,hexagon
217.0,3.0,3.0,0.0,1.0,1.0,339.0754190004372,2.0,1.0,phase_1,,,,,,,,,,,,,green,circle
71.0,5.0,1.0,1.0,4.0,4.0,315.6001669995021,2.0,1.0,phase_1,,,,,,,,,,,,,yellow,square
61.0,5.0,1.0,1.0,3.0,3.0,422.9902459992445,2.0,1.0,phase_1,,,,,,,,,,,,,yellow,square
0.0,8.0,0.0,1.0,4.0,4.0,278.4961469988047,2.0,1.0,phase_1,,,,,,,,,,,,,blue,triangle
123.0,6.0,2.0,1.0,4.0,4.0,504.1492140007904,2.0,1.0,phase_1,,,,,,,,,,,,,magenta,I
205.0,7.0,3.0,1.0,3.0,3.0,373.8291409972589,2.0,1.0,phase_1,,,,,,,,,,,,,gray,diamond
101.0,2.0,2.0,0.0,1.0,1.0,315.724528998544,2.0,1.0,phase_1,,,,,,,,,,,,,orange,hexagon
28.0,5.0,1.0,1.0,3.0,3.0,327.8077270006179,2.0,1.0,phase_1,,,,,,,,,,,,,yellow,square
414.0,8.0,4.0,1.0,1.0,1.0,320.8572319999803,2.0,1.0,phase_1,,,,,,,,,,,,,blue,triangle
395.0,4.0,4.0,0.0,1.0,1.0,399.7935459992732,2.0,1.0,phase_1,,,,,,,,,,,,,cyan,flipped triangle
50.0,5.0,1.0,1.0,2.0,2.0,342.6503540031262,2.0,1.0,phase_1,,,,,,,,,,,,,yellow,square
223.0,3.0,3.0,0.0,2.0,2.0,324.1908429990872,2.0,1.0,phase_1,,,,,,,,,,,,,green,circle
47.0,1.0,1.0,0.0,2.0,2.0,340.5749449993891,2.0,1.0,phase_1,,,,,,,,,,,,,white,cross
76.0,2.0,2.0,0.0,4.0,4.0,365.2122429994051,2.0,1.0,phase_1,,,,,,,,,,,,,orange,hexagon
31.0,5.0,1.0,1.0,4.0,4.0,320.393990001321,2.0,1.0,phase_1,,,,,,,,,,,,,yellow,square
0.0,1.0,0.0,0.0,4.0,4.0,317.4119899995276,2.0,1.0,phase_1,,,,,,,,,,,,,white,cross
45.0,1.0,1.0,0.0,1.0,1.0,364.5884239995212,2.0,1.0,phase_1,,,,,,,,,,,,,white,cross
0.0,4.0,0.0,0.0,2.0,2.0,393.4706649997679,2.0,1.0,phase_1,,,,,,,,,,,,,cyan,flipped triangle
0.0,7.0,0.0,1.0,4.0,4.0,299.7884939977666,2.0,1.0,phase_1,,,,,,,,,,,,,gray,diamond
200.0,7.0,3.0,1.0,2.0,2.0,311.7578940000385,2.0,1.0,phase_1,,,,,,,,,,,,,gray,diamond
112.0,6.0,2.0,1.0,4.0,4.0,305.6917039975815,2.0,1.0,phase_1,,,,,,,,,,,,,magenta,I
114.0,2.0,2.0,0.0,1.0,1.0,343.265704002988,2.0,1.0,phase_1,,,,,,,,,,,,,orange,hexagon
57.0,5.0,1.0,1.0,2.0,2.0,313.2015400005912,2.0,1.0,phase_1,,,,,,,,,,,,,yellow,square
0.0,6.0,0.0,1.0,4.0,4.0,330.5039680017216,3.0,1.0,phase_1,,,,,,,,,,,,,magenta,I
176.0,3.0,3.0,0.0,3.0,3.0,353.9115720013797,3.0,1.0,phase_1,,,,,,,,,,,,,green,circle
420.0,8.0,4.0,1.0,3.0,3.0,308.1985130011162,3.0,1.0,phase_1,,,,,,,,,,,,,blue,triangle
380.0,8.0,4.0,1.0,3.0,3.0,310.0735000007262,3.0,1.0,phase_1,,,,,,,,,,,,,blue,triangle
197.0,3.0,3.0,0.0,4.0,4.0,334.5164570018824,3.0,1.0,phase_1,,,,,,,,,,,,,green,circle
407.0,4.0,4.0,0.0,4.0,4.0,378.6804499977734,3.0,1.0,phase_1,,,,,,,,,,,,,cyan,flipped triangle
72.0,5.0,1.0,1.0,1.0,1.0,386.6865700001654,3.0,1.0,phase_1,,,,,,,,,,,,,yellow,square
424.0,4.0,4.0,0.0,4.0,4.0,304.1058290000364,3.0,1.0,phase_1,,,,,,,,,,,,,cyan,flipped triangle
0.0,5.0,0.0,1.0,1.0,1.0,379.3732320009439,3.0,1.0,phase_1,,,,,,,,,,,,,yellow,square
49.0,1.0,1.0,0.0,3.0,3.0,366.3394479990529,3.0,1.0,phase_1,,,,,,,,,,,,,white,cross
45.0,5.0,1.0,1.0,3.0,3.0,372.3759490021621,3.0,1.0,phase_1,,,,,,,,,,,,,yellow,square
0.0,1.0,0.0,0.0,2.0,2.0,501.3222110028437,3.0,1.0,phase_1,,,,,,,,,,,,,white,cross
76.0,6.0,2.0,1.0,3.0,3.0,521.113607002917,3.0,1.0,phase_1,,,,,,,,,,,,,magenta,I
187.0,7.0,3.0,1.0,1.0,1.0,318.8687030014989,3.0,1.0,phase_1,,,,,,,,,,,,,gray,diamond
386.0,4.0,4.0,0.0,1.0,1.0,373.9962959989498,3.0,1.0,phase_1,,,,,,,,,,,,,cyan,flipped triangle
213.0,3.0,3.0,0.0,2.0,2.0,385.5802260004566,3.0,1.0,phase_1,,,,,,,,,,,,,green,circle
118.0,2.0,2.0,0.0,4.0,4.0,609.5663679989229,3.0,1.0,phase_1,,,,,,,,,,,,,orange,hexagon
50.0,1.0,1.0,0.0,2.0,2.0,335.4202570008056,3.0,1.0,phase_1,,,,,,,,,,,,,white,cross
0.0,2.0,0.0,0.0,1.0,1.0,350.1261929995962,3.0,1.0,phase_1,,,,,,,,,,,,,orange,hexagon
224.0,3.0,3.0,0.0,3.0,3.0,341.4428739997674,3.0,1.0,phase_1,,,,,,,,,,,,,green,circle
0.0,6.0,0.0,1.0,3.0,3.0,359.9548300007882,3.0,1.0,phase_1,,,,,,,,,,,,,magenta,I
420.0,4.0,4.0,0.0,2.0,2.0,312.6153410012193,3.0,1.0,phase_1,,,,,,,,,,,,,cyan,flipped triangle
92.0,2.0,2.0,0.0,3.0,3.0,332.0171519990254,3.0,1.0,phase_1,,,,,,,,,,,,,orange,hexagon
0.0,1.0,0.0,0.0,1.0,1.0,313.7218739975651,3.0,1.0,phase_1,,,,,,,,,,,,,white,cross
393.0,4.0,4.0,0.0,2.0,2.0,315.1978999994753,3.0,1.0,phase_1,,,,,,,,,,,,,cyan,flipped triangle
416.0,4.0,4.0,0.0,4.0,4.0,346.7060689981736,3.0,1.0,phase_1,,,,,,,,,,,,,cyan,flipped triangle
375.0,4.0,4.0,0.0,1.0,1.0,292.6485539974237,3.0,1.0,phase_1,,,,,,,,,,,,,cyan,flipped triangle
0.0,3.0,0.0,0.0,2.0,2.0,334.4964030002302,3.0,1.0,phase_1,,,,,,,,,,,,,green,circle
221.0,7.0,3.0,1.0,3.0,3.0,317.5728790010907,3.0,1.0,phase_1,,,,,,,,,,,,,gray,diamond
107.0,2.0,2.0,0.0,2.0,2.0,330.7711820016266,3.0,1.0,phase_1,,,,,,,,,,,,,orange,hexagon
220.0,7.0,3.0,1.0,3.0,3.0,341.0676820021763,3.0,1.0,phase_1,,,,,,,,,,,,,gray,diamond
399.0,8.0,4.0,1.0,2.0,2.0,342.618537000817,3.0,1.0,phase_1,,,,,,,,,,,,,blue,triangle
0.0,7.0,0.0,1.0,1.0,1.0,342.3212230009085,3.0,1.0,phase_1,,,,,,,,,,,,,gray,diamond
0.0,3.0,0.0,0.0,1.0,1.0,364.7348140002577,3.0,1.0,phase_1,,,,,,,,,,,,,green,circle
0.0,3.0,0.0,0.0,4.0,4.0,313.6945909973292,3.0,1.0,phase_1,,,,,,,,,,,,,green,circle
216.0,3.0,3.0,0.0,2.0,2.0,248.4793020012148,3.0,1.0,phase_1,,,,,,,,,,,,,green,circle
0.0,2.0,0.0,0.0,3.0,3.0,321.4539189975767,3.0,1.0,phase_1,,,,,,,,,,,,,orange,hexagon
196.0,3.0,3.0,0.0,3.0,3.0,333.4882810013369,3.0,1.0,phase_1,,,,,,,,,,,,,green,circle
381.0,4.0,4.0,0.0,3.0,3.0,336.9402989992522,3.0,1.0,phase_1,,,,,,,,,,,,,cyan,flipped triangle
49.0,5.0,1.0,1.0,1.0,1.0,312.476544000674,3.0,1.0,phase_1,,,,,,,,,,,,,yellow,square
0.0,7.0,0.0,1.0,2.0,2.0,321.5709130017785,3.0,1.0,phase_1,,,,,,,,,,,,,gray,diamond
112.0,2.0,2.0,0.0,3.0,3.0,328.5598129987193,3.0,1.0,phase_1,,,,,,,,,,,,,orange,hexagon
0.0,7.0,0.0,1.0,1.0,1.0,291.1196740024024,3.0,1.0,phase_1,,,,,,,,,,,,,gray,diamond
395.0,8.0,4.0,1.0,1.0,1.0,380.1536960017984,3.0,1.0,phase_1,,,,,,,,,,,,,blue,triangle
54.0,5.0,1.0,1.0,2.0,2.0,336.1855179973645,3.0,1.0,phase_1,,,,,,,,,,,,,yellow,square
198.0,7.0,3.0,1.0,2.0,2.0,313.8350330009416,3.0,1.0,phase_1,,,,,,,,,,,,,gray,diamond
204.0,7.0,3.0,1.0,1.0,1.0,293.2613590019173,3.0,1.0,phase_1,,,,,,,,,,,,,gray,diamond
198.0,3.0,3.0,0.0,2.0,2.0,347.2138899996935,3.0,1.0,phase_1,,,,,,,,,,,,,green,circle
0.0,5.0,0.0,1.0,2.0,2.0,334.2118290020153,3.0,1.0,phase_1,,,,,,,,,,,,,yellow,square
395.0,8.0,4.0,1.0,2.0,2.0,348.5368969995761,3.0,1.0,phase_1,,,,,,,,,,,,,blue,triangle
90.0,6.0,2.0,1.0,2.0,2.0,300.0269700023636,3.0,1.0,phase_1,,,,,,,,,,,,,magenta,I
391.0,8.0,4.0,1.0,3.0,3.0,330.4658220004057,3.0,1.0,phase_1,,,,,,,,,,,,,blue,triangle
28.0,1.0,1.0,0.0,2.0,2.0,309.9284480013011,3.0,1.0,phase_1,,,,,,,,,,,,,white,cross
0.0,3.0,0.0,0.0,2.0,2.0,288.5164440012886,3.0,1.0,phase_1,,,,,,,,,,,,,green,circle
68.0,1.0,1.0,0.0,4.0,4.0,328.3000890005496,3.0,1.0,phase_1,,,,,,,,,,,,,white,cross
221.0,3.0,3.0,0.0,4.0,4.0,379.0464330013492,3.0,1.0,phase_1,,,,,,,,,,,,,green,circle
414.0,4.0,4.0,0.0,4.0,4.0,335.6002999971679,3.0,1.0,phase_1,,,,,,,,,,,,,cyan,flipped triangle
406.0,8.0,4.0,1.0,3.0,3.0,325.495029999729,3.0,1.0,phase_1,,,,,,,,,,,,,blue,triangle
0.0,5.0,0.0,1.0,4.0,4.0,356.1451959976693,3.0,1.0,phase_1,,,,,,,,,,,,,yellow,square
193.0,3.0,3.0,0.0,1.0,1.0,541.535128999385,3.0,1.0,phase_1,,,,,,,,,,,,,green,circle
0.0,2.0,0.0,0.0,3.0,3.0,324.4568499976594,3.0,1.0,phase_1,,,,,,,,,,,,,orange,hexagon
203.0,3.0,3.0,0.0,1.0,1.0,488.6951420012337,3.0,1.0,phase_1,,,,,,,,,,,,,green,circle
0.0,2.0,0.0,0.0,2.0,2.0,300.5492049996974,3.0,1.0,phase_1,,,,,,,,,,,,,orange,hexagon
98.0,2.0,2.0,0.0,4.0,4.0,286.4785839992692,3.0,1.0,phase_1,,,,,,,,,,,,,orange,hexagon
377.0,8.0,4.0,1.0,2.0,2.0,303.6265839982661,3.0,1.0,phase_1,,,,,,,,,,,,,blue,triangle
407.0,8.0,4.0,1.0,4.0,4.0,288.9257110000471,3.0,1.0,phase_1,,,,,,,,,,,,,blue,triangle
216.0,7.0,3.0,1.0,2.0,2.0,313.6497550003696,3.0,1.0,phase_1,,,,,,,,,,,,,gray,diamond
209.0,3.0,3.0,0.0,1.0,1.0,360.0483289992553,3.0,1.0,phase_1,,,,,,,,,,,,,green,circle
113.0,2.0,2.0,0.0,1.0,1.0,350.2648639987455,3.0,1.0,phase_1,,,,,,,,,,,,,orange,hexagon
92.0,6.0,2.0,1.0,3.0,3.0,314.4034949982597,3.0,1.0,phase_1,,,,,,,,,,,,,magenta,I
412.0,4.0,4.0,0.0,3.0,3.0,321.7253030015854,3.0,1.0,phase_1,,,,,,,,,,,,,cyan,flipped triangle
0.0,3.0,0.0,0.0,1.0,1.0,318.5863850012538,3.0,1.0,phase_1,,,,,,,,,,,,,green,circle
196.0,7.0,3.0,1.0,1.0,1.0,309.6941129988408,3.0,1.0,phase_1,,,,,,,,,,,,,gray,diamond
0.0,1.0,0.0,0.0,2.0,2.0,269.8705009970581,3.0,1.0,phase_1,,,,,,,,,,,,,white,cross
116.0,6.0,2.0,1.0,1.0,1.0,298.0470889997377,3.0,1.0,phase_1,,,,,,,,,,,,,magenta,I
26.0,5.0,1.0,1.0,3.0,3.0,312.6753559990902,3.0,1.0,phase_1,,,,,,,,,,,,,yellow,square
412.0,8.0,4.0,1.0,1.0,1.0,272.785938999732,3.0,1.0,phase_1,,,,,,,,,,,,,blue,triangle
376.0,8.0,4.0,1.0,4.0,4.0,344.7727919992758,3.0,1.0,phase_1,,,,,,,,,,,,,blue,triangle
379.0,8.0,4.0,1.0,1.0,1.0,319.8810380017676,3.0,1.0,phase_1,,,,,,,,,,,,,blue,triangle
0.0,1.0,0.0,0.0,2.0,2.0,302.4364859993511,3.0,1.0,phase_1,,,,,,,,,,,,,white,cross
413.0,4.0,4.0,0.0,2.0,2.0,371.2602079976932,3.0,1.0,phase_1,,,,,,,,,,,,,cyan,flipped triangle
399.0,8.0,4.0,1.0,1.0,1.0,355.2750580020074,3.0,1.0,phase_1,,,,,,,,,,,,,blue,triangle
0.0,3.0,0.0,0.0,3.0,3.0,420.339699001488,3.0,1.0,phase_1,,,,,,,,,,,,,green,circle
179.0,7.0,3.0,1.0,4.0,4.0,589.1533739995793,3.0,1.0,phase_1,,,,,,,,,,,,,gray,diamond
0.0,1.0,0.0,0.0,3.0,3.0,330.4532259971893,3.0,1.0,phase_1,,,,,,,,,,,,,white,cross
29.0,1.0,1.0,0.0,1.0,1.0,335.3671530021529,3.0,1.0,phase_1,,,,,,,,,,,,,white,cross
0.0,8.0,0.0,1.0,2.0,2.0,330.241315998137,3.0,1.0,phase_1,,,,,,,,,,,,,blue,triangle
56.0,1.0,1.0,0.0,2.0,2.0,283.5449759986659,3.0,1.0,phase_1,,,,,,,,,,,,,white,cross
43.0,5.0,1.0,1.0,4.0,4.0,330.2155850033159,3.0,1.0,phase_1,,,,,,,,,,,,,yellow,square
191.0,3.0,3.0,0.0,3.0,3.0,288.4387579979375,3.0,1.0,phase_1,,,,,,,,,,,,,green,circle
216.0,3.0,3.0,0.0,2.0,2.0,368.702422001661,3.0,1.0,phase_1,,,,,,,,,,,,,green,circle
73.0,1.0,1.0,0.0,1.0,1.0,298.1121030024951,3.0,1.0,phase_1,,,,,,,,,,,,,white,cross
381.0,4.0,4.0,0.0,2.0,2.0,310.0257190017146,3.0,1.0,phase_1,,,,,,,,,,,,,cyan,flipped triangle
393.0,8.0,4.0,1.0,4.0,4.0,340.7348590008041,3.0,1.0,phase_1,,,,,,,,,,,,,blue,triangle
47.0,1.0,1.0,0.0,1.0,1.0,307.5561939986073,3.0,1.0,phase_1,,,,,,,,,,,,,white,cross
55.0,5.0,1.0,1.0,1.0,1.0,361.7017340002348,3.0,1.0,phase_1,,,,,,,,,,,,,yellow,square
102.0,6.0,2.0,1.0,2.0,2.0,301.0605279996525,3.0,1.0,phase_1,,,,,,,,,,,,,magenta,I
31.0,1.0,1.0,0.0,4.0,4.0,420.6434419975267,3.0,1.0,phase_1,,,,,,,,,,,,,white,cross
49.0,5.0,1.0,1.0,4.0,4.0,353.2702689990401,3.0,1.0,phase_1,,,,,,,,,,,,,yellow,square
180.0,7.0,3.0,1.0,1.0,1.0,337.1583759981149,3.0,1.0,phase_1,,,,,,,,,,,,,gray,diamond
43.0,1.0,1.0,0.0,3.0,3.0,347.75484200145,4.0,1.0,phase_1,,,,,,,,,,,,,white,cross
62.0,5.0,1.0,1.0,1.0,1.0,297.1505579989753,4.0,1.0,phase_1,,,,,,,,,,,,,yellow,square
185.0,3.0,3.0,0.0,2.0,2.0,534.4728210002359,4.0,1.0,phase_1,,,,,,,,,,,,,green,circle
0.0,6.0,0.0,1.0,2.0,2.0,343.0959090001124,4.0,1.0,phase_1,,,,,,,,,,,,,magenta,I
122.0,2.0,2.0,0.0,1.0,1.0,371.4593600016087,4.0,1.0,phase_1,,,,,,,,,,,,,orange,hexagon
208.0,3.0,3.0,0.0,4.0,4.0,323.7306749979325,4.0,1.0,phase_1,,,,,,,,,,,,,green,circle
62.0,1.0,1.0,0.0,3.0,3.0,319.4669740005338,4.0,1.0,phase_1,,,,,,,,,,,,,white,cross
186.0,7.0,3.0,1.0,4.0,4.0,542.6543670000683,4.0,1.0,phase_1,,,,,,,,,,,,,gray,diamond
28.0,5.0,1.0,1.0,3.0,3.0,283.1317300006049,4.0,1.0,phase_1,,,,,,,,,,,,,yellow,square
0.0,4.0,0.0,0.0,3.0,3.0,307.8102780018525,4.0,2.0,phase_1,,,,,,,,,,,,,cyan,flipped triangle
79.0,2.0,2.0,0.0,1.0,1.0,348.4309490013402,4.0,1.0,phase_1,,,,,,,,,,,,,orange,hexagon
92.0,2.0,2.0,0.0,4.0,4.0,309.0410850018088,4.0,1.0,phase_1,,,,,,,,,,,,,orange,hexagon
203.0,7.0,3.0,1.0,3.0,3.0,284.8379719980585,4.0,1.0,phase_1,,,,,,,,,,,,,gray,diamond
86.0,6.0,2.0,1.0,1.0,1.0,300.9965710007236,4.0,1.0,phase_1,,,,,,,,,,,,,magenta,I
0.0,4.0,0.0,0.0,4.0,4.0,309.6647560014389,4.0,1.0,phase_1,,,,,,,,,,,,,cyan,flipped triangle
386.0,8.0,4.0,1.0,4.0,4.0,354.5810149989847,4.0,1.0,phase_1,,,,,,,,,,,,,blue,triangle
83.0,2.0,2.0,0.0,1.0,1.0,281.1535460023151,4.0,1.0,phase_1,,,,,,,,,,,,,orange,hexagon
74.0,5.0,1.0,1.0,1.0,1.0,325.3155309976137,4.0,1.0,phase_1,,,,,,,,,,,,,yellow,square
192.0,7.0,3.0,1.0,2.0,2.0,337.0186059983098,4.0,1.0,phase_1,,,,,,,,,,,,,gray,diamond
111.0,6.0,2.0,1.0,3.0,3.0,328.2485039999301,4.0,1.0,phase_1,,,,,,,,,,,,,magenta,I
384.0,8.0,4.0,1.0,4.0,4.0,335.1517019982566,4.0,1.0,phase_1,,,,,,,,,,,,,blue,triangle
46.0,5.0,1.0,1.0,2.0,2.0,460.4046900021785,4.0,1.0,phase_1,,,,,,,,,,,,,yellow,square
424.0,8.0,4.0,1.0,3.0,3.0,391.173247997358,4.0,1.0,phase_1,,,,,,,,,,,,,blue,triangle
201.0,7.0,3.0,1.0,4.0,4.0,388.1828129997302,4.0,1.0,phase_1,,,,,,,,,,,,,gray,diamond
0.0,5.0,0.0,1.0,3.0,3.0,302.3270839985343,4.0,1.0,phase_1,,,,,,,,,,,,,yellow,square
183.0,7.0,3.0,1.0,4.0,4.0,337.6326240031631,4.0,1.0,phase_1,,,,,,,,,,,,,gray,diamond
116.0,2.0,2.0,0.0,4.0,4.0,333.6663160007447,4.0,1.0,phase_1,,,,,,,,,,,,,orange,hexagon
27.0,1.0,1.0,0.0,2.0,2.0,355.837357998098,4.0,1.0,phase_1,,,,,,,,,,,,,white,cross
0.0,4.0,0.0,0.0,2.0,2.0,388.0577029995038,4.0,1.0,phase_1,,,,,,,,,,,,,cyan,flipped triangle
56.0,5.0,1.0,1.0,4.0,4.0,337.0615679996263,4.0,1.0,phase_1,,,,,,,,,,,,,yellow,square
96.0,6.0,2.0,1.0,3.0,3.0,390.3206780014443,4.0,1.0,phase_1,,,,,,,,,,,,,magenta,I
179.0,3.0,3.0,0.0,3.0,3.0,295.2598980009497,4.0,1.0,phase_1,,,,,,,,,,,,,green,circle
178.0,3.0,3.0,0.0,3.0,3.0,345.6288050001603,4.0,1.0,phase_1,,,,,,,,,,,,,green,circle
73.0,5.0,1.0,1.0,2.0,2.0,343.2326639995153,4.0,1.0,phase_1,,,,,,,,,,,,,yellow,square
420.0,4.0,4.0,0.0,4.0,4.0,360.9990659970208,4.0,1.0,phase_1,,,,,,,,,,,,,cyan,flipped triangle
86.0,6.0,2.0,1.0,2.0,2.0,459.1772939966176,4.0,1.0,phase_1,,,,,,,,,,,,,magenta,I
63.0,1.0,1.0,0.0,4.0,4.0,414.7910940009751,4.0,1.0,phase_1,,,,,,,,,,,,,white,cross
376.0,4.0,4.0,0.0,1.0,1.0,280.7325040012074,4.0,1.0,phase_1,,,,,,,,,,,,,cyan,flipped triangle
0.0,2.0,0.0,0.0,2.0,2.0,312.0505049992061,4.0,1.0,phase_1,,,,,,,,,,,,,orange,hexagon
92.0,6.0,2.0,1.0,2.0,2.0,312.9893530021945,4.0,1.0,phase_1,,,,,,,,,,,,,magenta,I
109.0,2.0,2.0,0.0,1.0,1.0,361.4445629973488,4.0,1.0,phase_1,,,,,,,,,,,,,orange,hexagon
386.0,8.0,4.0,1.0,3.0,3.0,381.8110140018689,4.0,1.0,phase_1,,,,,,,,,,,,,blue,triangle
381.0,8.0,4.0,1.0,1.0,1.0,307.063805998041,4.0,1.0,phase_1,,,,,,,,,,,,,blue,triangle
89.0,6.0,2.0,1.0,4.0,4.0,335.0616460011224,4.0,1.0,phase_1,,,,,,,,,,,,,magenta,I
216.0,7.0,3.0,1.0,2.0,2.0,528.4292989999813,4.0,1.0,phase_1,,,,,,,,,,,,,gray,diamond
209.0,3.0,3.0,0.0,2.0,2.0,335.5647009993845,4.0,1.0,phase_1,,,,,,,,,,,,,green,circle
113.0,2.0,2.0,0.0,3.0,3.0,317.0360699987213,4.0,1.0,phase_1,,,,,,,,,,,,,orange,hexagon
47.0,5.0,1.0,1.0,4.0,4.0,394.8547679974581,4.0,1.0,phase_1,,,,,,,,,,,,,yellow,square
51.0,1.0,1.0,0.0,2.0,2.0,290.365587999986,4.0,1.0,phase_1,,,,,,,,,,,,,white,cross
403.0,8.0,4.0,1.0,4.0,4.0,354.436749999877,4.0,1.0,phase_1,,,,,,,,,,,,,blue,triangle
203.0,3.0,3.0,0.0,2.0,2.0,307.9011390000232,4.0,1.0,phase_1,,,,,,,,,,,,,green,circle
98.0,6.0,2.0,1.0,1.0,1.0,330.6099510009517,4.0,1.0,phase_1,,,,,,,,,,,,,magenta,I
0.0,6.0,0.0,1.0,4.0,4.0,333.122527001251,4.0,1.0,phase_1,,,,,,,,,,,,,magenta,I
44.0,5.0,1.0,1.0,3.0,3.0,344.2969169991556,4.0,1.0,phase_1,,,,,,,,,,,,,yellow,square
29.0,1.0,1.0,0.0,3.0,3.0,376.9580019979912,4.0,1.0,phase_1,,,,,,,,,,,,,white,cross
420.0,4.0,4.0,0.0,1.0,1.0,320.2238779995241,4.0,1.0,phase_1,,,,,,,,,,,,,cyan,flipped triangle
0.0,4.0,0.0,0.0,1.0,1.0,340.1426749987877,4.0,1.0,phase_1,,,,,,,,,,,,,cyan,flipped triangle
44.0,5.0,1.0,1.0,4.0,4.0,362.1670700013055,4.0,1.0,phase_1,,,,,,,,,,,,,yellow,square
76.0,2.0,2.0,0.0,3.0,3.0,369.4450269977096,4.0,1.0,phase_1,,,,,,,,,,,,,orange,hexagon
0.0,8.0,0.0,1.0,3.0,3.0,310.1018970010045,4.0,1.0,phase_1,,,,,,,,,,,,,blue,triangle
96.0,2.0,2.0,0.0,2.0,2.0,316.3060469996708,4.0,1.0,phase_1,,,,,,,,,,,,,orange,hexagon
223.0,7.0,3.0,1.0,1.0,1.0,308.3827269983885,4.0,1.0,phase_1,,,,,,,,,,,,,gray,diamond
44.0,1.0,1.0,0.0,2.0,2.0,334.3100050005887,4.0,1.0,phase_1,,,,,,,,,,,,,white,cross
74.0,1.0,1.0,0.0,3.0,3.0,337.022726998839,4.0,1.0,phase_1,,,,,,,,,,,,,white,cross
221.0,7.0,3.0,1.0,2.0,2.0,378.3040790003724,4.0,1.0,phase_1,,,,,,,,,,,,,gray,diamond
66.0,5.0,1.0,1.0,3.0,3.0,280.2138949991786,4.0,1.0,phase_1,,,,,,,,,,,,,yellow,square
68.0,5.0,1.0,1.0,2.0,2.0,306.5123960004712,4.0,1.0,phase_1,,,,,,,,,,,,,yellow,square
0.0,6.0,0.0,1.0,1.0,1.0,305.3154400004132,4.0,1.0,phase_1,,,,,,,,,,,,,magenta,I
185.0,7.0,3.0,1.0,4.0,4.0,324.4523130015295,4.0,1.0,phase_1,,,,,,,,,,,,,gray,diamond
0.0,5.0,0.0,1.0,4.0,4.0,330.517565998889,4.0,1.0,phase_1,,,,,,,,,,,,,yellow,square
0.0,7.0,0.0,1.0,1.0,1.0,863.9937410007406,4.0,1.0,phase_1,,,,,,,,,,,,,gray,diamond
380.0,4.0,4.0,0.0,4.0,4.0,406.1985010011995,4.0,1.0,phase_1,,,,,,,,,,,,,cyan,flipped triangle
72.0,1.0,1.0,0.0,2.0,2.0,362.5877489976119,4.0,1.0,phase_1,,,,,,,,,,,,,white,cross
66.0,5.0,1.0,1.0,1.0,1.0,337.3547659975884,4.0,1.0,phase_1,,,,,,,,,,,,,yellow,square
101.0,6.0,2.0,1.0,1.0,1.0,264.1222380007093,4.0,1.0,phase_1,,,,,,,,,,,,,magenta,I
0.0,8.0,0.0,1.0,2.0,2.0,315.1149460027227,4.0,1.0,phase_1,,,,,,,,,,,,,blue,triangle
206.0,3.0,3.0,0.0,3.0,3.0,341.905229997792,4.0,2.0,phase_1,,,,,,,,,,,,,green,circle
54.0,1.0,1.0,0.0,1.0,1.0,280.8923989978211,4.0,1.0,phase_1,,,,,,,,,,,,,white,cross
404.0,8.0,4.0,1.0,4.0,4.0,317.7213259987184,4.0,1.0,phase_1,,,,,,,,,,,,,blue,triangle
0.0,3.0,0.0,0.0,3.0,3.0,349.3822579985135,4.0,2.0,phase_1,,,,,,,,,,,,,green,circle
28.0,1.0,1.0,0.0,4.0,4.0,351.2380880019918,4.0,1.0,phase_1,,,,,,,,,,,,,white,cross
116.0,6.0,2.0,1.0,1.0,1.0,355.0606690005224,4.0,1.0,phase_1,,,,,,,,,,,,,magenta,I
111.0,2.0,2.0,0.0,3.0,3.0,333.4408759983489,4.0,1.0,phase_1,,,,,,,,,,,,,orange,hexagon
0.0,6.0,0.0,1.0,4.0,4.0,318.7970699982543,4.0,1.0,phase_1,,,,,,,,,,,,,magenta,I
186.0,3.0,3.0,0.0,1.0,1.0,309.7099229999003,4.0,1.0,phase_1,,,,,,,,,,,,,green,circle
0.0,5.0,0.0,1.0,4.0,4.0,327.8076390015485,4.0,1.0,phase_1,,,,,,,,,,,,,yellow,square
201.0,3.0,3.0,0.0,3.0,3.0,357.8785119971144,4.0,1.0,phase_1,,,,,,,,,,,,,green,circle
224.0,7.0,3.0,1.0,2.0,2.0,370.9043349990679,4.0,1.0,phase_1,,,,,,,,,,,,,gray,diamond
122.0,2.0,2.0,0.0,2.0,2.0,354.3567520027864,4.0,1.0,phase_1,,,,,,,,,,,,,orange,hexagon
62.0,1.0,1.0,0.0,3.0,3.0,340.9595150005771,4.0,1.0,phase_1,,,,,,,,,,,,,white,cross
0.0,1.0,0.0,0.0,2.0,2.0,340.5455770007393,4.0,1.0,phase_1,,,,,,,,,,,,,white,cross
76.0,6.0,2.0,1.0,2.0,2.0,352.1805710006447,4.0,1.0,phase_1,,,,,,,,,,,,,magenta,I
406.0,4.0,4.0,0.0,1.0,1.0,343.0426019986043,4.0,1.0,phase_1,,,,,,,,,,,,,cyan,flipped triangle
200.0,3.0,3.0,0.0,3.0,3.0,411.3713660008216,4.0,1.0,phase_1,,,,,,,,,,,,,green,circle
221.0,3.0,3.0,0.0,4.0,4.0,312.4064740004542,4.0,1.0,phase_1,,,,,,,,,,,,,green,circle
187.0,7.0,3.0,1.0,3.0,3.0,345.4322589968797,4.0,1.0,phase_1,,,,,,,,,,,,,gray,diamond
122.0,6.0,2.0,1.0,3.0,3.0,479.027440000209,4.0,1.0,phase_1,,,,,,,,,,,,,magenta,I
187.0,3.0,3.0,0.0,1.0,1.0,281.6467289994762,4.0,1.0,phase_1,,,,,,,,,,,,,green,circle
83.0,6.0,2.0,1.0,2.0,2.0,288.3786999991571,4.0,1.0,phase_1,,,,,,,,,,,,,magenta,I
0.0,8.0,0.0,1.0,1.0,1.0,287.5926319975406,4.0,1.0,phase_1,,,,,,,,,,,,,blue,triangle
0.0,6.0,2.0,1.0,5.0,5.0,506.8201850008336,1.0,1.0,phase_2,stop,250.0,250.0,3.0,,,,,,,,,magenta,I
0.0,7.0,3.0,1.0,5.0,5.0,363.5670360017684,1.0,1.0,phase_2,go,200.0,250.0,1.0,,,,,,,,,gray,diamond
0.0,3.0,3.0,0.0,5.0,5.0,295.921705001092,1.0,1.0,phase_2,go,200.0,250.0,1.0,,,,,,,,,green,circle
0.0,1.0,1.0,0.0,6.0,6.0,402.0826380001381,1.0,1.0,phase_2,go,200.0,250.0,1.0,,,,,,,,,white,cross
0.0,5.0,1.0,1.0,6.0,6.0,310.5682929999602,1.0,1.0,phase_2,stop,200.0,250.0,3.0,,,,,,,,,yellow,square
0.0,8.0,4.0,1.0,5.0,5.0,300.9211700009473,1.0,1.0,phase_2,stop,200.0,200.0,3.0,,,,,,,,,blue,triangle
0.0,4.0,4.0,0.0,5.0,5.0,374.3554610009596,1.0,1.0,phase_2,go,150.0,200.0,1.0,,,,,,,,,cyan,flipped triangle
0.0,8.0,4.0,1.0,5.0,0.0,0.0,1.0,1.0,phase_2,stop,150.0,200.0,4.0,,,,,,,,,blue,triangle
0.0,6.0,2.0,1.0,6.0,0.0,0.0,1.0,1.0,phase_2,stop,200.0,200.0,4.0,,,,,,,,,magenta,I
0.0,3.0,3.0,0.0,5.0,5.0,315.3775489990948,1.0,1.0,phase_2,go,200.0,250.0,1.0,,,,,,,,,green,circle
0.0,3.0,3.0,0.0,5.0,5.0,346.3081340014469,1.0,1.0,phase_2,go,200.0,250.0,1.0,,,,,,,,,green,circle
0.0,5.0,1.0,1.0,6.0,0.0,0.0,1.0,1.0,phase_2,stop,200.0,250.0,4.0,,,,,,,,,yellow,square
0.0,1.0,1.0,0.0,5.0,5.0,402.6203819994407,1.0,1.0,phase_2,go,200.0,300.0,1.0,,,,,,,,,white,cross
0.0,7.0,3.0,1.0,5.0,0.0,0.0,1.0,1.0,phase_2,stop,200.0,300.0,4.0,,,,,,,,,gray,diamond
0.0,7.0,3.0,1.0,6.0,6.0,390.7616139986203,1.0,1.0,phase_2,go,250.0,300.0,1.0,,,,,,,,,gray,diamond
0.0,4.0,4.0,0.0,5.0,5.0,455.8182959990517,1.0,1.0,phase_2,go,250.0,300.0,1.0,,,,,,,,,cyan,flipped triangle
0.0,7.0,3.0,1.0,6.0,0.0,0.0,1.0,1.0,phase_2,stop,250.0,300.0,4.0,,,,,,,,,gray,diamond
0.0,7.0,3.0,1.0,5.0,5.0,406.0923170000023,1.0,1.0,phase_2,go,250.0,350.0,1.0,,,,,,,,,gray,diamond
0.0,2.0,2.0,0.0,6.0,6.0,402.7867000004335,1.0,1.0,phase_2,go,250.0,350.0,1.0,,,,,,,,,orange,hexagon
0.0,8.0,4.0,1.0,6.0,0.0,0.0,1.0,1.0,phase_2,stop,250.0,350.0,4.0,,,,,,,,,blue,triangle
0.0,2.0,2.0,0.0,6.0,6.0,545.0074390028021,1.0,1.0,phase_2,go,250.0,400.0,1.0,,,,,,,,,orange,hexagon
0.0,1.0,1.0,0.0,6.0,6.0,477.8796329992474,1.0,1.0,phase_2,go,250.0,400.0,1.0,,,,,,,,,white,cross
0.0,3.0,3.0,0.0,6.0,6.0,586.2760540003364,1.0,1.0,phase_2,go,250.0,400.0,1.0,,,,,,,,,green,circle
0.0,5.0,1.0,1.0,5.0,5.0,403.9951019985892,1.0,1.0,phase_2,stop,250.0,400.0,3.0,,,,,,,,,yellow,square
0.0,2.0,2.0,0.0,6.0,6.0,441.0382509995543,1.0,1.0,phase_2,go,200.0,400.0,1.0,,,,,,,,,orange,hexagon
0.0,8.0,4.0,1.0,6.0,0.0,0.0,1.0,1.0,phase_2,stop,200.0,400.0,4.0,,,,,,,,,blue,triangle
0.0,3.0,3.0,0.0,6.0,6.0,503.4947280000779,1.0,1.0,phase_2,go,200.0,450.0,1.0,,,,,,,,,green,circle
0.0,4.0,4.0,0.0,6.0,6.0,374.6798199972545,1.0,1.0,phase_2,go,200.0,450.0,1.0,,,,,,,,,cyan,flipped triangle
0.0,3.0,3.0,0.0,5.0,5.0,520.7006179989548,1.0,1.0,phase_2,go,200.0,450.0,1.0,,,,,,,,,green,circle
0.0,4.0,4.0,0.0,5.0,5.0,340.7560449995799,1.0,1.0,phase_2,go,200.0,450.0,1.0,,,,,,,,,cyan,flipped triangle
0.0,3.0,3.0,0.0,6.0,6.0,414.4845279988658,1.0,1.0,phase_2,go,200.0,450.0,1.0,,,,,,,,,green,circle
0.0,5.0,1.0,1.0,5.0,5.0,300.5793480006105,1.0,1.0,phase_2,stop,200.0,450.0,3.0,,,,,,,,,yellow,square
0.0,8.0,4.0,1.0,5.0,0.0,0.0,1.0,1.0,phase_2,stop,150.0,450.0,4.0,,,,,,,,,blue,triangle
0.0,2.0,2.0,0.0,5.0,5.0,422.3904139980732,1.0,1.0,phase_2,go,200.0,450.0,1.0,,,,,,,,,orange,hexagon
0.0,5.0,1.0,1.0,5.0,0.0,0.0,1.0,1.0,phase_2,stop,200.0,450.0,4.0,,,,,,,,,yellow,square
0.0,7.0,3.0,1.0,6.0,6.0,546.1487620013941,1.0,1.0,phase_2,stop,250.0,450.0,3.0,,,,,,,,,gray,diamond
0.0,6.0,2.0,1.0,6.0,6.0,579.9013879986887,2.0,1.0,phase_2,go,250.0,400.0,1.0,,,,,,,,,magenta,I
0.0,3.0,3.0,0.0,6.0,6.0,712.9334559976996,2.0,1.0,phase_2,go,250.0,400.0,1.0,,,,,,,,,green,circle
0.0,7.0,3.0,1.0,6.0,0.0,0.0,2.0,1.0,phase_2,stop,250.0,400.0,4.0,,,,,,,,,gray,diamond
0.0,7.0,3.0,1.0,5.0,5.0,662.2988279996207,2.0,1.0,phase_2,go,250.0,450.0,1.0,,,,,,,,,gray,diamond
0.0,2.0,2.0,0.0,5.0,5.0,768.6575659972732,2.0,1.0,phase_2,go,250.0,450.0,1.0,,,,,,,,,orange,hexagon
0.0,3.0,3.0,0.0,6.0,6.0,691.4573809990543,2.0,1.0,phase_2,go,250.0,450.0,1.0,,,,,,,,,green,circle
0.0,3.0,3.0,0.0,6.0,6.0,836.6107509973517,2.0,1.0,phase_2,go,250.0,450.0,1.0,,,,,,,,,green,circle
0.0,1.0,1.0,0.0,5.0,5.0,277.0412239988218,2.0,1.0,phase_2,go,250.0,450.0,1.0,,,,,,,,,white,cross
0.0,5.0,1.0,1.0,5.0,5.0,348.5513769992394,2.0,1.0,phase_2,stop,250.0,450.0,3.0,,,,,,,,,yellow,square
0.0,4.0,4.0,0.0,6.0,6.0,729.4015660008881,2.0,1.0,phase_2,go,200.0,450.0,1.0,,,,,,,,,cyan,flipped triangle
0.0,4.0,4.0,0.0,5.0,5.0,581.5685299967299,2.0,1.0,phase_2,go,200.0,450.0,1.0,,,,,,,,,cyan,flipped triangle
0.0,3.0,3.0,0.0,6.0,6.0,672.3694699976477,2.0,1.0,phase_2,go,200.0,450.0,1.0,,,,,,,,,green,circle
0.0,1.0,1.0,0.0,6.0,6.0,902.389677001338,2.0,1.0,phase_2,go,200.0,450.0,1.0,,,,,,,,,white,cross
0.0,3.0,3.0,0.0,6.0,6.0,742.1743209997658,2.0,1.0,phase_2,go,200.0,450.0,1.0,,,,,,,,,green,circle
0.0,1.0,1.0,0.0,6.0,6.0,746.2273189994448,2.0,1.0,phase_2,go,200.0,450.0,1.0,,,,,,,,,white,cross
0.0,8.0,4.0,1.0,6.0,6.0,593.4804950011312,2.0,1.0,phase_2,go,200.0,450.0,1.0,,,,,,,,,blue,triangle
0.0,5.0,1.0,1.0,5.0,0.0,0.0,2.0,1.0,phase_2,stop,200.0,450.0,4.0,,,,,,,,,yellow,square
0.0,1.0,1.0,0.0,6.0,6.0,518.5074339970015,2.0,1.0,phase_2,go,250.0,450.0,1.0,,,,,,,,,white,cross
0.0,8.0,4.0,1.0,5.0,5.0,637.8113930004474,2.0,1.0,phase_2,go,250.0,450.0,1.0,,,,,,,,,blue,triangle
0.0,4.0,4.0,0.0,6.0,6.0,776.5500409986998,2.0,1.0,phase_2,go,250.0,450.0,1.0,,,,,,,,,cyan,flipped triangle
0.0,3.0,3.0,0.0,6.0,6.0,643.0180479983392,2.0,1.0,phase_2,go,250.0,450.0,1.0,,,,,,,,,green,circle
0.0,6.0,2.0,1.0,5.0,5.0,570.6170680023206,2.0,1.0,phase_2,stop,250.0,450.0,3.0,,,,,,,,,magenta,I
0.0,1.0,1.0,0.0,6.0,6.0,514.3813299982867,2.0,1.0,phase_2,go,200.0,450.0,1.0,,,,,,,,,white,cross
0.0,1.0,1.0,0.0,5.0,5.0,708.1608720000077,2.0,1.0,phase_2,go,200.0,450.0,1.0,,,,,,,,,white,cross
0.0,5.0,1.0,1.0,5.0,0.0,0.0,2.0,1.0,phase_2,stop,200.0,450.0,4.0,,,,,,,,,yellow,square
0.0,7.0,3.0,1.0,5.0,0.0,0.0,2.0,1.0,phase_2,stop,250.0,450.0,4.0,,,,,,,,,gray,diamond
0.0,2.0,2.0,0.0,6.0,6.0,614.392367999244,2.0,1.0,phase_2,go,300.0,450.0,1.0,,,,,,,,,orange,hexagon
0.0,5.0,1.0,1.0,5.0,0.0,0.0,2.0,1.0,phase_2,stop,300.0,450.0,4.0,,,,,,,,,yellow,square
0.0,5.0,1.0,1.0,6.0,6.0,815.6347790027212,2.0,1.0,phase_2,go,350.0,450.0,1.0,,,,,,,,,yellow,square
0.0,8.0,4.0,1.0,5.0,0.0,0.0,2.0,1.0,phase_2,stop,350.0,450.0,4.0,,,,,,,,,blue,triangle
0.0,4.0,4.0,0.0,5.0,5.0,586.4426019979874,2.0,1.0,phase_2,go,400.0,450.0,1.0,,,,,,,,,cyan,flipped triangle
0.0,8.0,4.0,1.0,6.0,0.0,0.0,2.0,1.0,phase_2,stop,400.0,450.0,4.0,,,,,,,,,blue,triangle
0.0,8.0,4.0,1.0,6.0,0.0,0.0,2.0,1.0,phase_2,stop,400.0,500.0,4.0,,,,,,,,,blue,triangle
0.0,2.0,2.0,0.0,5.0,5.0,703.200954998465,2.0,1.0,phase_2,go,400.0,550.0,1.0,,,,,,,,,orange,hexagon
0.0,2.0,2.0,0.0,5.0,5.0,833.5920040008205,2.0,1.0,phase_2,go,400.0,550.0,1.0,,,,,,,,,orange,hexagon
0.0,5.0,1.0,1.0,5.0,0.0,0.0,2.0,1.0,phase_2,stop,400.0,550.0,4.0,,,,,,,,,yellow,square
0.0,1.0,1.0,0.0,5.0,5.0,938.8913639995736,3.0,1.0,phase_2,go,450.0,550.0,1.0,,,,,,,,,white,cross
0.0,8.0,4.0,1.0,6.0,6.0,557.1229509987461,3.0,1.0,phase_2,go,450.0,550.0,1.0,,,,,,,,,blue,triangle
0.0,7.0,3.0,1.0,5.0,5.0,486.472219999996,3.0,1.0,phase_2,stop,450.0,550.0,3.0,,,,,,,,,gray,diamond
0.0,8.0,4.0,1.0,5.0,0.0,0.0,3.0,1.0,phase_2,stop,400.0,550.0,4.0,,,,,,,,,blue,triangle
0.0,8.0,4.0,1.0,5.0,5.0,611.2035850019311,3.0,1.0,phase_2,stop,450.0,550.0,3.0,,,,,,,,,blue,triangle
0.0,3.0,3.0,0.0,5.0,5.0,1031.608804998541,3.0,1.0,phase_2,go,400.0,550.0,1.0,,,,,,,,,green,circle
0.0,5.0,1.0,1.0,6.0,6.0,621.4641089973156,3.0,1.0,phase_2,stop,400.0,550.0,3.0,,,,,,,,,yellow,square
0.0,5.0,1.0,1.0,5.0,5.0,907.7551739974296,3.0,1.0,phase_2,go,400.0,500.0,1.0,,,,,,,,,yellow,square
0.0,6.0,2.0,1.0,6.0,6.0,744.5099670003401,3.0,1.0,phase_2,go,400.0,500.0,1.0,,,,,,,,,magenta,I
0.0,5.0,1.0,1.0,6.0,6.0,350.1250289991731,3.0,1.0,phase_2,stop,400.0,500.0,3.0,,,,,,,,,yellow,square
0.0,2.0,2.0,0.0,5.0,5.0,537.4408019997645,3.0,1.0,phase_2,go,400.0,450.0,1.0,,,,,,,,,orange,hexagon
0.0,2.0,2.0,0.0,5.0,5.0,726.1806979986432,3.0,1.0,phase_2,go,400.0,450.0,1.0,,,,,,,,,orange,hexagon
0.0,3.0,3.0,0.0,6.0,6.0,740.6701690015325,3.0,1.0,phase_2,go,400.0,450.0,1.0,,,,,,,,,green,circle
0.0,2.0,2.0,0.0,5.0,5.0,464.919155001553,3.0,1.0,phase_2,go,400.0,450.0,1.0,,,,,,,,,orange,hexagon
0.0,1.0,1.0,0.0,5.0,5.0,593.7794509991363,3.0,1.0,phase_2,go,400.0,450.0,1.0,,,,,,,,,white,cross
0.0,5.0,1.0,1.0,5.0,5.0,474.1809469996951,3.0,1.0,phase_2,stop,400.0,450.0,3.0,,,,,,,,,yellow,square
0.0,5.0,1.0,1.0,6.0,6.0,581.5243619981629,3.0,1.0,phase_2,stop,350.0,450.0,3.0,,,,,,,,,yellow,square
0.0,6.0,2.0,1.0,5.0,0.0,0.0,3.0,1.0,phase_2,stop,350.0,400.0,4.0,,,,,,,,,magenta,I
0.0,1.0,1.0,0.0,5.0,5.0,680.6760869985737,3.0,1.0,phase_2,go,400.0,400.0,1.0,,,,,,,,,white,cross
0.0,5.0,1.0,1.0,5.0,0.0,0.0,3.0,1.0,phase_2,stop,400.0,400.0,4.0,,,,,,,,,yellow,square
0.0,2.0,2.0,0.0,6.0,6.0,662.1135170025809,3.0,1.0,phase_2,go,450.0,400.0,1.0,,,,,,,,,orange,hexagon
0.0,4.0,4.0,0.0,6.0,6.0,1026.507908001804,3.0,1.0,phase_2,go,450.0,400.0,1.0,,,,,,,,,cyan,flipped triangle
0.0,5.0,1.0,1.0,6.0,6.0,893.3267630018236,3.0,1.0,phase_2,go,450.0,400.0,1.0,,,,,,,,,yellow,square
0.0,1.0,1.0,0.0,5.0,5.0,698.7664420012152,3.0,1.0,phase_2,go,450.0,400.0,1.0,,,,,,,,,white,cross
0.0,1.0,1.0,0.0,6.0,6.0,803.4964699982083,3.0,1.0,phase_2,go,450.0,400.0,1.0,,,,,,,,,white,cross
0.0,1.0,1.0,0.0,5.0,5.0,678.9911260020745,3.0,1.0,phase_2,go,450.0,400.0,1.0,,,,,,,,,white,cross
0.0,8.0,4.0,1.0,6.0,0.0,0.0,3.0,1.0,phase_2,stop,450.0,400.0,4.0,,,,,,,,,blue,triangle
0.0,6.0,2.0,1.0,6.0,0.0,0.0,3.0,1.0,phase_2,stop,450.0,450.0,4.0,,,,,,,,,magenta,I
0.0,1.0,1.0,0.0,6.0,6.0,903.0173370010745,3.0,1.0,phase_2,go,450.0,500.0,1.0,,,,,,,,,white,cross
0.0,3.0,3.0,0.0,6.0,6.0,700.7300320001377,3.0,1.0,phase_2,go,450.0,500.0,1.0,,,,,,,,,green,circle
0.0,4.0,4.0,0.0,6.0,6.0,744.7795609987224,3.0,1.0,phase_2,go,450.0,500.0,1.0,,,,,,,,,cyan,flipped triangle
0.0,6.0,2.0,1.0,5.0,5.0,316.4869610009191,3.0,1.0,phase_2,go,450.0,500.0,1.0,,,,,,,,,magenta,I
0.0,1.0,1.0,0.0,5.0,5.0,717.0771319979394,3.0,1.0,phase_2,go,450.0,500.0,1.0,,,,,,,,,white,cross
0.0,3.0,3.0,0.0,6.0,6.0,679.4781540011172,3.0,1.0,phase_2,go,450.0,500.0,1.0,,,,,,,,,green,circle
0.0,5.0,1.0,1.0,5.0,0.0,0.0,3.0,1.0,phase_2,stop,450.0,500.0,4.0,,,,,,,,,yellow,square
0.0,1.0,1.0,0.0,6.0,6.0,653.1157730023551,3.0,1.0,phase_2,go,500.0,500.0,1.0,,,,,,,,,white,cross
0.0,2.0,2.0,0.0,6.0,6.0,653.6521119996905,4.0,1.0,phase_2,go,500.0,500.0,1.0,,,,,,,,,orange,hexagon
0.0,7.0,3.0,1.0,5.0,5.0,434.4935779990919,4.0,1.0,phase_2,stop,500.0,500.0,3.0,,,,,,,,,gray,diamond
0.0,2.0,2.0,0.0,6.0,6.0,543.8588850011001,4.0,1.0,phase_2,go,450.0,500.0,1.0,,,,,,,,,orange,hexagon
0.0,4.0,4.0,0.0,5.0,5.0,646.5676159969007,4.0,1.0,phase_2,go,450.0,500.0,1.0,,,,,,,,,cyan,flipped triangle
0.0,6.0,2.0,1.0,5.0,5.0,610.7622260024073,4.0,1.0,phase_2,go,450.0,500.0,1.0,,,,,,,,,magenta,I
0.0,5.0,1.0,1.0,5.0,0.0,0.0,4.0,1.0,phase_2,stop,450.0,500.0,4.0,,,,,,,,,yellow,square
0.0,7.0,3.0,1.0,6.0,0.0,0.0,4.0,1.0,phase_2,stop,500.0,500.0,4.0,,,,,,,,,gray,diamond
0.0,2.0,2.0,0.0,6.0,6.0,410.2525839989539,4.0,1.0,phase_2,go,500.0,550.0,1.0,,,,,,,,,orange,hexagon
0.0,4.0,4.0,0.0,6.0,6.0,434.0543069993146,4.0,1.0,phase_2,go,500.0,550.0,1.0,,,,,,,,,cyan,flipped triangle
0.0,6.0,2.0,1.0,5.0,5.0,605.0606829994649,4.0,1.0,phase_2,stop,500.0,550.0,3.0,,,,,,,,,magenta,I
0.0,4.0,4.0,0.0,5.0,5.0,614.8307450021093,4.0,1.0,phase_2,go,450.0,550.0,1.0,,,,,,,,,cyan,flipped triangle
0.0,8.0,4.0,1.0,6.0,6.0,801.3099340023473,4.0,1.0,phase_2,go,450.0,550.0,1.0,,,,,,,,,blue,triangle
0.0,4.0,4.0,0.0,5.0,5.0,574.4580659993517,4.0,1.0,phase_2,go,450.0,550.0,1.0,,,,,,,,,cyan,flipped triangle
0.0,2.0,2.0,0.0,5.0,5.0,562.1173180006735,4.0,1.0,phase_2,go,450.0,550.0,1.0,,,,,,,,,orange,hexagon
0.0,4.0,4.0,0.0,6.0,6.0,427.0452439996006,4.0,1.0,phase_2,go,450.0,550.0,1.0,,,,,,,,,cyan,flipped triangle
0.0,5.0,1.0,1.0,5.0,5.0,587.1879890000855,4.0,1.0,phase_2,stop,450.0,550.0,3.0,,,,,,,,,yellow,square
0.0,4.0,4.0,0.0,6.0,6.0,593.5370620027243,4.0,1.0,phase_2,go,400.0,550.0,1.0,,,,,,,,,cyan,flipped triangle
0.0,1.0,1.0,0.0,6.0,6.0,667.4184349976713,4.0,1.0,phase_2,go,400.0,550.0,1.0,,,,,,,,,white,cross
0.0,6.0,2.0,1.0,6.0,0.0,0.0,4.0,1.0,phase_2,stop,400.0,550.0,4.0,,,,,,,,,magenta,I
0.0,4.0,4.0,0.0,5.0,5.0,673.362213998189,4.0,1.0,phase_2,go,400.0,600.0,1.0,,,,,,,,,cyan,flipped triangle
0.0,4.0,4.0,0.0,6.0,6.0,608.3002430023043,4.0,1.0,phase_2,go,400.0,600.0,1.0,,,,,,,,,cyan,flipped triangle
0.0,8.0,4.0,1.0,6.0,6.0,597.8223849997448,4.0,1.0,phase_2,stop,400.0,600.0,3.0,,,,,,,,,blue,triangle
0.0,4.0,4.0,0.0,5.0,5.0,822.795218002284,4.0,1.0,phase_2,go,400.0,550.0,1.0,,,,,,,,,cyan,flipped triangle
0.0,7.0,3.0,1.0,6.0,0.0,0.0,4.0,1.0,phase_2,stop,400.0,550.0,4.0,,,,,,,,,gray,diamond
0.0,1.0,1.0,0.0,6.0,6.0,901.2122569984058,4.0,1.0,phase_2,go,400.0,600.0,1.0,,,,,,,,,white,cross
0.0,1.0,1.0,0.0,5.0,5.0,844.2747879998933,4.0,1.0,phase_2,go,400.0,600.0,1.0,,,,,,,,,white,cross
0.0,2.0,2.0,0.0,6.0,6.0,820.2127330005169,4.0,1.0,phase_2,go,400.0,600.0,1.0,,,,,,,,,orange,hexagon
0.0,4.0,4.0,0.0,6.0,6.0,773.0673529986234,4.0,1.0,phase_2,go,400.0,600.0,1.0,,,,,,,,,cyan,flipped triangle
0.0,1.0,1.0,0.0,6.0,6.0,598.8876490009716,4.0,1.0,phase_2,go,400.0,600.0,1.0,,,,,,,,,white,cross
0.0,4.0,4.0,0.0,6.0,6.0,846.4430550011457,4.0,1.0,phase_2,go,400.0,600.0,1.0,,,,,,,,,cyan,flipped triangle
0.0,5.0,1.0,1.0,5.0,0.0,0.0,4.0,1.0,phase_2,stop,400.0,600.0,4.0,,,,,,,,,yellow,square
0.0,3.0,3.0,0.0,5.0,5.0,560.2956610018737,4.0,1.0,phase_2,go,450.0,600.0,1.0,,,,,,,,,green,circle
0.0,5.0,1.0,1.0,6.0,6.0,501.33751800240134,4.0,1.0,phase_2,stop,450.0,600.0,3.0,,,,,,,,,yellow,square
0.0,2.0,2.0,0.0,5.0,5.0,562.734848997934,4.0,1.0,phase_2,go,450.0,550.0,1.0,,,,,,,,,orange,hexagon
0.0,3.0,3.0,0.0,6.0,6.0,486.2079209997318,4.0,1.0,phase_2,go,450.0,550.0,1.0,,,,,,,,,green,circle
0.0,2.0,2.0,0.0,6.0,6.0,500.9312570000475,4.0,1.0,phase_2,go,450.0,550.0,1.0,,,,,,,,,orange,hexagon
0.0,1.0,1.0,0.0,6.0,6.0,477.2953319989028,5.0,1.0,phase_2,go,450.0,550.0,1.0,,,,,,,,,white,cross
0.0,3.0,3.0,0.0,5.0,5.0,305.3353840005002,5.0,1.0,phase_2,go,450.0,550.0,1.0,,,,,,,,,green,circle
0.0,8.0,4.0,1.0,5.0,5.0,349.9243720034428,5.0,1.0,phase_2,go,450.0,550.0,1.0,,,,,,,,,blue,triangle
0.0,2.0,2.0,0.0,6.0,6.0,479.6652229997562,5.0,1.0,phase_2,go,450.0,550.0,1.0,,,,,,,,,orange,hexagon
0.0,7.0,3.0,1.0,5.0,5.0,392.8158550006628,5.0,1.0,phase_2,stop,450.0,550.0,3.0,,,,,,,,,gray,diamond
0.0,6.0,2.0,1.0,6.0,6.0,592.6458979993185,5.0,1.0,phase_2,stop,400.0,550.0,3.0,,,,,,,,,magenta,I
0.0,2.0,2.0,0.0,6.0,6.0,588.3929310002713,5.0,1.0,phase_2,go,400.0,500.0,1.0,,,,,,,,,orange,hexagon
0.0,8.0,4.0,1.0,6.0,6.0,617.9296629998134,5.0,1.0,phase_2,stop,400.0,500.0,3.0,,,,,,,,,blue,triangle
0.0,3.0,3.0,0.0,5.0,5.0,696.4370099994994,5.0,1.0,phase_2,go,400.0,450.0,1.0,,,,,,,,,green,circle
0.0,7.0,3.0,1.0,6.0,0.0,0.0,5.0,1.0,phase_2,stop,400.0,450.0,4.0,,,,,,,,,gray,diamond
0.0,1.0,1.0,0.0,5.0,5.0,586.5293739989283,5.0,1.0,phase_2,go,400.0,500.0,1.0,,,,,,,,,white,cross
0.0,3.0,3.0,0.0,5.0,5.0,699.6394950001559,5.0,1.0,phase_2,go,400.0,500.0,1.0,,,,,,,,,green,circle
0.0,5.0,1.0,1.0,6.0,6.0,606.5017319997423,5.0,1.0,phase_2,go,400.0,500.0,1.0,,,,,,,,,yellow,square
0.0,8.0,4.0,1.0,5.0,5.0,466.8532110008527,5.0,1.0,phase_2,stop,400.0,500.0,3.0,,,,,,,,,blue,triangle
0.0,5.0,1.0,1.0,6.0,6.0,597.6127419999102,5.0,1.0,phase_2,stop,350.0,500.0,3.0,,,,,,,,,yellow,square
0.0,8.0,4.0,1.0,6.0,0.0,0.0,5.0,1.0,phase_2,stop,350.0,450.0,4.0,,,,,,,,,blue,triangle
0.0,5.0,1.0,1.0,5.0,5.0,684.2042979988037,5.0,1.0,phase_2,go,350.0,500.0,1.0,,,,,,,,,yellow,square
0.0,3.0,3.0,0.0,6.0,6.0,928.6921259990776,5.0,1.0,phase_2,go,350.0,500.0,1.0,,,,,,,,,green,circle
0.0,6.0,2.0,1.0,6.0,0.0,0.0,5.0,1.0,phase_2,stop,350.0,500.0,4.0,,,,,,,,,magenta,I
0.0,7.0,3.0,1.0,6.0,6.0,623.3086290012579,5.0,1.0,phase_2,go,350.0,550.0,1.0,,,,,,,,,gray,diamond
0.0,6.0,2.0,1.0,5.0,0.0,0.0,5.0,1.0,phase_2,stop,350.0,550.0,4.0,,,,,,,,,magenta,I
0.0,3.0,3.0,0.0,5.0,5.0,652.3717529998976,5.0,1.0,phase_2,go,400.0,550.0,1.0,,,,,,,,,green,circle
0.0,4.0,4.0,0.0,5.0,5.0,366.5081500002998,5.0,1.0,phase_2,go,400.0,550.0,1.0,,,,,,,,,cyan,flipped triangle
0.0,7.0,3.0,1.0,6.0,6.0,745.4822020008578,5.0,1.0,phase_2,stop,400.0,550.0,3.0,,,,,,,,,gray,diamond
0.0,6.0,2.0,1.0,6.0,0.0,0.0,5.0,1.0,phase_2,stop,400.0,500.0,4.0,,,,,,,,,magenta,I
0.0,5.0,1.0,1.0,6.0,6.0,630.7591020013206,5.0,1.0,phase_2,go,400.0,550.0,1.0,,,,,,,,,yellow,square
0.0,3.0,3.0,0.0,6.0,6.0,700.2337939993595,5.0,1.0,phase_2,go,400.0,550.0,1.0,,,,,,,,,green,circle
0.0,1.0,1.0,0.0,5.0,5.0,708.7258909996308,5.0,1.0,phase_2,go,400.0,550.0,1.0,,,,,,,,,white,cross
0.0,7.0,3.0,1.0,5.0,5.0,670.6708700003219,5.0,1.0,phase_2,go,400.0,550.0,1.0,,,,,,,,,gray,diamond
0.0,7.0,3.0,1.0,5.0,0.0,0.0,5.0,1.0,phase_2,stop,400.0,550.0,4.0,,,,,,,,,gray,diamond
0.0,2.0,2.0,0.0,6.0,6.0,502.69358299919986,5.0,1.0,phase_2,go,450.0,550.0,1.0,,,,,,,,,orange,hexagon
0.0,7.0,3.0,1.0,6.0,6.0,476.1496159990201,5.0,1.0,phase_2,stop,450.0,550.0,3.0,,,,,,,,,gray,diamond
0.0,7.0,3.0,1.0,5.0,5.0,623.3435489994008,5.0,1.0,phase_2,go,450.0,500.0,1.0,,,,,,,,,gray,diamond
0.0,3.0,3.0,0.0,6.0,6.0,588.0332349988748,5.0,1.0,phase_2,go,450.0,500.0,1.0,,,,,,,,,green,circle
0.0,3.0,3.0,0.0,6.0,6.0,631.318054998701,5.0,1.0,phase_2,go,450.0,500.0,1.0,,,,,,,,,green,circle
0.0,2.0,2.0,0.0,6.0,6.0,465.0533120002365,5.0,1.0,phase_2,go,450.0,500.0,1.0,,,,,,,,,orange,hexagon
0.0,5.0,1.0,1.0,6.0,6.0,539.8074040022038,6.0,1.0,phase_2,stop,450.0,500.0,3.0,,,,,,,,,yellow,square
0.0,7.0,3.0,1.0,6.0,6.0,563.9531910019286,6.0,1.0,phase_2,stop,450.0,450.0,3.0,,,,,,,,,gray,diamond
0.0,5.0,1.0,1.0,6.0,6.0,601.0042550005892,6.0,1.0,phase_2,go,450.0,400.0,1.0,,,,,,,,,yellow,square
0.0,6.0,2.0,1.0,5.0,0.0,0.0,6.0,1.0,phase_2,stop,450.0,400.0,4.0,,,,,,,,,magenta,I
0.0,7.0,3.0,1.0,6.0,0.0,0.0,6.0,1.0,phase_2,stop,500.0,400.0,4.0,,,,,,,,,gray,diamond
0.0,6.0,2.0,1.0,6.0,6.0,605.8257420008886,6.0,1.0,phase_2,go,500.0,450.0,1.0,,,,,,,,,magenta,I
0.0,7.0,3.0,1.0,5.0,0.0,0.0,6.0,1.0,phase_2,stop,500.0,450.0,4.0,,,,,,,,,gray,diamond
0.0,2.0,2.0,0.0,6.0,6.0,560.8655899995938,6.0,1.0,phase_2,go,550.0,450.0,1.0,,,,,,,,,orange,hexagon
0.0,7.0,3.0,1.0,6.0,0.0,0.0,6.0,1.0,phase_2,stop,550.0,450.0,4.0,,,,,,,,,gray,diamond
0.0,1.0,1.0,0.0,5.0,5.0,326.5342509985203,6.0,1.0,phase_2,go,550.0,500.0,1.0,,,,,,,,,white,cross
0.0,5.0,1.0,1.0,6.0,6.0,703.7583000019367,6.0,1.0,phase_2,go,550.0,500.0,1.0,,,,,,,,,yellow,square
0.0,3.0,3.0,0.0,5.0,5.0,548.9708890017937,6.0,1.0,phase_2,go,550.0,500.0,1.0,,,,,,,,,green,circle
0.0,8.0,4.0,1.0,5.0,5.0,612.5730630010366,6.0,1.0,phase_2,stop,550.0,500.0,3.0,,,,,,,,,blue,triangle
0.0,3.0,3.0,0.0,5.0,5.0,761.4142169986735,6.0,1.0,phase_2,go,500.0,500.0,1.0,,,,,,,,,green,circle
0.0,8.0,4.0,1.0,6.0,6.0,619.2118399994797,6.0,1.0,phase_2,stop,500.0,500.0,3.0,,,,,,,,,blue,triangle
0.0,7.0,3.0,1.0,6.0,6.0,886.5229610019014,6.0,1.0,phase_2,go,500.0,450.0,1.0,,,,,,,,,gray,diamond
0.0,8.0,4.0,1.0,6.0,0.0,0.0,6.0,1.0,phase_2,stop,500.0,450.0,4.0,,,,,,,,,blue,triangle
0.0,6.0,2.0,1.0,6.0,0.0,0.0,6.0,1.0,phase_2,stop,500.0,500.0,4.0,,,,,,,,,magenta,I
0.0,6.0,2.0,1.0,5.0,5.0,404.3530070011911,6.0,1.0,phase_2,stop,500.0,550.0,3.0,,,,,,,,,magenta,I
0.0,3.0,3.0,0.0,5.0,5.0,618.047927000589,6.0,1.0,phase_2,go,450.0,550.0,1.0,,,,,,,,,green,circle
0.0,7.0,3.0,1.0,5.0,5.0,382.0785799980513,6.0,1.0,phase_2,stop,450.0,550.0,3.0,,,,,,,,,gray,diamond
0.0,3.0,3.0,0.0,5.0,5.0,693.6128189990995,6.0,1.0,phase_2,go,400.0,550.0,1.0,,,,,,,,,green,circle
0.0,4.0,4.0,0.0,6.0,6.0,686.3698960005422,6.0,1.0,phase_2,go,400.0,550.0,1.0,,,,,,,,,cyan,flipped triangle
0.0,8.0,4.0,1.0,6.0,6.0,641.7076869984157,6.0,1.0,phase_2,stop,400.0,550.0,3.0,,,,,,,,,blue,triangle
0.0,8.0,4.0,1.0,5.0,5.0,674.2371010004717,6.0,1.0,phase_2,go,400.0,500.0,1.0,,,,,,,,,blue,triangle
0.0,5.0,1.0,1.0,6.0,0.0,0.0,6.0,1.0,phase_2,stop,400.0,500.0,4.0,,,,,,,,,yellow,square
0.0,6.0,2.0,1.0,6.0,6.0,617.9972470017674,6.0,1.0,phase_2,go,400.0,550.0,1.0,,,,,,,,,magenta,I
0.0,8.0,4.0,1.0,5.0,5.0,810.5822860015905,6.0,1.0,phase_2,go,400.0,550.0,1.0,,,,,,,,,blue,triangle
0.0,2.0,2.0,0.0,5.0,5.0,617.5369989978208,6.0,1.0,phase_2,go,400.0,550.0,1.0,,,,,,,,,orange,hexagon
0.0,1.0,1.0,0.0,5.0,5.0,704.0680310019525,6.0,1.0,phase_2,go,400.0,550.0,1.0,,,,,,,,,white,cross
0.0,1.0,1.0,0.0,6.0,6.0,683.5540719985147,6.0,1.0,phase_2,go,400.0,550.0,1.0,,,,,,,,,white,cross
0.0,6.0,2.0,1.0,5.0,0.0,0.0,6.0,1.0,phase_2,stop,400.0,550.0,4.0,,,,,,,,,magenta,I
0.0,8.0,4.0,1.0,6.0,6.0,582.0250490032777,6.0,1.0,phase_2,stop,450.0,550.0,3.0,,,,,,,,,blue,triangle
0.0,1.0,1.0,0.0,6.0,6.0,779.0081109997118,6.0,1.0,phase_2,go,450.0,500.0,1.0,,,,,,,,,white,cross
0.0,5.0,1.0,1.0,6.0,6.0,653.7984329988831,6.0,1.0,phase_2,stop,450.0,500.0,3.0,,,,,,,,,yellow,square
0.0,7.0,3.0,1.0,5.0,0.0,0.0,6.0,1.0,phase_2,stop,450.0,450.0,4.0,,,,,,,,,gray,diamond
0.0,2.0,2.0,0.0,5.0,5.0,443.737637000595,7.0,1.0,phase_2,go,500.0,450.0,1.0,,,,,,,,,orange,hexagon
0.0,4.0,4.0,0.0,5.0,5.0,440.9892590010713,7.0,1.0,phase_2,go,500.0,450.0,1.0,,,,,,,,,cyan,flipped triangle
0.0,6.0,2.0,1.0,6.0,0.0,0.0,7.0,1.0,phase_2,stop,500.0,450.0,4.0,,,,,,,,,magenta,I
0.0,6.0,2.0,1.0,5.0,5.0,616.5879420004785,7.0,1.0,phase_2,stop,500.0,500.0,3.0,,,,,,,,,magenta,I
0.0,6.0,2.0,1.0,6.0,0.0,0.0,7.0,1.0,phase_2,stop,450.0,500.0,4.0,,,,,,,,,magenta,I
0.0,3.0,3.0,0.0,5.0,5.0,579.8121410007298,7.0,1.0,phase_2,go,450.0,550.0,1.0,,,,,,,,,green,circle
0.0,8.0,4.0,1.0,5.0,5.0,586.7057159994147,7.0,1.0,phase_2,stop,450.0,550.0,3.0,,,,,,,,,blue,triangle
0.0,8.0,4.0,1.0,5.0,5.0,628.3082580011978,7.0,1.0,phase_2,go,400.0,550.0,1.0,,,,,,,,,blue,triangle
0.0,4.0,4.0,0.0,6.0,6.0,571.4450899977237,7.0,1.0,phase_2,go,400.0,550.0,1.0,,,,,,,,,cyan,flipped triangle
0.0,5.0,1.0,1.0,5.0,5.0,663.1573859995115,7.0,1.0,phase_2,go,400.0,550.0,1.0,,,,,,,,,yellow,square
0.0,1.0,1.0,0.0,5.0,5.0,619.9639449987444,7.0,1.0,phase_2,go,400.0,550.0,1.0,,,,,,,,,white,cross
0.0,7.0,3.0,1.0,6.0,6.0,581.304071998602,7.0,1.0,phase_2,stop,400.0,550.0,3.0,,,,,,,,,gray,diamond
0.0,7.0,3.0,1.0,5.0,0.0,0.0,7.0,1.0,phase_2,stop,400.0,500.0,4.0,,,,,,,,,gray,diamond
0.0,5.0,1.0,1.0,6.0,6.0,648.1690919972607,7.0,1.0,phase_2,stop,450.0,500.0,3.0,,,,,,,,,yellow,square
0.0,4.0,4.0,0.0,5.0,5.0,520.1367400004528,7.0,1.0,phase_2,go,450.0,450.0,1.0,,,,,,,,,cyan,flipped triangle
0.0,4.0,4.0,0.0,6.0,6.0,630.2107139999862,7.0,1.0,phase_2,go,450.0,450.0,1.0,,,,,,,,,cyan,flipped triangle
0.0,1.0,1.0,0.0,6.0,6.0,434.6141050009464,7.0,1.0,phase_2,go,450.0,450.0,1.0,,,,,,,,,white,cross
0.0,1.0,1.0,0.0,6.0,6.0,650.9033879992785,7.0,1.0,phase_2,go,450.0,450.0,1.0,,,,,,,,,white,cross
0.0,3.0,3.0,0.0,6.0,6.0,760.1831149986538,7.0,1.0,phase_2,go,450.0,450.0,1.0,,,,,,,,,green,circle
0.0,2.0,2.0,0.0,5.0,5.0,721.2867229973199,7.0,1.0,phase_2,go,450.0,450.0,1.0,,,,,,,,,orange,hexagon
0.0,2.0,2.0,0.0,6.0,6.0,588.5437569995702,7.0,1.0,phase_2,go,450.0,450.0,1.0,,,,,,,,,orange,hexagon
0.0,6.0,2.0,1.0,5.0,5.0,726.4165330016112,7.0,1.0,phase_2,go,450.0,450.0,1.0,,,,,,,,,magenta,I
0.0,8.0,4.0,1.0,5.0,0.0,0.0,7.0,1.0,phase_2,stop,450.0,450.0,4.0,,,,,,,,,blue,triangle
0.0,7.0,3.0,1.0,5.0,5.0,664.304711001023,7.0,1.0,phase_2,stop,500.0,450.0,3.0,,,,,,,,,gray,diamond
0.0,1.0,1.0,0.0,5.0,5.0,714.6410879977338,7.0,1.0,phase_2,go,450.0,450.0,1.0,,,,,,,,,white,cross
0.0,8.0,4.0,1.0,5.0,0.0,0.0,7.0,1.0,phase_2,stop,450.0,450.0,4.0,,,,,,,,,blue,triangle
0.0,2.0,2.0,0.0,5.0,5.0,772.4135419994127,7.0,1.0,phase_2,go,500.0,450.0,1.0,,,,,,,,,orange,hexagon
0.0,6.0,2.0,1.0,5.0,0.0,0.0,7.0,1.0,phase_2,stop,500.0,450.0,4.0,,,,,,,,,magenta,I
0.0,6.0,2.0,1.0,5.0,5.0,678.1872350002232,7.0,1.0,phase_2,stop,550.0,450.0,3.0,,,,,,,,,magenta,I
0.0,6.0,2.0,1.0,5.0,5.0,593.3920909992594,7.0,1.0,phase_2,stop,500.0,450.0,3.0,,,,,,,,,magenta,I
0.0,2.0,2.0,0.0,5.0,5.0,829.2335350015492,7.0,1.0,phase_2,go,450.0,450.0,1.0,,,,,,,,,orange,hexagon
0.0,1.0,1.0,0.0,6.0,6.0,497.8166299988515,7.0,1.0,phase_2,go,450.0,450.0,1.0,,,,,,,,,white,cross
0.0,8.0,4.0,1.0,5.0,5.0,596.4102590005496,7.0,1.0,phase_2,stop,450.0,450.0,3.0,,,,,,,,,blue,triangle
0.0,5.0,1.0,1.0,5.0,5.0,550.0772019986471,7.0,1.0,phase_2,stop,400.0,450.0,3.0,,,,,,,,,yellow,square
0.0,4.0,4.0,0.0,5.0,5.0,679.2070820010849,7.0,1.0,phase_2,go,350.0,450.0,1.0,,,,,,,,,cyan,flipped triangle
0.0,4.0,4.0,0.0,5.0,5.0,671.001905000594,7.0,1.0,phase_2,go,350.0,450.0,1.0,,,,,,,,,cyan,flipped triangle
0.0,8.0,4.0,1.0,6.0,6.0,491.1255300030461,8.0,1.0,phase_2,stop,350.0,450.0,3.0,,,,,,,,,blue,triangle
0.0,4.0,4.0,0.0,6.0,6.0,700.7736519990431,8.0,1.0,phase_2,go,350.0,400.0,1.0,,,,,,,,,cyan,flipped triangle
0.0,4.0,4.0,0.0,6.0,6.0,598.5529579993454,8.0,1.0,phase_2,go,350.0,400.0,1.0,,,,,,,,,cyan,flipped triangle
0.0,8.0,4.0,1.0,6.0,0.0,0.0,8.0,1.0,phase_2,stop,350.0,400.0,4.0,,,,,,,,,blue,triangle
0.0,6.0,2.0,1.0,5.0,5.0,820.3650180003024,8.0,1.0,phase_2,go,350.0,450.0,1.0,,,,,,,,,magenta,I
0.0,3.0,3.0,0.0,5.0,5.0,709.5621529988421,8.0,1.0,phase_2,go,350.0,450.0,1.0,,,,,,,,,green,circle
0.0,2.0,2.0,0.0,5.0,5.0,471.5508570006932,8.0,1.0,phase_2,go,350.0,450.0,1.0,,,,,,,,,orange,hexagon
0.0,3.0,3.0,0.0,5.0,5.0,391.3133409987495,8.0,1.0,phase_2,go,350.0,450.0,1.0,,,,,,,,,green,circle
0.0,3.0,3.0,0.0,5.0,5.0,304.3302859987307,8.0,1.0,phase_2,go,350.0,450.0,1.0,,,,,,,,,green,circle
0.0,8.0,4.0,1.0,6.0,6.0,656.1078260019713,8.0,1.0,phase_2,go,350.0,450.0,1.0,,,,,,,,,blue,triangle
0.0,6.0,2.0,1.0,5.0,5.0,646.6977539967047,8.0,1.0,phase_2,go,350.0,450.0,1.0,,,,,,,,,magenta,I
0.0,7.0,3.0,1.0,5.0,0.0,0.0,8.0,1.0,phase_2,stop,350.0,450.0,4.0,,,,,,,,,gray,diamond
0.0,4.0,4.0,0.0,5.0,5.0,593.8341699984448,8.0,1.0,phase_2,go,400.0,450.0,1.0,,,,,,,,,cyan,flipped triangle
0.0,6.0,2.0,1.0,6.0,0.0,0.0,8.0,1.0,phase_2,stop,400.0,450.0,4.0,,,,,,,,,magenta,I
0.0,4.0,4.0,0.0,6.0,6.0,605.8899349991407,8.0,1.0,phase_2,go,400.0,500.0,1.0,,,,,,,,,cyan,flipped triangle
0.0,7.0,3.0,1.0,5.0,0.0,0.0,8.0,1.0,phase_2,stop,400.0,500.0,4.0,,,,,,,,,gray,diamond
0.0,2.0,2.0,0.0,6.0,6.0,662.1470430000045,8.0,1.0,phase_2,go,450.0,500.0,1.0,,,,,,,,,orange,hexagon
0.0,7.0,3.0,1.0,6.0,6.0,791.7842679999012,8.0,1.0,phase_2,go,450.0,500.0,1.0,,,,,,,,,gray,diamond
0.0,6.0,2.0,1.0,6.0,6.0,419.9558180007443,8.0,1.0,phase_2,stop,450.0,500.0,3.0,,,,,,,,,magenta,I
0.0,6.0,2.0,1.0,6.0,0.0,0.0,8.0,1.0,phase_2,stop,450.0,450.0,4.0,,,,,,,,,magenta,I
0.0,4.0,4.0,0.0,5.0,5.0,605.2869480008667,8.0,1.0,phase_2,go,450.0,500.0,1.0,,,,,,,,,cyan,flipped triangle
0.0,2.0,2.0,0.0,5.0,5.0,626.5842100001464,8.0,1.0,phase_2,go,450.0,500.0,1.0,,,,,,,,,orange,hexagon
0.0,4.0,4.0,0.0,5.0,5.0,449.0449719996832,8.0,1.0,phase_2,go,450.0,500.0,1.0,,,,,,,,,cyan,flipped triangle
0.0,2.0,2.0,0.0,5.0,5.0,681.9354069994006,8.0,1.0,phase_2,go,450.0,500.0,1.0,,,,,,,,,orange,hexagon
0.0,6.0,2.0,1.0,6.0,6.0,691.630322002311,8.0,1.0,phase_2,stop,450.0,500.0,3.0,,,,,,,,,magenta,I
0.0,8.0,4.0,1.0,5.0,0.0,0.0,8.0,1.0,phase_2,stop,450.0,450.0,4.0,,,,,,,,,blue,triangle
0.0,7.0,3.0,1.0,6.0,0.0,0.0,8.0,1.0,phase_2,stop,500.0,450.0,4.0,,,,,,,,,gray,diamond
0.0,1.0,1.0,0.0,5.0,5.0,675.5689410019841,8.0,1.0,phase_2,go,500.0,500.0,1.0,,,,,,,,,white,cross
0.0,2.0,2.0,0.0,5.0,5.0,691.5984700026456,8.0,1.0,phase_2,go,500.0,500.0,1.0,,,,,,,,,orange,hexagon
0.0,6.0,2.0,1.0,5.0,0.0,0.0,8.0,1.0,phase_2,stop,500.0,500.0,4.0,,,,,,,,,magenta,I
0.0,4.0,4.0,0.0,6.0,6.0,651.5550759977486,8.0,1.0,phase_2,go,550.0,500.0,1.0,,,,,,,,,cyan,flipped triangle
0.0,1.0,1.0,0.0,5.0,5.0,954.046221999306,8.0,1.0,phase_2,go,550.0,500.0,1.0,,,,,,,,,white,cross
0.0,2.0,2.0,0.0,6.0,6.0,620.1721129982616,8.0,1.0,phase_2,go,550.0,500.0,1.0,,,,,,,,,orange,hexagon
0.0,5.0,1.0,1.0,6.0,0.0,0.0,8.0,1.0,phase_2,stop,550.0,500.0,4.0,,,,,,,,,yellow,square
0.0,7.0,3.0,1.0,6.0,6.0,635.6199489964638,8.0,1.0,phase_2,stop,550.0,550.0,3.0,,,,,,,,,gray,diamond
0.0,6.0,2.0,1.0,6.0,0.0,0.0,8.0,1.0,phase_2,stop,550.0,500.0,4.0,,,,,,,,,magenta,I
0.0,2.0,2.0,0.0,7.0,1.0,4828.0712670020885,1.0,1.0,phase_3,,,,,176.0,4.0,176.0,220.0,264.0,88.0,132.0,44.0,orange,hexagon
0.0,5.0,1.0,1.0,7.0,3.0,2876.2267050005903,1.0,1.0,phase_3,,,,,324.0,6.0,108.0,54.0,324.0,270.0,162.0,216.0,yellow,square
0.0,7.0,3.0,1.0,7.0,1.0,3313.145219002763,1.0,1.0,phase_3,,,,,102.0,3.0,102.0,68.0,170.0,34.0,136.0,204.0,gray,diamond
0.0,2.0,2.0,0.0,7.0,2.0,3267.7427970011195,1.0,1.0,phase_3,,,,,196.0,4.0,98.0,196.0,49.0,294.0,245.0,147.0,orange,hexagon
0.0,5.0,1.0,1.0,7.0,2.0,3366.589960998681,1.0,1.0,phase_3,,,,,270.0,5.0,108.0,270.0,324.0,216.0,54.0,162.0,yellow,square
0.0,6.0,2.0,1.0,7.0,1.0,3088.0062690011982,1.0,1.0,phase_3,,,,,195.0,5.0,195.0,234.0,39.0,156.0,117.0,78.0,magenta,I
0.0,3.0,3.0,0.0,7.0,5.0,1595.6867130007597,1.0,1.0,phase_3,,,,,98.0,2.0,294.0,49.0,245.0,147.0,98.0,196.0,green,circle
0.0,8.0,4.0,1.0,7.0,6.0,1820.2886569997645,1.0,1.0,phase_3,,,,,234.0,6.0,156.0,117.0,78.0,195.0,39.0,234.0,blue,triangle
0.0,1.0,1.0,0.0,7.0,1.0,2495.9082239984127,1.0,1.0,phase_3,,,,,147.0,3.0,147.0,294.0,49.0,245.0,98.0,196.0,white,cross
0.0,8.0,4.0,1.0,7.0,5.0,2556.838033000531,1.0,1.0,phase_3,,,,,204.0,6.0,102.0,170.0,136.0,68.0,204.0,34.0,blue,triangle
0.0,8.0,4.0,1.0,7.0,5.0,1806.2329210006285,1.0,1.0,phase_3,,,,,294.0,6.0,147.0,196.0,49.0,245.0,294.0,98.0,blue,triangle
0.0,4.0,4.0,0.0,7.0,6.0,2108.382785001595,1.0,1.0,phase_3,,,,,176.0,4.0,264.0,132.0,88.0,220.0,44.0,176.0,cyan,flipped triangle
0.0,3.0,3.0,0.0,7.0,5.0,3351.862624000205,1.0,1.0,phase_3,,,,,220.0,5.0,176.0,132.0,264.0,44.0,220.0,88.0,green,circle
0.0,1.0,1.0,0.0,7.0,4.0,2183.7796609979705,1.0,1.0,phase_3,,,,,108.0,2.0,54.0,324.0,216.0,108.0,270.0,162.0,white,cross
0.0,1.0,1.0,0.0,7.0,2.0,2003.1308799989347,1.0,1.0,phase_3,,,,,117.0,3.0,78.0,117.0,234.0,195.0,39.0,156.0,white,cross
0.0,7.0,3.0,1.0,7.0,1.0,3487.217021000106,1.0,1.0,phase_3,,,,,196.0,4.0,196.0,147.0,245.0,49.0,98.0,294.0,gray,diamond
0.0,4.0,4.0,0.0,7.0,5.0,3022.977747998084,1.0,1.0,phase_3,,,,,195.0,5.0,117.0,78.0,234.0,39.0,195.0,156.0,cyan,flipped triangle
0.0,8.0,4.0,1.0,7.0,3.0,2195.3200540010585,1.0,1.0,phase_3,,,,,220.0,5.0,132.0,88.0,220.0,264.0,176.0,44.0,blue,triangle
0.0,2.0,2.0,0.0,7.0,6.0,2284.749020000163,1.0,1.0,phase_3,,,,,156.0,4.0,78.0,195.0,39.0,234.0,117.0,156.0,orange,hexagon
0.0,2.0,2.0,0.0,7.0,4.0,1395.746969999891,1.0,1.0,phase_3,,,,,156.0,4.0,78.0,195.0,117.0,156.0,39.0,234.0,orange,hexagon
0.0,4.0,4.0,0.0,7.0,5.0,1294.4615890010027,2.0,1.0,phase_3,,,,,196.0,4.0,98.0,294.0,147.0,49.0,196.0,245.0,cyan,flipped triangle
0.0,4.0,4.0,0.0,7.0,5.0,1551.6431469986856,2.0,1.0,phase_3,,,,,195.0,5.0,39.0,156.0,234.0,78.0,195.0,117.0,cyan,flipped triangle
0.0,7.0,3.0,1.0,7.0,5.0,2191.0383909998927,2.0,1.0,phase_3,,,,,176.0,4.0,44.0,88.0,264.0,132.0,176.0,220.0,gray,diamond
0.0,8.0,4.0,1.0,7.0,2.0,1647.8744029991503,2.0,1.0,phase_3,,,,,204.0,6.0,68.0,204.0,102.0,34.0,170.0,136.0,blue,triangle
0.0,6.0,2.0,1.0,7.0,6.0,3019.847020997986,2.0,1.0,phase_3,,,,,245.0,5.0,147.0,196.0,49.0,98.0,294.0,245.0,magenta,I
0.0,6.0,2.0,1.0,7.0,6.0,1995.906690000993,2.0,1.0,phase_3,,,,,170.0,5.0,102.0,68.0,34.0,204.0,136.0,170.0,magenta,I
0.0,5.0,1.0,1.0,7.0,2.0,2245.497642998089,2.0,1.0,phase_3,,,,,102.0,3.0,136.0,102.0,170.0,204.0,68.0,34.0,yellow,square
0.0,3.0,3.0,0.0,7.0,2.0,1296.4891080009693,2.0,1.0,phase_3,,,,,170.0,5.0,102.0,170.0,34.0,204.0,68.0,136.0,green,circle
0.0,5.0,1.0,1.0,7.0,4.0,3409.316024997679,2.0,1.0,phase_3,,,,,195.0,5.0,117.0,156.0,234.0,195.0,78.0,39.0,yellow,square
0.0,6.0,2.0,1.0,7.0,5.0,2269.9368569992657,2.0,1.0,phase_3,,,,,162.0,3.0,54.0,324.0,270.0,108.0,162.0,216.0,magenta,I
0.0,3.0,3.0,0.0,7.0,6.0,3271.103469996888,2.0,1.0,phase_3,,,,,220.0,5.0,132.0,88.0,44.0,264.0,176.0,220.0,green,circle
0.0,3.0,3.0,0.0,7.0,5.0,1560.4635140007304,2.0,1.0,phase_3,,,,,245.0,5.0,98.0,294.0,49.0,147.0,245.0,196.0,green,circle
0.0,3.0,3.0,0.0,7.0,2.0,2480.8252939983504,2.0,1.0,phase_3,,,,,204.0,6.0,68.0,204.0,102.0,136.0,170.0,34.0,green,circle
0.0,5.0,1.0,1.0,7.0,6.0,1802.5994370000265,2.0,1.0,phase_3,,,,,220.0,5.0,44.0,132.0,88.0,176.0,264.0,220.0,yellow,square
0.0,1.0,1.0,0.0,7.0,2.0,1950.4018719999292,2.0,1.0,phase_3,,,,,108.0,2.0,324.0,108.0,162.0,54.0,216.0,270.0,white,cross
0.0,1.0,1.0,0.0,7.0,1.0,2595.626664999145,2.0,1.0,phase_3,,,,,147.0,3.0,147.0,294.0,98.0,196.0,245.0,49.0,white,cross
0.0,6.0,2.0,1.0,7.0,4.0,2935.1702380008646,2.0,1.0,phase_3,,,,,196.0,4.0,147.0,98.0,49.0,196.0,245.0,294.0,magenta,I
0.0,4.0,4.0,0.0,7.0,2.0,2882.4682910017145,2.0,1.0,phase_3,,,,,270.0,5.0,108.0,270.0,216.0,324.0,162.0,54.0,cyan,flipped triangle
0.0,4.0,4.0,0.0,7.0,2.0,4322.583723002026,2.0,1.0,phase_3,,,,,170.0,5.0,204.0,170.0,68.0,102.0,136.0,34.0,cyan,flipped triangle
0.0,6.0,2.0,1.0,7.0,5.0,1582.2896850004329,2.0,1.0,phase_3,,,,,220.0,5.0,176.0,88.0,44.0,264.0,220.0,132.0,magenta,I
0.0,1.0,1.0,0.0,7.0,2.0,2600.3605849982705,3.0,1.0,phase_3,,,,,88.0,2.0,264.0,88.0,44.0,220.0,132.0,176.0,white,cross
0.0,4.0,4.0,0.0,7.0,6.0,1729.9103649966128,3.0,1.0,phase_3,,,,,132.0,3.0,264.0,220.0,176.0,44.0,88.0,132.0,cyan,flipped triangle
0.0,3.0,3.0,0.0,7.0,6.0,3609.708183001203,3.0,1.0,phase_3,,,,,216.0,4.0,162.0,108.0,54.0,270.0,324.0,216.0,green,circle
0.0,7.0,3.0,1.0,7.0,3.0,2384.9044859998685,3.0,1.0,phase_3,,,,,195.0,5.0,78.0,234.0,195.0,156.0,117.0,39.0,gray,diamond
0.0,1.0,1.0,0.0,7.0,4.0,1747.1121630005657,3.0,1.0,phase_3,,,,,102.0,3.0,68.0,170.0,34.0,102.0,136.0,204.0,white,cross
0.0,2.0,2.0,0.0,7.0,6.0,1614.8170650012617,3.0,1.0,phase_3,,,,,170.0,5.0,204.0,68.0,136.0,34.0,102.0,170.0,orange,hexagon
0.0,8.0,4.0,1.0,7.0,2.0,2491.001516998949,3.0,1.0,phase_3,,,,,270.0,5.0,162.0,270.0,324.0,216.0,108.0,54.0,blue,triangle
0.0,7.0,3.0,1.0,7.0,4.0,1971.777798000403,3.0,1.0,phase_3,,,,,147.0,3.0,245.0,294.0,98.0,147.0,49.0,196.0,gray,diamond
0.0,1.0,1.0,0.0,7.0,1.0,3594.89270999984,3.0,1.0,phase_3,,,,,102.0,3.0,102.0,34.0,136.0,204.0,170.0,68.0,white,cross
0.0,6.0,2.0,1.0,7.0,2.0,2924.669639000058,3.0,1.0,phase_3,,,,,216.0,4.0,54.0,216.0,324.0,270.0,108.0,162.0,magenta,I
0.0,6.0,2.0,1.0,7.0,3.0,3151.745191000373,3.0,1.0,phase_3,,,,,170.0,5.0,204.0,136.0,170.0,102.0,34.0,68.0,magenta,I
0.0,3.0,3.0,0.0,7.0,1.0,3619.772835998447,3.0,1.0,phase_3,,,,,270.0,5.0,270.0,54.0,216.0,324.0,162.0,108.0,green,circle
0.0,5.0,1.0,1.0,7.0,3.0,2032.7510999995866,3.0,1.0,phase_3,,,,,220.0,5.0,88.0,264.0,220.0,176.0,44.0,132.0,yellow,square
0.0,5.0,1.0,1.0,7.0,1.0,1832.8586440002252,3.0,1.0,phase_3,,,,,204.0,6.0,204.0,68.0,136.0,170.0,34.0,102.0,yellow,square
0.0,5.0,1.0,1.0,7.0,4.0,2361.022576002142,3.0,1.0,phase_3,,,,,245.0,5.0,147.0,49.0,98.0,245.0,196.0,294.0,yellow,square
0.0,7.0,3.0,1.0,7.0,3.0,1465.0580840025214,3.0,1.0,phase_3,,,,,117.0,3.0,234.0,39.0,117.0,195.0,78.0,156.0,gray,diamond
0.0,2.0,2.0,0.0,7.0,3.0,1550.0143980025314,3.0,1.0,phase_3,,,,,216.0,4.0,108.0,162.0,216.0,54.0,270.0,324.0,orange,hexagon
0.0,2.0,2.0,0.0,7.0,4.0,2067.8426200029207,3.0,1.0,phase_3,,,,,270.0,5.0,216.0,324.0,54.0,270.0,108.0,162.0,orange,hexagon
0.0,7.0,3.0,1.0,7.0,2.0,2764.5428370015,3.0,1.0,phase_3,,,,,170.0,5.0,34.0,170.0,136.0,204.0,68.0,102.0,gray,diamond
0.0,2.0,2.0,0.0,7.0,2.0,3048.9696429976902,3.0,1.0,phase_3,,,,,196.0,4.0,49.0,196.0,147.0,245.0,294.0,98.0,orange,hexagon
0.0,4.0,4.0,0.0,7.0,5.0,2487.2445260007225,4.0,1.0,phase_3,,,,,216.0,4.0,270.0,54.0,162.0,108.0,216.0,324.0,cyan,flipped triangle
0.0,6.0,2.0,1.0,7.0,3.0,2124.3869780009845,4.0,1.0,phase_3,,,,,176.0,4.0,88.0,44.0,176.0,220.0,264.0,132.0,magenta,I
0.0,2.0,2.0,0.0,7.0,2.0,2808.25987299977,4.0,1.0,phase_3,,,,,170.0,5.0,34.0,170.0,204.0,136.0,68.0,102.0,orange,hexagon
0.0,7.0,3.0,1.0,7.0,1.0,2375.2129380009137,4.0,1.0,phase_3,,,,,132.0,3.0,132.0,264.0,88.0,44.0,176.0,220.0,gray,diamond
0.0,8.0,4.0,1.0,7.0,4.0,1340.671640002256,4.0,1.0,phase_3,,,,,220.0,5.0,176.0,132.0,88.0,220.0,264.0,44.0,blue,triangle
0.0,4.0,4.0,0.0,7.0,2.0,2691.3712579989806,4.0,1.0,phase_3,,,,,204.0,6.0,170.0,204.0,136.0,34.0,68.0,102.0,cyan,flipped triangle
0.0,3.0,3.0,0.0,7.0,1.0,3626.957208998647,4.0,1.0,phase_3,,,,,234.0,6.0,234.0,39.0,78.0,117.0,195.0,156.0,green,circle
0.0,8.0,4.0,1.0,7.0,4.0,1888.1430820001697,4.0,1.0,phase_3,,,,,324.0,6.0,162.0,54.0,270.0,324.0,108.0,216.0,blue,triangle
0.0,2.0,2.0,0.0,7.0,3.0,2271.1004099983256,4.0,1.0,phase_3,,,,,220.0,5.0,264.0,176.0,220.0,88.0,44.0,132.0,orange,hexagon
0.0,1.0,1.0,0.0,7.0,4.0,1943.7088369995763,4.0,1.0,phase_3,,,,,78.0,2.0,39.0,156.0,117.0,78.0,234.0,195.0,white,cross
0.0,8.0,4.0,1.0,7.0,3.0,2938.370512001711,4.0,1.0,phase_3,,,,,234.0,6.0,195.0,39.0,234.0,156.0,117.0,78.0,blue,triangle
0.0,6.0,2.0,1.0,7.0,3.0,2976.544327000738,4.0,1.0,phase_3,,,,,156.0,4.0,78.0,195.0,156.0,39.0,234.0,117.0,magenta,I
0.0,7.0,3.0,1.0,7.0,4.0,4151.1336190014845,4.0,1.0,phase_3,,,,,162.0,3.0,216.0,324.0,54.0,162.0,108.0,270.0,gray,diamond
0.0,7.0,3.0,1.0,7.0,4.0,1434.9033439975756,4.0,1.0,phase_3,,,,,216.0,4.0,270.0,324.0,162.0,216.0,54.0,108.0,gray,diamond
0.0,5.0,1.0,1.0,7.0,1.0,1802.063105002162,4.0,1.0,phase_3,,,,,234.0,6.0,234.0,156.0,195.0,78.0,117.0,39.0,yellow,square
0.0,8.0,4.0,1.0,7.0,4.0,2423.316189000616,4.0,1.0,phase_3,,,,,245.0,5.0,98.0,49.0,294.0,245.0,147.0,196.0,blue,triangle
0.0,5.0,1.0,1.0,7.0,4.0,1959.968918999948,4.0,1.0,phase_3,,,,,98.0,2.0,147.0,196.0,49.0,98.0,294.0,245.0,yellow,square
0.0,1.0,1.0,0.0,7.0,6.0,3686.811369996576,4.0,1.0,phase_3,,,,,220.0,5.0,132.0,176.0,264.0,44.0,88.0,220.0,white,cross
0.0,4.0,4.0,0.0,7.0,6.0,2842.56492500208,4.0,1.0,phase_3,,,,,147.0,3.0,294.0,245.0,98.0,196.0,49.0,147.0,cyan,flipped triangle
0.0,3.0,3.0,0.0,7.0,4.0,2097.260432998155,4.0,1.0,phase_3,,,,,117.0,3.0,39.0,234.0,156.0,117.0,195.0,78.0,green,circle
