raw_reward_magnitude,stim_reward,stepwise_reward_magnitude,paired_with_stopping,stim_location,response,reaction_time,block,num_trial_presentations,which_phase,stop_signal_trial_type,left_SSD,right_SSD,accuracy,chosen_bidding_amount,chosen_bidding_level,possible_bid_1,possible_bid_2,possible_bid_3,possible_bid_4,possible_bid_5,possible_bid_6,color_text,shape_text
200.0,7.0,3.0,1.0,2.0,2.0,358.0491350003285,1.0,1.0,phase_1,,,,,,,,,,,,,yellow,triangle
212.0,3.0,3.0,0.0,2.0,2.0,329.952017999858,1.0,1.0,phase_1,,,,,,,,,,,,,blue,cross
123.0,6.0,2.0,1.0,1.0,1.0,243.7286780000249,1.0,1.0,phase_1,,,,,,,,,,,,,cyan,square
45.0,5.0,1.0,1.0,4.0,4.0,289.0515090002736,1.0,1.0,phase_1,,,,,,,,,,,,,gray,circle
123.0,2.0,2.0,0.0,3.0,3.0,278.4925920000205,1.0,1.0,phase_1,,,,,,,,,,,,,green,hexagon
196.0,3.0,3.0,0.0,3.0,3.0,311.7848560000311,1.0,1.0,phase_1,,,,,,,,,,,,,blue,cross
196.0,7.0,3.0,1.0,2.0,2.0,273.2269840003027,1.0,1.0,phase_1,,,,,,,,,,,,,yellow,triangle
413.0,8.0,4.0,1.0,3.0,3.0,322.3650369995994,1.0,1.0,phase_1,,,,,,,,,,,,,orange,I
189.0,3.0,3.0,0.0,1.0,1.0,373.0138209998586,1.0,2.0,phase_1,,,,,,,,,,,,,blue,cross
201.0,7.0,3.0,1.0,2.0,2.0,326.8750600000203,1.0,1.0,phase_1,,,,,,,,,,,,,yellow,triangle
86.0,2.0,2.0,0.0,1.0,1.0,297.9651390000981,1.0,1.0,phase_1,,,,,,,,,,,,,green,hexagon
123.0,6.0,2.0,1.0,1.0,1.0,316.929070000242,1.0,1.0,phase_1,,,,,,,,,,,,,cyan,square
411.0,8.0,4.0,1.0,1.0,1.0,367.9658029996062,1.0,1.0,phase_1,,,,,,,,,,,,,orange,I
114.0,6.0,2.0,1.0,4.0,4.0,321.4335409998057,1.0,1.0,phase_1,,,,,,,,,,,,,cyan,square
207.0,7.0,3.0,1.0,4.0,4.0,287.0927980002307,1.0,1.0,phase_1,,,,,,,,,,,,,yellow,triangle
86.0,2.0,2.0,0.0,2.0,2.0,296.332662000168,1.0,1.0,phase_1,,,,,,,,,,,,,green,hexagon
86.0,6.0,2.0,1.0,2.0,2.0,321.1885340001572,1.0,1.0,phase_1,,,,,,,,,,,,,cyan,square
0.0,8.0,0.0,1.0,3.0,3.0,336.3997630003723,1.0,1.0,phase_1,,,,,,,,,,,,,orange,I
122.0,2.0,2.0,0.0,2.0,2.0,276.1900189998414,1.0,1.0,phase_1,,,,,,,,,,,,,green,hexagon
0.0,6.0,0.0,1.0,4.0,4.0,284.1762399998515,1.0,1.0,phase_1,,,,,,,,,,,,,cyan,square
402.0,4.0,4.0,0.0,3.0,3.0,281.3780359997508,1.0,1.0,phase_1,,,,,,,,,,,,,magenta,diamond
98.0,2.0,2.0,0.0,4.0,4.0,289.7243689999413,1.0,1.0,phase_1,,,,,,,,,,,,,green,hexagon
115.0,6.0,2.0,1.0,3.0,3.0,294.6073860002798,1.0,1.0,phase_1,,,,,,,,,,,,,cyan,square
86.0,6.0,2.0,1.0,3.0,3.0,319.0780750001067,1.0,1.0,phase_1,,,,,,,,,,,,,cyan,square
187.0,3.0,3.0,0.0,4.0,4.0,296.033718000217,1.0,1.0,phase_1,,,,,,,,,,,,,blue,cross
66.0,5.0,1.0,1.0,1.0,1.0,336.115671999778,1.0,1.0,phase_1,,,,,,,,,,,,,gray,circle
109.0,2.0,2.0,0.0,4.0,4.0,295.9441830003015,1.0,1.0,phase_1,,,,,,,,,,,,,green,hexagon
0.0,7.0,0.0,1.0,4.0,4.0,305.1204650000727,1.0,1.0,phase_1,,,,,,,,,,,,,yellow,triangle
220.0,3.0,3.0,0.0,2.0,2.0,298.2621290002498,1.0,1.0,phase_1,,,,,,,,,,,,,blue,cross
188.0,3.0,3.0,0.0,2.0,2.0,327.4353419997169,1.0,1.0,phase_1,,,,,,,,,,,,,blue,cross
407.0,4.0,4.0,0.0,2.0,2.0,252.213304000179,1.0,1.0,phase_1,,,,,,,,,,,,,magenta,diamond
185.0,7.0,3.0,1.0,2.0,2.0,353.3332370002426,1.0,1.0,phase_1,,,,,,,,,,,,,yellow,triangle
379.0,4.0,4.0,0.0,4.0,4.0,516.2752180003736,1.0,1.0,phase_1,,,,,,,,,,,,,magenta,diamond
423.0,8.0,4.0,1.0,3.0,3.0,310.6990010001027,1.0,1.0,phase_1,,,,,,,,,,,,,orange,I
98.0,6.0,2.0,1.0,2.0,2.0,286.3081909999891,1.0,1.0,phase_1,,,,,,,,,,,,,cyan,square
72.0,5.0,1.0,1.0,1.0,1.0,407.9841489997307,1.0,1.0,phase_1,,,,,,,,,,,,,gray,circle
86.0,6.0,2.0,1.0,4.0,4.0,262.6226400002451,1.0,1.0,phase_1,,,,,,,,,,,,,cyan,square
115.0,2.0,2.0,0.0,4.0,4.0,285.4504160000033,1.0,1.0,phase_1,,,,,,,,,,,,,green,hexagon
45.0,5.0,1.0,1.0,2.0,2.0,240.595561000191,1.0,1.0,phase_1,,,,,,,,,,,,,gray,circle
218.0,7.0,3.0,1.0,1.0,1.0,306.8742820000807,1.0,1.0,phase_1,,,,,,,,,,,,,yellow,triangle
92.0,2.0,2.0,0.0,3.0,3.0,293.7172239999199,1.0,1.0,phase_1,,,,,,,,,,,,,green,hexagon
0.0,8.0,0.0,1.0,1.0,1.0,299.9501099998269,1.0,1.0,phase_1,,,,,,,,,,,,,orange,I
0.0,6.0,0.0,1.0,4.0,4.0,316.5239099998871,1.0,1.0,phase_1,,,,,,,,,,,,,cyan,square
63.0,1.0,1.0,0.0,3.0,3.0,292.3090499998579,1.0,1.0,phase_1,,,,,,,,,,,,,white,flipped triangle
0.0,7.0,0.0,1.0,1.0,1.0,301.8026710001322,1.0,1.0,phase_1,,,,,,,,,,,,,yellow,triangle
404.0,8.0,4.0,1.0,1.0,1.0,383.4919340001761,1.0,1.0,phase_1,,,,,,,,,,,,,orange,I
103.0,6.0,2.0,1.0,2.0,2.0,406.9562750000841,1.0,1.0,phase_1,,,,,,,,,,,,,cyan,square
42.0,1.0,1.0,0.0,1.0,1.0,436.4897579998796,1.0,1.0,phase_1,,,,,,,,,,,,,white,flipped triangle
196.0,7.0,3.0,1.0,3.0,3.0,382.2061450000547,1.0,1.0,phase_1,,,,,,,,,,,,,yellow,triangle
44.0,1.0,1.0,0.0,3.0,3.0,334.2748549998759,1.0,1.0,phase_1,,,,,,,,,,,,,white,flipped triangle
60.0,5.0,1.0,1.0,2.0,2.0,281.6530710001643,1.0,1.0,phase_1,,,,,,,,,,,,,gray,circle
0.0,2.0,0.0,0.0,4.0,4.0,310.2833419998205,1.0,1.0,phase_1,,,,,,,,,,,,,green,hexagon
111.0,2.0,2.0,0.0,4.0,4.0,343.1001670001024,1.0,1.0,phase_1,,,,,,,,,,,,,green,hexagon
394.0,8.0,4.0,1.0,3.0,3.0,362.7924229999735,1.0,1.0,phase_1,,,,,,,,,,,,,orange,I
383.0,4.0,4.0,0.0,2.0,2.0,317.5980060000256,1.0,1.0,phase_1,,,,,,,,,,,,,magenta,diamond
0.0,3.0,0.0,0.0,2.0,2.0,325.6937119999747,1.0,1.0,phase_1,,,,,,,,,,,,,blue,cross
194.0,7.0,3.0,1.0,4.0,4.0,322.0867639997777,1.0,1.0,phase_1,,,,,,,,,,,,,yellow,triangle
194.0,3.0,3.0,0.0,4.0,4.0,329.4396639998922,1.0,1.0,phase_1,,,,,,,,,,,,,blue,cross
0.0,5.0,0.0,1.0,2.0,2.0,305.2960499999244,1.0,1.0,phase_1,,,,,,,,,,,,,gray,circle
379.0,4.0,4.0,0.0,4.0,4.0,314.346968999871,1.0,1.0,phase_1,,,,,,,,,,,,,magenta,diamond
0.0,6.0,0.0,1.0,4.0,4.0,321.6143829999964,1.0,1.0,phase_1,,,,,,,,,,,,,cyan,square
0.0,4.0,0.0,0.0,2.0,2.0,291.3001349998012,1.0,1.0,phase_1,,,,,,,,,,,,,magenta,diamond
105.0,6.0,2.0,1.0,4.0,4.0,309.0907960004188,1.0,1.0,phase_1,,,,,,,,,,,,,cyan,square
109.0,6.0,2.0,1.0,4.0,4.0,274.8668580002231,1.0,1.0,phase_1,,,,,,,,,,,,,cyan,square
220.0,7.0,3.0,1.0,4.0,4.0,301.7194869999002,1.0,1.0,phase_1,,,,,,,,,,,,,yellow,triangle
205.0,3.0,3.0,0.0,4.0,4.0,316.8212130003667,1.0,1.0,phase_1,,,,,,,,,,,,,blue,cross
410.0,4.0,4.0,0.0,3.0,3.0,375.0217500000872,1.0,1.0,phase_1,,,,,,,,,,,,,magenta,diamond
46.0,1.0,1.0,0.0,4.0,4.0,320.9444670001176,1.0,1.0,phase_1,,,,,,,,,,,,,white,flipped triangle
34.0,1.0,1.0,0.0,2.0,2.0,271.5994249997493,1.0,1.0,phase_1,,,,,,,,,,,,,white,flipped triangle
397.0,8.0,4.0,1.0,3.0,3.0,257.8690889999961,1.0,1.0,phase_1,,,,,,,,,,,,,orange,I
190.0,7.0,3.0,1.0,4.0,4.0,362.1738310002911,1.0,1.0,phase_1,,,,,,,,,,,,,yellow,triangle
219.0,3.0,3.0,0.0,2.0,2.0,279.004198000166,1.0,1.0,phase_1,,,,,,,,,,,,,blue,cross
406.0,4.0,4.0,0.0,1.0,1.0,321.5120610002486,1.0,1.0,phase_1,,,,,,,,,,,,,magenta,diamond
99.0,2.0,2.0,0.0,1.0,1.0,404.8724979998042,1.0,1.0,phase_1,,,,,,,,,,,,,green,hexagon
118.0,6.0,2.0,1.0,4.0,4.0,294.1717090002385,1.0,1.0,phase_1,,,,,,,,,,,,,cyan,square
417.0,8.0,4.0,1.0,2.0,2.0,348.2218290000674,1.0,1.0,phase_1,,,,,,,,,,,,,orange,I
0.0,5.0,0.0,1.0,2.0,2.0,293.266573999972,1.0,1.0,phase_1,,,,,,,,,,,,,gray,circle
387.0,4.0,4.0,0.0,2.0,2.0,259.0347179998389,1.0,1.0,phase_1,,,,,,,,,,,,,magenta,diamond
378.0,4.0,4.0,0.0,1.0,1.0,321.3057480002135,1.0,1.0,phase_1,,,,,,,,,,,,,magenta,diamond
0.0,2.0,0.0,0.0,2.0,2.0,264.5135419998041,1.0,1.0,phase_1,,,,,,,,,,,,,green,hexagon
417.0,4.0,4.0,0.0,3.0,3.0,314.1852899998412,1.0,1.0,phase_1,,,,,,,,,,,,,magenta,diamond
209.0,7.0,3.0,1.0,4.0,4.0,296.4872819998163,1.0,1.0,phase_1,,,,,,,,,,,,,yellow,triangle
188.0,7.0,3.0,1.0,2.0,2.0,262.624267999854,1.0,1.0,phase_1,,,,,,,,,,,,,yellow,triangle
404.0,4.0,4.0,0.0,1.0,1.0,355.5366860000504,1.0,1.0,phase_1,,,,,,,,,,,,,magenta,diamond
410.0,8.0,4.0,1.0,4.0,4.0,329.7332920001281,1.0,1.0,phase_1,,,,,,,,,,,,,orange,I
410.0,4.0,4.0,0.0,2.0,2.0,257.5082239995936,1.0,1.0,phase_1,,,,,,,,,,,,,magenta,diamond
0.0,5.0,0.0,1.0,3.0,3.0,349.8447920001126,1.0,1.0,phase_1,,,,,,,,,,,,,gray,circle
0.0,4.0,0.0,0.0,1.0,1.0,348.6495410002135,1.0,1.0,phase_1,,,,,,,,,,,,,magenta,diamond
185.0,3.0,3.0,0.0,1.0,1.0,328.6041769997609,1.0,1.0,phase_1,,,,,,,,,,,,,blue,cross
406.0,8.0,4.0,1.0,4.0,4.0,325.478743000076,1.0,1.0,phase_1,,,,,,,,,,,,,orange,I
389.0,4.0,4.0,0.0,2.0,2.0,236.0603749998517,1.0,1.0,phase_1,,,,,,,,,,,,,magenta,diamond
411.0,8.0,4.0,1.0,4.0,4.0,380.4409859999396,1.0,1.0,phase_1,,,,,,,,,,,,,orange,I
383.0,8.0,4.0,1.0,1.0,1.0,294.8876579998796,1.0,1.0,phase_1,,,,,,,,,,,,,orange,I
0.0,7.0,0.0,1.0,3.0,3.0,373.6639929998091,1.0,1.0,phase_1,,,,,,,,,,,,,yellow,triangle
0.0,6.0,0.0,1.0,1.0,1.0,276.500145999762,1.0,1.0,phase_1,,,,,,,,,,,,,cyan,square
383.0,4.0,4.0,0.0,2.0,2.0,241.3958359998105,1.0,1.0,phase_1,,,,,,,,,,,,,magenta,diamond
49.0,1.0,1.0,0.0,2.0,2.0,299.1545999998379,1.0,1.0,phase_1,,,,,,,,,,,,,white,flipped triangle
201.0,3.0,3.0,0.0,3.0,3.0,371.3183119998575,1.0,1.0,phase_1,,,,,,,,,,,,,blue,cross
192.0,3.0,3.0,0.0,4.0,4.0,311.5962749998289,1.0,2.0,phase_1,,,,,,,,,,,,,blue,cross
207.0,7.0,3.0,1.0,3.0,3.0,367.007907000243,1.0,1.0,phase_1,,,,,,,,,,,,,yellow,triangle
207.0,3.0,3.0,0.0,4.0,4.0,343.6943110000356,2.0,1.0,phase_1,,,,,,,,,,,,,blue,cross
0.0,5.0,0.0,1.0,2.0,2.0,268.276865000189,2.0,1.0,phase_1,,,,,,,,,,,,,gray,circle
185.0,7.0,3.0,1.0,1.0,1.0,320.7044579999092,2.0,1.0,phase_1,,,,,,,,,,,,,yellow,triangle
179.0,3.0,3.0,0.0,1.0,1.0,282.2276639999472,2.0,1.0,phase_1,,,,,,,,,,,,,blue,cross
0.0,1.0,0.0,0.0,3.0,3.0,272.0564599999306,2.0,1.0,phase_1,,,,,,,,,,,,,white,flipped triangle
221.0,7.0,3.0,1.0,2.0,2.0,274.5336120001411,2.0,1.0,phase_1,,,,,,,,,,,,,yellow,triangle
393.0,8.0,4.0,1.0,2.0,2.0,275.3060959998947,2.0,1.0,phase_1,,,,,,,,,,,,,orange,I
220.0,3.0,3.0,0.0,2.0,2.0,398.5775820001436,2.0,1.0,phase_1,,,,,,,,,,,,,blue,cross
0.0,3.0,0.0,0.0,4.0,4.0,362.893270999848,2.0,1.0,phase_1,,,,,,,,,,,,,blue,cross
394.0,4.0,4.0,0.0,4.0,4.0,327.2227420002309,2.0,1.0,phase_1,,,,,,,,,,,,,magenta,diamond
118.0,2.0,2.0,0.0,2.0,2.0,257.9127540002446,2.0,1.0,phase_1,,,,,,,,,,,,,green,hexagon
0.0,3.0,0.0,0.0,3.0,3.0,331.3384119996954,2.0,1.0,phase_1,,,,,,,,,,,,,blue,cross
37.0,5.0,1.0,1.0,1.0,1.0,326.7873220002002,2.0,1.0,phase_1,,,,,,,,,,,,,gray,circle
0.0,4.0,0.0,0.0,3.0,3.0,343.3114009999372,2.0,1.0,phase_1,,,,,,,,,,,,,magenta,diamond
95.0,2.0,2.0,0.0,4.0,4.0,308.0923630000143,2.0,1.0,phase_1,,,,,,,,,,,,,green,hexagon
87.0,6.0,2.0,1.0,1.0,1.0,328.0848030003653,2.0,1.0,phase_1,,,,,,,,,,,,,cyan,square
115.0,6.0,2.0,1.0,4.0,4.0,303.9648970002417,2.0,1.0,phase_1,,,,,,,,,,,,,cyan,square
28.0,5.0,1.0,1.0,3.0,3.0,370.6839139999829,2.0,1.0,phase_1,,,,,,,,,,,,,gray,circle
56.0,1.0,1.0,0.0,2.0,2.0,305.4428159998679,2.0,1.0,phase_1,,,,,,,,,,,,,white,flipped triangle
0.0,2.0,0.0,0.0,3.0,3.0,317.1671939999214,2.0,1.0,phase_1,,,,,,,,,,,,,green,hexagon
97.0,6.0,2.0,1.0,4.0,4.0,297.9774219998035,2.0,1.0,phase_1,,,,,,,,,,,,,cyan,square
0.0,1.0,0.0,0.0,1.0,1.0,328.6246029997528,2.0,1.0,phase_1,,,,,,,,,,,,,white,flipped triangle
185.0,3.0,3.0,0.0,4.0,4.0,331.5655639999022,2.0,1.0,phase_1,,,,,,,,,,,,,blue,cross
82.0,6.0,2.0,1.0,2.0,2.0,227.0012889998724,2.0,1.0,phase_1,,,,,,,,,,,,,cyan,square
0.0,2.0,0.0,0.0,1.0,1.0,300.7756839997455,2.0,1.0,phase_1,,,,,,,,,,,,,green,hexagon
409.0,8.0,4.0,1.0,2.0,2.0,286.4258200002041,2.0,1.0,phase_1,,,,,,,,,,,,,orange,I
106.0,6.0,2.0,1.0,1.0,1.0,312.5107099999695,2.0,1.0,phase_1,,,,,,,,,,,,,cyan,square
65.0,5.0,1.0,1.0,1.0,1.0,349.3915950002701,2.0,1.0,phase_1,,,,,,,,,,,,,gray,circle
73.0,5.0,1.0,1.0,2.0,2.0,317.3843610002222,2.0,1.0,phase_1,,,,,,,,,,,,,gray,circle
125.0,2.0,2.0,0.0,4.0,4.0,322.0245139996223,2.0,1.0,phase_1,,,,,,,,,,,,,green,hexagon
203.0,3.0,3.0,0.0,3.0,3.0,282.9197179999028,2.0,1.0,phase_1,,,,,,,,,,,,,blue,cross
0.0,3.0,0.0,0.0,1.0,1.0,260.6330999997226,2.0,1.0,phase_1,,,,,,,,,,,,,blue,cross
378.0,8.0,4.0,1.0,2.0,2.0,245.4671410000628,2.0,1.0,phase_1,,,,,,,,,,,,,orange,I
224.0,3.0,3.0,0.0,4.0,4.0,283.8313830002335,2.0,1.0,phase_1,,,,,,,,,,,,,blue,cross
423.0,8.0,4.0,1.0,3.0,3.0,362.8786520002904,2.0,1.0,phase_1,,,,,,,,,,,,,orange,I
379.0,8.0,4.0,1.0,2.0,2.0,253.8651790000585,2.0,1.0,phase_1,,,,,,,,,,,,,orange,I
218.0,3.0,3.0,0.0,4.0,4.0,303.9301389999309,2.0,1.0,phase_1,,,,,,,,,,,,,blue,cross
82.0,2.0,2.0,0.0,1.0,1.0,275.4437489998054,2.0,1.0,phase_1,,,,,,,,,,,,,green,hexagon
69.0,1.0,1.0,0.0,2.0,2.0,340.6082579999747,2.0,1.0,phase_1,,,,,,,,,,,,,white,flipped triangle
382.0,4.0,4.0,0.0,1.0,1.0,302.3804080003174,2.0,1.0,phase_1,,,,,,,,,,,,,magenta,diamond
86.0,2.0,2.0,0.0,3.0,3.0,269.9789910002437,2.0,1.0,phase_1,,,,,,,,,,,,,green,hexagon
0.0,1.0,0.0,0.0,1.0,1.0,331.8933820000893,2.0,1.0,phase_1,,,,,,,,,,,,,white,flipped triangle
199.0,7.0,3.0,1.0,2.0,2.0,196.87962199986939,2.0,1.0,phase_1,,,,,,,,,,,,,yellow,triangle
110.0,6.0,2.0,1.0,2.0,2.0,265.2200489997085,2.0,2.0,phase_1,,,,,,,,,,,,,cyan,square
393.0,4.0,4.0,0.0,2.0,2.0,317.439547000049,2.0,1.0,phase_1,,,,,,,,,,,,,magenta,diamond
99.0,6.0,2.0,1.0,3.0,3.0,329.5432730001266,2.0,1.0,phase_1,,,,,,,,,,,,,cyan,square
181.0,3.0,3.0,0.0,2.0,2.0,237.9351249996943,2.0,1.0,phase_1,,,,,,,,,,,,,blue,cross
93.0,6.0,2.0,1.0,2.0,2.0,295.2833700001065,2.0,1.0,phase_1,,,,,,,,,,,,,cyan,square
407.0,8.0,4.0,1.0,2.0,2.0,327.2134519997962,2.0,1.0,phase_1,,,,,,,,,,,,,orange,I
407.0,4.0,4.0,0.0,1.0,1.0,356.538596000064,2.0,1.0,phase_1,,,,,,,,,,,,,magenta,diamond
0.0,4.0,0.0,0.0,3.0,3.0,319.843304999722,2.0,1.0,phase_1,,,,,,,,,,,,,magenta,diamond
222.0,7.0,3.0,1.0,2.0,2.0,270.1187000002392,2.0,1.0,phase_1,,,,,,,,,,,,,yellow,triangle
0.0,6.0,0.0,1.0,2.0,2.0,303.219504000026,2.0,1.0,phase_1,,,,,,,,,,,,,cyan,square
0.0,3.0,0.0,0.0,2.0,2.0,298.2048110002324,2.0,1.0,phase_1,,,,,,,,,,,,,blue,cross
40.0,5.0,1.0,1.0,4.0,4.0,366.2412230000882,2.0,2.0,phase_1,,,,,,,,,,,,,gray,circle
403.0,4.0,4.0,0.0,3.0,3.0,292.5605030000042,2.0,1.0,phase_1,,,,,,,,,,,,,magenta,diamond
378.0,4.0,4.0,0.0,4.0,4.0,347.2724610001023,2.0,1.0,phase_1,,,,,,,,,,,,,magenta,diamond
397.0,4.0,4.0,0.0,3.0,3.0,329.5100249997631,2.0,1.0,phase_1,,,,,,,,,,,,,magenta,diamond
212.0,3.0,3.0,0.0,1.0,1.0,376.986178000152,2.0,1.0,phase_1,,,,,,,,,,,,,blue,cross
77.0,6.0,2.0,1.0,1.0,1.0,410.9196849999534,2.0,2.0,phase_1,,,,,,,,,,,,,cyan,square
75.0,6.0,2.0,1.0,3.0,3.0,313.3811620000415,2.0,1.0,phase_1,,,,,,,,,,,,,cyan,square
0.0,8.0,0.0,1.0,2.0,2.0,298.1164009997883,2.0,1.0,phase_1,,,,,,,,,,,,,orange,I
66.0,1.0,1.0,0.0,3.0,3.0,340.6619209999917,2.0,1.0,phase_1,,,,,,,,,,,,,white,flipped triangle
415.0,8.0,4.0,1.0,4.0,4.0,407.002712999656,2.0,1.0,phase_1,,,,,,,,,,,,,orange,I
397.0,8.0,4.0,1.0,1.0,1.0,339.3076760003168,2.0,1.0,phase_1,,,,,,,,,,,,,orange,I
411.0,4.0,4.0,0.0,4.0,4.0,310.4310200001237,2.0,1.0,phase_1,,,,,,,,,,,,,magenta,diamond
409.0,4.0,4.0,0.0,3.0,3.0,319.897994999792,2.0,1.0,phase_1,,,,,,,,,,,,,magenta,diamond
0.0,7.0,0.0,1.0,4.0,4.0,342.5743150000926,2.0,1.0,phase_1,,,,,,,,,,,,,yellow,triangle
36.0,5.0,1.0,1.0,2.0,2.0,419.9561390000781,2.0,1.0,phase_1,,,,,,,,,,,,,gray,circle
0.0,4.0,0.0,0.0,2.0,2.0,359.1742430003251,2.0,1.0,phase_1,,,,,,,,,,,,,magenta,diamond
382.0,8.0,4.0,1.0,1.0,1.0,297.0213490002606,2.0,1.0,phase_1,,,,,,,,,,,,,orange,I
187.0,7.0,3.0,1.0,3.0,3.0,278.8626820001809,2.0,1.0,phase_1,,,,,,,,,,,,,yellow,triangle
0.0,7.0,0.0,1.0,4.0,4.0,414.8372709996692,2.0,1.0,phase_1,,,,,,,,,,,,,yellow,triangle
394.0,8.0,4.0,1.0,2.0,2.0,293.1847169998036,2.0,1.0,phase_1,,,,,,,,,,,,,orange,I
0.0,4.0,0.0,0.0,3.0,3.0,322.0935459999055,2.0,1.0,phase_1,,,,,,,,,,,,,magenta,diamond
122.0,6.0,2.0,1.0,3.0,3.0,335.1364619998094,2.0,1.0,phase_1,,,,,,,,,,,,,cyan,square
0.0,8.0,0.0,1.0,1.0,1.0,289.5445969998036,2.0,1.0,phase_1,,,,,,,,,,,,,orange,I
87.0,2.0,2.0,0.0,1.0,1.0,365.2596629999607,2.0,1.0,phase_1,,,,,,,,,,,,,green,hexagon
97.0,2.0,2.0,0.0,2.0,2.0,315.0032730000021,2.0,1.0,phase_1,,,,,,,,,,,,,green,hexagon
196.0,3.0,3.0,0.0,2.0,2.0,337.9350730001533,2.0,1.0,phase_1,,,,,,,,,,,,,blue,cross
389.0,8.0,4.0,1.0,3.0,3.0,342.16386900016,2.0,1.0,phase_1,,,,,,,,,,,,,orange,I
387.0,8.0,4.0,1.0,4.0,4.0,353.1998909998037,2.0,1.0,phase_1,,,,,,,,,,,,,orange,I
0.0,8.0,0.0,1.0,4.0,4.0,360.0768559999778,2.0,1.0,phase_1,,,,,,,,,,,,,orange,I
0.0,7.0,0.0,1.0,4.0,4.0,312.5945430001593,2.0,1.0,phase_1,,,,,,,,,,,,,yellow,triangle
49.0,5.0,1.0,1.0,1.0,1.0,368.9861049997489,2.0,1.0,phase_1,,,,,,,,,,,,,gray,circle
0.0,8.0,0.0,1.0,1.0,1.0,340.4952539999613,2.0,1.0,phase_1,,,,,,,,,,,,,orange,I
424.0,8.0,4.0,1.0,3.0,3.0,296.5099849998296,2.0,1.0,phase_1,,,,,,,,,,,,,orange,I
194.0,3.0,3.0,0.0,1.0,1.0,378.9358460003313,2.0,1.0,phase_1,,,,,,,,,,,,,blue,cross
37.0,1.0,1.0,0.0,1.0,1.0,310.125323000193,2.0,1.0,phase_1,,,,,,,,,,,,,white,flipped triangle
103.0,2.0,2.0,0.0,1.0,1.0,317.1575780002058,2.0,1.0,phase_1,,,,,,,,,,,,,green,hexagon
68.0,5.0,1.0,1.0,1.0,1.0,286.8065810002917,2.0,1.0,phase_1,,,,,,,,,,,,,gray,circle
410.0,8.0,4.0,1.0,4.0,4.0,363.6244620001889,2.0,1.0,phase_1,,,,,,,,,,,,,orange,I
383.0,8.0,4.0,1.0,4.0,4.0,319.6770070003367,2.0,1.0,phase_1,,,,,,,,,,,,,orange,I
218.0,7.0,3.0,1.0,3.0,3.0,297.1565349998855,2.0,1.0,phase_1,,,,,,,,,,,,,yellow,triangle
0.0,5.0,0.0,1.0,1.0,1.0,385.1805760000388,2.0,1.0,phase_1,,,,,,,,,,,,,gray,circle
0.0,3.0,0.0,0.0,4.0,4.0,326.4908549999745,2.0,1.0,phase_1,,,,,,,,,,,,,blue,cross
55.0,1.0,1.0,0.0,1.0,1.0,293.4043680002105,2.0,1.0,phase_1,,,,,,,,,,,,,white,flipped triangle
385.0,8.0,4.0,1.0,1.0,1.0,299.4451919998937,2.0,1.0,phase_1,,,,,,,,,,,,,orange,I
185.0,3.0,3.0,0.0,2.0,2.0,281.9746579998536,2.0,1.0,phase_1,,,,,,,,,,,,,blue,cross
40.0,1.0,1.0,0.0,4.0,4.0,338.5812440001245,2.0,1.0,phase_1,,,,,,,,,,,,,white,flipped triangle
0.0,2.0,0.0,0.0,2.0,2.0,254.941114000303,3.0,1.0,phase_1,,,,,,,,,,,,,green,hexagon
209.0,3.0,3.0,0.0,3.0,3.0,292.9343199998584,3.0,1.0,phase_1,,,,,,,,,,,,,blue,cross
424.0,8.0,4.0,1.0,1.0,1.0,317.3925910000434,3.0,1.0,phase_1,,,,,,,,,,,,,orange,I
221.0,3.0,3.0,0.0,1.0,1.0,292.4989900002401,3.0,1.0,phase_1,,,,,,,,,,,,,blue,cross
88.0,6.0,2.0,1.0,1.0,1.0,307.1460529999967,3.0,1.0,phase_1,,,,,,,,,,,,,cyan,square
37.0,5.0,1.0,1.0,4.0,4.0,351.4941429998544,3.0,1.0,phase_1,,,,,,,,,,,,,gray,circle
37.0,1.0,1.0,0.0,4.0,4.0,302.2418759996981,3.0,1.0,phase_1,,,,,,,,,,,,,white,flipped triangle
65.0,1.0,1.0,0.0,1.0,1.0,324.2418750000979,3.0,1.0,phase_1,,,,,,,,,,,,,white,flipped triangle
116.0,6.0,2.0,1.0,1.0,1.0,333.2893210003931,3.0,1.0,phase_1,,,,,,,,,,,,,cyan,square
88.0,2.0,2.0,0.0,3.0,3.0,409.5246309998401,3.0,1.0,phase_1,,,,,,,,,,,,,green,hexagon
72.0,1.0,1.0,0.0,4.0,4.0,284.6671990000686,3.0,1.0,phase_1,,,,,,,,,,,,,white,flipped triangle
105.0,6.0,2.0,1.0,4.0,4.0,321.4938989999609,3.0,1.0,phase_1,,,,,,,,,,,,,cyan,square
73.0,1.0,1.0,0.0,4.0,4.0,326.023164000162,3.0,2.0,phase_1,,,,,,,,,,,,,white,flipped triangle
207.0,7.0,3.0,1.0,1.0,1.0,343.5408089999328,3.0,1.0,phase_1,,,,,,,,,,,,,yellow,triangle
203.0,7.0,3.0,1.0,4.0,4.0,268.8459060000241,3.0,1.0,phase_1,,,,,,,,,,,,,yellow,triangle
83.0,2.0,2.0,0.0,3.0,3.0,269.1721730002427,3.0,1.0,phase_1,,,,,,,,,,,,,green,hexagon
56.0,5.0,1.0,1.0,3.0,3.0,283.5973730002479,3.0,1.0,phase_1,,,,,,,,,,,,,gray,circle
413.0,4.0,4.0,0.0,3.0,3.0,317.4768469998525,3.0,1.0,phase_1,,,,,,,,,,,,,magenta,diamond
75.0,2.0,2.0,0.0,2.0,2.0,323.9718990002984,3.0,1.0,phase_1,,,,,,,,,,,,,green,hexagon
0.0,6.0,0.0,1.0,4.0,4.0,292.3497500000849,3.0,1.0,phase_1,,,,,,,,,,,,,cyan,square
59.0,1.0,1.0,0.0,2.0,2.0,274.879128000066,3.0,1.0,phase_1,,,,,,,,,,,,,white,flipped triangle
55.0,5.0,1.0,1.0,3.0,3.0,313.9750049999747,3.0,1.0,phase_1,,,,,,,,,,,,,gray,circle
80.0,6.0,2.0,1.0,3.0,3.0,327.9446159999679,3.0,1.0,phase_1,,,,,,,,,,,,,cyan,square
205.0,7.0,3.0,1.0,1.0,1.0,320.2133360000516,3.0,1.0,phase_1,,,,,,,,,,,,,yellow,triangle
395.0,4.0,4.0,0.0,3.0,3.0,270.1368489997549,3.0,1.0,phase_1,,,,,,,,,,,,,magenta,diamond
36.0,1.0,1.0,0.0,1.0,1.0,352.3477059998186,3.0,1.0,phase_1,,,,,,,,,,,,,white,flipped triangle
27.0,1.0,1.0,0.0,2.0,2.0,309.2890719999559,3.0,1.0,phase_1,,,,,,,,,,,,,white,flipped triangle
0.0,6.0,0.0,1.0,4.0,4.0,285.0882469997486,3.0,1.0,phase_1,,,,,,,,,,,,,cyan,square
51.0,1.0,1.0,0.0,3.0,3.0,283.9135389999683,3.0,1.0,phase_1,,,,,,,,,,,,,white,flipped triangle
89.0,2.0,2.0,0.0,2.0,2.0,314.5049499999004,3.0,1.0,phase_1,,,,,,,,,,,,,green,hexagon
45.0,5.0,1.0,1.0,2.0,2.0,289.3393740000647,3.0,1.0,phase_1,,,,,,,,,,,,,gray,circle
63.0,1.0,1.0,0.0,2.0,2.0,286.6675509999368,3.0,1.0,phase_1,,,,,,,,,,,,,white,flipped triangle
207.0,3.0,3.0,0.0,2.0,2.0,360.2103429998351,3.0,1.0,phase_1,,,,,,,,,,,,,blue,cross
0.0,4.0,0.0,0.0,1.0,1.0,337.2326019998581,3.0,1.0,phase_1,,,,,,,,,,,,,magenta,diamond
378.0,8.0,4.0,1.0,1.0,1.0,294.8025369996685,3.0,1.0,phase_1,,,,,,,,,,,,,orange,I
192.0,7.0,3.0,1.0,1.0,1.0,293.0758179995791,3.0,1.0,phase_1,,,,,,,,,,,,,yellow,triangle
53.0,5.0,1.0,1.0,4.0,4.0,410.3380460001062,3.0,1.0,phase_1,,,,,,,,,,,,,gray,circle
56.0,1.0,1.0,0.0,3.0,3.0,241.9714259999636,3.0,1.0,phase_1,,,,,,,,,,,,,white,flipped triangle
63.0,1.0,1.0,0.0,4.0,4.0,274.6126710003409,3.0,1.0,phase_1,,,,,,,,,,,,,white,flipped triangle
31.0,5.0,1.0,1.0,4.0,4.0,274.0296460001445,3.0,1.0,phase_1,,,,,,,,,,,,,gray,circle
90.0,2.0,2.0,0.0,4.0,4.0,306.3752329999261,3.0,1.0,phase_1,,,,,,,,,,,,,green,hexagon
90.0,6.0,2.0,1.0,2.0,2.0,266.4580959999512,3.0,1.0,phase_1,,,,,,,,,,,,,cyan,square
407.0,8.0,4.0,1.0,1.0,1.0,249.9550420002378,3.0,1.0,phase_1,,,,,,,,,,,,,orange,I
116.0,2.0,2.0,0.0,2.0,2.0,291.7884359999334,3.0,1.0,phase_1,,,,,,,,,,,,,green,hexagon
69.0,5.0,1.0,1.0,4.0,4.0,286.4132499998959,3.0,1.0,phase_1,,,,,,,,,,,,,gray,circle
0.0,4.0,0.0,0.0,4.0,4.0,326.4451969998845,3.0,1.0,phase_1,,,,,,,,,,,,,magenta,diamond
190.0,3.0,3.0,0.0,3.0,3.0,371.71229400019,3.0,1.0,phase_1,,,,,,,,,,,,,blue,cross
58.0,5.0,1.0,1.0,3.0,3.0,322.869160999744,3.0,1.0,phase_1,,,,,,,,,,,,,gray,circle
52.0,5.0,1.0,1.0,3.0,3.0,292.7823730001364,3.0,1.0,phase_1,,,,,,,,,,,,,gray,circle
198.0,7.0,3.0,1.0,2.0,2.0,247.4026800000501,3.0,1.0,phase_1,,,,,,,,,,,,,yellow,triangle
379.0,8.0,4.0,1.0,1.0,1.0,435.916041999917,3.0,1.0,phase_1,,,,,,,,,,,,,orange,I
0.0,5.0,0.0,1.0,2.0,2.0,250.8524950003448,3.0,1.0,phase_1,,,,,,,,,,,,,gray,circle
0.0,4.0,0.0,0.0,1.0,1.0,277.7290579997498,3.0,1.0,phase_1,,,,,,,,,,,,,magenta,diamond
394.0,4.0,4.0,0.0,2.0,2.0,256.0886040000696,3.0,1.0,phase_1,,,,,,,,,,,,,magenta,diamond
81.0,2.0,2.0,0.0,1.0,1.0,260.3709830000298,3.0,1.0,phase_1,,,,,,,,,,,,,green,hexagon
205.0,3.0,3.0,0.0,2.0,2.0,271.660614999746,3.0,1.0,phase_1,,,,,,,,,,,,,blue,cross
0.0,1.0,0.0,0.0,2.0,2.0,267.3960619999889,3.0,1.0,phase_1,,,,,,,,,,,,,white,flipped triangle
93.0,2.0,2.0,0.0,1.0,1.0,309.933509000075,3.0,1.0,phase_1,,,,,,,,,,,,,green,hexagon
116.0,6.0,2.0,1.0,3.0,3.0,351.3838799999575,3.0,1.0,phase_1,,,,,,,,,,,,,cyan,square
90.0,6.0,2.0,1.0,3.0,3.0,372.8473689998282,3.0,1.0,phase_1,,,,,,,,,,,,,cyan,square
395.0,8.0,4.0,1.0,4.0,4.0,297.0702339998752,3.0,1.0,phase_1,,,,,,,,,,,,,orange,I
78.0,2.0,2.0,0.0,4.0,4.0,367.9491049997523,3.0,1.0,phase_1,,,,,,,,,,,,,green,hexagon
403.0,4.0,4.0,0.0,1.0,1.0,346.8083349998778,3.0,1.0,phase_1,,,,,,,,,,,,,magenta,diamond
198.0,3.0,3.0,0.0,3.0,3.0,257.0410590001302,3.0,1.0,phase_1,,,,,,,,,,,,,blue,cross
59.0,5.0,1.0,1.0,2.0,2.0,309.2418859996542,3.0,1.0,phase_1,,,,,,,,,,,,,gray,circle
0.0,1.0,0.0,0.0,2.0,2.0,290.885469999921,3.0,1.0,phase_1,,,,,,,,,,,,,white,flipped triangle
53.0,1.0,1.0,0.0,4.0,4.0,337.4990840002283,3.0,1.0,phase_1,,,,,,,,,,,,,white,flipped triangle
178.0,7.0,3.0,1.0,2.0,2.0,318.3830490002037,3.0,1.0,phase_1,,,,,,,,,,,,,yellow,triangle
78.0,6.0,2.0,1.0,1.0,1.0,313.7666430002355,3.0,1.0,phase_1,,,,,,,,,,,,,cyan,square
0.0,8.0,0.0,1.0,4.0,4.0,450.8746729998165,3.0,1.0,phase_1,,,,,,,,,,,,,orange,I
215.0,7.0,3.0,1.0,1.0,1.0,268.98112400022,3.0,1.0,phase_1,,,,,,,,,,,,,yellow,triangle
0.0,7.0,0.0,1.0,3.0,3.0,348.8006620000305,3.0,1.0,phase_1,,,,,,,,,,,,,yellow,triangle
31.0,1.0,1.0,0.0,2.0,2.0,258.2487069998933,3.0,1.0,phase_1,,,,,,,,,,,,,white,flipped triangle
114.0,2.0,2.0,0.0,3.0,3.0,395.2272360002098,3.0,1.0,phase_1,,,,,,,,,,,,,green,hexagon
0.0,5.0,0.0,1.0,4.0,4.0,376.4501030000247,3.0,1.0,phase_1,,,,,,,,,,,,,gray,circle
415.0,4.0,4.0,0.0,4.0,4.0,305.9752930003014,3.0,1.0,phase_1,,,,,,,,,,,,,magenta,diamond
60.0,1.0,1.0,0.0,2.0,2.0,346.2658470002679,3.0,1.0,phase_1,,,,,,,,,,,,,white,flipped triangle
212.0,7.0,3.0,1.0,1.0,1.0,493.1894689998444,3.0,1.0,phase_1,,,,,,,,,,,,,yellow,triangle
207.0,3.0,3.0,0.0,1.0,1.0,361.0131069999625,3.0,1.0,phase_1,,,,,,,,,,,,,blue,cross
0.0,1.0,0.0,0.0,4.0,4.0,334.725441000046,3.0,2.0,phase_1,,,,,,,,,,,,,white,flipped triangle
106.0,2.0,2.0,0.0,3.0,3.0,310.5524510001487,3.0,1.0,phase_1,,,,,,,,,,,,,green,hexagon
376.0,4.0,4.0,0.0,4.0,4.0,276.0694530002183,3.0,1.0,phase_1,,,,,,,,,,,,,magenta,diamond
383.0,4.0,4.0,0.0,1.0,1.0,312.6416189998053,3.0,1.0,phase_1,,,,,,,,,,,,,magenta,diamond
81.0,6.0,2.0,1.0,3.0,3.0,296.7816529999254,3.0,1.0,phase_1,,,,,,,,,,,,,cyan,square
105.0,2.0,2.0,0.0,1.0,1.0,314.4047499999942,3.0,1.0,phase_1,,,,,,,,,,,,,green,hexagon
105.0,2.0,2.0,0.0,2.0,2.0,521.7615370002022,3.0,1.0,phase_1,,,,,,,,,,,,,green,hexagon
219.0,7.0,3.0,1.0,1.0,1.0,354.4404039998881,3.0,1.0,phase_1,,,,,,,,,,,,,yellow,triangle
0.0,7.0,0.0,1.0,3.0,3.0,286.3934890001474,3.0,1.0,phase_1,,,,,,,,,,,,,yellow,triangle
32.0,5.0,1.0,1.0,4.0,4.0,337.5061649999225,3.0,1.0,phase_1,,,,,,,,,,,,,gray,circle
45.0,1.0,1.0,0.0,4.0,4.0,306.55609099994757,3.0,1.0,phase_1,,,,,,,,,,,,,white,flipped triangle
61.0,1.0,1.0,0.0,3.0,3.0,289.1299550001349,3.0,1.0,phase_1,,,,,,,,,,,,,white,flipped triangle
199.0,3.0,3.0,0.0,3.0,3.0,324.8955999997633,3.0,1.0,phase_1,,,,,,,,,,,,,blue,cross
383.0,8.0,4.0,1.0,2.0,2.0,263.2726410001851,3.0,1.0,phase_1,,,,,,,,,,,,,orange,I
45.0,1.0,1.0,0.0,1.0,1.0,321.7276690002109,3.0,1.0,phase_1,,,,,,,,,,,,,white,flipped triangle
218.0,3.0,3.0,0.0,1.0,1.0,333.8215859998854,3.0,1.0,phase_1,,,,,,,,,,,,,blue,cross
38.0,1.0,1.0,0.0,4.0,4.0,368.7988450001285,3.0,1.0,phase_1,,,,,,,,,,,,,white,flipped triangle
80.0,2.0,2.0,0.0,4.0,4.0,377.2245430000112,3.0,1.0,phase_1,,,,,,,,,,,,,green,hexagon
423.0,4.0,4.0,0.0,1.0,1.0,395.4442700000982,3.0,1.0,phase_1,,,,,,,,,,,,,magenta,diamond
52.0,1.0,1.0,0.0,1.0,1.0,341.115842000363,3.0,1.0,phase_1,,,,,,,,,,,,,white,flipped triangle
52.0,1.0,1.0,0.0,3.0,3.0,291.1480399998254,3.0,1.0,phase_1,,,,,,,,,,,,,white,flipped triangle
0.0,5.0,0.0,1.0,4.0,4.0,327.5551890001225,4.0,1.0,phase_1,,,,,,,,,,,,,gray,circle
37.0,5.0,1.0,1.0,4.0,4.0,408.0702230003226,4.0,1.0,phase_1,,,,,,,,,,,,,gray,circle
52.0,5.0,1.0,1.0,2.0,2.0,250.6246119996831,4.0,1.0,phase_1,,,,,,,,,,,,,gray,circle
56.0,5.0,1.0,1.0,1.0,1.0,286.6288160003023,4.0,1.0,phase_1,,,,,,,,,,,,,gray,circle
385.0,4.0,4.0,0.0,1.0,1.0,610.4927199999111,4.0,1.0,phase_1,,,,,,,,,,,,,magenta,diamond
40.0,5.0,1.0,1.0,4.0,4.0,338.5905090003689,4.0,1.0,phase_1,,,,,,,,,,,,,gray,circle
28.0,1.0,1.0,0.0,2.0,2.0,245.56652199999,4.0,1.0,phase_1,,,,,,,,,,,,,white,flipped triangle
110.0,2.0,2.0,0.0,1.0,1.0,460.3526470000361,4.0,1.0,phase_1,,,,,,,,,,,,,green,hexagon
409.0,8.0,4.0,1.0,3.0,3.0,266.0915760002353,4.0,1.0,phase_1,,,,,,,,,,,,,orange,I
0.0,2.0,0.0,0.0,2.0,2.0,245.074446000217,4.0,1.0,phase_1,,,,,,,,,,,,,green,hexagon
123.0,2.0,2.0,0.0,2.0,2.0,344.4535389999146,4.0,1.0,phase_1,,,,,,,,,,,,,green,hexagon
0.0,5.0,0.0,1.0,4.0,4.0,469.7007779996056,4.0,1.0,phase_1,,,,,,,,,,,,,gray,circle
111.0,6.0,2.0,1.0,4.0,4.0,334.6736739999869,4.0,1.0,phase_1,,,,,,,,,,,,,cyan,square
178.0,3.0,3.0,0.0,4.0,4.0,300.0976700000137,4.0,1.0,phase_1,,,,,,,,,,,,,blue,cross
63.0,5.0,1.0,1.0,2.0,2.0,310.0637170000482,4.0,1.0,phase_1,,,,,,,,,,,,,gray,circle
0.0,1.0,0.0,0.0,1.0,1.0,273.9126320002469,4.0,1.0,phase_1,,,,,,,,,,,,,white,flipped triangle
37.0,1.0,1.0,0.0,4.0,4.0,293.0833870000242,4.0,1.0,phase_1,,,,,,,,,,,,,white,flipped triangle
224.0,7.0,3.0,1.0,1.0,1.0,298.4998090000772,4.0,1.0,phase_1,,,,,,,,,,,,,yellow,triangle
178.0,7.0,3.0,1.0,3.0,3.0,293.0513189999146,4.0,1.0,phase_1,,,,,,,,,,,,,yellow,triangle
0.0,6.0,0.0,1.0,2.0,2.0,362.1276710000529,4.0,1.0,phase_1,,,,,,,,,,,,,cyan,square
58.0,1.0,1.0,0.0,3.0,3.0,318.636914000308,4.0,1.0,phase_1,,,,,,,,,,,,,white,flipped triangle
41.0,1.0,1.0,0.0,3.0,3.0,326.7619240000385,4.0,1.0,phase_1,,,,,,,,,,,,,white,flipped triangle
61.0,5.0,1.0,1.0,2.0,2.0,337.9803240000001,4.0,1.0,phase_1,,,,,,,,,,,,,gray,circle
181.0,7.0,3.0,1.0,3.0,3.0,314.0118179999263,4.0,1.0,phase_1,,,,,,,,,,,,,yellow,triangle
0.0,8.0,0.0,1.0,1.0,1.0,322.5562380002884,4.0,1.0,phase_1,,,,,,,,,,,,,orange,I
63.0,5.0,1.0,1.0,3.0,3.0,355.3794589997778,4.0,1.0,phase_1,,,,,,,,,,,,,gray,circle
403.0,8.0,4.0,1.0,4.0,4.0,321.8330600002446,4.0,1.0,phase_1,,,,,,,,,,,,,orange,I
0.0,2.0,0.0,0.0,1.0,1.0,310.719613999936,4.0,1.0,phase_1,,,,,,,,,,,,,green,hexagon
205.0,7.0,3.0,1.0,4.0,4.0,388.9107350000813,4.0,1.0,phase_1,,,,,,,,,,,,,yellow,triangle
0.0,6.0,0.0,1.0,3.0,3.0,305.4607990002296,4.0,1.0,phase_1,,,,,,,,,,,,,cyan,square
0.0,7.0,0.0,1.0,3.0,3.0,352.6484100002562,4.0,1.0,phase_1,,,,,,,,,,,,,yellow,triangle
410.0,4.0,4.0,0.0,3.0,3.0,296.1337749998165,4.0,1.0,phase_1,,,,,,,,,,,,,magenta,diamond
0.0,6.0,0.0,1.0,3.0,3.0,336.1076030000731,4.0,1.0,phase_1,,,,,,,,,,,,,cyan,square
0.0,2.0,0.0,0.0,3.0,3.0,275.2749179999227,4.0,1.0,phase_1,,,,,,,,,,,,,green,hexagon
114.0,6.0,2.0,1.0,1.0,1.0,277.480874000048,4.0,1.0,phase_1,,,,,,,,,,,,,cyan,square
38.0,5.0,1.0,1.0,4.0,4.0,586.3728499998615,4.0,1.0,phase_1,,,,,,,,,,,,,gray,circle
68.0,1.0,1.0,0.0,3.0,3.0,362.6257790001546,4.0,1.0,phase_1,,,,,,,,,,,,,white,flipped triangle
376.0,8.0,4.0,1.0,2.0,2.0,293.4551899998041,4.0,1.0,phase_1,,,,,,,,,,,,,orange,I
0.0,3.0,0.0,0.0,4.0,4.0,291.6481540000859,4.0,1.0,phase_1,,,,,,,,,,,,,blue,cross
413.0,4.0,4.0,0.0,3.0,3.0,256.6046909996657,4.0,1.0,phase_1,,,,,,,,,,,,,magenta,diamond
0.0,8.0,0.0,1.0,1.0,1.0,291.7851709999013,4.0,1.0,phase_1,,,,,,,,,,,,,orange,I
27.0,5.0,1.0,1.0,1.0,1.0,314.2703630001051,4.0,1.0,phase_1,,,,,,,,,,,,,gray,circle
423.0,4.0,4.0,0.0,4.0,4.0,321.3542339999549,4.0,1.0,phase_1,,,,,,,,,,,,,magenta,diamond
92.0,6.0,2.0,1.0,2.0,2.0,266.3741149999623,4.0,1.0,phase_1,,,,,,,,,,,,,cyan,square
215.0,3.0,3.0,0.0,1.0,1.0,284.6731489999001,4.0,1.0,phase_1,,,,,,,,,,,,,blue,cross
424.0,4.0,4.0,0.0,4.0,4.0,272.9303080000136,4.0,1.0,phase_1,,,,,,,,,,,,,magenta,diamond
403.0,8.0,4.0,1.0,3.0,3.0,283.6515419999159,4.0,1.0,phase_1,,,,,,,,,,,,,orange,I
179.0,7.0,3.0,1.0,4.0,4.0,276.6507800001818,4.0,1.0,phase_1,,,,,,,,,,,,,yellow,triangle
0.0,2.0,0.0,0.0,1.0,1.0,298.0158119999032,4.0,1.0,phase_1,,,,,,,,,,,,,green,hexagon
111.0,2.0,2.0,0.0,3.0,3.0,322.549434999928,4.0,1.0,phase_1,,,,,,,,,,,,,green,hexagon
179.0,7.0,3.0,1.0,3.0,3.0,277.7745049997975,4.0,1.0,phase_1,,,,,,,,,,,,,yellow,triangle
212.0,7.0,3.0,1.0,3.0,3.0,367.0748760000606,4.0,1.0,phase_1,,,,,,,,,,,,,yellow,triangle
111.0,6.0,2.0,1.0,4.0,4.0,277.804274999653,4.0,1.0,phase_1,,,,,,,,,,,,,cyan,square
40.0,1.0,1.0,0.0,1.0,1.0,354.5332519997828,4.0,1.0,phase_1,,,,,,,,,,,,,white,flipped triangle
0.0,1.0,0.0,0.0,3.0,3.0,290.2894970002307,4.0,1.0,phase_1,,,,,,,,,,,,,white,flipped triangle
46.0,5.0,1.0,1.0,1.0,1.0,254.14024600013357,4.0,1.0,phase_1,,,,,,,,,,,,,gray,circle
116.0,2.0,2.0,0.0,1.0,1.0,281.8281059999208,4.0,1.0,phase_1,,,,,,,,,,,,,green,hexagon
0.0,3.0,0.0,0.0,1.0,1.0,268.3960869999282,4.0,1.0,phase_1,,,,,,,,,,,,,blue,cross
114.0,2.0,2.0,0.0,3.0,3.0,285.826081000323,4.0,1.0,phase_1,,,,,,,,,,,,,green,hexagon
51.0,5.0,1.0,1.0,3.0,3.0,348.0575739999949,4.0,1.0,phase_1,,,,,,,,,,,,,gray,circle
200.0,3.0,3.0,0.0,1.0,1.0,295.6539460001295,4.0,2.0,phase_1,,,,,,,,,,,,,blue,cross
0.0,2.0,0.0,0.0,1.0,1.0,298.0072319996907,4.0,1.0,phase_1,,,,,,,,,,,,,green,hexagon
0.0,4.0,0.0,0.0,4.0,4.0,501.0998920001839,4.0,1.0,phase_1,,,,,,,,,,,,,magenta,diamond
90.0,2.0,2.0,0.0,4.0,4.0,323.6295940000673,4.0,1.0,phase_1,,,,,,,,,,,,,green,hexagon
0.0,3.0,0.0,0.0,4.0,4.0,286.4670250000927,4.0,1.0,phase_1,,,,,,,,,,,,,blue,cross
397.0,4.0,4.0,0.0,2.0,2.0,274.1166910000174,4.0,1.0,phase_1,,,,,,,,,,,,,magenta,diamond
424.0,4.0,4.0,0.0,2.0,2.0,295.4115580000689,4.0,1.0,phase_1,,,,,,,,,,,,,magenta,diamond
0.0,1.0,0.0,0.0,2.0,2.0,319.7434439998687,4.0,1.0,phase_1,,,,,,,,,,,,,white,flipped triangle
45.0,1.0,1.0,0.0,1.0,1.0,398.6538710000786,4.0,1.0,phase_1,,,,,,,,,,,,,white,flipped triangle
77.0,2.0,2.0,0.0,3.0,3.0,332.860704000268,4.0,1.0,phase_1,,,,,,,,,,,,,green,hexagon
189.0,7.0,3.0,1.0,4.0,4.0,338.344096000128,4.0,1.0,phase_1,,,,,,,,,,,,,yellow,triangle
180.0,3.0,3.0,0.0,3.0,3.0,294.6133909999844,4.0,1.0,phase_1,,,,,,,,,,,,,blue,cross
41.0,5.0,1.0,1.0,2.0,2.0,271.8067660002816,4.0,1.0,phase_1,,,,,,,,,,,,,gray,circle
32.0,1.0,1.0,0.0,1.0,1.0,300.0349089998053,4.0,1.0,phase_1,,,,,,,,,,,,,white,flipped triangle
83.0,6.0,2.0,1.0,2.0,2.0,302.8132919998825,4.0,1.0,phase_1,,,,,,,,,,,,,cyan,square
89.0,6.0,2.0,1.0,3.0,3.0,314.7016040002199,4.0,1.0,phase_1,,,,,,,,,,,,,cyan,square
220.0,7.0,3.0,1.0,3.0,3.0,341.1260830002902,4.0,1.0,phase_1,,,,,,,,,,,,,yellow,triangle
180.0,7.0,3.0,1.0,3.0,3.0,319.1155720001006,4.0,1.0,phase_1,,,,,,,,,,,,,yellow,triangle
185.0,7.0,3.0,1.0,4.0,4.0,315.8233419999305,4.0,1.0,phase_1,,,,,,,,,,,,,yellow,triangle
409.0,4.0,4.0,0.0,4.0,4.0,313.981080999838,4.0,1.0,phase_1,,,,,,,,,,,,,magenta,diamond
0.0,3.0,0.0,0.0,4.0,4.0,338.9825770000243,4.0,1.0,phase_1,,,,,,,,,,,,,blue,cross
63.0,5.0,1.0,1.0,3.0,3.0,279.201194000052,4.0,1.0,phase_1,,,,,,,,,,,,,gray,circle
115.0,2.0,2.0,0.0,2.0,2.0,240.5222840002352,4.0,1.0,phase_1,,,,,,,,,,,,,green,hexagon
0.0,1.0,0.0,0.0,2.0,2.0,318.5840720002488,4.0,1.0,phase_1,,,,,,,,,,,,,white,flipped triangle
0.0,8.0,0.0,1.0,2.0,2.0,261.9311140001628,4.0,1.0,phase_1,,,,,,,,,,,,,orange,I
44.0,5.0,1.0,1.0,1.0,1.0,337.8198400000656,4.0,1.0,phase_1,,,,,,,,,,,,,gray,circle
95.0,6.0,2.0,1.0,2.0,2.0,376.447404999908,4.0,1.0,phase_1,,,,,,,,,,,,,cyan,square
0.0,7.0,0.0,1.0,3.0,3.0,321.2847670001792,4.0,1.0,phase_1,,,,,,,,,,,,,yellow,triangle
125.0,6.0,2.0,1.0,1.0,1.0,294.5635470000525,4.0,2.0,phase_1,,,,,,,,,,,,,cyan,square
222.0,3.0,3.0,0.0,3.0,3.0,314.5704429998659,4.0,1.0,phase_1,,,,,,,,,,,,,blue,cross
402.0,8.0,4.0,1.0,3.0,3.0,357.9788699998971,4.0,1.0,phase_1,,,,,,,,,,,,,orange,I
178.0,3.0,3.0,0.0,3.0,3.0,395.5221219998748,4.0,1.0,phase_1,,,,,,,,,,,,,blue,cross
411.0,4.0,4.0,0.0,1.0,1.0,361.1641099996632,4.0,1.0,phase_1,,,,,,,,,,,,,magenta,diamond
410.0,8.0,4.0,1.0,2.0,2.0,305.2520000001095,4.0,1.0,phase_1,,,,,,,,,,,,,orange,I
42.0,5.0,1.0,1.0,3.0,3.0,310.1333409999824,4.0,1.0,phase_1,,,,,,,,,,,,,gray,circle
34.0,5.0,1.0,1.0,3.0,3.0,316.766662000191,4.0,1.0,phase_1,,,,,,,,,,,,,gray,circle
179.0,3.0,3.0,0.0,4.0,4.0,300.8399760001339,4.0,1.0,phase_1,,,,,,,,,,,,,blue,cross
413.0,8.0,4.0,1.0,4.0,4.0,317.3386619996563,4.0,1.0,phase_1,,,,,,,,,,,,,orange,I
194.0,7.0,3.0,1.0,1.0,1.0,317.3019229998317,4.0,1.0,phase_1,,,,,,,,,,,,,yellow,triangle
0.0,5.0,0.0,1.0,3.0,3.0,331.5047780001805,4.0,1.0,phase_1,,,,,,,,,,,,,gray,circle
0.0,5.0,1.0,1.0,5.0,0.0,0.0,1.0,1.0,phase_2,stop,250.0,250.0,4.0,,,,,,,,,gray,circle
0.0,1.0,1.0,0.0,5.0,5.0,727.2812760002125,1.0,1.0,phase_2,go,300.0,250.0,1.0,,,,,,,,,white,flipped triangle
0.0,4.0,4.0,0.0,5.0,5.0,564.9139750003087,1.0,1.0,phase_2,go,300.0,250.0,1.0,,,,,,,,,magenta,diamond
0.0,6.0,2.0,1.0,5.0,0.0,0.0,1.0,1.0,phase_2,stop,300.0,250.0,4.0,,,,,,,,,cyan,square
0.0,7.0,3.0,1.0,6.0,6.0,295.5693199996858,1.0,1.0,phase_2,stop,350.0,250.0,3.0,,,,,,,,,yellow,triangle
0.0,5.0,1.0,1.0,5.0,0.0,0.0,1.0,1.0,phase_2,stop,350.0,200.0,4.0,,,,,,,,,gray,circle
0.0,3.0,3.0,0.0,6.0,6.0,679.9572370000533,1.0,1.0,phase_2,go,400.0,200.0,1.0,,,,,,,,,blue,cross
0.0,1.0,1.0,0.0,6.0,6.0,663.1162220000988,1.0,1.0,phase_2,go,400.0,200.0,1.0,,,,,,,,,white,flipped triangle
0.0,4.0,4.0,0.0,6.0,6.0,586.8429659999492,1.0,1.0,phase_2,go,400.0,200.0,1.0,,,,,,,,,magenta,diamond
0.0,1.0,1.0,0.0,6.0,6.0,724.8833060002653,1.0,1.0,phase_2,go,400.0,200.0,1.0,,,,,,,,,white,flipped triangle
0.0,6.0,2.0,1.0,5.0,0.0,0.0,1.0,1.0,phase_2,stop,400.0,200.0,4.0,,,,,,,,,cyan,square
0.0,3.0,3.0,0.0,5.0,5.0,760.4474170002504,1.0,1.0,phase_2,go,450.0,200.0,1.0,,,,,,,,,blue,cross
0.0,8.0,4.0,1.0,5.0,5.0,822.3050820001845,1.0,1.0,phase_2,go,450.0,200.0,1.0,,,,,,,,,orange,I
0.0,7.0,3.0,1.0,6.0,0.0,0.0,1.0,1.0,phase_2,stop,450.0,200.0,4.0,,,,,,,,,yellow,triangle
0.0,2.0,2.0,0.0,5.0,5.0,739.0950200001498,1.0,1.0,phase_2,go,450.0,250.0,1.0,,,,,,,,,green,hexagon
0.0,8.0,4.0,1.0,6.0,0.0,0.0,1.0,1.0,phase_2,stop,450.0,250.0,4.0,,,,,,,,,orange,I
0.0,3.0,3.0,0.0,6.0,6.0,989.4618970001828,1.0,1.0,phase_2,go,450.0,300.0,1.0,,,,,,,,,blue,cross
0.0,4.0,4.0,0.0,5.0,5.0,698.5747180001454,1.0,1.0,phase_2,go,450.0,300.0,1.0,,,,,,,,,magenta,diamond
0.0,6.0,2.0,1.0,5.0,0.0,0.0,1.0,1.0,phase_2,stop,450.0,300.0,4.0,,,,,,,,,cyan,square
0.0,5.0,1.0,1.0,6.0,0.0,0.0,1.0,1.0,phase_2,stop,500.0,300.0,4.0,,,,,,,,,gray,circle
0.0,3.0,3.0,0.0,6.0,6.0,648.6775120001766,1.0,1.0,phase_2,go,500.0,350.0,1.0,,,,,,,,,blue,cross
0.0,4.0,4.0,0.0,5.0,5.0,283.0840640003771,1.0,1.0,phase_2,go,500.0,350.0,1.0,,,,,,,,,magenta,diamond
0.0,5.0,1.0,1.0,5.0,0.0,0.0,1.0,1.0,phase_2,stop,500.0,350.0,4.0,,,,,,,,,gray,circle
0.0,3.0,3.0,0.0,6.0,6.0,907.8723190000346,1.0,1.0,phase_2,go,550.0,350.0,1.0,,,,,,,,,blue,cross
0.0,6.0,2.0,1.0,5.0,0.0,0.0,1.0,1.0,phase_2,stop,550.0,350.0,4.0,,,,,,,,,cyan,square
0.0,4.0,4.0,0.0,6.0,6.0,756.8067640004301,1.0,1.0,phase_2,go,600.0,350.0,1.0,,,,,,,,,magenta,diamond
0.0,7.0,3.0,1.0,6.0,0.0,0.0,1.0,1.0,phase_2,stop,600.0,350.0,4.0,,,,,,,,,yellow,triangle
0.0,3.0,3.0,0.0,6.0,6.0,906.6876270003376,1.0,1.0,phase_2,go,600.0,400.0,1.0,,,,,,,,,blue,cross
0.0,2.0,2.0,0.0,5.0,5.0,996.0941940003069,1.0,1.0,phase_2,go,600.0,400.0,1.0,,,,,,,,,green,hexagon
0.0,8.0,4.0,1.0,5.0,0.0,0.0,1.0,1.0,phase_2,stop,600.0,400.0,4.0,,,,,,,,,orange,I
0.0,8.0,4.0,1.0,6.0,0.0,0.0,1.0,1.0,phase_2,stop,650.0,400.0,4.0,,,,,,,,,orange,I
0.0,7.0,3.0,1.0,5.0,5.0,792.9457230002299,1.0,1.0,phase_2,go,650.0,450.0,1.0,,,,,,,,,yellow,triangle
0.0,7.0,3.0,1.0,5.0,5.0,646.238256000288,1.0,1.0,phase_2,stop,650.0,450.0,3.0,,,,,,,,,yellow,triangle
0.0,1.0,1.0,0.0,5.0,5.0,874.1786210002829,1.0,1.0,phase_2,go,600.0,450.0,1.0,,,,,,,,,white,flipped triangle
0.0,6.0,2.0,1.0,5.0,5.0,334.0081870001086,1.0,1.0,phase_2,stop,600.0,450.0,3.0,,,,,,,,,cyan,square
0.0,5.0,1.0,1.0,5.0,0.0,0.0,1.0,1.0,phase_2,stop,550.0,450.0,4.0,,,,,,,,,gray,circle
0.0,1.0,1.0,0.0,6.0,0.0,0.0,2.0,1.0,phase_2,go,600.0,450.0,5.0,,,,,,,,,white,flipped triangle
0.0,8.0,4.0,1.0,6.0,6.0,404.5715799998106,2.0,1.0,phase_2,stop,600.0,450.0,3.0,,,,,,,,,orange,I
0.0,3.0,3.0,0.0,5.0,5.0,554.5090069999787,2.0,1.0,phase_2,go,600.0,400.0,1.0,,,,,,,,,blue,cross
0.0,2.0,2.0,0.0,5.0,5.0,524.6444449999217,2.0,1.0,phase_2,go,600.0,400.0,1.0,,,,,,,,,green,hexagon
0.0,5.0,1.0,1.0,6.0,6.0,509.2613580000034,2.0,1.0,phase_2,go,600.0,400.0,1.0,,,,,,,,,gray,circle
0.0,5.0,1.0,1.0,6.0,6.0,488.5949519998576,2.0,1.0,phase_2,stop,600.0,400.0,3.0,,,,,,,,,gray,circle
0.0,5.0,1.0,1.0,6.0,6.0,723.0775739999444,2.0,1.0,phase_2,go,600.0,350.0,1.0,,,,,,,,,gray,circle
0.0,4.0,4.0,0.0,6.0,6.0,405.7055739999669,2.0,1.0,phase_2,go,600.0,350.0,1.0,,,,,,,,,magenta,diamond
0.0,3.0,3.0,0.0,5.0,5.0,557.7892639998936,2.0,1.0,phase_2,go,600.0,350.0,1.0,,,,,,,,,blue,cross
0.0,8.0,4.0,1.0,6.0,6.0,429.9134520001644,2.0,1.0,phase_2,stop,600.0,350.0,3.0,,,,,,,,,orange,I
0.0,4.0,4.0,0.0,6.0,6.0,568.0416629998035,2.0,1.0,phase_2,go,600.0,300.0,1.0,,,,,,,,,magenta,diamond
0.0,7.0,3.0,1.0,5.0,5.0,400.0013129998478,2.0,1.0,phase_2,go,600.0,300.0,1.0,,,,,,,,,yellow,triangle
0.0,1.0,1.0,0.0,6.0,6.0,657.1983469998486,2.0,1.0,phase_2,go,600.0,300.0,1.0,,,,,,,,,white,flipped triangle
0.0,8.0,4.0,1.0,5.0,0.0,0.0,2.0,1.0,phase_2,stop,600.0,300.0,4.0,,,,,,,,,orange,I
0.0,4.0,4.0,0.0,5.0,5.0,660.8409789996585,2.0,1.0,phase_2,go,650.0,300.0,1.0,,,,,,,,,magenta,diamond
0.0,5.0,1.0,1.0,5.0,0.0,0.0,2.0,1.0,phase_2,stop,650.0,300.0,4.0,,,,,,,,,gray,circle
0.0,8.0,4.0,1.0,5.0,5.0,614.673559000039,2.0,1.0,phase_2,stop,700.0,300.0,3.0,,,,,,,,,orange,I
0.0,3.0,3.0,0.0,6.0,6.0,608.487132999926,2.0,1.0,phase_2,go,650.0,300.0,1.0,,,,,,,,,blue,cross
0.0,2.0,2.0,0.0,5.0,5.0,810.122027000034,2.0,1.0,phase_2,go,650.0,300.0,1.0,,,,,,,,,green,hexagon
0.0,8.0,4.0,1.0,6.0,0.0,0.0,2.0,1.0,phase_2,stop,650.0,300.0,4.0,,,,,,,,,orange,I
0.0,3.0,3.0,0.0,6.0,6.0,731.2148070000148,2.0,1.0,phase_2,go,650.0,350.0,1.0,,,,,,,,,blue,cross
0.0,2.0,2.0,0.0,5.0,5.0,802.0112509998398,2.0,1.0,phase_2,go,650.0,350.0,1.0,,,,,,,,,green,hexagon
0.0,6.0,2.0,1.0,6.0,6.0,808.1984689997626,2.0,1.0,phase_2,go,650.0,350.0,1.0,,,,,,,,,cyan,square
0.0,6.0,2.0,1.0,6.0,0.0,0.0,2.0,1.0,phase_2,stop,650.0,350.0,4.0,,,,,,,,,cyan,square
0.0,5.0,1.0,1.0,6.0,0.0,0.0,2.0,1.0,phase_2,stop,650.0,400.0,4.0,,,,,,,,,gray,circle
0.0,1.0,1.0,0.0,6.0,6.0,621.7096909999782,2.0,1.0,phase_2,go,650.0,450.0,1.0,,,,,,,,,white,flipped triangle
0.0,2.0,2.0,0.0,6.0,6.0,870.180960000198,2.0,1.0,phase_2,go,650.0,450.0,1.0,,,,,,,,,green,hexagon
0.0,8.0,4.0,1.0,5.0,5.0,708.5494699999799,2.0,1.0,phase_2,go,650.0,450.0,1.0,,,,,,,,,orange,I
0.0,4.0,4.0,0.0,5.0,5.0,565.0385789999746,2.0,1.0,phase_2,go,650.0,450.0,1.0,,,,,,,,,magenta,diamond
0.0,8.0,4.0,1.0,5.0,0.0,0.0,2.0,1.0,phase_2,stop,650.0,450.0,4.0,,,,,,,,,orange,I
0.0,7.0,3.0,1.0,6.0,0.0,0.0,2.0,1.0,phase_2,stop,700.0,450.0,4.0,,,,,,,,,yellow,triangle
0.0,2.0,2.0,0.0,5.0,5.0,642.796829999952,2.0,1.0,phase_2,go,700.0,500.0,1.0,,,,,,,,,green,hexagon
0.0,7.0,3.0,1.0,6.0,6.0,639.1879409998182,2.0,1.0,phase_2,go,700.0,500.0,1.0,,,,,,,,,yellow,triangle
0.0,5.0,1.0,1.0,6.0,0.0,0.0,2.0,1.0,phase_2,stop,700.0,500.0,4.0,,,,,,,,,gray,circle
0.0,8.0,4.0,1.0,6.0,6.0,495.4786940002122,2.0,1.0,phase_2,go,700.0,550.0,1.0,,,,,,,,,orange,I
0.0,7.0,3.0,1.0,5.0,5.0,804.5454200000677,2.0,1.0,phase_2,go,700.0,550.0,1.0,,,,,,,,,yellow,triangle
0.0,4.0,4.0,0.0,6.0,6.0,726.5950109999721,3.0,1.0,phase_2,go,700.0,550.0,1.0,,,,,,,,,magenta,diamond
0.0,2.0,2.0,0.0,6.0,6.0,526.0752630001662,3.0,1.0,phase_2,go,700.0,550.0,1.0,,,,,,,,,green,hexagon
0.0,8.0,4.0,1.0,6.0,6.0,660.4420050002773,3.0,1.0,phase_2,go,700.0,550.0,1.0,,,,,,,,,orange,I
0.0,3.0,3.0,0.0,6.0,6.0,512.6980999998523,3.0,1.0,phase_2,go,700.0,550.0,1.0,,,,,,,,,blue,cross
0.0,6.0,2.0,1.0,6.0,6.0,543.9375319997453,3.0,1.0,phase_2,go,700.0,550.0,1.0,,,,,,,,,cyan,square
0.0,7.0,3.0,1.0,5.0,5.0,581.9627739997486,3.0,1.0,phase_2,stop,700.0,550.0,3.0,,,,,,,,,yellow,triangle
0.0,4.0,4.0,0.0,6.0,6.0,779.3978310000966,3.0,1.0,phase_2,go,650.0,550.0,1.0,,,,,,,,,magenta,diamond
0.0,7.0,3.0,1.0,5.0,5.0,491.113359999872,3.0,1.0,phase_2,stop,650.0,550.0,3.0,,,,,,,,,yellow,triangle
0.0,2.0,2.0,0.0,5.0,5.0,760.6244930002504,3.0,1.0,phase_2,go,600.0,550.0,1.0,,,,,,,,,green,hexagon
0.0,5.0,1.0,1.0,5.0,5.0,656.5881309998076,3.0,1.0,phase_2,stop,600.0,550.0,3.0,,,,,,,,,gray,circle
0.0,3.0,3.0,0.0,6.0,6.0,771.4475689999745,3.0,1.0,phase_2,go,550.0,550.0,1.0,,,,,,,,,blue,cross
0.0,6.0,2.0,1.0,5.0,5.0,667.6400639998974,3.0,1.0,phase_2,stop,550.0,550.0,3.0,,,,,,,,,cyan,square
0.0,7.0,3.0,1.0,6.0,0.0,0.0,3.0,1.0,phase_2,stop,500.0,550.0,4.0,,,,,,,,,yellow,triangle
0.0,7.0,3.0,1.0,6.0,6.0,768.9226309998958,3.0,1.0,phase_2,go,500.0,600.0,1.0,,,,,,,,,yellow,triangle
0.0,6.0,2.0,1.0,6.0,6.0,727.2907970000233,3.0,1.0,phase_2,stop,500.0,600.0,3.0,,,,,,,,,cyan,square
0.0,5.0,1.0,1.0,5.0,0.0,0.0,3.0,1.0,phase_2,stop,500.0,550.0,4.0,,,,,,,,,gray,circle
0.0,1.0,1.0,0.0,6.0,6.0,779.5537389997662,3.0,1.0,phase_2,go,550.0,550.0,1.0,,,,,,,,,white,flipped triangle
0.0,6.0,2.0,1.0,6.0,0.0,0.0,3.0,1.0,phase_2,stop,550.0,550.0,4.0,,,,,,,,,cyan,square
0.0,6.0,2.0,1.0,6.0,6.0,844.1554089999954,3.0,1.0,phase_2,go,550.0,600.0,1.0,,,,,,,,,cyan,square
0.0,1.0,1.0,0.0,6.0,6.0,775.6234319999749,3.0,1.0,phase_2,go,550.0,600.0,1.0,,,,,,,,,white,flipped triangle
0.0,4.0,4.0,0.0,6.0,6.0,934.3549879999956,3.0,1.0,phase_2,go,550.0,600.0,1.0,,,,,,,,,magenta,diamond
0.0,7.0,3.0,1.0,6.0,6.0,754.322325999965,3.0,1.0,phase_2,stop,550.0,600.0,3.0,,,,,,,,,yellow,triangle
0.0,1.0,1.0,0.0,6.0,6.0,772.4174529998891,3.0,1.0,phase_2,go,550.0,550.0,1.0,,,,,,,,,white,flipped triangle
0.0,2.0,2.0,0.0,6.0,6.0,673.870486999931,3.0,1.0,phase_2,go,550.0,550.0,1.0,,,,,,,,,green,hexagon
0.0,3.0,3.0,0.0,6.0,6.0,672.6340069999424,3.0,1.0,phase_2,go,550.0,550.0,1.0,,,,,,,,,blue,cross
0.0,6.0,2.0,1.0,6.0,0.0,0.0,3.0,1.0,phase_2,stop,550.0,550.0,4.0,,,,,,,,,cyan,square
0.0,2.0,2.0,0.0,6.0,6.0,741.7832450000788,3.0,1.0,phase_2,go,550.0,600.0,1.0,,,,,,,,,green,hexagon
0.0,5.0,1.0,1.0,5.0,5.0,676.8162250000387,3.0,1.0,phase_2,go,550.0,600.0,1.0,,,,,,,,,gray,circle
0.0,2.0,2.0,0.0,5.0,5.0,321.7885369999749,3.0,1.0,phase_2,go,550.0,600.0,1.0,,,,,,,,,green,hexagon
0.0,1.0,1.0,0.0,5.0,5.0,638.9536900001076,3.0,1.0,phase_2,go,550.0,600.0,1.0,,,,,,,,,white,flipped triangle
0.0,6.0,2.0,1.0,5.0,5.0,602.2584980000829,3.0,1.0,phase_2,stop,550.0,600.0,3.0,,,,,,,,,cyan,square
0.0,7.0,3.0,1.0,5.0,5.0,617.7631170003224,3.0,1.0,phase_2,stop,500.0,600.0,3.0,,,,,,,,,yellow,triangle
0.0,1.0,1.0,0.0,5.0,5.0,727.5823109998782,3.0,1.0,phase_2,go,450.0,600.0,1.0,,,,,,,,,white,flipped triangle
0.0,6.0,2.0,1.0,5.0,5.0,634.5960399999058,3.0,1.0,phase_2,go,450.0,600.0,1.0,,,,,,,,,cyan,square
0.0,5.0,1.0,1.0,5.0,5.0,836.536064000029,3.0,1.0,phase_2,go,450.0,600.0,1.0,,,,,,,,,gray,circle
0.0,3.0,3.0,0.0,5.0,5.0,762.8451049999967,3.0,1.0,phase_2,go,450.0,600.0,1.0,,,,,,,,,blue,cross
0.0,6.0,2.0,1.0,5.0,5.0,489.1049080001721,4.0,1.0,phase_2,stop,450.0,600.0,3.0,,,,,,,,,cyan,square
0.0,4.0,4.0,0.0,5.0,5.0,586.02182300001,4.0,1.0,phase_2,go,400.0,600.0,1.0,,,,,,,,,magenta,diamond
0.0,7.0,3.0,1.0,6.0,6.0,395.8475489998818,4.0,1.0,phase_2,stop,400.0,600.0,3.0,,,,,,,,,yellow,triangle
0.0,4.0,4.0,0.0,6.0,6.0,594.1714370001137,4.0,1.0,phase_2,go,400.0,550.0,1.0,,,,,,,,,magenta,diamond
0.0,7.0,3.0,1.0,5.0,5.0,532.9873860000589,4.0,1.0,phase_2,stop,400.0,550.0,3.0,,,,,,,,,yellow,triangle
0.0,2.0,2.0,0.0,6.0,6.0,598.261506000199,4.0,1.0,phase_2,go,350.0,550.0,1.0,,,,,,,,,green,hexagon
0.0,8.0,4.0,1.0,5.0,0.0,0.0,4.0,1.0,phase_2,stop,350.0,550.0,4.0,,,,,,,,,orange,I
0.0,8.0,4.0,1.0,6.0,6.0,589.3157499999688,4.0,1.0,phase_2,stop,400.0,550.0,3.0,,,,,,,,,orange,I
0.0,4.0,4.0,0.0,5.0,5.0,599.8992019999605,4.0,1.0,phase_2,go,400.0,500.0,1.0,,,,,,,,,magenta,diamond
0.0,5.0,1.0,1.0,5.0,0.0,0.0,4.0,1.0,phase_2,stop,400.0,500.0,4.0,,,,,,,,,gray,circle
0.0,7.0,3.0,1.0,6.0,6.0,537.8921669998817,4.0,1.0,phase_2,stop,450.0,500.0,3.0,,,,,,,,,yellow,triangle
0.0,8.0,4.0,1.0,5.0,5.0,454.5982109998476,4.0,1.0,phase_2,go,450.0,450.0,1.0,,,,,,,,,orange,I
0.0,2.0,2.0,0.0,6.0,6.0,265.0534379999953,4.0,1.0,phase_2,go,450.0,450.0,1.0,,,,,,,,,green,hexagon
0.0,6.0,2.0,1.0,5.0,5.0,495.2936189997672,4.0,1.0,phase_2,stop,450.0,450.0,3.0,,,,,,,,,cyan,square
0.0,3.0,3.0,0.0,6.0,6.0,659.1764940003486,4.0,1.0,phase_2,go,400.0,450.0,1.0,,,,,,,,,blue,cross
0.0,1.0,1.0,0.0,6.0,6.0,640.7072110000627,4.0,1.0,phase_2,go,400.0,450.0,1.0,,,,,,,,,white,flipped triangle
0.0,3.0,3.0,0.0,6.0,6.0,751.6023090001909,4.0,1.0,phase_2,go,400.0,450.0,1.0,,,,,,,,,blue,cross
0.0,5.0,1.0,1.0,6.0,6.0,709.584384000209,4.0,1.0,phase_2,go,400.0,450.0,1.0,,,,,,,,,gray,circle
0.0,3.0,3.0,0.0,5.0,5.0,648.5265719998097,4.0,1.0,phase_2,go,400.0,450.0,1.0,,,,,,,,,blue,cross
0.0,3.0,3.0,0.0,5.0,5.0,412.4900669999078,4.0,1.0,phase_2,go,400.0,450.0,1.0,,,,,,,,,blue,cross
0.0,2.0,2.0,0.0,6.0,6.0,530.9285240000463,4.0,1.0,phase_2,go,400.0,450.0,1.0,,,,,,,,,green,hexagon
0.0,7.0,3.0,1.0,5.0,5.0,359.1004899999461,4.0,1.0,phase_2,go,400.0,450.0,1.0,,,,,,,,,yellow,triangle
0.0,8.0,4.0,1.0,6.0,6.0,280.4751079997913,4.0,1.0,phase_2,stop,400.0,450.0,3.0,,,,,,,,,orange,I
0.0,2.0,2.0,0.0,6.0,6.0,628.1972080000742,4.0,1.0,phase_2,go,400.0,400.0,1.0,,,,,,,,,green,hexagon
0.0,7.0,3.0,1.0,5.0,0.0,0.0,4.0,1.0,phase_2,stop,400.0,400.0,4.0,,,,,,,,,yellow,triangle
0.0,6.0,2.0,1.0,5.0,0.0,0.0,4.0,1.0,phase_2,stop,450.0,400.0,4.0,,,,,,,,,cyan,square
0.0,3.0,3.0,0.0,5.0,5.0,533.7617330001194,4.0,1.0,phase_2,go,500.0,400.0,1.0,,,,,,,,,blue,cross
0.0,5.0,1.0,1.0,6.0,0.0,0.0,4.0,1.0,phase_2,stop,500.0,400.0,4.0,,,,,,,,,gray,circle
0.0,6.0,2.0,1.0,5.0,5.0,643.3005519998005,4.0,1.0,phase_2,stop,500.0,450.0,3.0,,,,,,,,,cyan,square
0.0,5.0,1.0,1.0,6.0,6.0,697.7723259997219,4.0,1.0,phase_2,go,450.0,450.0,1.0,,,,,,,,,gray,circle
0.0,4.0,4.0,0.0,5.0,5.0,569.4339189999482,4.0,1.0,phase_2,go,450.0,450.0,1.0,,,,,,,,,magenta,diamond
0.0,8.0,4.0,1.0,5.0,5.0,530.8542010002384,4.0,1.0,phase_2,stop,450.0,450.0,3.0,,,,,,,,,orange,I
0.0,3.0,3.0,0.0,6.0,6.0,531.5038399999139,4.0,1.0,phase_2,go,400.0,450.0,1.0,,,,,,,,,blue,cross
0.0,2.0,2.0,0.0,6.0,6.0,653.2897639999646,4.0,1.0,phase_2,go,400.0,450.0,1.0,,,,,,,,,green,hexagon
0.0,8.0,4.0,1.0,6.0,6.0,591.1798819997784,4.0,1.0,phase_2,stop,400.0,450.0,3.0,,,,,,,,,orange,I
0.0,4.0,4.0,0.0,5.0,5.0,688.0888790001336,4.0,1.0,phase_2,go,400.0,400.0,1.0,,,,,,,,,magenta,diamond
0.0,5.0,1.0,1.0,6.0,0.0,0.0,5.0,1.0,phase_2,stop,400.0,400.0,4.0,,,,,,,,,gray,circle
0.0,3.0,3.0,0.0,5.0,5.0,511.4183409996258,5.0,1.0,phase_2,go,400.0,450.0,1.0,,,,,,,,,blue,cross
0.0,4.0,4.0,0.0,5.0,5.0,531.6399100001945,5.0,1.0,phase_2,go,400.0,450.0,1.0,,,,,,,,,magenta,diamond
0.0,6.0,2.0,1.0,5.0,5.0,443.089504999989,5.0,1.0,phase_2,stop,400.0,450.0,3.0,,,,,,,,,cyan,square
0.0,3.0,3.0,0.0,6.0,6.0,439.624743999957,5.0,1.0,phase_2,go,350.0,450.0,1.0,,,,,,,,,blue,cross
0.0,1.0,1.0,0.0,5.0,5.0,502.36313000004884,5.0,1.0,phase_2,go,350.0,450.0,1.0,,,,,,,,,white,flipped triangle
0.0,7.0,3.0,1.0,6.0,6.0,523.2902039997498,5.0,1.0,phase_2,stop,350.0,450.0,3.0,,,,,,,,,yellow,triangle
0.0,6.0,2.0,1.0,6.0,6.0,431.8857570006003,5.0,1.0,phase_2,stop,350.0,400.0,3.0,,,,,,,,,cyan,square
0.0,3.0,3.0,0.0,5.0,5.0,524.4228450001174,5.0,1.0,phase_2,go,350.0,350.0,1.0,,,,,,,,,blue,cross
0.0,1.0,1.0,0.0,6.0,6.0,510.9034140004951,5.0,1.0,phase_2,go,350.0,350.0,1.0,,,,,,,,,white,flipped triangle
0.0,6.0,2.0,1.0,6.0,6.0,559.7163299999011,5.0,1.0,phase_2,go,350.0,350.0,1.0,,,,,,,,,cyan,square
0.0,4.0,4.0,0.0,6.0,6.0,588.8325360001545,5.0,1.0,phase_2,go,350.0,350.0,1.0,,,,,,,,,magenta,diamond
0.0,4.0,4.0,0.0,5.0,5.0,574.663782999778,5.0,1.0,phase_2,go,350.0,350.0,1.0,,,,,,,,,magenta,diamond
0.0,8.0,4.0,1.0,5.0,0.0,0.0,5.0,1.0,phase_2,stop,350.0,350.0,4.0,,,,,,,,,orange,I
0.0,3.0,3.0,0.0,6.0,6.0,584.4555909998235,5.0,1.0,phase_2,go,400.0,350.0,1.0,,,,,,,,,blue,cross
0.0,6.0,2.0,1.0,5.0,0.0,0.0,5.0,1.0,phase_2,stop,400.0,350.0,4.0,,,,,,,,,cyan,square
0.0,7.0,3.0,1.0,5.0,0.0,0.0,5.0,1.0,phase_2,stop,450.0,350.0,4.0,,,,,,,,,yellow,triangle
0.0,2.0,2.0,0.0,5.0,5.0,632.3908360000132,5.0,1.0,phase_2,go,500.0,350.0,1.0,,,,,,,,,green,hexagon
0.0,1.0,1.0,0.0,6.0,6.0,691.3954419997026,5.0,1.0,phase_2,go,500.0,350.0,1.0,,,,,,,,,white,flipped triangle
0.0,5.0,1.0,1.0,5.0,5.0,291.4503709998826,5.0,1.0,phase_2,stop,500.0,350.0,3.0,,,,,,,,,gray,circle
0.0,5.0,1.0,1.0,6.0,6.0,413.7485310002375,5.0,1.0,phase_2,stop,450.0,350.0,3.0,,,,,,,,,gray,circle
0.0,1.0,1.0,0.0,5.0,5.0,522.1995920001063,5.0,1.0,phase_2,go,450.0,300.0,1.0,,,,,,,,,white,flipped triangle
0.0,3.0,3.0,0.0,5.0,5.0,446.9494920003853,5.0,1.0,phase_2,go,450.0,300.0,1.0,,,,,,,,,blue,cross
0.0,7.0,3.0,1.0,6.0,6.0,282.488595000359,5.0,1.0,phase_2,stop,450.0,300.0,3.0,,,,,,,,,yellow,triangle
0.0,7.0,3.0,1.0,6.0,0.0,0.0,5.0,1.0,phase_2,stop,450.0,250.0,4.0,,,,,,,,,yellow,triangle
0.0,2.0,2.0,0.0,6.0,6.0,615.3220849992067,5.0,1.0,phase_2,go,450.0,300.0,1.0,,,,,,,,,green,hexagon
0.0,3.0,3.0,0.0,5.0,5.0,495.2612420001969,5.0,1.0,phase_2,go,450.0,300.0,1.0,,,,,,,,,blue,cross
0.0,8.0,4.0,1.0,6.0,6.0,670.0957550001476,5.0,1.0,phase_2,go,450.0,300.0,1.0,,,,,,,,,orange,I
0.0,6.0,2.0,1.0,6.0,6.0,297.8092550001747,5.0,1.0,phase_2,stop,450.0,300.0,3.0,,,,,,,,,cyan,square
0.0,3.0,3.0,0.0,5.0,5.0,651.0778559995742,5.0,1.0,phase_2,go,450.0,250.0,1.0,,,,,,,,,blue,cross
0.0,7.0,3.0,1.0,5.0,0.0,0.0,5.0,1.0,phase_2,stop,450.0,250.0,4.0,,,,,,,,,yellow,triangle
0.0,8.0,4.0,1.0,5.0,5.0,717.6306510000359,5.0,1.0,phase_2,stop,500.0,250.0,3.0,,,,,,,,,orange,I
0.0,4.0,4.0,0.0,6.0,6.0,665.0279260002208,5.0,1.0,phase_2,go,450.0,250.0,1.0,,,,,,,,,magenta,diamond
0.0,6.0,2.0,1.0,6.0,6.0,701.1906999996427,5.0,1.0,phase_2,go,450.0,250.0,1.0,,,,,,,,,cyan,square
0.0,8.0,4.0,1.0,5.0,0.0,0.0,5.0,1.0,phase_2,stop,450.0,250.0,4.0,,,,,,,,,orange,I
0.0,3.0,3.0,0.0,5.0,5.0,627.4367000005441,5.0,1.0,phase_2,go,500.0,250.0,1.0,,,,,,,,,blue,cross
0.0,5.0,1.0,1.0,5.0,5.0,388.5785910006234,6.0,1.0,phase_2,stop,500.0,250.0,3.0,,,,,,,,,gray,circle
0.0,1.0,1.0,0.0,6.0,6.0,635.9612010001001,6.0,1.0,phase_2,go,450.0,250.0,1.0,,,,,,,,,white,flipped triangle
0.0,2.0,2.0,0.0,5.0,5.0,635.402195000097,6.0,1.0,phase_2,go,450.0,250.0,1.0,,,,,,,,,green,hexagon
0.0,1.0,1.0,0.0,6.0,6.0,399.5856219999041,6.0,1.0,phase_2,go,450.0,250.0,1.0,,,,,,,,,white,flipped triangle
0.0,7.0,3.0,1.0,6.0,6.0,288.2092050003848,6.0,1.0,phase_2,stop,450.0,250.0,3.0,,,,,,,,,yellow,triangle
0.0,2.0,2.0,0.0,6.0,6.0,514.3626939998285,6.0,1.0,phase_2,go,450.0,200.0,1.0,,,,,,,,,green,hexagon
0.0,6.0,2.0,1.0,5.0,5.0,566.2877819995629,6.0,1.0,phase_2,go,450.0,200.0,1.0,,,,,,,,,cyan,square
0.0,3.0,3.0,0.0,5.0,5.0,588.405266999871,6.0,1.0,phase_2,go,450.0,200.0,1.0,,,,,,,,,blue,cross
0.0,5.0,1.0,1.0,6.0,0.0,0.0,6.0,1.0,phase_2,stop,450.0,200.0,4.0,,,,,,,,,gray,circle
0.0,6.0,2.0,1.0,6.0,0.0,0.0,6.0,1.0,phase_2,stop,450.0,250.0,4.0,,,,,,,,,cyan,square
0.0,8.0,4.0,1.0,6.0,0.0,0.0,6.0,1.0,phase_2,stop,450.0,300.0,4.0,,,,,,,,,orange,I
0.0,4.0,4.0,0.0,6.0,6.0,543.6601450001035,6.0,1.0,phase_2,go,450.0,350.0,1.0,,,,,,,,,magenta,diamond
0.0,6.0,2.0,1.0,5.0,5.0,697.724370999822,6.0,1.0,phase_2,go,450.0,350.0,1.0,,,,,,,,,cyan,square
0.0,3.0,3.0,0.0,5.0,5.0,623.0405729993436,6.0,1.0,phase_2,go,450.0,350.0,1.0,,,,,,,,,blue,cross
0.0,4.0,4.0,0.0,6.0,6.0,590.8878610007378,6.0,1.0,phase_2,go,450.0,350.0,1.0,,,,,,,,,magenta,diamond
0.0,6.0,2.0,1.0,6.0,0.0,0.0,6.0,1.0,phase_2,stop,450.0,350.0,4.0,,,,,,,,,cyan,square
0.0,1.0,1.0,0.0,5.0,5.0,612.4393110003439,6.0,1.0,phase_2,go,450.0,400.0,1.0,,,,,,,,,white,flipped triangle
0.0,1.0,1.0,0.0,6.0,6.0,612.1943109992571,6.0,1.0,phase_2,go,450.0,400.0,1.0,,,,,,,,,white,flipped triangle
0.0,1.0,1.0,0.0,5.0,5.0,652.6944110000841,6.0,1.0,phase_2,go,450.0,400.0,1.0,,,,,,,,,white,flipped triangle
0.0,8.0,4.0,1.0,5.0,0.0,0.0,6.0,1.0,phase_2,stop,450.0,400.0,4.0,,,,,,,,,orange,I
0.0,4.0,4.0,0.0,6.0,6.0,567.4369649996152,6.0,1.0,phase_2,go,500.0,400.0,1.0,,,,,,,,,magenta,diamond
0.0,1.0,1.0,0.0,5.0,5.0,570.7988900003329,6.0,1.0,phase_2,go,500.0,400.0,1.0,,,,,,,,,white,flipped triangle
0.0,5.0,1.0,1.0,5.0,5.0,696.1178530000325,6.0,1.0,phase_2,go,500.0,400.0,1.0,,,,,,,,,gray,circle
0.0,3.0,3.0,0.0,5.0,5.0,605.4788229994301,6.0,1.0,phase_2,go,500.0,400.0,1.0,,,,,,,,,blue,cross
0.0,8.0,4.0,1.0,5.0,5.0,542.4581690003834,6.0,1.0,phase_2,stop,500.0,400.0,3.0,,,,,,,,,orange,I
0.0,7.0,3.0,1.0,5.0,0.0,0.0,6.0,1.0,phase_2,stop,450.0,400.0,4.0,,,,,,,,,yellow,triangle
0.0,1.0,1.0,0.0,5.0,5.0,692.513555000005,6.0,1.0,phase_2,go,500.0,400.0,1.0,,,,,,,,,white,flipped triangle
0.0,3.0,3.0,0.0,5.0,5.0,663.0739140000514,6.0,1.0,phase_2,go,500.0,400.0,1.0,,,,,,,,,blue,cross
0.0,2.0,2.0,0.0,6.0,6.0,681.2758890000623,6.0,1.0,phase_2,go,500.0,400.0,1.0,,,,,,,,,green,hexagon
0.0,4.0,4.0,0.0,6.0,6.0,619.1649250004048,6.0,1.0,phase_2,go,500.0,400.0,1.0,,,,,,,,,magenta,diamond
0.0,7.0,3.0,1.0,6.0,6.0,325.7341629996517,6.0,1.0,phase_2,stop,500.0,400.0,3.0,,,,,,,,,yellow,triangle
0.0,1.0,1.0,0.0,5.0,5.0,812.600491000012,6.0,1.0,phase_2,go,500.0,350.0,1.0,,,,,,,,,white,flipped triangle
0.0,8.0,4.0,1.0,5.0,5.0,674.49935500008,6.0,1.0,phase_2,go,500.0,350.0,1.0,,,,,,,,,orange,I
0.0,7.0,3.0,1.0,5.0,5.0,600.4826520002098,6.0,1.0,phase_2,stop,500.0,350.0,3.0,,,,,,,,,yellow,triangle
0.0,8.0,4.0,1.0,6.0,6.0,388.0693020000763,6.0,1.0,phase_2,stop,450.0,350.0,3.0,,,,,,,,,orange,I
0.0,8.0,4.0,1.0,6.0,6.0,600.4629839999325,6.0,1.0,phase_2,go,450.0,300.0,1.0,,,,,,,,,orange,I
0.0,1.0,1.0,0.0,5.0,5.0,653.8974639997832,7.0,1.0,phase_2,go,450.0,300.0,1.0,,,,,,,,,white,flipped triangle
0.0,5.0,1.0,1.0,6.0,0.0,0.0,7.0,1.0,phase_2,stop,450.0,300.0,4.0,,,,,,,,,gray,circle
0.0,2.0,2.0,0.0,6.0,6.0,638.8012130000789,7.0,1.0,phase_2,go,450.0,350.0,1.0,,,,,,,,,green,hexagon
0.0,1.0,1.0,0.0,6.0,6.0,614.1218359998675,7.0,1.0,phase_2,go,450.0,350.0,1.0,,,,,,,,,white,flipped triangle
0.0,1.0,1.0,0.0,6.0,6.0,550.4787170002601,7.0,1.0,phase_2,go,450.0,350.0,1.0,,,,,,,,,white,flipped triangle
0.0,3.0,3.0,0.0,5.0,5.0,516.089567000563,7.0,1.0,phase_2,go,450.0,350.0,1.0,,,,,,,,,blue,cross
0.0,4.0,4.0,0.0,6.0,6.0,757.8966979999677,7.0,1.0,phase_2,go,450.0,350.0,1.0,,,,,,,,,magenta,diamond
0.0,5.0,1.0,1.0,5.0,5.0,422.5820120000207,7.0,1.0,phase_2,stop,450.0,350.0,3.0,,,,,,,,,gray,circle
0.0,4.0,4.0,0.0,6.0,6.0,720.0820840007509,7.0,1.0,phase_2,go,400.0,350.0,1.0,,,,,,,,,magenta,diamond
0.0,6.0,2.0,1.0,6.0,0.0,0.0,7.0,1.0,phase_2,stop,400.0,350.0,4.0,,,,,,,,,cyan,square
0.0,2.0,2.0,0.0,5.0,5.0,679.5837110003049,7.0,1.0,phase_2,go,400.0,400.0,1.0,,,,,,,,,green,hexagon
0.0,7.0,3.0,1.0,6.0,6.0,540.8163249994686,7.0,1.0,phase_2,stop,400.0,400.0,3.0,,,,,,,,,yellow,triangle
0.0,5.0,1.0,1.0,6.0,0.0,0.0,7.0,1.0,phase_2,stop,400.0,350.0,4.0,,,,,,,,,gray,circle
0.0,4.0,4.0,0.0,5.0,5.0,802.7159469993421,7.0,1.0,phase_2,go,400.0,400.0,1.0,,,,,,,,,magenta,diamond
0.0,2.0,2.0,0.0,5.0,5.0,626.7480639999121,7.0,1.0,phase_2,go,400.0,400.0,1.0,,,,,,,,,green,hexagon
0.0,1.0,1.0,0.0,5.0,5.0,614.6826300000612,7.0,1.0,phase_2,go,400.0,400.0,1.0,,,,,,,,,white,flipped triangle
0.0,2.0,2.0,0.0,5.0,5.0,578.0352759993548,7.0,1.0,phase_2,go,400.0,400.0,1.0,,,,,,,,,green,hexagon
0.0,1.0,1.0,0.0,6.0,6.0,309.1023810002298,7.0,1.0,phase_2,go,400.0,400.0,1.0,,,,,,,,,white,flipped triangle
0.0,8.0,4.0,1.0,6.0,0.0,0.0,7.0,1.0,phase_2,stop,400.0,400.0,4.0,,,,,,,,,orange,I
0.0,3.0,3.0,0.0,6.0,6.0,472.1954509996067,7.0,1.0,phase_2,go,400.0,450.0,1.0,,,,,,,,,blue,cross
0.0,8.0,4.0,1.0,5.0,0.0,0.0,7.0,1.0,phase_2,stop,400.0,450.0,4.0,,,,,,,,,orange,I
0.0,7.0,3.0,1.0,6.0,6.0,589.4549750000806,7.0,1.0,phase_2,go,450.0,450.0,1.0,,,,,,,,,yellow,triangle
0.0,8.0,4.0,1.0,5.0,5.0,531.2099370003125,7.0,1.0,phase_2,stop,450.0,450.0,3.0,,,,,,,,,orange,I
0.0,7.0,3.0,1.0,6.0,6.0,591.0982329996841,7.0,1.0,phase_2,go,400.0,450.0,1.0,,,,,,,,,yellow,triangle
0.0,6.0,2.0,1.0,5.0,0.0,0.0,7.0,1.0,phase_2,stop,400.0,450.0,4.0,,,,,,,,,cyan,square
0.0,7.0,3.0,1.0,5.0,0.0,0.0,7.0,1.0,phase_2,stop,450.0,450.0,4.0,,,,,,,,,yellow,triangle
0.0,4.0,4.0,0.0,5.0,5.0,691.2336609993872,7.0,1.0,phase_2,go,500.0,450.0,1.0,,,,,,,,,magenta,diamond
0.0,2.0,2.0,0.0,5.0,5.0,573.9985499994873,7.0,1.0,phase_2,go,500.0,450.0,1.0,,,,,,,,,green,hexagon
0.0,3.0,3.0,0.0,6.0,6.0,693.2385109994357,7.0,1.0,phase_2,go,500.0,450.0,1.0,,,,,,,,,blue,cross
0.0,6.0,2.0,1.0,6.0,0.0,0.0,7.0,1.0,phase_2,stop,500.0,450.0,4.0,,,,,,,,,cyan,square
0.0,2.0,2.0,0.0,6.0,6.0,590.1766729994051,7.0,1.0,phase_2,go,500.0,500.0,1.0,,,,,,,,,green,hexagon
0.0,7.0,3.0,1.0,5.0,5.0,590.2075120002337,7.0,1.0,phase_2,stop,500.0,500.0,3.0,,,,,,,,,yellow,triangle
0.0,1.0,1.0,0.0,6.0,6.0,643.4694800000216,7.0,1.0,phase_2,go,450.0,500.0,1.0,,,,,,,,,white,flipped triangle
0.0,5.0,1.0,1.0,5.0,0.0,0.0,7.0,1.0,phase_2,stop,450.0,500.0,4.0,,,,,,,,,gray,circle
0.0,1.0,1.0,0.0,5.0,5.0,710.3964329999144,7.0,1.0,phase_2,go,500.0,500.0,1.0,,,,,,,,,white,flipped triangle
0.0,4.0,4.0,0.0,5.0,5.0,512.3419350002223,7.0,1.0,phase_2,go,500.0,500.0,1.0,,,,,,,,,magenta,diamond
0.0,4.0,4.0,0.0,5.0,5.0,516.1442700000407,8.0,1.0,phase_2,go,500.0,500.0,1.0,,,,,,,,,magenta,diamond
0.0,5.0,1.0,1.0,5.0,5.0,581.6069929996956,8.0,1.0,phase_2,stop,500.0,500.0,3.0,,,,,,,,,gray,circle
0.0,5.0,1.0,1.0,6.0,6.0,617.6933659999122,8.0,1.0,phase_2,go,450.0,500.0,1.0,,,,,,,,,gray,circle
0.0,2.0,2.0,0.0,6.0,6.0,619.5950159999484,8.0,1.0,phase_2,go,450.0,500.0,1.0,,,,,,,,,green,hexagon
0.0,1.0,1.0,0.0,5.0,5.0,583.9512800002922,8.0,1.0,phase_2,go,450.0,500.0,1.0,,,,,,,,,white,flipped triangle
0.0,2.0,2.0,0.0,6.0,6.0,660.9127640003862,8.0,1.0,phase_2,go,450.0,500.0,1.0,,,,,,,,,green,hexagon
0.0,5.0,1.0,1.0,5.0,0.0,0.0,8.0,1.0,phase_2,stop,450.0,500.0,4.0,,,,,,,,,gray,circle
0.0,5.0,1.0,1.0,5.0,5.0,589.6025080000982,8.0,1.0,phase_2,stop,500.0,500.0,3.0,,,,,,,,,gray,circle
0.0,2.0,2.0,0.0,5.0,5.0,678.2735859997047,8.0,1.0,phase_2,go,450.0,500.0,1.0,,,,,,,,,green,hexagon
0.0,5.0,1.0,1.0,6.0,0.0,0.0,8.0,1.0,phase_2,stop,450.0,500.0,4.0,,,,,,,,,gray,circle
0.0,8.0,4.0,1.0,6.0,0.0,0.0,8.0,1.0,phase_2,stop,450.0,550.0,4.0,,,,,,,,,orange,I
0.0,4.0,4.0,0.0,6.0,6.0,690.7425130002594,8.0,1.0,phase_2,go,450.0,600.0,1.0,,,,,,,,,magenta,diamond
0.0,4.0,4.0,0.0,5.0,5.0,690.7680630001778,8.0,1.0,phase_2,go,450.0,600.0,1.0,,,,,,,,,magenta,diamond
0.0,5.0,1.0,1.0,6.0,6.0,677.0041769996169,8.0,1.0,phase_2,go,450.0,600.0,1.0,,,,,,,,,gray,circle
0.0,4.0,4.0,0.0,6.0,6.0,414.5034869998198,8.0,1.0,phase_2,go,450.0,600.0,1.0,,,,,,,,,magenta,diamond
0.0,8.0,4.0,1.0,6.0,6.0,375.8459099999527,8.0,1.0,phase_2,stop,450.0,600.0,3.0,,,,,,,,,orange,I
0.0,2.0,2.0,0.0,5.0,5.0,558.2303259998298,8.0,1.0,phase_2,go,450.0,550.0,1.0,,,,,,,,,green,hexagon
0.0,3.0,3.0,0.0,6.0,6.0,538.9221610003005,8.0,1.0,phase_2,go,450.0,550.0,1.0,,,,,,,,,blue,cross
0.0,7.0,3.0,1.0,5.0,5.0,455.3604269995048,8.0,1.0,phase_2,go,450.0,550.0,1.0,,,,,,,,,yellow,triangle
0.0,1.0,1.0,0.0,5.0,5.0,582.979537999563,8.0,1.0,phase_2,go,450.0,550.0,1.0,,,,,,,,,white,flipped triangle
0.0,6.0,2.0,1.0,5.0,5.0,510.67592399977,8.0,1.0,phase_2,stop,450.0,550.0,3.0,,,,,,,,,cyan,square
0.0,4.0,4.0,0.0,5.0,5.0,444.7752290006974,8.0,1.0,phase_2,go,400.0,550.0,1.0,,,,,,,,,magenta,diamond
0.0,7.0,3.0,1.0,5.0,0.0,0.0,8.0,1.0,phase_2,stop,400.0,550.0,4.0,,,,,,,,,yellow,triangle
0.0,1.0,1.0,0.0,5.0,5.0,599.6718839996902,8.0,1.0,phase_2,go,450.0,550.0,1.0,,,,,,,,,white,flipped triangle
0.0,8.0,4.0,1.0,6.0,6.0,509.8820989996966,8.0,1.0,phase_2,stop,450.0,550.0,3.0,,,,,,,,,orange,I
0.0,1.0,1.0,0.0,5.0,5.0,573.4333399996103,8.0,1.0,phase_2,go,450.0,500.0,1.0,,,,,,,,,white,flipped triangle
0.0,2.0,2.0,0.0,6.0,6.0,514.7938800000702,8.0,1.0,phase_2,go,450.0,500.0,1.0,,,,,,,,,green,hexagon
0.0,2.0,2.0,0.0,6.0,6.0,309.5050539996009,8.0,1.0,phase_2,go,450.0,500.0,1.0,,,,,,,,,green,hexagon
0.0,6.0,2.0,1.0,6.0,6.0,580.8699339995655,8.0,1.0,phase_2,go,450.0,500.0,1.0,,,,,,,,,cyan,square
0.0,6.0,2.0,1.0,6.0,6.0,295.5015629995614,8.0,1.0,phase_2,stop,450.0,500.0,3.0,,,,,,,,,cyan,square
0.0,8.0,4.0,1.0,5.0,5.0,668.5116759999801,8.0,1.0,phase_2,go,450.0,450.0,1.0,,,,,,,,,orange,I
0.0,5.0,1.0,1.0,6.0,6.0,536.7385360004846,8.0,1.0,phase_2,stop,450.0,450.0,3.0,,,,,,,,,gray,circle
0.0,2.0,2.0,0.0,5.0,5.0,439.1116970000439,8.0,1.0,phase_2,go,450.0,400.0,1.0,,,,,,,,,green,hexagon
0.0,2.0,2.0,0.0,5.0,5.0,405.4879069999515,8.0,1.0,phase_2,go,450.0,400.0,1.0,,,,,,,,,green,hexagon
0.0,4.0,4.0,0.0,5.0,5.0,299.4258099997751,8.0,1.0,phase_2,go,450.0,400.0,1.0,,,,,,,,,magenta,diamond
0.0,6.0,2.0,1.0,6.0,6.0,323.879052999473,8.0,1.0,phase_2,stop,450.0,400.0,3.0,,,,,,,,,cyan,square
0.0,2.0,2.0,0.0,7.0,3.0,4616.97741900025,1.0,1.0,phase_3,,,,,196.0,4.0,294.0,98.0,196.0,49.0,245.0,147.0,green,hexagon
0.0,3.0,3.0,0.0,7.0,5.0,4149.158145000001,1.0,1.0,phase_3,,,,,195.0,5.0,156.0,78.0,234.0,39.0,195.0,117.0,blue,cross
0.0,6.0,2.0,1.0,7.0,1.0,3814.978731999872,1.0,1.0,phase_3,,,,,68.0,2.0,68.0,136.0,102.0,204.0,170.0,34.0,cyan,square
0.0,6.0,2.0,1.0,7.0,2.0,3189.030665000246,1.0,1.0,phase_3,,,,,216.0,4.0,270.0,216.0,324.0,108.0,54.0,162.0,cyan,square
0.0,3.0,3.0,0.0,7.0,4.0,2494.365628000196,1.0,1.0,phase_3,,,,,176.0,4.0,44.0,264.0,88.0,176.0,220.0,132.0,blue,cross
0.0,6.0,2.0,1.0,7.0,4.0,2735.4638039996644,1.0,1.0,phase_3,,,,,117.0,3.0,78.0,39.0,156.0,117.0,234.0,195.0,cyan,square
0.0,1.0,1.0,0.0,7.0,6.0,2239.4381670001167,1.0,1.0,phase_3,,,,,170.0,5.0,34.0,102.0,204.0,136.0,68.0,170.0,white,flipped triangle
0.0,5.0,1.0,1.0,7.0,2.0,3853.8107009999294,1.0,1.0,phase_3,,,,,108.0,2.0,324.0,108.0,270.0,216.0,162.0,54.0,gray,circle
0.0,6.0,2.0,1.0,7.0,4.0,2646.933953999905,1.0,1.0,phase_3,,,,,264.0,6.0,176.0,88.0,220.0,264.0,132.0,44.0,cyan,square
0.0,3.0,3.0,0.0,7.0,6.0,2376.8041819994323,1.0,1.0,phase_3,,,,,170.0,5.0,204.0,102.0,136.0,34.0,68.0,170.0,blue,cross
0.0,7.0,3.0,1.0,7.0,3.0,2744.7676089996094,1.0,1.0,phase_3,,,,,216.0,4.0,54.0,108.0,216.0,270.0,162.0,324.0,yellow,triangle
0.0,7.0,3.0,1.0,7.0,1.0,1645.8073690000674,1.0,1.0,phase_3,,,,,78.0,2.0,78.0,117.0,195.0,156.0,39.0,234.0,yellow,triangle
0.0,1.0,1.0,0.0,7.0,1.0,2617.901290000191,1.0,1.0,phase_3,,,,,132.0,3.0,132.0,176.0,220.0,44.0,88.0,264.0,white,flipped triangle
0.0,4.0,4.0,0.0,7.0,6.0,1588.8340500005145,1.0,1.0,phase_3,,,,,162.0,3.0,54.0,270.0,324.0,216.0,108.0,162.0,magenta,diamond
0.0,6.0,2.0,1.0,7.0,1.0,2239.3171419998907,1.0,1.0,phase_3,,,,,102.0,3.0,102.0,34.0,136.0,68.0,204.0,170.0,cyan,square
0.0,3.0,3.0,0.0,7.0,1.0,2865.8956449999096,1.0,1.0,phase_3,,,,,220.0,5.0,220.0,44.0,88.0,176.0,264.0,132.0,blue,cross
0.0,5.0,1.0,1.0,7.0,3.0,2402.6023659998827,1.0,1.0,phase_3,,,,,270.0,5.0,54.0,324.0,270.0,162.0,108.0,216.0,gray,circle
0.0,5.0,1.0,1.0,7.0,5.0,2747.192099999665,1.0,1.0,phase_3,,,,,147.0,3.0,196.0,245.0,49.0,294.0,147.0,98.0,gray,circle
0.0,3.0,3.0,0.0,7.0,6.0,2609.322375999909,1.0,1.0,phase_3,,,,,147.0,3.0,49.0,196.0,294.0,98.0,245.0,147.0,blue,cross
0.0,1.0,1.0,0.0,7.0,2.0,2982.144849999713,1.0,1.0,phase_3,,,,,147.0,3.0,49.0,147.0,294.0,98.0,245.0,196.0,white,flipped triangle
0.0,7.0,3.0,1.0,7.0,1.0,3499.6251539996592,2.0,1.0,phase_3,,,,,170.0,5.0,170.0,34.0,102.0,136.0,68.0,204.0,yellow,triangle
0.0,5.0,1.0,1.0,7.0,6.0,3890.765381000165,2.0,1.0,phase_3,,,,,195.0,5.0,234.0,117.0,156.0,78.0,39.0,195.0,gray,circle
0.0,1.0,1.0,0.0,7.0,3.0,3565.7992400001604,2.0,1.0,phase_3,,,,,117.0,3.0,78.0,195.0,117.0,234.0,39.0,156.0,white,flipped triangle
0.0,5.0,1.0,1.0,7.0,5.0,3539.0821749997485,2.0,1.0,phase_3,,,,,176.0,4.0,44.0,264.0,220.0,88.0,176.0,132.0,gray,circle
0.0,8.0,4.0,1.0,7.0,3.0,2004.2469099998925,2.0,1.0,phase_3,,,,,204.0,6.0,102.0,136.0,204.0,68.0,170.0,34.0,orange,I
0.0,7.0,3.0,1.0,7.0,2.0,2894.960498000728,2.0,1.0,phase_3,,,,,147.0,3.0,49.0,147.0,98.0,196.0,294.0,245.0,yellow,triangle
0.0,1.0,1.0,0.0,7.0,6.0,1133.013003000087,2.0,1.0,phase_3,,,,,156.0,4.0,78.0,234.0,39.0,117.0,195.0,156.0,white,flipped triangle
0.0,4.0,4.0,0.0,7.0,2.0,3278.6359419997098,2.0,1.0,phase_3,,,,,294.0,6.0,98.0,294.0,245.0,196.0,49.0,147.0,magenta,diamond
0.0,4.0,4.0,0.0,7.0,3.0,2462.413662000472,2.0,1.0,phase_3,,,,,176.0,4.0,220.0,88.0,176.0,132.0,264.0,44.0,magenta,diamond
0.0,4.0,4.0,0.0,7.0,1.0,2390.674209000281,2.0,1.0,phase_3,,,,,102.0,3.0,102.0,68.0,34.0,136.0,170.0,204.0,magenta,diamond
0.0,8.0,4.0,1.0,7.0,4.0,2832.154423999782,2.0,1.0,phase_3,,,,,136.0,4.0,34.0,68.0,204.0,136.0,102.0,170.0,orange,I
0.0,2.0,2.0,0.0,7.0,6.0,2330.790035000064,2.0,1.0,phase_3,,,,,216.0,4.0,108.0,324.0,54.0,162.0,270.0,216.0,green,hexagon
0.0,8.0,4.0,1.0,7.0,1.0,2887.7562549996583,2.0,1.0,phase_3,,,,,245.0,5.0,245.0,98.0,294.0,147.0,49.0,196.0,orange,I
0.0,1.0,1.0,0.0,7.0,5.0,2786.079063000216,2.0,1.0,phase_3,,,,,176.0,4.0,88.0,220.0,44.0,264.0,176.0,132.0,white,flipped triangle
0.0,2.0,2.0,0.0,7.0,4.0,2050.4645929995604,2.0,1.0,phase_3,,,,,264.0,6.0,176.0,44.0,132.0,264.0,220.0,88.0,green,hexagon
0.0,3.0,3.0,0.0,7.0,2.0,3293.298087999574,2.0,1.0,phase_3,,,,,68.0,2.0,170.0,68.0,102.0,136.0,204.0,34.0,blue,cross
0.0,8.0,4.0,1.0,7.0,5.0,1817.640250000295,2.0,1.0,phase_3,,,,,220.0,5.0,132.0,176.0,88.0,44.0,220.0,264.0,orange,I
0.0,8.0,4.0,1.0,7.0,6.0,1355.1980160000312,2.0,1.0,phase_3,,,,,245.0,5.0,196.0,49.0,98.0,294.0,147.0,245.0,orange,I
0.0,6.0,2.0,1.0,7.0,2.0,2194.6866520002004,2.0,1.0,phase_3,,,,,44.0,1.0,176.0,44.0,88.0,264.0,132.0,220.0,cyan,square
0.0,7.0,3.0,1.0,7.0,1.0,2532.52017900013,2.0,1.0,phase_3,,,,,88.0,2.0,88.0,220.0,44.0,176.0,264.0,132.0,yellow,triangle
0.0,1.0,1.0,0.0,7.0,1.0,3185.046479000448,3.0,1.0,phase_3,,,,,68.0,2.0,68.0,170.0,136.0,102.0,34.0,204.0,white,flipped triangle
0.0,8.0,4.0,1.0,7.0,6.0,1028.832754999712,3.0,1.0,phase_3,,,,,88.0,2.0,44.0,264.0,176.0,132.0,220.0,88.0,orange,I
0.0,7.0,3.0,1.0,7.0,6.0,2489.4043300000703,3.0,1.0,phase_3,,,,,245.0,5.0,147.0,196.0,294.0,49.0,98.0,245.0,yellow,triangle
0.0,3.0,3.0,0.0,7.0,5.0,2373.764957000276,3.0,1.0,phase_3,,,,,108.0,2.0,324.0,162.0,54.0,216.0,108.0,270.0,blue,cross
0.0,8.0,4.0,1.0,7.0,2.0,3167.172319000201,3.0,1.0,phase_3,,,,,162.0,3.0,270.0,162.0,216.0,54.0,324.0,108.0,orange,I
0.0,7.0,3.0,1.0,7.0,6.0,2814.992478000022,3.0,1.0,phase_3,,,,,195.0,5.0,117.0,234.0,156.0,78.0,39.0,195.0,yellow,triangle
0.0,2.0,2.0,0.0,7.0,1.0,3618.7628960005895,3.0,1.0,phase_3,,,,,216.0,4.0,216.0,54.0,270.0,324.0,108.0,162.0,green,hexagon
0.0,6.0,2.0,1.0,7.0,5.0,1968.8542599997163,3.0,1.0,phase_3,,,,,195.0,5.0,39.0,78.0,117.0,234.0,195.0,156.0,cyan,square
0.0,4.0,4.0,0.0,7.0,4.0,3049.1195499998867,3.0,1.0,phase_3,,,,,54.0,1.0,162.0,108.0,270.0,54.0,216.0,324.0,magenta,diamond
0.0,2.0,2.0,0.0,7.0,6.0,1670.368060000328,3.0,1.0,phase_3,,,,,88.0,2.0,220.0,44.0,176.0,264.0,132.0,88.0,green,hexagon
0.0,3.0,3.0,0.0,7.0,5.0,3109.155374999318,3.0,1.0,phase_3,,,,,195.0,5.0,78.0,117.0,156.0,234.0,195.0,39.0,blue,cross
0.0,7.0,3.0,1.0,7.0,4.0,3650.7970310003657,3.0,1.0,phase_3,,,,,102.0,3.0,34.0,136.0,170.0,102.0,68.0,204.0,yellow,triangle
0.0,1.0,1.0,0.0,7.0,4.0,4942.293514999619,3.0,1.0,phase_3,,,,,162.0,3.0,216.0,108.0,54.0,162.0,324.0,270.0,white,flipped triangle
0.0,6.0,2.0,1.0,7.0,1.0,4479.164338000373,3.0,1.0,phase_3,,,,,216.0,4.0,216.0,54.0,108.0,162.0,270.0,324.0,cyan,square
0.0,4.0,4.0,0.0,7.0,5.0,3956.748528999924,3.0,1.0,phase_3,,,,,176.0,4.0,220.0,264.0,132.0,88.0,176.0,44.0,magenta,diamond
0.0,4.0,4.0,0.0,7.0,1.0,4450.176737999755,3.0,1.0,phase_3,,,,,195.0,5.0,195.0,156.0,78.0,39.0,234.0,117.0,magenta,diamond
0.0,3.0,3.0,0.0,7.0,6.0,4404.125335000572,3.0,1.0,phase_3,,,,,270.0,5.0,324.0,108.0,54.0,162.0,216.0,270.0,blue,cross
0.0,2.0,2.0,0.0,7.0,2.0,4481.156854999426,3.0,1.0,phase_3,,,,,78.0,2.0,117.0,78.0,195.0,156.0,234.0,39.0,green,hexagon
0.0,1.0,1.0,0.0,7.0,6.0,3917.914963999465,3.0,1.0,phase_3,,,,,294.0,6.0,49.0,98.0,245.0,147.0,196.0,294.0,white,flipped triangle
0.0,2.0,2.0,0.0,7.0,3.0,3121.1284749997503,3.0,1.0,phase_3,,,,,68.0,2.0,204.0,102.0,68.0,34.0,136.0,170.0,green,hexagon
0.0,3.0,3.0,0.0,7.0,5.0,1658.5433680002095,4.0,1.0,phase_3,,,,,147.0,3.0,196.0,245.0,98.0,294.0,147.0,49.0,blue,cross
0.0,4.0,4.0,0.0,7.0,3.0,2644.732453999495,4.0,1.0,phase_3,,,,,78.0,2.0,156.0,39.0,78.0,234.0,195.0,117.0,magenta,diamond
0.0,2.0,2.0,0.0,7.0,5.0,2168.3434499991563,4.0,1.0,phase_3,,,,,170.0,5.0,34.0,204.0,68.0,136.0,170.0,102.0,green,hexagon
0.0,4.0,4.0,0.0,7.0,2.0,3001.7718509998303,4.0,1.0,phase_3,,,,,245.0,5.0,196.0,245.0,98.0,49.0,147.0,294.0,magenta,diamond
0.0,6.0,2.0,1.0,7.0,1.0,4533.807271000114,4.0,1.0,phase_3,,,,,196.0,4.0,196.0,294.0,98.0,147.0,49.0,245.0,cyan,square
0.0,8.0,4.0,1.0,7.0,4.0,2826.784430999396,4.0,1.0,phase_3,,,,,162.0,3.0,108.0,324.0,216.0,162.0,54.0,270.0,orange,I
0.0,8.0,4.0,1.0,7.0,4.0,3897.934711999369,4.0,1.0,phase_3,,,,,156.0,4.0,195.0,39.0,234.0,156.0,117.0,78.0,orange,I
0.0,7.0,3.0,1.0,7.0,6.0,2618.717837999611,4.0,1.0,phase_3,,,,,324.0,6.0,216.0,54.0,108.0,270.0,162.0,324.0,yellow,triangle
0.0,5.0,1.0,1.0,7.0,2.0,4320.041126999968,4.0,1.0,phase_3,,,,,196.0,4.0,245.0,196.0,98.0,294.0,147.0,49.0,gray,circle
0.0,1.0,1.0,0.0,7.0,4.0,3734.285046999503,4.0,1.0,phase_3,,,,,108.0,2.0,216.0,54.0,162.0,108.0,324.0,270.0,white,flipped triangle
0.0,4.0,4.0,0.0,7.0,5.0,4780.516400000124,4.0,1.0,phase_3,,,,,68.0,2.0,170.0,102.0,204.0,136.0,68.0,34.0,magenta,diamond
0.0,8.0,4.0,1.0,7.0,2.0,3776.478093000151,4.0,1.0,phase_3,,,,,78.0,2.0,195.0,78.0,39.0,234.0,117.0,156.0,orange,I
0.0,5.0,1.0,1.0,7.0,4.0,2261.4883420001206,4.0,1.0,phase_3,,,,,204.0,6.0,170.0,136.0,34.0,204.0,68.0,102.0,gray,circle
0.0,2.0,2.0,0.0,7.0,6.0,3578.486178000276,4.0,1.0,phase_3,,,,,98.0,2.0,147.0,245.0,294.0,196.0,49.0,98.0,green,hexagon
0.0,5.0,1.0,1.0,7.0,3.0,2968.691489999401,4.0,1.0,phase_3,,,,,176.0,4.0,88.0,44.0,176.0,264.0,132.0,220.0,gray,circle
0.0,6.0,2.0,1.0,7.0,5.0,2298.7779059994864,4.0,1.0,phase_3,,,,,49.0,1.0,98.0,294.0,196.0,147.0,49.0,245.0,cyan,square
0.0,7.0,3.0,1.0,7.0,1.0,1960.0358309999135,4.0,1.0,phase_3,,,,,220.0,5.0,220.0,264.0,176.0,44.0,88.0,132.0,yellow,triangle
0.0,5.0,1.0,1.0,7.0,1.0,4505.335577000551,4.0,1.0,phase_3,,,,,195.0,5.0,195.0,156.0,39.0,78.0,117.0,234.0,gray,circle
0.0,2.0,2.0,0.0,7.0,3.0,3422.2537089999605,4.0,1.0,phase_3,,,,,234.0,6.0,39.0,78.0,234.0,195.0,117.0,156.0,green,hexagon
0.0,5.0,1.0,1.0,7.0,2.0,3061.6631839993715,4.0,2.0,phase_3,,,,,170.0,5.0,102.0,170.0,136.0,34.0,68.0,204.0,gray,circle
