raw_reward_magnitude,stim_reward,stepwise_reward_magnitude,paired_with_stopping,stim_location,response,reaction_time,block,num_trial_presentations,which_phase,stop_signal_trial_type,left_SSD,right_SSD,accuracy,chosen_bidding_amount,chosen_bidding_level,possible_bid_1,possible_bid_2,possible_bid_3,possible_bid_4,possible_bid_5,possible_bid_6,color_text,shape_text
105.0,2.0,2.0,0.0,3.0,3.0,389.1161609999471,1.0,1.0,phase_1,,,,,,,,,,,,,blue,square
82.0,2.0,2.0,0.0,3.0,3.0,316.6440240001975,1.0,1.0,phase_1,,,,,,,,,,,,,blue,square
201.0,3.0,3.0,0.0,2.0,2.0,285.0276639996991,1.0,1.0,phase_1,,,,,,,,,,,,,cyan,hexagon
111.0,6.0,2.0,1.0,2.0,2.0,333.1125069998961,1.0,1.0,phase_1,,,,,,,,,,,,,yellow,circle
69.0,5.0,1.0,1.0,4.0,4.0,290.9018949999336,1.0,1.0,phase_1,,,,,,,,,,,,,orange,cross
0.0,2.0,0.0,0.0,2.0,2.0,306.0697619998791,1.0,1.0,phase_1,,,,,,,,,,,,,blue,square
397.0,8.0,4.0,1.0,1.0,1.0,359.3596340001568,1.0,1.0,phase_1,,,,,,,,,,,,,white,diamond
53.0,5.0,1.0,1.0,3.0,3.0,286.9692079998458,1.0,1.0,phase_1,,,,,,,,,,,,,orange,cross
0.0,2.0,0.0,0.0,1.0,1.0,374.1584599997622,1.0,1.0,phase_1,,,,,,,,,,,,,blue,square
0.0,7.0,0.0,1.0,4.0,4.0,315.0994030002039,1.0,1.0,phase_1,,,,,,,,,,,,,magenta,triangle
45.0,1.0,1.0,0.0,4.0,4.0,317.7982600000177,1.0,1.0,phase_1,,,,,,,,,,,,,gray,flipped triangle
0.0,4.0,0.0,0.0,4.0,4.0,325.1441330003217,1.0,1.0,phase_1,,,,,,,,,,,,,green,I
72.0,5.0,1.0,1.0,4.0,4.0,304.0995760002261,1.0,1.0,phase_1,,,,,,,,,,,,,orange,cross
414.0,4.0,4.0,0.0,4.0,4.0,312.9130000002078,1.0,1.0,phase_1,,,,,,,,,,,,,green,I
376.0,8.0,4.0,1.0,2.0,2.0,332.5863430000026,1.0,1.0,phase_1,,,,,,,,,,,,,white,diamond
0.0,1.0,0.0,0.0,4.0,4.0,295.8869679996496,1.0,1.0,phase_1,,,,,,,,,,,,,gray,flipped triangle
220.0,3.0,3.0,0.0,4.0,4.0,410.0003940002352,1.0,1.0,phase_1,,,,,,,,,,,,,cyan,hexagon
390.0,8.0,4.0,1.0,3.0,3.0,328.4627870002623,1.0,1.0,phase_1,,,,,,,,,,,,,white,diamond
183.0,3.0,3.0,0.0,2.0,2.0,310.5747459999293,1.0,1.0,phase_1,,,,,,,,,,,,,cyan,hexagon
197.0,3.0,3.0,0.0,4.0,4.0,342.6396680001744,1.0,1.0,phase_1,,,,,,,,,,,,,cyan,hexagon
68.0,1.0,1.0,0.0,2.0,2.0,329.7167620003165,1.0,1.0,phase_1,,,,,,,,,,,,,gray,flipped triangle
175.0,3.0,3.0,0.0,2.0,2.0,321.9577370000479,1.0,1.0,phase_1,,,,,,,,,,,,,cyan,hexagon
180.0,7.0,3.0,1.0,1.0,1.0,336.0786899997947,1.0,1.0,phase_1,,,,,,,,,,,,,magenta,triangle
74.0,1.0,1.0,0.0,1.0,1.0,387.6264769996851,1.0,1.0,phase_1,,,,,,,,,,,,,gray,flipped triangle
45.0,5.0,1.0,1.0,2.0,2.0,309.3632609998167,1.0,1.0,phase_1,,,,,,,,,,,,,orange,cross
0.0,4.0,0.0,0.0,2.0,2.0,353.771960999893,1.0,1.0,phase_1,,,,,,,,,,,,,green,I
194.0,7.0,3.0,1.0,2.0,2.0,350.4535000001851,1.0,1.0,phase_1,,,,,,,,,,,,,magenta,triangle
47.0,1.0,1.0,0.0,1.0,1.0,364.1492340002514,1.0,1.0,phase_1,,,,,,,,,,,,,gray,flipped triangle
389.0,8.0,4.0,1.0,2.0,2.0,310.9312300002784,1.0,1.0,phase_1,,,,,,,,,,,,,white,diamond
100.0,2.0,2.0,0.0,1.0,1.0,305.2256870000747,1.0,1.0,phase_1,,,,,,,,,,,,,blue,square
221.0,3.0,3.0,0.0,3.0,3.0,316.592978999779,1.0,1.0,phase_1,,,,,,,,,,,,,cyan,hexagon
124.0,2.0,2.0,0.0,4.0,4.0,346.1464249999153,1.0,1.0,phase_1,,,,,,,,,,,,,blue,square
213.0,7.0,3.0,1.0,4.0,4.0,311.441423999895,1.0,1.0,phase_1,,,,,,,,,,,,,magenta,triangle
196.0,3.0,3.0,0.0,1.0,1.0,306.8060589998822,1.0,1.0,phase_1,,,,,,,,,,,,,cyan,hexagon
407.0,4.0,4.0,0.0,1.0,1.0,291.9858219997877,1.0,1.0,phase_1,,,,,,,,,,,,,green,I
103.0,2.0,2.0,0.0,4.0,4.0,369.0823299998556,1.0,1.0,phase_1,,,,,,,,,,,,,blue,square
35.0,1.0,1.0,0.0,1.0,1.0,348.6904380001761,1.0,1.0,phase_1,,,,,,,,,,,,,gray,flipped triangle
421.0,8.0,4.0,1.0,2.0,2.0,320.420686000034,1.0,1.0,phase_1,,,,,,,,,,,,,white,diamond
64.0,5.0,1.0,1.0,1.0,1.0,373.5023230001388,1.0,1.0,phase_1,,,,,,,,,,,,,orange,cross
387.0,8.0,4.0,1.0,3.0,3.0,297.4440450002475,1.0,1.0,phase_1,,,,,,,,,,,,,white,diamond
223.0,7.0,3.0,1.0,3.0,3.0,336.2839100000201,1.0,1.0,phase_1,,,,,,,,,,,,,magenta,triangle
80.0,2.0,2.0,0.0,1.0,1.0,303.6725940000906,1.0,1.0,phase_1,,,,,,,,,,,,,blue,square
0.0,8.0,0.0,1.0,4.0,4.0,300.76880300021,1.0,1.0,phase_1,,,,,,,,,,,,,white,diamond
378.0,8.0,4.0,1.0,3.0,3.0,432.9686850001053,1.0,1.0,phase_1,,,,,,,,,,,,,white,diamond
194.0,3.0,3.0,0.0,3.0,3.0,326.1331939997944,1.0,1.0,phase_1,,,,,,,,,,,,,cyan,hexagon
62.0,5.0,1.0,1.0,3.0,3.0,343.3410130000993,1.0,1.0,phase_1,,,,,,,,,,,,,orange,cross
0.0,5.0,0.0,1.0,1.0,1.0,326.8098690000443,1.0,1.0,phase_1,,,,,,,,,,,,,orange,cross
395.0,4.0,4.0,0.0,4.0,4.0,362.2987029998512,1.0,1.0,phase_1,,,,,,,,,,,,,green,I
418.0,8.0,4.0,1.0,1.0,1.0,351.4030390001608,1.0,1.0,phase_1,,,,,,,,,,,,,white,diamond
183.0,7.0,3.0,1.0,4.0,4.0,377.725244999965,1.0,1.0,phase_1,,,,,,,,,,,,,magenta,triangle
71.0,5.0,1.0,1.0,2.0,2.0,324.1364619998421,1.0,1.0,phase_1,,,,,,,,,,,,,orange,cross
105.0,6.0,2.0,1.0,2.0,2.0,323.9432660002421,1.0,1.0,phase_1,,,,,,,,,,,,,yellow,circle
29.0,5.0,1.0,1.0,3.0,3.0,351.2534000001324,1.0,1.0,phase_1,,,,,,,,,,,,,orange,cross
0.0,7.0,0.0,1.0,1.0,1.0,302.3442349999641,1.0,1.0,phase_1,,,,,,,,,,,,,magenta,triangle
225.0,3.0,3.0,0.0,4.0,4.0,342.3779680001644,1.0,1.0,phase_1,,,,,,,,,,,,,cyan,hexagon
178.0,7.0,3.0,1.0,1.0,1.0,302.4465180001243,1.0,1.0,phase_1,,,,,,,,,,,,,magenta,triangle
80.0,6.0,2.0,1.0,4.0,4.0,394.3650090000119,1.0,1.0,phase_1,,,,,,,,,,,,,yellow,circle
113.0,6.0,2.0,1.0,3.0,3.0,324.5352080002703,1.0,1.0,phase_1,,,,,,,,,,,,,yellow,circle
89.0,2.0,2.0,0.0,2.0,2.0,375.7283639997695,1.0,1.0,phase_1,,,,,,,,,,,,,blue,square
178.0,3.0,3.0,0.0,4.0,4.0,362.3231589999705,1.0,1.0,phase_1,,,,,,,,,,,,,cyan,hexagon
27.0,5.0,1.0,1.0,2.0,2.0,297.0866959999512,1.0,1.0,phase_1,,,,,,,,,,,,,orange,cross
43.0,5.0,1.0,1.0,3.0,3.0,325.4343850003351,1.0,1.0,phase_1,,,,,,,,,,,,,orange,cross
424.0,4.0,4.0,0.0,2.0,2.0,336.6378460000305,1.0,1.0,phase_1,,,,,,,,,,,,,green,I
71.0,1.0,1.0,0.0,4.0,4.0,319.1097829999307,1.0,1.0,phase_1,,,,,,,,,,,,,gray,flipped triangle
72.0,1.0,1.0,0.0,3.0,3.0,331.1694009998973,1.0,1.0,phase_1,,,,,,,,,,,,,gray,flipped triangle
65.0,1.0,1.0,0.0,4.0,4.0,379.458175000309,1.0,1.0,phase_1,,,,,,,,,,,,,gray,flipped triangle
188.0,7.0,3.0,1.0,3.0,3.0,313.7225260002196,1.0,1.0,phase_1,,,,,,,,,,,,,magenta,triangle
84.0,6.0,2.0,1.0,3.0,3.0,300.9761459998117,1.0,1.0,phase_1,,,,,,,,,,,,,yellow,circle
0.0,4.0,0.0,0.0,3.0,3.0,373.0967149999742,1.0,1.0,phase_1,,,,,,,,,,,,,green,I
0.0,1.0,0.0,0.0,4.0,4.0,332.2948310001266,1.0,1.0,phase_1,,,,,,,,,,,,,gray,flipped triangle
82.0,2.0,2.0,0.0,4.0,4.0,323.6538790001759,1.0,1.0,phase_1,,,,,,,,,,,,,blue,square
189.0,7.0,3.0,1.0,3.0,3.0,474.4107970000186,1.0,1.0,phase_1,,,,,,,,,,,,,magenta,triangle
0.0,5.0,0.0,1.0,2.0,2.0,325.1513639997938,1.0,1.0,phase_1,,,,,,,,,,,,,orange,cross
404.0,8.0,4.0,1.0,1.0,1.0,344.7170250001363,1.0,1.0,phase_1,,,,,,,,,,,,,white,diamond
404.0,8.0,4.0,1.0,4.0,4.0,318.6884640003882,1.0,1.0,phase_1,,,,,,,,,,,,,white,diamond
49.0,5.0,1.0,1.0,2.0,2.0,311.1824580000757,1.0,1.0,phase_1,,,,,,,,,,,,,orange,cross
0.0,7.0,0.0,1.0,1.0,1.0,320.8124170000701,1.0,1.0,phase_1,,,,,,,,,,,,,magenta,triangle
182.0,3.0,3.0,0.0,1.0,1.0,352.2693400000207,1.0,1.0,phase_1,,,,,,,,,,,,,cyan,hexagon
45.0,1.0,1.0,0.0,2.0,2.0,298.5534720000942,1.0,1.0,phase_1,,,,,,,,,,,,,gray,flipped triangle
395.0,8.0,4.0,1.0,4.0,4.0,263.9662269998553,1.0,1.0,phase_1,,,,,,,,,,,,,white,diamond
191.0,7.0,3.0,1.0,3.0,3.0,310.7444789998226,1.0,1.0,phase_1,,,,,,,,,,,,,magenta,triangle
35.0,1.0,1.0,0.0,3.0,3.0,305.0131019999753,1.0,1.0,phase_1,,,,,,,,,,,,,gray,flipped triangle
69.0,1.0,1.0,0.0,2.0,2.0,339.5553800000925,1.0,1.0,phase_1,,,,,,,,,,,,,gray,flipped triangle
0.0,1.0,0.0,0.0,1.0,1.0,309.3350700000883,1.0,1.0,phase_1,,,,,,,,,,,,,gray,flipped triangle
187.0,7.0,3.0,1.0,4.0,4.0,342.257618000076,1.0,1.0,phase_1,,,,,,,,,,,,,magenta,triangle
0.0,4.0,0.0,0.0,4.0,4.0,308.5244839999177,1.0,1.0,phase_1,,,,,,,,,,,,,green,I
198.0,7.0,3.0,1.0,3.0,3.0,347.9827930000283,1.0,1.0,phase_1,,,,,,,,,,,,,magenta,triangle
210.0,3.0,3.0,0.0,2.0,2.0,388.566381000146,1.0,1.0,phase_1,,,,,,,,,,,,,cyan,hexagon
57.0,1.0,1.0,0.0,4.0,4.0,347.5321629998689,1.0,1.0,phase_1,,,,,,,,,,,,,gray,flipped triangle
418.0,4.0,4.0,0.0,2.0,2.0,278.0435010004112,1.0,1.0,phase_1,,,,,,,,,,,,,green,I
53.0,1.0,1.0,0.0,1.0,1.0,314.3738329999905,1.0,1.0,phase_1,,,,,,,,,,,,,gray,flipped triangle
395.0,4.0,4.0,0.0,1.0,1.0,282.7157859996987,1.0,1.0,phase_1,,,,,,,,,,,,,green,I
184.0,3.0,3.0,0.0,2.0,2.0,314.8740719998386,1.0,1.0,phase_1,,,,,,,,,,,,,cyan,hexagon
91.0,6.0,2.0,1.0,3.0,3.0,351.5134489998672,1.0,1.0,phase_1,,,,,,,,,,,,,yellow,circle
42.0,5.0,1.0,1.0,4.0,4.0,299.5833760001005,1.0,1.0,phase_1,,,,,,,,,,,,,orange,cross
0.0,3.0,0.0,0.0,3.0,3.0,495.22715899956887,1.0,1.0,phase_1,,,,,,,,,,,,,cyan,hexagon
124.0,6.0,2.0,1.0,1.0,1.0,442.5210620001962,1.0,1.0,phase_1,,,,,,,,,,,,,yellow,circle
92.0,6.0,2.0,1.0,3.0,3.0,300.6851270001789,1.0,1.0,phase_1,,,,,,,,,,,,,yellow,circle
219.0,3.0,3.0,0.0,3.0,3.0,311.9499460003681,1.0,1.0,phase_1,,,,,,,,,,,,,cyan,hexagon
35.0,5.0,1.0,1.0,4.0,4.0,336.1323150002135,1.0,1.0,phase_1,,,,,,,,,,,,,orange,cross
219.0,7.0,3.0,1.0,4.0,4.0,307.0008089998737,2.0,1.0,phase_1,,,,,,,,,,,,,magenta,triangle
203.0,7.0,3.0,1.0,4.0,4.0,302.0152509998297,2.0,1.0,phase_1,,,,,,,,,,,,,magenta,triangle
0.0,4.0,0.0,0.0,2.0,2.0,329.1735839998182,2.0,1.0,phase_1,,,,,,,,,,,,,green,I
178.0,3.0,3.0,0.0,2.0,2.0,288.3117860001221,2.0,1.0,phase_1,,,,,,,,,,,,,cyan,hexagon
0.0,6.0,0.0,1.0,4.0,4.0,295.887754999967,2.0,1.0,phase_1,,,,,,,,,,,,,yellow,circle
219.0,3.0,3.0,0.0,4.0,4.0,296.547984999961,2.0,1.0,phase_1,,,,,,,,,,,,,cyan,hexagon
376.0,4.0,4.0,0.0,3.0,3.0,295.6548659999498,2.0,1.0,phase_1,,,,,,,,,,,,,green,I
223.0,3.0,3.0,0.0,4.0,4.0,271.8574550003723,2.0,1.0,phase_1,,,,,,,,,,,,,cyan,hexagon
184.0,3.0,3.0,0.0,2.0,2.0,309.1354270000011,2.0,1.0,phase_1,,,,,,,,,,,,,cyan,hexagon
67.0,5.0,1.0,1.0,4.0,4.0,319.8680710002008,2.0,1.0,phase_1,,,,,,,,,,,,,orange,cross
408.0,8.0,4.0,1.0,3.0,3.0,282.5897300003817,2.0,1.0,phase_1,,,,,,,,,,,,,white,diamond
208.0,3.0,3.0,0.0,1.0,1.0,313.9430390001507,2.0,1.0,phase_1,,,,,,,,,,,,,cyan,hexagon
414.0,8.0,4.0,1.0,1.0,1.0,424.0163030003714,2.0,1.0,phase_1,,,,,,,,,,,,,white,diamond
188.0,3.0,3.0,0.0,1.0,1.0,344.5972760000586,2.0,1.0,phase_1,,,,,,,,,,,,,cyan,hexagon
217.0,3.0,3.0,0.0,3.0,3.0,328.1799080000382,2.0,1.0,phase_1,,,,,,,,,,,,,cyan,hexagon
0.0,2.0,0.0,0.0,2.0,2.0,296.1728390000644,2.0,1.0,phase_1,,,,,,,,,,,,,blue,square
0.0,6.0,0.0,1.0,3.0,3.0,306.4676459998736,2.0,1.0,phase_1,,,,,,,,,,,,,yellow,circle
89.0,6.0,2.0,1.0,1.0,1.0,299.834305999866,2.0,1.0,phase_1,,,,,,,,,,,,,yellow,circle
0.0,6.0,0.0,1.0,2.0,2.0,285.3124959997331,2.0,1.0,phase_1,,,,,,,,,,,,,yellow,circle
112.0,2.0,2.0,0.0,2.0,2.0,351.1026400001356,2.0,1.0,phase_1,,,,,,,,,,,,,blue,square
113.0,2.0,2.0,0.0,2.0,2.0,360.1648499998191,2.0,1.0,phase_1,,,,,,,,,,,,,blue,square
178.0,7.0,3.0,1.0,2.0,2.0,297.9733580000356,2.0,1.0,phase_1,,,,,,,,,,,,,magenta,triangle
120.0,6.0,2.0,1.0,4.0,4.0,305.2163600000313,2.0,1.0,phase_1,,,,,,,,,,,,,yellow,circle
424.0,8.0,4.0,1.0,2.0,2.0,308.1897409997509,2.0,1.0,phase_1,,,,,,,,,,,,,white,diamond
114.0,2.0,2.0,0.0,3.0,3.0,300.5426390000139,2.0,1.0,phase_1,,,,,,,,,,,,,blue,square
182.0,7.0,3.0,1.0,1.0,1.0,281.949431999692,2.0,1.0,phase_1,,,,,,,,,,,,,magenta,triangle
0.0,5.0,0.0,1.0,1.0,1.0,317.0496789998651,2.0,1.0,phase_1,,,,,,,,,,,,,orange,cross
401.0,8.0,4.0,1.0,3.0,3.0,278.0603460000748,2.0,1.0,phase_1,,,,,,,,,,,,,white,diamond
70.0,1.0,1.0,0.0,3.0,3.0,477.1770759998617,2.0,1.0,phase_1,,,,,,,,,,,,,gray,flipped triangle
87.0,6.0,2.0,1.0,1.0,1.0,291.1396260001311,2.0,1.0,phase_1,,,,,,,,,,,,,yellow,circle
389.0,4.0,4.0,0.0,3.0,3.0,276.1847850001686,2.0,1.0,phase_1,,,,,,,,,,,,,green,I
99.0,2.0,2.0,0.0,2.0,2.0,405.0261560000763,2.0,1.0,phase_1,,,,,,,,,,,,,blue,square
0.0,2.0,0.0,0.0,4.0,4.0,294.6562570000424,2.0,1.0,phase_1,,,,,,,,,,,,,blue,square
28.0,5.0,1.0,1.0,1.0,1.0,316.6697970000314,2.0,1.0,phase_1,,,,,,,,,,,,,orange,cross
386.0,4.0,4.0,0.0,1.0,1.0,333.1899029999476,2.0,1.0,phase_1,,,,,,,,,,,,,green,I
184.0,7.0,3.0,1.0,2.0,2.0,317.8937009997753,2.0,1.0,phase_1,,,,,,,,,,,,,magenta,triangle
421.0,8.0,4.0,1.0,1.0,1.0,346.6448230001333,2.0,1.0,phase_1,,,,,,,,,,,,,white,diamond
386.0,8.0,4.0,1.0,4.0,4.0,338.5969579999255,2.0,1.0,phase_1,,,,,,,,,,,,,white,diamond
397.0,8.0,4.0,1.0,2.0,2.0,319.8197609999624,2.0,1.0,phase_1,,,,,,,,,,,,,white,diamond
0.0,1.0,0.0,0.0,4.0,4.0,404.9509400001625,2.0,1.0,phase_1,,,,,,,,,,,,,gray,flipped triangle
47.0,5.0,1.0,1.0,3.0,3.0,418.5200050001185,2.0,1.0,phase_1,,,,,,,,,,,,,orange,cross
117.0,6.0,2.0,1.0,3.0,3.0,327.1861309999622,2.0,1.0,phase_1,,,,,,,,,,,,,yellow,circle
201.0,7.0,3.0,1.0,1.0,1.0,307.0670209999662,2.0,1.0,phase_1,,,,,,,,,,,,,magenta,triangle
28.0,1.0,1.0,0.0,4.0,4.0,292.3718189999817,2.0,1.0,phase_1,,,,,,,,,,,,,gray,flipped triangle
413.0,8.0,4.0,1.0,1.0,1.0,335.5983380001817,2.0,1.0,phase_1,,,,,,,,,,,,,white,diamond
390.0,8.0,4.0,1.0,1.0,1.0,347.9925820001881,2.0,1.0,phase_1,,,,,,,,,,,,,white,diamond
115.0,6.0,2.0,1.0,4.0,4.0,302.6312990000406,2.0,1.0,phase_1,,,,,,,,,,,,,yellow,circle
0.0,3.0,0.0,0.0,1.0,1.0,321.0356350000438,2.0,1.0,phase_1,,,,,,,,,,,,,cyan,hexagon
0.0,8.0,0.0,1.0,4.0,4.0,300.8386480000808,2.0,1.0,phase_1,,,,,,,,,,,,,white,diamond
61.0,1.0,1.0,0.0,1.0,1.0,355.6339540000408,2.0,1.0,phase_1,,,,,,,,,,,,,gray,flipped triangle
416.0,8.0,4.0,1.0,1.0,1.0,365.1519229997575,2.0,1.0,phase_1,,,,,,,,,,,,,white,diamond
421.0,4.0,4.0,0.0,3.0,3.0,326.4339090001158,2.0,1.0,phase_1,,,,,,,,,,,,,green,I
0.0,3.0,0.0,0.0,2.0,2.0,369.891483000174,2.0,1.0,phase_1,,,,,,,,,,,,,cyan,hexagon
0.0,6.0,0.0,1.0,2.0,2.0,271.9003410002187,2.0,1.0,phase_1,,,,,,,,,,,,,yellow,circle
0.0,5.0,0.0,1.0,4.0,4.0,321.2006230000952,2.0,1.0,phase_1,,,,,,,,,,,,,orange,cross
178.0,7.0,3.0,1.0,4.0,4.0,336.9066250002106,2.0,1.0,phase_1,,,,,,,,,,,,,magenta,triangle
62.0,1.0,1.0,0.0,3.0,3.0,335.9757199996238,2.0,1.0,phase_1,,,,,,,,,,,,,gray,flipped triangle
74.0,5.0,1.0,1.0,4.0,4.0,309.5169320004061,2.0,1.0,phase_1,,,,,,,,,,,,,orange,cross
91.0,6.0,2.0,1.0,3.0,3.0,333.5578300002453,2.0,1.0,phase_1,,,,,,,,,,,,,yellow,circle
186.0,7.0,3.0,1.0,2.0,2.0,337.5000750002073,2.0,1.0,phase_1,,,,,,,,,,,,,magenta,triangle
43.0,1.0,1.0,0.0,2.0,2.0,359.2420730001322,2.0,1.0,phase_1,,,,,,,,,,,,,gray,flipped triangle
0.0,6.0,0.0,1.0,3.0,3.0,313.7816949997614,2.0,1.0,phase_1,,,,,,,,,,,,,yellow,circle
409.0,8.0,4.0,1.0,3.0,3.0,319.6787020001466,2.0,1.0,phase_1,,,,,,,,,,,,,white,diamond
92.0,2.0,2.0,0.0,4.0,4.0,393.5502539998197,2.0,1.0,phase_1,,,,,,,,,,,,,blue,square
411.0,8.0,4.0,1.0,4.0,4.0,317.0911840002191,2.0,1.0,phase_1,,,,,,,,,,,,,white,diamond
0.0,8.0,0.0,1.0,2.0,2.0,316.0283920001348,2.0,1.0,phase_1,,,,,,,,,,,,,white,diamond
87.0,2.0,2.0,0.0,2.0,2.0,384.529817999919,2.0,1.0,phase_1,,,,,,,,,,,,,blue,square
216.0,7.0,3.0,1.0,3.0,3.0,348.6206069997024,2.0,1.0,phase_1,,,,,,,,,,,,,magenta,triangle
55.0,5.0,1.0,1.0,4.0,4.0,320.593099999769,2.0,1.0,phase_1,,,,,,,,,,,,,orange,cross
409.0,4.0,4.0,0.0,2.0,2.0,321.384601000318,2.0,1.0,phase_1,,,,,,,,,,,,,green,I
105.0,6.0,2.0,1.0,4.0,4.0,345.0094370000443,2.0,1.0,phase_1,,,,,,,,,,,,,yellow,circle
0.0,3.0,0.0,0.0,3.0,3.0,331.0629130000961,2.0,1.0,phase_1,,,,,,,,,,,,,cyan,hexagon
386.0,8.0,4.0,1.0,4.0,4.0,470.0378580000688,2.0,1.0,phase_1,,,,,,,,,,,,,white,diamond
223.0,7.0,3.0,1.0,2.0,2.0,392.1082030001344,2.0,1.0,phase_1,,,,,,,,,,,,,magenta,triangle
0.0,4.0,0.0,0.0,3.0,3.0,515.1930300003187,2.0,1.0,phase_1,,,,,,,,,,,,,green,I
220.0,7.0,3.0,1.0,1.0,1.0,480.4448659997433,2.0,1.0,phase_1,,,,,,,,,,,,,magenta,triangle
416.0,4.0,4.0,0.0,4.0,4.0,259.9112039997635,2.0,1.0,phase_1,,,,,,,,,,,,,green,I
385.0,8.0,4.0,1.0,2.0,2.0,328.56889299955577,2.0,1.0,phase_1,,,,,,,,,,,,,white,diamond
180.0,3.0,3.0,0.0,1.0,1.0,280.615466999734,2.0,1.0,phase_1,,,,,,,,,,,,,cyan,hexagon
34.0,1.0,1.0,0.0,3.0,3.0,278.2878130001336,2.0,1.0,phase_1,,,,,,,,,,,,,gray,flipped triangle
98.0,2.0,2.0,0.0,3.0,3.0,272.2119490003933,2.0,1.0,phase_1,,,,,,,,,,,,,blue,square
395.0,8.0,4.0,1.0,4.0,4.0,332.8282459997354,2.0,1.0,phase_1,,,,,,,,,,,,,white,diamond
103.0,6.0,2.0,1.0,1.0,1.0,312.3251379997782,2.0,1.0,phase_1,,,,,,,,,,,,,yellow,circle
39.0,1.0,1.0,0.0,4.0,4.0,302.9068989999359,2.0,1.0,phase_1,,,,,,,,,,,,,gray,flipped triangle
197.0,7.0,3.0,1.0,1.0,1.0,283.6771110000882,2.0,1.0,phase_1,,,,,,,,,,,,,magenta,triangle
43.0,5.0,1.0,1.0,1.0,1.0,352.0520369997939,2.0,1.0,phase_1,,,,,,,,,,,,,orange,cross
189.0,3.0,3.0,0.0,3.0,3.0,316.9853510003122,2.0,1.0,phase_1,,,,,,,,,,,,,cyan,hexagon
0.0,3.0,0.0,0.0,3.0,3.0,340.2328790002684,2.0,1.0,phase_1,,,,,,,,,,,,,cyan,hexagon
98.0,6.0,2.0,1.0,2.0,2.0,457.3879350000425,2.0,1.0,phase_1,,,,,,,,,,,,,yellow,circle
33.0,5.0,1.0,1.0,2.0,2.0,342.4374769997484,2.0,1.0,phase_1,,,,,,,,,,,,,orange,cross
102.0,2.0,2.0,0.0,3.0,3.0,512.9143049998675,2.0,1.0,phase_1,,,,,,,,,,,,,blue,square
415.0,4.0,4.0,0.0,4.0,4.0,321.6682790002778,2.0,2.0,phase_1,,,,,,,,,,,,,green,I
378.0,4.0,4.0,0.0,4.0,4.0,310.8283440001287,2.0,1.0,phase_1,,,,,,,,,,,,,green,I
33.0,1.0,1.0,0.0,1.0,1.0,373.6838970003191,2.0,1.0,phase_1,,,,,,,,,,,,,gray,flipped triangle
0.0,7.0,0.0,1.0,2.0,2.0,347.4511229997006,2.0,1.0,phase_1,,,,,,,,,,,,,magenta,triangle
102.0,6.0,2.0,1.0,1.0,1.0,465.3848830002971,2.0,1.0,phase_1,,,,,,,,,,,,,yellow,circle
94.0,2.0,2.0,0.0,3.0,3.0,312.9793119996975,2.0,1.0,phase_1,,,,,,,,,,,,,blue,square
0.0,2.0,0.0,0.0,3.0,3.0,362.6160159997198,2.0,1.0,phase_1,,,,,,,,,,,,,blue,square
0.0,7.0,0.0,1.0,1.0,1.0,402.8954310001609,2.0,1.0,phase_1,,,,,,,,,,,,,magenta,triangle
34.0,1.0,1.0,0.0,1.0,1.0,401.6716239998459,2.0,1.0,phase_1,,,,,,,,,,,,,gray,flipped triangle
57.0,5.0,1.0,1.0,1.0,1.0,340.0422340000659,3.0,1.0,phase_1,,,,,,,,,,,,,orange,cross
393.0,4.0,4.0,0.0,3.0,3.0,301.7239089999748,3.0,1.0,phase_1,,,,,,,,,,,,,green,I
100.0,6.0,2.0,1.0,3.0,3.0,294.0366829998311,3.0,1.0,phase_1,,,,,,,,,,,,,yellow,circle
105.0,2.0,2.0,0.0,4.0,4.0,325.0702489999639,3.0,1.0,phase_1,,,,,,,,,,,,,blue,square
68.0,5.0,1.0,1.0,1.0,1.0,314.1966980001598,3.0,1.0,phase_1,,,,,,,,,,,,,orange,cross
219.0,7.0,3.0,1.0,1.0,1.0,289.5251899999493,3.0,1.0,phase_1,,,,,,,,,,,,,magenta,triangle
417.0,8.0,4.0,1.0,4.0,4.0,304.70054899979,3.0,1.0,phase_1,,,,,,,,,,,,,white,diamond
384.0,8.0,4.0,1.0,4.0,4.0,315.7705230000829,3.0,1.0,phase_1,,,,,,,,,,,,,white,diamond
383.0,4.0,4.0,0.0,3.0,3.0,306.7745340003966,3.0,1.0,phase_1,,,,,,,,,,,,,green,I
383.0,8.0,4.0,1.0,2.0,2.0,270.5031979999148,3.0,1.0,phase_1,,,,,,,,,,,,,white,diamond
404.0,4.0,4.0,0.0,1.0,1.0,372.0249670000157,3.0,1.0,phase_1,,,,,,,,,,,,,green,I
419.0,4.0,4.0,0.0,1.0,1.0,321.8627109999943,3.0,1.0,phase_1,,,,,,,,,,,,,green,I
387.0,4.0,4.0,0.0,1.0,1.0,415.6727919998957,3.0,1.0,phase_1,,,,,,,,,,,,,green,I
0.0,5.0,0.0,1.0,4.0,4.0,451.8680529999983,3.0,1.0,phase_1,,,,,,,,,,,,,orange,cross
386.0,4.0,4.0,0.0,3.0,3.0,318.5680819997287,3.0,1.0,phase_1,,,,,,,,,,,,,green,I
401.0,4.0,4.0,0.0,3.0,3.0,335.7921679998981,3.0,1.0,phase_1,,,,,,,,,,,,,green,I
87.0,2.0,2.0,0.0,1.0,1.0,393.570838999949,3.0,1.0,phase_1,,,,,,,,,,,,,blue,square
0.0,5.0,0.0,1.0,4.0,4.0,304.0236339998046,3.0,1.0,phase_1,,,,,,,,,,,,,orange,cross
192.0,7.0,3.0,1.0,3.0,3.0,299.0796929998396,3.0,1.0,phase_1,,,,,,,,,,,,,magenta,triangle
37.0,5.0,1.0,1.0,3.0,3.0,284.6388830002979,3.0,1.0,phase_1,,,,,,,,,,,,,orange,cross
0.0,2.0,0.0,0.0,4.0,4.0,355.3671649997341,3.0,1.0,phase_1,,,,,,,,,,,,,blue,square
0.0,6.0,0.0,1.0,1.0,1.0,299.4029579999733,3.0,1.0,phase_1,,,,,,,,,,,,,yellow,circle
411.0,4.0,4.0,0.0,1.0,1.0,346.6992879998543,3.0,1.0,phase_1,,,,,,,,,,,,,green,I
397.0,4.0,4.0,0.0,4.0,4.0,297.4214309997478,3.0,1.0,phase_1,,,,,,,,,,,,,green,I
103.0,6.0,2.0,1.0,3.0,3.0,411.8552670001918,3.0,1.0,phase_1,,,,,,,,,,,,,yellow,circle
76.0,2.0,2.0,0.0,1.0,1.0,316.308442999798,3.0,1.0,phase_1,,,,,,,,,,,,,blue,square
219.0,3.0,3.0,0.0,4.0,4.0,303.943184000218,3.0,1.0,phase_1,,,,,,,,,,,,,cyan,hexagon
192.0,3.0,3.0,0.0,4.0,4.0,353.3862629997202,3.0,1.0,phase_1,,,,,,,,,,,,,cyan,hexagon
62.0,1.0,1.0,0.0,3.0,3.0,319.824630000312,3.0,1.0,phase_1,,,,,,,,,,,,,gray,flipped triangle
61.0,5.0,1.0,1.0,2.0,2.0,299.3951459998243,3.0,1.0,phase_1,,,,,,,,,,,,,orange,cross
0.0,3.0,0.0,0.0,3.0,3.0,335.8913679999205,3.0,1.0,phase_1,,,,,,,,,,,,,cyan,hexagon
196.0,7.0,3.0,1.0,1.0,1.0,400.1747219999743,3.0,1.0,phase_1,,,,,,,,,,,,,magenta,triangle
75.0,2.0,2.0,0.0,1.0,1.0,413.9933960000235,3.0,1.0,phase_1,,,,,,,,,,,,,blue,square
191.0,3.0,3.0,0.0,2.0,2.0,314.3765719996736,3.0,1.0,phase_1,,,,,,,,,,,,,cyan,hexagon
0.0,4.0,0.0,0.0,1.0,1.0,368.1970640000145,3.0,1.0,phase_1,,,,,,,,,,,,,green,I
404.0,4.0,4.0,0.0,2.0,2.0,332.8970939996907,3.0,1.0,phase_1,,,,,,,,,,,,,green,I
208.0,7.0,3.0,1.0,2.0,2.0,341.7847569999139,3.0,1.0,phase_1,,,,,,,,,,,,,magenta,triangle
82.0,6.0,2.0,1.0,2.0,2.0,313.6236899999858,3.0,1.0,phase_1,,,,,,,,,,,,,yellow,circle
47.0,5.0,1.0,1.0,1.0,1.0,332.2195490000013,3.0,1.0,phase_1,,,,,,,,,,,,,orange,cross
0.0,8.0,0.0,1.0,2.0,2.0,359.7669350001524,3.0,1.0,phase_1,,,,,,,,,,,,,white,diamond
34.0,5.0,1.0,1.0,3.0,3.0,299.5054990001335,3.0,1.0,phase_1,,,,,,,,,,,,,orange,cross
175.0,7.0,3.0,1.0,1.0,1.0,374.3367560000479,3.0,1.0,phase_1,,,,,,,,,,,,,magenta,triangle
65.0,5.0,1.0,1.0,1.0,1.0,316.2713890001214,3.0,1.0,phase_1,,,,,,,,,,,,,orange,cross
0.0,1.0,0.0,0.0,1.0,1.0,286.3151159999688,3.0,1.0,phase_1,,,,,,,,,,,,,gray,flipped triangle
0.0,3.0,0.0,0.0,3.0,3.0,310.2256239999406,3.0,1.0,phase_1,,,,,,,,,,,,,cyan,hexagon
114.0,6.0,2.0,1.0,4.0,4.0,310.5888039999627,3.0,1.0,phase_1,,,,,,,,,,,,,yellow,circle
74.0,1.0,1.0,0.0,2.0,2.0,313.9038350000191,3.0,1.0,phase_1,,,,,,,,,,,,,gray,flipped triangle
42.0,1.0,1.0,0.0,2.0,2.0,296.4396810002654,3.0,1.0,phase_1,,,,,,,,,,,,,gray,flipped triangle
0.0,7.0,0.0,1.0,2.0,2.0,294.6538330002113,3.0,1.0,phase_1,,,,,,,,,,,,,magenta,triangle
0.0,1.0,0.0,0.0,3.0,3.0,303.0126039998322,3.0,1.0,phase_1,,,,,,,,,,,,,gray,flipped triangle
34.0,5.0,1.0,1.0,2.0,2.0,310.4468040000938,3.0,1.0,phase_1,,,,,,,,,,,,,orange,cross
76.0,6.0,2.0,1.0,2.0,2.0,286.6833909997694,3.0,1.0,phase_1,,,,,,,,,,,,,yellow,circle
225.0,7.0,3.0,1.0,3.0,3.0,371.8741610000506,3.0,1.0,phase_1,,,,,,,,,,,,,magenta,triangle
198.0,3.0,3.0,0.0,3.0,3.0,417.04104100017497,3.0,1.0,phase_1,,,,,,,,,,,,,cyan,hexagon
201.0,3.0,3.0,0.0,3.0,3.0,380.3462320001927,3.0,1.0,phase_1,,,,,,,,,,,,,cyan,hexagon
418.0,4.0,4.0,0.0,3.0,3.0,371.6686909997406,3.0,1.0,phase_1,,,,,,,,,,,,,green,I
418.0,8.0,4.0,1.0,3.0,3.0,313.623041000028,3.0,1.0,phase_1,,,,,,,,,,,,,white,diamond
92.0,2.0,2.0,0.0,2.0,2.0,315.1973369999723,3.0,1.0,phase_1,,,,,,,,,,,,,blue,square
62.0,5.0,1.0,1.0,1.0,1.0,351.0446519999277,3.0,1.0,phase_1,,,,,,,,,,,,,orange,cross
39.0,5.0,1.0,1.0,2.0,2.0,321.7224589998295,3.0,1.0,phase_1,,,,,,,,,,,,,orange,cross
189.0,3.0,3.0,0.0,2.0,2.0,286.4729600000828,3.0,1.0,phase_1,,,,,,,,,,,,,cyan,hexagon
113.0,2.0,2.0,0.0,1.0,1.0,286.6494189997866,3.0,1.0,phase_1,,,,,,,,,,,,,blue,square
100.0,2.0,2.0,0.0,3.0,3.0,296.1712289998104,3.0,1.0,phase_1,,,,,,,,,,,,,blue,square
196.0,7.0,3.0,1.0,2.0,2.0,350.4114889997254,3.0,1.0,phase_1,,,,,,,,,,,,,magenta,triangle
0.0,4.0,0.0,0.0,3.0,3.0,342.6389069995821,3.0,1.0,phase_1,,,,,,,,,,,,,green,I
196.0,3.0,3.0,0.0,1.0,1.0,306.6216520001035,3.0,1.0,phase_1,,,,,,,,,,,,,cyan,hexagon
119.0,6.0,2.0,1.0,3.0,3.0,305.2608329999202,3.0,1.0,phase_1,,,,,,,,,,,,,yellow,circle
47.0,1.0,1.0,0.0,2.0,2.0,354.1517310000017,3.0,1.0,phase_1,,,,,,,,,,,,,gray,flipped triangle
27.0,1.0,1.0,0.0,1.0,1.0,275.1298649995988,3.0,1.0,phase_1,,,,,,,,,,,,,gray,flipped triangle
220.0,7.0,3.0,1.0,4.0,4.0,340.2596739997534,3.0,1.0,phase_1,,,,,,,,,,,,,magenta,triangle
406.0,8.0,4.0,1.0,2.0,2.0,373.7629450001805,3.0,1.0,phase_1,,,,,,,,,,,,,white,diamond
105.0,2.0,2.0,0.0,2.0,2.0,314.6414550001282,3.0,1.0,phase_1,,,,,,,,,,,,,blue,square
0.0,7.0,0.0,1.0,1.0,1.0,308.4351909997167,3.0,1.0,phase_1,,,,,,,,,,,,,magenta,triangle
0.0,4.0,0.0,0.0,1.0,1.0,371.7451249999612,3.0,1.0,phase_1,,,,,,,,,,,,,green,I
0.0,7.0,0.0,1.0,3.0,3.0,314.1297460001624,3.0,1.0,phase_1,,,,,,,,,,,,,magenta,triangle
376.0,8.0,4.0,1.0,4.0,4.0,404.3520079999325,3.0,1.0,phase_1,,,,,,,,,,,,,white,diamond
0.0,6.0,0.0,1.0,1.0,1.0,313.5715040002651,3.0,1.0,phase_1,,,,,,,,,,,,,yellow,circle
221.0,7.0,3.0,1.0,2.0,2.0,389.3792419999045,3.0,1.0,phase_1,,,,,,,,,,,,,magenta,triangle
0.0,1.0,0.0,0.0,4.0,4.0,419.6172389997628,3.0,1.0,phase_1,,,,,,,,,,,,,gray,flipped triangle
0.0,3.0,0.0,0.0,4.0,4.0,370.6943929996669,3.0,1.0,phase_1,,,,,,,,,,,,,cyan,hexagon
120.0,2.0,2.0,0.0,4.0,4.0,373.8437679999151,3.0,1.0,phase_1,,,,,,,,,,,,,blue,square
119.0,2.0,2.0,0.0,3.0,3.0,347.4074779996954,3.0,1.0,phase_1,,,,,,,,,,,,,blue,square
52.0,1.0,1.0,0.0,2.0,2.0,301.564942999903,3.0,1.0,phase_1,,,,,,,,,,,,,gray,flipped triangle
198.0,3.0,3.0,0.0,3.0,3.0,334.9049190001096,3.0,1.0,phase_1,,,,,,,,,,,,,cyan,hexagon
0.0,2.0,0.0,0.0,1.0,1.0,336.5229020000697,3.0,1.0,phase_1,,,,,,,,,,,,,blue,square
213.0,3.0,3.0,0.0,3.0,3.0,330.8540769999126,3.0,1.0,phase_1,,,,,,,,,,,,,cyan,hexagon
118.0,2.0,2.0,0.0,4.0,4.0,331.2831079997522,3.0,1.0,phase_1,,,,,,,,,,,,,blue,square
52.0,5.0,1.0,1.0,2.0,2.0,297.5414089996775,3.0,1.0,phase_1,,,,,,,,,,,,,orange,cross
217.0,7.0,3.0,1.0,3.0,3.0,336.6845880000255,3.0,1.0,phase_1,,,,,,,,,,,,,magenta,triangle
70.0,5.0,1.0,1.0,4.0,4.0,324.46131100005,3.0,1.0,phase_1,,,,,,,,,,,,,orange,cross
184.0,7.0,3.0,1.0,4.0,4.0,373.2089290001568,3.0,1.0,phase_1,,,,,,,,,,,,,magenta,triangle
421.0,4.0,4.0,0.0,3.0,3.0,317.6851189996341,3.0,1.0,phase_1,,,,,,,,,,,,,green,I
0.0,8.0,0.0,1.0,3.0,3.0,315.686702000221,3.0,1.0,phase_1,,,,,,,,,,,,,white,diamond
87.0,2.0,2.0,0.0,3.0,3.0,296.2981239998044,3.0,1.0,phase_1,,,,,,,,,,,,,blue,square
393.0,8.0,4.0,1.0,1.0,1.0,377.0914570000059,3.0,1.0,phase_1,,,,,,,,,,,,,white,diamond
113.0,6.0,2.0,1.0,2.0,2.0,336.2868230001368,3.0,1.0,phase_1,,,,,,,,,,,,,yellow,circle
415.0,8.0,4.0,1.0,2.0,2.0,305.6023849999292,3.0,1.0,phase_1,,,,,,,,,,,,,white,diamond
0.0,6.0,0.0,1.0,3.0,3.0,367.6872289997845,3.0,1.0,phase_1,,,,,,,,,,,,,yellow,circle
417.0,4.0,4.0,0.0,2.0,2.0,341.1180999996759,3.0,1.0,phase_1,,,,,,,,,,,,,green,I
35.0,5.0,1.0,1.0,4.0,4.0,334.9582609998833,3.0,1.0,phase_1,,,,,,,,,,,,,orange,cross
0.0,6.0,0.0,1.0,3.0,3.0,436.3706020003519,4.0,1.0,phase_1,,,,,,,,,,,,,yellow,circle
49.0,1.0,1.0,0.0,2.0,2.0,330.1639239998621,4.0,1.0,phase_1,,,,,,,,,,,,,gray,flipped triangle
407.0,8.0,4.0,1.0,1.0,1.0,291.7415950000759,4.0,1.0,phase_1,,,,,,,,,,,,,white,diamond
53.0,1.0,1.0,0.0,3.0,3.0,328.7178449995735,4.0,1.0,phase_1,,,,,,,,,,,,,gray,flipped triangle
0.0,4.0,0.0,0.0,3.0,3.0,312.9454959998838,4.0,1.0,phase_1,,,,,,,,,,,,,green,I
43.0,1.0,1.0,0.0,4.0,4.0,361.510330999863,4.0,1.0,phase_1,,,,,,,,,,,,,gray,flipped triangle
97.0,6.0,2.0,1.0,1.0,1.0,322.4206869999761,4.0,1.0,phase_1,,,,,,,,,,,,,yellow,circle
0.0,1.0,0.0,0.0,1.0,1.0,350.4945550002958,4.0,1.0,phase_1,,,,,,,,,,,,,gray,flipped triangle
67.0,1.0,1.0,0.0,1.0,1.0,370.5016339999929,4.0,1.0,phase_1,,,,,,,,,,,,,gray,flipped triangle
64.0,1.0,1.0,0.0,2.0,2.0,314.5747540002048,4.0,1.0,phase_1,,,,,,,,,,,,,gray,flipped triangle
30.0,5.0,1.0,1.0,2.0,2.0,335.6284720002804,4.0,1.0,phase_1,,,,,,,,,,,,,orange,cross
377.0,4.0,4.0,0.0,4.0,4.0,328.7879710001107,4.0,1.0,phase_1,,,,,,,,,,,,,green,I
0.0,8.0,0.0,1.0,3.0,3.0,361.7352379997101,4.0,1.0,phase_1,,,,,,,,,,,,,white,diamond
376.0,4.0,4.0,0.0,3.0,3.0,329.3585010001152,4.0,1.0,phase_1,,,,,,,,,,,,,green,I
411.0,8.0,4.0,1.0,4.0,4.0,329.707942999903,4.0,1.0,phase_1,,,,,,,,,,,,,white,diamond
386.0,8.0,4.0,1.0,3.0,3.0,331.2070250003671,4.0,1.0,phase_1,,,,,,,,,,,,,white,diamond
390.0,4.0,4.0,0.0,1.0,1.0,348.2526299999335,4.0,1.0,phase_1,,,,,,,,,,,,,green,I
0.0,7.0,0.0,1.0,4.0,4.0,317.2570460001225,4.0,1.0,phase_1,,,,,,,,,,,,,magenta,triangle
37.0,1.0,1.0,0.0,3.0,3.0,345.1719660001799,4.0,1.0,phase_1,,,,,,,,,,,,,gray,flipped triangle
223.0,3.0,3.0,0.0,2.0,2.0,416.977947000305,4.0,1.0,phase_1,,,,,,,,,,,,,cyan,hexagon
204.0,7.0,3.0,1.0,1.0,1.0,327.4413120002464,4.0,1.0,phase_1,,,,,,,,,,,,,magenta,triangle
0.0,5.0,0.0,1.0,4.0,4.0,304.719422999824,4.0,1.0,phase_1,,,,,,,,,,,,,orange,cross
406.0,4.0,4.0,0.0,1.0,1.0,339.3462539997927,4.0,1.0,phase_1,,,,,,,,,,,,,green,I
210.0,7.0,3.0,1.0,3.0,3.0,381.3561510000909,4.0,1.0,phase_1,,,,,,,,,,,,,magenta,triangle
189.0,7.0,3.0,1.0,2.0,2.0,661.828979999882,4.0,1.0,phase_1,,,,,,,,,,,,,magenta,triangle
411.0,8.0,4.0,1.0,3.0,3.0,349.6616299999004,4.0,1.0,phase_1,,,,,,,,,,,,,white,diamond
0.0,5.0,0.0,1.0,3.0,3.0,341.3273050000498,4.0,1.0,phase_1,,,,,,,,,,,,,orange,cross
115.0,2.0,2.0,0.0,2.0,2.0,334.0804719996413,4.0,1.0,phase_1,,,,,,,,,,,,,blue,square
33.0,1.0,1.0,0.0,3.0,3.0,366.9146260003799,4.0,1.0,phase_1,,,,,,,,,,,,,gray,flipped triangle
84.0,2.0,2.0,0.0,4.0,4.0,388.9885359999425,4.0,1.0,phase_1,,,,,,,,,,,,,blue,square
87.0,6.0,2.0,1.0,4.0,4.0,330.9893409996221,4.0,1.0,phase_1,,,,,,,,,,,,,yellow,circle
97.0,2.0,2.0,0.0,2.0,2.0,323.2039190002069,4.0,1.0,phase_1,,,,,,,,,,,,,blue,square
419.0,8.0,4.0,1.0,2.0,2.0,307.6724590000594,4.0,1.0,phase_1,,,,,,,,,,,,,white,diamond
187.0,3.0,3.0,0.0,1.0,1.0,422.60659700014,4.0,1.0,phase_1,,,,,,,,,,,,,cyan,hexagon
0.0,1.0,0.0,0.0,4.0,4.0,302.4550049999561,4.0,1.0,phase_1,,,,,,,,,,,,,gray,flipped triangle
198.0,7.0,3.0,1.0,4.0,4.0,303.0980449998424,4.0,1.0,phase_1,,,,,,,,,,,,,magenta,triangle
220.0,3.0,3.0,0.0,1.0,1.0,359.5430320001469,4.0,1.0,phase_1,,,,,,,,,,,,,cyan,hexagon
111.0,2.0,2.0,0.0,4.0,4.0,315.6525160002275,4.0,1.0,phase_1,,,,,,,,,,,,,blue,square
99.0,6.0,2.0,1.0,3.0,3.0,302.6658090002456,4.0,1.0,phase_1,,,,,,,,,,,,,yellow,circle
91.0,2.0,2.0,0.0,1.0,1.0,343.7829610002154,4.0,1.0,phase_1,,,,,,,,,,,,,blue,square
37.0,1.0,1.0,0.0,4.0,4.0,333.1117180000547,4.0,1.0,phase_1,,,,,,,,,,,,,gray,flipped triangle
0.0,3.0,0.0,0.0,1.0,1.0,364.6139730003597,4.0,1.0,phase_1,,,,,,,,,,,,,cyan,hexagon
0.0,8.0,0.0,1.0,2.0,2.0,303.2001149999814,4.0,1.0,phase_1,,,,,,,,,,,,,white,diamond
0.0,2.0,0.0,0.0,1.0,1.0,352.8293949998442,4.0,1.0,phase_1,,,,,,,,,,,,,blue,square
116.0,6.0,2.0,1.0,4.0,4.0,323.3356779996938,4.0,1.0,phase_1,,,,,,,,,,,,,yellow,circle
201.0,7.0,3.0,1.0,2.0,2.0,288.5760489998574,4.0,1.0,phase_1,,,,,,,,,,,,,magenta,triangle
0.0,8.0,0.0,1.0,1.0,1.0,366.4693149999039,4.0,1.0,phase_1,,,,,,,,,,,,,white,diamond
0.0,5.0,0.0,1.0,3.0,3.0,306.4758800001073,4.0,1.0,phase_1,,,,,,,,,,,,,orange,cross
0.0,6.0,0.0,1.0,4.0,4.0,355.3253479999512,4.0,1.0,phase_1,,,,,,,,,,,,,yellow,circle
178.0,3.0,3.0,0.0,1.0,1.0,608.9066999998067,4.0,1.0,phase_1,,,,,,,,,,,,,cyan,hexagon
397.0,4.0,4.0,0.0,1.0,1.0,323.4495019996757,4.0,1.0,phase_1,,,,,,,,,,,,,green,I
29.0,1.0,1.0,0.0,1.0,1.0,300.1969639999515,4.0,1.0,phase_1,,,,,,,,,,,,,gray,flipped triangle
204.0,3.0,3.0,0.0,3.0,3.0,321.2274349998552,4.0,1.0,phase_1,,,,,,,,,,,,,cyan,hexagon
102.0,2.0,2.0,0.0,1.0,1.0,329.7843690002082,4.0,1.0,phase_1,,,,,,,,,,,,,blue,square
30.0,1.0,1.0,0.0,4.0,4.0,279.9918719997549,4.0,1.0,phase_1,,,,,,,,,,,,,gray,flipped triangle
112.0,6.0,2.0,1.0,1.0,1.0,341.2335990001338,4.0,1.0,phase_1,,,,,,,,,,,,,yellow,circle
103.0,2.0,2.0,0.0,2.0,2.0,310.1505780000479,4.0,1.0,phase_1,,,,,,,,,,,,,blue,square
92.0,6.0,2.0,1.0,4.0,4.0,309.3791200003579,4.0,1.0,phase_1,,,,,,,,,,,,,yellow,circle
45.0,5.0,1.0,1.0,3.0,3.0,338.9405160000933,4.0,1.0,phase_1,,,,,,,,,,,,,orange,cross
0.0,7.0,0.0,1.0,3.0,3.0,325.6375579999258,4.0,1.0,phase_1,,,,,,,,,,,,,magenta,triangle
100.0,6.0,2.0,1.0,1.0,1.0,349.558843000068,4.0,1.0,phase_1,,,,,,,,,,,,,yellow,circle
98.0,6.0,2.0,1.0,2.0,2.0,305.3017349998299,4.0,1.0,phase_1,,,,,,,,,,,,,yellow,circle
385.0,4.0,4.0,0.0,4.0,4.0,295.888620000369,4.0,1.0,phase_1,,,,,,,,,,,,,green,I
98.0,2.0,2.0,0.0,4.0,4.0,345.6353750002563,4.0,1.0,phase_1,,,,,,,,,,,,,blue,square
74.0,5.0,1.0,1.0,4.0,4.0,316.9516150001072,4.0,1.0,phase_1,,,,,,,,,,,,,orange,cross
384.0,4.0,4.0,0.0,2.0,2.0,283.3604490001562,4.0,1.0,phase_1,,,,,,,,,,,,,green,I
105.0,6.0,2.0,1.0,2.0,2.0,285.2613270001711,4.0,1.0,phase_1,,,,,,,,,,,,,yellow,circle
118.0,6.0,2.0,1.0,2.0,2.0,286.4332869999089,4.0,1.0,phase_1,,,,,,,,,,,,,yellow,circle
408.0,4.0,4.0,0.0,4.0,4.0,316.5893479999795,4.0,1.0,phase_1,,,,,,,,,,,,,green,I
87.0,6.0,2.0,1.0,4.0,4.0,341.0270519998448,4.0,1.0,phase_1,,,,,,,,,,,,,yellow,circle
413.0,4.0,4.0,0.0,2.0,2.0,297.487904999798,4.0,1.0,phase_1,,,,,,,,,,,,,green,I
411.0,4.0,4.0,0.0,2.0,2.0,264.8087419997864,4.0,1.0,phase_1,,,,,,,,,,,,,green,I
55.0,1.0,1.0,0.0,3.0,3.0,324.4194039998547,4.0,1.0,phase_1,,,,,,,,,,,,,gray,flipped triangle
0.0,5.0,0.0,1.0,2.0,2.0,325.1211029996739,4.0,1.0,phase_1,,,,,,,,,,,,,orange,cross
33.0,5.0,1.0,1.0,1.0,1.0,363.2002079998528,4.0,1.0,phase_1,,,,,,,,,,,,,orange,cross
55.0,1.0,1.0,0.0,4.0,4.0,314.9763269998402,4.0,1.0,phase_1,,,,,,,,,,,,,gray,flipped triangle
0.0,1.0,0.0,0.0,2.0,2.0,302.6892289999523,4.0,1.0,phase_1,,,,,,,,,,,,,gray,flipped triangle
102.0,6.0,2.0,1.0,1.0,1.0,364.123974999984,4.0,1.0,phase_1,,,,,,,,,,,,,yellow,circle
75.0,6.0,2.0,1.0,2.0,2.0,295.2597290000085,4.0,1.0,phase_1,,,,,,,,,,,,,yellow,circle
37.0,5.0,1.0,1.0,3.0,3.0,309.3257890000132,4.0,1.0,phase_1,,,,,,,,,,,,,orange,cross
216.0,3.0,3.0,0.0,4.0,4.0,329.4556880000527,4.0,1.0,phase_1,,,,,,,,,,,,,cyan,hexagon
82.0,6.0,2.0,1.0,1.0,1.0,347.6591759999792,4.0,1.0,phase_1,,,,,,,,,,,,,yellow,circle
386.0,4.0,4.0,0.0,4.0,4.0,408.9562829999522,4.0,1.0,phase_1,,,,,,,,,,,,,green,I
0.0,8.0,0.0,1.0,2.0,2.0,360.0295960000039,4.0,1.0,phase_1,,,,,,,,,,,,,white,diamond
390.0,4.0,4.0,0.0,2.0,2.0,292.9790849998426,4.0,1.0,phase_1,,,,,,,,,,,,,green,I
203.0,3.0,3.0,0.0,1.0,1.0,348.5787689996868,4.0,1.0,phase_1,,,,,,,,,,,,,cyan,hexagon
117.0,2.0,2.0,0.0,3.0,3.0,332.6662380000016,4.0,1.0,phase_1,,,,,,,,,,,,,blue,square
411.0,4.0,4.0,0.0,2.0,2.0,295.2248689998669,4.0,1.0,phase_1,,,,,,,,,,,,,green,I
116.0,2.0,2.0,0.0,1.0,1.0,296.0817120001593,4.0,1.0,phase_1,,,,,,,,,,,,,blue,square
0.0,3.0,0.0,0.0,1.0,1.0,295.0784790000398,4.0,1.0,phase_1,,,,,,,,,,,,,cyan,hexagon
0.0,2.0,0.0,0.0,2.0,2.0,310.7083840000086,4.0,1.0,phase_1,,,,,,,,,,,,,blue,square
91.0,2.0,2.0,0.0,1.0,1.0,338.5570030000053,4.0,1.0,phase_1,,,,,,,,,,,,,blue,square
53.0,5.0,1.0,1.0,3.0,3.0,328.4744369998407,4.0,1.0,phase_1,,,,,,,,,,,,,orange,cross
0.0,2.0,0.0,0.0,2.0,2.0,293.8466809996498,4.0,1.0,phase_1,,,,,,,,,,,,,blue,square
377.0,8.0,4.0,1.0,3.0,3.0,339.5341229997939,4.0,1.0,phase_1,,,,,,,,,,,,,white,diamond
0.0,8.0,0.0,1.0,4.0,4.0,473.8944219998302,4.0,1.0,phase_1,,,,,,,,,,,,,white,diamond
55.0,5.0,1.0,1.0,1.0,1.0,413.1441090003136,4.0,1.0,phase_1,,,,,,,,,,,,,orange,cross
186.0,3.0,3.0,0.0,4.0,4.0,320.1796839998678,4.0,1.0,phase_1,,,,,,,,,,,,,cyan,hexagon
219.0,7.0,3.0,1.0,4.0,4.0,310.4179419997308,4.0,1.0,phase_1,,,,,,,,,,,,,magenta,triangle
94.0,6.0,2.0,1.0,4.0,4.0,291.6248639999139,4.0,1.0,phase_1,,,,,,,,,,,,,yellow,circle
0.0,6.0,2.0,1.0,5.0,5.0,414.809041999888,1.0,1.0,phase_2,stop,250.0,250.0,3.0,,,,,,,,,yellow,circle
0.0,8.0,4.0,1.0,6.0,6.0,407.9800529998465,1.0,1.0,phase_2,stop,200.0,250.0,3.0,,,,,,,,,white,diamond
0.0,5.0,1.0,1.0,5.0,5.0,541.0178990000531,1.0,1.0,phase_2,go,200.0,200.0,1.0,,,,,,,,,orange,cross
0.0,1.0,1.0,0.0,6.0,6.0,574.9496420003197,1.0,1.0,phase_2,go,200.0,200.0,1.0,,,,,,,,,gray,flipped triangle
0.0,1.0,1.0,0.0,5.0,5.0,468.2747809997636,1.0,1.0,phase_2,go,200.0,200.0,1.0,,,,,,,,,gray,flipped triangle
0.0,4.0,4.0,0.0,6.0,6.0,705.5975820003368,1.0,1.0,phase_2,go,200.0,200.0,1.0,,,,,,,,,green,I
0.0,7.0,3.0,1.0,6.0,6.0,515.5338449999363,1.0,1.0,phase_2,go,200.0,200.0,1.0,,,,,,,,,magenta,triangle
0.0,3.0,3.0,0.0,5.0,5.0,427.634960999967,1.0,1.0,phase_2,go,200.0,200.0,1.0,,,,,,,,,cyan,hexagon
0.0,1.0,1.0,0.0,6.0,6.0,431.4994340002158,1.0,1.0,phase_2,go,200.0,200.0,1.0,,,,,,,,,gray,flipped triangle
0.0,4.0,4.0,0.0,6.0,6.0,332.5198170000476,1.0,1.0,phase_2,go,200.0,200.0,1.0,,,,,,,,,green,I
0.0,7.0,3.0,1.0,6.0,6.0,281.2990090001221,1.0,1.0,phase_2,stop,200.0,200.0,3.0,,,,,,,,,magenta,triangle
0.0,1.0,1.0,0.0,6.0,6.0,326.969575000021,1.0,1.0,phase_2,go,200.0,150.0,1.0,,,,,,,,,gray,flipped triangle
0.0,5.0,1.0,1.0,6.0,0.0,0.0,1.0,1.0,phase_2,stop,200.0,150.0,4.0,,,,,,,,,orange,cross
0.0,4.0,4.0,0.0,5.0,5.0,393.0838750002294,1.0,1.0,phase_2,go,200.0,200.0,1.0,,,,,,,,,green,I
0.0,7.0,3.0,1.0,6.0,0.0,0.0,1.0,1.0,phase_2,stop,200.0,200.0,4.0,,,,,,,,,magenta,triangle
0.0,1.0,1.0,0.0,6.0,6.0,567.2185520002131,1.0,1.0,phase_2,go,200.0,250.0,1.0,,,,,,,,,gray,flipped triangle
0.0,3.0,3.0,0.0,6.0,6.0,724.9674379995668,1.0,1.0,phase_2,go,200.0,250.0,1.0,,,,,,,,,cyan,hexagon
0.0,1.0,1.0,0.0,6.0,6.0,565.8850340000754,1.0,1.0,phase_2,go,200.0,250.0,1.0,,,,,,,,,gray,flipped triangle
0.0,4.0,4.0,0.0,6.0,6.0,536.5835900001912,1.0,1.0,phase_2,go,200.0,250.0,1.0,,,,,,,,,green,I
0.0,1.0,1.0,0.0,6.0,6.0,468.7683260003723,1.0,1.0,phase_2,go,200.0,250.0,1.0,,,,,,,,,gray,flipped triangle
0.0,3.0,3.0,0.0,6.0,6.0,462.8658099995846,1.0,1.0,phase_2,go,200.0,250.0,1.0,,,,,,,,,cyan,hexagon
0.0,5.0,1.0,1.0,5.0,0.0,0.0,1.0,1.0,phase_2,stop,200.0,250.0,4.0,,,,,,,,,orange,cross
0.0,6.0,2.0,1.0,6.0,6.0,409.9381989999529,1.0,1.0,phase_2,stop,250.0,250.0,3.0,,,,,,,,,yellow,circle
0.0,2.0,2.0,0.0,6.0,6.0,477.883539999766,1.0,1.0,phase_2,go,250.0,200.0,1.0,,,,,,,,,blue,square
0.0,7.0,3.0,1.0,5.0,5.0,479.506646000118,1.0,1.0,phase_2,go,250.0,200.0,1.0,,,,,,,,,magenta,triangle
0.0,1.0,1.0,0.0,5.0,5.0,462.890797,1.0,1.0,phase_2,go,250.0,200.0,1.0,,,,,,,,,gray,flipped triangle
0.0,1.0,1.0,0.0,6.0,6.0,533.9395490000243,1.0,1.0,phase_2,go,250.0,200.0,1.0,,,,,,,,,gray,flipped triangle
0.0,2.0,2.0,0.0,6.0,6.0,433.2290570000623,1.0,1.0,phase_2,go,250.0,200.0,1.0,,,,,,,,,blue,square
0.0,5.0,1.0,1.0,5.0,0.0,0.0,1.0,1.0,phase_2,stop,250.0,200.0,4.0,,,,,,,,,orange,cross
0.0,5.0,1.0,1.0,5.0,0.0,0.0,1.0,1.0,phase_2,stop,300.0,200.0,4.0,,,,,,,,,orange,cross
0.0,7.0,3.0,1.0,6.0,0.0,0.0,1.0,1.0,phase_2,stop,350.0,200.0,4.0,,,,,,,,,magenta,triangle
0.0,4.0,4.0,0.0,5.0,5.0,538.4704359998977,1.0,1.0,phase_2,go,350.0,250.0,1.0,,,,,,,,,green,I
0.0,3.0,3.0,0.0,5.0,5.0,481.77161600006,1.0,1.0,phase_2,go,350.0,250.0,1.0,,,,,,,,,cyan,hexagon
0.0,1.0,1.0,0.0,5.0,5.0,429.4824879998486,1.0,1.0,phase_2,go,350.0,250.0,1.0,,,,,,,,,gray,flipped triangle
0.0,2.0,2.0,0.0,6.0,6.0,571.7818900002385,1.0,1.0,phase_2,go,350.0,250.0,1.0,,,,,,,,,blue,square
0.0,4.0,4.0,0.0,6.0,6.0,429.2478780002966,1.0,1.0,phase_2,go,350.0,250.0,1.0,,,,,,,,,green,I
0.0,3.0,3.0,0.0,5.0,5.0,662.7058029998807,2.0,1.0,phase_2,go,350.0,250.0,1.0,,,,,,,,,cyan,hexagon
0.0,4.0,4.0,0.0,5.0,5.0,388.2973449999554,2.0,1.0,phase_2,go,350.0,250.0,1.0,,,,,,,,,green,I
0.0,6.0,2.0,1.0,6.0,0.0,0.0,2.0,1.0,phase_2,stop,350.0,250.0,4.0,,,,,,,,,yellow,circle
0.0,6.0,2.0,1.0,5.0,5.0,413.7728929999866,2.0,1.0,phase_2,go,350.0,300.0,1.0,,,,,,,,,yellow,circle
0.0,6.0,2.0,1.0,5.0,5.0,423.8749439996354,2.0,1.0,phase_2,go,350.0,300.0,1.0,,,,,,,,,yellow,circle
0.0,4.0,4.0,0.0,6.0,6.0,489.4980660001238,2.0,1.0,phase_2,go,350.0,300.0,1.0,,,,,,,,,green,I
0.0,1.0,1.0,0.0,5.0,5.0,447.8522740000699,2.0,1.0,phase_2,go,350.0,300.0,1.0,,,,,,,,,gray,flipped triangle
0.0,1.0,1.0,0.0,6.0,6.0,487.2831930001666,2.0,1.0,phase_2,go,350.0,300.0,1.0,,,,,,,,,gray,flipped triangle
0.0,7.0,3.0,1.0,6.0,6.0,409.6448899999814,2.0,1.0,phase_2,stop,350.0,300.0,3.0,,,,,,,,,magenta,triangle
0.0,8.0,4.0,1.0,6.0,6.0,583.560984000087,2.0,1.0,phase_2,go,350.0,250.0,1.0,,,,,,,,,white,diamond
0.0,2.0,2.0,0.0,5.0,5.0,492.0961969996824,2.0,1.0,phase_2,go,350.0,250.0,1.0,,,,,,,,,blue,square
0.0,3.0,3.0,0.0,5.0,5.0,369.5031580000432,2.0,1.0,phase_2,go,350.0,250.0,1.0,,,,,,,,,cyan,hexagon
0.0,3.0,3.0,0.0,6.0,6.0,486.2933910003448,2.0,1.0,phase_2,go,350.0,250.0,1.0,,,,,,,,,cyan,hexagon
0.0,8.0,4.0,1.0,6.0,6.0,371.8895450001582,2.0,1.0,phase_2,stop,350.0,250.0,3.0,,,,,,,,,white,diamond
0.0,4.0,4.0,0.0,6.0,6.0,508.1876519998332,2.0,1.0,phase_2,go,350.0,200.0,1.0,,,,,,,,,green,I
0.0,3.0,3.0,0.0,5.0,5.0,531.6852429996288,2.0,1.0,phase_2,go,350.0,200.0,1.0,,,,,,,,,cyan,hexagon
0.0,1.0,1.0,0.0,5.0,5.0,463.3114580001347,2.0,1.0,phase_2,go,350.0,200.0,1.0,,,,,,,,,gray,flipped triangle
0.0,8.0,4.0,1.0,6.0,6.0,588.2915329998468,2.0,1.0,phase_2,go,350.0,200.0,1.0,,,,,,,,,white,diamond
0.0,2.0,2.0,0.0,5.0,5.0,716.8670169999132,2.0,1.0,phase_2,go,350.0,200.0,1.0,,,,,,,,,blue,square
0.0,6.0,2.0,1.0,6.0,0.0,0.0,2.0,1.0,phase_2,stop,350.0,200.0,4.0,,,,,,,,,yellow,circle
0.0,1.0,1.0,0.0,5.0,5.0,516.6168399996423,2.0,1.0,phase_2,go,350.0,250.0,1.0,,,,,,,,,gray,flipped triangle
0.0,6.0,2.0,1.0,5.0,5.0,464.705306000269,2.0,1.0,phase_2,stop,350.0,250.0,3.0,,,,,,,,,yellow,circle
0.0,6.0,2.0,1.0,6.0,0.0,0.0,2.0,1.0,phase_2,stop,300.0,250.0,4.0,,,,,,,,,yellow,circle
0.0,5.0,1.0,1.0,6.0,0.0,0.0,2.0,1.0,phase_2,stop,300.0,300.0,4.0,,,,,,,,,orange,cross
0.0,1.0,1.0,0.0,6.0,6.0,474.5859240001664,2.0,1.0,phase_2,go,300.0,350.0,1.0,,,,,,,,,gray,flipped triangle
0.0,2.0,2.0,0.0,6.0,6.0,484.853547000057,2.0,1.0,phase_2,go,300.0,350.0,1.0,,,,,,,,,blue,square
0.0,6.0,2.0,1.0,6.0,0.0,0.0,2.0,1.0,phase_2,stop,300.0,350.0,4.0,,,,,,,,,yellow,circle
0.0,2.0,2.0,0.0,6.0,6.0,645.0326489998588,2.0,1.0,phase_2,go,300.0,400.0,1.0,,,,,,,,,blue,square
0.0,5.0,1.0,1.0,6.0,6.0,710.8930269996563,2.0,1.0,phase_2,go,300.0,400.0,1.0,,,,,,,,,orange,cross
0.0,2.0,2.0,0.0,5.0,5.0,445.9717409999939,2.0,1.0,phase_2,go,300.0,400.0,1.0,,,,,,,,,blue,square
0.0,8.0,4.0,1.0,5.0,0.0,0.0,2.0,1.0,phase_2,stop,300.0,400.0,4.0,,,,,,,,,white,diamond
0.0,3.0,3.0,0.0,5.0,5.0,614.1595190001681,2.0,1.0,phase_2,go,350.0,400.0,1.0,,,,,,,,,cyan,hexagon
0.0,5.0,1.0,1.0,6.0,0.0,0.0,2.0,1.0,phase_2,stop,350.0,400.0,4.0,,,,,,,,,orange,cross
0.0,3.0,3.0,0.0,5.0,5.0,600.8807500002149,2.0,1.0,phase_2,go,350.0,450.0,1.0,,,,,,,,,cyan,hexagon
0.0,2.0,2.0,0.0,6.0,6.0,480.4555850000724,2.0,1.0,phase_2,go,350.0,450.0,1.0,,,,,,,,,blue,square
0.0,5.0,1.0,1.0,6.0,6.0,655.2463559996795,2.0,1.0,phase_2,go,350.0,450.0,1.0,,,,,,,,,orange,cross
0.0,5.0,1.0,1.0,6.0,6.0,520.3355230000852,3.0,1.0,phase_2,go,350.0,450.0,1.0,,,,,,,,,orange,cross
0.0,7.0,3.0,1.0,5.0,5.0,459.0043869998226,3.0,1.0,phase_2,stop,350.0,450.0,3.0,,,,,,,,,magenta,triangle
0.0,4.0,4.0,0.0,5.0,5.0,688.1654750000052,3.0,1.0,phase_2,go,300.0,450.0,1.0,,,,,,,,,green,I
0.0,6.0,2.0,1.0,6.0,6.0,478.0031959999178,3.0,1.0,phase_2,go,300.0,450.0,1.0,,,,,,,,,yellow,circle
0.0,1.0,1.0,0.0,6.0,6.0,435.4768079997484,3.0,1.0,phase_2,go,300.0,450.0,1.0,,,,,,,,,gray,flipped triangle
0.0,8.0,4.0,1.0,6.0,6.0,588.7631199998395,3.0,1.0,phase_2,go,300.0,450.0,1.0,,,,,,,,,white,diamond
0.0,4.0,4.0,0.0,5.0,5.0,563.0571359997703,3.0,1.0,phase_2,go,300.0,450.0,1.0,,,,,,,,,green,I
0.0,8.0,4.0,1.0,6.0,6.0,603.512991000116,3.0,1.0,phase_2,stop,300.0,450.0,3.0,,,,,,,,,white,diamond
0.0,3.0,3.0,0.0,6.0,6.0,486.6370730001108,3.0,1.0,phase_2,go,300.0,400.0,1.0,,,,,,,,,cyan,hexagon
0.0,6.0,2.0,1.0,5.0,0.0,0.0,3.0,1.0,phase_2,stop,300.0,400.0,4.0,,,,,,,,,yellow,circle
0.0,4.0,4.0,0.0,5.0,5.0,555.6018309998763,3.0,1.0,phase_2,go,350.0,400.0,1.0,,,,,,,,,green,I
0.0,2.0,2.0,0.0,6.0,6.0,581.355227000131,3.0,1.0,phase_2,go,350.0,400.0,1.0,,,,,,,,,blue,square
0.0,6.0,2.0,1.0,6.0,6.0,468.9018680001027,3.0,1.0,phase_2,go,350.0,400.0,1.0,,,,,,,,,yellow,circle
0.0,4.0,4.0,0.0,6.0,6.0,549.2161570000462,3.0,1.0,phase_2,go,350.0,400.0,1.0,,,,,,,,,green,I
0.0,7.0,3.0,1.0,6.0,0.0,0.0,3.0,1.0,phase_2,stop,350.0,400.0,4.0,,,,,,,,,magenta,triangle
0.0,8.0,4.0,1.0,6.0,0.0,0.0,3.0,1.0,phase_2,stop,350.0,450.0,4.0,,,,,,,,,white,diamond
0.0,3.0,3.0,0.0,6.0,6.0,682.3489789999257,3.0,1.0,phase_2,go,350.0,500.0,1.0,,,,,,,,,cyan,hexagon
0.0,8.0,4.0,1.0,6.0,6.0,537.5753719999921,3.0,1.0,phase_2,stop,350.0,500.0,3.0,,,,,,,,,white,diamond
0.0,8.0,4.0,1.0,5.0,0.0,0.0,3.0,1.0,phase_2,stop,350.0,450.0,4.0,,,,,,,,,white,diamond
0.0,4.0,4.0,0.0,5.0,5.0,599.0340250000372,3.0,1.0,phase_2,go,400.0,450.0,1.0,,,,,,,,,green,I
0.0,8.0,4.0,1.0,6.0,0.0,0.0,3.0,1.0,phase_2,stop,400.0,450.0,4.0,,,,,,,,,white,diamond
0.0,3.0,3.0,0.0,6.0,6.0,716.7779319997862,3.0,1.0,phase_2,go,400.0,500.0,1.0,,,,,,,,,cyan,hexagon
0.0,4.0,4.0,0.0,6.0,6.0,789.9200710003242,3.0,1.0,phase_2,go,400.0,500.0,1.0,,,,,,,,,green,I
0.0,5.0,1.0,1.0,6.0,6.0,628.6442450000322,3.0,1.0,phase_2,stop,400.0,500.0,3.0,,,,,,,,,orange,cross
0.0,2.0,2.0,0.0,5.0,5.0,660.4813999997532,3.0,1.0,phase_2,go,400.0,450.0,1.0,,,,,,,,,blue,square
0.0,6.0,2.0,1.0,6.0,0.0,0.0,3.0,1.0,phase_2,stop,400.0,450.0,4.0,,,,,,,,,yellow,circle
0.0,8.0,4.0,1.0,5.0,0.0,0.0,3.0,1.0,phase_2,stop,400.0,500.0,4.0,,,,,,,,,white,diamond
0.0,3.0,3.0,0.0,6.0,6.0,427.4495210001987,3.0,1.0,phase_2,go,450.0,500.0,1.0,,,,,,,,,cyan,hexagon
0.0,2.0,2.0,0.0,5.0,5.0,573.7777000003916,3.0,1.0,phase_2,go,450.0,500.0,1.0,,,,,,,,,blue,square
0.0,6.0,2.0,1.0,5.0,5.0,586.4521180001248,3.0,1.0,phase_2,stop,450.0,500.0,3.0,,,,,,,,,yellow,circle
0.0,7.0,3.0,1.0,5.0,0.0,0.0,3.0,1.0,phase_2,stop,400.0,500.0,4.0,,,,,,,,,magenta,triangle
0.0,4.0,4.0,0.0,6.0,6.0,607.1310899997115,3.0,1.0,phase_2,go,450.0,500.0,1.0,,,,,,,,,green,I
0.0,5.0,1.0,1.0,5.0,0.0,0.0,3.0,1.0,phase_2,stop,450.0,500.0,4.0,,,,,,,,,orange,cross
0.0,2.0,2.0,0.0,6.0,6.0,812.928243999977,3.0,1.0,phase_2,go,500.0,500.0,1.0,,,,,,,,,blue,square
0.0,4.0,4.0,0.0,6.0,6.0,712.454192000223,3.0,1.0,phase_2,go,500.0,500.0,1.0,,,,,,,,,green,I
0.0,3.0,3.0,0.0,6.0,6.0,531.8670579999889,3.0,1.0,phase_2,go,500.0,500.0,1.0,,,,,,,,,cyan,hexagon
0.0,3.0,3.0,0.0,6.0,6.0,600.5817739996928,4.0,1.0,phase_2,go,500.0,500.0,1.0,,,,,,,,,cyan,hexagon
0.0,7.0,3.0,1.0,5.0,5.0,581.2838219999321,4.0,1.0,phase_2,go,500.0,500.0,1.0,,,,,,,,,magenta,triangle
0.0,2.0,2.0,0.0,5.0,5.0,505.61152199998105,4.0,1.0,phase_2,go,500.0,500.0,1.0,,,,,,,,,blue,square
0.0,2.0,2.0,0.0,6.0,6.0,639.2563489998793,4.0,1.0,phase_2,go,500.0,500.0,1.0,,,,,,,,,blue,square
0.0,6.0,2.0,1.0,6.0,0.0,0.0,4.0,1.0,phase_2,stop,500.0,500.0,4.0,,,,,,,,,yellow,circle
0.0,6.0,2.0,1.0,5.0,5.0,606.5961929998593,4.0,1.0,phase_2,stop,500.0,550.0,3.0,,,,,,,,,yellow,circle
0.0,4.0,4.0,0.0,5.0,5.0,623.0685830000766,4.0,1.0,phase_2,go,450.0,550.0,1.0,,,,,,,,,green,I
0.0,6.0,2.0,1.0,6.0,0.0,0.0,4.0,1.0,phase_2,stop,450.0,550.0,4.0,,,,,,,,,yellow,circle
0.0,1.0,1.0,0.0,6.0,6.0,600.3121369999462,4.0,1.0,phase_2,go,450.0,600.0,1.0,,,,,,,,,gray,flipped triangle
0.0,1.0,1.0,0.0,5.0,5.0,524.5090799999161,4.0,1.0,phase_2,go,450.0,600.0,1.0,,,,,,,,,gray,flipped triangle
0.0,4.0,4.0,0.0,6.0,6.0,498.7223409998478,4.0,1.0,phase_2,go,450.0,600.0,1.0,,,,,,,,,green,I
0.0,7.0,3.0,1.0,6.0,6.0,481.976327000666,4.0,1.0,phase_2,stop,450.0,600.0,3.0,,,,,,,,,magenta,triangle
0.0,4.0,4.0,0.0,5.0,5.0,461.8272999996407,4.0,1.0,phase_2,go,450.0,550.0,1.0,,,,,,,,,green,I
0.0,3.0,3.0,0.0,6.0,6.0,502.5274760000684,4.0,1.0,phase_2,go,450.0,550.0,1.0,,,,,,,,,cyan,hexagon
0.0,5.0,1.0,1.0,5.0,5.0,303.5210839998399,4.0,1.0,phase_2,stop,450.0,550.0,3.0,,,,,,,,,orange,cross
0.0,7.0,3.0,1.0,5.0,0.0,0.0,4.0,1.0,phase_2,stop,400.0,550.0,4.0,,,,,,,,,magenta,triangle
0.0,3.0,3.0,0.0,6.0,6.0,622.6998590000221,4.0,1.0,phase_2,go,450.0,550.0,1.0,,,,,,,,,cyan,hexagon
0.0,4.0,4.0,0.0,6.0,6.0,762.8679620002004,4.0,1.0,phase_2,go,450.0,550.0,1.0,,,,,,,,,green,I
0.0,3.0,3.0,0.0,5.0,5.0,800.5810419999762,4.0,1.0,phase_2,go,450.0,550.0,1.0,,,,,,,,,cyan,hexagon
0.0,2.0,2.0,0.0,5.0,5.0,823.6669790003361,4.0,1.0,phase_2,go,450.0,550.0,1.0,,,,,,,,,blue,square
0.0,6.0,2.0,1.0,6.0,6.0,653.9028220004184,4.0,1.0,phase_2,go,450.0,550.0,1.0,,,,,,,,,yellow,circle
0.0,2.0,2.0,0.0,5.0,5.0,595.9399690000282,4.0,1.0,phase_2,go,450.0,550.0,1.0,,,,,,,,,blue,square
0.0,7.0,3.0,1.0,5.0,5.0,609.6642539996537,4.0,1.0,phase_2,stop,450.0,550.0,3.0,,,,,,,,,magenta,triangle
0.0,2.0,2.0,0.0,6.0,6.0,842.3684839999623,4.0,1.0,phase_2,go,400.0,550.0,1.0,,,,,,,,,blue,square
0.0,2.0,2.0,0.0,5.0,5.0,756.9259319998309,4.0,1.0,phase_2,go,400.0,550.0,1.0,,,,,,,,,blue,square
0.0,4.0,4.0,0.0,6.0,6.0,622.6125599996521,4.0,1.0,phase_2,go,400.0,550.0,1.0,,,,,,,,,green,I
0.0,5.0,1.0,1.0,5.0,0.0,0.0,4.0,1.0,phase_2,stop,400.0,550.0,4.0,,,,,,,,,orange,cross
0.0,4.0,4.0,0.0,5.0,5.0,643.6053709994667,4.0,1.0,phase_2,go,450.0,550.0,1.0,,,,,,,,,green,I
0.0,8.0,4.0,1.0,5.0,0.0,0.0,4.0,1.0,phase_2,stop,450.0,550.0,4.0,,,,,,,,,white,diamond
0.0,3.0,3.0,0.0,5.0,5.0,471.3434069999493,4.0,1.0,phase_2,go,500.0,550.0,1.0,,,,,,,,,cyan,hexagon
0.0,3.0,3.0,0.0,5.0,5.0,789.442047999728,4.0,1.0,phase_2,go,500.0,550.0,1.0,,,,,,,,,cyan,hexagon
0.0,1.0,1.0,0.0,5.0,5.0,814.5477430007304,4.0,1.0,phase_2,go,500.0,550.0,1.0,,,,,,,,,gray,flipped triangle
0.0,4.0,4.0,0.0,6.0,6.0,645.6347710000045,4.0,1.0,phase_2,go,500.0,550.0,1.0,,,,,,,,,green,I
0.0,2.0,2.0,0.0,6.0,6.0,739.2472619994805,4.0,1.0,phase_2,go,500.0,550.0,1.0,,,,,,,,,blue,square
0.0,1.0,1.0,0.0,6.0,6.0,555.0499229993875,4.0,1.0,phase_2,go,500.0,550.0,1.0,,,,,,,,,gray,flipped triangle
0.0,7.0,3.0,1.0,5.0,0.0,0.0,4.0,1.0,phase_2,stop,500.0,550.0,4.0,,,,,,,,,magenta,triangle
0.0,6.0,2.0,1.0,6.0,6.0,350.5218169993895,5.0,1.0,phase_2,stop,550.0,550.0,3.0,,,,,,,,,yellow,circle
0.0,7.0,3.0,1.0,6.0,6.0,252.2033499999452,5.0,1.0,phase_2,stop,550.0,500.0,3.0,,,,,,,,,magenta,triangle
0.0,3.0,3.0,0.0,5.0,5.0,414.5321269998021,5.0,1.0,phase_2,go,550.0,450.0,1.0,,,,,,,,,cyan,hexagon
0.0,8.0,4.0,1.0,5.0,5.0,328.3971069995459,5.0,1.0,phase_2,go,550.0,450.0,1.0,,,,,,,,,white,diamond
0.0,1.0,1.0,0.0,6.0,6.0,505.8776609994311,5.0,1.0,phase_2,go,550.0,450.0,1.0,,,,,,,,,gray,flipped triangle
0.0,3.0,3.0,0.0,5.0,5.0,408.7224280001464,5.0,1.0,phase_2,go,550.0,450.0,1.0,,,,,,,,,cyan,hexagon
0.0,2.0,2.0,0.0,6.0,6.0,753.4312669995415,5.0,1.0,phase_2,go,550.0,450.0,1.0,,,,,,,,,blue,square
0.0,6.0,2.0,1.0,5.0,5.0,307.9634859996076,5.0,1.0,phase_2,stop,550.0,450.0,3.0,,,,,,,,,yellow,circle
0.0,4.0,4.0,0.0,6.0,6.0,300.398853999468,5.0,1.0,phase_2,go,500.0,450.0,1.0,,,,,,,,,green,I
0.0,8.0,4.0,1.0,6.0,6.0,345.9616000000096,5.0,1.0,phase_2,stop,500.0,450.0,3.0,,,,,,,,,white,diamond
0.0,3.0,3.0,0.0,6.0,6.0,472.3573339997529,5.0,1.0,phase_2,go,500.0,400.0,1.0,,,,,,,,,cyan,hexagon
0.0,7.0,3.0,1.0,5.0,5.0,533.6100990007253,5.0,1.0,phase_2,stop,500.0,400.0,3.0,,,,,,,,,magenta,triangle
0.0,8.0,4.0,1.0,6.0,6.0,286.2552399992637,5.0,1.0,phase_2,stop,450.0,400.0,3.0,,,,,,,,,white,diamond
0.0,3.0,3.0,0.0,5.0,5.0,512.1700479994615,5.0,1.0,phase_2,go,450.0,350.0,1.0,,,,,,,,,cyan,hexagon
0.0,1.0,1.0,0.0,5.0,5.0,699.3675749999966,5.0,1.0,phase_2,go,450.0,350.0,1.0,,,,,,,,,gray,flipped triangle
0.0,8.0,4.0,1.0,5.0,5.0,364.6683309998479,5.0,1.0,phase_2,stop,450.0,350.0,3.0,,,,,,,,,white,diamond
0.0,2.0,2.0,0.0,6.0,6.0,440.2533439997569,5.0,1.0,phase_2,go,400.0,350.0,1.0,,,,,,,,,blue,square
0.0,7.0,3.0,1.0,6.0,0.0,0.0,5.0,1.0,phase_2,stop,400.0,350.0,4.0,,,,,,,,,magenta,triangle
0.0,8.0,4.0,1.0,5.0,5.0,705.0802230005502,5.0,1.0,phase_2,go,400.0,400.0,1.0,,,,,,,,,white,diamond
0.0,1.0,1.0,0.0,6.0,6.0,612.8908109994882,5.0,1.0,phase_2,go,400.0,400.0,1.0,,,,,,,,,gray,flipped triangle
0.0,6.0,2.0,1.0,5.0,5.0,487.9723650001324,5.0,1.0,phase_2,stop,400.0,400.0,3.0,,,,,,,,,yellow,circle
0.0,5.0,1.0,1.0,5.0,0.0,0.0,5.0,1.0,phase_2,stop,350.0,400.0,4.0,,,,,,,,,orange,cross
0.0,3.0,3.0,0.0,6.0,6.0,474.8334219993921,5.0,1.0,phase_2,go,400.0,400.0,1.0,,,,,,,,,cyan,hexagon
0.0,7.0,3.0,1.0,6.0,6.0,638.281179999467,5.0,1.0,phase_2,go,400.0,400.0,1.0,,,,,,,,,magenta,triangle
0.0,3.0,3.0,0.0,6.0,6.0,560.8939980002106,5.0,1.0,phase_2,go,400.0,400.0,1.0,,,,,,,,,cyan,hexagon
0.0,7.0,3.0,1.0,6.0,0.0,0.0,5.0,1.0,phase_2,stop,400.0,400.0,4.0,,,,,,,,,magenta,triangle
0.0,4.0,4.0,0.0,5.0,5.0,346.0610909996831,5.0,1.0,phase_2,go,400.0,450.0,1.0,,,,,,,,,green,I
0.0,5.0,1.0,1.0,6.0,6.0,343.5799540002335,5.0,1.0,phase_2,stop,400.0,450.0,3.0,,,,,,,,,orange,cross
0.0,7.0,3.0,1.0,5.0,5.0,336.3184099998761,5.0,1.0,phase_2,stop,400.0,400.0,3.0,,,,,,,,,magenta,triangle
0.0,5.0,1.0,1.0,6.0,6.0,209.857648000252,5.0,1.0,phase_2,go,350.0,400.0,1.0,,,,,,,,,orange,cross
0.0,7.0,3.0,1.0,5.0,5.0,404.6495109996613,5.0,1.0,phase_2,go,350.0,400.0,1.0,,,,,,,,,magenta,triangle
0.0,6.0,2.0,1.0,6.0,6.0,525.4278180000256,5.0,1.0,phase_2,stop,350.0,400.0,3.0,,,,,,,,,yellow,circle
0.0,2.0,2.0,0.0,5.0,5.0,252.2627320004176,5.0,1.0,phase_2,go,350.0,350.0,1.0,,,,,,,,,blue,square
0.0,3.0,3.0,0.0,6.0,6.0,317.2741839998707,5.0,1.0,phase_2,go,350.0,350.0,1.0,,,,,,,,,cyan,hexagon
0.0,1.0,1.0,0.0,5.0,5.0,469.0139879994603,5.0,1.0,phase_2,go,350.0,350.0,1.0,,,,,,,,,gray,flipped triangle
0.0,5.0,1.0,1.0,5.0,5.0,388.1950279992452,5.0,1.0,phase_2,stop,350.0,350.0,3.0,,,,,,,,,orange,cross
0.0,6.0,2.0,1.0,5.0,5.0,462.5799429995822,6.0,1.0,phase_2,go,300.0,350.0,1.0,,,,,,,,,yellow,circle
0.0,5.0,1.0,1.0,6.0,6.0,535.0521909995223,6.0,1.0,phase_2,stop,300.0,350.0,3.0,,,,,,,,,orange,cross
0.0,8.0,4.0,1.0,5.0,5.0,472.1767269993506,6.0,1.0,phase_2,stop,300.0,300.0,3.0,,,,,,,,,white,diamond
0.0,8.0,4.0,1.0,5.0,0.0,0.0,6.0,1.0,phase_2,stop,250.0,300.0,4.0,,,,,,,,,white,diamond
0.0,1.0,1.0,0.0,5.0,5.0,497.986022999612,6.0,1.0,phase_2,go,300.0,300.0,1.0,,,,,,,,,gray,flipped triangle
0.0,7.0,3.0,1.0,5.0,0.0,0.0,6.0,1.0,phase_2,stop,300.0,300.0,4.0,,,,,,,,,magenta,triangle
0.0,5.0,1.0,1.0,5.0,0.0,0.0,6.0,1.0,phase_2,stop,350.0,300.0,4.0,,,,,,,,,orange,cross
0.0,4.0,4.0,0.0,5.0,5.0,335.9861049993924,6.0,1.0,phase_2,go,400.0,300.0,1.0,,,,,,,,,green,I
0.0,4.0,4.0,0.0,6.0,6.0,282.9154480004945,6.0,1.0,phase_2,go,400.0,300.0,1.0,,,,,,,,,green,I
0.0,8.0,4.0,1.0,5.0,0.0,0.0,6.0,1.0,phase_2,stop,400.0,300.0,4.0,,,,,,,,,white,diamond
0.0,7.0,3.0,1.0,5.0,5.0,359.6565869993355,6.0,1.0,phase_2,go,450.0,300.0,1.0,,,,,,,,,magenta,triangle
0.0,4.0,4.0,0.0,5.0,5.0,274.4970980002108,6.0,1.0,phase_2,go,450.0,300.0,1.0,,,,,,,,,green,I
0.0,2.0,2.0,0.0,6.0,6.0,588.9948439998989,6.0,1.0,phase_2,go,450.0,300.0,1.0,,,,,,,,,blue,square
0.0,6.0,2.0,1.0,5.0,0.0,0.0,6.0,1.0,phase_2,stop,450.0,300.0,4.0,,,,,,,,,yellow,circle
0.0,5.0,1.0,1.0,6.0,6.0,373.9235190005274,6.0,1.0,phase_2,stop,500.0,300.0,3.0,,,,,,,,,orange,cross
0.0,3.0,3.0,0.0,6.0,6.0,318.9552410003671,6.0,1.0,phase_2,go,500.0,250.0,1.0,,,,,,,,,cyan,hexagon
0.0,5.0,1.0,1.0,6.0,6.0,884.8428459996285,6.0,1.0,phase_2,go,500.0,250.0,1.0,,,,,,,,,orange,cross
0.0,5.0,1.0,1.0,5.0,0.0,0.0,6.0,1.0,phase_2,stop,500.0,250.0,4.0,,,,,,,,,orange,cross
0.0,5.0,1.0,1.0,5.0,0.0,0.0,6.0,1.0,phase_2,stop,550.0,250.0,4.0,,,,,,,,,orange,cross
0.0,3.0,3.0,0.0,6.0,6.0,303.492494999773,6.0,1.0,phase_2,go,600.0,250.0,1.0,,,,,,,,,cyan,hexagon
0.0,3.0,3.0,0.0,5.0,5.0,285.7414870004504,6.0,1.0,phase_2,go,600.0,250.0,1.0,,,,,,,,,cyan,hexagon
0.0,5.0,1.0,1.0,6.0,6.0,306.7073909996907,6.0,1.0,phase_2,stop,600.0,250.0,3.0,,,,,,,,,orange,cross
0.0,2.0,2.0,0.0,6.0,6.0,402.8718320005282,6.0,1.0,phase_2,go,600.0,200.0,1.0,,,,,,,,,blue,square
0.0,7.0,3.0,1.0,6.0,0.0,0.0,6.0,1.0,phase_2,stop,600.0,200.0,4.0,,,,,,,,,magenta,triangle
0.0,1.0,1.0,0.0,6.0,6.0,469.2201180005213,6.0,1.0,phase_2,go,600.0,250.0,1.0,,,,,,,,,gray,flipped triangle
0.0,4.0,4.0,0.0,5.0,5.0,263.5520980002184,6.0,1.0,phase_2,go,600.0,250.0,1.0,,,,,,,,,green,I
0.0,1.0,1.0,0.0,6.0,6.0,648.3252079997328,6.0,1.0,phase_2,go,600.0,250.0,1.0,,,,,,,,,gray,flipped triangle
0.0,6.0,2.0,1.0,5.0,5.0,371.4370709994909,6.0,1.0,phase_2,stop,600.0,250.0,3.0,,,,,,,,,yellow,circle
0.0,1.0,1.0,0.0,5.0,5.0,726.5278660006516,6.0,1.0,phase_2,go,550.0,250.0,1.0,,,,,,,,,gray,flipped triangle
0.0,2.0,2.0,0.0,5.0,5.0,486.7209459998776,6.0,1.0,phase_2,go,550.0,250.0,1.0,,,,,,,,,blue,square
0.0,7.0,3.0,1.0,5.0,5.0,649.9948279997625,6.0,1.0,phase_2,stop,550.0,250.0,3.0,,,,,,,,,magenta,triangle
0.0,1.0,1.0,0.0,5.0,5.0,579.2607270004737,6.0,1.0,phase_2,go,500.0,250.0,1.0,,,,,,,,,gray,flipped triangle
0.0,1.0,1.0,0.0,5.0,5.0,580.1056049995168,6.0,1.0,phase_2,go,500.0,250.0,1.0,,,,,,,,,gray,flipped triangle
0.0,4.0,4.0,0.0,6.0,6.0,417.7464360000158,6.0,1.0,phase_2,go,500.0,250.0,1.0,,,,,,,,,green,I
0.0,8.0,4.0,1.0,6.0,0.0,0.0,6.0,1.0,phase_2,stop,500.0,250.0,4.0,,,,,,,,,white,diamond
0.0,6.0,2.0,1.0,6.0,0.0,0.0,6.0,1.0,phase_2,stop,500.0,300.0,4.0,,,,,,,,,yellow,circle
0.0,4.0,4.0,0.0,5.0,5.0,332.3984569997265,7.0,1.0,phase_2,go,500.0,350.0,1.0,,,,,,,,,green,I
0.0,5.0,1.0,1.0,6.0,6.0,606.1896409992187,7.0,1.0,phase_2,go,500.0,350.0,1.0,,,,,,,,,orange,cross
0.0,6.0,2.0,1.0,5.0,5.0,555.550633999701,7.0,1.0,phase_2,stop,500.0,350.0,3.0,,,,,,,,,yellow,circle
0.0,1.0,1.0,0.0,6.0,6.0,441.278735999731,7.0,1.0,phase_2,go,450.0,350.0,1.0,,,,,,,,,gray,flipped triangle
0.0,6.0,2.0,1.0,5.0,5.0,326.3439380007185,7.0,1.0,phase_2,go,450.0,350.0,1.0,,,,,,,,,yellow,circle
0.0,6.0,2.0,1.0,5.0,5.0,438.8964180006951,7.0,1.0,phase_2,stop,450.0,350.0,3.0,,,,,,,,,yellow,circle
0.0,7.0,3.0,1.0,5.0,5.0,324.9138600003789,7.0,1.0,phase_2,stop,400.0,350.0,3.0,,,,,,,,,magenta,triangle
0.0,5.0,1.0,1.0,6.0,6.0,298.71049499979557,7.0,1.0,phase_2,stop,350.0,350.0,3.0,,,,,,,,,orange,cross
0.0,2.0,2.0,0.0,6.0,6.0,448.5466369997084,7.0,1.0,phase_2,go,350.0,300.0,1.0,,,,,,,,,blue,square
0.0,5.0,1.0,1.0,5.0,0.0,0.0,7.0,1.0,phase_2,stop,350.0,300.0,4.0,,,,,,,,,orange,cross
0.0,8.0,4.0,1.0,5.0,5.0,452.9346930003157,7.0,1.0,phase_2,go,400.0,300.0,1.0,,,,,,,,,white,diamond
0.0,7.0,3.0,1.0,6.0,6.0,636.9022819999373,7.0,1.0,phase_2,go,400.0,300.0,1.0,,,,,,,,,magenta,triangle
0.0,1.0,1.0,0.0,6.0,6.0,387.5812930000393,7.0,1.0,phase_2,go,400.0,300.0,1.0,,,,,,,,,gray,flipped triangle
0.0,8.0,4.0,1.0,6.0,0.0,0.0,7.0,1.0,phase_2,stop,400.0,300.0,4.0,,,,,,,,,white,diamond
0.0,8.0,4.0,1.0,6.0,6.0,669.6721019998222,7.0,1.0,phase_2,go,400.0,350.0,1.0,,,,,,,,,white,diamond
0.0,6.0,2.0,1.0,6.0,6.0,555.7978919996458,7.0,1.0,phase_2,go,400.0,350.0,1.0,,,,,,,,,yellow,circle
0.0,5.0,1.0,1.0,5.0,0.0,0.0,7.0,1.0,phase_2,stop,400.0,350.0,4.0,,,,,,,,,orange,cross
0.0,8.0,4.0,1.0,5.0,0.0,0.0,7.0,1.0,phase_2,stop,450.0,350.0,4.0,,,,,,,,,white,diamond
0.0,5.0,1.0,1.0,5.0,5.0,520.2245629998288,7.0,1.0,phase_2,go,500.0,350.0,1.0,,,,,,,,,orange,cross
0.0,7.0,3.0,1.0,6.0,6.0,322.6103789993431,7.0,1.0,phase_2,stop,500.0,350.0,3.0,,,,,,,,,magenta,triangle
0.0,8.0,4.0,1.0,5.0,5.0,326.111891000437,7.0,1.0,phase_2,go,500.0,300.0,1.0,,,,,,,,,white,diamond
0.0,2.0,2.0,0.0,5.0,5.0,496.3539609998406,7.0,1.0,phase_2,go,500.0,300.0,1.0,,,,,,,,,blue,square
0.0,2.0,2.0,0.0,5.0,5.0,643.8987900000939,7.0,1.0,phase_2,go,500.0,300.0,1.0,,,,,,,,,blue,square
0.0,4.0,4.0,0.0,5.0,5.0,434.4208280008388,7.0,1.0,phase_2,go,500.0,300.0,1.0,,,,,,,,,green,I
0.0,1.0,1.0,0.0,5.0,5.0,629.270426000403,7.0,1.0,phase_2,go,500.0,300.0,1.0,,,,,,,,,gray,flipped triangle
0.0,3.0,3.0,0.0,5.0,5.0,573.3282119999785,7.0,1.0,phase_2,go,500.0,300.0,1.0,,,,,,,,,cyan,hexagon
0.0,2.0,2.0,0.0,5.0,5.0,293.4624489998896,7.0,1.0,phase_2,go,500.0,300.0,1.0,,,,,,,,,blue,square
0.0,7.0,3.0,1.0,5.0,5.0,281.727126000078,7.0,1.0,phase_2,stop,500.0,300.0,3.0,,,,,,,,,magenta,triangle
0.0,6.0,2.0,1.0,6.0,6.0,489.1595950002738,7.0,1.0,phase_2,go,450.0,300.0,1.0,,,,,,,,,yellow,circle
0.0,5.0,1.0,1.0,6.0,6.0,352.6918690004095,7.0,1.0,phase_2,stop,450.0,300.0,3.0,,,,,,,,,orange,cross
0.0,3.0,3.0,0.0,6.0,6.0,592.2175100004097,7.0,1.0,phase_2,go,450.0,250.0,1.0,,,,,,,,,cyan,hexagon
0.0,8.0,4.0,1.0,6.0,0.0,0.0,7.0,1.0,phase_2,stop,450.0,250.0,4.0,,,,,,,,,white,diamond
0.0,5.0,1.0,1.0,5.0,5.0,537.8096439999354,7.0,1.0,phase_2,stop,450.0,300.0,3.0,,,,,,,,,orange,cross
0.0,2.0,2.0,0.0,5.0,5.0,602.6806330000909,7.0,1.0,phase_2,go,400.0,300.0,1.0,,,,,,,,,blue,square
0.0,8.0,4.0,1.0,5.0,0.0,0.0,7.0,1.0,phase_2,stop,400.0,300.0,4.0,,,,,,,,,white,diamond
0.0,2.0,2.0,0.0,6.0,6.0,293.2859519996782,7.0,1.0,phase_2,go,450.0,300.0,1.0,,,,,,,,,blue,square
0.0,5.0,1.0,1.0,5.0,5.0,326.5775960007886,8.0,1.0,phase_2,stop,450.0,300.0,3.0,,,,,,,,,orange,cross
0.0,8.0,4.0,1.0,5.0,5.0,520.706969999992,8.0,1.0,phase_2,stop,400.0,300.0,3.0,,,,,,,,,white,diamond
0.0,6.0,2.0,1.0,6.0,0.0,0.0,8.0,1.0,phase_2,stop,350.0,300.0,4.0,,,,,,,,,yellow,circle
0.0,3.0,3.0,0.0,5.0,5.0,692.7667749996544,8.0,1.0,phase_2,go,350.0,350.0,1.0,,,,,,,,,cyan,hexagon
0.0,8.0,4.0,1.0,5.0,0.0,0.0,8.0,1.0,phase_2,stop,350.0,350.0,4.0,,,,,,,,,white,diamond
0.0,1.0,1.0,0.0,5.0,5.0,344.7360319996733,8.0,1.0,phase_2,go,400.0,350.0,1.0,,,,,,,,,gray,flipped triangle
0.0,5.0,1.0,1.0,5.0,5.0,312.3989899995649,8.0,1.0,phase_2,stop,400.0,350.0,3.0,,,,,,,,,orange,cross
0.0,5.0,1.0,1.0,6.0,6.0,579.9355760000253,8.0,1.0,phase_2,go,350.0,350.0,1.0,,,,,,,,,orange,cross
0.0,1.0,1.0,0.0,5.0,5.0,639.26266999988,8.0,1.0,phase_2,go,350.0,350.0,1.0,,,,,,,,,gray,flipped triangle
0.0,8.0,4.0,1.0,6.0,6.0,477.1892440003284,8.0,1.0,phase_2,stop,350.0,350.0,3.0,,,,,,,,,white,diamond
0.0,7.0,3.0,1.0,6.0,0.0,0.0,8.0,1.0,phase_2,stop,350.0,300.0,4.0,,,,,,,,,magenta,triangle
0.0,3.0,3.0,0.0,5.0,5.0,435.2271230000042,8.0,1.0,phase_2,go,350.0,350.0,1.0,,,,,,,,,cyan,hexagon
0.0,7.0,3.0,1.0,6.0,6.0,561.5623160001633,8.0,1.0,phase_2,go,350.0,350.0,1.0,,,,,,,,,magenta,triangle
0.0,8.0,4.0,1.0,6.0,6.0,343.2602200000474,8.0,1.0,phase_2,stop,350.0,350.0,3.0,,,,,,,,,white,diamond
0.0,7.0,3.0,1.0,6.0,6.0,300.5184089997783,8.0,1.0,phase_2,go,350.0,300.0,1.0,,,,,,,,,magenta,triangle
0.0,8.0,4.0,1.0,5.0,5.0,278.8296310000078,8.0,1.0,phase_2,go,350.0,300.0,1.0,,,,,,,,,white,diamond
0.0,8.0,4.0,1.0,6.0,6.0,419.4002960002763,8.0,1.0,phase_2,stop,350.0,300.0,3.0,,,,,,,,,white,diamond
0.0,4.0,4.0,0.0,5.0,5.0,469.2252820004796,8.0,1.0,phase_2,go,350.0,250.0,1.0,,,,,,,,,green,I
0.0,7.0,3.0,1.0,5.0,0.0,0.0,8.0,1.0,phase_2,stop,350.0,250.0,4.0,,,,,,,,,magenta,triangle
0.0,6.0,2.0,1.0,5.0,0.0,0.0,8.0,1.0,phase_2,stop,400.0,250.0,4.0,,,,,,,,,yellow,circle
0.0,2.0,2.0,0.0,6.0,6.0,298.1965740000305,8.0,1.0,phase_2,go,450.0,250.0,1.0,,,,,,,,,blue,square
0.0,6.0,2.0,1.0,5.0,5.0,281.01949300071277,8.0,1.0,phase_2,stop,450.0,250.0,3.0,,,,,,,,,yellow,circle
0.0,1.0,1.0,0.0,5.0,5.0,635.8119970000189,8.0,1.0,phase_2,go,400.0,250.0,1.0,,,,,,,,,gray,flipped triangle
0.0,3.0,3.0,0.0,5.0,5.0,601.0908059997746,8.0,1.0,phase_2,go,400.0,250.0,1.0,,,,,,,,,cyan,hexagon
0.0,2.0,2.0,0.0,5.0,5.0,681.9983169998522,8.0,1.0,phase_2,go,400.0,250.0,1.0,,,,,,,,,blue,square
0.0,7.0,3.0,1.0,5.0,0.0,0.0,8.0,1.0,phase_2,stop,400.0,250.0,4.0,,,,,,,,,magenta,triangle
0.0,7.0,3.0,1.0,6.0,0.0,0.0,8.0,1.0,phase_2,stop,450.0,250.0,4.0,,,,,,,,,magenta,triangle
0.0,2.0,2.0,0.0,5.0,5.0,394.0050880000854,8.0,1.0,phase_2,go,450.0,300.0,1.0,,,,,,,,,blue,square
0.0,6.0,2.0,1.0,5.0,5.0,343.3026620004966,8.0,1.0,phase_2,stop,450.0,300.0,3.0,,,,,,,,,yellow,circle
0.0,4.0,4.0,0.0,5.0,5.0,432.7961360004337,8.0,1.0,phase_2,go,400.0,300.0,1.0,,,,,,,,,green,I
0.0,4.0,4.0,0.0,6.0,6.0,552.2596660002819,8.0,1.0,phase_2,go,400.0,300.0,1.0,,,,,,,,,green,I
0.0,8.0,4.0,1.0,5.0,0.0,0.0,8.0,1.0,phase_2,stop,400.0,300.0,4.0,,,,,,,,,white,diamond
0.0,2.0,2.0,0.0,5.0,5.0,586.9839920005688,8.0,1.0,phase_2,go,450.0,300.0,1.0,,,,,,,,,blue,square
0.0,5.0,1.0,1.0,6.0,0.0,0.0,8.0,1.0,phase_2,stop,450.0,300.0,4.0,,,,,,,,,orange,cross
0.0,7.0,3.0,1.0,5.0,5.0,551.9449160001386,8.0,1.0,phase_2,stop,450.0,350.0,3.0,,,,,,,,,magenta,triangle
0.0,6.0,2.0,1.0,6.0,0.0,0.0,8.0,1.0,phase_2,stop,400.0,350.0,4.0,,,,,,,,,yellow,circle
0.0,3.0,3.0,0.0,7.0,2.0,0.56168699939,1.0,1.0,phase_3,,,,,102.0,3.0,136.0,102.0,34.0,170.0,68.0,204.0,cyan,hexagon
0.0,6.0,2.0,1.0,7.0,3.0,280.0430209999831,1.0,1.0,phase_3,,,,,270.0,5.0,108.0,216.0,270.0,324.0,54.0,162.0,yellow,circle
0.0,8.0,4.0,1.0,7.0,4.0,199.5301339993602,1.0,1.0,phase_3,,,,,176.0,4.0,220.0,132.0,88.0,176.0,264.0,44.0,white,diamond
0.0,6.0,2.0,1.0,7.0,2.0,2185.8470840006703,1.0,1.0,phase_3,,,,,294.0,6.0,49.0,294.0,196.0,147.0,245.0,98.0,yellow,circle
0.0,2.0,2.0,0.0,7.0,2.0,1830.854138999712,1.0,1.0,phase_3,,,,,170.0,5.0,102.0,170.0,204.0,34.0,68.0,136.0,blue,square
0.0,4.0,4.0,0.0,7.0,5.0,2078.4734539993224,1.0,1.0,phase_3,,,,,49.0,1.0,98.0,196.0,245.0,147.0,49.0,294.0,green,I
0.0,3.0,3.0,0.0,7.0,2.0,2078.333006000321,1.0,1.0,phase_3,,,,,132.0,3.0,44.0,132.0,176.0,264.0,88.0,220.0,cyan,hexagon
0.0,1.0,1.0,0.0,7.0,6.0,1465.301072999864,1.0,1.0,phase_3,,,,,156.0,4.0,195.0,234.0,117.0,39.0,78.0,156.0,gray,flipped triangle
0.0,7.0,3.0,1.0,7.0,4.0,2489.48180699972,1.0,1.0,phase_3,,,,,162.0,3.0,54.0,270.0,216.0,162.0,324.0,108.0,magenta,triangle
0.0,4.0,4.0,0.0,7.0,3.0,1514.899615000104,1.0,1.0,phase_3,,,,,78.0,2.0,156.0,117.0,78.0,39.0,195.0,234.0,green,I
0.0,6.0,2.0,1.0,7.0,2.0,2426.94676300016,1.0,1.0,phase_3,,,,,147.0,3.0,98.0,147.0,294.0,49.0,245.0,196.0,yellow,circle
0.0,8.0,4.0,1.0,7.0,5.0,1067.0896129995526,1.0,1.0,phase_3,,,,,176.0,4.0,264.0,88.0,132.0,220.0,176.0,44.0,white,diamond
0.0,3.0,3.0,0.0,7.0,3.0,2183.163558999695,1.0,1.0,phase_3,,,,,156.0,4.0,78.0,117.0,156.0,195.0,39.0,234.0,cyan,hexagon
0.0,5.0,1.0,1.0,7.0,4.0,1087.0818209996287,1.0,1.0,phase_3,,,,,117.0,3.0,78.0,39.0,234.0,117.0,156.0,195.0,orange,cross
0.0,6.0,2.0,1.0,7.0,2.0,890.338205000262,1.0,1.0,phase_3,,,,,78.0,2.0,234.0,78.0,156.0,117.0,195.0,39.0,yellow,circle
0.0,4.0,4.0,0.0,7.0,5.0,596.3736949997838,1.0,1.0,phase_3,,,,,88.0,2.0,176.0,264.0,220.0,44.0,88.0,132.0,green,I
0.0,4.0,4.0,0.0,7.0,1.0,3563.3439880002697,1.0,1.0,phase_3,,,,,88.0,2.0,88.0,264.0,132.0,176.0,44.0,220.0,green,I
0.0,2.0,2.0,0.0,7.0,4.0,1952.669964000052,1.0,1.0,phase_3,,,,,117.0,3.0,156.0,78.0,195.0,117.0,39.0,234.0,blue,square
0.0,2.0,2.0,0.0,7.0,6.0,1478.3937319998586,1.0,1.0,phase_3,,,,,147.0,3.0,245.0,98.0,294.0,196.0,49.0,147.0,blue,square
0.0,8.0,4.0,1.0,7.0,2.0,2029.4170040006065,1.0,1.0,phase_3,,,,,162.0,3.0,324.0,162.0,216.0,54.0,270.0,108.0,white,diamond
0.0,3.0,3.0,0.0,7.0,2.0,2035.7361440001114,2.0,1.0,phase_3,,,,,162.0,3.0,54.0,162.0,270.0,324.0,108.0,216.0,cyan,hexagon
0.0,8.0,4.0,1.0,7.0,4.0,2891.918120999435,2.0,1.0,phase_3,,,,,170.0,5.0,204.0,102.0,68.0,170.0,34.0,136.0,white,diamond
0.0,8.0,4.0,1.0,7.0,2.0,1847.527359000196,2.0,1.0,phase_3,,,,,270.0,5.0,216.0,270.0,324.0,108.0,162.0,54.0,white,diamond
0.0,5.0,1.0,1.0,7.0,1.0,2742.383697999685,2.0,1.0,phase_3,,,,,176.0,4.0,176.0,220.0,44.0,264.0,132.0,88.0,orange,cross
0.0,8.0,4.0,1.0,7.0,2.0,1401.6468879999593,2.0,1.0,phase_3,,,,,234.0,6.0,156.0,234.0,39.0,195.0,78.0,117.0,white,diamond
0.0,5.0,1.0,1.0,7.0,2.0,363.3010650000869,2.0,1.0,phase_3,,,,,136.0,4.0,68.0,136.0,34.0,102.0,204.0,170.0,orange,cross
0.0,3.0,3.0,0.0,7.0,3.0,1289.907084999868,2.0,1.0,phase_3,,,,,44.0,1.0,176.0,88.0,44.0,132.0,220.0,264.0,cyan,hexagon
0.0,6.0,2.0,1.0,7.0,6.0,2560.57992299975,2.0,1.0,phase_3,,,,,162.0,3.0,108.0,216.0,270.0,54.0,324.0,162.0,yellow,circle
0.0,3.0,3.0,0.0,7.0,4.0,2497.4113019998185,2.0,1.0,phase_3,,,,,147.0,3.0,245.0,98.0,196.0,147.0,49.0,294.0,cyan,hexagon
0.0,8.0,4.0,1.0,7.0,6.0,2810.9896120004123,2.0,1.0,phase_3,,,,,170.0,5.0,102.0,68.0,136.0,204.0,34.0,170.0,white,diamond
0.0,1.0,1.0,0.0,7.0,1.0,1568.328579000081,2.0,1.0,phase_3,,,,,136.0,4.0,136.0,102.0,68.0,34.0,204.0,170.0,gray,flipped triangle
0.0,7.0,3.0,1.0,7.0,2.0,231.7463870003848,2.0,1.0,phase_3,,,,,204.0,6.0,136.0,204.0,68.0,34.0,102.0,170.0,magenta,triangle
0.0,1.0,1.0,0.0,7.0,6.0,2933.9650319998327,2.0,1.0,phase_3,,,,,162.0,3.0,270.0,216.0,108.0,54.0,324.0,162.0,gray,flipped triangle
0.0,1.0,1.0,0.0,7.0,2.0,1227.1824800000104,2.0,1.0,phase_3,,,,,49.0,1.0,294.0,49.0,196.0,98.0,245.0,147.0,gray,flipped triangle
0.0,7.0,3.0,1.0,7.0,6.0,1820.1974969997536,2.0,1.0,phase_3,,,,,195.0,5.0,39.0,117.0,78.0,156.0,234.0,195.0,magenta,triangle
0.0,4.0,4.0,0.0,7.0,6.0,2749.5561179994183,2.0,1.0,phase_3,,,,,216.0,4.0,162.0,270.0,324.0,54.0,108.0,216.0,green,I
0.0,4.0,4.0,0.0,7.0,2.0,1414.7607610002524,2.0,1.0,phase_3,,,,,136.0,4.0,204.0,136.0,34.0,102.0,170.0,68.0,green,I
0.0,7.0,3.0,1.0,7.0,2.0,1810.3132140004163,2.0,1.0,phase_3,,,,,245.0,5.0,294.0,245.0,49.0,98.0,196.0,147.0,magenta,triangle
0.0,2.0,2.0,0.0,7.0,1.0,1665.5052670002988,2.0,1.0,phase_3,,,,,204.0,6.0,204.0,170.0,34.0,102.0,68.0,136.0,blue,square
0.0,6.0,2.0,1.0,7.0,6.0,2021.2370280005416,2.0,1.0,phase_3,,,,,170.0,5.0,136.0,204.0,34.0,102.0,68.0,170.0,yellow,circle
0.0,4.0,4.0,0.0,7.0,6.0,1528.6871750004138,3.0,1.0,phase_3,,,,,147.0,3.0,196.0,245.0,98.0,49.0,294.0,147.0,green,I
0.0,3.0,3.0,0.0,7.0,2.0,2427.270812999268,3.0,1.0,phase_3,,,,,136.0,4.0,34.0,136.0,204.0,68.0,170.0,102.0,cyan,hexagon
0.0,3.0,3.0,0.0,7.0,6.0,2756.881381999847,3.0,1.0,phase_3,,,,,156.0,4.0,78.0,117.0,234.0,195.0,39.0,156.0,cyan,hexagon
0.0,1.0,1.0,0.0,7.0,4.0,1773.0323679998037,3.0,1.0,phase_3,,,,,196.0,4.0,147.0,294.0,49.0,196.0,245.0,98.0,gray,flipped triangle
0.0,7.0,3.0,1.0,7.0,3.0,3363.608067000314,3.0,1.0,phase_3,,,,,176.0,4.0,44.0,220.0,176.0,88.0,264.0,132.0,magenta,triangle
0.0,8.0,4.0,1.0,7.0,2.0,795.2452669997001,3.0,1.0,phase_3,,,,,147.0,3.0,245.0,147.0,49.0,98.0,196.0,294.0,white,diamond
0.0,2.0,2.0,0.0,7.0,5.0,1290.9506690002672,3.0,1.0,phase_3,,,,,216.0,4.0,54.0,108.0,270.0,324.0,216.0,162.0,blue,square
0.0,2.0,2.0,0.0,7.0,6.0,448.2447309992494,3.0,1.0,phase_3,,,,,176.0,4.0,264.0,132.0,44.0,220.0,88.0,176.0,blue,square
0.0,5.0,1.0,1.0,7.0,2.0,404.9394390003726,3.0,1.0,phase_3,,,,,102.0,3.0,170.0,102.0,34.0,204.0,136.0,68.0,orange,cross
0.0,3.0,3.0,0.0,7.0,4.0,1343.2799310003247,3.0,1.0,phase_3,,,,,147.0,3.0,196.0,98.0,245.0,147.0,294.0,49.0,cyan,hexagon
0.0,2.0,2.0,0.0,7.0,6.0,3500.724702000298,3.0,1.0,phase_3,,,,,147.0,3.0,245.0,98.0,49.0,196.0,294.0,147.0,blue,square
0.0,2.0,2.0,0.0,7.0,2.0,1004.2762029997905,3.0,1.0,phase_3,,,,,216.0,4.0,54.0,216.0,108.0,270.0,324.0,162.0,blue,square
0.0,5.0,1.0,1.0,7.0,6.0,1241.5302740000698,3.0,1.0,phase_3,,,,,54.0,1.0,324.0,162.0,216.0,270.0,108.0,54.0,orange,cross
0.0,1.0,1.0,0.0,7.0,6.0,1748.9073440001448,3.0,1.0,phase_3,,,,,234.0,6.0,117.0,195.0,39.0,156.0,78.0,234.0,gray,flipped triangle
0.0,6.0,2.0,1.0,7.0,3.0,3004.603106000104,3.0,1.0,phase_3,,,,,195.0,5.0,234.0,78.0,195.0,117.0,39.0,156.0,yellow,circle
0.0,7.0,3.0,1.0,7.0,1.0,824.2101850000836,3.0,1.0,phase_3,,,,,136.0,4.0,136.0,102.0,204.0,34.0,170.0,68.0,magenta,triangle
0.0,3.0,3.0,0.0,7.0,6.0,1226.7587420001291,3.0,1.0,phase_3,,,,,270.0,5.0,162.0,216.0,108.0,54.0,324.0,270.0,cyan,hexagon
0.0,7.0,3.0,1.0,7.0,6.0,2412.2954989998107,3.0,1.0,phase_3,,,,,132.0,3.0,88.0,44.0,264.0,176.0,220.0,132.0,magenta,triangle
0.0,6.0,2.0,1.0,7.0,2.0,3216.814367000552,3.0,1.0,phase_3,,,,,136.0,4.0,68.0,136.0,170.0,34.0,102.0,204.0,yellow,circle
0.0,1.0,1.0,0.0,7.0,5.0,2644.1018959994835,3.0,1.0,phase_3,,,,,132.0,3.0,220.0,264.0,176.0,44.0,132.0,88.0,gray,flipped triangle
0.0,5.0,1.0,1.0,7.0,5.0,2335.189024999636,4.0,1.0,phase_3,,,,,196.0,4.0,147.0,49.0,294.0,98.0,196.0,245.0,orange,cross
0.0,7.0,3.0,1.0,7.0,4.0,3171.320335999553,4.0,1.0,phase_3,,,,,196.0,4.0,49.0,98.0,294.0,196.0,147.0,245.0,magenta,triangle
0.0,1.0,1.0,0.0,7.0,3.0,2429.330746999767,4.0,1.0,phase_3,,,,,216.0,4.0,324.0,108.0,216.0,54.0,162.0,270.0,gray,flipped triangle
0.0,7.0,3.0,1.0,7.0,5.0,1539.787411999896,4.0,1.0,phase_3,,,,,195.0,5.0,156.0,234.0,78.0,117.0,195.0,39.0,magenta,triangle
0.0,1.0,1.0,0.0,7.0,2.0,2342.450254999676,4.0,1.0,phase_3,,,,,136.0,4.0,204.0,136.0,34.0,170.0,102.0,68.0,gray,flipped triangle
0.0,6.0,2.0,1.0,7.0,6.0,3277.5975019994803,4.0,1.0,phase_3,,,,,176.0,4.0,220.0,88.0,264.0,132.0,44.0,176.0,yellow,circle
0.0,2.0,2.0,0.0,7.0,1.0,1918.335338000361,4.0,1.0,phase_3,,,,,176.0,4.0,176.0,220.0,44.0,132.0,88.0,264.0,blue,square
0.0,4.0,4.0,0.0,7.0,2.0,3573.628193999866,4.0,1.0,phase_3,,,,,136.0,4.0,102.0,136.0,34.0,170.0,204.0,68.0,green,I
0.0,8.0,4.0,1.0,7.0,4.0,1696.314546999929,4.0,1.0,phase_3,,,,,156.0,4.0,78.0,195.0,39.0,156.0,234.0,117.0,white,diamond
0.0,5.0,1.0,1.0,7.0,6.0,998.9219689996388,4.0,1.0,phase_3,,,,,234.0,6.0,195.0,156.0,78.0,39.0,117.0,234.0,orange,cross
0.0,8.0,4.0,1.0,7.0,5.0,2123.6640450006234,4.0,1.0,phase_3,,,,,196.0,4.0,294.0,98.0,245.0,49.0,196.0,147.0,white,diamond
0.0,7.0,3.0,1.0,7.0,2.0,308.0729280000014,4.0,1.0,phase_3,,,,,216.0,4.0,162.0,216.0,270.0,108.0,54.0,324.0,magenta,triangle
0.0,5.0,1.0,1.0,7.0,5.0,1704.6892959997422,4.0,1.0,phase_3,,,,,176.0,4.0,88.0,220.0,132.0,264.0,176.0,44.0,orange,cross
0.0,6.0,2.0,1.0,7.0,5.0,1796.3420729993231,4.0,1.0,phase_3,,,,,132.0,3.0,44.0,88.0,220.0,264.0,132.0,176.0,yellow,circle
0.0,5.0,1.0,1.0,7.0,3.0,1536.7037280002478,4.0,1.0,phase_3,,,,,162.0,3.0,216.0,108.0,162.0,270.0,54.0,324.0,orange,cross
0.0,5.0,1.0,1.0,7.0,4.0,2288.799572000244,4.0,1.0,phase_3,,,,,147.0,3.0,294.0,49.0,98.0,147.0,196.0,245.0,orange,cross
0.0,4.0,4.0,0.0,7.0,2.0,3935.7900379991406,4.0,1.0,phase_3,,,,,162.0,3.0,54.0,162.0,108.0,324.0,270.0,216.0,green,I
0.0,1.0,1.0,0.0,7.0,4.0,3802.672189999612,4.0,1.0,phase_3,,,,,176.0,4.0,132.0,220.0,264.0,176.0,44.0,88.0,gray,flipped triangle
0.0,2.0,2.0,0.0,7.0,4.0,1866.4991929999812,4.0,1.0,phase_3,,,,,156.0,4.0,234.0,78.0,117.0,156.0,195.0,39.0,blue,square
0.0,4.0,4.0,0.0,7.0,4.0,3591.7902810006126,4.0,1.0,phase_3,,,,,156.0,4.0,234.0,195.0,39.0,156.0,78.0,117.0,green,I
