raw_reward_magnitude,stim_reward,stepwise_reward_magnitude,paired_with_stopping,quadrant,response,reaction_time,block,num_trial_presentations,which_part,stop_signal_trial_type,left_SSD,right_SSD,accuracy,chosen_bidding_amount,chosen_bidding_level,possible_bid_1,possible_bid_2,possible_bid_3,possible_bid_4,possible_bid_5,possible_bid_6,color_text,shape_text
93.0,2.0,2.0,0.0,2.0,2.0,535.8031969999502,1.0,1.0,part_1,,,,,,,,,,,,,gray,square
61.0,1.0,1.0,0.0,3.0,3.0,372.1993070003009,1.0,1.0,part_1,,,,,,,,,,,,,white,hexagon
62.0,5.0,1.0,1.0,4.0,4.0,450.2060879995042,1.0,1.0,part_1,,,,,,,,,,,,,yellow,diamond
50.0,5.0,1.0,1.0,3.0,3.0,381.141290999949,1.0,1.0,part_1,,,,,,,,,,,,,yellow,diamond
390.0,4.0,4.0,0.0,3.0,3.0,451.671532000546,1.0,1.0,part_1,,,,,,,,,,,,,green,I
203.0,7.0,3.0,1.0,4.0,4.0,342.2691409996332,1.0,1.0,part_1,,,,,,,,,,,,,orange,circle
64.0,5.0,1.0,1.0,2.0,2.0,357.6232049999817,1.0,1.0,part_1,,,,,,,,,,,,,yellow,diamond
62.0,1.0,1.0,0.0,4.0,4.0,398.6582719999205,1.0,1.0,part_1,,,,,,,,,,,,,white,hexagon
208.0,7.0,3.0,1.0,2.0,2.0,417.6628400000481,1.0,1.0,part_1,,,,,,,,,,,,,orange,circle
203.0,7.0,3.0,1.0,1.0,1.0,415.5357760000697,1.0,1.0,part_1,,,,,,,,,,,,,orange,circle
75.0,6.0,2.0,1.0,1.0,1.0,409.4440599992595,1.0,1.0,part_1,,,,,,,,,,,,,blue,flipped triangle
25.0,1.0,1.0,0.0,4.0,4.0,356.7122790000212,1.0,1.0,part_1,,,,,,,,,,,,,white,hexagon
61.0,5.0,1.0,1.0,2.0,2.0,324.5786460001909,1.0,1.0,part_1,,,,,,,,,,,,,yellow,diamond
189.0,3.0,3.0,0.0,4.0,4.0,348.4844639997391,1.0,1.0,part_1,,,,,,,,,,,,,magenta,triangle
392.0,8.0,4.0,1.0,1.0,1.0,366.3572320001549,1.0,1.0,part_1,,,,,,,,,,,,,cyan,cross
218.0,3.0,3.0,0.0,3.0,3.0,424.8617719995309,1.0,1.0,part_1,,,,,,,,,,,,,magenta,triangle
70.0,5.0,1.0,1.0,1.0,1.0,379.9738679999791,1.0,1.0,part_1,,,,,,,,,,,,,yellow,diamond
202.0,3.0,3.0,0.0,2.0,2.0,499.0380149993143,1.0,1.0,part_1,,,,,,,,,,,,,magenta,triangle
61.0,5.0,1.0,1.0,2.0,2.0,433.9629470005093,1.0,1.0,part_1,,,,,,,,,,,,,yellow,diamond
422.0,8.0,4.0,1.0,4.0,4.0,407.0716260002882,1.0,1.0,part_1,,,,,,,,,,,,,cyan,cross
112.0,6.0,2.0,1.0,3.0,3.0,505.54849400032253,1.0,1.0,part_1,,,,,,,,,,,,,blue,flipped triangle
224.0,7.0,3.0,1.0,4.0,4.0,482.2337690002314,1.0,1.0,part_1,,,,,,,,,,,,,orange,circle
425.0,8.0,4.0,1.0,2.0,2.0,398.42028900056897,1.0,1.0,part_1,,,,,,,,,,,,,cyan,cross
49.0,5.0,1.0,1.0,4.0,4.0,384.2248340006335,1.0,1.0,part_1,,,,,,,,,,,,,yellow,diamond
99.0,6.0,2.0,1.0,4.0,4.0,391.3821239993922,1.0,1.0,part_1,,,,,,,,,,,,,blue,flipped triangle
178.0,3.0,3.0,0.0,2.0,2.0,515.4621390001921,1.0,1.0,part_1,,,,,,,,,,,,,magenta,triangle
31.0,5.0,1.0,1.0,1.0,1.0,437.1287209996808,1.0,1.0,part_1,,,,,,,,,,,,,yellow,diamond
104.0,6.0,2.0,1.0,2.0,2.0,323.0523140000514,1.0,1.0,part_1,,,,,,,,,,,,,blue,flipped triangle
0.0,8.0,0.0,1.0,3.0,3.0,369.8544890003177,1.0,1.0,part_1,,,,,,,,,,,,,cyan,cross
59.0,1.0,1.0,0.0,2.0,2.0,407.6233530004174,1.0,1.0,part_1,,,,,,,,,,,,,white,hexagon
96.0,6.0,2.0,1.0,2.0,2.0,437.4151619995245,1.0,1.0,part_1,,,,,,,,,,,,,blue,flipped triangle
387.0,4.0,4.0,0.0,2.0,2.0,472.330200000215,1.0,1.0,part_1,,,,,,,,,,,,,green,I
184.0,7.0,3.0,1.0,3.0,3.0,420.3104829994117,1.0,1.0,part_1,,,,,,,,,,,,,orange,circle
411.0,8.0,4.0,1.0,1.0,1.0,472.9424070001187,1.0,1.0,part_1,,,,,,,,,,,,,cyan,cross
199.0,7.0,3.0,1.0,2.0,2.0,517.4491549996674,1.0,1.0,part_1,,,,,,,,,,,,,orange,circle
107.0,2.0,2.0,0.0,3.0,3.0,402.1225180003966,1.0,1.0,part_1,,,,,,,,,,,,,gray,square
125.0,6.0,2.0,1.0,1.0,1.0,402.8711969995129,1.0,1.0,part_1,,,,,,,,,,,,,blue,flipped triangle
0.0,3.0,0.0,0.0,1.0,1.0,447.7499300001,1.0,1.0,part_1,,,,,,,,,,,,,magenta,triangle
65.0,1.0,1.0,0.0,1.0,1.0,718.4170600003199,1.0,1.0,part_1,,,,,,,,,,,,,white,hexagon
190.0,3.0,3.0,0.0,3.0,3.0,370.0849309998375,1.0,1.0,part_1,,,,,,,,,,,,,magenta,triangle
407.0,4.0,4.0,0.0,1.0,1.0,326.9252159998359,1.0,1.0,part_1,,,,,,,,,,,,,green,I
73.0,1.0,1.0,0.0,1.0,1.0,417.2932619994753,1.0,1.0,part_1,,,,,,,,,,,,,white,hexagon
212.0,3.0,3.0,0.0,2.0,2.0,428.8471019999633,1.0,1.0,part_1,,,,,,,,,,,,,magenta,triangle
40.0,5.0,1.0,1.0,2.0,2.0,355.4400269995312,1.0,1.0,part_1,,,,,,,,,,,,,yellow,diamond
206.0,7.0,3.0,1.0,3.0,3.0,401.7095159997552,1.0,1.0,part_1,,,,,,,,,,,,,orange,circle
224.0,3.0,3.0,0.0,3.0,3.0,424.4506839995665,1.0,1.0,part_1,,,,,,,,,,,,,magenta,triangle
398.0,8.0,4.0,1.0,3.0,3.0,409.1193020003629,1.0,1.0,part_1,,,,,,,,,,,,,cyan,cross
120.0,2.0,2.0,0.0,2.0,2.0,377.6751479999802,1.0,1.0,part_1,,,,,,,,,,,,,gray,square
392.0,8.0,4.0,1.0,1.0,1.0,435.623618000136,1.0,1.0,part_1,,,,,,,,,,,,,cyan,cross
181.0,7.0,3.0,1.0,3.0,3.0,384.22074700065417,1.0,1.0,part_1,,,,,,,,,,,,,orange,circle
418.0,8.0,4.0,1.0,2.0,2.0,290.2704279995305,1.0,1.0,part_1,,,,,,,,,,,,,cyan,cross
60.0,5.0,1.0,1.0,1.0,1.0,309.383920000073,1.0,1.0,part_1,,,,,,,,,,,,,yellow,diamond
0.0,7.0,0.0,1.0,4.0,4.0,322.8878440004337,1.0,1.0,part_1,,,,,,,,,,,,,orange,circle
182.0,7.0,3.0,1.0,2.0,2.0,399.4769939999969,1.0,1.0,part_1,,,,,,,,,,,,,orange,circle
41.0,1.0,1.0,0.0,3.0,3.0,379.6476919997076,1.0,1.0,part_1,,,,,,,,,,,,,white,hexagon
185.0,3.0,3.0,0.0,4.0,4.0,450.3693299993756,1.0,1.0,part_1,,,,,,,,,,,,,magenta,triangle
410.0,8.0,4.0,1.0,4.0,4.0,485.6109859993012,1.0,1.0,part_1,,,,,,,,,,,,,cyan,cross
190.0,3.0,3.0,0.0,4.0,4.0,601.0106070007168,1.0,1.0,part_1,,,,,,,,,,,,,magenta,triangle
405.0,4.0,4.0,0.0,4.0,4.0,336.6733060001934,1.0,1.0,part_1,,,,,,,,,,,,,green,I
214.0,3.0,3.0,0.0,2.0,2.0,430.3256719995261,1.0,1.0,part_1,,,,,,,,,,,,,magenta,triangle
51.0,1.0,1.0,0.0,3.0,3.0,454.0985650000948,1.0,1.0,part_1,,,,,,,,,,,,,white,hexagon
118.0,6.0,2.0,1.0,3.0,3.0,349.4192179996389,1.0,1.0,part_1,,,,,,,,,,,,,blue,flipped triangle
88.0,2.0,2.0,0.0,2.0,2.0,345.2325949992882,1.0,1.0,part_1,,,,,,,,,,,,,gray,square
89.0,2.0,2.0,0.0,1.0,1.0,385.7178700000077,1.0,1.0,part_1,,,,,,,,,,,,,gray,square
65.0,5.0,1.0,1.0,3.0,3.0,335.7787360000657,1.0,1.0,part_1,,,,,,,,,,,,,yellow,diamond
0.0,8.0,0.0,1.0,3.0,3.0,414.079399000002,1.0,1.0,part_1,,,,,,,,,,,,,cyan,cross
0.0,2.0,0.0,0.0,3.0,3.0,316.7145430006712,1.0,1.0,part_1,,,,,,,,,,,,,gray,square
414.0,8.0,4.0,1.0,2.0,2.0,412.2820040001898,1.0,1.0,part_1,,,,,,,,,,,,,cyan,cross
202.0,3.0,3.0,0.0,4.0,4.0,358.4276270003101,1.0,1.0,part_1,,,,,,,,,,,,,magenta,triangle
106.0,2.0,2.0,0.0,4.0,4.0,395.9789430000455,1.0,1.0,part_1,,,,,,,,,,,,,gray,square
387.0,8.0,4.0,1.0,1.0,1.0,344.1768140000931,1.0,1.0,part_1,,,,,,,,,,,,,cyan,cross
416.0,8.0,4.0,1.0,1.0,1.0,333.8317759998972,1.0,1.0,part_1,,,,,,,,,,,,,cyan,cross
57.0,1.0,1.0,0.0,2.0,2.0,450.234367000121,1.0,1.0,part_1,,,,,,,,,,,,,white,hexagon
54.0,1.0,1.0,0.0,3.0,3.0,363.4846019995166,1.0,1.0,part_1,,,,,,,,,,,,,white,hexagon
0.0,8.0,0.0,1.0,2.0,2.0,438.6641660003079,1.0,1.0,part_1,,,,,,,,,,,,,cyan,cross
0.0,2.0,0.0,0.0,4.0,4.0,430.8670950003943,1.0,1.0,part_1,,,,,,,,,,,,,gray,square
46.0,5.0,1.0,1.0,3.0,3.0,715.525992000039,1.0,1.0,part_1,,,,,,,,,,,,,yellow,diamond
0.0,1.0,0.0,0.0,3.0,3.0,437.5521809997735,1.0,1.0,part_1,,,,,,,,,,,,,white,hexagon
398.0,8.0,4.0,1.0,4.0,4.0,327.0345989994894,1.0,1.0,part_1,,,,,,,,,,,,,cyan,cross
89.0,6.0,2.0,1.0,4.0,4.0,308.335149999948,1.0,1.0,part_1,,,,,,,,,,,,,blue,flipped triangle
49.0,1.0,1.0,0.0,1.0,1.0,305.3010009998615,1.0,1.0,part_1,,,,,,,,,,,,,white,hexagon
182.0,3.0,3.0,0.0,1.0,1.0,400.1342960000329,1.0,1.0,part_1,,,,,,,,,,,,,magenta,triangle
0.0,8.0,0.0,1.0,1.0,1.0,376.6122349998113,1.0,1.0,part_1,,,,,,,,,,,,,cyan,cross
411.0,4.0,4.0,0.0,2.0,2.0,463.0555849998927,1.0,1.0,part_1,,,,,,,,,,,,,green,I
84.0,2.0,2.0,0.0,2.0,2.0,399.6908179997263,1.0,1.0,part_1,,,,,,,,,,,,,gray,square
178.0,7.0,3.0,1.0,4.0,4.0,499.3367459992441,1.0,1.0,part_1,,,,,,,,,,,,,orange,circle
217.0,3.0,3.0,0.0,2.0,2.0,387.1758830000544,1.0,1.0,part_1,,,,,,,,,,,,,magenta,triangle
0.0,5.0,0.0,1.0,4.0,4.0,376.9323410006109,1.0,1.0,part_1,,,,,,,,,,,,,yellow,diamond
188.0,3.0,3.0,0.0,1.0,1.0,446.3632629995118,1.0,1.0,part_1,,,,,,,,,,,,,magenta,triangle
187.0,7.0,3.0,1.0,1.0,1.0,355.5586089996723,1.0,1.0,part_1,,,,,,,,,,,,,orange,circle
76.0,2.0,2.0,0.0,4.0,4.0,395.4857249991619,1.0,1.0,part_1,,,,,,,,,,,,,gray,square
57.0,5.0,1.0,1.0,3.0,3.0,435.0018230006753,1.0,1.0,part_1,,,,,,,,,,,,,yellow,diamond
112.0,2.0,2.0,0.0,3.0,3.0,377.4273840008391,1.0,1.0,part_1,,,,,,,,,,,,,gray,square
65.0,1.0,1.0,0.0,4.0,4.0,480.1971819997561,1.0,1.0,part_1,,,,,,,,,,,,,white,hexagon
33.0,1.0,1.0,0.0,2.0,2.0,339.6197540005232,1.0,1.0,part_1,,,,,,,,,,,,,white,hexagon
76.0,6.0,2.0,1.0,4.0,4.0,412.9200589995889,1.0,1.0,part_1,,,,,,,,,,,,,blue,flipped triangle
79.0,6.0,2.0,1.0,3.0,3.0,402.3227990001032,1.0,1.0,part_1,,,,,,,,,,,,,blue,flipped triangle
30.0,1.0,1.0,0.0,4.0,4.0,430.4957199992714,1.0,1.0,part_1,,,,,,,,,,,,,white,hexagon
93.0,2.0,2.0,0.0,1.0,1.0,338.9937319998353,1.0,1.0,part_1,,,,,,,,,,,,,gray,square
400.0,4.0,4.0,0.0,2.0,2.0,453.1150980001257,1.0,1.0,part_1,,,,,,,,,,,,,green,I
101.0,2.0,2.0,0.0,4.0,4.0,410.7835679997151,2.0,1.0,part_1,,,,,,,,,,,,,gray,square
84.0,6.0,2.0,1.0,1.0,1.0,380.0288340007682,2.0,1.0,part_1,,,,,,,,,,,,,blue,flipped triangle
387.0,8.0,4.0,1.0,4.0,4.0,367.6463729998431,2.0,1.0,part_1,,,,,,,,,,,,,cyan,cross
197.0,3.0,3.0,0.0,2.0,2.0,374.377851000645,2.0,1.0,part_1,,,,,,,,,,,,,magenta,triangle
96.0,6.0,2.0,1.0,3.0,3.0,365.6762890004756,2.0,1.0,part_1,,,,,,,,,,,,,blue,flipped triangle
0.0,6.0,0.0,1.0,1.0,1.0,507.52613699933136,2.0,1.0,part_1,,,,,,,,,,,,,blue,flipped triangle
0.0,2.0,0.0,0.0,1.0,1.0,653.835989000072,2.0,1.0,part_1,,,,,,,,,,,,,gray,square
0.0,4.0,0.0,0.0,3.0,3.0,369.8468270004014,2.0,1.0,part_1,,,,,,,,,,,,,green,I
96.0,2.0,2.0,0.0,3.0,3.0,450.7612459992742,2.0,1.0,part_1,,,,,,,,,,,,,gray,square
404.0,8.0,4.0,1.0,3.0,3.0,336.1226410006566,2.0,1.0,part_1,,,,,,,,,,,,,cyan,cross
0.0,7.0,0.0,1.0,3.0,3.0,296.1262549997627,2.0,1.0,part_1,,,,,,,,,,,,,orange,circle
379.0,8.0,4.0,1.0,1.0,1.0,422.8089949992863,2.0,1.0,part_1,,,,,,,,,,,,,cyan,cross
58.0,5.0,1.0,1.0,2.0,2.0,343.4370049999415,2.0,1.0,part_1,,,,,,,,,,,,,yellow,diamond
424.0,8.0,4.0,1.0,4.0,4.0,541.1783270001251,2.0,1.0,part_1,,,,,,,,,,,,,cyan,cross
0.0,7.0,0.0,1.0,1.0,1.0,418.8256369998271,2.0,1.0,part_1,,,,,,,,,,,,,orange,circle
425.0,8.0,4.0,1.0,2.0,2.0,544.4283119995816,2.0,1.0,part_1,,,,,,,,,,,,,cyan,cross
387.0,4.0,4.0,0.0,2.0,2.0,345.6896309999138,2.0,1.0,part_1,,,,,,,,,,,,,green,I
410.0,4.0,4.0,0.0,4.0,4.0,347.0523819996742,2.0,1.0,part_1,,,,,,,,,,,,,green,I
123.0,2.0,2.0,0.0,2.0,2.0,371.9901389995357,2.0,1.0,part_1,,,,,,,,,,,,,gray,square
0.0,4.0,0.0,0.0,2.0,2.0,465.0623449997511,2.0,1.0,part_1,,,,,,,,,,,,,green,I
46.0,1.0,1.0,0.0,2.0,2.0,314.4881419993908,2.0,1.0,part_1,,,,,,,,,,,,,white,hexagon
79.0,2.0,2.0,0.0,1.0,1.0,384.4507659996452,2.0,1.0,part_1,,,,,,,,,,,,,gray,square
45.0,1.0,1.0,0.0,4.0,4.0,363.6619520002568,2.0,1.0,part_1,,,,,,,,,,,,,white,hexagon
69.0,1.0,1.0,0.0,1.0,1.0,314.2772200008039,2.0,1.0,part_1,,,,,,,,,,,,,white,hexagon
413.0,4.0,4.0,0.0,2.0,2.0,289.1487560000314,2.0,1.0,part_1,,,,,,,,,,,,,green,I
187.0,3.0,3.0,0.0,4.0,4.0,319.7577939999974,2.0,1.0,part_1,,,,,,,,,,,,,magenta,triangle
50.0,1.0,1.0,0.0,2.0,2.0,325.1854059999459,2.0,1.0,part_1,,,,,,,,,,,,,white,hexagon
0.0,2.0,0.0,0.0,4.0,4.0,411.4064770001278,2.0,1.0,part_1,,,,,,,,,,,,,gray,square
414.0,4.0,4.0,0.0,3.0,3.0,384.5228460004364,2.0,1.0,part_1,,,,,,,,,,,,,green,I
214.0,7.0,3.0,1.0,2.0,2.0,567.2706939994896,2.0,1.0,part_1,,,,,,,,,,,,,orange,circle
109.0,2.0,2.0,0.0,4.0,4.0,366.2220819996946,2.0,1.0,part_1,,,,,,,,,,,,,gray,square
69.0,5.0,1.0,1.0,1.0,1.0,275.4899749998003,2.0,1.0,part_1,,,,,,,,,,,,,yellow,diamond
112.0,6.0,2.0,1.0,1.0,1.0,281.4460749996215,2.0,1.0,part_1,,,,,,,,,,,,,blue,flipped triangle
407.0,8.0,4.0,1.0,3.0,3.0,585.2823909999643,2.0,1.0,part_1,,,,,,,,,,,,,cyan,cross
379.0,8.0,4.0,1.0,1.0,1.0,641.5092719998938,2.0,1.0,part_1,,,,,,,,,,,,,cyan,cross
381.0,8.0,4.0,1.0,2.0,2.0,739.9406739996266,2.0,1.0,part_1,,,,,,,,,,,,,cyan,cross
93.0,6.0,2.0,1.0,1.0,1.0,389.8048119999657,2.0,1.0,part_1,,,,,,,,,,,,,blue,flipped triangle
398.0,8.0,4.0,1.0,3.0,3.0,439.2362830003549,2.0,1.0,part_1,,,,,,,,,,,,,cyan,cross
58.0,1.0,1.0,0.0,1.0,1.0,403.5253390002253,2.0,2.0,part_1,,,,,,,,,,,,,white,hexagon
422.0,4.0,4.0,0.0,2.0,2.0,364.0374260003227,2.0,1.0,part_1,,,,,,,,,,,,,green,I
41.0,5.0,1.0,1.0,2.0,2.0,345.2821859991672,2.0,1.0,part_1,,,,,,,,,,,,,yellow,diamond
405.0,8.0,4.0,1.0,2.0,2.0,441.2956839996695,2.0,1.0,part_1,,,,,,,,,,,,,cyan,cross
0.0,7.0,0.0,1.0,3.0,3.0,367.0257940002557,2.0,1.0,part_1,,,,,,,,,,,,,orange,circle
222.0,7.0,3.0,1.0,3.0,3.0,351.8152030001147,2.0,1.0,part_1,,,,,,,,,,,,,orange,circle
68.0,5.0,1.0,1.0,3.0,3.0,361.1430069995549,2.0,1.0,part_1,,,,,,,,,,,,,yellow,diamond
25.0,5.0,1.0,1.0,4.0,4.0,367.4827929999082,2.0,1.0,part_1,,,,,,,,,,,,,yellow,diamond
40.0,1.0,1.0,0.0,1.0,1.0,458.6892490005994,2.0,1.0,part_1,,,,,,,,,,,,,white,hexagon
0.0,5.0,0.0,1.0,4.0,4.0,395.6782340001155,2.0,1.0,part_1,,,,,,,,,,,,,yellow,diamond
381.0,4.0,4.0,0.0,3.0,3.0,361.3789159999214,2.0,1.0,part_1,,,,,,,,,,,,,green,I
418.0,4.0,4.0,0.0,4.0,4.0,382.9053389999899,2.0,1.0,part_1,,,,,,,,,,,,,green,I
386.0,8.0,4.0,1.0,2.0,2.0,316.0841699991579,2.0,1.0,part_1,,,,,,,,,,,,,cyan,cross
390.0,8.0,4.0,1.0,1.0,1.0,380.5238360000658,2.0,1.0,part_1,,,,,,,,,,,,,cyan,cross
423.0,4.0,4.0,0.0,3.0,3.0,406.6386229997079,2.0,1.0,part_1,,,,,,,,,,,,,green,I
202.0,7.0,3.0,1.0,1.0,1.0,358.5835579997365,2.0,1.0,part_1,,,,,,,,,,,,,orange,circle
0.0,4.0,0.0,0.0,2.0,2.0,340.2633220002826,2.0,1.0,part_1,,,,,,,,,,,,,green,I
213.0,3.0,3.0,0.0,3.0,3.0,369.0556709998418,2.0,1.0,part_1,,,,,,,,,,,,,magenta,triangle
106.0,6.0,2.0,1.0,1.0,1.0,439.0812840001672,2.0,1.0,part_1,,,,,,,,,,,,,blue,flipped triangle
397.0,4.0,4.0,0.0,3.0,3.0,375.6906459993843,2.0,1.0,part_1,,,,,,,,,,,,,green,I
425.0,4.0,4.0,0.0,2.0,2.0,404.6541439993234,2.0,1.0,part_1,,,,,,,,,,,,,green,I
0.0,7.0,0.0,1.0,3.0,3.0,356.0837850000098,2.0,1.0,part_1,,,,,,,,,,,,,orange,circle
38.0,5.0,1.0,1.0,2.0,2.0,499.5416889996704,2.0,1.0,part_1,,,,,,,,,,,,,yellow,diamond
115.0,6.0,2.0,1.0,3.0,3.0,364.4272249994174,2.0,1.0,part_1,,,,,,,,,,,,,blue,flipped triangle
0.0,1.0,0.0,0.0,4.0,4.0,439.328856999964,2.0,1.0,part_1,,,,,,,,,,,,,white,hexagon
70.0,1.0,1.0,0.0,4.0,4.0,317.008464000537,2.0,1.0,part_1,,,,,,,,,,,,,white,hexagon
376.0,4.0,4.0,0.0,1.0,1.0,520.1391110003897,2.0,1.0,part_1,,,,,,,,,,,,,green,I
0.0,8.0,0.0,1.0,2.0,2.0,359.0452309999818,2.0,1.0,part_1,,,,,,,,,,,,,cyan,cross
392.0,4.0,4.0,0.0,1.0,1.0,537.9933840004014,2.0,1.0,part_1,,,,,,,,,,,,,green,I
423.0,8.0,4.0,1.0,4.0,4.0,397.089481999501,2.0,1.0,part_1,,,,,,,,,,,,,cyan,cross
214.0,7.0,3.0,1.0,2.0,2.0,362.8057539999645,2.0,1.0,part_1,,,,,,,,,,,,,orange,circle
44.0,1.0,1.0,0.0,1.0,1.0,410.26674800014,2.0,1.0,part_1,,,,,,,,,,,,,white,hexagon
198.0,3.0,3.0,0.0,3.0,3.0,663.085869000497,2.0,1.0,part_1,,,,,,,,,,,,,magenta,triangle
0.0,6.0,0.0,1.0,3.0,3.0,593.8601410007323,2.0,1.0,part_1,,,,,,,,,,,,,blue,flipped triangle
416.0,4.0,4.0,0.0,3.0,3.0,541.8470750000779,2.0,1.0,part_1,,,,,,,,,,,,,green,I
214.0,3.0,3.0,0.0,4.0,4.0,507.93376000001444,2.0,1.0,part_1,,,,,,,,,,,,,magenta,triangle
422.0,8.0,4.0,1.0,2.0,2.0,323.0130949996237,2.0,1.0,part_1,,,,,,,,,,,,,cyan,cross
80.0,2.0,2.0,0.0,1.0,1.0,571.0182919992803,2.0,1.0,part_1,,,,,,,,,,,,,gray,square
30.0,5.0,1.0,1.0,1.0,1.0,410.1341739997224,2.0,1.0,part_1,,,,,,,,,,,,,yellow,diamond
104.0,6.0,2.0,1.0,2.0,2.0,339.6725989996412,2.0,1.0,part_1,,,,,,,,,,,,,blue,flipped triangle
379.0,4.0,4.0,0.0,2.0,2.0,344.2719610002314,2.0,1.0,part_1,,,,,,,,,,,,,green,I
222.0,3.0,3.0,0.0,1.0,1.0,523.8251250002577,2.0,1.0,part_1,,,,,,,,,,,,,magenta,triangle
0.0,1.0,0.0,0.0,2.0,2.0,360.5829489997632,2.0,1.0,part_1,,,,,,,,,,,,,white,hexagon
403.0,8.0,4.0,1.0,4.0,4.0,472.7113890003238,2.0,1.0,part_1,,,,,,,,,,,,,cyan,cross
379.0,4.0,4.0,0.0,3.0,3.0,454.2355149997092,2.0,1.0,part_1,,,,,,,,,,,,,green,I
216.0,3.0,3.0,0.0,3.0,3.0,395.8632550002221,2.0,1.0,part_1,,,,,,,,,,,,,magenta,triangle
0.0,7.0,0.0,1.0,1.0,1.0,494.3816909999441,2.0,1.0,part_1,,,,,,,,,,,,,orange,circle
65.0,5.0,1.0,1.0,4.0,4.0,480.8702000000266,2.0,1.0,part_1,,,,,,,,,,,,,yellow,diamond
94.0,6.0,2.0,1.0,3.0,3.0,407.3944109995864,2.0,1.0,part_1,,,,,,,,,,,,,blue,flipped triangle
202.0,7.0,3.0,1.0,2.0,2.0,515.4728200004683,2.0,1.0,part_1,,,,,,,,,,,,,orange,circle
0.0,1.0,0.0,0.0,4.0,4.0,443.8817919999565,2.0,1.0,part_1,,,,,,,,,,,,,white,hexagon
404.0,4.0,4.0,0.0,4.0,4.0,418.5505780005769,2.0,1.0,part_1,,,,,,,,,,,,,green,I
76.0,6.0,2.0,1.0,1.0,1.0,911.3285710000129,2.0,1.0,part_1,,,,,,,,,,,,,blue,flipped triangle
223.0,3.0,3.0,0.0,4.0,4.0,310.2725669996289,2.0,1.0,part_1,,,,,,,,,,,,,magenta,triangle
96.0,6.0,2.0,1.0,2.0,2.0,357.910284999889,2.0,1.0,part_1,,,,,,,,,,,,,blue,flipped triangle
213.0,3.0,3.0,0.0,3.0,3.0,588.0935159993896,2.0,1.0,part_1,,,,,,,,,,,,,magenta,triangle
45.0,5.0,1.0,1.0,2.0,2.0,516.2139659996683,2.0,1.0,part_1,,,,,,,,,,,,,yellow,diamond
115.0,2.0,2.0,0.0,1.0,1.0,360.0259120003102,2.0,1.0,part_1,,,,,,,,,,,,,gray,square
0.0,5.0,0.0,1.0,1.0,1.0,486.2426529998629,2.0,1.0,part_1,,,,,,,,,,,,,yellow,diamond
0.0,1.0,0.0,0.0,3.0,3.0,355.0468140001612,2.0,1.0,part_1,,,,,,,,,,,,,white,hexagon
223.0,7.0,3.0,1.0,4.0,4.0,366.1752420002813,2.0,1.0,part_1,,,,,,,,,,,,,orange,circle
93.0,6.0,2.0,1.0,4.0,4.0,400.8790119996774,2.0,1.0,part_1,,,,,,,,,,,,,blue,flipped triangle
0.0,4.0,0.0,0.0,3.0,3.0,405.2263659996242,3.0,1.0,part_1,,,,,,,,,,,,,green,I
0.0,6.0,0.0,1.0,1.0,1.0,316.5624210005262,3.0,1.0,part_1,,,,,,,,,,,,,blue,flipped triangle
0.0,2.0,0.0,0.0,1.0,1.0,350.7203159997516,3.0,1.0,part_1,,,,,,,,,,,,,gray,square
424.0,4.0,4.0,0.0,3.0,3.0,328.9719139993394,3.0,1.0,part_1,,,,,,,,,,,,,green,I
62.0,5.0,1.0,1.0,4.0,4.0,522.8134380004121,3.0,1.0,part_1,,,,,,,,,,,,,yellow,diamond
212.0,7.0,3.0,1.0,2.0,2.0,407.5272950003636,3.0,1.0,part_1,,,,,,,,,,,,,orange,circle
379.0,8.0,4.0,1.0,2.0,2.0,343.8339929998619,3.0,1.0,part_1,,,,,,,,,,,,,cyan,cross
206.0,3.0,3.0,0.0,1.0,1.0,378.383097000551,3.0,1.0,part_1,,,,,,,,,,,,,magenta,triangle
92.0,2.0,2.0,0.0,2.0,2.0,337.6022390002617,3.0,1.0,part_1,,,,,,,,,,,,,gray,square
0.0,4.0,0.0,0.0,4.0,4.0,711.1218279997047,3.0,1.0,part_1,,,,,,,,,,,,,green,I
101.0,6.0,2.0,1.0,4.0,4.0,707.0573950004473,3.0,1.0,part_1,,,,,,,,,,,,,blue,flipped triangle
0.0,3.0,0.0,0.0,1.0,1.0,421.3508279999587,3.0,1.0,part_1,,,,,,,,,,,,,magenta,triangle
50.0,1.0,1.0,0.0,2.0,2.0,486.6644490002727,3.0,1.0,part_1,,,,,,,,,,,,,white,hexagon
385.0,8.0,4.0,1.0,3.0,3.0,360.1616289997764,3.0,1.0,part_1,,,,,,,,,,,,,cyan,cross
111.0,2.0,2.0,0.0,1.0,1.0,388.3637730004921,3.0,1.0,part_1,,,,,,,,,,,,,gray,square
80.0,6.0,2.0,1.0,2.0,2.0,407.9087939999226,3.0,1.0,part_1,,,,,,,,,,,,,blue,flipped triangle
218.0,7.0,3.0,1.0,4.0,4.0,383.7422829992647,3.0,1.0,part_1,,,,,,,,,,,,,orange,circle
400.0,8.0,4.0,1.0,1.0,1.0,389.7409970004446,3.0,1.0,part_1,,,,,,,,,,,,,cyan,cross
0.0,7.0,0.0,1.0,2.0,2.0,603.7078259996633,3.0,1.0,part_1,,,,,,,,,,,,,orange,circle
99.0,2.0,2.0,0.0,4.0,4.0,846.6778049996719,3.0,1.0,part_1,,,,,,,,,,,,,gray,square
88.0,6.0,2.0,1.0,3.0,3.0,343.0237980001038,3.0,1.0,part_1,,,,,,,,,,,,,blue,flipped triangle
213.0,7.0,3.0,1.0,3.0,3.0,346.7328670003553,3.0,1.0,part_1,,,,,,,,,,,,,orange,circle
0.0,8.0,0.0,1.0,3.0,3.0,342.3969669993312,3.0,1.0,part_1,,,,,,,,,,,,,cyan,cross
115.0,6.0,2.0,1.0,4.0,4.0,332.9668850001326,3.0,1.0,part_1,,,,,,,,,,,,,blue,flipped triangle
68.0,1.0,1.0,0.0,1.0,1.0,477.8213999998115,3.0,1.0,part_1,,,,,,,,,,,,,white,hexagon
34.0,5.0,1.0,1.0,4.0,4.0,407.0878590000575,3.0,1.0,part_1,,,,,,,,,,,,,yellow,diamond
0.0,4.0,0.0,0.0,2.0,2.0,391.1885369998344,3.0,1.0,part_1,,,,,,,,,,,,,green,I
190.0,7.0,3.0,1.0,1.0,1.0,333.4345580005902,3.0,1.0,part_1,,,,,,,,,,,,,orange,circle
185.0,7.0,3.0,1.0,3.0,3.0,366.37401400003,3.0,1.0,part_1,,,,,,,,,,,,,orange,circle
51.0,5.0,1.0,1.0,1.0,1.0,429.3939399994997,3.0,1.0,part_1,,,,,,,,,,,,,yellow,diamond
0.0,1.0,0.0,0.0,3.0,3.0,429.5047599998725,3.0,1.0,part_1,,,,,,,,,,,,,white,hexagon
222.0,7.0,3.0,1.0,4.0,4.0,314.2873950000648,3.0,1.0,part_1,,,,,,,,,,,,,orange,circle
0.0,3.0,0.0,0.0,3.0,3.0,325.642802999937,3.0,1.0,part_1,,,,,,,,,,,,,magenta,triangle
179.0,3.0,3.0,0.0,3.0,3.0,317.5575079994814,3.0,1.0,part_1,,,,,,,,,,,,,magenta,triangle
379.0,4.0,4.0,0.0,3.0,3.0,308.200499999657,3.0,1.0,part_1,,,,,,,,,,,,,green,I
222.0,3.0,3.0,0.0,1.0,1.0,405.1498530006938,3.0,1.0,part_1,,,,,,,,,,,,,magenta,triangle
400.0,4.0,4.0,0.0,1.0,1.0,590.5566230003387,3.0,1.0,part_1,,,,,,,,,,,,,green,I
113.0,6.0,2.0,1.0,1.0,1.0,321.0664940006609,3.0,1.0,part_1,,,,,,,,,,,,,blue,flipped triangle
40.0,1.0,1.0,0.0,2.0,2.0,532.5250749992847,3.0,1.0,part_1,,,,,,,,,,,,,white,hexagon
217.0,7.0,3.0,1.0,3.0,3.0,559.533798999837,3.0,1.0,part_1,,,,,,,,,,,,,orange,circle
413.0,8.0,4.0,1.0,1.0,1.0,373.1874670002071,3.0,1.0,part_1,,,,,,,,,,,,,cyan,cross
0.0,5.0,0.0,1.0,3.0,3.0,342.8678649997891,3.0,1.0,part_1,,,,,,,,,,,,,yellow,diamond
203.0,3.0,3.0,0.0,1.0,1.0,405.177874000401,3.0,1.0,part_1,,,,,,,,,,,,,magenta,triangle
0.0,4.0,0.0,0.0,4.0,4.0,363.1456509992858,3.0,1.0,part_1,,,,,,,,,,,,,green,I
0.0,6.0,0.0,1.0,4.0,4.0,428.1616770003893,3.0,1.0,part_1,,,,,,,,,,,,,blue,flipped triangle
0.0,7.0,0.0,1.0,2.0,2.0,355.7760479998251,3.0,1.0,part_1,,,,,,,,,,,,,orange,circle
398.0,4.0,4.0,0.0,4.0,4.0,402.5352930002555,3.0,1.0,part_1,,,,,,,,,,,,,green,I
0.0,7.0,0.0,1.0,1.0,1.0,457.018204000633,3.0,1.0,part_1,,,,,,,,,,,,,orange,circle
197.0,7.0,3.0,1.0,3.0,3.0,450.3232790002585,3.0,1.0,part_1,,,,,,,,,,,,,orange,circle
123.0,6.0,2.0,1.0,1.0,1.0,394.8382660000789,3.0,1.0,part_1,,,,,,,,,,,,,blue,flipped triangle
187.0,3.0,3.0,0.0,1.0,1.0,312.3194490008245,3.0,1.0,part_1,,,,,,,,,,,,,magenta,triangle
403.0,4.0,4.0,0.0,1.0,1.0,521.260753000206,3.0,1.0,part_1,,,,,,,,,,,,,green,I
398.0,4.0,4.0,0.0,3.0,3.0,325.7583389995488,3.0,1.0,part_1,,,,,,,,,,,,,green,I
384.0,8.0,4.0,1.0,3.0,3.0,315.5591290005759,3.0,1.0,part_1,,,,,,,,,,,,,cyan,cross
94.0,2.0,2.0,0.0,3.0,3.0,341.5087819994369,3.0,1.0,part_1,,,,,,,,,,,,,gray,square
42.0,1.0,1.0,0.0,3.0,3.0,505.67036800021015,3.0,1.0,part_1,,,,,,,,,,,,,white,hexagon
400.0,8.0,4.0,1.0,4.0,4.0,356.9759530000738,3.0,1.0,part_1,,,,,,,,,,,,,cyan,cross
196.0,7.0,3.0,1.0,3.0,3.0,343.8215559999662,3.0,1.0,part_1,,,,,,,,,,,,,orange,circle
112.0,2.0,2.0,0.0,2.0,2.0,395.9066040006291,3.0,1.0,part_1,,,,,,,,,,,,,gray,square
411.0,4.0,4.0,0.0,4.0,4.0,793.2021119995625,3.0,1.0,part_1,,,,,,,,,,,,,green,I
0.0,8.0,0.0,1.0,4.0,4.0,493.1263039998157,3.0,1.0,part_1,,,,,,,,,,,,,cyan,cross
222.0,7.0,3.0,1.0,1.0,1.0,349.1028899998127,3.0,1.0,part_1,,,,,,,,,,,,,orange,circle
33.0,5.0,1.0,1.0,3.0,3.0,418.1130639999537,3.0,1.0,part_1,,,,,,,,,,,,,yellow,diamond
398.0,4.0,4.0,0.0,4.0,4.0,414.6977920008794,3.0,1.0,part_1,,,,,,,,,,,,,green,I
0.0,2.0,0.0,0.0,1.0,1.0,892.844463000074,3.0,1.0,part_1,,,,,,,,,,,,,gray,square
389.0,8.0,4.0,1.0,3.0,3.0,474.1123039993908,3.0,1.0,part_1,,,,,,,,,,,,,cyan,cross
182.0,3.0,3.0,0.0,2.0,2.0,404.1656689996671,3.0,1.0,part_1,,,,,,,,,,,,,magenta,triangle
73.0,5.0,1.0,1.0,4.0,4.0,440.8167830006277,3.0,1.0,part_1,,,,,,,,,,,,,yellow,diamond
0.0,8.0,0.0,1.0,2.0,2.0,469.2013459998634,3.0,1.0,part_1,,,,,,,,,,,,,cyan,cross
0.0,7.0,0.0,1.0,1.0,1.0,459.7940030007521,3.0,1.0,part_1,,,,,,,,,,,,,orange,circle
0.0,5.0,0.0,1.0,3.0,3.0,335.4652650004937,3.0,1.0,part_1,,,,,,,,,,,,,yellow,diamond
96.0,2.0,2.0,0.0,2.0,2.0,455.0593049998497,3.0,1.0,part_1,,,,,,,,,,,,,gray,square
190.0,7.0,3.0,1.0,1.0,1.0,368.4624549996442,3.0,1.0,part_1,,,,,,,,,,,,,orange,circle
0.0,6.0,0.0,1.0,4.0,4.0,562.8548520007826,3.0,1.0,part_1,,,,,,,,,,,,,blue,flipped triangle
189.0,7.0,3.0,1.0,4.0,4.0,345.1108929994007,3.0,1.0,part_1,,,,,,,,,,,,,orange,circle
208.0,3.0,3.0,0.0,3.0,3.0,540.0974639997003,3.0,1.0,part_1,,,,,,,,,,,,,magenta,triangle
403.0,8.0,4.0,1.0,3.0,3.0,446.5925219992641,3.0,1.0,part_1,,,,,,,,,,,,,cyan,cross
0.0,3.0,0.0,0.0,2.0,2.0,436.8236399996021,3.0,1.0,part_1,,,,,,,,,,,,,magenta,triangle
60.0,1.0,1.0,0.0,2.0,2.0,520.5214480001814,3.0,1.0,part_1,,,,,,,,,,,,,white,hexagon
92.0,6.0,2.0,1.0,4.0,4.0,415.0696329998027,3.0,1.0,part_1,,,,,,,,,,,,,blue,flipped triangle
0.0,6.0,0.0,1.0,4.0,4.0,371.6028999997434,3.0,1.0,part_1,,,,,,,,,,,,,blue,flipped triangle
111.0,6.0,2.0,1.0,4.0,4.0,337.2180750002371,3.0,1.0,part_1,,,,,,,,,,,,,blue,flipped triangle
59.0,5.0,1.0,1.0,3.0,3.0,380.6215760005216,3.0,1.0,part_1,,,,,,,,,,,,,yellow,diamond
89.0,2.0,2.0,0.0,2.0,2.0,524.2032400001335,3.0,1.0,part_1,,,,,,,,,,,,,gray,square
0.0,5.0,0.0,1.0,1.0,1.0,344.2009919999691,3.0,1.0,part_1,,,,,,,,,,,,,yellow,diamond
50.0,5.0,1.0,1.0,1.0,1.0,371.8614740000703,3.0,1.0,part_1,,,,,,,,,,,,,yellow,diamond
0.0,2.0,0.0,0.0,2.0,2.0,402.477048000037,3.0,1.0,part_1,,,,,,,,,,,,,gray,square
202.0,7.0,3.0,1.0,2.0,2.0,519.3257560003985,3.0,1.0,part_1,,,,,,,,,,,,,orange,circle
0.0,5.0,0.0,1.0,3.0,3.0,441.428953000468,3.0,1.0,part_1,,,,,,,,,,,,,yellow,diamond
381.0,8.0,4.0,1.0,4.0,4.0,360.0049029992078,3.0,1.0,part_1,,,,,,,,,,,,,cyan,cross
39.0,1.0,1.0,0.0,2.0,2.0,321.8519360007121,3.0,1.0,part_1,,,,,,,,,,,,,white,hexagon
199.0,3.0,3.0,0.0,4.0,4.0,346.5597370004616,3.0,1.0,part_1,,,,,,,,,,,,,magenta,triangle
0.0,6.0,0.0,1.0,4.0,4.0,386.7575570002373,3.0,1.0,part_1,,,,,,,,,,,,,blue,flipped triangle
96.0,2.0,2.0,0.0,2.0,2.0,423.9861740006745,3.0,1.0,part_1,,,,,,,,,,,,,gray,square
376.0,8.0,4.0,1.0,4.0,4.0,367.5674400001298,3.0,1.0,part_1,,,,,,,,,,,,,cyan,cross
101.0,2.0,2.0,0.0,1.0,1.0,503.8071070002843,3.0,1.0,part_1,,,,,,,,,,,,,gray,square
176.0,7.0,3.0,1.0,2.0,2.0,623.8195169999017,3.0,1.0,part_1,,,,,,,,,,,,,orange,circle
182.0,7.0,3.0,1.0,2.0,2.0,389.1629270001431,3.0,1.0,part_1,,,,,,,,,,,,,orange,circle
42.0,5.0,1.0,1.0,4.0,4.0,415.3811549995225,3.0,1.0,part_1,,,,,,,,,,,,,yellow,diamond
196.0,3.0,3.0,0.0,2.0,2.0,487.3778390001462,3.0,1.0,part_1,,,,,,,,,,,,,magenta,triangle
208.0,7.0,3.0,1.0,1.0,1.0,768.5809249996964,4.0,1.0,part_1,,,,,,,,,,,,,orange,circle
392.0,4.0,4.0,0.0,4.0,4.0,359.70703699968,4.0,1.0,part_1,,,,,,,,,,,,,green,I
384.0,4.0,4.0,0.0,2.0,2.0,438.6061760005759,4.0,1.0,part_1,,,,,,,,,,,,,green,I
43.0,1.0,1.0,0.0,3.0,3.0,354.9292139996396,4.0,1.0,part_1,,,,,,,,,,,,,white,hexagon
0.0,4.0,0.0,0.0,1.0,1.0,741.9733360002283,4.0,1.0,part_1,,,,,,,,,,,,,green,I
43.0,5.0,1.0,1.0,3.0,3.0,357.6089890002549,4.0,1.0,part_1,,,,,,,,,,,,,yellow,diamond
222.0,3.0,3.0,0.0,3.0,3.0,312.9124089991819,4.0,1.0,part_1,,,,,,,,,,,,,magenta,triangle
422.0,4.0,4.0,0.0,1.0,1.0,424.68709700006,4.0,1.0,part_1,,,,,,,,,,,,,green,I
0.0,2.0,0.0,0.0,4.0,4.0,449.4376419997934,4.0,1.0,part_1,,,,,,,,,,,,,gray,square
0.0,4.0,0.0,0.0,1.0,1.0,357.003344000077,4.0,1.0,part_1,,,,,,,,,,,,,green,I
118.0,2.0,2.0,0.0,3.0,3.0,381.8159410002408,4.0,1.0,part_1,,,,,,,,,,,,,gray,square
37.0,1.0,1.0,0.0,1.0,1.0,347.6604970001062,4.0,1.0,part_1,,,,,,,,,,,,,white,hexagon
113.0,6.0,2.0,1.0,2.0,2.0,348.7112559996603,4.0,1.0,part_1,,,,,,,,,,,,,blue,flipped triangle
124.0,2.0,2.0,0.0,1.0,1.0,537.2872910002116,4.0,1.0,part_1,,,,,,,,,,,,,gray,square
104.0,2.0,2.0,0.0,3.0,3.0,419.6796030000769,4.0,2.0,part_1,,,,,,,,,,,,,gray,square
91.0,2.0,2.0,0.0,3.0,3.0,343.9454010003828,4.0,1.0,part_1,,,,,,,,,,,,,gray,square
187.0,7.0,3.0,1.0,4.0,4.0,381.9006059993626,4.0,2.0,part_1,,,,,,,,,,,,,orange,circle
112.0,6.0,2.0,1.0,4.0,4.0,416.1516280000796,4.0,1.0,part_1,,,,,,,,,,,,,blue,flipped triangle
76.0,2.0,2.0,0.0,3.0,3.0,314.6534930001508,4.0,1.0,part_1,,,,,,,,,,,,,gray,square
44.0,5.0,1.0,1.0,2.0,2.0,458.2981890007431,4.0,1.0,part_1,,,,,,,,,,,,,yellow,diamond
120.0,6.0,2.0,1.0,3.0,3.0,365.8507000000099,4.0,1.0,part_1,,,,,,,,,,,,,blue,flipped triangle
39.0,5.0,1.0,1.0,3.0,3.0,347.533480000493,4.0,1.0,part_1,,,,,,,,,,,,,yellow,diamond
397.0,8.0,4.0,1.0,3.0,3.0,464.9267659997349,4.0,1.0,part_1,,,,,,,,,,,,,cyan,cross
0.0,3.0,0.0,0.0,1.0,1.0,404.7901439998895,4.0,1.0,part_1,,,,,,,,,,,,,magenta,triangle
0.0,2.0,0.0,0.0,1.0,1.0,346.6134170002988,4.0,1.0,part_1,,,,,,,,,,,,,gray,square
0.0,1.0,0.0,0.0,2.0,2.0,421.1684950005292,4.0,1.0,part_1,,,,,,,,,,,,,white,hexagon
395.0,8.0,4.0,1.0,3.0,3.0,417.4785110008088,4.0,1.0,part_1,,,,,,,,,,,,,cyan,cross
0.0,4.0,0.0,0.0,4.0,4.0,428.2198509999944,4.0,1.0,part_1,,,,,,,,,,,,,green,I
101.0,6.0,2.0,1.0,3.0,3.0,337.2764220002864,4.0,1.0,part_1,,,,,,,,,,,,,blue,flipped triangle
411.0,8.0,4.0,1.0,2.0,2.0,379.4913349993294,4.0,1.0,part_1,,,,,,,,,,,,,cyan,cross
0.0,5.0,0.0,1.0,1.0,1.0,358.4754510002312,4.0,1.0,part_1,,,,,,,,,,,,,yellow,diamond
216.0,7.0,3.0,1.0,4.0,4.0,512.4142539998502,4.0,1.0,part_1,,,,,,,,,,,,,orange,circle
77.0,6.0,2.0,1.0,3.0,3.0,482.5080430000525,4.0,1.0,part_1,,,,,,,,,,,,,blue,flipped triangle
125.0,2.0,2.0,0.0,3.0,3.0,389.593676000004,4.0,1.0,part_1,,,,,,,,,,,,,gray,square
0.0,8.0,0.0,1.0,4.0,4.0,411.3739019994682,4.0,1.0,part_1,,,,,,,,,,,,,cyan,cross
0.0,6.0,0.0,1.0,1.0,1.0,378.0114999999568,4.0,1.0,part_1,,,,,,,,,,,,,blue,flipped triangle
0.0,3.0,0.0,0.0,1.0,1.0,427.2527029997945,4.0,1.0,part_1,,,,,,,,,,,,,magenta,triangle
33.0,5.0,1.0,1.0,2.0,2.0,720.7984659999056,4.0,1.0,part_1,,,,,,,,,,,,,yellow,diamond
198.0,7.0,3.0,1.0,4.0,4.0,361.4812589994471,4.0,1.0,part_1,,,,,,,,,,,,,orange,circle
0.0,5.0,0.0,1.0,1.0,1.0,700.659787999939,4.0,1.0,part_1,,,,,,,,,,,,,yellow,diamond
203.0,3.0,3.0,0.0,4.0,4.0,480.6265680008437,4.0,1.0,part_1,,,,,,,,,,,,,magenta,triangle
176.0,3.0,3.0,0.0,1.0,1.0,516.1748700002136,4.0,1.0,part_1,,,,,,,,,,,,,magenta,triangle
213.0,7.0,3.0,1.0,3.0,3.0,341.1954240000341,4.0,1.0,part_1,,,,,,,,,,,,,orange,circle
0.0,5.0,0.0,1.0,4.0,4.0,343.792927999857,4.0,1.0,part_1,,,,,,,,,,,,,yellow,diamond
0.0,1.0,0.0,0.0,4.0,4.0,343.7586700001702,4.0,1.0,part_1,,,,,,,,,,,,,white,hexagon
0.0,3.0,0.0,0.0,1.0,1.0,332.2269340005732,4.0,1.0,part_1,,,,,,,,,,,,,magenta,triangle
113.0,2.0,2.0,0.0,4.0,4.0,287.6745889998346,4.0,1.0,part_1,,,,,,,,,,,,,gray,square
77.0,2.0,2.0,0.0,1.0,1.0,388.204826999754,4.0,1.0,part_1,,,,,,,,,,,,,gray,square
31.0,1.0,1.0,0.0,4.0,4.0,341.5011899996898,4.0,1.0,part_1,,,,,,,,,,,,,white,hexagon
62.0,1.0,1.0,0.0,4.0,4.0,405.1194930007114,4.0,1.0,part_1,,,,,,,,,,,,,white,hexagon
202.0,3.0,3.0,0.0,4.0,4.0,396.4322189995073,4.0,1.0,part_1,,,,,,,,,,,,,magenta,triangle
0.0,8.0,0.0,1.0,4.0,4.0,412.7191930001572,4.0,1.0,part_1,,,,,,,,,,,,,cyan,cross
40.0,5.0,1.0,1.0,4.0,4.0,344.7037779997117,4.0,1.0,part_1,,,,,,,,,,,,,yellow,diamond
179.0,7.0,3.0,1.0,1.0,1.0,381.9057489999977,4.0,1.0,part_1,,,,,,,,,,,,,orange,circle
29.0,5.0,1.0,1.0,1.0,1.0,333.4728700001506,4.0,1.0,part_1,,,,,,,,,,,,,yellow,diamond
386.0,4.0,4.0,0.0,1.0,1.0,369.4763920002515,4.0,1.0,part_1,,,,,,,,,,,,,green,I
72.0,1.0,1.0,0.0,1.0,1.0,304.1636070001914,4.0,1.0,part_1,,,,,,,,,,,,,white,hexagon
115.0,2.0,2.0,0.0,1.0,1.0,350.8844239995596,4.0,2.0,part_1,,,,,,,,,,,,,gray,square
29.0,1.0,1.0,0.0,3.0,3.0,354.4312889998764,4.0,1.0,part_1,,,,,,,,,,,,,white,hexagon
389.0,4.0,4.0,0.0,4.0,4.0,615.8997450002062,4.0,1.0,part_1,,,,,,,,,,,,,green,I
93.0,2.0,2.0,0.0,4.0,4.0,400.4500020000705,4.0,1.0,part_1,,,,,,,,,,,,,gray,square
109.0,6.0,2.0,1.0,4.0,4.0,317.0191440003691,4.0,1.0,part_1,,,,,,,,,,,,,blue,flipped triangle
33.0,1.0,1.0,0.0,4.0,4.0,392.5291949999518,4.0,1.0,part_1,,,,,,,,,,,,,white,hexagon
91.0,6.0,2.0,1.0,2.0,2.0,466.2620359995344,4.0,1.0,part_1,,,,,,,,,,,,,blue,flipped triangle
75.0,2.0,2.0,0.0,4.0,4.0,413.386953000554,4.0,1.0,part_1,,,,,,,,,,,,,gray,square
208.0,3.0,3.0,0.0,2.0,2.0,432.011859999875,4.0,1.0,part_1,,,,,,,,,,,,,magenta,triangle
124.0,6.0,2.0,1.0,2.0,2.0,476.0235859994282,4.0,1.0,part_1,,,,,,,,,,,,,blue,flipped triangle
0.0,1.0,0.0,0.0,2.0,2.0,533.1759020000391,4.0,1.0,part_1,,,,,,,,,,,,,white,hexagon
186.0,3.0,3.0,0.0,2.0,2.0,727.3982899996554,4.0,1.0,part_1,,,,,,,,,,,,,magenta,triangle
0.0,3.0,0.0,0.0,3.0,3.0,480.0757539996994,4.0,1.0,part_1,,,,,,,,,,,,,magenta,triangle
186.0,7.0,3.0,1.0,1.0,1.0,366.6402580001886,4.0,1.0,part_1,,,,,,,,,,,,,orange,circle
0.0,3.0,0.0,0.0,2.0,2.0,664.8928790000355,4.0,1.0,part_1,,,,,,,,,,,,,magenta,triangle
0.0,6.0,0.0,1.0,2.0,2.0,475.2938800002084,4.0,1.0,part_1,,,,,,,,,,,,,blue,flipped triangle
33.0,1.0,1.0,0.0,3.0,3.0,434.2913880000196,4.0,1.0,part_1,,,,,,,,,,,,,white,hexagon
72.0,5.0,1.0,1.0,1.0,1.0,580.2072739998039,4.0,1.0,part_1,,,,,,,,,,,,,yellow,diamond
425.0,4.0,4.0,0.0,1.0,1.0,384.2909850000069,4.0,1.0,part_1,,,,,,,,,,,,,green,I
0.0,1.0,0.0,0.0,3.0,3.0,369.9830269997619,4.0,1.0,part_1,,,,,,,,,,,,,white,hexagon
381.0,4.0,4.0,0.0,2.0,2.0,509.7943619994112,4.0,1.0,part_1,,,,,,,,,,,,,green,I
188.0,7.0,3.0,1.0,1.0,1.0,444.6763919995646,4.0,1.0,part_1,,,,,,,,,,,,,orange,circle
34.0,1.0,1.0,0.0,3.0,3.0,376.4630109999416,4.0,1.0,part_1,,,,,,,,,,,,,white,hexagon
38.0,1.0,1.0,0.0,3.0,3.0,359.9295300000449,4.0,1.0,part_1,,,,,,,,,,,,,white,hexagon
0.0,2.0,0.0,0.0,1.0,1.0,323.0413040000712,4.0,1.0,part_1,,,,,,,,,,,,,gray,square
403.0,4.0,4.0,0.0,4.0,4.0,389.0877189996899,4.0,1.0,part_1,,,,,,,,,,,,,green,I
385.0,4.0,4.0,0.0,1.0,1.0,580.7424399999945,4.0,1.0,part_1,,,,,,,,,,,,,green,I
107.0,6.0,2.0,1.0,2.0,2.0,563.8244439996924,4.0,1.0,part_1,,,,,,,,,,,,,blue,flipped triangle
54.0,5.0,1.0,1.0,1.0,1.0,481.0549570001967,4.0,1.0,part_1,,,,,,,,,,,,,yellow,diamond
33.0,5.0,1.0,1.0,3.0,3.0,386.8535510000583,4.0,1.0,part_1,,,,,,,,,,,,,yellow,diamond
104.0,2.0,2.0,0.0,3.0,3.0,386.2846479996733,4.0,1.0,part_1,,,,,,,,,,,,,gray,square
184.0,3.0,3.0,0.0,1.0,1.0,347.8686790003849,4.0,1.0,part_1,,,,,,,,,,,,,magenta,triangle
0.0,6.0,0.0,1.0,2.0,2.0,420.2117209997595,4.0,1.0,part_1,,,,,,,,,,,,,blue,flipped triangle
61.0,1.0,1.0,0.0,2.0,2.0,368.1369309997535,4.0,1.0,part_1,,,,,,,,,,,,,white,hexagon
395.0,4.0,4.0,0.0,1.0,1.0,392.3360939998019,4.0,1.0,part_1,,,,,,,,,,,,,green,I
37.0,5.0,1.0,1.0,4.0,4.0,727.0894849998513,4.0,1.0,part_1,,,,,,,,,,,,,yellow,diamond
0.0,3.0,0.0,0.0,3.0,3.0,390.0689780002722,4.0,1.0,part_1,,,,,,,,,,,,,magenta,triangle
181.0,3.0,3.0,0.0,1.0,1.0,351.3859259992387,4.0,1.0,part_1,,,,,,,,,,,,,magenta,triangle
93.0,6.0,2.0,1.0,2.0,2.0,423.8912230002825,4.0,1.0,part_1,,,,,,,,,,,,,blue,flipped triangle
89.0,6.0,2.0,1.0,1.0,1.0,378.8309760002448,4.0,1.0,part_1,,,,,,,,,,,,,blue,flipped triangle
112.0,2.0,2.0,0.0,4.0,4.0,308.8035529999615,4.0,1.0,part_1,,,,,,,,,,,,,gray,square
113.0,2.0,2.0,0.0,4.0,4.0,345.9199419994547,4.0,1.0,part_1,,,,,,,,,,,,,gray,square
64.0,1.0,1.0,0.0,4.0,4.0,337.7322950000234,4.0,1.0,part_1,,,,,,,,,,,,,white,hexagon
0.0,7.0,3.0,1.0,5.0,0.0,0.0,1.0,0.0,part_2,stop,250.0,250.0,4.0,,,,,,,,,orange,circle
0.0,5.0,1.0,1.0,5.0,0.0,0.0,1.0,0.0,part_2,stop,300.0,250.0,4.0,,,,,,,,,yellow,diamond
0.0,2.0,2.0,0.0,5.0,5.0,503.41083600051206,1.0,0.0,part_2,go,350.0,250.0,1.0,,,,,,,,,gray,square
0.0,6.0,2.0,1.0,5.0,5.0,441.2475549997907,1.0,0.0,part_2,stop,350.0,250.0,3.0,,,,,,,,,blue,flipped triangle
0.0,6.0,2.0,1.0,5.0,5.0,618.7429230003545,1.0,0.0,part_2,go,300.0,250.0,1.0,,,,,,,,,blue,flipped triangle
0.0,6.0,2.0,1.0,5.0,5.0,408.1874449993847,1.0,0.0,part_2,go,300.0,250.0,1.0,,,,,,,,,blue,flipped triangle
0.0,2.0,2.0,0.0,5.0,5.0,345.0074900001709,1.0,0.0,part_2,go,300.0,250.0,1.0,,,,,,,,,gray,square
0.0,6.0,2.0,1.0,6.0,6.0,305.8750889995281,1.0,0.0,part_2,stop,300.0,250.0,3.0,,,,,,,,,blue,flipped triangle
0.0,4.0,4.0,0.0,6.0,6.0,707.8473920000761,1.0,0.0,part_2,go,300.0,200.0,1.0,,,,,,,,,green,I
0.0,2.0,2.0,0.0,5.0,5.0,469.4537340001261,1.0,0.0,part_2,go,300.0,200.0,1.0,,,,,,,,,gray,square
0.0,8.0,4.0,1.0,5.0,0.0,0.0,1.0,0.0,part_2,stop,300.0,200.0,4.0,,,,,,,,,cyan,cross
0.0,3.0,3.0,0.0,6.0,6.0,554.5086199999787,1.0,0.0,part_2,go,350.0,200.0,1.0,,,,,,,,,magenta,triangle
0.0,6.0,2.0,1.0,6.0,0.0,0.0,1.0,0.0,part_2,stop,350.0,200.0,4.0,,,,,,,,,blue,flipped triangle
0.0,2.0,2.0,0.0,5.0,5.0,819.9048700007552,1.0,0.0,part_2,go,350.0,250.0,1.0,,,,,,,,,gray,square
0.0,6.0,2.0,1.0,6.0,6.0,504.29215299936914,1.0,0.0,part_2,go,350.0,250.0,1.0,,,,,,,,,blue,flipped triangle
0.0,3.0,3.0,0.0,5.0,5.0,457.0143720002306,1.0,0.0,part_2,go,350.0,250.0,1.0,,,,,,,,,magenta,triangle
0.0,6.0,2.0,1.0,6.0,6.0,301.2462679998862,1.0,0.0,part_2,stop,350.0,250.0,3.0,,,,,,,,,blue,flipped triangle
0.0,1.0,1.0,0.0,6.0,6.0,709.729303000131,1.0,0.0,part_2,go,350.0,200.0,1.0,,,,,,,,,white,hexagon
0.0,5.0,1.0,1.0,5.0,5.0,513.0999120001434,1.0,0.0,part_2,go,350.0,200.0,1.0,,,,,,,,,yellow,diamond
0.0,4.0,4.0,0.0,5.0,5.0,440.8791369996834,1.0,0.0,part_2,go,350.0,200.0,1.0,,,,,,,,,green,I
0.0,2.0,2.0,0.0,5.0,5.0,596.5966909998315,1.0,0.0,part_2,go,350.0,200.0,1.0,,,,,,,,,gray,square
0.0,1.0,1.0,0.0,6.0,6.0,327.6775439999255,1.0,0.0,part_2,go,350.0,200.0,1.0,,,,,,,,,white,hexagon
0.0,6.0,2.0,1.0,5.0,5.0,516.0370009998587,1.0,0.0,part_2,stop,350.0,200.0,3.0,,,,,,,,,blue,flipped triangle
0.0,4.0,4.0,0.0,5.0,5.0,576.2818389994209,1.0,0.0,part_2,go,300.0,200.0,1.0,,,,,,,,,green,I
0.0,7.0,3.0,1.0,6.0,6.0,357.6397440001528,1.0,0.0,part_2,go,300.0,200.0,1.0,,,,,,,,,orange,circle
0.0,7.0,3.0,1.0,5.0,5.0,467.5231609999173,1.0,0.0,part_2,stop,300.0,200.0,3.0,,,,,,,,,orange,circle
0.0,5.0,1.0,1.0,5.0,0.0,0.0,1.0,0.0,part_2,stop,250.0,200.0,4.0,,,,,,,,,yellow,diamond
0.0,6.0,2.0,1.0,6.0,6.0,521.3715760000923,1.0,0.0,part_2,go,300.0,200.0,1.0,,,,,,,,,blue,flipped triangle
0.0,8.0,4.0,1.0,5.0,0.0,0.0,1.0,0.0,part_2,stop,300.0,200.0,4.0,,,,,,,,,cyan,cross
0.0,6.0,2.0,1.0,5.0,0.0,0.0,1.0,0.0,part_2,stop,350.0,200.0,4.0,,,,,,,,,blue,flipped triangle
0.0,4.0,4.0,0.0,6.0,6.0,786.9804280007884,1.0,0.0,part_2,go,400.0,200.0,1.0,,,,,,,,,green,I
0.0,7.0,3.0,1.0,6.0,0.0,0.0,1.0,0.0,part_2,stop,400.0,200.0,4.0,,,,,,,,,orange,circle
0.0,4.0,4.0,0.0,5.0,5.0,838.5818050001035,1.0,0.0,part_2,go,400.0,250.0,1.0,,,,,,,,,green,I
0.0,2.0,2.0,0.0,5.0,5.0,774.6614130001035,1.0,0.0,part_2,go,400.0,250.0,1.0,,,,,,,,,gray,square
0.0,4.0,4.0,0.0,5.0,5.0,675.8264569998573,1.0,0.0,part_2,go,400.0,250.0,1.0,,,,,,,,,green,I
0.0,2.0,2.0,0.0,6.0,6.0,386.1352900003112,1.0,0.0,part_2,go,400.0,250.0,1.0,,,,,,,,,gray,square
0.0,5.0,1.0,1.0,6.0,6.0,566.6810030006673,2.0,0.0,part_2,go,400.0,250.0,1.0,,,,,,,,,yellow,diamond
0.0,3.0,3.0,0.0,6.0,6.0,324.0959749991816,2.0,0.0,part_2,go,400.0,250.0,1.0,,,,,,,,,magenta,triangle
0.0,2.0,2.0,0.0,6.0,6.0,361.1652449999383,2.0,0.0,part_2,go,400.0,250.0,1.0,,,,,,,,,gray,square
0.0,6.0,2.0,1.0,5.0,5.0,480.5024060005962,2.0,0.0,part_2,stop,400.0,250.0,3.0,,,,,,,,,blue,flipped triangle
0.0,3.0,3.0,0.0,5.0,5.0,669.3264030000137,2.0,0.0,part_2,go,350.0,250.0,1.0,,,,,,,,,magenta,triangle
0.0,5.0,1.0,1.0,6.0,6.0,335.9360289996402,2.0,0.0,part_2,stop,350.0,250.0,3.0,,,,,,,,,yellow,diamond
0.0,1.0,1.0,0.0,6.0,6.0,641.8402769995737,2.0,0.0,part_2,go,350.0,200.0,1.0,,,,,,,,,white,hexagon
0.0,8.0,4.0,1.0,6.0,0.0,0.0,2.0,0.0,part_2,stop,350.0,200.0,4.0,,,,,,,,,cyan,cross
0.0,7.0,3.0,1.0,5.0,5.0,576.1149780000778,2.0,0.0,part_2,go,350.0,250.0,1.0,,,,,,,,,orange,circle
0.0,5.0,1.0,1.0,6.0,0.0,0.0,2.0,0.0,part_2,stop,350.0,250.0,4.0,,,,,,,,,yellow,diamond
0.0,1.0,1.0,0.0,6.0,6.0,519.4249950000085,2.0,0.0,part_2,go,350.0,300.0,1.0,,,,,,,,,white,hexagon
0.0,6.0,2.0,1.0,6.0,0.0,0.0,2.0,0.0,part_2,stop,350.0,300.0,4.0,,,,,,,,,blue,flipped triangle
0.0,4.0,4.0,0.0,5.0,5.0,628.6414699998204,2.0,0.0,part_2,go,350.0,350.0,1.0,,,,,,,,,green,I
0.0,6.0,2.0,1.0,5.0,0.0,0.0,2.0,0.0,part_2,stop,350.0,350.0,4.0,,,,,,,,,blue,flipped triangle
0.0,1.0,1.0,0.0,6.0,6.0,430.6540180004958,2.0,0.0,part_2,go,400.0,350.0,1.0,,,,,,,,,white,hexagon
0.0,4.0,4.0,0.0,6.0,6.0,865.2604829994743,2.0,0.0,part_2,go,400.0,350.0,1.0,,,,,,,,,green,I
0.0,1.0,1.0,0.0,5.0,5.0,924.1496009999536,2.0,0.0,part_2,go,400.0,350.0,1.0,,,,,,,,,white,hexagon
0.0,5.0,1.0,1.0,6.0,0.0,0.0,2.0,0.0,part_2,stop,400.0,350.0,4.0,,,,,,,,,yellow,diamond
0.0,5.0,1.0,1.0,5.0,5.0,776.592559999699,2.0,0.0,part_2,go,400.0,400.0,1.0,,,,,,,,,yellow,diamond
0.0,1.0,1.0,0.0,6.0,6.0,569.7331119999944,2.0,0.0,part_2,go,400.0,400.0,1.0,,,,,,,,,white,hexagon
0.0,7.0,3.0,1.0,5.0,5.0,390.0954380005714,2.0,0.0,part_2,stop,400.0,400.0,3.0,,,,,,,,,orange,circle
0.0,8.0,4.0,1.0,5.0,5.0,841.1524949997329,2.0,0.0,part_2,go,350.0,400.0,1.0,,,,,,,,,cyan,cross
0.0,5.0,1.0,1.0,5.0,0.0,0.0,2.0,0.0,part_2,stop,350.0,400.0,4.0,,,,,,,,,yellow,diamond
0.0,6.0,2.0,1.0,6.0,6.0,301.3500659999408,2.0,0.0,part_2,stop,400.0,400.0,3.0,,,,,,,,,blue,flipped triangle
0.0,3.0,3.0,0.0,5.0,5.0,757.2847869996622,2.0,0.0,part_2,go,400.0,350.0,1.0,,,,,,,,,magenta,triangle
0.0,2.0,2.0,0.0,6.0,6.0,609.9713450003037,2.0,0.0,part_2,go,400.0,350.0,1.0,,,,,,,,,gray,square
0.0,6.0,2.0,1.0,6.0,0.0,0.0,2.0,0.0,part_2,stop,400.0,350.0,4.0,,,,,,,,,blue,flipped triangle
0.0,7.0,3.0,1.0,5.0,0.0,0.0,2.0,0.0,part_2,stop,400.0,400.0,4.0,,,,,,,,,orange,circle
0.0,5.0,1.0,1.0,6.0,0.0,0.0,2.0,0.0,part_2,stop,450.0,400.0,4.0,,,,,,,,,yellow,diamond
0.0,4.0,4.0,0.0,5.0,5.0,612.7152970002498,2.0,0.0,part_2,go,450.0,450.0,1.0,,,,,,,,,green,I
0.0,8.0,4.0,1.0,5.0,0.0,0.0,2.0,0.0,part_2,stop,450.0,450.0,4.0,,,,,,,,,cyan,cross
0.0,1.0,1.0,0.0,6.0,6.0,865.8370510001987,2.0,0.0,part_2,go,500.0,450.0,1.0,,,,,,,,,white,hexagon
0.0,7.0,3.0,1.0,6.0,6.0,793.8697849995151,2.0,0.0,part_2,go,500.0,450.0,1.0,,,,,,,,,orange,circle
0.0,2.0,2.0,0.0,6.0,6.0,556.2128649999067,2.0,0.0,part_2,go,500.0,450.0,1.0,,,,,,,,,gray,square
0.0,3.0,3.0,0.0,5.0,5.0,707.5444580004842,2.0,0.0,part_2,go,500.0,450.0,1.0,,,,,,,,,magenta,triangle
0.0,7.0,3.0,1.0,6.0,6.0,293.5988379995251,2.0,0.0,part_2,stop,500.0,450.0,3.0,,,,,,,,,orange,circle
0.0,1.0,1.0,0.0,5.0,5.0,611.8424910000613,3.0,0.0,part_2,go,500.0,400.0,1.0,,,,,,,,,white,hexagon
0.0,7.0,3.0,1.0,5.0,5.0,540.9111700000722,3.0,0.0,part_2,stop,500.0,400.0,3.0,,,,,,,,,orange,circle
0.0,6.0,2.0,1.0,6.0,6.0,488.935334999951,3.0,0.0,part_2,stop,450.0,400.0,3.0,,,,,,,,,blue,flipped triangle
0.0,7.0,3.0,1.0,5.0,0.0,0.0,3.0,0.0,part_2,stop,450.0,350.0,4.0,,,,,,,,,orange,circle
0.0,6.0,2.0,1.0,6.0,6.0,791.6610140000557,3.0,0.0,part_2,go,500.0,350.0,1.0,,,,,,,,,blue,flipped triangle
0.0,7.0,3.0,1.0,5.0,5.0,569.061457999851,3.0,0.0,part_2,stop,500.0,350.0,3.0,,,,,,,,,orange,circle
0.0,3.0,3.0,0.0,6.0,6.0,707.6434800001152,3.0,0.0,part_2,go,450.0,350.0,1.0,,,,,,,,,magenta,triangle
0.0,3.0,3.0,0.0,6.0,6.0,899.2945919999329,3.0,0.0,part_2,go,450.0,350.0,1.0,,,,,,,,,magenta,triangle
0.0,8.0,4.0,1.0,6.0,0.0,0.0,3.0,0.0,part_2,stop,450.0,350.0,4.0,,,,,,,,,cyan,cross
0.0,6.0,2.0,1.0,5.0,0.0,0.0,3.0,0.0,part_2,stop,450.0,400.0,4.0,,,,,,,,,blue,flipped triangle
0.0,8.0,4.0,1.0,6.0,0.0,0.0,3.0,0.0,part_2,stop,500.0,400.0,4.0,,,,,,,,,cyan,cross
0.0,2.0,2.0,0.0,5.0,5.0,470.6647789998897,3.0,0.0,part_2,go,500.0,450.0,1.0,,,,,,,,,gray,square
0.0,5.0,1.0,1.0,6.0,6.0,709.9113889998989,3.0,0.0,part_2,go,500.0,450.0,1.0,,,,,,,,,yellow,diamond
0.0,8.0,4.0,1.0,6.0,0.0,0.0,3.0,0.0,part_2,stop,500.0,450.0,4.0,,,,,,,,,cyan,cross
0.0,1.0,1.0,0.0,5.0,5.0,702.529725000204,3.0,0.0,part_2,go,500.0,500.0,1.0,,,,,,,,,white,hexagon
0.0,4.0,4.0,0.0,6.0,6.0,642.6964350002891,3.0,0.0,part_2,go,500.0,500.0,1.0,,,,,,,,,green,I
0.0,6.0,2.0,1.0,5.0,0.0,0.0,3.0,0.0,part_2,stop,500.0,500.0,4.0,,,,,,,,,blue,flipped triangle
0.0,7.0,3.0,1.0,5.0,0.0,0.0,3.0,0.0,part_2,stop,550.0,500.0,4.0,,,,,,,,,orange,circle
0.0,1.0,1.0,0.0,6.0,6.0,375.4945159998897,3.0,0.0,part_2,go,600.0,500.0,1.0,,,,,,,,,white,hexagon
0.0,4.0,4.0,0.0,6.0,6.0,660.223674000008,3.0,0.0,part_2,go,600.0,500.0,1.0,,,,,,,,,green,I
0.0,7.0,3.0,1.0,5.0,5.0,647.9086479994294,3.0,0.0,part_2,go,600.0,500.0,1.0,,,,,,,,,orange,circle
0.0,8.0,4.0,1.0,6.0,0.0,0.0,3.0,0.0,part_2,stop,600.0,500.0,4.0,,,,,,,,,cyan,cross
0.0,7.0,3.0,1.0,6.0,0.0,0.0,3.0,0.0,part_2,stop,600.0,550.0,4.0,,,,,,,,,orange,circle
0.0,4.0,4.0,0.0,5.0,5.0,799.2519310009811,3.0,0.0,part_2,go,600.0,600.0,1.0,,,,,,,,,green,I
0.0,4.0,4.0,0.0,6.0,6.0,874.2256389996328,3.0,0.0,part_2,go,600.0,600.0,1.0,,,,,,,,,green,I
0.0,1.0,1.0,0.0,6.0,6.0,983.3150680005928,3.0,0.0,part_2,go,600.0,600.0,1.0,,,,,,,,,white,hexagon
0.0,5.0,1.0,1.0,5.0,5.0,377.8230950010766,3.0,0.0,part_2,stop,600.0,600.0,3.0,,,,,,,,,yellow,diamond
0.0,3.0,3.0,0.0,6.0,6.0,619.5521379995625,3.0,0.0,part_2,go,550.0,600.0,1.0,,,,,,,,,magenta,triangle
0.0,1.0,1.0,0.0,6.0,6.0,979.6970160005004,3.0,0.0,part_2,go,550.0,600.0,1.0,,,,,,,,,white,hexagon
0.0,2.0,2.0,0.0,5.0,5.0,504.0764149998722,3.0,0.0,part_2,go,550.0,600.0,1.0,,,,,,,,,gray,square
0.0,7.0,3.0,1.0,6.0,0.0,0.0,3.0,0.0,part_2,stop,550.0,600.0,4.0,,,,,,,,,orange,circle
0.0,4.0,4.0,0.0,5.0,5.0,715.2680210001563,3.0,0.0,part_2,go,550.0,650.0,1.0,,,,,,,,,green,I
0.0,4.0,4.0,0.0,6.0,6.0,640.8739729995432,3.0,0.0,part_2,go,550.0,650.0,1.0,,,,,,,,,green,I
0.0,4.0,4.0,0.0,5.0,5.0,486.3329130002967,3.0,0.0,part_2,go,550.0,650.0,1.0,,,,,,,,,green,I
0.0,6.0,2.0,1.0,6.0,6.0,407.5618749993737,3.0,0.0,part_2,stop,550.0,650.0,3.0,,,,,,,,,blue,flipped triangle
0.0,2.0,2.0,0.0,5.0,5.0,411.3963469990267,3.0,0.0,part_2,go,550.0,600.0,1.0,,,,,,,,,gray,square
0.0,2.0,2.0,0.0,6.0,6.0,413.4180740002193,4.0,0.0,part_2,go,550.0,600.0,1.0,,,,,,,,,gray,square
0.0,3.0,3.0,0.0,6.0,6.0,401.42908199959487,4.0,0.0,part_2,go,550.0,600.0,1.0,,,,,,,,,magenta,triangle
0.0,4.0,4.0,0.0,6.0,6.0,312.3884010001347,4.0,0.0,part_2,go,550.0,600.0,1.0,,,,,,,,,green,I
0.0,8.0,4.0,1.0,5.0,5.0,412.9717340001662,4.0,0.0,part_2,stop,550.0,600.0,3.0,,,,,,,,,cyan,cross
0.0,3.0,3.0,0.0,5.0,5.0,548.5583070003486,4.0,0.0,part_2,go,500.0,600.0,1.0,,,,,,,,,magenta,triangle
0.0,8.0,4.0,1.0,6.0,6.0,250.69537099989248,4.0,0.0,part_2,stop,500.0,600.0,3.0,,,,,,,,,cyan,cross
0.0,4.0,4.0,0.0,5.0,5.0,329.1239640002459,4.0,0.0,part_2,go,500.0,550.0,1.0,,,,,,,,,green,I
0.0,5.0,1.0,1.0,6.0,6.0,324.1892249989178,4.0,0.0,part_2,stop,500.0,550.0,3.0,,,,,,,,,yellow,diamond
0.0,6.0,2.0,1.0,5.0,5.0,622.4172419988463,4.0,0.0,part_2,go,500.0,500.0,1.0,,,,,,,,,blue,flipped triangle
0.0,8.0,4.0,1.0,5.0,5.0,456.4175460000115,4.0,0.0,part_2,stop,500.0,500.0,3.0,,,,,,,,,cyan,cross
0.0,2.0,2.0,0.0,5.0,5.0,442.1889590012142,4.0,0.0,part_2,go,450.0,500.0,1.0,,,,,,,,,gray,square
0.0,6.0,2.0,1.0,6.0,6.0,290.8167459991091,4.0,0.0,part_2,stop,450.0,500.0,3.0,,,,,,,,,blue,flipped triangle
0.0,4.0,4.0,0.0,5.0,5.0,363.3411580012762,4.0,0.0,part_2,go,450.0,450.0,1.0,,,,,,,,,green,I
0.0,7.0,3.0,1.0,6.0,6.0,374.9924310013739,4.0,0.0,part_2,stop,450.0,450.0,3.0,,,,,,,,,orange,circle
0.0,3.0,3.0,0.0,5.0,5.0,530.7918760008761,4.0,0.0,part_2,go,450.0,400.0,1.0,,,,,,,,,magenta,triangle
0.0,8.0,4.0,1.0,6.0,6.0,354.7196750005241,4.0,0.0,part_2,stop,450.0,400.0,3.0,,,,,,,,,cyan,cross
0.0,1.0,1.0,0.0,5.0,5.0,321.6472869989957,4.0,0.0,part_2,go,450.0,350.0,1.0,,,,,,,,,white,hexagon
0.0,8.0,4.0,1.0,5.0,5.0,386.0256739990291,4.0,0.0,part_2,stop,450.0,350.0,3.0,,,,,,,,,cyan,cross
0.0,1.0,1.0,0.0,5.0,5.0,762.3712759996124,4.0,0.0,part_2,go,400.0,350.0,1.0,,,,,,,,,white,hexagon
0.0,1.0,1.0,0.0,5.0,5.0,351.3729749993217,4.0,0.0,part_2,go,400.0,350.0,1.0,,,,,,,,,white,hexagon
0.0,2.0,2.0,0.0,6.0,6.0,335.5290409999725,4.0,0.0,part_2,go,400.0,350.0,1.0,,,,,,,,,gray,square
0.0,8.0,4.0,1.0,5.0,5.0,225.54816100091548,4.0,0.0,part_2,go,400.0,350.0,1.0,,,,,,,,,cyan,cross
0.0,3.0,3.0,0.0,5.0,5.0,318.6451629990188,4.0,0.0,part_2,go,400.0,350.0,1.0,,,,,,,,,magenta,triangle
0.0,8.0,4.0,1.0,6.0,6.0,260.7505420000962,4.0,0.0,part_2,stop,400.0,350.0,3.0,,,,,,,,,cyan,cross
0.0,3.0,3.0,0.0,6.0,6.0,371.5719720003108,4.0,0.0,part_2,go,400.0,300.0,1.0,,,,,,,,,magenta,triangle
0.0,5.0,1.0,1.0,5.0,5.0,253.02424999972573,4.0,0.0,part_2,go,400.0,300.0,1.0,,,,,,,,,yellow,diamond
0.0,1.0,1.0,0.0,6.0,6.0,254.0761460004432,4.0,0.0,part_2,go,400.0,300.0,1.0,,,,,,,,,white,hexagon
0.0,8.0,4.0,1.0,6.0,6.0,437.2126359994581,4.0,0.0,part_2,go,400.0,300.0,1.0,,,,,,,,,cyan,cross
0.0,8.0,4.0,1.0,6.0,6.0,314.9108069992508,4.0,0.0,part_2,go,400.0,300.0,1.0,,,,,,,,,cyan,cross
0.0,2.0,2.0,0.0,6.0,6.0,250.95645900000818,4.0,0.0,part_2,go,400.0,300.0,1.0,,,,,,,,,gray,square
0.0,6.0,2.0,1.0,5.0,5.0,306.7214460006653,4.0,0.0,part_2,stop,400.0,300.0,3.0,,,,,,,,,blue,flipped triangle
0.0,8.0,4.0,1.0,5.0,5.0,448.4827960004622,4.0,0.0,part_2,stop,350.0,300.0,3.0,,,,,,,,,cyan,cross
0.0,4.0,4.0,0.0,5.0,5.0,409.2282820001856,4.0,0.0,part_2,go,300.0,300.0,1.0,,,,,,,,,green,I
0.0,2.0,2.0,0.0,5.0,5.0,304.5560539994767,4.0,0.0,part_2,go,300.0,300.0,1.0,,,,,,,,,gray,square
0.0,4.0,4.0,0.0,6.0,6.0,287.1825370002625,4.0,0.0,part_2,go,300.0,300.0,1.0,,,,,,,,,green,I
0.0,1.0,1.0,0.0,6.0,6.0,308.9865549991373,4.0,0.0,part_2,go,300.0,300.0,1.0,,,,,,,,,white,hexagon
0.0,1.0,1.0,0.0,6.0,6.0,357.4822579994361,5.0,0.0,part_2,go,300.0,300.0,1.0,,,,,,,,,white,hexagon
0.0,6.0,2.0,1.0,6.0,6.0,344.3876719993568,5.0,0.0,part_2,stop,300.0,300.0,3.0,,,,,,,,,blue,flipped triangle
0.0,7.0,3.0,1.0,5.0,0.0,0.0,5.0,0.0,part_2,stop,300.0,250.0,4.0,,,,,,,,,orange,circle
0.0,5.0,1.0,1.0,5.0,5.0,435.3064520000771,5.0,0.0,part_2,stop,350.0,250.0,3.0,,,,,,,,,yellow,diamond
0.0,2.0,2.0,0.0,5.0,5.0,551.2156570002844,5.0,0.0,part_2,go,300.0,250.0,1.0,,,,,,,,,gray,square
0.0,5.0,1.0,1.0,6.0,6.0,514.6517379998841,5.0,0.0,part_2,go,300.0,250.0,1.0,,,,,,,,,yellow,diamond
0.0,5.0,1.0,1.0,6.0,0.0,0.0,5.0,0.0,part_2,stop,300.0,250.0,4.0,,,,,,,,,yellow,diamond
0.0,6.0,2.0,1.0,6.0,6.0,590.9509409993916,5.0,0.0,part_2,go,300.0,300.0,1.0,,,,,,,,,blue,flipped triangle
0.0,3.0,3.0,0.0,6.0,6.0,327.5595760005672,5.0,0.0,part_2,go,300.0,300.0,1.0,,,,,,,,,magenta,triangle
0.0,8.0,4.0,1.0,6.0,6.0,346.1696140002459,5.0,0.0,part_2,stop,300.0,300.0,3.0,,,,,,,,,cyan,cross
0.0,2.0,2.0,0.0,6.0,6.0,674.5531590004248,5.0,0.0,part_2,go,300.0,250.0,1.0,,,,,,,,,gray,square
0.0,4.0,4.0,0.0,5.0,5.0,708.312840999497,5.0,0.0,part_2,go,300.0,250.0,1.0,,,,,,,,,green,I
0.0,5.0,1.0,1.0,5.0,5.0,424.4871110004169,5.0,0.0,part_2,stop,300.0,250.0,3.0,,,,,,,,,yellow,diamond
0.0,7.0,3.0,1.0,6.0,0.0,0.0,5.0,0.0,part_2,stop,250.0,250.0,4.0,,,,,,,,,orange,circle
0.0,2.0,2.0,0.0,6.0,6.0,504.60952700086636,5.0,0.0,part_2,go,250.0,300.0,1.0,,,,,,,,,gray,square
0.0,1.0,1.0,0.0,5.0,5.0,548.2834510003158,5.0,0.0,part_2,go,250.0,300.0,1.0,,,,,,,,,white,hexagon
0.0,1.0,1.0,0.0,6.0,6.0,664.5967519998521,5.0,0.0,part_2,go,250.0,300.0,1.0,,,,,,,,,white,hexagon
0.0,3.0,3.0,0.0,6.0,6.0,598.204951000298,5.0,0.0,part_2,go,250.0,300.0,1.0,,,,,,,,,magenta,triangle
0.0,5.0,1.0,1.0,6.0,0.0,0.0,5.0,0.0,part_2,stop,250.0,300.0,4.0,,,,,,,,,yellow,diamond
0.0,4.0,4.0,0.0,6.0,6.0,1036.235379999198,5.0,0.0,part_2,go,250.0,350.0,1.0,,,,,,,,,green,I
0.0,6.0,2.0,1.0,5.0,5.0,641.4010919997963,5.0,0.0,part_2,go,250.0,350.0,1.0,,,,,,,,,blue,flipped triangle
0.0,1.0,1.0,0.0,6.0,6.0,612.0461689988588,5.0,0.0,part_2,go,250.0,350.0,1.0,,,,,,,,,white,hexagon
0.0,1.0,1.0,0.0,5.0,5.0,307.0448849994136,5.0,0.0,part_2,go,250.0,350.0,1.0,,,,,,,,,white,hexagon
0.0,6.0,2.0,1.0,6.0,6.0,509.3428769996535,5.0,0.0,part_2,stop,250.0,350.0,3.0,,,,,,,,,blue,flipped triangle
0.0,2.0,2.0,0.0,6.0,6.0,643.5608989995671,5.0,0.0,part_2,go,250.0,300.0,1.0,,,,,,,,,gray,square
0.0,7.0,3.0,1.0,6.0,0.0,0.0,5.0,0.0,part_2,stop,250.0,300.0,4.0,,,,,,,,,orange,circle
0.0,5.0,1.0,1.0,6.0,0.0,0.0,5.0,0.0,part_2,stop,250.0,350.0,4.0,,,,,,,,,yellow,diamond
0.0,8.0,4.0,1.0,5.0,0.0,0.0,5.0,0.0,part_2,stop,250.0,400.0,4.0,,,,,,,,,cyan,cross
0.0,4.0,4.0,0.0,5.0,5.0,428.6514649993478,5.0,0.0,part_2,go,300.0,400.0,1.0,,,,,,,,,green,I
0.0,5.0,1.0,1.0,5.0,5.0,593.4486320002179,5.0,0.0,part_2,go,300.0,400.0,1.0,,,,,,,,,yellow,diamond
0.0,1.0,1.0,0.0,5.0,5.0,452.6091930001712,5.0,0.0,part_2,go,300.0,400.0,1.0,,,,,,,,,white,hexagon
0.0,7.0,3.0,1.0,5.0,0.0,0.0,5.0,0.0,part_2,stop,300.0,400.0,4.0,,,,,,,,,orange,circle
0.0,3.0,3.0,0.0,6.0,6.0,608.59795900069,5.0,0.0,part_2,go,350.0,400.0,1.0,,,,,,,,,magenta,triangle
0.0,3.0,3.0,0.0,5.0,5.0,581.6950609987543,5.0,0.0,part_2,go,350.0,400.0,1.0,,,,,,,,,magenta,triangle
0.0,5.0,1.0,1.0,6.0,6.0,350.2896989994042,5.0,0.0,part_2,stop,350.0,400.0,3.0,,,,,,,,,yellow,diamond
0.0,4.0,4.0,0.0,6.0,6.0,760.0101240004733,5.0,0.0,part_2,go,350.0,350.0,1.0,,,,,,,,,green,I
0.0,6.0,2.0,1.0,5.0,5.0,484.2350970011466,6.0,0.0,part_2,stop,350.0,350.0,3.0,,,,,,,,,blue,flipped triangle
0.0,8.0,4.0,1.0,5.0,5.0,467.8809899996849,6.0,0.0,part_2,stop,300.0,350.0,3.0,,,,,,,,,cyan,cross
0.0,1.0,1.0,0.0,5.0,5.0,486.7305099996883,6.0,0.0,part_2,go,250.0,350.0,1.0,,,,,,,,,white,hexagon
0.0,3.0,3.0,0.0,5.0,5.0,643.6636570015253,6.0,0.0,part_2,go,250.0,350.0,1.0,,,,,,,,,magenta,triangle
0.0,5.0,1.0,1.0,6.0,6.0,477.5898029984091,6.0,0.0,part_2,stop,250.0,350.0,3.0,,,,,,,,,yellow,diamond
0.0,6.0,2.0,1.0,5.0,0.0,0.0,6.0,0.0,part_2,stop,250.0,300.0,4.0,,,,,,,,,blue,flipped triangle
0.0,7.0,3.0,1.0,6.0,0.0,0.0,6.0,0.0,part_2,stop,300.0,300.0,4.0,,,,,,,,,orange,circle
0.0,1.0,1.0,0.0,5.0,5.0,455.5128710017015,6.0,0.0,part_2,go,300.0,350.0,1.0,,,,,,,,,white,hexagon
0.0,2.0,2.0,0.0,5.0,5.0,558.041891999892,6.0,0.0,part_2,go,300.0,350.0,1.0,,,,,,,,,gray,square
0.0,7.0,3.0,1.0,6.0,0.0,0.0,6.0,0.0,part_2,stop,300.0,350.0,4.0,,,,,,,,,orange,circle
0.0,3.0,3.0,0.0,5.0,5.0,600.2215220014477,6.0,0.0,part_2,go,300.0,400.0,1.0,,,,,,,,,magenta,triangle
0.0,1.0,1.0,0.0,5.0,5.0,564.0799630000402,6.0,0.0,part_2,go,300.0,400.0,1.0,,,,,,,,,white,hexagon
0.0,2.0,2.0,0.0,5.0,5.0,403.1976349997421,6.0,0.0,part_2,go,300.0,400.0,1.0,,,,,,,,,gray,square
0.0,4.0,4.0,0.0,6.0,6.0,629.1295449991594,6.0,0.0,part_2,go,300.0,400.0,1.0,,,,,,,,,green,I
0.0,5.0,1.0,1.0,6.0,0.0,0.0,6.0,0.0,part_2,stop,300.0,400.0,4.0,,,,,,,,,yellow,diamond
0.0,8.0,4.0,1.0,6.0,0.0,0.0,6.0,0.0,part_2,stop,300.0,450.0,4.0,,,,,,,,,cyan,cross
0.0,5.0,1.0,1.0,6.0,6.0,667.3577849996946,6.0,0.0,part_2,go,300.0,500.0,1.0,,,,,,,,,yellow,diamond
0.0,4.0,4.0,0.0,6.0,6.0,513.7889279994852,6.0,0.0,part_2,go,300.0,500.0,1.0,,,,,,,,,green,I
0.0,6.0,2.0,1.0,5.0,0.0,0.0,6.0,0.0,part_2,stop,300.0,500.0,4.0,,,,,,,,,blue,flipped triangle
0.0,7.0,3.0,1.0,6.0,0.0,0.0,6.0,0.0,part_2,stop,350.0,500.0,4.0,,,,,,,,,orange,circle
0.0,7.0,3.0,1.0,5.0,0.0,0.0,6.0,0.0,part_2,stop,350.0,550.0,4.0,,,,,,,,,orange,circle
0.0,1.0,1.0,0.0,5.0,5.0,631.6078580002795,6.0,0.0,part_2,go,400.0,550.0,1.0,,,,,,,,,white,hexagon
0.0,3.0,3.0,0.0,6.0,6.0,872.2796590009239,6.0,0.0,part_2,go,400.0,550.0,1.0,,,,,,,,,magenta,triangle
0.0,5.0,1.0,1.0,5.0,0.0,0.0,6.0,0.0,part_2,stop,400.0,550.0,4.0,,,,,,,,,yellow,diamond
0.0,3.0,3.0,0.0,5.0,5.0,602.1076520009956,6.0,0.0,part_2,go,450.0,550.0,1.0,,,,,,,,,magenta,triangle
0.0,8.0,4.0,1.0,6.0,6.0,982.0685899994714,6.0,0.0,part_2,go,450.0,550.0,1.0,,,,,,,,,cyan,cross
0.0,3.0,3.0,0.0,5.0,5.0,781.369934000395,6.0,0.0,part_2,go,450.0,550.0,1.0,,,,,,,,,magenta,triangle
0.0,5.0,1.0,1.0,6.0,6.0,585.9282030014583,6.0,0.0,part_2,stop,450.0,550.0,3.0,,,,,,,,,yellow,diamond
0.0,3.0,3.0,0.0,5.0,5.0,719.1777860007278,6.0,0.0,part_2,go,450.0,500.0,1.0,,,,,,,,,magenta,triangle
0.0,5.0,1.0,1.0,6.0,6.0,611.8758220000018,6.0,0.0,part_2,go,450.0,500.0,1.0,,,,,,,,,yellow,diamond
0.0,8.0,4.0,1.0,5.0,5.0,631.850347001091,6.0,0.0,part_2,stop,450.0,500.0,3.0,,,,,,,,,cyan,cross
0.0,7.0,3.0,1.0,5.0,0.0,0.0,6.0,0.0,part_2,stop,400.0,500.0,4.0,,,,,,,,,orange,circle
0.0,4.0,4.0,0.0,6.0,6.0,717.5830880005378,6.0,0.0,part_2,go,450.0,500.0,1.0,,,,,,,,,green,I
0.0,1.0,1.0,0.0,6.0,6.0,616.8622330005746,6.0,0.0,part_2,go,450.0,500.0,1.0,,,,,,,,,white,hexagon
0.0,1.0,1.0,0.0,5.0,5.0,611.1031440013903,6.0,0.0,part_2,go,450.0,500.0,1.0,,,,,,,,,white,hexagon
0.0,2.0,2.0,0.0,6.0,6.0,729.811700000937,6.0,0.0,part_2,go,450.0,500.0,1.0,,,,,,,,,gray,square
0.0,3.0,3.0,0.0,6.0,6.0,438.7729520003631,7.0,0.0,part_2,go,450.0,500.0,1.0,,,,,,,,,magenta,triangle
0.0,6.0,2.0,1.0,6.0,6.0,351.9552329998987,7.0,0.0,part_2,stop,450.0,500.0,3.0,,,,,,,,,blue,flipped triangle
0.0,8.0,4.0,1.0,6.0,0.0,0.0,7.0,0.0,part_2,stop,450.0,450.0,4.0,,,,,,,,,cyan,cross
0.0,6.0,2.0,1.0,6.0,6.0,588.3473840003717,7.0,0.0,part_2,go,450.0,500.0,1.0,,,,,,,,,blue,flipped triangle
0.0,2.0,2.0,0.0,5.0,5.0,697.5153389994375,7.0,0.0,part_2,go,450.0,500.0,1.0,,,,,,,,,gray,square
0.0,4.0,4.0,0.0,5.0,5.0,717.2050839999429,7.0,0.0,part_2,go,450.0,500.0,1.0,,,,,,,,,green,I
0.0,3.0,3.0,0.0,5.0,5.0,510.20717100072943,7.0,0.0,part_2,go,450.0,500.0,1.0,,,,,,,,,magenta,triangle
0.0,5.0,1.0,1.0,5.0,0.0,0.0,7.0,0.0,part_2,stop,450.0,500.0,4.0,,,,,,,,,yellow,diamond
0.0,3.0,3.0,0.0,5.0,5.0,600.7697450004343,7.0,0.0,part_2,go,500.0,500.0,1.0,,,,,,,,,magenta,triangle
0.0,7.0,3.0,1.0,5.0,5.0,395.9804240002995,7.0,0.0,part_2,stop,500.0,500.0,3.0,,,,,,,,,orange,circle
0.0,4.0,4.0,0.0,5.0,5.0,651.4029369991476,7.0,0.0,part_2,go,450.0,500.0,1.0,,,,,,,,,green,I
0.0,4.0,4.0,0.0,6.0,6.0,678.4324279997236,7.0,0.0,part_2,go,450.0,500.0,1.0,,,,,,,,,green,I
0.0,8.0,4.0,1.0,5.0,0.0,0.0,7.0,0.0,part_2,stop,450.0,500.0,4.0,,,,,,,,,cyan,cross
0.0,1.0,1.0,0.0,6.0,6.0,531.8779080007516,7.0,0.0,part_2,go,500.0,500.0,1.0,,,,,,,,,white,hexagon
0.0,2.0,2.0,0.0,5.0,5.0,810.0356809991354,7.0,0.0,part_2,go,500.0,500.0,1.0,,,,,,,,,gray,square
0.0,2.0,2.0,0.0,6.0,6.0,738.9909069988789,7.0,0.0,part_2,go,500.0,500.0,1.0,,,,,,,,,gray,square
0.0,3.0,3.0,0.0,5.0,5.0,527.1995540006174,7.0,0.0,part_2,go,500.0,500.0,1.0,,,,,,,,,magenta,triangle
0.0,8.0,4.0,1.0,5.0,0.0,0.0,7.0,0.0,part_2,stop,500.0,500.0,4.0,,,,,,,,,cyan,cross
0.0,8.0,4.0,1.0,6.0,6.0,595.8953629997268,7.0,0.0,part_2,go,550.0,500.0,1.0,,,,,,,,,cyan,cross
0.0,2.0,2.0,0.0,5.0,5.0,652.2326169997541,7.0,0.0,part_2,go,550.0,500.0,1.0,,,,,,,,,gray,square
0.0,4.0,4.0,0.0,5.0,5.0,652.2496890011098,7.0,0.0,part_2,go,550.0,500.0,1.0,,,,,,,,,green,I
0.0,5.0,1.0,1.0,5.0,5.0,474.5899800000188,7.0,0.0,part_2,stop,550.0,500.0,3.0,,,,,,,,,yellow,diamond
0.0,7.0,3.0,1.0,5.0,0.0,0.0,7.0,0.0,part_2,stop,500.0,500.0,4.0,,,,,,,,,orange,circle
0.0,3.0,3.0,0.0,6.0,6.0,355.6844180002372,7.0,0.0,part_2,go,550.0,500.0,1.0,,,,,,,,,magenta,triangle
0.0,7.0,3.0,1.0,5.0,5.0,686.6203869994933,7.0,0.0,part_2,stop,550.0,500.0,3.0,,,,,,,,,orange,circle
0.0,5.0,1.0,1.0,5.0,0.0,0.0,7.0,0.0,part_2,stop,500.0,500.0,4.0,,,,,,,,,yellow,diamond
0.0,8.0,4.0,1.0,6.0,0.0,0.0,7.0,0.0,part_2,stop,550.0,500.0,4.0,,,,,,,,,cyan,cross
0.0,3.0,3.0,0.0,5.0,5.0,521.4760470007604,7.0,0.0,part_2,go,550.0,550.0,1.0,,,,,,,,,magenta,triangle
0.0,7.0,3.0,1.0,6.0,6.0,643.4978050001519,7.0,0.0,part_2,go,550.0,550.0,1.0,,,,,,,,,orange,circle
0.0,3.0,3.0,0.0,6.0,6.0,359.9112030005926,7.0,0.0,part_2,go,550.0,550.0,1.0,,,,,,,,,magenta,triangle
0.0,8.0,4.0,1.0,6.0,6.0,604.060407000361,7.0,0.0,part_2,go,550.0,550.0,1.0,,,,,,,,,cyan,cross
0.0,2.0,2.0,0.0,6.0,6.0,787.2582529998908,7.0,0.0,part_2,go,550.0,550.0,1.0,,,,,,,,,gray,square
0.0,1.0,1.0,0.0,6.0,6.0,857.0761900009529,7.0,0.0,part_2,go,550.0,550.0,1.0,,,,,,,,,white,hexagon
0.0,2.0,2.0,0.0,6.0,6.0,548.4899160001078,7.0,0.0,part_2,go,550.0,550.0,1.0,,,,,,,,,gray,square
0.0,6.0,2.0,1.0,5.0,0.0,0.0,7.0,0.0,part_2,stop,550.0,550.0,4.0,,,,,,,,,blue,flipped triangle
0.0,1.0,1.0,0.0,5.0,5.0,765.8416909998778,7.0,0.0,part_2,go,600.0,550.0,1.0,,,,,,,,,white,hexagon
0.0,3.0,3.0,0.0,6.0,6.0,516.0086270007014,8.0,0.0,part_2,go,600.0,550.0,1.0,,,,,,,,,magenta,triangle
0.0,2.0,2.0,0.0,6.0,6.0,409.7737720003351,8.0,0.0,part_2,go,600.0,550.0,1.0,,,,,,,,,gray,square
0.0,7.0,3.0,1.0,6.0,6.0,827.7730909994716,8.0,0.0,part_2,go,600.0,550.0,1.0,,,,,,,,,orange,circle
0.0,5.0,1.0,1.0,5.0,0.0,0.0,8.0,0.0,part_2,stop,600.0,550.0,4.0,,,,,,,,,yellow,diamond
0.0,1.0,1.0,0.0,5.0,5.0,555.894070001159,8.0,0.0,part_2,go,650.0,550.0,1.0,,,,,,,,,white,hexagon
0.0,5.0,1.0,1.0,5.0,5.0,801.0355579990573,8.0,0.0,part_2,stop,650.0,550.0,3.0,,,,,,,,,yellow,diamond
0.0,2.0,2.0,0.0,6.0,6.0,653.4802969999873,8.0,0.0,part_2,go,600.0,550.0,1.0,,,,,,,,,gray,square
0.0,5.0,1.0,1.0,5.0,5.0,664.6189650000451,8.0,0.0,part_2,stop,600.0,550.0,3.0,,,,,,,,,yellow,diamond
0.0,6.0,2.0,1.0,5.0,5.0,687.5555449987587,8.0,0.0,part_2,stop,550.0,550.0,3.0,,,,,,,,,blue,flipped triangle
0.0,4.0,4.0,0.0,6.0,6.0,672.7245880010742,8.0,0.0,part_2,go,500.0,550.0,1.0,,,,,,,,,green,I
0.0,2.0,2.0,0.0,6.0,6.0,637.8555030005373,8.0,0.0,part_2,go,500.0,550.0,1.0,,,,,,,,,gray,square
0.0,8.0,4.0,1.0,5.0,5.0,935.8397819996752,8.0,0.0,part_2,go,500.0,550.0,1.0,,,,,,,,,cyan,cross
0.0,8.0,4.0,1.0,5.0,0.0,0.0,8.0,0.0,part_2,stop,500.0,550.0,4.0,,,,,,,,,cyan,cross
0.0,6.0,2.0,1.0,5.0,5.0,589.9303850001161,8.0,0.0,part_2,stop,550.0,550.0,3.0,,,,,,,,,blue,flipped triangle
0.0,1.0,1.0,0.0,5.0,5.0,821.0511399993266,8.0,0.0,part_2,go,500.0,550.0,1.0,,,,,,,,,white,hexagon
0.0,3.0,3.0,0.0,5.0,5.0,712.8089340003498,8.0,0.0,part_2,go,500.0,550.0,1.0,,,,,,,,,magenta,triangle
0.0,7.0,3.0,1.0,6.0,6.0,371.9562119986221,8.0,0.0,part_2,go,500.0,550.0,1.0,,,,,,,,,orange,circle
0.0,8.0,4.0,1.0,5.0,0.0,0.0,8.0,0.0,part_2,stop,500.0,550.0,4.0,,,,,,,,,cyan,cross
0.0,7.0,3.0,1.0,6.0,6.0,645.5464310001844,8.0,0.0,part_2,stop,550.0,550.0,3.0,,,,,,,,,orange,circle
0.0,7.0,3.0,1.0,6.0,0.0,0.0,8.0,0.0,part_2,stop,550.0,500.0,4.0,,,,,,,,,orange,circle
0.0,4.0,4.0,0.0,5.0,5.0,1146.3480219990745,8.0,0.0,part_2,go,550.0,550.0,1.0,,,,,,,,,green,I
0.0,4.0,4.0,0.0,6.0,6.0,766.6136219995678,8.0,0.0,part_2,go,550.0,550.0,1.0,,,,,,,,,green,I
0.0,1.0,1.0,0.0,5.0,5.0,1206.8802699996013,8.0,0.0,part_2,go,550.0,550.0,1.0,,,,,,,,,white,hexagon
0.0,2.0,2.0,0.0,6.0,6.0,512.630609999178,8.0,0.0,part_2,go,550.0,550.0,1.0,,,,,,,,,gray,square
0.0,5.0,1.0,1.0,5.0,5.0,430.1348539993341,8.0,0.0,part_2,stop,550.0,550.0,3.0,,,,,,,,,yellow,diamond
0.0,4.0,4.0,0.0,6.0,6.0,595.2748539984896,8.0,0.0,part_2,go,500.0,550.0,1.0,,,,,,,,,green,I
0.0,7.0,3.0,1.0,5.0,5.0,730.8770019990334,8.0,0.0,part_2,go,500.0,550.0,1.0,,,,,,,,,orange,circle
0.0,7.0,3.0,1.0,6.0,6.0,304.2127990011067,8.0,0.0,part_2,go,500.0,550.0,1.0,,,,,,,,,orange,circle
0.0,6.0,2.0,1.0,6.0,6.0,372.1221689993399,8.0,0.0,part_2,stop,500.0,550.0,3.0,,,,,,,,,blue,flipped triangle
0.0,2.0,2.0,0.0,5.0,5.0,635.6453009993857,8.0,0.0,part_2,go,500.0,500.0,1.0,,,,,,,,,gray,square
0.0,3.0,3.0,0.0,6.0,6.0,524.0971840012207,8.0,0.0,part_2,go,500.0,500.0,1.0,,,,,,,,,magenta,triangle
0.0,5.0,1.0,1.0,6.0,6.0,559.8270739992586,8.0,0.0,part_2,stop,500.0,500.0,3.0,,,,,,,,,yellow,diamond
0.0,8.0,4.0,1.0,5.0,0.0,0.0,8.0,0.0,part_2,stop,500.0,450.0,4.0,,,,,,,,,cyan,cross
0.0,3.0,3.0,0.0,6.0,6.0,591.437623001184,8.0,0.0,part_2,go,550.0,450.0,1.0,,,,,,,,,magenta,triangle
0.0,8.0,4.0,1.0,6.0,6.0,796.7539639994357,8.0,0.0,part_2,go,550.0,450.0,1.0,,,,,,,,,cyan,cross
0.0,3.0,3.0,0.0,6.0,0.0,0.0,8.0,0.0,part_2,go,550.0,450.0,5.0,,,,,,,,,magenta,triangle
0.0,5.0,1.0,1.0,7.0,3.0,2049.560923000172,1.0,1.0,part_3,go,0.0,0.0,0.0,88.0,2.0,220.0,264.0,88.0,176.0,44.0,132.0,yellow,diamond
0.0,6.0,2.0,1.0,7.0,1.0,3659.4693860006378,1.0,1.0,part_3,go,0.0,0.0,0.0,196.0,4.0,196.0,98.0,245.0,294.0,49.0,147.0,blue,flipped triangle
0.0,8.0,4.0,1.0,7.0,5.0,3053.0816500013316,1.0,1.0,part_3,go,0.0,0.0,0.0,117.0,3.0,156.0,78.0,195.0,234.0,117.0,39.0,cyan,cross
0.0,6.0,2.0,1.0,7.0,4.0,2774.6149280010286,1.0,1.0,part_3,go,0.0,0.0,0.0,136.0,4.0,204.0,102.0,170.0,136.0,34.0,68.0,blue,flipped triangle
0.0,1.0,1.0,0.0,7.0,5.0,2106.1491380005464,1.0,1.0,part_3,go,0.0,0.0,0.0,132.0,3.0,88.0,220.0,44.0,176.0,132.0,264.0,white,hexagon
0.0,8.0,4.0,1.0,7.0,2.0,3787.696348999816,1.0,1.0,part_3,go,0.0,0.0,0.0,204.0,6.0,68.0,204.0,136.0,102.0,34.0,170.0,cyan,cross
0.0,6.0,2.0,1.0,7.0,4.0,2348.7188999988575,1.0,1.0,part_3,go,0.0,0.0,0.0,195.0,5.0,117.0,39.0,156.0,195.0,234.0,78.0,blue,flipped triangle
0.0,3.0,3.0,0.0,7.0,1.0,2344.1158019995783,1.0,1.0,part_3,go,0.0,0.0,0.0,216.0,4.0,216.0,324.0,108.0,270.0,54.0,162.0,magenta,triangle
0.0,5.0,1.0,1.0,7.0,2.0,2626.3134609998815,1.0,1.0,part_3,go,0.0,0.0,0.0,162.0,3.0,108.0,162.0,216.0,54.0,324.0,270.0,yellow,diamond
0.0,5.0,1.0,1.0,7.0,6.0,2446.8762110009266,1.0,1.0,part_3,go,0.0,0.0,0.0,102.0,3.0,34.0,68.0,136.0,170.0,204.0,102.0,yellow,diamond
0.0,1.0,1.0,0.0,7.0,2.0,2331.6134130000137,1.0,1.0,part_3,go,0.0,0.0,0.0,162.0,3.0,216.0,162.0,108.0,270.0,324.0,54.0,white,hexagon
0.0,2.0,2.0,0.0,7.0,1.0,2268.9275970005842,1.0,1.0,part_3,go,0.0,0.0,0.0,147.0,3.0,147.0,245.0,294.0,98.0,49.0,196.0,gray,square
0.0,3.0,3.0,0.0,7.0,4.0,2911.5787869995984,1.0,1.0,part_3,go,0.0,0.0,0.0,195.0,5.0,39.0,117.0,156.0,195.0,234.0,78.0,magenta,triangle
0.0,8.0,4.0,1.0,7.0,3.0,2230.084648999764,1.0,1.0,part_3,go,0.0,0.0,0.0,162.0,3.0,270.0,324.0,162.0,216.0,108.0,54.0,cyan,cross
0.0,4.0,4.0,0.0,7.0,6.0,1611.122565000187,1.0,1.0,part_3,go,0.0,0.0,0.0,234.0,6.0,78.0,39.0,195.0,117.0,156.0,234.0,green,I
0.0,4.0,4.0,0.0,7.0,2.0,1153.5861510001268,1.0,1.0,part_3,go,0.0,0.0,0.0,294.0,6.0,245.0,294.0,98.0,147.0,196.0,49.0,green,I
0.0,4.0,4.0,0.0,7.0,1.0,1953.5602590003691,1.0,1.0,part_3,go,0.0,0.0,0.0,234.0,6.0,234.0,78.0,156.0,117.0,195.0,39.0,green,I
0.0,6.0,2.0,1.0,7.0,2.0,1887.2466720004013,1.0,1.0,part_3,go,0.0,0.0,0.0,162.0,3.0,54.0,162.0,216.0,270.0,108.0,324.0,blue,flipped triangle
0.0,3.0,3.0,0.0,7.0,4.0,2356.903111000065,1.0,1.0,part_3,go,0.0,0.0,0.0,170.0,5.0,34.0,204.0,102.0,170.0,68.0,136.0,magenta,triangle
0.0,1.0,1.0,0.0,7.0,3.0,2092.9909589995077,1.0,1.0,part_3,go,0.0,0.0,0.0,216.0,4.0,270.0,162.0,216.0,54.0,324.0,108.0,white,hexagon
0.0,7.0,3.0,1.0,7.0,5.0,1154.6173370006727,2.0,1.0,part_3,go,0.0,0.0,0.0,264.0,6.0,132.0,176.0,220.0,44.0,264.0,88.0,orange,circle
0.0,3.0,3.0,0.0,7.0,3.0,1583.3517619994382,2.0,1.0,part_3,go,0.0,0.0,0.0,108.0,2.0,270.0,324.0,108.0,216.0,54.0,162.0,magenta,triangle
0.0,7.0,3.0,1.0,7.0,5.0,1541.3027600006901,2.0,1.0,part_3,go,0.0,0.0,0.0,108.0,2.0,270.0,54.0,324.0,162.0,108.0,216.0,orange,circle
0.0,1.0,1.0,0.0,7.0,4.0,1596.6906890007522,2.0,1.0,part_3,go,0.0,0.0,0.0,196.0,4.0,49.0,294.0,245.0,196.0,147.0,98.0,white,hexagon
0.0,7.0,3.0,1.0,7.0,6.0,2090.648618999694,2.0,1.0,part_3,go,0.0,0.0,0.0,117.0,3.0,39.0,234.0,195.0,156.0,78.0,117.0,orange,circle
0.0,8.0,4.0,1.0,7.0,3.0,1659.0087600015977,2.0,1.0,part_3,go,0.0,0.0,0.0,132.0,3.0,220.0,88.0,132.0,176.0,44.0,264.0,cyan,cross
0.0,4.0,4.0,0.0,7.0,1.0,2113.535843000136,2.0,1.0,part_3,go,0.0,0.0,0.0,132.0,3.0,132.0,264.0,88.0,220.0,176.0,44.0,green,I
0.0,7.0,3.0,1.0,7.0,4.0,1698.1192139992345,2.0,1.0,part_3,go,0.0,0.0,0.0,102.0,3.0,68.0,136.0,170.0,102.0,34.0,204.0,orange,circle
0.0,5.0,1.0,1.0,7.0,2.0,1558.0979930000467,2.0,1.0,part_3,go,0.0,0.0,0.0,117.0,3.0,195.0,117.0,78.0,39.0,156.0,234.0,yellow,diamond
0.0,4.0,4.0,0.0,7.0,1.0,2099.0125619991886,2.0,1.0,part_3,go,0.0,0.0,0.0,147.0,3.0,147.0,294.0,49.0,98.0,245.0,196.0,green,I
0.0,1.0,1.0,0.0,7.0,2.0,1201.4579079987016,2.0,1.0,part_3,go,0.0,0.0,0.0,294.0,6.0,49.0,294.0,98.0,147.0,245.0,196.0,white,hexagon
0.0,6.0,2.0,1.0,7.0,4.0,1927.659247001429,2.0,1.0,part_3,go,0.0,0.0,0.0,88.0,2.0,264.0,132.0,176.0,88.0,44.0,220.0,blue,flipped triangle
0.0,1.0,1.0,0.0,7.0,2.0,1098.9162159985426,2.0,1.0,part_3,go,0.0,0.0,0.0,78.0,2.0,117.0,78.0,39.0,234.0,195.0,156.0,white,hexagon
0.0,3.0,3.0,0.0,7.0,1.0,1332.1607580001,2.0,1.0,part_3,go,0.0,0.0,0.0,176.0,4.0,176.0,264.0,88.0,220.0,132.0,44.0,magenta,triangle
0.0,7.0,3.0,1.0,7.0,5.0,1565.419878999819,2.0,1.0,part_3,go,0.0,0.0,0.0,98.0,2.0,294.0,196.0,49.0,245.0,98.0,147.0,orange,circle
0.0,8.0,4.0,1.0,7.0,2.0,1282.5385319993077,2.0,1.0,part_3,go,0.0,0.0,0.0,245.0,5.0,196.0,245.0,49.0,147.0,294.0,98.0,cyan,cross
0.0,5.0,1.0,1.0,7.0,5.0,1822.5265109995237,2.0,1.0,part_3,go,0.0,0.0,0.0,162.0,3.0,270.0,108.0,54.0,216.0,162.0,324.0,yellow,diamond
0.0,8.0,4.0,1.0,7.0,1.0,2274.7931180001615,2.0,1.0,part_3,go,0.0,0.0,0.0,216.0,4.0,216.0,270.0,162.0,108.0,54.0,324.0,cyan,cross
0.0,1.0,1.0,0.0,7.0,4.0,1759.1686129999289,2.0,1.0,part_3,go,0.0,0.0,0.0,220.0,5.0,132.0,88.0,44.0,220.0,264.0,176.0,white,hexagon
0.0,2.0,2.0,0.0,7.0,2.0,1631.877251998958,2.0,1.0,part_3,go,0.0,0.0,0.0,195.0,5.0,117.0,195.0,39.0,78.0,156.0,234.0,gray,square
0.0,7.0,3.0,1.0,7.0,2.0,1407.1124370002508,3.0,1.0,part_3,go,0.0,0.0,0.0,102.0,3.0,68.0,102.0,34.0,204.0,136.0,170.0,orange,circle
0.0,1.0,1.0,0.0,7.0,4.0,1032.0772009999928,3.0,1.0,part_3,go,0.0,0.0,0.0,136.0,4.0,34.0,204.0,170.0,136.0,102.0,68.0,white,hexagon
0.0,2.0,2.0,0.0,7.0,5.0,961.8753920003657,3.0,1.0,part_3,go,0.0,0.0,0.0,136.0,4.0,204.0,68.0,34.0,102.0,136.0,170.0,gray,square
0.0,7.0,3.0,1.0,7.0,3.0,2066.1613020001823,3.0,1.0,part_3,go,0.0,0.0,0.0,147.0,3.0,98.0,49.0,147.0,196.0,294.0,245.0,orange,circle
0.0,5.0,1.0,1.0,7.0,2.0,1690.0743099995452,3.0,1.0,part_3,go,0.0,0.0,0.0,204.0,6.0,170.0,204.0,102.0,136.0,34.0,68.0,yellow,diamond
0.0,2.0,2.0,0.0,7.0,1.0,1202.8592189999472,3.0,1.0,part_3,go,0.0,0.0,0.0,162.0,3.0,162.0,216.0,54.0,324.0,270.0,108.0,gray,square
0.0,7.0,3.0,1.0,7.0,5.0,2102.199977000055,3.0,1.0,part_3,go,0.0,0.0,0.0,39.0,1.0,234.0,156.0,78.0,117.0,39.0,195.0,orange,circle
0.0,3.0,3.0,0.0,7.0,3.0,1719.6784169991588,3.0,1.0,part_3,go,0.0,0.0,0.0,68.0,2.0,204.0,170.0,68.0,136.0,34.0,102.0,magenta,triangle
0.0,1.0,1.0,0.0,7.0,5.0,3240.4908509997767,3.0,1.0,part_3,go,0.0,0.0,0.0,156.0,4.0,117.0,78.0,234.0,195.0,156.0,39.0,white,hexagon
0.0,2.0,2.0,0.0,7.0,1.0,2087.4700719996326,3.0,1.0,part_3,go,0.0,0.0,0.0,102.0,3.0,102.0,170.0,204.0,136.0,68.0,34.0,gray,square
0.0,4.0,4.0,0.0,7.0,5.0,963.6213420017156,3.0,1.0,part_3,go,0.0,0.0,0.0,136.0,4.0,102.0,68.0,170.0,204.0,136.0,34.0,green,I
0.0,3.0,3.0,0.0,7.0,2.0,1801.521309000236,3.0,1.0,part_3,go,0.0,0.0,0.0,117.0,3.0,39.0,117.0,195.0,156.0,234.0,78.0,magenta,triangle
0.0,2.0,2.0,0.0,7.0,2.0,2890.3153559986094,3.0,1.0,part_3,go,0.0,0.0,0.0,44.0,1.0,88.0,44.0,132.0,220.0,264.0,176.0,gray,square
0.0,8.0,4.0,1.0,7.0,5.0,2852.0506830009253,3.0,1.0,part_3,go,0.0,0.0,0.0,170.0,5.0,136.0,102.0,68.0,204.0,170.0,34.0,cyan,cross
0.0,5.0,1.0,1.0,7.0,2.0,2066.2982029989507,3.0,1.0,part_3,go,0.0,0.0,0.0,196.0,4.0,49.0,196.0,294.0,147.0,245.0,98.0,yellow,diamond
0.0,6.0,2.0,1.0,7.0,2.0,2215.5142379997415,3.0,1.0,part_3,go,0.0,0.0,0.0,147.0,3.0,294.0,147.0,196.0,245.0,49.0,98.0,blue,flipped triangle
0.0,3.0,3.0,0.0,7.0,2.0,1211.6691170012928,3.0,1.0,part_3,go,0.0,0.0,0.0,245.0,5.0,147.0,245.0,98.0,49.0,294.0,196.0,magenta,triangle
0.0,2.0,2.0,0.0,7.0,5.0,1064.5967410000594,3.0,1.0,part_3,go,0.0,0.0,0.0,294.0,6.0,147.0,196.0,49.0,245.0,294.0,98.0,gray,square
0.0,3.0,3.0,0.0,7.0,1.0,1169.080697998652,3.0,1.0,part_3,go,0.0,0.0,0.0,264.0,6.0,264.0,132.0,88.0,176.0,44.0,220.0,magenta,triangle
0.0,6.0,2.0,1.0,7.0,4.0,2544.2980760017235,3.0,1.0,part_3,go,0.0,0.0,0.0,204.0,6.0,68.0,170.0,136.0,204.0,34.0,102.0,blue,flipped triangle
0.0,8.0,4.0,1.0,7.0,3.0,2065.8966999999393,4.0,1.0,part_3,go,0.0,0.0,0.0,234.0,6.0,195.0,156.0,234.0,39.0,117.0,78.0,cyan,cross
0.0,5.0,1.0,1.0,7.0,6.0,1949.9904590011283,4.0,1.0,part_3,go,0.0,0.0,0.0,245.0,5.0,49.0,294.0,98.0,196.0,147.0,245.0,yellow,diamond
0.0,8.0,4.0,1.0,7.0,2.0,1892.112575998908,4.0,1.0,part_3,go,0.0,0.0,0.0,294.0,6.0,49.0,294.0,98.0,245.0,147.0,196.0,cyan,cross
0.0,4.0,4.0,0.0,7.0,5.0,2031.4687539994338,4.0,1.0,part_3,go,0.0,0.0,0.0,270.0,5.0,162.0,216.0,54.0,108.0,270.0,324.0,green,I
0.0,6.0,2.0,1.0,7.0,1.0,1438.271689999965,4.0,1.0,part_3,go,0.0,0.0,0.0,117.0,3.0,117.0,39.0,234.0,78.0,156.0,195.0,blue,flipped triangle
0.0,4.0,4.0,0.0,7.0,4.0,1793.30497599949,4.0,1.0,part_3,go,0.0,0.0,0.0,204.0,6.0,102.0,136.0,34.0,204.0,170.0,68.0,green,I
0.0,2.0,2.0,0.0,7.0,3.0,2437.779589999991,4.0,1.0,part_3,go,0.0,0.0,0.0,324.0,6.0,216.0,162.0,324.0,270.0,54.0,108.0,gray,square
0.0,8.0,4.0,1.0,7.0,1.0,2593.777615000363,4.0,1.0,part_3,go,0.0,0.0,0.0,220.0,5.0,220.0,88.0,264.0,176.0,132.0,44.0,cyan,cross
0.0,3.0,3.0,0.0,7.0,5.0,1543.4992390000843,4.0,1.0,part_3,go,0.0,0.0,0.0,294.0,6.0,196.0,147.0,49.0,98.0,294.0,245.0,magenta,triangle
0.0,4.0,4.0,0.0,7.0,1.0,2121.6342650004663,4.0,1.0,part_3,go,0.0,0.0,0.0,324.0,6.0,324.0,216.0,162.0,108.0,54.0,270.0,green,I
0.0,2.0,2.0,0.0,7.0,2.0,2553.125637999983,4.0,1.0,part_3,go,0.0,0.0,0.0,264.0,6.0,176.0,264.0,220.0,132.0,88.0,44.0,gray,square
0.0,6.0,2.0,1.0,7.0,3.0,2691.984279999815,4.0,1.0,part_3,go,0.0,0.0,0.0,264.0,6.0,132.0,176.0,264.0,88.0,220.0,44.0,blue,flipped triangle
0.0,7.0,3.0,1.0,7.0,6.0,2018.9513490004174,4.0,1.0,part_3,go,0.0,0.0,0.0,264.0,6.0,44.0,220.0,88.0,176.0,132.0,264.0,orange,circle
0.0,2.0,2.0,0.0,7.0,2.0,1889.835898000456,4.0,1.0,part_3,go,0.0,0.0,0.0,234.0,6.0,195.0,234.0,156.0,78.0,117.0,39.0,gray,square
0.0,6.0,2.0,1.0,7.0,6.0,1611.1715869992622,4.0,1.0,part_3,go,0.0,0.0,0.0,324.0,6.0,216.0,270.0,54.0,108.0,162.0,324.0,blue,flipped triangle
0.0,1.0,1.0,0.0,7.0,6.0,2501.2495890005084,4.0,1.0,part_3,go,0.0,0.0,0.0,204.0,6.0,102.0,136.0,170.0,68.0,34.0,204.0,white,hexagon
0.0,7.0,3.0,1.0,7.0,4.0,1292.2214909995091,4.0,1.0,part_3,go,0.0,0.0,0.0,324.0,6.0,162.0,270.0,54.0,324.0,108.0,216.0,orange,circle
0.0,4.0,4.0,0.0,7.0,5.0,1953.5675500010257,4.0,1.0,part_3,go,0.0,0.0,0.0,220.0,5.0,132.0,44.0,176.0,264.0,220.0,88.0,green,I
0.0,5.0,1.0,1.0,7.0,3.0,1985.5956200008225,4.0,1.0,part_3,go,0.0,0.0,0.0,176.0,4.0,44.0,88.0,176.0,220.0,132.0,264.0,yellow,diamond
0.0,5.0,1.0,1.0,7.0,1.0,1648.0589080001664,4.0,1.0,part_3,go,0.0,0.0,0.0,156.0,4.0,156.0,117.0,78.0,195.0,234.0,39.0,yellow,diamond
