raw_reward_magnitude,stim_reward,stepwise_reward_magnitude,paired_with_stopping,stim_location,response,reaction_time,block,num_trial_presentations,which_phase,stop_signal_trial_type,left_SSD,right_SSD,accuracy,chosen_bidding_amount,chosen_bidding_level,possible_bid_1,possible_bid_2,possible_bid_3,possible_bid_4,possible_bid_5,possible_bid_6,color_text,shape_text
0.0,1.0,0.0,0.0,2.0,2.0,377.3614070014446,1.0,1.0,phase_1,,,,,,,,,,,,,orange,I
31.0,5.0,1.0,1.0,4.0,4.0,305.3577399987262,1.0,1.0,phase_1,,,,,,,,,,,,,yellow,square
40.0,5.0,1.0,1.0,3.0,3.0,264.3713470024522,1.0,1.0,phase_1,,,,,,,,,,,,,yellow,square
45.0,1.0,1.0,0.0,4.0,4.0,349.3279440008336,1.0,1.0,phase_1,,,,,,,,,,,,,orange,I
97.0,6.0,2.0,1.0,4.0,4.0,320.4131999991659,1.0,1.0,phase_1,,,,,,,,,,,,,cyan,cross
382.0,8.0,4.0,1.0,1.0,1.0,479.4293679988186,1.0,1.0,phase_1,,,,,,,,,,,,,magenta,flipped triangle
209.0,3.0,3.0,0.0,3.0,3.0,311.8998009995266,1.0,1.0,phase_1,,,,,,,,,,,,,green,diamond
0.0,7.0,0.0,1.0,2.0,2.0,363.2121429982362,1.0,1.0,phase_1,,,,,,,,,,,,,white,hexagon
45.0,5.0,1.0,1.0,1.0,1.0,288.9061469977605,1.0,1.0,phase_1,,,,,,,,,,,,,yellow,square
176.0,3.0,3.0,0.0,2.0,2.0,389.1578250004386,1.0,1.0,phase_1,,,,,,,,,,,,,green,diamond
0.0,8.0,0.0,1.0,4.0,4.0,305.2557189985236,1.0,1.0,phase_1,,,,,,,,,,,,,magenta,flipped triangle
107.0,6.0,2.0,1.0,4.0,4.0,322.1794239980227,1.0,1.0,phase_1,,,,,,,,,,,,,cyan,cross
0.0,5.0,0.0,1.0,2.0,2.0,298.8111859995115,1.0,1.0,phase_1,,,,,,,,,,,,,yellow,square
91.0,6.0,2.0,1.0,1.0,1.0,274.714982999285,1.0,1.0,phase_1,,,,,,,,,,,,,cyan,cross
80.0,2.0,2.0,0.0,1.0,1.0,272.4124740016123,1.0,1.0,phase_1,,,,,,,,,,,,,blue,triangle
221.0,7.0,3.0,1.0,1.0,1.0,290.5748439989111,1.0,1.0,phase_1,,,,,,,,,,,,,white,hexagon
110.0,6.0,2.0,1.0,3.0,3.0,252.02777700178558,1.0,1.0,phase_1,,,,,,,,,,,,,cyan,cross
212.0,7.0,3.0,1.0,2.0,2.0,286.6697190002014,1.0,1.0,phase_1,,,,,,,,,,,,,white,hexagon
0.0,7.0,0.0,1.0,4.0,4.0,317.7183710031386,1.0,1.0,phase_1,,,,,,,,,,,,,white,hexagon
180.0,7.0,3.0,1.0,3.0,3.0,318.9917330018943,1.0,1.0,phase_1,,,,,,,,,,,,,white,hexagon
122.0,2.0,2.0,0.0,3.0,3.0,303.4352430004219,1.0,1.0,phase_1,,,,,,,,,,,,,blue,triangle
37.0,1.0,1.0,0.0,3.0,3.0,328.9532519993372,1.0,1.0,phase_1,,,,,,,,,,,,,orange,I
194.0,7.0,3.0,1.0,1.0,1.0,269.5912960007263,1.0,1.0,phase_1,,,,,,,,,,,,,white,hexagon
182.0,3.0,3.0,0.0,4.0,4.0,331.4870399990468,1.0,1.0,phase_1,,,,,,,,,,,,,green,diamond
382.0,4.0,4.0,0.0,3.0,3.0,327.5475839982391,1.0,1.0,phase_1,,,,,,,,,,,,,gray,circle
377.0,8.0,4.0,1.0,4.0,4.0,404.262469997775,1.0,1.0,phase_1,,,,,,,,,,,,,magenta,flipped triangle
98.0,6.0,2.0,1.0,3.0,3.0,301.0192799993092,1.0,1.0,phase_1,,,,,,,,,,,,,cyan,cross
0.0,3.0,0.0,0.0,2.0,2.0,293.7879180026357,1.0,1.0,phase_1,,,,,,,,,,,,,green,diamond
400.0,4.0,4.0,0.0,4.0,4.0,279.5022430000244,1.0,1.0,phase_1,,,,,,,,,,,,,gray,circle
79.0,6.0,2.0,1.0,1.0,1.0,284.5081339983153,1.0,1.0,phase_1,,,,,,,,,,,,,cyan,cross
0.0,1.0,0.0,0.0,2.0,2.0,300.8391319999646,1.0,1.0,phase_1,,,,,,,,,,,,,orange,I
0.0,1.0,0.0,0.0,2.0,2.0,308.6501379984838,1.0,1.0,phase_1,,,,,,,,,,,,,orange,I
409.0,8.0,4.0,1.0,1.0,1.0,288.7031209975248,1.0,1.0,phase_1,,,,,,,,,,,,,magenta,flipped triangle
378.0,4.0,4.0,0.0,2.0,2.0,268.5799619976023,1.0,1.0,phase_1,,,,,,,,,,,,,gray,circle
0.0,6.0,0.0,1.0,4.0,4.0,324.4387380000262,1.0,1.0,phase_1,,,,,,,,,,,,,cyan,cross
411.0,8.0,4.0,1.0,3.0,3.0,389.9264780011435,1.0,1.0,phase_1,,,,,,,,,,,,,magenta,flipped triangle
72.0,1.0,1.0,0.0,1.0,1.0,276.985931002855,1.0,1.0,phase_1,,,,,,,,,,,,,orange,I
209.0,7.0,3.0,1.0,3.0,3.0,400.8583569993789,1.0,1.0,phase_1,,,,,,,,,,,,,white,hexagon
389.0,8.0,4.0,1.0,1.0,1.0,319.8911740000767,1.0,1.0,phase_1,,,,,,,,,,,,,magenta,flipped triangle
406.0,4.0,4.0,0.0,4.0,4.0,341.1676059986348,1.0,1.0,phase_1,,,,,,,,,,,,,gray,circle
49.0,1.0,1.0,0.0,3.0,3.0,434.3934600001375,1.0,1.0,phase_1,,,,,,,,,,,,,orange,I
200.0,7.0,3.0,1.0,2.0,2.0,388.0250940019323,1.0,1.0,phase_1,,,,,,,,,,,,,white,hexagon
378.0,8.0,4.0,1.0,1.0,1.0,280.2842370001599,1.0,1.0,phase_1,,,,,,,,,,,,,magenta,flipped triangle
0.0,3.0,0.0,0.0,3.0,3.0,280.1179310008592,1.0,1.0,phase_1,,,,,,,,,,,,,green,diamond
415.0,8.0,4.0,1.0,3.0,3.0,508.93162799911806,1.0,1.0,phase_1,,,,,,,,,,,,,magenta,flipped triangle
395.0,4.0,4.0,0.0,2.0,2.0,370.9091829987301,1.0,1.0,phase_1,,,,,,,,,,,,,gray,circle
83.0,6.0,2.0,1.0,1.0,1.0,272.5484840011631,1.0,1.0,phase_1,,,,,,,,,,,,,cyan,cross
29.0,5.0,1.0,1.0,1.0,1.0,285.2688999992097,1.0,1.0,phase_1,,,,,,,,,,,,,yellow,square
422.0,4.0,4.0,0.0,1.0,1.0,305.2612890023738,1.0,1.0,phase_1,,,,,,,,,,,,,gray,circle
75.0,2.0,2.0,0.0,2.0,2.0,316.3192399988475,1.0,1.0,phase_1,,,,,,,,,,,,,blue,triangle
415.0,4.0,4.0,0.0,3.0,3.0,312.5770109982113,1.0,1.0,phase_1,,,,,,,,,,,,,gray,circle
212.0,3.0,3.0,0.0,1.0,1.0,253.3783049984777,1.0,1.0,phase_1,,,,,,,,,,,,,green,diamond
76.0,6.0,2.0,1.0,3.0,3.0,302.932705002604,1.0,1.0,phase_1,,,,,,,,,,,,,cyan,cross
0.0,3.0,0.0,0.0,2.0,2.0,295.5913740006508,1.0,1.0,phase_1,,,,,,,,,,,,,green,diamond
394.0,4.0,4.0,0.0,1.0,1.0,259.3089649999456,1.0,1.0,phase_1,,,,,,,,,,,,,gray,circle
89.0,6.0,2.0,1.0,4.0,4.0,272.5541389991122,1.0,1.0,phase_1,,,,,,,,,,,,,cyan,cross
106.0,2.0,2.0,0.0,2.0,2.0,284.334375999606,1.0,1.0,phase_1,,,,,,,,,,,,,blue,triangle
414.0,8.0,4.0,1.0,2.0,2.0,324.8056159973203,1.0,1.0,phase_1,,,,,,,,,,,,,magenta,flipped triangle
67.0,5.0,1.0,1.0,1.0,1.0,253.2587700006843,1.0,1.0,phase_1,,,,,,,,,,,,,yellow,square
414.0,8.0,4.0,1.0,3.0,3.0,277.6799139974173,1.0,1.0,phase_1,,,,,,,,,,,,,magenta,flipped triangle
384.0,8.0,4.0,1.0,2.0,2.0,321.1019650007074,1.0,1.0,phase_1,,,,,,,,,,,,,magenta,flipped triangle
43.0,1.0,1.0,0.0,4.0,4.0,341.6644659992016,1.0,1.0,phase_1,,,,,,,,,,,,,orange,I
198.0,7.0,3.0,1.0,3.0,3.0,323.2492000024649,1.0,1.0,phase_1,,,,,,,,,,,,,white,hexagon
405.0,4.0,4.0,0.0,3.0,3.0,295.3430139968986,1.0,1.0,phase_1,,,,,,,,,,,,,gray,circle
385.0,8.0,4.0,1.0,2.0,2.0,240.0744049991772,1.0,1.0,phase_1,,,,,,,,,,,,,magenta,flipped triangle
44.0,5.0,1.0,1.0,1.0,1.0,275.8157390017004,1.0,1.0,phase_1,,,,,,,,,,,,,yellow,square
0.0,8.0,0.0,1.0,4.0,4.0,297.3695620021317,1.0,1.0,phase_1,,,,,,,,,,,,,magenta,flipped triangle
0.0,2.0,0.0,0.0,2.0,2.0,284.1972010028257,1.0,1.0,phase_1,,,,,,,,,,,,,blue,triangle
0.0,6.0,0.0,1.0,1.0,1.0,281.9867719990725,1.0,1.0,phase_1,,,,,,,,,,,,,cyan,cross
26.0,1.0,1.0,0.0,1.0,1.0,295.4514229968481,1.0,1.0,phase_1,,,,,,,,,,,,,orange,I
421.0,4.0,4.0,0.0,3.0,3.0,296.7368229983549,1.0,1.0,phase_1,,,,,,,,,,,,,gray,circle
71.0,1.0,1.0,0.0,2.0,2.0,321.5836029994534,1.0,1.0,phase_1,,,,,,,,,,,,,orange,I
0.0,7.0,0.0,1.0,1.0,1.0,280.6763050029985,1.0,1.0,phase_1,,,,,,,,,,,,,white,hexagon
26.0,5.0,1.0,1.0,1.0,1.0,293.2420030010689,1.0,1.0,phase_1,,,,,,,,,,,,,yellow,square
177.0,3.0,3.0,0.0,2.0,2.0,267.9102229994896,1.0,1.0,phase_1,,,,,,,,,,,,,green,diamond
214.0,3.0,3.0,0.0,2.0,2.0,307.3480220009514,1.0,1.0,phase_1,,,,,,,,,,,,,green,diamond
85.0,6.0,2.0,1.0,3.0,3.0,291.3134830014314,1.0,1.0,phase_1,,,,,,,,,,,,,cyan,cross
386.0,8.0,4.0,1.0,1.0,1.0,278.6093269969569,1.0,1.0,phase_1,,,,,,,,,,,,,magenta,flipped triangle
122.0,2.0,2.0,0.0,2.0,2.0,238.801383999089,1.0,1.0,phase_1,,,,,,,,,,,,,blue,triangle
208.0,7.0,3.0,1.0,4.0,4.0,244.9110039997322,1.0,1.0,phase_1,,,,,,,,,,,,,white,hexagon
210.0,3.0,3.0,0.0,2.0,2.0,286.1181039988878,1.0,1.0,phase_1,,,,,,,,,,,,,green,diamond
65.0,5.0,1.0,1.0,2.0,2.0,359.2505939996044,1.0,1.0,phase_1,,,,,,,,,,,,,yellow,square
176.0,7.0,3.0,1.0,1.0,1.0,260.7634850028262,1.0,1.0,phase_1,,,,,,,,,,,,,white,hexagon
209.0,3.0,3.0,0.0,1.0,1.0,248.649019998993,1.0,1.0,phase_1,,,,,,,,,,,,,green,diamond
0.0,4.0,0.0,0.0,3.0,3.0,289.9904610021622,1.0,1.0,phase_1,,,,,,,,,,,,,gray,circle
0.0,4.0,0.0,0.0,2.0,2.0,258.6761249986011,1.0,1.0,phase_1,,,,,,,,,,,,,gray,circle
62.0,5.0,1.0,1.0,4.0,4.0,312.8975539984822,1.0,1.0,phase_1,,,,,,,,,,,,,yellow,square
109.0,2.0,2.0,0.0,4.0,4.0,301.6862590011442,1.0,1.0,phase_1,,,,,,,,,,,,,blue,triangle
57.0,1.0,1.0,0.0,3.0,3.0,313.4927860010066,1.0,1.0,phase_1,,,,,,,,,,,,,orange,I
89.0,2.0,2.0,0.0,3.0,3.0,357.9711510028573,1.0,1.0,phase_1,,,,,,,,,,,,,blue,triangle
199.0,3.0,3.0,0.0,2.0,2.0,314.2147379985545,1.0,1.0,phase_1,,,,,,,,,,,,,green,diamond
378.0,4.0,4.0,0.0,1.0,1.0,278.8667750028253,1.0,1.0,phase_1,,,,,,,,,,,,,gray,circle
43.0,5.0,1.0,1.0,2.0,2.0,253.85191999885132,1.0,1.0,phase_1,,,,,,,,,,,,,yellow,square
198.0,3.0,3.0,0.0,4.0,4.0,284.2105529998662,1.0,1.0,phase_1,,,,,,,,,,,,,green,diamond
92.0,2.0,2.0,0.0,1.0,1.0,280.3119000018341,1.0,1.0,phase_1,,,,,,,,,,,,,blue,triangle
0.0,4.0,0.0,0.0,2.0,2.0,446.0271349998947,1.0,1.0,phase_1,,,,,,,,,,,,,gray,circle
89.0,6.0,2.0,1.0,3.0,3.0,277.838732003147,1.0,1.0,phase_1,,,,,,,,,,,,,cyan,cross
398.0,8.0,4.0,1.0,1.0,1.0,279.2477180009882,1.0,1.0,phase_1,,,,,,,,,,,,,magenta,flipped triangle
179.0,3.0,3.0,0.0,2.0,2.0,299.5010320009896,1.0,1.0,phase_1,,,,,,,,,,,,,green,diamond
113.0,2.0,2.0,0.0,1.0,1.0,335.8175810026296,1.0,1.0,phase_1,,,,,,,,,,,,,blue,triangle
114.0,6.0,2.0,1.0,2.0,2.0,398.8625749989296,2.0,1.0,phase_1,,,,,,,,,,,,,cyan,cross
47.0,5.0,1.0,1.0,3.0,3.0,302.8216260026966,2.0,1.0,phase_1,,,,,,,,,,,,,yellow,square
0.0,5.0,0.0,1.0,2.0,2.0,266.2745859997812,2.0,1.0,phase_1,,,,,,,,,,,,,yellow,square
424.0,4.0,4.0,0.0,3.0,3.0,320.9300559974508,2.0,1.0,phase_1,,,,,,,,,,,,,gray,circle
204.0,7.0,3.0,1.0,4.0,4.0,297.697361002065,2.0,1.0,phase_1,,,,,,,,,,,,,white,hexagon
90.0,2.0,2.0,0.0,4.0,4.0,303.5242939986347,2.0,1.0,phase_1,,,,,,,,,,,,,blue,triangle
0.0,7.0,0.0,1.0,3.0,3.0,293.3194529978209,2.0,1.0,phase_1,,,,,,,,,,,,,white,hexagon
66.0,5.0,1.0,1.0,3.0,3.0,298.4328200000163,2.0,1.0,phase_1,,,,,,,,,,,,,yellow,square
78.0,2.0,2.0,0.0,4.0,4.0,291.8328439991455,2.0,1.0,phase_1,,,,,,,,,,,,,blue,triangle
75.0,6.0,2.0,1.0,2.0,2.0,246.61895999815889,2.0,1.0,phase_1,,,,,,,,,,,,,cyan,cross
194.0,7.0,3.0,1.0,3.0,3.0,243.5580759993172,2.0,1.0,phase_1,,,,,,,,,,,,,white,hexagon
97.0,2.0,2.0,0.0,3.0,3.0,302.6203730005363,2.0,1.0,phase_1,,,,,,,,,,,,,blue,triangle
405.0,8.0,4.0,1.0,2.0,2.0,252.7005659976566,2.0,1.0,phase_1,,,,,,,,,,,,,magenta,flipped triangle
204.0,3.0,3.0,0.0,3.0,3.0,316.9679530001303,2.0,1.0,phase_1,,,,,,,,,,,,,green,diamond
179.0,7.0,3.0,1.0,2.0,2.0,338.3991380032967,2.0,1.0,phase_1,,,,,,,,,,,,,white,hexagon
122.0,2.0,2.0,0.0,1.0,1.0,336.267864000547,2.0,1.0,phase_1,,,,,,,,,,,,,blue,triangle
379.0,8.0,4.0,1.0,1.0,1.0,361.9565490007517,2.0,1.0,phase_1,,,,,,,,,,,,,magenta,flipped triangle
201.0,7.0,3.0,1.0,2.0,2.0,273.2781390004675,2.0,1.0,phase_1,,,,,,,,,,,,,white,hexagon
400.0,8.0,4.0,1.0,4.0,4.0,546.3991440010432,2.0,2.0,phase_1,,,,,,,,,,,,,magenta,flipped triangle
44.0,1.0,1.0,0.0,1.0,1.0,323.2888620004814,2.0,1.0,phase_1,,,,,,,,,,,,,orange,I
0.0,1.0,0.0,0.0,2.0,2.0,610.2875379983743,2.0,1.0,phase_1,,,,,,,,,,,,,orange,I
63.0,1.0,1.0,0.0,1.0,1.0,355.5633940013649,2.0,1.0,phase_1,,,,,,,,,,,,,orange,I
198.0,7.0,3.0,1.0,4.0,4.0,383.9573740006017,2.0,1.0,phase_1,,,,,,,,,,,,,white,hexagon
82.0,6.0,2.0,1.0,4.0,4.0,406.3408160000108,2.0,1.0,phase_1,,,,,,,,,,,,,cyan,cross
31.0,1.0,1.0,0.0,2.0,2.0,305.0007769998046,2.0,1.0,phase_1,,,,,,,,,,,,,orange,I
421.0,4.0,4.0,0.0,4.0,4.0,455.8246280030289,2.0,1.0,phase_1,,,,,,,,,,,,,gray,circle
0.0,3.0,0.0,0.0,4.0,4.0,374.7312240011524,2.0,1.0,phase_1,,,,,,,,,,,,,green,diamond
0.0,4.0,0.0,0.0,1.0,1.0,328.8669409994327,2.0,1.0,phase_1,,,,,,,,,,,,,gray,circle
182.0,7.0,3.0,1.0,1.0,1.0,348.2220040023094,2.0,1.0,phase_1,,,,,,,,,,,,,white,hexagon
122.0,6.0,2.0,1.0,4.0,4.0,415.359326001635,2.0,2.0,phase_1,,,,,,,,,,,,,cyan,cross
175.0,3.0,3.0,0.0,1.0,1.0,652.4027610030316,2.0,1.0,phase_1,,,,,,,,,,,,,green,diamond
0.0,5.0,0.0,1.0,1.0,1.0,497.9288569993514,2.0,1.0,phase_1,,,,,,,,,,,,,yellow,square
0.0,1.0,0.0,0.0,2.0,2.0,348.8943390002532,2.0,1.0,phase_1,,,,,,,,,,,,,orange,I
389.0,4.0,4.0,0.0,2.0,2.0,484.5275469997432,2.0,1.0,phase_1,,,,,,,,,,,,,gray,circle
27.0,5.0,1.0,1.0,1.0,1.0,461.2367259978782,2.0,1.0,phase_1,,,,,,,,,,,,,yellow,square
0.0,1.0,0.0,0.0,2.0,2.0,421.9989179982804,2.0,1.0,phase_1,,,,,,,,,,,,,orange,I
0.0,4.0,0.0,0.0,1.0,1.0,465.5413379987294,2.0,1.0,phase_1,,,,,,,,,,,,,gray,circle
177.0,7.0,3.0,1.0,2.0,2.0,350.5428479984402,2.0,1.0,phase_1,,,,,,,,,,,,,white,hexagon
224.0,3.0,3.0,0.0,1.0,1.0,336.7605610001192,2.0,1.0,phase_1,,,,,,,,,,,,,green,diamond
109.0,6.0,2.0,1.0,2.0,2.0,372.8525989972695,2.0,1.0,phase_1,,,,,,,,,,,,,cyan,cross
412.0,4.0,4.0,0.0,3.0,3.0,659.9876079999376,2.0,1.0,phase_1,,,,,,,,,,,,,gray,circle
90.0,2.0,2.0,0.0,4.0,4.0,420.3979409976455,2.0,1.0,phase_1,,,,,,,,,,,,,blue,triangle
51.0,5.0,1.0,1.0,1.0,1.0,353.8664810002956,2.0,1.0,phase_1,,,,,,,,,,,,,yellow,square
180.0,3.0,3.0,0.0,3.0,3.0,376.0878030007006,2.0,1.0,phase_1,,,,,,,,,,,,,green,diamond
403.0,8.0,4.0,1.0,2.0,2.0,477.0471279989579,2.0,1.0,phase_1,,,,,,,,,,,,,magenta,flipped triangle
103.0,6.0,2.0,1.0,1.0,1.0,327.6218809987767,2.0,1.0,phase_1,,,,,,,,,,,,,cyan,cross
69.0,1.0,1.0,0.0,4.0,4.0,353.521709999768,2.0,1.0,phase_1,,,,,,,,,,,,,orange,I
187.0,7.0,3.0,1.0,2.0,2.0,304.6001760012586,2.0,1.0,phase_1,,,,,,,,,,,,,white,hexagon
73.0,1.0,1.0,0.0,4.0,4.0,313.5710729984566,2.0,1.0,phase_1,,,,,,,,,,,,,orange,I
52.0,5.0,1.0,1.0,3.0,3.0,324.6675199989113,2.0,1.0,phase_1,,,,,,,,,,,,,yellow,square
396.0,4.0,4.0,0.0,4.0,4.0,379.0882889989007,2.0,1.0,phase_1,,,,,,,,,,,,,gray,circle
36.0,5.0,1.0,1.0,3.0,3.0,312.642703000165,2.0,1.0,phase_1,,,,,,,,,,,,,yellow,square
28.0,1.0,1.0,0.0,3.0,3.0,350.5862719975994,2.0,1.0,phase_1,,,,,,,,,,,,,orange,I
91.0,2.0,2.0,0.0,3.0,3.0,338.74208600173,2.0,1.0,phase_1,,,,,,,,,,,,,blue,triangle
416.0,4.0,4.0,0.0,1.0,1.0,294.8785670014331,2.0,1.0,phase_1,,,,,,,,,,,,,gray,circle
401.0,8.0,4.0,1.0,4.0,4.0,386.1911960011639,2.0,1.0,phase_1,,,,,,,,,,,,,magenta,flipped triangle
27.0,1.0,1.0,0.0,4.0,4.0,370.2823899984651,2.0,1.0,phase_1,,,,,,,,,,,,,orange,I
396.0,8.0,4.0,1.0,3.0,3.0,344.268765002198,2.0,1.0,phase_1,,,,,,,,,,,,,magenta,flipped triangle
409.0,4.0,4.0,0.0,1.0,1.0,477.6227439979266,2.0,1.0,phase_1,,,,,,,,,,,,,gray,circle
63.0,5.0,1.0,1.0,1.0,1.0,329.6157529985066,2.0,1.0,phase_1,,,,,,,,,,,,,yellow,square
31.0,1.0,1.0,0.0,3.0,3.0,323.7804390009842,2.0,1.0,phase_1,,,,,,,,,,,,,orange,I
177.0,3.0,3.0,0.0,4.0,4.0,450.0556340026378,2.0,1.0,phase_1,,,,,,,,,,,,,green,diamond
65.0,1.0,1.0,0.0,1.0,1.0,357.879232000414,2.0,1.0,phase_1,,,,,,,,,,,,,orange,I
59.0,1.0,1.0,0.0,3.0,3.0,300.3948950026824,2.0,1.0,phase_1,,,,,,,,,,,,,orange,I
82.0,2.0,2.0,0.0,2.0,2.0,303.468973001145,2.0,1.0,phase_1,,,,,,,,,,,,,blue,triangle
103.0,2.0,2.0,0.0,3.0,3.0,331.0269790017628,2.0,1.0,phase_1,,,,,,,,,,,,,blue,triangle
418.0,8.0,4.0,1.0,3.0,3.0,309.4635800007381,2.0,1.0,phase_1,,,,,,,,,,,,,magenta,flipped triangle
200.0,3.0,3.0,0.0,4.0,4.0,318.4471460008353,2.0,1.0,phase_1,,,,,,,,,,,,,green,diamond
119.0,2.0,2.0,0.0,3.0,3.0,329.7821269989072,2.0,1.0,phase_1,,,,,,,,,,,,,blue,triangle
403.0,4.0,4.0,0.0,1.0,1.0,333.7726520003343,2.0,1.0,phase_1,,,,,,,,,,,,,gray,circle
82.0,2.0,2.0,0.0,1.0,1.0,442.5522709971119,2.0,1.0,phase_1,,,,,,,,,,,,,blue,triangle
214.0,3.0,3.0,0.0,1.0,1.0,413.819779001642,2.0,1.0,phase_1,,,,,,,,,,,,,green,diamond
416.0,8.0,4.0,1.0,2.0,2.0,268.9452099984919,2.0,1.0,phase_1,,,,,,,,,,,,,magenta,flipped triangle
199.0,7.0,3.0,1.0,4.0,4.0,330.0240149983438,2.0,1.0,phase_1,,,,,,,,,,,,,white,hexagon
0.0,2.0,0.0,0.0,1.0,1.0,283.6049729994556,2.0,1.0,phase_1,,,,,,,,,,,,,blue,triangle
110.0,2.0,2.0,0.0,3.0,3.0,282.8823550007655,2.0,1.0,phase_1,,,,,,,,,,,,,blue,triangle
52.0,1.0,1.0,0.0,4.0,4.0,348.1225770010496,2.0,1.0,phase_1,,,,,,,,,,,,,orange,I
184.0,7.0,3.0,1.0,3.0,3.0,382.1904719989106,2.0,1.0,phase_1,,,,,,,,,,,,,white,hexagon
122.0,2.0,2.0,0.0,2.0,2.0,342.7547149985912,2.0,1.0,phase_1,,,,,,,,,,,,,blue,triangle
0.0,5.0,0.0,1.0,4.0,4.0,304.2279860019334,2.0,1.0,phase_1,,,,,,,,,,,,,yellow,square
184.0,7.0,3.0,1.0,4.0,4.0,410.5953139987832,2.0,1.0,phase_1,,,,,,,,,,,,,white,hexagon
63.0,5.0,1.0,1.0,4.0,4.0,322.9539710009703,2.0,1.0,phase_1,,,,,,,,,,,,,yellow,square
414.0,4.0,4.0,0.0,1.0,1.0,361.271123001643,2.0,1.0,phase_1,,,,,,,,,,,,,gray,circle
89.0,2.0,2.0,0.0,4.0,4.0,463.1914249985129,2.0,1.0,phase_1,,,,,,,,,,,,,blue,triangle
35.0,1.0,1.0,0.0,2.0,2.0,341.1653260009188,2.0,1.0,phase_1,,,,,,,,,,,,,orange,I
0.0,5.0,0.0,1.0,2.0,2.0,343.6304719980398,2.0,1.0,phase_1,,,,,,,,,,,,,yellow,square
208.0,3.0,3.0,0.0,2.0,2.0,373.1734190005227,2.0,1.0,phase_1,,,,,,,,,,,,,green,diamond
36.0,1.0,1.0,0.0,1.0,1.0,321.9094390005921,2.0,1.0,phase_1,,,,,,,,,,,,,orange,I
0.0,2.0,0.0,0.0,3.0,3.0,359.0488279987767,2.0,1.0,phase_1,,,,,,,,,,,,,blue,triangle
190.0,7.0,3.0,1.0,3.0,3.0,358.2805749974795,2.0,1.0,phase_1,,,,,,,,,,,,,white,hexagon
193.0,3.0,3.0,0.0,1.0,1.0,310.530345999723,2.0,1.0,phase_1,,,,,,,,,,,,,green,diamond
0.0,6.0,0.0,1.0,4.0,4.0,344.9948080015019,2.0,1.0,phase_1,,,,,,,,,,,,,cyan,cross
198.0,3.0,3.0,0.0,3.0,3.0,321.6689930013672,2.0,1.0,phase_1,,,,,,,,,,,,,green,diamond
421.0,8.0,4.0,1.0,4.0,4.0,373.3856710023246,2.0,1.0,phase_1,,,,,,,,,,,,,magenta,flipped triangle
52.0,5.0,1.0,1.0,4.0,4.0,342.4899730016477,2.0,1.0,phase_1,,,,,,,,,,,,,yellow,square
103.0,6.0,2.0,1.0,2.0,2.0,331.1197160001029,2.0,1.0,phase_1,,,,,,,,,,,,,cyan,cross
118.0,2.0,2.0,0.0,1.0,1.0,422.3696160006511,2.0,1.0,phase_1,,,,,,,,,,,,,blue,triangle
0.0,6.0,0.0,1.0,4.0,4.0,405.4046159981226,2.0,1.0,phase_1,,,,,,,,,,,,,cyan,cross
0.0,5.0,0.0,1.0,3.0,3.0,305.0489239976741,2.0,1.0,phase_1,,,,,,,,,,,,,yellow,square
216.0,3.0,3.0,0.0,4.0,4.0,333.2255389977945,2.0,1.0,phase_1,,,,,,,,,,,,,green,diamond
0.0,6.0,0.0,1.0,1.0,1.0,347.0907590017305,3.0,1.0,phase_1,,,,,,,,,,,,,cyan,cross
0.0,8.0,0.0,1.0,2.0,2.0,366.5629870010889,3.0,1.0,phase_1,,,,,,,,,,,,,magenta,flipped triangle
125.0,6.0,2.0,1.0,3.0,3.0,304.8996690013155,3.0,1.0,phase_1,,,,,,,,,,,,,cyan,cross
57.0,5.0,1.0,1.0,3.0,3.0,392.0267329995113,3.0,1.0,phase_1,,,,,,,,,,,,,yellow,square
411.0,4.0,4.0,0.0,2.0,2.0,311.96755600103637,3.0,1.0,phase_1,,,,,,,,,,,,,gray,circle
0.0,4.0,0.0,0.0,4.0,4.0,348.4982450027019,3.0,1.0,phase_1,,,,,,,,,,,,,gray,circle
0.0,7.0,0.0,1.0,1.0,1.0,284.0371470010723,3.0,1.0,phase_1,,,,,,,,,,,,,white,hexagon
210.0,7.0,3.0,1.0,4.0,4.0,365.1888770000369,3.0,1.0,phase_1,,,,,,,,,,,,,white,hexagon
90.0,6.0,2.0,1.0,4.0,4.0,332.7892310007883,3.0,1.0,phase_1,,,,,,,,,,,,,cyan,cross
187.0,3.0,3.0,0.0,4.0,4.0,308.614456000214,3.0,1.0,phase_1,,,,,,,,,,,,,green,diamond
71.0,1.0,1.0,0.0,2.0,2.0,369.5533460013394,3.0,1.0,phase_1,,,,,,,,,,,,,orange,I
111.0,2.0,2.0,0.0,3.0,3.0,279.5326460000069,3.0,1.0,phase_1,,,,,,,,,,,,,blue,triangle
31.0,5.0,1.0,1.0,4.0,4.0,338.645630999963,3.0,1.0,phase_1,,,,,,,,,,,,,yellow,square
193.0,7.0,3.0,1.0,2.0,2.0,324.4623120008327,3.0,1.0,phase_1,,,,,,,,,,,,,white,hexagon
0.0,4.0,0.0,0.0,3.0,3.0,286.1325779995241,3.0,1.0,phase_1,,,,,,,,,,,,,gray,circle
388.0,8.0,4.0,1.0,1.0,1.0,635.8128100000613,3.0,2.0,phase_1,,,,,,,,,,,,,magenta,flipped triangle
414.0,4.0,4.0,0.0,3.0,3.0,376.0537849993852,3.0,1.0,phase_1,,,,,,,,,,,,,gray,circle
83.0,2.0,2.0,0.0,4.0,4.0,517.9384039984143,3.0,1.0,phase_1,,,,,,,,,,,,,blue,triangle
401.0,8.0,4.0,1.0,2.0,2.0,553.4243909969518,3.0,1.0,phase_1,,,,,,,,,,,,,magenta,flipped triangle
401.0,4.0,4.0,0.0,4.0,4.0,317.9309570004989,3.0,1.0,phase_1,,,,,,,,,,,,,gray,circle
115.0,6.0,2.0,1.0,1.0,1.0,443.34057100059,3.0,1.0,phase_1,,,,,,,,,,,,,cyan,cross
0.0,6.0,0.0,1.0,2.0,2.0,368.6583189992234,3.0,1.0,phase_1,,,,,,,,,,,,,cyan,cross
384.0,4.0,4.0,0.0,4.0,4.0,558.4514160000253,3.0,1.0,phase_1,,,,,,,,,,,,,gray,circle
33.0,5.0,1.0,1.0,4.0,4.0,348.4433569974499,3.0,1.0,phase_1,,,,,,,,,,,,,yellow,square
186.0,3.0,3.0,0.0,4.0,4.0,346.3825399994675,3.0,1.0,phase_1,,,,,,,,,,,,,green,diamond
0.0,4.0,0.0,0.0,2.0,2.0,421.7749559975345,3.0,1.0,phase_1,,,,,,,,,,,,,gray,circle
184.0,3.0,3.0,0.0,4.0,4.0,674.7049360019446,3.0,1.0,phase_1,,,,,,,,,,,,,green,diamond
194.0,3.0,3.0,0.0,2.0,2.0,311.0876419996202,3.0,1.0,phase_1,,,,,,,,,,,,,green,diamond
85.0,2.0,2.0,0.0,2.0,2.0,343.0455659981817,3.0,1.0,phase_1,,,,,,,,,,,,,blue,triangle
0.0,3.0,0.0,0.0,1.0,1.0,328.6811500001931,3.0,1.0,phase_1,,,,,,,,,,,,,green,diamond
404.0,8.0,4.0,1.0,2.0,2.0,330.9233700019831,3.0,1.0,phase_1,,,,,,,,,,,,,magenta,flipped triangle
79.0,2.0,2.0,0.0,2.0,2.0,361.3801549981872,3.0,1.0,phase_1,,,,,,,,,,,,,blue,triangle
0.0,3.0,0.0,0.0,2.0,2.0,375.3665450021799,3.0,1.0,phase_1,,,,,,,,,,,,,green,diamond
122.0,6.0,2.0,1.0,3.0,3.0,304.8075699989567,3.0,1.0,phase_1,,,,,,,,,,,,,cyan,cross
388.0,8.0,4.0,1.0,2.0,2.0,372.0587530006014,3.0,1.0,phase_1,,,,,,,,,,,,,magenta,flipped triangle
67.0,1.0,1.0,0.0,4.0,4.0,712.204560997634,3.0,1.0,phase_1,,,,,,,,,,,,,orange,I
215.0,7.0,3.0,1.0,2.0,2.0,388.0944600023213,3.0,1.0,phase_1,,,,,,,,,,,,,white,hexagon
34.0,1.0,1.0,0.0,4.0,4.0,417.654731998482,3.0,1.0,phase_1,,,,,,,,,,,,,orange,I
84.0,2.0,2.0,0.0,4.0,4.0,362.306922001153,3.0,1.0,phase_1,,,,,,,,,,,,,blue,triangle
214.0,7.0,3.0,1.0,4.0,4.0,332.4144549987977,3.0,1.0,phase_1,,,,,,,,,,,,,white,hexagon
405.0,4.0,4.0,0.0,4.0,4.0,335.3749210000387,3.0,1.0,phase_1,,,,,,,,,,,,,gray,circle
379.0,4.0,4.0,0.0,2.0,2.0,353.2950429980701,3.0,1.0,phase_1,,,,,,,,,,,,,gray,circle
46.0,1.0,1.0,0.0,1.0,1.0,331.9172279989288,3.0,1.0,phase_1,,,,,,,,,,,,,orange,I
389.0,4.0,4.0,0.0,3.0,3.0,286.8736660020659,3.0,1.0,phase_1,,,,,,,,,,,,,gray,circle
106.0,6.0,2.0,1.0,3.0,3.0,358.1786649992864,3.0,1.0,phase_1,,,,,,,,,,,,,cyan,cross
40.0,1.0,1.0,0.0,2.0,2.0,442.856945002859,3.0,1.0,phase_1,,,,,,,,,,,,,orange,I
415.0,4.0,4.0,0.0,3.0,3.0,305.5897970007208,3.0,1.0,phase_1,,,,,,,,,,,,,gray,circle
0.0,8.0,0.0,1.0,3.0,3.0,316.2853329995414,3.0,1.0,phase_1,,,,,,,,,,,,,magenta,flipped triangle
377.0,4.0,4.0,0.0,4.0,4.0,654.3742440007918,3.0,1.0,phase_1,,,,,,,,,,,,,gray,circle
0.0,3.0,0.0,0.0,3.0,3.0,335.8094680006616,3.0,1.0,phase_1,,,,,,,,,,,,,green,diamond
224.0,7.0,3.0,1.0,3.0,3.0,309.6319049982412,3.0,1.0,phase_1,,,,,,,,,,,,,white,hexagon
121.0,6.0,2.0,1.0,3.0,3.0,315.4329259996302,3.0,1.0,phase_1,,,,,,,,,,,,,cyan,cross
214.0,7.0,3.0,1.0,4.0,4.0,400.9684120028396,3.0,1.0,phase_1,,,,,,,,,,,,,white,hexagon
47.0,1.0,1.0,0.0,3.0,3.0,324.1366059992288,3.0,1.0,phase_1,,,,,,,,,,,,,orange,I
418.0,4.0,4.0,0.0,3.0,3.0,338.0388069999753,3.0,1.0,phase_1,,,,,,,,,,,,,gray,circle
76.0,2.0,2.0,0.0,4.0,4.0,553.4127179998904,3.0,1.0,phase_1,,,,,,,,,,,,,blue,triangle
0.0,6.0,0.0,1.0,4.0,4.0,341.563023001072,3.0,1.0,phase_1,,,,,,,,,,,,,cyan,cross
119.0,6.0,2.0,1.0,1.0,1.0,356.7445610024151,3.0,1.0,phase_1,,,,,,,,,,,,,cyan,cross
0.0,2.0,0.0,0.0,1.0,1.0,338.6794090001785,3.0,1.0,phase_1,,,,,,,,,,,,,blue,triangle
200.0,7.0,3.0,1.0,3.0,3.0,366.6727810013981,3.0,1.0,phase_1,,,,,,,,,,,,,white,hexagon
69.0,5.0,1.0,1.0,3.0,3.0,385.6379839999135,3.0,1.0,phase_1,,,,,,,,,,,,,yellow,square
412.0,8.0,4.0,1.0,1.0,1.0,400.2906629975769,3.0,1.0,phase_1,,,,,,,,,,,,,magenta,flipped triangle
37.0,5.0,1.0,1.0,1.0,1.0,328.8181150019227,3.0,1.0,phase_1,,,,,,,,,,,,,yellow,square
52.0,1.0,1.0,0.0,1.0,1.0,416.2483820000489,3.0,1.0,phase_1,,,,,,,,,,,,,orange,I
389.0,8.0,4.0,1.0,3.0,3.0,314.1098310006782,3.0,1.0,phase_1,,,,,,,,,,,,,magenta,flipped triangle
107.0,2.0,2.0,0.0,1.0,1.0,287.9481300005864,3.0,1.0,phase_1,,,,,,,,,,,,,blue,triangle
394.0,8.0,4.0,1.0,1.0,1.0,375.3959819987358,3.0,1.0,phase_1,,,,,,,,,,,,,magenta,flipped triangle
90.0,6.0,2.0,1.0,4.0,4.0,779.7681850024674,3.0,1.0,phase_1,,,,,,,,,,,,,cyan,cross
122.0,6.0,2.0,1.0,1.0,1.0,391.7003370006569,3.0,1.0,phase_1,,,,,,,,,,,,,cyan,cross
99.0,6.0,2.0,1.0,2.0,2.0,310.8863470006326,3.0,1.0,phase_1,,,,,,,,,,,,,cyan,cross
210.0,7.0,3.0,1.0,1.0,1.0,410.4843940003775,3.0,1.0,phase_1,,,,,,,,,,,,,white,hexagon
386.0,4.0,4.0,0.0,1.0,1.0,361.9082240002171,3.0,1.0,phase_1,,,,,,,,,,,,,gray,circle
212.0,7.0,3.0,1.0,1.0,1.0,314.5227009990776,3.0,1.0,phase_1,,,,,,,,,,,,,white,hexagon
200.0,3.0,3.0,0.0,4.0,4.0,462.2848549988703,3.0,1.0,phase_1,,,,,,,,,,,,,green,diamond
53.0,5.0,1.0,1.0,2.0,2.0,353.3841099997516,3.0,1.0,phase_1,,,,,,,,,,,,,yellow,square
214.0,7.0,3.0,1.0,2.0,2.0,370.1867099989613,3.0,1.0,phase_1,,,,,,,,,,,,,white,hexagon
0.0,2.0,0.0,0.0,1.0,1.0,495.8558850012196,3.0,1.0,phase_1,,,,,,,,,,,,,blue,triangle
0.0,4.0,0.0,0.0,4.0,4.0,541.7652470023313,3.0,1.0,phase_1,,,,,,,,,,,,,gray,circle
73.0,1.0,1.0,0.0,2.0,2.0,385.9711430013703,3.0,1.0,phase_1,,,,,,,,,,,,,orange,I
401.0,4.0,4.0,0.0,2.0,2.0,351.0618219988828,3.0,1.0,phase_1,,,,,,,,,,,,,gray,circle
0.0,6.0,0.0,1.0,4.0,4.0,329.160891000356,3.0,1.0,phase_1,,,,,,,,,,,,,cyan,cross
391.0,8.0,4.0,1.0,2.0,2.0,342.8466820005269,3.0,1.0,phase_1,,,,,,,,,,,,,magenta,flipped triangle
28.0,5.0,1.0,1.0,2.0,2.0,327.0692039986898,3.0,1.0,phase_1,,,,,,,,,,,,,yellow,square
422.0,8.0,4.0,1.0,3.0,3.0,340.3955540015886,3.0,1.0,phase_1,,,,,,,,,,,,,magenta,flipped triangle
72.0,5.0,1.0,1.0,4.0,4.0,349.0843519975897,3.0,1.0,phase_1,,,,,,,,,,,,,yellow,square
52.0,5.0,1.0,1.0,4.0,4.0,318.5325270023895,3.0,1.0,phase_1,,,,,,,,,,,,,yellow,square
400.0,8.0,4.0,1.0,3.0,3.0,355.2879300004861,3.0,1.0,phase_1,,,,,,,,,,,,,magenta,flipped triangle
385.0,4.0,4.0,0.0,1.0,1.0,462.6391000019794,3.0,1.0,phase_1,,,,,,,,,,,,,gray,circle
71.0,5.0,1.0,1.0,1.0,1.0,321.2183210016519,3.0,1.0,phase_1,,,,,,,,,,,,,yellow,square
0.0,8.0,0.0,1.0,1.0,1.0,312.8163139990647,3.0,1.0,phase_1,,,,,,,,,,,,,magenta,flipped triangle
78.0,6.0,2.0,1.0,2.0,2.0,444.7383890001219,3.0,1.0,phase_1,,,,,,,,,,,,,cyan,cross
209.0,7.0,3.0,1.0,4.0,4.0,333.1264709995594,3.0,1.0,phase_1,,,,,,,,,,,,,white,hexagon
400.0,4.0,4.0,0.0,4.0,4.0,381.831383001554,3.0,1.0,phase_1,,,,,,,,,,,,,gray,circle
194.0,3.0,3.0,0.0,3.0,3.0,274.2557630008377,3.0,1.0,phase_1,,,,,,,,,,,,,green,diamond
186.0,7.0,3.0,1.0,2.0,2.0,262.2166319997632,3.0,1.0,phase_1,,,,,,,,,,,,,white,hexagon
80.0,6.0,2.0,1.0,4.0,4.0,298.6096559980069,3.0,1.0,phase_1,,,,,,,,,,,,,cyan,cross
115.0,2.0,2.0,0.0,3.0,3.0,319.4466479981201,3.0,1.0,phase_1,,,,,,,,,,,,,blue,triangle
52.0,1.0,1.0,0.0,3.0,3.0,315.2752080022765,3.0,1.0,phase_1,,,,,,,,,,,,,orange,I
89.0,6.0,2.0,1.0,4.0,4.0,363.1303080001089,3.0,1.0,phase_1,,,,,,,,,,,,,cyan,cross
73.0,5.0,1.0,1.0,2.0,2.0,286.3286259998858,3.0,1.0,phase_1,,,,,,,,,,,,,yellow,square
0.0,1.0,0.0,0.0,1.0,1.0,343.4896750004554,4.0,1.0,phase_1,,,,,,,,,,,,,orange,I
0.0,7.0,0.0,1.0,1.0,1.0,360.0964520010166,4.0,1.0,phase_1,,,,,,,,,,,,,white,hexagon
190.0,3.0,3.0,0.0,3.0,3.0,276.3362740006414,4.0,1.0,phase_1,,,,,,,,,,,,,green,diamond
52.0,5.0,1.0,1.0,3.0,3.0,292.0807110021997,4.0,1.0,phase_1,,,,,,,,,,,,,yellow,square
424.0,8.0,4.0,1.0,4.0,4.0,323.5040250001475,4.0,1.0,phase_1,,,,,,,,,,,,,magenta,flipped triangle
201.0,3.0,3.0,0.0,1.0,1.0,292.592677000357,4.0,1.0,phase_1,,,,,,,,,,,,,green,diamond
404.0,4.0,4.0,0.0,1.0,1.0,396.4294159995916,4.0,1.0,phase_1,,,,,,,,,,,,,gray,circle
84.0,6.0,2.0,1.0,1.0,1.0,752.2763479973946,4.0,1.0,phase_1,,,,,,,,,,,,,cyan,cross
204.0,3.0,3.0,0.0,3.0,3.0,321.2239239983319,4.0,1.0,phase_1,,,,,,,,,,,,,green,diamond
49.0,5.0,1.0,1.0,3.0,3.0,341.2262380006723,4.0,1.0,phase_1,,,,,,,,,,,,,yellow,square
33.0,1.0,1.0,0.0,2.0,2.0,445.6764070018835,4.0,1.0,phase_1,,,,,,,,,,,,,orange,I
0.0,2.0,0.0,0.0,3.0,3.0,344.1863629996078,4.0,1.0,phase_1,,,,,,,,,,,,,blue,triangle
125.0,2.0,2.0,0.0,2.0,2.0,274.9245419981889,4.0,1.0,phase_1,,,,,,,,,,,,,blue,triangle
0.0,7.0,0.0,1.0,2.0,2.0,417.366525001853,4.0,1.0,phase_1,,,,,,,,,,,,,white,hexagon
46.0,5.0,1.0,1.0,2.0,2.0,266.601030001766,4.0,1.0,phase_1,,,,,,,,,,,,,yellow,square
121.0,2.0,2.0,0.0,4.0,4.0,287.6163120017736,4.0,1.0,phase_1,,,,,,,,,,,,,blue,triangle
212.0,3.0,3.0,0.0,1.0,1.0,252.06283999796142,4.0,1.0,phase_1,,,,,,,,,,,,,green,diamond
214.0,3.0,3.0,0.0,1.0,1.0,328.8830910023534,4.0,1.0,phase_1,,,,,,,,,,,,,green,diamond
0.0,5.0,0.0,1.0,3.0,3.0,278.5581780008215,4.0,1.0,phase_1,,,,,,,,,,,,,yellow,square
378.0,8.0,4.0,1.0,3.0,3.0,450.6759519972547,4.0,1.0,phase_1,,,,,,,,,,,,,magenta,flipped triangle
209.0,7.0,3.0,1.0,1.0,1.0,259.5962049999798,4.0,1.0,phase_1,,,,,,,,,,,,,white,hexagon
222.0,7.0,3.0,1.0,3.0,3.0,283.0311170000641,4.0,1.0,phase_1,,,,,,,,,,,,,white,hexagon
0.0,1.0,0.0,0.0,4.0,4.0,394.0047260002757,4.0,1.0,phase_1,,,,,,,,,,,,,orange,I
210.0,3.0,3.0,0.0,3.0,3.0,279.3096360001073,4.0,1.0,phase_1,,,,,,,,,,,,,green,diamond
209.0,3.0,3.0,0.0,3.0,3.0,360.9109630015155,4.0,1.0,phase_1,,,,,,,,,,,,,green,diamond
0.0,2.0,0.0,0.0,2.0,2.0,344.9907510002958,4.0,1.0,phase_1,,,,,,,,,,,,,blue,triangle
199.0,7.0,3.0,1.0,1.0,1.0,400.2955160030979,4.0,1.0,phase_1,,,,,,,,,,,,,white,hexagon
0.0,8.0,0.0,1.0,4.0,4.0,395.410252000147,4.0,1.0,phase_1,,,,,,,,,,,,,magenta,flipped triangle
0.0,5.0,0.0,1.0,3.0,3.0,398.7298979991465,4.0,1.0,phase_1,,,,,,,,,,,,,yellow,square
184.0,3.0,3.0,0.0,1.0,1.0,314.3512189999455,4.0,1.0,phase_1,,,,,,,,,,,,,green,diamond
51.0,1.0,1.0,0.0,4.0,4.0,351.6580659997999,4.0,1.0,phase_1,,,,,,,,,,,,,orange,I
0.0,2.0,0.0,0.0,1.0,1.0,343.1180869993113,4.0,1.0,phase_1,,,,,,,,,,,,,blue,triangle
388.0,4.0,4.0,0.0,4.0,4.0,325.2577939965704,4.0,1.0,phase_1,,,,,,,,,,,,,gray,circle
119.0,2.0,2.0,0.0,1.0,1.0,304.562248998991,4.0,1.0,phase_1,,,,,,,,,,,,,blue,triangle
52.0,5.0,1.0,1.0,3.0,3.0,294.6209910005564,4.0,1.0,phase_1,,,,,,,,,,,,,yellow,square
177.0,7.0,3.0,1.0,1.0,1.0,412.9756259972055,4.0,1.0,phase_1,,,,,,,,,,,,,white,hexagon
92.0,6.0,2.0,1.0,1.0,1.0,334.5784089979133,4.0,1.0,phase_1,,,,,,,,,,,,,cyan,cross
63.0,1.0,1.0,0.0,1.0,1.0,301.0579889996734,4.0,1.0,phase_1,,,,,,,,,,,,,orange,I
406.0,8.0,4.0,1.0,4.0,4.0,388.9224499980628,4.0,1.0,phase_1,,,,,,,,,,,,,magenta,flipped triangle
62.0,1.0,1.0,0.0,3.0,3.0,337.5340940001479,4.0,1.0,phase_1,,,,,,,,,,,,,orange,I
175.0,7.0,3.0,1.0,4.0,4.0,453.4804889990482,4.0,2.0,phase_1,,,,,,,,,,,,,white,hexagon
80.0,6.0,2.0,1.0,2.0,2.0,320.2418580003723,4.0,1.0,phase_1,,,,,,,,,,,,,cyan,cross
111.0,6.0,2.0,1.0,2.0,2.0,480.8393720013555,4.0,1.0,phase_1,,,,,,,,,,,,,cyan,cross
118.0,6.0,2.0,1.0,1.0,1.0,465.4735700023593,4.0,1.0,phase_1,,,,,,,,,,,,,cyan,cross
52.0,1.0,1.0,0.0,3.0,3.0,289.9193199991714,4.0,1.0,phase_1,,,,,,,,,,,,,orange,I
0.0,5.0,0.0,1.0,4.0,4.0,291.5026079972449,4.0,1.0,phase_1,,,,,,,,,,,,,yellow,square
103.0,2.0,2.0,0.0,1.0,1.0,318.3235280012013,4.0,1.0,phase_1,,,,,,,,,,,,,blue,triangle
41.0,1.0,1.0,0.0,1.0,1.0,308.2523049997689,4.0,1.0,phase_1,,,,,,,,,,,,,orange,I
0.0,6.0,0.0,1.0,3.0,3.0,305.9939580016362,4.0,1.0,phase_1,,,,,,,,,,,,,cyan,cross
415.0,8.0,4.0,1.0,4.0,4.0,306.5177589996892,4.0,1.0,phase_1,,,,,,,,,,,,,magenta,flipped triangle
114.0,2.0,2.0,0.0,4.0,4.0,309.1868689989496,4.0,1.0,phase_1,,,,,,,,,,,,,blue,triangle
0.0,7.0,0.0,1.0,3.0,3.0,369.2756229975202,4.0,1.0,phase_1,,,,,,,,,,,,,white,hexagon
390.0,8.0,4.0,1.0,4.0,4.0,321.2206690004677,4.0,1.0,phase_1,,,,,,,,,,,,,magenta,flipped triangle
0.0,7.0,0.0,1.0,3.0,3.0,335.0572500021371,4.0,1.0,phase_1,,,,,,,,,,,,,white,hexagon
0.0,3.0,0.0,0.0,4.0,4.0,268.2383289975405,4.0,1.0,phase_1,,,,,,,,,,,,,green,diamond
388.0,4.0,4.0,0.0,2.0,2.0,340.5526610004017,4.0,1.0,phase_1,,,,,,,,,,,,,gray,circle
390.0,4.0,4.0,0.0,2.0,2.0,339.4215190019167,4.0,1.0,phase_1,,,,,,,,,,,,,gray,circle
199.0,3.0,3.0,0.0,2.0,2.0,410.2176209999015,4.0,1.0,phase_1,,,,,,,,,,,,,green,diamond
71.0,5.0,1.0,1.0,2.0,2.0,280.3899550017377,4.0,1.0,phase_1,,,,,,,,,,,,,yellow,square
0.0,8.0,0.0,1.0,4.0,4.0,330.6471779978892,4.0,1.0,phase_1,,,,,,,,,,,,,magenta,flipped triangle
395.0,8.0,4.0,1.0,3.0,3.0,347.65077099655167,4.0,1.0,phase_1,,,,,,,,,,,,,magenta,flipped triangle
59.0,5.0,1.0,1.0,4.0,4.0,373.6492509997333,4.0,1.0,phase_1,,,,,,,,,,,,,yellow,square
113.0,6.0,2.0,1.0,2.0,2.0,287.7709320018766,4.0,1.0,phase_1,,,,,,,,,,,,,cyan,cross
89.0,2.0,2.0,0.0,2.0,2.0,305.0926299983985,4.0,1.0,phase_1,,,,,,,,,,,,,blue,triangle
73.0,5.0,1.0,1.0,2.0,2.0,274.8024520005856,4.0,1.0,phase_1,,,,,,,,,,,,,yellow,square
122.0,6.0,2.0,1.0,4.0,4.0,313.8433519998216,4.0,1.0,phase_1,,,,,,,,,,,,,cyan,cross
0.0,6.0,0.0,1.0,4.0,4.0,345.9705880013644,4.0,1.0,phase_1,,,,,,,,,,,,,cyan,cross
0.0,2.0,0.0,0.0,1.0,1.0,356.7343759968935,4.0,1.0,phase_1,,,,,,,,,,,,,blue,triangle
66.0,1.0,1.0,0.0,2.0,2.0,324.6132569984183,4.0,1.0,phase_1,,,,,,,,,,,,,orange,I
35.0,5.0,1.0,1.0,4.0,4.0,345.4607070016209,4.0,1.0,phase_1,,,,,,,,,,,,,yellow,square
53.0,1.0,1.0,0.0,4.0,4.0,353.1806550017791,4.0,1.0,phase_1,,,,,,,,,,,,,orange,I
0.0,8.0,0.0,1.0,4.0,4.0,321.9100730020727,4.0,1.0,phase_1,,,,,,,,,,,,,magenta,flipped triangle
29.0,1.0,1.0,0.0,2.0,2.0,312.556514996686,4.0,1.0,phase_1,,,,,,,,,,,,,orange,I
0.0,5.0,0.0,1.0,4.0,4.0,330.6460180028807,4.0,1.0,phase_1,,,,,,,,,,,,,yellow,square
0.0,3.0,0.0,0.0,4.0,4.0,306.3310739998997,4.0,1.0,phase_1,,,,,,,,,,,,,green,diamond
34.0,5.0,1.0,1.0,2.0,2.0,309.7522419993765,4.0,1.0,phase_1,,,,,,,,,,,,,yellow,square
204.0,7.0,3.0,1.0,1.0,1.0,345.0678590015741,4.0,1.0,phase_1,,,,,,,,,,,,,white,hexagon
222.0,3.0,3.0,0.0,2.0,2.0,307.8522340001655,4.0,1.0,phase_1,,,,,,,,,,,,,green,diamond
80.0,2.0,2.0,0.0,1.0,1.0,356.0944929995457,4.0,1.0,phase_1,,,,,,,,,,,,,blue,triangle
0.0,4.0,0.0,0.0,3.0,3.0,498.4303750024992,4.0,1.0,phase_1,,,,,,,,,,,,,gray,circle
221.0,3.0,3.0,0.0,3.0,3.0,319.0434469979664,4.0,1.0,phase_1,,,,,,,,,,,,,green,diamond
391.0,4.0,4.0,0.0,2.0,2.0,337.4378710032033,4.0,1.0,phase_1,,,,,,,,,,,,,gray,circle
0.0,7.0,0.0,1.0,2.0,2.0,309.7907599985774,4.0,1.0,phase_1,,,,,,,,,,,,,white,hexagon
216.0,7.0,3.0,1.0,3.0,3.0,314.8582059984619,4.0,1.0,phase_1,,,,,,,,,,,,,white,hexagon
0.0,3.0,0.0,0.0,4.0,4.0,326.9109569991997,4.0,1.0,phase_1,,,,,,,,,,,,,green,diamond
215.0,3.0,3.0,0.0,4.0,4.0,354.0744399979303,4.0,1.0,phase_1,,,,,,,,,,,,,green,diamond
119.0,6.0,2.0,1.0,3.0,3.0,348.5113589995308,4.0,1.0,phase_1,,,,,,,,,,,,,cyan,cross
98.0,2.0,2.0,0.0,2.0,2.0,301.4132809985312,4.0,1.0,phase_1,,,,,,,,,,,,,blue,triangle
41.0,5.0,1.0,1.0,2.0,2.0,294.3204389994207,4.0,1.0,phase_1,,,,,,,,,,,,,yellow,square
82.0,6.0,2.0,1.0,2.0,2.0,292.0295359981537,4.0,1.0,phase_1,,,,,,,,,,,,,cyan,cross
0.0,2.0,0.0,0.0,4.0,4.0,436.3741670022136,4.0,1.0,phase_1,,,,,,,,,,,,,blue,triangle
0.0,1.0,0.0,0.0,2.0,2.0,336.1970959995233,4.0,1.0,phase_1,,,,,,,,,,,,,orange,I
405.0,8.0,4.0,1.0,4.0,4.0,277.4000600002182,4.0,1.0,phase_1,,,,,,,,,,,,,magenta,flipped triangle
52.0,1.0,1.0,0.0,2.0,2.0,265.3938029980054,4.0,1.0,phase_1,,,,,,,,,,,,,orange,I
398.0,4.0,4.0,0.0,2.0,2.0,280.2526939995005,4.0,1.0,phase_1,,,,,,,,,,,,,gray,circle
421.0,8.0,4.0,1.0,4.0,4.0,276.8062120012473,4.0,1.0,phase_1,,,,,,,,,,,,,magenta,flipped triangle
99.0,2.0,2.0,0.0,3.0,3.0,461.5190660006192,4.0,1.0,phase_1,,,,,,,,,,,,,blue,triangle
0.0,8.0,0.0,1.0,1.0,1.0,676.7053950025002,4.0,1.0,phase_1,,,,,,,,,,,,,magenta,flipped triangle
0.0,1.0,0.0,0.0,2.0,2.0,413.306079000904,4.0,1.0,phase_1,,,,,,,,,,,,,orange,I
0.0,8.0,0.0,1.0,1.0,1.0,361.7411999985052,4.0,1.0,phase_1,,,,,,,,,,,,,magenta,flipped triangle
0.0,3.0,3.0,0.0,6.0,6.0,350.2525169969885,1.0,1.0,phase_2,go,250.0,250.0,1.0,,,,,,,,,green,diamond
0.0,3.0,3.0,0.0,6.0,6.0,455.8536739968986,1.0,1.0,phase_2,go,250.0,250.0,1.0,,,,,,,,,green,diamond
0.0,5.0,1.0,1.0,6.0,6.0,334.0966849973483,1.0,1.0,phase_2,go,250.0,250.0,1.0,,,,,,,,,yellow,square
0.0,1.0,1.0,0.0,5.0,5.0,567.2629269975005,1.0,1.0,phase_2,go,250.0,250.0,1.0,,,,,,,,,orange,I
0.0,4.0,4.0,0.0,6.0,6.0,500.0310389987135,1.0,1.0,phase_2,go,250.0,250.0,1.0,,,,,,,,,gray,circle
0.0,3.0,3.0,0.0,6.0,6.0,336.9744789997639,1.0,1.0,phase_2,go,250.0,250.0,1.0,,,,,,,,,green,diamond
0.0,2.0,2.0,0.0,6.0,6.0,299.7050980011408,1.0,1.0,phase_2,go,250.0,250.0,1.0,,,,,,,,,blue,triangle
0.0,3.0,3.0,0.0,6.0,6.0,377.299794999999,1.0,1.0,phase_2,go,250.0,250.0,1.0,,,,,,,,,green,diamond
0.0,8.0,4.0,1.0,6.0,0.0,0.0,1.0,1.0,phase_2,stop,250.0,250.0,4.0,,,,,,,,,magenta,flipped triangle
0.0,2.0,2.0,0.0,5.0,5.0,387.6022740005282,1.0,1.0,phase_2,go,250.0,300.0,1.0,,,,,,,,,blue,triangle
0.0,5.0,1.0,1.0,6.0,0.0,0.0,1.0,1.0,phase_2,stop,250.0,300.0,4.0,,,,,,,,,yellow,square
0.0,1.0,1.0,0.0,6.0,6.0,508.8014539978758,1.0,1.0,phase_2,go,250.0,350.0,1.0,,,,,,,,,orange,I
0.0,3.0,3.0,0.0,5.0,5.0,320.33054799831,1.0,1.0,phase_2,go,250.0,350.0,1.0,,,,,,,,,green,diamond
0.0,4.0,4.0,0.0,6.0,6.0,395.3341640008148,1.0,1.0,phase_2,go,250.0,350.0,1.0,,,,,,,,,gray,circle
0.0,5.0,1.0,1.0,5.0,5.0,418.7710430014704,1.0,1.0,phase_2,go,250.0,350.0,1.0,,,,,,,,,yellow,square
0.0,7.0,3.0,1.0,6.0,6.0,417.7604260003136,1.0,1.0,phase_2,go,250.0,350.0,1.0,,,,,,,,,white,hexagon
0.0,7.0,3.0,1.0,5.0,5.0,386.9791830002214,1.0,1.0,phase_2,stop,250.0,350.0,3.0,,,,,,,,,white,hexagon
0.0,6.0,2.0,1.0,6.0,6.0,469.5392479989095,1.0,1.0,phase_2,go,200.0,350.0,1.0,,,,,,,,,cyan,cross
0.0,2.0,2.0,0.0,6.0,6.0,384.0526000021782,1.0,1.0,phase_2,go,200.0,350.0,1.0,,,,,,,,,blue,triangle
0.0,1.0,1.0,0.0,5.0,5.0,470.6838349993631,1.0,1.0,phase_2,go,200.0,350.0,1.0,,,,,,,,,orange,I
0.0,6.0,2.0,1.0,5.0,0.0,0.0,1.0,1.0,phase_2,stop,200.0,350.0,4.0,,,,,,,,,cyan,cross
0.0,1.0,1.0,0.0,5.0,5.0,550.8592340011091,1.0,1.0,phase_2,go,250.0,350.0,1.0,,,,,,,,,orange,I
0.0,6.0,2.0,1.0,5.0,0.0,0.0,1.0,1.0,phase_2,stop,250.0,350.0,4.0,,,,,,,,,cyan,cross
0.0,4.0,4.0,0.0,6.0,6.0,523.8279759978468,1.0,1.0,phase_2,go,300.0,350.0,1.0,,,,,,,,,gray,circle
0.0,5.0,1.0,1.0,6.0,0.0,0.0,1.0,1.0,phase_2,stop,300.0,350.0,4.0,,,,,,,,,yellow,square
0.0,2.0,2.0,0.0,5.0,5.0,551.2719470025331,1.0,1.0,phase_2,go,300.0,400.0,1.0,,,,,,,,,blue,triangle
0.0,2.0,2.0,0.0,5.0,5.0,566.2457539983734,1.0,1.0,phase_2,go,300.0,400.0,1.0,,,,,,,,,blue,triangle
0.0,1.0,1.0,0.0,5.0,5.0,747.0921229978558,1.0,1.0,phase_2,go,300.0,400.0,1.0,,,,,,,,,orange,I
0.0,7.0,3.0,1.0,6.0,0.0,0.0,1.0,1.0,phase_2,stop,300.0,400.0,4.0,,,,,,,,,white,hexagon
0.0,7.0,3.0,1.0,5.0,5.0,348.3901060026255,1.0,1.0,phase_2,stop,300.0,450.0,3.0,,,,,,,,,white,hexagon
0.0,4.0,4.0,0.0,5.0,5.0,560.3018410001823,1.0,1.0,phase_2,go,250.0,450.0,1.0,,,,,,,,,gray,circle
0.0,6.0,2.0,1.0,5.0,0.0,0.0,1.0,1.0,phase_2,stop,250.0,450.0,4.0,,,,,,,,,cyan,cross
0.0,2.0,2.0,0.0,5.0,5.0,623.8181340013398,1.0,1.0,phase_2,go,300.0,450.0,1.0,,,,,,,,,blue,triangle
0.0,6.0,2.0,1.0,6.0,6.0,516.3564430004044,1.0,1.0,phase_2,stop,300.0,450.0,3.0,,,,,,,,,cyan,cross
0.0,8.0,4.0,1.0,6.0,6.0,580.1093669979309,1.0,1.0,phase_2,go,300.0,400.0,1.0,,,,,,,,,magenta,flipped triangle
0.0,7.0,3.0,1.0,6.0,6.0,693.8111300005403,1.0,1.0,phase_2,go,300.0,400.0,1.0,,,,,,,,,white,hexagon
0.0,8.0,4.0,1.0,6.0,6.0,677.8643389989156,2.0,1.0,phase_2,go,300.0,400.0,1.0,,,,,,,,,magenta,flipped triangle
0.0,4.0,4.0,0.0,6.0,6.0,385.0920900003984,2.0,1.0,phase_2,go,300.0,400.0,1.0,,,,,,,,,gray,circle
0.0,2.0,2.0,0.0,5.0,5.0,433.8640759997361,2.0,1.0,phase_2,go,300.0,400.0,1.0,,,,,,,,,blue,triangle
0.0,4.0,4.0,0.0,5.0,5.0,405.5597199985641,2.0,1.0,phase_2,go,300.0,400.0,1.0,,,,,,,,,gray,circle
0.0,5.0,1.0,1.0,6.0,6.0,439.3419139996695,2.0,1.0,phase_2,stop,300.0,400.0,3.0,,,,,,,,,yellow,square
0.0,3.0,3.0,0.0,5.0,5.0,552.5914799982274,2.0,1.0,phase_2,go,300.0,350.0,1.0,,,,,,,,,green,diamond
0.0,2.0,2.0,0.0,6.0,6.0,321.3655479994486,2.0,1.0,phase_2,go,300.0,350.0,1.0,,,,,,,,,blue,triangle
0.0,6.0,2.0,1.0,5.0,0.0,0.0,2.0,1.0,phase_2,stop,300.0,350.0,4.0,,,,,,,,,cyan,cross
0.0,4.0,4.0,0.0,5.0,5.0,549.836039001093,2.0,1.0,phase_2,go,350.0,350.0,1.0,,,,,,,,,gray,circle
0.0,2.0,2.0,0.0,6.0,6.0,594.0183710008569,2.0,1.0,phase_2,go,350.0,350.0,1.0,,,,,,,,,blue,triangle
0.0,2.0,2.0,0.0,5.0,5.0,578.8433039997471,2.0,1.0,phase_2,go,350.0,350.0,1.0,,,,,,,,,blue,triangle
0.0,1.0,1.0,0.0,5.0,5.0,415.5886160006048,2.0,1.0,phase_2,go,350.0,350.0,1.0,,,,,,,,,orange,I
0.0,2.0,2.0,0.0,6.0,6.0,533.2192740024766,2.0,1.0,phase_2,go,350.0,350.0,1.0,,,,,,,,,blue,triangle
0.0,5.0,1.0,1.0,6.0,6.0,371.9008670013863,2.0,1.0,phase_2,go,350.0,350.0,1.0,,,,,,,,,yellow,square
0.0,5.0,1.0,1.0,6.0,6.0,320.9890780017304,2.0,1.0,phase_2,stop,350.0,350.0,3.0,,,,,,,,,yellow,square
0.0,7.0,3.0,1.0,5.0,5.0,590.1377090012829,2.0,1.0,phase_2,go,350.0,300.0,1.0,,,,,,,,,white,hexagon
0.0,8.0,4.0,1.0,6.0,6.0,268.2700340010342,2.0,1.0,phase_2,stop,350.0,300.0,3.0,,,,,,,,,magenta,flipped triangle
0.0,3.0,3.0,0.0,6.0,6.0,363.7640199995076,2.0,1.0,phase_2,go,350.0,250.0,1.0,,,,,,,,,green,diamond
0.0,6.0,2.0,1.0,6.0,6.0,538.9532139997755,2.0,1.0,phase_2,go,350.0,250.0,1.0,,,,,,,,,cyan,cross
0.0,6.0,2.0,1.0,6.0,0.0,0.0,2.0,1.0,phase_2,stop,350.0,250.0,4.0,,,,,,,,,cyan,cross
0.0,1.0,1.0,0.0,5.0,5.0,470.2344789984636,2.0,1.0,phase_2,go,350.0,300.0,1.0,,,,,,,,,orange,I
0.0,2.0,2.0,0.0,6.0,6.0,407.344560000638,2.0,1.0,phase_2,go,350.0,300.0,1.0,,,,,,,,,blue,triangle
0.0,2.0,2.0,0.0,6.0,6.0,579.9901960017451,2.0,1.0,phase_2,go,350.0,300.0,1.0,,,,,,,,,blue,triangle
0.0,7.0,3.0,1.0,6.0,0.0,0.0,2.0,1.0,phase_2,stop,350.0,300.0,4.0,,,,,,,,,white,hexagon
0.0,4.0,4.0,0.0,6.0,6.0,580.9261639988108,2.0,1.0,phase_2,go,350.0,350.0,1.0,,,,,,,,,gray,circle
0.0,1.0,1.0,0.0,6.0,6.0,322.89507699897507,2.0,1.0,phase_2,go,350.0,350.0,1.0,,,,,,,,,orange,I
0.0,4.0,4.0,0.0,5.0,5.0,474.1075720012304,2.0,1.0,phase_2,go,350.0,350.0,1.0,,,,,,,,,gray,circle
0.0,1.0,1.0,0.0,6.0,6.0,270.0105010007974,2.0,1.0,phase_2,go,350.0,350.0,1.0,,,,,,,,,orange,I
0.0,7.0,3.0,1.0,6.0,6.0,345.5286139978852,2.0,1.0,phase_2,stop,350.0,350.0,3.0,,,,,,,,,white,hexagon
0.0,8.0,4.0,1.0,6.0,6.0,362.4032929983514,2.0,1.0,phase_2,go,350.0,300.0,1.0,,,,,,,,,magenta,flipped triangle
0.0,3.0,3.0,0.0,5.0,5.0,297.8436249977676,2.0,1.0,phase_2,go,350.0,300.0,1.0,,,,,,,,,green,diamond
0.0,1.0,1.0,0.0,6.0,6.0,311.2843460003205,2.0,1.0,phase_2,go,350.0,300.0,1.0,,,,,,,,,orange,I
0.0,4.0,4.0,0.0,5.0,5.0,271.2027230008971,2.0,1.0,phase_2,go,350.0,300.0,1.0,,,,,,,,,gray,circle
0.0,8.0,4.0,1.0,6.0,6.0,559.7343299996282,2.0,1.0,phase_2,stop,350.0,300.0,3.0,,,,,,,,,magenta,flipped triangle
0.0,3.0,3.0,0.0,6.0,6.0,298.233903999062,2.0,1.0,phase_2,go,350.0,250.0,1.0,,,,,,,,,green,diamond
0.0,3.0,3.0,0.0,6.0,6.0,358.5036519980349,2.0,1.0,phase_2,go,350.0,250.0,1.0,,,,,,,,,green,diamond
0.0,7.0,3.0,1.0,6.0,0.0,0.0,3.0,1.0,phase_2,stop,350.0,250.0,4.0,,,,,,,,,white,hexagon
0.0,8.0,4.0,1.0,6.0,0.0,0.0,3.0,1.0,phase_2,stop,350.0,300.0,4.0,,,,,,,,,magenta,flipped triangle
0.0,3.0,3.0,0.0,6.0,6.0,559.5239770009357,3.0,1.0,phase_2,go,350.0,350.0,1.0,,,,,,,,,green,diamond
0.0,3.0,3.0,0.0,5.0,5.0,418.83288399913,3.0,1.0,phase_2,go,350.0,350.0,1.0,,,,,,,,,green,diamond
0.0,8.0,4.0,1.0,6.0,6.0,461.6176620002079,3.0,1.0,phase_2,stop,350.0,350.0,3.0,,,,,,,,,magenta,flipped triangle
0.0,8.0,4.0,1.0,5.0,5.0,422.6032679980562,3.0,1.0,phase_2,stop,350.0,300.0,3.0,,,,,,,,,magenta,flipped triangle
0.0,3.0,3.0,0.0,5.0,5.0,600.8317710002302,3.0,1.0,phase_2,go,300.0,300.0,1.0,,,,,,,,,green,diamond
0.0,1.0,1.0,0.0,6.0,6.0,400.7441530011419,3.0,1.0,phase_2,go,300.0,300.0,1.0,,,,,,,,,orange,I
0.0,4.0,4.0,0.0,5.0,5.0,579.1757080005482,3.0,1.0,phase_2,go,300.0,300.0,1.0,,,,,,,,,gray,circle
0.0,3.0,3.0,0.0,6.0,6.0,395.9518709998519,3.0,1.0,phase_2,go,300.0,300.0,1.0,,,,,,,,,green,diamond
0.0,3.0,3.0,0.0,6.0,6.0,373.3628139998473,3.0,1.0,phase_2,go,300.0,300.0,1.0,,,,,,,,,green,diamond
0.0,2.0,2.0,0.0,5.0,5.0,357.0316369987267,3.0,1.0,phase_2,go,300.0,300.0,1.0,,,,,,,,,blue,triangle
0.0,4.0,4.0,0.0,5.0,5.0,460.5870719969971,3.0,1.0,phase_2,go,300.0,300.0,1.0,,,,,,,,,gray,circle
0.0,6.0,2.0,1.0,6.0,0.0,0.0,3.0,1.0,phase_2,stop,300.0,300.0,4.0,,,,,,,,,cyan,cross
0.0,6.0,2.0,1.0,6.0,6.0,697.0127929998853,3.0,1.0,phase_2,go,300.0,350.0,1.0,,,,,,,,,cyan,cross
0.0,7.0,3.0,1.0,6.0,0.0,0.0,3.0,1.0,phase_2,stop,300.0,350.0,4.0,,,,,,,,,white,hexagon
0.0,7.0,3.0,1.0,5.0,0.0,0.0,3.0,1.0,phase_2,stop,300.0,400.0,4.0,,,,,,,,,white,hexagon
0.0,4.0,4.0,0.0,6.0,6.0,586.7154850020597,3.0,1.0,phase_2,go,350.0,400.0,1.0,,,,,,,,,gray,circle
0.0,6.0,2.0,1.0,6.0,6.0,536.6997310011357,3.0,1.0,phase_2,go,350.0,400.0,1.0,,,,,,,,,cyan,cross
0.0,2.0,2.0,0.0,5.0,5.0,505.8155650003755,3.0,1.0,phase_2,go,350.0,400.0,1.0,,,,,,,,,blue,triangle
0.0,4.0,4.0,0.0,6.0,6.0,603.1430570001248,3.0,1.0,phase_2,go,350.0,400.0,1.0,,,,,,,,,gray,circle
0.0,4.0,4.0,0.0,5.0,5.0,823.3257860010781,3.0,1.0,phase_2,go,350.0,400.0,1.0,,,,,,,,,gray,circle
0.0,8.0,4.0,1.0,6.0,0.0,0.0,3.0,1.0,phase_2,stop,350.0,400.0,4.0,,,,,,,,,magenta,flipped triangle
0.0,4.0,4.0,0.0,5.0,5.0,676.97262600268,3.0,1.0,phase_2,go,350.0,450.0,1.0,,,,,,,,,gray,circle
0.0,7.0,3.0,1.0,6.0,0.0,0.0,3.0,1.0,phase_2,stop,350.0,450.0,4.0,,,,,,,,,white,hexagon
0.0,8.0,4.0,1.0,6.0,0.0,0.0,3.0,1.0,phase_2,stop,350.0,500.0,4.0,,,,,,,,,magenta,flipped triangle
0.0,4.0,4.0,0.0,6.0,6.0,835.8888809998462,3.0,1.0,phase_2,go,350.0,550.0,1.0,,,,,,,,,gray,circle
0.0,2.0,2.0,0.0,5.0,5.0,686.0088269968401,3.0,1.0,phase_2,go,350.0,550.0,1.0,,,,,,,,,blue,triangle
0.0,7.0,3.0,1.0,6.0,0.0,0.0,3.0,1.0,phase_2,stop,350.0,550.0,4.0,,,,,,,,,white,hexagon
0.0,1.0,1.0,0.0,5.0,5.0,750.7149580014811,3.0,1.0,phase_2,go,350.0,600.0,1.0,,,,,,,,,orange,I
0.0,6.0,2.0,1.0,6.0,0.0,0.0,3.0,1.0,phase_2,stop,350.0,600.0,4.0,,,,,,,,,cyan,cross
0.0,5.0,1.0,1.0,5.0,0.0,0.0,3.0,1.0,phase_2,stop,350.0,650.0,4.0,,,,,,,,,yellow,square
0.0,5.0,1.0,1.0,6.0,6.0,727.491818000999,3.0,1.0,phase_2,stop,400.0,650.0,3.0,,,,,,,,,yellow,square
0.0,7.0,3.0,1.0,6.0,6.0,957.8913920013292,3.0,1.0,phase_2,go,400.0,600.0,1.0,,,,,,,,,white,hexagon
0.0,6.0,2.0,1.0,6.0,6.0,943.3687110031316,3.0,1.0,phase_2,go,400.0,600.0,1.0,,,,,,,,,cyan,cross
0.0,7.0,3.0,1.0,5.0,0.0,0.0,3.0,1.0,phase_2,stop,400.0,600.0,4.0,,,,,,,,,white,hexagon
0.0,8.0,4.0,1.0,5.0,0.0,0.0,4.0,1.0,phase_2,stop,450.0,600.0,4.0,,,,,,,,,magenta,flipped triangle
0.0,6.0,2.0,1.0,5.0,0.0,0.0,4.0,1.0,phase_2,stop,500.0,600.0,4.0,,,,,,,,,cyan,cross
0.0,3.0,3.0,0.0,6.0,6.0,574.9480429985852,4.0,1.0,phase_2,go,550.0,600.0,1.0,,,,,,,,,green,diamond
0.0,7.0,3.0,1.0,6.0,0.0,0.0,4.0,1.0,phase_2,stop,550.0,600.0,4.0,,,,,,,,,white,hexagon
0.0,2.0,2.0,0.0,6.0,6.0,811.0008769981505,4.0,1.0,phase_2,go,550.0,650.0,1.0,,,,,,,,,blue,triangle
0.0,3.0,3.0,0.0,5.0,5.0,803.0184700000973,4.0,1.0,phase_2,go,550.0,650.0,1.0,,,,,,,,,green,diamond
0.0,6.0,2.0,1.0,5.0,0.0,0.0,4.0,1.0,phase_2,stop,550.0,650.0,4.0,,,,,,,,,cyan,cross
0.0,1.0,1.0,0.0,6.0,6.0,814.24868799877,4.0,1.0,phase_2,go,600.0,650.0,1.0,,,,,,,,,orange,I
0.0,7.0,3.0,1.0,6.0,6.0,816.37965399932,4.0,1.0,phase_2,stop,600.0,650.0,3.0,,,,,,,,,white,hexagon
0.0,2.0,2.0,0.0,6.0,6.0,1026.093197000591,4.0,1.0,phase_2,go,600.0,600.0,1.0,,,,,,,,,blue,triangle
0.0,2.0,2.0,0.0,6.0,6.0,760.0362029988901,4.0,1.0,phase_2,go,600.0,600.0,1.0,,,,,,,,,blue,triangle
0.0,7.0,3.0,1.0,5.0,0.0,0.0,4.0,1.0,phase_2,stop,600.0,600.0,4.0,,,,,,,,,white,hexagon
0.0,8.0,4.0,1.0,5.0,0.0,0.0,4.0,1.0,phase_2,stop,650.0,600.0,4.0,,,,,,,,,magenta,flipped triangle
0.0,1.0,1.0,0.0,6.0,6.0,658.1770970005891,4.0,1.0,phase_2,go,700.0,600.0,1.0,,,,,,,,,orange,I
0.0,4.0,4.0,0.0,6.0,6.0,980.3477349996684,4.0,1.0,phase_2,go,700.0,600.0,1.0,,,,,,,,,gray,circle
0.0,8.0,4.0,1.0,6.0,0.0,0.0,4.0,1.0,phase_2,stop,700.0,600.0,4.0,,,,,,,,,magenta,flipped triangle
0.0,8.0,4.0,1.0,5.0,5.0,984.2801800004964,4.0,1.0,phase_2,go,700.0,650.0,1.0,,,,,,,,,magenta,flipped triangle
0.0,5.0,1.0,1.0,5.0,5.0,872.3287569991953,4.0,1.0,phase_2,stop,700.0,650.0,3.0,,,,,,,,,yellow,square
0.0,4.0,4.0,0.0,6.0,6.0,1266.0498529985489,4.0,1.0,phase_2,go,650.0,650.0,1.0,,,,,,,,,gray,circle
0.0,5.0,1.0,1.0,6.0,0.0,0.0,4.0,1.0,phase_2,stop,650.0,650.0,4.0,,,,,,,,,yellow,square
0.0,8.0,4.0,1.0,5.0,5.0,784.0728119990672,4.0,1.0,phase_2,stop,650.0,700.0,3.0,,,,,,,,,magenta,flipped triangle
0.0,5.0,1.0,1.0,6.0,6.0,1063.7947899995197,4.0,1.0,phase_2,go,600.0,700.0,1.0,,,,,,,,,yellow,square
0.0,1.0,1.0,0.0,5.0,5.0,1191.163282001071,4.0,1.0,phase_2,go,600.0,700.0,1.0,,,,,,,,,orange,I
0.0,7.0,3.0,1.0,5.0,0.0,0.0,4.0,1.0,phase_2,stop,600.0,700.0,4.0,,,,,,,,,white,hexagon
0.0,6.0,2.0,1.0,5.0,0.0,0.0,4.0,1.0,phase_2,stop,650.0,700.0,4.0,,,,,,,,,cyan,cross
0.0,4.0,4.0,0.0,6.0,6.0,851.0091659991303,4.0,1.0,phase_2,go,700.0,700.0,1.0,,,,,,,,,gray,circle
0.0,1.0,1.0,0.0,5.0,5.0,943.2836099986162,4.0,1.0,phase_2,go,700.0,700.0,1.0,,,,,,,,,orange,I
0.0,1.0,1.0,0.0,5.0,5.0,926.6885580000236,4.0,1.0,phase_2,go,700.0,700.0,1.0,,,,,,,,,orange,I
0.0,6.0,2.0,1.0,6.0,6.0,946.2242159970627,4.0,1.0,phase_2,go,700.0,700.0,1.0,,,,,,,,,cyan,cross
0.0,1.0,1.0,0.0,6.0,6.0,885.4321999970125,4.0,1.0,phase_2,go,700.0,700.0,1.0,,,,,,,,,orange,I
0.0,1.0,1.0,0.0,6.0,6.0,417.4670949978463,4.0,1.0,phase_2,go,700.0,700.0,1.0,,,,,,,,,orange,I
0.0,3.0,3.0,0.0,6.0,6.0,717.3946799994155,4.0,1.0,phase_2,go,700.0,700.0,1.0,,,,,,,,,green,diamond
0.0,6.0,2.0,1.0,5.0,5.0,831.4037359996291,4.0,1.0,phase_2,stop,700.0,700.0,3.0,,,,,,,,,cyan,cross
0.0,1.0,1.0,0.0,5.0,5.0,1196.7552639980568,4.0,1.0,phase_2,go,650.0,700.0,1.0,,,,,,,,,orange,I
0.0,7.0,3.0,1.0,6.0,0.0,0.0,4.0,1.0,phase_2,stop,650.0,700.0,4.0,,,,,,,,,white,hexagon
0.0,1.0,1.0,0.0,6.0,6.0,1026.6533579997486,4.0,1.0,phase_2,go,650.0,750.0,1.0,,,,,,,,,orange,I
0.0,2.0,2.0,0.0,6.0,6.0,333.7083129990787,5.0,1.0,phase_2,go,650.0,750.0,1.0,,,,,,,,,blue,triangle
0.0,2.0,2.0,0.0,6.0,6.0,602.6734670012956,5.0,1.0,phase_2,go,650.0,750.0,1.0,,,,,,,,,blue,triangle
0.0,2.0,2.0,0.0,6.0,6.0,396.3843940000515,5.0,1.0,phase_2,go,650.0,750.0,1.0,,,,,,,,,blue,triangle
0.0,8.0,4.0,1.0,5.0,5.0,469.8558359996241,5.0,1.0,phase_2,stop,650.0,750.0,3.0,,,,,,,,,magenta,flipped triangle
0.0,6.0,2.0,1.0,5.0,5.0,638.3216200010793,5.0,1.0,phase_2,stop,600.0,750.0,3.0,,,,,,,,,cyan,cross
0.0,7.0,3.0,1.0,6.0,6.0,456.6252999975404,5.0,1.0,phase_2,go,550.0,750.0,1.0,,,,,,,,,white,hexagon
0.0,8.0,4.0,1.0,5.0,5.0,450.7223330001579,5.0,1.0,phase_2,stop,550.0,750.0,3.0,,,,,,,,,magenta,flipped triangle
0.0,2.0,2.0,0.0,5.0,5.0,808.7880999992194,5.0,1.0,phase_2,go,500.0,750.0,1.0,,,,,,,,,blue,triangle
0.0,4.0,4.0,0.0,6.0,6.0,486.6847119992599,5.0,1.0,phase_2,go,500.0,750.0,1.0,,,,,,,,,gray,circle
0.0,8.0,4.0,1.0,5.0,0.0,0.0,5.0,1.0,phase_2,stop,500.0,750.0,4.0,,,,,,,,,magenta,flipped triangle
0.0,5.0,1.0,1.0,6.0,6.0,761.397559002944,5.0,1.0,phase_2,go,550.0,750.0,1.0,,,,,,,,,yellow,square
0.0,2.0,2.0,0.0,6.0,6.0,581.4451280020876,5.0,1.0,phase_2,go,550.0,750.0,1.0,,,,,,,,,blue,triangle
0.0,3.0,3.0,0.0,5.0,5.0,724.656705999223,5.0,1.0,phase_2,go,550.0,750.0,1.0,,,,,,,,,green,diamond
0.0,5.0,1.0,1.0,6.0,6.0,441.1004909998155,5.0,1.0,phase_2,stop,550.0,750.0,3.0,,,,,,,,,yellow,square
0.0,5.0,1.0,1.0,6.0,6.0,527.2299690004729,5.0,1.0,phase_2,stop,550.0,700.0,3.0,,,,,,,,,yellow,square
0.0,5.0,1.0,1.0,5.0,5.0,478.1522749981377,5.0,1.0,phase_2,stop,550.0,650.0,3.0,,,,,,,,,yellow,square
0.0,2.0,2.0,0.0,5.0,5.0,858.7196349981241,5.0,1.0,phase_2,go,500.0,650.0,1.0,,,,,,,,,blue,triangle
0.0,5.0,1.0,1.0,5.0,5.0,316.1064849991817,5.0,1.0,phase_2,stop,500.0,650.0,3.0,,,,,,,,,yellow,square
0.0,3.0,3.0,0.0,5.0,5.0,281.9590239996614,5.0,1.0,phase_2,go,450.0,650.0,1.0,,,,,,,,,green,diamond
0.0,6.0,2.0,1.0,5.0,0.0,0.0,5.0,1.0,phase_2,stop,450.0,650.0,4.0,,,,,,,,,cyan,cross
0.0,3.0,3.0,0.0,6.0,6.0,631.5549460014154,5.0,1.0,phase_2,go,500.0,650.0,1.0,,,,,,,,,green,diamond
0.0,5.0,1.0,1.0,5.0,0.0,0.0,5.0,1.0,phase_2,stop,500.0,650.0,4.0,,,,,,,,,yellow,square
0.0,4.0,4.0,0.0,5.0,5.0,818.9873390001594,5.0,1.0,phase_2,go,550.0,650.0,1.0,,,,,,,,,gray,circle
0.0,7.0,3.0,1.0,5.0,5.0,664.9640089999593,5.0,1.0,phase_2,stop,550.0,650.0,3.0,,,,,,,,,white,hexagon
0.0,1.0,1.0,0.0,6.0,6.0,817.7047249992029,5.0,1.0,phase_2,go,500.0,650.0,1.0,,,,,,,,,orange,I
0.0,7.0,3.0,1.0,5.0,0.0,0.0,5.0,1.0,phase_2,stop,500.0,650.0,4.0,,,,,,,,,white,hexagon
0.0,5.0,1.0,1.0,5.0,0.0,0.0,5.0,1.0,phase_2,stop,550.0,650.0,4.0,,,,,,,,,yellow,square
0.0,6.0,2.0,1.0,6.0,6.0,701.3847670023097,5.0,1.0,phase_2,stop,600.0,650.0,3.0,,,,,,,,,cyan,cross
0.0,8.0,4.0,1.0,5.0,5.0,814.532809999946,5.0,1.0,phase_2,go,600.0,600.0,1.0,,,,,,,,,magenta,flipped triangle
0.0,8.0,4.0,1.0,5.0,5.0,638.2032619985694,5.0,1.0,phase_2,stop,600.0,600.0,3.0,,,,,,,,,magenta,flipped triangle
0.0,5.0,1.0,1.0,6.0,6.0,402.900454999326,5.0,1.0,phase_2,go,550.0,600.0,1.0,,,,,,,,,yellow,square
0.0,2.0,2.0,0.0,5.0,5.0,801.3132939995558,5.0,1.0,phase_2,go,550.0,600.0,1.0,,,,,,,,,blue,triangle
0.0,7.0,3.0,1.0,5.0,5.0,374.5036699983757,5.0,1.0,phase_2,go,550.0,600.0,1.0,,,,,,,,,white,hexagon
0.0,5.0,1.0,1.0,5.0,5.0,317.6167239980714,5.0,1.0,phase_2,go,550.0,600.0,1.0,,,,,,,,,yellow,square
0.0,3.0,3.0,0.0,6.0,6.0,798.5982589998457,5.0,1.0,phase_2,go,550.0,600.0,1.0,,,,,,,,,green,diamond
0.0,8.0,4.0,1.0,5.0,0.0,0.0,5.0,1.0,phase_2,stop,550.0,600.0,4.0,,,,,,,,,magenta,flipped triangle
0.0,3.0,3.0,0.0,5.0,5.0,326.5505259987549,6.0,1.0,phase_2,go,600.0,600.0,1.0,,,,,,,,,green,diamond
0.0,7.0,3.0,1.0,6.0,6.0,434.4634209992364,6.0,1.0,phase_2,stop,600.0,600.0,3.0,,,,,,,,,white,hexagon
0.0,6.0,2.0,1.0,6.0,6.0,397.623606997513,6.0,1.0,phase_2,stop,600.0,550.0,3.0,,,,,,,,,cyan,cross
0.0,2.0,2.0,0.0,5.0,5.0,626.6718200022297,6.0,1.0,phase_2,go,600.0,500.0,1.0,,,,,,,,,blue,triangle
0.0,6.0,2.0,1.0,5.0,5.0,369.4617929977539,6.0,1.0,phase_2,stop,600.0,500.0,3.0,,,,,,,,,cyan,cross
0.0,4.0,4.0,0.0,5.0,5.0,496.316572996875,6.0,1.0,phase_2,go,550.0,500.0,1.0,,,,,,,,,gray,circle
0.0,8.0,4.0,1.0,5.0,5.0,348.1409710002481,6.0,1.0,phase_2,stop,550.0,500.0,3.0,,,,,,,,,magenta,flipped triangle
0.0,6.0,2.0,1.0,5.0,5.0,319.5470430000569,6.0,1.0,phase_2,stop,500.0,500.0,3.0,,,,,,,,,cyan,cross
0.0,8.0,4.0,1.0,6.0,6.0,299.1679119986656,6.0,1.0,phase_2,go,450.0,500.0,1.0,,,,,,,,,magenta,flipped triangle
0.0,7.0,3.0,1.0,6.0,6.0,388.8424430006125,6.0,1.0,phase_2,stop,450.0,500.0,3.0,,,,,,,,,white,hexagon
0.0,6.0,2.0,1.0,5.0,0.0,0.0,6.0,1.0,phase_2,stop,450.0,450.0,4.0,,,,,,,,,cyan,cross
0.0,2.0,2.0,0.0,6.0,6.0,796.7734699996072,6.0,1.0,phase_2,go,500.0,450.0,1.0,,,,,,,,,blue,triangle
0.0,6.0,2.0,1.0,5.0,5.0,803.1848370010266,6.0,1.0,phase_2,go,500.0,450.0,1.0,,,,,,,,,cyan,cross
0.0,7.0,3.0,1.0,6.0,0.0,0.0,6.0,1.0,phase_2,stop,500.0,450.0,4.0,,,,,,,,,white,hexagon
0.0,2.0,2.0,0.0,5.0,5.0,727.1702349971747,6.0,1.0,phase_2,go,500.0,500.0,1.0,,,,,,,,,blue,triangle
0.0,4.0,4.0,0.0,5.0,5.0,720.4040579999855,6.0,1.0,phase_2,go,500.0,500.0,1.0,,,,,,,,,gray,circle
0.0,4.0,4.0,0.0,5.0,5.0,696.1808070009283,6.0,1.0,phase_2,go,500.0,500.0,1.0,,,,,,,,,gray,circle
0.0,3.0,3.0,0.0,5.0,5.0,526.738963999378,6.0,1.0,phase_2,go,500.0,500.0,1.0,,,,,,,,,green,diamond
0.0,7.0,3.0,1.0,5.0,5.0,746.1366970019299,6.0,1.0,phase_2,go,500.0,500.0,1.0,,,,,,,,,white,hexagon
0.0,3.0,3.0,0.0,6.0,6.0,686.0048149974318,6.0,1.0,phase_2,go,500.0,500.0,1.0,,,,,,,,,green,diamond
0.0,1.0,1.0,0.0,6.0,6.0,751.8616110028233,6.0,1.0,phase_2,go,500.0,500.0,1.0,,,,,,,,,orange,I
0.0,6.0,2.0,1.0,5.0,5.0,377.0979290020477,6.0,1.0,phase_2,stop,500.0,500.0,3.0,,,,,,,,,cyan,cross
0.0,4.0,4.0,0.0,6.0,6.0,571.6728740007966,6.0,1.0,phase_2,go,450.0,500.0,1.0,,,,,,,,,gray,circle
0.0,1.0,1.0,0.0,6.0,6.0,481.1931799995363,6.0,1.0,phase_2,go,450.0,500.0,1.0,,,,,,,,,orange,I
0.0,3.0,3.0,0.0,5.0,5.0,459.4684100011363,6.0,1.0,phase_2,go,450.0,500.0,1.0,,,,,,,,,green,diamond
0.0,1.0,1.0,0.0,5.0,5.0,468.081393999455,6.0,1.0,phase_2,go,450.0,500.0,1.0,,,,,,,,,orange,I
0.0,5.0,1.0,1.0,5.0,5.0,350.2912199983257,6.0,1.0,phase_2,go,450.0,500.0,1.0,,,,,,,,,yellow,square
0.0,1.0,1.0,0.0,5.0,5.0,391.1274100028095,6.0,1.0,phase_2,go,450.0,500.0,1.0,,,,,,,,,orange,I
0.0,5.0,1.0,1.0,5.0,5.0,338.960302000487,6.0,1.0,phase_2,stop,450.0,500.0,3.0,,,,,,,,,yellow,square
0.0,4.0,4.0,0.0,6.0,6.0,445.6640640019031,6.0,1.0,phase_2,go,400.0,500.0,1.0,,,,,,,,,gray,circle
0.0,3.0,3.0,0.0,6.0,6.0,368.2998299991595,6.0,1.0,phase_2,go,400.0,500.0,1.0,,,,,,,,,green,diamond
0.0,1.0,1.0,0.0,5.0,5.0,646.5669159988465,6.0,1.0,phase_2,go,400.0,500.0,1.0,,,,,,,,,orange,I
0.0,7.0,3.0,1.0,5.0,5.0,499.8938650023774,6.0,1.0,phase_2,go,400.0,500.0,1.0,,,,,,,,,white,hexagon
0.0,6.0,2.0,1.0,6.0,6.0,296.2267630027781,6.0,1.0,phase_2,stop,400.0,500.0,3.0,,,,,,,,,cyan,cross
0.0,8.0,4.0,1.0,6.0,6.0,553.7193630007096,6.0,1.0,phase_2,go,400.0,450.0,1.0,,,,,,,,,magenta,flipped triangle
0.0,5.0,1.0,1.0,5.0,5.0,340.5561270010366,6.0,1.0,phase_2,stop,400.0,450.0,3.0,,,,,,,,,yellow,square
0.0,7.0,3.0,1.0,5.0,5.0,383.4078489999228,7.0,1.0,phase_2,stop,350.0,450.0,3.0,,,,,,,,,white,hexagon
0.0,6.0,2.0,1.0,6.0,0.0,0.0,7.0,1.0,phase_2,stop,300.0,450.0,4.0,,,,,,,,,cyan,cross
0.0,2.0,2.0,0.0,5.0,5.0,778.7459220016899,7.0,1.0,phase_2,go,300.0,500.0,1.0,,,,,,,,,blue,triangle
0.0,5.0,1.0,1.0,5.0,0.0,0.0,7.0,1.0,phase_2,stop,300.0,500.0,4.0,,,,,,,,,yellow,square
0.0,8.0,4.0,1.0,5.0,0.0,0.0,7.0,1.0,phase_2,stop,350.0,500.0,4.0,,,,,,,,,magenta,flipped triangle
0.0,8.0,4.0,1.0,5.0,5.0,609.8404789991037,7.0,1.0,phase_2,go,400.0,500.0,1.0,,,,,,,,,magenta,flipped triangle
0.0,6.0,2.0,1.0,6.0,6.0,597.8191699978197,7.0,1.0,phase_2,go,400.0,500.0,1.0,,,,,,,,,cyan,cross
0.0,3.0,3.0,0.0,5.0,5.0,517.8640379999706,7.0,1.0,phase_2,go,400.0,500.0,1.0,,,,,,,,,green,diamond
0.0,8.0,4.0,1.0,6.0,6.0,274.5286469980783,7.0,1.0,phase_2,stop,400.0,500.0,3.0,,,,,,,,,magenta,flipped triangle
0.0,2.0,2.0,0.0,5.0,5.0,295.6438479995995,7.0,1.0,phase_2,go,400.0,450.0,1.0,,,,,,,,,blue,triangle
0.0,5.0,1.0,1.0,6.0,6.0,334.7798219983815,7.0,1.0,phase_2,stop,400.0,450.0,3.0,,,,,,,,,yellow,square
0.0,3.0,3.0,0.0,6.0,6.0,374.2757650034036,7.0,1.0,phase_2,go,400.0,400.0,1.0,,,,,,,,,green,diamond
0.0,8.0,4.0,1.0,5.0,5.0,510.61659500192036,7.0,1.0,phase_2,stop,400.0,400.0,3.0,,,,,,,,,magenta,flipped triangle
0.0,6.0,2.0,1.0,5.0,5.0,392.2257779995561,7.0,1.0,phase_2,stop,350.0,400.0,3.0,,,,,,,,,cyan,cross
0.0,8.0,4.0,1.0,5.0,5.0,281.4176559986663,7.0,1.0,phase_2,stop,300.0,400.0,3.0,,,,,,,,,magenta,flipped triangle
0.0,4.0,4.0,0.0,5.0,5.0,501.3624979983433,7.0,1.0,phase_2,go,250.0,400.0,1.0,,,,,,,,,gray,circle
0.0,4.0,4.0,0.0,6.0,6.0,637.8744510002434,7.0,1.0,phase_2,go,250.0,400.0,1.0,,,,,,,,,gray,circle
0.0,1.0,1.0,0.0,6.0,6.0,414.9090099999739,7.0,1.0,phase_2,go,250.0,400.0,1.0,,,,,,,,,orange,I
0.0,4.0,4.0,0.0,5.0,5.0,281.1595859966473,7.0,1.0,phase_2,go,250.0,400.0,1.0,,,,,,,,,gray,circle
0.0,1.0,1.0,0.0,5.0,5.0,350.2896140016673,7.0,1.0,phase_2,go,250.0,400.0,1.0,,,,,,,,,orange,I
0.0,1.0,1.0,0.0,6.0,6.0,293.8252780004404,7.0,1.0,phase_2,go,250.0,400.0,1.0,,,,,,,,,orange,I
0.0,4.0,4.0,0.0,6.0,6.0,325.9828209993429,7.0,1.0,phase_2,go,250.0,400.0,1.0,,,,,,,,,gray,circle
0.0,5.0,1.0,1.0,6.0,6.0,339.334031999897,7.0,1.0,phase_2,stop,250.0,400.0,3.0,,,,,,,,,yellow,square
0.0,7.0,3.0,1.0,6.0,6.0,309.5565929979784,7.0,1.0,phase_2,stop,250.0,350.0,3.0,,,,,,,,,white,hexagon
0.0,3.0,3.0,0.0,5.0,5.0,648.5656029981328,7.0,1.0,phase_2,go,250.0,300.0,1.0,,,,,,,,,green,diamond
0.0,1.0,1.0,0.0,5.0,5.0,727.1324469984393,7.0,1.0,phase_2,go,250.0,300.0,1.0,,,,,,,,,orange,I
0.0,1.0,1.0,0.0,6.0,6.0,662.4006810015999,7.0,1.0,phase_2,go,250.0,300.0,1.0,,,,,,,,,orange,I
0.0,1.0,1.0,0.0,5.0,5.0,653.2010980008636,7.0,1.0,phase_2,go,250.0,300.0,1.0,,,,,,,,,orange,I
0.0,5.0,1.0,1.0,5.0,0.0,0.0,7.0,1.0,phase_2,stop,250.0,300.0,4.0,,,,,,,,,yellow,square
0.0,8.0,4.0,1.0,6.0,0.0,0.0,7.0,1.0,phase_2,stop,300.0,300.0,4.0,,,,,,,,,magenta,flipped triangle
0.0,5.0,1.0,1.0,5.0,5.0,755.6013989997155,7.0,1.0,phase_2,go,300.0,350.0,1.0,,,,,,,,,yellow,square
0.0,6.0,2.0,1.0,6.0,0.0,0.0,7.0,1.0,phase_2,stop,300.0,350.0,4.0,,,,,,,,,cyan,cross
0.0,1.0,1.0,0.0,6.0,6.0,748.2656169995607,7.0,1.0,phase_2,go,300.0,400.0,1.0,,,,,,,,,orange,I
0.0,5.0,1.0,1.0,5.0,0.0,0.0,7.0,1.0,phase_2,stop,300.0,400.0,4.0,,,,,,,,,yellow,square
0.0,2.0,2.0,0.0,6.0,6.0,684.4233960000565,7.0,1.0,phase_2,go,350.0,400.0,1.0,,,,,,,,,blue,triangle
0.0,5.0,1.0,1.0,5.0,0.0,0.0,7.0,1.0,phase_2,stop,350.0,400.0,4.0,,,,,,,,,yellow,square
0.0,3.0,3.0,0.0,5.0,5.0,904.9879019985384,8.0,1.0,phase_2,go,400.0,400.0,1.0,,,,,,,,,green,diamond
0.0,6.0,2.0,1.0,5.0,5.0,512.936017003085,8.0,1.0,phase_2,stop,400.0,400.0,3.0,,,,,,,,,cyan,cross
0.0,3.0,3.0,0.0,5.0,5.0,835.8401029981906,8.0,1.0,phase_2,go,350.0,400.0,1.0,,,,,,,,,green,diamond
0.0,3.0,3.0,0.0,5.0,5.0,630.9559610017459,8.0,1.0,phase_2,go,350.0,400.0,1.0,,,,,,,,,green,diamond
0.0,5.0,1.0,1.0,6.0,0.0,0.0,8.0,1.0,phase_2,stop,350.0,400.0,4.0,,,,,,,,,yellow,square
0.0,5.0,1.0,1.0,6.0,0.0,0.0,8.0,1.0,phase_2,stop,350.0,450.0,4.0,,,,,,,,,yellow,square
0.0,3.0,3.0,0.0,5.0,5.0,770.4887529980624,8.0,1.0,phase_2,go,350.0,500.0,1.0,,,,,,,,,green,diamond
0.0,1.0,1.0,0.0,5.0,5.0,726.0232400003588,8.0,1.0,phase_2,go,350.0,500.0,1.0,,,,,,,,,orange,I
0.0,1.0,1.0,0.0,6.0,6.0,615.1379170005384,8.0,1.0,phase_2,go,350.0,500.0,1.0,,,,,,,,,orange,I
0.0,7.0,3.0,1.0,5.0,0.0,0.0,8.0,1.0,phase_2,stop,350.0,500.0,4.0,,,,,,,,,white,hexagon
0.0,4.0,4.0,0.0,6.0,6.0,670.8565100016131,8.0,1.0,phase_2,go,400.0,500.0,1.0,,,,,,,,,gray,circle
0.0,2.0,2.0,0.0,5.0,5.0,639.645785002358,8.0,1.0,phase_2,go,400.0,500.0,1.0,,,,,,,,,blue,triangle
0.0,8.0,4.0,1.0,6.0,6.0,531.8042369981413,8.0,1.0,phase_2,stop,400.0,500.0,3.0,,,,,,,,,magenta,flipped triangle
0.0,3.0,3.0,0.0,5.0,5.0,748.6647160003486,8.0,1.0,phase_2,go,400.0,450.0,1.0,,,,,,,,,green,diamond
0.0,7.0,3.0,1.0,5.0,0.0,0.0,8.0,1.0,phase_2,stop,400.0,450.0,4.0,,,,,,,,,white,hexagon
0.0,4.0,4.0,0.0,6.0,6.0,641.4283730009629,8.0,1.0,phase_2,go,450.0,450.0,1.0,,,,,,,,,gray,circle
0.0,7.0,3.0,1.0,5.0,5.0,729.4686890018056,8.0,1.0,phase_2,go,450.0,450.0,1.0,,,,,,,,,white,hexagon
0.0,8.0,4.0,1.0,6.0,0.0,0.0,8.0,1.0,phase_2,stop,450.0,450.0,4.0,,,,,,,,,magenta,flipped triangle
0.0,5.0,1.0,1.0,5.0,0.0,0.0,8.0,1.0,phase_2,stop,450.0,500.0,4.0,,,,,,,,,yellow,square
0.0,8.0,4.0,1.0,5.0,0.0,0.0,8.0,1.0,phase_2,stop,500.0,500.0,4.0,,,,,,,,,magenta,flipped triangle
0.0,4.0,4.0,0.0,5.0,5.0,640.248938001605,8.0,1.0,phase_2,go,550.0,500.0,1.0,,,,,,,,,gray,circle
0.0,6.0,2.0,1.0,5.0,5.0,676.2403700013238,8.0,1.0,phase_2,stop,550.0,500.0,3.0,,,,,,,,,cyan,cross
0.0,5.0,1.0,1.0,6.0,0.0,0.0,8.0,1.0,phase_2,stop,500.0,500.0,4.0,,,,,,,,,yellow,square
0.0,3.0,3.0,0.0,6.0,6.0,659.196830001747,8.0,1.0,phase_2,go,500.0,550.0,1.0,,,,,,,,,green,diamond
0.0,6.0,2.0,1.0,6.0,0.0,0.0,8.0,1.0,phase_2,stop,500.0,550.0,4.0,,,,,,,,,cyan,cross
0.0,4.0,4.0,0.0,5.0,5.0,748.8618110000971,8.0,1.0,phase_2,go,500.0,600.0,1.0,,,,,,,,,gray,circle
0.0,2.0,2.0,0.0,5.0,5.0,804.0929259987024,8.0,1.0,phase_2,go,500.0,600.0,1.0,,,,,,,,,blue,triangle
0.0,7.0,3.0,1.0,5.0,5.0,549.9771350005176,8.0,1.0,phase_2,stop,500.0,600.0,3.0,,,,,,,,,white,hexagon
0.0,6.0,2.0,1.0,6.0,6.0,751.6816440002003,8.0,1.0,phase_2,go,450.0,600.0,1.0,,,,,,,,,cyan,cross
0.0,8.0,4.0,1.0,6.0,6.0,354.4321119989035,8.0,1.0,phase_2,stop,450.0,600.0,3.0,,,,,,,,,magenta,flipped triangle
0.0,7.0,3.0,1.0,5.0,0.0,0.0,8.0,1.0,phase_2,stop,450.0,550.0,4.0,,,,,,,,,white,hexagon
0.0,2.0,2.0,0.0,6.0,6.0,604.1327929997351,8.0,1.0,phase_2,go,500.0,550.0,1.0,,,,,,,,,blue,triangle
0.0,2.0,2.0,0.0,6.0,6.0,319.2450019996613,8.0,1.0,phase_2,go,500.0,550.0,1.0,,,,,,,,,blue,triangle
0.0,5.0,1.0,1.0,5.0,0.0,0.0,8.0,1.0,phase_2,stop,500.0,550.0,4.0,,,,,,,,,yellow,square
0.0,8.0,4.0,1.0,5.0,5.0,1030.8456709972234,8.0,1.0,phase_2,go,550.0,550.0,1.0,,,,,,,,,magenta,flipped triangle
0.0,4.0,4.0,0.0,5.0,5.0,722.5978059977933,8.0,1.0,phase_2,go,550.0,550.0,1.0,,,,,,,,,gray,circle
0.0,5.0,1.0,1.0,7.0,5.0,3636.970551000559,1.0,1.0,phase_3,,,,,195.0,5.0,156.0,39.0,234.0,78.0,195.0,117.0,yellow,square
0.0,2.0,2.0,0.0,7.0,2.0,3200.1179680009955,1.0,1.0,phase_3,,,,,136.0,4.0,68.0,136.0,34.0,102.0,170.0,204.0,blue,triangle
0.0,3.0,3.0,0.0,7.0,5.0,4438.546213998052,1.0,1.0,phase_3,,,,,132.0,3.0,220.0,176.0,88.0,44.0,132.0,264.0,green,diamond
0.0,7.0,3.0,1.0,7.0,6.0,3015.975605001586,1.0,1.0,phase_3,,,,,49.0,1.0,294.0,98.0,196.0,147.0,245.0,49.0,white,hexagon
0.0,2.0,2.0,0.0,7.0,3.0,3901.0080420011946,1.0,1.0,phase_3,,,,,162.0,3.0,108.0,54.0,162.0,270.0,324.0,216.0,blue,triangle
0.0,8.0,4.0,1.0,7.0,1.0,3732.210258000123,1.0,1.0,phase_3,,,,,147.0,3.0,147.0,98.0,196.0,294.0,49.0,245.0,magenta,flipped triangle
0.0,4.0,4.0,0.0,7.0,6.0,2932.8286560012198,1.0,1.0,phase_3,,,,,216.0,4.0,270.0,324.0,108.0,54.0,162.0,216.0,gray,circle
0.0,6.0,2.0,1.0,7.0,4.0,2057.0739440008765,1.0,1.0,phase_3,,,,,102.0,3.0,34.0,136.0,204.0,102.0,68.0,170.0,cyan,cross
0.0,7.0,3.0,1.0,7.0,3.0,3347.760010001366,1.0,1.0,phase_3,,,,,196.0,4.0,98.0,49.0,196.0,294.0,245.0,147.0,white,hexagon
0.0,6.0,2.0,1.0,7.0,2.0,3734.458560000349,1.0,1.0,phase_3,,,,,195.0,5.0,156.0,195.0,78.0,39.0,234.0,117.0,cyan,cross
0.0,4.0,4.0,0.0,7.0,5.0,2301.053014001809,1.0,1.0,phase_3,,,,,245.0,5.0,98.0,49.0,294.0,147.0,245.0,196.0,gray,circle
0.0,8.0,4.0,1.0,7.0,3.0,3035.4803730006097,1.0,1.0,phase_3,,,,,147.0,3.0,98.0,245.0,147.0,49.0,196.0,294.0,magenta,flipped triangle
0.0,6.0,2.0,1.0,7.0,5.0,1872.6950970012692,1.0,1.0,phase_3,,,,,216.0,4.0,270.0,324.0,108.0,162.0,216.0,54.0,cyan,cross
0.0,2.0,2.0,0.0,7.0,2.0,2726.7347300003166,1.0,1.0,phase_3,,,,,147.0,3.0,98.0,147.0,196.0,294.0,49.0,245.0,blue,triangle
0.0,4.0,4.0,0.0,7.0,6.0,1805.712092002068,1.0,1.0,phase_3,,,,,245.0,5.0,196.0,49.0,98.0,294.0,147.0,245.0,gray,circle
0.0,6.0,2.0,1.0,7.0,4.0,1387.251156000275,1.0,1.0,phase_3,,,,,216.0,4.0,108.0,324.0,270.0,216.0,162.0,54.0,cyan,cross
0.0,8.0,4.0,1.0,7.0,2.0,1242.108643997199,1.0,1.0,phase_3,,,,,162.0,3.0,108.0,162.0,270.0,54.0,324.0,216.0,magenta,flipped triangle
0.0,1.0,1.0,0.0,7.0,3.0,1932.7515690019936,1.0,1.0,phase_3,,,,,78.0,2.0,39.0,117.0,78.0,234.0,156.0,195.0,orange,I
0.0,2.0,2.0,0.0,7.0,4.0,3017.4198480017367,1.0,1.0,phase_3,,,,,195.0,5.0,117.0,234.0,78.0,195.0,39.0,156.0,blue,triangle
0.0,3.0,3.0,0.0,7.0,1.0,986.9951990003756,1.0,1.0,phase_3,,,,,162.0,3.0,162.0,324.0,108.0,54.0,216.0,270.0,green,diamond
0.0,1.0,1.0,0.0,7.0,3.0,2435.013780999725,2.0,1.0,phase_3,,,,,68.0,2.0,204.0,136.0,68.0,102.0,34.0,170.0,orange,I
0.0,8.0,4.0,1.0,7.0,2.0,1409.3373660034558,2.0,1.0,phase_3,,,,,156.0,4.0,195.0,156.0,78.0,234.0,117.0,39.0,magenta,flipped triangle
0.0,3.0,3.0,0.0,7.0,4.0,1065.0623140027164,2.0,1.0,phase_3,,,,,204.0,6.0,102.0,170.0,68.0,204.0,136.0,34.0,green,diamond
0.0,7.0,3.0,1.0,7.0,1.0,1714.212351002061,2.0,1.0,phase_3,,,,,136.0,4.0,136.0,68.0,34.0,102.0,170.0,204.0,white,hexagon
0.0,5.0,1.0,1.0,7.0,6.0,1312.5472669999,2.0,1.0,phase_3,,,,,195.0,5.0,156.0,78.0,234.0,117.0,39.0,195.0,yellow,square
0.0,8.0,4.0,1.0,7.0,6.0,2140.6513019974227,2.0,1.0,phase_3,,,,,162.0,3.0,216.0,54.0,270.0,108.0,324.0,162.0,magenta,flipped triangle
0.0,2.0,2.0,0.0,7.0,5.0,3129.736992999824,2.0,1.0,phase_3,,,,,220.0,5.0,264.0,132.0,44.0,88.0,220.0,176.0,blue,triangle
0.0,5.0,1.0,1.0,7.0,3.0,1729.137559002993,2.0,1.0,phase_3,,,,,147.0,3.0,245.0,196.0,147.0,49.0,294.0,98.0,yellow,square
0.0,5.0,1.0,1.0,7.0,5.0,743.5192459997779,2.0,1.0,phase_3,,,,,132.0,3.0,176.0,44.0,88.0,220.0,132.0,264.0,yellow,square
0.0,3.0,3.0,0.0,7.0,2.0,890.2807949998532,2.0,1.0,phase_3,,,,,162.0,3.0,108.0,162.0,54.0,270.0,216.0,324.0,green,diamond
0.0,1.0,1.0,0.0,7.0,5.0,1535.5255089998536,2.0,1.0,phase_3,,,,,108.0,2.0,54.0,270.0,324.0,216.0,108.0,162.0,orange,I
0.0,3.0,3.0,0.0,7.0,4.0,1326.7452680011047,2.0,1.0,phase_3,,,,,156.0,4.0,195.0,78.0,117.0,156.0,234.0,39.0,green,diamond
0.0,6.0,2.0,1.0,7.0,3.0,1234.2574360009166,2.0,1.0,phase_3,,,,,156.0,4.0,234.0,39.0,156.0,195.0,78.0,117.0,cyan,cross
0.0,1.0,1.0,0.0,7.0,5.0,1385.3599360008957,2.0,1.0,phase_3,,,,,132.0,3.0,44.0,176.0,264.0,220.0,132.0,88.0,orange,I
0.0,3.0,3.0,0.0,7.0,4.0,1620.3294600018123,2.0,1.0,phase_3,,,,,136.0,4.0,204.0,68.0,102.0,136.0,34.0,170.0,green,diamond
0.0,2.0,2.0,0.0,7.0,3.0,1544.192845998623,2.0,1.0,phase_3,,,,,156.0,4.0,117.0,39.0,156.0,234.0,78.0,195.0,blue,triangle
0.0,3.0,3.0,0.0,7.0,6.0,1833.8193130002765,2.0,1.0,phase_3,,,,,196.0,4.0,98.0,294.0,245.0,147.0,49.0,196.0,green,diamond
0.0,5.0,1.0,1.0,7.0,1.0,1087.1719940005278,2.0,1.0,phase_3,,,,,170.0,5.0,170.0,34.0,102.0,204.0,136.0,68.0,yellow,square
0.0,8.0,4.0,1.0,7.0,1.0,2869.1838790000475,2.0,1.0,phase_3,,,,,195.0,5.0,195.0,78.0,156.0,117.0,234.0,39.0,magenta,flipped triangle
0.0,3.0,3.0,0.0,7.0,1.0,2342.2400759991438,2.0,1.0,phase_3,,,,,176.0,4.0,176.0,44.0,88.0,132.0,220.0,264.0,green,diamond
0.0,4.0,4.0,0.0,7.0,5.0,1839.2590900002688,3.0,1.0,phase_3,,,,,170.0,5.0,34.0,204.0,102.0,136.0,170.0,68.0,gray,circle
0.0,8.0,4.0,1.0,7.0,1.0,1380.1008540031034,3.0,1.0,phase_3,,,,,170.0,5.0,170.0,204.0,102.0,34.0,68.0,136.0,magenta,flipped triangle
0.0,7.0,3.0,1.0,7.0,6.0,1746.4892940006391,3.0,1.0,phase_3,,,,,176.0,4.0,44.0,88.0,220.0,264.0,132.0,176.0,white,hexagon
0.0,5.0,1.0,1.0,7.0,2.0,1381.4271470000676,3.0,1.0,phase_3,,,,,147.0,3.0,49.0,147.0,98.0,245.0,294.0,196.0,yellow,square
0.0,3.0,3.0,0.0,7.0,2.0,2717.8368599998066,3.0,1.0,phase_3,,,,,294.0,6.0,98.0,294.0,147.0,49.0,245.0,196.0,green,diamond
0.0,6.0,2.0,1.0,7.0,6.0,1424.5240320015,3.0,1.0,phase_3,,,,,176.0,4.0,220.0,44.0,132.0,88.0,264.0,176.0,cyan,cross
0.0,5.0,1.0,1.0,7.0,5.0,1282.7638119997573,3.0,1.0,phase_3,,,,,162.0,3.0,324.0,216.0,54.0,270.0,162.0,108.0,yellow,square
0.0,7.0,3.0,1.0,7.0,3.0,1827.8817939972212,3.0,1.0,phase_3,,,,,156.0,4.0,39.0,195.0,156.0,234.0,117.0,78.0,white,hexagon
0.0,8.0,4.0,1.0,7.0,2.0,1545.0172400014708,3.0,1.0,phase_3,,,,,176.0,4.0,220.0,176.0,264.0,132.0,88.0,44.0,magenta,flipped triangle
0.0,6.0,2.0,1.0,7.0,6.0,934.8922300014236,3.0,1.0,phase_3,,,,,170.0,5.0,102.0,136.0,34.0,204.0,68.0,170.0,cyan,cross
0.0,7.0,3.0,1.0,7.0,1.0,2771.135497001524,3.0,1.0,phase_3,,,,,216.0,4.0,216.0,324.0,54.0,108.0,270.0,162.0,white,hexagon
0.0,1.0,1.0,0.0,7.0,6.0,1189.086889000464,3.0,1.0,phase_3,,,,,136.0,4.0,34.0,68.0,204.0,102.0,170.0,136.0,orange,I
0.0,6.0,2.0,1.0,7.0,5.0,1363.303882000764,3.0,1.0,phase_3,,,,,147.0,3.0,245.0,49.0,98.0,294.0,147.0,196.0,cyan,cross
0.0,7.0,3.0,1.0,7.0,2.0,1057.1101899986388,3.0,1.0,phase_3,,,,,132.0,3.0,264.0,132.0,220.0,88.0,44.0,176.0,white,hexagon
0.0,1.0,1.0,0.0,7.0,4.0,1514.8193889981485,3.0,1.0,phase_3,,,,,147.0,3.0,245.0,49.0,196.0,147.0,98.0,294.0,orange,I
0.0,7.0,3.0,1.0,7.0,2.0,1087.414944999182,3.0,1.0,phase_3,,,,,234.0,6.0,39.0,234.0,195.0,78.0,117.0,156.0,white,hexagon
0.0,5.0,1.0,1.0,7.0,2.0,1489.0725309996924,3.0,1.0,phase_3,,,,,170.0,5.0,136.0,170.0,204.0,68.0,34.0,102.0,yellow,square
0.0,2.0,2.0,0.0,7.0,5.0,2565.696993002348,3.0,1.0,phase_3,,,,,170.0,5.0,34.0,136.0,204.0,102.0,170.0,68.0,blue,triangle
0.0,6.0,2.0,1.0,7.0,6.0,3107.3138779975125,3.0,1.0,phase_3,,,,,245.0,5.0,196.0,294.0,98.0,147.0,49.0,245.0,cyan,cross
0.0,3.0,3.0,0.0,7.0,3.0,4632.445532999554,3.0,1.0,phase_3,,,,,117.0,3.0,39.0,195.0,117.0,78.0,156.0,234.0,green,diamond
0.0,4.0,4.0,0.0,7.0,3.0,4892.031773997587,4.0,1.0,phase_3,,,,,216.0,4.0,108.0,54.0,216.0,162.0,324.0,270.0,gray,circle
0.0,2.0,2.0,0.0,7.0,5.0,1961.058518001664,4.0,1.0,phase_3,,,,,176.0,4.0,88.0,220.0,44.0,132.0,176.0,264.0,blue,triangle
0.0,8.0,4.0,1.0,7.0,6.0,3663.258633001533,4.0,1.0,phase_3,,,,,176.0,4.0,88.0,220.0,264.0,44.0,132.0,176.0,magenta,flipped triangle
0.0,4.0,4.0,0.0,7.0,2.0,3358.774247997644,4.0,1.0,phase_3,,,,,156.0,4.0,234.0,156.0,117.0,195.0,78.0,39.0,gray,circle
0.0,1.0,1.0,0.0,7.0,5.0,2122.101090000797,4.0,1.0,phase_3,,,,,162.0,3.0,270.0,324.0,54.0,216.0,162.0,108.0,orange,I
0.0,4.0,4.0,0.0,7.0,3.0,1940.4853979976904,4.0,1.0,phase_3,,,,,68.0,2.0,102.0,34.0,68.0,170.0,136.0,204.0,gray,circle
0.0,4.0,4.0,0.0,7.0,5.0,1654.9701820003977,4.0,1.0,phase_3,,,,,88.0,2.0,264.0,176.0,132.0,220.0,88.0,44.0,gray,circle
0.0,6.0,2.0,1.0,7.0,4.0,2830.4097880027257,4.0,1.0,phase_3,,,,,176.0,4.0,88.0,132.0,44.0,176.0,220.0,264.0,cyan,cross
0.0,4.0,4.0,0.0,7.0,1.0,1551.7092600020987,4.0,1.0,phase_3,,,,,176.0,4.0,176.0,264.0,132.0,44.0,220.0,88.0,gray,circle
0.0,1.0,1.0,0.0,7.0,5.0,1762.8208930000255,4.0,1.0,phase_3,,,,,176.0,4.0,264.0,44.0,220.0,88.0,176.0,132.0,orange,I
0.0,1.0,1.0,0.0,7.0,3.0,3243.569264999678,4.0,1.0,phase_3,,,,,196.0,4.0,49.0,98.0,196.0,294.0,147.0,245.0,orange,I
0.0,2.0,2.0,0.0,7.0,1.0,2445.476675999089,4.0,1.0,phase_3,,,,,147.0,3.0,147.0,98.0,49.0,294.0,245.0,196.0,blue,triangle
0.0,5.0,1.0,1.0,7.0,5.0,2654.37770599965,4.0,1.0,phase_3,,,,,216.0,4.0,324.0,270.0,162.0,108.0,216.0,54.0,yellow,square
0.0,5.0,1.0,1.0,7.0,6.0,2427.6207619986963,4.0,1.0,phase_3,,,,,176.0,4.0,264.0,88.0,220.0,132.0,44.0,176.0,yellow,square
0.0,4.0,4.0,0.0,7.0,3.0,1903.9127940013716,4.0,1.0,phase_3,,,,,156.0,4.0,234.0,117.0,156.0,195.0,39.0,78.0,gray,circle
0.0,7.0,3.0,1.0,7.0,3.0,2044.0252789994702,4.0,1.0,phase_3,,,,,136.0,4.0,170.0,34.0,136.0,204.0,102.0,68.0,white,hexagon
0.0,1.0,1.0,0.0,7.0,6.0,2017.1312439997564,4.0,1.0,phase_3,,,,,117.0,3.0,156.0,234.0,39.0,195.0,78.0,117.0,orange,I
0.0,7.0,3.0,1.0,7.0,4.0,1516.887334000785,4.0,1.0,phase_3,,,,,162.0,3.0,54.0,108.0,324.0,162.0,270.0,216.0,white,hexagon
0.0,8.0,4.0,1.0,7.0,5.0,1415.4418849975627,4.0,1.0,phase_3,,,,,136.0,4.0,170.0,68.0,102.0,34.0,136.0,204.0,magenta,flipped triangle
0.0,2.0,2.0,0.0,7.0,3.0,1696.259997002926,4.0,1.0,phase_3,,,,,162.0,3.0,216.0,54.0,162.0,108.0,270.0,324.0,blue,triangle
