raw_reward_magnitude,stim_reward,stepwise_reward_magnitude,paired_with_stopping,stim_location,response,reaction_time,block,num_trial_presentations,which_phase,stop_signal_trial_type,left_SSD,right_SSD,accuracy,chosen_bidding_amount,chosen_bidding_level,possible_bid_1,possible_bid_2,possible_bid_3,possible_bid_4,possible_bid_5,possible_bid_6,color_text,shape_text
0.0,6.0,0.0,1.0,4.0,4.0,413.627617999964,1.0,1.0,phase_1,,,,,,,,,,,,,orange,hexagon
0.0,5.0,0.0,1.0,3.0,3.0,277.1017570000822,1.0,1.0,phase_1,,,,,,,,,,,,,cyan,flipped triangle
55.0,5.0,1.0,1.0,4.0,4.0,216.659226000047,1.0,1.0,phase_1,,,,,,,,,,,,,cyan,flipped triangle
0.0,2.0,0.0,0.0,1.0,1.0,272.8340399999069,1.0,1.0,phase_1,,,,,,,,,,,,,green,triangle
219.0,3.0,3.0,0.0,3.0,3.0,251.138863000051,1.0,1.0,phase_1,,,,,,,,,,,,,white,diamond
0.0,4.0,0.0,0.0,3.0,3.0,262.4491470000976,1.0,1.0,phase_1,,,,,,,,,,,,,gray,I
420.0,4.0,4.0,0.0,1.0,1.0,261.879965000162,1.0,1.0,phase_1,,,,,,,,,,,,,gray,I
201.0,3.0,3.0,0.0,3.0,3.0,249.327312999867,1.0,1.0,phase_1,,,,,,,,,,,,,white,diamond
121.0,2.0,2.0,0.0,3.0,3.0,282.6134829999773,1.0,1.0,phase_1,,,,,,,,,,,,,green,triangle
0.0,4.0,0.0,0.0,3.0,3.0,301.5665660000195,1.0,1.0,phase_1,,,,,,,,,,,,,gray,I
28.0,5.0,1.0,1.0,1.0,1.0,307.965293000052,1.0,1.0,phase_1,,,,,,,,,,,,,cyan,flipped triangle
107.0,6.0,2.0,1.0,2.0,2.0,317.3715249999986,1.0,1.0,phase_1,,,,,,,,,,,,,orange,hexagon
205.0,3.0,3.0,0.0,1.0,1.0,246.9370109999999,1.0,1.0,phase_1,,,,,,,,,,,,,white,diamond
60.0,1.0,1.0,0.0,1.0,1.0,276.4368319999448,1.0,1.0,phase_1,,,,,,,,,,,,,blue,square
185.0,7.0,3.0,1.0,1.0,1.0,245.6043299998782,1.0,1.0,phase_1,,,,,,,,,,,,,yellow,circle
197.0,7.0,3.0,1.0,3.0,3.0,270.5109080000056,1.0,1.0,phase_1,,,,,,,,,,,,,yellow,circle
214.0,7.0,3.0,1.0,3.0,3.0,283.7150489999658,1.0,1.0,phase_1,,,,,,,,,,,,,yellow,circle
0.0,6.0,0.0,1.0,3.0,3.0,304.9556619998839,1.0,1.0,phase_1,,,,,,,,,,,,,orange,hexagon
418.0,8.0,4.0,1.0,2.0,2.0,288.7440389999938,1.0,1.0,phase_1,,,,,,,,,,,,,magenta,cross
394.0,4.0,4.0,0.0,4.0,4.0,308.33676799989,1.0,1.0,phase_1,,,,,,,,,,,,,gray,I
116.0,6.0,2.0,1.0,2.0,2.0,270.9960069998942,1.0,1.0,phase_1,,,,,,,,,,,,,orange,hexagon
81.0,2.0,2.0,0.0,3.0,3.0,282.0301409999501,1.0,1.0,phase_1,,,,,,,,,,,,,green,triangle
77.0,2.0,2.0,0.0,2.0,2.0,321.8391820000761,1.0,1.0,phase_1,,,,,,,,,,,,,green,triangle
0.0,5.0,0.0,1.0,2.0,2.0,261.0740580000765,1.0,1.0,phase_1,,,,,,,,,,,,,cyan,flipped triangle
77.0,2.0,2.0,0.0,4.0,4.0,262.1406590001243,1.0,1.0,phase_1,,,,,,,,,,,,,green,triangle
202.0,3.0,3.0,0.0,4.0,4.0,270.0666649998311,1.0,1.0,phase_1,,,,,,,,,,,,,white,diamond
207.0,3.0,3.0,0.0,3.0,3.0,282.5842869999633,1.0,1.0,phase_1,,,,,,,,,,,,,white,diamond
0.0,3.0,0.0,0.0,4.0,4.0,273.9585810002154,1.0,1.0,phase_1,,,,,,,,,,,,,white,diamond
85.0,2.0,2.0,0.0,1.0,1.0,263.9641870000559,1.0,1.0,phase_1,,,,,,,,,,,,,green,triangle
190.0,3.0,3.0,0.0,3.0,3.0,234.6967839998797,1.0,1.0,phase_1,,,,,,,,,,,,,white,diamond
0.0,1.0,0.0,0.0,2.0,2.0,270.127630999923,1.0,1.0,phase_1,,,,,,,,,,,,,blue,square
0.0,1.0,0.0,0.0,3.0,3.0,255.1446600000417,1.0,1.0,phase_1,,,,,,,,,,,,,blue,square
60.0,1.0,1.0,0.0,3.0,3.0,246.1117459999968,1.0,1.0,phase_1,,,,,,,,,,,,,blue,square
43.0,1.0,1.0,0.0,2.0,2.0,247.9781389999971,1.0,1.0,phase_1,,,,,,,,,,,,,blue,square
200.0,3.0,3.0,0.0,1.0,1.0,266.6031310000107,1.0,1.0,phase_1,,,,,,,,,,,,,white,diamond
94.0,2.0,2.0,0.0,2.0,2.0,271.9868629999382,1.0,1.0,phase_1,,,,,,,,,,,,,green,triangle
0.0,1.0,0.0,0.0,3.0,3.0,262.171637999927,1.0,1.0,phase_1,,,,,,,,,,,,,blue,square
376.0,8.0,4.0,1.0,2.0,2.0,248.8908450000053,1.0,1.0,phase_1,,,,,,,,,,,,,magenta,cross
186.0,3.0,3.0,0.0,2.0,2.0,258.8523770000392,1.0,1.0,phase_1,,,,,,,,,,,,,white,diamond
414.0,4.0,4.0,0.0,1.0,1.0,287.6679290000083,1.0,1.0,phase_1,,,,,,,,,,,,,gray,I
210.0,7.0,3.0,1.0,4.0,4.0,294.5218259999365,1.0,1.0,phase_1,,,,,,,,,,,,,yellow,circle
46.0,1.0,1.0,0.0,2.0,2.0,273.5787310000432,1.0,1.0,phase_1,,,,,,,,,,,,,blue,square
0.0,8.0,0.0,1.0,2.0,2.0,290.132346999826,1.0,1.0,phase_1,,,,,,,,,,,,,magenta,cross
418.0,8.0,4.0,1.0,1.0,1.0,300.5824930000926,1.0,1.0,phase_1,,,,,,,,,,,,,magenta,cross
0.0,7.0,0.0,1.0,3.0,3.0,246.070384999939,1.0,1.0,phase_1,,,,,,,,,,,,,yellow,circle
179.0,3.0,3.0,0.0,1.0,1.0,282.9282420000254,1.0,1.0,phase_1,,,,,,,,,,,,,white,diamond
376.0,4.0,4.0,0.0,4.0,4.0,260.5014610001035,1.0,1.0,phase_1,,,,,,,,,,,,,gray,I
115.0,6.0,2.0,1.0,4.0,4.0,266.1249440000119,1.0,1.0,phase_1,,,,,,,,,,,,,orange,hexagon
0.0,2.0,0.0,0.0,1.0,1.0,250.9383680001065,1.0,1.0,phase_1,,,,,,,,,,,,,green,triangle
94.0,2.0,2.0,0.0,3.0,3.0,259.8825350000879,1.0,1.0,phase_1,,,,,,,,,,,,,green,triangle
55.0,5.0,1.0,1.0,3.0,3.0,288.9923610000551,1.0,1.0,phase_1,,,,,,,,,,,,,cyan,flipped triangle
217.0,3.0,3.0,0.0,4.0,4.0,281.0531499999342,1.0,1.0,phase_1,,,,,,,,,,,,,white,diamond
217.0,7.0,3.0,1.0,4.0,4.0,309.2102670000258,1.0,1.0,phase_1,,,,,,,,,,,,,yellow,circle
383.0,4.0,4.0,0.0,3.0,3.0,288.4197450000556,1.0,1.0,phase_1,,,,,,,,,,,,,gray,I
411.0,8.0,4.0,1.0,3.0,3.0,292.2282249999171,1.0,1.0,phase_1,,,,,,,,,,,,,magenta,cross
34.0,1.0,1.0,0.0,1.0,1.0,336.2430349998249,1.0,1.0,phase_1,,,,,,,,,,,,,blue,square
406.0,4.0,4.0,0.0,3.0,3.0,254.15420999979688,1.0,1.0,phase_1,,,,,,,,,,,,,gray,I
57.0,5.0,1.0,1.0,3.0,3.0,267.5265469999885,1.0,1.0,phase_1,,,,,,,,,,,,,cyan,flipped triangle
0.0,5.0,0.0,1.0,4.0,4.0,245.651147999979,1.0,1.0,phase_1,,,,,,,,,,,,,cyan,flipped triangle
77.0,2.0,2.0,0.0,3.0,3.0,259.0905360000306,1.0,1.0,phase_1,,,,,,,,,,,,,green,triangle
29.0,1.0,1.0,0.0,2.0,2.0,276.3584599999831,1.0,2.0,phase_1,,,,,,,,,,,,,blue,square
177.0,3.0,3.0,0.0,1.0,1.0,307.5535159998708,1.0,1.0,phase_1,,,,,,,,,,,,,white,diamond
125.0,6.0,2.0,1.0,1.0,1.0,282.609088000072,1.0,1.0,phase_1,,,,,,,,,,,,,orange,hexagon
32.0,1.0,1.0,0.0,4.0,4.0,280.1551760001075,1.0,1.0,phase_1,,,,,,,,,,,,,blue,square
28.0,1.0,1.0,0.0,3.0,3.0,283.3333129999573,1.0,1.0,phase_1,,,,,,,,,,,,,blue,square
61.0,1.0,1.0,0.0,3.0,3.0,308.0781459998434,1.0,1.0,phase_1,,,,,,,,,,,,,blue,square
184.0,3.0,3.0,0.0,1.0,1.0,313.3419289999892,1.0,1.0,phase_1,,,,,,,,,,,,,white,diamond
83.0,6.0,2.0,1.0,4.0,4.0,323.7631710001096,1.0,1.0,phase_1,,,,,,,,,,,,,orange,hexagon
221.0,7.0,3.0,1.0,2.0,2.0,298.028228000021,1.0,1.0,phase_1,,,,,,,,,,,,,yellow,circle
108.0,2.0,2.0,0.0,3.0,3.0,281.2111460000324,1.0,1.0,phase_1,,,,,,,,,,,,,green,triangle
404.0,8.0,4.0,1.0,1.0,1.0,350.017563999927,1.0,2.0,phase_1,,,,,,,,,,,,,magenta,cross
77.0,6.0,2.0,1.0,3.0,3.0,287.5446670000201,1.0,1.0,phase_1,,,,,,,,,,,,,orange,hexagon
52.0,1.0,1.0,0.0,1.0,1.0,291.5754929999821,1.0,1.0,phase_1,,,,,,,,,,,,,blue,square
381.0,8.0,4.0,1.0,1.0,1.0,287.5042559999201,1.0,1.0,phase_1,,,,,,,,,,,,,magenta,cross
38.0,5.0,1.0,1.0,4.0,4.0,354.9438940001437,1.0,1.0,phase_1,,,,,,,,,,,,,cyan,flipped triangle
182.0,7.0,3.0,1.0,4.0,4.0,307.9694220000419,1.0,1.0,phase_1,,,,,,,,,,,,,yellow,circle
81.0,6.0,2.0,1.0,4.0,4.0,355.9142760000213,1.0,1.0,phase_1,,,,,,,,,,,,,orange,hexagon
425.0,4.0,4.0,0.0,1.0,1.0,313.5341400000015,1.0,1.0,phase_1,,,,,,,,,,,,,gray,I
113.0,2.0,2.0,0.0,2.0,2.0,299.2089889999079,1.0,1.0,phase_1,,,,,,,,,,,,,green,triangle
384.0,8.0,4.0,1.0,1.0,1.0,300.4522809999344,1.0,1.0,phase_1,,,,,,,,,,,,,magenta,cross
0.0,2.0,0.0,0.0,1.0,1.0,290.2321809999648,1.0,1.0,phase_1,,,,,,,,,,,,,green,triangle
116.0,2.0,2.0,0.0,3.0,3.0,295.5034050000904,1.0,1.0,phase_1,,,,,,,,,,,,,green,triangle
60.0,5.0,1.0,1.0,4.0,4.0,315.5148589999044,1.0,1.0,phase_1,,,,,,,,,,,,,cyan,flipped triangle
61.0,5.0,1.0,1.0,4.0,4.0,297.8173520000382,1.0,1.0,phase_1,,,,,,,,,,,,,cyan,flipped triangle
73.0,1.0,1.0,0.0,3.0,3.0,300.1265469999907,1.0,1.0,phase_1,,,,,,,,,,,,,blue,square
414.0,4.0,4.0,0.0,2.0,2.0,339.086879999968,1.0,1.0,phase_1,,,,,,,,,,,,,gray,I
0.0,7.0,0.0,1.0,1.0,1.0,317.4617659999512,1.0,1.0,phase_1,,,,,,,,,,,,,yellow,circle
68.0,1.0,1.0,0.0,3.0,3.0,300.9849830000348,1.0,1.0,phase_1,,,,,,,,,,,,,blue,square
0.0,8.0,0.0,1.0,2.0,2.0,307.1508919999814,1.0,1.0,phase_1,,,,,,,,,,,,,magenta,cross
94.0,6.0,2.0,1.0,3.0,3.0,313.2520429999204,1.0,1.0,phase_1,,,,,,,,,,,,,orange,hexagon
0.0,7.0,0.0,1.0,1.0,1.0,352.5517979999222,1.0,1.0,phase_1,,,,,,,,,,,,,yellow,circle
65.0,1.0,1.0,0.0,3.0,3.0,305.8939860000009,1.0,1.0,phase_1,,,,,,,,,,,,,blue,square
420.0,8.0,4.0,1.0,3.0,3.0,281.5161259998149,1.0,1.0,phase_1,,,,,,,,,,,,,magenta,cross
0.0,1.0,0.0,0.0,3.0,3.0,301.6723030000321,1.0,1.0,phase_1,,,,,,,,,,,,,blue,square
60.0,5.0,1.0,1.0,3.0,3.0,284.7175290000905,1.0,1.0,phase_1,,,,,,,,,,,,,cyan,flipped triangle
205.0,7.0,3.0,1.0,3.0,3.0,276.4853060000405,1.0,1.0,phase_1,,,,,,,,,,,,,yellow,circle
386.0,4.0,4.0,0.0,3.0,3.0,295.5063829999744,1.0,1.0,phase_1,,,,,,,,,,,,,gray,I
85.0,6.0,2.0,1.0,2.0,2.0,286.763320999853,1.0,1.0,phase_1,,,,,,,,,,,,,orange,hexagon
411.0,4.0,4.0,0.0,1.0,1.0,285.9206690000064,1.0,1.0,phase_1,,,,,,,,,,,,,gray,I
57.0,1.0,1.0,0.0,2.0,2.0,280.9626899997965,1.0,1.0,phase_1,,,,,,,,,,,,,blue,square
423.0,4.0,4.0,0.0,1.0,1.0,384.3390029999227,2.0,1.0,phase_1,,,,,,,,,,,,,gray,I
202.0,7.0,3.0,1.0,2.0,2.0,264.6798420000777,2.0,1.0,phase_1,,,,,,,,,,,,,yellow,circle
54.0,1.0,1.0,0.0,1.0,1.0,293.555164000054,2.0,1.0,phase_1,,,,,,,,,,,,,blue,square
0.0,3.0,0.0,0.0,3.0,3.0,256.3524509998842,2.0,1.0,phase_1,,,,,,,,,,,,,white,diamond
79.0,6.0,2.0,1.0,3.0,3.0,316.9107600001553,2.0,1.0,phase_1,,,,,,,,,,,,,orange,hexagon
0.0,5.0,0.0,1.0,2.0,2.0,313.2964779999838,2.0,1.0,phase_1,,,,,,,,,,,,,cyan,flipped triangle
85.0,6.0,2.0,1.0,2.0,2.0,273.8694480001413,2.0,1.0,phase_1,,,,,,,,,,,,,orange,hexagon
424.0,8.0,4.0,1.0,3.0,3.0,283.3069900000282,2.0,1.0,phase_1,,,,,,,,,,,,,magenta,cross
0.0,2.0,0.0,0.0,2.0,2.0,249.6782519999669,2.0,1.0,phase_1,,,,,,,,,,,,,green,triangle
0.0,3.0,0.0,0.0,3.0,3.0,253.2872150000003,2.0,1.0,phase_1,,,,,,,,,,,,,white,diamond
206.0,3.0,3.0,0.0,4.0,4.0,275.7047000000057,2.0,1.0,phase_1,,,,,,,,,,,,,white,diamond
390.0,4.0,4.0,0.0,3.0,3.0,256.2288050000916,2.0,1.0,phase_1,,,,,,,,,,,,,gray,I
77.0,2.0,2.0,0.0,1.0,1.0,295.8119719999104,2.0,1.0,phase_1,,,,,,,,,,,,,green,triangle
221.0,7.0,3.0,1.0,3.0,3.0,262.682224999935,2.0,1.0,phase_1,,,,,,,,,,,,,yellow,circle
0.0,3.0,0.0,0.0,4.0,4.0,290.2598420000686,2.0,1.0,phase_1,,,,,,,,,,,,,white,diamond
112.0,2.0,2.0,0.0,1.0,1.0,286.8337080001311,2.0,1.0,phase_1,,,,,,,,,,,,,green,triangle
53.0,1.0,1.0,0.0,3.0,3.0,255.5687520000447,2.0,1.0,phase_1,,,,,,,,,,,,,blue,square
25.0,5.0,1.0,1.0,2.0,2.0,303.439335999883,2.0,1.0,phase_1,,,,,,,,,,,,,cyan,flipped triangle
0.0,2.0,0.0,0.0,3.0,3.0,258.5171180000998,2.0,1.0,phase_1,,,,,,,,,,,,,green,triangle
83.0,2.0,2.0,0.0,2.0,2.0,278.606390999812,2.0,1.0,phase_1,,,,,,,,,,,,,green,triangle
399.0,8.0,4.0,1.0,3.0,3.0,332.0693999999093,2.0,1.0,phase_1,,,,,,,,,,,,,magenta,cross
377.0,4.0,4.0,0.0,1.0,1.0,338.9838739999504,2.0,1.0,phase_1,,,,,,,,,,,,,gray,I
0.0,7.0,0.0,1.0,4.0,4.0,251.47669300008602,2.0,1.0,phase_1,,,,,,,,,,,,,yellow,circle
395.0,8.0,4.0,1.0,1.0,1.0,311.891555999864,2.0,1.0,phase_1,,,,,,,,,,,,,magenta,cross
394.0,4.0,4.0,0.0,3.0,3.0,291.2905299999693,2.0,1.0,phase_1,,,,,,,,,,,,,gray,I
108.0,6.0,2.0,1.0,1.0,1.0,294.068303999893,2.0,1.0,phase_1,,,,,,,,,,,,,orange,hexagon
0.0,1.0,0.0,0.0,4.0,4.0,278.4182450000116,2.0,1.0,phase_1,,,,,,,,,,,,,blue,square
124.0,2.0,2.0,0.0,4.0,4.0,278.0403149999984,2.0,1.0,phase_1,,,,,,,,,,,,,green,triangle
70.0,1.0,1.0,0.0,4.0,4.0,316.4103919998524,2.0,1.0,phase_1,,,,,,,,,,,,,blue,square
121.0,6.0,2.0,1.0,4.0,4.0,294.7470449998945,2.0,1.0,phase_1,,,,,,,,,,,,,orange,hexagon
217.0,3.0,3.0,0.0,2.0,2.0,308.4261899998637,2.0,1.0,phase_1,,,,,,,,,,,,,white,diamond
0.0,1.0,0.0,0.0,4.0,4.0,298.2364900001357,2.0,1.0,phase_1,,,,,,,,,,,,,blue,square
216.0,7.0,3.0,1.0,3.0,3.0,293.0215300000327,2.0,1.0,phase_1,,,,,,,,,,,,,yellow,circle
379.0,8.0,4.0,1.0,4.0,4.0,264.8810979999325,2.0,1.0,phase_1,,,,,,,,,,,,,magenta,cross
65.0,1.0,1.0,0.0,3.0,3.0,310.2620549998391,2.0,1.0,phase_1,,,,,,,,,,,,,blue,square
0.0,5.0,0.0,1.0,3.0,3.0,312.0495659998141,2.0,1.0,phase_1,,,,,,,,,,,,,cyan,flipped triangle
121.0,2.0,2.0,0.0,4.0,4.0,311.2123389998942,2.0,1.0,phase_1,,,,,,,,,,,,,green,triangle
118.0,6.0,2.0,1.0,2.0,2.0,299.5415919999686,2.0,1.0,phase_1,,,,,,,,,,,,,orange,hexagon
186.0,7.0,3.0,1.0,4.0,4.0,287.1094089998678,2.0,1.0,phase_1,,,,,,,,,,,,,yellow,circle
411.0,4.0,4.0,0.0,1.0,1.0,319.6950310000375,2.0,1.0,phase_1,,,,,,,,,,,,,gray,I
0.0,3.0,0.0,0.0,2.0,2.0,270.4920350001885,2.0,1.0,phase_1,,,,,,,,,,,,,white,diamond
96.0,2.0,2.0,0.0,2.0,2.0,293.8773509999919,2.0,1.0,phase_1,,,,,,,,,,,,,green,triangle
89.0,2.0,2.0,0.0,4.0,4.0,298.8655729998299,2.0,1.0,phase_1,,,,,,,,,,,,,green,triangle
124.0,6.0,2.0,1.0,4.0,4.0,325.2835319999576,2.0,1.0,phase_1,,,,,,,,,,,,,orange,hexagon
0.0,3.0,0.0,0.0,1.0,1.0,247.1520429999145,2.0,1.0,phase_1,,,,,,,,,,,,,white,diamond
93.0,6.0,2.0,1.0,4.0,4.0,283.2174589998431,2.0,1.0,phase_1,,,,,,,,,,,,,orange,hexagon
0.0,8.0,0.0,1.0,4.0,4.0,296.16970699999,2.0,1.0,phase_1,,,,,,,,,,,,,magenta,cross
219.0,7.0,3.0,1.0,1.0,1.0,249.4760259999111,2.0,1.0,phase_1,,,,,,,,,,,,,yellow,circle
0.0,2.0,0.0,0.0,1.0,1.0,253.02271999998987,2.0,1.0,phase_1,,,,,,,,,,,,,green,triangle
0.0,3.0,0.0,0.0,1.0,1.0,265.912925000066,2.0,1.0,phase_1,,,,,,,,,,,,,white,diamond
98.0,6.0,2.0,1.0,3.0,3.0,310.3083529999821,2.0,1.0,phase_1,,,,,,,,,,,,,orange,hexagon
44.0,5.0,1.0,1.0,4.0,4.0,297.5173590000395,2.0,1.0,phase_1,,,,,,,,,,,,,cyan,flipped triangle
195.0,3.0,3.0,0.0,4.0,4.0,341.8916999999055,2.0,1.0,phase_1,,,,,,,,,,,,,white,diamond
221.0,3.0,3.0,0.0,3.0,3.0,288.7530709999737,2.0,1.0,phase_1,,,,,,,,,,,,,white,diamond
111.0,2.0,2.0,0.0,1.0,1.0,436.0194519999822,2.0,1.0,phase_1,,,,,,,,,,,,,green,triangle
179.0,7.0,3.0,1.0,3.0,3.0,295.4448620000676,2.0,1.0,phase_1,,,,,,,,,,,,,yellow,circle
213.0,3.0,3.0,0.0,1.0,1.0,272.0278780000171,2.0,1.0,phase_1,,,,,,,,,,,,,white,diamond
44.0,1.0,1.0,0.0,2.0,2.0,314.3553849999989,2.0,1.0,phase_1,,,,,,,,,,,,,blue,square
25.0,1.0,1.0,0.0,1.0,1.0,284.632800000054,2.0,1.0,phase_1,,,,,,,,,,,,,blue,square
0.0,4.0,0.0,0.0,1.0,1.0,280.5678889999399,2.0,1.0,phase_1,,,,,,,,,,,,,gray,I
387.0,4.0,4.0,0.0,4.0,4.0,305.8824690001529,2.0,1.0,phase_1,,,,,,,,,,,,,gray,I
54.0,5.0,1.0,1.0,4.0,4.0,286.7671869998958,2.0,1.0,phase_1,,,,,,,,,,,,,cyan,flipped triangle
55.0,1.0,1.0,0.0,4.0,4.0,320.160024000188,2.0,1.0,phase_1,,,,,,,,,,,,,blue,square
0.0,8.0,0.0,1.0,2.0,2.0,288.0244640000455,2.0,1.0,phase_1,,,,,,,,,,,,,magenta,cross
0.0,8.0,0.0,1.0,3.0,3.0,273.0603240001983,2.0,1.0,phase_1,,,,,,,,,,,,,magenta,cross
42.0,5.0,1.0,1.0,1.0,1.0,283.3203860000139,2.0,1.0,phase_1,,,,,,,,,,,,,cyan,flipped triangle
100.0,2.0,2.0,0.0,4.0,4.0,274.3029989997012,2.0,1.0,phase_1,,,,,,,,,,,,,green,triangle
0.0,7.0,0.0,1.0,3.0,3.0,273.2378280002194,2.0,1.0,phase_1,,,,,,,,,,,,,yellow,circle
0.0,6.0,0.0,1.0,3.0,3.0,264.6539590000429,2.0,1.0,phase_1,,,,,,,,,,,,,orange,hexagon
25.0,1.0,1.0,0.0,4.0,4.0,292.738196999835,2.0,1.0,phase_1,,,,,,,,,,,,,blue,square
33.0,5.0,1.0,1.0,2.0,2.0,278.051688999767,2.0,1.0,phase_1,,,,,,,,,,,,,cyan,flipped triangle
65.0,5.0,1.0,1.0,4.0,4.0,372.1897300001728,2.0,1.0,phase_1,,,,,,,,,,,,,cyan,flipped triangle
0.0,5.0,0.0,1.0,1.0,1.0,259.9574880000546,2.0,1.0,phase_1,,,,,,,,,,,,,cyan,flipped triangle
93.0,2.0,2.0,0.0,2.0,2.0,290.9793569997418,2.0,1.0,phase_1,,,,,,,,,,,,,green,triangle
0.0,4.0,0.0,0.0,4.0,4.0,304.0708610001275,2.0,1.0,phase_1,,,,,,,,,,,,,gray,I
108.0,2.0,2.0,0.0,4.0,4.0,302.041729999928,2.0,1.0,phase_1,,,,,,,,,,,,,green,triangle
186.0,3.0,3.0,0.0,2.0,2.0,288.2644890000847,2.0,1.0,phase_1,,,,,,,,,,,,,white,diamond
177.0,7.0,3.0,1.0,4.0,4.0,336.6280710001774,2.0,1.0,phase_1,,,,,,,,,,,,,yellow,circle
381.0,4.0,4.0,0.0,1.0,1.0,346.6323029997511,2.0,1.0,phase_1,,,,,,,,,,,,,gray,I
0.0,4.0,0.0,0.0,2.0,2.0,358.8038269999742,2.0,1.0,phase_1,,,,,,,,,,,,,gray,I
202.0,7.0,3.0,1.0,4.0,4.0,286.4158960001077,2.0,2.0,phase_1,,,,,,,,,,,,,yellow,circle
186.0,7.0,3.0,1.0,3.0,3.0,291.5776069999083,2.0,1.0,phase_1,,,,,,,,,,,,,yellow,circle
385.0,4.0,4.0,0.0,2.0,2.0,294.8255340002106,2.0,1.0,phase_1,,,,,,,,,,,,,gray,I
0.0,3.0,0.0,0.0,4.0,4.0,329.4530190000841,2.0,1.0,phase_1,,,,,,,,,,,,,white,diamond
38.0,1.0,1.0,0.0,2.0,2.0,313.4123279996856,2.0,1.0,phase_1,,,,,,,,,,,,,blue,square
0.0,8.0,0.0,1.0,2.0,2.0,281.2689740003407,2.0,1.0,phase_1,,,,,,,,,,,,,magenta,cross
395.0,4.0,4.0,0.0,4.0,4.0,312.0229129999643,2.0,1.0,phase_1,,,,,,,,,,,,,gray,I
100.0,2.0,2.0,0.0,3.0,3.0,297.8241010000602,2.0,2.0,phase_1,,,,,,,,,,,,,green,triangle
0.0,5.0,0.0,1.0,1.0,1.0,323.9540820000002,2.0,1.0,phase_1,,,,,,,,,,,,,cyan,flipped triangle
113.0,6.0,2.0,1.0,1.0,1.0,279.9945179999668,2.0,1.0,phase_1,,,,,,,,,,,,,orange,hexagon
418.0,4.0,4.0,0.0,2.0,2.0,293.226026999946,2.0,1.0,phase_1,,,,,,,,,,,,,gray,I
215.0,3.0,3.0,0.0,2.0,2.0,281.4566309998554,2.0,1.0,phase_1,,,,,,,,,,,,,white,diamond
41.0,5.0,1.0,1.0,3.0,3.0,302.5435680001465,2.0,1.0,phase_1,,,,,,,,,,,,,cyan,flipped triangle
0.0,1.0,0.0,0.0,1.0,1.0,256.8714070002897,2.0,1.0,phase_1,,,,,,,,,,,,,blue,square
425.0,8.0,4.0,1.0,2.0,2.0,300.5910030001359,2.0,1.0,phase_1,,,,,,,,,,,,,magenta,cross
410.0,4.0,4.0,0.0,2.0,2.0,331.5749999997024,2.0,1.0,phase_1,,,,,,,,,,,,,gray,I
208.0,3.0,3.0,0.0,3.0,3.0,302.3417899999003,2.0,1.0,phase_1,,,,,,,,,,,,,white,diamond
53.0,5.0,1.0,1.0,1.0,1.0,336.2501589999738,2.0,1.0,phase_1,,,,,,,,,,,,,cyan,flipped triangle
221.0,3.0,3.0,0.0,1.0,1.0,306.9192549996842,2.0,1.0,phase_1,,,,,,,,,,,,,white,diamond
405.0,8.0,4.0,1.0,3.0,3.0,310.7206039999255,2.0,1.0,phase_1,,,,,,,,,,,,,magenta,cross
392.0,4.0,4.0,0.0,2.0,2.0,352.2108809997917,3.0,1.0,phase_1,,,,,,,,,,,,,gray,I
205.0,7.0,3.0,1.0,3.0,3.0,335.9311529998194,3.0,1.0,phase_1,,,,,,,,,,,,,yellow,circle
119.0,6.0,2.0,1.0,3.0,3.0,295.1578150000387,3.0,1.0,phase_1,,,,,,,,,,,,,orange,hexagon
92.0,6.0,2.0,1.0,2.0,2.0,268.0513150003207,3.0,1.0,phase_1,,,,,,,,,,,,,orange,hexagon
58.0,5.0,1.0,1.0,1.0,1.0,276.6201589997763,3.0,1.0,phase_1,,,,,,,,,,,,,cyan,flipped triangle
0.0,5.0,0.0,1.0,2.0,2.0,254.80171100025473,3.0,1.0,phase_1,,,,,,,,,,,,,cyan,flipped triangle
124.0,6.0,2.0,1.0,3.0,3.0,269.653321000078,3.0,1.0,phase_1,,,,,,,,,,,,,orange,hexagon
210.0,3.0,3.0,0.0,2.0,2.0,291.1236949998965,3.0,1.0,phase_1,,,,,,,,,,,,,white,diamond
70.0,5.0,1.0,1.0,1.0,1.0,291.1026100000526,3.0,1.0,phase_1,,,,,,,,,,,,,cyan,flipped triangle
28.0,1.0,1.0,0.0,1.0,1.0,293.4611159998894,3.0,1.0,phase_1,,,,,,,,,,,,,blue,square
119.0,6.0,2.0,1.0,2.0,2.0,249.6855040003538,3.0,1.0,phase_1,,,,,,,,,,,,,orange,hexagon
390.0,4.0,4.0,0.0,2.0,2.0,270.6043650000538,3.0,1.0,phase_1,,,,,,,,,,,,,gray,I
208.0,7.0,3.0,1.0,1.0,1.0,320.781917000204,3.0,1.0,phase_1,,,,,,,,,,,,,yellow,circle
54.0,5.0,1.0,1.0,2.0,2.0,249.918938999599,3.0,1.0,phase_1,,,,,,,,,,,,,cyan,flipped triangle
96.0,2.0,2.0,0.0,1.0,1.0,278.28282199971,3.0,1.0,phase_1,,,,,,,,,,,,,green,triangle
399.0,4.0,4.0,0.0,3.0,3.0,292.1448669999336,3.0,1.0,phase_1,,,,,,,,,,,,,gray,I
200.0,7.0,3.0,1.0,4.0,4.0,286.9419120002021,3.0,1.0,phase_1,,,,,,,,,,,,,yellow,circle
379.0,4.0,4.0,0.0,3.0,3.0,289.4596820001425,3.0,1.0,phase_1,,,,,,,,,,,,,gray,I
205.0,3.0,3.0,0.0,4.0,4.0,305.2493809996122,3.0,1.0,phase_1,,,,,,,,,,,,,white,diamond
415.0,8.0,4.0,1.0,4.0,4.0,324.7261510000498,3.0,1.0,phase_1,,,,,,,,,,,,,magenta,cross
189.0,3.0,3.0,0.0,1.0,1.0,304.2769909998242,3.0,1.0,phase_1,,,,,,,,,,,,,white,diamond
214.0,3.0,3.0,0.0,4.0,4.0,285.4629970001952,3.0,1.0,phase_1,,,,,,,,,,,,,white,diamond
394.0,8.0,4.0,1.0,2.0,2.0,274.8871080002573,3.0,1.0,phase_1,,,,,,,,,,,,,magenta,cross
378.0,4.0,4.0,0.0,3.0,3.0,287.0179040000948,3.0,1.0,phase_1,,,,,,,,,,,,,gray,I
201.0,7.0,3.0,1.0,1.0,1.0,340.89450700003,3.0,1.0,phase_1,,,,,,,,,,,,,yellow,circle
0.0,2.0,0.0,0.0,2.0,2.0,321.6462770001271,3.0,1.0,phase_1,,,,,,,,,,,,,green,triangle
108.0,6.0,2.0,1.0,1.0,1.0,330.7795099999566,3.0,1.0,phase_1,,,,,,,,,,,,,orange,hexagon
25.0,5.0,1.0,1.0,3.0,3.0,265.4732900000454,3.0,1.0,phase_1,,,,,,,,,,,,,cyan,flipped triangle
0.0,7.0,0.0,1.0,1.0,1.0,280.1462580000589,3.0,1.0,phase_1,,,,,,,,,,,,,yellow,circle
384.0,4.0,4.0,0.0,1.0,1.0,262.5461979996544,3.0,1.0,phase_1,,,,,,,,,,,,,gray,I
404.0,4.0,4.0,0.0,4.0,4.0,302.8440460002457,3.0,1.0,phase_1,,,,,,,,,,,,,gray,I
38.0,5.0,1.0,1.0,4.0,4.0,319.1655949999585,3.0,1.0,phase_1,,,,,,,,,,,,,cyan,flipped triangle
405.0,4.0,4.0,0.0,3.0,3.0,307.6585919998251,3.0,1.0,phase_1,,,,,,,,,,,,,gray,I
108.0,2.0,2.0,0.0,3.0,3.0,266.5460909997819,3.0,1.0,phase_1,,,,,,,,,,,,,green,triangle
96.0,6.0,2.0,1.0,2.0,2.0,262.6638839997213,3.0,1.0,phase_1,,,,,,,,,,,,,orange,hexagon
125.0,2.0,2.0,0.0,4.0,4.0,295.8811789999345,3.0,1.0,phase_1,,,,,,,,,,,,,green,triangle
423.0,4.0,4.0,0.0,2.0,2.0,288.6572410002372,3.0,1.0,phase_1,,,,,,,,,,,,,gray,I
410.0,8.0,4.0,1.0,4.0,4.0,256.4557169998807,3.0,1.0,phase_1,,,,,,,,,,,,,magenta,cross
198.0,7.0,3.0,1.0,4.0,4.0,297.226283999862,3.0,1.0,phase_1,,,,,,,,,,,,,yellow,circle
0.0,7.0,0.0,1.0,2.0,2.0,314.2158119999294,3.0,1.0,phase_1,,,,,,,,,,,,,yellow,circle
184.0,7.0,3.0,1.0,2.0,2.0,284.2871510001714,3.0,1.0,phase_1,,,,,,,,,,,,,yellow,circle
52.0,5.0,1.0,1.0,1.0,1.0,304.9669460001496,3.0,1.0,phase_1,,,,,,,,,,,,,cyan,flipped triangle
383.0,8.0,4.0,1.0,2.0,2.0,299.9836849999155,3.0,1.0,phase_1,,,,,,,,,,,,,magenta,cross
42.0,5.0,1.0,1.0,1.0,1.0,335.6162899999617,3.0,1.0,phase_1,,,,,,,,,,,,,cyan,flipped triangle
0.0,1.0,0.0,0.0,4.0,4.0,290.6182900001113,3.0,1.0,phase_1,,,,,,,,,,,,,blue,square
193.0,7.0,3.0,1.0,2.0,2.0,281.161548,3.0,1.0,phase_1,,,,,,,,,,,,,yellow,circle
0.0,6.0,0.0,1.0,1.0,1.0,264.0072270000928,3.0,1.0,phase_1,,,,,,,,,,,,,orange,hexagon
63.0,1.0,1.0,0.0,4.0,4.0,302.1398400001089,3.0,1.0,phase_1,,,,,,,,,,,,,blue,square
179.0,3.0,3.0,0.0,2.0,2.0,292.7349679998769,3.0,1.0,phase_1,,,,,,,,,,,,,white,diamond
420.0,8.0,4.0,1.0,2.0,2.0,316.4128380003603,3.0,1.0,phase_1,,,,,,,,,,,,,magenta,cross
0.0,1.0,0.0,0.0,3.0,3.0,305.1869349997105,3.0,1.0,phase_1,,,,,,,,,,,,,blue,square
0.0,2.0,0.0,0.0,1.0,1.0,312.6284289996874,3.0,1.0,phase_1,,,,,,,,,,,,,green,triangle
418.0,4.0,4.0,0.0,2.0,2.0,305.4391660002693,3.0,1.0,phase_1,,,,,,,,,,,,,gray,I
0.0,3.0,0.0,0.0,4.0,4.0,330.7173880002665,3.0,1.0,phase_1,,,,,,,,,,,,,white,diamond
105.0,6.0,2.0,1.0,3.0,3.0,295.0821809999979,3.0,1.0,phase_1,,,,,,,,,,,,,orange,hexagon
390.0,8.0,4.0,1.0,4.0,4.0,279.5751920002658,3.0,1.0,phase_1,,,,,,,,,,,,,magenta,cross
118.0,2.0,2.0,0.0,3.0,3.0,273.2583299998623,3.0,1.0,phase_1,,,,,,,,,,,,,green,triangle
407.0,8.0,4.0,1.0,4.0,4.0,256.0089330004302,3.0,1.0,phase_1,,,,,,,,,,,,,magenta,cross
121.0,6.0,2.0,1.0,1.0,1.0,282.2874250000495,3.0,1.0,phase_1,,,,,,,,,,,,,orange,hexagon
0.0,4.0,0.0,0.0,4.0,4.0,267.2996890000831,3.0,1.0,phase_1,,,,,,,,,,,,,gray,I
55.0,1.0,1.0,0.0,3.0,3.0,290.7639669997479,3.0,1.0,phase_1,,,,,,,,,,,,,blue,square
96.0,6.0,2.0,1.0,1.0,1.0,372.9580239996721,3.0,1.0,phase_1,,,,,,,,,,,,,orange,hexagon
217.0,7.0,3.0,1.0,1.0,1.0,276.7630729999837,3.0,1.0,phase_1,,,,,,,,,,,,,yellow,circle
387.0,8.0,4.0,1.0,4.0,4.0,326.6114610000841,3.0,1.0,phase_1,,,,,,,,,,,,,magenta,cross
406.0,8.0,4.0,1.0,1.0,1.0,310.0999029998093,3.0,1.0,phase_1,,,,,,,,,,,,,magenta,cross
185.0,3.0,3.0,0.0,3.0,3.0,262.4806590001753,3.0,1.0,phase_1,,,,,,,,,,,,,white,diamond
63.0,1.0,1.0,0.0,4.0,4.0,284.4271140002092,3.0,1.0,phase_1,,,,,,,,,,,,,blue,square
36.0,5.0,1.0,1.0,3.0,3.0,283.7120849999337,3.0,1.0,phase_1,,,,,,,,,,,,,cyan,flipped triangle
215.0,7.0,3.0,1.0,4.0,4.0,304.7770840003068,3.0,1.0,phase_1,,,,,,,,,,,,,yellow,circle
33.0,1.0,1.0,0.0,1.0,1.0,306.2251070000457,3.0,1.0,phase_1,,,,,,,,,,,,,blue,square
70.0,1.0,1.0,0.0,2.0,2.0,294.2593850002595,3.0,1.0,phase_1,,,,,,,,,,,,,blue,square
203.0,7.0,3.0,1.0,2.0,2.0,279.6562240000639,3.0,1.0,phase_1,,,,,,,,,,,,,yellow,circle
381.0,8.0,4.0,1.0,1.0,1.0,294.3774340001255,3.0,1.0,phase_1,,,,,,,,,,,,,magenta,cross
213.0,7.0,3.0,1.0,2.0,2.0,284.4108629997208,3.0,1.0,phase_1,,,,,,,,,,,,,yellow,circle
179.0,7.0,3.0,1.0,3.0,3.0,270.0984680000147,3.0,1.0,phase_1,,,,,,,,,,,,,yellow,circle
415.0,4.0,4.0,0.0,2.0,2.0,259.8785430000134,3.0,1.0,phase_1,,,,,,,,,,,,,gray,I
63.0,5.0,1.0,1.0,2.0,2.0,266.6980340000009,3.0,1.0,phase_1,,,,,,,,,,,,,cyan,flipped triangle
0.0,8.0,0.0,1.0,4.0,4.0,284.474050999961,3.0,1.0,phase_1,,,,,,,,,,,,,magenta,cross
105.0,2.0,2.0,0.0,2.0,2.0,290.5153230003634,3.0,1.0,phase_1,,,,,,,,,,,,,green,triangle
378.0,8.0,4.0,1.0,3.0,3.0,275.8968909997747,3.0,1.0,phase_1,,,,,,,,,,,,,magenta,cross
77.0,6.0,2.0,1.0,2.0,2.0,276.0054400000626,3.0,1.0,phase_1,,,,,,,,,,,,,orange,hexagon
42.0,1.0,1.0,0.0,2.0,2.0,270.6681869999556,3.0,1.0,phase_1,,,,,,,,,,,,,blue,square
57.0,1.0,1.0,0.0,1.0,1.0,291.4009710002574,3.0,1.0,phase_1,,,,,,,,,,,,,blue,square
385.0,8.0,4.0,1.0,1.0,1.0,272.2949990002234,3.0,1.0,phase_1,,,,,,,,,,,,,magenta,cross
28.0,5.0,1.0,1.0,2.0,2.0,309.4417989996145,3.0,1.0,phase_1,,,,,,,,,,,,,cyan,flipped triangle
56.0,5.0,1.0,1.0,2.0,2.0,273.16654900005227,3.0,1.0,phase_1,,,,,,,,,,,,,cyan,flipped triangle
197.0,3.0,3.0,0.0,2.0,2.0,251.6473169998789,3.0,1.0,phase_1,,,,,,,,,,,,,white,diamond
107.0,2.0,2.0,0.0,1.0,1.0,298.0774950001432,3.0,1.0,phase_1,,,,,,,,,,,,,green,triangle
199.0,7.0,3.0,1.0,1.0,1.0,290.7270339997012,3.0,1.0,phase_1,,,,,,,,,,,,,yellow,circle
423.0,8.0,4.0,1.0,2.0,2.0,300.2192010003455,3.0,1.0,phase_1,,,,,,,,,,,,,magenta,cross
43.0,5.0,1.0,1.0,3.0,3.0,307.8253960002257,3.0,1.0,phase_1,,,,,,,,,,,,,cyan,flipped triangle
63.0,5.0,1.0,1.0,1.0,1.0,302.6810070000465,3.0,1.0,phase_1,,,,,,,,,,,,,cyan,flipped triangle
0.0,2.0,0.0,0.0,2.0,2.0,272.756113000014,3.0,1.0,phase_1,,,,,,,,,,,,,green,triangle
0.0,2.0,0.0,0.0,1.0,1.0,265.0706409999657,3.0,1.0,phase_1,,,,,,,,,,,,,green,triangle
119.0,2.0,2.0,0.0,2.0,2.0,261.7248949995883,3.0,1.0,phase_1,,,,,,,,,,,,,green,triangle
65.0,5.0,1.0,1.0,2.0,2.0,295.2178549999189,3.0,1.0,phase_1,,,,,,,,,,,,,cyan,flipped triangle
205.0,3.0,3.0,0.0,3.0,3.0,265.9963890000654,3.0,1.0,phase_1,,,,,,,,,,,,,white,diamond
0.0,8.0,0.0,1.0,2.0,2.0,254.48993200006947,3.0,1.0,phase_1,,,,,,,,,,,,,magenta,cross
34.0,5.0,1.0,1.0,3.0,3.0,288.4371660002216,3.0,1.0,phase_1,,,,,,,,,,,,,cyan,flipped triangle
190.0,7.0,3.0,1.0,1.0,1.0,294.169385999794,3.0,1.0,phase_1,,,,,,,,,,,,,yellow,circle
207.0,7.0,3.0,1.0,4.0,4.0,351.9397350000872,4.0,1.0,phase_1,,,,,,,,,,,,,yellow,circle
194.0,3.0,3.0,0.0,2.0,2.0,261.3200049995612,4.0,1.0,phase_1,,,,,,,,,,,,,white,diamond
0.0,4.0,0.0,0.0,3.0,3.0,280.6538130002991,4.0,1.0,phase_1,,,,,,,,,,,,,gray,I
58.0,1.0,1.0,0.0,2.0,2.0,271.1008239998591,4.0,1.0,phase_1,,,,,,,,,,,,,blue,square
46.0,1.0,1.0,0.0,2.0,2.0,267.603372999929,4.0,1.0,phase_1,,,,,,,,,,,,,blue,square
0.0,8.0,0.0,1.0,3.0,3.0,242.4614680003287,4.0,1.0,phase_1,,,,,,,,,,,,,magenta,cross
108.0,6.0,2.0,1.0,1.0,1.0,325.9598890003872,4.0,1.0,phase_1,,,,,,,,,,,,,orange,hexagon
103.0,6.0,2.0,1.0,3.0,3.0,312.3964719998184,4.0,1.0,phase_1,,,,,,,,,,,,,orange,hexagon
381.0,4.0,4.0,0.0,4.0,4.0,285.0640490000842,4.0,1.0,phase_1,,,,,,,,,,,,,gray,I
407.0,4.0,4.0,0.0,4.0,4.0,275.6651959998635,4.0,1.0,phase_1,,,,,,,,,,,,,gray,I
0.0,7.0,0.0,1.0,2.0,2.0,295.3063159998237,4.0,1.0,phase_1,,,,,,,,,,,,,yellow,circle
405.0,8.0,4.0,1.0,4.0,4.0,280.3456950000509,4.0,1.0,phase_1,,,,,,,,,,,,,magenta,cross
216.0,3.0,3.0,0.0,2.0,2.0,248.4345140001096,4.0,1.0,phase_1,,,,,,,,,,,,,white,diamond
203.0,3.0,3.0,0.0,4.0,4.0,278.8885260001734,4.0,1.0,phase_1,,,,,,,,,,,,,white,diamond
176.0,3.0,3.0,0.0,4.0,4.0,283.6713130000134,4.0,1.0,phase_1,,,,,,,,,,,,,white,diamond
92.0,2.0,2.0,0.0,1.0,1.0,263.6535550000189,4.0,1.0,phase_1,,,,,,,,,,,,,green,triangle
212.0,7.0,3.0,1.0,2.0,2.0,290.0716559997818,4.0,1.0,phase_1,,,,,,,,,,,,,yellow,circle
187.0,3.0,3.0,0.0,3.0,3.0,318.7228819997472,4.0,1.0,phase_1,,,,,,,,,,,,,white,diamond
32.0,5.0,1.0,1.0,2.0,2.0,274.2774570001529,4.0,1.0,phase_1,,,,,,,,,,,,,cyan,flipped triangle
0.0,5.0,0.0,1.0,1.0,1.0,355.4261839999526,4.0,1.0,phase_1,,,,,,,,,,,,,cyan,flipped triangle
112.0,6.0,2.0,1.0,2.0,2.0,258.2934229999409,4.0,1.0,phase_1,,,,,,,,,,,,,orange,hexagon
70.0,5.0,1.0,1.0,3.0,3.0,263.7384310000925,4.0,1.0,phase_1,,,,,,,,,,,,,cyan,flipped triangle
394.0,8.0,4.0,1.0,3.0,3.0,271.0530310000649,4.0,1.0,phase_1,,,,,,,,,,,,,magenta,cross
392.0,8.0,4.0,1.0,1.0,1.0,268.7747680001848,4.0,1.0,phase_1,,,,,,,,,,,,,magenta,cross
77.0,6.0,2.0,1.0,3.0,3.0,257.4834570000348,4.0,1.0,phase_1,,,,,,,,,,,,,orange,hexagon
81.0,6.0,2.0,1.0,1.0,1.0,265.9797500000422,4.0,1.0,phase_1,,,,,,,,,,,,,orange,hexagon
71.0,5.0,1.0,1.0,4.0,4.0,280.0072110003384,4.0,1.0,phase_1,,,,,,,,,,,,,cyan,flipped triangle
0.0,4.0,0.0,0.0,2.0,2.0,247.92913400006,4.0,1.0,phase_1,,,,,,,,,,,,,gray,I
57.0,5.0,1.0,1.0,1.0,1.0,253.2717990002311,4.0,1.0,phase_1,,,,,,,,,,,,,cyan,flipped triangle
394.0,4.0,4.0,0.0,2.0,2.0,283.4429530003035,4.0,1.0,phase_1,,,,,,,,,,,,,gray,I
199.0,3.0,3.0,0.0,1.0,1.0,272.5192000002607,4.0,1.0,phase_1,,,,,,,,,,,,,white,diamond
111.0,6.0,2.0,1.0,4.0,4.0,283.2422550000046,4.0,1.0,phase_1,,,,,,,,,,,,,orange,hexagon
189.0,7.0,3.0,1.0,1.0,1.0,248.0319309997867,4.0,1.0,phase_1,,,,,,,,,,,,,yellow,circle
381.0,8.0,4.0,1.0,3.0,3.0,281.2218369999755,4.0,1.0,phase_1,,,,,,,,,,,,,magenta,cross
411.0,8.0,4.0,1.0,2.0,2.0,273.9631220001683,4.0,1.0,phase_1,,,,,,,,,,,,,magenta,cross
205.0,7.0,3.0,1.0,3.0,3.0,274.5866089999254,4.0,1.0,phase_1,,,,,,,,,,,,,yellow,circle
423.0,8.0,4.0,1.0,4.0,4.0,265.9037839998746,4.0,1.0,phase_1,,,,,,,,,,,,,magenta,cross
0.0,5.0,0.0,1.0,1.0,1.0,272.7291139999579,4.0,1.0,phase_1,,,,,,,,,,,,,cyan,flipped triangle
79.0,2.0,2.0,0.0,4.0,4.0,264.8835280001549,4.0,1.0,phase_1,,,,,,,,,,,,,green,triangle
394.0,8.0,4.0,1.0,3.0,3.0,279.1967399998611,4.0,1.0,phase_1,,,,,,,,,,,,,magenta,cross
54.0,1.0,1.0,0.0,4.0,4.0,273.3605910002552,4.0,1.0,phase_1,,,,,,,,,,,,,blue,square
198.0,3.0,3.0,0.0,2.0,2.0,254.9002069999915,4.0,1.0,phase_1,,,,,,,,,,,,,white,diamond
420.0,4.0,4.0,0.0,3.0,3.0,299.7595719998571,4.0,1.0,phase_1,,,,,,,,,,,,,gray,I
424.0,4.0,4.0,0.0,4.0,4.0,295.1372460001948,4.0,1.0,phase_1,,,,,,,,,,,,,gray,I
182.0,3.0,3.0,0.0,4.0,4.0,309.6861550002359,4.0,1.0,phase_1,,,,,,,,,,,,,white,diamond
0.0,6.0,0.0,1.0,3.0,3.0,316.6733490002116,4.0,1.0,phase_1,,,,,,,,,,,,,orange,hexagon
0.0,6.0,0.0,1.0,2.0,2.0,259.3779590001759,4.0,1.0,phase_1,,,,,,,,,,,,,orange,hexagon
0.0,1.0,0.0,0.0,3.0,3.0,275.0129330001982,4.0,1.0,phase_1,,,,,,,,,,,,,blue,square
414.0,8.0,4.0,1.0,1.0,1.0,285.9247809997214,4.0,1.0,phase_1,,,,,,,,,,,,,magenta,cross
0.0,4.0,0.0,0.0,4.0,4.0,296.2316100001771,4.0,1.0,phase_1,,,,,,,,,,,,,gray,I
78.0,2.0,2.0,0.0,1.0,1.0,247.4404429999595,4.0,1.0,phase_1,,,,,,,,,,,,,green,triangle
98.0,2.0,2.0,0.0,1.0,1.0,272.2770309997031,4.0,1.0,phase_1,,,,,,,,,,,,,green,triangle
176.0,7.0,3.0,1.0,1.0,1.0,278.5478509999848,4.0,1.0,phase_1,,,,,,,,,,,,,yellow,circle
81.0,2.0,2.0,0.0,1.0,1.0,255.33877800035037,4.0,1.0,phase_1,,,,,,,,,,,,,green,triangle
390.0,8.0,4.0,1.0,2.0,2.0,257.9978640001172,4.0,1.0,phase_1,,,,,,,,,,,,,magenta,cross
206.0,7.0,3.0,1.0,2.0,2.0,275.3450730001532,4.0,1.0,phase_1,,,,,,,,,,,,,yellow,circle
89.0,6.0,2.0,1.0,4.0,4.0,296.3442670002223,4.0,1.0,phase_1,,,,,,,,,,,,,orange,hexagon
115.0,2.0,2.0,0.0,4.0,4.0,221.0152110001217,4.0,1.0,phase_1,,,,,,,,,,,,,green,triangle
56.0,1.0,1.0,0.0,1.0,1.0,268.1976350004333,4.0,1.0,phase_1,,,,,,,,,,,,,blue,square
0.0,3.0,0.0,0.0,4.0,4.0,274.3395920001603,4.0,1.0,phase_1,,,,,,,,,,,,,white,diamond
0.0,7.0,0.0,1.0,3.0,3.0,261.1497709999639,4.0,1.0,phase_1,,,,,,,,,,,,,yellow,circle
124.0,2.0,2.0,0.0,2.0,2.0,258.9757380001174,4.0,1.0,phase_1,,,,,,,,,,,,,green,triangle
396.0,8.0,4.0,1.0,2.0,2.0,254.2944669999087,4.0,1.0,phase_1,,,,,,,,,,,,,magenta,cross
377.0,8.0,4.0,1.0,4.0,4.0,267.0948390000376,4.0,1.0,phase_1,,,,,,,,,,,,,magenta,cross
38.0,1.0,1.0,0.0,4.0,4.0,248.9704130002792,4.0,1.0,phase_1,,,,,,,,,,,,,blue,square
396.0,4.0,4.0,0.0,4.0,4.0,230.9858130001885,4.0,1.0,phase_1,,,,,,,,,,,,,gray,I
0.0,6.0,0.0,1.0,3.0,3.0,270.7652150002104,4.0,1.0,phase_1,,,,,,,,,,,,,orange,hexagon
36.0,1.0,1.0,0.0,3.0,3.0,286.6967519998979,4.0,1.0,phase_1,,,,,,,,,,,,,blue,square
187.0,7.0,3.0,1.0,2.0,2.0,296.8741159997989,4.0,1.0,phase_1,,,,,,,,,,,,,yellow,circle
195.0,7.0,3.0,1.0,1.0,1.0,258.8814519999687,4.0,1.0,phase_1,,,,,,,,,,,,,yellow,circle
77.0,6.0,2.0,1.0,1.0,1.0,286.829785000009,4.0,1.0,phase_1,,,,,,,,,,,,,orange,hexagon
194.0,7.0,3.0,1.0,2.0,2.0,242.5540739995995,4.0,1.0,phase_1,,,,,,,,,,,,,yellow,circle
85.0,2.0,2.0,0.0,4.0,4.0,257.8387700000348,4.0,1.0,phase_1,,,,,,,,,,,,,green,triangle
100.0,6.0,2.0,1.0,4.0,4.0,231.5074390003246,4.0,1.0,phase_1,,,,,,,,,,,,,orange,hexagon
212.0,3.0,3.0,0.0,1.0,1.0,292.3098740002388,4.0,1.0,phase_1,,,,,,,,,,,,,white,diamond
0.0,8.0,0.0,1.0,3.0,3.0,274.3397780000123,4.0,1.0,phase_1,,,,,,,,,,,,,magenta,cross
0.0,7.0,0.0,1.0,2.0,2.0,223.2498109997323,4.0,1.0,phase_1,,,,,,,,,,,,,yellow,circle
29.0,5.0,1.0,1.0,1.0,1.0,261.3512790003369,4.0,1.0,phase_1,,,,,,,,,,,,,cyan,flipped triangle
414.0,8.0,4.0,1.0,3.0,3.0,267.701431000205,4.0,1.0,phase_1,,,,,,,,,,,,,magenta,cross
100.0,6.0,2.0,1.0,1.0,1.0,335.2448180003193,4.0,1.0,phase_1,,,,,,,,,,,,,orange,hexagon
0.0,4.0,0.0,0.0,3.0,3.0,269.0379549999306,4.0,1.0,phase_1,,,,,,,,,,,,,gray,I
381.0,4.0,4.0,0.0,4.0,4.0,238.9391379997505,4.0,1.0,phase_1,,,,,,,,,,,,,gray,I
405.0,4.0,4.0,0.0,1.0,1.0,262.1699679998528,4.0,1.0,phase_1,,,,,,,,,,,,,gray,I
0.0,6.0,0.0,1.0,4.0,4.0,280.1797659999465,4.0,1.0,phase_1,,,,,,,,,,,,,orange,hexagon
42.0,1.0,1.0,0.0,4.0,4.0,271.9142959999772,4.0,1.0,phase_1,,,,,,,,,,,,,blue,square
0.0,6.0,0.0,1.0,3.0,3.0,288.2496749998608,4.0,1.0,phase_1,,,,,,,,,,,,,orange,hexagon
68.0,5.0,1.0,1.0,2.0,2.0,261.9830939997882,4.0,1.0,phase_1,,,,,,,,,,,,,cyan,flipped triangle
103.0,2.0,2.0,0.0,2.0,2.0,255.4772290000073,4.0,1.0,phase_1,,,,,,,,,,,,,green,triangle
202.0,3.0,3.0,0.0,4.0,4.0,270.335427000191,4.0,1.0,phase_1,,,,,,,,,,,,,white,diamond
119.0,2.0,2.0,0.0,3.0,3.0,282.0778029999928,4.0,1.0,phase_1,,,,,,,,,,,,,green,triangle
0.0,6.0,0.0,1.0,1.0,1.0,255.0871580001512,4.0,1.0,phase_1,,,,,,,,,,,,,orange,hexagon
46.0,5.0,1.0,1.0,4.0,4.0,269.1428289999749,4.0,1.0,phase_1,,,,,,,,,,,,,cyan,flipped triangle
71.0,1.0,1.0,0.0,1.0,1.0,260.0933610001448,4.0,1.0,phase_1,,,,,,,,,,,,,blue,square
73.0,5.0,1.0,1.0,3.0,3.0,256.0455679999904,4.0,1.0,phase_1,,,,,,,,,,,,,cyan,flipped triangle
193.0,3.0,3.0,0.0,3.0,3.0,279.2458760000045,4.0,1.0,phase_1,,,,,,,,,,,,,white,diamond
46.0,5.0,1.0,1.0,2.0,2.0,271.880560000227,4.0,1.0,phase_1,,,,,,,,,,,,,cyan,flipped triangle
94.0,6.0,2.0,1.0,4.0,4.0,280.3780459998961,4.0,1.0,phase_1,,,,,,,,,,,,,orange,hexagon
78.0,6.0,2.0,1.0,3.0,3.0,258.6079809998409,4.0,1.0,phase_1,,,,,,,,,,,,,orange,hexagon
386.0,8.0,4.0,1.0,4.0,4.0,249.9981529999786,4.0,1.0,phase_1,,,,,,,,,,,,,magenta,cross
41.0,1.0,1.0,0.0,4.0,4.0,301.752290999957,4.0,1.0,phase_1,,,,,,,,,,,,,blue,square
0.0,5.0,1.0,1.0,5.0,5.0,566.951569000139,1.0,1.0,phase_2,stop,250.0,250.0,3.0,,,,,,,,,cyan,flipped triangle
0.0,8.0,4.0,1.0,6.0,6.0,626.9794380000349,1.0,1.0,phase_2,go,200.0,250.0,1.0,,,,,,,,,magenta,cross
0.0,2.0,2.0,0.0,6.0,6.0,756.7302459997336,1.0,1.0,phase_2,go,200.0,250.0,1.0,,,,,,,,,green,triangle
0.0,8.0,4.0,1.0,6.0,0.0,0.0,1.0,1.0,phase_2,stop,200.0,250.0,4.0,,,,,,,,,magenta,cross
0.0,3.0,3.0,0.0,5.0,5.0,542.652513000121,1.0,1.0,phase_2,go,200.0,300.0,1.0,,,,,,,,,white,diamond
0.0,1.0,1.0,0.0,5.0,5.0,574.55722099985,1.0,1.0,phase_2,go,200.0,300.0,1.0,,,,,,,,,blue,square
0.0,2.0,2.0,0.0,6.0,6.0,769.004668999969,1.0,1.0,phase_2,go,200.0,300.0,1.0,,,,,,,,,green,triangle
0.0,3.0,3.0,0.0,6.0,6.0,697.6435900000979,1.0,1.0,phase_2,go,200.0,300.0,1.0,,,,,,,,,white,diamond
0.0,4.0,4.0,0.0,5.0,5.0,569.6215140001186,1.0,1.0,phase_2,go,200.0,300.0,1.0,,,,,,,,,gray,I
0.0,2.0,2.0,0.0,6.0,6.0,515.1424780001435,1.0,1.0,phase_2,go,200.0,300.0,1.0,,,,,,,,,green,triangle
0.0,3.0,3.0,0.0,5.0,5.0,445.5814530001589,1.0,1.0,phase_2,go,200.0,300.0,1.0,,,,,,,,,white,diamond
0.0,2.0,2.0,0.0,5.0,5.0,305.5717659999573,1.0,1.0,phase_2,go,200.0,300.0,1.0,,,,,,,,,green,triangle
0.0,2.0,2.0,0.0,6.0,6.0,677.0283399996515,1.0,1.0,phase_2,go,200.0,300.0,1.0,,,,,,,,,green,triangle
0.0,6.0,2.0,1.0,6.0,0.0,0.0,1.0,1.0,phase_2,stop,200.0,300.0,4.0,,,,,,,,,orange,hexagon
0.0,8.0,4.0,1.0,5.0,5.0,271.5697859998727,1.0,1.0,phase_2,stop,200.0,350.0,3.0,,,,,,,,,magenta,cross
0.0,7.0,3.0,1.0,5.0,0.0,0.0,1.0,1.0,phase_2,stop,150.0,350.0,4.0,,,,,,,,,yellow,circle
0.0,3.0,3.0,0.0,6.0,6.0,795.7991930002208,1.0,1.0,phase_2,go,200.0,350.0,1.0,,,,,,,,,white,diamond
0.0,7.0,3.0,1.0,6.0,0.0,0.0,1.0,1.0,phase_2,stop,200.0,350.0,4.0,,,,,,,,,yellow,circle
0.0,4.0,4.0,0.0,6.0,6.0,731.7892010000833,1.0,1.0,phase_2,go,200.0,400.0,1.0,,,,,,,,,gray,I
0.0,3.0,3.0,0.0,5.0,5.0,773.2968119998986,1.0,1.0,phase_2,go,200.0,400.0,1.0,,,,,,,,,white,diamond
0.0,8.0,4.0,1.0,5.0,0.0,0.0,1.0,1.0,phase_2,stop,200.0,400.0,4.0,,,,,,,,,magenta,cross
0.0,7.0,3.0,1.0,6.0,6.0,741.6492510001262,1.0,1.0,phase_2,go,250.0,400.0,1.0,,,,,,,,,yellow,circle
0.0,2.0,2.0,0.0,5.0,5.0,905.2757819999896,1.0,1.0,phase_2,go,250.0,400.0,1.0,,,,,,,,,green,triangle
0.0,1.0,1.0,0.0,5.0,5.0,633.4436490001281,1.0,1.0,phase_2,go,250.0,400.0,1.0,,,,,,,,,blue,square
0.0,5.0,1.0,1.0,5.0,0.0,0.0,1.0,1.0,phase_2,stop,250.0,400.0,4.0,,,,,,,,,cyan,flipped triangle
0.0,5.0,1.0,1.0,6.0,6.0,517.7167719998579,1.0,1.0,phase_2,go,300.0,400.0,1.0,,,,,,,,,cyan,flipped triangle
0.0,3.0,3.0,0.0,6.0,6.0,361.5969739998945,1.0,1.0,phase_2,go,300.0,400.0,1.0,,,,,,,,,white,diamond
0.0,6.0,2.0,1.0,6.0,0.0,0.0,1.0,1.0,phase_2,stop,300.0,400.0,4.0,,,,,,,,,orange,hexagon
0.0,8.0,4.0,1.0,5.0,0.0,0.0,1.0,1.0,phase_2,stop,300.0,450.0,4.0,,,,,,,,,magenta,cross
0.0,4.0,4.0,0.0,6.0,6.0,627.0330090001153,1.0,1.0,phase_2,go,350.0,450.0,1.0,,,,,,,,,gray,I
0.0,1.0,1.0,0.0,5.0,5.0,669.2908469999566,1.0,1.0,phase_2,go,350.0,450.0,1.0,,,,,,,,,blue,square
0.0,3.0,3.0,0.0,5.0,5.0,812.6768010001797,1.0,1.0,phase_2,go,350.0,450.0,1.0,,,,,,,,,white,diamond
0.0,7.0,3.0,1.0,5.0,0.0,0.0,1.0,1.0,phase_2,stop,350.0,450.0,4.0,,,,,,,,,yellow,circle
0.0,5.0,1.0,1.0,5.0,5.0,483.8949360000697,1.0,1.0,phase_2,go,400.0,450.0,1.0,,,,,,,,,cyan,flipped triangle
0.0,7.0,3.0,1.0,6.0,0.0,0.0,1.0,1.0,phase_2,stop,400.0,450.0,4.0,,,,,,,,,yellow,circle
0.0,5.0,1.0,1.0,5.0,5.0,712.8319430003103,1.0,1.0,phase_2,go,400.0,500.0,1.0,,,,,,,,,cyan,flipped triangle
0.0,5.0,1.0,1.0,6.0,0.0,0.0,2.0,1.0,phase_2,stop,400.0,500.0,4.0,,,,,,,,,cyan,flipped triangle
0.0,5.0,1.0,1.0,6.0,6.0,580.5636519999098,2.0,1.0,phase_2,stop,400.0,550.0,3.0,,,,,,,,,cyan,flipped triangle
0.0,1.0,1.0,0.0,5.0,5.0,655.8540149999317,2.0,1.0,phase_2,go,400.0,500.0,1.0,,,,,,,,,blue,square
0.0,3.0,3.0,0.0,5.0,5.0,690.9994430002371,2.0,1.0,phase_2,go,400.0,500.0,1.0,,,,,,,,,white,diamond
0.0,1.0,1.0,0.0,5.0,5.0,731.3724559999173,2.0,1.0,phase_2,go,400.0,500.0,1.0,,,,,,,,,blue,square
0.0,8.0,4.0,1.0,6.0,0.0,0.0,2.0,1.0,phase_2,stop,400.0,500.0,4.0,,,,,,,,,magenta,cross
0.0,5.0,1.0,1.0,6.0,6.0,712.0849789998829,2.0,1.0,phase_2,go,400.0,550.0,1.0,,,,,,,,,cyan,flipped triangle
0.0,1.0,1.0,0.0,5.0,5.0,729.9946080001973,2.0,1.0,phase_2,go,400.0,550.0,1.0,,,,,,,,,blue,square
0.0,2.0,2.0,0.0,5.0,5.0,590.8457479999925,2.0,1.0,phase_2,go,400.0,550.0,1.0,,,,,,,,,green,triangle
0.0,5.0,1.0,1.0,6.0,6.0,693.6731519999739,2.0,1.0,phase_2,stop,400.0,550.0,3.0,,,,,,,,,cyan,flipped triangle
0.0,2.0,2.0,0.0,5.0,5.0,776.4053820001209,2.0,1.0,phase_2,go,400.0,500.0,1.0,,,,,,,,,green,triangle
0.0,5.0,1.0,1.0,5.0,0.0,0.0,2.0,1.0,phase_2,stop,400.0,500.0,4.0,,,,,,,,,cyan,flipped triangle
0.0,4.0,4.0,0.0,6.0,6.0,708.103557999948,2.0,1.0,phase_2,go,450.0,500.0,1.0,,,,,,,,,gray,I
0.0,8.0,4.0,1.0,5.0,0.0,0.0,2.0,1.0,phase_2,stop,450.0,500.0,4.0,,,,,,,,,magenta,cross
0.0,1.0,1.0,0.0,6.0,6.0,647.6360719998411,2.0,1.0,phase_2,go,500.0,500.0,1.0,,,,,,,,,blue,square
0.0,7.0,3.0,1.0,5.0,0.0,0.0,2.0,1.0,phase_2,stop,500.0,500.0,4.0,,,,,,,,,yellow,circle
0.0,2.0,2.0,0.0,5.0,5.0,706.4462079997611,2.0,1.0,phase_2,go,550.0,500.0,1.0,,,,,,,,,green,triangle
0.0,8.0,4.0,1.0,6.0,0.0,0.0,2.0,1.0,phase_2,stop,550.0,500.0,4.0,,,,,,,,,magenta,cross
0.0,6.0,2.0,1.0,5.0,0.0,0.0,2.0,1.0,phase_2,stop,550.0,550.0,4.0,,,,,,,,,orange,hexagon
0.0,6.0,2.0,1.0,6.0,6.0,855.3222550003738,2.0,1.0,phase_2,go,600.0,550.0,1.0,,,,,,,,,orange,hexagon
0.0,2.0,2.0,0.0,6.0,6.0,867.0650760000171,2.0,1.0,phase_2,go,600.0,550.0,1.0,,,,,,,,,green,triangle
0.0,6.0,2.0,1.0,5.0,5.0,740.3856310002084,2.0,1.0,phase_2,go,600.0,550.0,1.0,,,,,,,,,orange,hexagon
0.0,5.0,1.0,1.0,6.0,0.0,0.0,2.0,1.0,phase_2,stop,600.0,550.0,4.0,,,,,,,,,cyan,flipped triangle
0.0,7.0,3.0,1.0,6.0,0.0,0.0,2.0,1.0,phase_2,stop,600.0,600.0,4.0,,,,,,,,,yellow,circle
0.0,8.0,4.0,1.0,6.0,0.0,0.0,2.0,1.0,phase_2,stop,600.0,650.0,4.0,,,,,,,,,magenta,cross
0.0,4.0,4.0,0.0,5.0,5.0,791.057106000153,2.0,1.0,phase_2,go,600.0,700.0,1.0,,,,,,,,,gray,I
0.0,2.0,2.0,0.0,6.0,6.0,1021.0985479998271,2.0,1.0,phase_2,go,600.0,700.0,1.0,,,,,,,,,green,triangle
0.0,5.0,1.0,1.0,5.0,5.0,748.5887200000434,2.0,1.0,phase_2,stop,600.0,700.0,3.0,,,,,,,,,cyan,flipped triangle
0.0,7.0,3.0,1.0,6.0,0.0,0.0,2.0,1.0,phase_2,stop,550.0,700.0,4.0,,,,,,,,,yellow,circle
0.0,8.0,4.0,1.0,6.0,0.0,0.0,2.0,1.0,phase_2,stop,550.0,750.0,4.0,,,,,,,,,magenta,cross
0.0,2.0,2.0,0.0,5.0,5.0,838.5075560004225,2.0,1.0,phase_2,go,550.0,800.0,1.0,,,,,,,,,green,triangle
0.0,6.0,2.0,1.0,5.0,0.0,0.0,2.0,1.0,phase_2,stop,550.0,800.0,4.0,,,,,,,,,orange,hexagon
0.0,3.0,3.0,0.0,6.0,6.0,1125.4342500001258,2.0,1.0,phase_2,go,600.0,800.0,1.0,,,,,,,,,white,diamond
0.0,3.0,3.0,0.0,5.0,5.0,963.517382000191,2.0,1.0,phase_2,go,600.0,800.0,1.0,,,,,,,,,white,diamond
0.0,6.0,2.0,1.0,5.0,0.0,0.0,2.0,1.0,phase_2,stop,600.0,800.0,4.0,,,,,,,,,orange,hexagon
0.0,1.0,1.0,0.0,6.0,6.0,918.636343000344,2.0,1.0,phase_2,go,650.0,800.0,1.0,,,,,,,,,blue,square
0.0,6.0,2.0,1.0,5.0,5.0,390.8576270000594,3.0,1.0,phase_2,stop,650.0,800.0,3.0,,,,,,,,,orange,hexagon
0.0,5.0,1.0,1.0,6.0,6.0,438.4131480001088,3.0,1.0,phase_2,stop,600.0,800.0,3.0,,,,,,,,,cyan,flipped triangle
0.0,3.0,3.0,0.0,6.0,5.0,268.0125420001786,3.0,1.0,phase_2,go,600.0,750.0,2.0,,,,,,,,,white,diamond
0.0,2.0,2.0,0.0,5.0,5.0,268.3498330002294,3.0,1.0,phase_2,go,600.0,750.0,1.0,,,,,,,,,green,triangle
0.0,3.0,3.0,0.0,6.0,6.0,629.6328030002769,3.0,1.0,phase_2,go,600.0,750.0,1.0,,,,,,,,,white,diamond
0.0,7.0,3.0,1.0,6.0,6.0,262.8805220001595,3.0,1.0,phase_2,stop,600.0,750.0,3.0,,,,,,,,,yellow,circle
0.0,4.0,4.0,0.0,6.0,6.0,519.5589089998975,3.0,1.0,phase_2,go,600.0,700.0,1.0,,,,,,,,,gray,I
0.0,8.0,4.0,1.0,6.0,6.0,260.6272299999546,3.0,1.0,phase_2,stop,600.0,700.0,3.0,,,,,,,,,magenta,cross
0.0,4.0,4.0,0.0,5.0,5.0,260.4709249999359,3.0,1.0,phase_2,go,600.0,650.0,1.0,,,,,,,,,gray,I
0.0,7.0,3.0,1.0,6.0,6.0,263.1565619999492,3.0,1.0,phase_2,stop,600.0,650.0,3.0,,,,,,,,,yellow,circle
0.0,7.0,3.0,1.0,6.0,6.0,282.9158179997648,3.0,1.0,phase_2,stop,600.0,600.0,3.0,,,,,,,,,yellow,circle
0.0,2.0,2.0,0.0,6.0,6.0,262.2940689998358,3.0,1.0,phase_2,go,600.0,550.0,1.0,,,,,,,,,green,triangle
0.0,8.0,4.0,1.0,5.0,5.0,246.1889400001382,3.0,1.0,phase_2,stop,600.0,550.0,3.0,,,,,,,,,magenta,cross
0.0,1.0,1.0,0.0,6.0,6.0,274.6636430001672,3.0,1.0,phase_2,go,550.0,550.0,1.0,,,,,,,,,blue,square
0.0,6.0,2.0,1.0,5.0,5.0,672.3316610000438,3.0,1.0,phase_2,go,550.0,550.0,1.0,,,,,,,,,orange,hexagon
0.0,1.0,1.0,0.0,6.0,6.0,500.90494599999147,3.0,1.0,phase_2,go,550.0,550.0,1.0,,,,,,,,,blue,square
0.0,5.0,1.0,1.0,6.0,6.0,293.0110740003329,3.0,1.0,phase_2,stop,550.0,550.0,3.0,,,,,,,,,cyan,flipped triangle
0.0,5.0,1.0,1.0,6.0,0.0,0.0,3.0,1.0,phase_2,stop,550.0,500.0,4.0,,,,,,,,,cyan,flipped triangle
0.0,4.0,4.0,0.0,6.0,6.0,524.854810999841,3.0,1.0,phase_2,go,550.0,550.0,1.0,,,,,,,,,gray,I
0.0,4.0,4.0,0.0,5.0,5.0,710.529232999761,3.0,1.0,phase_2,go,550.0,550.0,1.0,,,,,,,,,gray,I
0.0,3.0,3.0,0.0,6.0,6.0,254.7733950000292,3.0,1.0,phase_2,go,550.0,550.0,1.0,,,,,,,,,white,diamond
0.0,3.0,3.0,0.0,6.0,6.0,700.5383189998611,3.0,1.0,phase_2,go,550.0,550.0,1.0,,,,,,,,,white,diamond
0.0,2.0,2.0,0.0,5.0,5.0,703.2438460000776,3.0,1.0,phase_2,go,550.0,550.0,1.0,,,,,,,,,green,triangle
0.0,7.0,3.0,1.0,6.0,6.0,217.0570749999569,3.0,1.0,phase_2,stop,550.0,550.0,3.0,,,,,,,,,yellow,circle
0.0,5.0,1.0,1.0,5.0,0.0,0.0,3.0,1.0,phase_2,stop,550.0,500.0,4.0,,,,,,,,,cyan,flipped triangle
0.0,4.0,4.0,0.0,6.0,6.0,312.5268379999397,3.0,1.0,phase_2,go,600.0,500.0,1.0,,,,,,,,,gray,I
0.0,2.0,2.0,0.0,6.0,6.0,861.3096210001459,3.0,1.0,phase_2,go,600.0,500.0,1.0,,,,,,,,,green,triangle
0.0,2.0,2.0,0.0,6.0,6.0,302.7909000002182,3.0,1.0,phase_2,go,600.0,500.0,1.0,,,,,,,,,green,triangle
0.0,1.0,1.0,0.0,5.0,5.0,370.2035910000631,3.0,1.0,phase_2,go,600.0,500.0,1.0,,,,,,,,,blue,square
0.0,2.0,2.0,0.0,6.0,6.0,285.0466809995851,3.0,1.0,phase_2,go,600.0,500.0,1.0,,,,,,,,,green,triangle
0.0,4.0,4.0,0.0,5.0,5.0,384.1716219999398,3.0,1.0,phase_2,go,600.0,500.0,1.0,,,,,,,,,gray,I
0.0,1.0,1.0,0.0,5.0,5.0,317.3965830001179,3.0,1.0,phase_2,go,600.0,500.0,1.0,,,,,,,,,blue,square
0.0,1.0,1.0,0.0,5.0,5.0,293.2337899997037,3.0,1.0,phase_2,go,600.0,500.0,1.0,,,,,,,,,blue,square
0.0,6.0,2.0,1.0,5.0,5.0,283.9338399999178,3.0,1.0,phase_2,stop,600.0,500.0,3.0,,,,,,,,,orange,hexagon
0.0,7.0,3.0,1.0,6.0,0.0,0.0,3.0,1.0,phase_2,stop,550.0,500.0,4.0,,,,,,,,,yellow,circle
0.0,8.0,4.0,1.0,6.0,6.0,305.4428539999207,3.0,1.0,phase_2,go,550.0,550.0,1.0,,,,,,,,,magenta,cross
0.0,1.0,1.0,0.0,5.0,5.0,657.1386740001799,4.0,1.0,phase_2,go,550.0,550.0,1.0,,,,,,,,,blue,square
0.0,5.0,1.0,1.0,5.0,5.0,259.8956229999203,4.0,1.0,phase_2,stop,550.0,550.0,3.0,,,,,,,,,cyan,flipped triangle
0.0,3.0,3.0,0.0,5.0,5.0,668.2500649999383,4.0,1.0,phase_2,go,500.0,550.0,1.0,,,,,,,,,white,diamond
0.0,4.0,4.0,0.0,6.0,6.0,362.2354439999071,4.0,1.0,phase_2,go,500.0,550.0,1.0,,,,,,,,,gray,I
0.0,4.0,4.0,0.0,6.0,6.0,338.44130999978,4.0,1.0,phase_2,go,500.0,550.0,1.0,,,,,,,,,gray,I
0.0,5.0,1.0,1.0,5.0,5.0,1003.3781330002969,4.0,1.0,phase_2,go,500.0,550.0,1.0,,,,,,,,,cyan,flipped triangle
0.0,6.0,2.0,1.0,6.0,6.0,268.8108849997661,4.0,1.0,phase_2,stop,500.0,550.0,3.0,,,,,,,,,orange,hexagon
0.0,7.0,3.0,1.0,6.0,0.0,0.0,4.0,1.0,phase_2,stop,500.0,500.0,4.0,,,,,,,,,yellow,circle
0.0,6.0,2.0,1.0,6.0,0.0,0.0,4.0,1.0,phase_2,stop,500.0,550.0,4.0,,,,,,,,,orange,hexagon
0.0,2.0,2.0,0.0,6.0,6.0,790.3153099996416,4.0,1.0,phase_2,go,500.0,600.0,1.0,,,,,,,,,green,triangle
0.0,1.0,1.0,0.0,5.0,5.0,442.5588259996402,4.0,1.0,phase_2,go,500.0,600.0,1.0,,,,,,,,,blue,square
0.0,4.0,4.0,0.0,5.0,5.0,401.829712000108,4.0,1.0,phase_2,go,500.0,600.0,1.0,,,,,,,,,gray,I
0.0,7.0,3.0,1.0,5.0,5.0,304.9826589999611,4.0,1.0,phase_2,go,500.0,600.0,1.0,,,,,,,,,yellow,circle
0.0,3.0,3.0,0.0,6.0,6.0,591.5419020002446,4.0,1.0,phase_2,go,500.0,600.0,1.0,,,,,,,,,white,diamond
0.0,1.0,1.0,0.0,6.0,6.0,485.2326489999541,4.0,1.0,phase_2,go,500.0,600.0,1.0,,,,,,,,,blue,square
0.0,8.0,4.0,1.0,5.0,0.0,0.0,4.0,1.0,phase_2,stop,500.0,600.0,4.0,,,,,,,,,magenta,cross
0.0,8.0,4.0,1.0,5.0,5.0,621.6145270000197,4.0,1.0,phase_2,stop,550.0,600.0,3.0,,,,,,,,,magenta,cross
0.0,2.0,2.0,0.0,5.0,5.0,823.9460679997137,4.0,1.0,phase_2,go,500.0,600.0,1.0,,,,,,,,,green,triangle
0.0,1.0,1.0,0.0,5.0,5.0,465.5442609996498,4.0,1.0,phase_2,go,500.0,600.0,1.0,,,,,,,,,blue,square
0.0,4.0,4.0,0.0,5.0,5.0,488.2404249997307,4.0,1.0,phase_2,go,500.0,600.0,1.0,,,,,,,,,gray,I
0.0,8.0,4.0,1.0,5.0,5.0,1168.387760999849,4.0,1.0,phase_2,go,500.0,600.0,1.0,,,,,,,,,magenta,cross
0.0,3.0,3.0,0.0,5.0,5.0,502.35777399984727,4.0,1.0,phase_2,go,500.0,600.0,1.0,,,,,,,,,white,diamond
0.0,3.0,3.0,0.0,6.0,6.0,396.3933059999363,4.0,1.0,phase_2,go,500.0,600.0,1.0,,,,,,,,,white,diamond
0.0,6.0,2.0,1.0,6.0,0.0,0.0,4.0,1.0,phase_2,stop,500.0,600.0,4.0,,,,,,,,,orange,hexagon
0.0,4.0,4.0,0.0,6.0,6.0,371.0337419997813,4.0,1.0,phase_2,go,500.0,650.0,1.0,,,,,,,,,gray,I
0.0,1.0,1.0,0.0,5.0,5.0,507.88850599974467,4.0,1.0,phase_2,go,500.0,650.0,1.0,,,,,,,,,blue,square
0.0,7.0,3.0,1.0,5.0,0.0,0.0,4.0,1.0,phase_2,stop,500.0,650.0,4.0,,,,,,,,,yellow,circle
0.0,1.0,1.0,0.0,6.0,6.0,315.9267209998688,4.0,1.0,phase_2,go,550.0,650.0,1.0,,,,,,,,,blue,square
0.0,6.0,2.0,1.0,6.0,0.0,0.0,4.0,1.0,phase_2,stop,550.0,650.0,4.0,,,,,,,,,orange,hexagon
0.0,4.0,4.0,0.0,6.0,6.0,388.9649840002676,4.0,1.0,phase_2,go,550.0,700.0,1.0,,,,,,,,,gray,I
0.0,5.0,1.0,1.0,5.0,0.0,0.0,4.0,1.0,phase_2,stop,550.0,700.0,4.0,,,,,,,,,cyan,flipped triangle
0.0,3.0,3.0,0.0,6.0,6.0,279.1763449999962,4.0,1.0,phase_2,go,600.0,700.0,1.0,,,,,,,,,white,diamond
0.0,3.0,3.0,0.0,5.0,5.0,371.117828000024,4.0,1.0,phase_2,go,600.0,700.0,1.0,,,,,,,,,white,diamond
0.0,6.0,2.0,1.0,5.0,5.0,905.5237420002412,4.0,1.0,phase_2,go,600.0,700.0,1.0,,,,,,,,,orange,hexagon
0.0,5.0,1.0,1.0,5.0,0.0,0.0,4.0,1.0,phase_2,stop,600.0,700.0,4.0,,,,,,,,,cyan,flipped triangle
0.0,7.0,3.0,1.0,5.0,5.0,419.6648769998319,4.0,1.0,phase_2,stop,650.0,700.0,3.0,,,,,,,,,yellow,circle
0.0,2.0,2.0,0.0,5.0,5.0,618.7009949999265,5.0,1.0,phase_2,go,600.0,700.0,1.0,,,,,,,,,green,triangle
0.0,5.0,1.0,1.0,6.0,0.0,0.0,5.0,1.0,phase_2,stop,600.0,700.0,4.0,,,,,,,,,cyan,flipped triangle
0.0,3.0,3.0,0.0,6.0,6.0,454.9356879997503,5.0,1.0,phase_2,go,600.0,750.0,1.0,,,,,,,,,white,diamond
0.0,7.0,3.0,1.0,6.0,6.0,1012.9290790000596,5.0,1.0,phase_2,go,600.0,750.0,1.0,,,,,,,,,yellow,circle
0.0,7.0,3.0,1.0,6.0,6.0,871.2901899998542,5.0,1.0,phase_2,stop,600.0,750.0,3.0,,,,,,,,,yellow,circle
0.0,8.0,4.0,1.0,6.0,0.0,0.0,5.0,1.0,phase_2,stop,600.0,700.0,4.0,,,,,,,,,magenta,cross
0.0,1.0,1.0,0.0,6.0,6.0,481.3192820001859,5.0,1.0,phase_2,go,600.0,750.0,1.0,,,,,,,,,blue,square
0.0,2.0,2.0,0.0,5.0,5.0,326.6130609999891,5.0,1.0,phase_2,go,600.0,750.0,1.0,,,,,,,,,green,triangle
0.0,2.0,2.0,0.0,5.0,5.0,361.9461399998727,5.0,1.0,phase_2,go,600.0,750.0,1.0,,,,,,,,,green,triangle
0.0,5.0,1.0,1.0,6.0,6.0,363.9948999998523,5.0,1.0,phase_2,stop,600.0,750.0,3.0,,,,,,,,,cyan,flipped triangle
0.0,1.0,1.0,0.0,6.0,6.0,618.219443000271,5.0,1.0,phase_2,go,600.0,700.0,1.0,,,,,,,,,blue,square
0.0,6.0,2.0,1.0,5.0,0.0,0.0,5.0,1.0,phase_2,stop,600.0,700.0,4.0,,,,,,,,,orange,hexagon
0.0,7.0,3.0,1.0,6.0,0.0,0.0,5.0,1.0,phase_2,stop,650.0,700.0,4.0,,,,,,,,,yellow,circle
0.0,8.0,4.0,1.0,5.0,5.0,818.6057879997861,5.0,1.0,phase_2,stop,650.0,750.0,3.0,,,,,,,,,magenta,cross
0.0,4.0,4.0,0.0,6.0,6.0,528.0065189999732,5.0,1.0,phase_2,go,600.0,750.0,1.0,,,,,,,,,gray,I
0.0,8.0,4.0,1.0,5.0,5.0,543.6569999997118,5.0,1.0,phase_2,stop,600.0,750.0,3.0,,,,,,,,,magenta,cross
0.0,8.0,4.0,1.0,5.0,0.0,0.0,5.0,1.0,phase_2,stop,550.0,750.0,4.0,,,,,,,,,magenta,cross
0.0,4.0,4.0,0.0,5.0,5.0,575.4476440001781,5.0,1.0,phase_2,go,600.0,750.0,1.0,,,,,,,,,gray,I
0.0,6.0,2.0,1.0,5.0,0.0,0.0,5.0,1.0,phase_2,stop,600.0,750.0,4.0,,,,,,,,,orange,hexagon
0.0,7.0,3.0,1.0,6.0,0.0,0.0,5.0,1.0,phase_2,stop,650.0,750.0,4.0,,,,,,,,,yellow,circle
0.0,2.0,2.0,0.0,5.0,5.0,622.3192779998499,5.0,1.0,phase_2,go,650.0,800.0,1.0,,,,,,,,,green,triangle
0.0,1.0,1.0,0.0,6.0,6.0,428.3403570002519,5.0,1.0,phase_2,go,650.0,800.0,1.0,,,,,,,,,blue,square
0.0,5.0,1.0,1.0,5.0,5.0,1055.6608020001477,5.0,1.0,phase_2,go,650.0,800.0,1.0,,,,,,,,,cyan,flipped triangle
0.0,4.0,4.0,0.0,5.0,5.0,442.920569999842,5.0,1.0,phase_2,go,650.0,800.0,1.0,,,,,,,,,gray,I
0.0,2.0,2.0,0.0,5.0,5.0,486.0477389997868,5.0,1.0,phase_2,go,650.0,800.0,1.0,,,,,,,,,green,triangle
0.0,6.0,2.0,1.0,6.0,6.0,939.4546799999262,5.0,1.0,phase_2,stop,650.0,800.0,3.0,,,,,,,,,orange,hexagon
0.0,4.0,4.0,0.0,6.0,6.0,505.79284500008725,5.0,1.0,phase_2,go,650.0,750.0,1.0,,,,,,,,,gray,I
0.0,5.0,1.0,1.0,5.0,0.0,0.0,5.0,1.0,phase_2,stop,650.0,750.0,4.0,,,,,,,,,cyan,flipped triangle
0.0,5.0,1.0,1.0,6.0,6.0,1272.4444380000932,5.0,1.0,phase_2,go,700.0,750.0,1.0,,,,,,,,,cyan,flipped triangle
0.0,6.0,2.0,1.0,6.0,0.0,0.0,5.0,1.0,phase_2,stop,700.0,750.0,4.0,,,,,,,,,orange,hexagon
0.0,7.0,3.0,1.0,5.0,0.0,0.0,5.0,1.0,phase_2,stop,700.0,800.0,4.0,,,,,,,,,yellow,circle
0.0,1.0,1.0,0.0,6.0,6.0,555.727417000071,5.0,1.0,phase_2,go,750.0,800.0,1.0,,,,,,,,,blue,square
0.0,2.0,2.0,0.0,6.0,6.0,488.7192809997032,5.0,1.0,phase_2,go,750.0,800.0,1.0,,,,,,,,,green,triangle
0.0,4.0,4.0,0.0,5.0,5.0,560.5827760000466,5.0,1.0,phase_2,go,750.0,800.0,1.0,,,,,,,,,gray,I
0.0,5.0,1.0,1.0,5.0,0.0,0.0,5.0,1.0,phase_2,stop,750.0,800.0,4.0,,,,,,,,,cyan,flipped triangle
0.0,4.0,4.0,0.0,6.0,6.0,353.3334260000629,5.0,1.0,phase_2,go,800.0,800.0,1.0,,,,,,,,,gray,I
0.0,2.0,2.0,0.0,6.0,6.0,483.1238560000201,6.0,1.0,phase_2,go,800.0,800.0,1.0,,,,,,,,,green,triangle
0.0,5.0,1.0,1.0,5.0,0.0,0.0,6.0,1.0,phase_2,stop,800.0,800.0,4.0,,,,,,,,,cyan,flipped triangle
0.0,7.0,3.0,1.0,5.0,5.0,932.7426489999198,6.0,1.0,phase_2,stop,850.0,800.0,3.0,,,,,,,,,yellow,circle
0.0,6.0,2.0,1.0,6.0,0.0,0.0,6.0,1.0,phase_2,stop,800.0,800.0,4.0,,,,,,,,,orange,hexagon
0.0,3.0,3.0,0.0,5.0,5.0,604.8014550001426,6.0,1.0,phase_2,go,800.0,850.0,1.0,,,,,,,,,white,diamond
0.0,5.0,1.0,1.0,5.0,0.0,0.0,6.0,1.0,phase_2,stop,800.0,850.0,4.0,,,,,,,,,cyan,flipped triangle
0.0,2.0,2.0,0.0,6.0,6.0,514.834675000202,6.0,1.0,phase_2,go,850.0,850.0,1.0,,,,,,,,,green,triangle
0.0,3.0,3.0,0.0,6.0,6.0,493.8955960001294,6.0,1.0,phase_2,go,850.0,850.0,1.0,,,,,,,,,white,diamond
0.0,2.0,2.0,0.0,5.0,5.0,430.0850770000579,6.0,1.0,phase_2,go,850.0,850.0,1.0,,,,,,,,,green,triangle
0.0,7.0,3.0,1.0,5.0,5.0,416.4654609999161,6.0,1.0,phase_2,go,850.0,850.0,1.0,,,,,,,,,yellow,circle
0.0,6.0,2.0,1.0,6.0,0.0,0.0,6.0,1.0,phase_2,stop,850.0,850.0,4.0,,,,,,,,,orange,hexagon
0.0,7.0,3.0,1.0,5.0,5.0,379.5098770001459,6.0,1.0,phase_2,go,850.0,900.0,1.0,,,,,,,,,yellow,circle
0.0,6.0,2.0,1.0,6.0,0.0,0.0,6.0,1.0,phase_2,stop,850.0,900.0,4.0,,,,,,,,,orange,hexagon
0.0,1.0,1.0,0.0,5.0,5.0,486.0590140001477,6.0,1.0,phase_2,go,850.0,950.0,1.0,,,,,,,,,blue,square
0.0,7.0,3.0,1.0,5.0,0.0,0.0,6.0,1.0,phase_2,stop,850.0,950.0,4.0,,,,,,,,,yellow,circle
0.0,6.0,2.0,1.0,6.0,6.0,334.7527279997848,6.0,1.0,phase_2,stop,900.0,950.0,3.0,,,,,,,,,orange,hexagon
0.0,7.0,3.0,1.0,5.0,0.0,0.0,6.0,1.0,phase_2,stop,900.0,900.0,4.0,,,,,,,,,yellow,circle
0.0,1.0,1.0,0.0,6.0,6.0,429.3553850002354,6.0,1.0,phase_2,go,950.0,900.0,1.0,,,,,,,,,blue,square
0.0,7.0,3.0,1.0,5.0,5.0,1022.3347659998581,6.0,1.0,phase_2,stop,950.0,900.0,3.0,,,,,,,,,yellow,circle
0.0,7.0,3.0,1.0,5.0,5.0,552.8853890000391,6.0,1.0,phase_2,go,900.0,900.0,1.0,,,,,,,,,yellow,circle
0.0,2.0,2.0,0.0,6.0,6.0,488.3475790002194,6.0,1.0,phase_2,go,900.0,900.0,1.0,,,,,,,,,green,triangle
0.0,6.0,2.0,1.0,5.0,5.0,1030.6366330000856,6.0,1.0,phase_2,go,900.0,900.0,1.0,,,,,,,,,orange,hexagon
0.0,6.0,2.0,1.0,5.0,0.0,0.0,6.0,1.0,phase_2,stop,900.0,900.0,4.0,,,,,,,,,orange,hexagon
0.0,4.0,4.0,0.0,5.0,5.0,464.1818400000375,6.0,1.0,phase_2,go,950.0,900.0,1.0,,,,,,,,,gray,I
0.0,3.0,3.0,0.0,6.0,6.0,453.0246539998188,6.0,1.0,phase_2,go,950.0,900.0,1.0,,,,,,,,,white,diamond
0.0,7.0,3.0,1.0,5.0,5.0,1091.3509160000103,6.0,1.0,phase_2,stop,950.0,900.0,3.0,,,,,,,,,yellow,circle
0.0,7.0,3.0,1.0,5.0,5.0,1049.728134000361,6.0,1.0,phase_2,go,900.0,900.0,1.0,,,,,,,,,yellow,circle
0.0,8.0,4.0,1.0,6.0,6.0,874.2746099997021,6.0,1.0,phase_2,go,900.0,900.0,1.0,,,,,,,,,magenta,cross
0.0,1.0,1.0,0.0,5.0,5.0,679.5757360000607,6.0,1.0,phase_2,go,900.0,900.0,1.0,,,,,,,,,blue,square
0.0,1.0,1.0,0.0,6.0,6.0,298.2406099999934,6.0,1.0,phase_2,go,900.0,900.0,1.0,,,,,,,,,blue,square
0.0,7.0,3.0,1.0,6.0,6.0,1086.9873169999664,6.0,1.0,phase_2,go,900.0,900.0,1.0,,,,,,,,,yellow,circle
0.0,8.0,4.0,1.0,5.0,5.0,317.3061160000543,6.0,1.0,phase_2,stop,900.0,900.0,3.0,,,,,,,,,magenta,cross
0.0,6.0,2.0,1.0,5.0,0.0,0.0,6.0,1.0,phase_2,stop,850.0,900.0,4.0,,,,,,,,,orange,hexagon
0.0,8.0,4.0,1.0,5.0,5.0,951.639589000024,6.0,1.0,phase_2,stop,900.0,900.0,3.0,,,,,,,,,magenta,cross
0.0,5.0,1.0,1.0,6.0,6.0,999.6383829998194,6.0,1.0,phase_2,go,850.0,900.0,1.0,,,,,,,,,cyan,flipped triangle
0.0,4.0,4.0,0.0,5.0,5.0,435.8327909999389,6.0,1.0,phase_2,go,850.0,900.0,1.0,,,,,,,,,gray,I
0.0,6.0,2.0,1.0,6.0,6.0,1046.9535629999882,7.0,1.0,phase_2,stop,850.0,900.0,3.0,,,,,,,,,orange,hexagon
0.0,4.0,4.0,0.0,6.0,6.0,472.5759169996308,7.0,1.0,phase_2,go,850.0,850.0,1.0,,,,,,,,,gray,I
0.0,4.0,4.0,0.0,5.0,5.0,443.4344020000935,7.0,1.0,phase_2,go,850.0,850.0,1.0,,,,,,,,,gray,I
0.0,1.0,1.0,0.0,5.0,5.0,445.5862780000643,7.0,1.0,phase_2,go,850.0,850.0,1.0,,,,,,,,,blue,square
0.0,3.0,3.0,0.0,6.0,6.0,493.3336129997769,7.0,1.0,phase_2,go,850.0,850.0,1.0,,,,,,,,,white,diamond
0.0,6.0,2.0,1.0,6.0,0.0,0.0,7.0,1.0,phase_2,stop,850.0,850.0,4.0,,,,,,,,,orange,hexagon
0.0,2.0,2.0,0.0,5.0,5.0,439.901564000138,7.0,1.0,phase_2,go,850.0,900.0,1.0,,,,,,,,,green,triangle
0.0,3.0,3.0,0.0,6.0,6.0,432.4568789998011,7.0,1.0,phase_2,go,850.0,900.0,1.0,,,,,,,,,white,diamond
0.0,3.0,3.0,0.0,5.0,5.0,317.309780999949,7.0,1.0,phase_2,go,850.0,900.0,1.0,,,,,,,,,white,diamond
0.0,8.0,4.0,1.0,6.0,6.0,1061.620823999874,7.0,1.0,phase_2,go,850.0,900.0,1.0,,,,,,,,,magenta,cross
0.0,5.0,1.0,1.0,5.0,0.0,0.0,7.0,1.0,phase_2,stop,850.0,900.0,4.0,,,,,,,,,cyan,flipped triangle
0.0,6.0,2.0,1.0,6.0,0.0,0.0,7.0,1.0,phase_2,stop,900.0,900.0,4.0,,,,,,,,,orange,hexagon
0.0,6.0,2.0,1.0,5.0,5.0,935.8366609999392,7.0,1.0,phase_2,go,900.0,950.0,1.0,,,,,,,,,orange,hexagon
0.0,1.0,1.0,0.0,5.0,5.0,367.1802559997559,7.0,1.0,phase_2,go,900.0,950.0,1.0,,,,,,,,,blue,square
0.0,1.0,1.0,0.0,6.0,6.0,401.2490989998696,7.0,1.0,phase_2,go,900.0,950.0,1.0,,,,,,,,,blue,square
0.0,3.0,3.0,0.0,5.0,5.0,514.1271259999485,7.0,1.0,phase_2,go,900.0,950.0,1.0,,,,,,,,,white,diamond
0.0,1.0,1.0,0.0,6.0,6.0,423.7471789997471,7.0,1.0,phase_2,go,900.0,950.0,1.0,,,,,,,,,blue,square
0.0,2.0,2.0,0.0,6.0,6.0,357.8251200001432,7.0,1.0,phase_2,go,900.0,950.0,1.0,,,,,,,,,green,triangle
0.0,8.0,4.0,1.0,6.0,6.0,1058.167026999854,7.0,1.0,phase_2,stop,900.0,950.0,3.0,,,,,,,,,magenta,cross
0.0,6.0,2.0,1.0,6.0,0.0,0.0,7.0,1.0,phase_2,stop,900.0,900.0,4.0,,,,,,,,,orange,hexagon
0.0,2.0,2.0,0.0,5.0,5.0,431.7626550000568,7.0,1.0,phase_2,go,900.0,950.0,1.0,,,,,,,,,green,triangle
0.0,8.0,4.0,1.0,5.0,5.0,1057.3034220001318,7.0,1.0,phase_2,stop,900.0,950.0,3.0,,,,,,,,,magenta,cross
0.0,6.0,2.0,1.0,5.0,5.0,565.6580099998791,7.0,1.0,phase_2,go,850.0,950.0,1.0,,,,,,,,,orange,hexagon
0.0,1.0,1.0,0.0,6.0,6.0,481.044607000058,7.0,1.0,phase_2,go,850.0,950.0,1.0,,,,,,,,,blue,square
0.0,7.0,3.0,1.0,6.0,0.0,0.0,7.0,1.0,phase_2,stop,850.0,950.0,4.0,,,,,,,,,yellow,circle
0.0,7.0,3.0,1.0,6.0,6.0,1159.247821000008,7.0,1.0,phase_2,stop,850.0,1000.0,3.0,,,,,,,,,yellow,circle
0.0,4.0,4.0,0.0,6.0,6.0,486.7545889997018,7.0,1.0,phase_2,go,850.0,950.0,1.0,,,,,,,,,gray,I
0.0,3.0,3.0,0.0,5.0,5.0,473.9557489997423,7.0,1.0,phase_2,go,850.0,950.0,1.0,,,,,,,,,white,diamond
0.0,2.0,2.0,0.0,6.0,6.0,471.6000529997473,7.0,1.0,phase_2,go,850.0,950.0,1.0,,,,,,,,,green,triangle
0.0,6.0,2.0,1.0,5.0,0.0,0.0,7.0,1.0,phase_2,stop,850.0,950.0,4.0,,,,,,,,,orange,hexagon
0.0,7.0,3.0,1.0,5.0,5.0,420.6048750002082,7.0,1.0,phase_2,go,900.0,950.0,1.0,,,,,,,,,yellow,circle
0.0,1.0,1.0,0.0,6.0,6.0,455.7004240000424,7.0,1.0,phase_2,go,900.0,950.0,1.0,,,,,,,,,blue,square
0.0,3.0,3.0,0.0,5.0,5.0,410.2147960002185,7.0,1.0,phase_2,go,900.0,950.0,1.0,,,,,,,,,white,diamond
0.0,4.0,4.0,0.0,6.0,6.0,446.3871250000011,7.0,1.0,phase_2,go,900.0,950.0,1.0,,,,,,,,,gray,I
0.0,6.0,2.0,1.0,5.0,0.0,0.0,7.0,1.0,phase_2,stop,900.0,950.0,4.0,,,,,,,,,orange,hexagon
0.0,4.0,4.0,0.0,5.0,5.0,474.7508020000168,7.0,1.0,phase_2,go,950.0,950.0,1.0,,,,,,,,,gray,I
0.0,5.0,1.0,1.0,6.0,0.0,0.0,8.0,1.0,phase_2,stop,950.0,950.0,4.0,,,,,,,,,cyan,flipped triangle
0.0,3.0,3.0,0.0,5.0,5.0,471.2085780001871,8.0,1.0,phase_2,go,950.0,1000.0,1.0,,,,,,,,,white,diamond
0.0,1.0,1.0,0.0,6.0,6.0,482.8062540000246,8.0,1.0,phase_2,go,950.0,1000.0,1.0,,,,,,,,,blue,square
0.0,8.0,4.0,1.0,6.0,6.0,1216.0375260000365,8.0,1.0,phase_2,go,950.0,1000.0,1.0,,,,,,,,,magenta,cross
0.0,3.0,3.0,0.0,5.0,5.0,444.5387540004049,8.0,1.0,phase_2,go,950.0,1000.0,1.0,,,,,,,,,white,diamond
0.0,5.0,1.0,1.0,5.0,0.0,0.0,8.0,1.0,phase_2,stop,950.0,1000.0,4.0,,,,,,,,,cyan,flipped triangle
0.0,5.0,1.0,1.0,6.0,6.0,1087.125467000078,8.0,1.0,phase_2,stop,1000.0,1000.0,3.0,,,,,,,,,cyan,flipped triangle
0.0,4.0,4.0,0.0,5.0,5.0,424.2827450002551,8.0,1.0,phase_2,go,1000.0,950.0,1.0,,,,,,,,,gray,I
0.0,8.0,4.0,1.0,6.0,0.0,0.0,8.0,1.0,phase_2,stop,1000.0,950.0,4.0,,,,,,,,,magenta,cross
0.0,6.0,2.0,1.0,6.0,6.0,1272.3447289999967,8.0,1.0,phase_2,go,1000.0,1000.0,1.0,,,,,,,,,orange,hexagon
0.0,1.0,1.0,0.0,6.0,6.0,574.5756239998627,8.0,1.0,phase_2,go,1000.0,1000.0,1.0,,,,,,,,,blue,square
0.0,8.0,4.0,1.0,5.0,5.0,1097.606448000079,8.0,1.0,phase_2,go,1000.0,1000.0,1.0,,,,,,,,,magenta,cross
0.0,8.0,4.0,1.0,5.0,5.0,1049.582649000513,8.0,1.0,phase_2,stop,1000.0,1000.0,3.0,,,,,,,,,magenta,cross
0.0,2.0,2.0,0.0,5.0,5.0,469.3231609999202,8.0,1.0,phase_2,go,950.0,1000.0,1.0,,,,,,,,,green,triangle
0.0,6.0,2.0,1.0,5.0,5.0,1034.2348809999748,8.0,1.0,phase_2,go,950.0,1000.0,1.0,,,,,,,,,orange,hexagon
0.0,8.0,4.0,1.0,6.0,6.0,1209.5024750005905,8.0,1.0,phase_2,go,950.0,1000.0,1.0,,,,,,,,,magenta,cross
0.0,5.0,1.0,1.0,6.0,6.0,1038.7117750005928,8.0,1.0,phase_2,stop,950.0,1000.0,3.0,,,,,,,,,cyan,flipped triangle
0.0,4.0,4.0,0.0,6.0,6.0,447.5868640001863,8.0,1.0,phase_2,go,950.0,950.0,1.0,,,,,,,,,gray,I
0.0,8.0,4.0,1.0,5.0,5.0,981.1313010004596,8.0,1.0,phase_2,stop,950.0,950.0,3.0,,,,,,,,,magenta,cross
0.0,3.0,3.0,0.0,5.0,5.0,475.357709000491,8.0,1.0,phase_2,go,900.0,950.0,1.0,,,,,,,,,white,diamond
0.0,8.0,4.0,1.0,6.0,0.0,0.0,8.0,1.0,phase_2,stop,900.0,950.0,4.0,,,,,,,,,magenta,cross
0.0,8.0,4.0,1.0,6.0,0.0,0.0,8.0,1.0,phase_2,stop,900.0,1000.0,4.0,,,,,,,,,magenta,cross
0.0,5.0,1.0,1.0,6.0,6.0,1091.7838449995545,8.0,1.0,phase_2,go,900.0,1050.0,1.0,,,,,,,,,cyan,flipped triangle
0.0,4.0,4.0,0.0,5.0,5.0,459.876253999937,8.0,1.0,phase_2,go,900.0,1050.0,1.0,,,,,,,,,gray,I
0.0,4.0,4.0,0.0,5.0,5.0,360.0287039998875,8.0,1.0,phase_2,go,900.0,1050.0,1.0,,,,,,,,,gray,I
0.0,3.0,3.0,0.0,5.0,5.0,455.1936050002041,8.0,1.0,phase_2,go,900.0,1050.0,1.0,,,,,,,,,white,diamond
0.0,4.0,4.0,0.0,5.0,5.0,353.3432920003179,8.0,1.0,phase_2,go,900.0,1050.0,1.0,,,,,,,,,gray,I
0.0,8.0,4.0,1.0,5.0,5.0,1274.5132910004031,8.0,1.0,phase_2,go,900.0,1050.0,1.0,,,,,,,,,magenta,cross
0.0,3.0,3.0,0.0,6.0,6.0,444.2386529999567,8.0,1.0,phase_2,go,900.0,1050.0,1.0,,,,,,,,,white,diamond
0.0,2.0,2.0,0.0,6.0,6.0,317.2417309997399,8.0,1.0,phase_2,go,900.0,1050.0,1.0,,,,,,,,,green,triangle
0.0,1.0,1.0,0.0,5.0,5.0,447.9163839996545,8.0,1.0,phase_2,go,900.0,1050.0,1.0,,,,,,,,,blue,square
0.0,7.0,3.0,1.0,5.0,5.0,1031.1938669992742,8.0,1.0,phase_2,stop,900.0,1050.0,3.0,,,,,,,,,yellow,circle
0.0,3.0,3.0,0.0,6.0,6.0,307.4498860005406,8.0,1.0,phase_2,go,850.0,1050.0,1.0,,,,,,,,,white,diamond
0.0,5.0,1.0,1.0,6.0,6.0,378.6455059998843,8.0,1.0,phase_2,stop,850.0,1050.0,3.0,,,,,,,,,cyan,flipped triangle
0.0,4.0,4.0,0.0,6.0,6.0,366.3883700000951,8.0,1.0,phase_2,go,850.0,1000.0,1.0,,,,,,,,,gray,I
0.0,8.0,4.0,1.0,6.0,0.0,0.0,8.0,1.0,phase_2,stop,850.0,1000.0,4.0,,,,,,,,,magenta,cross
0.0,7.0,3.0,1.0,7.0,2.0,2061.104741000236,1.0,1.0,phase_3,,,,,270.0,5.0,54.0,270.0,216.0,324.0,162.0,108.0,yellow,circle
0.0,4.0,4.0,0.0,7.0,5.0,1501.38373199934,1.0,1.0,phase_3,,,,,156.0,4.0,78.0,195.0,234.0,39.0,156.0,117.0,gray,I
0.0,2.0,2.0,0.0,7.0,5.0,1120.9927869995229,1.0,1.0,phase_3,,,,,324.0,6.0,54.0,216.0,270.0,162.0,324.0,108.0,green,triangle
0.0,7.0,3.0,1.0,7.0,4.0,2180.2365080002346,1.0,1.0,phase_3,,,,,147.0,3.0,49.0,98.0,196.0,147.0,245.0,294.0,yellow,circle
0.0,6.0,2.0,1.0,7.0,3.0,1686.6579170000475,1.0,1.0,phase_3,,,,,54.0,1.0,108.0,162.0,54.0,270.0,216.0,324.0,orange,hexagon
0.0,5.0,1.0,1.0,7.0,4.0,2908.2591259993933,1.0,1.0,phase_3,,,,,264.0,6.0,44.0,88.0,176.0,264.0,132.0,220.0,cyan,flipped triangle
0.0,3.0,3.0,0.0,7.0,5.0,2554.1159660006088,1.0,1.0,phase_3,,,,,44.0,1.0,264.0,176.0,132.0,88.0,44.0,220.0,white,diamond
0.0,2.0,2.0,0.0,7.0,4.0,2496.340351000072,1.0,1.0,phase_3,,,,,117.0,3.0,195.0,39.0,156.0,117.0,78.0,234.0,green,triangle
0.0,8.0,4.0,1.0,7.0,6.0,2481.509930999892,1.0,1.0,phase_3,,,,,170.0,5.0,204.0,34.0,102.0,136.0,68.0,170.0,magenta,cross
0.0,6.0,2.0,1.0,7.0,3.0,2793.816586000503,1.0,1.0,phase_3,,,,,324.0,6.0,216.0,54.0,324.0,108.0,270.0,162.0,orange,hexagon
0.0,3.0,3.0,0.0,7.0,3.0,2425.371710000036,1.0,1.0,phase_3,,,,,39.0,1.0,117.0,78.0,39.0,195.0,234.0,156.0,white,diamond
0.0,7.0,3.0,1.0,7.0,2.0,2374.031500000456,1.0,1.0,phase_3,,,,,220.0,5.0,132.0,220.0,264.0,44.0,88.0,176.0,yellow,circle
0.0,3.0,3.0,0.0,7.0,6.0,1789.3683310003323,1.0,1.0,phase_3,,,,,98.0,2.0,196.0,294.0,147.0,49.0,245.0,98.0,white,diamond
0.0,3.0,3.0,0.0,7.0,1.0,2501.729536000312,1.0,1.0,phase_3,,,,,108.0,2.0,108.0,54.0,216.0,324.0,270.0,162.0,white,diamond
0.0,4.0,4.0,0.0,7.0,2.0,1982.468305999646,1.0,1.0,phase_3,,,,,34.0,1.0,136.0,34.0,170.0,68.0,204.0,102.0,gray,I
0.0,2.0,2.0,0.0,7.0,2.0,2042.2064170006702,1.0,1.0,phase_3,,,,,270.0,5.0,108.0,270.0,54.0,162.0,324.0,216.0,green,triangle
0.0,6.0,2.0,1.0,7.0,6.0,1850.595918999716,1.0,1.0,phase_3,,,,,234.0,6.0,195.0,78.0,39.0,117.0,156.0,234.0,orange,hexagon
0.0,1.0,1.0,0.0,7.0,1.0,2831.129488999977,1.0,1.0,phase_3,,,,,220.0,5.0,220.0,88.0,264.0,176.0,44.0,132.0,blue,square
0.0,8.0,4.0,1.0,7.0,1.0,2680.1101450000715,1.0,1.0,phase_3,,,,,204.0,6.0,204.0,102.0,136.0,34.0,170.0,68.0,magenta,cross
0.0,3.0,3.0,0.0,7.0,1.0,2805.4165070007,1.0,1.0,phase_3,,,,,68.0,2.0,68.0,136.0,102.0,170.0,34.0,204.0,white,diamond
0.0,4.0,4.0,0.0,7.0,5.0,2762.805794000087,2.0,1.0,phase_3,,,,,136.0,4.0,68.0,170.0,102.0,34.0,136.0,204.0,gray,I
0.0,7.0,3.0,1.0,7.0,4.0,3145.246643000064,2.0,1.0,phase_3,,,,,234.0,6.0,117.0,195.0,78.0,234.0,156.0,39.0,yellow,circle
0.0,6.0,2.0,1.0,7.0,5.0,3030.5108060001658,2.0,1.0,phase_3,,,,,136.0,4.0,102.0,68.0,34.0,204.0,136.0,170.0,orange,hexagon
0.0,3.0,3.0,0.0,7.0,2.0,2944.1346909998174,2.0,1.0,phase_3,,,,,220.0,5.0,44.0,220.0,176.0,264.0,88.0,132.0,white,diamond
0.0,4.0,4.0,0.0,7.0,2.0,2585.1420689996303,2.0,1.0,phase_3,,,,,196.0,4.0,294.0,196.0,49.0,98.0,147.0,245.0,gray,I
0.0,8.0,4.0,1.0,7.0,5.0,3814.7966440001255,2.0,1.0,phase_3,,,,,117.0,3.0,195.0,156.0,78.0,234.0,117.0,39.0,magenta,cross
0.0,8.0,4.0,1.0,7.0,1.0,2120.349355000144,2.0,1.0,phase_3,,,,,117.0,3.0,117.0,156.0,39.0,195.0,234.0,78.0,magenta,cross
0.0,2.0,2.0,0.0,7.0,5.0,3323.2830010001635,2.0,1.0,phase_3,,,,,136.0,4.0,170.0,68.0,102.0,34.0,136.0,204.0,green,triangle
0.0,1.0,1.0,0.0,7.0,6.0,2228.5698719997526,2.0,1.0,phase_3,,,,,270.0,5.0,216.0,108.0,162.0,54.0,324.0,270.0,blue,square
0.0,5.0,1.0,1.0,7.0,2.0,3175.408680000146,2.0,1.0,phase_3,,,,,245.0,5.0,147.0,245.0,196.0,98.0,49.0,294.0,cyan,flipped triangle
0.0,1.0,1.0,0.0,7.0,6.0,2238.461320999704,2.0,1.0,phase_3,,,,,234.0,6.0,156.0,78.0,39.0,195.0,117.0,234.0,blue,square
0.0,2.0,2.0,0.0,7.0,3.0,2785.052629999882,2.0,1.0,phase_3,,,,,170.0,5.0,34.0,136.0,170.0,68.0,102.0,204.0,green,triangle
0.0,7.0,3.0,1.0,7.0,1.0,3470.9921160001613,2.0,1.0,phase_3,,,,,108.0,2.0,108.0,162.0,54.0,324.0,216.0,270.0,yellow,circle
0.0,6.0,2.0,1.0,7.0,5.0,2979.7224510002707,2.0,1.0,phase_3,,,,,132.0,3.0,264.0,88.0,176.0,44.0,132.0,220.0,orange,hexagon
0.0,7.0,3.0,1.0,7.0,6.0,2345.938951000789,2.0,1.0,phase_3,,,,,68.0,2.0,136.0,204.0,102.0,34.0,170.0,68.0,yellow,circle
0.0,8.0,4.0,1.0,7.0,2.0,3677.5301409998074,2.0,1.0,phase_3,,,,,216.0,4.0,162.0,216.0,270.0,54.0,108.0,324.0,magenta,cross
0.0,2.0,2.0,0.0,7.0,1.0,3050.3149599999238,2.0,1.0,phase_3,,,,,195.0,5.0,195.0,234.0,78.0,39.0,156.0,117.0,green,triangle
0.0,8.0,4.0,1.0,7.0,5.0,2048.826964,2.0,1.0,phase_3,,,,,220.0,5.0,44.0,88.0,132.0,176.0,220.0,264.0,magenta,cross
0.0,6.0,2.0,1.0,7.0,1.0,3013.413499000308,2.0,1.0,phase_3,,,,,68.0,2.0,68.0,170.0,34.0,136.0,204.0,102.0,orange,hexagon
0.0,2.0,2.0,0.0,7.0,6.0,3916.756758999327,2.0,1.0,phase_3,,,,,245.0,5.0,147.0,196.0,98.0,49.0,294.0,245.0,green,triangle
0.0,1.0,1.0,0.0,7.0,6.0,4425.487993999923,3.0,1.0,phase_3,,,,,245.0,5.0,147.0,294.0,196.0,98.0,49.0,245.0,blue,square
0.0,4.0,4.0,0.0,7.0,4.0,3003.029804000107,3.0,1.0,phase_3,,,,,162.0,3.0,54.0,108.0,324.0,162.0,216.0,270.0,gray,I
0.0,2.0,2.0,0.0,7.0,5.0,3834.7097529995153,3.0,1.0,phase_3,,,,,220.0,5.0,132.0,264.0,44.0,176.0,220.0,88.0,green,triangle
0.0,1.0,1.0,0.0,7.0,5.0,3680.5103529995904,3.0,1.0,phase_3,,,,,270.0,5.0,54.0,324.0,108.0,162.0,270.0,216.0,blue,square
0.0,3.0,3.0,0.0,7.0,6.0,2385.662004000551,3.0,1.0,phase_3,,,,,39.0,1.0,234.0,117.0,156.0,195.0,78.0,39.0,white,diamond
0.0,1.0,1.0,0.0,7.0,2.0,2076.4944060001653,3.0,1.0,phase_3,,,,,294.0,6.0,147.0,294.0,49.0,196.0,245.0,98.0,blue,square
0.0,3.0,3.0,0.0,7.0,2.0,2913.227168000049,3.0,1.0,phase_3,,,,,34.0,1.0,204.0,34.0,68.0,170.0,136.0,102.0,white,diamond
0.0,2.0,2.0,0.0,7.0,2.0,4478.492481000103,3.0,1.0,phase_3,,,,,147.0,3.0,196.0,147.0,98.0,294.0,245.0,49.0,green,triangle
0.0,7.0,3.0,1.0,7.0,4.0,2765.269998000804,3.0,1.0,phase_3,,,,,196.0,4.0,147.0,245.0,98.0,196.0,49.0,294.0,yellow,circle
0.0,1.0,1.0,0.0,7.0,4.0,1528.797728000427,3.0,1.0,phase_3,,,,,234.0,6.0,117.0,39.0,78.0,234.0,195.0,156.0,blue,square
0.0,4.0,4.0,0.0,7.0,6.0,3289.324796000073,3.0,1.0,phase_3,,,,,220.0,5.0,88.0,132.0,176.0,44.0,264.0,220.0,gray,I
0.0,4.0,4.0,0.0,7.0,4.0,2222.15666899956,3.0,1.0,phase_3,,,,,220.0,5.0,88.0,132.0,264.0,220.0,44.0,176.0,gray,I
0.0,6.0,2.0,1.0,7.0,2.0,2911.440617999688,3.0,1.0,phase_3,,,,,156.0,4.0,78.0,156.0,195.0,39.0,117.0,234.0,orange,hexagon
0.0,8.0,4.0,1.0,7.0,1.0,3522.380147999684,3.0,1.0,phase_3,,,,,176.0,4.0,176.0,220.0,88.0,44.0,132.0,264.0,magenta,cross
0.0,6.0,2.0,1.0,7.0,1.0,2402.503139000146,3.0,1.0,phase_3,,,,,147.0,3.0,147.0,245.0,196.0,98.0,294.0,49.0,orange,hexagon
0.0,5.0,1.0,1.0,7.0,4.0,3161.210040999322,3.0,1.0,phase_3,,,,,102.0,3.0,170.0,34.0,68.0,102.0,204.0,136.0,cyan,flipped triangle
0.0,5.0,1.0,1.0,7.0,5.0,1108.5969489995475,3.0,1.0,phase_3,,,,,102.0,3.0,136.0,170.0,34.0,68.0,102.0,204.0,cyan,flipped triangle
0.0,1.0,1.0,0.0,7.0,5.0,1771.9234169999254,3.0,1.0,phase_3,,,,,204.0,6.0,34.0,170.0,102.0,68.0,204.0,136.0,blue,square
0.0,7.0,3.0,1.0,7.0,2.0,783.3747810000204,3.0,2.0,phase_3,,,,,176.0,4.0,88.0,176.0,264.0,44.0,220.0,132.0,yellow,circle
0.0,7.0,3.0,1.0,7.0,4.0,1575.129195000045,3.0,1.0,phase_3,,,,,156.0,4.0,39.0,117.0,195.0,156.0,234.0,78.0,yellow,circle
0.0,5.0,1.0,1.0,7.0,6.0,1802.679976000036,4.0,1.0,phase_3,,,,,147.0,3.0,196.0,245.0,294.0,49.0,98.0,147.0,cyan,flipped triangle
0.0,4.0,4.0,0.0,7.0,5.0,1092.4165739997989,4.0,1.0,phase_3,,,,,294.0,6.0,196.0,147.0,49.0,98.0,294.0,245.0,gray,I
0.0,5.0,1.0,1.0,7.0,2.0,2394.405580000239,4.0,1.0,phase_3,,,,,132.0,3.0,264.0,132.0,220.0,176.0,88.0,44.0,cyan,flipped triangle
0.0,3.0,3.0,0.0,7.0,1.0,3057.413044999521,4.0,1.0,phase_3,,,,,270.0,5.0,270.0,162.0,216.0,324.0,54.0,108.0,white,diamond
0.0,1.0,1.0,0.0,7.0,4.0,3018.177637999542,4.0,1.0,phase_3,,,,,68.0,2.0,204.0,34.0,102.0,68.0,170.0,136.0,blue,square
0.0,5.0,1.0,1.0,7.0,3.0,3797.927418000654,4.0,1.0,phase_3,,,,,216.0,4.0,54.0,162.0,216.0,270.0,324.0,108.0,cyan,flipped triangle
0.0,6.0,2.0,1.0,7.0,3.0,3247.18530500013,4.0,1.0,phase_3,,,,,132.0,3.0,220.0,264.0,132.0,44.0,176.0,88.0,orange,hexagon
0.0,7.0,3.0,1.0,7.0,2.0,3268.9078860003065,4.0,1.0,phase_3,,,,,68.0,2.0,170.0,68.0,136.0,34.0,102.0,204.0,yellow,circle
0.0,3.0,3.0,0.0,7.0,1.0,3370.4789700004767,4.0,1.0,phase_3,,,,,196.0,4.0,196.0,294.0,245.0,98.0,49.0,147.0,white,diamond
0.0,4.0,4.0,0.0,7.0,4.0,2660.572451999542,4.0,1.0,phase_3,,,,,156.0,4.0,195.0,39.0,117.0,156.0,78.0,234.0,gray,I
0.0,1.0,1.0,0.0,7.0,5.0,1268.4642379999786,4.0,1.0,phase_3,,,,,264.0,6.0,88.0,44.0,132.0,176.0,264.0,220.0,blue,square
0.0,5.0,1.0,1.0,7.0,1.0,1957.6508460004331,4.0,1.0,phase_3,,,,,324.0,6.0,324.0,54.0,162.0,270.0,108.0,216.0,cyan,flipped triangle
0.0,6.0,2.0,1.0,7.0,5.0,2721.329247999165,4.0,1.0,phase_3,,,,,98.0,2.0,294.0,196.0,49.0,147.0,98.0,245.0,orange,hexagon
0.0,5.0,1.0,1.0,7.0,5.0,1771.4323529999092,4.0,1.0,phase_3,,,,,234.0,6.0,156.0,117.0,39.0,78.0,234.0,195.0,cyan,flipped triangle
0.0,8.0,4.0,1.0,7.0,4.0,3661.7215169999326,4.0,1.0,phase_3,,,,,245.0,5.0,147.0,294.0,98.0,245.0,49.0,196.0,magenta,cross
0.0,5.0,1.0,1.0,7.0,3.0,1643.140289000257,4.0,1.0,phase_3,,,,,234.0,6.0,156.0,195.0,234.0,39.0,78.0,117.0,cyan,flipped triangle
0.0,2.0,2.0,0.0,7.0,3.0,3499.500408000131,4.0,1.0,phase_3,,,,,88.0,2.0,264.0,220.0,88.0,132.0,176.0,44.0,green,triangle
0.0,8.0,4.0,1.0,7.0,6.0,2408.1429999996544,4.0,1.0,phase_3,,,,,108.0,2.0,216.0,270.0,324.0,162.0,54.0,108.0,magenta,cross
0.0,4.0,4.0,0.0,7.0,5.0,2296.5849530000924,4.0,1.0,phase_3,,,,,216.0,4.0,108.0,324.0,162.0,54.0,216.0,270.0,gray,I
0.0,8.0,4.0,1.0,7.0,2.0,2481.1512109999967,4.0,1.0,phase_3,,,,,49.0,1.0,196.0,49.0,147.0,294.0,245.0,98.0,magenta,cross
