raw_reward_magnitude,stim_reward,stepwise_reward_magnitude,paired_with_stopping,stim_location,response,reaction_time,block,num_trial_presentations,which_phase,stop_signal_trial_type,left_SSD,right_SSD,accuracy,chosen_bidding_amount,chosen_bidding_level,possible_bid_1,possible_bid_2,possible_bid_3,possible_bid_4,possible_bid_5,possible_bid_6,color_text,shape_text
0.0,2.0,0.0,0.0,3.0,3.0,394.6884009999394,1.0,1.0,phase_1,,,,,,,,,,,,,blue,flipped triangle
407.0,8.0,4.0,1.0,2.0,2.0,379.3292499999552,1.0,1.0,phase_1,,,,,,,,,,,,,cyan,cross
202.0,7.0,2.0,1.0,2.0,2.0,398.5934160000397,1.0,1.0,phase_1,,,,,,,,,,,,,yellow,square
78.0,6.0,1.0,1.0,4.0,4.0,452.333673999874,1.0,1.0,phase_1,,,,,,,,,,,,,gray,diamond
0.0,7.0,0.0,1.0,2.0,2.0,344.7119499996915,1.0,1.0,phase_1,,,,,,,,,,,,,yellow,square
97.0,6.0,1.0,1.0,1.0,1.0,374.616247999711,1.0,1.0,phase_1,,,,,,,,,,,,,gray,diamond
413.0,8.0,4.0,1.0,3.0,3.0,449.4017049996728,1.0,1.0,phase_1,,,,,,,,,,,,,cyan,cross
0.0,2.0,0.0,0.0,1.0,1.0,291.6406990002542,1.0,1.0,phase_1,,,,,,,,,,,,,blue,flipped triangle
213.0,7.0,2.0,1.0,2.0,2.0,361.4472959998238,1.0,1.0,phase_1,,,,,,,,,,,,,yellow,square
0.0,4.0,0.0,0.0,2.0,2.0,350.5760739999459,1.0,1.0,phase_1,,,,,,,,,,,,,orange,hexagon
55.0,5.0,0.5,1.0,2.0,2.0,387.3935940000592,1.0,1.0,phase_1,,,,,,,,,,,,,green,I
0.0,7.0,0.0,1.0,4.0,4.0,323.1251550000706,1.0,1.0,phase_1,,,,,,,,,,,,,yellow,square
98.0,6.0,1.0,1.0,1.0,1.0,464.2883040000924,1.0,1.0,phase_1,,,,,,,,,,,,,gray,diamond
180.0,3.0,2.0,0.0,4.0,4.0,491.5856379998331,1.0,1.0,phase_1,,,,,,,,,,,,,magenta,circle
185.0,3.0,2.0,0.0,3.0,3.0,458.0748559997118,1.0,1.0,phase_1,,,,,,,,,,,,,magenta,circle
122.0,2.0,1.0,0.0,3.0,3.0,346.0112759998992,1.0,1.0,phase_1,,,,,,,,,,,,,blue,flipped triangle
205.0,3.0,2.0,0.0,2.0,2.0,323.8543890001892,1.0,1.0,phase_1,,,,,,,,,,,,,magenta,circle
178.0,3.0,2.0,0.0,4.0,4.0,328.7184010000601,1.0,1.0,phase_1,,,,,,,,,,,,,magenta,circle
115.0,6.0,1.0,1.0,4.0,4.0,424.1644599997016,1.0,1.0,phase_1,,,,,,,,,,,,,gray,diamond
0.0,8.0,0.0,1.0,4.0,4.0,372.4306849999266,1.0,1.0,phase_1,,,,,,,,,,,,,cyan,cross
101.0,6.0,1.0,1.0,1.0,1.0,462.0702369998071,1.0,1.0,phase_1,,,,,,,,,,,,,gray,diamond
27.0,1.0,0.5,0.0,3.0,3.0,293.4470189998137,1.0,1.0,phase_1,,,,,,,,,,,,,white,triangle
116.0,2.0,1.0,0.0,4.0,4.0,318.430134999744,1.0,1.0,phase_1,,,,,,,,,,,,,blue,flipped triangle
387.0,4.0,4.0,0.0,3.0,3.0,376.1780669997279,1.0,1.0,phase_1,,,,,,,,,,,,,orange,hexagon
46.0,1.0,0.5,0.0,2.0,2.0,362.3343720000775,1.0,1.0,phase_1,,,,,,,,,,,,,white,triangle
72.0,5.0,0.5,1.0,4.0,4.0,340.3090050001083,1.0,1.0,phase_1,,,,,,,,,,,,,green,I
202.0,3.0,2.0,0.0,2.0,2.0,400.202339000316,1.0,1.0,phase_1,,,,,,,,,,,,,magenta,circle
416.0,8.0,4.0,1.0,3.0,3.0,368.9887059999819,1.0,1.0,phase_1,,,,,,,,,,,,,cyan,cross
72.0,1.0,0.5,0.0,1.0,1.0,378.4819849997802,1.0,1.0,phase_1,,,,,,,,,,,,,white,triangle
108.0,2.0,1.0,0.0,1.0,1.0,458.9151430000129,1.0,1.0,phase_1,,,,,,,,,,,,,blue,flipped triangle
0.0,1.0,0.0,0.0,1.0,1.0,509.23669599978894,1.0,1.0,phase_1,,,,,,,,,,,,,white,triangle
0.0,3.0,0.0,0.0,1.0,1.0,439.2262300002585,1.0,1.0,phase_1,,,,,,,,,,,,,magenta,circle
0.0,2.0,0.0,0.0,1.0,1.0,501.89853600022616,1.0,1.0,phase_1,,,,,,,,,,,,,blue,flipped triangle
110.0,2.0,1.0,0.0,1.0,1.0,431.4538990001892,1.0,1.0,phase_1,,,,,,,,,,,,,blue,flipped triangle
224.0,3.0,2.0,0.0,3.0,3.0,436.1422790002507,1.0,1.0,phase_1,,,,,,,,,,,,,magenta,circle
0.0,8.0,0.0,1.0,1.0,1.0,402.6368989998445,1.0,1.0,phase_1,,,,,,,,,,,,,cyan,cross
28.0,5.0,0.5,1.0,4.0,4.0,552.9635100001542,1.0,2.0,phase_1,,,,,,,,,,,,,green,I
190.0,3.0,2.0,0.0,1.0,1.0,579.1356960003213,1.0,1.0,phase_1,,,,,,,,,,,,,magenta,circle
208.0,3.0,2.0,0.0,3.0,3.0,508.7335009998242,1.0,1.0,phase_1,,,,,,,,,,,,,magenta,circle
0.0,3.0,0.0,0.0,3.0,3.0,532.8214209998805,1.0,1.0,phase_1,,,,,,,,,,,,,magenta,circle
40.0,5.0,0.5,1.0,2.0,2.0,578.3252579999498,1.0,1.0,phase_1,,,,,,,,,,,,,green,I
69.0,1.0,0.5,0.0,4.0,4.0,480.9417589999611,1.0,1.0,phase_1,,,,,,,,,,,,,white,triangle
421.0,8.0,4.0,1.0,3.0,3.0,737.1183750001364,1.0,1.0,phase_1,,,,,,,,,,,,,cyan,cross
103.0,6.0,1.0,1.0,3.0,3.0,506.5902670003197,1.0,1.0,phase_1,,,,,,,,,,,,,gray,diamond
87.0,2.0,1.0,0.0,2.0,2.0,711.857167999824,1.0,1.0,phase_1,,,,,,,,,,,,,blue,flipped triangle
377.0,4.0,4.0,0.0,3.0,3.0,371.4309609999873,1.0,1.0,phase_1,,,,,,,,,,,,,orange,hexagon
0.0,5.0,0.0,1.0,1.0,1.0,646.028355999988,1.0,1.0,phase_1,,,,,,,,,,,,,green,I
72.0,5.0,0.5,1.0,3.0,3.0,808.5632339998483,1.0,1.0,phase_1,,,,,,,,,,,,,green,I
0.0,4.0,0.0,0.0,3.0,3.0,667.0744860002742,1.0,1.0,phase_1,,,,,,,,,,,,,orange,hexagon
119.0,6.0,1.0,1.0,3.0,3.0,539.9852049999936,1.0,1.0,phase_1,,,,,,,,,,,,,gray,diamond
387.0,8.0,4.0,1.0,3.0,3.0,521.1755949999315,1.0,1.0,phase_1,,,,,,,,,,,,,cyan,cross
422.0,4.0,4.0,0.0,1.0,1.0,774.6841859998312,1.0,1.0,phase_1,,,,,,,,,,,,,orange,hexagon
0.0,3.0,0.0,0.0,2.0,2.0,575.438548999955,1.0,1.0,phase_1,,,,,,,,,,,,,magenta,circle
416.0,4.0,4.0,0.0,3.0,3.0,444.7264420000465,1.0,1.0,phase_1,,,,,,,,,,,,,orange,hexagon
202.0,7.0,2.0,1.0,2.0,2.0,566.0763089999818,1.0,1.0,phase_1,,,,,,,,,,,,,yellow,square
94.0,2.0,1.0,0.0,2.0,2.0,457.8377809998528,1.0,1.0,phase_1,,,,,,,,,,,,,blue,flipped triangle
87.0,6.0,1.0,1.0,3.0,3.0,374.6007519998784,1.0,1.0,phase_1,,,,,,,,,,,,,gray,diamond
58.0,1.0,0.5,0.0,2.0,2.0,444.2497270001695,1.0,1.0,phase_1,,,,,,,,,,,,,white,triangle
89.0,2.0,1.0,0.0,2.0,2.0,634.4373669999186,1.0,1.0,phase_1,,,,,,,,,,,,,blue,flipped triangle
182.0,7.0,2.0,1.0,1.0,1.0,576.5124079998714,1.0,1.0,phase_1,,,,,,,,,,,,,yellow,square
208.0,3.0,2.0,0.0,1.0,1.0,586.6863030000786,1.0,1.0,phase_1,,,,,,,,,,,,,magenta,circle
88.0,6.0,1.0,1.0,4.0,4.0,653.8979580000159,1.0,1.0,phase_1,,,,,,,,,,,,,gray,diamond
53.0,5.0,0.5,1.0,3.0,3.0,480.5190309998579,1.0,1.0,phase_1,,,,,,,,,,,,,green,I
0.0,5.0,0.0,1.0,4.0,4.0,559.0579150002668,1.0,1.0,phase_1,,,,,,,,,,,,,green,I
101.0,2.0,1.0,0.0,2.0,2.0,441.4563619998262,1.0,1.0,phase_1,,,,,,,,,,,,,blue,flipped triangle
0.0,7.0,0.0,1.0,2.0,2.0,480.0206140002956,1.0,1.0,phase_1,,,,,,,,,,,,,yellow,square
0.0,8.0,0.0,1.0,4.0,4.0,667.0538070002294,1.0,1.0,phase_1,,,,,,,,,,,,,cyan,cross
404.0,4.0,4.0,0.0,3.0,3.0,375.38142599987617,1.0,1.0,phase_1,,,,,,,,,,,,,orange,hexagon
377.0,8.0,4.0,1.0,2.0,2.0,694.543221999993,1.0,1.0,phase_1,,,,,,,,,,,,,cyan,cross
377.0,8.0,4.0,1.0,3.0,3.0,355.6360160000622,1.0,1.0,phase_1,,,,,,,,,,,,,cyan,cross
392.0,8.0,4.0,1.0,1.0,1.0,443.4540439997363,1.0,1.0,phase_1,,,,,,,,,,,,,cyan,cross
0.0,4.0,0.0,0.0,3.0,3.0,374.0805250004086,1.0,1.0,phase_1,,,,,,,,,,,,,orange,hexagon
102.0,2.0,1.0,0.0,3.0,3.0,363.507409000249,1.0,1.0,phase_1,,,,,,,,,,,,,blue,flipped triangle
0.0,2.0,0.0,0.0,4.0,4.0,480.2423300002374,1.0,1.0,phase_1,,,,,,,,,,,,,blue,flipped triangle
0.0,8.0,0.0,1.0,3.0,3.0,400.6936830000995,1.0,1.0,phase_1,,,,,,,,,,,,,cyan,cross
27.0,5.0,0.5,1.0,1.0,1.0,364.1875670000445,1.0,1.0,phase_1,,,,,,,,,,,,,green,I
0.0,7.0,0.0,1.0,2.0,2.0,380.9886930002903,1.0,1.0,phase_1,,,,,,,,,,,,,yellow,square
0.0,8.0,0.0,1.0,1.0,1.0,594.0129040000102,1.0,1.0,phase_1,,,,,,,,,,,,,cyan,cross
45.0,1.0,0.5,0.0,3.0,3.0,313.1314920001387,1.0,1.0,phase_1,,,,,,,,,,,,,white,triangle
184.0,7.0,2.0,1.0,1.0,1.0,367.9371690000153,1.0,1.0,phase_1,,,,,,,,,,,,,yellow,square
72.0,5.0,0.5,1.0,4.0,4.0,408.961999999974,1.0,1.0,phase_1,,,,,,,,,,,,,green,I
96.0,6.0,1.0,1.0,2.0,2.0,373.2637130001421,1.0,1.0,phase_1,,,,,,,,,,,,,gray,diamond
195.0,3.0,2.0,0.0,1.0,1.0,444.5517710000786,1.0,1.0,phase_1,,,,,,,,,,,,,magenta,circle
404.0,4.0,4.0,0.0,1.0,1.0,494.6702130000631,1.0,1.0,phase_1,,,,,,,,,,,,,orange,hexagon
393.0,8.0,4.0,1.0,4.0,4.0,444.8789610000858,1.0,1.0,phase_1,,,,,,,,,,,,,cyan,cross
71.0,5.0,0.5,1.0,1.0,1.0,559.6323179997853,1.0,1.0,phase_1,,,,,,,,,,,,,green,I
415.0,4.0,4.0,0.0,4.0,4.0,391.4426749997801,1.0,1.0,phase_1,,,,,,,,,,,,,orange,hexagon
0.0,7.0,0.0,1.0,1.0,1.0,527.446535999843,1.0,1.0,phase_1,,,,,,,,,,,,,yellow,square
422.0,4.0,4.0,0.0,2.0,2.0,456.5501059996677,1.0,1.0,phase_1,,,,,,,,,,,,,orange,hexagon
53.0,1.0,0.5,0.0,3.0,3.0,415.6876369997917,1.0,1.0,phase_1,,,,,,,,,,,,,white,triangle
117.0,2.0,1.0,0.0,3.0,3.0,377.6518619997659,1.0,1.0,phase_1,,,,,,,,,,,,,blue,flipped triangle
199.0,7.0,2.0,1.0,1.0,1.0,505.9288209999977,1.0,1.0,phase_1,,,,,,,,,,,,,yellow,square
185.0,3.0,2.0,0.0,1.0,1.0,547.5746160000199,1.0,2.0,phase_1,,,,,,,,,,,,,magenta,circle
50.0,1.0,0.5,0.0,2.0,2.0,565.3119860003244,1.0,1.0,phase_1,,,,,,,,,,,,,white,triangle
205.0,7.0,2.0,1.0,4.0,4.0,692.9821659996378,1.0,1.0,phase_1,,,,,,,,,,,,,yellow,square
0.0,7.0,0.0,1.0,1.0,1.0,689.9370370001634,1.0,1.0,phase_1,,,,,,,,,,,,,yellow,square
178.0,7.0,2.0,1.0,4.0,4.0,624.9260380000123,1.0,1.0,phase_1,,,,,,,,,,,,,yellow,square
195.0,7.0,2.0,1.0,3.0,3.0,595.5460159998438,1.0,1.0,phase_1,,,,,,,,,,,,,yellow,square
35.0,5.0,0.5,1.0,4.0,4.0,683.2133699999758,1.0,1.0,phase_1,,,,,,,,,,,,,green,I
109.0,2.0,1.0,0.0,1.0,1.0,553.1224569999722,1.0,2.0,phase_1,,,,,,,,,,,,,blue,flipped triangle
394.0,8.0,4.0,1.0,4.0,4.0,421.66070400026,2.0,1.0,phase_1,,,,,,,,,,,,,cyan,cross
403.0,8.0,4.0,1.0,1.0,1.0,335.5543770003351,2.0,1.0,phase_1,,,,,,,,,,,,,cyan,cross
56.0,1.0,0.5,0.0,4.0,4.0,485.9661949999463,2.0,1.0,phase_1,,,,,,,,,,,,,white,triangle
47.0,1.0,0.5,0.0,1.0,1.0,500.8135990001392,2.0,1.0,phase_1,,,,,,,,,,,,,white,triangle
55.0,1.0,0.5,0.0,2.0,2.0,416.3968230000137,2.0,1.0,phase_1,,,,,,,,,,,,,white,triangle
210.0,7.0,2.0,1.0,2.0,2.0,401.037556999654,2.0,1.0,phase_1,,,,,,,,,,,,,yellow,square
0.0,7.0,0.0,1.0,1.0,1.0,493.8567690001036,2.0,1.0,phase_1,,,,,,,,,,,,,yellow,square
63.0,5.0,0.5,1.0,3.0,3.0,466.8762440001046,2.0,1.0,phase_1,,,,,,,,,,,,,green,I
0.0,6.0,0.0,1.0,2.0,2.0,420.0051540001368,2.0,1.0,phase_1,,,,,,,,,,,,,gray,diamond
194.0,3.0,2.0,0.0,3.0,3.0,395.3527779999604,2.0,1.0,phase_1,,,,,,,,,,,,,magenta,circle
0.0,5.0,0.0,1.0,1.0,1.0,354.8395239999991,2.0,1.0,phase_1,,,,,,,,,,,,,green,I
0.0,2.0,0.0,0.0,2.0,2.0,390.760660000069,2.0,1.0,phase_1,,,,,,,,,,,,,blue,flipped triangle
45.0,5.0,0.5,1.0,2.0,2.0,460.0698300000658,2.0,1.0,phase_1,,,,,,,,,,,,,green,I
45.0,5.0,0.5,1.0,3.0,3.0,592.1951970003647,2.0,1.0,phase_1,,,,,,,,,,,,,green,I
115.0,2.0,1.0,0.0,3.0,3.0,449.0739139996549,2.0,1.0,phase_1,,,,,,,,,,,,,blue,flipped triangle
77.0,2.0,1.0,0.0,2.0,2.0,685.4211269996995,2.0,1.0,phase_1,,,,,,,,,,,,,blue,flipped triangle
0.0,1.0,0.0,0.0,4.0,4.0,526.8417480001517,2.0,1.0,phase_1,,,,,,,,,,,,,white,triangle
0.0,2.0,0.0,0.0,2.0,2.0,473.9692049997757,2.0,1.0,phase_1,,,,,,,,,,,,,blue,flipped triangle
0.0,6.0,0.0,1.0,1.0,1.0,512.0382930003871,2.0,1.0,phase_1,,,,,,,,,,,,,gray,diamond
218.0,3.0,2.0,0.0,3.0,3.0,353.5894560000088,2.0,1.0,phase_1,,,,,,,,,,,,,magenta,circle
210.0,7.0,2.0,1.0,4.0,4.0,455.9561730002315,2.0,1.0,phase_1,,,,,,,,,,,,,yellow,square
32.0,1.0,0.5,0.0,4.0,4.0,437.8361819999554,2.0,1.0,phase_1,,,,,,,,,,,,,white,triangle
376.0,8.0,4.0,1.0,4.0,4.0,516.0020700000132,2.0,1.0,phase_1,,,,,,,,,,,,,cyan,cross
103.0,2.0,1.0,0.0,4.0,4.0,508.93945999996504,2.0,1.0,phase_1,,,,,,,,,,,,,blue,flipped triangle
377.0,4.0,4.0,0.0,2.0,2.0,434.497552999801,2.0,1.0,phase_1,,,,,,,,,,,,,orange,hexagon
0.0,3.0,0.0,0.0,2.0,2.0,602.6385040004243,2.0,1.0,phase_1,,,,,,,,,,,,,magenta,circle
201.0,7.0,2.0,1.0,1.0,1.0,536.8090199999642,2.0,1.0,phase_1,,,,,,,,,,,,,yellow,square
210.0,3.0,2.0,0.0,4.0,4.0,488.918661000298,2.0,1.0,phase_1,,,,,,,,,,,,,magenta,circle
64.0,5.0,0.5,1.0,1.0,1.0,423.4329979999529,2.0,1.0,phase_1,,,,,,,,,,,,,green,I
399.0,8.0,4.0,1.0,1.0,1.0,498.4635579999121,2.0,1.0,phase_1,,,,,,,,,,,,,cyan,cross
29.0,5.0,0.5,1.0,1.0,1.0,461.9536109998989,2.0,1.0,phase_1,,,,,,,,,,,,,green,I
391.0,8.0,4.0,1.0,4.0,4.0,434.6356610003568,2.0,1.0,phase_1,,,,,,,,,,,,,cyan,cross
415.0,8.0,4.0,1.0,3.0,3.0,437.0639240000855,2.0,1.0,phase_1,,,,,,,,,,,,,cyan,cross
97.0,2.0,1.0,0.0,2.0,2.0,454.079098999955,2.0,1.0,phase_1,,,,,,,,,,,,,blue,flipped triangle
117.0,2.0,1.0,0.0,2.0,2.0,417.7538409999215,2.0,1.0,phase_1,,,,,,,,,,,,,blue,flipped triangle
194.0,7.0,2.0,1.0,2.0,2.0,407.241403000171,2.0,1.0,phase_1,,,,,,,,,,,,,yellow,square
403.0,8.0,4.0,1.0,3.0,3.0,411.8357100001049,2.0,1.0,phase_1,,,,,,,,,,,,,cyan,cross
122.0,6.0,1.0,1.0,2.0,2.0,415.2800379997643,2.0,1.0,phase_1,,,,,,,,,,,,,gray,diamond
208.0,7.0,2.0,1.0,4.0,4.0,403.6945289999494,2.0,1.0,phase_1,,,,,,,,,,,,,yellow,square
0.0,4.0,0.0,0.0,4.0,4.0,577.6339760000155,2.0,2.0,phase_1,,,,,,,,,,,,,orange,hexagon
53.0,5.0,0.5,1.0,1.0,1.0,558.063508000032,2.0,1.0,phase_1,,,,,,,,,,,,,green,I
185.0,7.0,2.0,1.0,1.0,1.0,826.8960830000651,2.0,1.0,phase_1,,,,,,,,,,,,,yellow,square
399.0,4.0,4.0,0.0,3.0,3.0,476.6487030001372,2.0,1.0,phase_1,,,,,,,,,,,,,orange,hexagon
72.0,1.0,0.5,0.0,4.0,4.0,478.1398750001244,2.0,1.0,phase_1,,,,,,,,,,,,,white,triangle
376.0,4.0,4.0,0.0,2.0,2.0,417.5607730003321,2.0,1.0,phase_1,,,,,,,,,,,,,orange,hexagon
94.0,2.0,1.0,0.0,2.0,2.0,350.4746399999021,2.0,1.0,phase_1,,,,,,,,,,,,,blue,flipped triangle
224.0,3.0,2.0,0.0,4.0,4.0,468.154198999855,2.0,1.0,phase_1,,,,,,,,,,,,,magenta,circle
0.0,5.0,0.0,1.0,1.0,1.0,522.7424039999278,2.0,1.0,phase_1,,,,,,,,,,,,,green,I
0.0,3.0,0.0,0.0,3.0,3.0,457.6137139997627,2.0,1.0,phase_1,,,,,,,,,,,,,magenta,circle
376.0,8.0,4.0,1.0,1.0,1.0,427.6254009996592,2.0,1.0,phase_1,,,,,,,,,,,,,cyan,cross
59.0,5.0,0.5,1.0,4.0,4.0,386.4880900000571,2.0,1.0,phase_1,,,,,,,,,,,,,green,I
115.0,2.0,1.0,0.0,1.0,1.0,507.095486000253,2.0,1.0,phase_1,,,,,,,,,,,,,blue,flipped triangle
90.0,6.0,1.0,1.0,1.0,1.0,533.8998520001041,2.0,1.0,phase_1,,,,,,,,,,,,,gray,diamond
0.0,4.0,0.0,0.0,2.0,2.0,439.9969820001388,2.0,1.0,phase_1,,,,,,,,,,,,,orange,hexagon
98.0,2.0,1.0,0.0,4.0,4.0,528.23805800017,2.0,1.0,phase_1,,,,,,,,,,,,,blue,flipped triangle
74.0,5.0,0.5,1.0,4.0,4.0,506.59162300007665,2.0,1.0,phase_1,,,,,,,,,,,,,green,I
44.0,5.0,0.5,1.0,2.0,2.0,417.5718269998469,2.0,1.0,phase_1,,,,,,,,,,,,,green,I
0.0,2.0,0.0,0.0,1.0,1.0,492.227592999825,2.0,1.0,phase_1,,,,,,,,,,,,,blue,flipped triangle
376.0,4.0,4.0,0.0,2.0,2.0,387.2075459998996,2.0,1.0,phase_1,,,,,,,,,,,,,orange,hexagon
399.0,8.0,4.0,1.0,3.0,3.0,410.1091599995925,2.0,1.0,phase_1,,,,,,,,,,,,,cyan,cross
109.0,6.0,1.0,1.0,2.0,2.0,585.9838129999844,2.0,1.0,phase_1,,,,,,,,,,,,,gray,diamond
208.0,3.0,2.0,0.0,1.0,1.0,450.0408139997489,2.0,1.0,phase_1,,,,,,,,,,,,,magenta,circle
392.0,4.0,4.0,0.0,2.0,2.0,505.6151809999392,2.0,1.0,phase_1,,,,,,,,,,,,,orange,hexagon
386.0,4.0,4.0,0.0,2.0,2.0,562.2624889997496,2.0,1.0,phase_1,,,,,,,,,,,,,orange,hexagon
0.0,1.0,0.0,0.0,3.0,3.0,451.8913689998953,2.0,1.0,phase_1,,,,,,,,,,,,,white,triangle
182.0,7.0,2.0,1.0,1.0,1.0,571.8862759999865,2.0,1.0,phase_1,,,,,,,,,,,,,yellow,square
379.0,4.0,4.0,0.0,3.0,3.0,756.7253310003252,2.0,1.0,phase_1,,,,,,,,,,,,,orange,hexagon
0.0,3.0,0.0,0.0,2.0,2.0,429.2912380001326,2.0,1.0,phase_1,,,,,,,,,,,,,magenta,circle
90.0,2.0,1.0,0.0,4.0,4.0,547.1532169999591,2.0,1.0,phase_1,,,,,,,,,,,,,blue,flipped triangle
45.0,1.0,0.5,0.0,3.0,3.0,575.1547320001009,2.0,1.0,phase_1,,,,,,,,,,,,,white,triangle
61.0,1.0,0.5,0.0,1.0,1.0,575.1559590003126,2.0,1.0,phase_1,,,,,,,,,,,,,white,triangle
421.0,8.0,4.0,1.0,2.0,2.0,398.1657170002108,2.0,1.0,phase_1,,,,,,,,,,,,,cyan,cross
101.0,2.0,1.0,0.0,2.0,2.0,473.8442540001415,2.0,1.0,phase_1,,,,,,,,,,,,,blue,flipped triangle
188.0,7.0,2.0,1.0,1.0,1.0,472.2495700002582,2.0,1.0,phase_1,,,,,,,,,,,,,yellow,square
212.0,3.0,2.0,0.0,2.0,2.0,512.7367770001001,2.0,1.0,phase_1,,,,,,,,,,,,,magenta,circle
199.0,3.0,2.0,0.0,4.0,4.0,534.7712420002608,2.0,1.0,phase_1,,,,,,,,,,,,,magenta,circle
392.0,4.0,4.0,0.0,3.0,3.0,460.4936440000529,2.0,1.0,phase_1,,,,,,,,,,,,,orange,hexagon
0.0,4.0,0.0,0.0,4.0,4.0,515.1475339998797,2.0,1.0,phase_1,,,,,,,,,,,,,orange,hexagon
194.0,3.0,2.0,0.0,1.0,1.0,557.5058409999656,2.0,1.0,phase_1,,,,,,,,,,,,,magenta,circle
82.0,6.0,1.0,1.0,4.0,4.0,539.048449999882,2.0,1.0,phase_1,,,,,,,,,,,,,gray,diamond
190.0,3.0,2.0,0.0,4.0,4.0,567.4394310003663,2.0,1.0,phase_1,,,,,,,,,,,,,magenta,circle
389.0,8.0,4.0,1.0,1.0,1.0,595.8106399998542,2.0,1.0,phase_1,,,,,,,,,,,,,cyan,cross
61.0,5.0,0.5,1.0,4.0,4.0,433.0953720000252,2.0,1.0,phase_1,,,,,,,,,,,,,green,I
117.0,6.0,1.0,1.0,2.0,2.0,473.6524650002138,2.0,1.0,phase_1,,,,,,,,,,,,,gray,diamond
0.0,7.0,0.0,1.0,4.0,4.0,560.2187059998869,2.0,1.0,phase_1,,,,,,,,,,,,,yellow,square
81.0,6.0,1.0,1.0,3.0,3.0,577.6996310000868,2.0,1.0,phase_1,,,,,,,,,,,,,gray,diamond
0.0,5.0,0.0,1.0,3.0,3.0,503.5716009997486,2.0,1.0,phase_1,,,,,,,,,,,,,green,I
108.0,6.0,1.0,1.0,2.0,2.0,501.40551899994534,2.0,1.0,phase_1,,,,,,,,,,,,,gray,diamond
114.0,2.0,1.0,0.0,4.0,4.0,510.6852950002576,2.0,1.0,phase_1,,,,,,,,,,,,,blue,flipped triangle
210.0,3.0,2.0,0.0,2.0,2.0,564.1364600000998,2.0,1.0,phase_1,,,,,,,,,,,,,magenta,circle
27.0,1.0,0.5,0.0,1.0,1.0,555.5645190001997,2.0,1.0,phase_1,,,,,,,,,,,,,white,triangle
98.0,6.0,1.0,1.0,1.0,1.0,487.2428280000349,2.0,1.0,phase_1,,,,,,,,,,,,,gray,diamond
99.0,6.0,1.0,1.0,1.0,1.0,428.48686599973,2.0,1.0,phase_1,,,,,,,,,,,,,gray,diamond
0.0,7.0,0.0,1.0,4.0,4.0,511.1397380001108,2.0,1.0,phase_1,,,,,,,,,,,,,yellow,square
124.0,2.0,1.0,0.0,4.0,4.0,519.2171079997934,2.0,1.0,phase_1,,,,,,,,,,,,,blue,flipped triangle
53.0,1.0,0.5,0.0,4.0,4.0,583.2846570001493,2.0,1.0,phase_1,,,,,,,,,,,,,white,triangle
123.0,2.0,1.0,0.0,3.0,3.0,584.6416760000466,2.0,1.0,phase_1,,,,,,,,,,,,,blue,flipped triangle
380.0,4.0,4.0,0.0,4.0,4.0,513.8788580002256,2.0,1.0,phase_1,,,,,,,,,,,,,orange,hexagon
58.0,5.0,0.5,1.0,3.0,3.0,438.4576219999871,2.0,1.0,phase_1,,,,,,,,,,,,,green,I
410.0,8.0,4.0,1.0,2.0,2.0,426.9497010000123,2.0,1.0,phase_1,,,,,,,,,,,,,cyan,cross
409.0,4.0,4.0,0.0,1.0,1.0,448.5904670000309,3.0,1.0,phase_1,,,,,,,,,,,,,orange,hexagon
26.0,1.0,0.5,0.0,1.0,1.0,414.6450379998896,3.0,1.0,phase_1,,,,,,,,,,,,,white,triangle
74.0,1.0,0.5,0.0,2.0,2.0,454.3035890001192,3.0,1.0,phase_1,,,,,,,,,,,,,white,triangle
422.0,8.0,4.0,1.0,4.0,4.0,445.9378799997466,3.0,1.0,phase_1,,,,,,,,,,,,,cyan,cross
79.0,6.0,1.0,1.0,2.0,2.0,500.69952400008333,3.0,1.0,phase_1,,,,,,,,,,,,,gray,diamond
74.0,1.0,0.5,0.0,4.0,4.0,406.6014480004014,3.0,1.0,phase_1,,,,,,,,,,,,,white,triangle
409.0,8.0,4.0,1.0,2.0,2.0,513.6162220001097,3.0,1.0,phase_1,,,,,,,,,,,,,cyan,cross
44.0,1.0,0.5,0.0,1.0,1.0,502.384790999713,3.0,1.0,phase_1,,,,,,,,,,,,,white,triangle
102.0,6.0,1.0,1.0,2.0,2.0,481.701805999819,3.0,1.0,phase_1,,,,,,,,,,,,,gray,diamond
0.0,8.0,0.0,1.0,4.0,4.0,448.5038249999888,3.0,1.0,phase_1,,,,,,,,,,,,,cyan,cross
110.0,6.0,1.0,1.0,2.0,2.0,401.1265660001299,3.0,1.0,phase_1,,,,,,,,,,,,,gray,diamond
198.0,7.0,2.0,1.0,3.0,3.0,578.003876999901,3.0,1.0,phase_1,,,,,,,,,,,,,yellow,square
47.0,5.0,0.5,1.0,4.0,4.0,514.1341610001291,3.0,1.0,phase_1,,,,,,,,,,,,,green,I
224.0,7.0,2.0,1.0,3.0,3.0,342.2880869998153,3.0,1.0,phase_1,,,,,,,,,,,,,yellow,square
76.0,6.0,1.0,1.0,1.0,1.0,378.7574619996121,3.0,1.0,phase_1,,,,,,,,,,,,,gray,diamond
123.0,6.0,1.0,1.0,3.0,3.0,373.3656930003235,3.0,1.0,phase_1,,,,,,,,,,,,,gray,diamond
101.0,6.0,1.0,1.0,3.0,3.0,579.4819340003414,3.0,1.0,phase_1,,,,,,,,,,,,,gray,diamond
0.0,8.0,0.0,1.0,4.0,4.0,464.9764079999841,3.0,1.0,phase_1,,,,,,,,,,,,,cyan,cross
376.0,4.0,4.0,0.0,2.0,2.0,488.3793550002338,3.0,1.0,phase_1,,,,,,,,,,,,,orange,hexagon
399.0,4.0,4.0,0.0,1.0,1.0,511.7422850003095,3.0,1.0,phase_1,,,,,,,,,,,,,orange,hexagon
219.0,3.0,2.0,0.0,2.0,2.0,474.6494709997932,3.0,1.0,phase_1,,,,,,,,,,,,,magenta,circle
208.0,7.0,2.0,1.0,4.0,4.0,512.0285950001744,3.0,1.0,phase_1,,,,,,,,,,,,,yellow,square
59.0,1.0,0.5,0.0,1.0,1.0,457.3064189999059,3.0,1.0,phase_1,,,,,,,,,,,,,white,triangle
0.0,1.0,0.0,0.0,4.0,4.0,444.6943640000427,3.0,1.0,phase_1,,,,,,,,,,,,,white,triangle
416.0,8.0,4.0,1.0,2.0,2.0,529.0614660002575,3.0,1.0,phase_1,,,,,,,,,,,,,cyan,cross
224.0,7.0,2.0,1.0,1.0,1.0,465.658324999822,3.0,1.0,phase_1,,,,,,,,,,,,,yellow,square
183.0,3.0,2.0,0.0,1.0,1.0,489.6893690001889,3.0,1.0,phase_1,,,,,,,,,,,,,magenta,circle
416.0,4.0,4.0,0.0,1.0,1.0,409.0065430000322,3.0,1.0,phase_1,,,,,,,,,,,,,orange,hexagon
108.0,2.0,1.0,0.0,4.0,4.0,398.1769570000324,3.0,1.0,phase_1,,,,,,,,,,,,,blue,flipped triangle
49.0,5.0,0.5,1.0,3.0,3.0,497.5968630001262,3.0,1.0,phase_1,,,,,,,,,,,,,green,I
210.0,7.0,2.0,1.0,4.0,4.0,516.0870589998012,3.0,1.0,phase_1,,,,,,,,,,,,,yellow,square
379.0,8.0,4.0,1.0,4.0,4.0,462.163222000072,3.0,1.0,phase_1,,,,,,,,,,,,,cyan,cross
380.0,8.0,4.0,1.0,4.0,4.0,434.1219729999466,3.0,1.0,phase_1,,,,,,,,,,,,,cyan,cross
42.0,1.0,0.5,0.0,4.0,4.0,463.8873469998543,3.0,1.0,phase_1,,,,,,,,,,,,,white,triangle
404.0,8.0,4.0,1.0,4.0,4.0,417.9571399999986,3.0,1.0,phase_1,,,,,,,,,,,,,cyan,cross
0.0,5.0,0.0,1.0,4.0,4.0,465.2505829999427,3.0,1.0,phase_1,,,,,,,,,,,,,green,I
69.0,5.0,0.5,1.0,2.0,2.0,394.0287519999401,3.0,1.0,phase_1,,,,,,,,,,,,,green,I
0.0,4.0,0.0,0.0,2.0,2.0,512.1389129999443,3.0,1.0,phase_1,,,,,,,,,,,,,orange,hexagon
124.0,6.0,1.0,1.0,1.0,1.0,569.6471910000582,3.0,1.0,phase_1,,,,,,,,,,,,,gray,diamond
0.0,3.0,0.0,0.0,2.0,2.0,463.2682030000978,3.0,1.0,phase_1,,,,,,,,,,,,,magenta,circle
0.0,1.0,0.0,0.0,1.0,1.0,458.4421320000729,3.0,1.0,phase_1,,,,,,,,,,,,,white,triangle
212.0,7.0,2.0,1.0,1.0,1.0,399.2916269999114,3.0,1.0,phase_1,,,,,,,,,,,,,yellow,square
105.0,2.0,1.0,0.0,3.0,3.0,459.5094410001366,3.0,1.0,phase_1,,,,,,,,,,,,,blue,flipped triangle
416.0,4.0,4.0,0.0,2.0,2.0,521.0241320000932,3.0,1.0,phase_1,,,,,,,,,,,,,orange,hexagon
392.0,8.0,4.0,1.0,1.0,1.0,333.8073690001693,3.0,1.0,phase_1,,,,,,,,,,,,,cyan,cross
185.0,7.0,2.0,1.0,3.0,3.0,376.9070180001108,3.0,1.0,phase_1,,,,,,,,,,,,,yellow,square
382.0,4.0,4.0,0.0,3.0,3.0,431.3412789997528,3.0,1.0,phase_1,,,,,,,,,,,,,orange,hexagon
50.0,5.0,0.5,1.0,2.0,2.0,498.3474850000675,3.0,1.0,phase_1,,,,,,,,,,,,,green,I
0.0,6.0,0.0,1.0,1.0,1.0,437.8430140000091,3.0,1.0,phase_1,,,,,,,,,,,,,gray,diamond
31.0,5.0,0.5,1.0,3.0,3.0,372.3684050000884,3.0,1.0,phase_1,,,,,,,,,,,,,green,I
36.0,5.0,0.5,1.0,3.0,3.0,410.7495329999437,3.0,1.0,phase_1,,,,,,,,,,,,,green,I
222.0,7.0,2.0,1.0,2.0,2.0,361.8580989996189,3.0,1.0,phase_1,,,,,,,,,,,,,yellow,square
94.0,6.0,1.0,1.0,4.0,4.0,394.8233649998656,3.0,1.0,phase_1,,,,,,,,,,,,,gray,diamond
119.0,2.0,1.0,0.0,2.0,2.0,430.9500459999071,3.0,1.0,phase_1,,,,,,,,,,,,,blue,flipped triangle
53.0,5.0,0.5,1.0,1.0,1.0,413.5383859998001,3.0,1.0,phase_1,,,,,,,,,,,,,green,I
182.0,3.0,2.0,0.0,3.0,3.0,387.0089349998125,3.0,1.0,phase_1,,,,,,,,,,,,,magenta,circle
0.0,5.0,0.0,1.0,4.0,4.0,434.7324559998924,3.0,1.0,phase_1,,,,,,,,,,,,,green,I
72.0,1.0,0.5,0.0,1.0,1.0,532.1060090000174,3.0,1.0,phase_1,,,,,,,,,,,,,white,triangle
29.0,1.0,0.5,0.0,4.0,4.0,468.3372569998028,3.0,1.0,phase_1,,,,,,,,,,,,,white,triangle
99.0,6.0,1.0,1.0,4.0,4.0,376.8774479999592,3.0,1.0,phase_1,,,,,,,,,,,,,gray,diamond
393.0,4.0,4.0,0.0,4.0,4.0,395.1356840002518,3.0,1.0,phase_1,,,,,,,,,,,,,orange,hexagon
0.0,3.0,0.0,0.0,2.0,2.0,366.1789709999539,3.0,1.0,phase_1,,,,,,,,,,,,,magenta,circle
0.0,4.0,0.0,0.0,2.0,2.0,428.5678060000464,3.0,1.0,phase_1,,,,,,,,,,,,,orange,hexagon
56.0,5.0,0.5,1.0,2.0,2.0,446.1902950001786,3.0,1.0,phase_1,,,,,,,,,,,,,green,I
399.0,4.0,4.0,0.0,1.0,1.0,408.8402010002028,3.0,1.0,phase_1,,,,,,,,,,,,,orange,hexagon
183.0,7.0,2.0,1.0,1.0,1.0,386.7629920000581,3.0,1.0,phase_1,,,,,,,,,,,,,yellow,square
189.0,3.0,2.0,0.0,2.0,2.0,483.969548999994,3.0,1.0,phase_1,,,,,,,,,,,,,magenta,circle
0.0,4.0,0.0,0.0,2.0,2.0,421.4854749998267,3.0,1.0,phase_1,,,,,,,,,,,,,orange,hexagon
0.0,2.0,0.0,0.0,3.0,3.0,383.2821360001617,3.0,1.0,phase_1,,,,,,,,,,,,,blue,flipped triangle
202.0,3.0,2.0,0.0,3.0,3.0,338.496060000125,3.0,1.0,phase_1,,,,,,,,,,,,,magenta,circle
116.0,6.0,1.0,1.0,1.0,1.0,381.9240889997672,3.0,1.0,phase_1,,,,,,,,,,,,,gray,diamond
0.0,6.0,0.0,1.0,3.0,3.0,536.0896470001535,3.0,2.0,phase_1,,,,,,,,,,,,,gray,diamond
224.0,7.0,2.0,1.0,3.0,3.0,497.40940699985,3.0,1.0,phase_1,,,,,,,,,,,,,yellow,square
380.0,8.0,4.0,1.0,2.0,2.0,350.5523559997527,3.0,1.0,phase_1,,,,,,,,,,,,,cyan,cross
26.0,5.0,0.5,1.0,4.0,4.0,418.6929709999276,3.0,1.0,phase_1,,,,,,,,,,,,,green,I
32.0,5.0,0.5,1.0,3.0,3.0,482.2578929997689,3.0,1.0,phase_1,,,,,,,,,,,,,green,I
82.0,2.0,1.0,0.0,3.0,3.0,542.7893880000738,3.0,1.0,phase_1,,,,,,,,,,,,,blue,flipped triangle
114.0,6.0,1.0,1.0,4.0,4.0,553.6098210000091,3.0,1.0,phase_1,,,,,,,,,,,,,gray,diamond
0.0,1.0,0.0,0.0,2.0,2.0,440.0851410000541,3.0,1.0,phase_1,,,,,,,,,,,,,white,triangle
0.0,4.0,0.0,0.0,3.0,3.0,518.3985019998545,3.0,1.0,phase_1,,,,,,,,,,,,,orange,hexagon
405.0,4.0,4.0,0.0,4.0,4.0,536.5299249997406,3.0,1.0,phase_1,,,,,,,,,,,,,orange,hexagon
415.0,4.0,4.0,0.0,2.0,2.0,507.6839660000587,3.0,1.0,phase_1,,,,,,,,,,,,,orange,hexagon
190.0,7.0,2.0,1.0,3.0,3.0,512.6999929998419,3.0,1.0,phase_1,,,,,,,,,,,,,yellow,square
178.0,7.0,2.0,1.0,3.0,3.0,602.2242580002057,3.0,1.0,phase_1,,,,,,,,,,,,,yellow,square
36.0,1.0,0.5,0.0,3.0,3.0,433.5892809999677,3.0,1.0,phase_1,,,,,,,,,,,,,white,triangle
35.0,1.0,0.5,0.0,2.0,2.0,450.3057130000343,3.0,1.0,phase_1,,,,,,,,,,,,,white,triangle
0.0,2.0,0.0,0.0,3.0,3.0,522.860036000111,3.0,1.0,phase_1,,,,,,,,,,,,,blue,flipped triangle
190.0,7.0,2.0,1.0,2.0,2.0,549.29725699958,3.0,1.0,phase_1,,,,,,,,,,,,,yellow,square
210.0,3.0,2.0,0.0,1.0,1.0,618.9719449998847,3.0,1.0,phase_1,,,,,,,,,,,,,magenta,circle
201.0,3.0,2.0,0.0,4.0,4.0,520.1688100000865,3.0,1.0,phase_1,,,,,,,,,,,,,magenta,circle
0.0,8.0,0.0,1.0,4.0,4.0,439.3243370000164,3.0,1.0,phase_1,,,,,,,,,,,,,cyan,cross
407.0,4.0,4.0,0.0,1.0,1.0,553.7151090002226,3.0,1.0,phase_1,,,,,,,,,,,,,orange,hexagon
64.0,1.0,0.5,0.0,1.0,1.0,468.2682799998474,3.0,1.0,phase_1,,,,,,,,,,,,,white,triangle
208.0,7.0,2.0,1.0,4.0,4.0,602.9741549996288,3.0,1.0,phase_1,,,,,,,,,,,,,yellow,square
415.0,8.0,4.0,1.0,1.0,1.0,519.3257730002188,3.0,1.0,phase_1,,,,,,,,,,,,,cyan,cross
422.0,8.0,4.0,1.0,2.0,2.0,424.7977539998828,3.0,1.0,phase_1,,,,,,,,,,,,,cyan,cross
188.0,3.0,2.0,0.0,3.0,3.0,421.4450249996844,3.0,1.0,phase_1,,,,,,,,,,,,,magenta,circle
79.0,2.0,1.0,0.0,4.0,4.0,470.9947409996857,3.0,1.0,phase_1,,,,,,,,,,,,,blue,flipped triangle
410.0,4.0,4.0,0.0,4.0,4.0,451.1678969997774,3.0,1.0,phase_1,,,,,,,,,,,,,orange,hexagon
187.0,3.0,2.0,0.0,4.0,4.0,481.9296260002375,3.0,1.0,phase_1,,,,,,,,,,,,,magenta,circle
405.0,8.0,4.0,1.0,4.0,4.0,451.3315250001142,4.0,1.0,phase_1,,,,,,,,,,,,,cyan,cross
28.0,1.0,0.5,0.0,4.0,4.0,451.3691570000446,4.0,1.0,phase_1,,,,,,,,,,,,,white,triangle
222.0,3.0,2.0,0.0,4.0,4.0,443.7958769999568,4.0,1.0,phase_1,,,,,,,,,,,,,magenta,circle
189.0,7.0,2.0,1.0,4.0,4.0,436.7189979998329,4.0,1.0,phase_1,,,,,,,,,,,,,yellow,square
105.0,6.0,1.0,1.0,3.0,3.0,478.1304440002714,4.0,1.0,phase_1,,,,,,,,,,,,,gray,diamond
403.0,4.0,4.0,0.0,3.0,3.0,524.4531019998249,4.0,1.0,phase_1,,,,,,,,,,,,,orange,hexagon
380.0,4.0,4.0,0.0,1.0,1.0,600.7828419997168,4.0,1.0,phase_1,,,,,,,,,,,,,orange,hexagon
207.0,7.0,2.0,1.0,3.0,3.0,555.266642999868,4.0,1.0,phase_1,,,,,,,,,,,,,yellow,square
78.0,2.0,1.0,0.0,4.0,4.0,414.5316129997809,4.0,1.0,phase_1,,,,,,,,,,,,,blue,flipped triangle
42.0,5.0,0.5,1.0,1.0,1.0,640.657248000025,4.0,1.0,phase_1,,,,,,,,,,,,,green,I
382.0,8.0,4.0,1.0,2.0,2.0,504.57786800006943,4.0,1.0,phase_1,,,,,,,,,,,,,cyan,cross
207.0,3.0,2.0,0.0,3.0,3.0,407.6645149998512,4.0,1.0,phase_1,,,,,,,,,,,,,magenta,circle
416.0,4.0,4.0,0.0,4.0,4.0,562.3759869999958,4.0,1.0,phase_1,,,,,,,,,,,,,orange,hexagon
180.0,7.0,2.0,1.0,2.0,2.0,449.6268409998265,4.0,1.0,phase_1,,,,,,,,,,,,,yellow,square
0.0,6.0,0.0,1.0,3.0,3.0,569.1809390000344,4.0,1.0,phase_1,,,,,,,,,,,,,gray,diamond
53.0,1.0,0.5,0.0,2.0,2.0,512.5107110002318,4.0,1.0,phase_1,,,,,,,,,,,,,white,triangle
0.0,5.0,0.0,1.0,3.0,3.0,633.4603190002781,4.0,1.0,phase_1,,,,,,,,,,,,,green,I
403.0,4.0,4.0,0.0,4.0,4.0,507.53806700004134,4.0,1.0,phase_1,,,,,,,,,,,,,orange,hexagon
0.0,2.0,0.0,0.0,2.0,2.0,467.5064450002537,4.0,1.0,phase_1,,,,,,,,,,,,,blue,flipped triangle
27.0,5.0,0.5,1.0,2.0,2.0,709.0938879996429,4.0,1.0,phase_1,,,,,,,,,,,,,green,I
0.0,7.0,0.0,1.0,1.0,1.0,502.19195700037744,4.0,1.0,phase_1,,,,,,,,,,,,,yellow,square
99.0,2.0,1.0,0.0,1.0,1.0,531.1248989996784,4.0,1.0,phase_1,,,,,,,,,,,,,blue,flipped triangle
69.0,5.0,0.5,1.0,1.0,1.0,483.8558090000333,4.0,1.0,phase_1,,,,,,,,,,,,,green,I
101.0,2.0,1.0,0.0,1.0,1.0,447.4823589998777,4.0,1.0,phase_1,,,,,,,,,,,,,blue,flipped triangle
71.0,1.0,0.5,0.0,2.0,2.0,482.473065999784,4.0,1.0,phase_1,,,,,,,,,,,,,white,triangle
224.0,3.0,2.0,0.0,1.0,1.0,384.1137439999329,4.0,1.0,phase_1,,,,,,,,,,,,,magenta,circle
394.0,4.0,4.0,0.0,3.0,3.0,398.2398660000399,4.0,1.0,phase_1,,,,,,,,,,,,,orange,hexagon
32.0,5.0,0.5,1.0,4.0,4.0,460.1765620000151,4.0,1.0,phase_1,,,,,,,,,,,,,green,I
46.0,5.0,0.5,1.0,1.0,1.0,431.9644669999434,4.0,1.0,phase_1,,,,,,,,,,,,,green,I
218.0,7.0,2.0,1.0,3.0,3.0,382.0722499999647,4.0,1.0,phase_1,,,,,,,,,,,,,yellow,square
0.0,1.0,0.0,0.0,2.0,2.0,438.90624200003,4.0,1.0,phase_1,,,,,,,,,,,,,white,triangle
391.0,4.0,4.0,0.0,1.0,1.0,521.1547650001194,4.0,1.0,phase_1,,,,,,,,,,,,,orange,hexagon
0.0,6.0,0.0,1.0,2.0,2.0,453.6979280001105,4.0,1.0,phase_1,,,,,,,,,,,,,gray,diamond
389.0,4.0,4.0,0.0,4.0,4.0,491.3762940000197,4.0,1.0,phase_1,,,,,,,,,,,,,orange,hexagon
64.0,5.0,0.5,1.0,2.0,2.0,448.6037039996517,4.0,1.0,phase_1,,,,,,,,,,,,,green,I
178.0,3.0,2.0,0.0,2.0,2.0,410.0375119996897,4.0,1.0,phase_1,,,,,,,,,,,,,magenta,circle
413.0,4.0,4.0,0.0,4.0,4.0,511.5567389998432,4.0,1.0,phase_1,,,,,,,,,,,,,orange,hexagon
184.0,3.0,2.0,0.0,2.0,2.0,414.0959920000568,4.0,1.0,phase_1,,,,,,,,,,,,,magenta,circle
78.0,2.0,1.0,0.0,3.0,3.0,333.7405329998546,4.0,1.0,phase_1,,,,,,,,,,,,,blue,flipped triangle
421.0,8.0,4.0,1.0,3.0,3.0,433.6068999996314,4.0,1.0,phase_1,,,,,,,,,,,,,cyan,cross
0.0,6.0,0.0,1.0,3.0,3.0,442.4593319999985,4.0,1.0,phase_1,,,,,,,,,,,,,gray,diamond
416.0,8.0,4.0,1.0,2.0,2.0,373.6198130000048,4.0,1.0,phase_1,,,,,,,,,,,,,cyan,cross
77.0,6.0,1.0,1.0,4.0,4.0,512.303983000038,4.0,1.0,phase_1,,,,,,,,,,,,,gray,diamond
49.0,1.0,0.5,0.0,2.0,2.0,441.4945439998519,4.0,1.0,phase_1,,,,,,,,,,,,,white,triangle
0.0,6.0,0.0,1.0,3.0,3.0,509.76080100008403,4.0,1.0,phase_1,,,,,,,,,,,,,gray,diamond
0.0,8.0,0.0,1.0,2.0,2.0,466.7070850000527,4.0,1.0,phase_1,,,,,,,,,,,,,cyan,cross
0.0,1.0,0.0,0.0,2.0,2.0,437.5850200003697,4.0,1.0,phase_1,,,,,,,,,,,,,white,triangle
63.0,1.0,0.5,0.0,1.0,1.0,496.372638000139,4.0,1.0,phase_1,,,,,,,,,,,,,white,triangle
213.0,3.0,2.0,0.0,2.0,2.0,481.8503689998579,4.0,1.0,phase_1,,,,,,,,,,,,,magenta,circle
404.0,8.0,4.0,1.0,4.0,4.0,524.3707599997833,4.0,1.0,phase_1,,,,,,,,,,,,,cyan,cross
190.0,3.0,2.0,0.0,4.0,4.0,607.5090309996085,4.0,1.0,phase_1,,,,,,,,,,,,,magenta,circle
76.0,2.0,1.0,0.0,3.0,3.0,395.2740109998558,4.0,1.0,phase_1,,,,,,,,,,,,,blue,flipped triangle
0.0,3.0,0.0,0.0,4.0,4.0,489.1467929996906,4.0,1.0,phase_1,,,,,,,,,,,,,magenta,circle
376.0,8.0,4.0,1.0,1.0,1.0,447.3106149998784,4.0,1.0,phase_1,,,,,,,,,,,,,cyan,cross
0.0,5.0,0.0,1.0,2.0,2.0,447.6022730000295,4.0,1.0,phase_1,,,,,,,,,,,,,green,I
41.0,1.0,0.5,0.0,2.0,2.0,429.2933960000482,4.0,1.0,phase_1,,,,,,,,,,,,,white,triangle
108.0,6.0,1.0,1.0,2.0,2.0,394.0620399998806,4.0,1.0,phase_1,,,,,,,,,,,,,gray,diamond
64.0,1.0,0.5,0.0,3.0,3.0,420.9982639999907,4.0,1.0,phase_1,,,,,,,,,,,,,white,triangle
220.0,3.0,2.0,0.0,3.0,3.0,466.1616080002204,4.0,1.0,phase_1,,,,,,,,,,,,,magenta,circle
98.0,2.0,1.0,0.0,3.0,3.0,494.4979179999791,4.0,1.0,phase_1,,,,,,,,,,,,,blue,flipped triangle
386.0,8.0,4.0,1.0,3.0,3.0,461.653583000043,4.0,1.0,phase_1,,,,,,,,,,,,,cyan,cross
88.0,2.0,1.0,0.0,4.0,4.0,507.17456900019897,4.0,1.0,phase_1,,,,,,,,,,,,,blue,flipped triangle
115.0,6.0,1.0,1.0,2.0,2.0,423.8343249999161,4.0,1.0,phase_1,,,,,,,,,,,,,gray,diamond
117.0,6.0,1.0,1.0,4.0,4.0,412.5669949999064,4.0,1.0,phase_1,,,,,,,,,,,,,gray,diamond
78.0,6.0,1.0,1.0,3.0,3.0,386.5377870001794,4.0,1.0,phase_1,,,,,,,,,,,,,gray,diamond
96.0,2.0,1.0,0.0,1.0,1.0,438.1391359997906,4.0,1.0,phase_1,,,,,,,,,,,,,blue,flipped triangle
182.0,3.0,2.0,0.0,1.0,1.0,448.5314910002671,4.0,1.0,phase_1,,,,,,,,,,,,,magenta,circle
92.0,6.0,1.0,1.0,3.0,3.0,525.5582019999565,4.0,1.0,phase_1,,,,,,,,,,,,,gray,diamond
31.0,1.0,0.5,0.0,3.0,3.0,443.3744459997797,4.0,1.0,phase_1,,,,,,,,,,,,,white,triangle
421.0,4.0,4.0,0.0,1.0,1.0,567.258633000165,4.0,1.0,phase_1,,,,,,,,,,,,,orange,hexagon
35.0,1.0,0.5,0.0,3.0,3.0,372.4138930001572,4.0,1.0,phase_1,,,,,,,,,,,,,white,triangle
92.0,2.0,1.0,0.0,1.0,1.0,441.0220589998062,4.0,1.0,phase_1,,,,,,,,,,,,,blue,flipped triangle
0.0,8.0,0.0,1.0,4.0,4.0,509.2722210001739,4.0,1.0,phase_1,,,,,,,,,,,,,cyan,cross
32.0,1.0,0.5,0.0,3.0,3.0,375.0304810000671,4.0,1.0,phase_1,,,,,,,,,,,,,white,triangle
101.0,6.0,1.0,1.0,3.0,3.0,424.9648400000296,4.0,1.0,phase_1,,,,,,,,,,,,,gray,diamond
99.0,2.0,1.0,0.0,1.0,1.0,350.1414590000422,4.0,1.0,phase_1,,,,,,,,,,,,,blue,flipped triangle
399.0,8.0,4.0,1.0,1.0,1.0,489.2805819999921,4.0,1.0,phase_1,,,,,,,,,,,,,cyan,cross
0.0,6.0,0.0,1.0,4.0,4.0,514.1712929998903,4.0,1.0,phase_1,,,,,,,,,,,,,gray,diamond
35.0,5.0,0.5,1.0,2.0,2.0,466.6110039997875,4.0,1.0,phase_1,,,,,,,,,,,,,green,I
74.0,5.0,0.5,1.0,3.0,3.0,353.1283349998375,4.0,1.0,phase_1,,,,,,,,,,,,,green,I
81.0,2.0,1.0,0.0,1.0,1.0,500.2691270001378,4.0,1.0,phase_1,,,,,,,,,,,,,blue,flipped triangle
0.0,5.0,0.0,1.0,2.0,2.0,445.0940309998259,4.0,1.0,phase_1,,,,,,,,,,,,,green,I
219.0,7.0,2.0,1.0,4.0,4.0,383.5868810001557,4.0,1.0,phase_1,,,,,,,,,,,,,yellow,square
220.0,7.0,2.0,1.0,2.0,2.0,516.9084610001846,4.0,1.0,phase_1,,,,,,,,,,,,,yellow,square
421.0,4.0,4.0,0.0,2.0,2.0,403.8663380001708,4.0,1.0,phase_1,,,,,,,,,,,,,orange,hexagon
190.0,7.0,2.0,1.0,2.0,2.0,479.8114640002495,4.0,1.0,phase_1,,,,,,,,,,,,,yellow,square
94.0,6.0,1.0,1.0,4.0,4.0,453.1407920003403,4.0,1.0,phase_1,,,,,,,,,,,,,gray,diamond
421.0,4.0,4.0,0.0,4.0,4.0,455.9278760002598,4.0,1.0,phase_1,,,,,,,,,,,,,orange,hexagon
0.0,3.0,0.0,0.0,3.0,3.0,466.5081510001982,4.0,1.0,phase_1,,,,,,,,,,,,,magenta,circle
416.0,8.0,4.0,1.0,1.0,1.0,472.2447280000779,4.0,1.0,phase_1,,,,,,,,,,,,,cyan,cross
194.0,7.0,2.0,1.0,3.0,3.0,700.8676519999426,4.0,1.0,phase_1,,,,,,,,,,,,,yellow,square
0.0,1.0,0.0,0.0,2.0,2.0,416.4852720000453,4.0,1.0,phase_1,,,,,,,,,,,,,white,triangle
0.0,1.0,0.0,0.0,4.0,4.0,475.668388000031,4.0,1.0,phase_1,,,,,,,,,,,,,white,triangle
89.0,6.0,1.0,1.0,1.0,1.0,424.5654650003416,4.0,1.0,phase_1,,,,,,,,,,,,,gray,diamond
198.0,3.0,2.0,0.0,2.0,2.0,447.2348969998165,4.0,1.0,phase_1,,,,,,,,,,,,,magenta,circle
0.0,6.0,0.0,1.0,1.0,1.0,436.8292439999095,4.0,1.0,phase_1,,,,,,,,,,,,,gray,diamond
40.0,1.0,0.5,0.0,3.0,3.0,385.2197609999166,4.0,1.0,phase_1,,,,,,,,,,,,,white,triangle
69.0,1.0,0.5,0.0,4.0,4.0,439.0709559997958,4.0,1.0,phase_1,,,,,,,,,,,,,white,triangle
41.0,5.0,0.5,1.0,1.0,1.0,392.6737790002335,4.0,1.0,phase_1,,,,,,,,,,,,,green,I
187.0,7.0,2.0,1.0,4.0,4.0,384.8719870002242,4.0,1.0,phase_1,,,,,,,,,,,,,yellow,square
0.0,1.0,0.5,0.0,5.0,5.0,522.986026000126,1.0,1.0,phase_2,go,250.0,250.0,1.0,,,,,,,,,white,triangle
0.0,7.0,2.0,1.0,5.0,5.0,817.3759109999992,1.0,1.0,phase_2,stop,250.0,250.0,3.0,,,,,,,,,yellow,square
0.0,2.0,1.0,0.0,6.0,6.0,767.0672670001295,1.0,1.0,phase_2,go,200.0,250.0,1.0,,,,,,,,,blue,flipped triangle
0.0,2.0,1.0,0.0,6.0,6.0,929.8097429996232,1.0,1.0,phase_2,go,200.0,250.0,1.0,,,,,,,,,blue,flipped triangle
0.0,1.0,0.5,0.0,5.0,5.0,674.548674000107,1.0,1.0,phase_2,go,200.0,250.0,1.0,,,,,,,,,white,triangle
0.0,3.0,2.0,0.0,5.0,5.0,746.9463090001227,1.0,1.0,phase_2,go,200.0,250.0,1.0,,,,,,,,,magenta,circle
0.0,3.0,2.0,0.0,5.0,5.0,676.415802000065,1.0,1.0,phase_2,go,200.0,250.0,1.0,,,,,,,,,magenta,circle
0.0,1.0,0.5,0.0,6.0,6.0,736.7257760001849,1.0,1.0,phase_2,go,200.0,250.0,1.0,,,,,,,,,white,triangle
0.0,7.0,2.0,1.0,5.0,0.0,0.0,1.0,1.0,phase_2,stop,200.0,250.0,4.0,,,,,,,,,yellow,square
0.0,6.0,1.0,1.0,6.0,6.0,688.7936359999003,1.0,1.0,phase_2,go,250.0,250.0,1.0,,,,,,,,,gray,diamond
0.0,7.0,2.0,1.0,5.0,0.0,0.0,1.0,1.0,phase_2,stop,250.0,250.0,4.0,,,,,,,,,yellow,square
0.0,1.0,0.5,0.0,5.0,5.0,962.3819059997912,1.0,1.0,phase_2,go,300.0,250.0,1.0,,,,,,,,,white,triangle
0.0,3.0,2.0,0.0,5.0,5.0,845.9080009997706,1.0,1.0,phase_2,go,300.0,250.0,1.0,,,,,,,,,magenta,circle
0.0,6.0,1.0,1.0,5.0,0.0,0.0,1.0,1.0,phase_2,stop,300.0,250.0,4.0,,,,,,,,,gray,diamond
0.0,2.0,1.0,0.0,6.0,6.0,781.9948899996234,1.0,1.0,phase_2,go,350.0,250.0,1.0,,,,,,,,,blue,flipped triangle
0.0,2.0,1.0,0.0,6.0,6.0,826.4770900000258,1.0,1.0,phase_2,go,350.0,250.0,1.0,,,,,,,,,blue,flipped triangle
0.0,5.0,0.5,1.0,5.0,0.0,0.0,1.0,1.0,phase_2,stop,350.0,250.0,4.0,,,,,,,,,green,I
0.0,4.0,4.0,0.0,6.0,6.0,639.789422999911,1.0,1.0,phase_2,go,400.0,250.0,1.0,,,,,,,,,orange,hexagon
0.0,7.0,2.0,1.0,5.0,0.0,0.0,1.0,1.0,phase_2,stop,400.0,250.0,4.0,,,,,,,,,yellow,square
0.0,3.0,2.0,0.0,6.0,6.0,974.906868999824,1.0,1.0,phase_2,go,450.0,250.0,1.0,,,,,,,,,magenta,circle
0.0,6.0,1.0,1.0,5.0,0.0,0.0,1.0,1.0,phase_2,stop,450.0,250.0,4.0,,,,,,,,,gray,diamond
0.0,5.0,0.5,1.0,6.0,6.0,704.572268999982,1.0,1.0,phase_2,go,500.0,250.0,1.0,,,,,,,,,green,I
0.0,5.0,0.5,1.0,6.0,0.0,0.0,1.0,1.0,phase_2,stop,500.0,250.0,4.0,,,,,,,,,green,I
0.0,4.0,4.0,0.0,5.0,5.0,430.5659010001363,1.0,1.0,phase_2,go,500.0,300.0,1.0,,,,,,,,,orange,hexagon
0.0,6.0,1.0,1.0,5.0,5.0,666.1657039999227,1.0,1.0,phase_2,stop,500.0,300.0,3.0,,,,,,,,,gray,diamond
0.0,7.0,2.0,1.0,5.0,0.0,0.0,1.0,1.0,phase_2,stop,450.0,300.0,4.0,,,,,,,,,yellow,square
0.0,3.0,2.0,0.0,5.0,5.0,1132.4371239998072,1.0,1.0,phase_2,go,500.0,300.0,1.0,,,,,,,,,magenta,circle
0.0,3.0,2.0,0.0,6.0,6.0,876.0539650002102,1.0,1.0,phase_2,go,500.0,300.0,1.0,,,,,,,,,magenta,circle
0.0,5.0,0.5,1.0,6.0,0.0,0.0,1.0,1.0,phase_2,stop,500.0,300.0,4.0,,,,,,,,,green,I
0.0,1.0,0.5,0.0,6.0,6.0,1234.732365999662,1.0,1.0,phase_2,go,500.0,350.0,1.0,,,,,,,,,white,triangle
0.0,1.0,0.5,0.0,5.0,5.0,884.4242380000651,1.0,1.0,phase_2,go,500.0,350.0,1.0,,,,,,,,,white,triangle
0.0,8.0,4.0,1.0,6.0,6.0,833.2535459999235,1.0,1.0,phase_2,go,500.0,350.0,1.0,,,,,,,,,cyan,cross
0.0,5.0,0.5,1.0,5.0,5.0,627.7319910000188,1.0,1.0,phase_2,stop,500.0,350.0,3.0,,,,,,,,,green,I
0.0,5.0,0.5,1.0,6.0,6.0,931.6217270002198,1.0,1.0,phase_2,go,450.0,350.0,1.0,,,,,,,,,green,I
0.0,5.0,0.5,1.0,6.0,6.0,872.2535199999584,1.0,1.0,phase_2,go,450.0,350.0,1.0,,,,,,,,,green,I
0.0,7.0,2.0,1.0,5.0,5.0,965.6704570002148,1.0,1.0,phase_2,go,450.0,350.0,1.0,,,,,,,,,yellow,square
0.0,6.0,1.0,1.0,6.0,6.0,445.9726520003642,2.0,1.0,phase_2,stop,450.0,350.0,3.0,,,,,,,,,gray,diamond
0.0,6.0,1.0,1.0,5.0,5.0,582.5959740000144,2.0,1.0,phase_2,stop,450.0,300.0,3.0,,,,,,,,,gray,diamond
0.0,3.0,2.0,0.0,6.0,6.0,779.5971329996974,2.0,1.0,phase_2,go,400.0,300.0,1.0,,,,,,,,,magenta,circle
0.0,2.0,1.0,0.0,5.0,5.0,574.3823289999455,2.0,1.0,phase_2,go,400.0,300.0,1.0,,,,,,,,,blue,flipped triangle
0.0,5.0,0.5,1.0,6.0,0.0,0.0,2.0,1.0,phase_2,stop,400.0,300.0,4.0,,,,,,,,,green,I
0.0,6.0,1.0,1.0,5.0,0.0,0.0,2.0,1.0,phase_2,stop,400.0,350.0,4.0,,,,,,,,,gray,diamond
0.0,1.0,0.5,0.0,5.0,5.0,834.2766790001406,2.0,1.0,phase_2,go,450.0,350.0,1.0,,,,,,,,,white,triangle
0.0,7.0,2.0,1.0,5.0,5.0,513.3696859998054,2.0,1.0,phase_2,go,450.0,350.0,1.0,,,,,,,,,yellow,square
0.0,5.0,0.5,1.0,6.0,0.0,0.0,2.0,1.0,phase_2,stop,450.0,350.0,4.0,,,,,,,,,green,I
0.0,5.0,0.5,1.0,5.0,5.0,489.4240839998929,2.0,1.0,phase_2,stop,450.0,400.0,3.0,,,,,,,,,green,I
0.0,4.0,4.0,0.0,5.0,5.0,837.4600309998641,2.0,1.0,phase_2,go,400.0,400.0,1.0,,,,,,,,,orange,hexagon
0.0,2.0,1.0,0.0,5.0,5.0,769.0508560003764,2.0,1.0,phase_2,go,400.0,400.0,1.0,,,,,,,,,blue,flipped triangle
0.0,4.0,4.0,0.0,5.0,5.0,654.9513729996761,2.0,1.0,phase_2,go,400.0,400.0,1.0,,,,,,,,,orange,hexagon
0.0,3.0,2.0,0.0,5.0,5.0,528.5620699996798,2.0,1.0,phase_2,go,400.0,400.0,1.0,,,,,,,,,magenta,circle
0.0,6.0,1.0,1.0,5.0,0.0,0.0,2.0,1.0,phase_2,stop,400.0,400.0,4.0,,,,,,,,,gray,diamond
0.0,5.0,0.5,1.0,5.0,0.0,0.0,2.0,1.0,phase_2,stop,450.0,400.0,4.0,,,,,,,,,green,I
0.0,7.0,2.0,1.0,6.0,0.0,0.0,2.0,1.0,phase_2,stop,500.0,400.0,4.0,,,,,,,,,yellow,square
0.0,7.0,2.0,1.0,6.0,6.0,851.7615869996007,2.0,1.0,phase_2,go,500.0,450.0,1.0,,,,,,,,,yellow,square
0.0,3.0,2.0,0.0,6.0,6.0,837.3591999998098,2.0,1.0,phase_2,go,500.0,450.0,1.0,,,,,,,,,magenta,circle
0.0,6.0,1.0,1.0,6.0,0.0,0.0,2.0,1.0,phase_2,stop,500.0,450.0,4.0,,,,,,,,,gray,diamond
0.0,4.0,4.0,0.0,6.0,6.0,1038.9661730000626,2.0,1.0,phase_2,go,500.0,500.0,1.0,,,,,,,,,orange,hexagon
0.0,7.0,2.0,1.0,5.0,0.0,0.0,2.0,1.0,phase_2,stop,500.0,500.0,4.0,,,,,,,,,yellow,square
0.0,5.0,0.5,1.0,5.0,0.0,0.0,2.0,1.0,phase_2,stop,550.0,500.0,4.0,,,,,,,,,green,I
0.0,4.0,4.0,0.0,5.0,5.0,833.733766000023,2.0,1.0,phase_2,go,600.0,500.0,1.0,,,,,,,,,orange,hexagon
0.0,8.0,4.0,1.0,5.0,5.0,747.0934230000239,2.0,1.0,phase_2,stop,600.0,500.0,3.0,,,,,,,,,cyan,cross
0.0,3.0,2.0,0.0,6.0,6.0,547.865684000044,2.0,1.0,phase_2,go,550.0,500.0,1.0,,,,,,,,,magenta,circle
0.0,6.0,1.0,1.0,5.0,5.0,1215.2247990002252,2.0,1.0,phase_2,go,550.0,500.0,1.0,,,,,,,,,gray,diamond
0.0,8.0,4.0,1.0,6.0,0.0,0.0,2.0,1.0,phase_2,stop,550.0,500.0,4.0,,,,,,,,,cyan,cross
0.0,8.0,4.0,1.0,5.0,5.0,738.3739790002437,2.0,1.0,phase_2,stop,550.0,550.0,3.0,,,,,,,,,cyan,cross
0.0,3.0,2.0,0.0,6.0,6.0,884.0995929999735,2.0,1.0,phase_2,go,500.0,550.0,1.0,,,,,,,,,magenta,circle
0.0,3.0,2.0,0.0,6.0,6.0,607.3145390000718,2.0,1.0,phase_2,go,500.0,550.0,1.0,,,,,,,,,magenta,circle
0.0,7.0,2.0,1.0,6.0,0.0,0.0,2.0,1.0,phase_2,stop,500.0,550.0,4.0,,,,,,,,,yellow,square
0.0,3.0,2.0,0.0,6.0,6.0,748.5449790001439,2.0,1.0,phase_2,go,500.0,600.0,1.0,,,,,,,,,magenta,circle
0.0,4.0,4.0,0.0,5.0,5.0,666.6356260002431,2.0,1.0,phase_2,go,500.0,600.0,1.0,,,,,,,,,orange,hexagon
0.0,5.0,0.5,1.0,6.0,0.0,0.0,2.0,1.0,phase_2,stop,500.0,600.0,4.0,,,,,,,,,green,I
0.0,8.0,4.0,1.0,5.0,0.0,0.0,2.0,1.0,phase_2,stop,500.0,650.0,4.0,,,,,,,,,cyan,cross
0.0,1.0,0.5,0.0,5.0,5.0,738.6577399997805,3.0,1.0,phase_2,go,550.0,650.0,1.0,,,,,,,,,white,triangle
0.0,8.0,4.0,1.0,6.0,6.0,553.7390459999187,3.0,1.0,phase_2,go,550.0,650.0,1.0,,,,,,,,,cyan,cross
0.0,6.0,1.0,1.0,6.0,6.0,481.0174120002557,3.0,1.0,phase_2,stop,550.0,650.0,3.0,,,,,,,,,gray,diamond
0.0,6.0,1.0,1.0,6.0,6.0,609.0462740003204,3.0,1.0,phase_2,go,550.0,600.0,1.0,,,,,,,,,gray,diamond
0.0,4.0,4.0,0.0,5.0,5.0,512.9297429998587,3.0,1.0,phase_2,go,550.0,600.0,1.0,,,,,,,,,orange,hexagon
0.0,2.0,1.0,0.0,5.0,5.0,831.5950080000221,3.0,1.0,phase_2,go,550.0,600.0,1.0,,,,,,,,,blue,flipped triangle
0.0,2.0,1.0,0.0,6.0,6.0,443.2823560000543,3.0,1.0,phase_2,go,550.0,600.0,1.0,,,,,,,,,blue,flipped triangle
0.0,4.0,4.0,0.0,6.0,6.0,531.2806839997393,3.0,1.0,phase_2,go,550.0,600.0,1.0,,,,,,,,,orange,hexagon
0.0,7.0,2.0,1.0,6.0,6.0,537.5734770000236,3.0,1.0,phase_2,stop,550.0,600.0,3.0,,,,,,,,,yellow,square
0.0,6.0,1.0,1.0,6.0,6.0,663.0240260001301,3.0,1.0,phase_2,stop,550.0,550.0,3.0,,,,,,,,,gray,diamond
0.0,8.0,4.0,1.0,5.0,5.0,667.2855659999186,3.0,1.0,phase_2,stop,550.0,500.0,3.0,,,,,,,,,cyan,cross
0.0,1.0,0.5,0.0,6.0,6.0,707.8685410001526,3.0,1.0,phase_2,go,500.0,500.0,1.0,,,,,,,,,white,triangle
0.0,3.0,2.0,0.0,5.0,5.0,340.7618999999613,3.0,1.0,phase_2,go,500.0,500.0,1.0,,,,,,,,,magenta,circle
0.0,7.0,2.0,1.0,6.0,6.0,1036.6149619999303,3.0,1.0,phase_2,go,500.0,500.0,1.0,,,,,,,,,yellow,square
0.0,8.0,4.0,1.0,5.0,5.0,417.3836879999726,3.0,1.0,phase_2,stop,500.0,500.0,3.0,,,,,,,,,cyan,cross
0.0,4.0,4.0,0.0,6.0,6.0,650.9670559998995,3.0,1.0,phase_2,go,450.0,500.0,1.0,,,,,,,,,orange,hexagon
0.0,4.0,4.0,0.0,6.0,6.0,655.4424600003586,3.0,1.0,phase_2,go,450.0,500.0,1.0,,,,,,,,,orange,hexagon
0.0,7.0,2.0,1.0,5.0,0.0,0.0,3.0,1.0,phase_2,stop,450.0,500.0,4.0,,,,,,,,,yellow,square
0.0,2.0,1.0,0.0,5.0,5.0,585.0909820001107,3.0,1.0,phase_2,go,500.0,500.0,1.0,,,,,,,,,blue,flipped triangle
0.0,5.0,0.5,1.0,5.0,0.0,0.0,3.0,1.0,phase_2,stop,500.0,500.0,4.0,,,,,,,,,green,I
0.0,5.0,0.5,1.0,6.0,0.0,0.0,3.0,1.0,phase_2,stop,550.0,500.0,4.0,,,,,,,,,green,I
0.0,3.0,2.0,0.0,5.0,5.0,536.2772080002287,3.0,1.0,phase_2,go,550.0,550.0,1.0,,,,,,,,,magenta,circle
0.0,4.0,4.0,0.0,6.0,6.0,602.6253690001795,3.0,1.0,phase_2,go,550.0,550.0,1.0,,,,,,,,,orange,hexagon
0.0,3.0,2.0,0.0,6.0,6.0,740.427101000023,3.0,1.0,phase_2,go,550.0,550.0,1.0,,,,,,,,,magenta,circle
0.0,6.0,1.0,1.0,5.0,5.0,545.7137920002424,3.0,1.0,phase_2,stop,550.0,550.0,3.0,,,,,,,,,gray,diamond
0.0,3.0,2.0,0.0,6.0,6.0,622.3682249997182,3.0,1.0,phase_2,go,500.0,550.0,1.0,,,,,,,,,magenta,circle
0.0,3.0,2.0,0.0,5.0,5.0,440.2176339999641,3.0,1.0,phase_2,go,500.0,550.0,1.0,,,,,,,,,magenta,circle
0.0,7.0,2.0,1.0,6.0,0.0,0.0,3.0,1.0,phase_2,stop,500.0,550.0,4.0,,,,,,,,,yellow,square
0.0,3.0,2.0,0.0,5.0,5.0,476.978844000314,3.0,1.0,phase_2,go,500.0,600.0,1.0,,,,,,,,,magenta,circle
0.0,8.0,4.0,1.0,6.0,6.0,929.1289809998487,3.0,1.0,phase_2,go,500.0,600.0,1.0,,,,,,,,,cyan,cross
0.0,2.0,1.0,0.0,5.0,5.0,892.9142450001564,3.0,1.0,phase_2,go,500.0,600.0,1.0,,,,,,,,,blue,flipped triangle
0.0,2.0,1.0,0.0,6.0,6.0,616.3611019997006,3.0,1.0,phase_2,go,500.0,600.0,1.0,,,,,,,,,blue,flipped triangle
0.0,6.0,1.0,1.0,6.0,0.0,0.0,3.0,1.0,phase_2,stop,500.0,600.0,4.0,,,,,,,,,gray,diamond
0.0,2.0,1.0,0.0,6.0,6.0,697.9845169998953,3.0,1.0,phase_2,go,500.0,650.0,1.0,,,,,,,,,blue,flipped triangle
0.0,1.0,0.5,0.0,6.0,6.0,733.6809009998433,3.0,1.0,phase_2,go,500.0,650.0,1.0,,,,,,,,,white,triangle
0.0,5.0,0.5,1.0,6.0,0.0,0.0,3.0,1.0,phase_2,stop,500.0,650.0,4.0,,,,,,,,,green,I
0.0,4.0,4.0,0.0,6.0,6.0,609.4092889998137,4.0,1.0,phase_2,go,500.0,700.0,1.0,,,,,,,,,orange,hexagon
0.0,3.0,2.0,0.0,6.0,6.0,476.3532570000279,4.0,1.0,phase_2,go,500.0,700.0,1.0,,,,,,,,,magenta,circle
0.0,5.0,0.5,1.0,5.0,0.0,0.0,4.0,1.0,phase_2,stop,500.0,700.0,4.0,,,,,,,,,green,I
0.0,3.0,2.0,0.0,6.0,6.0,494.5186759996431,4.0,1.0,phase_2,go,550.0,700.0,1.0,,,,,,,,,magenta,circle
0.0,6.0,1.0,1.0,5.0,0.0,0.0,4.0,1.0,phase_2,stop,550.0,700.0,4.0,,,,,,,,,gray,diamond
0.0,4.0,4.0,0.0,5.0,5.0,537.1488330001739,4.0,1.0,phase_2,go,600.0,700.0,1.0,,,,,,,,,orange,hexagon
0.0,6.0,1.0,1.0,6.0,0.0,0.0,4.0,1.0,phase_2,stop,600.0,700.0,4.0,,,,,,,,,gray,diamond
0.0,5.0,0.5,1.0,5.0,0.0,0.0,4.0,1.0,phase_2,stop,600.0,750.0,4.0,,,,,,,,,green,I
0.0,5.0,0.5,1.0,5.0,0.0,0.0,4.0,1.0,phase_2,stop,650.0,750.0,4.0,,,,,,,,,green,I
0.0,2.0,1.0,0.0,5.0,5.0,649.9513290000323,4.0,1.0,phase_2,go,700.0,750.0,1.0,,,,,,,,,blue,flipped triangle
0.0,7.0,2.0,1.0,6.0,6.0,938.5023559998444,4.0,1.0,phase_2,stop,700.0,750.0,3.0,,,,,,,,,yellow,square
0.0,5.0,0.5,1.0,5.0,5.0,1095.522659999915,4.0,1.0,phase_2,go,700.0,700.0,1.0,,,,,,,,,green,I
0.0,4.0,4.0,0.0,6.0,6.0,632.5636359997588,4.0,1.0,phase_2,go,700.0,700.0,1.0,,,,,,,,,orange,hexagon
0.0,5.0,0.5,1.0,5.0,5.0,954.4845630002784,4.0,1.0,phase_2,go,700.0,700.0,1.0,,,,,,,,,green,I
0.0,3.0,2.0,0.0,6.0,6.0,448.3756179997726,4.0,1.0,phase_2,go,700.0,700.0,1.0,,,,,,,,,magenta,circle
0.0,2.0,1.0,0.0,5.0,5.0,737.8124120000393,4.0,1.0,phase_2,go,700.0,700.0,1.0,,,,,,,,,blue,flipped triangle
0.0,8.0,4.0,1.0,6.0,6.0,589.645658000336,4.0,1.0,phase_2,stop,700.0,700.0,3.0,,,,,,,,,cyan,cross
0.0,1.0,0.5,0.0,5.0,5.0,567.4955089998548,4.0,1.0,phase_2,go,700.0,650.0,1.0,,,,,,,,,white,triangle
0.0,6.0,1.0,1.0,6.0,6.0,740.8634739999798,4.0,1.0,phase_2,go,700.0,650.0,1.0,,,,,,,,,gray,diamond
0.0,5.0,0.5,1.0,6.0,6.0,814.6180419998927,4.0,1.0,phase_2,stop,700.0,650.0,3.0,,,,,,,,,green,I
0.0,4.0,4.0,0.0,6.0,6.0,559.0213169998606,4.0,1.0,phase_2,go,700.0,600.0,1.0,,,,,,,,,orange,hexagon
0.0,7.0,2.0,1.0,6.0,0.0,0.0,4.0,1.0,phase_2,stop,700.0,600.0,4.0,,,,,,,,,yellow,square
0.0,7.0,2.0,1.0,6.0,6.0,784.0554660001544,4.0,1.0,phase_2,stop,700.0,650.0,3.0,,,,,,,,,yellow,square
0.0,5.0,0.5,1.0,5.0,5.0,869.5478159997947,4.0,1.0,phase_2,go,700.0,600.0,1.0,,,,,,,,,green,I
0.0,4.0,4.0,0.0,5.0,5.0,560.7044520002091,4.0,1.0,phase_2,go,700.0,600.0,1.0,,,,,,,,,orange,hexagon
0.0,1.0,0.5,0.0,6.0,6.0,1459.7534880003875,4.0,1.0,phase_2,go,700.0,600.0,1.0,,,,,,,,,white,triangle
0.0,2.0,1.0,0.0,6.0,6.0,834.889430000203,4.0,1.0,phase_2,go,700.0,600.0,1.0,,,,,,,,,blue,flipped triangle
0.0,1.0,0.5,0.0,5.0,5.0,359.85448800011,4.0,1.0,phase_2,go,700.0,600.0,1.0,,,,,,,,,white,triangle
0.0,2.0,1.0,0.0,6.0,6.0,474.4382040003074,4.0,1.0,phase_2,go,700.0,600.0,1.0,,,,,,,,,blue,flipped triangle
0.0,8.0,4.0,1.0,5.0,5.0,446.8194099999891,4.0,1.0,phase_2,stop,700.0,600.0,3.0,,,,,,,,,cyan,cross
0.0,7.0,2.0,1.0,6.0,6.0,859.6004309997625,4.0,1.0,phase_2,go,650.0,600.0,1.0,,,,,,,,,yellow,square
0.0,2.0,1.0,0.0,6.0,6.0,474.5663710000372,4.0,1.0,phase_2,go,650.0,600.0,1.0,,,,,,,,,blue,flipped triangle
0.0,6.0,1.0,1.0,6.0,6.0,417.6944270002423,4.0,1.0,phase_2,stop,650.0,600.0,3.0,,,,,,,,,gray,diamond
0.0,7.0,2.0,1.0,6.0,0.0,0.0,4.0,1.0,phase_2,stop,650.0,550.0,4.0,,,,,,,,,yellow,square
0.0,1.0,0.5,0.0,6.0,6.0,596.6737690000627,4.0,1.0,phase_2,go,650.0,600.0,1.0,,,,,,,,,white,triangle
0.0,8.0,4.0,1.0,5.0,5.0,468.2878579997123,4.0,1.0,phase_2,stop,650.0,600.0,3.0,,,,,,,,,cyan,cross
0.0,2.0,1.0,0.0,5.0,5.0,438.777668000057,5.0,1.0,phase_2,go,600.0,600.0,1.0,,,,,,,,,blue,flipped triangle
0.0,4.0,4.0,0.0,6.0,6.0,380.7245080001848,5.0,1.0,phase_2,go,600.0,600.0,1.0,,,,,,,,,orange,hexagon
0.0,5.0,0.5,1.0,5.0,5.0,335.9334990000207,5.0,1.0,phase_2,stop,600.0,600.0,3.0,,,,,,,,,green,I
0.0,6.0,1.0,1.0,5.0,5.0,507.7294660000007,5.0,1.0,phase_2,stop,550.0,600.0,3.0,,,,,,,,,gray,diamond
0.0,1.0,0.5,0.0,6.0,6.0,290.7820039999933,5.0,1.0,phase_2,go,500.0,600.0,1.0,,,,,,,,,white,triangle
0.0,1.0,0.5,0.0,5.0,5.0,471.8658480001068,5.0,1.0,phase_2,go,500.0,600.0,1.0,,,,,,,,,white,triangle
0.0,3.0,2.0,0.0,5.0,5.0,346.0920850002367,5.0,1.0,phase_2,go,500.0,600.0,1.0,,,,,,,,,magenta,circle
0.0,2.0,1.0,0.0,6.0,6.0,278.473010000198,5.0,1.0,phase_2,go,500.0,600.0,1.0,,,,,,,,,blue,flipped triangle
0.0,3.0,2.0,0.0,5.0,5.0,463.443396999537,5.0,1.0,phase_2,go,500.0,600.0,1.0,,,,,,,,,magenta,circle
0.0,2.0,1.0,0.0,5.0,5.0,547.6532399998177,5.0,1.0,phase_2,go,500.0,600.0,1.0,,,,,,,,,blue,flipped triangle
0.0,2.0,1.0,0.0,5.0,5.0,355.2976310002123,5.0,1.0,phase_2,go,500.0,600.0,1.0,,,,,,,,,blue,flipped triangle
0.0,6.0,1.0,1.0,5.0,5.0,486.1026979997405,5.0,1.0,phase_2,stop,500.0,600.0,3.0,,,,,,,,,gray,diamond
0.0,4.0,4.0,0.0,5.0,5.0,591.2250560004395,5.0,1.0,phase_2,go,450.0,600.0,1.0,,,,,,,,,orange,hexagon
0.0,8.0,4.0,1.0,6.0,6.0,326.4816850005445,5.0,1.0,phase_2,go,450.0,600.0,1.0,,,,,,,,,cyan,cross
0.0,4.0,4.0,0.0,5.0,5.0,477.1172609998757,5.0,1.0,phase_2,go,450.0,600.0,1.0,,,,,,,,,orange,hexagon
0.0,4.0,4.0,0.0,6.0,6.0,345.7026619998942,5.0,1.0,phase_2,go,450.0,600.0,1.0,,,,,,,,,orange,hexagon
0.0,1.0,0.5,0.0,5.0,5.0,300.6341840000459,5.0,1.0,phase_2,go,450.0,600.0,1.0,,,,,,,,,white,triangle
0.0,8.0,4.0,1.0,6.0,6.0,278.013911999551,5.0,1.0,phase_2,go,450.0,600.0,1.0,,,,,,,,,cyan,cross
0.0,1.0,0.5,0.0,6.0,6.0,326.9116530000246,5.0,1.0,phase_2,go,450.0,600.0,1.0,,,,,,,,,white,triangle
0.0,6.0,1.0,1.0,5.0,5.0,316.8347490000087,5.0,1.0,phase_2,stop,450.0,600.0,3.0,,,,,,,,,gray,diamond
0.0,8.0,4.0,1.0,6.0,6.0,329.5264099997439,5.0,1.0,phase_2,stop,400.0,600.0,3.0,,,,,,,,,cyan,cross
0.0,2.0,1.0,0.0,5.0,5.0,318.8566550006726,5.0,1.0,phase_2,go,400.0,550.0,1.0,,,,,,,,,blue,flipped triangle
0.0,8.0,4.0,1.0,6.0,6.0,307.0442880007249,5.0,1.0,phase_2,stop,400.0,550.0,3.0,,,,,,,,,cyan,cross
0.0,4.0,4.0,0.0,5.0,5.0,384.6861889996944,5.0,1.0,phase_2,go,400.0,500.0,1.0,,,,,,,,,orange,hexagon
0.0,8.0,4.0,1.0,5.0,0.0,0.0,5.0,1.0,phase_2,stop,400.0,500.0,4.0,,,,,,,,,cyan,cross
0.0,8.0,4.0,1.0,5.0,0.0,0.0,5.0,1.0,phase_2,stop,450.0,500.0,4.0,,,,,,,,,cyan,cross
0.0,2.0,1.0,0.0,5.0,5.0,496.3768800007528,5.0,1.0,phase_2,go,500.0,500.0,1.0,,,,,,,,,blue,flipped triangle
0.0,6.0,1.0,1.0,5.0,0.0,0.0,5.0,1.0,phase_2,stop,500.0,500.0,4.0,,,,,,,,,gray,diamond
0.0,1.0,0.5,0.0,5.0,5.0,569.9605400004657,5.0,1.0,phase_2,go,550.0,500.0,1.0,,,,,,,,,white,triangle
0.0,6.0,1.0,1.0,6.0,6.0,784.4323529998292,5.0,1.0,phase_2,go,550.0,500.0,1.0,,,,,,,,,gray,diamond
0.0,5.0,0.5,1.0,5.0,5.0,336.594165999486,5.0,1.0,phase_2,stop,550.0,500.0,3.0,,,,,,,,,green,I
0.0,4.0,4.0,0.0,5.0,5.0,508.679810999638,5.0,1.0,phase_2,go,500.0,500.0,1.0,,,,,,,,,orange,hexagon
0.0,6.0,1.0,1.0,6.0,6.0,658.2364369996867,5.0,1.0,phase_2,stop,500.0,500.0,3.0,,,,,,,,,gray,diamond
0.0,3.0,2.0,0.0,5.0,5.0,479.313146000095,5.0,1.0,phase_2,go,500.0,450.0,1.0,,,,,,,,,magenta,circle
0.0,6.0,1.0,1.0,5.0,5.0,538.761441999668,5.0,1.0,phase_2,stop,500.0,450.0,3.0,,,,,,,,,gray,diamond
0.0,1.0,0.5,0.0,6.0,6.0,390.4924219996246,5.0,1.0,phase_2,go,450.0,450.0,1.0,,,,,,,,,white,triangle
0.0,5.0,0.5,1.0,6.0,6.0,483.5159690001092,6.0,1.0,phase_2,stop,450.0,450.0,3.0,,,,,,,,,green,I
0.0,7.0,2.0,1.0,5.0,0.0,0.0,6.0,1.0,phase_2,stop,450.0,400.0,4.0,,,,,,,,,yellow,square
0.0,1.0,0.5,0.0,6.0,6.0,593.5308850002912,6.0,1.0,phase_2,go,500.0,400.0,1.0,,,,,,,,,white,triangle
0.0,6.0,1.0,1.0,5.0,5.0,669.668649000414,6.0,1.0,phase_2,stop,500.0,400.0,3.0,,,,,,,,,gray,diamond
0.0,5.0,0.5,1.0,5.0,0.0,0.0,6.0,1.0,phase_2,stop,450.0,400.0,4.0,,,,,,,,,green,I
0.0,2.0,1.0,0.0,5.0,5.0,600.670896000338,6.0,1.0,phase_2,go,500.0,400.0,1.0,,,,,,,,,blue,flipped triangle
0.0,3.0,2.0,0.0,6.0,6.0,382.8712860004089,6.0,1.0,phase_2,go,500.0,400.0,1.0,,,,,,,,,magenta,circle
0.0,5.0,0.5,1.0,6.0,0.0,0.0,6.0,1.0,phase_2,stop,500.0,400.0,4.0,,,,,,,,,green,I
0.0,7.0,2.0,1.0,5.0,5.0,828.0787740004598,6.0,1.0,phase_2,go,500.0,450.0,1.0,,,,,,,,,yellow,square
0.0,3.0,2.0,0.0,5.0,5.0,747.3489220001284,6.0,1.0,phase_2,go,500.0,450.0,1.0,,,,,,,,,magenta,circle
0.0,5.0,0.5,1.0,6.0,6.0,806.4606710004227,6.0,1.0,phase_2,go,500.0,450.0,1.0,,,,,,,,,green,I
0.0,8.0,4.0,1.0,5.0,5.0,671.8447050006944,6.0,1.0,phase_2,stop,500.0,450.0,3.0,,,,,,,,,cyan,cross
0.0,7.0,2.0,1.0,5.0,0.0,0.0,6.0,1.0,phase_2,stop,450.0,450.0,4.0,,,,,,,,,yellow,square
0.0,1.0,0.5,0.0,5.0,5.0,942.8991920003682,6.0,1.0,phase_2,go,500.0,450.0,1.0,,,,,,,,,white,triangle
0.0,6.0,1.0,1.0,5.0,5.0,689.4552610001483,6.0,1.0,phase_2,go,500.0,450.0,1.0,,,,,,,,,gray,diamond
0.0,4.0,4.0,0.0,5.0,5.0,560.3213320000577,6.0,1.0,phase_2,go,500.0,450.0,1.0,,,,,,,,,orange,hexagon
0.0,4.0,4.0,0.0,6.0,6.0,402.1808690004036,6.0,1.0,phase_2,go,500.0,450.0,1.0,,,,,,,,,orange,hexagon
0.0,8.0,4.0,1.0,5.0,5.0,602.3578790000101,6.0,1.0,phase_2,stop,500.0,450.0,3.0,,,,,,,,,cyan,cross
0.0,2.0,1.0,0.0,6.0,6.0,343.7754070000665,6.0,1.0,phase_2,go,450.0,450.0,1.0,,,,,,,,,blue,flipped triangle
0.0,2.0,1.0,0.0,6.0,6.0,341.4486029996624,6.0,1.0,phase_2,go,450.0,450.0,1.0,,,,,,,,,blue,flipped triangle
0.0,8.0,4.0,1.0,6.0,6.0,354.1405289997783,6.0,1.0,phase_2,stop,450.0,450.0,3.0,,,,,,,,,cyan,cross
0.0,2.0,1.0,0.0,5.0,5.0,569.7042530000545,6.0,1.0,phase_2,go,450.0,400.0,1.0,,,,,,,,,blue,flipped triangle
0.0,4.0,4.0,0.0,6.0,6.0,469.1063640002539,6.0,1.0,phase_2,go,450.0,400.0,1.0,,,,,,,,,orange,hexagon
0.0,8.0,4.0,1.0,6.0,6.0,908.8514360000772,6.0,1.0,phase_2,stop,450.0,400.0,3.0,,,,,,,,,cyan,cross
0.0,8.0,4.0,1.0,6.0,6.0,752.5524480006425,6.0,1.0,phase_2,go,450.0,350.0,1.0,,,,,,,,,cyan,cross
0.0,2.0,1.0,0.0,6.0,6.0,541.3463320001028,6.0,1.0,phase_2,go,450.0,350.0,1.0,,,,,,,,,blue,flipped triangle
0.0,1.0,0.5,0.0,6.0,6.0,448.1814259997918,6.0,1.0,phase_2,go,450.0,350.0,1.0,,,,,,,,,white,triangle
0.0,7.0,2.0,1.0,6.0,6.0,400.8756869998251,6.0,1.0,phase_2,go,450.0,350.0,1.0,,,,,,,,,yellow,square
0.0,1.0,0.5,0.0,5.0,5.0,501.80914999964443,6.0,1.0,phase_2,go,450.0,350.0,1.0,,,,,,,,,white,triangle
0.0,1.0,0.5,0.0,5.0,5.0,437.2003270000277,6.0,1.0,phase_2,go,450.0,350.0,1.0,,,,,,,,,white,triangle
0.0,6.0,1.0,1.0,6.0,6.0,344.1244539999388,6.0,1.0,phase_2,stop,450.0,350.0,3.0,,,,,,,,,gray,diamond
0.0,1.0,0.5,0.0,6.0,6.0,593.0897890002598,6.0,1.0,phase_2,go,450.0,300.0,1.0,,,,,,,,,white,triangle
0.0,5.0,0.5,1.0,5.0,0.0,0.0,6.0,1.0,phase_2,stop,450.0,300.0,4.0,,,,,,,,,green,I
0.0,7.0,2.0,1.0,6.0,0.0,0.0,6.0,1.0,phase_2,stop,500.0,300.0,4.0,,,,,,,,,yellow,square
0.0,1.0,0.5,0.0,5.0,5.0,573.8816500006578,6.0,1.0,phase_2,go,500.0,350.0,1.0,,,,,,,,,white,triangle
0.0,8.0,4.0,1.0,5.0,5.0,423.1691889999638,6.0,1.0,phase_2,stop,500.0,350.0,3.0,,,,,,,,,cyan,cross
0.0,4.0,4.0,0.0,6.0,6.0,488.5814899998877,7.0,1.0,phase_2,go,450.0,350.0,1.0,,,,,,,,,orange,hexagon
0.0,6.0,1.0,1.0,6.0,6.0,338.6854310001581,7.0,1.0,phase_2,stop,450.0,350.0,3.0,,,,,,,,,gray,diamond
0.0,1.0,0.5,0.0,6.0,6.0,474.1568680001364,7.0,1.0,phase_2,go,450.0,300.0,1.0,,,,,,,,,white,triangle
0.0,8.0,4.0,1.0,5.0,5.0,631.0347510006977,7.0,1.0,phase_2,go,450.0,300.0,1.0,,,,,,,,,cyan,cross
0.0,8.0,4.0,1.0,6.0,6.0,358.6939320002784,7.0,1.0,phase_2,stop,450.0,300.0,3.0,,,,,,,,,cyan,cross
0.0,7.0,2.0,1.0,6.0,0.0,0.0,7.0,1.0,phase_2,stop,450.0,250.0,4.0,,,,,,,,,yellow,square
0.0,4.0,4.0,0.0,6.0,6.0,563.3085409999694,7.0,1.0,phase_2,go,450.0,300.0,1.0,,,,,,,,,orange,hexagon
0.0,1.0,0.5,0.0,6.0,6.0,441.0509810004441,7.0,1.0,phase_2,go,450.0,300.0,1.0,,,,,,,,,white,triangle
0.0,4.0,4.0,0.0,5.0,5.0,312.8302109998913,7.0,1.0,phase_2,go,450.0,300.0,1.0,,,,,,,,,orange,hexagon
0.0,2.0,1.0,0.0,6.0,6.0,343.9749509998364,7.0,1.0,phase_2,go,450.0,300.0,1.0,,,,,,,,,blue,flipped triangle
0.0,8.0,4.0,1.0,6.0,6.0,656.1687389994404,7.0,1.0,phase_2,go,450.0,300.0,1.0,,,,,,,,,cyan,cross
0.0,8.0,4.0,1.0,6.0,0.0,0.0,7.0,1.0,phase_2,stop,450.0,300.0,4.0,,,,,,,,,cyan,cross
0.0,8.0,4.0,1.0,6.0,6.0,531.7980760000864,7.0,1.0,phase_2,stop,450.0,350.0,3.0,,,,,,,,,cyan,cross
0.0,3.0,2.0,0.0,5.0,5.0,478.25440999986307,7.0,1.0,phase_2,go,450.0,300.0,1.0,,,,,,,,,magenta,circle
0.0,5.0,0.5,1.0,6.0,0.0,0.0,7.0,1.0,phase_2,stop,450.0,300.0,4.0,,,,,,,,,green,I
0.0,3.0,2.0,0.0,5.0,5.0,443.913412999791,7.0,1.0,phase_2,go,450.0,350.0,1.0,,,,,,,,,magenta,circle
0.0,7.0,2.0,1.0,6.0,0.0,0.0,7.0,1.0,phase_2,stop,450.0,350.0,4.0,,,,,,,,,yellow,square
0.0,3.0,2.0,0.0,6.0,6.0,636.4249240004938,7.0,1.0,phase_2,go,450.0,400.0,1.0,,,,,,,,,magenta,circle
0.0,2.0,1.0,0.0,6.0,6.0,457.5547710001046,7.0,1.0,phase_2,go,450.0,400.0,1.0,,,,,,,,,blue,flipped triangle
0.0,3.0,2.0,0.0,6.0,6.0,393.3111219994316,7.0,1.0,phase_2,go,450.0,400.0,1.0,,,,,,,,,magenta,circle
0.0,4.0,4.0,0.0,5.0,5.0,561.9746290003604,7.0,1.0,phase_2,go,450.0,400.0,1.0,,,,,,,,,orange,hexagon
0.0,3.0,2.0,0.0,5.0,5.0,447.9020579992721,7.0,1.0,phase_2,go,450.0,400.0,1.0,,,,,,,,,magenta,circle
0.0,8.0,4.0,1.0,6.0,6.0,467.9809050003314,7.0,1.0,phase_2,stop,450.0,400.0,3.0,,,,,,,,,cyan,cross
0.0,4.0,4.0,0.0,5.0,5.0,500.5968360001134,7.0,1.0,phase_2,go,450.0,350.0,1.0,,,,,,,,,orange,hexagon
0.0,2.0,1.0,0.0,5.0,5.0,588.1311499997537,7.0,1.0,phase_2,go,450.0,350.0,1.0,,,,,,,,,blue,flipped triangle
0.0,4.0,4.0,0.0,5.0,5.0,647.148730000481,7.0,1.0,phase_2,go,450.0,350.0,1.0,,,,,,,,,orange,hexagon
0.0,6.0,1.0,1.0,6.0,6.0,333.4282279993203,7.0,1.0,phase_2,stop,450.0,350.0,3.0,,,,,,,,,gray,diamond
0.0,7.0,2.0,1.0,6.0,0.0,0.0,7.0,1.0,phase_2,stop,450.0,300.0,4.0,,,,,,,,,yellow,square
0.0,8.0,4.0,1.0,5.0,5.0,505.4635509995933,7.0,1.0,phase_2,go,450.0,350.0,1.0,,,,,,,,,cyan,cross
0.0,2.0,1.0,0.0,6.0,6.0,665.0005359997522,7.0,1.0,phase_2,go,450.0,350.0,1.0,,,,,,,,,blue,flipped triangle
0.0,5.0,0.5,1.0,6.0,6.0,385.8231220001471,7.0,1.0,phase_2,stop,450.0,350.0,3.0,,,,,,,,,green,I
0.0,2.0,1.0,0.0,5.0,5.0,440.9740680002869,7.0,1.0,phase_2,go,450.0,300.0,1.0,,,,,,,,,blue,flipped triangle
0.0,2.0,1.0,0.0,5.0,5.0,392.8351119993749,7.0,1.0,phase_2,go,450.0,300.0,1.0,,,,,,,,,blue,flipped triangle
0.0,4.0,4.0,0.0,6.0,6.0,438.5637259993018,7.0,1.0,phase_2,go,450.0,300.0,1.0,,,,,,,,,orange,hexagon
0.0,5.0,0.5,1.0,5.0,5.0,373.8908949999313,7.0,1.0,phase_2,go,450.0,300.0,1.0,,,,,,,,,green,I
0.0,1.0,0.5,0.0,6.0,6.0,306.3314840001112,7.0,1.0,phase_2,go,450.0,300.0,1.0,,,,,,,,,white,triangle
0.0,8.0,4.0,1.0,5.0,5.0,433.209374999933,8.0,1.0,phase_2,stop,450.0,300.0,3.0,,,,,,,,,cyan,cross
0.0,6.0,1.0,1.0,6.0,6.0,629.2343429995526,8.0,1.0,phase_2,go,400.0,300.0,1.0,,,,,,,,,gray,diamond
0.0,4.0,4.0,0.0,6.0,6.0,592.9747170002884,8.0,1.0,phase_2,go,400.0,300.0,1.0,,,,,,,,,orange,hexagon
0.0,8.0,4.0,1.0,5.0,5.0,451.0559250002188,8.0,1.0,phase_2,stop,400.0,300.0,3.0,,,,,,,,,cyan,cross
0.0,7.0,2.0,1.0,5.0,0.0,0.0,8.0,1.0,phase_2,stop,350.0,300.0,4.0,,,,,,,,,yellow,square
0.0,1.0,0.5,0.0,6.0,6.0,365.0504629995339,8.0,1.0,phase_2,go,400.0,300.0,1.0,,,,,,,,,white,triangle
0.0,7.0,2.0,1.0,5.0,0.0,0.0,8.0,1.0,phase_2,stop,400.0,300.0,4.0,,,,,,,,,yellow,square
0.0,6.0,1.0,1.0,5.0,5.0,617.250199999944,8.0,1.0,phase_2,go,450.0,300.0,1.0,,,,,,,,,gray,diamond
0.0,1.0,0.5,0.0,5.0,5.0,549.1368799994234,8.0,1.0,phase_2,go,450.0,300.0,1.0,,,,,,,,,white,triangle
0.0,7.0,2.0,1.0,6.0,0.0,0.0,8.0,1.0,phase_2,stop,450.0,300.0,4.0,,,,,,,,,yellow,square
0.0,6.0,1.0,1.0,6.0,6.0,654.1683140003443,8.0,1.0,phase_2,go,450.0,350.0,1.0,,,,,,,,,gray,diamond
0.0,7.0,2.0,1.0,5.0,5.0,814.9481529999321,8.0,1.0,phase_2,go,450.0,350.0,1.0,,,,,,,,,yellow,square
0.0,7.0,2.0,1.0,5.0,0.0,0.0,8.0,1.0,phase_2,stop,450.0,350.0,4.0,,,,,,,,,yellow,square
0.0,7.0,2.0,1.0,5.0,5.0,602.294190000066,8.0,1.0,phase_2,go,500.0,350.0,1.0,,,,,,,,,yellow,square
0.0,6.0,1.0,1.0,6.0,0.0,0.0,8.0,1.0,phase_2,stop,500.0,350.0,4.0,,,,,,,,,gray,diamond
0.0,1.0,0.5,0.0,5.0,5.0,461.6244429998914,8.0,1.0,phase_2,go,500.0,400.0,1.0,,,,,,,,,white,triangle
0.0,7.0,2.0,1.0,6.0,0.0,0.0,8.0,1.0,phase_2,stop,500.0,400.0,4.0,,,,,,,,,yellow,square
0.0,5.0,0.5,1.0,6.0,0.0,0.0,8.0,1.0,phase_2,stop,500.0,450.0,4.0,,,,,,,,,green,I
0.0,2.0,1.0,0.0,5.0,5.0,543.2843999997203,8.0,1.0,phase_2,go,500.0,500.0,1.0,,,,,,,,,blue,flipped triangle
0.0,5.0,0.5,1.0,6.0,6.0,722.5035139999818,8.0,1.0,phase_2,go,500.0,500.0,1.0,,,,,,,,,green,I
0.0,3.0,2.0,0.0,6.0,6.0,622.9546889999256,8.0,1.0,phase_2,go,500.0,500.0,1.0,,,,,,,,,magenta,circle
0.0,1.0,0.5,0.0,5.0,5.0,452.6621290006005,8.0,1.0,phase_2,go,500.0,500.0,1.0,,,,,,,,,white,triangle
0.0,2.0,1.0,0.0,6.0,6.0,456.8449449998297,8.0,1.0,phase_2,go,500.0,500.0,1.0,,,,,,,,,blue,flipped triangle
0.0,4.0,4.0,0.0,5.0,5.0,334.1495439999562,8.0,1.0,phase_2,go,500.0,500.0,1.0,,,,,,,,,orange,hexagon
0.0,8.0,4.0,1.0,6.0,6.0,462.8441200002271,8.0,1.0,phase_2,stop,500.0,500.0,3.0,,,,,,,,,cyan,cross
0.0,1.0,0.5,0.0,6.0,6.0,588.5740919993623,8.0,1.0,phase_2,go,500.0,450.0,1.0,,,,,,,,,white,triangle
0.0,8.0,4.0,1.0,5.0,5.0,695.4275269999926,8.0,1.0,phase_2,stop,500.0,450.0,3.0,,,,,,,,,cyan,cross
0.0,3.0,2.0,0.0,5.0,5.0,614.9718649994611,8.0,1.0,phase_2,go,450.0,450.0,1.0,,,,,,,,,magenta,circle
0.0,7.0,2.0,1.0,5.0,0.0,0.0,8.0,1.0,phase_2,stop,450.0,450.0,4.0,,,,,,,,,yellow,square
0.0,3.0,2.0,0.0,5.0,5.0,597.6459650000834,8.0,1.0,phase_2,go,500.0,450.0,1.0,,,,,,,,,magenta,circle
0.0,3.0,2.0,0.0,6.0,6.0,404.5954379998875,8.0,1.0,phase_2,go,500.0,450.0,1.0,,,,,,,,,magenta,circle
0.0,4.0,4.0,0.0,6.0,6.0,377.4634579995108,8.0,1.0,phase_2,go,500.0,450.0,1.0,,,,,,,,,orange,hexagon
0.0,6.0,1.0,1.0,5.0,0.0,0.0,8.0,1.0,phase_2,stop,500.0,450.0,4.0,,,,,,,,,gray,diamond
0.0,1.0,0.5,0.0,6.0,6.0,590.9240340006363,8.0,1.0,phase_2,go,550.0,450.0,1.0,,,,,,,,,white,triangle
0.0,8.0,4.0,1.0,5.0,5.0,384.1112310001335,8.0,1.0,phase_2,stop,550.0,450.0,3.0,,,,,,,,,cyan,cross
0.0,5.0,0.5,1.0,5.0,0.0,0.0,8.0,1.0,phase_2,stop,500.0,450.0,4.0,,,,,,,,,green,I
0.0,1.0,0.5,0.0,7.0,3.0,2558.1038000000262,1.0,1.0,phase_3,,,,,170.0,5.0,204.0,68.0,170.0,136.0,34.0,102.0,white,triangle
0.0,4.0,4.0,0.0,7.0,1.0,3711.794931000441,1.0,1.0,phase_3,,,,,216.0,4.0,216.0,270.0,162.0,324.0,54.0,108.0,orange,hexagon
0.0,2.0,1.0,0.0,7.0,4.0,1896.196972000325,1.0,1.0,phase_3,,,,,49.0,1.0,147.0,294.0,98.0,49.0,196.0,245.0,blue,flipped triangle
0.0,1.0,0.5,0.0,7.0,5.0,2353.5797229997115,1.0,1.0,phase_3,,,,,108.0,2.0,324.0,216.0,270.0,162.0,108.0,54.0,white,triangle
0.0,4.0,4.0,0.0,7.0,1.0,2853.835089999848,1.0,1.0,phase_3,,,,,170.0,5.0,170.0,68.0,34.0,136.0,204.0,102.0,orange,hexagon
0.0,1.0,0.5,0.0,7.0,2.0,1800.2190569995946,1.0,1.0,phase_3,,,,,147.0,3.0,196.0,147.0,98.0,245.0,294.0,49.0,white,triangle
0.0,6.0,1.0,1.0,7.0,3.0,2008.2788310000979,1.0,1.0,phase_3,,,,,234.0,6.0,156.0,78.0,234.0,195.0,39.0,117.0,gray,diamond
0.0,2.0,1.0,0.0,7.0,5.0,1588.8520750004318,1.0,1.0,phase_3,,,,,68.0,2.0,136.0,204.0,170.0,102.0,68.0,34.0,blue,flipped triangle
0.0,1.0,0.5,0.0,7.0,4.0,2194.795260000319,1.0,1.0,phase_3,,,,,39.0,1.0,78.0,234.0,156.0,39.0,117.0,195.0,white,triangle
0.0,8.0,4.0,1.0,7.0,5.0,1630.4931849999775,1.0,1.0,phase_3,,,,,270.0,5.0,108.0,162.0,216.0,324.0,270.0,54.0,cyan,cross
0.0,8.0,4.0,1.0,7.0,3.0,3744.948151999779,1.0,1.0,phase_3,,,,,162.0,3.0,270.0,324.0,162.0,216.0,108.0,54.0,cyan,cross
0.0,6.0,1.0,1.0,7.0,6.0,1611.5547750005137,1.0,1.0,phase_3,,,,,102.0,3.0,136.0,68.0,204.0,34.0,170.0,102.0,gray,diamond
0.0,4.0,4.0,0.0,7.0,2.0,2320.8203849999336,1.0,1.0,phase_3,,,,,196.0,4.0,98.0,196.0,245.0,147.0,49.0,294.0,orange,hexagon
0.0,4.0,4.0,0.0,7.0,3.0,3109.196216999408,1.0,1.0,phase_3,,,,,170.0,5.0,136.0,204.0,170.0,34.0,68.0,102.0,orange,hexagon
0.0,5.0,0.5,1.0,7.0,3.0,1609.7581329995592,1.0,1.0,phase_3,,,,,264.0,6.0,176.0,44.0,264.0,132.0,220.0,88.0,green,I
0.0,7.0,2.0,1.0,7.0,6.0,2359.2691470003047,1.0,1.0,phase_3,,,,,117.0,3.0,156.0,78.0,39.0,234.0,195.0,117.0,yellow,square
0.0,5.0,0.5,1.0,7.0,2.0,1823.746299999584,1.0,1.0,phase_3,,,,,162.0,3.0,54.0,162.0,324.0,270.0,216.0,108.0,green,I
0.0,2.0,1.0,0.0,7.0,6.0,2257.830692000425,1.0,1.0,phase_3,,,,,162.0,3.0,108.0,216.0,270.0,54.0,324.0,162.0,blue,flipped triangle
0.0,8.0,4.0,1.0,7.0,4.0,1565.7689789995857,1.0,1.0,phase_3,,,,,234.0,6.0,195.0,117.0,156.0,234.0,78.0,39.0,cyan,cross
0.0,4.0,4.0,0.0,7.0,1.0,2225.119792000441,1.0,1.0,phase_3,,,,,220.0,5.0,220.0,176.0,88.0,264.0,44.0,132.0,orange,hexagon
0.0,2.0,1.0,0.0,7.0,5.0,2147.3956969994106,2.0,1.0,phase_3,,,,,204.0,6.0,136.0,102.0,170.0,68.0,204.0,34.0,blue,flipped triangle
0.0,5.0,0.5,1.0,7.0,5.0,1376.3490710007318,2.0,1.0,phase_3,,,,,34.0,1.0,204.0,170.0,136.0,102.0,34.0,68.0,green,I
0.0,6.0,1.0,1.0,7.0,1.0,2514.2960299999686,2.0,1.0,phase_3,,,,,264.0,6.0,264.0,132.0,176.0,220.0,44.0,88.0,gray,diamond
0.0,7.0,2.0,1.0,7.0,3.0,2710.346931999993,2.0,1.0,phase_3,,,,,216.0,4.0,270.0,162.0,216.0,108.0,324.0,54.0,yellow,square
0.0,1.0,0.5,0.0,7.0,5.0,1265.9432499995091,2.0,1.0,phase_3,,,,,88.0,2.0,44.0,264.0,220.0,132.0,88.0,176.0,white,triangle
0.0,2.0,1.0,0.0,7.0,4.0,1738.1787290005375,2.0,1.0,phase_3,,,,,176.0,4.0,88.0,220.0,264.0,176.0,132.0,44.0,blue,flipped triangle
0.0,7.0,2.0,1.0,7.0,6.0,1404.9684440005876,2.0,1.0,phase_3,,,,,147.0,3.0,98.0,49.0,245.0,294.0,196.0,147.0,yellow,square
0.0,1.0,0.5,0.0,7.0,2.0,1229.3501369995283,2.0,1.0,phase_3,,,,,68.0,2.0,102.0,68.0,204.0,136.0,34.0,170.0,white,triangle
0.0,6.0,1.0,1.0,7.0,1.0,1090.160549999382,2.0,1.0,phase_3,,,,,270.0,5.0,270.0,162.0,216.0,54.0,108.0,324.0,gray,diamond
0.0,7.0,2.0,1.0,7.0,4.0,2061.931645000186,2.0,1.0,phase_3,,,,,147.0,3.0,49.0,98.0,294.0,147.0,196.0,245.0,yellow,square
0.0,3.0,2.0,0.0,7.0,3.0,1295.0043539995022,2.0,1.0,phase_3,,,,,324.0,6.0,270.0,162.0,324.0,54.0,108.0,216.0,magenta,circle
0.0,4.0,4.0,0.0,7.0,6.0,1326.2434890002623,2.0,1.0,phase_3,,,,,156.0,4.0,117.0,39.0,234.0,78.0,195.0,156.0,orange,hexagon
0.0,6.0,1.0,1.0,7.0,5.0,1474.7698580003998,2.0,1.0,phase_3,,,,,54.0,1.0,324.0,162.0,108.0,270.0,54.0,216.0,gray,diamond
0.0,7.0,2.0,1.0,7.0,1.0,1438.06546200085,2.0,1.0,phase_3,,,,,78.0,2.0,78.0,234.0,156.0,39.0,195.0,117.0,yellow,square
0.0,2.0,1.0,0.0,7.0,4.0,2153.844174999904,2.0,1.0,phase_3,,,,,234.0,6.0,78.0,117.0,156.0,234.0,195.0,39.0,blue,flipped triangle
0.0,3.0,2.0,0.0,7.0,3.0,2388.4660080002504,2.0,1.0,phase_3,,,,,102.0,3.0,34.0,170.0,102.0,204.0,68.0,136.0,magenta,circle
0.0,4.0,4.0,0.0,7.0,1.0,1162.7786910003124,2.0,1.0,phase_3,,,,,78.0,2.0,78.0,156.0,234.0,117.0,39.0,195.0,orange,hexagon
0.0,5.0,0.5,1.0,7.0,4.0,1129.3978050007354,2.0,1.0,phase_3,,,,,78.0,2.0,39.0,195.0,117.0,78.0,156.0,234.0,green,I
0.0,6.0,1.0,1.0,7.0,4.0,1884.1129949996684,2.0,1.0,phase_3,,,,,234.0,6.0,117.0,156.0,39.0,234.0,195.0,78.0,gray,diamond
0.0,7.0,2.0,1.0,7.0,2.0,2166.033728000002,2.0,1.0,phase_3,,,,,170.0,5.0,34.0,170.0,68.0,102.0,136.0,204.0,yellow,square
0.0,4.0,4.0,0.0,7.0,5.0,1606.1569719995532,3.0,1.0,phase_3,,,,,176.0,4.0,264.0,44.0,132.0,220.0,176.0,88.0,orange,hexagon
0.0,7.0,2.0,1.0,7.0,1.0,1158.275073000368,3.0,1.0,phase_3,,,,,264.0,6.0,264.0,44.0,176.0,132.0,88.0,220.0,yellow,square
0.0,5.0,0.5,1.0,7.0,2.0,1862.413784999262,3.0,1.0,phase_3,,,,,162.0,3.0,324.0,162.0,270.0,216.0,108.0,54.0,green,I
0.0,3.0,2.0,0.0,7.0,5.0,2863.927751999654,3.0,1.0,phase_3,,,,,117.0,3.0,39.0,234.0,156.0,78.0,117.0,195.0,magenta,circle
0.0,3.0,2.0,0.0,7.0,2.0,2923.15362699992,3.0,1.0,phase_3,,,,,216.0,4.0,54.0,216.0,162.0,270.0,108.0,324.0,magenta,circle
0.0,7.0,2.0,1.0,7.0,3.0,1717.8965190005329,3.0,1.0,phase_3,,,,,68.0,2.0,170.0,136.0,68.0,34.0,102.0,204.0,yellow,square
0.0,3.0,2.0,0.0,7.0,4.0,1634.182965999571,3.0,1.0,phase_3,,,,,156.0,4.0,78.0,39.0,117.0,156.0,234.0,195.0,magenta,circle
0.0,6.0,1.0,1.0,7.0,5.0,1464.36605999952,3.0,1.0,phase_3,,,,,34.0,1.0,102.0,136.0,170.0,204.0,34.0,68.0,gray,diamond
0.0,8.0,4.0,1.0,7.0,3.0,1546.712736999325,3.0,1.0,phase_3,,,,,294.0,6.0,98.0,196.0,294.0,245.0,147.0,49.0,cyan,cross
0.0,5.0,0.5,1.0,7.0,5.0,1804.2612439994627,3.0,1.0,phase_3,,,,,147.0,3.0,49.0,294.0,245.0,98.0,147.0,196.0,green,I
0.0,3.0,2.0,0.0,7.0,1.0,1299.6641059999092,3.0,1.0,phase_3,,,,,196.0,4.0,196.0,98.0,49.0,294.0,245.0,147.0,magenta,circle
0.0,5.0,0.5,1.0,7.0,4.0,1373.2623380001314,3.0,1.0,phase_3,,,,,170.0,5.0,136.0,68.0,34.0,170.0,204.0,102.0,green,I
0.0,5.0,0.5,1.0,7.0,3.0,1259.2260169994915,3.0,1.0,phase_3,,,,,195.0,5.0,78.0,234.0,195.0,156.0,39.0,117.0,green,I
0.0,8.0,4.0,1.0,7.0,6.0,2480.601358000058,3.0,1.0,phase_3,,,,,264.0,6.0,132.0,220.0,44.0,88.0,176.0,264.0,cyan,cross
0.0,8.0,4.0,1.0,7.0,6.0,1743.8804499997786,3.0,1.0,phase_3,,,,,264.0,6.0,176.0,44.0,88.0,132.0,220.0,264.0,cyan,cross
0.0,3.0,2.0,0.0,7.0,2.0,1685.8831509998708,3.0,1.0,phase_3,,,,,176.0,4.0,44.0,176.0,220.0,88.0,132.0,264.0,magenta,circle
0.0,5.0,0.5,1.0,7.0,5.0,1603.8462380001874,3.0,1.0,phase_3,,,,,49.0,1.0,196.0,147.0,98.0,245.0,49.0,294.0,green,I
0.0,1.0,0.5,0.0,7.0,1.0,2163.361538000572,3.0,1.0,phase_3,,,,,54.0,1.0,54.0,324.0,270.0,162.0,108.0,216.0,white,triangle
0.0,8.0,4.0,1.0,7.0,2.0,2122.6329719993373,3.0,1.0,phase_3,,,,,204.0,6.0,102.0,204.0,136.0,170.0,68.0,34.0,cyan,cross
0.0,6.0,1.0,1.0,7.0,5.0,2304.3261900002108,3.0,1.0,phase_3,,,,,196.0,4.0,245.0,49.0,98.0,147.0,196.0,294.0,gray,diamond
0.0,7.0,2.0,1.0,7.0,4.0,969.5862930002476,4.0,1.0,phase_3,,,,,44.0,1.0,220.0,176.0,88.0,44.0,132.0,264.0,yellow,square
0.0,2.0,1.0,0.0,7.0,2.0,1630.1919409997936,4.0,1.0,phase_3,,,,,216.0,4.0,54.0,216.0,108.0,270.0,324.0,162.0,blue,flipped triangle
0.0,1.0,0.5,0.0,7.0,3.0,647.0118699999148,4.0,1.0,phase_3,,,,,147.0,3.0,294.0,245.0,147.0,49.0,98.0,196.0,white,triangle
0.0,8.0,4.0,1.0,7.0,4.0,1679.5189670001491,4.0,1.0,phase_3,,,,,102.0,3.0,204.0,34.0,68.0,102.0,136.0,170.0,cyan,cross
0.0,2.0,1.0,0.0,7.0,3.0,1584.3778049993489,4.0,1.0,phase_3,,,,,88.0,2.0,220.0,264.0,88.0,132.0,176.0,44.0,blue,flipped triangle
0.0,3.0,2.0,0.0,7.0,4.0,2293.798565000543,4.0,1.0,phase_3,,,,,264.0,6.0,132.0,88.0,44.0,264.0,220.0,176.0,magenta,circle
0.0,7.0,2.0,1.0,7.0,6.0,2218.939044000763,4.0,1.0,phase_3,,,,,54.0,1.0,108.0,216.0,324.0,270.0,162.0,54.0,yellow,square
0.0,1.0,0.5,0.0,7.0,2.0,1576.0604179995426,4.0,1.0,phase_3,,,,,39.0,1.0,117.0,39.0,156.0,195.0,234.0,78.0,white,triangle
0.0,2.0,1.0,0.0,7.0,4.0,1730.4977950007014,4.0,1.0,phase_3,,,,,234.0,6.0,156.0,117.0,195.0,234.0,39.0,78.0,blue,flipped triangle
0.0,1.0,0.5,0.0,7.0,5.0,1869.0563410000325,4.0,1.0,phase_3,,,,,44.0,1.0,176.0,88.0,220.0,264.0,44.0,132.0,white,triangle
0.0,6.0,1.0,1.0,7.0,1.0,1586.993978999999,4.0,1.0,phase_3,,,,,44.0,1.0,44.0,132.0,264.0,176.0,88.0,220.0,gray,diamond
0.0,4.0,4.0,0.0,7.0,4.0,1812.676463000571,4.0,1.0,phase_3,,,,,162.0,3.0,216.0,108.0,54.0,162.0,270.0,324.0,orange,hexagon
0.0,6.0,1.0,1.0,7.0,4.0,2771.616336000079,4.0,1.0,phase_3,,,,,98.0,2.0,294.0,49.0,196.0,98.0,147.0,245.0,gray,diamond
0.0,3.0,2.0,0.0,7.0,3.0,1642.1774380005445,4.0,1.0,phase_3,,,,,204.0,6.0,136.0,34.0,204.0,68.0,170.0,102.0,magenta,circle
0.0,8.0,4.0,1.0,7.0,4.0,2250.160433999554,4.0,1.0,phase_3,,,,,117.0,3.0,39.0,78.0,195.0,117.0,234.0,156.0,cyan,cross
0.0,5.0,0.5,1.0,7.0,2.0,1787.2413050008618,4.0,1.0,phase_3,,,,,176.0,4.0,44.0,176.0,132.0,88.0,264.0,220.0,green,I
0.0,2.0,1.0,0.0,7.0,1.0,1631.9061949998286,4.0,1.0,phase_3,,,,,147.0,3.0,147.0,245.0,98.0,49.0,294.0,196.0,blue,flipped triangle
0.0,8.0,4.0,1.0,7.0,5.0,2124.2145469996103,4.0,1.0,phase_3,,,,,98.0,2.0,196.0,245.0,147.0,294.0,98.0,49.0,cyan,cross
0.0,4.0,4.0,0.0,7.0,1.0,2143.8239070002965,4.0,1.0,phase_3,,,,,294.0,6.0,294.0,49.0,196.0,147.0,98.0,245.0,orange,hexagon
0.0,3.0,2.0,0.0,7.0,4.0,3339.208855999459,4.0,1.0,phase_3,,,,,147.0,3.0,294.0,245.0,196.0,147.0,49.0,98.0,magenta,circle
