raw_reward_magnitude,stim_reward,stepwise_reward_magnitude,paired_with_stopping,stim_location,response,reaction_time,block,num_trial_presentations,which_phase,stop_signal_trial_type,left_SSD,right_SSD,accuracy,chosen_bidding_amount,chosen_bidding_level,possible_bid_1,possible_bid_2,possible_bid_3,possible_bid_4,possible_bid_5,possible_bid_6,color_text,shape_text
108.0,6.0,2.0,1.0,1.0,1.0,518.6728329999823,1.0,1.0,phase_1,,,,,,,,,,,,,blue,circle
0.0,5.0,0.0,1.0,4.0,4.0,361.9844519998878,1.0,1.0,phase_1,,,,,,,,,,,,,green,I
73.0,1.0,1.0,0.0,1.0,1.0,345.8403270001327,1.0,1.0,phase_1,,,,,,,,,,,,,cyan,square
0.0,4.0,0.0,0.0,3.0,3.0,377.6993120000043,1.0,1.0,phase_1,,,,,,,,,,,,,magenta,diamond
86.0,6.0,2.0,1.0,3.0,3.0,334.3249730000934,1.0,1.0,phase_1,,,,,,,,,,,,,blue,circle
402.0,8.0,4.0,1.0,2.0,2.0,340.6403979997776,1.0,1.0,phase_1,,,,,,,,,,,,,orange,flipped triangle
124.0,2.0,2.0,0.0,2.0,2.0,345.5066679998708,1.0,1.0,phase_1,,,,,,,,,,,,,gray,cross
417.0,8.0,4.0,1.0,3.0,3.0,329.9889390000317,1.0,1.0,phase_1,,,,,,,,,,,,,orange,flipped triangle
0.0,6.0,0.0,1.0,3.0,3.0,307.7907020001476,1.0,1.0,phase_1,,,,,,,,,,,,,blue,circle
101.0,2.0,2.0,0.0,2.0,2.0,370.4519309999341,1.0,2.0,phase_1,,,,,,,,,,,,,gray,cross
0.0,1.0,0.0,0.0,3.0,3.0,331.5961839998635,1.0,1.0,phase_1,,,,,,,,,,,,,cyan,square
0.0,8.0,0.0,1.0,3.0,3.0,343.5878629998115,1.0,1.0,phase_1,,,,,,,,,,,,,orange,flipped triangle
208.0,3.0,3.0,0.0,1.0,1.0,366.1468710001827,1.0,1.0,phase_1,,,,,,,,,,,,,white,triangle
83.0,2.0,2.0,0.0,3.0,3.0,281.6016890001265,1.0,1.0,phase_1,,,,,,,,,,,,,gray,cross
196.0,7.0,3.0,1.0,2.0,2.0,323.7996439997914,1.0,1.0,phase_1,,,,,,,,,,,,,yellow,hexagon
35.0,5.0,1.0,1.0,4.0,4.0,400.8493440001075,1.0,1.0,phase_1,,,,,,,,,,,,,green,I
0.0,6.0,0.0,1.0,4.0,4.0,409.24003300006,1.0,1.0,phase_1,,,,,,,,,,,,,blue,circle
0.0,2.0,0.0,0.0,3.0,3.0,357.8631230002429,1.0,1.0,phase_1,,,,,,,,,,,,,gray,cross
72.0,1.0,1.0,0.0,3.0,3.0,323.8356039996688,1.0,1.0,phase_1,,,,,,,,,,,,,cyan,square
194.0,3.0,3.0,0.0,4.0,4.0,361.8734650003716,1.0,1.0,phase_1,,,,,,,,,,,,,white,triangle
118.0,6.0,2.0,1.0,1.0,1.0,303.6010829996485,1.0,1.0,phase_1,,,,,,,,,,,,,blue,circle
0.0,2.0,0.0,0.0,2.0,2.0,301.7382009998073,1.0,1.0,phase_1,,,,,,,,,,,,,gray,cross
0.0,8.0,0.0,1.0,1.0,1.0,330.3574700003082,1.0,1.0,phase_1,,,,,,,,,,,,,orange,flipped triangle
395.0,8.0,4.0,1.0,1.0,1.0,315.122237000196,1.0,1.0,phase_1,,,,,,,,,,,,,orange,flipped triangle
40.0,5.0,1.0,1.0,2.0,2.0,316.9321320001472,1.0,1.0,phase_1,,,,,,,,,,,,,green,I
0.0,4.0,0.0,0.0,3.0,3.0,308.4976299996924,1.0,1.0,phase_1,,,,,,,,,,,,,magenta,diamond
378.0,4.0,4.0,0.0,2.0,2.0,357.4235749997569,1.0,1.0,phase_1,,,,,,,,,,,,,magenta,diamond
0.0,1.0,0.0,0.0,4.0,4.0,351.3275109999085,1.0,1.0,phase_1,,,,,,,,,,,,,cyan,square
0.0,5.0,0.0,1.0,4.0,4.0,396.1239570003272,1.0,1.0,phase_1,,,,,,,,,,,,,green,I
84.0,6.0,2.0,1.0,1.0,1.0,341.6650789999949,1.0,1.0,phase_1,,,,,,,,,,,,,blue,circle
107.0,2.0,2.0,0.0,4.0,4.0,343.2510539996656,1.0,1.0,phase_1,,,,,,,,,,,,,gray,cross
118.0,2.0,2.0,0.0,3.0,3.0,330.8909190000122,1.0,1.0,phase_1,,,,,,,,,,,,,gray,cross
193.0,3.0,3.0,0.0,3.0,3.0,371.9025699997473,1.0,1.0,phase_1,,,,,,,,,,,,,white,triangle
421.0,8.0,4.0,1.0,3.0,3.0,414.3185699999776,1.0,1.0,phase_1,,,,,,,,,,,,,orange,flipped triangle
221.0,7.0,3.0,1.0,3.0,3.0,333.3853919998546,1.0,1.0,phase_1,,,,,,,,,,,,,yellow,hexagon
53.0,1.0,1.0,0.0,1.0,1.0,302.6067839996358,1.0,1.0,phase_1,,,,,,,,,,,,,cyan,square
0.0,7.0,0.0,1.0,3.0,3.0,326.7308259996753,1.0,1.0,phase_1,,,,,,,,,,,,,yellow,hexagon
77.0,6.0,2.0,1.0,1.0,1.0,288.353391000328,1.0,1.0,phase_1,,,,,,,,,,,,,blue,circle
124.0,2.0,2.0,0.0,3.0,3.0,277.9271589997734,1.0,1.0,phase_1,,,,,,,,,,,,,gray,cross
75.0,5.0,1.0,1.0,2.0,2.0,316.3235699998949,1.0,1.0,phase_1,,,,,,,,,,,,,green,I
380.0,8.0,4.0,1.0,3.0,3.0,320.4393289997824,1.0,1.0,phase_1,,,,,,,,,,,,,orange,flipped triangle
185.0,7.0,3.0,1.0,2.0,2.0,263.196545000028,1.0,1.0,phase_1,,,,,,,,,,,,,yellow,hexagon
400.0,8.0,4.0,1.0,2.0,2.0,294.6347139995851,1.0,1.0,phase_1,,,,,,,,,,,,,orange,flipped triangle
35.0,5.0,1.0,1.0,4.0,4.0,331.6761529999894,1.0,1.0,phase_1,,,,,,,,,,,,,green,I
387.0,8.0,4.0,1.0,1.0,1.0,302.7083460001449,1.0,1.0,phase_1,,,,,,,,,,,,,orange,flipped triangle
0.0,8.0,0.0,1.0,4.0,4.0,302.3900279999907,1.0,1.0,phase_1,,,,,,,,,,,,,orange,flipped triangle
376.0,4.0,4.0,0.0,3.0,3.0,367.3523950001254,1.0,1.0,phase_1,,,,,,,,,,,,,magenta,diamond
0.0,8.0,0.0,1.0,4.0,4.0,323.5250660000019,1.0,1.0,phase_1,,,,,,,,,,,,,orange,flipped triangle
207.0,3.0,3.0,0.0,1.0,1.0,311.7260230001193,1.0,1.0,phase_1,,,,,,,,,,,,,white,triangle
395.0,8.0,4.0,1.0,4.0,4.0,338.5910179999882,1.0,1.0,phase_1,,,,,,,,,,,,,orange,flipped triangle
189.0,7.0,3.0,1.0,3.0,3.0,335.3951750000306,1.0,1.0,phase_1,,,,,,,,,,,,,yellow,hexagon
389.0,4.0,4.0,0.0,3.0,3.0,331.0786830002143,1.0,1.0,phase_1,,,,,,,,,,,,,magenta,diamond
86.0,2.0,2.0,0.0,4.0,4.0,331.3851289999547,1.0,1.0,phase_1,,,,,,,,,,,,,gray,cross
377.0,8.0,4.0,1.0,2.0,2.0,316.4605899996786,1.0,1.0,phase_1,,,,,,,,,,,,,orange,flipped triangle
55.0,5.0,1.0,1.0,2.0,2.0,340.05947000014197,1.0,1.0,phase_1,,,,,,,,,,,,,green,I
390.0,8.0,4.0,1.0,2.0,2.0,360.2222729996356,1.0,1.0,phase_1,,,,,,,,,,,,,orange,flipped triangle
0.0,7.0,0.0,1.0,2.0,2.0,327.8196619999107,1.0,1.0,phase_1,,,,,,,,,,,,,yellow,hexagon
74.0,5.0,1.0,1.0,3.0,3.0,646.2003099995854,1.0,1.0,phase_1,,,,,,,,,,,,,green,I
124.0,6.0,2.0,1.0,4.0,4.0,423.2234319997587,1.0,1.0,phase_1,,,,,,,,,,,,,blue,circle
423.0,8.0,4.0,1.0,4.0,4.0,821.0123399999247,1.0,1.0,phase_1,,,,,,,,,,,,,orange,flipped triangle
108.0,2.0,2.0,0.0,2.0,2.0,525.8369019998099,1.0,1.0,phase_1,,,,,,,,,,,,,gray,cross
26.0,1.0,1.0,0.0,3.0,3.0,325.0575910001316,1.0,1.0,phase_1,,,,,,,,,,,,,cyan,square
190.0,3.0,3.0,0.0,1.0,1.0,346.5254870002354,1.0,1.0,phase_1,,,,,,,,,,,,,white,triangle
400.0,4.0,4.0,0.0,4.0,4.0,326.6718610002499,1.0,1.0,phase_1,,,,,,,,,,,,,magenta,diamond
205.0,7.0,3.0,1.0,4.0,4.0,322.3682779998853,1.0,1.0,phase_1,,,,,,,,,,,,,yellow,hexagon
207.0,7.0,3.0,1.0,1.0,1.0,344.8527809996449,1.0,1.0,phase_1,,,,,,,,,,,,,yellow,hexagon
44.0,1.0,1.0,0.0,2.0,2.0,329.3947879997176,1.0,1.0,phase_1,,,,,,,,,,,,,cyan,square
99.0,2.0,2.0,0.0,4.0,4.0,360.5515700000978,1.0,1.0,phase_1,,,,,,,,,,,,,gray,cross
0.0,7.0,0.0,1.0,3.0,3.0,379.4067389999327,1.0,1.0,phase_1,,,,,,,,,,,,,yellow,hexagon
124.0,6.0,2.0,1.0,1.0,1.0,310.7900149998386,1.0,1.0,phase_1,,,,,,,,,,,,,blue,circle
406.0,4.0,4.0,0.0,2.0,2.0,492.5520080000751,1.0,1.0,phase_1,,,,,,,,,,,,,magenta,diamond
0.0,5.0,0.0,1.0,3.0,3.0,407.5643959999979,1.0,1.0,phase_1,,,,,,,,,,,,,green,I
27.0,5.0,1.0,1.0,2.0,2.0,381.7327540000406,1.0,1.0,phase_1,,,,,,,,,,,,,green,I
0.0,8.0,0.0,1.0,3.0,3.0,386.1834669996824,1.0,1.0,phase_1,,,,,,,,,,,,,orange,flipped triangle
0.0,7.0,0.0,1.0,1.0,1.0,301.6304739999214,1.0,1.0,phase_1,,,,,,,,,,,,,yellow,hexagon
118.0,6.0,2.0,1.0,3.0,3.0,388.4907139999995,1.0,1.0,phase_1,,,,,,,,,,,,,blue,circle
177.0,3.0,3.0,0.0,3.0,3.0,336.3099849998434,1.0,1.0,phase_1,,,,,,,,,,,,,white,triangle
102.0,2.0,2.0,0.0,1.0,1.0,340.3270909998355,1.0,1.0,phase_1,,,,,,,,,,,,,gray,cross
215.0,7.0,3.0,1.0,4.0,4.0,359.5549749998099,1.0,1.0,phase_1,,,,,,,,,,,,,yellow,hexagon
118.0,6.0,2.0,1.0,2.0,2.0,326.6366009997909,1.0,1.0,phase_1,,,,,,,,,,,,,blue,circle
221.0,3.0,3.0,0.0,3.0,3.0,419.362996000018,1.0,1.0,phase_1,,,,,,,,,,,,,white,triangle
202.0,3.0,3.0,0.0,3.0,3.0,488.5837169999831,1.0,1.0,phase_1,,,,,,,,,,,,,white,triangle
414.0,4.0,4.0,0.0,4.0,4.0,364.2956769999728,1.0,1.0,phase_1,,,,,,,,,,,,,magenta,diamond
32.0,1.0,1.0,0.0,2.0,2.0,379.0743429999565,1.0,1.0,phase_1,,,,,,,,,,,,,cyan,square
0.0,4.0,0.0,0.0,1.0,1.0,365.7871129998966,1.0,1.0,phase_1,,,,,,,,,,,,,magenta,diamond
0.0,5.0,0.0,1.0,1.0,1.0,328.4470759999749,1.0,1.0,phase_1,,,,,,,,,,,,,green,I
0.0,1.0,0.0,0.0,2.0,2.0,373.7609739996514,1.0,1.0,phase_1,,,,,,,,,,,,,cyan,square
395.0,4.0,4.0,0.0,1.0,1.0,390.7140239998625,1.0,1.0,phase_1,,,,,,,,,,,,,magenta,diamond
206.0,3.0,3.0,0.0,2.0,2.0,376.390764000007,1.0,1.0,phase_1,,,,,,,,,,,,,white,triangle
0.0,3.0,0.0,0.0,1.0,1.0,309.9034070000925,1.0,1.0,phase_1,,,,,,,,,,,,,white,triangle
411.0,8.0,4.0,1.0,3.0,3.0,479.4999989999269,1.0,1.0,phase_1,,,,,,,,,,,,,orange,flipped triangle
0.0,5.0,0.0,1.0,3.0,3.0,376.0902120002356,1.0,1.0,phase_1,,,,,,,,,,,,,green,I
54.0,5.0,1.0,1.0,1.0,1.0,373.6148540001522,1.0,1.0,phase_1,,,,,,,,,,,,,green,I
207.0,7.0,3.0,1.0,2.0,2.0,505.884394000077,1.0,1.0,phase_1,,,,,,,,,,,,,yellow,hexagon
0.0,6.0,0.0,1.0,2.0,2.0,350.7201649999842,1.0,1.0,phase_1,,,,,,,,,,,,,blue,circle
49.0,1.0,1.0,0.0,4.0,4.0,414.6156649999284,1.0,1.0,phase_1,,,,,,,,,,,,,cyan,square
402.0,4.0,4.0,0.0,2.0,2.0,333.9782529997137,1.0,1.0,phase_1,,,,,,,,,,,,,magenta,diamond
191.0,7.0,3.0,1.0,3.0,3.0,344.635021999693,1.0,1.0,phase_1,,,,,,,,,,,,,yellow,hexagon
0.0,5.0,0.0,1.0,3.0,3.0,396.4582490002613,1.0,2.0,phase_1,,,,,,,,,,,,,green,I
52.0,5.0,1.0,1.0,4.0,4.0,432.5803380002071,1.0,1.0,phase_1,,,,,,,,,,,,,green,I
92.0,6.0,2.0,1.0,4.0,4.0,342.7351689997522,2.0,1.0,phase_1,,,,,,,,,,,,,blue,circle
207.0,3.0,3.0,0.0,3.0,3.0,349.7893670000849,2.0,1.0,phase_1,,,,,,,,,,,,,white,triangle
215.0,3.0,3.0,0.0,2.0,2.0,359.61419000022937,2.0,1.0,phase_1,,,,,,,,,,,,,white,triangle
38.0,5.0,1.0,1.0,1.0,1.0,338.9174270000694,2.0,1.0,phase_1,,,,,,,,,,,,,green,I
0.0,8.0,0.0,1.0,2.0,2.0,428.7100949995874,2.0,1.0,phase_1,,,,,,,,,,,,,orange,flipped triangle
220.0,3.0,3.0,0.0,4.0,4.0,395.5370779999612,2.0,1.0,phase_1,,,,,,,,,,,,,white,triangle
219.0,3.0,3.0,0.0,1.0,1.0,383.769275999839,2.0,1.0,phase_1,,,,,,,,,,,,,white,triangle
86.0,2.0,2.0,0.0,3.0,3.0,640.997483999854,2.0,1.0,phase_1,,,,,,,,,,,,,gray,cross
395.0,4.0,4.0,0.0,1.0,1.0,319.7679649997553,2.0,1.0,phase_1,,,,,,,,,,,,,magenta,diamond
94.0,6.0,2.0,1.0,1.0,1.0,302.1325770000658,2.0,1.0,phase_1,,,,,,,,,,,,,blue,circle
0.0,6.0,0.0,1.0,3.0,3.0,350.0685109997903,2.0,1.0,phase_1,,,,,,,,,,,,,blue,circle
410.0,4.0,4.0,0.0,3.0,3.0,375.2047689999926,2.0,1.0,phase_1,,,,,,,,,,,,,magenta,diamond
397.0,4.0,4.0,0.0,1.0,1.0,267.0527120003498,2.0,1.0,phase_1,,,,,,,,,,,,,magenta,diamond
89.0,2.0,2.0,0.0,1.0,1.0,637.1711460001279,2.0,2.0,phase_1,,,,,,,,,,,,,gray,cross
382.0,8.0,4.0,1.0,1.0,1.0,824.945905000277,2.0,1.0,phase_1,,,,,,,,,,,,,orange,flipped triangle
75.0,1.0,1.0,0.0,2.0,2.0,835.9392709999156,2.0,2.0,phase_1,,,,,,,,,,,,,cyan,square
63.0,1.0,1.0,0.0,4.0,4.0,702.3621910002475,2.0,1.0,phase_1,,,,,,,,,,,,,cyan,square
390.0,4.0,4.0,0.0,2.0,2.0,344.7139260001677,2.0,1.0,phase_1,,,,,,,,,,,,,magenta,diamond
416.0,8.0,4.0,1.0,4.0,4.0,273.2493100002102,2.0,1.0,phase_1,,,,,,,,,,,,,orange,flipped triangle
204.0,7.0,3.0,1.0,2.0,2.0,242.1199189998333,2.0,1.0,phase_1,,,,,,,,,,,,,yellow,hexagon
383.0,8.0,4.0,1.0,4.0,4.0,264.6896139999626,2.0,1.0,phase_1,,,,,,,,,,,,,orange,flipped triangle
105.0,2.0,2.0,0.0,4.0,4.0,278.1814519998988,2.0,1.0,phase_1,,,,,,,,,,,,,gray,cross
423.0,8.0,4.0,1.0,2.0,2.0,267.1119970000291,2.0,1.0,phase_1,,,,,,,,,,,,,orange,flipped triangle
0.0,8.0,0.0,1.0,3.0,3.0,533.9046069998403,2.0,1.0,phase_1,,,,,,,,,,,,,orange,flipped triangle
183.0,3.0,3.0,0.0,4.0,4.0,311.3737470002888,2.0,1.0,phase_1,,,,,,,,,,,,,white,triangle
0.0,2.0,0.0,0.0,4.0,4.0,657.2475670000131,2.0,1.0,phase_1,,,,,,,,,,,,,gray,cross
105.0,6.0,2.0,1.0,2.0,2.0,766.7131359999075,2.0,1.0,phase_1,,,,,,,,,,,,,blue,circle
61.0,1.0,1.0,0.0,1.0,1.0,770.6071130000964,2.0,1.0,phase_1,,,,,,,,,,,,,cyan,square
60.0,5.0,1.0,1.0,1.0,1.0,800.0046510001084,2.0,1.0,phase_1,,,,,,,,,,,,,green,I
53.0,5.0,1.0,1.0,3.0,3.0,867.6811599998473,2.0,1.0,phase_1,,,,,,,,,,,,,green,I
183.0,7.0,3.0,1.0,4.0,4.0,357.8131310000572,2.0,1.0,phase_1,,,,,,,,,,,,,yellow,hexagon
198.0,3.0,3.0,0.0,3.0,3.0,215.7009369998377,2.0,1.0,phase_1,,,,,,,,,,,,,white,triangle
391.0,8.0,4.0,1.0,1.0,1.0,320.33198299996,2.0,1.0,phase_1,,,,,,,,,,,,,orange,flipped triangle
205.0,3.0,3.0,0.0,3.0,3.0,759.8867209999298,2.0,1.0,phase_1,,,,,,,,,,,,,white,triangle
416.0,4.0,4.0,0.0,3.0,3.0,981.0527989998265,2.0,1.0,phase_1,,,,,,,,,,,,,magenta,diamond
210.0,3.0,3.0,0.0,4.0,4.0,350.6931130000339,2.0,2.0,phase_1,,,,,,,,,,,,,white,triangle
26.0,5.0,1.0,1.0,1.0,1.0,402.3589749999701,2.0,1.0,phase_1,,,,,,,,,,,,,green,I
65.0,5.0,1.0,1.0,1.0,1.0,338.1352200003675,2.0,2.0,phase_1,,,,,,,,,,,,,green,I
414.0,8.0,4.0,1.0,3.0,3.0,309.586162999949,2.0,1.0,phase_1,,,,,,,,,,,,,orange,flipped triangle
83.0,2.0,2.0,0.0,4.0,4.0,311.7002769999999,2.0,1.0,phase_1,,,,,,,,,,,,,gray,cross
0.0,2.0,0.0,0.0,1.0,1.0,328.9239450000423,2.0,1.0,phase_1,,,,,,,,,,,,,gray,cross
191.0,3.0,3.0,0.0,4.0,4.0,320.1682509998136,2.0,1.0,phase_1,,,,,,,,,,,,,white,triangle
40.0,1.0,1.0,0.0,3.0,3.0,329.0472560001944,2.0,1.0,phase_1,,,,,,,,,,,,,cyan,square
108.0,2.0,2.0,0.0,2.0,2.0,383.0446479996681,2.0,1.0,phase_1,,,,,,,,,,,,,gray,cross
96.0,6.0,2.0,1.0,2.0,2.0,371.701275000305,2.0,1.0,phase_1,,,,,,,,,,,,,blue,circle
27.0,1.0,1.0,0.0,3.0,3.0,342.5004619998617,2.0,1.0,phase_1,,,,,,,,,,,,,cyan,square
397.0,8.0,4.0,1.0,1.0,1.0,270.274199999676,2.0,1.0,phase_1,,,,,,,,,,,,,orange,flipped triangle
0.0,3.0,0.0,0.0,2.0,2.0,426.7716370000016,2.0,1.0,phase_1,,,,,,,,,,,,,white,triangle
206.0,7.0,3.0,1.0,1.0,1.0,319.0693779997673,2.0,1.0,phase_1,,,,,,,,,,,,,yellow,hexagon
213.0,3.0,3.0,0.0,2.0,2.0,269.5691550002266,2.0,1.0,phase_1,,,,,,,,,,,,,white,triangle
399.0,8.0,4.0,1.0,1.0,1.0,344.7911580001346,2.0,1.0,phase_1,,,,,,,,,,,,,orange,flipped triangle
178.0,7.0,3.0,1.0,2.0,2.0,297.1437750002224,2.0,1.0,phase_1,,,,,,,,,,,,,yellow,hexagon
0.0,1.0,0.0,0.0,1.0,1.0,293.7073210000562,2.0,1.0,phase_1,,,,,,,,,,,,,cyan,square
113.0,2.0,2.0,0.0,2.0,2.0,293.4830159997545,2.0,1.0,phase_1,,,,,,,,,,,,,gray,cross
211.0,7.0,3.0,1.0,4.0,4.0,322.2629209999468,2.0,1.0,phase_1,,,,,,,,,,,,,yellow,hexagon
421.0,4.0,4.0,0.0,2.0,2.0,448.4399449997909,2.0,1.0,phase_1,,,,,,,,,,,,,magenta,diamond
99.0,6.0,2.0,1.0,1.0,1.0,428.738254000109,2.0,1.0,phase_1,,,,,,,,,,,,,blue,circle
96.0,2.0,2.0,0.0,4.0,4.0,368.0905789997268,2.0,1.0,phase_1,,,,,,,,,,,,,gray,cross
54.0,1.0,1.0,0.0,1.0,1.0,294.2555300001004,2.0,1.0,phase_1,,,,,,,,,,,,,cyan,square
92.0,2.0,2.0,0.0,1.0,1.0,382.8404619998764,2.0,1.0,phase_1,,,,,,,,,,,,,gray,cross
108.0,6.0,2.0,1.0,4.0,4.0,336.0021379999125,2.0,1.0,phase_1,,,,,,,,,,,,,blue,circle
0.0,2.0,0.0,0.0,3.0,3.0,664.3218890003482,2.0,1.0,phase_1,,,,,,,,,,,,,gray,cross
0.0,7.0,0.0,1.0,1.0,1.0,319.5623429996885,2.0,1.0,phase_1,,,,,,,,,,,,,yellow,hexagon
69.0,5.0,1.0,1.0,1.0,1.0,294.6180079998157,2.0,1.0,phase_1,,,,,,,,,,,,,green,I
207.0,3.0,3.0,0.0,2.0,2.0,379.1358549997312,2.0,1.0,phase_1,,,,,,,,,,,,,white,triangle
378.0,8.0,4.0,1.0,3.0,3.0,371.4051819997621,2.0,1.0,phase_1,,,,,,,,,,,,,orange,flipped triangle
32.0,5.0,1.0,1.0,4.0,4.0,372.9203610000695,2.0,1.0,phase_1,,,,,,,,,,,,,green,I
101.0,6.0,2.0,1.0,4.0,4.0,361.7211639998459,2.0,1.0,phase_1,,,,,,,,,,,,,blue,circle
402.0,4.0,4.0,0.0,4.0,4.0,345.1784270000644,2.0,1.0,phase_1,,,,,,,,,,,,,magenta,diamond
0.0,5.0,0.0,1.0,1.0,1.0,368.82835599999447,2.0,1.0,phase_1,,,,,,,,,,,,,green,I
0.0,3.0,0.0,0.0,2.0,2.0,437.6943549996213,2.0,1.0,phase_1,,,,,,,,,,,,,white,triangle
40.0,1.0,1.0,0.0,2.0,2.0,384.8286590000498,2.0,1.0,phase_1,,,,,,,,,,,,,cyan,square
78.0,6.0,2.0,1.0,4.0,4.0,353.3081280002079,2.0,1.0,phase_1,,,,,,,,,,,,,blue,circle
103.0,2.0,2.0,0.0,3.0,3.0,463.8349990000279,2.0,1.0,phase_1,,,,,,,,,,,,,gray,cross
57.0,1.0,1.0,0.0,2.0,2.0,360.595056999955,2.0,1.0,phase_1,,,,,,,,,,,,,cyan,square
39.0,5.0,1.0,1.0,4.0,4.0,407.4983310001698,2.0,1.0,phase_1,,,,,,,,,,,,,green,I
63.0,5.0,1.0,1.0,2.0,2.0,523.1267109998043,2.0,1.0,phase_1,,,,,,,,,,,,,green,I
219.0,3.0,3.0,0.0,2.0,2.0,326.2589550004122,2.0,1.0,phase_1,,,,,,,,,,,,,white,triangle
38.0,1.0,1.0,0.0,1.0,1.0,301.3409879999926,2.0,1.0,phase_1,,,,,,,,,,,,,cyan,square
185.0,3.0,3.0,0.0,3.0,3.0,322.6647030001004,2.0,1.0,phase_1,,,,,,,,,,,,,white,triangle
69.0,1.0,1.0,0.0,1.0,1.0,297.0397170001888,2.0,1.0,phase_1,,,,,,,,,,,,,cyan,square
67.0,1.0,1.0,0.0,4.0,4.0,371.2001879998752,2.0,1.0,phase_1,,,,,,,,,,,,,cyan,square
400.0,4.0,4.0,0.0,1.0,1.0,357.5935440003377,2.0,1.0,phase_1,,,,,,,,,,,,,magenta,diamond
101.0,6.0,2.0,1.0,3.0,3.0,351.1737539997739,2.0,1.0,phase_1,,,,,,,,,,,,,blue,circle
73.0,5.0,1.0,1.0,3.0,3.0,380.780324999705,2.0,1.0,phase_1,,,,,,,,,,,,,green,I
378.0,4.0,4.0,0.0,4.0,4.0,372.8445120000287,2.0,1.0,phase_1,,,,,,,,,,,,,magenta,diamond
0.0,8.0,0.0,1.0,4.0,4.0,432.4807990001318,2.0,1.0,phase_1,,,,,,,,,,,,,orange,flipped triangle
221.0,3.0,3.0,0.0,4.0,4.0,360.8411579998574,2.0,1.0,phase_1,,,,,,,,,,,,,white,triangle
417.0,4.0,4.0,0.0,2.0,2.0,342.672198999935,2.0,1.0,phase_1,,,,,,,,,,,,,magenta,diamond
380.0,4.0,4.0,0.0,2.0,2.0,388.646805999997,2.0,1.0,phase_1,,,,,,,,,,,,,magenta,diamond
202.0,3.0,3.0,0.0,4.0,4.0,339.2098780000196,2.0,1.0,phase_1,,,,,,,,,,,,,white,triangle
0.0,4.0,0.0,0.0,1.0,1.0,388.791269000194,2.0,1.0,phase_1,,,,,,,,,,,,,magenta,diamond
40.0,5.0,1.0,1.0,3.0,3.0,337.3893499997393,2.0,1.0,phase_1,,,,,,,,,,,,,green,I
48.0,5.0,1.0,1.0,4.0,4.0,334.3427979998523,2.0,1.0,phase_1,,,,,,,,,,,,,green,I
76.0,2.0,2.0,0.0,1.0,1.0,323.419529000148,2.0,1.0,phase_1,,,,,,,,,,,,,gray,cross
213.0,7.0,3.0,1.0,3.0,3.0,321.7123030003677,2.0,1.0,phase_1,,,,,,,,,,,,,yellow,hexagon
86.0,6.0,2.0,1.0,3.0,3.0,379.9221879999095,2.0,1.0,phase_1,,,,,,,,,,,,,blue,circle
187.0,7.0,3.0,1.0,3.0,3.0,279.2981259999578,2.0,1.0,phase_1,,,,,,,,,,,,,yellow,hexagon
65.0,1.0,1.0,0.0,3.0,3.0,331.8722390004041,2.0,1.0,phase_1,,,,,,,,,,,,,cyan,square
423.0,4.0,4.0,0.0,4.0,4.0,311.4404980001382,2.0,1.0,phase_1,,,,,,,,,,,,,magenta,diamond
37.0,1.0,1.0,0.0,4.0,4.0,372.26928400014,3.0,1.0,phase_1,,,,,,,,,,,,,cyan,square
103.0,6.0,2.0,1.0,2.0,2.0,333.3192489999419,3.0,1.0,phase_1,,,,,,,,,,,,,blue,circle
27.0,5.0,1.0,1.0,1.0,1.0,337.6509729996542,3.0,1.0,phase_1,,,,,,,,,,,,,green,I
393.0,4.0,4.0,0.0,1.0,1.0,462.2380030000386,3.0,1.0,phase_1,,,,,,,,,,,,,magenta,diamond
106.0,6.0,2.0,1.0,1.0,1.0,481.6705729999739,3.0,1.0,phase_1,,,,,,,,,,,,,blue,circle
189.0,7.0,3.0,1.0,2.0,2.0,331.0046970000257,3.0,1.0,phase_1,,,,,,,,,,,,,yellow,hexagon
198.0,7.0,3.0,1.0,1.0,1.0,509.87659099973826,3.0,1.0,phase_1,,,,,,,,,,,,,yellow,hexagon
35.0,1.0,1.0,0.0,2.0,2.0,374.5705629999065,3.0,1.0,phase_1,,,,,,,,,,,,,cyan,square
377.0,4.0,4.0,0.0,4.0,4.0,338.4722549999424,3.0,1.0,phase_1,,,,,,,,,,,,,magenta,diamond
422.0,4.0,4.0,0.0,1.0,1.0,334.7624639995956,3.0,1.0,phase_1,,,,,,,,,,,,,magenta,diamond
62.0,5.0,1.0,1.0,3.0,3.0,300.6147510000119,3.0,1.0,phase_1,,,,,,,,,,,,,green,I
27.0,1.0,1.0,0.0,4.0,4.0,342.1299999999974,3.0,1.0,phase_1,,,,,,,,,,,,,cyan,square
0.0,7.0,0.0,1.0,3.0,3.0,385.0561710000875,3.0,1.0,phase_1,,,,,,,,,,,,,yellow,hexagon
62.0,5.0,1.0,1.0,2.0,2.0,359.4003140001405,3.0,1.0,phase_1,,,,,,,,,,,,,green,I
406.0,8.0,4.0,1.0,1.0,1.0,339.0390889999253,3.0,1.0,phase_1,,,,,,,,,,,,,orange,flipped triangle
43.0,1.0,1.0,0.0,4.0,4.0,389.9781850000181,3.0,1.0,phase_1,,,,,,,,,,,,,cyan,square
177.0,3.0,3.0,0.0,1.0,1.0,339.2982599998504,3.0,1.0,phase_1,,,,,,,,,,,,,white,triangle
393.0,8.0,4.0,1.0,3.0,3.0,362.2373879998122,3.0,1.0,phase_1,,,,,,,,,,,,,orange,flipped triangle
0.0,4.0,0.0,0.0,3.0,3.0,373.7878849997287,3.0,1.0,phase_1,,,,,,,,,,,,,magenta,diamond
211.0,3.0,3.0,0.0,1.0,1.0,386.7407449997699,3.0,1.0,phase_1,,,,,,,,,,,,,white,triangle
37.0,5.0,1.0,1.0,4.0,4.0,308.8603480000529,3.0,1.0,phase_1,,,,,,,,,,,,,green,I
418.0,4.0,4.0,0.0,3.0,3.0,329.5460890003596,3.0,1.0,phase_1,,,,,,,,,,,,,magenta,diamond
0.0,2.0,0.0,0.0,2.0,2.0,608.2083510000302,3.0,1.0,phase_1,,,,,,,,,,,,,gray,cross
0.0,6.0,0.0,1.0,2.0,2.0,753.2480169998053,3.0,1.0,phase_1,,,,,,,,,,,,,blue,circle
0.0,3.0,0.0,0.0,1.0,1.0,750.1365329999317,3.0,1.0,phase_1,,,,,,,,,,,,,white,triangle
90.0,2.0,2.0,0.0,1.0,1.0,519.9795469998207,3.0,1.0,phase_1,,,,,,,,,,,,,gray,cross
396.0,4.0,4.0,0.0,1.0,1.0,593.689372999961,3.0,1.0,phase_1,,,,,,,,,,,,,magenta,diamond
125.0,6.0,2.0,1.0,3.0,3.0,677.3041850001391,3.0,1.0,phase_1,,,,,,,,,,,,,blue,circle
34.0,5.0,1.0,1.0,1.0,1.0,260.5458500001987,3.0,1.0,phase_1,,,,,,,,,,,,,green,I
0.0,8.0,0.0,1.0,3.0,3.0,604.4481179997092,3.0,1.0,phase_1,,,,,,,,,,,,,orange,flipped triangle
62.0,1.0,1.0,0.0,1.0,1.0,675.1859409996541,3.0,1.0,phase_1,,,,,,,,,,,,,cyan,square
36.0,5.0,1.0,1.0,2.0,2.0,290.0510689996736,3.0,1.0,phase_1,,,,,,,,,,,,,green,I
0.0,7.0,0.0,1.0,4.0,4.0,296.2677900000017,3.0,1.0,phase_1,,,,,,,,,,,,,yellow,hexagon
183.0,3.0,3.0,0.0,2.0,2.0,293.0978629997298,3.0,1.0,phase_1,,,,,,,,,,,,,white,triangle
49.0,1.0,1.0,0.0,3.0,3.0,299.2404599999645,3.0,1.0,phase_1,,,,,,,,,,,,,cyan,square
221.0,7.0,3.0,1.0,4.0,4.0,307.2113620000891,3.0,1.0,phase_1,,,,,,,,,,,,,yellow,hexagon
44.0,5.0,1.0,1.0,3.0,3.0,324.7448829997665,3.0,1.0,phase_1,,,,,,,,,,,,,green,I
202.0,7.0,3.0,1.0,1.0,1.0,319.243133999862,3.0,1.0,phase_1,,,,,,,,,,,,,yellow,hexagon
102.0,6.0,2.0,1.0,4.0,4.0,357.2823760000574,3.0,1.0,phase_1,,,,,,,,,,,,,blue,circle
0.0,4.0,0.0,0.0,1.0,1.0,322.6964410000619,3.0,1.0,phase_1,,,,,,,,,,,,,magenta,diamond
125.0,2.0,2.0,0.0,1.0,1.0,345.173111999884,3.0,1.0,phase_1,,,,,,,,,,,,,gray,cross
189.0,3.0,3.0,0.0,4.0,4.0,299.4493579999471,3.0,1.0,phase_1,,,,,,,,,,,,,white,triangle
31.0,5.0,1.0,1.0,4.0,4.0,320.8154490002926,3.0,1.0,phase_1,,,,,,,,,,,,,green,I
194.0,3.0,3.0,0.0,2.0,2.0,537.1519569998782,3.0,1.0,phase_1,,,,,,,,,,,,,white,triangle
124.0,2.0,2.0,0.0,3.0,3.0,472.0174320000296,3.0,1.0,phase_1,,,,,,,,,,,,,gray,cross
78.0,2.0,2.0,0.0,3.0,3.0,385.0877609997951,3.0,1.0,phase_1,,,,,,,,,,,,,gray,cross
207.0,7.0,3.0,1.0,1.0,1.0,307.9982899998867,3.0,1.0,phase_1,,,,,,,,,,,,,yellow,hexagon
0.0,4.0,0.0,0.0,4.0,4.0,289.9373249997552,3.0,1.0,phase_1,,,,,,,,,,,,,magenta,diamond
208.0,7.0,3.0,1.0,4.0,4.0,276.6961669999546,3.0,1.0,phase_1,,,,,,,,,,,,,yellow,hexagon
116.0,6.0,2.0,1.0,3.0,3.0,298.4221069996238,3.0,1.0,phase_1,,,,,,,,,,,,,blue,circle
380.0,8.0,4.0,1.0,1.0,1.0,323.2911719996991,3.0,1.0,phase_1,,,,,,,,,,,,,orange,flipped triangle
0.0,1.0,0.0,0.0,3.0,3.0,296.8849029998637,3.0,1.0,phase_1,,,,,,,,,,,,,cyan,square
411.0,4.0,4.0,0.0,1.0,1.0,322.2243459999845,3.0,1.0,phase_1,,,,,,,,,,,,,magenta,diamond
183.0,7.0,3.0,1.0,4.0,4.0,310.3739329999371,3.0,1.0,phase_1,,,,,,,,,,,,,yellow,hexagon
35.0,1.0,1.0,0.0,3.0,3.0,319.8304759998791,3.0,1.0,phase_1,,,,,,,,,,,,,cyan,square
0.0,1.0,0.0,0.0,2.0,2.0,278.6228599998139,3.0,2.0,phase_1,,,,,,,,,,,,,cyan,square
0.0,1.0,0.0,0.0,3.0,3.0,335.6625250003162,3.0,1.0,phase_1,,,,,,,,,,,,,cyan,square
46.0,1.0,1.0,0.0,4.0,4.0,456.4605859995936,3.0,1.0,phase_1,,,,,,,,,,,,,cyan,square
106.0,2.0,2.0,0.0,2.0,2.0,340.109325999947,3.0,1.0,phase_1,,,,,,,,,,,,,gray,cross
49.0,5.0,1.0,1.0,1.0,1.0,295.221520999803,3.0,1.0,phase_1,,,,,,,,,,,,,green,I
421.0,8.0,4.0,1.0,2.0,2.0,271.4774629998828,3.0,1.0,phase_1,,,,,,,,,,,,,orange,flipped triangle
220.0,7.0,3.0,1.0,4.0,4.0,318.869265000103,3.0,1.0,phase_1,,,,,,,,,,,,,yellow,hexagon
0.0,2.0,0.0,0.0,2.0,2.0,305.4237460000877,3.0,1.0,phase_1,,,,,,,,,,,,,gray,cross
43.0,5.0,1.0,1.0,2.0,2.0,287.9233040002873,3.0,1.0,phase_1,,,,,,,,,,,,,green,I
36.0,1.0,1.0,0.0,1.0,1.0,392.6837720000549,3.0,1.0,phase_1,,,,,,,,,,,,,cyan,square
187.0,3.0,3.0,0.0,1.0,1.0,319.7769250000419,3.0,1.0,phase_1,,,,,,,,,,,,,white,triangle
116.0,2.0,2.0,0.0,1.0,1.0,311.6411969999717,3.0,1.0,phase_1,,,,,,,,,,,,,gray,cross
0.0,6.0,0.0,1.0,4.0,4.0,368.7033390001488,3.0,1.0,phase_1,,,,,,,,,,,,,blue,circle
57.0,5.0,1.0,1.0,3.0,3.0,459.5689150000908,3.0,1.0,phase_1,,,,,,,,,,,,,green,I
92.0,6.0,2.0,1.0,4.0,4.0,332.707415999721,3.0,1.0,phase_1,,,,,,,,,,,,,blue,circle
194.0,7.0,3.0,1.0,4.0,4.0,381.9638649997614,3.0,1.0,phase_1,,,,,,,,,,,,,yellow,hexagon
0.0,2.0,0.0,0.0,1.0,1.0,342.5482139996347,3.0,1.0,phase_1,,,,,,,,,,,,,gray,cross
193.0,7.0,3.0,1.0,2.0,2.0,310.2171810000982,3.0,1.0,phase_1,,,,,,,,,,,,,yellow,hexagon
182.0,7.0,3.0,1.0,4.0,4.0,298.2856839998931,3.0,1.0,phase_1,,,,,,,,,,,,,yellow,hexagon
72.0,5.0,1.0,1.0,3.0,3.0,414.6656230000189,3.0,1.0,phase_1,,,,,,,,,,,,,green,I
60.0,1.0,1.0,0.0,1.0,1.0,263.6831329996312,3.0,1.0,phase_1,,,,,,,,,,,,,cyan,square
49.0,5.0,1.0,1.0,4.0,4.0,317.1235479999268,3.0,1.0,phase_1,,,,,,,,,,,,,green,I
67.0,5.0,1.0,1.0,3.0,3.0,339.3089959999997,3.0,1.0,phase_1,,,,,,,,,,,,,green,I
93.0,2.0,2.0,0.0,4.0,4.0,297.608061000119,3.0,1.0,phase_1,,,,,,,,,,,,,gray,cross
78.0,6.0,2.0,1.0,2.0,2.0,334.7441209998578,3.0,1.0,phase_1,,,,,,,,,,,,,blue,circle
101.0,2.0,2.0,0.0,2.0,2.0,321.128391000002,3.0,1.0,phase_1,,,,,,,,,,,,,gray,cross
0.0,6.0,0.0,1.0,1.0,1.0,426.3732630001868,3.0,1.0,phase_1,,,,,,,,,,,,,blue,circle
0.0,6.0,0.0,1.0,3.0,3.0,332.2689870001341,3.0,1.0,phase_1,,,,,,,,,,,,,blue,circle
396.0,8.0,4.0,1.0,2.0,2.0,298.5440709999238,3.0,1.0,phase_1,,,,,,,,,,,,,orange,flipped triangle
402.0,8.0,4.0,1.0,3.0,3.0,317.1070399998825,3.0,1.0,phase_1,,,,,,,,,,,,,orange,flipped triangle
0.0,4.0,0.0,0.0,4.0,4.0,324.0035320000061,3.0,1.0,phase_1,,,,,,,,,,,,,magenta,diamond
52.0,1.0,1.0,0.0,4.0,4.0,327.4520120003217,3.0,1.0,phase_1,,,,,,,,,,,,,cyan,square
185.0,3.0,3.0,0.0,4.0,4.0,407.6517869998497,3.0,1.0,phase_1,,,,,,,,,,,,,white,triangle
386.0,4.0,4.0,0.0,3.0,3.0,278.3678549999422,3.0,1.0,phase_1,,,,,,,,,,,,,magenta,diamond
399.0,4.0,4.0,0.0,4.0,4.0,355.3533979998065,3.0,1.0,phase_1,,,,,,,,,,,,,magenta,diamond
31.0,1.0,1.0,0.0,4.0,4.0,319.8246239999207,3.0,1.0,phase_1,,,,,,,,,,,,,cyan,square
57.0,5.0,1.0,1.0,2.0,2.0,333.9457249999213,3.0,1.0,phase_1,,,,,,,,,,,,,green,I
407.0,4.0,4.0,0.0,1.0,1.0,307.8551809999226,3.0,1.0,phase_1,,,,,,,,,,,,,magenta,diamond
51.0,5.0,1.0,1.0,4.0,4.0,450.4858849995798,3.0,1.0,phase_1,,,,,,,,,,,,,green,I
185.0,7.0,3.0,1.0,2.0,2.0,294.0663150002365,3.0,1.0,phase_1,,,,,,,,,,,,,yellow,hexagon
102.0,6.0,2.0,1.0,4.0,4.0,305.7635459999801,3.0,1.0,phase_1,,,,,,,,,,,,,blue,circle
420.0,8.0,4.0,1.0,4.0,4.0,303.3563919998414,3.0,1.0,phase_1,,,,,,,,,,,,,orange,flipped triangle
396.0,4.0,4.0,0.0,4.0,4.0,292.8977750002559,3.0,1.0,phase_1,,,,,,,,,,,,,magenta,diamond
96.0,6.0,2.0,1.0,3.0,3.0,296.8230950000361,3.0,1.0,phase_1,,,,,,,,,,,,,blue,circle
216.0,7.0,3.0,1.0,1.0,1.0,334.8705829998835,3.0,1.0,phase_1,,,,,,,,,,,,,yellow,hexagon
0.0,3.0,0.0,0.0,2.0,2.0,305.5914299998221,4.0,1.0,phase_1,,,,,,,,,,,,,white,triangle
51.0,1.0,1.0,0.0,2.0,2.0,336.5765940002347,4.0,1.0,phase_1,,,,,,,,,,,,,cyan,square
65.0,1.0,1.0,0.0,4.0,4.0,307.143994999933,4.0,1.0,phase_1,,,,,,,,,,,,,cyan,square
0.0,3.0,0.0,0.0,1.0,1.0,296.5375669996319,4.0,1.0,phase_1,,,,,,,,,,,,,white,triangle
0.0,2.0,0.0,0.0,1.0,1.0,302.9216840000117,4.0,1.0,phase_1,,,,,,,,,,,,,gray,cross
202.0,7.0,3.0,1.0,2.0,2.0,313.6929610000152,4.0,1.0,phase_1,,,,,,,,,,,,,yellow,hexagon
217.0,7.0,3.0,1.0,3.0,3.0,618.4251409999888,4.0,1.0,phase_1,,,,,,,,,,,,,yellow,hexagon
0.0,2.0,0.0,0.0,3.0,3.0,424.5753830000467,4.0,1.0,phase_1,,,,,,,,,,,,,gray,cross
0.0,5.0,0.0,1.0,1.0,1.0,288.7881779997769,4.0,1.0,phase_1,,,,,,,,,,,,,green,I
0.0,7.0,0.0,1.0,3.0,3.0,283.5207480002282,4.0,1.0,phase_1,,,,,,,,,,,,,yellow,hexagon
92.0,6.0,2.0,1.0,1.0,1.0,289.8500420001255,4.0,1.0,phase_1,,,,,,,,,,,,,blue,circle
177.0,7.0,3.0,1.0,3.0,3.0,317.8314790002332,4.0,1.0,phase_1,,,,,,,,,,,,,yellow,hexagon
118.0,2.0,2.0,0.0,4.0,4.0,312.3758560000169,4.0,1.0,phase_1,,,,,,,,,,,,,gray,cross
387.0,4.0,4.0,0.0,4.0,4.0,330.8677320001152,4.0,1.0,phase_1,,,,,,,,,,,,,magenta,diamond
0.0,5.0,0.0,1.0,3.0,3.0,392.217458000232,4.0,1.0,phase_1,,,,,,,,,,,,,green,I
422.0,8.0,4.0,1.0,3.0,3.0,318.225966999762,4.0,1.0,phase_1,,,,,,,,,,,,,orange,flipped triangle
89.0,6.0,2.0,1.0,1.0,1.0,271.49793100034,4.0,1.0,phase_1,,,,,,,,,,,,,blue,circle
95.0,6.0,2.0,1.0,3.0,3.0,451.9099370004369,4.0,1.0,phase_1,,,,,,,,,,,,,blue,circle
78.0,2.0,2.0,0.0,2.0,2.0,316.5124520000972,4.0,1.0,phase_1,,,,,,,,,,,,,gray,cross
212.0,3.0,3.0,0.0,1.0,1.0,259.2764379996879,4.0,1.0,phase_1,,,,,,,,,,,,,white,triangle
185.0,3.0,3.0,0.0,1.0,1.0,265.7491220002157,4.0,1.0,phase_1,,,,,,,,,,,,,white,triangle
76.0,6.0,2.0,1.0,3.0,3.0,366.9627250001213,4.0,1.0,phase_1,,,,,,,,,,,,,blue,circle
118.0,2.0,2.0,0.0,4.0,4.0,294.8629570000776,4.0,1.0,phase_1,,,,,,,,,,,,,gray,cross
212.0,7.0,3.0,1.0,3.0,3.0,304.9811959999715,4.0,1.0,phase_1,,,,,,,,,,,,,yellow,hexagon
182.0,3.0,3.0,0.0,2.0,2.0,346.6054269997585,4.0,1.0,phase_1,,,,,,,,,,,,,white,triangle
48.0,1.0,1.0,0.0,3.0,3.0,277.4867900002391,4.0,1.0,phase_1,,,,,,,,,,,,,cyan,square
0.0,6.0,0.0,1.0,3.0,3.0,264.8481739997805,4.0,1.0,phase_1,,,,,,,,,,,,,blue,circle
0.0,3.0,0.0,0.0,1.0,1.0,306.3414409998586,4.0,1.0,phase_1,,,,,,,,,,,,,white,triangle
420.0,4.0,4.0,0.0,1.0,1.0,350.4506220001531,4.0,1.0,phase_1,,,,,,,,,,,,,magenta,diamond
418.0,8.0,4.0,1.0,1.0,1.0,344.2264979998981,4.0,1.0,phase_1,,,,,,,,,,,,,orange,flipped triangle
189.0,3.0,3.0,0.0,1.0,1.0,274.1665189996638,4.0,1.0,phase_1,,,,,,,,,,,,,white,triangle
394.0,8.0,4.0,1.0,2.0,2.0,291.6402759997254,4.0,1.0,phase_1,,,,,,,,,,,,,orange,flipped triangle
190.0,7.0,3.0,1.0,1.0,1.0,248.0123459999959,4.0,1.0,phase_1,,,,,,,,,,,,,yellow,hexagon
0.0,3.0,0.0,0.0,2.0,2.0,289.5448649996979,4.0,1.0,phase_1,,,,,,,,,,,,,white,triangle
178.0,3.0,3.0,0.0,2.0,2.0,301.3295839996317,4.0,1.0,phase_1,,,,,,,,,,,,,white,triangle
46.0,5.0,1.0,1.0,3.0,3.0,317.926092000107,4.0,1.0,phase_1,,,,,,,,,,,,,green,I
83.0,6.0,2.0,1.0,4.0,4.0,560.2746770000522,4.0,1.0,phase_1,,,,,,,,,,,,,blue,circle
391.0,4.0,4.0,0.0,2.0,2.0,270.4193650001798,4.0,1.0,phase_1,,,,,,,,,,,,,magenta,diamond
65.0,5.0,1.0,1.0,1.0,1.0,280.5444999999054,4.0,1.0,phase_1,,,,,,,,,,,,,green,I
62.0,1.0,1.0,0.0,1.0,1.0,298.4761789998629,4.0,1.0,phase_1,,,,,,,,,,,,,cyan,square
124.0,6.0,2.0,1.0,2.0,2.0,283.8654490001318,4.0,1.0,phase_1,,,,,,,,,,,,,blue,circle
219.0,7.0,3.0,1.0,1.0,1.0,254.17996400028642,4.0,1.0,phase_1,,,,,,,,,,,,,yellow,hexagon
92.0,2.0,2.0,0.0,3.0,3.0,311.8588209999871,4.0,1.0,phase_1,,,,,,,,,,,,,gray,cross
90.0,6.0,2.0,1.0,4.0,4.0,381.4060140002766,4.0,1.0,phase_1,,,,,,,,,,,,,blue,circle
0.0,1.0,0.0,0.0,2.0,2.0,307.8546319998168,4.0,1.0,phase_1,,,,,,,,,,,,,cyan,square
400.0,8.0,4.0,1.0,4.0,4.0,329.6517079998011,4.0,1.0,phase_1,,,,,,,,,,,,,orange,flipped triangle
119.0,2.0,2.0,0.0,1.0,1.0,320.0929250001536,4.0,1.0,phase_1,,,,,,,,,,,,,gray,cross
423.0,4.0,4.0,0.0,3.0,3.0,225.6179400001201,4.0,1.0,phase_1,,,,,,,,,,,,,magenta,diamond
95.0,2.0,2.0,0.0,1.0,1.0,280.4297960001349,4.0,1.0,phase_1,,,,,,,,,,,,,gray,cross
0.0,3.0,0.0,0.0,4.0,4.0,275.6676269996205,4.0,1.0,phase_1,,,,,,,,,,,,,white,triangle
380.0,4.0,4.0,0.0,2.0,2.0,308.6902439999903,4.0,1.0,phase_1,,,,,,,,,,,,,magenta,diamond
0.0,3.0,0.0,0.0,3.0,3.0,353.3275740001045,4.0,2.0,phase_1,,,,,,,,,,,,,white,triangle
0.0,4.0,0.0,0.0,2.0,2.0,604.6304890001011,4.0,1.0,phase_1,,,,,,,,,,,,,magenta,diamond
74.0,1.0,1.0,0.0,2.0,2.0,325.9514839996882,4.0,1.0,phase_1,,,,,,,,,,,,,cyan,square
219.0,7.0,3.0,1.0,3.0,3.0,376.6164769999705,4.0,2.0,phase_1,,,,,,,,,,,,,yellow,hexagon
421.0,4.0,4.0,0.0,4.0,4.0,363.0285069998535,4.0,1.0,phase_1,,,,,,,,,,,,,magenta,diamond
406.0,4.0,4.0,0.0,3.0,3.0,427.9263949997585,4.0,1.0,phase_1,,,,,,,,,,,,,magenta,diamond
386.0,8.0,4.0,1.0,3.0,3.0,359.7395110000434,4.0,1.0,phase_1,,,,,,,,,,,,,orange,flipped triangle
0.0,1.0,0.0,0.0,2.0,2.0,378.7436030002027,4.0,1.0,phase_1,,,,,,,,,,,,,cyan,square
94.0,2.0,2.0,0.0,2.0,2.0,344.1861189999144,4.0,3.0,phase_1,,,,,,,,,,,,,gray,cross
84.0,2.0,2.0,0.0,3.0,3.0,348.361475999809,4.0,1.0,phase_1,,,,,,,,,,,,,gray,cross
77.0,2.0,2.0,0.0,4.0,4.0,359.1908529997454,4.0,1.0,phase_1,,,,,,,,,,,,,gray,cross
383.0,4.0,4.0,0.0,3.0,3.0,349.6795519999978,4.0,2.0,phase_1,,,,,,,,,,,,,magenta,diamond
194.0,7.0,3.0,1.0,1.0,1.0,307.9317010001432,4.0,1.0,phase_1,,,,,,,,,,,,,yellow,hexagon
39.0,1.0,1.0,0.0,3.0,3.0,304.9049900000682,4.0,1.0,phase_1,,,,,,,,,,,,,cyan,square
378.0,8.0,4.0,1.0,4.0,4.0,336.7247149999457,4.0,1.0,phase_1,,,,,,,,,,,,,orange,flipped triangle
217.0,3.0,3.0,0.0,3.0,3.0,445.5264359999091,4.0,1.0,phase_1,,,,,,,,,,,,,white,triangle
185.0,7.0,3.0,1.0,1.0,1.0,313.711110999975,4.0,1.0,phase_1,,,,,,,,,,,,,yellow,hexagon
382.0,4.0,4.0,0.0,3.0,3.0,296.3035900002069,4.0,1.0,phase_1,,,,,,,,,,,,,magenta,diamond
410.0,8.0,4.0,1.0,2.0,2.0,307.1470419999969,4.0,1.0,phase_1,,,,,,,,,,,,,orange,flipped triangle
0.0,6.0,0.0,1.0,1.0,1.0,368.7836139997671,4.0,1.0,phase_1,,,,,,,,,,,,,blue,circle
0.0,8.0,0.0,1.0,1.0,1.0,299.3264270003237,4.0,1.0,phase_1,,,,,,,,,,,,,orange,flipped triangle
396.0,8.0,4.0,1.0,4.0,4.0,328.8757260002057,4.0,1.0,phase_1,,,,,,,,,,,,,orange,flipped triangle
0.0,5.0,0.0,1.0,4.0,4.0,348.4251320001021,4.0,1.0,phase_1,,,,,,,,,,,,,green,I
107.0,6.0,2.0,1.0,2.0,2.0,320.8469159999367,4.0,1.0,phase_1,,,,,,,,,,,,,blue,circle
57.0,1.0,1.0,0.0,2.0,2.0,395.2466689997891,4.0,1.0,phase_1,,,,,,,,,,,,,cyan,square
407.0,8.0,4.0,1.0,4.0,4.0,344.0114349996293,4.0,1.0,phase_1,,,,,,,,,,,,,orange,flipped triangle
0.0,7.0,0.0,1.0,4.0,4.0,330.0062099997376,4.0,1.0,phase_1,,,,,,,,,,,,,yellow,hexagon
93.0,6.0,2.0,1.0,3.0,3.0,359.9112369997783,4.0,1.0,phase_1,,,,,,,,,,,,,blue,circle
177.0,7.0,3.0,1.0,2.0,2.0,327.8269480001654,4.0,1.0,phase_1,,,,,,,,,,,,,yellow,hexagon
96.0,2.0,2.0,0.0,2.0,2.0,385.3310869999404,4.0,1.0,phase_1,,,,,,,,,,,,,gray,cross
61.0,5.0,1.0,1.0,2.0,2.0,304.0293180001754,4.0,1.0,phase_1,,,,,,,,,,,,,green,I
394.0,4.0,4.0,0.0,2.0,2.0,278.4081720001268,4.0,1.0,phase_1,,,,,,,,,,,,,magenta,diamond
406.0,8.0,4.0,1.0,2.0,2.0,273.5938319997331,4.0,1.0,phase_1,,,,,,,,,,,,,orange,flipped triangle
204.0,3.0,3.0,0.0,4.0,4.0,319.3701260001944,4.0,1.0,phase_1,,,,,,,,,,,,,white,triangle
389.0,8.0,4.0,1.0,1.0,1.0,311.0357430000476,4.0,1.0,phase_1,,,,,,,,,,,,,orange,flipped triangle
113.0,6.0,2.0,1.0,2.0,2.0,343.6292370001865,4.0,1.0,phase_1,,,,,,,,,,,,,blue,circle
216.0,3.0,3.0,0.0,2.0,2.0,324.1165959998398,4.0,1.0,phase_1,,,,,,,,,,,,,white,triangle
0.0,4.0,0.0,0.0,3.0,3.0,390.8266640000875,4.0,1.0,phase_1,,,,,,,,,,,,,magenta,diamond
102.0,2.0,2.0,0.0,3.0,3.0,309.1692680000051,4.0,1.0,phase_1,,,,,,,,,,,,,gray,cross
34.0,1.0,1.0,0.0,3.0,3.0,284.5191819997126,4.0,1.0,phase_1,,,,,,,,,,,,,cyan,square
83.0,6.0,2.0,1.0,2.0,2.0,273.3741649999501,4.0,1.0,phase_1,,,,,,,,,,,,,blue,circle
196.0,3.0,3.0,0.0,3.0,3.0,430.1410289999694,4.0,1.0,phase_1,,,,,,,,,,,,,white,triangle
119.0,6.0,2.0,1.0,2.0,2.0,319.5472399997925,4.0,2.0,phase_1,,,,,,,,,,,,,blue,circle
376.0,8.0,4.0,1.0,4.0,4.0,364.5781999998689,4.0,1.0,phase_1,,,,,,,,,,,,,orange,flipped triangle
0.0,7.0,0.0,1.0,3.0,3.0,304.3158620002941,4.0,1.0,phase_1,,,,,,,,,,,,,yellow,hexagon
210.0,7.0,3.0,1.0,3.0,3.0,304.1765289999603,4.0,1.0,phase_1,,,,,,,,,,,,,yellow,hexagon
0.0,1.0,0.0,0.0,1.0,1.0,327.7497829999447,4.0,1.0,phase_1,,,,,,,,,,,,,cyan,square
55.0,1.0,1.0,0.0,2.0,2.0,316.4331289999609,4.0,1.0,phase_1,,,,,,,,,,,,,cyan,square
92.0,2.0,2.0,0.0,1.0,1.0,339.9306340002113,4.0,1.0,phase_1,,,,,,,,,,,,,gray,cross
0.0,4.0,4.0,0.0,5.0,5.0,334.3066309998903,1.0,1.0,phase_2,go,250.0,250.0,1.0,,,,,,,,,magenta,diamond
0.0,6.0,2.0,1.0,6.0,0.0,0.0,1.0,1.0,phase_2,stop,250.0,250.0,4.0,,,,,,,,,blue,circle
0.0,1.0,1.0,0.0,5.0,5.0,562.4690019999434,1.0,1.0,phase_2,go,250.0,300.0,1.0,,,,,,,,,cyan,square
0.0,4.0,4.0,0.0,6.0,6.0,765.8035320000636,1.0,1.0,phase_2,go,250.0,300.0,1.0,,,,,,,,,magenta,diamond
0.0,2.0,2.0,0.0,5.0,5.0,980.595763999645,1.0,1.0,phase_2,go,250.0,300.0,1.0,,,,,,,,,gray,cross
0.0,1.0,1.0,0.0,5.0,5.0,948.0879980001192,1.0,1.0,phase_2,go,250.0,300.0,1.0,,,,,,,,,cyan,square
0.0,2.0,2.0,0.0,6.0,6.0,774.4112979999045,1.0,1.0,phase_2,go,250.0,300.0,1.0,,,,,,,,,gray,cross
0.0,8.0,4.0,1.0,5.0,0.0,0.0,1.0,1.0,phase_2,stop,250.0,300.0,4.0,,,,,,,,,orange,flipped triangle
0.0,7.0,3.0,1.0,5.0,0.0,0.0,1.0,1.0,phase_2,stop,300.0,300.0,4.0,,,,,,,,,yellow,hexagon
0.0,1.0,1.0,0.0,5.0,5.0,589.1098759998386,1.0,1.0,phase_2,go,350.0,300.0,1.0,,,,,,,,,cyan,square
0.0,6.0,2.0,1.0,6.0,0.0,0.0,1.0,1.0,phase_2,stop,350.0,300.0,4.0,,,,,,,,,blue,circle
0.0,3.0,3.0,0.0,6.0,6.0,680.0912499998049,1.0,1.0,phase_2,go,350.0,350.0,1.0,,,,,,,,,white,triangle
0.0,7.0,3.0,1.0,6.0,0.0,0.0,1.0,1.0,phase_2,stop,350.0,350.0,4.0,,,,,,,,,yellow,hexagon
0.0,7.0,3.0,1.0,5.0,5.0,534.691789000135,1.0,1.0,phase_2,go,350.0,400.0,1.0,,,,,,,,,yellow,hexagon
0.0,8.0,4.0,1.0,5.0,0.0,0.0,1.0,1.0,phase_2,stop,350.0,400.0,4.0,,,,,,,,,orange,flipped triangle
0.0,4.0,4.0,0.0,6.0,6.0,531.7958540003929,1.0,1.0,phase_2,go,400.0,400.0,1.0,,,,,,,,,magenta,diamond
0.0,5.0,1.0,1.0,5.0,0.0,0.0,1.0,1.0,phase_2,stop,400.0,400.0,4.0,,,,,,,,,green,I
0.0,6.0,2.0,1.0,5.0,5.0,564.3668140000955,1.0,1.0,phase_2,stop,450.0,400.0,3.0,,,,,,,,,blue,circle
0.0,4.0,4.0,0.0,6.0,6.0,708.9257490001728,1.0,1.0,phase_2,go,400.0,400.0,1.0,,,,,,,,,magenta,diamond
0.0,4.0,4.0,0.0,6.0,6.0,734.6135950001553,1.0,1.0,phase_2,go,400.0,400.0,1.0,,,,,,,,,magenta,diamond
0.0,2.0,2.0,0.0,6.0,6.0,797.9077869999855,1.0,1.0,phase_2,go,400.0,400.0,1.0,,,,,,,,,gray,cross
0.0,7.0,3.0,1.0,6.0,0.0,0.0,1.0,1.0,phase_2,stop,400.0,400.0,4.0,,,,,,,,,yellow,hexagon
0.0,5.0,1.0,1.0,5.0,0.0,0.0,1.0,1.0,phase_2,stop,400.0,450.0,4.0,,,,,,,,,green,I
0.0,8.0,4.0,1.0,5.0,5.0,627.3509760003435,1.0,1.0,phase_2,go,450.0,450.0,1.0,,,,,,,,,orange,flipped triangle
0.0,5.0,1.0,1.0,6.0,6.0,865.2619719996437,1.0,1.0,phase_2,go,450.0,450.0,1.0,,,,,,,,,green,I
0.0,6.0,2.0,1.0,6.0,6.0,753.4979870001735,1.0,1.0,phase_2,go,450.0,450.0,1.0,,,,,,,,,blue,circle
0.0,6.0,2.0,1.0,6.0,0.0,0.0,1.0,1.0,phase_2,stop,450.0,450.0,4.0,,,,,,,,,blue,circle
0.0,6.0,2.0,1.0,5.0,0.0,0.0,1.0,1.0,phase_2,stop,450.0,500.0,4.0,,,,,,,,,blue,circle
0.0,2.0,2.0,0.0,5.0,5.0,656.0383959999854,1.0,1.0,phase_2,go,500.0,500.0,1.0,,,,,,,,,gray,cross
0.0,4.0,4.0,0.0,5.0,5.0,751.2671290000981,1.0,1.0,phase_2,go,500.0,500.0,1.0,,,,,,,,,magenta,diamond
0.0,1.0,1.0,0.0,5.0,5.0,673.216770000181,1.0,1.0,phase_2,go,500.0,500.0,1.0,,,,,,,,,cyan,square
0.0,1.0,1.0,0.0,5.0,5.0,798.3774290000838,1.0,1.0,phase_2,go,500.0,500.0,1.0,,,,,,,,,cyan,square
0.0,2.0,2.0,0.0,6.0,6.0,617.6685939999516,1.0,1.0,phase_2,go,500.0,500.0,1.0,,,,,,,,,gray,cross
0.0,7.0,3.0,1.0,5.0,5.0,708.7036080001781,1.0,1.0,phase_2,go,500.0,500.0,1.0,,,,,,,,,yellow,hexagon
0.0,8.0,4.0,1.0,6.0,6.0,598.3197999998993,1.0,1.0,phase_2,stop,500.0,500.0,3.0,,,,,,,,,orange,flipped triangle
0.0,5.0,1.0,1.0,5.0,0.0,0.0,1.0,1.0,phase_2,stop,500.0,450.0,4.0,,,,,,,,,green,I
0.0,4.0,4.0,0.0,5.0,0.0,0.0,2.0,1.0,phase_2,go,550.0,450.0,5.0,,,,,,,,,magenta,diamond
0.0,1.0,1.0,0.0,6.0,0.0,0.0,2.0,1.0,phase_2,go,550.0,450.0,5.0,,,,,,,,,cyan,square
0.0,5.0,1.0,1.0,6.0,2.0,471.7728719997467,2.0,1.0,phase_2,go,550.0,450.0,2.0,,,,,,,,,green,I
0.0,7.0,3.0,1.0,5.0,1.0,502.600939000331,2.0,1.0,phase_2,stop,550.0,450.0,3.0,,,,,,,,,yellow,hexagon
0.0,6.0,2.0,1.0,6.0,2.0,883.8396989999637,2.0,1.0,phase_2,go,500.0,450.0,2.0,,,,,,,,,blue,circle
0.0,5.0,1.0,1.0,5.0,0.0,0.0,2.0,1.0,phase_2,stop,500.0,450.0,4.0,,,,,,,,,green,I
0.0,6.0,2.0,1.0,6.0,2.0,774.3074889999662,2.0,1.0,phase_2,go,550.0,450.0,2.0,,,,,,,,,blue,circle
0.0,4.0,4.0,0.0,5.0,1.0,779.7716350000883,2.0,1.0,phase_2,go,550.0,450.0,2.0,,,,,,,,,magenta,diamond
0.0,3.0,3.0,0.0,6.0,2.0,680.9830180000063,2.0,1.0,phase_2,go,550.0,450.0,2.0,,,,,,,,,white,triangle
0.0,2.0,2.0,0.0,6.0,2.0,730.6311600000299,2.0,1.0,phase_2,go,550.0,450.0,2.0,,,,,,,,,gray,cross
0.0,4.0,4.0,0.0,6.0,2.0,622.0284180003546,2.0,1.0,phase_2,go,550.0,450.0,2.0,,,,,,,,,magenta,diamond
0.0,4.0,4.0,0.0,5.0,1.0,707.4394840001332,2.0,1.0,phase_2,go,550.0,450.0,2.0,,,,,,,,,magenta,diamond
0.0,3.0,3.0,0.0,6.0,2.0,734.4443649999448,2.0,1.0,phase_2,go,550.0,450.0,2.0,,,,,,,,,white,triangle
0.0,3.0,3.0,0.0,6.0,2.0,724.5505930000036,2.0,1.0,phase_2,go,550.0,450.0,2.0,,,,,,,,,white,triangle
0.0,8.0,4.0,1.0,5.0,0.0,0.0,2.0,1.0,phase_2,stop,550.0,450.0,4.0,,,,,,,,,orange,flipped triangle
0.0,6.0,2.0,1.0,6.0,0.0,0.0,2.0,1.0,phase_2,stop,600.0,450.0,4.0,,,,,,,,,blue,circle
0.0,7.0,3.0,1.0,5.0,1.0,710.8658239999386,2.0,1.0,phase_2,stop,600.0,500.0,3.0,,,,,,,,,yellow,hexagon
0.0,2.0,2.0,0.0,6.0,2.0,988.5266950000188,2.0,1.0,phase_2,go,550.0,500.0,2.0,,,,,,,,,gray,cross
0.0,3.0,3.0,0.0,5.0,1.0,867.7334240001073,2.0,1.0,phase_2,go,550.0,500.0,2.0,,,,,,,,,white,triangle
0.0,8.0,4.0,1.0,5.0,0.0,0.0,2.0,1.0,phase_2,stop,550.0,500.0,4.0,,,,,,,,,orange,flipped triangle
0.0,8.0,4.0,1.0,5.0,0.0,0.0,2.0,1.0,phase_2,stop,600.0,500.0,4.0,,,,,,,,,orange,flipped triangle
0.0,6.0,2.0,1.0,5.0,0.0,0.0,2.0,1.0,phase_2,stop,650.0,500.0,4.0,,,,,,,,,blue,circle
0.0,3.0,3.0,0.0,6.0,2.0,965.2383500001632,2.0,1.0,phase_2,go,700.0,500.0,2.0,,,,,,,,,white,triangle
0.0,3.0,3.0,0.0,5.0,1.0,855.0328779997471,2.0,1.0,phase_2,go,700.0,500.0,2.0,,,,,,,,,white,triangle
0.0,7.0,3.0,1.0,6.0,0.0,0.0,2.0,1.0,phase_2,stop,700.0,500.0,4.0,,,,,,,,,yellow,hexagon
0.0,5.0,1.0,1.0,6.0,0.0,0.0,2.0,1.0,phase_2,stop,700.0,550.0,4.0,,,,,,,,,green,I
0.0,3.0,3.0,0.0,5.0,1.0,926.9854799999848,2.0,1.0,phase_2,go,700.0,600.0,2.0,,,,,,,,,white,triangle
0.0,4.0,4.0,0.0,6.0,2.0,850.8322700004101,2.0,1.0,phase_2,go,700.0,600.0,2.0,,,,,,,,,magenta,diamond
0.0,4.0,4.0,0.0,6.0,2.0,795.3000370002883,2.0,1.0,phase_2,go,700.0,600.0,2.0,,,,,,,,,magenta,diamond
0.0,3.0,3.0,0.0,6.0,2.0,844.7626120000677,2.0,1.0,phase_2,go,700.0,600.0,2.0,,,,,,,,,white,triangle
0.0,4.0,4.0,0.0,6.0,2.0,846.7916929998864,2.0,1.0,phase_2,go,700.0,600.0,2.0,,,,,,,,,magenta,diamond
0.0,1.0,1.0,0.0,6.0,2.0,1028.3423969999603,2.0,1.0,phase_2,go,700.0,600.0,2.0,,,,,,,,,cyan,square
0.0,5.0,1.0,1.0,6.0,0.0,0.0,2.0,1.0,phase_2,stop,700.0,600.0,4.0,,,,,,,,,green,I
0.0,5.0,1.0,1.0,6.0,0.0,0.0,2.0,1.0,phase_2,stop,700.0,650.0,4.0,,,,,,,,,green,I
0.0,5.0,1.0,1.0,6.0,0.0,0.0,2.0,1.0,phase_2,stop,700.0,700.0,4.0,,,,,,,,,green,I
0.0,2.0,2.0,0.0,6.0,2.0,1162.748972999907,2.0,1.0,phase_2,go,700.0,750.0,2.0,,,,,,,,,gray,cross
0.0,3.0,3.0,0.0,5.0,1.0,712.4677340007111,3.0,1.0,phase_2,go,700.0,750.0,2.0,,,,,,,,,white,triangle
0.0,7.0,3.0,1.0,5.0,1.0,644.3156340001224,3.0,1.0,phase_2,go,700.0,750.0,2.0,,,,,,,,,yellow,hexagon
0.0,5.0,1.0,1.0,5.0,1.0,868.0700459999571,3.0,1.0,phase_2,stop,700.0,750.0,3.0,,,,,,,,,green,I
0.0,4.0,4.0,0.0,5.0,1.0,1135.6568070004869,3.0,1.0,phase_2,go,650.0,750.0,2.0,,,,,,,,,magenta,diamond
0.0,3.0,3.0,0.0,6.0,2.0,1041.8608099998892,3.0,1.0,phase_2,go,650.0,750.0,2.0,,,,,,,,,white,triangle
0.0,5.0,1.0,1.0,6.0,2.0,876.7526999999973,3.0,1.0,phase_2,stop,650.0,750.0,3.0,,,,,,,,,green,I
0.0,1.0,1.0,0.0,5.0,1.0,1141.334832999746,3.0,1.0,phase_2,go,650.0,700.0,2.0,,,,,,,,,cyan,square
0.0,8.0,4.0,1.0,6.0,2.0,1083.5326490005173,3.0,1.0,phase_2,go,650.0,700.0,2.0,,,,,,,,,orange,flipped triangle
0.0,4.0,4.0,0.0,5.0,1.0,1044.054115000108,3.0,1.0,phase_2,go,650.0,700.0,2.0,,,,,,,,,magenta,diamond
0.0,5.0,1.0,1.0,5.0,0.0,0.0,3.0,1.0,phase_2,stop,650.0,700.0,4.0,,,,,,,,,green,I
0.0,4.0,4.0,0.0,6.0,2.0,746.3806240002668,3.0,1.0,phase_2,go,700.0,700.0,2.0,,,,,,,,,magenta,diamond
0.0,1.0,1.0,0.0,6.0,2.0,1098.7496950001514,3.0,1.0,phase_2,go,700.0,700.0,2.0,,,,,,,,,cyan,square
0.0,7.0,3.0,1.0,6.0,2.0,1109.0144079998936,3.0,1.0,phase_2,go,700.0,700.0,2.0,,,,,,,,,yellow,hexagon
0.0,4.0,4.0,0.0,6.0,2.0,1017.6244960002805,3.0,1.0,phase_2,go,700.0,700.0,2.0,,,,,,,,,magenta,diamond
0.0,2.0,2.0,0.0,6.0,2.0,1001.0639289994288,3.0,1.0,phase_2,go,700.0,700.0,2.0,,,,,,,,,gray,cross
0.0,1.0,1.0,0.0,6.0,2.0,977.7095059998828,3.0,1.0,phase_2,go,700.0,700.0,2.0,,,,,,,,,cyan,square
0.0,5.0,1.0,1.0,5.0,1.0,890.3707689996736,3.0,1.0,phase_2,go,700.0,700.0,2.0,,,,,,,,,green,I
0.0,2.0,2.0,0.0,6.0,2.0,903.9223390000188,3.0,1.0,phase_2,go,700.0,700.0,2.0,,,,,,,,,gray,cross
0.0,8.0,4.0,1.0,6.0,0.0,0.0,3.0,1.0,phase_2,stop,700.0,700.0,4.0,,,,,,,,,orange,flipped triangle
0.0,6.0,2.0,1.0,5.0,1.0,751.8275479997101,3.0,1.0,phase_2,stop,700.0,750.0,3.0,,,,,,,,,blue,circle
0.0,1.0,1.0,0.0,6.0,2.0,1082.3766519997662,3.0,1.0,phase_2,go,650.0,750.0,2.0,,,,,,,,,cyan,square
0.0,3.0,3.0,0.0,6.0,2.0,1051.416983999843,3.0,1.0,phase_2,go,650.0,750.0,2.0,,,,,,,,,white,triangle
0.0,7.0,3.0,1.0,6.0,0.0,0.0,3.0,1.0,phase_2,stop,650.0,750.0,4.0,,,,,,,,,yellow,hexagon
0.0,5.0,1.0,1.0,5.0,1.0,1041.7211180001686,3.0,1.0,phase_2,go,650.0,800.0,2.0,,,,,,,,,green,I
0.0,4.0,4.0,0.0,5.0,1.0,1253.8842940002723,3.0,1.0,phase_2,go,650.0,800.0,2.0,,,,,,,,,magenta,diamond
0.0,8.0,4.0,1.0,6.0,0.0,0.0,3.0,1.0,phase_2,stop,650.0,800.0,4.0,,,,,,,,,orange,flipped triangle
0.0,6.0,2.0,1.0,5.0,0.0,0.0,3.0,1.0,phase_2,stop,650.0,850.0,4.0,,,,,,,,,blue,circle
0.0,3.0,3.0,0.0,6.0,2.0,1230.6927820000055,3.0,1.0,phase_2,go,700.0,850.0,2.0,,,,,,,,,white,triangle
0.0,2.0,2.0,0.0,6.0,2.0,1135.5309900000066,3.0,1.0,phase_2,go,700.0,850.0,2.0,,,,,,,,,gray,cross
0.0,6.0,2.0,1.0,6.0,0.0,0.0,3.0,1.0,phase_2,stop,700.0,850.0,4.0,,,,,,,,,blue,circle
0.0,8.0,4.0,1.0,6.0,0.0,0.0,3.0,1.0,phase_2,stop,700.0,900.0,4.0,,,,,,,,,orange,flipped triangle
0.0,4.0,4.0,0.0,6.0,2.0,1216.185048000625,3.0,1.0,phase_2,go,700.0,950.0,2.0,,,,,,,,,magenta,diamond
0.0,8.0,4.0,1.0,6.0,0.0,0.0,3.0,1.0,phase_2,stop,700.0,950.0,4.0,,,,,,,,,orange,flipped triangle
0.0,1.0,1.0,0.0,6.0,2.0,1301.870262999728,3.0,1.0,phase_2,go,700.0,1000.0,2.0,,,,,,,,,cyan,square
0.0,6.0,2.0,1.0,5.0,0.0,0.0,3.0,1.0,phase_2,stop,700.0,1000.0,4.0,,,,,,,,,blue,circle
0.0,7.0,3.0,1.0,5.0,0.0,0.0,3.0,1.0,phase_2,stop,750.0,1000.0,4.0,,,,,,,,,yellow,hexagon
0.0,2.0,2.0,0.0,5.0,0.0,0.0,4.0,1.0,phase_2,go,800.0,1000.0,5.0,,,,,,,,,gray,cross
0.0,4.0,4.0,0.0,5.0,0.0,0.0,4.0,1.0,phase_2,go,800.0,1000.0,5.0,,,,,,,,,magenta,diamond
0.0,2.0,2.0,0.0,6.0,6.0,557.9351549995408,4.0,1.0,phase_2,go,800.0,1000.0,1.0,,,,,,,,,gray,cross
0.0,1.0,1.0,0.0,6.0,6.0,991.342338999857,4.0,1.0,phase_2,go,800.0,1000.0,1.0,,,,,,,,,cyan,square
0.0,4.0,4.0,0.0,6.0,6.0,1166.6932140005883,4.0,1.0,phase_2,go,800.0,1000.0,1.0,,,,,,,,,magenta,diamond
0.0,5.0,1.0,1.0,5.0,0.0,0.0,4.0,1.0,phase_2,stop,800.0,1000.0,4.0,,,,,,,,,green,I
0.0,6.0,2.0,1.0,6.0,6.0,1060.404648000258,4.0,1.0,phase_2,stop,850.0,1000.0,3.0,,,,,,,,,blue,circle
0.0,5.0,1.0,1.0,5.0,0.0,0.0,4.0,1.0,phase_2,stop,850.0,950.0,4.0,,,,,,,,,green,I
0.0,2.0,2.0,0.0,5.0,5.0,1230.7797139992545,4.0,1.0,phase_2,go,900.0,950.0,1.0,,,,,,,,,gray,cross
0.0,5.0,1.0,1.0,6.0,6.0,1367.4179350000486,4.0,1.0,phase_2,go,900.0,950.0,1.0,,,,,,,,,green,I
0.0,3.0,3.0,0.0,6.0,6.0,1132.2593480008436,4.0,1.0,phase_2,go,900.0,950.0,1.0,,,,,,,,,white,triangle
0.0,6.0,2.0,1.0,5.0,0.0,0.0,4.0,1.0,phase_2,stop,900.0,950.0,4.0,,,,,,,,,blue,circle
0.0,2.0,2.0,0.0,5.0,5.0,1357.6316480002788,4.0,1.0,phase_2,go,950.0,950.0,1.0,,,,,,,,,gray,cross
0.0,1.0,1.0,0.0,5.0,5.0,1146.9317799992496,4.0,1.0,phase_2,go,950.0,950.0,1.0,,,,,,,,,cyan,square
0.0,4.0,4.0,0.0,5.0,5.0,1185.2934110002025,4.0,1.0,phase_2,go,950.0,950.0,1.0,,,,,,,,,magenta,diamond
0.0,8.0,4.0,1.0,5.0,0.0,0.0,4.0,1.0,phase_2,stop,950.0,950.0,4.0,,,,,,,,,orange,flipped triangle
0.0,3.0,3.0,0.0,5.0,5.0,1298.139634999643,4.0,1.0,phase_2,go,1000.0,950.0,1.0,,,,,,,,,white,triangle
0.0,5.0,1.0,1.0,6.0,0.0,0.0,4.0,1.0,phase_2,stop,1000.0,950.0,4.0,,,,,,,,,green,I
0.0,8.0,4.0,1.0,5.0,0.0,0.0,4.0,1.0,phase_2,stop,1000.0,1000.0,4.0,,,,,,,,,orange,flipped triangle
0.0,1.0,1.0,0.0,6.0,6.0,1284.039154000311,4.0,1.0,phase_2,go,1050.0,1000.0,1.0,,,,,,,,,cyan,square
0.0,4.0,4.0,0.0,6.0,6.0,1293.6472499995944,4.0,1.0,phase_2,go,1050.0,1000.0,1.0,,,,,,,,,magenta,diamond
0.0,5.0,1.0,1.0,5.0,0.0,0.0,4.0,1.0,phase_2,stop,1050.0,1000.0,4.0,,,,,,,,,green,I
0.0,2.0,2.0,0.0,5.0,5.0,1462.476888999845,4.0,1.0,phase_2,go,1100.0,1000.0,1.0,,,,,,,,,gray,cross
0.0,6.0,2.0,1.0,5.0,0.0,0.0,4.0,1.0,phase_2,go,1100.0,1000.0,5.0,,,,,,,,,blue,circle
0.0,7.0,3.0,1.0,5.0,5.0,1137.6742259999446,4.0,1.0,phase_2,stop,1100.0,1000.0,3.0,,,,,,,,,yellow,hexagon
0.0,6.0,2.0,1.0,5.0,0.0,0.0,4.0,1.0,phase_2,stop,1050.0,1000.0,4.0,,,,,,,,,blue,circle
0.0,4.0,4.0,0.0,6.0,6.0,1325.3247720003856,4.0,1.0,phase_2,go,1100.0,1000.0,1.0,,,,,,,,,magenta,diamond
0.0,8.0,4.0,1.0,5.0,0.0,0.0,4.0,1.0,phase_2,stop,1100.0,1000.0,4.0,,,,,,,,,orange,flipped triangle
0.0,5.0,1.0,1.0,5.0,0.0,0.0,4.0,1.0,phase_2,stop,1150.0,1000.0,4.0,,,,,,,,,green,I
0.0,3.0,3.0,0.0,6.0,6.0,1326.5676399996664,4.0,1.0,phase_2,go,1200.0,1000.0,1.0,,,,,,,,,white,triangle
0.0,7.0,3.0,1.0,5.0,0.0,0.0,4.0,1.0,phase_2,stop,1200.0,1000.0,4.0,,,,,,,,,yellow,hexagon
0.0,1.0,1.0,0.0,5.0,5.0,1425.454180000088,4.0,1.0,phase_2,go,1250.0,1000.0,1.0,,,,,,,,,cyan,square
0.0,7.0,3.0,1.0,6.0,0.0,0.0,4.0,1.0,phase_2,stop,1250.0,1000.0,4.0,,,,,,,,,yellow,hexagon
0.0,7.0,3.0,1.0,5.0,5.0,1323.145700999703,4.0,1.0,phase_2,go,1250.0,1050.0,1.0,,,,,,,,,yellow,hexagon
0.0,4.0,4.0,0.0,5.0,5.0,1446.549908000634,4.0,1.0,phase_2,go,1250.0,1050.0,1.0,,,,,,,,,magenta,diamond
0.0,4.0,4.0,0.0,5.0,5.0,1430.4682689999026,4.0,1.0,phase_2,go,1250.0,1050.0,1.0,,,,,,,,,magenta,diamond
0.0,8.0,4.0,1.0,5.0,5.0,595.7020810001268,5.0,1.0,phase_2,stop,1250.0,1050.0,3.0,,,,,,,,,orange,flipped triangle
0.0,2.0,2.0,0.0,5.0,5.0,410.448988999633,5.0,1.0,phase_2,go,1200.0,1050.0,1.0,,,,,,,,,gray,cross
0.0,4.0,4.0,0.0,5.0,5.0,379.2099090005649,5.0,1.0,phase_2,go,1200.0,1050.0,1.0,,,,,,,,,magenta,diamond
0.0,6.0,2.0,1.0,5.0,5.0,404.6168840004611,5.0,1.0,phase_2,go,1200.0,1050.0,1.0,,,,,,,,,blue,circle
0.0,7.0,3.0,1.0,5.0,5.0,684.0313680004328,5.0,1.0,phase_2,stop,1200.0,1050.0,3.0,,,,,,,,,yellow,hexagon
0.0,2.0,2.0,0.0,6.0,6.0,905.7181609996404,5.0,1.0,phase_2,go,1150.0,1050.0,1.0,,,,,,,,,gray,cross
0.0,6.0,2.0,1.0,6.0,6.0,696.4872840007956,5.0,1.0,phase_2,stop,1150.0,1050.0,3.0,,,,,,,,,blue,circle
0.0,1.0,1.0,0.0,6.0,6.0,379.160499000136,5.0,1.0,phase_2,go,1150.0,1000.0,1.0,,,,,,,,,cyan,square
0.0,2.0,2.0,0.0,5.0,5.0,634.1932889999953,5.0,1.0,phase_2,go,1150.0,1000.0,1.0,,,,,,,,,gray,cross
0.0,4.0,4.0,0.0,5.0,5.0,312.855223999577,5.0,1.0,phase_2,go,1150.0,1000.0,1.0,,,,,,,,,magenta,diamond
0.0,2.0,2.0,0.0,6.0,6.0,281.8956319997596,5.0,1.0,phase_2,go,1150.0,1000.0,1.0,,,,,,,,,gray,cross
0.0,5.0,1.0,1.0,6.0,6.0,443.962640000791,5.0,1.0,phase_2,go,1150.0,1000.0,1.0,,,,,,,,,green,I
0.0,8.0,4.0,1.0,6.0,6.0,333.5861850000583,5.0,1.0,phase_2,go,1150.0,1000.0,1.0,,,,,,,,,orange,flipped triangle
0.0,2.0,2.0,0.0,6.0,6.0,631.0416239994083,5.0,1.0,phase_2,go,1150.0,1000.0,1.0,,,,,,,,,gray,cross
0.0,7.0,3.0,1.0,6.0,6.0,644.1505229995528,5.0,1.0,phase_2,stop,1150.0,1000.0,3.0,,,,,,,,,yellow,hexagon
0.0,6.0,2.0,1.0,6.0,6.0,317.7159659999233,5.0,1.0,phase_2,stop,1150.0,950.0,3.0,,,,,,,,,blue,circle
0.0,2.0,2.0,0.0,5.0,5.0,311.4254170004642,5.0,1.0,phase_2,go,1150.0,900.0,1.0,,,,,,,,,gray,cross
0.0,1.0,1.0,0.0,5.0,5.0,362.7381699998295,5.0,1.0,phase_2,go,1150.0,900.0,1.0,,,,,,,,,cyan,square
0.0,7.0,3.0,1.0,6.0,6.0,239.1395030008425,5.0,1.0,phase_2,stop,1150.0,900.0,3.0,,,,,,,,,yellow,hexagon
0.0,4.0,4.0,0.0,5.0,5.0,322.9525349997857,5.0,1.0,phase_2,go,1150.0,850.0,1.0,,,,,,,,,magenta,diamond
0.0,7.0,3.0,1.0,6.0,6.0,276.5446940002221,5.0,1.0,phase_2,stop,1150.0,850.0,3.0,,,,,,,,,yellow,hexagon
0.0,3.0,3.0,0.0,6.0,6.0,299.1057179997369,5.0,1.0,phase_2,go,1150.0,800.0,1.0,,,,,,,,,white,triangle
0.0,5.0,1.0,1.0,6.0,6.0,286.8278070000087,5.0,1.0,phase_2,stop,1150.0,800.0,3.0,,,,,,,,,green,I
0.0,3.0,3.0,0.0,5.0,5.0,253.5707420001927,5.0,1.0,phase_2,go,1150.0,750.0,1.0,,,,,,,,,white,triangle
0.0,3.0,3.0,0.0,5.0,5.0,265.0549290001436,5.0,1.0,phase_2,go,1150.0,750.0,1.0,,,,,,,,,white,triangle
0.0,4.0,4.0,0.0,6.0,6.0,242.1245790001194,5.0,1.0,phase_2,go,1150.0,750.0,1.0,,,,,,,,,magenta,diamond
0.0,2.0,2.0,0.0,5.0,5.0,303.7706459999754,5.0,1.0,phase_2,go,1150.0,750.0,1.0,,,,,,,,,gray,cross
0.0,2.0,2.0,0.0,6.0,6.0,274.8558049997882,5.0,1.0,phase_2,go,1150.0,750.0,1.0,,,,,,,,,gray,cross
0.0,6.0,2.0,1.0,5.0,5.0,241.4697690001048,5.0,1.0,phase_2,stop,1150.0,750.0,3.0,,,,,,,,,blue,circle
0.0,5.0,1.0,1.0,6.0,6.0,552.0888099999866,5.0,1.0,phase_2,go,1100.0,750.0,1.0,,,,,,,,,green,I
0.0,6.0,2.0,1.0,6.0,6.0,275.3415159995711,5.0,1.0,phase_2,stop,1100.0,750.0,3.0,,,,,,,,,blue,circle
0.0,8.0,4.0,1.0,6.0,6.0,282.2837849998905,5.0,1.0,phase_2,stop,1100.0,700.0,3.0,,,,,,,,,orange,flipped triangle
0.0,8.0,4.0,1.0,6.0,6.0,234.412656999666,5.0,1.0,phase_2,stop,1100.0,650.0,3.0,,,,,,,,,orange,flipped triangle
0.0,7.0,3.0,1.0,5.0,5.0,234.3703509995975,5.0,1.0,phase_2,go,1100.0,600.0,1.0,,,,,,,,,yellow,hexagon
0.0,1.0,1.0,0.0,6.0,6.0,216.5393960003712,5.0,1.0,phase_2,go,1100.0,600.0,1.0,,,,,,,,,cyan,square
0.0,3.0,3.0,0.0,5.0,5.0,239.7939689999475,5.0,1.0,phase_2,go,1100.0,600.0,1.0,,,,,,,,,white,triangle
0.0,5.0,1.0,1.0,5.0,5.0,483.196642000621,6.0,1.0,phase_2,go,1100.0,600.0,1.0,,,,,,,,,green,I
0.0,3.0,3.0,0.0,5.0,5.0,302.8625830002056,6.0,1.0,phase_2,go,1100.0,600.0,1.0,,,,,,,,,white,triangle
0.0,5.0,1.0,1.0,6.0,6.0,263.006738000513,6.0,1.0,phase_2,stop,1100.0,600.0,3.0,,,,,,,,,green,I
0.0,1.0,1.0,0.0,5.0,5.0,202.044700999977,6.0,1.0,phase_2,go,1100.0,550.0,1.0,,,,,,,,,cyan,square
0.0,7.0,3.0,1.0,5.0,5.0,230.4269490005026,6.0,1.0,phase_2,stop,1100.0,550.0,3.0,,,,,,,,,yellow,hexagon
0.0,8.0,4.0,1.0,5.0,5.0,252.99121700027172,6.0,1.0,phase_2,stop,1050.0,550.0,3.0,,,,,,,,,orange,flipped triangle
0.0,1.0,1.0,0.0,6.0,6.0,287.3573389997546,6.0,1.0,phase_2,go,1000.0,550.0,1.0,,,,,,,,,cyan,square
0.0,8.0,4.0,1.0,6.0,6.0,280.5601580002985,6.0,1.0,phase_2,stop,1000.0,550.0,3.0,,,,,,,,,orange,flipped triangle
0.0,8.0,4.0,1.0,6.0,6.0,290.3700609995212,6.0,1.0,phase_2,stop,1000.0,500.0,3.0,,,,,,,,,orange,flipped triangle
0.0,3.0,3.0,0.0,5.0,5.0,263.5334880005757,6.0,1.0,phase_2,go,1000.0,450.0,1.0,,,,,,,,,white,triangle
0.0,6.0,2.0,1.0,5.0,5.0,270.1492709993545,6.0,1.0,phase_2,go,1000.0,450.0,1.0,,,,,,,,,blue,circle
0.0,1.0,1.0,0.0,6.0,6.0,229.864814999928,6.0,1.0,phase_2,go,1000.0,450.0,1.0,,,,,,,,,cyan,square
0.0,6.0,2.0,1.0,5.0,5.0,212.9902090000541,6.0,1.0,phase_2,stop,1000.0,450.0,3.0,,,,,,,,,blue,circle
0.0,7.0,3.0,1.0,5.0,5.0,260.0280710003062,6.0,1.0,phase_2,go,950.0,450.0,1.0,,,,,,,,,yellow,hexagon
0.0,1.0,1.0,0.0,6.0,6.0,224.3863929998042,6.0,1.0,phase_2,go,950.0,450.0,1.0,,,,,,,,,cyan,square
0.0,1.0,1.0,0.0,6.0,6.0,258.2334049993733,6.0,1.0,phase_2,go,950.0,450.0,1.0,,,,,,,,,cyan,square
0.0,5.0,1.0,1.0,6.0,6.0,243.21947899989019,6.0,1.0,phase_2,stop,950.0,450.0,3.0,,,,,,,,,green,I
0.0,8.0,4.0,1.0,5.0,5.0,264.7583850002775,6.0,1.0,phase_2,stop,950.0,400.0,3.0,,,,,,,,,orange,flipped triangle
0.0,3.0,3.0,0.0,5.0,5.0,256.6352539997751,6.0,1.0,phase_2,go,900.0,400.0,1.0,,,,,,,,,white,triangle
0.0,7.0,3.0,1.0,5.0,5.0,228.2396339996921,6.0,1.0,phase_2,stop,900.0,400.0,3.0,,,,,,,,,yellow,hexagon
0.0,3.0,3.0,0.0,5.0,5.0,272.9985460000534,6.0,1.0,phase_2,go,850.0,400.0,1.0,,,,,,,,,white,triangle
0.0,1.0,1.0,0.0,5.0,5.0,262.3917619994245,6.0,1.0,phase_2,go,850.0,400.0,1.0,,,,,,,,,cyan,square
0.0,7.0,3.0,1.0,6.0,6.0,218.4732369996709,6.0,1.0,phase_2,stop,850.0,400.0,3.0,,,,,,,,,yellow,hexagon
0.0,8.0,4.0,1.0,5.0,5.0,242.9301430001942,6.0,1.0,phase_2,go,850.0,350.0,1.0,,,,,,,,,orange,flipped triangle
0.0,7.0,3.0,1.0,5.0,5.0,280.9895030004554,6.0,1.0,phase_2,stop,850.0,350.0,3.0,,,,,,,,,yellow,hexagon
0.0,1.0,1.0,0.0,6.0,6.0,493.5971089998929,6.0,1.0,phase_2,go,800.0,350.0,1.0,,,,,,,,,cyan,square
0.0,8.0,4.0,1.0,6.0,6.0,304.7193829997923,6.0,1.0,phase_2,go,800.0,350.0,1.0,,,,,,,,,orange,flipped triangle
0.0,1.0,1.0,0.0,6.0,6.0,351.4360819999638,6.0,1.0,phase_2,go,800.0,350.0,1.0,,,,,,,,,cyan,square
0.0,7.0,3.0,1.0,6.0,6.0,274.6411259995511,6.0,1.0,phase_2,stop,800.0,350.0,3.0,,,,,,,,,yellow,hexagon
0.0,4.0,4.0,0.0,6.0,6.0,270.7898919998115,6.0,1.0,phase_2,go,800.0,300.0,1.0,,,,,,,,,magenta,diamond
0.0,5.0,1.0,1.0,5.0,5.0,251.8871570000556,6.0,1.0,phase_2,stop,800.0,300.0,3.0,,,,,,,,,green,I
0.0,3.0,3.0,0.0,6.0,6.0,291.1733719993208,6.0,1.0,phase_2,go,750.0,300.0,1.0,,,,,,,,,white,triangle
0.0,7.0,3.0,1.0,6.0,6.0,341.3521480006238,6.0,1.0,phase_2,stop,750.0,300.0,3.0,,,,,,,,,yellow,hexagon
0.0,6.0,2.0,1.0,6.0,6.0,312.9051959995195,6.0,1.0,phase_2,stop,750.0,250.0,3.0,,,,,,,,,blue,circle
0.0,3.0,3.0,0.0,5.0,5.0,236.9643090005411,6.0,1.0,phase_2,go,750.0,200.0,1.0,,,,,,,,,white,triangle
0.0,1.0,1.0,0.0,5.0,5.0,264.9169650003387,6.0,1.0,phase_2,go,750.0,200.0,1.0,,,,,,,,,cyan,square
0.0,5.0,1.0,1.0,6.0,6.0,1122.678565999195,7.0,1.0,phase_2,stop,750.0,200.0,3.0,,,,,,,,,green,I
0.0,2.0,2.0,0.0,5.0,5.0,320.0539680001384,7.0,1.0,phase_2,go,750.0,150.0,1.0,,,,,,,,,gray,cross
0.0,6.0,2.0,1.0,6.0,6.0,264.8071899993738,7.0,1.0,phase_2,stop,750.0,150.0,3.0,,,,,,,,,blue,circle
0.0,8.0,4.0,1.0,5.0,5.0,379.1565359997548,7.0,1.0,phase_2,go,750.0,100.0,1.0,,,,,,,,,orange,flipped triangle
0.0,1.0,1.0,0.0,5.0,5.0,748.0874590000894,7.0,1.0,phase_2,go,750.0,100.0,1.0,,,,,,,,,cyan,square
0.0,6.0,2.0,1.0,5.0,5.0,821.0339549996206,7.0,1.0,phase_2,go,750.0,100.0,1.0,,,,,,,,,blue,circle
0.0,2.0,2.0,0.0,5.0,5.0,739.726439000151,7.0,1.0,phase_2,go,750.0,100.0,1.0,,,,,,,,,gray,cross
0.0,3.0,3.0,0.0,6.0,6.0,907.3297300001286,7.0,1.0,phase_2,go,750.0,100.0,1.0,,,,,,,,,white,triangle
0.0,3.0,3.0,0.0,5.0,5.0,717.5821509999878,7.0,1.0,phase_2,go,750.0,100.0,1.0,,,,,,,,,white,triangle
0.0,3.0,3.0,0.0,6.0,6.0,970.6154349996724,7.0,1.0,phase_2,go,750.0,100.0,1.0,,,,,,,,,white,triangle
0.0,2.0,2.0,0.0,6.0,6.0,709.9790980000762,7.0,1.0,phase_2,go,750.0,100.0,1.0,,,,,,,,,gray,cross
0.0,1.0,1.0,0.0,6.0,6.0,558.1802020005853,7.0,1.0,phase_2,go,750.0,100.0,1.0,,,,,,,,,cyan,square
0.0,5.0,1.0,1.0,5.0,5.0,586.4853920002133,7.0,1.0,phase_2,stop,750.0,100.0,3.0,,,,,,,,,green,I
0.0,6.0,2.0,1.0,5.0,5.0,587.9124419998334,7.0,1.0,phase_2,stop,700.0,100.0,3.0,,,,,,,,,blue,circle
0.0,3.0,3.0,0.0,5.0,5.0,310.655773999315,7.0,1.0,phase_2,go,650.0,100.0,1.0,,,,,,,,,white,triangle
0.0,3.0,3.0,0.0,6.0,6.0,603.1016250008179,7.0,1.0,phase_2,go,650.0,100.0,1.0,,,,,,,,,white,triangle
0.0,2.0,2.0,0.0,6.0,6.0,837.8711969999131,7.0,1.0,phase_2,go,650.0,100.0,1.0,,,,,,,,,gray,cross
0.0,8.0,4.0,1.0,6.0,0.0,0.0,7.0,1.0,phase_2,stop,650.0,100.0,4.0,,,,,,,,,orange,flipped triangle
0.0,2.0,2.0,0.0,6.0,6.0,897.1360839996123,7.0,1.0,phase_2,go,650.0,150.0,1.0,,,,,,,,,gray,cross
0.0,3.0,3.0,0.0,6.0,6.0,956.4830299996174,7.0,1.0,phase_2,go,650.0,150.0,1.0,,,,,,,,,white,triangle
0.0,6.0,2.0,1.0,6.0,0.0,0.0,7.0,1.0,phase_2,stop,650.0,150.0,4.0,,,,,,,,,blue,circle
0.0,4.0,4.0,0.0,6.0,6.0,648.4251829997447,7.0,1.0,phase_2,go,650.0,200.0,1.0,,,,,,,,,magenta,diamond
0.0,7.0,3.0,1.0,6.0,0.0,0.0,7.0,1.0,phase_2,stop,650.0,200.0,4.0,,,,,,,,,yellow,hexagon
0.0,5.0,1.0,1.0,5.0,5.0,622.6639249998698,7.0,1.0,phase_2,stop,650.0,250.0,3.0,,,,,,,,,green,I
0.0,7.0,3.0,1.0,6.0,6.0,809.7577200005617,7.0,1.0,phase_2,go,600.0,250.0,1.0,,,,,,,,,yellow,hexagon
0.0,4.0,4.0,0.0,5.0,5.0,579.9030060006771,7.0,1.0,phase_2,go,600.0,250.0,1.0,,,,,,,,,magenta,diamond
0.0,6.0,2.0,1.0,5.0,5.0,679.3930230005572,7.0,1.0,phase_2,go,600.0,250.0,1.0,,,,,,,,,blue,circle
0.0,6.0,2.0,1.0,6.0,6.0,820.6735449994085,7.0,1.0,phase_2,go,600.0,250.0,1.0,,,,,,,,,blue,circle
0.0,8.0,4.0,1.0,5.0,5.0,694.075776000318,7.0,1.0,phase_2,stop,600.0,250.0,3.0,,,,,,,,,orange,flipped triangle
0.0,1.0,1.0,0.0,6.0,6.0,839.3494309993912,7.0,1.0,phase_2,go,550.0,250.0,1.0,,,,,,,,,cyan,square
0.0,7.0,3.0,1.0,6.0,0.0,0.0,7.0,1.0,phase_2,stop,550.0,250.0,4.0,,,,,,,,,yellow,hexagon
0.0,5.0,1.0,1.0,6.0,0.0,0.0,7.0,1.0,phase_2,stop,550.0,300.0,4.0,,,,,,,,,green,I
0.0,2.0,2.0,0.0,5.0,5.0,753.6000290001539,7.0,1.0,phase_2,go,550.0,350.0,1.0,,,,,,,,,gray,cross
0.0,5.0,1.0,1.0,5.0,5.0,712.5098169999546,7.0,1.0,phase_2,stop,550.0,350.0,3.0,,,,,,,,,green,I
0.0,3.0,3.0,0.0,5.0,5.0,1013.369856999816,7.0,1.0,phase_2,go,500.0,350.0,1.0,,,,,,,,,white,triangle
0.0,7.0,3.0,1.0,5.0,0.0,0.0,7.0,1.0,phase_2,stop,500.0,350.0,4.0,,,,,,,,,yellow,hexagon
0.0,4.0,4.0,0.0,5.0,5.0,346.1359530001573,8.0,1.0,phase_2,go,550.0,350.0,1.0,,,,,,,,,magenta,diamond
0.0,6.0,2.0,1.0,6.0,6.0,444.6097249992817,8.0,1.0,phase_2,stop,550.0,350.0,3.0,,,,,,,,,blue,circle
0.0,6.0,2.0,1.0,6.0,6.0,296.019234000596,8.0,1.0,phase_2,stop,550.0,300.0,3.0,,,,,,,,,blue,circle
0.0,4.0,4.0,0.0,6.0,6.0,251.67868599964999,8.0,1.0,phase_2,go,550.0,250.0,1.0,,,,,,,,,magenta,diamond
0.0,8.0,4.0,1.0,5.0,5.0,274.0489810003055,8.0,1.0,phase_2,stop,550.0,250.0,3.0,,,,,,,,,orange,flipped triangle
0.0,1.0,1.0,0.0,5.0,5.0,288.3754580007007,8.0,1.0,phase_2,go,500.0,250.0,1.0,,,,,,,,,cyan,square
0.0,4.0,4.0,0.0,5.0,5.0,307.4731440001415,8.0,1.0,phase_2,go,500.0,250.0,1.0,,,,,,,,,magenta,diamond
0.0,2.0,2.0,0.0,5.0,5.0,288.3624460000646,8.0,1.0,phase_2,go,500.0,250.0,1.0,,,,,,,,,gray,cross
0.0,2.0,2.0,0.0,5.0,5.0,306.5280310001981,8.0,1.0,phase_2,go,500.0,250.0,1.0,,,,,,,,,gray,cross
0.0,1.0,1.0,0.0,5.0,5.0,432.5980240000717,8.0,1.0,phase_2,go,500.0,250.0,1.0,,,,,,,,,cyan,square
0.0,1.0,1.0,0.0,5.0,5.0,266.974350000055,8.0,1.0,phase_2,go,500.0,250.0,1.0,,,,,,,,,cyan,square
0.0,8.0,4.0,1.0,6.0,6.0,243.0261550007344,8.0,1.0,phase_2,stop,500.0,250.0,3.0,,,,,,,,,orange,flipped triangle
0.0,6.0,2.0,1.0,5.0,5.0,267.4408849998144,8.0,1.0,phase_2,stop,500.0,200.0,3.0,,,,,,,,,blue,circle
0.0,2.0,2.0,0.0,6.0,6.0,276.6798530001324,8.0,1.0,phase_2,go,450.0,200.0,1.0,,,,,,,,,gray,cross
0.0,2.0,2.0,0.0,5.0,5.0,255.3583870003422,8.0,1.0,phase_2,go,450.0,200.0,1.0,,,,,,,,,gray,cross
0.0,3.0,3.0,0.0,6.0,6.0,265.6342130003395,8.0,1.0,phase_2,go,450.0,200.0,1.0,,,,,,,,,white,triangle
0.0,7.0,3.0,1.0,5.0,5.0,275.8289220000733,8.0,1.0,phase_2,stop,450.0,200.0,3.0,,,,,,,,,yellow,hexagon
0.0,8.0,4.0,1.0,5.0,5.0,299.5543229999384,8.0,1.0,phase_2,stop,400.0,200.0,3.0,,,,,,,,,orange,flipped triangle
0.0,8.0,4.0,1.0,6.0,6.0,311.3572990005195,8.0,1.0,phase_2,stop,350.0,200.0,3.0,,,,,,,,,orange,flipped triangle
0.0,3.0,3.0,0.0,5.0,5.0,416.1924429999999,8.0,1.0,phase_2,go,350.0,150.0,1.0,,,,,,,,,white,triangle
0.0,7.0,3.0,1.0,6.0,6.0,299.5838369997727,8.0,1.0,phase_2,go,350.0,150.0,1.0,,,,,,,,,yellow,hexagon
0.0,7.0,3.0,1.0,6.0,6.0,334.3949019999854,8.0,1.0,phase_2,stop,350.0,150.0,3.0,,,,,,,,,yellow,hexagon
0.0,8.0,4.0,1.0,6.0,0.0,0.0,8.0,1.0,phase_2,stop,350.0,100.0,4.0,,,,,,,,,orange,flipped triangle
0.0,7.0,3.0,1.0,6.0,0.0,0.0,8.0,1.0,phase_2,stop,350.0,150.0,4.0,,,,,,,,,yellow,hexagon
0.0,8.0,4.0,1.0,5.0,5.0,549.8385789996973,8.0,1.0,phase_2,go,350.0,200.0,1.0,,,,,,,,,orange,flipped triangle
0.0,1.0,1.0,0.0,5.0,5.0,614.5011589997011,8.0,1.0,phase_2,go,350.0,200.0,1.0,,,,,,,,,cyan,square
0.0,5.0,1.0,1.0,6.0,0.0,0.0,8.0,1.0,phase_2,stop,350.0,200.0,4.0,,,,,,,,,green,I
0.0,5.0,1.0,1.0,6.0,0.0,0.0,8.0,1.0,phase_2,stop,350.0,250.0,4.0,,,,,,,,,green,I
0.0,2.0,2.0,0.0,5.0,5.0,673.5024319996228,8.0,1.0,phase_2,go,350.0,300.0,1.0,,,,,,,,,gray,cross
0.0,3.0,3.0,0.0,5.0,5.0,699.5639119995758,8.0,1.0,phase_2,go,350.0,300.0,1.0,,,,,,,,,white,triangle
0.0,8.0,4.0,1.0,6.0,6.0,588.0316709999533,8.0,1.0,phase_2,go,350.0,300.0,1.0,,,,,,,,,orange,flipped triangle
0.0,5.0,1.0,1.0,5.0,5.0,536.1610939999082,8.0,1.0,phase_2,go,350.0,300.0,1.0,,,,,,,,,green,I
0.0,6.0,2.0,1.0,5.0,0.0,0.0,8.0,1.0,phase_2,stop,350.0,300.0,4.0,,,,,,,,,blue,circle
0.0,2.0,2.0,0.0,5.0,5.0,718.4407479999209,8.0,1.0,phase_2,go,400.0,300.0,1.0,,,,,,,,,gray,cross
0.0,1.0,1.0,0.0,5.0,5.0,650.3568989992345,8.0,1.0,phase_2,go,400.0,300.0,1.0,,,,,,,,,cyan,square
0.0,8.0,4.0,1.0,6.0,6.0,584.9325859999226,8.0,1.0,phase_2,go,400.0,300.0,1.0,,,,,,,,,orange,flipped triangle
0.0,6.0,2.0,1.0,7.0,3.0,2674.852211000143,1.0,1.0,phase_3,,,,,102.0,3.0,204.0,34.0,102.0,136.0,170.0,68.0,blue,circle
0.0,5.0,1.0,1.0,7.0,1.0,1757.232995000777,1.0,1.0,phase_3,,,,,234.0,6.0,234.0,156.0,117.0,195.0,78.0,39.0,green,I
0.0,5.0,1.0,1.0,7.0,4.0,619.9890530006087,1.0,1.0,phase_3,,,,,68.0,2.0,102.0,170.0,204.0,68.0,34.0,136.0,green,I
0.0,8.0,4.0,1.0,7.0,1.0,1571.830122999927,1.0,2.0,phase_3,,,,,98.0,2.0,98.0,245.0,147.0,49.0,294.0,196.0,orange,flipped triangle
0.0,3.0,3.0,0.0,7.0,4.0,1161.6977710000356,1.0,1.0,phase_3,,,,,264.0,6.0,176.0,132.0,44.0,264.0,220.0,88.0,white,triangle
0.0,7.0,3.0,1.0,7.0,2.0,1056.1048959998516,1.0,1.0,phase_3,,,,,39.0,1.0,234.0,39.0,156.0,117.0,78.0,195.0,yellow,hexagon
0.0,1.0,1.0,0.0,7.0,2.0,115.4824539999026,1.0,1.0,phase_3,,,,,136.0,4.0,102.0,136.0,204.0,34.0,68.0,170.0,cyan,square
0.0,3.0,3.0,0.0,7.0,1.0,627.1990559998812,1.0,1.0,phase_3,,,,,234.0,6.0,234.0,39.0,156.0,117.0,195.0,78.0,white,triangle
0.0,5.0,1.0,1.0,7.0,6.0,336.9773310005257,1.0,1.0,phase_3,,,,,270.0,5.0,216.0,54.0,162.0,108.0,324.0,270.0,green,I
0.0,6.0,2.0,1.0,7.0,3.0,740.7324429996152,1.0,1.0,phase_3,,,,,195.0,5.0,234.0,156.0,195.0,117.0,78.0,39.0,blue,circle
0.0,2.0,2.0,0.0,7.0,1.0,683.4903549997762,1.0,1.0,phase_3,,,,,132.0,3.0,132.0,220.0,264.0,88.0,176.0,44.0,gray,cross
0.0,2.0,2.0,0.0,7.0,2.0,665.3680760000498,1.0,1.0,phase_3,,,,,245.0,5.0,196.0,245.0,294.0,98.0,49.0,147.0,gray,cross
0.0,7.0,3.0,1.0,7.0,3.0,444.1539159997774,1.0,1.0,phase_3,,,,,49.0,1.0,196.0,294.0,49.0,245.0,147.0,98.0,yellow,hexagon
0.0,8.0,4.0,1.0,7.0,4.0,340.7525660004467,1.0,1.0,phase_3,,,,,245.0,5.0,98.0,49.0,147.0,245.0,294.0,196.0,orange,flipped triangle
0.0,6.0,2.0,1.0,7.0,5.0,1113.2486079995942,1.0,1.0,phase_3,,,,,216.0,4.0,270.0,162.0,54.0,108.0,216.0,324.0,blue,circle
0.0,2.0,2.0,0.0,7.0,6.0,372.60494200018,1.0,1.0,phase_3,,,,,34.0,1.0,136.0,204.0,170.0,102.0,68.0,34.0,gray,cross
0.0,4.0,4.0,0.0,7.0,1.0,377.6938150003843,1.0,1.0,phase_3,,,,,270.0,5.0,270.0,324.0,216.0,108.0,54.0,162.0,magenta,diamond
0.0,4.0,4.0,0.0,7.0,2.0,288.9733089996298,1.0,1.0,phase_3,,,,,245.0,5.0,196.0,245.0,294.0,49.0,98.0,147.0,magenta,diamond
0.0,1.0,1.0,0.0,7.0,3.0,665.6275670002287,1.0,1.0,phase_3,,,,,147.0,3.0,98.0,49.0,147.0,196.0,294.0,245.0,cyan,square
0.0,4.0,4.0,0.0,7.0,4.0,231.1502100001234,1.0,1.0,phase_3,,,,,108.0,2.0,216.0,162.0,270.0,108.0,54.0,324.0,magenta,diamond
0.0,6.0,2.0,1.0,7.0,4.0,1008.1245600003967,2.0,1.0,phase_3,,,,,245.0,5.0,294.0,196.0,98.0,245.0,49.0,147.0,blue,circle
0.0,6.0,2.0,1.0,7.0,4.0,428.864018999775,2.0,1.0,phase_3,,,,,98.0,2.0,196.0,294.0,147.0,98.0,49.0,245.0,blue,circle
0.0,2.0,2.0,0.0,7.0,4.0,362.4163550002777,2.0,1.0,phase_3,,,,,39.0,1.0,156.0,195.0,78.0,39.0,117.0,234.0,gray,cross
0.0,3.0,3.0,0.0,7.0,4.0,641.7688550000094,2.0,1.0,phase_3,,,,,324.0,6.0,216.0,54.0,162.0,324.0,270.0,108.0,white,triangle
0.0,7.0,3.0,1.0,7.0,4.0,563.0779989996881,2.0,1.0,phase_3,,,,,108.0,2.0,270.0,54.0,216.0,108.0,162.0,324.0,yellow,hexagon
0.0,5.0,1.0,1.0,7.0,4.0,381.6429970001991,2.0,1.0,phase_3,,,,,98.0,2.0,196.0,49.0,245.0,98.0,294.0,147.0,green,I
0.0,6.0,2.0,1.0,7.0,6.0,367.1544150001864,2.0,1.0,phase_3,,,,,132.0,3.0,176.0,220.0,88.0,44.0,264.0,132.0,blue,circle
0.0,4.0,4.0,0.0,7.0,6.0,271.42333699976,2.0,1.0,phase_3,,,,,195.0,5.0,78.0,234.0,117.0,156.0,39.0,195.0,magenta,diamond
0.0,1.0,1.0,0.0,7.0,6.0,406.7459259995303,2.0,1.0,phase_3,,,,,34.0,1.0,204.0,102.0,136.0,170.0,68.0,34.0,cyan,square
0.0,4.0,4.0,0.0,7.0,6.0,356.8070989995249,2.0,1.0,phase_3,,,,,132.0,3.0,44.0,176.0,264.0,220.0,88.0,132.0,magenta,diamond
0.0,8.0,4.0,1.0,7.0,6.0,784.155773000748,2.0,1.0,phase_3,,,,,34.0,1.0,68.0,170.0,102.0,136.0,204.0,34.0,orange,flipped triangle
0.0,7.0,3.0,1.0,7.0,6.0,458.5806330005653,2.0,1.0,phase_3,,,,,234.0,6.0,195.0,39.0,78.0,117.0,156.0,234.0,yellow,hexagon
0.0,2.0,2.0,0.0,7.0,2.0,338.0922599999394,2.0,1.0,phase_3,,,,,117.0,3.0,234.0,117.0,195.0,39.0,156.0,78.0,gray,cross
0.0,1.0,1.0,0.0,7.0,6.0,592.2037529999216,2.0,1.0,phase_3,,,,,147.0,3.0,196.0,245.0,98.0,294.0,49.0,147.0,cyan,square
0.0,4.0,4.0,0.0,7.0,2.0,413.9912850005203,2.0,1.0,phase_3,,,,,220.0,5.0,132.0,220.0,264.0,176.0,44.0,88.0,magenta,diamond
0.0,3.0,3.0,0.0,7.0,6.0,567.5252500004717,2.0,1.0,phase_3,,,,,132.0,3.0,220.0,176.0,44.0,88.0,264.0,132.0,white,triangle
0.0,1.0,1.0,0.0,7.0,2.0,365.5935790002331,2.0,1.0,phase_3,,,,,117.0,3.0,234.0,117.0,39.0,195.0,78.0,156.0,cyan,square
0.0,5.0,1.0,1.0,7.0,6.0,581.9774519995917,2.0,1.0,phase_3,,,,,245.0,5.0,294.0,147.0,49.0,196.0,98.0,245.0,green,I
0.0,3.0,3.0,0.0,7.0,3.0,99.3944729998475,2.0,1.0,phase_3,,,,,68.0,2.0,136.0,102.0,68.0,34.0,170.0,204.0,white,triangle
0.0,5.0,1.0,1.0,7.0,5.0,904.9324640000124,2.0,1.0,phase_3,,,,,170.0,5.0,68.0,136.0,102.0,34.0,170.0,204.0,green,I
0.0,7.0,3.0,1.0,7.0,1.0,1161.1437439996737,3.0,1.0,phase_3,,,,,102.0,3.0,102.0,204.0,136.0,170.0,34.0,68.0,yellow,hexagon
0.0,6.0,2.0,1.0,7.0,6.0,414.1484609999679,3.0,1.0,phase_3,,,,,136.0,4.0,204.0,170.0,68.0,102.0,34.0,136.0,blue,circle
0.0,4.0,4.0,0.0,7.0,2.0,665.9346759997788,3.0,1.0,phase_3,,,,,102.0,3.0,68.0,102.0,170.0,204.0,34.0,136.0,magenta,diamond
0.0,8.0,4.0,1.0,7.0,2.0,720.4974169999332,3.0,1.0,phase_3,,,,,108.0,2.0,54.0,108.0,324.0,162.0,216.0,270.0,orange,flipped triangle
0.0,8.0,4.0,1.0,7.0,1.0,646.670355000424,3.0,1.0,phase_3,,,,,162.0,3.0,162.0,270.0,216.0,324.0,54.0,108.0,orange,flipped triangle
0.0,4.0,4.0,0.0,7.0,4.0,846.078493999812,3.0,1.0,phase_3,,,,,136.0,4.0,102.0,204.0,34.0,136.0,170.0,68.0,magenta,diamond
0.0,1.0,1.0,0.0,7.0,3.0,835.3928830001678,3.0,1.0,phase_3,,,,,220.0,5.0,132.0,264.0,220.0,44.0,176.0,88.0,cyan,square
0.0,7.0,3.0,1.0,7.0,5.0,601.1890449999555,3.0,1.0,phase_3,,,,,196.0,4.0,98.0,294.0,245.0,49.0,196.0,147.0,yellow,hexagon
0.0,8.0,4.0,1.0,7.0,6.0,406.6675209996901,3.0,1.0,phase_3,,,,,234.0,6.0,195.0,78.0,156.0,39.0,117.0,234.0,orange,flipped triangle
0.0,3.0,3.0,0.0,7.0,3.0,417.1336599993083,3.0,1.0,phase_3,,,,,102.0,3.0,68.0,170.0,102.0,34.0,136.0,204.0,white,triangle
0.0,6.0,2.0,1.0,7.0,6.0,343.5982569999396,3.0,1.0,phase_3,,,,,117.0,3.0,156.0,78.0,39.0,234.0,195.0,117.0,blue,circle
0.0,5.0,1.0,1.0,7.0,4.0,367.7761950002605,3.0,1.0,phase_3,,,,,176.0,4.0,220.0,88.0,44.0,176.0,264.0,132.0,green,I
0.0,8.0,4.0,1.0,7.0,1.0,519.2679840001801,3.0,1.0,phase_3,,,,,88.0,2.0,88.0,264.0,132.0,44.0,176.0,220.0,orange,flipped triangle
0.0,2.0,2.0,0.0,7.0,3.0,766.5814729998601,3.0,1.0,phase_3,,,,,270.0,5.0,324.0,216.0,270.0,54.0,162.0,108.0,gray,cross
0.0,8.0,4.0,1.0,7.0,6.0,414.5198699998218,3.0,1.0,phase_3,,,,,68.0,2.0,170.0,204.0,136.0,34.0,102.0,68.0,orange,flipped triangle
0.0,4.0,4.0,0.0,7.0,4.0,526.9276660001196,3.0,1.0,phase_3,,,,,195.0,5.0,39.0,156.0,234.0,195.0,78.0,117.0,magenta,diamond
0.0,2.0,2.0,0.0,7.0,1.0,557.1422990005885,3.0,1.0,phase_3,,,,,102.0,3.0,102.0,34.0,68.0,204.0,136.0,170.0,gray,cross
0.0,7.0,3.0,1.0,7.0,3.0,480.4650019996188,3.0,1.0,phase_3,,,,,264.0,6.0,88.0,44.0,264.0,176.0,220.0,132.0,yellow,hexagon
0.0,3.0,3.0,0.0,7.0,6.0,340.7892609993723,3.0,1.0,phase_3,,,,,196.0,4.0,245.0,294.0,147.0,98.0,49.0,196.0,white,triangle
0.0,1.0,1.0,0.0,7.0,4.0,421.8737650007824,3.0,1.0,phase_3,,,,,176.0,4.0,132.0,264.0,44.0,176.0,88.0,220.0,cyan,square
0.0,8.0,4.0,1.0,7.0,2.0,1050.0306679996356,4.0,1.0,phase_3,,,,,78.0,2.0,39.0,78.0,234.0,156.0,195.0,117.0,orange,flipped triangle
0.0,3.0,3.0,0.0,7.0,6.0,524.6689599998717,4.0,1.0,phase_3,,,,,234.0,6.0,78.0,195.0,117.0,39.0,156.0,234.0,white,triangle
0.0,2.0,2.0,0.0,7.0,3.0,940.785316000074,4.0,1.0,phase_3,,,,,108.0,2.0,216.0,162.0,108.0,270.0,324.0,54.0,gray,cross
0.0,4.0,4.0,0.0,7.0,2.0,458.2648240002527,4.0,1.0,phase_3,,,,,245.0,5.0,98.0,245.0,294.0,147.0,196.0,49.0,magenta,diamond
0.0,3.0,3.0,0.0,7.0,6.0,529.6718989993678,4.0,1.0,phase_3,,,,,245.0,5.0,49.0,294.0,147.0,196.0,98.0,245.0,white,triangle
0.0,6.0,2.0,1.0,7.0,3.0,385.0334329999896,4.0,1.0,phase_3,,,,,270.0,5.0,216.0,162.0,270.0,54.0,108.0,324.0,blue,circle
0.0,5.0,1.0,1.0,7.0,6.0,913.5995579999872,4.0,1.0,phase_3,,,,,156.0,4.0,78.0,39.0,195.0,117.0,234.0,156.0,green,I
0.0,1.0,1.0,0.0,7.0,2.0,608.8947789994563,4.0,1.0,phase_3,,,,,78.0,2.0,156.0,78.0,39.0,117.0,195.0,234.0,cyan,square
0.0,5.0,1.0,1.0,7.0,6.0,382.8211930003817,4.0,1.0,phase_3,,,,,54.0,1.0,324.0,216.0,108.0,162.0,270.0,54.0,green,I
0.0,5.0,1.0,1.0,7.0,1.0,26.0196509998422,4.0,1.0,phase_3,,,,,132.0,3.0,132.0,220.0,264.0,88.0,176.0,44.0,green,I
0.0,6.0,2.0,1.0,7.0,4.0,710.172223999507,4.0,1.0,phase_3,,,,,264.0,6.0,176.0,44.0,132.0,264.0,220.0,88.0,blue,circle
0.0,2.0,2.0,0.0,7.0,1.0,551.1753900000258,4.0,1.0,phase_3,,,,,44.0,1.0,44.0,264.0,176.0,220.0,132.0,88.0,gray,cross
0.0,2.0,2.0,0.0,7.0,1.0,875.9728729992275,4.0,1.0,phase_3,,,,,245.0,5.0,245.0,49.0,196.0,294.0,98.0,147.0,gray,cross
0.0,7.0,3.0,1.0,7.0,6.0,657.2954679995746,4.0,1.0,phase_3,,,,,136.0,4.0,204.0,102.0,68.0,34.0,170.0,136.0,yellow,hexagon
0.0,7.0,3.0,1.0,7.0,4.0,324.8084060005567,4.0,1.0,phase_3,,,,,44.0,1.0,88.0,220.0,132.0,44.0,176.0,264.0,yellow,hexagon
0.0,3.0,3.0,0.0,7.0,1.0,547.6921810004569,4.0,1.0,phase_3,,,,,162.0,3.0,162.0,324.0,54.0,270.0,108.0,216.0,white,triangle
0.0,8.0,4.0,1.0,7.0,1.0,384.195433000059,4.0,1.0,phase_3,,,,,88.0,2.0,88.0,264.0,44.0,132.0,176.0,220.0,orange,flipped triangle
0.0,1.0,1.0,0.0,7.0,6.0,277.0997249999709,4.0,1.0,phase_3,,,,,324.0,6.0,216.0,108.0,270.0,162.0,54.0,324.0,cyan,square
0.0,1.0,1.0,0.0,7.0,1.0,486.4558379995287,4.0,1.0,phase_3,,,,,324.0,6.0,324.0,216.0,270.0,54.0,162.0,108.0,cyan,square
0.0,7.0,3.0,1.0,7.0,3.0,386.5095889996155,4.0,1.0,phase_3,,,,,54.0,1.0,216.0,270.0,54.0,108.0,324.0,162.0,yellow,hexagon
