raw_reward_magnitude,stim_reward,stepwise_reward_magnitude,paired_with_stopping,quadrant,response,reaction_time,block,num_trial_presentations,which_part,stop_signal_trial_type,left_SSD,right_SSD,accuracy,chosen_bidding_amount,chosen_bidding_level,possible_bid_1,possible_bid_2,possible_bid_3,possible_bid_4,possible_bid_5,possible_bid_6,color_text,shape_text
112.0,2.0,2.0,0.0,2.0,2.0,407.9726830000254,1.0,1.0,part_1,,,,,,,,,,,,,blue,square
194.0,3.0,3.0,0.0,2.0,2.0,422.990454000228,1.0,1.0,part_1,,,,,,,,,,,,,white,triangle
69.0,1.0,1.0,0.0,4.0,4.0,352.2844250001071,1.0,1.0,part_1,,,,,,,,,,,,,magenta,flipped triangle
115.0,6.0,2.0,1.0,3.0,3.0,310.2928809998957,1.0,1.0,part_1,,,,,,,,,,,,,green,hexagon
27.0,1.0,1.0,0.0,3.0,3.0,479.3287520001286,1.0,1.0,part_1,,,,,,,,,,,,,magenta,flipped triangle
384.0,4.0,4.0,0.0,2.0,2.0,306.043664000299,1.0,1.0,part_1,,,,,,,,,,,,,yellow,diamond
178.0,3.0,3.0,0.0,3.0,3.0,324.3328280000241,1.0,1.0,part_1,,,,,,,,,,,,,white,triangle
57.0,5.0,1.0,1.0,1.0,1.0,247.8670509999574,1.0,1.0,part_1,,,,,,,,,,,,,cyan,cross
107.0,6.0,2.0,1.0,2.0,2.0,314.4640389996311,1.0,1.0,part_1,,,,,,,,,,,,,green,hexagon
411.0,4.0,4.0,0.0,3.0,3.0,252.8284320001148,1.0,1.0,part_1,,,,,,,,,,,,,yellow,diamond
0.0,1.0,0.0,0.0,4.0,4.0,303.3828120001089,1.0,1.0,part_1,,,,,,,,,,,,,magenta,flipped triangle
224.0,3.0,3.0,0.0,4.0,4.0,369.2518339998969,1.0,1.0,part_1,,,,,,,,,,,,,white,triangle
110.0,2.0,2.0,0.0,3.0,3.0,288.8956090000647,1.0,1.0,part_1,,,,,,,,,,,,,blue,square
0.0,1.0,0.0,0.0,4.0,4.0,296.900198000003,1.0,1.0,part_1,,,,,,,,,,,,,magenta,flipped triangle
58.0,1.0,1.0,0.0,3.0,3.0,327.6005030002125,1.0,1.0,part_1,,,,,,,,,,,,,magenta,flipped triangle
0.0,7.0,0.0,1.0,1.0,1.0,280.2792019997469,1.0,1.0,part_1,,,,,,,,,,,,,gray,I
224.0,3.0,3.0,0.0,1.0,1.0,360.6459050001831,1.0,1.0,part_1,,,,,,,,,,,,,white,triangle
61.0,5.0,1.0,1.0,1.0,1.0,309.9642979996133,1.0,1.0,part_1,,,,,,,,,,,,,cyan,cross
197.0,7.0,3.0,1.0,3.0,3.0,252.0583709997481,1.0,1.0,part_1,,,,,,,,,,,,,gray,I
74.0,1.0,1.0,0.0,2.0,2.0,319.2129379999642,1.0,1.0,part_1,,,,,,,,,,,,,magenta,flipped triangle
96.0,2.0,2.0,0.0,3.0,3.0,356.4485329998206,1.0,1.0,part_1,,,,,,,,,,,,,blue,square
383.0,4.0,4.0,0.0,2.0,2.0,302.6765320000777,1.0,1.0,part_1,,,,,,,,,,,,,yellow,diamond
101.0,2.0,2.0,0.0,1.0,1.0,253.9350330002889,1.0,1.0,part_1,,,,,,,,,,,,,blue,square
125.0,6.0,2.0,1.0,3.0,3.0,282.7859159997388,1.0,1.0,part_1,,,,,,,,,,,,,green,hexagon
217.0,7.0,3.0,1.0,1.0,1.0,268.8202799999999,1.0,1.0,part_1,,,,,,,,,,,,,gray,I
39.0,5.0,1.0,1.0,3.0,3.0,307.4253069999031,1.0,1.0,part_1,,,,,,,,,,,,,cyan,cross
0.0,5.0,0.0,1.0,1.0,1.0,303.1310530000155,1.0,2.0,part_1,,,,,,,,,,,,,cyan,cross
407.0,4.0,4.0,0.0,2.0,2.0,305.6995730003109,1.0,2.0,part_1,,,,,,,,,,,,,yellow,diamond
117.0,2.0,2.0,0.0,2.0,2.0,372.2301990001142,1.0,1.0,part_1,,,,,,,,,,,,,blue,square
61.0,1.0,1.0,0.0,1.0,1.0,282.4514419999104,1.0,1.0,part_1,,,,,,,,,,,,,magenta,flipped triangle
409.0,4.0,4.0,0.0,2.0,2.0,272.3826449996522,1.0,1.0,part_1,,,,,,,,,,,,,yellow,diamond
41.0,1.0,1.0,0.0,1.0,1.0,333.2945259999178,1.0,1.0,part_1,,,,,,,,,,,,,magenta,flipped triangle
120.0,6.0,2.0,1.0,1.0,1.0,321.6174570002295,1.0,1.0,part_1,,,,,,,,,,,,,green,hexagon
189.0,3.0,3.0,0.0,2.0,2.0,327.1468060002007,1.0,2.0,part_1,,,,,,,,,,,,,white,triangle
95.0,6.0,2.0,1.0,4.0,4.0,300.1946269996551,1.0,1.0,part_1,,,,,,,,,,,,,green,hexagon
217.0,3.0,3.0,0.0,3.0,3.0,332.2918359999676,1.0,1.0,part_1,,,,,,,,,,,,,white,triangle
386.0,8.0,4.0,1.0,4.0,4.0,277.7625170001556,1.0,1.0,part_1,,,,,,,,,,,,,orange,circle
117.0,6.0,2.0,1.0,1.0,1.0,308.610513000076,1.0,1.0,part_1,,,,,,,,,,,,,green,hexagon
0.0,3.0,0.0,0.0,3.0,3.0,297.0665869997901,1.0,1.0,part_1,,,,,,,,,,,,,white,triangle
418.0,4.0,4.0,0.0,1.0,1.0,242.9625140002826,1.0,1.0,part_1,,,,,,,,,,,,,yellow,diamond
69.0,5.0,1.0,1.0,2.0,2.0,307.507945999987,1.0,1.0,part_1,,,,,,,,,,,,,cyan,cross
213.0,7.0,3.0,1.0,2.0,2.0,302.1925819998614,1.0,1.0,part_1,,,,,,,,,,,,,gray,I
0.0,4.0,0.0,0.0,1.0,1.0,285.5745890001344,1.0,1.0,part_1,,,,,,,,,,,,,yellow,diamond
109.0,6.0,2.0,1.0,1.0,1.0,289.4354759996531,1.0,1.0,part_1,,,,,,,,,,,,,green,hexagon
65.0,1.0,1.0,0.0,1.0,1.0,272.1376660001624,1.0,1.0,part_1,,,,,,,,,,,,,magenta,flipped triangle
204.0,7.0,3.0,1.0,1.0,1.0,260.993437000252,1.0,1.0,part_1,,,,,,,,,,,,,gray,I
402.0,4.0,4.0,0.0,3.0,3.0,323.6493730000802,1.0,1.0,part_1,,,,,,,,,,,,,yellow,diamond
80.0,6.0,2.0,1.0,2.0,2.0,331.2219669996921,1.0,1.0,part_1,,,,,,,,,,,,,green,hexagon
0.0,8.0,0.0,1.0,4.0,4.0,354.7630860002755,1.0,2.0,part_1,,,,,,,,,,,,,orange,circle
208.0,3.0,3.0,0.0,3.0,3.0,282.0001949999096,1.0,1.0,part_1,,,,,,,,,,,,,white,triangle
183.0,3.0,3.0,0.0,3.0,3.0,289.3835959998796,1.0,1.0,part_1,,,,,,,,,,,,,white,triangle
117.0,6.0,2.0,1.0,1.0,1.0,264.7770899998249,1.0,1.0,part_1,,,,,,,,,,,,,green,hexagon
189.0,7.0,3.0,1.0,1.0,1.0,321.4530249997551,1.0,1.0,part_1,,,,,,,,,,,,,gray,I
392.0,8.0,4.0,1.0,1.0,1.0,314.9156330000551,1.0,2.0,part_1,,,,,,,,,,,,,orange,circle
0.0,2.0,0.0,0.0,4.0,4.0,269.9881630001073,1.0,1.0,part_1,,,,,,,,,,,,,blue,square
180.0,3.0,3.0,0.0,4.0,4.0,257.4217600003976,1.0,1.0,part_1,,,,,,,,,,,,,white,triangle
206.0,7.0,3.0,1.0,1.0,1.0,274.4206279999162,1.0,1.0,part_1,,,,,,,,,,,,,gray,I
0.0,6.0,0.0,1.0,3.0,3.0,289.8865600000135,1.0,1.0,part_1,,,,,,,,,,,,,green,hexagon
44.0,1.0,1.0,0.0,3.0,3.0,361.0108370003217,1.0,1.0,part_1,,,,,,,,,,,,,magenta,flipped triangle
27.0,5.0,1.0,1.0,4.0,4.0,307.0316389998879,1.0,1.0,part_1,,,,,,,,,,,,,cyan,cross
0.0,7.0,0.0,1.0,4.0,4.0,304.4602079999094,1.0,1.0,part_1,,,,,,,,,,,,,gray,I
205.0,3.0,3.0,0.0,3.0,3.0,313.3246130000771,1.0,1.0,part_1,,,,,,,,,,,,,white,triangle
85.0,2.0,2.0,0.0,2.0,2.0,329.0892350000831,1.0,1.0,part_1,,,,,,,,,,,,,blue,square
50.0,5.0,1.0,1.0,3.0,3.0,281.1521899998297,1.0,1.0,part_1,,,,,,,,,,,,,cyan,cross
392.0,4.0,4.0,0.0,1.0,1.0,292.8070089997163,1.0,1.0,part_1,,,,,,,,,,,,,yellow,diamond
206.0,3.0,3.0,0.0,2.0,2.0,273.4324409998407,1.0,1.0,part_1,,,,,,,,,,,,,white,triangle
74.0,5.0,1.0,1.0,2.0,2.0,304.3429089998426,1.0,1.0,part_1,,,,,,,,,,,,,cyan,cross
200.0,7.0,3.0,1.0,3.0,3.0,296.8838100000539,1.0,1.0,part_1,,,,,,,,,,,,,gray,I
27.0,1.0,1.0,0.0,1.0,1.0,280.376215999695,1.0,1.0,part_1,,,,,,,,,,,,,magenta,flipped triangle
394.0,4.0,4.0,0.0,1.0,1.0,297.9224949999661,1.0,1.0,part_1,,,,,,,,,,,,,yellow,diamond
53.0,1.0,1.0,0.0,4.0,4.0,284.6880239999336,1.0,1.0,part_1,,,,,,,,,,,,,magenta,flipped triangle
122.0,6.0,2.0,1.0,4.0,4.0,316.4781539999239,1.0,1.0,part_1,,,,,,,,,,,,,green,hexagon
0.0,1.0,0.0,0.0,2.0,2.0,302.2003040000527,1.0,1.0,part_1,,,,,,,,,,,,,magenta,flipped triangle
102.0,6.0,2.0,1.0,3.0,3.0,269.9776949998522,1.0,1.0,part_1,,,,,,,,,,,,,green,hexagon
88.0,6.0,2.0,1.0,4.0,4.0,280.1306030000887,1.0,1.0,part_1,,,,,,,,,,,,,green,hexagon
183.0,7.0,3.0,1.0,4.0,4.0,272.5170710000384,1.0,1.0,part_1,,,,,,,,,,,,,gray,I
67.0,5.0,1.0,1.0,4.0,4.0,313.2769699996061,1.0,1.0,part_1,,,,,,,,,,,,,cyan,cross
199.0,7.0,3.0,1.0,4.0,4.0,300.8323239996571,1.0,1.0,part_1,,,,,,,,,,,,,gray,I
109.0,2.0,2.0,0.0,4.0,4.0,249.1312460001609,1.0,1.0,part_1,,,,,,,,,,,,,blue,square
402.0,4.0,4.0,0.0,1.0,1.0,345.3036190003331,1.0,1.0,part_1,,,,,,,,,,,,,yellow,diamond
46.0,1.0,1.0,0.0,3.0,3.0,266.0889980002139,1.0,1.0,part_1,,,,,,,,,,,,,magenta,flipped triangle
41.0,5.0,1.0,1.0,2.0,2.0,298.8922330000605,1.0,1.0,part_1,,,,,,,,,,,,,cyan,cross
194.0,7.0,3.0,1.0,3.0,3.0,316.5745180003796,1.0,1.0,part_1,,,,,,,,,,,,,gray,I
35.0,1.0,1.0,0.0,1.0,1.0,322.619288000169,1.0,1.0,part_1,,,,,,,,,,,,,magenta,flipped triangle
85.0,6.0,2.0,1.0,1.0,1.0,295.728360999874,1.0,1.0,part_1,,,,,,,,,,,,,green,hexagon
181.0,7.0,3.0,1.0,2.0,2.0,281.3602169999285,1.0,1.0,part_1,,,,,,,,,,,,,gray,I
0.0,6.0,0.0,1.0,3.0,3.0,309.2804559996693,1.0,1.0,part_1,,,,,,,,,,,,,green,hexagon
0.0,7.0,0.0,1.0,3.0,3.0,297.2457490000124,1.0,1.0,part_1,,,,,,,,,,,,,gray,I
35.0,1.0,1.0,0.0,1.0,1.0,328.6848309999186,1.0,1.0,part_1,,,,,,,,,,,,,magenta,flipped triangle
204.0,7.0,3.0,1.0,1.0,1.0,302.1230280000964,1.0,1.0,part_1,,,,,,,,,,,,,gray,I
123.0,6.0,2.0,1.0,4.0,4.0,318.79455899979797,1.0,1.0,part_1,,,,,,,,,,,,,green,hexagon
425.0,4.0,4.0,0.0,2.0,2.0,343.2113630001367,1.0,1.0,part_1,,,,,,,,,,,,,yellow,diamond
95.0,2.0,2.0,0.0,4.0,4.0,273.9039540001613,1.0,1.0,part_1,,,,,,,,,,,,,blue,square
0.0,7.0,0.0,1.0,2.0,2.0,335.8983590001116,1.0,1.0,part_1,,,,,,,,,,,,,gray,I
204.0,3.0,3.0,0.0,3.0,3.0,326.8864110000322,1.0,1.0,part_1,,,,,,,,,,,,,white,triangle
183.0,7.0,3.0,1.0,4.0,4.0,331.4924169999358,1.0,1.0,part_1,,,,,,,,,,,,,gray,I
82.0,2.0,2.0,0.0,1.0,1.0,286.6343410000809,1.0,1.0,part_1,,,,,,,,,,,,,blue,square
0.0,7.0,0.0,1.0,3.0,3.0,286.5894810001919,1.0,1.0,part_1,,,,,,,,,,,,,gray,I
67.0,1.0,1.0,0.0,2.0,2.0,310.5667679997168,1.0,1.0,part_1,,,,,,,,,,,,,magenta,flipped triangle
0.0,1.0,0.0,0.0,3.0,3.0,372.5683819998266,1.0,1.0,part_1,,,,,,,,,,,,,magenta,flipped triangle
386.0,4.0,4.0,0.0,3.0,3.0,287.0745870000064,2.0,1.0,part_1,,,,,,,,,,,,,yellow,diamond
376.0,8.0,4.0,1.0,3.0,3.0,224.5497399999294,2.0,1.0,part_1,,,,,,,,,,,,,orange,circle
384.0,8.0,4.0,1.0,4.0,4.0,241.1006890001772,2.0,1.0,part_1,,,,,,,,,,,,,orange,circle
39.0,1.0,1.0,0.0,4.0,4.0,300.5170170004021,2.0,1.0,part_1,,,,,,,,,,,,,magenta,flipped triangle
0.0,4.0,0.0,0.0,1.0,1.0,245.0082370000927,2.0,1.0,part_1,,,,,,,,,,,,,yellow,diamond
73.0,5.0,1.0,1.0,4.0,4.0,303.5728360000576,2.0,1.0,part_1,,,,,,,,,,,,,cyan,cross
0.0,5.0,0.0,1.0,4.0,4.0,281.3457729998845,2.0,1.0,part_1,,,,,,,,,,,,,cyan,cross
403.0,4.0,4.0,0.0,1.0,1.0,274.2189320001671,2.0,1.0,part_1,,,,,,,,,,,,,yellow,diamond
387.0,8.0,4.0,1.0,3.0,3.0,303.0089459998635,2.0,1.0,part_1,,,,,,,,,,,,,orange,circle
27.0,5.0,1.0,1.0,1.0,1.0,253.08040799973242,2.0,1.0,part_1,,,,,,,,,,,,,cyan,cross
50.0,1.0,1.0,0.0,2.0,2.0,256.8388350000532,2.0,1.0,part_1,,,,,,,,,,,,,magenta,flipped triangle
407.0,8.0,4.0,1.0,4.0,4.0,271.9137809999665,2.0,1.0,part_1,,,,,,,,,,,,,orange,circle
376.0,8.0,4.0,1.0,1.0,1.0,219.12952699995,2.0,1.0,part_1,,,,,,,,,,,,,orange,circle
0.0,3.0,0.0,0.0,3.0,3.0,270.9272069996586,2.0,1.0,part_1,,,,,,,,,,,,,white,triangle
402.0,4.0,4.0,0.0,4.0,4.0,294.6531499997036,2.0,2.0,part_1,,,,,,,,,,,,,yellow,diamond
180.0,7.0,3.0,1.0,2.0,2.0,298.4644079997451,2.0,1.0,part_1,,,,,,,,,,,,,gray,I
101.0,2.0,2.0,0.0,1.0,1.0,217.7395650001017,2.0,1.0,part_1,,,,,,,,,,,,,blue,square
183.0,3.0,3.0,0.0,1.0,1.0,268.2179640000868,2.0,1.0,part_1,,,,,,,,,,,,,white,triangle
0.0,5.0,0.0,1.0,2.0,2.0,278.388559999712,2.0,1.0,part_1,,,,,,,,,,,,,cyan,cross
103.0,6.0,2.0,1.0,4.0,4.0,273.7142099999801,2.0,1.0,part_1,,,,,,,,,,,,,green,hexagon
197.0,3.0,3.0,0.0,4.0,4.0,311.1937249996117,2.0,1.0,part_1,,,,,,,,,,,,,white,triangle
379.0,8.0,4.0,1.0,4.0,4.0,317.5923459998557,2.0,2.0,part_1,,,,,,,,,,,,,orange,circle
106.0,6.0,2.0,1.0,3.0,3.0,324.7779759999503,2.0,1.0,part_1,,,,,,,,,,,,,green,hexagon
116.0,6.0,2.0,1.0,2.0,2.0,290.561735999745,2.0,1.0,part_1,,,,,,,,,,,,,green,hexagon
0.0,2.0,0.0,0.0,2.0,2.0,342.9662909998114,2.0,1.0,part_1,,,,,,,,,,,,,blue,square
212.0,3.0,3.0,0.0,2.0,2.0,315.4427590002342,2.0,1.0,part_1,,,,,,,,,,,,,white,triangle
69.0,5.0,1.0,1.0,4.0,4.0,305.7877960000041,2.0,1.0,part_1,,,,,,,,,,,,,cyan,cross
0.0,3.0,0.0,0.0,3.0,3.0,346.7489909999131,2.0,1.0,part_1,,,,,,,,,,,,,white,triangle
223.0,7.0,3.0,1.0,2.0,2.0,308.6912869998741,2.0,1.0,part_1,,,,,,,,,,,,,gray,I
0.0,5.0,0.0,1.0,3.0,3.0,277.9082970000672,2.0,1.0,part_1,,,,,,,,,,,,,cyan,cross
0.0,8.0,0.0,1.0,3.0,3.0,315.3722729998662,2.0,1.0,part_1,,,,,,,,,,,,,orange,circle
0.0,8.0,0.0,1.0,3.0,3.0,279.2267380000339,2.0,1.0,part_1,,,,,,,,,,,,,orange,circle
219.0,3.0,3.0,0.0,2.0,2.0,334.9903899998026,2.0,1.0,part_1,,,,,,,,,,,,,white,triangle
203.0,7.0,3.0,1.0,1.0,1.0,333.1814549997034,2.0,1.0,part_1,,,,,,,,,,,,,gray,I
96.0,6.0,2.0,1.0,2.0,2.0,292.8057620001709,2.0,1.0,part_1,,,,,,,,,,,,,green,hexagon
0.0,1.0,0.0,0.0,3.0,3.0,284.1600860001563,2.0,1.0,part_1,,,,,,,,,,,,,magenta,flipped triangle
394.0,8.0,4.0,1.0,4.0,4.0,299.4885819998671,2.0,1.0,part_1,,,,,,,,,,,,,orange,circle
423.0,4.0,4.0,0.0,4.0,4.0,303.8580699999329,2.0,1.0,part_1,,,,,,,,,,,,,yellow,diamond
387.0,8.0,4.0,1.0,2.0,2.0,249.7132680000504,2.0,1.0,part_1,,,,,,,,,,,,,orange,circle
0.0,1.0,0.0,0.0,4.0,4.0,268.883052000092,2.0,1.0,part_1,,,,,,,,,,,,,magenta,flipped triangle
205.0,7.0,3.0,1.0,3.0,3.0,267.99316000006,2.0,1.0,part_1,,,,,,,,,,,,,gray,I
37.0,5.0,1.0,1.0,3.0,3.0,295.6706939999094,2.0,1.0,part_1,,,,,,,,,,,,,cyan,cross
69.0,1.0,1.0,0.0,2.0,2.0,306.8388849997063,2.0,1.0,part_1,,,,,,,,,,,,,magenta,flipped triangle
193.0,7.0,3.0,1.0,2.0,2.0,287.3044660000232,2.0,1.0,part_1,,,,,,,,,,,,,gray,I
381.0,8.0,4.0,1.0,3.0,3.0,275.0108959999124,2.0,1.0,part_1,,,,,,,,,,,,,orange,circle
379.0,8.0,4.0,1.0,2.0,2.0,265.6265579998944,2.0,1.0,part_1,,,,,,,,,,,,,orange,circle
0.0,2.0,0.0,0.0,1.0,1.0,226.2923459998091,2.0,1.0,part_1,,,,,,,,,,,,,blue,square
35.0,5.0,1.0,1.0,1.0,1.0,238.5367919996497,2.0,1.0,part_1,,,,,,,,,,,,,cyan,cross
59.0,5.0,1.0,1.0,4.0,4.0,303.2527370000935,2.0,1.0,part_1,,,,,,,,,,,,,cyan,cross
196.0,3.0,3.0,0.0,2.0,2.0,289.3340959999477,2.0,1.0,part_1,,,,,,,,,,,,,white,triangle
0.0,5.0,0.0,1.0,4.0,4.0,246.7269230000965,2.0,1.0,part_1,,,,,,,,,,,,,cyan,cross
379.0,4.0,4.0,0.0,3.0,3.0,240.2055150000706,2.0,1.0,part_1,,,,,,,,,,,,,yellow,diamond
177.0,7.0,3.0,1.0,1.0,1.0,292.3263799998494,2.0,1.0,part_1,,,,,,,,,,,,,gray,I
0.0,1.0,0.0,0.0,3.0,3.0,269.7290750002139,2.0,1.0,part_1,,,,,,,,,,,,,magenta,flipped triangle
86.0,6.0,2.0,1.0,2.0,2.0,282.4898809999467,2.0,2.0,part_1,,,,,,,,,,,,,green,hexagon
122.0,2.0,2.0,0.0,1.0,1.0,283.5269629999857,2.0,1.0,part_1,,,,,,,,,,,,,blue,square
0.0,8.0,0.0,1.0,3.0,3.0,282.5926020000224,2.0,1.0,part_1,,,,,,,,,,,,,orange,circle
212.0,7.0,3.0,1.0,4.0,4.0,283.4150819999195,2.0,1.0,part_1,,,,,,,,,,,,,gray,I
223.0,7.0,3.0,1.0,3.0,3.0,317.0048550000501,2.0,1.0,part_1,,,,,,,,,,,,,gray,I
35.0,5.0,1.0,1.0,4.0,4.0,283.6691090001295,2.0,1.0,part_1,,,,,,,,,,,,,cyan,cross
0.0,2.0,0.0,0.0,2.0,2.0,209.6870430000308,2.0,1.0,part_1,,,,,,,,,,,,,blue,square
28.0,1.0,1.0,0.0,3.0,3.0,351.2304620003306,2.0,1.0,part_1,,,,,,,,,,,,,magenta,flipped triangle
83.0,2.0,2.0,0.0,1.0,1.0,326.6498230000252,2.0,1.0,part_1,,,,,,,,,,,,,blue,square
102.0,2.0,2.0,0.0,3.0,3.0,267.6424840001346,2.0,1.0,part_1,,,,,,,,,,,,,blue,square
376.0,4.0,4.0,0.0,2.0,2.0,217.0565010001155,2.0,1.0,part_1,,,,,,,,,,,,,yellow,diamond
0.0,6.0,0.0,1.0,1.0,1.0,258.7281119999716,2.0,1.0,part_1,,,,,,,,,,,,,green,hexagon
0.0,4.0,0.0,0.0,1.0,1.0,312.424571000065,2.0,1.0,part_1,,,,,,,,,,,,,yellow,diamond
83.0,2.0,2.0,0.0,3.0,3.0,247.6197149999279,2.0,1.0,part_1,,,,,,,,,,,,,blue,square
67.0,1.0,1.0,0.0,3.0,3.0,275.8480659999804,2.0,2.0,part_1,,,,,,,,,,,,,magenta,flipped triangle
421.0,4.0,4.0,0.0,4.0,4.0,304.917617999763,2.0,1.0,part_1,,,,,,,,,,,,,yellow,diamond
43.0,5.0,1.0,1.0,4.0,4.0,291.3497780000398,2.0,1.0,part_1,,,,,,,,,,,,,cyan,cross
112.0,6.0,2.0,1.0,1.0,1.0,272.7190089999567,2.0,1.0,part_1,,,,,,,,,,,,,green,hexagon
123.0,6.0,2.0,1.0,3.0,3.0,288.6420929999076,2.0,1.0,part_1,,,,,,,,,,,,,green,hexagon
44.0,5.0,1.0,1.0,2.0,2.0,271.3484209998569,2.0,1.0,part_1,,,,,,,,,,,,,cyan,cross
54.0,5.0,1.0,1.0,1.0,1.0,468.5196280001946,2.0,1.0,part_1,,,,,,,,,,,,,cyan,cross
54.0,1.0,1.0,0.0,1.0,1.0,288.5271670002112,2.0,1.0,part_1,,,,,,,,,,,,,magenta,flipped triangle
219.0,7.0,3.0,1.0,3.0,3.0,310.4407880000508,2.0,1.0,part_1,,,,,,,,,,,,,gray,I
41.0,1.0,1.0,0.0,2.0,2.0,265.6127470004321,2.0,1.0,part_1,,,,,,,,,,,,,magenta,flipped triangle
200.0,3.0,3.0,0.0,4.0,4.0,238.4214040002916,2.0,1.0,part_1,,,,,,,,,,,,,white,triangle
67.0,5.0,1.0,1.0,1.0,1.0,256.2066929999673,2.0,1.0,part_1,,,,,,,,,,,,,cyan,cross
74.0,1.0,1.0,0.0,4.0,4.0,255.61027999992803,2.0,1.0,part_1,,,,,,,,,,,,,magenta,flipped triangle
379.0,4.0,4.0,0.0,4.0,4.0,261.4630900002339,2.0,1.0,part_1,,,,,,,,,,,,,yellow,diamond
213.0,3.0,3.0,0.0,1.0,1.0,261.2330059996566,2.0,1.0,part_1,,,,,,,,,,,,,white,triangle
200.0,3.0,3.0,0.0,2.0,2.0,290.182545999869,2.0,1.0,part_1,,,,,,,,,,,,,white,triangle
0.0,3.0,0.0,0.0,1.0,1.0,267.2187339999254,2.0,1.0,part_1,,,,,,,,,,,,,white,triangle
32.0,5.0,1.0,1.0,3.0,3.0,342.6647930000399,2.0,1.0,part_1,,,,,,,,,,,,,cyan,cross
403.0,8.0,4.0,1.0,4.0,4.0,272.7037340000606,2.0,1.0,part_1,,,,,,,,,,,,,orange,circle
0.0,3.0,0.0,0.0,4.0,4.0,264.5976300000257,2.0,1.0,part_1,,,,,,,,,,,,,white,triangle
59.0,1.0,1.0,0.0,3.0,3.0,293.2931589998588,2.0,1.0,part_1,,,,,,,,,,,,,magenta,flipped triangle
0.0,7.0,0.0,1.0,4.0,4.0,230.0555169999825,2.0,1.0,part_1,,,,,,,,,,,,,gray,I
399.0,8.0,4.0,1.0,1.0,1.0,298.6062549998678,2.0,1.0,part_1,,,,,,,,,,,,,orange,circle
206.0,7.0,3.0,1.0,2.0,2.0,311.3797470000463,2.0,1.0,part_1,,,,,,,,,,,,,gray,I
187.0,7.0,3.0,1.0,3.0,3.0,284.3104849998781,2.0,1.0,part_1,,,,,,,,,,,,,gray,I
0.0,1.0,0.0,0.0,3.0,3.0,352.7654180002173,2.0,1.0,part_1,,,,,,,,,,,,,magenta,flipped triangle
206.0,7.0,3.0,1.0,1.0,1.0,262.4135060000299,2.0,1.0,part_1,,,,,,,,,,,,,gray,I
44.0,1.0,1.0,0.0,4.0,4.0,288.8440229999105,2.0,1.0,part_1,,,,,,,,,,,,,magenta,flipped triangle
0.0,6.0,0.0,1.0,2.0,2.0,241.8450649997794,2.0,1.0,part_1,,,,,,,,,,,,,green,hexagon
35.0,5.0,1.0,1.0,3.0,3.0,272.20731899979,2.0,1.0,part_1,,,,,,,,,,,,,cyan,cross
86.0,2.0,2.0,0.0,4.0,4.0,263.4593350003342,2.0,1.0,part_1,,,,,,,,,,,,,blue,square
387.0,4.0,4.0,0.0,4.0,4.0,250.1989879997381,2.0,1.0,part_1,,,,,,,,,,,,,yellow,diamond
80.0,2.0,2.0,0.0,1.0,1.0,268.4807620007632,3.0,1.0,part_1,,,,,,,,,,,,,blue,square
206.0,3.0,3.0,0.0,4.0,4.0,356.1419550005666,3.0,1.0,part_1,,,,,,,,,,,,,white,triangle
46.0,5.0,1.0,1.0,2.0,2.0,297.7855199997066,3.0,1.0,part_1,,,,,,,,,,,,,cyan,cross
86.0,2.0,2.0,0.0,2.0,2.0,231.304853000438,3.0,1.0,part_1,,,,,,,,,,,,,blue,square
189.0,7.0,3.0,1.0,4.0,4.0,287.1896749993539,3.0,1.0,part_1,,,,,,,,,,,,,gray,I
123.0,2.0,2.0,0.0,3.0,3.0,288.1417649996365,3.0,1.0,part_1,,,,,,,,,,,,,blue,square
0.0,6.0,0.0,1.0,2.0,2.0,239.4247339998401,3.0,1.0,part_1,,,,,,,,,,,,,green,hexagon
40.0,1.0,1.0,0.0,1.0,1.0,318.6265980002645,3.0,1.0,part_1,,,,,,,,,,,,,magenta,flipped triangle
0.0,7.0,0.0,1.0,2.0,2.0,294.0110749996165,3.0,1.0,part_1,,,,,,,,,,,,,gray,I
85.0,2.0,2.0,0.0,3.0,3.0,310.5310090004423,3.0,1.0,part_1,,,,,,,,,,,,,blue,square
102.0,6.0,2.0,1.0,1.0,1.0,238.3142679991579,3.0,1.0,part_1,,,,,,,,,,,,,green,hexagon
123.0,2.0,2.0,0.0,4.0,4.0,295.6426930004454,3.0,1.0,part_1,,,,,,,,,,,,,blue,square
73.0,1.0,1.0,0.0,2.0,2.0,234.2881340000531,3.0,1.0,part_1,,,,,,,,,,,,,magenta,flipped triangle
411.0,8.0,4.0,1.0,2.0,2.0,265.5736890001208,3.0,1.0,part_1,,,,,,,,,,,,,orange,circle
0.0,4.0,0.0,0.0,2.0,2.0,309.4156809993365,3.0,1.0,part_1,,,,,,,,,,,,,yellow,diamond
424.0,8.0,4.0,1.0,3.0,3.0,290.882975000386,3.0,1.0,part_1,,,,,,,,,,,,,orange,circle
101.0,6.0,2.0,1.0,1.0,1.0,255.50297800054977,3.0,1.0,part_1,,,,,,,,,,,,,green,hexagon
416.0,4.0,4.0,0.0,2.0,2.0,216.2796120001076,3.0,1.0,part_1,,,,,,,,,,,,,yellow,diamond
399.0,4.0,4.0,0.0,3.0,3.0,297.5216590002674,3.0,1.0,part_1,,,,,,,,,,,,,yellow,diamond
195.0,3.0,3.0,0.0,1.0,1.0,244.9989340002503,3.0,1.0,part_1,,,,,,,,,,,,,white,triangle
0.0,6.0,0.0,1.0,3.0,3.0,318.9195420000033,3.0,2.0,part_1,,,,,,,,,,,,,green,hexagon
383.0,8.0,4.0,1.0,3.0,3.0,279.3590690007477,3.0,1.0,part_1,,,,,,,,,,,,,orange,circle
0.0,3.0,0.0,0.0,2.0,2.0,296.12170000018517,3.0,1.0,part_1,,,,,,,,,,,,,white,triangle
186.0,7.0,3.0,1.0,1.0,1.0,326.1815249998108,3.0,1.0,part_1,,,,,,,,,,,,,gray,I
95.0,2.0,2.0,0.0,4.0,4.0,316.7651969997678,3.0,1.0,part_1,,,,,,,,,,,,,blue,square
113.0,6.0,2.0,1.0,4.0,4.0,370.5704600006356,3.0,1.0,part_1,,,,,,,,,,,,,green,hexagon
0.0,2.0,0.0,0.0,2.0,2.0,351.7590049996215,3.0,1.0,part_1,,,,,,,,,,,,,blue,square
37.0,1.0,1.0,0.0,2.0,2.0,412.4099969994859,3.0,1.0,part_1,,,,,,,,,,,,,magenta,flipped triangle
187.0,3.0,3.0,0.0,3.0,3.0,286.3638129992978,3.0,1.0,part_1,,,,,,,,,,,,,white,triangle
55.0,5.0,1.0,1.0,1.0,1.0,246.656004000215,3.0,1.0,part_1,,,,,,,,,,,,,cyan,cross
101.0,6.0,2.0,1.0,3.0,3.0,290.1777730003232,3.0,1.0,part_1,,,,,,,,,,,,,green,hexagon
384.0,4.0,4.0,0.0,3.0,3.0,321.8621419991905,3.0,1.0,part_1,,,,,,,,,,,,,yellow,diamond
103.0,2.0,2.0,0.0,1.0,1.0,289.0661049996197,3.0,1.0,part_1,,,,,,,,,,,,,blue,square
86.0,6.0,2.0,1.0,4.0,4.0,283.8458679998439,3.0,1.0,part_1,,,,,,,,,,,,,green,hexagon
30.0,5.0,1.0,1.0,4.0,4.0,288.4890260002066,3.0,1.0,part_1,,,,,,,,,,,,,cyan,cross
383.0,4.0,4.0,0.0,4.0,4.0,272.4161989999629,3.0,1.0,part_1,,,,,,,,,,,,,yellow,diamond
0.0,2.0,0.0,0.0,1.0,1.0,293.329757999345,3.0,1.0,part_1,,,,,,,,,,,,,blue,square
408.0,4.0,4.0,0.0,1.0,1.0,274.9587880007311,3.0,1.0,part_1,,,,,,,,,,,,,yellow,diamond
43.0,1.0,1.0,0.0,1.0,1.0,257.2745280003801,3.0,1.0,part_1,,,,,,,,,,,,,magenta,flipped triangle
117.0,2.0,2.0,0.0,1.0,1.0,255.58749699939648,3.0,1.0,part_1,,,,,,,,,,,,,blue,square
424.0,4.0,4.0,0.0,4.0,4.0,303.2862609998119,3.0,1.0,part_1,,,,,,,,,,,,,yellow,diamond
0.0,8.0,0.0,1.0,1.0,1.0,240.4729199997746,3.0,1.0,part_1,,,,,,,,,,,,,orange,circle
393.0,8.0,4.0,1.0,1.0,1.0,277.0368840001538,3.0,1.0,part_1,,,,,,,,,,,,,orange,circle
96.0,6.0,2.0,1.0,2.0,2.0,262.7052440002444,3.0,1.0,part_1,,,,,,,,,,,,,green,hexagon
189.0,3.0,3.0,0.0,4.0,4.0,267.9086849993837,3.0,1.0,part_1,,,,,,,,,,,,,white,triangle
0.0,2.0,0.0,0.0,4.0,4.0,281.6768760003469,3.0,1.0,part_1,,,,,,,,,,,,,blue,square
198.0,3.0,3.0,0.0,4.0,4.0,322.1926169999278,3.0,1.0,part_1,,,,,,,,,,,,,white,triangle
206.0,3.0,3.0,0.0,2.0,2.0,270.634274999793,3.0,1.0,part_1,,,,,,,,,,,,,white,triangle
58.0,5.0,1.0,1.0,1.0,1.0,288.2104400005119,3.0,1.0,part_1,,,,,,,,,,,,,cyan,cross
376.0,4.0,4.0,0.0,2.0,2.0,267.7779810001084,3.0,1.0,part_1,,,,,,,,,,,,,yellow,diamond
85.0,6.0,2.0,1.0,3.0,3.0,304.3156820003787,3.0,1.0,part_1,,,,,,,,,,,,,green,hexagon
53.0,5.0,1.0,1.0,4.0,4.0,263.02907399986,3.0,1.0,part_1,,,,,,,,,,,,,cyan,cross
0.0,4.0,0.0,0.0,3.0,3.0,288.8042800004768,3.0,1.0,part_1,,,,,,,,,,,,,yellow,diamond
191.0,7.0,3.0,1.0,4.0,4.0,298.3301409994965,3.0,1.0,part_1,,,,,,,,,,,,,gray,I
0.0,5.0,0.0,1.0,3.0,3.0,286.7676169998958,3.0,1.0,part_1,,,,,,,,,,,,,cyan,cross
393.0,4.0,4.0,0.0,1.0,1.0,289.8293719999856,3.0,2.0,part_1,,,,,,,,,,,,,yellow,diamond
0.0,1.0,0.0,0.0,3.0,3.0,256.8176810000295,3.0,1.0,part_1,,,,,,,,,,,,,magenta,flipped triangle
204.0,3.0,3.0,0.0,4.0,4.0,290.6977040001948,3.0,1.0,part_1,,,,,,,,,,,,,white,triangle
55.0,1.0,1.0,0.0,2.0,2.0,315.2384499999243,3.0,1.0,part_1,,,,,,,,,,,,,magenta,flipped triangle
96.0,2.0,2.0,0.0,4.0,4.0,267.5005669998427,3.0,1.0,part_1,,,,,,,,,,,,,blue,square
93.0,6.0,2.0,1.0,2.0,2.0,232.045011000082,3.0,1.0,part_1,,,,,,,,,,,,,green,hexagon
212.0,7.0,3.0,1.0,2.0,2.0,295.9139360000336,3.0,2.0,part_1,,,,,,,,,,,,,gray,I
411.0,4.0,4.0,0.0,1.0,1.0,279.70410399939277,3.0,1.0,part_1,,,,,,,,,,,,,yellow,diamond
387.0,4.0,4.0,0.0,3.0,3.0,260.1482200007012,3.0,1.0,part_1,,,,,,,,,,,,,yellow,diamond
402.0,8.0,4.0,1.0,2.0,2.0,241.3699970002198,3.0,1.0,part_1,,,,,,,,,,,,,orange,circle
195.0,7.0,3.0,1.0,2.0,2.0,290.3799900004742,3.0,1.0,part_1,,,,,,,,,,,,,gray,I
423.0,8.0,4.0,1.0,1.0,1.0,240.8552169999893,3.0,1.0,part_1,,,,,,,,,,,,,orange,circle
192.0,7.0,3.0,1.0,1.0,1.0,292.3160999998799,3.0,1.0,part_1,,,,,,,,,,,,,gray,I
199.0,3.0,3.0,0.0,1.0,1.0,278.2439110005725,3.0,1.0,part_1,,,,,,,,,,,,,white,triangle
381.0,4.0,4.0,0.0,2.0,2.0,251.0103969998454,3.0,1.0,part_1,,,,,,,,,,,,,yellow,diamond
0.0,3.0,0.0,0.0,1.0,1.0,310.9001969996825,3.0,1.0,part_1,,,,,,,,,,,,,white,triangle
30.0,1.0,1.0,0.0,3.0,3.0,339.3809009994584,3.0,1.0,part_1,,,,,,,,,,,,,magenta,flipped triangle
0.0,4.0,0.0,0.0,1.0,1.0,289.7683290002533,3.0,1.0,part_1,,,,,,,,,,,,,yellow,diamond
0.0,6.0,0.0,1.0,4.0,4.0,263.8440809996609,3.0,1.0,part_1,,,,,,,,,,,,,green,hexagon
0.0,8.0,0.0,1.0,4.0,4.0,268.7188789996071,3.0,1.0,part_1,,,,,,,,,,,,,orange,circle
387.0,8.0,4.0,1.0,2.0,2.0,283.1767799998488,3.0,1.0,part_1,,,,,,,,,,,,,orange,circle
0.0,2.0,0.0,0.0,2.0,2.0,307.3427659992376,3.0,1.0,part_1,,,,,,,,,,,,,blue,square
197.0,7.0,3.0,1.0,2.0,2.0,255.90723500044987,3.0,1.0,part_1,,,,,,,,,,,,,gray,I
116.0,2.0,2.0,0.0,1.0,1.0,242.1848169997247,3.0,1.0,part_1,,,,,,,,,,,,,blue,square
223.0,3.0,3.0,0.0,3.0,3.0,323.921015000451,3.0,1.0,part_1,,,,,,,,,,,,,white,triangle
386.0,8.0,4.0,1.0,2.0,2.0,241.12055000023238,3.0,1.0,part_1,,,,,,,,,,,,,orange,circle
120.0,2.0,2.0,0.0,2.0,2.0,276.0401390005427,3.0,1.0,part_1,,,,,,,,,,,,,blue,square
414.0,4.0,4.0,0.0,1.0,1.0,260.2172420001807,3.0,1.0,part_1,,,,,,,,,,,,,yellow,diamond
407.0,4.0,4.0,0.0,4.0,4.0,312.0852820002255,3.0,1.0,part_1,,,,,,,,,,,,,yellow,diamond
415.0,4.0,4.0,0.0,3.0,3.0,280.8129320001171,3.0,1.0,part_1,,,,,,,,,,,,,yellow,diamond
89.0,6.0,2.0,1.0,2.0,2.0,222.5752720005402,3.0,1.0,part_1,,,,,,,,,,,,,green,hexagon
55.0,1.0,1.0,0.0,3.0,3.0,305.0957730001755,3.0,1.0,part_1,,,,,,,,,,,,,magenta,flipped triangle
0.0,7.0,0.0,1.0,4.0,4.0,298.015652999311,3.0,1.0,part_1,,,,,,,,,,,,,gray,I
0.0,6.0,0.0,1.0,4.0,4.0,229.782781000722,3.0,1.0,part_1,,,,,,,,,,,,,green,hexagon
89.0,2.0,2.0,0.0,2.0,2.0,226.3058200005616,3.0,1.0,part_1,,,,,,,,,,,,,blue,square
0.0,8.0,0.0,1.0,1.0,1.0,223.3778350000648,3.0,1.0,part_1,,,,,,,,,,,,,orange,circle
63.0,1.0,1.0,0.0,3.0,3.0,297.9285319997871,3.0,1.0,part_1,,,,,,,,,,,,,magenta,flipped triangle
83.0,6.0,2.0,1.0,1.0,1.0,177.6962329995512,3.0,1.0,part_1,,,,,,,,,,,,,green,hexagon
413.0,8.0,4.0,1.0,3.0,3.0,276.0054419995867,3.0,1.0,part_1,,,,,,,,,,,,,orange,circle
0.0,3.0,0.0,0.0,2.0,2.0,290.561436999269,3.0,1.0,part_1,,,,,,,,,,,,,white,triangle
110.0,6.0,2.0,1.0,4.0,4.0,248.3821570003783,3.0,1.0,part_1,,,,,,,,,,,,,green,hexagon
74.0,5.0,1.0,1.0,2.0,2.0,184.4193580000137,3.0,1.0,part_1,,,,,,,,,,,,,cyan,cross
208.0,7.0,3.0,1.0,3.0,3.0,240.4462069998771,3.0,1.0,part_1,,,,,,,,,,,,,gray,I
181.0,3.0,3.0,0.0,2.0,2.0,265.4101510006512,3.0,1.0,part_1,,,,,,,,,,,,,white,triangle
113.0,2.0,2.0,0.0,4.0,4.0,256.89966200025077,3.0,1.0,part_1,,,,,,,,,,,,,blue,square
78.0,6.0,2.0,1.0,2.0,2.0,301.6235390005022,4.0,1.0,part_1,,,,,,,,,,,,,green,hexagon
74.0,5.0,1.0,1.0,2.0,2.0,249.1009260002101,4.0,1.0,part_1,,,,,,,,,,,,,cyan,cross
0.0,4.0,0.0,0.0,3.0,3.0,301.828396000019,4.0,1.0,part_1,,,,,,,,,,,,,yellow,diamond
89.0,2.0,2.0,0.0,2.0,2.0,269.5656100004271,4.0,1.0,part_1,,,,,,,,,,,,,blue,square
0.0,5.0,0.0,1.0,2.0,2.0,273.4990809994997,4.0,1.0,part_1,,,,,,,,,,,,,cyan,cross
178.0,7.0,3.0,1.0,4.0,4.0,278.0935509999835,4.0,1.0,part_1,,,,,,,,,,,,,gray,I
408.0,8.0,4.0,1.0,4.0,4.0,274.6360359997197,4.0,2.0,part_1,,,,,,,,,,,,,orange,circle
57.0,1.0,1.0,0.0,2.0,2.0,244.423507000647,4.0,1.0,part_1,,,,,,,,,,,,,magenta,flipped triangle
193.0,3.0,3.0,0.0,3.0,3.0,304.6634980000817,4.0,1.0,part_1,,,,,,,,,,,,,white,triangle
186.0,3.0,3.0,0.0,1.0,1.0,184.3504959997517,4.0,1.0,part_1,,,,,,,,,,,,,white,triangle
32.0,1.0,1.0,0.0,4.0,4.0,270.5290509993574,4.0,1.0,part_1,,,,,,,,,,,,,magenta,flipped triangle
74.0,1.0,1.0,0.0,1.0,1.0,276.5995250001651,4.0,1.0,part_1,,,,,,,,,,,,,magenta,flipped triangle
0.0,5.0,0.0,1.0,1.0,1.0,262.880877000498,4.0,1.0,part_1,,,,,,,,,,,,,cyan,cross
0.0,7.0,0.0,1.0,2.0,2.0,255.96422099988558,4.0,1.0,part_1,,,,,,,,,,,,,gray,I
78.0,6.0,2.0,1.0,4.0,4.0,245.8642229994438,4.0,1.0,part_1,,,,,,,,,,,,,green,hexagon
83.0,6.0,2.0,1.0,1.0,1.0,282.9437809996307,4.0,1.0,part_1,,,,,,,,,,,,,green,hexagon
0.0,8.0,0.0,1.0,4.0,4.0,253.2323799996447,4.0,1.0,part_1,,,,,,,,,,,,,orange,circle
55.0,5.0,1.0,1.0,1.0,1.0,245.1534789997822,4.0,1.0,part_1,,,,,,,,,,,,,cyan,cross
33.0,1.0,1.0,0.0,4.0,4.0,266.5420350003842,4.0,1.0,part_1,,,,,,,,,,,,,magenta,flipped triangle
192.0,3.0,3.0,0.0,4.0,4.0,280.335028999616,4.0,1.0,part_1,,,,,,,,,,,,,white,triangle
46.0,5.0,1.0,1.0,3.0,3.0,342.5333069999396,4.0,2.0,part_1,,,,,,,,,,,,,cyan,cross
0.0,3.0,0.0,0.0,3.0,3.0,326.5118969993636,4.0,1.0,part_1,,,,,,,,,,,,,white,triangle
407.0,8.0,4.0,1.0,3.0,3.0,228.6298459994213,4.0,1.0,part_1,,,,,,,,,,,,,orange,circle
223.0,3.0,3.0,0.0,2.0,2.0,258.8157909995061,4.0,1.0,part_1,,,,,,,,,,,,,white,triangle
28.0,5.0,1.0,1.0,2.0,2.0,261.3284939998266,4.0,1.0,part_1,,,,,,,,,,,,,cyan,cross
423.0,8.0,4.0,1.0,1.0,1.0,264.7000229999321,4.0,1.0,part_1,,,,,,,,,,,,,orange,circle
387.0,4.0,4.0,0.0,3.0,3.0,269.5049450003353,4.0,1.0,part_1,,,,,,,,,,,,,yellow,diamond
107.0,2.0,2.0,0.0,4.0,4.0,317.6805699995384,4.0,1.0,part_1,,,,,,,,,,,,,blue,square
423.0,4.0,4.0,0.0,2.0,2.0,251.9133030000375,4.0,1.0,part_1,,,,,,,,,,,,,yellow,diamond
61.0,1.0,1.0,0.0,4.0,4.0,205.4541039997275,4.0,1.0,part_1,,,,,,,,,,,,,magenta,flipped triangle
78.0,2.0,2.0,0.0,4.0,4.0,235.8262760008074,4.0,1.0,part_1,,,,,,,,,,,,,blue,square
92.0,2.0,2.0,0.0,2.0,2.0,189.9393130006501,4.0,1.0,part_1,,,,,,,,,,,,,blue,square
61.0,5.0,1.0,1.0,1.0,1.0,270.01214899974,4.0,1.0,part_1,,,,,,,,,,,,,cyan,cross
224.0,7.0,3.0,1.0,4.0,4.0,262.7410349996353,4.0,1.0,part_1,,,,,,,,,,,,,gray,I
425.0,8.0,4.0,1.0,1.0,1.0,282.7252550005141,4.0,1.0,part_1,,,,,,,,,,,,,orange,circle
416.0,8.0,4.0,1.0,4.0,4.0,240.5946990002121,4.0,1.0,part_1,,,,,,,,,,,,,orange,circle
78.0,2.0,2.0,0.0,3.0,3.0,254.5354730000326,4.0,1.0,part_1,,,,,,,,,,,,,blue,square
95.0,6.0,2.0,1.0,3.0,3.0,317.8143479999562,4.0,1.0,part_1,,,,,,,,,,,,,green,hexagon
191.0,3.0,3.0,0.0,4.0,4.0,240.2111680003145,4.0,1.0,part_1,,,,,,,,,,,,,white,triangle
65.0,5.0,1.0,1.0,2.0,2.0,264.1870810002729,4.0,1.0,part_1,,,,,,,,,,,,,cyan,cross
90.0,2.0,2.0,0.0,3.0,3.0,251.64793299973098,4.0,1.0,part_1,,,,,,,,,,,,,blue,square
212.0,3.0,3.0,0.0,1.0,1.0,236.8329230002928,4.0,1.0,part_1,,,,,,,,,,,,,white,triangle
409.0,8.0,4.0,1.0,1.0,1.0,287.3493719998805,4.0,1.0,part_1,,,,,,,,,,,,,orange,circle
414.0,8.0,4.0,1.0,2.0,2.0,253.3128659997601,4.0,1.0,part_1,,,,,,,,,,,,,orange,circle
0.0,7.0,0.0,1.0,1.0,1.0,310.3239400006714,4.0,1.0,part_1,,,,,,,,,,,,,gray,I
421.0,8.0,4.0,1.0,3.0,3.0,304.0922830005002,4.0,1.0,part_1,,,,,,,,,,,,,orange,circle
383.0,8.0,4.0,1.0,3.0,3.0,286.2228710000636,4.0,1.0,part_1,,,,,,,,,,,,,orange,circle
386.0,4.0,4.0,0.0,1.0,1.0,267.1013850003874,4.0,1.0,part_1,,,,,,,,,,,,,yellow,diamond
177.0,3.0,3.0,0.0,3.0,3.0,284.9509779998698,4.0,1.0,part_1,,,,,,,,,,,,,white,triangle
125.0,2.0,2.0,0.0,4.0,4.0,245.3017819998422,4.0,1.0,part_1,,,,,,,,,,,,,blue,square
0.0,4.0,0.0,0.0,4.0,4.0,272.630860999925,4.0,1.0,part_1,,,,,,,,,,,,,yellow,diamond
89.0,6.0,2.0,1.0,2.0,2.0,266.4431279999917,4.0,1.0,part_1,,,,,,,,,,,,,green,hexagon
93.0,2.0,2.0,0.0,3.0,3.0,248.0708789998971,4.0,1.0,part_1,,,,,,,,,,,,,blue,square
224.0,7.0,3.0,1.0,2.0,2.0,264.1054590003477,4.0,1.0,part_1,,,,,,,,,,,,,gray,I
415.0,8.0,4.0,1.0,1.0,1.0,249.4452600003569,4.0,1.0,part_1,,,,,,,,,,,,,orange,circle
92.0,6.0,2.0,1.0,4.0,4.0,279.2449010003111,4.0,1.0,part_1,,,,,,,,,,,,,green,hexagon
411.0,8.0,4.0,1.0,2.0,2.0,253.05976300023758,4.0,1.0,part_1,,,,,,,,,,,,,orange,circle
399.0,8.0,4.0,1.0,3.0,3.0,299.8180820004563,4.0,1.0,part_1,,,,,,,,,,,,,orange,circle
196.0,3.0,3.0,0.0,1.0,1.0,217.2032360003868,4.0,1.0,part_1,,,,,,,,,,,,,white,triangle
0.0,2.0,0.0,0.0,3.0,3.0,302.3561489999338,4.0,1.0,part_1,,,,,,,,,,,,,blue,square
0.0,4.0,0.0,0.0,2.0,2.0,291.2091839998538,4.0,1.0,part_1,,,,,,,,,,,,,yellow,diamond
402.0,8.0,4.0,1.0,1.0,1.0,252.24281899954798,4.0,1.0,part_1,,,,,,,,,,,,,orange,circle
197.0,3.0,3.0,0.0,1.0,1.0,262.7075629998217,4.0,1.0,part_1,,,,,,,,,,,,,white,triangle
0.0,6.0,0.0,1.0,2.0,2.0,248.1524060003721,4.0,1.0,part_1,,,,,,,,,,,,,green,hexagon
198.0,7.0,3.0,1.0,3.0,3.0,270.942666999872,4.0,1.0,part_1,,,,,,,,,,,,,gray,I
0.0,4.0,0.0,0.0,3.0,3.0,274.2820209996353,4.0,1.0,part_1,,,,,,,,,,,,,yellow,diamond
102.0,2.0,2.0,0.0,3.0,3.0,250.2960319998237,4.0,1.0,part_1,,,,,,,,,,,,,blue,square
0.0,1.0,0.0,0.0,2.0,2.0,241.501610999876,4.0,1.0,part_1,,,,,,,,,,,,,magenta,flipped triangle
203.0,3.0,3.0,0.0,1.0,1.0,245.912987000338,4.0,1.0,part_1,,,,,,,,,,,,,white,triangle
0.0,6.0,0.0,1.0,2.0,2.0,221.8334019999019,4.0,1.0,part_1,,,,,,,,,,,,,green,hexagon
384.0,8.0,4.0,1.0,4.0,4.0,261.7031319996385,4.0,1.0,part_1,,,,,,,,,,,,,orange,circle
0.0,8.0,0.0,1.0,3.0,3.0,293.3586850003848,4.0,2.0,part_1,,,,,,,,,,,,,orange,circle
35.0,1.0,1.0,0.0,4.0,4.0,272.390780999558,4.0,1.0,part_1,,,,,,,,,,,,,magenta,flipped triangle
82.0,6.0,2.0,1.0,3.0,3.0,283.7040550002712,4.0,1.0,part_1,,,,,,,,,,,,,green,hexagon
41.0,5.0,1.0,1.0,3.0,3.0,266.8964459999188,4.0,1.0,part_1,,,,,,,,,,,,,cyan,cross
418.0,8.0,4.0,1.0,4.0,4.0,326.7551789995195,4.0,1.0,part_1,,,,,,,,,,,,,orange,circle
200.0,7.0,3.0,1.0,4.0,4.0,265.2709069998309,4.0,1.0,part_1,,,,,,,,,,,,,gray,I
196.0,7.0,3.0,1.0,4.0,4.0,273.8125129999389,4.0,1.0,part_1,,,,,,,,,,,,,gray,I
30.0,1.0,1.0,0.0,2.0,2.0,266.989796999951,4.0,1.0,part_1,,,,,,,,,,,,,magenta,flipped triangle
33.0,5.0,1.0,1.0,3.0,3.0,270.2432850001059,4.0,1.0,part_1,,,,,,,,,,,,,cyan,cross
399.0,4.0,4.0,0.0,3.0,3.0,245.939516999897,4.0,1.0,part_1,,,,,,,,,,,,,yellow,diamond
115.0,2.0,2.0,0.0,1.0,1.0,271.3660019999224,4.0,1.0,part_1,,,,,,,,,,,,,blue,square
0.0,5.0,0.0,1.0,2.0,2.0,257.6573059996008,4.0,1.0,part_1,,,,,,,,,,,,,cyan,cross
0.0,2.0,0.0,0.0,4.0,4.0,272.5302090002515,4.0,1.0,part_1,,,,,,,,,,,,,blue,square
46.0,1.0,1.0,0.0,4.0,4.0,251.08300299962139,4.0,1.0,part_1,,,,,,,,,,,,,magenta,flipped triangle
44.0,5.0,1.0,1.0,4.0,4.0,273.0370859999311,4.0,1.0,part_1,,,,,,,,,,,,,cyan,cross
106.0,2.0,2.0,0.0,2.0,2.0,279.0603049998026,4.0,1.0,part_1,,,,,,,,,,,,,blue,square
0.0,8.0,0.0,1.0,3.0,3.0,304.1482190001261,4.0,1.0,part_1,,,,,,,,,,,,,orange,circle
63.0,5.0,1.0,1.0,3.0,3.0,281.3855790000161,4.0,1.0,part_1,,,,,,,,,,,,,cyan,cross
30.0,5.0,1.0,1.0,3.0,3.0,262.7753100005066,4.0,1.0,part_1,,,,,,,,,,,,,cyan,cross
413.0,4.0,4.0,0.0,4.0,4.0,247.9347499993309,4.0,1.0,part_1,,,,,,,,,,,,,yellow,diamond
424.0,8.0,4.0,1.0,2.0,2.0,291.4714489998005,4.0,1.0,part_1,,,,,,,,,,,,,orange,circle
0.0,3.0,0.0,0.0,3.0,3.0,283.2580439999219,4.0,1.0,part_1,,,,,,,,,,,,,white,triangle
402.0,8.0,4.0,1.0,2.0,2.0,270.4816420000497,4.0,1.0,part_1,,,,,,,,,,,,,orange,circle
90.0,6.0,2.0,1.0,3.0,3.0,288.1616999993639,4.0,1.0,part_1,,,,,,,,,,,,,green,hexagon
88.0,2.0,2.0,0.0,2.0,2.0,267.2863050001979,4.0,1.0,part_1,,,,,,,,,,,,,blue,square
424.0,4.0,4.0,0.0,4.0,4.0,240.4362819997914,4.0,1.0,part_1,,,,,,,,,,,,,yellow,diamond
0.0,5.0,0.0,1.0,1.0,1.0,243.3604110001397,4.0,1.0,part_1,,,,,,,,,,,,,cyan,cross
40.0,5.0,1.0,1.0,2.0,2.0,231.8227059995479,4.0,2.0,part_1,,,,,,,,,,,,,cyan,cross
196.0,7.0,3.0,1.0,3.0,3.0,269.0163979996214,4.0,1.0,part_1,,,,,,,,,,,,,gray,I
0.0,5.0,1.0,1.0,6.0,6.0,397.848215000522,1.0,0.0,part_2,stop,250.0,250.0,3.0,,,,,,,,,cyan,cross
0.0,3.0,3.0,0.0,5.0,5.0,315.6135469998844,1.0,0.0,part_2,go,250.0,200.0,1.0,,,,,,,,,white,triangle
0.0,1.0,1.0,0.0,6.0,6.0,308.3695889999944,1.0,0.0,part_2,go,250.0,200.0,1.0,,,,,,,,,magenta,flipped triangle
0.0,5.0,1.0,1.0,6.0,0.0,0.0,1.0,0.0,part_2,stop,250.0,200.0,4.0,,,,,,,,,cyan,cross
0.0,6.0,2.0,1.0,5.0,5.0,258.2062430001315,1.0,0.0,part_2,go,250.0,250.0,1.0,,,,,,,,,green,hexagon
0.0,1.0,1.0,0.0,5.0,5.0,336.1664570002176,1.0,0.0,part_2,go,250.0,250.0,1.0,,,,,,,,,magenta,flipped triangle
0.0,5.0,1.0,1.0,5.0,5.0,348.1542210001862,1.0,0.0,part_2,stop,250.0,250.0,3.0,,,,,,,,,cyan,cross
0.0,5.0,1.0,1.0,5.0,0.0,0.0,1.0,0.0,part_2,stop,200.0,250.0,4.0,,,,,,,,,cyan,cross
0.0,6.0,2.0,1.0,5.0,5.0,526.8597709991809,1.0,0.0,part_2,go,250.0,250.0,1.0,,,,,,,,,green,hexagon
0.0,1.0,1.0,0.0,6.0,6.0,519.9887769995257,1.0,0.0,part_2,go,250.0,250.0,1.0,,,,,,,,,magenta,flipped triangle
0.0,3.0,3.0,0.0,6.0,6.0,443.4841239999514,1.0,0.0,part_2,go,250.0,250.0,1.0,,,,,,,,,white,triangle
0.0,3.0,3.0,0.0,6.0,6.0,436.698035999143,1.0,0.0,part_2,go,250.0,250.0,1.0,,,,,,,,,white,triangle
0.0,2.0,2.0,0.0,6.0,6.0,464.8351539999567,1.0,0.0,part_2,go,250.0,250.0,1.0,,,,,,,,,blue,square
0.0,8.0,4.0,1.0,5.0,0.0,0.0,1.0,0.0,part_2,stop,250.0,250.0,4.0,,,,,,,,,orange,circle
0.0,6.0,2.0,1.0,6.0,6.0,417.632587999833,1.0,0.0,part_2,stop,300.0,250.0,3.0,,,,,,,,,green,hexagon
0.0,4.0,4.0,0.0,6.0,6.0,700.0372940001398,1.0,0.0,part_2,go,300.0,200.0,1.0,,,,,,,,,yellow,diamond
0.0,1.0,1.0,0.0,5.0,5.0,392.6397380000708,1.0,0.0,part_2,go,300.0,200.0,1.0,,,,,,,,,magenta,flipped triangle
0.0,4.0,4.0,0.0,6.0,6.0,563.8812299994242,1.0,0.0,part_2,go,300.0,200.0,1.0,,,,,,,,,yellow,diamond
0.0,6.0,2.0,1.0,5.0,0.0,0.0,1.0,0.0,part_2,stop,300.0,200.0,4.0,,,,,,,,,green,hexagon
0.0,8.0,4.0,1.0,5.0,0.0,0.0,1.0,0.0,part_2,stop,350.0,200.0,4.0,,,,,,,,,orange,circle
0.0,6.0,2.0,1.0,5.0,5.0,689.0772650003782,1.0,0.0,part_2,go,400.0,200.0,1.0,,,,,,,,,green,hexagon
0.0,5.0,1.0,1.0,5.0,5.0,513.9711910005644,1.0,0.0,part_2,stop,400.0,200.0,3.0,,,,,,,,,cyan,cross
0.0,6.0,2.0,1.0,6.0,0.0,0.0,1.0,0.0,part_2,stop,350.0,200.0,4.0,,,,,,,,,green,hexagon
0.0,1.0,1.0,0.0,5.0,5.0,632.9603909998696,1.0,0.0,part_2,go,350.0,250.0,1.0,,,,,,,,,magenta,flipped triangle
0.0,5.0,1.0,1.0,5.0,0.0,0.0,1.0,0.0,part_2,stop,350.0,250.0,4.0,,,,,,,,,cyan,cross
0.0,8.0,4.0,1.0,6.0,0.0,0.0,1.0,0.0,part_2,stop,400.0,250.0,4.0,,,,,,,,,orange,circle
0.0,3.0,3.0,0.0,5.0,5.0,334.610875999715,1.0,0.0,part_2,go,400.0,300.0,1.0,,,,,,,,,white,triangle
0.0,8.0,4.0,1.0,5.0,5.0,867.6389130005191,1.0,0.0,part_2,go,400.0,300.0,1.0,,,,,,,,,orange,circle
0.0,2.0,2.0,0.0,5.0,5.0,793.1723060000877,1.0,0.0,part_2,go,400.0,300.0,1.0,,,,,,,,,blue,square
0.0,3.0,3.0,0.0,5.0,5.0,763.5407329998998,1.0,0.0,part_2,go,400.0,300.0,1.0,,,,,,,,,white,triangle
0.0,2.0,2.0,0.0,5.0,5.0,739.154822999808,1.0,0.0,part_2,go,400.0,300.0,1.0,,,,,,,,,blue,square
0.0,5.0,1.0,1.0,6.0,0.0,0.0,1.0,0.0,part_2,stop,400.0,300.0,4.0,,,,,,,,,cyan,cross
0.0,2.0,2.0,0.0,6.0,6.0,713.7423510002918,1.0,0.0,part_2,go,400.0,350.0,1.0,,,,,,,,,blue,square
0.0,6.0,2.0,1.0,5.0,0.0,0.0,1.0,0.0,part_2,stop,400.0,350.0,4.0,,,,,,,,,green,hexagon
0.0,8.0,4.0,1.0,6.0,0.0,0.0,1.0,0.0,part_2,stop,450.0,350.0,4.0,,,,,,,,,orange,circle
0.0,8.0,4.0,1.0,5.0,5.0,566.3767079995523,1.0,0.0,part_2,go,450.0,400.0,1.0,,,,,,,,,orange,circle
0.0,2.0,2.0,0.0,6.0,6.0,538.6504189991683,2.0,0.0,part_2,go,450.0,400.0,1.0,,,,,,,,,blue,square
0.0,5.0,1.0,1.0,6.0,6.0,373.8050370002383,2.0,0.0,part_2,stop,450.0,400.0,3.0,,,,,,,,,cyan,cross
0.0,3.0,3.0,0.0,5.0,5.0,798.3939099995041,2.0,0.0,part_2,go,450.0,350.0,1.0,,,,,,,,,white,triangle
0.0,4.0,4.0,0.0,6.0,6.0,748.9887350002391,2.0,0.0,part_2,go,450.0,350.0,1.0,,,,,,,,,yellow,diamond
0.0,3.0,3.0,0.0,6.0,6.0,657.83856500002,2.0,0.0,part_2,go,450.0,350.0,1.0,,,,,,,,,white,triangle
0.0,1.0,1.0,0.0,5.0,5.0,594.052475999888,2.0,0.0,part_2,go,450.0,350.0,1.0,,,,,,,,,magenta,flipped triangle
0.0,5.0,1.0,1.0,5.0,5.0,401.0982310001054,2.0,0.0,part_2,stop,450.0,350.0,3.0,,,,,,,,,cyan,cross
0.0,2.0,2.0,0.0,5.0,5.0,714.1540559996429,2.0,0.0,part_2,go,400.0,350.0,1.0,,,,,,,,,blue,square
0.0,4.0,4.0,0.0,5.0,5.0,753.3783720000429,2.0,0.0,part_2,go,400.0,350.0,1.0,,,,,,,,,yellow,diamond
0.0,3.0,3.0,0.0,6.0,6.0,740.9088760005034,2.0,0.0,part_2,go,400.0,350.0,1.0,,,,,,,,,white,triangle
0.0,8.0,4.0,1.0,5.0,0.0,0.0,2.0,0.0,part_2,stop,400.0,350.0,4.0,,,,,,,,,orange,circle
0.0,3.0,3.0,0.0,5.0,5.0,661.0644539996429,2.0,0.0,part_2,go,450.0,350.0,1.0,,,,,,,,,white,triangle
0.0,5.0,1.0,1.0,5.0,0.0,0.0,2.0,0.0,part_2,stop,450.0,350.0,4.0,,,,,,,,,cyan,cross
0.0,1.0,1.0,0.0,6.0,6.0,1026.8173249996837,2.0,0.0,part_2,go,500.0,350.0,1.0,,,,,,,,,magenta,flipped triangle
0.0,7.0,3.0,1.0,6.0,0.0,0.0,2.0,0.0,part_2,stop,500.0,350.0,4.0,,,,,,,,,gray,I
0.0,8.0,4.0,1.0,6.0,0.0,0.0,2.0,0.0,part_2,stop,500.0,400.0,4.0,,,,,,,,,orange,circle
0.0,3.0,3.0,0.0,5.0,5.0,813.7932009994984,2.0,0.0,part_2,go,500.0,450.0,1.0,,,,,,,,,white,triangle
0.0,7.0,3.0,1.0,6.0,6.0,836.2524510002913,2.0,0.0,part_2,go,500.0,450.0,1.0,,,,,,,,,gray,I
0.0,2.0,2.0,0.0,6.0,6.0,784.6555749993058,2.0,0.0,part_2,go,500.0,450.0,1.0,,,,,,,,,blue,square
0.0,8.0,4.0,1.0,6.0,0.0,0.0,2.0,0.0,part_2,stop,500.0,450.0,4.0,,,,,,,,,orange,circle
0.0,6.0,2.0,1.0,6.0,0.0,0.0,2.0,0.0,part_2,stop,500.0,500.0,4.0,,,,,,,,,green,hexagon
0.0,4.0,4.0,0.0,6.0,6.0,993.843766000282,2.0,0.0,part_2,go,500.0,550.0,1.0,,,,,,,,,yellow,diamond
0.0,1.0,1.0,0.0,5.0,5.0,1237.1131510008126,2.0,0.0,part_2,go,500.0,550.0,1.0,,,,,,,,,magenta,flipped triangle
0.0,8.0,4.0,1.0,6.0,0.0,0.0,2.0,0.0,part_2,stop,500.0,550.0,4.0,,,,,,,,,orange,circle
0.0,1.0,1.0,0.0,6.0,6.0,710.5925819996628,2.0,0.0,part_2,go,500.0,600.0,1.0,,,,,,,,,magenta,flipped triangle
0.0,5.0,1.0,1.0,5.0,5.0,755.5795799999032,2.0,0.0,part_2,stop,500.0,600.0,3.0,,,,,,,,,cyan,cross
0.0,2.0,2.0,0.0,6.0,6.0,1129.7866349996184,2.0,0.0,part_2,go,450.0,600.0,1.0,,,,,,,,,blue,square
0.0,2.0,2.0,0.0,6.0,6.0,802.8863290001027,2.0,0.0,part_2,go,450.0,600.0,1.0,,,,,,,,,blue,square
0.0,4.0,4.0,0.0,6.0,6.0,495.1354980003088,2.0,0.0,part_2,go,450.0,600.0,1.0,,,,,,,,,yellow,diamond
0.0,5.0,1.0,1.0,6.0,0.0,0.0,2.0,0.0,part_2,stop,450.0,600.0,4.0,,,,,,,,,cyan,cross
0.0,2.0,2.0,0.0,5.0,5.0,562.1032070002911,2.0,0.0,part_2,go,450.0,650.0,1.0,,,,,,,,,blue,square
0.0,2.0,2.0,0.0,5.0,5.0,556.0292780000964,2.0,0.0,part_2,go,450.0,650.0,1.0,,,,,,,,,blue,square
0.0,6.0,2.0,1.0,6.0,6.0,562.3718400001962,2.0,0.0,part_2,stop,450.0,650.0,3.0,,,,,,,,,green,hexagon
0.0,2.0,2.0,0.0,6.0,6.0,823.3985959996062,2.0,0.0,part_2,go,450.0,600.0,1.0,,,,,,,,,blue,square
0.0,4.0,4.0,0.0,5.0,5.0,610.4100739994465,2.0,0.0,part_2,go,450.0,600.0,1.0,,,,,,,,,yellow,diamond
0.0,7.0,3.0,1.0,5.0,5.0,619.2366300001595,2.0,0.0,part_2,stop,450.0,600.0,3.0,,,,,,,,,gray,I
0.0,2.0,2.0,0.0,6.0,6.0,1144.3019149992324,3.0,0.0,part_2,go,400.0,600.0,1.0,,,,,,,,,blue,square
0.0,4.0,4.0,0.0,5.0,5.0,740.6562989999657,3.0,0.0,part_2,go,400.0,600.0,1.0,,,,,,,,,yellow,diamond
0.0,5.0,1.0,1.0,6.0,6.0,705.5941369999346,3.0,0.0,part_2,go,400.0,600.0,1.0,,,,,,,,,cyan,cross
0.0,8.0,4.0,1.0,5.0,5.0,259.5030699994822,3.0,0.0,part_2,stop,400.0,600.0,3.0,,,,,,,,,orange,circle
0.0,2.0,2.0,0.0,5.0,5.0,628.260192000198,3.0,0.0,part_2,go,350.0,600.0,1.0,,,,,,,,,blue,square
0.0,2.0,2.0,0.0,5.0,5.0,590.6050029998369,3.0,0.0,part_2,go,350.0,600.0,1.0,,,,,,,,,blue,square
0.0,6.0,2.0,1.0,6.0,6.0,318.4750249993158,3.0,0.0,part_2,stop,350.0,600.0,3.0,,,,,,,,,green,hexagon
0.0,2.0,2.0,0.0,6.0,6.0,607.2969360002389,3.0,0.0,part_2,go,350.0,550.0,1.0,,,,,,,,,blue,square
0.0,6.0,2.0,1.0,5.0,5.0,312.1545559997685,3.0,0.0,part_2,stop,350.0,550.0,3.0,,,,,,,,,green,hexagon
0.0,4.0,4.0,0.0,5.0,5.0,714.4735889996809,3.0,0.0,part_2,go,300.0,550.0,1.0,,,,,,,,,yellow,diamond
0.0,8.0,4.0,1.0,6.0,6.0,771.6502679995756,3.0,0.0,part_2,go,300.0,550.0,1.0,,,,,,,,,orange,circle
0.0,2.0,2.0,0.0,6.0,6.0,326.1215809998248,3.0,0.0,part_2,go,300.0,550.0,1.0,,,,,,,,,blue,square
0.0,8.0,4.0,1.0,6.0,6.0,463.9097489998676,3.0,0.0,part_2,stop,300.0,550.0,3.0,,,,,,,,,orange,circle
0.0,8.0,4.0,1.0,5.0,5.0,521.6667429995141,3.0,0.0,part_2,go,300.0,500.0,1.0,,,,,,,,,orange,circle
0.0,6.0,2.0,1.0,5.0,5.0,764.8355259998425,3.0,0.0,part_2,go,300.0,500.0,1.0,,,,,,,,,green,hexagon
0.0,7.0,3.0,1.0,5.0,5.0,365.2706529992429,3.0,0.0,part_2,stop,300.0,500.0,3.0,,,,,,,,,gray,I
0.0,5.0,1.0,1.0,5.0,5.0,509.51813500068965,3.0,0.0,part_2,go,250.0,500.0,1.0,,,,,,,,,cyan,cross
0.0,1.0,1.0,0.0,6.0,6.0,442.9665830002705,3.0,0.0,part_2,go,250.0,500.0,1.0,,,,,,,,,magenta,flipped triangle
0.0,4.0,4.0,0.0,6.0,6.0,934.9873209994256,3.0,0.0,part_2,go,250.0,500.0,1.0,,,,,,,,,yellow,diamond
0.0,6.0,2.0,1.0,6.0,6.0,293.9501219998419,3.0,0.0,part_2,stop,250.0,500.0,3.0,,,,,,,,,green,hexagon
0.0,1.0,1.0,0.0,5.0,5.0,491.7520990002231,3.0,0.0,part_2,go,250.0,450.0,1.0,,,,,,,,,magenta,flipped triangle
0.0,2.0,2.0,0.0,5.0,5.0,383.6563830000159,3.0,0.0,part_2,go,250.0,450.0,1.0,,,,,,,,,blue,square
0.0,8.0,4.0,1.0,5.0,0.0,0.0,3.0,0.0,part_2,stop,250.0,450.0,4.0,,,,,,,,,orange,circle
0.0,4.0,4.0,0.0,5.0,5.0,367.382670000552,3.0,0.0,part_2,go,300.0,450.0,1.0,,,,,,,,,yellow,diamond
0.0,6.0,2.0,1.0,6.0,6.0,293.144525999196,3.0,0.0,part_2,stop,300.0,450.0,3.0,,,,,,,,,green,hexagon
0.0,4.0,4.0,0.0,5.0,5.0,372.3232419997657,3.0,0.0,part_2,go,300.0,400.0,1.0,,,,,,,,,yellow,diamond
0.0,1.0,1.0,0.0,6.0,6.0,789.604595000128,3.0,0.0,part_2,go,300.0,400.0,1.0,,,,,,,,,magenta,flipped triangle
0.0,5.0,1.0,1.0,6.0,6.0,367.2407869999006,3.0,0.0,part_2,stop,300.0,400.0,3.0,,,,,,,,,cyan,cross
0.0,3.0,3.0,0.0,6.0,6.0,376.3513590001821,3.0,0.0,part_2,go,300.0,350.0,1.0,,,,,,,,,white,triangle
0.0,5.0,1.0,1.0,5.0,5.0,270.6160419993466,3.0,0.0,part_2,stop,300.0,350.0,3.0,,,,,,,,,cyan,cross
0.0,4.0,4.0,0.0,6.0,6.0,324.5188130003953,3.0,0.0,part_2,go,250.0,350.0,1.0,,,,,,,,,yellow,diamond
0.0,8.0,4.0,1.0,5.0,0.0,0.0,3.0,0.0,part_2,stop,250.0,350.0,4.0,,,,,,,,,orange,circle
0.0,7.0,3.0,1.0,6.0,6.0,370.0129090002519,3.0,0.0,part_2,go,300.0,350.0,1.0,,,,,,,,,gray,I
0.0,5.0,1.0,1.0,5.0,5.0,307.9555779995644,3.0,0.0,part_2,go,300.0,350.0,1.0,,,,,,,,,cyan,cross
0.0,5.0,1.0,1.0,6.0,6.0,281.4946709995638,3.0,0.0,part_2,stop,300.0,350.0,3.0,,,,,,,,,cyan,cross
0.0,8.0,4.0,1.0,5.0,5.0,296.4175619999878,3.0,0.0,part_2,stop,300.0,300.0,3.0,,,,,,,,,orange,circle
0.0,8.0,4.0,1.0,5.0,5.0,627.4779229997876,4.0,0.0,part_2,go,250.0,300.0,1.0,,,,,,,,,orange,circle
0.0,3.0,3.0,0.0,6.0,6.0,271.4337939996767,4.0,0.0,part_2,go,250.0,300.0,1.0,,,,,,,,,white,triangle
0.0,8.0,4.0,1.0,5.0,5.0,305.4662900003677,4.0,0.0,part_2,stop,250.0,300.0,3.0,,,,,,,,,orange,circle
0.0,8.0,4.0,1.0,5.0,5.0,586.611783999615,4.0,0.0,part_2,stop,200.0,300.0,3.0,,,,,,,,,orange,circle
0.0,1.0,1.0,0.0,5.0,5.0,714.13956699962,4.0,0.0,part_2,go,150.0,300.0,1.0,,,,,,,,,magenta,flipped triangle
0.0,8.0,4.0,1.0,6.0,6.0,270.6284320001941,4.0,0.0,part_2,stop,150.0,300.0,3.0,,,,,,,,,orange,circle
0.0,7.0,3.0,1.0,5.0,5.0,472.8885519998584,4.0,0.0,part_2,go,150.0,250.0,1.0,,,,,,,,,gray,I
0.0,6.0,2.0,1.0,5.0,0.0,0.0,4.0,0.0,part_2,stop,150.0,250.0,4.0,,,,,,,,,green,hexagon
0.0,8.0,4.0,1.0,6.0,0.0,0.0,4.0,0.0,part_2,stop,200.0,250.0,4.0,,,,,,,,,orange,circle
0.0,6.0,2.0,1.0,5.0,0.0,0.0,4.0,0.0,part_2,stop,200.0,300.0,4.0,,,,,,,,,green,hexagon
0.0,4.0,4.0,0.0,6.0,6.0,522.6691749994643,4.0,0.0,part_2,go,250.0,300.0,1.0,,,,,,,,,yellow,diamond
0.0,3.0,3.0,0.0,5.0,5.0,472.5452639995637,4.0,0.0,part_2,go,250.0,300.0,1.0,,,,,,,,,white,triangle
0.0,8.0,4.0,1.0,6.0,0.0,0.0,4.0,0.0,part_2,stop,250.0,300.0,4.0,,,,,,,,,orange,circle
0.0,3.0,3.0,0.0,5.0,5.0,560.2459120000276,4.0,0.0,part_2,go,250.0,350.0,1.0,,,,,,,,,white,triangle
0.0,7.0,3.0,1.0,5.0,0.0,0.0,4.0,0.0,part_2,stop,250.0,350.0,4.0,,,,,,,,,gray,I
0.0,3.0,3.0,0.0,5.0,5.0,332.717536999553,4.0,0.0,part_2,go,300.0,350.0,1.0,,,,,,,,,white,triangle
0.0,7.0,3.0,1.0,6.0,6.0,642.9610420000245,4.0,0.0,part_2,go,300.0,350.0,1.0,,,,,,,,,gray,I
0.0,2.0,2.0,0.0,6.0,6.0,380.4604940005447,4.0,0.0,part_2,go,300.0,350.0,1.0,,,,,,,,,blue,square
0.0,2.0,2.0,0.0,5.0,5.0,559.6729039998536,4.0,0.0,part_2,go,300.0,350.0,1.0,,,,,,,,,blue,square
0.0,6.0,2.0,1.0,5.0,5.0,354.6462959993732,4.0,0.0,part_2,stop,300.0,350.0,3.0,,,,,,,,,green,hexagon
0.0,4.0,4.0,0.0,6.0,6.0,449.7171149996575,4.0,0.0,part_2,go,250.0,350.0,1.0,,,,,,,,,yellow,diamond
0.0,1.0,1.0,0.0,6.0,6.0,382.7785740004401,4.0,0.0,part_2,go,250.0,350.0,1.0,,,,,,,,,magenta,flipped triangle
0.0,5.0,1.0,1.0,6.0,6.0,423.4945449998122,4.0,0.0,part_2,go,250.0,350.0,1.0,,,,,,,,,cyan,cross
0.0,3.0,3.0,0.0,6.0,6.0,374.3624489998183,4.0,0.0,part_2,go,250.0,350.0,1.0,,,,,,,,,white,triangle
0.0,2.0,2.0,0.0,5.0,5.0,288.2341139993514,4.0,0.0,part_2,go,250.0,350.0,1.0,,,,,,,,,blue,square
0.0,3.0,3.0,0.0,5.0,5.0,478.5820910001348,4.0,0.0,part_2,go,250.0,350.0,1.0,,,,,,,,,white,triangle
0.0,6.0,2.0,1.0,6.0,6.0,341.2109310002051,4.0,0.0,part_2,stop,250.0,350.0,3.0,,,,,,,,,green,hexagon
0.0,4.0,4.0,0.0,5.0,5.0,304.5732740001767,4.0,0.0,part_2,go,250.0,300.0,1.0,,,,,,,,,yellow,diamond
0.0,6.0,2.0,1.0,5.0,5.0,360.5974539996168,4.0,0.0,part_2,stop,250.0,300.0,3.0,,,,,,,,,green,hexagon
0.0,1.0,1.0,0.0,5.0,5.0,541.0897070005376,4.0,0.0,part_2,go,200.0,300.0,1.0,,,,,,,,,magenta,flipped triangle
0.0,4.0,4.0,0.0,5.0,5.0,295.5665290000979,4.0,0.0,part_2,go,200.0,300.0,1.0,,,,,,,,,yellow,diamond
0.0,8.0,4.0,1.0,6.0,6.0,480.4384119997849,4.0,0.0,part_2,go,200.0,300.0,1.0,,,,,,,,,orange,circle
0.0,4.0,4.0,0.0,6.0,6.0,351.533257000483,4.0,0.0,part_2,go,200.0,300.0,1.0,,,,,,,,,yellow,diamond
0.0,5.0,1.0,1.0,6.0,6.0,341.6247289997045,4.0,0.0,part_2,go,200.0,300.0,1.0,,,,,,,,,cyan,cross
0.0,7.0,3.0,1.0,6.0,6.0,340.103327000179,4.0,0.0,part_2,stop,200.0,300.0,3.0,,,,,,,,,gray,I
0.0,4.0,4.0,0.0,5.0,5.0,525.2324960001715,4.0,0.0,part_2,go,200.0,250.0,1.0,,,,,,,,,yellow,diamond
0.0,3.0,3.0,0.0,5.0,5.0,394.9539420000292,5.0,0.0,part_2,go,200.0,250.0,1.0,,,,,,,,,white,triangle
0.0,8.0,4.0,1.0,5.0,5.0,312.2745519995078,5.0,0.0,part_2,go,200.0,250.0,1.0,,,,,,,,,orange,circle
0.0,4.0,4.0,0.0,6.0,6.0,314.094598000338,5.0,0.0,part_2,go,200.0,250.0,1.0,,,,,,,,,yellow,diamond
0.0,1.0,1.0,0.0,6.0,6.0,294.7461050007405,5.0,0.0,part_2,go,200.0,250.0,1.0,,,,,,,,,magenta,flipped triangle
0.0,8.0,4.0,1.0,5.0,5.0,467.0521169991843,5.0,0.0,part_2,go,200.0,250.0,1.0,,,,,,,,,orange,circle
0.0,3.0,3.0,0.0,5.0,5.0,304.1369749998921,5.0,0.0,part_2,go,200.0,250.0,1.0,,,,,,,,,white,triangle
0.0,4.0,4.0,0.0,5.0,5.0,313.7224419997437,5.0,0.0,part_2,go,200.0,250.0,1.0,,,,,,,,,yellow,diamond
0.0,5.0,1.0,1.0,5.0,0.0,0.0,5.0,0.0,part_2,stop,200.0,250.0,4.0,,,,,,,,,cyan,cross
0.0,1.0,1.0,0.0,5.0,5.0,459.7394060001534,5.0,0.0,part_2,go,250.0,250.0,1.0,,,,,,,,,magenta,flipped triangle
0.0,2.0,2.0,0.0,5.0,5.0,383.727187999284,5.0,0.0,part_2,go,250.0,250.0,1.0,,,,,,,,,blue,square
0.0,7.0,3.0,1.0,5.0,5.0,455.7227880004575,5.0,0.0,part_2,go,250.0,250.0,1.0,,,,,,,,,gray,I
0.0,7.0,3.0,1.0,6.0,6.0,293.9017179996881,5.0,0.0,part_2,stop,250.0,250.0,3.0,,,,,,,,,gray,I
0.0,4.0,4.0,0.0,5.0,5.0,399.3548869993901,5.0,0.0,part_2,go,250.0,200.0,1.0,,,,,,,,,yellow,diamond
0.0,4.0,4.0,0.0,5.0,5.0,277.0266649995392,5.0,0.0,part_2,go,250.0,200.0,1.0,,,,,,,,,yellow,diamond
0.0,5.0,1.0,1.0,5.0,5.0,375.5061759993623,5.0,0.0,part_2,stop,250.0,200.0,3.0,,,,,,,,,cyan,cross
0.0,6.0,2.0,1.0,6.0,6.0,390.5843510001432,5.0,0.0,part_2,stop,200.0,200.0,3.0,,,,,,,,,green,hexagon
0.0,5.0,1.0,1.0,6.0,6.0,432.8576690004411,5.0,0.0,part_2,go,200.0,150.0,1.0,,,,,,,,,cyan,cross
0.0,5.0,1.0,1.0,5.0,5.0,337.5556609998966,5.0,0.0,part_2,stop,200.0,150.0,3.0,,,,,,,,,cyan,cross
0.0,7.0,3.0,1.0,5.0,0.0,0.0,5.0,0.0,part_2,stop,150.0,150.0,4.0,,,,,,,,,gray,I
0.0,5.0,1.0,1.0,6.0,6.0,512.7859340000214,5.0,0.0,part_2,go,200.0,150.0,1.0,,,,,,,,,cyan,cross
0.0,7.0,3.0,1.0,6.0,0.0,0.0,5.0,0.0,part_2,stop,200.0,150.0,4.0,,,,,,,,,gray,I
0.0,1.0,1.0,0.0,6.0,6.0,488.2840689997465,5.0,0.0,part_2,go,200.0,200.0,1.0,,,,,,,,,magenta,flipped triangle
0.0,2.0,2.0,0.0,5.0,5.0,356.2663659995451,5.0,0.0,part_2,go,200.0,200.0,1.0,,,,,,,,,blue,square
0.0,6.0,2.0,1.0,5.0,0.0,0.0,5.0,0.0,part_2,stop,200.0,200.0,4.0,,,,,,,,,green,hexagon
0.0,7.0,3.0,1.0,5.0,0.0,0.0,5.0,0.0,part_2,stop,250.0,200.0,4.0,,,,,,,,,gray,I
0.0,8.0,4.0,1.0,5.0,0.0,0.0,5.0,0.0,part_2,stop,300.0,200.0,4.0,,,,,,,,,orange,circle
0.0,2.0,2.0,0.0,6.0,6.0,483.7793889992099,5.0,0.0,part_2,go,350.0,200.0,1.0,,,,,,,,,blue,square
0.0,4.0,4.0,0.0,6.0,6.0,444.3103849998806,5.0,0.0,part_2,go,350.0,200.0,1.0,,,,,,,,,yellow,diamond
0.0,3.0,3.0,0.0,6.0,6.0,454.9023270001271,5.0,0.0,part_2,go,350.0,200.0,1.0,,,,,,,,,white,triangle
0.0,6.0,2.0,1.0,6.0,6.0,590.8029450001777,5.0,0.0,part_2,go,350.0,200.0,1.0,,,,,,,,,green,hexagon
0.0,5.0,1.0,1.0,6.0,0.0,0.0,5.0,0.0,part_2,stop,350.0,200.0,4.0,,,,,,,,,cyan,cross
0.0,2.0,2.0,0.0,5.0,5.0,383.5616010001104,5.0,0.0,part_2,go,350.0,250.0,1.0,,,,,,,,,blue,square
0.0,1.0,1.0,0.0,5.0,5.0,514.3821880001269,5.0,0.0,part_2,go,350.0,250.0,1.0,,,,,,,,,magenta,flipped triangle
0.0,7.0,3.0,1.0,6.0,0.0,0.0,5.0,0.0,part_2,stop,350.0,250.0,4.0,,,,,,,,,gray,I
0.0,3.0,3.0,0.0,6.0,6.0,744.9269199996706,5.0,0.0,part_2,go,350.0,300.0,1.0,,,,,,,,,white,triangle
0.0,8.0,4.0,1.0,6.0,6.0,342.8359899999122,5.0,0.0,part_2,stop,350.0,300.0,3.0,,,,,,,,,orange,circle
0.0,1.0,1.0,0.0,5.0,5.0,436.5790049996576,6.0,0.0,part_2,go,350.0,250.0,1.0,,,,,,,,,magenta,flipped triangle
0.0,2.0,2.0,0.0,5.0,5.0,383.1458939994263,6.0,0.0,part_2,go,350.0,250.0,1.0,,,,,,,,,blue,square
0.0,6.0,2.0,1.0,5.0,5.0,416.7235229997459,6.0,0.0,part_2,go,350.0,250.0,1.0,,,,,,,,,green,hexagon
0.0,7.0,3.0,1.0,5.0,5.0,342.9994449998048,6.0,0.0,part_2,stop,350.0,250.0,3.0,,,,,,,,,gray,I
0.0,7.0,3.0,1.0,5.0,0.0,0.0,6.0,0.0,part_2,stop,300.0,250.0,4.0,,,,,,,,,gray,I
0.0,2.0,2.0,0.0,6.0,6.0,497.3694880000039,6.0,0.0,part_2,go,350.0,250.0,1.0,,,,,,,,,blue,square
0.0,5.0,1.0,1.0,6.0,6.0,517.6992699998664,6.0,0.0,part_2,go,350.0,250.0,1.0,,,,,,,,,cyan,cross
0.0,6.0,2.0,1.0,6.0,0.0,0.0,6.0,0.0,part_2,stop,350.0,250.0,4.0,,,,,,,,,green,hexagon
0.0,3.0,3.0,0.0,6.0,6.0,489.239149000241,6.0,0.0,part_2,go,350.0,300.0,1.0,,,,,,,,,white,triangle
0.0,1.0,1.0,0.0,6.0,6.0,474.3738699999085,6.0,0.0,part_2,go,350.0,300.0,1.0,,,,,,,,,magenta,flipped triangle
0.0,7.0,3.0,1.0,5.0,5.0,491.2025060002634,6.0,0.0,part_2,stop,350.0,300.0,3.0,,,,,,,,,gray,I
0.0,7.0,3.0,1.0,5.0,0.0,0.0,6.0,0.0,part_2,stop,300.0,300.0,4.0,,,,,,,,,gray,I
0.0,7.0,3.0,1.0,6.0,0.0,0.0,6.0,0.0,part_2,stop,350.0,300.0,4.0,,,,,,,,,gray,I
0.0,1.0,1.0,0.0,5.0,5.0,539.1961729992545,6.0,0.0,part_2,go,350.0,350.0,1.0,,,,,,,,,magenta,flipped triangle
0.0,3.0,3.0,0.0,6.0,6.0,554.9702329999491,6.0,0.0,part_2,go,350.0,350.0,1.0,,,,,,,,,white,triangle
0.0,1.0,1.0,0.0,5.0,5.0,644.8672119995535,6.0,0.0,part_2,go,350.0,350.0,1.0,,,,,,,,,magenta,flipped triangle
0.0,2.0,2.0,0.0,5.0,5.0,417.0794649999152,6.0,0.0,part_2,go,350.0,350.0,1.0,,,,,,,,,blue,square
0.0,3.0,3.0,0.0,5.0,5.0,399.5931950003069,6.0,0.0,part_2,go,350.0,350.0,1.0,,,,,,,,,white,triangle
0.0,7.0,3.0,1.0,5.0,0.0,0.0,6.0,0.0,part_2,stop,350.0,350.0,4.0,,,,,,,,,gray,I
0.0,3.0,3.0,0.0,6.0,6.0,510.29880799978855,6.0,0.0,part_2,go,400.0,350.0,1.0,,,,,,,,,white,triangle
0.0,8.0,4.0,1.0,5.0,5.0,362.0723200001521,6.0,0.0,part_2,stop,400.0,350.0,3.0,,,,,,,,,orange,circle
0.0,5.0,1.0,1.0,5.0,5.0,782.007189000069,6.0,0.0,part_2,go,350.0,350.0,1.0,,,,,,,,,cyan,cross
0.0,7.0,3.0,1.0,6.0,0.0,0.0,6.0,0.0,part_2,stop,350.0,350.0,4.0,,,,,,,,,gray,I
0.0,6.0,2.0,1.0,5.0,0.0,0.0,6.0,0.0,part_2,stop,350.0,400.0,4.0,,,,,,,,,green,hexagon
0.0,5.0,1.0,1.0,5.0,0.0,0.0,6.0,0.0,part_2,stop,400.0,400.0,4.0,,,,,,,,,cyan,cross
0.0,4.0,4.0,0.0,5.0,5.0,708.2018820001394,6.0,0.0,part_2,go,450.0,400.0,1.0,,,,,,,,,yellow,diamond
0.0,3.0,3.0,0.0,6.0,6.0,607.6772699998401,6.0,0.0,part_2,go,450.0,400.0,1.0,,,,,,,,,white,triangle
0.0,6.0,2.0,1.0,5.0,5.0,610.1858579995678,6.0,0.0,part_2,go,450.0,400.0,1.0,,,,,,,,,green,hexagon
0.0,4.0,4.0,0.0,6.0,6.0,512.4499309995372,6.0,0.0,part_2,go,450.0,400.0,1.0,,,,,,,,,yellow,diamond
0.0,7.0,3.0,1.0,6.0,0.0,0.0,6.0,0.0,part_2,stop,450.0,400.0,4.0,,,,,,,,,gray,I
0.0,2.0,2.0,0.0,5.0,5.0,526.6020040007788,6.0,0.0,part_2,go,450.0,450.0,1.0,,,,,,,,,blue,square
0.0,8.0,4.0,1.0,6.0,6.0,585.2200939998511,6.0,0.0,part_2,stop,450.0,450.0,3.0,,,,,,,,,orange,circle
0.0,2.0,2.0,0.0,6.0,6.0,522.2975770002449,6.0,0.0,part_2,go,450.0,400.0,1.0,,,,,,,,,blue,square
0.0,6.0,2.0,1.0,6.0,6.0,670.9428160002062,6.0,0.0,part_2,go,450.0,400.0,1.0,,,,,,,,,green,hexagon
0.0,6.0,2.0,1.0,6.0,0.0,0.0,6.0,0.0,part_2,stop,450.0,400.0,4.0,,,,,,,,,green,hexagon
0.0,1.0,1.0,0.0,5.0,5.0,619.7701170003711,6.0,0.0,part_2,go,450.0,450.0,1.0,,,,,,,,,magenta,flipped triangle
0.0,3.0,3.0,0.0,5.0,5.0,413.87450300044287,7.0,0.0,part_2,go,450.0,450.0,1.0,,,,,,,,,white,triangle
0.0,6.0,2.0,1.0,6.0,0.0,0.0,7.0,0.0,part_2,stop,450.0,450.0,4.0,,,,,,,,,green,hexagon
0.0,4.0,4.0,0.0,5.0,5.0,332.9552020004485,7.0,0.0,part_2,go,450.0,500.0,1.0,,,,,,,,,yellow,diamond
0.0,5.0,1.0,1.0,6.0,6.0,633.359780000319,7.0,0.0,part_2,stop,450.0,500.0,3.0,,,,,,,,,cyan,cross
0.0,1.0,1.0,0.0,6.0,6.0,571.3441090001652,7.0,0.0,part_2,go,450.0,450.0,1.0,,,,,,,,,magenta,flipped triangle
0.0,5.0,1.0,1.0,5.0,5.0,608.4486829995512,7.0,0.0,part_2,stop,450.0,450.0,3.0,,,,,,,,,cyan,cross
0.0,7.0,3.0,1.0,6.0,0.0,0.0,7.0,0.0,part_2,stop,400.0,450.0,4.0,,,,,,,,,gray,I
0.0,4.0,4.0,0.0,5.0,5.0,754.2758130002767,7.0,0.0,part_2,go,400.0,500.0,1.0,,,,,,,,,yellow,diamond
0.0,7.0,3.0,1.0,6.0,0.0,0.0,7.0,0.0,part_2,stop,400.0,500.0,4.0,,,,,,,,,gray,I
0.0,6.0,2.0,1.0,5.0,5.0,464.9170120001145,7.0,0.0,part_2,stop,400.0,550.0,3.0,,,,,,,,,green,hexagon
0.0,3.0,3.0,0.0,5.0,5.0,835.3151319997778,7.0,0.0,part_2,go,350.0,550.0,1.0,,,,,,,,,white,triangle
0.0,1.0,1.0,0.0,6.0,6.0,926.7042920000677,7.0,0.0,part_2,go,350.0,550.0,1.0,,,,,,,,,magenta,flipped triangle
0.0,7.0,3.0,1.0,5.0,0.0,0.0,7.0,0.0,part_2,stop,350.0,550.0,4.0,,,,,,,,,gray,I
0.0,7.0,3.0,1.0,5.0,0.0,0.0,7.0,0.0,part_2,stop,400.0,550.0,4.0,,,,,,,,,gray,I
0.0,8.0,4.0,1.0,6.0,6.0,855.5863800002044,7.0,0.0,part_2,go,450.0,550.0,1.0,,,,,,,,,orange,circle
0.0,4.0,4.0,0.0,5.0,5.0,775.3584089996366,7.0,0.0,part_2,go,450.0,550.0,1.0,,,,,,,,,yellow,diamond
0.0,1.0,1.0,0.0,5.0,5.0,819.2116220006938,7.0,0.0,part_2,go,450.0,550.0,1.0,,,,,,,,,magenta,flipped triangle
0.0,7.0,3.0,1.0,6.0,6.0,859.2739119994803,7.0,0.0,part_2,go,450.0,550.0,1.0,,,,,,,,,gray,I
0.0,5.0,1.0,1.0,5.0,5.0,588.177053000436,7.0,0.0,part_2,stop,450.0,550.0,3.0,,,,,,,,,cyan,cross
0.0,2.0,2.0,0.0,6.0,6.0,683.3995100005268,7.0,0.0,part_2,go,400.0,550.0,1.0,,,,,,,,,blue,square
0.0,3.0,3.0,0.0,6.0,6.0,809.3160130001706,7.0,0.0,part_2,go,400.0,550.0,1.0,,,,,,,,,white,triangle
0.0,6.0,2.0,1.0,5.0,0.0,0.0,7.0,0.0,part_2,stop,400.0,550.0,4.0,,,,,,,,,green,hexagon
0.0,2.0,2.0,0.0,6.0,6.0,659.770471000229,7.0,0.0,part_2,go,450.0,550.0,1.0,,,,,,,,,blue,square
0.0,2.0,2.0,0.0,6.0,6.0,1036.043064999831,7.0,0.0,part_2,go,450.0,550.0,1.0,,,,,,,,,blue,square
0.0,8.0,4.0,1.0,5.0,0.0,0.0,7.0,0.0,part_2,stop,450.0,550.0,4.0,,,,,,,,,orange,circle
0.0,3.0,3.0,0.0,6.0,6.0,689.3908869997176,7.0,0.0,part_2,go,500.0,550.0,1.0,,,,,,,,,white,triangle
0.0,7.0,3.0,1.0,6.0,0.0,0.0,7.0,0.0,part_2,stop,500.0,550.0,4.0,,,,,,,,,gray,I
0.0,4.0,4.0,0.0,6.0,6.0,807.5640870001735,7.0,0.0,part_2,go,500.0,600.0,1.0,,,,,,,,,yellow,diamond
0.0,1.0,1.0,0.0,6.0,6.0,550.395643000229,7.0,0.0,part_2,go,500.0,600.0,1.0,,,,,,,,,magenta,flipped triangle
0.0,8.0,4.0,1.0,6.0,0.0,0.0,7.0,0.0,part_2,stop,500.0,600.0,4.0,,,,,,,,,orange,circle
0.0,5.0,1.0,1.0,6.0,6.0,687.6044919999913,7.0,0.0,part_2,stop,500.0,650.0,3.0,,,,,,,,,cyan,cross
0.0,4.0,4.0,0.0,5.0,5.0,1093.049838999832,7.0,0.0,part_2,go,500.0,600.0,1.0,,,,,,,,,yellow,diamond
0.0,2.0,2.0,0.0,5.0,5.0,1040.9543650002888,7.0,0.0,part_2,go,500.0,600.0,1.0,,,,,,,,,blue,square
0.0,6.0,2.0,1.0,5.0,5.0,1102.9387489998044,7.0,0.0,part_2,go,500.0,600.0,1.0,,,,,,,,,green,hexagon
0.0,3.0,3.0,0.0,6.0,6.0,1136.102688000392,7.0,0.0,part_2,go,500.0,600.0,1.0,,,,,,,,,white,triangle
0.0,6.0,2.0,1.0,6.0,6.0,691.9791939999413,7.0,0.0,part_2,stop,500.0,600.0,3.0,,,,,,,,,green,hexagon
0.0,5.0,1.0,1.0,6.0,6.0,641.7260099997293,8.0,0.0,part_2,stop,500.0,550.0,3.0,,,,,,,,,cyan,cross
0.0,2.0,2.0,0.0,5.0,5.0,687.5580219993935,8.0,0.0,part_2,go,500.0,500.0,1.0,,,,,,,,,blue,square
0.0,8.0,4.0,1.0,6.0,0.0,0.0,8.0,0.0,part_2,stop,500.0,500.0,4.0,,,,,,,,,orange,circle
0.0,4.0,4.0,0.0,6.0,6.0,960.3817340002934,8.0,0.0,part_2,go,500.0,550.0,1.0,,,,,,,,,yellow,diamond
0.0,6.0,2.0,1.0,6.0,6.0,708.822747999875,8.0,0.0,part_2,stop,500.0,550.0,3.0,,,,,,,,,green,hexagon
0.0,1.0,1.0,0.0,6.0,6.0,877.1164130002944,8.0,0.0,part_2,go,500.0,500.0,1.0,,,,,,,,,magenta,flipped triangle
0.0,5.0,1.0,1.0,6.0,6.0,588.6341109999194,8.0,0.0,part_2,stop,500.0,500.0,3.0,,,,,,,,,cyan,cross
0.0,6.0,2.0,1.0,6.0,0.0,0.0,8.0,0.0,part_2,stop,500.0,450.0,4.0,,,,,,,,,green,hexagon
0.0,1.0,1.0,0.0,6.0,6.0,993.297074000111,8.0,0.0,part_2,go,500.0,500.0,1.0,,,,,,,,,magenta,flipped triangle
0.0,1.0,1.0,0.0,5.0,5.0,369.2578019999928,8.0,0.0,part_2,go,500.0,500.0,1.0,,,,,,,,,magenta,flipped triangle
0.0,3.0,3.0,0.0,5.0,5.0,389.6032890006609,8.0,0.0,part_2,go,500.0,500.0,1.0,,,,,,,,,white,triangle
0.0,1.0,1.0,0.0,6.0,6.0,329.4326280001769,8.0,0.0,part_2,go,500.0,500.0,1.0,,,,,,,,,magenta,flipped triangle
0.0,7.0,3.0,1.0,6.0,6.0,530.4711919998226,8.0,0.0,part_2,stop,500.0,500.0,3.0,,,,,,,,,gray,I
0.0,7.0,3.0,1.0,5.0,5.0,651.0003570001572,8.0,0.0,part_2,stop,500.0,450.0,3.0,,,,,,,,,gray,I
0.0,4.0,4.0,0.0,6.0,6.0,805.1832050005032,8.0,0.0,part_2,go,450.0,450.0,1.0,,,,,,,,,yellow,diamond
0.0,3.0,3.0,0.0,5.0,5.0,477.141649999794,8.0,0.0,part_2,go,450.0,450.0,1.0,,,,,,,,,white,triangle
0.0,3.0,3.0,0.0,5.0,5.0,438.5081720001835,8.0,0.0,part_2,go,450.0,450.0,1.0,,,,,,,,,white,triangle
0.0,8.0,4.0,1.0,6.0,6.0,616.3480569994135,8.0,0.0,part_2,stop,450.0,450.0,3.0,,,,,,,,,orange,circle
0.0,1.0,1.0,0.0,5.0,5.0,514.8925040002723,8.0,0.0,part_2,go,450.0,400.0,1.0,,,,,,,,,magenta,flipped triangle
0.0,1.0,1.0,0.0,6.0,6.0,538.9888870004143,8.0,0.0,part_2,go,450.0,400.0,1.0,,,,,,,,,magenta,flipped triangle
0.0,7.0,3.0,1.0,5.0,5.0,544.8347410001588,8.0,0.0,part_2,go,450.0,400.0,1.0,,,,,,,,,gray,I
0.0,1.0,1.0,0.0,5.0,5.0,281.4001030001236,8.0,0.0,part_2,go,450.0,400.0,1.0,,,,,,,,,magenta,flipped triangle
0.0,3.0,3.0,0.0,6.0,6.0,357.660095999563,8.0,0.0,part_2,go,450.0,400.0,1.0,,,,,,,,,white,triangle
0.0,8.0,4.0,1.0,6.0,6.0,521.8659040001512,8.0,0.0,part_2,stop,450.0,400.0,3.0,,,,,,,,,orange,circle
0.0,4.0,4.0,0.0,6.0,6.0,529.9349870001606,8.0,0.0,part_2,go,450.0,350.0,1.0,,,,,,,,,yellow,diamond
0.0,7.0,3.0,1.0,6.0,6.0,308.7102400004369,8.0,0.0,part_2,stop,450.0,350.0,3.0,,,,,,,,,gray,I
0.0,4.0,4.0,0.0,6.0,6.0,433.5871659995973,8.0,0.0,part_2,go,450.0,300.0,1.0,,,,,,,,,yellow,diamond
0.0,7.0,3.0,1.0,5.0,5.0,497.9076579993489,8.0,0.0,part_2,go,450.0,300.0,1.0,,,,,,,,,gray,I
0.0,2.0,2.0,0.0,6.0,6.0,278.0015030002687,8.0,0.0,part_2,go,450.0,300.0,1.0,,,,,,,,,blue,square
0.0,4.0,4.0,0.0,5.0,5.0,276.8784500003676,8.0,0.0,part_2,go,450.0,300.0,1.0,,,,,,,,,yellow,diamond
0.0,5.0,1.0,1.0,5.0,5.0,387.0061100005841,8.0,0.0,part_2,stop,450.0,300.0,3.0,,,,,,,,,cyan,cross
0.0,3.0,3.0,0.0,6.0,6.0,437.9510609996941,8.0,0.0,part_2,go,400.0,300.0,1.0,,,,,,,,,white,triangle
0.0,6.0,2.0,1.0,6.0,6.0,385.0392770000326,8.0,0.0,part_2,stop,400.0,300.0,3.0,,,,,,,,,green,hexagon
0.0,1.0,1.0,0.0,6.0,6.0,654.245888999867,8.0,0.0,part_2,go,400.0,250.0,1.0,,,,,,,,,magenta,flipped triangle
0.0,7.0,3.0,1.0,5.0,5.0,376.5542920000371,8.0,0.0,part_2,stop,400.0,250.0,3.0,,,,,,,,,gray,I
0.0,7.0,3.0,1.0,6.0,6.0,670.9044959998209,8.0,0.0,part_2,go,350.0,250.0,1.0,,,,,,,,,gray,I
0.0,1.0,1.0,0.0,7.0,2.0,4028.9232750001247,1.0,1.0,part_3,go,0.0,0.0,0.0,98.0,2.0,196.0,98.0,245.0,294.0,147.0,49.0,magenta,flipped triangle
0.0,5.0,1.0,1.0,7.0,5.0,2970.059360999585,1.0,1.0,part_3,go,0.0,0.0,0.0,220.0,5.0,176.0,132.0,44.0,88.0,220.0,264.0,cyan,cross
0.0,5.0,1.0,1.0,7.0,5.0,3288.0355510005757,1.0,1.0,part_3,go,0.0,0.0,0.0,196.0,4.0,294.0,245.0,147.0,49.0,196.0,98.0,cyan,cross
0.0,1.0,1.0,0.0,7.0,6.0,2705.7521100005033,1.0,1.0,part_3,go,0.0,0.0,0.0,39.0,1.0,156.0,195.0,117.0,78.0,234.0,39.0,magenta,flipped triangle
0.0,5.0,1.0,1.0,7.0,1.0,3286.886070000037,1.0,1.0,part_3,go,0.0,0.0,0.0,270.0,5.0,270.0,216.0,324.0,162.0,54.0,108.0,cyan,cross
0.0,8.0,4.0,1.0,7.0,4.0,2334.191787999771,1.0,1.0,part_3,go,0.0,0.0,0.0,108.0,2.0,162.0,270.0,324.0,108.0,54.0,216.0,orange,circle
0.0,5.0,1.0,1.0,7.0,3.0,1656.2881859999834,1.0,1.0,part_3,go,0.0,0.0,0.0,117.0,3.0,156.0,39.0,117.0,78.0,234.0,195.0,cyan,cross
0.0,8.0,4.0,1.0,7.0,6.0,779.9860119994264,1.0,1.0,part_3,go,0.0,0.0,0.0,156.0,4.0,78.0,234.0,195.0,39.0,117.0,156.0,orange,circle
0.0,3.0,3.0,0.0,7.0,1.0,1768.4000589997595,1.0,1.0,part_3,go,0.0,0.0,0.0,147.0,3.0,147.0,294.0,98.0,245.0,196.0,49.0,white,triangle
0.0,7.0,3.0,1.0,7.0,1.0,1934.4421200003128,1.0,1.0,part_3,go,0.0,0.0,0.0,98.0,2.0,98.0,245.0,196.0,294.0,147.0,49.0,gray,I
0.0,5.0,1.0,1.0,7.0,2.0,425.3854379994664,1.0,1.0,part_3,go,0.0,0.0,0.0,195.0,5.0,156.0,195.0,117.0,234.0,78.0,39.0,cyan,cross
0.0,8.0,4.0,1.0,7.0,3.0,1740.3118170004743,1.0,1.0,part_3,go,0.0,0.0,0.0,49.0,1.0,147.0,294.0,49.0,245.0,196.0,98.0,orange,circle
0.0,2.0,2.0,0.0,7.0,6.0,1762.1711720003077,1.0,1.0,part_3,go,0.0,0.0,0.0,176.0,4.0,132.0,44.0,88.0,264.0,220.0,176.0,blue,square
0.0,6.0,2.0,1.0,7.0,4.0,1015.214217999528,1.0,1.0,part_3,go,0.0,0.0,0.0,54.0,1.0,108.0,216.0,270.0,54.0,324.0,162.0,green,hexagon
0.0,3.0,3.0,0.0,7.0,5.0,419.9633960006395,1.0,1.0,part_3,go,0.0,0.0,0.0,270.0,5.0,324.0,162.0,216.0,54.0,270.0,108.0,white,triangle
0.0,7.0,3.0,1.0,7.0,2.0,1212.7288479996423,1.0,1.0,part_3,go,0.0,0.0,0.0,54.0,1.0,108.0,54.0,324.0,216.0,162.0,270.0,gray,I
0.0,4.0,4.0,0.0,7.0,1.0,2070.7308140008536,1.0,1.0,part_3,go,0.0,0.0,0.0,54.0,1.0,54.0,108.0,324.0,216.0,162.0,270.0,yellow,diamond
0.0,1.0,1.0,0.0,7.0,2.0,3868.534518000161,1.0,1.0,part_3,go,0.0,0.0,0.0,156.0,4.0,78.0,156.0,234.0,39.0,195.0,117.0,magenta,flipped triangle
0.0,6.0,2.0,1.0,7.0,6.0,1420.9724199999982,1.0,1.0,part_3,go,0.0,0.0,0.0,117.0,3.0,195.0,156.0,39.0,234.0,78.0,117.0,green,hexagon
0.0,8.0,4.0,1.0,7.0,4.0,1227.2196619996976,1.0,1.0,part_3,go,0.0,0.0,0.0,196.0,4.0,49.0,294.0,98.0,196.0,245.0,147.0,orange,circle
0.0,5.0,1.0,1.0,7.0,3.0,883.7369439997929,2.0,1.0,part_3,go,0.0,0.0,0.0,216.0,4.0,54.0,108.0,216.0,270.0,162.0,324.0,cyan,cross
0.0,3.0,3.0,0.0,7.0,6.0,916.554649000318,2.0,1.0,part_3,go,0.0,0.0,0.0,34.0,1.0,170.0,204.0,136.0,102.0,68.0,34.0,white,triangle
0.0,2.0,2.0,0.0,7.0,5.0,812.8537689999575,2.0,1.0,part_3,go,0.0,0.0,0.0,102.0,3.0,204.0,170.0,68.0,34.0,102.0,136.0,blue,square
0.0,2.0,2.0,0.0,7.0,2.0,1098.675844000354,2.0,1.0,part_3,go,0.0,0.0,0.0,88.0,2.0,44.0,88.0,220.0,264.0,176.0,132.0,blue,square
0.0,4.0,4.0,0.0,7.0,4.0,998.5289380001632,2.0,1.0,part_3,go,0.0,0.0,0.0,156.0,4.0,117.0,78.0,39.0,156.0,195.0,234.0,yellow,diamond
0.0,3.0,3.0,0.0,7.0,2.0,1043.9769660006275,2.0,1.0,part_3,go,0.0,0.0,0.0,136.0,4.0,34.0,136.0,204.0,170.0,102.0,68.0,white,triangle
0.0,3.0,3.0,0.0,7.0,5.0,426.0698309999498,2.0,1.0,part_3,go,0.0,0.0,0.0,234.0,6.0,78.0,156.0,117.0,195.0,234.0,39.0,white,triangle
0.0,6.0,2.0,1.0,7.0,2.0,264.699675999509,2.0,1.0,part_3,go,0.0,0.0,0.0,88.0,2.0,176.0,88.0,264.0,44.0,220.0,132.0,green,hexagon
0.0,5.0,1.0,1.0,7.0,3.0,576.9136729995807,2.0,1.0,part_3,go,0.0,0.0,0.0,88.0,2.0,220.0,132.0,88.0,176.0,264.0,44.0,cyan,cross
0.0,1.0,1.0,0.0,7.0,1.0,771.5284690002591,2.0,1.0,part_3,go,0.0,0.0,0.0,204.0,6.0,204.0,170.0,68.0,102.0,34.0,136.0,magenta,flipped triangle
0.0,2.0,2.0,0.0,7.0,4.0,602.7448289996755,2.0,1.0,part_3,go,0.0,0.0,0.0,54.0,1.0,216.0,324.0,108.0,54.0,162.0,270.0,blue,square
0.0,7.0,3.0,1.0,7.0,6.0,874.4605329993647,2.0,1.0,part_3,go,0.0,0.0,0.0,34.0,1.0,68.0,170.0,136.0,102.0,204.0,34.0,gray,I
0.0,2.0,2.0,0.0,7.0,5.0,502.0342759999039,2.0,1.0,part_3,go,0.0,0.0,0.0,245.0,5.0,147.0,49.0,294.0,196.0,245.0,98.0,blue,square
0.0,2.0,2.0,0.0,7.0,2.0,523.2836260001932,2.0,1.0,part_3,go,0.0,0.0,0.0,245.0,5.0,196.0,245.0,294.0,49.0,98.0,147.0,blue,square
0.0,6.0,2.0,1.0,7.0,1.0,265.14973599933,2.0,1.0,part_3,go,0.0,0.0,0.0,156.0,4.0,156.0,39.0,195.0,117.0,78.0,234.0,green,hexagon
0.0,4.0,4.0,0.0,7.0,4.0,607.8936369995063,2.0,1.0,part_3,go,0.0,0.0,0.0,88.0,2.0,176.0,44.0,220.0,88.0,132.0,264.0,yellow,diamond
0.0,6.0,2.0,1.0,7.0,6.0,367.7938139999241,2.0,1.0,part_3,go,0.0,0.0,0.0,245.0,5.0,49.0,147.0,196.0,98.0,294.0,245.0,green,hexagon
0.0,2.0,2.0,0.0,7.0,5.0,1341.0783070003165,2.0,1.0,part_3,go,0.0,0.0,0.0,117.0,3.0,234.0,39.0,195.0,78.0,117.0,156.0,blue,square
0.0,1.0,1.0,0.0,7.0,3.0,2226.3752779999777,2.0,1.0,part_3,go,0.0,0.0,0.0,264.0,6.0,44.0,176.0,264.0,220.0,88.0,132.0,magenta,flipped triangle
0.0,3.0,3.0,0.0,7.0,4.0,253.58092399983428,2.0,1.0,part_3,go,0.0,0.0,0.0,108.0,2.0,324.0,270.0,54.0,108.0,162.0,216.0,white,triangle
0.0,7.0,3.0,1.0,7.0,6.0,329.6253079997768,3.0,1.0,part_3,go,0.0,0.0,0.0,44.0,1.0,132.0,220.0,176.0,88.0,264.0,44.0,gray,I
0.0,1.0,1.0,0.0,7.0,5.0,777.2108049994131,3.0,1.0,part_3,go,0.0,0.0,0.0,102.0,3.0,68.0,34.0,136.0,204.0,102.0,170.0,magenta,flipped triangle
0.0,6.0,2.0,1.0,7.0,1.0,454.3868999999176,3.0,1.0,part_3,go,0.0,0.0,0.0,147.0,3.0,147.0,196.0,49.0,294.0,245.0,98.0,green,hexagon
0.0,7.0,3.0,1.0,7.0,2.0,238.3089559998552,3.0,1.0,part_3,go,0.0,0.0,0.0,44.0,1.0,88.0,44.0,132.0,176.0,264.0,220.0,gray,I
0.0,7.0,3.0,1.0,7.0,4.0,272.6732780001839,3.0,1.0,part_3,go,0.0,0.0,0.0,170.0,5.0,136.0,34.0,68.0,170.0,102.0,204.0,gray,I
0.0,5.0,1.0,1.0,7.0,2.0,989.1271180003968,3.0,1.0,part_3,go,0.0,0.0,0.0,34.0,1.0,102.0,34.0,68.0,204.0,136.0,170.0,cyan,cross
0.0,4.0,4.0,0.0,7.0,5.0,745.3924410001491,3.0,1.0,part_3,go,0.0,0.0,0.0,49.0,1.0,294.0,245.0,147.0,196.0,49.0,98.0,yellow,diamond
0.0,2.0,2.0,0.0,7.0,2.0,802.7644620005958,3.0,1.0,part_3,go,0.0,0.0,0.0,136.0,4.0,170.0,136.0,68.0,204.0,102.0,34.0,blue,square
0.0,8.0,4.0,1.0,7.0,1.0,524.0352609998808,3.0,1.0,part_3,go,0.0,0.0,0.0,78.0,2.0,78.0,156.0,117.0,39.0,234.0,195.0,orange,circle
0.0,7.0,3.0,1.0,7.0,3.0,694.82133099973,3.0,1.0,part_3,go,0.0,0.0,0.0,98.0,2.0,294.0,196.0,98.0,49.0,245.0,147.0,gray,I
0.0,5.0,1.0,1.0,7.0,1.0,934.732884999903,3.0,1.0,part_3,go,0.0,0.0,0.0,147.0,3.0,147.0,245.0,196.0,49.0,294.0,98.0,cyan,cross
0.0,7.0,3.0,1.0,7.0,2.0,371.2484309999126,3.0,1.0,part_3,go,0.0,0.0,0.0,39.0,1.0,234.0,39.0,195.0,78.0,156.0,117.0,gray,I
0.0,1.0,1.0,0.0,7.0,3.0,272.5102759995934,3.0,1.0,part_3,go,0.0,0.0,0.0,88.0,2.0,44.0,264.0,88.0,132.0,220.0,176.0,magenta,flipped triangle
0.0,7.0,3.0,1.0,7.0,4.0,351.4934270006051,3.0,1.0,part_3,go,0.0,0.0,0.0,78.0,2.0,195.0,234.0,39.0,78.0,156.0,117.0,gray,I
0.0,2.0,2.0,0.0,7.0,5.0,318.6976659999345,3.0,1.0,part_3,go,0.0,0.0,0.0,54.0,1.0,216.0,162.0,108.0,270.0,54.0,324.0,blue,square
0.0,7.0,3.0,1.0,7.0,6.0,355.3354409996245,3.0,1.0,part_3,go,0.0,0.0,0.0,108.0,2.0,162.0,270.0,324.0,54.0,216.0,108.0,gray,I
0.0,8.0,4.0,1.0,7.0,5.0,423.1488909999825,3.0,1.0,part_3,go,0.0,0.0,0.0,44.0,1.0,176.0,264.0,88.0,220.0,44.0,132.0,orange,circle
0.0,3.0,3.0,0.0,7.0,3.0,362.5303979997625,3.0,1.0,part_3,go,0.0,0.0,0.0,88.0,2.0,176.0,132.0,88.0,44.0,220.0,264.0,white,triangle
0.0,4.0,4.0,0.0,7.0,2.0,812.1760819994961,3.0,1.0,part_3,go,0.0,0.0,0.0,170.0,5.0,136.0,170.0,68.0,34.0,204.0,102.0,yellow,diamond
0.0,4.0,4.0,0.0,7.0,6.0,1462.8011529994185,3.0,1.0,part_3,go,0.0,0.0,0.0,54.0,1.0,270.0,108.0,162.0,324.0,216.0,54.0,yellow,diamond
0.0,3.0,3.0,0.0,7.0,2.0,716.3663600003929,4.0,1.0,part_3,go,0.0,0.0,0.0,147.0,3.0,196.0,147.0,294.0,245.0,49.0,98.0,white,triangle
0.0,4.0,4.0,0.0,7.0,4.0,1408.258880000176,4.0,1.0,part_3,go,0.0,0.0,0.0,98.0,2.0,294.0,245.0,147.0,98.0,49.0,196.0,yellow,diamond
0.0,6.0,2.0,1.0,7.0,1.0,420.4455959998086,4.0,1.0,part_3,go,0.0,0.0,0.0,170.0,5.0,170.0,102.0,136.0,34.0,204.0,68.0,green,hexagon
0.0,3.0,3.0,0.0,7.0,6.0,489.8878989997683,4.0,1.0,part_3,go,0.0,0.0,0.0,264.0,6.0,220.0,44.0,132.0,88.0,176.0,264.0,white,triangle
0.0,5.0,1.0,1.0,7.0,1.0,925.9797960003198,4.0,1.0,part_3,go,0.0,0.0,0.0,34.0,1.0,34.0,102.0,136.0,68.0,170.0,204.0,cyan,cross
0.0,6.0,2.0,1.0,7.0,1.0,1068.9459770001122,4.0,1.0,part_3,go,0.0,0.0,0.0,54.0,1.0,54.0,324.0,270.0,108.0,162.0,216.0,green,hexagon
0.0,8.0,4.0,1.0,7.0,4.0,1208.4266380006738,4.0,1.0,part_3,go,0.0,0.0,0.0,204.0,6.0,136.0,102.0,68.0,204.0,34.0,170.0,orange,circle
0.0,1.0,1.0,0.0,7.0,2.0,686.4811670002382,4.0,1.0,part_3,go,0.0,0.0,0.0,54.0,1.0,162.0,54.0,324.0,108.0,270.0,216.0,magenta,flipped triangle
0.0,1.0,1.0,0.0,7.0,5.0,1103.3342820001053,4.0,1.0,part_3,go,0.0,0.0,0.0,162.0,3.0,216.0,54.0,270.0,324.0,162.0,108.0,magenta,flipped triangle
0.0,1.0,1.0,0.0,7.0,3.0,2381.4163420001933,4.0,1.0,part_3,go,0.0,0.0,0.0,294.0,6.0,147.0,49.0,294.0,245.0,196.0,98.0,magenta,flipped triangle
0.0,6.0,2.0,1.0,7.0,3.0,1247.095785000056,4.0,1.0,part_3,go,0.0,0.0,0.0,264.0,6.0,220.0,132.0,264.0,88.0,44.0,176.0,green,hexagon
0.0,4.0,4.0,0.0,7.0,3.0,1176.521665999644,4.0,1.0,part_3,go,0.0,0.0,0.0,204.0,6.0,102.0,170.0,204.0,136.0,68.0,34.0,yellow,diamond
0.0,3.0,3.0,0.0,7.0,5.0,2041.999472000498,4.0,1.0,part_3,go,0.0,0.0,0.0,39.0,1.0,117.0,156.0,78.0,195.0,39.0,234.0,white,triangle
0.0,2.0,2.0,0.0,7.0,2.0,1108.171035999476,4.0,1.0,part_3,go,0.0,0.0,0.0,234.0,6.0,156.0,234.0,117.0,39.0,78.0,195.0,blue,square
0.0,8.0,4.0,1.0,7.0,2.0,1121.1450620003234,4.0,1.0,part_3,go,0.0,0.0,0.0,204.0,6.0,136.0,204.0,68.0,170.0,34.0,102.0,orange,circle
0.0,6.0,2.0,1.0,7.0,3.0,946.4013980004892,4.0,1.0,part_3,go,0.0,0.0,0.0,136.0,4.0,68.0,34.0,136.0,204.0,102.0,170.0,green,hexagon
0.0,4.0,4.0,0.0,7.0,4.0,1033.76570599994,4.0,1.0,part_3,go,0.0,0.0,0.0,88.0,2.0,176.0,44.0,264.0,88.0,132.0,220.0,yellow,diamond
0.0,8.0,4.0,1.0,7.0,1.0,1565.6026650003696,4.0,1.0,part_3,go,0.0,0.0,0.0,54.0,1.0,54.0,162.0,108.0,216.0,324.0,270.0,orange,circle
0.0,4.0,4.0,0.0,7.0,6.0,2028.046465999978,4.0,1.0,part_3,go,0.0,0.0,0.0,156.0,4.0,78.0,117.0,234.0,39.0,195.0,156.0,yellow,diamond
0.0,8.0,4.0,1.0,7.0,6.0,1879.1962400000557,4.0,1.0,part_3,go,0.0,0.0,0.0,88.0,2.0,132.0,176.0,220.0,264.0,44.0,88.0,orange,circle
