raw_reward_magnitude,stim_reward,stepwise_reward_magnitude,paired_with_stopping,stim_location,response,reaction_time,block,num_trial_presentations,which_phase,stop_signal_trial_type,left_SSD,right_SSD,accuracy,chosen_bidding_amount,chosen_bidding_level,possible_bid_1,possible_bid_2,possible_bid_3,possible_bid_4,possible_bid_5,possible_bid_6,color_text,shape_text
192.0,3.0,2.0,0.0,1.0,1.0,278.4287859999494,1.0,1.0,phase_1,,,,,,,,,,,,,blue,circle
0.0,8.0,0.0,1.0,2.0,2.0,241.0688679999566,1.0,1.0,phase_1,,,,,,,,,,,,,yellow,square
0.0,5.0,0.0,1.0,2.0,2.0,254.01953499999757,1.0,1.0,phase_1,,,,,,,,,,,,,gray,hexagon
65.0,1.0,0.5,0.0,4.0,4.0,234.5238610000706,1.0,1.0,phase_1,,,,,,,,,,,,,magenta,cross
176.0,3.0,2.0,0.0,3.0,3.0,270.0764230000914,1.0,1.0,phase_1,,,,,,,,,,,,,blue,circle
406.0,8.0,4.0,1.0,1.0,1.0,253.36673600008908,1.0,1.0,phase_1,,,,,,,,,,,,,yellow,square
379.0,4.0,4.0,0.0,2.0,2.0,229.8802329999034,1.0,1.0,phase_1,,,,,,,,,,,,,white,flipped triangle
419.0,8.0,4.0,1.0,4.0,4.0,248.0382549999831,1.0,1.0,phase_1,,,,,,,,,,,,,yellow,square
0.0,5.0,0.0,1.0,4.0,4.0,346.5837819999251,1.0,1.0,phase_1,,,,,,,,,,,,,gray,hexagon
217.0,3.0,2.0,0.0,2.0,2.0,271.4293330000146,1.0,1.0,phase_1,,,,,,,,,,,,,blue,circle
202.0,3.0,2.0,0.0,1.0,1.0,270.4269620001014,1.0,1.0,phase_1,,,,,,,,,,,,,blue,circle
195.0,3.0,2.0,0.0,2.0,2.0,298.1622219999735,1.0,1.0,phase_1,,,,,,,,,,,,,blue,circle
114.0,6.0,1.0,1.0,2.0,2.0,323.0991999998878,1.0,1.0,phase_1,,,,,,,,,,,,,orange,triangle
0.0,8.0,0.0,1.0,4.0,4.0,322.7190789998531,1.0,1.0,phase_1,,,,,,,,,,,,,yellow,square
410.0,4.0,4.0,0.0,4.0,4.0,336.4996210000299,1.0,1.0,phase_1,,,,,,,,,,,,,white,flipped triangle
0.0,2.0,0.0,0.0,3.0,3.0,284.966612000062,1.0,1.0,phase_1,,,,,,,,,,,,,cyan,I
185.0,7.0,2.0,1.0,2.0,2.0,255.83426999992298,1.0,1.0,phase_1,,,,,,,,,,,,,green,diamond
0.0,1.0,0.0,0.0,4.0,4.0,298.4177860000727,1.0,1.0,phase_1,,,,,,,,,,,,,magenta,cross
388.0,8.0,4.0,1.0,3.0,3.0,253.1448229999569,1.0,1.0,phase_1,,,,,,,,,,,,,yellow,square
103.0,6.0,1.0,1.0,2.0,2.0,317.3176669999975,1.0,1.0,phase_1,,,,,,,,,,,,,orange,triangle
410.0,8.0,4.0,1.0,2.0,2.0,292.2222929998952,1.0,1.0,phase_1,,,,,,,,,,,,,yellow,square
0.0,8.0,0.0,1.0,3.0,3.0,229.8249200000555,1.0,1.0,phase_1,,,,,,,,,,,,,yellow,square
55.0,1.0,0.5,0.0,3.0,3.0,248.9957039999808,1.0,1.0,phase_1,,,,,,,,,,,,,magenta,cross
217.0,7.0,2.0,1.0,3.0,3.0,258.572347999916,1.0,1.0,phase_1,,,,,,,,,,,,,green,diamond
89.0,6.0,1.0,1.0,3.0,3.0,253.26035599982788,1.0,1.0,phase_1,,,,,,,,,,,,,orange,triangle
99.0,2.0,1.0,0.0,2.0,2.0,257.135733000041,1.0,1.0,phase_1,,,,,,,,,,,,,cyan,I
217.0,7.0,2.0,1.0,1.0,1.0,343.7109399999372,1.0,1.0,phase_1,,,,,,,,,,,,,green,diamond
0.0,2.0,0.0,0.0,1.0,1.0,408.2918040001004,1.0,1.0,phase_1,,,,,,,,,,,,,cyan,I
400.0,8.0,4.0,1.0,3.0,3.0,279.6267990001979,1.0,1.0,phase_1,,,,,,,,,,,,,yellow,square
420.0,8.0,4.0,1.0,1.0,1.0,278.8887910000994,1.0,1.0,phase_1,,,,,,,,,,,,,yellow,square
37.0,1.0,0.5,0.0,4.0,4.0,280.2841589998479,1.0,1.0,phase_1,,,,,,,,,,,,,magenta,cross
106.0,2.0,1.0,0.0,2.0,2.0,668.7847010000496,1.0,1.0,phase_1,,,,,,,,,,,,,cyan,I
60.0,1.0,0.5,0.0,4.0,4.0,289.3515599998864,1.0,1.0,phase_1,,,,,,,,,,,,,magenta,cross
50.0,1.0,0.5,0.0,4.0,4.0,306.3933949999864,1.0,1.0,phase_1,,,,,,,,,,,,,magenta,cross
54.0,5.0,0.5,1.0,1.0,1.0,308.4498510002049,1.0,1.0,phase_1,,,,,,,,,,,,,gray,hexagon
91.0,6.0,1.0,1.0,3.0,3.0,257.4707209998905,1.0,1.0,phase_1,,,,,,,,,,,,,orange,triangle
203.0,7.0,2.0,1.0,4.0,4.0,346.2405549998948,1.0,1.0,phase_1,,,,,,,,,,,,,green,diamond
0.0,7.0,0.0,1.0,2.0,2.0,251.16919599986431,1.0,1.0,phase_1,,,,,,,,,,,,,green,diamond
29.0,5.0,0.5,1.0,1.0,1.0,264.3966859998272,1.0,1.0,phase_1,,,,,,,,,,,,,gray,hexagon
191.0,7.0,2.0,1.0,2.0,2.0,252.7674299999489,1.0,1.0,phase_1,,,,,,,,,,,,,green,diamond
417.0,4.0,4.0,0.0,1.0,1.0,307.4530110000069,1.0,1.0,phase_1,,,,,,,,,,,,,white,flipped triangle
384.0,8.0,4.0,1.0,1.0,1.0,315.5459499998869,1.0,1.0,phase_1,,,,,,,,,,,,,yellow,square
403.0,8.0,4.0,1.0,2.0,2.0,260.2717869999651,1.0,1.0,phase_1,,,,,,,,,,,,,yellow,square
222.0,7.0,2.0,1.0,2.0,2.0,252.4843170001531,1.0,1.0,phase_1,,,,,,,,,,,,,green,diamond
31.0,5.0,0.5,1.0,1.0,1.0,305.5378149999797,1.0,1.0,phase_1,,,,,,,,,,,,,gray,hexagon
25.0,1.0,0.5,0.0,4.0,4.0,296.5336649999699,1.0,1.0,phase_1,,,,,,,,,,,,,magenta,cross
417.0,8.0,4.0,1.0,3.0,3.0,280.228986000111,1.0,1.0,phase_1,,,,,,,,,,,,,yellow,square
99.0,2.0,1.0,0.0,2.0,2.0,238.3503170001404,1.0,1.0,phase_1,,,,,,,,,,,,,cyan,I
35.0,5.0,0.5,1.0,3.0,3.0,292.6681410001492,1.0,1.0,phase_1,,,,,,,,,,,,,gray,hexagon
403.0,4.0,4.0,0.0,2.0,2.0,280.817369000033,1.0,1.0,phase_1,,,,,,,,,,,,,white,flipped triangle
74.0,1.0,0.5,0.0,3.0,3.0,264.0827640000225,1.0,1.0,phase_1,,,,,,,,,,,,,magenta,cross
420.0,4.0,4.0,0.0,4.0,4.0,322.0641830000659,1.0,1.0,phase_1,,,,,,,,,,,,,white,flipped triangle
424.0,8.0,4.0,1.0,4.0,4.0,311.0838229999899,1.0,1.0,phase_1,,,,,,,,,,,,,yellow,square
0.0,1.0,0.0,0.0,1.0,1.0,283.0194979999305,1.0,1.0,phase_1,,,,,,,,,,,,,magenta,cross
391.0,4.0,4.0,0.0,4.0,4.0,257.1052359999157,1.0,1.0,phase_1,,,,,,,,,,,,,white,flipped triangle
119.0,2.0,1.0,0.0,1.0,1.0,275.9575830000358,1.0,1.0,phase_1,,,,,,,,,,,,,cyan,I
0.0,3.0,0.0,0.0,2.0,2.0,252.43464400000448,1.0,1.0,phase_1,,,,,,,,,,,,,blue,circle
0.0,3.0,0.0,0.0,3.0,3.0,265.0551849999374,1.0,1.0,phase_1,,,,,,,,,,,,,blue,circle
396.0,8.0,4.0,1.0,1.0,1.0,266.3726030000362,1.0,1.0,phase_1,,,,,,,,,,,,,yellow,square
30.0,1.0,0.5,0.0,1.0,1.0,282.7926400000251,1.0,1.0,phase_1,,,,,,,,,,,,,magenta,cross
27.0,1.0,0.5,0.0,3.0,3.0,267.7432769999086,1.0,1.0,phase_1,,,,,,,,,,,,,magenta,cross
192.0,7.0,2.0,1.0,4.0,4.0,287.9251379999914,1.0,1.0,phase_1,,,,,,,,,,,,,green,diamond
195.0,7.0,2.0,1.0,3.0,3.0,259.4253629999912,1.0,1.0,phase_1,,,,,,,,,,,,,green,diamond
203.0,3.0,2.0,0.0,2.0,2.0,213.9077500000894,1.0,1.0,phase_1,,,,,,,,,,,,,blue,circle
202.0,7.0,2.0,1.0,4.0,4.0,240.4923409999355,1.0,1.0,phase_1,,,,,,,,,,,,,green,diamond
0.0,2.0,0.0,0.0,2.0,2.0,274.0315460000602,1.0,1.0,phase_1,,,,,,,,,,,,,cyan,I
407.0,4.0,4.0,0.0,1.0,1.0,254.7762990000137,1.0,1.0,phase_1,,,,,,,,,,,,,white,flipped triangle
0.0,3.0,0.0,0.0,2.0,2.0,265.6652350001423,1.0,1.0,phase_1,,,,,,,,,,,,,blue,circle
194.0,7.0,2.0,1.0,4.0,4.0,287.2207489999709,1.0,1.0,phase_1,,,,,,,,,,,,,green,diamond
81.0,2.0,1.0,0.0,3.0,3.0,300.6436460000259,1.0,1.0,phase_1,,,,,,,,,,,,,cyan,I
0.0,6.0,0.0,1.0,3.0,3.0,268.1092860000262,1.0,1.0,phase_1,,,,,,,,,,,,,orange,triangle
216.0,3.0,2.0,0.0,4.0,4.0,300.0471170000764,1.0,1.0,phase_1,,,,,,,,,,,,,blue,circle
385.0,4.0,4.0,0.0,1.0,1.0,270.8046430000195,1.0,1.0,phase_1,,,,,,,,,,,,,white,flipped triangle
203.0,3.0,2.0,0.0,3.0,3.0,272.9359830000248,1.0,1.0,phase_1,,,,,,,,,,,,,blue,circle
35.0,5.0,0.5,1.0,4.0,4.0,286.1338500001693,1.0,1.0,phase_1,,,,,,,,,,,,,gray,hexagon
224.0,3.0,2.0,0.0,4.0,4.0,289.3490159999601,1.0,1.0,phase_1,,,,,,,,,,,,,blue,circle
214.0,7.0,2.0,1.0,1.0,1.0,421.5294089999588,1.0,1.0,phase_1,,,,,,,,,,,,,green,diamond
403.0,4.0,4.0,0.0,2.0,2.0,295.4995439999948,1.0,1.0,phase_1,,,,,,,,,,,,,white,flipped triangle
396.0,4.0,4.0,0.0,3.0,3.0,287.6177149998966,1.0,1.0,phase_1,,,,,,,,,,,,,white,flipped triangle
0.0,4.0,0.0,0.0,1.0,1.0,300.5401440000241,1.0,1.0,phase_1,,,,,,,,,,,,,white,flipped triangle
0.0,3.0,0.0,0.0,1.0,1.0,305.5779790001907,1.0,1.0,phase_1,,,,,,,,,,,,,blue,circle
0.0,2.0,0.0,0.0,2.0,2.0,259.4212829999378,1.0,1.0,phase_1,,,,,,,,,,,,,cyan,I
0.0,8.0,0.0,1.0,3.0,3.0,264.1853749998972,1.0,1.0,phase_1,,,,,,,,,,,,,yellow,square
0.0,7.0,0.0,1.0,1.0,1.0,308.8506699998561,1.0,1.0,phase_1,,,,,,,,,,,,,green,diamond
0.0,1.0,0.0,0.0,3.0,3.0,226.790881999932,1.0,1.0,phase_1,,,,,,,,,,,,,magenta,cross
0.0,7.0,0.0,1.0,2.0,2.0,251.98198500015678,1.0,1.0,phase_1,,,,,,,,,,,,,green,diamond
45.0,1.0,0.5,0.0,2.0,2.0,259.4336509998811,1.0,1.0,phase_1,,,,,,,,,,,,,magenta,cross
50.0,5.0,0.5,1.0,4.0,4.0,292.5783609998689,1.0,1.0,phase_1,,,,,,,,,,,,,gray,hexagon
406.0,4.0,4.0,0.0,3.0,3.0,257.2353139998995,1.0,1.0,phase_1,,,,,,,,,,,,,white,flipped triangle
0.0,4.0,0.0,0.0,1.0,1.0,241.9099280000409,1.0,1.0,phase_1,,,,,,,,,,,,,white,flipped triangle
404.0,4.0,4.0,0.0,3.0,3.0,280.417209999996,1.0,1.0,phase_1,,,,,,,,,,,,,white,flipped triangle
109.0,2.0,1.0,0.0,1.0,1.0,282.30666200011,1.0,1.0,phase_1,,,,,,,,,,,,,cyan,I
225.0,7.0,2.0,1.0,3.0,3.0,252.3904550000679,1.0,1.0,phase_1,,,,,,,,,,,,,green,diamond
39.0,5.0,0.5,1.0,2.0,2.0,261.9006939999053,1.0,1.0,phase_1,,,,,,,,,,,,,gray,hexagon
109.0,6.0,1.0,1.0,4.0,4.0,239.0771639998092,1.0,1.0,phase_1,,,,,,,,,,,,,orange,triangle
69.0,1.0,0.5,0.0,3.0,3.0,247.7835120000691,1.0,1.0,phase_1,,,,,,,,,,,,,magenta,cross
197.0,7.0,2.0,1.0,3.0,3.0,276.8881209999563,1.0,1.0,phase_1,,,,,,,,,,,,,green,diamond
186.0,3.0,2.0,0.0,4.0,4.0,322.2735869999269,1.0,1.0,phase_1,,,,,,,,,,,,,blue,circle
0.0,4.0,0.0,0.0,2.0,2.0,244.7064719999616,1.0,1.0,phase_1,,,,,,,,,,,,,white,flipped triangle
68.0,1.0,0.5,0.0,1.0,1.0,295.0006070000199,1.0,1.0,phase_1,,,,,,,,,,,,,magenta,cross
96.0,2.0,1.0,0.0,1.0,1.0,488.9275450000241,2.0,1.0,phase_1,,,,,,,,,,,,,cyan,I
103.0,2.0,1.0,0.0,3.0,3.0,239.434360000132,2.0,1.0,phase_1,,,,,,,,,,,,,cyan,I
0.0,4.0,0.0,0.0,1.0,1.0,319.3639369999346,2.0,1.0,phase_1,,,,,,,,,,,,,white,flipped triangle
85.0,2.0,1.0,0.0,3.0,3.0,245.2667420000125,2.0,1.0,phase_1,,,,,,,,,,,,,cyan,I
94.0,2.0,1.0,0.0,2.0,2.0,340.3832660001171,2.0,1.0,phase_1,,,,,,,,,,,,,cyan,I
208.0,7.0,2.0,1.0,4.0,4.0,300.1458999999613,2.0,1.0,phase_1,,,,,,,,,,,,,green,diamond
123.0,6.0,1.0,1.0,2.0,2.0,239.5400730001711,2.0,1.0,phase_1,,,,,,,,,,,,,orange,triangle
223.0,7.0,2.0,1.0,2.0,2.0,306.0101610001311,2.0,1.0,phase_1,,,,,,,,,,,,,green,diamond
391.0,4.0,4.0,0.0,3.0,3.0,218.6844650000239,2.0,1.0,phase_1,,,,,,,,,,,,,white,flipped triangle
409.0,8.0,4.0,1.0,2.0,2.0,274.7664610001266,2.0,1.0,phase_1,,,,,,,,,,,,,yellow,square
407.0,8.0,4.0,1.0,3.0,3.0,277.5583420000203,2.0,1.0,phase_1,,,,,,,,,,,,,yellow,square
385.0,4.0,4.0,0.0,3.0,3.0,322.5827039998421,2.0,1.0,phase_1,,,,,,,,,,,,,white,flipped triangle
0.0,1.0,0.0,0.0,3.0,3.0,267.9196760000195,2.0,1.0,phase_1,,,,,,,,,,,,,magenta,cross
72.0,5.0,0.5,1.0,4.0,4.0,329.1951329999847,2.0,1.0,phase_1,,,,,,,,,,,,,gray,hexagon
86.0,2.0,1.0,0.0,3.0,3.0,277.1974520001095,2.0,1.0,phase_1,,,,,,,,,,,,,cyan,I
58.0,5.0,0.5,1.0,1.0,1.0,298.6692500001027,2.0,1.0,phase_1,,,,,,,,,,,,,gray,hexagon
117.0,2.0,1.0,0.0,3.0,3.0,260.5992329999935,2.0,1.0,phase_1,,,,,,,,,,,,,cyan,I
30.0,5.0,0.5,1.0,4.0,4.0,329.2283099999622,2.0,1.0,phase_1,,,,,,,,,,,,,gray,hexagon
211.0,3.0,2.0,0.0,3.0,3.0,340.0776329999644,2.0,1.0,phase_1,,,,,,,,,,,,,blue,circle
111.0,2.0,1.0,0.0,1.0,1.0,304.6288880000247,2.0,1.0,phase_1,,,,,,,,,,,,,cyan,I
386.0,4.0,4.0,0.0,2.0,2.0,306.8992459998299,2.0,1.0,phase_1,,,,,,,,,,,,,white,flipped triangle
376.0,8.0,4.0,1.0,1.0,1.0,289.7606989999985,2.0,1.0,phase_1,,,,,,,,,,,,,yellow,square
400.0,4.0,4.0,0.0,3.0,3.0,251.5388120000352,2.0,1.0,phase_1,,,,,,,,,,,,,white,flipped triangle
54.0,5.0,0.5,1.0,1.0,1.0,301.8622399999913,2.0,1.0,phase_1,,,,,,,,,,,,,gray,hexagon
179.0,3.0,2.0,0.0,4.0,4.0,313.9046389999294,2.0,1.0,phase_1,,,,,,,,,,,,,blue,circle
0.0,2.0,0.0,0.0,2.0,2.0,292.225543999848,2.0,1.0,phase_1,,,,,,,,,,,,,cyan,I
194.0,3.0,2.0,0.0,3.0,3.0,267.0424049999838,2.0,1.0,phase_1,,,,,,,,,,,,,blue,circle
407.0,8.0,4.0,1.0,1.0,1.0,271.0314470000412,2.0,1.0,phase_1,,,,,,,,,,,,,yellow,square
0.0,7.0,0.0,1.0,4.0,4.0,259.3736569999691,2.0,1.0,phase_1,,,,,,,,,,,,,green,diamond
99.0,6.0,1.0,1.0,2.0,2.0,232.540260000178,2.0,1.0,phase_1,,,,,,,,,,,,,orange,triangle
119.0,6.0,1.0,1.0,4.0,4.0,318.041120999851,2.0,1.0,phase_1,,,,,,,,,,,,,orange,triangle
392.0,4.0,4.0,0.0,2.0,2.0,320.4832920000626,2.0,1.0,phase_1,,,,,,,,,,,,,white,flipped triangle
79.0,6.0,1.0,1.0,4.0,4.0,295.1364860000467,2.0,1.0,phase_1,,,,,,,,,,,,,orange,triangle
225.0,3.0,2.0,0.0,4.0,4.0,287.2549710000385,2.0,1.0,phase_1,,,,,,,,,,,,,blue,circle
192.0,3.0,2.0,0.0,3.0,3.0,276.4822990000084,2.0,1.0,phase_1,,,,,,,,,,,,,blue,circle
114.0,2.0,1.0,0.0,4.0,4.0,295.2984280000237,2.0,1.0,phase_1,,,,,,,,,,,,,cyan,I
43.0,5.0,0.5,1.0,2.0,2.0,287.7171699999508,2.0,1.0,phase_1,,,,,,,,,,,,,gray,hexagon
124.0,2.0,1.0,0.0,2.0,2.0,298.2994920000692,2.0,1.0,phase_1,,,,,,,,,,,,,cyan,I
81.0,6.0,1.0,1.0,1.0,1.0,292.8196089999346,2.0,1.0,phase_1,,,,,,,,,,,,,orange,triangle
99.0,2.0,1.0,0.0,3.0,3.0,236.3853470001231,2.0,1.0,phase_1,,,,,,,,,,,,,cyan,I
198.0,3.0,2.0,0.0,1.0,1.0,271.387372999925,2.0,1.0,phase_1,,,,,,,,,,,,,blue,circle
0.0,8.0,0.0,1.0,3.0,3.0,267.0187829999122,2.0,1.0,phase_1,,,,,,,,,,,,,yellow,square
40.0,1.0,0.5,0.0,1.0,1.0,328.8517369996953,2.0,1.0,phase_1,,,,,,,,,,,,,magenta,cross
208.0,7.0,2.0,1.0,3.0,3.0,286.1548460000449,2.0,1.0,phase_1,,,,,,,,,,,,,green,diamond
97.0,2.0,1.0,0.0,4.0,4.0,312.8770100001929,2.0,1.0,phase_1,,,,,,,,,,,,,cyan,I
29.0,1.0,0.5,0.0,4.0,4.0,251.86380500008448,2.0,1.0,phase_1,,,,,,,,,,,,,magenta,cross
211.0,7.0,2.0,1.0,3.0,3.0,282.3566160000155,2.0,1.0,phase_1,,,,,,,,,,,,,green,diamond
0.0,2.0,0.0,0.0,1.0,1.0,323.8106079998033,2.0,1.0,phase_1,,,,,,,,,,,,,cyan,I
51.0,5.0,0.5,1.0,3.0,3.0,221.260730999802,2.0,1.0,phase_1,,,,,,,,,,,,,gray,hexagon
66.0,5.0,0.5,1.0,3.0,3.0,269.7385629999189,2.0,1.0,phase_1,,,,,,,,,,,,,gray,hexagon
99.0,6.0,1.0,1.0,1.0,1.0,319.4042519999129,2.0,1.0,phase_1,,,,,,,,,,,,,orange,triangle
0.0,1.0,0.0,0.0,1.0,1.0,317.7549919996636,2.0,1.0,phase_1,,,,,,,,,,,,,magenta,cross
424.0,4.0,4.0,0.0,2.0,2.0,292.9552639998292,2.0,1.0,phase_1,,,,,,,,,,,,,white,flipped triangle
379.0,4.0,4.0,0.0,3.0,3.0,241.0550349995901,2.0,1.0,phase_1,,,,,,,,,,,,,white,flipped triangle
391.0,8.0,4.0,1.0,3.0,3.0,281.6283160000239,2.0,1.0,phase_1,,,,,,,,,,,,,yellow,square
58.0,1.0,0.5,0.0,1.0,1.0,316.0209890002079,2.0,1.0,phase_1,,,,,,,,,,,,,magenta,cross
379.0,4.0,4.0,0.0,4.0,4.0,288.5815299996466,2.0,1.0,phase_1,,,,,,,,,,,,,white,flipped triangle
214.0,3.0,2.0,0.0,3.0,3.0,327.2434539999267,2.0,1.0,phase_1,,,,,,,,,,,,,blue,circle
80.0,6.0,1.0,1.0,2.0,2.0,292.8926210001918,2.0,1.0,phase_1,,,,,,,,,,,,,orange,triangle
410.0,4.0,4.0,0.0,3.0,3.0,285.5996299999788,2.0,1.0,phase_1,,,,,,,,,,,,,white,flipped triangle
109.0,2.0,1.0,0.0,3.0,3.0,277.280692000204,2.0,1.0,phase_1,,,,,,,,,,,,,cyan,I
25.0,5.0,0.5,1.0,3.0,3.0,269.0324689997396,2.0,1.0,phase_1,,,,,,,,,,,,,gray,hexagon
375.0,4.0,4.0,0.0,4.0,4.0,288.4838429999945,2.0,1.0,phase_1,,,,,,,,,,,,,white,flipped triangle
189.0,7.0,2.0,1.0,1.0,1.0,282.4817359996814,2.0,1.0,phase_1,,,,,,,,,,,,,green,diamond
124.0,6.0,1.0,1.0,4.0,4.0,317.2979410001062,2.0,1.0,phase_1,,,,,,,,,,,,,orange,triangle
208.0,3.0,2.0,0.0,3.0,3.0,246.7463029997816,2.0,1.0,phase_1,,,,,,,,,,,,,blue,circle
200.0,7.0,2.0,1.0,1.0,1.0,268.3955739998964,2.0,1.0,phase_1,,,,,,,,,,,,,green,diamond
403.0,8.0,4.0,1.0,4.0,4.0,264.7478869998849,2.0,1.0,phase_1,,,,,,,,,,,,,yellow,square
0.0,2.0,0.0,0.0,3.0,3.0,263.2150999997975,2.0,1.0,phase_1,,,,,,,,,,,,,cyan,I
182.0,7.0,2.0,1.0,3.0,3.0,264.6611879999909,2.0,1.0,phase_1,,,,,,,,,,,,,green,diamond
0.0,7.0,0.0,1.0,4.0,4.0,377.5128719998974,2.0,1.0,phase_1,,,,,,,,,,,,,green,diamond
0.0,4.0,0.0,0.0,2.0,2.0,714.9950389998594,2.0,1.0,phase_1,,,,,,,,,,,,,white,flipped triangle
184.0,3.0,2.0,0.0,4.0,4.0,314.2606609999347,2.0,2.0,phase_1,,,,,,,,,,,,,blue,circle
97.0,6.0,1.0,1.0,1.0,1.0,293.1365300000834,2.0,1.0,phase_1,,,,,,,,,,,,,orange,triangle
411.0,4.0,4.0,0.0,4.0,4.0,295.7045610000932,2.0,1.0,phase_1,,,,,,,,,,,,,white,flipped triangle
421.0,4.0,4.0,0.0,1.0,1.0,333.7768169999435,2.0,1.0,phase_1,,,,,,,,,,,,,white,flipped triangle
51.0,1.0,0.5,0.0,2.0,2.0,290.47416200000947,2.0,1.0,phase_1,,,,,,,,,,,,,magenta,cross
0.0,7.0,0.0,1.0,1.0,1.0,457.424336999793,2.0,1.0,phase_1,,,,,,,,,,,,,green,diamond
184.0,7.0,2.0,1.0,2.0,2.0,297.8111840002384,2.0,1.0,phase_1,,,,,,,,,,,,,green,diamond
40.0,5.0,0.5,1.0,1.0,1.0,343.3367010002257,2.0,1.0,phase_1,,,,,,,,,,,,,gray,hexagon
221.0,3.0,2.0,0.0,3.0,3.0,285.5761250002615,2.0,1.0,phase_1,,,,,,,,,,,,,blue,circle
393.0,8.0,4.0,1.0,4.0,4.0,280.5033949998687,2.0,1.0,phase_1,,,,,,,,,,,,,yellow,square
198.0,7.0,2.0,1.0,4.0,4.0,307.0677169998816,2.0,1.0,phase_1,,,,,,,,,,,,,green,diamond
55.0,5.0,0.5,1.0,2.0,2.0,283.5720869998113,2.0,1.0,phase_1,,,,,,,,,,,,,gray,hexagon
0.0,4.0,0.0,0.0,2.0,2.0,320.6777919999695,2.0,1.0,phase_1,,,,,,,,,,,,,white,flipped triangle
185.0,3.0,2.0,0.0,2.0,2.0,290.0779010001315,2.0,1.0,phase_1,,,,,,,,,,,,,blue,circle
46.0,1.0,0.5,0.0,3.0,3.0,275.0946080000176,2.0,1.0,phase_1,,,,,,,,,,,,,magenta,cross
179.0,7.0,2.0,1.0,1.0,1.0,259.546279999995,2.0,1.0,phase_1,,,,,,,,,,,,,green,diamond
63.0,1.0,0.5,0.0,2.0,2.0,290.7233860000815,2.0,1.0,phase_1,,,,,,,,,,,,,magenta,cross
0.0,6.0,0.0,1.0,1.0,1.0,339.086228999804,2.0,1.0,phase_1,,,,,,,,,,,,,orange,triangle
198.0,3.0,2.0,0.0,2.0,2.0,307.767935999891,2.0,1.0,phase_1,,,,,,,,,,,,,blue,circle
0.0,7.0,0.0,1.0,4.0,4.0,296.1239890000797,2.0,1.0,phase_1,,,,,,,,,,,,,green,diamond
0.0,5.0,0.0,1.0,3.0,3.0,272.5612489998639,2.0,1.0,phase_1,,,,,,,,,,,,,gray,hexagon
32.0,1.0,0.5,0.0,4.0,4.0,340.7791499998893,2.0,1.0,phase_1,,,,,,,,,,,,,magenta,cross
50.0,5.0,0.5,1.0,1.0,1.0,319.2094559999532,2.0,1.0,phase_1,,,,,,,,,,,,,gray,hexagon
0.0,1.0,0.0,0.0,1.0,1.0,347.1704899998258,2.0,1.0,phase_1,,,,,,,,,,,,,magenta,cross
385.0,8.0,4.0,1.0,3.0,3.0,300.8519640002305,2.0,1.0,phase_1,,,,,,,,,,,,,yellow,square
73.0,1.0,0.5,0.0,3.0,3.0,293.2941970002503,2.0,1.0,phase_1,,,,,,,,,,,,,magenta,cross
86.0,6.0,1.0,1.0,3.0,3.0,301.3044120002632,2.0,1.0,phase_1,,,,,,,,,,,,,orange,triangle
80.0,6.0,1.0,1.0,3.0,3.0,286.1539390000871,2.0,1.0,phase_1,,,,,,,,,,,,,orange,triangle
91.0,2.0,1.0,0.0,2.0,2.0,470.2070120001735,3.0,1.0,phase_1,,,,,,,,,,,,,cyan,I
52.0,5.0,0.5,1.0,3.0,3.0,266.8680079996193,3.0,1.0,phase_1,,,,,,,,,,,,,gray,hexagon
217.0,3.0,2.0,0.0,2.0,2.0,273.0278300000464,3.0,1.0,phase_1,,,,,,,,,,,,,blue,circle
205.0,3.0,2.0,0.0,2.0,2.0,280.6795029996465,3.0,1.0,phase_1,,,,,,,,,,,,,blue,circle
424.0,4.0,4.0,0.0,2.0,2.0,254.8774279998724,3.0,1.0,phase_1,,,,,,,,,,,,,white,flipped triangle
66.0,1.0,0.5,0.0,4.0,4.0,275.631507000071,3.0,1.0,phase_1,,,,,,,,,,,,,magenta,cross
0.0,3.0,0.0,0.0,3.0,3.0,283.4837140003401,3.0,1.0,phase_1,,,,,,,,,,,,,blue,circle
205.0,3.0,2.0,0.0,4.0,4.0,290.476093000052,3.0,1.0,phase_1,,,,,,,,,,,,,blue,circle
208.0,7.0,2.0,1.0,2.0,2.0,266.0560099998292,3.0,1.0,phase_1,,,,,,,,,,,,,green,diamond
396.0,4.0,4.0,0.0,1.0,1.0,245.3551170001446,3.0,1.0,phase_1,,,,,,,,,,,,,white,flipped triangle
0.0,3.0,0.0,0.0,1.0,1.0,305.5504429999018,3.0,1.0,phase_1,,,,,,,,,,,,,blue,circle
39.0,1.0,0.5,0.0,2.0,2.0,295.5262770001354,3.0,1.0,phase_1,,,,,,,,,,,,,magenta,cross
105.0,2.0,1.0,0.0,3.0,3.0,261.707122000189,3.0,1.0,phase_1,,,,,,,,,,,,,cyan,I
0.0,4.0,0.0,0.0,2.0,2.0,275.6748420001713,3.0,1.0,phase_1,,,,,,,,,,,,,white,flipped triangle
198.0,7.0,2.0,1.0,2.0,2.0,308.2077140002184,3.0,1.0,phase_1,,,,,,,,,,,,,green,diamond
208.0,3.0,2.0,0.0,1.0,1.0,329.8099429998729,3.0,1.0,phase_1,,,,,,,,,,,,,blue,circle
72.0,1.0,0.5,0.0,1.0,1.0,301.1197289997653,3.0,1.0,phase_1,,,,,,,,,,,,,magenta,cross
192.0,7.0,2.0,1.0,4.0,4.0,291.465363000043,3.0,1.0,phase_1,,,,,,,,,,,,,green,diamond
117.0,6.0,1.0,1.0,1.0,1.0,296.0005200002342,3.0,1.0,phase_1,,,,,,,,,,,,,orange,triangle
198.0,7.0,2.0,1.0,1.0,1.0,273.8719190001575,3.0,1.0,phase_1,,,,,,,,,,,,,green,diamond
0.0,2.0,0.0,0.0,4.0,4.0,552.4321679999957,3.0,1.0,phase_1,,,,,,,,,,,,,cyan,I
193.0,3.0,2.0,0.0,2.0,2.0,275.8652329998767,3.0,1.0,phase_1,,,,,,,,,,,,,blue,circle
0.0,1.0,0.0,0.0,2.0,2.0,272.9794270003367,3.0,1.0,phase_1,,,,,,,,,,,,,magenta,cross
179.0,3.0,2.0,0.0,1.0,1.0,393.9182709996203,3.0,1.0,phase_1,,,,,,,,,,,,,blue,circle
0.0,7.0,0.0,1.0,1.0,1.0,321.2609050001447,3.0,1.0,phase_1,,,,,,,,,,,,,green,diamond
0.0,5.0,0.0,1.0,3.0,3.0,279.2604310002389,3.0,1.0,phase_1,,,,,,,,,,,,,gray,hexagon
193.0,7.0,2.0,1.0,2.0,2.0,277.1562200000517,3.0,1.0,phase_1,,,,,,,,,,,,,green,diamond
410.0,4.0,4.0,0.0,1.0,1.0,338.0120150000039,3.0,1.0,phase_1,,,,,,,,,,,,,white,flipped triangle
0.0,6.0,0.0,1.0,3.0,3.0,276.83531699995,3.0,1.0,phase_1,,,,,,,,,,,,,orange,triangle
406.0,4.0,4.0,0.0,1.0,1.0,304.0443579998282,3.0,1.0,phase_1,,,,,,,,,,,,,white,flipped triangle
385.0,8.0,4.0,1.0,1.0,1.0,313.349914000355,3.0,1.0,phase_1,,,,,,,,,,,,,yellow,square
101.0,6.0,1.0,1.0,4.0,4.0,349.5706899998367,3.0,1.0,phase_1,,,,,,,,,,,,,orange,triangle
375.0,8.0,4.0,1.0,1.0,1.0,319.8543160001463,3.0,1.0,phase_1,,,,,,,,,,,,,yellow,square
179.0,3.0,2.0,0.0,3.0,3.0,259.8950849996981,3.0,1.0,phase_1,,,,,,,,,,,,,blue,circle
224.0,7.0,2.0,1.0,1.0,1.0,298.9905580002414,3.0,1.0,phase_1,,,,,,,,,,,,,green,diamond
62.0,5.0,0.5,1.0,2.0,2.0,283.0827610000597,3.0,1.0,phase_1,,,,,,,,,,,,,gray,hexagon
0.0,6.0,0.0,1.0,2.0,2.0,293.891449000057,3.0,1.0,phase_1,,,,,,,,,,,,,orange,triangle
89.0,6.0,1.0,1.0,1.0,1.0,388.2723199999418,3.0,1.0,phase_1,,,,,,,,,,,,,orange,triangle
82.0,2.0,1.0,0.0,4.0,4.0,320.6526959997973,3.0,1.0,phase_1,,,,,,,,,,,,,cyan,I
205.0,7.0,2.0,1.0,3.0,3.0,246.4667439999175,3.0,1.0,phase_1,,,,,,,,,,,,,green,diamond
35.0,1.0,0.5,0.0,2.0,2.0,256.6350069996588,3.0,1.0,phase_1,,,,,,,,,,,,,magenta,cross
108.0,6.0,1.0,1.0,3.0,3.0,254.16274600001998,3.0,1.0,phase_1,,,,,,,,,,,,,orange,triangle
410.0,8.0,4.0,1.0,4.0,4.0,286.8648710000343,3.0,1.0,phase_1,,,,,,,,,,,,,yellow,square
109.0,6.0,1.0,1.0,2.0,2.0,265.9766920000947,3.0,1.0,phase_1,,,,,,,,,,,,,orange,triangle
99.0,6.0,1.0,1.0,4.0,4.0,327.6902210000116,3.0,1.0,phase_1,,,,,,,,,,,,,orange,triangle
101.0,2.0,1.0,0.0,1.0,1.0,266.5561379999417,3.0,1.0,phase_1,,,,,,,,,,,,,cyan,I
111.0,6.0,1.0,1.0,4.0,4.0,307.4339110003166,3.0,1.0,phase_1,,,,,,,,,,,,,orange,triangle
69.0,5.0,0.5,1.0,3.0,3.0,262.2655289997055,3.0,1.0,phase_1,,,,,,,,,,,,,gray,hexagon
0.0,2.0,0.0,0.0,3.0,3.0,262.1250299998792,3.0,1.0,phase_1,,,,,,,,,,,,,cyan,I
101.0,6.0,1.0,1.0,1.0,1.0,301.8962259998261,3.0,1.0,phase_1,,,,,,,,,,,,,orange,triangle
395.0,4.0,4.0,0.0,3.0,3.0,272.43456799988047,3.0,1.0,phase_1,,,,,,,,,,,,,white,flipped triangle
0.0,8.0,0.0,1.0,4.0,4.0,256.8007849999958,3.0,1.0,phase_1,,,,,,,,,,,,,yellow,square
89.0,2.0,1.0,0.0,4.0,4.0,285.9386280001672,3.0,1.0,phase_1,,,,,,,,,,,,,cyan,I
396.0,8.0,4.0,1.0,4.0,4.0,312.0490289998088,3.0,1.0,phase_1,,,,,,,,,,,,,yellow,square
50.0,1.0,0.5,0.0,2.0,2.0,288.4906630001751,3.0,1.0,phase_1,,,,,,,,,,,,,magenta,cross
0.0,6.0,0.0,1.0,2.0,2.0,276.6338100000212,3.0,1.0,phase_1,,,,,,,,,,,,,orange,triangle
120.0,6.0,1.0,1.0,1.0,1.0,251.87965399982198,3.0,1.0,phase_1,,,,,,,,,,,,,orange,triangle
61.0,5.0,0.5,1.0,2.0,2.0,326.3396520001151,3.0,1.0,phase_1,,,,,,,,,,,,,gray,hexagon
223.0,3.0,2.0,0.0,1.0,1.0,315.2275200000076,3.0,1.0,phase_1,,,,,,,,,,,,,blue,circle
38.0,5.0,0.5,1.0,2.0,2.0,324.6636669996405,3.0,1.0,phase_1,,,,,,,,,,,,,gray,hexagon
205.0,7.0,2.0,1.0,3.0,3.0,291.882945999987,3.0,1.0,phase_1,,,,,,,,,,,,,green,diamond
108.0,2.0,1.0,0.0,1.0,1.0,286.6045299997495,3.0,1.0,phase_1,,,,,,,,,,,,,cyan,I
0.0,5.0,0.0,1.0,4.0,4.0,305.888639999921,3.0,1.0,phase_1,,,,,,,,,,,,,gray,hexagon
119.0,6.0,1.0,1.0,3.0,3.0,317.0593499999086,3.0,1.0,phase_1,,,,,,,,,,,,,orange,triangle
54.0,1.0,0.5,0.0,2.0,2.0,263.5839360000318,3.0,1.0,phase_1,,,,,,,,,,,,,magenta,cross
409.0,4.0,4.0,0.0,4.0,4.0,299.9979259998326,3.0,1.0,phase_1,,,,,,,,,,,,,white,flipped triangle
64.0,5.0,0.5,1.0,1.0,1.0,295.0057520001792,3.0,1.0,phase_1,,,,,,,,,,,,,gray,hexagon
65.0,5.0,0.5,1.0,4.0,4.0,330.6298120000974,3.0,1.0,phase_1,,,,,,,,,,,,,gray,hexagon
379.0,8.0,4.0,1.0,2.0,2.0,277.1560480000516,3.0,1.0,phase_1,,,,,,,,,,,,,yellow,square
45.0,5.0,0.5,1.0,1.0,1.0,290.278262999891,3.0,1.0,phase_1,,,,,,,,,,,,,gray,hexagon
76.0,2.0,1.0,0.0,4.0,4.0,320.2099739996811,3.0,1.0,phase_1,,,,,,,,,,,,,cyan,I
115.0,2.0,1.0,0.0,2.0,2.0,247.3987779999333,3.0,1.0,phase_1,,,,,,,,,,,,,cyan,I
89.0,2.0,1.0,0.0,4.0,4.0,275.3104529997472,3.0,1.0,phase_1,,,,,,,,,,,,,cyan,I
80.0,2.0,1.0,0.0,4.0,4.0,299.1086869997161,3.0,1.0,phase_1,,,,,,,,,,,,,cyan,I
176.0,7.0,2.0,1.0,4.0,4.0,329.7383359999912,3.0,1.0,phase_1,,,,,,,,,,,,,green,diamond
101.0,2.0,1.0,0.0,1.0,1.0,301.848130000053,3.0,1.0,phase_1,,,,,,,,,,,,,cyan,I
0.0,5.0,0.0,1.0,1.0,1.0,335.2160350000304,3.0,1.0,phase_1,,,,,,,,,,,,,gray,hexagon
119.0,2.0,1.0,0.0,1.0,1.0,340.9198439999272,3.0,1.0,phase_1,,,,,,,,,,,,,cyan,I
37.0,5.0,0.5,1.0,3.0,3.0,257.5914220001323,3.0,1.0,phase_1,,,,,,,,,,,,,gray,hexagon
176.0,3.0,2.0,0.0,3.0,3.0,315.9400140002617,3.0,1.0,phase_1,,,,,,,,,,,,,blue,circle
391.0,4.0,4.0,0.0,2.0,2.0,279.1333680002026,3.0,1.0,phase_1,,,,,,,,,,,,,white,flipped triangle
206.0,7.0,2.0,1.0,2.0,2.0,296.5599350000047,3.0,1.0,phase_1,,,,,,,,,,,,,green,diamond
94.0,6.0,1.0,1.0,2.0,2.0,318.6181089999991,3.0,1.0,phase_1,,,,,,,,,,,,,orange,triangle
0.0,5.0,0.0,1.0,4.0,4.0,290.7061500000054,3.0,1.0,phase_1,,,,,,,,,,,,,gray,hexagon
0.0,8.0,0.0,1.0,1.0,1.0,270.6125640002028,3.0,1.0,phase_1,,,,,,,,,,,,,yellow,square
0.0,5.0,0.0,1.0,3.0,3.0,267.0061680000799,3.0,1.0,phase_1,,,,,,,,,,,,,gray,hexagon
74.0,5.0,0.5,1.0,4.0,4.0,374.8307470000327,3.0,1.0,phase_1,,,,,,,,,,,,,gray,hexagon
176.0,7.0,2.0,1.0,1.0,1.0,327.05523300001,3.0,1.0,phase_1,,,,,,,,,,,,,green,diamond
32.0,5.0,0.5,1.0,3.0,3.0,251.53637799985518,3.0,1.0,phase_1,,,,,,,,,,,,,gray,hexagon
76.0,6.0,1.0,1.0,2.0,2.0,287.6790270001947,3.0,1.0,phase_1,,,,,,,,,,,,,orange,triangle
0.0,6.0,0.0,1.0,3.0,3.0,314.6884959996896,3.0,1.0,phase_1,,,,,,,,,,,,,orange,triangle
179.0,7.0,2.0,1.0,4.0,4.0,326.3352369999666,3.0,1.0,phase_1,,,,,,,,,,,,,green,diamond
221.0,7.0,2.0,1.0,4.0,4.0,272.6400349997675,3.0,1.0,phase_1,,,,,,,,,,,,,green,diamond
0.0,7.0,0.0,1.0,2.0,2.0,258.3568000000014,3.0,1.0,phase_1,,,,,,,,,,,,,green,diamond
198.0,3.0,2.0,0.0,1.0,1.0,643.6196829999972,3.0,1.0,phase_1,,,,,,,,,,,,,blue,circle
0.0,8.0,0.0,1.0,2.0,2.0,315.4911130000073,3.0,1.0,phase_1,,,,,,,,,,,,,yellow,square
123.0,6.0,1.0,1.0,4.0,4.0,239.583028999732,3.0,1.0,phase_1,,,,,,,,,,,,,orange,triangle
0.0,1.0,0.0,0.0,3.0,3.0,268.6798490003639,3.0,1.0,phase_1,,,,,,,,,,,,,magenta,cross
406.0,8.0,4.0,1.0,2.0,2.0,256.3784149997445,3.0,1.0,phase_1,,,,,,,,,,,,,yellow,square
417.0,8.0,4.0,1.0,4.0,4.0,289.7691729999678,3.0,1.0,phase_1,,,,,,,,,,,,,yellow,square
91.0,6.0,1.0,1.0,2.0,2.0,280.2909090000867,4.0,1.0,phase_1,,,,,,,,,,,,,orange,triangle
43.0,1.0,0.5,0.0,1.0,1.0,261.842907999835,4.0,1.0,phase_1,,,,,,,,,,,,,magenta,cross
85.0,6.0,1.0,1.0,3.0,3.0,230.3826249999474,4.0,1.0,phase_1,,,,,,,,,,,,,orange,triangle
52.0,1.0,0.5,0.0,3.0,3.0,275.0396390001697,4.0,1.0,phase_1,,,,,,,,,,,,,magenta,cross
115.0,6.0,1.0,1.0,3.0,3.0,252.64857100000881,4.0,1.0,phase_1,,,,,,,,,,,,,orange,triangle
410.0,8.0,4.0,1.0,4.0,4.0,278.2720879999942,4.0,1.0,phase_1,,,,,,,,,,,,,yellow,square
379.0,8.0,4.0,1.0,3.0,3.0,249.9337760000344,4.0,1.0,phase_1,,,,,,,,,,,,,yellow,square
206.0,3.0,2.0,0.0,4.0,4.0,321.0061469999345,4.0,1.0,phase_1,,,,,,,,,,,,,blue,circle
197.0,3.0,2.0,0.0,1.0,1.0,250.57500899993101,4.0,1.0,phase_1,,,,,,,,,,,,,blue,circle
0.0,8.0,0.0,1.0,3.0,3.0,380.9703070000978,4.0,1.0,phase_1,,,,,,,,,,,,,yellow,square
393.0,4.0,4.0,0.0,3.0,3.0,248.5994409998966,4.0,1.0,phase_1,,,,,,,,,,,,,white,flipped triangle
413.0,8.0,4.0,1.0,2.0,2.0,285.8165150000786,4.0,1.0,phase_1,,,,,,,,,,,,,yellow,square
222.0,3.0,2.0,0.0,2.0,2.0,287.4682239998947,4.0,1.0,phase_1,,,,,,,,,,,,,blue,circle
80.0,2.0,1.0,0.0,3.0,3.0,244.0924180000365,4.0,1.0,phase_1,,,,,,,,,,,,,cyan,I
0.0,3.0,0.0,0.0,2.0,2.0,263.8131450003129,4.0,1.0,phase_1,,,,,,,,,,,,,blue,circle
0.0,5.0,0.0,1.0,4.0,4.0,305.3579749998789,4.0,1.0,phase_1,,,,,,,,,,,,,gray,hexagon
35.0,1.0,0.5,0.0,1.0,1.0,262.0118459999503,4.0,1.0,phase_1,,,,,,,,,,,,,magenta,cross
106.0,6.0,1.0,1.0,1.0,1.0,319.0301310000905,4.0,1.0,phase_1,,,,,,,,,,,,,orange,triangle
61.0,1.0,0.5,0.0,2.0,2.0,298.3332179996978,4.0,1.0,phase_1,,,,,,,,,,,,,magenta,cross
216.0,7.0,2.0,1.0,2.0,2.0,245.3104199998961,4.0,1.0,phase_1,,,,,,,,,,,,,green,diamond
0.0,3.0,0.0,0.0,3.0,3.0,241.473145999862,4.0,1.0,phase_1,,,,,,,,,,,,,blue,circle
391.0,8.0,4.0,1.0,1.0,1.0,271.3828470000408,4.0,1.0,phase_1,,,,,,,,,,,,,yellow,square
41.0,1.0,0.5,0.0,3.0,3.0,257.5173269997322,4.0,1.0,phase_1,,,,,,,,,,,,,magenta,cross
384.0,4.0,4.0,0.0,2.0,2.0,303.1260259999726,4.0,1.0,phase_1,,,,,,,,,,,,,white,flipped triangle
105.0,6.0,1.0,1.0,4.0,4.0,294.4502310001553,4.0,1.0,phase_1,,,,,,,,,,,,,orange,triangle
208.0,3.0,2.0,0.0,4.0,4.0,311.2833950003733,4.0,1.0,phase_1,,,,,,,,,,,,,blue,circle
79.0,2.0,1.0,0.0,1.0,1.0,311.8719989997771,4.0,1.0,phase_1,,,,,,,,,,,,,cyan,I
203.0,7.0,2.0,1.0,3.0,3.0,251.12902599994408,4.0,1.0,phase_1,,,,,,,,,,,,,green,diamond
189.0,3.0,2.0,0.0,4.0,4.0,310.0935830002527,4.0,1.0,phase_1,,,,,,,,,,,,,blue,circle
46.0,5.0,0.5,1.0,4.0,4.0,292.2535050001897,4.0,1.0,phase_1,,,,,,,,,,,,,gray,hexagon
97.0,6.0,1.0,1.0,4.0,4.0,321.9740959998489,4.0,1.0,phase_1,,,,,,,,,,,,,orange,triangle
73.0,5.0,0.5,1.0,2.0,2.0,611.7839270000331,4.0,1.0,phase_1,,,,,,,,,,,,,gray,hexagon
411.0,8.0,4.0,1.0,1.0,1.0,348.6296369997035,4.0,1.0,phase_1,,,,,,,,,,,,,yellow,square
417.0,4.0,4.0,0.0,1.0,1.0,287.8043730001991,4.0,1.0,phase_1,,,,,,,,,,,,,white,flipped triangle
28.0,1.0,0.5,0.0,3.0,3.0,227.7113780000945,4.0,1.0,phase_1,,,,,,,,,,,,,magenta,cross
0.0,6.0,0.0,1.0,2.0,2.0,318.5389300001588,4.0,1.0,phase_1,,,,,,,,,,,,,orange,triangle
76.0,6.0,1.0,1.0,3.0,3.0,294.3383830001949,4.0,1.0,phase_1,,,,,,,,,,,,,orange,triangle
391.0,8.0,4.0,1.0,3.0,3.0,267.8070489996571,4.0,1.0,phase_1,,,,,,,,,,,,,yellow,square
32.0,1.0,0.5,0.0,1.0,1.0,282.606093999675,4.0,1.0,phase_1,,,,,,,,,,,,,magenta,cross
0.0,4.0,0.0,0.0,1.0,1.0,332.3333590001311,4.0,1.0,phase_1,,,,,,,,,,,,,white,flipped triangle
113.0,2.0,1.0,0.0,3.0,3.0,233.6221230002593,4.0,1.0,phase_1,,,,,,,,,,,,,cyan,I
28.0,5.0,0.5,1.0,3.0,3.0,310.9540610003023,4.0,1.0,phase_1,,,,,,,,,,,,,gray,hexagon
0.0,3.0,0.0,0.0,3.0,3.0,257.1938529999897,4.0,1.0,phase_1,,,,,,,,,,,,,blue,circle
424.0,8.0,4.0,1.0,2.0,2.0,280.9294359999512,4.0,1.0,phase_1,,,,,,,,,,,,,yellow,square
0.0,7.0,0.0,1.0,3.0,3.0,284.0948910002225,4.0,1.0,phase_1,,,,,,,,,,,,,green,diamond
75.0,5.0,0.5,1.0,2.0,2.0,231.3763590000235,4.0,1.0,phase_1,,,,,,,,,,,,,gray,hexagon
407.0,4.0,4.0,0.0,4.0,4.0,244.4250769999598,4.0,1.0,phase_1,,,,,,,,,,,,,white,flipped triangle
392.0,8.0,4.0,1.0,2.0,2.0,269.4541290002235,4.0,1.0,phase_1,,,,,,,,,,,,,yellow,square
76.0,2.0,1.0,0.0,2.0,2.0,274.1690949997064,4.0,1.0,phase_1,,,,,,,,,,,,,cyan,I
38.0,1.0,0.5,0.0,4.0,4.0,284.2586740002844,4.0,1.0,phase_1,,,,,,,,,,,,,magenta,cross
120.0,2.0,1.0,0.0,2.0,2.0,294.9208889999681,4.0,1.0,phase_1,,,,,,,,,,,,,cyan,I
0.0,8.0,0.0,1.0,3.0,3.0,275.8238379997237,4.0,1.0,phase_1,,,,,,,,,,,,,yellow,square
0.0,1.0,0.0,0.0,3.0,3.0,265.1817400001164,4.0,1.0,phase_1,,,,,,,,,,,,,magenta,cross
403.0,4.0,4.0,0.0,4.0,4.0,298.5491740000725,4.0,1.0,phase_1,,,,,,,,,,,,,white,flipped triangle
403.0,8.0,4.0,1.0,4.0,4.0,312.818917000186,4.0,1.0,phase_1,,,,,,,,,,,,,yellow,square
200.0,3.0,2.0,0.0,2.0,2.0,259.4041069996819,4.0,1.0,phase_1,,,,,,,,,,,,,blue,circle
0.0,4.0,0.0,0.0,1.0,1.0,353.7803280000844,4.0,1.0,phase_1,,,,,,,,,,,,,white,flipped triangle
421.0,8.0,4.0,1.0,2.0,2.0,299.1460569996889,4.0,1.0,phase_1,,,,,,,,,,,,,yellow,square
113.0,6.0,1.0,1.0,3.0,3.0,265.7376669999394,4.0,1.0,phase_1,,,,,,,,,,,,,orange,triangle
386.0,8.0,4.0,1.0,4.0,4.0,320.049125999958,4.0,1.0,phase_1,,,,,,,,,,,,,yellow,square
68.0,5.0,0.5,1.0,2.0,2.0,255.62570899955972,4.0,1.0,phase_1,,,,,,,,,,,,,gray,hexagon
123.0,2.0,1.0,0.0,4.0,4.0,321.7047359999014,4.0,1.0,phase_1,,,,,,,,,,,,,cyan,I
0.0,6.0,0.0,1.0,3.0,3.0,254.34620399983032,4.0,1.0,phase_1,,,,,,,,,,,,,orange,triangle
182.0,3.0,2.0,0.0,1.0,1.0,252.9103730003044,4.0,1.0,phase_1,,,,,,,,,,,,,blue,circle
63.0,5.0,0.5,1.0,4.0,4.0,302.3047370002132,4.0,1.0,phase_1,,,,,,,,,,,,,gray,hexagon
31.0,1.0,0.5,0.0,2.0,2.0,276.4139119999527,4.0,1.0,phase_1,,,,,,,,,,,,,magenta,cross
0.0,5.0,0.0,1.0,3.0,3.0,247.55351099975078,4.0,1.0,phase_1,,,,,,,,,,,,,gray,hexagon
112.0,6.0,1.0,1.0,2.0,2.0,312.4706059998061,4.0,1.0,phase_1,,,,,,,,,,,,,orange,triangle
62.0,1.0,0.5,0.0,1.0,1.0,256.461367999691,4.0,1.0,phase_1,,,,,,,,,,,,,magenta,cross
91.0,2.0,1.0,0.0,4.0,4.0,258.1147420000889,4.0,1.0,phase_1,,,,,,,,,,,,,cyan,I
96.0,6.0,1.0,1.0,1.0,1.0,294.1727979996358,4.0,1.0,phase_1,,,,,,,,,,,,,orange,triangle
0.0,4.0,0.0,0.0,4.0,4.0,300.7665909999559,4.0,1.0,phase_1,,,,,,,,,,,,,white,flipped triangle
60.0,5.0,0.5,1.0,4.0,4.0,310.9787130001678,4.0,1.0,phase_1,,,,,,,,,,,,,gray,hexagon
419.0,4.0,4.0,0.0,2.0,2.0,245.6688830002349,4.0,1.0,phase_1,,,,,,,,,,,,,white,flipped triangle
62.0,5.0,0.5,1.0,1.0,1.0,326.0507790000702,4.0,1.0,phase_1,,,,,,,,,,,,,gray,hexagon
0.0,6.0,0.0,1.0,1.0,1.0,328.1163199999355,4.0,1.0,phase_1,,,,,,,,,,,,,orange,triangle
41.0,5.0,0.5,1.0,2.0,2.0,248.0713550003201,4.0,1.0,phase_1,,,,,,,,,,,,,gray,hexagon
32.0,5.0,0.5,1.0,3.0,3.0,259.9450660000002,4.0,1.0,phase_1,,,,,,,,,,,,,gray,hexagon
413.0,4.0,4.0,0.0,1.0,1.0,298.4160870000778,4.0,1.0,phase_1,,,,,,,,,,,,,white,flipped triangle
186.0,7.0,2.0,1.0,1.0,1.0,375.1286889996663,4.0,1.0,phase_1,,,,,,,,,,,,,green,diamond
97.0,2.0,1.0,0.0,1.0,1.0,293.4775930002615,4.0,1.0,phase_1,,,,,,,,,,,,,cyan,I
179.0,7.0,2.0,1.0,1.0,1.0,337.8876550000314,4.0,1.0,phase_1,,,,,,,,,,,,,green,diamond
0.0,3.0,0.0,0.0,4.0,4.0,262.2053700001743,4.0,1.0,phase_1,,,,,,,,,,,,,blue,circle
0.0,2.0,0.0,0.0,2.0,2.0,231.7004739998083,4.0,1.0,phase_1,,,,,,,,,,,,,cyan,I
376.0,4.0,4.0,0.0,1.0,1.0,293.1659419996322,4.0,1.0,phase_1,,,,,,,,,,,,,white,flipped triangle
82.0,6.0,1.0,1.0,1.0,1.0,305.1335589998416,4.0,1.0,phase_1,,,,,,,,,,,,,orange,triangle
395.0,8.0,4.0,1.0,3.0,3.0,293.492919000073,4.0,1.0,phase_1,,,,,,,,,,,,,yellow,square
191.0,3.0,2.0,0.0,1.0,1.0,297.5583259999439,4.0,1.0,phase_1,,,,,,,,,,,,,blue,circle
0.0,1.0,0.0,0.0,4.0,4.0,284.1621860002306,4.0,1.0,phase_1,,,,,,,,,,,,,magenta,cross
388.0,4.0,4.0,0.0,4.0,4.0,295.5063989998052,4.0,1.0,phase_1,,,,,,,,,,,,,white,flipped triangle
75.0,1.0,0.5,0.0,1.0,1.0,318.4915159999946,4.0,1.0,phase_1,,,,,,,,,,,,,magenta,cross
0.0,6.0,0.0,1.0,2.0,2.0,312.9830719999518,4.0,1.0,phase_1,,,,,,,,,,,,,orange,triangle
64.0,1.0,0.5,0.0,3.0,3.0,299.9615920002725,4.0,1.0,phase_1,,,,,,,,,,,,,magenta,cross
62.0,1.0,0.5,0.0,4.0,4.0,271.7846299997291,4.0,1.0,phase_1,,,,,,,,,,,,,magenta,cross
379.0,8.0,4.0,1.0,3.0,3.0,297.822477000409,4.0,1.0,phase_1,,,,,,,,,,,,,yellow,square
123.0,2.0,1.0,0.0,4.0,4.0,301.3627319996885,4.0,1.0,phase_1,,,,,,,,,,,,,cyan,I
112.0,2.0,1.0,0.0,2.0,2.0,271.2614930001109,4.0,1.0,phase_1,,,,,,,,,,,,,cyan,I
54.0,1.0,0.5,0.0,2.0,2.0,321.6967069997736,4.0,1.0,phase_1,,,,,,,,,,,,,magenta,cross
27.0,5.0,0.5,1.0,4.0,4.0,287.0560139999725,4.0,1.0,phase_1,,,,,,,,,,,,,gray,hexagon
404.0,8.0,4.0,1.0,2.0,2.0,277.0164540002042,4.0,1.0,phase_1,,,,,,,,,,,,,yellow,square
0.0,6.0,1.0,1.0,5.0,5.0,284.4225819999337,1.0,1.0,phase_2,go,250.0,250.0,1.0,,,,,,,,,orange,triangle
0.0,8.0,4.0,1.0,5.0,5.0,339.6078440000565,1.0,1.0,phase_2,go,250.0,250.0,1.0,,,,,,,,,yellow,square
0.0,6.0,1.0,1.0,6.0,6.0,239.9822510001286,1.0,1.0,phase_2,stop,250.0,250.0,3.0,,,,,,,,,orange,triangle
0.0,3.0,2.0,0.0,5.0,5.0,232.8778340001918,1.0,1.0,phase_2,go,250.0,200.0,1.0,,,,,,,,,blue,circle
0.0,6.0,1.0,1.0,6.0,6.0,248.781807999876,1.0,1.0,phase_2,stop,250.0,200.0,3.0,,,,,,,,,orange,triangle
0.0,2.0,1.0,0.0,5.0,5.0,242.5901490000797,1.0,1.0,phase_2,go,250.0,150.0,1.0,,,,,,,,,cyan,I
0.0,3.0,2.0,0.0,6.0,6.0,276.9968739999058,1.0,1.0,phase_2,go,250.0,150.0,1.0,,,,,,,,,blue,circle
0.0,4.0,4.0,0.0,6.0,6.0,286.6779169999063,1.0,1.0,phase_2,go,250.0,150.0,1.0,,,,,,,,,white,flipped triangle
0.0,4.0,4.0,0.0,6.0,6.0,286.3892669997767,1.0,1.0,phase_2,go,250.0,150.0,1.0,,,,,,,,,white,flipped triangle
0.0,1.0,0.5,0.0,6.0,6.0,265.6954079998286,1.0,1.0,phase_2,go,250.0,150.0,1.0,,,,,,,,,magenta,cross
0.0,4.0,4.0,0.0,5.0,5.0,238.3836599997266,1.0,1.0,phase_2,go,250.0,150.0,1.0,,,,,,,,,white,flipped triangle
0.0,1.0,0.5,0.0,6.0,6.0,230.5137479997938,1.0,1.0,phase_2,go,250.0,150.0,1.0,,,,,,,,,magenta,cross
0.0,8.0,4.0,1.0,5.0,5.0,302.1281119999912,1.0,1.0,phase_2,stop,250.0,150.0,3.0,,,,,,,,,yellow,square
0.0,6.0,1.0,1.0,6.0,6.0,271.2131859998408,1.0,1.0,phase_2,go,200.0,150.0,1.0,,,,,,,,,orange,triangle
0.0,6.0,1.0,1.0,6.0,6.0,260.0979030003145,1.0,1.0,phase_2,stop,200.0,150.0,3.0,,,,,,,,,orange,triangle
0.0,3.0,2.0,0.0,5.0,5.0,245.1186909997886,1.0,1.0,phase_2,go,200.0,100.0,1.0,,,,,,,,,blue,circle
0.0,8.0,4.0,1.0,5.0,5.0,241.7293620001146,1.0,1.0,phase_2,stop,200.0,100.0,3.0,,,,,,,,,yellow,square
0.0,5.0,0.5,1.0,6.0,6.0,260.2211530002023,1.0,1.0,phase_2,stop,150.0,100.0,3.0,,,,,,,,,gray,hexagon
0.0,4.0,4.0,0.0,6.0,6.0,242.9580400003033,1.0,1.0,phase_2,go,150.0,50.0,1.0,,,,,,,,,white,flipped triangle
0.0,3.0,2.0,0.0,6.0,6.0,278.6568199999237,1.0,1.0,phase_2,go,150.0,50.0,1.0,,,,,,,,,blue,circle
0.0,6.0,1.0,1.0,5.0,5.0,226.5939760000037,1.0,1.0,phase_2,go,150.0,50.0,1.0,,,,,,,,,orange,triangle
0.0,8.0,4.0,1.0,6.0,6.0,219.46810000008549,1.0,1.0,phase_2,stop,150.0,50.0,3.0,,,,,,,,,yellow,square
0.0,4.0,4.0,0.0,6.0,6.0,237.2388889998546,1.0,1.0,phase_2,go,150.0,0.0,1.0,,,,,,,,,white,flipped triangle
0.0,1.0,0.5,0.0,6.0,6.0,271.6341619998275,1.0,1.0,phase_2,go,150.0,0.0,1.0,,,,,,,,,magenta,cross
0.0,1.0,0.5,0.0,5.0,5.0,219.578963999993,1.0,1.0,phase_2,go,150.0,0.0,1.0,,,,,,,,,magenta,cross
0.0,7.0,2.0,1.0,5.0,5.0,250.63104000037129,1.0,1.0,phase_2,stop,150.0,0.0,3.0,,,,,,,,,green,diamond
0.0,7.0,2.0,1.0,6.0,6.0,246.4352470001358,1.0,1.0,phase_2,go,100.0,0.0,1.0,,,,,,,,,green,diamond
0.0,1.0,0.5,0.0,6.0,6.0,243.7135449999914,1.0,1.0,phase_2,go,100.0,0.0,1.0,,,,,,,,,magenta,cross
0.0,7.0,2.0,1.0,6.0,6.0,299.8695360001875,1.0,1.0,phase_2,go,100.0,0.0,1.0,,,,,,,,,green,diamond
0.0,7.0,2.0,1.0,5.0,5.0,220.4928630003451,1.0,1.0,phase_2,stop,100.0,0.0,3.0,,,,,,,,,green,diamond
0.0,5.0,0.5,1.0,6.0,6.0,289.4762569999329,1.0,1.0,phase_2,go,50.0,0.0,1.0,,,,,,,,,gray,hexagon
0.0,6.0,1.0,1.0,5.0,5.0,233.6019550002674,1.0,1.0,phase_2,stop,50.0,0.0,3.0,,,,,,,,,orange,triangle
0.0,7.0,2.0,1.0,6.0,6.0,229.0327019995857,1.0,1.0,phase_2,go,0.0,0.0,1.0,,,,,,,,,green,diamond
0.0,4.0,4.0,0.0,5.0,5.0,215.9499550002692,1.0,1.0,phase_2,go,0.0,0.0,1.0,,,,,,,,,white,flipped triangle
0.0,4.0,4.0,0.0,6.0,6.0,221.6719719999673,1.0,1.0,phase_2,go,0.0,0.0,1.0,,,,,,,,,white,flipped triangle
0.0,8.0,4.0,1.0,6.0,6.0,1385.8425650000754,1.0,1.0,phase_2,stop,0.0,0.0,3.0,,,,,,,,,yellow,square
0.0,4.0,4.0,0.0,5.0,5.0,348.7157819999993,2.0,1.0,phase_2,go,0.0,0.0,1.0,,,,,,,,,white,flipped triangle
0.0,5.0,0.5,1.0,5.0,5.0,269.8668749999342,2.0,1.0,phase_2,go,0.0,0.0,1.0,,,,,,,,,gray,hexagon
0.0,5.0,0.5,1.0,5.0,5.0,229.4501470000796,2.0,1.0,phase_2,stop,0.0,0.0,3.0,,,,,,,,,gray,hexagon
0.0,6.0,1.0,1.0,5.0,0.0,0.0,2.0,1.0,phase_2,stop,0.0,0.0,4.0,,,,,,,,,orange,triangle
0.0,7.0,2.0,1.0,5.0,5.0,272.1777329998076,2.0,1.0,phase_2,stop,50.0,0.0,3.0,,,,,,,,,green,diamond
0.0,2.0,1.0,0.0,5.0,5.0,437.6699889999145,2.0,1.0,phase_2,go,0.0,0.0,1.0,,,,,,,,,cyan,I
0.0,8.0,4.0,1.0,5.0,0.0,0.0,2.0,1.0,phase_2,stop,0.0,0.0,4.0,,,,,,,,,yellow,square
0.0,5.0,0.5,1.0,6.0,6.0,311.6097199999785,2.0,1.0,phase_2,stop,50.0,0.0,3.0,,,,,,,,,gray,hexagon
0.0,2.0,1.0,0.0,5.0,5.0,381.2704609999855,2.0,1.0,phase_2,go,50.0,0.0,1.0,,,,,,,,,cyan,I
0.0,7.0,2.0,1.0,6.0,0.0,0.0,2.0,1.0,phase_2,stop,50.0,0.0,4.0,,,,,,,,,green,diamond
0.0,1.0,0.5,0.0,5.0,5.0,422.6539809997121,2.0,1.0,phase_2,go,50.0,50.0,1.0,,,,,,,,,magenta,cross
0.0,2.0,1.0,0.0,5.0,5.0,300.6598500001018,2.0,1.0,phase_2,go,50.0,50.0,1.0,,,,,,,,,cyan,I
0.0,7.0,2.0,1.0,5.0,0.0,0.0,2.0,1.0,phase_2,stop,50.0,50.0,4.0,,,,,,,,,green,diamond
0.0,8.0,4.0,1.0,5.0,0.0,0.0,2.0,1.0,phase_2,stop,100.0,50.0,4.0,,,,,,,,,yellow,square
0.0,2.0,1.0,0.0,6.0,6.0,480.0389209999594,2.0,1.0,phase_2,go,150.0,50.0,1.0,,,,,,,,,cyan,I
0.0,1.0,0.5,0.0,5.0,5.0,486.58155000021,2.0,1.0,phase_2,go,150.0,50.0,1.0,,,,,,,,,magenta,cross
0.0,1.0,0.5,0.0,5.0,5.0,366.4563320003253,2.0,1.0,phase_2,go,150.0,50.0,1.0,,,,,,,,,magenta,cross
0.0,7.0,2.0,1.0,5.0,5.0,313.1326140000965,2.0,1.0,phase_2,stop,150.0,50.0,3.0,,,,,,,,,green,diamond
0.0,5.0,0.5,1.0,6.0,6.0,473.1445439997515,2.0,1.0,phase_2,go,100.0,50.0,1.0,,,,,,,,,gray,hexagon
0.0,6.0,1.0,1.0,6.0,6.0,264.4377440001335,2.0,1.0,phase_2,stop,100.0,50.0,3.0,,,,,,,,,orange,triangle
0.0,2.0,1.0,0.0,6.0,6.0,386.4328380000188,2.0,1.0,phase_2,go,100.0,0.0,1.0,,,,,,,,,cyan,I
0.0,3.0,2.0,0.0,5.0,5.0,461.3260099999934,2.0,1.0,phase_2,go,100.0,0.0,1.0,,,,,,,,,blue,circle
0.0,4.0,4.0,0.0,5.0,5.0,457.6376909999453,2.0,1.0,phase_2,go,100.0,0.0,1.0,,,,,,,,,white,flipped triangle
0.0,2.0,1.0,0.0,6.0,6.0,359.4467150001037,2.0,1.0,phase_2,go,100.0,0.0,1.0,,,,,,,,,cyan,I
0.0,1.0,0.5,0.0,5.0,5.0,379.5713079998677,2.0,1.0,phase_2,go,100.0,0.0,1.0,,,,,,,,,magenta,cross
0.0,5.0,0.5,1.0,5.0,0.0,0.0,2.0,1.0,phase_2,stop,100.0,0.0,4.0,,,,,,,,,gray,hexagon
0.0,8.0,4.0,1.0,6.0,0.0,0.0,2.0,1.0,phase_2,stop,150.0,0.0,4.0,,,,,,,,,yellow,square
0.0,2.0,1.0,0.0,5.0,5.0,526.6663830002472,2.0,1.0,phase_2,go,150.0,50.0,1.0,,,,,,,,,cyan,I
0.0,2.0,1.0,0.0,5.0,5.0,564.6931329997642,2.0,1.0,phase_2,go,150.0,50.0,1.0,,,,,,,,,cyan,I
0.0,2.0,1.0,0.0,5.0,5.0,503.44205900000816,2.0,1.0,phase_2,go,150.0,50.0,1.0,,,,,,,,,cyan,I
0.0,1.0,0.5,0.0,6.0,6.0,462.6432689997273,2.0,1.0,phase_2,go,150.0,50.0,1.0,,,,,,,,,magenta,cross
0.0,3.0,2.0,0.0,6.0,6.0,381.4840770000955,2.0,1.0,phase_2,go,150.0,50.0,1.0,,,,,,,,,blue,circle
0.0,4.0,4.0,0.0,6.0,6.0,480.5927110000993,2.0,1.0,phase_2,go,150.0,50.0,1.0,,,,,,,,,white,flipped triangle
0.0,2.0,1.0,0.0,6.0,6.0,430.5150809996121,2.0,1.0,phase_2,go,150.0,50.0,1.0,,,,,,,,,cyan,I
0.0,7.0,2.0,1.0,5.0,0.0,0.0,2.0,1.0,phase_2,stop,150.0,50.0,4.0,,,,,,,,,green,diamond
0.0,1.0,0.5,0.0,5.0,5.0,658.2080379998843,2.0,1.0,phase_2,go,200.0,50.0,1.0,,,,,,,,,magenta,cross
0.0,8.0,4.0,1.0,5.0,5.0,442.1155649997672,3.0,1.0,phase_2,stop,200.0,50.0,3.0,,,,,,,,,yellow,square
0.0,3.0,2.0,0.0,6.0,6.0,498.7662339999588,3.0,1.0,phase_2,go,150.0,50.0,1.0,,,,,,,,,blue,circle
0.0,7.0,2.0,1.0,6.0,0.0,0.0,3.0,1.0,phase_2,stop,150.0,50.0,4.0,,,,,,,,,green,diamond
0.0,5.0,0.5,1.0,5.0,0.0,0.0,3.0,1.0,phase_2,stop,150.0,100.0,4.0,,,,,,,,,gray,hexagon
0.0,4.0,4.0,0.0,6.0,6.0,536.7538519999471,3.0,1.0,phase_2,go,200.0,100.0,1.0,,,,,,,,,white,flipped triangle
0.0,1.0,0.5,0.0,6.0,6.0,591.4670980000665,3.0,1.0,phase_2,go,200.0,100.0,1.0,,,,,,,,,magenta,cross
0.0,3.0,2.0,0.0,6.0,6.0,443.7648849998368,3.0,1.0,phase_2,go,200.0,100.0,1.0,,,,,,,,,blue,circle
0.0,3.0,2.0,0.0,5.0,5.0,424.2284820002169,3.0,1.0,phase_2,go,200.0,100.0,1.0,,,,,,,,,blue,circle
0.0,6.0,1.0,1.0,6.0,0.0,0.0,3.0,1.0,phase_2,stop,200.0,100.0,4.0,,,,,,,,,orange,triangle
0.0,7.0,2.0,1.0,6.0,6.0,337.733049000235,3.0,1.0,phase_2,stop,200.0,150.0,3.0,,,,,,,,,green,diamond
0.0,1.0,0.5,0.0,6.0,6.0,533.8395200001287,3.0,1.0,phase_2,go,200.0,100.0,1.0,,,,,,,,,magenta,cross
0.0,6.0,1.0,1.0,5.0,0.0,0.0,3.0,1.0,phase_2,stop,200.0,100.0,4.0,,,,,,,,,orange,triangle
0.0,6.0,1.0,1.0,6.0,0.0,0.0,3.0,1.0,phase_2,stop,250.0,100.0,4.0,,,,,,,,,orange,triangle
0.0,1.0,0.5,0.0,6.0,6.0,605.0405749997481,3.0,1.0,phase_2,go,250.0,150.0,1.0,,,,,,,,,magenta,cross
0.0,4.0,4.0,0.0,5.0,5.0,455.7097120000435,3.0,1.0,phase_2,go,250.0,150.0,1.0,,,,,,,,,white,flipped triangle
0.0,8.0,4.0,1.0,5.0,0.0,0.0,3.0,1.0,phase_2,stop,250.0,150.0,4.0,,,,,,,,,yellow,square
0.0,4.0,4.0,0.0,6.0,6.0,458.0265690001397,3.0,1.0,phase_2,go,300.0,150.0,1.0,,,,,,,,,white,flipped triangle
0.0,6.0,1.0,1.0,5.0,5.0,484.4050400001833,3.0,1.0,phase_2,go,300.0,150.0,1.0,,,,,,,,,orange,triangle
0.0,1.0,0.5,0.0,5.0,5.0,547.9709339997498,3.0,1.0,phase_2,go,300.0,150.0,1.0,,,,,,,,,magenta,cross
0.0,1.0,0.5,0.0,6.0,6.0,297.980422999899,3.0,1.0,phase_2,go,300.0,150.0,1.0,,,,,,,,,magenta,cross
0.0,5.0,0.5,1.0,6.0,0.0,0.0,3.0,1.0,phase_2,stop,300.0,150.0,4.0,,,,,,,,,gray,hexagon
0.0,3.0,2.0,0.0,5.0,5.0,367.9780689999461,3.0,1.0,phase_2,go,300.0,200.0,1.0,,,,,,,,,blue,circle
0.0,7.0,2.0,1.0,5.0,5.0,402.5723679997099,3.0,1.0,phase_2,go,300.0,200.0,1.0,,,,,,,,,green,diamond
0.0,5.0,0.5,1.0,6.0,6.0,602.3444460001883,3.0,1.0,phase_2,go,300.0,200.0,1.0,,,,,,,,,gray,hexagon
0.0,3.0,2.0,0.0,6.0,6.0,481.1266570000043,3.0,1.0,phase_2,go,300.0,200.0,1.0,,,,,,,,,blue,circle
0.0,1.0,0.5,0.0,5.0,5.0,448.2508460000645,3.0,1.0,phase_2,go,300.0,200.0,1.0,,,,,,,,,magenta,cross
0.0,1.0,0.5,0.0,5.0,5.0,470.7739760001459,3.0,1.0,phase_2,go,300.0,200.0,1.0,,,,,,,,,magenta,cross
0.0,3.0,2.0,0.0,5.0,5.0,445.4047499998523,3.0,1.0,phase_2,go,300.0,200.0,1.0,,,,,,,,,blue,circle
0.0,8.0,4.0,1.0,6.0,6.0,329.6209729996917,3.0,1.0,phase_2,stop,300.0,200.0,3.0,,,,,,,,,yellow,square
0.0,6.0,1.0,1.0,6.0,0.0,0.0,3.0,1.0,phase_2,stop,300.0,150.0,4.0,,,,,,,,,orange,triangle
0.0,5.0,0.5,1.0,6.0,0.0,0.0,3.0,1.0,phase_2,stop,300.0,200.0,4.0,,,,,,,,,gray,hexagon
0.0,6.0,1.0,1.0,6.0,6.0,549.9403369999527,3.0,1.0,phase_2,go,300.0,250.0,1.0,,,,,,,,,orange,triangle
0.0,6.0,1.0,1.0,5.0,0.0,0.0,3.0,1.0,phase_2,stop,300.0,250.0,4.0,,,,,,,,,orange,triangle
0.0,6.0,1.0,1.0,6.0,0.0,0.0,3.0,1.0,phase_2,stop,350.0,250.0,4.0,,,,,,,,,orange,triangle
0.0,8.0,4.0,1.0,5.0,5.0,462.1676990000196,3.0,1.0,phase_2,stop,350.0,300.0,3.0,,,,,,,,,yellow,square
0.0,1.0,0.5,0.0,6.0,6.0,716.0270519998448,3.0,1.0,phase_2,go,300.0,300.0,1.0,,,,,,,,,magenta,cross
0.0,1.0,0.5,0.0,6.0,6.0,397.5719119998757,4.0,1.0,phase_2,go,300.0,300.0,1.0,,,,,,,,,magenta,cross
0.0,4.0,4.0,0.0,5.0,5.0,415.9332379999796,4.0,1.0,phase_2,go,300.0,300.0,1.0,,,,,,,,,white,flipped triangle
0.0,5.0,0.5,1.0,5.0,0.0,0.0,4.0,1.0,phase_2,stop,300.0,300.0,4.0,,,,,,,,,gray,hexagon
0.0,3.0,2.0,0.0,6.0,6.0,510.9879209999235,4.0,1.0,phase_2,go,350.0,300.0,1.0,,,,,,,,,blue,circle
0.0,7.0,2.0,1.0,6.0,0.0,0.0,4.0,1.0,phase_2,stop,350.0,300.0,4.0,,,,,,,,,green,diamond
0.0,2.0,1.0,0.0,5.0,5.0,579.1996909997579,4.0,1.0,phase_2,go,350.0,350.0,1.0,,,,,,,,,cyan,I
0.0,4.0,4.0,0.0,6.0,6.0,515.1300219999939,4.0,1.0,phase_2,go,350.0,350.0,1.0,,,,,,,,,white,flipped triangle
0.0,3.0,2.0,0.0,6.0,6.0,574.3530479999208,4.0,1.0,phase_2,go,350.0,350.0,1.0,,,,,,,,,blue,circle
0.0,7.0,2.0,1.0,6.0,0.0,0.0,4.0,1.0,phase_2,stop,350.0,350.0,4.0,,,,,,,,,green,diamond
0.0,5.0,0.5,1.0,6.0,0.0,0.0,4.0,1.0,phase_2,stop,350.0,400.0,4.0,,,,,,,,,gray,hexagon
0.0,7.0,2.0,1.0,6.0,0.0,0.0,4.0,1.0,phase_2,stop,350.0,450.0,4.0,,,,,,,,,green,diamond
0.0,4.0,4.0,0.0,5.0,5.0,667.5195940001686,4.0,1.0,phase_2,go,350.0,500.0,1.0,,,,,,,,,white,flipped triangle
0.0,1.0,0.5,0.0,5.0,5.0,716.3800580001407,4.0,1.0,phase_2,go,350.0,500.0,1.0,,,,,,,,,magenta,cross
0.0,7.0,2.0,1.0,6.0,6.0,580.1370629997109,4.0,1.0,phase_2,stop,350.0,500.0,3.0,,,,,,,,,green,diamond
0.0,3.0,2.0,0.0,6.0,6.0,867.0153229995776,4.0,1.0,phase_2,go,350.0,450.0,1.0,,,,,,,,,blue,circle
0.0,4.0,4.0,0.0,6.0,6.0,897.6815969999734,4.0,1.0,phase_2,go,350.0,450.0,1.0,,,,,,,,,white,flipped triangle
0.0,2.0,1.0,0.0,6.0,6.0,905.1526920002289,4.0,1.0,phase_2,go,350.0,450.0,1.0,,,,,,,,,cyan,I
0.0,4.0,4.0,0.0,5.0,5.0,703.2419299998764,4.0,1.0,phase_2,go,350.0,450.0,1.0,,,,,,,,,white,flipped triangle
0.0,6.0,1.0,1.0,6.0,6.0,482.7163070003735,4.0,1.0,phase_2,stop,350.0,450.0,3.0,,,,,,,,,orange,triangle
0.0,6.0,1.0,1.0,5.0,0.0,0.0,4.0,1.0,phase_2,stop,350.0,400.0,4.0,,,,,,,,,orange,triangle
0.0,2.0,1.0,0.0,6.0,6.0,808.0071419999513,4.0,1.0,phase_2,go,400.0,400.0,1.0,,,,,,,,,cyan,I
0.0,3.0,2.0,0.0,6.0,6.0,889.4159010001204,4.0,1.0,phase_2,go,400.0,400.0,1.0,,,,,,,,,blue,circle
0.0,4.0,4.0,0.0,5.0,5.0,806.4010630000666,4.0,1.0,phase_2,go,400.0,400.0,1.0,,,,,,,,,white,flipped triangle
0.0,4.0,4.0,0.0,6.0,6.0,845.6999069999256,4.0,1.0,phase_2,go,400.0,400.0,1.0,,,,,,,,,white,flipped triangle
0.0,3.0,2.0,0.0,6.0,6.0,707.4381099996572,4.0,1.0,phase_2,go,400.0,400.0,1.0,,,,,,,,,blue,circle
0.0,8.0,4.0,1.0,5.0,5.0,526.5664960002141,4.0,1.0,phase_2,stop,400.0,400.0,3.0,,,,,,,,,yellow,square
0.0,5.0,0.5,1.0,6.0,0.0,0.0,4.0,1.0,phase_2,stop,350.0,400.0,4.0,,,,,,,,,gray,hexagon
0.0,1.0,0.5,0.0,6.0,6.0,720.4811059996246,4.0,1.0,phase_2,go,350.0,450.0,1.0,,,,,,,,,magenta,cross
0.0,7.0,2.0,1.0,6.0,0.0,0.0,4.0,1.0,phase_2,stop,350.0,450.0,4.0,,,,,,,,,green,diamond
0.0,7.0,2.0,1.0,6.0,0.0,0.0,4.0,1.0,phase_2,stop,350.0,500.0,4.0,,,,,,,,,green,diamond
0.0,3.0,2.0,0.0,6.0,6.0,906.4978249998604,4.0,1.0,phase_2,go,350.0,550.0,1.0,,,,,,,,,blue,circle
0.0,2.0,1.0,0.0,6.0,6.0,683.8030639996759,4.0,1.0,phase_2,go,350.0,550.0,1.0,,,,,,,,,cyan,I
0.0,2.0,1.0,0.0,6.0,6.0,824.6869239997068,4.0,1.0,phase_2,go,350.0,550.0,1.0,,,,,,,,,cyan,I
0.0,3.0,2.0,0.0,5.0,5.0,894.0599880002083,4.0,1.0,phase_2,go,350.0,550.0,1.0,,,,,,,,,blue,circle
0.0,4.0,4.0,0.0,6.0,6.0,593.9734110002064,4.0,1.0,phase_2,go,350.0,550.0,1.0,,,,,,,,,white,flipped triangle
0.0,6.0,1.0,1.0,6.0,6.0,774.5948859997043,4.0,1.0,phase_2,go,350.0,550.0,1.0,,,,,,,,,orange,triangle
0.0,3.0,2.0,0.0,5.0,5.0,429.4769500002076,5.0,1.0,phase_2,go,350.0,550.0,1.0,,,,,,,,,blue,circle
0.0,7.0,2.0,1.0,6.0,6.0,405.4534329998205,5.0,1.0,phase_2,stop,350.0,550.0,3.0,,,,,,,,,green,diamond
0.0,4.0,4.0,0.0,6.0,6.0,467.9057849998571,5.0,1.0,phase_2,go,350.0,500.0,1.0,,,,,,,,,white,flipped triangle
0.0,2.0,1.0,0.0,5.0,5.0,314.782918000219,5.0,1.0,phase_2,go,350.0,500.0,1.0,,,,,,,,,cyan,I
0.0,2.0,1.0,0.0,6.0,6.0,525.1680050000687,5.0,1.0,phase_2,go,350.0,500.0,1.0,,,,,,,,,cyan,I
0.0,8.0,4.0,1.0,5.0,5.0,456.0174110001753,5.0,1.0,phase_2,stop,350.0,500.0,3.0,,,,,,,,,yellow,square
0.0,8.0,4.0,1.0,5.0,0.0,0.0,5.0,1.0,phase_2,stop,300.0,500.0,4.0,,,,,,,,,yellow,square
0.0,4.0,4.0,0.0,5.0,5.0,540.0804599998992,5.0,1.0,phase_2,go,350.0,500.0,1.0,,,,,,,,,white,flipped triangle
0.0,7.0,2.0,1.0,5.0,5.0,389.2190550000123,5.0,1.0,phase_2,stop,350.0,500.0,3.0,,,,,,,,,green,diamond
0.0,4.0,4.0,0.0,5.0,5.0,324.4338499998775,5.0,1.0,phase_2,go,300.0,500.0,1.0,,,,,,,,,white,flipped triangle
0.0,5.0,0.5,1.0,6.0,6.0,425.8057199999712,5.0,1.0,phase_2,stop,300.0,500.0,3.0,,,,,,,,,gray,hexagon
0.0,8.0,4.0,1.0,6.0,6.0,320.5573049999657,5.0,1.0,phase_2,stop,300.0,450.0,3.0,,,,,,,,,yellow,square
0.0,5.0,0.5,1.0,5.0,0.0,0.0,5.0,1.0,phase_2,stop,300.0,400.0,4.0,,,,,,,,,gray,hexagon
0.0,3.0,2.0,0.0,6.0,6.0,652.2444730003372,5.0,1.0,phase_2,go,350.0,400.0,1.0,,,,,,,,,blue,circle
0.0,4.0,4.0,0.0,5.0,5.0,543.074470999727,5.0,1.0,phase_2,go,350.0,400.0,1.0,,,,,,,,,white,flipped triangle
0.0,1.0,0.5,0.0,5.0,5.0,447.6747079997949,5.0,1.0,phase_2,go,350.0,400.0,1.0,,,,,,,,,magenta,cross
0.0,3.0,2.0,0.0,5.0,5.0,421.7163719999917,5.0,1.0,phase_2,go,350.0,400.0,1.0,,,,,,,,,blue,circle
0.0,5.0,0.5,1.0,6.0,6.0,456.2146519997441,5.0,1.0,phase_2,go,350.0,400.0,1.0,,,,,,,,,gray,hexagon
0.0,4.0,4.0,0.0,6.0,6.0,409.5600599998761,5.0,1.0,phase_2,go,350.0,400.0,1.0,,,,,,,,,white,flipped triangle
0.0,7.0,2.0,1.0,5.0,5.0,421.550303999993,5.0,1.0,phase_2,stop,350.0,400.0,3.0,,,,,,,,,green,diamond
0.0,5.0,0.5,1.0,6.0,6.0,584.3373549996613,5.0,1.0,phase_2,go,300.0,400.0,1.0,,,,,,,,,gray,hexagon
0.0,8.0,4.0,1.0,6.0,6.0,590.2586070001234,5.0,1.0,phase_2,stop,300.0,400.0,3.0,,,,,,,,,yellow,square
0.0,4.0,4.0,0.0,5.0,5.0,557.8338690002056,5.0,1.0,phase_2,go,300.0,350.0,1.0,,,,,,,,,white,flipped triangle
0.0,1.0,0.5,0.0,5.0,5.0,636.0478149999835,5.0,1.0,phase_2,go,300.0,350.0,1.0,,,,,,,,,magenta,cross
0.0,8.0,4.0,1.0,6.0,6.0,773.16160700002,5.0,1.0,phase_2,go,300.0,350.0,1.0,,,,,,,,,yellow,square
0.0,7.0,2.0,1.0,6.0,0.0,0.0,5.0,1.0,phase_2,stop,300.0,350.0,4.0,,,,,,,,,green,diamond
0.0,6.0,1.0,1.0,5.0,5.0,470.7409289999305,5.0,1.0,phase_2,go,300.0,400.0,1.0,,,,,,,,,orange,triangle
0.0,7.0,2.0,1.0,5.0,0.0,0.0,5.0,1.0,phase_2,stop,300.0,400.0,4.0,,,,,,,,,green,diamond
0.0,8.0,4.0,1.0,6.0,6.0,538.9051679999284,5.0,1.0,phase_2,stop,350.0,400.0,3.0,,,,,,,,,yellow,square
0.0,4.0,4.0,0.0,5.0,5.0,619.2721699999311,5.0,1.0,phase_2,go,350.0,350.0,1.0,,,,,,,,,white,flipped triangle
0.0,6.0,1.0,1.0,5.0,0.0,0.0,5.0,1.0,phase_2,stop,350.0,350.0,4.0,,,,,,,,,orange,triangle
0.0,4.0,4.0,0.0,5.0,5.0,642.75128700001,5.0,1.0,phase_2,go,400.0,350.0,1.0,,,,,,,,,white,flipped triangle
0.0,2.0,1.0,0.0,5.0,5.0,552.8605640001842,5.0,1.0,phase_2,go,400.0,350.0,1.0,,,,,,,,,cyan,I
0.0,5.0,0.5,1.0,5.0,0.0,0.0,5.0,1.0,phase_2,stop,400.0,350.0,4.0,,,,,,,,,gray,hexagon
0.0,2.0,1.0,0.0,5.0,5.0,632.2913340000014,5.0,1.0,phase_2,go,450.0,350.0,1.0,,,,,,,,,cyan,I
0.0,8.0,4.0,1.0,6.0,0.0,0.0,5.0,1.0,phase_2,stop,450.0,350.0,4.0,,,,,,,,,yellow,square
0.0,5.0,0.5,1.0,5.0,5.0,368.7652050002725,6.0,1.0,phase_2,stop,450.0,400.0,3.0,,,,,,,,,gray,hexagon
0.0,8.0,4.0,1.0,5.0,5.0,601.9629070001429,6.0,1.0,phase_2,go,400.0,400.0,1.0,,,,,,,,,yellow,square
0.0,3.0,2.0,0.0,6.0,6.0,473.4325009999338,6.0,1.0,phase_2,go,400.0,400.0,1.0,,,,,,,,,blue,circle
0.0,3.0,2.0,0.0,5.0,5.0,506.4692789997025,6.0,1.0,phase_2,go,400.0,400.0,1.0,,,,,,,,,blue,circle
0.0,1.0,0.5,0.0,5.0,5.0,405.2779229996304,6.0,1.0,phase_2,go,400.0,400.0,1.0,,,,,,,,,magenta,cross
0.0,8.0,4.0,1.0,6.0,6.0,493.8808219999373,6.0,1.0,phase_2,stop,400.0,400.0,3.0,,,,,,,,,yellow,square
0.0,5.0,0.5,1.0,5.0,5.0,636.7957330003264,6.0,1.0,phase_2,go,400.0,350.0,1.0,,,,,,,,,gray,hexagon
0.0,4.0,4.0,0.0,5.0,5.0,584.9041970000144,6.0,1.0,phase_2,go,400.0,350.0,1.0,,,,,,,,,white,flipped triangle
0.0,3.0,2.0,0.0,5.0,5.0,585.9174960000928,6.0,1.0,phase_2,go,400.0,350.0,1.0,,,,,,,,,blue,circle
0.0,7.0,2.0,1.0,5.0,0.0,0.0,6.0,1.0,phase_2,stop,400.0,350.0,4.0,,,,,,,,,green,diamond
0.0,8.0,4.0,1.0,6.0,0.0,0.0,6.0,1.0,phase_2,stop,450.0,350.0,4.0,,,,,,,,,yellow,square
0.0,6.0,1.0,1.0,5.0,0.0,0.0,6.0,1.0,phase_2,stop,450.0,400.0,4.0,,,,,,,,,orange,triangle
0.0,3.0,2.0,0.0,6.0,6.0,703.0264370000623,6.0,1.0,phase_2,go,500.0,400.0,1.0,,,,,,,,,blue,circle
0.0,2.0,1.0,0.0,5.0,5.0,596.9051379997836,6.0,1.0,phase_2,go,500.0,400.0,1.0,,,,,,,,,cyan,I
0.0,1.0,0.5,0.0,6.0,6.0,578.6423800000193,6.0,1.0,phase_2,go,500.0,400.0,1.0,,,,,,,,,magenta,cross
0.0,8.0,4.0,1.0,6.0,6.0,592.42287699999,6.0,1.0,phase_2,go,500.0,400.0,1.0,,,,,,,,,yellow,square
0.0,8.0,4.0,1.0,6.0,6.0,550.2426529997138,6.0,1.0,phase_2,go,500.0,400.0,1.0,,,,,,,,,yellow,square
0.0,2.0,1.0,0.0,6.0,6.0,586.4695989998836,6.0,1.0,phase_2,go,500.0,400.0,1.0,,,,,,,,,cyan,I
0.0,7.0,2.0,1.0,6.0,0.0,0.0,6.0,1.0,phase_2,stop,500.0,400.0,4.0,,,,,,,,,green,diamond
0.0,8.0,4.0,1.0,6.0,0.0,0.0,6.0,1.0,phase_2,stop,500.0,450.0,4.0,,,,,,,,,yellow,square
0.0,7.0,2.0,1.0,5.0,5.0,722.5307619996784,6.0,1.0,phase_2,go,500.0,500.0,1.0,,,,,,,,,green,diamond
0.0,5.0,0.5,1.0,6.0,6.0,656.7689349999455,6.0,1.0,phase_2,stop,500.0,500.0,3.0,,,,,,,,,gray,hexagon
0.0,4.0,4.0,0.0,5.0,5.0,758.8911039997583,6.0,1.0,phase_2,go,500.0,450.0,1.0,,,,,,,,,white,flipped triangle
0.0,1.0,0.5,0.0,5.0,5.0,717.4439499999608,6.0,1.0,phase_2,go,500.0,450.0,1.0,,,,,,,,,magenta,cross
0.0,2.0,1.0,0.0,5.0,5.0,713.4835179999754,6.0,1.0,phase_2,go,500.0,450.0,1.0,,,,,,,,,cyan,I
0.0,6.0,1.0,1.0,6.0,6.0,545.0942809998196,6.0,1.0,phase_2,stop,500.0,450.0,3.0,,,,,,,,,orange,triangle
0.0,5.0,0.5,1.0,5.0,5.0,583.3410569998705,6.0,1.0,phase_2,stop,500.0,400.0,3.0,,,,,,,,,gray,hexagon
0.0,3.0,2.0,0.0,5.0,5.0,580.1302780000697,6.0,1.0,phase_2,go,450.0,400.0,1.0,,,,,,,,,blue,circle
0.0,6.0,1.0,1.0,6.0,0.0,0.0,6.0,1.0,phase_2,stop,450.0,400.0,4.0,,,,,,,,,orange,triangle
0.0,1.0,0.5,0.0,5.0,5.0,817.0325930000217,6.0,1.0,phase_2,go,450.0,450.0,1.0,,,,,,,,,magenta,cross
0.0,5.0,0.5,1.0,5.0,0.0,0.0,6.0,1.0,phase_2,stop,450.0,450.0,4.0,,,,,,,,,gray,hexagon
0.0,5.0,0.5,1.0,5.0,0.0,0.0,6.0,1.0,phase_2,stop,500.0,450.0,4.0,,,,,,,,,gray,hexagon
0.0,6.0,1.0,1.0,6.0,0.0,0.0,6.0,1.0,phase_2,stop,550.0,450.0,4.0,,,,,,,,,orange,triangle
0.0,4.0,4.0,0.0,6.0,6.0,592.12030100025,6.0,1.0,phase_2,go,550.0,500.0,1.0,,,,,,,,,white,flipped triangle
0.0,7.0,2.0,1.0,6.0,6.0,575.496822000332,6.0,1.0,phase_2,stop,550.0,500.0,3.0,,,,,,,,,green,diamond
0.0,8.0,4.0,1.0,5.0,0.0,0.0,6.0,1.0,phase_2,stop,550.0,450.0,4.0,,,,,,,,,yellow,square
0.0,5.0,0.5,1.0,5.0,5.0,713.1262540001444,7.0,1.0,phase_2,stop,600.0,450.0,3.0,,,,,,,,,gray,hexagon
0.0,3.0,2.0,0.0,5.0,5.0,553.8337220000358,7.0,1.0,phase_2,go,550.0,450.0,1.0,,,,,,,,,blue,circle
0.0,4.0,4.0,0.0,6.0,6.0,431.0003270002198,7.0,1.0,phase_2,go,550.0,450.0,1.0,,,,,,,,,white,flipped triangle
0.0,8.0,4.0,1.0,6.0,6.0,578.7714830003097,7.0,1.0,phase_2,go,550.0,450.0,1.0,,,,,,,,,yellow,square
0.0,2.0,1.0,0.0,5.0,5.0,615.9722460001831,7.0,1.0,phase_2,go,550.0,450.0,1.0,,,,,,,,,cyan,I
0.0,2.0,1.0,0.0,6.0,6.0,529.3256290001409,7.0,1.0,phase_2,go,550.0,450.0,1.0,,,,,,,,,cyan,I
0.0,6.0,1.0,1.0,6.0,0.0,0.0,7.0,1.0,phase_2,stop,550.0,450.0,4.0,,,,,,,,,orange,triangle
0.0,8.0,4.0,1.0,5.0,5.0,650.6386279997969,7.0,1.0,phase_2,stop,550.0,500.0,3.0,,,,,,,,,yellow,square
0.0,2.0,1.0,0.0,5.0,5.0,636.5207849999024,7.0,1.0,phase_2,go,500.0,500.0,1.0,,,,,,,,,cyan,I
0.0,4.0,4.0,0.0,6.0,6.0,727.1361109997088,7.0,1.0,phase_2,go,500.0,500.0,1.0,,,,,,,,,white,flipped triangle
0.0,7.0,2.0,1.0,5.0,5.0,688.4232049997081,7.0,1.0,phase_2,go,500.0,500.0,1.0,,,,,,,,,green,diamond
0.0,7.0,2.0,1.0,5.0,5.0,608.0591300001288,7.0,1.0,phase_2,stop,500.0,500.0,3.0,,,,,,,,,green,diamond
0.0,2.0,1.0,0.0,6.0,6.0,676.6547870001887,7.0,1.0,phase_2,go,450.0,500.0,1.0,,,,,,,,,cyan,I
0.0,5.0,0.5,1.0,5.0,0.0,0.0,7.0,1.0,phase_2,stop,450.0,500.0,4.0,,,,,,,,,gray,hexagon
0.0,3.0,2.0,0.0,5.0,5.0,993.8877929998852,7.0,1.0,phase_2,go,500.0,500.0,1.0,,,,,,,,,blue,circle
0.0,5.0,0.5,1.0,5.0,0.0,0.0,7.0,1.0,phase_2,stop,500.0,500.0,4.0,,,,,,,,,gray,hexagon
0.0,2.0,1.0,0.0,6.0,6.0,714.7646700000223,7.0,1.0,phase_2,go,550.0,500.0,1.0,,,,,,,,,cyan,I
0.0,5.0,0.5,1.0,6.0,0.0,0.0,7.0,1.0,phase_2,stop,550.0,500.0,4.0,,,,,,,,,gray,hexagon
0.0,6.0,1.0,1.0,5.0,5.0,674.5130589997643,7.0,1.0,phase_2,stop,550.0,550.0,3.0,,,,,,,,,orange,triangle
0.0,2.0,1.0,0.0,6.0,6.0,681.6459259998737,7.0,1.0,phase_2,go,500.0,550.0,1.0,,,,,,,,,cyan,I
0.0,7.0,2.0,1.0,5.0,0.0,0.0,7.0,1.0,phase_2,stop,500.0,550.0,4.0,,,,,,,,,green,diamond
0.0,6.0,1.0,1.0,5.0,0.0,0.0,7.0,1.0,phase_2,stop,550.0,550.0,4.0,,,,,,,,,orange,triangle
0.0,5.0,0.5,1.0,5.0,5.0,658.7436519994299,7.0,1.0,phase_2,go,600.0,550.0,1.0,,,,,,,,,gray,hexagon
0.0,8.0,4.0,1.0,6.0,0.0,0.0,7.0,1.0,phase_2,stop,600.0,550.0,4.0,,,,,,,,,yellow,square
0.0,5.0,0.5,1.0,6.0,6.0,737.0134799994048,7.0,1.0,phase_2,stop,600.0,600.0,3.0,,,,,,,,,gray,hexagon
0.0,8.0,4.0,1.0,5.0,5.0,673.3154289995582,7.0,1.0,phase_2,go,600.0,550.0,1.0,,,,,,,,,yellow,square
0.0,2.0,1.0,0.0,5.0,5.0,658.0592359996444,7.0,1.0,phase_2,go,600.0,550.0,1.0,,,,,,,,,cyan,I
0.0,6.0,1.0,1.0,5.0,5.0,596.0650250008257,7.0,1.0,phase_2,stop,600.0,550.0,3.0,,,,,,,,,orange,triangle
0.0,6.0,1.0,1.0,5.0,5.0,698.3185210001466,7.0,1.0,phase_2,go,550.0,550.0,1.0,,,,,,,,,orange,triangle
0.0,7.0,2.0,1.0,5.0,5.0,660.4603209998459,7.0,1.0,phase_2,stop,550.0,550.0,3.0,,,,,,,,,green,diamond
0.0,1.0,0.5,0.0,6.0,6.0,728.1184459998258,7.0,1.0,phase_2,go,500.0,550.0,1.0,,,,,,,,,magenta,cross
0.0,8.0,4.0,1.0,5.0,5.0,672.2656919992005,7.0,1.0,phase_2,go,500.0,550.0,1.0,,,,,,,,,yellow,square
0.0,8.0,4.0,1.0,5.0,5.0,565.9557029994176,7.0,1.0,phase_2,stop,500.0,550.0,3.0,,,,,,,,,yellow,square
0.0,3.0,2.0,0.0,6.0,6.0,623.4970790001171,7.0,1.0,phase_2,go,450.0,550.0,1.0,,,,,,,,,blue,circle
0.0,8.0,4.0,1.0,5.0,0.0,0.0,7.0,1.0,phase_2,stop,450.0,550.0,4.0,,,,,,,,,yellow,square
0.0,2.0,1.0,0.0,6.0,6.0,616.914447000454,7.0,1.0,phase_2,go,500.0,550.0,1.0,,,,,,,,,cyan,I
0.0,6.0,1.0,1.0,5.0,5.0,540.7244999996692,8.0,1.0,phase_2,stop,500.0,550.0,3.0,,,,,,,,,orange,triangle
0.0,2.0,1.0,0.0,6.0,6.0,367.0747450005365,8.0,1.0,phase_2,go,450.0,550.0,1.0,,,,,,,,,cyan,I
0.0,1.0,0.5,0.0,6.0,6.0,328.0824029998257,8.0,1.0,phase_2,go,450.0,550.0,1.0,,,,,,,,,magenta,cross
0.0,3.0,2.0,0.0,6.0,6.0,323.2927129993186,8.0,1.0,phase_2,go,450.0,550.0,1.0,,,,,,,,,blue,circle
0.0,7.0,2.0,1.0,6.0,6.0,300.3946170001654,8.0,1.0,phase_2,go,450.0,550.0,1.0,,,,,,,,,green,diamond
0.0,8.0,4.0,1.0,6.0,6.0,340.5114719998892,8.0,1.0,phase_2,go,450.0,550.0,1.0,,,,,,,,,yellow,square
0.0,7.0,2.0,1.0,5.0,5.0,415.472349999618,8.0,1.0,phase_2,go,450.0,550.0,1.0,,,,,,,,,green,diamond
0.0,2.0,1.0,0.0,6.0,6.0,319.361533999654,8.0,1.0,phase_2,go,450.0,550.0,1.0,,,,,,,,,cyan,I
0.0,4.0,4.0,0.0,5.0,5.0,489.0708339999037,8.0,1.0,phase_2,go,450.0,550.0,1.0,,,,,,,,,white,flipped triangle
0.0,1.0,0.5,0.0,5.0,5.0,363.1086819996199,8.0,1.0,phase_2,go,450.0,550.0,1.0,,,,,,,,,magenta,cross
0.0,5.0,0.5,1.0,6.0,6.0,536.7516890000843,8.0,1.0,phase_2,stop,450.0,550.0,3.0,,,,,,,,,gray,hexagon
0.0,3.0,2.0,0.0,5.0,5.0,313.6203369995201,8.0,1.0,phase_2,go,450.0,500.0,1.0,,,,,,,,,blue,circle
0.0,1.0,0.5,0.0,5.0,5.0,569.9671940001281,8.0,1.0,phase_2,go,450.0,500.0,1.0,,,,,,,,,magenta,cross
0.0,7.0,2.0,1.0,5.0,5.0,348.1033260004551,8.0,1.0,phase_2,go,450.0,500.0,1.0,,,,,,,,,green,diamond
0.0,5.0,0.5,1.0,6.0,6.0,387.4633209998137,8.0,1.0,phase_2,stop,450.0,500.0,3.0,,,,,,,,,gray,hexagon
0.0,3.0,2.0,0.0,5.0,5.0,358.0619360000128,8.0,1.0,phase_2,go,450.0,450.0,1.0,,,,,,,,,blue,circle
0.0,2.0,1.0,0.0,5.0,5.0,278.5231850002674,8.0,1.0,phase_2,go,450.0,450.0,1.0,,,,,,,,,cyan,I
0.0,1.0,0.5,0.0,6.0,6.0,504.91657099973963,8.0,1.0,phase_2,go,450.0,450.0,1.0,,,,,,,,,magenta,cross
0.0,4.0,4.0,0.0,6.0,6.0,295.1575639999646,8.0,1.0,phase_2,go,450.0,450.0,1.0,,,,,,,,,white,flipped triangle
0.0,1.0,0.5,0.0,6.0,6.0,256.0921440008314,8.0,1.0,phase_2,go,450.0,450.0,1.0,,,,,,,,,magenta,cross
0.0,6.0,1.0,1.0,5.0,5.0,336.6412889999992,8.0,1.0,phase_2,go,450.0,450.0,1.0,,,,,,,,,orange,triangle
0.0,5.0,0.5,1.0,5.0,5.0,297.7850410006795,8.0,1.0,phase_2,go,450.0,450.0,1.0,,,,,,,,,gray,hexagon
0.0,1.0,0.5,0.0,6.0,6.0,266.6256740003518,8.0,1.0,phase_2,go,450.0,450.0,1.0,,,,,,,,,magenta,cross
0.0,6.0,1.0,1.0,5.0,5.0,276.3046959998974,8.0,1.0,phase_2,stop,450.0,450.0,3.0,,,,,,,,,orange,triangle
0.0,3.0,2.0,0.0,5.0,5.0,301.4028229999894,8.0,1.0,phase_2,go,400.0,450.0,1.0,,,,,,,,,blue,circle
0.0,7.0,2.0,1.0,6.0,6.0,297.8974299994661,8.0,1.0,phase_2,stop,400.0,450.0,3.0,,,,,,,,,green,diamond
0.0,3.0,2.0,0.0,6.0,6.0,512.0803410000008,8.0,1.0,phase_2,go,400.0,400.0,1.0,,,,,,,,,blue,circle
0.0,3.0,2.0,0.0,5.0,5.0,222.6653160005298,8.0,1.0,phase_2,go,400.0,400.0,1.0,,,,,,,,,blue,circle
0.0,6.0,1.0,1.0,6.0,6.0,333.227275000354,8.0,1.0,phase_2,stop,400.0,400.0,3.0,,,,,,,,,orange,triangle
0.0,6.0,1.0,1.0,6.0,6.0,453.1953730001987,8.0,1.0,phase_2,stop,400.0,350.0,3.0,,,,,,,,,orange,triangle
0.0,2.0,1.0,0.0,6.0,6.0,491.3972060003289,8.0,1.0,phase_2,go,400.0,300.0,1.0,,,,,,,,,cyan,I
0.0,1.0,0.5,0.0,5.0,5.0,488.4605600000213,8.0,1.0,phase_2,go,400.0,300.0,1.0,,,,,,,,,magenta,cross
0.0,8.0,4.0,1.0,6.0,6.0,437.0285409995631,8.0,1.0,phase_2,stop,400.0,300.0,3.0,,,,,,,,,yellow,square
0.0,5.0,0.5,1.0,6.0,0.0,0.0,8.0,1.0,phase_2,stop,400.0,250.0,4.0,,,,,,,,,gray,hexagon
0.0,5.0,0.5,1.0,5.0,5.0,432.4379360004968,8.0,1.0,phase_2,stop,400.0,300.0,3.0,,,,,,,,,gray,hexagon
0.0,2.0,1.0,0.0,5.0,5.0,554.5478759995603,8.0,1.0,phase_2,go,350.0,300.0,1.0,,,,,,,,,cyan,I
0.0,3.0,2.0,0.0,7.0,5.0,1870.3027729998207,1.0,1.0,phase_3,,,,,234.0,6.0,39.0,78.0,195.0,117.0,234.0,156.0,blue,circle
0.0,3.0,2.0,0.0,7.0,2.0,1551.034599000559,1.0,1.0,phase_3,,,,,195.0,5.0,39.0,195.0,117.0,78.0,234.0,156.0,blue,circle
0.0,7.0,2.0,1.0,7.0,1.0,1083.3586839999043,1.0,1.0,phase_3,,,,,324.0,6.0,324.0,270.0,162.0,54.0,108.0,216.0,green,diamond
0.0,5.0,0.5,1.0,7.0,3.0,2259.114069999669,1.0,1.0,phase_3,,,,,98.0,2.0,196.0,245.0,98.0,49.0,147.0,294.0,gray,hexagon
0.0,6.0,1.0,1.0,7.0,4.0,1851.8749639997625,1.0,1.0,phase_3,,,,,294.0,6.0,196.0,245.0,147.0,294.0,49.0,98.0,orange,triangle
0.0,6.0,1.0,1.0,7.0,5.0,1596.4931100006652,1.0,1.0,phase_3,,,,,176.0,4.0,88.0,44.0,264.0,220.0,176.0,132.0,orange,triangle
0.0,6.0,1.0,1.0,7.0,4.0,1255.8689130000855,1.0,1.0,phase_3,,,,,156.0,4.0,195.0,78.0,234.0,156.0,39.0,117.0,orange,triangle
0.0,7.0,2.0,1.0,7.0,1.0,1831.9102510004088,1.0,1.0,phase_3,,,,,234.0,6.0,234.0,195.0,78.0,117.0,156.0,39.0,green,diamond
0.0,6.0,1.0,1.0,7.0,2.0,972.190113000579,1.0,1.0,phase_3,,,,,234.0,6.0,156.0,234.0,117.0,39.0,195.0,78.0,orange,triangle
0.0,7.0,2.0,1.0,7.0,3.0,1403.191749999678,1.0,1.0,phase_3,,,,,220.0,5.0,132.0,44.0,220.0,88.0,176.0,264.0,green,diamond
0.0,1.0,0.5,0.0,7.0,2.0,919.8545139997804,1.0,1.0,phase_3,,,,,176.0,4.0,264.0,176.0,44.0,88.0,132.0,220.0,magenta,cross
0.0,6.0,1.0,1.0,7.0,5.0,1227.407194999614,1.0,1.0,phase_3,,,,,324.0,6.0,108.0,54.0,270.0,162.0,324.0,216.0,orange,triangle
0.0,8.0,4.0,1.0,7.0,3.0,1747.4404350004988,1.0,1.0,phase_3,,,,,176.0,4.0,44.0,264.0,176.0,220.0,88.0,132.0,yellow,square
0.0,7.0,2.0,1.0,7.0,6.0,1067.040334000012,1.0,1.0,phase_3,,,,,136.0,4.0,204.0,68.0,102.0,170.0,34.0,136.0,green,diamond
0.0,2.0,1.0,0.0,7.0,4.0,2018.0665249999947,1.0,1.0,phase_3,,,,,39.0,1.0,156.0,78.0,195.0,39.0,234.0,117.0,cyan,I
0.0,7.0,2.0,1.0,7.0,3.0,1775.351948000207,1.0,1.0,phase_3,,,,,270.0,5.0,108.0,324.0,270.0,216.0,54.0,162.0,green,diamond
0.0,5.0,0.5,1.0,7.0,5.0,1435.5961179999213,1.0,1.0,phase_3,,,,,176.0,4.0,44.0,264.0,220.0,132.0,176.0,88.0,gray,hexagon
0.0,3.0,2.0,0.0,7.0,5.0,1682.4510739998004,1.0,1.0,phase_3,,,,,294.0,6.0,245.0,196.0,147.0,49.0,294.0,98.0,blue,circle
0.0,2.0,1.0,0.0,7.0,2.0,1658.85824399993,1.0,1.0,phase_3,,,,,204.0,6.0,34.0,204.0,68.0,136.0,102.0,170.0,cyan,I
0.0,4.0,4.0,0.0,7.0,3.0,1064.8128910006562,1.0,1.0,phase_3,,,,,170.0,5.0,68.0,136.0,170.0,34.0,204.0,102.0,white,flipped triangle
0.0,6.0,1.0,1.0,7.0,5.0,1459.0445699996053,2.0,1.0,phase_3,,,,,264.0,6.0,220.0,88.0,44.0,176.0,264.0,132.0,orange,triangle
0.0,3.0,2.0,0.0,7.0,2.0,914.1247309999015,2.0,1.0,phase_3,,,,,136.0,4.0,204.0,136.0,170.0,34.0,102.0,68.0,blue,circle
0.0,6.0,1.0,1.0,7.0,5.0,840.5914380000468,2.0,1.0,phase_3,,,,,324.0,6.0,162.0,108.0,216.0,54.0,324.0,270.0,orange,triangle
0.0,1.0,0.5,0.0,7.0,6.0,973.11775199978,2.0,1.0,phase_3,,,,,117.0,3.0,39.0,195.0,234.0,156.0,78.0,117.0,magenta,cross
0.0,1.0,0.5,0.0,7.0,6.0,1626.0907719997704,2.0,1.0,phase_3,,,,,245.0,5.0,98.0,294.0,49.0,147.0,196.0,245.0,magenta,cross
0.0,2.0,1.0,0.0,7.0,5.0,1443.0567999997947,2.0,1.0,phase_3,,,,,294.0,6.0,49.0,245.0,98.0,147.0,294.0,196.0,cyan,I
0.0,2.0,1.0,0.0,7.0,2.0,1447.5686669993593,2.0,1.0,phase_3,,,,,78.0,2.0,156.0,78.0,39.0,117.0,234.0,195.0,cyan,I
0.0,7.0,2.0,1.0,7.0,2.0,1251.150553000116,2.0,1.0,phase_3,,,,,117.0,3.0,195.0,117.0,78.0,156.0,39.0,234.0,green,diamond
0.0,2.0,1.0,0.0,7.0,3.0,1138.1109550002293,2.0,1.0,phase_3,,,,,136.0,4.0,170.0,68.0,136.0,204.0,34.0,102.0,cyan,I
0.0,3.0,2.0,0.0,7.0,5.0,783.1040410001151,2.0,1.0,phase_3,,,,,108.0,2.0,324.0,162.0,54.0,270.0,108.0,216.0,blue,circle
0.0,6.0,1.0,1.0,7.0,6.0,867.7815130004092,2.0,1.0,phase_3,,,,,294.0,6.0,245.0,98.0,147.0,49.0,196.0,294.0,orange,triangle
0.0,7.0,2.0,1.0,7.0,5.0,993.3332850005172,2.0,1.0,phase_3,,,,,196.0,4.0,245.0,147.0,294.0,49.0,196.0,98.0,green,diamond
0.0,5.0,0.5,1.0,7.0,6.0,1158.2161810001708,2.0,1.0,phase_3,,,,,54.0,1.0,216.0,162.0,270.0,324.0,108.0,54.0,gray,hexagon
0.0,5.0,0.5,1.0,7.0,6.0,1106.811411999843,2.0,1.0,phase_3,,,,,117.0,3.0,156.0,195.0,78.0,39.0,234.0,117.0,gray,hexagon
0.0,5.0,0.5,1.0,7.0,2.0,1177.487127999484,2.0,1.0,phase_3,,,,,170.0,5.0,34.0,170.0,136.0,68.0,204.0,102.0,gray,hexagon
0.0,3.0,2.0,0.0,7.0,4.0,1227.3969679999936,2.0,1.0,phase_3,,,,,216.0,4.0,324.0,162.0,108.0,216.0,54.0,270.0,blue,circle
0.0,4.0,4.0,0.0,7.0,1.0,960.9375740001268,2.0,1.0,phase_3,,,,,162.0,3.0,162.0,216.0,54.0,324.0,270.0,108.0,white,flipped triangle
0.0,5.0,0.5,1.0,7.0,4.0,1223.24406000007,2.0,1.0,phase_3,,,,,108.0,2.0,270.0,162.0,216.0,108.0,324.0,54.0,gray,hexagon
0.0,8.0,4.0,1.0,7.0,4.0,1926.5297060001103,2.0,1.0,phase_3,,,,,156.0,4.0,195.0,78.0,117.0,156.0,39.0,234.0,yellow,square
0.0,2.0,1.0,0.0,7.0,5.0,1578.2674720003342,2.0,1.0,phase_3,,,,,220.0,5.0,88.0,176.0,132.0,44.0,220.0,264.0,cyan,I
0.0,5.0,0.5,1.0,7.0,3.0,1082.5223199999527,3.0,1.0,phase_3,,,,,132.0,3.0,220.0,264.0,132.0,88.0,176.0,44.0,gray,hexagon
0.0,6.0,1.0,1.0,7.0,5.0,803.7560840002698,3.0,1.0,phase_3,,,,,204.0,6.0,170.0,136.0,102.0,68.0,204.0,34.0,orange,triangle
0.0,8.0,4.0,1.0,7.0,5.0,1105.2979550004238,3.0,1.0,phase_3,,,,,324.0,6.0,216.0,162.0,108.0,54.0,324.0,270.0,yellow,square
0.0,4.0,4.0,0.0,7.0,4.0,1431.8746160006413,3.0,1.0,phase_3,,,,,132.0,3.0,264.0,88.0,176.0,132.0,44.0,220.0,white,flipped triangle
0.0,3.0,2.0,0.0,7.0,5.0,1062.791355000627,3.0,1.0,phase_3,,,,,220.0,5.0,176.0,132.0,264.0,44.0,220.0,88.0,blue,circle
0.0,1.0,0.5,0.0,7.0,4.0,1541.4498499994806,3.0,1.0,phase_3,,,,,245.0,5.0,294.0,49.0,196.0,245.0,147.0,98.0,magenta,cross
0.0,1.0,0.5,0.0,7.0,5.0,1509.466245999647,3.0,1.0,phase_3,,,,,270.0,5.0,162.0,54.0,108.0,324.0,270.0,216.0,magenta,cross
0.0,2.0,1.0,0.0,7.0,3.0,1551.5079670003615,3.0,1.0,phase_3,,,,,108.0,2.0,324.0,216.0,108.0,162.0,270.0,54.0,cyan,I
0.0,7.0,2.0,1.0,7.0,6.0,1479.750662000697,3.0,1.0,phase_3,,,,,98.0,2.0,196.0,294.0,49.0,147.0,245.0,98.0,green,diamond
0.0,7.0,2.0,1.0,7.0,2.0,971.5768819996812,3.0,1.0,phase_3,,,,,132.0,3.0,176.0,132.0,220.0,264.0,44.0,88.0,green,diamond
0.0,5.0,0.5,1.0,7.0,5.0,949.5987640002568,3.0,1.0,phase_3,,,,,117.0,3.0,234.0,156.0,39.0,78.0,117.0,195.0,gray,hexagon
0.0,8.0,4.0,1.0,7.0,5.0,1112.8616840005634,3.0,1.0,phase_3,,,,,245.0,5.0,49.0,294.0,98.0,196.0,245.0,147.0,yellow,square
0.0,4.0,4.0,0.0,7.0,3.0,1651.1321910002152,3.0,1.0,phase_3,,,,,204.0,6.0,34.0,68.0,204.0,170.0,102.0,136.0,white,flipped triangle
0.0,1.0,0.5,0.0,7.0,2.0,1039.444076000109,3.0,1.0,phase_3,,,,,136.0,4.0,34.0,136.0,68.0,102.0,204.0,170.0,magenta,cross
0.0,4.0,4.0,0.0,7.0,5.0,1164.9151020001227,3.0,1.0,phase_3,,,,,324.0,6.0,162.0,108.0,270.0,216.0,324.0,54.0,white,flipped triangle
0.0,8.0,4.0,1.0,7.0,4.0,1252.3828499997762,3.0,1.0,phase_3,,,,,324.0,6.0,270.0,54.0,162.0,324.0,108.0,216.0,yellow,square
0.0,1.0,0.5,0.0,7.0,6.0,1932.486667000376,3.0,1.0,phase_3,,,,,216.0,4.0,54.0,162.0,108.0,324.0,270.0,216.0,magenta,cross
0.0,8.0,4.0,1.0,7.0,5.0,1307.278758999928,3.0,1.0,phase_3,,,,,132.0,3.0,176.0,88.0,44.0,220.0,132.0,264.0,yellow,square
0.0,4.0,4.0,0.0,7.0,1.0,2226.195670999914,3.0,1.0,phase_3,,,,,264.0,6.0,264.0,220.0,176.0,132.0,44.0,88.0,white,flipped triangle
0.0,2.0,1.0,0.0,7.0,4.0,1167.3587599998427,3.0,1.0,phase_3,,,,,220.0,5.0,176.0,88.0,132.0,220.0,44.0,264.0,cyan,I
0.0,3.0,2.0,0.0,7.0,3.0,1397.6035530004085,4.0,1.0,phase_3,,,,,132.0,3.0,264.0,176.0,132.0,88.0,44.0,220.0,blue,circle
0.0,4.0,4.0,0.0,7.0,5.0,1177.717032999681,4.0,1.0,phase_3,,,,,195.0,5.0,156.0,78.0,117.0,39.0,195.0,234.0,white,flipped triangle
0.0,3.0,2.0,0.0,7.0,6.0,573.1818909998765,4.0,1.0,phase_3,,,,,102.0,3.0,136.0,34.0,68.0,204.0,170.0,102.0,blue,circle
0.0,1.0,0.5,0.0,7.0,2.0,998.913413000082,4.0,1.0,phase_3,,,,,234.0,6.0,78.0,234.0,117.0,156.0,195.0,39.0,magenta,cross
0.0,5.0,0.5,1.0,7.0,4.0,624.5222920006199,4.0,1.0,phase_3,,,,,204.0,6.0,136.0,170.0,68.0,204.0,102.0,34.0,gray,hexagon
0.0,8.0,4.0,1.0,7.0,4.0,1751.358454000183,4.0,1.0,phase_3,,,,,204.0,6.0,102.0,34.0,136.0,204.0,170.0,68.0,yellow,square
0.0,4.0,4.0,0.0,7.0,2.0,449.0086390005672,4.0,1.0,phase_3,,,,,49.0,1.0,245.0,49.0,196.0,147.0,98.0,294.0,white,flipped triangle
0.0,8.0,4.0,1.0,7.0,4.0,371.7904459999772,4.0,1.0,phase_3,,,,,136.0,4.0,170.0,204.0,34.0,136.0,102.0,68.0,yellow,square
0.0,8.0,4.0,1.0,7.0,4.0,298.3068980001917,4.0,1.0,phase_3,,,,,117.0,3.0,156.0,78.0,39.0,117.0,234.0,195.0,yellow,square
0.0,2.0,1.0,0.0,7.0,5.0,837.5953160002609,4.0,1.0,phase_3,,,,,49.0,1.0,294.0,196.0,98.0,245.0,49.0,147.0,cyan,I
0.0,2.0,1.0,0.0,7.0,2.0,361.1442629999146,4.0,1.0,phase_3,,,,,108.0,2.0,216.0,108.0,324.0,270.0,54.0,162.0,cyan,I
0.0,4.0,4.0,0.0,7.0,2.0,633.9660249996086,4.0,1.0,phase_3,,,,,196.0,4.0,294.0,196.0,49.0,98.0,245.0,147.0,white,flipped triangle
0.0,5.0,0.5,1.0,7.0,5.0,1071.7971320000288,4.0,1.0,phase_3,,,,,49.0,1.0,294.0,147.0,196.0,98.0,49.0,245.0,gray,hexagon
0.0,1.0,0.5,0.0,7.0,2.0,1057.9938709997805,4.0,1.0,phase_3,,,,,220.0,5.0,176.0,220.0,88.0,44.0,264.0,132.0,magenta,cross
0.0,1.0,0.5,0.0,7.0,2.0,0.3142399991702,4.0,1.0,phase_3,,,,,34.0,1.0,136.0,34.0,102.0,68.0,170.0,204.0,magenta,cross
0.0,4.0,4.0,0.0,7.0,4.0,788.0906300006245,4.0,1.0,phase_3,,,,,195.0,5.0,78.0,156.0,234.0,195.0,117.0,39.0,white,flipped triangle
0.0,3.0,2.0,0.0,7.0,6.0,249.7740620001423,4.0,1.0,phase_3,,,,,196.0,4.0,49.0,245.0,147.0,98.0,294.0,196.0,blue,circle
0.0,8.0,4.0,1.0,7.0,2.0,885.7038790001752,4.0,1.0,phase_3,,,,,294.0,6.0,49.0,294.0,98.0,147.0,245.0,196.0,yellow,square
0.0,7.0,2.0,1.0,7.0,1.0,355.5874730000141,4.0,1.0,phase_3,,,,,204.0,6.0,204.0,170.0,68.0,102.0,34.0,136.0,green,diamond
0.0,6.0,1.0,1.0,7.0,5.0,965.67309799957,4.0,1.0,phase_3,,,,,204.0,6.0,34.0,170.0,102.0,68.0,204.0,136.0,orange,triangle
