raw_reward_magnitude,stim_reward,stepwise_reward_magnitude,paired_with_stopping,stim_location,response,reaction_time,block,num_trial_presentations,which_phase,stop_signal_trial_type,left_SSD,right_SSD,accuracy,chosen_bidding_amount,chosen_bidding_level,possible_bid_1,possible_bid_2,possible_bid_3,possible_bid_4,possible_bid_5,possible_bid_6,color_text,shape_text
379.0,4.0,4.0,0.0,1.0,1.0,374.2415819997404,1.0,1.0,phase_1,,,,,,,,,,,,,magenta,I
0.0,1.0,0.0,0.0,4.0,4.0,452.3581069997817,1.0,1.0,phase_1,,,,,,,,,,,,,green,flipped triangle
388.0,4.0,4.0,0.0,3.0,3.0,368.6449919996448,1.0,1.0,phase_1,,,,,,,,,,,,,magenta,I
0.0,7.0,0.0,1.0,4.0,4.0,313.4345709995614,1.0,1.0,phase_1,,,,,,,,,,,,,white,circle
0.0,5.0,0.0,1.0,4.0,4.0,381.9149720002315,1.0,1.0,phase_1,,,,,,,,,,,,,orange,square
207.0,7.0,2.0,1.0,2.0,2.0,340.3034069997375,1.0,1.0,phase_1,,,,,,,,,,,,,white,circle
201.0,7.0,2.0,1.0,2.0,2.0,384.7258089999741,1.0,1.0,phase_1,,,,,,,,,,,,,white,circle
178.0,7.0,2.0,1.0,1.0,1.0,384.4150069999159,1.0,1.0,phase_1,,,,,,,,,,,,,white,circle
109.0,2.0,1.0,0.0,2.0,2.0,332.3925039994719,1.0,1.0,phase_1,,,,,,,,,,,,,gray,hexagon
82.0,2.0,1.0,0.0,3.0,3.0,357.9563499997675,1.0,1.0,phase_1,,,,,,,,,,,,,gray,hexagon
407.0,4.0,4.0,0.0,1.0,1.0,311.9336190002286,1.0,1.0,phase_1,,,,,,,,,,,,,magenta,I
0.0,3.0,0.0,0.0,3.0,3.0,356.1714780007605,1.0,1.0,phase_1,,,,,,,,,,,,,cyan,cross
66.0,1.0,0.5,0.0,3.0,3.0,375.5128980001245,1.0,1.0,phase_1,,,,,,,,,,,,,green,flipped triangle
0.0,8.0,0.0,1.0,2.0,2.0,330.8768509996298,1.0,1.0,phase_1,,,,,,,,,,,,,yellow,diamond
224.0,7.0,2.0,1.0,2.0,2.0,376.7732730002535,1.0,1.0,phase_1,,,,,,,,,,,,,white,circle
0.0,2.0,0.0,0.0,2.0,2.0,391.6053810007724,1.0,1.0,phase_1,,,,,,,,,,,,,gray,hexagon
198.0,3.0,2.0,0.0,4.0,4.0,329.3154170005437,1.0,1.0,phase_1,,,,,,,,,,,,,cyan,cross
202.0,3.0,2.0,0.0,4.0,4.0,379.2027540002891,1.0,1.0,phase_1,,,,,,,,,,,,,cyan,cross
421.0,4.0,4.0,0.0,2.0,2.0,365.736052000102,1.0,1.0,phase_1,,,,,,,,,,,,,magenta,I
28.0,5.0,0.5,1.0,1.0,1.0,303.8220859998546,1.0,1.0,phase_1,,,,,,,,,,,,,orange,square
62.0,1.0,0.5,0.0,2.0,2.0,349.8995629997807,1.0,1.0,phase_1,,,,,,,,,,,,,green,flipped triangle
224.0,3.0,2.0,0.0,1.0,1.0,387.8404360002605,1.0,2.0,phase_1,,,,,,,,,,,,,cyan,cross
76.0,6.0,1.0,1.0,1.0,1.0,352.8349079997497,1.0,1.0,phase_1,,,,,,,,,,,,,blue,triangle
416.0,4.0,4.0,0.0,2.0,2.0,365.158380000139,1.0,1.0,phase_1,,,,,,,,,,,,,magenta,I
379.0,4.0,4.0,0.0,2.0,2.0,332.1476099999927,1.0,1.0,phase_1,,,,,,,,,,,,,magenta,I
48.0,1.0,0.5,0.0,2.0,2.0,303.7817269996594,1.0,1.0,phase_1,,,,,,,,,,,,,green,flipped triangle
202.0,7.0,2.0,1.0,2.0,2.0,360.7182519999696,1.0,1.0,phase_1,,,,,,,,,,,,,white,circle
114.0,2.0,1.0,0.0,1.0,1.0,409.9582629996803,1.0,1.0,phase_1,,,,,,,,,,,,,gray,hexagon
111.0,2.0,1.0,0.0,3.0,3.0,433.9424429999781,1.0,1.0,phase_1,,,,,,,,,,,,,gray,hexagon
109.0,2.0,1.0,0.0,3.0,3.0,368.8903370002663,1.0,1.0,phase_1,,,,,,,,,,,,,gray,hexagon
62.0,5.0,0.5,1.0,4.0,4.0,435.0029110000832,1.0,1.0,phase_1,,,,,,,,,,,,,orange,square
0.0,8.0,0.0,1.0,4.0,4.0,441.2688579996029,1.0,1.0,phase_1,,,,,,,,,,,,,yellow,diamond
178.0,3.0,2.0,0.0,1.0,1.0,354.6130550002999,1.0,1.0,phase_1,,,,,,,,,,,,,cyan,cross
104.0,6.0,1.0,1.0,3.0,3.0,389.0298779997465,1.0,1.0,phase_1,,,,,,,,,,,,,blue,triangle
189.0,3.0,2.0,0.0,4.0,4.0,327.5058059998628,1.0,1.0,phase_1,,,,,,,,,,,,,cyan,cross
216.0,3.0,2.0,0.0,2.0,2.0,310.6596509996961,1.0,1.0,phase_1,,,,,,,,,,,,,cyan,cross
99.0,6.0,1.0,1.0,4.0,4.0,473.7228980002328,1.0,1.0,phase_1,,,,,,,,,,,,,blue,triangle
0.0,8.0,0.0,1.0,1.0,1.0,346.1451830007718,1.0,1.0,phase_1,,,,,,,,,,,,,yellow,diamond
86.0,2.0,1.0,0.0,2.0,2.0,308.508604999588,1.0,1.0,phase_1,,,,,,,,,,,,,gray,hexagon
30.0,1.0,0.5,0.0,1.0,1.0,314.8830540003473,1.0,1.0,phase_1,,,,,,,,,,,,,green,flipped triangle
0.0,3.0,0.0,0.0,2.0,2.0,409.1520309993939,1.0,1.0,phase_1,,,,,,,,,,,,,cyan,cross
115.0,2.0,1.0,0.0,2.0,2.0,425.0796550004452,1.0,1.0,phase_1,,,,,,,,,,,,,gray,hexagon
41.0,1.0,0.5,0.0,3.0,3.0,408.1436220003525,1.0,1.0,phase_1,,,,,,,,,,,,,green,flipped triangle
0.0,1.0,0.0,0.0,2.0,2.0,375.4020269998364,1.0,1.0,phase_1,,,,,,,,,,,,,green,flipped triangle
64.0,5.0,0.5,1.0,3.0,3.0,450.0301079997371,1.0,1.0,phase_1,,,,,,,,,,,,,orange,square
41.0,5.0,0.5,1.0,1.0,1.0,313.2070860001477,1.0,1.0,phase_1,,,,,,,,,,,,,orange,square
50.0,5.0,0.5,1.0,4.0,4.0,385.3194129997064,1.0,1.0,phase_1,,,,,,,,,,,,,orange,square
30.0,5.0,0.5,1.0,3.0,3.0,368.7670939998497,1.0,1.0,phase_1,,,,,,,,,,,,,orange,square
393.0,8.0,4.0,1.0,3.0,3.0,366.5816729999278,1.0,1.0,phase_1,,,,,,,,,,,,,yellow,diamond
34.0,1.0,0.5,0.0,4.0,4.0,365.48635500003,1.0,1.0,phase_1,,,,,,,,,,,,,green,flipped triangle
70.0,5.0,0.5,1.0,3.0,3.0,367.325289999826,1.0,1.0,phase_1,,,,,,,,,,,,,orange,square
0.0,1.0,0.0,0.0,4.0,4.0,372.001318999537,1.0,1.0,phase_1,,,,,,,,,,,,,green,flipped triangle
40.0,5.0,0.5,1.0,3.0,3.0,317.2502729994448,1.0,1.0,phase_1,,,,,,,,,,,,,orange,square
405.0,8.0,4.0,1.0,2.0,2.0,346.6564159998597,1.0,1.0,phase_1,,,,,,,,,,,,,yellow,diamond
121.0,2.0,1.0,0.0,1.0,1.0,334.8568660003366,1.0,1.0,phase_1,,,,,,,,,,,,,gray,hexagon
99.0,6.0,1.0,1.0,1.0,1.0,467.4713579997842,1.0,1.0,phase_1,,,,,,,,,,,,,blue,triangle
50.0,1.0,0.5,0.0,4.0,4.0,394.5922849998169,1.0,1.0,phase_1,,,,,,,,,,,,,green,flipped triangle
404.0,8.0,4.0,1.0,1.0,1.0,382.99730000017,1.0,1.0,phase_1,,,,,,,,,,,,,yellow,diamond
224.0,3.0,2.0,0.0,4.0,4.0,407.9530090002663,1.0,1.0,phase_1,,,,,,,,,,,,,cyan,cross
179.0,3.0,2.0,0.0,2.0,2.0,574.1588780001621,1.0,1.0,phase_1,,,,,,,,,,,,,cyan,cross
80.0,6.0,1.0,1.0,4.0,4.0,368.2715730001291,1.0,1.0,phase_1,,,,,,,,,,,,,blue,triangle
183.0,7.0,2.0,1.0,2.0,2.0,331.8924149998565,1.0,1.0,phase_1,,,,,,,,,,,,,white,circle
35.0,1.0,0.5,0.0,3.0,3.0,378.9801180000722,1.0,1.0,phase_1,,,,,,,,,,,,,green,flipped triangle
392.0,8.0,4.0,1.0,3.0,3.0,425.7099830001607,1.0,1.0,phase_1,,,,,,,,,,,,,yellow,diamond
0.0,7.0,0.0,1.0,3.0,3.0,440.3720800000883,1.0,1.0,phase_1,,,,,,,,,,,,,white,circle
94.0,6.0,1.0,1.0,4.0,4.0,395.624855999813,1.0,1.0,phase_1,,,,,,,,,,,,,blue,triangle
184.0,7.0,2.0,1.0,1.0,1.0,385.2794029999131,1.0,1.0,phase_1,,,,,,,,,,,,,white,circle
111.0,6.0,1.0,1.0,3.0,3.0,354.6142840004904,1.0,1.0,phase_1,,,,,,,,,,,,,blue,triangle
410.0,4.0,4.0,0.0,3.0,3.0,399.8166199999104,1.0,1.0,phase_1,,,,,,,,,,,,,magenta,I
405.0,8.0,4.0,1.0,4.0,4.0,480.851100000109,1.0,1.0,phase_1,,,,,,,,,,,,,yellow,diamond
0.0,8.0,0.0,1.0,3.0,3.0,433.6031530001492,1.0,1.0,phase_1,,,,,,,,,,,,,yellow,diamond
114.0,2.0,1.0,0.0,1.0,1.0,452.9286919996593,1.0,1.0,phase_1,,,,,,,,,,,,,gray,hexagon
0.0,5.0,0.0,1.0,3.0,3.0,445.651235000696,1.0,1.0,phase_1,,,,,,,,,,,,,orange,square
0.0,7.0,0.0,1.0,4.0,4.0,441.1612769999919,1.0,1.0,phase_1,,,,,,,,,,,,,white,circle
217.0,7.0,2.0,1.0,4.0,4.0,427.4520360004317,1.0,1.0,phase_1,,,,,,,,,,,,,white,circle
189.0,3.0,2.0,0.0,1.0,1.0,422.7279309998266,1.0,1.0,phase_1,,,,,,,,,,,,,cyan,cross
195.0,3.0,2.0,0.0,2.0,2.0,405.9393420002379,1.0,1.0,phase_1,,,,,,,,,,,,,cyan,cross
377.0,4.0,4.0,0.0,1.0,1.0,514.3228400002045,1.0,1.0,phase_1,,,,,,,,,,,,,magenta,I
181.0,3.0,2.0,0.0,1.0,1.0,353.4405860000333,1.0,1.0,phase_1,,,,,,,,,,,,,cyan,cross
0.0,2.0,0.0,0.0,2.0,2.0,331.1836530001528,1.0,1.0,phase_1,,,,,,,,,,,,,gray,hexagon
0.0,3.0,0.0,0.0,3.0,3.0,373.7440069999138,1.0,1.0,phase_1,,,,,,,,,,,,,cyan,cross
0.0,4.0,0.0,0.0,3.0,3.0,441.4882049995867,1.0,1.0,phase_1,,,,,,,,,,,,,magenta,I
104.0,6.0,1.0,1.0,3.0,3.0,370.5243269996572,1.0,1.0,phase_1,,,,,,,,,,,,,blue,triangle
417.0,4.0,4.0,0.0,4.0,4.0,480.1867979995222,1.0,1.0,phase_1,,,,,,,,,,,,,magenta,I
0.0,8.0,0.0,1.0,3.0,3.0,422.85695100054,1.0,1.0,phase_1,,,,,,,,,,,,,yellow,diamond
76.0,2.0,1.0,0.0,2.0,2.0,416.6257610004322,1.0,1.0,phase_1,,,,,,,,,,,,,gray,hexagon
121.0,6.0,1.0,1.0,2.0,2.0,405.2575620007701,1.0,1.0,phase_1,,,,,,,,,,,,,blue,triangle
65.0,1.0,0.5,0.0,1.0,1.0,430.5147750001197,1.0,1.0,phase_1,,,,,,,,,,,,,green,flipped triangle
68.0,5.0,0.5,1.0,1.0,1.0,383.1662369993864,1.0,1.0,phase_1,,,,,,,,,,,,,orange,square
0.0,7.0,0.0,1.0,3.0,3.0,378.0678260000059,1.0,1.0,phase_1,,,,,,,,,,,,,white,circle
376.0,8.0,4.0,1.0,4.0,4.0,370.4856820004352,1.0,1.0,phase_1,,,,,,,,,,,,,yellow,diamond
41.0,5.0,0.5,1.0,1.0,1.0,397.5565050004661,1.0,1.0,phase_1,,,,,,,,,,,,,orange,square
0.0,1.0,0.0,0.0,1.0,1.0,457.5002050005423,1.0,1.0,phase_1,,,,,,,,,,,,,green,flipped triangle
113.0,2.0,1.0,0.0,4.0,4.0,382.1973630001594,1.0,1.0,phase_1,,,,,,,,,,,,,gray,hexagon
190.0,3.0,2.0,0.0,2.0,2.0,301.7206670001542,1.0,1.0,phase_1,,,,,,,,,,,,,cyan,cross
47.0,5.0,0.5,1.0,2.0,2.0,392.5508459997218,1.0,1.0,phase_1,,,,,,,,,,,,,orange,square
44.0,1.0,0.5,0.0,1.0,1.0,346.9234139993205,1.0,1.0,phase_1,,,,,,,,,,,,,green,flipped triangle
211.0,7.0,2.0,1.0,4.0,4.0,398.6322769997059,1.0,1.0,phase_1,,,,,,,,,,,,,white,circle
40.0,5.0,0.5,1.0,4.0,4.0,384.4933680002214,1.0,1.0,phase_1,,,,,,,,,,,,,orange,square
417.0,8.0,4.0,1.0,3.0,3.0,394.0077480001491,1.0,1.0,phase_1,,,,,,,,,,,,,yellow,diamond
40.0,1.0,0.5,0.0,1.0,1.0,381.1113969995858,2.0,1.0,phase_1,,,,,,,,,,,,,green,flipped triangle
0.0,5.0,0.0,1.0,1.0,1.0,371.6846460001761,2.0,1.0,phase_1,,,,,,,,,,,,,orange,square
393.0,4.0,4.0,0.0,2.0,2.0,354.8091020002175,2.0,1.0,phase_1,,,,,,,,,,,,,magenta,I
210.0,7.0,2.0,1.0,1.0,1.0,346.0968610006603,2.0,1.0,phase_1,,,,,,,,,,,,,white,circle
423.0,8.0,4.0,1.0,2.0,2.0,287.0066699997551,2.0,1.0,phase_1,,,,,,,,,,,,,yellow,diamond
0.0,4.0,0.0,0.0,3.0,3.0,465.0467230003414,2.0,2.0,phase_1,,,,,,,,,,,,,magenta,I
396.0,4.0,4.0,0.0,1.0,1.0,337.6906229996166,2.0,1.0,phase_1,,,,,,,,,,,,,magenta,I
68.0,5.0,0.5,1.0,2.0,2.0,363.8895690000936,2.0,1.0,phase_1,,,,,,,,,,,,,orange,square
110.0,6.0,1.0,1.0,1.0,1.0,381.615862000217,2.0,1.0,phase_1,,,,,,,,,,,,,blue,triangle
61.0,5.0,0.5,1.0,2.0,2.0,310.1333029999296,2.0,1.0,phase_1,,,,,,,,,,,,,orange,square
0.0,8.0,0.0,1.0,2.0,2.0,447.0753890000196,2.0,1.0,phase_1,,,,,,,,,,,,,yellow,diamond
0.0,2.0,0.0,0.0,1.0,1.0,394.723268999769,2.0,1.0,phase_1,,,,,,,,,,,,,gray,hexagon
107.0,6.0,1.0,1.0,2.0,2.0,377.4693640007172,2.0,1.0,phase_1,,,,,,,,,,,,,blue,triangle
96.0,6.0,1.0,1.0,4.0,4.0,340.5470729994704,2.0,1.0,phase_1,,,,,,,,,,,,,blue,triangle
115.0,6.0,1.0,1.0,1.0,1.0,342.4700960003974,2.0,1.0,phase_1,,,,,,,,,,,,,blue,triangle
51.0,5.0,0.5,1.0,3.0,3.0,325.5184050003663,2.0,1.0,phase_1,,,,,,,,,,,,,orange,square
117.0,6.0,1.0,1.0,4.0,4.0,368.8162950002152,2.0,1.0,phase_1,,,,,,,,,,,,,blue,triangle
0.0,1.0,0.0,0.0,1.0,1.0,305.953698999474,2.0,1.0,phase_1,,,,,,,,,,,,,green,flipped triangle
203.0,3.0,2.0,0.0,3.0,3.0,386.5843280000263,2.0,1.0,phase_1,,,,,,,,,,,,,cyan,cross
84.0,6.0,1.0,1.0,2.0,2.0,304.4200060003277,2.0,1.0,phase_1,,,,,,,,,,,,,blue,triangle
219.0,3.0,2.0,0.0,2.0,2.0,400.2833060003468,2.0,1.0,phase_1,,,,,,,,,,,,,cyan,cross
189.0,7.0,2.0,1.0,3.0,3.0,371.0773289994904,2.0,1.0,phase_1,,,,,,,,,,,,,white,circle
211.0,3.0,2.0,0.0,3.0,3.0,422.0690289994309,2.0,1.0,phase_1,,,,,,,,,,,,,cyan,cross
0.0,6.0,0.0,1.0,2.0,2.0,503.1354749999082,2.0,1.0,phase_1,,,,,,,,,,,,,blue,triangle
0.0,4.0,0.0,0.0,1.0,1.0,405.6564869997601,2.0,1.0,phase_1,,,,,,,,,,,,,magenta,I
0.0,5.0,0.0,1.0,3.0,3.0,391.6749390000404,2.0,1.0,phase_1,,,,,,,,,,,,,orange,square
67.0,1.0,0.5,0.0,2.0,2.0,332.4825339996096,2.0,1.0,phase_1,,,,,,,,,,,,,green,flipped triangle
0.0,1.0,0.0,0.0,3.0,3.0,332.5846830002774,2.0,1.0,phase_1,,,,,,,,,,,,,green,flipped triangle
90.0,6.0,1.0,1.0,1.0,1.0,296.9988549994014,2.0,1.0,phase_1,,,,,,,,,,,,,blue,triangle
103.0,6.0,1.0,1.0,4.0,4.0,344.0087250000943,2.0,1.0,phase_1,,,,,,,,,,,,,blue,triangle
405.0,4.0,4.0,0.0,4.0,4.0,366.6822900004263,2.0,1.0,phase_1,,,,,,,,,,,,,magenta,I
91.0,6.0,1.0,1.0,2.0,2.0,390.9633200000826,2.0,1.0,phase_1,,,,,,,,,,,,,blue,triangle
398.0,4.0,4.0,0.0,3.0,3.0,318.156550999447,2.0,1.0,phase_1,,,,,,,,,,,,,magenta,I
225.0,7.0,2.0,1.0,1.0,1.0,325.1487080005972,2.0,1.0,phase_1,,,,,,,,,,,,,white,circle
85.0,2.0,1.0,0.0,3.0,3.0,346.0659829997894,2.0,1.0,phase_1,,,,,,,,,,,,,gray,hexagon
114.0,6.0,1.0,1.0,2.0,2.0,382.4786010000025,2.0,1.0,phase_1,,,,,,,,,,,,,blue,triangle
94.0,2.0,1.0,0.0,1.0,1.0,372.3676370000248,2.0,1.0,phase_1,,,,,,,,,,,,,gray,hexagon
207.0,3.0,2.0,0.0,2.0,2.0,407.2295640007723,2.0,1.0,phase_1,,,,,,,,,,,,,cyan,cross
86.0,6.0,1.0,1.0,1.0,1.0,391.4271969997571,2.0,1.0,phase_1,,,,,,,,,,,,,blue,triangle
219.0,7.0,2.0,1.0,2.0,2.0,401.2235439995493,2.0,1.0,phase_1,,,,,,,,,,,,,white,circle
195.0,7.0,2.0,1.0,4.0,4.0,314.909183999589,2.0,1.0,phase_1,,,,,,,,,,,,,white,circle
400.0,8.0,4.0,1.0,3.0,3.0,417.7789350005696,2.0,1.0,phase_1,,,,,,,,,,,,,yellow,diamond
187.0,7.0,2.0,1.0,3.0,3.0,391.5758969997114,2.0,1.0,phase_1,,,,,,,,,,,,,white,circle
188.0,7.0,2.0,1.0,3.0,3.0,403.2414740004242,2.0,1.0,phase_1,,,,,,,,,,,,,white,circle
89.0,2.0,1.0,0.0,1.0,1.0,366.2004799998613,2.0,1.0,phase_1,,,,,,,,,,,,,gray,hexagon
84.0,6.0,1.0,1.0,1.0,1.0,434.1266169994924,2.0,1.0,phase_1,,,,,,,,,,,,,blue,triangle
379.0,8.0,4.0,1.0,1.0,1.0,369.7377109992885,2.0,1.0,phase_1,,,,,,,,,,,,,yellow,diamond
115.0,2.0,1.0,0.0,3.0,3.0,345.6973969996397,2.0,1.0,phase_1,,,,,,,,,,,,,gray,hexagon
0.0,2.0,0.0,0.0,1.0,1.0,359.1038360000311,2.0,1.0,phase_1,,,,,,,,,,,,,gray,hexagon
0.0,6.0,0.0,1.0,4.0,4.0,355.6181550002293,2.0,1.0,phase_1,,,,,,,,,,,,,blue,triangle
56.0,1.0,0.5,0.0,2.0,2.0,333.1949690000328,2.0,1.0,phase_1,,,,,,,,,,,,,green,flipped triangle
0.0,5.0,0.0,1.0,3.0,3.0,388.4183899999698,2.0,1.0,phase_1,,,,,,,,,,,,,orange,square
425.0,4.0,4.0,0.0,4.0,4.0,587.2279880004498,2.0,1.0,phase_1,,,,,,,,,,,,,magenta,I
47.0,1.0,0.5,0.0,3.0,3.0,414.2222359996594,2.0,1.0,phase_1,,,,,,,,,,,,,green,flipped triangle
83.0,6.0,1.0,1.0,3.0,3.0,401.1130950002552,2.0,1.0,phase_1,,,,,,,,,,,,,blue,triangle
46.0,5.0,0.5,1.0,1.0,1.0,471.0905350002576,2.0,1.0,phase_1,,,,,,,,,,,,,orange,square
43.0,1.0,0.5,0.0,2.0,2.0,342.9300189991409,2.0,1.0,phase_1,,,,,,,,,,,,,green,flipped triangle
115.0,6.0,1.0,1.0,3.0,3.0,342.5180089998321,2.0,1.0,phase_1,,,,,,,,,,,,,blue,triangle
0.0,3.0,0.0,0.0,3.0,3.0,426.7149639999843,2.0,1.0,phase_1,,,,,,,,,,,,,cyan,cross
0.0,6.0,0.0,1.0,3.0,3.0,393.2715159999134,2.0,1.0,phase_1,,,,,,,,,,,,,blue,triangle
56.0,5.0,0.5,1.0,3.0,3.0,377.3635190000277,2.0,1.0,phase_1,,,,,,,,,,,,,orange,square
63.0,5.0,0.5,1.0,2.0,2.0,363.5878260001846,2.0,1.0,phase_1,,,,,,,,,,,,,orange,square
99.0,2.0,1.0,0.0,2.0,2.0,412.2796559995549,2.0,1.0,phase_1,,,,,,,,,,,,,gray,hexagon
0.0,2.0,0.0,0.0,3.0,3.0,407.8929100005553,2.0,1.0,phase_1,,,,,,,,,,,,,gray,hexagon
46.0,1.0,0.5,0.0,4.0,4.0,420.4898129992216,2.0,1.0,phase_1,,,,,,,,,,,,,green,flipped triangle
67.0,5.0,0.5,1.0,2.0,2.0,391.535209999347,2.0,1.0,phase_1,,,,,,,,,,,,,orange,square
119.0,6.0,1.0,1.0,4.0,4.0,375.1074199999493,2.0,1.0,phase_1,,,,,,,,,,,,,blue,triangle
103.0,2.0,1.0,0.0,1.0,1.0,328.454929000145,2.0,1.0,phase_1,,,,,,,,,,,,,gray,hexagon
379.0,8.0,4.0,1.0,2.0,2.0,367.0700000002398,2.0,1.0,phase_1,,,,,,,,,,,,,yellow,diamond
63.0,1.0,0.5,0.0,4.0,4.0,435.035833999791,2.0,1.0,phase_1,,,,,,,,,,,,,green,flipped triangle
0.0,6.0,0.0,1.0,1.0,1.0,369.0748200006055,2.0,1.0,phase_1,,,,,,,,,,,,,blue,triangle
400.0,8.0,4.0,1.0,4.0,4.0,451.4935130000594,2.0,1.0,phase_1,,,,,,,,,,,,,yellow,diamond
214.0,7.0,2.0,1.0,4.0,4.0,430.9382890005508,2.0,1.0,phase_1,,,,,,,,,,,,,white,circle
99.0,6.0,1.0,1.0,1.0,1.0,405.0894770007289,2.0,1.0,phase_1,,,,,,,,,,,,,blue,triangle
96.0,2.0,1.0,0.0,3.0,3.0,501.3893459999963,2.0,1.0,phase_1,,,,,,,,,,,,,gray,hexagon
195.0,3.0,2.0,0.0,3.0,3.0,432.3054030001003,2.0,1.0,phase_1,,,,,,,,,,,,,cyan,cross
384.0,4.0,4.0,0.0,1.0,1.0,334.3919760000062,2.0,1.0,phase_1,,,,,,,,,,,,,magenta,I
204.0,7.0,2.0,1.0,1.0,1.0,468.4106700005941,2.0,1.0,phase_1,,,,,,,,,,,,,white,circle
392.0,4.0,4.0,0.0,1.0,1.0,392.5856599998951,2.0,1.0,phase_1,,,,,,,,,,,,,magenta,I
0.0,3.0,0.0,0.0,3.0,3.0,377.7412689996708,2.0,1.0,phase_1,,,,,,,,,,,,,cyan,cross
0.0,6.0,0.0,1.0,1.0,1.0,335.9951889997319,2.0,1.0,phase_1,,,,,,,,,,,,,blue,triangle
114.0,6.0,1.0,1.0,2.0,2.0,398.9702279995981,2.0,1.0,phase_1,,,,,,,,,,,,,blue,triangle
107.0,6.0,1.0,1.0,3.0,3.0,539.6558450001976,2.0,1.0,phase_1,,,,,,,,,,,,,blue,triangle
393.0,4.0,4.0,0.0,4.0,4.0,479.619716000343,2.0,1.0,phase_1,,,,,,,,,,,,,magenta,I
0.0,6.0,0.0,1.0,3.0,3.0,469.8596979997091,2.0,1.0,phase_1,,,,,,,,,,,,,blue,triangle
0.0,4.0,0.0,0.0,2.0,2.0,349.225292000483,2.0,1.0,phase_1,,,,,,,,,,,,,magenta,I
70.0,5.0,0.5,1.0,1.0,1.0,342.5876779992904,2.0,1.0,phase_1,,,,,,,,,,,,,orange,square
178.0,3.0,2.0,0.0,1.0,1.0,437.7091819997076,2.0,1.0,phase_1,,,,,,,,,,,,,cyan,cross
221.0,7.0,2.0,1.0,1.0,1.0,349.8497090004093,2.0,1.0,phase_1,,,,,,,,,,,,,white,circle
416.0,4.0,4.0,0.0,3.0,3.0,423.2366120004371,2.0,1.0,phase_1,,,,,,,,,,,,,magenta,I
213.0,7.0,2.0,1.0,3.0,3.0,367.1459200004392,2.0,1.0,phase_1,,,,,,,,,,,,,white,circle
36.0,5.0,0.5,1.0,2.0,2.0,455.9196059999522,2.0,1.0,phase_1,,,,,,,,,,,,,orange,square
213.0,3.0,2.0,0.0,3.0,3.0,377.9420939999909,2.0,1.0,phase_1,,,,,,,,,,,,,cyan,cross
384.0,8.0,4.0,1.0,4.0,4.0,479.1035730004296,2.0,1.0,phase_1,,,,,,,,,,,,,yellow,diamond
0.0,6.0,0.0,1.0,1.0,1.0,348.4330870005578,2.0,1.0,phase_1,,,,,,,,,,,,,blue,triangle
37.0,1.0,0.5,0.0,1.0,1.0,396.6821739995794,2.0,1.0,phase_1,,,,,,,,,,,,,green,flipped triangle
35.0,5.0,0.5,1.0,3.0,3.0,369.9036170000909,2.0,1.0,phase_1,,,,,,,,,,,,,orange,square
58.0,5.0,0.5,1.0,2.0,2.0,386.3095659999089,2.0,1.0,phase_1,,,,,,,,,,,,,orange,square
56.0,1.0,0.5,0.0,4.0,4.0,381.3773430001674,2.0,1.0,phase_1,,,,,,,,,,,,,green,flipped triangle
105.0,2.0,1.0,0.0,2.0,2.0,470.0272689997291,2.0,1.0,phase_1,,,,,,,,,,,,,gray,hexagon
55.0,5.0,0.5,1.0,1.0,1.0,319.4519600001513,3.0,1.0,phase_1,,,,,,,,,,,,,orange,square
64.0,1.0,0.5,0.0,4.0,4.0,341.5431940002236,3.0,1.0,phase_1,,,,,,,,,,,,,green,flipped triangle
0.0,5.0,0.0,1.0,3.0,3.0,434.233691999907,3.0,1.0,phase_1,,,,,,,,,,,,,orange,square
204.0,3.0,2.0,0.0,4.0,4.0,357.2927360000903,3.0,1.0,phase_1,,,,,,,,,,,,,cyan,cross
85.0,6.0,1.0,1.0,4.0,4.0,366.7134000006626,3.0,1.0,phase_1,,,,,,,,,,,,,blue,triangle
0.0,1.0,0.0,0.0,2.0,2.0,319.3819510006506,3.0,1.0,phase_1,,,,,,,,,,,,,green,flipped triangle
190.0,7.0,2.0,1.0,4.0,4.0,336.4257319999524,3.0,1.0,phase_1,,,,,,,,,,,,,white,circle
0.0,3.0,0.0,0.0,2.0,2.0,322.1309330001531,3.0,1.0,phase_1,,,,,,,,,,,,,cyan,cross
33.0,1.0,0.5,0.0,1.0,1.0,393.9317650001612,3.0,1.0,phase_1,,,,,,,,,,,,,green,flipped triangle
405.0,4.0,4.0,0.0,2.0,2.0,316.7053779998241,3.0,1.0,phase_1,,,,,,,,,,,,,magenta,I
419.0,4.0,4.0,0.0,3.0,3.0,343.2135419998303,3.0,1.0,phase_1,,,,,,,,,,,,,magenta,I
0.0,3.0,0.0,0.0,2.0,2.0,353.1499230002737,3.0,1.0,phase_1,,,,,,,,,,,,,cyan,cross
0.0,2.0,0.0,0.0,2.0,2.0,450.0999570000203,3.0,1.0,phase_1,,,,,,,,,,,,,gray,hexagon
82.0,6.0,1.0,1.0,1.0,1.0,350.349450000067,3.0,1.0,phase_1,,,,,,,,,,,,,blue,triangle
398.0,8.0,4.0,1.0,1.0,1.0,350.7430460003888,3.0,1.0,phase_1,,,,,,,,,,,,,yellow,diamond
416.0,8.0,4.0,1.0,3.0,3.0,394.0656750000926,3.0,1.0,phase_1,,,,,,,,,,,,,yellow,diamond
0.0,7.0,0.0,1.0,4.0,4.0,512.5434609999502,3.0,1.0,phase_1,,,,,,,,,,,,,white,circle
0.0,4.0,0.0,0.0,2.0,2.0,311.8892089996734,3.0,1.0,phase_1,,,,,,,,,,,,,magenta,I
110.0,2.0,1.0,0.0,2.0,2.0,393.8024959998074,3.0,1.0,phase_1,,,,,,,,,,,,,gray,hexagon
396.0,8.0,4.0,1.0,1.0,1.0,318.7925499996709,3.0,1.0,phase_1,,,,,,,,,,,,,yellow,diamond
78.0,2.0,1.0,0.0,4.0,4.0,405.7483149999825,3.0,1.0,phase_1,,,,,,,,,,,,,gray,hexagon
398.0,8.0,4.0,1.0,1.0,1.0,338.7910310002553,3.0,1.0,phase_1,,,,,,,,,,,,,yellow,diamond
83.0,2.0,1.0,0.0,1.0,1.0,421.6808030005268,3.0,1.0,phase_1,,,,,,,,,,,,,gray,hexagon
0.0,5.0,0.0,1.0,3.0,3.0,403.1315570000515,3.0,1.0,phase_1,,,,,,,,,,,,,orange,square
388.0,8.0,4.0,1.0,1.0,1.0,350.5004810003811,3.0,1.0,phase_1,,,,,,,,,,,,,yellow,diamond
80.0,2.0,1.0,0.0,4.0,4.0,423.0706250000366,3.0,1.0,phase_1,,,,,,,,,,,,,gray,hexagon
0.0,8.0,0.0,1.0,4.0,4.0,486.9781540000986,3.0,1.0,phase_1,,,,,,,,,,,,,yellow,diamond
104.0,2.0,1.0,0.0,1.0,1.0,391.8330779997632,3.0,1.0,phase_1,,,,,,,,,,,,,gray,hexagon
179.0,7.0,2.0,1.0,3.0,3.0,353.980175000288,3.0,1.0,phase_1,,,,,,,,,,,,,white,circle
376.0,4.0,4.0,0.0,2.0,2.0,423.4088660005,3.0,1.0,phase_1,,,,,,,,,,,,,magenta,I
198.0,7.0,2.0,1.0,2.0,2.0,368.2429090004007,3.0,1.0,phase_1,,,,,,,,,,,,,white,circle
194.0,3.0,2.0,0.0,3.0,3.0,412.8586870001527,3.0,1.0,phase_1,,,,,,,,,,,,,cyan,cross
0.0,7.0,0.0,1.0,4.0,4.0,532.323389999874,3.0,1.0,phase_1,,,,,,,,,,,,,white,circle
189.0,7.0,2.0,1.0,1.0,1.0,340.3773259997251,3.0,1.0,phase_1,,,,,,,,,,,,,white,circle
385.0,8.0,4.0,1.0,2.0,2.0,343.4756910000942,3.0,1.0,phase_1,,,,,,,,,,,,,yellow,diamond
194.0,7.0,2.0,1.0,4.0,4.0,359.3526140002723,3.0,1.0,phase_1,,,,,,,,,,,,,white,circle
221.0,3.0,2.0,0.0,3.0,3.0,395.2859600003648,3.0,1.0,phase_1,,,,,,,,,,,,,cyan,cross
388.0,8.0,4.0,1.0,2.0,2.0,336.3119159994312,3.0,1.0,phase_1,,,,,,,,,,,,,yellow,diamond
193.0,3.0,2.0,0.0,4.0,4.0,431.9793439999557,3.0,1.0,phase_1,,,,,,,,,,,,,cyan,cross
66.0,5.0,0.5,1.0,2.0,2.0,447.2663570004442,3.0,1.0,phase_1,,,,,,,,,,,,,orange,square
0.0,7.0,0.0,1.0,2.0,2.0,374.378403999799,3.0,1.0,phase_1,,,,,,,,,,,,,white,circle
0.0,3.0,0.0,0.0,1.0,1.0,382.2207500006698,3.0,1.0,phase_1,,,,,,,,,,,,,cyan,cross
410.0,8.0,4.0,1.0,1.0,1.0,387.9371119992356,3.0,1.0,phase_1,,,,,,,,,,,,,yellow,diamond
51.0,1.0,0.5,0.0,3.0,3.0,398.8888189996942,3.0,1.0,phase_1,,,,,,,,,,,,,green,flipped triangle
191.0,3.0,2.0,0.0,4.0,4.0,440.8948099999179,3.0,1.0,phase_1,,,,,,,,,,,,,cyan,cross
400.0,4.0,4.0,0.0,3.0,3.0,406.2722509997911,3.0,1.0,phase_1,,,,,,,,,,,,,magenta,I
76.0,2.0,1.0,0.0,3.0,3.0,385.8889700004511,3.0,1.0,phase_1,,,,,,,,,,,,,gray,hexagon
56.0,5.0,0.5,1.0,1.0,1.0,364.8916619995361,3.0,1.0,phase_1,,,,,,,,,,,,,orange,square
41.0,1.0,0.5,0.0,1.0,1.0,404.6809259998554,3.0,1.0,phase_1,,,,,,,,,,,,,green,flipped triangle
84.0,2.0,1.0,0.0,4.0,4.0,419.6074850005971,3.0,1.0,phase_1,,,,,,,,,,,,,gray,hexagon
109.0,6.0,1.0,1.0,1.0,1.0,357.2315569999773,3.0,1.0,phase_1,,,,,,,,,,,,,blue,triangle
379.0,4.0,4.0,0.0,2.0,2.0,401.0136340002646,3.0,1.0,phase_1,,,,,,,,,,,,,magenta,I
117.0,2.0,1.0,0.0,4.0,4.0,412.8081740000198,3.0,1.0,phase_1,,,,,,,,,,,,,gray,hexagon
0.0,6.0,0.0,1.0,2.0,2.0,351.5818940004465,3.0,1.0,phase_1,,,,,,,,,,,,,blue,triangle
34.0,5.0,0.5,1.0,1.0,1.0,347.3817029998827,3.0,1.0,phase_1,,,,,,,,,,,,,orange,square
182.0,3.0,2.0,0.0,1.0,1.0,360.1161169999614,3.0,1.0,phase_1,,,,,,,,,,,,,cyan,cross
33.0,5.0,0.5,1.0,4.0,4.0,510.1612569997087,3.0,1.0,phase_1,,,,,,,,,,,,,orange,square
419.0,4.0,4.0,0.0,4.0,4.0,484.2530249998162,3.0,1.0,phase_1,,,,,,,,,,,,,magenta,I
193.0,7.0,2.0,1.0,2.0,2.0,345.8201490002466,3.0,1.0,phase_1,,,,,,,,,,,,,white,circle
48.0,5.0,0.5,1.0,2.0,2.0,341.4409799997884,3.0,1.0,phase_1,,,,,,,,,,,,,orange,square
421.0,8.0,4.0,1.0,2.0,2.0,383.5832149998168,3.0,2.0,phase_1,,,,,,,,,,,,,yellow,diamond
225.0,3.0,2.0,0.0,1.0,1.0,457.8208510001786,3.0,1.0,phase_1,,,,,,,,,,,,,cyan,cross
419.0,8.0,4.0,1.0,4.0,4.0,505.92842899914103,3.0,1.0,phase_1,,,,,,,,,,,,,yellow,diamond
38.0,5.0,0.5,1.0,4.0,4.0,469.4630960002541,3.0,1.0,phase_1,,,,,,,,,,,,,orange,square
113.0,6.0,1.0,1.0,4.0,4.0,395.6075290006993,3.0,1.0,phase_1,,,,,,,,,,,,,blue,triangle
0.0,2.0,0.0,0.0,1.0,1.0,421.2028040001314,3.0,1.0,phase_1,,,,,,,,,,,,,gray,hexagon
393.0,4.0,4.0,0.0,4.0,4.0,413.6757289998058,3.0,1.0,phase_1,,,,,,,,,,,,,magenta,I
0.0,4.0,0.0,0.0,4.0,4.0,369.490541000232,3.0,1.0,phase_1,,,,,,,,,,,,,magenta,I
55.0,1.0,0.5,0.0,2.0,2.0,455.115136999666,3.0,1.0,phase_1,,,,,,,,,,,,,green,flipped triangle
421.0,4.0,4.0,0.0,2.0,2.0,395.2160189992355,3.0,1.0,phase_1,,,,,,,,,,,,,magenta,I
0.0,4.0,0.0,0.0,2.0,2.0,314.1170449998753,3.0,1.0,phase_1,,,,,,,,,,,,,magenta,I
407.0,4.0,4.0,0.0,4.0,4.0,431.8451009994533,3.0,1.0,phase_1,,,,,,,,,,,,,magenta,I
419.0,8.0,4.0,1.0,1.0,1.0,552.7011950007363,3.0,1.0,phase_1,,,,,,,,,,,,,yellow,diamond
40.0,1.0,0.5,0.0,3.0,3.0,411.8356580002,3.0,1.0,phase_1,,,,,,,,,,,,,green,flipped triangle
91.0,2.0,1.0,0.0,4.0,4.0,430.5160559997603,3.0,1.0,phase_1,,,,,,,,,,,,,gray,hexagon
405.0,8.0,4.0,1.0,4.0,4.0,463.8278219999847,3.0,1.0,phase_1,,,,,,,,,,,,,yellow,diamond
32.0,1.0,0.5,0.0,3.0,3.0,397.7685370000472,3.0,1.0,phase_1,,,,,,,,,,,,,green,flipped triangle
0.0,8.0,0.0,1.0,3.0,3.0,458.3268709993717,3.0,1.0,phase_1,,,,,,,,,,,,,yellow,diamond
47.0,1.0,0.5,0.0,2.0,2.0,367.4815300000773,3.0,1.0,phase_1,,,,,,,,,,,,,green,flipped triangle
410.0,8.0,4.0,1.0,3.0,3.0,395.4416689994104,3.0,1.0,phase_1,,,,,,,,,,,,,yellow,diamond
405.0,4.0,4.0,0.0,4.0,4.0,453.2747489993198,3.0,1.0,phase_1,,,,,,,,,,,,,magenta,I
409.0,8.0,4.0,1.0,2.0,2.0,410.0896010004362,3.0,1.0,phase_1,,,,,,,,,,,,,yellow,diamond
47.0,5.0,0.5,1.0,3.0,3.0,517.252071999792,3.0,1.0,phase_1,,,,,,,,,,,,,orange,square
203.0,7.0,2.0,1.0,4.0,4.0,450.1136230001066,3.0,1.0,phase_1,,,,,,,,,,,,,white,circle
58.0,1.0,0.5,0.0,1.0,1.0,475.0843639994855,3.0,1.0,phase_1,,,,,,,,,,,,,green,flipped triangle
181.0,7.0,2.0,1.0,1.0,1.0,379.1110430001936,3.0,1.0,phase_1,,,,,,,,,,,,,white,circle
401.0,4.0,4.0,0.0,2.0,2.0,354.5161439997173,3.0,1.0,phase_1,,,,,,,,,,,,,magenta,I
183.0,3.0,2.0,0.0,1.0,1.0,387.4818470003447,3.0,1.0,phase_1,,,,,,,,,,,,,cyan,cross
198.0,7.0,2.0,1.0,2.0,2.0,327.1007760004067,3.0,1.0,phase_1,,,,,,,,,,,,,white,circle
201.0,3.0,2.0,0.0,2.0,2.0,349.5257300000958,3.0,1.0,phase_1,,,,,,,,,,,,,cyan,cross
379.0,8.0,4.0,1.0,4.0,4.0,470.3165509999962,3.0,1.0,phase_1,,,,,,,,,,,,,yellow,diamond
44.0,5.0,0.5,1.0,4.0,4.0,410.8685900000637,3.0,1.0,phase_1,,,,,,,,,,,,,orange,square
0.0,7.0,0.0,1.0,1.0,1.0,370.262331000049,3.0,1.0,phase_1,,,,,,,,,,,,,white,circle
68.0,1.0,0.5,0.0,1.0,1.0,386.8703369998911,3.0,1.0,phase_1,,,,,,,,,,,,,green,flipped triangle
0.0,6.0,0.0,1.0,2.0,2.0,366.871901000195,3.0,1.0,phase_1,,,,,,,,,,,,,blue,triangle
216.0,7.0,2.0,1.0,4.0,4.0,483.3488960002796,3.0,2.0,phase_1,,,,,,,,,,,,,white,circle
377.0,8.0,4.0,1.0,4.0,4.0,446.3874760003818,3.0,1.0,phase_1,,,,,,,,,,,,,yellow,diamond
60.0,1.0,0.5,0.0,4.0,4.0,406.9475810001677,3.0,1.0,phase_1,,,,,,,,,,,,,green,flipped triangle
36.0,1.0,0.5,0.0,4.0,4.0,385.9086739994382,3.0,1.0,phase_1,,,,,,,,,,,,,green,flipped triangle
0.0,7.0,0.0,1.0,2.0,2.0,415.2603100001215,3.0,1.0,phase_1,,,,,,,,,,,,,white,circle
101.0,6.0,1.0,1.0,3.0,3.0,435.7768749996467,4.0,1.0,phase_1,,,,,,,,,,,,,blue,triangle
70.0,1.0,0.5,0.0,4.0,4.0,407.8234150001663,4.0,1.0,phase_1,,,,,,,,,,,,,green,flipped triangle
224.0,7.0,2.0,1.0,3.0,3.0,472.3658140001134,4.0,1.0,phase_1,,,,,,,,,,,,,white,circle
401.0,8.0,4.0,1.0,2.0,2.0,376.6498830000273,4.0,1.0,phase_1,,,,,,,,,,,,,yellow,diamond
423.0,4.0,4.0,0.0,3.0,3.0,399.1941909998786,4.0,1.0,phase_1,,,,,,,,,,,,,magenta,I
216.0,7.0,2.0,1.0,3.0,3.0,377.7753209997172,4.0,1.0,phase_1,,,,,,,,,,,,,white,circle
51.0,1.0,0.5,0.0,3.0,3.0,396.589973999653,4.0,1.0,phase_1,,,,,,,,,,,,,green,flipped triangle
398.0,4.0,4.0,0.0,1.0,1.0,403.0040829993595,4.0,1.0,phase_1,,,,,,,,,,,,,magenta,I
416.0,8.0,4.0,1.0,1.0,1.0,399.1480309996404,4.0,1.0,phase_1,,,,,,,,,,,,,yellow,diamond
78.0,6.0,1.0,1.0,2.0,2.0,345.3273659997649,4.0,1.0,phase_1,,,,,,,,,,,,,blue,triangle
179.0,7.0,2.0,1.0,2.0,2.0,386.84749299955,4.0,1.0,phase_1,,,,,,,,,,,,,white,circle
375.0,8.0,4.0,1.0,1.0,1.0,635.7498190000115,4.0,1.0,phase_1,,,,,,,,,,,,,yellow,diamond
68.0,1.0,0.5,0.0,2.0,2.0,408.213835999959,4.0,1.0,phase_1,,,,,,,,,,,,,green,flipped triangle
0.0,5.0,0.0,1.0,4.0,4.0,447.05929900010227,4.0,1.0,phase_1,,,,,,,,,,,,,orange,square
65.0,5.0,0.5,1.0,4.0,4.0,582.9835619997539,4.0,1.0,phase_1,,,,,,,,,,,,,orange,square
43.0,5.0,0.5,1.0,4.0,4.0,403.3966169999985,4.0,1.0,phase_1,,,,,,,,,,,,,orange,square
421.0,8.0,4.0,1.0,3.0,3.0,558.2220349997442,4.0,1.0,phase_1,,,,,,,,,,,,,yellow,diamond
0.0,1.0,0.0,0.0,2.0,2.0,412.2571920006521,4.0,1.0,phase_1,,,,,,,,,,,,,green,flipped triangle
0.0,1.0,0.0,0.0,1.0,1.0,354.825448000156,4.0,1.0,phase_1,,,,,,,,,,,,,green,flipped triangle
105.0,6.0,1.0,1.0,2.0,2.0,365.7772319993455,4.0,1.0,phase_1,,,,,,,,,,,,,blue,triangle
60.0,5.0,0.5,1.0,4.0,4.0,467.3976340000081,4.0,1.0,phase_1,,,,,,,,,,,,,orange,square
99.0,2.0,1.0,0.0,2.0,2.0,304.3501299998752,4.0,1.0,phase_1,,,,,,,,,,,,,gray,hexagon
216.0,3.0,2.0,0.0,3.0,3.0,371.4149890001863,4.0,1.0,phase_1,,,,,,,,,,,,,cyan,cross
57.0,5.0,0.5,1.0,1.0,1.0,350.9689060001619,4.0,1.0,phase_1,,,,,,,,,,,,,orange,square
393.0,8.0,4.0,1.0,3.0,3.0,410.8233420001852,4.0,1.0,phase_1,,,,,,,,,,,,,yellow,diamond
216.0,3.0,2.0,0.0,2.0,2.0,382.1129179996205,4.0,1.0,phase_1,,,,,,,,,,,,,cyan,cross
217.0,3.0,2.0,0.0,3.0,3.0,397.5872449991584,4.0,1.0,phase_1,,,,,,,,,,,,,cyan,cross
194.0,7.0,2.0,1.0,3.0,3.0,467.0930189995488,4.0,1.0,phase_1,,,,,,,,,,,,,white,circle
187.0,3.0,2.0,0.0,1.0,1.0,419.2748770001344,4.0,1.0,phase_1,,,,,,,,,,,,,cyan,cross
407.0,8.0,4.0,1.0,4.0,4.0,430.9965930006001,4.0,1.0,phase_1,,,,,,,,,,,,,yellow,diamond
0.0,2.0,0.0,0.0,1.0,1.0,520.801520000532,4.0,1.0,phase_1,,,,,,,,,,,,,gray,hexagon
76.0,6.0,1.0,1.0,4.0,4.0,509.0714250000019,4.0,1.0,phase_1,,,,,,,,,,,,,blue,triangle
57.0,1.0,0.5,0.0,2.0,2.0,310.3048119992309,4.0,1.0,phase_1,,,,,,,,,,,,,green,flipped triangle
216.0,7.0,2.0,1.0,1.0,1.0,380.9249290006846,4.0,1.0,phase_1,,,,,,,,,,,,,white,circle
107.0,2.0,1.0,0.0,3.0,3.0,346.3670539995291,4.0,1.0,phase_1,,,,,,,,,,,,,gray,hexagon
381.0,8.0,4.0,1.0,3.0,3.0,405.4331759998604,4.0,1.0,phase_1,,,,,,,,,,,,,yellow,diamond
32.0,5.0,0.5,1.0,2.0,2.0,378.8172049999048,4.0,1.0,phase_1,,,,,,,,,,,,,orange,square
375.0,4.0,4.0,0.0,3.0,3.0,406.1831480003093,4.0,1.0,phase_1,,,,,,,,,,,,,magenta,I
179.0,3.0,2.0,0.0,4.0,4.0,435.9913039997991,4.0,1.0,phase_1,,,,,,,,,,,,,cyan,cross
214.0,3.0,2.0,0.0,3.0,3.0,434.3189470000652,4.0,1.0,phase_1,,,,,,,,,,,,,cyan,cross
0.0,8.0,0.0,1.0,1.0,1.0,390.3695540002445,4.0,1.0,phase_1,,,,,,,,,,,,,yellow,diamond
210.0,3.0,2.0,0.0,4.0,4.0,405.3277510001862,4.0,1.0,phase_1,,,,,,,,,,,,,cyan,cross
0.0,4.0,0.0,0.0,3.0,3.0,413.1158440004583,4.0,1.0,phase_1,,,,,,,,,,,,,magenta,I
194.0,3.0,2.0,0.0,2.0,2.0,335.7584750001479,4.0,1.0,phase_1,,,,,,,,,,,,,cyan,cross
116.0,2.0,1.0,0.0,4.0,4.0,391.2286180002411,4.0,1.0,phase_1,,,,,,,,,,,,,gray,hexagon
37.0,5.0,0.5,1.0,4.0,4.0,498.8290890005373,4.0,1.0,phase_1,,,,,,,,,,,,,orange,square
195.0,7.0,2.0,1.0,3.0,3.0,370.4830249998849,4.0,1.0,phase_1,,,,,,,,,,,,,white,circle
388.0,4.0,4.0,0.0,1.0,1.0,302.066616999582,4.0,1.0,phase_1,,,,,,,,,,,,,magenta,I
61.0,1.0,0.5,0.0,4.0,4.0,365.5177399996319,4.0,1.0,phase_1,,,,,,,,,,,,,green,flipped triangle
54.0,1.0,0.5,0.0,1.0,1.0,353.2306709994373,4.0,1.0,phase_1,,,,,,,,,,,,,green,flipped triangle
410.0,4.0,4.0,0.0,3.0,3.0,419.6794879999288,4.0,1.0,phase_1,,,,,,,,,,,,,magenta,I
409.0,4.0,4.0,0.0,4.0,4.0,515.5384870004127,4.0,1.0,phase_1,,,,,,,,,,,,,magenta,I
107.0,2.0,1.0,0.0,4.0,4.0,484.0511189995595,4.0,1.0,phase_1,,,,,,,,,,,,,gray,hexagon
0.0,5.0,0.0,1.0,1.0,1.0,323.7118329998338,4.0,1.0,phase_1,,,,,,,,,,,,,orange,square
101.0,2.0,1.0,0.0,3.0,3.0,394.9320910005554,4.0,1.0,phase_1,,,,,,,,,,,,,gray,hexagon
191.0,7.0,2.0,1.0,4.0,4.0,397.7467020004042,4.0,1.0,phase_1,,,,,,,,,,,,,white,circle
0.0,3.0,0.0,0.0,3.0,3.0,421.8386590000591,4.0,1.0,phase_1,,,,,,,,,,,,,cyan,cross
188.0,3.0,2.0,0.0,1.0,1.0,330.2521400000842,4.0,1.0,phase_1,,,,,,,,,,,,,cyan,cross
90.0,2.0,1.0,0.0,1.0,1.0,417.8520750001553,4.0,1.0,phase_1,,,,,,,,,,,,,gray,hexagon
178.0,7.0,2.0,1.0,1.0,1.0,352.7178280000953,4.0,1.0,phase_1,,,,,,,,,,,,,white,circle
407.0,8.0,4.0,1.0,3.0,3.0,409.8089010003605,4.0,1.0,phase_1,,,,,,,,,,,,,yellow,diamond
381.0,4.0,4.0,0.0,2.0,2.0,364.6461799999088,4.0,1.0,phase_1,,,,,,,,,,,,,magenta,I
119.0,2.0,1.0,0.0,4.0,4.0,404.3524569997316,4.0,1.0,phase_1,,,,,,,,,,,,,gray,hexagon
99.0,2.0,1.0,0.0,4.0,4.0,495.5247600000803,4.0,1.0,phase_1,,,,,,,,,,,,,gray,hexagon
400.0,4.0,4.0,0.0,3.0,3.0,404.88532499966817,4.0,1.0,phase_1,,,,,,,,,,,,,magenta,I
198.0,3.0,2.0,0.0,4.0,4.0,408.9669570003025,4.0,1.0,phase_1,,,,,,,,,,,,,cyan,cross
391.0,4.0,4.0,0.0,1.0,1.0,376.6265809999822,4.0,1.0,phase_1,,,,,,,,,,,,,magenta,I
28.0,1.0,0.5,0.0,3.0,3.0,342.7756470000531,4.0,1.0,phase_1,,,,,,,,,,,,,green,flipped triangle
108.0,6.0,1.0,1.0,3.0,3.0,373.6416630008534,4.0,1.0,phase_1,,,,,,,,,,,,,blue,triangle
0.0,7.0,0.0,1.0,2.0,2.0,288.1712179996611,4.0,1.0,phase_1,,,,,,,,,,,,,white,circle
0.0,1.0,0.0,0.0,4.0,4.0,506.3541810004608,4.0,1.0,phase_1,,,,,,,,,,,,,green,flipped triangle
404.0,4.0,4.0,0.0,4.0,4.0,444.1809820000344,4.0,1.0,phase_1,,,,,,,,,,,,,magenta,I
0.0,3.0,0.0,0.0,3.0,3.0,357.8988279996338,4.0,1.0,phase_1,,,,,,,,,,,,,cyan,cross
0.0,5.0,0.0,1.0,3.0,3.0,373.132214999714,4.0,1.0,phase_1,,,,,,,,,,,,,orange,square
385.0,4.0,4.0,0.0,1.0,1.0,354.04587500033807,4.0,1.0,phase_1,,,,,,,,,,,,,magenta,I
104.0,2.0,1.0,0.0,1.0,1.0,440.2813779997814,4.0,1.0,phase_1,,,,,,,,,,,,,gray,hexagon
393.0,8.0,4.0,1.0,4.0,4.0,471.392296999511,4.0,1.0,phase_1,,,,,,,,,,,,,yellow,diamond
207.0,3.0,2.0,0.0,3.0,3.0,393.866121999963,4.0,1.0,phase_1,,,,,,,,,,,,,cyan,cross
182.0,7.0,2.0,1.0,4.0,4.0,441.4198019994728,4.0,1.0,phase_1,,,,,,,,,,,,,white,circle
89.0,6.0,1.0,1.0,3.0,3.0,389.2110119995777,4.0,1.0,phase_1,,,,,,,,,,,,,blue,triangle
122.0,6.0,1.0,1.0,2.0,2.0,431.9163079999271,4.0,1.0,phase_1,,,,,,,,,,,,,blue,triangle
109.0,6.0,1.0,1.0,2.0,2.0,424.2657530003271,4.0,1.0,phase_1,,,,,,,,,,,,,blue,triangle
0.0,2.0,0.0,0.0,2.0,2.0,408.0582729993693,4.0,1.0,phase_1,,,,,,,,,,,,,gray,hexagon
0.0,2.0,0.0,0.0,3.0,3.0,466.4043000002493,4.0,1.0,phase_1,,,,,,,,,,,,,gray,hexagon
0.0,8.0,0.0,1.0,1.0,1.0,386.1391039999944,4.0,1.0,phase_1,,,,,,,,,,,,,yellow,diamond
0.0,4.0,0.0,0.0,4.0,4.0,464.6211580002273,4.0,1.0,phase_1,,,,,,,,,,,,,magenta,I
0.0,4.0,0.0,0.0,3.0,3.0,424.5089700007156,4.0,1.0,phase_1,,,,,,,,,,,,,magenta,I
122.0,2.0,1.0,0.0,2.0,2.0,394.8656009997648,4.0,1.0,phase_1,,,,,,,,,,,,,gray,hexagon
51.0,5.0,0.5,1.0,3.0,3.0,395.6096179999804,4.0,1.0,phase_1,,,,,,,,,,,,,orange,square
108.0,2.0,1.0,0.0,3.0,3.0,424.2824289995042,4.0,1.0,phase_1,,,,,,,,,,,,,gray,hexagon
0.0,6.0,0.0,1.0,1.0,1.0,630.8397129996592,4.0,1.0,phase_1,,,,,,,,,,,,,blue,triangle
184.0,3.0,2.0,0.0,2.0,2.0,376.5459149999515,4.0,1.0,phase_1,,,,,,,,,,,,,cyan,cross
54.0,5.0,0.5,1.0,3.0,3.0,354.8356070004956,4.0,1.0,phase_1,,,,,,,,,,,,,orange,square
84.0,2.0,1.0,0.0,2.0,2.0,345.1315539996358,4.0,1.0,phase_1,,,,,,,,,,,,,gray,hexagon
425.0,8.0,4.0,1.0,2.0,2.0,414.6228520003205,4.0,1.0,phase_1,,,,,,,,,,,,,yellow,diamond
116.0,6.0,1.0,1.0,3.0,3.0,368.1677069998841,4.0,1.0,phase_1,,,,,,,,,,,,,blue,triangle
38.0,1.0,0.5,0.0,2.0,2.0,351.0743719998572,4.0,1.0,phase_1,,,,,,,,,,,,,green,flipped triangle
391.0,8.0,4.0,1.0,2.0,2.0,385.2001949999248,4.0,1.0,phase_1,,,,,,,,,,,,,yellow,diamond
207.0,7.0,2.0,1.0,3.0,3.0,406.1389290000079,4.0,1.0,phase_1,,,,,,,,,,,,,white,circle
70.0,1.0,0.5,0.0,3.0,3.0,439.0154669999901,4.0,1.0,phase_1,,,,,,,,,,,,,green,flipped triangle
0.0,6.0,1.0,1.0,6.0,6.0,525.7757870003843,1.0,1.0,phase_2,stop,250.0,250.0,3.0,,,,,,,,,blue,triangle
0.0,7.0,2.0,1.0,5.0,5.0,441.3220579999688,1.0,1.0,phase_2,stop,250.0,200.0,3.0,,,,,,,,,white,circle
0.0,4.0,4.0,0.0,6.0,6.0,537.8512470006171,1.0,1.0,phase_2,go,200.0,200.0,1.0,,,,,,,,,magenta,I
0.0,7.0,2.0,1.0,5.0,5.0,508.3368690002317,1.0,1.0,phase_2,go,200.0,200.0,1.0,,,,,,,,,white,circle
0.0,1.0,0.5,0.0,5.0,5.0,697.3057010000048,1.0,1.0,phase_2,go,200.0,200.0,1.0,,,,,,,,,green,flipped triangle
0.0,1.0,0.5,0.0,5.0,5.0,660.3032149996579,1.0,1.0,phase_2,go,200.0,200.0,1.0,,,,,,,,,green,flipped triangle
0.0,1.0,0.5,0.0,6.0,6.0,484.4119819999832,1.0,1.0,phase_2,go,200.0,200.0,1.0,,,,,,,,,green,flipped triangle
0.0,4.0,4.0,0.0,6.0,6.0,643.1108120004865,1.0,1.0,phase_2,go,200.0,200.0,1.0,,,,,,,,,magenta,I
0.0,5.0,0.5,1.0,5.0,0.0,0.0,1.0,1.0,phase_2,stop,200.0,200.0,4.0,,,,,,,,,orange,square
0.0,4.0,4.0,0.0,5.0,5.0,586.4958040001511,1.0,1.0,phase_2,go,250.0,200.0,1.0,,,,,,,,,magenta,I
0.0,5.0,0.5,1.0,5.0,5.0,676.2143959995228,1.0,1.0,phase_2,go,250.0,200.0,1.0,,,,,,,,,orange,square
0.0,3.0,2.0,0.0,6.0,6.0,659.2440719996375,1.0,1.0,phase_2,go,250.0,200.0,1.0,,,,,,,,,cyan,cross
0.0,5.0,0.5,1.0,5.0,0.0,0.0,1.0,1.0,phase_2,stop,250.0,200.0,4.0,,,,,,,,,orange,square
0.0,3.0,2.0,0.0,6.0,6.0,375.3013550003743,1.0,1.0,phase_2,go,300.0,200.0,1.0,,,,,,,,,cyan,cross
0.0,8.0,4.0,1.0,6.0,0.0,0.0,1.0,1.0,phase_2,stop,300.0,200.0,4.0,,,,,,,,,yellow,diamond
0.0,4.0,4.0,0.0,6.0,6.0,431.8277960001069,1.0,1.0,phase_2,go,300.0,250.0,1.0,,,,,,,,,magenta,I
0.0,3.0,2.0,0.0,5.0,5.0,559.962789000565,1.0,1.0,phase_2,go,300.0,250.0,1.0,,,,,,,,,cyan,cross
0.0,1.0,0.5,0.0,5.0,5.0,724.2466520001472,1.0,1.0,phase_2,go,300.0,250.0,1.0,,,,,,,,,green,flipped triangle
0.0,7.0,2.0,1.0,5.0,0.0,0.0,1.0,1.0,phase_2,stop,300.0,250.0,4.0,,,,,,,,,white,circle
0.0,5.0,0.5,1.0,6.0,0.0,0.0,1.0,1.0,phase_2,stop,350.0,250.0,4.0,,,,,,,,,orange,square
0.0,1.0,0.5,0.0,5.0,5.0,563.6593340004765,1.0,1.0,phase_2,go,350.0,300.0,1.0,,,,,,,,,green,flipped triangle
0.0,4.0,4.0,0.0,6.0,6.0,782.9925070000172,1.0,1.0,phase_2,go,350.0,300.0,1.0,,,,,,,,,magenta,I
0.0,5.0,0.5,1.0,5.0,0.0,0.0,1.0,1.0,phase_2,stop,350.0,300.0,4.0,,,,,,,,,orange,square
0.0,2.0,1.0,0.0,6.0,6.0,586.481172999811,1.0,1.0,phase_2,go,400.0,300.0,1.0,,,,,,,,,gray,hexagon
0.0,7.0,2.0,1.0,5.0,0.0,0.0,1.0,1.0,phase_2,stop,400.0,300.0,4.0,,,,,,,,,white,circle
0.0,5.0,0.5,1.0,6.0,0.0,0.0,1.0,1.0,phase_2,stop,450.0,300.0,4.0,,,,,,,,,orange,square
0.0,6.0,1.0,1.0,5.0,0.0,0.0,1.0,1.0,phase_2,stop,450.0,350.0,4.0,,,,,,,,,blue,triangle
0.0,3.0,2.0,0.0,6.0,6.0,728.4425709995048,1.0,1.0,phase_2,go,500.0,350.0,1.0,,,,,,,,,cyan,cross
0.0,4.0,4.0,0.0,6.0,6.0,731.0185570004251,1.0,1.0,phase_2,go,500.0,350.0,1.0,,,,,,,,,magenta,I
0.0,8.0,4.0,1.0,6.0,6.0,733.0870509995293,1.0,1.0,phase_2,go,500.0,350.0,1.0,,,,,,,,,yellow,diamond
0.0,6.0,1.0,1.0,5.0,5.0,644.2759930005195,1.0,1.0,phase_2,stop,500.0,350.0,3.0,,,,,,,,,blue,triangle
0.0,6.0,1.0,1.0,5.0,0.0,0.0,1.0,1.0,phase_2,stop,450.0,350.0,4.0,,,,,,,,,blue,triangle
0.0,7.0,2.0,1.0,6.0,6.0,626.5102789993762,1.0,1.0,phase_2,go,500.0,350.0,1.0,,,,,,,,,white,circle
0.0,7.0,2.0,1.0,6.0,0.0,0.0,1.0,1.0,phase_2,stop,500.0,350.0,4.0,,,,,,,,,white,circle
0.0,6.0,1.0,1.0,5.0,5.0,729.4493010003862,1.0,1.0,phase_2,go,500.0,400.0,1.0,,,,,,,,,blue,triangle
0.0,3.0,2.0,0.0,6.0,6.0,677.2785180000938,1.0,1.0,phase_2,go,500.0,400.0,1.0,,,,,,,,,cyan,cross
0.0,4.0,4.0,0.0,5.0,5.0,649.8617950001062,2.0,1.0,phase_2,go,500.0,400.0,1.0,,,,,,,,,magenta,I
0.0,5.0,0.5,1.0,5.0,5.0,654.3051090002336,2.0,1.0,phase_2,stop,500.0,400.0,3.0,,,,,,,,,orange,square
0.0,8.0,4.0,1.0,6.0,0.0,0.0,2.0,1.0,phase_2,stop,450.0,400.0,4.0,,,,,,,,,yellow,diamond
0.0,4.0,4.0,0.0,5.0,5.0,596.0240229996998,2.0,1.0,phase_2,go,450.0,450.0,1.0,,,,,,,,,magenta,I
0.0,4.0,4.0,0.0,6.0,6.0,652.9081039998346,2.0,1.0,phase_2,go,450.0,450.0,1.0,,,,,,,,,magenta,I
0.0,1.0,0.5,0.0,6.0,6.0,672.2080809995532,2.0,1.0,phase_2,go,450.0,450.0,1.0,,,,,,,,,green,flipped triangle
0.0,5.0,0.5,1.0,5.0,5.0,559.827592000147,2.0,1.0,phase_2,go,450.0,450.0,1.0,,,,,,,,,orange,square
0.0,6.0,1.0,1.0,6.0,6.0,394.6277289996942,2.0,1.0,phase_2,stop,450.0,450.0,3.0,,,,,,,,,blue,triangle
0.0,6.0,1.0,1.0,6.0,0.0,0.0,2.0,1.0,phase_2,stop,450.0,400.0,4.0,,,,,,,,,blue,triangle
0.0,4.0,4.0,0.0,6.0,6.0,661.0495999993873,2.0,1.0,phase_2,go,450.0,450.0,1.0,,,,,,,,,magenta,I
0.0,8.0,4.0,1.0,5.0,0.0,0.0,2.0,1.0,phase_2,stop,450.0,450.0,4.0,,,,,,,,,yellow,diamond
0.0,1.0,0.5,0.0,5.0,5.0,640.1253619997078,2.0,1.0,phase_2,go,500.0,450.0,1.0,,,,,,,,,green,flipped triangle
0.0,5.0,0.5,1.0,5.0,5.0,647.0491979998769,2.0,1.0,phase_2,stop,500.0,450.0,3.0,,,,,,,,,orange,square
0.0,7.0,2.0,1.0,6.0,0.0,0.0,2.0,1.0,phase_2,stop,450.0,450.0,4.0,,,,,,,,,white,circle
0.0,4.0,4.0,0.0,6.0,6.0,697.1446779998587,2.0,1.0,phase_2,go,450.0,500.0,1.0,,,,,,,,,magenta,I
0.0,4.0,4.0,0.0,5.0,5.0,782.0169579999856,2.0,1.0,phase_2,go,450.0,500.0,1.0,,,,,,,,,magenta,I
0.0,2.0,1.0,0.0,5.0,5.0,745.1499770004375,2.0,1.0,phase_2,go,450.0,500.0,1.0,,,,,,,,,gray,hexagon
0.0,6.0,1.0,1.0,6.0,0.0,0.0,2.0,1.0,phase_2,stop,450.0,500.0,4.0,,,,,,,,,blue,triangle
0.0,7.0,2.0,1.0,5.0,5.0,834.3364029997247,2.0,1.0,phase_2,go,450.0,550.0,1.0,,,,,,,,,white,circle
0.0,4.0,4.0,0.0,5.0,5.0,744.6840160000647,2.0,1.0,phase_2,go,450.0,550.0,1.0,,,,,,,,,magenta,I
0.0,2.0,1.0,0.0,5.0,5.0,669.3071850004344,2.0,1.0,phase_2,go,450.0,550.0,1.0,,,,,,,,,gray,hexagon
0.0,3.0,2.0,0.0,6.0,6.0,599.8727059995872,2.0,1.0,phase_2,go,450.0,550.0,1.0,,,,,,,,,cyan,cross
0.0,7.0,2.0,1.0,5.0,5.0,580.4574549993049,2.0,1.0,phase_2,stop,450.0,550.0,3.0,,,,,,,,,white,circle
0.0,1.0,0.5,0.0,6.0,6.0,604.8646199997165,2.0,1.0,phase_2,go,400.0,550.0,1.0,,,,,,,,,green,flipped triangle
0.0,1.0,0.5,0.0,6.0,6.0,621.1826839999048,2.0,1.0,phase_2,go,400.0,550.0,1.0,,,,,,,,,green,flipped triangle
0.0,5.0,0.5,1.0,6.0,6.0,645.821908000471,2.0,1.0,phase_2,stop,400.0,550.0,3.0,,,,,,,,,orange,square
0.0,3.0,2.0,0.0,5.0,5.0,770.9169710005881,2.0,1.0,phase_2,go,400.0,500.0,1.0,,,,,,,,,cyan,cross
0.0,2.0,1.0,0.0,6.0,6.0,838.7690520003162,2.0,1.0,phase_2,go,400.0,500.0,1.0,,,,,,,,,gray,hexagon
0.0,8.0,4.0,1.0,6.0,0.0,0.0,2.0,1.0,phase_2,stop,400.0,500.0,4.0,,,,,,,,,yellow,diamond
0.0,6.0,1.0,1.0,5.0,5.0,730.9082909996505,2.0,1.0,phase_2,go,400.0,550.0,1.0,,,,,,,,,blue,triangle
0.0,4.0,4.0,0.0,5.0,5.0,633.4586619996116,2.0,1.0,phase_2,go,400.0,550.0,1.0,,,,,,,,,magenta,I
0.0,3.0,2.0,0.0,6.0,6.0,737.031396999555,2.0,1.0,phase_2,go,400.0,550.0,1.0,,,,,,,,,cyan,cross
0.0,3.0,2.0,0.0,5.0,5.0,692.699399999583,2.0,1.0,phase_2,go,400.0,550.0,1.0,,,,,,,,,cyan,cross
0.0,4.0,4.0,0.0,6.0,6.0,652.9901700005212,2.0,1.0,phase_2,go,400.0,550.0,1.0,,,,,,,,,magenta,I
0.0,5.0,0.5,1.0,6.0,6.0,693.9425620003021,2.0,1.0,phase_2,go,400.0,550.0,1.0,,,,,,,,,orange,square
0.0,7.0,2.0,1.0,6.0,6.0,707.9234919992814,2.0,1.0,phase_2,stop,400.0,550.0,3.0,,,,,,,,,white,circle
0.0,3.0,2.0,0.0,6.0,6.0,692.5452350005799,3.0,1.0,phase_2,go,400.0,500.0,1.0,,,,,,,,,cyan,cross
0.0,8.0,4.0,1.0,6.0,6.0,581.7231720002383,3.0,1.0,phase_2,stop,400.0,500.0,3.0,,,,,,,,,yellow,diamond
0.0,5.0,0.5,1.0,6.0,6.0,626.6588399994362,3.0,1.0,phase_2,stop,400.0,450.0,3.0,,,,,,,,,orange,square
0.0,6.0,1.0,1.0,6.0,6.0,687.0084209995184,3.0,1.0,phase_2,go,400.0,400.0,1.0,,,,,,,,,blue,triangle
0.0,1.0,0.5,0.0,5.0,5.0,559.9346360004347,3.0,1.0,phase_2,go,400.0,400.0,1.0,,,,,,,,,green,flipped triangle
0.0,7.0,2.0,1.0,6.0,0.0,0.0,3.0,1.0,phase_2,stop,400.0,400.0,4.0,,,,,,,,,white,circle
0.0,2.0,1.0,0.0,5.0,5.0,625.7772939998176,3.0,1.0,phase_2,go,400.0,450.0,1.0,,,,,,,,,gray,hexagon
0.0,3.0,2.0,0.0,6.0,6.0,666.8180610004129,3.0,1.0,phase_2,go,400.0,450.0,1.0,,,,,,,,,cyan,cross
0.0,8.0,4.0,1.0,6.0,6.0,595.7270330000028,3.0,1.0,phase_2,stop,400.0,450.0,3.0,,,,,,,,,yellow,diamond
0.0,8.0,4.0,1.0,6.0,0.0,0.0,3.0,1.0,phase_2,stop,400.0,400.0,4.0,,,,,,,,,yellow,diamond
0.0,4.0,4.0,0.0,6.0,6.0,686.8954129995473,3.0,1.0,phase_2,go,400.0,450.0,1.0,,,,,,,,,magenta,I
0.0,6.0,1.0,1.0,6.0,0.0,0.0,3.0,1.0,phase_2,stop,400.0,450.0,4.0,,,,,,,,,blue,triangle
0.0,1.0,0.5,0.0,6.0,6.0,585.4287440006374,3.0,1.0,phase_2,go,400.0,500.0,1.0,,,,,,,,,green,flipped triangle
0.0,2.0,1.0,0.0,5.0,5.0,568.8706219998494,3.0,1.0,phase_2,go,400.0,500.0,1.0,,,,,,,,,gray,hexagon
0.0,3.0,2.0,0.0,6.0,6.0,612.7392940006757,3.0,1.0,phase_2,go,400.0,500.0,1.0,,,,,,,,,cyan,cross
0.0,2.0,1.0,0.0,6.0,6.0,609.1539899998679,3.0,1.0,phase_2,go,400.0,500.0,1.0,,,,,,,,,gray,hexagon
0.0,5.0,0.5,1.0,6.0,0.0,0.0,3.0,1.0,phase_2,stop,400.0,500.0,4.0,,,,,,,,,orange,square
0.0,8.0,4.0,1.0,6.0,6.0,550.473606000196,3.0,1.0,phase_2,go,400.0,550.0,1.0,,,,,,,,,yellow,diamond
0.0,7.0,2.0,1.0,6.0,6.0,695.6517219996385,3.0,1.0,phase_2,stop,400.0,550.0,3.0,,,,,,,,,white,circle
0.0,5.0,0.5,1.0,6.0,0.0,0.0,3.0,1.0,phase_2,stop,400.0,500.0,4.0,,,,,,,,,orange,square
0.0,2.0,1.0,0.0,6.0,6.0,640.6049110000822,3.0,1.0,phase_2,go,400.0,550.0,1.0,,,,,,,,,gray,hexagon
0.0,2.0,1.0,0.0,5.0,5.0,594.591125000079,3.0,1.0,phase_2,go,400.0,550.0,1.0,,,,,,,,,gray,hexagon
0.0,1.0,0.5,0.0,6.0,6.0,680.1627300001201,3.0,1.0,phase_2,go,400.0,550.0,1.0,,,,,,,,,green,flipped triangle
0.0,2.0,1.0,0.0,6.0,6.0,613.907420999567,3.0,1.0,phase_2,go,400.0,550.0,1.0,,,,,,,,,gray,hexagon
0.0,7.0,2.0,1.0,5.0,0.0,0.0,3.0,1.0,phase_2,stop,400.0,550.0,4.0,,,,,,,,,white,circle
0.0,7.0,2.0,1.0,6.0,6.0,479.6304640003654,3.0,1.0,phase_2,go,450.0,550.0,1.0,,,,,,,,,white,circle
0.0,4.0,4.0,0.0,6.0,6.0,627.4777320004432,3.0,1.0,phase_2,go,450.0,550.0,1.0,,,,,,,,,magenta,I
0.0,7.0,2.0,1.0,6.0,6.0,691.3414719992943,3.0,1.0,phase_2,stop,450.0,550.0,3.0,,,,,,,,,white,circle
0.0,8.0,4.0,1.0,5.0,0.0,0.0,3.0,1.0,phase_2,stop,450.0,500.0,4.0,,,,,,,,,yellow,diamond
0.0,3.0,2.0,0.0,6.0,6.0,757.0333459998437,3.0,1.0,phase_2,go,500.0,500.0,1.0,,,,,,,,,cyan,cross
0.0,8.0,4.0,1.0,6.0,6.0,578.2638569999108,3.0,1.0,phase_2,stop,500.0,500.0,3.0,,,,,,,,,yellow,diamond
0.0,5.0,0.5,1.0,6.0,0.0,0.0,3.0,1.0,phase_2,stop,500.0,450.0,4.0,,,,,,,,,orange,square
0.0,4.0,4.0,0.0,5.0,5.0,664.2706989996441,3.0,1.0,phase_2,go,500.0,500.0,1.0,,,,,,,,,magenta,I
0.0,6.0,1.0,1.0,6.0,0.0,0.0,3.0,1.0,phase_2,stop,500.0,500.0,4.0,,,,,,,,,blue,triangle
0.0,6.0,1.0,1.0,6.0,6.0,622.7936880004563,3.0,1.0,phase_2,stop,500.0,550.0,3.0,,,,,,,,,blue,triangle
0.0,3.0,2.0,0.0,6.0,6.0,723.6174079998818,3.0,1.0,phase_2,go,500.0,500.0,1.0,,,,,,,,,cyan,cross
0.0,1.0,0.5,0.0,5.0,5.0,453.153888000088,4.0,1.0,phase_2,go,500.0,500.0,1.0,,,,,,,,,green,flipped triangle
0.0,6.0,1.0,1.0,5.0,5.0,481.297037999866,4.0,1.0,phase_2,go,500.0,500.0,1.0,,,,,,,,,blue,triangle
0.0,8.0,4.0,1.0,5.0,5.0,587.6569650008605,4.0,1.0,phase_2,stop,500.0,500.0,3.0,,,,,,,,,yellow,diamond
0.0,5.0,0.5,1.0,5.0,0.0,0.0,4.0,1.0,phase_2,stop,450.0,500.0,4.0,,,,,,,,,orange,square
0.0,2.0,1.0,0.0,6.0,6.0,580.4061850003563,4.0,1.0,phase_2,go,500.0,500.0,1.0,,,,,,,,,gray,hexagon
0.0,2.0,1.0,0.0,6.0,6.0,516.8340239997633,4.0,1.0,phase_2,go,500.0,500.0,1.0,,,,,,,,,gray,hexagon
0.0,1.0,0.5,0.0,5.0,5.0,583.3941679993586,4.0,1.0,phase_2,go,500.0,500.0,1.0,,,,,,,,,green,flipped triangle
0.0,7.0,2.0,1.0,5.0,5.0,552.0426680004675,4.0,1.0,phase_2,stop,500.0,500.0,3.0,,,,,,,,,white,circle
0.0,2.0,1.0,0.0,5.0,5.0,686.2958900001104,4.0,1.0,phase_2,go,450.0,500.0,1.0,,,,,,,,,gray,hexagon
0.0,8.0,4.0,1.0,6.0,6.0,663.2380410001133,4.0,1.0,phase_2,stop,450.0,500.0,3.0,,,,,,,,,yellow,diamond
0.0,2.0,1.0,0.0,6.0,6.0,737.3934269999154,4.0,1.0,phase_2,go,450.0,450.0,1.0,,,,,,,,,gray,hexagon
0.0,4.0,4.0,0.0,5.0,5.0,588.7342100004389,4.0,1.0,phase_2,go,450.0,450.0,1.0,,,,,,,,,magenta,I
0.0,5.0,0.5,1.0,6.0,6.0,486.2347790003696,4.0,1.0,phase_2,stop,450.0,450.0,3.0,,,,,,,,,orange,square
0.0,5.0,0.5,1.0,5.0,0.0,0.0,4.0,1.0,phase_2,stop,450.0,400.0,4.0,,,,,,,,,orange,square
0.0,6.0,1.0,1.0,5.0,5.0,564.7635140003331,4.0,1.0,phase_2,stop,500.0,400.0,3.0,,,,,,,,,blue,triangle
0.0,4.0,4.0,0.0,6.0,6.0,739.6953159995974,4.0,1.0,phase_2,go,450.0,400.0,1.0,,,,,,,,,magenta,I
0.0,3.0,2.0,0.0,5.0,5.0,837.9479790000914,4.0,1.0,phase_2,go,450.0,400.0,1.0,,,,,,,,,cyan,cross
0.0,2.0,1.0,0.0,6.0,6.0,724.8406589997103,4.0,1.0,phase_2,go,450.0,400.0,1.0,,,,,,,,,gray,hexagon
0.0,6.0,1.0,1.0,5.0,0.0,0.0,4.0,1.0,phase_2,stop,450.0,400.0,4.0,,,,,,,,,blue,triangle
0.0,8.0,4.0,1.0,6.0,0.0,0.0,4.0,1.0,phase_2,stop,500.0,400.0,4.0,,,,,,,,,yellow,diamond
0.0,1.0,0.5,0.0,6.0,6.0,641.8982320001305,4.0,1.0,phase_2,go,500.0,450.0,1.0,,,,,,,,,green,flipped triangle
0.0,8.0,4.0,1.0,6.0,0.0,0.0,4.0,1.0,phase_2,stop,500.0,450.0,4.0,,,,,,,,,yellow,diamond
0.0,4.0,4.0,0.0,5.0,5.0,446.95498999954,4.0,1.0,phase_2,go,500.0,500.0,1.0,,,,,,,,,magenta,I
0.0,1.0,0.5,0.0,6.0,6.0,632.7495129999079,4.0,1.0,phase_2,go,500.0,500.0,1.0,,,,,,,,,green,flipped triangle
0.0,8.0,4.0,1.0,5.0,5.0,595.7163180000862,4.0,1.0,phase_2,stop,500.0,500.0,3.0,,,,,,,,,yellow,diamond
0.0,1.0,0.5,0.0,5.0,5.0,724.1195770002378,4.0,1.0,phase_2,go,450.0,500.0,1.0,,,,,,,,,green,flipped triangle
0.0,3.0,2.0,0.0,5.0,5.0,713.4311070003605,4.0,1.0,phase_2,go,450.0,500.0,1.0,,,,,,,,,cyan,cross
0.0,5.0,0.5,1.0,6.0,0.0,0.0,4.0,1.0,phase_2,stop,450.0,500.0,4.0,,,,,,,,,orange,square
0.0,2.0,1.0,0.0,5.0,5.0,567.1091460008029,4.0,1.0,phase_2,go,450.0,550.0,1.0,,,,,,,,,gray,hexagon
0.0,6.0,1.0,1.0,6.0,6.0,708.1815490000736,4.0,1.0,phase_2,go,450.0,550.0,1.0,,,,,,,,,blue,triangle
0.0,7.0,2.0,1.0,6.0,0.0,0.0,4.0,1.0,phase_2,stop,450.0,550.0,4.0,,,,,,,,,white,circle
0.0,8.0,4.0,1.0,5.0,0.0,0.0,4.0,1.0,phase_2,stop,450.0,600.0,4.0,,,,,,,,,yellow,diamond
0.0,3.0,2.0,0.0,5.0,5.0,563.7456969998311,4.0,1.0,phase_2,go,500.0,600.0,1.0,,,,,,,,,cyan,cross
0.0,6.0,1.0,1.0,5.0,5.0,750.2919749995272,4.0,1.0,phase_2,go,500.0,600.0,1.0,,,,,,,,,blue,triangle
0.0,7.0,2.0,1.0,5.0,0.0,0.0,4.0,1.0,phase_2,stop,500.0,600.0,4.0,,,,,,,,,white,circle
0.0,6.0,1.0,1.0,5.0,5.0,633.3469150004021,4.0,1.0,phase_2,stop,550.0,600.0,3.0,,,,,,,,,blue,triangle
0.0,2.0,1.0,0.0,6.0,6.0,739.5038740005475,5.0,1.0,phase_2,go,500.0,600.0,1.0,,,,,,,,,gray,hexagon
0.0,1.0,0.5,0.0,6.0,6.0,615.9427729999152,5.0,1.0,phase_2,go,500.0,600.0,1.0,,,,,,,,,green,flipped triangle
0.0,1.0,0.5,0.0,5.0,5.0,783.9082860000417,5.0,1.0,phase_2,go,500.0,600.0,1.0,,,,,,,,,green,flipped triangle
0.0,7.0,2.0,1.0,5.0,5.0,425.2412020005067,5.0,1.0,phase_2,go,500.0,600.0,1.0,,,,,,,,,white,circle
0.0,3.0,2.0,0.0,6.0,6.0,536.9958339997538,5.0,1.0,phase_2,go,500.0,600.0,1.0,,,,,,,,,cyan,cross
0.0,2.0,1.0,0.0,6.0,6.0,551.8685930001084,5.0,1.0,phase_2,go,500.0,600.0,1.0,,,,,,,,,gray,hexagon
0.0,3.0,2.0,0.0,6.0,6.0,596.569336000357,5.0,1.0,phase_2,go,500.0,600.0,1.0,,,,,,,,,cyan,cross
0.0,5.0,0.5,1.0,5.0,5.0,548.4595019997869,5.0,1.0,phase_2,go,500.0,600.0,1.0,,,,,,,,,orange,square
0.0,8.0,4.0,1.0,6.0,6.0,461.2469660005445,5.0,1.0,phase_2,stop,500.0,600.0,3.0,,,,,,,,,yellow,diamond
0.0,7.0,2.0,1.0,6.0,6.0,603.7102380005308,5.0,1.0,phase_2,stop,500.0,550.0,3.0,,,,,,,,,white,circle
0.0,5.0,0.5,1.0,6.0,0.0,0.0,5.0,1.0,phase_2,stop,500.0,500.0,4.0,,,,,,,,,orange,square
0.0,8.0,4.0,1.0,6.0,6.0,748.154269999759,5.0,1.0,phase_2,go,500.0,550.0,1.0,,,,,,,,,yellow,diamond
0.0,5.0,0.5,1.0,6.0,6.0,650.0667080008498,5.0,1.0,phase_2,stop,500.0,550.0,3.0,,,,,,,,,orange,square
0.0,2.0,1.0,0.0,5.0,5.0,747.0550669995646,5.0,1.0,phase_2,go,500.0,500.0,1.0,,,,,,,,,gray,hexagon
0.0,6.0,1.0,1.0,6.0,0.0,0.0,5.0,1.0,phase_2,stop,500.0,500.0,4.0,,,,,,,,,blue,triangle
0.0,3.0,2.0,0.0,5.0,5.0,474.2051539997192,5.0,1.0,phase_2,go,500.0,550.0,1.0,,,,,,,,,cyan,cross
0.0,1.0,0.5,0.0,5.0,5.0,752.765783000541,5.0,1.0,phase_2,go,500.0,550.0,1.0,,,,,,,,,green,flipped triangle
0.0,2.0,1.0,0.0,5.0,5.0,836.4262750001217,5.0,1.0,phase_2,go,500.0,550.0,1.0,,,,,,,,,gray,hexagon
0.0,5.0,0.5,1.0,5.0,5.0,633.2891069996549,5.0,1.0,phase_2,stop,500.0,550.0,3.0,,,,,,,,,orange,square
0.0,2.0,1.0,0.0,5.0,5.0,786.5611819997866,5.0,1.0,phase_2,go,450.0,550.0,1.0,,,,,,,,,gray,hexagon
0.0,1.0,0.5,0.0,5.0,5.0,831.1854220000896,5.0,1.0,phase_2,go,450.0,550.0,1.0,,,,,,,,,green,flipped triangle
0.0,3.0,2.0,0.0,5.0,5.0,775.2809670000715,5.0,1.0,phase_2,go,450.0,550.0,1.0,,,,,,,,,cyan,cross
0.0,2.0,1.0,0.0,5.0,5.0,401.022517000456,5.0,1.0,phase_2,go,450.0,550.0,1.0,,,,,,,,,gray,hexagon
0.0,2.0,1.0,0.0,6.0,6.0,378.4967589999723,5.0,1.0,phase_2,go,450.0,550.0,1.0,,,,,,,,,gray,hexagon
0.0,5.0,0.5,1.0,6.0,6.0,656.2220069999967,5.0,1.0,phase_2,stop,450.0,550.0,3.0,,,,,,,,,orange,square
0.0,7.0,2.0,1.0,6.0,0.0,0.0,5.0,1.0,phase_2,stop,450.0,500.0,4.0,,,,,,,,,white,circle
0.0,5.0,0.5,1.0,5.0,0.0,0.0,5.0,1.0,phase_2,stop,450.0,550.0,4.0,,,,,,,,,orange,square
0.0,4.0,4.0,0.0,5.0,5.0,779.0423739998005,5.0,1.0,phase_2,go,500.0,550.0,1.0,,,,,,,,,magenta,I
0.0,4.0,4.0,0.0,6.0,6.0,694.211245000588,5.0,1.0,phase_2,go,500.0,550.0,1.0,,,,,,,,,magenta,I
0.0,2.0,1.0,0.0,5.0,5.0,760.0710879996768,5.0,1.0,phase_2,go,500.0,550.0,1.0,,,,,,,,,gray,hexagon
0.0,5.0,0.5,1.0,6.0,6.0,700.9360909996758,5.0,1.0,phase_2,go,500.0,550.0,1.0,,,,,,,,,orange,square
0.0,5.0,0.5,1.0,5.0,5.0,537.4928209994323,5.0,1.0,phase_2,stop,500.0,550.0,3.0,,,,,,,,,orange,square
0.0,6.0,1.0,1.0,5.0,5.0,1023.6947089997557,5.0,1.0,phase_2,go,450.0,550.0,1.0,,,,,,,,,blue,triangle
0.0,4.0,4.0,0.0,6.0,6.0,766.3059779997639,5.0,1.0,phase_2,go,450.0,550.0,1.0,,,,,,,,,magenta,I
0.0,8.0,4.0,1.0,6.0,6.0,668.6293140000998,5.0,1.0,phase_2,stop,450.0,550.0,3.0,,,,,,,,,yellow,diamond
0.0,8.0,4.0,1.0,5.0,0.0,0.0,5.0,1.0,phase_2,stop,450.0,500.0,4.0,,,,,,,,,yellow,diamond
0.0,2.0,1.0,0.0,5.0,5.0,373.68941800014,6.0,1.0,phase_2,go,500.0,500.0,1.0,,,,,,,,,gray,hexagon
0.0,3.0,2.0,0.0,5.0,5.0,619.3906999997125,6.0,1.0,phase_2,go,500.0,500.0,1.0,,,,,,,,,cyan,cross
0.0,6.0,1.0,1.0,5.0,5.0,424.0811130002839,6.0,1.0,phase_2,go,500.0,500.0,1.0,,,,,,,,,blue,triangle
0.0,7.0,2.0,1.0,6.0,0.0,0.0,6.0,1.0,phase_2,stop,500.0,500.0,4.0,,,,,,,,,white,circle
0.0,7.0,2.0,1.0,6.0,0.0,0.0,6.0,1.0,phase_2,stop,500.0,550.0,4.0,,,,,,,,,white,circle
0.0,1.0,0.5,0.0,6.0,6.0,621.1230809994959,6.0,1.0,phase_2,go,500.0,600.0,1.0,,,,,,,,,green,flipped triangle
0.0,3.0,2.0,0.0,5.0,5.0,486.3094990005265,6.0,1.0,phase_2,go,500.0,600.0,1.0,,,,,,,,,cyan,cross
0.0,5.0,0.5,1.0,6.0,6.0,602.9730879999988,6.0,1.0,phase_2,go,500.0,600.0,1.0,,,,,,,,,orange,square
0.0,1.0,0.5,0.0,6.0,6.0,573.7426270006836,6.0,1.0,phase_2,go,500.0,600.0,1.0,,,,,,,,,green,flipped triangle
0.0,8.0,4.0,1.0,6.0,6.0,637.1796749999703,6.0,1.0,phase_2,stop,500.0,600.0,3.0,,,,,,,,,yellow,diamond
0.0,1.0,0.5,0.0,6.0,6.0,650.9078849994694,6.0,1.0,phase_2,go,500.0,550.0,1.0,,,,,,,,,green,flipped triangle
0.0,8.0,4.0,1.0,5.0,5.0,695.991736999531,6.0,1.0,phase_2,go,500.0,550.0,1.0,,,,,,,,,yellow,diamond
0.0,6.0,1.0,1.0,6.0,6.0,605.1715580006203,6.0,1.0,phase_2,go,500.0,550.0,1.0,,,,,,,,,blue,triangle
0.0,8.0,4.0,1.0,5.0,5.0,472.0733710000786,6.0,1.0,phase_2,stop,500.0,550.0,3.0,,,,,,,,,yellow,diamond
0.0,4.0,4.0,0.0,5.0,5.0,714.3413280000459,6.0,1.0,phase_2,go,450.0,550.0,1.0,,,,,,,,,magenta,I
0.0,7.0,2.0,1.0,5.0,0.0,0.0,6.0,1.0,phase_2,stop,450.0,550.0,4.0,,,,,,,,,white,circle
0.0,7.0,2.0,1.0,5.0,0.0,0.0,6.0,1.0,phase_2,stop,500.0,550.0,4.0,,,,,,,,,white,circle
0.0,6.0,1.0,1.0,6.0,6.0,448.6589900006947,6.0,1.0,phase_2,stop,550.0,550.0,3.0,,,,,,,,,blue,triangle
0.0,3.0,2.0,0.0,5.0,5.0,650.6279830000494,6.0,1.0,phase_2,go,550.0,500.0,1.0,,,,,,,,,cyan,cross
0.0,8.0,4.0,1.0,5.0,5.0,643.6359220006125,6.0,1.0,phase_2,stop,550.0,500.0,3.0,,,,,,,,,yellow,diamond
0.0,1.0,0.5,0.0,6.0,6.0,686.799713000255,6.0,1.0,phase_2,go,500.0,500.0,1.0,,,,,,,,,green,flipped triangle
0.0,2.0,1.0,0.0,6.0,6.0,599.4215130003795,6.0,1.0,phase_2,go,500.0,500.0,1.0,,,,,,,,,gray,hexagon
0.0,3.0,2.0,0.0,5.0,5.0,638.3463899992421,6.0,1.0,phase_2,go,500.0,500.0,1.0,,,,,,,,,cyan,cross
0.0,1.0,0.5,0.0,5.0,5.0,677.4500930005161,6.0,1.0,phase_2,go,500.0,500.0,1.0,,,,,,,,,green,flipped triangle
0.0,3.0,2.0,0.0,5.0,5.0,685.1408559996344,6.0,1.0,phase_2,go,500.0,500.0,1.0,,,,,,,,,cyan,cross
0.0,6.0,1.0,1.0,5.0,0.0,0.0,6.0,1.0,phase_2,stop,500.0,500.0,4.0,,,,,,,,,blue,triangle
0.0,2.0,1.0,0.0,6.0,6.0,652.2591740003918,6.0,1.0,phase_2,go,550.0,500.0,1.0,,,,,,,,,gray,hexagon
0.0,6.0,1.0,1.0,5.0,0.0,0.0,6.0,1.0,phase_2,stop,550.0,500.0,4.0,,,,,,,,,blue,triangle
0.0,1.0,0.5,0.0,5.0,5.0,690.594861000136,6.0,1.0,phase_2,go,600.0,500.0,1.0,,,,,,,,,green,flipped triangle
0.0,5.0,0.5,1.0,6.0,6.0,428.0422600004385,6.0,1.0,phase_2,stop,600.0,500.0,3.0,,,,,,,,,orange,square
0.0,2.0,1.0,0.0,5.0,5.0,600.0031940002373,6.0,1.0,phase_2,go,600.0,450.0,1.0,,,,,,,,,gray,hexagon
0.0,6.0,1.0,1.0,6.0,0.0,0.0,6.0,1.0,phase_2,stop,600.0,450.0,4.0,,,,,,,,,blue,triangle
0.0,2.0,1.0,0.0,6.0,6.0,694.5412049999504,6.0,1.0,phase_2,go,600.0,500.0,1.0,,,,,,,,,gray,hexagon
0.0,3.0,2.0,0.0,5.0,5.0,529.9606230000791,6.0,1.0,phase_2,go,600.0,500.0,1.0,,,,,,,,,cyan,cross
0.0,8.0,4.0,1.0,5.0,5.0,426.3833280001563,6.0,1.0,phase_2,stop,600.0,500.0,3.0,,,,,,,,,yellow,diamond
0.0,4.0,4.0,0.0,5.0,5.0,485.5818719997842,6.0,1.0,phase_2,go,550.0,500.0,1.0,,,,,,,,,magenta,I
0.0,4.0,4.0,0.0,5.0,5.0,453.8782710005762,7.0,1.0,phase_2,go,550.0,500.0,1.0,,,,,,,,,magenta,I
0.0,8.0,4.0,1.0,5.0,5.0,556.2046959994404,7.0,1.0,phase_2,go,550.0,500.0,1.0,,,,,,,,,yellow,diamond
0.0,7.0,2.0,1.0,5.0,5.0,638.9858439997624,7.0,1.0,phase_2,stop,550.0,500.0,3.0,,,,,,,,,white,circle
0.0,2.0,1.0,0.0,5.0,5.0,519.0451299995402,7.0,1.0,phase_2,go,500.0,500.0,1.0,,,,,,,,,gray,hexagon
0.0,8.0,4.0,1.0,5.0,5.0,376.7647209997449,7.0,1.0,phase_2,go,500.0,500.0,1.0,,,,,,,,,yellow,diamond
0.0,7.0,2.0,1.0,5.0,5.0,401.7376129995682,7.0,1.0,phase_2,go,500.0,500.0,1.0,,,,,,,,,white,circle
0.0,5.0,0.5,1.0,6.0,6.0,402.7110830002129,7.0,1.0,phase_2,stop,500.0,500.0,3.0,,,,,,,,,orange,square
0.0,1.0,0.5,0.0,5.0,5.0,556.1470539996662,7.0,1.0,phase_2,go,500.0,450.0,1.0,,,,,,,,,green,flipped triangle
0.0,7.0,2.0,1.0,5.0,0.0,0.0,7.0,1.0,phase_2,stop,500.0,450.0,4.0,,,,,,,,,white,circle
0.0,3.0,2.0,0.0,5.0,5.0,527.8684690001683,7.0,1.0,phase_2,go,550.0,450.0,1.0,,,,,,,,,cyan,cross
0.0,1.0,0.5,0.0,5.0,5.0,397.6319359999252,7.0,1.0,phase_2,go,550.0,450.0,1.0,,,,,,,,,green,flipped triangle
0.0,6.0,1.0,1.0,6.0,6.0,366.5421559999231,7.0,1.0,phase_2,stop,550.0,450.0,3.0,,,,,,,,,blue,triangle
0.0,7.0,2.0,1.0,6.0,6.0,439.9100900000121,7.0,1.0,phase_2,stop,550.0,400.0,3.0,,,,,,,,,white,circle
0.0,2.0,1.0,0.0,6.0,6.0,621.173846999227,7.0,1.0,phase_2,go,550.0,350.0,1.0,,,,,,,,,gray,hexagon
0.0,7.0,2.0,1.0,6.0,6.0,667.4585379996643,7.0,1.0,phase_2,go,550.0,350.0,1.0,,,,,,,,,white,circle
0.0,5.0,0.5,1.0,6.0,6.0,462.2128929995597,7.0,1.0,phase_2,go,550.0,350.0,1.0,,,,,,,,,orange,square
0.0,7.0,2.0,1.0,5.0,5.0,609.6725939996759,7.0,1.0,phase_2,stop,550.0,350.0,3.0,,,,,,,,,white,circle
0.0,3.0,2.0,0.0,5.0,5.0,654.3844059997355,7.0,1.0,phase_2,go,500.0,350.0,1.0,,,,,,,,,cyan,cross
0.0,4.0,4.0,0.0,6.0,6.0,354.2776320000484,7.0,1.0,phase_2,go,500.0,350.0,1.0,,,,,,,,,magenta,I
0.0,8.0,4.0,1.0,5.0,5.0,592.574866999712,7.0,1.0,phase_2,stop,500.0,350.0,3.0,,,,,,,,,yellow,diamond
0.0,6.0,1.0,1.0,6.0,6.0,383.8026390003506,7.0,1.0,phase_2,stop,450.0,350.0,3.0,,,,,,,,,blue,triangle
0.0,8.0,4.0,1.0,5.0,5.0,548.2979309999791,7.0,1.0,phase_2,go,450.0,300.0,1.0,,,,,,,,,yellow,diamond
0.0,3.0,2.0,0.0,6.0,6.0,661.065102000066,7.0,1.0,phase_2,go,450.0,300.0,1.0,,,,,,,,,cyan,cross
0.0,2.0,1.0,0.0,6.0,6.0,620.4157060001307,7.0,1.0,phase_2,go,450.0,300.0,1.0,,,,,,,,,gray,hexagon
0.0,6.0,1.0,1.0,5.0,5.0,611.2646050005424,7.0,1.0,phase_2,stop,450.0,300.0,3.0,,,,,,,,,blue,triangle
0.0,6.0,1.0,1.0,6.0,0.0,0.0,7.0,1.0,phase_2,stop,400.0,300.0,4.0,,,,,,,,,blue,triangle
0.0,3.0,2.0,0.0,6.0,6.0,559.4640259996595,7.0,1.0,phase_2,go,400.0,350.0,1.0,,,,,,,,,cyan,cross
0.0,6.0,1.0,1.0,6.0,0.0,0.0,7.0,1.0,phase_2,stop,400.0,350.0,4.0,,,,,,,,,blue,triangle
0.0,8.0,4.0,1.0,5.0,0.0,0.0,7.0,1.0,phase_2,stop,400.0,400.0,4.0,,,,,,,,,yellow,diamond
0.0,4.0,4.0,0.0,6.0,6.0,687.5977769996098,7.0,1.0,phase_2,go,450.0,400.0,1.0,,,,,,,,,magenta,I
0.0,5.0,0.5,1.0,5.0,5.0,616.522757999519,7.0,1.0,phase_2,go,450.0,400.0,1.0,,,,,,,,,orange,square
0.0,3.0,2.0,0.0,5.0,5.0,704.1411199998038,7.0,1.0,phase_2,go,450.0,400.0,1.0,,,,,,,,,cyan,cross
0.0,5.0,0.5,1.0,5.0,0.0,0.0,7.0,1.0,phase_2,stop,450.0,400.0,4.0,,,,,,,,,orange,square
0.0,6.0,1.0,1.0,5.0,0.0,0.0,7.0,1.0,phase_2,stop,500.0,400.0,4.0,,,,,,,,,blue,triangle
0.0,7.0,2.0,1.0,6.0,0.0,0.0,7.0,1.0,phase_2,stop,550.0,400.0,4.0,,,,,,,,,white,circle
0.0,3.0,2.0,0.0,5.0,5.0,590.1034409998829,7.0,1.0,phase_2,go,550.0,450.0,1.0,,,,,,,,,cyan,cross
0.0,3.0,2.0,0.0,6.0,6.0,435.07288300043,8.0,1.0,phase_2,go,550.0,450.0,1.0,,,,,,,,,cyan,cross
0.0,5.0,0.5,1.0,5.0,5.0,586.1526649996449,8.0,1.0,phase_2,stop,550.0,450.0,3.0,,,,,,,,,orange,square
0.0,6.0,1.0,1.0,5.0,0.0,0.0,8.0,1.0,phase_2,stop,500.0,450.0,4.0,,,,,,,,,blue,triangle
0.0,1.0,0.5,0.0,6.0,6.0,551.0401780002212,8.0,1.0,phase_2,go,550.0,450.0,1.0,,,,,,,,,green,flipped triangle
0.0,2.0,1.0,0.0,5.0,5.0,571.5605230006986,8.0,1.0,phase_2,go,550.0,450.0,1.0,,,,,,,,,gray,hexagon
0.0,5.0,0.5,1.0,5.0,5.0,676.4645760003987,8.0,1.0,phase_2,go,550.0,450.0,1.0,,,,,,,,,orange,square
0.0,2.0,1.0,0.0,5.0,5.0,527.5700960000904,8.0,1.0,phase_2,go,550.0,450.0,1.0,,,,,,,,,gray,hexagon
0.0,4.0,4.0,0.0,5.0,5.0,542.7811580002526,8.0,1.0,phase_2,go,550.0,450.0,1.0,,,,,,,,,magenta,I
0.0,8.0,4.0,1.0,6.0,0.0,0.0,8.0,1.0,phase_2,stop,550.0,450.0,4.0,,,,,,,,,yellow,diamond
0.0,4.0,4.0,0.0,5.0,5.0,522.1005860003061,8.0,1.0,phase_2,go,550.0,500.0,1.0,,,,,,,,,magenta,I
0.0,1.0,0.5,0.0,5.0,5.0,611.0144120002587,8.0,1.0,phase_2,go,550.0,500.0,1.0,,,,,,,,,green,flipped triangle
0.0,4.0,4.0,0.0,6.0,6.0,575.3402929994991,8.0,1.0,phase_2,go,550.0,500.0,1.0,,,,,,,,,magenta,I
0.0,4.0,4.0,0.0,5.0,5.0,579.2489280001973,8.0,1.0,phase_2,go,550.0,500.0,1.0,,,,,,,,,magenta,I
0.0,1.0,0.5,0.0,6.0,6.0,639.5995469993068,8.0,1.0,phase_2,go,550.0,500.0,1.0,,,,,,,,,green,flipped triangle
0.0,2.0,1.0,0.0,5.0,5.0,630.8028610001202,8.0,1.0,phase_2,go,550.0,500.0,1.0,,,,,,,,,gray,hexagon
0.0,5.0,0.5,1.0,5.0,5.0,694.068347999746,8.0,1.0,phase_2,stop,550.0,500.0,3.0,,,,,,,,,orange,square
0.0,7.0,2.0,1.0,5.0,5.0,757.3354119995201,8.0,1.0,phase_2,go,500.0,500.0,1.0,,,,,,,,,white,circle
0.0,3.0,2.0,0.0,6.0,6.0,669.8154289997547,8.0,1.0,phase_2,go,500.0,500.0,1.0,,,,,,,,,cyan,cross
0.0,3.0,2.0,0.0,6.0,6.0,458.3496510003897,8.0,1.0,phase_2,go,500.0,500.0,1.0,,,,,,,,,cyan,cross
0.0,7.0,2.0,1.0,5.0,5.0,663.0922479998844,8.0,1.0,phase_2,go,500.0,500.0,1.0,,,,,,,,,white,circle
0.0,1.0,0.5,0.0,5.0,5.0,637.0391540003766,8.0,1.0,phase_2,go,500.0,500.0,1.0,,,,,,,,,green,flipped triangle
0.0,8.0,4.0,1.0,5.0,0.0,0.0,8.0,1.0,phase_2,stop,500.0,500.0,4.0,,,,,,,,,yellow,diamond
0.0,8.0,4.0,1.0,5.0,0.0,0.0,8.0,1.0,phase_2,stop,550.0,500.0,4.0,,,,,,,,,yellow,diamond
0.0,7.0,2.0,1.0,6.0,6.0,457.9754679998586,8.0,1.0,phase_2,stop,600.0,500.0,3.0,,,,,,,,,white,circle
0.0,1.0,0.5,0.0,6.0,6.0,725.089912999465,8.0,1.0,phase_2,go,600.0,450.0,1.0,,,,,,,,,green,flipped triangle
0.0,1.0,0.5,0.0,6.0,6.0,559.0186019999237,8.0,1.0,phase_2,go,600.0,450.0,1.0,,,,,,,,,green,flipped triangle
0.0,6.0,1.0,1.0,5.0,5.0,661.826900000051,8.0,1.0,phase_2,stop,600.0,450.0,3.0,,,,,,,,,blue,triangle
0.0,8.0,4.0,1.0,5.0,5.0,886.3899459993263,8.0,1.0,phase_2,go,550.0,450.0,1.0,,,,,,,,,yellow,diamond
0.0,6.0,1.0,1.0,6.0,0.0,0.0,8.0,1.0,phase_2,stop,550.0,450.0,4.0,,,,,,,,,blue,triangle
0.0,7.0,2.0,1.0,6.0,0.0,0.0,8.0,1.0,phase_2,stop,550.0,500.0,4.0,,,,,,,,,white,circle
0.0,4.0,4.0,0.0,6.0,6.0,662.6405489996614,8.0,1.0,phase_2,go,550.0,550.0,1.0,,,,,,,,,magenta,I
0.0,2.0,1.0,0.0,6.0,6.0,631.6770029998224,8.0,1.0,phase_2,go,550.0,550.0,1.0,,,,,,,,,gray,hexagon
0.0,4.0,4.0,0.0,5.0,5.0,782.0829830006915,8.0,1.0,phase_2,go,550.0,550.0,1.0,,,,,,,,,magenta,I
0.0,4.0,4.0,0.0,5.0,5.0,742.9011389995139,8.0,1.0,phase_2,go,550.0,550.0,1.0,,,,,,,,,magenta,I
0.0,1.0,0.5,0.0,6.0,6.0,586.0767840003973,8.0,1.0,phase_2,go,550.0,550.0,1.0,,,,,,,,,green,flipped triangle
0.0,8.0,4.0,1.0,6.0,6.0,674.3239209999956,8.0,1.0,phase_2,go,550.0,550.0,1.0,,,,,,,,,yellow,diamond
0.0,1.0,0.5,0.0,7.0,2.0,4578.48446800017,1.0,1.0,phase_3,,,,,136.0,4.0,34.0,136.0,170.0,204.0,102.0,68.0,green,flipped triangle
0.0,7.0,2.0,1.0,7.0,6.0,3053.7846350007385,1.0,1.0,phase_3,,,,,156.0,4.0,117.0,195.0,78.0,234.0,39.0,156.0,white,circle
0.0,5.0,0.5,1.0,7.0,4.0,3434.905991999585,1.0,1.0,phase_3,,,,,102.0,3.0,34.0,136.0,170.0,102.0,68.0,204.0,orange,square
0.0,3.0,2.0,0.0,7.0,1.0,1778.3384209997166,1.0,2.0,phase_3,,,,,196.0,4.0,196.0,294.0,49.0,245.0,147.0,98.0,cyan,cross
0.0,5.0,0.5,1.0,7.0,6.0,2588.3178980002413,1.0,1.0,phase_3,,,,,170.0,5.0,34.0,204.0,68.0,136.0,102.0,170.0,orange,square
0.0,7.0,2.0,1.0,7.0,2.0,1767.4191579999388,1.0,1.0,phase_3,,,,,117.0,3.0,156.0,117.0,78.0,234.0,195.0,39.0,white,circle
0.0,5.0,0.5,1.0,7.0,5.0,2570.006385999477,1.0,1.0,phase_3,,,,,270.0,5.0,216.0,162.0,54.0,324.0,270.0,108.0,orange,square
0.0,7.0,2.0,1.0,7.0,2.0,2325.4906869997285,1.0,1.0,phase_3,,,,,132.0,3.0,88.0,132.0,220.0,44.0,176.0,264.0,white,circle
0.0,8.0,4.0,1.0,7.0,2.0,2269.4863070000797,1.0,1.0,phase_3,,,,,270.0,5.0,54.0,270.0,324.0,216.0,108.0,162.0,yellow,diamond
0.0,2.0,1.0,0.0,7.0,6.0,1359.1866050001045,1.0,1.0,phase_3,,,,,34.0,1.0,102.0,68.0,136.0,204.0,170.0,34.0,gray,hexagon
0.0,6.0,1.0,1.0,7.0,2.0,1983.323274999748,1.0,1.0,phase_3,,,,,136.0,4.0,68.0,136.0,204.0,102.0,170.0,34.0,blue,triangle
0.0,3.0,2.0,0.0,7.0,2.0,2729.948481000065,1.0,1.0,phase_3,,,,,195.0,5.0,39.0,195.0,156.0,234.0,117.0,78.0,cyan,cross
0.0,8.0,4.0,1.0,7.0,5.0,2451.3372740002524,1.0,1.0,phase_3,,,,,170.0,5.0,102.0,204.0,68.0,136.0,170.0,34.0,yellow,diamond
0.0,6.0,1.0,1.0,7.0,4.0,2281.7709680002736,1.0,1.0,phase_3,,,,,216.0,4.0,54.0,270.0,324.0,216.0,162.0,108.0,blue,triangle
0.0,4.0,4.0,0.0,7.0,1.0,2480.9493409993597,1.0,1.0,phase_3,,,,,88.0,2.0,88.0,176.0,220.0,132.0,264.0,44.0,magenta,I
0.0,5.0,0.5,1.0,7.0,5.0,1568.543456000043,1.0,1.0,phase_3,,,,,108.0,2.0,270.0,162.0,324.0,216.0,108.0,54.0,orange,square
0.0,7.0,2.0,1.0,7.0,1.0,1641.9292070004303,1.0,1.0,phase_3,,,,,204.0,6.0,204.0,170.0,136.0,102.0,68.0,34.0,white,circle
0.0,8.0,4.0,1.0,7.0,3.0,2113.33711899988,1.0,1.0,phase_3,,,,,117.0,3.0,39.0,234.0,117.0,195.0,156.0,78.0,yellow,diamond
0.0,7.0,2.0,1.0,7.0,1.0,2894.470614999591,1.0,1.0,phase_3,,,,,245.0,5.0,245.0,196.0,49.0,294.0,98.0,147.0,white,circle
0.0,7.0,2.0,1.0,7.0,3.0,2802.559691999704,1.0,1.0,phase_3,,,,,270.0,5.0,216.0,324.0,270.0,108.0,54.0,162.0,white,circle
0.0,6.0,1.0,1.0,7.0,6.0,2246.76563400044,2.0,1.0,phase_3,,,,,117.0,3.0,234.0,195.0,156.0,78.0,39.0,117.0,blue,triangle
0.0,2.0,1.0,0.0,7.0,5.0,1186.7593159995522,2.0,1.0,phase_3,,,,,44.0,1.0,264.0,88.0,176.0,220.0,44.0,132.0,gray,hexagon
0.0,2.0,1.0,0.0,7.0,5.0,2368.231129999913,2.0,1.0,phase_3,,,,,54.0,1.0,162.0,324.0,270.0,216.0,54.0,108.0,gray,hexagon
0.0,6.0,1.0,1.0,7.0,3.0,1609.457311999904,2.0,1.0,phase_3,,,,,220.0,5.0,132.0,88.0,220.0,44.0,176.0,264.0,blue,triangle
0.0,4.0,4.0,0.0,7.0,2.0,1566.8852779999725,2.0,1.0,phase_3,,,,,108.0,2.0,324.0,108.0,216.0,270.0,54.0,162.0,magenta,I
0.0,4.0,4.0,0.0,7.0,4.0,1832.8687240000363,2.0,1.0,phase_3,,,,,216.0,4.0,324.0,270.0,54.0,216.0,108.0,162.0,magenta,I
0.0,1.0,0.5,0.0,7.0,5.0,1763.2184869999037,2.0,1.0,phase_3,,,,,264.0,6.0,176.0,220.0,132.0,88.0,264.0,44.0,green,flipped triangle
0.0,7.0,2.0,1.0,7.0,2.0,2190.350043999388,2.0,1.0,phase_3,,,,,88.0,2.0,176.0,88.0,132.0,44.0,220.0,264.0,white,circle
0.0,8.0,4.0,1.0,7.0,6.0,1900.955613999031,2.0,1.0,phase_3,,,,,132.0,3.0,176.0,88.0,44.0,220.0,264.0,132.0,yellow,diamond
0.0,1.0,0.5,0.0,7.0,4.0,1504.5196060000308,2.0,1.0,phase_3,,,,,270.0,5.0,108.0,162.0,216.0,270.0,54.0,324.0,green,flipped triangle
0.0,3.0,2.0,0.0,7.0,3.0,3054.481589000716,2.0,1.0,phase_3,,,,,162.0,3.0,108.0,324.0,162.0,216.0,54.0,270.0,cyan,cross
0.0,4.0,4.0,0.0,7.0,4.0,1345.8285289998455,2.0,1.0,phase_3,,,,,170.0,5.0,68.0,34.0,204.0,170.0,102.0,136.0,magenta,I
0.0,2.0,1.0,0.0,7.0,3.0,3106.674443999509,2.0,1.0,phase_3,,,,,98.0,2.0,294.0,196.0,98.0,147.0,49.0,245.0,gray,hexagon
0.0,6.0,1.0,1.0,7.0,6.0,2486.8189030003123,2.0,1.0,phase_3,,,,,156.0,4.0,39.0,117.0,78.0,195.0,234.0,156.0,blue,triangle
0.0,6.0,1.0,1.0,7.0,2.0,2389.4655340009194,2.0,1.0,phase_3,,,,,196.0,4.0,245.0,196.0,147.0,98.0,294.0,49.0,blue,triangle
0.0,5.0,0.5,1.0,7.0,6.0,2926.3096129998303,2.0,1.0,phase_3,,,,,147.0,3.0,49.0,294.0,98.0,245.0,196.0,147.0,orange,square
0.0,4.0,4.0,0.0,7.0,3.0,1928.190053000435,2.0,1.0,phase_3,,,,,147.0,3.0,196.0,245.0,147.0,294.0,49.0,98.0,magenta,I
0.0,8.0,4.0,1.0,7.0,1.0,1673.432055999001,2.0,1.0,phase_3,,,,,162.0,3.0,162.0,216.0,54.0,270.0,108.0,324.0,yellow,diamond
0.0,2.0,1.0,0.0,7.0,2.0,1577.993303999392,2.0,1.0,phase_3,,,,,78.0,2.0,39.0,78.0,234.0,156.0,195.0,117.0,gray,hexagon
0.0,2.0,1.0,0.0,7.0,4.0,1529.4206010003109,2.0,1.0,phase_3,,,,,54.0,1.0,162.0,216.0,108.0,54.0,324.0,270.0,gray,hexagon
0.0,5.0,0.5,1.0,7.0,5.0,1533.722325000781,3.0,1.0,phase_3,,,,,117.0,3.0,195.0,39.0,78.0,234.0,117.0,156.0,orange,square
0.0,1.0,0.5,0.0,7.0,2.0,1467.1835949993692,3.0,1.0,phase_3,,,,,196.0,4.0,294.0,196.0,245.0,49.0,147.0,98.0,green,flipped triangle
0.0,2.0,1.0,0.0,7.0,5.0,1139.5624659999155,3.0,1.0,phase_3,,,,,34.0,1.0,68.0,204.0,102.0,170.0,34.0,136.0,gray,hexagon
0.0,3.0,2.0,0.0,7.0,2.0,2656.8982349999715,3.0,1.0,phase_3,,,,,195.0,5.0,156.0,195.0,234.0,78.0,39.0,117.0,cyan,cross
0.0,6.0,1.0,1.0,7.0,3.0,1491.6312049990663,3.0,1.0,phase_3,,,,,270.0,5.0,108.0,324.0,270.0,54.0,162.0,216.0,blue,triangle
0.0,7.0,2.0,1.0,7.0,5.0,1655.5004250003549,3.0,1.0,phase_3,,,,,245.0,5.0,196.0,98.0,294.0,147.0,245.0,49.0,white,circle
0.0,3.0,2.0,0.0,7.0,4.0,2162.156447000598,3.0,1.0,phase_3,,,,,220.0,5.0,132.0,88.0,176.0,220.0,44.0,264.0,cyan,cross
0.0,6.0,1.0,1.0,7.0,4.0,1663.1741150013113,3.0,1.0,phase_3,,,,,136.0,4.0,170.0,204.0,102.0,136.0,34.0,68.0,blue,triangle
0.0,4.0,4.0,0.0,7.0,2.0,1714.878968999983,3.0,1.0,phase_3,,,,,136.0,4.0,170.0,136.0,204.0,102.0,34.0,68.0,magenta,I
0.0,2.0,1.0,0.0,7.0,3.0,1232.5057060006657,3.0,1.0,phase_3,,,,,88.0,2.0,132.0,44.0,88.0,264.0,176.0,220.0,gray,hexagon
0.0,1.0,0.5,0.0,7.0,6.0,1322.3603309997998,3.0,1.0,phase_3,,,,,156.0,4.0,234.0,195.0,78.0,39.0,117.0,156.0,green,flipped triangle
0.0,7.0,2.0,1.0,7.0,2.0,1298.111616999449,3.0,1.0,phase_3,,,,,170.0,5.0,136.0,170.0,68.0,34.0,204.0,102.0,white,circle
0.0,6.0,1.0,1.0,7.0,3.0,1370.1150209999469,3.0,1.0,phase_3,,,,,147.0,3.0,294.0,98.0,147.0,245.0,49.0,196.0,blue,triangle
0.0,1.0,0.5,0.0,7.0,5.0,1823.7218920003213,3.0,1.0,phase_3,,,,,156.0,4.0,39.0,195.0,78.0,117.0,156.0,234.0,green,flipped triangle
0.0,8.0,4.0,1.0,7.0,4.0,2375.5171410011826,3.0,1.0,phase_3,,,,,176.0,4.0,88.0,264.0,220.0,176.0,132.0,44.0,yellow,diamond
0.0,8.0,4.0,1.0,7.0,4.0,1935.7226390002324,3.0,1.0,phase_3,,,,,196.0,4.0,49.0,245.0,147.0,196.0,98.0,294.0,yellow,diamond
0.0,3.0,2.0,0.0,7.0,4.0,1650.5303609992552,3.0,1.0,phase_3,,,,,136.0,4.0,68.0,204.0,34.0,136.0,102.0,170.0,cyan,cross
0.0,8.0,4.0,1.0,7.0,6.0,1260.8084980001877,3.0,1.0,phase_3,,,,,245.0,5.0,294.0,49.0,147.0,98.0,196.0,245.0,yellow,diamond
0.0,3.0,2.0,0.0,7.0,2.0,1728.6544180005876,3.0,1.0,phase_3,,,,,147.0,3.0,196.0,147.0,294.0,245.0,98.0,49.0,cyan,cross
0.0,8.0,4.0,1.0,7.0,5.0,1333.6696250007662,3.0,1.0,phase_3,,,,,204.0,6.0,34.0,170.0,68.0,102.0,204.0,136.0,yellow,diamond
0.0,2.0,1.0,0.0,7.0,6.0,1454.8312200004148,4.0,1.0,phase_3,,,,,39.0,1.0,234.0,78.0,117.0,156.0,195.0,39.0,gray,hexagon
0.0,5.0,0.5,1.0,7.0,1.0,2939.956849999362,4.0,1.0,phase_3,,,,,132.0,3.0,132.0,44.0,264.0,88.0,220.0,176.0,orange,square
0.0,3.0,2.0,0.0,7.0,5.0,2430.670085001111,4.0,1.0,phase_3,,,,,170.0,5.0,34.0,68.0,204.0,136.0,170.0,102.0,cyan,cross
0.0,6.0,1.0,1.0,7.0,3.0,1763.8169140009268,4.0,1.0,phase_3,,,,,220.0,5.0,88.0,264.0,220.0,176.0,132.0,44.0,blue,triangle
0.0,1.0,0.5,0.0,7.0,2.0,2377.029920999121,4.0,1.0,phase_3,,,,,245.0,5.0,147.0,245.0,98.0,196.0,49.0,294.0,green,flipped triangle
0.0,5.0,0.5,1.0,7.0,4.0,2051.6624940009933,4.0,1.0,phase_3,,,,,117.0,3.0,78.0,156.0,234.0,117.0,39.0,195.0,orange,square
0.0,8.0,4.0,1.0,7.0,2.0,1908.241691000512,4.0,1.0,phase_3,,,,,156.0,4.0,117.0,156.0,195.0,78.0,39.0,234.0,yellow,diamond
0.0,4.0,4.0,0.0,7.0,4.0,2784.776095999405,4.0,1.0,phase_3,,,,,156.0,4.0,234.0,117.0,195.0,156.0,78.0,39.0,magenta,I
0.0,1.0,0.5,0.0,7.0,2.0,2026.7243760008569,4.0,1.0,phase_3,,,,,102.0,3.0,136.0,102.0,34.0,170.0,204.0,68.0,green,flipped triangle
0.0,2.0,1.0,0.0,7.0,6.0,1639.7432619996837,4.0,1.0,phase_3,,,,,98.0,2.0,245.0,49.0,294.0,147.0,196.0,98.0,gray,hexagon
0.0,5.0,0.5,1.0,7.0,2.0,2139.9255430005724,4.0,1.0,phase_3,,,,,132.0,3.0,176.0,132.0,220.0,44.0,264.0,88.0,orange,square
0.0,4.0,4.0,0.0,7.0,5.0,1453.244457999972,4.0,1.0,phase_3,,,,,147.0,3.0,49.0,196.0,98.0,294.0,147.0,245.0,magenta,I
0.0,7.0,2.0,1.0,7.0,3.0,3361.231005001173,4.0,1.0,phase_3,,,,,162.0,3.0,216.0,270.0,162.0,324.0,54.0,108.0,white,circle
0.0,4.0,4.0,0.0,7.0,5.0,2034.2538530003367,4.0,1.0,phase_3,,,,,176.0,4.0,220.0,264.0,132.0,88.0,176.0,44.0,magenta,I
0.0,4.0,4.0,0.0,7.0,1.0,2529.494420001356,4.0,1.0,phase_3,,,,,195.0,5.0,195.0,78.0,117.0,234.0,39.0,156.0,magenta,I
0.0,3.0,2.0,0.0,7.0,2.0,3569.4713610009785,4.0,1.0,phase_3,,,,,176.0,4.0,264.0,176.0,88.0,44.0,220.0,132.0,cyan,cross
0.0,1.0,0.5,0.0,7.0,4.0,1577.4094600001265,4.0,1.0,phase_3,,,,,216.0,4.0,162.0,108.0,54.0,216.0,324.0,270.0,green,flipped triangle
0.0,1.0,0.5,0.0,7.0,6.0,2182.1833829999377,4.0,1.0,phase_3,,,,,264.0,6.0,132.0,88.0,44.0,176.0,220.0,264.0,green,flipped triangle
0.0,3.0,2.0,0.0,7.0,5.0,2870.188392000273,4.0,1.0,phase_3,,,,,216.0,4.0,162.0,324.0,54.0,108.0,216.0,270.0,cyan,cross
0.0,5.0,0.5,1.0,7.0,5.0,3119.1735020001943,4.0,1.0,phase_3,,,,,245.0,5.0,147.0,98.0,49.0,196.0,245.0,294.0,orange,square
