raw_reward_magnitude,stim_reward,stepwise_reward_magnitude,paired_with_stopping,quadrant,response,reaction_time,block,num_trial_presentations,which_part,stop_signal_trial_type,left_SSD,right_SSD,accuracy,chosen_bidding_amount,chosen_bidding_level,possible_bid_1,possible_bid_2,possible_bid_3,possible_bid_4,possible_bid_5,possible_bid_6,color_text,shape_text
389.0,4.0,4.0,0.0,3.0,3.0,316.939480000201,1.0,1.0,part_1,,,,,,,,,,,,,orange,square
178.0,3.0,3.0,0.0,2.0,2.0,295.268058000147,1.0,1.0,part_1,,,,,,,,,,,,,yellow,triangle
181.0,3.0,3.0,0.0,3.0,3.0,399.10912200002707,1.0,1.0,part_1,,,,,,,,,,,,,yellow,triangle
0.0,4.0,0.0,0.0,1.0,1.0,410.7105000000501,1.0,1.0,part_1,,,,,,,,,,,,,orange,square
205.0,7.0,3.0,1.0,2.0,2.0,327.9302720000032,1.0,1.0,part_1,,,,,,,,,,,,,magenta,hexagon
91.0,6.0,2.0,1.0,1.0,1.0,347.3781380000673,1.0,1.0,part_1,,,,,,,,,,,,,white,I
208.0,7.0,3.0,1.0,4.0,4.0,260.0379220000377,1.0,1.0,part_1,,,,,,,,,,,,,magenta,hexagon
205.0,3.0,3.0,0.0,1.0,1.0,244.792082999993,1.0,1.0,part_1,,,,,,,,,,,,,yellow,triangle
198.0,7.0,3.0,1.0,2.0,2.0,303.510555999992,1.0,1.0,part_1,,,,,,,,,,,,,magenta,hexagon
91.0,2.0,2.0,0.0,4.0,4.0,332.2289749999072,1.0,2.0,part_1,,,,,,,,,,,,,blue,diamond
0.0,5.0,0.0,1.0,3.0,3.0,273.9949330000399,1.0,1.0,part_1,,,,,,,,,,,,,gray,cross
43.0,5.0,1.0,1.0,4.0,4.0,291.5672249998806,1.0,1.0,part_1,,,,,,,,,,,,,gray,cross
212.0,7.0,3.0,1.0,1.0,1.0,290.8342030000312,1.0,1.0,part_1,,,,,,,,,,,,,magenta,hexagon
68.0,5.0,1.0,1.0,1.0,1.0,340.8224950001113,1.0,1.0,part_1,,,,,,,,,,,,,gray,cross
67.0,1.0,1.0,0.0,4.0,4.0,322.8299180000249,1.0,1.0,part_1,,,,,,,,,,,,,green,circle
176.0,7.0,3.0,1.0,4.0,4.0,317.7122380000128,1.0,1.0,part_1,,,,,,,,,,,,,magenta,hexagon
30.0,1.0,1.0,0.0,4.0,4.0,353.9451799999824,1.0,1.0,part_1,,,,,,,,,,,,,green,circle
0.0,6.0,0.0,1.0,4.0,4.0,320.7763899999918,1.0,1.0,part_1,,,,,,,,,,,,,white,I
43.0,1.0,1.0,0.0,3.0,3.0,237.960103999967,1.0,1.0,part_1,,,,,,,,,,,,,green,circle
97.0,6.0,2.0,1.0,1.0,1.0,330.5002390000027,1.0,1.0,part_1,,,,,,,,,,,,,white,I
27.0,5.0,1.0,1.0,1.0,1.0,319.5640740000272,1.0,1.0,part_1,,,,,,,,,,,,,gray,cross
0.0,1.0,0.0,0.0,2.0,2.0,318.4753540001566,1.0,1.0,part_1,,,,,,,,,,,,,green,circle
0.0,3.0,0.0,0.0,3.0,3.0,313.1142169997929,1.0,1.0,part_1,,,,,,,,,,,,,yellow,triangle
399.0,4.0,4.0,0.0,4.0,4.0,317.4578410000777,1.0,1.0,part_1,,,,,,,,,,,,,orange,square
92.0,6.0,2.0,1.0,2.0,2.0,429.926696999928,1.0,1.0,part_1,,,,,,,,,,,,,white,I
61.0,1.0,1.0,0.0,3.0,3.0,282.5700379999034,1.0,1.0,part_1,,,,,,,,,,,,,green,circle
0.0,3.0,0.0,0.0,2.0,2.0,327.3286780001854,1.0,1.0,part_1,,,,,,,,,,,,,yellow,triangle
402.0,4.0,4.0,0.0,1.0,1.0,325.1383419999456,1.0,1.0,part_1,,,,,,,,,,,,,orange,square
97.0,2.0,2.0,0.0,2.0,2.0,327.7244389998941,1.0,1.0,part_1,,,,,,,,,,,,,blue,diamond
181.0,7.0,3.0,1.0,4.0,4.0,338.2457170000634,1.0,1.0,part_1,,,,,,,,,,,,,magenta,hexagon
92.0,2.0,2.0,0.0,4.0,4.0,320.7799960000557,1.0,1.0,part_1,,,,,,,,,,,,,blue,diamond
377.0,8.0,4.0,1.0,2.0,2.0,324.3331180001405,1.0,1.0,part_1,,,,,,,,,,,,,cyan,flipped triangle
0.0,7.0,0.0,1.0,1.0,1.0,323.5815779999029,1.0,1.0,part_1,,,,,,,,,,,,,magenta,hexagon
197.0,7.0,3.0,1.0,2.0,2.0,323.0815840001924,1.0,1.0,part_1,,,,,,,,,,,,,magenta,hexagon
421.0,8.0,4.0,1.0,3.0,3.0,341.0308630000145,1.0,1.0,part_1,,,,,,,,,,,,,cyan,flipped triangle
0.0,8.0,0.0,1.0,1.0,1.0,357.9477789999146,1.0,1.0,part_1,,,,,,,,,,,,,cyan,flipped triangle
95.0,2.0,2.0,0.0,2.0,2.0,289.4904219999716,1.0,1.0,part_1,,,,,,,,,,,,,blue,diamond
0.0,5.0,0.0,1.0,2.0,2.0,341.3443969998297,1.0,1.0,part_1,,,,,,,,,,,,,gray,cross
400.0,8.0,4.0,1.0,4.0,4.0,373.0110569999851,1.0,1.0,part_1,,,,,,,,,,,,,cyan,flipped triangle
72.0,5.0,1.0,1.0,2.0,2.0,305.9773529998892,1.0,1.0,part_1,,,,,,,,,,,,,gray,cross
208.0,3.0,3.0,0.0,4.0,4.0,332.6375690000986,1.0,1.0,part_1,,,,,,,,,,,,,yellow,triangle
223.0,3.0,3.0,0.0,3.0,3.0,345.1751320001222,1.0,1.0,part_1,,,,,,,,,,,,,yellow,triangle
182.0,7.0,3.0,1.0,1.0,1.0,419.2540530000315,1.0,1.0,part_1,,,,,,,,,,,,,magenta,hexagon
390.0,8.0,4.0,1.0,2.0,2.0,308.741757000007,1.0,1.0,part_1,,,,,,,,,,,,,cyan,flipped triangle
79.0,6.0,2.0,1.0,4.0,4.0,393.486810000013,1.0,1.0,part_1,,,,,,,,,,,,,white,I
0.0,7.0,0.0,1.0,4.0,4.0,338.0576789998031,1.0,1.0,part_1,,,,,,,,,,,,,magenta,hexagon
414.0,4.0,4.0,0.0,3.0,3.0,326.593437999918,1.0,1.0,part_1,,,,,,,,,,,,,orange,square
401.0,8.0,4.0,1.0,2.0,2.0,276.4062979999835,1.0,1.0,part_1,,,,,,,,,,,,,cyan,flipped triangle
82.0,2.0,2.0,0.0,1.0,1.0,343.5698309999679,1.0,1.0,part_1,,,,,,,,,,,,,blue,diamond
225.0,3.0,3.0,0.0,3.0,3.0,333.6742789999789,1.0,1.0,part_1,,,,,,,,,,,,,yellow,triangle
421.0,8.0,4.0,1.0,1.0,1.0,330.6133930000214,1.0,1.0,part_1,,,,,,,,,,,,,cyan,flipped triangle
177.0,3.0,3.0,0.0,2.0,2.0,313.2592419999582,1.0,1.0,part_1,,,,,,,,,,,,,yellow,triangle
397.0,4.0,4.0,0.0,1.0,1.0,312.5530370000433,1.0,1.0,part_1,,,,,,,,,,,,,orange,square
49.0,1.0,1.0,0.0,1.0,1.0,362.1300229999633,1.0,1.0,part_1,,,,,,,,,,,,,green,circle
0.0,6.0,0.0,1.0,3.0,3.0,357.9647530000329,1.0,1.0,part_1,,,,,,,,,,,,,white,I
0.0,7.0,0.0,1.0,4.0,4.0,353.7405520000902,1.0,1.0,part_1,,,,,,,,,,,,,magenta,hexagon
382.0,4.0,4.0,0.0,3.0,3.0,316.388403000019,1.0,1.0,part_1,,,,,,,,,,,,,orange,square
385.0,8.0,4.0,1.0,4.0,4.0,354.6478399998705,1.0,1.0,part_1,,,,,,,,,,,,,cyan,flipped triangle
55.0,5.0,1.0,1.0,2.0,2.0,336.9735700000547,1.0,1.0,part_1,,,,,,,,,,,,,gray,cross
46.0,5.0,1.0,1.0,3.0,3.0,315.9065229999669,1.0,1.0,part_1,,,,,,,,,,,,,gray,cross
0.0,3.0,0.0,0.0,1.0,1.0,349.8256849998142,1.0,1.0,part_1,,,,,,,,,,,,,yellow,triangle
197.0,3.0,3.0,0.0,2.0,2.0,326.486487000011,1.0,1.0,part_1,,,,,,,,,,,,,yellow,triangle
79.0,6.0,2.0,1.0,1.0,1.0,336.9057009999778,1.0,1.0,part_1,,,,,,,,,,,,,white,I
62.0,5.0,1.0,1.0,1.0,1.0,329.4206589998794,1.0,1.0,part_1,,,,,,,,,,,,,gray,cross
206.0,3.0,3.0,0.0,1.0,1.0,274.1250239998862,1.0,1.0,part_1,,,,,,,,,,,,,yellow,triangle
381.0,4.0,4.0,0.0,3.0,3.0,330.8986619999814,1.0,1.0,part_1,,,,,,,,,,,,,orange,square
218.0,3.0,3.0,0.0,3.0,3.0,343.296890999909,1.0,2.0,part_1,,,,,,,,,,,,,yellow,triangle
188.0,7.0,3.0,1.0,4.0,4.0,368.3153049998964,1.0,1.0,part_1,,,,,,,,,,,,,magenta,hexagon
108.0,6.0,2.0,1.0,2.0,2.0,374.2072229999849,1.0,1.0,part_1,,,,,,,,,,,,,white,I
213.0,3.0,3.0,0.0,1.0,1.0,315.5969399999776,1.0,1.0,part_1,,,,,,,,,,,,,yellow,triangle
0.0,1.0,0.0,0.0,1.0,1.0,372.1462269998028,1.0,1.0,part_1,,,,,,,,,,,,,green,circle
90.0,6.0,2.0,1.0,1.0,1.0,349.4600479998553,1.0,1.0,part_1,,,,,,,,,,,,,white,I
79.0,2.0,2.0,0.0,1.0,1.0,318.9250560001255,1.0,1.0,part_1,,,,,,,,,,,,,blue,diamond
36.0,5.0,1.0,1.0,3.0,3.0,410.8671250000952,1.0,1.0,part_1,,,,,,,,,,,,,gray,cross
397.0,8.0,4.0,1.0,1.0,1.0,262.7856220001376,1.0,1.0,part_1,,,,,,,,,,,,,cyan,flipped triangle
416.0,8.0,4.0,1.0,3.0,3.0,298.185027000045,1.0,1.0,part_1,,,,,,,,,,,,,cyan,flipped triangle
224.0,7.0,3.0,1.0,3.0,3.0,327.9772769999454,1.0,1.0,part_1,,,,,,,,,,,,,magenta,hexagon
389.0,8.0,4.0,1.0,3.0,3.0,326.4148629998544,1.0,1.0,part_1,,,,,,,,,,,,,cyan,flipped triangle
199.0,3.0,3.0,0.0,3.0,3.0,329.6699620000254,1.0,1.0,part_1,,,,,,,,,,,,,yellow,triangle
424.0,4.0,4.0,0.0,2.0,2.0,288.987625000118,1.0,1.0,part_1,,,,,,,,,,,,,orange,square
90.0,2.0,2.0,0.0,2.0,2.0,345.6375660000503,1.0,1.0,part_1,,,,,,,,,,,,,blue,diamond
124.0,2.0,2.0,0.0,3.0,3.0,435.8866039999611,1.0,1.0,part_1,,,,,,,,,,,,,blue,diamond
30.0,5.0,1.0,1.0,4.0,4.0,381.7398000001049,1.0,1.0,part_1,,,,,,,,,,,,,gray,cross
178.0,7.0,3.0,1.0,2.0,2.0,297.7906529999927,1.0,1.0,part_1,,,,,,,,,,,,,magenta,hexagon
384.0,4.0,4.0,0.0,4.0,4.0,399.9588340000173,1.0,1.0,part_1,,,,,,,,,,,,,orange,square
91.0,2.0,2.0,0.0,1.0,1.0,313.8944930001344,1.0,2.0,part_1,,,,,,,,,,,,,blue,diamond
0.0,6.0,0.0,1.0,1.0,1.0,390.7296959998803,1.0,1.0,part_1,,,,,,,,,,,,,white,I
49.0,5.0,1.0,1.0,3.0,3.0,343.8835609999842,1.0,1.0,part_1,,,,,,,,,,,,,gray,cross
120.0,2.0,2.0,0.0,3.0,3.0,342.2285530000408,1.0,1.0,part_1,,,,,,,,,,,,,blue,diamond
106.0,6.0,2.0,1.0,3.0,3.0,305.7968919999894,1.0,1.0,part_1,,,,,,,,,,,,,white,I
0.0,4.0,0.0,0.0,2.0,2.0,296.4651610000146,1.0,1.0,part_1,,,,,,,,,,,,,orange,square
116.0,6.0,2.0,1.0,4.0,4.0,446.0298409999268,1.0,1.0,part_1,,,,,,,,,,,,,white,I
375.0,4.0,4.0,0.0,2.0,2.0,308.1801240000459,1.0,1.0,part_1,,,,,,,,,,,,,orange,square
0.0,3.0,0.0,0.0,2.0,2.0,348.0373849999978,1.0,1.0,part_1,,,,,,,,,,,,,yellow,triangle
0.0,2.0,0.0,0.0,4.0,4.0,386.852774999852,1.0,1.0,part_1,,,,,,,,,,,,,blue,diamond
0.0,2.0,0.0,0.0,2.0,2.0,290.8940389997951,1.0,1.0,part_1,,,,,,,,,,,,,blue,diamond
115.0,6.0,2.0,1.0,2.0,2.0,297.7618650002114,1.0,1.0,part_1,,,,,,,,,,,,,white,I
0.0,4.0,0.0,0.0,2.0,2.0,343.4654529999079,1.0,1.0,part_1,,,,,,,,,,,,,orange,square
418.0,4.0,4.0,0.0,1.0,1.0,395.298959999991,1.0,1.0,part_1,,,,,,,,,,,,,orange,square
0.0,4.0,0.0,0.0,4.0,4.0,319.1685399999642,1.0,1.0,part_1,,,,,,,,,,,,,orange,square
180.0,3.0,3.0,0.0,2.0,2.0,312.0663290001175,2.0,1.0,part_1,,,,,,,,,,,,,yellow,triangle
48.0,1.0,1.0,0.0,4.0,4.0,291.2074060000122,2.0,1.0,part_1,,,,,,,,,,,,,green,circle
416.0,4.0,4.0,0.0,1.0,1.0,291.5068140000585,2.0,1.0,part_1,,,,,,,,,,,,,orange,square
403.0,4.0,4.0,0.0,1.0,1.0,321.51113899999467,2.0,1.0,part_1,,,,,,,,,,,,,orange,square
387.0,4.0,4.0,0.0,2.0,2.0,322.1590009998181,2.0,1.0,part_1,,,,,,,,,,,,,orange,square
419.0,8.0,4.0,1.0,4.0,4.0,336.8305300000429,2.0,1.0,part_1,,,,,,,,,,,,,cyan,flipped triangle
0.0,3.0,0.0,0.0,1.0,1.0,301.4678429999549,2.0,1.0,part_1,,,,,,,,,,,,,yellow,triangle
403.0,8.0,4.0,1.0,2.0,2.0,276.017783000043,2.0,1.0,part_1,,,,,,,,,,,,,cyan,flipped triangle
26.0,5.0,1.0,1.0,2.0,2.0,304.0593910000098,2.0,1.0,part_1,,,,,,,,,,,,,gray,cross
83.0,6.0,2.0,1.0,4.0,4.0,362.8662599999188,2.0,1.0,part_1,,,,,,,,,,,,,white,I
377.0,4.0,4.0,0.0,1.0,1.0,279.1931290000775,2.0,1.0,part_1,,,,,,,,,,,,,orange,square
32.0,5.0,1.0,1.0,2.0,2.0,314.7235879998789,2.0,1.0,part_1,,,,,,,,,,,,,gray,cross
0.0,5.0,0.0,1.0,3.0,3.0,283.02001499992,2.0,1.0,part_1,,,,,,,,,,,,,gray,cross
52.0,1.0,1.0,0.0,3.0,3.0,337.7279559999806,2.0,1.0,part_1,,,,,,,,,,,,,green,circle
110.0,6.0,2.0,1.0,4.0,4.0,350.0105329999314,2.0,1.0,part_1,,,,,,,,,,,,,white,I
85.0,6.0,2.0,1.0,1.0,1.0,306.1633570000595,2.0,1.0,part_1,,,,,,,,,,,,,white,I
396.0,4.0,4.0,0.0,2.0,2.0,292.9858580000655,2.0,1.0,part_1,,,,,,,,,,,,,orange,square
0.0,4.0,0.0,0.0,4.0,4.0,315.9890319998339,2.0,1.0,part_1,,,,,,,,,,,,,orange,square
0.0,2.0,0.0,0.0,2.0,2.0,249.441847999833,2.0,1.0,part_1,,,,,,,,,,,,,blue,diamond
0.0,2.0,0.0,0.0,4.0,4.0,295.9438309999314,2.0,1.0,part_1,,,,,,,,,,,,,blue,diamond
122.0,6.0,2.0,1.0,2.0,2.0,276.6980540000077,2.0,1.0,part_1,,,,,,,,,,,,,white,I
32.0,1.0,1.0,0.0,1.0,1.0,272.9302269999607,2.0,1.0,part_1,,,,,,,,,,,,,green,circle
0.0,6.0,0.0,1.0,2.0,2.0,273.9297910000005,2.0,1.0,part_1,,,,,,,,,,,,,white,I
79.0,2.0,2.0,0.0,4.0,4.0,306.0362250000707,2.0,1.0,part_1,,,,,,,,,,,,,blue,diamond
0.0,8.0,0.0,1.0,2.0,2.0,242.6641139998082,2.0,1.0,part_1,,,,,,,,,,,,,cyan,flipped triangle
27.0,1.0,1.0,0.0,2.0,2.0,285.3503410001394,2.0,1.0,part_1,,,,,,,,,,,,,green,circle
201.0,7.0,3.0,1.0,3.0,3.0,272.9257200001029,2.0,1.0,part_1,,,,,,,,,,,,,magenta,hexagon
179.0,7.0,3.0,1.0,2.0,2.0,256.0943879998376,2.0,1.0,part_1,,,,,,,,,,,,,magenta,hexagon
0.0,8.0,0.0,1.0,4.0,4.0,430.5412090000118,2.0,1.0,part_1,,,,,,,,,,,,,cyan,flipped triangle
188.0,3.0,3.0,0.0,4.0,4.0,315.7089979999909,2.0,1.0,part_1,,,,,,,,,,,,,yellow,triangle
43.0,1.0,1.0,0.0,3.0,3.0,341.2528139999722,2.0,2.0,part_1,,,,,,,,,,,,,green,circle
421.0,4.0,4.0,0.0,4.0,4.0,395.5668469998272,2.0,1.0,part_1,,,,,,,,,,,,,orange,square
106.0,2.0,2.0,0.0,2.0,2.0,288.2828309998331,2.0,1.0,part_1,,,,,,,,,,,,,blue,diamond
206.0,7.0,3.0,1.0,3.0,3.0,261.1337580001418,2.0,1.0,part_1,,,,,,,,,,,,,magenta,hexagon
0.0,4.0,0.0,0.0,1.0,1.0,379.6032590000777,2.0,1.0,part_1,,,,,,,,,,,,,orange,square
217.0,7.0,3.0,1.0,1.0,1.0,421.5332599999328,2.0,1.0,part_1,,,,,,,,,,,,,magenta,hexagon
224.0,3.0,3.0,0.0,1.0,1.0,305.8462399999371,2.0,1.0,part_1,,,,,,,,,,,,,yellow,triangle
61.0,5.0,1.0,1.0,4.0,4.0,347.9706430000533,2.0,1.0,part_1,,,,,,,,,,,,,gray,cross
407.0,8.0,4.0,1.0,4.0,4.0,462.55891099986,2.0,1.0,part_1,,,,,,,,,,,,,cyan,flipped triangle
91.0,6.0,2.0,1.0,1.0,1.0,442.1569630001158,2.0,1.0,part_1,,,,,,,,,,,,,white,I
111.0,6.0,2.0,1.0,2.0,2.0,338.7367450000056,2.0,1.0,part_1,,,,,,,,,,,,,white,I
198.0,3.0,3.0,0.0,1.0,1.0,380.7651629999782,2.0,1.0,part_1,,,,,,,,,,,,,yellow,triangle
224.0,3.0,3.0,0.0,1.0,1.0,313.8241939998352,2.0,1.0,part_1,,,,,,,,,,,,,yellow,triangle
100.0,2.0,2.0,0.0,1.0,1.0,376.0533649999615,2.0,1.0,part_1,,,,,,,,,,,,,blue,diamond
0.0,6.0,0.0,1.0,2.0,2.0,412.6709590000246,2.0,1.0,part_1,,,,,,,,,,,,,white,I
399.0,8.0,4.0,1.0,1.0,1.0,431.7047729998648,2.0,1.0,part_1,,,,,,,,,,,,,cyan,flipped triangle
222.0,3.0,3.0,0.0,2.0,2.0,315.1898870000877,2.0,1.0,part_1,,,,,,,,,,,,,yellow,triangle
389.0,4.0,4.0,0.0,3.0,3.0,372.3005679999005,2.0,1.0,part_1,,,,,,,,,,,,,orange,square
0.0,1.0,0.0,0.0,4.0,4.0,421.2584619999688,2.0,1.0,part_1,,,,,,,,,,,,,green,circle
67.0,5.0,1.0,1.0,2.0,2.0,315.5964259999564,2.0,1.0,part_1,,,,,,,,,,,,,gray,cross
112.0,2.0,2.0,0.0,4.0,4.0,347.9006519999075,2.0,1.0,part_1,,,,,,,,,,,,,blue,diamond
102.0,2.0,2.0,0.0,2.0,2.0,295.3993710000304,2.0,1.0,part_1,,,,,,,,,,,,,blue,diamond
40.0,5.0,1.0,1.0,3.0,3.0,298.3048930000223,2.0,1.0,part_1,,,,,,,,,,,,,gray,cross
113.0,6.0,2.0,1.0,3.0,3.0,318.9830159999474,2.0,1.0,part_1,,,,,,,,,,,,,white,I
186.0,3.0,3.0,0.0,1.0,1.0,329.326791999847,2.0,1.0,part_1,,,,,,,,,,,,,yellow,triangle
64.0,1.0,1.0,0.0,2.0,2.0,262.6304020000134,2.0,1.0,part_1,,,,,,,,,,,,,green,circle
40.0,1.0,1.0,0.0,4.0,4.0,365.2889110001069,2.0,2.0,part_1,,,,,,,,,,,,,green,circle
396.0,8.0,4.0,1.0,3.0,3.0,338.1173049999688,2.0,1.0,part_1,,,,,,,,,,,,,cyan,flipped triangle
0.0,1.0,0.0,0.0,3.0,3.0,318.3842199998707,2.0,1.0,part_1,,,,,,,,,,,,,green,circle
28.0,5.0,1.0,1.0,2.0,2.0,284.5990890000394,2.0,1.0,part_1,,,,,,,,,,,,,gray,cross
420.0,8.0,4.0,1.0,4.0,4.0,331.2520929998754,2.0,1.0,part_1,,,,,,,,,,,,,cyan,flipped triangle
402.0,8.0,4.0,1.0,2.0,2.0,295.8459999999832,2.0,1.0,part_1,,,,,,,,,,,,,cyan,flipped triangle
91.0,2.0,2.0,0.0,4.0,4.0,448.585740999988,2.0,1.0,part_1,,,,,,,,,,,,,blue,diamond
206.0,7.0,3.0,1.0,3.0,3.0,333.7819360001504,2.0,1.0,part_1,,,,,,,,,,,,,magenta,hexagon
0.0,1.0,0.0,0.0,2.0,2.0,262.9249169999639,2.0,1.0,part_1,,,,,,,,,,,,,green,circle
419.0,4.0,4.0,0.0,2.0,2.0,359.2072400001598,2.0,1.0,part_1,,,,,,,,,,,,,orange,square
80.0,6.0,2.0,1.0,3.0,3.0,350.5081490000066,2.0,1.0,part_1,,,,,,,,,,,,,white,I
0.0,7.0,0.0,1.0,2.0,2.0,368.2374600000457,2.0,1.0,part_1,,,,,,,,,,,,,magenta,hexagon
223.0,7.0,3.0,1.0,4.0,4.0,340.4668059999949,2.0,1.0,part_1,,,,,,,,,,,,,magenta,hexagon
379.0,4.0,4.0,0.0,3.0,3.0,394.6147540000311,2.0,1.0,part_1,,,,,,,,,,,,,orange,square
0.0,5.0,0.0,1.0,3.0,3.0,360.1346269999794,2.0,1.0,part_1,,,,,,,,,,,,,gray,cross
102.0,6.0,2.0,1.0,3.0,3.0,315.6378000001041,2.0,1.0,part_1,,,,,,,,,,,,,white,I
393.0,4.0,4.0,0.0,3.0,3.0,321.046294000098,2.0,1.0,part_1,,,,,,,,,,,,,orange,square
0.0,7.0,0.0,1.0,3.0,3.0,350.7525709999299,2.0,1.0,part_1,,,,,,,,,,,,,magenta,hexagon
401.0,4.0,4.0,0.0,4.0,4.0,415.0768970000627,2.0,1.0,part_1,,,,,,,,,,,,,orange,square
100.0,2.0,2.0,0.0,3.0,3.0,302.0691560000159,2.0,1.0,part_1,,,,,,,,,,,,,blue,diamond
79.0,6.0,2.0,1.0,3.0,3.0,318.6324900000272,2.0,1.0,part_1,,,,,,,,,,,,,white,I
0.0,3.0,0.0,0.0,1.0,1.0,460.459647999869,2.0,1.0,part_1,,,,,,,,,,,,,yellow,triangle
75.0,5.0,1.0,1.0,3.0,3.0,316.9631619998654,2.0,1.0,part_1,,,,,,,,,,,,,gray,cross
36.0,1.0,1.0,0.0,3.0,3.0,333.5386559999733,2.0,1.0,part_1,,,,,,,,,,,,,green,circle
101.0,2.0,2.0,0.0,2.0,2.0,313.5173759999361,2.0,1.0,part_1,,,,,,,,,,,,,blue,diamond
39.0,5.0,1.0,1.0,1.0,1.0,423.6269969999284,2.0,1.0,part_1,,,,,,,,,,,,,gray,cross
35.0,1.0,1.0,0.0,4.0,4.0,361.7469619998701,2.0,1.0,part_1,,,,,,,,,,,,,green,circle
419.0,4.0,4.0,0.0,4.0,4.0,399.4710900001337,2.0,1.0,part_1,,,,,,,,,,,,,orange,square
90.0,2.0,2.0,0.0,4.0,4.0,355.5043670000941,2.0,1.0,part_1,,,,,,,,,,,,,blue,diamond
0.0,8.0,0.0,1.0,1.0,1.0,363.7183210000785,2.0,1.0,part_1,,,,,,,,,,,,,cyan,flipped triangle
86.0,6.0,2.0,1.0,4.0,4.0,307.4928450000698,2.0,1.0,part_1,,,,,,,,,,,,,white,I
407.0,4.0,4.0,0.0,1.0,1.0,339.2266519999793,2.0,1.0,part_1,,,,,,,,,,,,,orange,square
397.0,4.0,4.0,0.0,3.0,3.0,300.8960629999819,2.0,1.0,part_1,,,,,,,,,,,,,orange,square
122.0,2.0,2.0,0.0,2.0,2.0,329.1867210000418,2.0,1.0,part_1,,,,,,,,,,,,,blue,diamond
64.0,5.0,1.0,1.0,2.0,2.0,346.76972200009,2.0,1.0,part_1,,,,,,,,,,,,,gray,cross
0.0,1.0,0.0,0.0,2.0,2.0,309.5781490001172,2.0,1.0,part_1,,,,,,,,,,,,,green,circle
180.0,7.0,3.0,1.0,3.0,3.0,349.8307810000369,2.0,1.0,part_1,,,,,,,,,,,,,magenta,hexagon
198.0,7.0,3.0,1.0,2.0,2.0,413.3603370000855,2.0,1.0,part_1,,,,,,,,,,,,,magenta,hexagon
62.0,1.0,1.0,0.0,1.0,1.0,421.4484459998857,2.0,1.0,part_1,,,,,,,,,,,,,green,circle
402.0,8.0,4.0,1.0,3.0,3.0,366.960156999994,2.0,1.0,part_1,,,,,,,,,,,,,cyan,flipped triangle
0.0,2.0,0.0,0.0,2.0,2.0,324.4386380001742,2.0,1.0,part_1,,,,,,,,,,,,,blue,diamond
177.0,7.0,3.0,1.0,4.0,4.0,373.0260840000028,2.0,1.0,part_1,,,,,,,,,,,,,magenta,hexagon
0.0,7.0,0.0,1.0,4.0,4.0,377.8377759999785,2.0,1.0,part_1,,,,,,,,,,,,,magenta,hexagon
0.0,8.0,0.0,1.0,4.0,4.0,370.2046460000474,2.0,1.0,part_1,,,,,,,,,,,,,cyan,flipped triangle
91.0,2.0,2.0,0.0,1.0,1.0,346.6487200000756,3.0,1.0,part_1,,,,,,,,,,,,,blue,diamond
61.0,1.0,1.0,0.0,1.0,1.0,316.1893269998472,3.0,1.0,part_1,,,,,,,,,,,,,green,circle
0.0,2.0,0.0,0.0,1.0,1.0,305.5798969999159,3.0,1.0,part_1,,,,,,,,,,,,,blue,diamond
0.0,8.0,0.0,1.0,1.0,1.0,371.4456520001477,3.0,1.0,part_1,,,,,,,,,,,,,cyan,flipped triangle
0.0,7.0,0.0,1.0,2.0,2.0,309.7454610001477,3.0,1.0,part_1,,,,,,,,,,,,,magenta,hexagon
384.0,8.0,4.0,1.0,4.0,4.0,303.6946309998711,3.0,1.0,part_1,,,,,,,,,,,,,cyan,flipped triangle
52.0,5.0,1.0,1.0,1.0,1.0,339.8629830003301,3.0,1.0,part_1,,,,,,,,,,,,,gray,cross
422.0,4.0,4.0,0.0,2.0,2.0,347.9791740001019,3.0,1.0,part_1,,,,,,,,,,,,,orange,square
0.0,4.0,0.0,0.0,1.0,1.0,302.9070299999148,3.0,1.0,part_1,,,,,,,,,,,,,orange,square
193.0,7.0,3.0,1.0,3.0,3.0,305.0461739999264,3.0,1.0,part_1,,,,,,,,,,,,,magenta,hexagon
58.0,1.0,1.0,0.0,2.0,2.0,293.3639369998673,3.0,1.0,part_1,,,,,,,,,,,,,green,circle
43.0,5.0,1.0,1.0,3.0,3.0,373.3192149998103,3.0,1.0,part_1,,,,,,,,,,,,,gray,cross
70.0,1.0,1.0,0.0,1.0,1.0,275.166777999857,3.0,1.0,part_1,,,,,,,,,,,,,green,circle
217.0,3.0,3.0,0.0,3.0,3.0,304.3420429999059,3.0,1.0,part_1,,,,,,,,,,,,,yellow,triangle
225.0,7.0,3.0,1.0,1.0,1.0,310.5397110002741,3.0,1.0,part_1,,,,,,,,,,,,,magenta,hexagon
387.0,8.0,4.0,1.0,3.0,3.0,288.4467439998843,3.0,1.0,part_1,,,,,,,,,,,,,cyan,flipped triangle
0.0,6.0,0.0,1.0,1.0,1.0,316.9467039997471,3.0,1.0,part_1,,,,,,,,,,,,,white,I
0.0,4.0,0.0,0.0,4.0,4.0,322.8179660000023,3.0,1.0,part_1,,,,,,,,,,,,,orange,square
97.0,2.0,2.0,0.0,1.0,1.0,277.4180179999348,3.0,1.0,part_1,,,,,,,,,,,,,blue,diamond
73.0,1.0,1.0,0.0,2.0,2.0,322.8362449999622,3.0,1.0,part_1,,,,,,,,,,,,,green,circle
0.0,7.0,0.0,1.0,2.0,2.0,526.5872760001002,3.0,1.0,part_1,,,,,,,,,,,,,magenta,hexagon
188.0,3.0,3.0,0.0,2.0,2.0,376.4862749999338,3.0,1.0,part_1,,,,,,,,,,,,,yellow,triangle
101.0,6.0,2.0,1.0,4.0,4.0,342.2977200002606,3.0,1.0,part_1,,,,,,,,,,,,,white,I
201.0,3.0,3.0,0.0,4.0,4.0,351.2601630000063,3.0,1.0,part_1,,,,,,,,,,,,,yellow,triangle
101.0,2.0,2.0,0.0,4.0,4.0,360.5631730001732,3.0,1.0,part_1,,,,,,,,,,,,,blue,diamond
0.0,8.0,0.0,1.0,4.0,4.0,328.4487709997847,3.0,1.0,part_1,,,,,,,,,,,,,cyan,flipped triangle
120.0,6.0,2.0,1.0,2.0,2.0,322.7599229999214,3.0,1.0,part_1,,,,,,,,,,,,,white,I
185.0,7.0,3.0,1.0,3.0,3.0,294.9997900000198,3.0,1.0,part_1,,,,,,,,,,,,,magenta,hexagon
0.0,2.0,0.0,0.0,4.0,4.0,382.5601780004035,3.0,1.0,part_1,,,,,,,,,,,,,blue,diamond
206.0,3.0,3.0,0.0,3.0,3.0,363.1266929996855,3.0,1.0,part_1,,,,,,,,,,,,,yellow,triangle
189.0,7.0,3.0,1.0,1.0,1.0,326.9500090000292,3.0,1.0,part_1,,,,,,,,,,,,,magenta,hexagon
420.0,4.0,4.0,0.0,1.0,1.0,398.3569879997048,3.0,1.0,part_1,,,,,,,,,,,,,orange,square
400.0,4.0,4.0,0.0,1.0,1.0,310.3005279999706,3.0,1.0,part_1,,,,,,,,,,,,,orange,square
28.0,5.0,1.0,1.0,2.0,2.0,305.3849979996812,3.0,1.0,part_1,,,,,,,,,,,,,gray,cross
408.0,4.0,4.0,0.0,4.0,4.0,371.4076580004075,3.0,1.0,part_1,,,,,,,,,,,,,orange,square
0.0,3.0,0.0,0.0,2.0,2.0,393.5210620002181,3.0,1.0,part_1,,,,,,,,,,,,,yellow,triangle
380.0,8.0,4.0,1.0,2.0,2.0,334.3860669997411,3.0,1.0,part_1,,,,,,,,,,,,,cyan,flipped triangle
380.0,4.0,4.0,0.0,4.0,4.0,386.0019210001155,3.0,1.0,part_1,,,,,,,,,,,,,orange,square
67.0,5.0,1.0,1.0,4.0,4.0,496.6943429999446,3.0,1.0,part_1,,,,,,,,,,,,,gray,cross
113.0,2.0,2.0,0.0,2.0,2.0,385.7911710001644,3.0,1.0,part_1,,,,,,,,,,,,,blue,diamond
100.0,6.0,2.0,1.0,3.0,3.0,348.459590999937,3.0,1.0,part_1,,,,,,,,,,,,,white,I
35.0,5.0,1.0,1.0,1.0,1.0,345.7040570001481,3.0,1.0,part_1,,,,,,,,,,,,,gray,cross
28.0,1.0,1.0,0.0,2.0,2.0,333.896138,3.0,1.0,part_1,,,,,,,,,,,,,green,circle
0.0,1.0,0.0,0.0,2.0,2.0,311.6893890000938,3.0,1.0,part_1,,,,,,,,,,,,,green,circle
402.0,4.0,4.0,0.0,3.0,3.0,303.3098169998993,3.0,1.0,part_1,,,,,,,,,,,,,orange,square
38.0,1.0,1.0,0.0,4.0,4.0,326.2659070001064,3.0,1.0,part_1,,,,,,,,,,,,,green,circle
186.0,7.0,3.0,1.0,2.0,2.0,259.7770439997475,3.0,1.0,part_1,,,,,,,,,,,,,magenta,hexagon
49.0,5.0,1.0,1.0,2.0,2.0,567.2878710001896,3.0,1.0,part_1,,,,,,,,,,,,,gray,cross
57.0,1.0,1.0,0.0,4.0,4.0,377.1804180000799,3.0,1.0,part_1,,,,,,,,,,,,,green,circle
0.0,5.0,0.0,1.0,3.0,3.0,303.0725369999345,3.0,1.0,part_1,,,,,,,,,,,,,gray,cross
0.0,3.0,0.0,0.0,2.0,2.0,256.8744289997084,3.0,1.0,part_1,,,,,,,,,,,,,yellow,triangle
70.0,5.0,1.0,1.0,2.0,2.0,253.98574300015753,3.0,1.0,part_1,,,,,,,,,,,,,gray,cross
109.0,2.0,2.0,0.0,4.0,4.0,288.9453960001447,3.0,1.0,part_1,,,,,,,,,,,,,blue,diamond
107.0,2.0,2.0,0.0,3.0,3.0,307.8066289999697,3.0,1.0,part_1,,,,,,,,,,,,,blue,diamond
217.0,7.0,3.0,1.0,4.0,4.0,310.7742839997627,3.0,1.0,part_1,,,,,,,,,,,,,magenta,hexagon
75.0,1.0,1.0,0.0,3.0,3.0,334.1372879999653,3.0,1.0,part_1,,,,,,,,,,,,,green,circle
0.0,6.0,0.0,1.0,2.0,2.0,272.3059869999815,3.0,1.0,part_1,,,,,,,,,,,,,white,I
67.0,1.0,1.0,0.0,3.0,3.0,286.8591000001288,3.0,1.0,part_1,,,,,,,,,,,,,green,circle
389.0,8.0,4.0,1.0,1.0,1.0,256.1067219999131,3.0,1.0,part_1,,,,,,,,,,,,,cyan,flipped triangle
80.0,2.0,2.0,0.0,3.0,3.0,321.9549240002379,3.0,1.0,part_1,,,,,,,,,,,,,blue,diamond
379.0,8.0,4.0,1.0,2.0,2.0,301.1148499999763,3.0,1.0,part_1,,,,,,,,,,,,,cyan,flipped triangle
408.0,8.0,4.0,1.0,3.0,3.0,308.2809449997512,3.0,1.0,part_1,,,,,,,,,,,,,cyan,flipped triangle
112.0,6.0,2.0,1.0,1.0,1.0,315.1608909997776,3.0,1.0,part_1,,,,,,,,,,,,,white,I
211.0,7.0,3.0,1.0,1.0,1.0,320.0436349998199,3.0,1.0,part_1,,,,,,,,,,,,,magenta,hexagon
38.0,5.0,1.0,1.0,1.0,1.0,316.2851890001548,3.0,1.0,part_1,,,,,,,,,,,,,gray,cross
0.0,6.0,0.0,1.0,1.0,1.0,310.9524770002281,3.0,1.0,part_1,,,,,,,,,,,,,white,I
220.0,7.0,3.0,1.0,2.0,2.0,255.2279619999353,3.0,1.0,part_1,,,,,,,,,,,,,magenta,hexagon
414.0,8.0,4.0,1.0,1.0,1.0,319.3766029999096,3.0,1.0,part_1,,,,,,,,,,,,,cyan,flipped triangle
389.0,4.0,4.0,0.0,2.0,2.0,304.0241209996566,3.0,1.0,part_1,,,,,,,,,,,,,orange,square
124.0,6.0,2.0,1.0,3.0,3.0,400.9255470000425,3.0,1.0,part_1,,,,,,,,,,,,,white,I
188.0,7.0,3.0,1.0,4.0,4.0,375.3306959997644,3.0,1.0,part_1,,,,,,,,,,,,,magenta,hexagon
0.0,6.0,0.0,1.0,1.0,1.0,283.0426330001501,3.0,1.0,part_1,,,,,,,,,,,,,white,I
422.0,8.0,4.0,1.0,3.0,3.0,270.046433999596,3.0,1.0,part_1,,,,,,,,,,,,,cyan,flipped triangle
68.0,1.0,1.0,0.0,1.0,1.0,295.9486559998368,3.0,1.0,part_1,,,,,,,,,,,,,green,circle
399.0,8.0,4.0,1.0,1.0,1.0,396.0614870002246,3.0,1.0,part_1,,,,,,,,,,,,,cyan,flipped triangle
387.0,4.0,4.0,0.0,2.0,2.0,308.2642969998233,3.0,1.0,part_1,,,,,,,,,,,,,orange,square
387.0,8.0,4.0,1.0,2.0,2.0,441.6993320000983,3.0,1.0,part_1,,,,,,,,,,,,,cyan,flipped triangle
75.0,1.0,1.0,0.0,3.0,3.0,335.6359489998795,3.0,1.0,part_1,,,,,,,,,,,,,green,circle
30.0,1.0,1.0,0.0,1.0,1.0,295.8713459997852,3.0,1.0,part_1,,,,,,,,,,,,,green,circle
0.0,5.0,0.0,1.0,4.0,4.0,409.815854000044,3.0,1.0,part_1,,,,,,,,,,,,,gray,cross
414.0,8.0,4.0,1.0,1.0,1.0,283.8200800001687,3.0,1.0,part_1,,,,,,,,,,,,,cyan,flipped triangle
57.0,5.0,1.0,1.0,3.0,3.0,367.1615069997642,3.0,1.0,part_1,,,,,,,,,,,,,gray,cross
198.0,3.0,3.0,0.0,4.0,4.0,310.7538790000035,3.0,1.0,part_1,,,,,,,,,,,,,yellow,triangle
60.0,1.0,1.0,0.0,2.0,2.0,307.6251270003922,3.0,1.0,part_1,,,,,,,,,,,,,green,circle
0.0,5.0,0.0,1.0,4.0,4.0,370.2230809999491,3.0,1.0,part_1,,,,,,,,,,,,,gray,cross
0.0,2.0,0.0,0.0,4.0,4.0,376.2943900001119,3.0,1.0,part_1,,,,,,,,,,,,,blue,diamond
97.0,6.0,2.0,1.0,3.0,3.0,322.972782999841,3.0,1.0,part_1,,,,,,,,,,,,,white,I
95.0,6.0,2.0,1.0,4.0,4.0,409.6772199995939,3.0,1.0,part_1,,,,,,,,,,,,,white,I
39.0,1.0,1.0,0.0,2.0,2.0,255.22786100009398,3.0,1.0,part_1,,,,,,,,,,,,,green,circle
191.0,7.0,3.0,1.0,3.0,3.0,338.14256200003,3.0,1.0,part_1,,,,,,,,,,,,,magenta,hexagon
109.0,6.0,2.0,1.0,1.0,1.0,337.859472999753,3.0,1.0,part_1,,,,,,,,,,,,,white,I
86.0,2.0,2.0,0.0,3.0,3.0,362.7164459999221,3.0,1.0,part_1,,,,,,,,,,,,,blue,diamond
0.0,1.0,0.0,0.0,2.0,2.0,302.9020099997979,3.0,1.0,part_1,,,,,,,,,,,,,green,circle
184.0,3.0,3.0,0.0,4.0,4.0,415.635593999923,3.0,1.0,part_1,,,,,,,,,,,,,yellow,triangle
182.0,3.0,3.0,0.0,4.0,4.0,336.5844210002251,3.0,1.0,part_1,,,,,,,,,,,,,yellow,triangle
412.0,4.0,4.0,0.0,4.0,4.0,283.3684709999033,3.0,1.0,part_1,,,,,,,,,,,,,orange,square
58.0,5.0,1.0,1.0,4.0,4.0,289.2582680001396,3.0,1.0,part_1,,,,,,,,,,,,,gray,cross
59.0,5.0,1.0,1.0,3.0,3.0,328.1160859996817,3.0,1.0,part_1,,,,,,,,,,,,,gray,cross
46.0,1.0,1.0,0.0,4.0,4.0,329.7167339997031,3.0,1.0,part_1,,,,,,,,,,,,,green,circle
393.0,8.0,4.0,1.0,2.0,2.0,306.8984810001893,3.0,1.0,part_1,,,,,,,,,,,,,cyan,flipped triangle
124.0,6.0,2.0,1.0,4.0,4.0,373.0738250001195,4.0,1.0,part_1,,,,,,,,,,,,,white,I
375.0,8.0,4.0,1.0,1.0,1.0,438.8299440001901,4.0,1.0,part_1,,,,,,,,,,,,,cyan,flipped triangle
33.0,5.0,1.0,1.0,4.0,4.0,336.3585060001242,4.0,1.0,part_1,,,,,,,,,,,,,gray,cross
218.0,7.0,3.0,1.0,3.0,3.0,268.0100190000303,4.0,1.0,part_1,,,,,,,,,,,,,magenta,hexagon
0.0,6.0,0.0,1.0,2.0,2.0,289.9905829999625,4.0,1.0,part_1,,,,,,,,,,,,,white,I
32.0,5.0,1.0,1.0,4.0,4.0,320.7987679998041,4.0,1.0,part_1,,,,,,,,,,,,,gray,cross
176.0,3.0,3.0,0.0,2.0,2.0,499.7050029996899,4.0,1.0,part_1,,,,,,,,,,,,,yellow,triangle
49.0,1.0,1.0,0.0,1.0,1.0,280.2339509999001,4.0,1.0,part_1,,,,,,,,,,,,,green,circle
381.0,8.0,4.0,1.0,4.0,4.0,328.0431670000325,4.0,1.0,part_1,,,,,,,,,,,,,cyan,flipped triangle
115.0,2.0,2.0,0.0,1.0,1.0,382.278726000095,4.0,1.0,part_1,,,,,,,,,,,,,blue,diamond
222.0,7.0,3.0,1.0,4.0,4.0,324.2055699997763,4.0,1.0,part_1,,,,,,,,,,,,,magenta,hexagon
208.0,7.0,3.0,1.0,1.0,1.0,325.8989589999146,4.0,1.0,part_1,,,,,,,,,,,,,magenta,hexagon
184.0,7.0,3.0,1.0,1.0,1.0,333.4302029998071,4.0,1.0,part_1,,,,,,,,,,,,,magenta,hexagon
198.0,7.0,3.0,1.0,2.0,2.0,242.6292590002958,4.0,1.0,part_1,,,,,,,,,,,,,magenta,hexagon
188.0,7.0,3.0,1.0,3.0,3.0,309.0235390000089,4.0,1.0,part_1,,,,,,,,,,,,,magenta,hexagon
109.0,2.0,2.0,0.0,2.0,2.0,282.0250009999654,4.0,1.0,part_1,,,,,,,,,,,,,blue,diamond
421.0,4.0,4.0,0.0,1.0,1.0,320.4668129997117,4.0,1.0,part_1,,,,,,,,,,,,,orange,square
72.0,1.0,1.0,0.0,4.0,4.0,323.2222319998072,4.0,1.0,part_1,,,,,,,,,,,,,green,circle
0.0,8.0,0.0,1.0,2.0,2.0,248.5436659999322,4.0,1.0,part_1,,,,,,,,,,,,,cyan,flipped triangle
95.0,2.0,2.0,0.0,1.0,1.0,326.6981349997877,4.0,1.0,part_1,,,,,,,,,,,,,blue,diamond
419.0,8.0,4.0,1.0,4.0,4.0,321.4022309998654,4.0,1.0,part_1,,,,,,,,,,,,,cyan,flipped triangle
124.0,2.0,2.0,0.0,3.0,3.0,327.7182030001313,4.0,1.0,part_1,,,,,,,,,,,,,blue,diamond
220.0,3.0,3.0,0.0,3.0,3.0,320.9558120001929,4.0,1.0,part_1,,,,,,,,,,,,,yellow,triangle
115.0,2.0,2.0,0.0,3.0,3.0,393.9067919995977,4.0,1.0,part_1,,,,,,,,,,,,,blue,diamond
79.0,2.0,2.0,0.0,4.0,4.0,368.0026299998644,4.0,1.0,part_1,,,,,,,,,,,,,blue,diamond
55.0,1.0,1.0,0.0,1.0,1.0,372.0036470003833,4.0,1.0,part_1,,,,,,,,,,,,,green,circle
33.0,1.0,1.0,0.0,2.0,2.0,312.8951240000788,4.0,1.0,part_1,,,,,,,,,,,,,green,circle
212.0,3.0,3.0,0.0,2.0,2.0,308.4589019999839,4.0,1.0,part_1,,,,,,,,,,,,,yellow,triangle
0.0,3.0,0.0,0.0,4.0,4.0,309.006472999954,4.0,1.0,part_1,,,,,,,,,,,,,yellow,triangle
0.0,8.0,0.0,1.0,1.0,1.0,441.637749000165,4.0,1.0,part_1,,,,,,,,,,,,,cyan,flipped triangle
91.0,6.0,2.0,1.0,4.0,4.0,373.7006030000884,4.0,1.0,part_1,,,,,,,,,,,,,white,I
28.0,1.0,1.0,0.0,4.0,4.0,337.4194309999438,4.0,1.0,part_1,,,,,,,,,,,,,green,circle
107.0,6.0,2.0,1.0,2.0,2.0,320.8815799998774,4.0,1.0,part_1,,,,,,,,,,,,,white,I
116.0,2.0,2.0,0.0,1.0,1.0,288.881032000063,4.0,1.0,part_1,,,,,,,,,,,,,blue,diamond
111.0,2.0,2.0,0.0,4.0,4.0,320.6513049999557,4.0,1.0,part_1,,,,,,,,,,,,,blue,diamond
0.0,2.0,0.0,0.0,4.0,4.0,280.5765319999409,4.0,1.0,part_1,,,,,,,,,,,,,blue,diamond
85.0,2.0,2.0,0.0,3.0,3.0,296.6286920000129,4.0,1.0,part_1,,,,,,,,,,,,,blue,diamond
32.0,1.0,1.0,0.0,3.0,3.0,385.6668990001708,4.0,1.0,part_1,,,,,,,,,,,,,green,circle
224.0,7.0,3.0,1.0,2.0,2.0,292.9064919999291,4.0,1.0,part_1,,,,,,,,,,,,,magenta,hexagon
191.0,3.0,3.0,0.0,4.0,4.0,292.0027149998532,4.0,1.0,part_1,,,,,,,,,,,,,yellow,triangle
26.0,1.0,1.0,0.0,3.0,3.0,333.8569550001011,4.0,1.0,part_1,,,,,,,,,,,,,green,circle
59.0,1.0,1.0,0.0,1.0,1.0,322.3978900000475,4.0,1.0,part_1,,,,,,,,,,,,,green,circle
385.0,4.0,4.0,0.0,2.0,2.0,287.8490820003208,4.0,1.0,part_1,,,,,,,,,,,,,orange,square
101.0,6.0,2.0,1.0,2.0,2.0,522.9273439999815,4.0,1.0,part_1,,,,,,,,,,,,,white,I
48.0,5.0,1.0,1.0,3.0,3.0,341.5804799997204,4.0,1.0,part_1,,,,,,,,,,,,,gray,cross
389.0,8.0,4.0,1.0,3.0,3.0,337.3644060002334,4.0,1.0,part_1,,,,,,,,,,,,,cyan,flipped triangle
424.0,8.0,4.0,1.0,1.0,1.0,338.2418249998409,4.0,1.0,part_1,,,,,,,,,,,,,cyan,flipped triangle
0.0,5.0,0.0,1.0,3.0,3.0,307.8982120000546,4.0,1.0,part_1,,,,,,,,,,,,,gray,cross
57.0,5.0,1.0,1.0,3.0,3.0,340.2753720001783,4.0,1.0,part_1,,,,,,,,,,,,,gray,cross
382.0,8.0,4.0,1.0,4.0,4.0,359.2645749999974,4.0,1.0,part_1,,,,,,,,,,,,,cyan,flipped triangle
108.0,2.0,2.0,0.0,3.0,3.0,336.5721749996737,4.0,1.0,part_1,,,,,,,,,,,,,blue,diamond
90.0,6.0,2.0,1.0,4.0,4.0,517.6331399998162,4.0,1.0,part_1,,,,,,,,,,,,,white,I
198.0,3.0,3.0,0.0,2.0,2.0,342.3063059999549,4.0,1.0,part_1,,,,,,,,,,,,,yellow,triangle
109.0,6.0,2.0,1.0,2.0,2.0,324.910680999892,4.0,1.0,part_1,,,,,,,,,,,,,white,I
414.0,8.0,4.0,1.0,2.0,2.0,304.9058860001423,4.0,1.0,part_1,,,,,,,,,,,,,cyan,flipped triangle
64.0,5.0,1.0,1.0,4.0,4.0,348.8050840001051,4.0,1.0,part_1,,,,,,,,,,,,,gray,cross
61.0,5.0,1.0,1.0,1.0,1.0,400.7062339996992,4.0,1.0,part_1,,,,,,,,,,,,,gray,cross
390.0,4.0,4.0,0.0,3.0,3.0,425.1512030000413,4.0,1.0,part_1,,,,,,,,,,,,,orange,square
191.0,7.0,3.0,1.0,1.0,1.0,324.5637189997978,4.0,1.0,part_1,,,,,,,,,,,,,magenta,hexagon
0.0,4.0,0.0,0.0,4.0,4.0,374.6412440000313,4.0,1.0,part_1,,,,,,,,,,,,,orange,square
110.0,2.0,2.0,0.0,2.0,2.0,298.0818519999957,4.0,1.0,part_1,,,,,,,,,,,,,blue,diamond
64.0,1.0,1.0,0.0,2.0,2.0,313.8156290001461,4.0,1.0,part_1,,,,,,,,,,,,,green,circle
0.0,2.0,0.0,0.0,1.0,1.0,382.0761209999546,4.0,1.0,part_1,,,,,,,,,,,,,blue,diamond
213.0,7.0,3.0,1.0,4.0,4.0,388.9023930000803,4.0,1.0,part_1,,,,,,,,,,,,,magenta,hexagon
57.0,1.0,1.0,0.0,2.0,2.0,283.1344749997697,4.0,1.0,part_1,,,,,,,,,,,,,green,circle
399.0,4.0,4.0,0.0,4.0,4.0,386.136773999624,4.0,1.0,part_1,,,,,,,,,,,,,orange,square
0.0,5.0,0.0,1.0,1.0,1.0,370.3744370000095,4.0,1.0,part_1,,,,,,,,,,,,,gray,cross
0.0,7.0,0.0,1.0,4.0,4.0,328.8907639998797,4.0,1.0,part_1,,,,,,,,,,,,,magenta,hexagon
30.0,5.0,1.0,1.0,4.0,4.0,328.6367279997648,4.0,1.0,part_1,,,,,,,,,,,,,gray,cross
83.0,2.0,2.0,0.0,1.0,1.0,363.2025379997685,4.0,1.0,part_1,,,,,,,,,,,,,blue,diamond
193.0,3.0,3.0,0.0,1.0,1.0,316.0987830001431,4.0,1.0,part_1,,,,,,,,,,,,,yellow,triangle
0.0,4.0,0.0,0.0,2.0,2.0,282.2289599998839,4.0,1.0,part_1,,,,,,,,,,,,,orange,square
188.0,3.0,3.0,0.0,1.0,1.0,325.3998720001618,4.0,1.0,part_1,,,,,,,,,,,,,yellow,triangle
208.0,3.0,3.0,0.0,4.0,4.0,321.7146850001882,4.0,1.0,part_1,,,,,,,,,,,,,yellow,triangle
189.0,3.0,3.0,0.0,4.0,4.0,329.7957889999452,4.0,1.0,part_1,,,,,,,,,,,,,yellow,triangle
0.0,5.0,0.0,1.0,2.0,2.0,305.9299020001162,4.0,1.0,part_1,,,,,,,,,,,,,gray,cross
191.0,3.0,3.0,0.0,1.0,1.0,313.4702520001156,4.0,1.0,part_1,,,,,,,,,,,,,yellow,triangle
418.0,8.0,4.0,1.0,1.0,1.0,322.7033759999358,4.0,1.0,part_1,,,,,,,,,,,,,cyan,flipped triangle
0.0,7.0,0.0,1.0,4.0,4.0,433.9732190001086,4.0,1.0,part_1,,,,,,,,,,,,,magenta,hexagon
185.0,3.0,3.0,0.0,2.0,2.0,299.764505999974,4.0,1.0,part_1,,,,,,,,,,,,,yellow,triangle
211.0,3.0,3.0,0.0,4.0,4.0,366.5996629997607,4.0,1.0,part_1,,,,,,,,,,,,,yellow,triangle
179.0,3.0,3.0,0.0,3.0,3.0,296.3124519997109,4.0,2.0,part_1,,,,,,,,,,,,,yellow,triangle
0.0,3.0,0.0,0.0,4.0,4.0,335.7882250002149,4.0,1.0,part_1,,,,,,,,,,,,,yellow,triangle
100.0,6.0,2.0,1.0,2.0,2.0,319.4902840000395,4.0,1.0,part_1,,,,,,,,,,,,,white,I
199.0,7.0,3.0,1.0,1.0,1.0,331.4486130002478,4.0,1.0,part_1,,,,,,,,,,,,,magenta,hexagon
73.0,5.0,1.0,1.0,4.0,4.0,344.7072589997333,4.0,1.0,part_1,,,,,,,,,,,,,gray,cross
0.0,8.0,0.0,1.0,2.0,2.0,282.3783649996585,4.0,1.0,part_1,,,,,,,,,,,,,cyan,flipped triangle
0.0,1.0,0.0,0.0,3.0,3.0,345.3368529999352,4.0,1.0,part_1,,,,,,,,,,,,,green,circle
217.0,3.0,3.0,0.0,3.0,3.0,271.6684359997998,4.0,1.0,part_1,,,,,,,,,,,,,yellow,triangle
75.0,5.0,1.0,1.0,1.0,1.0,447.5862829999641,4.0,1.0,part_1,,,,,,,,,,,,,gray,cross
95.0,6.0,2.0,1.0,1.0,1.0,356.9841300000007,4.0,1.0,part_1,,,,,,,,,,,,,white,I
0.0,1.0,0.0,0.0,2.0,2.0,355.8066649998181,4.0,1.0,part_1,,,,,,,,,,,,,green,circle
91.0,6.0,2.0,1.0,3.0,3.0,336.7456970004241,4.0,1.0,part_1,,,,,,,,,,,,,white,I
412.0,8.0,4.0,1.0,3.0,3.0,368.8534819998494,4.0,1.0,part_1,,,,,,,,,,,,,cyan,flipped triangle
82.0,6.0,2.0,1.0,1.0,1.0,367.242391000218,4.0,1.0,part_1,,,,,,,,,,,,,white,I
414.0,4.0,4.0,0.0,2.0,2.0,406.6464019997511,4.0,1.0,part_1,,,,,,,,,,,,,orange,square
414.0,4.0,4.0,0.0,4.0,4.0,492.6978620001137,4.0,1.0,part_1,,,,,,,,,,,,,orange,square
60.0,5.0,1.0,1.0,1.0,1.0,324.1129419998287,4.0,1.0,part_1,,,,,,,,,,,,,gray,cross
115.0,6.0,2.0,1.0,3.0,3.0,410.1272150001023,4.0,1.0,part_1,,,,,,,,,,,,,white,I
397.0,8.0,4.0,1.0,4.0,4.0,335.8434180004224,4.0,1.0,part_1,,,,,,,,,,,,,cyan,flipped triangle
0.0,6.0,2.0,1.0,6.0,6.0,351.536672000293,1.0,0.0,part_2,go,250.0,250.0,1.0,,,,,,,,,white,I
0.0,4.0,4.0,0.0,5.0,5.0,457.428587999857,1.0,0.0,part_2,go,250.0,250.0,1.0,,,,,,,,,orange,square
0.0,8.0,4.0,1.0,6.0,0.0,0.0,1.0,0.0,part_2,stop,250.0,250.0,4.0,,,,,,,,,cyan,flipped triangle
0.0,6.0,2.0,1.0,6.0,0.0,0.0,1.0,0.0,part_2,stop,250.0,300.0,4.0,,,,,,,,,white,I
0.0,4.0,4.0,0.0,5.0,5.0,456.1527619998742,1.0,0.0,part_2,go,250.0,350.0,1.0,,,,,,,,,orange,square
0.0,7.0,3.0,1.0,6.0,6.0,596.0695220001071,1.0,0.0,part_2,go,250.0,350.0,1.0,,,,,,,,,magenta,hexagon
0.0,5.0,1.0,1.0,5.0,5.0,761.474353000267,1.0,0.0,part_2,go,250.0,350.0,1.0,,,,,,,,,gray,cross
0.0,3.0,3.0,0.0,5.0,5.0,611.3601340002788,1.0,0.0,part_2,go,250.0,350.0,1.0,,,,,,,,,yellow,triangle
0.0,2.0,2.0,0.0,6.0,6.0,872.4892390000605,1.0,0.0,part_2,go,250.0,350.0,1.0,,,,,,,,,blue,diamond
0.0,5.0,1.0,1.0,6.0,6.0,382.514755000102,1.0,0.0,part_2,stop,250.0,350.0,3.0,,,,,,,,,gray,cross
0.0,3.0,3.0,0.0,6.0,6.0,587.7748650000285,1.0,0.0,part_2,go,250.0,300.0,1.0,,,,,,,,,yellow,triangle
0.0,8.0,4.0,1.0,5.0,5.0,340.5620179996731,1.0,0.0,part_2,stop,250.0,300.0,3.0,,,,,,,,,cyan,flipped triangle
0.0,2.0,2.0,0.0,5.0,5.0,870.1500389997818,1.0,0.0,part_2,go,200.0,300.0,1.0,,,,,,,,,blue,diamond
0.0,6.0,2.0,1.0,5.0,0.0,0.0,1.0,0.0,part_2,stop,200.0,300.0,4.0,,,,,,,,,white,I
0.0,5.0,1.0,1.0,5.0,0.0,0.0,1.0,0.0,part_2,stop,250.0,300.0,4.0,,,,,,,,,gray,cross
0.0,4.0,4.0,0.0,6.0,6.0,497.6979069997469,1.0,0.0,part_2,go,300.0,300.0,1.0,,,,,,,,,orange,square
0.0,8.0,4.0,1.0,6.0,6.0,387.0840390000012,1.0,0.0,part_2,stop,300.0,300.0,3.0,,,,,,,,,cyan,flipped triangle
0.0,3.0,3.0,0.0,6.0,6.0,516.5170370000851,1.0,0.0,part_2,go,300.0,250.0,1.0,,,,,,,,,yellow,triangle
0.0,7.0,3.0,1.0,6.0,0.0,0.0,1.0,0.0,part_2,stop,300.0,250.0,4.0,,,,,,,,,magenta,hexagon
0.0,7.0,3.0,1.0,5.0,5.0,618.4032959999968,1.0,0.0,part_2,go,300.0,300.0,1.0,,,,,,,,,magenta,hexagon
0.0,8.0,4.0,1.0,5.0,0.0,0.0,1.0,0.0,part_2,stop,300.0,300.0,4.0,,,,,,,,,cyan,flipped triangle
0.0,3.0,3.0,0.0,5.0,5.0,610.107971999696,1.0,0.0,part_2,go,350.0,300.0,1.0,,,,,,,,,yellow,triangle
0.0,2.0,2.0,0.0,6.0,6.0,455.4639400002997,1.0,0.0,part_2,go,350.0,300.0,1.0,,,,,,,,,blue,diamond
0.0,7.0,3.0,1.0,5.0,5.0,512.5429490003626,1.0,0.0,part_2,go,350.0,300.0,1.0,,,,,,,,,magenta,hexagon
0.0,4.0,4.0,0.0,6.0,6.0,500.3716450000866,1.0,0.0,part_2,go,350.0,300.0,1.0,,,,,,,,,orange,square
0.0,7.0,3.0,1.0,5.0,5.0,859.5979409997199,1.0,0.0,part_2,go,350.0,300.0,1.0,,,,,,,,,magenta,hexagon
0.0,1.0,1.0,0.0,6.0,6.0,738.5889990000578,1.0,0.0,part_2,go,350.0,300.0,1.0,,,,,,,,,green,circle
0.0,2.0,2.0,0.0,6.0,6.0,905.7803219998276,1.0,0.0,part_2,go,350.0,300.0,1.0,,,,,,,,,blue,diamond
0.0,8.0,4.0,1.0,5.0,0.0,0.0,1.0,0.0,part_2,stop,350.0,300.0,4.0,,,,,,,,,cyan,flipped triangle
0.0,8.0,4.0,1.0,5.0,0.0,0.0,1.0,0.0,part_2,stop,400.0,300.0,4.0,,,,,,,,,cyan,flipped triangle
0.0,2.0,2.0,0.0,5.0,5.0,546.6922929999782,1.0,0.0,part_2,go,450.0,300.0,1.0,,,,,,,,,blue,diamond
0.0,3.0,3.0,0.0,5.0,5.0,559.9659270001212,1.0,0.0,part_2,go,450.0,300.0,1.0,,,,,,,,,yellow,triangle
0.0,8.0,4.0,1.0,5.0,0.0,0.0,1.0,0.0,part_2,stop,450.0,300.0,4.0,,,,,,,,,cyan,flipped triangle
0.0,4.0,4.0,0.0,6.0,6.0,604.7657200001595,1.0,0.0,part_2,go,500.0,300.0,1.0,,,,,,,,,orange,square
0.0,2.0,2.0,0.0,5.0,5.0,621.7842190003466,1.0,0.0,part_2,go,500.0,300.0,1.0,,,,,,,,,blue,diamond
0.0,1.0,1.0,0.0,5.0,5.0,503.0263889998423,1.0,0.0,part_2,go,500.0,300.0,1.0,,,,,,,,,green,circle
0.0,1.0,1.0,0.0,6.0,6.0,719.056222999825,2.0,0.0,part_2,go,500.0,300.0,1.0,,,,,,,,,green,circle
0.0,7.0,3.0,1.0,6.0,0.0,0.0,2.0,0.0,part_2,stop,500.0,300.0,4.0,,,,,,,,,magenta,hexagon
0.0,1.0,1.0,0.0,5.0,5.0,552.8188789999149,2.0,0.0,part_2,go,500.0,350.0,1.0,,,,,,,,,green,circle
0.0,1.0,1.0,0.0,6.0,6.0,534.4396420000521,2.0,0.0,part_2,go,500.0,350.0,1.0,,,,,,,,,green,circle
0.0,4.0,4.0,0.0,5.0,5.0,543.0120880000686,2.0,0.0,part_2,go,500.0,350.0,1.0,,,,,,,,,orange,square
0.0,8.0,4.0,1.0,6.0,6.0,499.4240269998045,2.0,0.0,part_2,stop,500.0,350.0,3.0,,,,,,,,,cyan,flipped triangle
0.0,5.0,1.0,1.0,6.0,0.0,0.0,2.0,0.0,part_2,stop,500.0,300.0,4.0,,,,,,,,,gray,cross
0.0,3.0,3.0,0.0,5.0,5.0,855.2900859999681,2.0,0.0,part_2,go,500.0,350.0,1.0,,,,,,,,,yellow,triangle
0.0,1.0,1.0,0.0,5.0,5.0,496.7884029997549,2.0,0.0,part_2,go,500.0,350.0,1.0,,,,,,,,,green,circle
0.0,3.0,3.0,0.0,5.0,5.0,545.6371240002227,2.0,0.0,part_2,go,500.0,350.0,1.0,,,,,,,,,yellow,triangle
0.0,2.0,2.0,0.0,5.0,5.0,594.6337239997774,2.0,0.0,part_2,go,500.0,350.0,1.0,,,,,,,,,blue,diamond
0.0,6.0,2.0,1.0,6.0,6.0,841.055408000102,2.0,0.0,part_2,go,500.0,350.0,1.0,,,,,,,,,white,I
0.0,5.0,1.0,1.0,6.0,0.0,0.0,2.0,0.0,part_2,stop,500.0,350.0,4.0,,,,,,,,,gray,cross
0.0,2.0,2.0,0.0,6.0,6.0,704.461320000064,2.0,0.0,part_2,go,500.0,400.0,1.0,,,,,,,,,blue,diamond
0.0,8.0,4.0,1.0,5.0,5.0,617.0327520003411,2.0,0.0,part_2,stop,500.0,400.0,3.0,,,,,,,,,cyan,flipped triangle
0.0,5.0,1.0,1.0,6.0,6.0,697.3807729996224,2.0,0.0,part_2,go,450.0,400.0,1.0,,,,,,,,,gray,cross
0.0,5.0,1.0,1.0,5.0,5.0,731.6016240001773,2.0,0.0,part_2,go,450.0,400.0,1.0,,,,,,,,,gray,cross
0.0,2.0,2.0,0.0,6.0,6.0,614.5711320000373,2.0,0.0,part_2,go,450.0,400.0,1.0,,,,,,,,,blue,diamond
0.0,1.0,1.0,0.0,5.0,5.0,630.9501709997676,2.0,0.0,part_2,go,450.0,400.0,1.0,,,,,,,,,green,circle
0.0,1.0,1.0,0.0,5.0,5.0,873.7131959996987,2.0,0.0,part_2,go,450.0,400.0,1.0,,,,,,,,,green,circle
0.0,3.0,3.0,0.0,6.0,6.0,931.0975379999036,2.0,0.0,part_2,go,450.0,400.0,1.0,,,,,,,,,yellow,triangle
0.0,8.0,4.0,1.0,6.0,6.0,647.8770620001342,2.0,0.0,part_2,go,450.0,400.0,1.0,,,,,,,,,cyan,flipped triangle
0.0,7.0,3.0,1.0,6.0,0.0,0.0,2.0,0.0,part_2,stop,450.0,400.0,4.0,,,,,,,,,magenta,hexagon
0.0,8.0,4.0,1.0,6.0,0.0,0.0,2.0,0.0,part_2,stop,450.0,450.0,4.0,,,,,,,,,cyan,flipped triangle
0.0,3.0,3.0,0.0,5.0,5.0,657.8384939998614,2.0,0.0,part_2,go,450.0,500.0,1.0,,,,,,,,,yellow,triangle
0.0,1.0,1.0,0.0,5.0,5.0,649.7094820001621,2.0,0.0,part_2,go,450.0,500.0,1.0,,,,,,,,,green,circle
0.0,2.0,2.0,0.0,5.0,5.0,696.165241000017,2.0,0.0,part_2,go,450.0,500.0,1.0,,,,,,,,,blue,diamond
0.0,1.0,1.0,0.0,5.0,5.0,627.9838329996892,2.0,0.0,part_2,go,450.0,500.0,1.0,,,,,,,,,green,circle
0.0,8.0,4.0,1.0,6.0,0.0,0.0,2.0,0.0,part_2,stop,450.0,500.0,4.0,,,,,,,,,cyan,flipped triangle
0.0,1.0,1.0,0.0,6.0,6.0,724.451498000235,2.0,0.0,part_2,go,450.0,550.0,1.0,,,,,,,,,green,circle
0.0,2.0,2.0,0.0,6.0,6.0,774.1206099999545,2.0,0.0,part_2,go,450.0,550.0,1.0,,,,,,,,,blue,diamond
0.0,3.0,3.0,0.0,6.0,6.0,632.5879480000367,2.0,0.0,part_2,go,450.0,550.0,1.0,,,,,,,,,yellow,triangle
0.0,3.0,3.0,0.0,5.0,5.0,715.7077800002298,2.0,0.0,part_2,go,450.0,550.0,1.0,,,,,,,,,yellow,triangle
0.0,2.0,2.0,0.0,5.0,5.0,705.5341290001707,2.0,0.0,part_2,go,450.0,550.0,1.0,,,,,,,,,blue,diamond
0.0,8.0,4.0,1.0,5.0,5.0,855.3141460001825,2.0,0.0,part_2,go,450.0,550.0,1.0,,,,,,,,,cyan,flipped triangle
0.0,1.0,1.0,0.0,6.0,6.0,517.2589130002052,2.0,0.0,part_2,go,450.0,550.0,1.0,,,,,,,,,green,circle
0.0,2.0,2.0,0.0,5.0,5.0,517.9835990002175,3.0,0.0,part_2,go,450.0,550.0,1.0,,,,,,,,,blue,diamond
0.0,8.0,4.0,1.0,6.0,6.0,264.5207040000059,3.0,0.0,part_2,stop,450.0,550.0,3.0,,,,,,,,,cyan,flipped triangle
0.0,1.0,1.0,0.0,6.0,6.0,386.6287700002431,3.0,0.0,part_2,go,450.0,500.0,1.0,,,,,,,,,green,circle
0.0,7.0,3.0,1.0,5.0,5.0,310.0549800001317,3.0,0.0,part_2,stop,450.0,500.0,3.0,,,,,,,,,magenta,hexagon
0.0,8.0,4.0,1.0,5.0,0.0,0.0,3.0,0.0,part_2,stop,400.0,500.0,4.0,,,,,,,,,cyan,flipped triangle
0.0,1.0,1.0,0.0,5.0,5.0,630.8786350000446,3.0,0.0,part_2,go,450.0,500.0,1.0,,,,,,,,,green,circle
0.0,7.0,3.0,1.0,6.0,6.0,256.8058189999647,3.0,0.0,part_2,stop,450.0,500.0,3.0,,,,,,,,,magenta,hexagon
0.0,1.0,1.0,0.0,6.0,6.0,665.4139530000975,3.0,0.0,part_2,go,450.0,450.0,1.0,,,,,,,,,green,circle
0.0,6.0,2.0,1.0,5.0,5.0,554.6753240000726,3.0,0.0,part_2,go,450.0,450.0,1.0,,,,,,,,,white,I
0.0,3.0,3.0,0.0,6.0,6.0,613.0929209998612,3.0,0.0,part_2,go,450.0,450.0,1.0,,,,,,,,,yellow,triangle
0.0,7.0,3.0,1.0,5.0,5.0,347.7589410003929,3.0,0.0,part_2,stop,450.0,450.0,3.0,,,,,,,,,magenta,hexagon
0.0,4.0,4.0,0.0,6.0,6.0,662.266728999839,3.0,0.0,part_2,go,400.0,450.0,1.0,,,,,,,,,orange,square
0.0,1.0,1.0,0.0,6.0,6.0,357.6547990001018,3.0,0.0,part_2,go,400.0,450.0,1.0,,,,,,,,,green,circle
0.0,8.0,4.0,1.0,6.0,6.0,339.9263020000944,3.0,0.0,part_2,stop,400.0,450.0,3.0,,,,,,,,,cyan,flipped triangle
0.0,1.0,1.0,0.0,5.0,5.0,657.5752920002742,3.0,0.0,part_2,go,400.0,400.0,1.0,,,,,,,,,green,circle
0.0,2.0,2.0,0.0,6.0,6.0,468.3066200000212,3.0,0.0,part_2,go,400.0,400.0,1.0,,,,,,,,,blue,diamond
0.0,5.0,1.0,1.0,5.0,5.0,824.6761450000122,3.0,0.0,part_2,stop,400.0,400.0,3.0,,,,,,,,,gray,cross
0.0,2.0,2.0,0.0,5.0,5.0,633.879705000254,3.0,0.0,part_2,go,350.0,400.0,1.0,,,,,,,,,blue,diamond
0.0,5.0,1.0,1.0,5.0,5.0,446.0825650003244,3.0,0.0,part_2,stop,350.0,400.0,3.0,,,,,,,,,gray,cross
0.0,2.0,2.0,0.0,5.0,5.0,563.2471890003217,3.0,0.0,part_2,go,300.0,400.0,1.0,,,,,,,,,blue,diamond
0.0,2.0,2.0,0.0,6.0,6.0,549.9523959997532,3.0,0.0,part_2,go,300.0,400.0,1.0,,,,,,,,,blue,diamond
0.0,5.0,1.0,1.0,5.0,0.0,0.0,3.0,0.0,part_2,stop,300.0,400.0,4.0,,,,,,,,,gray,cross
0.0,5.0,1.0,1.0,6.0,0.0,0.0,3.0,0.0,part_2,stop,350.0,400.0,4.0,,,,,,,,,gray,cross
0.0,4.0,4.0,0.0,5.0,5.0,387.8205440000783,3.0,0.0,part_2,go,350.0,450.0,1.0,,,,,,,,,orange,square
0.0,5.0,1.0,1.0,5.0,0.0,0.0,3.0,0.0,part_2,stop,350.0,450.0,4.0,,,,,,,,,gray,cross
0.0,7.0,3.0,1.0,5.0,5.0,548.5221040003125,3.0,0.0,part_2,go,400.0,450.0,1.0,,,,,,,,,magenta,hexagon
0.0,5.0,1.0,1.0,5.0,5.0,433.5675470001661,3.0,0.0,part_2,stop,400.0,450.0,3.0,,,,,,,,,gray,cross
0.0,7.0,3.0,1.0,5.0,0.0,0.0,3.0,0.0,part_2,stop,350.0,450.0,4.0,,,,,,,,,magenta,hexagon
0.0,4.0,4.0,0.0,6.0,6.0,412.980177999998,3.0,0.0,part_2,go,400.0,450.0,1.0,,,,,,,,,orange,square
0.0,8.0,4.0,1.0,5.0,5.0,580.0976169998648,3.0,0.0,part_2,go,400.0,450.0,1.0,,,,,,,,,cyan,flipped triangle
0.0,5.0,1.0,1.0,6.0,6.0,528.6983589999181,3.0,0.0,part_2,stop,400.0,450.0,3.0,,,,,,,,,gray,cross
0.0,2.0,2.0,0.0,5.0,5.0,624.8866450000605,3.0,0.0,part_2,go,400.0,400.0,1.0,,,,,,,,,blue,diamond
0.0,6.0,2.0,1.0,5.0,0.0,0.0,3.0,0.0,part_2,stop,400.0,400.0,4.0,,,,,,,,,white,I
0.0,8.0,4.0,1.0,6.0,6.0,553.1517049998911,3.0,0.0,part_2,stop,450.0,400.0,3.0,,,,,,,,,cyan,flipped triangle
0.0,8.0,4.0,1.0,5.0,5.0,881.3743509999767,3.0,0.0,part_2,go,450.0,350.0,1.0,,,,,,,,,cyan,flipped triangle
0.0,5.0,1.0,1.0,5.0,0.0,0.0,3.0,0.0,part_2,stop,450.0,350.0,4.0,,,,,,,,,gray,cross
0.0,4.0,4.0,0.0,6.0,6.0,474.8960090000764,4.0,0.0,part_2,go,500.0,350.0,1.0,,,,,,,,,orange,square
0.0,8.0,4.0,1.0,6.0,6.0,319.1572339997037,4.0,0.0,part_2,go,500.0,350.0,1.0,,,,,,,,,cyan,flipped triangle
0.0,1.0,1.0,0.0,5.0,5.0,603.1635360000109,4.0,0.0,part_2,go,500.0,350.0,1.0,,,,,,,,,green,circle
0.0,7.0,3.0,1.0,5.0,5.0,644.0558210001655,4.0,0.0,part_2,go,500.0,350.0,1.0,,,,,,,,,magenta,hexagon
0.0,3.0,3.0,0.0,6.0,6.0,257.5252969995745,4.0,0.0,part_2,go,500.0,350.0,1.0,,,,,,,,,yellow,triangle
0.0,6.0,2.0,1.0,6.0,6.0,312.69899300014,4.0,0.0,part_2,stop,500.0,350.0,3.0,,,,,,,,,white,I
0.0,8.0,4.0,1.0,5.0,5.0,689.0472069999305,4.0,0.0,part_2,stop,500.0,300.0,3.0,,,,,,,,,cyan,flipped triangle
0.0,2.0,2.0,0.0,5.0,5.0,593.6373970002933,4.0,0.0,part_2,go,450.0,300.0,1.0,,,,,,,,,blue,diamond
0.0,1.0,1.0,0.0,6.0,6.0,413.1547649999447,4.0,0.0,part_2,go,450.0,300.0,1.0,,,,,,,,,green,circle
0.0,4.0,4.0,0.0,6.0,6.0,565.2591839998422,4.0,0.0,part_2,go,450.0,300.0,1.0,,,,,,,,,orange,square
0.0,6.0,2.0,1.0,6.0,0.0,0.0,4.0,0.0,part_2,stop,450.0,300.0,4.0,,,,,,,,,white,I
0.0,6.0,2.0,1.0,6.0,0.0,0.0,4.0,0.0,part_2,stop,450.0,350.0,4.0,,,,,,,,,white,I
0.0,3.0,3.0,0.0,5.0,5.0,591.8424440001218,4.0,0.0,part_2,go,450.0,400.0,1.0,,,,,,,,,yellow,triangle
0.0,4.0,4.0,0.0,5.0,5.0,402.5929050003469,4.0,0.0,part_2,go,450.0,400.0,1.0,,,,,,,,,orange,square
0.0,4.0,4.0,0.0,6.0,6.0,714.456736000102,4.0,0.0,part_2,go,450.0,400.0,1.0,,,,,,,,,orange,square
0.0,1.0,1.0,0.0,5.0,5.0,312.7756250000857,4.0,0.0,part_2,go,450.0,400.0,1.0,,,,,,,,,green,circle
0.0,5.0,1.0,1.0,5.0,5.0,315.7513559999643,4.0,0.0,part_2,stop,450.0,400.0,3.0,,,,,,,,,gray,cross
0.0,7.0,3.0,1.0,5.0,5.0,584.8979439997493,4.0,0.0,part_2,stop,400.0,400.0,3.0,,,,,,,,,magenta,hexagon
0.0,2.0,2.0,0.0,6.0,6.0,544.1773429997738,4.0,0.0,part_2,go,350.0,400.0,1.0,,,,,,,,,blue,diamond
0.0,7.0,3.0,1.0,6.0,0.0,0.0,4.0,0.0,part_2,stop,350.0,400.0,4.0,,,,,,,,,magenta,hexagon
0.0,5.0,1.0,1.0,6.0,0.0,0.0,4.0,0.0,part_2,stop,350.0,450.0,4.0,,,,,,,,,gray,cross
0.0,1.0,1.0,0.0,6.0,6.0,630.32442299982,4.0,0.0,part_2,go,350.0,500.0,1.0,,,,,,,,,green,circle
0.0,2.0,2.0,0.0,6.0,6.0,439.7035560000404,4.0,0.0,part_2,go,350.0,500.0,1.0,,,,,,,,,blue,diamond
0.0,8.0,4.0,1.0,6.0,6.0,657.8780040003949,4.0,0.0,part_2,stop,350.0,500.0,3.0,,,,,,,,,cyan,flipped triangle
0.0,4.0,4.0,0.0,5.0,5.0,634.0235980001125,4.0,0.0,part_2,go,350.0,450.0,1.0,,,,,,,,,orange,square
0.0,6.0,2.0,1.0,5.0,0.0,0.0,4.0,0.0,part_2,stop,350.0,450.0,4.0,,,,,,,,,white,I
0.0,7.0,3.0,1.0,5.0,0.0,0.0,4.0,0.0,part_2,stop,400.0,450.0,4.0,,,,,,,,,magenta,hexagon
0.0,6.0,2.0,1.0,6.0,6.0,663.3395240000937,4.0,0.0,part_2,go,450.0,450.0,1.0,,,,,,,,,white,I
0.0,6.0,2.0,1.0,5.0,5.0,817.6107139997839,4.0,0.0,part_2,go,450.0,450.0,1.0,,,,,,,,,white,I
0.0,7.0,3.0,1.0,6.0,6.0,443.0188759997691,4.0,0.0,part_2,stop,450.0,450.0,3.0,,,,,,,,,magenta,hexagon
0.0,5.0,1.0,1.0,6.0,0.0,0.0,4.0,0.0,part_2,stop,450.0,400.0,4.0,,,,,,,,,gray,cross
0.0,2.0,2.0,0.0,5.0,5.0,602.9834050000318,4.0,0.0,part_2,go,450.0,450.0,1.0,,,,,,,,,blue,diamond
0.0,1.0,1.0,0.0,5.0,5.0,329.5240890001878,4.0,0.0,part_2,go,450.0,450.0,1.0,,,,,,,,,green,circle
0.0,4.0,4.0,0.0,6.0,6.0,349.3896039999526,4.0,0.0,part_2,go,450.0,450.0,1.0,,,,,,,,,orange,square
0.0,5.0,1.0,1.0,5.0,0.0,0.0,4.0,0.0,part_2,stop,450.0,450.0,4.0,,,,,,,,,gray,cross
0.0,6.0,2.0,1.0,5.0,0.0,0.0,4.0,0.0,part_2,stop,500.0,450.0,4.0,,,,,,,,,white,I
0.0,3.0,3.0,0.0,6.0,6.0,430.2114059996711,5.0,0.0,part_2,go,550.0,450.0,1.0,,,,,,,,,yellow,triangle
0.0,3.0,3.0,0.0,6.0,6.0,351.6180930000701,5.0,0.0,part_2,go,550.0,450.0,1.0,,,,,,,,,yellow,triangle
0.0,3.0,3.0,0.0,5.0,5.0,457.6609099999587,5.0,0.0,part_2,go,550.0,450.0,1.0,,,,,,,,,yellow,triangle
0.0,4.0,4.0,0.0,5.0,5.0,645.7720280000103,5.0,0.0,part_2,go,550.0,450.0,1.0,,,,,,,,,orange,square
0.0,4.0,4.0,0.0,5.0,5.0,639.1077250000308,5.0,0.0,part_2,go,550.0,450.0,1.0,,,,,,,,,orange,square
0.0,8.0,4.0,1.0,5.0,5.0,583.3883280001828,5.0,0.0,part_2,stop,550.0,450.0,3.0,,,,,,,,,cyan,flipped triangle
0.0,5.0,1.0,1.0,5.0,5.0,803.2267359999423,5.0,0.0,part_2,go,500.0,450.0,1.0,,,,,,,,,gray,cross
0.0,2.0,2.0,0.0,6.0,6.0,545.2651009995861,5.0,0.0,part_2,go,500.0,450.0,1.0,,,,,,,,,blue,diamond
0.0,2.0,2.0,0.0,6.0,6.0,654.9061330001678,5.0,0.0,part_2,go,500.0,450.0,1.0,,,,,,,,,blue,diamond
0.0,6.0,2.0,1.0,6.0,0.0,0.0,5.0,0.0,part_2,stop,500.0,450.0,4.0,,,,,,,,,white,I
0.0,7.0,3.0,1.0,6.0,6.0,668.9372320001894,5.0,0.0,part_2,stop,500.0,500.0,3.0,,,,,,,,,magenta,hexagon
0.0,1.0,1.0,0.0,5.0,5.0,593.7003599997297,5.0,0.0,part_2,go,500.0,450.0,1.0,,,,,,,,,green,circle
0.0,4.0,4.0,0.0,5.0,5.0,696.6732759997285,5.0,0.0,part_2,go,500.0,450.0,1.0,,,,,,,,,orange,square
0.0,5.0,1.0,1.0,6.0,6.0,504.0455670000483,5.0,0.0,part_2,go,500.0,450.0,1.0,,,,,,,,,gray,cross
0.0,4.0,4.0,0.0,6.0,6.0,335.81289299991107,5.0,0.0,part_2,go,500.0,450.0,1.0,,,,,,,,,orange,square
0.0,6.0,2.0,1.0,5.0,5.0,663.7862439997662,5.0,0.0,part_2,stop,500.0,450.0,3.0,,,,,,,,,white,I
0.0,6.0,2.0,1.0,6.0,0.0,0.0,5.0,0.0,part_2,stop,450.0,450.0,4.0,,,,,,,,,white,I
0.0,3.0,3.0,0.0,6.0,6.0,578.0160280000928,5.0,0.0,part_2,go,450.0,500.0,1.0,,,,,,,,,yellow,triangle
0.0,7.0,3.0,1.0,5.0,0.0,0.0,5.0,0.0,part_2,stop,450.0,500.0,4.0,,,,,,,,,magenta,hexagon
0.0,8.0,4.0,1.0,5.0,0.0,0.0,5.0,0.0,part_2,stop,500.0,500.0,4.0,,,,,,,,,cyan,flipped triangle
0.0,6.0,2.0,1.0,5.0,5.0,391.2620420001076,5.0,0.0,part_2,go,550.0,500.0,1.0,,,,,,,,,white,I
0.0,3.0,3.0,0.0,6.0,6.0,633.1002629999603,5.0,0.0,part_2,go,550.0,500.0,1.0,,,,,,,,,yellow,triangle
0.0,8.0,4.0,1.0,5.0,5.0,406.5126310001687,5.0,0.0,part_2,stop,550.0,500.0,3.0,,,,,,,,,cyan,flipped triangle
0.0,5.0,1.0,1.0,6.0,0.0,0.0,5.0,0.0,part_2,stop,500.0,500.0,4.0,,,,,,,,,gray,cross
0.0,3.0,3.0,0.0,5.0,5.0,721.6436199996679,5.0,0.0,part_2,go,500.0,550.0,1.0,,,,,,,,,yellow,triangle
0.0,8.0,4.0,1.0,6.0,6.0,281.3146890002826,5.0,0.0,part_2,go,500.0,550.0,1.0,,,,,,,,,cyan,flipped triangle
0.0,3.0,3.0,0.0,5.0,5.0,330.0716570001896,5.0,0.0,part_2,go,500.0,550.0,1.0,,,,,,,,,yellow,triangle
0.0,4.0,4.0,0.0,5.0,5.0,589.0422679999574,5.0,0.0,part_2,go,500.0,550.0,1.0,,,,,,,,,orange,square
0.0,5.0,1.0,1.0,5.0,5.0,330.6929640002636,5.0,0.0,part_2,stop,500.0,550.0,3.0,,,,,,,,,gray,cross
0.0,3.0,3.0,0.0,5.0,5.0,779.837131000022,5.0,0.0,part_2,go,450.0,550.0,1.0,,,,,,,,,yellow,triangle
0.0,2.0,2.0,0.0,5.0,5.0,699.239992999992,5.0,0.0,part_2,go,450.0,550.0,1.0,,,,,,,,,blue,diamond
0.0,3.0,3.0,0.0,6.0,6.0,655.5733650002367,5.0,0.0,part_2,go,450.0,550.0,1.0,,,,,,,,,yellow,triangle
0.0,7.0,3.0,1.0,6.0,6.0,622.7318920000471,5.0,0.0,part_2,stop,450.0,550.0,3.0,,,,,,,,,magenta,hexagon
0.0,7.0,3.0,1.0,5.0,5.0,508.2199630001014,5.0,0.0,part_2,stop,450.0,500.0,3.0,,,,,,,,,magenta,hexagon
0.0,6.0,2.0,1.0,5.0,5.0,647.0854630001668,5.0,0.0,part_2,go,400.0,500.0,1.0,,,,,,,,,white,I
0.0,1.0,1.0,0.0,6.0,6.0,458.0168719999165,5.0,0.0,part_2,go,400.0,500.0,1.0,,,,,,,,,green,circle
0.0,3.0,3.0,0.0,6.0,6.0,414.9239349999334,6.0,0.0,part_2,go,400.0,500.0,1.0,,,,,,,,,yellow,triangle
0.0,6.0,2.0,1.0,6.0,6.0,289.4889780000085,6.0,0.0,part_2,stop,400.0,500.0,3.0,,,,,,,,,white,I
0.0,3.0,3.0,0.0,5.0,5.0,317.6221869998699,6.0,0.0,part_2,go,400.0,450.0,1.0,,,,,,,,,yellow,triangle
0.0,5.0,1.0,1.0,6.0,6.0,270.0266709998686,6.0,0.0,part_2,stop,400.0,450.0,3.0,,,,,,,,,gray,cross
0.0,2.0,2.0,0.0,6.0,6.0,562.7180970000154,6.0,0.0,part_2,go,400.0,400.0,1.0,,,,,,,,,blue,diamond
0.0,5.0,1.0,1.0,6.0,6.0,296.3579610000124,6.0,0.0,part_2,go,400.0,400.0,1.0,,,,,,,,,gray,cross
0.0,8.0,4.0,1.0,6.0,6.0,544.939678999981,6.0,0.0,part_2,stop,400.0,400.0,3.0,,,,,,,,,cyan,flipped triangle
0.0,7.0,3.0,1.0,5.0,0.0,0.0,6.0,0.0,part_2,stop,400.0,350.0,4.0,,,,,,,,,magenta,hexagon
0.0,1.0,1.0,0.0,6.0,6.0,462.798862999989,6.0,0.0,part_2,go,450.0,350.0,1.0,,,,,,,,,green,circle
0.0,6.0,2.0,1.0,5.0,5.0,334.1566869999042,6.0,0.0,part_2,stop,450.0,350.0,3.0,,,,,,,,,white,I
0.0,6.0,2.0,1.0,6.0,6.0,582.211114999609,6.0,0.0,part_2,go,400.0,350.0,1.0,,,,,,,,,white,I
0.0,8.0,4.0,1.0,6.0,0.0,0.0,6.0,0.0,part_2,stop,400.0,350.0,4.0,,,,,,,,,cyan,flipped triangle
0.0,2.0,2.0,0.0,6.0,6.0,746.0254749998967,6.0,0.0,part_2,go,400.0,400.0,1.0,,,,,,,,,blue,diamond
0.0,6.0,2.0,1.0,5.0,5.0,556.5204009999434,6.0,0.0,part_2,stop,400.0,400.0,3.0,,,,,,,,,white,I
0.0,5.0,1.0,1.0,6.0,0.0,0.0,6.0,0.0,part_2,stop,350.0,400.0,4.0,,,,,,,,,gray,cross
0.0,8.0,4.0,1.0,6.0,6.0,417.7127780003502,6.0,0.0,part_2,stop,350.0,450.0,3.0,,,,,,,,,cyan,flipped triangle
0.0,4.0,4.0,0.0,5.0,5.0,414.8611089999576,6.0,0.0,part_2,go,350.0,400.0,1.0,,,,,,,,,orange,square
0.0,4.0,4.0,0.0,5.0,5.0,652.0291429997087,6.0,0.0,part_2,go,350.0,400.0,1.0,,,,,,,,,orange,square
0.0,8.0,4.0,1.0,5.0,0.0,0.0,6.0,0.0,part_2,stop,350.0,400.0,4.0,,,,,,,,,cyan,flipped triangle
0.0,4.0,4.0,0.0,5.0,5.0,691.2931780002509,6.0,0.0,part_2,go,400.0,400.0,1.0,,,,,,,,,orange,square
0.0,5.0,1.0,1.0,6.0,0.0,0.0,6.0,0.0,part_2,stop,400.0,400.0,4.0,,,,,,,,,gray,cross
0.0,5.0,1.0,1.0,6.0,6.0,646.046017000117,6.0,0.0,part_2,go,400.0,450.0,1.0,,,,,,,,,gray,cross
0.0,2.0,2.0,0.0,6.0,6.0,612.8060969999751,6.0,0.0,part_2,go,400.0,450.0,1.0,,,,,,,,,blue,diamond
0.0,5.0,1.0,1.0,6.0,0.0,0.0,6.0,0.0,part_2,stop,400.0,450.0,4.0,,,,,,,,,gray,cross
0.0,8.0,4.0,1.0,5.0,5.0,597.7565650000543,6.0,0.0,part_2,go,400.0,500.0,1.0,,,,,,,,,cyan,flipped triangle
0.0,7.0,3.0,1.0,6.0,6.0,637.217953000345,6.0,0.0,part_2,stop,400.0,500.0,3.0,,,,,,,,,magenta,hexagon
0.0,4.0,4.0,0.0,6.0,6.0,632.0348649996959,6.0,0.0,part_2,go,400.0,450.0,1.0,,,,,,,,,orange,square
0.0,3.0,3.0,0.0,5.0,5.0,593.1895890003034,6.0,0.0,part_2,go,400.0,450.0,1.0,,,,,,,,,yellow,triangle
0.0,4.0,4.0,0.0,5.0,5.0,651.2022189999698,6.0,0.0,part_2,go,400.0,450.0,1.0,,,,,,,,,orange,square
0.0,7.0,3.0,1.0,6.0,6.0,501.94099400005143,6.0,0.0,part_2,stop,400.0,450.0,3.0,,,,,,,,,magenta,hexagon
0.0,7.0,3.0,1.0,5.0,0.0,0.0,6.0,0.0,part_2,stop,400.0,400.0,4.0,,,,,,,,,magenta,hexagon
0.0,1.0,1.0,0.0,5.0,5.0,612.5220160001845,6.0,0.0,part_2,go,450.0,400.0,1.0,,,,,,,,,green,circle
0.0,3.0,3.0,0.0,6.0,6.0,632.600795000144,6.0,0.0,part_2,go,450.0,400.0,1.0,,,,,,,,,yellow,triangle
0.0,7.0,3.0,1.0,6.0,0.0,0.0,6.0,0.0,part_2,stop,450.0,400.0,4.0,,,,,,,,,magenta,hexagon
0.0,6.0,2.0,1.0,6.0,0.0,0.0,6.0,0.0,part_2,stop,450.0,450.0,4.0,,,,,,,,,white,I
0.0,3.0,3.0,0.0,6.0,6.0,702.905278000344,6.0,0.0,part_2,go,450.0,500.0,1.0,,,,,,,,,yellow,triangle
0.0,7.0,3.0,1.0,5.0,5.0,421.6997399998945,7.0,0.0,part_2,stop,450.0,500.0,3.0,,,,,,,,,magenta,hexagon
0.0,2.0,2.0,0.0,6.0,6.0,588.3414790000643,7.0,0.0,part_2,go,400.0,500.0,1.0,,,,,,,,,blue,diamond
0.0,3.0,3.0,0.0,6.0,6.0,375.1755409998623,7.0,0.0,part_2,go,400.0,500.0,1.0,,,,,,,,,yellow,triangle
0.0,7.0,3.0,1.0,6.0,6.0,586.234217999845,7.0,0.0,part_2,go,400.0,500.0,1.0,,,,,,,,,magenta,hexagon
0.0,3.0,3.0,0.0,6.0,6.0,689.5711750003102,7.0,0.0,part_2,go,400.0,500.0,1.0,,,,,,,,,yellow,triangle
0.0,7.0,3.0,1.0,5.0,0.0,0.0,7.0,0.0,part_2,stop,400.0,500.0,4.0,,,,,,,,,magenta,hexagon
0.0,4.0,4.0,0.0,6.0,6.0,731.1753690000842,7.0,0.0,part_2,go,450.0,500.0,1.0,,,,,,,,,orange,square
0.0,8.0,4.0,1.0,6.0,6.0,351.6608290001386,7.0,0.0,part_2,stop,450.0,500.0,3.0,,,,,,,,,cyan,flipped triangle
0.0,3.0,3.0,0.0,5.0,5.0,779.7671890002675,7.0,0.0,part_2,go,450.0,450.0,1.0,,,,,,,,,yellow,triangle
0.0,3.0,3.0,0.0,6.0,6.0,509.7436719997859,7.0,0.0,part_2,go,450.0,450.0,1.0,,,,,,,,,yellow,triangle
0.0,5.0,1.0,1.0,5.0,0.0,0.0,7.0,0.0,part_2,stop,450.0,450.0,4.0,,,,,,,,,gray,cross
0.0,8.0,4.0,1.0,6.0,0.0,0.0,7.0,0.0,part_2,stop,500.0,450.0,4.0,,,,,,,,,cyan,flipped triangle
0.0,5.0,1.0,1.0,5.0,5.0,668.1844209997507,7.0,0.0,part_2,stop,500.0,500.0,3.0,,,,,,,,,gray,cross
0.0,2.0,2.0,0.0,5.0,5.0,665.1574239999718,7.0,0.0,part_2,go,450.0,500.0,1.0,,,,,,,,,blue,diamond
0.0,6.0,2.0,1.0,5.0,0.0,0.0,7.0,0.0,part_2,stop,450.0,500.0,4.0,,,,,,,,,white,I
0.0,6.0,2.0,1.0,5.0,0.0,0.0,7.0,0.0,part_2,stop,500.0,500.0,4.0,,,,,,,,,white,I
0.0,6.0,2.0,1.0,5.0,5.0,695.3789720000714,7.0,0.0,part_2,stop,550.0,500.0,3.0,,,,,,,,,white,I
0.0,5.0,1.0,1.0,6.0,6.0,459.7308880001947,7.0,0.0,part_2,go,500.0,500.0,1.0,,,,,,,,,gray,cross
0.0,1.0,1.0,0.0,5.0,5.0,508.51707299989357,7.0,0.0,part_2,go,500.0,500.0,1.0,,,,,,,,,green,circle
0.0,5.0,1.0,1.0,6.0,6.0,513.1204340000295,7.0,0.0,part_2,go,500.0,500.0,1.0,,,,,,,,,gray,cross
0.0,1.0,1.0,0.0,6.0,6.0,497.6186190001499,7.0,0.0,part_2,go,500.0,500.0,1.0,,,,,,,,,green,circle
0.0,6.0,2.0,1.0,5.0,5.0,657.4988689999373,7.0,0.0,part_2,stop,500.0,500.0,3.0,,,,,,,,,white,I
0.0,7.0,3.0,1.0,6.0,0.0,0.0,7.0,0.0,part_2,stop,450.0,500.0,4.0,,,,,,,,,magenta,hexagon
0.0,7.0,3.0,1.0,6.0,6.0,723.8680780001232,7.0,0.0,part_2,stop,450.0,550.0,3.0,,,,,,,,,magenta,hexagon
0.0,4.0,4.0,0.0,5.0,5.0,533.8374759999169,7.0,0.0,part_2,go,450.0,500.0,1.0,,,,,,,,,orange,square
0.0,2.0,2.0,0.0,6.0,6.0,824.242355000024,7.0,0.0,part_2,go,450.0,500.0,1.0,,,,,,,,,blue,diamond
0.0,6.0,2.0,1.0,5.0,0.0,0.0,7.0,0.0,part_2,stop,450.0,500.0,4.0,,,,,,,,,white,I
0.0,3.0,3.0,0.0,6.0,6.0,808.2230390000404,7.0,0.0,part_2,go,500.0,500.0,1.0,,,,,,,,,yellow,triangle
0.0,2.0,2.0,0.0,5.0,5.0,735.6582889997298,7.0,0.0,part_2,go,500.0,500.0,1.0,,,,,,,,,blue,diamond
0.0,6.0,2.0,1.0,5.0,5.0,659.6175350000522,7.0,0.0,part_2,stop,500.0,500.0,3.0,,,,,,,,,white,I
0.0,4.0,4.0,0.0,6.0,6.0,578.4154810003201,7.0,0.0,part_2,go,450.0,500.0,1.0,,,,,,,,,orange,square
0.0,1.0,1.0,0.0,5.0,5.0,913.8284430000568,7.0,0.0,part_2,go,450.0,500.0,1.0,,,,,,,,,green,circle
0.0,1.0,1.0,0.0,6.0,6.0,509.07130299992787,7.0,0.0,part_2,go,450.0,500.0,1.0,,,,,,,,,green,circle
0.0,1.0,1.0,0.0,6.0,6.0,449.4417809996776,7.0,0.0,part_2,go,450.0,500.0,1.0,,,,,,,,,green,circle
0.0,2.0,2.0,0.0,5.0,5.0,428.8631370000075,7.0,0.0,part_2,go,450.0,500.0,1.0,,,,,,,,,blue,diamond
0.0,6.0,2.0,1.0,6.0,0.0,0.0,7.0,0.0,part_2,stop,450.0,500.0,4.0,,,,,,,,,white,I
0.0,2.0,2.0,0.0,6.0,6.0,500.9540969999762,8.0,0.0,part_2,go,450.0,550.0,1.0,,,,,,,,,blue,diamond
0.0,7.0,3.0,1.0,6.0,6.0,464.1695340001206,8.0,0.0,part_2,stop,450.0,550.0,3.0,,,,,,,,,magenta,hexagon
0.0,4.0,4.0,0.0,6.0,6.0,684.5079830000032,8.0,0.0,part_2,go,450.0,500.0,1.0,,,,,,,,,orange,square
0.0,6.0,2.0,1.0,6.0,6.0,315.8013689999279,8.0,0.0,part_2,stop,450.0,500.0,3.0,,,,,,,,,white,I
0.0,6.0,2.0,1.0,6.0,0.0,0.0,8.0,0.0,part_2,stop,450.0,450.0,4.0,,,,,,,,,white,I
0.0,1.0,1.0,0.0,5.0,5.0,691.1837819998254,8.0,0.0,part_2,go,450.0,500.0,1.0,,,,,,,,,green,circle
0.0,2.0,2.0,0.0,5.0,5.0,345.7412780003324,8.0,0.0,part_2,go,450.0,500.0,1.0,,,,,,,,,blue,diamond
0.0,2.0,2.0,0.0,5.0,5.0,708.4208300002501,8.0,0.0,part_2,go,450.0,500.0,1.0,,,,,,,,,blue,diamond
0.0,4.0,4.0,0.0,5.0,5.0,429.7697390002213,8.0,0.0,part_2,go,450.0,500.0,1.0,,,,,,,,,orange,square
0.0,1.0,1.0,0.0,6.0,6.0,393.8791700002184,8.0,0.0,part_2,go,450.0,500.0,1.0,,,,,,,,,green,circle
0.0,4.0,4.0,0.0,6.0,6.0,424.9935580000965,8.0,0.0,part_2,go,450.0,500.0,1.0,,,,,,,,,orange,square
0.0,4.0,4.0,0.0,6.0,6.0,545.6440760003716,8.0,0.0,part_2,go,450.0,500.0,1.0,,,,,,,,,orange,square
0.0,6.0,2.0,1.0,6.0,0.0,0.0,8.0,0.0,part_2,stop,450.0,500.0,4.0,,,,,,,,,white,I
0.0,3.0,3.0,0.0,5.0,5.0,767.1867730000486,8.0,0.0,part_2,go,450.0,550.0,1.0,,,,,,,,,yellow,triangle
0.0,1.0,1.0,0.0,6.0,6.0,483.9612680002574,8.0,0.0,part_2,go,450.0,550.0,1.0,,,,,,,,,green,circle
0.0,4.0,4.0,0.0,6.0,6.0,498.9119289998598,8.0,0.0,part_2,go,450.0,550.0,1.0,,,,,,,,,orange,square
0.0,5.0,1.0,1.0,5.0,0.0,0.0,8.0,0.0,part_2,stop,450.0,550.0,4.0,,,,,,,,,gray,cross
0.0,7.0,3.0,1.0,6.0,0.0,0.0,8.0,0.0,part_2,stop,500.0,550.0,4.0,,,,,,,,,magenta,hexagon
0.0,3.0,3.0,0.0,5.0,5.0,455.3188960003353,8.0,0.0,part_2,go,500.0,600.0,1.0,,,,,,,,,yellow,triangle
0.0,4.0,4.0,0.0,6.0,6.0,291.8804820001242,8.0,0.0,part_2,go,500.0,600.0,1.0,,,,,,,,,orange,square
0.0,8.0,4.0,1.0,5.0,5.0,775.0937390001127,8.0,0.0,part_2,go,500.0,600.0,1.0,,,,,,,,,cyan,flipped triangle
0.0,6.0,2.0,1.0,6.0,6.0,902.0933779997904,8.0,0.0,part_2,go,500.0,600.0,1.0,,,,,,,,,white,I
0.0,8.0,4.0,1.0,5.0,5.0,738.9320629999929,8.0,0.0,part_2,stop,500.0,600.0,3.0,,,,,,,,,cyan,flipped triangle
0.0,1.0,1.0,0.0,5.0,5.0,438.7871969997832,8.0,0.0,part_2,go,450.0,600.0,1.0,,,,,,,,,green,circle
0.0,6.0,2.0,1.0,5.0,0.0,0.0,8.0,0.0,part_2,stop,450.0,600.0,4.0,,,,,,,,,white,I
0.0,7.0,3.0,1.0,6.0,6.0,722.0770620001531,8.0,0.0,part_2,stop,500.0,600.0,3.0,,,,,,,,,magenta,hexagon
0.0,4.0,4.0,0.0,5.0,5.0,564.5957669999007,8.0,0.0,part_2,go,500.0,550.0,1.0,,,,,,,,,orange,square
0.0,5.0,1.0,1.0,5.0,0.0,0.0,8.0,0.0,part_2,stop,500.0,550.0,4.0,,,,,,,,,gray,cross
0.0,3.0,3.0,0.0,5.0,5.0,834.8362570000063,8.0,0.0,part_2,go,550.0,550.0,1.0,,,,,,,,,yellow,triangle
0.0,6.0,2.0,1.0,6.0,6.0,457.0007710003665,8.0,0.0,part_2,stop,550.0,550.0,3.0,,,,,,,,,white,I
0.0,1.0,1.0,0.0,6.0,6.0,505.36824299979344,8.0,0.0,part_2,go,550.0,500.0,1.0,,,,,,,,,green,circle
0.0,5.0,1.0,1.0,5.0,5.0,301.4266590002989,8.0,0.0,part_2,stop,550.0,500.0,3.0,,,,,,,,,gray,cross
0.0,7.0,3.0,1.0,5.0,5.0,810.7167630000731,8.0,0.0,part_2,go,500.0,500.0,1.0,,,,,,,,,magenta,hexagon
0.0,7.0,3.0,1.0,5.0,5.0,782.5224729999718,8.0,0.0,part_2,go,500.0,500.0,1.0,,,,,,,,,magenta,hexagon
0.0,4.0,4.0,0.0,5.0,5.0,357.2309729997869,8.0,0.0,part_2,go,500.0,500.0,1.0,,,,,,,,,orange,square
0.0,8.0,4.0,1.0,6.0,6.0,272.7829840000595,8.0,0.0,part_2,go,500.0,500.0,1.0,,,,,,,,,cyan,flipped triangle
0.0,7.0,3.0,1.0,7.0,4.0,2450.392972999907,1.0,1.0,part_3,go,0.0,0.0,0.0,264.0,6.0,44.0,220.0,88.0,264.0,176.0,132.0,magenta,hexagon
0.0,3.0,3.0,0.0,7.0,4.0,1819.1439629999877,1.0,1.0,part_3,go,0.0,0.0,0.0,196.0,4.0,147.0,98.0,49.0,196.0,245.0,294.0,yellow,triangle
0.0,2.0,2.0,0.0,7.0,6.0,1265.6866910001554,1.0,1.0,part_3,go,0.0,0.0,0.0,98.0,2.0,147.0,245.0,294.0,49.0,196.0,98.0,blue,diamond
0.0,4.0,4.0,0.0,7.0,5.0,2797.1664970000347,1.0,1.0,part_3,go,0.0,0.0,0.0,245.0,5.0,49.0,98.0,294.0,196.0,245.0,147.0,orange,square
0.0,5.0,1.0,1.0,7.0,1.0,2008.825730999888,1.0,1.0,part_3,go,0.0,0.0,0.0,54.0,1.0,54.0,216.0,324.0,108.0,270.0,162.0,gray,cross
0.0,3.0,3.0,0.0,7.0,4.0,1602.273724999577,1.0,1.0,part_3,go,0.0,0.0,0.0,216.0,4.0,54.0,108.0,162.0,216.0,324.0,270.0,yellow,triangle
0.0,1.0,1.0,0.0,7.0,4.0,2115.609869000764,1.0,1.0,part_3,go,0.0,0.0,0.0,78.0,2.0,195.0,39.0,117.0,78.0,234.0,156.0,green,circle
0.0,3.0,3.0,0.0,7.0,3.0,1848.638372000096,1.0,1.0,part_3,go,0.0,0.0,0.0,234.0,6.0,117.0,78.0,234.0,39.0,195.0,156.0,yellow,triangle
0.0,8.0,4.0,1.0,7.0,6.0,2407.017055000324,1.0,1.0,part_3,go,0.0,0.0,0.0,264.0,6.0,176.0,88.0,44.0,220.0,132.0,264.0,cyan,flipped triangle
0.0,8.0,4.0,1.0,7.0,1.0,1662.0391019996532,1.0,1.0,part_3,go,0.0,0.0,0.0,234.0,6.0,234.0,78.0,156.0,117.0,39.0,195.0,cyan,flipped triangle
0.0,8.0,4.0,1.0,7.0,6.0,1729.2751559998578,1.0,1.0,part_3,go,0.0,0.0,0.0,234.0,6.0,117.0,78.0,156.0,39.0,195.0,234.0,cyan,flipped triangle
0.0,5.0,1.0,1.0,7.0,1.0,1324.223009999514,1.0,1.0,part_3,go,0.0,0.0,0.0,54.0,1.0,54.0,108.0,270.0,162.0,324.0,216.0,gray,cross
0.0,4.0,4.0,0.0,7.0,2.0,2145.449048999581,1.0,1.0,part_3,go,0.0,0.0,0.0,234.0,6.0,156.0,234.0,78.0,195.0,117.0,39.0,orange,square
0.0,7.0,3.0,1.0,7.0,4.0,2190.7778529994175,1.0,1.0,part_3,go,0.0,0.0,0.0,102.0,3.0,68.0,204.0,34.0,102.0,136.0,170.0,magenta,hexagon
0.0,6.0,2.0,1.0,7.0,2.0,1927.025259000402,1.0,1.0,part_3,go,0.0,0.0,0.0,162.0,3.0,324.0,162.0,54.0,216.0,270.0,108.0,white,I
0.0,4.0,4.0,0.0,7.0,4.0,2439.835772999686,1.0,1.0,part_3,go,0.0,0.0,0.0,204.0,6.0,68.0,102.0,170.0,204.0,34.0,136.0,orange,square
0.0,5.0,1.0,1.0,7.0,2.0,2512.3664089996964,1.0,1.0,part_3,go,0.0,0.0,0.0,88.0,2.0,220.0,88.0,44.0,176.0,132.0,264.0,gray,cross
0.0,6.0,2.0,1.0,7.0,2.0,2461.0385470004985,1.0,1.0,part_3,go,0.0,0.0,0.0,78.0,2.0,156.0,78.0,195.0,234.0,39.0,117.0,white,I
0.0,7.0,3.0,1.0,7.0,1.0,814.977192000697,1.0,1.0,part_3,go,0.0,0.0,0.0,117.0,3.0,117.0,78.0,39.0,195.0,156.0,234.0,magenta,hexagon
0.0,1.0,1.0,0.0,7.0,1.0,2405.0730819999444,1.0,1.0,part_3,go,0.0,0.0,0.0,49.0,1.0,49.0,245.0,98.0,147.0,294.0,196.0,green,circle
0.0,4.0,4.0,0.0,7.0,3.0,1380.6933779997053,2.0,1.0,part_3,go,0.0,0.0,0.0,324.0,6.0,54.0,162.0,324.0,216.0,270.0,108.0,orange,square
0.0,2.0,2.0,0.0,7.0,6.0,1614.0357040003437,2.0,1.0,part_3,go,0.0,0.0,0.0,68.0,2.0,136.0,34.0,102.0,204.0,170.0,68.0,blue,diamond
0.0,2.0,2.0,0.0,7.0,1.0,1303.0955790000007,2.0,1.0,part_3,go,0.0,0.0,0.0,49.0,1.0,49.0,147.0,245.0,294.0,196.0,98.0,blue,diamond
0.0,6.0,2.0,1.0,7.0,5.0,1944.600056999661,2.0,1.0,part_3,go,0.0,0.0,0.0,132.0,3.0,44.0,88.0,176.0,264.0,132.0,220.0,white,I
0.0,6.0,2.0,1.0,7.0,3.0,1256.0022309999113,2.0,1.0,part_3,go,0.0,0.0,0.0,136.0,4.0,204.0,102.0,136.0,170.0,68.0,34.0,white,I
0.0,1.0,1.0,0.0,7.0,3.0,2130.8906089998345,2.0,1.0,part_3,go,0.0,0.0,0.0,39.0,1.0,234.0,156.0,39.0,78.0,195.0,117.0,green,circle
0.0,5.0,1.0,1.0,7.0,4.0,1636.7438699999184,2.0,1.0,part_3,go,0.0,0.0,0.0,98.0,2.0,147.0,196.0,294.0,98.0,49.0,245.0,gray,cross
0.0,5.0,1.0,1.0,7.0,6.0,860.2526399999988,2.0,1.0,part_3,go,0.0,0.0,0.0,78.0,2.0,195.0,156.0,39.0,117.0,234.0,78.0,gray,cross
0.0,2.0,2.0,0.0,7.0,4.0,1067.2902830001476,2.0,1.0,part_3,go,0.0,0.0,0.0,156.0,4.0,195.0,78.0,39.0,156.0,234.0,117.0,blue,diamond
0.0,8.0,4.0,1.0,7.0,6.0,1736.9700049994208,2.0,1.0,part_3,go,0.0,0.0,0.0,324.0,6.0,108.0,162.0,54.0,270.0,216.0,324.0,cyan,flipped triangle
0.0,5.0,1.0,1.0,7.0,5.0,1043.533261000448,2.0,1.0,part_3,go,0.0,0.0,0.0,49.0,1.0,98.0,196.0,147.0,294.0,49.0,245.0,gray,cross
0.0,8.0,4.0,1.0,7.0,6.0,1275.0819250004497,2.0,1.0,part_3,go,0.0,0.0,0.0,324.0,6.0,54.0,162.0,108.0,216.0,270.0,324.0,cyan,flipped triangle
0.0,2.0,2.0,0.0,7.0,2.0,1176.2368340005196,2.0,1.0,part_3,go,0.0,0.0,0.0,117.0,3.0,156.0,117.0,234.0,78.0,195.0,39.0,blue,diamond
0.0,7.0,3.0,1.0,7.0,5.0,1537.4261080005454,2.0,1.0,part_3,go,0.0,0.0,0.0,270.0,5.0,54.0,324.0,162.0,216.0,270.0,108.0,magenta,hexagon
0.0,5.0,1.0,1.0,7.0,5.0,1561.7743400007384,2.0,1.0,part_3,go,0.0,0.0,0.0,132.0,3.0,220.0,264.0,176.0,44.0,132.0,88.0,gray,cross
0.0,3.0,3.0,0.0,7.0,6.0,1121.4709799996854,2.0,1.0,part_3,go,0.0,0.0,0.0,147.0,3.0,294.0,245.0,196.0,49.0,98.0,147.0,yellow,triangle
0.0,5.0,1.0,1.0,7.0,6.0,1670.9267109999928,2.0,1.0,part_3,go,0.0,0.0,0.0,68.0,2.0,34.0,204.0,170.0,102.0,136.0,68.0,gray,cross
0.0,8.0,4.0,1.0,7.0,3.0,2124.914713999715,2.0,1.0,part_3,go,0.0,0.0,0.0,204.0,6.0,102.0,136.0,204.0,170.0,68.0,34.0,cyan,flipped triangle
0.0,2.0,2.0,0.0,7.0,1.0,1033.875490000355,2.0,1.0,part_3,go,0.0,0.0,0.0,132.0,3.0,132.0,44.0,220.0,88.0,264.0,176.0,blue,diamond
0.0,3.0,3.0,0.0,7.0,6.0,756.7952509998577,2.0,1.0,part_3,go,0.0,0.0,0.0,162.0,3.0,270.0,54.0,216.0,108.0,324.0,162.0,yellow,triangle
0.0,7.0,3.0,1.0,7.0,6.0,1768.885059999775,3.0,1.0,part_3,go,0.0,0.0,0.0,147.0,3.0,98.0,294.0,196.0,245.0,49.0,147.0,magenta,hexagon
0.0,6.0,2.0,1.0,7.0,5.0,1051.02108400024,3.0,1.0,part_3,go,0.0,0.0,0.0,39.0,1.0,234.0,156.0,195.0,117.0,39.0,78.0,white,I
0.0,8.0,4.0,1.0,7.0,4.0,1850.4812560004211,3.0,1.0,part_3,go,0.0,0.0,0.0,204.0,6.0,68.0,170.0,34.0,204.0,136.0,102.0,cyan,flipped triangle
0.0,8.0,4.0,1.0,7.0,1.0,2246.9285729994226,3.0,1.0,part_3,go,0.0,0.0,0.0,245.0,5.0,245.0,147.0,98.0,196.0,49.0,294.0,cyan,flipped triangle
0.0,7.0,3.0,1.0,7.0,3.0,1074.4734780000726,3.0,1.0,part_3,go,0.0,0.0,0.0,195.0,5.0,78.0,39.0,195.0,234.0,117.0,156.0,magenta,hexagon
0.0,1.0,1.0,0.0,7.0,5.0,1015.0699900004838,3.0,1.0,part_3,go,0.0,0.0,0.0,54.0,1.0,270.0,108.0,216.0,324.0,54.0,162.0,green,circle
0.0,6.0,2.0,1.0,7.0,5.0,1821.1512749994656,3.0,1.0,part_3,go,0.0,0.0,0.0,54.0,1.0,324.0,108.0,162.0,270.0,54.0,216.0,white,I
0.0,1.0,1.0,0.0,7.0,5.0,948.434016999272,3.0,1.0,part_3,go,0.0,0.0,0.0,68.0,2.0,34.0,170.0,102.0,136.0,68.0,204.0,green,circle
0.0,8.0,4.0,1.0,7.0,4.0,1347.5110529998346,3.0,1.0,part_3,go,0.0,0.0,0.0,220.0,5.0,44.0,132.0,176.0,220.0,264.0,88.0,cyan,flipped triangle
0.0,2.0,2.0,0.0,7.0,6.0,2128.505419999783,3.0,1.0,part_3,go,0.0,0.0,0.0,162.0,3.0,54.0,216.0,270.0,108.0,324.0,162.0,blue,diamond
0.0,6.0,2.0,1.0,7.0,5.0,1860.7858980003584,3.0,1.0,part_3,go,0.0,0.0,0.0,98.0,2.0,294.0,196.0,245.0,147.0,98.0,49.0,white,I
0.0,5.0,1.0,1.0,7.0,2.0,1183.6674520000088,3.0,1.0,part_3,go,0.0,0.0,0.0,34.0,1.0,136.0,34.0,68.0,204.0,102.0,170.0,gray,cross
0.0,1.0,1.0,0.0,7.0,5.0,1819.46885600064,3.0,1.0,part_3,go,0.0,0.0,0.0,88.0,2.0,264.0,44.0,176.0,132.0,88.0,220.0,green,circle
0.0,4.0,4.0,0.0,7.0,6.0,2828.3055270003388,3.0,1.0,part_3,go,0.0,0.0,0.0,264.0,6.0,44.0,88.0,176.0,220.0,132.0,264.0,orange,square
0.0,1.0,1.0,0.0,7.0,1.0,1121.2465070002509,3.0,1.0,part_3,go,0.0,0.0,0.0,68.0,2.0,68.0,102.0,34.0,204.0,170.0,136.0,green,circle
0.0,4.0,4.0,0.0,7.0,4.0,2120.913918000042,3.0,1.0,part_3,go,0.0,0.0,0.0,234.0,6.0,195.0,39.0,78.0,234.0,156.0,117.0,orange,square
0.0,3.0,3.0,0.0,7.0,2.0,1493.7778789999356,3.0,1.0,part_3,go,0.0,0.0,0.0,132.0,3.0,220.0,132.0,88.0,264.0,176.0,44.0,yellow,triangle
0.0,6.0,2.0,1.0,7.0,5.0,1348.1195740005203,3.0,1.0,part_3,go,0.0,0.0,0.0,68.0,2.0,170.0,102.0,136.0,204.0,68.0,34.0,white,I
0.0,6.0,2.0,1.0,7.0,4.0,2094.0504200007126,3.0,1.0,part_3,go,0.0,0.0,0.0,98.0,2.0,147.0,49.0,196.0,98.0,245.0,294.0,white,I
0.0,4.0,4.0,0.0,7.0,1.0,2065.1211649992547,3.0,1.0,part_3,go,0.0,0.0,0.0,204.0,6.0,204.0,136.0,170.0,68.0,102.0,34.0,orange,square
0.0,5.0,1.0,1.0,7.0,3.0,1503.293997999208,4.0,1.0,part_3,go,0.0,0.0,0.0,39.0,1.0,78.0,156.0,39.0,195.0,234.0,117.0,gray,cross
0.0,3.0,3.0,0.0,7.0,3.0,1786.1708000000365,4.0,1.0,part_3,go,0.0,0.0,0.0,176.0,4.0,44.0,88.0,176.0,264.0,132.0,220.0,yellow,triangle
0.0,8.0,4.0,1.0,7.0,1.0,1283.227234000151,4.0,1.0,part_3,go,0.0,0.0,0.0,245.0,5.0,245.0,98.0,196.0,294.0,49.0,147.0,cyan,flipped triangle
0.0,4.0,4.0,0.0,7.0,1.0,1885.446721000335,4.0,1.0,part_3,go,0.0,0.0,0.0,294.0,6.0,294.0,147.0,245.0,49.0,196.0,98.0,orange,square
0.0,1.0,1.0,0.0,7.0,6.0,794.7571099994093,4.0,1.0,part_3,go,0.0,0.0,0.0,88.0,2.0,264.0,132.0,220.0,44.0,176.0,88.0,green,circle
0.0,2.0,2.0,0.0,7.0,6.0,1367.6412249997156,4.0,1.0,part_3,go,0.0,0.0,0.0,108.0,2.0,54.0,270.0,162.0,324.0,216.0,108.0,blue,diamond
0.0,1.0,1.0,0.0,7.0,5.0,1359.0275940005083,4.0,1.0,part_3,go,0.0,0.0,0.0,98.0,2.0,294.0,147.0,196.0,245.0,98.0,49.0,green,circle
0.0,7.0,3.0,1.0,7.0,3.0,1918.762510000306,4.0,1.0,part_3,go,0.0,0.0,0.0,245.0,5.0,49.0,294.0,245.0,98.0,147.0,196.0,magenta,hexagon
0.0,3.0,3.0,0.0,7.0,3.0,1408.4014390000448,4.0,1.0,part_3,go,0.0,0.0,0.0,102.0,3.0,68.0,170.0,102.0,204.0,136.0,34.0,yellow,triangle
0.0,2.0,2.0,0.0,7.0,4.0,1464.8154440001235,4.0,1.0,part_3,go,0.0,0.0,0.0,132.0,3.0,220.0,44.0,264.0,132.0,88.0,176.0,blue,diamond
0.0,1.0,1.0,0.0,7.0,4.0,2105.7699190005223,4.0,1.0,part_3,go,0.0,0.0,0.0,54.0,1.0,216.0,270.0,108.0,54.0,324.0,162.0,green,circle
0.0,7.0,3.0,1.0,7.0,5.0,2369.5466620001753,4.0,1.0,part_3,go,0.0,0.0,0.0,220.0,5.0,176.0,44.0,88.0,264.0,220.0,132.0,magenta,hexagon
0.0,4.0,4.0,0.0,7.0,4.0,1865.201922999404,4.0,1.0,part_3,go,0.0,0.0,0.0,324.0,6.0,162.0,54.0,216.0,324.0,108.0,270.0,orange,square
0.0,7.0,3.0,1.0,7.0,3.0,2368.010346000119,4.0,1.0,part_3,go,0.0,0.0,0.0,216.0,4.0,270.0,108.0,216.0,162.0,54.0,324.0,magenta,hexagon
0.0,4.0,4.0,0.0,7.0,3.0,1877.4587019997853,4.0,1.0,part_3,go,0.0,0.0,0.0,264.0,6.0,220.0,44.0,264.0,176.0,132.0,88.0,orange,square
0.0,7.0,3.0,1.0,7.0,6.0,1808.529025000098,4.0,1.0,part_3,go,0.0,0.0,0.0,204.0,6.0,170.0,102.0,136.0,34.0,68.0,204.0,magenta,hexagon
0.0,3.0,3.0,0.0,7.0,5.0,1541.6279210003268,4.0,1.0,part_3,go,0.0,0.0,0.0,170.0,5.0,34.0,204.0,68.0,102.0,170.0,136.0,yellow,triangle
0.0,3.0,3.0,0.0,7.0,3.0,1830.6298470006368,4.0,1.0,part_3,go,0.0,0.0,0.0,156.0,4.0,117.0,195.0,156.0,39.0,78.0,234.0,yellow,triangle
0.0,2.0,2.0,0.0,7.0,2.0,1824.5600279997232,4.0,1.0,part_3,go,0.0,0.0,0.0,102.0,3.0,136.0,102.0,170.0,68.0,34.0,204.0,blue,diamond
0.0,6.0,2.0,1.0,7.0,4.0,1353.9921450001202,4.0,1.0,part_3,go,0.0,0.0,0.0,88.0,2.0,44.0,132.0,220.0,88.0,176.0,264.0,white,I
