raw_reward_magnitude,stim_reward,stepwise_reward_magnitude,paired_with_stopping,quadrant,response,reaction_time,block,num_trial_presentations,which_part,stop_signal_trial_type,left_SSD,right_SSD,accuracy,chosen_bidding_amount,chosen_bidding_level,possible_bid_1,possible_bid_2,possible_bid_3,possible_bid_4,possible_bid_5,possible_bid_6,color_text,shape_text
378.0,4.0,4.0,0.0,1.0,1.0,541.5955210009997,1.0,1.0,part_1,,,,,,,,,,,,,yellow,triangle
398.0,8.0,4.0,1.0,3.0,3.0,345.0856640010897,1.0,1.0,part_1,,,,,,,,,,,,,cyan,hexagon
217.0,7.0,3.0,1.0,2.0,2.0,327.3503389973484,1.0,1.0,part_1,,,,,,,,,,,,,orange,I
79.0,6.0,2.0,1.0,1.0,1.0,289.1122360015288,1.0,1.0,part_1,,,,,,,,,,,,,blue,circle
220.0,3.0,3.0,0.0,3.0,3.0,412.5710099979187,1.0,1.0,part_1,,,,,,,,,,,,,white,diamond
0.0,1.0,0.0,0.0,4.0,4.0,344.3477500004519,1.0,1.0,part_1,,,,,,,,,,,,,magenta,cross
383.0,8.0,4.0,1.0,4.0,4.0,363.3072979973804,1.0,1.0,part_1,,,,,,,,,,,,,cyan,hexagon
77.0,2.0,2.0,0.0,2.0,2.0,285.0098739982059,1.0,1.0,part_1,,,,,,,,,,,,,green,flipped triangle
208.0,7.0,3.0,1.0,2.0,2.0,282.7545120017021,1.0,1.0,part_1,,,,,,,,,,,,,orange,I
225.0,7.0,3.0,1.0,4.0,4.0,275.0583710003411,1.0,1.0,part_1,,,,,,,,,,,,,orange,I
56.0,1.0,1.0,0.0,1.0,1.0,238.0544549996557,1.0,1.0,part_1,,,,,,,,,,,,,magenta,cross
0.0,8.0,0.0,1.0,1.0,1.0,299.9975249986164,1.0,1.0,part_1,,,,,,,,,,,,,cyan,hexagon
399.0,4.0,4.0,0.0,2.0,2.0,248.5389639987261,1.0,1.0,part_1,,,,,,,,,,,,,yellow,triangle
116.0,6.0,2.0,1.0,3.0,3.0,339.500541002053,1.0,1.0,part_1,,,,,,,,,,,,,blue,circle
393.0,4.0,4.0,0.0,1.0,1.0,207.2435890004271,1.0,1.0,part_1,,,,,,,,,,,,,yellow,triangle
195.0,7.0,3.0,1.0,3.0,3.0,264.6864939997613,1.0,1.0,part_1,,,,,,,,,,,,,orange,I
27.0,1.0,1.0,0.0,2.0,2.0,252.24642499961192,1.0,1.0,part_1,,,,,,,,,,,,,magenta,cross
116.0,6.0,2.0,1.0,1.0,1.0,234.1807429984328,1.0,1.0,part_1,,,,,,,,,,,,,blue,circle
387.0,8.0,4.0,1.0,1.0,1.0,263.3769290005148,1.0,1.0,part_1,,,,,,,,,,,,,cyan,hexagon
105.0,2.0,2.0,0.0,4.0,4.0,275.190037998982,1.0,1.0,part_1,,,,,,,,,,,,,green,flipped triangle
420.0,4.0,4.0,0.0,3.0,3.0,237.7688960004889,1.0,1.0,part_1,,,,,,,,,,,,,yellow,triangle
0.0,3.0,0.0,0.0,1.0,1.0,268.2213129992306,1.0,1.0,part_1,,,,,,,,,,,,,white,diamond
83.0,2.0,2.0,0.0,2.0,2.0,273.8731050012575,1.0,1.0,part_1,,,,,,,,,,,,,green,flipped triangle
410.0,8.0,4.0,1.0,3.0,3.0,260.3797800002212,1.0,1.0,part_1,,,,,,,,,,,,,cyan,hexagon
111.0,2.0,2.0,0.0,3.0,3.0,257.95721400209,1.0,1.0,part_1,,,,,,,,,,,,,green,flipped triangle
46.0,1.0,1.0,0.0,2.0,2.0,264.4389560009585,1.0,1.0,part_1,,,,,,,,,,,,,magenta,cross
0.0,5.0,0.0,1.0,3.0,3.0,264.1922940019867,1.0,1.0,part_1,,,,,,,,,,,,,gray,square
398.0,4.0,4.0,0.0,3.0,3.0,301.0904849979852,1.0,1.0,part_1,,,,,,,,,,,,,yellow,triangle
0.0,7.0,0.0,1.0,3.0,3.0,283.2735020019754,1.0,1.0,part_1,,,,,,,,,,,,,orange,I
0.0,6.0,0.0,1.0,2.0,2.0,320.028447000368,1.0,1.0,part_1,,,,,,,,,,,,,blue,circle
185.0,7.0,3.0,1.0,3.0,3.0,294.6611299994401,1.0,1.0,part_1,,,,,,,,,,,,,orange,I
0.0,8.0,0.0,1.0,3.0,3.0,290.34830800083,1.0,1.0,part_1,,,,,,,,,,,,,cyan,hexagon
393.0,4.0,4.0,0.0,1.0,1.0,265.1471910030523,1.0,1.0,part_1,,,,,,,,,,,,,yellow,triangle
179.0,7.0,3.0,1.0,2.0,2.0,299.9431950011058,1.0,1.0,part_1,,,,,,,,,,,,,orange,I
60.0,1.0,1.0,0.0,3.0,3.0,268.8191390006977,1.0,1.0,part_1,,,,,,,,,,,,,magenta,cross
193.0,7.0,3.0,1.0,3.0,3.0,346.2880240003869,1.0,1.0,part_1,,,,,,,,,,,,,orange,I
406.0,8.0,4.0,1.0,4.0,4.0,256.5058959989983,1.0,1.0,part_1,,,,,,,,,,,,,cyan,hexagon
59.0,1.0,1.0,0.0,2.0,2.0,352.9610349978611,1.0,1.0,part_1,,,,,,,,,,,,,magenta,cross
73.0,5.0,1.0,1.0,2.0,2.0,286.5715240004647,1.0,1.0,part_1,,,,,,,,,,,,,gray,square
41.0,1.0,1.0,0.0,2.0,2.0,318.3961190006812,1.0,1.0,part_1,,,,,,,,,,,,,magenta,cross
397.0,8.0,4.0,1.0,3.0,3.0,297.0424070008448,1.0,1.0,part_1,,,,,,,,,,,,,cyan,hexagon
183.0,7.0,3.0,1.0,4.0,4.0,309.915688001638,1.0,1.0,part_1,,,,,,,,,,,,,orange,I
206.0,7.0,3.0,1.0,1.0,1.0,249.6348549975664,1.0,1.0,part_1,,,,,,,,,,,,,orange,I
0.0,3.0,0.0,0.0,2.0,2.0,272.8899630019441,1.0,1.0,part_1,,,,,,,,,,,,,white,diamond
0.0,6.0,0.0,1.0,1.0,1.0,237.6450079973437,1.0,1.0,part_1,,,,,,,,,,,,,blue,circle
0.0,4.0,0.0,0.0,3.0,3.0,289.5910440020088,1.0,1.0,part_1,,,,,,,,,,,,,yellow,triangle
404.0,8.0,4.0,1.0,2.0,2.0,265.7289640010276,1.0,1.0,part_1,,,,,,,,,,,,,cyan,hexagon
39.0,1.0,1.0,0.0,3.0,3.0,316.3601829983236,1.0,1.0,part_1,,,,,,,,,,,,,magenta,cross
94.0,6.0,2.0,1.0,4.0,4.0,290.1663280026696,1.0,1.0,part_1,,,,,,,,,,,,,blue,circle
88.0,6.0,2.0,1.0,3.0,3.0,274.9730150026153,1.0,1.0,part_1,,,,,,,,,,,,,blue,circle
377.0,8.0,4.0,1.0,3.0,3.0,284.7872320016904,1.0,1.0,part_1,,,,,,,,,,,,,cyan,hexagon
378.0,8.0,4.0,1.0,3.0,3.0,280.3437649999978,1.0,1.0,part_1,,,,,,,,,,,,,cyan,hexagon
0.0,6.0,0.0,1.0,1.0,1.0,301.2598709974554,1.0,1.0,part_1,,,,,,,,,,,,,blue,circle
212.0,3.0,3.0,0.0,2.0,2.0,283.5248589981347,1.0,1.0,part_1,,,,,,,,,,,,,white,diamond
28.0,1.0,1.0,0.0,2.0,2.0,296.4345469990803,1.0,2.0,part_1,,,,,,,,,,,,,magenta,cross
74.0,5.0,1.0,1.0,3.0,3.0,400.1468629976443,1.0,1.0,part_1,,,,,,,,,,,,,gray,square
67.0,5.0,1.0,1.0,3.0,3.0,357.2749380000459,1.0,1.0,part_1,,,,,,,,,,,,,gray,square
120.0,2.0,2.0,0.0,1.0,1.0,306.8232379991968,1.0,1.0,part_1,,,,,,,,,,,,,green,flipped triangle
0.0,3.0,0.0,0.0,4.0,4.0,334.0785880027397,1.0,1.0,part_1,,,,,,,,,,,,,white,diamond
417.0,8.0,4.0,1.0,1.0,1.0,289.1267150007479,1.0,1.0,part_1,,,,,,,,,,,,,cyan,hexagon
0.0,8.0,0.0,1.0,3.0,3.0,301.2822719974792,1.0,1.0,part_1,,,,,,,,,,,,,cyan,hexagon
183.0,7.0,3.0,1.0,1.0,1.0,300.5277320007735,1.0,1.0,part_1,,,,,,,,,,,,,orange,I
88.0,2.0,2.0,0.0,2.0,2.0,338.3150750014465,1.0,1.0,part_1,,,,,,,,,,,,,green,flipped triangle
199.0,3.0,3.0,0.0,4.0,4.0,290.3115980006987,1.0,1.0,part_1,,,,,,,,,,,,,white,diamond
402.0,4.0,4.0,0.0,4.0,4.0,333.7108769992483,1.0,1.0,part_1,,,,,,,,,,,,,yellow,triangle
68.0,1.0,1.0,0.0,1.0,1.0,327.1753119988716,1.0,1.0,part_1,,,,,,,,,,,,,magenta,cross
101.0,2.0,2.0,0.0,4.0,4.0,354.7056300012627,1.0,1.0,part_1,,,,,,,,,,,,,green,flipped triangle
176.0,3.0,3.0,0.0,4.0,4.0,311.5719229972455,1.0,1.0,part_1,,,,,,,,,,,,,white,diamond
0.0,2.0,0.0,0.0,3.0,3.0,473.5707289983111,1.0,1.0,part_1,,,,,,,,,,,,,green,flipped triangle
207.0,3.0,3.0,0.0,3.0,3.0,372.008302998438,1.0,1.0,part_1,,,,,,,,,,,,,white,diamond
208.0,7.0,3.0,1.0,2.0,2.0,343.4556210013397,1.0,1.0,part_1,,,,,,,,,,,,,orange,I
0.0,2.0,0.0,0.0,4.0,4.0,331.4599670011375,1.0,1.0,part_1,,,,,,,,,,,,,green,flipped triangle
0.0,3.0,0.0,0.0,3.0,3.0,353.9955320011358,1.0,1.0,part_1,,,,,,,,,,,,,white,diamond
0.0,2.0,0.0,0.0,2.0,2.0,376.661050999246,1.0,1.0,part_1,,,,,,,,,,,,,green,flipped triangle
379.0,8.0,4.0,1.0,2.0,2.0,363.4545800014166,1.0,1.0,part_1,,,,,,,,,,,,,cyan,hexagon
193.0,3.0,3.0,0.0,4.0,4.0,320.2406389973475,1.0,1.0,part_1,,,,,,,,,,,,,white,diamond
389.0,4.0,4.0,0.0,4.0,4.0,353.6701929988339,1.0,1.0,part_1,,,,,,,,,,,,,yellow,triangle
208.0,3.0,3.0,0.0,2.0,2.0,481.45534500145,1.0,1.0,part_1,,,,,,,,,,,,,white,diamond
0.0,7.0,0.0,1.0,1.0,1.0,624.689901000238,1.0,1.0,part_1,,,,,,,,,,,,,orange,I
75.0,1.0,1.0,0.0,2.0,2.0,408.2012200015015,1.0,1.0,part_1,,,,,,,,,,,,,magenta,cross
411.0,4.0,4.0,0.0,4.0,4.0,319.5401419980044,1.0,1.0,part_1,,,,,,,,,,,,,yellow,triangle
397.0,4.0,4.0,0.0,3.0,3.0,341.4564839986269,1.0,1.0,part_1,,,,,,,,,,,,,yellow,triangle
0.0,4.0,0.0,0.0,3.0,3.0,422.7741370013973,1.0,1.0,part_1,,,,,,,,,,,,,yellow,triangle
54.0,1.0,1.0,0.0,1.0,1.0,455.4275469999993,1.0,1.0,part_1,,,,,,,,,,,,,magenta,cross
59.0,1.0,1.0,0.0,4.0,4.0,289.2967019979551,1.0,1.0,part_1,,,,,,,,,,,,,magenta,cross
107.0,2.0,2.0,0.0,1.0,1.0,343.450637999922,1.0,1.0,part_1,,,,,,,,,,,,,green,flipped triangle
225.0,3.0,3.0,0.0,2.0,2.0,406.8822160006675,1.0,1.0,part_1,,,,,,,,,,,,,white,diamond
81.0,2.0,2.0,0.0,3.0,3.0,330.2686669994727,1.0,1.0,part_1,,,,,,,,,,,,,green,flipped triangle
64.0,1.0,1.0,0.0,3.0,3.0,424.4616929972835,1.0,1.0,part_1,,,,,,,,,,,,,magenta,cross
54.0,5.0,1.0,1.0,3.0,3.0,368.3578780000971,1.0,1.0,part_1,,,,,,,,,,,,,gray,square
0.0,3.0,0.0,0.0,2.0,2.0,528.1661000008171,1.0,1.0,part_1,,,,,,,,,,,,,white,diamond
124.0,2.0,2.0,0.0,3.0,3.0,384.994228999858,1.0,1.0,part_1,,,,,,,,,,,,,green,flipped triangle
108.0,6.0,2.0,1.0,3.0,3.0,431.0560759986401,1.0,1.0,part_1,,,,,,,,,,,,,blue,circle
0.0,5.0,0.0,1.0,3.0,3.0,422.9701059994113,1.0,1.0,part_1,,,,,,,,,,,,,gray,square
0.0,2.0,0.0,0.0,1.0,1.0,387.5690780005243,1.0,1.0,part_1,,,,,,,,,,,,,green,flipped triangle
39.0,1.0,1.0,0.0,1.0,1.0,374.9869399980525,1.0,1.0,part_1,,,,,,,,,,,,,magenta,cross
187.0,7.0,3.0,1.0,4.0,4.0,363.9116590020421,1.0,1.0,part_1,,,,,,,,,,,,,orange,I
117.0,6.0,2.0,1.0,1.0,1.0,352.7823770018585,1.0,1.0,part_1,,,,,,,,,,,,,blue,circle
221.0,3.0,3.0,0.0,2.0,2.0,323.0845630023395,1.0,1.0,part_1,,,,,,,,,,,,,white,diamond
220.0,3.0,3.0,0.0,2.0,2.0,308.641750998504,1.0,1.0,part_1,,,,,,,,,,,,,white,diamond
68.0,5.0,1.0,1.0,3.0,3.0,365.6034740015457,2.0,1.0,part_1,,,,,,,,,,,,,gray,square
179.0,3.0,3.0,0.0,3.0,3.0,333.8696339997113,2.0,1.0,part_1,,,,,,,,,,,,,white,diamond
383.0,8.0,4.0,1.0,4.0,4.0,286.8845679986407,2.0,1.0,part_1,,,,,,,,,,,,,cyan,hexagon
211.0,7.0,3.0,1.0,3.0,3.0,287.3743219970492,2.0,1.0,part_1,,,,,,,,,,,,,orange,I
51.0,1.0,1.0,0.0,4.0,4.0,305.9099470010551,2.0,1.0,part_1,,,,,,,,,,,,,magenta,cross
0.0,2.0,0.0,0.0,4.0,4.0,307.7030070016917,2.0,1.0,part_1,,,,,,,,,,,,,green,flipped triangle
390.0,4.0,4.0,0.0,2.0,2.0,321.0913010007061,2.0,1.0,part_1,,,,,,,,,,,,,yellow,triangle
0.0,1.0,0.0,0.0,1.0,1.0,339.1517519994522,2.0,1.0,part_1,,,,,,,,,,,,,magenta,cross
54.0,5.0,1.0,1.0,2.0,2.0,323.1552739998733,2.0,1.0,part_1,,,,,,,,,,,,,gray,square
209.0,3.0,3.0,0.0,3.0,3.0,310.1294430016423,2.0,1.0,part_1,,,,,,,,,,,,,white,diamond
95.0,2.0,2.0,0.0,4.0,4.0,337.6849000014772,2.0,1.0,part_1,,,,,,,,,,,,,green,flipped triangle
207.0,3.0,3.0,0.0,3.0,3.0,367.5532449997263,2.0,1.0,part_1,,,,,,,,,,,,,white,diamond
187.0,3.0,3.0,0.0,4.0,4.0,301.7704300000332,2.0,1.0,part_1,,,,,,,,,,,,,white,diamond
0.0,3.0,0.0,0.0,4.0,4.0,329.1117699991446,2.0,1.0,part_1,,,,,,,,,,,,,white,diamond
378.0,8.0,4.0,1.0,3.0,3.0,376.6302200019709,2.0,1.0,part_1,,,,,,,,,,,,,cyan,hexagon
95.0,6.0,2.0,1.0,2.0,2.0,363.2131619997381,2.0,1.0,part_1,,,,,,,,,,,,,blue,circle
0.0,8.0,0.0,1.0,2.0,2.0,345.0366750003013,2.0,1.0,part_1,,,,,,,,,,,,,cyan,hexagon
0.0,3.0,0.0,0.0,4.0,4.0,319.0521230026206,2.0,1.0,part_1,,,,,,,,,,,,,white,diamond
83.0,6.0,2.0,1.0,4.0,4.0,317.9268530002446,2.0,1.0,part_1,,,,,,,,,,,,,blue,circle
413.0,4.0,4.0,0.0,2.0,2.0,387.5308969982143,2.0,1.0,part_1,,,,,,,,,,,,,yellow,triangle
0.0,7.0,0.0,1.0,1.0,1.0,331.0304199985694,2.0,1.0,part_1,,,,,,,,,,,,,orange,I
387.0,8.0,4.0,1.0,3.0,3.0,400.978991001466,2.0,1.0,part_1,,,,,,,,,,,,,cyan,hexagon
183.0,3.0,3.0,0.0,4.0,4.0,304.170413997781,2.0,1.0,part_1,,,,,,,,,,,,,white,diamond
40.0,5.0,1.0,1.0,3.0,3.0,401.2905300005513,2.0,1.0,part_1,,,,,,,,,,,,,gray,square
183.0,3.0,3.0,0.0,2.0,2.0,353.6549720010953,2.0,1.0,part_1,,,,,,,,,,,,,white,diamond
175.0,7.0,3.0,1.0,1.0,1.0,326.5836399987165,2.0,1.0,part_1,,,,,,,,,,,,,orange,I
91.0,6.0,2.0,1.0,2.0,2.0,464.063810002699,2.0,1.0,part_1,,,,,,,,,,,,,blue,circle
56.0,1.0,1.0,0.0,2.0,2.0,344.8119629974826,2.0,1.0,part_1,,,,,,,,,,,,,magenta,cross
0.0,7.0,0.0,1.0,3.0,3.0,376.2900300025649,2.0,1.0,part_1,,,,,,,,,,,,,orange,I
82.0,2.0,2.0,0.0,4.0,4.0,270.3866900010325,2.0,1.0,part_1,,,,,,,,,,,,,green,flipped triangle
76.0,6.0,2.0,1.0,3.0,3.0,314.8096330005501,2.0,1.0,part_1,,,,,,,,,,,,,blue,circle
196.0,7.0,3.0,1.0,3.0,3.0,346.5700849992572,2.0,1.0,part_1,,,,,,,,,,,,,orange,I
0.0,8.0,0.0,1.0,1.0,1.0,382.4545190000208,2.0,1.0,part_1,,,,,,,,,,,,,cyan,hexagon
0.0,3.0,0.0,0.0,4.0,4.0,358.0080719984835,2.0,1.0,part_1,,,,,,,,,,,,,white,diamond
219.0,3.0,3.0,0.0,4.0,4.0,279.9396789996535,2.0,1.0,part_1,,,,,,,,,,,,,white,diamond
77.0,6.0,2.0,1.0,4.0,4.0,300.7982259987329,2.0,1.0,part_1,,,,,,,,,,,,,blue,circle
0.0,1.0,0.0,0.0,1.0,1.0,291.8630700005451,2.0,1.0,part_1,,,,,,,,,,,,,magenta,cross
64.0,5.0,1.0,1.0,3.0,3.0,306.21641900143,2.0,1.0,part_1,,,,,,,,,,,,,gray,square
415.0,8.0,4.0,1.0,4.0,4.0,284.5315699996718,2.0,1.0,part_1,,,,,,,,,,,,,cyan,hexagon
180.0,7.0,3.0,1.0,1.0,1.0,411.5957739995792,2.0,1.0,part_1,,,,,,,,,,,,,orange,I
0.0,7.0,0.0,1.0,2.0,2.0,367.8276630016626,2.0,1.0,part_1,,,,,,,,,,,,,orange,I
190.0,7.0,3.0,1.0,3.0,3.0,335.7436200021766,2.0,1.0,part_1,,,,,,,,,,,,,orange,I
0.0,1.0,0.0,0.0,3.0,3.0,358.898639002291,2.0,1.0,part_1,,,,,,,,,,,,,magenta,cross
73.0,1.0,1.0,0.0,2.0,2.0,355.9424830018542,2.0,1.0,part_1,,,,,,,,,,,,,magenta,cross
215.0,7.0,3.0,1.0,2.0,2.0,381.7016280008829,2.0,1.0,part_1,,,,,,,,,,,,,orange,I
183.0,7.0,3.0,1.0,1.0,1.0,352.4064500015811,2.0,1.0,part_1,,,,,,,,,,,,,orange,I
104.0,6.0,2.0,1.0,2.0,2.0,345.4155100043863,2.0,1.0,part_1,,,,,,,,,,,,,blue,circle
121.0,2.0,2.0,0.0,1.0,1.0,353.990422001516,2.0,1.0,part_1,,,,,,,,,,,,,green,flipped triangle
0.0,5.0,0.0,1.0,2.0,2.0,338.6503700021421,2.0,1.0,part_1,,,,,,,,,,,,,gray,square
212.0,3.0,3.0,0.0,1.0,1.0,317.3867340010474,2.0,1.0,part_1,,,,,,,,,,,,,white,diamond
383.0,4.0,4.0,0.0,1.0,1.0,375.7920460047899,2.0,1.0,part_1,,,,,,,,,,,,,yellow,triangle
0.0,4.0,0.0,0.0,1.0,1.0,386.0338910017162,2.0,1.0,part_1,,,,,,,,,,,,,yellow,triangle
0.0,3.0,0.0,0.0,2.0,2.0,330.6171059957705,2.0,1.0,part_1,,,,,,,,,,,,,white,diamond
42.0,1.0,1.0,0.0,4.0,4.0,351.7054640033166,2.0,1.0,part_1,,,,,,,,,,,,,magenta,cross
0.0,7.0,0.0,1.0,2.0,2.0,310.8863450033823,2.0,1.0,part_1,,,,,,,,,,,,,orange,I
60.0,1.0,1.0,0.0,1.0,1.0,360.1052009980776,2.0,1.0,part_1,,,,,,,,,,,,,magenta,cross
209.0,7.0,3.0,1.0,1.0,1.0,293.2086329965386,2.0,1.0,part_1,,,,,,,,,,,,,orange,I
30.0,5.0,1.0,1.0,4.0,4.0,293.4025270005804,2.0,1.0,part_1,,,,,,,,,,,,,gray,square
400.0,4.0,4.0,0.0,3.0,3.0,311.2576709972927,2.0,1.0,part_1,,,,,,,,,,,,,yellow,triangle
0.0,5.0,0.0,1.0,2.0,2.0,302.5844549993053,2.0,1.0,part_1,,,,,,,,,,,,,gray,square
179.0,3.0,3.0,0.0,1.0,1.0,221.9917089969385,2.0,1.0,part_1,,,,,,,,,,,,,white,diamond
383.0,4.0,4.0,0.0,4.0,4.0,270.439885003725,2.0,1.0,part_1,,,,,,,,,,,,,yellow,triangle
59.0,5.0,1.0,1.0,1.0,1.0,318.0116319999797,2.0,1.0,part_1,,,,,,,,,,,,,gray,square
54.0,1.0,1.0,0.0,4.0,4.0,242.2656710041337,2.0,1.0,part_1,,,,,,,,,,,,,magenta,cross
93.0,2.0,2.0,0.0,1.0,1.0,264.0566589980153,2.0,1.0,part_1,,,,,,,,,,,,,green,flipped triangle
104.0,2.0,2.0,0.0,2.0,2.0,311.800712996046,2.0,1.0,part_1,,,,,,,,,,,,,green,flipped triangle
0.0,6.0,0.0,1.0,1.0,1.0,401.9930089998524,2.0,1.0,part_1,,,,,,,,,,,,,blue,circle
417.0,4.0,4.0,0.0,4.0,4.0,375.6659840000793,2.0,1.0,part_1,,,,,,,,,,,,,yellow,triangle
411.0,4.0,4.0,0.0,2.0,2.0,284.5196640046197,2.0,1.0,part_1,,,,,,,,,,,,,yellow,triangle
0.0,6.0,0.0,1.0,3.0,3.0,316.4013310015434,2.0,1.0,part_1,,,,,,,,,,,,,blue,circle
42.0,5.0,1.0,1.0,2.0,2.0,338.0662060008035,2.0,1.0,part_1,,,,,,,,,,,,,gray,square
0.0,1.0,0.0,0.0,1.0,1.0,300.8876189996954,2.0,1.0,part_1,,,,,,,,,,,,,magenta,cross
425.0,8.0,4.0,1.0,4.0,4.0,259.3288409989327,2.0,1.0,part_1,,,,,,,,,,,,,cyan,hexagon
51.0,5.0,1.0,1.0,1.0,1.0,278.9560079982038,2.0,1.0,part_1,,,,,,,,,,,,,gray,square
37.0,1.0,1.0,0.0,1.0,1.0,328.5578819995862,2.0,1.0,part_1,,,,,,,,,,,,,magenta,cross
183.0,3.0,3.0,0.0,1.0,1.0,316.0905249969801,2.0,1.0,part_1,,,,,,,,,,,,,white,diamond
108.0,2.0,2.0,0.0,3.0,3.0,324.0074060013285,2.0,1.0,part_1,,,,,,,,,,,,,green,flipped triangle
0.0,1.0,0.0,0.0,2.0,2.0,293.8652119992184,2.0,1.0,part_1,,,,,,,,,,,,,magenta,cross
185.0,7.0,3.0,1.0,2.0,2.0,419.448877000832,2.0,1.0,part_1,,,,,,,,,,,,,orange,I
379.0,4.0,4.0,0.0,2.0,2.0,331.7762939987005,2.0,1.0,part_1,,,,,,,,,,,,,yellow,triangle
28.0,5.0,1.0,1.0,4.0,4.0,372.4388400005409,2.0,1.0,part_1,,,,,,,,,,,,,gray,square
393.0,8.0,4.0,1.0,1.0,1.0,351.9457040019915,2.0,1.0,part_1,,,,,,,,,,,,,cyan,hexagon
0.0,7.0,0.0,1.0,1.0,1.0,393.2063169995672,2.0,1.0,part_1,,,,,,,,,,,,,orange,I
396.0,8.0,4.0,1.0,4.0,4.0,380.2109040043433,2.0,1.0,part_1,,,,,,,,,,,,,cyan,hexagon
189.0,7.0,3.0,1.0,1.0,1.0,358.4259439958259,2.0,1.0,part_1,,,,,,,,,,,,,orange,I
377.0,4.0,4.0,0.0,3.0,3.0,510.681208994356,2.0,1.0,part_1,,,,,,,,,,,,,yellow,triangle
74.0,1.0,1.0,0.0,4.0,4.0,293.2377540055313,2.0,1.0,part_1,,,,,,,,,,,,,magenta,cross
406.0,8.0,4.0,1.0,1.0,1.0,283.9455249995808,2.0,1.0,part_1,,,,,,,,,,,,,cyan,hexagon
56.0,5.0,1.0,1.0,1.0,1.0,351.0827139980392,2.0,1.0,part_1,,,,,,,,,,,,,gray,square
0.0,4.0,0.0,0.0,1.0,1.0,340.5817979946732,2.0,1.0,part_1,,,,,,,,,,,,,yellow,triangle
0.0,5.0,0.0,1.0,1.0,1.0,289.4162840020726,2.0,1.0,part_1,,,,,,,,,,,,,gray,square
404.0,4.0,4.0,0.0,3.0,3.0,319.2570760002127,2.0,1.0,part_1,,,,,,,,,,,,,yellow,triangle
419.0,4.0,4.0,0.0,4.0,4.0,241.0119519990985,2.0,1.0,part_1,,,,,,,,,,,,,yellow,triangle
33.0,5.0,1.0,1.0,1.0,1.0,346.6795419953996,2.0,1.0,part_1,,,,,,,,,,,,,gray,square
68.0,5.0,1.0,1.0,1.0,1.0,357.3907940008212,2.0,1.0,part_1,,,,,,,,,,,,,gray,square
398.0,8.0,4.0,1.0,2.0,2.0,303.3707210051943,2.0,1.0,part_1,,,,,,,,,,,,,cyan,hexagon
54.0,1.0,1.0,0.0,3.0,3.0,315.9800060020643,2.0,1.0,part_1,,,,,,,,,,,,,magenta,cross
39.0,5.0,1.0,1.0,4.0,4.0,318.7113890016917,2.0,1.0,part_1,,,,,,,,,,,,,gray,square
0.0,5.0,0.0,1.0,1.0,1.0,322.9263670000364,2.0,1.0,part_1,,,,,,,,,,,,,gray,square
0.0,6.0,0.0,1.0,1.0,1.0,246.8564259979757,2.0,1.0,part_1,,,,,,,,,,,,,blue,circle
32.0,1.0,1.0,0.0,4.0,4.0,345.5798319992027,3.0,1.0,part_1,,,,,,,,,,,,,magenta,cross
117.0,6.0,2.0,1.0,1.0,1.0,320.13700799871,3.0,1.0,part_1,,,,,,,,,,,,,blue,circle
0.0,8.0,0.0,1.0,1.0,1.0,339.8301870038267,3.0,1.0,part_1,,,,,,,,,,,,,cyan,hexagon
219.0,7.0,3.0,1.0,1.0,1.0,289.7724169961293,3.0,1.0,part_1,,,,,,,,,,,,,orange,I
100.0,2.0,2.0,0.0,2.0,2.0,314.0106879945961,3.0,1.0,part_1,,,,,,,,,,,,,green,flipped triangle
107.0,6.0,2.0,1.0,4.0,4.0,321.95952499751,3.0,1.0,part_1,,,,,,,,,,,,,blue,circle
420.0,8.0,4.0,1.0,2.0,2.0,255.5720150048728,3.0,1.0,part_1,,,,,,,,,,,,,cyan,hexagon
389.0,8.0,4.0,1.0,4.0,4.0,298.6952409992227,3.0,1.0,part_1,,,,,,,,,,,,,cyan,hexagon
37.0,5.0,1.0,1.0,3.0,3.0,353.9545870007714,3.0,1.0,part_1,,,,,,,,,,,,,gray,square
45.0,5.0,1.0,1.0,2.0,2.0,297.421925002709,3.0,1.0,part_1,,,,,,,,,,,,,gray,square
0.0,7.0,0.0,1.0,1.0,1.0,251.06282599881519,3.0,1.0,part_1,,,,,,,,,,,,,orange,I
187.0,7.0,3.0,1.0,2.0,2.0,351.6055390064139,3.0,1.0,part_1,,,,,,,,,,,,,orange,I
0.0,1.0,0.0,0.0,4.0,4.0,377.3958350066095,3.0,1.0,part_1,,,,,,,,,,,,,magenta,cross
192.0,7.0,3.0,1.0,3.0,3.0,377.0856720002484,3.0,1.0,part_1,,,,,,,,,,,,,orange,I
44.0,5.0,1.0,1.0,1.0,1.0,465.6933620062773,3.0,1.0,part_1,,,,,,,,,,,,,gray,square
393.0,8.0,4.0,1.0,3.0,3.0,366.9423619940062,3.0,1.0,part_1,,,,,,,,,,,,,cyan,hexagon
75.0,5.0,1.0,1.0,1.0,1.0,369.5507420052308,3.0,1.0,part_1,,,,,,,,,,,,,gray,square
196.0,3.0,3.0,0.0,3.0,3.0,364.7570820030523,3.0,1.0,part_1,,,,,,,,,,,,,white,diamond
0.0,2.0,0.0,0.0,2.0,2.0,310.520742998051,3.0,1.0,part_1,,,,,,,,,,,,,green,flipped triangle
397.0,8.0,4.0,1.0,2.0,2.0,335.4364800034091,3.0,1.0,part_1,,,,,,,,,,,,,cyan,hexagon
404.0,4.0,4.0,0.0,3.0,3.0,346.9605220016092,3.0,1.0,part_1,,,,,,,,,,,,,yellow,triangle
88.0,2.0,2.0,0.0,1.0,1.0,290.1660830029868,3.0,1.0,part_1,,,,,,,,,,,,,green,flipped triangle
411.0,8.0,4.0,1.0,3.0,3.0,321.0237409948604,3.0,1.0,part_1,,,,,,,,,,,,,cyan,hexagon
179.0,7.0,3.0,1.0,4.0,4.0,307.2180780000053,3.0,1.0,part_1,,,,,,,,,,,,,orange,I
79.0,2.0,2.0,0.0,4.0,4.0,325.3981239977292,3.0,1.0,part_1,,,,,,,,,,,,,green,flipped triangle
116.0,2.0,2.0,0.0,1.0,1.0,349.2492329969536,3.0,1.0,part_1,,,,,,,,,,,,,green,flipped triangle
180.0,3.0,3.0,0.0,4.0,4.0,307.9950449973694,3.0,1.0,part_1,,,,,,,,,,,,,white,diamond
0.0,6.0,0.0,1.0,3.0,3.0,285.7071070029633,3.0,1.0,part_1,,,,,,,,,,,,,blue,circle
0.0,8.0,0.0,1.0,4.0,4.0,289.9617069997475,3.0,1.0,part_1,,,,,,,,,,,,,cyan,hexagon
83.0,6.0,2.0,1.0,4.0,4.0,258.008514996618,3.0,1.0,part_1,,,,,,,,,,,,,blue,circle
33.0,1.0,1.0,0.0,3.0,3.0,304.0048350012512,3.0,1.0,part_1,,,,,,,,,,,,,magenta,cross
402.0,8.0,4.0,1.0,1.0,1.0,237.4099659937201,3.0,1.0,part_1,,,,,,,,,,,,,cyan,hexagon
68.0,1.0,1.0,0.0,4.0,4.0,244.9347559959278,3.0,1.0,part_1,,,,,,,,,,,,,magenta,cross
108.0,6.0,2.0,1.0,3.0,3.0,291.0178780002752,3.0,1.0,part_1,,,,,,,,,,,,,blue,circle
187.0,3.0,3.0,0.0,1.0,1.0,325.8060790030868,3.0,1.0,part_1,,,,,,,,,,,,,white,diamond
0.0,6.0,0.0,1.0,3.0,3.0,322.8518159958184,3.0,1.0,part_1,,,,,,,,,,,,,blue,circle
420.0,8.0,4.0,1.0,2.0,2.0,333.5578230035025,3.0,1.0,part_1,,,,,,,,,,,,,cyan,hexagon
208.0,3.0,3.0,0.0,1.0,1.0,285.5985520000104,3.0,1.0,part_1,,,,,,,,,,,,,white,diamond
0.0,4.0,0.0,0.0,2.0,2.0,323.8777869992191,3.0,1.0,part_1,,,,,,,,,,,,,yellow,triangle
28.0,1.0,1.0,0.0,4.0,4.0,275.7151289988542,3.0,1.0,part_1,,,,,,,,,,,,,magenta,cross
0.0,2.0,0.0,0.0,2.0,2.0,336.779569995997,3.0,1.0,part_1,,,,,,,,,,,,,green,flipped triangle
413.0,8.0,4.0,1.0,1.0,1.0,309.3863750036689,3.0,1.0,part_1,,,,,,,,,,,,,cyan,hexagon
117.0,2.0,2.0,0.0,4.0,4.0,311.6461739991791,3.0,1.0,part_1,,,,,,,,,,,,,green,flipped triangle
0.0,2.0,0.0,0.0,1.0,1.0,296.4570949989138,3.0,1.0,part_1,,,,,,,,,,,,,green,flipped triangle
410.0,4.0,4.0,0.0,1.0,1.0,300.1884040058939,3.0,1.0,part_1,,,,,,,,,,,,,yellow,triangle
65.0,5.0,1.0,1.0,3.0,3.0,321.0623999984818,3.0,1.0,part_1,,,,,,,,,,,,,gray,square
74.0,1.0,1.0,0.0,2.0,2.0,390.605320004397,3.0,1.0,part_1,,,,,,,,,,,,,magenta,cross
44.0,1.0,1.0,0.0,3.0,3.0,326.6633550010738,3.0,1.0,part_1,,,,,,,,,,,,,magenta,cross
101.0,6.0,2.0,1.0,4.0,4.0,284.4910490020993,3.0,1.0,part_1,,,,,,,,,,,,,blue,circle
60.0,5.0,1.0,1.0,4.0,4.0,395.7639709988143,3.0,1.0,part_1,,,,,,,,,,,,,gray,square
424.0,8.0,4.0,1.0,1.0,1.0,271.1890659993514,3.0,1.0,part_1,,,,,,,,,,,,,cyan,hexagon
117.0,2.0,2.0,0.0,3.0,3.0,343.4305949995178,3.0,1.0,part_1,,,,,,,,,,,,,green,flipped triangle
95.0,6.0,2.0,1.0,3.0,3.0,433.1067449966213,3.0,1.0,part_1,,,,,,,,,,,,,blue,circle
0.0,1.0,0.0,0.0,3.0,3.0,303.4807919975719,3.0,1.0,part_1,,,,,,,,,,,,,magenta,cross
124.0,6.0,2.0,1.0,1.0,1.0,261.5327640014584,3.0,1.0,part_1,,,,,,,,,,,,,blue,circle
199.0,7.0,3.0,1.0,4.0,4.0,327.2009339998476,3.0,1.0,part_1,,,,,,,,,,,,,orange,I
390.0,8.0,4.0,1.0,2.0,2.0,473.74616900197,3.0,1.0,part_1,,,,,,,,,,,,,cyan,hexagon
42.0,1.0,1.0,0.0,3.0,3.0,416.326399994432,3.0,1.0,part_1,,,,,,,,,,,,,magenta,cross
387.0,4.0,4.0,0.0,1.0,1.0,341.0843040037434,3.0,2.0,part_1,,,,,,,,,,,,,yellow,triangle
175.0,3.0,3.0,0.0,4.0,4.0,466.0600379938842,3.0,1.0,part_1,,,,,,,,,,,,,white,diamond
190.0,3.0,3.0,0.0,2.0,2.0,313.3116149983834,3.0,1.0,part_1,,,,,,,,,,,,,white,diamond
413.0,4.0,4.0,0.0,2.0,2.0,325.7215400008135,3.0,1.0,part_1,,,,,,,,,,,,,yellow,triangle
387.0,4.0,4.0,0.0,4.0,4.0,378.4945000006701,3.0,1.0,part_1,,,,,,,,,,,,,yellow,triangle
209.0,7.0,3.0,1.0,4.0,4.0,347.4377210004604,3.0,1.0,part_1,,,,,,,,,,,,,orange,I
0.0,4.0,0.0,0.0,4.0,4.0,335.8921450053458,3.0,1.0,part_1,,,,,,,,,,,,,yellow,triangle
79.0,2.0,2.0,0.0,4.0,4.0,325.7895540009485,3.0,1.0,part_1,,,,,,,,,,,,,green,flipped triangle
225.0,3.0,3.0,0.0,2.0,2.0,349.9662879985408,3.0,1.0,part_1,,,,,,,,,,,,,white,diamond
27.0,5.0,1.0,1.0,3.0,3.0,604.2554329978884,3.0,1.0,part_1,,,,,,,,,,,,,gray,square
76.0,2.0,2.0,0.0,2.0,2.0,388.7899350011139,3.0,1.0,part_1,,,,,,,,,,,,,green,flipped triangle
111.0,6.0,2.0,1.0,3.0,3.0,332.1327529993141,3.0,1.0,part_1,,,,,,,,,,,,,blue,circle
220.0,7.0,3.0,1.0,3.0,3.0,388.0773429991677,3.0,1.0,part_1,,,,,,,,,,,,,orange,I
219.0,3.0,3.0,0.0,2.0,2.0,336.0204430064186,3.0,1.0,part_1,,,,,,,,,,,,,white,diamond
106.0,2.0,2.0,0.0,1.0,1.0,389.3956999963848,3.0,1.0,part_1,,,,,,,,,,,,,green,flipped triangle
383.0,4.0,4.0,0.0,4.0,4.0,344.0692749936715,3.0,1.0,part_1,,,,,,,,,,,,,yellow,triangle
117.0,6.0,2.0,1.0,1.0,1.0,371.3456949990359,3.0,1.0,part_1,,,,,,,,,,,,,blue,circle
192.0,3.0,3.0,0.0,3.0,3.0,386.5952919950359,3.0,1.0,part_1,,,,,,,,,,,,,white,diamond
185.0,3.0,3.0,0.0,1.0,1.0,333.1496609971509,3.0,1.0,part_1,,,,,,,,,,,,,white,diamond
383.0,8.0,4.0,1.0,4.0,4.0,332.8992899987497,3.0,1.0,part_1,,,,,,,,,,,,,cyan,hexagon
419.0,8.0,4.0,1.0,3.0,3.0,380.8052199965459,3.0,1.0,part_1,,,,,,,,,,,,,cyan,hexagon
55.0,5.0,1.0,1.0,2.0,2.0,344.9798049987294,3.0,1.0,part_1,,,,,,,,,,,,,gray,square
94.0,6.0,2.0,1.0,4.0,4.0,341.7048109986353,3.0,1.0,part_1,,,,,,,,,,,,,blue,circle
60.0,5.0,1.0,1.0,1.0,1.0,328.6763629948837,3.0,1.0,part_1,,,,,,,,,,,,,gray,square
117.0,2.0,2.0,0.0,1.0,1.0,389.6451100008562,3.0,1.0,part_1,,,,,,,,,,,,,green,flipped triangle
406.0,4.0,4.0,0.0,1.0,1.0,366.6490709947538,3.0,1.0,part_1,,,,,,,,,,,,,yellow,triangle
424.0,4.0,4.0,0.0,2.0,2.0,373.5113410002668,3.0,1.0,part_1,,,,,,,,,,,,,yellow,triangle
95.0,2.0,2.0,0.0,1.0,1.0,311.1752620025072,3.0,1.0,part_1,,,,,,,,,,,,,green,flipped triangle
117.0,6.0,2.0,1.0,3.0,3.0,369.1633290000027,3.0,1.0,part_1,,,,,,,,,,,,,blue,circle
97.0,6.0,2.0,1.0,4.0,4.0,570.4337360002683,3.0,1.0,part_1,,,,,,,,,,,,,blue,circle
91.0,2.0,2.0,0.0,4.0,4.0,411.9391019994509,3.0,1.0,part_1,,,,,,,,,,,,,green,flipped triangle
211.0,3.0,3.0,0.0,1.0,1.0,387.4713049954152,3.0,1.0,part_1,,,,,,,,,,,,,white,diamond
67.0,1.0,1.0,0.0,2.0,2.0,357.0594350021565,3.0,1.0,part_1,,,,,,,,,,,,,magenta,cross
65.0,1.0,1.0,0.0,3.0,3.0,362.185556004988,3.0,1.0,part_1,,,,,,,,,,,,,magenta,cross
100.0,6.0,2.0,1.0,1.0,1.0,350.5857020063558,3.0,1.0,part_1,,,,,,,,,,,,,blue,circle
95.0,6.0,2.0,1.0,3.0,3.0,335.947451996617,3.0,1.0,part_1,,,,,,,,,,,,,blue,circle
55.0,1.0,1.0,0.0,1.0,1.0,336.7847390036331,3.0,1.0,part_1,,,,,,,,,,,,,magenta,cross
395.0,8.0,4.0,1.0,1.0,1.0,415.1953789987601,3.0,1.0,part_1,,,,,,,,,,,,,cyan,hexagon
204.0,7.0,3.0,1.0,3.0,3.0,456.1221960029797,3.0,1.0,part_1,,,,,,,,,,,,,orange,I
415.0,4.0,4.0,0.0,4.0,4.0,330.8292019937653,3.0,1.0,part_1,,,,,,,,,,,,,yellow,triangle
105.0,6.0,2.0,1.0,3.0,3.0,341.9326209987048,3.0,1.0,part_1,,,,,,,,,,,,,blue,circle
32.0,5.0,1.0,1.0,4.0,4.0,511.84740999451606,3.0,1.0,part_1,,,,,,,,,,,,,gray,square
397.0,4.0,4.0,0.0,3.0,3.0,359.2167120004887,4.0,1.0,part_1,,,,,,,,,,,,,yellow,triangle
0.0,6.0,0.0,1.0,3.0,3.0,372.1105399963562,4.0,1.0,part_1,,,,,,,,,,,,,blue,circle
82.0,6.0,2.0,1.0,2.0,2.0,330.7278709980892,4.0,1.0,part_1,,,,,,,,,,,,,blue,circle
0.0,6.0,0.0,1.0,1.0,1.0,300.037742999848,4.0,1.0,part_1,,,,,,,,,,,,,blue,circle
0.0,4.0,0.0,0.0,3.0,3.0,362.1435640015988,4.0,1.0,part_1,,,,,,,,,,,,,yellow,triangle
97.0,2.0,2.0,0.0,3.0,3.0,442.2459019988309,4.0,1.0,part_1,,,,,,,,,,,,,green,flipped triangle
394.0,4.0,4.0,0.0,3.0,3.0,301.9901840016246,4.0,1.0,part_1,,,,,,,,,,,,,yellow,triangle
44.0,1.0,1.0,0.0,1.0,1.0,323.3719720010413,4.0,1.0,part_1,,,,,,,,,,,,,magenta,cross
94.0,2.0,2.0,0.0,2.0,2.0,319.0150779992109,4.0,1.0,part_1,,,,,,,,,,,,,green,flipped triangle
215.0,3.0,3.0,0.0,1.0,1.0,350.590119996923,4.0,1.0,part_1,,,,,,,,,,,,,white,diamond
117.0,2.0,2.0,0.0,2.0,2.0,327.4778399936622,4.0,1.0,part_1,,,,,,,,,,,,,green,flipped triangle
60.0,1.0,1.0,0.0,3.0,3.0,340.7762550050393,4.0,1.0,part_1,,,,,,,,,,,,,magenta,cross
378.0,4.0,4.0,0.0,2.0,2.0,356.7981400046847,4.0,1.0,part_1,,,,,,,,,,,,,yellow,triangle
225.0,7.0,3.0,1.0,3.0,3.0,397.4022330003208,4.0,1.0,part_1,,,,,,,,,,,,,orange,I
404.0,8.0,4.0,1.0,2.0,2.0,371.3875379980891,4.0,1.0,part_1,,,,,,,,,,,,,cyan,hexagon
51.0,1.0,1.0,0.0,4.0,4.0,377.6390200000605,4.0,1.0,part_1,,,,,,,,,,,,,magenta,cross
0.0,4.0,0.0,0.0,4.0,4.0,394.0248590006376,4.0,1.0,part_1,,,,,,,,,,,,,yellow,triangle
420.0,4.0,4.0,0.0,1.0,1.0,393.5359839961165,4.0,1.0,part_1,,,,,,,,,,,,,yellow,triangle
94.0,2.0,2.0,0.0,2.0,2.0,322.9511739991721,4.0,1.0,part_1,,,,,,,,,,,,,green,flipped triangle
120.0,6.0,2.0,1.0,2.0,2.0,351.129349997791,4.0,1.0,part_1,,,,,,,,,,,,,blue,circle
0.0,8.0,0.0,1.0,1.0,1.0,343.4437350006192,4.0,1.0,part_1,,,,,,,,,,,,,cyan,hexagon
195.0,3.0,3.0,0.0,1.0,1.0,414.4872119941283,4.0,1.0,part_1,,,,,,,,,,,,,white,diamond
100.0,2.0,2.0,0.0,3.0,3.0,410.4142000069259,4.0,1.0,part_1,,,,,,,,,,,,,green,flipped triangle
108.0,2.0,2.0,0.0,3.0,3.0,367.3954309997498,4.0,1.0,part_1,,,,,,,,,,,,,green,flipped triangle
79.0,6.0,2.0,1.0,2.0,2.0,527.531967003597,4.0,1.0,part_1,,,,,,,,,,,,,blue,circle
39.0,5.0,1.0,1.0,2.0,2.0,590.406659997825,4.0,1.0,part_1,,,,,,,,,,,,,gray,square
0.0,8.0,0.0,1.0,1.0,1.0,341.3413399975979,4.0,1.0,part_1,,,,,,,,,,,,,cyan,hexagon
28.0,5.0,1.0,1.0,4.0,4.0,488.2652119995327,4.0,1.0,part_1,,,,,,,,,,,,,gray,square
56.0,5.0,1.0,1.0,2.0,2.0,357.766212997376,4.0,1.0,part_1,,,,,,,,,,,,,gray,square
124.0,6.0,2.0,1.0,1.0,1.0,339.4247809992521,4.0,1.0,part_1,,,,,,,,,,,,,blue,circle
95.0,2.0,2.0,0.0,1.0,1.0,327.7337709951098,4.0,1.0,part_1,,,,,,,,,,,,,green,flipped triangle
124.0,2.0,2.0,0.0,3.0,3.0,452.6149970042752,4.0,1.0,part_1,,,,,,,,,,,,,green,flipped triangle
25.0,1.0,1.0,0.0,1.0,1.0,369.258673999866,4.0,1.0,part_1,,,,,,,,,,,,,magenta,cross
116.0,2.0,2.0,0.0,2.0,2.0,359.6195439968142,4.0,1.0,part_1,,,,,,,,,,,,,green,flipped triangle
176.0,7.0,3.0,1.0,4.0,4.0,409.6500460000243,4.0,1.0,part_1,,,,,,,,,,,,,orange,I
88.0,2.0,2.0,0.0,4.0,4.0,407.7474269943195,4.0,1.0,part_1,,,,,,,,,,,,,green,flipped triangle
0.0,5.0,0.0,1.0,4.0,4.0,545.2634120010771,4.0,1.0,part_1,,,,,,,,,,,,,gray,square
204.0,3.0,3.0,0.0,4.0,4.0,358.0583940056385,4.0,1.0,part_1,,,,,,,,,,,,,white,diamond
116.0,6.0,2.0,1.0,4.0,4.0,284.9777129958966,4.0,1.0,part_1,,,,,,,,,,,,,blue,circle
395.0,4.0,4.0,0.0,1.0,1.0,298.6379549984121,4.0,1.0,part_1,,,,,,,,,,,,,yellow,triangle
217.0,3.0,3.0,0.0,3.0,3.0,364.4087639986537,4.0,1.0,part_1,,,,,,,,,,,,,white,diamond
393.0,8.0,4.0,1.0,1.0,1.0,371.3251399967703,4.0,1.0,part_1,,,,,,,,,,,,,cyan,hexagon
44.0,5.0,1.0,1.0,2.0,2.0,314.5951879996573,4.0,1.0,part_1,,,,,,,,,,,,,gray,square
0.0,2.0,0.0,0.0,4.0,4.0,407.1527280029841,4.0,1.0,part_1,,,,,,,,,,,,,green,flipped triangle
411.0,8.0,4.0,1.0,2.0,2.0,337.6832400026615,4.0,1.0,part_1,,,,,,,,,,,,,cyan,hexagon
206.0,3.0,3.0,0.0,3.0,3.0,363.9891690036165,4.0,1.0,part_1,,,,,,,,,,,,,white,diamond
116.0,2.0,2.0,0.0,3.0,3.0,311.1198529950343,4.0,1.0,part_1,,,,,,,,,,,,,green,flipped triangle
413.0,8.0,4.0,1.0,4.0,4.0,349.8659430042607,4.0,1.0,part_1,,,,,,,,,,,,,cyan,hexagon
0.0,3.0,0.0,0.0,2.0,2.0,315.937021994614,4.0,1.0,part_1,,,,,,,,,,,,,white,diamond
0.0,5.0,0.0,1.0,1.0,1.0,329.3395760047133,4.0,1.0,part_1,,,,,,,,,,,,,gray,square
40.0,1.0,1.0,0.0,4.0,4.0,405.743674004043,4.0,1.0,part_1,,,,,,,,,,,,,magenta,cross
25.0,5.0,1.0,1.0,1.0,1.0,418.4435520000988,4.0,1.0,part_1,,,,,,,,,,,,,gray,square
398.0,4.0,4.0,0.0,2.0,2.0,505.56611699721543,4.0,1.0,part_1,,,,,,,,,,,,,yellow,triangle
189.0,3.0,3.0,0.0,3.0,3.0,414.3591679967358,4.0,1.0,part_1,,,,,,,,,,,,,white,diamond
425.0,4.0,4.0,0.0,3.0,3.0,454.8637090047123,4.0,1.0,part_1,,,,,,,,,,,,,yellow,triangle
100.0,6.0,2.0,1.0,1.0,1.0,293.0322789979982,4.0,1.0,part_1,,,,,,,,,,,,,blue,circle
394.0,8.0,4.0,1.0,2.0,2.0,359.2310410022037,4.0,1.0,part_1,,,,,,,,,,,,,cyan,hexagon
393.0,4.0,4.0,0.0,2.0,2.0,345.3132569993613,4.0,1.0,part_1,,,,,,,,,,,,,yellow,triangle
220.0,7.0,3.0,1.0,2.0,2.0,353.0423189949943,4.0,1.0,part_1,,,,,,,,,,,,,orange,I
185.0,3.0,3.0,0.0,1.0,1.0,317.6039959944319,4.0,1.0,part_1,,,,,,,,,,,,,white,diamond
212.0,7.0,3.0,1.0,4.0,4.0,343.9142379938857,4.0,1.0,part_1,,,,,,,,,,,,,orange,I
30.0,1.0,1.0,0.0,3.0,3.0,384.3842589994892,4.0,1.0,part_1,,,,,,,,,,,,,magenta,cross
106.0,6.0,2.0,1.0,2.0,2.0,321.3053610015777,4.0,1.0,part_1,,,,,,,,,,,,,blue,circle
209.0,3.0,3.0,0.0,4.0,4.0,394.234157000028,4.0,1.0,part_1,,,,,,,,,,,,,white,diamond
60.0,5.0,1.0,1.0,4.0,4.0,404.8719419952249,4.0,1.0,part_1,,,,,,,,,,,,,gray,square
400.0,8.0,4.0,1.0,1.0,1.0,422.442292998312,4.0,1.0,part_1,,,,,,,,,,,,,cyan,hexagon
0.0,2.0,0.0,0.0,3.0,3.0,490.0736490017152,4.0,1.0,part_1,,,,,,,,,,,,,green,flipped triangle
41.0,5.0,1.0,1.0,1.0,1.0,372.8791679968708,4.0,1.0,part_1,,,,,,,,,,,,,gray,square
74.0,5.0,1.0,1.0,4.0,4.0,385.0958580005681,4.0,1.0,part_1,,,,,,,,,,,,,gray,square
121.0,6.0,2.0,1.0,2.0,2.0,384.2226679989835,4.0,1.0,part_1,,,,,,,,,,,,,blue,circle
0.0,4.0,0.0,0.0,1.0,1.0,340.9151559972088,4.0,1.0,part_1,,,,,,,,,,,,,yellow,triangle
83.0,2.0,2.0,0.0,4.0,4.0,375.9875950054265,4.0,1.0,part_1,,,,,,,,,,,,,green,flipped triangle
201.0,3.0,3.0,0.0,2.0,2.0,440.7039209982031,4.0,1.0,part_1,,,,,,,,,,,,,white,diamond
406.0,4.0,4.0,0.0,4.0,4.0,495.602424001845,4.0,1.0,part_1,,,,,,,,,,,,,yellow,triangle
396.0,4.0,4.0,0.0,1.0,1.0,467.5598899993929,4.0,1.0,part_1,,,,,,,,,,,,,yellow,triangle
42.0,5.0,1.0,1.0,2.0,2.0,445.6827280009747,4.0,1.0,part_1,,,,,,,,,,,,,gray,square
207.0,7.0,3.0,1.0,2.0,2.0,469.78055100044,4.0,1.0,part_1,,,,,,,,,,,,,orange,I
46.0,5.0,1.0,1.0,4.0,4.0,432.7442239955417,4.0,1.0,part_1,,,,,,,,,,,,,gray,square
0.0,5.0,0.0,1.0,1.0,1.0,556.2750739991316,4.0,1.0,part_1,,,,,,,,,,,,,gray,square
88.0,6.0,2.0,1.0,4.0,4.0,390.383395999379,4.0,1.0,part_1,,,,,,,,,,,,,blue,circle
201.0,7.0,3.0,1.0,4.0,4.0,432.9977179950219,4.0,1.0,part_1,,,,,,,,,,,,,orange,I
219.0,7.0,3.0,1.0,2.0,2.0,433.6952839948935,4.0,1.0,part_1,,,,,,,,,,,,,orange,I
93.0,6.0,2.0,1.0,1.0,1.0,385.6346230022609,4.0,1.0,part_1,,,,,,,,,,,,,blue,circle
59.0,5.0,1.0,1.0,2.0,2.0,409.5667000001413,4.0,1.0,part_1,,,,,,,,,,,,,gray,square
207.0,7.0,3.0,1.0,1.0,1.0,504.4855300002382,4.0,1.0,part_1,,,,,,,,,,,,,orange,I
81.0,6.0,2.0,1.0,2.0,2.0,359.0203610001481,4.0,1.0,part_1,,,,,,,,,,,,,blue,circle
0.0,4.0,0.0,0.0,3.0,3.0,388.8945239959867,4.0,1.0,part_1,,,,,,,,,,,,,yellow,triangle
54.0,5.0,1.0,1.0,4.0,4.0,401.7250029937713,4.0,1.0,part_1,,,,,,,,,,,,,gray,square
45.0,1.0,1.0,0.0,1.0,1.0,375.8041640030569,4.0,1.0,part_1,,,,,,,,,,,,,magenta,cross
0.0,1.0,0.0,0.0,3.0,3.0,431.5196610041312,4.0,1.0,part_1,,,,,,,,,,,,,magenta,cross
0.0,7.0,0.0,1.0,3.0,3.0,467.3678999970434,4.0,1.0,part_1,,,,,,,,,,,,,orange,I
51.0,5.0,1.0,1.0,3.0,3.0,397.0664549997309,4.0,1.0,part_1,,,,,,,,,,,,,gray,square
0.0,5.0,0.0,1.0,1.0,1.0,405.7524790041498,4.0,1.0,part_1,,,,,,,,,,,,,gray,square
0.0,8.0,0.0,1.0,2.0,2.0,441.434628002753,4.0,1.0,part_1,,,,,,,,,,,,,cyan,hexagon
221.0,7.0,3.0,1.0,4.0,4.0,338.099341999623,4.0,1.0,part_1,,,,,,,,,,,,,orange,I
399.0,8.0,4.0,1.0,4.0,4.0,362.2084610033198,4.0,1.0,part_1,,,,,,,,,,,,,cyan,hexagon
212.0,7.0,3.0,1.0,1.0,1.0,515.816890001588,4.0,1.0,part_1,,,,,,,,,,,,,orange,I
0.0,7.0,0.0,1.0,1.0,1.0,418.2683079998242,4.0,1.0,part_1,,,,,,,,,,,,,orange,I
88.0,6.0,2.0,1.0,2.0,2.0,521.0905509957229,4.0,1.0,part_1,,,,,,,,,,,,,blue,circle
0.0,1.0,0.0,0.0,1.0,1.0,525.0315869998303,4.0,1.0,part_1,,,,,,,,,,,,,magenta,cross
0.0,1.0,1.0,0.0,5.0,5.0,374.93827099388,1.0,0.0,part_2,go,250.0,250.0,1.0,,,,,,,,,magenta,cross
0.0,7.0,3.0,1.0,6.0,6.0,402.4204230008763,1.0,0.0,part_2,stop,250.0,250.0,3.0,,,,,,,,,orange,I
0.0,6.0,2.0,1.0,5.0,5.0,290.9188010016805,1.0,0.0,part_2,stop,250.0,200.0,3.0,,,,,,,,,blue,circle
0.0,8.0,4.0,1.0,5.0,5.0,279.9699799943482,1.0,0.0,part_2,stop,200.0,200.0,3.0,,,,,,,,,cyan,hexagon
0.0,4.0,4.0,0.0,5.0,5.0,257.3493300005793,1.0,0.0,part_2,go,150.0,200.0,1.0,,,,,,,,,yellow,triangle
0.0,2.0,2.0,0.0,6.0,6.0,396.6947209992213,1.0,0.0,part_2,go,150.0,200.0,1.0,,,,,,,,,green,flipped triangle
0.0,2.0,2.0,0.0,6.0,6.0,401.2798439944163,1.0,0.0,part_2,go,150.0,200.0,1.0,,,,,,,,,green,flipped triangle
0.0,5.0,1.0,1.0,6.0,6.0,329.1289929984486,1.0,0.0,part_2,go,150.0,200.0,1.0,,,,,,,,,gray,square
0.0,5.0,1.0,1.0,5.0,5.0,295.899240001745,1.0,0.0,part_2,go,150.0,200.0,1.0,,,,,,,,,gray,square
0.0,7.0,3.0,1.0,5.0,5.0,296.5228960019885,1.0,0.0,part_2,stop,150.0,200.0,3.0,,,,,,,,,orange,I
0.0,3.0,3.0,0.0,5.0,5.0,587.7070920032565,1.0,0.0,part_2,go,100.0,200.0,1.0,,,,,,,,,white,diamond
0.0,7.0,3.0,1.0,5.0,5.0,374.2473219972453,1.0,0.0,part_2,go,100.0,200.0,1.0,,,,,,,,,orange,I
0.0,1.0,1.0,0.0,6.0,6.0,406.3234860004741,1.0,0.0,part_2,go,100.0,200.0,1.0,,,,,,,,,magenta,cross
0.0,1.0,1.0,0.0,5.0,5.0,529.2838160021347,1.0,0.0,part_2,go,100.0,200.0,1.0,,,,,,,,,magenta,cross
0.0,4.0,4.0,0.0,6.0,6.0,372.517802999937,1.0,0.0,part_2,go,100.0,200.0,1.0,,,,,,,,,yellow,triangle
0.0,7.0,3.0,1.0,6.0,0.0,0.0,1.0,0.0,part_2,stop,100.0,200.0,4.0,,,,,,,,,orange,I
0.0,7.0,3.0,1.0,5.0,5.0,305.3351429989561,1.0,0.0,part_2,stop,100.0,250.0,3.0,,,,,,,,,orange,I
0.0,1.0,1.0,0.0,5.0,5.0,566.8975270018564,1.0,0.0,part_2,go,50.0,250.0,1.0,,,,,,,,,magenta,cross
0.0,3.0,3.0,0.0,6.0,6.0,511.8718700032332,1.0,0.0,part_2,go,50.0,250.0,1.0,,,,,,,,,white,diamond
0.0,8.0,4.0,1.0,6.0,6.0,364.5235150033841,1.0,0.0,part_2,go,50.0,250.0,1.0,,,,,,,,,cyan,hexagon
0.0,5.0,1.0,1.0,5.0,5.0,301.1465960007626,1.0,0.0,part_2,stop,50.0,250.0,3.0,,,,,,,,,gray,square
0.0,2.0,2.0,0.0,6.0,6.0,427.5943029933842,1.0,0.0,part_2,go,0.0,250.0,1.0,,,,,,,,,green,flipped triangle
0.0,2.0,2.0,0.0,6.0,6.0,590.2846069948282,1.0,0.0,part_2,go,0.0,250.0,1.0,,,,,,,,,green,flipped triangle
0.0,4.0,4.0,0.0,5.0,5.0,439.6669049965567,1.0,0.0,part_2,go,0.0,250.0,1.0,,,,,,,,,yellow,triangle
0.0,4.0,4.0,0.0,5.0,5.0,501.1100060000899,1.0,0.0,part_2,go,0.0,250.0,1.0,,,,,,,,,yellow,triangle
0.0,3.0,3.0,0.0,6.0,6.0,397.3996990025625,1.0,0.0,part_2,go,0.0,250.0,1.0,,,,,,,,,white,diamond
0.0,1.0,1.0,0.0,6.0,6.0,386.4597219944699,1.0,0.0,part_2,go,0.0,250.0,1.0,,,,,,,,,magenta,cross
0.0,7.0,3.0,1.0,6.0,0.0,0.0,1.0,0.0,part_2,stop,0.0,250.0,4.0,,,,,,,,,orange,I
0.0,7.0,3.0,1.0,6.0,0.0,0.0,1.0,0.0,part_2,stop,0.0,300.0,4.0,,,,,,,,,orange,I
0.0,5.0,1.0,1.0,5.0,0.0,0.0,1.0,0.0,part_2,stop,0.0,350.0,4.0,,,,,,,,,gray,square
0.0,4.0,4.0,0.0,5.0,5.0,471.6139230004046,1.0,0.0,part_2,go,50.0,350.0,1.0,,,,,,,,,yellow,triangle
0.0,1.0,1.0,0.0,6.0,6.0,451.2182270045741,1.0,0.0,part_2,go,50.0,350.0,1.0,,,,,,,,,magenta,cross
0.0,6.0,2.0,1.0,5.0,0.0,0.0,1.0,0.0,part_2,stop,50.0,350.0,4.0,,,,,,,,,blue,circle
0.0,4.0,4.0,0.0,6.0,6.0,336.8102310050744,1.0,0.0,part_2,go,100.0,350.0,1.0,,,,,,,,,yellow,triangle
0.0,4.0,4.0,0.0,6.0,6.0,392.4694220040692,1.0,0.0,part_2,go,100.0,350.0,1.0,,,,,,,,,yellow,triangle
0.0,4.0,4.0,0.0,6.0,6.0,313.1926259957254,1.0,0.0,part_2,go,100.0,350.0,1.0,,,,,,,,,yellow,triangle
0.0,3.0,3.0,0.0,5.0,5.0,482.7462789980927,2.0,0.0,part_2,go,100.0,350.0,1.0,,,,,,,,,white,diamond
0.0,8.0,4.0,1.0,5.0,5.0,379.2984410029021,2.0,0.0,part_2,stop,100.0,350.0,3.0,,,,,,,,,cyan,hexagon
0.0,1.0,1.0,0.0,6.0,6.0,394.9539770037518,2.0,0.0,part_2,go,50.0,350.0,1.0,,,,,,,,,magenta,cross
0.0,1.0,1.0,0.0,6.0,6.0,353.0906439991668,2.0,0.0,part_2,go,50.0,350.0,1.0,,,,,,,,,magenta,cross
0.0,8.0,4.0,1.0,5.0,0.0,0.0,2.0,0.0,part_2,stop,50.0,350.0,4.0,,,,,,,,,cyan,hexagon
0.0,8.0,4.0,1.0,5.0,0.0,0.0,2.0,0.0,part_2,stop,100.0,350.0,4.0,,,,,,,,,cyan,hexagon
0.0,6.0,2.0,1.0,6.0,6.0,496.8344970038743,2.0,0.0,part_2,stop,150.0,350.0,3.0,,,,,,,,,blue,circle
0.0,1.0,1.0,0.0,5.0,5.0,712.7898909966461,2.0,0.0,part_2,go,150.0,300.0,1.0,,,,,,,,,magenta,cross
0.0,4.0,4.0,0.0,5.0,5.0,388.3175490045687,2.0,0.0,part_2,go,150.0,300.0,1.0,,,,,,,,,yellow,triangle
0.0,2.0,2.0,0.0,5.0,5.0,416.9366930000251,2.0,0.0,part_2,go,150.0,300.0,1.0,,,,,,,,,green,flipped triangle
0.0,6.0,2.0,1.0,6.0,6.0,282.1497740005725,2.0,0.0,part_2,go,150.0,300.0,1.0,,,,,,,,,blue,circle
0.0,4.0,4.0,0.0,6.0,6.0,307.8528759942855,2.0,0.0,part_2,go,150.0,300.0,1.0,,,,,,,,,yellow,triangle
0.0,7.0,3.0,1.0,5.0,0.0,0.0,2.0,0.0,part_2,stop,150.0,300.0,4.0,,,,,,,,,orange,I
0.0,5.0,1.0,1.0,5.0,0.0,0.0,2.0,0.0,part_2,stop,200.0,300.0,4.0,,,,,,,,,gray,square
0.0,2.0,2.0,0.0,5.0,5.0,560.5141239939258,2.0,0.0,part_2,go,250.0,300.0,1.0,,,,,,,,,green,flipped triangle
0.0,5.0,1.0,1.0,6.0,6.0,376.5287179994629,2.0,0.0,part_2,go,250.0,300.0,1.0,,,,,,,,,gray,square
0.0,2.0,2.0,0.0,5.0,5.0,396.9663640018552,2.0,0.0,part_2,go,250.0,300.0,1.0,,,,,,,,,green,flipped triangle
0.0,1.0,1.0,0.0,6.0,6.0,522.4413329997333,2.0,0.0,part_2,go,250.0,300.0,1.0,,,,,,,,,magenta,cross
0.0,6.0,2.0,1.0,5.0,5.0,304.3277869946905,2.0,0.0,part_2,stop,250.0,300.0,3.0,,,,,,,,,blue,circle
0.0,8.0,4.0,1.0,6.0,0.0,0.0,2.0,0.0,part_2,stop,200.0,300.0,4.0,,,,,,,,,cyan,hexagon
0.0,4.0,4.0,0.0,6.0,6.0,485.7406859955517,2.0,0.0,part_2,go,200.0,350.0,1.0,,,,,,,,,yellow,triangle
0.0,3.0,3.0,0.0,5.0,5.0,290.3870680020191,2.0,0.0,part_2,go,200.0,350.0,1.0,,,,,,,,,white,diamond
0.0,6.0,2.0,1.0,6.0,6.0,357.3573619942181,2.0,0.0,part_2,go,200.0,350.0,1.0,,,,,,,,,blue,circle
0.0,5.0,1.0,1.0,5.0,5.0,247.2343940025894,2.0,0.0,part_2,go,200.0,350.0,1.0,,,,,,,,,gray,square
0.0,6.0,2.0,1.0,6.0,6.0,266.5341440006159,2.0,0.0,part_2,stop,200.0,350.0,3.0,,,,,,,,,blue,circle
0.0,6.0,2.0,1.0,6.0,0.0,0.0,2.0,0.0,part_2,stop,200.0,300.0,4.0,,,,,,,,,blue,circle
0.0,7.0,3.0,1.0,6.0,6.0,518.9675090005039,2.0,0.0,part_2,stop,200.0,350.0,3.0,,,,,,,,,orange,I
0.0,1.0,1.0,0.0,5.0,5.0,681.3213940040441,2.0,0.0,part_2,go,200.0,300.0,1.0,,,,,,,,,magenta,cross
0.0,3.0,3.0,0.0,6.0,6.0,495.4170560013153,2.0,0.0,part_2,go,200.0,300.0,1.0,,,,,,,,,white,diamond
0.0,8.0,4.0,1.0,5.0,5.0,300.0133460009238,2.0,0.0,part_2,stop,200.0,300.0,3.0,,,,,,,,,cyan,hexagon
0.0,8.0,4.0,1.0,6.0,0.0,0.0,2.0,0.0,part_2,stop,150.0,300.0,4.0,,,,,,,,,cyan,hexagon
0.0,8.0,4.0,1.0,6.0,6.0,451.4098159997957,2.0,0.0,part_2,stop,150.0,350.0,3.0,,,,,,,,,cyan,hexagon
0.0,3.0,3.0,0.0,5.0,5.0,456.4386100028059,2.0,0.0,part_2,go,150.0,300.0,1.0,,,,,,,,,white,diamond
0.0,3.0,3.0,0.0,6.0,6.0,311.9332159985788,2.0,0.0,part_2,go,150.0,300.0,1.0,,,,,,,,,white,diamond
0.0,1.0,1.0,0.0,6.0,6.0,402.8663769931881,2.0,0.0,part_2,go,150.0,300.0,1.0,,,,,,,,,magenta,cross
0.0,7.0,3.0,1.0,5.0,5.0,383.1825110028148,2.0,0.0,part_2,stop,150.0,300.0,3.0,,,,,,,,,orange,I
0.0,3.0,3.0,0.0,6.0,6.0,629.3946649966529,3.0,0.0,part_2,go,100.0,300.0,1.0,,,,,,,,,white,diamond
0.0,5.0,1.0,1.0,6.0,6.0,353.1862060044659,3.0,0.0,part_2,stop,100.0,300.0,3.0,,,,,,,,,gray,square
0.0,6.0,2.0,1.0,5.0,5.0,723.7585380062228,3.0,0.0,part_2,go,100.0,250.0,1.0,,,,,,,,,blue,circle
0.0,3.0,3.0,0.0,6.0,6.0,442.4575669982005,3.0,0.0,part_2,go,100.0,250.0,1.0,,,,,,,,,white,diamond
0.0,6.0,2.0,1.0,6.0,6.0,305.1422279968392,3.0,0.0,part_2,stop,100.0,250.0,3.0,,,,,,,,,blue,circle
0.0,8.0,4.0,1.0,6.0,6.0,392.9983999987598,3.0,0.0,part_2,stop,100.0,200.0,3.0,,,,,,,,,cyan,hexagon
0.0,1.0,1.0,0.0,6.0,6.0,582.3981400026241,3.0,0.0,part_2,go,100.0,150.0,1.0,,,,,,,,,magenta,cross
0.0,2.0,2.0,0.0,5.0,5.0,298.3093250004458,3.0,0.0,part_2,go,100.0,150.0,1.0,,,,,,,,,green,flipped triangle
0.0,3.0,3.0,0.0,5.0,5.0,451.035886995669,3.0,0.0,part_2,go,100.0,150.0,1.0,,,,,,,,,white,diamond
0.0,8.0,4.0,1.0,5.0,0.0,0.0,3.0,0.0,part_2,stop,100.0,150.0,4.0,,,,,,,,,cyan,hexagon
0.0,1.0,1.0,0.0,6.0,6.0,450.6659850012511,3.0,0.0,part_2,go,150.0,150.0,1.0,,,,,,,,,magenta,cross
0.0,3.0,3.0,0.0,5.0,5.0,342.6941599973361,3.0,0.0,part_2,go,150.0,150.0,1.0,,,,,,,,,white,diamond
0.0,1.0,1.0,0.0,6.0,6.0,356.0459479995188,3.0,0.0,part_2,go,150.0,150.0,1.0,,,,,,,,,magenta,cross
0.0,6.0,2.0,1.0,6.0,0.0,0.0,3.0,0.0,part_2,stop,150.0,150.0,4.0,,,,,,,,,blue,circle
0.0,2.0,2.0,0.0,5.0,5.0,365.2026819981984,3.0,0.0,part_2,go,150.0,200.0,1.0,,,,,,,,,green,flipped triangle
0.0,8.0,4.0,1.0,6.0,6.0,322.3884960025316,3.0,0.0,part_2,go,150.0,200.0,1.0,,,,,,,,,cyan,hexagon
0.0,6.0,2.0,1.0,5.0,5.0,281.1096330042346,3.0,0.0,part_2,stop,150.0,200.0,3.0,,,,,,,,,blue,circle
0.0,3.0,3.0,0.0,6.0,6.0,575.7512479976867,3.0,0.0,part_2,go,100.0,200.0,1.0,,,,,,,,,white,diamond
0.0,5.0,1.0,1.0,5.0,0.0,0.0,3.0,0.0,part_2,stop,100.0,200.0,4.0,,,,,,,,,gray,square
0.0,4.0,4.0,0.0,6.0,6.0,299.4338249991415,3.0,0.0,part_2,go,150.0,200.0,1.0,,,,,,,,,yellow,triangle
0.0,5.0,1.0,1.0,6.0,6.0,424.5655510021606,3.0,0.0,part_2,stop,150.0,200.0,3.0,,,,,,,,,gray,square
0.0,8.0,4.0,1.0,5.0,0.0,0.0,3.0,0.0,part_2,stop,150.0,150.0,4.0,,,,,,,,,cyan,hexagon
0.0,8.0,4.0,1.0,6.0,6.0,576.5213199993013,3.0,0.0,part_2,go,200.0,150.0,1.0,,,,,,,,,cyan,hexagon
0.0,5.0,1.0,1.0,6.0,6.0,456.7868110025301,3.0,0.0,part_2,go,200.0,150.0,1.0,,,,,,,,,gray,square
0.0,7.0,3.0,1.0,5.0,5.0,415.7809440002893,3.0,0.0,part_2,go,200.0,150.0,1.0,,,,,,,,,orange,I
0.0,3.0,3.0,0.0,5.0,5.0,478.1184230014332,3.0,0.0,part_2,go,200.0,150.0,1.0,,,,,,,,,white,diamond
0.0,4.0,4.0,0.0,6.0,6.0,338.9290880004409,3.0,0.0,part_2,go,200.0,150.0,1.0,,,,,,,,,yellow,triangle
0.0,1.0,1.0,0.0,5.0,5.0,349.4394879962783,3.0,0.0,part_2,go,200.0,150.0,1.0,,,,,,,,,magenta,cross
0.0,4.0,4.0,0.0,6.0,6.0,376.8125169954146,3.0,0.0,part_2,go,200.0,150.0,1.0,,,,,,,,,yellow,triangle
0.0,1.0,1.0,0.0,6.0,6.0,357.467172005272,3.0,0.0,part_2,go,200.0,150.0,1.0,,,,,,,,,magenta,cross
0.0,1.0,1.0,0.0,5.0,5.0,386.6753469992545,3.0,0.0,part_2,go,200.0,150.0,1.0,,,,,,,,,magenta,cross
0.0,5.0,1.0,1.0,6.0,0.0,0.0,3.0,0.0,part_2,stop,200.0,150.0,4.0,,,,,,,,,gray,square
0.0,1.0,1.0,0.0,5.0,5.0,354.8171959992032,3.0,0.0,part_2,go,200.0,200.0,1.0,,,,,,,,,magenta,cross
0.0,7.0,3.0,1.0,5.0,5.0,437.4751499999547,3.0,0.0,part_2,stop,200.0,200.0,3.0,,,,,,,,,orange,I
0.0,8.0,4.0,1.0,5.0,0.0,0.0,3.0,0.0,part_2,stop,150.0,200.0,4.0,,,,,,,,,cyan,hexagon
0.0,5.0,1.0,1.0,6.0,6.0,624.3707739995443,3.0,0.0,part_2,go,200.0,200.0,1.0,,,,,,,,,gray,square
0.0,6.0,2.0,1.0,5.0,5.0,535.4046800057404,4.0,0.0,part_2,stop,200.0,200.0,3.0,,,,,,,,,blue,circle
0.0,8.0,4.0,1.0,6.0,6.0,653.3815319999121,4.0,0.0,part_2,go,150.0,200.0,1.0,,,,,,,,,cyan,hexagon
0.0,8.0,4.0,1.0,6.0,6.0,424.6890249996795,4.0,0.0,part_2,go,150.0,200.0,1.0,,,,,,,,,cyan,hexagon
0.0,7.0,3.0,1.0,5.0,5.0,566.7448730018805,4.0,0.0,part_2,go,150.0,200.0,1.0,,,,,,,,,orange,I
0.0,5.0,1.0,1.0,5.0,5.0,374.1993829971761,4.0,0.0,part_2,stop,150.0,200.0,3.0,,,,,,,,,gray,square
0.0,2.0,2.0,0.0,6.0,6.0,451.5115499962121,4.0,0.0,part_2,go,100.0,200.0,1.0,,,,,,,,,green,flipped triangle
0.0,6.0,2.0,1.0,6.0,0.0,0.0,4.0,0.0,part_2,stop,100.0,200.0,4.0,,,,,,,,,blue,circle
0.0,2.0,2.0,0.0,6.0,6.0,433.4416959973168,4.0,0.0,part_2,go,100.0,250.0,1.0,,,,,,,,,green,flipped triangle
0.0,5.0,1.0,1.0,5.0,0.0,0.0,4.0,0.0,part_2,stop,100.0,250.0,4.0,,,,,,,,,gray,square
0.0,5.0,1.0,1.0,6.0,6.0,385.8147299979464,4.0,0.0,part_2,stop,150.0,250.0,3.0,,,,,,,,,gray,square
0.0,4.0,4.0,0.0,5.0,5.0,587.9855769962887,4.0,0.0,part_2,go,150.0,200.0,1.0,,,,,,,,,yellow,triangle
0.0,2.0,2.0,0.0,6.0,6.0,342.2202139990986,4.0,0.0,part_2,go,150.0,200.0,1.0,,,,,,,,,green,flipped triangle
0.0,2.0,2.0,0.0,6.0,6.0,443.1073660016409,4.0,0.0,part_2,go,150.0,200.0,1.0,,,,,,,,,green,flipped triangle
0.0,7.0,3.0,1.0,6.0,6.0,386.8908689983072,4.0,0.0,part_2,stop,150.0,200.0,3.0,,,,,,,,,orange,I
0.0,6.0,2.0,1.0,6.0,0.0,0.0,4.0,0.0,part_2,stop,150.0,150.0,4.0,,,,,,,,,blue,circle
0.0,3.0,3.0,0.0,5.0,5.0,524.2258530051913,4.0,0.0,part_2,go,150.0,200.0,1.0,,,,,,,,,white,diamond
0.0,8.0,4.0,1.0,5.0,5.0,457.3622949974378,4.0,0.0,part_2,go,150.0,200.0,1.0,,,,,,,,,cyan,hexagon
0.0,8.0,4.0,1.0,5.0,0.0,0.0,4.0,0.0,part_2,stop,150.0,200.0,4.0,,,,,,,,,cyan,hexagon
0.0,7.0,3.0,1.0,6.0,6.0,398.5734460002277,4.0,0.0,part_2,stop,200.0,200.0,3.0,,,,,,,,,orange,I
0.0,2.0,2.0,0.0,5.0,5.0,486.7675940040499,4.0,0.0,part_2,go,200.0,150.0,1.0,,,,,,,,,green,flipped triangle
0.0,4.0,4.0,0.0,5.0,5.0,460.0166230011382,4.0,0.0,part_2,go,200.0,150.0,1.0,,,,,,,,,yellow,triangle
0.0,5.0,1.0,1.0,6.0,6.0,329.4528030019137,4.0,0.0,part_2,stop,200.0,150.0,3.0,,,,,,,,,gray,square
0.0,3.0,3.0,0.0,5.0,5.0,534.0267869978561,4.0,0.0,part_2,go,200.0,100.0,1.0,,,,,,,,,white,diamond
0.0,4.0,4.0,0.0,6.0,6.0,330.7931550007197,4.0,0.0,part_2,go,200.0,100.0,1.0,,,,,,,,,yellow,triangle
0.0,7.0,3.0,1.0,5.0,5.0,365.6621709960745,4.0,0.0,part_2,stop,200.0,100.0,3.0,,,,,,,,,orange,I
0.0,8.0,4.0,1.0,6.0,0.0,0.0,4.0,0.0,part_2,stop,150.0,100.0,4.0,,,,,,,,,cyan,hexagon
0.0,6.0,2.0,1.0,6.0,0.0,0.0,4.0,0.0,part_2,stop,150.0,150.0,4.0,,,,,,,,,blue,circle
0.0,8.0,4.0,1.0,6.0,6.0,621.7287440013024,4.0,0.0,part_2,go,150.0,200.0,1.0,,,,,,,,,cyan,hexagon
0.0,2.0,2.0,0.0,5.0,5.0,338.1347870017634,4.0,0.0,part_2,go,150.0,200.0,1.0,,,,,,,,,green,flipped triangle
0.0,3.0,3.0,0.0,6.0,6.0,519.2272310014232,4.0,0.0,part_2,go,150.0,200.0,1.0,,,,,,,,,white,diamond
0.0,1.0,1.0,0.0,6.0,6.0,416.1176249981508,4.0,0.0,part_2,go,150.0,200.0,1.0,,,,,,,,,magenta,cross
0.0,4.0,4.0,0.0,6.0,6.0,512.3579569990397,4.0,0.0,part_2,go,150.0,200.0,1.0,,,,,,,,,yellow,triangle
0.0,6.0,2.0,1.0,5.0,5.0,473.8916829955997,4.0,0.0,part_2,stop,150.0,200.0,3.0,,,,,,,,,blue,circle
0.0,5.0,1.0,1.0,6.0,0.0,0.0,4.0,0.0,part_2,stop,100.0,200.0,4.0,,,,,,,,,gray,square
0.0,1.0,1.0,0.0,5.0,5.0,848.8305369974114,4.0,0.0,part_2,go,100.0,250.0,1.0,,,,,,,,,magenta,cross
0.0,2.0,2.0,0.0,6.0,6.0,1409.7973210009511,4.0,0.0,part_2,go,100.0,250.0,1.0,,,,,,,,,green,flipped triangle
0.0,6.0,2.0,1.0,6.0,6.0,546.6249319943017,5.0,0.0,part_2,stop,100.0,250.0,3.0,,,,,,,,,blue,circle
0.0,2.0,2.0,0.0,5.0,5.0,522.5032849994022,5.0,0.0,part_2,go,100.0,200.0,1.0,,,,,,,,,green,flipped triangle
0.0,5.0,1.0,1.0,6.0,6.0,380.7269729950349,5.0,0.0,part_2,stop,100.0,200.0,3.0,,,,,,,,,gray,square
0.0,8.0,4.0,1.0,5.0,0.0,0.0,5.0,0.0,part_2,stop,100.0,150.0,4.0,,,,,,,,,cyan,hexagon
0.0,5.0,1.0,1.0,5.0,0.0,0.0,5.0,0.0,part_2,stop,150.0,150.0,4.0,,,,,,,,,gray,square
0.0,4.0,4.0,0.0,5.0,5.0,595.1444759994047,5.0,0.0,part_2,go,200.0,150.0,1.0,,,,,,,,,yellow,triangle
0.0,1.0,1.0,0.0,5.0,5.0,338.7062280016835,5.0,0.0,part_2,go,200.0,150.0,1.0,,,,,,,,,magenta,cross
0.0,3.0,3.0,0.0,6.0,6.0,311.7893779999576,5.0,0.0,part_2,go,200.0,150.0,1.0,,,,,,,,,white,diamond
0.0,7.0,3.0,1.0,5.0,0.0,0.0,5.0,0.0,part_2,stop,200.0,150.0,4.0,,,,,,,,,orange,I
0.0,7.0,3.0,1.0,6.0,0.0,0.0,5.0,0.0,part_2,stop,250.0,150.0,4.0,,,,,,,,,orange,I
0.0,4.0,4.0,0.0,5.0,5.0,508.23112099897116,5.0,0.0,part_2,go,250.0,200.0,1.0,,,,,,,,,yellow,triangle
0.0,6.0,2.0,1.0,5.0,5.0,374.5349119999446,5.0,0.0,part_2,stop,250.0,200.0,3.0,,,,,,,,,blue,circle
0.0,7.0,3.0,1.0,5.0,0.0,0.0,5.0,0.0,part_2,stop,200.0,200.0,4.0,,,,,,,,,orange,I
0.0,3.0,3.0,0.0,6.0,6.0,520.6040939956438,5.0,0.0,part_2,go,250.0,200.0,1.0,,,,,,,,,white,diamond
0.0,6.0,2.0,1.0,5.0,5.0,951.9456870038994,5.0,0.0,part_2,go,250.0,200.0,1.0,,,,,,,,,blue,circle
0.0,6.0,2.0,1.0,5.0,5.0,345.022440997127,5.0,0.0,part_2,stop,250.0,200.0,3.0,,,,,,,,,blue,circle
0.0,5.0,1.0,1.0,6.0,6.0,385.562506999122,5.0,0.0,part_2,stop,200.0,200.0,3.0,,,,,,,,,gray,square
0.0,7.0,3.0,1.0,5.0,0.0,0.0,5.0,0.0,part_2,stop,200.0,150.0,4.0,,,,,,,,,orange,I
0.0,4.0,4.0,0.0,6.0,6.0,447.9503640031907,5.0,0.0,part_2,go,250.0,150.0,1.0,,,,,,,,,yellow,triangle
0.0,2.0,2.0,0.0,5.0,5.0,299.9128490046132,5.0,0.0,part_2,go,250.0,150.0,1.0,,,,,,,,,green,flipped triangle
0.0,8.0,4.0,1.0,5.0,5.0,326.317047001794,5.0,0.0,part_2,stop,250.0,150.0,3.0,,,,,,,,,cyan,hexagon
0.0,1.0,1.0,0.0,6.0,6.0,330.1539289968787,5.0,0.0,part_2,go,200.0,150.0,1.0,,,,,,,,,magenta,cross
0.0,1.0,1.0,0.0,6.0,6.0,417.6160269998945,5.0,0.0,part_2,go,200.0,150.0,1.0,,,,,,,,,magenta,cross
0.0,3.0,3.0,0.0,6.0,6.0,317.3933499929262,5.0,0.0,part_2,go,200.0,150.0,1.0,,,,,,,,,white,diamond
0.0,6.0,2.0,1.0,5.0,5.0,378.9849300010246,5.0,0.0,part_2,stop,200.0,150.0,3.0,,,,,,,,,blue,circle
0.0,7.0,3.0,1.0,5.0,5.0,505.62095399800455,5.0,0.0,part_2,go,150.0,150.0,1.0,,,,,,,,,orange,I
0.0,6.0,2.0,1.0,5.0,5.0,377.6951139952871,5.0,0.0,part_2,stop,150.0,150.0,3.0,,,,,,,,,blue,circle
0.0,7.0,3.0,1.0,5.0,5.0,567.5233030051459,5.0,0.0,part_2,go,100.0,150.0,1.0,,,,,,,,,orange,I
0.0,4.0,4.0,0.0,5.0,5.0,469.4278680035495,5.0,0.0,part_2,go,100.0,150.0,1.0,,,,,,,,,yellow,triangle
0.0,7.0,3.0,1.0,6.0,0.0,0.0,5.0,0.0,part_2,stop,100.0,150.0,4.0,,,,,,,,,orange,I
0.0,8.0,4.0,1.0,6.0,6.0,490.6720020007924,5.0,0.0,part_2,go,100.0,200.0,1.0,,,,,,,,,cyan,hexagon
0.0,7.0,3.0,1.0,6.0,6.0,398.5626810026588,5.0,0.0,part_2,stop,100.0,200.0,3.0,,,,,,,,,orange,I
0.0,3.0,3.0,0.0,6.0,6.0,464.5100159978028,5.0,0.0,part_2,go,100.0,150.0,1.0,,,,,,,,,white,diamond
0.0,1.0,1.0,0.0,5.0,5.0,436.3546120002866,5.0,0.0,part_2,go,100.0,150.0,1.0,,,,,,,,,magenta,cross
0.0,3.0,3.0,0.0,5.0,5.0,455.7534839987056,5.0,0.0,part_2,go,100.0,150.0,1.0,,,,,,,,,white,diamond
0.0,4.0,4.0,0.0,6.0,6.0,443.9207710020127,5.0,0.0,part_2,go,100.0,150.0,1.0,,,,,,,,,yellow,triangle
0.0,1.0,1.0,0.0,5.0,5.0,544.8192780022509,6.0,0.0,part_2,go,100.0,150.0,1.0,,,,,,,,,magenta,cross
0.0,6.0,2.0,1.0,5.0,0.0,0.0,6.0,0.0,part_2,stop,100.0,150.0,4.0,,,,,,,,,blue,circle
0.0,4.0,4.0,0.0,6.0,6.0,418.9675450033974,6.0,0.0,part_2,go,150.0,150.0,1.0,,,,,,,,,yellow,triangle
0.0,5.0,1.0,1.0,5.0,5.0,414.3493119991035,6.0,0.0,part_2,stop,150.0,150.0,3.0,,,,,,,,,gray,square
0.0,7.0,3.0,1.0,5.0,0.0,0.0,6.0,0.0,part_2,stop,100.0,150.0,4.0,,,,,,,,,orange,I
0.0,4.0,4.0,0.0,5.0,5.0,598.2698220032034,6.0,0.0,part_2,go,150.0,150.0,1.0,,,,,,,,,yellow,triangle
0.0,7.0,3.0,1.0,6.0,6.0,297.9366549989208,6.0,0.0,part_2,stop,150.0,150.0,3.0,,,,,,,,,orange,I
0.0,3.0,3.0,0.0,6.0,6.0,345.3759230033029,6.0,0.0,part_2,go,150.0,100.0,1.0,,,,,,,,,white,diamond
0.0,5.0,1.0,1.0,6.0,0.0,0.0,6.0,0.0,part_2,stop,150.0,100.0,4.0,,,,,,,,,gray,square
0.0,6.0,2.0,1.0,5.0,5.0,375.4712169975391,6.0,0.0,part_2,stop,150.0,150.0,3.0,,,,,,,,,blue,circle
0.0,5.0,1.0,1.0,6.0,6.0,303.4175669963588,6.0,0.0,part_2,go,100.0,150.0,1.0,,,,,,,,,gray,square
0.0,6.0,2.0,1.0,6.0,6.0,363.8130010003806,6.0,0.0,part_2,stop,100.0,150.0,3.0,,,,,,,,,blue,circle
0.0,8.0,4.0,1.0,6.0,0.0,0.0,6.0,0.0,part_2,stop,100.0,100.0,4.0,,,,,,,,,cyan,hexagon
0.0,3.0,3.0,0.0,5.0,5.0,388.268020004034,6.0,0.0,part_2,go,100.0,150.0,1.0,,,,,,,,,white,diamond
0.0,4.0,4.0,0.0,5.0,5.0,441.9737520001945,6.0,0.0,part_2,go,100.0,150.0,1.0,,,,,,,,,yellow,triangle
0.0,3.0,3.0,0.0,6.0,6.0,345.4255629985709,6.0,0.0,part_2,go,100.0,150.0,1.0,,,,,,,,,white,diamond
0.0,7.0,3.0,1.0,6.0,6.0,456.3745250052307,6.0,0.0,part_2,go,100.0,150.0,1.0,,,,,,,,,orange,I
0.0,1.0,1.0,0.0,5.0,5.0,319.758086996444,6.0,0.0,part_2,go,100.0,150.0,1.0,,,,,,,,,magenta,cross
0.0,8.0,4.0,1.0,5.0,0.0,0.0,6.0,0.0,part_2,stop,100.0,150.0,4.0,,,,,,,,,cyan,hexagon
0.0,2.0,2.0,0.0,5.0,5.0,505.5769449973013,6.0,0.0,part_2,go,150.0,150.0,1.0,,,,,,,,,green,flipped triangle
0.0,5.0,1.0,1.0,5.0,5.0,314.5549449982354,6.0,0.0,part_2,stop,150.0,150.0,3.0,,,,,,,,,gray,square
0.0,5.0,1.0,1.0,6.0,6.0,317.0658899980481,6.0,0.0,part_2,stop,100.0,150.0,3.0,,,,,,,,,gray,square
0.0,2.0,2.0,0.0,6.0,6.0,445.5340899949078,6.0,0.0,part_2,go,100.0,100.0,1.0,,,,,,,,,green,flipped triangle
0.0,8.0,4.0,1.0,6.0,0.0,0.0,6.0,0.0,part_2,stop,100.0,100.0,4.0,,,,,,,,,cyan,hexagon
0.0,8.0,4.0,1.0,5.0,5.0,400.7714740000665,6.0,0.0,part_2,go,100.0,150.0,1.0,,,,,,,,,cyan,hexagon
0.0,3.0,3.0,0.0,5.0,5.0,436.7044319951674,6.0,0.0,part_2,go,100.0,150.0,1.0,,,,,,,,,white,diamond
0.0,7.0,3.0,1.0,6.0,6.0,314.4610529998317,6.0,0.0,part_2,stop,100.0,150.0,3.0,,,,,,,,,orange,I
0.0,2.0,2.0,0.0,6.0,6.0,493.2396719959797,6.0,0.0,part_2,go,100.0,100.0,1.0,,,,,,,,,green,flipped triangle
0.0,2.0,2.0,0.0,6.0,6.0,393.0530090001412,6.0,0.0,part_2,go,100.0,100.0,1.0,,,,,,,,,green,flipped triangle
0.0,6.0,2.0,1.0,6.0,6.0,272.1147909978754,6.0,0.0,part_2,stop,100.0,100.0,3.0,,,,,,,,,blue,circle
0.0,7.0,3.0,1.0,5.0,0.0,0.0,6.0,0.0,part_2,stop,100.0,50.0,4.0,,,,,,,,,orange,I
0.0,8.0,4.0,1.0,6.0,0.0,0.0,6.0,0.0,part_2,stop,150.0,50.0,4.0,,,,,,,,,cyan,hexagon
0.0,2.0,2.0,0.0,6.0,6.0,438.8441710034385,6.0,0.0,part_2,go,150.0,100.0,1.0,,,,,,,,,green,flipped triangle
0.0,7.0,3.0,1.0,6.0,6.0,360.145910999563,6.0,0.0,part_2,go,150.0,100.0,1.0,,,,,,,,,orange,I
0.0,4.0,4.0,0.0,6.0,6.0,321.8110689995228,6.0,0.0,part_2,go,150.0,100.0,1.0,,,,,,,,,yellow,triangle
0.0,4.0,4.0,0.0,6.0,6.0,381.6391490036039,6.0,0.0,part_2,go,150.0,100.0,1.0,,,,,,,,,yellow,triangle
0.0,1.0,1.0,0.0,5.0,5.0,522.1839209989412,7.0,0.0,part_2,go,150.0,100.0,1.0,,,,,,,,,magenta,cross
0.0,5.0,1.0,1.0,5.0,5.0,400.2481280040229,7.0,0.0,part_2,stop,150.0,100.0,3.0,,,,,,,,,gray,square
0.0,4.0,4.0,0.0,5.0,5.0,525.1350210019154,7.0,0.0,part_2,go,100.0,100.0,1.0,,,,,,,,,yellow,triangle
0.0,2.0,2.0,0.0,5.0,5.0,401.1845720015117,7.0,0.0,part_2,go,100.0,100.0,1.0,,,,,,,,,green,flipped triangle
0.0,2.0,2.0,0.0,5.0,5.0,364.5976649931981,7.0,0.0,part_2,go,100.0,100.0,1.0,,,,,,,,,green,flipped triangle
0.0,2.0,2.0,0.0,5.0,5.0,300.2377960001468,7.0,0.0,part_2,go,100.0,100.0,1.0,,,,,,,,,green,flipped triangle
0.0,1.0,1.0,0.0,5.0,5.0,334.6834669937379,7.0,0.0,part_2,go,100.0,100.0,1.0,,,,,,,,,magenta,cross
0.0,7.0,3.0,1.0,6.0,0.0,0.0,7.0,0.0,part_2,stop,100.0,100.0,4.0,,,,,,,,,orange,I
0.0,6.0,2.0,1.0,5.0,5.0,424.1493950030417,7.0,0.0,part_2,go,100.0,150.0,1.0,,,,,,,,,blue,circle
0.0,6.0,2.0,1.0,5.0,5.0,319.807353997021,7.0,0.0,part_2,go,100.0,150.0,1.0,,,,,,,,,blue,circle
0.0,4.0,4.0,0.0,6.0,6.0,405.563249005354,7.0,0.0,part_2,go,100.0,150.0,1.0,,,,,,,,,yellow,triangle
0.0,1.0,1.0,0.0,6.0,6.0,333.0949370065355,7.0,0.0,part_2,go,100.0,150.0,1.0,,,,,,,,,magenta,cross
0.0,4.0,4.0,0.0,5.0,5.0,278.6642080027377,7.0,0.0,part_2,go,100.0,150.0,1.0,,,,,,,,,yellow,triangle
0.0,7.0,3.0,1.0,6.0,6.0,392.4553510005353,7.0,0.0,part_2,go,100.0,150.0,1.0,,,,,,,,,orange,I
0.0,5.0,1.0,1.0,6.0,6.0,266.4741359985783,7.0,0.0,part_2,stop,100.0,150.0,3.0,,,,,,,,,gray,square
0.0,2.0,2.0,0.0,5.0,5.0,612.9346620000433,7.0,0.0,part_2,go,100.0,100.0,1.0,,,,,,,,,green,flipped triangle
0.0,3.0,3.0,0.0,6.0,6.0,317.6704549987335,7.0,0.0,part_2,go,100.0,100.0,1.0,,,,,,,,,white,diamond
0.0,2.0,2.0,0.0,6.0,6.0,255.469613999594,7.0,0.0,part_2,go,100.0,100.0,1.0,,,,,,,,,green,flipped triangle
0.0,3.0,3.0,0.0,5.0,5.0,264.6992829977534,7.0,0.0,part_2,go,100.0,100.0,1.0,,,,,,,,,white,diamond
0.0,3.0,3.0,0.0,5.0,5.0,305.3208409983199,7.0,0.0,part_2,go,100.0,100.0,1.0,,,,,,,,,white,diamond
0.0,7.0,3.0,1.0,5.0,5.0,303.3783999999286,7.0,0.0,part_2,stop,100.0,100.0,3.0,,,,,,,,,orange,I
0.0,5.0,1.0,1.0,6.0,0.0,0.0,7.0,0.0,part_2,stop,50.0,100.0,4.0,,,,,,,,,gray,square
0.0,4.0,4.0,0.0,5.0,5.0,258.8512739966973,7.0,0.0,part_2,go,50.0,150.0,1.0,,,,,,,,,yellow,triangle
0.0,5.0,1.0,1.0,6.0,6.0,255.55022899789031,7.0,0.0,part_2,stop,50.0,150.0,3.0,,,,,,,,,gray,square
0.0,2.0,2.0,0.0,5.0,5.0,572.0203509990824,7.0,0.0,part_2,go,50.0,100.0,1.0,,,,,,,,,green,flipped triangle
0.0,3.0,3.0,0.0,5.0,5.0,252.519387002394,7.0,0.0,part_2,go,50.0,100.0,1.0,,,,,,,,,white,diamond
0.0,8.0,4.0,1.0,6.0,0.0,0.0,7.0,0.0,part_2,stop,50.0,100.0,4.0,,,,,,,,,cyan,hexagon
0.0,7.0,3.0,1.0,6.0,6.0,345.4992570041213,7.0,0.0,part_2,stop,50.0,150.0,3.0,,,,,,,,,orange,I
0.0,6.0,2.0,1.0,6.0,0.0,0.0,7.0,0.0,part_2,stop,50.0,100.0,4.0,,,,,,,,,blue,circle
0.0,2.0,2.0,0.0,5.0,5.0,452.0810289977817,7.0,0.0,part_2,go,50.0,150.0,1.0,,,,,,,,,green,flipped triangle
0.0,1.0,1.0,0.0,6.0,6.0,406.6575329998159,7.0,0.0,part_2,go,50.0,150.0,1.0,,,,,,,,,magenta,cross
0.0,6.0,2.0,1.0,6.0,6.0,289.9542860031943,7.0,0.0,part_2,stop,50.0,150.0,3.0,,,,,,,,,blue,circle
0.0,6.0,2.0,1.0,5.0,5.0,525.932634001947,7.0,0.0,part_2,go,50.0,100.0,1.0,,,,,,,,,blue,circle
0.0,6.0,2.0,1.0,5.0,0.0,0.0,7.0,0.0,part_2,stop,50.0,100.0,4.0,,,,,,,,,blue,circle
0.0,8.0,4.0,1.0,5.0,5.0,352.3462809971533,7.0,0.0,part_2,stop,100.0,100.0,3.0,,,,,,,,,cyan,hexagon
0.0,5.0,1.0,1.0,5.0,5.0,502.86550499731675,7.0,0.0,part_2,go,50.0,100.0,1.0,,,,,,,,,gray,square
0.0,3.0,3.0,0.0,6.0,6.0,664.1842409953824,8.0,0.0,part_2,go,50.0,100.0,1.0,,,,,,,,,white,diamond
0.0,6.0,2.0,1.0,6.0,0.0,0.0,8.0,0.0,part_2,stop,50.0,100.0,4.0,,,,,,,,,blue,circle
0.0,3.0,3.0,0.0,5.0,5.0,696.3953169979504,8.0,0.0,part_2,go,50.0,150.0,1.0,,,,,,,,,white,diamond
0.0,4.0,4.0,0.0,5.0,5.0,462.0686589987599,8.0,0.0,part_2,go,50.0,150.0,1.0,,,,,,,,,yellow,triangle
0.0,4.0,4.0,0.0,6.0,6.0,465.8264879981288,8.0,0.0,part_2,go,50.0,150.0,1.0,,,,,,,,,yellow,triangle
0.0,6.0,2.0,1.0,6.0,6.0,671.9465510032023,8.0,0.0,part_2,go,50.0,150.0,1.0,,,,,,,,,blue,circle
0.0,5.0,1.0,1.0,5.0,0.0,0.0,8.0,0.0,part_2,stop,50.0,150.0,4.0,,,,,,,,,gray,square
0.0,5.0,1.0,1.0,5.0,0.0,0.0,8.0,0.0,part_2,stop,100.0,150.0,4.0,,,,,,,,,gray,square
0.0,1.0,1.0,0.0,5.0,5.0,700.0541519955732,8.0,0.0,part_2,go,150.0,150.0,1.0,,,,,,,,,magenta,cross
0.0,3.0,3.0,0.0,5.0,5.0,561.4407030006987,8.0,0.0,part_2,go,150.0,150.0,1.0,,,,,,,,,white,diamond
0.0,5.0,1.0,1.0,5.0,0.0,0.0,8.0,0.0,part_2,stop,150.0,150.0,4.0,,,,,,,,,gray,square
0.0,3.0,3.0,0.0,6.0,6.0,580.5392800029949,8.0,0.0,part_2,go,200.0,150.0,1.0,,,,,,,,,white,diamond
0.0,2.0,2.0,0.0,5.0,5.0,497.347181000805,8.0,0.0,part_2,go,200.0,150.0,1.0,,,,,,,,,green,flipped triangle
0.0,8.0,4.0,1.0,5.0,0.0,0.0,8.0,0.0,part_2,stop,200.0,150.0,4.0,,,,,,,,,cyan,hexagon
0.0,1.0,1.0,0.0,5.0,5.0,672.2242629984976,8.0,0.0,part_2,go,250.0,150.0,1.0,,,,,,,,,magenta,cross
0.0,7.0,3.0,1.0,6.0,0.0,0.0,8.0,0.0,part_2,stop,250.0,150.0,4.0,,,,,,,,,orange,I
0.0,8.0,4.0,1.0,5.0,0.0,0.0,8.0,0.0,part_2,stop,250.0,200.0,4.0,,,,,,,,,cyan,hexagon
0.0,1.0,1.0,0.0,6.0,6.0,663.3863870010828,8.0,0.0,part_2,go,300.0,200.0,1.0,,,,,,,,,magenta,cross
0.0,8.0,4.0,1.0,6.0,0.0,0.0,8.0,0.0,part_2,stop,300.0,200.0,4.0,,,,,,,,,cyan,hexagon
0.0,5.0,1.0,1.0,5.0,5.0,397.5376770031289,8.0,0.0,part_2,stop,300.0,250.0,3.0,,,,,,,,,gray,square
0.0,7.0,3.0,1.0,5.0,5.0,563.2251560018631,8.0,0.0,part_2,go,250.0,250.0,1.0,,,,,,,,,orange,I
0.0,2.0,2.0,0.0,6.0,6.0,621.6364720021375,8.0,0.0,part_2,go,250.0,250.0,1.0,,,,,,,,,green,flipped triangle
0.0,5.0,1.0,1.0,5.0,5.0,638.4552930030623,8.0,0.0,part_2,go,250.0,250.0,1.0,,,,,,,,,gray,square
0.0,1.0,1.0,0.0,6.0,6.0,330.4807849999633,8.0,0.0,part_2,go,250.0,250.0,1.0,,,,,,,,,magenta,cross
0.0,6.0,2.0,1.0,6.0,6.0,345.0540970006841,8.0,0.0,part_2,go,250.0,250.0,1.0,,,,,,,,,blue,circle
0.0,8.0,4.0,1.0,5.0,5.0,287.8036510010133,8.0,0.0,part_2,stop,250.0,250.0,3.0,,,,,,,,,cyan,hexagon
0.0,2.0,2.0,0.0,6.0,6.0,336.4753970017773,8.0,0.0,part_2,go,200.0,250.0,1.0,,,,,,,,,green,flipped triangle
0.0,4.0,4.0,0.0,5.0,5.0,502.95083999662893,8.0,0.0,part_2,go,200.0,250.0,1.0,,,,,,,,,yellow,triangle
0.0,2.0,2.0,0.0,6.0,6.0,379.4592449994525,8.0,0.0,part_2,go,200.0,250.0,1.0,,,,,,,,,green,flipped triangle
0.0,2.0,2.0,0.0,5.0,5.0,313.0840540034114,8.0,0.0,part_2,go,200.0,250.0,1.0,,,,,,,,,green,flipped triangle
0.0,8.0,4.0,1.0,6.0,0.0,0.0,8.0,0.0,part_2,stop,200.0,250.0,4.0,,,,,,,,,cyan,hexagon
0.0,3.0,3.0,0.0,5.0,5.0,504.53777599614114,8.0,0.0,part_2,go,200.0,300.0,1.0,,,,,,,,,white,diamond
0.0,3.0,3.0,0.0,6.0,6.0,649.9209359972156,8.0,0.0,part_2,go,200.0,300.0,1.0,,,,,,,,,white,diamond
0.0,1.0,1.0,0.0,5.0,5.0,638.5369550043833,8.0,0.0,part_2,go,200.0,300.0,1.0,,,,,,,,,magenta,cross
0.0,2.0,2.0,0.0,6.0,6.0,564.1010379986255,8.0,0.0,part_2,go,200.0,300.0,1.0,,,,,,,,,green,flipped triangle
0.0,4.0,4.0,0.0,5.0,5.0,502.08463799936,8.0,0.0,part_2,go,200.0,300.0,1.0,,,,,,,,,yellow,triangle
0.0,7.0,3.0,1.0,7.0,5.0,3087.794118997408,1.0,1.0,part_3,go,0.0,0.0,0.0,264.0,6.0,132.0,220.0,176.0,44.0,264.0,88.0,orange,I
0.0,1.0,1.0,0.0,7.0,6.0,3438.043923000805,1.0,1.0,part_3,go,0.0,0.0,0.0,216.0,4.0,108.0,270.0,324.0,54.0,162.0,216.0,magenta,cross
0.0,3.0,3.0,0.0,7.0,5.0,3081.5254379995167,1.0,1.0,part_3,go,0.0,0.0,0.0,195.0,5.0,39.0,156.0,78.0,117.0,195.0,234.0,white,diamond
0.0,4.0,4.0,0.0,7.0,3.0,3233.399243996246,1.0,1.0,part_3,go,0.0,0.0,0.0,108.0,2.0,162.0,270.0,108.0,54.0,216.0,324.0,yellow,triangle
0.0,6.0,2.0,1.0,7.0,6.0,3639.639070999692,1.0,1.0,part_3,go,0.0,0.0,0.0,162.0,3.0,54.0,270.0,324.0,216.0,108.0,162.0,blue,circle
0.0,7.0,3.0,1.0,7.0,1.0,2698.939165995398,1.0,1.0,part_3,go,0.0,0.0,0.0,294.0,6.0,294.0,98.0,245.0,147.0,196.0,49.0,orange,I
0.0,4.0,4.0,0.0,7.0,2.0,2550.2126940045855,1.0,1.0,part_3,go,0.0,0.0,0.0,294.0,6.0,98.0,294.0,196.0,147.0,245.0,49.0,yellow,triangle
0.0,3.0,3.0,0.0,7.0,6.0,1509.5978809986264,1.0,1.0,part_3,go,0.0,0.0,0.0,108.0,2.0,162.0,270.0,324.0,216.0,54.0,108.0,white,diamond
0.0,8.0,4.0,1.0,7.0,6.0,1125.2770309947664,1.0,1.0,part_3,go,0.0,0.0,0.0,136.0,4.0,102.0,170.0,204.0,34.0,68.0,136.0,cyan,hexagon
0.0,8.0,4.0,1.0,7.0,3.0,1465.3289880006923,1.0,1.0,part_3,go,0.0,0.0,0.0,324.0,6.0,270.0,162.0,324.0,108.0,216.0,54.0,cyan,hexagon
0.0,2.0,2.0,0.0,7.0,1.0,1712.252006997005,1.0,1.0,part_3,go,0.0,0.0,0.0,170.0,5.0,170.0,68.0,102.0,34.0,136.0,204.0,green,flipped triangle
0.0,6.0,2.0,1.0,7.0,6.0,1777.601230001892,1.0,1.0,part_3,go,0.0,0.0,0.0,216.0,4.0,324.0,270.0,54.0,162.0,108.0,216.0,blue,circle
0.0,4.0,4.0,0.0,7.0,3.0,1982.166560999758,1.0,1.0,part_3,go,0.0,0.0,0.0,136.0,4.0,170.0,204.0,136.0,102.0,68.0,34.0,yellow,triangle
0.0,1.0,1.0,0.0,7.0,2.0,1298.1614070013163,1.0,1.0,part_3,go,0.0,0.0,0.0,234.0,6.0,117.0,234.0,78.0,195.0,39.0,156.0,magenta,cross
0.0,5.0,1.0,1.0,7.0,1.0,1683.6963460009429,1.0,1.0,part_3,go,0.0,0.0,0.0,270.0,5.0,270.0,108.0,324.0,54.0,162.0,216.0,gray,square
0.0,4.0,4.0,0.0,7.0,1.0,865.3219199986779,1.0,1.0,part_3,go,0.0,0.0,0.0,264.0,6.0,264.0,44.0,132.0,176.0,220.0,88.0,yellow,triangle
0.0,7.0,3.0,1.0,7.0,5.0,1977.314944997488,1.0,1.0,part_3,go,0.0,0.0,0.0,204.0,6.0,68.0,102.0,136.0,34.0,204.0,170.0,orange,I
0.0,6.0,2.0,1.0,7.0,3.0,1522.2990209949785,1.0,1.0,part_3,go,0.0,0.0,0.0,294.0,6.0,245.0,98.0,294.0,147.0,49.0,196.0,blue,circle
0.0,1.0,1.0,0.0,7.0,6.0,1163.5443719933392,1.0,1.0,part_3,go,0.0,0.0,0.0,170.0,5.0,136.0,102.0,34.0,204.0,68.0,170.0,magenta,cross
0.0,3.0,3.0,0.0,7.0,6.0,1248.9924629990128,1.0,1.0,part_3,go,0.0,0.0,0.0,196.0,4.0,147.0,98.0,294.0,245.0,49.0,196.0,white,diamond
0.0,2.0,2.0,0.0,7.0,6.0,1612.7466809994075,2.0,1.0,part_3,go,0.0,0.0,0.0,220.0,5.0,88.0,132.0,176.0,44.0,264.0,220.0,green,flipped triangle
0.0,7.0,3.0,1.0,7.0,6.0,1878.940620998037,2.0,1.0,part_3,go,0.0,0.0,0.0,147.0,3.0,245.0,294.0,98.0,49.0,196.0,147.0,orange,I
0.0,7.0,3.0,1.0,7.0,2.0,2319.560627998726,2.0,1.0,part_3,go,0.0,0.0,0.0,234.0,6.0,117.0,234.0,78.0,195.0,39.0,156.0,orange,I
0.0,6.0,2.0,1.0,7.0,6.0,2469.322140997974,2.0,1.0,part_3,go,0.0,0.0,0.0,117.0,3.0,156.0,39.0,234.0,195.0,78.0,117.0,blue,circle
0.0,3.0,3.0,0.0,7.0,5.0,1859.8990169994067,2.0,1.0,part_3,go,0.0,0.0,0.0,136.0,4.0,34.0,102.0,204.0,170.0,136.0,68.0,white,diamond
0.0,3.0,3.0,0.0,7.0,6.0,2473.976909997873,2.0,1.0,part_3,go,0.0,0.0,0.0,324.0,6.0,216.0,162.0,54.0,108.0,270.0,324.0,white,diamond
0.0,3.0,3.0,0.0,7.0,6.0,2335.4115809997893,2.0,1.0,part_3,go,0.0,0.0,0.0,234.0,6.0,195.0,117.0,78.0,39.0,156.0,234.0,white,diamond
0.0,8.0,4.0,1.0,7.0,1.0,2919.047239003703,2.0,1.0,part_3,go,0.0,0.0,0.0,117.0,3.0,117.0,234.0,78.0,39.0,156.0,195.0,cyan,hexagon
0.0,1.0,1.0,0.0,7.0,5.0,1680.2787350025028,2.0,1.0,part_3,go,0.0,0.0,0.0,108.0,2.0,216.0,54.0,162.0,324.0,108.0,270.0,magenta,cross
0.0,1.0,1.0,0.0,7.0,5.0,1036.0144110018157,2.0,1.0,part_3,go,0.0,0.0,0.0,264.0,6.0,44.0,132.0,176.0,220.0,264.0,88.0,magenta,cross
0.0,2.0,2.0,0.0,7.0,2.0,3424.155745000462,2.0,1.0,part_3,go,0.0,0.0,0.0,204.0,6.0,102.0,204.0,34.0,170.0,68.0,136.0,green,flipped triangle
0.0,5.0,1.0,1.0,7.0,5.0,2571.0027140012244,2.0,1.0,part_3,go,0.0,0.0,0.0,324.0,6.0,216.0,162.0,270.0,54.0,324.0,108.0,gray,square
0.0,7.0,3.0,1.0,7.0,5.0,2432.478517999698,2.0,1.0,part_3,go,0.0,0.0,0.0,270.0,5.0,108.0,216.0,162.0,324.0,270.0,54.0,orange,I
0.0,5.0,1.0,1.0,7.0,1.0,2481.815541003016,2.0,1.0,part_3,go,0.0,0.0,0.0,264.0,6.0,264.0,88.0,176.0,132.0,44.0,220.0,gray,square
0.0,5.0,1.0,1.0,7.0,3.0,3298.8239120022627,2.0,1.0,part_3,go,0.0,0.0,0.0,234.0,6.0,78.0,117.0,234.0,156.0,39.0,195.0,gray,square
0.0,6.0,2.0,1.0,7.0,2.0,2787.332904001232,2.0,1.0,part_3,go,0.0,0.0,0.0,102.0,3.0,170.0,102.0,204.0,34.0,136.0,68.0,blue,circle
0.0,5.0,1.0,1.0,7.0,6.0,1998.5507940000389,2.0,1.0,part_3,go,0.0,0.0,0.0,204.0,6.0,34.0,68.0,170.0,136.0,102.0,204.0,gray,square
0.0,7.0,3.0,1.0,7.0,5.0,2937.4319359994843,2.0,1.0,part_3,go,0.0,0.0,0.0,270.0,5.0,108.0,324.0,54.0,162.0,270.0,216.0,orange,I
0.0,8.0,4.0,1.0,7.0,5.0,2819.0865779979504,2.0,1.0,part_3,go,0.0,0.0,0.0,108.0,2.0,162.0,270.0,54.0,216.0,108.0,324.0,cyan,hexagon
0.0,5.0,1.0,1.0,7.0,4.0,1745.378769999661,2.0,1.0,part_3,go,0.0,0.0,0.0,117.0,3.0,234.0,195.0,156.0,117.0,78.0,39.0,gray,square
0.0,6.0,2.0,1.0,7.0,1.0,2112.50418000418,3.0,1.0,part_3,go,0.0,0.0,0.0,98.0,2.0,98.0,196.0,147.0,245.0,294.0,49.0,blue,circle
0.0,5.0,1.0,1.0,7.0,4.0,1765.355620002083,3.0,1.0,part_3,go,0.0,0.0,0.0,204.0,6.0,34.0,102.0,170.0,204.0,68.0,136.0,gray,square
0.0,4.0,4.0,0.0,7.0,4.0,2454.9183049966814,3.0,1.0,part_3,go,0.0,0.0,0.0,204.0,6.0,68.0,102.0,170.0,204.0,34.0,136.0,yellow,triangle
0.0,1.0,1.0,0.0,7.0,2.0,3276.1069900006987,3.0,1.0,part_3,go,0.0,0.0,0.0,204.0,6.0,136.0,204.0,170.0,68.0,34.0,102.0,magenta,cross
0.0,3.0,3.0,0.0,7.0,1.0,3985.105670995836,3.0,1.0,part_3,go,0.0,0.0,0.0,132.0,3.0,132.0,176.0,264.0,44.0,88.0,220.0,white,diamond
0.0,2.0,2.0,0.0,7.0,2.0,2380.9122539969394,3.0,1.0,part_3,go,0.0,0.0,0.0,234.0,6.0,39.0,234.0,78.0,195.0,117.0,156.0,green,flipped triangle
0.0,6.0,2.0,1.0,7.0,5.0,2414.2472710009315,3.0,1.0,part_3,go,0.0,0.0,0.0,176.0,4.0,44.0,264.0,132.0,88.0,176.0,220.0,blue,circle
0.0,3.0,3.0,0.0,7.0,2.0,2948.562478995882,3.0,1.0,part_3,go,0.0,0.0,0.0,204.0,6.0,68.0,204.0,102.0,170.0,136.0,34.0,white,diamond
0.0,8.0,4.0,1.0,7.0,4.0,1937.5539450047656,3.0,1.0,part_3,go,0.0,0.0,0.0,234.0,6.0,156.0,195.0,39.0,234.0,78.0,117.0,cyan,hexagon
0.0,8.0,4.0,1.0,7.0,5.0,2401.7614039985347,3.0,1.0,part_3,go,0.0,0.0,0.0,245.0,5.0,49.0,196.0,294.0,98.0,245.0,147.0,cyan,hexagon
0.0,8.0,4.0,1.0,7.0,3.0,3088.689814998361,3.0,1.0,part_3,go,0.0,0.0,0.0,220.0,5.0,264.0,176.0,220.0,44.0,132.0,88.0,cyan,hexagon
0.0,4.0,4.0,0.0,7.0,6.0,2406.731586001115,3.0,1.0,part_3,go,0.0,0.0,0.0,117.0,3.0,39.0,234.0,195.0,156.0,78.0,117.0,yellow,triangle
0.0,4.0,4.0,0.0,7.0,6.0,1496.1781809979584,3.0,1.0,part_3,go,0.0,0.0,0.0,117.0,3.0,195.0,156.0,39.0,234.0,78.0,117.0,yellow,triangle
0.0,6.0,2.0,1.0,7.0,2.0,4259.743857997819,3.0,1.0,part_3,go,0.0,0.0,0.0,117.0,3.0,78.0,117.0,234.0,39.0,195.0,156.0,blue,circle
0.0,5.0,1.0,1.0,7.0,6.0,1787.3986109989346,3.0,1.0,part_3,go,0.0,0.0,0.0,294.0,6.0,49.0,196.0,245.0,147.0,98.0,294.0,gray,square
0.0,6.0,2.0,1.0,7.0,6.0,1728.870374005055,3.0,1.0,part_3,go,0.0,0.0,0.0,176.0,4.0,264.0,220.0,44.0,132.0,88.0,176.0,blue,circle
0.0,5.0,1.0,1.0,7.0,3.0,1582.3313959990628,3.0,1.0,part_3,go,0.0,0.0,0.0,294.0,6.0,147.0,98.0,294.0,245.0,49.0,196.0,gray,square
0.0,8.0,4.0,1.0,7.0,6.0,1244.1306020045886,3.0,1.0,part_3,go,0.0,0.0,0.0,294.0,6.0,49.0,245.0,196.0,98.0,147.0,294.0,cyan,hexagon
0.0,2.0,2.0,0.0,7.0,5.0,3095.1332750046276,3.0,1.0,part_3,go,0.0,0.0,0.0,264.0,6.0,88.0,176.0,220.0,132.0,264.0,44.0,green,flipped triangle
0.0,3.0,3.0,0.0,7.0,6.0,2441.807562005124,3.0,1.0,part_3,go,0.0,0.0,0.0,132.0,3.0,220.0,44.0,176.0,264.0,88.0,132.0,white,diamond
0.0,8.0,4.0,1.0,7.0,6.0,1555.0148059992353,4.0,1.0,part_3,go,0.0,0.0,0.0,102.0,3.0,136.0,170.0,68.0,34.0,204.0,102.0,cyan,hexagon
0.0,4.0,4.0,0.0,7.0,6.0,1343.663548999757,4.0,1.0,part_3,go,0.0,0.0,0.0,324.0,6.0,108.0,270.0,216.0,54.0,162.0,324.0,yellow,triangle
0.0,8.0,4.0,1.0,7.0,5.0,2957.1930750025786,4.0,1.0,part_3,go,0.0,0.0,0.0,176.0,4.0,88.0,44.0,264.0,220.0,176.0,132.0,cyan,hexagon
0.0,3.0,3.0,0.0,7.0,2.0,2276.4944350055885,4.0,1.0,part_3,go,0.0,0.0,0.0,196.0,4.0,49.0,196.0,147.0,294.0,245.0,98.0,white,diamond
0.0,2.0,2.0,0.0,7.0,2.0,1774.678383997525,4.0,1.0,part_3,go,0.0,0.0,0.0,216.0,4.0,54.0,216.0,270.0,108.0,162.0,324.0,green,flipped triangle
0.0,5.0,1.0,1.0,7.0,5.0,2155.631611996796,4.0,1.0,part_3,go,0.0,0.0,0.0,132.0,3.0,44.0,176.0,220.0,88.0,132.0,264.0,gray,square
0.0,7.0,3.0,1.0,7.0,3.0,3313.8768100034213,4.0,1.0,part_3,go,0.0,0.0,0.0,195.0,5.0,156.0,117.0,195.0,234.0,78.0,39.0,orange,I
0.0,1.0,1.0,0.0,7.0,5.0,1502.883394001401,4.0,1.0,part_3,go,0.0,0.0,0.0,78.0,2.0,156.0,39.0,234.0,117.0,78.0,195.0,magenta,cross
0.0,7.0,3.0,1.0,7.0,4.0,1314.8801830029695,4.0,1.0,part_3,go,0.0,0.0,0.0,132.0,3.0,220.0,88.0,176.0,132.0,44.0,264.0,orange,I
0.0,6.0,2.0,1.0,7.0,5.0,2311.09804600419,4.0,1.0,part_3,go,0.0,0.0,0.0,204.0,6.0,136.0,170.0,102.0,68.0,204.0,34.0,blue,circle
0.0,2.0,2.0,0.0,7.0,4.0,1927.7980789993308,4.0,1.0,part_3,go,0.0,0.0,0.0,147.0,3.0,98.0,245.0,196.0,147.0,49.0,294.0,green,flipped triangle
0.0,1.0,1.0,0.0,7.0,1.0,1080.0443990010535,4.0,1.0,part_3,go,0.0,0.0,0.0,88.0,2.0,88.0,132.0,176.0,220.0,264.0,44.0,magenta,cross
0.0,4.0,4.0,0.0,7.0,1.0,1227.819367995835,4.0,1.0,part_3,go,0.0,0.0,0.0,220.0,5.0,220.0,264.0,176.0,132.0,44.0,88.0,yellow,triangle
0.0,1.0,1.0,0.0,7.0,2.0,1133.8471830022172,4.0,1.0,part_3,go,0.0,0.0,0.0,98.0,2.0,49.0,98.0,147.0,294.0,245.0,196.0,magenta,cross
0.0,7.0,3.0,1.0,7.0,6.0,1479.053445000318,4.0,1.0,part_3,go,0.0,0.0,0.0,170.0,5.0,102.0,68.0,204.0,34.0,136.0,170.0,orange,I
0.0,2.0,2.0,0.0,7.0,4.0,1335.910246998537,4.0,1.0,part_3,go,0.0,0.0,0.0,234.0,6.0,156.0,78.0,195.0,234.0,117.0,39.0,green,flipped triangle
0.0,1.0,1.0,0.0,7.0,6.0,1315.723046005587,4.0,1.0,part_3,go,0.0,0.0,0.0,98.0,2.0,147.0,245.0,196.0,294.0,49.0,98.0,magenta,cross
0.0,4.0,4.0,0.0,7.0,4.0,1612.6486939974711,4.0,1.0,part_3,go,0.0,0.0,0.0,196.0,4.0,147.0,245.0,294.0,196.0,49.0,98.0,yellow,triangle
0.0,2.0,2.0,0.0,7.0,4.0,2479.758846995537,4.0,1.0,part_3,go,0.0,0.0,0.0,196.0,4.0,147.0,98.0,245.0,196.0,49.0,294.0,green,flipped triangle
0.0,2.0,2.0,0.0,7.0,1.0,1338.3726250031032,4.0,1.0,part_3,go,0.0,0.0,0.0,216.0,4.0,216.0,162.0,270.0,108.0,324.0,54.0,green,flipped triangle
