raw_reward_magnitude,stim_reward,stepwise_reward_magnitude,paired_with_stopping,stim_location,response,reaction_time,block,num_trial_presentations,which_phase,stop_signal_trial_type,left_SSD,right_SSD,accuracy,chosen_bidding_amount,chosen_bidding_level,possible_bid_1,possible_bid_2,possible_bid_3,possible_bid_4,possible_bid_5,possible_bid_6,color_text,shape_text
27.0,1.0,0.5,0.0,3.0,3.0,542.7023029999418,1.0,1.0,phase_1,,,,,,,,,,,,,white,circle
123.0,6.0,1.0,1.0,2.0,2.0,329.840127000125,1.0,1.0,phase_1,,,,,,,,,,,,,yellow,square
178.0,3.0,2.0,0.0,4.0,4.0,276.7425089998596,1.0,1.0,phase_1,,,,,,,,,,,,,magenta,triangle
91.0,2.0,1.0,0.0,2.0,2.0,291.2878939998791,1.0,1.0,phase_1,,,,,,,,,,,,,orange,hexagon
423.0,4.0,4.0,0.0,1.0,1.0,331.3354389999858,1.0,1.0,phase_1,,,,,,,,,,,,,gray,I
30.0,1.0,0.5,0.0,1.0,1.0,378.5229259999596,1.0,1.0,phase_1,,,,,,,,,,,,,white,circle
97.0,6.0,1.0,1.0,1.0,1.0,296.993865000104,1.0,1.0,phase_1,,,,,,,,,,,,,yellow,square
65.0,1.0,0.5,0.0,2.0,2.0,365.5772119998346,1.0,1.0,phase_1,,,,,,,,,,,,,white,circle
187.0,7.0,2.0,1.0,1.0,1.0,282.890904000169,1.0,1.0,phase_1,,,,,,,,,,,,,green,diamond
0.0,8.0,0.0,1.0,4.0,4.0,281.0345200000483,1.0,1.0,phase_1,,,,,,,,,,,,,cyan,flipped triangle
43.0,1.0,0.5,0.0,1.0,1.0,309.4460629999958,1.0,1.0,phase_1,,,,,,,,,,,,,white,circle
48.0,1.0,0.5,0.0,4.0,4.0,258.3068970000113,1.0,1.0,phase_1,,,,,,,,,,,,,white,circle
194.0,3.0,2.0,0.0,3.0,3.0,285.1313679998384,1.0,1.0,phase_1,,,,,,,,,,,,,magenta,triangle
68.0,5.0,0.5,1.0,1.0,1.0,295.178124000131,1.0,1.0,phase_1,,,,,,,,,,,,,blue,cross
0.0,7.0,0.0,1.0,4.0,4.0,255.10630100006892,1.0,1.0,phase_1,,,,,,,,,,,,,green,diamond
379.0,8.0,4.0,1.0,4.0,4.0,378.8384150000183,1.0,1.0,phase_1,,,,,,,,,,,,,cyan,flipped triangle
55.0,1.0,0.5,0.0,2.0,2.0,305.308850999836,1.0,1.0,phase_1,,,,,,,,,,,,,white,circle
194.0,7.0,2.0,1.0,4.0,4.0,284.5877170000221,1.0,1.0,phase_1,,,,,,,,,,,,,green,diamond
0.0,1.0,0.0,0.0,3.0,3.0,284.242236999944,1.0,1.0,phase_1,,,,,,,,,,,,,white,circle
187.0,7.0,2.0,1.0,3.0,3.0,343.4510270001283,1.0,1.0,phase_1,,,,,,,,,,,,,green,diamond
206.0,7.0,2.0,1.0,4.0,4.0,310.3795080000964,1.0,1.0,phase_1,,,,,,,,,,,,,green,diamond
51.0,5.0,0.5,1.0,3.0,3.0,329.5609900001182,1.0,1.0,phase_1,,,,,,,,,,,,,blue,cross
225.0,7.0,2.0,1.0,2.0,2.0,265.9172680000665,1.0,1.0,phase_1,,,,,,,,,,,,,green,diamond
68.0,1.0,0.5,0.0,4.0,4.0,297.785076999844,1.0,1.0,phase_1,,,,,,,,,,,,,white,circle
392.0,8.0,4.0,1.0,3.0,3.0,319.0334219998476,1.0,1.0,phase_1,,,,,,,,,,,,,cyan,flipped triangle
95.0,6.0,1.0,1.0,4.0,4.0,320.6911950001085,1.0,1.0,phase_1,,,,,,,,,,,,,yellow,square
197.0,3.0,2.0,0.0,4.0,4.0,365.102362000016,1.0,1.0,phase_1,,,,,,,,,,,,,magenta,triangle
0.0,3.0,0.0,0.0,2.0,2.0,335.5685860001358,1.0,1.0,phase_1,,,,,,,,,,,,,magenta,triangle
83.0,6.0,1.0,1.0,2.0,2.0,352.8550720000112,1.0,1.0,phase_1,,,,,,,,,,,,,yellow,square
44.0,5.0,0.5,1.0,4.0,4.0,309.2342200000075,1.0,1.0,phase_1,,,,,,,,,,,,,blue,cross
107.0,2.0,1.0,0.0,2.0,2.0,475.7680370000798,1.0,1.0,phase_1,,,,,,,,,,,,,orange,hexagon
103.0,2.0,1.0,0.0,3.0,3.0,288.3177539999906,1.0,1.0,phase_1,,,,,,,,,,,,,orange,hexagon
202.0,7.0,2.0,1.0,2.0,2.0,336.444942000071,1.0,1.0,phase_1,,,,,,,,,,,,,green,diamond
222.0,3.0,2.0,0.0,4.0,4.0,302.3603770000136,1.0,1.0,phase_1,,,,,,,,,,,,,magenta,triangle
386.0,4.0,4.0,0.0,1.0,1.0,324.4328569999197,1.0,1.0,phase_1,,,,,,,,,,,,,gray,I
397.0,4.0,4.0,0.0,1.0,1.0,397.8635539999686,1.0,1.0,phase_1,,,,,,,,,,,,,gray,I
187.0,7.0,2.0,1.0,4.0,4.0,301.1422570000377,1.0,1.0,phase_1,,,,,,,,,,,,,green,diamond
108.0,6.0,1.0,1.0,4.0,4.0,291.2452020000273,1.0,1.0,phase_1,,,,,,,,,,,,,yellow,square
0.0,1.0,0.0,0.0,4.0,4.0,369.0567339999688,1.0,1.0,phase_1,,,,,,,,,,,,,white,circle
108.0,6.0,1.0,1.0,4.0,4.0,333.3407220000026,1.0,1.0,phase_1,,,,,,,,,,,,,yellow,square
0.0,6.0,0.0,1.0,4.0,4.0,334.9482699998134,1.0,1.0,phase_1,,,,,,,,,,,,,yellow,square
377.0,8.0,4.0,1.0,1.0,1.0,308.8916130000143,1.0,1.0,phase_1,,,,,,,,,,,,,cyan,flipped triangle
0.0,5.0,0.0,1.0,1.0,1.0,454.2972479998752,1.0,1.0,phase_1,,,,,,,,,,,,,blue,cross
87.0,2.0,1.0,0.0,3.0,3.0,295.5717759998606,1.0,1.0,phase_1,,,,,,,,,,,,,orange,hexagon
0.0,4.0,0.0,0.0,4.0,4.0,343.3124390001012,1.0,1.0,phase_1,,,,,,,,,,,,,gray,I
97.0,2.0,1.0,0.0,4.0,4.0,324.0084229998956,1.0,1.0,phase_1,,,,,,,,,,,,,orange,hexagon
42.0,1.0,0.5,0.0,2.0,2.0,353.9719160000913,1.0,1.0,phase_1,,,,,,,,,,,,,white,circle
108.0,2.0,1.0,0.0,4.0,4.0,295.8986429998731,1.0,1.0,phase_1,,,,,,,,,,,,,orange,hexagon
0.0,4.0,0.0,0.0,4.0,4.0,252.0233610000559,1.0,1.0,phase_1,,,,,,,,,,,,,gray,I
123.0,2.0,1.0,0.0,2.0,2.0,258.9843680000285,1.0,1.0,phase_1,,,,,,,,,,,,,orange,hexagon
397.0,8.0,4.0,1.0,1.0,1.0,374.9469680001311,1.0,1.0,phase_1,,,,,,,,,,,,,cyan,flipped triangle
195.0,3.0,2.0,0.0,1.0,1.0,345.2539970000998,1.0,1.0,phase_1,,,,,,,,,,,,,magenta,triangle
0.0,6.0,0.0,1.0,1.0,1.0,328.1358809999801,1.0,2.0,phase_1,,,,,,,,,,,,,yellow,square
191.0,7.0,2.0,1.0,3.0,3.0,303.1444319999536,1.0,1.0,phase_1,,,,,,,,,,,,,green,diamond
382.0,4.0,4.0,0.0,2.0,2.0,405.8321580000665,1.0,1.0,phase_1,,,,,,,,,,,,,gray,I
124.0,2.0,1.0,0.0,2.0,2.0,358.2721529999162,1.0,1.0,phase_1,,,,,,,,,,,,,orange,hexagon
101.0,6.0,1.0,1.0,1.0,1.0,291.6623319999871,1.0,1.0,phase_1,,,,,,,,,,,,,yellow,square
0.0,6.0,0.0,1.0,3.0,3.0,322.8741560001253,1.0,1.0,phase_1,,,,,,,,,,,,,yellow,square
410.0,8.0,4.0,1.0,1.0,1.0,291.4265239999167,1.0,1.0,phase_1,,,,,,,,,,,,,cyan,flipped triangle
390.0,8.0,4.0,1.0,2.0,2.0,263.0793969999558,1.0,1.0,phase_1,,,,,,,,,,,,,cyan,flipped triangle
377.0,8.0,4.0,1.0,1.0,1.0,275.9747759998845,1.0,1.0,phase_1,,,,,,,,,,,,,cyan,flipped triangle
216.0,3.0,2.0,0.0,4.0,4.0,336.9416460000138,1.0,1.0,phase_1,,,,,,,,,,,,,magenta,triangle
54.0,1.0,0.5,0.0,3.0,3.0,338.0752460000167,1.0,1.0,phase_1,,,,,,,,,,,,,white,circle
411.0,8.0,4.0,1.0,1.0,1.0,319.2991420000908,1.0,1.0,phase_1,,,,,,,,,,,,,cyan,flipped triangle
0.0,3.0,0.0,0.0,4.0,4.0,274.5144169998639,1.0,1.0,phase_1,,,,,,,,,,,,,magenta,triangle
105.0,6.0,1.0,1.0,2.0,2.0,311.7515249998632,1.0,1.0,phase_1,,,,,,,,,,,,,yellow,square
116.0,2.0,1.0,0.0,1.0,1.0,281.4721150000423,1.0,1.0,phase_1,,,,,,,,,,,,,orange,hexagon
0.0,4.0,0.0,0.0,1.0,1.0,488.9835670001048,1.0,1.0,phase_1,,,,,,,,,,,,,gray,I
202.0,3.0,2.0,0.0,2.0,2.0,534.2857600001025,1.0,1.0,phase_1,,,,,,,,,,,,,magenta,triangle
0.0,2.0,0.0,0.0,2.0,2.0,323.0816759999015,1.0,1.0,phase_1,,,,,,,,,,,,,orange,hexagon
68.0,5.0,0.5,1.0,1.0,1.0,276.4030779999302,1.0,1.0,phase_1,,,,,,,,,,,,,blue,cross
107.0,6.0,1.0,1.0,2.0,2.0,268.7449749998905,1.0,1.0,phase_1,,,,,,,,,,,,,yellow,square
404.0,8.0,4.0,1.0,1.0,1.0,268.3858899999904,1.0,1.0,phase_1,,,,,,,,,,,,,cyan,flipped triangle
410.0,4.0,4.0,0.0,3.0,3.0,346.1330289999296,1.0,1.0,phase_1,,,,,,,,,,,,,gray,I
89.0,6.0,1.0,1.0,3.0,3.0,365.0854680001885,1.0,1.0,phase_1,,,,,,,,,,,,,yellow,square
390.0,8.0,4.0,1.0,4.0,4.0,320.8678829998916,1.0,1.0,phase_1,,,,,,,,,,,,,cyan,flipped triangle
210.0,7.0,2.0,1.0,1.0,1.0,266.9186119999267,1.0,1.0,phase_1,,,,,,,,,,,,,green,diamond
77.0,6.0,1.0,1.0,1.0,1.0,304.4769120001547,1.0,1.0,phase_1,,,,,,,,,,,,,yellow,square
423.0,8.0,4.0,1.0,4.0,4.0,304.9012429999038,1.0,1.0,phase_1,,,,,,,,,,,,,cyan,flipped triangle
105.0,2.0,1.0,0.0,4.0,4.0,358.4961579999799,1.0,1.0,phase_1,,,,,,,,,,,,,orange,hexagon
34.0,1.0,0.5,0.0,3.0,3.0,389.9433960000351,1.0,1.0,phase_1,,,,,,,,,,,,,white,circle
0.0,4.0,0.0,0.0,3.0,3.0,321.2627349998911,1.0,1.0,phase_1,,,,,,,,,,,,,gray,I
72.0,5.0,0.5,1.0,1.0,1.0,321.4730300001065,1.0,1.0,phase_1,,,,,,,,,,,,,blue,cross
63.0,1.0,0.5,0.0,3.0,3.0,288.7086050000107,1.0,1.0,phase_1,,,,,,,,,,,,,white,circle
413.0,4.0,4.0,0.0,4.0,4.0,686.68672900003,1.0,1.0,phase_1,,,,,,,,,,,,,gray,I
221.0,3.0,2.0,0.0,2.0,2.0,507.2845489999054,1.0,1.0,phase_1,,,,,,,,,,,,,magenta,triangle
211.0,7.0,2.0,1.0,1.0,1.0,288.5066179999285,1.0,1.0,phase_1,,,,,,,,,,,,,green,diamond
179.0,3.0,2.0,0.0,2.0,2.0,361.1005010000099,1.0,1.0,phase_1,,,,,,,,,,,,,magenta,triangle
27.0,5.0,0.5,1.0,1.0,1.0,357.2423890000209,1.0,1.0,phase_1,,,,,,,,,,,,,blue,cross
413.0,8.0,4.0,1.0,2.0,2.0,364.7797710000304,1.0,1.0,phase_1,,,,,,,,,,,,,cyan,flipped triangle
187.0,7.0,2.0,1.0,1.0,1.0,301.9730570001684,1.0,1.0,phase_1,,,,,,,,,,,,,green,diamond
115.0,6.0,1.0,1.0,2.0,2.0,393.2426530000157,1.0,1.0,phase_1,,,,,,,,,,,,,yellow,square
0.0,4.0,0.0,0.0,1.0,1.0,307.2159969999575,1.0,1.0,phase_1,,,,,,,,,,,,,gray,I
0.0,5.0,0.0,1.0,4.0,4.0,338.9919050000571,1.0,1.0,phase_1,,,,,,,,,,,,,blue,cross
87.0,2.0,1.0,0.0,1.0,1.0,310.2749570000469,1.0,1.0,phase_1,,,,,,,,,,,,,orange,hexagon
424.0,8.0,4.0,1.0,4.0,4.0,372.3814429999947,1.0,2.0,phase_1,,,,,,,,,,,,,cyan,flipped triangle
0.0,8.0,0.0,1.0,4.0,4.0,352.7594869999575,1.0,1.0,phase_1,,,,,,,,,,,,,cyan,flipped triangle
405.0,8.0,4.0,1.0,2.0,2.0,405.6864780000069,1.0,1.0,phase_1,,,,,,,,,,,,,cyan,flipped triangle
72.0,1.0,0.5,0.0,1.0,1.0,343.6548189999939,1.0,1.0,phase_1,,,,,,,,,,,,,white,circle
60.0,1.0,0.5,0.0,4.0,4.0,326.7316950000349,1.0,1.0,phase_1,,,,,,,,,,,,,white,circle
178.0,7.0,2.0,1.0,3.0,3.0,359.7511600000871,2.0,1.0,phase_1,,,,,,,,,,,,,green,diamond
210.0,3.0,2.0,0.0,3.0,3.0,315.2649049998217,2.0,1.0,phase_1,,,,,,,,,,,,,magenta,triangle
382.0,8.0,4.0,1.0,3.0,3.0,307.6720100000329,2.0,1.0,phase_1,,,,,,,,,,,,,cyan,flipped triangle
28.0,1.0,0.5,0.0,1.0,1.0,280.2211329999409,2.0,1.0,phase_1,,,,,,,,,,,,,white,circle
180.0,3.0,2.0,0.0,1.0,1.0,313.439500999948,2.0,1.0,phase_1,,,,,,,,,,,,,magenta,triangle
205.0,3.0,2.0,0.0,1.0,1.0,295.8453290000307,2.0,1.0,phase_1,,,,,,,,,,,,,magenta,triangle
0.0,1.0,0.0,0.0,1.0,1.0,270.396097999992,2.0,1.0,phase_1,,,,,,,,,,,,,white,circle
41.0,5.0,0.5,1.0,1.0,1.0,276.6527579999547,2.0,1.0,phase_1,,,,,,,,,,,,,blue,cross
44.0,1.0,0.5,0.0,4.0,4.0,313.3244079999713,2.0,1.0,phase_1,,,,,,,,,,,,,white,circle
62.0,1.0,0.5,0.0,4.0,4.0,318.2882569999492,2.0,1.0,phase_1,,,,,,,,,,,,,white,circle
402.0,4.0,4.0,0.0,1.0,1.0,307.9793980000431,2.0,1.0,phase_1,,,,,,,,,,,,,gray,I
404.0,8.0,4.0,1.0,2.0,2.0,300.7977889999438,2.0,1.0,phase_1,,,,,,,,,,,,,cyan,flipped triangle
221.0,3.0,2.0,0.0,3.0,3.0,313.3958219998476,2.0,1.0,phase_1,,,,,,,,,,,,,magenta,triangle
44.0,1.0,0.5,0.0,4.0,4.0,376.1819009998817,2.0,1.0,phase_1,,,,,,,,,,,,,white,circle
419.0,4.0,4.0,0.0,4.0,4.0,419.98687299997067,2.0,1.0,phase_1,,,,,,,,,,,,,gray,I
212.0,3.0,2.0,0.0,2.0,2.0,345.4816950002168,2.0,1.0,phase_1,,,,,,,,,,,,,magenta,triangle
66.0,5.0,0.5,1.0,2.0,2.0,307.7613360001123,2.0,1.0,phase_1,,,,,,,,,,,,,blue,cross
50.0,1.0,0.5,0.0,2.0,2.0,336.8449560000499,2.0,1.0,phase_1,,,,,,,,,,,,,white,circle
176.0,7.0,2.0,1.0,4.0,4.0,321.530249000034,2.0,1.0,phase_1,,,,,,,,,,,,,green,diamond
82.0,2.0,1.0,0.0,4.0,4.0,339.1089340000235,2.0,1.0,phase_1,,,,,,,,,,,,,orange,hexagon
392.0,8.0,4.0,1.0,2.0,2.0,327.8397209999184,2.0,1.0,phase_1,,,,,,,,,,,,,cyan,flipped triangle
59.0,5.0,0.5,1.0,4.0,4.0,284.8406190000787,2.0,1.0,phase_1,,,,,,,,,,,,,blue,cross
193.0,7.0,2.0,1.0,2.0,2.0,366.379507999909,2.0,1.0,phase_1,,,,,,,,,,,,,green,diamond
187.0,3.0,2.0,0.0,1.0,1.0,364.0257080000992,2.0,1.0,phase_1,,,,,,,,,,,,,magenta,triangle
29.0,5.0,0.5,1.0,3.0,3.0,305.4249959998287,2.0,1.0,phase_1,,,,,,,,,,,,,blue,cross
46.0,5.0,0.5,1.0,4.0,4.0,384.2836129999796,2.0,1.0,phase_1,,,,,,,,,,,,,blue,cross
222.0,7.0,2.0,1.0,3.0,3.0,328.8624460001301,2.0,1.0,phase_1,,,,,,,,,,,,,green,diamond
0.0,2.0,0.0,0.0,2.0,2.0,323.8413309998122,2.0,1.0,phase_1,,,,,,,,,,,,,orange,hexagon
0.0,4.0,0.0,0.0,4.0,4.0,318.8777689999824,2.0,1.0,phase_1,,,,,,,,,,,,,gray,I
0.0,7.0,0.0,1.0,3.0,3.0,371.7529939999622,2.0,1.0,phase_1,,,,,,,,,,,,,green,diamond
419.0,4.0,4.0,0.0,4.0,4.0,340.4902990000664,2.0,1.0,phase_1,,,,,,,,,,,,,gray,I
43.0,5.0,0.5,1.0,2.0,2.0,488.2535950000601,2.0,1.0,phase_1,,,,,,,,,,,,,blue,cross
0.0,1.0,0.0,0.0,2.0,2.0,329.4813770000928,2.0,1.0,phase_1,,,,,,,,,,,,,white,circle
119.0,6.0,1.0,1.0,3.0,3.0,380.6589060000078,2.0,1.0,phase_1,,,,,,,,,,,,,yellow,square
225.0,3.0,2.0,0.0,4.0,4.0,414.0451030000349,2.0,1.0,phase_1,,,,,,,,,,,,,magenta,triangle
73.0,5.0,0.5,1.0,1.0,1.0,827.0552100000259,2.0,1.0,phase_1,,,,,,,,,,,,,blue,cross
382.0,4.0,4.0,0.0,3.0,3.0,329.4339609999497,2.0,1.0,phase_1,,,,,,,,,,,,,gray,I
381.0,4.0,4.0,0.0,1.0,1.0,378.9625450001495,2.0,1.0,phase_1,,,,,,,,,,,,,gray,I
101.0,2.0,1.0,0.0,2.0,2.0,298.3170600000449,2.0,1.0,phase_1,,,,,,,,,,,,,orange,hexagon
0.0,8.0,0.0,1.0,3.0,3.0,312.0053689999622,2.0,1.0,phase_1,,,,,,,,,,,,,cyan,flipped triangle
0.0,1.0,0.0,0.0,4.0,4.0,305.1778599999579,2.0,1.0,phase_1,,,,,,,,,,,,,white,circle
44.0,5.0,0.5,1.0,4.0,4.0,390.9027380000225,2.0,1.0,phase_1,,,,,,,,,,,,,blue,cross
87.0,6.0,1.0,1.0,3.0,3.0,297.7800640001078,2.0,1.0,phase_1,,,,,,,,,,,,,yellow,square
419.0,8.0,4.0,1.0,3.0,3.0,344.4199799998841,2.0,1.0,phase_1,,,,,,,,,,,,,cyan,flipped triangle
404.0,4.0,4.0,0.0,4.0,4.0,323.6787959999674,2.0,1.0,phase_1,,,,,,,,,,,,,gray,I
381.0,8.0,4.0,1.0,2.0,2.0,337.3004779998609,2.0,1.0,phase_1,,,,,,,,,,,,,cyan,flipped triangle
122.0,6.0,1.0,1.0,1.0,1.0,337.9910579999432,2.0,1.0,phase_1,,,,,,,,,,,,,yellow,square
101.0,6.0,1.0,1.0,2.0,2.0,344.5918770000844,2.0,1.0,phase_1,,,,,,,,,,,,,yellow,square
405.0,8.0,4.0,1.0,3.0,3.0,360.9104290001141,2.0,1.0,phase_1,,,,,,,,,,,,,cyan,flipped triangle
0.0,2.0,0.0,0.0,1.0,1.0,301.7148120000001,2.0,1.0,phase_1,,,,,,,,,,,,,orange,hexagon
116.0,6.0,1.0,1.0,1.0,1.0,358.4527650000382,2.0,1.0,phase_1,,,,,,,,,,,,,yellow,square
216.0,3.0,2.0,0.0,3.0,3.0,308.4784150000814,2.0,1.0,phase_1,,,,,,,,,,,,,magenta,triangle
0.0,3.0,0.0,0.0,4.0,4.0,461.8097590000616,2.0,1.0,phase_1,,,,,,,,,,,,,magenta,triangle
199.0,3.0,2.0,0.0,1.0,1.0,353.8849820001815,2.0,1.0,phase_1,,,,,,,,,,,,,magenta,triangle
196.0,3.0,2.0,0.0,2.0,2.0,443.2131039998239,2.0,1.0,phase_1,,,,,,,,,,,,,magenta,triangle
209.0,3.0,2.0,0.0,3.0,3.0,311.1538829998608,2.0,1.0,phase_1,,,,,,,,,,,,,magenta,triangle
0.0,1.0,0.0,0.0,1.0,1.0,353.0799919999481,2.0,1.0,phase_1,,,,,,,,,,,,,white,circle
29.0,1.0,0.5,0.0,3.0,3.0,293.6925300000439,2.0,1.0,phase_1,,,,,,,,,,,,,white,circle
51.0,5.0,0.5,1.0,3.0,3.0,358.2889490003254,2.0,1.0,phase_1,,,,,,,,,,,,,blue,cross
185.0,3.0,2.0,0.0,2.0,2.0,264.2034790001162,2.0,1.0,phase_1,,,,,,,,,,,,,magenta,triangle
30.0,5.0,0.5,1.0,3.0,3.0,314.0070809999997,2.0,1.0,phase_1,,,,,,,,,,,,,blue,cross
404.0,4.0,4.0,0.0,3.0,3.0,371.2099430003945,2.0,1.0,phase_1,,,,,,,,,,,,,gray,I
113.0,2.0,1.0,0.0,3.0,3.0,364.1645420002533,2.0,1.0,phase_1,,,,,,,,,,,,,orange,hexagon
185.0,3.0,2.0,0.0,1.0,1.0,267.7311750003355,2.0,1.0,phase_1,,,,,,,,,,,,,magenta,triangle
176.0,3.0,2.0,0.0,4.0,4.0,323.131070999807,2.0,1.0,phase_1,,,,,,,,,,,,,magenta,triangle
39.0,1.0,0.5,0.0,3.0,3.0,311.7747870001039,2.0,1.0,phase_1,,,,,,,,,,,,,white,circle
118.0,6.0,1.0,1.0,3.0,3.0,319.9024959999406,2.0,1.0,phase_1,,,,,,,,,,,,,yellow,square
53.0,1.0,0.5,0.0,4.0,4.0,334.6725940000397,2.0,1.0,phase_1,,,,,,,,,,,,,white,circle
28.0,5.0,0.5,1.0,2.0,2.0,333.6599229996864,2.0,1.0,phase_1,,,,,,,,,,,,,blue,cross
405.0,4.0,4.0,0.0,3.0,3.0,323.4777640000175,2.0,1.0,phase_1,,,,,,,,,,,,,gray,I
52.0,1.0,0.5,0.0,1.0,1.0,342.7314900000056,2.0,1.0,phase_1,,,,,,,,,,,,,white,circle
379.0,4.0,4.0,0.0,4.0,4.0,347.327581999707,2.0,1.0,phase_1,,,,,,,,,,,,,gray,I
113.0,6.0,1.0,1.0,4.0,4.0,353.3861379996779,2.0,1.0,phase_1,,,,,,,,,,,,,yellow,square
388.0,4.0,4.0,0.0,4.0,4.0,553.2372210000176,2.0,1.0,phase_1,,,,,,,,,,,,,gray,I
68.0,1.0,0.5,0.0,2.0,2.0,353.3481610002127,2.0,1.0,phase_1,,,,,,,,,,,,,white,circle
88.0,6.0,1.0,1.0,4.0,4.0,294.9688559997412,2.0,1.0,phase_1,,,,,,,,,,,,,yellow,square
82.0,6.0,1.0,1.0,4.0,4.0,318.7345070000447,2.0,1.0,phase_1,,,,,,,,,,,,,yellow,square
187.0,3.0,2.0,0.0,1.0,1.0,281.7658710000614,2.0,1.0,phase_1,,,,,,,,,,,,,magenta,triangle
76.0,6.0,1.0,1.0,1.0,1.0,324.32689999996,2.0,1.0,phase_1,,,,,,,,,,,,,yellow,square
98.0,6.0,1.0,1.0,3.0,3.0,293.95727300016,2.0,1.0,phase_1,,,,,,,,,,,,,yellow,square
185.0,7.0,2.0,1.0,4.0,4.0,287.8235610000956,2.0,1.0,phase_1,,,,,,,,,,,,,green,diamond
77.0,2.0,1.0,0.0,4.0,4.0,345.7295799998974,2.0,1.0,phase_1,,,,,,,,,,,,,orange,hexagon
0.0,8.0,0.0,1.0,2.0,2.0,278.6187059996337,2.0,1.0,phase_1,,,,,,,,,,,,,cyan,flipped triangle
52.0,5.0,0.5,1.0,3.0,3.0,309.872656999687,2.0,1.0,phase_1,,,,,,,,,,,,,blue,cross
0.0,5.0,0.0,1.0,1.0,1.0,313.4907339999699,2.0,1.0,phase_1,,,,,,,,,,,,,blue,cross
221.0,7.0,2.0,1.0,2.0,2.0,323.9667390002978,2.0,1.0,phase_1,,,,,,,,,,,,,green,diamond
42.0,5.0,0.5,1.0,3.0,3.0,303.7286620001396,2.0,1.0,phase_1,,,,,,,,,,,,,blue,cross
34.0,5.0,0.5,1.0,3.0,3.0,338.6614279997957,2.0,1.0,phase_1,,,,,,,,,,,,,blue,cross
107.0,2.0,1.0,0.0,1.0,1.0,297.4147509999056,2.0,1.0,phase_1,,,,,,,,,,,,,orange,hexagon
120.0,6.0,1.0,1.0,4.0,4.0,304.1409540001041,2.0,1.0,phase_1,,,,,,,,,,,,,yellow,square
388.0,8.0,4.0,1.0,3.0,3.0,365.6522559999757,2.0,1.0,phase_1,,,,,,,,,,,,,cyan,flipped triangle
41.0,1.0,0.5,0.0,2.0,2.0,529.6486920001371,2.0,1.0,phase_1,,,,,,,,,,,,,white,circle
78.0,6.0,1.0,1.0,1.0,1.0,432.6264790001914,2.0,1.0,phase_1,,,,,,,,,,,,,yellow,square
216.0,7.0,2.0,1.0,3.0,3.0,308.8791310001397,2.0,1.0,phase_1,,,,,,,,,,,,,green,diamond
0.0,2.0,0.0,0.0,2.0,2.0,264.2897949999678,2.0,1.0,phase_1,,,,,,,,,,,,,orange,hexagon
0.0,8.0,0.0,1.0,4.0,4.0,289.687042999958,2.0,1.0,phase_1,,,,,,,,,,,,,cyan,flipped triangle
377.0,4.0,4.0,0.0,1.0,1.0,307.1796799999902,2.0,1.0,phase_1,,,,,,,,,,,,,gray,I
416.0,4.0,4.0,0.0,2.0,2.0,291.4192749999529,2.0,1.0,phase_1,,,,,,,,,,,,,gray,I
76.0,2.0,1.0,0.0,4.0,4.0,357.5582039998153,2.0,1.0,phase_1,,,,,,,,,,,,,orange,hexagon
0.0,1.0,0.0,0.0,3.0,3.0,314.5940250001331,2.0,1.0,phase_1,,,,,,,,,,,,,white,circle
0.0,7.0,0.0,1.0,1.0,1.0,346.6790060001585,3.0,1.0,phase_1,,,,,,,,,,,,,green,diamond
93.0,6.0,1.0,1.0,4.0,4.0,294.948003999707,3.0,1.0,phase_1,,,,,,,,,,,,,yellow,square
0.0,3.0,0.0,0.0,1.0,1.0,276.7461179996644,3.0,1.0,phase_1,,,,,,,,,,,,,magenta,triangle
178.0,7.0,2.0,1.0,1.0,1.0,281.2361199999031,3.0,1.0,phase_1,,,,,,,,,,,,,green,diamond
400.0,4.0,4.0,0.0,2.0,2.0,298.1993680000414,3.0,1.0,phase_1,,,,,,,,,,,,,gray,I
423.0,4.0,4.0,0.0,3.0,3.0,319.7156759997597,3.0,1.0,phase_1,,,,,,,,,,,,,gray,I
190.0,7.0,2.0,1.0,1.0,1.0,299.6010460001344,3.0,1.0,phase_1,,,,,,,,,,,,,green,diamond
0.0,6.0,0.0,1.0,2.0,2.0,243.9825219998965,3.0,1.0,phase_1,,,,,,,,,,,,,yellow,square
103.0,2.0,1.0,0.0,4.0,4.0,319.3538129999069,3.0,1.0,phase_1,,,,,,,,,,,,,orange,hexagon
55.0,5.0,0.5,1.0,2.0,2.0,253.1299130000661,3.0,1.0,phase_1,,,,,,,,,,,,,blue,cross
89.0,6.0,1.0,1.0,3.0,3.0,277.7472729999317,3.0,1.0,phase_1,,,,,,,,,,,,,yellow,square
70.0,5.0,0.5,1.0,4.0,4.0,362.8820949998044,3.0,1.0,phase_1,,,,,,,,,,,,,blue,cross
419.0,8.0,4.0,1.0,4.0,4.0,320.4390430000785,3.0,1.0,phase_1,,,,,,,,,,,,,cyan,flipped triangle
180.0,7.0,2.0,1.0,2.0,2.0,301.4354660003846,3.0,1.0,phase_1,,,,,,,,,,,,,green,diamond
34.0,5.0,0.5,1.0,3.0,3.0,291.0884829998394,3.0,1.0,phase_1,,,,,,,,,,,,,blue,cross
0.0,8.0,0.0,1.0,1.0,1.0,238.9737629996489,3.0,1.0,phase_1,,,,,,,,,,,,,cyan,flipped triangle
209.0,7.0,2.0,1.0,1.0,1.0,288.4253600000193,3.0,1.0,phase_1,,,,,,,,,,,,,green,diamond
187.0,3.0,2.0,0.0,2.0,2.0,308.4836510001878,3.0,1.0,phase_1,,,,,,,,,,,,,magenta,triangle
0.0,4.0,0.0,0.0,1.0,1.0,290.1142450000407,3.0,1.0,phase_1,,,,,,,,,,,,,gray,I
178.0,3.0,2.0,0.0,3.0,3.0,271.5639479997662,3.0,1.0,phase_1,,,,,,,,,,,,,magenta,triangle
48.0,5.0,0.5,1.0,2.0,2.0,267.2379599998749,3.0,1.0,phase_1,,,,,,,,,,,,,blue,cross
0.0,3.0,0.0,0.0,3.0,3.0,454.8500040000363,3.0,1.0,phase_1,,,,,,,,,,,,,magenta,triangle
419.0,4.0,4.0,0.0,3.0,3.0,495.1540629999726,3.0,1.0,phase_1,,,,,,,,,,,,,gray,I
416.0,8.0,4.0,1.0,4.0,4.0,388.2808779999323,3.0,1.0,phase_1,,,,,,,,,,,,,cyan,flipped triangle
419.0,8.0,4.0,1.0,2.0,2.0,282.5086100001499,3.0,1.0,phase_1,,,,,,,,,,,,,cyan,flipped triangle
89.0,2.0,1.0,0.0,1.0,1.0,312.6210529999298,3.0,1.0,phase_1,,,,,,,,,,,,,orange,hexagon
108.0,2.0,1.0,0.0,3.0,3.0,805.9401909999906,3.0,1.0,phase_1,,,,,,,,,,,,,orange,hexagon
0.0,3.0,0.0,0.0,4.0,4.0,365.6990819999919,3.0,1.0,phase_1,,,,,,,,,,,,,magenta,triangle
46.0,1.0,0.5,0.0,1.0,1.0,264.0695790000791,3.0,1.0,phase_1,,,,,,,,,,,,,white,circle
205.0,7.0,2.0,1.0,4.0,4.0,336.5241719998266,3.0,1.0,phase_1,,,,,,,,,,,,,green,diamond
382.0,8.0,4.0,1.0,1.0,1.0,279.4784290003917,3.0,1.0,phase_1,,,,,,,,,,,,,cyan,flipped triangle
120.0,2.0,1.0,0.0,2.0,2.0,283.7022230000912,3.0,1.0,phase_1,,,,,,,,,,,,,orange,hexagon
381.0,8.0,4.0,1.0,3.0,3.0,318.0731279999236,3.0,1.0,phase_1,,,,,,,,,,,,,cyan,flipped triangle
179.0,7.0,2.0,1.0,2.0,2.0,451.71894600025547,3.0,1.0,phase_1,,,,,,,,,,,,,green,diamond
0.0,3.0,0.0,0.0,4.0,4.0,266.2020329998995,3.0,1.0,phase_1,,,,,,,,,,,,,magenta,triangle
203.0,7.0,2.0,1.0,3.0,3.0,326.399863000006,3.0,1.0,phase_1,,,,,,,,,,,,,green,diamond
83.0,2.0,1.0,0.0,3.0,3.0,335.0707290001082,3.0,1.0,phase_1,,,,,,,,,,,,,orange,hexagon
386.0,8.0,4.0,1.0,1.0,1.0,341.6518629996972,3.0,1.0,phase_1,,,,,,,,,,,,,cyan,flipped triangle
404.0,4.0,4.0,0.0,4.0,4.0,336.5685180001492,3.0,1.0,phase_1,,,,,,,,,,,,,gray,I
38.0,5.0,0.5,1.0,2.0,2.0,300.238392999745,3.0,1.0,phase_1,,,,,,,,,,,,,blue,cross
76.0,2.0,1.0,0.0,3.0,3.0,356.5100109999548,3.0,1.0,phase_1,,,,,,,,,,,,,orange,hexagon
390.0,4.0,4.0,0.0,4.0,4.0,294.6268750001763,3.0,1.0,phase_1,,,,,,,,,,,,,gray,I
0.0,7.0,0.0,1.0,3.0,3.0,344.3762279998736,3.0,1.0,phase_1,,,,,,,,,,,,,green,diamond
212.0,7.0,2.0,1.0,1.0,1.0,299.4396149997556,3.0,1.0,phase_1,,,,,,,,,,,,,green,diamond
69.0,1.0,0.5,0.0,3.0,3.0,260.0776879999102,3.0,1.0,phase_1,,,,,,,,,,,,,white,circle
78.0,2.0,1.0,0.0,1.0,1.0,289.7256969999944,3.0,1.0,phase_1,,,,,,,,,,,,,orange,hexagon
65.0,5.0,0.5,1.0,1.0,1.0,287.2061140001278,3.0,1.0,phase_1,,,,,,,,,,,,,blue,cross
387.0,4.0,4.0,0.0,3.0,3.0,353.8584670000091,3.0,1.0,phase_1,,,,,,,,,,,,,gray,I
86.0,2.0,1.0,0.0,3.0,3.0,335.9139260001029,3.0,1.0,phase_1,,,,,,,,,,,,,orange,hexagon
118.0,2.0,1.0,0.0,2.0,2.0,421.9274779998159,3.0,1.0,phase_1,,,,,,,,,,,,,orange,hexagon
0.0,6.0,0.0,1.0,1.0,1.0,330.6962990000102,3.0,1.0,phase_1,,,,,,,,,,,,,yellow,square
203.0,3.0,2.0,0.0,3.0,3.0,296.2756560000343,3.0,1.0,phase_1,,,,,,,,,,,,,magenta,triangle
0.0,5.0,0.0,1.0,4.0,4.0,369.0343660000508,3.0,1.0,phase_1,,,,,,,,,,,,,blue,cross
83.0,6.0,1.0,1.0,4.0,4.0,385.1479949998975,3.0,1.0,phase_1,,,,,,,,,,,,,yellow,square
122.0,2.0,1.0,0.0,1.0,1.0,265.8817500000623,3.0,1.0,phase_1,,,,,,,,,,,,,orange,hexagon
76.0,6.0,1.0,1.0,1.0,1.0,314.5646820003094,3.0,1.0,phase_1,,,,,,,,,,,,,yellow,square
221.0,7.0,2.0,1.0,3.0,3.0,312.0998129998042,3.0,1.0,phase_1,,,,,,,,,,,,,green,diamond
405.0,4.0,4.0,0.0,2.0,2.0,348.3633060000102,3.0,1.0,phase_1,,,,,,,,,,,,,gray,I
225.0,3.0,2.0,0.0,3.0,3.0,353.8481229998069,3.0,1.0,phase_1,,,,,,,,,,,,,magenta,triangle
119.0,2.0,1.0,0.0,3.0,3.0,324.452833000123,3.0,1.0,phase_1,,,,,,,,,,,,,orange,hexagon
54.0,5.0,0.5,1.0,4.0,4.0,414.5774100002199,3.0,1.0,phase_1,,,,,,,,,,,,,blue,cross
199.0,7.0,2.0,1.0,1.0,1.0,516.8128730001627,3.0,1.0,phase_1,,,,,,,,,,,,,green,diamond
0.0,2.0,0.0,0.0,1.0,1.0,334.1698029998952,3.0,1.0,phase_1,,,,,,,,,,,,,orange,hexagon
0.0,6.0,0.0,1.0,4.0,4.0,271.1432380001497,3.0,1.0,phase_1,,,,,,,,,,,,,yellow,square
0.0,3.0,0.0,0.0,4.0,4.0,334.7574280001026,3.0,1.0,phase_1,,,,,,,,,,,,,magenta,triangle
413.0,8.0,4.0,1.0,4.0,4.0,328.7508110001909,3.0,1.0,phase_1,,,,,,,,,,,,,cyan,flipped triangle
389.0,4.0,4.0,0.0,3.0,3.0,341.5487150000444,3.0,1.0,phase_1,,,,,,,,,,,,,gray,I
194.0,3.0,2.0,0.0,1.0,1.0,276.5163300000495,3.0,1.0,phase_1,,,,,,,,,,,,,magenta,triangle
0.0,3.0,0.0,0.0,4.0,4.0,278.4593680003127,3.0,1.0,phase_1,,,,,,,,,,,,,magenta,triangle
59.0,1.0,0.5,0.0,3.0,3.0,345.5026430001453,3.0,1.0,phase_1,,,,,,,,,,,,,white,circle
83.0,2.0,1.0,0.0,1.0,1.0,289.9355590002415,3.0,1.0,phase_1,,,,,,,,,,,,,orange,hexagon
87.0,6.0,1.0,1.0,3.0,3.0,319.1591350000635,3.0,1.0,phase_1,,,,,,,,,,,,,yellow,square
0.0,3.0,0.0,0.0,3.0,3.0,287.1612650001225,3.0,1.0,phase_1,,,,,,,,,,,,,magenta,triangle
211.0,3.0,2.0,0.0,4.0,4.0,299.4892199999412,3.0,2.0,phase_1,,,,,,,,,,,,,magenta,triangle
0.0,5.0,0.0,1.0,1.0,1.0,321.6811239999515,3.0,1.0,phase_1,,,,,,,,,,,,,blue,cross
95.0,2.0,1.0,0.0,1.0,1.0,391.6353590002472,3.0,1.0,phase_1,,,,,,,,,,,,,orange,hexagon
0.0,8.0,0.0,1.0,4.0,4.0,274.4338689999495,3.0,1.0,phase_1,,,,,,,,,,,,,cyan,flipped triangle
0.0,2.0,0.0,0.0,2.0,2.0,267.7272330001869,3.0,1.0,phase_1,,,,,,,,,,,,,orange,hexagon
38.0,1.0,0.5,0.0,4.0,4.0,246.2276189999102,3.0,1.0,phase_1,,,,,,,,,,,,,white,circle
377.0,4.0,4.0,0.0,1.0,1.0,488.2999369997378,3.0,1.0,phase_1,,,,,,,,,,,,,gray,I
44.0,5.0,0.5,1.0,4.0,4.0,420.6654439999511,3.0,1.0,phase_1,,,,,,,,,,,,,blue,cross
62.0,5.0,0.5,1.0,3.0,3.0,367.4625940002443,3.0,1.0,phase_1,,,,,,,,,,,,,blue,cross
39.0,5.0,0.5,1.0,2.0,2.0,351.778295999793,3.0,1.0,phase_1,,,,,,,,,,,,,blue,cross
400.0,8.0,4.0,1.0,3.0,3.0,403.3023309998498,3.0,1.0,phase_1,,,,,,,,,,,,,cyan,flipped triangle
51.0,1.0,0.5,0.0,1.0,1.0,326.6479429998981,3.0,1.0,phase_1,,,,,,,,,,,,,white,circle
0.0,7.0,0.0,1.0,2.0,2.0,325.5261890003567,3.0,1.0,phase_1,,,,,,,,,,,,,green,diamond
424.0,4.0,4.0,0.0,3.0,3.0,323.7529839998387,3.0,1.0,phase_1,,,,,,,,,,,,,gray,I
191.0,3.0,2.0,0.0,3.0,3.0,318.8405669998246,3.0,1.0,phase_1,,,,,,,,,,,,,magenta,triangle
185.0,7.0,2.0,1.0,4.0,4.0,308.8000799998553,3.0,1.0,phase_1,,,,,,,,,,,,,green,diamond
399.0,4.0,4.0,0.0,4.0,4.0,444.2109889996573,3.0,1.0,phase_1,,,,,,,,,,,,,gray,I
424.0,4.0,4.0,0.0,1.0,1.0,328.3489870000267,3.0,1.0,phase_1,,,,,,,,,,,,,gray,I
0.0,1.0,0.0,0.0,2.0,2.0,345.9348679998584,3.0,1.0,phase_1,,,,,,,,,,,,,white,circle
216.0,7.0,2.0,1.0,1.0,1.0,382.952325000133,3.0,1.0,phase_1,,,,,,,,,,,,,green,diamond
73.0,1.0,0.5,0.0,2.0,2.0,440.7309430002897,3.0,1.0,phase_1,,,,,,,,,,,,,white,circle
34.0,1.0,0.5,0.0,1.0,1.0,342.0755420002024,3.0,1.0,phase_1,,,,,,,,,,,,,white,circle
195.0,7.0,2.0,1.0,2.0,2.0,325.9491389999311,3.0,1.0,phase_1,,,,,,,,,,,,,green,diamond
190.0,3.0,2.0,0.0,4.0,4.0,372.5843080001141,3.0,1.0,phase_1,,,,,,,,,,,,,magenta,triangle
397.0,8.0,4.0,1.0,3.0,3.0,319.47462800008,3.0,1.0,phase_1,,,,,,,,,,,,,cyan,flipped triangle
178.0,3.0,2.0,0.0,1.0,1.0,325.2779680001367,3.0,1.0,phase_1,,,,,,,,,,,,,magenta,triangle
197.0,7.0,2.0,1.0,3.0,3.0,378.6637010002778,3.0,1.0,phase_1,,,,,,,,,,,,,green,diamond
0.0,2.0,0.0,0.0,4.0,4.0,407.9648940000879,4.0,1.0,phase_1,,,,,,,,,,,,,orange,hexagon
103.0,6.0,1.0,1.0,2.0,2.0,297.7277290001439,4.0,1.0,phase_1,,,,,,,,,,,,,yellow,square
0.0,6.0,0.0,1.0,1.0,1.0,327.8282749997743,4.0,1.0,phase_1,,,,,,,,,,,,,yellow,square
387.0,8.0,4.0,1.0,2.0,2.0,321.3674829999036,4.0,1.0,phase_1,,,,,,,,,,,,,cyan,flipped triangle
0.0,5.0,0.0,1.0,3.0,3.0,340.7797489999211,4.0,1.0,phase_1,,,,,,,,,,,,,blue,cross
193.0,3.0,2.0,0.0,4.0,4.0,319.8342549999324,4.0,1.0,phase_1,,,,,,,,,,,,,magenta,triangle
122.0,2.0,1.0,0.0,1.0,1.0,335.3196230000321,4.0,1.0,phase_1,,,,,,,,,,,,,orange,hexagon
0.0,5.0,0.0,1.0,3.0,3.0,336.4925060000132,4.0,1.0,phase_1,,,,,,,,,,,,,blue,cross
100.0,6.0,1.0,1.0,3.0,3.0,357.210925000345,4.0,1.0,phase_1,,,,,,,,,,,,,yellow,square
50.0,5.0,0.5,1.0,1.0,1.0,295.3345559999434,4.0,1.0,phase_1,,,,,,,,,,,,,blue,cross
222.0,7.0,2.0,1.0,2.0,2.0,363.1691629998386,4.0,1.0,phase_1,,,,,,,,,,,,,green,diamond
0.0,4.0,0.0,0.0,4.0,4.0,484.6680840000772,4.0,1.0,phase_1,,,,,,,,,,,,,gray,I
60.0,5.0,0.5,1.0,2.0,2.0,331.1539139999695,4.0,1.0,phase_1,,,,,,,,,,,,,blue,cross
0.0,7.0,0.0,1.0,1.0,1.0,322.7960950002853,4.0,1.0,phase_1,,,,,,,,,,,,,green,diamond
66.0,1.0,0.5,0.0,2.0,2.0,336.2822750000305,4.0,1.0,phase_1,,,,,,,,,,,,,white,circle
0.0,1.0,0.0,0.0,1.0,1.0,299.0949210002327,4.0,1.0,phase_1,,,,,,,,,,,,,white,circle
0.0,8.0,0.0,1.0,4.0,4.0,309.7815910000463,4.0,1.0,phase_1,,,,,,,,,,,,,cyan,flipped triangle
0.0,7.0,0.0,1.0,1.0,1.0,361.2590259999706,4.0,1.0,phase_1,,,,,,,,,,,,,green,diamond
34.0,5.0,0.5,1.0,1.0,1.0,354.9391990000003,4.0,1.0,phase_1,,,,,,,,,,,,,blue,cross
187.0,3.0,2.0,0.0,3.0,3.0,372.52902299997,4.0,1.0,phase_1,,,,,,,,,,,,,magenta,triangle
222.0,3.0,2.0,0.0,2.0,2.0,326.8745360001048,4.0,1.0,phase_1,,,,,,,,,,,,,magenta,triangle
111.0,2.0,1.0,0.0,1.0,1.0,314.2227829998774,4.0,1.0,phase_1,,,,,,,,,,,,,orange,hexagon
397.0,4.0,4.0,0.0,2.0,2.0,397.1833740001784,4.0,1.0,phase_1,,,,,,,,,,,,,gray,I
70.0,1.0,0.5,0.0,4.0,4.0,357.3410239996519,4.0,1.0,phase_1,,,,,,,,,,,,,white,circle
0.0,4.0,0.0,0.0,4.0,4.0,376.2443249997886,4.0,1.0,phase_1,,,,,,,,,,,,,gray,I
0.0,7.0,0.0,1.0,3.0,3.0,378.1406779999088,4.0,1.0,phase_1,,,,,,,,,,,,,green,diamond
53.0,5.0,0.5,1.0,1.0,1.0,320.7820729999184,4.0,1.0,phase_1,,,,,,,,,,,,,blue,cross
0.0,5.0,0.0,1.0,3.0,3.0,464.9064899999757,4.0,1.0,phase_1,,,,,,,,,,,,,blue,cross
399.0,8.0,4.0,1.0,4.0,4.0,423.6098279998259,4.0,1.0,phase_1,,,,,,,,,,,,,cyan,flipped triangle
98.0,2.0,1.0,0.0,2.0,2.0,353.6690129999442,4.0,1.0,phase_1,,,,,,,,,,,,,orange,hexagon
59.0,5.0,0.5,1.0,2.0,2.0,382.8578560001006,4.0,1.0,phase_1,,,,,,,,,,,,,blue,cross
206.0,3.0,2.0,0.0,4.0,4.0,304.0139270001418,4.0,1.0,phase_1,,,,,,,,,,,,,magenta,triangle
93.0,2.0,1.0,0.0,4.0,4.0,487.4442579998685,4.0,1.0,phase_1,,,,,,,,,,,,,orange,hexagon
59.0,1.0,0.5,0.0,3.0,3.0,676.9387600002119,4.0,1.0,phase_1,,,,,,,,,,,,,white,circle
178.0,7.0,2.0,1.0,4.0,4.0,637.2259800000393,4.0,1.0,phase_1,,,,,,,,,,,,,green,diamond
111.0,6.0,1.0,1.0,2.0,2.0,303.8815650002107,4.0,1.0,phase_1,,,,,,,,,,,,,yellow,square
379.0,4.0,4.0,0.0,2.0,2.0,309.4969550002133,4.0,1.0,phase_1,,,,,,,,,,,,,gray,I
409.0,8.0,4.0,1.0,1.0,1.0,322.4550519998956,4.0,1.0,phase_1,,,,,,,,,,,,,cyan,flipped triangle
27.0,5.0,0.5,1.0,2.0,2.0,320.1874760002283,4.0,1.0,phase_1,,,,,,,,,,,,,blue,cross
423.0,8.0,4.0,1.0,4.0,4.0,337.7667380000275,4.0,1.0,phase_1,,,,,,,,,,,,,cyan,flipped triangle
419.0,8.0,4.0,1.0,2.0,2.0,307.018065000193,4.0,1.0,phase_1,,,,,,,,,,,,,cyan,flipped triangle
91.0,6.0,1.0,1.0,3.0,3.0,358.4881729998415,4.0,1.0,phase_1,,,,,,,,,,,,,yellow,square
100.0,2.0,1.0,0.0,4.0,4.0,349.6352120000665,4.0,1.0,phase_1,,,,,,,,,,,,,orange,hexagon
0.0,2.0,0.0,0.0,1.0,1.0,494.0148919999956,4.0,1.0,phase_1,,,,,,,,,,,,,orange,hexagon
34.0,1.0,0.5,0.0,4.0,4.0,372.3718479996023,4.0,1.0,phase_1,,,,,,,,,,,,,white,circle
0.0,5.0,0.0,1.0,1.0,1.0,261.2308039997515,4.0,1.0,phase_1,,,,,,,,,,,,,blue,cross
0.0,5.0,0.0,1.0,2.0,2.0,279.2806069996913,4.0,1.0,phase_1,,,,,,,,,,,,,blue,cross
225.0,7.0,2.0,1.0,4.0,4.0,318.4007680001741,4.0,1.0,phase_1,,,,,,,,,,,,,green,diamond
0.0,7.0,0.0,1.0,3.0,3.0,308.5761940001248,4.0,1.0,phase_1,,,,,,,,,,,,,green,diamond
183.0,7.0,2.0,1.0,2.0,2.0,313.3804899998722,4.0,1.0,phase_1,,,,,,,,,,,,,green,diamond
64.0,1.0,0.5,0.0,1.0,1.0,300.1403099997333,4.0,1.0,phase_1,,,,,,,,,,,,,white,circle
390.0,4.0,4.0,0.0,2.0,2.0,298.7101870003243,4.0,1.0,phase_1,,,,,,,,,,,,,gray,I
217.0,3.0,2.0,0.0,1.0,1.0,302.0492670002568,4.0,1.0,phase_1,,,,,,,,,,,,,magenta,triangle
44.0,1.0,0.5,0.0,3.0,3.0,348.6515280001185,4.0,1.0,phase_1,,,,,,,,,,,,,white,circle
0.0,6.0,0.0,1.0,2.0,2.0,305.1222999997662,4.0,1.0,phase_1,,,,,,,,,,,,,yellow,square
89.0,2.0,1.0,0.0,3.0,3.0,301.9071149997216,4.0,1.0,phase_1,,,,,,,,,,,,,orange,hexagon
392.0,4.0,4.0,0.0,1.0,1.0,311.5105679999033,4.0,1.0,phase_1,,,,,,,,,,,,,gray,I
194.0,7.0,2.0,1.0,3.0,3.0,290.2717239999219,4.0,1.0,phase_1,,,,,,,,,,,,,green,diamond
64.0,5.0,0.5,1.0,4.0,4.0,338.8384820000283,4.0,1.0,phase_1,,,,,,,,,,,,,blue,cross
0.0,1.0,0.0,0.0,4.0,4.0,424.3867670002146,4.0,1.0,phase_1,,,,,,,,,,,,,white,circle
381.0,4.0,4.0,0.0,2.0,2.0,327.6720259996182,4.0,1.0,phase_1,,,,,,,,,,,,,gray,I
27.0,1.0,0.5,0.0,1.0,1.0,461.4267130000371,4.0,1.0,phase_1,,,,,,,,,,,,,white,circle
196.0,7.0,2.0,1.0,3.0,3.0,479.7609470001589,4.0,1.0,phase_1,,,,,,,,,,,,,green,diamond
0.0,6.0,0.0,1.0,4.0,4.0,432.0847569997568,4.0,1.0,phase_1,,,,,,,,,,,,,yellow,square
103.0,6.0,1.0,1.0,3.0,3.0,335.6815100000858,4.0,1.0,phase_1,,,,,,,,,,,,,yellow,square
379.0,8.0,4.0,1.0,3.0,3.0,352.862506999827,4.0,1.0,phase_1,,,,,,,,,,,,,cyan,flipped triangle
0.0,2.0,0.0,0.0,2.0,2.0,337.965768000231,4.0,1.0,phase_1,,,,,,,,,,,,,orange,hexagon
221.0,7.0,2.0,1.0,4.0,4.0,364.9297869997099,4.0,1.0,phase_1,,,,,,,,,,,,,green,diamond
419.0,4.0,4.0,0.0,2.0,2.0,385.7836770002905,4.0,1.0,phase_1,,,,,,,,,,,,,gray,I
58.0,1.0,0.5,0.0,2.0,2.0,367.5547449997793,4.0,1.0,phase_1,,,,,,,,,,,,,white,circle
0.0,8.0,0.0,1.0,1.0,1.0,317.0956149997437,4.0,1.0,phase_1,,,,,,,,,,,,,cyan,flipped triangle
183.0,3.0,2.0,0.0,2.0,2.0,333.8407709998137,4.0,1.0,phase_1,,,,,,,,,,,,,magenta,triangle
86.0,6.0,1.0,1.0,1.0,1.0,310.8188009996411,4.0,1.0,phase_1,,,,,,,,,,,,,yellow,square
51.0,1.0,0.5,0.0,2.0,2.0,334.5610320002379,4.0,1.0,phase_1,,,,,,,,,,,,,white,circle
122.0,6.0,1.0,1.0,2.0,2.0,329.9040910001167,4.0,1.0,phase_1,,,,,,,,,,,,,yellow,square
411.0,4.0,4.0,0.0,4.0,4.0,314.1980749996946,4.0,1.0,phase_1,,,,,,,,,,,,,gray,I
0.0,4.0,0.0,0.0,2.0,2.0,319.3687459997818,4.0,1.0,phase_1,,,,,,,,,,,,,gray,I
96.0,6.0,1.0,1.0,1.0,1.0,278.3742719998372,4.0,1.0,phase_1,,,,,,,,,,,,,yellow,square
107.0,6.0,1.0,1.0,2.0,2.0,298.722165000072,4.0,1.0,phase_1,,,,,,,,,,,,,yellow,square
69.0,5.0,0.5,1.0,3.0,3.0,326.6692819997843,4.0,1.0,phase_1,,,,,,,,,,,,,blue,cross
217.0,7.0,2.0,1.0,2.0,2.0,236.5721510000185,4.0,1.0,phase_1,,,,,,,,,,,,,green,diamond
101.0,2.0,1.0,0.0,2.0,2.0,326.2350659997537,4.0,1.0,phase_1,,,,,,,,,,,,,orange,hexagon
389.0,8.0,4.0,1.0,3.0,3.0,279.8963499999445,4.0,1.0,phase_1,,,,,,,,,,,,,cyan,flipped triangle
63.0,5.0,0.5,1.0,4.0,4.0,382.5716310002462,4.0,1.0,phase_1,,,,,,,,,,,,,blue,cross
124.0,6.0,1.0,1.0,4.0,4.0,475.2907749998485,4.0,1.0,phase_1,,,,,,,,,,,,,yellow,square
88.0,2.0,1.0,0.0,2.0,2.0,291.4963959997294,4.0,1.0,phase_1,,,,,,,,,,,,,orange,hexagon
0.0,7.0,0.0,1.0,2.0,2.0,269.8974149998321,4.0,1.0,phase_1,,,,,,,,,,,,,green,diamond
58.0,5.0,0.5,1.0,4.0,4.0,348.1035840000004,4.0,1.0,phase_1,,,,,,,,,,,,,blue,cross
424.0,8.0,4.0,1.0,1.0,1.0,399.0757249998751,4.0,1.0,phase_1,,,,,,,,,,,,,cyan,flipped triangle
413.0,4.0,4.0,0.0,1.0,1.0,366.0078349998912,4.0,1.0,phase_1,,,,,,,,,,,,,gray,I
115.0,2.0,1.0,0.0,4.0,4.0,325.1798790001885,4.0,1.0,phase_1,,,,,,,,,,,,,orange,hexagon
404.0,8.0,4.0,1.0,4.0,4.0,395.3980589999446,4.0,1.0,phase_1,,,,,,,,,,,,,cyan,flipped triangle
409.0,4.0,4.0,0.0,2.0,2.0,329.9839689998407,4.0,1.0,phase_1,,,,,,,,,,,,,gray,I
0.0,2.0,0.0,0.0,4.0,4.0,357.3694809997505,4.0,1.0,phase_1,,,,,,,,,,,,,orange,hexagon
392.0,4.0,4.0,0.0,3.0,3.0,386.2564539999766,4.0,1.0,phase_1,,,,,,,,,,,,,gray,I
402.0,8.0,4.0,1.0,2.0,2.0,429.3247390000942,4.0,1.0,phase_1,,,,,,,,,,,,,cyan,flipped triangle
0.0,6.0,0.0,1.0,4.0,4.0,316.0161870000593,4.0,1.0,phase_1,,,,,,,,,,,,,yellow,square
0.0,8.0,0.0,1.0,2.0,2.0,305.4640539999127,4.0,1.0,phase_1,,,,,,,,,,,,,cyan,flipped triangle
221.0,3.0,2.0,0.0,2.0,2.0,371.0438149996662,4.0,1.0,phase_1,,,,,,,,,,,,,magenta,triangle
96.0,2.0,1.0,0.0,3.0,3.0,450.754513999982,4.0,1.0,phase_1,,,,,,,,,,,,,orange,hexagon
0.0,6.0,1.0,1.0,5.0,5.0,423.9752819999012,1.0,1.0,phase_2,stop,250.0,250.0,3.0,,,,,,,,,yellow,square
0.0,4.0,4.0,0.0,5.0,5.0,425.0109919998976,1.0,1.0,phase_2,go,200.0,250.0,1.0,,,,,,,,,gray,I
0.0,5.0,0.5,1.0,5.0,5.0,460.8586329995887,1.0,1.0,phase_2,go,200.0,250.0,1.0,,,,,,,,,blue,cross
0.0,4.0,4.0,0.0,6.0,6.0,539.147764000063,1.0,1.0,phase_2,go,200.0,250.0,1.0,,,,,,,,,gray,I
0.0,2.0,1.0,0.0,6.0,6.0,538.6697030003234,1.0,1.0,phase_2,go,200.0,250.0,1.0,,,,,,,,,orange,hexagon
0.0,6.0,1.0,1.0,6.0,0.0,0.0,1.0,1.0,phase_2,stop,200.0,250.0,4.0,,,,,,,,,yellow,square
0.0,5.0,0.5,1.0,5.0,5.0,334.3664529998023,1.0,1.0,phase_2,stop,200.0,300.0,3.0,,,,,,,,,blue,cross
0.0,7.0,2.0,1.0,5.0,0.0,0.0,1.0,1.0,phase_2,stop,150.0,300.0,4.0,,,,,,,,,green,diamond
0.0,2.0,1.0,0.0,5.0,5.0,445.5136999999922,1.0,1.0,phase_2,go,200.0,300.0,1.0,,,,,,,,,orange,hexagon
0.0,6.0,1.0,1.0,5.0,0.0,0.0,1.0,1.0,phase_2,stop,200.0,300.0,4.0,,,,,,,,,yellow,square
0.0,7.0,2.0,1.0,5.0,0.0,0.0,1.0,1.0,phase_2,stop,250.0,300.0,4.0,,,,,,,,,green,diamond
0.0,2.0,1.0,0.0,5.0,5.0,559.9285860002965,1.0,1.0,phase_2,go,300.0,300.0,1.0,,,,,,,,,orange,hexagon
0.0,3.0,2.0,0.0,5.0,5.0,381.4985230001184,1.0,1.0,phase_2,go,300.0,300.0,1.0,,,,,,,,,magenta,triangle
0.0,2.0,1.0,0.0,5.0,5.0,327.0681869998952,1.0,1.0,phase_2,go,300.0,300.0,1.0,,,,,,,,,orange,hexagon
0.0,3.0,2.0,0.0,6.0,6.0,455.7683850002831,1.0,1.0,phase_2,go,300.0,300.0,1.0,,,,,,,,,magenta,triangle
0.0,8.0,4.0,1.0,5.0,5.0,505.6928720000542,1.0,1.0,phase_2,go,300.0,300.0,1.0,,,,,,,,,cyan,flipped triangle
0.0,8.0,4.0,1.0,6.0,6.0,285.0114269999722,1.0,1.0,phase_2,stop,300.0,300.0,3.0,,,,,,,,,cyan,flipped triangle
0.0,1.0,0.5,0.0,5.0,5.0,429.1425540000091,1.0,1.0,phase_2,go,300.0,250.0,1.0,,,,,,,,,white,circle
0.0,3.0,2.0,0.0,5.0,5.0,367.2939789998963,1.0,1.0,phase_2,go,300.0,250.0,1.0,,,,,,,,,magenta,triangle
0.0,7.0,2.0,1.0,6.0,6.0,557.0157920001293,1.0,1.0,phase_2,go,300.0,250.0,1.0,,,,,,,,,green,diamond
0.0,1.0,0.5,0.0,5.0,5.0,300.4057339999235,1.0,1.0,phase_2,go,300.0,250.0,1.0,,,,,,,,,white,circle
0.0,4.0,4.0,0.0,6.0,6.0,538.9740420000635,1.0,1.0,phase_2,go,300.0,250.0,1.0,,,,,,,,,gray,I
0.0,8.0,4.0,1.0,6.0,0.0,0.0,1.0,1.0,phase_2,stop,300.0,250.0,4.0,,,,,,,,,cyan,flipped triangle
0.0,7.0,2.0,1.0,5.0,5.0,439.0773189998072,1.0,1.0,phase_2,go,300.0,300.0,1.0,,,,,,,,,green,diamond
0.0,1.0,0.5,0.0,6.0,6.0,293.6348509997515,1.0,1.0,phase_2,go,300.0,300.0,1.0,,,,,,,,,white,circle
0.0,8.0,4.0,1.0,6.0,6.0,395.1283110000076,1.0,1.0,phase_2,go,300.0,300.0,1.0,,,,,,,,,cyan,flipped triangle
0.0,6.0,1.0,1.0,5.0,5.0,358.2613050002692,1.0,1.0,phase_2,stop,300.0,300.0,3.0,,,,,,,,,yellow,square
0.0,3.0,2.0,0.0,6.0,6.0,347.7428950000103,1.0,1.0,phase_2,go,250.0,300.0,1.0,,,,,,,,,magenta,triangle
0.0,4.0,4.0,0.0,5.0,5.0,396.1195029996815,1.0,1.0,phase_2,go,250.0,300.0,1.0,,,,,,,,,gray,I
0.0,8.0,4.0,1.0,6.0,6.0,283.515585999794,1.0,1.0,phase_2,stop,250.0,300.0,3.0,,,,,,,,,cyan,flipped triangle
0.0,3.0,2.0,0.0,5.0,5.0,324.6475210003154,1.0,1.0,phase_2,go,250.0,250.0,1.0,,,,,,,,,magenta,triangle
0.0,2.0,1.0,0.0,6.0,6.0,316.8265469998914,1.0,1.0,phase_2,go,250.0,250.0,1.0,,,,,,,,,orange,hexagon
0.0,6.0,1.0,1.0,5.0,5.0,336.7545940000127,1.0,1.0,phase_2,stop,250.0,250.0,3.0,,,,,,,,,yellow,square
0.0,8.0,4.0,1.0,6.0,6.0,319.6271329998126,1.0,1.0,phase_2,stop,200.0,250.0,3.0,,,,,,,,,cyan,flipped triangle
0.0,2.0,1.0,0.0,6.0,6.0,416.0277550004139,1.0,1.0,phase_2,go,200.0,200.0,1.0,,,,,,,,,orange,hexagon
0.0,5.0,0.5,1.0,5.0,5.0,277.164694000021,1.0,1.0,phase_2,go,200.0,200.0,1.0,,,,,,,,,blue,cross
0.0,3.0,2.0,0.0,6.0,6.0,523.1368140002814,2.0,1.0,phase_2,go,200.0,200.0,1.0,,,,,,,,,magenta,triangle
0.0,5.0,0.5,1.0,5.0,5.0,349.2821780000668,2.0,1.0,phase_2,stop,200.0,200.0,3.0,,,,,,,,,blue,cross
0.0,7.0,2.0,1.0,6.0,6.0,316.9332070001474,2.0,1.0,phase_2,stop,150.0,200.0,3.0,,,,,,,,,green,diamond
0.0,5.0,0.5,1.0,5.0,0.0,0.0,2.0,1.0,phase_2,stop,150.0,150.0,4.0,,,,,,,,,blue,cross
0.0,2.0,1.0,0.0,5.0,5.0,512.7960280001389,2.0,1.0,phase_2,go,200.0,150.0,1.0,,,,,,,,,orange,hexagon
0.0,5.0,0.5,1.0,6.0,6.0,305.3713510003035,2.0,1.0,phase_2,stop,200.0,150.0,3.0,,,,,,,,,blue,cross
0.0,5.0,0.5,1.0,6.0,0.0,0.0,2.0,1.0,phase_2,stop,200.0,100.0,4.0,,,,,,,,,blue,cross
0.0,2.0,1.0,0.0,6.0,6.0,436.6019600001891,2.0,1.0,phase_2,go,200.0,150.0,1.0,,,,,,,,,orange,hexagon
0.0,5.0,0.5,1.0,5.0,5.0,256.7836339999303,2.0,1.0,phase_2,stop,200.0,150.0,3.0,,,,,,,,,blue,cross
0.0,1.0,0.5,0.0,5.0,5.0,465.0081459999455,2.0,1.0,phase_2,go,150.0,150.0,1.0,,,,,,,,,white,circle
0.0,6.0,1.0,1.0,6.0,6.0,303.3189699999639,2.0,1.0,phase_2,stop,150.0,150.0,3.0,,,,,,,,,yellow,square
0.0,1.0,0.5,0.0,6.0,6.0,535.1791049997701,2.0,1.0,phase_2,go,150.0,100.0,1.0,,,,,,,,,white,circle
0.0,8.0,4.0,1.0,5.0,0.0,0.0,2.0,1.0,phase_2,stop,150.0,100.0,4.0,,,,,,,,,cyan,flipped triangle
0.0,7.0,2.0,1.0,6.0,0.0,0.0,2.0,1.0,phase_2,stop,200.0,100.0,4.0,,,,,,,,,green,diamond
0.0,7.0,2.0,1.0,6.0,6.0,323.0446779998601,2.0,1.0,phase_2,go,200.0,150.0,1.0,,,,,,,,,green,diamond
0.0,8.0,4.0,1.0,6.0,6.0,307.5619500000357,2.0,1.0,phase_2,stop,200.0,150.0,3.0,,,,,,,,,cyan,flipped triangle
0.0,4.0,4.0,0.0,6.0,6.0,323.7407359997633,2.0,1.0,phase_2,go,200.0,100.0,1.0,,,,,,,,,gray,I
0.0,1.0,0.5,0.0,6.0,6.0,297.7681439997468,2.0,1.0,phase_2,go,200.0,100.0,1.0,,,,,,,,,white,circle
0.0,7.0,2.0,1.0,6.0,0.0,0.0,2.0,1.0,phase_2,stop,200.0,100.0,4.0,,,,,,,,,green,diamond
0.0,5.0,0.5,1.0,6.0,0.0,0.0,2.0,1.0,phase_2,stop,200.0,150.0,4.0,,,,,,,,,blue,cross
0.0,6.0,1.0,1.0,6.0,6.0,311.9993149998663,2.0,1.0,phase_2,stop,200.0,200.0,3.0,,,,,,,,,yellow,square
0.0,3.0,2.0,0.0,5.0,5.0,343.6854619999394,2.0,1.0,phase_2,go,200.0,150.0,1.0,,,,,,,,,magenta,triangle
0.0,8.0,4.0,1.0,5.0,5.0,466.8885899995985,2.0,1.0,phase_2,go,200.0,150.0,1.0,,,,,,,,,cyan,flipped triangle
0.0,3.0,2.0,0.0,5.0,5.0,369.0883790000043,2.0,1.0,phase_2,go,200.0,150.0,1.0,,,,,,,,,magenta,triangle
0.0,1.0,0.5,0.0,6.0,6.0,296.0360070001115,2.0,1.0,phase_2,go,200.0,150.0,1.0,,,,,,,,,white,circle
0.0,3.0,2.0,0.0,6.0,6.0,318.8933719998204,2.0,1.0,phase_2,go,200.0,150.0,1.0,,,,,,,,,magenta,triangle
0.0,1.0,0.5,0.0,6.0,6.0,349.4470810001076,2.0,1.0,phase_2,go,200.0,150.0,1.0,,,,,,,,,white,circle
0.0,3.0,2.0,0.0,6.0,6.0,483.0250670001987,2.0,1.0,phase_2,go,200.0,150.0,1.0,,,,,,,,,magenta,triangle
0.0,4.0,4.0,0.0,6.0,6.0,381.5961129998868,2.0,1.0,phase_2,go,200.0,150.0,1.0,,,,,,,,,gray,I
0.0,8.0,4.0,1.0,6.0,0.0,0.0,2.0,1.0,phase_2,stop,200.0,150.0,4.0,,,,,,,,,cyan,flipped triangle
0.0,1.0,0.5,0.0,6.0,6.0,332.8106130002197,2.0,1.0,phase_2,go,200.0,200.0,1.0,,,,,,,,,white,circle
0.0,4.0,4.0,0.0,5.0,5.0,346.1336049999772,2.0,1.0,phase_2,go,200.0,200.0,1.0,,,,,,,,,gray,I
0.0,7.0,2.0,1.0,5.0,0.0,0.0,2.0,1.0,phase_2,stop,200.0,200.0,4.0,,,,,,,,,green,diamond
0.0,3.0,2.0,0.0,6.0,6.0,391.2311600001885,2.0,1.0,phase_2,go,250.0,200.0,1.0,,,,,,,,,magenta,triangle
0.0,5.0,0.5,1.0,5.0,5.0,334.8286430000371,2.0,1.0,phase_2,go,250.0,200.0,1.0,,,,,,,,,blue,cross
0.0,2.0,1.0,0.0,6.0,6.0,299.7640670000692,2.0,1.0,phase_2,go,250.0,200.0,1.0,,,,,,,,,orange,hexagon
0.0,6.0,1.0,1.0,5.0,0.0,0.0,3.0,1.0,phase_2,stop,250.0,200.0,4.0,,,,,,,,,yellow,square
0.0,1.0,0.5,0.0,5.0,5.0,565.0589850001779,3.0,1.0,phase_2,go,300.0,200.0,1.0,,,,,,,,,white,circle
0.0,5.0,0.5,1.0,6.0,0.0,0.0,3.0,1.0,phase_2,stop,300.0,200.0,4.0,,,,,,,,,blue,cross
0.0,8.0,4.0,1.0,5.0,0.0,0.0,3.0,1.0,phase_2,stop,300.0,250.0,4.0,,,,,,,,,cyan,flipped triangle
0.0,2.0,1.0,0.0,5.0,5.0,629.3220269999438,3.0,1.0,phase_2,go,350.0,250.0,1.0,,,,,,,,,orange,hexagon
0.0,6.0,1.0,1.0,5.0,5.0,844.0437790000033,3.0,1.0,phase_2,go,350.0,250.0,1.0,,,,,,,,,yellow,square
0.0,6.0,1.0,1.0,5.0,0.0,0.0,3.0,1.0,phase_2,stop,350.0,250.0,4.0,,,,,,,,,yellow,square
0.0,8.0,4.0,1.0,5.0,5.0,562.6800260001801,3.0,1.0,phase_2,stop,400.0,250.0,3.0,,,,,,,,,cyan,flipped triangle
0.0,7.0,2.0,1.0,5.0,5.0,602.2142300002997,3.0,1.0,phase_2,go,350.0,250.0,1.0,,,,,,,,,green,diamond
0.0,1.0,0.5,0.0,5.0,5.0,434.4738859999779,3.0,1.0,phase_2,go,350.0,250.0,1.0,,,,,,,,,white,circle
0.0,8.0,4.0,1.0,5.0,5.0,383.9570200002526,3.0,1.0,phase_2,stop,350.0,250.0,3.0,,,,,,,,,cyan,flipped triangle
0.0,3.0,2.0,0.0,6.0,6.0,396.1666870000044,3.0,1.0,phase_2,go,300.0,250.0,1.0,,,,,,,,,magenta,triangle
0.0,6.0,1.0,1.0,5.0,5.0,566.3834219999444,3.0,1.0,phase_2,go,300.0,250.0,1.0,,,,,,,,,yellow,square
0.0,4.0,4.0,0.0,5.0,5.0,448.5105950002435,3.0,1.0,phase_2,go,300.0,250.0,1.0,,,,,,,,,gray,I
0.0,2.0,1.0,0.0,5.0,5.0,447.6143390002107,3.0,1.0,phase_2,go,300.0,250.0,1.0,,,,,,,,,orange,hexagon
0.0,6.0,1.0,1.0,5.0,0.0,0.0,3.0,1.0,phase_2,stop,300.0,250.0,4.0,,,,,,,,,yellow,square
0.0,8.0,4.0,1.0,5.0,0.0,0.0,3.0,1.0,phase_2,stop,350.0,250.0,4.0,,,,,,,,,cyan,flipped triangle
0.0,6.0,1.0,1.0,5.0,5.0,978.1602880002538,3.0,1.0,phase_2,go,400.0,250.0,1.0,,,,,,,,,yellow,square
0.0,2.0,1.0,0.0,5.0,5.0,734.0709320001224,3.0,1.0,phase_2,go,400.0,250.0,1.0,,,,,,,,,orange,hexagon
0.0,1.0,0.5,0.0,5.0,5.0,549.0974669996831,3.0,1.0,phase_2,go,400.0,250.0,1.0,,,,,,,,,white,circle
0.0,5.0,0.5,1.0,5.0,5.0,661.454302999573,3.0,1.0,phase_2,go,400.0,250.0,1.0,,,,,,,,,blue,cross
0.0,7.0,2.0,1.0,6.0,0.0,0.0,3.0,1.0,phase_2,stop,400.0,250.0,4.0,,,,,,,,,green,diamond
0.0,4.0,4.0,0.0,5.0,5.0,591.7744889998175,3.0,1.0,phase_2,go,400.0,300.0,1.0,,,,,,,,,gray,I
0.0,4.0,4.0,0.0,5.0,5.0,604.0636049997374,3.0,1.0,phase_2,go,400.0,300.0,1.0,,,,,,,,,gray,I
0.0,2.0,1.0,0.0,6.0,6.0,698.6073479997685,3.0,1.0,phase_2,go,400.0,300.0,1.0,,,,,,,,,orange,hexagon
0.0,3.0,2.0,0.0,6.0,6.0,605.9221999998954,3.0,1.0,phase_2,go,400.0,300.0,1.0,,,,,,,,,magenta,triangle
0.0,8.0,4.0,1.0,5.0,0.0,0.0,3.0,1.0,phase_2,stop,400.0,300.0,4.0,,,,,,,,,cyan,flipped triangle
0.0,6.0,1.0,1.0,6.0,0.0,0.0,3.0,1.0,phase_2,stop,450.0,300.0,4.0,,,,,,,,,yellow,square
0.0,7.0,2.0,1.0,5.0,5.0,580.9513879999031,3.0,1.0,phase_2,stop,450.0,350.0,3.0,,,,,,,,,green,diamond
0.0,1.0,0.5,0.0,6.0,6.0,489.1417559997535,3.0,1.0,phase_2,go,400.0,350.0,1.0,,,,,,,,,white,circle
0.0,6.0,1.0,1.0,6.0,6.0,378.7928550000288,3.0,1.0,phase_2,go,400.0,350.0,1.0,,,,,,,,,yellow,square
0.0,1.0,0.5,0.0,6.0,6.0,634.4208599998638,3.0,1.0,phase_2,go,400.0,350.0,1.0,,,,,,,,,white,circle
0.0,6.0,1.0,1.0,5.0,5.0,784.2117529999086,3.0,1.0,phase_2,go,400.0,350.0,1.0,,,,,,,,,yellow,square
0.0,3.0,2.0,0.0,5.0,5.0,537.9741629999444,3.0,1.0,phase_2,go,400.0,350.0,1.0,,,,,,,,,magenta,triangle
0.0,2.0,1.0,0.0,6.0,6.0,621.6606140001204,3.0,1.0,phase_2,go,400.0,350.0,1.0,,,,,,,,,orange,hexagon
0.0,5.0,0.5,1.0,6.0,0.0,0.0,3.0,1.0,phase_2,stop,400.0,350.0,4.0,,,,,,,,,blue,cross
0.0,4.0,4.0,0.0,6.0,6.0,755.7576959998187,4.0,1.0,phase_2,go,400.0,400.0,1.0,,,,,,,,,gray,I
0.0,8.0,4.0,1.0,5.0,0.0,0.0,4.0,1.0,phase_2,stop,400.0,400.0,4.0,,,,,,,,,cyan,flipped triangle
0.0,3.0,2.0,0.0,6.0,6.0,625.982617000318,4.0,1.0,phase_2,go,450.0,400.0,1.0,,,,,,,,,magenta,triangle
0.0,4.0,4.0,0.0,6.0,6.0,888.9373739998518,4.0,1.0,phase_2,go,450.0,400.0,1.0,,,,,,,,,gray,I
0.0,4.0,4.0,0.0,6.0,6.0,1005.0416460003362,4.0,1.0,phase_2,go,450.0,400.0,1.0,,,,,,,,,gray,I
0.0,4.0,4.0,0.0,6.0,6.0,821.2047619999794,4.0,1.0,phase_2,go,450.0,400.0,1.0,,,,,,,,,gray,I
0.0,5.0,0.5,1.0,5.0,5.0,773.3995779999532,4.0,1.0,phase_2,go,450.0,400.0,1.0,,,,,,,,,blue,cross
0.0,2.0,1.0,0.0,6.0,6.0,790.6229850000273,4.0,1.0,phase_2,go,450.0,400.0,1.0,,,,,,,,,orange,hexagon
0.0,8.0,4.0,1.0,6.0,0.0,0.0,4.0,1.0,phase_2,stop,450.0,400.0,4.0,,,,,,,,,cyan,flipped triangle
0.0,5.0,0.5,1.0,5.0,0.0,0.0,4.0,1.0,phase_2,stop,450.0,450.0,4.0,,,,,,,,,blue,cross
0.0,4.0,4.0,0.0,6.0,6.0,724.4999670001562,4.0,1.0,phase_2,go,500.0,450.0,1.0,,,,,,,,,gray,I
0.0,1.0,0.5,0.0,6.0,6.0,714.981975000228,4.0,1.0,phase_2,go,500.0,450.0,1.0,,,,,,,,,white,circle
0.0,1.0,0.5,0.0,6.0,6.0,789.6534460001021,4.0,1.0,phase_2,go,500.0,450.0,1.0,,,,,,,,,white,circle
0.0,8.0,4.0,1.0,6.0,0.0,0.0,4.0,1.0,phase_2,stop,500.0,450.0,4.0,,,,,,,,,cyan,flipped triangle
0.0,3.0,2.0,0.0,5.0,5.0,687.3056849999557,4.0,1.0,phase_2,go,500.0,500.0,1.0,,,,,,,,,magenta,triangle
0.0,2.0,1.0,0.0,5.0,5.0,638.3086440000625,4.0,1.0,phase_2,go,500.0,500.0,1.0,,,,,,,,,orange,hexagon
0.0,5.0,0.5,1.0,5.0,0.0,0.0,4.0,1.0,phase_2,stop,500.0,500.0,4.0,,,,,,,,,blue,cross
0.0,3.0,2.0,0.0,5.0,5.0,841.6528990001098,4.0,1.0,phase_2,go,550.0,500.0,1.0,,,,,,,,,magenta,triangle
0.0,7.0,2.0,1.0,6.0,6.0,624.5601330001591,4.0,1.0,phase_2,stop,550.0,500.0,3.0,,,,,,,,,green,diamond
0.0,6.0,1.0,1.0,6.0,6.0,520.2191700000185,4.0,1.0,phase_2,stop,550.0,450.0,3.0,,,,,,,,,yellow,square
0.0,6.0,1.0,1.0,6.0,0.0,0.0,4.0,1.0,phase_2,stop,550.0,400.0,4.0,,,,,,,,,yellow,square
0.0,2.0,1.0,0.0,6.0,6.0,578.5765919999903,4.0,1.0,phase_2,go,550.0,450.0,1.0,,,,,,,,,orange,hexagon
0.0,7.0,2.0,1.0,5.0,0.0,0.0,4.0,1.0,phase_2,stop,550.0,450.0,4.0,,,,,,,,,green,diamond
0.0,3.0,2.0,0.0,5.0,5.0,687.1961849997206,4.0,1.0,phase_2,go,600.0,450.0,1.0,,,,,,,,,magenta,triangle
0.0,3.0,2.0,0.0,6.0,6.0,582.8181560000303,4.0,1.0,phase_2,go,600.0,450.0,1.0,,,,,,,,,magenta,triangle
0.0,3.0,2.0,0.0,5.0,5.0,494.5226710001407,4.0,1.0,phase_2,go,600.0,450.0,1.0,,,,,,,,,magenta,triangle
0.0,7.0,2.0,1.0,6.0,6.0,367.026886000076,4.0,1.0,phase_2,go,600.0,450.0,1.0,,,,,,,,,green,diamond
0.0,3.0,2.0,0.0,5.0,5.0,539.2178990000502,4.0,1.0,phase_2,go,600.0,450.0,1.0,,,,,,,,,magenta,triangle
0.0,5.0,0.5,1.0,6.0,0.0,0.0,4.0,1.0,phase_2,stop,600.0,450.0,4.0,,,,,,,,,blue,cross
0.0,5.0,0.5,1.0,6.0,0.0,0.0,4.0,1.0,phase_2,stop,600.0,500.0,4.0,,,,,,,,,blue,cross
0.0,3.0,2.0,0.0,6.0,6.0,781.8672799999149,4.0,1.0,phase_2,go,600.0,550.0,1.0,,,,,,,,,magenta,triangle
0.0,6.0,1.0,1.0,6.0,0.0,0.0,4.0,1.0,phase_2,stop,600.0,550.0,4.0,,,,,,,,,yellow,square
0.0,6.0,1.0,1.0,5.0,5.0,467.1443470001577,4.0,1.0,phase_2,stop,600.0,600.0,3.0,,,,,,,,,yellow,square
0.0,5.0,0.5,1.0,6.0,0.0,0.0,4.0,1.0,phase_2,stop,550.0,600.0,4.0,,,,,,,,,blue,cross
0.0,1.0,0.5,0.0,5.0,5.0,805.7174960003977,4.0,1.0,phase_2,go,550.0,650.0,1.0,,,,,,,,,white,circle
0.0,2.0,1.0,0.0,5.0,5.0,642.6047139998445,4.0,1.0,phase_2,go,550.0,650.0,1.0,,,,,,,,,orange,hexagon
0.0,2.0,1.0,0.0,6.0,6.0,421.8344989999423,5.0,1.0,phase_2,go,550.0,650.0,1.0,,,,,,,,,orange,hexagon
0.0,4.0,4.0,0.0,5.0,5.0,324.710935999974,5.0,1.0,phase_2,go,550.0,650.0,1.0,,,,,,,,,gray,I
0.0,6.0,1.0,1.0,6.0,6.0,304.6545659999538,5.0,1.0,phase_2,stop,550.0,650.0,3.0,,,,,,,,,yellow,square
0.0,3.0,2.0,0.0,5.0,5.0,257.3629680000522,5.0,1.0,phase_2,go,550.0,600.0,1.0,,,,,,,,,magenta,triangle
0.0,5.0,0.5,1.0,6.0,6.0,288.139282999964,5.0,1.0,phase_2,stop,550.0,600.0,3.0,,,,,,,,,blue,cross
0.0,2.0,1.0,0.0,5.0,5.0,474.7980400002234,5.0,1.0,phase_2,go,550.0,550.0,1.0,,,,,,,,,orange,hexagon
0.0,8.0,4.0,1.0,6.0,6.0,474.9239650000163,5.0,1.0,phase_2,go,550.0,550.0,1.0,,,,,,,,,cyan,flipped triangle
0.0,5.0,0.5,1.0,5.0,5.0,379.4782929999201,5.0,1.0,phase_2,stop,550.0,550.0,3.0,,,,,,,,,blue,cross
0.0,5.0,0.5,1.0,5.0,5.0,570.8383410001261,5.0,1.0,phase_2,stop,500.0,550.0,3.0,,,,,,,,,blue,cross
0.0,6.0,1.0,1.0,5.0,5.0,720.3246779999972,5.0,1.0,phase_2,go,450.0,550.0,1.0,,,,,,,,,yellow,square
0.0,7.0,2.0,1.0,5.0,0.0,0.0,5.0,1.0,phase_2,stop,450.0,550.0,4.0,,,,,,,,,green,diamond
0.0,8.0,4.0,1.0,5.0,5.0,614.7084689996518,5.0,1.0,phase_2,go,500.0,550.0,1.0,,,,,,,,,cyan,flipped triangle
0.0,2.0,1.0,0.0,6.0,6.0,592.3944989999654,5.0,1.0,phase_2,go,500.0,550.0,1.0,,,,,,,,,orange,hexagon
0.0,1.0,0.5,0.0,5.0,5.0,503.3169909997923,5.0,1.0,phase_2,go,500.0,550.0,1.0,,,,,,,,,white,circle
0.0,8.0,4.0,1.0,6.0,6.0,433.8579110003593,5.0,1.0,phase_2,stop,500.0,550.0,3.0,,,,,,,,,cyan,flipped triangle
0.0,4.0,4.0,0.0,5.0,5.0,267.6638309999362,5.0,1.0,phase_2,go,500.0,500.0,1.0,,,,,,,,,gray,I
0.0,4.0,4.0,0.0,5.0,5.0,528.827886000272,5.0,1.0,phase_2,go,500.0,500.0,1.0,,,,,,,,,gray,I
0.0,5.0,0.5,1.0,5.0,5.0,586.7300160002742,5.0,1.0,phase_2,stop,500.0,500.0,3.0,,,,,,,,,blue,cross
0.0,7.0,2.0,1.0,6.0,6.0,319.9792159998651,5.0,1.0,phase_2,stop,450.0,500.0,3.0,,,,,,,,,green,diamond
0.0,8.0,4.0,1.0,5.0,0.0,0.0,5.0,1.0,phase_2,stop,450.0,450.0,4.0,,,,,,,,,cyan,flipped triangle
0.0,4.0,4.0,0.0,6.0,6.0,397.7935190000607,5.0,1.0,phase_2,go,500.0,450.0,1.0,,,,,,,,,gray,I
0.0,6.0,1.0,1.0,5.0,5.0,627.7049179998357,5.0,1.0,phase_2,stop,500.0,450.0,3.0,,,,,,,,,yellow,square
0.0,6.0,1.0,1.0,6.0,6.0,841.851669999869,5.0,1.0,phase_2,go,450.0,450.0,1.0,,,,,,,,,yellow,square
0.0,5.0,0.5,1.0,5.0,0.0,0.0,5.0,1.0,phase_2,stop,450.0,450.0,4.0,,,,,,,,,blue,cross
0.0,4.0,4.0,0.0,5.0,5.0,716.3771369996539,5.0,1.0,phase_2,go,500.0,450.0,1.0,,,,,,,,,gray,I
0.0,4.0,4.0,0.0,6.0,6.0,481.22976700005887,5.0,1.0,phase_2,go,500.0,450.0,1.0,,,,,,,,,gray,I
0.0,4.0,4.0,0.0,5.0,5.0,486.4389310000661,5.0,1.0,phase_2,go,500.0,450.0,1.0,,,,,,,,,gray,I
0.0,7.0,2.0,1.0,5.0,5.0,378.4006150003733,5.0,1.0,phase_2,go,500.0,450.0,1.0,,,,,,,,,green,diamond
0.0,3.0,2.0,0.0,6.0,6.0,226.0302129998308,5.0,1.0,phase_2,go,500.0,450.0,1.0,,,,,,,,,magenta,triangle
0.0,5.0,0.5,1.0,6.0,6.0,315.4323580001801,5.0,1.0,phase_2,stop,500.0,450.0,3.0,,,,,,,,,blue,cross
0.0,8.0,4.0,1.0,5.0,5.0,889.3482650000806,5.0,1.0,phase_2,go,500.0,400.0,1.0,,,,,,,,,cyan,flipped triangle
0.0,6.0,1.0,1.0,5.0,0.0,0.0,5.0,1.0,phase_2,stop,500.0,400.0,4.0,,,,,,,,,yellow,square
0.0,3.0,2.0,0.0,6.0,6.0,567.2407639999619,5.0,1.0,phase_2,go,550.0,400.0,1.0,,,,,,,,,magenta,triangle
0.0,6.0,1.0,1.0,6.0,6.0,481.3538609996612,5.0,1.0,phase_2,stop,550.0,400.0,3.0,,,,,,,,,yellow,square
0.0,5.0,0.5,1.0,6.0,0.0,0.0,5.0,1.0,phase_2,stop,550.0,350.0,4.0,,,,,,,,,blue,cross
0.0,2.0,1.0,0.0,6.0,6.0,565.338533999693,5.0,1.0,phase_2,go,550.0,400.0,1.0,,,,,,,,,orange,hexagon
0.0,7.0,2.0,1.0,6.0,0.0,0.0,6.0,1.0,phase_2,stop,550.0,400.0,4.0,,,,,,,,,green,diamond
0.0,2.0,1.0,0.0,5.0,5.0,405.7697110001754,6.0,1.0,phase_2,go,550.0,450.0,1.0,,,,,,,,,orange,hexagon
0.0,4.0,4.0,0.0,6.0,6.0,529.2776119999871,6.0,1.0,phase_2,go,550.0,450.0,1.0,,,,,,,,,gray,I
0.0,3.0,2.0,0.0,5.0,5.0,316.6716089999681,6.0,1.0,phase_2,go,550.0,450.0,1.0,,,,,,,,,magenta,triangle
0.0,8.0,4.0,1.0,6.0,0.0,0.0,6.0,1.0,phase_2,stop,550.0,450.0,4.0,,,,,,,,,cyan,flipped triangle
0.0,7.0,2.0,1.0,5.0,5.0,545.4464240001471,6.0,1.0,phase_2,go,550.0,500.0,1.0,,,,,,,,,green,diamond
0.0,6.0,1.0,1.0,6.0,6.0,677.1169519997784,6.0,1.0,phase_2,stop,550.0,500.0,3.0,,,,,,,,,yellow,square
0.0,8.0,4.0,1.0,5.0,5.0,726.2089140003809,6.0,1.0,phase_2,go,550.0,450.0,1.0,,,,,,,,,cyan,flipped triangle
0.0,5.0,0.5,1.0,6.0,6.0,621.5077120000387,6.0,1.0,phase_2,go,550.0,450.0,1.0,,,,,,,,,blue,cross
0.0,6.0,1.0,1.0,5.0,5.0,713.572738000039,6.0,1.0,phase_2,go,550.0,450.0,1.0,,,,,,,,,yellow,square
0.0,8.0,4.0,1.0,6.0,0.0,0.0,6.0,1.0,phase_2,stop,550.0,450.0,4.0,,,,,,,,,cyan,flipped triangle
0.0,7.0,2.0,1.0,5.0,0.0,0.0,6.0,1.0,phase_2,stop,550.0,500.0,4.0,,,,,,,,,green,diamond
0.0,7.0,2.0,1.0,6.0,0.0,0.0,6.0,1.0,phase_2,stop,600.0,500.0,4.0,,,,,,,,,green,diamond
0.0,4.0,4.0,0.0,5.0,5.0,351.6417729997556,6.0,1.0,phase_2,go,600.0,550.0,1.0,,,,,,,,,gray,I
0.0,3.0,2.0,0.0,5.0,5.0,556.5766560002885,6.0,1.0,phase_2,go,600.0,550.0,1.0,,,,,,,,,magenta,triangle
0.0,2.0,1.0,0.0,6.0,6.0,491.3761779998822,6.0,1.0,phase_2,go,600.0,550.0,1.0,,,,,,,,,orange,hexagon
0.0,7.0,2.0,1.0,5.0,5.0,269.4163950000074,6.0,1.0,phase_2,stop,600.0,550.0,3.0,,,,,,,,,green,diamond
0.0,2.0,1.0,0.0,5.0,5.0,368.48857699988,6.0,1.0,phase_2,go,550.0,550.0,1.0,,,,,,,,,orange,hexagon
0.0,1.0,0.5,0.0,5.0,5.0,435.7501760000559,6.0,1.0,phase_2,go,550.0,550.0,1.0,,,,,,,,,white,circle
0.0,1.0,0.5,0.0,5.0,5.0,649.5156300002236,6.0,1.0,phase_2,go,550.0,550.0,1.0,,,,,,,,,white,circle
0.0,7.0,2.0,1.0,5.0,5.0,390.1084710000759,6.0,1.0,phase_2,stop,550.0,550.0,3.0,,,,,,,,,green,diamond
0.0,2.0,1.0,0.0,6.0,6.0,706.5915200000745,6.0,1.0,phase_2,go,500.0,550.0,1.0,,,,,,,,,orange,hexagon
0.0,1.0,0.5,0.0,6.0,6.0,707.2562920002383,6.0,1.0,phase_2,go,500.0,550.0,1.0,,,,,,,,,white,circle
0.0,4.0,4.0,0.0,6.0,6.0,541.8771790000392,6.0,1.0,phase_2,go,500.0,550.0,1.0,,,,,,,,,gray,I
0.0,6.0,1.0,1.0,5.0,5.0,600.8389749999878,6.0,1.0,phase_2,stop,500.0,550.0,3.0,,,,,,,,,yellow,square
0.0,1.0,0.5,0.0,5.0,5.0,544.5727440001065,6.0,1.0,phase_2,go,450.0,550.0,1.0,,,,,,,,,white,circle
0.0,5.0,0.5,1.0,6.0,6.0,534.4248629999129,6.0,1.0,phase_2,go,450.0,550.0,1.0,,,,,,,,,blue,cross
0.0,1.0,0.5,0.0,6.0,6.0,670.5878669999947,6.0,1.0,phase_2,go,450.0,550.0,1.0,,,,,,,,,white,circle
0.0,2.0,1.0,0.0,5.0,5.0,676.9393800000216,6.0,1.0,phase_2,go,450.0,550.0,1.0,,,,,,,,,orange,hexagon
0.0,4.0,4.0,0.0,5.0,5.0,562.116006999986,6.0,1.0,phase_2,go,450.0,550.0,1.0,,,,,,,,,gray,I
0.0,6.0,1.0,1.0,6.0,6.0,650.1946609996594,6.0,1.0,phase_2,stop,450.0,550.0,3.0,,,,,,,,,yellow,square
0.0,5.0,0.5,1.0,5.0,5.0,422.4067879999893,6.0,1.0,phase_2,stop,450.0,500.0,3.0,,,,,,,,,blue,cross
0.0,1.0,0.5,0.0,5.0,5.0,711.2792169996283,6.0,1.0,phase_2,go,400.0,500.0,1.0,,,,,,,,,white,circle
0.0,3.0,2.0,0.0,6.0,6.0,335.7523449999462,6.0,1.0,phase_2,go,400.0,500.0,1.0,,,,,,,,,magenta,triangle
0.0,7.0,2.0,1.0,5.0,5.0,412.9933429999255,6.0,1.0,phase_2,go,400.0,500.0,1.0,,,,,,,,,green,diamond
0.0,3.0,2.0,0.0,6.0,6.0,298.5587530001794,6.0,1.0,phase_2,go,400.0,500.0,1.0,,,,,,,,,magenta,triangle
0.0,5.0,0.5,1.0,6.0,6.0,563.8047080001343,7.0,1.0,phase_2,stop,400.0,500.0,3.0,,,,,,,,,blue,cross
0.0,3.0,2.0,0.0,5.0,5.0,608.96499699993,7.0,1.0,phase_2,go,400.0,450.0,1.0,,,,,,,,,magenta,triangle
0.0,7.0,2.0,1.0,6.0,0.0,0.0,7.0,1.0,phase_2,stop,400.0,450.0,4.0,,,,,,,,,green,diamond
0.0,6.0,1.0,1.0,6.0,6.0,649.7871829997166,7.0,1.0,phase_2,stop,400.0,500.0,3.0,,,,,,,,,yellow,square
0.0,7.0,2.0,1.0,6.0,0.0,0.0,7.0,1.0,phase_2,stop,400.0,450.0,4.0,,,,,,,,,green,diamond
0.0,8.0,4.0,1.0,5.0,5.0,731.7523420001635,7.0,1.0,phase_2,go,400.0,500.0,1.0,,,,,,,,,cyan,flipped triangle
0.0,3.0,2.0,0.0,6.0,6.0,729.767873000128,7.0,1.0,phase_2,go,400.0,500.0,1.0,,,,,,,,,magenta,triangle
0.0,6.0,1.0,1.0,6.0,6.0,295.5401159997564,7.0,1.0,phase_2,stop,400.0,500.0,3.0,,,,,,,,,yellow,square
0.0,7.0,2.0,1.0,5.0,0.0,0.0,7.0,1.0,phase_2,stop,400.0,450.0,4.0,,,,,,,,,green,diamond
0.0,7.0,2.0,1.0,5.0,0.0,0.0,7.0,1.0,phase_2,stop,450.0,450.0,4.0,,,,,,,,,green,diamond
0.0,8.0,4.0,1.0,5.0,5.0,550.5567420000261,7.0,1.0,phase_2,go,500.0,450.0,1.0,,,,,,,,,cyan,flipped triangle
0.0,4.0,4.0,0.0,6.0,6.0,560.3561960001571,7.0,1.0,phase_2,go,500.0,450.0,1.0,,,,,,,,,gray,I
0.0,4.0,4.0,0.0,6.0,6.0,424.1583739999441,7.0,1.0,phase_2,go,500.0,450.0,1.0,,,,,,,,,gray,I
0.0,3.0,2.0,0.0,5.0,5.0,287.0906650000506,7.0,1.0,phase_2,go,500.0,450.0,1.0,,,,,,,,,magenta,triangle
0.0,5.0,0.5,1.0,5.0,5.0,327.0813679996536,7.0,1.0,phase_2,stop,500.0,450.0,3.0,,,,,,,,,blue,cross
0.0,8.0,4.0,1.0,5.0,5.0,557.996975000151,7.0,1.0,phase_2,stop,450.0,450.0,3.0,,,,,,,,,cyan,flipped triangle
0.0,2.0,1.0,0.0,6.0,6.0,752.6580519997879,7.0,1.0,phase_2,go,400.0,450.0,1.0,,,,,,,,,orange,hexagon
0.0,6.0,1.0,1.0,6.0,6.0,563.1626200001847,7.0,1.0,phase_2,stop,400.0,450.0,3.0,,,,,,,,,yellow,square
0.0,8.0,4.0,1.0,6.0,0.0,0.0,7.0,1.0,phase_2,stop,400.0,400.0,4.0,,,,,,,,,cyan,flipped triangle
0.0,4.0,4.0,0.0,5.0,5.0,569.5879619997868,7.0,1.0,phase_2,go,400.0,450.0,1.0,,,,,,,,,gray,I
0.0,5.0,0.5,1.0,6.0,6.0,568.9214809999612,7.0,1.0,phase_2,go,400.0,450.0,1.0,,,,,,,,,blue,cross
0.0,6.0,1.0,1.0,5.0,0.0,0.0,7.0,1.0,phase_2,stop,400.0,450.0,4.0,,,,,,,,,yellow,square
0.0,2.0,1.0,0.0,5.0,5.0,793.7461299998176,7.0,1.0,phase_2,go,450.0,450.0,1.0,,,,,,,,,orange,hexagon
0.0,8.0,4.0,1.0,6.0,6.0,576.0519549999117,7.0,1.0,phase_2,stop,450.0,450.0,3.0,,,,,,,,,cyan,flipped triangle
0.0,1.0,0.5,0.0,6.0,6.0,668.9927190000162,7.0,1.0,phase_2,go,450.0,400.0,1.0,,,,,,,,,white,circle
0.0,1.0,0.5,0.0,5.0,5.0,463.0116670000461,7.0,1.0,phase_2,go,450.0,400.0,1.0,,,,,,,,,white,circle
0.0,7.0,2.0,1.0,6.0,6.0,266.0173720000784,7.0,1.0,phase_2,stop,450.0,400.0,3.0,,,,,,,,,green,diamond
0.0,4.0,4.0,0.0,5.0,5.0,605.8523719998448,7.0,1.0,phase_2,go,450.0,350.0,1.0,,,,,,,,,gray,I
0.0,2.0,1.0,0.0,6.0,6.0,502.4653190002937,7.0,1.0,phase_2,go,450.0,350.0,1.0,,,,,,,,,orange,hexagon
0.0,1.0,0.5,0.0,5.0,5.0,320.4158640000969,7.0,1.0,phase_2,go,450.0,350.0,1.0,,,,,,,,,white,circle
0.0,4.0,4.0,0.0,6.0,6.0,341.1372710002069,7.0,1.0,phase_2,go,450.0,350.0,1.0,,,,,,,,,gray,I
0.0,5.0,0.5,1.0,6.0,6.0,701.0840899997675,7.0,1.0,phase_2,go,450.0,350.0,1.0,,,,,,,,,blue,cross
0.0,7.0,2.0,1.0,6.0,0.0,0.0,7.0,1.0,phase_2,stop,450.0,350.0,4.0,,,,,,,,,green,diamond
0.0,8.0,4.0,1.0,5.0,0.0,0.0,7.0,1.0,phase_2,stop,450.0,400.0,4.0,,,,,,,,,cyan,flipped triangle
0.0,8.0,4.0,1.0,6.0,0.0,0.0,7.0,1.0,phase_2,stop,500.0,400.0,4.0,,,,,,,,,cyan,flipped triangle
0.0,1.0,0.5,0.0,5.0,5.0,683.965919000002,7.0,1.0,phase_2,go,500.0,450.0,1.0,,,,,,,,,white,circle
0.0,4.0,4.0,0.0,5.0,5.0,559.9520050000137,8.0,1.0,phase_2,go,500.0,450.0,1.0,,,,,,,,,gray,I
0.0,8.0,4.0,1.0,6.0,6.0,532.6933330002248,8.0,1.0,phase_2,stop,500.0,450.0,3.0,,,,,,,,,cyan,flipped triangle
0.0,4.0,4.0,0.0,5.0,5.0,545.3446369997437,8.0,1.0,phase_2,go,500.0,400.0,1.0,,,,,,,,,gray,I
0.0,1.0,0.5,0.0,6.0,6.0,647.1513950000372,8.0,1.0,phase_2,go,500.0,400.0,1.0,,,,,,,,,white,circle
0.0,6.0,1.0,1.0,6.0,6.0,734.4169930001954,8.0,1.0,phase_2,go,500.0,400.0,1.0,,,,,,,,,yellow,square
0.0,2.0,1.0,0.0,6.0,6.0,741.6746730000341,8.0,1.0,phase_2,go,500.0,400.0,1.0,,,,,,,,,orange,hexagon
0.0,8.0,4.0,1.0,6.0,0.0,0.0,8.0,1.0,phase_2,stop,500.0,400.0,4.0,,,,,,,,,cyan,flipped triangle
0.0,7.0,2.0,1.0,6.0,0.0,0.0,8.0,1.0,phase_2,stop,500.0,450.0,4.0,,,,,,,,,green,diamond
0.0,1.0,0.5,0.0,6.0,6.0,752.1404270000858,8.0,1.0,phase_2,go,500.0,500.0,1.0,,,,,,,,,white,circle
0.0,2.0,1.0,0.0,5.0,5.0,680.3775829998813,8.0,1.0,phase_2,go,500.0,500.0,1.0,,,,,,,,,orange,hexagon
0.0,2.0,1.0,0.0,5.0,5.0,788.23741899987,8.0,1.0,phase_2,go,500.0,500.0,1.0,,,,,,,,,orange,hexagon
0.0,1.0,0.5,0.0,6.0,6.0,684.235617000013,8.0,1.0,phase_2,go,500.0,500.0,1.0,,,,,,,,,white,circle
0.0,3.0,2.0,0.0,6.0,6.0,609.4978359997185,8.0,1.0,phase_2,go,500.0,500.0,1.0,,,,,,,,,magenta,triangle
0.0,1.0,0.5,0.0,5.0,5.0,560.9722750000401,8.0,1.0,phase_2,go,500.0,500.0,1.0,,,,,,,,,white,circle
0.0,7.0,2.0,1.0,6.0,6.0,534.9053560003085,8.0,1.0,phase_2,stop,500.0,500.0,3.0,,,,,,,,,green,diamond
0.0,8.0,4.0,1.0,5.0,5.0,614.5558379998874,8.0,1.0,phase_2,stop,500.0,450.0,3.0,,,,,,,,,cyan,flipped triangle
0.0,7.0,2.0,1.0,5.0,0.0,0.0,8.0,1.0,phase_2,stop,450.0,450.0,4.0,,,,,,,,,green,diamond
0.0,2.0,1.0,0.0,6.0,6.0,804.8554070001046,8.0,1.0,phase_2,go,500.0,450.0,1.0,,,,,,,,,orange,hexagon
0.0,5.0,0.5,1.0,6.0,0.0,0.0,8.0,1.0,phase_2,stop,500.0,450.0,4.0,,,,,,,,,blue,cross
0.0,3.0,2.0,0.0,6.0,6.0,724.3018270000903,8.0,1.0,phase_2,go,500.0,500.0,1.0,,,,,,,,,magenta,triangle
0.0,4.0,4.0,0.0,6.0,6.0,719.3325319999531,8.0,1.0,phase_2,go,500.0,500.0,1.0,,,,,,,,,gray,I
0.0,7.0,2.0,1.0,6.0,6.0,654.7173649996694,8.0,1.0,phase_2,go,500.0,500.0,1.0,,,,,,,,,green,diamond
0.0,5.0,0.5,1.0,5.0,5.0,601.9686660001753,8.0,1.0,phase_2,stop,500.0,500.0,3.0,,,,,,,,,blue,cross
0.0,1.0,0.5,0.0,6.0,6.0,703.5241019998466,8.0,1.0,phase_2,go,450.0,500.0,1.0,,,,,,,,,white,circle
0.0,2.0,1.0,0.0,5.0,5.0,727.4323789997652,8.0,1.0,phase_2,go,450.0,500.0,1.0,,,,,,,,,orange,hexagon
0.0,4.0,4.0,0.0,5.0,5.0,621.8852850001895,8.0,1.0,phase_2,go,450.0,500.0,1.0,,,,,,,,,gray,I
0.0,4.0,4.0,0.0,6.0,6.0,605.2013360003912,8.0,1.0,phase_2,go,450.0,500.0,1.0,,,,,,,,,gray,I
0.0,5.0,0.5,1.0,6.0,6.0,379.4262299998081,8.0,1.0,phase_2,stop,450.0,500.0,3.0,,,,,,,,,blue,cross
0.0,1.0,0.5,0.0,6.0,6.0,712.1977249998963,8.0,1.0,phase_2,go,450.0,450.0,1.0,,,,,,,,,white,circle
0.0,6.0,1.0,1.0,6.0,6.0,596.0779689999072,8.0,1.0,phase_2,stop,450.0,450.0,3.0,,,,,,,,,yellow,square
0.0,2.0,1.0,0.0,5.0,5.0,714.9557389998336,8.0,1.0,phase_2,go,450.0,400.0,1.0,,,,,,,,,orange,hexagon
0.0,3.0,2.0,0.0,5.0,5.0,761.8243740002981,8.0,1.0,phase_2,go,450.0,400.0,1.0,,,,,,,,,magenta,triangle
0.0,7.0,2.0,1.0,5.0,0.0,0.0,8.0,1.0,phase_2,stop,450.0,400.0,4.0,,,,,,,,,green,diamond
0.0,1.0,0.5,0.0,5.0,5.0,777.1351169999434,8.0,1.0,phase_2,go,500.0,400.0,1.0,,,,,,,,,white,circle
0.0,1.0,0.5,0.0,5.0,5.0,717.862741999852,8.0,1.0,phase_2,go,500.0,400.0,1.0,,,,,,,,,white,circle
0.0,3.0,2.0,0.0,5.0,5.0,709.4223499998407,8.0,1.0,phase_2,go,500.0,400.0,1.0,,,,,,,,,magenta,triangle
0.0,3.0,2.0,0.0,7.0,3.0,3571.305294999547,1.0,1.0,phase_3,,,,,195.0,5.0,156.0,117.0,195.0,39.0,234.0,78.0,magenta,triangle
0.0,3.0,2.0,0.0,7.0,5.0,795.5516140000327,1.0,2.0,phase_3,,,,,170.0,5.0,204.0,102.0,136.0,68.0,170.0,34.0,magenta,triangle
0.0,7.0,2.0,1.0,7.0,6.0,1889.3245799999927,1.0,1.0,phase_3,,,,,204.0,6.0,136.0,170.0,68.0,102.0,34.0,204.0,green,diamond
0.0,4.0,4.0,0.0,7.0,1.0,1422.814104000281,1.0,1.0,phase_3,,,,,108.0,2.0,108.0,216.0,54.0,270.0,162.0,324.0,gray,I
0.0,7.0,2.0,1.0,7.0,2.0,2381.932592999874,1.0,1.0,phase_3,,,,,234.0,6.0,117.0,234.0,156.0,78.0,39.0,195.0,green,diamond
0.0,7.0,2.0,1.0,7.0,3.0,1663.244236000537,1.0,1.0,phase_3,,,,,147.0,3.0,49.0,98.0,147.0,294.0,245.0,196.0,green,diamond
0.0,3.0,2.0,0.0,7.0,1.0,2065.694062000148,1.0,1.0,phase_3,,,,,162.0,3.0,162.0,270.0,216.0,54.0,324.0,108.0,magenta,triangle
0.0,2.0,1.0,0.0,7.0,4.0,2542.3742539996965,1.0,1.0,phase_3,,,,,270.0,5.0,216.0,54.0,324.0,270.0,108.0,162.0,orange,hexagon
0.0,2.0,1.0,0.0,7.0,6.0,1362.5035100003515,1.0,1.0,phase_3,,,,,132.0,3.0,220.0,264.0,44.0,176.0,88.0,132.0,orange,hexagon
0.0,4.0,4.0,0.0,7.0,3.0,1494.672255000296,1.0,1.0,phase_3,,,,,204.0,6.0,136.0,34.0,204.0,170.0,68.0,102.0,gray,I
0.0,1.0,0.5,0.0,7.0,1.0,1002.1787539999425,1.0,1.0,phase_3,,,,,78.0,2.0,78.0,117.0,156.0,195.0,234.0,39.0,white,circle
0.0,4.0,4.0,0.0,7.0,4.0,1528.6110220004048,1.0,1.0,phase_3,,,,,234.0,6.0,156.0,117.0,78.0,234.0,39.0,195.0,gray,I
0.0,1.0,0.5,0.0,7.0,6.0,1776.3597699995444,1.0,1.0,phase_3,,,,,147.0,3.0,196.0,98.0,245.0,294.0,49.0,147.0,white,circle
0.0,3.0,2.0,0.0,7.0,1.0,1575.5396560007284,1.0,1.0,phase_3,,,,,147.0,3.0,147.0,49.0,196.0,98.0,294.0,245.0,magenta,triangle
0.0,8.0,4.0,1.0,7.0,4.0,1383.0270270000256,1.0,1.0,phase_3,,,,,294.0,6.0,245.0,49.0,98.0,294.0,196.0,147.0,cyan,flipped triangle
0.0,7.0,2.0,1.0,7.0,2.0,1730.918094000117,1.0,1.0,phase_3,,,,,117.0,3.0,195.0,117.0,78.0,39.0,156.0,234.0,green,diamond
0.0,5.0,0.5,1.0,7.0,6.0,1141.5113540006132,1.0,1.0,phase_3,,,,,44.0,1.0,88.0,264.0,132.0,176.0,220.0,44.0,blue,cross
0.0,1.0,0.5,0.0,7.0,1.0,1154.3287989998134,1.0,1.0,phase_3,,,,,102.0,3.0,102.0,204.0,34.0,68.0,136.0,170.0,white,circle
0.0,2.0,1.0,0.0,7.0,4.0,1635.784493999381,1.0,1.0,phase_3,,,,,102.0,3.0,170.0,136.0,34.0,102.0,204.0,68.0,orange,hexagon
0.0,6.0,1.0,1.0,7.0,6.0,1534.466075999262,1.0,1.0,phase_3,,,,,132.0,3.0,176.0,264.0,44.0,220.0,88.0,132.0,yellow,square
0.0,3.0,2.0,0.0,7.0,4.0,1152.5666240004284,2.0,1.0,phase_3,,,,,176.0,4.0,132.0,88.0,264.0,176.0,44.0,220.0,magenta,triangle
0.0,6.0,1.0,1.0,7.0,4.0,1572.2828799998751,2.0,1.0,phase_3,,,,,98.0,2.0,196.0,294.0,49.0,98.0,245.0,147.0,yellow,square
0.0,4.0,4.0,0.0,7.0,3.0,2011.3664350001272,2.0,1.0,phase_3,,,,,324.0,6.0,216.0,54.0,324.0,162.0,270.0,108.0,gray,I
0.0,2.0,1.0,0.0,7.0,2.0,1678.1230390006383,2.0,1.0,phase_3,,,,,147.0,3.0,245.0,147.0,294.0,49.0,196.0,98.0,orange,hexagon
0.0,5.0,0.5,1.0,7.0,3.0,1408.817476999502,2.0,1.0,phase_3,,,,,68.0,2.0,170.0,136.0,68.0,34.0,204.0,102.0,blue,cross
0.0,4.0,4.0,0.0,7.0,2.0,1114.7972299995672,2.0,1.0,phase_3,,,,,294.0,6.0,245.0,294.0,147.0,196.0,98.0,49.0,gray,I
0.0,4.0,4.0,0.0,7.0,2.0,1878.0039860002944,2.0,1.0,phase_3,,,,,204.0,6.0,170.0,204.0,34.0,68.0,102.0,136.0,gray,I
0.0,1.0,0.5,0.0,7.0,4.0,1676.5795759993125,2.0,1.0,phase_3,,,,,54.0,1.0,324.0,162.0,108.0,54.0,270.0,216.0,white,circle
0.0,1.0,0.5,0.0,7.0,6.0,1316.1430719992495,2.0,1.0,phase_3,,,,,49.0,1.0,294.0,196.0,147.0,245.0,98.0,49.0,white,circle
0.0,8.0,4.0,1.0,7.0,6.0,1598.8838080002097,2.0,1.0,phase_3,,,,,294.0,6.0,49.0,147.0,98.0,196.0,245.0,294.0,cyan,flipped triangle
0.0,5.0,0.5,1.0,7.0,4.0,1784.3772180003723,2.0,1.0,phase_3,,,,,39.0,1.0,195.0,156.0,117.0,39.0,234.0,78.0,blue,cross
0.0,5.0,0.5,1.0,7.0,3.0,1112.423793999369,2.0,1.0,phase_3,,,,,54.0,1.0,162.0,324.0,54.0,270.0,108.0,216.0,blue,cross
0.0,8.0,4.0,1.0,7.0,2.0,1537.2714810000616,2.0,1.0,phase_3,,,,,234.0,6.0,195.0,234.0,117.0,156.0,78.0,39.0,cyan,flipped triangle
0.0,2.0,1.0,0.0,7.0,5.0,1591.2653550003597,2.0,1.0,phase_3,,,,,132.0,3.0,176.0,220.0,264.0,88.0,132.0,44.0,orange,hexagon
0.0,1.0,0.5,0.0,7.0,4.0,2305.1442389996737,2.0,1.0,phase_3,,,,,68.0,2.0,102.0,204.0,34.0,68.0,136.0,170.0,white,circle
0.0,1.0,0.5,0.0,7.0,1.0,1417.7523250000377,2.0,1.0,phase_3,,,,,88.0,2.0,88.0,44.0,264.0,176.0,132.0,220.0,white,circle
0.0,1.0,0.5,0.0,7.0,4.0,1577.545778000058,2.0,1.0,phase_3,,,,,88.0,2.0,44.0,132.0,220.0,88.0,176.0,264.0,white,circle
0.0,6.0,1.0,1.0,7.0,1.0,1127.4566350002715,2.0,1.0,phase_3,,,,,34.0,1.0,34.0,102.0,136.0,170.0,204.0,68.0,yellow,square
0.0,6.0,1.0,1.0,7.0,3.0,1417.9203849998885,2.0,1.0,phase_3,,,,,54.0,1.0,108.0,216.0,54.0,162.0,270.0,324.0,yellow,square
0.0,5.0,0.5,1.0,7.0,1.0,1495.6235039999228,2.0,1.0,phase_3,,,,,49.0,1.0,49.0,196.0,294.0,245.0,147.0,98.0,blue,cross
0.0,8.0,4.0,1.0,7.0,1.0,1397.7953639996483,3.0,1.0,phase_3,,,,,204.0,6.0,204.0,170.0,68.0,102.0,34.0,136.0,cyan,flipped triangle
0.0,3.0,2.0,0.0,7.0,1.0,1698.497528000189,3.0,1.0,phase_3,,,,,245.0,5.0,245.0,294.0,98.0,196.0,147.0,49.0,magenta,triangle
0.0,5.0,0.5,1.0,7.0,6.0,938.7745189997077,3.0,1.0,phase_3,,,,,44.0,1.0,176.0,220.0,264.0,88.0,132.0,44.0,blue,cross
0.0,7.0,2.0,1.0,7.0,4.0,1634.1165539997746,3.0,1.0,phase_3,,,,,162.0,3.0,54.0,270.0,108.0,162.0,216.0,324.0,green,diamond
0.0,6.0,1.0,1.0,7.0,5.0,1657.6843120001286,3.0,1.0,phase_3,,,,,78.0,2.0,156.0,39.0,234.0,195.0,78.0,117.0,yellow,square
0.0,7.0,2.0,1.0,7.0,4.0,2009.8437629994805,3.0,1.0,phase_3,,,,,162.0,3.0,324.0,270.0,54.0,162.0,216.0,108.0,green,diamond
0.0,1.0,0.5,0.0,7.0,4.0,2029.389580000497,3.0,1.0,phase_3,,,,,54.0,1.0,216.0,162.0,108.0,54.0,324.0,270.0,white,circle
0.0,5.0,0.5,1.0,7.0,2.0,1615.205916999912,3.0,1.0,phase_3,,,,,54.0,1.0,108.0,54.0,324.0,270.0,162.0,216.0,blue,cross
0.0,3.0,2.0,0.0,7.0,6.0,2992.664787000649,3.0,1.0,phase_3,,,,,216.0,4.0,162.0,324.0,108.0,54.0,270.0,216.0,magenta,triangle
0.0,8.0,4.0,1.0,7.0,3.0,2199.8663670001406,3.0,1.0,phase_3,,,,,234.0,6.0,78.0,39.0,234.0,195.0,117.0,156.0,cyan,flipped triangle
0.0,6.0,1.0,1.0,7.0,5.0,1290.8977399993091,3.0,1.0,phase_3,,,,,98.0,2.0,294.0,49.0,196.0,147.0,98.0,245.0,yellow,square
0.0,4.0,4.0,0.0,7.0,4.0,1438.9851650003038,3.0,1.0,phase_3,,,,,264.0,6.0,44.0,132.0,88.0,264.0,220.0,176.0,gray,I
0.0,5.0,0.5,1.0,7.0,1.0,1227.352101000179,3.0,1.0,phase_3,,,,,49.0,1.0,49.0,98.0,245.0,294.0,196.0,147.0,blue,cross
0.0,2.0,1.0,0.0,7.0,5.0,1636.4423579998402,3.0,1.0,phase_3,,,,,162.0,3.0,216.0,108.0,324.0,54.0,162.0,270.0,orange,hexagon
0.0,8.0,4.0,1.0,7.0,1.0,1368.2361000001038,3.0,1.0,phase_3,,,,,264.0,6.0,264.0,88.0,220.0,44.0,132.0,176.0,cyan,flipped triangle
0.0,5.0,0.5,1.0,7.0,5.0,1217.5197280002976,3.0,1.0,phase_3,,,,,39.0,1.0,117.0,195.0,78.0,156.0,39.0,234.0,blue,cross
0.0,8.0,4.0,1.0,7.0,1.0,2568.1935479997264,3.0,1.0,phase_3,,,,,324.0,6.0,324.0,270.0,216.0,54.0,108.0,162.0,cyan,flipped triangle
0.0,7.0,2.0,1.0,7.0,6.0,2406.668814999648,3.0,1.0,phase_3,,,,,147.0,3.0,49.0,294.0,98.0,245.0,196.0,147.0,green,diamond
0.0,8.0,4.0,1.0,7.0,2.0,1972.6230169999328,3.0,1.0,phase_3,,,,,204.0,6.0,136.0,204.0,34.0,68.0,102.0,170.0,cyan,flipped triangle
0.0,2.0,1.0,0.0,7.0,1.0,1813.1729899996567,3.0,1.0,phase_3,,,,,136.0,4.0,136.0,170.0,102.0,204.0,34.0,68.0,orange,hexagon
0.0,7.0,2.0,1.0,7.0,5.0,1393.979329999638,4.0,1.0,phase_3,,,,,136.0,4.0,102.0,34.0,204.0,68.0,136.0,170.0,green,diamond
0.0,7.0,2.0,1.0,7.0,4.0,1635.1367329998538,4.0,1.0,phase_3,,,,,132.0,3.0,220.0,88.0,176.0,132.0,44.0,264.0,green,diamond
0.0,4.0,4.0,0.0,7.0,3.0,1502.000061000217,4.0,1.0,phase_3,,,,,245.0,5.0,147.0,98.0,245.0,49.0,196.0,294.0,gray,I
0.0,2.0,1.0,0.0,7.0,5.0,1206.0529379996296,4.0,1.0,phase_3,,,,,156.0,4.0,117.0,195.0,234.0,39.0,156.0,78.0,orange,hexagon
0.0,2.0,1.0,0.0,7.0,1.0,1461.0198050004328,4.0,1.0,phase_3,,,,,147.0,3.0,147.0,245.0,294.0,49.0,98.0,196.0,orange,hexagon
0.0,3.0,2.0,0.0,7.0,6.0,1844.7473129999707,4.0,1.0,phase_3,,,,,170.0,5.0,34.0,204.0,102.0,136.0,68.0,170.0,magenta,triangle
0.0,7.0,2.0,1.0,7.0,4.0,2392.201723000653,4.0,1.0,phase_3,,,,,132.0,3.0,264.0,88.0,176.0,132.0,220.0,44.0,green,diamond
0.0,2.0,1.0,0.0,7.0,3.0,1419.2340420004257,4.0,1.0,phase_3,,,,,156.0,4.0,195.0,39.0,156.0,78.0,234.0,117.0,orange,hexagon
0.0,6.0,1.0,1.0,7.0,4.0,1845.747049000238,4.0,1.0,phase_3,,,,,88.0,2.0,176.0,132.0,264.0,88.0,44.0,220.0,yellow,square
0.0,5.0,0.5,1.0,7.0,6.0,1916.3332970001647,4.0,1.0,phase_3,,,,,68.0,2.0,136.0,204.0,170.0,34.0,102.0,68.0,blue,cross
0.0,4.0,4.0,0.0,7.0,1.0,1339.0677729994422,4.0,1.0,phase_3,,,,,234.0,6.0,234.0,78.0,117.0,195.0,156.0,39.0,gray,I
0.0,8.0,4.0,1.0,7.0,5.0,1379.067949000273,4.0,1.0,phase_3,,,,,270.0,5.0,162.0,108.0,324.0,54.0,270.0,216.0,cyan,flipped triangle
0.0,4.0,4.0,0.0,7.0,4.0,1903.2698829996664,4.0,1.0,phase_3,,,,,264.0,6.0,132.0,176.0,88.0,264.0,44.0,220.0,gray,I
0.0,1.0,0.5,0.0,7.0,6.0,1544.06090700013,4.0,1.0,phase_3,,,,,78.0,2.0,195.0,156.0,234.0,117.0,39.0,78.0,white,circle
0.0,6.0,1.0,1.0,7.0,5.0,1503.8474719995063,4.0,1.0,phase_3,,,,,78.0,2.0,117.0,234.0,39.0,156.0,78.0,195.0,yellow,square
0.0,3.0,2.0,0.0,7.0,6.0,2311.269570999684,4.0,1.0,phase_3,,,,,117.0,3.0,195.0,39.0,234.0,156.0,78.0,117.0,magenta,triangle
0.0,8.0,4.0,1.0,7.0,1.0,1965.9819159996916,4.0,1.0,phase_3,,,,,220.0,5.0,220.0,132.0,88.0,176.0,44.0,264.0,cyan,flipped triangle
0.0,3.0,2.0,0.0,7.0,2.0,1599.8269600004278,4.0,1.0,phase_3,,,,,176.0,4.0,88.0,176.0,264.0,220.0,44.0,132.0,magenta,triangle
0.0,6.0,1.0,1.0,7.0,6.0,2644.139953999911,4.0,1.0,phase_3,,,,,102.0,3.0,170.0,136.0,68.0,34.0,204.0,102.0,yellow,square
0.0,6.0,1.0,1.0,7.0,4.0,1417.1890479992726,4.0,1.0,phase_3,,,,,108.0,2.0,324.0,54.0,270.0,108.0,216.0,162.0,yellow,square
