raw_reward_magnitude,stim_reward,stepwise_reward_magnitude,paired_with_stopping,stim_location,response,reaction_time,block,num_trial_presentations,which_phase,stop_signal_trial_type,left_SSD,right_SSD,accuracy,chosen_bidding_amount,chosen_bidding_level,possible_bid_1,possible_bid_2,possible_bid_3,possible_bid_4,possible_bid_5,possible_bid_6,color_text,shape_text
36.0,1.0,0.5,0.0,3.0,3.0,480.8800390019314,1.0,1.0,phase_1,,,,,,,,,,,,,white,I
391.0,4.0,4.0,0.0,3.0,3.0,370.9165029977157,1.0,1.0,phase_1,,,,,,,,,,,,,orange,cross
181.0,3.0,2.0,0.0,2.0,2.0,358.3075360002112,1.0,1.0,phase_1,,,,,,,,,,,,,green,diamond
0.0,7.0,0.0,1.0,1.0,1.0,322.92856499771,1.0,1.0,phase_1,,,,,,,,,,,,,magenta,circle
32.0,5.0,0.5,1.0,3.0,3.0,332.0346770015021,1.0,1.0,phase_1,,,,,,,,,,,,,blue,flipped triangle
101.0,6.0,1.0,1.0,4.0,4.0,364.5641669972974,1.0,1.0,phase_1,,,,,,,,,,,,,yellow,hexagon
96.0,6.0,1.0,1.0,4.0,4.0,332.6912779994018,1.0,1.0,phase_1,,,,,,,,,,,,,yellow,hexagon
103.0,6.0,1.0,1.0,2.0,2.0,245.4128509998554,1.0,1.0,phase_1,,,,,,,,,,,,,yellow,hexagon
37.0,5.0,0.5,1.0,1.0,1.0,261.0425220009347,1.0,1.0,phase_1,,,,,,,,,,,,,blue,flipped triangle
210.0,7.0,2.0,1.0,1.0,1.0,284.6649220009567,1.0,1.0,phase_1,,,,,,,,,,,,,magenta,circle
112.0,2.0,1.0,0.0,4.0,4.0,279.4001670008583,1.0,1.0,phase_1,,,,,,,,,,,,,cyan,square
390.0,4.0,4.0,0.0,4.0,4.0,279.2383560008602,1.0,1.0,phase_1,,,,,,,,,,,,,orange,cross
0.0,1.0,0.0,0.0,3.0,3.0,270.2416770007403,1.0,1.0,phase_1,,,,,,,,,,,,,white,I
72.0,1.0,0.5,0.0,1.0,1.0,295.6884800005355,1.0,1.0,phase_1,,,,,,,,,,,,,white,I
51.0,5.0,0.5,1.0,1.0,1.0,282.069398999738,1.0,1.0,phase_1,,,,,,,,,,,,,blue,flipped triangle
95.0,2.0,1.0,0.0,1.0,1.0,284.174073000031,1.0,1.0,phase_1,,,,,,,,,,,,,cyan,square
225.0,7.0,2.0,1.0,3.0,3.0,248.351771999296,1.0,1.0,phase_1,,,,,,,,,,,,,magenta,circle
409.0,4.0,4.0,0.0,3.0,3.0,337.0626590003667,1.0,1.0,phase_1,,,,,,,,,,,,,orange,cross
0.0,3.0,0.0,0.0,4.0,4.0,279.7981290023017,1.0,1.0,phase_1,,,,,,,,,,,,,green,diamond
0.0,2.0,0.0,0.0,2.0,2.0,269.5888810012548,1.0,1.0,phase_1,,,,,,,,,,,,,cyan,square
0.0,4.0,0.0,0.0,4.0,4.0,306.8709799990756,1.0,1.0,phase_1,,,,,,,,,,,,,orange,cross
401.0,4.0,4.0,0.0,3.0,3.0,276.6476300021168,1.0,1.0,phase_1,,,,,,,,,,,,,orange,cross
120.0,6.0,1.0,1.0,3.0,3.0,309.161748002225,1.0,1.0,phase_1,,,,,,,,,,,,,yellow,hexagon
96.0,2.0,1.0,0.0,1.0,1.0,293.5308929991151,1.0,1.0,phase_1,,,,,,,,,,,,,cyan,square
195.0,3.0,2.0,0.0,4.0,4.0,276.1439099995186,1.0,1.0,phase_1,,,,,,,,,,,,,green,diamond
409.0,4.0,4.0,0.0,3.0,3.0,241.2533550013904,1.0,1.0,phase_1,,,,,,,,,,,,,orange,cross
408.0,8.0,4.0,1.0,3.0,3.0,298.4859919997689,1.0,2.0,phase_1,,,,,,,,,,,,,gray,triangle
406.0,4.0,4.0,0.0,4.0,4.0,309.0395190010895,1.0,1.0,phase_1,,,,,,,,,,,,,orange,cross
0.0,6.0,0.0,1.0,4.0,4.0,276.5688340004999,1.0,1.0,phase_1,,,,,,,,,,,,,yellow,hexagon
102.0,6.0,1.0,1.0,4.0,4.0,323.2955780003976,1.0,1.0,phase_1,,,,,,,,,,,,,yellow,hexagon
0.0,6.0,0.0,1.0,2.0,2.0,299.7880289985914,1.0,1.0,phase_1,,,,,,,,,,,,,yellow,hexagon
393.0,8.0,4.0,1.0,3.0,3.0,275.9496580001723,1.0,1.0,phase_1,,,,,,,,,,,,,gray,triangle
51.0,5.0,0.5,1.0,4.0,4.0,248.1088640015514,1.0,1.0,phase_1,,,,,,,,,,,,,blue,flipped triangle
177.0,3.0,2.0,0.0,2.0,2.0,311.9052629990619,1.0,1.0,phase_1,,,,,,,,,,,,,green,diamond
59.0,1.0,0.5,0.0,4.0,4.0,264.547136001056,1.0,1.0,phase_1,,,,,,,,,,,,,white,I
109.0,6.0,1.0,1.0,3.0,3.0,262.4978439998813,1.0,1.0,phase_1,,,,,,,,,,,,,yellow,hexagon
0.0,8.0,0.0,1.0,4.0,4.0,360.376646000077,1.0,1.0,phase_1,,,,,,,,,,,,,gray,triangle
60.0,1.0,0.5,0.0,3.0,3.0,298.0375360020844,1.0,1.0,phase_1,,,,,,,,,,,,,white,I
209.0,7.0,2.0,1.0,2.0,2.0,351.40966200197,1.0,1.0,phase_1,,,,,,,,,,,,,magenta,circle
177.0,7.0,2.0,1.0,3.0,3.0,405.6160849977459,1.0,1.0,phase_1,,,,,,,,,,,,,magenta,circle
416.0,4.0,4.0,0.0,2.0,2.0,311.8704410007922,1.0,1.0,phase_1,,,,,,,,,,,,,orange,cross
106.0,6.0,1.0,1.0,3.0,3.0,502.05587100208504,1.0,1.0,phase_1,,,,,,,,,,,,,yellow,hexagon
56.0,5.0,0.5,1.0,4.0,4.0,233.7766630007536,1.0,2.0,phase_1,,,,,,,,,,,,,blue,flipped triangle
0.0,8.0,0.0,1.0,4.0,4.0,244.7896500016213,1.0,1.0,phase_1,,,,,,,,,,,,,gray,triangle
215.0,3.0,2.0,0.0,3.0,3.0,345.9913539991248,1.0,1.0,phase_1,,,,,,,,,,,,,green,diamond
177.0,7.0,2.0,1.0,1.0,1.0,244.4186620014079,1.0,1.0,phase_1,,,,,,,,,,,,,magenta,circle
0.0,3.0,0.0,0.0,2.0,2.0,295.3050229989458,1.0,1.0,phase_1,,,,,,,,,,,,,green,diamond
412.0,8.0,4.0,1.0,4.0,4.0,289.3490979986381,1.0,1.0,phase_1,,,,,,,,,,,,,gray,triangle
108.0,6.0,1.0,1.0,4.0,4.0,328.5771479968389,1.0,1.0,phase_1,,,,,,,,,,,,,yellow,hexagon
0.0,5.0,0.0,1.0,2.0,2.0,240.8904650001204,1.0,1.0,phase_1,,,,,,,,,,,,,blue,flipped triangle
59.0,1.0,0.5,0.0,3.0,3.0,322.5654870002472,1.0,1.0,phase_1,,,,,,,,,,,,,white,I
0.0,3.0,0.0,0.0,2.0,2.0,395.4162890004227,1.0,1.0,phase_1,,,,,,,,,,,,,green,diamond
225.0,3.0,2.0,0.0,1.0,1.0,278.6195910011884,1.0,1.0,phase_1,,,,,,,,,,,,,green,diamond
181.0,7.0,2.0,1.0,4.0,4.0,210.7384859991725,1.0,1.0,phase_1,,,,,,,,,,,,,magenta,circle
187.0,3.0,2.0,0.0,2.0,2.0,301.0173430011491,1.0,1.0,phase_1,,,,,,,,,,,,,green,diamond
65.0,1.0,0.5,0.0,2.0,2.0,249.3645180002204,1.0,1.0,phase_1,,,,,,,,,,,,,white,I
411.0,4.0,4.0,0.0,1.0,1.0,261.4751969995268,1.0,1.0,phase_1,,,,,,,,,,,,,orange,cross
218.0,7.0,2.0,1.0,4.0,4.0,319.7558140018373,1.0,1.0,phase_1,,,,,,,,,,,,,magenta,circle
83.0,6.0,1.0,1.0,3.0,3.0,443.850289000693,1.0,1.0,phase_1,,,,,,,,,,,,,yellow,hexagon
202.0,3.0,2.0,0.0,1.0,1.0,290.5442379997112,1.0,1.0,phase_1,,,,,,,,,,,,,green,diamond
118.0,2.0,1.0,0.0,2.0,2.0,244.3002690015419,1.0,1.0,phase_1,,,,,,,,,,,,,cyan,square
0.0,7.0,0.0,1.0,3.0,3.0,364.1261769989796,1.0,1.0,phase_1,,,,,,,,,,,,,magenta,circle
102.0,2.0,1.0,0.0,3.0,3.0,331.7137589983758,1.0,1.0,phase_1,,,,,,,,,,,,,cyan,square
68.0,1.0,0.5,0.0,1.0,1.0,238.6876400014443,1.0,1.0,phase_1,,,,,,,,,,,,,white,I
118.0,6.0,1.0,1.0,1.0,1.0,288.0798449987196,1.0,1.0,phase_1,,,,,,,,,,,,,yellow,hexagon
392.0,4.0,4.0,0.0,3.0,3.0,293.2947209992562,1.0,1.0,phase_1,,,,,,,,,,,,,orange,cross
122.0,6.0,1.0,1.0,1.0,1.0,235.0081730000965,1.0,1.0,phase_1,,,,,,,,,,,,,yellow,hexagon
36.0,5.0,0.5,1.0,1.0,1.0,306.4295250005671,1.0,1.0,phase_1,,,,,,,,,,,,,blue,flipped triangle
103.0,2.0,1.0,0.0,4.0,4.0,275.989801997639,1.0,1.0,phase_1,,,,,,,,,,,,,cyan,square
215.0,3.0,2.0,0.0,3.0,3.0,288.1172650013468,1.0,1.0,phase_1,,,,,,,,,,,,,green,diamond
382.0,8.0,4.0,1.0,2.0,2.0,268.8796870024816,1.0,1.0,phase_1,,,,,,,,,,,,,gray,triangle
0.0,4.0,0.0,0.0,4.0,4.0,352.3458170020603,1.0,1.0,phase_1,,,,,,,,,,,,,orange,cross
0.0,6.0,0.0,1.0,4.0,4.0,387.8083110030275,1.0,1.0,phase_1,,,,,,,,,,,,,yellow,hexagon
93.0,2.0,1.0,0.0,4.0,4.0,296.7815600022732,1.0,2.0,phase_1,,,,,,,,,,,,,cyan,square
0.0,2.0,0.0,0.0,1.0,1.0,284.3008540003211,1.0,1.0,phase_1,,,,,,,,,,,,,cyan,square
42.0,1.0,0.5,0.0,4.0,4.0,280.82920399901917,1.0,1.0,phase_1,,,,,,,,,,,,,white,I
110.0,2.0,1.0,0.0,2.0,2.0,268.0142859971965,1.0,1.0,phase_1,,,,,,,,,,,,,cyan,square
195.0,7.0,2.0,1.0,3.0,3.0,326.1704439973982,1.0,1.0,phase_1,,,,,,,,,,,,,magenta,circle
82.0,6.0,1.0,1.0,1.0,1.0,238.0442270005005,1.0,1.0,phase_1,,,,,,,,,,,,,yellow,hexagon
35.0,5.0,0.5,1.0,2.0,2.0,343.3625729994674,1.0,1.0,phase_1,,,,,,,,,,,,,blue,flipped triangle
186.0,3.0,2.0,0.0,2.0,2.0,296.5061540016904,1.0,1.0,phase_1,,,,,,,,,,,,,green,diamond
412.0,4.0,4.0,0.0,4.0,4.0,239.1183670006285,1.0,1.0,phase_1,,,,,,,,,,,,,orange,cross
175.0,3.0,2.0,0.0,2.0,2.0,249.0122839990363,1.0,2.0,phase_1,,,,,,,,,,,,,green,diamond
110.0,2.0,1.0,0.0,3.0,3.0,358.6637220032571,1.0,1.0,phase_1,,,,,,,,,,,,,cyan,square
200.0,3.0,2.0,0.0,3.0,3.0,328.481960001227,1.0,1.0,phase_1,,,,,,,,,,,,,green,diamond
90.0,6.0,1.0,1.0,2.0,2.0,271.4237010004581,1.0,1.0,phase_1,,,,,,,,,,,,,yellow,hexagon
214.0,7.0,2.0,1.0,4.0,4.0,256.7063729984511,1.0,1.0,phase_1,,,,,,,,,,,,,magenta,circle
396.0,8.0,4.0,1.0,4.0,4.0,327.3048330011079,1.0,1.0,phase_1,,,,,,,,,,,,,gray,triangle
25.0,5.0,0.5,1.0,3.0,3.0,284.9570799990033,1.0,1.0,phase_1,,,,,,,,,,,,,blue,flipped triangle
0.0,6.0,0.0,1.0,1.0,1.0,368.2248099976277,1.0,1.0,phase_1,,,,,,,,,,,,,yellow,hexagon
0.0,6.0,0.0,1.0,4.0,4.0,314.0911489972495,1.0,1.0,phase_1,,,,,,,,,,,,,yellow,hexagon
28.0,5.0,0.5,1.0,2.0,2.0,317.5324959993304,1.0,1.0,phase_1,,,,,,,,,,,,,blue,flipped triangle
28.0,1.0,0.5,0.0,4.0,4.0,284.0124889989965,1.0,2.0,phase_1,,,,,,,,,,,,,white,I
56.0,1.0,0.5,0.0,4.0,4.0,344.7385289982776,1.0,1.0,phase_1,,,,,,,,,,,,,white,I
0.0,8.0,0.0,1.0,1.0,1.0,272.3830989998532,1.0,1.0,phase_1,,,,,,,,,,,,,gray,triangle
58.0,5.0,0.5,1.0,4.0,4.0,313.3829990001686,1.0,1.0,phase_1,,,,,,,,,,,,,blue,flipped triangle
388.0,8.0,4.0,1.0,4.0,4.0,402.0862360011961,1.0,1.0,phase_1,,,,,,,,,,,,,gray,triangle
194.0,3.0,2.0,0.0,4.0,4.0,331.5745510008128,1.0,1.0,phase_1,,,,,,,,,,,,,green,diamond
73.0,1.0,0.5,0.0,3.0,3.0,297.8856499976245,1.0,1.0,phase_1,,,,,,,,,,,,,white,I
29.0,1.0,0.5,0.0,4.0,4.0,281.3417480028874,1.0,1.0,phase_1,,,,,,,,,,,,,white,I
377.0,8.0,4.0,1.0,1.0,1.0,337.8161260006891,2.0,1.0,phase_1,,,,,,,,,,,,,gray,triangle
202.0,7.0,2.0,1.0,1.0,1.0,360.3456219971122,2.0,1.0,phase_1,,,,,,,,,,,,,magenta,circle
391.0,8.0,4.0,1.0,4.0,4.0,297.804278001422,2.0,1.0,phase_1,,,,,,,,,,,,,gray,triangle
0.0,1.0,0.0,0.0,3.0,3.0,267.0703010007855,2.0,1.0,phase_1,,,,,,,,,,,,,white,I
221.0,7.0,2.0,1.0,3.0,3.0,269.0261930001725,2.0,1.0,phase_1,,,,,,,,,,,,,magenta,circle
401.0,8.0,4.0,1.0,1.0,1.0,294.4886730001599,2.0,1.0,phase_1,,,,,,,,,,,,,gray,triangle
397.0,4.0,4.0,0.0,2.0,2.0,288.3095260003756,2.0,1.0,phase_1,,,,,,,,,,,,,orange,cross
0.0,4.0,0.0,0.0,3.0,3.0,297.9171779988974,2.0,1.0,phase_1,,,,,,,,,,,,,orange,cross
65.0,5.0,0.5,1.0,3.0,3.0,257.0486949989572,2.0,1.0,phase_1,,,,,,,,,,,,,blue,flipped triangle
410.0,8.0,4.0,1.0,1.0,1.0,296.200463999412,2.0,1.0,phase_1,,,,,,,,,,,,,gray,triangle
68.0,5.0,0.5,1.0,1.0,1.0,375.6685539992759,2.0,1.0,phase_1,,,,,,,,,,,,,blue,flipped triangle
0.0,8.0,0.0,1.0,4.0,4.0,297.6443590014241,2.0,1.0,phase_1,,,,,,,,,,,,,gray,triangle
78.0,6.0,1.0,1.0,4.0,4.0,348.0953580001369,2.0,1.0,phase_1,,,,,,,,,,,,,yellow,hexagon
110.0,6.0,1.0,1.0,1.0,1.0,321.8786649995309,2.0,1.0,phase_1,,,,,,,,,,,,,yellow,hexagon
0.0,6.0,0.0,1.0,4.0,4.0,321.2181369999598,2.0,1.0,phase_1,,,,,,,,,,,,,yellow,hexagon
118.0,6.0,1.0,1.0,2.0,2.0,279.1826149987173,2.0,1.0,phase_1,,,,,,,,,,,,,yellow,hexagon
88.0,2.0,1.0,0.0,4.0,4.0,324.6738420020847,2.0,1.0,phase_1,,,,,,,,,,,,,cyan,square
73.0,5.0,0.5,1.0,2.0,2.0,269.8465930006932,2.0,1.0,phase_1,,,,,,,,,,,,,blue,flipped triangle
87.0,6.0,1.0,1.0,1.0,1.0,322.3771979974117,2.0,2.0,phase_1,,,,,,,,,,,,,yellow,hexagon
118.0,2.0,1.0,0.0,3.0,3.0,286.2550429999828,2.0,1.0,phase_1,,,,,,,,,,,,,cyan,square
177.0,7.0,2.0,1.0,2.0,2.0,318.4110010006407,2.0,1.0,phase_1,,,,,,,,,,,,,magenta,circle
404.0,8.0,4.0,1.0,4.0,4.0,466.7487480001,2.0,1.0,phase_1,,,,,,,,,,,,,gray,triangle
411.0,8.0,4.0,1.0,2.0,2.0,296.0010730021167,2.0,1.0,phase_1,,,,,,,,,,,,,gray,triangle
0.0,4.0,0.0,0.0,3.0,3.0,345.77691999948,2.0,1.0,phase_1,,,,,,,,,,,,,orange,cross
40.0,5.0,0.5,1.0,4.0,4.0,302.7630819997284,2.0,1.0,phase_1,,,,,,,,,,,,,blue,flipped triangle
224.0,7.0,2.0,1.0,4.0,4.0,387.0978179984377,2.0,1.0,phase_1,,,,,,,,,,,,,magenta,circle
221.0,3.0,2.0,0.0,1.0,1.0,260.1904949988238,2.0,1.0,phase_1,,,,,,,,,,,,,green,diamond
45.0,1.0,0.5,0.0,1.0,1.0,322.1957079986168,2.0,1.0,phase_1,,,,,,,,,,,,,white,I
206.0,3.0,2.0,0.0,1.0,1.0,290.0598790001822,2.0,2.0,phase_1,,,,,,,,,,,,,green,diamond
93.0,2.0,1.0,0.0,1.0,1.0,297.950348998711,2.0,1.0,phase_1,,,,,,,,,,,,,cyan,square
224.0,3.0,2.0,0.0,4.0,4.0,324.2495619997498,2.0,1.0,phase_1,,,,,,,,,,,,,green,diamond
79.0,2.0,1.0,0.0,2.0,2.0,280.3275779988325,2.0,1.0,phase_1,,,,,,,,,,,,,cyan,square
85.0,2.0,1.0,0.0,4.0,4.0,352.0674449973739,2.0,1.0,phase_1,,,,,,,,,,,,,cyan,square
0.0,1.0,0.0,0.0,4.0,4.0,305.7500770009937,2.0,1.0,phase_1,,,,,,,,,,,,,white,I
0.0,4.0,0.0,0.0,4.0,4.0,387.671215001319,2.0,1.0,phase_1,,,,,,,,,,,,,orange,cross
59.0,5.0,0.5,1.0,2.0,2.0,338.0842540027515,2.0,1.0,phase_1,,,,,,,,,,,,,blue,flipped triangle
416.0,8.0,4.0,1.0,1.0,1.0,286.0488260012062,2.0,1.0,phase_1,,,,,,,,,,,,,gray,triangle
93.0,6.0,1.0,1.0,4.0,4.0,274.9290309984644,2.0,1.0,phase_1,,,,,,,,,,,,,yellow,hexagon
106.0,2.0,1.0,0.0,2.0,2.0,281.0131610021926,2.0,1.0,phase_1,,,,,,,,,,,,,cyan,square
0.0,1.0,0.0,0.0,1.0,1.0,288.487318000989,2.0,1.0,phase_1,,,,,,,,,,,,,white,I
42.0,5.0,0.5,1.0,1.0,1.0,393.8389979994099,2.0,1.0,phase_1,,,,,,,,,,,,,blue,flipped triangle
120.0,2.0,1.0,0.0,2.0,2.0,413.9046329983102,2.0,1.0,phase_1,,,,,,,,,,,,,cyan,square
175.0,7.0,2.0,1.0,1.0,1.0,343.5557180018804,2.0,1.0,phase_1,,,,,,,,,,,,,magenta,circle
379.0,8.0,4.0,1.0,2.0,2.0,281.4411790022859,2.0,1.0,phase_1,,,,,,,,,,,,,gray,triangle
0.0,4.0,0.0,0.0,3.0,3.0,313.9533680005115,2.0,1.0,phase_1,,,,,,,,,,,,,orange,cross
48.0,1.0,0.5,0.0,3.0,3.0,516.0605640012363,2.0,1.0,phase_1,,,,,,,,,,,,,white,I
189.0,7.0,2.0,1.0,3.0,3.0,300.4225879994919,2.0,1.0,phase_1,,,,,,,,,,,,,magenta,circle
422.0,8.0,4.0,1.0,3.0,3.0,254.1460020001977,2.0,1.0,phase_1,,,,,,,,,,,,,gray,triangle
0.0,6.0,0.0,1.0,2.0,2.0,343.6743149977701,2.0,1.0,phase_1,,,,,,,,,,,,,yellow,hexagon
411.0,8.0,4.0,1.0,4.0,4.0,287.2310829989146,2.0,1.0,phase_1,,,,,,,,,,,,,gray,triangle
35.0,1.0,0.5,0.0,1.0,1.0,278.5907249999582,2.0,1.0,phase_1,,,,,,,,,,,,,white,I
194.0,7.0,2.0,1.0,1.0,1.0,266.82616800098907,2.0,1.0,phase_1,,,,,,,,,,,,,magenta,circle
0.0,7.0,0.0,1.0,3.0,3.0,266.114343998197,2.0,1.0,phase_1,,,,,,,,,,,,,magenta,circle
388.0,4.0,4.0,0.0,1.0,1.0,278.9349449994915,2.0,1.0,phase_1,,,,,,,,,,,,,orange,cross
26.0,1.0,0.5,0.0,1.0,1.0,290.543756000261,2.0,1.0,phase_1,,,,,,,,,,,,,white,I
42.0,1.0,0.5,0.0,2.0,2.0,350.1653890016314,2.0,1.0,phase_1,,,,,,,,,,,,,white,I
222.0,3.0,2.0,0.0,4.0,4.0,336.5022809994116,2.0,1.0,phase_1,,,,,,,,,,,,,green,diamond
42.0,5.0,0.5,1.0,4.0,4.0,391.09395100240357,2.0,1.0,phase_1,,,,,,,,,,,,,blue,flipped triangle
72.0,5.0,0.5,1.0,4.0,4.0,307.2806919990398,2.0,2.0,phase_1,,,,,,,,,,,,,blue,flipped triangle
106.0,2.0,1.0,0.0,3.0,3.0,324.6218770000268,2.0,1.0,phase_1,,,,,,,,,,,,,cyan,square
398.0,8.0,4.0,1.0,2.0,2.0,253.75210499987588,2.0,1.0,phase_1,,,,,,,,,,,,,gray,triangle
204.0,3.0,2.0,0.0,2.0,2.0,326.7999140007305,2.0,1.0,phase_1,,,,,,,,,,,,,green,diamond
221.0,3.0,2.0,0.0,4.0,4.0,347.6932040030078,2.0,1.0,phase_1,,,,,,,,,,,,,green,diamond
199.0,3.0,2.0,0.0,3.0,3.0,367.1472640016873,2.0,1.0,phase_1,,,,,,,,,,,,,green,diamond
37.0,1.0,0.5,0.0,2.0,2.0,299.3615060004231,2.0,1.0,phase_1,,,,,,,,,,,,,white,I
404.0,4.0,4.0,0.0,2.0,2.0,302.5148699998681,2.0,1.0,phase_1,,,,,,,,,,,,,orange,cross
209.0,3.0,2.0,0.0,4.0,4.0,433.2965990033699,2.0,1.0,phase_1,,,,,,,,,,,,,green,diamond
410.0,4.0,4.0,0.0,2.0,2.0,389.5100789995922,2.0,1.0,phase_1,,,,,,,,,,,,,orange,cross
0.0,8.0,0.0,1.0,3.0,3.0,284.7518039998249,2.0,1.0,phase_1,,,,,,,,,,,,,gray,triangle
0.0,1.0,0.0,0.0,4.0,4.0,330.9587919975456,2.0,1.0,phase_1,,,,,,,,,,,,,white,I
0.0,2.0,0.0,0.0,3.0,3.0,284.5398429999477,2.0,1.0,phase_1,,,,,,,,,,,,,cyan,square
60.0,5.0,0.5,1.0,3.0,3.0,305.3592780015606,2.0,1.0,phase_1,,,,,,,,,,,,,blue,flipped triangle
47.0,1.0,0.5,0.0,3.0,3.0,294.3745600023248,2.0,1.0,phase_1,,,,,,,,,,,,,white,I
418.0,4.0,4.0,0.0,4.0,4.0,326.9487680008751,2.0,1.0,phase_1,,,,,,,,,,,,,orange,cross
59.0,5.0,0.5,1.0,4.0,4.0,359.4093030005751,2.0,1.0,phase_1,,,,,,,,,,,,,blue,flipped triangle
377.0,4.0,4.0,0.0,4.0,4.0,355.1852419986971,2.0,1.0,phase_1,,,,,,,,,,,,,orange,cross
116.0,2.0,1.0,0.0,1.0,1.0,331.952316002571,2.0,1.0,phase_1,,,,,,,,,,,,,cyan,square
66.0,1.0,0.5,0.0,4.0,4.0,467.0099700015271,2.0,1.0,phase_1,,,,,,,,,,,,,white,I
195.0,3.0,2.0,0.0,1.0,1.0,322.6055380000616,2.0,1.0,phase_1,,,,,,,,,,,,,green,diamond
68.0,1.0,0.5,0.0,4.0,4.0,329.3464279995532,2.0,1.0,phase_1,,,,,,,,,,,,,white,I
74.0,1.0,0.5,0.0,3.0,3.0,359.2915419976634,2.0,1.0,phase_1,,,,,,,,,,,,,white,I
177.0,3.0,2.0,0.0,3.0,3.0,290.0852480015601,2.0,1.0,phase_1,,,,,,,,,,,,,green,diamond
420.0,4.0,4.0,0.0,4.0,4.0,320.7904850023624,2.0,1.0,phase_1,,,,,,,,,,,,,orange,cross
82.0,6.0,1.0,1.0,2.0,2.0,272.9604159976588,2.0,1.0,phase_1,,,,,,,,,,,,,yellow,hexagon
106.0,6.0,1.0,1.0,2.0,2.0,322.2771250002552,2.0,1.0,phase_1,,,,,,,,,,,,,yellow,hexagon
124.0,2.0,1.0,0.0,4.0,4.0,378.6793830004171,2.0,1.0,phase_1,,,,,,,,,,,,,cyan,square
0.0,2.0,0.0,0.0,1.0,1.0,253.4498940003686,2.0,1.0,phase_1,,,,,,,,,,,,,cyan,square
26.0,5.0,0.5,1.0,4.0,4.0,527.0746540008986,2.0,1.0,phase_1,,,,,,,,,,,,,blue,flipped triangle
0.0,7.0,0.0,1.0,4.0,4.0,318.9538799997535,2.0,1.0,phase_1,,,,,,,,,,,,,magenta,circle
35.0,5.0,0.5,1.0,3.0,3.0,335.6625300002633,2.0,1.0,phase_1,,,,,,,,,,,,,blue,flipped triangle
177.0,3.0,2.0,0.0,3.0,3.0,302.8002530008962,2.0,1.0,phase_1,,,,,,,,,,,,,green,diamond
198.0,3.0,2.0,0.0,1.0,1.0,326.110306999908,2.0,1.0,phase_1,,,,,,,,,,,,,green,diamond
412.0,4.0,4.0,0.0,1.0,1.0,314.8635430006834,2.0,1.0,phase_1,,,,,,,,,,,,,orange,cross
225.0,3.0,2.0,0.0,1.0,1.0,265.8036559987522,2.0,1.0,phase_1,,,,,,,,,,,,,green,diamond
0.0,8.0,0.0,1.0,4.0,4.0,483.5863840016827,2.0,1.0,phase_1,,,,,,,,,,,,,gray,triangle
194.0,7.0,2.0,1.0,4.0,4.0,282.7937049987667,2.0,1.0,phase_1,,,,,,,,,,,,,magenta,circle
0.0,5.0,0.0,1.0,3.0,3.0,313.4944699995685,2.0,1.0,phase_1,,,,,,,,,,,,,blue,flipped triangle
59.0,5.0,0.5,1.0,2.0,2.0,343.5675370019453,2.0,1.0,phase_1,,,,,,,,,,,,,blue,flipped triangle
0.0,3.0,0.0,0.0,3.0,3.0,338.7821120013541,2.0,1.0,phase_1,,,,,,,,,,,,,green,diamond
0.0,7.0,0.0,1.0,2.0,2.0,490.2124700020067,2.0,1.0,phase_1,,,,,,,,,,,,,magenta,circle
218.0,3.0,2.0,0.0,3.0,3.0,397.8155839977262,3.0,1.0,phase_1,,,,,,,,,,,,,green,diamond
106.0,2.0,1.0,0.0,1.0,1.0,304.2742039979202,3.0,1.0,phase_1,,,,,,,,,,,,,cyan,square
406.0,8.0,4.0,1.0,1.0,1.0,263.130587998603,3.0,1.0,phase_1,,,,,,,,,,,,,gray,triangle
60.0,5.0,0.5,1.0,4.0,4.0,367.543349002517,3.0,1.0,phase_1,,,,,,,,,,,,,blue,flipped triangle
393.0,4.0,4.0,0.0,3.0,3.0,405.1038559991866,3.0,1.0,phase_1,,,,,,,,,,,,,orange,cross
80.0,2.0,1.0,0.0,3.0,3.0,283.6906499978795,3.0,1.0,phase_1,,,,,,,,,,,,,cyan,square
101.0,2.0,1.0,0.0,4.0,4.0,315.3770749995601,3.0,1.0,phase_1,,,,,,,,,,,,,cyan,square
79.0,6.0,1.0,1.0,4.0,4.0,459.9747909996949,3.0,1.0,phase_1,,,,,,,,,,,,,yellow,hexagon
397.0,8.0,4.0,1.0,4.0,4.0,275.4860339991865,3.0,1.0,phase_1,,,,,,,,,,,,,gray,triangle
392.0,8.0,4.0,1.0,1.0,1.0,272.4229289997311,3.0,1.0,phase_1,,,,,,,,,,,,,gray,triangle
0.0,5.0,0.0,1.0,4.0,4.0,383.353104996786,3.0,1.0,phase_1,,,,,,,,,,,,,blue,flipped triangle
80.0,6.0,1.0,1.0,3.0,3.0,322.010424999462,3.0,1.0,phase_1,,,,,,,,,,,,,yellow,hexagon
181.0,7.0,2.0,1.0,1.0,1.0,248.6646600009407,3.0,1.0,phase_1,,,,,,,,,,,,,magenta,circle
186.0,7.0,2.0,1.0,1.0,1.0,305.655898002442,3.0,1.0,phase_1,,,,,,,,,,,,,magenta,circle
29.0,5.0,0.5,1.0,3.0,3.0,307.1398419997422,3.0,1.0,phase_1,,,,,,,,,,,,,blue,flipped triangle
102.0,6.0,1.0,1.0,3.0,3.0,277.2800349994213,3.0,1.0,phase_1,,,,,,,,,,,,,yellow,hexagon
83.0,2.0,1.0,0.0,1.0,1.0,256.4759320011944,3.0,1.0,phase_1,,,,,,,,,,,,,cyan,square
0.0,5.0,0.0,1.0,1.0,1.0,270.8565829998406,3.0,1.0,phase_1,,,,,,,,,,,,,blue,flipped triangle
408.0,4.0,4.0,0.0,4.0,4.0,387.4474959993677,3.0,1.0,phase_1,,,,,,,,,,,,,orange,cross
0.0,4.0,0.0,0.0,1.0,1.0,310.752315002901,3.0,1.0,phase_1,,,,,,,,,,,,,orange,cross
0.0,5.0,0.0,1.0,1.0,1.0,370.3705199986871,3.0,1.0,phase_1,,,,,,,,,,,,,blue,flipped triangle
0.0,2.0,0.0,0.0,3.0,3.0,261.398636001104,3.0,1.0,phase_1,,,,,,,,,,,,,cyan,square
104.0,6.0,1.0,1.0,3.0,3.0,371.39330699938,3.0,1.0,phase_1,,,,,,,,,,,,,yellow,hexagon
379.0,4.0,4.0,0.0,2.0,2.0,431.4911360015685,3.0,1.0,phase_1,,,,,,,,,,,,,orange,cross
177.0,7.0,2.0,1.0,4.0,4.0,423.2659989975218,3.0,1.0,phase_1,,,,,,,,,,,,,magenta,circle
210.0,3.0,2.0,0.0,4.0,4.0,296.6577440020046,3.0,1.0,phase_1,,,,,,,,,,,,,green,diamond
409.0,8.0,4.0,1.0,3.0,3.0,300.7953189990076,3.0,1.0,phase_1,,,,,,,,,,,,,gray,triangle
0.0,7.0,0.0,1.0,1.0,1.0,263.7324909992458,3.0,1.0,phase_1,,,,,,,,,,,,,magenta,circle
61.0,1.0,0.5,0.0,1.0,1.0,260.0475569997797,3.0,1.0,phase_1,,,,,,,,,,,,,white,I
120.0,2.0,1.0,0.0,1.0,1.0,298.4892909989867,3.0,1.0,phase_1,,,,,,,,,,,,,cyan,square
78.0,2.0,1.0,0.0,4.0,4.0,424.1183850026573,3.0,1.0,phase_1,,,,,,,,,,,,,cyan,square
0.0,8.0,0.0,1.0,2.0,2.0,293.6668100010138,3.0,1.0,phase_1,,,,,,,,,,,,,gray,triangle
0.0,4.0,0.0,0.0,3.0,3.0,333.7766769982409,3.0,1.0,phase_1,,,,,,,,,,,,,orange,cross
409.0,8.0,4.0,1.0,1.0,1.0,205.2911739992851,3.0,1.0,phase_1,,,,,,,,,,,,,gray,triangle
95.0,6.0,1.0,1.0,3.0,3.0,262.0650759999989,3.0,1.0,phase_1,,,,,,,,,,,,,yellow,hexagon
51.0,1.0,0.5,0.0,3.0,3.0,303.9895219990285,3.0,1.0,phase_1,,,,,,,,,,,,,white,I
221.0,7.0,2.0,1.0,2.0,2.0,323.7366639987158,3.0,1.0,phase_1,,,,,,,,,,,,,magenta,circle
417.0,4.0,4.0,0.0,1.0,1.0,273.8872110021475,3.0,1.0,phase_1,,,,,,,,,,,,,orange,cross
74.0,5.0,0.5,1.0,4.0,4.0,272.6478669974312,3.0,1.0,phase_1,,,,,,,,,,,,,blue,flipped triangle
88.0,6.0,1.0,1.0,3.0,3.0,293.4929420007393,3.0,1.0,phase_1,,,,,,,,,,,,,yellow,hexagon
377.0,4.0,4.0,0.0,1.0,1.0,242.2257360012736,3.0,1.0,phase_1,,,,,,,,,,,,,orange,cross
0.0,5.0,0.0,1.0,4.0,4.0,218.1260440011101,3.0,1.0,phase_1,,,,,,,,,,,,,blue,flipped triangle
74.0,1.0,0.5,0.0,4.0,4.0,297.4552500018035,3.0,1.0,phase_1,,,,,,,,,,,,,white,I
220.0,7.0,2.0,1.0,2.0,2.0,242.24001900074649,3.0,1.0,phase_1,,,,,,,,,,,,,magenta,circle
42.0,5.0,0.5,1.0,2.0,2.0,241.1050560003786,3.0,1.0,phase_1,,,,,,,,,,,,,blue,flipped triangle
116.0,6.0,1.0,1.0,2.0,2.0,258.3266400033608,3.0,1.0,phase_1,,,,,,,,,,,,,yellow,hexagon
422.0,8.0,4.0,1.0,3.0,3.0,312.2444090004137,3.0,1.0,phase_1,,,,,,,,,,,,,gray,triangle
0.0,2.0,0.0,0.0,3.0,3.0,253.7082689996168,3.0,1.0,phase_1,,,,,,,,,,,,,cyan,square
0.0,5.0,0.0,1.0,4.0,4.0,324.6523089983384,3.0,1.0,phase_1,,,,,,,,,,,,,blue,flipped triangle
379.0,8.0,4.0,1.0,3.0,3.0,252.5841159986157,3.0,1.0,phase_1,,,,,,,,,,,,,gray,triangle
395.0,8.0,4.0,1.0,2.0,2.0,414.3319600007089,3.0,1.0,phase_1,,,,,,,,,,,,,gray,triangle
206.0,7.0,2.0,1.0,4.0,4.0,340.7497850021173,3.0,1.0,phase_1,,,,,,,,,,,,,magenta,circle
0.0,3.0,0.0,0.0,3.0,3.0,993.3133859994996,3.0,2.0,phase_1,,,,,,,,,,,,,green,diamond
60.0,1.0,0.5,0.0,1.0,1.0,563.7786730003427,3.0,1.0,phase_1,,,,,,,,,,,,,white,I
0.0,4.0,0.0,0.0,2.0,2.0,552.8206589988258,3.0,1.0,phase_1,,,,,,,,,,,,,orange,cross
214.0,3.0,2.0,0.0,3.0,3.0,394.9881570006255,3.0,1.0,phase_1,,,,,,,,,,,,,green,diamond
74.0,5.0,0.5,1.0,3.0,3.0,340.306142999907,3.0,1.0,phase_1,,,,,,,,,,,,,blue,flipped triangle
400.0,8.0,4.0,1.0,3.0,3.0,398.674807001953,3.0,1.0,phase_1,,,,,,,,,,,,,gray,triangle
380.0,8.0,4.0,1.0,2.0,2.0,338.4294340030465,3.0,1.0,phase_1,,,,,,,,,,,,,gray,triangle
0.0,1.0,0.0,0.0,4.0,4.0,350.2546459967561,3.0,1.0,phase_1,,,,,,,,,,,,,white,I
78.0,6.0,1.0,1.0,1.0,1.0,355.151449002733,3.0,1.0,phase_1,,,,,,,,,,,,,yellow,hexagon
0.0,5.0,0.0,1.0,2.0,2.0,224.7286569981952,3.0,1.0,phase_1,,,,,,,,,,,,,blue,flipped triangle
39.0,1.0,0.5,0.0,2.0,2.0,343.0924710010004,3.0,1.0,phase_1,,,,,,,,,,,,,white,I
0.0,5.0,0.0,1.0,3.0,3.0,365.7938679971266,3.0,1.0,phase_1,,,,,,,,,,,,,blue,flipped triangle
189.0,3.0,2.0,0.0,2.0,2.0,314.9763790024735,3.0,1.0,phase_1,,,,,,,,,,,,,green,diamond
0.0,1.0,0.0,0.0,3.0,3.0,314.1891070008569,3.0,1.0,phase_1,,,,,,,,,,,,,white,I
41.0,1.0,0.5,0.0,3.0,3.0,320.9537859984266,3.0,1.0,phase_1,,,,,,,,,,,,,white,I
200.0,7.0,2.0,1.0,2.0,2.0,295.0167149974732,3.0,1.0,phase_1,,,,,,,,,,,,,magenta,circle
106.0,6.0,1.0,1.0,2.0,2.0,396.344239001337,3.0,1.0,phase_1,,,,,,,,,,,,,yellow,hexagon
395.0,4.0,4.0,0.0,1.0,1.0,299.2821189982351,3.0,1.0,phase_1,,,,,,,,,,,,,orange,cross
0.0,4.0,0.0,0.0,4.0,4.0,407.8711949987337,3.0,1.0,phase_1,,,,,,,,,,,,,orange,cross
90.0,6.0,1.0,1.0,1.0,1.0,311.7485139991913,3.0,1.0,phase_1,,,,,,,,,,,,,yellow,hexagon
51.0,1.0,0.5,0.0,1.0,1.0,276.6398150015448,3.0,1.0,phase_1,,,,,,,,,,,,,white,I
210.0,7.0,2.0,1.0,4.0,4.0,276.7227180011105,3.0,1.0,phase_1,,,,,,,,,,,,,magenta,circle
411.0,4.0,4.0,0.0,2.0,2.0,445.8790889984811,3.0,1.0,phase_1,,,,,,,,,,,,,orange,cross
418.0,8.0,4.0,1.0,2.0,2.0,353.081569999631,3.0,1.0,phase_1,,,,,,,,,,,,,gray,triangle
396.0,4.0,4.0,0.0,1.0,1.0,336.8264199998521,3.0,1.0,phase_1,,,,,,,,,,,,,orange,cross
222.0,7.0,2.0,1.0,2.0,2.0,298.4156370002893,3.0,1.0,phase_1,,,,,,,,,,,,,magenta,circle
195.0,7.0,2.0,1.0,2.0,2.0,272.4327120013186,3.0,1.0,phase_1,,,,,,,,,,,,,magenta,circle
85.0,6.0,1.0,1.0,3.0,3.0,313.3814209977572,3.0,1.0,phase_1,,,,,,,,,,,,,yellow,hexagon
59.0,1.0,0.5,0.0,4.0,4.0,442.4940659991989,3.0,1.0,phase_1,,,,,,,,,,,,,white,I
90.0,2.0,1.0,0.0,3.0,3.0,525.7510930023273,3.0,1.0,phase_1,,,,,,,,,,,,,cyan,square
0.0,2.0,0.0,0.0,1.0,1.0,277.3247750010341,3.0,1.0,phase_1,,,,,,,,,,,,,cyan,square
42.0,1.0,0.5,0.0,2.0,2.0,312.9430260014487,3.0,1.0,phase_1,,,,,,,,,,,,,white,I
0.0,8.0,0.0,1.0,4.0,4.0,322.4080460022378,3.0,1.0,phase_1,,,,,,,,,,,,,gray,triangle
181.0,3.0,2.0,0.0,3.0,3.0,352.300627000659,3.0,1.0,phase_1,,,,,,,,,,,,,green,diamond
90.0,2.0,1.0,0.0,3.0,3.0,378.6808559998462,3.0,1.0,phase_1,,,,,,,,,,,,,cyan,square
395.0,4.0,4.0,0.0,2.0,2.0,341.1599109967937,3.0,1.0,phase_1,,,,,,,,,,,,,orange,cross
199.0,7.0,2.0,1.0,2.0,2.0,312.4168730028032,3.0,1.0,phase_1,,,,,,,,,,,,,magenta,circle
194.0,3.0,2.0,0.0,2.0,2.0,291.0169520000636,3.0,1.0,phase_1,,,,,,,,,,,,,green,diamond
0.0,3.0,0.0,0.0,4.0,4.0,250.93635600205738,3.0,2.0,phase_1,,,,,,,,,,,,,green,diamond
0.0,6.0,0.0,1.0,1.0,1.0,247.9653369991865,3.0,1.0,phase_1,,,,,,,,,,,,,yellow,hexagon
113.0,2.0,1.0,0.0,3.0,3.0,324.6065860003,3.0,1.0,phase_1,,,,,,,,,,,,,cyan,square
0.0,2.0,0.0,0.0,4.0,4.0,280.0033320017974,3.0,1.0,phase_1,,,,,,,,,,,,,cyan,square
31.0,1.0,0.5,0.0,1.0,1.0,245.9799680000287,3.0,1.0,phase_1,,,,,,,,,,,,,white,I
50.0,1.0,0.5,0.0,2.0,2.0,236.1050949984928,3.0,1.0,phase_1,,,,,,,,,,,,,white,I
398.0,4.0,4.0,0.0,2.0,2.0,305.1541710010497,3.0,1.0,phase_1,,,,,,,,,,,,,orange,cross
66.0,5.0,0.5,1.0,3.0,3.0,414.1448520022095,3.0,1.0,phase_1,,,,,,,,,,,,,blue,flipped triangle
412.0,8.0,4.0,1.0,1.0,1.0,275.7154270002502,3.0,1.0,phase_1,,,,,,,,,,,,,gray,triangle
0.0,3.0,0.0,0.0,4.0,4.0,262.7966129984997,3.0,1.0,phase_1,,,,,,,,,,,,,green,diamond
0.0,1.0,0.0,0.0,3.0,3.0,555.5236950021936,4.0,1.0,phase_1,,,,,,,,,,,,,white,I
124.0,6.0,1.0,1.0,2.0,2.0,529.5382240001345,4.0,1.0,phase_1,,,,,,,,,,,,,yellow,hexagon
178.0,7.0,2.0,1.0,3.0,3.0,342.9069739977421,4.0,2.0,phase_1,,,,,,,,,,,,,magenta,circle
0.0,2.0,0.0,0.0,1.0,1.0,367.3826720005309,4.0,1.0,phase_1,,,,,,,,,,,,,cyan,square
39.0,5.0,0.5,1.0,1.0,1.0,309.7952829994028,4.0,1.0,phase_1,,,,,,,,,,,,,blue,flipped triangle
415.0,8.0,4.0,1.0,2.0,2.0,400.2463370015903,4.0,1.0,phase_1,,,,,,,,,,,,,gray,triangle
379.0,4.0,4.0,0.0,3.0,3.0,296.8870999975479,4.0,1.0,phase_1,,,,,,,,,,,,,orange,cross
423.0,4.0,4.0,0.0,4.0,4.0,347.5187709991587,4.0,1.0,phase_1,,,,,,,,,,,,,orange,cross
112.0,6.0,1.0,1.0,4.0,4.0,390.9710070001893,4.0,1.0,phase_1,,,,,,,,,,,,,yellow,hexagon
58.0,1.0,0.5,0.0,2.0,2.0,438.5795529997267,4.0,1.0,phase_1,,,,,,,,,,,,,white,I
192.0,3.0,2.0,0.0,3.0,3.0,344.5232560006843,4.0,1.0,phase_1,,,,,,,,,,,,,green,diamond
422.0,4.0,4.0,0.0,2.0,2.0,338.2981190006831,4.0,1.0,phase_1,,,,,,,,,,,,,orange,cross
183.0,3.0,2.0,0.0,1.0,1.0,320.3387540015683,4.0,1.0,phase_1,,,,,,,,,,,,,green,diamond
196.0,7.0,2.0,1.0,3.0,3.0,443.0105009996623,4.0,1.0,phase_1,,,,,,,,,,,,,magenta,circle
82.0,2.0,1.0,0.0,1.0,1.0,251.8166640002164,4.0,1.0,phase_1,,,,,,,,,,,,,cyan,square
47.0,5.0,0.5,1.0,2.0,2.0,366.9871319980302,4.0,1.0,phase_1,,,,,,,,,,,,,blue,flipped triangle
415.0,4.0,4.0,0.0,1.0,1.0,374.5808630010288,4.0,1.0,phase_1,,,,,,,,,,,,,orange,cross
93.0,6.0,1.0,1.0,1.0,1.0,358.3595210002386,4.0,1.0,phase_1,,,,,,,,,,,,,yellow,hexagon
50.0,5.0,0.5,1.0,3.0,3.0,302.9842510004528,4.0,1.0,phase_1,,,,,,,,,,,,,blue,flipped triangle
113.0,6.0,1.0,1.0,4.0,4.0,302.7550799997698,4.0,1.0,phase_1,,,,,,,,,,,,,yellow,hexagon
0.0,3.0,0.0,0.0,3.0,3.0,346.8671849987004,4.0,1.0,phase_1,,,,,,,,,,,,,green,diamond
90.0,2.0,1.0,0.0,2.0,2.0,292.9940040012297,4.0,1.0,phase_1,,,,,,,,,,,,,cyan,square
0.0,1.0,0.0,0.0,1.0,1.0,275.3557670002919,4.0,1.0,phase_1,,,,,,,,,,,,,white,I
122.0,2.0,1.0,0.0,2.0,2.0,460.070913999516,4.0,1.0,phase_1,,,,,,,,,,,,,cyan,square
215.0,7.0,2.0,1.0,4.0,4.0,300.4563469985442,4.0,1.0,phase_1,,,,,,,,,,,,,magenta,circle
183.0,7.0,2.0,1.0,4.0,4.0,370.8875029988121,4.0,1.0,phase_1,,,,,,,,,,,,,magenta,circle
225.0,7.0,2.0,1.0,1.0,1.0,436.3525449989538,4.0,1.0,phase_1,,,,,,,,,,,,,magenta,circle
381.0,8.0,4.0,1.0,3.0,3.0,446.2586209992878,4.0,1.0,phase_1,,,,,,,,,,,,,gray,triangle
389.0,4.0,4.0,0.0,1.0,1.0,388.4626929975638,4.0,1.0,phase_1,,,,,,,,,,,,,orange,cross
420.0,8.0,4.0,1.0,1.0,1.0,960.065275998204,4.0,1.0,phase_1,,,,,,,,,,,,,gray,triangle
0.0,5.0,0.0,1.0,2.0,2.0,381.0934400025871,4.0,1.0,phase_1,,,,,,,,,,,,,blue,flipped triangle
389.0,8.0,4.0,1.0,1.0,1.0,453.4742280011414,4.0,1.0,phase_1,,,,,,,,,,,,,gray,triangle
210.0,3.0,2.0,0.0,2.0,2.0,444.7306900001422,4.0,1.0,phase_1,,,,,,,,,,,,,green,diamond
102.0,2.0,1.0,0.0,3.0,3.0,420.2911319989653,4.0,1.0,phase_1,,,,,,,,,,,,,cyan,square
422.0,4.0,4.0,0.0,3.0,3.0,379.5276309974724,4.0,1.0,phase_1,,,,,,,,,,,,,orange,cross
0.0,2.0,0.0,0.0,1.0,1.0,342.1666450012708,4.0,1.0,phase_1,,,,,,,,,,,,,cyan,square
41.0,5.0,0.5,1.0,1.0,1.0,501.3423239979602,4.0,1.0,phase_1,,,,,,,,,,,,,blue,flipped triangle
31.0,5.0,0.5,1.0,1.0,1.0,287.994324000465,4.0,1.0,phase_1,,,,,,,,,,,,,blue,flipped triangle
78.0,2.0,1.0,0.0,2.0,2.0,328.4790949983289,4.0,1.0,phase_1,,,,,,,,,,,,,cyan,square
35.0,1.0,0.5,0.0,2.0,2.0,471.3735789991915,4.0,1.0,phase_1,,,,,,,,,,,,,white,I
400.0,4.0,4.0,0.0,4.0,4.0,327.014736001729,4.0,1.0,phase_1,,,,,,,,,,,,,orange,cross
25.0,1.0,0.5,0.0,2.0,2.0,296.6693050002504,4.0,1.0,phase_1,,,,,,,,,,,,,white,I
58.0,5.0,0.5,1.0,2.0,2.0,413.4636519993364,4.0,1.0,phase_1,,,,,,,,,,,,,blue,flipped triangle
58.0,1.0,0.5,0.0,4.0,4.0,349.0149799981736,4.0,1.0,phase_1,,,,,,,,,,,,,white,I
90.0,6.0,1.0,1.0,1.0,1.0,306.3415049982723,4.0,1.0,phase_1,,,,,,,,,,,,,yellow,hexagon
198.0,7.0,2.0,1.0,3.0,3.0,579.7494199978246,4.0,1.0,phase_1,,,,,,,,,,,,,magenta,circle
0.0,7.0,0.0,1.0,3.0,3.0,322.369574001641,4.0,1.0,phase_1,,,,,,,,,,,,,magenta,circle
381.0,4.0,4.0,0.0,3.0,3.0,236.7804519999481,4.0,1.0,phase_1,,,,,,,,,,,,,orange,cross
204.0,7.0,2.0,1.0,1.0,1.0,316.2915190005151,4.0,1.0,phase_1,,,,,,,,,,,,,magenta,circle
196.0,3.0,2.0,0.0,1.0,1.0,292.0748279975669,4.0,1.0,phase_1,,,,,,,,,,,,,green,diamond
55.0,5.0,0.5,1.0,1.0,1.0,507.4992789996031,4.0,1.0,phase_1,,,,,,,,,,,,,blue,flipped triangle
0.0,8.0,0.0,1.0,1.0,1.0,297.7912130008917,4.0,1.0,phase_1,,,,,,,,,,,,,gray,triangle
218.0,7.0,2.0,1.0,1.0,1.0,285.1186049992975,4.0,1.0,phase_1,,,,,,,,,,,,,magenta,circle
0.0,6.0,0.0,1.0,1.0,1.0,197.8330290003214,4.0,1.0,phase_1,,,,,,,,,,,,,yellow,hexagon
0.0,1.0,0.0,0.0,3.0,3.0,323.7744460020622,4.0,1.0,phase_1,,,,,,,,,,,,,white,I
0.0,6.0,0.0,1.0,1.0,1.0,300.3497429999697,4.0,1.0,phase_1,,,,,,,,,,,,,yellow,hexagon
110.0,6.0,1.0,1.0,1.0,1.0,330.7586909977544,4.0,1.0,phase_1,,,,,,,,,,,,,yellow,hexagon
396.0,8.0,4.0,1.0,3.0,3.0,315.0933479992091,4.0,1.0,phase_1,,,,,,,,,,,,,gray,triangle
88.0,2.0,1.0,0.0,2.0,2.0,319.451373998163,4.0,1.0,phase_1,,,,,,,,,,,,,cyan,square
0.0,8.0,0.0,1.0,3.0,3.0,309.2834359995322,4.0,1.0,phase_1,,,,,,,,,,,,,gray,triangle
108.0,2.0,1.0,0.0,4.0,4.0,307.8294370025105,4.0,1.0,phase_1,,,,,,,,,,,,,cyan,square
377.0,8.0,4.0,1.0,2.0,2.0,323.2865520003543,4.0,1.0,phase_1,,,,,,,,,,,,,gray,triangle
393.0,4.0,4.0,0.0,1.0,1.0,430.3950680005073,4.0,1.0,phase_1,,,,,,,,,,,,,orange,cross
417.0,8.0,4.0,1.0,2.0,2.0,457.7953920015716,4.0,1.0,phase_1,,,,,,,,,,,,,gray,triangle
0.0,7.0,0.0,1.0,1.0,1.0,288.6644580030406,4.0,1.0,phase_1,,,,,,,,,,,,,magenta,circle
218.0,3.0,2.0,0.0,1.0,1.0,257.9265949971159,4.0,1.0,phase_1,,,,,,,,,,,,,green,diamond
103.0,6.0,1.0,1.0,4.0,4.0,307.3761609994108,4.0,1.0,phase_1,,,,,,,,,,,,,yellow,hexagon
209.0,3.0,2.0,0.0,4.0,4.0,285.7120410008065,4.0,1.0,phase_1,,,,,,,,,,,,,green,diamond
192.0,7.0,2.0,1.0,2.0,2.0,326.3116620000801,4.0,1.0,phase_1,,,,,,,,,,,,,magenta,circle
0.0,7.0,0.0,1.0,1.0,1.0,264.2905669999891,4.0,1.0,phase_1,,,,,,,,,,,,,magenta,circle
88.0,6.0,1.0,1.0,2.0,2.0,387.1589619993756,4.0,1.0,phase_1,,,,,,,,,,,,,yellow,hexagon
87.0,2.0,1.0,0.0,3.0,3.0,355.6628639998962,4.0,1.0,phase_1,,,,,,,,,,,,,cyan,square
32.0,1.0,0.5,0.0,3.0,3.0,379.7976429996197,4.0,1.0,phase_1,,,,,,,,,,,,,white,I
61.0,5.0,0.5,1.0,1.0,1.0,229.3568120003328,4.0,1.0,phase_1,,,,,,,,,,,,,blue,flipped triangle
380.0,4.0,4.0,0.0,4.0,4.0,230.801852998411,4.0,1.0,phase_1,,,,,,,,,,,,,orange,cross
48.0,5.0,0.5,1.0,3.0,3.0,396.1929459983366,4.0,1.0,phase_1,,,,,,,,,,,,,blue,flipped triangle
177.0,3.0,2.0,0.0,2.0,2.0,341.3429409993114,4.0,1.0,phase_1,,,,,,,,,,,,,green,diamond
423.0,8.0,4.0,1.0,4.0,4.0,369.160472000658,4.0,1.0,phase_1,,,,,,,,,,,,,gray,triangle
109.0,2.0,1.0,0.0,1.0,1.0,272.999880999123,4.0,1.0,phase_1,,,,,,,,,,,,,cyan,square
390.0,8.0,4.0,1.0,4.0,4.0,333.26146100080217,4.0,1.0,phase_1,,,,,,,,,,,,,gray,triangle
104.0,2.0,1.0,0.0,2.0,2.0,283.9717820024816,4.0,1.0,phase_1,,,,,,,,,,,,,cyan,square
68.0,5.0,0.5,1.0,2.0,2.0,277.8360420015815,4.0,1.0,phase_1,,,,,,,,,,,,,blue,flipped triangle
395.0,8.0,4.0,1.0,4.0,4.0,326.5955720016791,4.0,1.0,phase_1,,,,,,,,,,,,,gray,triangle
45.0,5.0,0.5,1.0,2.0,2.0,281.3755880015378,4.0,1.0,phase_1,,,,,,,,,,,,,blue,flipped triangle
178.0,3.0,2.0,0.0,4.0,4.0,350.6966380009544,4.0,1.0,phase_1,,,,,,,,,,,,,green,diamond
0.0,3.0,0.0,0.0,2.0,2.0,386.1124020004354,4.0,1.0,phase_1,,,,,,,,,,,,,green,diamond
220.0,3.0,2.0,0.0,4.0,4.0,338.9520279997668,4.0,1.0,phase_1,,,,,,,,,,,,,green,diamond
382.0,4.0,4.0,0.0,2.0,2.0,393.3585029990354,4.0,1.0,phase_1,,,,,,,,,,,,,orange,cross
103.0,2.0,1.0,0.0,1.0,1.0,363.8217089974205,4.0,1.0,phase_1,,,,,,,,,,,,,cyan,square
82.0,2.0,1.0,0.0,4.0,4.0,350.9015410018037,4.0,1.0,phase_1,,,,,,,,,,,,,cyan,square
187.0,7.0,2.0,1.0,3.0,3.0,306.7617830020026,4.0,1.0,phase_1,,,,,,,,,,,,,magenta,circle
40.0,1.0,0.5,0.0,2.0,2.0,253.45668900263257,4.0,1.0,phase_1,,,,,,,,,,,,,white,I
396.0,4.0,4.0,0.0,3.0,3.0,297.8436740013421,4.0,1.0,phase_1,,,,,,,,,,,,,orange,cross
0.0,3.0,0.0,0.0,2.0,2.0,303.7047279976832,4.0,1.0,phase_1,,,,,,,,,,,,,green,diamond
215.0,7.0,2.0,1.0,2.0,2.0,299.1878539978643,4.0,1.0,phase_1,,,,,,,,,,,,,magenta,circle
393.0,8.0,4.0,1.0,3.0,3.0,288.9917930006049,4.0,1.0,phase_1,,,,,,,,,,,,,gray,triangle
0.0,7.0,0.0,1.0,4.0,4.0,344.388584002445,4.0,1.0,phase_1,,,,,,,,,,,,,magenta,circle
120.0,6.0,1.0,1.0,2.0,2.0,312.1394139998301,4.0,1.0,phase_1,,,,,,,,,,,,,yellow,hexagon
209.0,7.0,2.0,1.0,3.0,3.0,286.0512639999797,4.0,1.0,phase_1,,,,,,,,,,,,,magenta,circle
55.0,1.0,0.5,0.0,1.0,1.0,312.7019720013777,4.0,1.0,phase_1,,,,,,,,,,,,,white,I
0.0,6.0,1.0,1.0,6.0,6.0,399.6070430002874,1.0,1.0,phase_2,stop,250.0,250.0,3.0,,,,,,,,,yellow,hexagon
0.0,3.0,2.0,0.0,6.0,6.0,425.4775110021001,1.0,1.0,phase_2,go,250.0,200.0,1.0,,,,,,,,,green,diamond
0.0,2.0,1.0,0.0,6.0,6.0,278.8288979973004,1.0,1.0,phase_2,go,250.0,200.0,1.0,,,,,,,,,cyan,square
0.0,4.0,4.0,0.0,6.0,6.0,269.5769220008515,1.0,1.0,phase_2,go,250.0,200.0,1.0,,,,,,,,,orange,cross
0.0,8.0,4.0,1.0,5.0,5.0,392.9599250004685,1.0,1.0,phase_2,stop,250.0,200.0,3.0,,,,,,,,,gray,triangle
0.0,1.0,0.5,0.0,5.0,5.0,707.8871339981561,1.0,1.0,phase_2,go,200.0,200.0,1.0,,,,,,,,,white,I
0.0,5.0,0.5,1.0,5.0,5.0,331.3331270001072,1.0,1.0,phase_2,stop,200.0,200.0,3.0,,,,,,,,,blue,flipped triangle
0.0,6.0,1.0,1.0,5.0,0.0,0.0,1.0,1.0,phase_2,stop,150.0,200.0,4.0,,,,,,,,,yellow,hexagon
0.0,8.0,4.0,1.0,6.0,0.0,0.0,1.0,1.0,phase_2,stop,200.0,200.0,4.0,,,,,,,,,gray,triangle
0.0,2.0,1.0,0.0,6.0,6.0,359.5974469972134,1.0,1.0,phase_2,go,200.0,250.0,1.0,,,,,,,,,cyan,square
0.0,7.0,2.0,1.0,6.0,0.0,0.0,1.0,1.0,phase_2,stop,200.0,250.0,4.0,,,,,,,,,magenta,circle
0.0,2.0,1.0,0.0,6.0,6.0,642.069977002393,1.0,1.0,phase_2,go,200.0,300.0,1.0,,,,,,,,,cyan,square
0.0,7.0,2.0,1.0,6.0,0.0,0.0,1.0,1.0,phase_2,stop,200.0,300.0,4.0,,,,,,,,,magenta,circle
0.0,7.0,2.0,1.0,5.0,0.0,0.0,1.0,1.0,phase_2,stop,200.0,350.0,4.0,,,,,,,,,magenta,circle
0.0,6.0,1.0,1.0,6.0,6.0,431.100759000401,1.0,1.0,phase_2,stop,250.0,350.0,3.0,,,,,,,,,yellow,hexagon
0.0,8.0,4.0,1.0,5.0,5.0,503.09361499967054,1.0,1.0,phase_2,go,250.0,300.0,1.0,,,,,,,,,gray,triangle
0.0,8.0,4.0,1.0,5.0,0.0,0.0,1.0,1.0,phase_2,stop,250.0,300.0,4.0,,,,,,,,,gray,triangle
0.0,8.0,4.0,1.0,5.0,0.0,0.0,1.0,1.0,phase_2,stop,300.0,300.0,4.0,,,,,,,,,gray,triangle
0.0,7.0,2.0,1.0,6.0,0.0,0.0,1.0,1.0,phase_2,stop,350.0,300.0,4.0,,,,,,,,,magenta,circle
0.0,2.0,1.0,0.0,5.0,5.0,593.5764179994294,1.0,1.0,phase_2,go,350.0,350.0,1.0,,,,,,,,,cyan,square
0.0,7.0,2.0,1.0,6.0,6.0,617.4173750005139,1.0,1.0,phase_2,go,350.0,350.0,1.0,,,,,,,,,magenta,circle
0.0,8.0,4.0,1.0,5.0,5.0,743.7719640001887,1.0,1.0,phase_2,stop,350.0,350.0,3.0,,,,,,,,,gray,triangle
0.0,4.0,4.0,0.0,5.0,5.0,540.2200249991438,1.0,1.0,phase_2,go,300.0,350.0,1.0,,,,,,,,,orange,cross
0.0,5.0,0.5,1.0,6.0,6.0,577.7447450018371,1.0,1.0,phase_2,go,300.0,350.0,1.0,,,,,,,,,blue,flipped triangle
0.0,7.0,2.0,1.0,6.0,0.0,0.0,1.0,1.0,phase_2,stop,300.0,350.0,4.0,,,,,,,,,magenta,circle
0.0,4.0,4.0,0.0,6.0,6.0,499.9222739970719,1.0,1.0,phase_2,go,300.0,400.0,1.0,,,,,,,,,orange,cross
0.0,5.0,0.5,1.0,5.0,0.0,0.0,1.0,1.0,phase_2,stop,300.0,400.0,4.0,,,,,,,,,blue,flipped triangle
0.0,6.0,1.0,1.0,6.0,0.0,0.0,1.0,1.0,phase_2,stop,350.0,400.0,4.0,,,,,,,,,yellow,hexagon
0.0,6.0,1.0,1.0,6.0,0.0,0.0,1.0,1.0,phase_2,stop,350.0,450.0,4.0,,,,,,,,,yellow,hexagon
0.0,1.0,0.5,0.0,5.0,5.0,530.0961969987839,1.0,1.0,phase_2,go,350.0,500.0,1.0,,,,,,,,,white,I
0.0,3.0,2.0,0.0,5.0,5.0,584.0042409981834,1.0,1.0,phase_2,go,350.0,500.0,1.0,,,,,,,,,green,diamond
0.0,7.0,2.0,1.0,5.0,5.0,678.2057220007118,1.0,1.0,phase_2,go,350.0,500.0,1.0,,,,,,,,,magenta,circle
0.0,1.0,0.5,0.0,5.0,5.0,548.2912429979478,1.0,1.0,phase_2,go,350.0,500.0,1.0,,,,,,,,,white,I
0.0,4.0,4.0,0.0,5.0,5.0,473.451212998043,1.0,1.0,phase_2,go,350.0,500.0,1.0,,,,,,,,,orange,cross
0.0,3.0,2.0,0.0,5.0,5.0,582.2867909992056,1.0,1.0,phase_2,go,350.0,500.0,1.0,,,,,,,,,green,diamond
0.0,4.0,4.0,0.0,6.0,6.0,525.615269998525,1.0,1.0,phase_2,go,350.0,500.0,1.0,,,,,,,,,orange,cross
0.0,2.0,1.0,0.0,5.0,5.0,369.7240409965161,2.0,1.0,phase_2,go,350.0,500.0,1.0,,,,,,,,,cyan,square
0.0,6.0,1.0,1.0,5.0,0.0,0.0,2.0,1.0,phase_2,stop,350.0,500.0,4.0,,,,,,,,,yellow,hexagon
0.0,2.0,1.0,0.0,6.0,6.0,376.2386240014166,2.0,1.0,phase_2,go,400.0,500.0,1.0,,,,,,,,,cyan,square
0.0,1.0,0.5,0.0,5.0,5.0,396.9167089999246,2.0,1.0,phase_2,go,400.0,500.0,1.0,,,,,,,,,white,I
0.0,7.0,2.0,1.0,6.0,6.0,559.9007420023554,2.0,1.0,phase_2,stop,400.0,500.0,3.0,,,,,,,,,magenta,circle
0.0,5.0,0.5,1.0,6.0,0.0,0.0,2.0,1.0,phase_2,stop,400.0,450.0,4.0,,,,,,,,,blue,flipped triangle
0.0,4.0,4.0,0.0,6.0,6.0,448.2860649986833,2.0,1.0,phase_2,go,400.0,500.0,1.0,,,,,,,,,orange,cross
0.0,8.0,4.0,1.0,6.0,6.0,579.4343439993099,2.0,1.0,phase_2,go,400.0,500.0,1.0,,,,,,,,,gray,triangle
0.0,3.0,2.0,0.0,5.0,5.0,615.3753939979651,2.0,1.0,phase_2,go,400.0,500.0,1.0,,,,,,,,,green,diamond
0.0,7.0,2.0,1.0,6.0,6.0,641.3149110012455,2.0,1.0,phase_2,stop,400.0,500.0,3.0,,,,,,,,,magenta,circle
0.0,8.0,4.0,1.0,6.0,6.0,723.1170430022758,2.0,1.0,phase_2,go,400.0,450.0,1.0,,,,,,,,,gray,triangle
0.0,7.0,2.0,1.0,5.0,0.0,0.0,2.0,1.0,phase_2,stop,400.0,450.0,4.0,,,,,,,,,magenta,circle
0.0,2.0,1.0,0.0,5.0,5.0,591.4475960016716,2.0,1.0,phase_2,go,450.0,450.0,1.0,,,,,,,,,cyan,square
0.0,7.0,2.0,1.0,6.0,0.0,0.0,2.0,1.0,phase_2,stop,450.0,450.0,4.0,,,,,,,,,magenta,circle
0.0,7.0,2.0,1.0,6.0,0.0,0.0,2.0,1.0,phase_2,stop,450.0,500.0,4.0,,,,,,,,,magenta,circle
0.0,6.0,1.0,1.0,6.0,6.0,751.0821260002558,2.0,1.0,phase_2,go,450.0,550.0,1.0,,,,,,,,,yellow,hexagon
0.0,6.0,1.0,1.0,5.0,0.0,0.0,2.0,1.0,phase_2,stop,450.0,550.0,4.0,,,,,,,,,yellow,hexagon
0.0,2.0,1.0,0.0,5.0,5.0,710.6517719985277,2.0,1.0,phase_2,go,500.0,550.0,1.0,,,,,,,,,cyan,square
0.0,1.0,0.5,0.0,6.0,6.0,636.2505680008326,2.0,1.0,phase_2,go,500.0,550.0,1.0,,,,,,,,,white,I
0.0,5.0,0.5,1.0,5.0,5.0,607.5191589989117,2.0,1.0,phase_2,stop,500.0,550.0,3.0,,,,,,,,,blue,flipped triangle
0.0,2.0,1.0,0.0,6.0,6.0,575.6314139980532,2.0,1.0,phase_2,go,450.0,550.0,1.0,,,,,,,,,cyan,square
0.0,3.0,2.0,0.0,6.0,6.0,648.8355349974881,2.0,1.0,phase_2,go,450.0,550.0,1.0,,,,,,,,,green,diamond
0.0,3.0,2.0,0.0,5.0,5.0,566.5685179992579,2.0,1.0,phase_2,go,450.0,550.0,1.0,,,,,,,,,green,diamond
0.0,2.0,1.0,0.0,5.0,5.0,496.8944890024431,2.0,1.0,phase_2,go,450.0,550.0,1.0,,,,,,,,,cyan,square
0.0,8.0,4.0,1.0,6.0,6.0,453.2398840019596,2.0,1.0,phase_2,stop,450.0,550.0,3.0,,,,,,,,,gray,triangle
0.0,1.0,0.5,0.0,6.0,6.0,509.82302999909734,2.0,1.0,phase_2,go,450.0,500.0,1.0,,,,,,,,,white,I
0.0,8.0,4.0,1.0,5.0,5.0,503.3709630006342,2.0,1.0,phase_2,stop,450.0,500.0,3.0,,,,,,,,,gray,triangle
0.0,5.0,0.5,1.0,5.0,5.0,428.8956499985943,2.0,1.0,phase_2,go,400.0,500.0,1.0,,,,,,,,,blue,flipped triangle
0.0,2.0,1.0,0.0,6.0,6.0,534.2767450019892,2.0,1.0,phase_2,go,400.0,500.0,1.0,,,,,,,,,cyan,square
0.0,1.0,0.5,0.0,5.0,5.0,600.5595579990768,2.0,1.0,phase_2,go,400.0,500.0,1.0,,,,,,,,,white,I
0.0,5.0,0.5,1.0,5.0,5.0,437.6008600011118,2.0,1.0,phase_2,stop,400.0,500.0,3.0,,,,,,,,,blue,flipped triangle
0.0,2.0,1.0,0.0,5.0,5.0,447.9776629996195,2.0,1.0,phase_2,go,350.0,500.0,1.0,,,,,,,,,cyan,square
0.0,7.0,2.0,1.0,5.0,0.0,0.0,2.0,1.0,phase_2,stop,350.0,500.0,4.0,,,,,,,,,magenta,circle
0.0,4.0,4.0,0.0,5.0,5.0,611.9992640014971,2.0,1.0,phase_2,go,400.0,500.0,1.0,,,,,,,,,orange,cross
0.0,5.0,0.5,1.0,5.0,5.0,679.2421710015333,2.0,1.0,phase_2,go,400.0,500.0,1.0,,,,,,,,,blue,flipped triangle
0.0,5.0,0.5,1.0,6.0,0.0,0.0,2.0,1.0,phase_2,stop,400.0,500.0,4.0,,,,,,,,,blue,flipped triangle
0.0,5.0,0.5,1.0,5.0,5.0,905.8516709992546,3.0,1.0,phase_2,stop,400.0,550.0,3.0,,,,,,,,,blue,flipped triangle
0.0,4.0,4.0,0.0,6.0,6.0,434.6035479975398,3.0,1.0,phase_2,go,350.0,550.0,1.0,,,,,,,,,orange,cross
0.0,6.0,1.0,1.0,6.0,6.0,348.8659470021957,3.0,1.0,phase_2,go,350.0,550.0,1.0,,,,,,,,,yellow,hexagon
0.0,6.0,1.0,1.0,5.0,0.0,0.0,3.0,1.0,phase_2,stop,350.0,550.0,4.0,,,,,,,,,yellow,hexagon
0.0,1.0,0.5,0.0,6.0,6.0,686.0121360004996,3.0,1.0,phase_2,go,400.0,550.0,1.0,,,,,,,,,white,I
0.0,5.0,0.5,1.0,5.0,0.0,0.0,3.0,1.0,phase_2,stop,400.0,550.0,4.0,,,,,,,,,blue,flipped triangle
0.0,8.0,4.0,1.0,5.0,5.0,501.84597500265227,3.0,1.0,phase_2,stop,450.0,550.0,3.0,,,,,,,,,gray,triangle
0.0,4.0,4.0,0.0,5.0,5.0,644.1124689990829,3.0,1.0,phase_2,go,400.0,550.0,1.0,,,,,,,,,orange,cross
0.0,3.0,2.0,0.0,5.0,5.0,649.3559379996441,3.0,1.0,phase_2,go,400.0,550.0,1.0,,,,,,,,,green,diamond
0.0,4.0,4.0,0.0,6.0,6.0,686.7844820008031,3.0,1.0,phase_2,go,400.0,550.0,1.0,,,,,,,,,orange,cross
0.0,7.0,2.0,1.0,6.0,6.0,800.5844750005053,3.0,1.0,phase_2,go,400.0,550.0,1.0,,,,,,,,,magenta,circle
0.0,5.0,0.5,1.0,6.0,0.0,0.0,3.0,1.0,phase_2,stop,400.0,550.0,4.0,,,,,,,,,blue,flipped triangle
0.0,2.0,1.0,0.0,5.0,5.0,693.4141500023543,3.0,1.0,phase_2,go,400.0,600.0,1.0,,,,,,,,,cyan,square
0.0,8.0,4.0,1.0,5.0,0.0,0.0,3.0,1.0,phase_2,stop,400.0,600.0,4.0,,,,,,,,,gray,triangle
0.0,3.0,2.0,0.0,6.0,6.0,581.3425600026676,3.0,1.0,phase_2,go,450.0,600.0,1.0,,,,,,,,,green,diamond
0.0,7.0,2.0,1.0,6.0,0.0,0.0,3.0,1.0,phase_2,stop,450.0,600.0,4.0,,,,,,,,,magenta,circle
0.0,8.0,4.0,1.0,5.0,0.0,0.0,3.0,1.0,phase_2,stop,450.0,650.0,4.0,,,,,,,,,gray,triangle
0.0,7.0,2.0,1.0,5.0,5.0,637.6839889999246,3.0,1.0,phase_2,go,500.0,650.0,1.0,,,,,,,,,magenta,circle
0.0,3.0,2.0,0.0,5.0,5.0,792.7787350017752,3.0,1.0,phase_2,go,500.0,650.0,1.0,,,,,,,,,green,diamond
0.0,4.0,4.0,0.0,5.0,5.0,673.2628380013921,3.0,1.0,phase_2,go,500.0,650.0,1.0,,,,,,,,,orange,cross
0.0,8.0,4.0,1.0,6.0,6.0,827.1315540005162,3.0,1.0,phase_2,go,500.0,650.0,1.0,,,,,,,,,gray,triangle
0.0,6.0,1.0,1.0,5.0,0.0,0.0,3.0,1.0,phase_2,stop,500.0,650.0,4.0,,,,,,,,,yellow,hexagon
0.0,2.0,1.0,0.0,6.0,6.0,645.5905660004646,3.0,1.0,phase_2,go,550.0,650.0,1.0,,,,,,,,,cyan,square
0.0,6.0,1.0,1.0,5.0,0.0,0.0,3.0,1.0,phase_2,stop,550.0,650.0,4.0,,,,,,,,,yellow,hexagon
0.0,3.0,2.0,0.0,6.0,6.0,571.0598659970856,3.0,1.0,phase_2,go,600.0,650.0,1.0,,,,,,,,,green,diamond
0.0,5.0,0.5,1.0,5.0,5.0,679.1181369990227,3.0,1.0,phase_2,stop,600.0,650.0,3.0,,,,,,,,,blue,flipped triangle
0.0,4.0,4.0,0.0,6.0,6.0,943.8309930010292,3.0,1.0,phase_2,go,550.0,650.0,1.0,,,,,,,,,orange,cross
0.0,5.0,0.5,1.0,5.0,5.0,1107.2585510009958,3.0,1.0,phase_2,go,550.0,650.0,1.0,,,,,,,,,blue,flipped triangle
0.0,6.0,1.0,1.0,6.0,6.0,727.5649119983427,3.0,1.0,phase_2,stop,550.0,650.0,3.0,,,,,,,,,yellow,hexagon
0.0,4.0,4.0,0.0,5.0,5.0,480.6897240014223,3.0,1.0,phase_2,go,550.0,600.0,1.0,,,,,,,,,orange,cross
0.0,5.0,0.5,1.0,6.0,6.0,700.2766500008875,3.0,1.0,phase_2,stop,550.0,600.0,3.0,,,,,,,,,blue,flipped triangle
0.0,8.0,4.0,1.0,5.0,5.0,678.0429690006713,3.0,1.0,phase_2,go,550.0,550.0,1.0,,,,,,,,,gray,triangle
0.0,4.0,4.0,0.0,6.0,6.0,680.6264670012752,3.0,1.0,phase_2,go,550.0,550.0,1.0,,,,,,,,,orange,cross
0.0,2.0,1.0,0.0,6.0,6.0,795.0501490013266,3.0,1.0,phase_2,go,550.0,550.0,1.0,,,,,,,,,cyan,square
0.0,2.0,1.0,0.0,6.0,6.0,751.5069649998622,3.0,1.0,phase_2,go,550.0,550.0,1.0,,,,,,,,,cyan,square
0.0,6.0,1.0,1.0,5.0,0.0,0.0,3.0,1.0,phase_2,stop,550.0,550.0,4.0,,,,,,,,,yellow,hexagon
0.0,1.0,0.5,0.0,5.0,5.0,700.7818950005458,4.0,1.0,phase_2,go,600.0,550.0,1.0,,,,,,,,,white,I
0.0,8.0,4.0,1.0,6.0,6.0,397.9133680004452,4.0,1.0,phase_2,stop,600.0,550.0,3.0,,,,,,,,,gray,triangle
0.0,3.0,2.0,0.0,5.0,5.0,448.7089790018217,4.0,1.0,phase_2,go,600.0,500.0,1.0,,,,,,,,,green,diamond
0.0,7.0,2.0,1.0,5.0,5.0,719.2522369987273,4.0,1.0,phase_2,stop,600.0,500.0,3.0,,,,,,,,,magenta,circle
0.0,8.0,4.0,1.0,5.0,5.0,440.2015209998353,4.0,1.0,phase_2,stop,550.0,500.0,3.0,,,,,,,,,gray,triangle
0.0,2.0,1.0,0.0,5.0,5.0,536.7538650025381,4.0,1.0,phase_2,go,500.0,500.0,1.0,,,,,,,,,cyan,square
0.0,4.0,4.0,0.0,6.0,6.0,412.496826997085,4.0,1.0,phase_2,go,500.0,500.0,1.0,,,,,,,,,orange,cross
0.0,1.0,0.5,0.0,6.0,6.0,592.9811040005006,4.0,1.0,phase_2,go,500.0,500.0,1.0,,,,,,,,,white,I
0.0,8.0,4.0,1.0,5.0,5.0,465.2040239998314,4.0,1.0,phase_2,stop,500.0,500.0,3.0,,,,,,,,,gray,triangle
0.0,3.0,2.0,0.0,6.0,6.0,304.6429009991698,4.0,1.0,phase_2,go,450.0,500.0,1.0,,,,,,,,,green,diamond
0.0,2.0,1.0,0.0,6.0,6.0,543.4779700008221,4.0,1.0,phase_2,go,450.0,500.0,1.0,,,,,,,,,cyan,square
0.0,4.0,4.0,0.0,5.0,5.0,528.290898000705,4.0,1.0,phase_2,go,450.0,500.0,1.0,,,,,,,,,orange,cross
0.0,1.0,0.5,0.0,5.0,5.0,621.8340269988403,4.0,1.0,phase_2,go,450.0,500.0,1.0,,,,,,,,,white,I
0.0,5.0,0.5,1.0,6.0,0.0,0.0,4.0,1.0,phase_2,stop,450.0,500.0,4.0,,,,,,,,,blue,flipped triangle
0.0,5.0,0.5,1.0,5.0,5.0,342.9244899998593,4.0,1.0,phase_2,stop,450.0,550.0,3.0,,,,,,,,,blue,flipped triangle
0.0,4.0,4.0,0.0,6.0,6.0,379.7493500023847,4.0,1.0,phase_2,go,400.0,550.0,1.0,,,,,,,,,orange,cross
0.0,2.0,1.0,0.0,6.0,6.0,696.6303440021875,4.0,1.0,phase_2,go,400.0,550.0,1.0,,,,,,,,,cyan,square
0.0,3.0,2.0,0.0,6.0,6.0,811.2992870010203,4.0,1.0,phase_2,go,400.0,550.0,1.0,,,,,,,,,green,diamond
0.0,2.0,1.0,0.0,5.0,5.0,807.4238840017642,4.0,1.0,phase_2,go,400.0,550.0,1.0,,,,,,,,,cyan,square
0.0,7.0,2.0,1.0,5.0,0.0,0.0,4.0,1.0,phase_2,stop,400.0,550.0,4.0,,,,,,,,,magenta,circle
0.0,6.0,1.0,1.0,5.0,0.0,0.0,4.0,1.0,phase_2,stop,450.0,550.0,4.0,,,,,,,,,yellow,hexagon
0.0,5.0,0.5,1.0,6.0,0.0,0.0,4.0,1.0,phase_2,stop,500.0,550.0,4.0,,,,,,,,,blue,flipped triangle
0.0,2.0,1.0,0.0,5.0,5.0,757.6061699983256,4.0,1.0,phase_2,go,500.0,600.0,1.0,,,,,,,,,cyan,square
0.0,5.0,0.5,1.0,5.0,5.0,683.7461249997432,4.0,1.0,phase_2,go,500.0,600.0,1.0,,,,,,,,,blue,flipped triangle
0.0,7.0,2.0,1.0,5.0,5.0,371.492442998715,4.0,1.0,phase_2,go,500.0,600.0,1.0,,,,,,,,,magenta,circle
0.0,5.0,0.5,1.0,6.0,6.0,536.504222000076,4.0,1.0,phase_2,stop,500.0,600.0,3.0,,,,,,,,,blue,flipped triangle
0.0,8.0,4.0,1.0,6.0,6.0,540.4712679992372,4.0,1.0,phase_2,stop,500.0,550.0,3.0,,,,,,,,,gray,triangle
0.0,4.0,4.0,0.0,5.0,5.0,423.6932540006819,4.0,1.0,phase_2,go,500.0,500.0,1.0,,,,,,,,,orange,cross
0.0,4.0,4.0,0.0,5.0,5.0,325.3373839979758,4.0,1.0,phase_2,go,500.0,500.0,1.0,,,,,,,,,orange,cross
0.0,1.0,0.5,0.0,6.0,6.0,514.2833739992057,4.0,1.0,phase_2,go,500.0,500.0,1.0,,,,,,,,,white,I
0.0,1.0,0.5,0.0,5.0,5.0,335.9755349993065,4.0,1.0,phase_2,go,500.0,500.0,1.0,,,,,,,,,white,I
0.0,4.0,4.0,0.0,5.0,5.0,521.7960759982816,4.0,1.0,phase_2,go,500.0,500.0,1.0,,,,,,,,,orange,cross
0.0,6.0,1.0,1.0,5.0,5.0,322.2921490014414,4.0,1.0,phase_2,stop,500.0,500.0,3.0,,,,,,,,,yellow,hexagon
0.0,4.0,4.0,0.0,6.0,6.0,516.955423001491,4.0,1.0,phase_2,go,450.0,500.0,1.0,,,,,,,,,orange,cross
0.0,8.0,4.0,1.0,5.0,5.0,521.5695609986142,4.0,1.0,phase_2,stop,450.0,500.0,3.0,,,,,,,,,gray,triangle
0.0,6.0,1.0,1.0,5.0,5.0,604.2056709993631,4.0,1.0,phase_2,go,400.0,500.0,1.0,,,,,,,,,yellow,hexagon
0.0,1.0,0.5,0.0,5.0,5.0,529.4753640009731,5.0,1.0,phase_2,go,400.0,500.0,1.0,,,,,,,,,white,I
0.0,1.0,0.5,0.0,6.0,6.0,395.815643001697,5.0,1.0,phase_2,go,400.0,500.0,1.0,,,,,,,,,white,I
0.0,8.0,4.0,1.0,6.0,6.0,531.4043639991723,5.0,1.0,phase_2,stop,400.0,500.0,3.0,,,,,,,,,gray,triangle
0.0,6.0,1.0,1.0,5.0,5.0,745.7124889988336,5.0,1.0,phase_2,go,400.0,450.0,1.0,,,,,,,,,yellow,hexagon
0.0,2.0,1.0,0.0,5.0,5.0,823.4400220026146,5.0,1.0,phase_2,go,400.0,450.0,1.0,,,,,,,,,cyan,square
0.0,1.0,0.5,0.0,5.0,5.0,569.6172999996634,5.0,1.0,phase_2,go,400.0,450.0,1.0,,,,,,,,,white,I
0.0,6.0,1.0,1.0,6.0,6.0,485.8194389998971,5.0,1.0,phase_2,stop,400.0,450.0,3.0,,,,,,,,,yellow,hexagon
0.0,4.0,4.0,0.0,6.0,6.0,574.7229049993621,5.0,1.0,phase_2,go,400.0,400.0,1.0,,,,,,,,,orange,cross
0.0,1.0,0.5,0.0,5.0,5.0,388.8594489981187,5.0,1.0,phase_2,go,400.0,400.0,1.0,,,,,,,,,white,I
0.0,1.0,0.5,0.0,6.0,6.0,452.1498619978956,5.0,1.0,phase_2,go,400.0,400.0,1.0,,,,,,,,,white,I
0.0,3.0,2.0,0.0,5.0,5.0,592.4240809981711,5.0,1.0,phase_2,go,400.0,400.0,1.0,,,,,,,,,green,diamond
0.0,2.0,1.0,0.0,6.0,6.0,729.1599429991038,5.0,1.0,phase_2,go,400.0,400.0,1.0,,,,,,,,,cyan,square
0.0,7.0,2.0,1.0,6.0,0.0,0.0,5.0,1.0,phase_2,stop,400.0,400.0,4.0,,,,,,,,,magenta,circle
0.0,2.0,1.0,0.0,5.0,5.0,649.7322149989486,5.0,1.0,phase_2,go,400.0,450.0,1.0,,,,,,,,,cyan,square
0.0,6.0,1.0,1.0,6.0,0.0,0.0,5.0,1.0,phase_2,stop,400.0,450.0,4.0,,,,,,,,,yellow,hexagon
0.0,6.0,1.0,1.0,6.0,6.0,442.7385800008778,5.0,1.0,phase_2,stop,400.0,500.0,3.0,,,,,,,,,yellow,hexagon
0.0,3.0,2.0,0.0,6.0,6.0,845.1077299978351,5.0,1.0,phase_2,go,400.0,450.0,1.0,,,,,,,,,green,diamond
0.0,3.0,2.0,0.0,6.0,6.0,549.4569829970715,5.0,1.0,phase_2,go,400.0,450.0,1.0,,,,,,,,,green,diamond
0.0,5.0,0.5,1.0,5.0,0.0,0.0,5.0,1.0,phase_2,stop,400.0,450.0,4.0,,,,,,,,,blue,flipped triangle
0.0,2.0,1.0,0.0,6.0,6.0,564.9854449984559,5.0,1.0,phase_2,go,450.0,450.0,1.0,,,,,,,,,cyan,square
0.0,3.0,2.0,0.0,6.0,6.0,543.0221239985258,5.0,1.0,phase_2,go,450.0,450.0,1.0,,,,,,,,,green,diamond
0.0,8.0,4.0,1.0,6.0,0.0,0.0,5.0,1.0,phase_2,stop,450.0,450.0,4.0,,,,,,,,,gray,triangle
0.0,7.0,2.0,1.0,5.0,5.0,535.9787980014517,5.0,1.0,phase_2,stop,450.0,500.0,3.0,,,,,,,,,magenta,circle
0.0,3.0,2.0,0.0,5.0,5.0,564.3778470002871,5.0,1.0,phase_2,go,400.0,500.0,1.0,,,,,,,,,green,diamond
0.0,1.0,0.5,0.0,5.0,5.0,693.2309379990329,5.0,1.0,phase_2,go,400.0,500.0,1.0,,,,,,,,,white,I
0.0,3.0,2.0,0.0,6.0,6.0,724.5896650019858,5.0,1.0,phase_2,go,400.0,500.0,1.0,,,,,,,,,green,diamond
0.0,5.0,0.5,1.0,6.0,0.0,0.0,5.0,1.0,phase_2,stop,400.0,500.0,4.0,,,,,,,,,blue,flipped triangle
0.0,6.0,1.0,1.0,5.0,0.0,0.0,5.0,1.0,phase_2,stop,400.0,550.0,4.0,,,,,,,,,yellow,hexagon
0.0,6.0,1.0,1.0,6.0,6.0,469.9812690014369,5.0,1.0,phase_2,stop,450.0,550.0,3.0,,,,,,,,,yellow,hexagon
0.0,5.0,0.5,1.0,6.0,6.0,717.7960180015361,5.0,1.0,phase_2,go,450.0,500.0,1.0,,,,,,,,,blue,flipped triangle
0.0,4.0,4.0,0.0,5.0,5.0,721.2240920016484,5.0,1.0,phase_2,go,450.0,500.0,1.0,,,,,,,,,orange,cross
0.0,4.0,4.0,0.0,5.0,5.0,665.2091089999885,5.0,1.0,phase_2,go,450.0,500.0,1.0,,,,,,,,,orange,cross
0.0,4.0,4.0,0.0,5.0,5.0,614.957919002336,5.0,1.0,phase_2,go,450.0,500.0,1.0,,,,,,,,,orange,cross
0.0,1.0,0.5,0.0,6.0,6.0,381.187057999341,5.0,1.0,phase_2,go,450.0,500.0,1.0,,,,,,,,,white,I
0.0,3.0,2.0,0.0,5.0,5.0,765.3793449972,5.0,1.0,phase_2,go,450.0,500.0,1.0,,,,,,,,,green,diamond
0.0,5.0,0.5,1.0,6.0,0.0,0.0,5.0,1.0,phase_2,stop,450.0,500.0,4.0,,,,,,,,,blue,flipped triangle
0.0,3.0,2.0,0.0,5.0,5.0,431.3282680013799,6.0,1.0,phase_2,go,450.0,550.0,1.0,,,,,,,,,green,diamond
0.0,7.0,2.0,1.0,5.0,5.0,316.7153969989158,6.0,1.0,phase_2,stop,450.0,550.0,3.0,,,,,,,,,magenta,circle
0.0,8.0,4.0,1.0,5.0,5.0,354.9703969983966,6.0,1.0,phase_2,go,400.0,550.0,1.0,,,,,,,,,gray,triangle
0.0,2.0,1.0,0.0,6.0,6.0,293.9947139966534,6.0,1.0,phase_2,go,400.0,550.0,1.0,,,,,,,,,cyan,square
0.0,4.0,4.0,0.0,6.0,6.0,561.9915190000029,6.0,1.0,phase_2,go,400.0,550.0,1.0,,,,,,,,,orange,cross
0.0,6.0,1.0,1.0,5.0,5.0,510.175439001614,6.0,1.0,phase_2,go,400.0,550.0,1.0,,,,,,,,,yellow,hexagon
0.0,7.0,2.0,1.0,6.0,6.0,439.6713800015277,6.0,1.0,phase_2,stop,400.0,550.0,3.0,,,,,,,,,magenta,circle
0.0,5.0,0.5,1.0,5.0,5.0,546.6529459990852,6.0,1.0,phase_2,go,400.0,500.0,1.0,,,,,,,,,blue,flipped triangle
0.0,3.0,2.0,0.0,6.0,6.0,780.811538999842,6.0,1.0,phase_2,go,400.0,500.0,1.0,,,,,,,,,green,diamond
0.0,4.0,4.0,0.0,5.0,5.0,578.5858029994415,6.0,1.0,phase_2,go,400.0,500.0,1.0,,,,,,,,,orange,cross
0.0,7.0,2.0,1.0,6.0,6.0,566.4294490015891,6.0,1.0,phase_2,stop,400.0,500.0,3.0,,,,,,,,,magenta,circle
0.0,8.0,4.0,1.0,5.0,5.0,331.8467440003587,6.0,1.0,phase_2,go,400.0,450.0,1.0,,,,,,,,,gray,triangle
0.0,6.0,1.0,1.0,6.0,6.0,606.0909590014489,6.0,1.0,phase_2,stop,400.0,450.0,3.0,,,,,,,,,yellow,hexagon
0.0,1.0,0.5,0.0,6.0,6.0,467.304936999426,6.0,1.0,phase_2,go,400.0,400.0,1.0,,,,,,,,,white,I
0.0,8.0,4.0,1.0,6.0,6.0,321.2049770008889,6.0,1.0,phase_2,stop,400.0,400.0,3.0,,,,,,,,,gray,triangle
0.0,1.0,0.5,0.0,6.0,6.0,504.18739299857407,6.0,1.0,phase_2,go,400.0,350.0,1.0,,,,,,,,,white,I
0.0,1.0,0.5,0.0,6.0,6.0,648.3599210005195,6.0,1.0,phase_2,go,400.0,350.0,1.0,,,,,,,,,white,I
0.0,2.0,1.0,0.0,6.0,6.0,515.0797669994063,6.0,1.0,phase_2,go,400.0,350.0,1.0,,,,,,,,,cyan,square
0.0,2.0,1.0,0.0,6.0,6.0,589.5890399988275,6.0,1.0,phase_2,go,400.0,350.0,1.0,,,,,,,,,cyan,square
0.0,6.0,1.0,1.0,5.0,5.0,555.5271470002481,6.0,1.0,phase_2,go,400.0,350.0,1.0,,,,,,,,,yellow,hexagon
0.0,5.0,0.5,1.0,6.0,0.0,0.0,6.0,1.0,phase_2,stop,400.0,350.0,4.0,,,,,,,,,blue,flipped triangle
0.0,7.0,2.0,1.0,5.0,0.0,0.0,6.0,1.0,phase_2,stop,400.0,400.0,4.0,,,,,,,,,magenta,circle
0.0,6.0,1.0,1.0,6.0,6.0,336.1794660013402,6.0,1.0,phase_2,stop,450.0,400.0,3.0,,,,,,,,,yellow,hexagon
0.0,2.0,1.0,0.0,6.0,6.0,359.7309560027497,6.0,1.0,phase_2,go,450.0,350.0,1.0,,,,,,,,,cyan,square
0.0,6.0,1.0,1.0,5.0,0.0,0.0,6.0,1.0,phase_2,stop,450.0,350.0,4.0,,,,,,,,,yellow,hexagon
0.0,1.0,0.5,0.0,6.0,6.0,625.8433670009254,6.0,1.0,phase_2,go,500.0,350.0,1.0,,,,,,,,,white,I
0.0,8.0,4.0,1.0,6.0,0.0,0.0,6.0,1.0,phase_2,stop,500.0,350.0,4.0,,,,,,,,,gray,triangle
0.0,3.0,2.0,0.0,6.0,6.0,817.158768997615,6.0,1.0,phase_2,go,500.0,400.0,1.0,,,,,,,,,green,diamond
0.0,3.0,2.0,0.0,6.0,6.0,599.2214239995519,6.0,1.0,phase_2,go,500.0,400.0,1.0,,,,,,,,,green,diamond
0.0,6.0,1.0,1.0,5.0,5.0,704.462624998996,6.0,1.0,phase_2,go,500.0,400.0,1.0,,,,,,,,,yellow,hexagon
0.0,5.0,0.5,1.0,6.0,0.0,0.0,6.0,1.0,phase_2,stop,500.0,400.0,4.0,,,,,,,,,blue,flipped triangle
0.0,8.0,4.0,1.0,6.0,0.0,0.0,6.0,1.0,phase_2,stop,500.0,450.0,4.0,,,,,,,,,gray,triangle
0.0,4.0,4.0,0.0,6.0,6.0,627.0033590008097,6.0,1.0,phase_2,go,500.0,500.0,1.0,,,,,,,,,orange,cross
0.0,4.0,4.0,0.0,5.0,5.0,543.115836000652,6.0,1.0,phase_2,go,500.0,500.0,1.0,,,,,,,,,orange,cross
0.0,8.0,4.0,1.0,6.0,6.0,340.0405520005733,6.0,1.0,phase_2,stop,500.0,500.0,3.0,,,,,,,,,gray,triangle
0.0,3.0,2.0,0.0,5.0,5.0,677.9258529968502,6.0,1.0,phase_2,go,500.0,450.0,1.0,,,,,,,,,green,diamond
0.0,8.0,4.0,1.0,6.0,6.0,697.4923540001328,7.0,1.0,phase_2,stop,500.0,450.0,3.0,,,,,,,,,gray,triangle
0.0,1.0,0.5,0.0,6.0,6.0,328.6706880026031,7.0,1.0,phase_2,go,500.0,400.0,1.0,,,,,,,,,white,I
0.0,3.0,2.0,0.0,5.0,5.0,443.7210360010795,7.0,1.0,phase_2,go,500.0,400.0,1.0,,,,,,,,,green,diamond
0.0,5.0,0.5,1.0,6.0,6.0,445.2917700000398,7.0,1.0,phase_2,stop,500.0,400.0,3.0,,,,,,,,,blue,flipped triangle
0.0,8.0,4.0,1.0,6.0,6.0,377.7129349982715,7.0,1.0,phase_2,go,500.0,350.0,1.0,,,,,,,,,gray,triangle
0.0,6.0,1.0,1.0,6.0,6.0,706.1882090019935,7.0,1.0,phase_2,go,500.0,350.0,1.0,,,,,,,,,yellow,hexagon
0.0,1.0,0.5,0.0,6.0,6.0,612.4871230022109,7.0,1.0,phase_2,go,500.0,350.0,1.0,,,,,,,,,white,I
0.0,6.0,1.0,1.0,6.0,0.0,0.0,7.0,1.0,phase_2,stop,500.0,350.0,4.0,,,,,,,,,yellow,hexagon
0.0,3.0,2.0,0.0,5.0,5.0,598.3118180010933,7.0,1.0,phase_2,go,500.0,400.0,1.0,,,,,,,,,green,diamond
0.0,7.0,2.0,1.0,5.0,5.0,629.4347049988573,7.0,1.0,phase_2,stop,500.0,400.0,3.0,,,,,,,,,magenta,circle
0.0,2.0,1.0,0.0,5.0,5.0,585.1607520016842,7.0,1.0,phase_2,go,450.0,400.0,1.0,,,,,,,,,cyan,square
0.0,6.0,1.0,1.0,6.0,0.0,0.0,7.0,1.0,phase_2,stop,450.0,400.0,4.0,,,,,,,,,yellow,hexagon
0.0,2.0,1.0,0.0,5.0,5.0,522.2008019991335,7.0,1.0,phase_2,go,450.0,450.0,1.0,,,,,,,,,cyan,square
0.0,4.0,4.0,0.0,5.0,5.0,781.5540410010726,7.0,1.0,phase_2,go,450.0,450.0,1.0,,,,,,,,,orange,cross
0.0,3.0,2.0,0.0,5.0,5.0,760.6484880016069,7.0,1.0,phase_2,go,450.0,450.0,1.0,,,,,,,,,green,diamond
0.0,1.0,0.5,0.0,5.0,5.0,762.7932310024335,7.0,1.0,phase_2,go,450.0,450.0,1.0,,,,,,,,,white,I
0.0,2.0,1.0,0.0,5.0,5.0,870.2827990018704,7.0,1.0,phase_2,go,450.0,450.0,1.0,,,,,,,,,cyan,square
0.0,8.0,4.0,1.0,6.0,0.0,0.0,7.0,1.0,phase_2,stop,450.0,450.0,4.0,,,,,,,,,gray,triangle
0.0,7.0,2.0,1.0,5.0,5.0,663.6853730014991,7.0,1.0,phase_2,go,450.0,500.0,1.0,,,,,,,,,magenta,circle
0.0,4.0,4.0,0.0,5.0,5.0,678.7598750015604,7.0,1.0,phase_2,go,450.0,500.0,1.0,,,,,,,,,orange,cross
0.0,6.0,1.0,1.0,5.0,0.0,0.0,7.0,1.0,phase_2,stop,450.0,500.0,4.0,,,,,,,,,yellow,hexagon
0.0,1.0,0.5,0.0,6.0,6.0,672.3920610020286,7.0,1.0,phase_2,go,500.0,500.0,1.0,,,,,,,,,white,I
0.0,4.0,4.0,0.0,5.0,5.0,625.0126660015667,7.0,1.0,phase_2,go,500.0,500.0,1.0,,,,,,,,,orange,cross
0.0,2.0,1.0,0.0,5.0,5.0,732.0695259986678,7.0,1.0,phase_2,go,500.0,500.0,1.0,,,,,,,,,cyan,square
0.0,7.0,2.0,1.0,6.0,6.0,622.1337160022813,7.0,1.0,phase_2,stop,500.0,500.0,3.0,,,,,,,,,magenta,circle
0.0,7.0,2.0,1.0,5.0,0.0,0.0,7.0,1.0,phase_2,stop,500.0,450.0,4.0,,,,,,,,,magenta,circle
0.0,3.0,2.0,0.0,6.0,6.0,568.8134840020211,7.0,1.0,phase_2,go,550.0,450.0,1.0,,,,,,,,,green,diamond
0.0,5.0,0.5,1.0,5.0,5.0,723.844125001051,7.0,1.0,phase_2,go,550.0,450.0,1.0,,,,,,,,,blue,flipped triangle
0.0,7.0,2.0,1.0,5.0,0.0,0.0,7.0,1.0,phase_2,stop,550.0,450.0,4.0,,,,,,,,,magenta,circle
0.0,6.0,1.0,1.0,6.0,0.0,0.0,7.0,1.0,phase_2,stop,600.0,450.0,4.0,,,,,,,,,yellow,hexagon
0.0,4.0,4.0,0.0,6.0,6.0,621.0589619986422,7.0,1.0,phase_2,go,600.0,500.0,1.0,,,,,,,,,orange,cross
0.0,2.0,1.0,0.0,5.0,5.0,895.6473889993504,7.0,1.0,phase_2,go,600.0,500.0,1.0,,,,,,,,,cyan,square
0.0,1.0,0.5,0.0,5.0,5.0,593.4064140019473,7.0,1.0,phase_2,go,600.0,500.0,1.0,,,,,,,,,white,I
0.0,7.0,2.0,1.0,5.0,5.0,795.3998469965882,7.0,1.0,phase_2,go,600.0,500.0,1.0,,,,,,,,,magenta,circle
0.0,1.0,0.5,0.0,5.0,5.0,664.1326179997122,7.0,1.0,phase_2,go,600.0,500.0,1.0,,,,,,,,,white,I
0.0,5.0,0.5,1.0,6.0,0.0,0.0,7.0,1.0,phase_2,stop,600.0,500.0,4.0,,,,,,,,,blue,flipped triangle
0.0,1.0,0.5,0.0,5.0,5.0,517.5187230015581,8.0,1.0,phase_2,go,600.0,550.0,1.0,,,,,,,,,white,I
0.0,3.0,2.0,0.0,6.0,6.0,462.0084000016504,8.0,1.0,phase_2,go,600.0,550.0,1.0,,,,,,,,,green,diamond
0.0,8.0,4.0,1.0,5.0,5.0,325.9940019997884,8.0,1.0,phase_2,stop,600.0,550.0,3.0,,,,,,,,,gray,triangle
0.0,2.0,1.0,0.0,6.0,6.0,482.7717410007608,8.0,1.0,phase_2,go,550.0,550.0,1.0,,,,,,,,,cyan,square
0.0,1.0,0.5,0.0,6.0,6.0,551.0574359977909,8.0,1.0,phase_2,go,550.0,550.0,1.0,,,,,,,,,white,I
0.0,4.0,4.0,0.0,6.0,6.0,612.5920040030906,8.0,1.0,phase_2,go,550.0,550.0,1.0,,,,,,,,,orange,cross
0.0,1.0,0.5,0.0,5.0,5.0,645.8103740005754,8.0,1.0,phase_2,go,550.0,550.0,1.0,,,,,,,,,white,I
0.0,3.0,2.0,0.0,5.0,5.0,605.640048001078,8.0,1.0,phase_2,go,550.0,550.0,1.0,,,,,,,,,green,diamond
0.0,4.0,4.0,0.0,6.0,6.0,503.8589260002482,8.0,1.0,phase_2,go,550.0,550.0,1.0,,,,,,,,,orange,cross
0.0,7.0,2.0,1.0,6.0,6.0,643.1504390020564,8.0,1.0,phase_2,stop,550.0,550.0,3.0,,,,,,,,,magenta,circle
0.0,5.0,0.5,1.0,5.0,5.0,615.8353900027578,8.0,1.0,phase_2,stop,550.0,500.0,3.0,,,,,,,,,blue,flipped triangle
0.0,3.0,2.0,0.0,6.0,6.0,539.3027220015938,8.0,1.0,phase_2,go,500.0,500.0,1.0,,,,,,,,,green,diamond
0.0,1.0,0.5,0.0,6.0,6.0,722.122692000994,8.0,1.0,phase_2,go,500.0,500.0,1.0,,,,,,,,,white,I
0.0,7.0,2.0,1.0,5.0,5.0,624.5839660005004,8.0,1.0,phase_2,stop,500.0,500.0,3.0,,,,,,,,,magenta,circle
0.0,3.0,2.0,0.0,6.0,6.0,423.7610780000977,8.0,1.0,phase_2,go,450.0,500.0,1.0,,,,,,,,,green,diamond
0.0,1.0,0.5,0.0,6.0,6.0,664.84724700058,8.0,1.0,phase_2,go,450.0,500.0,1.0,,,,,,,,,white,I
0.0,6.0,1.0,1.0,6.0,6.0,318.1499260026612,8.0,1.0,phase_2,go,450.0,500.0,1.0,,,,,,,,,yellow,hexagon
0.0,2.0,1.0,0.0,5.0,5.0,598.7852619982732,8.0,1.0,phase_2,go,450.0,500.0,1.0,,,,,,,,,cyan,square
0.0,5.0,0.5,1.0,6.0,6.0,541.0849990003044,8.0,1.0,phase_2,stop,450.0,500.0,3.0,,,,,,,,,blue,flipped triangle
0.0,4.0,4.0,0.0,6.0,6.0,573.0068010016112,8.0,1.0,phase_2,go,450.0,450.0,1.0,,,,,,,,,orange,cross
0.0,8.0,4.0,1.0,6.0,6.0,386.6330910022952,8.0,1.0,phase_2,stop,450.0,450.0,3.0,,,,,,,,,gray,triangle
0.0,7.0,2.0,1.0,5.0,5.0,331.1621020002349,8.0,1.0,phase_2,go,450.0,400.0,1.0,,,,,,,,,magenta,circle
0.0,6.0,1.0,1.0,5.0,5.0,310.6577590006054,8.0,1.0,phase_2,stop,450.0,400.0,3.0,,,,,,,,,yellow,hexagon
0.0,3.0,2.0,0.0,5.0,5.0,578.806519999489,8.0,1.0,phase_2,go,400.0,400.0,1.0,,,,,,,,,green,diamond
0.0,5.0,0.5,1.0,6.0,0.0,0.0,8.0,1.0,phase_2,stop,400.0,400.0,4.0,,,,,,,,,blue,flipped triangle
0.0,5.0,0.5,1.0,5.0,5.0,703.3870909981488,8.0,1.0,phase_2,go,400.0,450.0,1.0,,,,,,,,,blue,flipped triangle
0.0,3.0,2.0,0.0,5.0,5.0,703.1208299995342,8.0,1.0,phase_2,go,400.0,450.0,1.0,,,,,,,,,green,diamond
0.0,5.0,0.5,1.0,6.0,6.0,509.2667379976774,8.0,1.0,phase_2,stop,400.0,450.0,3.0,,,,,,,,,blue,flipped triangle
0.0,7.0,2.0,1.0,6.0,6.0,366.6078699970967,8.0,1.0,phase_2,go,400.0,400.0,1.0,,,,,,,,,magenta,circle
0.0,3.0,2.0,0.0,6.0,6.0,646.3572419997945,8.0,1.0,phase_2,go,400.0,400.0,1.0,,,,,,,,,green,diamond
0.0,8.0,4.0,1.0,6.0,0.0,0.0,8.0,1.0,phase_2,stop,400.0,400.0,4.0,,,,,,,,,gray,triangle
0.0,1.0,0.5,0.0,5.0,5.0,555.9773140012112,8.0,1.0,phase_2,go,400.0,450.0,1.0,,,,,,,,,white,I
0.0,5.0,0.5,1.0,5.0,0.0,0.0,8.0,1.0,phase_2,stop,400.0,450.0,4.0,,,,,,,,,blue,flipped triangle
0.0,8.0,4.0,1.0,5.0,5.0,483.3949170024425,8.0,1.0,phase_2,stop,450.0,450.0,3.0,,,,,,,,,gray,triangle
0.0,8.0,4.0,1.0,5.0,5.0,632.8010520010139,8.0,1.0,phase_2,go,400.0,450.0,1.0,,,,,,,,,gray,triangle
0.0,7.0,2.0,1.0,6.0,6.0,604.2147369989834,8.0,1.0,phase_2,stop,400.0,450.0,3.0,,,,,,,,,magenta,circle
0.0,2.0,1.0,0.0,7.0,5.0,2999.55771200257,1.0,1.0,phase_3,,,,,98.0,2.0,294.0,49.0,245.0,147.0,98.0,196.0,cyan,square
0.0,3.0,2.0,0.0,7.0,2.0,3097.4647109978832,1.0,1.0,phase_3,,,,,147.0,3.0,49.0,147.0,294.0,98.0,196.0,245.0,green,diamond
0.0,4.0,4.0,0.0,7.0,4.0,2667.9898130023503,1.0,1.0,phase_3,,,,,147.0,3.0,196.0,294.0,49.0,147.0,245.0,98.0,orange,cross
0.0,4.0,4.0,0.0,7.0,3.0,3327.1967780019622,1.0,1.0,phase_3,,,,,102.0,3.0,34.0,136.0,102.0,68.0,170.0,204.0,orange,cross
0.0,8.0,4.0,1.0,7.0,5.0,2505.983176000882,1.0,1.0,phase_3,,,,,54.0,1.0,216.0,162.0,324.0,270.0,54.0,108.0,gray,triangle
0.0,5.0,0.5,1.0,7.0,6.0,1942.8472209983736,1.0,1.0,phase_3,,,,,220.0,5.0,176.0,264.0,44.0,88.0,132.0,220.0,blue,flipped triangle
0.0,2.0,1.0,0.0,7.0,2.0,2018.9015380019555,1.0,1.0,phase_3,,,,,136.0,4.0,170.0,136.0,102.0,34.0,68.0,204.0,cyan,square
0.0,2.0,1.0,0.0,7.0,3.0,2826.010889002646,1.0,1.0,phase_3,,,,,136.0,4.0,170.0,34.0,136.0,204.0,68.0,102.0,cyan,square
0.0,7.0,2.0,1.0,7.0,4.0,2699.8322009967524,1.0,1.0,phase_3,,,,,132.0,3.0,220.0,176.0,88.0,132.0,44.0,264.0,magenta,circle
0.0,2.0,1.0,0.0,7.0,5.0,2144.83346400084,1.0,1.0,phase_3,,,,,147.0,3.0,245.0,294.0,196.0,49.0,147.0,98.0,cyan,square
0.0,6.0,1.0,1.0,7.0,1.0,2482.842540997808,1.0,1.0,phase_3,,,,,170.0,5.0,170.0,68.0,136.0,204.0,34.0,102.0,yellow,hexagon
0.0,1.0,0.5,0.0,7.0,3.0,2308.4154069983924,1.0,1.0,phase_3,,,,,132.0,3.0,264.0,44.0,132.0,176.0,220.0,88.0,white,I
0.0,4.0,4.0,0.0,7.0,5.0,2807.0990859996527,1.0,1.0,phase_3,,,,,39.0,1.0,117.0,234.0,195.0,78.0,39.0,156.0,orange,cross
0.0,3.0,2.0,0.0,7.0,1.0,2225.4673370007367,1.0,1.0,phase_3,,,,,156.0,4.0,156.0,195.0,117.0,39.0,234.0,78.0,green,diamond
0.0,3.0,2.0,0.0,7.0,3.0,3174.7058910004853,1.0,1.0,phase_3,,,,,162.0,3.0,108.0,324.0,162.0,270.0,54.0,216.0,green,diamond
0.0,4.0,4.0,0.0,7.0,4.0,2446.904305001226,1.0,1.0,phase_3,,,,,147.0,3.0,98.0,196.0,294.0,147.0,245.0,49.0,orange,cross
0.0,1.0,0.5,0.0,7.0,2.0,3759.02178600154,1.0,1.0,phase_3,,,,,264.0,6.0,88.0,264.0,220.0,132.0,176.0,44.0,white,I
0.0,8.0,4.0,1.0,7.0,6.0,3084.036129999731,1.0,1.0,phase_3,,,,,78.0,2.0,195.0,156.0,117.0,234.0,39.0,78.0,gray,triangle
0.0,8.0,4.0,1.0,7.0,3.0,4099.877998000011,1.0,1.0,phase_3,,,,,156.0,4.0,117.0,195.0,156.0,78.0,234.0,39.0,gray,triangle
0.0,1.0,0.5,0.0,7.0,2.0,4654.499713997211,1.0,1.0,phase_3,,,,,245.0,5.0,196.0,245.0,49.0,147.0,98.0,294.0,white,I
0.0,5.0,0.5,1.0,7.0,2.0,1575.770219998958,2.0,1.0,phase_3,,,,,216.0,4.0,108.0,216.0,324.0,270.0,162.0,54.0,blue,flipped triangle
0.0,8.0,4.0,1.0,7.0,4.0,2571.137446000648,2.0,1.0,phase_3,,,,,147.0,3.0,196.0,245.0,294.0,147.0,98.0,49.0,gray,triangle
0.0,4.0,4.0,0.0,7.0,5.0,4139.569081999071,2.0,1.0,phase_3,,,,,204.0,6.0,136.0,102.0,34.0,68.0,204.0,170.0,orange,cross
0.0,6.0,1.0,1.0,7.0,3.0,2668.9106129997526,2.0,1.0,phase_3,,,,,245.0,5.0,49.0,147.0,245.0,294.0,196.0,98.0,yellow,hexagon
0.0,5.0,0.5,1.0,7.0,4.0,1758.3389499995974,2.0,1.0,phase_3,,,,,176.0,4.0,44.0,132.0,264.0,176.0,88.0,220.0,blue,flipped triangle
0.0,4.0,4.0,0.0,7.0,4.0,3280.8561669990013,2.0,1.0,phase_3,,,,,216.0,4.0,108.0,162.0,270.0,216.0,324.0,54.0,orange,cross
0.0,6.0,1.0,1.0,7.0,3.0,2504.0594220008643,2.0,1.0,phase_3,,,,,294.0,6.0,49.0,245.0,294.0,196.0,147.0,98.0,yellow,hexagon
0.0,8.0,4.0,1.0,7.0,6.0,2907.851039999514,2.0,1.0,phase_3,,,,,68.0,2.0,136.0,34.0,102.0,170.0,204.0,68.0,gray,triangle
0.0,1.0,0.5,0.0,7.0,2.0,2516.281448002701,2.0,1.0,phase_3,,,,,117.0,3.0,78.0,117.0,156.0,39.0,195.0,234.0,white,I
0.0,2.0,1.0,0.0,7.0,5.0,2447.814138002286,2.0,1.0,phase_3,,,,,132.0,3.0,176.0,264.0,88.0,220.0,132.0,44.0,cyan,square
0.0,4.0,4.0,0.0,7.0,6.0,2455.5746750011167,2.0,1.0,phase_3,,,,,216.0,4.0,108.0,162.0,324.0,270.0,54.0,216.0,orange,cross
0.0,3.0,2.0,0.0,7.0,5.0,1782.9915760012227,2.0,1.0,phase_3,,,,,220.0,5.0,44.0,132.0,88.0,264.0,220.0,176.0,green,diamond
0.0,3.0,2.0,0.0,7.0,4.0,1011.2303259993496,2.0,1.0,phase_3,,,,,170.0,5.0,102.0,34.0,68.0,170.0,204.0,136.0,green,diamond
0.0,2.0,1.0,0.0,7.0,5.0,2394.843606001814,2.0,1.0,phase_3,,,,,195.0,5.0,234.0,117.0,78.0,156.0,195.0,39.0,cyan,square
0.0,1.0,0.5,0.0,7.0,4.0,2663.84430999824,2.0,1.0,phase_3,,,,,117.0,3.0,78.0,195.0,156.0,117.0,39.0,234.0,white,I
0.0,8.0,4.0,1.0,7.0,1.0,4656.160014998022,2.0,1.0,phase_3,,,,,147.0,3.0,147.0,49.0,294.0,98.0,245.0,196.0,gray,triangle
0.0,3.0,2.0,0.0,7.0,5.0,3865.023075002682,2.0,1.0,phase_3,,,,,270.0,5.0,216.0,54.0,108.0,324.0,270.0,162.0,green,diamond
0.0,7.0,2.0,1.0,7.0,6.0,2116.721902999416,2.0,1.0,phase_3,,,,,264.0,6.0,132.0,44.0,88.0,220.0,176.0,264.0,magenta,circle
0.0,3.0,2.0,0.0,7.0,1.0,2128.016975002538,2.0,1.0,phase_3,,,,,195.0,5.0,195.0,78.0,117.0,39.0,156.0,234.0,green,diamond
0.0,7.0,2.0,1.0,7.0,3.0,2565.766274001362,2.0,1.0,phase_3,,,,,156.0,4.0,195.0,234.0,156.0,117.0,39.0,78.0,magenta,circle
0.0,8.0,4.0,1.0,7.0,3.0,3099.3892719998257,3.0,1.0,phase_3,,,,,216.0,4.0,324.0,54.0,216.0,270.0,108.0,162.0,gray,triangle
0.0,4.0,4.0,0.0,7.0,5.0,2737.3468370024057,3.0,1.0,phase_3,,,,,132.0,3.0,44.0,220.0,88.0,176.0,132.0,264.0,orange,cross
0.0,1.0,0.5,0.0,7.0,1.0,2555.7001650013262,3.0,1.0,phase_3,,,,,136.0,4.0,136.0,204.0,68.0,170.0,34.0,102.0,white,I
0.0,7.0,2.0,1.0,7.0,3.0,1849.182738002128,3.0,1.0,phase_3,,,,,204.0,6.0,68.0,170.0,204.0,34.0,136.0,102.0,magenta,circle
0.0,6.0,1.0,1.0,7.0,2.0,2147.986866002612,3.0,1.0,phase_3,,,,,270.0,5.0,54.0,270.0,216.0,108.0,324.0,162.0,yellow,hexagon
0.0,1.0,0.5,0.0,7.0,4.0,2115.966739002033,3.0,1.0,phase_3,,,,,108.0,2.0,54.0,216.0,162.0,108.0,270.0,324.0,white,I
0.0,8.0,4.0,1.0,7.0,3.0,3085.967308998079,3.0,1.0,phase_3,,,,,132.0,3.0,220.0,88.0,132.0,176.0,264.0,44.0,gray,triangle
0.0,3.0,2.0,0.0,7.0,1.0,2602.780163000716,3.0,1.0,phase_3,,,,,245.0,5.0,245.0,147.0,98.0,49.0,294.0,196.0,green,diamond
0.0,3.0,2.0,0.0,7.0,5.0,3574.9176270001044,3.0,1.0,phase_3,,,,,170.0,5.0,204.0,136.0,68.0,102.0,170.0,34.0,green,diamond
0.0,6.0,1.0,1.0,7.0,4.0,2637.9927109992423,3.0,1.0,phase_3,,,,,234.0,6.0,117.0,78.0,156.0,234.0,195.0,39.0,yellow,hexagon
0.0,7.0,2.0,1.0,7.0,6.0,2085.280283001339,3.0,1.0,phase_3,,,,,195.0,5.0,39.0,156.0,117.0,234.0,78.0,195.0,magenta,circle
0.0,1.0,0.5,0.0,7.0,2.0,3023.6804830019537,3.0,1.0,phase_3,,,,,108.0,2.0,270.0,108.0,216.0,324.0,162.0,54.0,white,I
0.0,6.0,1.0,1.0,7.0,5.0,2466.015084999526,3.0,2.0,phase_3,,,,,108.0,2.0,162.0,324.0,54.0,270.0,108.0,216.0,yellow,hexagon
0.0,2.0,1.0,0.0,7.0,4.0,1664.4585540016124,3.0,1.0,phase_3,,,,,270.0,5.0,324.0,162.0,216.0,270.0,108.0,54.0,cyan,square
0.0,6.0,1.0,1.0,7.0,3.0,1617.3480420002306,3.0,1.0,phase_3,,,,,264.0,6.0,220.0,176.0,264.0,132.0,44.0,88.0,yellow,hexagon
0.0,5.0,0.5,1.0,7.0,5.0,1820.597582998744,3.0,1.0,phase_3,,,,,170.0,5.0,136.0,102.0,68.0,204.0,170.0,34.0,blue,flipped triangle
0.0,7.0,2.0,1.0,7.0,3.0,2034.7763019999547,3.0,1.0,phase_3,,,,,136.0,4.0,68.0,170.0,136.0,204.0,102.0,34.0,magenta,circle
0.0,7.0,2.0,1.0,7.0,5.0,4039.593421999598,3.0,1.0,phase_3,,,,,147.0,3.0,196.0,245.0,49.0,98.0,147.0,294.0,magenta,circle
0.0,7.0,2.0,1.0,7.0,6.0,2537.449093997566,3.0,1.0,phase_3,,,,,162.0,3.0,216.0,324.0,54.0,270.0,108.0,162.0,magenta,circle
0.0,2.0,1.0,0.0,7.0,2.0,2262.2366010000405,3.0,1.0,phase_3,,,,,156.0,4.0,117.0,156.0,195.0,234.0,78.0,39.0,cyan,square
0.0,7.0,2.0,1.0,7.0,4.0,1339.3540690012742,4.0,1.0,phase_3,,,,,216.0,4.0,108.0,162.0,270.0,216.0,324.0,54.0,magenta,circle
0.0,6.0,1.0,1.0,7.0,3.0,1679.9432799998613,4.0,1.0,phase_3,,,,,234.0,6.0,78.0,117.0,234.0,156.0,195.0,39.0,yellow,hexagon
0.0,4.0,4.0,0.0,7.0,1.0,1629.8160270016524,4.0,1.0,phase_3,,,,,156.0,4.0,156.0,78.0,195.0,39.0,234.0,117.0,orange,cross
0.0,5.0,0.5,1.0,7.0,5.0,2096.5966420008044,4.0,1.0,phase_3,,,,,170.0,5.0,102.0,136.0,68.0,34.0,170.0,204.0,blue,flipped triangle
0.0,5.0,0.5,1.0,7.0,4.0,1565.601386999333,4.0,1.0,phase_3,,,,,156.0,4.0,234.0,195.0,117.0,156.0,78.0,39.0,blue,flipped triangle
0.0,1.0,0.5,0.0,7.0,6.0,2897.838132998004,4.0,1.0,phase_3,,,,,68.0,2.0,170.0,102.0,204.0,34.0,136.0,68.0,white,I
0.0,2.0,1.0,0.0,7.0,3.0,2520.090538000659,4.0,1.0,phase_3,,,,,108.0,2.0,162.0,324.0,108.0,216.0,270.0,54.0,cyan,square
0.0,8.0,4.0,1.0,7.0,5.0,2451.7135650021373,4.0,1.0,phase_3,,,,,34.0,1.0,68.0,136.0,170.0,204.0,34.0,102.0,gray,triangle
0.0,5.0,0.5,1.0,7.0,6.0,1110.5390989978332,4.0,1.0,phase_3,,,,,117.0,3.0,195.0,156.0,234.0,78.0,39.0,117.0,blue,flipped triangle
0.0,5.0,0.5,1.0,7.0,6.0,2823.465073997795,4.0,1.0,phase_3,,,,,147.0,3.0,294.0,196.0,245.0,98.0,49.0,147.0,blue,flipped triangle
0.0,8.0,4.0,1.0,7.0,2.0,2865.297799999098,4.0,1.0,phase_3,,,,,132.0,3.0,44.0,132.0,88.0,176.0,220.0,264.0,gray,triangle
0.0,5.0,0.5,1.0,7.0,5.0,2774.731967998377,4.0,1.0,phase_3,,,,,294.0,6.0,147.0,98.0,245.0,49.0,294.0,196.0,blue,flipped triangle
0.0,6.0,1.0,1.0,7.0,2.0,2213.5239630006254,4.0,1.0,phase_3,,,,,204.0,6.0,170.0,204.0,34.0,102.0,68.0,136.0,yellow,hexagon
0.0,2.0,1.0,0.0,7.0,6.0,1615.073102999304,4.0,1.0,phase_3,,,,,220.0,5.0,88.0,132.0,44.0,264.0,176.0,220.0,cyan,square
0.0,6.0,1.0,1.0,7.0,1.0,2714.4810650024738,4.0,1.0,phase_3,,,,,264.0,6.0,264.0,132.0,88.0,220.0,176.0,44.0,yellow,hexagon
0.0,3.0,2.0,0.0,7.0,5.0,1417.740511999,4.0,1.0,phase_3,,,,,264.0,6.0,132.0,220.0,88.0,176.0,264.0,44.0,green,diamond
0.0,1.0,0.5,0.0,7.0,3.0,1771.1805009967063,4.0,1.0,phase_3,,,,,147.0,3.0,49.0,245.0,147.0,98.0,294.0,196.0,white,I
0.0,4.0,4.0,0.0,7.0,1.0,2377.1552090001933,4.0,1.0,phase_3,,,,,176.0,4.0,176.0,44.0,132.0,220.0,264.0,88.0,orange,cross
0.0,7.0,2.0,1.0,7.0,1.0,2444.221211000695,4.0,1.0,phase_3,,,,,245.0,5.0,245.0,147.0,49.0,196.0,294.0,98.0,magenta,circle
0.0,5.0,0.5,1.0,7.0,5.0,1674.3677649974416,4.0,1.0,phase_3,,,,,324.0,6.0,270.0,216.0,162.0,54.0,324.0,108.0,blue,flipped triangle
