raw_reward_magnitude,stim_reward,stepwise_reward_magnitude,paired_with_stopping,stim_location,response,reaction_time,block,num_trial_presentations,which_phase,stop_signal_trial_type,left_SSD,right_SSD,accuracy,chosen_bidding_amount,chosen_bidding_level,possible_bid_1,possible_bid_2,possible_bid_3,possible_bid_4,possible_bid_5,possible_bid_6,color_text,shape_text
404.0,8.0,4.0,1.0,1.0,1.0,315.1202270000794,1.0,1.0,phase_1,,,,,,,,,,,,,yellow,square
394.0,8.0,4.0,1.0,4.0,4.0,240.4236530001071,1.0,1.0,phase_1,,,,,,,,,,,,,yellow,square
0.0,8.0,0.0,1.0,1.0,1.0,224.8394870002812,1.0,1.0,phase_1,,,,,,,,,,,,,yellow,square
0.0,4.0,0.0,0.0,2.0,2.0,422.223892999682,1.0,1.0,phase_1,,,,,,,,,,,,,gray,I
408.0,8.0,4.0,1.0,4.0,4.0,382.0833980007592,1.0,1.0,phase_1,,,,,,,,,,,,,yellow,square
46.0,1.0,1.0,0.0,3.0,3.0,279.4962999996642,1.0,1.0,phase_1,,,,,,,,,,,,,orange,cross
85.0,2.0,2.0,0.0,3.0,3.0,286.2559710010828,1.0,1.0,phase_1,,,,,,,,,,,,,blue,circle
61.0,1.0,1.0,0.0,4.0,4.0,273.5027789985906,1.0,1.0,phase_1,,,,,,,,,,,,,orange,cross
413.0,4.0,4.0,0.0,2.0,2.0,233.7359880002623,1.0,1.0,phase_1,,,,,,,,,,,,,gray,I
395.0,4.0,4.0,0.0,2.0,2.0,247.7652940015104,1.0,1.0,phase_1,,,,,,,,,,,,,gray,I
105.0,6.0,2.0,1.0,3.0,3.0,229.4649889990978,1.0,1.0,phase_1,,,,,,,,,,,,,cyan,hexagon
26.0,1.0,1.0,0.0,1.0,1.0,232.4788519999856,1.0,1.0,phase_1,,,,,,,,,,,,,orange,cross
410.0,4.0,4.0,0.0,1.0,1.0,280.6486829995265,1.0,1.0,phase_1,,,,,,,,,,,,,gray,I
197.0,7.0,3.0,1.0,4.0,4.0,218.0060329992557,1.0,1.0,phase_1,,,,,,,,,,,,,green,diamond
0.0,5.0,0.0,1.0,2.0,2.0,203.0127439993521,1.0,1.0,phase_1,,,,,,,,,,,,,magenta,triangle
378.0,8.0,4.0,1.0,1.0,1.0,280.8867860003374,1.0,2.0,phase_1,,,,,,,,,,,,,yellow,square
405.0,4.0,4.0,0.0,1.0,1.0,325.9369600000354,1.0,1.0,phase_1,,,,,,,,,,,,,gray,I
54.0,1.0,1.0,0.0,4.0,4.0,261.3375799992354,1.0,2.0,phase_1,,,,,,,,,,,,,orange,cross
192.0,3.0,3.0,0.0,1.0,1.0,399.5005239994498,1.0,1.0,phase_1,,,,,,,,,,,,,white,flipped triangle
184.0,3.0,3.0,0.0,2.0,2.0,241.2704939997638,1.0,1.0,phase_1,,,,,,,,,,,,,white,flipped triangle
0.0,7.0,0.0,1.0,3.0,3.0,249.6585730004881,1.0,1.0,phase_1,,,,,,,,,,,,,green,diamond
196.0,7.0,3.0,1.0,4.0,4.0,256.3106500001595,1.0,1.0,phase_1,,,,,,,,,,,,,green,diamond
0.0,6.0,0.0,1.0,3.0,3.0,267.2043469992786,1.0,1.0,phase_1,,,,,,,,,,,,,cyan,hexagon
103.0,6.0,2.0,1.0,2.0,2.0,330.0426119985786,1.0,2.0,phase_1,,,,,,,,,,,,,cyan,hexagon
70.0,5.0,1.0,1.0,3.0,3.0,261.4871310015587,1.0,1.0,phase_1,,,,,,,,,,,,,magenta,triangle
55.0,5.0,1.0,1.0,3.0,3.0,346.8939400008821,1.0,1.0,phase_1,,,,,,,,,,,,,magenta,triangle
202.0,3.0,3.0,0.0,3.0,3.0,259.2197350004426,1.0,1.0,phase_1,,,,,,,,,,,,,white,flipped triangle
103.0,2.0,2.0,0.0,4.0,4.0,250.01324400000158,1.0,1.0,phase_1,,,,,,,,,,,,,blue,circle
68.0,1.0,1.0,0.0,2.0,2.0,240.1410020011098,1.0,1.0,phase_1,,,,,,,,,,,,,orange,cross
395.0,8.0,4.0,1.0,4.0,4.0,280.1019119997363,1.0,2.0,phase_1,,,,,,,,,,,,,yellow,square
409.0,4.0,4.0,0.0,2.0,2.0,228.3654579987342,1.0,1.0,phase_1,,,,,,,,,,,,,gray,I
187.0,7.0,3.0,1.0,4.0,4.0,349.6570170009363,1.0,1.0,phase_1,,,,,,,,,,,,,green,diamond
71.0,5.0,1.0,1.0,2.0,2.0,250.5224630003795,1.0,1.0,phase_1,,,,,,,,,,,,,magenta,triangle
215.0,7.0,3.0,1.0,1.0,1.0,246.4802759986923,1.0,1.0,phase_1,,,,,,,,,,,,,green,diamond
0.0,6.0,0.0,1.0,2.0,2.0,239.3214439998701,1.0,1.0,phase_1,,,,,,,,,,,,,cyan,hexagon
0.0,5.0,0.0,1.0,3.0,3.0,283.9592889995401,1.0,1.0,phase_1,,,,,,,,,,,,,magenta,triangle
32.0,1.0,1.0,0.0,1.0,1.0,339.1199730012886,1.0,1.0,phase_1,,,,,,,,,,,,,orange,cross
41.0,1.0,1.0,0.0,3.0,3.0,278.0292830011603,1.0,1.0,phase_1,,,,,,,,,,,,,orange,cross
192.0,7.0,3.0,1.0,3.0,3.0,367.589161000069,1.0,1.0,phase_1,,,,,,,,,,,,,green,diamond
387.0,4.0,4.0,0.0,4.0,4.0,327.5040930002433,1.0,1.0,phase_1,,,,,,,,,,,,,gray,I
55.0,5.0,1.0,1.0,4.0,4.0,296.2775050000346,1.0,1.0,phase_1,,,,,,,,,,,,,magenta,triangle
393.0,8.0,4.0,1.0,1.0,1.0,278.7855059996218,1.0,1.0,phase_1,,,,,,,,,,,,,yellow,square
182.0,7.0,3.0,1.0,1.0,1.0,270.4417250006372,1.0,1.0,phase_1,,,,,,,,,,,,,green,diamond
414.0,8.0,4.0,1.0,2.0,2.0,287.1648620002816,1.0,1.0,phase_1,,,,,,,,,,,,,yellow,square
0.0,7.0,0.0,1.0,3.0,3.0,257.6894309986528,1.0,1.0,phase_1,,,,,,,,,,,,,green,diamond
221.0,7.0,3.0,1.0,4.0,4.0,319.3427160003921,1.0,1.0,phase_1,,,,,,,,,,,,,green,diamond
93.0,6.0,2.0,1.0,1.0,1.0,307.014423999135,1.0,1.0,phase_1,,,,,,,,,,,,,cyan,hexagon
55.0,1.0,1.0,0.0,3.0,3.0,271.6016719987237,1.0,1.0,phase_1,,,,,,,,,,,,,orange,cross
67.0,5.0,1.0,1.0,4.0,4.0,335.7128070001636,1.0,1.0,phase_1,,,,,,,,,,,,,magenta,triangle
202.0,3.0,3.0,0.0,1.0,1.0,258.5097080009291,1.0,1.0,phase_1,,,,,,,,,,,,,white,flipped triangle
406.0,4.0,4.0,0.0,3.0,3.0,284.1450720006833,1.0,1.0,phase_1,,,,,,,,,,,,,gray,I
421.0,4.0,4.0,0.0,4.0,4.0,278.3983750014158,1.0,1.0,phase_1,,,,,,,,,,,,,gray,I
410.0,4.0,4.0,0.0,2.0,2.0,343.043952001608,1.0,1.0,phase_1,,,,,,,,,,,,,gray,I
394.0,8.0,4.0,1.0,1.0,1.0,268.0406409999705,1.0,1.0,phase_1,,,,,,,,,,,,,yellow,square
378.0,4.0,4.0,0.0,3.0,3.0,262.8056370012928,1.0,2.0,phase_1,,,,,,,,,,,,,gray,I
0.0,2.0,0.0,0.0,1.0,1.0,515.7995139998093,1.0,1.0,phase_1,,,,,,,,,,,,,blue,circle
30.0,1.0,1.0,0.0,2.0,2.0,333.9787619988783,1.0,1.0,phase_1,,,,,,,,,,,,,orange,cross
115.0,2.0,2.0,0.0,3.0,3.0,300.0766440000006,1.0,1.0,phase_1,,,,,,,,,,,,,blue,circle
0.0,6.0,0.0,1.0,4.0,4.0,296.4185629989515,1.0,1.0,phase_1,,,,,,,,,,,,,cyan,hexagon
77.0,6.0,2.0,1.0,3.0,3.0,381.1533199987025,1.0,1.0,phase_1,,,,,,,,,,,,,cyan,hexagon
404.0,4.0,4.0,0.0,2.0,2.0,314.0440440001839,1.0,1.0,phase_1,,,,,,,,,,,,,gray,I
0.0,3.0,0.0,0.0,3.0,3.0,261.0137649990065,1.0,1.0,phase_1,,,,,,,,,,,,,white,flipped triangle
0.0,2.0,0.0,0.0,2.0,2.0,359.7013219987275,1.0,1.0,phase_1,,,,,,,,,,,,,blue,circle
209.0,7.0,3.0,1.0,3.0,3.0,346.6817670014279,1.0,1.0,phase_1,,,,,,,,,,,,,green,diamond
0.0,7.0,0.0,1.0,1.0,1.0,354.1929829989385,1.0,1.0,phase_1,,,,,,,,,,,,,green,diamond
41.0,1.0,1.0,0.0,1.0,1.0,314.3517699991207,1.0,1.0,phase_1,,,,,,,,,,,,,orange,cross
210.0,3.0,3.0,0.0,2.0,2.0,451.3392419994488,1.0,1.0,phase_1,,,,,,,,,,,,,white,flipped triangle
114.0,6.0,2.0,1.0,3.0,3.0,281.4516629987338,1.0,1.0,phase_1,,,,,,,,,,,,,cyan,hexagon
219.0,7.0,3.0,1.0,1.0,1.0,310.9923569991224,1.0,1.0,phase_1,,,,,,,,,,,,,green,diamond
401.0,4.0,4.0,0.0,2.0,2.0,268.0211530005181,1.0,1.0,phase_1,,,,,,,,,,,,,gray,I
223.0,7.0,3.0,1.0,3.0,3.0,301.8654930001503,1.0,1.0,phase_1,,,,,,,,,,,,,green,diamond
93.0,2.0,2.0,0.0,2.0,2.0,268.6154029997851,1.0,1.0,phase_1,,,,,,,,,,,,,blue,circle
204.0,7.0,3.0,1.0,4.0,4.0,335.9535670006153,1.0,1.0,phase_1,,,,,,,,,,,,,green,diamond
204.0,3.0,3.0,0.0,1.0,1.0,274.8607960002118,1.0,1.0,phase_1,,,,,,,,,,,,,white,flipped triangle
198.0,3.0,3.0,0.0,4.0,4.0,331.9354329996713,1.0,1.0,phase_1,,,,,,,,,,,,,white,flipped triangle
422.0,8.0,4.0,1.0,3.0,3.0,307.1231060002901,1.0,1.0,phase_1,,,,,,,,,,,,,yellow,square
92.0,6.0,2.0,1.0,3.0,3.0,365.6414980014233,1.0,1.0,phase_1,,,,,,,,,,,,,cyan,hexagon
105.0,2.0,2.0,0.0,1.0,1.0,315.6113089989958,1.0,1.0,phase_1,,,,,,,,,,,,,blue,circle
386.0,8.0,4.0,1.0,4.0,4.0,292.923253000481,1.0,1.0,phase_1,,,,,,,,,,,,,yellow,square
48.0,1.0,1.0,0.0,4.0,4.0,336.056654999993,1.0,1.0,phase_1,,,,,,,,,,,,,orange,cross
0.0,1.0,0.0,0.0,2.0,2.0,285.9561049990589,1.0,1.0,phase_1,,,,,,,,,,,,,orange,cross
0.0,6.0,0.0,1.0,3.0,3.0,285.9044990000257,1.0,1.0,phase_1,,,,,,,,,,,,,cyan,hexagon
418.0,4.0,4.0,0.0,3.0,3.0,262.631355000849,1.0,1.0,phase_1,,,,,,,,,,,,,gray,I
120.0,2.0,2.0,0.0,1.0,1.0,341.4255129991943,1.0,1.0,phase_1,,,,,,,,,,,,,blue,circle
37.0,1.0,1.0,0.0,3.0,3.0,308.1547039982979,1.0,1.0,phase_1,,,,,,,,,,,,,orange,cross
393.0,4.0,4.0,0.0,1.0,1.0,262.2024490010517,1.0,1.0,phase_1,,,,,,,,,,,,,gray,I
0.0,2.0,0.0,0.0,1.0,1.0,261.9890059995668,1.0,1.0,phase_1,,,,,,,,,,,,,blue,circle
85.0,2.0,2.0,0.0,3.0,3.0,270.5690170005255,1.0,1.0,phase_1,,,,,,,,,,,,,blue,circle
42.0,5.0,1.0,1.0,2.0,2.0,467.7312040003016,1.0,1.0,phase_1,,,,,,,,,,,,,magenta,triangle
425.0,4.0,4.0,0.0,3.0,3.0,287.144530999285,1.0,1.0,phase_1,,,,,,,,,,,,,gray,I
0.0,5.0,0.0,1.0,2.0,2.0,278.1012040013593,1.0,1.0,phase_1,,,,,,,,,,,,,magenta,triangle
0.0,4.0,0.0,0.0,4.0,4.0,332.0485809999809,1.0,1.0,phase_1,,,,,,,,,,,,,gray,I
114.0,2.0,2.0,0.0,4.0,4.0,297.5908780008467,1.0,1.0,phase_1,,,,,,,,,,,,,blue,circle
30.0,1.0,1.0,0.0,3.0,3.0,402.9938140010927,1.0,1.0,phase_1,,,,,,,,,,,,,orange,cross
105.0,6.0,2.0,1.0,2.0,2.0,277.6335350008594,1.0,1.0,phase_1,,,,,,,,,,,,,cyan,hexagon
378.0,8.0,4.0,1.0,2.0,2.0,257.6316850008879,1.0,1.0,phase_1,,,,,,,,,,,,,yellow,square
115.0,2.0,2.0,0.0,1.0,1.0,290.8306440003798,1.0,1.0,phase_1,,,,,,,,,,,,,blue,circle
0.0,4.0,0.0,0.0,3.0,3.0,261.6666840003745,1.0,1.0,phase_1,,,,,,,,,,,,,gray,I
0.0,3.0,0.0,0.0,4.0,4.0,296.4171990006434,1.0,1.0,phase_1,,,,,,,,,,,,,white,flipped triangle
117.0,2.0,2.0,0.0,4.0,4.0,270.4769989995839,1.0,1.0,phase_1,,,,,,,,,,,,,blue,circle
26.0,5.0,1.0,1.0,2.0,2.0,283.5291619994677,2.0,1.0,phase_1,,,,,,,,,,,,,magenta,triangle
0.0,1.0,0.0,0.0,4.0,4.0,296.512110000549,2.0,1.0,phase_1,,,,,,,,,,,,,orange,cross
391.0,4.0,4.0,0.0,3.0,3.0,350.8823540014418,2.0,1.0,phase_1,,,,,,,,,,,,,gray,I
120.0,2.0,2.0,0.0,4.0,4.0,311.5962909996597,2.0,1.0,phase_1,,,,,,,,,,,,,blue,circle
408.0,4.0,4.0,0.0,4.0,4.0,298.3915149998211,2.0,1.0,phase_1,,,,,,,,,,,,,gray,I
0.0,8.0,0.0,1.0,3.0,3.0,281.3279919992055,2.0,1.0,phase_1,,,,,,,,,,,,,yellow,square
119.0,2.0,2.0,0.0,2.0,2.0,274.425086001429,2.0,1.0,phase_1,,,,,,,,,,,,,blue,circle
382.0,4.0,4.0,0.0,3.0,3.0,323.8377750003565,2.0,1.0,phase_1,,,,,,,,,,,,,gray,I
0.0,8.0,0.0,1.0,1.0,1.0,243.9608409986249,2.0,1.0,phase_1,,,,,,,,,,,,,yellow,square
0.0,1.0,0.0,0.0,3.0,3.0,319.4049530011398,2.0,1.0,phase_1,,,,,,,,,,,,,orange,cross
0.0,2.0,0.0,0.0,4.0,4.0,387.7455100009683,2.0,1.0,phase_1,,,,,,,,,,,,,blue,circle
114.0,6.0,2.0,1.0,4.0,4.0,272.1989109995775,2.0,1.0,phase_1,,,,,,,,,,,,,cyan,hexagon
395.0,4.0,4.0,0.0,1.0,1.0,241.0901719995308,2.0,1.0,phase_1,,,,,,,,,,,,,gray,I
0.0,2.0,0.0,0.0,2.0,2.0,287.0730489994457,2.0,1.0,phase_1,,,,,,,,,,,,,blue,circle
210.0,7.0,3.0,1.0,3.0,3.0,299.5095070000388,2.0,1.0,phase_1,,,,,,,,,,,,,green,diamond
49.0,5.0,1.0,1.0,2.0,2.0,311.3316590006434,2.0,1.0,phase_1,,,,,,,,,,,,,magenta,triangle
403.0,4.0,4.0,0.0,4.0,4.0,299.2628920001152,2.0,1.0,phase_1,,,,,,,,,,,,,gray,I
209.0,3.0,3.0,0.0,4.0,4.0,304.3292319998727,2.0,1.0,phase_1,,,,,,,,,,,,,white,flipped triangle
180.0,7.0,3.0,1.0,2.0,2.0,261.5034249993186,2.0,1.0,phase_1,,,,,,,,,,,,,green,diamond
0.0,1.0,0.0,0.0,2.0,2.0,309.9646760001633,2.0,2.0,phase_1,,,,,,,,,,,,,orange,cross
75.0,2.0,2.0,0.0,1.0,1.0,292.2534280005493,2.0,1.0,phase_1,,,,,,,,,,,,,blue,circle
0.0,1.0,0.0,0.0,2.0,2.0,288.2786600002873,2.0,1.0,phase_1,,,,,,,,,,,,,orange,cross
70.0,5.0,1.0,1.0,4.0,4.0,301.2519629992312,2.0,1.0,phase_1,,,,,,,,,,,,,magenta,triangle
0.0,2.0,0.0,0.0,3.0,3.0,311.60895500033797,2.0,1.0,phase_1,,,,,,,,,,,,,blue,circle
422.0,4.0,4.0,0.0,3.0,3.0,306.1761930002831,2.0,1.0,phase_1,,,,,,,,,,,,,gray,I
44.0,1.0,1.0,0.0,4.0,4.0,279.0344650002225,2.0,1.0,phase_1,,,,,,,,,,,,,orange,cross
209.0,7.0,3.0,1.0,3.0,3.0,280.850562001433,2.0,1.0,phase_1,,,,,,,,,,,,,green,diamond
42.0,1.0,1.0,0.0,2.0,2.0,268.9664190002077,2.0,1.0,phase_1,,,,,,,,,,,,,orange,cross
219.0,3.0,3.0,0.0,1.0,1.0,517.3838840000826,2.0,1.0,phase_1,,,,,,,,,,,,,white,flipped triangle
77.0,2.0,2.0,0.0,4.0,4.0,325.1602729997103,2.0,1.0,phase_1,,,,,,,,,,,,,blue,circle
46.0,5.0,1.0,1.0,3.0,3.0,321.2289809998765,2.0,1.0,phase_1,,,,,,,,,,,,,magenta,triangle
0.0,7.0,0.0,1.0,4.0,4.0,301.5523510002822,2.0,1.0,phase_1,,,,,,,,,,,,,green,diamond
115.0,6.0,2.0,1.0,1.0,1.0,311.8116240002564,2.0,1.0,phase_1,,,,,,,,,,,,,cyan,hexagon
42.0,5.0,1.0,1.0,2.0,2.0,313.0808519999846,2.0,1.0,phase_1,,,,,,,,,,,,,magenta,triangle
392.0,4.0,4.0,0.0,2.0,2.0,342.2581310005625,2.0,1.0,phase_1,,,,,,,,,,,,,gray,I
417.0,4.0,4.0,0.0,1.0,1.0,326.6008849986974,2.0,1.0,phase_1,,,,,,,,,,,,,gray,I
37.0,1.0,1.0,0.0,1.0,1.0,292.5630599984288,2.0,1.0,phase_1,,,,,,,,,,,,,orange,cross
90.0,6.0,2.0,1.0,2.0,2.0,282.4467829996138,2.0,1.0,phase_1,,,,,,,,,,,,,cyan,hexagon
401.0,8.0,4.0,1.0,2.0,2.0,293.2050210001762,2.0,1.0,phase_1,,,,,,,,,,,,,yellow,square
204.0,3.0,3.0,0.0,2.0,2.0,286.4040700005716,2.0,1.0,phase_1,,,,,,,,,,,,,white,flipped triangle
102.0,2.0,2.0,0.0,2.0,2.0,302.5556180000421,2.0,1.0,phase_1,,,,,,,,,,,,,blue,circle
59.0,5.0,1.0,1.0,3.0,3.0,273.7655279997852,2.0,1.0,phase_1,,,,,,,,,,,,,magenta,triangle
210.0,3.0,3.0,0.0,4.0,4.0,311.6341460008698,2.0,1.0,phase_1,,,,,,,,,,,,,white,flipped triangle
394.0,4.0,4.0,0.0,4.0,4.0,271.9143470003473,2.0,1.0,phase_1,,,,,,,,,,,,,gray,I
88.0,6.0,2.0,1.0,2.0,2.0,271.5913169995474,2.0,1.0,phase_1,,,,,,,,,,,,,cyan,hexagon
391.0,8.0,4.0,1.0,3.0,3.0,262.3864769993815,2.0,1.0,phase_1,,,,,,,,,,,,,yellow,square
37.0,5.0,1.0,1.0,1.0,1.0,259.3473689994425,2.0,1.0,phase_1,,,,,,,,,,,,,magenta,triangle
88.0,6.0,2.0,1.0,2.0,2.0,236.8179769982816,2.0,1.0,phase_1,,,,,,,,,,,,,cyan,hexagon
400.0,4.0,4.0,0.0,4.0,4.0,276.6269780004222,2.0,1.0,phase_1,,,,,,,,,,,,,gray,I
419.0,4.0,4.0,0.0,2.0,2.0,246.3915219996124,2.0,1.0,phase_1,,,,,,,,,,,,,gray,I
123.0,2.0,2.0,0.0,3.0,3.0,242.8637250013707,2.0,1.0,phase_1,,,,,,,,,,,,,blue,circle
405.0,8.0,4.0,1.0,2.0,2.0,256.6359880001982,2.0,1.0,phase_1,,,,,,,,,,,,,yellow,square
53.0,5.0,1.0,1.0,2.0,2.0,249.7763969986408,2.0,1.0,phase_1,,,,,,,,,,,,,magenta,triangle
48.0,5.0,1.0,1.0,1.0,1.0,276.2217880008393,2.0,2.0,phase_1,,,,,,,,,,,,,magenta,triangle
70.0,1.0,1.0,0.0,2.0,2.0,319.5564279994869,2.0,1.0,phase_1,,,,,,,,,,,,,orange,cross
403.0,8.0,4.0,1.0,4.0,4.0,325.1735049998387,2.0,1.0,phase_1,,,,,,,,,,,,,yellow,square
0.0,2.0,0.0,0.0,3.0,3.0,292.448049000086,2.0,1.0,phase_1,,,,,,,,,,,,,blue,circle
218.0,7.0,3.0,1.0,1.0,1.0,344.9912340001901,2.0,1.0,phase_1,,,,,,,,,,,,,green,diamond
418.0,8.0,4.0,1.0,2.0,2.0,294.60926299725537,2.0,1.0,phase_1,,,,,,,,,,,,,yellow,square
181.0,7.0,3.0,1.0,2.0,2.0,353.9548990011099,2.0,1.0,phase_1,,,,,,,,,,,,,green,diamond
413.0,8.0,4.0,1.0,2.0,2.0,300.5131009995239,2.0,1.0,phase_1,,,,,,,,,,,,,yellow,square
66.0,1.0,1.0,0.0,1.0,1.0,307.4296160011727,2.0,1.0,phase_1,,,,,,,,,,,,,orange,cross
117.0,6.0,2.0,1.0,4.0,4.0,317.3808900028234,2.0,1.0,phase_1,,,,,,,,,,,,,cyan,hexagon
37.0,5.0,1.0,1.0,3.0,3.0,306.7225530030555,2.0,1.0,phase_1,,,,,,,,,,,,,magenta,triangle
198.0,7.0,3.0,1.0,4.0,4.0,314.9854289986251,2.0,1.0,phase_1,,,,,,,,,,,,,green,diamond
199.0,7.0,3.0,1.0,3.0,3.0,335.1659840009233,2.0,1.0,phase_1,,,,,,,,,,,,,green,diamond
55.0,5.0,1.0,1.0,3.0,3.0,277.8034650000336,2.0,1.0,phase_1,,,,,,,,,,,,,magenta,triangle
197.0,3.0,3.0,0.0,3.0,3.0,287.9101239996089,2.0,1.0,phase_1,,,,,,,,,,,,,white,flipped triangle
100.0,6.0,2.0,1.0,1.0,1.0,352.9326349998882,2.0,1.0,phase_1,,,,,,,,,,,,,cyan,hexagon
396.0,4.0,4.0,0.0,2.0,2.0,266.1967239982914,2.0,1.0,phase_1,,,,,,,,,,,,,gray,I
35.0,5.0,1.0,1.0,2.0,2.0,299.4089359999634,2.0,1.0,phase_1,,,,,,,,,,,,,magenta,triangle
208.0,3.0,3.0,0.0,2.0,2.0,279.8790949964314,2.0,1.0,phase_1,,,,,,,,,,,,,white,flipped triangle
30.0,5.0,1.0,1.0,4.0,4.0,221.8772570013243,2.0,1.0,phase_1,,,,,,,,,,,,,magenta,triangle
88.0,2.0,2.0,0.0,2.0,2.0,242.54914999983149,2.0,1.0,phase_1,,,,,,,,,,,,,blue,circle
89.0,2.0,2.0,0.0,3.0,3.0,260.3508850006619,2.0,1.0,phase_1,,,,,,,,,,,,,blue,circle
85.0,6.0,2.0,1.0,4.0,4.0,307.7102690003812,2.0,1.0,phase_1,,,,,,,,,,,,,cyan,hexagon
193.0,7.0,3.0,1.0,2.0,2.0,233.6168570000154,2.0,1.0,phase_1,,,,,,,,,,,,,green,diamond
187.0,3.0,3.0,0.0,1.0,1.0,232.9510339986882,2.0,1.0,phase_1,,,,,,,,,,,,,white,flipped triangle
210.0,7.0,3.0,1.0,1.0,1.0,281.8396000002394,2.0,1.0,phase_1,,,,,,,,,,,,,green,diamond
0.0,4.0,0.0,0.0,2.0,2.0,243.4936969984846,2.0,1.0,phase_1,,,,,,,,,,,,,gray,I
389.0,4.0,4.0,0.0,1.0,1.0,250.46930499956937,2.0,1.0,phase_1,,,,,,,,,,,,,gray,I
202.0,7.0,3.0,1.0,3.0,3.0,277.4967210025352,2.0,2.0,phase_1,,,,,,,,,,,,,green,diamond
182.0,3.0,3.0,0.0,2.0,2.0,319.4106769988138,2.0,1.0,phase_1,,,,,,,,,,,,,white,flipped triangle
206.0,3.0,3.0,0.0,2.0,2.0,281.7193320006481,2.0,1.0,phase_1,,,,,,,,,,,,,white,flipped triangle
57.0,5.0,1.0,1.0,1.0,1.0,300.273445998755,2.0,1.0,phase_1,,,,,,,,,,,,,magenta,triangle
184.0,7.0,3.0,1.0,4.0,4.0,314.8919650011521,2.0,1.0,phase_1,,,,,,,,,,,,,green,diamond
205.0,7.0,3.0,1.0,2.0,2.0,250.0509169985889,2.0,1.0,phase_1,,,,,,,,,,,,,green,diamond
199.0,3.0,3.0,0.0,1.0,1.0,283.6499100012588,2.0,1.0,phase_1,,,,,,,,,,,,,white,flipped triangle
100.0,2.0,2.0,0.0,3.0,3.0,351.0984700005792,2.0,1.0,phase_1,,,,,,,,,,,,,blue,circle
200.0,3.0,3.0,0.0,3.0,3.0,286.3218380007311,2.0,1.0,phase_1,,,,,,,,,,,,,white,flipped triangle
196.0,3.0,3.0,0.0,4.0,4.0,327.3017960018478,2.0,1.0,phase_1,,,,,,,,,,,,,white,flipped triangle
411.0,4.0,4.0,0.0,1.0,1.0,326.0561300012341,2.0,1.0,phase_1,,,,,,,,,,,,,gray,I
89.0,6.0,2.0,1.0,4.0,4.0,422.16940700018307,2.0,1.0,phase_1,,,,,,,,,,,,,cyan,hexagon
0.0,8.0,0.0,1.0,2.0,2.0,284.9724849984341,2.0,1.0,phase_1,,,,,,,,,,,,,yellow,square
0.0,6.0,0.0,1.0,2.0,2.0,362.2539680000045,2.0,1.0,phase_1,,,,,,,,,,,,,cyan,hexagon
82.0,2.0,2.0,0.0,1.0,1.0,374.8919460012985,2.0,1.0,phase_1,,,,,,,,,,,,,blue,circle
398.0,8.0,4.0,1.0,1.0,1.0,307.0132119974005,2.0,1.0,phase_1,,,,,,,,,,,,,yellow,square
0.0,8.0,0.0,1.0,2.0,2.0,303.0162819995894,2.0,1.0,phase_1,,,,,,,,,,,,,yellow,square
61.0,5.0,1.0,1.0,1.0,1.0,286.0163609984738,2.0,1.0,phase_1,,,,,,,,,,,,,magenta,triangle
44.0,5.0,1.0,1.0,1.0,1.0,278.540579998662,2.0,1.0,phase_1,,,,,,,,,,,,,magenta,triangle
59.0,1.0,1.0,0.0,2.0,2.0,270.6213320016104,3.0,1.0,phase_1,,,,,,,,,,,,,orange,cross
66.0,5.0,1.0,1.0,4.0,4.0,280.8711680008855,3.0,1.0,phase_1,,,,,,,,,,,,,magenta,triangle
93.0,2.0,2.0,0.0,1.0,1.0,322.0050670024648,3.0,1.0,phase_1,,,,,,,,,,,,,blue,circle
395.0,8.0,4.0,1.0,3.0,3.0,315.7184980009333,3.0,1.0,phase_1,,,,,,,,,,,,,yellow,square
88.0,2.0,2.0,0.0,2.0,2.0,278.1548099992506,3.0,1.0,phase_1,,,,,,,,,,,,,blue,circle
187.0,7.0,3.0,1.0,2.0,2.0,278.7073670006066,3.0,1.0,phase_1,,,,,,,,,,,,,green,diamond
57.0,1.0,1.0,0.0,3.0,3.0,291.3822980008262,3.0,1.0,phase_1,,,,,,,,,,,,,orange,cross
206.0,3.0,3.0,0.0,2.0,2.0,270.4894529997546,3.0,1.0,phase_1,,,,,,,,,,,,,white,flipped triangle
410.0,8.0,4.0,1.0,3.0,3.0,271.9411120015138,3.0,1.0,phase_1,,,,,,,,,,,,,yellow,square
0.0,5.0,0.0,1.0,1.0,1.0,301.25501600196,3.0,1.0,phase_1,,,,,,,,,,,,,magenta,triangle
210.0,3.0,3.0,0.0,3.0,3.0,267.6238259991805,3.0,1.0,phase_1,,,,,,,,,,,,,white,flipped triangle
113.0,6.0,2.0,1.0,2.0,2.0,252.9170060006436,3.0,1.0,phase_1,,,,,,,,,,,,,cyan,hexagon
0.0,5.0,0.0,1.0,2.0,2.0,278.7588279970805,3.0,2.0,phase_1,,,,,,,,,,,,,magenta,triangle
78.0,6.0,2.0,1.0,1.0,1.0,279.4435269970563,3.0,1.0,phase_1,,,,,,,,,,,,,cyan,hexagon
193.0,3.0,3.0,0.0,3.0,3.0,401.8406110008072,3.0,1.0,phase_1,,,,,,,,,,,,,white,flipped triangle
199.0,3.0,3.0,0.0,1.0,1.0,398.3430240004963,3.0,1.0,phase_1,,,,,,,,,,,,,white,flipped triangle
0.0,6.0,0.0,1.0,2.0,2.0,266.3767369995184,3.0,1.0,phase_1,,,,,,,,,,,,,cyan,hexagon
179.0,3.0,3.0,0.0,3.0,3.0,499.8125199999776,3.0,1.0,phase_1,,,,,,,,,,,,,white,flipped triangle
97.0,6.0,2.0,1.0,4.0,4.0,293.8774329995794,3.0,1.0,phase_1,,,,,,,,,,,,,cyan,hexagon
199.0,7.0,3.0,1.0,3.0,3.0,319.5268320014293,3.0,1.0,phase_1,,,,,,,,,,,,,green,diamond
202.0,7.0,3.0,1.0,4.0,4.0,321.3825579987315,3.0,1.0,phase_1,,,,,,,,,,,,,green,diamond
387.0,8.0,4.0,1.0,4.0,4.0,363.6069720014347,3.0,1.0,phase_1,,,,,,,,,,,,,yellow,square
0.0,8.0,0.0,1.0,3.0,3.0,283.2057749983505,3.0,1.0,phase_1,,,,,,,,,,,,,yellow,square
82.0,6.0,2.0,1.0,4.0,4.0,369.2442379979184,3.0,1.0,phase_1,,,,,,,,,,,,,cyan,hexagon
175.0,3.0,3.0,0.0,1.0,1.0,249.6558839993667,3.0,1.0,phase_1,,,,,,,,,,,,,white,flipped triangle
0.0,6.0,0.0,1.0,3.0,3.0,295.0443890003953,3.0,1.0,phase_1,,,,,,,,,,,,,cyan,hexagon
124.0,6.0,2.0,1.0,1.0,1.0,279.1245709995564,3.0,1.0,phase_1,,,,,,,,,,,,,cyan,hexagon
66.0,1.0,1.0,0.0,3.0,3.0,387.2837680028169,3.0,1.0,phase_1,,,,,,,,,,,,,orange,cross
205.0,3.0,3.0,0.0,2.0,2.0,245.8499399981519,3.0,1.0,phase_1,,,,,,,,,,,,,white,flipped triangle
397.0,8.0,4.0,1.0,2.0,2.0,391.4593279987457,3.0,2.0,phase_1,,,,,,,,,,,,,yellow,square
105.0,2.0,2.0,0.0,3.0,3.0,361.5352750020975,3.0,1.0,phase_1,,,,,,,,,,,,,blue,circle
54.0,1.0,1.0,0.0,4.0,4.0,280.2387470001122,3.0,1.0,phase_1,,,,,,,,,,,,,orange,cross
392.0,8.0,4.0,1.0,3.0,3.0,349.4682959972124,3.0,1.0,phase_1,,,,,,,,,,,,,yellow,square
382.0,8.0,4.0,1.0,1.0,1.0,321.550415999809,3.0,1.0,phase_1,,,,,,,,,,,,,yellow,square
411.0,8.0,4.0,1.0,2.0,2.0,233.9045980006631,3.0,1.0,phase_1,,,,,,,,,,,,,yellow,square
82.0,2.0,2.0,0.0,1.0,1.0,359.9313960003201,3.0,1.0,phase_1,,,,,,,,,,,,,blue,circle
0.0,5.0,0.0,1.0,1.0,1.0,336.8426800007,3.0,1.0,phase_1,,,,,,,,,,,,,magenta,triangle
391.0,8.0,4.0,1.0,4.0,4.0,360.0522209999326,3.0,1.0,phase_1,,,,,,,,,,,,,yellow,square
0.0,8.0,0.0,1.0,1.0,1.0,414.7296770024695,3.0,1.0,phase_1,,,,,,,,,,,,,yellow,square
400.0,8.0,4.0,1.0,3.0,3.0,358.5323330007668,3.0,1.0,phase_1,,,,,,,,,,,,,yellow,square
67.0,1.0,1.0,0.0,4.0,4.0,279.5342040008108,3.0,1.0,phase_1,,,,,,,,,,,,,orange,cross
402.0,4.0,4.0,0.0,3.0,3.0,379.6634719983558,3.0,1.0,phase_1,,,,,,,,,,,,,gray,I
419.0,8.0,4.0,1.0,1.0,1.0,358.8412349999998,3.0,1.0,phase_1,,,,,,,,,,,,,yellow,square
193.0,3.0,3.0,0.0,3.0,3.0,332.123041000159,3.0,1.0,phase_1,,,,,,,,,,,,,white,flipped triangle
32.0,5.0,1.0,1.0,2.0,2.0,282.8697039985854,3.0,1.0,phase_1,,,,,,,,,,,,,magenta,triangle
389.0,8.0,4.0,1.0,3.0,3.0,283.5595090000424,3.0,1.0,phase_1,,,,,,,,,,,,,yellow,square
54.0,5.0,1.0,1.0,2.0,2.0,303.3524930033309,3.0,1.0,phase_1,,,,,,,,,,,,,magenta,triangle
105.0,6.0,2.0,1.0,1.0,1.0,317.8553139987343,3.0,1.0,phase_1,,,,,,,,,,,,,cyan,hexagon
98.0,2.0,2.0,0.0,1.0,1.0,290.23029300151387,3.0,1.0,phase_1,,,,,,,,,,,,,blue,circle
0.0,2.0,0.0,0.0,2.0,2.0,262.6362769988191,3.0,1.0,phase_1,,,,,,,,,,,,,blue,circle
0.0,1.0,0.0,0.0,3.0,3.0,382.5557789969025,3.0,1.0,phase_1,,,,,,,,,,,,,orange,cross
0.0,6.0,0.0,1.0,4.0,4.0,306.5896099978999,3.0,1.0,phase_1,,,,,,,,,,,,,cyan,hexagon
113.0,2.0,2.0,0.0,4.0,4.0,310.2538099992671,3.0,1.0,phase_1,,,,,,,,,,,,,blue,circle
123.0,6.0,2.0,1.0,2.0,2.0,228.406394002377,3.0,1.0,phase_1,,,,,,,,,,,,,cyan,hexagon
102.0,6.0,2.0,1.0,3.0,3.0,285.8996400027536,3.0,1.0,phase_1,,,,,,,,,,,,,cyan,hexagon
398.0,4.0,4.0,0.0,1.0,1.0,307.3622529991553,3.0,1.0,phase_1,,,,,,,,,,,,,gray,I
100.0,2.0,2.0,0.0,2.0,2.0,269.3645330000436,3.0,1.0,phase_1,,,,,,,,,,,,,blue,circle
421.0,8.0,4.0,1.0,4.0,4.0,334.1157550021307,3.0,1.0,phase_1,,,,,,,,,,,,,yellow,square
0.0,1.0,0.0,0.0,2.0,2.0,304.1752400022233,3.0,1.0,phase_1,,,,,,,,,,,,,orange,cross
0.0,8.0,0.0,1.0,1.0,1.0,320.6340229990019,3.0,1.0,phase_1,,,,,,,,,,,,,yellow,square
378.0,4.0,4.0,0.0,2.0,2.0,289.4561590001103,3.0,1.0,phase_1,,,,,,,,,,,,,gray,I
0.0,4.0,0.0,0.0,2.0,2.0,417.8781230002641,3.0,1.0,phase_1,,,,,,,,,,,,,gray,I
0.0,5.0,0.0,1.0,1.0,1.0,311.7675430003146,3.0,1.0,phase_1,,,,,,,,,,,,,magenta,triangle
63.0,1.0,1.0,0.0,1.0,1.0,310.5024409996986,3.0,1.0,phase_1,,,,,,,,,,,,,orange,cross
82.0,6.0,2.0,1.0,4.0,4.0,351.0841930001334,3.0,1.0,phase_1,,,,,,,,,,,,,cyan,hexagon
70.0,5.0,1.0,1.0,1.0,1.0,374.7397320003074,3.0,1.0,phase_1,,,,,,,,,,,,,magenta,triangle
197.0,7.0,3.0,1.0,2.0,2.0,341.4901399992232,3.0,1.0,phase_1,,,,,,,,,,,,,green,diamond
53.0,1.0,1.0,0.0,4.0,4.0,350.7769360003294,3.0,1.0,phase_1,,,,,,,,,,,,,orange,cross
0.0,3.0,0.0,0.0,3.0,3.0,304.7880580015771,3.0,1.0,phase_1,,,,,,,,,,,,,white,flipped triangle
0.0,7.0,0.0,1.0,4.0,4.0,350.3737450009794,3.0,1.0,phase_1,,,,,,,,,,,,,green,diamond
176.0,7.0,3.0,1.0,2.0,2.0,274.0377070003887,3.0,1.0,phase_1,,,,,,,,,,,,,green,diamond
0.0,2.0,0.0,0.0,2.0,2.0,280.3396799972688,3.0,1.0,phase_1,,,,,,,,,,,,,blue,circle
105.0,6.0,2.0,1.0,3.0,3.0,262.9730709995783,3.0,1.0,phase_1,,,,,,,,,,,,,cyan,hexagon
55.0,1.0,1.0,0.0,3.0,3.0,347.302178000973,3.0,1.0,phase_1,,,,,,,,,,,,,orange,cross
85.0,6.0,2.0,1.0,1.0,1.0,291.1090130000957,3.0,1.0,phase_1,,,,,,,,,,,,,cyan,hexagon
45.0,1.0,1.0,0.0,3.0,3.0,255.05890799831832,3.0,1.0,phase_1,,,,,,,,,,,,,orange,cross
193.0,7.0,3.0,1.0,1.0,1.0,305.4293950008286,3.0,1.0,phase_1,,,,,,,,,,,,,green,diamond
0.0,4.0,0.0,0.0,3.0,3.0,266.9279940018896,3.0,1.0,phase_1,,,,,,,,,,,,,gray,I
0.0,3.0,0.0,0.0,2.0,2.0,296.5151270000206,3.0,1.0,phase_1,,,,,,,,,,,,,white,flipped triangle
41.0,5.0,1.0,1.0,4.0,4.0,292.5679680010944,3.0,1.0,phase_1,,,,,,,,,,,,,magenta,triangle
97.0,2.0,2.0,0.0,3.0,3.0,392.5602469971636,3.0,1.0,phase_1,,,,,,,,,,,,,blue,circle
32.0,5.0,1.0,1.0,3.0,3.0,263.874794000003,3.0,1.0,phase_1,,,,,,,,,,,,,magenta,triangle
0.0,5.0,0.0,1.0,2.0,2.0,236.6383010012214,3.0,2.0,phase_1,,,,,,,,,,,,,magenta,triangle
68.0,5.0,1.0,1.0,4.0,4.0,311.8947580005624,3.0,1.0,phase_1,,,,,,,,,,,,,magenta,triangle
0.0,1.0,0.0,0.0,2.0,2.0,268.774576998112,3.0,1.0,phase_1,,,,,,,,,,,,,orange,cross
32.0,1.0,1.0,0.0,4.0,4.0,283.2354259990097,3.0,1.0,phase_1,,,,,,,,,,,,,orange,cross
391.0,4.0,4.0,0.0,1.0,1.0,350.1327249978203,3.0,1.0,phase_1,,,,,,,,,,,,,gray,I
105.0,6.0,2.0,1.0,1.0,1.0,296.2122019998787,3.0,1.0,phase_1,,,,,,,,,,,,,cyan,hexagon
105.0,2.0,2.0,0.0,1.0,1.0,307.1754769989638,3.0,1.0,phase_1,,,,,,,,,,,,,blue,circle
49.0,1.0,1.0,0.0,4.0,4.0,353.1071180004801,3.0,1.0,phase_1,,,,,,,,,,,,,orange,cross
210.0,7.0,3.0,1.0,1.0,1.0,277.4191259995859,3.0,1.0,phase_1,,,,,,,,,,,,,green,diamond
0.0,3.0,0.0,0.0,4.0,4.0,347.6321759990242,3.0,1.0,phase_1,,,,,,,,,,,,,white,flipped triangle
396.0,8.0,4.0,1.0,4.0,4.0,345.16666799754597,3.0,1.0,phase_1,,,,,,,,,,,,,yellow,square
75.0,5.0,1.0,1.0,1.0,1.0,303.9945309974428,3.0,1.0,phase_1,,,,,,,,,,,,,magenta,triangle
206.0,7.0,3.0,1.0,4.0,4.0,299.7683329995197,3.0,1.0,phase_1,,,,,,,,,,,,,green,diamond
0.0,4.0,0.0,0.0,3.0,3.0,331.3408130015887,3.0,2.0,phase_1,,,,,,,,,,,,,gray,I
41.0,5.0,1.0,1.0,1.0,1.0,303.6183610020089,3.0,1.0,phase_1,,,,,,,,,,,,,magenta,triangle
0.0,4.0,0.0,0.0,1.0,1.0,299.55822500051,3.0,2.0,phase_1,,,,,,,,,,,,,gray,I
221.0,3.0,3.0,0.0,4.0,4.0,350.7736009996733,3.0,1.0,phase_1,,,,,,,,,,,,,white,flipped triangle
223.0,3.0,3.0,0.0,1.0,1.0,350.0542049987416,3.0,1.0,phase_1,,,,,,,,,,,,,white,flipped triangle
425.0,8.0,4.0,1.0,1.0,1.0,270.3114020005159,4.0,1.0,phase_1,,,,,,,,,,,,,yellow,square
0.0,2.0,0.0,0.0,1.0,1.0,283.7509250020957,4.0,1.0,phase_1,,,,,,,,,,,,,blue,circle
92.0,2.0,2.0,0.0,4.0,4.0,274.6528640018368,4.0,1.0,phase_1,,,,,,,,,,,,,blue,circle
45.0,5.0,1.0,1.0,1.0,1.0,254.42889699843357,4.0,1.0,phase_1,,,,,,,,,,,,,magenta,triangle
0.0,8.0,0.0,1.0,4.0,4.0,269.4986220012652,4.0,1.0,phase_1,,,,,,,,,,,,,yellow,square
175.0,7.0,3.0,1.0,2.0,2.0,312.3902090010233,4.0,1.0,phase_1,,,,,,,,,,,,,green,diamond
0.0,3.0,0.0,0.0,2.0,2.0,318.282790001831,4.0,1.0,phase_1,,,,,,,,,,,,,white,flipped triangle
180.0,3.0,3.0,0.0,2.0,2.0,316.5153150002879,4.0,2.0,phase_1,,,,,,,,,,,,,white,flipped triangle
0.0,3.0,0.0,0.0,3.0,3.0,399.795287001325,4.0,1.0,phase_1,,,,,,,,,,,,,white,flipped triangle
0.0,3.0,0.0,0.0,1.0,1.0,260.3274469984171,4.0,1.0,phase_1,,,,,,,,,,,,,white,flipped triangle
403.0,8.0,4.0,1.0,3.0,3.0,315.6448059999093,4.0,1.0,phase_1,,,,,,,,,,,,,yellow,square
394.0,4.0,4.0,0.0,4.0,4.0,293.7542620020394,4.0,1.0,phase_1,,,,,,,,,,,,,gray,I
0.0,7.0,0.0,1.0,2.0,2.0,279.9171610022313,4.0,1.0,phase_1,,,,,,,,,,,,,green,diamond
384.0,8.0,4.0,1.0,1.0,1.0,295.7001680006215,4.0,1.0,phase_1,,,,,,,,,,,,,yellow,square
211.0,7.0,3.0,1.0,2.0,2.0,301.2370609976642,4.0,1.0,phase_1,,,,,,,,,,,,,green,diamond
211.0,3.0,3.0,0.0,4.0,4.0,357.812828002352,4.0,1.0,phase_1,,,,,,,,,,,,,white,flipped triangle
37.0,1.0,1.0,0.0,2.0,2.0,288.6005759974068,4.0,1.0,phase_1,,,,,,,,,,,,,orange,cross
0.0,5.0,0.0,1.0,2.0,2.0,323.7496580004517,4.0,1.0,phase_1,,,,,,,,,,,,,magenta,triangle
43.0,1.0,1.0,0.0,3.0,3.0,355.6975589999638,4.0,1.0,phase_1,,,,,,,,,,,,,orange,cross
397.0,4.0,4.0,0.0,4.0,4.0,538.3801009993476,4.0,1.0,phase_1,,,,,,,,,,,,,gray,I
378.0,8.0,4.0,1.0,1.0,1.0,297.9613490024348,4.0,1.0,phase_1,,,,,,,,,,,,,yellow,square
91.0,6.0,2.0,1.0,4.0,4.0,332.9096769994066,4.0,1.0,phase_1,,,,,,,,,,,,,cyan,hexagon
120.0,6.0,2.0,1.0,1.0,1.0,312.8631569998106,4.0,1.0,phase_1,,,,,,,,,,,,,cyan,hexagon
414.0,4.0,4.0,0.0,4.0,4.0,348.4468969982117,4.0,1.0,phase_1,,,,,,,,,,,,,gray,I
200.0,7.0,3.0,1.0,2.0,2.0,413.7459279991162,4.0,1.0,phase_1,,,,,,,,,,,,,green,diamond
90.0,2.0,2.0,0.0,4.0,4.0,327.2398509980121,4.0,1.0,phase_1,,,,,,,,,,,,,blue,circle
0.0,4.0,0.0,0.0,1.0,1.0,286.9789659998787,4.0,1.0,phase_1,,,,,,,,,,,,,gray,I
0.0,1.0,0.0,0.0,4.0,4.0,293.8693739997688,4.0,1.0,phase_1,,,,,,,,,,,,,orange,cross
0.0,3.0,0.0,0.0,4.0,4.0,333.2545610028319,4.0,1.0,phase_1,,,,,,,,,,,,,white,flipped triangle
63.0,5.0,1.0,1.0,3.0,3.0,357.2940970007039,4.0,1.0,phase_1,,,,,,,,,,,,,magenta,triangle
120.0,6.0,2.0,1.0,3.0,3.0,329.2394620002596,4.0,1.0,phase_1,,,,,,,,,,,,,cyan,hexagon
0.0,8.0,0.0,1.0,2.0,2.0,353.1819900017581,4.0,1.0,phase_1,,,,,,,,,,,,,yellow,square
208.0,7.0,3.0,1.0,3.0,3.0,300.6645079985901,4.0,1.0,phase_1,,,,,,,,,,,,,green,diamond
0.0,7.0,0.0,1.0,4.0,4.0,317.2649199987063,4.0,1.0,phase_1,,,,,,,,,,,,,green,diamond
100.0,6.0,2.0,1.0,3.0,3.0,291.32331800065,4.0,1.0,phase_1,,,,,,,,,,,,,cyan,hexagon
102.0,2.0,2.0,0.0,2.0,2.0,342.941281000094,4.0,1.0,phase_1,,,,,,,,,,,,,blue,circle
102.0,6.0,2.0,1.0,2.0,2.0,566.5546720010752,4.0,1.0,phase_1,,,,,,,,,,,,,cyan,hexagon
55.0,1.0,1.0,0.0,2.0,2.0,317.2220180022123,4.0,1.0,phase_1,,,,,,,,,,,,,orange,cross
98.0,6.0,2.0,1.0,2.0,2.0,273.5111069996492,4.0,1.0,phase_1,,,,,,,,,,,,,cyan,hexagon
403.0,4.0,4.0,0.0,3.0,3.0,410.5656689971511,4.0,1.0,phase_1,,,,,,,,,,,,,gray,I
0.0,6.0,0.0,1.0,3.0,3.0,305.8183900029689,4.0,1.0,phase_1,,,,,,,,,,,,,cyan,hexagon
218.0,3.0,3.0,0.0,3.0,3.0,286.2916430021869,4.0,1.0,phase_1,,,,,,,,,,,,,white,flipped triangle
417.0,8.0,4.0,1.0,3.0,3.0,262.1513170015532,4.0,1.0,phase_1,,,,,,,,,,,,,yellow,square
32.0,5.0,1.0,1.0,2.0,2.0,384.1506360004132,4.0,1.0,phase_1,,,,,,,,,,,,,magenta,triangle
204.0,7.0,3.0,1.0,3.0,3.0,345.9137490026478,4.0,1.0,phase_1,,,,,,,,,,,,,green,diamond
119.0,6.0,2.0,1.0,3.0,3.0,334.4042950011499,4.0,1.0,phase_1,,,,,,,,,,,,,cyan,hexagon
215.0,3.0,3.0,0.0,3.0,3.0,316.5960090009321,4.0,1.0,phase_1,,,,,,,,,,,,,white,flipped triangle
42.0,1.0,1.0,0.0,2.0,2.0,351.2772529975336,4.0,1.0,phase_1,,,,,,,,,,,,,orange,cross
0.0,5.0,0.0,1.0,1.0,1.0,334.819765001157,4.0,1.0,phase_1,,,,,,,,,,,,,magenta,triangle
93.0,6.0,2.0,1.0,4.0,4.0,300.5225899978541,4.0,1.0,phase_1,,,,,,,,,,,,,cyan,hexagon
105.0,2.0,2.0,0.0,3.0,3.0,330.2732190022652,4.0,1.0,phase_1,,,,,,,,,,,,,blue,circle
181.0,3.0,3.0,0.0,4.0,4.0,333.8537839990749,4.0,1.0,phase_1,,,,,,,,,,,,,white,flipped triangle
378.0,4.0,4.0,0.0,1.0,1.0,337.5339179983712,4.0,1.0,phase_1,,,,,,,,,,,,,gray,I
219.0,3.0,3.0,0.0,2.0,2.0,340.9926940003061,4.0,1.0,phase_1,,,,,,,,,,,,,white,flipped triangle
70.0,1.0,1.0,0.0,1.0,1.0,306.25158199836727,4.0,1.0,phase_1,,,,,,,,,,,,,orange,cross
124.0,2.0,2.0,0.0,1.0,1.0,307.188610000594,4.0,1.0,phase_1,,,,,,,,,,,,,blue,circle
187.0,3.0,3.0,0.0,3.0,3.0,619.4951190009306,4.0,1.0,phase_1,,,,,,,,,,,,,white,flipped triangle
176.0,3.0,3.0,0.0,4.0,4.0,427.1499839996977,4.0,1.0,phase_1,,,,,,,,,,,,,white,flipped triangle
105.0,2.0,2.0,0.0,2.0,2.0,377.6006730004155,4.0,1.0,phase_1,,,,,,,,,,,,,blue,circle
409.0,8.0,4.0,1.0,2.0,2.0,297.8836149995914,4.0,1.0,phase_1,,,,,,,,,,,,,yellow,square
88.0,2.0,2.0,0.0,2.0,2.0,296.9380499998806,4.0,1.0,phase_1,,,,,,,,,,,,,blue,circle
402.0,8.0,4.0,1.0,3.0,3.0,452.4281099984364,4.0,1.0,phase_1,,,,,,,,,,,,,yellow,square
114.0,2.0,2.0,0.0,4.0,4.0,266.0127939998347,4.0,1.0,phase_1,,,,,,,,,,,,,blue,circle
0.0,7.0,0.0,1.0,2.0,2.0,246.4550020013121,4.0,1.0,phase_1,,,,,,,,,,,,,green,diamond
91.0,2.0,2.0,0.0,2.0,2.0,284.3653340023593,4.0,1.0,phase_1,,,,,,,,,,,,,blue,circle
115.0,6.0,2.0,1.0,4.0,4.0,321.4011630007007,4.0,1.0,phase_1,,,,,,,,,,,,,cyan,hexagon
386.0,4.0,4.0,0.0,3.0,3.0,406.5361619977921,4.0,1.0,phase_1,,,,,,,,,,,,,gray,I
93.0,2.0,2.0,0.0,4.0,4.0,339.8918270031572,4.0,1.0,phase_1,,,,,,,,,,,,,blue,circle
43.0,5.0,1.0,1.0,4.0,4.0,487.0029500016244,4.0,1.0,phase_1,,,,,,,,,,,,,magenta,triangle
0.0,3.0,0.0,0.0,4.0,4.0,332.6103229992441,4.0,1.0,phase_1,,,,,,,,,,,,,white,flipped triangle
0.0,1.0,0.0,0.0,3.0,3.0,388.9239420022932,4.0,1.0,phase_1,,,,,,,,,,,,,orange,cross
176.0,3.0,3.0,0.0,4.0,4.0,489.6866910021344,4.0,1.0,phase_1,,,,,,,,,,,,,white,flipped triangle
32.0,1.0,1.0,0.0,1.0,1.0,364.9359900009585,4.0,1.0,phase_1,,,,,,,,,,,,,orange,cross
209.0,3.0,3.0,0.0,4.0,4.0,372.1193769997626,4.0,1.0,phase_1,,,,,,,,,,,,,white,flipped triangle
219.0,7.0,3.0,1.0,1.0,1.0,308.1512930002645,4.0,1.0,phase_1,,,,,,,,,,,,,green,diamond
53.0,5.0,1.0,1.0,4.0,4.0,321.5176960002281,4.0,1.0,phase_1,,,,,,,,,,,,,magenta,triangle
54.0,5.0,1.0,1.0,1.0,1.0,310.1281509989348,4.0,1.0,phase_1,,,,,,,,,,,,,magenta,triangle
37.0,5.0,1.0,1.0,4.0,4.0,323.2747490001202,4.0,1.0,phase_1,,,,,,,,,,,,,magenta,triangle
179.0,7.0,3.0,1.0,1.0,1.0,288.2101720024366,4.0,1.0,phase_1,,,,,,,,,,,,,green,diamond
66.0,5.0,1.0,1.0,3.0,3.0,354.6684229986567,4.0,1.0,phase_1,,,,,,,,,,,,,magenta,triangle
176.0,7.0,3.0,1.0,1.0,1.0,297.9330369998934,4.0,1.0,phase_1,,,,,,,,,,,,,green,diamond
30.0,5.0,1.0,1.0,3.0,3.0,301.2354060010693,4.0,1.0,phase_1,,,,,,,,,,,,,magenta,triangle
71.0,1.0,1.0,0.0,4.0,4.0,330.7387579989154,4.0,1.0,phase_1,,,,,,,,,,,,,orange,cross
0.0,7.0,0.0,1.0,1.0,1.0,269.6958139968046,4.0,1.0,phase_1,,,,,,,,,,,,,green,diamond
53.0,1.0,1.0,0.0,1.0,1.0,304.9106350008514,4.0,1.0,phase_1,,,,,,,,,,,,,orange,cross
410.0,8.0,4.0,1.0,2.0,2.0,292.4976209978922,4.0,1.0,phase_1,,,,,,,,,,,,,yellow,square
0.0,6.0,0.0,1.0,1.0,1.0,293.6019810003927,4.0,1.0,phase_1,,,,,,,,,,,,,cyan,hexagon
93.0,6.0,2.0,1.0,3.0,3.0,348.2590949970472,4.0,1.0,phase_1,,,,,,,,,,,,,cyan,hexagon
75.0,1.0,1.0,0.0,1.0,1.0,303.2551260002947,4.0,1.0,phase_1,,,,,,,,,,,,,orange,cross
197.0,3.0,3.0,0.0,1.0,1.0,301.8015670022578,4.0,1.0,phase_1,,,,,,,,,,,,,white,flipped triangle
406.0,8.0,4.0,1.0,4.0,4.0,336.1277090007206,4.0,1.0,phase_1,,,,,,,,,,,,,yellow,square
88.0,6.0,2.0,1.0,1.0,1.0,256.5201430006709,4.0,1.0,phase_1,,,,,,,,,,,,,cyan,hexagon
70.0,1.0,1.0,0.0,2.0,2.0,314.411461000418,4.0,1.0,phase_1,,,,,,,,,,,,,orange,cross
0.0,7.0,0.0,1.0,2.0,2.0,378.3092349985963,4.0,1.0,phase_1,,,,,,,,,,,,,green,diamond
78.0,2.0,2.0,0.0,3.0,3.0,351.2539430012111,4.0,1.0,phase_1,,,,,,,,,,,,,blue,circle
0.0,4.0,0.0,0.0,1.0,1.0,297.6415990015084,4.0,1.0,phase_1,,,,,,,,,,,,,gray,I
75.0,6.0,2.0,1.0,2.0,2.0,287.2562450029363,4.0,1.0,phase_1,,,,,,,,,,,,,cyan,hexagon
384.0,4.0,4.0,0.0,4.0,4.0,366.4075119995686,4.0,1.0,phase_1,,,,,,,,,,,,,gray,I
35.0,1.0,1.0,0.0,2.0,2.0,285.6091239991656,4.0,1.0,phase_1,,,,,,,,,,,,,orange,cross
206.0,7.0,3.0,1.0,4.0,4.0,324.5805580008891,4.0,1.0,phase_1,,,,,,,,,,,,,green,diamond
0.0,5.0,1.0,1.0,5.0,5.0,399.0357689981465,1.0,1.0,phase_2,stop,250.0,250.0,3.0,,,,,,,,,magenta,triangle
0.0,2.0,2.0,0.0,5.0,5.0,327.9934390011476,1.0,1.0,phase_2,go,200.0,250.0,1.0,,,,,,,,,blue,circle
0.0,3.0,3.0,0.0,6.0,6.0,673.1268289986474,1.0,1.0,phase_2,go,200.0,250.0,1.0,,,,,,,,,white,flipped triangle
0.0,6.0,2.0,1.0,5.0,0.0,0.0,1.0,1.0,phase_2,stop,200.0,250.0,4.0,,,,,,,,,cyan,hexagon
0.0,2.0,2.0,0.0,5.0,5.0,294.5983230019919,1.0,1.0,phase_2,go,250.0,250.0,1.0,,,,,,,,,blue,circle
0.0,7.0,3.0,1.0,6.0,6.0,620.0012819972471,1.0,1.0,phase_2,go,250.0,250.0,1.0,,,,,,,,,green,diamond
0.0,5.0,1.0,1.0,5.0,5.0,576.7483669987996,1.0,1.0,phase_2,go,250.0,250.0,1.0,,,,,,,,,magenta,triangle
0.0,8.0,4.0,1.0,5.0,5.0,334.6077070018509,1.0,1.0,phase_2,stop,250.0,250.0,3.0,,,,,,,,,yellow,square
0.0,3.0,3.0,0.0,5.0,5.0,669.7379700017336,1.0,1.0,phase_2,go,200.0,250.0,1.0,,,,,,,,,white,flipped triangle
0.0,4.0,4.0,0.0,5.0,5.0,641.8579560013313,1.0,1.0,phase_2,go,200.0,250.0,1.0,,,,,,,,,gray,I
0.0,5.0,1.0,1.0,6.0,0.0,0.0,1.0,1.0,phase_2,stop,200.0,250.0,4.0,,,,,,,,,magenta,triangle
0.0,1.0,1.0,0.0,6.0,6.0,892.115605998697,1.0,1.0,phase_2,go,200.0,300.0,1.0,,,,,,,,,orange,cross
0.0,2.0,2.0,0.0,6.0,6.0,628.0227380011638,1.0,1.0,phase_2,go,200.0,300.0,1.0,,,,,,,,,blue,circle
0.0,5.0,1.0,1.0,5.0,0.0,0.0,1.0,1.0,phase_2,stop,200.0,300.0,4.0,,,,,,,,,magenta,triangle
0.0,8.0,4.0,1.0,5.0,5.0,615.6822189986997,1.0,1.0,phase_2,go,250.0,300.0,1.0,,,,,,,,,yellow,square
0.0,5.0,1.0,1.0,6.0,0.0,0.0,1.0,1.0,phase_2,stop,250.0,300.0,4.0,,,,,,,,,magenta,triangle
0.0,5.0,1.0,1.0,5.0,0.0,0.0,1.0,1.0,phase_2,stop,250.0,350.0,4.0,,,,,,,,,magenta,triangle
0.0,2.0,2.0,0.0,5.0,5.0,544.1834909979661,1.0,1.0,phase_2,go,300.0,350.0,1.0,,,,,,,,,blue,circle
0.0,7.0,3.0,1.0,5.0,0.0,0.0,1.0,1.0,phase_2,stop,300.0,350.0,4.0,,,,,,,,,green,diamond
0.0,5.0,1.0,1.0,6.0,6.0,584.4246310007293,1.0,1.0,phase_2,stop,350.0,350.0,3.0,,,,,,,,,magenta,triangle
0.0,3.0,3.0,0.0,6.0,6.0,753.3429460017942,1.0,1.0,phase_2,go,350.0,300.0,1.0,,,,,,,,,white,flipped triangle
0.0,4.0,4.0,0.0,6.0,6.0,619.8063569972874,1.0,1.0,phase_2,go,350.0,300.0,1.0,,,,,,,,,gray,I
0.0,4.0,4.0,0.0,5.0,5.0,610.7645369993406,1.0,1.0,phase_2,go,350.0,300.0,1.0,,,,,,,,,gray,I
0.0,2.0,2.0,0.0,5.0,5.0,823.2169250004517,1.0,1.0,phase_2,go,350.0,300.0,1.0,,,,,,,,,blue,circle
0.0,3.0,3.0,0.0,5.0,5.0,634.6614440008125,1.0,1.0,phase_2,go,350.0,300.0,1.0,,,,,,,,,white,flipped triangle
0.0,5.0,1.0,1.0,5.0,0.0,0.0,1.0,1.0,phase_2,stop,350.0,300.0,4.0,,,,,,,,,magenta,triangle
0.0,7.0,3.0,1.0,5.0,5.0,438.2656599991605,1.0,1.0,phase_2,stop,400.0,300.0,3.0,,,,,,,,,green,diamond
0.0,1.0,1.0,0.0,5.0,5.0,524.1878960005124,1.0,1.0,phase_2,go,350.0,300.0,1.0,,,,,,,,,orange,cross
0.0,2.0,2.0,0.0,6.0,6.0,554.0520319991629,1.0,1.0,phase_2,go,350.0,300.0,1.0,,,,,,,,,blue,circle
0.0,3.0,3.0,0.0,5.0,5.0,404.8517480005102,1.0,1.0,phase_2,go,350.0,300.0,1.0,,,,,,,,,white,flipped triangle
0.0,6.0,2.0,1.0,5.0,5.0,576.7917150005815,1.0,1.0,phase_2,go,350.0,300.0,1.0,,,,,,,,,cyan,hexagon
0.0,3.0,3.0,0.0,5.0,5.0,355.5625920016609,1.0,1.0,phase_2,go,350.0,300.0,1.0,,,,,,,,,white,flipped triangle
0.0,8.0,4.0,1.0,6.0,0.0,0.0,1.0,1.0,phase_2,stop,350.0,300.0,4.0,,,,,,,,,yellow,square
0.0,7.0,3.0,1.0,6.0,6.0,521.8343689994072,1.0,1.0,phase_2,go,350.0,350.0,1.0,,,,,,,,,green,diamond
0.0,5.0,1.0,1.0,5.0,0.0,0.0,1.0,1.0,phase_2,stop,350.0,350.0,4.0,,,,,,,,,magenta,triangle
0.0,8.0,4.0,1.0,6.0,0.0,0.0,1.0,1.0,phase_2,stop,400.0,350.0,4.0,,,,,,,,,yellow,square
0.0,5.0,1.0,1.0,6.0,0.0,0.0,2.0,1.0,phase_2,stop,400.0,400.0,4.0,,,,,,,,,magenta,triangle
0.0,4.0,4.0,0.0,6.0,6.0,557.1467370027676,2.0,1.0,phase_2,go,400.0,450.0,1.0,,,,,,,,,gray,I
0.0,6.0,2.0,1.0,6.0,6.0,525.1498850011558,2.0,1.0,phase_2,stop,400.0,450.0,3.0,,,,,,,,,cyan,hexagon
0.0,8.0,4.0,1.0,6.0,0.0,0.0,2.0,1.0,phase_2,stop,400.0,400.0,4.0,,,,,,,,,yellow,square
0.0,4.0,4.0,0.0,6.0,6.0,386.0366759981843,2.0,1.0,phase_2,go,400.0,450.0,1.0,,,,,,,,,gray,I
0.0,6.0,2.0,1.0,6.0,6.0,558.4387909984798,2.0,1.0,phase_2,stop,400.0,450.0,3.0,,,,,,,,,cyan,hexagon
0.0,1.0,1.0,0.0,5.0,5.0,613.0672670005879,2.0,1.0,phase_2,go,400.0,400.0,1.0,,,,,,,,,orange,cross
0.0,4.0,4.0,0.0,6.0,6.0,683.3700520001003,2.0,1.0,phase_2,go,400.0,400.0,1.0,,,,,,,,,gray,I
0.0,7.0,3.0,1.0,6.0,6.0,560.8362130005844,2.0,1.0,phase_2,stop,400.0,400.0,3.0,,,,,,,,,green,diamond
0.0,4.0,4.0,0.0,5.0,5.0,563.8908000000811,2.0,1.0,phase_2,go,400.0,350.0,1.0,,,,,,,,,gray,I
0.0,5.0,1.0,1.0,5.0,5.0,328.6495949978416,2.0,1.0,phase_2,stop,400.0,350.0,3.0,,,,,,,,,magenta,triangle
0.0,4.0,4.0,0.0,6.0,6.0,582.7292489993852,2.0,1.0,phase_2,go,350.0,350.0,1.0,,,,,,,,,gray,I
0.0,6.0,2.0,1.0,6.0,6.0,431.3447920030739,2.0,1.0,phase_2,stop,350.0,350.0,3.0,,,,,,,,,cyan,hexagon
0.0,6.0,2.0,1.0,5.0,5.0,608.85437899924,2.0,1.0,phase_2,go,350.0,300.0,1.0,,,,,,,,,cyan,hexagon
0.0,8.0,4.0,1.0,5.0,5.0,446.1600869981339,2.0,1.0,phase_2,stop,350.0,300.0,3.0,,,,,,,,,yellow,square
0.0,7.0,3.0,1.0,5.0,0.0,0.0,2.0,1.0,phase_2,stop,300.0,300.0,4.0,,,,,,,,,green,diamond
0.0,3.0,3.0,0.0,6.0,6.0,499.3566470002406,2.0,1.0,phase_2,go,350.0,300.0,1.0,,,,,,,,,white,flipped triangle
0.0,5.0,1.0,1.0,5.0,0.0,0.0,2.0,1.0,phase_2,stop,350.0,300.0,4.0,,,,,,,,,magenta,triangle
0.0,8.0,4.0,1.0,5.0,5.0,600.9518580030999,2.0,1.0,phase_2,go,400.0,300.0,1.0,,,,,,,,,yellow,square
0.0,6.0,2.0,1.0,5.0,0.0,0.0,2.0,1.0,phase_2,stop,400.0,300.0,4.0,,,,,,,,,cyan,hexagon
0.0,8.0,4.0,1.0,6.0,0.0,0.0,2.0,1.0,phase_2,stop,450.0,300.0,4.0,,,,,,,,,yellow,square
0.0,4.0,4.0,0.0,5.0,5.0,509.89631000265945,2.0,1.0,phase_2,go,450.0,350.0,1.0,,,,,,,,,gray,I
0.0,6.0,2.0,1.0,6.0,0.0,0.0,2.0,1.0,phase_2,stop,450.0,350.0,4.0,,,,,,,,,cyan,hexagon
0.0,8.0,4.0,1.0,5.0,5.0,291.4136440012953,2.0,1.0,phase_2,stop,450.0,400.0,3.0,,,,,,,,,yellow,square
0.0,3.0,3.0,0.0,5.0,5.0,572.0460689990432,2.0,1.0,phase_2,go,400.0,400.0,1.0,,,,,,,,,white,flipped triangle
0.0,5.0,1.0,1.0,6.0,0.0,0.0,2.0,1.0,phase_2,stop,400.0,400.0,4.0,,,,,,,,,magenta,triangle
0.0,2.0,2.0,0.0,6.0,6.0,578.1583059979312,2.0,1.0,phase_2,go,400.0,450.0,1.0,,,,,,,,,blue,circle
0.0,4.0,4.0,0.0,5.0,5.0,829.6504660029314,2.0,1.0,phase_2,go,400.0,450.0,1.0,,,,,,,,,gray,I
0.0,1.0,1.0,0.0,6.0,6.0,358.2612019999942,2.0,1.0,phase_2,go,400.0,450.0,1.0,,,,,,,,,orange,cross
0.0,8.0,4.0,1.0,6.0,6.0,386.50232299914927,2.0,1.0,phase_2,stop,400.0,450.0,3.0,,,,,,,,,yellow,square
0.0,6.0,2.0,1.0,5.0,0.0,0.0,2.0,1.0,phase_2,stop,400.0,400.0,4.0,,,,,,,,,cyan,hexagon
0.0,1.0,1.0,0.0,6.0,6.0,540.4559460002929,2.0,1.0,phase_2,go,450.0,400.0,1.0,,,,,,,,,orange,cross
0.0,2.0,2.0,0.0,5.0,5.0,647.2314610000467,2.0,1.0,phase_2,go,450.0,400.0,1.0,,,,,,,,,blue,circle
0.0,3.0,3.0,0.0,6.0,6.0,660.2027660010208,2.0,1.0,phase_2,go,450.0,400.0,1.0,,,,,,,,,white,flipped triangle
0.0,2.0,2.0,0.0,5.0,5.0,690.2704879976227,2.0,1.0,phase_2,go,450.0,400.0,1.0,,,,,,,,,blue,circle
0.0,2.0,2.0,0.0,6.0,6.0,547.2226279998722,2.0,1.0,phase_2,go,450.0,400.0,1.0,,,,,,,,,blue,circle
0.0,5.0,1.0,1.0,5.0,5.0,489.7467429982498,3.0,1.0,phase_2,go,450.0,400.0,1.0,,,,,,,,,magenta,triangle
0.0,1.0,1.0,0.0,6.0,6.0,386.8056100000103,3.0,1.0,phase_2,go,450.0,400.0,1.0,,,,,,,,,orange,cross
0.0,2.0,2.0,0.0,5.0,5.0,522.419037999498,3.0,1.0,phase_2,go,450.0,400.0,1.0,,,,,,,,,blue,circle
0.0,5.0,1.0,1.0,5.0,5.0,754.1651179999462,3.0,1.0,phase_2,go,450.0,400.0,1.0,,,,,,,,,magenta,triangle
0.0,5.0,1.0,1.0,5.0,5.0,528.3385310031008,3.0,1.0,phase_2,stop,450.0,400.0,3.0,,,,,,,,,magenta,triangle
0.0,5.0,1.0,1.0,6.0,0.0,0.0,3.0,1.0,phase_2,stop,400.0,400.0,4.0,,,,,,,,,magenta,triangle
0.0,1.0,1.0,0.0,6.0,6.0,715.9976930015546,3.0,1.0,phase_2,go,400.0,450.0,1.0,,,,,,,,,orange,cross
0.0,6.0,2.0,1.0,5.0,0.0,0.0,3.0,1.0,phase_2,stop,400.0,450.0,4.0,,,,,,,,,cyan,hexagon
0.0,6.0,2.0,1.0,6.0,0.0,0.0,3.0,1.0,phase_2,stop,450.0,450.0,4.0,,,,,,,,,cyan,hexagon
0.0,7.0,3.0,1.0,6.0,6.0,535.5034019994491,3.0,1.0,phase_2,stop,450.0,500.0,3.0,,,,,,,,,green,diamond
0.0,4.0,4.0,0.0,5.0,5.0,564.2308430033154,3.0,1.0,phase_2,go,450.0,450.0,1.0,,,,,,,,,gray,I
0.0,4.0,4.0,0.0,6.0,6.0,868.760833000124,3.0,1.0,phase_2,go,450.0,450.0,1.0,,,,,,,,,gray,I
0.0,1.0,1.0,0.0,6.0,6.0,533.9802950002195,3.0,1.0,phase_2,go,450.0,450.0,1.0,,,,,,,,,orange,cross
0.0,3.0,3.0,0.0,5.0,5.0,542.6828260024195,3.0,1.0,phase_2,go,450.0,450.0,1.0,,,,,,,,,white,flipped triangle
0.0,7.0,3.0,1.0,5.0,5.0,618.034680999699,3.0,1.0,phase_2,stop,450.0,450.0,3.0,,,,,,,,,green,diamond
0.0,7.0,3.0,1.0,6.0,6.0,546.1084970011143,3.0,1.0,phase_2,stop,400.0,450.0,3.0,,,,,,,,,green,diamond
0.0,6.0,2.0,1.0,5.0,0.0,0.0,3.0,1.0,phase_2,stop,400.0,400.0,4.0,,,,,,,,,cyan,hexagon
0.0,3.0,3.0,0.0,6.0,6.0,385.2059050004754,3.0,1.0,phase_2,go,450.0,400.0,1.0,,,,,,,,,white,flipped triangle
0.0,1.0,1.0,0.0,5.0,5.0,586.6770610009553,3.0,1.0,phase_2,go,450.0,400.0,1.0,,,,,,,,,orange,cross
0.0,6.0,2.0,1.0,5.0,5.0,494.3497540007229,3.0,1.0,phase_2,stop,450.0,400.0,3.0,,,,,,,,,cyan,hexagon
0.0,7.0,3.0,1.0,6.0,0.0,0.0,3.0,1.0,phase_2,stop,400.0,400.0,4.0,,,,,,,,,green,diamond
0.0,4.0,4.0,0.0,6.0,6.0,672.8251829990768,3.0,1.0,phase_2,go,400.0,450.0,1.0,,,,,,,,,gray,I
0.0,3.0,3.0,0.0,5.0,5.0,979.7308160013928,3.0,1.0,phase_2,go,400.0,450.0,1.0,,,,,,,,,white,flipped triangle
0.0,6.0,2.0,1.0,6.0,0.0,0.0,3.0,1.0,phase_2,stop,400.0,450.0,4.0,,,,,,,,,cyan,hexagon
0.0,8.0,4.0,1.0,5.0,5.0,380.7702459998836,3.0,1.0,phase_2,go,400.0,500.0,1.0,,,,,,,,,yellow,square
0.0,3.0,3.0,0.0,5.0,5.0,756.3598900014767,3.0,1.0,phase_2,go,400.0,500.0,1.0,,,,,,,,,white,flipped triangle
0.0,3.0,3.0,0.0,5.0,5.0,855.2616170018155,3.0,1.0,phase_2,go,400.0,500.0,1.0,,,,,,,,,white,flipped triangle
0.0,2.0,2.0,0.0,5.0,5.0,835.8327559981262,3.0,1.0,phase_2,go,400.0,500.0,1.0,,,,,,,,,blue,circle
0.0,3.0,3.0,0.0,5.0,5.0,735.0614579991088,3.0,1.0,phase_2,go,400.0,500.0,1.0,,,,,,,,,white,flipped triangle
0.0,7.0,3.0,1.0,6.0,6.0,540.0545900010911,3.0,1.0,phase_2,stop,400.0,500.0,3.0,,,,,,,,,green,diamond
0.0,1.0,1.0,0.0,6.0,6.0,647.3707769982866,3.0,1.0,phase_2,go,400.0,450.0,1.0,,,,,,,,,orange,cross
0.0,2.0,2.0,0.0,5.0,5.0,602.2204000000784,3.0,1.0,phase_2,go,400.0,450.0,1.0,,,,,,,,,blue,circle
0.0,2.0,2.0,0.0,6.0,6.0,548.1793489998381,3.0,1.0,phase_2,go,400.0,450.0,1.0,,,,,,,,,blue,circle
0.0,4.0,4.0,0.0,5.0,5.0,695.3827460019966,3.0,1.0,phase_2,go,400.0,450.0,1.0,,,,,,,,,gray,I
0.0,7.0,3.0,1.0,6.0,6.0,336.3184959998762,3.0,1.0,phase_2,stop,400.0,450.0,3.0,,,,,,,,,green,diamond
0.0,6.0,2.0,1.0,6.0,6.0,587.3333380004624,3.0,1.0,phase_2,stop,400.0,400.0,3.0,,,,,,,,,cyan,hexagon
0.0,3.0,3.0,0.0,6.0,6.0,479.5632599998498,4.0,1.0,phase_2,go,400.0,350.0,1.0,,,,,,,,,white,flipped triangle
0.0,1.0,1.0,0.0,6.0,6.0,424.4727090008382,4.0,1.0,phase_2,go,400.0,350.0,1.0,,,,,,,,,orange,cross
0.0,8.0,4.0,1.0,5.0,5.0,430.454108001868,4.0,1.0,phase_2,stop,400.0,350.0,3.0,,,,,,,,,yellow,square
0.0,1.0,1.0,0.0,5.0,5.0,445.9648389965878,4.0,1.0,phase_2,go,350.0,350.0,1.0,,,,,,,,,orange,cross
0.0,3.0,3.0,0.0,6.0,6.0,323.0921300018963,4.0,1.0,phase_2,go,350.0,350.0,1.0,,,,,,,,,white,flipped triangle
0.0,7.0,3.0,1.0,5.0,0.0,0.0,4.0,1.0,phase_2,stop,350.0,350.0,4.0,,,,,,,,,green,diamond
0.0,7.0,3.0,1.0,5.0,5.0,522.340339000948,4.0,1.0,phase_2,go,400.0,350.0,1.0,,,,,,,,,green,diamond
0.0,1.0,1.0,0.0,6.0,6.0,691.9611279990932,4.0,1.0,phase_2,go,400.0,350.0,1.0,,,,,,,,,orange,cross
0.0,8.0,4.0,1.0,6.0,0.0,0.0,4.0,1.0,phase_2,stop,400.0,350.0,4.0,,,,,,,,,yellow,square
0.0,1.0,1.0,0.0,6.0,6.0,452.8698449976218,4.0,1.0,phase_2,go,400.0,400.0,1.0,,,,,,,,,orange,cross
0.0,8.0,4.0,1.0,6.0,6.0,370.4040810007427,4.0,1.0,phase_2,go,400.0,400.0,1.0,,,,,,,,,yellow,square
0.0,7.0,3.0,1.0,5.0,5.0,679.1921040021407,4.0,1.0,phase_2,go,400.0,400.0,1.0,,,,,,,,,green,diamond
0.0,8.0,4.0,1.0,6.0,6.0,519.3354180009919,4.0,1.0,phase_2,stop,400.0,400.0,3.0,,,,,,,,,yellow,square
0.0,3.0,3.0,0.0,6.0,6.0,565.1684869990277,4.0,1.0,phase_2,go,400.0,350.0,1.0,,,,,,,,,white,flipped triangle
0.0,5.0,1.0,1.0,5.0,5.0,705.7283290014311,4.0,1.0,phase_2,stop,400.0,350.0,3.0,,,,,,,,,magenta,triangle
0.0,7.0,3.0,1.0,6.0,0.0,0.0,4.0,1.0,phase_2,stop,350.0,350.0,4.0,,,,,,,,,green,diamond
0.0,2.0,2.0,0.0,5.0,5.0,486.9997650021105,4.0,1.0,phase_2,go,350.0,400.0,1.0,,,,,,,,,blue,circle
0.0,2.0,2.0,0.0,5.0,5.0,377.5805500008573,4.0,1.0,phase_2,go,350.0,400.0,1.0,,,,,,,,,blue,circle
0.0,4.0,4.0,0.0,6.0,6.0,619.9445129968808,4.0,1.0,phase_2,go,350.0,400.0,1.0,,,,,,,,,gray,I
0.0,7.0,3.0,1.0,6.0,0.0,0.0,4.0,1.0,phase_2,stop,350.0,400.0,4.0,,,,,,,,,green,diamond
0.0,2.0,2.0,0.0,6.0,6.0,582.616813997447,4.0,1.0,phase_2,go,350.0,450.0,1.0,,,,,,,,,blue,circle
0.0,4.0,4.0,0.0,5.0,5.0,748.1439910006884,4.0,1.0,phase_2,go,350.0,450.0,1.0,,,,,,,,,gray,I
0.0,6.0,2.0,1.0,5.0,5.0,470.0087910023285,4.0,1.0,phase_2,stop,350.0,450.0,3.0,,,,,,,,,cyan,hexagon
0.0,5.0,1.0,1.0,6.0,6.0,576.7667569998594,4.0,1.0,phase_2,stop,300.0,450.0,3.0,,,,,,,,,magenta,triangle
0.0,8.0,4.0,1.0,5.0,5.0,574.585403999663,4.0,1.0,phase_2,go,300.0,400.0,1.0,,,,,,,,,yellow,square
0.0,8.0,4.0,1.0,5.0,5.0,554.4098940008553,4.0,1.0,phase_2,go,300.0,400.0,1.0,,,,,,,,,yellow,square
0.0,1.0,1.0,0.0,6.0,6.0,747.6590260012017,4.0,1.0,phase_2,go,300.0,400.0,1.0,,,,,,,,,orange,cross
0.0,2.0,2.0,0.0,6.0,6.0,615.7498609973118,4.0,1.0,phase_2,go,300.0,400.0,1.0,,,,,,,,,blue,circle
0.0,8.0,4.0,1.0,5.0,5.0,615.4394919976767,4.0,1.0,phase_2,go,300.0,400.0,1.0,,,,,,,,,yellow,square
0.0,6.0,2.0,1.0,6.0,6.0,558.5203149967128,4.0,1.0,phase_2,stop,300.0,400.0,3.0,,,,,,,,,cyan,hexagon
0.0,7.0,3.0,1.0,5.0,0.0,0.0,4.0,1.0,phase_2,stop,300.0,350.0,4.0,,,,,,,,,green,diamond
0.0,7.0,3.0,1.0,6.0,6.0,682.1642169998086,4.0,1.0,phase_2,go,350.0,350.0,1.0,,,,,,,,,green,diamond
0.0,6.0,2.0,1.0,5.0,5.0,390.8935319996089,4.0,1.0,phase_2,stop,350.0,350.0,3.0,,,,,,,,,cyan,hexagon
0.0,7.0,3.0,1.0,5.0,5.0,375.5135289975442,4.0,1.0,phase_2,stop,300.0,350.0,3.0,,,,,,,,,green,diamond
0.0,5.0,1.0,1.0,5.0,5.0,354.5841990016924,4.0,1.0,phase_2,go,250.0,350.0,1.0,,,,,,,,,magenta,triangle
0.0,8.0,4.0,1.0,6.0,6.0,437.869289999071,4.0,1.0,phase_2,stop,250.0,350.0,3.0,,,,,,,,,yellow,square
0.0,1.0,1.0,0.0,5.0,5.0,317.6764330019068,5.0,1.0,phase_2,go,250.0,300.0,1.0,,,,,,,,,orange,cross
0.0,2.0,2.0,0.0,6.0,6.0,495.2240439997695,5.0,1.0,phase_2,go,250.0,300.0,1.0,,,,,,,,,blue,circle
0.0,5.0,1.0,1.0,6.0,6.0,342.8398809992359,5.0,1.0,phase_2,stop,250.0,300.0,3.0,,,,,,,,,magenta,triangle
0.0,8.0,4.0,1.0,6.0,0.0,0.0,5.0,1.0,phase_2,stop,250.0,250.0,4.0,,,,,,,,,yellow,square
0.0,5.0,1.0,1.0,6.0,0.0,0.0,5.0,1.0,phase_2,stop,250.0,300.0,4.0,,,,,,,,,magenta,triangle
0.0,6.0,2.0,1.0,5.0,5.0,500.5988190023345,5.0,1.0,phase_2,go,250.0,350.0,1.0,,,,,,,,,cyan,hexagon
0.0,6.0,2.0,1.0,6.0,6.0,513.1222329982847,5.0,1.0,phase_2,stop,250.0,350.0,3.0,,,,,,,,,cyan,hexagon
0.0,1.0,1.0,0.0,5.0,5.0,512.4400140011858,5.0,1.0,phase_2,go,250.0,300.0,1.0,,,,,,,,,orange,cross
0.0,3.0,3.0,0.0,5.0,5.0,563.0158869971638,5.0,1.0,phase_2,go,250.0,300.0,1.0,,,,,,,,,white,flipped triangle
0.0,4.0,4.0,0.0,6.0,6.0,467.6347549975617,5.0,1.0,phase_2,go,250.0,300.0,1.0,,,,,,,,,gray,I
0.0,5.0,1.0,1.0,5.0,5.0,730.842927001504,5.0,1.0,phase_2,go,250.0,300.0,1.0,,,,,,,,,magenta,triangle
0.0,5.0,1.0,1.0,6.0,6.0,682.0815190003486,5.0,1.0,phase_2,go,250.0,300.0,1.0,,,,,,,,,magenta,triangle
0.0,3.0,3.0,0.0,6.0,6.0,523.4880089992657,5.0,1.0,phase_2,go,250.0,300.0,1.0,,,,,,,,,white,flipped triangle
0.0,4.0,4.0,0.0,5.0,5.0,508.8880769981188,5.0,1.0,phase_2,go,250.0,300.0,1.0,,,,,,,,,gray,I
0.0,7.0,3.0,1.0,5.0,5.0,635.7542519981507,5.0,1.0,phase_2,go,250.0,300.0,1.0,,,,,,,,,green,diamond
0.0,2.0,2.0,0.0,5.0,5.0,704.2779729999893,5.0,1.0,phase_2,go,250.0,300.0,1.0,,,,,,,,,blue,circle
0.0,6.0,2.0,1.0,5.0,0.0,0.0,5.0,1.0,phase_2,stop,250.0,300.0,4.0,,,,,,,,,cyan,hexagon
0.0,3.0,3.0,0.0,6.0,6.0,737.9764170000271,5.0,1.0,phase_2,go,300.0,300.0,1.0,,,,,,,,,white,flipped triangle
0.0,1.0,1.0,0.0,5.0,5.0,522.1537229990645,5.0,1.0,phase_2,go,300.0,300.0,1.0,,,,,,,,,orange,cross
0.0,4.0,4.0,0.0,5.0,5.0,503.41167299848166,5.0,1.0,phase_2,go,300.0,300.0,1.0,,,,,,,,,gray,I
0.0,8.0,4.0,1.0,6.0,0.0,0.0,5.0,1.0,phase_2,stop,300.0,300.0,4.0,,,,,,,,,yellow,square
0.0,8.0,4.0,1.0,5.0,5.0,342.112353999255,5.0,1.0,phase_2,stop,300.0,350.0,3.0,,,,,,,,,yellow,square
0.0,2.0,2.0,0.0,6.0,6.0,661.7275339995103,5.0,1.0,phase_2,go,250.0,350.0,1.0,,,,,,,,,blue,circle
0.0,1.0,1.0,0.0,5.0,5.0,325.6086879991926,5.0,1.0,phase_2,go,250.0,350.0,1.0,,,,,,,,,orange,cross
0.0,7.0,3.0,1.0,5.0,0.0,0.0,5.0,1.0,phase_2,stop,250.0,350.0,4.0,,,,,,,,,green,diamond
0.0,4.0,4.0,0.0,6.0,6.0,604.904980998981,5.0,1.0,phase_2,go,300.0,350.0,1.0,,,,,,,,,gray,I
0.0,2.0,2.0,0.0,5.0,5.0,618.2035159981751,5.0,1.0,phase_2,go,300.0,350.0,1.0,,,,,,,,,blue,circle
0.0,3.0,3.0,0.0,6.0,6.0,531.686008998804,5.0,1.0,phase_2,go,300.0,350.0,1.0,,,,,,,,,white,flipped triangle
0.0,2.0,2.0,0.0,6.0,6.0,487.0691479991365,5.0,1.0,phase_2,go,300.0,350.0,1.0,,,,,,,,,blue,circle
0.0,7.0,3.0,1.0,6.0,6.0,413.221381000767,5.0,1.0,phase_2,stop,300.0,350.0,3.0,,,,,,,,,green,diamond
0.0,7.0,3.0,1.0,6.0,0.0,0.0,5.0,1.0,phase_2,stop,300.0,300.0,4.0,,,,,,,,,green,diamond
0.0,3.0,3.0,0.0,5.0,5.0,291.0140399981173,5.0,1.0,phase_2,go,300.0,350.0,1.0,,,,,,,,,white,flipped triangle
0.0,3.0,3.0,0.0,5.0,5.0,365.9135079979023,5.0,1.0,phase_2,go,300.0,350.0,1.0,,,,,,,,,white,flipped triangle
0.0,6.0,2.0,1.0,5.0,5.0,370.3816999986884,5.0,1.0,phase_2,stop,300.0,350.0,3.0,,,,,,,,,cyan,hexagon
0.0,6.0,2.0,1.0,6.0,0.0,0.0,5.0,1.0,phase_2,stop,250.0,350.0,4.0,,,,,,,,,cyan,hexagon
0.0,3.0,3.0,0.0,5.0,5.0,537.2629599987704,5.0,1.0,phase_2,go,250.0,400.0,1.0,,,,,,,,,white,flipped triangle
0.0,5.0,1.0,1.0,5.0,0.0,0.0,6.0,1.0,phase_2,stop,250.0,400.0,4.0,,,,,,,,,magenta,triangle
0.0,4.0,4.0,0.0,6.0,6.0,379.0514459979022,6.0,1.0,phase_2,go,300.0,400.0,1.0,,,,,,,,,gray,I
0.0,6.0,2.0,1.0,5.0,5.0,483.6904139992839,6.0,1.0,phase_2,stop,300.0,400.0,3.0,,,,,,,,,cyan,hexagon
0.0,6.0,2.0,1.0,6.0,6.0,605.256445996929,6.0,1.0,phase_2,go,250.0,400.0,1.0,,,,,,,,,cyan,hexagon
0.0,1.0,1.0,0.0,5.0,5.0,521.1512659989239,6.0,1.0,phase_2,go,250.0,400.0,1.0,,,,,,,,,orange,cross
0.0,7.0,3.0,1.0,6.0,6.0,373.9391950002755,6.0,1.0,phase_2,go,250.0,400.0,1.0,,,,,,,,,green,diamond
0.0,4.0,4.0,0.0,6.0,6.0,539.0432120002515,6.0,1.0,phase_2,go,250.0,400.0,1.0,,,,,,,,,gray,I
0.0,6.0,2.0,1.0,6.0,0.0,0.0,6.0,1.0,phase_2,stop,250.0,400.0,4.0,,,,,,,,,cyan,hexagon
0.0,7.0,3.0,1.0,6.0,6.0,583.8417320010194,6.0,1.0,phase_2,stop,250.0,450.0,3.0,,,,,,,,,green,diamond
0.0,3.0,3.0,0.0,6.0,6.0,610.3463019971969,6.0,1.0,phase_2,go,250.0,400.0,1.0,,,,,,,,,white,flipped triangle
0.0,5.0,1.0,1.0,6.0,6.0,634.2216330012889,6.0,1.0,phase_2,go,250.0,400.0,1.0,,,,,,,,,magenta,triangle
0.0,8.0,4.0,1.0,5.0,0.0,0.0,6.0,1.0,phase_2,stop,250.0,400.0,4.0,,,,,,,,,yellow,square
0.0,2.0,2.0,0.0,6.0,6.0,490.3771379977115,6.0,1.0,phase_2,go,300.0,400.0,1.0,,,,,,,,,blue,circle
0.0,6.0,2.0,1.0,6.0,6.0,529.0694579998672,6.0,1.0,phase_2,stop,300.0,400.0,3.0,,,,,,,,,cyan,hexagon
0.0,2.0,2.0,0.0,5.0,5.0,512.8917520014511,6.0,1.0,phase_2,go,300.0,350.0,1.0,,,,,,,,,blue,circle
0.0,4.0,4.0,0.0,5.0,5.0,492.7219950004655,6.0,1.0,phase_2,go,300.0,350.0,1.0,,,,,,,,,gray,I
0.0,7.0,3.0,1.0,5.0,0.0,0.0,6.0,1.0,phase_2,stop,300.0,350.0,4.0,,,,,,,,,green,diamond
0.0,7.0,3.0,1.0,6.0,0.0,0.0,6.0,1.0,phase_2,stop,350.0,350.0,4.0,,,,,,,,,green,diamond
0.0,4.0,4.0,0.0,6.0,6.0,546.5196210025169,6.0,1.0,phase_2,go,350.0,400.0,1.0,,,,,,,,,gray,I
0.0,1.0,1.0,0.0,6.0,6.0,530.7714859991393,6.0,1.0,phase_2,go,350.0,400.0,1.0,,,,,,,,,orange,cross
0.0,5.0,1.0,1.0,6.0,0.0,0.0,6.0,1.0,phase_2,stop,350.0,400.0,4.0,,,,,,,,,magenta,triangle
0.0,4.0,4.0,0.0,5.0,5.0,567.0687759993598,6.0,1.0,phase_2,go,350.0,450.0,1.0,,,,,,,,,gray,I
0.0,3.0,3.0,0.0,6.0,6.0,592.3497549993044,6.0,1.0,phase_2,go,350.0,450.0,1.0,,,,,,,,,white,flipped triangle
0.0,1.0,1.0,0.0,6.0,6.0,450.3860240001813,6.0,1.0,phase_2,go,350.0,450.0,1.0,,,,,,,,,orange,cross
0.0,4.0,4.0,0.0,6.0,6.0,457.8719790006289,6.0,1.0,phase_2,go,350.0,450.0,1.0,,,,,,,,,gray,I
0.0,2.0,2.0,0.0,6.0,6.0,461.8451820024347,6.0,1.0,phase_2,go,350.0,450.0,1.0,,,,,,,,,blue,circle
0.0,4.0,4.0,0.0,5.0,5.0,390.8759119985916,6.0,1.0,phase_2,go,350.0,450.0,1.0,,,,,,,,,gray,I
0.0,2.0,2.0,0.0,6.0,6.0,399.180817999877,6.0,1.0,phase_2,go,350.0,450.0,1.0,,,,,,,,,blue,circle
0.0,8.0,4.0,1.0,6.0,6.0,497.0170950000465,6.0,1.0,phase_2,stop,350.0,450.0,3.0,,,,,,,,,yellow,square
0.0,2.0,2.0,0.0,5.0,5.0,541.9932379991224,6.0,1.0,phase_2,go,350.0,400.0,1.0,,,,,,,,,blue,circle
0.0,4.0,4.0,0.0,6.0,6.0,313.2849000030546,6.0,1.0,phase_2,go,350.0,400.0,1.0,,,,,,,,,gray,I
0.0,6.0,2.0,1.0,6.0,6.0,355.0283139993553,6.0,1.0,phase_2,go,350.0,400.0,1.0,,,,,,,,,cyan,hexagon
0.0,2.0,2.0,0.0,6.0,6.0,330.9735449984146,6.0,1.0,phase_2,go,350.0,400.0,1.0,,,,,,,,,blue,circle
0.0,6.0,2.0,1.0,5.0,5.0,507.06986599834636,6.0,1.0,phase_2,go,350.0,400.0,1.0,,,,,,,,,cyan,hexagon
0.0,7.0,3.0,1.0,5.0,5.0,382.213001998025,6.0,1.0,phase_2,stop,350.0,400.0,3.0,,,,,,,,,green,diamond
0.0,3.0,3.0,0.0,6.0,6.0,512.4715199999628,6.0,1.0,phase_2,go,300.0,400.0,1.0,,,,,,,,,white,flipped triangle
0.0,8.0,4.0,1.0,5.0,5.0,340.1409770012833,7.0,1.0,phase_2,stop,300.0,400.0,3.0,,,,,,,,,yellow,square
0.0,7.0,3.0,1.0,6.0,6.0,441.4514099989901,7.0,1.0,phase_2,stop,250.0,400.0,3.0,,,,,,,,,green,diamond
0.0,1.0,1.0,0.0,5.0,5.0,360.4942810015927,7.0,1.0,phase_2,go,250.0,350.0,1.0,,,,,,,,,orange,cross
0.0,1.0,1.0,0.0,6.0,6.0,484.9662790002185,7.0,1.0,phase_2,go,250.0,350.0,1.0,,,,,,,,,orange,cross
0.0,8.0,4.0,1.0,6.0,6.0,463.1331909986329,7.0,1.0,phase_2,stop,250.0,350.0,3.0,,,,,,,,,yellow,square
0.0,4.0,4.0,0.0,6.0,6.0,511.48967500193976,7.0,1.0,phase_2,go,250.0,300.0,1.0,,,,,,,,,gray,I
0.0,3.0,3.0,0.0,6.0,6.0,338.6104970013548,7.0,1.0,phase_2,go,250.0,300.0,1.0,,,,,,,,,white,flipped triangle
0.0,5.0,1.0,1.0,6.0,6.0,367.6742009993177,7.0,1.0,phase_2,stop,250.0,300.0,3.0,,,,,,,,,magenta,triangle
0.0,6.0,2.0,1.0,6.0,6.0,817.2480690009252,7.0,1.0,phase_2,go,250.0,250.0,1.0,,,,,,,,,cyan,hexagon
0.0,8.0,4.0,1.0,6.0,0.0,0.0,7.0,1.0,phase_2,stop,250.0,250.0,4.0,,,,,,,,,yellow,square
0.0,8.0,4.0,1.0,6.0,0.0,0.0,7.0,1.0,phase_2,stop,250.0,300.0,4.0,,,,,,,,,yellow,square
0.0,1.0,1.0,0.0,6.0,6.0,594.8894949979149,7.0,1.0,phase_2,go,250.0,350.0,1.0,,,,,,,,,orange,cross
0.0,3.0,3.0,0.0,5.0,5.0,715.9522029978689,7.0,1.0,phase_2,go,250.0,350.0,1.0,,,,,,,,,white,flipped triangle
0.0,8.0,4.0,1.0,5.0,5.0,563.3121150021907,7.0,1.0,phase_2,go,250.0,350.0,1.0,,,,,,,,,yellow,square
0.0,1.0,1.0,0.0,5.0,5.0,343.3109189973038,7.0,1.0,phase_2,go,250.0,350.0,1.0,,,,,,,,,orange,cross
0.0,7.0,3.0,1.0,6.0,6.0,572.9255939986615,7.0,1.0,phase_2,go,250.0,350.0,1.0,,,,,,,,,green,diamond
0.0,1.0,1.0,0.0,6.0,6.0,539.8956669996551,7.0,1.0,phase_2,go,250.0,350.0,1.0,,,,,,,,,orange,cross
0.0,8.0,4.0,1.0,6.0,6.0,721.360621999338,7.0,1.0,phase_2,go,250.0,350.0,1.0,,,,,,,,,yellow,square
0.0,3.0,3.0,0.0,6.0,6.0,314.696143999754,7.0,1.0,phase_2,go,250.0,350.0,1.0,,,,,,,,,white,flipped triangle
0.0,7.0,3.0,1.0,5.0,0.0,0.0,7.0,1.0,phase_2,stop,250.0,350.0,4.0,,,,,,,,,green,diamond
0.0,6.0,2.0,1.0,6.0,0.0,0.0,7.0,1.0,phase_2,stop,300.0,350.0,4.0,,,,,,,,,cyan,hexagon
0.0,2.0,2.0,0.0,6.0,6.0,547.8824599995278,7.0,1.0,phase_2,go,300.0,400.0,1.0,,,,,,,,,blue,circle
0.0,8.0,4.0,1.0,6.0,6.0,468.861294000817,7.0,1.0,phase_2,stop,300.0,400.0,3.0,,,,,,,,,yellow,square
0.0,1.0,1.0,0.0,5.0,5.0,524.6976750022441,7.0,1.0,phase_2,go,300.0,350.0,1.0,,,,,,,,,orange,cross
0.0,5.0,1.0,1.0,5.0,0.0,0.0,7.0,1.0,phase_2,stop,300.0,350.0,4.0,,,,,,,,,magenta,triangle
0.0,2.0,2.0,0.0,5.0,5.0,598.3568919982645,7.0,1.0,phase_2,go,350.0,350.0,1.0,,,,,,,,,blue,circle
0.0,5.0,1.0,1.0,6.0,6.0,537.4377580010332,7.0,1.0,phase_2,stop,350.0,350.0,3.0,,,,,,,,,magenta,triangle
0.0,7.0,3.0,1.0,5.0,0.0,0.0,7.0,1.0,phase_2,stop,350.0,300.0,4.0,,,,,,,,,green,diamond
0.0,6.0,2.0,1.0,6.0,0.0,0.0,7.0,1.0,phase_2,stop,400.0,300.0,4.0,,,,,,,,,cyan,hexagon
0.0,2.0,2.0,0.0,6.0,6.0,627.1318049984984,7.0,1.0,phase_2,go,400.0,350.0,1.0,,,,,,,,,blue,circle
0.0,5.0,1.0,1.0,6.0,0.0,0.0,7.0,1.0,phase_2,stop,400.0,350.0,4.0,,,,,,,,,magenta,triangle
0.0,3.0,3.0,0.0,6.0,6.0,591.1924169995473,7.0,1.0,phase_2,go,400.0,400.0,1.0,,,,,,,,,white,flipped triangle
0.0,6.0,2.0,1.0,5.0,0.0,0.0,7.0,1.0,phase_2,stop,400.0,400.0,4.0,,,,,,,,,cyan,hexagon
0.0,1.0,1.0,0.0,6.0,6.0,597.3660349991405,7.0,1.0,phase_2,go,450.0,400.0,1.0,,,,,,,,,orange,cross
0.0,1.0,1.0,0.0,5.0,5.0,557.0883799991861,7.0,1.0,phase_2,go,450.0,400.0,1.0,,,,,,,,,orange,cross
0.0,6.0,2.0,1.0,5.0,5.0,578.3122870016086,7.0,1.0,phase_2,go,450.0,400.0,1.0,,,,,,,,,cyan,hexagon
0.0,4.0,4.0,0.0,6.0,6.0,401.3976300011563,8.0,1.0,phase_2,go,450.0,400.0,1.0,,,,,,,,,gray,I
0.0,4.0,4.0,0.0,5.0,5.0,643.5632640022959,8.0,1.0,phase_2,go,450.0,400.0,1.0,,,,,,,,,gray,I
0.0,5.0,1.0,1.0,6.0,0.0,0.0,8.0,1.0,phase_2,stop,450.0,400.0,4.0,,,,,,,,,magenta,triangle
0.0,8.0,4.0,1.0,5.0,5.0,638.9510840017465,8.0,1.0,phase_2,stop,450.0,450.0,3.0,,,,,,,,,yellow,square
0.0,3.0,3.0,0.0,5.0,5.0,890.8134509983938,8.0,1.0,phase_2,go,400.0,450.0,1.0,,,,,,,,,white,flipped triangle
0.0,4.0,4.0,0.0,5.0,5.0,529.8391459982668,8.0,1.0,phase_2,go,400.0,450.0,1.0,,,,,,,,,gray,I
0.0,8.0,4.0,1.0,6.0,6.0,294.9577040017175,8.0,1.0,phase_2,stop,400.0,450.0,3.0,,,,,,,,,yellow,square
0.0,3.0,3.0,0.0,6.0,6.0,506.12091600123676,8.0,1.0,phase_2,go,400.0,400.0,1.0,,,,,,,,,white,flipped triangle
0.0,1.0,1.0,0.0,5.0,5.0,603.849650000484,8.0,1.0,phase_2,go,400.0,400.0,1.0,,,,,,,,,orange,cross
0.0,2.0,2.0,0.0,6.0,6.0,535.370661997149,8.0,1.0,phase_2,go,400.0,400.0,1.0,,,,,,,,,blue,circle
0.0,1.0,1.0,0.0,5.0,5.0,449.6006030021817,8.0,1.0,phase_2,go,400.0,400.0,1.0,,,,,,,,,orange,cross
0.0,4.0,4.0,0.0,6.0,6.0,519.8687940028321,8.0,1.0,phase_2,go,400.0,400.0,1.0,,,,,,,,,gray,I
0.0,5.0,1.0,1.0,6.0,6.0,510.92620700001135,8.0,1.0,phase_2,stop,400.0,400.0,3.0,,,,,,,,,magenta,triangle
0.0,1.0,1.0,0.0,6.0,6.0,517.568367999047,8.0,1.0,phase_2,go,400.0,350.0,1.0,,,,,,,,,orange,cross
0.0,1.0,1.0,0.0,5.0,5.0,540.359239999816,8.0,1.0,phase_2,go,400.0,350.0,1.0,,,,,,,,,orange,cross
0.0,2.0,2.0,0.0,5.0,5.0,546.5174619967001,8.0,1.0,phase_2,go,400.0,350.0,1.0,,,,,,,,,blue,circle
0.0,1.0,1.0,0.0,5.0,5.0,765.0869130011415,8.0,1.0,phase_2,go,400.0,350.0,1.0,,,,,,,,,orange,cross
0.0,8.0,4.0,1.0,5.0,0.0,0.0,8.0,1.0,phase_2,stop,400.0,350.0,4.0,,,,,,,,,yellow,square
0.0,8.0,4.0,1.0,5.0,5.0,579.6003909999854,8.0,1.0,phase_2,stop,450.0,350.0,3.0,,,,,,,,,yellow,square
0.0,4.0,4.0,0.0,5.0,5.0,523.5970889989403,8.0,1.0,phase_2,go,400.0,350.0,1.0,,,,,,,,,gray,I
0.0,1.0,1.0,0.0,5.0,5.0,587.7178730006563,8.0,1.0,phase_2,go,400.0,350.0,1.0,,,,,,,,,orange,cross
0.0,7.0,3.0,1.0,5.0,0.0,0.0,8.0,1.0,phase_2,stop,400.0,350.0,4.0,,,,,,,,,green,diamond
0.0,5.0,1.0,1.0,5.0,5.0,680.9748939995188,8.0,1.0,phase_2,go,450.0,350.0,1.0,,,,,,,,,magenta,triangle
0.0,6.0,2.0,1.0,6.0,6.0,620.6704280011763,8.0,1.0,phase_2,go,450.0,350.0,1.0,,,,,,,,,cyan,hexagon
0.0,5.0,1.0,1.0,6.0,0.0,0.0,8.0,1.0,phase_2,stop,450.0,350.0,4.0,,,,,,,,,magenta,triangle
0.0,4.0,4.0,0.0,5.0,5.0,685.6229369986977,8.0,1.0,phase_2,go,450.0,400.0,1.0,,,,,,,,,gray,I
0.0,8.0,4.0,1.0,5.0,5.0,366.8230710027274,8.0,1.0,phase_2,stop,450.0,400.0,3.0,,,,,,,,,yellow,square
0.0,2.0,2.0,0.0,5.0,5.0,508.8247929998033,8.0,1.0,phase_2,go,400.0,400.0,1.0,,,,,,,,,blue,circle
0.0,6.0,2.0,1.0,5.0,5.0,393.2259350003733,8.0,1.0,phase_2,stop,400.0,400.0,3.0,,,,,,,,,cyan,hexagon
0.0,3.0,3.0,0.0,5.0,5.0,701.9205620017601,8.0,1.0,phase_2,go,350.0,400.0,1.0,,,,,,,,,white,flipped triangle
0.0,7.0,3.0,1.0,5.0,5.0,728.4017400015728,8.0,1.0,phase_2,go,350.0,400.0,1.0,,,,,,,,,green,diamond
0.0,2.0,2.0,0.0,6.0,6.0,478.266619000351,8.0,1.0,phase_2,go,350.0,400.0,1.0,,,,,,,,,blue,circle
0.0,5.0,1.0,1.0,5.0,5.0,296.043163001741,8.0,1.0,phase_2,go,350.0,400.0,1.0,,,,,,,,,magenta,triangle
0.0,4.0,4.0,0.0,5.0,5.0,492.4778660024458,8.0,1.0,phase_2,go,350.0,400.0,1.0,,,,,,,,,gray,I
0.0,3.0,3.0,0.0,5.0,5.0,722.1118890010985,8.0,1.0,phase_2,go,350.0,400.0,1.0,,,,,,,,,white,flipped triangle
0.0,7.0,3.0,1.0,5.0,0.0,0.0,8.0,1.0,phase_2,stop,350.0,400.0,4.0,,,,,,,,,green,diamond
0.0,6.0,2.0,1.0,7.0,4.0,3479.9706189987774,1.0,1.0,phase_3,,,,,132.0,3.0,176.0,44.0,220.0,132.0,88.0,264.0,cyan,hexagon
0.0,2.0,2.0,0.0,7.0,1.0,4990.481612996518,1.0,1.0,phase_3,,,,,162.0,3.0,162.0,54.0,324.0,270.0,216.0,108.0,blue,circle
0.0,8.0,4.0,1.0,7.0,6.0,3918.728679000196,1.0,1.0,phase_3,,,,,102.0,3.0,34.0,204.0,68.0,170.0,136.0,102.0,yellow,square
0.0,8.0,4.0,1.0,7.0,5.0,4590.551018998667,1.0,1.0,phase_3,,,,,216.0,4.0,108.0,162.0,324.0,54.0,216.0,270.0,yellow,square
0.0,4.0,4.0,0.0,7.0,2.0,4288.677820000885,1.0,1.0,phase_3,,,,,176.0,4.0,220.0,176.0,132.0,44.0,88.0,264.0,gray,I
0.0,8.0,4.0,1.0,7.0,2.0,1216.7469910018551,1.0,2.0,phase_3,,,,,196.0,4.0,147.0,196.0,98.0,294.0,245.0,49.0,yellow,square
0.0,2.0,2.0,0.0,7.0,3.0,3037.2667830015416,1.0,1.0,phase_3,,,,,136.0,4.0,170.0,34.0,136.0,102.0,68.0,204.0,blue,circle
0.0,1.0,1.0,0.0,7.0,2.0,2696.194723001099,1.0,1.0,phase_3,,,,,170.0,5.0,204.0,170.0,102.0,68.0,136.0,34.0,orange,cross
0.0,3.0,3.0,0.0,7.0,5.0,2240.321886001766,1.0,1.0,phase_3,,,,,196.0,4.0,49.0,147.0,98.0,245.0,196.0,294.0,white,flipped triangle
0.0,2.0,2.0,0.0,7.0,1.0,4615.356272999634,1.0,1.0,phase_3,,,,,132.0,3.0,132.0,264.0,220.0,88.0,176.0,44.0,blue,circle
0.0,3.0,3.0,0.0,7.0,5.0,2171.8127569984063,1.0,1.0,phase_3,,,,,170.0,5.0,68.0,102.0,136.0,34.0,170.0,204.0,white,flipped triangle
0.0,7.0,3.0,1.0,7.0,4.0,3647.915404999367,1.0,1.0,phase_3,,,,,162.0,3.0,324.0,108.0,54.0,162.0,216.0,270.0,green,diamond
0.0,5.0,1.0,1.0,7.0,6.0,3093.121890000475,1.0,1.0,phase_3,,,,,136.0,4.0,34.0,68.0,170.0,102.0,204.0,136.0,magenta,triangle
0.0,1.0,1.0,0.0,7.0,2.0,4188.682961997984,1.0,1.0,phase_3,,,,,156.0,4.0,195.0,156.0,78.0,39.0,117.0,234.0,orange,cross
0.0,1.0,1.0,0.0,7.0,6.0,2851.619364999351,1.0,1.0,phase_3,,,,,132.0,3.0,220.0,88.0,264.0,44.0,176.0,132.0,orange,cross
0.0,2.0,2.0,0.0,7.0,2.0,2906.2987329998577,1.0,1.0,phase_3,,,,,117.0,3.0,156.0,117.0,39.0,78.0,234.0,195.0,blue,circle
0.0,6.0,2.0,1.0,7.0,4.0,3644.650186997751,1.0,1.0,phase_3,,,,,162.0,3.0,54.0,108.0,216.0,162.0,324.0,270.0,cyan,hexagon
0.0,1.0,1.0,0.0,7.0,5.0,3494.252531996608,1.0,1.0,phase_3,,,,,132.0,3.0,44.0,88.0,176.0,220.0,132.0,264.0,orange,cross
0.0,2.0,2.0,0.0,7.0,2.0,3343.3118800021475,1.0,1.0,phase_3,,,,,162.0,3.0,54.0,162.0,108.0,216.0,324.0,270.0,blue,circle
0.0,6.0,2.0,1.0,7.0,4.0,2025.8446830011958,1.0,1.0,phase_3,,,,,147.0,3.0,49.0,196.0,98.0,147.0,245.0,294.0,cyan,hexagon
0.0,3.0,3.0,0.0,7.0,4.0,1417.5687659990217,2.0,1.0,phase_3,,,,,147.0,3.0,98.0,294.0,49.0,147.0,196.0,245.0,white,flipped triangle
0.0,2.0,2.0,0.0,7.0,1.0,3192.133561002265,2.0,1.0,phase_3,,,,,147.0,3.0,147.0,196.0,245.0,294.0,49.0,98.0,blue,circle
0.0,8.0,4.0,1.0,7.0,2.0,2170.566834000056,2.0,1.0,phase_3,,,,,156.0,4.0,39.0,156.0,234.0,78.0,117.0,195.0,yellow,square
0.0,1.0,1.0,0.0,7.0,2.0,1758.434514002147,2.0,1.0,phase_3,,,,,117.0,3.0,39.0,117.0,78.0,195.0,156.0,234.0,orange,cross
0.0,1.0,1.0,0.0,7.0,4.0,3585.7405820024724,2.0,1.0,phase_3,,,,,98.0,2.0,147.0,49.0,245.0,98.0,294.0,196.0,orange,cross
0.0,3.0,3.0,0.0,7.0,2.0,1898.198715000035,2.0,1.0,phase_3,,,,,117.0,3.0,195.0,117.0,156.0,39.0,78.0,234.0,white,flipped triangle
0.0,2.0,2.0,0.0,7.0,2.0,3093.3234350013663,2.0,1.0,phase_3,,,,,176.0,4.0,132.0,176.0,264.0,88.0,220.0,44.0,blue,circle
0.0,6.0,2.0,1.0,7.0,2.0,2255.4808480017527,2.0,1.0,phase_3,,,,,196.0,4.0,245.0,196.0,98.0,147.0,49.0,294.0,cyan,hexagon
0.0,5.0,1.0,1.0,7.0,3.0,1754.4498210008896,2.0,1.0,phase_3,,,,,147.0,3.0,245.0,98.0,147.0,294.0,49.0,196.0,magenta,triangle
0.0,8.0,4.0,1.0,7.0,3.0,2852.5193389978085,2.0,1.0,phase_3,,,,,49.0,1.0,98.0,245.0,49.0,147.0,294.0,196.0,yellow,square
0.0,7.0,3.0,1.0,7.0,1.0,3604.9551150026673,2.0,1.0,phase_3,,,,,132.0,3.0,132.0,220.0,88.0,264.0,176.0,44.0,green,diamond
0.0,7.0,3.0,1.0,7.0,1.0,3207.796637998399,2.0,1.0,phase_3,,,,,162.0,3.0,162.0,216.0,108.0,270.0,324.0,54.0,green,diamond
0.0,6.0,2.0,1.0,7.0,5.0,2113.045574002172,2.0,1.0,phase_3,,,,,156.0,4.0,195.0,117.0,39.0,234.0,156.0,78.0,cyan,hexagon
0.0,3.0,3.0,0.0,7.0,3.0,2251.7201709997607,2.0,1.0,phase_3,,,,,162.0,3.0,54.0,216.0,162.0,324.0,108.0,270.0,white,flipped triangle
0.0,2.0,2.0,0.0,7.0,1.0,2424.10517299868,2.0,1.0,phase_3,,,,,170.0,5.0,170.0,204.0,34.0,68.0,136.0,102.0,blue,circle
0.0,6.0,2.0,1.0,7.0,3.0,2481.402054996579,2.0,1.0,phase_3,,,,,156.0,4.0,117.0,234.0,156.0,39.0,195.0,78.0,cyan,hexagon
0.0,3.0,3.0,0.0,7.0,6.0,2610.954898002092,2.0,1.0,phase_3,,,,,132.0,3.0,88.0,176.0,220.0,264.0,44.0,132.0,white,flipped triangle
0.0,4.0,4.0,0.0,7.0,6.0,2206.436478001706,2.0,1.0,phase_3,,,,,98.0,2.0,49.0,147.0,196.0,245.0,294.0,98.0,gray,I
0.0,7.0,3.0,1.0,7.0,3.0,1226.7007810005452,2.0,1.0,phase_3,,,,,102.0,3.0,68.0,170.0,102.0,136.0,204.0,34.0,green,diamond
0.0,6.0,2.0,1.0,7.0,3.0,2764.064912000322,2.0,1.0,phase_3,,,,,132.0,3.0,264.0,176.0,132.0,220.0,44.0,88.0,cyan,hexagon
0.0,2.0,2.0,0.0,7.0,3.0,1618.6278850000235,3.0,1.0,phase_3,,,,,156.0,4.0,234.0,195.0,156.0,78.0,39.0,117.0,blue,circle
0.0,5.0,1.0,1.0,7.0,1.0,2297.511896998913,3.0,1.0,phase_3,,,,,132.0,3.0,132.0,176.0,220.0,264.0,44.0,88.0,magenta,triangle
0.0,7.0,3.0,1.0,7.0,4.0,1437.522939999326,3.0,1.0,phase_3,,,,,147.0,3.0,294.0,49.0,245.0,147.0,196.0,98.0,green,diamond
0.0,8.0,4.0,1.0,7.0,1.0,2220.852325997839,3.0,1.0,phase_3,,,,,136.0,4.0,136.0,68.0,204.0,34.0,170.0,102.0,yellow,square
0.0,8.0,4.0,1.0,7.0,3.0,2432.5767910013383,3.0,1.0,phase_3,,,,,162.0,3.0,324.0,108.0,162.0,54.0,216.0,270.0,yellow,square
0.0,4.0,4.0,0.0,7.0,4.0,3704.235957000492,3.0,1.0,phase_3,,,,,108.0,2.0,324.0,270.0,54.0,108.0,216.0,162.0,gray,I
0.0,7.0,3.0,1.0,7.0,3.0,2147.7203899994493,3.0,1.0,phase_3,,,,,132.0,3.0,176.0,44.0,132.0,220.0,88.0,264.0,green,diamond
0.0,7.0,3.0,1.0,7.0,4.0,2445.9686659974977,3.0,1.0,phase_3,,,,,195.0,5.0,234.0,117.0,39.0,195.0,156.0,78.0,green,diamond
0.0,3.0,3.0,0.0,7.0,6.0,2963.279052000871,3.0,1.0,phase_3,,,,,108.0,2.0,324.0,216.0,270.0,162.0,54.0,108.0,white,flipped triangle
0.0,3.0,3.0,0.0,7.0,3.0,2963.709159001155,3.0,1.0,phase_3,,,,,156.0,4.0,195.0,39.0,156.0,234.0,78.0,117.0,white,flipped triangle
0.0,4.0,4.0,0.0,7.0,3.0,2134.7046619994217,3.0,1.0,phase_3,,,,,170.0,5.0,136.0,204.0,170.0,34.0,102.0,68.0,gray,I
0.0,5.0,1.0,1.0,7.0,3.0,2842.629078000755,3.0,1.0,phase_3,,,,,162.0,3.0,108.0,270.0,162.0,54.0,324.0,216.0,magenta,triangle
0.0,5.0,1.0,1.0,7.0,6.0,2082.087868999224,3.0,1.0,phase_3,,,,,216.0,4.0,162.0,54.0,324.0,270.0,108.0,216.0,magenta,triangle
0.0,4.0,4.0,0.0,7.0,2.0,1672.3491310003735,3.0,1.0,phase_3,,,,,196.0,4.0,245.0,196.0,294.0,98.0,49.0,147.0,gray,I
0.0,4.0,4.0,0.0,7.0,3.0,1689.24568500006,3.0,1.0,phase_3,,,,,176.0,4.0,44.0,132.0,176.0,220.0,264.0,88.0,gray,I
0.0,4.0,4.0,0.0,7.0,1.0,2278.1759290010086,3.0,1.0,phase_3,,,,,156.0,4.0,156.0,234.0,39.0,195.0,117.0,78.0,gray,I
0.0,6.0,2.0,1.0,7.0,6.0,1809.610918000544,3.0,1.0,phase_3,,,,,162.0,3.0,54.0,270.0,108.0,324.0,216.0,162.0,cyan,hexagon
0.0,4.0,4.0,0.0,7.0,1.0,2911.5023509984894,3.0,1.0,phase_3,,,,,156.0,4.0,156.0,39.0,234.0,78.0,117.0,195.0,gray,I
0.0,6.0,2.0,1.0,7.0,5.0,1799.028991001251,3.0,1.0,phase_3,,,,,170.0,5.0,204.0,68.0,34.0,136.0,170.0,102.0,cyan,hexagon
0.0,5.0,1.0,1.0,7.0,6.0,2326.2351189987385,3.0,1.0,phase_3,,,,,170.0,5.0,102.0,68.0,204.0,136.0,34.0,170.0,magenta,triangle
0.0,4.0,4.0,0.0,7.0,5.0,1028.473196001869,4.0,1.0,phase_3,,,,,170.0,5.0,102.0,136.0,204.0,68.0,170.0,34.0,gray,I
0.0,5.0,1.0,1.0,7.0,5.0,1615.3267539993976,4.0,1.0,phase_3,,,,,147.0,3.0,196.0,98.0,294.0,245.0,147.0,49.0,magenta,triangle
0.0,8.0,4.0,1.0,7.0,5.0,2699.969416000385,4.0,1.0,phase_3,,,,,176.0,4.0,220.0,264.0,132.0,44.0,176.0,88.0,yellow,square
0.0,1.0,1.0,0.0,7.0,1.0,2729.109105999669,4.0,1.0,phase_3,,,,,216.0,4.0,216.0,324.0,108.0,162.0,270.0,54.0,orange,cross
0.0,1.0,1.0,0.0,7.0,3.0,3118.8798750008573,4.0,1.0,phase_3,,,,,170.0,5.0,136.0,102.0,170.0,204.0,34.0,68.0,orange,cross
0.0,3.0,3.0,0.0,7.0,3.0,2670.4646379985206,4.0,1.0,phase_3,,,,,170.0,5.0,34.0,204.0,170.0,136.0,102.0,68.0,white,flipped triangle
0.0,3.0,3.0,0.0,7.0,1.0,2171.00703899996,4.0,1.0,phase_3,,,,,176.0,4.0,176.0,264.0,88.0,44.0,132.0,220.0,white,flipped triangle
0.0,7.0,3.0,1.0,7.0,6.0,2983.838131000084,4.0,1.0,phase_3,,,,,196.0,4.0,147.0,98.0,49.0,245.0,294.0,196.0,green,diamond
0.0,5.0,1.0,1.0,7.0,1.0,1524.8366660016472,4.0,1.0,phase_3,,,,,117.0,3.0,117.0,234.0,195.0,156.0,78.0,39.0,magenta,triangle
0.0,8.0,4.0,1.0,7.0,5.0,1578.103399999236,4.0,1.0,phase_3,,,,,132.0,3.0,264.0,44.0,220.0,88.0,132.0,176.0,yellow,square
0.0,5.0,1.0,1.0,7.0,1.0,1731.8338750010298,4.0,1.0,phase_3,,,,,156.0,4.0,156.0,234.0,195.0,117.0,78.0,39.0,magenta,triangle
0.0,2.0,2.0,0.0,7.0,4.0,1834.6472029988945,4.0,1.0,phase_3,,,,,147.0,3.0,245.0,49.0,98.0,147.0,294.0,196.0,blue,circle
0.0,4.0,4.0,0.0,7.0,6.0,2880.945975997747,4.0,1.0,phase_3,,,,,162.0,3.0,216.0,108.0,54.0,270.0,324.0,162.0,gray,I
0.0,1.0,1.0,0.0,7.0,1.0,2392.615148000914,4.0,1.0,phase_3,,,,,216.0,4.0,216.0,108.0,324.0,270.0,54.0,162.0,orange,cross
0.0,6.0,2.0,1.0,7.0,4.0,2332.5283959966328,4.0,1.0,phase_3,,,,,170.0,5.0,34.0,102.0,68.0,170.0,136.0,204.0,cyan,hexagon
0.0,7.0,3.0,1.0,7.0,5.0,1484.8601480007346,4.0,1.0,phase_3,,,,,156.0,4.0,117.0,234.0,78.0,39.0,156.0,195.0,green,diamond
0.0,5.0,1.0,1.0,7.0,3.0,1304.8366580005677,4.0,1.0,phase_3,,,,,176.0,4.0,264.0,220.0,176.0,44.0,88.0,132.0,magenta,triangle
0.0,8.0,4.0,1.0,7.0,5.0,2418.990047000989,4.0,1.0,phase_3,,,,,156.0,4.0,195.0,234.0,117.0,78.0,156.0,39.0,yellow,square
0.0,1.0,1.0,0.0,7.0,6.0,2112.0562239993887,4.0,1.0,phase_3,,,,,147.0,3.0,294.0,196.0,245.0,98.0,49.0,147.0,orange,cross
0.0,7.0,3.0,1.0,7.0,6.0,2262.683263001236,4.0,1.0,phase_3,,,,,136.0,4.0,204.0,102.0,68.0,34.0,170.0,136.0,green,diamond
