raw_reward_magnitude,stim_reward,stepwise_reward_magnitude,paired_with_stopping,stim_location,response,reaction_time,block,num_trial_presentations,which_phase,stop_signal_trial_type,left_SSD,right_SSD,accuracy,chosen_bidding_amount,chosen_bidding_level,possible_bid_1,possible_bid_2,possible_bid_3,possible_bid_4,possible_bid_5,possible_bid_6,color_text,shape_text
389.0,8.0,4.0,1.0,3.0,3.0,335.9363389999998,1.0,1.0,phase_1,,,,,,,,,,,,,blue,triangle
121.0,6.0,1.0,1.0,2.0,2.0,279.1077660001519,1.0,1.0,phase_1,,,,,,,,,,,,,cyan,diamond
209.0,7.0,2.0,1.0,4.0,4.0,262.105093999935,1.0,1.0,phase_1,,,,,,,,,,,,,gray,hexagon
413.0,4.0,4.0,0.0,4.0,4.0,252.8183750000607,1.0,1.0,phase_1,,,,,,,,,,,,,orange,cross
379.0,4.0,4.0,0.0,4.0,4.0,279.3421540000054,1.0,1.0,phase_1,,,,,,,,,,,,,orange,cross
217.0,3.0,2.0,0.0,1.0,1.0,266.604260999884,1.0,1.0,phase_1,,,,,,,,,,,,,yellow,flipped triangle
75.0,2.0,1.0,0.0,4.0,4.0,272.1111779999319,1.0,1.0,phase_1,,,,,,,,,,,,,magenta,circle
111.0,6.0,1.0,1.0,2.0,2.0,267.8286989998923,1.0,1.0,phase_1,,,,,,,,,,,,,cyan,diamond
27.0,5.0,0.5,1.0,4.0,4.0,288.5321609999209,1.0,1.0,phase_1,,,,,,,,,,,,,green,square
85.0,2.0,1.0,0.0,4.0,4.0,306.5096559998892,1.0,1.0,phase_1,,,,,,,,,,,,,magenta,circle
104.0,2.0,1.0,0.0,1.0,1.0,256.0239089998504,1.0,1.0,phase_1,,,,,,,,,,,,,magenta,circle
0.0,1.0,0.0,0.0,3.0,3.0,271.911295999871,1.0,1.0,phase_1,,,,,,,,,,,,,white,I
416.0,8.0,4.0,1.0,2.0,2.0,275.4826709999634,1.0,1.0,phase_1,,,,,,,,,,,,,blue,triangle
176.0,3.0,2.0,0.0,2.0,2.0,303.8388410000152,1.0,2.0,phase_1,,,,,,,,,,,,,yellow,flipped triangle
397.0,8.0,4.0,1.0,2.0,2.0,274.8386150001352,1.0,1.0,phase_1,,,,,,,,,,,,,blue,triangle
203.0,3.0,2.0,0.0,1.0,1.0,291.2998040001184,1.0,1.0,phase_1,,,,,,,,,,,,,yellow,flipped triangle
407.0,8.0,4.0,1.0,3.0,3.0,302.6240330000291,1.0,1.0,phase_1,,,,,,,,,,,,,blue,triangle
0.0,2.0,0.0,0.0,4.0,4.0,303.1950249999227,1.0,1.0,phase_1,,,,,,,,,,,,,magenta,circle
404.0,4.0,4.0,0.0,2.0,2.0,290.1266469998518,1.0,1.0,phase_1,,,,,,,,,,,,,orange,cross
0.0,7.0,0.0,1.0,3.0,3.0,292.8039089999856,1.0,1.0,phase_1,,,,,,,,,,,,,gray,hexagon
185.0,7.0,2.0,1.0,1.0,1.0,270.5860959999882,1.0,1.0,phase_1,,,,,,,,,,,,,gray,hexagon
80.0,2.0,1.0,0.0,3.0,3.0,278.5468809997837,1.0,1.0,phase_1,,,,,,,,,,,,,magenta,circle
220.0,3.0,2.0,0.0,4.0,4.0,294.2091270001583,1.0,1.0,phase_1,,,,,,,,,,,,,yellow,flipped triangle
58.0,5.0,0.5,1.0,4.0,4.0,252.4146490000021,1.0,1.0,phase_1,,,,,,,,,,,,,green,square
81.0,6.0,1.0,1.0,4.0,4.0,296.8379149999691,1.0,1.0,phase_1,,,,,,,,,,,,,cyan,diamond
415.0,8.0,4.0,1.0,1.0,1.0,302.2194540001237,1.0,1.0,phase_1,,,,,,,,,,,,,blue,triangle
88.0,2.0,1.0,0.0,2.0,2.0,314.0808320001724,1.0,1.0,phase_1,,,,,,,,,,,,,magenta,circle
405.0,4.0,4.0,0.0,4.0,4.0,280.1333119998617,1.0,1.0,phase_1,,,,,,,,,,,,,orange,cross
51.0,5.0,0.5,1.0,2.0,2.0,291.3658979998672,1.0,1.0,phase_1,,,,,,,,,,,,,green,square
178.0,3.0,2.0,0.0,3.0,3.0,286.9386550000854,1.0,1.0,phase_1,,,,,,,,,,,,,yellow,flipped triangle
194.0,7.0,2.0,1.0,3.0,3.0,305.7477790000575,1.0,1.0,phase_1,,,,,,,,,,,,,gray,hexagon
54.0,1.0,0.5,0.0,3.0,3.0,343.4966289999011,1.0,1.0,phase_1,,,,,,,,,,,,,white,I
0.0,4.0,0.0,0.0,2.0,2.0,313.585471000124,1.0,1.0,phase_1,,,,,,,,,,,,,orange,cross
415.0,4.0,4.0,0.0,4.0,4.0,289.3838380000488,1.0,1.0,phase_1,,,,,,,,,,,,,orange,cross
0.0,3.0,0.0,0.0,3.0,3.0,314.1127370001868,1.0,1.0,phase_1,,,,,,,,,,,,,yellow,flipped triangle
383.0,4.0,4.0,0.0,2.0,2.0,305.6942179998714,1.0,1.0,phase_1,,,,,,,,,,,,,orange,cross
406.0,8.0,4.0,1.0,4.0,4.0,264.6100389999901,1.0,1.0,phase_1,,,,,,,,,,,,,blue,triangle
108.0,2.0,1.0,0.0,3.0,3.0,279.5738180000171,1.0,1.0,phase_1,,,,,,,,,,,,,magenta,circle
404.0,8.0,4.0,1.0,1.0,1.0,291.7757569998684,1.0,1.0,phase_1,,,,,,,,,,,,,blue,triangle
59.0,1.0,0.5,0.0,1.0,1.0,324.7909670001263,1.0,1.0,phase_1,,,,,,,,,,,,,white,I
76.0,2.0,1.0,0.0,3.0,3.0,302.5940039999568,1.0,1.0,phase_1,,,,,,,,,,,,,magenta,circle
0.0,8.0,0.0,1.0,4.0,4.0,259.391105000077,1.0,1.0,phase_1,,,,,,,,,,,,,blue,triangle
223.0,3.0,2.0,0.0,4.0,4.0,293.2888600000751,1.0,1.0,phase_1,,,,,,,,,,,,,yellow,flipped triangle
60.0,1.0,0.5,0.0,2.0,2.0,275.4355340000529,1.0,1.0,phase_1,,,,,,,,,,,,,white,I
52.0,1.0,0.5,0.0,3.0,3.0,282.0991629998843,1.0,1.0,phase_1,,,,,,,,,,,,,white,I
397.0,8.0,4.0,1.0,1.0,1.0,257.6060320000124,1.0,1.0,phase_1,,,,,,,,,,,,,blue,triangle
0.0,2.0,0.0,0.0,1.0,1.0,288.7061459998676,1.0,1.0,phase_1,,,,,,,,,,,,,magenta,circle
60.0,5.0,0.5,1.0,3.0,3.0,291.8167749999156,1.0,1.0,phase_1,,,,,,,,,,,,,green,square
72.0,5.0,0.5,1.0,4.0,4.0,323.4520179998981,1.0,1.0,phase_1,,,,,,,,,,,,,green,square
58.0,1.0,0.5,0.0,3.0,3.0,308.1226540000443,1.0,1.0,phase_1,,,,,,,,,,,,,white,I
0.0,6.0,0.0,1.0,3.0,3.0,286.6672069999367,1.0,1.0,phase_1,,,,,,,,,,,,,cyan,diamond
27.0,1.0,0.5,0.0,2.0,2.0,288.3848080000462,1.0,1.0,phase_1,,,,,,,,,,,,,white,I
0.0,7.0,0.0,1.0,3.0,3.0,337.6539860000775,1.0,1.0,phase_1,,,,,,,,,,,,,gray,hexagon
412.0,8.0,4.0,1.0,2.0,2.0,269.9654139998984,1.0,1.0,phase_1,,,,,,,,,,,,,blue,triangle
82.0,2.0,1.0,0.0,3.0,3.0,445.1011620001281,1.0,1.0,phase_1,,,,,,,,,,,,,magenta,circle
0.0,4.0,0.0,0.0,3.0,3.0,280.8393489999616,1.0,1.0,phase_1,,,,,,,,,,,,,orange,cross
37.0,1.0,0.5,0.0,4.0,4.0,293.4112830000686,1.0,1.0,phase_1,,,,,,,,,,,,,white,I
74.0,5.0,0.5,1.0,2.0,2.0,249.21115799998,1.0,1.0,phase_1,,,,,,,,,,,,,green,square
391.0,4.0,4.0,0.0,2.0,2.0,324.9246590000894,1.0,1.0,phase_1,,,,,,,,,,,,,orange,cross
48.0,5.0,0.5,1.0,1.0,1.0,310.3563189999931,1.0,1.0,phase_1,,,,,,,,,,,,,green,square
76.0,6.0,1.0,1.0,3.0,3.0,261.9233109999186,1.0,1.0,phase_1,,,,,,,,,,,,,cyan,diamond
0.0,1.0,0.0,0.0,4.0,4.0,242.2104139998282,1.0,1.0,phase_1,,,,,,,,,,,,,white,I
191.0,7.0,2.0,1.0,4.0,4.0,216.9478640000761,1.0,1.0,phase_1,,,,,,,,,,,,,gray,hexagon
43.0,1.0,0.5,0.0,2.0,2.0,241.952000999845,1.0,1.0,phase_1,,,,,,,,,,,,,white,I
0.0,5.0,0.0,1.0,1.0,1.0,268.3577279999554,1.0,1.0,phase_1,,,,,,,,,,,,,green,square
0.0,4.0,0.0,0.0,2.0,2.0,281.2591800000064,1.0,1.0,phase_1,,,,,,,,,,,,,orange,cross
0.0,1.0,0.0,0.0,2.0,2.0,279.4889639999383,1.0,1.0,phase_1,,,,,,,,,,,,,white,I
48.0,5.0,0.5,1.0,4.0,4.0,250.6729650001489,1.0,1.0,phase_1,,,,,,,,,,,,,green,square
110.0,6.0,1.0,1.0,4.0,4.0,267.4654809998174,1.0,1.0,phase_1,,,,,,,,,,,,,cyan,diamond
208.0,3.0,2.0,0.0,3.0,3.0,293.321368000079,1.0,1.0,phase_1,,,,,,,,,,,,,yellow,flipped triangle
406.0,4.0,4.0,0.0,3.0,3.0,236.9848739999724,1.0,1.0,phase_1,,,,,,,,,,,,,orange,cross
54.0,1.0,0.5,0.0,1.0,1.0,261.7443809999713,1.0,1.0,phase_1,,,,,,,,,,,,,white,I
396.0,8.0,4.0,1.0,3.0,3.0,273.8789709999309,1.0,1.0,phase_1,,,,,,,,,,,,,blue,triangle
224.0,7.0,2.0,1.0,4.0,4.0,232.7682579998509,1.0,1.0,phase_1,,,,,,,,,,,,,gray,hexagon
214.0,3.0,2.0,0.0,1.0,1.0,232.430997000165,1.0,1.0,phase_1,,,,,,,,,,,,,yellow,flipped triangle
411.0,4.0,4.0,0.0,4.0,4.0,263.8291980001668,1.0,1.0,phase_1,,,,,,,,,,,,,orange,cross
377.0,8.0,4.0,1.0,2.0,2.0,287.7072289998068,1.0,1.0,phase_1,,,,,,,,,,,,,blue,triangle
393.0,8.0,4.0,1.0,4.0,4.0,256.3864470000681,1.0,1.0,phase_1,,,,,,,,,,,,,blue,triangle
0.0,6.0,0.0,1.0,1.0,1.0,253.85585100002572,1.0,1.0,phase_1,,,,,,,,,,,,,cyan,diamond
208.0,7.0,2.0,1.0,2.0,2.0,302.8168079999886,1.0,1.0,phase_1,,,,,,,,,,,,,gray,hexagon
49.0,1.0,0.5,0.0,2.0,2.0,315.718027999992,1.0,1.0,phase_1,,,,,,,,,,,,,white,I
208.0,7.0,2.0,1.0,2.0,2.0,263.8778319999346,1.0,1.0,phase_1,,,,,,,,,,,,,gray,hexagon
390.0,4.0,4.0,0.0,2.0,2.0,305.4482289999214,1.0,1.0,phase_1,,,,,,,,,,,,,orange,cross
412.0,4.0,4.0,0.0,3.0,3.0,322.7254869998432,1.0,1.0,phase_1,,,,,,,,,,,,,orange,cross
108.0,6.0,1.0,1.0,2.0,2.0,274.6364540000741,1.0,1.0,phase_1,,,,,,,,,,,,,cyan,diamond
0.0,5.0,0.0,1.0,3.0,3.0,305.0378860000364,1.0,1.0,phase_1,,,,,,,,,,,,,green,square
26.0,5.0,0.5,1.0,2.0,2.0,237.1936229999391,1.0,1.0,phase_1,,,,,,,,,,,,,green,square
0.0,4.0,0.0,0.0,4.0,4.0,268.9875209998718,1.0,1.0,phase_1,,,,,,,,,,,,,orange,cross
218.0,7.0,2.0,1.0,3.0,3.0,282.2600300000886,1.0,1.0,phase_1,,,,,,,,,,,,,gray,hexagon
109.0,2.0,1.0,0.0,2.0,2.0,241.6048219999993,1.0,1.0,phase_1,,,,,,,,,,,,,magenta,circle
0.0,2.0,0.0,0.0,2.0,2.0,224.3972799999483,1.0,1.0,phase_1,,,,,,,,,,,,,magenta,circle
113.0,6.0,1.0,1.0,2.0,2.0,247.4523480000243,1.0,1.0,phase_1,,,,,,,,,,,,,cyan,diamond
0.0,2.0,0.0,0.0,4.0,4.0,409.0058929998577,1.0,1.0,phase_1,,,,,,,,,,,,,magenta,circle
0.0,7.0,0.0,1.0,4.0,4.0,435.8563060000051,1.0,1.0,phase_1,,,,,,,,,,,,,gray,hexagon
375.0,8.0,4.0,1.0,4.0,4.0,305.2264699999796,1.0,1.0,phase_1,,,,,,,,,,,,,blue,triangle
101.0,2.0,1.0,0.0,1.0,1.0,300.8272310000848,1.0,1.0,phase_1,,,,,,,,,,,,,magenta,circle
0.0,8.0,0.0,1.0,2.0,2.0,233.567862999962,1.0,1.0,phase_1,,,,,,,,,,,,,blue,triangle
109.0,6.0,1.0,1.0,3.0,3.0,300.4304769999635,1.0,1.0,phase_1,,,,,,,,,,,,,cyan,diamond
412.0,4.0,4.0,0.0,2.0,2.0,274.2521320001287,1.0,1.0,phase_1,,,,,,,,,,,,,orange,cross
401.0,4.0,4.0,0.0,1.0,1.0,298.6009039998407,1.0,1.0,phase_1,,,,,,,,,,,,,orange,cross
425.0,8.0,4.0,1.0,1.0,1.0,314.8551110000426,2.0,1.0,phase_1,,,,,,,,,,,,,blue,triangle
80.0,6.0,1.0,1.0,4.0,4.0,297.9580510000232,2.0,1.0,phase_1,,,,,,,,,,,,,cyan,diamond
0.0,7.0,0.0,1.0,3.0,3.0,303.1637510000564,2.0,1.0,phase_1,,,,,,,,,,,,,gray,hexagon
33.0,1.0,0.5,0.0,4.0,4.0,327.1533540000746,2.0,1.0,phase_1,,,,,,,,,,,,,white,I
59.0,5.0,0.5,1.0,1.0,1.0,251.4193559998148,2.0,1.0,phase_1,,,,,,,,,,,,,green,square
0.0,4.0,0.0,0.0,2.0,2.0,252.3080989999471,2.0,1.0,phase_1,,,,,,,,,,,,,orange,cross
0.0,7.0,0.0,1.0,1.0,1.0,293.4627409999848,2.0,1.0,phase_1,,,,,,,,,,,,,gray,hexagon
0.0,8.0,0.0,1.0,3.0,3.0,265.6641859998672,2.0,1.0,phase_1,,,,,,,,,,,,,blue,triangle
384.0,4.0,4.0,0.0,3.0,3.0,282.2124799999983,2.0,1.0,phase_1,,,,,,,,,,,,,orange,cross
103.0,2.0,1.0,0.0,1.0,1.0,241.3705449998815,2.0,1.0,phase_1,,,,,,,,,,,,,magenta,circle
51.0,1.0,0.5,0.0,3.0,3.0,251.7011709999224,2.0,1.0,phase_1,,,,,,,,,,,,,white,I
44.0,1.0,0.5,0.0,4.0,4.0,236.3390909999907,2.0,1.0,phase_1,,,,,,,,,,,,,white,I
40.0,1.0,0.5,0.0,1.0,1.0,267.7604359998895,2.0,1.0,phase_1,,,,,,,,,,,,,white,I
383.0,4.0,4.0,0.0,3.0,3.0,274.1695039999285,2.0,1.0,phase_1,,,,,,,,,,,,,orange,cross
415.0,8.0,4.0,1.0,4.0,4.0,284.1274029999567,2.0,1.0,phase_1,,,,,,,,,,,,,blue,triangle
0.0,4.0,0.0,0.0,4.0,4.0,275.4976259998329,2.0,1.0,phase_1,,,,,,,,,,,,,orange,cross
111.0,2.0,1.0,0.0,3.0,3.0,281.943333000072,2.0,1.0,phase_1,,,,,,,,,,,,,magenta,circle
219.0,3.0,2.0,0.0,3.0,3.0,298.8937650000025,2.0,1.0,phase_1,,,,,,,,,,,,,yellow,flipped triangle
412.0,8.0,4.0,1.0,4.0,4.0,278.132646999893,2.0,1.0,phase_1,,,,,,,,,,,,,blue,triangle
407.0,4.0,4.0,0.0,1.0,1.0,263.4042219999628,2.0,1.0,phase_1,,,,,,,,,,,,,orange,cross
400.0,4.0,4.0,0.0,4.0,4.0,247.6127590000487,2.0,1.0,phase_1,,,,,,,,,,,,,orange,cross
60.0,1.0,0.5,0.0,1.0,1.0,262.4219180002001,2.0,1.0,phase_1,,,,,,,,,,,,,white,I
383.0,8.0,4.0,1.0,3.0,3.0,281.0208340001736,2.0,1.0,phase_1,,,,,,,,,,,,,blue,triangle
117.0,6.0,1.0,1.0,4.0,4.0,266.5064029999939,2.0,1.0,phase_1,,,,,,,,,,,,,cyan,diamond
38.0,1.0,0.5,0.0,2.0,2.0,289.3733309999788,2.0,1.0,phase_1,,,,,,,,,,,,,white,I
183.0,3.0,2.0,0.0,4.0,4.0,281.3812029999099,2.0,1.0,phase_1,,,,,,,,,,,,,yellow,flipped triangle
118.0,6.0,1.0,1.0,2.0,2.0,248.8835039998775,2.0,1.0,phase_1,,,,,,,,,,,,,cyan,diamond
203.0,7.0,2.0,1.0,4.0,4.0,283.8994530000036,2.0,1.0,phase_1,,,,,,,,,,,,,gray,hexagon
203.0,7.0,2.0,1.0,3.0,3.0,276.1005570000634,2.0,1.0,phase_1,,,,,,,,,,,,,gray,hexagon
28.0,5.0,0.5,1.0,4.0,4.0,303.178927999852,2.0,1.0,phase_1,,,,,,,,,,,,,green,square
120.0,6.0,1.0,1.0,4.0,4.0,227.1235919999981,2.0,1.0,phase_1,,,,,,,,,,,,,cyan,diamond
90.0,2.0,1.0,0.0,1.0,1.0,308.7715439999101,2.0,1.0,phase_1,,,,,,,,,,,,,magenta,circle
195.0,7.0,2.0,1.0,2.0,2.0,243.2131510001909,2.0,1.0,phase_1,,,,,,,,,,,,,gray,hexagon
223.0,7.0,2.0,1.0,1.0,1.0,279.1271989999586,2.0,1.0,phase_1,,,,,,,,,,,,,gray,hexagon
0.0,3.0,0.0,0.0,4.0,4.0,270.5453089999992,2.0,1.0,phase_1,,,,,,,,,,,,,yellow,flipped triangle
0.0,8.0,0.0,1.0,1.0,1.0,238.2501909999064,2.0,1.0,phase_1,,,,,,,,,,,,,blue,triangle
214.0,7.0,2.0,1.0,4.0,4.0,267.1644130000459,2.0,1.0,phase_1,,,,,,,,,,,,,gray,hexagon
41.0,1.0,0.5,0.0,1.0,1.0,254.07976499991491,2.0,1.0,phase_1,,,,,,,,,,,,,white,I
33.0,5.0,0.5,1.0,3.0,3.0,260.0000090001231,2.0,1.0,phase_1,,,,,,,,,,,,,green,square
82.0,6.0,1.0,1.0,2.0,2.0,253.1492900000103,2.0,1.0,phase_1,,,,,,,,,,,,,cyan,diamond
81.0,2.0,1.0,0.0,4.0,4.0,254.17529800006378,2.0,1.0,phase_1,,,,,,,,,,,,,magenta,circle
420.0,4.0,4.0,0.0,3.0,3.0,267.2137179999936,2.0,1.0,phase_1,,,,,,,,,,,,,orange,cross
76.0,2.0,1.0,0.0,1.0,1.0,241.7630620000181,2.0,1.0,phase_1,,,,,,,,,,,,,magenta,circle
104.0,6.0,1.0,1.0,3.0,3.0,260.8646339999723,2.0,1.0,phase_1,,,,,,,,,,,,,cyan,diamond
85.0,6.0,1.0,1.0,1.0,1.0,318.0033660000845,2.0,1.0,phase_1,,,,,,,,,,,,,cyan,diamond
0.0,6.0,0.0,1.0,2.0,2.0,229.0599570001177,2.0,1.0,phase_1,,,,,,,,,,,,,cyan,diamond
196.0,7.0,2.0,1.0,2.0,2.0,238.248121000197,2.0,1.0,phase_1,,,,,,,,,,,,,gray,hexagon
34.0,5.0,0.5,1.0,1.0,1.0,263.7434729999768,2.0,1.0,phase_1,,,,,,,,,,,,,green,square
0.0,8.0,0.0,1.0,1.0,1.0,313.3301549999032,2.0,1.0,phase_1,,,,,,,,,,,,,blue,triangle
60.0,5.0,0.5,1.0,3.0,3.0,291.0537479999675,2.0,1.0,phase_1,,,,,,,,,,,,,green,square
52.0,5.0,0.5,1.0,4.0,4.0,205.4560809999657,2.0,1.0,phase_1,,,,,,,,,,,,,green,square
44.0,5.0,0.5,1.0,2.0,2.0,242.4382959998183,2.0,1.0,phase_1,,,,,,,,,,,,,green,square
415.0,4.0,4.0,0.0,4.0,4.0,359.3182469999192,2.0,1.0,phase_1,,,,,,,,,,,,,orange,cross
397.0,4.0,4.0,0.0,1.0,1.0,249.4610019998617,2.0,1.0,phase_1,,,,,,,,,,,,,orange,cross
124.0,2.0,1.0,0.0,4.0,4.0,288.4072039998955,2.0,1.0,phase_1,,,,,,,,,,,,,magenta,circle
192.0,7.0,2.0,1.0,3.0,3.0,250.621264000074,2.0,1.0,phase_1,,,,,,,,,,,,,gray,hexagon
116.0,2.0,1.0,0.0,1.0,1.0,206.2547389998599,2.0,1.0,phase_1,,,,,,,,,,,,,magenta,circle
49.0,5.0,0.5,1.0,3.0,3.0,262.9552099999728,2.0,1.0,phase_1,,,,,,,,,,,,,green,square
219.0,7.0,2.0,1.0,3.0,3.0,283.0304839999371,2.0,1.0,phase_1,,,,,,,,,,,,,gray,hexagon
209.0,3.0,2.0,0.0,2.0,2.0,266.7983129999811,2.0,1.0,phase_1,,,,,,,,,,,,,yellow,flipped triangle
0.0,5.0,0.0,1.0,3.0,3.0,245.1249840000855,2.0,1.0,phase_1,,,,,,,,,,,,,green,square
180.0,3.0,2.0,0.0,4.0,4.0,234.2676399998708,2.0,1.0,phase_1,,,,,,,,,,,,,yellow,flipped triangle
28.0,1.0,0.5,0.0,2.0,2.0,262.723502999961,2.0,1.0,phase_1,,,,,,,,,,,,,white,I
0.0,7.0,0.0,1.0,2.0,2.0,259.8451720000412,2.0,1.0,phase_1,,,,,,,,,,,,,gray,hexagon
114.0,2.0,1.0,0.0,1.0,1.0,256.1937979999129,2.0,1.0,phase_1,,,,,,,,,,,,,magenta,circle
0.0,1.0,0.0,0.0,3.0,3.0,241.7182320000392,2.0,1.0,phase_1,,,,,,,,,,,,,white,I
72.0,1.0,0.5,0.0,3.0,3.0,321.7492520000178,2.0,1.0,phase_1,,,,,,,,,,,,,white,I
68.0,5.0,0.5,1.0,1.0,1.0,301.602043999992,2.0,2.0,phase_1,,,,,,,,,,,,,green,square
0.0,2.0,0.0,0.0,3.0,3.0,318.6669609999626,2.0,1.0,phase_1,,,,,,,,,,,,,magenta,circle
201.0,3.0,2.0,0.0,3.0,3.0,319.8201249999783,2.0,1.0,phase_1,,,,,,,,,,,,,yellow,flipped triangle
175.0,7.0,2.0,1.0,1.0,1.0,285.9271879999596,2.0,1.0,phase_1,,,,,,,,,,,,,gray,hexagon
0.0,3.0,0.0,0.0,4.0,4.0,286.244226000008,2.0,1.0,phase_1,,,,,,,,,,,,,yellow,flipped triangle
209.0,3.0,2.0,0.0,2.0,2.0,284.7771839999495,2.0,1.0,phase_1,,,,,,,,,,,,,yellow,flipped triangle
54.0,5.0,0.5,1.0,3.0,3.0,284.799004999968,2.0,1.0,phase_1,,,,,,,,,,,,,green,square
0.0,8.0,0.0,1.0,2.0,2.0,275.4738900000575,2.0,1.0,phase_1,,,,,,,,,,,,,blue,triangle
425.0,4.0,4.0,0.0,1.0,1.0,245.9165390000635,2.0,1.0,phase_1,,,,,,,,,,,,,orange,cross
90.0,6.0,1.0,1.0,4.0,4.0,268.5248850000334,2.0,1.0,phase_1,,,,,,,,,,,,,cyan,diamond
375.0,4.0,4.0,0.0,1.0,1.0,262.0875360000809,2.0,1.0,phase_1,,,,,,,,,,,,,orange,cross
114.0,2.0,1.0,0.0,2.0,2.0,270.6441860000268,2.0,1.0,phase_1,,,,,,,,,,,,,magenta,circle
380.0,8.0,4.0,1.0,2.0,2.0,312.3683720000372,2.0,1.0,phase_1,,,,,,,,,,,,,blue,triangle
0.0,6.0,0.0,1.0,1.0,1.0,252.6581130000522,2.0,1.0,phase_1,,,,,,,,,,,,,cyan,diamond
187.0,7.0,2.0,1.0,1.0,1.0,281.464539000126,2.0,1.0,phase_1,,,,,,,,,,,,,gray,hexagon
49.0,5.0,0.5,1.0,2.0,2.0,277.193546000035,2.0,1.0,phase_1,,,,,,,,,,,,,green,square
0.0,2.0,0.0,0.0,4.0,4.0,273.7542800000483,2.0,1.0,phase_1,,,,,,,,,,,,,magenta,circle
26.0,1.0,0.5,0.0,4.0,4.0,294.0345899999101,2.0,1.0,phase_1,,,,,,,,,,,,,white,I
0.0,6.0,0.0,1.0,1.0,1.0,212.40380999984149,2.0,1.0,phase_1,,,,,,,,,,,,,cyan,diamond
412.0,4.0,4.0,0.0,3.0,3.0,274.0641729999424,2.0,1.0,phase_1,,,,,,,,,,,,,orange,cross
195.0,3.0,2.0,0.0,2.0,2.0,260.8759419999842,2.0,1.0,phase_1,,,,,,,,,,,,,yellow,flipped triangle
0.0,8.0,0.0,1.0,3.0,3.0,293.0430410001463,2.0,1.0,phase_1,,,,,,,,,,,,,blue,triangle
400.0,8.0,4.0,1.0,1.0,1.0,242.7556270001787,2.0,1.0,phase_1,,,,,,,,,,,,,blue,triangle
401.0,8.0,4.0,1.0,3.0,3.0,293.5059899998578,2.0,1.0,phase_1,,,,,,,,,,,,,blue,triangle
218.0,3.0,2.0,0.0,1.0,1.0,274.036383000066,2.0,1.0,phase_1,,,,,,,,,,,,,yellow,flipped triangle
219.0,3.0,2.0,0.0,3.0,3.0,274.9129420001281,2.0,1.0,phase_1,,,,,,,,,,,,,yellow,flipped triangle
83.0,6.0,1.0,1.0,1.0,1.0,337.3440220000248,2.0,1.0,phase_1,,,,,,,,,,,,,cyan,diamond
81.0,6.0,1.0,1.0,3.0,3.0,254.54646399998632,2.0,1.0,phase_1,,,,,,,,,,,,,cyan,diamond
0.0,5.0,0.0,1.0,4.0,4.0,297.9072939999696,2.0,1.0,phase_1,,,,,,,,,,,,,green,square
74.0,1.0,0.5,0.0,3.0,3.0,274.1524000000481,2.0,1.0,phase_1,,,,,,,,,,,,,white,I
0.0,8.0,0.0,1.0,3.0,3.0,262.3722250000355,2.0,1.0,phase_1,,,,,,,,,,,,,blue,triangle
390.0,8.0,4.0,1.0,2.0,2.0,373.1063220000123,2.0,1.0,phase_1,,,,,,,,,,,,,blue,triangle
185.0,7.0,2.0,1.0,3.0,3.0,271.4103850000811,2.0,1.0,phase_1,,,,,,,,,,,,,gray,hexagon
85.0,6.0,1.0,1.0,1.0,1.0,263.219878999962,3.0,1.0,phase_1,,,,,,,,,,,,,cyan,diamond
113.0,2.0,1.0,0.0,4.0,4.0,279.6365760000299,3.0,1.0,phase_1,,,,,,,,,,,,,magenta,circle
412.0,8.0,4.0,1.0,4.0,4.0,275.2142379999895,3.0,1.0,phase_1,,,,,,,,,,,,,blue,triangle
54.0,5.0,0.5,1.0,1.0,1.0,263.7892289999399,3.0,1.0,phase_1,,,,,,,,,,,,,green,square
0.0,6.0,0.0,1.0,4.0,4.0,229.935365999836,3.0,1.0,phase_1,,,,,,,,,,,,,cyan,diamond
193.0,3.0,2.0,0.0,3.0,3.0,294.823974999872,3.0,1.0,phase_1,,,,,,,,,,,,,yellow,flipped triangle
0.0,3.0,0.0,0.0,1.0,1.0,219.9006660000577,3.0,1.0,phase_1,,,,,,,,,,,,,yellow,flipped triangle
416.0,4.0,4.0,0.0,2.0,2.0,295.1644120000765,3.0,1.0,phase_1,,,,,,,,,,,,,orange,cross
49.0,1.0,0.5,0.0,3.0,3.0,280.2908300000126,3.0,1.0,phase_1,,,,,,,,,,,,,white,I
81.0,6.0,1.0,1.0,1.0,1.0,269.8065339998265,3.0,1.0,phase_1,,,,,,,,,,,,,cyan,diamond
73.0,1.0,0.5,0.0,3.0,3.0,234.6755330001997,3.0,1.0,phase_1,,,,,,,,,,,,,white,I
73.0,5.0,0.5,1.0,1.0,1.0,277.077441000074,3.0,1.0,phase_1,,,,,,,,,,,,,green,square
79.0,6.0,1.0,1.0,3.0,3.0,238.0531859998882,3.0,1.0,phase_1,,,,,,,,,,,,,cyan,diamond
193.0,7.0,2.0,1.0,1.0,1.0,283.8289970000005,3.0,1.0,phase_1,,,,,,,,,,,,,gray,hexagon
52.0,1.0,0.5,0.0,2.0,2.0,326.3466029998199,3.0,1.0,phase_1,,,,,,,,,,,,,white,I
187.0,3.0,2.0,0.0,4.0,4.0,303.3305169999494,3.0,1.0,phase_1,,,,,,,,,,,,,yellow,flipped triangle
109.0,6.0,1.0,1.0,1.0,1.0,252.7128809999794,3.0,1.0,phase_1,,,,,,,,,,,,,cyan,diamond
192.0,7.0,2.0,1.0,1.0,1.0,284.6023760000662,3.0,1.0,phase_1,,,,,,,,,,,,,gray,hexagon
48.0,1.0,0.5,0.0,1.0,1.0,249.5978219999415,3.0,1.0,phase_1,,,,,,,,,,,,,white,I
379.0,4.0,4.0,0.0,4.0,4.0,261.845194999978,3.0,1.0,phase_1,,,,,,,,,,,,,orange,cross
220.0,7.0,2.0,1.0,4.0,4.0,287.4539859999458,3.0,1.0,phase_1,,,,,,,,,,,,,gray,hexagon
75.0,6.0,1.0,1.0,2.0,2.0,284.4774759998927,3.0,1.0,phase_1,,,,,,,,,,,,,cyan,diamond
218.0,3.0,2.0,0.0,4.0,4.0,284.0730570001142,3.0,1.0,phase_1,,,,,,,,,,,,,yellow,flipped triangle
114.0,6.0,1.0,1.0,3.0,3.0,285.038416000134,3.0,1.0,phase_1,,,,,,,,,,,,,cyan,diamond
0.0,7.0,0.0,1.0,4.0,4.0,305.3322660000503,3.0,1.0,phase_1,,,,,,,,,,,,,gray,hexagon
72.0,5.0,0.5,1.0,4.0,4.0,269.56131299994007,3.0,1.0,phase_1,,,,,,,,,,,,,green,square
79.0,2.0,1.0,0.0,4.0,4.0,218.4084689999963,3.0,1.0,phase_1,,,,,,,,,,,,,magenta,circle
88.0,6.0,1.0,1.0,3.0,3.0,299.1111730000284,3.0,2.0,phase_1,,,,,,,,,,,,,cyan,diamond
0.0,4.0,0.0,0.0,2.0,2.0,305.5350020001697,3.0,1.0,phase_1,,,,,,,,,,,,,orange,cross
29.0,1.0,0.5,0.0,2.0,2.0,309.5873869997376,3.0,1.0,phase_1,,,,,,,,,,,,,white,I
0.0,3.0,0.0,0.0,4.0,4.0,299.0547160002279,3.0,1.0,phase_1,,,,,,,,,,,,,yellow,flipped triangle
34.0,1.0,0.5,0.0,4.0,4.0,238.469360000181,3.0,1.0,phase_1,,,,,,,,,,,,,white,I
124.0,6.0,1.0,1.0,4.0,4.0,302.7844739999636,3.0,1.0,phase_1,,,,,,,,,,,,,cyan,diamond
191.0,3.0,2.0,0.0,1.0,1.0,308.0722189997686,3.0,1.0,phase_1,,,,,,,,,,,,,yellow,flipped triangle
0.0,2.0,0.0,0.0,3.0,3.0,463.2802279998032,3.0,1.0,phase_1,,,,,,,,,,,,,magenta,circle
38.0,5.0,0.5,1.0,1.0,1.0,316.0286970000925,3.0,1.0,phase_1,,,,,,,,,,,,,green,square
0.0,5.0,0.0,1.0,1.0,1.0,275.3720360001352,3.0,1.0,phase_1,,,,,,,,,,,,,green,square
0.0,3.0,0.0,0.0,2.0,2.0,298.8542940001935,3.0,1.0,phase_1,,,,,,,,,,,,,yellow,flipped triangle
101.0,6.0,1.0,1.0,4.0,4.0,246.0789259998819,3.0,1.0,phase_1,,,,,,,,,,,,,cyan,diamond
95.0,6.0,1.0,1.0,1.0,1.0,236.577392000072,3.0,1.0,phase_1,,,,,,,,,,,,,cyan,diamond
396.0,4.0,4.0,0.0,1.0,1.0,324.4369839999308,3.0,1.0,phase_1,,,,,,,,,,,,,orange,cross
0.0,1.0,0.0,0.0,1.0,1.0,243.3968119999008,3.0,2.0,phase_1,,,,,,,,,,,,,white,I
41.0,1.0,0.5,0.0,4.0,4.0,321.3673300001574,3.0,1.0,phase_1,,,,,,,,,,,,,white,I
180.0,7.0,2.0,1.0,2.0,2.0,304.3523370001821,3.0,1.0,phase_1,,,,,,,,,,,,,gray,hexagon
200.0,7.0,2.0,1.0,4.0,4.0,287.6966329999959,3.0,1.0,phase_1,,,,,,,,,,,,,gray,hexagon
0.0,3.0,0.0,0.0,3.0,3.0,456.2657330002366,3.0,1.0,phase_1,,,,,,,,,,,,,yellow,flipped triangle
0.0,3.0,0.0,0.0,1.0,1.0,241.9108280000728,3.0,1.0,phase_1,,,,,,,,,,,,,yellow,flipped triangle
51.0,5.0,0.5,1.0,2.0,2.0,283.9955350000309,3.0,1.0,phase_1,,,,,,,,,,,,,green,square
0.0,8.0,0.0,1.0,4.0,4.0,275.4257889996552,3.0,1.0,phase_1,,,,,,,,,,,,,blue,triangle
81.0,2.0,1.0,0.0,2.0,2.0,251.86619699979929,3.0,1.0,phase_1,,,,,,,,,,,,,magenta,circle
412.0,8.0,4.0,1.0,3.0,3.0,351.9075070003055,3.0,1.0,phase_1,,,,,,,,,,,,,blue,triangle
212.0,3.0,2.0,0.0,3.0,3.0,321.3119929996537,3.0,1.0,phase_1,,,,,,,,,,,,,yellow,flipped triangle
35.0,5.0,0.5,1.0,2.0,2.0,348.855260000164,3.0,1.0,phase_1,,,,,,,,,,,,,green,square
49.0,1.0,0.5,0.0,3.0,3.0,284.76004899994217,3.0,1.0,phase_1,,,,,,,,,,,,,white,I
98.0,6.0,1.0,1.0,2.0,2.0,334.978391000277,3.0,1.0,phase_1,,,,,,,,,,,,,cyan,diamond
95.0,2.0,1.0,0.0,4.0,4.0,231.9354169999314,3.0,1.0,phase_1,,,,,,,,,,,,,magenta,circle
55.0,5.0,0.5,1.0,3.0,3.0,446.9232829997054,3.0,1.0,phase_1,,,,,,,,,,,,,green,square
76.0,6.0,1.0,1.0,1.0,1.0,243.2854240000779,3.0,1.0,phase_1,,,,,,,,,,,,,cyan,diamond
85.0,2.0,1.0,0.0,1.0,1.0,322.5254540002424,3.0,1.0,phase_1,,,,,,,,,,,,,magenta,circle
195.0,3.0,2.0,0.0,4.0,4.0,389.462636999724,3.0,1.0,phase_1,,,,,,,,,,,,,yellow,flipped triangle
421.0,8.0,4.0,1.0,1.0,1.0,306.0933880001357,3.0,1.0,phase_1,,,,,,,,,,,,,blue,triangle
35.0,1.0,0.5,0.0,1.0,1.0,421.0788899999897,3.0,1.0,phase_1,,,,,,,,,,,,,white,I
224.0,3.0,2.0,0.0,2.0,2.0,328.9932640000188,3.0,1.0,phase_1,,,,,,,,,,,,,yellow,flipped triangle
63.0,1.0,0.5,0.0,4.0,4.0,249.0499330001512,3.0,1.0,phase_1,,,,,,,,,,,,,white,I
81.0,2.0,1.0,0.0,3.0,3.0,289.1495720000421,3.0,1.0,phase_1,,,,,,,,,,,,,magenta,circle
37.0,5.0,0.5,1.0,2.0,2.0,288.6881819999871,3.0,1.0,phase_1,,,,,,,,,,,,,green,square
101.0,6.0,1.0,1.0,3.0,3.0,299.3552779998936,3.0,1.0,phase_1,,,,,,,,,,,,,cyan,diamond
402.0,8.0,4.0,1.0,2.0,2.0,246.8702009996377,3.0,1.0,phase_1,,,,,,,,,,,,,blue,triangle
110.0,2.0,1.0,0.0,3.0,3.0,279.4937699995898,3.0,1.0,phase_1,,,,,,,,,,,,,magenta,circle
0.0,6.0,0.0,1.0,1.0,1.0,272.2796319999361,3.0,1.0,phase_1,,,,,,,,,,,,,cyan,diamond
0.0,1.0,0.0,0.0,3.0,3.0,285.9649170000011,3.0,1.0,phase_1,,,,,,,,,,,,,white,I
101.0,2.0,1.0,0.0,3.0,3.0,258.8243679997504,3.0,1.0,phase_1,,,,,,,,,,,,,magenta,circle
0.0,4.0,0.0,0.0,2.0,2.0,279.6918140002162,3.0,1.0,phase_1,,,,,,,,,,,,,orange,cross
390.0,8.0,4.0,1.0,1.0,1.0,328.0391939997571,3.0,1.0,phase_1,,,,,,,,,,,,,blue,triangle
0.0,7.0,0.0,1.0,2.0,2.0,271.7643670002871,3.0,1.0,phase_1,,,,,,,,,,,,,gray,hexagon
405.0,8.0,4.0,1.0,1.0,1.0,254.83391600027971,3.0,1.0,phase_1,,,,,,,,,,,,,blue,triangle
421.0,4.0,4.0,0.0,1.0,1.0,316.3626000000477,3.0,1.0,phase_1,,,,,,,,,,,,,orange,cross
377.0,4.0,4.0,0.0,3.0,3.0,292.6075949999358,3.0,1.0,phase_1,,,,,,,,,,,,,orange,cross
51.0,1.0,0.5,0.0,4.0,4.0,300.6785840002521,3.0,1.0,phase_1,,,,,,,,,,,,,white,I
196.0,3.0,2.0,0.0,4.0,4.0,299.6894259999862,3.0,1.0,phase_1,,,,,,,,,,,,,yellow,flipped triangle
389.0,4.0,4.0,0.0,2.0,2.0,281.3137880002614,3.0,1.0,phase_1,,,,,,,,,,,,,orange,cross
0.0,1.0,0.0,0.0,2.0,2.0,298.0101939997439,3.0,1.0,phase_1,,,,,,,,,,,,,white,I
0.0,8.0,0.0,1.0,3.0,3.0,293.0430989999877,3.0,1.0,phase_1,,,,,,,,,,,,,blue,triangle
190.0,7.0,2.0,1.0,2.0,2.0,297.94541199999,3.0,1.0,phase_1,,,,,,,,,,,,,gray,hexagon
42.0,1.0,0.5,0.0,4.0,4.0,300.6333959997391,3.0,1.0,phase_1,,,,,,,,,,,,,white,I
114.0,6.0,1.0,1.0,4.0,4.0,334.7013380002863,3.0,1.0,phase_1,,,,,,,,,,,,,cyan,diamond
125.0,6.0,1.0,1.0,3.0,3.0,293.8693839996631,3.0,1.0,phase_1,,,,,,,,,,,,,cyan,diamond
0.0,1.0,0.0,0.0,3.0,3.0,295.8971920002113,3.0,1.0,phase_1,,,,,,,,,,,,,white,I
0.0,4.0,0.0,0.0,4.0,4.0,306.0187350001797,3.0,1.0,phase_1,,,,,,,,,,,,,orange,cross
208.0,3.0,2.0,0.0,3.0,3.0,267.2484180002357,3.0,1.0,phase_1,,,,,,,,,,,,,yellow,flipped triangle
0.0,7.0,0.0,1.0,3.0,3.0,296.4743679999628,3.0,1.0,phase_1,,,,,,,,,,,,,gray,hexagon
60.0,1.0,0.5,0.0,1.0,1.0,332.9541260000042,3.0,2.0,phase_1,,,,,,,,,,,,,white,I
200.0,3.0,2.0,0.0,2.0,2.0,297.2158329998819,3.0,1.0,phase_1,,,,,,,,,,,,,yellow,flipped triangle
41.0,5.0,0.5,1.0,3.0,3.0,265.2213619999202,3.0,1.0,phase_1,,,,,,,,,,,,,green,square
402.0,4.0,4.0,0.0,2.0,2.0,272.0101710001472,3.0,1.0,phase_1,,,,,,,,,,,,,orange,cross
203.0,3.0,2.0,0.0,3.0,3.0,274.1134679999959,3.0,1.0,phase_1,,,,,,,,,,,,,yellow,flipped triangle
103.0,6.0,1.0,1.0,1.0,1.0,261.980585999936,3.0,1.0,phase_1,,,,,,,,,,,,,cyan,diamond
109.0,2.0,1.0,0.0,2.0,2.0,269.3228170001021,3.0,2.0,phase_1,,,,,,,,,,,,,magenta,circle
75.0,1.0,0.5,0.0,2.0,2.0,303.7135470003704,3.0,1.0,phase_1,,,,,,,,,,,,,white,I
0.0,1.0,0.0,0.0,1.0,1.0,280.5747540000993,3.0,1.0,phase_1,,,,,,,,,,,,,white,I
83.0,2.0,1.0,0.0,4.0,4.0,324.3097159997887,4.0,1.0,phase_1,,,,,,,,,,,,,magenta,circle
383.0,8.0,4.0,1.0,1.0,1.0,255.827305999901,4.0,1.0,phase_1,,,,,,,,,,,,,blue,triangle
29.0,5.0,0.5,1.0,4.0,4.0,286.8346119998932,4.0,1.0,phase_1,,,,,,,,,,,,,green,square
183.0,7.0,2.0,1.0,2.0,2.0,324.7527570001693,4.0,1.0,phase_1,,,,,,,,,,,,,gray,hexagon
187.0,3.0,2.0,0.0,3.0,3.0,280.9676209999452,4.0,1.0,phase_1,,,,,,,,,,,,,yellow,flipped triangle
415.0,4.0,4.0,0.0,4.0,4.0,298.9007940000192,4.0,1.0,phase_1,,,,,,,,,,,,,orange,cross
413.0,8.0,4.0,1.0,1.0,1.0,277.2670160002235,4.0,1.0,phase_1,,,,,,,,,,,,,blue,triangle
393.0,4.0,4.0,0.0,2.0,2.0,240.9108329998162,4.0,1.0,phase_1,,,,,,,,,,,,,orange,cross
219.0,7.0,2.0,1.0,1.0,1.0,286.7996370000583,4.0,1.0,phase_1,,,,,,,,,,,,,gray,hexagon
201.0,7.0,2.0,1.0,4.0,4.0,258.6681469997529,4.0,1.0,phase_1,,,,,,,,,,,,,gray,hexagon
0.0,6.0,0.0,1.0,2.0,2.0,253.75603100019362,4.0,1.0,phase_1,,,,,,,,,,,,,cyan,diamond
0.0,7.0,0.0,1.0,4.0,4.0,274.9264630001562,4.0,1.0,phase_1,,,,,,,,,,,,,gray,hexagon
217.0,7.0,2.0,1.0,2.0,2.0,256.5098099998977,4.0,1.0,phase_1,,,,,,,,,,,,,gray,hexagon
85.0,2.0,1.0,0.0,2.0,2.0,262.2148679997735,4.0,1.0,phase_1,,,,,,,,,,,,,magenta,circle
52.0,5.0,0.5,1.0,2.0,2.0,235.9553310002411,4.0,1.0,phase_1,,,,,,,,,,,,,green,square
0.0,3.0,0.0,0.0,2.0,2.0,276.8463899997186,4.0,1.0,phase_1,,,,,,,,,,,,,yellow,flipped triangle
219.0,7.0,2.0,1.0,4.0,4.0,345.8517539997956,4.0,1.0,phase_1,,,,,,,,,,,,,gray,hexagon
0.0,2.0,0.0,0.0,4.0,4.0,329.383818000224,4.0,1.0,phase_1,,,,,,,,,,,,,magenta,circle
0.0,6.0,0.0,1.0,3.0,3.0,336.6958669998894,4.0,1.0,phase_1,,,,,,,,,,,,,cyan,diamond
392.0,8.0,4.0,1.0,3.0,3.0,284.8636059998171,4.0,1.0,phase_1,,,,,,,,,,,,,blue,triangle
0.0,3.0,0.0,0.0,4.0,4.0,308.5345099998449,4.0,1.0,phase_1,,,,,,,,,,,,,yellow,flipped triangle
60.0,5.0,0.5,1.0,2.0,2.0,255.4092069999569,4.0,1.0,phase_1,,,,,,,,,,,,,green,square
0.0,2.0,0.0,0.0,3.0,3.0,276.5425409997988,4.0,1.0,phase_1,,,,,,,,,,,,,magenta,circle
411.0,8.0,4.0,1.0,2.0,2.0,263.2472380000763,4.0,1.0,phase_1,,,,,,,,,,,,,blue,triangle
178.0,7.0,2.0,1.0,1.0,1.0,329.6587310001087,4.0,1.0,phase_1,,,,,,,,,,,,,gray,hexagon
185.0,3.0,2.0,0.0,1.0,1.0,331.3511880000988,4.0,1.0,phase_1,,,,,,,,,,,,,yellow,flipped triangle
68.0,1.0,0.5,0.0,1.0,1.0,324.5123570000032,4.0,1.0,phase_1,,,,,,,,,,,,,white,I
187.0,7.0,2.0,1.0,4.0,4.0,354.0927599997303,4.0,1.0,phase_1,,,,,,,,,,,,,gray,hexagon
92.0,6.0,1.0,1.0,1.0,1.0,398.8534900004197,4.0,1.0,phase_1,,,,,,,,,,,,,cyan,diamond
211.0,7.0,2.0,1.0,2.0,2.0,299.3890960001408,4.0,1.0,phase_1,,,,,,,,,,,,,gray,hexagon
111.0,6.0,1.0,1.0,4.0,4.0,321.1650140001438,4.0,1.0,phase_1,,,,,,,,,,,,,cyan,diamond
176.0,7.0,2.0,1.0,3.0,3.0,314.9570149998908,4.0,1.0,phase_1,,,,,,,,,,,,,gray,hexagon
390.0,4.0,4.0,0.0,1.0,1.0,248.7481969997134,4.0,1.0,phase_1,,,,,,,,,,,,,orange,cross
43.0,5.0,0.5,1.0,3.0,3.0,281.1179400000583,4.0,1.0,phase_1,,,,,,,,,,,,,green,square
185.0,3.0,2.0,0.0,2.0,2.0,275.0252160003583,4.0,1.0,phase_1,,,,,,,,,,,,,yellow,flipped triangle
123.0,6.0,1.0,1.0,1.0,1.0,288.7765949999448,4.0,1.0,phase_1,,,,,,,,,,,,,cyan,diamond
0.0,6.0,0.0,1.0,3.0,3.0,320.7607379999899,4.0,1.0,phase_1,,,,,,,,,,,,,cyan,diamond
194.0,3.0,2.0,0.0,2.0,2.0,317.2063440001693,4.0,1.0,phase_1,,,,,,,,,,,,,yellow,flipped triangle
120.0,2.0,1.0,0.0,2.0,2.0,273.8554790003036,4.0,1.0,phase_1,,,,,,,,,,,,,magenta,circle
40.0,5.0,0.5,1.0,1.0,1.0,299.6362799999588,4.0,1.0,phase_1,,,,,,,,,,,,,green,square
391.0,8.0,4.0,1.0,3.0,3.0,285.637202000089,4.0,1.0,phase_1,,,,,,,,,,,,,blue,triangle
192.0,3.0,2.0,0.0,1.0,1.0,294.1921269998602,4.0,1.0,phase_1,,,,,,,,,,,,,yellow,flipped triangle
195.0,7.0,2.0,1.0,1.0,1.0,300.0974110000243,4.0,1.0,phase_1,,,,,,,,,,,,,gray,hexagon
55.0,1.0,0.5,0.0,1.0,1.0,276.1166800000865,4.0,1.0,phase_1,,,,,,,,,,,,,white,I
406.0,8.0,4.0,1.0,3.0,3.0,327.2984469999755,4.0,1.0,phase_1,,,,,,,,,,,,,blue,triangle
420.0,8.0,4.0,1.0,4.0,4.0,288.1512570002087,4.0,1.0,phase_1,,,,,,,,,,,,,blue,triangle
63.0,5.0,0.5,1.0,4.0,4.0,347.7887930002907,4.0,1.0,phase_1,,,,,,,,,,,,,green,square
75.0,5.0,0.5,1.0,3.0,3.0,281.8888070000866,4.0,1.0,phase_1,,,,,,,,,,,,,green,square
395.0,4.0,4.0,0.0,2.0,2.0,249.454230000083,4.0,1.0,phase_1,,,,,,,,,,,,,orange,cross
219.0,3.0,2.0,0.0,2.0,2.0,309.2231040000115,4.0,1.0,phase_1,,,,,,,,,,,,,yellow,flipped triangle
384.0,8.0,4.0,1.0,4.0,4.0,320.8611860000019,4.0,1.0,phase_1,,,,,,,,,,,,,blue,triangle
218.0,7.0,2.0,1.0,1.0,1.0,250.9092330001294,4.0,1.0,phase_1,,,,,,,,,,,,,gray,hexagon
397.0,4.0,4.0,0.0,1.0,1.0,263.4117349998632,4.0,1.0,phase_1,,,,,,,,,,,,,orange,cross
123.0,2.0,1.0,0.0,2.0,2.0,298.0227910002213,4.0,1.0,phase_1,,,,,,,,,,,,,magenta,circle
41.0,5.0,0.5,1.0,4.0,4.0,282.4504430000161,4.0,1.0,phase_1,,,,,,,,,,,,,green,square
0.0,1.0,0.0,0.0,4.0,4.0,298.8550889999715,4.0,1.0,phase_1,,,,,,,,,,,,,white,I
379.0,8.0,4.0,1.0,2.0,2.0,299.870071999976,4.0,1.0,phase_1,,,,,,,,,,,,,blue,triangle
85.0,6.0,1.0,1.0,3.0,3.0,291.9456929998887,4.0,1.0,phase_1,,,,,,,,,,,,,cyan,diamond
42.0,5.0,0.5,1.0,1.0,1.0,257.8297980003299,4.0,1.0,phase_1,,,,,,,,,,,,,green,square
0.0,2.0,0.0,0.0,4.0,4.0,296.6342680001617,4.0,1.0,phase_1,,,,,,,,,,,,,magenta,circle
397.0,4.0,4.0,0.0,1.0,1.0,378.9881080001578,4.0,1.0,phase_1,,,,,,,,,,,,,orange,cross
49.0,5.0,0.5,1.0,3.0,3.0,333.8312709997808,4.0,1.0,phase_1,,,,,,,,,,,,,green,square
406.0,4.0,4.0,0.0,3.0,3.0,307.4654899996858,4.0,1.0,phase_1,,,,,,,,,,,,,orange,cross
72.0,1.0,0.5,0.0,2.0,2.0,253.1258320000233,4.0,1.0,phase_1,,,,,,,,,,,,,white,I
190.0,3.0,2.0,0.0,4.0,4.0,263.5350489999837,4.0,1.0,phase_1,,,,,,,,,,,,,yellow,flipped triangle
111.0,2.0,1.0,0.0,3.0,3.0,274.940704999608,4.0,1.0,phase_1,,,,,,,,,,,,,magenta,circle
117.0,2.0,1.0,0.0,2.0,2.0,272.8922409996812,4.0,1.0,phase_1,,,,,,,,,,,,,magenta,circle
175.0,3.0,2.0,0.0,4.0,4.0,274.2460770000434,4.0,1.0,phase_1,,,,,,,,,,,,,yellow,flipped triangle
125.0,2.0,1.0,0.0,2.0,2.0,307.0425299997623,4.0,1.0,phase_1,,,,,,,,,,,,,magenta,circle
48.0,1.0,0.5,0.0,4.0,4.0,280.3918249996968,4.0,1.0,phase_1,,,,,,,,,,,,,white,I
0.0,5.0,0.0,1.0,3.0,3.0,290.3091499997572,4.0,1.0,phase_1,,,,,,,,,,,,,green,square
66.0,5.0,0.5,1.0,1.0,1.0,289.6867819999897,4.0,1.0,phase_1,,,,,,,,,,,,,green,square
412.0,4.0,4.0,0.0,4.0,4.0,257.440618000146,4.0,1.0,phase_1,,,,,,,,,,,,,orange,cross
191.0,3.0,2.0,0.0,1.0,1.0,296.4127200002622,4.0,1.0,phase_1,,,,,,,,,,,,,yellow,flipped triangle
380.0,4.0,4.0,0.0,3.0,3.0,258.3444189999682,4.0,1.0,phase_1,,,,,,,,,,,,,orange,cross
191.0,7.0,2.0,1.0,3.0,3.0,292.2931940001945,4.0,1.0,phase_1,,,,,,,,,,,,,gray,hexagon
395.0,8.0,4.0,1.0,2.0,2.0,316.7120070002056,4.0,1.0,phase_1,,,,,,,,,,,,,blue,triangle
116.0,6.0,1.0,1.0,2.0,2.0,311.1880110000129,4.0,1.0,phase_1,,,,,,,,,,,,,cyan,diamond
0.0,5.0,0.0,1.0,4.0,4.0,252.7488040000207,4.0,1.0,phase_1,,,,,,,,,,,,,green,square
415.0,8.0,4.0,1.0,3.0,3.0,281.2621779999062,4.0,1.0,phase_1,,,,,,,,,,,,,blue,triangle
0.0,5.0,0.0,1.0,3.0,3.0,296.9999580000149,4.0,1.0,phase_1,,,,,,,,,,,,,green,square
192.0,3.0,2.0,0.0,2.0,2.0,306.022928999937,4.0,1.0,phase_1,,,,,,,,,,,,,yellow,flipped triangle
118.0,2.0,1.0,0.0,4.0,4.0,295.1411690000896,4.0,1.0,phase_1,,,,,,,,,,,,,magenta,circle
0.0,5.0,0.0,1.0,3.0,3.0,278.0837770001199,4.0,1.0,phase_1,,,,,,,,,,,,,green,square
180.0,7.0,2.0,1.0,3.0,3.0,319.4434609999916,4.0,1.0,phase_1,,,,,,,,,,,,,gray,hexagon
211.0,3.0,2.0,0.0,1.0,1.0,295.6717960000787,4.0,1.0,phase_1,,,,,,,,,,,,,yellow,flipped triangle
121.0,2.0,1.0,0.0,4.0,4.0,261.4462740002636,4.0,1.0,phase_1,,,,,,,,,,,,,magenta,circle
379.0,8.0,4.0,1.0,4.0,4.0,263.7397360003888,4.0,1.0,phase_1,,,,,,,,,,,,,blue,triangle
92.0,2.0,1.0,0.0,1.0,1.0,299.0297629999077,4.0,1.0,phase_1,,,,,,,,,,,,,magenta,circle
212.0,7.0,2.0,1.0,3.0,3.0,296.0542229998282,4.0,1.0,phase_1,,,,,,,,,,,,,gray,hexagon
0.0,4.0,0.0,0.0,4.0,4.0,265.9146259998124,4.0,1.0,phase_1,,,,,,,,,,,,,orange,cross
392.0,4.0,4.0,0.0,3.0,3.0,262.8364429997418,4.0,1.0,phase_1,,,,,,,,,,,,,orange,cross
66.0,1.0,0.5,0.0,3.0,3.0,280.1622179999867,4.0,1.0,phase_1,,,,,,,,,,,,,white,I
209.0,7.0,2.0,1.0,2.0,2.0,290.5698530003064,4.0,1.0,phase_1,,,,,,,,,,,,,gray,hexagon
104.0,6.0,1.0,1.0,2.0,2.0,328.9999280000302,4.0,1.0,phase_1,,,,,,,,,,,,,cyan,diamond
0.0,5.0,0.0,1.0,1.0,1.0,269.9166649999824,4.0,2.0,phase_1,,,,,,,,,,,,,green,square
104.0,2.0,1.0,0.0,1.0,1.0,296.9583340000099,4.0,1.0,phase_1,,,,,,,,,,,,,magenta,circle
397.0,8.0,4.0,1.0,4.0,4.0,275.6641949999903,4.0,1.0,phase_1,,,,,,,,,,,,,blue,triangle
180.0,3.0,2.0,0.0,1.0,1.0,324.2572479998671,4.0,1.0,phase_1,,,,,,,,,,,,,yellow,flipped triangle
98.0,2.0,1.0,0.0,3.0,3.0,291.2643179997758,4.0,1.0,phase_1,,,,,,,,,,,,,magenta,circle
0.0,7.0,2.0,1.0,5.0,0.0,0.0,1.0,1.0,phase_2,stop,250.0,250.0,4.0,,,,,,,,,gray,hexagon
0.0,6.0,1.0,1.0,5.0,5.0,393.5256049999225,1.0,1.0,phase_2,stop,300.0,250.0,3.0,,,,,,,,,cyan,diamond
0.0,4.0,4.0,0.0,5.0,5.0,570.3181969997786,1.0,1.0,phase_2,go,250.0,250.0,1.0,,,,,,,,,orange,cross
0.0,4.0,4.0,0.0,6.0,6.0,262.5607620002483,1.0,1.0,phase_2,go,250.0,250.0,1.0,,,,,,,,,orange,cross
0.0,8.0,4.0,1.0,5.0,5.0,313.0795459996989,1.0,1.0,phase_2,stop,250.0,250.0,3.0,,,,,,,,,blue,triangle
0.0,2.0,1.0,0.0,5.0,5.0,515.4018739999628,1.0,1.0,phase_2,go,200.0,250.0,1.0,,,,,,,,,magenta,circle
0.0,7.0,2.0,1.0,6.0,0.0,0.0,1.0,1.0,phase_2,stop,200.0,250.0,4.0,,,,,,,,,gray,hexagon
0.0,8.0,4.0,1.0,6.0,6.0,485.9177389998876,1.0,1.0,phase_2,stop,200.0,300.0,3.0,,,,,,,,,blue,triangle
0.0,8.0,4.0,1.0,5.0,5.0,589.5485900000494,1.0,1.0,phase_2,go,200.0,250.0,1.0,,,,,,,,,blue,triangle
0.0,5.0,0.5,1.0,5.0,0.0,0.0,1.0,1.0,phase_2,stop,200.0,250.0,4.0,,,,,,,,,green,square
0.0,7.0,2.0,1.0,5.0,0.0,0.0,1.0,1.0,phase_2,stop,250.0,250.0,4.0,,,,,,,,,gray,hexagon
0.0,2.0,1.0,0.0,6.0,6.0,507.8436399999191,1.0,1.0,phase_2,go,300.0,250.0,1.0,,,,,,,,,magenta,circle
0.0,3.0,2.0,0.0,5.0,5.0,621.9680369999878,1.0,1.0,phase_2,go,300.0,250.0,1.0,,,,,,,,,yellow,flipped triangle
0.0,5.0,0.5,1.0,5.0,0.0,0.0,1.0,1.0,phase_2,stop,300.0,250.0,4.0,,,,,,,,,green,square
0.0,3.0,2.0,0.0,5.0,5.0,591.3745060001929,1.0,1.0,phase_2,go,350.0,250.0,1.0,,,,,,,,,yellow,flipped triangle
0.0,8.0,4.0,1.0,5.0,0.0,0.0,1.0,1.0,phase_2,stop,350.0,250.0,4.0,,,,,,,,,blue,triangle
0.0,2.0,1.0,0.0,5.0,5.0,589.1605990000244,1.0,1.0,phase_2,go,400.0,250.0,1.0,,,,,,,,,magenta,circle
0.0,2.0,1.0,0.0,6.0,6.0,289.9070240000583,1.0,1.0,phase_2,go,400.0,250.0,1.0,,,,,,,,,magenta,circle
0.0,7.0,2.0,1.0,5.0,0.0,0.0,1.0,1.0,phase_2,stop,400.0,250.0,4.0,,,,,,,,,gray,hexagon
0.0,4.0,4.0,0.0,6.0,6.0,575.1362500000141,1.0,1.0,phase_2,go,450.0,250.0,1.0,,,,,,,,,orange,cross
0.0,4.0,4.0,0.0,5.0,5.0,660.0374340000599,1.0,1.0,phase_2,go,450.0,250.0,1.0,,,,,,,,,orange,cross
0.0,1.0,0.5,0.0,5.0,5.0,623.7985580000895,1.0,1.0,phase_2,go,450.0,250.0,1.0,,,,,,,,,white,I
0.0,2.0,1.0,0.0,6.0,6.0,750.7176849999269,1.0,1.0,phase_2,go,450.0,250.0,1.0,,,,,,,,,magenta,circle
0.0,6.0,1.0,1.0,5.0,0.0,0.0,1.0,1.0,phase_2,stop,450.0,250.0,4.0,,,,,,,,,cyan,diamond
0.0,5.0,0.5,1.0,6.0,0.0,0.0,1.0,1.0,phase_2,stop,500.0,250.0,4.0,,,,,,,,,green,square
0.0,3.0,2.0,0.0,5.0,5.0,499.2512640001223,1.0,1.0,phase_2,go,500.0,300.0,1.0,,,,,,,,,yellow,flipped triangle
0.0,8.0,4.0,1.0,6.0,0.0,0.0,1.0,1.0,phase_2,stop,500.0,300.0,4.0,,,,,,,,,blue,triangle
0.0,5.0,0.5,1.0,5.0,5.0,454.4113490001109,1.0,1.0,phase_2,stop,500.0,350.0,3.0,,,,,,,,,green,square
0.0,2.0,1.0,0.0,6.0,6.0,629.5603469998241,1.0,1.0,phase_2,go,450.0,350.0,1.0,,,,,,,,,magenta,circle
0.0,8.0,4.0,1.0,5.0,5.0,808.3503419998124,1.0,1.0,phase_2,go,450.0,350.0,1.0,,,,,,,,,blue,triangle
0.0,1.0,0.5,0.0,5.0,5.0,583.335586999965,1.0,1.0,phase_2,go,450.0,350.0,1.0,,,,,,,,,white,I
0.0,2.0,1.0,0.0,6.0,6.0,764.4609809999565,1.0,1.0,phase_2,go,450.0,350.0,1.0,,,,,,,,,magenta,circle
0.0,8.0,4.0,1.0,5.0,5.0,564.1630230002193,1.0,1.0,phase_2,stop,450.0,350.0,3.0,,,,,,,,,blue,triangle
0.0,4.0,4.0,0.0,6.0,6.0,679.3835729999955,1.0,1.0,phase_2,go,400.0,350.0,1.0,,,,,,,,,orange,cross
0.0,2.0,1.0,0.0,5.0,5.0,744.9889119998261,1.0,1.0,phase_2,go,400.0,350.0,1.0,,,,,,,,,magenta,circle
0.0,4.0,4.0,0.0,6.0,6.0,870.306704000086,1.0,1.0,phase_2,go,400.0,350.0,1.0,,,,,,,,,orange,cross
0.0,6.0,1.0,1.0,6.0,6.0,377.6811150000867,2.0,1.0,phase_2,go,400.0,350.0,1.0,,,,,,,,,cyan,diamond
0.0,3.0,2.0,0.0,5.0,5.0,324.505992000013,2.0,1.0,phase_2,go,400.0,350.0,1.0,,,,,,,,,yellow,flipped triangle
0.0,5.0,0.5,1.0,6.0,0.0,0.0,2.0,1.0,phase_2,stop,400.0,350.0,4.0,,,,,,,,,green,square
0.0,3.0,2.0,0.0,6.0,6.0,351.0685739997825,2.0,1.0,phase_2,go,400.0,400.0,1.0,,,,,,,,,yellow,flipped triangle
0.0,8.0,4.0,1.0,6.0,6.0,732.084076999854,2.0,1.0,phase_2,go,400.0,400.0,1.0,,,,,,,,,blue,triangle
0.0,3.0,2.0,0.0,5.0,5.0,473.9640930001769,2.0,1.0,phase_2,go,400.0,400.0,1.0,,,,,,,,,yellow,flipped triangle
0.0,2.0,1.0,0.0,6.0,6.0,442.8522330003943,2.0,1.0,phase_2,go,400.0,400.0,1.0,,,,,,,,,magenta,circle
0.0,6.0,1.0,1.0,6.0,0.0,0.0,2.0,1.0,phase_2,stop,400.0,400.0,4.0,,,,,,,,,cyan,diamond
0.0,3.0,2.0,0.0,6.0,6.0,610.2294449997316,2.0,1.0,phase_2,go,400.0,450.0,1.0,,,,,,,,,yellow,flipped triangle
0.0,1.0,0.5,0.0,6.0,6.0,754.8912030001702,2.0,1.0,phase_2,go,400.0,450.0,1.0,,,,,,,,,white,I
0.0,7.0,2.0,1.0,5.0,0.0,0.0,2.0,1.0,phase_2,stop,400.0,450.0,4.0,,,,,,,,,gray,hexagon
0.0,2.0,1.0,0.0,6.0,6.0,624.2171039998539,2.0,1.0,phase_2,go,450.0,450.0,1.0,,,,,,,,,magenta,circle
0.0,1.0,0.5,0.0,5.0,5.0,725.327297000149,2.0,1.0,phase_2,go,450.0,450.0,1.0,,,,,,,,,white,I
0.0,1.0,0.5,0.0,5.0,5.0,776.5416530000948,2.0,1.0,phase_2,go,450.0,450.0,1.0,,,,,,,,,white,I
0.0,4.0,4.0,0.0,5.0,5.0,804.8479000003681,2.0,1.0,phase_2,go,450.0,450.0,1.0,,,,,,,,,orange,cross
0.0,6.0,1.0,1.0,6.0,0.0,0.0,2.0,1.0,phase_2,stop,450.0,450.0,4.0,,,,,,,,,cyan,diamond
0.0,7.0,2.0,1.0,6.0,0.0,0.0,2.0,1.0,phase_2,stop,450.0,500.0,4.0,,,,,,,,,gray,hexagon
0.0,3.0,2.0,0.0,6.0,6.0,739.2796969998017,2.0,1.0,phase_2,go,450.0,550.0,1.0,,,,,,,,,yellow,flipped triangle
0.0,7.0,2.0,1.0,6.0,6.0,626.0520939999878,2.0,1.0,phase_2,go,450.0,550.0,1.0,,,,,,,,,gray,hexagon
0.0,2.0,1.0,0.0,5.0,5.0,958.9944740000648,2.0,1.0,phase_2,go,450.0,550.0,1.0,,,,,,,,,magenta,circle
0.0,7.0,2.0,1.0,5.0,0.0,0.0,2.0,1.0,phase_2,stop,450.0,550.0,4.0,,,,,,,,,gray,hexagon
0.0,6.0,1.0,1.0,5.0,0.0,0.0,2.0,1.0,phase_2,stop,500.0,550.0,4.0,,,,,,,,,cyan,diamond
0.0,6.0,1.0,1.0,6.0,6.0,509.71926299962433,2.0,1.0,phase_2,go,550.0,550.0,1.0,,,,,,,,,cyan,diamond
0.0,8.0,4.0,1.0,6.0,0.0,0.0,2.0,1.0,phase_2,stop,550.0,550.0,4.0,,,,,,,,,blue,triangle
0.0,3.0,2.0,0.0,5.0,5.0,946.827822999694,2.0,1.0,phase_2,go,550.0,600.0,1.0,,,,,,,,,yellow,flipped triangle
0.0,7.0,2.0,1.0,6.0,6.0,790.7409860004009,2.0,1.0,phase_2,go,550.0,600.0,1.0,,,,,,,,,gray,hexagon
0.0,1.0,0.5,0.0,6.0,6.0,756.4746339999147,2.0,1.0,phase_2,go,550.0,600.0,1.0,,,,,,,,,white,I
0.0,2.0,1.0,0.0,5.0,5.0,631.0856489999424,2.0,1.0,phase_2,go,550.0,600.0,1.0,,,,,,,,,magenta,circle
0.0,8.0,4.0,1.0,6.0,0.0,0.0,2.0,1.0,phase_2,stop,550.0,600.0,4.0,,,,,,,,,blue,triangle
0.0,5.0,0.5,1.0,5.0,0.0,0.0,2.0,1.0,phase_2,stop,550.0,650.0,4.0,,,,,,,,,green,square
0.0,2.0,1.0,0.0,6.0,6.0,943.1494999998904,2.0,1.0,phase_2,go,600.0,650.0,1.0,,,,,,,,,magenta,circle
0.0,4.0,4.0,0.0,5.0,5.0,766.4950250000402,2.0,1.0,phase_2,go,600.0,650.0,1.0,,,,,,,,,orange,cross
0.0,7.0,2.0,1.0,5.0,0.0,0.0,2.0,1.0,phase_2,stop,600.0,650.0,4.0,,,,,,,,,gray,hexagon
0.0,1.0,0.5,0.0,6.0,6.0,816.7951370000992,2.0,1.0,phase_2,go,650.0,650.0,1.0,,,,,,,,,white,I
0.0,3.0,2.0,0.0,5.0,5.0,248.3813970002302,2.0,1.0,phase_2,go,650.0,650.0,1.0,,,,,,,,,yellow,flipped triangle
0.0,6.0,1.0,1.0,5.0,0.0,0.0,2.0,1.0,phase_2,stop,650.0,650.0,4.0,,,,,,,,,cyan,diamond
0.0,3.0,2.0,0.0,5.0,5.0,458.4993299999951,3.0,1.0,phase_2,go,700.0,650.0,1.0,,,,,,,,,yellow,flipped triangle
0.0,6.0,1.0,1.0,6.0,6.0,371.6619259998879,3.0,1.0,phase_2,stop,700.0,650.0,3.0,,,,,,,,,cyan,diamond
0.0,2.0,1.0,0.0,5.0,5.0,325.800726000125,3.0,1.0,phase_2,go,700.0,600.0,1.0,,,,,,,,,magenta,circle
0.0,5.0,0.5,1.0,5.0,5.0,341.6071060000831,3.0,1.0,phase_2,stop,700.0,600.0,3.0,,,,,,,,,green,square
0.0,6.0,1.0,1.0,6.0,6.0,231.0755420003261,3.0,1.0,phase_2,stop,650.0,600.0,3.0,,,,,,,,,cyan,diamond
0.0,7.0,2.0,1.0,5.0,5.0,551.6461490001348,3.0,1.0,phase_2,stop,650.0,550.0,3.0,,,,,,,,,gray,hexagon
0.0,3.0,2.0,0.0,5.0,5.0,731.8730420001884,3.0,1.0,phase_2,go,600.0,550.0,1.0,,,,,,,,,yellow,flipped triangle
0.0,5.0,0.5,1.0,6.0,6.0,219.0094809998299,3.0,1.0,phase_2,stop,600.0,550.0,3.0,,,,,,,,,green,square
0.0,5.0,0.5,1.0,6.0,6.0,295.5486220002967,3.0,1.0,phase_2,stop,600.0,500.0,3.0,,,,,,,,,green,square
0.0,5.0,0.5,1.0,5.0,5.0,656.5007969998078,3.0,1.0,phase_2,stop,600.0,450.0,3.0,,,,,,,,,green,square
0.0,1.0,0.5,0.0,5.0,5.0,762.2301230003359,3.0,1.0,phase_2,go,550.0,450.0,1.0,,,,,,,,,white,I
0.0,6.0,1.0,1.0,6.0,6.0,296.4462639997691,3.0,1.0,phase_2,go,550.0,450.0,1.0,,,,,,,,,cyan,diamond
0.0,6.0,1.0,1.0,6.0,6.0,347.9144900002211,3.0,1.0,phase_2,stop,550.0,450.0,3.0,,,,,,,,,cyan,diamond
0.0,1.0,0.5,0.0,6.0,6.0,574.5192459999089,3.0,1.0,phase_2,go,550.0,400.0,1.0,,,,,,,,,white,I
0.0,2.0,1.0,0.0,5.0,5.0,440.5858280001666,3.0,1.0,phase_2,go,550.0,400.0,1.0,,,,,,,,,magenta,circle
0.0,6.0,1.0,1.0,6.0,6.0,514.623217999997,3.0,1.0,phase_2,go,550.0,400.0,1.0,,,,,,,,,cyan,diamond
0.0,2.0,1.0,0.0,5.0,5.0,222.6201660000697,3.0,1.0,phase_2,go,550.0,400.0,1.0,,,,,,,,,magenta,circle
0.0,3.0,2.0,0.0,5.0,5.0,296.4313420002327,3.0,1.0,phase_2,go,550.0,400.0,1.0,,,,,,,,,yellow,flipped triangle
0.0,3.0,2.0,0.0,6.0,6.0,251.2780299998667,3.0,1.0,phase_2,go,550.0,400.0,1.0,,,,,,,,,yellow,flipped triangle
0.0,1.0,0.5,0.0,6.0,6.0,301.3910800000303,3.0,1.0,phase_2,go,550.0,400.0,1.0,,,,,,,,,white,I
0.0,5.0,0.5,1.0,5.0,5.0,242.2723519998726,3.0,1.0,phase_2,stop,550.0,400.0,3.0,,,,,,,,,green,square
0.0,7.0,2.0,1.0,6.0,6.0,229.5819209998626,3.0,1.0,phase_2,stop,500.0,400.0,3.0,,,,,,,,,gray,hexagon
0.0,4.0,4.0,0.0,5.0,5.0,718.6638709999897,3.0,1.0,phase_2,go,500.0,350.0,1.0,,,,,,,,,orange,cross
0.0,5.0,0.5,1.0,5.0,5.0,281.1700030001702,3.0,1.0,phase_2,stop,500.0,350.0,3.0,,,,,,,,,green,square
0.0,4.0,4.0,0.0,6.0,6.0,402.8047779997905,3.0,1.0,phase_2,go,450.0,350.0,1.0,,,,,,,,,orange,cross
0.0,7.0,2.0,1.0,6.0,0.0,0.0,3.0,1.0,phase_2,stop,450.0,350.0,4.0,,,,,,,,,gray,hexagon
0.0,8.0,4.0,1.0,6.0,6.0,437.1319330002734,3.0,1.0,phase_2,stop,450.0,400.0,3.0,,,,,,,,,blue,triangle
0.0,1.0,0.5,0.0,5.0,5.0,674.408842000048,3.0,1.0,phase_2,go,450.0,350.0,1.0,,,,,,,,,white,I
0.0,7.0,2.0,1.0,6.0,0.0,0.0,3.0,1.0,phase_2,stop,450.0,350.0,4.0,,,,,,,,,gray,hexagon
0.0,5.0,0.5,1.0,6.0,6.0,349.6792709997862,3.0,1.0,phase_2,stop,450.0,400.0,3.0,,,,,,,,,green,square
0.0,7.0,2.0,1.0,5.0,5.0,595.0104379999175,3.0,1.0,phase_2,go,450.0,350.0,1.0,,,,,,,,,gray,hexagon
0.0,7.0,2.0,1.0,5.0,5.0,598.9138850000018,3.0,1.0,phase_2,stop,450.0,350.0,3.0,,,,,,,,,gray,hexagon
0.0,3.0,2.0,0.0,6.0,6.0,832.0115040000928,3.0,1.0,phase_2,go,400.0,350.0,1.0,,,,,,,,,yellow,flipped triangle
0.0,2.0,1.0,0.0,6.0,6.0,690.6494670001848,3.0,1.0,phase_2,go,400.0,350.0,1.0,,,,,,,,,magenta,circle
0.0,3.0,2.0,0.0,6.0,6.0,271.2182929999471,3.0,1.0,phase_2,go,400.0,350.0,1.0,,,,,,,,,yellow,flipped triangle
0.0,1.0,0.5,0.0,5.0,5.0,410.5930420000732,3.0,1.0,phase_2,go,400.0,350.0,1.0,,,,,,,,,white,I
0.0,1.0,0.5,0.0,6.0,6.0,302.5460469998506,4.0,1.0,phase_2,go,400.0,350.0,1.0,,,,,,,,,white,I
0.0,8.0,4.0,1.0,5.0,5.0,257.4922710000464,4.0,1.0,phase_2,stop,400.0,350.0,3.0,,,,,,,,,blue,triangle
0.0,4.0,4.0,0.0,6.0,6.0,428.5250069997346,4.0,1.0,phase_2,go,350.0,350.0,1.0,,,,,,,,,orange,cross
0.0,2.0,1.0,0.0,5.0,5.0,565.6362859999717,4.0,1.0,phase_2,go,350.0,350.0,1.0,,,,,,,,,magenta,circle
0.0,1.0,0.5,0.0,6.0,6.0,218.8888229998156,4.0,1.0,phase_2,go,350.0,350.0,1.0,,,,,,,,,white,I
0.0,7.0,2.0,1.0,6.0,0.0,0.0,4.0,1.0,phase_2,stop,350.0,350.0,4.0,,,,,,,,,gray,hexagon
0.0,7.0,2.0,1.0,6.0,6.0,295.7866679998915,4.0,1.0,phase_2,stop,350.0,400.0,3.0,,,,,,,,,gray,hexagon
0.0,3.0,2.0,0.0,6.0,6.0,583.5441379999793,4.0,1.0,phase_2,go,350.0,350.0,1.0,,,,,,,,,yellow,flipped triangle
0.0,7.0,2.0,1.0,6.0,6.0,670.5891400001747,4.0,1.0,phase_2,go,350.0,350.0,1.0,,,,,,,,,gray,hexagon
0.0,8.0,4.0,1.0,6.0,6.0,646.1015609997958,4.0,1.0,phase_2,go,350.0,350.0,1.0,,,,,,,,,blue,triangle
0.0,2.0,1.0,0.0,5.0,5.0,620.2314520000982,4.0,1.0,phase_2,go,350.0,350.0,1.0,,,,,,,,,magenta,circle
0.0,7.0,2.0,1.0,5.0,0.0,0.0,4.0,1.0,phase_2,stop,350.0,350.0,4.0,,,,,,,,,gray,hexagon
0.0,2.0,1.0,0.0,5.0,5.0,558.6011919999692,4.0,1.0,phase_2,go,400.0,350.0,1.0,,,,,,,,,magenta,circle
0.0,7.0,2.0,1.0,5.0,5.0,708.6283459998413,4.0,1.0,phase_2,go,400.0,350.0,1.0,,,,,,,,,gray,hexagon
0.0,5.0,0.5,1.0,6.0,6.0,227.2655950000626,4.0,1.0,phase_2,stop,400.0,350.0,3.0,,,,,,,,,green,square
0.0,1.0,0.5,0.0,5.0,5.0,261.478490999707,4.0,1.0,phase_2,go,400.0,300.0,1.0,,,,,,,,,white,I
0.0,6.0,1.0,1.0,6.0,6.0,568.9238059999298,4.0,1.0,phase_2,go,400.0,300.0,1.0,,,,,,,,,cyan,diamond
0.0,8.0,4.0,1.0,6.0,0.0,0.0,4.0,1.0,phase_2,stop,400.0,300.0,4.0,,,,,,,,,blue,triangle
0.0,1.0,0.5,0.0,6.0,6.0,443.0655830001342,4.0,1.0,phase_2,go,400.0,350.0,1.0,,,,,,,,,white,I
0.0,8.0,4.0,1.0,6.0,0.0,0.0,4.0,1.0,phase_2,stop,400.0,350.0,4.0,,,,,,,,,blue,triangle
0.0,4.0,4.0,0.0,6.0,6.0,286.4907799998946,4.0,1.0,phase_2,go,400.0,400.0,1.0,,,,,,,,,orange,cross
0.0,8.0,4.0,1.0,5.0,5.0,473.0865729998186,4.0,1.0,phase_2,stop,400.0,400.0,3.0,,,,,,,,,blue,triangle
0.0,1.0,0.5,0.0,5.0,5.0,449.2271039998741,4.0,1.0,phase_2,go,350.0,400.0,1.0,,,,,,,,,white,I
0.0,7.0,2.0,1.0,6.0,6.0,525.5241760000899,4.0,1.0,phase_2,stop,350.0,400.0,3.0,,,,,,,,,gray,hexagon
0.0,2.0,1.0,0.0,6.0,6.0,605.6962719999319,4.0,1.0,phase_2,go,350.0,350.0,1.0,,,,,,,,,magenta,circle
0.0,8.0,4.0,1.0,5.0,0.0,0.0,4.0,1.0,phase_2,stop,350.0,350.0,4.0,,,,,,,,,blue,triangle
0.0,3.0,2.0,0.0,5.0,5.0,566.1496630000329,4.0,1.0,phase_2,go,400.0,350.0,1.0,,,,,,,,,yellow,flipped triangle
0.0,4.0,4.0,0.0,5.0,5.0,347.0047040000281,4.0,1.0,phase_2,go,400.0,350.0,1.0,,,,,,,,,orange,cross
0.0,6.0,1.0,1.0,6.0,6.0,256.1036260003675,4.0,1.0,phase_2,go,400.0,350.0,1.0,,,,,,,,,cyan,diamond
0.0,5.0,0.5,1.0,5.0,5.0,299.7730359998058,4.0,1.0,phase_2,stop,400.0,350.0,3.0,,,,,,,,,green,square
0.0,6.0,1.0,1.0,5.0,0.0,0.0,4.0,1.0,phase_2,stop,350.0,350.0,4.0,,,,,,,,,cyan,diamond
0.0,4.0,4.0,0.0,6.0,6.0,565.3607050003302,4.0,1.0,phase_2,go,400.0,350.0,1.0,,,,,,,,,orange,cross
0.0,8.0,4.0,1.0,5.0,5.0,600.8513760002643,4.0,1.0,phase_2,stop,400.0,350.0,3.0,,,,,,,,,blue,triangle
0.0,8.0,4.0,1.0,5.0,0.0,0.0,4.0,1.0,phase_2,stop,350.0,350.0,4.0,,,,,,,,,blue,triangle
0.0,7.0,2.0,1.0,6.0,0.0,0.0,4.0,1.0,phase_2,stop,400.0,350.0,4.0,,,,,,,,,gray,hexagon
0.0,3.0,2.0,0.0,6.0,6.0,586.943601999792,4.0,1.0,phase_2,go,400.0,400.0,1.0,,,,,,,,,yellow,flipped triangle
0.0,5.0,0.5,1.0,6.0,6.0,303.4314740002628,5.0,1.0,phase_2,go,400.0,400.0,1.0,,,,,,,,,green,square
0.0,8.0,4.0,1.0,6.0,6.0,317.5512279999566,5.0,1.0,phase_2,stop,400.0,400.0,3.0,,,,,,,,,blue,triangle
0.0,6.0,1.0,1.0,6.0,0.0,0.0,5.0,1.0,phase_2,stop,400.0,350.0,4.0,,,,,,,,,cyan,diamond
0.0,8.0,4.0,1.0,6.0,6.0,622.6484359999631,5.0,1.0,phase_2,go,400.0,400.0,1.0,,,,,,,,,blue,triangle
0.0,5.0,0.5,1.0,6.0,6.0,605.9121789999153,5.0,1.0,phase_2,go,400.0,400.0,1.0,,,,,,,,,green,square
0.0,4.0,4.0,0.0,6.0,6.0,484.0053819998502,5.0,1.0,phase_2,go,400.0,400.0,1.0,,,,,,,,,orange,cross
0.0,1.0,0.5,0.0,6.0,6.0,546.5040330000193,5.0,1.0,phase_2,go,400.0,400.0,1.0,,,,,,,,,white,I
0.0,5.0,0.5,1.0,6.0,0.0,0.0,5.0,1.0,phase_2,stop,400.0,400.0,4.0,,,,,,,,,green,square
0.0,2.0,1.0,0.0,6.0,6.0,622.0948810000664,5.0,1.0,phase_2,go,400.0,450.0,1.0,,,,,,,,,magenta,circle
0.0,2.0,1.0,0.0,6.0,6.0,505.53955800023687,5.0,1.0,phase_2,go,400.0,450.0,1.0,,,,,,,,,magenta,circle
0.0,6.0,1.0,1.0,5.0,0.0,0.0,5.0,1.0,phase_2,stop,400.0,450.0,4.0,,,,,,,,,cyan,diamond
0.0,3.0,2.0,0.0,6.0,6.0,586.4231870000367,5.0,1.0,phase_2,go,450.0,450.0,1.0,,,,,,,,,yellow,flipped triangle
0.0,2.0,1.0,0.0,5.0,5.0,562.898862000111,5.0,1.0,phase_2,go,450.0,450.0,1.0,,,,,,,,,magenta,circle
0.0,4.0,4.0,0.0,6.0,6.0,248.7151260002065,5.0,1.0,phase_2,go,450.0,450.0,1.0,,,,,,,,,orange,cross
0.0,8.0,4.0,1.0,5.0,0.0,0.0,5.0,1.0,phase_2,stop,450.0,450.0,4.0,,,,,,,,,blue,triangle
0.0,3.0,2.0,0.0,5.0,5.0,591.4779380000255,5.0,1.0,phase_2,go,500.0,450.0,1.0,,,,,,,,,yellow,flipped triangle
0.0,3.0,2.0,0.0,5.0,5.0,501.3743230001637,5.0,1.0,phase_2,go,500.0,450.0,1.0,,,,,,,,,yellow,flipped triangle
0.0,8.0,4.0,1.0,5.0,5.0,650.5039939997914,5.0,1.0,phase_2,stop,500.0,450.0,3.0,,,,,,,,,blue,triangle
0.0,5.0,0.5,1.0,6.0,6.0,283.2080980001592,5.0,1.0,phase_2,go,450.0,450.0,1.0,,,,,,,,,green,square
0.0,7.0,2.0,1.0,5.0,5.0,629.4165419999445,5.0,1.0,phase_2,stop,450.0,450.0,3.0,,,,,,,,,gray,hexagon
0.0,5.0,0.5,1.0,6.0,6.0,709.4661760002055,5.0,1.0,phase_2,go,400.0,450.0,1.0,,,,,,,,,green,square
0.0,4.0,4.0,0.0,5.0,5.0,831.4074919999257,5.0,1.0,phase_2,go,400.0,450.0,1.0,,,,,,,,,orange,cross
0.0,3.0,2.0,0.0,5.0,5.0,686.6955780001263,5.0,1.0,phase_2,go,400.0,450.0,1.0,,,,,,,,,yellow,flipped triangle
0.0,5.0,0.5,1.0,6.0,6.0,585.9702380003,5.0,1.0,phase_2,stop,400.0,450.0,3.0,,,,,,,,,green,square
0.0,7.0,2.0,1.0,5.0,0.0,0.0,5.0,1.0,phase_2,stop,400.0,400.0,4.0,,,,,,,,,gray,hexagon
0.0,4.0,4.0,0.0,5.0,5.0,567.7562910000233,5.0,1.0,phase_2,go,450.0,400.0,1.0,,,,,,,,,orange,cross
0.0,7.0,2.0,1.0,6.0,0.0,0.0,5.0,1.0,phase_2,stop,450.0,400.0,4.0,,,,,,,,,gray,hexagon
0.0,1.0,0.5,0.0,5.0,5.0,658.748365000065,5.0,1.0,phase_2,go,450.0,450.0,1.0,,,,,,,,,white,I
0.0,4.0,4.0,0.0,6.0,6.0,796.569406999879,5.0,1.0,phase_2,go,450.0,450.0,1.0,,,,,,,,,orange,cross
0.0,2.0,1.0,0.0,6.0,6.0,320.6007289995796,5.0,1.0,phase_2,go,450.0,450.0,1.0,,,,,,,,,magenta,circle
0.0,7.0,2.0,1.0,5.0,5.0,802.2286109999186,5.0,1.0,phase_2,go,450.0,450.0,1.0,,,,,,,,,gray,hexagon
0.0,2.0,1.0,0.0,5.0,5.0,343.1058820001453,5.0,1.0,phase_2,go,450.0,450.0,1.0,,,,,,,,,magenta,circle
0.0,5.0,0.5,1.0,5.0,5.0,705.2146970004287,5.0,1.0,phase_2,go,450.0,450.0,1.0,,,,,,,,,green,square
0.0,1.0,0.5,0.0,5.0,5.0,770.5388310000671,5.0,1.0,phase_2,go,450.0,450.0,1.0,,,,,,,,,white,I
0.0,1.0,0.5,0.0,6.0,6.0,675.1502000001892,5.0,1.0,phase_2,go,450.0,450.0,1.0,,,,,,,,,white,I
0.0,5.0,0.5,1.0,6.0,0.0,0.0,5.0,1.0,phase_2,stop,450.0,450.0,4.0,,,,,,,,,green,square
0.0,1.0,0.5,0.0,5.0,5.0,260.9790000001339,6.0,1.0,phase_2,go,450.0,500.0,1.0,,,,,,,,,white,I
0.0,6.0,1.0,1.0,5.0,5.0,512.559710000005,6.0,1.0,phase_2,stop,450.0,500.0,3.0,,,,,,,,,cyan,diamond
0.0,8.0,4.0,1.0,5.0,5.0,573.0569290003587,6.0,1.0,phase_2,go,400.0,500.0,1.0,,,,,,,,,blue,triangle
0.0,3.0,2.0,0.0,5.0,5.0,368.7195799998335,6.0,1.0,phase_2,go,400.0,500.0,1.0,,,,,,,,,yellow,flipped triangle
0.0,1.0,0.5,0.0,6.0,6.0,475.3838909996375,6.0,1.0,phase_2,go,400.0,500.0,1.0,,,,,,,,,white,I
0.0,6.0,1.0,1.0,5.0,5.0,262.350317000255,6.0,1.0,phase_2,go,400.0,500.0,1.0,,,,,,,,,cyan,diamond
0.0,8.0,4.0,1.0,6.0,6.0,597.0469609997053,6.0,1.0,phase_2,stop,400.0,500.0,3.0,,,,,,,,,blue,triangle
0.0,5.0,0.5,1.0,5.0,5.0,271.8954940000913,6.0,1.0,phase_2,go,400.0,450.0,1.0,,,,,,,,,green,square
0.0,2.0,1.0,0.0,5.0,5.0,612.3559939996994,6.0,1.0,phase_2,go,400.0,450.0,1.0,,,,,,,,,magenta,circle
0.0,4.0,4.0,0.0,6.0,6.0,396.2442110000665,6.0,1.0,phase_2,go,400.0,450.0,1.0,,,,,,,,,orange,cross
0.0,2.0,1.0,0.0,6.0,6.0,357.4768769999537,6.0,1.0,phase_2,go,400.0,450.0,1.0,,,,,,,,,magenta,circle
0.0,1.0,0.5,0.0,5.0,5.0,495.9687709997524,6.0,1.0,phase_2,go,400.0,450.0,1.0,,,,,,,,,white,I
0.0,8.0,4.0,1.0,5.0,5.0,763.8094869998895,6.0,1.0,phase_2,go,400.0,450.0,1.0,,,,,,,,,blue,triangle
0.0,8.0,4.0,1.0,5.0,0.0,0.0,6.0,1.0,phase_2,stop,400.0,450.0,4.0,,,,,,,,,blue,triangle
0.0,4.0,4.0,0.0,5.0,5.0,602.8627109999434,6.0,1.0,phase_2,go,450.0,450.0,1.0,,,,,,,,,orange,cross
0.0,2.0,1.0,0.0,5.0,5.0,315.1834999998755,6.0,1.0,phase_2,go,450.0,450.0,1.0,,,,,,,,,magenta,circle
0.0,4.0,4.0,0.0,6.0,6.0,616.993900000125,6.0,1.0,phase_2,go,450.0,450.0,1.0,,,,,,,,,orange,cross
0.0,5.0,0.5,1.0,5.0,5.0,748.9643949998026,6.0,1.0,phase_2,go,450.0,450.0,1.0,,,,,,,,,green,square
0.0,4.0,4.0,0.0,6.0,6.0,558.8026030000037,6.0,1.0,phase_2,go,450.0,450.0,1.0,,,,,,,,,orange,cross
0.0,3.0,2.0,0.0,6.0,6.0,504.54270800037193,6.0,1.0,phase_2,go,450.0,450.0,1.0,,,,,,,,,yellow,flipped triangle
0.0,3.0,2.0,0.0,6.0,6.0,334.0063739997276,6.0,1.0,phase_2,go,450.0,450.0,1.0,,,,,,,,,yellow,flipped triangle
0.0,3.0,2.0,0.0,5.0,5.0,279.5659510002224,6.0,1.0,phase_2,go,450.0,450.0,1.0,,,,,,,,,yellow,flipped triangle
0.0,8.0,4.0,1.0,6.0,0.0,0.0,6.0,1.0,phase_2,stop,450.0,450.0,4.0,,,,,,,,,blue,triangle
0.0,4.0,4.0,0.0,6.0,6.0,267.1671080001943,6.0,1.0,phase_2,go,450.0,500.0,1.0,,,,,,,,,orange,cross
0.0,5.0,0.5,1.0,5.0,5.0,571.8729440000061,6.0,1.0,phase_2,stop,450.0,500.0,3.0,,,,,,,,,green,square
0.0,1.0,0.5,0.0,6.0,6.0,415.081721000206,6.0,1.0,phase_2,go,400.0,500.0,1.0,,,,,,,,,white,I
0.0,1.0,0.5,0.0,5.0,5.0,285.6228850000661,6.0,1.0,phase_2,go,400.0,500.0,1.0,,,,,,,,,white,I
0.0,3.0,2.0,0.0,6.0,6.0,598.322502999963,6.0,1.0,phase_2,go,400.0,500.0,1.0,,,,,,,,,yellow,flipped triangle
0.0,1.0,0.5,0.0,5.0,5.0,353.1140909999521,6.0,1.0,phase_2,go,400.0,500.0,1.0,,,,,,,,,white,I
0.0,7.0,2.0,1.0,6.0,6.0,248.0315980001251,6.0,1.0,phase_2,go,400.0,500.0,1.0,,,,,,,,,gray,hexagon
0.0,1.0,0.5,0.0,6.0,6.0,612.256091999825,6.0,1.0,phase_2,go,400.0,500.0,1.0,,,,,,,,,white,I
0.0,4.0,4.0,0.0,5.0,5.0,664.246028999969,6.0,1.0,phase_2,go,400.0,500.0,1.0,,,,,,,,,orange,cross
0.0,7.0,2.0,1.0,5.0,5.0,381.9319119997999,6.0,1.0,phase_2,stop,400.0,500.0,3.0,,,,,,,,,gray,hexagon
0.0,5.0,0.5,1.0,6.0,6.0,293.0501789996924,6.0,1.0,phase_2,stop,350.0,500.0,3.0,,,,,,,,,green,square
0.0,6.0,1.0,1.0,5.0,0.0,0.0,6.0,1.0,phase_2,stop,350.0,450.0,4.0,,,,,,,,,cyan,diamond
0.0,1.0,0.5,0.0,6.0,6.0,677.9143710000426,6.0,1.0,phase_2,go,400.0,450.0,1.0,,,,,,,,,white,I
0.0,5.0,0.5,1.0,5.0,5.0,243.8222020000466,7.0,1.0,phase_2,stop,400.0,450.0,3.0,,,,,,,,,green,square
0.0,1.0,0.5,0.0,6.0,6.0,321.8192679996718,7.0,1.0,phase_2,go,350.0,450.0,1.0,,,,,,,,,white,I
0.0,6.0,1.0,1.0,5.0,5.0,302.7430890001596,7.0,1.0,phase_2,go,350.0,450.0,1.0,,,,,,,,,cyan,diamond
0.0,7.0,2.0,1.0,5.0,0.0,0.0,7.0,1.0,phase_2,stop,350.0,450.0,4.0,,,,,,,,,gray,hexagon
0.0,5.0,0.5,1.0,6.0,6.0,310.4365650001455,7.0,1.0,phase_2,go,400.0,450.0,1.0,,,,,,,,,green,square
0.0,5.0,0.5,1.0,6.0,6.0,298.4117539999715,7.0,1.0,phase_2,stop,400.0,450.0,3.0,,,,,,,,,green,square
0.0,3.0,2.0,0.0,5.0,5.0,493.4939499999018,7.0,1.0,phase_2,go,400.0,400.0,1.0,,,,,,,,,yellow,flipped triangle
0.0,4.0,4.0,0.0,5.0,5.0,463.0223449998993,7.0,1.0,phase_2,go,400.0,400.0,1.0,,,,,,,,,orange,cross
0.0,1.0,0.5,0.0,5.0,5.0,327.8267200003029,7.0,1.0,phase_2,go,400.0,400.0,1.0,,,,,,,,,white,I
0.0,2.0,1.0,0.0,5.0,5.0,309.8071680001339,7.0,1.0,phase_2,go,400.0,400.0,1.0,,,,,,,,,magenta,circle
0.0,3.0,2.0,0.0,5.0,5.0,346.0867769999822,7.0,1.0,phase_2,go,400.0,400.0,1.0,,,,,,,,,yellow,flipped triangle
0.0,4.0,4.0,0.0,5.0,5.0,456.1724390000563,7.0,1.0,phase_2,go,400.0,400.0,1.0,,,,,,,,,orange,cross
0.0,4.0,4.0,0.0,5.0,5.0,277.0803799999157,7.0,1.0,phase_2,go,400.0,400.0,1.0,,,,,,,,,orange,cross
0.0,5.0,0.5,1.0,6.0,6.0,353.4130920002098,7.0,1.0,phase_2,stop,400.0,400.0,3.0,,,,,,,,,green,square
0.0,5.0,0.5,1.0,5.0,5.0,695.9088270000393,7.0,1.0,phase_2,go,400.0,350.0,1.0,,,,,,,,,green,square
0.0,2.0,1.0,0.0,6.0,6.0,529.235496000183,7.0,1.0,phase_2,go,400.0,350.0,1.0,,,,,,,,,magenta,circle
0.0,2.0,1.0,0.0,6.0,6.0,262.7742599997873,7.0,1.0,phase_2,go,400.0,350.0,1.0,,,,,,,,,magenta,circle
0.0,1.0,0.5,0.0,6.0,6.0,486.5237330000127,7.0,1.0,phase_2,go,400.0,350.0,1.0,,,,,,,,,white,I
0.0,6.0,1.0,1.0,5.0,5.0,286.0284070002308,7.0,1.0,phase_2,stop,400.0,350.0,3.0,,,,,,,,,cyan,diamond
0.0,6.0,1.0,1.0,6.0,0.0,0.0,7.0,1.0,phase_2,stop,350.0,350.0,4.0,,,,,,,,,cyan,diamond
0.0,6.0,1.0,1.0,5.0,0.0,0.0,7.0,1.0,phase_2,stop,350.0,400.0,4.0,,,,,,,,,cyan,diamond
0.0,3.0,2.0,0.0,6.0,6.0,454.0401419999398,7.0,1.0,phase_2,go,400.0,400.0,1.0,,,,,,,,,yellow,flipped triangle
0.0,6.0,1.0,1.0,5.0,0.0,0.0,7.0,1.0,phase_2,stop,400.0,400.0,4.0,,,,,,,,,cyan,diamond
0.0,4.0,4.0,0.0,6.0,6.0,377.137219999895,7.0,1.0,phase_2,go,450.0,400.0,1.0,,,,,,,,,orange,cross
0.0,6.0,1.0,1.0,5.0,5.0,262.6050470003065,7.0,1.0,phase_2,stop,450.0,400.0,3.0,,,,,,,,,cyan,diamond
0.0,3.0,2.0,0.0,6.0,6.0,341.9695160000628,7.0,1.0,phase_2,go,400.0,400.0,1.0,,,,,,,,,yellow,flipped triangle
0.0,7.0,2.0,1.0,6.0,6.0,441.650922000008,7.0,1.0,phase_2,stop,400.0,400.0,3.0,,,,,,,,,gray,hexagon
0.0,8.0,4.0,1.0,6.0,6.0,777.5553050000781,7.0,1.0,phase_2,go,400.0,350.0,1.0,,,,,,,,,blue,triangle
0.0,7.0,2.0,1.0,6.0,6.0,501.090670999929,7.0,1.0,phase_2,go,400.0,350.0,1.0,,,,,,,,,gray,hexagon
0.0,7.0,2.0,1.0,5.0,5.0,561.1356599997634,7.0,1.0,phase_2,go,400.0,350.0,1.0,,,,,,,,,gray,hexagon
0.0,4.0,4.0,0.0,5.0,5.0,556.0283559998425,7.0,1.0,phase_2,go,400.0,350.0,1.0,,,,,,,,,orange,cross
0.0,6.0,1.0,1.0,6.0,6.0,265.8197280002241,7.0,1.0,phase_2,stop,400.0,350.0,3.0,,,,,,,,,cyan,diamond
0.0,7.0,2.0,1.0,6.0,6.0,406.6889360001369,7.0,1.0,phase_2,stop,400.0,300.0,3.0,,,,,,,,,gray,hexagon
0.0,2.0,1.0,0.0,6.0,6.0,687.3858629996903,7.0,1.0,phase_2,go,400.0,250.0,1.0,,,,,,,,,magenta,circle
0.0,8.0,4.0,1.0,6.0,0.0,0.0,7.0,1.0,phase_2,stop,400.0,250.0,4.0,,,,,,,,,blue,triangle
0.0,5.0,0.5,1.0,5.0,0.0,0.0,7.0,1.0,phase_2,stop,400.0,300.0,4.0,,,,,,,,,green,square
0.0,4.0,4.0,0.0,5.0,5.0,246.0073190000002,8.0,1.0,phase_2,go,450.0,300.0,1.0,,,,,,,,,orange,cross
0.0,8.0,4.0,1.0,5.0,5.0,578.1266290000531,8.0,1.0,phase_2,stop,450.0,300.0,3.0,,,,,,,,,blue,triangle
0.0,1.0,0.5,0.0,5.0,5.0,570.8450479996827,8.0,1.0,phase_2,go,400.0,300.0,1.0,,,,,,,,,white,I
0.0,6.0,1.0,1.0,6.0,6.0,245.5419420002726,8.0,1.0,phase_2,stop,400.0,300.0,3.0,,,,,,,,,cyan,diamond
0.0,1.0,0.5,0.0,5.0,5.0,545.951528000387,8.0,1.0,phase_2,go,400.0,250.0,1.0,,,,,,,,,white,I
0.0,3.0,2.0,0.0,6.0,6.0,521.37929599985,8.0,1.0,phase_2,go,400.0,250.0,1.0,,,,,,,,,yellow,flipped triangle
0.0,6.0,1.0,1.0,5.0,5.0,329.5051989998683,8.0,1.0,phase_2,stop,400.0,250.0,3.0,,,,,,,,,cyan,diamond
0.0,1.0,0.5,0.0,6.0,6.0,376.5488379999624,8.0,1.0,phase_2,go,350.0,250.0,1.0,,,,,,,,,white,I
0.0,5.0,0.5,1.0,6.0,0.0,0.0,8.0,1.0,phase_2,stop,350.0,250.0,4.0,,,,,,,,,green,square
0.0,4.0,4.0,0.0,5.0,5.0,512.0732559998942,8.0,1.0,phase_2,go,350.0,300.0,1.0,,,,,,,,,orange,cross
0.0,6.0,1.0,1.0,5.0,0.0,0.0,8.0,1.0,phase_2,stop,350.0,300.0,4.0,,,,,,,,,cyan,diamond
0.0,4.0,4.0,0.0,5.0,5.0,489.2069289999199,8.0,1.0,phase_2,go,400.0,300.0,1.0,,,,,,,,,orange,cross
0.0,8.0,4.0,1.0,5.0,0.0,0.0,8.0,1.0,phase_2,stop,400.0,300.0,4.0,,,,,,,,,blue,triangle
0.0,7.0,2.0,1.0,5.0,5.0,409.935065999889,8.0,1.0,phase_2,stop,450.0,300.0,3.0,,,,,,,,,gray,hexagon
0.0,5.0,0.5,1.0,5.0,0.0,0.0,8.0,1.0,phase_2,stop,400.0,300.0,4.0,,,,,,,,,green,square
0.0,2.0,1.0,0.0,6.0,6.0,576.6454240001622,8.0,1.0,phase_2,go,450.0,300.0,1.0,,,,,,,,,magenta,circle
0.0,3.0,2.0,0.0,6.0,6.0,558.0809759999283,8.0,1.0,phase_2,go,450.0,300.0,1.0,,,,,,,,,yellow,flipped triangle
0.0,1.0,0.5,0.0,6.0,6.0,372.694171999683,8.0,1.0,phase_2,go,450.0,300.0,1.0,,,,,,,,,white,I
0.0,8.0,4.0,1.0,6.0,6.0,760.7524479999483,8.0,1.0,phase_2,go,450.0,300.0,1.0,,,,,,,,,blue,triangle
0.0,5.0,0.5,1.0,5.0,0.0,0.0,8.0,1.0,phase_2,stop,450.0,300.0,4.0,,,,,,,,,green,square
0.0,2.0,1.0,0.0,5.0,5.0,667.5775130001966,8.0,1.0,phase_2,go,500.0,300.0,1.0,,,,,,,,,magenta,circle
0.0,6.0,1.0,1.0,6.0,0.0,0.0,8.0,1.0,phase_2,stop,500.0,300.0,4.0,,,,,,,,,cyan,diamond
0.0,8.0,4.0,1.0,6.0,0.0,0.0,8.0,1.0,phase_2,stop,500.0,350.0,4.0,,,,,,,,,blue,triangle
0.0,3.0,2.0,0.0,6.0,6.0,563.1306119998953,8.0,1.0,phase_2,go,500.0,400.0,1.0,,,,,,,,,yellow,flipped triangle
0.0,6.0,1.0,1.0,5.0,5.0,302.6105549997737,8.0,1.0,phase_2,stop,500.0,400.0,3.0,,,,,,,,,cyan,diamond
0.0,6.0,1.0,1.0,6.0,6.0,797.9852880002909,8.0,1.0,phase_2,go,450.0,400.0,1.0,,,,,,,,,cyan,diamond
0.0,4.0,4.0,0.0,6.0,6.0,374.3271289999939,8.0,1.0,phase_2,go,450.0,400.0,1.0,,,,,,,,,orange,cross
0.0,2.0,1.0,0.0,5.0,5.0,496.4167860002817,8.0,1.0,phase_2,go,450.0,400.0,1.0,,,,,,,,,magenta,circle
0.0,8.0,4.0,1.0,6.0,6.0,311.8870980001702,8.0,1.0,phase_2,stop,450.0,400.0,3.0,,,,,,,,,blue,triangle
0.0,7.0,2.0,1.0,6.0,0.0,0.0,8.0,1.0,phase_2,stop,450.0,350.0,4.0,,,,,,,,,gray,hexagon
0.0,6.0,1.0,1.0,5.0,0.0,0.0,8.0,1.0,phase_2,stop,450.0,400.0,4.0,,,,,,,,,cyan,diamond
0.0,4.0,4.0,0.0,6.0,6.0,521.0593830001926,8.0,1.0,phase_2,go,500.0,400.0,1.0,,,,,,,,,orange,cross
0.0,3.0,2.0,0.0,6.0,6.0,316.3149719998728,8.0,1.0,phase_2,go,500.0,400.0,1.0,,,,,,,,,yellow,flipped triangle
0.0,6.0,1.0,1.0,6.0,6.0,260.5386939999334,8.0,1.0,phase_2,stop,500.0,400.0,3.0,,,,,,,,,cyan,diamond
0.0,4.0,4.0,0.0,5.0,5.0,449.2940369996177,8.0,1.0,phase_2,go,500.0,350.0,1.0,,,,,,,,,orange,cross
0.0,8.0,4.0,1.0,5.0,0.0,0.0,8.0,1.0,phase_2,stop,500.0,350.0,4.0,,,,,,,,,blue,triangle
0.0,8.0,4.0,1.0,7.0,3.0,3764.2813539996496,1.0,1.0,phase_3,,,,,216.0,4.0,162.0,54.0,216.0,108.0,324.0,270.0,blue,triangle
0.0,2.0,1.0,0.0,7.0,6.0,4085.1080499996897,1.0,1.0,phase_3,,,,,204.0,6.0,170.0,34.0,68.0,136.0,102.0,204.0,magenta,circle
0.0,6.0,1.0,1.0,7.0,3.0,4192.629565000061,1.0,1.0,phase_3,,,,,264.0,6.0,176.0,132.0,264.0,44.0,88.0,220.0,cyan,diamond
0.0,4.0,4.0,0.0,7.0,2.0,4573.520484000255,1.0,1.0,phase_3,,,,,264.0,6.0,44.0,264.0,176.0,132.0,220.0,88.0,orange,cross
0.0,7.0,2.0,1.0,7.0,5.0,4105.507943999328,1.0,1.0,phase_3,,,,,54.0,1.0,270.0,324.0,108.0,162.0,54.0,216.0,gray,hexagon
0.0,5.0,0.5,1.0,7.0,6.0,3858.262400000058,1.0,1.0,phase_3,,,,,49.0,1.0,245.0,294.0,98.0,196.0,147.0,49.0,green,square
0.0,8.0,4.0,1.0,7.0,3.0,3327.120283000113,1.0,1.0,phase_3,,,,,204.0,6.0,170.0,136.0,204.0,102.0,68.0,34.0,blue,triangle
0.0,1.0,0.5,0.0,7.0,5.0,2603.725596000004,1.0,1.0,phase_3,,,,,170.0,5.0,204.0,34.0,136.0,68.0,170.0,102.0,white,I
0.0,1.0,0.5,0.0,7.0,3.0,4007.008947000031,1.0,1.0,phase_3,,,,,176.0,4.0,88.0,132.0,176.0,44.0,264.0,220.0,white,I
0.0,3.0,2.0,0.0,7.0,1.0,2833.902766000392,1.0,1.0,phase_3,,,,,204.0,6.0,204.0,68.0,102.0,34.0,170.0,136.0,yellow,flipped triangle
0.0,6.0,1.0,1.0,7.0,4.0,2944.8414819999016,1.0,1.0,phase_3,,,,,216.0,4.0,162.0,270.0,108.0,216.0,54.0,324.0,cyan,diamond
0.0,6.0,1.0,1.0,7.0,3.0,2285.8215819996985,1.0,1.0,phase_3,,,,,220.0,5.0,264.0,176.0,220.0,44.0,88.0,132.0,cyan,diamond
0.0,6.0,1.0,1.0,7.0,2.0,1905.8037690001584,1.0,1.0,phase_3,,,,,204.0,6.0,68.0,204.0,34.0,102.0,136.0,170.0,cyan,diamond
0.0,6.0,1.0,1.0,7.0,3.0,2321.3766420003594,1.0,1.0,phase_3,,,,,234.0,6.0,195.0,156.0,234.0,78.0,117.0,39.0,cyan,diamond
0.0,7.0,2.0,1.0,7.0,6.0,2770.919284000229,1.0,1.0,phase_3,,,,,108.0,2.0,324.0,216.0,270.0,54.0,162.0,108.0,gray,hexagon
0.0,1.0,0.5,0.0,7.0,4.0,3404.1810139997324,1.0,1.0,phase_3,,,,,196.0,4.0,294.0,98.0,49.0,196.0,245.0,147.0,white,I
0.0,7.0,2.0,1.0,7.0,5.0,4261.437622000813,1.0,1.0,phase_3,,,,,136.0,4.0,68.0,102.0,204.0,34.0,136.0,170.0,gray,hexagon
0.0,7.0,2.0,1.0,7.0,3.0,4497.388059000514,1.0,1.0,phase_3,,,,,156.0,4.0,117.0,78.0,156.0,195.0,39.0,234.0,gray,hexagon
0.0,8.0,4.0,1.0,7.0,4.0,1549.7629290002806,1.0,1.0,phase_3,,,,,204.0,6.0,136.0,34.0,68.0,204.0,102.0,170.0,blue,triangle
0.0,5.0,0.5,1.0,7.0,5.0,1303.8696559997334,1.0,2.0,phase_3,,,,,49.0,1.0,98.0,147.0,294.0,196.0,49.0,245.0,green,square
0.0,5.0,0.5,1.0,7.0,4.0,2129.6356719994947,2.0,1.0,phase_3,,,,,88.0,2.0,220.0,44.0,264.0,88.0,176.0,132.0,green,square
0.0,1.0,0.5,0.0,7.0,5.0,1110.094386999663,2.0,1.0,phase_3,,,,,170.0,5.0,136.0,204.0,68.0,34.0,170.0,102.0,white,I
0.0,6.0,1.0,1.0,7.0,2.0,2631.0553379998964,2.0,1.0,phase_3,,,,,170.0,5.0,136.0,170.0,68.0,102.0,204.0,34.0,cyan,diamond
0.0,3.0,2.0,0.0,7.0,3.0,2312.363396999899,2.0,1.0,phase_3,,,,,147.0,3.0,294.0,245.0,147.0,196.0,49.0,98.0,yellow,flipped triangle
0.0,1.0,0.5,0.0,7.0,2.0,2475.686389000657,2.0,1.0,phase_3,,,,,220.0,5.0,44.0,220.0,176.0,132.0,264.0,88.0,white,I
0.0,7.0,2.0,1.0,7.0,1.0,2421.064230000411,2.0,1.0,phase_3,,,,,98.0,2.0,98.0,49.0,294.0,147.0,245.0,196.0,gray,hexagon
0.0,1.0,0.5,0.0,7.0,6.0,4054.4781580001654,2.0,1.0,phase_3,,,,,216.0,4.0,54.0,324.0,270.0,108.0,162.0,216.0,white,I
0.0,6.0,1.0,1.0,7.0,5.0,1709.7354600000472,2.0,1.0,phase_3,,,,,270.0,5.0,216.0,324.0,162.0,54.0,270.0,108.0,cyan,diamond
0.0,3.0,2.0,0.0,7.0,1.0,2808.697049999864,2.0,1.0,phase_3,,,,,156.0,4.0,156.0,39.0,234.0,195.0,78.0,117.0,yellow,flipped triangle
0.0,4.0,4.0,0.0,7.0,4.0,3171.7895390002013,2.0,1.0,phase_3,,,,,245.0,5.0,147.0,49.0,196.0,245.0,294.0,98.0,orange,cross
0.0,8.0,4.0,1.0,7.0,4.0,1979.6117949999823,2.0,1.0,phase_3,,,,,264.0,6.0,44.0,176.0,88.0,264.0,220.0,132.0,blue,triangle
0.0,6.0,1.0,1.0,7.0,5.0,2894.513497999469,2.0,1.0,phase_3,,,,,195.0,5.0,234.0,156.0,78.0,117.0,195.0,39.0,cyan,diamond
0.0,3.0,2.0,0.0,7.0,1.0,3296.8416189996788,2.0,1.0,phase_3,,,,,170.0,5.0,170.0,136.0,204.0,102.0,34.0,68.0,yellow,flipped triangle
0.0,8.0,4.0,1.0,7.0,5.0,1847.6121189996773,2.0,1.0,phase_3,,,,,294.0,6.0,245.0,49.0,196.0,147.0,294.0,98.0,blue,triangle
0.0,5.0,0.5,1.0,7.0,2.0,1591.7696729993622,2.0,1.0,phase_3,,,,,34.0,1.0,136.0,34.0,204.0,170.0,68.0,102.0,green,square
0.0,7.0,2.0,1.0,7.0,4.0,2360.082287000296,2.0,1.0,phase_3,,,,,44.0,1.0,88.0,176.0,132.0,44.0,264.0,220.0,gray,hexagon
0.0,6.0,1.0,1.0,7.0,3.0,2705.412074000378,2.0,1.0,phase_3,,,,,245.0,5.0,98.0,147.0,245.0,196.0,294.0,49.0,cyan,diamond
0.0,2.0,1.0,0.0,7.0,1.0,3725.456034999297,2.0,1.0,phase_3,,,,,176.0,4.0,176.0,88.0,44.0,132.0,264.0,220.0,magenta,circle
0.0,4.0,4.0,0.0,7.0,5.0,3727.514451000389,2.0,1.0,phase_3,,,,,196.0,4.0,245.0,294.0,147.0,98.0,196.0,49.0,orange,cross
0.0,4.0,4.0,0.0,7.0,4.0,2920.156051000049,2.0,1.0,phase_3,,,,,170.0,5.0,34.0,136.0,204.0,170.0,68.0,102.0,orange,cross
0.0,3.0,2.0,0.0,7.0,4.0,2011.0601790001965,3.0,1.0,phase_3,,,,,162.0,3.0,108.0,270.0,324.0,162.0,216.0,54.0,yellow,flipped triangle
0.0,4.0,4.0,0.0,7.0,1.0,2254.386021000755,3.0,1.0,phase_3,,,,,156.0,4.0,156.0,117.0,234.0,39.0,78.0,195.0,orange,cross
0.0,8.0,4.0,1.0,7.0,3.0,1891.2478479996932,3.0,1.0,phase_3,,,,,294.0,6.0,245.0,196.0,294.0,147.0,98.0,49.0,blue,triangle
0.0,8.0,4.0,1.0,7.0,6.0,2995.175596999616,3.0,1.0,phase_3,,,,,324.0,6.0,54.0,162.0,270.0,216.0,108.0,324.0,blue,triangle
0.0,8.0,4.0,1.0,7.0,5.0,2654.6550899993235,3.0,1.0,phase_3,,,,,264.0,6.0,132.0,220.0,176.0,44.0,264.0,88.0,blue,triangle
0.0,4.0,4.0,0.0,7.0,5.0,1988.9954989994292,3.0,1.0,phase_3,,,,,156.0,4.0,78.0,195.0,234.0,39.0,156.0,117.0,orange,cross
0.0,1.0,0.5,0.0,7.0,4.0,3664.006384999993,3.0,1.0,phase_3,,,,,156.0,4.0,234.0,195.0,117.0,156.0,39.0,78.0,white,I
0.0,5.0,0.5,1.0,7.0,3.0,2519.1539500001454,3.0,1.0,phase_3,,,,,34.0,1.0,204.0,136.0,34.0,170.0,102.0,68.0,green,square
0.0,5.0,0.5,1.0,7.0,4.0,1356.9240209999407,3.0,1.0,phase_3,,,,,39.0,1.0,117.0,195.0,156.0,39.0,234.0,78.0,green,square
0.0,2.0,1.0,0.0,7.0,6.0,2486.240604000159,3.0,1.0,phase_3,,,,,102.0,3.0,204.0,170.0,34.0,68.0,136.0,102.0,magenta,circle
0.0,6.0,1.0,1.0,7.0,5.0,3802.389051999853,3.0,1.0,phase_3,,,,,245.0,5.0,196.0,147.0,49.0,294.0,245.0,98.0,cyan,diamond
0.0,5.0,0.5,1.0,7.0,1.0,952.5647589998698,3.0,1.0,phase_3,,,,,54.0,1.0,54.0,270.0,324.0,216.0,108.0,162.0,green,square
0.0,2.0,1.0,0.0,7.0,4.0,3411.0674759995163,3.0,1.0,phase_3,,,,,147.0,3.0,98.0,196.0,245.0,147.0,294.0,49.0,magenta,circle
0.0,2.0,1.0,0.0,7.0,6.0,2658.56782300034,3.0,1.0,phase_3,,,,,245.0,5.0,196.0,294.0,49.0,98.0,147.0,245.0,magenta,circle
0.0,2.0,1.0,0.0,7.0,5.0,3298.070769000333,3.0,1.0,phase_3,,,,,270.0,5.0,216.0,162.0,324.0,108.0,270.0,54.0,magenta,circle
0.0,2.0,1.0,0.0,7.0,3.0,3383.4427659994617,3.0,1.0,phase_3,,,,,195.0,5.0,117.0,39.0,195.0,78.0,234.0,156.0,magenta,circle
0.0,1.0,0.5,0.0,7.0,4.0,2671.457882999676,3.0,1.0,phase_3,,,,,196.0,4.0,98.0,49.0,294.0,196.0,245.0,147.0,white,I
0.0,2.0,1.0,0.0,7.0,1.0,3474.037029000101,3.0,1.0,phase_3,,,,,176.0,4.0,176.0,220.0,88.0,44.0,264.0,132.0,magenta,circle
0.0,2.0,1.0,0.0,7.0,1.0,2822.143886000049,3.0,1.0,phase_3,,,,,216.0,4.0,216.0,324.0,270.0,108.0,162.0,54.0,magenta,circle
0.0,7.0,2.0,1.0,7.0,6.0,1440.2071790000264,3.0,1.0,phase_3,,,,,88.0,2.0,176.0,220.0,264.0,44.0,132.0,88.0,gray,hexagon
0.0,5.0,0.5,1.0,7.0,6.0,1196.5889220000463,4.0,1.0,phase_3,,,,,54.0,1.0,270.0,162.0,216.0,324.0,108.0,54.0,green,square
0.0,8.0,4.0,1.0,7.0,4.0,3169.042073000128,4.0,1.0,phase_3,,,,,234.0,6.0,195.0,39.0,78.0,234.0,156.0,117.0,blue,triangle
0.0,8.0,4.0,1.0,7.0,2.0,2757.5492559999475,4.0,1.0,phase_3,,,,,234.0,6.0,39.0,234.0,78.0,117.0,156.0,195.0,blue,triangle
0.0,3.0,2.0,0.0,7.0,1.0,4117.898634000085,4.0,1.0,phase_3,,,,,176.0,4.0,176.0,220.0,132.0,88.0,44.0,264.0,yellow,flipped triangle
0.0,4.0,4.0,0.0,7.0,2.0,4769.092475999969,4.0,1.0,phase_3,,,,,176.0,4.0,44.0,176.0,132.0,220.0,264.0,88.0,orange,cross
0.0,3.0,2.0,0.0,7.0,3.0,4160.182263999559,4.0,1.0,phase_3,,,,,270.0,5.0,108.0,54.0,270.0,162.0,324.0,216.0,yellow,flipped triangle
0.0,3.0,2.0,0.0,7.0,5.0,1980.8967300004952,4.0,1.0,phase_3,,,,,220.0,5.0,44.0,132.0,88.0,176.0,220.0,264.0,yellow,flipped triangle
0.0,1.0,0.5,0.0,7.0,6.0,3065.898152000045,4.0,1.0,phase_3,,,,,195.0,5.0,117.0,78.0,39.0,234.0,156.0,195.0,white,I
0.0,7.0,2.0,1.0,7.0,3.0,2825.968859000568,4.0,1.0,phase_3,,,,,98.0,2.0,147.0,196.0,98.0,245.0,49.0,294.0,gray,hexagon
0.0,4.0,4.0,0.0,7.0,5.0,3356.240641999648,4.0,1.0,phase_3,,,,,216.0,4.0,162.0,270.0,108.0,54.0,216.0,324.0,orange,cross
0.0,5.0,0.5,1.0,7.0,1.0,1001.3049359995421,4.0,1.0,phase_3,,,,,39.0,1.0,39.0,234.0,117.0,78.0,195.0,156.0,green,square
0.0,3.0,2.0,0.0,7.0,1.0,4276.503592000154,4.0,1.0,phase_3,,,,,156.0,4.0,156.0,78.0,195.0,117.0,234.0,39.0,yellow,flipped triangle
0.0,4.0,4.0,0.0,7.0,6.0,2672.692633999759,4.0,1.0,phase_3,,,,,170.0,5.0,136.0,68.0,34.0,204.0,102.0,170.0,orange,cross
0.0,5.0,0.5,1.0,7.0,2.0,2996.1175670005105,4.0,1.0,phase_3,,,,,44.0,1.0,176.0,44.0,88.0,264.0,220.0,132.0,green,square
0.0,3.0,2.0,0.0,7.0,5.0,3679.1865200002576,4.0,1.0,phase_3,,,,,147.0,3.0,98.0,245.0,49.0,196.0,147.0,294.0,yellow,flipped triangle
0.0,7.0,2.0,1.0,7.0,3.0,3316.265152000597,4.0,1.0,phase_3,,,,,68.0,2.0,170.0,204.0,68.0,34.0,136.0,102.0,gray,hexagon
0.0,7.0,2.0,1.0,7.0,2.0,1649.5064910004658,4.0,1.0,phase_3,,,,,78.0,2.0,195.0,78.0,117.0,39.0,234.0,156.0,gray,hexagon
0.0,2.0,1.0,0.0,7.0,6.0,1627.2331490008582,4.0,1.0,phase_3,,,,,156.0,4.0,234.0,195.0,78.0,39.0,117.0,156.0,magenta,circle
0.0,4.0,4.0,0.0,7.0,1.0,4039.2196150005484,4.0,1.0,phase_3,,,,,216.0,4.0,216.0,108.0,324.0,270.0,162.0,54.0,orange,cross
0.0,1.0,0.5,0.0,7.0,4.0,2282.736974999352,4.0,1.0,phase_3,,,,,216.0,4.0,324.0,162.0,54.0,216.0,108.0,270.0,white,I
