raw_reward_magnitude,stim_reward,stepwise_reward_magnitude,paired_with_stopping,stim_location,response,reaction_time,block,num_trial_presentations,which_phase,stop_signal_trial_type,left_SSD,right_SSD,accuracy,chosen_bidding_amount,chosen_bidding_level,possible_bid_1,possible_bid_2,possible_bid_3,possible_bid_4,possible_bid_5,possible_bid_6,color_text,shape_text
186.0,3.0,3.0,0.0,2.0,2.0,343.3992770001168,1.0,1.0,phase_1,,,,,,,,,,,,,cyan,diamond
0.0,7.0,0.0,1.0,3.0,3.0,324.9018189999333,1.0,1.0,phase_1,,,,,,,,,,,,,white,cross
81.0,2.0,2.0,0.0,4.0,4.0,287.5546160003068,1.0,1.0,phase_1,,,,,,,,,,,,,yellow,flipped triangle
0.0,4.0,0.0,0.0,4.0,4.0,273.5614769999301,1.0,1.0,phase_1,,,,,,,,,,,,,orange,triangle
81.0,6.0,2.0,1.0,2.0,2.0,309.3284729998231,1.0,1.0,phase_1,,,,,,,,,,,,,blue,hexagon
95.0,6.0,2.0,1.0,1.0,1.0,260.6177590000698,1.0,1.0,phase_1,,,,,,,,,,,,,blue,hexagon
121.0,6.0,2.0,1.0,1.0,1.0,302.3096399997484,1.0,1.0,phase_1,,,,,,,,,,,,,blue,hexagon
103.0,2.0,2.0,0.0,1.0,1.0,333.2783549999476,1.0,1.0,phase_1,,,,,,,,,,,,,yellow,flipped triangle
187.0,3.0,3.0,0.0,2.0,2.0,324.0775539998139,1.0,1.0,phase_1,,,,,,,,,,,,,cyan,diamond
201.0,3.0,3.0,0.0,3.0,3.0,278.3802690000811,1.0,1.0,phase_1,,,,,,,,,,,,,cyan,diamond
36.0,5.0,1.0,1.0,2.0,2.0,291.8977529998301,1.0,1.0,phase_1,,,,,,,,,,,,,gray,circle
222.0,3.0,3.0,0.0,1.0,1.0,253.6966299999221,1.0,1.0,phase_1,,,,,,,,,,,,,cyan,diamond
412.0,8.0,4.0,1.0,3.0,3.0,270.7732500002748,1.0,1.0,phase_1,,,,,,,,,,,,,green,I
411.0,8.0,4.0,1.0,2.0,2.0,293.0210909999005,1.0,1.0,phase_1,,,,,,,,,,,,,green,I
79.0,6.0,2.0,1.0,3.0,3.0,284.3543920002958,1.0,1.0,phase_1,,,,,,,,,,,,,blue,hexagon
183.0,7.0,3.0,1.0,3.0,3.0,272.7717810003014,1.0,1.0,phase_1,,,,,,,,,,,,,white,cross
215.0,7.0,3.0,1.0,3.0,3.0,284.4467519998943,1.0,1.0,phase_1,,,,,,,,,,,,,white,cross
90.0,6.0,2.0,1.0,4.0,4.0,269.9677420000625,1.0,1.0,phase_1,,,,,,,,,,,,,blue,hexagon
206.0,7.0,3.0,1.0,4.0,4.0,274.0487969999776,1.0,1.0,phase_1,,,,,,,,,,,,,white,cross
217.0,3.0,3.0,0.0,3.0,3.0,290.1966429999447,1.0,1.0,phase_1,,,,,,,,,,,,,cyan,diamond
414.0,8.0,4.0,1.0,1.0,1.0,250.4075560000274,1.0,1.0,phase_1,,,,,,,,,,,,,green,I
177.0,7.0,3.0,1.0,2.0,2.0,308.3261739998306,1.0,1.0,phase_1,,,,,,,,,,,,,white,cross
0.0,1.0,0.0,0.0,2.0,2.0,298.4400880000066,1.0,1.0,phase_1,,,,,,,,,,,,,magenta,square
195.0,7.0,3.0,1.0,4.0,4.0,227.1597010003461,1.0,1.0,phase_1,,,,,,,,,,,,,white,cross
0.0,2.0,0.0,0.0,4.0,4.0,268.1329269998969,1.0,1.0,phase_1,,,,,,,,,,,,,yellow,flipped triangle
64.0,5.0,1.0,1.0,3.0,3.0,269.7337299996434,1.0,1.0,phase_1,,,,,,,,,,,,,gray,circle
384.0,8.0,4.0,1.0,1.0,1.0,281.592511999861,1.0,1.0,phase_1,,,,,,,,,,,,,green,I
125.0,2.0,2.0,0.0,4.0,4.0,261.6330579999157,1.0,1.0,phase_1,,,,,,,,,,,,,yellow,flipped triangle
420.0,8.0,4.0,1.0,2.0,2.0,245.6792949997179,1.0,1.0,phase_1,,,,,,,,,,,,,green,I
112.0,6.0,2.0,1.0,2.0,2.0,259.5397799996135,1.0,1.0,phase_1,,,,,,,,,,,,,blue,hexagon
377.0,8.0,4.0,1.0,4.0,4.0,280.2128430002994,1.0,1.0,phase_1,,,,,,,,,,,,,green,I
86.0,6.0,2.0,1.0,1.0,1.0,293.7559129995861,1.0,1.0,phase_1,,,,,,,,,,,,,blue,hexagon
79.0,2.0,2.0,0.0,3.0,3.0,302.0322930005932,1.0,1.0,phase_1,,,,,,,,,,,,,yellow,flipped triangle
90.0,6.0,2.0,1.0,4.0,4.0,255.1535210004658,1.0,1.0,phase_1,,,,,,,,,,,,,blue,hexagon
123.0,2.0,2.0,0.0,2.0,2.0,268.888349000008,1.0,1.0,phase_1,,,,,,,,,,,,,yellow,flipped triangle
0.0,6.0,0.0,1.0,2.0,2.0,296.976533999441,1.0,1.0,phase_1,,,,,,,,,,,,,blue,hexagon
0.0,2.0,0.0,0.0,2.0,2.0,287.408103999951,1.0,1.0,phase_1,,,,,,,,,,,,,yellow,flipped triangle
213.0,7.0,3.0,1.0,4.0,4.0,245.776110999941,1.0,1.0,phase_1,,,,,,,,,,,,,white,cross
221.0,3.0,3.0,0.0,3.0,3.0,242.9852140003277,1.0,1.0,phase_1,,,,,,,,,,,,,cyan,diamond
111.0,2.0,2.0,0.0,1.0,1.0,227.25133200037808,1.0,1.0,phase_1,,,,,,,,,,,,,yellow,flipped triangle
182.0,7.0,3.0,1.0,3.0,3.0,292.713582000033,1.0,1.0,phase_1,,,,,,,,,,,,,white,cross
0.0,1.0,0.0,0.0,4.0,4.0,263.10312699934,1.0,1.0,phase_1,,,,,,,,,,,,,magenta,square
223.0,3.0,3.0,0.0,1.0,1.0,236.617606999971,1.0,1.0,phase_1,,,,,,,,,,,,,cyan,diamond
396.0,8.0,4.0,1.0,1.0,1.0,280.8324990000983,1.0,2.0,phase_1,,,,,,,,,,,,,green,I
45.0,5.0,1.0,1.0,1.0,1.0,288.3348489995114,1.0,1.0,phase_1,,,,,,,,,,,,,gray,circle
417.0,8.0,4.0,1.0,3.0,3.0,288.8427449997834,1.0,1.0,phase_1,,,,,,,,,,,,,green,I
75.0,2.0,2.0,0.0,1.0,1.0,270.4764909994992,1.0,1.0,phase_1,,,,,,,,,,,,,yellow,flipped triangle
189.0,3.0,3.0,0.0,3.0,3.0,289.4829130000289,1.0,1.0,phase_1,,,,,,,,,,,,,cyan,diamond
206.0,7.0,3.0,1.0,1.0,1.0,274.4171379999898,1.0,1.0,phase_1,,,,,,,,,,,,,white,cross
400.0,8.0,4.0,1.0,4.0,4.0,327.8594520006663,1.0,2.0,phase_1,,,,,,,,,,,,,green,I
421.0,4.0,4.0,0.0,3.0,3.0,320.0383509993116,1.0,1.0,phase_1,,,,,,,,,,,,,orange,triangle
223.0,7.0,3.0,1.0,2.0,2.0,337.2324080000908,1.0,1.0,phase_1,,,,,,,,,,,,,white,cross
0.0,5.0,0.0,1.0,1.0,1.0,269.195366000531,1.0,1.0,phase_1,,,,,,,,,,,,,gray,circle
48.0,5.0,1.0,1.0,4.0,4.0,301.3593220002803,1.0,1.0,phase_1,,,,,,,,,,,,,gray,circle
51.0,1.0,1.0,0.0,1.0,1.0,291.2840509998204,1.0,1.0,phase_1,,,,,,,,,,,,,magenta,square
47.0,5.0,1.0,1.0,3.0,3.0,317.4347509993822,1.0,1.0,phase_1,,,,,,,,,,,,,gray,circle
0.0,7.0,0.0,1.0,3.0,3.0,312.1557329995994,1.0,1.0,phase_1,,,,,,,,,,,,,white,cross
217.0,3.0,3.0,0.0,3.0,3.0,297.0584439999584,1.0,1.0,phase_1,,,,,,,,,,,,,cyan,diamond
125.0,6.0,2.0,1.0,1.0,1.0,302.2426739998991,1.0,1.0,phase_1,,,,,,,,,,,,,blue,hexagon
82.0,6.0,2.0,1.0,2.0,2.0,293.5096540004451,1.0,1.0,phase_1,,,,,,,,,,,,,blue,hexagon
0.0,4.0,0.0,0.0,2.0,2.0,298.966479000228,1.0,1.0,phase_1,,,,,,,,,,,,,orange,triangle
0.0,7.0,0.0,1.0,2.0,2.0,254.88746900009568,1.0,1.0,phase_1,,,,,,,,,,,,,white,cross
216.0,7.0,3.0,1.0,3.0,3.0,339.7229009997318,1.0,1.0,phase_1,,,,,,,,,,,,,white,cross
66.0,1.0,1.0,0.0,2.0,2.0,326.0725119998824,1.0,1.0,phase_1,,,,,,,,,,,,,magenta,square
92.0,6.0,2.0,1.0,3.0,3.0,282.5912139996944,1.0,1.0,phase_1,,,,,,,,,,,,,blue,hexagon
384.0,4.0,4.0,0.0,1.0,1.0,263.5717699995439,1.0,1.0,phase_1,,,,,,,,,,,,,orange,triangle
0.0,6.0,0.0,1.0,4.0,4.0,288.5690260000046,1.0,1.0,phase_1,,,,,,,,,,,,,blue,hexagon
35.0,5.0,1.0,1.0,3.0,3.0,291.5870390006603,1.0,1.0,phase_1,,,,,,,,,,,,,gray,circle
108.0,2.0,2.0,0.0,1.0,1.0,336.3851149997572,1.0,1.0,phase_1,,,,,,,,,,,,,yellow,flipped triangle
64.0,1.0,1.0,0.0,3.0,3.0,314.0255319995049,1.0,1.0,phase_1,,,,,,,,,,,,,magenta,square
213.0,3.0,3.0,0.0,4.0,4.0,292.610431999492,1.0,1.0,phase_1,,,,,,,,,,,,,cyan,diamond
35.0,1.0,1.0,0.0,1.0,1.0,267.4615500000072,1.0,1.0,phase_1,,,,,,,,,,,,,magenta,square
76.0,2.0,2.0,0.0,4.0,4.0,317.1298999995997,1.0,1.0,phase_1,,,,,,,,,,,,,yellow,flipped triangle
0.0,6.0,0.0,1.0,1.0,1.0,350.4774720004207,1.0,1.0,phase_1,,,,,,,,,,,,,blue,hexagon
52.0,5.0,1.0,1.0,1.0,1.0,313.3371780004381,1.0,1.0,phase_1,,,,,,,,,,,,,gray,circle
35.0,1.0,1.0,0.0,4.0,4.0,279.6316120002302,1.0,1.0,phase_1,,,,,,,,,,,,,magenta,square
87.0,2.0,2.0,0.0,2.0,2.0,322.107330000108,1.0,1.0,phase_1,,,,,,,,,,,,,yellow,flipped triangle
95.0,2.0,2.0,0.0,3.0,3.0,321.8871589997434,1.0,1.0,phase_1,,,,,,,,,,,,,yellow,flipped triangle
0.0,6.0,0.0,1.0,1.0,1.0,322.5073630001134,1.0,1.0,phase_1,,,,,,,,,,,,,blue,hexagon
396.0,4.0,4.0,0.0,3.0,3.0,248.9353740002116,1.0,1.0,phase_1,,,,,,,,,,,,,orange,triangle
0.0,5.0,0.0,1.0,3.0,3.0,316.2156919997869,1.0,1.0,phase_1,,,,,,,,,,,,,gray,circle
108.0,6.0,2.0,1.0,3.0,3.0,272.0956789999036,1.0,1.0,phase_1,,,,,,,,,,,,,blue,hexagon
221.0,7.0,3.0,1.0,4.0,4.0,244.2207249996499,1.0,1.0,phase_1,,,,,,,,,,,,,white,cross
58.0,1.0,1.0,0.0,4.0,4.0,267.1019789995625,1.0,1.0,phase_1,,,,,,,,,,,,,magenta,square
379.0,4.0,4.0,0.0,1.0,1.0,308.8215540001329,1.0,1.0,phase_1,,,,,,,,,,,,,orange,triangle
0.0,8.0,0.0,1.0,2.0,2.0,328.7310980003894,1.0,1.0,phase_1,,,,,,,,,,,,,green,I
39.0,1.0,1.0,0.0,2.0,2.0,338.9831499998763,1.0,1.0,phase_1,,,,,,,,,,,,,magenta,square
0.0,3.0,0.0,0.0,3.0,3.0,303.3536200000526,1.0,1.0,phase_1,,,,,,,,,,,,,cyan,diamond
49.0,5.0,1.0,1.0,2.0,2.0,311.9918720003625,1.0,1.0,phase_1,,,,,,,,,,,,,gray,circle
0.0,7.0,0.0,1.0,4.0,4.0,267.6392419998592,1.0,1.0,phase_1,,,,,,,,,,,,,white,cross
0.0,4.0,0.0,0.0,3.0,3.0,322.4375870004223,1.0,1.0,phase_1,,,,,,,,,,,,,orange,triangle
98.0,2.0,2.0,0.0,2.0,2.0,289.5058540007085,1.0,1.0,phase_1,,,,,,,,,,,,,yellow,flipped triangle
107.0,6.0,2.0,1.0,2.0,2.0,356.7125320005289,1.0,1.0,phase_1,,,,,,,,,,,,,blue,hexagon
0.0,4.0,0.0,0.0,3.0,3.0,300.3960590003771,1.0,1.0,phase_1,,,,,,,,,,,,,orange,triangle
400.0,4.0,4.0,0.0,1.0,1.0,340.9322850002354,1.0,1.0,phase_1,,,,,,,,,,,,,orange,triangle
387.0,4.0,4.0,0.0,2.0,2.0,327.3963430001458,1.0,1.0,phase_1,,,,,,,,,,,,,orange,triangle
217.0,7.0,3.0,1.0,1.0,1.0,368.4445250000863,1.0,1.0,phase_1,,,,,,,,,,,,,white,cross
42.0,5.0,1.0,1.0,4.0,4.0,287.8222250001272,1.0,1.0,phase_1,,,,,,,,,,,,,gray,circle
32.0,5.0,1.0,1.0,3.0,3.0,312.1410359999572,1.0,1.0,phase_1,,,,,,,,,,,,,gray,circle
39.0,5.0,1.0,1.0,4.0,4.0,295.7486059995062,1.0,1.0,phase_1,,,,,,,,,,,,,gray,circle
0.0,1.0,0.0,0.0,2.0,2.0,299.1789219995553,2.0,1.0,phase_1,,,,,,,,,,,,,magenta,square
380.0,4.0,4.0,0.0,1.0,1.0,262.1380100008537,2.0,1.0,phase_1,,,,,,,,,,,,,orange,triangle
106.0,6.0,2.0,1.0,3.0,3.0,281.5498489999299,2.0,1.0,phase_1,,,,,,,,,,,,,blue,hexagon
419.0,8.0,4.0,1.0,3.0,3.0,300.0861169994095,2.0,1.0,phase_1,,,,,,,,,,,,,green,I
72.0,1.0,1.0,0.0,1.0,1.0,283.3092319997377,2.0,1.0,phase_1,,,,,,,,,,,,,magenta,square
380.0,8.0,4.0,1.0,3.0,3.0,272.7552830001514,2.0,1.0,phase_1,,,,,,,,,,,,,green,I
123.0,2.0,2.0,0.0,3.0,3.0,314.3989130003319,2.0,1.0,phase_1,,,,,,,,,,,,,yellow,flipped triangle
221.0,3.0,3.0,0.0,3.0,3.0,336.329673000364,2.0,1.0,phase_1,,,,,,,,,,,,,cyan,diamond
0.0,1.0,0.0,0.0,4.0,4.0,275.7440830000632,2.0,1.0,phase_1,,,,,,,,,,,,,magenta,square
397.0,8.0,4.0,1.0,1.0,1.0,247.7453479996256,2.0,1.0,phase_1,,,,,,,,,,,,,green,I
383.0,8.0,4.0,1.0,1.0,1.0,290.1173059999564,2.0,1.0,phase_1,,,,,,,,,,,,,green,I
0.0,7.0,0.0,1.0,2.0,2.0,320.8019849998891,2.0,1.0,phase_1,,,,,,,,,,,,,white,cross
0.0,1.0,0.0,0.0,4.0,4.0,289.244397999937,2.0,1.0,phase_1,,,,,,,,,,,,,magenta,square
0.0,4.0,0.0,0.0,4.0,4.0,296.6680609997638,2.0,1.0,phase_1,,,,,,,,,,,,,orange,triangle
69.0,1.0,1.0,0.0,3.0,3.0,338.6948600000323,2.0,1.0,phase_1,,,,,,,,,,,,,magenta,square
200.0,7.0,3.0,1.0,1.0,1.0,284.1362299996035,2.0,1.0,phase_1,,,,,,,,,,,,,white,cross
398.0,8.0,4.0,1.0,1.0,1.0,407.3028290004004,2.0,1.0,phase_1,,,,,,,,,,,,,green,I
393.0,8.0,4.0,1.0,2.0,2.0,345.151481999892,2.0,1.0,phase_1,,,,,,,,,,,,,green,I
101.0,6.0,2.0,1.0,4.0,4.0,285.0825870000335,2.0,1.0,phase_1,,,,,,,,,,,,,blue,hexagon
406.0,4.0,4.0,0.0,3.0,3.0,335.2801229993929,2.0,1.0,phase_1,,,,,,,,,,,,,orange,triangle
0.0,6.0,0.0,1.0,3.0,3.0,291.3276729996141,2.0,1.0,phase_1,,,,,,,,,,,,,blue,hexagon
214.0,3.0,3.0,0.0,4.0,4.0,250.33541699940542,2.0,1.0,phase_1,,,,,,,,,,,,,cyan,diamond
176.0,3.0,3.0,0.0,4.0,4.0,357.7499220000391,2.0,1.0,phase_1,,,,,,,,,,,,,cyan,diamond
100.0,6.0,2.0,1.0,2.0,2.0,297.7000720002252,2.0,1.0,phase_1,,,,,,,,,,,,,blue,hexagon
389.0,4.0,4.0,0.0,4.0,4.0,303.2274509996568,2.0,1.0,phase_1,,,,,,,,,,,,,orange,triangle
0.0,4.0,0.0,0.0,3.0,3.0,305.8873009995295,2.0,1.0,phase_1,,,,,,,,,,,,,orange,triangle
218.0,3.0,3.0,0.0,2.0,2.0,308.7415509999118,2.0,1.0,phase_1,,,,,,,,,,,,,cyan,diamond
383.0,8.0,4.0,1.0,3.0,3.0,324.0990499998588,2.0,1.0,phase_1,,,,,,,,,,,,,green,I
107.0,2.0,2.0,0.0,4.0,4.0,289.6695760000511,2.0,1.0,phase_1,,,,,,,,,,,,,yellow,flipped triangle
114.0,2.0,2.0,0.0,3.0,3.0,290.8507960000861,2.0,1.0,phase_1,,,,,,,,,,,,,yellow,flipped triangle
0.0,8.0,0.0,1.0,1.0,1.0,320.2376290000757,2.0,1.0,phase_1,,,,,,,,,,,,,green,I
0.0,5.0,0.0,1.0,4.0,4.0,295.4154190001645,2.0,1.0,phase_1,,,,,,,,,,,,,gray,circle
0.0,1.0,0.0,0.0,3.0,3.0,279.2867280004429,2.0,1.0,phase_1,,,,,,,,,,,,,magenta,square
104.0,6.0,2.0,1.0,2.0,2.0,357.8736309991654,2.0,2.0,phase_1,,,,,,,,,,,,,blue,hexagon
63.0,1.0,1.0,0.0,2.0,2.0,331.1529930006145,2.0,1.0,phase_1,,,,,,,,,,,,,magenta,square
69.0,5.0,1.0,1.0,2.0,2.0,344.9580470005458,2.0,1.0,phase_1,,,,,,,,,,,,,gray,circle
384.0,4.0,4.0,0.0,1.0,1.0,306.9954800002961,2.0,1.0,phase_1,,,,,,,,,,,,,orange,triangle
31.0,5.0,1.0,1.0,4.0,4.0,324.6377659997961,2.0,1.0,phase_1,,,,,,,,,,,,,gray,circle
393.0,4.0,4.0,0.0,2.0,2.0,291.2008310004239,2.0,1.0,phase_1,,,,,,,,,,,,,orange,triangle
214.0,3.0,3.0,0.0,1.0,1.0,308.5101280003073,2.0,1.0,phase_1,,,,,,,,,,,,,cyan,diamond
201.0,7.0,3.0,1.0,2.0,2.0,329.8875979999138,2.0,1.0,phase_1,,,,,,,,,,,,,white,cross
182.0,3.0,3.0,0.0,2.0,2.0,305.02640099985,2.0,1.0,phase_1,,,,,,,,,,,,,cyan,diamond
0.0,7.0,0.0,1.0,3.0,3.0,307.5536489996011,2.0,1.0,phase_1,,,,,,,,,,,,,white,cross
0.0,3.0,0.0,0.0,2.0,2.0,324.1360760002862,2.0,1.0,phase_1,,,,,,,,,,,,,cyan,diamond
0.0,4.0,0.0,0.0,3.0,3.0,325.4713319993243,2.0,2.0,phase_1,,,,,,,,,,,,,orange,triangle
214.0,7.0,3.0,1.0,4.0,4.0,350.9400799994182,2.0,1.0,phase_1,,,,,,,,,,,,,white,cross
42.0,5.0,1.0,1.0,3.0,3.0,367.8631349994248,2.0,1.0,phase_1,,,,,,,,,,,,,gray,circle
37.0,1.0,1.0,0.0,2.0,2.0,338.0660359998728,2.0,1.0,phase_1,,,,,,,,,,,,,magenta,square
74.0,1.0,1.0,0.0,3.0,3.0,303.5732640000788,2.0,1.0,phase_1,,,,,,,,,,,,,magenta,square
387.0,8.0,4.0,1.0,3.0,3.0,322.1143959999608,2.0,1.0,phase_1,,,,,,,,,,,,,green,I
40.0,1.0,1.0,0.0,2.0,2.0,341.8465710001328,2.0,1.0,phase_1,,,,,,,,,,,,,magenta,square
93.0,6.0,2.0,1.0,3.0,3.0,295.2359470000374,2.0,1.0,phase_1,,,,,,,,,,,,,blue,hexagon
67.0,1.0,1.0,0.0,3.0,3.0,301.4704540000821,2.0,1.0,phase_1,,,,,,,,,,,,,magenta,square
179.0,3.0,3.0,0.0,3.0,3.0,308.6550699999861,2.0,1.0,phase_1,,,,,,,,,,,,,cyan,diamond
91.0,2.0,2.0,0.0,1.0,1.0,364.6330459996534,2.0,1.0,phase_1,,,,,,,,,,,,,yellow,flipped triangle
187.0,7.0,3.0,1.0,2.0,2.0,346.0124130006079,2.0,1.0,phase_1,,,,,,,,,,,,,white,cross
393.0,4.0,4.0,0.0,2.0,2.0,388.246755000182,2.0,1.0,phase_1,,,,,,,,,,,,,orange,triangle
74.0,5.0,1.0,1.0,2.0,2.0,360.1963259998229,2.0,1.0,phase_1,,,,,,,,,,,,,gray,circle
63.0,5.0,1.0,1.0,2.0,2.0,350.2453080000123,2.0,1.0,phase_1,,,,,,,,,,,,,gray,circle
419.0,8.0,4.0,1.0,2.0,2.0,342.4377929995899,2.0,1.0,phase_1,,,,,,,,,,,,,green,I
50.0,5.0,1.0,1.0,3.0,3.0,352.9206480006905,2.0,1.0,phase_1,,,,,,,,,,,,,gray,circle
213.0,3.0,3.0,0.0,2.0,2.0,342.2867589997622,2.0,1.0,phase_1,,,,,,,,,,,,,cyan,diamond
216.0,3.0,3.0,0.0,1.0,1.0,369.7494049993111,2.0,1.0,phase_1,,,,,,,,,,,,,cyan,diamond
179.0,3.0,3.0,0.0,4.0,4.0,281.5802960003566,2.0,1.0,phase_1,,,,,,,,,,,,,cyan,diamond
0.0,5.0,0.0,1.0,4.0,4.0,306.9746569999552,2.0,1.0,phase_1,,,,,,,,,,,,,gray,circle
60.0,5.0,1.0,1.0,4.0,4.0,390.5161710008542,2.0,1.0,phase_1,,,,,,,,,,,,,gray,circle
206.0,3.0,3.0,0.0,4.0,4.0,269.4078530003025,2.0,1.0,phase_1,,,,,,,,,,,,,cyan,diamond
390.0,4.0,4.0,0.0,1.0,1.0,336.5322019999439,2.0,1.0,phase_1,,,,,,,,,,,,,orange,triangle
120.0,2.0,2.0,0.0,3.0,3.0,349.95104599966,2.0,1.0,phase_1,,,,,,,,,,,,,yellow,flipped triangle
412.0,4.0,4.0,0.0,2.0,2.0,406.5706659994248,2.0,1.0,phase_1,,,,,,,,,,,,,orange,triangle
109.0,2.0,2.0,0.0,4.0,4.0,320.7021300004271,2.0,1.0,phase_1,,,,,,,,,,,,,yellow,flipped triangle
92.0,2.0,2.0,0.0,2.0,2.0,347.5077820003207,2.0,1.0,phase_1,,,,,,,,,,,,,yellow,flipped triangle
53.0,5.0,1.0,1.0,1.0,1.0,272.6882229999319,2.0,1.0,phase_1,,,,,,,,,,,,,gray,circle
0.0,7.0,0.0,1.0,2.0,2.0,297.0540080004866,2.0,1.0,phase_1,,,,,,,,,,,,,white,cross
179.0,7.0,3.0,1.0,2.0,2.0,335.4286880003201,2.0,1.0,phase_1,,,,,,,,,,,,,white,cross
416.0,8.0,4.0,1.0,2.0,2.0,289.0685470001699,2.0,1.0,phase_1,,,,,,,,,,,,,green,I
0.0,3.0,0.0,0.0,1.0,1.0,319.3423080001594,2.0,1.0,phase_1,,,,,,,,,,,,,cyan,diamond
376.0,4.0,4.0,0.0,3.0,3.0,347.8634269995382,2.0,1.0,phase_1,,,,,,,,,,,,,orange,triangle
0.0,8.0,0.0,1.0,4.0,4.0,327.9011690001425,2.0,1.0,phase_1,,,,,,,,,,,,,green,I
214.0,7.0,3.0,1.0,1.0,1.0,349.3895730007352,2.0,1.0,phase_1,,,,,,,,,,,,,white,cross
91.0,6.0,2.0,1.0,2.0,2.0,317.5664359996517,2.0,1.0,phase_1,,,,,,,,,,,,,blue,hexagon
218.0,7.0,3.0,1.0,1.0,1.0,314.9609490001239,2.0,1.0,phase_1,,,,,,,,,,,,,white,cross
0.0,7.0,0.0,1.0,4.0,4.0,404.4583879995116,2.0,1.0,phase_1,,,,,,,,,,,,,white,cross
51.0,5.0,1.0,1.0,2.0,2.0,346.9402649998301,2.0,1.0,phase_1,,,,,,,,,,,,,gray,circle
0.0,2.0,0.0,0.0,4.0,4.0,305.0693559998763,2.0,1.0,phase_1,,,,,,,,,,,,,yellow,flipped triangle
62.0,5.0,1.0,1.0,2.0,2.0,363.019622000138,2.0,1.0,phase_1,,,,,,,,,,,,,gray,circle
0.0,2.0,0.0,0.0,4.0,4.0,310.2844469995034,2.0,1.0,phase_1,,,,,,,,,,,,,yellow,flipped triangle
397.0,4.0,4.0,0.0,1.0,1.0,273.2399960004841,2.0,1.0,phase_1,,,,,,,,,,,,,orange,triangle
37.0,1.0,1.0,0.0,1.0,1.0,314.6605410001939,2.0,1.0,phase_1,,,,,,,,,,,,,magenta,square
117.0,6.0,2.0,1.0,3.0,3.0,340.7433780002975,2.0,2.0,phase_1,,,,,,,,,,,,,blue,hexagon
197.0,3.0,3.0,0.0,3.0,3.0,359.7153549999348,2.0,1.0,phase_1,,,,,,,,,,,,,cyan,diamond
123.0,6.0,2.0,1.0,4.0,4.0,329.4114400005128,2.0,1.0,phase_1,,,,,,,,,,,,,blue,hexagon
215.0,3.0,3.0,0.0,4.0,4.0,344.2638209999131,2.0,1.0,phase_1,,,,,,,,,,,,,cyan,diamond
417.0,4.0,4.0,0.0,4.0,4.0,345.8453200000804,2.0,1.0,phase_1,,,,,,,,,,,,,orange,triangle
221.0,7.0,3.0,1.0,1.0,1.0,328.4756879993438,2.0,1.0,phase_1,,,,,,,,,,,,,white,cross
416.0,4.0,4.0,0.0,2.0,2.0,373.0461490004018,2.0,1.0,phase_1,,,,,,,,,,,,,orange,triangle
35.0,5.0,1.0,1.0,2.0,2.0,319.6991459999481,2.0,1.0,phase_1,,,,,,,,,,,,,gray,circle
419.0,4.0,4.0,0.0,3.0,3.0,363.184924000052,2.0,1.0,phase_1,,,,,,,,,,,,,orange,triangle
0.0,8.0,0.0,1.0,1.0,1.0,333.2309830002486,2.0,1.0,phase_1,,,,,,,,,,,,,green,I
183.0,3.0,3.0,0.0,4.0,4.0,350.2654510002685,2.0,1.0,phase_1,,,,,,,,,,,,,cyan,diamond
52.0,5.0,1.0,1.0,4.0,4.0,394.6056569993743,3.0,1.0,phase_1,,,,,,,,,,,,,gray,circle
96.0,2.0,2.0,0.0,3.0,3.0,345.81665099995,3.0,1.0,phase_1,,,,,,,,,,,,,yellow,flipped triangle
409.0,8.0,4.0,1.0,4.0,4.0,338.7043960001392,3.0,1.0,phase_1,,,,,,,,,,,,,green,I
182.0,7.0,3.0,1.0,2.0,2.0,331.5456729997095,3.0,1.0,phase_1,,,,,,,,,,,,,white,cross
188.0,3.0,3.0,0.0,2.0,2.0,377.4807170002532,3.0,1.0,phase_1,,,,,,,,,,,,,cyan,diamond
51.0,5.0,1.0,1.0,1.0,1.0,317.0213640005386,3.0,1.0,phase_1,,,,,,,,,,,,,gray,circle
95.0,6.0,2.0,1.0,1.0,1.0,321.3305319995925,3.0,1.0,phase_1,,,,,,,,,,,,,blue,hexagon
123.0,6.0,2.0,1.0,3.0,3.0,354.3756789995314,3.0,1.0,phase_1,,,,,,,,,,,,,blue,hexagon
180.0,7.0,3.0,1.0,2.0,2.0,323.9387710000301,3.0,1.0,phase_1,,,,,,,,,,,,,white,cross
37.0,5.0,1.0,1.0,2.0,2.0,320.7617050002227,3.0,1.0,phase_1,,,,,,,,,,,,,gray,circle
0.0,5.0,0.0,1.0,2.0,2.0,345.0469280005563,3.0,1.0,phase_1,,,,,,,,,,,,,gray,circle
395.0,4.0,4.0,0.0,3.0,3.0,360.1981990004788,3.0,1.0,phase_1,,,,,,,,,,,,,orange,triangle
206.0,3.0,3.0,0.0,2.0,2.0,353.0944719996114,3.0,1.0,phase_1,,,,,,,,,,,,,cyan,diamond
51.0,1.0,1.0,0.0,2.0,2.0,336.3053049997688,3.0,1.0,phase_1,,,,,,,,,,,,,magenta,square
206.0,3.0,3.0,0.0,1.0,1.0,332.697728000312,3.0,1.0,phase_1,,,,,,,,,,,,,cyan,diamond
90.0,2.0,2.0,0.0,4.0,4.0,364.006316999621,3.0,1.0,phase_1,,,,,,,,,,,,,yellow,flipped triangle
103.0,2.0,2.0,0.0,3.0,3.0,371.676875999583,3.0,1.0,phase_1,,,,,,,,,,,,,yellow,flipped triangle
57.0,1.0,1.0,0.0,3.0,3.0,386.5323679992798,3.0,1.0,phase_1,,,,,,,,,,,,,magenta,square
76.0,2.0,2.0,0.0,3.0,3.0,418.5085979997893,3.0,1.0,phase_1,,,,,,,,,,,,,yellow,flipped triangle
0.0,8.0,0.0,1.0,3.0,3.0,333.3648369998627,3.0,1.0,phase_1,,,,,,,,,,,,,green,I
186.0,7.0,3.0,1.0,3.0,3.0,332.16314999936,3.0,1.0,phase_1,,,,,,,,,,,,,white,cross
217.0,7.0,3.0,1.0,1.0,1.0,333.6461070002769,3.0,1.0,phase_1,,,,,,,,,,,,,white,cross
405.0,8.0,4.0,1.0,2.0,2.0,339.5861090002654,3.0,1.0,phase_1,,,,,,,,,,,,,green,I
62.0,1.0,1.0,0.0,3.0,3.0,360.9848920004879,3.0,1.0,phase_1,,,,,,,,,,,,,magenta,square
66.0,5.0,1.0,1.0,3.0,3.0,353.024610999455,3.0,1.0,phase_1,,,,,,,,,,,,,gray,circle
98.0,6.0,2.0,1.0,3.0,3.0,356.2333429999853,3.0,1.0,phase_1,,,,,,,,,,,,,blue,hexagon
100.0,2.0,2.0,0.0,3.0,3.0,388.5284660000252,3.0,1.0,phase_1,,,,,,,,,,,,,yellow,flipped triangle
0.0,8.0,0.0,1.0,1.0,1.0,340.4028749991994,3.0,1.0,phase_1,,,,,,,,,,,,,green,I
0.0,2.0,0.0,0.0,1.0,1.0,305.0480230003813,3.0,1.0,phase_1,,,,,,,,,,,,,yellow,flipped triangle
0.0,5.0,0.0,1.0,3.0,3.0,348.7200149993441,3.0,1.0,phase_1,,,,,,,,,,,,,gray,circle
420.0,4.0,4.0,0.0,2.0,2.0,353.3701890000884,3.0,1.0,phase_1,,,,,,,,,,,,,orange,triangle
124.0,6.0,2.0,1.0,4.0,4.0,413.6574180001844,3.0,1.0,phase_1,,,,,,,,,,,,,blue,hexagon
415.0,4.0,4.0,0.0,4.0,4.0,395.2755299997079,3.0,1.0,phase_1,,,,,,,,,,,,,orange,triangle
74.0,1.0,1.0,0.0,1.0,1.0,356.9248590001734,3.0,1.0,phase_1,,,,,,,,,,,,,magenta,square
47.0,1.0,1.0,0.0,4.0,4.0,343.2094800000413,3.0,1.0,phase_1,,,,,,,,,,,,,magenta,square
177.0,3.0,3.0,0.0,1.0,1.0,309.8689369999192,3.0,1.0,phase_1,,,,,,,,,,,,,cyan,diamond
96.0,6.0,2.0,1.0,2.0,2.0,337.2520510001777,3.0,1.0,phase_1,,,,,,,,,,,,,blue,hexagon
387.0,4.0,4.0,0.0,3.0,3.0,370.6332880001355,3.0,1.0,phase_1,,,,,,,,,,,,,orange,triangle
405.0,4.0,4.0,0.0,2.0,2.0,360.2308709996578,3.0,1.0,phase_1,,,,,,,,,,,,,orange,triangle
0.0,7.0,0.0,1.0,2.0,2.0,347.2589130005872,3.0,1.0,phase_1,,,,,,,,,,,,,white,cross
0.0,1.0,0.0,0.0,4.0,4.0,319.68500199945987,3.0,1.0,phase_1,,,,,,,,,,,,,magenta,square
177.0,7.0,3.0,1.0,4.0,4.0,331.9287670001358,3.0,1.0,phase_1,,,,,,,,,,,,,white,cross
0.0,4.0,0.0,0.0,3.0,3.0,342.0564400003059,3.0,1.0,phase_1,,,,,,,,,,,,,orange,triangle
0.0,8.0,0.0,1.0,2.0,2.0,330.6166779993873,3.0,1.0,phase_1,,,,,,,,,,,,,green,I
415.0,4.0,4.0,0.0,4.0,4.0,336.39682500052,3.0,1.0,phase_1,,,,,,,,,,,,,orange,triangle
0.0,2.0,0.0,0.0,4.0,4.0,322.4558479996631,3.0,1.0,phase_1,,,,,,,,,,,,,yellow,flipped triangle
87.0,6.0,2.0,1.0,1.0,1.0,301.4793850006754,3.0,1.0,phase_1,,,,,,,,,,,,,blue,hexagon
117.0,2.0,2.0,0.0,4.0,4.0,383.9462360001562,3.0,1.0,phase_1,,,,,,,,,,,,,yellow,flipped triangle
30.0,1.0,1.0,0.0,4.0,4.0,415.0586360001398,3.0,1.0,phase_1,,,,,,,,,,,,,magenta,square
0.0,3.0,0.0,0.0,3.0,3.0,409.0444369994657,3.0,1.0,phase_1,,,,,,,,,,,,,cyan,diamond
376.0,4.0,4.0,0.0,1.0,1.0,375.6596009998247,3.0,1.0,phase_1,,,,,,,,,,,,,orange,triangle
421.0,8.0,4.0,1.0,4.0,4.0,499.8103610005273,3.0,1.0,phase_1,,,,,,,,,,,,,green,I
73.0,1.0,1.0,0.0,4.0,4.0,324.725390999447,3.0,1.0,phase_1,,,,,,,,,,,,,magenta,square
40.0,1.0,1.0,0.0,3.0,3.0,356.4567559997158,3.0,1.0,phase_1,,,,,,,,,,,,,magenta,square
409.0,4.0,4.0,0.0,1.0,1.0,337.1199610000985,3.0,1.0,phase_1,,,,,,,,,,,,,orange,triangle
383.0,4.0,4.0,0.0,4.0,4.0,321.2171450004462,3.0,1.0,phase_1,,,,,,,,,,,,,orange,triangle
62.0,1.0,1.0,0.0,3.0,3.0,345.8676329992158,3.0,1.0,phase_1,,,,,,,,,,,,,magenta,square
82.0,2.0,2.0,0.0,1.0,1.0,370.9972469996501,3.0,1.0,phase_1,,,,,,,,,,,,,yellow,flipped triangle
42.0,1.0,1.0,0.0,3.0,3.0,349.14430399931,3.0,1.0,phase_1,,,,,,,,,,,,,magenta,square
0.0,1.0,0.0,0.0,2.0,2.0,325.186749999375,3.0,1.0,phase_1,,,,,,,,,,,,,magenta,square
0.0,3.0,0.0,0.0,3.0,3.0,328.0471319994831,3.0,1.0,phase_1,,,,,,,,,,,,,cyan,diamond
60.0,1.0,1.0,0.0,3.0,3.0,321.0987600004955,3.0,1.0,phase_1,,,,,,,,,,,,,magenta,square
192.0,7.0,3.0,1.0,3.0,3.0,356.6837839998698,3.0,1.0,phase_1,,,,,,,,,,,,,white,cross
192.0,3.0,3.0,0.0,1.0,1.0,399.1298000000824,3.0,1.0,phase_1,,,,,,,,,,,,,cyan,diamond
76.0,6.0,2.0,1.0,4.0,4.0,302.7132329998494,3.0,1.0,phase_1,,,,,,,,,,,,,blue,hexagon
421.0,4.0,4.0,0.0,4.0,4.0,329.6029040002395,3.0,1.0,phase_1,,,,,,,,,,,,,orange,triangle
0.0,1.0,0.0,0.0,4.0,4.0,319.5682059995306,3.0,1.0,phase_1,,,,,,,,,,,,,magenta,square
0.0,3.0,0.0,0.0,2.0,2.0,366.122649999852,3.0,2.0,phase_1,,,,,,,,,,,,,cyan,diamond
101.0,2.0,2.0,0.0,1.0,1.0,393.0081850003262,3.0,1.0,phase_1,,,,,,,,,,,,,yellow,flipped triangle
188.0,7.0,3.0,1.0,3.0,3.0,403.9009139996778,3.0,1.0,phase_1,,,,,,,,,,,,,white,cross
195.0,3.0,3.0,0.0,4.0,4.0,357.8998049997608,3.0,1.0,phase_1,,,,,,,,,,,,,cyan,diamond
190.0,3.0,3.0,0.0,2.0,2.0,347.9718079997838,3.0,1.0,phase_1,,,,,,,,,,,,,cyan,diamond
36.0,1.0,1.0,0.0,4.0,4.0,345.857304000674,3.0,1.0,phase_1,,,,,,,,,,,,,magenta,square
200.0,3.0,3.0,0.0,1.0,1.0,377.0651639997595,3.0,1.0,phase_1,,,,,,,,,,,,,cyan,diamond
393.0,8.0,4.0,1.0,4.0,4.0,333.9694379992579,3.0,1.0,phase_1,,,,,,,,,,,,,green,I
410.0,8.0,4.0,1.0,3.0,3.0,411.6984559996126,3.0,1.0,phase_1,,,,,,,,,,,,,green,I
0.0,5.0,0.0,1.0,1.0,1.0,346.0495709996394,3.0,1.0,phase_1,,,,,,,,,,,,,gray,circle
0.0,4.0,0.0,0.0,1.0,1.0,387.742924000122,3.0,1.0,phase_1,,,,,,,,,,,,,orange,triangle
222.0,7.0,3.0,1.0,2.0,2.0,363.3710650001376,3.0,1.0,phase_1,,,,,,,,,,,,,white,cross
177.0,3.0,3.0,0.0,2.0,2.0,375.8987880000859,3.0,1.0,phase_1,,,,,,,,,,,,,cyan,diamond
86.0,2.0,2.0,0.0,2.0,2.0,418.4920350007814,3.0,1.0,phase_1,,,,,,,,,,,,,yellow,flipped triangle
0.0,5.0,0.0,1.0,3.0,3.0,367.0526530004281,3.0,1.0,phase_1,,,,,,,,,,,,,gray,circle
72.0,5.0,1.0,1.0,1.0,1.0,374.945158000628,3.0,1.0,phase_1,,,,,,,,,,,,,gray,circle
210.0,3.0,3.0,0.0,4.0,4.0,347.5887309996324,3.0,1.0,phase_1,,,,,,,,,,,,,cyan,diamond
49.0,1.0,1.0,0.0,1.0,1.0,350.7229349997942,3.0,1.0,phase_1,,,,,,,,,,,,,magenta,square
420.0,4.0,4.0,0.0,2.0,2.0,356.0995130001174,3.0,1.0,phase_1,,,,,,,,,,,,,orange,triangle
0.0,5.0,0.0,1.0,3.0,3.0,359.1036759999042,3.0,1.0,phase_1,,,,,,,,,,,,,gray,circle
199.0,7.0,3.0,1.0,3.0,3.0,384.9650209995161,3.0,1.0,phase_1,,,,,,,,,,,,,white,cross
379.0,8.0,4.0,1.0,2.0,2.0,416.9338749998132,3.0,1.0,phase_1,,,,,,,,,,,,,green,I
210.0,3.0,3.0,0.0,1.0,1.0,362.8786819999732,3.0,1.0,phase_1,,,,,,,,,,,,,cyan,diamond
0.0,5.0,0.0,1.0,2.0,2.0,394.6283099994616,3.0,1.0,phase_1,,,,,,,,,,,,,gray,circle
74.0,5.0,1.0,1.0,2.0,2.0,419.1357180006889,3.0,1.0,phase_1,,,,,,,,,,,,,gray,circle
76.0,6.0,2.0,1.0,4.0,4.0,375.3238159997636,3.0,1.0,phase_1,,,,,,,,,,,,,blue,hexagon
124.0,2.0,2.0,0.0,4.0,4.0,363.4957929998563,3.0,1.0,phase_1,,,,,,,,,,,,,yellow,flipped triangle
390.0,8.0,4.0,1.0,2.0,2.0,342.2366670001793,3.0,1.0,phase_1,,,,,,,,,,,,,green,I
115.0,6.0,2.0,1.0,2.0,2.0,333.7019520004105,3.0,1.0,phase_1,,,,,,,,,,,,,blue,hexagon
30.0,5.0,1.0,1.0,1.0,1.0,367.9316750003636,3.0,1.0,phase_1,,,,,,,,,,,,,gray,circle
67.0,5.0,1.0,1.0,4.0,4.0,342.4388330004149,3.0,1.0,phase_1,,,,,,,,,,,,,gray,circle
106.0,2.0,2.0,0.0,3.0,3.0,397.1242210000127,3.0,1.0,phase_1,,,,,,,,,,,,,yellow,flipped triangle
44.0,1.0,1.0,0.0,4.0,4.0,391.7892019999272,3.0,1.0,phase_1,,,,,,,,,,,,,magenta,square
384.0,8.0,4.0,1.0,4.0,4.0,303.1715020006231,4.0,1.0,phase_1,,,,,,,,,,,,,green,I
0.0,6.0,0.0,1.0,2.0,2.0,345.0648829993952,4.0,1.0,phase_1,,,,,,,,,,,,,blue,hexagon
104.0,2.0,2.0,0.0,1.0,1.0,298.7416030000531,4.0,1.0,phase_1,,,,,,,,,,,,,yellow,flipped triangle
73.0,5.0,1.0,1.0,4.0,4.0,316.4226669996424,4.0,1.0,phase_1,,,,,,,,,,,,,gray,circle
186.0,3.0,3.0,0.0,3.0,3.0,292.7577569998902,4.0,1.0,phase_1,,,,,,,,,,,,,cyan,diamond
376.0,8.0,4.0,1.0,3.0,3.0,299.9314059998141,4.0,1.0,phase_1,,,,,,,,,,,,,green,I
190.0,7.0,3.0,1.0,4.0,4.0,289.2434000004868,4.0,1.0,phase_1,,,,,,,,,,,,,white,cross
0.0,8.0,0.0,1.0,2.0,2.0,352.4823079997077,4.0,1.0,phase_1,,,,,,,,,,,,,green,I
40.0,5.0,1.0,1.0,1.0,1.0,340.9419569998135,4.0,1.0,phase_1,,,,,,,,,,,,,gray,circle
0.0,8.0,0.0,1.0,4.0,4.0,311.5442759999496,4.0,1.0,phase_1,,,,,,,,,,,,,green,I
0.0,6.0,0.0,1.0,1.0,1.0,362.212226000338,4.0,1.0,phase_1,,,,,,,,,,,,,blue,hexagon
186.0,7.0,3.0,1.0,4.0,4.0,309.7304829998393,4.0,1.0,phase_1,,,,,,,,,,,,,white,cross
179.0,7.0,3.0,1.0,1.0,1.0,335.7047220006279,4.0,1.0,phase_1,,,,,,,,,,,,,white,cross
398.0,4.0,4.0,0.0,1.0,1.0,376.8976310002472,4.0,1.0,phase_1,,,,,,,,,,,,,orange,triangle
75.0,6.0,2.0,1.0,1.0,1.0,340.2768800006015,4.0,1.0,phase_1,,,,,,,,,,,,,blue,hexagon
87.0,6.0,2.0,1.0,3.0,3.0,328.50576599958,4.0,1.0,phase_1,,,,,,,,,,,,,blue,hexagon
415.0,8.0,4.0,1.0,3.0,3.0,331.2497750002876,4.0,1.0,phase_1,,,,,,,,,,,,,green,I
0.0,6.0,0.0,1.0,3.0,3.0,330.7494290002069,4.0,1.0,phase_1,,,,,,,,,,,,,blue,hexagon
200.0,3.0,3.0,0.0,2.0,2.0,321.5392100000827,4.0,1.0,phase_1,,,,,,,,,,,,,cyan,diamond
200.0,7.0,3.0,1.0,4.0,4.0,310.299433000182,4.0,1.0,phase_1,,,,,,,,,,,,,white,cross
103.0,6.0,2.0,1.0,4.0,4.0,379.6966679992692,4.0,1.0,phase_1,,,,,,,,,,,,,blue,hexagon
414.0,4.0,4.0,0.0,3.0,3.0,340.8906190006746,4.0,1.0,phase_1,,,,,,,,,,,,,orange,triangle
389.0,8.0,4.0,1.0,4.0,4.0,348.676639999212,4.0,1.0,phase_1,,,,,,,,,,,,,green,I
112.0,2.0,2.0,0.0,4.0,4.0,327.7610850000201,4.0,1.0,phase_1,,,,,,,,,,,,,yellow,flipped triangle
387.0,8.0,4.0,1.0,2.0,2.0,339.755809000053,4.0,1.0,phase_1,,,,,,,,,,,,,green,I
0.0,6.0,0.0,1.0,2.0,2.0,416.5357440006119,4.0,1.0,phase_1,,,,,,,,,,,,,blue,hexagon
409.0,4.0,4.0,0.0,4.0,4.0,353.4590230001413,4.0,1.0,phase_1,,,,,,,,,,,,,orange,triangle
0.0,3.0,0.0,0.0,3.0,3.0,312.7565049999248,4.0,1.0,phase_1,,,,,,,,,,,,,cyan,diamond
210.0,7.0,3.0,1.0,1.0,1.0,295.2647699994486,4.0,1.0,phase_1,,,,,,,,,,,,,white,cross
210.0,7.0,3.0,1.0,1.0,1.0,367.3614019999149,4.0,1.0,phase_1,,,,,,,,,,,,,white,cross
395.0,8.0,4.0,1.0,1.0,1.0,312.0094639998569,4.0,1.0,phase_1,,,,,,,,,,,,,green,I
111.0,6.0,2.0,1.0,4.0,4.0,321.2377360005121,4.0,1.0,phase_1,,,,,,,,,,,,,blue,hexagon
189.0,7.0,3.0,1.0,3.0,3.0,362.0961619999434,4.0,1.0,phase_1,,,,,,,,,,,,,white,cross
396.0,8.0,4.0,1.0,3.0,3.0,349.6872579999035,4.0,1.0,phase_1,,,,,,,,,,,,,green,I
182.0,3.0,3.0,0.0,3.0,3.0,306.2201620004998,4.0,1.0,phase_1,,,,,,,,,,,,,cyan,diamond
383.0,4.0,4.0,0.0,4.0,4.0,333.3606860005602,4.0,1.0,phase_1,,,,,,,,,,,,,orange,triangle
197.0,7.0,3.0,1.0,4.0,4.0,309.2906279998715,4.0,1.0,phase_1,,,,,,,,,,,,,white,cross
419.0,4.0,4.0,0.0,2.0,2.0,350.9399109998412,4.0,1.0,phase_1,,,,,,,,,,,,,orange,triangle
413.0,8.0,4.0,1.0,1.0,1.0,301.0374249997767,4.0,1.0,phase_1,,,,,,,,,,,,,green,I
76.0,6.0,2.0,1.0,4.0,4.0,295.9889129997464,4.0,1.0,phase_1,,,,,,,,,,,,,blue,hexagon
37.0,5.0,1.0,1.0,3.0,3.0,352.364698999736,4.0,1.0,phase_1,,,,,,,,,,,,,gray,circle
199.0,3.0,3.0,0.0,4.0,4.0,326.9853479996527,4.0,1.0,phase_1,,,,,,,,,,,,,cyan,diamond
42.0,1.0,1.0,0.0,4.0,4.0,628.1454370000574,4.0,1.0,phase_1,,,,,,,,,,,,,magenta,square
0.0,3.0,0.0,0.0,1.0,1.0,320.6505179996384,4.0,1.0,phase_1,,,,,,,,,,,,,cyan,diamond
0.0,3.0,0.0,0.0,2.0,2.0,369.0497879997565,4.0,1.0,phase_1,,,,,,,,,,,,,cyan,diamond
29.0,5.0,1.0,1.0,3.0,3.0,335.3095600004963,4.0,1.0,phase_1,,,,,,,,,,,,,gray,circle
0.0,6.0,0.0,1.0,2.0,2.0,320.2763560002495,4.0,1.0,phase_1,,,,,,,,,,,,,blue,hexagon
57.0,5.0,1.0,1.0,4.0,4.0,338.0646800005706,4.0,1.0,phase_1,,,,,,,,,,,,,gray,circle
213.0,7.0,3.0,1.0,3.0,3.0,324.9364039993452,4.0,1.0,phase_1,,,,,,,,,,,,,white,cross
58.0,5.0,1.0,1.0,1.0,1.0,319.1419519998817,4.0,1.0,phase_1,,,,,,,,,,,,,gray,circle
44.0,5.0,1.0,1.0,3.0,3.0,343.2756550000704,4.0,1.0,phase_1,,,,,,,,,,,,,gray,circle
90.0,2.0,2.0,0.0,4.0,4.0,367.2970220004572,4.0,1.0,phase_1,,,,,,,,,,,,,yellow,flipped triangle
31.0,1.0,1.0,0.0,2.0,2.0,349.0779679996194,4.0,1.0,phase_1,,,,,,,,,,,,,magenta,square
415.0,8.0,4.0,1.0,1.0,1.0,336.2711669997225,4.0,1.0,phase_1,,,,,,,,,,,,,green,I
176.0,7.0,3.0,1.0,2.0,2.0,309.753806000117,4.0,1.0,phase_1,,,,,,,,,,,,,white,cross
50.0,1.0,1.0,0.0,1.0,1.0,315.7576980001977,4.0,1.0,phase_1,,,,,,,,,,,,,magenta,square
420.0,8.0,4.0,1.0,2.0,2.0,393.4086740000566,4.0,1.0,phase_1,,,,,,,,,,,,,green,I
48.0,1.0,1.0,0.0,2.0,2.0,414.4260180000856,4.0,1.0,phase_1,,,,,,,,,,,,,magenta,square
27.0,5.0,1.0,1.0,1.0,1.0,328.2218000003922,4.0,1.0,phase_1,,,,,,,,,,,,,gray,circle
93.0,2.0,2.0,0.0,2.0,2.0,350.8978319996458,4.0,1.0,phase_1,,,,,,,,,,,,,yellow,flipped triangle
413.0,4.0,4.0,0.0,4.0,4.0,386.9606839998596,4.0,1.0,phase_1,,,,,,,,,,,,,orange,triangle
206.0,7.0,3.0,1.0,2.0,2.0,371.045261999825,4.0,1.0,phase_1,,,,,,,,,,,,,white,cross
0.0,2.0,0.0,0.0,1.0,1.0,333.6785699993925,4.0,1.0,phase_1,,,,,,,,,,,,,yellow,flipped triangle
29.0,1.0,1.0,0.0,1.0,1.0,350.4757079999763,4.0,1.0,phase_1,,,,,,,,,,,,,magenta,square
52.0,1.0,1.0,0.0,4.0,4.0,327.3654429995076,4.0,1.0,phase_1,,,,,,,,,,,,,magenta,square
0.0,1.0,0.0,0.0,4.0,4.0,327.6031640007204,4.0,1.0,phase_1,,,,,,,,,,,,,magenta,square
0.0,4.0,0.0,0.0,4.0,4.0,330.9066140000141,4.0,1.0,phase_1,,,,,,,,,,,,,orange,triangle
410.0,4.0,4.0,0.0,3.0,3.0,367.6142189997335,4.0,1.0,phase_1,,,,,,,,,,,,,orange,triangle
32.0,1.0,1.0,0.0,4.0,4.0,327.3719460003121,4.0,1.0,phase_1,,,,,,,,,,,,,magenta,square
87.0,2.0,2.0,0.0,2.0,2.0,338.8685119998627,4.0,1.0,phase_1,,,,,,,,,,,,,yellow,flipped triangle
121.0,2.0,2.0,0.0,1.0,1.0,301.1544620003406,4.0,1.0,phase_1,,,,,,,,,,,,,yellow,flipped triangle
0.0,2.0,0.0,0.0,4.0,4.0,318.5801390000051,4.0,1.0,phase_1,,,,,,,,,,,,,yellow,flipped triangle
396.0,4.0,4.0,0.0,3.0,3.0,380.4185750004762,4.0,1.0,phase_1,,,,,,,,,,,,,orange,triangle
53.0,1.0,1.0,0.0,2.0,2.0,384.2058529999121,4.0,1.0,phase_1,,,,,,,,,,,,,magenta,square
409.0,8.0,4.0,1.0,1.0,1.0,339.5375019999846,4.0,1.0,phase_1,,,,,,,,,,,,,green,I
52.0,1.0,1.0,0.0,1.0,1.0,422.098103999815,4.0,1.0,phase_1,,,,,,,,,,,,,magenta,square
411.0,4.0,4.0,0.0,4.0,4.0,336.2269899998864,4.0,1.0,phase_1,,,,,,,,,,,,,orange,triangle
180.0,3.0,3.0,0.0,1.0,1.0,332.1387979995052,4.0,1.0,phase_1,,,,,,,,,,,,,cyan,diamond
406.0,8.0,4.0,1.0,4.0,4.0,358.5409520001121,4.0,1.0,phase_1,,,,,,,,,,,,,green,I
109.0,6.0,2.0,1.0,1.0,1.0,317.1562690004066,4.0,1.0,phase_1,,,,,,,,,,,,,blue,hexagon
104.0,6.0,2.0,1.0,1.0,1.0,349.0337049997833,4.0,1.0,phase_1,,,,,,,,,,,,,blue,hexagon
0.0,2.0,0.0,0.0,4.0,4.0,340.1804579998497,4.0,1.0,phase_1,,,,,,,,,,,,,yellow,flipped triangle
114.0,6.0,2.0,1.0,2.0,2.0,360.4701640006169,4.0,1.0,phase_1,,,,,,,,,,,,,blue,hexagon
27.0,1.0,1.0,0.0,2.0,2.0,347.694467999645,4.0,1.0,phase_1,,,,,,,,,,,,,magenta,square
0.0,2.0,0.0,0.0,4.0,4.0,304.9435240000093,4.0,1.0,phase_1,,,,,,,,,,,,,yellow,flipped triangle
0.0,8.0,0.0,1.0,2.0,2.0,346.3322359993981,4.0,1.0,phase_1,,,,,,,,,,,,,green,I
0.0,7.0,0.0,1.0,4.0,4.0,319.8627619995022,4.0,1.0,phase_1,,,,,,,,,,,,,white,cross
376.0,8.0,4.0,1.0,4.0,4.0,590.0545180002155,4.0,1.0,phase_1,,,,,,,,,,,,,green,I
45.0,1.0,1.0,0.0,1.0,1.0,341.5332989998205,4.0,1.0,phase_1,,,,,,,,,,,,,magenta,square
120.0,6.0,2.0,1.0,1.0,1.0,341.4623039998332,4.0,1.0,phase_1,,,,,,,,,,,,,blue,hexagon
76.0,2.0,2.0,0.0,2.0,2.0,376.1818359998869,4.0,1.0,phase_1,,,,,,,,,,,,,yellow,flipped triangle
377.0,4.0,4.0,0.0,2.0,2.0,351.7213479999554,4.0,1.0,phase_1,,,,,,,,,,,,,orange,triangle
421.0,8.0,4.0,1.0,4.0,4.0,336.270599999807,4.0,1.0,phase_1,,,,,,,,,,,,,green,I
62.0,5.0,1.0,1.0,1.0,1.0,309.5476830003463,4.0,1.0,phase_1,,,,,,,,,,,,,gray,circle
103.0,6.0,2.0,1.0,3.0,3.0,348.4735789998012,4.0,1.0,phase_1,,,,,,,,,,,,,blue,hexagon
115.0,2.0,2.0,0.0,1.0,1.0,353.1776210002135,4.0,1.0,phase_1,,,,,,,,,,,,,yellow,flipped triangle
104.0,2.0,2.0,0.0,2.0,2.0,405.779158999394,4.0,1.0,phase_1,,,,,,,,,,,,,yellow,flipped triangle
95.0,2.0,2.0,0.0,2.0,2.0,364.5379529998536,4.0,1.0,phase_1,,,,,,,,,,,,,yellow,flipped triangle
0.0,3.0,0.0,0.0,4.0,4.0,302.8413210004146,4.0,1.0,phase_1,,,,,,,,,,,,,cyan,diamond
40.0,5.0,1.0,1.0,4.0,4.0,422.35308599993,4.0,1.0,phase_1,,,,,,,,,,,,,gray,circle
0.0,5.0,1.0,1.0,5.0,5.0,381.6115449999415,1.0,1.0,phase_2,go,250.0,250.0,1.0,,,,,,,,,gray,circle
0.0,2.0,2.0,0.0,6.0,6.0,414.3888599992351,1.0,1.0,phase_2,go,250.0,250.0,1.0,,,,,,,,,yellow,flipped triangle
0.0,4.0,4.0,0.0,5.0,5.0,392.7312310006527,1.0,1.0,phase_2,go,250.0,250.0,1.0,,,,,,,,,orange,triangle
0.0,1.0,1.0,0.0,5.0,5.0,404.9872519999553,1.0,1.0,phase_2,go,250.0,250.0,1.0,,,,,,,,,magenta,square
0.0,8.0,4.0,1.0,5.0,5.0,424.0214069996,1.0,1.0,phase_2,go,250.0,250.0,1.0,,,,,,,,,green,I
0.0,7.0,3.0,1.0,6.0,6.0,411.1318029999893,1.0,1.0,phase_2,stop,250.0,250.0,3.0,,,,,,,,,white,cross
0.0,1.0,1.0,0.0,6.0,6.0,454.4763320000129,1.0,1.0,phase_2,go,250.0,200.0,1.0,,,,,,,,,magenta,square
0.0,2.0,2.0,0.0,6.0,6.0,359.7085339997647,1.0,1.0,phase_2,go,250.0,200.0,1.0,,,,,,,,,yellow,flipped triangle
0.0,6.0,2.0,1.0,5.0,5.0,426.9036060004509,1.0,1.0,phase_2,stop,250.0,200.0,3.0,,,,,,,,,blue,hexagon
0.0,1.0,1.0,0.0,5.0,5.0,412.465916999281,1.0,1.0,phase_2,go,200.0,200.0,1.0,,,,,,,,,magenta,square
0.0,6.0,2.0,1.0,5.0,0.0,0.0,1.0,1.0,phase_2,stop,200.0,200.0,4.0,,,,,,,,,blue,hexagon
0.0,3.0,3.0,0.0,6.0,6.0,375.5772129998149,1.0,1.0,phase_2,go,250.0,200.0,1.0,,,,,,,,,cyan,diamond
0.0,8.0,4.0,1.0,6.0,0.0,0.0,1.0,1.0,phase_2,stop,250.0,200.0,4.0,,,,,,,,,green,I
0.0,8.0,4.0,1.0,6.0,0.0,0.0,1.0,1.0,phase_2,stop,250.0,250.0,4.0,,,,,,,,,green,I
0.0,4.0,4.0,0.0,6.0,6.0,562.5498939998579,1.0,1.0,phase_2,go,250.0,300.0,1.0,,,,,,,,,orange,triangle
0.0,5.0,1.0,1.0,5.0,0.0,0.0,1.0,1.0,phase_2,stop,250.0,300.0,4.0,,,,,,,,,gray,circle
0.0,4.0,4.0,0.0,6.0,6.0,421.9704220004132,1.0,1.0,phase_2,go,300.0,300.0,1.0,,,,,,,,,orange,triangle
0.0,1.0,1.0,0.0,6.0,6.0,854.9543250001079,1.0,1.0,phase_2,go,300.0,300.0,1.0,,,,,,,,,magenta,square
0.0,7.0,3.0,1.0,6.0,0.0,0.0,1.0,1.0,phase_2,stop,300.0,300.0,4.0,,,,,,,,,white,cross
0.0,7.0,3.0,1.0,5.0,5.0,407.5230399994325,1.0,1.0,phase_2,stop,300.0,350.0,3.0,,,,,,,,,white,cross
0.0,6.0,2.0,1.0,6.0,0.0,0.0,1.0,1.0,phase_2,stop,250.0,350.0,4.0,,,,,,,,,blue,hexagon
0.0,4.0,4.0,0.0,5.0,5.0,698.4718670000802,1.0,1.0,phase_2,go,250.0,400.0,1.0,,,,,,,,,orange,triangle
0.0,7.0,3.0,1.0,5.0,0.0,0.0,1.0,1.0,phase_2,stop,250.0,400.0,4.0,,,,,,,,,white,cross
0.0,2.0,2.0,0.0,5.0,5.0,431.2251809997178,1.0,1.0,phase_2,go,300.0,400.0,1.0,,,,,,,,,yellow,flipped triangle
0.0,2.0,2.0,0.0,5.0,5.0,829.6312809998199,1.0,1.0,phase_2,go,300.0,400.0,1.0,,,,,,,,,yellow,flipped triangle
0.0,8.0,4.0,1.0,5.0,0.0,0.0,1.0,1.0,phase_2,stop,300.0,400.0,4.0,,,,,,,,,green,I
0.0,5.0,1.0,1.0,5.0,0.0,0.0,1.0,1.0,phase_2,stop,350.0,400.0,4.0,,,,,,,,,gray,circle
0.0,1.0,1.0,0.0,6.0,6.0,508.34093400044367,1.0,1.0,phase_2,go,400.0,400.0,1.0,,,,,,,,,magenta,square
0.0,6.0,2.0,1.0,6.0,6.0,705.0898270008474,1.0,1.0,phase_2,go,400.0,400.0,1.0,,,,,,,,,blue,hexagon
0.0,7.0,3.0,1.0,6.0,6.0,734.2106050000439,1.0,1.0,phase_2,go,400.0,400.0,1.0,,,,,,,,,white,cross
0.0,8.0,4.0,1.0,6.0,6.0,613.7925169996379,1.0,1.0,phase_2,stop,400.0,400.0,3.0,,,,,,,,,green,I
0.0,5.0,1.0,1.0,5.0,0.0,0.0,1.0,1.0,phase_2,stop,400.0,350.0,4.0,,,,,,,,,gray,circle
0.0,7.0,3.0,1.0,5.0,0.0,0.0,1.0,1.0,phase_2,stop,450.0,350.0,4.0,,,,,,,,,white,cross
0.0,5.0,1.0,1.0,6.0,6.0,546.9566570000097,1.0,1.0,phase_2,go,500.0,350.0,1.0,,,,,,,,,gray,circle
0.0,1.0,1.0,0.0,5.0,5.0,648.0622320004841,1.0,1.0,phase_2,go,500.0,350.0,1.0,,,,,,,,,magenta,square
0.0,3.0,3.0,0.0,6.0,6.0,681.3622330000726,1.0,1.0,phase_2,go,500.0,350.0,1.0,,,,,,,,,cyan,diamond
0.0,3.0,3.0,0.0,5.0,5.0,405.3010560000984,2.0,1.0,phase_2,go,500.0,350.0,1.0,,,,,,,,,cyan,diamond
0.0,2.0,2.0,0.0,6.0,6.0,378.895797000041,2.0,1.0,phase_2,go,500.0,350.0,1.0,,,,,,,,,yellow,flipped triangle
0.0,6.0,2.0,1.0,5.0,5.0,381.5247600005023,2.0,1.0,phase_2,go,500.0,350.0,1.0,,,,,,,,,blue,hexagon
0.0,6.0,2.0,1.0,5.0,5.0,336.9192609998208,2.0,1.0,phase_2,stop,500.0,350.0,3.0,,,,,,,,,blue,hexagon
0.0,5.0,1.0,1.0,5.0,5.0,537.4187910001638,2.0,1.0,phase_2,stop,450.0,350.0,3.0,,,,,,,,,gray,circle
0.0,6.0,2.0,1.0,6.0,0.0,0.0,2.0,1.0,phase_2,stop,400.0,350.0,4.0,,,,,,,,,blue,hexagon
0.0,6.0,2.0,1.0,5.0,5.0,669.9372419998326,2.0,1.0,phase_2,go,400.0,400.0,1.0,,,,,,,,,blue,hexagon
0.0,8.0,4.0,1.0,6.0,6.0,499.386104000223,2.0,1.0,phase_2,stop,400.0,400.0,3.0,,,,,,,,,green,I
0.0,4.0,4.0,0.0,6.0,6.0,929.3018709995522,2.0,1.0,phase_2,go,400.0,350.0,1.0,,,,,,,,,orange,triangle
0.0,3.0,3.0,0.0,6.0,6.0,849.0578219998497,2.0,1.0,phase_2,go,400.0,350.0,1.0,,,,,,,,,cyan,diamond
0.0,3.0,3.0,0.0,6.0,6.0,826.9963809998444,2.0,1.0,phase_2,go,400.0,350.0,1.0,,,,,,,,,cyan,diamond
0.0,8.0,4.0,1.0,5.0,0.0,0.0,2.0,1.0,phase_2,stop,400.0,350.0,4.0,,,,,,,,,green,I
0.0,2.0,2.0,0.0,5.0,5.0,723.0053220000627,2.0,1.0,phase_2,go,450.0,350.0,1.0,,,,,,,,,yellow,flipped triangle
0.0,5.0,1.0,1.0,5.0,0.0,0.0,2.0,1.0,phase_2,stop,450.0,350.0,4.0,,,,,,,,,gray,circle
0.0,3.0,3.0,0.0,5.0,5.0,754.4212780003363,2.0,1.0,phase_2,go,500.0,350.0,1.0,,,,,,,,,cyan,diamond
0.0,7.0,3.0,1.0,6.0,0.0,0.0,2.0,1.0,phase_2,stop,500.0,350.0,4.0,,,,,,,,,white,cross
0.0,3.0,3.0,0.0,6.0,6.0,869.8293090001243,2.0,1.0,phase_2,go,500.0,400.0,1.0,,,,,,,,,cyan,diamond
0.0,2.0,2.0,0.0,6.0,6.0,780.6880110001657,2.0,1.0,phase_2,go,500.0,400.0,1.0,,,,,,,,,yellow,flipped triangle
0.0,8.0,4.0,1.0,6.0,6.0,828.1606090004061,2.0,1.0,phase_2,go,500.0,400.0,1.0,,,,,,,,,green,I
0.0,6.0,2.0,1.0,5.0,5.0,792.2116939998887,2.0,1.0,phase_2,go,500.0,400.0,1.0,,,,,,,,,blue,hexagon
0.0,4.0,4.0,0.0,6.0,6.0,771.0280640003475,2.0,1.0,phase_2,go,500.0,400.0,1.0,,,,,,,,,orange,triangle
0.0,6.0,2.0,1.0,6.0,0.0,0.0,2.0,1.0,phase_2,stop,500.0,400.0,4.0,,,,,,,,,blue,hexagon
0.0,7.0,3.0,1.0,6.0,6.0,918.7465450004312,2.0,1.0,phase_2,go,500.0,450.0,1.0,,,,,,,,,white,cross
0.0,4.0,4.0,0.0,6.0,6.0,728.7084519994096,2.0,1.0,phase_2,go,500.0,450.0,1.0,,,,,,,,,orange,triangle
0.0,8.0,4.0,1.0,5.0,0.0,0.0,2.0,1.0,phase_2,stop,500.0,450.0,4.0,,,,,,,,,green,I
0.0,4.0,4.0,0.0,6.0,6.0,728.7001989998316,2.0,1.0,phase_2,go,550.0,450.0,1.0,,,,,,,,,orange,triangle
0.0,6.0,2.0,1.0,5.0,5.0,636.5406300001268,2.0,1.0,phase_2,stop,550.0,450.0,3.0,,,,,,,,,blue,hexagon
0.0,1.0,1.0,0.0,6.0,6.0,1032.7078630007236,2.0,1.0,phase_2,go,500.0,450.0,1.0,,,,,,,,,magenta,square
0.0,1.0,1.0,0.0,5.0,5.0,891.3119999997434,2.0,1.0,phase_2,go,500.0,450.0,1.0,,,,,,,,,magenta,square
0.0,3.0,3.0,0.0,6.0,6.0,874.0459479995479,2.0,1.0,phase_2,go,500.0,450.0,1.0,,,,,,,,,cyan,diamond
0.0,8.0,4.0,1.0,5.0,0.0,0.0,2.0,1.0,phase_2,stop,500.0,450.0,4.0,,,,,,,,,green,I
0.0,6.0,2.0,1.0,6.0,6.0,749.9962520005283,2.0,1.0,phase_2,go,550.0,450.0,1.0,,,,,,,,,blue,hexagon
0.0,1.0,1.0,0.0,5.0,5.0,900.9064649999344,2.0,1.0,phase_2,go,550.0,450.0,1.0,,,,,,,,,magenta,square
0.0,1.0,1.0,0.0,6.0,6.0,763.8959539999632,2.0,1.0,phase_2,go,550.0,450.0,1.0,,,,,,,,,magenta,square
0.0,2.0,2.0,0.0,5.0,5.0,712.3683370000435,2.0,1.0,phase_2,go,550.0,450.0,1.0,,,,,,,,,yellow,flipped triangle
0.0,1.0,1.0,0.0,6.0,6.0,712.464421999357,2.0,1.0,phase_2,go,550.0,450.0,1.0,,,,,,,,,magenta,square
0.0,4.0,4.0,0.0,5.0,5.0,443.3299840002291,3.0,1.0,phase_2,go,550.0,450.0,1.0,,,,,,,,,orange,triangle
0.0,5.0,1.0,1.0,6.0,6.0,341.2838110007214,3.0,1.0,phase_2,stop,550.0,450.0,3.0,,,,,,,,,gray,circle
0.0,2.0,2.0,0.0,6.0,6.0,317.8965809993315,3.0,1.0,phase_2,go,550.0,400.0,1.0,,,,,,,,,yellow,flipped triangle
0.0,3.0,3.0,0.0,5.0,5.0,348.8464110005225,3.0,1.0,phase_2,go,550.0,400.0,1.0,,,,,,,,,cyan,diamond
0.0,7.0,3.0,1.0,6.0,6.0,381.6784150003514,3.0,1.0,phase_2,stop,550.0,400.0,3.0,,,,,,,,,white,cross
0.0,3.0,3.0,0.0,5.0,5.0,362.1764819999953,3.0,1.0,phase_2,go,550.0,350.0,1.0,,,,,,,,,cyan,diamond
0.0,3.0,3.0,0.0,6.0,6.0,433.4556639996663,3.0,1.0,phase_2,go,550.0,350.0,1.0,,,,,,,,,cyan,diamond
0.0,5.0,1.0,1.0,5.0,5.0,474.0509550001661,3.0,1.0,phase_2,stop,550.0,350.0,3.0,,,,,,,,,gray,circle
0.0,2.0,2.0,0.0,5.0,5.0,435.8451339994644,3.0,1.0,phase_2,go,500.0,350.0,1.0,,,,,,,,,yellow,flipped triangle
0.0,8.0,4.0,1.0,6.0,0.0,0.0,3.0,1.0,phase_2,stop,500.0,350.0,4.0,,,,,,,,,green,I
0.0,2.0,2.0,0.0,6.0,6.0,437.8982399994129,3.0,1.0,phase_2,go,500.0,400.0,1.0,,,,,,,,,yellow,flipped triangle
0.0,8.0,4.0,1.0,6.0,0.0,0.0,3.0,1.0,phase_2,stop,500.0,400.0,4.0,,,,,,,,,green,I
0.0,1.0,1.0,0.0,6.0,6.0,734.3083949999709,3.0,1.0,phase_2,go,500.0,450.0,1.0,,,,,,,,,magenta,square
0.0,6.0,2.0,1.0,5.0,5.0,667.9692059997251,3.0,1.0,phase_2,stop,500.0,450.0,3.0,,,,,,,,,blue,hexagon
0.0,1.0,1.0,0.0,5.0,5.0,768.5005610001099,3.0,1.0,phase_2,go,450.0,450.0,1.0,,,,,,,,,magenta,square
0.0,1.0,1.0,0.0,6.0,6.0,920.034043000669,3.0,1.0,phase_2,go,450.0,450.0,1.0,,,,,,,,,magenta,square
0.0,3.0,3.0,0.0,5.0,5.0,641.1260369995944,3.0,1.0,phase_2,go,450.0,450.0,1.0,,,,,,,,,cyan,diamond
0.0,2.0,2.0,0.0,6.0,6.0,734.0391110001292,3.0,1.0,phase_2,go,450.0,450.0,1.0,,,,,,,,,yellow,flipped triangle
0.0,1.0,1.0,0.0,5.0,5.0,527.5033939997229,3.0,1.0,phase_2,go,450.0,450.0,1.0,,,,,,,,,magenta,square
0.0,6.0,2.0,1.0,6.0,0.0,0.0,3.0,1.0,phase_2,stop,450.0,450.0,4.0,,,,,,,,,blue,hexagon
0.0,1.0,1.0,0.0,5.0,5.0,395.1992040001642,3.0,1.0,phase_2,go,450.0,500.0,1.0,,,,,,,,,magenta,square
0.0,4.0,4.0,0.0,6.0,6.0,711.2033980001797,3.0,1.0,phase_2,go,450.0,500.0,1.0,,,,,,,,,orange,triangle
0.0,6.0,2.0,1.0,6.0,6.0,392.9999219999445,3.0,1.0,phase_2,stop,450.0,500.0,3.0,,,,,,,,,blue,hexagon
0.0,8.0,4.0,1.0,5.0,0.0,0.0,3.0,1.0,phase_2,stop,450.0,450.0,4.0,,,,,,,,,green,I
0.0,4.0,4.0,0.0,6.0,6.0,505.2246469995225,3.0,1.0,phase_2,go,500.0,450.0,1.0,,,,,,,,,orange,triangle
0.0,8.0,4.0,1.0,6.0,0.0,0.0,3.0,1.0,phase_2,stop,500.0,450.0,4.0,,,,,,,,,green,I
0.0,4.0,4.0,0.0,6.0,6.0,740.7855659994311,3.0,1.0,phase_2,go,500.0,500.0,1.0,,,,,,,,,orange,triangle
0.0,3.0,3.0,0.0,5.0,5.0,702.3369720000119,3.0,1.0,phase_2,go,500.0,500.0,1.0,,,,,,,,,cyan,diamond
0.0,8.0,4.0,1.0,5.0,5.0,381.1350109999694,3.0,1.0,phase_2,go,500.0,500.0,1.0,,,,,,,,,green,I
0.0,2.0,2.0,0.0,5.0,5.0,428.15162900024,3.0,1.0,phase_2,go,500.0,500.0,1.0,,,,,,,,,yellow,flipped triangle
0.0,4.0,4.0,0.0,5.0,5.0,664.7158590003528,3.0,1.0,phase_2,go,500.0,500.0,1.0,,,,,,,,,orange,triangle
0.0,3.0,3.0,0.0,6.0,6.0,745.8057339999868,3.0,1.0,phase_2,go,500.0,500.0,1.0,,,,,,,,,cyan,diamond
0.0,4.0,4.0,0.0,6.0,6.0,659.3509249996714,3.0,1.0,phase_2,go,500.0,500.0,1.0,,,,,,,,,orange,triangle
0.0,6.0,2.0,1.0,5.0,0.0,0.0,3.0,1.0,phase_2,stop,500.0,500.0,4.0,,,,,,,,,blue,hexagon
0.0,6.0,2.0,1.0,6.0,6.0,670.7441449998441,3.0,1.0,phase_2,stop,550.0,500.0,3.0,,,,,,,,,blue,hexagon
0.0,5.0,1.0,1.0,6.0,0.0,0.0,3.0,1.0,phase_2,stop,550.0,450.0,4.0,,,,,,,,,gray,circle
0.0,3.0,3.0,0.0,6.0,6.0,383.171007000783,4.0,1.0,phase_2,go,550.0,500.0,1.0,,,,,,,,,cyan,diamond
0.0,7.0,3.0,1.0,6.0,6.0,534.4417209998937,4.0,1.0,phase_2,stop,550.0,500.0,3.0,,,,,,,,,white,cross
0.0,4.0,4.0,0.0,5.0,5.0,644.2330489999222,4.0,1.0,phase_2,go,550.0,450.0,1.0,,,,,,,,,orange,triangle
0.0,7.0,3.0,1.0,6.0,0.0,0.0,4.0,1.0,phase_2,stop,550.0,450.0,4.0,,,,,,,,,white,cross
0.0,4.0,4.0,0.0,6.0,6.0,605.3253609998137,4.0,1.0,phase_2,go,550.0,500.0,1.0,,,,,,,,,orange,triangle
0.0,4.0,4.0,0.0,5.0,5.0,517.6430050005365,4.0,1.0,phase_2,go,550.0,500.0,1.0,,,,,,,,,orange,triangle
0.0,1.0,1.0,0.0,5.0,5.0,631.2380279996432,4.0,1.0,phase_2,go,550.0,500.0,1.0,,,,,,,,,magenta,square
0.0,3.0,3.0,0.0,5.0,5.0,488.6606810005105,4.0,1.0,phase_2,go,550.0,500.0,1.0,,,,,,,,,cyan,diamond
0.0,7.0,3.0,1.0,5.0,5.0,698.0712200002017,4.0,1.0,phase_2,stop,550.0,500.0,3.0,,,,,,,,,white,cross
0.0,5.0,1.0,1.0,5.0,0.0,0.0,4.0,1.0,phase_2,stop,500.0,500.0,4.0,,,,,,,,,gray,circle
0.0,3.0,3.0,0.0,5.0,5.0,716.6696229996887,4.0,1.0,phase_2,go,550.0,500.0,1.0,,,,,,,,,cyan,diamond
0.0,7.0,3.0,1.0,5.0,5.0,591.8822619996718,4.0,1.0,phase_2,stop,550.0,500.0,3.0,,,,,,,,,white,cross
0.0,6.0,2.0,1.0,6.0,6.0,786.6933269997389,4.0,1.0,phase_2,go,500.0,500.0,1.0,,,,,,,,,blue,hexagon
0.0,8.0,4.0,1.0,6.0,6.0,802.9532769996877,4.0,1.0,phase_2,go,500.0,500.0,1.0,,,,,,,,,green,I
0.0,4.0,4.0,0.0,5.0,5.0,625.4047049997098,4.0,1.0,phase_2,go,500.0,500.0,1.0,,,,,,,,,orange,triangle
0.0,3.0,3.0,0.0,6.0,6.0,769.6240600007513,4.0,1.0,phase_2,go,500.0,500.0,1.0,,,,,,,,,cyan,diamond
0.0,1.0,1.0,0.0,6.0,6.0,446.9089559997883,4.0,1.0,phase_2,go,500.0,500.0,1.0,,,,,,,,,magenta,square
0.0,8.0,4.0,1.0,6.0,6.0,618.2907869997507,4.0,1.0,phase_2,stop,500.0,500.0,3.0,,,,,,,,,green,I
0.0,8.0,4.0,1.0,5.0,0.0,0.0,4.0,1.0,phase_2,stop,500.0,450.0,4.0,,,,,,,,,green,I
0.0,6.0,2.0,1.0,5.0,5.0,584.8156840002048,4.0,1.0,phase_2,stop,550.0,450.0,3.0,,,,,,,,,blue,hexagon
0.0,8.0,4.0,1.0,5.0,5.0,599.2225670006519,4.0,1.0,phase_2,go,500.0,450.0,1.0,,,,,,,,,green,I
0.0,4.0,4.0,0.0,6.0,6.0,693.9252849997501,4.0,1.0,phase_2,go,500.0,450.0,1.0,,,,,,,,,orange,triangle
0.0,7.0,3.0,1.0,6.0,0.0,0.0,4.0,1.0,phase_2,stop,500.0,450.0,4.0,,,,,,,,,white,cross
0.0,1.0,1.0,0.0,6.0,6.0,585.9515850006574,4.0,1.0,phase_2,go,500.0,500.0,1.0,,,,,,,,,magenta,square
0.0,5.0,1.0,1.0,6.0,0.0,0.0,4.0,1.0,phase_2,stop,500.0,500.0,4.0,,,,,,,,,gray,circle
0.0,2.0,2.0,0.0,6.0,6.0,676.7369270000927,4.0,1.0,phase_2,go,500.0,550.0,1.0,,,,,,,,,yellow,flipped triangle
0.0,3.0,3.0,0.0,5.0,5.0,509.8227839998799,4.0,1.0,phase_2,go,500.0,550.0,1.0,,,,,,,,,cyan,diamond
0.0,5.0,1.0,1.0,6.0,6.0,731.7664049996893,4.0,1.0,phase_2,stop,500.0,550.0,3.0,,,,,,,,,gray,circle
0.0,7.0,3.0,1.0,5.0,0.0,0.0,4.0,1.0,phase_2,stop,500.0,500.0,4.0,,,,,,,,,white,cross
0.0,8.0,4.0,1.0,5.0,0.0,0.0,4.0,1.0,phase_2,stop,550.0,500.0,4.0,,,,,,,,,green,I
0.0,2.0,2.0,0.0,5.0,5.0,783.1673979999323,4.0,1.0,phase_2,go,600.0,500.0,1.0,,,,,,,,,yellow,flipped triangle
0.0,1.0,1.0,0.0,5.0,5.0,663.4188030002406,4.0,1.0,phase_2,go,600.0,500.0,1.0,,,,,,,,,magenta,square
0.0,3.0,3.0,0.0,6.0,6.0,596.7769290000433,4.0,1.0,phase_2,go,600.0,500.0,1.0,,,,,,,,,cyan,diamond
0.0,7.0,3.0,1.0,5.0,5.0,637.5225940000746,4.0,1.0,phase_2,stop,600.0,500.0,3.0,,,,,,,,,white,cross
0.0,2.0,2.0,0.0,5.0,5.0,380.3551490000245,4.0,1.0,phase_2,go,550.0,500.0,1.0,,,,,,,,,yellow,flipped triangle
0.0,2.0,2.0,0.0,5.0,5.0,409.9698170002739,4.0,1.0,phase_2,go,550.0,500.0,1.0,,,,,,,,,yellow,flipped triangle
0.0,8.0,4.0,1.0,5.0,5.0,339.4328439999299,5.0,1.0,phase_2,stop,550.0,500.0,3.0,,,,,,,,,green,I
0.0,3.0,3.0,0.0,6.0,6.0,329.5073819999743,5.0,1.0,phase_2,go,500.0,500.0,1.0,,,,,,,,,cyan,diamond
0.0,3.0,3.0,0.0,6.0,6.0,343.9022359998489,5.0,1.0,phase_2,go,500.0,500.0,1.0,,,,,,,,,cyan,diamond
0.0,5.0,1.0,1.0,6.0,6.0,307.9939170002035,5.0,1.0,phase_2,stop,500.0,500.0,3.0,,,,,,,,,gray,circle
0.0,7.0,3.0,1.0,5.0,5.0,473.3899949997067,5.0,1.0,phase_2,go,500.0,450.0,1.0,,,,,,,,,white,cross
0.0,7.0,3.0,1.0,5.0,5.0,353.3958979996896,5.0,1.0,phase_2,stop,500.0,450.0,3.0,,,,,,,,,white,cross
0.0,1.0,1.0,0.0,5.0,5.0,591.2481119994482,5.0,1.0,phase_2,go,450.0,450.0,1.0,,,,,,,,,magenta,square
0.0,2.0,2.0,0.0,5.0,5.0,426.3468689996443,5.0,1.0,phase_2,go,450.0,450.0,1.0,,,,,,,,,yellow,flipped triangle
0.0,2.0,2.0,0.0,5.0,5.0,413.1877039999381,5.0,1.0,phase_2,go,450.0,450.0,1.0,,,,,,,,,yellow,flipped triangle
0.0,7.0,3.0,1.0,6.0,6.0,917.3207829999228,5.0,1.0,phase_2,go,450.0,450.0,1.0,,,,,,,,,white,cross
0.0,6.0,2.0,1.0,6.0,0.0,0.0,5.0,1.0,phase_2,stop,450.0,450.0,4.0,,,,,,,,,blue,hexagon
0.0,1.0,1.0,0.0,5.0,5.0,378.8278660003925,5.0,1.0,phase_2,go,450.0,500.0,1.0,,,,,,,,,magenta,square
0.0,5.0,1.0,1.0,5.0,5.0,488.1205299998328,5.0,1.0,phase_2,stop,450.0,500.0,3.0,,,,,,,,,gray,circle
0.0,6.0,2.0,1.0,5.0,5.0,354.4799139999668,5.0,1.0,phase_2,stop,400.0,500.0,3.0,,,,,,,,,blue,hexagon
0.0,4.0,4.0,0.0,5.0,5.0,336.3724299997557,5.0,1.0,phase_2,go,350.0,500.0,1.0,,,,,,,,,orange,triangle
0.0,3.0,3.0,0.0,5.0,5.0,746.2859600000229,5.0,1.0,phase_2,go,350.0,500.0,1.0,,,,,,,,,cyan,diamond
0.0,2.0,2.0,0.0,5.0,5.0,421.5533669994329,5.0,1.0,phase_2,go,350.0,500.0,1.0,,,,,,,,,yellow,flipped triangle
0.0,8.0,4.0,1.0,5.0,0.0,0.0,5.0,1.0,phase_2,stop,350.0,500.0,4.0,,,,,,,,,green,I
0.0,5.0,1.0,1.0,5.0,5.0,431.3890129997162,5.0,1.0,phase_2,stop,400.0,500.0,3.0,,,,,,,,,gray,circle
0.0,5.0,1.0,1.0,5.0,0.0,0.0,5.0,1.0,phase_2,stop,350.0,500.0,4.0,,,,,,,,,gray,circle
0.0,2.0,2.0,0.0,6.0,6.0,565.7393220008089,5.0,1.0,phase_2,go,400.0,500.0,1.0,,,,,,,,,yellow,flipped triangle
0.0,5.0,1.0,1.0,5.0,0.0,0.0,5.0,1.0,phase_2,stop,400.0,500.0,4.0,,,,,,,,,gray,circle
0.0,4.0,4.0,0.0,6.0,6.0,691.8724189999921,5.0,1.0,phase_2,go,450.0,500.0,1.0,,,,,,,,,orange,triangle
0.0,8.0,4.0,1.0,6.0,0.0,0.0,5.0,1.0,phase_2,stop,450.0,500.0,4.0,,,,,,,,,green,I
0.0,7.0,3.0,1.0,5.0,0.0,0.0,5.0,1.0,phase_2,stop,450.0,550.0,4.0,,,,,,,,,white,cross
0.0,7.0,3.0,1.0,6.0,0.0,0.0,5.0,1.0,phase_2,stop,500.0,550.0,4.0,,,,,,,,,white,cross
0.0,1.0,1.0,0.0,5.0,5.0,576.8560930000604,5.0,1.0,phase_2,go,500.0,600.0,1.0,,,,,,,,,magenta,square
0.0,7.0,3.0,1.0,5.0,0.0,0.0,5.0,1.0,phase_2,stop,500.0,600.0,4.0,,,,,,,,,white,cross
0.0,7.0,3.0,1.0,5.0,0.0,0.0,5.0,1.0,phase_2,stop,550.0,600.0,4.0,,,,,,,,,white,cross
0.0,6.0,2.0,1.0,6.0,6.0,565.626025999336,5.0,1.0,phase_2,stop,600.0,600.0,3.0,,,,,,,,,blue,hexagon
0.0,4.0,4.0,0.0,5.0,5.0,574.6602050003276,5.0,1.0,phase_2,go,600.0,550.0,1.0,,,,,,,,,orange,triangle
0.0,1.0,1.0,0.0,5.0,5.0,535.8002550001402,5.0,1.0,phase_2,go,600.0,550.0,1.0,,,,,,,,,magenta,square
0.0,1.0,1.0,0.0,6.0,6.0,665.0351450007292,5.0,1.0,phase_2,go,600.0,550.0,1.0,,,,,,,,,magenta,square
0.0,3.0,3.0,0.0,6.0,6.0,611.4755469998272,5.0,1.0,phase_2,go,600.0,550.0,1.0,,,,,,,,,cyan,diamond
0.0,1.0,1.0,0.0,5.0,5.0,538.2654180002646,5.0,1.0,phase_2,go,600.0,550.0,1.0,,,,,,,,,magenta,square
0.0,8.0,4.0,1.0,6.0,0.0,0.0,5.0,1.0,phase_2,stop,600.0,550.0,4.0,,,,,,,,,green,I
0.0,2.0,2.0,0.0,6.0,6.0,517.0695819997491,6.0,1.0,phase_2,go,600.0,600.0,1.0,,,,,,,,,yellow,flipped triangle
0.0,7.0,3.0,1.0,6.0,6.0,400.0506130005306,6.0,1.0,phase_2,go,600.0,600.0,1.0,,,,,,,,,white,cross
0.0,6.0,2.0,1.0,6.0,0.0,0.0,6.0,1.0,phase_2,stop,600.0,600.0,4.0,,,,,,,,,blue,hexagon
0.0,8.0,4.0,1.0,6.0,6.0,957.9122280001684,6.0,1.0,phase_2,go,600.0,650.0,1.0,,,,,,,,,green,I
0.0,5.0,1.0,1.0,6.0,6.0,621.2401510001655,6.0,1.0,phase_2,stop,600.0,650.0,3.0,,,,,,,,,gray,circle
0.0,6.0,2.0,1.0,6.0,0.0,0.0,6.0,1.0,phase_2,stop,600.0,600.0,4.0,,,,,,,,,blue,hexagon
0.0,6.0,2.0,1.0,6.0,6.0,812.8380380003364,6.0,1.0,phase_2,stop,600.0,650.0,3.0,,,,,,,,,blue,hexagon
0.0,2.0,2.0,0.0,6.0,6.0,628.1222119996528,6.0,1.0,phase_2,go,600.0,600.0,1.0,,,,,,,,,yellow,flipped triangle
0.0,6.0,2.0,1.0,5.0,5.0,725.7909740001196,6.0,1.0,phase_2,stop,600.0,600.0,3.0,,,,,,,,,blue,hexagon
0.0,1.0,1.0,0.0,6.0,6.0,624.9965329998304,6.0,1.0,phase_2,go,550.0,600.0,1.0,,,,,,,,,magenta,square
0.0,6.0,2.0,1.0,5.0,0.0,0.0,6.0,1.0,phase_2,stop,550.0,600.0,4.0,,,,,,,,,blue,hexagon
0.0,3.0,3.0,0.0,6.0,6.0,722.1197649996611,6.0,1.0,phase_2,go,600.0,600.0,1.0,,,,,,,,,cyan,diamond
0.0,7.0,3.0,1.0,5.0,0.0,0.0,6.0,1.0,phase_2,stop,600.0,600.0,4.0,,,,,,,,,white,cross
0.0,5.0,1.0,1.0,6.0,0.0,0.0,6.0,1.0,phase_2,stop,650.0,600.0,4.0,,,,,,,,,gray,circle
0.0,4.0,4.0,0.0,5.0,5.0,609.6002069998576,6.0,1.0,phase_2,go,650.0,650.0,1.0,,,,,,,,,orange,triangle
0.0,2.0,2.0,0.0,6.0,6.0,469.3208460003006,6.0,1.0,phase_2,go,650.0,650.0,1.0,,,,,,,,,yellow,flipped triangle
0.0,8.0,4.0,1.0,5.0,0.0,0.0,6.0,1.0,phase_2,stop,650.0,650.0,4.0,,,,,,,,,green,I
0.0,2.0,2.0,0.0,6.0,6.0,562.7670160001799,6.0,1.0,phase_2,go,700.0,650.0,1.0,,,,,,,,,yellow,flipped triangle
0.0,8.0,4.0,1.0,5.0,0.0,0.0,6.0,1.0,phase_2,stop,700.0,650.0,4.0,,,,,,,,,green,I
0.0,7.0,3.0,1.0,6.0,0.0,0.0,6.0,1.0,phase_2,stop,750.0,650.0,4.0,,,,,,,,,white,cross
0.0,7.0,3.0,1.0,5.0,0.0,0.0,6.0,1.0,phase_2,stop,750.0,700.0,4.0,,,,,,,,,white,cross
0.0,1.0,1.0,0.0,6.0,6.0,463.2167459994889,6.0,1.0,phase_2,go,800.0,700.0,1.0,,,,,,,,,magenta,square
0.0,5.0,1.0,1.0,6.0,0.0,0.0,6.0,1.0,phase_2,stop,800.0,700.0,4.0,,,,,,,,,gray,circle
0.0,5.0,1.0,1.0,5.0,5.0,915.0813469996136,6.0,1.0,phase_2,stop,800.0,750.0,3.0,,,,,,,,,gray,circle
0.0,6.0,2.0,1.0,5.0,5.0,1213.47272300045,6.0,1.0,phase_2,go,750.0,750.0,1.0,,,,,,,,,blue,hexagon
0.0,3.0,3.0,0.0,5.0,5.0,636.4853229997607,6.0,1.0,phase_2,go,750.0,750.0,1.0,,,,,,,,,cyan,diamond
0.0,6.0,2.0,1.0,6.0,0.0,0.0,6.0,1.0,phase_2,stop,750.0,750.0,4.0,,,,,,,,,blue,hexagon
0.0,5.0,1.0,1.0,6.0,0.0,0.0,6.0,1.0,phase_2,stop,750.0,800.0,4.0,,,,,,,,,gray,circle
0.0,6.0,2.0,1.0,5.0,0.0,0.0,6.0,1.0,phase_2,stop,750.0,850.0,4.0,,,,,,,,,blue,hexagon
0.0,2.0,2.0,0.0,5.0,5.0,519.7562590001326,6.0,1.0,phase_2,go,800.0,850.0,1.0,,,,,,,,,yellow,flipped triangle
0.0,6.0,2.0,1.0,6.0,6.0,928.764049000165,6.0,1.0,phase_2,stop,800.0,850.0,3.0,,,,,,,,,blue,hexagon
0.0,5.0,1.0,1.0,6.0,6.0,1186.2785710000026,6.0,1.0,phase_2,go,800.0,800.0,1.0,,,,,,,,,gray,circle
0.0,7.0,3.0,1.0,5.0,5.0,1045.421662000081,6.0,1.0,phase_2,go,800.0,800.0,1.0,,,,,,,,,white,cross
0.0,8.0,4.0,1.0,5.0,0.0,0.0,6.0,1.0,phase_2,stop,800.0,800.0,4.0,,,,,,,,,green,I
0.0,4.0,4.0,0.0,5.0,5.0,469.0447319999293,6.0,1.0,phase_2,go,850.0,800.0,1.0,,,,,,,,,orange,triangle
0.0,8.0,4.0,1.0,6.0,6.0,831.6986330000873,6.0,1.0,phase_2,stop,850.0,800.0,3.0,,,,,,,,,green,I
0.0,5.0,1.0,1.0,5.0,5.0,385.9039819999452,7.0,1.0,phase_2,go,850.0,750.0,1.0,,,,,,,,,gray,circle
0.0,4.0,4.0,0.0,6.0,6.0,481.56052000013,7.0,1.0,phase_2,go,850.0,750.0,1.0,,,,,,,,,orange,triangle
0.0,1.0,1.0,0.0,6.0,6.0,326.0554689995842,7.0,1.0,phase_2,go,850.0,750.0,1.0,,,,,,,,,magenta,square
0.0,4.0,4.0,0.0,5.0,5.0,408.3561919997009,7.0,1.0,phase_2,go,850.0,750.0,1.0,,,,,,,,,orange,triangle
0.0,4.0,4.0,0.0,5.0,5.0,308.4414149998338,7.0,1.0,phase_2,go,850.0,750.0,1.0,,,,,,,,,orange,triangle
0.0,3.0,3.0,0.0,6.0,6.0,241.4941150000231,7.0,1.0,phase_2,go,850.0,750.0,1.0,,,,,,,,,cyan,diamond
0.0,8.0,4.0,1.0,6.0,6.0,292.0846529996197,7.0,1.0,phase_2,go,850.0,750.0,1.0,,,,,,,,,green,I
0.0,5.0,1.0,1.0,6.0,6.0,379.2832809995161,7.0,1.0,phase_2,stop,850.0,750.0,3.0,,,,,,,,,gray,circle
0.0,2.0,2.0,0.0,5.0,5.0,311.759570000504,7.0,1.0,phase_2,go,850.0,700.0,1.0,,,,,,,,,yellow,flipped triangle
0.0,5.0,1.0,1.0,5.0,5.0,319.6380589997716,7.0,1.0,phase_2,stop,850.0,700.0,3.0,,,,,,,,,gray,circle
0.0,7.0,3.0,1.0,6.0,0.0,0.0,7.0,1.0,phase_2,stop,800.0,700.0,4.0,,,,,,,,,white,cross
0.0,7.0,3.0,1.0,5.0,5.0,731.4977360001649,7.0,1.0,phase_2,go,800.0,750.0,1.0,,,,,,,,,white,cross
0.0,3.0,3.0,0.0,5.0,5.0,359.7180110000408,7.0,1.0,phase_2,go,800.0,750.0,1.0,,,,,,,,,cyan,diamond
0.0,4.0,4.0,0.0,6.0,6.0,319.82495200009,7.0,1.0,phase_2,go,800.0,750.0,1.0,,,,,,,,,orange,triangle
0.0,2.0,2.0,0.0,5.0,5.0,301.0268449997966,7.0,1.0,phase_2,go,800.0,750.0,1.0,,,,,,,,,yellow,flipped triangle
0.0,4.0,4.0,0.0,6.0,6.0,283.6448240004756,7.0,1.0,phase_2,go,800.0,750.0,1.0,,,,,,,,,orange,triangle
0.0,5.0,1.0,1.0,6.0,6.0,333.6903580002399,7.0,1.0,phase_2,stop,800.0,750.0,3.0,,,,,,,,,gray,circle
0.0,3.0,3.0,0.0,6.0,6.0,383.5677470005976,7.0,1.0,phase_2,go,800.0,700.0,1.0,,,,,,,,,cyan,diamond
0.0,2.0,2.0,0.0,6.0,6.0,355.913295999926,7.0,1.0,phase_2,go,800.0,700.0,1.0,,,,,,,,,yellow,flipped triangle
0.0,7.0,3.0,1.0,6.0,6.0,311.5469670001403,7.0,1.0,phase_2,stop,800.0,700.0,3.0,,,,,,,,,white,cross
0.0,1.0,1.0,0.0,6.0,6.0,455.108275999919,7.0,1.0,phase_2,go,800.0,650.0,1.0,,,,,,,,,magenta,square
0.0,8.0,4.0,1.0,6.0,0.0,0.0,7.0,1.0,phase_2,stop,800.0,650.0,4.0,,,,,,,,,green,I
0.0,5.0,1.0,1.0,6.0,6.0,369.3305669994515,7.0,1.0,phase_2,go,800.0,700.0,1.0,,,,,,,,,gray,circle
0.0,7.0,3.0,1.0,6.0,6.0,384.0680860002976,7.0,1.0,phase_2,stop,800.0,700.0,3.0,,,,,,,,,white,cross
0.0,5.0,1.0,1.0,6.0,0.0,0.0,7.0,1.0,phase_2,stop,800.0,650.0,4.0,,,,,,,,,gray,circle
0.0,5.0,1.0,1.0,6.0,6.0,776.8150480005716,7.0,1.0,phase_2,stop,800.0,700.0,3.0,,,,,,,,,gray,circle
0.0,7.0,3.0,1.0,5.0,5.0,922.49072300001,7.0,1.0,phase_2,go,800.0,650.0,1.0,,,,,,,,,white,cross
0.0,6.0,2.0,1.0,6.0,6.0,482.0970949995171,7.0,1.0,phase_2,stop,800.0,650.0,3.0,,,,,,,,,blue,hexagon
0.0,4.0,4.0,0.0,6.0,6.0,367.6877039997634,7.0,1.0,phase_2,go,800.0,600.0,1.0,,,,,,,,,orange,triangle
0.0,4.0,4.0,0.0,5.0,5.0,345.0009950001913,7.0,1.0,phase_2,go,800.0,600.0,1.0,,,,,,,,,orange,triangle
0.0,1.0,1.0,0.0,5.0,5.0,396.2184219999471,7.0,1.0,phase_2,go,800.0,600.0,1.0,,,,,,,,,magenta,square
0.0,1.0,1.0,0.0,5.0,5.0,380.7241899994551,7.0,1.0,phase_2,go,800.0,600.0,1.0,,,,,,,,,magenta,square
0.0,3.0,3.0,0.0,5.0,5.0,360.4444149996197,7.0,1.0,phase_2,go,800.0,600.0,1.0,,,,,,,,,cyan,diamond
0.0,6.0,2.0,1.0,6.0,6.0,334.0332309999212,7.0,1.0,phase_2,stop,800.0,600.0,3.0,,,,,,,,,blue,hexagon
0.0,3.0,3.0,0.0,5.0,5.0,402.7312270000038,7.0,1.0,phase_2,go,800.0,550.0,1.0,,,,,,,,,cyan,diamond
0.0,7.0,3.0,1.0,6.0,6.0,419.698256000629,7.0,1.0,phase_2,stop,800.0,550.0,3.0,,,,,,,,,white,cross
0.0,4.0,4.0,0.0,5.0,5.0,305.1216990006651,8.0,1.0,phase_2,go,800.0,500.0,1.0,,,,,,,,,orange,triangle
0.0,2.0,2.0,0.0,6.0,6.0,297.4735089992464,8.0,1.0,phase_2,go,800.0,500.0,1.0,,,,,,,,,yellow,flipped triangle
0.0,4.0,4.0,0.0,5.0,5.0,264.8461469998437,8.0,1.0,phase_2,go,800.0,500.0,1.0,,,,,,,,,orange,triangle
0.0,8.0,4.0,1.0,5.0,5.0,309.967836999931,8.0,1.0,phase_2,go,800.0,500.0,1.0,,,,,,,,,green,I
0.0,2.0,2.0,0.0,5.0,5.0,304.0869859996746,8.0,1.0,phase_2,go,800.0,500.0,1.0,,,,,,,,,yellow,flipped triangle
0.0,2.0,2.0,0.0,5.0,5.0,261.2419400002181,8.0,1.0,phase_2,go,800.0,500.0,1.0,,,,,,,,,yellow,flipped triangle
0.0,8.0,4.0,1.0,5.0,5.0,305.8191999998598,8.0,1.0,phase_2,stop,800.0,500.0,3.0,,,,,,,,,green,I
0.0,5.0,1.0,1.0,5.0,5.0,391.292151000016,8.0,1.0,phase_2,go,750.0,500.0,1.0,,,,,,,,,gray,circle
0.0,3.0,3.0,0.0,5.0,5.0,346.2937710000915,8.0,1.0,phase_2,go,750.0,500.0,1.0,,,,,,,,,cyan,diamond
0.0,7.0,3.0,1.0,5.0,5.0,292.8043679994516,8.0,1.0,phase_2,go,750.0,500.0,1.0,,,,,,,,,white,cross
0.0,4.0,4.0,0.0,6.0,6.0,332.7520129996628,8.0,1.0,phase_2,go,750.0,500.0,1.0,,,,,,,,,orange,triangle
0.0,2.0,2.0,0.0,5.0,5.0,320.1807909999843,8.0,1.0,phase_2,go,750.0,500.0,1.0,,,,,,,,,yellow,flipped triangle
0.0,1.0,1.0,0.0,6.0,6.0,323.9181839999219,8.0,1.0,phase_2,go,750.0,500.0,1.0,,,,,,,,,magenta,square
0.0,3.0,3.0,0.0,5.0,5.0,306.8318740006361,8.0,1.0,phase_2,go,750.0,500.0,1.0,,,,,,,,,cyan,diamond
0.0,5.0,1.0,1.0,5.0,0.0,0.0,8.0,1.0,phase_2,stop,750.0,500.0,4.0,,,,,,,,,gray,circle
0.0,4.0,4.0,0.0,5.0,5.0,409.7624280002492,8.0,1.0,phase_2,go,800.0,500.0,1.0,,,,,,,,,orange,triangle
0.0,1.0,1.0,0.0,6.0,6.0,485.9660729998722,8.0,1.0,phase_2,go,800.0,500.0,1.0,,,,,,,,,magenta,square
0.0,1.0,1.0,0.0,5.0,5.0,316.1146359998383,8.0,1.0,phase_2,go,800.0,500.0,1.0,,,,,,,,,magenta,square
0.0,5.0,1.0,1.0,5.0,5.0,317.8125869999348,8.0,1.0,phase_2,go,800.0,500.0,1.0,,,,,,,,,gray,circle
0.0,2.0,2.0,0.0,6.0,6.0,337.9874069996731,8.0,1.0,phase_2,go,800.0,500.0,1.0,,,,,,,,,yellow,flipped triangle
0.0,7.0,3.0,1.0,6.0,6.0,404.5623989995874,8.0,1.0,phase_2,stop,800.0,500.0,3.0,,,,,,,,,white,cross
0.0,3.0,3.0,0.0,6.0,6.0,361.0083000003214,8.0,1.0,phase_2,go,800.0,450.0,1.0,,,,,,,,,cyan,diamond
0.0,3.0,3.0,0.0,5.0,5.0,388.753567999629,8.0,1.0,phase_2,go,800.0,450.0,1.0,,,,,,,,,cyan,diamond
0.0,2.0,2.0,0.0,6.0,6.0,333.5078840000278,8.0,1.0,phase_2,go,800.0,450.0,1.0,,,,,,,,,yellow,flipped triangle
0.0,5.0,1.0,1.0,6.0,6.0,987.1133469996494,8.0,1.0,phase_2,go,800.0,450.0,1.0,,,,,,,,,gray,circle
0.0,2.0,2.0,0.0,6.0,6.0,357.3247809999884,8.0,1.0,phase_2,go,800.0,450.0,1.0,,,,,,,,,yellow,flipped triangle
0.0,8.0,4.0,1.0,6.0,0.0,0.0,8.0,1.0,phase_2,stop,800.0,450.0,4.0,,,,,,,,,green,I
0.0,8.0,4.0,1.0,5.0,5.0,933.916457000123,8.0,1.0,phase_2,go,800.0,500.0,1.0,,,,,,,,,green,I
0.0,5.0,1.0,1.0,6.0,6.0,975.646692999362,8.0,1.0,phase_2,go,800.0,500.0,1.0,,,,,,,,,gray,circle
0.0,3.0,3.0,0.0,5.0,5.0,363.4129250003752,8.0,1.0,phase_2,go,800.0,500.0,1.0,,,,,,,,,cyan,diamond
0.0,8.0,4.0,1.0,6.0,0.0,0.0,8.0,1.0,phase_2,stop,800.0,500.0,4.0,,,,,,,,,green,I
0.0,6.0,2.0,1.0,5.0,5.0,515.3504979998615,8.0,1.0,phase_2,go,800.0,550.0,1.0,,,,,,,,,blue,hexagon
0.0,6.0,2.0,1.0,5.0,5.0,860.1734539997778,8.0,1.0,phase_2,go,800.0,550.0,1.0,,,,,,,,,blue,hexagon
0.0,6.0,2.0,1.0,5.0,5.0,775.9888440004943,8.0,1.0,phase_2,stop,800.0,550.0,3.0,,,,,,,,,blue,hexagon
0.0,1.0,1.0,0.0,6.0,6.0,363.4768559995791,8.0,1.0,phase_2,go,750.0,550.0,1.0,,,,,,,,,magenta,square
0.0,4.0,4.0,0.0,5.0,5.0,363.2208899998659,8.0,1.0,phase_2,go,750.0,550.0,1.0,,,,,,,,,orange,triangle
0.0,8.0,4.0,1.0,7.0,2.0,939.1047560002336,1.0,2.0,phase_3,,,,,245.0,5.0,98.0,245.0,294.0,147.0,196.0,49.0,green,I
0.0,2.0,2.0,0.0,7.0,3.0,2082.422624000173,1.0,1.0,phase_3,,,,,195.0,5.0,156.0,117.0,195.0,39.0,78.0,234.0,yellow,flipped triangle
0.0,7.0,3.0,1.0,7.0,2.0,1311.2005920002048,1.0,1.0,phase_3,,,,,78.0,2.0,39.0,78.0,234.0,117.0,195.0,156.0,white,cross
0.0,6.0,2.0,1.0,7.0,4.0,1666.9343800003844,1.0,1.0,phase_3,,,,,88.0,2.0,220.0,264.0,132.0,88.0,176.0,44.0,blue,hexagon
0.0,4.0,4.0,0.0,7.0,2.0,1609.5623370001704,1.0,1.0,phase_3,,,,,234.0,6.0,39.0,234.0,117.0,78.0,195.0,156.0,orange,triangle
0.0,8.0,4.0,1.0,7.0,1.0,1827.7545900000405,1.0,1.0,phase_3,,,,,264.0,6.0,264.0,88.0,176.0,132.0,220.0,44.0,green,I
0.0,6.0,2.0,1.0,7.0,3.0,2287.5977759995294,1.0,1.0,phase_3,,,,,88.0,2.0,176.0,220.0,88.0,132.0,264.0,44.0,blue,hexagon
0.0,1.0,1.0,0.0,7.0,5.0,1451.695417000337,1.0,1.0,phase_3,,,,,88.0,2.0,132.0,44.0,176.0,220.0,88.0,264.0,magenta,square
0.0,3.0,3.0,0.0,7.0,4.0,1759.4867090001571,1.0,1.0,phase_3,,,,,147.0,3.0,98.0,294.0,49.0,147.0,245.0,196.0,cyan,diamond
0.0,6.0,2.0,1.0,7.0,2.0,1465.4952440005218,1.0,1.0,phase_3,,,,,102.0,3.0,204.0,102.0,136.0,34.0,68.0,170.0,blue,hexagon
0.0,1.0,1.0,0.0,7.0,2.0,1186.7373040004168,1.0,1.0,phase_3,,,,,170.0,5.0,68.0,170.0,136.0,34.0,102.0,204.0,magenta,square
0.0,7.0,3.0,1.0,7.0,3.0,2532.285946999764,1.0,1.0,phase_3,,,,,162.0,3.0,216.0,324.0,162.0,108.0,270.0,54.0,white,cross
0.0,4.0,4.0,0.0,7.0,6.0,1083.9381289997618,1.0,1.0,phase_3,,,,,270.0,5.0,54.0,108.0,162.0,324.0,216.0,270.0,orange,triangle
0.0,7.0,3.0,1.0,7.0,5.0,1446.470113000032,1.0,1.0,phase_3,,,,,108.0,2.0,324.0,216.0,54.0,270.0,108.0,162.0,white,cross
0.0,6.0,2.0,1.0,7.0,4.0,1522.6383199997144,1.0,1.0,phase_3,,,,,136.0,4.0,204.0,170.0,34.0,136.0,102.0,68.0,blue,hexagon
0.0,4.0,4.0,0.0,7.0,2.0,1363.6190799998076,1.0,1.0,phase_3,,,,,102.0,3.0,136.0,102.0,68.0,170.0,34.0,204.0,orange,triangle
0.0,4.0,4.0,0.0,7.0,4.0,933.767703999365,1.0,1.0,phase_3,,,,,270.0,5.0,162.0,54.0,216.0,270.0,324.0,108.0,orange,triangle
0.0,5.0,1.0,1.0,7.0,4.0,1055.0550540001495,1.0,1.0,phase_3,,,,,54.0,1.0,108.0,324.0,270.0,54.0,216.0,162.0,gray,circle
0.0,3.0,3.0,0.0,7.0,6.0,1585.1896969998052,1.0,1.0,phase_3,,,,,108.0,2.0,216.0,270.0,54.0,324.0,162.0,108.0,cyan,diamond
0.0,3.0,3.0,0.0,7.0,5.0,1807.463612999527,1.0,1.0,phase_3,,,,,170.0,5.0,34.0,102.0,68.0,136.0,170.0,204.0,cyan,diamond
0.0,2.0,2.0,0.0,7.0,6.0,1191.4967329994397,2.0,1.0,phase_3,,,,,324.0,6.0,162.0,54.0,270.0,216.0,108.0,324.0,yellow,flipped triangle
0.0,6.0,2.0,1.0,7.0,2.0,1251.5166130006037,2.0,1.0,phase_3,,,,,49.0,1.0,196.0,49.0,98.0,245.0,294.0,147.0,blue,hexagon
0.0,3.0,3.0,0.0,7.0,2.0,1560.5803469998136,2.0,1.0,phase_3,,,,,270.0,5.0,108.0,270.0,162.0,54.0,216.0,324.0,cyan,diamond
0.0,2.0,2.0,0.0,7.0,5.0,1165.3730559992257,2.0,1.0,phase_3,,,,,147.0,3.0,294.0,196.0,49.0,245.0,147.0,98.0,yellow,flipped triangle
0.0,4.0,4.0,0.0,7.0,6.0,1170.9158079993358,2.0,1.0,phase_3,,,,,264.0,6.0,88.0,132.0,176.0,44.0,220.0,264.0,orange,triangle
0.0,3.0,3.0,0.0,7.0,6.0,1033.870823000143,2.0,1.0,phase_3,,,,,147.0,3.0,196.0,245.0,294.0,98.0,49.0,147.0,cyan,diamond
0.0,6.0,2.0,1.0,7.0,4.0,1058.7658250005916,2.0,1.0,phase_3,,,,,216.0,4.0,270.0,162.0,54.0,216.0,108.0,324.0,blue,hexagon
0.0,5.0,1.0,1.0,7.0,1.0,857.892781999908,2.0,1.0,phase_3,,,,,44.0,1.0,44.0,264.0,88.0,132.0,220.0,176.0,gray,circle
0.0,3.0,3.0,0.0,7.0,2.0,731.5703610001947,2.0,1.0,phase_3,,,,,136.0,4.0,170.0,136.0,34.0,204.0,68.0,102.0,cyan,diamond
0.0,4.0,4.0,0.0,7.0,3.0,1690.668659000039,2.0,1.0,phase_3,,,,,294.0,6.0,196.0,245.0,294.0,147.0,98.0,49.0,orange,triangle
0.0,2.0,2.0,0.0,7.0,5.0,1558.8011070003631,2.0,1.0,phase_3,,,,,196.0,4.0,245.0,49.0,294.0,98.0,196.0,147.0,yellow,flipped triangle
0.0,5.0,1.0,1.0,7.0,4.0,606.048747999921,2.0,1.0,phase_3,,,,,54.0,1.0,216.0,270.0,324.0,54.0,108.0,162.0,gray,circle
0.0,5.0,1.0,1.0,7.0,2.0,860.8362049999414,2.0,1.0,phase_3,,,,,68.0,2.0,102.0,68.0,204.0,136.0,170.0,34.0,gray,circle
0.0,7.0,3.0,1.0,7.0,2.0,979.6619799999462,2.0,1.0,phase_3,,,,,117.0,3.0,39.0,117.0,234.0,78.0,195.0,156.0,white,cross
0.0,1.0,1.0,0.0,7.0,2.0,1692.3013639998317,2.0,1.0,phase_3,,,,,162.0,3.0,54.0,162.0,324.0,216.0,270.0,108.0,magenta,square
0.0,3.0,3.0,0.0,7.0,2.0,1837.2113610003,2.0,1.0,phase_3,,,,,132.0,3.0,264.0,132.0,88.0,44.0,220.0,176.0,cyan,diamond
0.0,5.0,1.0,1.0,7.0,2.0,1061.0142880004787,2.0,1.0,phase_3,,,,,49.0,1.0,196.0,49.0,98.0,294.0,245.0,147.0,gray,circle
0.0,3.0,3.0,0.0,7.0,5.0,1814.8526840004704,2.0,1.0,phase_3,,,,,176.0,4.0,220.0,88.0,264.0,44.0,176.0,132.0,cyan,diamond
0.0,6.0,2.0,1.0,7.0,4.0,2102.099644000191,2.0,1.0,phase_3,,,,,245.0,5.0,294.0,147.0,49.0,245.0,196.0,98.0,blue,hexagon
0.0,2.0,2.0,0.0,7.0,5.0,1930.2851239999652,2.0,1.0,phase_3,,,,,102.0,3.0,136.0,204.0,34.0,170.0,102.0,68.0,yellow,flipped triangle
0.0,2.0,2.0,0.0,7.0,4.0,1502.8091960002712,3.0,1.0,phase_3,,,,,132.0,3.0,88.0,44.0,220.0,132.0,176.0,264.0,yellow,flipped triangle
0.0,5.0,1.0,1.0,7.0,2.0,665.3351700006169,3.0,1.0,phase_3,,,,,39.0,1.0,234.0,39.0,156.0,78.0,195.0,117.0,gray,circle
0.0,1.0,1.0,0.0,7.0,6.0,1188.5022980004578,3.0,1.0,phase_3,,,,,117.0,3.0,234.0,195.0,39.0,156.0,78.0,117.0,magenta,square
0.0,4.0,4.0,0.0,7.0,1.0,1332.6616710000962,3.0,1.0,phase_3,,,,,234.0,6.0,234.0,117.0,39.0,78.0,156.0,195.0,orange,triangle
0.0,5.0,1.0,1.0,7.0,4.0,1315.774326999417,3.0,1.0,phase_3,,,,,136.0,4.0,170.0,204.0,34.0,136.0,102.0,68.0,gray,circle
0.0,2.0,2.0,0.0,7.0,2.0,1614.8221850007758,3.0,1.0,phase_3,,,,,117.0,3.0,156.0,117.0,234.0,78.0,39.0,195.0,yellow,flipped triangle
0.0,8.0,4.0,1.0,7.0,6.0,1301.6820689999804,3.0,1.0,phase_3,,,,,204.0,6.0,102.0,136.0,34.0,170.0,68.0,204.0,green,I
0.0,7.0,3.0,1.0,7.0,1.0,2317.480670000805,3.0,1.0,phase_3,,,,,102.0,3.0,102.0,170.0,34.0,68.0,136.0,204.0,white,cross
0.0,2.0,2.0,0.0,7.0,3.0,1931.0396460004997,3.0,1.0,phase_3,,,,,68.0,2.0,102.0,136.0,68.0,34.0,170.0,204.0,yellow,flipped triangle
0.0,1.0,1.0,0.0,7.0,3.0,2063.7707039995803,3.0,1.0,phase_3,,,,,136.0,4.0,102.0,68.0,136.0,204.0,34.0,170.0,magenta,square
0.0,4.0,4.0,0.0,7.0,1.0,1460.8709399999498,3.0,1.0,phase_3,,,,,294.0,6.0,294.0,98.0,245.0,49.0,196.0,147.0,orange,triangle
0.0,8.0,4.0,1.0,7.0,6.0,790.6119760000365,3.0,1.0,phase_3,,,,,324.0,6.0,216.0,270.0,108.0,162.0,54.0,324.0,green,I
0.0,3.0,3.0,0.0,7.0,6.0,1401.930562000416,3.0,1.0,phase_3,,,,,117.0,3.0,156.0,234.0,39.0,195.0,78.0,117.0,cyan,diamond
0.0,6.0,2.0,1.0,7.0,3.0,1636.0059140006342,3.0,1.0,phase_3,,,,,195.0,5.0,156.0,117.0,195.0,234.0,78.0,39.0,blue,hexagon
0.0,7.0,3.0,1.0,7.0,5.0,1544.184637999933,3.0,1.0,phase_3,,,,,147.0,3.0,294.0,49.0,196.0,245.0,147.0,98.0,white,cross
0.0,1.0,1.0,0.0,7.0,1.0,1595.072247000644,3.0,1.0,phase_3,,,,,176.0,4.0,176.0,88.0,132.0,44.0,220.0,264.0,magenta,square
0.0,5.0,1.0,1.0,7.0,1.0,986.4198220002436,3.0,1.0,phase_3,,,,,39.0,1.0,39.0,234.0,78.0,117.0,195.0,156.0,gray,circle
0.0,7.0,3.0,1.0,7.0,4.0,2013.541088999773,3.0,1.0,phase_3,,,,,98.0,2.0,147.0,245.0,49.0,98.0,294.0,196.0,white,cross
0.0,3.0,3.0,0.0,7.0,6.0,941.3325879995682,3.0,1.0,phase_3,,,,,117.0,3.0,195.0,234.0,78.0,39.0,156.0,117.0,cyan,diamond
0.0,8.0,4.0,1.0,7.0,3.0,1223.1001720001586,3.0,1.0,phase_3,,,,,234.0,6.0,78.0,117.0,234.0,195.0,156.0,39.0,green,I
0.0,7.0,3.0,1.0,7.0,6.0,768.391020999843,4.0,1.0,phase_3,,,,,88.0,2.0,176.0,264.0,44.0,132.0,220.0,88.0,white,cross
0.0,2.0,2.0,0.0,7.0,1.0,749.9405990001833,4.0,1.0,phase_3,,,,,44.0,1.0,44.0,220.0,132.0,264.0,176.0,88.0,yellow,flipped triangle
0.0,5.0,1.0,1.0,7.0,1.0,732.5749720002932,4.0,1.0,phase_3,,,,,44.0,1.0,44.0,132.0,88.0,264.0,176.0,220.0,gray,circle
0.0,8.0,4.0,1.0,7.0,3.0,1261.1032059994614,4.0,1.0,phase_3,,,,,204.0,6.0,102.0,34.0,204.0,68.0,170.0,136.0,green,I
0.0,8.0,4.0,1.0,7.0,3.0,1341.7051570004332,4.0,1.0,phase_3,,,,,264.0,6.0,88.0,132.0,264.0,220.0,44.0,176.0,green,I
0.0,2.0,2.0,0.0,7.0,5.0,1055.1491199994416,4.0,1.0,phase_3,,,,,108.0,2.0,54.0,324.0,216.0,162.0,108.0,270.0,yellow,flipped triangle
0.0,4.0,4.0,0.0,7.0,6.0,1136.7396240002563,4.0,1.0,phase_3,,,,,204.0,6.0,102.0,34.0,136.0,170.0,68.0,204.0,orange,triangle
0.0,1.0,1.0,0.0,7.0,2.0,1132.566198000859,4.0,1.0,phase_3,,,,,147.0,3.0,49.0,147.0,294.0,98.0,245.0,196.0,magenta,square
0.0,1.0,1.0,0.0,7.0,4.0,956.6713489994072,4.0,1.0,phase_3,,,,,147.0,3.0,98.0,245.0,49.0,147.0,294.0,196.0,magenta,square
0.0,4.0,4.0,0.0,7.0,6.0,1109.2765030007286,4.0,1.0,phase_3,,,,,264.0,6.0,44.0,88.0,132.0,176.0,220.0,264.0,orange,triangle
0.0,7.0,3.0,1.0,7.0,5.0,1948.367289999624,4.0,1.0,phase_3,,,,,88.0,2.0,176.0,132.0,220.0,44.0,88.0,264.0,white,cross
0.0,7.0,3.0,1.0,7.0,1.0,1645.7464770001025,4.0,1.0,phase_3,,,,,170.0,5.0,170.0,136.0,68.0,102.0,204.0,34.0,white,cross
0.0,8.0,4.0,1.0,7.0,3.0,1487.0036379998055,4.0,1.0,phase_3,,,,,294.0,6.0,49.0,147.0,294.0,245.0,196.0,98.0,green,I
0.0,5.0,1.0,1.0,7.0,5.0,1111.7636240005595,4.0,1.0,phase_3,,,,,49.0,1.0,196.0,98.0,147.0,294.0,49.0,245.0,gray,circle
0.0,8.0,4.0,1.0,7.0,4.0,1031.080746999578,4.0,1.0,phase_3,,,,,234.0,6.0,156.0,39.0,195.0,234.0,78.0,117.0,green,I
0.0,1.0,1.0,0.0,7.0,2.0,1475.586000000476,4.0,1.0,phase_3,,,,,162.0,3.0,324.0,162.0,216.0,108.0,54.0,270.0,magenta,square
0.0,1.0,1.0,0.0,7.0,1.0,1200.6632809998337,4.0,1.0,phase_3,,,,,195.0,5.0,195.0,234.0,156.0,39.0,117.0,78.0,magenta,square
0.0,6.0,2.0,1.0,7.0,5.0,1148.9688769997883,4.0,1.0,phase_3,,,,,216.0,4.0,54.0,270.0,162.0,324.0,216.0,108.0,blue,hexagon
0.0,8.0,4.0,1.0,7.0,1.0,1610.5433389993775,4.0,1.0,phase_3,,,,,324.0,6.0,324.0,216.0,270.0,162.0,108.0,54.0,green,I
0.0,6.0,2.0,1.0,7.0,5.0,1351.3753570005065,4.0,1.0,phase_3,,,,,117.0,3.0,78.0,156.0,195.0,234.0,117.0,39.0,blue,hexagon
