raw_reward_magnitude,stim_reward,stepwise_reward_magnitude,paired_with_stopping,stim_location,response,reaction_time,block,num_trial_presentations,which_phase,stop_signal_trial_type,left_SSD,right_SSD,accuracy,chosen_bidding_amount,chosen_bidding_level,possible_bid_1,possible_bid_2,possible_bid_3,possible_bid_4,possible_bid_5,possible_bid_6,color_text,shape_text
119.0,6.0,2.0,1.0,4.0,4.0,411.5357210002912,1.0,1.0,phase_1,,,,,,,,,,,,,yellow,diamond
0.0,4.0,0.0,0.0,3.0,3.0,392.9790629999843,1.0,1.0,phase_1,,,,,,,,,,,,,green,triangle
91.0,2.0,2.0,0.0,1.0,1.0,308.2075740003347,1.0,1.0,phase_1,,,,,,,,,,,,,magenta,flipped triangle
391.0,8.0,4.0,1.0,3.0,3.0,326.9133800004056,1.0,1.0,phase_1,,,,,,,,,,,,,blue,square
54.0,1.0,1.0,0.0,1.0,1.0,289.9600430000646,1.0,1.0,phase_1,,,,,,,,,,,,,white,I
400.0,4.0,4.0,0.0,2.0,2.0,433.619627000553,1.0,1.0,phase_1,,,,,,,,,,,,,green,triangle
49.0,5.0,1.0,1.0,4.0,4.0,295.1982509994195,1.0,1.0,phase_1,,,,,,,,,,,,,orange,cross
387.0,4.0,4.0,0.0,2.0,2.0,349.4087330000184,1.0,1.0,phase_1,,,,,,,,,,,,,green,triangle
0.0,2.0,0.0,0.0,3.0,3.0,314.800815000126,1.0,1.0,phase_1,,,,,,,,,,,,,magenta,flipped triangle
207.0,3.0,3.0,0.0,2.0,2.0,435.5849509993277,1.0,1.0,phase_1,,,,,,,,,,,,,cyan,hexagon
0.0,7.0,0.0,1.0,1.0,1.0,298.0456010000125,1.0,1.0,phase_1,,,,,,,,,,,,,gray,circle
420.0,4.0,4.0,0.0,3.0,3.0,345.3562510003394,1.0,1.0,phase_1,,,,,,,,,,,,,green,triangle
0.0,3.0,0.0,0.0,3.0,3.0,332.5527070001044,1.0,1.0,phase_1,,,,,,,,,,,,,cyan,hexagon
65.0,5.0,1.0,1.0,1.0,1.0,335.352612000861,1.0,1.0,phase_1,,,,,,,,,,,,,orange,cross
0.0,1.0,0.0,0.0,3.0,3.0,265.8053949999157,1.0,1.0,phase_1,,,,,,,,,,,,,white,I
380.0,8.0,4.0,1.0,1.0,1.0,296.2828899999294,1.0,1.0,phase_1,,,,,,,,,,,,,blue,square
120.0,2.0,2.0,0.0,3.0,3.0,278.5108289999698,1.0,1.0,phase_1,,,,,,,,,,,,,magenta,flipped triangle
38.0,1.0,1.0,0.0,2.0,2.0,289.6940860000541,1.0,1.0,phase_1,,,,,,,,,,,,,white,I
29.0,1.0,1.0,0.0,2.0,2.0,378.5734929997488,1.0,1.0,phase_1,,,,,,,,,,,,,white,I
0.0,3.0,0.0,0.0,3.0,3.0,266.3623339994956,1.0,1.0,phase_1,,,,,,,,,,,,,cyan,hexagon
76.0,6.0,2.0,1.0,3.0,3.0,313.414575999559,1.0,1.0,phase_1,,,,,,,,,,,,,yellow,diamond
205.0,7.0,3.0,1.0,1.0,1.0,335.9625279999818,1.0,1.0,phase_1,,,,,,,,,,,,,gray,circle
69.0,1.0,1.0,0.0,2.0,2.0,428.5791230004179,1.0,1.0,phase_1,,,,,,,,,,,,,white,I
30.0,5.0,1.0,1.0,2.0,2.0,406.519128000582,1.0,1.0,phase_1,,,,,,,,,,,,,orange,cross
85.0,6.0,2.0,1.0,2.0,2.0,374.6212269998068,1.0,1.0,phase_1,,,,,,,,,,,,,yellow,diamond
0.0,4.0,0.0,0.0,3.0,3.0,286.4892020006664,1.0,1.0,phase_1,,,,,,,,,,,,,green,triangle
103.0,6.0,2.0,1.0,4.0,4.0,313.1954639993637,1.0,1.0,phase_1,,,,,,,,,,,,,yellow,diamond
33.0,1.0,1.0,0.0,1.0,1.0,295.3842899996743,1.0,1.0,phase_1,,,,,,,,,,,,,white,I
90.0,2.0,2.0,0.0,2.0,2.0,374.110247000317,1.0,1.0,phase_1,,,,,,,,,,,,,magenta,flipped triangle
196.0,7.0,3.0,1.0,3.0,3.0,294.4373689997519,1.0,1.0,phase_1,,,,,,,,,,,,,gray,circle
391.0,8.0,4.0,1.0,1.0,1.0,272.5426119995973,1.0,1.0,phase_1,,,,,,,,,,,,,blue,square
60.0,1.0,1.0,0.0,2.0,2.0,338.0276159996356,1.0,1.0,phase_1,,,,,,,,,,,,,white,I
378.0,4.0,4.0,0.0,4.0,4.0,287.4712860002546,1.0,1.0,phase_1,,,,,,,,,,,,,green,triangle
0.0,2.0,0.0,0.0,4.0,4.0,327.9750589999821,1.0,1.0,phase_1,,,,,,,,,,,,,magenta,flipped triangle
420.0,8.0,4.0,1.0,4.0,4.0,337.1461630003978,1.0,1.0,phase_1,,,,,,,,,,,,,blue,square
118.0,6.0,2.0,1.0,3.0,3.0,337.157357000251,1.0,1.0,phase_1,,,,,,,,,,,,,yellow,diamond
0.0,4.0,0.0,0.0,2.0,2.0,280.5312840000624,1.0,1.0,phase_1,,,,,,,,,,,,,green,triangle
0.0,6.0,0.0,1.0,3.0,3.0,281.8375429997104,1.0,1.0,phase_1,,,,,,,,,,,,,yellow,diamond
180.0,3.0,3.0,0.0,1.0,1.0,373.2402979994731,1.0,1.0,phase_1,,,,,,,,,,,,,cyan,hexagon
63.0,5.0,1.0,1.0,1.0,1.0,441.19000199953,1.0,1.0,phase_1,,,,,,,,,,,,,orange,cross
0.0,1.0,0.0,0.0,1.0,1.0,396.4834770004017,1.0,1.0,phase_1,,,,,,,,,,,,,white,I
0.0,8.0,0.0,1.0,4.0,4.0,379.8966619997372,1.0,1.0,phase_1,,,,,,,,,,,,,blue,square
0.0,1.0,0.0,0.0,1.0,1.0,401.9872050002959,1.0,1.0,phase_1,,,,,,,,,,,,,white,I
103.0,6.0,2.0,1.0,1.0,1.0,349.6155089997046,1.0,1.0,phase_1,,,,,,,,,,,,,yellow,diamond
211.0,7.0,3.0,1.0,2.0,2.0,345.501798999976,1.0,1.0,phase_1,,,,,,,,,,,,,gray,circle
119.0,6.0,2.0,1.0,4.0,4.0,328.3919319992492,1.0,1.0,phase_1,,,,,,,,,,,,,yellow,diamond
418.0,4.0,4.0,0.0,2.0,2.0,382.3333919999641,1.0,1.0,phase_1,,,,,,,,,,,,,green,triangle
45.0,5.0,1.0,1.0,1.0,1.0,338.4472749994529,1.0,1.0,phase_1,,,,,,,,,,,,,orange,cross
63.0,5.0,1.0,1.0,2.0,2.0,650.4393159993924,1.0,1.0,phase_1,,,,,,,,,,,,,orange,cross
0.0,6.0,0.0,1.0,3.0,3.0,313.2607879997522,1.0,1.0,phase_1,,,,,,,,,,,,,yellow,diamond
0.0,3.0,0.0,0.0,3.0,3.0,442.5440889999663,1.0,1.0,phase_1,,,,,,,,,,,,,cyan,hexagon
0.0,1.0,0.0,0.0,4.0,4.0,429.6580629998061,1.0,1.0,phase_1,,,,,,,,,,,,,white,I
0.0,6.0,0.0,1.0,3.0,3.0,384.3683840004814,1.0,1.0,phase_1,,,,,,,,,,,,,yellow,diamond
53.0,5.0,1.0,1.0,3.0,3.0,322.7462310005649,1.0,1.0,phase_1,,,,,,,,,,,,,orange,cross
420.0,8.0,4.0,1.0,1.0,1.0,292.7643559996795,1.0,1.0,phase_1,,,,,,,,,,,,,blue,square
119.0,2.0,2.0,0.0,2.0,2.0,443.9404240001749,1.0,1.0,phase_1,,,,,,,,,,,,,magenta,flipped triangle
216.0,7.0,3.0,1.0,4.0,4.0,344.5667050000338,1.0,1.0,phase_1,,,,,,,,,,,,,gray,circle
187.0,3.0,3.0,0.0,2.0,2.0,354.987390000133,1.0,1.0,phase_1,,,,,,,,,,,,,cyan,hexagon
0.0,5.0,0.0,1.0,4.0,4.0,439.131761999306,1.0,1.0,phase_1,,,,,,,,,,,,,orange,cross
420.0,4.0,4.0,0.0,1.0,1.0,601.6475520000313,1.0,1.0,phase_1,,,,,,,,,,,,,green,triangle
181.0,7.0,3.0,1.0,2.0,2.0,351.6347650001989,1.0,1.0,phase_1,,,,,,,,,,,,,gray,circle
419.0,4.0,4.0,0.0,4.0,4.0,330.7679789995745,1.0,2.0,phase_1,,,,,,,,,,,,,green,triangle
77.0,6.0,2.0,1.0,2.0,2.0,462.1386549997623,1.0,1.0,phase_1,,,,,,,,,,,,,yellow,diamond
0.0,5.0,0.0,1.0,1.0,1.0,347.0244799991633,1.0,1.0,phase_1,,,,,,,,,,,,,orange,cross
26.0,5.0,1.0,1.0,2.0,2.0,449.3031069996505,1.0,1.0,phase_1,,,,,,,,,,,,,orange,cross
182.0,3.0,3.0,0.0,1.0,1.0,375.6204330002219,1.0,1.0,phase_1,,,,,,,,,,,,,cyan,hexagon
182.0,7.0,3.0,1.0,2.0,2.0,422.909509999954,1.0,1.0,phase_1,,,,,,,,,,,,,gray,circle
45.0,1.0,1.0,0.0,3.0,3.0,355.0070920000507,1.0,1.0,phase_1,,,,,,,,,,,,,white,I
100.0,2.0,2.0,0.0,2.0,2.0,369.0283109999654,1.0,1.0,phase_1,,,,,,,,,,,,,magenta,flipped triangle
45.0,1.0,1.0,0.0,3.0,3.0,516.8109019996336,1.0,1.0,phase_1,,,,,,,,,,,,,white,I
73.0,5.0,1.0,1.0,2.0,2.0,364.4928150006308,1.0,1.0,phase_1,,,,,,,,,,,,,orange,cross
30.0,1.0,1.0,0.0,2.0,2.0,475.0073710001743,1.0,1.0,phase_1,,,,,,,,,,,,,white,I
407.0,4.0,4.0,0.0,2.0,2.0,362.5944440000239,1.0,1.0,phase_1,,,,,,,,,,,,,green,triangle
380.0,4.0,4.0,0.0,3.0,3.0,494.5885000006456,1.0,1.0,phase_1,,,,,,,,,,,,,green,triangle
0.0,7.0,0.0,1.0,2.0,2.0,353.1412140000611,1.0,1.0,phase_1,,,,,,,,,,,,,gray,circle
397.0,4.0,4.0,0.0,2.0,2.0,296.7981510000754,1.0,1.0,phase_1,,,,,,,,,,,,,green,triangle
31.0,5.0,1.0,1.0,2.0,2.0,357.3443149998638,1.0,1.0,phase_1,,,,,,,,,,,,,orange,cross
100.0,6.0,2.0,1.0,4.0,4.0,347.765960000288,1.0,1.0,phase_1,,,,,,,,,,,,,yellow,diamond
62.0,5.0,1.0,1.0,3.0,3.0,384.3410759991457,1.0,1.0,phase_1,,,,,,,,,,,,,orange,cross
25.0,5.0,1.0,1.0,3.0,3.0,487.7320659998077,1.0,1.0,phase_1,,,,,,,,,,,,,orange,cross
0.0,5.0,0.0,1.0,4.0,4.0,513.8435010003377,1.0,1.0,phase_1,,,,,,,,,,,,,orange,cross
52.0,5.0,1.0,1.0,3.0,3.0,445.5336139999417,1.0,1.0,phase_1,,,,,,,,,,,,,orange,cross
55.0,1.0,1.0,0.0,4.0,4.0,331.1340370000835,1.0,1.0,phase_1,,,,,,,,,,,,,white,I
183.0,7.0,3.0,1.0,2.0,2.0,426.2565080007334,1.0,1.0,phase_1,,,,,,,,,,,,,gray,circle
386.0,4.0,4.0,0.0,1.0,1.0,396.0578440000972,1.0,1.0,phase_1,,,,,,,,,,,,,green,triangle
400.0,4.0,4.0,0.0,1.0,1.0,369.4935600005919,1.0,1.0,phase_1,,,,,,,,,,,,,green,triangle
181.0,3.0,3.0,0.0,4.0,4.0,334.3012579998685,1.0,1.0,phase_1,,,,,,,,,,,,,cyan,hexagon
110.0,6.0,2.0,1.0,2.0,2.0,431.5155790000062,1.0,1.0,phase_1,,,,,,,,,,,,,yellow,diamond
211.0,3.0,3.0,0.0,1.0,1.0,409.7976820003168,1.0,1.0,phase_1,,,,,,,,,,,,,cyan,hexagon
381.0,8.0,4.0,1.0,4.0,4.0,342.7795779998632,1.0,1.0,phase_1,,,,,,,,,,,,,blue,square
48.0,5.0,1.0,1.0,3.0,3.0,346.3176429995656,1.0,1.0,phase_1,,,,,,,,,,,,,orange,cross
187.0,7.0,3.0,1.0,2.0,2.0,336.9367679997594,1.0,1.0,phase_1,,,,,,,,,,,,,gray,circle
224.0,7.0,3.0,1.0,4.0,4.0,469.5355840003685,1.0,1.0,phase_1,,,,,,,,,,,,,gray,circle
0.0,4.0,0.0,0.0,2.0,2.0,512.0709800003169,1.0,1.0,phase_1,,,,,,,,,,,,,green,triangle
31.0,1.0,1.0,0.0,4.0,4.0,446.0530810001728,1.0,1.0,phase_1,,,,,,,,,,,,,white,I
61.0,5.0,1.0,1.0,2.0,2.0,354.3818919997648,1.0,1.0,phase_1,,,,,,,,,,,,,orange,cross
217.0,7.0,3.0,1.0,3.0,3.0,342.2533849998217,1.0,1.0,phase_1,,,,,,,,,,,,,gray,circle
175.0,7.0,3.0,1.0,3.0,3.0,402.7711660000932,1.0,1.0,phase_1,,,,,,,,,,,,,gray,circle
57.0,1.0,1.0,0.0,4.0,4.0,483.6464039999555,1.0,1.0,phase_1,,,,,,,,,,,,,white,I
221.0,3.0,3.0,0.0,2.0,2.0,436.1610129999462,1.0,1.0,phase_1,,,,,,,,,,,,,cyan,hexagon
406.0,8.0,4.0,1.0,4.0,4.0,453.3833499999673,2.0,1.0,phase_1,,,,,,,,,,,,,blue,square
77.0,2.0,2.0,0.0,1.0,1.0,307.3798449995593,2.0,1.0,phase_1,,,,,,,,,,,,,magenta,flipped triangle
202.0,7.0,3.0,1.0,4.0,4.0,431.5888240007552,2.0,1.0,phase_1,,,,,,,,,,,,,gray,circle
390.0,4.0,4.0,0.0,4.0,4.0,304.1144879998683,2.0,1.0,phase_1,,,,,,,,,,,,,green,triangle
0.0,6.0,0.0,1.0,1.0,1.0,294.3824880003376,2.0,1.0,phase_1,,,,,,,,,,,,,yellow,diamond
111.0,6.0,2.0,1.0,3.0,3.0,328.6481979994278,2.0,1.0,phase_1,,,,,,,,,,,,,yellow,diamond
0.0,7.0,0.0,1.0,1.0,1.0,349.4593969999187,2.0,1.0,phase_1,,,,,,,,,,,,,gray,circle
383.0,8.0,4.0,1.0,4.0,4.0,315.6503589998465,2.0,1.0,phase_1,,,,,,,,,,,,,blue,square
0.0,5.0,0.0,1.0,2.0,2.0,476.674071999696,2.0,1.0,phase_1,,,,,,,,,,,,,orange,cross
33.0,1.0,1.0,0.0,3.0,3.0,312.4419900004795,2.0,1.0,phase_1,,,,,,,,,,,,,white,I
77.0,2.0,2.0,0.0,2.0,2.0,333.7335650003297,2.0,1.0,phase_1,,,,,,,,,,,,,magenta,flipped triangle
391.0,4.0,4.0,0.0,4.0,4.0,307.0722109996495,2.0,1.0,phase_1,,,,,,,,,,,,,green,triangle
382.0,8.0,4.0,1.0,2.0,2.0,283.5934029999407,2.0,1.0,phase_1,,,,,,,,,,,,,blue,square
112.0,6.0,2.0,1.0,1.0,1.0,339.4235289997596,2.0,1.0,phase_1,,,,,,,,,,,,,yellow,diamond
396.0,8.0,4.0,1.0,3.0,3.0,287.4552949997451,2.0,1.0,phase_1,,,,,,,,,,,,,blue,square
0.0,3.0,0.0,0.0,4.0,4.0,321.2653979999231,2.0,1.0,phase_1,,,,,,,,,,,,,cyan,hexagon
65.0,1.0,1.0,0.0,4.0,4.0,397.3242669999308,2.0,1.0,phase_1,,,,,,,,,,,,,white,I
108.0,6.0,2.0,1.0,1.0,1.0,437.1968980003657,2.0,1.0,phase_1,,,,,,,,,,,,,yellow,diamond
377.0,8.0,4.0,1.0,1.0,1.0,365.3678950004178,2.0,1.0,phase_1,,,,,,,,,,,,,blue,square
400.0,8.0,4.0,1.0,3.0,3.0,435.0929920001363,2.0,1.0,phase_1,,,,,,,,,,,,,blue,square
69.0,1.0,1.0,0.0,3.0,3.0,464.2196679997141,2.0,1.0,phase_1,,,,,,,,,,,,,white,I
183.0,3.0,3.0,0.0,1.0,1.0,329.3340220006939,2.0,1.0,phase_1,,,,,,,,,,,,,cyan,hexagon
0.0,8.0,0.0,1.0,4.0,4.0,324.4493980000698,2.0,1.0,phase_1,,,,,,,,,,,,,blue,square
0.0,6.0,0.0,1.0,2.0,2.0,508.03376700059744,2.0,1.0,phase_1,,,,,,,,,,,,,yellow,diamond
0.0,5.0,0.0,1.0,3.0,3.0,316.7973260005965,2.0,1.0,phase_1,,,,,,,,,,,,,orange,cross
408.0,4.0,4.0,0.0,1.0,1.0,284.9707020004643,2.0,1.0,phase_1,,,,,,,,,,,,,green,triangle
0.0,4.0,0.0,0.0,4.0,4.0,352.3852339994846,2.0,1.0,phase_1,,,,,,,,,,,,,green,triangle
103.0,6.0,2.0,1.0,2.0,2.0,334.8935130006794,2.0,1.0,phase_1,,,,,,,,,,,,,yellow,diamond
119.0,2.0,2.0,0.0,1.0,1.0,368.2074970001849,2.0,1.0,phase_1,,,,,,,,,,,,,magenta,flipped triangle
0.0,1.0,0.0,0.0,3.0,3.0,292.7012650006872,2.0,1.0,phase_1,,,,,,,,,,,,,white,I
403.0,4.0,4.0,0.0,3.0,3.0,339.5069359994522,2.0,1.0,phase_1,,,,,,,,,,,,,green,triangle
0.0,3.0,0.0,0.0,2.0,2.0,468.5649249995549,2.0,1.0,phase_1,,,,,,,,,,,,,cyan,hexagon
106.0,2.0,2.0,0.0,2.0,2.0,424.7350969999388,2.0,1.0,phase_1,,,,,,,,,,,,,magenta,flipped triangle
409.0,8.0,4.0,1.0,2.0,2.0,394.139813000038,2.0,1.0,phase_1,,,,,,,,,,,,,blue,square
82.0,2.0,2.0,0.0,3.0,3.0,321.0056930001883,2.0,1.0,phase_1,,,,,,,,,,,,,magenta,flipped triangle
205.0,7.0,3.0,1.0,3.0,3.0,446.3075680005204,2.0,1.0,phase_1,,,,,,,,,,,,,gray,circle
216.0,7.0,3.0,1.0,3.0,3.0,683.2766460001949,2.0,1.0,phase_1,,,,,,,,,,,,,gray,circle
0.0,5.0,0.0,1.0,2.0,2.0,454.320288999952,2.0,1.0,phase_1,,,,,,,,,,,,,orange,cross
0.0,4.0,0.0,0.0,2.0,2.0,477.8728179999234,2.0,1.0,phase_1,,,,,,,,,,,,,green,triangle
178.0,3.0,3.0,0.0,4.0,4.0,548.856264999813,2.0,1.0,phase_1,,,,,,,,,,,,,cyan,hexagon
413.0,4.0,4.0,0.0,4.0,4.0,381.6896359994643,2.0,1.0,phase_1,,,,,,,,,,,,,green,triangle
213.0,7.0,3.0,1.0,2.0,2.0,395.882580000034,2.0,1.0,phase_1,,,,,,,,,,,,,gray,circle
91.0,6.0,2.0,1.0,3.0,3.0,286.4528729996891,2.0,1.0,phase_1,,,,,,,,,,,,,yellow,diamond
190.0,7.0,3.0,1.0,2.0,2.0,418.5731939996913,2.0,2.0,phase_1,,,,,,,,,,,,,gray,circle
216.0,3.0,3.0,0.0,3.0,3.0,372.3779900001318,2.0,1.0,phase_1,,,,,,,,,,,,,cyan,hexagon
54.0,1.0,1.0,0.0,3.0,3.0,379.4112460000178,2.0,1.0,phase_1,,,,,,,,,,,,,white,I
414.0,4.0,4.0,0.0,4.0,4.0,312.6900400002341,2.0,1.0,phase_1,,,,,,,,,,,,,green,triangle
381.0,4.0,4.0,0.0,1.0,1.0,335.6450999999651,2.0,1.0,phase_1,,,,,,,,,,,,,green,triangle
93.0,2.0,2.0,0.0,3.0,3.0,341.7082290006874,2.0,1.0,phase_1,,,,,,,,,,,,,magenta,flipped triangle
0.0,2.0,0.0,0.0,1.0,1.0,622.4794159998055,2.0,1.0,phase_1,,,,,,,,,,,,,magenta,flipped triangle
114.0,2.0,2.0,0.0,2.0,2.0,597.970059000545,2.0,1.0,phase_1,,,,,,,,,,,,,magenta,flipped triangle
207.0,7.0,3.0,1.0,4.0,4.0,361.0342960000707,2.0,1.0,phase_1,,,,,,,,,,,,,gray,circle
103.0,2.0,2.0,0.0,1.0,1.0,458.5187929997119,2.0,1.0,phase_1,,,,,,,,,,,,,magenta,flipped triangle
0.0,5.0,0.0,1.0,1.0,1.0,476.7602000001716,2.0,1.0,phase_1,,,,,,,,,,,,,orange,cross
392.0,8.0,4.0,1.0,1.0,1.0,502.1447380004247,2.0,1.0,phase_1,,,,,,,,,,,,,blue,square
88.0,2.0,2.0,0.0,1.0,1.0,482.7334020001217,2.0,1.0,phase_1,,,,,,,,,,,,,magenta,flipped triangle
43.0,5.0,1.0,1.0,4.0,4.0,481.2477630002831,2.0,1.0,phase_1,,,,,,,,,,,,,orange,cross
85.0,2.0,2.0,0.0,4.0,4.0,363.0331360000127,2.0,1.0,phase_1,,,,,,,,,,,,,magenta,flipped triangle
211.0,7.0,3.0,1.0,1.0,1.0,439.2920609998327,2.0,1.0,phase_1,,,,,,,,,,,,,gray,circle
117.0,6.0,2.0,1.0,2.0,2.0,464.2178840003907,2.0,1.0,phase_1,,,,,,,,,,,,,yellow,diamond
100.0,2.0,2.0,0.0,3.0,3.0,532.8232110005047,2.0,1.0,phase_1,,,,,,,,,,,,,magenta,flipped triangle
114.0,6.0,2.0,1.0,2.0,2.0,648.2418220002728,2.0,1.0,phase_1,,,,,,,,,,,,,yellow,diamond
106.0,6.0,2.0,1.0,2.0,2.0,333.185888999651,2.0,1.0,phase_1,,,,,,,,,,,,,yellow,diamond
385.0,4.0,4.0,0.0,2.0,2.0,374.2021850002857,2.0,1.0,phase_1,,,,,,,,,,,,,green,triangle
33.0,5.0,1.0,1.0,4.0,4.0,417.6575190003859,2.0,1.0,phase_1,,,,,,,,,,,,,orange,cross
213.0,3.0,3.0,0.0,3.0,3.0,336.0810530002709,2.0,1.0,phase_1,,,,,,,,,,,,,cyan,hexagon
30.0,5.0,1.0,1.0,2.0,2.0,328.6635230006141,2.0,1.0,phase_1,,,,,,,,,,,,,orange,cross
106.0,6.0,2.0,1.0,3.0,3.0,339.8622969998541,2.0,1.0,phase_1,,,,,,,,,,,,,yellow,diamond
97.0,6.0,2.0,1.0,4.0,4.0,487.6348679999864,2.0,1.0,phase_1,,,,,,,,,,,,,yellow,diamond
225.0,3.0,3.0,0.0,4.0,4.0,707.281616999353,2.0,1.0,phase_1,,,,,,,,,,,,,cyan,hexagon
0.0,1.0,0.0,0.0,3.0,3.0,572.3977530005868,2.0,1.0,phase_1,,,,,,,,,,,,,white,I
196.0,3.0,3.0,0.0,1.0,1.0,601.3962540000648,2.0,1.0,phase_1,,,,,,,,,,,,,cyan,hexagon
102.0,6.0,2.0,1.0,1.0,1.0,318.4244429994578,2.0,1.0,phase_1,,,,,,,,,,,,,yellow,diamond
107.0,2.0,2.0,0.0,4.0,4.0,441.0498100005497,2.0,1.0,phase_1,,,,,,,,,,,,,magenta,flipped triangle
181.0,7.0,3.0,1.0,2.0,2.0,457.9946699996071,2.0,1.0,phase_1,,,,,,,,,,,,,gray,circle
53.0,1.0,1.0,0.0,3.0,3.0,303.5639090003315,2.0,1.0,phase_1,,,,,,,,,,,,,white,I
0.0,2.0,0.0,0.0,1.0,1.0,412.4184789998253,2.0,1.0,phase_1,,,,,,,,,,,,,magenta,flipped triangle
387.0,8.0,4.0,1.0,2.0,2.0,378.4856299998864,2.0,1.0,phase_1,,,,,,,,,,,,,blue,square
90.0,6.0,2.0,1.0,1.0,1.0,536.32129899961,2.0,1.0,phase_1,,,,,,,,,,,,,yellow,diamond
68.0,1.0,1.0,0.0,2.0,2.0,538.6761659992771,2.0,1.0,phase_1,,,,,,,,,,,,,white,I
400.0,8.0,4.0,1.0,2.0,2.0,383.4579920003307,2.0,1.0,phase_1,,,,,,,,,,,,,blue,square
77.0,6.0,2.0,1.0,4.0,4.0,474.042623999594,2.0,1.0,phase_1,,,,,,,,,,,,,yellow,diamond
83.0,6.0,2.0,1.0,3.0,3.0,350.936881999587,2.0,1.0,phase_1,,,,,,,,,,,,,yellow,diamond
423.0,8.0,4.0,1.0,1.0,1.0,315.0025670001923,2.0,1.0,phase_1,,,,,,,,,,,,,blue,square
202.0,3.0,3.0,0.0,1.0,1.0,450.6329050000204,2.0,1.0,phase_1,,,,,,,,,,,,,cyan,hexagon
221.0,7.0,3.0,1.0,4.0,4.0,310.1744709992999,2.0,1.0,phase_1,,,,,,,,,,,,,gray,circle
75.0,5.0,1.0,1.0,1.0,1.0,328.5244519993284,2.0,1.0,phase_1,,,,,,,,,,,,,orange,cross
101.0,2.0,2.0,0.0,4.0,4.0,418.4417159995064,2.0,1.0,phase_1,,,,,,,,,,,,,magenta,flipped triangle
97.0,2.0,2.0,0.0,3.0,3.0,395.3054100002191,2.0,1.0,phase_1,,,,,,,,,,,,,magenta,flipped triangle
54.0,5.0,1.0,1.0,1.0,1.0,399.9594739998429,2.0,1.0,phase_1,,,,,,,,,,,,,orange,cross
57.0,5.0,1.0,1.0,1.0,1.0,533.0999260004319,2.0,1.0,phase_1,,,,,,,,,,,,,orange,cross
99.0,2.0,2.0,0.0,4.0,4.0,347.2309680000762,2.0,1.0,phase_1,,,,,,,,,,,,,magenta,flipped triangle
189.0,3.0,3.0,0.0,4.0,4.0,403.0192190002708,2.0,1.0,phase_1,,,,,,,,,,,,,cyan,hexagon
189.0,7.0,3.0,1.0,1.0,1.0,389.5235959998899,2.0,1.0,phase_1,,,,,,,,,,,,,gray,circle
121.0,2.0,2.0,0.0,4.0,4.0,374.7705189998669,2.0,1.0,phase_1,,,,,,,,,,,,,magenta,flipped triangle
83.0,2.0,2.0,0.0,4.0,4.0,538.0062949998319,2.0,1.0,phase_1,,,,,,,,,,,,,magenta,flipped triangle
403.0,8.0,4.0,1.0,3.0,3.0,406.2652450002133,2.0,1.0,phase_1,,,,,,,,,,,,,blue,square
68.0,5.0,1.0,1.0,4.0,4.0,332.2015159992588,2.0,1.0,phase_1,,,,,,,,,,,,,orange,cross
196.0,7.0,3.0,1.0,3.0,3.0,411.5136350001194,2.0,1.0,phase_1,,,,,,,,,,,,,gray,circle
423.0,4.0,4.0,0.0,4.0,4.0,435.6259969999883,2.0,1.0,phase_1,,,,,,,,,,,,,green,triangle
83.0,2.0,2.0,0.0,2.0,2.0,466.5849169996363,3.0,1.0,phase_1,,,,,,,,,,,,,magenta,flipped triangle
73.0,1.0,1.0,0.0,1.0,1.0,297.1523020005406,3.0,1.0,phase_1,,,,,,,,,,,,,white,I
187.0,3.0,3.0,0.0,2.0,2.0,289.9405529997239,3.0,1.0,phase_1,,,,,,,,,,,,,cyan,hexagon
0.0,4.0,0.0,0.0,4.0,4.0,370.158722999804,3.0,1.0,phase_1,,,,,,,,,,,,,green,triangle
0.0,1.0,0.0,0.0,4.0,4.0,333.0478159996346,3.0,1.0,phase_1,,,,,,,,,,,,,white,I
93.0,6.0,2.0,1.0,3.0,3.0,397.8748769995945,3.0,1.0,phase_1,,,,,,,,,,,,,yellow,diamond
409.0,4.0,4.0,0.0,4.0,4.0,327.6391420004074,3.0,1.0,phase_1,,,,,,,,,,,,,green,triangle
68.0,5.0,1.0,1.0,3.0,3.0,335.6639900002847,3.0,1.0,phase_1,,,,,,,,,,,,,orange,cross
179.0,3.0,3.0,0.0,2.0,2.0,402.2565129998838,3.0,1.0,phase_1,,,,,,,,,,,,,cyan,hexagon
0.0,8.0,0.0,1.0,1.0,1.0,307.8911150005297,3.0,1.0,phase_1,,,,,,,,,,,,,blue,square
213.0,3.0,3.0,0.0,4.0,4.0,303.71576300058217,3.0,1.0,phase_1,,,,,,,,,,,,,cyan,hexagon
57.0,1.0,1.0,0.0,2.0,2.0,307.7423159993486,3.0,1.0,phase_1,,,,,,,,,,,,,white,I
25.0,1.0,1.0,0.0,4.0,4.0,443.6295330006032,3.0,1.0,phase_1,,,,,,,,,,,,,white,I
55.0,5.0,1.0,1.0,2.0,2.0,302.6792619994012,3.0,1.0,phase_1,,,,,,,,,,,,,orange,cross
0.0,1.0,0.0,0.0,4.0,4.0,334.1800540001713,3.0,1.0,phase_1,,,,,,,,,,,,,white,I
205.0,3.0,3.0,0.0,3.0,3.0,372.0922720003727,3.0,1.0,phase_1,,,,,,,,,,,,,cyan,hexagon
396.0,4.0,4.0,0.0,2.0,2.0,367.0199789994512,3.0,1.0,phase_1,,,,,,,,,,,,,green,triangle
69.0,5.0,1.0,1.0,4.0,4.0,308.8437149999663,3.0,1.0,phase_1,,,,,,,,,,,,,orange,cross
195.0,7.0,3.0,1.0,1.0,1.0,400.3365029993802,3.0,1.0,phase_1,,,,,,,,,,,,,gray,circle
85.0,2.0,2.0,0.0,4.0,4.0,307.7127960004873,3.0,1.0,phase_1,,,,,,,,,,,,,magenta,flipped triangle
35.0,5.0,1.0,1.0,3.0,3.0,345.4907840005035,3.0,1.0,phase_1,,,,,,,,,,,,,orange,cross
205.0,3.0,3.0,0.0,4.0,4.0,402.8545219998705,3.0,1.0,phase_1,,,,,,,,,,,,,cyan,hexagon
52.0,1.0,1.0,0.0,1.0,1.0,359.2705230003048,3.0,1.0,phase_1,,,,,,,,,,,,,white,I
382.0,8.0,4.0,1.0,1.0,1.0,360.3019989996028,3.0,1.0,phase_1,,,,,,,,,,,,,blue,square
38.0,5.0,1.0,1.0,2.0,2.0,408.4190809999199,3.0,1.0,phase_1,,,,,,,,,,,,,orange,cross
204.0,7.0,3.0,1.0,4.0,4.0,418.1781010001941,3.0,1.0,phase_1,,,,,,,,,,,,,gray,circle
415.0,4.0,4.0,0.0,1.0,1.0,367.8685639997638,3.0,1.0,phase_1,,,,,,,,,,,,,green,triangle
106.0,2.0,2.0,0.0,4.0,4.0,365.9843630002797,3.0,1.0,phase_1,,,,,,,,,,,,,magenta,flipped triangle
0.0,3.0,0.0,0.0,3.0,3.0,383.2925690003321,3.0,1.0,phase_1,,,,,,,,,,,,,cyan,hexagon
0.0,3.0,0.0,0.0,4.0,4.0,414.0116130001843,3.0,1.0,phase_1,,,,,,,,,,,,,cyan,hexagon
414.0,8.0,4.0,1.0,4.0,4.0,475.773131999631,3.0,1.0,phase_1,,,,,,,,,,,,,blue,square
396.0,4.0,4.0,0.0,4.0,4.0,367.0937980004964,3.0,1.0,phase_1,,,,,,,,,,,,,green,triangle
114.0,2.0,2.0,0.0,4.0,4.0,283.4947530000136,3.0,1.0,phase_1,,,,,,,,,,,,,magenta,flipped triangle
382.0,8.0,4.0,1.0,4.0,4.0,441.8220659999861,3.0,1.0,phase_1,,,,,,,,,,,,,blue,square
402.0,4.0,4.0,0.0,4.0,4.0,408.846015000563,3.0,1.0,phase_1,,,,,,,,,,,,,green,triangle
396.0,8.0,4.0,1.0,1.0,1.0,377.5526959998387,3.0,1.0,phase_1,,,,,,,,,,,,,blue,square
93.0,6.0,2.0,1.0,4.0,4.0,334.885715999917,3.0,1.0,phase_1,,,,,,,,,,,,,yellow,diamond
200.0,7.0,3.0,1.0,4.0,4.0,364.6449560001201,3.0,1.0,phase_1,,,,,,,,,,,,,gray,circle
402.0,8.0,4.0,1.0,2.0,2.0,381.6112389995396,3.0,1.0,phase_1,,,,,,,,,,,,,blue,square
415.0,4.0,4.0,0.0,2.0,2.0,453.7598120004986,3.0,1.0,phase_1,,,,,,,,,,,,,green,triangle
216.0,3.0,3.0,0.0,3.0,3.0,462.3736489993462,3.0,1.0,phase_1,,,,,,,,,,,,,cyan,hexagon
112.0,2.0,2.0,0.0,1.0,1.0,545.8664019997741,3.0,1.0,phase_1,,,,,,,,,,,,,magenta,flipped triangle
0.0,6.0,0.0,1.0,2.0,2.0,493.9462470001672,3.0,1.0,phase_1,,,,,,,,,,,,,yellow,diamond
63.0,1.0,1.0,0.0,3.0,3.0,336.2567739995938,3.0,1.0,phase_1,,,,,,,,,,,,,white,I
212.0,3.0,3.0,0.0,4.0,4.0,339.1236059997027,3.0,1.0,phase_1,,,,,,,,,,,,,cyan,hexagon
68.0,1.0,1.0,0.0,3.0,3.0,553.8345560007656,3.0,1.0,phase_1,,,,,,,,,,,,,white,I
211.0,3.0,3.0,0.0,3.0,3.0,427.4501489999238,3.0,1.0,phase_1,,,,,,,,,,,,,cyan,hexagon
124.0,2.0,2.0,0.0,1.0,1.0,348.7968190001993,3.0,1.0,phase_1,,,,,,,,,,,,,magenta,flipped triangle
0.0,7.0,0.0,1.0,2.0,2.0,434.8377750002328,3.0,1.0,phase_1,,,,,,,,,,,,,gray,circle
0.0,2.0,0.0,0.0,2.0,2.0,330.0736410001263,3.0,1.0,phase_1,,,,,,,,,,,,,magenta,flipped triangle
69.0,5.0,1.0,1.0,4.0,4.0,340.1172320000114,3.0,1.0,phase_1,,,,,,,,,,,,,orange,cross
420.0,8.0,4.0,1.0,3.0,3.0,403.4844039997551,3.0,1.0,phase_1,,,,,,,,,,,,,blue,square
0.0,4.0,0.0,0.0,1.0,1.0,417.406461999235,3.0,1.0,phase_1,,,,,,,,,,,,,green,triangle
121.0,6.0,2.0,1.0,1.0,1.0,474.9224180004603,3.0,1.0,phase_1,,,,,,,,,,,,,yellow,diamond
0.0,3.0,0.0,0.0,3.0,3.0,329.0438469994114,3.0,1.0,phase_1,,,,,,,,,,,,,cyan,hexagon
0.0,8.0,0.0,1.0,3.0,3.0,367.4851819996547,3.0,1.0,phase_1,,,,,,,,,,,,,blue,square
223.0,7.0,3.0,1.0,4.0,4.0,372.3855640000693,3.0,1.0,phase_1,,,,,,,,,,,,,gray,circle
33.0,1.0,1.0,0.0,1.0,1.0,377.7831280003738,3.0,1.0,phase_1,,,,,,,,,,,,,white,I
44.0,1.0,1.0,0.0,1.0,1.0,350.7819610003935,3.0,1.0,phase_1,,,,,,,,,,,,,white,I
217.0,3.0,3.0,0.0,2.0,2.0,305.2376030000232,3.0,1.0,phase_1,,,,,,,,,,,,,cyan,hexagon
103.0,2.0,2.0,0.0,3.0,3.0,507.8165450004235,3.0,1.0,phase_1,,,,,,,,,,,,,magenta,flipped triangle
182.0,3.0,3.0,0.0,2.0,2.0,397.2667309999451,3.0,1.0,phase_1,,,,,,,,,,,,,cyan,hexagon
35.0,1.0,1.0,0.0,2.0,2.0,310.7261639997887,3.0,1.0,phase_1,,,,,,,,,,,,,white,I
0.0,2.0,0.0,0.0,4.0,4.0,425.064516999555,3.0,1.0,phase_1,,,,,,,,,,,,,magenta,flipped triangle
117.0,2.0,2.0,0.0,3.0,3.0,418.9049839997096,3.0,1.0,phase_1,,,,,,,,,,,,,magenta,flipped triangle
0.0,2.0,0.0,0.0,1.0,1.0,446.8527349999931,3.0,1.0,phase_1,,,,,,,,,,,,,magenta,flipped triangle
408.0,8.0,4.0,1.0,2.0,2.0,484.1920179997032,3.0,1.0,phase_1,,,,,,,,,,,,,blue,square
0.0,3.0,0.0,0.0,1.0,1.0,363.1449340000472,3.0,1.0,phase_1,,,,,,,,,,,,,cyan,hexagon
0.0,7.0,0.0,1.0,4.0,4.0,711.3216240004476,3.0,1.0,phase_1,,,,,,,,,,,,,gray,circle
419.0,8.0,4.0,1.0,4.0,4.0,320.2954819998922,3.0,1.0,phase_1,,,,,,,,,,,,,blue,square
103.0,2.0,2.0,0.0,2.0,2.0,353.1553270004224,3.0,1.0,phase_1,,,,,,,,,,,,,magenta,flipped triangle
54.0,5.0,1.0,1.0,2.0,2.0,349.7626309999759,3.0,2.0,phase_1,,,,,,,,,,,,,orange,cross
190.0,3.0,3.0,0.0,3.0,3.0,380.47458100027137,3.0,1.0,phase_1,,,,,,,,,,,,,cyan,hexagon
0.0,7.0,0.0,1.0,3.0,3.0,395.003302999612,3.0,1.0,phase_1,,,,,,,,,,,,,gray,circle
85.0,2.0,2.0,0.0,1.0,1.0,355.8022870001878,3.0,1.0,phase_1,,,,,,,,,,,,,magenta,flipped triangle
210.0,7.0,3.0,1.0,3.0,3.0,508.33212199995614,3.0,1.0,phase_1,,,,,,,,,,,,,gray,circle
416.0,4.0,4.0,0.0,3.0,3.0,384.0124480002487,3.0,1.0,phase_1,,,,,,,,,,,,,green,triangle
0.0,6.0,0.0,1.0,3.0,3.0,495.447102000071,3.0,1.0,phase_1,,,,,,,,,,,,,yellow,diamond
187.0,7.0,3.0,1.0,1.0,1.0,374.4224729998677,3.0,1.0,phase_1,,,,,,,,,,,,,gray,circle
0.0,5.0,0.0,1.0,1.0,1.0,596.7392420006945,3.0,1.0,phase_1,,,,,,,,,,,,,orange,cross
418.0,8.0,4.0,1.0,3.0,3.0,513.7629539995032,3.0,1.0,phase_1,,,,,,,,,,,,,blue,square
48.0,1.0,1.0,0.0,1.0,1.0,371.4329469994482,3.0,1.0,phase_1,,,,,,,,,,,,,white,I
76.0,2.0,2.0,0.0,3.0,3.0,308.1785080003101,3.0,1.0,phase_1,,,,,,,,,,,,,magenta,flipped triangle
0.0,4.0,0.0,0.0,1.0,1.0,367.3310880003555,3.0,1.0,phase_1,,,,,,,,,,,,,green,triangle
382.0,4.0,4.0,0.0,1.0,1.0,451.4017070005138,3.0,1.0,phase_1,,,,,,,,,,,,,green,triangle
377.0,4.0,4.0,0.0,3.0,3.0,319.4024969998281,3.0,1.0,phase_1,,,,,,,,,,,,,green,triangle
180.0,7.0,3.0,1.0,1.0,1.0,738.7153669997133,3.0,1.0,phase_1,,,,,,,,,,,,,gray,circle
108.0,2.0,2.0,0.0,4.0,4.0,412.3480839998592,3.0,1.0,phase_1,,,,,,,,,,,,,magenta,flipped triangle
85.0,6.0,2.0,1.0,1.0,1.0,581.3008189998072,3.0,1.0,phase_1,,,,,,,,,,,,,yellow,diamond
101.0,6.0,2.0,1.0,3.0,3.0,309.6398420002515,3.0,1.0,phase_1,,,,,,,,,,,,,yellow,diamond
225.0,7.0,3.0,1.0,3.0,3.0,376.7917880004461,3.0,1.0,phase_1,,,,,,,,,,,,,gray,circle
390.0,8.0,4.0,1.0,1.0,1.0,351.5511830000832,3.0,1.0,phase_1,,,,,,,,,,,,,blue,square
195.0,3.0,3.0,0.0,2.0,2.0,539.472711999224,3.0,1.0,phase_1,,,,,,,,,,,,,cyan,hexagon
33.0,5.0,1.0,1.0,1.0,1.0,497.7950720003719,3.0,1.0,phase_1,,,,,,,,,,,,,orange,cross
39.0,1.0,1.0,0.0,1.0,1.0,369.8964180002804,3.0,1.0,phase_1,,,,,,,,,,,,,white,I
100.0,6.0,2.0,1.0,4.0,4.0,311.3782860000356,3.0,1.0,phase_1,,,,,,,,,,,,,yellow,diamond
0.0,6.0,0.0,1.0,2.0,2.0,405.1311639996129,3.0,1.0,phase_1,,,,,,,,,,,,,yellow,diamond
215.0,3.0,3.0,0.0,1.0,1.0,349.5010540000294,3.0,1.0,phase_1,,,,,,,,,,,,,cyan,hexagon
204.0,3.0,3.0,0.0,4.0,4.0,323.8647299995136,3.0,1.0,phase_1,,,,,,,,,,,,,cyan,hexagon
0.0,1.0,0.0,0.0,1.0,1.0,493.8102300002356,3.0,1.0,phase_1,,,,,,,,,,,,,white,I
178.0,7.0,3.0,1.0,1.0,1.0,300.7359200000792,4.0,1.0,phase_1,,,,,,,,,,,,,gray,circle
216.0,7.0,3.0,1.0,4.0,4.0,324.3911720001051,4.0,1.0,phase_1,,,,,,,,,,,,,gray,circle
416.0,8.0,4.0,1.0,2.0,2.0,360.2509780002947,4.0,1.0,phase_1,,,,,,,,,,,,,blue,square
75.0,1.0,1.0,0.0,3.0,3.0,306.9268270000975,4.0,1.0,phase_1,,,,,,,,,,,,,white,I
0.0,5.0,0.0,1.0,3.0,3.0,322.9414389998055,4.0,1.0,phase_1,,,,,,,,,,,,,orange,cross
110.0,2.0,2.0,0.0,2.0,2.0,270.5085990000953,4.0,1.0,phase_1,,,,,,,,,,,,,magenta,flipped triangle
73.0,5.0,1.0,1.0,1.0,1.0,279.2444059996342,4.0,2.0,phase_1,,,,,,,,,,,,,orange,cross
382.0,4.0,4.0,0.0,3.0,3.0,352.0714509995741,4.0,1.0,phase_1,,,,,,,,,,,,,green,triangle
61.0,1.0,1.0,0.0,4.0,4.0,372.0924520002882,4.0,1.0,phase_1,,,,,,,,,,,,,white,I
43.0,1.0,1.0,0.0,3.0,3.0,391.2044480002805,4.0,1.0,phase_1,,,,,,,,,,,,,white,I
111.0,2.0,2.0,0.0,1.0,1.0,350.6099260002884,4.0,1.0,phase_1,,,,,,,,,,,,,magenta,flipped triangle
39.0,5.0,1.0,1.0,4.0,4.0,329.3435710002086,4.0,1.0,phase_1,,,,,,,,,,,,,orange,cross
114.0,6.0,2.0,1.0,2.0,2.0,360.6199089999791,4.0,1.0,phase_1,,,,,,,,,,,,,yellow,diamond
0.0,7.0,0.0,1.0,4.0,4.0,549.4241470005363,4.0,1.0,phase_1,,,,,,,,,,,,,gray,circle
223.0,3.0,3.0,0.0,2.0,2.0,348.4763060005207,4.0,1.0,phase_1,,,,,,,,,,,,,cyan,hexagon
224.0,3.0,3.0,0.0,3.0,3.0,291.0661920004713,4.0,1.0,phase_1,,,,,,,,,,,,,cyan,hexagon
0.0,8.0,0.0,1.0,4.0,4.0,342.0754850003504,4.0,1.0,phase_1,,,,,,,,,,,,,blue,square
378.0,8.0,4.0,1.0,1.0,1.0,328.320514000552,4.0,1.0,phase_1,,,,,,,,,,,,,blue,square
83.0,6.0,2.0,1.0,4.0,4.0,331.1016480001854,4.0,1.0,phase_1,,,,,,,,,,,,,yellow,diamond
403.0,8.0,4.0,1.0,2.0,2.0,341.8786029997136,4.0,1.0,phase_1,,,,,,,,,,,,,blue,square
402.0,4.0,4.0,0.0,3.0,3.0,513.8520720001907,4.0,1.0,phase_1,,,,,,,,,,,,,green,triangle
63.0,1.0,1.0,0.0,2.0,2.0,425.7977170000231,4.0,1.0,phase_1,,,,,,,,,,,,,white,I
207.0,3.0,3.0,0.0,1.0,1.0,399.0274309999222,4.0,1.0,phase_1,,,,,,,,,,,,,cyan,hexagon
182.0,7.0,3.0,1.0,2.0,2.0,297.0064199998887,4.0,1.0,phase_1,,,,,,,,,,,,,gray,circle
62.0,1.0,1.0,0.0,2.0,2.0,392.5676830003795,4.0,1.0,phase_1,,,,,,,,,,,,,white,I
391.0,4.0,4.0,0.0,1.0,1.0,334.4754640002065,4.0,1.0,phase_1,,,,,,,,,,,,,green,triangle
413.0,8.0,4.0,1.0,3.0,3.0,347.2458299993377,4.0,1.0,phase_1,,,,,,,,,,,,,blue,square
0.0,8.0,0.0,1.0,4.0,4.0,285.8557989993642,4.0,2.0,phase_1,,,,,,,,,,,,,blue,square
0.0,2.0,0.0,0.0,4.0,4.0,319.2828100000042,4.0,2.0,phase_1,,,,,,,,,,,,,magenta,flipped triangle
102.0,2.0,2.0,0.0,1.0,1.0,380.7421669998803,4.0,1.0,phase_1,,,,,,,,,,,,,magenta,flipped triangle
30.0,1.0,1.0,0.0,1.0,1.0,375.4266979995009,4.0,1.0,phase_1,,,,,,,,,,,,,white,I
0.0,3.0,0.0,0.0,4.0,4.0,584.1036649999296,4.0,1.0,phase_1,,,,,,,,,,,,,cyan,hexagon
0.0,6.0,0.0,1.0,2.0,2.0,449.6223930000269,4.0,1.0,phase_1,,,,,,,,,,,,,yellow,diamond
0.0,7.0,0.0,1.0,3.0,3.0,302.8110619998188,4.0,1.0,phase_1,,,,,,,,,,,,,gray,circle
420.0,4.0,4.0,0.0,2.0,2.0,322.8210569996008,4.0,1.0,phase_1,,,,,,,,,,,,,green,triangle
0.0,8.0,0.0,1.0,4.0,4.0,530.0605180000275,4.0,1.0,phase_1,,,,,,,,,,,,,blue,square
0.0,7.0,0.0,1.0,2.0,2.0,445.8395769997878,4.0,1.0,phase_1,,,,,,,,,,,,,gray,circle
0.0,4.0,0.0,0.0,3.0,3.0,351.3332379998246,4.0,1.0,phase_1,,,,,,,,,,,,,green,triangle
93.0,2.0,2.0,0.0,3.0,3.0,337.7441529992211,4.0,1.0,phase_1,,,,,,,,,,,,,magenta,flipped triangle
56.0,1.0,1.0,0.0,4.0,4.0,395.4761389995838,4.0,1.0,phase_1,,,,,,,,,,,,,white,I
88.0,6.0,2.0,1.0,1.0,1.0,382.5022840001111,4.0,1.0,phase_1,,,,,,,,,,,,,yellow,diamond
26.0,1.0,1.0,0.0,4.0,4.0,458.193084999948,4.0,1.0,phase_1,,,,,,,,,,,,,white,I
56.0,5.0,1.0,1.0,4.0,4.0,341.9543199997861,4.0,1.0,phase_1,,,,,,,,,,,,,orange,cross
179.0,7.0,3.0,1.0,1.0,1.0,521.3703439994788,4.0,1.0,phase_1,,,,,,,,,,,,,gray,circle
99.0,6.0,2.0,1.0,2.0,2.0,349.4921389992669,4.0,1.0,phase_1,,,,,,,,,,,,,yellow,diamond
210.0,3.0,3.0,0.0,3.0,3.0,286.0376610005914,4.0,1.0,phase_1,,,,,,,,,,,,,cyan,hexagon
409.0,4.0,4.0,0.0,2.0,2.0,472.8017699999327,4.0,1.0,phase_1,,,,,,,,,,,,,green,triangle
402.0,8.0,4.0,1.0,3.0,3.0,273.8410009997096,4.0,1.0,phase_1,,,,,,,,,,,,,blue,square
60.0,5.0,1.0,1.0,4.0,4.0,325.6175029991937,4.0,1.0,phase_1,,,,,,,,,,,,,orange,cross
187.0,7.0,3.0,1.0,1.0,1.0,475.040454000009,4.0,1.0,phase_1,,,,,,,,,,,,,gray,circle
57.0,5.0,1.0,1.0,1.0,1.0,440.6313039999077,4.0,1.0,phase_1,,,,,,,,,,,,,orange,cross
45.0,5.0,1.0,1.0,1.0,1.0,502.05602899950463,4.0,1.0,phase_1,,,,,,,,,,,,,orange,cross
200.0,3.0,3.0,0.0,2.0,2.0,361.9076730001325,4.0,2.0,phase_1,,,,,,,,,,,,,cyan,hexagon
415.0,8.0,4.0,1.0,2.0,2.0,397.3538239997651,4.0,1.0,phase_1,,,,,,,,,,,,,blue,square
216.0,3.0,3.0,0.0,4.0,4.0,457.4692109999887,4.0,1.0,phase_1,,,,,,,,,,,,,cyan,hexagon
415.0,8.0,4.0,1.0,4.0,4.0,359.0438749997702,4.0,1.0,phase_1,,,,,,,,,,,,,blue,square
0.0,8.0,0.0,1.0,1.0,1.0,454.0202729995144,4.0,1.0,phase_1,,,,,,,,,,,,,blue,square
386.0,8.0,4.0,1.0,4.0,4.0,412.9835200001253,4.0,1.0,phase_1,,,,,,,,,,,,,blue,square
212.0,7.0,3.0,1.0,3.0,3.0,434.9285839998629,4.0,1.0,phase_1,,,,,,,,,,,,,gray,circle
124.0,6.0,2.0,1.0,3.0,3.0,671.8380829997841,4.0,1.0,phase_1,,,,,,,,,,,,,yellow,diamond
207.0,7.0,3.0,1.0,2.0,2.0,394.2805599999701,4.0,1.0,phase_1,,,,,,,,,,,,,gray,circle
215.0,7.0,3.0,1.0,3.0,3.0,458.6075440001878,4.0,1.0,phase_1,,,,,,,,,,,,,gray,circle
409.0,8.0,4.0,1.0,3.0,3.0,496.8287490000875,4.0,1.0,phase_1,,,,,,,,,,,,,blue,square
397.0,8.0,4.0,1.0,2.0,2.0,510.946426999908,4.0,1.0,phase_1,,,,,,,,,,,,,blue,square
0.0,6.0,0.0,1.0,4.0,4.0,400.2694330001759,4.0,1.0,phase_1,,,,,,,,,,,,,yellow,diamond
73.0,1.0,1.0,0.0,4.0,4.0,383.4152819999872,4.0,1.0,phase_1,,,,,,,,,,,,,white,I
406.0,4.0,4.0,0.0,3.0,3.0,396.9980950005265,4.0,1.0,phase_1,,,,,,,,,,,,,green,triangle
0.0,7.0,0.0,1.0,3.0,3.0,739.527700000508,4.0,1.0,phase_1,,,,,,,,,,,,,gray,circle
0.0,1.0,0.0,0.0,2.0,2.0,612.3749580001459,4.0,2.0,phase_1,,,,,,,,,,,,,white,I
196.0,3.0,3.0,0.0,1.0,1.0,437.6574429998072,4.0,1.0,phase_1,,,,,,,,,,,,,cyan,hexagon
0.0,8.0,0.0,1.0,3.0,3.0,425.4153570000198,4.0,1.0,phase_1,,,,,,,,,,,,,blue,square
31.0,5.0,1.0,1.0,3.0,3.0,341.5989160002937,4.0,1.0,phase_1,,,,,,,,,,,,,orange,cross
49.0,1.0,1.0,0.0,1.0,1.0,440.3585629997906,4.0,1.0,phase_1,,,,,,,,,,,,,white,I
31.0,1.0,1.0,0.0,4.0,4.0,406.6336149999188,4.0,1.0,phase_1,,,,,,,,,,,,,white,I
175.0,3.0,3.0,0.0,1.0,1.0,540.4741049997028,4.0,1.0,phase_1,,,,,,,,,,,,,cyan,hexagon
192.0,3.0,3.0,0.0,3.0,3.0,365.2564120002353,4.0,1.0,phase_1,,,,,,,,,,,,,cyan,hexagon
403.0,4.0,4.0,0.0,1.0,1.0,327.0197620004182,4.0,1.0,phase_1,,,,,,,,,,,,,green,triangle
107.0,6.0,2.0,1.0,4.0,4.0,334.7025249995567,4.0,1.0,phase_1,,,,,,,,,,,,,yellow,diamond
0.0,2.0,0.0,0.0,3.0,3.0,322.6100619995122,4.0,1.0,phase_1,,,,,,,,,,,,,magenta,flipped triangle
383.0,4.0,4.0,0.0,3.0,3.0,391.6479170002276,4.0,1.0,phase_1,,,,,,,,,,,,,green,triangle
82.0,6.0,2.0,1.0,2.0,2.0,431.0030860006009,4.0,1.0,phase_1,,,,,,,,,,,,,yellow,diamond
0.0,2.0,0.0,0.0,3.0,3.0,430.1238449997981,4.0,1.0,phase_1,,,,,,,,,,,,,magenta,flipped triangle
385.0,8.0,4.0,1.0,4.0,4.0,335.9240930003579,4.0,1.0,phase_1,,,,,,,,,,,,,blue,square
120.0,6.0,2.0,1.0,3.0,3.0,329.0997500007506,4.0,1.0,phase_1,,,,,,,,,,,,,yellow,diamond
0.0,8.0,0.0,1.0,1.0,1.0,566.236280999874,4.0,1.0,phase_1,,,,,,,,,,,,,blue,square
29.0,5.0,1.0,1.0,3.0,3.0,351.0924560005151,4.0,1.0,phase_1,,,,,,,,,,,,,orange,cross
118.0,2.0,2.0,0.0,3.0,3.0,343.8834319995294,4.0,1.0,phase_1,,,,,,,,,,,,,magenta,flipped triangle
44.0,5.0,1.0,1.0,3.0,3.0,440.2577130003919,4.0,1.0,phase_1,,,,,,,,,,,,,orange,cross
213.0,7.0,3.0,1.0,4.0,4.0,476.4786900004765,4.0,1.0,phase_1,,,,,,,,,,,,,gray,circle
85.0,6.0,2.0,1.0,1.0,1.0,492.2674720000941,4.0,1.0,phase_1,,,,,,,,,,,,,yellow,diamond
382.0,4.0,4.0,0.0,3.0,3.0,512.5320110000757,4.0,1.0,phase_1,,,,,,,,,,,,,green,triangle
81.0,6.0,2.0,1.0,1.0,1.0,530.5109979999543,4.0,1.0,phase_1,,,,,,,,,,,,,yellow,diamond
81.0,2.0,2.0,0.0,2.0,2.0,591.1255290002373,4.0,1.0,phase_1,,,,,,,,,,,,,magenta,flipped triangle
192.0,7.0,3.0,1.0,1.0,1.0,372.3460930004876,4.0,1.0,phase_1,,,,,,,,,,,,,gray,circle
0.0,5.0,0.0,1.0,4.0,4.0,356.0107710000011,4.0,1.0,phase_1,,,,,,,,,,,,,orange,cross
407.0,8.0,4.0,1.0,3.0,3.0,323.2025819997943,4.0,1.0,phase_1,,,,,,,,,,,,,blue,square
392.0,4.0,4.0,0.0,1.0,1.0,360.0797430008242,4.0,1.0,phase_1,,,,,,,,,,,,,green,triangle
33.0,5.0,1.0,1.0,4.0,4.0,376.7290480000156,4.0,1.0,phase_1,,,,,,,,,,,,,orange,cross
187.0,3.0,3.0,0.0,4.0,4.0,442.5143480002589,4.0,1.0,phase_1,,,,,,,,,,,,,cyan,hexagon
181.0,3.0,3.0,0.0,3.0,3.0,472.9890669996166,4.0,1.0,phase_1,,,,,,,,,,,,,cyan,hexagon
0.0,1.0,1.0,0.0,5.0,5.0,538.9660119999462,1.0,1.0,phase_2,go,250.0,250.0,1.0,,,,,,,,,white,I
0.0,7.0,3.0,1.0,6.0,6.0,512.1866310000769,1.0,1.0,phase_2,stop,250.0,250.0,3.0,,,,,,,,,gray,circle
0.0,7.0,3.0,1.0,5.0,5.0,398.7057929998627,1.0,1.0,phase_2,go,250.0,200.0,1.0,,,,,,,,,gray,circle
0.0,1.0,1.0,0.0,6.0,6.0,587.7674749999642,1.0,1.0,phase_2,go,250.0,200.0,1.0,,,,,,,,,white,I
0.0,4.0,4.0,0.0,5.0,5.0,483.7473919997137,1.0,1.0,phase_2,go,250.0,200.0,1.0,,,,,,,,,green,triangle
0.0,5.0,1.0,1.0,5.0,0.0,0.0,1.0,1.0,phase_2,stop,250.0,200.0,4.0,,,,,,,,,orange,cross
0.0,4.0,4.0,0.0,6.0,6.0,301.9690600003741,1.0,1.0,phase_2,go,300.0,200.0,1.0,,,,,,,,,green,triangle
0.0,5.0,1.0,1.0,6.0,0.0,0.0,1.0,1.0,phase_2,stop,300.0,200.0,4.0,,,,,,,,,orange,cross
0.0,7.0,3.0,1.0,6.0,0.0,0.0,1.0,1.0,phase_2,stop,300.0,250.0,4.0,,,,,,,,,gray,circle
0.0,8.0,4.0,1.0,5.0,0.0,0.0,1.0,1.0,phase_2,stop,300.0,300.0,4.0,,,,,,,,,blue,square
0.0,7.0,3.0,1.0,6.0,6.0,443.0315489998975,1.0,1.0,phase_2,go,350.0,300.0,1.0,,,,,,,,,gray,circle
0.0,1.0,1.0,0.0,6.0,6.0,671.7917410005612,1.0,1.0,phase_2,go,350.0,300.0,1.0,,,,,,,,,white,I
0.0,3.0,3.0,0.0,5.0,5.0,792.1512379998603,1.0,1.0,phase_2,go,350.0,300.0,1.0,,,,,,,,,cyan,hexagon
0.0,5.0,1.0,1.0,5.0,0.0,0.0,1.0,1.0,phase_2,stop,350.0,300.0,4.0,,,,,,,,,orange,cross
0.0,6.0,2.0,1.0,5.0,5.0,576.293842999803,1.0,1.0,phase_2,go,400.0,300.0,1.0,,,,,,,,,yellow,diamond
0.0,4.0,4.0,0.0,5.0,5.0,759.71323199974,1.0,1.0,phase_2,go,400.0,300.0,1.0,,,,,,,,,green,triangle
0.0,2.0,2.0,0.0,6.0,6.0,670.1821730002848,1.0,1.0,phase_2,go,400.0,300.0,1.0,,,,,,,,,magenta,flipped triangle
0.0,6.0,2.0,1.0,5.0,5.0,598.4427140001571,1.0,1.0,phase_2,go,400.0,300.0,1.0,,,,,,,,,yellow,diamond
0.0,7.0,3.0,1.0,5.0,0.0,0.0,1.0,1.0,phase_2,stop,400.0,300.0,4.0,,,,,,,,,gray,circle
0.0,1.0,1.0,0.0,5.0,5.0,665.61602100046,1.0,1.0,phase_2,go,450.0,300.0,1.0,,,,,,,,,white,I
0.0,2.0,2.0,0.0,5.0,5.0,765.1678550000724,1.0,1.0,phase_2,go,450.0,300.0,1.0,,,,,,,,,magenta,flipped triangle
0.0,7.0,3.0,1.0,6.0,0.0,0.0,1.0,1.0,phase_2,stop,450.0,300.0,4.0,,,,,,,,,gray,circle
0.0,8.0,4.0,1.0,5.0,5.0,614.0552910001134,1.0,1.0,phase_2,go,450.0,350.0,1.0,,,,,,,,,blue,square
0.0,6.0,2.0,1.0,6.0,0.0,0.0,1.0,1.0,phase_2,stop,450.0,350.0,4.0,,,,,,,,,yellow,diamond
0.0,5.0,1.0,1.0,5.0,5.0,587.7389010001934,1.0,1.0,phase_2,stop,450.0,400.0,3.0,,,,,,,,,orange,cross
0.0,2.0,2.0,0.0,5.0,5.0,663.9024509995579,1.0,1.0,phase_2,go,400.0,400.0,1.0,,,,,,,,,magenta,flipped triangle
0.0,8.0,4.0,1.0,5.0,0.0,0.0,1.0,1.0,phase_2,stop,400.0,400.0,4.0,,,,,,,,,blue,square
0.0,6.0,2.0,1.0,6.0,0.0,0.0,1.0,1.0,phase_2,stop,450.0,400.0,4.0,,,,,,,,,yellow,diamond
0.0,2.0,2.0,0.0,6.0,6.0,725.8901559998776,1.0,1.0,phase_2,go,450.0,450.0,1.0,,,,,,,,,magenta,flipped triangle
0.0,3.0,3.0,0.0,5.0,5.0,611.2496690002445,1.0,1.0,phase_2,go,450.0,450.0,1.0,,,,,,,,,cyan,hexagon
0.0,8.0,4.0,1.0,6.0,6.0,737.6651760005188,1.0,1.0,phase_2,go,450.0,450.0,1.0,,,,,,,,,blue,square
0.0,6.0,2.0,1.0,6.0,0.0,0.0,1.0,1.0,phase_2,stop,450.0,450.0,4.0,,,,,,,,,yellow,diamond
0.0,5.0,1.0,1.0,6.0,0.0,0.0,1.0,1.0,phase_2,stop,450.0,500.0,4.0,,,,,,,,,orange,cross
0.0,1.0,1.0,0.0,5.0,5.0,599.4443669997054,1.0,1.0,phase_2,go,450.0,550.0,1.0,,,,,,,,,white,I
0.0,7.0,3.0,1.0,6.0,6.0,639.381709999725,1.0,1.0,phase_2,stop,450.0,550.0,3.0,,,,,,,,,gray,circle
0.0,8.0,4.0,1.0,6.0,6.0,935.7657400005336,1.0,1.0,phase_2,go,450.0,500.0,1.0,,,,,,,,,blue,square
0.0,5.0,1.0,1.0,6.0,6.0,996.1304809994544,2.0,1.0,phase_2,stop,450.0,500.0,3.0,,,,,,,,,orange,cross
0.0,2.0,2.0,0.0,6.0,6.0,657.4535610006933,2.0,1.0,phase_2,go,450.0,450.0,1.0,,,,,,,,,magenta,flipped triangle
0.0,1.0,1.0,0.0,5.0,5.0,571.4659390005181,2.0,1.0,phase_2,go,450.0,450.0,1.0,,,,,,,,,white,I
0.0,3.0,3.0,0.0,5.0,5.0,724.3427710000105,2.0,1.0,phase_2,go,450.0,450.0,1.0,,,,,,,,,cyan,hexagon
0.0,6.0,2.0,1.0,5.0,0.0,0.0,2.0,1.0,phase_2,stop,450.0,450.0,4.0,,,,,,,,,yellow,diamond
0.0,7.0,3.0,1.0,5.0,5.0,765.6076469993423,2.0,1.0,phase_2,go,500.0,450.0,1.0,,,,,,,,,gray,circle
0.0,8.0,4.0,1.0,5.0,0.0,0.0,2.0,1.0,phase_2,stop,500.0,450.0,4.0,,,,,,,,,blue,square
0.0,8.0,4.0,1.0,5.0,5.0,584.0735640003913,2.0,1.0,phase_2,stop,550.0,450.0,3.0,,,,,,,,,blue,square
0.0,6.0,2.0,1.0,5.0,0.0,0.0,2.0,1.0,phase_2,stop,500.0,450.0,4.0,,,,,,,,,yellow,diamond
0.0,3.0,3.0,0.0,6.0,6.0,599.2674440003611,2.0,1.0,phase_2,go,550.0,450.0,1.0,,,,,,,,,cyan,hexagon
0.0,8.0,4.0,1.0,5.0,0.0,0.0,2.0,1.0,phase_2,stop,550.0,450.0,4.0,,,,,,,,,blue,square
0.0,3.0,3.0,0.0,5.0,5.0,730.1675250000699,2.0,1.0,phase_2,go,600.0,450.0,1.0,,,,,,,,,cyan,hexagon
0.0,8.0,4.0,1.0,6.0,0.0,0.0,2.0,1.0,phase_2,stop,600.0,450.0,4.0,,,,,,,,,blue,square
0.0,2.0,2.0,0.0,5.0,5.0,609.9023939996187,2.0,1.0,phase_2,go,600.0,500.0,1.0,,,,,,,,,magenta,flipped triangle
0.0,1.0,1.0,0.0,5.0,5.0,739.5020940002723,2.0,1.0,phase_2,go,600.0,500.0,1.0,,,,,,,,,white,I
0.0,7.0,3.0,1.0,6.0,0.0,0.0,2.0,1.0,phase_2,stop,600.0,500.0,4.0,,,,,,,,,gray,circle
0.0,4.0,4.0,0.0,5.0,5.0,672.2461740000654,2.0,1.0,phase_2,go,600.0,550.0,1.0,,,,,,,,,green,triangle
0.0,5.0,1.0,1.0,5.0,0.0,0.0,2.0,1.0,phase_2,stop,600.0,550.0,4.0,,,,,,,,,orange,cross
0.0,5.0,1.0,1.0,5.0,0.0,0.0,2.0,1.0,phase_2,stop,650.0,550.0,4.0,,,,,,,,,orange,cross
0.0,8.0,4.0,1.0,6.0,6.0,789.2976539997107,2.0,1.0,phase_2,go,700.0,550.0,1.0,,,,,,,,,blue,square
0.0,3.0,3.0,0.0,6.0,6.0,909.874302999924,2.0,1.0,phase_2,go,700.0,550.0,1.0,,,,,,,,,cyan,hexagon
0.0,8.0,4.0,1.0,5.0,5.0,867.782489000092,2.0,1.0,phase_2,stop,700.0,550.0,3.0,,,,,,,,,blue,square
0.0,7.0,3.0,1.0,6.0,0.0,0.0,2.0,1.0,phase_2,stop,650.0,550.0,4.0,,,,,,,,,gray,circle
0.0,2.0,2.0,0.0,6.0,6.0,779.3678950001777,2.0,1.0,phase_2,go,650.0,600.0,1.0,,,,,,,,,magenta,flipped triangle
0.0,2.0,2.0,0.0,6.0,6.0,1017.3727040000813,2.0,1.0,phase_2,go,650.0,600.0,1.0,,,,,,,,,magenta,flipped triangle
0.0,8.0,4.0,1.0,5.0,0.0,0.0,2.0,1.0,phase_2,stop,650.0,600.0,4.0,,,,,,,,,blue,square
0.0,2.0,2.0,0.0,5.0,5.0,783.7967719997323,2.0,1.0,phase_2,go,700.0,600.0,1.0,,,,,,,,,magenta,flipped triangle
0.0,4.0,4.0,0.0,5.0,5.0,921.894840999812,2.0,1.0,phase_2,go,700.0,600.0,1.0,,,,,,,,,green,triangle
0.0,4.0,4.0,0.0,5.0,5.0,872.0209910006815,2.0,1.0,phase_2,go,700.0,600.0,1.0,,,,,,,,,green,triangle
0.0,1.0,1.0,0.0,6.0,6.0,539.0115420004804,2.0,1.0,phase_2,go,700.0,600.0,1.0,,,,,,,,,white,I
0.0,5.0,1.0,1.0,6.0,6.0,683.5101810002016,2.0,1.0,phase_2,stop,700.0,600.0,3.0,,,,,,,,,orange,cross
0.0,3.0,3.0,0.0,6.0,6.0,598.3007859995269,2.0,1.0,phase_2,go,700.0,550.0,1.0,,,,,,,,,cyan,hexagon
0.0,5.0,1.0,1.0,6.0,0.0,0.0,2.0,1.0,phase_2,stop,700.0,550.0,4.0,,,,,,,,,orange,cross
0.0,5.0,1.0,1.0,5.0,5.0,744.2998639999132,2.0,1.0,phase_2,go,700.0,600.0,1.0,,,,,,,,,orange,cross
0.0,4.0,4.0,0.0,6.0,6.0,774.2044950000491,2.0,1.0,phase_2,go,700.0,600.0,1.0,,,,,,,,,green,triangle
0.0,4.0,4.0,0.0,6.0,6.0,876.1634919992503,2.0,1.0,phase_2,go,700.0,600.0,1.0,,,,,,,,,green,triangle
0.0,5.0,1.0,1.0,5.0,5.0,646.6876719996435,3.0,1.0,phase_2,go,700.0,600.0,1.0,,,,,,,,,orange,cross
0.0,3.0,3.0,0.0,5.0,5.0,506.6339089999019,3.0,1.0,phase_2,go,700.0,600.0,1.0,,,,,,,,,cyan,hexagon
0.0,5.0,1.0,1.0,6.0,0.0,0.0,3.0,1.0,phase_2,stop,700.0,600.0,4.0,,,,,,,,,orange,cross
0.0,3.0,3.0,0.0,6.0,6.0,653.910717999679,3.0,1.0,phase_2,go,700.0,650.0,1.0,,,,,,,,,cyan,hexagon
0.0,1.0,1.0,0.0,6.0,6.0,536.645586999839,3.0,1.0,phase_2,go,700.0,650.0,1.0,,,,,,,,,white,I
0.0,4.0,4.0,0.0,5.0,5.0,306.1609329997736,3.0,1.0,phase_2,go,700.0,650.0,1.0,,,,,,,,,green,triangle
0.0,5.0,1.0,1.0,5.0,5.0,405.0454130001526,3.0,1.0,phase_2,stop,700.0,650.0,3.0,,,,,,,,,orange,cross
0.0,8.0,4.0,1.0,5.0,5.0,596.2979280002401,3.0,1.0,phase_2,go,650.0,650.0,1.0,,,,,,,,,blue,square
0.0,6.0,2.0,1.0,5.0,5.0,325.0794019995737,3.0,1.0,phase_2,stop,650.0,650.0,3.0,,,,,,,,,yellow,diamond
0.0,1.0,1.0,0.0,5.0,5.0,524.0553229996294,3.0,1.0,phase_2,go,600.0,650.0,1.0,,,,,,,,,white,I
0.0,4.0,4.0,0.0,5.0,5.0,578.8841049998155,3.0,1.0,phase_2,go,600.0,650.0,1.0,,,,,,,,,green,triangle
0.0,2.0,2.0,0.0,5.0,5.0,430.2815990004092,3.0,1.0,phase_2,go,600.0,650.0,1.0,,,,,,,,,magenta,flipped triangle
0.0,6.0,2.0,1.0,6.0,6.0,598.1319419997817,3.0,1.0,phase_2,stop,600.0,650.0,3.0,,,,,,,,,yellow,diamond
0.0,2.0,2.0,0.0,6.0,6.0,588.6165560004883,3.0,1.0,phase_2,go,600.0,600.0,1.0,,,,,,,,,magenta,flipped triangle
0.0,5.0,1.0,1.0,6.0,6.0,591.2974800003212,3.0,1.0,phase_2,stop,600.0,600.0,3.0,,,,,,,,,orange,cross
0.0,1.0,1.0,0.0,5.0,5.0,469.2413049997412,3.0,1.0,phase_2,go,600.0,550.0,1.0,,,,,,,,,white,I
0.0,2.0,2.0,0.0,5.0,5.0,530.2671700001156,3.0,1.0,phase_2,go,600.0,550.0,1.0,,,,,,,,,magenta,flipped triangle
0.0,6.0,2.0,1.0,5.0,5.0,727.5803180000366,3.0,1.0,phase_2,stop,600.0,550.0,3.0,,,,,,,,,yellow,diamond
0.0,7.0,3.0,1.0,5.0,5.0,588.6794830003055,3.0,1.0,phase_2,stop,550.0,550.0,3.0,,,,,,,,,gray,circle
0.0,4.0,4.0,0.0,5.0,5.0,779.0795700002491,3.0,1.0,phase_2,go,500.0,550.0,1.0,,,,,,,,,green,triangle
0.0,8.0,4.0,1.0,6.0,6.0,878.4503120004956,3.0,1.0,phase_2,go,500.0,550.0,1.0,,,,,,,,,blue,square
0.0,3.0,3.0,0.0,6.0,6.0,693.5942500003875,3.0,1.0,phase_2,go,500.0,550.0,1.0,,,,,,,,,cyan,hexagon
0.0,3.0,3.0,0.0,6.0,6.0,676.6256180007986,3.0,1.0,phase_2,go,500.0,550.0,1.0,,,,,,,,,cyan,hexagon
0.0,5.0,1.0,1.0,5.0,5.0,929.8599699995976,3.0,1.0,phase_2,go,500.0,550.0,1.0,,,,,,,,,orange,cross
0.0,7.0,3.0,1.0,6.0,0.0,0.0,3.0,1.0,phase_2,stop,500.0,550.0,4.0,,,,,,,,,gray,circle
0.0,8.0,4.0,1.0,5.0,5.0,559.1001699995104,3.0,1.0,phase_2,stop,500.0,600.0,3.0,,,,,,,,,blue,square
0.0,3.0,3.0,0.0,5.0,5.0,643.7416279995887,3.0,1.0,phase_2,go,450.0,600.0,1.0,,,,,,,,,cyan,hexagon
0.0,6.0,2.0,1.0,6.0,6.0,563.3686929995747,3.0,1.0,phase_2,stop,450.0,600.0,3.0,,,,,,,,,yellow,diamond
0.0,4.0,4.0,0.0,6.0,6.0,615.4477390000466,3.0,1.0,phase_2,go,450.0,550.0,1.0,,,,,,,,,green,triangle
0.0,8.0,4.0,1.0,5.0,0.0,0.0,3.0,1.0,phase_2,stop,450.0,550.0,4.0,,,,,,,,,blue,square
0.0,8.0,4.0,1.0,6.0,6.0,607.6586330000282,3.0,1.0,phase_2,stop,500.0,550.0,3.0,,,,,,,,,blue,square
0.0,8.0,4.0,1.0,6.0,6.0,583.9601299994683,3.0,1.0,phase_2,stop,500.0,500.0,3.0,,,,,,,,,blue,square
0.0,2.0,2.0,0.0,6.0,6.0,722.0749319994866,3.0,1.0,phase_2,go,500.0,450.0,1.0,,,,,,,,,magenta,flipped triangle
0.0,7.0,3.0,1.0,6.0,6.0,357.1748149997802,3.0,1.0,phase_2,stop,500.0,450.0,3.0,,,,,,,,,gray,circle
0.0,8.0,4.0,1.0,6.0,0.0,0.0,3.0,1.0,phase_2,stop,500.0,400.0,4.0,,,,,,,,,blue,square
0.0,6.0,2.0,1.0,5.0,5.0,786.309226999947,3.0,1.0,phase_2,go,500.0,450.0,1.0,,,,,,,,,yellow,diamond
0.0,1.0,1.0,0.0,6.0,6.0,547.8483520000736,4.0,1.0,phase_2,go,500.0,450.0,1.0,,,,,,,,,white,I
0.0,3.0,3.0,0.0,6.0,6.0,327.324874999249,4.0,1.0,phase_2,go,500.0,450.0,1.0,,,,,,,,,cyan,hexagon
0.0,5.0,1.0,1.0,6.0,6.0,327.4729959994147,4.0,1.0,phase_2,stop,500.0,450.0,3.0,,,,,,,,,orange,cross
0.0,6.0,2.0,1.0,6.0,6.0,285.4930789999343,4.0,1.0,phase_2,stop,500.0,400.0,3.0,,,,,,,,,yellow,diamond
0.0,4.0,4.0,0.0,6.0,6.0,238.3280169997306,4.0,1.0,phase_2,go,500.0,350.0,1.0,,,,,,,,,green,triangle
0.0,7.0,3.0,1.0,6.0,6.0,341.8302219997713,4.0,1.0,phase_2,stop,500.0,350.0,3.0,,,,,,,,,gray,circle
0.0,8.0,4.0,1.0,6.0,6.0,339.6232349996353,4.0,1.0,phase_2,stop,500.0,300.0,3.0,,,,,,,,,blue,square
0.0,1.0,1.0,0.0,5.0,5.0,565.1381729994682,4.0,1.0,phase_2,go,500.0,250.0,1.0,,,,,,,,,white,I
0.0,2.0,2.0,0.0,5.0,5.0,401.7695190004815,4.0,1.0,phase_2,go,500.0,250.0,1.0,,,,,,,,,magenta,flipped triangle
0.0,6.0,2.0,1.0,5.0,5.0,291.3281910005025,4.0,1.0,phase_2,stop,500.0,250.0,3.0,,,,,,,,,yellow,diamond
0.0,4.0,4.0,0.0,5.0,5.0,672.4657080003453,4.0,1.0,phase_2,go,450.0,250.0,1.0,,,,,,,,,green,triangle
0.0,1.0,1.0,0.0,6.0,6.0,541.3676680000208,4.0,1.0,phase_2,go,450.0,250.0,1.0,,,,,,,,,white,I
0.0,7.0,3.0,1.0,6.0,6.0,561.6499930001737,4.0,1.0,phase_2,go,450.0,250.0,1.0,,,,,,,,,gray,circle
0.0,4.0,4.0,0.0,6.0,6.0,367.0863659999668,4.0,1.0,phase_2,go,450.0,250.0,1.0,,,,,,,,,green,triangle
0.0,5.0,1.0,1.0,5.0,5.0,688.8182689999667,4.0,1.0,phase_2,go,450.0,250.0,1.0,,,,,,,,,orange,cross
0.0,8.0,4.0,1.0,6.0,0.0,0.0,4.0,1.0,phase_2,stop,450.0,250.0,4.0,,,,,,,,,blue,square
0.0,3.0,3.0,0.0,6.0,6.0,650.7998480001334,4.0,1.0,phase_2,go,450.0,300.0,1.0,,,,,,,,,cyan,hexagon
0.0,1.0,1.0,0.0,5.0,5.0,491.8947799997113,4.0,1.0,phase_2,go,450.0,300.0,1.0,,,,,,,,,white,I
0.0,3.0,3.0,0.0,6.0,6.0,638.3485389997077,4.0,1.0,phase_2,go,450.0,300.0,1.0,,,,,,,,,cyan,hexagon
0.0,7.0,3.0,1.0,5.0,5.0,664.7051760000977,4.0,1.0,phase_2,go,450.0,300.0,1.0,,,,,,,,,gray,circle
0.0,5.0,1.0,1.0,5.0,0.0,0.0,4.0,1.0,phase_2,stop,450.0,300.0,4.0,,,,,,,,,orange,cross
0.0,5.0,1.0,1.0,6.0,0.0,0.0,4.0,1.0,phase_2,stop,500.0,300.0,4.0,,,,,,,,,orange,cross
0.0,3.0,3.0,0.0,5.0,5.0,975.1102569998692,4.0,1.0,phase_2,go,500.0,350.0,1.0,,,,,,,,,cyan,hexagon
0.0,8.0,4.0,1.0,5.0,0.0,0.0,4.0,1.0,phase_2,stop,500.0,350.0,4.0,,,,,,,,,blue,square
0.0,7.0,3.0,1.0,5.0,0.0,0.0,4.0,1.0,phase_2,stop,550.0,350.0,4.0,,,,,,,,,gray,circle
0.0,7.0,3.0,1.0,6.0,0.0,0.0,4.0,1.0,phase_2,stop,600.0,350.0,4.0,,,,,,,,,gray,circle
0.0,1.0,1.0,0.0,6.0,6.0,403.2601200005956,4.0,1.0,phase_2,go,600.0,400.0,1.0,,,,,,,,,white,I
0.0,3.0,3.0,0.0,6.0,6.0,648.4456790003605,4.0,1.0,phase_2,go,600.0,400.0,1.0,,,,,,,,,cyan,hexagon
0.0,1.0,1.0,0.0,6.0,6.0,590.8929170000192,4.0,1.0,phase_2,go,600.0,400.0,1.0,,,,,,,,,white,I
0.0,5.0,1.0,1.0,6.0,6.0,361.1678739998751,4.0,1.0,phase_2,stop,600.0,400.0,3.0,,,,,,,,,orange,cross
0.0,2.0,2.0,0.0,5.0,5.0,732.6045509998949,4.0,1.0,phase_2,go,600.0,350.0,1.0,,,,,,,,,magenta,flipped triangle
0.0,2.0,2.0,0.0,6.0,6.0,793.7006210004256,4.0,1.0,phase_2,go,600.0,350.0,1.0,,,,,,,,,magenta,flipped triangle
0.0,2.0,2.0,0.0,5.0,5.0,815.4675929999939,4.0,1.0,phase_2,go,600.0,350.0,1.0,,,,,,,,,magenta,flipped triangle
0.0,4.0,4.0,0.0,6.0,6.0,751.0727769995356,4.0,1.0,phase_2,go,600.0,350.0,1.0,,,,,,,,,green,triangle
0.0,2.0,2.0,0.0,5.0,5.0,817.0537280002463,4.0,1.0,phase_2,go,600.0,350.0,1.0,,,,,,,,,magenta,flipped triangle
0.0,1.0,1.0,0.0,5.0,5.0,716.5112579996276,4.0,1.0,phase_2,go,600.0,350.0,1.0,,,,,,,,,white,I
0.0,6.0,2.0,1.0,6.0,6.0,637.4579849998554,5.0,1.0,phase_2,go,600.0,350.0,1.0,,,,,,,,,yellow,diamond
0.0,4.0,4.0,0.0,6.0,6.0,716.0595049999756,5.0,1.0,phase_2,go,600.0,350.0,1.0,,,,,,,,,green,triangle
0.0,1.0,1.0,0.0,6.0,6.0,634.0611649993662,5.0,1.0,phase_2,go,600.0,350.0,1.0,,,,,,,,,white,I
0.0,8.0,4.0,1.0,5.0,5.0,323.2998040002712,5.0,1.0,phase_2,stop,600.0,350.0,3.0,,,,,,,,,blue,square
0.0,2.0,2.0,0.0,6.0,6.0,691.2963000004311,5.0,1.0,phase_2,go,550.0,350.0,1.0,,,,,,,,,magenta,flipped triangle
0.0,2.0,2.0,0.0,5.0,5.0,737.0911070001966,5.0,1.0,phase_2,go,550.0,350.0,1.0,,,,,,,,,magenta,flipped triangle
0.0,2.0,2.0,0.0,6.0,6.0,593.0313590006335,5.0,1.0,phase_2,go,550.0,350.0,1.0,,,,,,,,,magenta,flipped triangle
0.0,1.0,1.0,0.0,6.0,6.0,624.401965999823,5.0,1.0,phase_2,go,550.0,350.0,1.0,,,,,,,,,white,I
0.0,6.0,2.0,1.0,6.0,0.0,0.0,5.0,1.0,phase_2,stop,550.0,350.0,4.0,,,,,,,,,yellow,diamond
0.0,6.0,2.0,1.0,6.0,6.0,605.1194339997892,5.0,1.0,phase_2,go,550.0,400.0,1.0,,,,,,,,,yellow,diamond
0.0,8.0,4.0,1.0,5.0,5.0,624.0992869998081,5.0,1.0,phase_2,stop,550.0,400.0,3.0,,,,,,,,,blue,square
0.0,6.0,2.0,1.0,6.0,0.0,0.0,5.0,1.0,phase_2,stop,500.0,400.0,4.0,,,,,,,,,yellow,diamond
0.0,1.0,1.0,0.0,6.0,6.0,653.6181519995807,5.0,1.0,phase_2,go,500.0,450.0,1.0,,,,,,,,,white,I
0.0,3.0,3.0,0.0,6.0,6.0,840.2128380002978,5.0,1.0,phase_2,go,500.0,450.0,1.0,,,,,,,,,cyan,hexagon
0.0,8.0,4.0,1.0,6.0,0.0,0.0,5.0,1.0,phase_2,stop,500.0,450.0,4.0,,,,,,,,,blue,square
0.0,1.0,1.0,0.0,5.0,5.0,700.6350499996188,5.0,1.0,phase_2,go,500.0,500.0,1.0,,,,,,,,,white,I
0.0,6.0,2.0,1.0,5.0,0.0,0.0,5.0,1.0,phase_2,stop,500.0,500.0,4.0,,,,,,,,,yellow,diamond
0.0,8.0,4.0,1.0,5.0,0.0,0.0,5.0,1.0,phase_2,stop,550.0,500.0,4.0,,,,,,,,,blue,square
0.0,7.0,3.0,1.0,6.0,6.0,771.1343150003813,5.0,1.0,phase_2,go,600.0,500.0,1.0,,,,,,,,,gray,circle
0.0,2.0,2.0,0.0,6.0,6.0,894.8299169996972,5.0,1.0,phase_2,go,600.0,500.0,1.0,,,,,,,,,magenta,flipped triangle
0.0,7.0,3.0,1.0,5.0,0.0,0.0,5.0,1.0,phase_2,stop,600.0,500.0,4.0,,,,,,,,,gray,circle
0.0,5.0,1.0,1.0,5.0,0.0,0.0,5.0,1.0,phase_2,stop,650.0,500.0,4.0,,,,,,,,,orange,cross
0.0,1.0,1.0,0.0,6.0,6.0,631.8563519998861,5.0,1.0,phase_2,go,700.0,500.0,1.0,,,,,,,,,white,I
0.0,4.0,4.0,0.0,5.0,5.0,738.2561889999124,5.0,1.0,phase_2,go,700.0,500.0,1.0,,,,,,,,,green,triangle
0.0,4.0,4.0,0.0,6.0,6.0,686.1103129995172,5.0,1.0,phase_2,go,700.0,500.0,1.0,,,,,,,,,green,triangle
0.0,5.0,1.0,1.0,6.0,0.0,0.0,5.0,1.0,phase_2,stop,700.0,500.0,4.0,,,,,,,,,orange,cross
0.0,3.0,3.0,0.0,5.0,5.0,831.498964000275,5.0,1.0,phase_2,go,700.0,550.0,1.0,,,,,,,,,cyan,hexagon
0.0,3.0,3.0,0.0,6.0,6.0,966.2646260003384,5.0,1.0,phase_2,go,700.0,550.0,1.0,,,,,,,,,cyan,hexagon
0.0,6.0,2.0,1.0,6.0,0.0,0.0,5.0,1.0,phase_2,stop,700.0,550.0,4.0,,,,,,,,,yellow,diamond
0.0,6.0,2.0,1.0,6.0,6.0,671.6373119998025,5.0,1.0,phase_2,go,700.0,600.0,1.0,,,,,,,,,yellow,diamond
0.0,3.0,3.0,0.0,6.0,6.0,682.9302989999633,5.0,1.0,phase_2,go,700.0,600.0,1.0,,,,,,,,,cyan,hexagon
0.0,5.0,1.0,1.0,5.0,5.0,585.5275730000358,5.0,1.0,phase_2,stop,700.0,600.0,3.0,,,,,,,,,orange,cross
0.0,5.0,1.0,1.0,5.0,5.0,671.7346699997506,5.0,1.0,phase_2,go,650.0,600.0,1.0,,,,,,,,,orange,cross
0.0,4.0,4.0,0.0,5.0,5.0,762.5124300002426,5.0,1.0,phase_2,go,650.0,600.0,1.0,,,,,,,,,green,triangle
0.0,6.0,2.0,1.0,5.0,0.0,0.0,5.0,1.0,phase_2,stop,650.0,600.0,4.0,,,,,,,,,yellow,diamond
0.0,4.0,4.0,0.0,6.0,6.0,873.6753909997788,5.0,1.0,phase_2,go,700.0,600.0,1.0,,,,,,,,,green,triangle
0.0,3.0,3.0,0.0,5.0,5.0,390.6029669997224,6.0,1.0,phase_2,go,700.0,600.0,1.0,,,,,,,,,cyan,hexagon
0.0,5.0,1.0,1.0,6.0,6.0,343.6814579999918,6.0,1.0,phase_2,go,700.0,600.0,1.0,,,,,,,,,orange,cross
0.0,7.0,3.0,1.0,5.0,5.0,655.4904599997826,6.0,1.0,phase_2,stop,700.0,600.0,3.0,,,,,,,,,gray,circle
0.0,4.0,4.0,0.0,6.0,6.0,344.3410780000704,6.0,1.0,phase_2,go,650.0,600.0,1.0,,,,,,,,,green,triangle
0.0,5.0,1.0,1.0,5.0,5.0,374.2006539996509,6.0,1.0,phase_2,stop,650.0,600.0,3.0,,,,,,,,,orange,cross
0.0,2.0,2.0,0.0,5.0,5.0,441.9994370000495,6.0,1.0,phase_2,go,600.0,600.0,1.0,,,,,,,,,magenta,flipped triangle
0.0,2.0,2.0,0.0,6.0,6.0,294.1524580000987,6.0,1.0,phase_2,go,600.0,600.0,1.0,,,,,,,,,magenta,flipped triangle
0.0,6.0,2.0,1.0,6.0,6.0,481.1178730005849,6.0,1.0,phase_2,stop,600.0,600.0,3.0,,,,,,,,,yellow,diamond
0.0,6.0,2.0,1.0,5.0,5.0,319.9044140001206,6.0,1.0,phase_2,stop,600.0,550.0,3.0,,,,,,,,,yellow,diamond
0.0,1.0,1.0,0.0,5.0,5.0,688.9431879999393,6.0,1.0,phase_2,go,550.0,550.0,1.0,,,,,,,,,white,I
0.0,1.0,1.0,0.0,5.0,5.0,402.2597339999265,6.0,1.0,phase_2,go,550.0,550.0,1.0,,,,,,,,,white,I
0.0,3.0,3.0,0.0,5.0,5.0,744.548921000387,6.0,1.0,phase_2,go,550.0,550.0,1.0,,,,,,,,,cyan,hexagon
0.0,6.0,2.0,1.0,6.0,6.0,943.8479780001215,6.0,1.0,phase_2,go,550.0,550.0,1.0,,,,,,,,,yellow,diamond
0.0,2.0,2.0,0.0,6.0,6.0,817.0161079997342,6.0,1.0,phase_2,go,550.0,550.0,1.0,,,,,,,,,magenta,flipped triangle
0.0,1.0,1.0,0.0,6.0,6.0,632.6269049995972,6.0,1.0,phase_2,go,550.0,550.0,1.0,,,,,,,,,white,I
0.0,4.0,4.0,0.0,6.0,6.0,648.2999780000682,6.0,1.0,phase_2,go,550.0,550.0,1.0,,,,,,,,,green,triangle
0.0,5.0,1.0,1.0,6.0,6.0,768.1270230004884,6.0,1.0,phase_2,go,550.0,550.0,1.0,,,,,,,,,orange,cross
0.0,5.0,1.0,1.0,6.0,0.0,0.0,6.0,1.0,phase_2,stop,550.0,550.0,4.0,,,,,,,,,orange,cross
0.0,1.0,1.0,0.0,6.0,6.0,909.8661320003883,6.0,1.0,phase_2,go,550.0,600.0,1.0,,,,,,,,,white,I
0.0,7.0,3.0,1.0,5.0,5.0,338.8760540001385,6.0,1.0,phase_2,stop,550.0,600.0,3.0,,,,,,,,,gray,circle
0.0,3.0,3.0,0.0,5.0,5.0,324.7551129998101,6.0,1.0,phase_2,go,500.0,600.0,1.0,,,,,,,,,cyan,hexagon
0.0,7.0,3.0,1.0,5.0,5.0,286.58031499981,6.0,1.0,phase_2,stop,500.0,600.0,3.0,,,,,,,,,gray,circle
0.0,7.0,3.0,1.0,5.0,5.0,488.8745049993304,6.0,1.0,phase_2,stop,450.0,600.0,3.0,,,,,,,,,gray,circle
0.0,6.0,2.0,1.0,5.0,5.0,384.3068370006222,6.0,1.0,phase_2,stop,400.0,600.0,3.0,,,,,,,,,yellow,diamond
0.0,4.0,4.0,0.0,6.0,6.0,783.6728150005001,6.0,1.0,phase_2,go,350.0,600.0,1.0,,,,,,,,,green,triangle
0.0,7.0,3.0,1.0,5.0,0.0,0.0,6.0,1.0,phase_2,stop,350.0,600.0,4.0,,,,,,,,,gray,circle
0.0,3.0,3.0,0.0,6.0,6.0,626.8721259993981,6.0,1.0,phase_2,go,400.0,600.0,1.0,,,,,,,,,cyan,hexagon
0.0,8.0,4.0,1.0,6.0,6.0,659.9499599997216,6.0,1.0,phase_2,go,400.0,600.0,1.0,,,,,,,,,blue,square
0.0,6.0,2.0,1.0,5.0,5.0,546.2610949998634,6.0,1.0,phase_2,stop,400.0,600.0,3.0,,,,,,,,,yellow,diamond
0.0,8.0,4.0,1.0,6.0,6.0,765.1746230003482,6.0,1.0,phase_2,stop,350.0,600.0,3.0,,,,,,,,,blue,square
0.0,7.0,3.0,1.0,5.0,5.0,669.6495919995868,6.0,1.0,phase_2,go,350.0,550.0,1.0,,,,,,,,,gray,circle
0.0,4.0,4.0,0.0,6.0,6.0,684.2133750005814,6.0,1.0,phase_2,go,350.0,550.0,1.0,,,,,,,,,green,triangle
0.0,8.0,4.0,1.0,5.0,0.0,0.0,6.0,1.0,phase_2,stop,350.0,550.0,4.0,,,,,,,,,blue,square
0.0,2.0,2.0,0.0,5.0,5.0,783.0325160002758,6.0,1.0,phase_2,go,400.0,550.0,1.0,,,,,,,,,magenta,flipped triangle
0.0,3.0,3.0,0.0,5.0,5.0,662.6240850000613,6.0,1.0,phase_2,go,400.0,550.0,1.0,,,,,,,,,cyan,hexagon
0.0,3.0,3.0,0.0,5.0,5.0,883.8254020001841,6.0,1.0,phase_2,go,400.0,550.0,1.0,,,,,,,,,cyan,hexagon
0.0,1.0,1.0,0.0,5.0,5.0,308.3917550002297,7.0,1.0,phase_2,go,400.0,550.0,1.0,,,,,,,,,white,I
0.0,2.0,2.0,0.0,6.0,6.0,532.1121240003777,7.0,1.0,phase_2,go,400.0,550.0,1.0,,,,,,,,,magenta,flipped triangle
0.0,1.0,1.0,0.0,5.0,5.0,319.6603679998588,7.0,1.0,phase_2,go,400.0,550.0,1.0,,,,,,,,,white,I
0.0,4.0,4.0,0.0,5.0,5.0,257.5257219996274,7.0,1.0,phase_2,go,400.0,550.0,1.0,,,,,,,,,green,triangle
0.0,7.0,3.0,1.0,5.0,5.0,238.6537729998963,7.0,1.0,phase_2,go,400.0,550.0,1.0,,,,,,,,,gray,circle
0.0,6.0,2.0,1.0,5.0,5.0,257.0318490006684,7.0,1.0,phase_2,stop,400.0,550.0,3.0,,,,,,,,,yellow,diamond
0.0,6.0,2.0,1.0,6.0,6.0,309.2277529995044,7.0,1.0,phase_2,stop,350.0,550.0,3.0,,,,,,,,,yellow,diamond
0.0,3.0,3.0,0.0,5.0,5.0,218.707739999445,7.0,1.0,phase_2,go,350.0,500.0,1.0,,,,,,,,,cyan,hexagon
0.0,8.0,4.0,1.0,6.0,6.0,265.1532329991823,7.0,1.0,phase_2,go,350.0,500.0,1.0,,,,,,,,,blue,square
0.0,8.0,4.0,1.0,5.0,5.0,252.90127399966877,7.0,1.0,phase_2,stop,350.0,500.0,3.0,,,,,,,,,blue,square
0.0,6.0,2.0,1.0,5.0,5.0,293.1029729998045,7.0,1.0,phase_2,go,300.0,500.0,1.0,,,,,,,,,yellow,diamond
0.0,7.0,3.0,1.0,5.0,5.0,264.7548340000867,7.0,1.0,phase_2,stop,300.0,500.0,3.0,,,,,,,,,gray,circle
0.0,5.0,1.0,1.0,6.0,6.0,318.5989379999228,7.0,1.0,phase_2,stop,250.0,500.0,3.0,,,,,,,,,orange,cross
0.0,6.0,2.0,1.0,5.0,5.0,243.3589170004779,7.0,1.0,phase_2,stop,250.0,450.0,3.0,,,,,,,,,yellow,diamond
0.0,1.0,1.0,0.0,5.0,5.0,609.1131450002649,7.0,1.0,phase_2,go,200.0,450.0,1.0,,,,,,,,,white,I
0.0,3.0,3.0,0.0,6.0,6.0,576.9234089993915,7.0,1.0,phase_2,go,200.0,450.0,1.0,,,,,,,,,cyan,hexagon
0.0,5.0,1.0,1.0,6.0,0.0,0.0,7.0,1.0,phase_2,stop,200.0,450.0,4.0,,,,,,,,,orange,cross
0.0,1.0,1.0,0.0,6.0,6.0,553.2589679996818,7.0,1.0,phase_2,go,200.0,500.0,1.0,,,,,,,,,white,I
0.0,1.0,1.0,0.0,6.0,6.0,680.0147799995102,7.0,1.0,phase_2,go,200.0,500.0,1.0,,,,,,,,,white,I
0.0,6.0,2.0,1.0,6.0,6.0,646.0227899997335,7.0,1.0,phase_2,stop,200.0,500.0,3.0,,,,,,,,,yellow,diamond
0.0,6.0,2.0,1.0,5.0,0.0,0.0,7.0,1.0,phase_2,stop,200.0,450.0,4.0,,,,,,,,,yellow,diamond
0.0,1.0,1.0,0.0,5.0,5.0,572.6531750005961,7.0,1.0,phase_2,go,250.0,450.0,1.0,,,,,,,,,white,I
0.0,3.0,3.0,0.0,6.0,6.0,298.7493830005405,7.0,1.0,phase_2,go,250.0,450.0,1.0,,,,,,,,,cyan,hexagon
0.0,4.0,4.0,0.0,5.0,5.0,635.5481560003682,7.0,1.0,phase_2,go,250.0,450.0,1.0,,,,,,,,,green,triangle
0.0,2.0,2.0,0.0,6.0,6.0,626.1087470002167,7.0,1.0,phase_2,go,250.0,450.0,1.0,,,,,,,,,magenta,flipped triangle
0.0,4.0,4.0,0.0,5.0,5.0,599.1125470000043,7.0,1.0,phase_2,go,250.0,450.0,1.0,,,,,,,,,green,triangle
0.0,4.0,4.0,0.0,5.0,5.0,528.6512339998808,7.0,1.0,phase_2,go,250.0,450.0,1.0,,,,,,,,,green,triangle
0.0,2.0,2.0,0.0,6.0,6.0,710.2017600000181,7.0,1.0,phase_2,go,250.0,450.0,1.0,,,,,,,,,magenta,flipped triangle
0.0,2.0,2.0,0.0,6.0,6.0,524.756048999734,7.0,1.0,phase_2,go,250.0,450.0,1.0,,,,,,,,,magenta,flipped triangle
0.0,7.0,3.0,1.0,6.0,0.0,0.0,7.0,1.0,phase_2,stop,250.0,450.0,4.0,,,,,,,,,gray,circle
0.0,4.0,4.0,0.0,6.0,6.0,548.4417650004616,7.0,1.0,phase_2,go,250.0,500.0,1.0,,,,,,,,,green,triangle
0.0,2.0,2.0,0.0,5.0,5.0,556.2245529999927,7.0,1.0,phase_2,go,250.0,500.0,1.0,,,,,,,,,magenta,flipped triangle
0.0,8.0,4.0,1.0,6.0,0.0,0.0,7.0,1.0,phase_2,stop,250.0,500.0,4.0,,,,,,,,,blue,square
0.0,6.0,2.0,1.0,5.0,0.0,0.0,7.0,1.0,phase_2,stop,250.0,550.0,4.0,,,,,,,,,yellow,diamond
0.0,2.0,2.0,0.0,5.0,5.0,513.3244230000855,7.0,1.0,phase_2,go,300.0,550.0,1.0,,,,,,,,,magenta,flipped triangle
0.0,1.0,1.0,0.0,5.0,5.0,745.7615460007219,7.0,1.0,phase_2,go,300.0,550.0,1.0,,,,,,,,,white,I
0.0,8.0,4.0,1.0,6.0,6.0,453.2825169999341,8.0,1.0,phase_2,stop,300.0,550.0,3.0,,,,,,,,,blue,square
0.0,2.0,2.0,0.0,5.0,5.0,242.7130070000203,8.0,1.0,phase_2,go,300.0,500.0,1.0,,,,,,,,,magenta,flipped triangle
0.0,3.0,3.0,0.0,5.0,5.0,314.3852269995477,8.0,1.0,phase_2,go,300.0,500.0,1.0,,,,,,,,,cyan,hexagon
0.0,3.0,3.0,0.0,6.0,6.0,279.5853890002036,8.0,1.0,phase_2,go,300.0,500.0,1.0,,,,,,,,,cyan,hexagon
0.0,6.0,2.0,1.0,6.0,6.0,250.1175309998871,8.0,1.0,phase_2,go,300.0,500.0,1.0,,,,,,,,,yellow,diamond
0.0,4.0,4.0,0.0,5.0,5.0,244.0284329995847,8.0,1.0,phase_2,go,300.0,500.0,1.0,,,,,,,,,green,triangle
0.0,3.0,3.0,0.0,5.0,5.0,423.1443270000454,8.0,1.0,phase_2,go,300.0,500.0,1.0,,,,,,,,,cyan,hexagon
0.0,8.0,4.0,1.0,6.0,6.0,389.2027880001478,8.0,1.0,phase_2,stop,300.0,500.0,3.0,,,,,,,,,blue,square
0.0,4.0,4.0,0.0,6.0,6.0,464.9375499993766,8.0,1.0,phase_2,go,300.0,450.0,1.0,,,,,,,,,green,triangle
0.0,8.0,4.0,1.0,6.0,6.0,293.4119900000951,8.0,1.0,phase_2,stop,300.0,450.0,3.0,,,,,,,,,blue,square
0.0,2.0,2.0,0.0,5.0,5.0,381.2758300000496,8.0,1.0,phase_2,go,300.0,400.0,1.0,,,,,,,,,magenta,flipped triangle
0.0,5.0,1.0,1.0,6.0,6.0,290.4787299994495,8.0,1.0,phase_2,stop,300.0,400.0,3.0,,,,,,,,,orange,cross
0.0,4.0,4.0,0.0,6.0,6.0,484.0870390007694,8.0,1.0,phase_2,go,300.0,350.0,1.0,,,,,,,,,green,triangle
0.0,1.0,1.0,0.0,6.0,6.0,362.3776499998712,8.0,1.0,phase_2,go,300.0,350.0,1.0,,,,,,,,,white,I
0.0,7.0,3.0,1.0,6.0,0.0,0.0,8.0,1.0,phase_2,stop,300.0,350.0,4.0,,,,,,,,,gray,circle
0.0,7.0,3.0,1.0,6.0,0.0,0.0,8.0,1.0,phase_2,stop,300.0,400.0,4.0,,,,,,,,,gray,circle
0.0,2.0,2.0,0.0,5.0,5.0,367.2781269997358,8.0,1.0,phase_2,go,300.0,450.0,1.0,,,,,,,,,magenta,flipped triangle
0.0,3.0,3.0,0.0,5.0,5.0,553.3424919995014,8.0,1.0,phase_2,go,300.0,450.0,1.0,,,,,,,,,cyan,hexagon
0.0,6.0,2.0,1.0,6.0,6.0,523.14745700005,8.0,1.0,phase_2,stop,300.0,450.0,3.0,,,,,,,,,yellow,diamond
0.0,1.0,1.0,0.0,6.0,6.0,342.1547879997888,8.0,1.0,phase_2,go,300.0,400.0,1.0,,,,,,,,,white,I
0.0,3.0,3.0,0.0,6.0,6.0,696.7324189999999,8.0,1.0,phase_2,go,300.0,400.0,1.0,,,,,,,,,cyan,hexagon
0.0,4.0,4.0,0.0,5.0,5.0,645.4017109999768,8.0,1.0,phase_2,go,300.0,400.0,1.0,,,,,,,,,green,triangle
0.0,5.0,1.0,1.0,5.0,5.0,293.8551280003594,8.0,1.0,phase_2,go,300.0,400.0,1.0,,,,,,,,,orange,cross
0.0,7.0,3.0,1.0,5.0,5.0,361.4640420000796,8.0,1.0,phase_2,go,300.0,400.0,1.0,,,,,,,,,gray,circle
0.0,7.0,3.0,1.0,6.0,6.0,293.2290500002636,8.0,1.0,phase_2,stop,300.0,400.0,3.0,,,,,,,,,gray,circle
0.0,5.0,1.0,1.0,6.0,6.0,266.0570489997553,8.0,1.0,phase_2,go,300.0,350.0,1.0,,,,,,,,,orange,cross
0.0,5.0,1.0,1.0,5.0,5.0,253.2669860001988,8.0,1.0,phase_2,stop,300.0,350.0,3.0,,,,,,,,,orange,cross
0.0,7.0,3.0,1.0,5.0,5.0,414.9192989998482,8.0,1.0,phase_2,stop,250.0,350.0,3.0,,,,,,,,,gray,circle
0.0,7.0,3.0,1.0,5.0,0.0,0.0,8.0,1.0,phase_2,stop,200.0,350.0,4.0,,,,,,,,,gray,circle
0.0,3.0,3.0,0.0,5.0,5.0,399.5567470001333,8.0,1.0,phase_2,go,250.0,350.0,1.0,,,,,,,,,cyan,hexagon
0.0,7.0,3.0,1.0,6.0,6.0,289.1751910001403,8.0,1.0,phase_2,stop,250.0,350.0,3.0,,,,,,,,,gray,circle
0.0,2.0,2.0,0.0,6.0,6.0,571.7047110001658,8.0,1.0,phase_2,go,250.0,300.0,1.0,,,,,,,,,magenta,flipped triangle
0.0,5.0,1.0,1.0,5.0,5.0,289.0803430000233,8.0,1.0,phase_2,stop,250.0,300.0,3.0,,,,,,,,,orange,cross
0.0,4.0,4.0,0.0,6.0,5.0,324.8527880004985,8.0,1.0,phase_2,go,200.0,300.0,2.0,,,,,,,,,green,triangle
0.0,8.0,4.0,1.0,5.0,5.0,325.7896579998487,8.0,1.0,phase_2,go,200.0,300.0,1.0,,,,,,,,,blue,square
0.0,4.0,4.0,0.0,5.0,5.0,355.7574679998652,8.0,1.0,phase_2,go,200.0,300.0,1.0,,,,,,,,,green,triangle
0.0,4.0,4.0,0.0,7.0,3.0,2494.6419250009058,1.0,1.0,phase_3,,,,,234.0,6.0,156.0,78.0,234.0,39.0,117.0,195.0,green,triangle
0.0,2.0,2.0,0.0,7.0,3.0,2404.430271999445,1.0,1.0,phase_3,,,,,117.0,3.0,156.0,39.0,117.0,234.0,78.0,195.0,magenta,flipped triangle
0.0,7.0,3.0,1.0,7.0,5.0,1415.5637320000096,1.0,1.0,phase_3,,,,,216.0,4.0,324.0,54.0,108.0,270.0,216.0,162.0,gray,circle
0.0,8.0,4.0,1.0,7.0,5.0,1592.8672989994084,1.0,1.0,phase_3,,,,,234.0,6.0,156.0,78.0,117.0,195.0,234.0,39.0,blue,square
0.0,1.0,1.0,0.0,7.0,2.0,1408.707950000462,1.0,1.0,phase_3,,,,,324.0,6.0,216.0,324.0,54.0,108.0,270.0,162.0,white,I
0.0,5.0,1.0,1.0,7.0,4.0,2955.2082540012634,1.0,1.0,phase_3,,,,,216.0,4.0,54.0,162.0,270.0,216.0,324.0,108.0,orange,cross
0.0,2.0,2.0,0.0,7.0,4.0,2609.235717000047,1.0,1.0,phase_3,,,,,108.0,2.0,54.0,270.0,324.0,108.0,162.0,216.0,magenta,flipped triangle
0.0,7.0,3.0,1.0,7.0,5.0,1808.7883770003828,1.0,1.0,phase_3,,,,,136.0,4.0,34.0,68.0,102.0,204.0,136.0,170.0,gray,circle
0.0,8.0,4.0,1.0,7.0,3.0,1732.4078830006329,1.0,1.0,phase_3,,,,,204.0,6.0,136.0,68.0,204.0,102.0,34.0,170.0,blue,square
0.0,8.0,4.0,1.0,7.0,6.0,1798.2421360011358,1.0,1.0,phase_3,,,,,294.0,6.0,147.0,49.0,245.0,196.0,98.0,294.0,blue,square
0.0,8.0,4.0,1.0,7.0,3.0,1651.0309190016417,1.0,1.0,phase_3,,,,,324.0,6.0,270.0,54.0,324.0,162.0,108.0,216.0,blue,square
0.0,8.0,4.0,1.0,7.0,5.0,1769.0344200000254,1.0,1.0,phase_3,,,,,195.0,5.0,156.0,234.0,117.0,39.0,195.0,78.0,blue,square
0.0,7.0,3.0,1.0,7.0,5.0,1601.14470499866,1.0,1.0,phase_3,,,,,176.0,4.0,264.0,88.0,220.0,132.0,176.0,44.0,gray,circle
0.0,2.0,2.0,0.0,7.0,2.0,1429.4554660009453,1.0,1.0,phase_3,,,,,88.0,2.0,44.0,88.0,176.0,264.0,132.0,220.0,magenta,flipped triangle
0.0,3.0,3.0,0.0,7.0,5.0,1892.0930069998576,1.0,1.0,phase_3,,,,,147.0,3.0,196.0,294.0,98.0,245.0,147.0,49.0,cyan,hexagon
0.0,4.0,4.0,0.0,7.0,5.0,1118.9304159997846,1.0,1.0,phase_3,,,,,294.0,6.0,147.0,98.0,196.0,49.0,294.0,245.0,green,triangle
0.0,4.0,4.0,0.0,7.0,2.0,2847.550199001489,1.0,1.0,phase_3,,,,,216.0,4.0,54.0,216.0,108.0,324.0,162.0,270.0,green,triangle
0.0,5.0,1.0,1.0,7.0,2.0,2406.9414019995747,1.0,1.0,phase_3,,,,,49.0,1.0,98.0,49.0,245.0,196.0,294.0,147.0,orange,cross
0.0,1.0,1.0,0.0,7.0,5.0,952.3393600011332,1.0,1.0,phase_3,,,,,196.0,4.0,294.0,245.0,147.0,98.0,196.0,49.0,white,I
0.0,4.0,4.0,0.0,7.0,3.0,362.40735300089,1.0,1.0,phase_3,,,,,88.0,2.0,220.0,44.0,88.0,176.0,132.0,264.0,green,triangle
0.0,2.0,2.0,0.0,7.0,1.0,589.0894100011792,2.0,1.0,phase_3,,,,,162.0,3.0,162.0,216.0,54.0,108.0,324.0,270.0,magenta,flipped triangle
0.0,5.0,1.0,1.0,7.0,1.0,1712.670924998747,2.0,1.0,phase_3,,,,,162.0,3.0,162.0,270.0,324.0,108.0,216.0,54.0,orange,cross
0.0,2.0,2.0,0.0,7.0,4.0,1122.8447720004624,2.0,1.0,phase_3,,,,,117.0,3.0,39.0,195.0,156.0,117.0,234.0,78.0,magenta,flipped triangle
0.0,6.0,2.0,1.0,7.0,1.0,1463.2828600006178,2.0,1.0,phase_3,,,,,78.0,2.0,78.0,234.0,39.0,156.0,117.0,195.0,yellow,diamond
0.0,5.0,1.0,1.0,7.0,2.0,1268.6988639998162,2.0,1.0,phase_3,,,,,117.0,3.0,78.0,117.0,39.0,195.0,234.0,156.0,orange,cross
0.0,3.0,3.0,0.0,7.0,1.0,1495.3598669999335,2.0,1.0,phase_3,,,,,324.0,6.0,324.0,162.0,270.0,54.0,108.0,216.0,cyan,hexagon
0.0,8.0,4.0,1.0,7.0,5.0,2453.1686310001533,2.0,1.0,phase_3,,,,,204.0,6.0,102.0,34.0,68.0,170.0,204.0,136.0,blue,square
0.0,3.0,3.0,0.0,7.0,5.0,1511.7981170005803,2.0,1.0,phase_3,,,,,44.0,1.0,220.0,132.0,264.0,176.0,44.0,88.0,cyan,hexagon
0.0,1.0,1.0,0.0,7.0,1.0,925.9651690008468,2.0,1.0,phase_3,,,,,264.0,6.0,264.0,220.0,44.0,88.0,132.0,176.0,white,I
0.0,2.0,2.0,0.0,7.0,2.0,467.707744001018,2.0,1.0,phase_3,,,,,132.0,3.0,220.0,132.0,264.0,176.0,44.0,88.0,magenta,flipped triangle
0.0,8.0,4.0,1.0,7.0,5.0,1067.6614019994304,2.0,1.0,phase_3,,,,,264.0,6.0,220.0,176.0,132.0,88.0,264.0,44.0,blue,square
0.0,5.0,1.0,1.0,7.0,3.0,280.9571849993517,2.0,1.0,phase_3,,,,,195.0,5.0,117.0,78.0,195.0,156.0,39.0,234.0,orange,cross
0.0,1.0,1.0,0.0,7.0,4.0,386.4115249998576,2.0,1.0,phase_3,,,,,156.0,4.0,39.0,78.0,195.0,156.0,234.0,117.0,white,I
0.0,3.0,3.0,0.0,7.0,1.0,263.8981349991809,2.0,1.0,phase_3,,,,,54.0,1.0,54.0,324.0,108.0,162.0,216.0,270.0,cyan,hexagon
0.0,2.0,2.0,0.0,7.0,6.0,389.9487899998348,2.0,1.0,phase_3,,,,,34.0,1.0,170.0,102.0,136.0,68.0,204.0,34.0,magenta,flipped triangle
0.0,1.0,1.0,0.0,7.0,2.0,303.0990049992397,2.0,1.0,phase_3,,,,,136.0,4.0,204.0,136.0,34.0,68.0,170.0,102.0,white,I
0.0,1.0,1.0,0.0,7.0,5.0,589.4883969995135,2.0,1.0,phase_3,,,,,270.0,5.0,324.0,162.0,54.0,216.0,270.0,108.0,white,I
0.0,6.0,2.0,1.0,7.0,3.0,310.7108599997445,2.0,1.0,phase_3,,,,,132.0,3.0,220.0,44.0,132.0,88.0,176.0,264.0,yellow,diamond
0.0,7.0,3.0,1.0,7.0,4.0,276.1057940006139,2.0,1.0,phase_3,,,,,147.0,3.0,196.0,49.0,294.0,147.0,98.0,245.0,gray,circle
0.0,2.0,2.0,0.0,7.0,2.0,1517.7697710005305,2.0,1.0,phase_3,,,,,102.0,3.0,204.0,102.0,34.0,136.0,170.0,68.0,magenta,flipped triangle
0.0,4.0,4.0,0.0,7.0,2.0,772.1704859995953,3.0,1.0,phase_3,,,,,245.0,5.0,196.0,245.0,294.0,49.0,147.0,98.0,green,triangle
0.0,6.0,2.0,1.0,7.0,5.0,1130.5671500012977,3.0,1.0,phase_3,,,,,49.0,1.0,98.0,294.0,147.0,245.0,49.0,196.0,yellow,diamond
0.0,6.0,2.0,1.0,7.0,2.0,803.3972130015172,3.0,1.0,phase_3,,,,,39.0,1.0,195.0,39.0,78.0,156.0,117.0,234.0,yellow,diamond
0.0,5.0,1.0,1.0,7.0,5.0,979.3361140000344,3.0,1.0,phase_3,,,,,245.0,5.0,294.0,98.0,49.0,196.0,245.0,147.0,orange,cross
0.0,3.0,3.0,0.0,7.0,4.0,680.2531940011249,3.0,1.0,phase_3,,,,,68.0,2.0,102.0,136.0,170.0,68.0,204.0,34.0,cyan,hexagon
0.0,4.0,4.0,0.0,7.0,6.0,1158.489980000013,3.0,1.0,phase_3,,,,,264.0,6.0,132.0,88.0,176.0,220.0,44.0,264.0,green,triangle
0.0,7.0,3.0,1.0,7.0,5.0,1486.4838670000609,3.0,1.0,phase_3,,,,,117.0,3.0,39.0,156.0,78.0,195.0,117.0,234.0,gray,circle
0.0,4.0,4.0,0.0,7.0,5.0,1092.563173999224,3.0,1.0,phase_3,,,,,156.0,4.0,234.0,78.0,39.0,195.0,156.0,117.0,green,triangle
0.0,3.0,3.0,0.0,7.0,1.0,624.4832140000653,3.0,1.0,phase_3,,,,,156.0,4.0,156.0,39.0,195.0,117.0,78.0,234.0,cyan,hexagon
0.0,8.0,4.0,1.0,7.0,1.0,1434.4572150002932,3.0,1.0,phase_3,,,,,44.0,1.0,44.0,88.0,176.0,132.0,220.0,264.0,blue,square
0.0,5.0,1.0,1.0,7.0,2.0,1072.4435650008672,3.0,1.0,phase_3,,,,,264.0,6.0,132.0,264.0,88.0,176.0,44.0,220.0,orange,cross
0.0,3.0,3.0,0.0,7.0,3.0,802.0597489994543,3.0,1.0,phase_3,,,,,196.0,4.0,294.0,147.0,196.0,49.0,98.0,245.0,cyan,hexagon
0.0,2.0,2.0,0.0,7.0,5.0,447.3736309992091,3.0,1.0,phase_3,,,,,98.0,2.0,245.0,49.0,196.0,147.0,98.0,294.0,magenta,flipped triangle
0.0,7.0,3.0,1.0,7.0,2.0,682.1027440000762,3.0,1.0,phase_3,,,,,195.0,5.0,234.0,195.0,156.0,39.0,78.0,117.0,gray,circle
0.0,7.0,3.0,1.0,7.0,5.0,1342.620364999675,3.0,1.0,phase_3,,,,,196.0,4.0,147.0,49.0,98.0,294.0,196.0,245.0,gray,circle
0.0,7.0,3.0,1.0,7.0,5.0,1599.2768980013352,3.0,1.0,phase_3,,,,,136.0,4.0,68.0,204.0,170.0,102.0,136.0,34.0,gray,circle
0.0,4.0,4.0,0.0,7.0,1.0,1301.576603000285,3.0,1.0,phase_3,,,,,102.0,3.0,102.0,170.0,136.0,34.0,68.0,204.0,green,triangle
0.0,5.0,1.0,1.0,7.0,2.0,847.2340039988921,3.0,1.0,phase_3,,,,,136.0,4.0,170.0,136.0,102.0,204.0,68.0,34.0,orange,cross
0.0,3.0,3.0,0.0,7.0,1.0,862.1705699988524,3.0,1.0,phase_3,,,,,88.0,2.0,88.0,44.0,132.0,220.0,264.0,176.0,cyan,hexagon
0.0,5.0,1.0,1.0,7.0,3.0,664.6213660005742,3.0,1.0,phase_3,,,,,132.0,3.0,44.0,264.0,132.0,176.0,220.0,88.0,orange,cross
0.0,1.0,1.0,0.0,7.0,4.0,379.2224640001223,4.0,1.0,phase_3,,,,,170.0,5.0,136.0,102.0,34.0,170.0,68.0,204.0,white,I
0.0,4.0,4.0,0.0,7.0,6.0,1789.468869999837,4.0,1.0,phase_3,,,,,324.0,6.0,54.0,216.0,108.0,162.0,270.0,324.0,green,triangle
0.0,6.0,2.0,1.0,7.0,2.0,598.3356929991714,4.0,1.0,phase_3,,,,,88.0,2.0,132.0,88.0,220.0,44.0,176.0,264.0,yellow,diamond
0.0,1.0,1.0,0.0,7.0,4.0,1323.8281329995516,4.0,1.0,phase_3,,,,,294.0,6.0,147.0,98.0,49.0,294.0,245.0,196.0,white,I
0.0,6.0,2.0,1.0,7.0,1.0,1085.791605999475,4.0,1.0,phase_3,,,,,196.0,4.0,196.0,147.0,245.0,98.0,294.0,49.0,yellow,diamond
0.0,6.0,2.0,1.0,7.0,3.0,1477.6238550002745,4.0,1.0,phase_3,,,,,54.0,1.0,162.0,108.0,54.0,270.0,324.0,216.0,yellow,diamond
0.0,1.0,1.0,0.0,7.0,5.0,1429.8626780000632,4.0,1.0,phase_3,,,,,78.0,2.0,195.0,117.0,234.0,39.0,78.0,156.0,white,I
0.0,3.0,3.0,0.0,7.0,2.0,326.1127410005429,4.0,1.0,phase_3,,,,,204.0,6.0,68.0,204.0,102.0,34.0,136.0,170.0,cyan,hexagon
0.0,6.0,2.0,1.0,7.0,6.0,1210.530870999719,4.0,1.0,phase_3,,,,,170.0,5.0,204.0,34.0,68.0,102.0,136.0,170.0,yellow,diamond
0.0,4.0,4.0,0.0,7.0,6.0,1528.1163370000286,4.0,1.0,phase_3,,,,,204.0,6.0,102.0,34.0,170.0,136.0,68.0,204.0,green,triangle
0.0,8.0,4.0,1.0,7.0,6.0,1643.525822999436,4.0,1.0,phase_3,,,,,324.0,6.0,270.0,216.0,162.0,54.0,108.0,324.0,blue,square
0.0,6.0,2.0,1.0,7.0,1.0,1522.3089369992522,4.0,1.0,phase_3,,,,,170.0,5.0,170.0,204.0,136.0,68.0,102.0,34.0,yellow,diamond
0.0,8.0,4.0,1.0,7.0,2.0,1209.8368639999535,4.0,1.0,phase_3,,,,,98.0,2.0,245.0,98.0,49.0,294.0,147.0,196.0,blue,square
0.0,3.0,3.0,0.0,7.0,1.0,850.8408430006966,4.0,1.0,phase_3,,,,,78.0,2.0,78.0,234.0,156.0,117.0,195.0,39.0,cyan,hexagon
0.0,2.0,2.0,0.0,7.0,3.0,521.6694339997048,4.0,1.0,phase_3,,,,,196.0,4.0,49.0,294.0,196.0,98.0,245.0,147.0,magenta,flipped triangle
0.0,7.0,3.0,1.0,7.0,5.0,1398.0522550009482,4.0,1.0,phase_3,,,,,270.0,5.0,108.0,162.0,216.0,324.0,270.0,54.0,gray,circle
0.0,7.0,3.0,1.0,7.0,1.0,822.4969089988008,4.0,1.0,phase_3,,,,,88.0,2.0,88.0,176.0,264.0,44.0,220.0,132.0,gray,circle
0.0,5.0,1.0,1.0,7.0,6.0,645.4987849992904,4.0,1.0,phase_3,,,,,170.0,5.0,102.0,34.0,68.0,136.0,204.0,170.0,orange,cross
0.0,1.0,1.0,0.0,7.0,2.0,211.4395150001655,4.0,1.0,phase_3,,,,,44.0,1.0,132.0,44.0,220.0,176.0,88.0,264.0,white,I
0.0,6.0,2.0,1.0,7.0,5.0,436.890515999039,4.0,1.0,phase_3,,,,,270.0,5.0,54.0,216.0,162.0,324.0,270.0,108.0,yellow,diamond
