raw_reward_magnitude,stim_reward,stepwise_reward_magnitude,paired_with_stopping,stim_location,response,reaction_time,block,num_trial_presentations,which_phase,stop_signal_trial_type,left_SSD,right_SSD,accuracy,chosen_bidding_amount,chosen_bidding_level,possible_bid_1,possible_bid_2,possible_bid_3,possible_bid_4,possible_bid_5,possible_bid_6,color_text,shape_text
200.0,3.0,3.0,0.0,2.0,2.0,445.9020690001125,1.0,1.0,phase_1,,,,,,,,,,,,,blue,cross
103.0,2.0,2.0,0.0,4.0,4.0,385.3896390000955,1.0,1.0,phase_1,,,,,,,,,,,,,magenta,triangle
176.0,7.0,3.0,1.0,2.0,2.0,422.18596099974087,1.0,1.0,phase_1,,,,,,,,,,,,,white,hexagon
215.0,3.0,3.0,0.0,4.0,4.0,406.0119559999293,1.0,1.0,phase_1,,,,,,,,,,,,,blue,cross
0.0,4.0,0.0,0.0,1.0,1.0,449.4184270001824,1.0,1.0,phase_1,,,,,,,,,,,,,gray,I
381.0,8.0,4.0,1.0,1.0,1.0,451.4784409998356,1.0,1.0,phase_1,,,,,,,,,,,,,yellow,circle
396.0,8.0,4.0,1.0,3.0,3.0,415.6472119998398,1.0,1.0,phase_1,,,,,,,,,,,,,yellow,circle
72.0,5.0,1.0,1.0,3.0,3.0,460.378595000293,1.0,2.0,phase_1,,,,,,,,,,,,,cyan,flipped triangle
0.0,3.0,0.0,0.0,1.0,1.0,508.08119099974647,1.0,1.0,phase_1,,,,,,,,,,,,,blue,cross
422.0,8.0,4.0,1.0,1.0,1.0,506.6798800003198,1.0,1.0,phase_1,,,,,,,,,,,,,yellow,circle
403.0,8.0,4.0,1.0,4.0,4.0,389.3949349999275,1.0,1.0,phase_1,,,,,,,,,,,,,yellow,circle
392.0,4.0,4.0,0.0,2.0,2.0,436.4835199999106,1.0,1.0,phase_1,,,,,,,,,,,,,gray,I
189.0,3.0,3.0,0.0,4.0,4.0,317.7144030000818,1.0,1.0,phase_1,,,,,,,,,,,,,blue,cross
56.0,5.0,1.0,1.0,2.0,2.0,466.4205359999869,1.0,1.0,phase_1,,,,,,,,,,,,,cyan,flipped triangle
0.0,4.0,0.0,0.0,2.0,2.0,528.8870229996974,1.0,1.0,phase_1,,,,,,,,,,,,,gray,I
209.0,7.0,3.0,1.0,4.0,4.0,501.62390700006654,1.0,1.0,phase_1,,,,,,,,,,,,,white,hexagon
0.0,8.0,0.0,1.0,4.0,4.0,466.6773389999434,1.0,1.0,phase_1,,,,,,,,,,,,,yellow,circle
201.0,7.0,3.0,1.0,4.0,4.0,463.8968550002573,1.0,1.0,phase_1,,,,,,,,,,,,,white,hexagon
95.0,2.0,2.0,0.0,4.0,4.0,392.0344930002102,1.0,1.0,phase_1,,,,,,,,,,,,,magenta,triangle
176.0,3.0,3.0,0.0,2.0,2.0,478.1577890003063,1.0,1.0,phase_1,,,,,,,,,,,,,blue,cross
402.0,8.0,4.0,1.0,4.0,4.0,337.9982390001714,1.0,1.0,phase_1,,,,,,,,,,,,,yellow,circle
56.0,1.0,1.0,0.0,1.0,1.0,462.2272339997835,1.0,1.0,phase_1,,,,,,,,,,,,,orange,square
209.0,3.0,3.0,0.0,3.0,3.0,435.5319960000088,1.0,1.0,phase_1,,,,,,,,,,,,,blue,cross
0.0,6.0,0.0,1.0,2.0,2.0,378.2132629999069,1.0,1.0,phase_1,,,,,,,,,,,,,green,diamond
415.0,4.0,4.0,0.0,2.0,2.0,680.7798790000561,1.0,1.0,phase_1,,,,,,,,,,,,,gray,I
203.0,7.0,3.0,1.0,4.0,4.0,427.93673799997117,1.0,1.0,phase_1,,,,,,,,,,,,,white,hexagon
223.0,7.0,3.0,1.0,2.0,2.0,471.927813000093,1.0,1.0,phase_1,,,,,,,,,,,,,white,hexagon
95.0,6.0,2.0,1.0,1.0,1.0,457.5481199999558,1.0,1.0,phase_1,,,,,,,,,,,,,green,diamond
210.0,7.0,3.0,1.0,3.0,3.0,511.97867600012614,1.0,1.0,phase_1,,,,,,,,,,,,,white,hexagon
99.0,6.0,2.0,1.0,3.0,3.0,538.4316730001046,1.0,1.0,phase_1,,,,,,,,,,,,,green,diamond
83.0,6.0,2.0,1.0,4.0,4.0,503.48119099999167,1.0,1.0,phase_1,,,,,,,,,,,,,green,diamond
35.0,5.0,1.0,1.0,1.0,1.0,430.6898349996118,1.0,1.0,phase_1,,,,,,,,,,,,,cyan,flipped triangle
49.0,1.0,1.0,0.0,3.0,3.0,397.6352240001688,1.0,1.0,phase_1,,,,,,,,,,,,,orange,square
208.0,3.0,3.0,0.0,2.0,2.0,435.9391699999833,1.0,1.0,phase_1,,,,,,,,,,,,,blue,cross
86.0,6.0,2.0,1.0,2.0,2.0,381.2278160003188,1.0,1.0,phase_1,,,,,,,,,,,,,green,diamond
201.0,3.0,3.0,0.0,1.0,1.0,441.8277300001136,1.0,1.0,phase_1,,,,,,,,,,,,,blue,cross
61.0,1.0,1.0,0.0,3.0,3.0,403.6988220000239,1.0,1.0,phase_1,,,,,,,,,,,,,orange,square
405.0,4.0,4.0,0.0,1.0,1.0,338.025172000016,1.0,1.0,phase_1,,,,,,,,,,,,,gray,I
94.0,6.0,2.0,1.0,1.0,1.0,350.0137630003337,1.0,1.0,phase_1,,,,,,,,,,,,,green,diamond
100.0,6.0,2.0,1.0,2.0,2.0,346.4655729999322,1.0,1.0,phase_1,,,,,,,,,,,,,green,diamond
42.0,5.0,1.0,1.0,3.0,3.0,379.7812000002523,1.0,1.0,phase_1,,,,,,,,,,,,,cyan,flipped triangle
0.0,1.0,0.0,0.0,4.0,4.0,349.0373090003231,1.0,1.0,phase_1,,,,,,,,,,,,,orange,square
391.0,4.0,4.0,0.0,1.0,1.0,419.475562000116,1.0,1.0,phase_1,,,,,,,,,,,,,gray,I
0.0,2.0,0.0,0.0,2.0,2.0,398.5108750002837,1.0,1.0,phase_1,,,,,,,,,,,,,magenta,triangle
119.0,6.0,2.0,1.0,4.0,4.0,351.8304770000213,1.0,1.0,phase_1,,,,,,,,,,,,,green,diamond
0.0,8.0,0.0,1.0,2.0,2.0,379.3225580002399,1.0,1.0,phase_1,,,,,,,,,,,,,yellow,circle
49.0,5.0,1.0,1.0,4.0,4.0,357.0690009996724,1.0,1.0,phase_1,,,,,,,,,,,,,cyan,flipped triangle
28.0,5.0,1.0,1.0,2.0,2.0,334.752994000155,1.0,1.0,phase_1,,,,,,,,,,,,,cyan,flipped triangle
45.0,5.0,1.0,1.0,4.0,4.0,442.8886609998699,1.0,1.0,phase_1,,,,,,,,,,,,,cyan,flipped triangle
62.0,1.0,1.0,0.0,3.0,3.0,453.6558710001372,1.0,1.0,phase_1,,,,,,,,,,,,,orange,square
92.0,6.0,2.0,1.0,3.0,3.0,382.0999240001583,1.0,1.0,phase_1,,,,,,,,,,,,,green,diamond
186.0,7.0,3.0,1.0,3.0,3.0,416.1038960000951,1.0,1.0,phase_1,,,,,,,,,,,,,white,hexagon
44.0,5.0,1.0,1.0,2.0,2.0,366.2650070000381,1.0,1.0,phase_1,,,,,,,,,,,,,cyan,flipped triangle
103.0,2.0,2.0,0.0,1.0,1.0,486.5230870000232,1.0,1.0,phase_1,,,,,,,,,,,,,magenta,triangle
122.0,6.0,2.0,1.0,2.0,2.0,412.2475320000376,1.0,1.0,phase_1,,,,,,,,,,,,,green,diamond
0.0,4.0,0.0,0.0,4.0,4.0,375.1857100000961,1.0,1.0,phase_1,,,,,,,,,,,,,gray,I
186.0,7.0,3.0,1.0,3.0,3.0,378.0040750002627,1.0,1.0,phase_1,,,,,,,,,,,,,white,hexagon
203.0,3.0,3.0,0.0,3.0,3.0,362.0644410002569,1.0,1.0,phase_1,,,,,,,,,,,,,blue,cross
50.0,5.0,1.0,1.0,1.0,1.0,362.2257319998425,1.0,1.0,phase_1,,,,,,,,,,,,,cyan,flipped triangle
42.0,1.0,1.0,0.0,4.0,4.0,438.0796810000902,1.0,1.0,phase_1,,,,,,,,,,,,,orange,square
416.0,4.0,4.0,0.0,4.0,4.0,347.5045489999502,1.0,1.0,phase_1,,,,,,,,,,,,,gray,I
212.0,7.0,3.0,1.0,3.0,3.0,442.6005459999942,1.0,1.0,phase_1,,,,,,,,,,,,,white,hexagon
207.0,3.0,3.0,0.0,1.0,1.0,629.0589479999653,1.0,1.0,phase_1,,,,,,,,,,,,,blue,cross
74.0,1.0,1.0,0.0,3.0,3.0,408.4193129997402,1.0,1.0,phase_1,,,,,,,,,,,,,orange,square
409.0,8.0,4.0,1.0,4.0,4.0,541.809223999735,1.0,1.0,phase_1,,,,,,,,,,,,,yellow,circle
390.0,4.0,4.0,0.0,2.0,2.0,522.629797999798,1.0,1.0,phase_1,,,,,,,,,,,,,gray,I
0.0,2.0,0.0,0.0,1.0,1.0,484.4691869998314,1.0,1.0,phase_1,,,,,,,,,,,,,magenta,triangle
388.0,8.0,4.0,1.0,2.0,2.0,467.9217900002186,1.0,1.0,phase_1,,,,,,,,,,,,,yellow,circle
111.0,6.0,2.0,1.0,1.0,1.0,362.5632530001894,1.0,1.0,phase_1,,,,,,,,,,,,,green,diamond
417.0,8.0,4.0,1.0,3.0,3.0,372.3311609996926,1.0,1.0,phase_1,,,,,,,,,,,,,yellow,circle
417.0,4.0,4.0,0.0,2.0,2.0,385.5114860002686,1.0,1.0,phase_1,,,,,,,,,,,,,gray,I
37.0,5.0,1.0,1.0,2.0,2.0,462.3071730002266,1.0,1.0,phase_1,,,,,,,,,,,,,cyan,flipped triangle
200.0,7.0,3.0,1.0,1.0,1.0,407.6879029998963,1.0,1.0,phase_1,,,,,,,,,,,,,white,hexagon
383.0,8.0,4.0,1.0,1.0,1.0,370.1197440000214,1.0,1.0,phase_1,,,,,,,,,,,,,yellow,circle
0.0,5.0,0.0,1.0,4.0,4.0,465.8135320000838,1.0,1.0,phase_1,,,,,,,,,,,,,cyan,flipped triangle
72.0,1.0,1.0,0.0,2.0,2.0,331.0739269995792,1.0,1.0,phase_1,,,,,,,,,,,,,orange,square
378.0,4.0,4.0,0.0,1.0,1.0,581.5767859999141,1.0,1.0,phase_1,,,,,,,,,,,,,gray,I
0.0,5.0,0.0,1.0,4.0,4.0,372.6678200000606,1.0,1.0,phase_1,,,,,,,,,,,,,cyan,flipped triangle
99.0,2.0,2.0,0.0,1.0,1.0,332.7014100000269,1.0,1.0,phase_1,,,,,,,,,,,,,magenta,triangle
421.0,8.0,4.0,1.0,2.0,2.0,308.7885990003087,1.0,1.0,phase_1,,,,,,,,,,,,,yellow,circle
0.0,3.0,0.0,0.0,4.0,4.0,427.468649000275,1.0,1.0,phase_1,,,,,,,,,,,,,blue,cross
220.0,3.0,3.0,0.0,4.0,4.0,408.4682410002642,1.0,1.0,phase_1,,,,,,,,,,,,,blue,cross
0.0,1.0,0.0,0.0,1.0,1.0,425.7162039998547,1.0,1.0,phase_1,,,,,,,,,,,,,orange,square
0.0,3.0,0.0,0.0,4.0,4.0,438.9775670001654,1.0,1.0,phase_1,,,,,,,,,,,,,blue,cross
392.0,8.0,4.0,1.0,4.0,4.0,378.6018609998791,1.0,1.0,phase_1,,,,,,,,,,,,,yellow,circle
176.0,7.0,3.0,1.0,4.0,4.0,417.6005090002945,1.0,1.0,phase_1,,,,,,,,,,,,,white,hexagon
63.0,1.0,1.0,0.0,2.0,2.0,352.0798449999347,1.0,1.0,phase_1,,,,,,,,,,,,,orange,square
108.0,6.0,2.0,1.0,1.0,1.0,439.6801939997203,1.0,1.0,phase_1,,,,,,,,,,,,,green,diamond
124.0,2.0,2.0,0.0,2.0,2.0,386.3925340001515,1.0,1.0,phase_1,,,,,,,,,,,,,magenta,triangle
123.0,6.0,2.0,1.0,2.0,2.0,410.6876559999364,1.0,1.0,phase_1,,,,,,,,,,,,,green,diamond
393.0,4.0,4.0,0.0,2.0,2.0,359.2283489997498,1.0,1.0,phase_1,,,,,,,,,,,,,gray,I
375.0,8.0,4.0,1.0,3.0,3.0,931.3584900000932,1.0,1.0,phase_1,,,,,,,,,,,,,yellow,circle
375.0,4.0,4.0,0.0,3.0,3.0,722.7184439998382,1.0,1.0,phase_1,,,,,,,,,,,,,gray,I
217.0,7.0,3.0,1.0,2.0,2.0,560.2279390000149,1.0,1.0,phase_1,,,,,,,,,,,,,white,hexagon
421.0,4.0,4.0,0.0,3.0,3.0,453.6011449999932,1.0,1.0,phase_1,,,,,,,,,,,,,gray,I
421.0,8.0,4.0,1.0,2.0,2.0,451.4860270001009,1.0,1.0,phase_1,,,,,,,,,,,,,yellow,circle
195.0,7.0,3.0,1.0,4.0,4.0,574.7991349999211,1.0,1.0,phase_1,,,,,,,,,,,,,white,hexagon
422.0,8.0,4.0,1.0,4.0,4.0,476.1672409999846,1.0,1.0,phase_1,,,,,,,,,,,,,yellow,circle
195.0,3.0,3.0,0.0,3.0,3.0,595.443189999969,1.0,1.0,phase_1,,,,,,,,,,,,,blue,cross
376.0,4.0,4.0,0.0,1.0,1.0,618.2748240003093,1.0,1.0,phase_1,,,,,,,,,,,,,gray,I
189.0,7.0,3.0,1.0,1.0,1.0,447.3988459999418,2.0,1.0,phase_1,,,,,,,,,,,,,white,hexagon
376.0,8.0,4.0,1.0,2.0,2.0,382.2446359999958,2.0,1.0,phase_1,,,,,,,,,,,,,yellow,circle
38.0,5.0,1.0,1.0,3.0,3.0,533.9130540000951,2.0,1.0,phase_1,,,,,,,,,,,,,cyan,flipped triangle
60.0,5.0,1.0,1.0,2.0,2.0,321.6973939997842,2.0,1.0,phase_1,,,,,,,,,,,,,cyan,flipped triangle
47.0,1.0,1.0,0.0,4.0,4.0,967.3526749998018,2.0,1.0,phase_1,,,,,,,,,,,,,orange,square
383.0,4.0,4.0,0.0,1.0,1.0,505.81547899992074,2.0,1.0,phase_1,,,,,,,,,,,,,gray,I
43.0,1.0,1.0,0.0,4.0,4.0,443.2766079999055,2.0,1.0,phase_1,,,,,,,,,,,,,orange,square
44.0,1.0,1.0,0.0,2.0,2.0,379.9968500002251,2.0,1.0,phase_1,,,,,,,,,,,,,orange,square
182.0,7.0,3.0,1.0,2.0,2.0,371.0851549999461,2.0,1.0,phase_1,,,,,,,,,,,,,white,hexagon
422.0,8.0,4.0,1.0,1.0,1.0,446.2775409997448,2.0,1.0,phase_1,,,,,,,,,,,,,yellow,circle
50.0,1.0,1.0,0.0,1.0,1.0,325.6260540001676,2.0,1.0,phase_1,,,,,,,,,,,,,orange,square
101.0,6.0,2.0,1.0,2.0,2.0,433.8961400003427,2.0,1.0,phase_1,,,,,,,,,,,,,green,diamond
412.0,4.0,4.0,0.0,3.0,3.0,383.2560850000845,2.0,1.0,phase_1,,,,,,,,,,,,,gray,I
0.0,2.0,0.0,0.0,2.0,2.0,306.8606669999099,2.0,1.0,phase_1,,,,,,,,,,,,,magenta,triangle
30.0,5.0,1.0,1.0,4.0,4.0,547.9021719997945,2.0,1.0,phase_1,,,,,,,,,,,,,cyan,flipped triangle
0.0,1.0,0.0,0.0,3.0,3.0,485.043184999995,2.0,1.0,phase_1,,,,,,,,,,,,,orange,square
210.0,3.0,3.0,0.0,2.0,2.0,448.3969430002616,2.0,1.0,phase_1,,,,,,,,,,,,,blue,cross
417.0,8.0,4.0,1.0,4.0,4.0,498.6559999997553,2.0,1.0,phase_1,,,,,,,,,,,,,yellow,circle
33.0,5.0,1.0,1.0,3.0,3.0,515.0717719998283,2.0,1.0,phase_1,,,,,,,,,,,,,cyan,flipped triangle
0.0,8.0,0.0,1.0,4.0,4.0,383.8785699999789,2.0,1.0,phase_1,,,,,,,,,,,,,yellow,circle
0.0,8.0,0.0,1.0,4.0,4.0,410.3564770002776,2.0,1.0,phase_1,,,,,,,,,,,,,yellow,circle
87.0,2.0,2.0,0.0,3.0,3.0,472.4589830002514,2.0,1.0,phase_1,,,,,,,,,,,,,magenta,triangle
109.0,6.0,2.0,1.0,3.0,3.0,356.194073000097,2.0,1.0,phase_1,,,,,,,,,,,,,green,diamond
28.0,1.0,1.0,0.0,2.0,2.0,353.1636689999686,2.0,1.0,phase_1,,,,,,,,,,,,,orange,square
422.0,4.0,4.0,0.0,4.0,4.0,410.5075939996823,2.0,1.0,phase_1,,,,,,,,,,,,,gray,I
25.0,5.0,1.0,1.0,3.0,3.0,427.0611819997612,2.0,1.0,phase_1,,,,,,,,,,,,,cyan,flipped triangle
31.0,5.0,1.0,1.0,4.0,4.0,429.4964779996917,2.0,1.0,phase_1,,,,,,,,,,,,,cyan,flipped triangle
91.0,6.0,2.0,1.0,1.0,1.0,862.502295000013,2.0,1.0,phase_1,,,,,,,,,,,,,green,diamond
0.0,5.0,0.0,1.0,2.0,2.0,736.1401690000093,2.0,1.0,phase_1,,,,,,,,,,,,,cyan,flipped triangle
125.0,2.0,2.0,0.0,1.0,1.0,400.486002999969,2.0,1.0,phase_1,,,,,,,,,,,,,magenta,triangle
0.0,7.0,0.0,1.0,3.0,3.0,389.4254320002801,2.0,1.0,phase_1,,,,,,,,,,,,,white,hexagon
101.0,6.0,2.0,1.0,2.0,2.0,604.2742710001221,2.0,1.0,phase_1,,,,,,,,,,,,,green,diamond
208.0,7.0,3.0,1.0,4.0,4.0,349.8935259999598,2.0,1.0,phase_1,,,,,,,,,,,,,white,hexagon
194.0,7.0,3.0,1.0,2.0,2.0,323.54730499992,2.0,1.0,phase_1,,,,,,,,,,,,,white,hexagon
93.0,2.0,2.0,0.0,1.0,1.0,296.8416399999114,2.0,1.0,phase_1,,,,,,,,,,,,,magenta,triangle
390.0,4.0,4.0,0.0,1.0,1.0,336.6788969997287,2.0,1.0,phase_1,,,,,,,,,,,,,gray,I
79.0,2.0,2.0,0.0,2.0,2.0,301.0843970000678,2.0,1.0,phase_1,,,,,,,,,,,,,magenta,triangle
74.0,1.0,1.0,0.0,3.0,3.0,395.7579709999663,2.0,1.0,phase_1,,,,,,,,,,,,,orange,square
103.0,6.0,2.0,1.0,4.0,4.0,434.6055780001734,2.0,1.0,phase_1,,,,,,,,,,,,,green,diamond
422.0,4.0,4.0,0.0,4.0,4.0,403.3003510003254,2.0,1.0,phase_1,,,,,,,,,,,,,gray,I
0.0,4.0,0.0,0.0,4.0,4.0,381.8440179998106,2.0,1.0,phase_1,,,,,,,,,,,,,gray,I
0.0,1.0,0.0,0.0,4.0,4.0,374.7858649999216,2.0,1.0,phase_1,,,,,,,,,,,,,orange,square
207.0,7.0,3.0,1.0,4.0,4.0,527.452207999886,2.0,1.0,phase_1,,,,,,,,,,,,,white,hexagon
424.0,8.0,4.0,1.0,2.0,2.0,512.9200320002383,2.0,1.0,phase_1,,,,,,,,,,,,,yellow,circle
391.0,8.0,4.0,1.0,3.0,3.0,413.4984299998905,2.0,1.0,phase_1,,,,,,,,,,,,,yellow,circle
424.0,4.0,4.0,0.0,2.0,2.0,515.273463000085,2.0,1.0,phase_1,,,,,,,,,,,,,gray,I
0.0,1.0,0.0,0.0,2.0,2.0,416.1371179998241,2.0,1.0,phase_1,,,,,,,,,,,,,orange,square
124.0,6.0,2.0,1.0,1.0,1.0,670.3727590002018,2.0,1.0,phase_1,,,,,,,,,,,,,green,diamond
66.0,5.0,1.0,1.0,2.0,2.0,355.1851610000085,2.0,1.0,phase_1,,,,,,,,,,,,,cyan,flipped triangle
380.0,4.0,4.0,0.0,3.0,3.0,496.1060729997371,2.0,1.0,phase_1,,,,,,,,,,,,,gray,I
388.0,4.0,4.0,0.0,4.0,4.0,450.9467279999626,2.0,1.0,phase_1,,,,,,,,,,,,,gray,I
0.0,8.0,0.0,1.0,1.0,1.0,564.9122330000864,2.0,1.0,phase_1,,,,,,,,,,,,,yellow,circle
376.0,4.0,4.0,0.0,1.0,1.0,437.2606289998657,2.0,1.0,phase_1,,,,,,,,,,,,,gray,I
199.0,3.0,3.0,0.0,3.0,3.0,503.4758179999699,2.0,1.0,phase_1,,,,,,,,,,,,,blue,cross
33.0,1.0,1.0,0.0,2.0,2.0,392.0602120001604,2.0,1.0,phase_1,,,,,,,,,,,,,orange,square
222.0,3.0,3.0,0.0,3.0,3.0,440.7678769998711,2.0,1.0,phase_1,,,,,,,,,,,,,blue,cross
46.0,1.0,1.0,0.0,1.0,1.0,380.4313629998432,2.0,1.0,phase_1,,,,,,,,,,,,,orange,square
68.0,5.0,1.0,1.0,3.0,3.0,497.2693830000025,2.0,1.0,phase_1,,,,,,,,,,,,,cyan,flipped triangle
79.0,6.0,2.0,1.0,1.0,1.0,309.6358660000078,2.0,1.0,phase_1,,,,,,,,,,,,,green,diamond
207.0,7.0,3.0,1.0,1.0,1.0,366.2894989997767,2.0,1.0,phase_1,,,,,,,,,,,,,white,hexagon
388.0,8.0,4.0,1.0,4.0,4.0,398.9284809999844,2.0,1.0,phase_1,,,,,,,,,,,,,yellow,circle
74.0,5.0,1.0,1.0,4.0,4.0,346.0859820002042,2.0,1.0,phase_1,,,,,,,,,,,,,cyan,flipped triangle
0.0,7.0,0.0,1.0,1.0,1.0,402.7868979997038,2.0,1.0,phase_1,,,,,,,,,,,,,white,hexagon
116.0,2.0,2.0,0.0,1.0,1.0,459.5797910001238,2.0,1.0,phase_1,,,,,,,,,,,,,magenta,triangle
0.0,2.0,0.0,0.0,1.0,1.0,374.6274229997652,2.0,1.0,phase_1,,,,,,,,,,,,,magenta,triangle
37.0,1.0,1.0,0.0,1.0,1.0,386.1285730004056,2.0,1.0,phase_1,,,,,,,,,,,,,orange,square
29.0,1.0,1.0,0.0,4.0,4.0,466.9523679999656,2.0,1.0,phase_1,,,,,,,,,,,,,orange,square
36.0,5.0,1.0,1.0,1.0,1.0,347.7815680003004,2.0,1.0,phase_1,,,,,,,,,,,,,cyan,flipped triangle
383.0,8.0,4.0,1.0,4.0,4.0,476.3861940000424,2.0,1.0,phase_1,,,,,,,,,,,,,yellow,circle
0.0,4.0,0.0,0.0,1.0,1.0,583.1311189999724,2.0,1.0,phase_1,,,,,,,,,,,,,gray,I
0.0,5.0,0.0,1.0,3.0,3.0,526.4652220002972,2.0,1.0,phase_1,,,,,,,,,,,,,cyan,flipped triangle
25.0,1.0,1.0,0.0,1.0,1.0,400.123904999873,2.0,1.0,phase_1,,,,,,,,,,,,,orange,square
72.0,5.0,1.0,1.0,1.0,1.0,498.2690289998572,2.0,1.0,phase_1,,,,,,,,,,,,,cyan,flipped triangle
119.0,2.0,2.0,0.0,1.0,1.0,388.0967259997305,2.0,1.0,phase_1,,,,,,,,,,,,,magenta,triangle
72.0,1.0,1.0,0.0,1.0,1.0,369.9346789999254,2.0,1.0,phase_1,,,,,,,,,,,,,orange,square
56.0,5.0,1.0,1.0,1.0,1.0,302.0720949998576,2.0,1.0,phase_1,,,,,,,,,,,,,cyan,flipped triangle
0.0,2.0,0.0,0.0,1.0,1.0,297.0448189998933,2.0,1.0,phase_1,,,,,,,,,,,,,magenta,triangle
193.0,3.0,3.0,0.0,4.0,4.0,340.2504370001225,2.0,1.0,phase_1,,,,,,,,,,,,,blue,cross
75.0,6.0,2.0,1.0,2.0,2.0,335.3519169995707,2.0,1.0,phase_1,,,,,,,,,,,,,green,diamond
124.0,2.0,2.0,0.0,3.0,3.0,382.4531959999149,2.0,1.0,phase_1,,,,,,,,,,,,,magenta,triangle
402.0,4.0,4.0,0.0,1.0,1.0,405.3741630000331,2.0,1.0,phase_1,,,,,,,,,,,,,gray,I
421.0,4.0,4.0,0.0,3.0,3.0,595.409914999891,2.0,1.0,phase_1,,,,,,,,,,,,,gray,I
92.0,2.0,2.0,0.0,3.0,3.0,327.8542360003484,2.0,1.0,phase_1,,,,,,,,,,,,,magenta,triangle
383.0,4.0,4.0,0.0,1.0,1.0,307.3611969998637,2.0,1.0,phase_1,,,,,,,,,,,,,gray,I
380.0,8.0,4.0,1.0,3.0,3.0,291.8664399999215,2.0,1.0,phase_1,,,,,,,,,,,,,yellow,circle
55.0,5.0,1.0,1.0,4.0,4.0,402.5839380001343,2.0,1.0,phase_1,,,,,,,,,,,,,cyan,flipped triangle
96.0,6.0,2.0,1.0,3.0,3.0,352.9148490001716,2.0,1.0,phase_1,,,,,,,,,,,,,green,diamond
222.0,7.0,3.0,1.0,3.0,3.0,381.8371689999367,2.0,1.0,phase_1,,,,,,,,,,,,,white,hexagon
390.0,8.0,4.0,1.0,1.0,1.0,373.7115560002166,2.0,2.0,phase_1,,,,,,,,,,,,,yellow,circle
0.0,6.0,0.0,1.0,4.0,4.0,585.5219939999188,2.0,1.0,phase_1,,,,,,,,,,,,,green,diamond
0.0,5.0,0.0,1.0,1.0,1.0,368.0878380000649,2.0,1.0,phase_1,,,,,,,,,,,,,cyan,flipped triangle
62.0,5.0,1.0,1.0,2.0,2.0,404.3488530001013,2.0,1.0,phase_1,,,,,,,,,,,,,cyan,flipped triangle
0.0,5.0,0.0,1.0,4.0,4.0,456.7481900003258,2.0,1.0,phase_1,,,,,,,,,,,,,cyan,flipped triangle
83.0,2.0,2.0,0.0,4.0,4.0,496.168359999956,2.0,1.0,phase_1,,,,,,,,,,,,,magenta,triangle
67.0,1.0,1.0,0.0,2.0,2.0,432.0067050002762,2.0,1.0,phase_1,,,,,,,,,,,,,orange,square
0.0,3.0,0.0,0.0,3.0,3.0,415.3925800001161,2.0,1.0,phase_1,,,,,,,,,,,,,blue,cross
55.0,1.0,1.0,0.0,4.0,4.0,438.6719950002771,2.0,1.0,phase_1,,,,,,,,,,,,,orange,square
0.0,2.0,0.0,0.0,1.0,1.0,541.4383499996802,2.0,1.0,phase_1,,,,,,,,,,,,,magenta,triangle
96.0,2.0,2.0,0.0,4.0,4.0,417.8974989999915,2.0,1.0,phase_1,,,,,,,,,,,,,magenta,triangle
0.0,3.0,0.0,0.0,4.0,4.0,386.6045789995951,2.0,1.0,phase_1,,,,,,,,,,,,,blue,cross
376.0,8.0,4.0,1.0,2.0,2.0,393.8822680001976,3.0,1.0,phase_1,,,,,,,,,,,,,yellow,circle
114.0,6.0,2.0,1.0,4.0,4.0,344.9174960001073,3.0,1.0,phase_1,,,,,,,,,,,,,green,diamond
396.0,8.0,4.0,1.0,4.0,4.0,372.4144460002208,3.0,1.0,phase_1,,,,,,,,,,,,,yellow,circle
0.0,6.0,0.0,1.0,2.0,2.0,310.5972629996358,3.0,1.0,phase_1,,,,,,,,,,,,,green,diamond
80.0,2.0,2.0,0.0,2.0,2.0,515.1374379997833,3.0,1.0,phase_1,,,,,,,,,,,,,magenta,triangle
188.0,7.0,3.0,1.0,1.0,1.0,493.6650419999751,3.0,1.0,phase_1,,,,,,,,,,,,,white,hexagon
0.0,7.0,0.0,1.0,3.0,3.0,700.2789759999359,3.0,1.0,phase_1,,,,,,,,,,,,,white,hexagon
0.0,1.0,0.0,0.0,4.0,4.0,503.49060700000337,3.0,1.0,phase_1,,,,,,,,,,,,,orange,square
84.0,6.0,2.0,1.0,2.0,2.0,398.1777280000642,3.0,1.0,phase_1,,,,,,,,,,,,,green,diamond
49.0,1.0,1.0,0.0,4.0,4.0,367.5335459997768,3.0,1.0,phase_1,,,,,,,,,,,,,orange,square
112.0,6.0,2.0,1.0,3.0,3.0,408.9622209999106,3.0,1.0,phase_1,,,,,,,,,,,,,green,diamond
46.0,5.0,1.0,1.0,3.0,3.0,384.2366190001485,3.0,1.0,phase_1,,,,,,,,,,,,,cyan,flipped triangle
55.0,5.0,1.0,1.0,4.0,4.0,397.2216729998763,3.0,1.0,phase_1,,,,,,,,,,,,,cyan,flipped triangle
403.0,4.0,4.0,0.0,3.0,3.0,348.665561999951,3.0,1.0,phase_1,,,,,,,,,,,,,gray,I
0.0,7.0,0.0,1.0,2.0,2.0,387.82182600016307,3.0,1.0,phase_1,,,,,,,,,,,,,white,hexagon
0.0,5.0,0.0,1.0,4.0,4.0,319.5221229998424,3.0,1.0,phase_1,,,,,,,,,,,,,cyan,flipped triangle
31.0,1.0,1.0,0.0,3.0,3.0,388.5900450000008,3.0,1.0,phase_1,,,,,,,,,,,,,orange,square
0.0,7.0,0.0,1.0,1.0,1.0,657.0623320003506,3.0,1.0,phase_1,,,,,,,,,,,,,white,hexagon
61.0,5.0,1.0,1.0,2.0,2.0,398.1129160001728,3.0,1.0,phase_1,,,,,,,,,,,,,cyan,flipped triangle
196.0,7.0,3.0,1.0,3.0,3.0,415.7417970000097,3.0,1.0,phase_1,,,,,,,,,,,,,white,hexagon
209.0,7.0,3.0,1.0,2.0,2.0,446.7336289999366,3.0,1.0,phase_1,,,,,,,,,,,,,white,hexagon
73.0,1.0,1.0,0.0,2.0,2.0,544.9750259999746,3.0,1.0,phase_1,,,,,,,,,,,,,orange,square
381.0,4.0,4.0,0.0,4.0,4.0,476.8132419999347,3.0,1.0,phase_1,,,,,,,,,,,,,gray,I
197.0,7.0,3.0,1.0,2.0,2.0,369.1648630001509,3.0,1.0,phase_1,,,,,,,,,,,,,white,hexagon
0.0,4.0,0.0,0.0,2.0,2.0,372.5095579998196,3.0,1.0,phase_1,,,,,,,,,,,,,gray,I
100.0,6.0,2.0,1.0,3.0,3.0,351.1991129998932,3.0,1.0,phase_1,,,,,,,,,,,,,green,diamond
395.0,8.0,4.0,1.0,1.0,1.0,375.4968200000803,3.0,1.0,phase_1,,,,,,,,,,,,,yellow,circle
38.0,1.0,1.0,0.0,1.0,1.0,455.762622000293,3.0,1.0,phase_1,,,,,,,,,,,,,orange,square
0.0,5.0,0.0,1.0,3.0,3.0,421.4349159997255,3.0,1.0,phase_1,,,,,,,,,,,,,cyan,flipped triangle
31.0,1.0,1.0,0.0,4.0,4.0,684.7634020000442,3.0,1.0,phase_1,,,,,,,,,,,,,orange,square
409.0,4.0,4.0,0.0,2.0,2.0,564.9519490002604,3.0,1.0,phase_1,,,,,,,,,,,,,gray,I
0.0,1.0,0.0,0.0,4.0,4.0,377.9795030000059,3.0,1.0,phase_1,,,,,,,,,,,,,orange,square
195.0,7.0,3.0,1.0,1.0,1.0,496.2689119997776,3.0,1.0,phase_1,,,,,,,,,,,,,white,hexagon
188.0,3.0,3.0,0.0,3.0,3.0,531.617169999663,3.0,1.0,phase_1,,,,,,,,,,,,,blue,cross
0.0,8.0,0.0,1.0,1.0,1.0,384.7010209997279,3.0,1.0,phase_1,,,,,,,,,,,,,yellow,circle
0.0,5.0,0.0,1.0,3.0,3.0,491.610787999889,3.0,1.0,phase_1,,,,,,,,,,,,,cyan,flipped triangle
378.0,8.0,4.0,1.0,3.0,3.0,609.2998879998959,3.0,1.0,phase_1,,,,,,,,,,,,,yellow,circle
74.0,5.0,1.0,1.0,1.0,1.0,340.2560060003452,3.0,1.0,phase_1,,,,,,,,,,,,,cyan,flipped triangle
99.0,6.0,2.0,1.0,1.0,1.0,563.1531359999826,3.0,1.0,phase_1,,,,,,,,,,,,,green,diamond
66.0,1.0,1.0,0.0,2.0,2.0,586.8999270001041,3.0,1.0,phase_1,,,,,,,,,,,,,orange,square
213.0,7.0,3.0,1.0,1.0,1.0,424.0062230001058,3.0,1.0,phase_1,,,,,,,,,,,,,white,hexagon
0.0,8.0,0.0,1.0,4.0,4.0,413.8169600000765,3.0,1.0,phase_1,,,,,,,,,,,,,yellow,circle
176.0,3.0,3.0,0.0,4.0,4.0,431.5471650002109,3.0,1.0,phase_1,,,,,,,,,,,,,blue,cross
79.0,2.0,2.0,0.0,3.0,3.0,446.1902650000411,3.0,2.0,phase_1,,,,,,,,,,,,,magenta,triangle
417.0,4.0,4.0,0.0,3.0,3.0,529.5284970002285,3.0,1.0,phase_1,,,,,,,,,,,,,gray,I
56.0,1.0,1.0,0.0,2.0,2.0,350.7208370001535,3.0,1.0,phase_1,,,,,,,,,,,,,orange,square
392.0,4.0,4.0,0.0,3.0,3.0,421.3680850002674,3.0,1.0,phase_1,,,,,,,,,,,,,gray,I
68.0,1.0,1.0,0.0,3.0,3.0,422.1162940002614,3.0,1.0,phase_1,,,,,,,,,,,,,orange,square
55.0,1.0,1.0,0.0,3.0,3.0,380.6876479998209,3.0,1.0,phase_1,,,,,,,,,,,,,orange,square
86.0,6.0,2.0,1.0,1.0,1.0,465.5416810001043,3.0,1.0,phase_1,,,,,,,,,,,,,green,diamond
392.0,8.0,4.0,1.0,1.0,1.0,709.4385370000964,3.0,1.0,phase_1,,,,,,,,,,,,,yellow,circle
123.0,2.0,2.0,0.0,4.0,4.0,478.5606970003755,3.0,1.0,phase_1,,,,,,,,,,,,,magenta,triangle
197.0,3.0,3.0,0.0,4.0,4.0,377.6320349998059,3.0,1.0,phase_1,,,,,,,,,,,,,blue,cross
396.0,4.0,4.0,0.0,2.0,2.0,401.1951489997045,3.0,1.0,phase_1,,,,,,,,,,,,,gray,I
122.0,2.0,2.0,0.0,3.0,3.0,479.2280329997993,3.0,1.0,phase_1,,,,,,,,,,,,,magenta,triangle
63.0,5.0,1.0,1.0,3.0,3.0,394.5877559999644,3.0,1.0,phase_1,,,,,,,,,,,,,cyan,flipped triangle
0.0,1.0,0.0,0.0,3.0,3.0,344.203749999906,3.0,1.0,phase_1,,,,,,,,,,,,,orange,square
92.0,6.0,2.0,1.0,3.0,3.0,627.6614690000315,3.0,1.0,phase_1,,,,,,,,,,,,,green,diamond
396.0,4.0,4.0,0.0,4.0,4.0,591.424927999924,3.0,1.0,phase_1,,,,,,,,,,,,,gray,I
109.0,2.0,2.0,0.0,2.0,2.0,360.406077999869,3.0,1.0,phase_1,,,,,,,,,,,,,magenta,triangle
179.0,7.0,3.0,1.0,3.0,3.0,423.23259900013,3.0,1.0,phase_1,,,,,,,,,,,,,white,hexagon
199.0,7.0,3.0,1.0,2.0,2.0,328.2137379997039,3.0,1.0,phase_1,,,,,,,,,,,,,white,hexagon
396.0,8.0,4.0,1.0,3.0,3.0,310.0734930003455,3.0,1.0,phase_1,,,,,,,,,,,,,yellow,circle
186.0,3.0,3.0,0.0,1.0,1.0,379.3189670000174,3.0,1.0,phase_1,,,,,,,,,,,,,blue,cross
0.0,8.0,0.0,1.0,1.0,1.0,343.6576180001793,3.0,1.0,phase_1,,,,,,,,,,,,,yellow,circle
93.0,6.0,2.0,1.0,4.0,4.0,409.7974460000841,3.0,1.0,phase_1,,,,,,,,,,,,,green,diamond
182.0,3.0,3.0,0.0,1.0,1.0,504.0094959999806,3.0,1.0,phase_1,,,,,,,,,,,,,blue,cross
0.0,2.0,0.0,0.0,4.0,4.0,384.3033729999661,3.0,1.0,phase_1,,,,,,,,,,,,,magenta,triangle
195.0,3.0,3.0,0.0,4.0,4.0,553.3438419997765,3.0,1.0,phase_1,,,,,,,,,,,,,blue,cross
210.0,7.0,3.0,1.0,1.0,1.0,384.299818999807,3.0,1.0,phase_1,,,,,,,,,,,,,white,hexagon
85.0,2.0,2.0,0.0,3.0,3.0,510.24388299993007,3.0,1.0,phase_1,,,,,,,,,,,,,magenta,triangle
218.0,3.0,3.0,0.0,3.0,3.0,782.9685019996759,3.0,1.0,phase_1,,,,,,,,,,,,,blue,cross
86.0,2.0,2.0,0.0,3.0,3.0,436.3985059999322,3.0,1.0,phase_1,,,,,,,,,,,,,magenta,triangle
60.0,1.0,1.0,0.0,3.0,3.0,345.0980420002452,3.0,1.0,phase_1,,,,,,,,,,,,,orange,square
0.0,8.0,0.0,1.0,3.0,3.0,342.9834769999615,3.0,1.0,phase_1,,,,,,,,,,,,,yellow,circle
114.0,2.0,2.0,0.0,4.0,4.0,452.9754889999822,3.0,1.0,phase_1,,,,,,,,,,,,,magenta,triangle
223.0,3.0,3.0,0.0,1.0,1.0,469.1706190001241,3.0,1.0,phase_1,,,,,,,,,,,,,blue,cross
395.0,4.0,4.0,0.0,2.0,2.0,369.7095190000254,3.0,1.0,phase_1,,,,,,,,,,,,,gray,I
0.0,7.0,0.0,1.0,2.0,2.0,340.9355790004156,3.0,1.0,phase_1,,,,,,,,,,,,,white,hexagon
0.0,1.0,0.0,0.0,4.0,4.0,365.3375769999911,3.0,1.0,phase_1,,,,,,,,,,,,,orange,square
189.0,7.0,3.0,1.0,3.0,3.0,419.8934880000706,3.0,1.0,phase_1,,,,,,,,,,,,,white,hexagon
414.0,4.0,4.0,0.0,3.0,3.0,410.4098950001571,3.0,1.0,phase_1,,,,,,,,,,,,,gray,I
215.0,7.0,3.0,1.0,1.0,1.0,661.3284569998541,3.0,1.0,phase_1,,,,,,,,,,,,,white,hexagon
210.0,3.0,3.0,0.0,2.0,2.0,777.9057610000564,3.0,1.0,phase_1,,,,,,,,,,,,,blue,cross
194.0,3.0,3.0,0.0,3.0,3.0,448.3051209999757,3.0,1.0,phase_1,,,,,,,,,,,,,blue,cross
0.0,5.0,0.0,1.0,4.0,4.0,620.3910499998528,3.0,1.0,phase_1,,,,,,,,,,,,,cyan,flipped triangle
0.0,1.0,0.0,0.0,4.0,4.0,602.4820080001518,3.0,1.0,phase_1,,,,,,,,,,,,,orange,square
186.0,3.0,3.0,0.0,4.0,4.0,384.5308239997393,3.0,1.0,phase_1,,,,,,,,,,,,,blue,cross
103.0,6.0,2.0,1.0,4.0,4.0,385.1099160001467,3.0,1.0,phase_1,,,,,,,,,,,,,green,diamond
39.0,1.0,1.0,0.0,4.0,4.0,267.0498770003178,3.0,1.0,phase_1,,,,,,,,,,,,,orange,square
49.0,5.0,1.0,1.0,4.0,4.0,345.582110000123,3.0,1.0,phase_1,,,,,,,,,,,,,cyan,flipped triangle
29.0,5.0,1.0,1.0,3.0,3.0,376.4906559999872,3.0,1.0,phase_1,,,,,,,,,,,,,cyan,flipped triangle
75.0,2.0,2.0,0.0,3.0,3.0,486.5223030001289,3.0,1.0,phase_1,,,,,,,,,,,,,magenta,triangle
177.0,3.0,3.0,0.0,2.0,2.0,325.007868999819,3.0,1.0,phase_1,,,,,,,,,,,,,blue,cross
406.0,8.0,4.0,1.0,1.0,1.0,345.4030059997421,3.0,1.0,phase_1,,,,,,,,,,,,,yellow,circle
416.0,8.0,4.0,1.0,2.0,2.0,339.4883130004018,3.0,1.0,phase_1,,,,,,,,,,,,,yellow,circle
416.0,8.0,4.0,1.0,1.0,1.0,377.5832270002865,3.0,1.0,phase_1,,,,,,,,,,,,,yellow,circle
124.0,6.0,2.0,1.0,3.0,3.0,463.3133380002618,3.0,1.0,phase_1,,,,,,,,,,,,,green,diamond
213.0,3.0,3.0,0.0,4.0,4.0,295.9037109999372,3.0,1.0,phase_1,,,,,,,,,,,,,blue,cross
123.0,6.0,2.0,1.0,2.0,2.0,402.4223530000199,3.0,1.0,phase_1,,,,,,,,,,,,,green,diamond
190.0,7.0,3.0,1.0,4.0,4.0,467.6840870001797,4.0,1.0,phase_1,,,,,,,,,,,,,white,hexagon
390.0,8.0,4.0,1.0,2.0,2.0,369.6030230003089,4.0,1.0,phase_1,,,,,,,,,,,,,yellow,circle
0.0,3.0,0.0,0.0,1.0,1.0,334.0719559996614,4.0,2.0,phase_1,,,,,,,,,,,,,blue,cross
0.0,6.0,0.0,1.0,1.0,1.0,309.2082809998828,4.0,1.0,phase_1,,,,,,,,,,,,,green,diamond
125.0,6.0,2.0,1.0,3.0,3.0,316.8336880003153,4.0,1.0,phase_1,,,,,,,,,,,,,green,diamond
111.0,2.0,2.0,0.0,2.0,2.0,304.7344029996566,4.0,1.0,phase_1,,,,,,,,,,,,,magenta,triangle
0.0,6.0,0.0,1.0,1.0,1.0,420.0049470000522,4.0,1.0,phase_1,,,,,,,,,,,,,green,diamond
412.0,8.0,4.0,1.0,1.0,1.0,296.5401790002033,4.0,1.0,phase_1,,,,,,,,,,,,,yellow,circle
0.0,4.0,0.0,0.0,2.0,2.0,335.4697310001029,4.0,1.0,phase_1,,,,,,,,,,,,,gray,I
100.0,2.0,2.0,0.0,4.0,4.0,362.2285950000332,4.0,1.0,phase_1,,,,,,,,,,,,,magenta,triangle
193.0,7.0,3.0,1.0,3.0,3.0,348.0653260003237,4.0,1.0,phase_1,,,,,,,,,,,,,white,hexagon
217.0,3.0,3.0,0.0,1.0,1.0,369.651409999733,4.0,1.0,phase_1,,,,,,,,,,,,,blue,cross
43.0,5.0,1.0,1.0,3.0,3.0,341.4955819998795,4.0,1.0,phase_1,,,,,,,,,,,,,cyan,flipped triangle
87.0,6.0,2.0,1.0,4.0,4.0,319.9918829996022,4.0,1.0,phase_1,,,,,,,,,,,,,green,diamond
186.0,7.0,3.0,1.0,3.0,3.0,367.8804339997441,4.0,1.0,phase_1,,,,,,,,,,,,,white,hexagon
124.0,6.0,2.0,1.0,3.0,3.0,414.1010470002584,4.0,1.0,phase_1,,,,,,,,,,,,,green,diamond
186.0,3.0,3.0,0.0,2.0,2.0,477.1531189999223,4.0,1.0,phase_1,,,,,,,,,,,,,blue,cross
0.0,7.0,0.0,1.0,1.0,1.0,667.1688829997038,4.0,1.0,phase_1,,,,,,,,,,,,,white,hexagon
30.0,1.0,1.0,0.0,1.0,1.0,342.2636249997595,4.0,1.0,phase_1,,,,,,,,,,,,,orange,square
62.0,1.0,1.0,0.0,2.0,2.0,325.888470999871,4.0,1.0,phase_1,,,,,,,,,,,,,orange,square
79.0,2.0,2.0,0.0,1.0,1.0,364.8187389999293,4.0,1.0,phase_1,,,,,,,,,,,,,magenta,triangle
405.0,8.0,4.0,1.0,2.0,2.0,318.4173390000069,4.0,1.0,phase_1,,,,,,,,,,,,,yellow,circle
0.0,6.0,0.0,1.0,3.0,3.0,356.0007360001691,4.0,1.0,phase_1,,,,,,,,,,,,,green,diamond
0.0,7.0,0.0,1.0,1.0,1.0,331.6818909997892,4.0,1.0,phase_1,,,,,,,,,,,,,white,hexagon
0.0,2.0,0.0,0.0,3.0,3.0,405.5477619999692,4.0,1.0,phase_1,,,,,,,,,,,,,magenta,triangle
31.0,5.0,1.0,1.0,1.0,1.0,306.2014600000111,4.0,1.0,phase_1,,,,,,,,,,,,,cyan,flipped triangle
0.0,2.0,0.0,0.0,4.0,4.0,353.3809390000897,4.0,1.0,phase_1,,,,,,,,,,,,,magenta,triangle
94.0,2.0,2.0,0.0,4.0,4.0,349.0355550002277,4.0,1.0,phase_1,,,,,,,,,,,,,magenta,triangle
79.0,6.0,2.0,1.0,4.0,4.0,281.5967940000519,4.0,1.0,phase_1,,,,,,,,,,,,,green,diamond
92.0,2.0,2.0,0.0,2.0,2.0,368.4336259998417,4.0,1.0,phase_1,,,,,,,,,,,,,magenta,triangle
84.0,2.0,2.0,0.0,1.0,1.0,465.143012000226,4.0,1.0,phase_1,,,,,,,,,,,,,magenta,triangle
80.0,6.0,2.0,1.0,1.0,1.0,484.1353720003098,4.0,1.0,phase_1,,,,,,,,,,,,,green,diamond
0.0,4.0,0.0,0.0,4.0,4.0,326.7689399999653,4.0,1.0,phase_1,,,,,,,,,,,,,gray,I
62.0,5.0,1.0,1.0,4.0,4.0,378.3656330001577,4.0,1.0,phase_1,,,,,,,,,,,,,cyan,flipped triangle
0.0,2.0,0.0,0.0,3.0,3.0,369.8493020001479,4.0,1.0,phase_1,,,,,,,,,,,,,magenta,triangle
0.0,3.0,0.0,0.0,1.0,1.0,398.5561550002785,4.0,1.0,phase_1,,,,,,,,,,,,,blue,cross
422.0,4.0,4.0,0.0,4.0,4.0,403.4152559997892,4.0,1.0,phase_1,,,,,,,,,,,,,gray,I
190.0,3.0,3.0,0.0,1.0,1.0,333.2101670002885,4.0,1.0,phase_1,,,,,,,,,,,,,blue,cross
116.0,6.0,2.0,1.0,4.0,4.0,365.3482750000876,4.0,1.0,phase_1,,,,,,,,,,,,,green,diamond
380.0,4.0,4.0,0.0,3.0,3.0,745.948105000025,4.0,1.0,phase_1,,,,,,,,,,,,,gray,I
220.0,7.0,3.0,1.0,4.0,4.0,494.1662979999819,4.0,1.0,phase_1,,,,,,,,,,,,,white,hexagon
55.0,1.0,1.0,0.0,1.0,1.0,371.6195110000626,4.0,1.0,phase_1,,,,,,,,,,,,,orange,square
208.0,7.0,3.0,1.0,2.0,2.0,400.4621590001989,4.0,1.0,phase_1,,,,,,,,,,,,,white,hexagon
177.0,7.0,3.0,1.0,1.0,1.0,393.119501000001,4.0,1.0,phase_1,,,,,,,,,,,,,white,hexagon
215.0,7.0,3.0,1.0,2.0,2.0,395.1573839999582,4.0,1.0,phase_1,,,,,,,,,,,,,white,hexagon
91.0,2.0,2.0,0.0,1.0,1.0,348.2731250001052,4.0,1.0,phase_1,,,,,,,,,,,,,magenta,triangle
0.0,3.0,0.0,0.0,2.0,2.0,298.6967090000689,4.0,1.0,phase_1,,,,,,,,,,,,,blue,cross
396.0,4.0,4.0,0.0,4.0,4.0,491.0558470000978,4.0,1.0,phase_1,,,,,,,,,,,,,gray,I
215.0,3.0,3.0,0.0,3.0,3.0,500.8331039998666,4.0,1.0,phase_1,,,,,,,,,,,,,blue,cross
0.0,6.0,0.0,1.0,3.0,3.0,378.6820939999415,4.0,1.0,phase_1,,,,,,,,,,,,,green,diamond
416.0,4.0,4.0,0.0,4.0,4.0,384.0884279998136,4.0,1.0,phase_1,,,,,,,,,,,,,gray,I
100.0,2.0,2.0,0.0,2.0,2.0,331.5231159999712,4.0,1.0,phase_1,,,,,,,,,,,,,magenta,triangle
196.0,3.0,3.0,0.0,2.0,2.0,588.0847649996213,4.0,1.0,phase_1,,,,,,,,,,,,,blue,cross
209.0,3.0,3.0,0.0,2.0,2.0,553.5094150000077,4.0,1.0,phase_1,,,,,,,,,,,,,blue,cross
179.0,3.0,3.0,0.0,3.0,3.0,632.1294559998023,4.0,1.0,phase_1,,,,,,,,,,,,,blue,cross
414.0,8.0,4.0,1.0,2.0,2.0,381.9109940000089,4.0,1.0,phase_1,,,,,,,,,,,,,yellow,circle
0.0,7.0,0.0,1.0,3.0,3.0,350.8152619997418,4.0,1.0,phase_1,,,,,,,,,,,,,white,hexagon
36.0,1.0,1.0,0.0,1.0,1.0,345.5978400002095,4.0,1.0,phase_1,,,,,,,,,,,,,orange,square
0.0,3.0,0.0,0.0,3.0,3.0,410.9389730001567,4.0,1.0,phase_1,,,,,,,,,,,,,blue,cross
67.0,5.0,1.0,1.0,2.0,2.0,352.4440170003799,4.0,1.0,phase_1,,,,,,,,,,,,,cyan,flipped triangle
403.0,4.0,4.0,0.0,4.0,4.0,347.8780839996034,4.0,1.0,phase_1,,,,,,,,,,,,,gray,I
194.0,7.0,3.0,1.0,4.0,4.0,464.2458459998124,4.0,1.0,phase_1,,,,,,,,,,,,,white,hexagon
108.0,2.0,2.0,0.0,2.0,2.0,288.4447389997149,4.0,1.0,phase_1,,,,,,,,,,,,,magenta,triangle
403.0,8.0,4.0,1.0,3.0,3.0,350.7027220002783,4.0,1.0,phase_1,,,,,,,,,,,,,yellow,circle
73.0,5.0,1.0,1.0,1.0,1.0,431.936917999792,4.0,1.0,phase_1,,,,,,,,,,,,,cyan,flipped triangle
212.0,3.0,3.0,0.0,1.0,1.0,432.5584120001622,4.0,1.0,phase_1,,,,,,,,,,,,,blue,cross
123.0,2.0,2.0,0.0,4.0,4.0,474.1132419999303,4.0,1.0,phase_1,,,,,,,,,,,,,magenta,triangle
388.0,4.0,4.0,0.0,2.0,2.0,440.049005000219,4.0,1.0,phase_1,,,,,,,,,,,,,gray,I
0.0,6.0,0.0,1.0,3.0,3.0,419.9788300002183,4.0,1.0,phase_1,,,,,,,,,,,,,green,diamond
0.0,4.0,0.0,0.0,3.0,3.0,426.9764999999097,4.0,1.0,phase_1,,,,,,,,,,,,,gray,I
45.0,1.0,1.0,0.0,4.0,4.0,379.3665230000442,4.0,1.0,phase_1,,,,,,,,,,,,,orange,square
393.0,8.0,4.0,1.0,3.0,3.0,355.9628490002069,4.0,1.0,phase_1,,,,,,,,,,,,,yellow,circle
189.0,3.0,3.0,0.0,2.0,2.0,314.6285560001161,4.0,1.0,phase_1,,,,,,,,,,,,,blue,cross
218.0,7.0,3.0,1.0,1.0,1.0,412.2216450000451,4.0,1.0,phase_1,,,,,,,,,,,,,white,hexagon
208.0,3.0,3.0,0.0,4.0,4.0,374.9896700001045,4.0,1.0,phase_1,,,,,,,,,,,,,blue,cross
47.0,5.0,1.0,1.0,2.0,2.0,326.82524799975,4.0,1.0,phase_1,,,,,,,,,,,,,cyan,flipped triangle
86.0,2.0,2.0,0.0,3.0,3.0,573.6758200000622,4.0,1.0,phase_1,,,,,,,,,,,,,magenta,triangle
85.0,6.0,2.0,1.0,2.0,2.0,508.1937650002146,4.0,1.0,phase_1,,,,,,,,,,,,,green,diamond
194.0,3.0,3.0,0.0,1.0,1.0,409.9704599998404,4.0,1.0,phase_1,,,,,,,,,,,,,blue,cross
0.0,6.0,0.0,1.0,1.0,1.0,484.6085040003345,4.0,1.0,phase_1,,,,,,,,,,,,,green,diamond
101.0,2.0,2.0,0.0,1.0,1.0,353.0390089999855,4.0,1.0,phase_1,,,,,,,,,,,,,magenta,triangle
39.0,5.0,1.0,1.0,4.0,4.0,380.3871069999331,4.0,1.0,phase_1,,,,,,,,,,,,,cyan,flipped triangle
40.0,1.0,1.0,0.0,4.0,4.0,456.4238189996104,4.0,1.0,phase_1,,,,,,,,,,,,,orange,square
0.0,4.0,0.0,0.0,3.0,3.0,542.5680690000263,4.0,1.0,phase_1,,,,,,,,,,,,,gray,I
55.0,5.0,1.0,1.0,1.0,1.0,464.6455629999764,4.0,1.0,phase_1,,,,,,,,,,,,,cyan,flipped triangle
40.0,5.0,1.0,1.0,1.0,1.0,496.3093339997613,4.0,1.0,phase_1,,,,,,,,,,,,,cyan,flipped triangle
79.0,6.0,2.0,1.0,4.0,4.0,576.0167120001825,4.0,1.0,phase_1,,,,,,,,,,,,,green,diamond
112.0,2.0,2.0,0.0,3.0,3.0,422.2463039996,4.0,1.0,phase_1,,,,,,,,,,,,,magenta,triangle
0.0,7.0,0.0,1.0,3.0,3.0,331.8118780002805,4.0,1.0,phase_1,,,,,,,,,,,,,white,hexagon
35.0,1.0,1.0,0.0,3.0,3.0,360.7709100001557,4.0,1.0,phase_1,,,,,,,,,,,,,orange,square
0.0,8.0,0.0,1.0,4.0,4.0,422.3292889996628,4.0,1.0,phase_1,,,,,,,,,,,,,yellow,circle
101.0,2.0,2.0,0.0,2.0,2.0,401.9701049996911,4.0,1.0,phase_1,,,,,,,,,,,,,magenta,triangle
0.0,3.0,0.0,0.0,2.0,2.0,347.6638619999903,4.0,1.0,phase_1,,,,,,,,,,,,,blue,cross
0.0,6.0,0.0,1.0,4.0,4.0,414.6415749996777,4.0,1.0,phase_1,,,,,,,,,,,,,green,diamond
207.0,3.0,3.0,0.0,1.0,1.0,918.2150740002726,4.0,1.0,phase_1,,,,,,,,,,,,,blue,cross
380.0,8.0,4.0,1.0,4.0,4.0,384.0618449999056,4.0,1.0,phase_1,,,,,,,,,,,,,yellow,circle
415.0,8.0,4.0,1.0,3.0,3.0,388.7986640002054,4.0,1.0,phase_1,,,,,,,,,,,,,yellow,circle
99.0,2.0,2.0,0.0,2.0,2.0,362.7411019997453,4.0,1.0,phase_1,,,,,,,,,,,,,magenta,triangle
124.0,2.0,2.0,0.0,4.0,4.0,772.1788529997866,4.0,1.0,phase_1,,,,,,,,,,,,,magenta,triangle
406.0,4.0,4.0,0.0,1.0,1.0,378.164575000028,4.0,1.0,phase_1,,,,,,,,,,,,,gray,I
0.0,5.0,1.0,1.0,6.0,6.0,426.1960399999225,1.0,1.0,phase_2,stop,250.0,250.0,3.0,,,,,,,,,cyan,flipped triangle
0.0,5.0,1.0,1.0,5.0,5.0,344.2278039997291,1.0,1.0,phase_2,stop,250.0,200.0,3.0,,,,,,,,,cyan,flipped triangle
0.0,1.0,1.0,0.0,6.0,6.0,403.3442059999288,1.0,1.0,phase_2,go,200.0,200.0,1.0,,,,,,,,,orange,square
0.0,2.0,2.0,0.0,5.0,5.0,469.0748420002819,1.0,1.0,phase_2,go,200.0,200.0,1.0,,,,,,,,,magenta,triangle
0.0,2.0,2.0,0.0,5.0,5.0,469.5510550000108,1.0,1.0,phase_2,go,200.0,200.0,1.0,,,,,,,,,magenta,triangle
0.0,5.0,1.0,1.0,6.0,0.0,0.0,1.0,1.0,phase_2,stop,200.0,200.0,4.0,,,,,,,,,cyan,flipped triangle
0.0,4.0,4.0,0.0,6.0,6.0,574.6422189999976,1.0,1.0,phase_2,go,200.0,250.0,1.0,,,,,,,,,gray,I
0.0,2.0,2.0,0.0,6.0,6.0,473.0927989999145,1.0,1.0,phase_2,go,200.0,250.0,1.0,,,,,,,,,magenta,triangle
0.0,5.0,1.0,1.0,6.0,0.0,0.0,1.0,1.0,phase_2,stop,200.0,250.0,4.0,,,,,,,,,cyan,flipped triangle
0.0,6.0,2.0,1.0,5.0,5.0,335.865388000002,1.0,1.0,phase_2,go,200.0,300.0,1.0,,,,,,,,,green,diamond
0.0,7.0,3.0,1.0,5.0,5.0,732.6936539998314,1.0,1.0,phase_2,go,200.0,300.0,1.0,,,,,,,,,white,hexagon
0.0,6.0,2.0,1.0,6.0,0.0,0.0,1.0,1.0,phase_2,stop,200.0,300.0,4.0,,,,,,,,,green,diamond
0.0,2.0,2.0,0.0,5.0,5.0,349.3595139998433,1.0,1.0,phase_2,go,200.0,350.0,1.0,,,,,,,,,magenta,triangle
0.0,4.0,4.0,0.0,5.0,5.0,724.3184399999336,1.0,1.0,phase_2,go,200.0,350.0,1.0,,,,,,,,,gray,I
0.0,1.0,1.0,0.0,5.0,5.0,922.8862159998245,1.0,1.0,phase_2,go,200.0,350.0,1.0,,,,,,,,,orange,square
0.0,7.0,3.0,1.0,6.0,0.0,0.0,1.0,1.0,phase_2,stop,200.0,350.0,4.0,,,,,,,,,white,hexagon
0.0,8.0,4.0,1.0,6.0,6.0,591.2290999999641,1.0,1.0,phase_2,stop,200.0,400.0,3.0,,,,,,,,,yellow,circle
0.0,4.0,4.0,0.0,5.0,5.0,783.5208900000907,1.0,1.0,phase_2,go,200.0,350.0,1.0,,,,,,,,,gray,I
0.0,4.0,4.0,0.0,6.0,6.0,854.8543720003181,1.0,1.0,phase_2,go,200.0,350.0,1.0,,,,,,,,,gray,I
0.0,4.0,4.0,0.0,6.0,6.0,568.6016029999337,1.0,1.0,phase_2,go,200.0,350.0,1.0,,,,,,,,,gray,I
0.0,8.0,4.0,1.0,6.0,6.0,605.4060749997916,1.0,1.0,phase_2,go,200.0,350.0,1.0,,,,,,,,,yellow,circle
0.0,3.0,3.0,0.0,5.0,5.0,663.2746470004349,1.0,1.0,phase_2,go,200.0,350.0,1.0,,,,,,,,,blue,cross
0.0,1.0,1.0,0.0,6.0,6.0,603.4565009999824,1.0,1.0,phase_2,go,200.0,350.0,1.0,,,,,,,,,orange,square
0.0,8.0,4.0,1.0,5.0,0.0,0.0,1.0,1.0,phase_2,stop,200.0,350.0,4.0,,,,,,,,,yellow,circle
0.0,6.0,2.0,1.0,6.0,6.0,467.0920120001938,1.0,1.0,phase_2,go,250.0,350.0,1.0,,,,,,,,,green,diamond
0.0,4.0,4.0,0.0,5.0,5.0,770.1212499996473,1.0,1.0,phase_2,go,250.0,350.0,1.0,,,,,,,,,gray,I
0.0,5.0,1.0,1.0,6.0,0.0,0.0,1.0,1.0,phase_2,stop,250.0,350.0,4.0,,,,,,,,,cyan,flipped triangle
0.0,6.0,2.0,1.0,5.0,0.0,0.0,1.0,1.0,phase_2,stop,250.0,400.0,4.0,,,,,,,,,green,diamond
0.0,3.0,3.0,0.0,6.0,6.0,669.7487890000957,1.0,1.0,phase_2,go,300.0,400.0,1.0,,,,,,,,,blue,cross
0.0,4.0,4.0,0.0,6.0,6.0,622.1615979998205,1.0,1.0,phase_2,go,300.0,400.0,1.0,,,,,,,,,gray,I
0.0,2.0,2.0,0.0,5.0,5.0,902.9696490001696,1.0,1.0,phase_2,go,300.0,400.0,1.0,,,,,,,,,magenta,triangle
0.0,8.0,4.0,1.0,6.0,0.0,0.0,1.0,1.0,phase_2,stop,300.0,400.0,4.0,,,,,,,,,yellow,circle
0.0,8.0,4.0,1.0,6.0,6.0,411.2996139997449,1.0,1.0,phase_2,stop,300.0,450.0,3.0,,,,,,,,,yellow,circle
0.0,8.0,4.0,1.0,6.0,6.0,788.5945729999548,1.0,1.0,phase_2,go,300.0,400.0,1.0,,,,,,,,,yellow,circle
0.0,5.0,1.0,1.0,5.0,0.0,0.0,1.0,1.0,phase_2,stop,300.0,400.0,4.0,,,,,,,,,cyan,flipped triangle
0.0,3.0,3.0,0.0,6.0,6.0,598.2952280000973,1.0,1.0,phase_2,go,350.0,400.0,1.0,,,,,,,,,blue,cross
0.0,5.0,1.0,1.0,5.0,0.0,0.0,2.0,1.0,phase_2,stop,350.0,400.0,4.0,,,,,,,,,cyan,flipped triangle
0.0,8.0,4.0,1.0,5.0,0.0,0.0,2.0,1.0,phase_2,stop,400.0,400.0,4.0,,,,,,,,,yellow,circle
0.0,5.0,1.0,1.0,6.0,6.0,336.7503540002872,2.0,1.0,phase_2,stop,450.0,400.0,3.0,,,,,,,,,cyan,flipped triangle
0.0,1.0,1.0,0.0,6.0,6.0,569.6083060001911,2.0,1.0,phase_2,go,450.0,350.0,1.0,,,,,,,,,orange,square
0.0,1.0,1.0,0.0,6.0,6.0,529.8507570000766,2.0,1.0,phase_2,go,450.0,350.0,1.0,,,,,,,,,orange,square
0.0,7.0,3.0,1.0,5.0,5.0,420.2250420003111,2.0,1.0,phase_2,stop,450.0,350.0,3.0,,,,,,,,,white,hexagon
0.0,1.0,1.0,0.0,5.0,5.0,746.3376430000608,2.0,1.0,phase_2,go,400.0,350.0,1.0,,,,,,,,,orange,square
0.0,2.0,2.0,0.0,5.0,5.0,819.7622100001354,2.0,1.0,phase_2,go,400.0,350.0,1.0,,,,,,,,,magenta,triangle
0.0,7.0,3.0,1.0,5.0,0.0,0.0,2.0,1.0,phase_2,stop,400.0,350.0,4.0,,,,,,,,,white,hexagon
0.0,3.0,3.0,0.0,5.0,5.0,744.1247110000404,2.0,1.0,phase_2,go,450.0,350.0,1.0,,,,,,,,,blue,cross
0.0,6.0,2.0,1.0,6.0,6.0,641.9179120002809,2.0,1.0,phase_2,go,450.0,350.0,1.0,,,,,,,,,green,diamond
0.0,2.0,2.0,0.0,5.0,5.0,604.4707179999023,2.0,1.0,phase_2,go,450.0,350.0,1.0,,,,,,,,,magenta,triangle
0.0,7.0,3.0,1.0,6.0,0.0,0.0,2.0,1.0,phase_2,stop,450.0,350.0,4.0,,,,,,,,,white,hexagon
0.0,2.0,2.0,0.0,5.0,5.0,933.4790480002084,2.0,1.0,phase_2,go,450.0,400.0,1.0,,,,,,,,,magenta,triangle
0.0,4.0,4.0,0.0,5.0,5.0,772.8591670002061,2.0,1.0,phase_2,go,450.0,400.0,1.0,,,,,,,,,gray,I
0.0,1.0,1.0,0.0,5.0,5.0,1125.103991999822,2.0,1.0,phase_2,go,450.0,400.0,1.0,,,,,,,,,orange,square
0.0,6.0,2.0,1.0,6.0,0.0,0.0,2.0,1.0,phase_2,stop,450.0,400.0,4.0,,,,,,,,,green,diamond
0.0,8.0,4.0,1.0,5.0,0.0,0.0,2.0,1.0,phase_2,stop,450.0,450.0,4.0,,,,,,,,,yellow,circle
0.0,3.0,3.0,0.0,5.0,5.0,715.2690249999978,2.0,1.0,phase_2,go,500.0,450.0,1.0,,,,,,,,,blue,cross
0.0,2.0,2.0,0.0,5.0,5.0,764.2553779996888,2.0,1.0,phase_2,go,500.0,450.0,1.0,,,,,,,,,magenta,triangle
0.0,1.0,1.0,0.0,5.0,5.0,1223.1382840000151,2.0,1.0,phase_2,go,500.0,450.0,1.0,,,,,,,,,orange,square
0.0,4.0,4.0,0.0,5.0,5.0,1022.5448209998831,2.0,1.0,phase_2,go,500.0,450.0,1.0,,,,,,,,,gray,I
0.0,2.0,2.0,0.0,5.0,5.0,766.5807299999869,2.0,1.0,phase_2,go,500.0,450.0,1.0,,,,,,,,,magenta,triangle
0.0,4.0,4.0,0.0,6.0,6.0,496.1423750000904,2.0,1.0,phase_2,go,500.0,450.0,1.0,,,,,,,,,gray,I
0.0,3.0,3.0,0.0,6.0,6.0,777.8047669999069,2.0,1.0,phase_2,go,500.0,450.0,1.0,,,,,,,,,blue,cross
0.0,6.0,2.0,1.0,5.0,0.0,0.0,2.0,1.0,phase_2,stop,500.0,450.0,4.0,,,,,,,,,green,diamond
0.0,8.0,4.0,1.0,6.0,6.0,1042.9447830001664,2.0,1.0,phase_2,go,550.0,450.0,1.0,,,,,,,,,yellow,circle
0.0,3.0,3.0,0.0,5.0,5.0,1001.8303340002603,2.0,1.0,phase_2,go,550.0,450.0,1.0,,,,,,,,,blue,cross
0.0,8.0,4.0,1.0,5.0,0.0,0.0,2.0,1.0,phase_2,stop,550.0,450.0,4.0,,,,,,,,,yellow,circle
0.0,5.0,1.0,1.0,5.0,5.0,746.2405729997954,2.0,1.0,phase_2,go,600.0,450.0,1.0,,,,,,,,,cyan,flipped triangle
0.0,2.0,2.0,0.0,5.0,5.0,760.8765570003015,2.0,1.0,phase_2,go,600.0,450.0,1.0,,,,,,,,,magenta,triangle
0.0,7.0,3.0,1.0,5.0,5.0,403.9815760002057,2.0,1.0,phase_2,stop,600.0,450.0,3.0,,,,,,,,,white,hexagon
0.0,2.0,2.0,0.0,6.0,6.0,810.7584270001098,2.0,1.0,phase_2,go,550.0,450.0,1.0,,,,,,,,,magenta,triangle
0.0,3.0,3.0,0.0,5.0,5.0,1039.3697750000683,2.0,1.0,phase_2,go,550.0,450.0,1.0,,,,,,,,,blue,cross
0.0,1.0,1.0,0.0,6.0,6.0,898.9167479999196,2.0,1.0,phase_2,go,550.0,450.0,1.0,,,,,,,,,orange,square
0.0,1.0,1.0,0.0,6.0,6.0,856.5740720000576,2.0,1.0,phase_2,go,550.0,450.0,1.0,,,,,,,,,orange,square
0.0,6.0,2.0,1.0,6.0,6.0,419.6485360002953,3.0,1.0,phase_2,stop,550.0,450.0,3.0,,,,,,,,,green,diamond
0.0,4.0,4.0,0.0,6.0,6.0,433.7412630002291,3.0,1.0,phase_2,go,550.0,400.0,1.0,,,,,,,,,gray,I
0.0,8.0,4.0,1.0,5.0,5.0,295.7089779997659,3.0,1.0,phase_2,go,550.0,400.0,1.0,,,,,,,,,yellow,circle
0.0,4.0,4.0,0.0,6.0,6.0,293.8613040000746,3.0,1.0,phase_2,go,550.0,400.0,1.0,,,,,,,,,gray,I
0.0,6.0,2.0,1.0,6.0,6.0,297.4840740002946,3.0,1.0,phase_2,go,550.0,400.0,1.0,,,,,,,,,green,diamond
0.0,6.0,2.0,1.0,5.0,5.0,597.7531030002865,3.0,1.0,phase_2,stop,550.0,400.0,3.0,,,,,,,,,green,diamond
0.0,5.0,1.0,1.0,5.0,5.0,712.5681140000779,3.0,1.0,phase_2,go,500.0,400.0,1.0,,,,,,,,,cyan,flipped triangle
0.0,2.0,2.0,0.0,6.0,6.0,309.7942469998997,3.0,1.0,phase_2,go,500.0,400.0,1.0,,,,,,,,,magenta,triangle
0.0,2.0,2.0,0.0,6.0,6.0,372.4651210000047,3.0,1.0,phase_2,go,500.0,400.0,1.0,,,,,,,,,magenta,triangle
0.0,2.0,2.0,0.0,6.0,6.0,533.4612460001154,3.0,1.0,phase_2,go,500.0,400.0,1.0,,,,,,,,,magenta,triangle
0.0,7.0,3.0,1.0,5.0,5.0,443.5810030004177,3.0,1.0,phase_2,stop,500.0,400.0,3.0,,,,,,,,,white,hexagon
0.0,5.0,1.0,1.0,6.0,6.0,469.1793480001252,3.0,1.0,phase_2,stop,450.0,400.0,3.0,,,,,,,,,cyan,flipped triangle
0.0,7.0,3.0,1.0,6.0,0.0,0.0,3.0,1.0,phase_2,stop,450.0,350.0,4.0,,,,,,,,,white,hexagon
0.0,3.0,3.0,0.0,5.0,5.0,353.5086429997136,3.0,1.0,phase_2,go,450.0,400.0,1.0,,,,,,,,,blue,cross
0.0,3.0,3.0,0.0,6.0,6.0,750.8974040001704,3.0,1.0,phase_2,go,450.0,400.0,1.0,,,,,,,,,blue,cross
0.0,6.0,2.0,1.0,6.0,6.0,337.4893629998041,3.0,1.0,phase_2,stop,450.0,400.0,3.0,,,,,,,,,green,diamond
0.0,7.0,3.0,1.0,5.0,5.0,673.9118680002321,3.0,1.0,phase_2,stop,450.0,350.0,3.0,,,,,,,,,white,hexagon
0.0,6.0,2.0,1.0,6.0,6.0,613.759600999856,3.0,1.0,phase_2,go,400.0,350.0,1.0,,,,,,,,,green,diamond
0.0,7.0,3.0,1.0,5.0,5.0,430.7069319997936,3.0,1.0,phase_2,stop,400.0,350.0,3.0,,,,,,,,,white,hexagon
0.0,4.0,4.0,0.0,6.0,6.0,711.7486440001812,3.0,1.0,phase_2,go,350.0,350.0,1.0,,,,,,,,,gray,I
0.0,5.0,1.0,1.0,6.0,0.0,0.0,3.0,1.0,phase_2,stop,350.0,350.0,4.0,,,,,,,,,cyan,flipped triangle
0.0,5.0,1.0,1.0,5.0,5.0,514.9743629999648,3.0,1.0,phase_2,stop,350.0,400.0,3.0,,,,,,,,,cyan,flipped triangle
0.0,1.0,1.0,0.0,6.0,6.0,806.9148339995991,3.0,1.0,phase_2,go,300.0,400.0,1.0,,,,,,,,,orange,square
0.0,6.0,2.0,1.0,5.0,5.0,388.0254149999018,3.0,1.0,phase_2,stop,300.0,400.0,3.0,,,,,,,,,green,diamond
0.0,3.0,3.0,0.0,6.0,6.0,605.312509000214,3.0,1.0,phase_2,go,250.0,400.0,1.0,,,,,,,,,blue,cross
0.0,1.0,1.0,0.0,6.0,6.0,510.98152900021887,3.0,1.0,phase_2,go,250.0,400.0,1.0,,,,,,,,,orange,square
0.0,6.0,2.0,1.0,6.0,6.0,503.4185740000794,3.0,1.0,phase_2,stop,250.0,400.0,3.0,,,,,,,,,green,diamond
0.0,6.0,2.0,1.0,5.0,0.0,0.0,3.0,1.0,phase_2,stop,250.0,350.0,4.0,,,,,,,,,green,diamond
0.0,3.0,3.0,0.0,5.0,5.0,631.8362629999683,3.0,1.0,phase_2,go,300.0,350.0,1.0,,,,,,,,,blue,cross
0.0,8.0,4.0,1.0,6.0,6.0,305.3320700000768,3.0,1.0,phase_2,stop,300.0,350.0,3.0,,,,,,,,,yellow,circle
0.0,2.0,2.0,0.0,5.0,5.0,572.1316459998889,3.0,1.0,phase_2,go,300.0,300.0,1.0,,,,,,,,,magenta,triangle
0.0,3.0,3.0,0.0,6.0,6.0,811.0702359999777,3.0,1.0,phase_2,go,300.0,300.0,1.0,,,,,,,,,blue,cross
0.0,2.0,2.0,0.0,5.0,5.0,392.0916570000372,3.0,1.0,phase_2,go,300.0,300.0,1.0,,,,,,,,,magenta,triangle
0.0,4.0,4.0,0.0,6.0,6.0,262.5304869998217,3.0,1.0,phase_2,go,300.0,300.0,1.0,,,,,,,,,gray,I
0.0,8.0,4.0,1.0,5.0,5.0,441.1772929997823,3.0,1.0,phase_2,go,300.0,300.0,1.0,,,,,,,,,yellow,circle
0.0,3.0,3.0,0.0,5.0,5.0,477.0812909996493,3.0,1.0,phase_2,go,300.0,300.0,1.0,,,,,,,,,blue,cross
0.0,3.0,3.0,0.0,5.0,5.0,404.3211610005528,4.0,1.0,phase_2,go,300.0,300.0,1.0,,,,,,,,,blue,cross
0.0,5.0,1.0,1.0,5.0,5.0,390.0662719997854,4.0,1.0,phase_2,stop,300.0,300.0,3.0,,,,,,,,,cyan,flipped triangle
0.0,2.0,2.0,0.0,6.0,6.0,546.8800629996622,4.0,1.0,phase_2,go,250.0,300.0,1.0,,,,,,,,,magenta,triangle
0.0,7.0,3.0,1.0,5.0,5.0,318.2741219998206,4.0,1.0,phase_2,go,250.0,300.0,1.0,,,,,,,,,white,hexagon
0.0,1.0,1.0,0.0,5.0,5.0,545.8455110001523,4.0,1.0,phase_2,go,250.0,300.0,1.0,,,,,,,,,orange,square
0.0,6.0,2.0,1.0,6.0,0.0,0.0,4.0,1.0,phase_2,stop,250.0,300.0,4.0,,,,,,,,,green,diamond
0.0,6.0,2.0,1.0,5.0,5.0,463.3401539995248,4.0,1.0,phase_2,go,250.0,350.0,1.0,,,,,,,,,green,diamond
0.0,6.0,2.0,1.0,6.0,0.0,0.0,4.0,1.0,phase_2,stop,250.0,350.0,4.0,,,,,,,,,green,diamond
0.0,5.0,1.0,1.0,6.0,6.0,527.9690059996938,4.0,1.0,phase_2,stop,250.0,400.0,3.0,,,,,,,,,cyan,flipped triangle
0.0,4.0,4.0,0.0,5.0,5.0,464.7067519999837,4.0,1.0,phase_2,go,250.0,350.0,1.0,,,,,,,,,gray,I
0.0,1.0,1.0,0.0,5.0,5.0,752.5142080003207,4.0,1.0,phase_2,go,250.0,350.0,1.0,,,,,,,,,orange,square
0.0,1.0,1.0,0.0,5.0,5.0,624.4755030002125,4.0,1.0,phase_2,go,250.0,350.0,1.0,,,,,,,,,orange,square
0.0,5.0,1.0,1.0,6.0,6.0,695.3260020000016,4.0,1.0,phase_2,go,250.0,350.0,1.0,,,,,,,,,cyan,flipped triangle
0.0,1.0,1.0,0.0,5.0,5.0,808.0095309996977,4.0,1.0,phase_2,go,250.0,350.0,1.0,,,,,,,,,orange,square
0.0,3.0,3.0,0.0,6.0,6.0,425.8604009992268,4.0,1.0,phase_2,go,250.0,350.0,1.0,,,,,,,,,blue,cross
0.0,7.0,3.0,1.0,6.0,0.0,0.0,4.0,1.0,phase_2,stop,250.0,350.0,4.0,,,,,,,,,white,hexagon
0.0,7.0,3.0,1.0,6.0,6.0,677.8606309999304,4.0,1.0,phase_2,go,250.0,400.0,1.0,,,,,,,,,white,hexagon
0.0,7.0,3.0,1.0,6.0,6.0,624.8788499997318,4.0,1.0,phase_2,stop,250.0,400.0,3.0,,,,,,,,,white,hexagon
0.0,2.0,2.0,0.0,6.0,6.0,745.7080780004617,4.0,1.0,phase_2,go,250.0,350.0,1.0,,,,,,,,,magenta,triangle
0.0,8.0,4.0,1.0,6.0,0.0,0.0,4.0,1.0,phase_2,stop,250.0,350.0,4.0,,,,,,,,,yellow,circle
0.0,1.0,1.0,0.0,6.0,6.0,678.0066459996306,4.0,1.0,phase_2,go,250.0,400.0,1.0,,,,,,,,,orange,square
0.0,2.0,2.0,0.0,5.0,5.0,298.1381830004466,4.0,1.0,phase_2,go,250.0,400.0,1.0,,,,,,,,,magenta,triangle
0.0,6.0,2.0,1.0,5.0,0.0,0.0,4.0,1.0,phase_2,stop,250.0,400.0,4.0,,,,,,,,,green,diamond
0.0,4.0,4.0,0.0,6.0,6.0,353.3445640005084,4.0,1.0,phase_2,go,300.0,400.0,1.0,,,,,,,,,gray,I
0.0,4.0,4.0,0.0,6.0,6.0,637.0760359995984,4.0,1.0,phase_2,go,300.0,400.0,1.0,,,,,,,,,gray,I
0.0,7.0,3.0,1.0,6.0,6.0,493.0994619999183,4.0,1.0,phase_2,stop,300.0,400.0,3.0,,,,,,,,,white,hexagon
0.0,2.0,2.0,0.0,6.0,6.0,593.3400530002473,4.0,1.0,phase_2,go,300.0,350.0,1.0,,,,,,,,,magenta,triangle
0.0,8.0,4.0,1.0,6.0,6.0,691.6058020005948,4.0,1.0,phase_2,go,300.0,350.0,1.0,,,,,,,,,yellow,circle
0.0,7.0,3.0,1.0,5.0,5.0,336.2881640005071,4.0,1.0,phase_2,stop,300.0,350.0,3.0,,,,,,,,,white,hexagon
0.0,7.0,3.0,1.0,5.0,0.0,0.0,4.0,1.0,phase_2,stop,250.0,350.0,4.0,,,,,,,,,white,hexagon
0.0,8.0,4.0,1.0,6.0,6.0,377.2704290004185,4.0,1.0,phase_2,go,300.0,350.0,1.0,,,,,,,,,yellow,circle
0.0,5.0,1.0,1.0,5.0,0.0,0.0,4.0,1.0,phase_2,stop,300.0,350.0,4.0,,,,,,,,,cyan,flipped triangle
0.0,5.0,1.0,1.0,5.0,0.0,0.0,4.0,1.0,phase_2,stop,350.0,350.0,4.0,,,,,,,,,cyan,flipped triangle
0.0,3.0,3.0,0.0,6.0,6.0,666.5179760002502,4.0,1.0,phase_2,go,400.0,350.0,1.0,,,,,,,,,blue,cross
0.0,3.0,3.0,0.0,5.0,5.0,1129.5172769996498,4.0,1.0,phase_2,go,400.0,350.0,1.0,,,,,,,,,blue,cross
0.0,3.0,3.0,0.0,6.0,6.0,467.8205119998893,4.0,1.0,phase_2,go,400.0,350.0,1.0,,,,,,,,,blue,cross
0.0,1.0,1.0,0.0,5.0,5.0,600.3608080000049,5.0,1.0,phase_2,go,400.0,350.0,1.0,,,,,,,,,orange,square
0.0,8.0,4.0,1.0,6.0,0.0,0.0,5.0,1.0,phase_2,stop,400.0,350.0,4.0,,,,,,,,,yellow,circle
0.0,4.0,4.0,0.0,5.0,5.0,586.4356880001651,5.0,1.0,phase_2,go,400.0,400.0,1.0,,,,,,,,,gray,I
0.0,8.0,4.0,1.0,5.0,5.0,362.0724589991368,5.0,1.0,phase_2,stop,400.0,400.0,3.0,,,,,,,,,yellow,circle
0.0,4.0,4.0,0.0,6.0,6.0,650.603277999835,5.0,1.0,phase_2,go,350.0,400.0,1.0,,,,,,,,,gray,I
0.0,6.0,2.0,1.0,5.0,5.0,605.9644919996572,5.0,1.0,phase_2,stop,350.0,400.0,3.0,,,,,,,,,green,diamond
0.0,7.0,3.0,1.0,6.0,6.0,442.3379559993918,5.0,1.0,phase_2,stop,300.0,400.0,3.0,,,,,,,,,white,hexagon
0.0,7.0,3.0,1.0,5.0,0.0,0.0,5.0,1.0,phase_2,stop,300.0,350.0,4.0,,,,,,,,,white,hexagon
0.0,1.0,1.0,0.0,5.0,5.0,495.9025349999137,5.0,1.0,phase_2,go,350.0,350.0,1.0,,,,,,,,,orange,square
0.0,3.0,3.0,0.0,6.0,6.0,383.0008969998744,5.0,1.0,phase_2,go,350.0,350.0,1.0,,,,,,,,,blue,cross
0.0,3.0,3.0,0.0,5.0,5.0,351.1070750000726,5.0,1.0,phase_2,go,350.0,350.0,1.0,,,,,,,,,blue,cross
0.0,5.0,1.0,1.0,6.0,6.0,417.4792399999205,5.0,1.0,phase_2,go,350.0,350.0,1.0,,,,,,,,,cyan,flipped triangle
0.0,3.0,3.0,0.0,6.0,6.0,588.8756790000116,5.0,1.0,phase_2,go,350.0,350.0,1.0,,,,,,,,,blue,cross
0.0,8.0,4.0,1.0,6.0,0.0,0.0,5.0,1.0,phase_2,stop,350.0,350.0,4.0,,,,,,,,,yellow,circle
0.0,8.0,4.0,1.0,6.0,6.0,600.927855000009,5.0,1.0,phase_2,stop,350.0,400.0,3.0,,,,,,,,,yellow,circle
0.0,7.0,3.0,1.0,6.0,0.0,0.0,5.0,1.0,phase_2,stop,350.0,350.0,4.0,,,,,,,,,white,hexagon
0.0,4.0,4.0,0.0,5.0,5.0,717.5916349997351,5.0,1.0,phase_2,go,350.0,400.0,1.0,,,,,,,,,gray,I
0.0,2.0,2.0,0.0,5.0,5.0,707.3048169995673,5.0,1.0,phase_2,go,350.0,400.0,1.0,,,,,,,,,magenta,triangle
0.0,6.0,2.0,1.0,5.0,5.0,384.0577890005079,5.0,1.0,phase_2,go,350.0,400.0,1.0,,,,,,,,,green,diamond
0.0,8.0,4.0,1.0,6.0,6.0,485.40457999934,5.0,1.0,phase_2,stop,350.0,400.0,3.0,,,,,,,,,yellow,circle
0.0,5.0,1.0,1.0,5.0,5.0,503.2394359996033,5.0,1.0,phase_2,stop,350.0,350.0,3.0,,,,,,,,,cyan,flipped triangle
0.0,3.0,3.0,0.0,6.0,6.0,736.3397110002552,5.0,1.0,phase_2,go,300.0,350.0,1.0,,,,,,,,,blue,cross
0.0,3.0,3.0,0.0,6.0,6.0,657.3604209997939,5.0,1.0,phase_2,go,300.0,350.0,1.0,,,,,,,,,blue,cross
0.0,3.0,3.0,0.0,5.0,5.0,357.4104680001255,5.0,1.0,phase_2,go,300.0,350.0,1.0,,,,,,,,,blue,cross
0.0,6.0,2.0,1.0,5.0,0.0,0.0,5.0,1.0,phase_2,stop,300.0,350.0,4.0,,,,,,,,,green,diamond
0.0,4.0,4.0,0.0,6.0,6.0,733.5206030002155,5.0,1.0,phase_2,go,350.0,350.0,1.0,,,,,,,,,gray,I
0.0,1.0,1.0,0.0,6.0,6.0,627.5703540004542,5.0,1.0,phase_2,go,350.0,350.0,1.0,,,,,,,,,orange,square
0.0,1.0,1.0,0.0,6.0,6.0,640.2016239999284,5.0,1.0,phase_2,go,350.0,350.0,1.0,,,,,,,,,orange,square
0.0,2.0,2.0,0.0,5.0,5.0,596.0912369992002,5.0,1.0,phase_2,go,350.0,350.0,1.0,,,,,,,,,magenta,triangle
0.0,6.0,2.0,1.0,6.0,0.0,0.0,5.0,1.0,phase_2,stop,350.0,350.0,4.0,,,,,,,,,green,diamond
0.0,8.0,4.0,1.0,5.0,0.0,0.0,5.0,1.0,phase_2,stop,350.0,400.0,4.0,,,,,,,,,yellow,circle
0.0,6.0,2.0,1.0,5.0,0.0,0.0,5.0,1.0,phase_2,stop,400.0,400.0,4.0,,,,,,,,,green,diamond
0.0,3.0,3.0,0.0,5.0,5.0,815.0684789998195,5.0,1.0,phase_2,go,450.0,400.0,1.0,,,,,,,,,blue,cross
0.0,2.0,2.0,0.0,6.0,6.0,1259.8652869992293,5.0,1.0,phase_2,go,450.0,400.0,1.0,,,,,,,,,magenta,triangle
0.0,6.0,2.0,1.0,6.0,6.0,384.1002569997727,5.0,1.0,phase_2,stop,450.0,400.0,3.0,,,,,,,,,green,diamond
0.0,2.0,2.0,0.0,6.0,6.0,766.7033090001496,5.0,1.0,phase_2,go,450.0,350.0,1.0,,,,,,,,,magenta,triangle
0.0,4.0,4.0,0.0,5.0,5.0,649.6838370003388,6.0,1.0,phase_2,go,450.0,350.0,1.0,,,,,,,,,gray,I
0.0,1.0,1.0,0.0,6.0,6.0,1155.590721000408,6.0,1.0,phase_2,go,450.0,350.0,1.0,,,,,,,,,orange,square
0.0,4.0,4.0,0.0,5.0,5.0,515.0310469998658,6.0,1.0,phase_2,go,450.0,350.0,1.0,,,,,,,,,gray,I
0.0,4.0,4.0,0.0,5.0,5.0,409.7753230007583,6.0,1.0,phase_2,go,450.0,350.0,1.0,,,,,,,,,gray,I
0.0,3.0,3.0,0.0,5.0,5.0,367.5899779991596,6.0,1.0,phase_2,go,450.0,350.0,1.0,,,,,,,,,blue,cross
0.0,7.0,3.0,1.0,6.0,6.0,543.8338710000608,6.0,1.0,phase_2,stop,450.0,350.0,3.0,,,,,,,,,white,hexagon
0.0,6.0,2.0,1.0,6.0,6.0,460.6337889999849,6.0,1.0,phase_2,stop,450.0,300.0,3.0,,,,,,,,,green,diamond
0.0,4.0,4.0,0.0,6.0,6.0,622.8254780007774,6.0,1.0,phase_2,go,450.0,250.0,1.0,,,,,,,,,gray,I
0.0,8.0,4.0,1.0,5.0,5.0,371.5651250004157,6.0,1.0,phase_2,stop,450.0,250.0,3.0,,,,,,,,,yellow,circle
0.0,8.0,4.0,1.0,5.0,0.0,0.0,6.0,1.0,phase_2,stop,400.0,250.0,4.0,,,,,,,,,yellow,circle
0.0,3.0,3.0,0.0,6.0,6.0,320.1883470001121,6.0,1.0,phase_2,go,450.0,250.0,1.0,,,,,,,,,blue,cross
0.0,1.0,1.0,0.0,5.0,5.0,548.8524389993472,6.0,1.0,phase_2,go,450.0,250.0,1.0,,,,,,,,,orange,square
0.0,5.0,1.0,1.0,5.0,5.0,679.4114449994595,6.0,1.0,phase_2,go,450.0,250.0,1.0,,,,,,,,,cyan,flipped triangle
0.0,8.0,4.0,1.0,6.0,6.0,312.0599249996303,6.0,1.0,phase_2,stop,450.0,250.0,3.0,,,,,,,,,yellow,circle
0.0,1.0,1.0,0.0,5.0,5.0,574.3097040003704,6.0,1.0,phase_2,go,450.0,200.0,1.0,,,,,,,,,orange,square
0.0,3.0,3.0,0.0,6.0,6.0,1041.6978729999755,6.0,1.0,phase_2,go,450.0,200.0,1.0,,,,,,,,,blue,cross
0.0,3.0,3.0,0.0,6.0,6.0,589.1033759999118,6.0,1.0,phase_2,go,450.0,200.0,1.0,,,,,,,,,blue,cross
0.0,2.0,2.0,0.0,5.0,5.0,412.7398390000962,6.0,1.0,phase_2,go,450.0,200.0,1.0,,,,,,,,,magenta,triangle
0.0,6.0,2.0,1.0,6.0,6.0,379.0124460001607,6.0,1.0,phase_2,stop,450.0,200.0,3.0,,,,,,,,,green,diamond
0.0,3.0,3.0,0.0,5.0,5.0,579.2987430004359,6.0,1.0,phase_2,go,450.0,150.0,1.0,,,,,,,,,blue,cross
0.0,8.0,4.0,1.0,6.0,0.0,0.0,6.0,1.0,phase_2,stop,450.0,150.0,4.0,,,,,,,,,yellow,circle
0.0,4.0,4.0,0.0,5.0,5.0,388.9878130003126,6.0,1.0,phase_2,go,450.0,200.0,1.0,,,,,,,,,gray,I
0.0,4.0,4.0,0.0,5.0,5.0,578.2238900001175,6.0,1.0,phase_2,go,450.0,200.0,1.0,,,,,,,,,gray,I
0.0,3.0,3.0,0.0,6.0,6.0,627.1739889998571,6.0,1.0,phase_2,go,450.0,200.0,1.0,,,,,,,,,blue,cross
0.0,7.0,3.0,1.0,5.0,5.0,353.3805549996032,6.0,1.0,phase_2,stop,450.0,200.0,3.0,,,,,,,,,white,hexagon
0.0,3.0,3.0,0.0,5.0,5.0,694.2621319994942,6.0,1.0,phase_2,go,400.0,200.0,1.0,,,,,,,,,blue,cross
0.0,7.0,3.0,1.0,6.0,6.0,732.7457680003135,6.0,1.0,phase_2,go,400.0,200.0,1.0,,,,,,,,,white,hexagon
0.0,7.0,3.0,1.0,6.0,6.0,375.037376000364,6.0,1.0,phase_2,stop,400.0,200.0,3.0,,,,,,,,,white,hexagon
0.0,5.0,1.0,1.0,6.0,6.0,749.9421009997604,6.0,1.0,phase_2,go,400.0,150.0,1.0,,,,,,,,,cyan,flipped triangle
0.0,5.0,1.0,1.0,5.0,5.0,674.1840680006135,6.0,1.0,phase_2,go,400.0,150.0,1.0,,,,,,,,,cyan,flipped triangle
0.0,5.0,1.0,1.0,6.0,0.0,0.0,6.0,1.0,phase_2,stop,400.0,150.0,4.0,,,,,,,,,cyan,flipped triangle
0.0,4.0,4.0,0.0,5.0,5.0,538.5178650003581,6.0,1.0,phase_2,go,400.0,200.0,1.0,,,,,,,,,gray,I
0.0,1.0,1.0,0.0,6.0,6.0,512.2461219998513,6.0,1.0,phase_2,go,400.0,200.0,1.0,,,,,,,,,orange,square
0.0,1.0,1.0,0.0,6.0,6.0,397.1658930004196,6.0,1.0,phase_2,go,400.0,200.0,1.0,,,,,,,,,orange,square
0.0,5.0,1.0,1.0,5.0,5.0,370.5683239995778,6.0,1.0,phase_2,go,400.0,200.0,1.0,,,,,,,,,cyan,flipped triangle
0.0,5.0,1.0,1.0,6.0,6.0,441.4786779998394,6.0,1.0,phase_2,stop,400.0,200.0,3.0,,,,,,,,,cyan,flipped triangle
0.0,3.0,3.0,0.0,5.0,5.0,560.4321000000709,7.0,1.0,phase_2,go,400.0,150.0,1.0,,,,,,,,,blue,cross
0.0,6.0,2.0,1.0,6.0,0.0,0.0,7.0,1.0,phase_2,stop,400.0,150.0,4.0,,,,,,,,,green,diamond
0.0,2.0,2.0,0.0,6.0,6.0,582.8302480003913,7.0,1.0,phase_2,go,400.0,200.0,1.0,,,,,,,,,magenta,triangle
0.0,7.0,3.0,1.0,6.0,6.0,550.9177759995509,7.0,1.0,phase_2,go,400.0,200.0,1.0,,,,,,,,,white,hexagon
0.0,1.0,1.0,0.0,6.0,6.0,484.5595009992394,7.0,1.0,phase_2,go,400.0,200.0,1.0,,,,,,,,,orange,square
0.0,6.0,2.0,1.0,5.0,5.0,576.0013019998951,7.0,1.0,phase_2,stop,400.0,200.0,3.0,,,,,,,,,green,diamond
0.0,1.0,1.0,0.0,6.0,6.0,415.325584999664,7.0,1.0,phase_2,go,350.0,200.0,1.0,,,,,,,,,orange,square
0.0,4.0,4.0,0.0,6.0,6.0,451.6237090001596,7.0,1.0,phase_2,go,350.0,200.0,1.0,,,,,,,,,gray,I
0.0,8.0,4.0,1.0,5.0,5.0,306.2491380005667,7.0,1.0,phase_2,stop,350.0,200.0,3.0,,,,,,,,,yellow,circle
0.0,5.0,1.0,1.0,5.0,5.0,575.0306379995891,7.0,1.0,phase_2,go,300.0,200.0,1.0,,,,,,,,,cyan,flipped triangle
0.0,2.0,2.0,0.0,6.0,6.0,339.0822649998881,7.0,1.0,phase_2,go,300.0,200.0,1.0,,,,,,,,,magenta,triangle
0.0,7.0,3.0,1.0,6.0,6.0,421.612773000561,7.0,1.0,phase_2,stop,300.0,200.0,3.0,,,,,,,,,white,hexagon
0.0,4.0,4.0,0.0,5.0,5.0,642.5304250005865,7.0,1.0,phase_2,go,300.0,150.0,1.0,,,,,,,,,gray,I
0.0,1.0,1.0,0.0,5.0,5.0,539.9408670000412,7.0,1.0,phase_2,go,300.0,150.0,1.0,,,,,,,,,orange,square
0.0,7.0,3.0,1.0,6.0,0.0,0.0,7.0,1.0,phase_2,stop,300.0,150.0,4.0,,,,,,,,,white,hexagon
0.0,2.0,2.0,0.0,5.0,5.0,616.3851250003063,7.0,1.0,phase_2,go,300.0,200.0,1.0,,,,,,,,,magenta,triangle
0.0,8.0,4.0,1.0,5.0,0.0,0.0,7.0,1.0,phase_2,stop,300.0,200.0,4.0,,,,,,,,,yellow,circle
0.0,1.0,1.0,0.0,6.0,6.0,802.6814479999302,7.0,1.0,phase_2,go,350.0,200.0,1.0,,,,,,,,,orange,square
0.0,5.0,1.0,1.0,5.0,5.0,414.9806909999824,7.0,1.0,phase_2,stop,350.0,200.0,3.0,,,,,,,,,cyan,flipped triangle
0.0,7.0,3.0,1.0,5.0,0.0,0.0,7.0,1.0,phase_2,stop,300.0,200.0,4.0,,,,,,,,,white,hexagon
0.0,2.0,2.0,0.0,5.0,5.0,620.969917000366,7.0,1.0,phase_2,go,350.0,200.0,1.0,,,,,,,,,magenta,triangle
0.0,5.0,1.0,1.0,6.0,0.0,0.0,7.0,1.0,phase_2,stop,350.0,200.0,4.0,,,,,,,,,cyan,flipped triangle
0.0,2.0,2.0,0.0,6.0,6.0,667.2951230002582,7.0,1.0,phase_2,go,350.0,250.0,1.0,,,,,,,,,magenta,triangle
0.0,4.0,4.0,0.0,6.0,6.0,648.5540539997601,7.0,1.0,phase_2,go,350.0,250.0,1.0,,,,,,,,,gray,I
0.0,1.0,1.0,0.0,5.0,5.0,466.4586380004039,7.0,1.0,phase_2,go,350.0,250.0,1.0,,,,,,,,,orange,square
0.0,2.0,2.0,0.0,6.0,6.0,449.6943200001624,7.0,1.0,phase_2,go,350.0,250.0,1.0,,,,,,,,,magenta,triangle
0.0,5.0,1.0,1.0,6.0,6.0,406.5865409993421,7.0,1.0,phase_2,stop,350.0,250.0,3.0,,,,,,,,,cyan,flipped triangle
0.0,8.0,4.0,1.0,6.0,0.0,0.0,7.0,1.0,phase_2,stop,350.0,200.0,4.0,,,,,,,,,yellow,circle
0.0,8.0,4.0,1.0,5.0,5.0,517.3308950006685,7.0,1.0,phase_2,stop,350.0,250.0,3.0,,,,,,,,,yellow,circle
0.0,7.0,3.0,1.0,6.0,6.0,582.2735769997962,7.0,1.0,phase_2,go,300.0,250.0,1.0,,,,,,,,,white,hexagon
0.0,7.0,3.0,1.0,5.0,5.0,600.4750290003358,7.0,1.0,phase_2,go,300.0,250.0,1.0,,,,,,,,,white,hexagon
0.0,1.0,1.0,0.0,5.0,5.0,561.8744570001581,7.0,1.0,phase_2,go,300.0,250.0,1.0,,,,,,,,,orange,square
0.0,8.0,4.0,1.0,5.0,0.0,0.0,7.0,1.0,phase_2,stop,300.0,250.0,4.0,,,,,,,,,yellow,circle
0.0,5.0,1.0,1.0,5.0,0.0,0.0,7.0,1.0,phase_2,stop,350.0,250.0,4.0,,,,,,,,,cyan,flipped triangle
0.0,4.0,4.0,0.0,6.0,6.0,310.2816040000107,7.0,1.0,phase_2,go,400.0,250.0,1.0,,,,,,,,,gray,I
0.0,5.0,1.0,1.0,6.0,0.0,0.0,7.0,1.0,phase_2,stop,400.0,250.0,4.0,,,,,,,,,cyan,flipped triangle
0.0,4.0,4.0,0.0,6.0,6.0,682.8848430004655,8.0,1.0,phase_2,go,400.0,300.0,1.0,,,,,,,,,gray,I
0.0,7.0,3.0,1.0,5.0,5.0,447.5057440004093,8.0,1.0,phase_2,stop,400.0,300.0,3.0,,,,,,,,,white,hexagon
0.0,6.0,2.0,1.0,5.0,5.0,692.419756000163,8.0,1.0,phase_2,go,350.0,300.0,1.0,,,,,,,,,green,diamond
0.0,1.0,1.0,0.0,5.0,5.0,610.3562190000957,8.0,1.0,phase_2,go,350.0,300.0,1.0,,,,,,,,,orange,square
0.0,2.0,2.0,0.0,6.0,6.0,491.4913079992402,8.0,1.0,phase_2,go,350.0,300.0,1.0,,,,,,,,,magenta,triangle
0.0,7.0,3.0,1.0,5.0,0.0,0.0,8.0,1.0,phase_2,stop,350.0,300.0,4.0,,,,,,,,,white,hexagon
0.0,8.0,4.0,1.0,6.0,0.0,0.0,8.0,1.0,phase_2,stop,400.0,300.0,4.0,,,,,,,,,yellow,circle
0.0,1.0,1.0,0.0,5.0,5.0,479.8247539993099,8.0,1.0,phase_2,go,400.0,350.0,1.0,,,,,,,,,orange,square
0.0,8.0,4.0,1.0,5.0,5.0,710.6743389995245,8.0,1.0,phase_2,go,400.0,350.0,1.0,,,,,,,,,yellow,circle
0.0,8.0,4.0,1.0,5.0,5.0,449.8268649995225,8.0,1.0,phase_2,stop,400.0,350.0,3.0,,,,,,,,,yellow,circle
0.0,2.0,2.0,0.0,6.0,6.0,367.7321289997053,8.0,1.0,phase_2,go,350.0,350.0,1.0,,,,,,,,,magenta,triangle
0.0,6.0,2.0,1.0,5.0,0.0,0.0,8.0,1.0,phase_2,stop,350.0,350.0,4.0,,,,,,,,,green,diamond
0.0,6.0,2.0,1.0,5.0,0.0,0.0,8.0,1.0,phase_2,stop,400.0,350.0,4.0,,,,,,,,,green,diamond
0.0,6.0,2.0,1.0,5.0,5.0,529.2923729994072,8.0,1.0,phase_2,stop,450.0,350.0,3.0,,,,,,,,,green,diamond
0.0,4.0,4.0,0.0,5.0,5.0,738.0112440005178,8.0,1.0,phase_2,go,400.0,350.0,1.0,,,,,,,,,gray,I
0.0,8.0,4.0,1.0,5.0,5.0,756.2921220005592,8.0,1.0,phase_2,go,400.0,350.0,1.0,,,,,,,,,yellow,circle
0.0,4.0,4.0,0.0,5.0,5.0,698.9806170004158,8.0,1.0,phase_2,go,400.0,350.0,1.0,,,,,,,,,gray,I
0.0,5.0,1.0,1.0,6.0,0.0,0.0,8.0,1.0,phase_2,stop,400.0,350.0,4.0,,,,,,,,,cyan,flipped triangle
0.0,7.0,3.0,1.0,5.0,5.0,627.4671459996171,8.0,1.0,phase_2,go,400.0,400.0,1.0,,,,,,,,,white,hexagon
0.0,7.0,3.0,1.0,5.0,5.0,437.0908780001628,8.0,1.0,phase_2,stop,400.0,400.0,3.0,,,,,,,,,white,hexagon
0.0,1.0,1.0,0.0,5.0,5.0,508.1327099996997,8.0,1.0,phase_2,go,350.0,400.0,1.0,,,,,,,,,orange,square
0.0,6.0,2.0,1.0,6.0,6.0,375.1870849991974,8.0,1.0,phase_2,stop,350.0,400.0,3.0,,,,,,,,,green,diamond
0.0,4.0,4.0,0.0,5.0,5.0,651.3683590001165,8.0,1.0,phase_2,go,350.0,350.0,1.0,,,,,,,,,gray,I
0.0,2.0,2.0,0.0,6.0,6.0,465.7043770002929,8.0,1.0,phase_2,go,350.0,350.0,1.0,,,,,,,,,magenta,triangle
0.0,3.0,3.0,0.0,6.0,6.0,584.8633779996817,8.0,1.0,phase_2,go,350.0,350.0,1.0,,,,,,,,,blue,cross
0.0,2.0,2.0,0.0,6.0,6.0,484.5133310000165,8.0,1.0,phase_2,go,350.0,350.0,1.0,,,,,,,,,magenta,triangle
0.0,8.0,4.0,1.0,5.0,5.0,547.4544239996249,8.0,1.0,phase_2,stop,350.0,350.0,3.0,,,,,,,,,yellow,circle
0.0,1.0,1.0,0.0,6.0,6.0,812.8657190000013,8.0,1.0,phase_2,go,300.0,350.0,1.0,,,,,,,,,orange,square
0.0,6.0,2.0,1.0,6.0,6.0,323.8946259998556,8.0,1.0,phase_2,go,300.0,350.0,1.0,,,,,,,,,green,diamond
0.0,5.0,1.0,1.0,6.0,6.0,468.6408649995428,8.0,1.0,phase_2,stop,300.0,350.0,3.0,,,,,,,,,cyan,flipped triangle
0.0,3.0,3.0,0.0,5.0,5.0,440.8142610000141,8.0,1.0,phase_2,go,300.0,300.0,1.0,,,,,,,,,blue,cross
0.0,6.0,2.0,1.0,5.0,5.0,427.1777170006317,8.0,1.0,phase_2,stop,300.0,300.0,3.0,,,,,,,,,green,diamond
0.0,7.0,3.0,1.0,6.0,6.0,345.1207099997191,8.0,1.0,phase_2,go,250.0,300.0,1.0,,,,,,,,,white,hexagon
0.0,7.0,3.0,1.0,6.0,6.0,347.6723249996212,8.0,1.0,phase_2,stop,250.0,300.0,3.0,,,,,,,,,white,hexagon
0.0,5.0,1.0,1.0,5.0,5.0,541.8040250006015,8.0,1.0,phase_2,stop,250.0,250.0,3.0,,,,,,,,,cyan,flipped triangle
0.0,5.0,1.0,1.0,5.0,0.0,0.0,8.0,1.0,phase_2,stop,200.0,250.0,4.0,,,,,,,,,cyan,flipped triangle
0.0,2.0,2.0,0.0,7.0,2.0,1644.4959489999746,1.0,1.0,phase_3,,,,,216.0,4.0,324.0,216.0,108.0,54.0,162.0,270.0,magenta,triangle
0.0,8.0,4.0,1.0,7.0,3.0,874.8925780000718,1.0,1.0,phase_3,,,,,216.0,4.0,162.0,108.0,216.0,54.0,270.0,324.0,yellow,circle
0.0,8.0,4.0,1.0,7.0,3.0,3908.655603000625,1.0,1.0,phase_3,,,,,49.0,1.0,196.0,147.0,49.0,245.0,294.0,98.0,yellow,circle
0.0,7.0,3.0,1.0,7.0,5.0,2880.4605919995083,1.0,1.0,phase_3,,,,,270.0,5.0,54.0,216.0,108.0,162.0,270.0,324.0,white,hexagon
0.0,8.0,4.0,1.0,7.0,3.0,1781.8627380002,1.0,1.0,phase_3,,,,,264.0,6.0,220.0,88.0,264.0,44.0,132.0,176.0,yellow,circle
0.0,8.0,4.0,1.0,7.0,4.0,2880.55769300081,1.0,1.0,phase_3,,,,,245.0,5.0,98.0,294.0,147.0,245.0,49.0,196.0,yellow,circle
0.0,1.0,1.0,0.0,7.0,1.0,1622.2178429998166,1.0,1.0,phase_3,,,,,44.0,1.0,44.0,264.0,88.0,176.0,220.0,132.0,orange,square
0.0,4.0,4.0,0.0,7.0,6.0,2178.876833999311,1.0,1.0,phase_3,,,,,324.0,6.0,216.0,108.0,162.0,54.0,270.0,324.0,gray,I
0.0,2.0,2.0,0.0,7.0,1.0,1371.78199400023,1.0,1.0,phase_3,,,,,132.0,3.0,132.0,220.0,264.0,44.0,176.0,88.0,magenta,triangle
0.0,6.0,2.0,1.0,7.0,1.0,2563.925217999895,1.0,1.0,phase_3,,,,,170.0,5.0,170.0,34.0,102.0,68.0,204.0,136.0,green,diamond
0.0,4.0,4.0,0.0,7.0,3.0,1459.5578759999626,1.0,1.0,phase_3,,,,,245.0,5.0,98.0,196.0,245.0,147.0,49.0,294.0,gray,I
0.0,7.0,3.0,1.0,7.0,5.0,1368.4332470002118,1.0,1.0,phase_3,,,,,264.0,6.0,220.0,176.0,44.0,132.0,264.0,88.0,white,hexagon
0.0,1.0,1.0,0.0,7.0,3.0,896.0263890003262,1.0,1.0,phase_3,,,,,156.0,4.0,39.0,117.0,156.0,78.0,234.0,195.0,orange,square
0.0,1.0,1.0,0.0,7.0,3.0,3199.453776000155,1.0,1.0,phase_3,,,,,170.0,5.0,136.0,204.0,170.0,102.0,34.0,68.0,orange,square
0.0,1.0,1.0,0.0,7.0,3.0,2514.164809000249,1.0,1.0,phase_3,,,,,245.0,5.0,294.0,49.0,245.0,98.0,147.0,196.0,orange,square
0.0,2.0,2.0,0.0,7.0,4.0,1470.1297259998682,1.0,1.0,phase_3,,,,,98.0,2.0,147.0,245.0,294.0,98.0,196.0,49.0,magenta,triangle
0.0,3.0,3.0,0.0,7.0,2.0,2047.862745999737,1.0,1.0,phase_3,,,,,78.0,2.0,234.0,78.0,195.0,39.0,117.0,156.0,blue,cross
0.0,2.0,2.0,0.0,7.0,5.0,2061.7256250006903,1.0,1.0,phase_3,,,,,170.0,5.0,34.0,136.0,68.0,102.0,170.0,204.0,magenta,triangle
0.0,6.0,2.0,1.0,7.0,3.0,2133.375342999898,1.0,1.0,phase_3,,,,,234.0,6.0,195.0,78.0,234.0,156.0,117.0,39.0,green,diamond
0.0,1.0,1.0,0.0,7.0,2.0,2086.8758260003237,1.0,1.0,phase_3,,,,,98.0,2.0,245.0,98.0,196.0,294.0,49.0,147.0,orange,square
0.0,7.0,3.0,1.0,7.0,2.0,3478.0930380002246,2.0,1.0,phase_3,,,,,204.0,6.0,136.0,204.0,34.0,102.0,170.0,68.0,white,hexagon
0.0,5.0,1.0,1.0,7.0,4.0,1603.0126270006804,2.0,1.0,phase_3,,,,,49.0,1.0,98.0,196.0,294.0,49.0,245.0,147.0,cyan,flipped triangle
0.0,4.0,4.0,0.0,7.0,6.0,1556.632869999703,2.0,1.0,phase_3,,,,,234.0,6.0,156.0,39.0,78.0,117.0,195.0,234.0,gray,I
0.0,7.0,3.0,1.0,7.0,4.0,1996.8475289997516,2.0,1.0,phase_3,,,,,220.0,5.0,44.0,132.0,176.0,220.0,88.0,264.0,white,hexagon
0.0,5.0,1.0,1.0,7.0,2.0,1228.0922449999707,2.0,1.0,phase_3,,,,,54.0,1.0,162.0,54.0,270.0,216.0,108.0,324.0,cyan,flipped triangle
0.0,3.0,3.0,0.0,7.0,4.0,1800.9007729997393,2.0,1.0,phase_3,,,,,102.0,3.0,136.0,68.0,204.0,102.0,34.0,170.0,blue,cross
0.0,5.0,1.0,1.0,7.0,1.0,2185.125341999992,2.0,1.0,phase_3,,,,,44.0,1.0,44.0,132.0,176.0,264.0,220.0,88.0,cyan,flipped triangle
0.0,3.0,3.0,0.0,7.0,4.0,2090.628045000813,2.0,1.0,phase_3,,,,,324.0,6.0,108.0,270.0,54.0,324.0,162.0,216.0,blue,cross
0.0,3.0,3.0,0.0,7.0,2.0,1991.445477000525,2.0,1.0,phase_3,,,,,176.0,4.0,264.0,176.0,44.0,88.0,220.0,132.0,blue,cross
0.0,3.0,3.0,0.0,7.0,2.0,1634.8252569996475,2.0,1.0,phase_3,,,,,49.0,1.0,98.0,49.0,245.0,147.0,294.0,196.0,blue,cross
0.0,5.0,1.0,1.0,7.0,5.0,2879.451732999769,2.0,1.0,phase_3,,,,,54.0,1.0,162.0,108.0,270.0,324.0,54.0,216.0,cyan,flipped triangle
0.0,8.0,4.0,1.0,7.0,1.0,1992.9484519998368,2.0,1.0,phase_3,,,,,39.0,1.0,39.0,78.0,156.0,195.0,234.0,117.0,yellow,circle
0.0,2.0,2.0,0.0,7.0,2.0,1663.479349999761,2.0,1.0,phase_3,,,,,78.0,2.0,234.0,78.0,39.0,156.0,195.0,117.0,magenta,triangle
0.0,5.0,1.0,1.0,7.0,6.0,2399.038336000558,2.0,1.0,phase_3,,,,,78.0,2.0,156.0,195.0,234.0,117.0,39.0,78.0,cyan,flipped triangle
0.0,6.0,2.0,1.0,7.0,1.0,2877.8007889995934,2.0,1.0,phase_3,,,,,195.0,5.0,195.0,234.0,156.0,39.0,78.0,117.0,green,diamond
0.0,5.0,1.0,1.0,7.0,2.0,1690.5701269997735,2.0,1.0,phase_3,,,,,49.0,1.0,294.0,49.0,147.0,196.0,98.0,245.0,cyan,flipped triangle
0.0,4.0,4.0,0.0,7.0,5.0,1458.9052399996945,2.0,1.0,phase_3,,,,,234.0,6.0,195.0,156.0,117.0,78.0,234.0,39.0,gray,I
0.0,1.0,1.0,0.0,7.0,2.0,2330.713000000287,2.0,1.0,phase_3,,,,,88.0,2.0,44.0,88.0,220.0,264.0,132.0,176.0,orange,square
0.0,1.0,1.0,0.0,7.0,4.0,2318.1359090003752,2.0,1.0,phase_3,,,,,68.0,2.0,102.0,204.0,170.0,68.0,136.0,34.0,orange,square
0.0,7.0,3.0,1.0,7.0,5.0,2359.113697999419,2.0,1.0,phase_3,,,,,324.0,6.0,270.0,108.0,54.0,162.0,324.0,216.0,white,hexagon
0.0,6.0,2.0,1.0,7.0,2.0,2999.049663000733,3.0,1.0,phase_3,,,,,54.0,1.0,216.0,54.0,270.0,108.0,324.0,162.0,green,diamond
0.0,7.0,3.0,1.0,7.0,5.0,3130.9927430002062,3.0,1.0,phase_3,,,,,49.0,1.0,98.0,294.0,245.0,147.0,49.0,196.0,white,hexagon
0.0,1.0,1.0,0.0,7.0,5.0,1501.369044000057,3.0,1.0,phase_3,,,,,39.0,1.0,234.0,117.0,78.0,156.0,39.0,195.0,orange,square
0.0,8.0,4.0,1.0,7.0,3.0,3478.177365999727,3.0,1.0,phase_3,,,,,117.0,3.0,195.0,156.0,117.0,78.0,234.0,39.0,yellow,circle
0.0,3.0,3.0,0.0,7.0,5.0,2055.652638999163,3.0,1.0,phase_3,,,,,68.0,2.0,204.0,136.0,34.0,170.0,68.0,102.0,blue,cross
0.0,1.0,1.0,0.0,7.0,3.0,2479.4979970001805,3.0,1.0,phase_3,,,,,54.0,1.0,216.0,324.0,54.0,162.0,108.0,270.0,orange,square
0.0,6.0,2.0,1.0,7.0,4.0,3776.252173000103,3.0,1.0,phase_3,,,,,98.0,2.0,196.0,245.0,147.0,98.0,294.0,49.0,green,diamond
0.0,6.0,2.0,1.0,7.0,3.0,3261.773245999393,3.0,1.0,phase_3,,,,,88.0,2.0,176.0,264.0,88.0,44.0,132.0,220.0,green,diamond
0.0,7.0,3.0,1.0,7.0,5.0,1963.3529140000971,3.0,1.0,phase_3,,,,,195.0,5.0,39.0,78.0,234.0,156.0,195.0,117.0,white,hexagon
0.0,3.0,3.0,0.0,7.0,2.0,1064.4010579999303,3.0,1.0,phase_3,,,,,54.0,1.0,108.0,54.0,162.0,216.0,270.0,324.0,blue,cross
0.0,7.0,3.0,1.0,7.0,4.0,1256.394506000106,3.0,1.0,phase_3,,,,,204.0,6.0,34.0,136.0,102.0,204.0,68.0,170.0,white,hexagon
0.0,7.0,3.0,1.0,7.0,5.0,2120.741869000085,3.0,1.0,phase_3,,,,,245.0,5.0,98.0,147.0,196.0,49.0,245.0,294.0,white,hexagon
0.0,8.0,4.0,1.0,7.0,4.0,1420.3005170002143,3.0,1.0,phase_3,,,,,34.0,1.0,102.0,170.0,204.0,34.0,68.0,136.0,yellow,circle
0.0,8.0,4.0,1.0,7.0,6.0,1444.7662189995754,3.0,1.0,phase_3,,,,,44.0,1.0,220.0,88.0,264.0,176.0,132.0,44.0,yellow,circle
0.0,8.0,4.0,1.0,7.0,2.0,1293.3842880001976,3.0,1.0,phase_3,,,,,136.0,4.0,102.0,136.0,170.0,204.0,34.0,68.0,yellow,circle
0.0,1.0,1.0,0.0,7.0,4.0,3451.2652320008783,3.0,1.0,phase_3,,,,,216.0,4.0,162.0,54.0,108.0,216.0,324.0,270.0,orange,square
0.0,5.0,1.0,1.0,7.0,2.0,1572.1694909998405,3.0,1.0,phase_3,,,,,39.0,1.0,117.0,39.0,234.0,78.0,195.0,156.0,cyan,flipped triangle
0.0,2.0,2.0,0.0,7.0,5.0,985.739140000078,3.0,1.0,phase_3,,,,,147.0,3.0,245.0,49.0,196.0,294.0,147.0,98.0,magenta,triangle
0.0,5.0,1.0,1.0,7.0,6.0,1182.0830950000527,3.0,1.0,phase_3,,,,,204.0,6.0,102.0,68.0,170.0,34.0,136.0,204.0,cyan,flipped triangle
0.0,2.0,2.0,0.0,7.0,5.0,2980.7285240003694,3.0,1.0,phase_3,,,,,34.0,1.0,102.0,136.0,204.0,170.0,34.0,68.0,magenta,triangle
0.0,7.0,3.0,1.0,7.0,3.0,1711.4895589993466,4.0,1.0,phase_3,,,,,234.0,6.0,39.0,78.0,234.0,195.0,117.0,156.0,white,hexagon
0.0,4.0,4.0,0.0,7.0,4.0,1940.9078130001944,4.0,1.0,phase_3,,,,,204.0,6.0,102.0,170.0,34.0,204.0,68.0,136.0,gray,I
0.0,5.0,1.0,1.0,7.0,3.0,2473.544014000254,4.0,1.0,phase_3,,,,,44.0,1.0,132.0,88.0,44.0,176.0,220.0,264.0,cyan,flipped triangle
0.0,2.0,2.0,0.0,7.0,5.0,1130.5748400000084,4.0,1.0,phase_3,,,,,264.0,6.0,220.0,44.0,88.0,176.0,264.0,132.0,magenta,triangle
0.0,6.0,2.0,1.0,7.0,1.0,966.8841729999258,4.0,1.0,phase_3,,,,,54.0,1.0,54.0,162.0,108.0,270.0,324.0,216.0,green,diamond
0.0,2.0,2.0,0.0,7.0,5.0,0.24748600026210002,4.0,1.0,phase_3,,,,,117.0,3.0,195.0,78.0,156.0,234.0,117.0,39.0,magenta,triangle
0.0,3.0,3.0,0.0,7.0,4.0,3455.8539760000717,4.0,1.0,phase_3,,,,,156.0,4.0,195.0,39.0,78.0,156.0,117.0,234.0,blue,cross
0.0,6.0,2.0,1.0,7.0,1.0,1103.1265940000594,4.0,1.0,phase_3,,,,,68.0,2.0,68.0,136.0,34.0,170.0,102.0,204.0,green,diamond
0.0,4.0,4.0,0.0,7.0,4.0,1100.5140409997691,4.0,1.0,phase_3,,,,,216.0,4.0,324.0,162.0,108.0,216.0,270.0,54.0,gray,I
0.0,6.0,2.0,1.0,7.0,5.0,3061.42249200002,4.0,1.0,phase_3,,,,,196.0,4.0,294.0,147.0,49.0,98.0,196.0,245.0,green,diamond
0.0,3.0,3.0,0.0,7.0,2.0,2077.2886169997946,4.0,1.0,phase_3,,,,,264.0,6.0,220.0,264.0,44.0,176.0,132.0,88.0,blue,cross
0.0,4.0,4.0,0.0,7.0,4.0,1838.150528999904,4.0,1.0,phase_3,,,,,204.0,6.0,68.0,34.0,136.0,204.0,170.0,102.0,gray,I
0.0,4.0,4.0,0.0,7.0,3.0,2470.78694099946,4.0,1.0,phase_3,,,,,196.0,4.0,147.0,294.0,196.0,98.0,49.0,245.0,gray,I
0.0,4.0,4.0,0.0,7.0,5.0,2160.683137999513,4.0,1.0,phase_3,,,,,264.0,6.0,220.0,44.0,88.0,176.0,264.0,132.0,gray,I
0.0,6.0,2.0,1.0,7.0,3.0,3522.099664999587,4.0,1.0,phase_3,,,,,220.0,5.0,176.0,264.0,220.0,88.0,132.0,44.0,green,diamond
0.0,3.0,3.0,0.0,7.0,5.0,3369.5334490003006,4.0,1.0,phase_3,,,,,245.0,5.0,49.0,294.0,147.0,196.0,245.0,98.0,blue,cross
0.0,2.0,2.0,0.0,7.0,4.0,1909.0137100001807,4.0,1.0,phase_3,,,,,216.0,4.0,108.0,270.0,162.0,216.0,54.0,324.0,magenta,triangle
0.0,8.0,4.0,1.0,7.0,4.0,2450.209304999589,4.0,1.0,phase_3,,,,,54.0,1.0,324.0,108.0,216.0,54.0,162.0,270.0,yellow,circle
0.0,4.0,4.0,0.0,7.0,5.0,1855.043380999632,4.0,1.0,phase_3,,,,,264.0,6.0,132.0,44.0,176.0,88.0,264.0,220.0,gray,I
0.0,5.0,1.0,1.0,7.0,5.0,2664.014199999656,4.0,1.0,phase_3,,,,,204.0,6.0,170.0,68.0,136.0,102.0,204.0,34.0,cyan,flipped triangle
