raw_reward_magnitude,stim_reward,stepwise_reward_magnitude,paired_with_stopping,quadrant,response,reaction_time,block,num_trial_presentations,which_part,stop_signal_trial_type,left_SSD,right_SSD,accuracy,chosen_bidding_amount,chosen_bidding_level,possible_bid_1,possible_bid_2,possible_bid_3,possible_bid_4,possible_bid_5,possible_bid_6,color_text,shape_text
31.0,1.0,1.0,0.0,4.0,4.0,429.3016219999117,1.0,1.0,part_1,,,,,,,,,,,,,green,square
414.0,8.0,4.0,1.0,4.0,4.0,429.0294140000696,1.0,1.0,part_1,,,,,,,,,,,,,blue,hexagon
40.0,1.0,1.0,0.0,2.0,2.0,483.7944690000313,1.0,1.0,part_1,,,,,,,,,,,,,green,square
0.0,4.0,0.0,0.0,1.0,1.0,527.6502010001423,1.0,1.0,part_1,,,,,,,,,,,,,white,triangle
72.0,1.0,1.0,0.0,1.0,1.0,518.7546960000873,1.0,1.0,part_1,,,,,,,,,,,,,green,square
206.0,7.0,3.0,1.0,3.0,3.0,349.633539000024,1.0,1.0,part_1,,,,,,,,,,,,,magenta,circle
0.0,1.0,0.0,0.0,2.0,2.0,379.6654010000111,1.0,1.0,part_1,,,,,,,,,,,,,green,square
105.0,2.0,2.0,0.0,2.0,2.0,394.8283649999666,1.0,1.0,part_1,,,,,,,,,,,,,cyan,flipped triangle
184.0,3.0,3.0,0.0,2.0,2.0,466.0593389999121,1.0,1.0,part_1,,,,,,,,,,,,,yellow,diamond
178.0,7.0,3.0,1.0,4.0,4.0,423.9954049999141,1.0,1.0,part_1,,,,,,,,,,,,,magenta,circle
72.0,5.0,1.0,1.0,2.0,2.0,439.7021879999556,1.0,1.0,part_1,,,,,,,,,,,,,orange,I
213.0,3.0,3.0,0.0,3.0,3.0,331.4183819998106,1.0,1.0,part_1,,,,,,,,,,,,,yellow,diamond
207.0,7.0,3.0,1.0,4.0,4.0,385.1171750000048,1.0,1.0,part_1,,,,,,,,,,,,,magenta,circle
49.0,1.0,1.0,0.0,4.0,4.0,318.5930989998269,1.0,1.0,part_1,,,,,,,,,,,,,green,square
387.0,8.0,4.0,1.0,2.0,2.0,292.5740129999212,1.0,1.0,part_1,,,,,,,,,,,,,blue,hexagon
89.0,6.0,2.0,1.0,4.0,4.0,332.3906240000269,1.0,1.0,part_1,,,,,,,,,,,,,gray,cross
117.0,2.0,2.0,0.0,2.0,2.0,299.5507219998217,1.0,1.0,part_1,,,,,,,,,,,,,cyan,flipped triangle
375.0,4.0,4.0,0.0,2.0,2.0,474.8639760000515,1.0,1.0,part_1,,,,,,,,,,,,,white,triangle
72.0,5.0,1.0,1.0,4.0,4.0,446.3653669999985,1.0,1.0,part_1,,,,,,,,,,,,,orange,I
378.0,8.0,4.0,1.0,1.0,1.0,439.4887149999249,1.0,1.0,part_1,,,,,,,,,,,,,blue,hexagon
0.0,5.0,0.0,1.0,3.0,3.0,332.9331840000122,1.0,1.0,part_1,,,,,,,,,,,,,orange,I
0.0,1.0,0.0,0.0,3.0,3.0,347.593968999945,1.0,1.0,part_1,,,,,,,,,,,,,green,square
39.0,5.0,1.0,1.0,3.0,3.0,331.1850109998886,1.0,1.0,part_1,,,,,,,,,,,,,orange,I
419.0,4.0,4.0,0.0,1.0,1.0,521.1879210000916,1.0,1.0,part_1,,,,,,,,,,,,,white,triangle
40.0,5.0,1.0,1.0,3.0,3.0,369.9423300001854,1.0,1.0,part_1,,,,,,,,,,,,,orange,I
105.0,2.0,2.0,0.0,1.0,1.0,371.894685999905,1.0,1.0,part_1,,,,,,,,,,,,,cyan,flipped triangle
118.0,6.0,2.0,1.0,3.0,3.0,347.6700030000756,1.0,1.0,part_1,,,,,,,,,,,,,gray,cross
414.0,4.0,4.0,0.0,3.0,3.0,378.7050679998174,1.0,1.0,part_1,,,,,,,,,,,,,white,triangle
97.0,2.0,2.0,0.0,3.0,3.0,377.6953489998504,1.0,1.0,part_1,,,,,,,,,,,,,cyan,flipped triangle
96.0,2.0,2.0,0.0,1.0,1.0,370.9516009998879,1.0,1.0,part_1,,,,,,,,,,,,,cyan,flipped triangle
405.0,8.0,4.0,1.0,2.0,2.0,418.1455749999259,1.0,1.0,part_1,,,,,,,,,,,,,blue,hexagon
0.0,3.0,0.0,0.0,4.0,4.0,492.8931829999783,1.0,1.0,part_1,,,,,,,,,,,,,yellow,diamond
105.0,6.0,2.0,1.0,4.0,4.0,422.2189970000727,1.0,1.0,part_1,,,,,,,,,,,,,gray,cross
30.0,1.0,1.0,0.0,4.0,4.0,355.9600230000797,1.0,1.0,part_1,,,,,,,,,,,,,green,square
0.0,5.0,0.0,1.0,4.0,4.0,329.3766410001808,1.0,1.0,part_1,,,,,,,,,,,,,orange,I
0.0,7.0,0.0,1.0,3.0,3.0,355.9613830000216,1.0,1.0,part_1,,,,,,,,,,,,,magenta,circle
25.0,5.0,1.0,1.0,2.0,2.0,390.4692699998122,1.0,1.0,part_1,,,,,,,,,,,,,orange,I
203.0,7.0,3.0,1.0,3.0,3.0,329.9078890001965,1.0,1.0,part_1,,,,,,,,,,,,,magenta,circle
0.0,5.0,0.0,1.0,1.0,1.0,528.9355259999411,1.0,1.0,part_1,,,,,,,,,,,,,orange,I
37.0,1.0,1.0,0.0,2.0,2.0,391.0592679999354,1.0,1.0,part_1,,,,,,,,,,,,,green,square
413.0,8.0,4.0,1.0,1.0,1.0,411.4720869999928,1.0,1.0,part_1,,,,,,,,,,,,,blue,hexagon
0.0,3.0,0.0,0.0,1.0,1.0,377.8426809999473,1.0,1.0,part_1,,,,,,,,,,,,,yellow,diamond
204.0,3.0,3.0,0.0,2.0,2.0,390.998060000129,1.0,1.0,part_1,,,,,,,,,,,,,yellow,diamond
0.0,8.0,0.0,1.0,2.0,2.0,419.2236460000913,1.0,1.0,part_1,,,,,,,,,,,,,blue,hexagon
95.0,6.0,2.0,1.0,1.0,1.0,392.3320490000606,1.0,1.0,part_1,,,,,,,,,,,,,gray,cross
375.0,8.0,4.0,1.0,3.0,3.0,417.0242820000567,1.0,1.0,part_1,,,,,,,,,,,,,blue,hexagon
91.0,2.0,2.0,0.0,2.0,2.0,381.6423939999822,1.0,1.0,part_1,,,,,,,,,,,,,cyan,flipped triangle
207.0,3.0,3.0,0.0,2.0,2.0,399.9044960000901,1.0,1.0,part_1,,,,,,,,,,,,,yellow,diamond
182.0,3.0,3.0,0.0,1.0,1.0,367.3425440001665,1.0,1.0,part_1,,,,,,,,,,,,,yellow,diamond
0.0,8.0,0.0,1.0,1.0,1.0,466.054817999975,1.0,1.0,part_1,,,,,,,,,,,,,blue,hexagon
175.0,3.0,3.0,0.0,4.0,4.0,464.5780600001217,1.0,2.0,part_1,,,,,,,,,,,,,yellow,diamond
96.0,6.0,2.0,1.0,1.0,1.0,559.4175819999236,1.0,1.0,part_1,,,,,,,,,,,,,gray,cross
381.0,4.0,4.0,0.0,3.0,3.0,380.7860130000335,1.0,1.0,part_1,,,,,,,,,,,,,white,triangle
25.0,1.0,1.0,0.0,3.0,3.0,414.1223130000071,1.0,1.0,part_1,,,,,,,,,,,,,green,square
30.0,5.0,1.0,1.0,1.0,1.0,550.5692829999589,1.0,1.0,part_1,,,,,,,,,,,,,orange,I
190.0,7.0,3.0,1.0,2.0,2.0,457.3146899999756,1.0,1.0,part_1,,,,,,,,,,,,,magenta,circle
29.0,1.0,1.0,0.0,3.0,3.0,356.7046129999198,1.0,1.0,part_1,,,,,,,,,,,,,green,square
124.0,2.0,2.0,0.0,3.0,3.0,442.4442429999544,1.0,1.0,part_1,,,,,,,,,,,,,cyan,flipped triangle
422.0,8.0,4.0,1.0,1.0,1.0,508.7205800000447,1.0,1.0,part_1,,,,,,,,,,,,,blue,hexagon
30.0,1.0,1.0,0.0,1.0,1.0,417.9187250001632,1.0,1.0,part_1,,,,,,,,,,,,,green,square
105.0,6.0,2.0,1.0,2.0,2.0,651.4813850001246,1.0,1.0,part_1,,,,,,,,,,,,,gray,cross
377.0,4.0,4.0,0.0,1.0,1.0,362.924613999894,1.0,1.0,part_1,,,,,,,,,,,,,white,triangle
212.0,3.0,3.0,0.0,3.0,3.0,394.3654919999062,1.0,1.0,part_1,,,,,,,,,,,,,yellow,diamond
0.0,6.0,0.0,1.0,1.0,1.0,666.1041290001322,1.0,1.0,part_1,,,,,,,,,,,,,gray,cross
42.0,1.0,1.0,0.0,2.0,2.0,620.1126020000629,1.0,1.0,part_1,,,,,,,,,,,,,green,square
110.0,2.0,2.0,0.0,1.0,1.0,311.6661310000381,1.0,1.0,part_1,,,,,,,,,,,,,cyan,flipped triangle
389.0,8.0,4.0,1.0,3.0,3.0,351.9978459999038,1.0,1.0,part_1,,,,,,,,,,,,,blue,hexagon
0.0,4.0,0.0,0.0,3.0,3.0,365.818992999948,1.0,1.0,part_1,,,,,,,,,,,,,white,triangle
39.0,1.0,1.0,0.0,2.0,2.0,388.7876379999397,1.0,1.0,part_1,,,,,,,,,,,,,green,square
106.0,6.0,2.0,1.0,1.0,1.0,613.2287640000413,1.0,1.0,part_1,,,,,,,,,,,,,gray,cross
0.0,4.0,0.0,0.0,1.0,1.0,386.1347050001313,1.0,1.0,part_1,,,,,,,,,,,,,white,triangle
218.0,3.0,3.0,0.0,1.0,1.0,464.9625399999877,1.0,1.0,part_1,,,,,,,,,,,,,yellow,diamond
0.0,5.0,0.0,1.0,4.0,4.0,601.3674400001037,1.0,1.0,part_1,,,,,,,,,,,,,orange,I
115.0,2.0,2.0,0.0,3.0,3.0,332.5791139998273,1.0,1.0,part_1,,,,,,,,,,,,,cyan,flipped triangle
190.0,3.0,3.0,0.0,2.0,2.0,338.9857829999982,1.0,1.0,part_1,,,,,,,,,,,,,yellow,diamond
40.0,5.0,1.0,1.0,3.0,3.0,378.9918960001159,1.0,1.0,part_1,,,,,,,,,,,,,orange,I
0.0,7.0,0.0,1.0,1.0,1.0,464.3487189998723,1.0,1.0,part_1,,,,,,,,,,,,,magenta,circle
98.0,2.0,2.0,0.0,4.0,4.0,421.1605149998831,1.0,1.0,part_1,,,,,,,,,,,,,cyan,flipped triangle
418.0,4.0,4.0,0.0,3.0,3.0,510.8668220000254,1.0,1.0,part_1,,,,,,,,,,,,,white,triangle
91.0,6.0,2.0,1.0,2.0,2.0,342.4948389999827,1.0,1.0,part_1,,,,,,,,,,,,,gray,cross
0.0,6.0,0.0,1.0,2.0,2.0,434.440572000085,1.0,1.0,part_1,,,,,,,,,,,,,gray,cross
0.0,3.0,0.0,0.0,3.0,3.0,504.7391439998137,1.0,1.0,part_1,,,,,,,,,,,,,yellow,diamond
72.0,5.0,1.0,1.0,3.0,3.0,529.6048489999521,1.0,1.0,part_1,,,,,,,,,,,,,orange,I
42.0,5.0,1.0,1.0,3.0,3.0,405.8671650000178,1.0,1.0,part_1,,,,,,,,,,,,,orange,I
188.0,7.0,3.0,1.0,4.0,4.0,441.1150290000023,1.0,1.0,part_1,,,,,,,,,,,,,magenta,circle
0.0,8.0,0.0,1.0,1.0,1.0,388.1977519999964,1.0,1.0,part_1,,,,,,,,,,,,,blue,hexagon
0.0,6.0,0.0,1.0,1.0,1.0,376.9825530000616,1.0,1.0,part_1,,,,,,,,,,,,,gray,cross
106.0,2.0,2.0,0.0,3.0,3.0,371.4740269999765,1.0,1.0,part_1,,,,,,,,,,,,,cyan,flipped triangle
40.0,5.0,1.0,1.0,2.0,2.0,344.7283519999473,1.0,1.0,part_1,,,,,,,,,,,,,orange,I
421.0,4.0,4.0,0.0,3.0,3.0,642.4952720001329,1.0,1.0,part_1,,,,,,,,,,,,,white,triangle
403.0,4.0,4.0,0.0,1.0,1.0,516.9077269999889,1.0,1.0,part_1,,,,,,,,,,,,,white,triangle
31.0,5.0,1.0,1.0,4.0,4.0,426.6601700001047,1.0,1.0,part_1,,,,,,,,,,,,,orange,I
87.0,2.0,2.0,0.0,1.0,1.0,606.646026999897,1.0,1.0,part_1,,,,,,,,,,,,,cyan,flipped triangle
411.0,8.0,4.0,1.0,3.0,3.0,403.4691689998908,1.0,1.0,part_1,,,,,,,,,,,,,blue,hexagon
0.0,2.0,0.0,0.0,2.0,2.0,315.0038829999175,1.0,1.0,part_1,,,,,,,,,,,,,cyan,flipped triangle
98.0,2.0,2.0,0.0,1.0,1.0,343.5014940000656,1.0,1.0,part_1,,,,,,,,,,,,,cyan,flipped triangle
0.0,6.0,0.0,1.0,4.0,4.0,606.4505930003179,1.0,1.0,part_1,,,,,,,,,,,,,gray,cross
0.0,5.0,0.0,1.0,2.0,2.0,602.4654610000653,1.0,1.0,part_1,,,,,,,,,,,,,orange,I
29.0,5.0,1.0,1.0,2.0,2.0,382.7388039999277,1.0,1.0,part_1,,,,,,,,,,,,,orange,I
208.0,3.0,3.0,0.0,4.0,4.0,445.9180660001038,1.0,1.0,part_1,,,,,,,,,,,,,yellow,diamond
41.0,5.0,1.0,1.0,4.0,4.0,338.4501079999609,2.0,1.0,part_1,,,,,,,,,,,,,orange,I
175.0,7.0,3.0,1.0,1.0,1.0,403.206233000219,2.0,1.0,part_1,,,,,,,,,,,,,magenta,circle
381.0,8.0,4.0,1.0,2.0,2.0,311.1117939997712,2.0,1.0,part_1,,,,,,,,,,,,,blue,hexagon
208.0,7.0,3.0,1.0,1.0,1.0,394.4102039999961,2.0,1.0,part_1,,,,,,,,,,,,,magenta,circle
62.0,1.0,1.0,0.0,4.0,4.0,295.2148489998762,2.0,1.0,part_1,,,,,,,,,,,,,green,square
178.0,7.0,3.0,1.0,3.0,3.0,285.9896580002896,2.0,1.0,part_1,,,,,,,,,,,,,magenta,circle
222.0,7.0,3.0,1.0,4.0,4.0,311.446659000012,2.0,1.0,part_1,,,,,,,,,,,,,magenta,circle
95.0,6.0,2.0,1.0,1.0,1.0,235.6805119998171,2.0,1.0,part_1,,,,,,,,,,,,,gray,cross
378.0,4.0,4.0,0.0,3.0,3.0,350.4333050000241,2.0,1.0,part_1,,,,,,,,,,,,,white,triangle
201.0,7.0,3.0,1.0,2.0,2.0,349.16314700012657,2.0,1.0,part_1,,,,,,,,,,,,,magenta,circle
37.0,1.0,1.0,0.0,3.0,3.0,342.5418519996128,2.0,1.0,part_1,,,,,,,,,,,,,green,square
419.0,8.0,4.0,1.0,1.0,1.0,351.6132219997416,2.0,1.0,part_1,,,,,,,,,,,,,blue,hexagon
0.0,3.0,0.0,0.0,4.0,4.0,373.6199929999202,2.0,1.0,part_1,,,,,,,,,,,,,yellow,diamond
222.0,3.0,3.0,0.0,1.0,1.0,663.928894000037,2.0,1.0,part_1,,,,,,,,,,,,,yellow,diamond
203.0,3.0,3.0,0.0,3.0,3.0,384.1247899999871,2.0,2.0,part_1,,,,,,,,,,,,,yellow,diamond
102.0,6.0,2.0,1.0,1.0,1.0,460.8909059998041,2.0,1.0,part_1,,,,,,,,,,,,,gray,cross
50.0,5.0,1.0,1.0,4.0,4.0,407.4715100000503,2.0,1.0,part_1,,,,,,,,,,,,,orange,I
103.0,6.0,2.0,1.0,1.0,1.0,407.5102369997694,2.0,1.0,part_1,,,,,,,,,,,,,gray,cross
40.0,1.0,1.0,0.0,3.0,3.0,276.1680960002195,2.0,1.0,part_1,,,,,,,,,,,,,green,square
123.0,6.0,2.0,1.0,4.0,4.0,423.5547159996713,2.0,1.0,part_1,,,,,,,,,,,,,gray,cross
389.0,4.0,4.0,0.0,2.0,2.0,560.428057000081,2.0,2.0,part_1,,,,,,,,,,,,,white,triangle
201.0,3.0,3.0,0.0,3.0,3.0,525.7447009998941,2.0,1.0,part_1,,,,,,,,,,,,,yellow,diamond
393.0,4.0,4.0,0.0,4.0,4.0,454.3818040001497,2.0,1.0,part_1,,,,,,,,,,,,,white,triangle
90.0,6.0,2.0,1.0,4.0,4.0,442.9546960000152,2.0,1.0,part_1,,,,,,,,,,,,,gray,cross
196.0,3.0,3.0,0.0,1.0,1.0,513.1408030001694,2.0,1.0,part_1,,,,,,,,,,,,,yellow,diamond
60.0,5.0,1.0,1.0,3.0,3.0,594.6355669998411,2.0,1.0,part_1,,,,,,,,,,,,,orange,I
403.0,8.0,4.0,1.0,4.0,4.0,426.6399029997956,2.0,1.0,part_1,,,,,,,,,,,,,blue,hexagon
123.0,6.0,2.0,1.0,3.0,3.0,390.9037769999486,2.0,1.0,part_1,,,,,,,,,,,,,gray,cross
89.0,2.0,2.0,0.0,1.0,1.0,640.4398630002106,2.0,1.0,part_1,,,,,,,,,,,,,cyan,flipped triangle
53.0,5.0,1.0,1.0,3.0,3.0,561.2405080000826,2.0,1.0,part_1,,,,,,,,,,,,,orange,I
30.0,1.0,1.0,0.0,2.0,2.0,385.0428159998955,2.0,1.0,part_1,,,,,,,,,,,,,green,square
0.0,6.0,0.0,1.0,3.0,3.0,382.1758119997867,2.0,1.0,part_1,,,,,,,,,,,,,gray,cross
0.0,5.0,0.0,1.0,4.0,4.0,364.5563269997183,2.0,1.0,part_1,,,,,,,,,,,,,orange,I
222.0,3.0,3.0,0.0,4.0,4.0,439.1523879999113,2.0,1.0,part_1,,,,,,,,,,,,,yellow,diamond
58.0,5.0,1.0,1.0,1.0,1.0,454.077277000124,2.0,1.0,part_1,,,,,,,,,,,,,orange,I
78.0,6.0,2.0,1.0,4.0,4.0,625.1457110001866,2.0,1.0,part_1,,,,,,,,,,,,,gray,cross
183.0,7.0,3.0,1.0,2.0,2.0,800.0667080000312,2.0,1.0,part_1,,,,,,,,,,,,,magenta,circle
112.0,6.0,2.0,1.0,4.0,4.0,327.4525510000785,2.0,1.0,part_1,,,,,,,,,,,,,gray,cross
28.0,1.0,1.0,0.0,1.0,1.0,400.4745370002638,2.0,1.0,part_1,,,,,,,,,,,,,green,square
82.0,2.0,2.0,0.0,1.0,1.0,458.1559429998378,2.0,1.0,part_1,,,,,,,,,,,,,cyan,flipped triangle
46.0,5.0,1.0,1.0,1.0,1.0,541.7247099999258,2.0,1.0,part_1,,,,,,,,,,,,,orange,I
413.0,4.0,4.0,0.0,4.0,4.0,440.4116690002411,2.0,1.0,part_1,,,,,,,,,,,,,white,triangle
28.0,5.0,1.0,1.0,2.0,2.0,433.6422260003019,2.0,1.0,part_1,,,,,,,,,,,,,orange,I
58.0,1.0,1.0,0.0,4.0,4.0,378.6069759999009,2.0,1.0,part_1,,,,,,,,,,,,,green,square
183.0,3.0,3.0,0.0,3.0,3.0,648.7982539997574,2.0,1.0,part_1,,,,,,,,,,,,,yellow,diamond
0.0,7.0,0.0,1.0,1.0,1.0,323.7384169997312,2.0,1.0,part_1,,,,,,,,,,,,,magenta,circle
188.0,3.0,3.0,0.0,2.0,2.0,485.3671790001499,2.0,1.0,part_1,,,,,,,,,,,,,yellow,diamond
201.0,7.0,3.0,1.0,4.0,4.0,505.10455499988893,2.0,1.0,part_1,,,,,,,,,,,,,magenta,circle
405.0,4.0,4.0,0.0,2.0,2.0,477.328571000271,2.0,1.0,part_1,,,,,,,,,,,,,white,triangle
73.0,1.0,1.0,0.0,3.0,3.0,432.2381470001346,2.0,1.0,part_1,,,,,,,,,,,,,green,square
182.0,3.0,3.0,0.0,4.0,4.0,408.5265590001654,2.0,1.0,part_1,,,,,,,,,,,,,yellow,diamond
220.0,7.0,3.0,1.0,4.0,4.0,429.0206410000792,2.0,1.0,part_1,,,,,,,,,,,,,magenta,circle
418.0,8.0,4.0,1.0,3.0,3.0,485.8727309997448,2.0,1.0,part_1,,,,,,,,,,,,,blue,hexagon
58.0,1.0,1.0,0.0,4.0,4.0,399.4068669999251,2.0,1.0,part_1,,,,,,,,,,,,,green,square
0.0,5.0,0.0,1.0,3.0,3.0,800.9512720000203,2.0,1.0,part_1,,,,,,,,,,,,,orange,I
49.0,5.0,1.0,1.0,4.0,4.0,461.087624999891,2.0,1.0,part_1,,,,,,,,,,,,,orange,I
376.0,8.0,4.0,1.0,2.0,2.0,448.5578190001433,2.0,1.0,part_1,,,,,,,,,,,,,blue,hexagon
403.0,8.0,4.0,1.0,2.0,2.0,543.8647400001173,2.0,1.0,part_1,,,,,,,,,,,,,blue,hexagon
0.0,5.0,0.0,1.0,1.0,1.0,480.375763000211,2.0,1.0,part_1,,,,,,,,,,,,,orange,I
400.0,4.0,4.0,0.0,2.0,2.0,440.0404970001546,2.0,1.0,part_1,,,,,,,,,,,,,white,triangle
201.0,7.0,3.0,1.0,1.0,1.0,417.0404340002278,2.0,1.0,part_1,,,,,,,,,,,,,magenta,circle
389.0,4.0,4.0,0.0,1.0,1.0,379.9006059998646,2.0,1.0,part_1,,,,,,,,,,,,,white,triangle
219.0,7.0,3.0,1.0,3.0,3.0,320.1156059999448,2.0,1.0,part_1,,,,,,,,,,,,,magenta,circle
412.0,4.0,4.0,0.0,3.0,3.0,480.8851469997535,2.0,1.0,part_1,,,,,,,,,,,,,white,triangle
192.0,7.0,3.0,1.0,1.0,1.0,403.3132690001366,2.0,1.0,part_1,,,,,,,,,,,,,magenta,circle
58.0,5.0,1.0,1.0,1.0,1.0,348.2744960001582,2.0,1.0,part_1,,,,,,,,,,,,,orange,I
95.0,2.0,2.0,0.0,4.0,4.0,381.3013089998094,2.0,1.0,part_1,,,,,,,,,,,,,cyan,flipped triangle
210.0,7.0,3.0,1.0,1.0,1.0,360.1072719998228,2.0,1.0,part_1,,,,,,,,,,,,,magenta,circle
95.0,2.0,2.0,0.0,4.0,4.0,348.130896999919,2.0,1.0,part_1,,,,,,,,,,,,,cyan,flipped triangle
385.0,8.0,4.0,1.0,2.0,2.0,451.1502029999974,2.0,1.0,part_1,,,,,,,,,,,,,blue,hexagon
201.0,3.0,3.0,0.0,3.0,3.0,470.0643399996806,2.0,1.0,part_1,,,,,,,,,,,,,yellow,diamond
197.0,3.0,3.0,0.0,2.0,2.0,416.7743499997414,2.0,1.0,part_1,,,,,,,,,,,,,yellow,diamond
412.0,8.0,4.0,1.0,3.0,3.0,463.7842010001805,2.0,1.0,part_1,,,,,,,,,,,,,blue,hexagon
384.0,8.0,4.0,1.0,4.0,4.0,335.2368230002867,2.0,1.0,part_1,,,,,,,,,,,,,blue,hexagon
0.0,4.0,0.0,0.0,1.0,1.0,292.0423370001117,2.0,1.0,part_1,,,,,,,,,,,,,white,triangle
220.0,3.0,3.0,0.0,4.0,4.0,652.5429009998334,2.0,1.0,part_1,,,,,,,,,,,,,yellow,diamond
378.0,8.0,4.0,1.0,1.0,1.0,340.4896810002356,2.0,1.0,part_1,,,,,,,,,,,,,blue,hexagon
393.0,8.0,4.0,1.0,4.0,4.0,375.7602769996992,2.0,1.0,part_1,,,,,,,,,,,,,blue,hexagon
0.0,1.0,0.0,0.0,2.0,2.0,363.8806180001666,2.0,1.0,part_1,,,,,,,,,,,,,green,square
214.0,7.0,3.0,1.0,1.0,1.0,620.1948359998823,2.0,1.0,part_1,,,,,,,,,,,,,magenta,circle
0.0,7.0,0.0,1.0,4.0,4.0,384.979334000036,2.0,1.0,part_1,,,,,,,,,,,,,magenta,circle
0.0,5.0,0.0,1.0,1.0,1.0,329.4140900002276,2.0,1.0,part_1,,,,,,,,,,,,,orange,I
69.0,5.0,1.0,1.0,4.0,4.0,579.9622589997853,2.0,1.0,part_1,,,,,,,,,,,,,orange,I
0.0,3.0,0.0,0.0,3.0,3.0,571.9306389996746,2.0,1.0,part_1,,,,,,,,,,,,,yellow,diamond
209.0,7.0,3.0,1.0,1.0,1.0,478.8379730002816,2.0,1.0,part_1,,,,,,,,,,,,,magenta,circle
0.0,3.0,0.0,0.0,2.0,2.0,473.8893349999671,2.0,1.0,part_1,,,,,,,,,,,,,yellow,diamond
0.0,1.0,0.0,0.0,3.0,3.0,349.1201279998677,2.0,1.0,part_1,,,,,,,,,,,,,green,square
394.0,4.0,4.0,0.0,1.0,1.0,428.7932489996819,2.0,1.0,part_1,,,,,,,,,,,,,white,triangle
381.0,8.0,4.0,1.0,4.0,4.0,355.5841480001618,2.0,1.0,part_1,,,,,,,,,,,,,blue,hexagon
210.0,3.0,3.0,0.0,4.0,4.0,556.6416570000001,2.0,1.0,part_1,,,,,,,,,,,,,yellow,diamond
78.0,2.0,2.0,0.0,4.0,4.0,506.70658900025956,2.0,1.0,part_1,,,,,,,,,,,,,cyan,flipped triangle
117.0,6.0,2.0,1.0,1.0,1.0,354.341629999908,2.0,1.0,part_1,,,,,,,,,,,,,gray,cross
421.0,8.0,4.0,1.0,3.0,3.0,374.6445669999048,2.0,1.0,part_1,,,,,,,,,,,,,blue,hexagon
178.0,3.0,3.0,0.0,3.0,3.0,382.6739229998566,2.0,1.0,part_1,,,,,,,,,,,,,yellow,diamond
0.0,6.0,0.0,1.0,2.0,2.0,350.8978429999843,2.0,1.0,part_1,,,,,,,,,,,,,gray,cross
421.0,8.0,4.0,1.0,1.0,1.0,394.1292769995925,2.0,1.0,part_1,,,,,,,,,,,,,blue,hexagon
53.0,1.0,1.0,0.0,1.0,1.0,433.9314909998393,2.0,1.0,part_1,,,,,,,,,,,,,green,square
416.0,8.0,4.0,1.0,4.0,4.0,391.2393299997347,2.0,1.0,part_1,,,,,,,,,,,,,blue,hexagon
424.0,8.0,4.0,1.0,1.0,1.0,353.0294319998575,2.0,1.0,part_1,,,,,,,,,,,,,blue,hexagon
30.0,5.0,1.0,1.0,1.0,1.0,360.2504609998505,2.0,1.0,part_1,,,,,,,,,,,,,orange,I
199.0,3.0,3.0,0.0,4.0,4.0,525.13728599979,3.0,1.0,part_1,,,,,,,,,,,,,yellow,diamond
60.0,1.0,1.0,0.0,4.0,4.0,372.3809859998255,3.0,1.0,part_1,,,,,,,,,,,,,green,square
110.0,6.0,2.0,1.0,1.0,1.0,334.7810449999997,3.0,1.0,part_1,,,,,,,,,,,,,gray,cross
186.0,7.0,3.0,1.0,4.0,4.0,340.1116950003597,3.0,1.0,part_1,,,,,,,,,,,,,magenta,circle
396.0,4.0,4.0,0.0,3.0,3.0,433.3676299997933,3.0,1.0,part_1,,,,,,,,,,,,,white,triangle
85.0,2.0,2.0,0.0,3.0,3.0,408.0193469999358,3.0,1.0,part_1,,,,,,,,,,,,,cyan,flipped triangle
0.0,2.0,0.0,0.0,3.0,3.0,372.502822000115,3.0,1.0,part_1,,,,,,,,,,,,,cyan,flipped triangle
115.0,6.0,2.0,1.0,3.0,3.0,366.1028910000823,3.0,1.0,part_1,,,,,,,,,,,,,gray,cross
104.0,6.0,2.0,1.0,3.0,3.0,388.3129430000736,3.0,1.0,part_1,,,,,,,,,,,,,gray,cross
0.0,8.0,0.0,1.0,1.0,1.0,485.2082630000041,3.0,1.0,part_1,,,,,,,,,,,,,blue,hexagon
103.0,2.0,2.0,0.0,1.0,1.0,756.919404999735,3.0,1.0,part_1,,,,,,,,,,,,,cyan,flipped triangle
50.0,5.0,1.0,1.0,1.0,1.0,624.5149629999105,3.0,1.0,part_1,,,,,,,,,,,,,orange,I
0.0,7.0,0.0,1.0,3.0,3.0,466.8053760001385,3.0,1.0,part_1,,,,,,,,,,,,,magenta,circle
84.0,2.0,2.0,0.0,2.0,2.0,402.2749559999283,3.0,1.0,part_1,,,,,,,,,,,,,cyan,flipped triangle
384.0,4.0,4.0,0.0,1.0,1.0,331.0553930000424,3.0,1.0,part_1,,,,,,,,,,,,,white,triangle
0.0,4.0,0.0,0.0,3.0,3.0,504.12978499980454,3.0,1.0,part_1,,,,,,,,,,,,,white,triangle
30.0,5.0,1.0,1.0,4.0,4.0,346.2780280001425,3.0,1.0,part_1,,,,,,,,,,,,,orange,I
79.0,2.0,2.0,0.0,1.0,1.0,331.8624829998953,3.0,1.0,part_1,,,,,,,,,,,,,cyan,flipped triangle
28.0,5.0,1.0,1.0,2.0,2.0,554.2434180001692,3.0,1.0,part_1,,,,,,,,,,,,,orange,I
107.0,2.0,2.0,0.0,2.0,2.0,600.3702439998051,3.0,1.0,part_1,,,,,,,,,,,,,cyan,flipped triangle
422.0,4.0,4.0,0.0,2.0,2.0,344.3304900001749,3.0,1.0,part_1,,,,,,,,,,,,,white,triangle
412.0,8.0,4.0,1.0,4.0,4.0,440.4238209999676,3.0,1.0,part_1,,,,,,,,,,,,,blue,hexagon
123.0,2.0,2.0,0.0,2.0,2.0,441.6724430002432,3.0,1.0,part_1,,,,,,,,,,,,,cyan,flipped triangle
0.0,2.0,0.0,0.0,2.0,2.0,397.8831330000503,3.0,1.0,part_1,,,,,,,,,,,,,cyan,flipped triangle
0.0,4.0,0.0,0.0,3.0,3.0,605.1947010000731,3.0,1.0,part_1,,,,,,,,,,,,,white,triangle
418.0,4.0,4.0,0.0,1.0,1.0,393.6551159999908,3.0,1.0,part_1,,,,,,,,,,,,,white,triangle
387.0,4.0,4.0,0.0,4.0,4.0,354.7836210000241,3.0,1.0,part_1,,,,,,,,,,,,,white,triangle
400.0,8.0,4.0,1.0,3.0,3.0,606.0503099997732,3.0,1.0,part_1,,,,,,,,,,,,,blue,hexagon
104.0,2.0,2.0,0.0,1.0,1.0,559.365987000092,3.0,1.0,part_1,,,,,,,,,,,,,cyan,flipped triangle
411.0,4.0,4.0,0.0,4.0,4.0,372.1593010000106,3.0,2.0,part_1,,,,,,,,,,,,,white,triangle
46.0,1.0,1.0,0.0,1.0,1.0,538.9196979999724,3.0,1.0,part_1,,,,,,,,,,,,,green,square
218.0,7.0,3.0,1.0,2.0,2.0,457.4392760000592,3.0,1.0,part_1,,,,,,,,,,,,,magenta,circle
90.0,6.0,2.0,1.0,2.0,2.0,479.6048980001615,3.0,1.0,part_1,,,,,,,,,,,,,gray,cross
0.0,8.0,0.0,1.0,1.0,1.0,503.5344839998288,3.0,1.0,part_1,,,,,,,,,,,,,blue,hexagon
0.0,7.0,0.0,1.0,1.0,1.0,385.8880220000173,3.0,1.0,part_1,,,,,,,,,,,,,magenta,circle
115.0,2.0,2.0,0.0,4.0,4.0,382.7105489999667,3.0,1.0,part_1,,,,,,,,,,,,,cyan,flipped triangle
0.0,4.0,0.0,0.0,4.0,4.0,315.7771340002,3.0,1.0,part_1,,,,,,,,,,,,,white,triangle
220.0,7.0,3.0,1.0,2.0,2.0,414.4641960001536,3.0,1.0,part_1,,,,,,,,,,,,,magenta,circle
97.0,6.0,2.0,1.0,4.0,4.0,383.3317539997551,3.0,1.0,part_1,,,,,,,,,,,,,gray,cross
384.0,4.0,4.0,0.0,2.0,2.0,424.938812000164,3.0,1.0,part_1,,,,,,,,,,,,,white,triangle
389.0,8.0,4.0,1.0,2.0,2.0,408.7112659999548,3.0,1.0,part_1,,,,,,,,,,,,,blue,hexagon
213.0,7.0,3.0,1.0,1.0,1.0,385.6338679997861,3.0,1.0,part_1,,,,,,,,,,,,,magenta,circle
185.0,3.0,3.0,0.0,1.0,1.0,424.4365439999455,3.0,1.0,part_1,,,,,,,,,,,,,yellow,diamond
87.0,6.0,2.0,1.0,3.0,3.0,533.9680179999959,3.0,1.0,part_1,,,,,,,,,,,,,gray,cross
0.0,6.0,0.0,1.0,1.0,1.0,323.1345300000612,3.0,1.0,part_1,,,,,,,,,,,,,gray,cross
0.0,2.0,0.0,0.0,4.0,4.0,381.0695900001519,3.0,1.0,part_1,,,,,,,,,,,,,cyan,flipped triangle
52.0,1.0,1.0,0.0,2.0,2.0,393.6659189998863,3.0,1.0,part_1,,,,,,,,,,,,,green,square
41.0,1.0,1.0,0.0,2.0,2.0,396.2752659999751,3.0,1.0,part_1,,,,,,,,,,,,,green,square
403.0,4.0,4.0,0.0,2.0,2.0,459.9879620000138,3.0,1.0,part_1,,,,,,,,,,,,,white,triangle
389.0,4.0,4.0,0.0,4.0,4.0,556.668198999887,3.0,1.0,part_1,,,,,,,,,,,,,white,triangle
0.0,7.0,0.0,1.0,2.0,2.0,576.6900660000829,3.0,1.0,part_1,,,,,,,,,,,,,magenta,circle
84.0,6.0,2.0,1.0,4.0,4.0,393.6532489997262,3.0,1.0,part_1,,,,,,,,,,,,,gray,cross
179.0,7.0,3.0,1.0,2.0,2.0,412.0783769999434,3.0,1.0,part_1,,,,,,,,,,,,,magenta,circle
396.0,8.0,4.0,1.0,4.0,4.0,574.9794979997205,3.0,1.0,part_1,,,,,,,,,,,,,blue,hexagon
72.0,1.0,1.0,0.0,4.0,4.0,378.966881999986,3.0,1.0,part_1,,,,,,,,,,,,,green,square
0.0,3.0,0.0,0.0,3.0,3.0,398.3591779997368,3.0,1.0,part_1,,,,,,,,,,,,,yellow,diamond
100.0,2.0,2.0,0.0,4.0,4.0,345.4606099999182,3.0,1.0,part_1,,,,,,,,,,,,,cyan,flipped triangle
409.0,4.0,4.0,0.0,4.0,4.0,499.7595849999925,3.0,1.0,part_1,,,,,,,,,,,,,white,triangle
381.0,4.0,4.0,0.0,3.0,3.0,343.8420409997889,3.0,1.0,part_1,,,,,,,,,,,,,white,triangle
179.0,7.0,3.0,1.0,2.0,2.0,520.6981689998429,3.0,1.0,part_1,,,,,,,,,,,,,magenta,circle
0.0,2.0,0.0,0.0,4.0,4.0,357.4012530002619,3.0,1.0,part_1,,,,,,,,,,,,,cyan,flipped triangle
377.0,8.0,4.0,1.0,1.0,1.0,458.2816419997471,3.0,1.0,part_1,,,,,,,,,,,,,blue,hexagon
0.0,1.0,0.0,0.0,4.0,4.0,328.531607000059,3.0,1.0,part_1,,,,,,,,,,,,,green,square
117.0,2.0,2.0,0.0,2.0,2.0,326.6800709998279,3.0,1.0,part_1,,,,,,,,,,,,,cyan,flipped triangle
0.0,2.0,0.0,0.0,1.0,1.0,437.9600649999702,3.0,1.0,part_1,,,,,,,,,,,,,cyan,flipped triangle
178.0,3.0,3.0,0.0,3.0,3.0,408.2694929998069,3.0,1.0,part_1,,,,,,,,,,,,,yellow,diamond
61.0,5.0,1.0,1.0,2.0,2.0,370.9446359998765,3.0,1.0,part_1,,,,,,,,,,,,,orange,I
187.0,7.0,3.0,1.0,3.0,3.0,396.7787990000033,3.0,1.0,part_1,,,,,,,,,,,,,magenta,circle
71.0,1.0,1.0,0.0,3.0,3.0,589.5693420002317,3.0,1.0,part_1,,,,,,,,,,,,,green,square
212.0,7.0,3.0,1.0,2.0,2.0,357.6590689999648,3.0,1.0,part_1,,,,,,,,,,,,,magenta,circle
83.0,2.0,2.0,0.0,4.0,4.0,397.8629329999421,3.0,1.0,part_1,,,,,,,,,,,,,cyan,flipped triangle
187.0,3.0,3.0,0.0,1.0,1.0,336.3654319996385,3.0,1.0,part_1,,,,,,,,,,,,,yellow,diamond
124.0,6.0,2.0,1.0,3.0,3.0,452.5517999995827,3.0,1.0,part_1,,,,,,,,,,,,,gray,cross
0.0,5.0,0.0,1.0,4.0,4.0,435.6545030000234,3.0,1.0,part_1,,,,,,,,,,,,,orange,I
219.0,3.0,3.0,0.0,2.0,2.0,356.9463859998905,3.0,1.0,part_1,,,,,,,,,,,,,yellow,diamond
102.0,2.0,2.0,0.0,3.0,3.0,964.0475300002436,3.0,1.0,part_1,,,,,,,,,,,,,cyan,flipped triangle
0.0,2.0,0.0,0.0,2.0,2.0,422.3634810000476,3.0,1.0,part_1,,,,,,,,,,,,,cyan,flipped triangle
107.0,6.0,2.0,1.0,2.0,2.0,444.9920679999195,3.0,1.0,part_1,,,,,,,,,,,,,gray,cross
79.0,6.0,2.0,1.0,2.0,2.0,309.8232080001253,3.0,1.0,part_1,,,,,,,,,,,,,gray,cross
0.0,4.0,0.0,0.0,3.0,3.0,308.6504689999856,3.0,1.0,part_1,,,,,,,,,,,,,white,triangle
421.0,4.0,4.0,0.0,3.0,3.0,376.1167759998898,3.0,1.0,part_1,,,,,,,,,,,,,white,triangle
220.0,3.0,3.0,0.0,1.0,1.0,278.7146799996662,3.0,1.0,part_1,,,,,,,,,,,,,yellow,diamond
0.0,8.0,0.0,1.0,4.0,4.0,320.027065999966,3.0,1.0,part_1,,,,,,,,,,,,,blue,hexagon
50.0,1.0,1.0,0.0,1.0,1.0,328.838581999662,3.0,1.0,part_1,,,,,,,,,,,,,green,square
200.0,7.0,3.0,1.0,2.0,2.0,438.2925060003799,3.0,1.0,part_1,,,,,,,,,,,,,magenta,circle
90.0,2.0,2.0,0.0,3.0,3.0,336.0064369999236,3.0,1.0,part_1,,,,,,,,,,,,,cyan,flipped triangle
418.0,4.0,4.0,0.0,1.0,1.0,425.1959819998774,3.0,1.0,part_1,,,,,,,,,,,,,white,triangle
422.0,4.0,4.0,0.0,4.0,4.0,314.3651659997886,3.0,1.0,part_1,,,,,,,,,,,,,white,triangle
37.0,5.0,1.0,1.0,1.0,1.0,659.3857490001938,3.0,1.0,part_1,,,,,,,,,,,,,orange,I
115.0,6.0,2.0,1.0,2.0,2.0,653.2070460002615,3.0,1.0,part_1,,,,,,,,,,,,,gray,cross
0.0,7.0,0.0,1.0,4.0,4.0,437.8750060000129,3.0,1.0,part_1,,,,,,,,,,,,,magenta,circle
98.0,6.0,2.0,1.0,1.0,1.0,451.9268629996986,3.0,1.0,part_1,,,,,,,,,,,,,gray,cross
422.0,8.0,4.0,1.0,3.0,3.0,395.440721000341,3.0,1.0,part_1,,,,,,,,,,,,,blue,hexagon
179.0,3.0,3.0,0.0,1.0,1.0,268.4187800000472,3.0,1.0,part_1,,,,,,,,,,,,,yellow,diamond
0.0,8.0,0.0,1.0,3.0,3.0,365.0028769998243,3.0,1.0,part_1,,,,,,,,,,,,,blue,hexagon
0.0,2.0,0.0,0.0,4.0,4.0,339.0739820001727,3.0,1.0,part_1,,,,,,,,,,,,,cyan,flipped triangle
214.0,7.0,3.0,1.0,3.0,3.0,378.3765039997888,3.0,1.0,part_1,,,,,,,,,,,,,magenta,circle
89.0,2.0,2.0,0.0,3.0,3.0,359.1392839998661,3.0,1.0,part_1,,,,,,,,,,,,,cyan,flipped triangle
186.0,3.0,3.0,0.0,4.0,4.0,408.8935330000822,3.0,1.0,part_1,,,,,,,,,,,,,yellow,diamond
66.0,1.0,1.0,0.0,2.0,2.0,395.9166459999323,3.0,1.0,part_1,,,,,,,,,,,,,green,square
61.0,1.0,1.0,0.0,3.0,3.0,547.5676040000508,4.0,1.0,part_1,,,,,,,,,,,,,green,square
71.0,5.0,1.0,1.0,3.0,3.0,350.9233170002517,4.0,1.0,part_1,,,,,,,,,,,,,orange,I
182.0,7.0,3.0,1.0,1.0,1.0,516.5651130000697,4.0,1.0,part_1,,,,,,,,,,,,,magenta,circle
118.0,2.0,2.0,0.0,3.0,3.0,320.4885000000104,4.0,1.0,part_1,,,,,,,,,,,,,cyan,flipped triangle
66.0,5.0,1.0,1.0,1.0,1.0,300.0247939999099,4.0,1.0,part_1,,,,,,,,,,,,,orange,I
376.0,4.0,4.0,0.0,3.0,3.0,299.5793579998462,4.0,1.0,part_1,,,,,,,,,,,,,white,triangle
83.0,6.0,2.0,1.0,2.0,2.0,374.3688609997662,4.0,1.0,part_1,,,,,,,,,,,,,gray,cross
95.0,2.0,2.0,0.0,2.0,2.0,342.9704440000023,4.0,1.0,part_1,,,,,,,,,,,,,cyan,flipped triangle
100.0,6.0,2.0,1.0,2.0,2.0,362.3120279999057,4.0,1.0,part_1,,,,,,,,,,,,,gray,cross
179.0,3.0,3.0,0.0,1.0,1.0,417.2113730001001,4.0,2.0,part_1,,,,,,,,,,,,,yellow,diamond
206.0,3.0,3.0,0.0,2.0,2.0,388.0377430000408,4.0,1.0,part_1,,,,,,,,,,,,,yellow,diamond
0.0,8.0,0.0,1.0,2.0,2.0,499.2694379998283,4.0,1.0,part_1,,,,,,,,,,,,,blue,hexagon
416.0,4.0,4.0,0.0,2.0,2.0,517.5324709998677,4.0,1.0,part_1,,,,,,,,,,,,,white,triangle
0.0,1.0,0.0,0.0,2.0,2.0,316.9922679999217,4.0,1.0,part_1,,,,,,,,,,,,,green,square
46.0,1.0,1.0,0.0,4.0,4.0,418.4138549999261,4.0,1.0,part_1,,,,,,,,,,,,,green,square
68.0,5.0,1.0,1.0,3.0,3.0,497.0953269998972,4.0,1.0,part_1,,,,,,,,,,,,,orange,I
89.0,6.0,2.0,1.0,4.0,4.0,478.5007839996069,4.0,1.0,part_1,,,,,,,,,,,,,gray,cross
112.0,2.0,2.0,0.0,4.0,4.0,403.842670999893,4.0,1.0,part_1,,,,,,,,,,,,,cyan,flipped triangle
74.0,1.0,1.0,0.0,3.0,3.0,533.3932409998852,4.0,1.0,part_1,,,,,,,,,,,,,green,square
0.0,8.0,0.0,1.0,4.0,4.0,394.2751499998849,4.0,1.0,part_1,,,,,,,,,,,,,blue,hexagon
70.0,5.0,1.0,1.0,4.0,4.0,357.4201729998094,4.0,1.0,part_1,,,,,,,,,,,,,orange,I
184.0,7.0,3.0,1.0,4.0,4.0,411.8686299998444,4.0,1.0,part_1,,,,,,,,,,,,,magenta,circle
418.0,8.0,4.0,1.0,3.0,3.0,386.4503209997565,4.0,1.0,part_1,,,,,,,,,,,,,blue,hexagon
0.0,2.0,0.0,0.0,1.0,1.0,505.7626320003692,4.0,1.0,part_1,,,,,,,,,,,,,cyan,flipped triangle
0.0,3.0,0.0,0.0,1.0,1.0,474.9354989999119,4.0,1.0,part_1,,,,,,,,,,,,,yellow,diamond
397.0,8.0,4.0,1.0,3.0,3.0,751.3082540003779,4.0,1.0,part_1,,,,,,,,,,,,,blue,hexagon
121.0,2.0,2.0,0.0,2.0,2.0,491.2535899998147,4.0,1.0,part_1,,,,,,,,,,,,,cyan,flipped triangle
0.0,3.0,0.0,0.0,4.0,4.0,521.4034709997577,4.0,1.0,part_1,,,,,,,,,,,,,yellow,diamond
28.0,1.0,1.0,0.0,1.0,1.0,453.2125099999575,4.0,1.0,part_1,,,,,,,,,,,,,green,square
214.0,3.0,3.0,0.0,2.0,2.0,297.7087280000887,4.0,1.0,part_1,,,,,,,,,,,,,yellow,diamond
378.0,4.0,4.0,0.0,4.0,4.0,389.1318880000654,4.0,1.0,part_1,,,,,,,,,,,,,white,triangle
0.0,7.0,0.0,1.0,3.0,3.0,0.30415199989869995,4.0,1.0,part_1,,,,,,,,,,,,,magenta,circle
0.0,4.0,0.0,0.0,3.0,3.0,466.4620300000024,4.0,1.0,part_1,,,,,,,,,,,,,white,triangle
85.0,6.0,2.0,1.0,3.0,3.0,394.3260169999121,4.0,1.0,part_1,,,,,,,,,,,,,gray,cross
200.0,3.0,3.0,0.0,1.0,1.0,309.4466899997314,4.0,1.0,part_1,,,,,,,,,,,,,yellow,diamond
0.0,4.0,0.0,0.0,4.0,4.0,405.8225589997164,4.0,1.0,part_1,,,,,,,,,,,,,white,triangle
46.0,5.0,1.0,1.0,1.0,1.0,452.4855590002516,4.0,1.0,part_1,,,,,,,,,,,,,orange,I
201.0,3.0,3.0,0.0,3.0,3.0,452.2121119998701,4.0,1.0,part_1,,,,,,,,,,,,,yellow,diamond
0.0,8.0,0.0,1.0,1.0,1.0,423.7715650001519,4.0,1.0,part_1,,,,,,,,,,,,,blue,hexagon
199.0,7.0,3.0,1.0,3.0,3.0,426.9405690001804,4.0,1.0,part_1,,,,,,,,,,,,,magenta,circle
82.0,6.0,2.0,1.0,1.0,1.0,333.926220000194,4.0,1.0,part_1,,,,,,,,,,,,,gray,cross
0.0,6.0,0.0,1.0,1.0,1.0,555.6744830000753,4.0,1.0,part_1,,,,,,,,,,,,,gray,cross
0.0,1.0,0.0,0.0,1.0,1.0,533.0325540003287,4.0,1.0,part_1,,,,,,,,,,,,,green,square
72.0,1.0,1.0,0.0,4.0,4.0,677.0388080003613,4.0,1.0,part_1,,,,,,,,,,,,,green,square
73.0,5.0,1.0,1.0,2.0,2.0,407.4938950002433,4.0,1.0,part_1,,,,,,,,,,,,,orange,I
409.0,8.0,4.0,1.0,2.0,2.0,407.5081510000018,4.0,1.0,part_1,,,,,,,,,,,,,blue,hexagon
222.0,7.0,3.0,1.0,1.0,1.0,350.1817769997615,4.0,1.0,part_1,,,,,,,,,,,,,magenta,circle
220.0,3.0,3.0,0.0,2.0,2.0,437.061574999916,4.0,1.0,part_1,,,,,,,,,,,,,yellow,diamond
418.0,8.0,4.0,1.0,1.0,1.0,470.9047490000557,4.0,1.0,part_1,,,,,,,,,,,,,blue,hexagon
0.0,1.0,0.0,0.0,2.0,2.0,497.3543539999809,4.0,1.0,part_1,,,,,,,,,,,,,green,square
121.0,6.0,2.0,1.0,3.0,3.0,438.5475740000402,4.0,2.0,part_1,,,,,,,,,,,,,gray,cross
52.0,5.0,1.0,1.0,4.0,4.0,407.5009879998106,4.0,1.0,part_1,,,,,,,,,,,,,orange,I
58.0,1.0,1.0,0.0,2.0,2.0,287.2215980000874,4.0,1.0,part_1,,,,,,,,,,,,,green,square
220.0,7.0,3.0,1.0,3.0,3.0,372.7629360000719,4.0,1.0,part_1,,,,,,,,,,,,,magenta,circle
117.0,6.0,2.0,1.0,3.0,3.0,313.2126730001801,4.0,1.0,part_1,,,,,,,,,,,,,gray,cross
70.0,1.0,1.0,0.0,1.0,1.0,552.9709120000916,4.0,1.0,part_1,,,,,,,,,,,,,green,square
377.0,8.0,4.0,1.0,4.0,4.0,324.0026799999214,4.0,1.0,part_1,,,,,,,,,,,,,blue,hexagon
412.0,4.0,4.0,0.0,1.0,1.0,385.4108860000451,4.0,1.0,part_1,,,,,,,,,,,,,white,triangle
385.0,4.0,4.0,0.0,4.0,4.0,362.3203289998855,4.0,1.0,part_1,,,,,,,,,,,,,white,triangle
123.0,2.0,2.0,0.0,4.0,4.0,355.5435119997128,4.0,1.0,part_1,,,,,,,,,,,,,cyan,flipped triangle
0.0,7.0,0.0,1.0,3.0,3.0,564.8728490000394,4.0,1.0,part_1,,,,,,,,,,,,,magenta,circle
95.0,6.0,2.0,1.0,3.0,3.0,516.6624180001236,4.0,1.0,part_1,,,,,,,,,,,,,gray,cross
76.0,2.0,2.0,0.0,2.0,2.0,696.9275589999597,4.0,1.0,part_1,,,,,,,,,,,,,cyan,flipped triangle
62.0,5.0,1.0,1.0,4.0,4.0,426.4409219999834,4.0,1.0,part_1,,,,,,,,,,,,,orange,I
204.0,7.0,3.0,1.0,4.0,4.0,410.4831310000918,4.0,1.0,part_1,,,,,,,,,,,,,magenta,circle
78.0,2.0,2.0,0.0,4.0,4.0,347.9884200000924,4.0,1.0,part_1,,,,,,,,,,,,,cyan,flipped triangle
34.0,1.0,1.0,0.0,3.0,3.0,353.9367029998175,4.0,1.0,part_1,,,,,,,,,,,,,green,square
185.0,7.0,3.0,1.0,2.0,2.0,339.0765719996125,4.0,1.0,part_1,,,,,,,,,,,,,magenta,circle
68.0,1.0,1.0,0.0,3.0,3.0,469.8362509998333,4.0,1.0,part_1,,,,,,,,,,,,,green,square
0.0,2.0,0.0,0.0,2.0,2.0,601.152307999655,4.0,1.0,part_1,,,,,,,,,,,,,cyan,flipped triangle
78.0,6.0,2.0,1.0,2.0,2.0,358.3732020001662,4.0,1.0,part_1,,,,,,,,,,,,,gray,cross
395.0,8.0,4.0,1.0,1.0,1.0,340.385083000001,4.0,1.0,part_1,,,,,,,,,,,,,blue,hexagon
377.0,4.0,4.0,0.0,2.0,2.0,366.8239679996077,4.0,1.0,part_1,,,,,,,,,,,,,white,triangle
90.0,2.0,2.0,0.0,3.0,3.0,348.6232180002844,4.0,1.0,part_1,,,,,,,,,,,,,cyan,flipped triangle
395.0,4.0,4.0,0.0,4.0,4.0,491.7153630003668,4.0,1.0,part_1,,,,,,,,,,,,,white,triangle
0.0,6.0,0.0,1.0,4.0,4.0,438.9605239998673,4.0,1.0,part_1,,,,,,,,,,,,,gray,cross
389.0,8.0,4.0,1.0,4.0,4.0,346.0637469997891,4.0,1.0,part_1,,,,,,,,,,,,,blue,hexagon
384.0,8.0,4.0,1.0,2.0,2.0,399.6727930002635,4.0,1.0,part_1,,,,,,,,,,,,,blue,hexagon
37.0,5.0,1.0,1.0,2.0,2.0,383.8896469997053,4.0,1.0,part_1,,,,,,,,,,,,,orange,I
397.0,4.0,4.0,0.0,1.0,1.0,355.062615999941,4.0,1.0,part_1,,,,,,,,,,,,,white,triangle
196.0,7.0,3.0,1.0,3.0,3.0,484.1497160000472,4.0,1.0,part_1,,,,,,,,,,,,,magenta,circle
74.0,5.0,1.0,1.0,2.0,2.0,322.0749749998504,4.0,1.0,part_1,,,,,,,,,,,,,orange,I
0.0,3.0,0.0,0.0,3.0,3.0,374.7548090000236,4.0,1.0,part_1,,,,,,,,,,,,,yellow,diamond
34.0,5.0,1.0,1.0,3.0,3.0,663.5583910001515,4.0,1.0,part_1,,,,,,,,,,,,,orange,I
58.0,5.0,1.0,1.0,1.0,1.0,408.4027959997911,4.0,1.0,part_1,,,,,,,,,,,,,orange,I
40.0,1.0,1.0,0.0,1.0,1.0,403.1322020000516,4.0,1.0,part_1,,,,,,,,,,,,,green,square
76.0,6.0,2.0,1.0,2.0,2.0,386.897862999831,4.0,1.0,part_1,,,,,,,,,,,,,gray,cross
69.0,1.0,1.0,0.0,1.0,1.0,418.0412189998606,4.0,1.0,part_1,,,,,,,,,,,,,green,square
98.0,6.0,2.0,1.0,4.0,4.0,514.6917179999946,4.0,1.0,part_1,,,,,,,,,,,,,gray,cross
197.0,7.0,3.0,1.0,3.0,3.0,507.93442000031064,4.0,1.0,part_1,,,,,,,,,,,,,magenta,circle
0.0,6.0,0.0,1.0,4.0,4.0,559.3221230001291,4.0,1.0,part_1,,,,,,,,,,,,,gray,cross
192.0,3.0,3.0,0.0,4.0,4.0,737.8952670001127,4.0,1.0,part_1,,,,,,,,,,,,,yellow,diamond
214.0,3.0,3.0,0.0,4.0,4.0,359.7802859999319,4.0,1.0,part_1,,,,,,,,,,,,,yellow,diamond
394.0,8.0,4.0,1.0,2.0,2.0,473.8722360002612,4.0,1.0,part_1,,,,,,,,,,,,,blue,hexagon
182.0,7.0,3.0,1.0,4.0,4.0,422.3371389998647,4.0,1.0,part_1,,,,,,,,,,,,,magenta,circle
209.0,3.0,3.0,0.0,3.0,3.0,507.3624519995974,4.0,1.0,part_1,,,,,,,,,,,,,yellow,diamond
424.0,4.0,4.0,0.0,2.0,2.0,309.6563320000314,4.0,1.0,part_1,,,,,,,,,,,,,white,triangle
0.0,1.0,0.0,0.0,3.0,3.0,380.6191890002992,4.0,1.0,part_1,,,,,,,,,,,,,green,square
50.0,1.0,1.0,0.0,2.0,2.0,420.2996760000133,4.0,1.0,part_1,,,,,,,,,,,,,green,square
0.0,1.0,0.0,0.0,3.0,3.0,403.7495510001463,4.0,1.0,part_1,,,,,,,,,,,,,green,square
0.0,5.0,1.0,1.0,5.0,0.0,0.0,1.0,0.0,part_2,stop,250.0,250.0,4.0,,,,,,,,,orange,I
0.0,2.0,2.0,0.0,6.0,6.0,591.8758440002421,1.0,0.0,part_2,go,300.0,250.0,1.0,,,,,,,,,cyan,flipped triangle
0.0,5.0,1.0,1.0,5.0,0.0,0.0,1.0,0.0,part_2,stop,300.0,250.0,4.0,,,,,,,,,orange,I
0.0,4.0,4.0,0.0,6.0,6.0,733.624231000249,1.0,0.0,part_2,go,350.0,250.0,1.0,,,,,,,,,white,triangle
0.0,1.0,1.0,0.0,5.0,5.0,1014.0056200002618,1.0,0.0,part_2,go,350.0,250.0,1.0,,,,,,,,,green,square
0.0,4.0,4.0,0.0,5.0,5.0,853.1107910002902,1.0,0.0,part_2,go,350.0,250.0,1.0,,,,,,,,,white,triangle
0.0,5.0,1.0,1.0,6.0,0.0,0.0,1.0,0.0,part_2,stop,350.0,250.0,4.0,,,,,,,,,orange,I
0.0,6.0,2.0,1.0,6.0,0.0,0.0,1.0,0.0,part_2,stop,350.0,300.0,4.0,,,,,,,,,gray,cross
0.0,2.0,2.0,0.0,6.0,6.0,807.0997179997903,1.0,0.0,part_2,go,350.0,350.0,1.0,,,,,,,,,cyan,flipped triangle
0.0,4.0,4.0,0.0,5.0,5.0,953.5287380003864,1.0,0.0,part_2,go,350.0,350.0,1.0,,,,,,,,,white,triangle
0.0,3.0,3.0,0.0,6.0,6.0,870.4617829998824,1.0,0.0,part_2,go,350.0,350.0,1.0,,,,,,,,,yellow,diamond
0.0,7.0,3.0,1.0,5.0,0.0,0.0,1.0,0.0,part_2,stop,350.0,350.0,4.0,,,,,,,,,magenta,circle
0.0,3.0,3.0,0.0,5.0,5.0,704.5542979999482,1.0,0.0,part_2,go,400.0,350.0,1.0,,,,,,,,,yellow,diamond
0.0,8.0,4.0,1.0,6.0,0.0,0.0,1.0,0.0,part_2,stop,400.0,350.0,4.0,,,,,,,,,blue,hexagon
0.0,1.0,1.0,0.0,5.0,5.0,916.903812000328,1.0,0.0,part_2,go,400.0,400.0,1.0,,,,,,,,,green,square
0.0,6.0,2.0,1.0,6.0,0.0,0.0,1.0,0.0,part_2,stop,400.0,400.0,4.0,,,,,,,,,gray,cross
0.0,3.0,3.0,0.0,5.0,5.0,1236.3079460001245,1.0,0.0,part_2,go,400.0,450.0,1.0,,,,,,,,,yellow,diamond
0.0,2.0,2.0,0.0,6.0,6.0,959.2987740002172,1.0,0.0,part_2,go,400.0,450.0,1.0,,,,,,,,,cyan,flipped triangle
0.0,6.0,2.0,1.0,6.0,0.0,0.0,1.0,0.0,part_2,stop,400.0,450.0,4.0,,,,,,,,,gray,cross
0.0,7.0,3.0,1.0,6.0,0.0,0.0,1.0,0.0,part_2,stop,400.0,500.0,4.0,,,,,,,,,magenta,circle
0.0,3.0,3.0,0.0,5.0,5.0,796.1859279998862,1.0,0.0,part_2,go,400.0,550.0,1.0,,,,,,,,,yellow,diamond
0.0,6.0,2.0,1.0,6.0,6.0,1357.244991000243,1.0,0.0,part_2,go,400.0,550.0,1.0,,,,,,,,,gray,cross
0.0,2.0,2.0,0.0,6.0,6.0,904.0683200000784,1.0,0.0,part_2,go,400.0,550.0,1.0,,,,,,,,,cyan,flipped triangle
0.0,1.0,1.0,0.0,6.0,6.0,924.2719300000316,1.0,0.0,part_2,go,400.0,550.0,1.0,,,,,,,,,green,square
0.0,6.0,2.0,1.0,5.0,5.0,470.2382319997014,1.0,0.0,part_2,stop,400.0,550.0,3.0,,,,,,,,,gray,cross
0.0,2.0,2.0,0.0,5.0,5.0,884.6648879998611,1.0,0.0,part_2,go,350.0,550.0,1.0,,,,,,,,,cyan,flipped triangle
0.0,8.0,4.0,1.0,5.0,5.0,1124.2565249999643,1.0,0.0,part_2,go,350.0,550.0,1.0,,,,,,,,,blue,hexagon
0.0,1.0,1.0,0.0,5.0,5.0,906.7176170001404,1.0,0.0,part_2,go,350.0,550.0,1.0,,,,,,,,,green,square
0.0,8.0,4.0,1.0,6.0,6.0,1052.7067019997958,1.0,0.0,part_2,go,350.0,550.0,1.0,,,,,,,,,blue,hexagon
0.0,4.0,4.0,0.0,6.0,6.0,841.3319920000504,1.0,0.0,part_2,go,350.0,550.0,1.0,,,,,,,,,white,triangle
0.0,6.0,2.0,1.0,6.0,0.0,0.0,1.0,0.0,part_2,stop,350.0,550.0,4.0,,,,,,,,,gray,cross
0.0,6.0,2.0,1.0,5.0,5.0,1019.8183739998967,1.0,0.0,part_2,go,350.0,600.0,1.0,,,,,,,,,gray,cross
0.0,4.0,4.0,0.0,6.0,0.0,0.0,1.0,0.0,part_2,go,350.0,600.0,5.0,,,,,,,,,white,triangle
0.0,3.0,3.0,0.0,6.0,6.0,994.0139889999956,1.0,0.0,part_2,go,350.0,600.0,1.0,,,,,,,,,yellow,diamond
0.0,8.0,4.0,1.0,6.0,6.0,801.9961059999332,1.0,0.0,part_2,go,350.0,600.0,1.0,,,,,,,,,blue,hexagon
0.0,3.0,3.0,0.0,6.0,6.0,924.0570669999216,1.0,0.0,part_2,go,350.0,600.0,1.0,,,,,,,,,yellow,diamond
0.0,8.0,4.0,1.0,5.0,5.0,825.0030270000934,2.0,0.0,part_2,stop,350.0,600.0,3.0,,,,,,,,,blue,hexagon
0.0,1.0,1.0,0.0,6.0,6.0,457.8885420000915,2.0,0.0,part_2,go,300.0,600.0,1.0,,,,,,,,,green,square
0.0,6.0,2.0,1.0,5.0,0.0,0.0,2.0,0.0,part_2,stop,300.0,600.0,4.0,,,,,,,,,gray,cross
0.0,5.0,1.0,1.0,6.0,6.0,386.1484069998369,2.0,0.0,part_2,stop,350.0,600.0,3.0,,,,,,,,,orange,I
0.0,5.0,1.0,1.0,6.0,6.0,591.1399659999006,2.0,0.0,part_2,go,350.0,550.0,1.0,,,,,,,,,orange,I
0.0,4.0,4.0,0.0,5.0,5.0,463.3307639996928,2.0,0.0,part_2,go,350.0,550.0,1.0,,,,,,,,,white,triangle
0.0,8.0,4.0,1.0,5.0,0.0,0.0,2.0,0.0,part_2,stop,350.0,550.0,4.0,,,,,,,,,blue,hexagon
0.0,3.0,3.0,0.0,5.0,5.0,679.1312519999337,2.0,0.0,part_2,go,400.0,550.0,1.0,,,,,,,,,yellow,diamond
0.0,5.0,1.0,1.0,5.0,5.0,362.2916300000725,2.0,0.0,part_2,stop,400.0,550.0,3.0,,,,,,,,,orange,I
0.0,5.0,1.0,1.0,5.0,0.0,0.0,2.0,0.0,part_2,stop,350.0,550.0,4.0,,,,,,,,,orange,I
0.0,8.0,4.0,1.0,5.0,5.0,743.9272370002072,2.0,0.0,part_2,go,400.0,550.0,1.0,,,,,,,,,blue,hexagon
0.0,1.0,1.0,0.0,6.0,6.0,637.6830969998082,2.0,0.0,part_2,go,400.0,550.0,1.0,,,,,,,,,green,square
0.0,6.0,2.0,1.0,6.0,6.0,592.4298499999168,2.0,0.0,part_2,stop,400.0,550.0,3.0,,,,,,,,,gray,cross
0.0,6.0,2.0,1.0,5.0,0.0,0.0,2.0,0.0,part_2,stop,400.0,500.0,4.0,,,,,,,,,gray,cross
0.0,5.0,1.0,1.0,6.0,6.0,747.6191509999808,2.0,0.0,part_2,go,450.0,500.0,1.0,,,,,,,,,orange,I
0.0,4.0,4.0,0.0,6.0,6.0,850.5573140000706,2.0,0.0,part_2,go,450.0,500.0,1.0,,,,,,,,,white,triangle
0.0,5.0,1.0,1.0,5.0,0.0,0.0,2.0,0.0,part_2,stop,450.0,500.0,4.0,,,,,,,,,orange,I
0.0,2.0,2.0,0.0,6.0,6.0,662.7871319997212,2.0,0.0,part_2,go,500.0,500.0,1.0,,,,,,,,,cyan,flipped triangle
0.0,4.0,4.0,0.0,6.0,6.0,617.0531819998359,2.0,0.0,part_2,go,500.0,500.0,1.0,,,,,,,,,white,triangle
0.0,8.0,4.0,1.0,6.0,0.0,0.0,2.0,0.0,part_2,stop,500.0,500.0,4.0,,,,,,,,,blue,hexagon
0.0,1.0,1.0,0.0,6.0,6.0,637.4264789997142,2.0,0.0,part_2,go,500.0,550.0,1.0,,,,,,,,,green,square
0.0,5.0,1.0,1.0,6.0,0.0,0.0,2.0,0.0,part_2,stop,500.0,550.0,4.0,,,,,,,,,orange,I
0.0,6.0,2.0,1.0,5.0,5.0,665.467628999977,2.0,0.0,part_2,stop,500.0,600.0,3.0,,,,,,,,,gray,cross
0.0,3.0,3.0,0.0,5.0,5.0,831.3884099998177,2.0,0.0,part_2,go,450.0,600.0,1.0,,,,,,,,,yellow,diamond
0.0,5.0,1.0,1.0,5.0,0.0,0.0,2.0,0.0,part_2,stop,450.0,600.0,4.0,,,,,,,,,orange,I
0.0,7.0,3.0,1.0,5.0,5.0,898.382362999655,2.0,0.0,part_2,go,500.0,600.0,1.0,,,,,,,,,magenta,circle
0.0,3.0,3.0,0.0,6.0,6.0,748.2169569998405,2.0,0.0,part_2,go,500.0,600.0,1.0,,,,,,,,,yellow,diamond
0.0,2.0,2.0,0.0,6.0,6.0,652.9221880000478,2.0,0.0,part_2,go,500.0,600.0,1.0,,,,,,,,,cyan,flipped triangle
0.0,6.0,2.0,1.0,5.0,5.0,907.5107270000444,2.0,0.0,part_2,go,500.0,600.0,1.0,,,,,,,,,gray,cross
0.0,7.0,3.0,1.0,6.0,6.0,434.8527269999067,2.0,0.0,part_2,stop,500.0,600.0,3.0,,,,,,,,,magenta,circle
0.0,4.0,4.0,0.0,6.0,6.0,710.4716909998388,2.0,0.0,part_2,go,500.0,550.0,1.0,,,,,,,,,white,triangle
0.0,6.0,2.0,1.0,6.0,6.0,663.9152689999719,2.0,0.0,part_2,go,500.0,550.0,1.0,,,,,,,,,gray,cross
0.0,1.0,1.0,0.0,6.0,6.0,405.4562039996199,2.0,0.0,part_2,go,500.0,550.0,1.0,,,,,,,,,green,square
0.0,7.0,3.0,1.0,6.0,0.0,0.0,2.0,0.0,part_2,stop,500.0,550.0,4.0,,,,,,,,,magenta,circle
0.0,4.0,4.0,0.0,5.0,5.0,792.7676879999126,2.0,0.0,part_2,go,500.0,600.0,1.0,,,,,,,,,white,triangle
0.0,6.0,2.0,1.0,5.0,0.0,0.0,2.0,0.0,part_2,stop,500.0,600.0,4.0,,,,,,,,,gray,cross
0.0,3.0,3.0,0.0,5.0,5.0,709.794243000033,3.0,0.0,part_2,go,550.0,600.0,1.0,,,,,,,,,yellow,diamond
0.0,2.0,2.0,0.0,5.0,5.0,421.5548309998667,3.0,0.0,part_2,go,550.0,600.0,1.0,,,,,,,,,cyan,flipped triangle
0.0,6.0,2.0,1.0,5.0,5.0,441.1527059996842,3.0,0.0,part_2,stop,550.0,600.0,3.0,,,,,,,,,gray,cross
0.0,7.0,3.0,1.0,6.0,6.0,503.1542229999104,3.0,0.0,part_2,go,500.0,600.0,1.0,,,,,,,,,magenta,circle
0.0,5.0,1.0,1.0,6.0,6.0,415.125844999693,3.0,0.0,part_2,stop,500.0,600.0,3.0,,,,,,,,,orange,I
0.0,1.0,1.0,0.0,6.0,6.0,626.4679939999951,3.0,0.0,part_2,go,500.0,550.0,1.0,,,,,,,,,green,square
0.0,1.0,1.0,0.0,5.0,5.0,1025.6419980000828,3.0,0.0,part_2,go,500.0,550.0,1.0,,,,,,,,,green,square
0.0,5.0,1.0,1.0,6.0,6.0,526.4568480001799,3.0,0.0,part_2,stop,500.0,550.0,3.0,,,,,,,,,orange,I
0.0,3.0,3.0,0.0,6.0,6.0,632.3209239999414,3.0,0.0,part_2,go,500.0,500.0,1.0,,,,,,,,,yellow,diamond
0.0,2.0,2.0,0.0,5.0,5.0,517.684066000129,3.0,0.0,part_2,go,500.0,500.0,1.0,,,,,,,,,cyan,flipped triangle
0.0,3.0,3.0,0.0,5.0,5.0,455.8046610000019,3.0,0.0,part_2,go,500.0,500.0,1.0,,,,,,,,,yellow,diamond
0.0,6.0,2.0,1.0,6.0,6.0,404.1032739996808,3.0,0.0,part_2,go,500.0,500.0,1.0,,,,,,,,,gray,cross
0.0,7.0,3.0,1.0,6.0,6.0,556.2609939997856,3.0,0.0,part_2,stop,500.0,500.0,3.0,,,,,,,,,magenta,circle
0.0,8.0,4.0,1.0,5.0,5.0,534.9999449999814,3.0,0.0,part_2,stop,500.0,450.0,3.0,,,,,,,,,blue,hexagon
0.0,8.0,4.0,1.0,5.0,0.0,0.0,3.0,0.0,part_2,stop,450.0,450.0,4.0,,,,,,,,,blue,hexagon
0.0,1.0,1.0,0.0,6.0,6.0,697.6179840003169,3.0,0.0,part_2,go,500.0,450.0,1.0,,,,,,,,,green,square
0.0,8.0,4.0,1.0,6.0,6.0,593.6908080002468,3.0,0.0,part_2,go,500.0,450.0,1.0,,,,,,,,,blue,hexagon
0.0,6.0,2.0,1.0,6.0,6.0,381.5216970001529,3.0,0.0,part_2,go,500.0,450.0,1.0,,,,,,,,,gray,cross
0.0,2.0,2.0,0.0,5.0,5.0,726.4037029999599,3.0,0.0,part_2,go,500.0,450.0,1.0,,,,,,,,,cyan,flipped triangle
0.0,2.0,2.0,0.0,5.0,5.0,610.7890489997772,3.0,0.0,part_2,go,500.0,450.0,1.0,,,,,,,,,cyan,flipped triangle
0.0,3.0,3.0,0.0,5.0,5.0,362.5274840001111,3.0,0.0,part_2,go,500.0,450.0,1.0,,,,,,,,,yellow,diamond
0.0,2.0,2.0,0.0,5.0,5.0,383.1685019999895,3.0,0.0,part_2,go,500.0,450.0,1.0,,,,,,,,,cyan,flipped triangle
0.0,1.0,1.0,0.0,5.0,5.0,302.9119080001692,3.0,0.0,part_2,go,500.0,450.0,1.0,,,,,,,,,green,square
0.0,8.0,4.0,1.0,5.0,5.0,680.9401370001069,3.0,0.0,part_2,stop,500.0,450.0,3.0,,,,,,,,,blue,hexagon
0.0,1.0,1.0,0.0,6.0,6.0,575.037514000087,3.0,0.0,part_2,go,450.0,450.0,1.0,,,,,,,,,green,square
0.0,1.0,1.0,0.0,6.0,6.0,740.1380810001683,3.0,0.0,part_2,go,450.0,450.0,1.0,,,,,,,,,green,square
0.0,3.0,3.0,0.0,5.0,5.0,700.3575159997126,3.0,0.0,part_2,go,450.0,450.0,1.0,,,,,,,,,yellow,diamond
0.0,3.0,3.0,0.0,6.0,6.0,351.1691290000271,3.0,0.0,part_2,go,450.0,450.0,1.0,,,,,,,,,yellow,diamond
0.0,2.0,2.0,0.0,5.0,5.0,315.1384249999864,3.0,0.0,part_2,go,450.0,450.0,1.0,,,,,,,,,cyan,flipped triangle
0.0,2.0,2.0,0.0,5.0,5.0,400.3638089998276,3.0,0.0,part_2,go,450.0,450.0,1.0,,,,,,,,,cyan,flipped triangle
0.0,6.0,2.0,1.0,5.0,5.0,327.3924229997647,3.0,0.0,part_2,stop,450.0,450.0,3.0,,,,,,,,,gray,cross
0.0,7.0,3.0,1.0,5.0,5.0,353.6363510002047,3.0,0.0,part_2,stop,400.0,450.0,3.0,,,,,,,,,magenta,circle
0.0,3.0,3.0,0.0,5.0,5.0,610.6874550000612,3.0,0.0,part_2,go,350.0,450.0,1.0,,,,,,,,,yellow,diamond
0.0,2.0,2.0,0.0,5.0,5.0,648.0945020002764,3.0,0.0,part_2,go,350.0,450.0,1.0,,,,,,,,,cyan,flipped triangle
0.0,4.0,4.0,0.0,6.0,6.0,327.9147759999432,3.0,0.0,part_2,go,350.0,450.0,1.0,,,,,,,,,white,triangle
0.0,3.0,3.0,0.0,5.0,5.0,493.4252000002743,3.0,0.0,part_2,go,350.0,450.0,1.0,,,,,,,,,yellow,diamond
0.0,2.0,2.0,0.0,6.0,6.0,564.4700590000866,4.0,0.0,part_2,go,350.0,450.0,1.0,,,,,,,,,cyan,flipped triangle
0.0,1.0,1.0,0.0,5.0,5.0,378.6657729997387,4.0,0.0,part_2,go,350.0,450.0,1.0,,,,,,,,,green,square
0.0,6.0,2.0,1.0,6.0,6.0,315.2811450004265,4.0,0.0,part_2,stop,350.0,450.0,3.0,,,,,,,,,gray,cross
0.0,4.0,4.0,0.0,5.0,5.0,400.8123140001771,4.0,0.0,part_2,go,350.0,400.0,1.0,,,,,,,,,white,triangle
0.0,2.0,2.0,0.0,6.0,6.0,448.1724490001397,4.0,0.0,part_2,go,350.0,400.0,1.0,,,,,,,,,cyan,flipped triangle
0.0,5.0,1.0,1.0,6.0,0.0,0.0,4.0,0.0,part_2,stop,350.0,400.0,4.0,,,,,,,,,orange,I
0.0,8.0,4.0,1.0,5.0,5.0,547.7984449998985,4.0,0.0,part_2,stop,350.0,450.0,3.0,,,,,,,,,blue,hexagon
0.0,2.0,2.0,0.0,6.0,6.0,812.7196310001636,4.0,0.0,part_2,go,300.0,450.0,1.0,,,,,,,,,cyan,flipped triangle
0.0,5.0,1.0,1.0,5.0,5.0,715.2460000002065,4.0,0.0,part_2,go,300.0,450.0,1.0,,,,,,,,,orange,I
0.0,3.0,3.0,0.0,6.0,6.0,369.713067000248,4.0,0.0,part_2,go,300.0,450.0,1.0,,,,,,,,,yellow,diamond
0.0,3.0,3.0,0.0,6.0,6.0,374.7327480000422,4.0,0.0,part_2,go,300.0,450.0,1.0,,,,,,,,,yellow,diamond
0.0,6.0,2.0,1.0,5.0,5.0,394.5208000000093,4.0,0.0,part_2,stop,300.0,450.0,3.0,,,,,,,,,gray,cross
0.0,8.0,4.0,1.0,6.0,6.0,295.4070290002164,4.0,0.0,part_2,stop,250.0,450.0,3.0,,,,,,,,,blue,hexagon
0.0,1.0,1.0,0.0,5.0,5.0,528.9170949999971,4.0,0.0,part_2,go,250.0,400.0,1.0,,,,,,,,,green,square
0.0,7.0,3.0,1.0,6.0,6.0,386.4253970000391,4.0,0.0,part_2,go,250.0,400.0,1.0,,,,,,,,,magenta,circle
0.0,8.0,4.0,1.0,5.0,5.0,341.9965429998228,4.0,0.0,part_2,stop,250.0,400.0,3.0,,,,,,,,,blue,hexagon
0.0,5.0,1.0,1.0,5.0,0.0,0.0,4.0,0.0,part_2,stop,200.0,400.0,4.0,,,,,,,,,orange,I
0.0,3.0,3.0,0.0,6.0,6.0,496.2737629998628,4.0,0.0,part_2,go,250.0,400.0,1.0,,,,,,,,,yellow,diamond
0.0,8.0,4.0,1.0,6.0,6.0,487.7890200000365,4.0,0.0,part_2,stop,250.0,400.0,3.0,,,,,,,,,blue,hexagon
0.0,5.0,1.0,1.0,5.0,5.0,417.2981799997615,4.0,0.0,part_2,stop,250.0,350.0,3.0,,,,,,,,,orange,I
0.0,7.0,3.0,1.0,6.0,6.0,708.1074349998744,4.0,0.0,part_2,go,200.0,350.0,1.0,,,,,,,,,magenta,circle
0.0,7.0,3.0,1.0,5.0,0.0,0.0,4.0,0.0,part_2,stop,200.0,350.0,4.0,,,,,,,,,magenta,circle
0.0,1.0,1.0,0.0,6.0,6.0,586.7531809999491,4.0,0.0,part_2,go,250.0,350.0,1.0,,,,,,,,,green,square
0.0,5.0,1.0,1.0,5.0,0.0,0.0,4.0,0.0,part_2,stop,250.0,350.0,4.0,,,,,,,,,orange,I
0.0,7.0,3.0,1.0,5.0,0.0,0.0,4.0,0.0,part_2,stop,300.0,350.0,4.0,,,,,,,,,magenta,circle
0.0,1.0,1.0,0.0,6.0,6.0,453.0002989999957,4.0,0.0,part_2,go,350.0,350.0,1.0,,,,,,,,,green,square
0.0,6.0,2.0,1.0,6.0,6.0,1075.8638760003123,4.0,0.0,part_2,go,350.0,350.0,1.0,,,,,,,,,gray,cross
0.0,5.0,1.0,1.0,6.0,6.0,465.1921630002107,4.0,0.0,part_2,stop,350.0,350.0,3.0,,,,,,,,,orange,I
0.0,5.0,1.0,1.0,5.0,0.0,0.0,4.0,0.0,part_2,stop,350.0,300.0,4.0,,,,,,,,,orange,I
0.0,2.0,2.0,0.0,5.0,5.0,522.2813390000738,4.0,0.0,part_2,go,400.0,300.0,1.0,,,,,,,,,cyan,flipped triangle
0.0,5.0,1.0,1.0,6.0,0.0,0.0,4.0,0.0,part_2,stop,400.0,300.0,4.0,,,,,,,,,orange,I
0.0,8.0,4.0,1.0,6.0,6.0,444.0524629999345,4.0,0.0,part_2,go,400.0,350.0,1.0,,,,,,,,,blue,hexagon
0.0,1.0,1.0,0.0,5.0,5.0,753.4436529999766,4.0,0.0,part_2,go,400.0,350.0,1.0,,,,,,,,,green,square
0.0,6.0,2.0,1.0,5.0,5.0,532.1487090000119,4.0,0.0,part_2,stop,400.0,350.0,3.0,,,,,,,,,gray,cross
0.0,7.0,3.0,1.0,5.0,0.0,0.0,4.0,0.0,part_2,stop,350.0,350.0,4.0,,,,,,,,,magenta,circle
0.0,3.0,3.0,0.0,6.0,6.0,676.555881999775,4.0,0.0,part_2,go,400.0,350.0,1.0,,,,,,,,,yellow,diamond
0.0,7.0,3.0,1.0,6.0,6.0,1010.8515860001717,5.0,0.0,part_2,stop,400.0,350.0,3.0,,,,,,,,,magenta,circle
0.0,8.0,4.0,1.0,5.0,0.0,0.0,5.0,0.0,part_2,stop,400.0,300.0,4.0,,,,,,,,,blue,hexagon
0.0,3.0,3.0,0.0,6.0,0.0,0.0,5.0,0.0,part_2,go,450.0,300.0,5.0,,,,,,,,,yellow,diamond
0.0,1.0,1.0,0.0,6.0,6.0,934.9421979995896,5.0,0.0,part_2,go,450.0,300.0,1.0,,,,,,,,,green,square
0.0,1.0,1.0,0.0,5.0,5.0,582.0704990001104,5.0,0.0,part_2,go,450.0,300.0,1.0,,,,,,,,,green,square
0.0,7.0,3.0,1.0,6.0,6.0,380.3867380001975,5.0,0.0,part_2,go,450.0,300.0,1.0,,,,,,,,,magenta,circle
0.0,8.0,4.0,1.0,5.0,5.0,339.2245019999791,5.0,0.0,part_2,stop,450.0,300.0,3.0,,,,,,,,,blue,hexagon
0.0,2.0,2.0,0.0,5.0,5.0,631.5610890001153,5.0,0.0,part_2,go,400.0,300.0,1.0,,,,,,,,,cyan,flipped triangle
0.0,2.0,2.0,0.0,6.0,6.0,361.0350030003246,5.0,0.0,part_2,go,400.0,300.0,1.0,,,,,,,,,cyan,flipped triangle
0.0,7.0,3.0,1.0,5.0,5.0,491.1128700000517,5.0,0.0,part_2,stop,400.0,300.0,3.0,,,,,,,,,magenta,circle
0.0,4.0,4.0,0.0,6.0,6.0,414.851715000168,5.0,0.0,part_2,go,350.0,300.0,1.0,,,,,,,,,white,triangle
0.0,7.0,3.0,1.0,5.0,0.0,0.0,5.0,0.0,part_2,stop,350.0,300.0,4.0,,,,,,,,,magenta,circle
0.0,7.0,3.0,1.0,6.0,6.0,477.5807229998463,5.0,0.0,part_2,stop,400.0,300.0,3.0,,,,,,,,,magenta,circle
0.0,7.0,3.0,1.0,5.0,5.0,610.8365729996876,5.0,0.0,part_2,go,400.0,250.0,1.0,,,,,,,,,magenta,circle
0.0,2.0,2.0,0.0,6.0,6.0,483.7652229998639,5.0,0.0,part_2,go,400.0,250.0,1.0,,,,,,,,,cyan,flipped triangle
0.0,3.0,3.0,0.0,5.0,5.0,404.2143070000747,5.0,0.0,part_2,go,400.0,250.0,1.0,,,,,,,,,yellow,diamond
0.0,4.0,4.0,0.0,5.0,5.0,327.2778159998779,5.0,0.0,part_2,go,400.0,250.0,1.0,,,,,,,,,white,triangle
0.0,8.0,4.0,1.0,6.0,0.0,0.0,5.0,0.0,part_2,stop,400.0,250.0,4.0,,,,,,,,,blue,hexagon
0.0,6.0,2.0,1.0,5.0,0.0,0.0,5.0,0.0,part_2,stop,400.0,300.0,4.0,,,,,,,,,gray,cross
0.0,6.0,2.0,1.0,6.0,0.0,0.0,5.0,0.0,part_2,stop,450.0,300.0,4.0,,,,,,,,,gray,cross
0.0,5.0,1.0,1.0,6.0,6.0,696.1912209999355,5.0,0.0,part_2,go,450.0,350.0,1.0,,,,,,,,,orange,I
0.0,3.0,3.0,0.0,6.0,6.0,465.4879839999921,5.0,0.0,part_2,go,450.0,350.0,1.0,,,,,,,,,yellow,diamond
0.0,8.0,4.0,1.0,5.0,5.0,446.174825000071,5.0,0.0,part_2,stop,450.0,350.0,3.0,,,,,,,,,blue,hexagon
0.0,4.0,4.0,0.0,5.0,5.0,720.7087409997257,5.0,0.0,part_2,go,400.0,350.0,1.0,,,,,,,,,white,triangle
0.0,4.0,4.0,0.0,5.0,5.0,484.4569169999886,5.0,0.0,part_2,go,400.0,350.0,1.0,,,,,,,,,white,triangle
0.0,6.0,2.0,1.0,6.0,6.0,390.3095559999201,5.0,0.0,part_2,stop,400.0,350.0,3.0,,,,,,,,,gray,cross
0.0,7.0,3.0,1.0,6.0,0.0,0.0,5.0,0.0,part_2,stop,400.0,300.0,4.0,,,,,,,,,magenta,circle
0.0,6.0,2.0,1.0,5.0,5.0,347.9922309998073,5.0,0.0,part_2,go,400.0,350.0,1.0,,,,,,,,,gray,cross
0.0,7.0,3.0,1.0,5.0,5.0,524.2367830001058,5.0,0.0,part_2,stop,400.0,350.0,3.0,,,,,,,,,magenta,circle
0.0,7.0,3.0,1.0,6.0,6.0,508.0680169999141,5.0,0.0,part_2,stop,350.0,350.0,3.0,,,,,,,,,magenta,circle
0.0,7.0,3.0,1.0,6.0,6.0,454.867022000144,5.0,0.0,part_2,go,350.0,300.0,1.0,,,,,,,,,magenta,circle
0.0,4.0,4.0,0.0,6.0,6.0,692.2444700003325,5.0,0.0,part_2,go,350.0,300.0,1.0,,,,,,,,,white,triangle
0.0,4.0,4.0,0.0,5.0,5.0,379.2307660000915,5.0,0.0,part_2,go,350.0,300.0,1.0,,,,,,,,,white,triangle
0.0,1.0,1.0,0.0,5.0,5.0,359.7587369999928,5.0,0.0,part_2,go,350.0,300.0,1.0,,,,,,,,,green,square
0.0,5.0,1.0,1.0,6.0,6.0,276.2954699996953,5.0,0.0,part_2,go,350.0,300.0,1.0,,,,,,,,,orange,I
0.0,7.0,3.0,1.0,5.0,5.0,268.1281499999386,5.0,0.0,part_2,stop,350.0,300.0,3.0,,,,,,,,,magenta,circle
0.0,2.0,2.0,0.0,5.0,5.0,936.8929090001076,6.0,0.0,part_2,go,300.0,300.0,1.0,,,,,,,,,cyan,flipped triangle
0.0,5.0,1.0,1.0,5.0,5.0,489.640435000183,6.0,0.0,part_2,stop,300.0,300.0,3.0,,,,,,,,,orange,I
0.0,3.0,3.0,0.0,6.0,6.0,498.2277989997783,6.0,0.0,part_2,go,250.0,300.0,1.0,,,,,,,,,yellow,diamond
0.0,1.0,1.0,0.0,5.0,5.0,376.4206800001375,6.0,0.0,part_2,go,250.0,300.0,1.0,,,,,,,,,green,square
0.0,7.0,3.0,1.0,5.0,0.0,0.0,6.0,0.0,part_2,stop,250.0,300.0,4.0,,,,,,,,,magenta,circle
0.0,2.0,2.0,0.0,6.0,6.0,679.5307480001611,6.0,0.0,part_2,go,300.0,300.0,1.0,,,,,,,,,cyan,flipped triangle
0.0,4.0,4.0,0.0,6.0,6.0,427.5557180003488,6.0,0.0,part_2,go,300.0,300.0,1.0,,,,,,,,,white,triangle
0.0,4.0,4.0,0.0,5.0,5.0,760.8331359997464,6.0,0.0,part_2,go,300.0,300.0,1.0,,,,,,,,,white,triangle
0.0,4.0,4.0,0.0,5.0,5.0,523.7796470000831,6.0,0.0,part_2,go,300.0,300.0,1.0,,,,,,,,,white,triangle
0.0,6.0,2.0,1.0,5.0,0.0,0.0,6.0,0.0,part_2,stop,300.0,300.0,4.0,,,,,,,,,gray,cross
0.0,6.0,2.0,1.0,6.0,6.0,515.2970949998235,6.0,0.0,part_2,stop,350.0,300.0,3.0,,,,,,,,,gray,cross
0.0,8.0,4.0,1.0,6.0,0.0,0.0,6.0,0.0,part_2,stop,350.0,250.0,4.0,,,,,,,,,blue,hexagon
0.0,3.0,3.0,0.0,6.0,6.0,713.5430370003633,6.0,0.0,part_2,go,350.0,300.0,1.0,,,,,,,,,yellow,diamond
0.0,8.0,4.0,1.0,5.0,5.0,541.0257209996416,6.0,0.0,part_2,stop,350.0,300.0,3.0,,,,,,,,,blue,hexagon
0.0,1.0,1.0,0.0,6.0,6.0,774.7670539997671,6.0,0.0,part_2,go,300.0,300.0,1.0,,,,,,,,,green,square
0.0,6.0,2.0,1.0,5.0,0.0,0.0,6.0,0.0,part_2,stop,300.0,300.0,4.0,,,,,,,,,gray,cross
0.0,7.0,3.0,1.0,5.0,0.0,0.0,6.0,0.0,part_2,stop,350.0,300.0,4.0,,,,,,,,,magenta,circle
0.0,5.0,1.0,1.0,6.0,6.0,636.695613000029,6.0,0.0,part_2,go,400.0,300.0,1.0,,,,,,,,,orange,I
0.0,4.0,4.0,0.0,6.0,6.0,378.361213000062,6.0,0.0,part_2,go,400.0,300.0,1.0,,,,,,,,,white,triangle
0.0,3.0,3.0,0.0,6.0,6.0,348.4409380002944,6.0,0.0,part_2,go,400.0,300.0,1.0,,,,,,,,,yellow,diamond
0.0,5.0,1.0,1.0,6.0,6.0,538.6684319996675,6.0,0.0,part_2,stop,400.0,300.0,3.0,,,,,,,,,orange,I
0.0,4.0,4.0,0.0,6.0,6.0,531.8783540001277,6.0,0.0,part_2,go,400.0,250.0,1.0,,,,,,,,,white,triangle
0.0,7.0,3.0,1.0,6.0,0.0,0.0,6.0,0.0,part_2,stop,400.0,250.0,4.0,,,,,,,,,magenta,circle
0.0,7.0,3.0,1.0,5.0,5.0,647.8753359997427,6.0,0.0,part_2,go,400.0,300.0,1.0,,,,,,,,,magenta,circle
0.0,8.0,4.0,1.0,5.0,5.0,388.1137170001238,6.0,0.0,part_2,stop,400.0,300.0,3.0,,,,,,,,,blue,hexagon
0.0,1.0,1.0,0.0,5.0,5.0,516.8413880001026,6.0,0.0,part_2,go,350.0,300.0,1.0,,,,,,,,,green,square
0.0,5.0,1.0,1.0,5.0,5.0,409.2092109999612,6.0,0.0,part_2,go,350.0,300.0,1.0,,,,,,,,,orange,I
0.0,2.0,2.0,0.0,5.0,5.0,653.5669780000717,6.0,0.0,part_2,go,350.0,300.0,1.0,,,,,,,,,cyan,flipped triangle
0.0,1.0,1.0,0.0,5.0,5.0,526.6655130003528,6.0,0.0,part_2,go,350.0,300.0,1.0,,,,,,,,,green,square
0.0,1.0,1.0,0.0,5.0,5.0,327.0233990001543,6.0,0.0,part_2,go,350.0,300.0,1.0,,,,,,,,,green,square
0.0,3.0,3.0,0.0,5.0,5.0,403.8161290000062,6.0,0.0,part_2,go,350.0,300.0,1.0,,,,,,,,,yellow,diamond
0.0,3.0,3.0,0.0,6.0,6.0,360.0317740001628,6.0,0.0,part_2,go,350.0,300.0,1.0,,,,,,,,,yellow,diamond
0.0,5.0,1.0,1.0,5.0,5.0,389.3527240002186,6.0,0.0,part_2,stop,350.0,300.0,3.0,,,,,,,,,orange,I
0.0,2.0,2.0,0.0,6.0,6.0,424.4959659999949,6.0,0.0,part_2,go,300.0,300.0,1.0,,,,,,,,,cyan,flipped triangle
0.0,1.0,1.0,0.0,6.0,6.0,367.2347200003969,6.0,0.0,part_2,go,300.0,300.0,1.0,,,,,,,,,green,square
0.0,8.0,4.0,1.0,5.0,5.0,381.2881720000405,6.0,0.0,part_2,stop,300.0,300.0,3.0,,,,,,,,,blue,hexagon
0.0,4.0,4.0,0.0,5.0,5.0,757.3242670000582,7.0,0.0,part_2,go,250.0,300.0,1.0,,,,,,,,,white,triangle
0.0,1.0,1.0,0.0,6.0,6.0,537.7706710000894,7.0,0.0,part_2,go,250.0,300.0,1.0,,,,,,,,,green,square
0.0,4.0,4.0,0.0,6.0,6.0,354.8752100000456,7.0,0.0,part_2,go,250.0,300.0,1.0,,,,,,,,,white,triangle
0.0,5.0,1.0,1.0,6.0,6.0,357.9289360000075,7.0,0.0,part_2,stop,250.0,300.0,3.0,,,,,,,,,orange,I
0.0,3.0,3.0,0.0,6.0,6.0,404.8677020000468,7.0,0.0,part_2,go,250.0,250.0,1.0,,,,,,,,,yellow,diamond
0.0,4.0,4.0,0.0,5.0,5.0,317.7612149997912,7.0,0.0,part_2,go,250.0,250.0,1.0,,,,,,,,,white,triangle
0.0,2.0,2.0,0.0,5.0,5.0,545.3298429997631,7.0,0.0,part_2,go,250.0,250.0,1.0,,,,,,,,,cyan,flipped triangle
0.0,6.0,2.0,1.0,5.0,5.0,361.1605119999694,7.0,0.0,part_2,stop,250.0,250.0,3.0,,,,,,,,,gray,cross
0.0,7.0,3.0,1.0,5.0,0.0,0.0,7.0,0.0,part_2,stop,200.0,250.0,4.0,,,,,,,,,magenta,circle
0.0,8.0,4.0,1.0,5.0,5.0,555.5272739998145,7.0,0.0,part_2,go,250.0,250.0,1.0,,,,,,,,,blue,hexagon
0.0,6.0,2.0,1.0,6.0,6.0,487.6997189999201,7.0,0.0,part_2,stop,250.0,250.0,3.0,,,,,,,,,gray,cross
0.0,2.0,2.0,0.0,5.0,5.0,604.5856559999265,7.0,0.0,part_2,go,250.0,200.0,1.0,,,,,,,,,cyan,flipped triangle
0.0,3.0,3.0,0.0,5.0,5.0,478.1834629998229,7.0,0.0,part_2,go,250.0,200.0,1.0,,,,,,,,,yellow,diamond
0.0,6.0,2.0,1.0,5.0,5.0,393.2913139997254,7.0,0.0,part_2,stop,250.0,200.0,3.0,,,,,,,,,gray,cross
0.0,2.0,2.0,0.0,6.0,6.0,355.8881349999865,7.0,0.0,part_2,go,200.0,200.0,1.0,,,,,,,,,cyan,flipped triangle
0.0,1.0,1.0,0.0,5.0,5.0,355.1016940000409,7.0,0.0,part_2,go,200.0,200.0,1.0,,,,,,,,,green,square
0.0,5.0,1.0,1.0,5.0,5.0,343.9691949997723,7.0,0.0,part_2,stop,200.0,200.0,3.0,,,,,,,,,orange,I
0.0,8.0,4.0,1.0,5.0,0.0,0.0,7.0,0.0,part_2,stop,150.0,200.0,4.0,,,,,,,,,blue,hexagon
0.0,8.0,4.0,1.0,6.0,6.0,531.5196349997677,7.0,0.0,part_2,stop,200.0,200.0,3.0,,,,,,,,,blue,hexagon
0.0,2.0,2.0,0.0,5.0,5.0,575.8074559998931,7.0,0.0,part_2,go,200.0,150.0,1.0,,,,,,,,,cyan,flipped triangle
0.0,2.0,2.0,0.0,6.0,6.0,382.7754479998475,7.0,0.0,part_2,go,200.0,150.0,1.0,,,,,,,,,cyan,flipped triangle
0.0,3.0,3.0,0.0,5.0,5.0,380.1510339999367,7.0,0.0,part_2,go,200.0,150.0,1.0,,,,,,,,,yellow,diamond
0.0,2.0,2.0,0.0,6.0,6.0,812.5976239998636,7.0,0.0,part_2,go,200.0,150.0,1.0,,,,,,,,,cyan,flipped triangle
0.0,3.0,3.0,0.0,5.0,5.0,315.0714739999785,7.0,0.0,part_2,go,200.0,150.0,1.0,,,,,,,,,yellow,diamond
0.0,6.0,2.0,1.0,6.0,6.0,279.0512629999284,7.0,0.0,part_2,go,200.0,150.0,1.0,,,,,,,,,gray,cross
0.0,7.0,3.0,1.0,5.0,5.0,341.1107339998125,7.0,0.0,part_2,stop,200.0,150.0,3.0,,,,,,,,,magenta,circle
0.0,4.0,4.0,0.0,6.0,6.0,489.3642419997377,7.0,0.0,part_2,go,150.0,150.0,1.0,,,,,,,,,white,triangle
0.0,4.0,4.0,0.0,5.0,5.0,563.010777999807,7.0,0.0,part_2,go,150.0,150.0,1.0,,,,,,,,,white,triangle
0.0,3.0,3.0,0.0,5.0,5.0,391.9807510001192,7.0,0.0,part_2,go,150.0,150.0,1.0,,,,,,,,,yellow,diamond
0.0,5.0,1.0,1.0,6.0,0.0,0.0,7.0,0.0,part_2,stop,150.0,150.0,4.0,,,,,,,,,orange,I
0.0,8.0,4.0,1.0,6.0,6.0,414.9084499999844,7.0,0.0,part_2,stop,150.0,200.0,3.0,,,,,,,,,blue,hexagon
0.0,4.0,4.0,0.0,6.0,6.0,374.1668980001122,7.0,0.0,part_2,go,150.0,150.0,1.0,,,,,,,,,white,triangle
0.0,5.0,1.0,1.0,6.0,0.0,0.0,7.0,0.0,part_2,stop,150.0,150.0,4.0,,,,,,,,,orange,I
0.0,8.0,4.0,1.0,6.0,0.0,0.0,7.0,0.0,part_2,stop,150.0,200.0,4.0,,,,,,,,,blue,hexagon
0.0,2.0,2.0,0.0,6.0,6.0,564.6993600003043,7.0,0.0,part_2,go,150.0,250.0,1.0,,,,,,,,,cyan,flipped triangle
0.0,1.0,1.0,0.0,6.0,6.0,313.9075910003157,7.0,0.0,part_2,go,150.0,250.0,1.0,,,,,,,,,green,square
0.0,2.0,2.0,0.0,5.0,5.0,560.673752999719,8.0,0.0,part_2,go,150.0,250.0,1.0,,,,,,,,,cyan,flipped triangle
0.0,6.0,2.0,1.0,6.0,6.0,305.4322939997291,8.0,0.0,part_2,stop,150.0,250.0,3.0,,,,,,,,,gray,cross
0.0,7.0,3.0,1.0,5.0,0.0,0.0,8.0,0.0,part_2,stop,150.0,200.0,4.0,,,,,,,,,magenta,circle
0.0,6.0,2.0,1.0,5.0,0.0,0.0,8.0,0.0,part_2,stop,200.0,200.0,4.0,,,,,,,,,gray,cross
0.0,2.0,2.0,0.0,5.0,5.0,385.2530770000157,8.0,0.0,part_2,go,250.0,200.0,1.0,,,,,,,,,cyan,flipped triangle
0.0,7.0,3.0,1.0,6.0,0.0,0.0,8.0,0.0,part_2,stop,250.0,200.0,4.0,,,,,,,,,magenta,circle
0.0,8.0,4.0,1.0,6.0,6.0,740.8573610000531,8.0,0.0,part_2,go,250.0,250.0,1.0,,,,,,,,,blue,hexagon
0.0,8.0,4.0,1.0,6.0,6.0,422.4034859998937,8.0,0.0,part_2,stop,250.0,250.0,3.0,,,,,,,,,blue,hexagon
0.0,4.0,4.0,0.0,5.0,5.0,588.0879570004254,8.0,0.0,part_2,go,250.0,200.0,1.0,,,,,,,,,white,triangle
0.0,5.0,1.0,1.0,5.0,0.0,0.0,8.0,0.0,part_2,stop,250.0,200.0,4.0,,,,,,,,,orange,I
0.0,4.0,4.0,0.0,6.0,6.0,426.8407960007607,8.0,0.0,part_2,go,300.0,200.0,1.0,,,,,,,,,white,triangle
0.0,7.0,3.0,1.0,6.0,0.0,0.0,8.0,0.0,part_2,stop,300.0,200.0,4.0,,,,,,,,,magenta,circle
0.0,4.0,4.0,0.0,5.0,5.0,426.6705060008462,8.0,0.0,part_2,go,300.0,250.0,1.0,,,,,,,,,white,triangle
0.0,2.0,2.0,0.0,6.0,6.0,588.4605659994122,8.0,0.0,part_2,go,300.0,250.0,1.0,,,,,,,,,cyan,flipped triangle
0.0,7.0,3.0,1.0,6.0,0.0,0.0,8.0,0.0,part_2,stop,300.0,250.0,4.0,,,,,,,,,magenta,circle
0.0,4.0,4.0,0.0,6.0,6.0,690.126080000482,8.0,0.0,part_2,go,300.0,300.0,1.0,,,,,,,,,white,triangle
0.0,7.0,3.0,1.0,6.0,0.0,0.0,8.0,0.0,part_2,stop,300.0,300.0,4.0,,,,,,,,,magenta,circle
0.0,4.0,4.0,0.0,5.0,5.0,533.6868249996769,8.0,0.0,part_2,go,300.0,350.0,1.0,,,,,,,,,white,triangle
0.0,7.0,3.0,1.0,5.0,5.0,374.4033960001616,8.0,0.0,part_2,go,300.0,350.0,1.0,,,,,,,,,magenta,circle
0.0,3.0,3.0,0.0,5.0,5.0,376.2432039993655,8.0,0.0,part_2,go,300.0,350.0,1.0,,,,,,,,,yellow,diamond
0.0,8.0,4.0,1.0,6.0,6.0,453.692425000554,8.0,0.0,part_2,stop,300.0,350.0,3.0,,,,,,,,,blue,hexagon
0.0,5.0,1.0,1.0,6.0,6.0,344.2100510001182,8.0,0.0,part_2,go,300.0,300.0,1.0,,,,,,,,,orange,I
0.0,8.0,4.0,1.0,5.0,5.0,481.7966219998197,8.0,0.0,part_2,stop,300.0,300.0,3.0,,,,,,,,,blue,hexagon
0.0,4.0,4.0,0.0,5.0,5.0,449.7870889999831,8.0,0.0,part_2,go,250.0,300.0,1.0,,,,,,,,,white,triangle
0.0,6.0,2.0,1.0,6.0,6.0,430.0895739997941,8.0,0.0,part_2,stop,250.0,300.0,3.0,,,,,,,,,gray,cross
0.0,1.0,1.0,0.0,6.0,6.0,642.9202830004215,8.0,0.0,part_2,go,250.0,250.0,1.0,,,,,,,,,green,square
0.0,1.0,1.0,0.0,5.0,5.0,608.3489740003643,8.0,0.0,part_2,go,250.0,250.0,1.0,,,,,,,,,green,square
0.0,1.0,1.0,0.0,6.0,6.0,367.4270619994786,8.0,0.0,part_2,go,250.0,250.0,1.0,,,,,,,,,green,square
0.0,5.0,1.0,1.0,5.0,5.0,433.6293639998985,8.0,0.0,part_2,go,250.0,250.0,1.0,,,,,,,,,orange,I
0.0,8.0,4.0,1.0,6.0,0.0,0.0,8.0,0.0,part_2,stop,250.0,250.0,4.0,,,,,,,,,blue,hexagon
0.0,4.0,4.0,0.0,6.0,6.0,770.1358920003258,8.0,0.0,part_2,go,250.0,300.0,1.0,,,,,,,,,white,triangle
0.0,1.0,1.0,0.0,5.0,5.0,612.2911869997552,8.0,0.0,part_2,go,250.0,300.0,1.0,,,,,,,,,green,square
0.0,1.0,1.0,0.0,5.0,5.0,544.1623679998884,8.0,0.0,part_2,go,250.0,300.0,1.0,,,,,,,,,green,square
0.0,3.0,3.0,0.0,6.0,6.0,712.7112699999998,8.0,0.0,part_2,go,250.0,300.0,1.0,,,,,,,,,yellow,diamond
0.0,5.0,1.0,1.0,5.0,0.0,0.0,8.0,0.0,part_2,stop,250.0,300.0,4.0,,,,,,,,,orange,I
0.0,8.0,4.0,1.0,6.0,6.0,587.9191060002995,8.0,0.0,part_2,go,300.0,300.0,1.0,,,,,,,,,blue,hexagon
0.0,2.0,2.0,0.0,7.0,1.0,2855.046384000161,1.0,1.0,part_3,go,0.0,0.0,0.0,78.0,2.0,78.0,39.0,117.0,156.0,234.0,195.0,cyan,flipped triangle
0.0,5.0,1.0,1.0,7.0,5.0,3170.562713000436,1.0,1.0,part_3,go,0.0,0.0,0.0,195.0,5.0,78.0,234.0,117.0,156.0,195.0,39.0,orange,I
0.0,8.0,4.0,1.0,7.0,3.0,2761.2875380000332,1.0,1.0,part_3,go,0.0,0.0,0.0,102.0,3.0,68.0,34.0,102.0,170.0,136.0,204.0,blue,hexagon
0.0,8.0,4.0,1.0,7.0,5.0,2409.10858999996,1.0,1.0,part_3,go,0.0,0.0,0.0,132.0,3.0,88.0,44.0,264.0,176.0,132.0,220.0,blue,hexagon
0.0,1.0,1.0,0.0,7.0,2.0,1363.3996210000987,1.0,1.0,part_3,go,0.0,0.0,0.0,176.0,4.0,132.0,176.0,220.0,264.0,88.0,44.0,green,square
0.0,5.0,1.0,1.0,7.0,6.0,2207.3297429997183,1.0,1.0,part_3,go,0.0,0.0,0.0,264.0,6.0,44.0,132.0,220.0,176.0,88.0,264.0,orange,I
0.0,1.0,1.0,0.0,7.0,3.0,2020.8915359999078,1.0,1.0,part_3,go,0.0,0.0,0.0,176.0,4.0,132.0,264.0,176.0,220.0,88.0,44.0,green,square
0.0,7.0,3.0,1.0,7.0,2.0,1384.9242650003362,1.0,1.0,part_3,go,0.0,0.0,0.0,162.0,3.0,270.0,162.0,108.0,324.0,216.0,54.0,magenta,circle
0.0,7.0,3.0,1.0,7.0,5.0,751.181435000035,1.0,1.0,part_3,go,0.0,0.0,0.0,324.0,6.0,162.0,216.0,108.0,270.0,324.0,54.0,magenta,circle
0.0,5.0,1.0,1.0,7.0,2.0,964.5464309996896,1.0,1.0,part_3,go,0.0,0.0,0.0,39.0,1.0,234.0,39.0,195.0,117.0,78.0,156.0,orange,I
0.0,7.0,3.0,1.0,7.0,6.0,1954.3214350005655,1.0,1.0,part_3,go,0.0,0.0,0.0,117.0,3.0,78.0,39.0,195.0,234.0,156.0,117.0,magenta,circle
0.0,1.0,1.0,0.0,7.0,2.0,1887.2699869998544,1.0,1.0,part_3,go,0.0,0.0,0.0,108.0,2.0,54.0,108.0,162.0,216.0,324.0,270.0,green,square
0.0,7.0,3.0,1.0,7.0,1.0,1157.1004959996571,1.0,1.0,part_3,go,0.0,0.0,0.0,34.0,1.0,34.0,170.0,102.0,204.0,68.0,136.0,magenta,circle
0.0,3.0,3.0,0.0,7.0,6.0,1740.1176590001342,1.0,1.0,part_3,go,0.0,0.0,0.0,108.0,2.0,270.0,324.0,162.0,54.0,216.0,108.0,yellow,diamond
0.0,7.0,3.0,1.0,7.0,2.0,1386.4886749997822,1.0,1.0,part_3,go,0.0,0.0,0.0,176.0,4.0,44.0,176.0,88.0,264.0,132.0,220.0,magenta,circle
0.0,5.0,1.0,1.0,7.0,5.0,1195.1511140005096,1.0,1.0,part_3,go,0.0,0.0,0.0,196.0,4.0,98.0,49.0,147.0,245.0,196.0,294.0,orange,I
0.0,2.0,2.0,0.0,7.0,1.0,1394.193637999706,1.0,1.0,part_3,go,0.0,0.0,0.0,204.0,6.0,204.0,68.0,170.0,136.0,34.0,102.0,cyan,flipped triangle
0.0,3.0,3.0,0.0,7.0,5.0,1403.6816520001594,1.0,1.0,part_3,go,0.0,0.0,0.0,68.0,2.0,34.0,136.0,102.0,170.0,68.0,204.0,yellow,diamond
0.0,4.0,4.0,0.0,7.0,2.0,1034.318548000556,1.0,1.0,part_3,go,0.0,0.0,0.0,34.0,1.0,68.0,34.0,102.0,136.0,170.0,204.0,white,triangle
0.0,3.0,3.0,0.0,7.0,5.0,1115.07366800015,1.0,1.0,part_3,go,0.0,0.0,0.0,117.0,3.0,39.0,195.0,78.0,234.0,117.0,156.0,yellow,diamond
0.0,6.0,2.0,1.0,7.0,2.0,1132.2694299997238,2.0,1.0,part_3,go,0.0,0.0,0.0,170.0,5.0,204.0,170.0,68.0,136.0,102.0,34.0,gray,cross
0.0,6.0,2.0,1.0,7.0,5.0,1449.6134800001528,2.0,1.0,part_3,go,0.0,0.0,0.0,44.0,1.0,176.0,88.0,220.0,132.0,44.0,264.0,gray,cross
0.0,2.0,2.0,0.0,7.0,3.0,1314.965581999786,2.0,1.0,part_3,go,0.0,0.0,0.0,44.0,1.0,132.0,220.0,44.0,176.0,264.0,88.0,cyan,flipped triangle
0.0,8.0,4.0,1.0,7.0,5.0,1647.8015650000088,2.0,1.0,part_3,go,0.0,0.0,0.0,196.0,4.0,245.0,147.0,98.0,294.0,196.0,49.0,blue,hexagon
0.0,6.0,2.0,1.0,7.0,2.0,809.2824559998917,2.0,1.0,part_3,go,0.0,0.0,0.0,234.0,6.0,195.0,234.0,117.0,39.0,78.0,156.0,gray,cross
0.0,4.0,4.0,0.0,7.0,2.0,1038.6848299995108,2.0,1.0,part_3,go,0.0,0.0,0.0,39.0,1.0,156.0,39.0,117.0,195.0,234.0,78.0,white,triangle
0.0,5.0,1.0,1.0,7.0,6.0,534.5472630006043,2.0,1.0,part_3,go,0.0,0.0,0.0,88.0,2.0,264.0,44.0,132.0,220.0,176.0,88.0,orange,I
0.0,6.0,2.0,1.0,7.0,2.0,889.8901109996586,2.0,1.0,part_3,go,0.0,0.0,0.0,39.0,1.0,195.0,39.0,156.0,78.0,234.0,117.0,gray,cross
0.0,7.0,3.0,1.0,7.0,5.0,734.4902989998445,2.0,1.0,part_3,go,0.0,0.0,0.0,156.0,4.0,39.0,117.0,78.0,195.0,156.0,234.0,magenta,circle
0.0,1.0,1.0,0.0,7.0,1.0,925.9185549999528,2.0,1.0,part_3,go,0.0,0.0,0.0,294.0,6.0,294.0,98.0,245.0,49.0,147.0,196.0,green,square
0.0,3.0,3.0,0.0,7.0,5.0,1146.8481250003606,2.0,1.0,part_3,go,0.0,0.0,0.0,176.0,4.0,220.0,88.0,132.0,264.0,176.0,44.0,yellow,diamond
0.0,3.0,3.0,0.0,7.0,1.0,193.3855090001088,2.0,1.0,part_3,go,0.0,0.0,0.0,216.0,4.0,216.0,270.0,54.0,162.0,324.0,108.0,yellow,diamond
0.0,4.0,4.0,0.0,7.0,2.0,958.4537999999156,2.0,1.0,part_3,go,0.0,0.0,0.0,88.0,2.0,44.0,88.0,176.0,132.0,220.0,264.0,white,triangle
0.0,2.0,2.0,0.0,7.0,4.0,806.8613590003224,2.0,1.0,part_3,go,0.0,0.0,0.0,264.0,6.0,176.0,88.0,44.0,264.0,132.0,220.0,cyan,flipped triangle
0.0,1.0,1.0,0.0,7.0,2.0,848.1165699995472,2.0,1.0,part_3,go,0.0,0.0,0.0,156.0,4.0,78.0,156.0,195.0,117.0,234.0,39.0,green,square
0.0,4.0,4.0,0.0,7.0,6.0,608.4235419994002,2.0,1.0,part_3,go,0.0,0.0,0.0,195.0,5.0,156.0,39.0,234.0,78.0,117.0,195.0,white,triangle
0.0,5.0,1.0,1.0,7.0,5.0,499.8445139999603,2.0,1.0,part_3,go,0.0,0.0,0.0,324.0,6.0,108.0,162.0,216.0,54.0,324.0,270.0,orange,I
0.0,4.0,4.0,0.0,7.0,3.0,579.1170149996105,2.0,1.0,part_3,go,0.0,0.0,0.0,44.0,1.0,176.0,220.0,44.0,132.0,88.0,264.0,white,triangle
0.0,4.0,4.0,0.0,7.0,1.0,641.1540539993439,2.0,1.0,part_3,go,0.0,0.0,0.0,54.0,1.0,54.0,162.0,270.0,108.0,324.0,216.0,white,triangle
0.0,4.0,4.0,0.0,7.0,6.0,477.7557130000787,2.0,1.0,part_3,go,0.0,0.0,0.0,204.0,6.0,170.0,34.0,68.0,102.0,136.0,204.0,white,triangle
0.0,5.0,1.0,1.0,7.0,5.0,666.8821809998917,3.0,1.0,part_3,go,0.0,0.0,0.0,270.0,5.0,162.0,324.0,54.0,216.0,270.0,108.0,orange,I
0.0,3.0,3.0,0.0,7.0,6.0,1367.9252729998552,3.0,1.0,part_3,go,0.0,0.0,0.0,196.0,4.0,147.0,294.0,245.0,49.0,98.0,196.0,yellow,diamond
0.0,3.0,3.0,0.0,7.0,2.0,715.9148200007621,3.0,1.0,part_3,go,0.0,0.0,0.0,196.0,4.0,98.0,196.0,245.0,49.0,147.0,294.0,yellow,diamond
0.0,2.0,2.0,0.0,7.0,1.0,465.6753549998029,3.0,1.0,part_3,go,0.0,0.0,0.0,156.0,4.0,156.0,117.0,195.0,234.0,78.0,39.0,cyan,flipped triangle
0.0,1.0,1.0,0.0,7.0,4.0,528.2353570000851,3.0,1.0,part_3,go,0.0,0.0,0.0,204.0,6.0,34.0,102.0,68.0,204.0,136.0,170.0,green,square
0.0,2.0,2.0,0.0,7.0,5.0,805.6951130001835,3.0,1.0,part_3,go,0.0,0.0,0.0,196.0,4.0,98.0,294.0,245.0,147.0,196.0,49.0,cyan,flipped triangle
0.0,8.0,4.0,1.0,7.0,2.0,597.7534810008365,3.0,1.0,part_3,go,0.0,0.0,0.0,170.0,5.0,34.0,170.0,68.0,102.0,136.0,204.0,blue,hexagon
0.0,2.0,2.0,0.0,7.0,2.0,834.6371920006277,3.0,1.0,part_3,go,0.0,0.0,0.0,34.0,1.0,170.0,34.0,68.0,102.0,204.0,136.0,cyan,flipped triangle
0.0,2.0,2.0,0.0,7.0,5.0,704.9489360006191,3.0,1.0,part_3,go,0.0,0.0,0.0,324.0,6.0,54.0,162.0,270.0,108.0,324.0,216.0,cyan,flipped triangle
0.0,6.0,2.0,1.0,7.0,2.0,499.2925380001907,3.0,1.0,part_3,go,0.0,0.0,0.0,324.0,6.0,54.0,324.0,270.0,162.0,216.0,108.0,gray,cross
0.0,1.0,1.0,0.0,7.0,4.0,525.1648020002904,3.0,1.0,part_3,go,0.0,0.0,0.0,117.0,3.0,78.0,195.0,156.0,117.0,234.0,39.0,green,square
0.0,6.0,2.0,1.0,7.0,6.0,554.420167999524,3.0,1.0,part_3,go,0.0,0.0,0.0,102.0,3.0,68.0,136.0,204.0,34.0,170.0,102.0,gray,cross
0.0,6.0,2.0,1.0,7.0,2.0,915.231684999526,3.0,1.0,part_3,go,0.0,0.0,0.0,162.0,3.0,270.0,162.0,54.0,324.0,108.0,216.0,gray,cross
0.0,5.0,1.0,1.0,7.0,6.0,1162.1046600002956,3.0,1.0,part_3,go,0.0,0.0,0.0,147.0,3.0,294.0,196.0,49.0,245.0,98.0,147.0,orange,I
0.0,8.0,4.0,1.0,7.0,3.0,1053.219553999952,3.0,1.0,part_3,go,0.0,0.0,0.0,54.0,1.0,324.0,108.0,54.0,162.0,216.0,270.0,blue,hexagon
0.0,5.0,1.0,1.0,7.0,1.0,839.3012510005065,3.0,1.0,part_3,go,0.0,0.0,0.0,34.0,1.0,34.0,102.0,204.0,136.0,68.0,170.0,orange,I
0.0,6.0,2.0,1.0,7.0,1.0,624.5003900003212,3.0,1.0,part_3,go,0.0,0.0,0.0,44.0,1.0,44.0,220.0,132.0,264.0,88.0,176.0,gray,cross
0.0,4.0,4.0,0.0,7.0,1.0,1560.1648410001872,3.0,1.0,part_3,go,0.0,0.0,0.0,108.0,2.0,108.0,216.0,162.0,324.0,270.0,54.0,white,triangle
0.0,8.0,4.0,1.0,7.0,2.0,878.7518280005315,3.0,1.0,part_3,go,0.0,0.0,0.0,98.0,2.0,49.0,98.0,245.0,147.0,196.0,294.0,blue,hexagon
0.0,7.0,3.0,1.0,7.0,5.0,1191.332131999843,3.0,1.0,part_3,go,0.0,0.0,0.0,294.0,6.0,49.0,245.0,196.0,147.0,294.0,98.0,magenta,circle
0.0,4.0,4.0,0.0,7.0,5.0,918.0243680002604,4.0,1.0,part_3,go,0.0,0.0,0.0,196.0,4.0,294.0,147.0,49.0,98.0,196.0,245.0,white,triangle
0.0,6.0,2.0,1.0,7.0,3.0,1027.1966699992845,4.0,1.0,part_3,go,0.0,0.0,0.0,98.0,2.0,147.0,294.0,98.0,49.0,196.0,245.0,gray,cross
0.0,8.0,4.0,1.0,7.0,5.0,1439.6541109999816,4.0,1.0,part_3,go,0.0,0.0,0.0,195.0,5.0,39.0,117.0,156.0,78.0,195.0,234.0,blue,hexagon
0.0,5.0,1.0,1.0,7.0,2.0,347.6719379996211,4.0,1.0,part_3,go,0.0,0.0,0.0,136.0,4.0,34.0,136.0,170.0,68.0,102.0,204.0,orange,I
0.0,8.0,4.0,1.0,7.0,2.0,961.042138999801,4.0,1.0,part_3,go,0.0,0.0,0.0,220.0,5.0,176.0,220.0,88.0,132.0,264.0,44.0,blue,hexagon
0.0,2.0,2.0,0.0,7.0,6.0,929.9177900002178,4.0,1.0,part_3,go,0.0,0.0,0.0,98.0,2.0,294.0,49.0,245.0,147.0,196.0,98.0,cyan,flipped triangle
0.0,7.0,3.0,1.0,7.0,2.0,1349.022710000099,4.0,1.0,part_3,go,0.0,0.0,0.0,136.0,4.0,170.0,136.0,34.0,102.0,68.0,204.0,magenta,circle
0.0,4.0,4.0,0.0,7.0,5.0,650.710891000017,4.0,1.0,part_3,go,0.0,0.0,0.0,294.0,6.0,98.0,196.0,245.0,147.0,294.0,49.0,white,triangle
0.0,6.0,2.0,1.0,7.0,2.0,892.4709640004949,4.0,1.0,part_3,go,0.0,0.0,0.0,147.0,3.0,294.0,147.0,98.0,245.0,196.0,49.0,gray,cross
0.0,3.0,3.0,0.0,7.0,3.0,858.8950989997102,4.0,1.0,part_3,go,0.0,0.0,0.0,39.0,1.0,234.0,195.0,39.0,117.0,156.0,78.0,yellow,diamond
0.0,1.0,1.0,0.0,7.0,6.0,1144.1456379998272,4.0,1.0,part_3,go,0.0,0.0,0.0,196.0,4.0,49.0,98.0,294.0,147.0,245.0,196.0,green,square
0.0,7.0,3.0,1.0,7.0,5.0,1128.8231440003074,4.0,1.0,part_3,go,0.0,0.0,0.0,88.0,2.0,264.0,132.0,220.0,44.0,88.0,176.0,magenta,circle
0.0,2.0,2.0,0.0,7.0,2.0,807.0187520006584,4.0,1.0,part_3,go,0.0,0.0,0.0,216.0,4.0,324.0,216.0,108.0,162.0,270.0,54.0,cyan,flipped triangle
0.0,3.0,3.0,0.0,7.0,5.0,736.2630119996538,4.0,1.0,part_3,go,0.0,0.0,0.0,44.0,1.0,220.0,88.0,176.0,264.0,44.0,132.0,yellow,diamond
0.0,8.0,4.0,1.0,7.0,3.0,980.3491960001338,4.0,1.0,part_3,go,0.0,0.0,0.0,195.0,5.0,39.0,234.0,195.0,78.0,117.0,156.0,blue,hexagon
0.0,7.0,3.0,1.0,7.0,3.0,1474.9241959998471,4.0,1.0,part_3,go,0.0,0.0,0.0,147.0,3.0,294.0,245.0,147.0,98.0,49.0,196.0,magenta,circle
0.0,1.0,1.0,0.0,7.0,3.0,1060.1709000002302,4.0,1.0,part_3,go,0.0,0.0,0.0,162.0,3.0,270.0,324.0,162.0,108.0,216.0,54.0,green,square
0.0,3.0,3.0,0.0,7.0,2.0,1141.6836869993858,4.0,1.0,part_3,go,0.0,0.0,0.0,68.0,2.0,204.0,68.0,34.0,170.0,136.0,102.0,yellow,diamond
0.0,8.0,4.0,1.0,7.0,5.0,1090.728764999767,4.0,1.0,part_3,go,0.0,0.0,0.0,216.0,4.0,270.0,108.0,54.0,324.0,216.0,162.0,blue,hexagon
0.0,1.0,1.0,0.0,7.0,5.0,1022.694021999996,4.0,1.0,part_3,go,0.0,0.0,0.0,102.0,3.0,136.0,170.0,34.0,204.0,102.0,68.0,green,square
