raw_reward_magnitude,stim_reward,stepwise_reward_magnitude,paired_with_stopping,stim_location,response,reaction_time,block,num_trial_presentations,which_phase,stop_signal_trial_type,left_SSD,right_SSD,accuracy,chosen_bidding_amount,chosen_bidding_level,possible_bid_1,possible_bid_2,possible_bid_3,possible_bid_4,possible_bid_5,possible_bid_6,color_text,shape_text
57.0,1.0,1.0,0.0,4.0,4.0,648.427794999975,1.0,1.0,phase_1,,,,,,,,,,,,,blue,I
120.0,6.0,2.0,1.0,4.0,4.0,448.3835070000168,1.0,1.0,phase_1,,,,,,,,,,,,,magenta,diamond
414.0,8.0,4.0,1.0,1.0,1.0,388.677862999998,1.0,1.0,phase_1,,,,,,,,,,,,,white,hexagon
40.0,1.0,1.0,0.0,1.0,1.0,356.165777000001,1.0,1.0,phase_1,,,,,,,,,,,,,blue,I
111.0,2.0,2.0,0.0,3.0,3.0,376.4186050000262,1.0,1.0,phase_1,,,,,,,,,,,,,yellow,flipped triangle
407.0,4.0,4.0,0.0,2.0,2.0,352.5764080000044,1.0,1.0,phase_1,,,,,,,,,,,,,green,triangle
0.0,6.0,0.0,1.0,3.0,3.0,371.8996920000563,1.0,1.0,phase_1,,,,,,,,,,,,,magenta,diamond
93.0,2.0,2.0,0.0,2.0,2.0,531.5785589999678,1.0,1.0,phase_1,,,,,,,,,,,,,yellow,flipped triangle
117.0,6.0,2.0,1.0,2.0,2.0,390.1051650000227,1.0,1.0,phase_1,,,,,,,,,,,,,magenta,diamond
176.0,3.0,3.0,0.0,2.0,2.0,372.1862579999424,1.0,1.0,phase_1,,,,,,,,,,,,,gray,square
70.0,1.0,1.0,0.0,1.0,1.0,373.2120619999932,1.0,1.0,phase_1,,,,,,,,,,,,,blue,I
86.0,6.0,2.0,1.0,4.0,4.0,314.504984999985,1.0,1.0,phase_1,,,,,,,,,,,,,magenta,diamond
219.0,7.0,3.0,1.0,3.0,3.0,306.4103770000201,1.0,1.0,phase_1,,,,,,,,,,,,,cyan,circle
34.0,5.0,1.0,1.0,2.0,2.0,301.5990799999599,1.0,1.0,phase_1,,,,,,,,,,,,,orange,cross
52.0,1.0,1.0,0.0,3.0,3.0,322.9114739999659,1.0,1.0,phase_1,,,,,,,,,,,,,blue,I
0.0,6.0,0.0,1.0,4.0,4.0,337.5880999999481,1.0,1.0,phase_1,,,,,,,,,,,,,magenta,diamond
201.0,3.0,3.0,0.0,1.0,1.0,392.5568710000107,1.0,1.0,phase_1,,,,,,,,,,,,,gray,square
223.0,7.0,3.0,1.0,2.0,2.0,427.5952660000257,1.0,1.0,phase_1,,,,,,,,,,,,,cyan,circle
82.0,2.0,2.0,0.0,3.0,3.0,365.1457109999683,1.0,1.0,phase_1,,,,,,,,,,,,,yellow,flipped triangle
417.0,4.0,4.0,0.0,3.0,3.0,321.7621329999929,1.0,1.0,phase_1,,,,,,,,,,,,,green,triangle
67.0,1.0,1.0,0.0,4.0,4.0,311.9038169999157,1.0,1.0,phase_1,,,,,,,,,,,,,blue,I
219.0,7.0,3.0,1.0,1.0,1.0,413.491012999998,1.0,1.0,phase_1,,,,,,,,,,,,,cyan,circle
49.0,5.0,1.0,1.0,1.0,1.0,365.0701760000174,1.0,1.0,phase_1,,,,,,,,,,,,,orange,cross
79.0,2.0,2.0,0.0,2.0,2.0,387.9667729999028,1.0,1.0,phase_1,,,,,,,,,,,,,yellow,flipped triangle
109.0,6.0,2.0,1.0,1.0,1.0,345.0945450000517,1.0,1.0,phase_1,,,,,,,,,,,,,magenta,diamond
424.0,4.0,4.0,0.0,4.0,4.0,374.3069810000179,1.0,1.0,phase_1,,,,,,,,,,,,,green,triangle
208.0,3.0,3.0,0.0,3.0,3.0,348.6221939999723,1.0,1.0,phase_1,,,,,,,,,,,,,gray,square
411.0,4.0,4.0,0.0,3.0,3.0,367.253331000029,1.0,1.0,phase_1,,,,,,,,,,,,,green,triangle
0.0,4.0,0.0,0.0,1.0,1.0,359.4795870000098,1.0,1.0,phase_1,,,,,,,,,,,,,green,triangle
29.0,5.0,1.0,1.0,3.0,3.0,393.4636039999759,1.0,1.0,phase_1,,,,,,,,,,,,,orange,cross
180.0,3.0,3.0,0.0,4.0,4.0,324.798794000003,1.0,1.0,phase_1,,,,,,,,,,,,,gray,square
419.0,4.0,4.0,0.0,3.0,3.0,339.7146620000058,1.0,1.0,phase_1,,,,,,,,,,,,,green,triangle
35.0,5.0,1.0,1.0,3.0,3.0,306.2143939999941,1.0,1.0,phase_1,,,,,,,,,,,,,orange,cross
55.0,5.0,1.0,1.0,1.0,1.0,346.0815270000239,1.0,1.0,phase_1,,,,,,,,,,,,,orange,cross
67.0,5.0,1.0,1.0,2.0,2.0,370.8627720000095,1.0,1.0,phase_1,,,,,,,,,,,,,orange,cross
214.0,3.0,3.0,0.0,3.0,3.0,344.0954409999222,1.0,1.0,phase_1,,,,,,,,,,,,,gray,square
396.0,4.0,4.0,0.0,4.0,4.0,342.8518850000728,1.0,1.0,phase_1,,,,,,,,,,,,,green,triangle
112.0,2.0,2.0,0.0,3.0,3.0,402.0822239999688,1.0,1.0,phase_1,,,,,,,,,,,,,yellow,flipped triangle
41.0,5.0,1.0,1.0,4.0,4.0,299.2679349999889,1.0,1.0,phase_1,,,,,,,,,,,,,orange,cross
411.0,8.0,4.0,1.0,2.0,2.0,314.5189199999549,1.0,1.0,phase_1,,,,,,,,,,,,,white,hexagon
0.0,4.0,0.0,0.0,4.0,4.0,268.2849200000419,1.0,1.0,phase_1,,,,,,,,,,,,,green,triangle
408.0,8.0,4.0,1.0,4.0,4.0,333.2809040000484,1.0,1.0,phase_1,,,,,,,,,,,,,white,hexagon
418.0,8.0,4.0,1.0,4.0,4.0,308.5454129999334,1.0,1.0,phase_1,,,,,,,,,,,,,white,hexagon
197.0,7.0,3.0,1.0,3.0,3.0,338.3482649999223,1.0,1.0,phase_1,,,,,,,,,,,,,cyan,circle
0.0,6.0,0.0,1.0,1.0,1.0,408.0361589999484,1.0,1.0,phase_1,,,,,,,,,,,,,magenta,diamond
0.0,1.0,0.0,0.0,1.0,1.0,343.6370780000288,1.0,1.0,phase_1,,,,,,,,,,,,,blue,I
122.0,2.0,2.0,0.0,2.0,2.0,365.7058799999504,1.0,1.0,phase_1,,,,,,,,,,,,,yellow,flipped triangle
86.0,6.0,2.0,1.0,3.0,3.0,319.5243850000224,1.0,1.0,phase_1,,,,,,,,,,,,,magenta,diamond
47.0,1.0,1.0,0.0,2.0,2.0,288.1553270000268,1.0,1.0,phase_1,,,,,,,,,,,,,blue,I
394.0,8.0,4.0,1.0,2.0,2.0,299.7584159999178,1.0,1.0,phase_1,,,,,,,,,,,,,white,hexagon
0.0,3.0,0.0,0.0,3.0,3.0,294.0795310000794,1.0,1.0,phase_1,,,,,,,,,,,,,gray,square
175.0,3.0,3.0,0.0,3.0,3.0,293.9758539999957,1.0,1.0,phase_1,,,,,,,,,,,,,gray,square
0.0,6.0,0.0,1.0,2.0,2.0,249.1532829999414,1.0,1.0,phase_1,,,,,,,,,,,,,magenta,diamond
35.0,5.0,1.0,1.0,3.0,3.0,395.026735999977,1.0,1.0,phase_1,,,,,,,,,,,,,orange,cross
95.0,2.0,2.0,0.0,2.0,2.0,324.9274579999337,1.0,1.0,phase_1,,,,,,,,,,,,,yellow,flipped triangle
408.0,4.0,4.0,0.0,1.0,1.0,323.9815700000008,1.0,1.0,phase_1,,,,,,,,,,,,,green,triangle
380.0,4.0,4.0,0.0,1.0,1.0,350.8620779999774,1.0,1.0,phase_1,,,,,,,,,,,,,green,triangle
94.0,2.0,2.0,0.0,4.0,4.0,397.5160770000912,1.0,1.0,phase_1,,,,,,,,,,,,,yellow,flipped triangle
0.0,4.0,0.0,0.0,4.0,4.0,310.7791820000329,1.0,1.0,phase_1,,,,,,,,,,,,,green,triangle
59.0,5.0,1.0,1.0,2.0,2.0,295.414891000064,1.0,1.0,phase_1,,,,,,,,,,,,,orange,cross
0.0,7.0,0.0,1.0,3.0,3.0,338.9962520000154,1.0,1.0,phase_1,,,,,,,,,,,,,cyan,circle
73.0,1.0,1.0,0.0,2.0,2.0,447.4877310000238,1.0,1.0,phase_1,,,,,,,,,,,,,blue,I
0.0,3.0,0.0,0.0,3.0,3.0,369.7194119999949,1.0,1.0,phase_1,,,,,,,,,,,,,gray,square
0.0,4.0,0.0,0.0,4.0,4.0,320.8545600000434,1.0,1.0,phase_1,,,,,,,,,,,,,green,triangle
195.0,3.0,3.0,0.0,1.0,1.0,350.250838000079,1.0,1.0,phase_1,,,,,,,,,,,,,gray,square
0.0,1.0,0.0,0.0,2.0,2.0,350.8865929999274,1.0,1.0,phase_1,,,,,,,,,,,,,blue,I
403.0,4.0,4.0,0.0,4.0,4.0,382.8850039999452,1.0,1.0,phase_1,,,,,,,,,,,,,green,triangle
378.0,8.0,4.0,1.0,3.0,3.0,369.6473749999995,1.0,1.0,phase_1,,,,,,,,,,,,,white,hexagon
103.0,6.0,2.0,1.0,1.0,1.0,376.5887829999883,1.0,1.0,phase_1,,,,,,,,,,,,,magenta,diamond
195.0,7.0,3.0,1.0,1.0,1.0,422.2461000000521,1.0,1.0,phase_1,,,,,,,,,,,,,cyan,circle
386.0,8.0,4.0,1.0,1.0,1.0,328.7417530000311,1.0,1.0,phase_1,,,,,,,,,,,,,white,hexagon
0.0,2.0,0.0,0.0,3.0,3.0,376.9370649999928,1.0,1.0,phase_1,,,,,,,,,,,,,yellow,flipped triangle
0.0,5.0,0.0,1.0,4.0,4.0,336.4227129999335,1.0,1.0,phase_1,,,,,,,,,,,,,orange,cross
198.0,7.0,3.0,1.0,3.0,3.0,322.2251219999634,1.0,1.0,phase_1,,,,,,,,,,,,,cyan,circle
115.0,6.0,2.0,1.0,3.0,3.0,331.6121519999342,1.0,1.0,phase_1,,,,,,,,,,,,,magenta,diamond
38.0,5.0,1.0,1.0,3.0,3.0,296.560703999944,1.0,1.0,phase_1,,,,,,,,,,,,,orange,cross
404.0,8.0,4.0,1.0,3.0,3.0,329.4174570000905,1.0,1.0,phase_1,,,,,,,,,,,,,white,hexagon
121.0,6.0,2.0,1.0,3.0,3.0,301.1489439999195,1.0,1.0,phase_1,,,,,,,,,,,,,magenta,diamond
103.0,2.0,2.0,0.0,2.0,2.0,296.342586000037,1.0,1.0,phase_1,,,,,,,,,,,,,yellow,flipped triangle
188.0,7.0,3.0,1.0,1.0,1.0,306.6923820000511,1.0,1.0,phase_1,,,,,,,,,,,,,cyan,circle
0.0,2.0,0.0,0.0,2.0,2.0,379.0457250000827,1.0,1.0,phase_1,,,,,,,,,,,,,yellow,flipped triangle
183.0,7.0,3.0,1.0,2.0,2.0,324.0592129999413,1.0,1.0,phase_1,,,,,,,,,,,,,cyan,circle
81.0,2.0,2.0,0.0,2.0,2.0,329.4307840000101,1.0,1.0,phase_1,,,,,,,,,,,,,yellow,flipped triangle
109.0,2.0,2.0,0.0,4.0,4.0,372.5206330000219,1.0,1.0,phase_1,,,,,,,,,,,,,yellow,flipped triangle
0.0,1.0,0.0,0.0,4.0,4.0,381.170486999963,1.0,1.0,phase_1,,,,,,,,,,,,,blue,I
117.0,2.0,2.0,0.0,1.0,1.0,494.8765230000163,1.0,1.0,phase_1,,,,,,,,,,,,,yellow,flipped triangle
190.0,7.0,3.0,1.0,4.0,4.0,439.5249899999953,1.0,1.0,phase_1,,,,,,,,,,,,,cyan,circle
422.0,8.0,4.0,1.0,2.0,2.0,330.8207430000038,1.0,1.0,phase_1,,,,,,,,,,,,,white,hexagon
0.0,6.0,0.0,1.0,4.0,4.0,320.2764899999692,1.0,1.0,phase_1,,,,,,,,,,,,,magenta,diamond
111.0,2.0,2.0,0.0,2.0,2.0,300.5022990000725,1.0,1.0,phase_1,,,,,,,,,,,,,yellow,flipped triangle
87.0,2.0,2.0,0.0,4.0,4.0,297.901918999969,1.0,1.0,phase_1,,,,,,,,,,,,,yellow,flipped triangle
391.0,8.0,4.0,1.0,2.0,2.0,315.4509400001188,1.0,1.0,phase_1,,,,,,,,,,,,,white,hexagon
403.0,8.0,4.0,1.0,3.0,3.0,336.2295940000877,1.0,1.0,phase_1,,,,,,,,,,,,,white,hexagon
198.0,3.0,3.0,0.0,3.0,3.0,370.623144999854,1.0,1.0,phase_1,,,,,,,,,,,,,gray,square
70.0,5.0,1.0,1.0,2.0,2.0,313.7384890001158,1.0,1.0,phase_1,,,,,,,,,,,,,orange,cross
46.0,5.0,1.0,1.0,1.0,1.0,404.2176789998848,1.0,1.0,phase_1,,,,,,,,,,,,,orange,cross
0.0,2.0,0.0,0.0,4.0,4.0,353.5426230000666,1.0,1.0,phase_1,,,,,,,,,,,,,yellow,flipped triangle
0.0,2.0,0.0,0.0,3.0,3.0,337.2825710000597,1.0,1.0,phase_1,,,,,,,,,,,,,yellow,flipped triangle
218.0,7.0,3.0,1.0,4.0,4.0,402.3739249998925,1.0,1.0,phase_1,,,,,,,,,,,,,cyan,circle
92.0,6.0,2.0,1.0,4.0,4.0,382.763488999899,1.0,1.0,phase_1,,,,,,,,,,,,,magenta,diamond
0.0,3.0,0.0,0.0,2.0,2.0,435.3581909999775,2.0,1.0,phase_1,,,,,,,,,,,,,gray,square
0.0,8.0,0.0,1.0,4.0,4.0,350.716981000005,2.0,1.0,phase_1,,,,,,,,,,,,,white,hexagon
195.0,7.0,3.0,1.0,4.0,4.0,330.3811690000202,2.0,1.0,phase_1,,,,,,,,,,,,,cyan,circle
221.0,3.0,3.0,0.0,4.0,4.0,296.5363569999226,2.0,1.0,phase_1,,,,,,,,,,,,,gray,square
393.0,4.0,4.0,0.0,3.0,3.0,327.8865990000668,2.0,1.0,phase_1,,,,,,,,,,,,,green,triangle
62.0,1.0,1.0,0.0,2.0,2.0,331.6230569998879,2.0,1.0,phase_1,,,,,,,,,,,,,blue,I
208.0,7.0,3.0,1.0,3.0,3.0,320.7078899999942,2.0,1.0,phase_1,,,,,,,,,,,,,cyan,circle
55.0,1.0,1.0,0.0,4.0,4.0,328.441494000117,2.0,1.0,phase_1,,,,,,,,,,,,,blue,I
92.0,2.0,2.0,0.0,4.0,4.0,330.0183970000034,2.0,1.0,phase_1,,,,,,,,,,,,,yellow,flipped triangle
97.0,2.0,2.0,0.0,2.0,2.0,313.852241999939,2.0,1.0,phase_1,,,,,,,,,,,,,yellow,flipped triangle
34.0,1.0,1.0,0.0,3.0,3.0,353.1418130000929,2.0,1.0,phase_1,,,,,,,,,,,,,blue,I
0.0,2.0,0.0,0.0,3.0,3.0,335.8814489999986,2.0,1.0,phase_1,,,,,,,,,,,,,yellow,flipped triangle
385.0,4.0,4.0,0.0,2.0,2.0,311.9575670000358,2.0,1.0,phase_1,,,,,,,,,,,,,green,triangle
414.0,4.0,4.0,0.0,3.0,3.0,304.3615349999982,2.0,1.0,phase_1,,,,,,,,,,,,,green,triangle
0.0,5.0,0.0,1.0,2.0,2.0,307.3099119999369,2.0,1.0,phase_1,,,,,,,,,,,,,orange,cross
201.0,7.0,3.0,1.0,1.0,1.0,354.5893390000856,2.0,1.0,phase_1,,,,,,,,,,,,,cyan,circle
86.0,2.0,2.0,0.0,4.0,4.0,333.1687390000297,2.0,1.0,phase_1,,,,,,,,,,,,,yellow,flipped triangle
0.0,7.0,0.0,1.0,3.0,3.0,242.8762360000291,2.0,1.0,phase_1,,,,,,,,,,,,,cyan,circle
0.0,7.0,0.0,1.0,3.0,3.0,306.526058999907,2.0,1.0,phase_1,,,,,,,,,,,,,cyan,circle
41.0,1.0,1.0,0.0,1.0,1.0,376.2723349998396,2.0,1.0,phase_1,,,,,,,,,,,,,blue,I
181.0,7.0,3.0,1.0,1.0,1.0,374.578190999955,2.0,1.0,phase_1,,,,,,,,,,,,,cyan,circle
422.0,4.0,4.0,0.0,3.0,3.0,339.9511499999335,2.0,1.0,phase_1,,,,,,,,,,,,,green,triangle
385.0,8.0,4.0,1.0,3.0,3.0,351.922783999953,2.0,1.0,phase_1,,,,,,,,,,,,,white,hexagon
49.0,1.0,1.0,0.0,4.0,4.0,341.4079640001546,2.0,1.0,phase_1,,,,,,,,,,,,,blue,I
82.0,2.0,2.0,0.0,1.0,1.0,342.5475330000154,2.0,1.0,phase_1,,,,,,,,,,,,,yellow,flipped triangle
40.0,5.0,1.0,1.0,1.0,1.0,371.4250909999919,2.0,1.0,phase_1,,,,,,,,,,,,,orange,cross
83.0,6.0,2.0,1.0,2.0,2.0,321.8549809998876,2.0,1.0,phase_1,,,,,,,,,,,,,magenta,diamond
35.0,1.0,1.0,0.0,2.0,2.0,314.9349069999516,2.0,1.0,phase_1,,,,,,,,,,,,,blue,I
388.0,4.0,4.0,0.0,1.0,1.0,340.8068589999402,2.0,1.0,phase_1,,,,,,,,,,,,,green,triangle
111.0,2.0,2.0,0.0,1.0,1.0,320.92465300002,2.0,1.0,phase_1,,,,,,,,,,,,,yellow,flipped triangle
209.0,3.0,3.0,0.0,3.0,3.0,345.5966989999979,2.0,1.0,phase_1,,,,,,,,,,,,,gray,square
394.0,4.0,4.0,0.0,4.0,4.0,329.7451490000185,2.0,1.0,phase_1,,,,,,,,,,,,,green,triangle
0.0,6.0,0.0,1.0,2.0,2.0,321.7720320001263,2.0,1.0,phase_1,,,,,,,,,,,,,magenta,diamond
0.0,8.0,0.0,1.0,3.0,3.0,324.2747459999009,2.0,1.0,phase_1,,,,,,,,,,,,,white,hexagon
386.0,4.0,4.0,0.0,1.0,1.0,369.838431000062,2.0,1.0,phase_1,,,,,,,,,,,,,green,triangle
0.0,2.0,0.0,0.0,2.0,2.0,323.1731030000446,2.0,1.0,phase_1,,,,,,,,,,,,,yellow,flipped triangle
391.0,8.0,4.0,1.0,3.0,3.0,332.668460999912,2.0,1.0,phase_1,,,,,,,,,,,,,white,hexagon
0.0,3.0,0.0,0.0,2.0,2.0,403.207932000214,2.0,1.0,phase_1,,,,,,,,,,,,,gray,square
0.0,5.0,0.0,1.0,4.0,4.0,341.0432989999208,2.0,1.0,phase_1,,,,,,,,,,,,,orange,cross
194.0,3.0,3.0,0.0,3.0,3.0,328.493367999954,2.0,1.0,phase_1,,,,,,,,,,,,,gray,square
190.0,7.0,3.0,1.0,1.0,1.0,321.8077540000195,2.0,1.0,phase_1,,,,,,,,,,,,,cyan,circle
176.0,7.0,3.0,1.0,3.0,3.0,305.4228920000241,2.0,1.0,phase_1,,,,,,,,,,,,,cyan,circle
417.0,8.0,4.0,1.0,4.0,4.0,376.6851110001425,2.0,1.0,phase_1,,,,,,,,,,,,,white,hexagon
407.0,8.0,4.0,1.0,2.0,2.0,338.6577479998323,2.0,1.0,phase_1,,,,,,,,,,,,,white,hexagon
110.0,6.0,2.0,1.0,1.0,1.0,433.1481649999205,2.0,1.0,phase_1,,,,,,,,,,,,,magenta,diamond
200.0,3.0,3.0,0.0,1.0,1.0,336.5657170002123,2.0,1.0,phase_1,,,,,,,,,,,,,gray,square
414.0,4.0,4.0,0.0,3.0,3.0,343.2651260000057,2.0,1.0,phase_1,,,,,,,,,,,,,green,triangle
96.0,2.0,2.0,0.0,1.0,1.0,289.5560320000641,2.0,1.0,phase_1,,,,,,,,,,,,,yellow,flipped triangle
390.0,4.0,4.0,0.0,1.0,1.0,324.3148740000379,2.0,1.0,phase_1,,,,,,,,,,,,,green,triangle
56.0,5.0,1.0,1.0,3.0,3.0,324.7296290001031,2.0,1.0,phase_1,,,,,,,,,,,,,orange,cross
108.0,2.0,2.0,0.0,1.0,1.0,329.1438000001108,2.0,1.0,phase_1,,,,,,,,,,,,,yellow,flipped triangle
403.0,4.0,4.0,0.0,3.0,3.0,293.6341060001268,2.0,1.0,phase_1,,,,,,,,,,,,,green,triangle
198.0,3.0,3.0,0.0,4.0,4.0,352.0563959998526,2.0,1.0,phase_1,,,,,,,,,,,,,gray,square
84.0,2.0,2.0,0.0,1.0,1.0,350.7198090001111,2.0,1.0,phase_1,,,,,,,,,,,,,yellow,flipped triangle
73.0,5.0,1.0,1.0,1.0,1.0,311.7197650001344,2.0,1.0,phase_1,,,,,,,,,,,,,orange,cross
54.0,5.0,1.0,1.0,1.0,1.0,278.7339499998325,2.0,1.0,phase_1,,,,,,,,,,,,,orange,cross
0.0,3.0,0.0,0.0,2.0,2.0,323.6936710000009,2.0,1.0,phase_1,,,,,,,,,,,,,gray,square
0.0,8.0,0.0,1.0,3.0,3.0,344.5667459998276,2.0,1.0,phase_1,,,,,,,,,,,,,white,hexagon
0.0,3.0,0.0,0.0,4.0,4.0,318.8567139998213,2.0,1.0,phase_1,,,,,,,,,,,,,gray,square
389.0,4.0,4.0,0.0,4.0,4.0,319.8433089999071,2.0,1.0,phase_1,,,,,,,,,,,,,green,triangle
218.0,3.0,3.0,0.0,4.0,4.0,305.7929130000048,2.0,1.0,phase_1,,,,,,,,,,,,,gray,square
395.0,4.0,4.0,0.0,1.0,1.0,325.0994299999092,2.0,1.0,phase_1,,,,,,,,,,,,,green,triangle
97.0,6.0,2.0,1.0,3.0,3.0,294.8994019998281,2.0,1.0,phase_1,,,,,,,,,,,,,magenta,diamond
79.0,6.0,2.0,1.0,2.0,2.0,319.7711039999831,2.0,1.0,phase_1,,,,,,,,,,,,,magenta,diamond
61.0,1.0,1.0,0.0,2.0,2.0,334.9235549999321,2.0,1.0,phase_1,,,,,,,,,,,,,blue,I
422.0,8.0,4.0,1.0,3.0,3.0,318.3446159998766,2.0,1.0,phase_1,,,,,,,,,,,,,white,hexagon
0.0,7.0,0.0,1.0,3.0,3.0,319.1603499999473,2.0,1.0,phase_1,,,,,,,,,,,,,cyan,circle
404.0,4.0,4.0,0.0,4.0,4.0,340.6203280001136,2.0,1.0,phase_1,,,,,,,,,,,,,green,triangle
0.0,8.0,0.0,1.0,1.0,1.0,313.1243560001167,2.0,1.0,phase_1,,,,,,,,,,,,,white,hexagon
115.0,2.0,2.0,0.0,4.0,4.0,266.6353669999353,2.0,1.0,phase_1,,,,,,,,,,,,,yellow,flipped triangle
0.0,2.0,0.0,0.0,1.0,1.0,303.3169369998632,2.0,1.0,phase_1,,,,,,,,,,,,,yellow,flipped triangle
0.0,1.0,0.0,0.0,4.0,4.0,272.5557320000007,2.0,1.0,phase_1,,,,,,,,,,,,,blue,I
419.0,8.0,4.0,1.0,4.0,4.0,327.2000580000167,2.0,2.0,phase_1,,,,,,,,,,,,,white,hexagon
28.0,1.0,1.0,0.0,1.0,1.0,374.5760339998014,2.0,1.0,phase_1,,,,,,,,,,,,,blue,I
46.0,1.0,1.0,0.0,1.0,1.0,335.0060100001428,2.0,1.0,phase_1,,,,,,,,,,,,,blue,I
404.0,8.0,4.0,1.0,1.0,1.0,310.3820349999751,2.0,1.0,phase_1,,,,,,,,,,,,,white,hexagon
89.0,6.0,2.0,1.0,1.0,1.0,311.9050339998921,2.0,1.0,phase_1,,,,,,,,,,,,,magenta,diamond
0.0,1.0,0.0,0.0,2.0,2.0,400.6138199999896,2.0,1.0,phase_1,,,,,,,,,,,,,blue,I
56.0,1.0,1.0,0.0,3.0,3.0,361.1057089999576,2.0,1.0,phase_1,,,,,,,,,,,,,blue,I
59.0,1.0,1.0,0.0,4.0,4.0,301.6180140000415,2.0,1.0,phase_1,,,,,,,,,,,,,blue,I
0.0,1.0,0.0,0.0,4.0,4.0,292.0189369999661,2.0,1.0,phase_1,,,,,,,,,,,,,blue,I
408.0,8.0,4.0,1.0,1.0,1.0,332.9565950000415,2.0,1.0,phase_1,,,,,,,,,,,,,white,hexagon
0.0,4.0,0.0,0.0,3.0,3.0,318.5220699999718,2.0,1.0,phase_1,,,,,,,,,,,,,green,triangle
55.0,5.0,1.0,1.0,3.0,3.0,303.670004000196,2.0,1.0,phase_1,,,,,,,,,,,,,orange,cross
388.0,8.0,4.0,1.0,1.0,1.0,310.3828409998641,2.0,1.0,phase_1,,,,,,,,,,,,,white,hexagon
123.0,2.0,2.0,0.0,3.0,3.0,314.152113000091,2.0,1.0,phase_1,,,,,,,,,,,,,yellow,flipped triangle
0.0,4.0,0.0,0.0,2.0,2.0,376.4980779999405,2.0,1.0,phase_1,,,,,,,,,,,,,green,triangle
0.0,4.0,0.0,0.0,2.0,2.0,347.8871990000698,2.0,1.0,phase_1,,,,,,,,,,,,,green,triangle
84.0,6.0,2.0,1.0,2.0,2.0,351.3873050001166,2.0,1.0,phase_1,,,,,,,,,,,,,magenta,diamond
190.0,3.0,3.0,0.0,4.0,4.0,347.8993040000659,2.0,1.0,phase_1,,,,,,,,,,,,,gray,square
390.0,8.0,4.0,1.0,3.0,3.0,355.7497780000176,2.0,1.0,phase_1,,,,,,,,,,,,,white,hexagon
206.0,3.0,3.0,0.0,3.0,3.0,356.1603820000982,2.0,1.0,phase_1,,,,,,,,,,,,,gray,square
0.0,8.0,0.0,1.0,1.0,1.0,297.149250999837,2.0,1.0,phase_1,,,,,,,,,,,,,white,hexagon
61.0,1.0,1.0,0.0,3.0,3.0,319.1850939999767,2.0,1.0,phase_1,,,,,,,,,,,,,blue,I
375.0,8.0,4.0,1.0,4.0,4.0,354.950891000044,2.0,1.0,phase_1,,,,,,,,,,,,,white,hexagon
61.0,5.0,1.0,1.0,4.0,4.0,303.618570000026,2.0,1.0,phase_1,,,,,,,,,,,,,orange,cross
116.0,2.0,2.0,0.0,3.0,3.0,319.7971970000708,2.0,1.0,phase_1,,,,,,,,,,,,,yellow,flipped triangle
380.0,8.0,4.0,1.0,2.0,2.0,352.1731289999934,2.0,1.0,phase_1,,,,,,,,,,,,,white,hexagon
0.0,5.0,0.0,1.0,4.0,4.0,310.8379660000082,2.0,1.0,phase_1,,,,,,,,,,,,,orange,cross
97.0,6.0,2.0,1.0,4.0,4.0,327.4427240000932,2.0,1.0,phase_1,,,,,,,,,,,,,magenta,diamond
201.0,7.0,3.0,1.0,1.0,1.0,447.2187379999468,3.0,1.0,phase_1,,,,,,,,,,,,,cyan,circle
408.0,4.0,4.0,0.0,4.0,4.0,316.3615930000105,3.0,1.0,phase_1,,,,,,,,,,,,,green,triangle
103.0,2.0,2.0,0.0,2.0,2.0,276.2181489999875,3.0,1.0,phase_1,,,,,,,,,,,,,yellow,flipped triangle
396.0,8.0,4.0,1.0,4.0,4.0,320.0347720000991,3.0,1.0,phase_1,,,,,,,,,,,,,white,hexagon
107.0,2.0,2.0,0.0,1.0,1.0,352.9477310000857,3.0,1.0,phase_1,,,,,,,,,,,,,yellow,flipped triangle
395.0,8.0,4.0,1.0,1.0,1.0,387.0097049998549,3.0,1.0,phase_1,,,,,,,,,,,,,white,hexagon
0.0,7.0,0.0,1.0,4.0,4.0,343.0653580001035,3.0,1.0,phase_1,,,,,,,,,,,,,cyan,circle
389.0,8.0,4.0,1.0,4.0,4.0,302.5681730000542,3.0,1.0,phase_1,,,,,,,,,,,,,white,hexagon
0.0,3.0,0.0,0.0,3.0,3.0,334.0780640000957,3.0,1.0,phase_1,,,,,,,,,,,,,gray,square
74.0,1.0,1.0,0.0,4.0,4.0,293.0996179998146,3.0,1.0,phase_1,,,,,,,,,,,,,blue,I
28.0,5.0,1.0,1.0,1.0,1.0,321.7070660000445,3.0,1.0,phase_1,,,,,,,,,,,,,orange,cross
0.0,8.0,0.0,1.0,2.0,2.0,383.6285950001183,3.0,1.0,phase_1,,,,,,,,,,,,,white,hexagon
109.0,6.0,2.0,1.0,3.0,3.0,325.4942139999457,3.0,1.0,phase_1,,,,,,,,,,,,,magenta,diamond
402.0,8.0,4.0,1.0,2.0,2.0,285.5216619998373,3.0,1.0,phase_1,,,,,,,,,,,,,white,hexagon
221.0,7.0,3.0,1.0,4.0,4.0,303.109023999923,3.0,1.0,phase_1,,,,,,,,,,,,,cyan,circle
46.0,1.0,1.0,0.0,1.0,1.0,322.981468999842,3.0,1.0,phase_1,,,,,,,,,,,,,blue,I
55.0,1.0,1.0,0.0,1.0,1.0,295.0343019999764,3.0,1.0,phase_1,,,,,,,,,,,,,blue,I
196.0,7.0,3.0,1.0,2.0,2.0,357.2924110001167,3.0,1.0,phase_1,,,,,,,,,,,,,cyan,circle
93.0,6.0,2.0,1.0,4.0,4.0,319.3721160000677,3.0,1.0,phase_1,,,,,,,,,,,,,magenta,diamond
219.0,3.0,3.0,0.0,2.0,2.0,328.4908780001387,3.0,1.0,phase_1,,,,,,,,,,,,,gray,square
0.0,6.0,0.0,1.0,1.0,1.0,308.9916209999046,3.0,1.0,phase_1,,,,,,,,,,,,,magenta,diamond
380.0,4.0,4.0,0.0,1.0,1.0,328.3262040001773,3.0,1.0,phase_1,,,,,,,,,,,,,green,triangle
35.0,5.0,1.0,1.0,2.0,2.0,320.5318459999944,3.0,1.0,phase_1,,,,,,,,,,,,,orange,cross
25.0,5.0,1.0,1.0,2.0,2.0,293.4114959998624,3.0,1.0,phase_1,,,,,,,,,,,,,orange,cross
112.0,6.0,2.0,1.0,4.0,4.0,312.1331800000462,3.0,1.0,phase_1,,,,,,,,,,,,,magenta,diamond
214.0,7.0,3.0,1.0,1.0,1.0,309.9650619999465,3.0,1.0,phase_1,,,,,,,,,,,,,cyan,circle
35.0,1.0,1.0,0.0,3.0,3.0,314.7106860001258,3.0,1.0,phase_1,,,,,,,,,,,,,blue,I
386.0,4.0,4.0,0.0,3.0,3.0,334.4622719998824,3.0,1.0,phase_1,,,,,,,,,,,,,green,triangle
0.0,5.0,0.0,1.0,2.0,2.0,309.3396629999461,3.0,1.0,phase_1,,,,,,,,,,,,,orange,cross
0.0,1.0,0.0,0.0,1.0,1.0,314.230001000169,3.0,1.0,phase_1,,,,,,,,,,,,,blue,I
57.0,5.0,1.0,1.0,4.0,4.0,345.124984999984,3.0,1.0,phase_1,,,,,,,,,,,,,orange,cross
31.0,5.0,1.0,1.0,4.0,4.0,319.8125139999774,3.0,1.0,phase_1,,,,,,,,,,,,,orange,cross
81.0,2.0,2.0,0.0,1.0,1.0,315.0822489999427,3.0,1.0,phase_1,,,,,,,,,,,,,yellow,flipped triangle
29.0,1.0,1.0,0.0,4.0,4.0,331.4702220000072,3.0,1.0,phase_1,,,,,,,,,,,,,blue,I
81.0,6.0,2.0,1.0,2.0,2.0,304.0010969998548,3.0,1.0,phase_1,,,,,,,,,,,,,magenta,diamond
86.0,2.0,2.0,0.0,4.0,4.0,315.9889260000454,3.0,1.0,phase_1,,,,,,,,,,,,,yellow,flipped triangle
220.0,7.0,3.0,1.0,2.0,2.0,298.4423249999963,3.0,1.0,phase_1,,,,,,,,,,,,,cyan,circle
46.0,5.0,1.0,1.0,2.0,2.0,290.5282949998309,3.0,1.0,phase_1,,,,,,,,,,,,,orange,cross
116.0,6.0,2.0,1.0,2.0,2.0,323.9137450000271,3.0,1.0,phase_1,,,,,,,,,,,,,magenta,diamond
0.0,7.0,0.0,1.0,1.0,1.0,316.9126880000021,3.0,1.0,phase_1,,,,,,,,,,,,,cyan,circle
195.0,3.0,3.0,0.0,4.0,4.0,324.1133229998922,3.0,1.0,phase_1,,,,,,,,,,,,,gray,square
52.0,5.0,1.0,1.0,3.0,3.0,294.8931040000389,3.0,1.0,phase_1,,,,,,,,,,,,,orange,cross
0.0,6.0,0.0,1.0,4.0,4.0,280.8172270001705,3.0,1.0,phase_1,,,,,,,,,,,,,magenta,diamond
0.0,5.0,0.0,1.0,3.0,3.0,290.3576920000432,3.0,1.0,phase_1,,,,,,,,,,,,,orange,cross
66.0,5.0,1.0,1.0,4.0,4.0,255.21289000016623,3.0,1.0,phase_1,,,,,,,,,,,,,orange,cross
0.0,8.0,0.0,1.0,4.0,4.0,252.94980100011338,3.0,1.0,phase_1,,,,,,,,,,,,,white,hexagon
69.0,1.0,1.0,0.0,2.0,2.0,255.42032400016978,3.0,1.0,phase_1,,,,,,,,,,,,,blue,I
97.0,2.0,2.0,0.0,3.0,3.0,281.6691609998543,3.0,1.0,phase_1,,,,,,,,,,,,,yellow,flipped triangle
0.0,7.0,0.0,1.0,2.0,2.0,281.2646370000493,3.0,1.0,phase_1,,,,,,,,,,,,,cyan,circle
0.0,2.0,0.0,0.0,2.0,2.0,292.5457460000871,3.0,1.0,phase_1,,,,,,,,,,,,,yellow,flipped triangle
209.0,3.0,3.0,0.0,1.0,1.0,287.6987839999856,3.0,1.0,phase_1,,,,,,,,,,,,,gray,square
178.0,3.0,3.0,0.0,1.0,1.0,286.9057100001555,3.0,1.0,phase_1,,,,,,,,,,,,,gray,square
85.0,6.0,2.0,1.0,3.0,3.0,301.7366300000503,3.0,1.0,phase_1,,,,,,,,,,,,,magenta,diamond
377.0,4.0,4.0,0.0,4.0,4.0,292.6224389998424,3.0,1.0,phase_1,,,,,,,,,,,,,green,triangle
0.0,3.0,0.0,0.0,4.0,4.0,330.3462389999367,3.0,1.0,phase_1,,,,,,,,,,,,,gray,square
67.0,1.0,1.0,0.0,2.0,2.0,287.3192000001836,3.0,1.0,phase_1,,,,,,,,,,,,,blue,I
50.0,1.0,1.0,0.0,4.0,4.0,296.1571710000044,3.0,1.0,phase_1,,,,,,,,,,,,,blue,I
408.0,4.0,4.0,0.0,2.0,2.0,250.17450599989388,3.0,1.0,phase_1,,,,,,,,,,,,,green,triangle
0.0,1.0,0.0,0.0,3.0,3.0,306.3774009999633,3.0,1.0,phase_1,,,,,,,,,,,,,blue,I
0.0,8.0,0.0,1.0,2.0,2.0,295.5070929999692,3.0,1.0,phase_1,,,,,,,,,,,,,white,hexagon
381.0,4.0,4.0,0.0,2.0,2.0,308.9705370000501,3.0,1.0,phase_1,,,,,,,,,,,,,green,triangle
181.0,3.0,3.0,0.0,2.0,2.0,308.0503130001943,3.0,1.0,phase_1,,,,,,,,,,,,,gray,square
55.0,5.0,1.0,1.0,1.0,1.0,271.1408499999379,3.0,1.0,phase_1,,,,,,,,,,,,,orange,cross
198.0,7.0,3.0,1.0,4.0,4.0,297.261570000046,3.0,1.0,phase_1,,,,,,,,,,,,,cyan,circle
391.0,4.0,4.0,0.0,4.0,4.0,283.5315400000127,3.0,1.0,phase_1,,,,,,,,,,,,,green,triangle
87.0,6.0,2.0,1.0,4.0,4.0,307.931845999974,3.0,1.0,phase_1,,,,,,,,,,,,,magenta,diamond
62.0,5.0,1.0,1.0,3.0,3.0,304.975696999918,3.0,1.0,phase_1,,,,,,,,,,,,,orange,cross
0.0,1.0,0.0,0.0,1.0,1.0,331.0698410000441,3.0,1.0,phase_1,,,,,,,,,,,,,blue,I
42.0,1.0,1.0,0.0,3.0,3.0,308.799782000051,3.0,1.0,phase_1,,,,,,,,,,,,,blue,I
0.0,2.0,0.0,0.0,3.0,3.0,283.0615620000571,3.0,1.0,phase_1,,,,,,,,,,,,,yellow,flipped triangle
33.0,5.0,1.0,1.0,3.0,3.0,347.9161440000098,3.0,1.0,phase_1,,,,,,,,,,,,,orange,cross
0.0,5.0,0.0,1.0,3.0,3.0,334.2938999999205,3.0,1.0,phase_1,,,,,,,,,,,,,orange,cross
207.0,7.0,3.0,1.0,4.0,4.0,316.6258270000526,3.0,2.0,phase_1,,,,,,,,,,,,,cyan,circle
121.0,2.0,2.0,0.0,4.0,4.0,323.9528579999842,3.0,1.0,phase_1,,,,,,,,,,,,,yellow,flipped triangle
82.0,6.0,2.0,1.0,3.0,3.0,309.3243010000606,3.0,1.0,phase_1,,,,,,,,,,,,,magenta,diamond
214.0,3.0,3.0,0.0,4.0,4.0,298.6580480001066,3.0,1.0,phase_1,,,,,,,,,,,,,gray,square
180.0,7.0,3.0,1.0,4.0,4.0,294.9724390000483,3.0,1.0,phase_1,,,,,,,,,,,,,cyan,circle
182.0,7.0,3.0,1.0,2.0,2.0,274.5344190000196,3.0,1.0,phase_1,,,,,,,,,,,,,cyan,circle
66.0,1.0,1.0,0.0,1.0,1.0,360.5483779999758,3.0,1.0,phase_1,,,,,,,,,,,,,blue,I
69.0,5.0,1.0,1.0,4.0,4.0,307.9216610001367,3.0,1.0,phase_1,,,,,,,,,,,,,orange,cross
85.0,2.0,2.0,0.0,3.0,3.0,331.838351999977,3.0,1.0,phase_1,,,,,,,,,,,,,yellow,flipped triangle
203.0,3.0,3.0,0.0,3.0,3.0,321.2638320001133,3.0,1.0,phase_1,,,,,,,,,,,,,gray,square
33.0,1.0,1.0,0.0,2.0,2.0,337.6799679999749,3.0,1.0,phase_1,,,,,,,,,,,,,blue,I
381.0,8.0,4.0,1.0,3.0,3.0,313.1703139999899,3.0,1.0,phase_1,,,,,,,,,,,,,white,hexagon
0.0,3.0,0.0,0.0,3.0,3.0,305.6803700001183,3.0,1.0,phase_1,,,,,,,,,,,,,gray,square
50.0,5.0,1.0,1.0,4.0,4.0,333.3915230000457,3.0,1.0,phase_1,,,,,,,,,,,,,orange,cross
0.0,4.0,0.0,0.0,4.0,4.0,321.5573400000266,3.0,1.0,phase_1,,,,,,,,,,,,,green,triangle
393.0,8.0,4.0,1.0,4.0,4.0,320.4339519998029,3.0,1.0,phase_1,,,,,,,,,,,,,white,hexagon
408.0,8.0,4.0,1.0,1.0,1.0,358.2107970000834,3.0,1.0,phase_1,,,,,,,,,,,,,white,hexagon
0.0,6.0,0.0,1.0,4.0,4.0,336.0085890001301,3.0,1.0,phase_1,,,,,,,,,,,,,magenta,diamond
38.0,1.0,1.0,0.0,4.0,4.0,336.806088000003,3.0,1.0,phase_1,,,,,,,,,,,,,blue,I
178.0,7.0,3.0,1.0,1.0,1.0,343.4015670000008,3.0,1.0,phase_1,,,,,,,,,,,,,cyan,circle
210.0,7.0,3.0,1.0,4.0,4.0,315.2534930000001,3.0,1.0,phase_1,,,,,,,,,,,,,cyan,circle
385.0,8.0,4.0,1.0,2.0,2.0,360.5275840000104,3.0,1.0,phase_1,,,,,,,,,,,,,white,hexagon
25.0,1.0,1.0,0.0,3.0,3.0,342.9568359999848,3.0,1.0,phase_1,,,,,,,,,,,,,blue,I
181.0,7.0,3.0,1.0,4.0,4.0,337.4930980000954,3.0,1.0,phase_1,,,,,,,,,,,,,cyan,circle
194.0,7.0,3.0,1.0,1.0,1.0,388.9602790000026,3.0,1.0,phase_1,,,,,,,,,,,,,cyan,circle
56.0,5.0,1.0,1.0,3.0,3.0,355.7625579999239,3.0,1.0,phase_1,,,,,,,,,,,,,orange,cross
0.0,5.0,0.0,1.0,4.0,4.0,326.0608119999233,3.0,1.0,phase_1,,,,,,,,,,,,,orange,cross
188.0,3.0,3.0,0.0,2.0,2.0,324.4679800000085,3.0,1.0,phase_1,,,,,,,,,,,,,gray,square
386.0,8.0,4.0,1.0,4.0,4.0,380.5226040001344,4.0,1.0,phase_1,,,,,,,,,,,,,white,hexagon
123.0,6.0,2.0,1.0,2.0,2.0,279.6288160000131,4.0,1.0,phase_1,,,,,,,,,,,,,magenta,diamond
391.0,4.0,4.0,0.0,2.0,2.0,297.6530609998917,4.0,1.0,phase_1,,,,,,,,,,,,,green,triangle
35.0,1.0,1.0,0.0,3.0,3.0,331.7437680000239,4.0,1.0,phase_1,,,,,,,,,,,,,blue,I
0.0,7.0,0.0,1.0,2.0,2.0,307.8710879999562,4.0,1.0,phase_1,,,,,,,,,,,,,cyan,circle
0.0,8.0,0.0,1.0,3.0,3.0,312.6649670000461,4.0,1.0,phase_1,,,,,,,,,,,,,white,hexagon
83.0,2.0,2.0,0.0,3.0,3.0,324.89360999989,4.0,1.0,phase_1,,,,,,,,,,,,,yellow,flipped triangle
31.0,1.0,1.0,0.0,2.0,2.0,328.7726089999978,4.0,1.0,phase_1,,,,,,,,,,,,,blue,I
94.0,6.0,2.0,1.0,1.0,1.0,327.4358789999496,4.0,1.0,phase_1,,,,,,,,,,,,,magenta,diamond
183.0,3.0,3.0,0.0,4.0,4.0,308.8549349999994,4.0,1.0,phase_1,,,,,,,,,,,,,gray,square
408.0,8.0,4.0,1.0,1.0,1.0,337.6646540000365,4.0,1.0,phase_1,,,,,,,,,,,,,white,hexagon
56.0,1.0,1.0,0.0,3.0,3.0,312.2044659999119,4.0,1.0,phase_1,,,,,,,,,,,,,blue,I
28.0,5.0,1.0,1.0,1.0,1.0,309.4067360000281,4.0,1.0,phase_1,,,,,,,,,,,,,orange,cross
61.0,5.0,1.0,1.0,2.0,2.0,304.208934999906,4.0,1.0,phase_1,,,,,,,,,,,,,orange,cross
421.0,8.0,4.0,1.0,3.0,3.0,320.7462330001362,4.0,1.0,phase_1,,,,,,,,,,,,,white,hexagon
223.0,3.0,3.0,0.0,3.0,3.0,329.6099520000553,4.0,1.0,phase_1,,,,,,,,,,,,,gray,square
82.0,6.0,2.0,1.0,3.0,3.0,311.0081319998699,4.0,1.0,phase_1,,,,,,,,,,,,,magenta,diamond
81.0,6.0,2.0,1.0,3.0,3.0,277.0041989999754,4.0,1.0,phase_1,,,,,,,,,,,,,magenta,diamond
404.0,4.0,4.0,0.0,1.0,1.0,314.7756230000595,4.0,1.0,phase_1,,,,,,,,,,,,,green,triangle
403.0,8.0,4.0,1.0,1.0,1.0,317.3824299999523,4.0,1.0,phase_1,,,,,,,,,,,,,white,hexagon
110.0,2.0,2.0,0.0,4.0,4.0,402.7646380000078,4.0,1.0,phase_1,,,,,,,,,,,,,yellow,flipped triangle
55.0,1.0,1.0,0.0,2.0,2.0,305.6093320001309,4.0,1.0,phase_1,,,,,,,,,,,,,blue,I
422.0,4.0,4.0,0.0,2.0,2.0,330.778354000131,4.0,1.0,phase_1,,,,,,,,,,,,,green,triangle
182.0,3.0,3.0,0.0,1.0,1.0,306.003346000125,4.0,1.0,phase_1,,,,,,,,,,,,,gray,square
0.0,6.0,0.0,1.0,4.0,4.0,300.6724240001404,4.0,1.0,phase_1,,,,,,,,,,,,,magenta,diamond
103.0,6.0,2.0,1.0,4.0,4.0,315.9201880000637,4.0,1.0,phase_1,,,,,,,,,,,,,magenta,diamond
418.0,4.0,4.0,0.0,1.0,1.0,373.4466250000423,4.0,1.0,phase_1,,,,,,,,,,,,,green,triangle
375.0,4.0,4.0,0.0,2.0,2.0,320.9695580001153,4.0,1.0,phase_1,,,,,,,,,,,,,green,triangle
42.0,5.0,1.0,1.0,2.0,2.0,309.1463619998649,4.0,1.0,phase_1,,,,,,,,,,,,,orange,cross
187.0,7.0,3.0,1.0,4.0,4.0,352.8797499998291,4.0,1.0,phase_1,,,,,,,,,,,,,cyan,circle
61.0,5.0,1.0,1.0,4.0,4.0,353.3091890001287,4.0,1.0,phase_1,,,,,,,,,,,,,orange,cross
223.0,3.0,3.0,0.0,4.0,4.0,333.1114589998378,4.0,1.0,phase_1,,,,,,,,,,,,,gray,square
214.0,7.0,3.0,1.0,2.0,2.0,320.1786829999946,4.0,1.0,phase_1,,,,,,,,,,,,,cyan,circle
0.0,4.0,0.0,0.0,2.0,2.0,343.9288640001905,4.0,1.0,phase_1,,,,,,,,,,,,,green,triangle
111.0,6.0,2.0,1.0,3.0,3.0,352.7723260001494,4.0,1.0,phase_1,,,,,,,,,,,,,magenta,diamond
220.0,7.0,3.0,1.0,2.0,2.0,315.7033070001489,4.0,1.0,phase_1,,,,,,,,,,,,,cyan,circle
197.0,3.0,3.0,0.0,2.0,2.0,333.5791869999411,4.0,1.0,phase_1,,,,,,,,,,,,,gray,square
96.0,6.0,2.0,1.0,2.0,2.0,335.8058090000213,4.0,1.0,phase_1,,,,,,,,,,,,,magenta,diamond
0.0,7.0,0.0,1.0,3.0,3.0,352.7990600000521,4.0,1.0,phase_1,,,,,,,,,,,,,cyan,circle
122.0,6.0,2.0,1.0,2.0,2.0,395.4927740001039,4.0,1.0,phase_1,,,,,,,,,,,,,magenta,diamond
0.0,4.0,0.0,0.0,4.0,4.0,344.73918399999087,4.0,1.0,phase_1,,,,,,,,,,,,,green,triangle
74.0,5.0,1.0,1.0,4.0,4.0,315.0358059999689,4.0,1.0,phase_1,,,,,,,,,,,,,orange,cross
0.0,5.0,0.0,1.0,2.0,2.0,338.1570860001375,4.0,1.0,phase_1,,,,,,,,,,,,,orange,cross
0.0,8.0,0.0,1.0,2.0,2.0,347.5967279998713,4.0,1.0,phase_1,,,,,,,,,,,,,white,hexagon
113.0,6.0,2.0,1.0,2.0,2.0,347.0597020000241,4.0,1.0,phase_1,,,,,,,,,,,,,magenta,diamond
203.0,7.0,3.0,1.0,2.0,2.0,369.9669180000455,4.0,1.0,phase_1,,,,,,,,,,,,,cyan,circle
200.0,7.0,3.0,1.0,2.0,2.0,301.2382859999434,4.0,1.0,phase_1,,,,,,,,,,,,,cyan,circle
210.0,3.0,3.0,0.0,2.0,2.0,306.398186000024,4.0,1.0,phase_1,,,,,,,,,,,,,gray,square
0.0,1.0,0.0,0.0,4.0,4.0,360.8263860000988,4.0,1.0,phase_1,,,,,,,,,,,,,blue,I
422.0,4.0,4.0,0.0,2.0,2.0,310.723586999984,4.0,1.0,phase_1,,,,,,,,,,,,,green,triangle
120.0,2.0,2.0,0.0,1.0,1.0,334.5813280000129,4.0,1.0,phase_1,,,,,,,,,,,,,yellow,flipped triangle
220.0,3.0,3.0,0.0,1.0,1.0,323.29198299999,4.0,1.0,phase_1,,,,,,,,,,,,,gray,square
111.0,6.0,2.0,1.0,1.0,1.0,282.7987339999254,4.0,1.0,phase_1,,,,,,,,,,,,,magenta,diamond
61.0,1.0,1.0,0.0,1.0,1.0,293.996074000006,4.0,1.0,phase_1,,,,,,,,,,,,,blue,I
175.0,7.0,3.0,1.0,2.0,2.0,321.4501590000509,4.0,1.0,phase_1,,,,,,,,,,,,,cyan,circle
109.0,2.0,2.0,0.0,3.0,3.0,387.026176000063,4.0,1.0,phase_1,,,,,,,,,,,,,yellow,flipped triangle
0.0,2.0,0.0,0.0,2.0,2.0,329.1026039998996,4.0,1.0,phase_1,,,,,,,,,,,,,yellow,flipped triangle
107.0,6.0,2.0,1.0,4.0,4.0,336.2523849998524,4.0,1.0,phase_1,,,,,,,,,,,,,magenta,diamond
408.0,4.0,4.0,0.0,1.0,1.0,318.8320540000404,4.0,1.0,phase_1,,,,,,,,,,,,,green,triangle
196.0,3.0,3.0,0.0,1.0,1.0,332.2349820000454,4.0,1.0,phase_1,,,,,,,,,,,,,gray,square
181.0,3.0,3.0,0.0,2.0,2.0,342.5435530000413,4.0,1.0,phase_1,,,,,,,,,,,,,gray,square
421.0,4.0,4.0,0.0,2.0,2.0,339.7236579999116,4.0,1.0,phase_1,,,,,,,,,,,,,green,triangle
201.0,3.0,3.0,0.0,1.0,1.0,349.4602869998289,4.0,1.0,phase_1,,,,,,,,,,,,,gray,square
422.0,8.0,4.0,1.0,2.0,2.0,307.4449880000429,4.0,1.0,phase_1,,,,,,,,,,,,,white,hexagon
193.0,3.0,3.0,0.0,4.0,4.0,335.4097270000693,4.0,1.0,phase_1,,,,,,,,,,,,,gray,square
190.0,3.0,3.0,0.0,2.0,2.0,339.8873060000369,4.0,1.0,phase_1,,,,,,,,,,,,,gray,square
385.0,4.0,4.0,0.0,4.0,4.0,347.50383100004,4.0,1.0,phase_1,,,,,,,,,,,,,green,triangle
378.0,4.0,4.0,0.0,3.0,3.0,319.9390529998709,4.0,1.0,phase_1,,,,,,,,,,,,,green,triangle
0.0,5.0,0.0,1.0,3.0,3.0,366.4655509999193,4.0,1.0,phase_1,,,,,,,,,,,,,orange,cross
0.0,7.0,0.0,1.0,4.0,4.0,322.3072459998093,4.0,1.0,phase_1,,,,,,,,,,,,,cyan,circle
46.0,5.0,1.0,1.0,4.0,4.0,301.6673370000262,4.0,1.0,phase_1,,,,,,,,,,,,,orange,cross
113.0,2.0,2.0,0.0,1.0,1.0,370.1172220000899,4.0,1.0,phase_1,,,,,,,,,,,,,yellow,flipped triangle
193.0,7.0,3.0,1.0,3.0,3.0,337.5047969998377,4.0,1.0,phase_1,,,,,,,,,,,,,cyan,circle
103.0,6.0,2.0,1.0,1.0,1.0,305.6014809999396,4.0,1.0,phase_1,,,,,,,,,,,,,magenta,diamond
111.0,6.0,2.0,1.0,1.0,1.0,291.0687610001332,4.0,1.0,phase_1,,,,,,,,,,,,,magenta,diamond
95.0,6.0,2.0,1.0,1.0,1.0,298.1300480000755,4.0,1.0,phase_1,,,,,,,,,,,,,magenta,diamond
54.0,1.0,1.0,0.0,4.0,4.0,352.9266930001995,4.0,1.0,phase_1,,,,,,,,,,,,,blue,I
103.0,2.0,2.0,0.0,2.0,2.0,315.3335039999092,4.0,1.0,phase_1,,,,,,,,,,,,,yellow,flipped triangle
46.0,1.0,1.0,0.0,3.0,3.0,351.9389370001136,4.0,1.0,phase_1,,,,,,,,,,,,,blue,I
377.0,8.0,4.0,1.0,2.0,2.0,312.9946170001858,4.0,1.0,phase_1,,,,,,,,,,,,,white,hexagon
219.0,3.0,3.0,0.0,3.0,3.0,322.2471960000348,4.0,1.0,phase_1,,,,,,,,,,,,,gray,square
223.0,7.0,3.0,1.0,3.0,3.0,291.034431000071,4.0,1.0,phase_1,,,,,,,,,,,,,cyan,circle
414.0,8.0,4.0,1.0,1.0,1.0,348.481940000056,4.0,1.0,phase_1,,,,,,,,,,,,,white,hexagon
93.0,2.0,2.0,0.0,4.0,4.0,367.257218000077,4.0,1.0,phase_1,,,,,,,,,,,,,yellow,flipped triangle
108.0,6.0,2.0,1.0,1.0,1.0,323.8052310000512,4.0,1.0,phase_1,,,,,,,,,,,,,magenta,diamond
187.0,3.0,3.0,0.0,1.0,1.0,350.1658479999605,4.0,1.0,phase_1,,,,,,,,,,,,,gray,square
402.0,4.0,4.0,0.0,2.0,2.0,337.3457389998293,4.0,1.0,phase_1,,,,,,,,,,,,,green,triangle
209.0,7.0,3.0,1.0,3.0,3.0,348.3387759999914,4.0,1.0,phase_1,,,,,,,,,,,,,cyan,circle
28.0,1.0,1.0,0.0,1.0,1.0,302.9250549998323,4.0,1.0,phase_1,,,,,,,,,,,,,blue,I
220.0,3.0,3.0,0.0,2.0,2.0,332.9491060001146,4.0,1.0,phase_1,,,,,,,,,,,,,gray,square
206.0,7.0,3.0,1.0,3.0,3.0,327.3035059999074,4.0,1.0,phase_1,,,,,,,,,,,,,cyan,circle
424.0,8.0,4.0,1.0,3.0,3.0,353.4226720000788,4.0,1.0,phase_1,,,,,,,,,,,,,white,hexagon
93.0,6.0,2.0,1.0,4.0,4.0,308.2728919998772,4.0,1.0,phase_1,,,,,,,,,,,,,magenta,diamond
67.0,5.0,1.0,1.0,2.0,2.0,305.9097309999288,4.0,1.0,phase_1,,,,,,,,,,,,,orange,cross
0.0,3.0,0.0,0.0,4.0,4.0,348.1303089999983,4.0,1.0,phase_1,,,,,,,,,,,,,gray,square
89.0,2.0,2.0,0.0,3.0,3.0,314.5442139998522,4.0,1.0,phase_1,,,,,,,,,,,,,yellow,flipped triangle
207.0,3.0,3.0,0.0,2.0,2.0,305.4343199999039,4.0,1.0,phase_1,,,,,,,,,,,,,gray,square
209.0,7.0,3.0,1.0,3.0,3.0,343.6173390000476,4.0,1.0,phase_1,,,,,,,,,,,,,cyan,circle
380.0,8.0,4.0,1.0,4.0,4.0,299.2407740000544,4.0,1.0,phase_1,,,,,,,,,,,,,white,hexagon
47.0,5.0,1.0,1.0,1.0,1.0,348.0467469998984,4.0,1.0,phase_1,,,,,,,,,,,,,orange,cross
0.0,1.0,1.0,0.0,6.0,6.0,708.2894459999807,1.0,1.0,phase_2,go,250.0,250.0,1.0,,,,,,,,,blue,I
0.0,8.0,4.0,1.0,5.0,5.0,398.0581030000394,1.0,1.0,phase_2,stop,250.0,250.0,3.0,,,,,,,,,white,hexagon
0.0,8.0,4.0,1.0,6.0,0.0,0.0,1.0,1.0,phase_2,stop,200.0,250.0,4.0,,,,,,,,,white,hexagon
0.0,8.0,4.0,1.0,5.0,0.0,0.0,1.0,1.0,phase_2,stop,200.0,300.0,4.0,,,,,,,,,white,hexagon
0.0,4.0,4.0,0.0,5.0,5.0,524.5370000002367,1.0,1.0,phase_2,go,250.0,300.0,1.0,,,,,,,,,green,triangle
0.0,7.0,3.0,1.0,6.0,0.0,0.0,1.0,1.0,phase_2,stop,250.0,300.0,4.0,,,,,,,,,cyan,circle
0.0,1.0,1.0,0.0,6.0,6.0,576.5625110002475,1.0,1.0,phase_2,go,250.0,350.0,1.0,,,,,,,,,blue,I
0.0,5.0,1.0,1.0,5.0,5.0,867.3274100001436,1.0,1.0,phase_2,go,250.0,350.0,1.0,,,,,,,,,orange,cross
0.0,6.0,2.0,1.0,6.0,0.0,0.0,1.0,1.0,phase_2,stop,250.0,350.0,4.0,,,,,,,,,magenta,diamond
0.0,3.0,3.0,0.0,6.0,6.0,862.2489029999088,1.0,1.0,phase_2,go,250.0,400.0,1.0,,,,,,,,,gray,square
0.0,8.0,4.0,1.0,6.0,0.0,0.0,1.0,1.0,phase_2,stop,250.0,400.0,4.0,,,,,,,,,white,hexagon
0.0,1.0,1.0,0.0,5.0,5.0,684.3061419999685,1.0,1.0,phase_2,go,250.0,450.0,1.0,,,,,,,,,blue,I
0.0,7.0,3.0,1.0,6.0,0.0,0.0,1.0,1.0,phase_2,stop,250.0,450.0,4.0,,,,,,,,,cyan,circle
0.0,5.0,1.0,1.0,6.0,0.0,0.0,1.0,1.0,phase_2,stop,250.0,500.0,4.0,,,,,,,,,orange,cross
0.0,3.0,3.0,0.0,6.0,6.0,860.9672470001897,1.0,1.0,phase_2,go,250.0,550.0,1.0,,,,,,,,,gray,square
0.0,8.0,4.0,1.0,5.0,0.0,0.0,1.0,1.0,phase_2,stop,250.0,550.0,4.0,,,,,,,,,white,hexagon
0.0,5.0,1.0,1.0,6.0,0.0,0.0,1.0,1.0,phase_2,stop,300.0,550.0,4.0,,,,,,,,,orange,cross
0.0,2.0,2.0,0.0,5.0,5.0,809.4520360000388,1.0,1.0,phase_2,go,300.0,600.0,1.0,,,,,,,,,yellow,flipped triangle
0.0,2.0,2.0,0.0,6.0,6.0,1024.2311269998936,1.0,1.0,phase_2,go,300.0,600.0,1.0,,,,,,,,,yellow,flipped triangle
0.0,2.0,2.0,0.0,5.0,5.0,796.1583279998194,1.0,1.0,phase_2,go,300.0,600.0,1.0,,,,,,,,,yellow,flipped triangle
0.0,5.0,1.0,1.0,5.0,0.0,0.0,1.0,1.0,phase_2,stop,300.0,600.0,4.0,,,,,,,,,orange,cross
0.0,1.0,1.0,0.0,6.0,6.0,853.954380000232,1.0,1.0,phase_2,go,350.0,600.0,1.0,,,,,,,,,blue,I
0.0,4.0,4.0,0.0,6.0,6.0,858.7576759996409,1.0,1.0,phase_2,go,350.0,600.0,1.0,,,,,,,,,green,triangle
0.0,3.0,3.0,0.0,5.0,5.0,1065.0390020000486,1.0,1.0,phase_2,go,350.0,600.0,1.0,,,,,,,,,gray,square
0.0,6.0,2.0,1.0,6.0,0.0,0.0,1.0,1.0,phase_2,stop,350.0,600.0,4.0,,,,,,,,,magenta,diamond
0.0,8.0,4.0,1.0,5.0,5.0,1033.91037900019,1.0,1.0,phase_2,go,350.0,650.0,1.0,,,,,,,,,white,hexagon
0.0,6.0,2.0,1.0,6.0,6.0,1185.5145310000808,1.0,1.0,phase_2,go,350.0,650.0,1.0,,,,,,,,,magenta,diamond
0.0,4.0,4.0,0.0,6.0,6.0,1157.3670000002494,1.0,1.0,phase_2,go,350.0,650.0,1.0,,,,,,,,,green,triangle
0.0,2.0,2.0,0.0,6.0,6.0,1127.317537000181,1.0,1.0,phase_2,go,350.0,650.0,1.0,,,,,,,,,yellow,flipped triangle
0.0,3.0,3.0,0.0,6.0,6.0,1034.2825200000334,1.0,1.0,phase_2,go,350.0,650.0,1.0,,,,,,,,,gray,square
0.0,8.0,4.0,1.0,6.0,0.0,0.0,1.0,1.0,phase_2,stop,350.0,650.0,4.0,,,,,,,,,white,hexagon
0.0,8.0,4.0,1.0,5.0,5.0,905.520807999892,1.0,1.0,phase_2,go,350.0,700.0,1.0,,,,,,,,,white,hexagon
0.0,6.0,2.0,1.0,6.0,0.0,0.0,1.0,1.0,phase_2,stop,350.0,700.0,4.0,,,,,,,,,magenta,diamond
0.0,3.0,3.0,0.0,6.0,6.0,1185.0532150001527,1.0,1.0,phase_2,go,350.0,750.0,1.0,,,,,,,,,gray,square
0.0,4.0,4.0,0.0,5.0,5.0,993.9758589998746,1.0,1.0,phase_2,go,350.0,750.0,1.0,,,,,,,,,green,triangle
0.0,7.0,3.0,1.0,5.0,0.0,0.0,1.0,1.0,phase_2,stop,350.0,750.0,4.0,,,,,,,,,cyan,circle
0.0,7.0,3.0,1.0,5.0,5.0,688.985586000399,2.0,1.0,phase_2,stop,400.0,750.0,3.0,,,,,,,,,cyan,circle
0.0,7.0,3.0,1.0,5.0,5.0,587.061317000007,2.0,1.0,phase_2,stop,350.0,750.0,3.0,,,,,,,,,cyan,circle
0.0,3.0,3.0,0.0,6.0,6.0,683.8463660001253,2.0,1.0,phase_2,go,300.0,750.0,1.0,,,,,,,,,gray,square
0.0,2.0,2.0,0.0,6.0,6.0,636.68937500006,2.0,1.0,phase_2,go,300.0,750.0,1.0,,,,,,,,,yellow,flipped triangle
0.0,8.0,4.0,1.0,5.0,0.0,0.0,2.0,1.0,phase_2,stop,300.0,750.0,4.0,,,,,,,,,white,hexagon
0.0,5.0,1.0,1.0,6.0,6.0,592.689430000064,2.0,1.0,phase_2,stop,350.0,750.0,3.0,,,,,,,,,orange,cross
0.0,2.0,2.0,0.0,5.0,5.0,1115.5956289999267,2.0,1.0,phase_2,go,350.0,700.0,1.0,,,,,,,,,yellow,flipped triangle
0.0,2.0,2.0,0.0,5.0,5.0,1423.9314689998537,2.0,1.0,phase_2,go,350.0,700.0,1.0,,,,,,,,,yellow,flipped triangle
0.0,8.0,4.0,1.0,5.0,0.0,0.0,2.0,1.0,phase_2,stop,350.0,700.0,4.0,,,,,,,,,white,hexagon
0.0,4.0,4.0,0.0,5.0,5.0,889.3649530000403,2.0,1.0,phase_2,go,400.0,700.0,1.0,,,,,,,,,green,triangle
0.0,8.0,4.0,1.0,6.0,6.0,646.5895349997481,2.0,1.0,phase_2,go,400.0,700.0,1.0,,,,,,,,,white,hexagon
0.0,8.0,4.0,1.0,5.0,0.0,0.0,2.0,1.0,phase_2,stop,400.0,700.0,4.0,,,,,,,,,white,hexagon
0.0,2.0,2.0,0.0,5.0,5.0,664.5792450003682,2.0,1.0,phase_2,go,450.0,700.0,1.0,,,,,,,,,yellow,flipped triangle
0.0,2.0,2.0,0.0,5.0,5.0,813.0201610001677,2.0,1.0,phase_2,go,450.0,700.0,1.0,,,,,,,,,yellow,flipped triangle
0.0,4.0,4.0,0.0,5.0,5.0,732.0379480001975,2.0,1.0,phase_2,go,450.0,700.0,1.0,,,,,,,,,green,triangle
0.0,1.0,1.0,0.0,6.0,6.0,989.8344539997196,2.0,1.0,phase_2,go,450.0,700.0,1.0,,,,,,,,,blue,I
0.0,6.0,2.0,1.0,6.0,6.0,628.7316540001484,2.0,1.0,phase_2,go,450.0,700.0,1.0,,,,,,,,,magenta,diamond
0.0,2.0,2.0,0.0,6.0,6.0,762.4043939999865,2.0,1.0,phase_2,go,450.0,700.0,1.0,,,,,,,,,yellow,flipped triangle
0.0,6.0,2.0,1.0,5.0,0.0,0.0,2.0,1.0,phase_2,stop,450.0,700.0,4.0,,,,,,,,,magenta,diamond
0.0,4.0,4.0,0.0,5.0,5.0,856.2746460002018,2.0,1.0,phase_2,go,500.0,700.0,1.0,,,,,,,,,green,triangle
0.0,8.0,4.0,1.0,5.0,5.0,605.010941999808,2.0,1.0,phase_2,stop,500.0,700.0,3.0,,,,,,,,,white,hexagon
0.0,1.0,1.0,0.0,5.0,5.0,812.4454939998031,2.0,1.0,phase_2,go,450.0,700.0,1.0,,,,,,,,,blue,I
0.0,8.0,4.0,1.0,6.0,6.0,806.1859469999035,2.0,1.0,phase_2,stop,450.0,700.0,3.0,,,,,,,,,white,hexagon
0.0,4.0,4.0,0.0,6.0,6.0,1020.7334540000377,2.0,1.0,phase_2,go,450.0,650.0,1.0,,,,,,,,,green,triangle
0.0,5.0,1.0,1.0,5.0,0.0,0.0,2.0,1.0,phase_2,stop,450.0,650.0,4.0,,,,,,,,,orange,cross
0.0,7.0,3.0,1.0,6.0,6.0,867.7888719998919,2.0,1.0,phase_2,go,500.0,650.0,1.0,,,,,,,,,cyan,circle
0.0,1.0,1.0,0.0,5.0,5.0,562.7453440001773,2.0,1.0,phase_2,go,500.0,650.0,1.0,,,,,,,,,blue,I
0.0,4.0,4.0,0.0,6.0,6.0,483.9020399999754,2.0,1.0,phase_2,go,500.0,650.0,1.0,,,,,,,,,green,triangle
0.0,8.0,4.0,1.0,6.0,6.0,684.1212680001263,2.0,1.0,phase_2,go,500.0,650.0,1.0,,,,,,,,,white,hexagon
0.0,8.0,4.0,1.0,5.0,0.0,0.0,2.0,1.0,phase_2,stop,500.0,650.0,4.0,,,,,,,,,white,hexagon
0.0,7.0,3.0,1.0,6.0,6.0,445.6495069998709,2.0,1.0,phase_2,stop,550.0,650.0,3.0,,,,,,,,,cyan,circle
0.0,5.0,1.0,1.0,5.0,5.0,616.3890699999683,2.0,1.0,phase_2,go,550.0,600.0,1.0,,,,,,,,,orange,cross
0.0,8.0,4.0,1.0,5.0,0.0,0.0,2.0,1.0,phase_2,stop,550.0,600.0,4.0,,,,,,,,,white,hexagon
0.0,6.0,2.0,1.0,5.0,0.0,0.0,2.0,1.0,phase_2,stop,600.0,600.0,4.0,,,,,,,,,magenta,diamond
0.0,7.0,3.0,1.0,6.0,6.0,774.3354869999166,2.0,1.0,phase_2,go,650.0,600.0,1.0,,,,,,,,,cyan,circle
0.0,5.0,1.0,1.0,5.0,5.0,698.9256550000391,2.0,1.0,phase_2,stop,650.0,600.0,3.0,,,,,,,,,orange,cross
0.0,3.0,3.0,0.0,5.0,5.0,1006.8254359998718,3.0,1.0,phase_2,go,600.0,600.0,1.0,,,,,,,,,gray,square
0.0,4.0,4.0,0.0,6.0,6.0,351.3238049999927,3.0,1.0,phase_2,go,600.0,600.0,1.0,,,,,,,,,green,triangle
0.0,6.0,2.0,1.0,5.0,5.0,278.7020720002147,3.0,1.0,phase_2,stop,600.0,600.0,3.0,,,,,,,,,magenta,diamond
0.0,4.0,4.0,0.0,5.0,5.0,318.4429289999571,3.0,1.0,phase_2,go,550.0,600.0,1.0,,,,,,,,,green,triangle
0.0,5.0,1.0,1.0,5.0,5.0,298.1153180003275,3.0,1.0,phase_2,stop,550.0,600.0,3.0,,,,,,,,,orange,cross
0.0,4.0,4.0,0.0,5.0,5.0,307.3304089998601,3.0,1.0,phase_2,go,500.0,600.0,1.0,,,,,,,,,green,triangle
0.0,8.0,4.0,1.0,6.0,6.0,347.8716790000362,3.0,1.0,phase_2,stop,500.0,600.0,3.0,,,,,,,,,white,hexagon
0.0,1.0,1.0,0.0,5.0,5.0,336.001177000071,3.0,1.0,phase_2,go,500.0,550.0,1.0,,,,,,,,,blue,I
0.0,5.0,1.0,1.0,6.0,6.0,436.482332000196,3.0,1.0,phase_2,go,500.0,550.0,1.0,,,,,,,,,orange,cross
0.0,4.0,4.0,0.0,6.0,6.0,447.3311140000078,3.0,1.0,phase_2,go,500.0,550.0,1.0,,,,,,,,,green,triangle
0.0,2.0,2.0,0.0,6.0,6.0,360.9709600000315,3.0,1.0,phase_2,go,500.0,550.0,1.0,,,,,,,,,yellow,flipped triangle
0.0,8.0,4.0,1.0,5.0,5.0,353.1909600001199,3.0,1.0,phase_2,stop,500.0,550.0,3.0,,,,,,,,,white,hexagon
0.0,4.0,4.0,0.0,6.0,6.0,458.9332719997401,3.0,1.0,phase_2,go,450.0,550.0,1.0,,,,,,,,,green,triangle
0.0,3.0,3.0,0.0,6.0,6.0,514.2415170003005,3.0,1.0,phase_2,go,450.0,550.0,1.0,,,,,,,,,gray,square
0.0,8.0,4.0,1.0,6.0,6.0,321.4239649996671,3.0,1.0,phase_2,stop,450.0,550.0,3.0,,,,,,,,,white,hexagon
0.0,6.0,2.0,1.0,6.0,6.0,320.328580000023,3.0,1.0,phase_2,stop,450.0,500.0,3.0,,,,,,,,,magenta,diamond
0.0,1.0,1.0,0.0,6.0,6.0,429.3555069998547,3.0,1.0,phase_2,go,450.0,450.0,1.0,,,,,,,,,blue,I
0.0,6.0,2.0,1.0,6.0,6.0,311.7804169996816,3.0,1.0,phase_2,stop,450.0,450.0,3.0,,,,,,,,,magenta,diamond
0.0,1.0,1.0,0.0,5.0,5.0,314.0858330002629,3.0,1.0,phase_2,go,450.0,400.0,1.0,,,,,,,,,blue,I
0.0,6.0,2.0,1.0,6.0,6.0,379.7541150001962,3.0,1.0,phase_2,stop,450.0,400.0,3.0,,,,,,,,,magenta,diamond
0.0,4.0,4.0,0.0,6.0,6.0,342.5913099999889,3.0,1.0,phase_2,go,450.0,350.0,1.0,,,,,,,,,green,triangle
0.0,5.0,1.0,1.0,6.0,6.0,329.0959339997243,3.0,1.0,phase_2,stop,450.0,350.0,3.0,,,,,,,,,orange,cross
0.0,1.0,1.0,0.0,5.0,5.0,340.324032999888,3.0,1.0,phase_2,go,450.0,300.0,1.0,,,,,,,,,blue,I
0.0,6.0,2.0,1.0,5.0,5.0,557.6747569998588,3.0,1.0,phase_2,stop,450.0,300.0,3.0,,,,,,,,,magenta,diamond
0.0,2.0,2.0,0.0,6.0,6.0,442.4108089997389,3.0,1.0,phase_2,go,400.0,300.0,1.0,,,,,,,,,yellow,flipped triangle
0.0,4.0,4.0,0.0,5.0,5.0,335.2568469999823,3.0,1.0,phase_2,go,400.0,300.0,1.0,,,,,,,,,green,triangle
0.0,3.0,3.0,0.0,6.0,6.0,397.0598000000791,3.0,1.0,phase_2,go,400.0,300.0,1.0,,,,,,,,,gray,square
0.0,4.0,4.0,0.0,5.0,5.0,583.9250789999824,3.0,1.0,phase_2,go,400.0,300.0,1.0,,,,,,,,,green,triangle
0.0,7.0,3.0,1.0,5.0,5.0,296.1804700003085,3.0,1.0,phase_2,stop,400.0,300.0,3.0,,,,,,,,,cyan,circle
0.0,2.0,2.0,0.0,6.0,6.0,338.9773789999708,3.0,1.0,phase_2,go,350.0,300.0,1.0,,,,,,,,,yellow,flipped triangle
0.0,2.0,2.0,0.0,6.0,6.0,305.2944870000829,3.0,1.0,phase_2,go,350.0,300.0,1.0,,,,,,,,,yellow,flipped triangle
0.0,1.0,1.0,0.0,5.0,5.0,312.6278200002161,3.0,1.0,phase_2,go,350.0,300.0,1.0,,,,,,,,,blue,I
0.0,1.0,1.0,0.0,6.0,6.0,305.9554490000664,3.0,1.0,phase_2,go,350.0,300.0,1.0,,,,,,,,,blue,I
0.0,1.0,1.0,0.0,5.0,5.0,374.2437070000051,3.0,1.0,phase_2,go,350.0,300.0,1.0,,,,,,,,,blue,I
0.0,8.0,4.0,1.0,6.0,6.0,266.33572299988367,3.0,1.0,phase_2,stop,350.0,300.0,3.0,,,,,,,,,white,hexagon
0.0,5.0,1.0,1.0,5.0,5.0,289.3917800001873,3.0,1.0,phase_2,stop,350.0,250.0,3.0,,,,,,,,,orange,cross
0.0,2.0,2.0,0.0,5.0,5.0,475.639812999816,4.0,1.0,phase_2,go,300.0,250.0,1.0,,,,,,,,,yellow,flipped triangle
0.0,5.0,1.0,1.0,5.0,5.0,291.4715599999908,4.0,1.0,phase_2,go,300.0,250.0,1.0,,,,,,,,,orange,cross
0.0,7.0,3.0,1.0,5.0,5.0,332.0643779998136,4.0,1.0,phase_2,stop,300.0,250.0,3.0,,,,,,,,,cyan,circle
0.0,6.0,2.0,1.0,5.0,5.0,315.4425920001813,4.0,1.0,phase_2,go,250.0,250.0,1.0,,,,,,,,,magenta,diamond
0.0,6.0,2.0,1.0,5.0,5.0,245.6535239998629,4.0,1.0,phase_2,go,250.0,250.0,1.0,,,,,,,,,magenta,diamond
0.0,3.0,3.0,0.0,5.0,5.0,293.9395749999676,4.0,1.0,phase_2,go,250.0,250.0,1.0,,,,,,,,,gray,square
0.0,5.0,1.0,1.0,6.0,6.0,292.4487999998746,4.0,1.0,phase_2,stop,250.0,250.0,3.0,,,,,,,,,orange,cross
0.0,3.0,3.0,0.0,5.0,5.0,281.8282899997939,4.0,1.0,phase_2,go,250.0,200.0,1.0,,,,,,,,,gray,square
0.0,7.0,3.0,1.0,5.0,5.0,293.0089910000788,4.0,1.0,phase_2,stop,250.0,200.0,3.0,,,,,,,,,cyan,circle
0.0,2.0,2.0,0.0,5.0,5.0,297.8202909998799,4.0,1.0,phase_2,go,200.0,200.0,1.0,,,,,,,,,yellow,flipped triangle
0.0,1.0,1.0,0.0,5.0,5.0,357.4269589998948,4.0,1.0,phase_2,go,200.0,200.0,1.0,,,,,,,,,blue,I
0.0,2.0,2.0,0.0,6.0,6.0,300.7329120000577,4.0,1.0,phase_2,go,200.0,200.0,1.0,,,,,,,,,yellow,flipped triangle
0.0,1.0,1.0,0.0,5.0,5.0,352.5716320000356,4.0,1.0,phase_2,go,200.0,200.0,1.0,,,,,,,,,blue,I
0.0,1.0,1.0,0.0,6.0,6.0,358.028534999903,4.0,1.0,phase_2,go,200.0,200.0,1.0,,,,,,,,,blue,I
0.0,6.0,2.0,1.0,6.0,6.0,373.8765779999085,4.0,1.0,phase_2,stop,200.0,200.0,3.0,,,,,,,,,magenta,diamond
0.0,2.0,2.0,0.0,5.0,5.0,565.1770519998536,4.0,1.0,phase_2,go,200.0,150.0,1.0,,,,,,,,,yellow,flipped triangle
0.0,3.0,3.0,0.0,5.0,5.0,293.8085770001635,4.0,1.0,phase_2,go,200.0,150.0,1.0,,,,,,,,,gray,square
0.0,4.0,4.0,0.0,6.0,6.0,305.9140149998711,4.0,1.0,phase_2,go,200.0,150.0,1.0,,,,,,,,,green,triangle
0.0,3.0,3.0,0.0,6.0,6.0,389.4027750002351,4.0,1.0,phase_2,go,200.0,150.0,1.0,,,,,,,,,gray,square
0.0,5.0,1.0,1.0,6.0,0.0,0.0,4.0,1.0,phase_2,stop,200.0,150.0,4.0,,,,,,,,,orange,cross
0.0,6.0,2.0,1.0,6.0,6.0,344.7627699997611,4.0,1.0,phase_2,stop,200.0,200.0,3.0,,,,,,,,,magenta,diamond
0.0,1.0,1.0,0.0,6.0,6.0,382.014005000201,4.0,1.0,phase_2,go,200.0,150.0,1.0,,,,,,,,,blue,I
0.0,6.0,2.0,1.0,6.0,6.0,463.9008620001732,4.0,1.0,phase_2,go,200.0,150.0,1.0,,,,,,,,,magenta,diamond
0.0,3.0,3.0,0.0,5.0,5.0,310.3255010000794,4.0,1.0,phase_2,go,200.0,150.0,1.0,,,,,,,,,gray,square
0.0,1.0,1.0,0.0,5.0,5.0,305.9979009999551,4.0,1.0,phase_2,go,200.0,150.0,1.0,,,,,,,,,blue,I
0.0,7.0,3.0,1.0,5.0,5.0,289.7428999999647,4.0,1.0,phase_2,stop,200.0,150.0,3.0,,,,,,,,,cyan,circle
0.0,7.0,3.0,1.0,6.0,0.0,0.0,4.0,1.0,phase_2,stop,150.0,150.0,4.0,,,,,,,,,cyan,circle
0.0,3.0,3.0,0.0,5.0,5.0,314.9414069998784,4.0,1.0,phase_2,go,150.0,200.0,1.0,,,,,,,,,gray,square
0.0,8.0,4.0,1.0,6.0,6.0,300.8933959999922,4.0,1.0,phase_2,stop,150.0,200.0,3.0,,,,,,,,,white,hexagon
0.0,4.0,4.0,0.0,5.0,5.0,324.6045979999508,4.0,1.0,phase_2,go,150.0,150.0,1.0,,,,,,,,,green,triangle
0.0,5.0,1.0,1.0,6.0,6.0,422.4946179997459,4.0,1.0,phase_2,go,150.0,150.0,1.0,,,,,,,,,orange,cross
0.0,3.0,3.0,0.0,5.0,5.0,365.4102579998834,4.0,1.0,phase_2,go,150.0,150.0,1.0,,,,,,,,,gray,square
0.0,5.0,1.0,1.0,5.0,5.0,341.4056349997736,4.0,1.0,phase_2,go,150.0,150.0,1.0,,,,,,,,,orange,cross
0.0,3.0,3.0,0.0,6.0,6.0,450.5444770002214,4.0,1.0,phase_2,go,150.0,150.0,1.0,,,,,,,,,gray,square
0.0,1.0,1.0,0.0,5.0,5.0,371.0226189996319,4.0,1.0,phase_2,go,150.0,150.0,1.0,,,,,,,,,blue,I
0.0,6.0,2.0,1.0,5.0,5.0,338.5239999997793,4.0,1.0,phase_2,go,150.0,150.0,1.0,,,,,,,,,magenta,diamond
0.0,3.0,3.0,0.0,6.0,6.0,511.5479059995778,5.0,1.0,phase_2,go,150.0,150.0,1.0,,,,,,,,,gray,square
0.0,7.0,3.0,1.0,6.0,6.0,289.5272309997381,5.0,1.0,phase_2,stop,150.0,150.0,3.0,,,,,,,,,cyan,circle
0.0,7.0,3.0,1.0,6.0,0.0,0.0,5.0,1.0,phase_2,stop,150.0,100.0,4.0,,,,,,,,,cyan,circle
0.0,5.0,1.0,1.0,5.0,5.0,424.8665760001131,5.0,1.0,phase_2,go,150.0,150.0,1.0,,,,,,,,,orange,cross
0.0,2.0,2.0,0.0,5.0,5.0,297.7614089995768,5.0,1.0,phase_2,go,150.0,150.0,1.0,,,,,,,,,yellow,flipped triangle
0.0,1.0,1.0,0.0,5.0,5.0,336.6853560000891,5.0,1.0,phase_2,go,150.0,150.0,1.0,,,,,,,,,blue,I
0.0,3.0,3.0,0.0,6.0,6.0,416.7598910003107,5.0,1.0,phase_2,go,150.0,150.0,1.0,,,,,,,,,gray,square
0.0,4.0,4.0,0.0,6.0,6.0,332.7921580003021,5.0,1.0,phase_2,go,150.0,150.0,1.0,,,,,,,,,green,triangle
0.0,3.0,3.0,0.0,5.0,5.0,313.7536259996523,5.0,1.0,phase_2,go,150.0,150.0,1.0,,,,,,,,,gray,square
0.0,1.0,1.0,0.0,5.0,5.0,330.7410750003328,5.0,1.0,phase_2,go,150.0,150.0,1.0,,,,,,,,,blue,I
0.0,5.0,1.0,1.0,5.0,5.0,294.9084989995754,5.0,1.0,phase_2,stop,150.0,150.0,3.0,,,,,,,,,orange,cross
0.0,2.0,2.0,0.0,6.0,6.0,378.3661679999568,5.0,1.0,phase_2,go,100.0,150.0,1.0,,,,,,,,,yellow,flipped triangle
0.0,2.0,2.0,0.0,6.0,6.0,445.139528999789,5.0,1.0,phase_2,go,100.0,150.0,1.0,,,,,,,,,yellow,flipped triangle
0.0,7.0,3.0,1.0,5.0,0.0,0.0,5.0,1.0,phase_2,stop,100.0,150.0,4.0,,,,,,,,,cyan,circle
0.0,8.0,4.0,1.0,6.0,6.0,307.8366579998146,5.0,1.0,phase_2,stop,150.0,150.0,3.0,,,,,,,,,white,hexagon
0.0,1.0,1.0,0.0,5.0,5.0,352.6158989998293,5.0,1.0,phase_2,go,150.0,100.0,1.0,,,,,,,,,blue,I
0.0,8.0,4.0,1.0,5.0,0.0,0.0,5.0,1.0,phase_2,stop,150.0,100.0,4.0,,,,,,,,,white,hexagon
0.0,6.0,2.0,1.0,6.0,0.0,0.0,5.0,1.0,phase_2,stop,200.0,100.0,4.0,,,,,,,,,magenta,diamond
0.0,3.0,3.0,0.0,5.0,5.0,397.8087240002423,5.0,1.0,phase_2,go,200.0,150.0,1.0,,,,,,,,,gray,square
0.0,3.0,3.0,0.0,5.0,5.0,446.9506840000576,5.0,1.0,phase_2,go,200.0,150.0,1.0,,,,,,,,,gray,square
0.0,6.0,2.0,1.0,5.0,5.0,305.1041869998698,5.0,1.0,phase_2,go,200.0,150.0,1.0,,,,,,,,,magenta,diamond
0.0,6.0,2.0,1.0,5.0,5.0,352.0413409996763,5.0,1.0,phase_2,go,200.0,150.0,1.0,,,,,,,,,magenta,diamond
0.0,3.0,3.0,0.0,6.0,6.0,514.6466780001901,5.0,1.0,phase_2,go,200.0,150.0,1.0,,,,,,,,,gray,square
0.0,7.0,3.0,1.0,6.0,0.0,0.0,5.0,1.0,phase_2,stop,200.0,150.0,4.0,,,,,,,,,cyan,circle
0.0,4.0,4.0,0.0,6.0,6.0,393.269754999892,5.0,1.0,phase_2,go,200.0,200.0,1.0,,,,,,,,,green,triangle
0.0,3.0,3.0,0.0,6.0,6.0,341.4374230001158,5.0,1.0,phase_2,go,200.0,200.0,1.0,,,,,,,,,gray,square
0.0,2.0,2.0,0.0,5.0,5.0,319.8302770001646,5.0,1.0,phase_2,go,200.0,200.0,1.0,,,,,,,,,yellow,flipped triangle
0.0,4.0,4.0,0.0,6.0,6.0,430.518242999824,5.0,1.0,phase_2,go,200.0,200.0,1.0,,,,,,,,,green,triangle
0.0,7.0,3.0,1.0,6.0,6.0,400.217689999863,5.0,1.0,phase_2,stop,200.0,200.0,3.0,,,,,,,,,cyan,circle
0.0,1.0,1.0,0.0,6.0,6.0,357.6677710002514,5.0,1.0,phase_2,go,200.0,150.0,1.0,,,,,,,,,blue,I
0.0,2.0,2.0,0.0,5.0,5.0,325.0533949999408,5.0,1.0,phase_2,go,200.0,150.0,1.0,,,,,,,,,yellow,flipped triangle
0.0,4.0,4.0,0.0,5.0,5.0,347.9036229996382,5.0,1.0,phase_2,go,200.0,150.0,1.0,,,,,,,,,green,triangle
0.0,5.0,1.0,1.0,5.0,0.0,0.0,5.0,1.0,phase_2,stop,200.0,150.0,4.0,,,,,,,,,orange,cross
0.0,7.0,3.0,1.0,5.0,5.0,351.7978240001866,5.0,1.0,phase_2,stop,250.0,150.0,3.0,,,,,,,,,cyan,circle
0.0,4.0,4.0,0.0,5.0,5.0,456.4113179999367,5.0,1.0,phase_2,go,200.0,150.0,1.0,,,,,,,,,green,triangle
0.0,4.0,4.0,0.0,6.0,6.0,599.4964710002932,5.0,1.0,phase_2,go,200.0,150.0,1.0,,,,,,,,,green,triangle
0.0,6.0,2.0,1.0,6.0,0.0,0.0,6.0,1.0,phase_2,stop,200.0,150.0,4.0,,,,,,,,,magenta,diamond
0.0,8.0,4.0,1.0,5.0,0.0,0.0,6.0,1.0,phase_2,stop,200.0,200.0,4.0,,,,,,,,,white,hexagon
0.0,7.0,3.0,1.0,5.0,0.0,0.0,6.0,1.0,phase_2,stop,250.0,200.0,4.0,,,,,,,,,cyan,circle
0.0,4.0,4.0,0.0,5.0,5.0,485.7683899999756,6.0,1.0,phase_2,go,300.0,200.0,1.0,,,,,,,,,green,triangle
0.0,8.0,4.0,1.0,5.0,5.0,434.9907450000501,6.0,1.0,phase_2,go,300.0,200.0,1.0,,,,,,,,,white,hexagon
0.0,7.0,3.0,1.0,5.0,5.0,517.0225689998915,6.0,1.0,phase_2,go,300.0,200.0,1.0,,,,,,,,,cyan,circle
0.0,5.0,1.0,1.0,6.0,0.0,0.0,6.0,1.0,phase_2,stop,300.0,200.0,4.0,,,,,,,,,orange,cross
0.0,3.0,3.0,0.0,6.0,6.0,431.1752250000609,6.0,1.0,phase_2,go,300.0,250.0,1.0,,,,,,,,,gray,square
0.0,1.0,1.0,0.0,6.0,6.0,461.9196660000852,6.0,1.0,phase_2,go,300.0,250.0,1.0,,,,,,,,,blue,I
0.0,8.0,4.0,1.0,5.0,5.0,419.7328820000621,6.0,1.0,phase_2,go,300.0,250.0,1.0,,,,,,,,,white,hexagon
0.0,6.0,2.0,1.0,5.0,5.0,341.6782880003666,6.0,1.0,phase_2,stop,300.0,250.0,3.0,,,,,,,,,magenta,diamond
0.0,7.0,3.0,1.0,5.0,0.0,0.0,6.0,1.0,phase_2,stop,250.0,250.0,4.0,,,,,,,,,cyan,circle
0.0,8.0,4.0,1.0,6.0,6.0,383.9673760003279,6.0,1.0,phase_2,stop,300.0,250.0,3.0,,,,,,,,,white,hexagon
0.0,3.0,3.0,0.0,6.0,6.0,486.694006000107,6.0,1.0,phase_2,go,300.0,200.0,1.0,,,,,,,,,gray,square
0.0,5.0,1.0,1.0,6.0,0.0,0.0,6.0,1.0,phase_2,stop,300.0,200.0,4.0,,,,,,,,,orange,cross
0.0,7.0,3.0,1.0,5.0,5.0,452.7413319997322,6.0,1.0,phase_2,stop,300.0,250.0,3.0,,,,,,,,,cyan,circle
0.0,4.0,4.0,0.0,6.0,6.0,506.6690399999061,6.0,1.0,phase_2,go,250.0,250.0,1.0,,,,,,,,,green,triangle
0.0,3.0,3.0,0.0,6.0,6.0,1072.878450000189,6.0,1.0,phase_2,go,250.0,250.0,1.0,,,,,,,,,gray,square
0.0,5.0,1.0,1.0,5.0,5.0,384.1676930001085,6.0,1.0,phase_2,stop,250.0,250.0,3.0,,,,,,,,,orange,cross
0.0,7.0,3.0,1.0,6.0,0.0,0.0,6.0,1.0,phase_2,stop,200.0,250.0,4.0,,,,,,,,,cyan,circle
0.0,6.0,2.0,1.0,5.0,0.0,0.0,6.0,1.0,phase_2,stop,200.0,300.0,4.0,,,,,,,,,magenta,diamond
0.0,2.0,2.0,0.0,5.0,5.0,564.7538000002896,6.0,1.0,phase_2,go,250.0,300.0,1.0,,,,,,,,,yellow,flipped triangle
0.0,7.0,3.0,1.0,5.0,5.0,586.7793590000474,6.0,1.0,phase_2,go,250.0,300.0,1.0,,,,,,,,,cyan,circle
0.0,6.0,2.0,1.0,6.0,6.0,457.4815209998633,6.0,1.0,phase_2,go,250.0,300.0,1.0,,,,,,,,,magenta,diamond
0.0,6.0,2.0,1.0,6.0,0.0,0.0,6.0,1.0,phase_2,stop,250.0,300.0,4.0,,,,,,,,,magenta,diamond
0.0,7.0,3.0,1.0,6.0,0.0,0.0,6.0,1.0,phase_2,stop,250.0,350.0,4.0,,,,,,,,,cyan,circle
0.0,4.0,4.0,0.0,6.0,6.0,825.1867069998298,6.0,1.0,phase_2,go,250.0,400.0,1.0,,,,,,,,,green,triangle
0.0,5.0,1.0,1.0,5.0,0.0,0.0,6.0,1.0,phase_2,stop,250.0,400.0,4.0,,,,,,,,,orange,cross
0.0,8.0,4.0,1.0,6.0,0.0,0.0,6.0,1.0,phase_2,stop,300.0,400.0,4.0,,,,,,,,,white,hexagon
0.0,1.0,1.0,0.0,5.0,5.0,494.6814310001173,6.0,1.0,phase_2,go,300.0,450.0,1.0,,,,,,,,,blue,I
0.0,6.0,2.0,1.0,5.0,5.0,420.0534589999734,6.0,1.0,phase_2,stop,300.0,450.0,3.0,,,,,,,,,magenta,diamond
0.0,1.0,1.0,0.0,6.0,6.0,622.3989390000497,6.0,1.0,phase_2,go,250.0,450.0,1.0,,,,,,,,,blue,I
0.0,5.0,1.0,1.0,6.0,0.0,0.0,6.0,1.0,phase_2,stop,250.0,450.0,4.0,,,,,,,,,orange,cross
0.0,5.0,1.0,1.0,6.0,0.0,0.0,6.0,1.0,phase_2,stop,250.0,500.0,4.0,,,,,,,,,orange,cross
0.0,1.0,1.0,0.0,6.0,6.0,698.7995770000452,6.0,1.0,phase_2,go,250.0,550.0,1.0,,,,,,,,,blue,I
0.0,5.0,1.0,1.0,6.0,0.0,0.0,6.0,1.0,phase_2,stop,250.0,550.0,4.0,,,,,,,,,orange,cross
0.0,1.0,1.0,0.0,6.0,6.0,859.8368980001396,7.0,1.0,phase_2,go,250.0,600.0,1.0,,,,,,,,,blue,I
0.0,8.0,4.0,1.0,6.0,6.0,401.4232979998269,7.0,1.0,phase_2,stop,250.0,600.0,3.0,,,,,,,,,white,hexagon
0.0,1.0,1.0,0.0,6.0,6.0,592.5677780001024,7.0,1.0,phase_2,go,250.0,550.0,1.0,,,,,,,,,blue,I
0.0,4.0,4.0,0.0,5.0,5.0,492.3473129997546,7.0,1.0,phase_2,go,250.0,550.0,1.0,,,,,,,,,green,triangle
0.0,4.0,4.0,0.0,6.0,6.0,603.3136690002721,7.0,1.0,phase_2,go,250.0,550.0,1.0,,,,,,,,,green,triangle
0.0,7.0,3.0,1.0,5.0,0.0,0.0,7.0,1.0,phase_2,stop,250.0,550.0,4.0,,,,,,,,,cyan,circle
0.0,2.0,2.0,0.0,5.0,5.0,649.1093600002387,7.0,1.0,phase_2,go,300.0,550.0,1.0,,,,,,,,,yellow,flipped triangle
0.0,6.0,2.0,1.0,5.0,0.0,0.0,7.0,1.0,phase_2,stop,300.0,550.0,4.0,,,,,,,,,magenta,diamond
0.0,4.0,4.0,0.0,6.0,6.0,426.3163329997042,7.0,1.0,phase_2,go,350.0,550.0,1.0,,,,,,,,,green,triangle
0.0,3.0,3.0,0.0,5.0,5.0,549.0367209999931,7.0,1.0,phase_2,go,350.0,550.0,1.0,,,,,,,,,gray,square
0.0,6.0,2.0,1.0,5.0,0.0,0.0,7.0,1.0,phase_2,stop,350.0,550.0,4.0,,,,,,,,,magenta,diamond
0.0,8.0,4.0,1.0,5.0,5.0,493.5401779998756,7.0,1.0,phase_2,stop,400.0,550.0,3.0,,,,,,,,,white,hexagon
0.0,5.0,1.0,1.0,6.0,6.0,624.266180000177,7.0,1.0,phase_2,stop,350.0,550.0,3.0,,,,,,,,,orange,cross
0.0,2.0,2.0,0.0,6.0,6.0,760.2410189997499,7.0,1.0,phase_2,go,350.0,500.0,1.0,,,,,,,,,yellow,flipped triangle
0.0,3.0,3.0,0.0,5.0,5.0,833.7975389999883,7.0,1.0,phase_2,go,350.0,500.0,1.0,,,,,,,,,gray,square
0.0,3.0,3.0,0.0,6.0,6.0,867.4087869999312,7.0,1.0,phase_2,go,350.0,500.0,1.0,,,,,,,,,gray,square
0.0,4.0,4.0,0.0,5.0,5.0,518.774504999783,7.0,1.0,phase_2,go,350.0,500.0,1.0,,,,,,,,,green,triangle
0.0,1.0,1.0,0.0,6.0,6.0,679.0237400000478,7.0,1.0,phase_2,go,350.0,500.0,1.0,,,,,,,,,blue,I
0.0,5.0,1.0,1.0,6.0,6.0,929.2526150002232,7.0,1.0,phase_2,go,350.0,500.0,1.0,,,,,,,,,orange,cross
0.0,7.0,3.0,1.0,6.0,6.0,920.569857999908,7.0,1.0,phase_2,go,350.0,500.0,1.0,,,,,,,,,cyan,circle
0.0,6.0,2.0,1.0,6.0,0.0,0.0,7.0,1.0,phase_2,stop,350.0,500.0,4.0,,,,,,,,,magenta,diamond
0.0,8.0,4.0,1.0,6.0,6.0,836.2227749998965,7.0,1.0,phase_2,go,350.0,550.0,1.0,,,,,,,,,white,hexagon
0.0,5.0,1.0,1.0,5.0,0.0,0.0,7.0,1.0,phase_2,stop,350.0,550.0,4.0,,,,,,,,,orange,cross
0.0,8.0,4.0,1.0,6.0,6.0,595.3842990002158,7.0,1.0,phase_2,stop,400.0,550.0,3.0,,,,,,,,,white,hexagon
0.0,8.0,4.0,1.0,5.0,5.0,795.8078740002748,7.0,1.0,phase_2,go,400.0,500.0,1.0,,,,,,,,,white,hexagon
0.0,3.0,3.0,0.0,5.0,5.0,859.5850920000885,7.0,1.0,phase_2,go,400.0,500.0,1.0,,,,,,,,,gray,square
0.0,1.0,1.0,0.0,5.0,5.0,898.1829389999803,7.0,1.0,phase_2,go,400.0,500.0,1.0,,,,,,,,,blue,I
0.0,6.0,2.0,1.0,6.0,0.0,0.0,7.0,1.0,phase_2,stop,400.0,500.0,4.0,,,,,,,,,magenta,diamond
0.0,6.0,2.0,1.0,5.0,0.0,0.0,7.0,1.0,phase_2,stop,400.0,550.0,4.0,,,,,,,,,magenta,diamond
0.0,6.0,2.0,1.0,6.0,6.0,665.1264350002748,7.0,1.0,phase_2,stop,450.0,550.0,3.0,,,,,,,,,magenta,diamond
0.0,1.0,1.0,0.0,6.0,6.0,726.4233760001844,7.0,1.0,phase_2,go,450.0,500.0,1.0,,,,,,,,,blue,I
0.0,7.0,3.0,1.0,6.0,6.0,873.9958019996266,7.0,1.0,phase_2,go,450.0,500.0,1.0,,,,,,,,,cyan,circle
0.0,7.0,3.0,1.0,6.0,6.0,458.4492399999362,7.0,1.0,phase_2,go,450.0,500.0,1.0,,,,,,,,,cyan,circle
0.0,3.0,3.0,0.0,5.0,5.0,576.8846410001061,7.0,1.0,phase_2,go,450.0,500.0,1.0,,,,,,,,,gray,square
0.0,2.0,2.0,0.0,6.0,6.0,691.0782480003945,7.0,1.0,phase_2,go,450.0,500.0,1.0,,,,,,,,,yellow,flipped triangle
0.0,2.0,2.0,0.0,6.0,6.0,745.7073320001655,7.0,1.0,phase_2,go,450.0,500.0,1.0,,,,,,,,,yellow,flipped triangle
0.0,7.0,3.0,1.0,5.0,5.0,585.3875810003046,8.0,1.0,phase_2,stop,450.0,500.0,3.0,,,,,,,,,cyan,circle
0.0,4.0,4.0,0.0,6.0,6.0,630.6835260002117,8.0,1.0,phase_2,go,400.0,500.0,1.0,,,,,,,,,green,triangle
0.0,5.0,1.0,1.0,6.0,6.0,596.8523739998091,8.0,1.0,phase_2,stop,400.0,500.0,3.0,,,,,,,,,orange,cross
0.0,7.0,3.0,1.0,6.0,0.0,0.0,8.0,1.0,phase_2,stop,400.0,450.0,4.0,,,,,,,,,cyan,circle
0.0,2.0,2.0,0.0,6.0,6.0,653.412980000212,8.0,1.0,phase_2,go,400.0,500.0,1.0,,,,,,,,,yellow,flipped triangle
0.0,2.0,2.0,0.0,5.0,5.0,529.3434549998892,8.0,1.0,phase_2,go,400.0,500.0,1.0,,,,,,,,,yellow,flipped triangle
0.0,4.0,4.0,0.0,5.0,5.0,732.5424119999298,8.0,1.0,phase_2,go,400.0,500.0,1.0,,,,,,,,,green,triangle
0.0,4.0,4.0,0.0,5.0,5.0,413.6564000000362,8.0,1.0,phase_2,go,400.0,500.0,1.0,,,,,,,,,green,triangle
0.0,5.0,1.0,1.0,5.0,5.0,494.2667410000467,8.0,1.0,phase_2,stop,400.0,500.0,3.0,,,,,,,,,orange,cross
0.0,2.0,2.0,0.0,6.0,6.0,575.1218400000653,8.0,1.0,phase_2,go,350.0,500.0,1.0,,,,,,,,,yellow,flipped triangle
0.0,1.0,1.0,0.0,6.0,6.0,362.2852379999131,8.0,1.0,phase_2,go,350.0,500.0,1.0,,,,,,,,,blue,I
0.0,6.0,2.0,1.0,5.0,0.0,0.0,8.0,1.0,phase_2,stop,350.0,500.0,4.0,,,,,,,,,magenta,diamond
0.0,6.0,2.0,1.0,5.0,5.0,509.91443799966873,8.0,1.0,phase_2,stop,400.0,500.0,3.0,,,,,,,,,magenta,diamond
0.0,2.0,2.0,0.0,6.0,6.0,629.3729960002565,8.0,1.0,phase_2,go,350.0,500.0,1.0,,,,,,,,,yellow,flipped triangle
0.0,5.0,1.0,1.0,6.0,0.0,0.0,8.0,1.0,phase_2,stop,350.0,500.0,4.0,,,,,,,,,orange,cross
0.0,6.0,2.0,1.0,5.0,0.0,0.0,8.0,1.0,phase_2,stop,350.0,550.0,4.0,,,,,,,,,magenta,diamond
0.0,4.0,4.0,0.0,5.0,5.0,643.7823370001752,8.0,1.0,phase_2,go,400.0,550.0,1.0,,,,,,,,,green,triangle
0.0,3.0,3.0,0.0,5.0,5.0,488.8871349999135,8.0,1.0,phase_2,go,400.0,550.0,1.0,,,,,,,,,gray,square
0.0,8.0,4.0,1.0,6.0,6.0,600.0593750000007,8.0,1.0,phase_2,go,400.0,550.0,1.0,,,,,,,,,white,hexagon
0.0,7.0,3.0,1.0,6.0,6.0,679.6736549999878,8.0,1.0,phase_2,stop,400.0,550.0,3.0,,,,,,,,,cyan,circle
0.0,2.0,2.0,0.0,6.0,6.0,704.7252400002435,8.0,1.0,phase_2,go,400.0,500.0,1.0,,,,,,,,,yellow,flipped triangle
0.0,3.0,3.0,0.0,5.0,5.0,576.5386369998851,8.0,1.0,phase_2,go,400.0,500.0,1.0,,,,,,,,,gray,square
0.0,2.0,2.0,0.0,5.0,5.0,581.359225000142,8.0,1.0,phase_2,go,400.0,500.0,1.0,,,,,,,,,yellow,flipped triangle
0.0,5.0,1.0,1.0,5.0,5.0,546.2376969999241,8.0,1.0,phase_2,go,400.0,500.0,1.0,,,,,,,,,orange,cross
0.0,5.0,1.0,1.0,6.0,6.0,614.8086329999387,8.0,1.0,phase_2,stop,400.0,500.0,3.0,,,,,,,,,orange,cross
0.0,7.0,3.0,1.0,5.0,5.0,350.620833999983,8.0,1.0,phase_2,go,400.0,450.0,1.0,,,,,,,,,cyan,circle
0.0,7.0,3.0,1.0,5.0,5.0,576.5483049999602,8.0,1.0,phase_2,go,400.0,450.0,1.0,,,,,,,,,cyan,circle
0.0,3.0,3.0,0.0,5.0,5.0,715.3740059998199,8.0,1.0,phase_2,go,400.0,450.0,1.0,,,,,,,,,gray,square
0.0,1.0,1.0,0.0,6.0,6.0,599.662286000239,8.0,1.0,phase_2,go,400.0,450.0,1.0,,,,,,,,,blue,I
0.0,8.0,4.0,1.0,6.0,6.0,403.5634229999232,8.0,1.0,phase_2,stop,400.0,450.0,3.0,,,,,,,,,white,hexagon
0.0,5.0,1.0,1.0,5.0,0.0,0.0,8.0,1.0,phase_2,stop,400.0,400.0,4.0,,,,,,,,,orange,cross
0.0,3.0,3.0,0.0,6.0,6.0,530.3634480001165,8.0,1.0,phase_2,go,450.0,400.0,1.0,,,,,,,,,gray,square
0.0,2.0,2.0,0.0,5.0,5.0,658.1265390000226,8.0,1.0,phase_2,go,450.0,400.0,1.0,,,,,,,,,yellow,flipped triangle
0.0,2.0,2.0,0.0,5.0,5.0,370.89433500023,8.0,1.0,phase_2,go,450.0,400.0,1.0,,,,,,,,,yellow,flipped triangle
0.0,7.0,3.0,1.0,6.0,6.0,362.5778129999162,8.0,1.0,phase_2,stop,450.0,400.0,3.0,,,,,,,,,cyan,circle
0.0,1.0,1.0,0.0,5.0,5.0,583.7552279999727,8.0,1.0,phase_2,go,450.0,350.0,1.0,,,,,,,,,blue,I
0.0,1.0,1.0,0.0,7.0,5.0,1768.4990050001943,1.0,2.0,phase_3,,,,,220.0,5.0,44.0,264.0,88.0,176.0,220.0,132.0,blue,I
0.0,5.0,1.0,1.0,7.0,1.0,3038.500754999859,1.0,1.0,phase_3,,,,,108.0,2.0,108.0,270.0,54.0,162.0,324.0,216.0,orange,cross
0.0,8.0,4.0,1.0,7.0,1.0,3262.055855999733,1.0,1.0,phase_3,,,,,204.0,6.0,204.0,102.0,136.0,170.0,34.0,68.0,white,hexagon
0.0,2.0,2.0,0.0,7.0,3.0,2524.4944629998827,1.0,1.0,phase_3,,,,,102.0,3.0,170.0,34.0,102.0,68.0,204.0,136.0,yellow,flipped triangle
0.0,5.0,1.0,1.0,7.0,6.0,3869.494482999926,1.0,1.0,phase_3,,,,,234.0,6.0,195.0,39.0,117.0,78.0,156.0,234.0,orange,cross
0.0,8.0,4.0,1.0,7.0,5.0,1581.7252969995934,1.0,1.0,phase_3,,,,,204.0,6.0,34.0,170.0,102.0,136.0,204.0,68.0,white,hexagon
0.0,7.0,3.0,1.0,7.0,5.0,2238.7901430001875,1.0,1.0,phase_3,,,,,54.0,1.0,324.0,216.0,162.0,270.0,54.0,108.0,cyan,circle
0.0,8.0,4.0,1.0,7.0,4.0,3340.73946000035,1.0,1.0,phase_3,,,,,234.0,6.0,78.0,117.0,195.0,234.0,39.0,156.0,white,hexagon
0.0,2.0,2.0,0.0,7.0,5.0,3520.7930609999494,1.0,1.0,phase_3,,,,,270.0,5.0,54.0,216.0,324.0,162.0,270.0,108.0,yellow,flipped triangle
0.0,4.0,4.0,0.0,7.0,1.0,2950.516719999996,1.0,1.0,phase_3,,,,,147.0,3.0,147.0,294.0,245.0,49.0,196.0,98.0,green,triangle
0.0,1.0,1.0,0.0,7.0,2.0,1469.6242879999772,1.0,1.0,phase_3,,,,,176.0,4.0,44.0,176.0,88.0,264.0,132.0,220.0,blue,I
0.0,6.0,2.0,1.0,7.0,6.0,2789.887446000193,1.0,1.0,phase_3,,,,,136.0,4.0,102.0,34.0,204.0,68.0,170.0,136.0,magenta,diamond
0.0,6.0,2.0,1.0,7.0,6.0,4359.891910999977,1.0,1.0,phase_3,,,,,162.0,3.0,270.0,216.0,324.0,54.0,108.0,162.0,magenta,diamond
0.0,3.0,3.0,0.0,7.0,2.0,1337.1914379999907,1.0,1.0,phase_3,,,,,54.0,1.0,270.0,54.0,162.0,108.0,216.0,324.0,gray,square
0.0,2.0,2.0,0.0,7.0,3.0,2190.218043999721,1.0,1.0,phase_3,,,,,147.0,3.0,98.0,245.0,147.0,196.0,49.0,294.0,yellow,flipped triangle
0.0,3.0,3.0,0.0,7.0,4.0,2724.0230900001734,1.0,1.0,phase_3,,,,,54.0,1.0,216.0,270.0,108.0,54.0,162.0,324.0,gray,square
0.0,6.0,2.0,1.0,7.0,5.0,2146.8936579999536,1.0,1.0,phase_3,,,,,170.0,5.0,136.0,68.0,204.0,102.0,170.0,34.0,magenta,diamond
0.0,7.0,3.0,1.0,7.0,5.0,3569.0111729995806,1.0,1.0,phase_3,,,,,68.0,2.0,170.0,136.0,204.0,34.0,68.0,102.0,cyan,circle
0.0,7.0,3.0,1.0,7.0,3.0,2909.323765999943,1.0,1.0,phase_3,,,,,88.0,2.0,264.0,176.0,88.0,220.0,44.0,132.0,cyan,circle
0.0,6.0,2.0,1.0,7.0,4.0,1168.111871000292,1.0,1.0,phase_3,,,,,196.0,4.0,245.0,294.0,147.0,196.0,98.0,49.0,magenta,diamond
0.0,7.0,3.0,1.0,7.0,5.0,3322.104561999822,2.0,1.0,phase_3,,,,,102.0,3.0,170.0,68.0,204.0,136.0,102.0,34.0,cyan,circle
0.0,4.0,4.0,0.0,7.0,2.0,3086.5844130003097,2.0,1.0,phase_3,,,,,132.0,3.0,220.0,132.0,44.0,176.0,264.0,88.0,green,triangle
0.0,8.0,4.0,1.0,7.0,5.0,3077.6522070000283,2.0,1.0,phase_3,,,,,245.0,5.0,49.0,98.0,147.0,294.0,245.0,196.0,white,hexagon
0.0,1.0,1.0,0.0,7.0,2.0,1593.1277290001162,2.0,1.0,phase_3,,,,,156.0,4.0,234.0,156.0,78.0,39.0,117.0,195.0,blue,I
0.0,3.0,3.0,0.0,7.0,5.0,3500.542385999779,2.0,1.0,phase_3,,,,,68.0,2.0,136.0,170.0,34.0,102.0,68.0,204.0,gray,square
0.0,3.0,3.0,0.0,7.0,6.0,1891.2707710001089,2.0,1.0,phase_3,,,,,49.0,1.0,196.0,147.0,98.0,245.0,294.0,49.0,gray,square
0.0,5.0,1.0,1.0,7.0,3.0,4527.040877000218,2.0,1.0,phase_3,,,,,68.0,2.0,102.0,204.0,68.0,34.0,170.0,136.0,orange,cross
0.0,2.0,2.0,0.0,7.0,5.0,2081.8996630000584,2.0,1.0,phase_3,,,,,156.0,4.0,78.0,117.0,39.0,195.0,156.0,234.0,yellow,flipped triangle
0.0,5.0,1.0,1.0,7.0,1.0,1910.393342000134,2.0,1.0,phase_3,,,,,117.0,3.0,117.0,195.0,78.0,39.0,156.0,234.0,orange,cross
0.0,5.0,1.0,1.0,7.0,4.0,2906.477712999731,2.0,1.0,phase_3,,,,,147.0,3.0,245.0,98.0,294.0,147.0,196.0,49.0,orange,cross
0.0,4.0,4.0,0.0,7.0,5.0,2463.5719559996687,2.0,1.0,phase_3,,,,,176.0,4.0,132.0,264.0,220.0,88.0,176.0,44.0,green,triangle
0.0,5.0,1.0,1.0,7.0,2.0,2114.86737200039,2.0,1.0,phase_3,,,,,136.0,4.0,68.0,136.0,102.0,204.0,34.0,170.0,orange,cross
0.0,2.0,2.0,0.0,7.0,5.0,2033.2544969996889,2.0,1.0,phase_3,,,,,195.0,5.0,234.0,156.0,78.0,117.0,195.0,39.0,yellow,flipped triangle
0.0,6.0,2.0,1.0,7.0,5.0,2424.2743509994402,2.0,1.0,phase_3,,,,,195.0,5.0,234.0,117.0,156.0,39.0,195.0,78.0,magenta,diamond
0.0,4.0,4.0,0.0,7.0,2.0,1554.6193419995689,2.0,1.0,phase_3,,,,,162.0,3.0,108.0,162.0,324.0,216.0,270.0,54.0,green,triangle
0.0,6.0,2.0,1.0,7.0,1.0,3458.8179969996418,2.0,1.0,phase_3,,,,,162.0,3.0,162.0,108.0,216.0,54.0,324.0,270.0,magenta,diamond
0.0,3.0,3.0,0.0,7.0,2.0,2055.997610000304,2.0,1.0,phase_3,,,,,44.0,1.0,220.0,44.0,132.0,264.0,176.0,88.0,gray,square
0.0,2.0,2.0,0.0,7.0,3.0,3771.193966000282,2.0,1.0,phase_3,,,,,216.0,4.0,270.0,162.0,216.0,54.0,108.0,324.0,yellow,flipped triangle
0.0,1.0,1.0,0.0,7.0,4.0,1885.0942580002084,2.0,1.0,phase_3,,,,,68.0,2.0,102.0,136.0,34.0,68.0,170.0,204.0,blue,I
0.0,3.0,3.0,0.0,7.0,2.0,1382.2624040003575,2.0,1.0,phase_3,,,,,49.0,1.0,294.0,49.0,147.0,196.0,98.0,245.0,gray,square
0.0,4.0,4.0,0.0,7.0,5.0,2938.332423999782,3.0,1.0,phase_3,,,,,170.0,5.0,68.0,136.0,34.0,204.0,170.0,102.0,green,triangle
0.0,7.0,3.0,1.0,7.0,3.0,3280.8078080006453,3.0,1.0,phase_3,,,,,98.0,2.0,294.0,245.0,98.0,196.0,49.0,147.0,cyan,circle
0.0,1.0,1.0,0.0,7.0,3.0,1689.489195000533,3.0,1.0,phase_3,,,,,34.0,1.0,204.0,136.0,34.0,102.0,170.0,68.0,blue,I
0.0,8.0,4.0,1.0,7.0,1.0,1660.6679259994053,3.0,1.0,phase_3,,,,,324.0,6.0,324.0,162.0,54.0,270.0,108.0,216.0,white,hexagon
0.0,7.0,3.0,1.0,7.0,4.0,3630.274572000417,3.0,1.0,phase_3,,,,,195.0,5.0,156.0,234.0,78.0,195.0,117.0,39.0,cyan,circle
0.0,1.0,1.0,0.0,7.0,6.0,2404.256769999847,3.0,1.0,phase_3,,,,,54.0,1.0,162.0,324.0,270.0,108.0,216.0,54.0,blue,I
0.0,7.0,3.0,1.0,7.0,4.0,4806.753383999421,3.0,1.0,phase_3,,,,,196.0,4.0,245.0,49.0,98.0,196.0,294.0,147.0,cyan,circle
0.0,8.0,4.0,1.0,7.0,6.0,2551.3092639994284,3.0,1.0,phase_3,,,,,245.0,5.0,98.0,147.0,294.0,49.0,196.0,245.0,white,hexagon
0.0,4.0,4.0,0.0,7.0,1.0,1601.6055869995398,3.0,1.0,phase_3,,,,,117.0,3.0,117.0,156.0,234.0,39.0,78.0,195.0,green,triangle
0.0,5.0,1.0,1.0,7.0,6.0,3671.4797619997626,3.0,1.0,phase_3,,,,,176.0,4.0,220.0,132.0,88.0,44.0,264.0,176.0,orange,cross
0.0,1.0,1.0,0.0,7.0,3.0,1428.1606219992682,3.0,1.0,phase_3,,,,,49.0,1.0,245.0,98.0,49.0,294.0,147.0,196.0,blue,I
0.0,7.0,3.0,1.0,7.0,6.0,1383.4742729995924,3.0,1.0,phase_3,,,,,132.0,3.0,220.0,88.0,176.0,264.0,44.0,132.0,cyan,circle
0.0,5.0,1.0,1.0,7.0,6.0,3126.3845760004187,3.0,1.0,phase_3,,,,,162.0,3.0,324.0,270.0,216.0,108.0,54.0,162.0,orange,cross
0.0,1.0,1.0,0.0,7.0,1.0,3009.856530000434,3.0,1.0,phase_3,,,,,39.0,1.0,39.0,234.0,156.0,195.0,78.0,117.0,blue,I
0.0,1.0,1.0,0.0,7.0,4.0,1649.282704000143,3.0,1.0,phase_3,,,,,54.0,1.0,108.0,216.0,324.0,54.0,270.0,162.0,blue,I
0.0,4.0,4.0,0.0,7.0,1.0,1670.140715999878,3.0,1.0,phase_3,,,,,196.0,4.0,196.0,49.0,294.0,147.0,98.0,245.0,green,triangle
0.0,4.0,4.0,0.0,7.0,5.0,3622.001147999981,3.0,1.0,phase_3,,,,,216.0,4.0,270.0,108.0,54.0,162.0,216.0,324.0,green,triangle
0.0,3.0,3.0,0.0,7.0,5.0,1250.6618349998462,3.0,1.0,phase_3,,,,,44.0,1.0,264.0,176.0,132.0,220.0,44.0,88.0,gray,square
0.0,4.0,4.0,0.0,7.0,2.0,3116.548274999332,3.0,1.0,phase_3,,,,,156.0,4.0,117.0,156.0,195.0,234.0,78.0,39.0,green,triangle
0.0,6.0,2.0,1.0,7.0,1.0,3361.7825159999484,3.0,1.0,phase_3,,,,,195.0,5.0,195.0,39.0,234.0,78.0,156.0,117.0,magenta,diamond
0.0,8.0,4.0,1.0,7.0,6.0,1819.612479999705,4.0,1.0,phase_3,,,,,234.0,6.0,117.0,156.0,195.0,78.0,39.0,234.0,white,hexagon
0.0,1.0,1.0,0.0,7.0,1.0,2289.074053999684,4.0,1.0,phase_3,,,,,49.0,1.0,49.0,294.0,245.0,147.0,196.0,98.0,blue,I
0.0,2.0,2.0,0.0,7.0,6.0,3775.931612000022,4.0,1.0,phase_3,,,,,220.0,5.0,264.0,176.0,132.0,88.0,44.0,220.0,yellow,flipped triangle
0.0,6.0,2.0,1.0,7.0,2.0,1607.8671719997146,4.0,1.0,phase_3,,,,,196.0,4.0,294.0,196.0,245.0,147.0,98.0,49.0,magenta,diamond
0.0,8.0,4.0,1.0,7.0,1.0,1207.4186679992636,4.0,1.0,phase_3,,,,,324.0,6.0,324.0,54.0,108.0,216.0,162.0,270.0,white,hexagon
0.0,2.0,2.0,0.0,7.0,3.0,1438.1028190000509,4.0,2.0,phase_3,,,,,147.0,3.0,98.0,49.0,147.0,196.0,245.0,294.0,yellow,flipped triangle
0.0,5.0,1.0,1.0,7.0,6.0,2315.042332999837,4.0,1.0,phase_3,,,,,98.0,2.0,294.0,196.0,147.0,245.0,49.0,98.0,orange,cross
0.0,8.0,4.0,1.0,7.0,5.0,3032.734660999268,4.0,1.0,phase_3,,,,,264.0,6.0,220.0,176.0,88.0,44.0,264.0,132.0,white,hexagon
0.0,7.0,3.0,1.0,7.0,5.0,3302.3434829992766,4.0,1.0,phase_3,,,,,162.0,3.0,270.0,108.0,216.0,54.0,162.0,324.0,cyan,circle
0.0,4.0,4.0,0.0,7.0,2.0,2760.2773600001456,4.0,1.0,phase_3,,,,,136.0,4.0,68.0,136.0,204.0,102.0,34.0,170.0,green,triangle
0.0,6.0,2.0,1.0,7.0,1.0,1770.8707669999058,4.0,1.0,phase_3,,,,,176.0,4.0,176.0,264.0,220.0,88.0,44.0,132.0,magenta,diamond
0.0,3.0,3.0,0.0,7.0,1.0,1804.6444940000583,4.0,1.0,phase_3,,,,,39.0,1.0,39.0,117.0,78.0,156.0,234.0,195.0,gray,square
0.0,6.0,2.0,1.0,7.0,3.0,4257.500650999646,4.0,1.0,phase_3,,,,,176.0,4.0,220.0,132.0,176.0,264.0,88.0,44.0,magenta,diamond
0.0,3.0,3.0,0.0,7.0,4.0,1484.2421909997938,4.0,1.0,phase_3,,,,,34.0,1.0,102.0,204.0,170.0,34.0,68.0,136.0,gray,square
0.0,8.0,4.0,1.0,7.0,4.0,3260.682209999686,4.0,1.0,phase_3,,,,,264.0,6.0,176.0,132.0,220.0,264.0,88.0,44.0,white,hexagon
0.0,3.0,3.0,0.0,7.0,6.0,1349.154637000538,4.0,1.0,phase_3,,,,,39.0,1.0,156.0,195.0,234.0,117.0,78.0,39.0,gray,square
0.0,2.0,2.0,0.0,7.0,5.0,3092.8202140003123,4.0,1.0,phase_3,,,,,220.0,5.0,264.0,88.0,176.0,132.0,220.0,44.0,yellow,flipped triangle
0.0,5.0,1.0,1.0,7.0,2.0,1378.3927589993257,4.0,1.0,phase_3,,,,,176.0,4.0,132.0,176.0,44.0,264.0,88.0,220.0,orange,cross
0.0,2.0,2.0,0.0,7.0,4.0,3311.731038999824,4.0,1.0,phase_3,,,,,170.0,5.0,204.0,34.0,68.0,170.0,136.0,102.0,yellow,flipped triangle
0.0,7.0,3.0,1.0,7.0,4.0,1338.4629269994548,4.0,1.0,phase_3,,,,,195.0,5.0,234.0,78.0,117.0,195.0,156.0,39.0,cyan,circle
