raw_reward_magnitude,stim_reward,stepwise_reward_magnitude,paired_with_stopping,stim_location,response,reaction_time,block,num_trial_presentations,which_phase,stop_signal_trial_type,left_SSD,right_SSD,accuracy,chosen_bidding_amount,chosen_bidding_level,possible_bid_1,possible_bid_2,possible_bid_3,possible_bid_4,possible_bid_5,possible_bid_6,color_text,shape_text
118.0,2.0,2.0,0.0,1.0,1.0,313.0842530008522,1.0,1.0,phase_1,,,,,,,,,,,,,magenta,diamond
215.0,7.0,3.0,1.0,1.0,1.0,308.4591169990744,1.0,1.0,phase_1,,,,,,,,,,,,,blue,flipped triangle
107.0,2.0,2.0,0.0,1.0,1.0,331.0223420012335,1.0,1.0,phase_1,,,,,,,,,,,,,magenta,diamond
181.0,3.0,3.0,0.0,3.0,3.0,310.4840489995695,1.0,1.0,phase_1,,,,,,,,,,,,,gray,circle
113.0,6.0,2.0,1.0,4.0,4.0,393.897363999713,1.0,1.0,phase_1,,,,,,,,,,,,,cyan,I
91.0,2.0,2.0,0.0,4.0,4.0,382.0405039987236,1.0,1.0,phase_1,,,,,,,,,,,,,magenta,diamond
90.0,2.0,2.0,0.0,1.0,1.0,324.2539469993062,1.0,1.0,phase_1,,,,,,,,,,,,,magenta,diamond
198.0,7.0,3.0,1.0,1.0,1.0,314.9609920001239,1.0,1.0,phase_1,,,,,,,,,,,,,blue,flipped triangle
120.0,6.0,2.0,1.0,4.0,4.0,306.1915090002003,1.0,1.0,phase_1,,,,,,,,,,,,,cyan,I
84.0,2.0,2.0,0.0,2.0,2.0,302.9767449988867,1.0,1.0,phase_1,,,,,,,,,,,,,magenta,diamond
0.0,2.0,0.0,0.0,1.0,1.0,331.6093489993363,1.0,1.0,phase_1,,,,,,,,,,,,,magenta,diamond
100.0,2.0,2.0,0.0,2.0,2.0,314.7275459996308,1.0,1.0,phase_1,,,,,,,,,,,,,magenta,diamond
44.0,5.0,1.0,1.0,1.0,1.0,352.7006370004528,1.0,1.0,phase_1,,,,,,,,,,,,,white,square
419.0,8.0,4.0,1.0,2.0,2.0,335.310666998339,1.0,1.0,phase_1,,,,,,,,,,,,,orange,cross
411.0,4.0,4.0,0.0,4.0,4.0,369.1169689991511,1.0,1.0,phase_1,,,,,,,,,,,,,green,triangle
185.0,3.0,3.0,0.0,1.0,1.0,313.7907000000268,1.0,1.0,phase_1,,,,,,,,,,,,,gray,circle
382.0,8.0,4.0,1.0,3.0,3.0,274.2520440006046,1.0,1.0,phase_1,,,,,,,,,,,,,orange,cross
0.0,2.0,0.0,0.0,4.0,4.0,297.0436619998509,1.0,1.0,phase_1,,,,,,,,,,,,,magenta,diamond
220.0,7.0,3.0,1.0,3.0,3.0,393.5961999995925,1.0,1.0,phase_1,,,,,,,,,,,,,blue,flipped triangle
107.0,6.0,2.0,1.0,4.0,4.0,329.6887830001651,1.0,1.0,phase_1,,,,,,,,,,,,,cyan,I
78.0,6.0,2.0,1.0,3.0,3.0,398.7272970007325,1.0,1.0,phase_1,,,,,,,,,,,,,cyan,I
0.0,5.0,0.0,1.0,2.0,2.0,368.0361229999107,1.0,1.0,phase_1,,,,,,,,,,,,,white,square
182.0,3.0,3.0,0.0,1.0,1.0,490.6888299992715,1.0,1.0,phase_1,,,,,,,,,,,,,gray,circle
35.0,5.0,1.0,1.0,4.0,4.0,315.506416000062,1.0,1.0,phase_1,,,,,,,,,,,,,white,square
0.0,6.0,0.0,1.0,1.0,1.0,372.0286349998787,1.0,1.0,phase_1,,,,,,,,,,,,,cyan,I
50.0,5.0,1.0,1.0,3.0,3.0,501.4209340006346,1.0,1.0,phase_1,,,,,,,,,,,,,white,square
98.0,2.0,2.0,0.0,3.0,3.0,437.9916289999528,1.0,1.0,phase_1,,,,,,,,,,,,,magenta,diamond
70.0,5.0,1.0,1.0,3.0,3.0,354.6882589998859,1.0,1.0,phase_1,,,,,,,,,,,,,white,square
102.0,6.0,2.0,1.0,1.0,1.0,406.0843449988169,1.0,1.0,phase_1,,,,,,,,,,,,,cyan,I
98.0,6.0,2.0,1.0,4.0,4.0,371.2011440002243,1.0,1.0,phase_1,,,,,,,,,,,,,cyan,I
33.0,1.0,1.0,0.0,4.0,4.0,400.799660001212,1.0,1.0,phase_1,,,,,,,,,,,,,yellow,hexagon
0.0,3.0,0.0,0.0,2.0,2.0,277.9592480001156,1.0,1.0,phase_1,,,,,,,,,,,,,gray,circle
98.0,2.0,2.0,0.0,4.0,4.0,346.6179830011242,1.0,1.0,phase_1,,,,,,,,,,,,,magenta,diamond
102.0,2.0,2.0,0.0,2.0,2.0,318.9751320005598,1.0,1.0,phase_1,,,,,,,,,,,,,magenta,diamond
0.0,5.0,0.0,1.0,1.0,1.0,330.5598339993594,1.0,1.0,phase_1,,,,,,,,,,,,,white,square
193.0,7.0,3.0,1.0,4.0,4.0,380.9000060009566,1.0,1.0,phase_1,,,,,,,,,,,,,blue,flipped triangle
0.0,2.0,0.0,0.0,2.0,2.0,284.4490010011213,1.0,1.0,phase_1,,,,,,,,,,,,,magenta,diamond
78.0,2.0,2.0,0.0,1.0,1.0,313.6993219995929,1.0,1.0,phase_1,,,,,,,,,,,,,magenta,diamond
196.0,7.0,3.0,1.0,4.0,4.0,343.6436079991836,1.0,1.0,phase_1,,,,,,,,,,,,,blue,flipped triangle
403.0,8.0,4.0,1.0,1.0,1.0,322.186874000181,1.0,1.0,phase_1,,,,,,,,,,,,,orange,cross
414.0,4.0,4.0,0.0,1.0,1.0,316.4638620000914,1.0,1.0,phase_1,,,,,,,,,,,,,green,triangle
0.0,8.0,0.0,1.0,4.0,4.0,338.1259849993512,1.0,1.0,phase_1,,,,,,,,,,,,,orange,cross
0.0,2.0,0.0,0.0,1.0,1.0,385.2777179999975,1.0,1.0,phase_1,,,,,,,,,,,,,magenta,diamond
179.0,3.0,3.0,0.0,1.0,1.0,326.6105319999042,1.0,1.0,phase_1,,,,,,,,,,,,,gray,circle
98.0,6.0,2.0,1.0,1.0,1.0,352.4177350009267,1.0,1.0,phase_1,,,,,,,,,,,,,cyan,I
106.0,2.0,2.0,0.0,1.0,1.0,295.7456889998866,1.0,1.0,phase_1,,,,,,,,,,,,,magenta,diamond
35.0,1.0,1.0,0.0,4.0,4.0,314.0907149991108,1.0,1.0,phase_1,,,,,,,,,,,,,yellow,hexagon
0.0,7.0,0.0,1.0,4.0,4.0,392.382006999469,1.0,1.0,phase_1,,,,,,,,,,,,,blue,flipped triangle
108.0,6.0,2.0,1.0,1.0,1.0,327.840861000368,1.0,1.0,phase_1,,,,,,,,,,,,,cyan,I
85.0,6.0,2.0,1.0,3.0,3.0,358.7285459998384,1.0,1.0,phase_1,,,,,,,,,,,,,cyan,I
78.0,2.0,2.0,0.0,4.0,4.0,358.5455789998377,1.0,1.0,phase_1,,,,,,,,,,,,,magenta,diamond
378.0,8.0,4.0,1.0,1.0,1.0,330.30875900112727,1.0,1.0,phase_1,,,,,,,,,,,,,orange,cross
183.0,7.0,3.0,1.0,2.0,2.0,348.362040000211,1.0,1.0,phase_1,,,,,,,,,,,,,blue,flipped triangle
193.0,3.0,3.0,0.0,1.0,1.0,303.6877340000501,1.0,1.0,phase_1,,,,,,,,,,,,,gray,circle
419.0,4.0,4.0,0.0,2.0,2.0,350.8614029997261,1.0,1.0,phase_1,,,,,,,,,,,,,green,triangle
190.0,7.0,3.0,1.0,4.0,4.0,319.3060570010857,1.0,1.0,phase_1,,,,,,,,,,,,,blue,flipped triangle
199.0,3.0,3.0,0.0,3.0,3.0,305.3036320015962,1.0,1.0,phase_1,,,,,,,,,,,,,gray,circle
183.0,3.0,3.0,0.0,3.0,3.0,381.8859109996992,1.0,1.0,phase_1,,,,,,,,,,,,,gray,circle
103.0,2.0,2.0,0.0,1.0,1.0,324.9325600008887,1.0,1.0,phase_1,,,,,,,,,,,,,magenta,diamond
53.0,5.0,1.0,1.0,4.0,4.0,310.0983339991217,1.0,1.0,phase_1,,,,,,,,,,,,,white,square
195.0,7.0,3.0,1.0,1.0,1.0,369.6997560000454,1.0,1.0,phase_1,,,,,,,,,,,,,blue,flipped triangle
205.0,7.0,3.0,1.0,2.0,2.0,336.566264000794,1.0,1.0,phase_1,,,,,,,,,,,,,blue,flipped triangle
66.0,5.0,1.0,1.0,1.0,1.0,360.1583970012143,1.0,1.0,phase_1,,,,,,,,,,,,,white,square
217.0,7.0,3.0,1.0,4.0,4.0,323.5553069989691,1.0,1.0,phase_1,,,,,,,,,,,,,blue,flipped triangle
120.0,2.0,2.0,0.0,3.0,3.0,318.5462790006568,1.0,1.0,phase_1,,,,,,,,,,,,,magenta,diamond
90.0,6.0,2.0,1.0,2.0,2.0,315.1007389988081,1.0,1.0,phase_1,,,,,,,,,,,,,cyan,I
198.0,3.0,3.0,0.0,2.0,2.0,334.4430600009218,1.0,1.0,phase_1,,,,,,,,,,,,,gray,circle
176.0,7.0,3.0,1.0,1.0,1.0,421.4099119999446,1.0,1.0,phase_1,,,,,,,,,,,,,blue,flipped triangle
0.0,3.0,0.0,0.0,3.0,3.0,362.8730190011993,1.0,1.0,phase_1,,,,,,,,,,,,,gray,circle
67.0,1.0,1.0,0.0,4.0,4.0,344.2665830007172,1.0,1.0,phase_1,,,,,,,,,,,,,yellow,hexagon
32.0,1.0,1.0,0.0,3.0,3.0,390.8141430001706,1.0,1.0,phase_1,,,,,,,,,,,,,yellow,hexagon
394.0,4.0,4.0,0.0,1.0,1.0,343.3695220010122,1.0,1.0,phase_1,,,,,,,,,,,,,green,triangle
209.0,3.0,3.0,0.0,1.0,1.0,305.4345319997082,1.0,1.0,phase_1,,,,,,,,,,,,,gray,circle
179.0,7.0,3.0,1.0,4.0,4.0,333.2982859992626,1.0,1.0,phase_1,,,,,,,,,,,,,blue,flipped triangle
213.0,7.0,3.0,1.0,3.0,3.0,330.825607999941,1.0,1.0,phase_1,,,,,,,,,,,,,blue,flipped triangle
0.0,5.0,0.0,1.0,1.0,1.0,342.4074349986767,1.0,2.0,phase_1,,,,,,,,,,,,,white,square
33.0,1.0,1.0,0.0,1.0,1.0,426.4012530002219,1.0,1.0,phase_1,,,,,,,,,,,,,yellow,hexagon
91.0,6.0,2.0,1.0,2.0,2.0,354.8038150001957,1.0,1.0,phase_1,,,,,,,,,,,,,cyan,I
47.0,5.0,1.0,1.0,4.0,4.0,473.4689939996315,1.0,1.0,phase_1,,,,,,,,,,,,,white,square
0.0,4.0,0.0,0.0,2.0,2.0,328.1369090000225,1.0,1.0,phase_1,,,,,,,,,,,,,green,triangle
75.0,1.0,1.0,0.0,1.0,1.0,412.9881200005911,1.0,1.0,phase_1,,,,,,,,,,,,,yellow,hexagon
0.0,3.0,0.0,0.0,3.0,3.0,387.7580129992566,1.0,1.0,phase_1,,,,,,,,,,,,,gray,circle
34.0,1.0,1.0,0.0,4.0,4.0,331.9631490012398,1.0,1.0,phase_1,,,,,,,,,,,,,yellow,hexagon
90.0,6.0,2.0,1.0,1.0,1.0,390.8201699996425,1.0,1.0,phase_1,,,,,,,,,,,,,cyan,I
97.0,6.0,2.0,1.0,4.0,4.0,384.9119000005885,1.0,1.0,phase_1,,,,,,,,,,,,,cyan,I
410.0,4.0,4.0,0.0,4.0,4.0,400.7261999995535,1.0,1.0,phase_1,,,,,,,,,,,,,green,triangle
47.0,1.0,1.0,0.0,1.0,1.0,406.4356420003605,1.0,1.0,phase_1,,,,,,,,,,,,,yellow,hexagon
34.0,5.0,1.0,1.0,1.0,1.0,385.0834490003763,1.0,1.0,phase_1,,,,,,,,,,,,,white,square
417.0,8.0,4.0,1.0,1.0,1.0,403.4195779986476,1.0,1.0,phase_1,,,,,,,,,,,,,orange,cross
124.0,2.0,2.0,0.0,3.0,3.0,438.8229360010882,1.0,1.0,phase_1,,,,,,,,,,,,,magenta,diamond
44.0,1.0,1.0,0.0,1.0,1.0,333.2299409994448,1.0,1.0,phase_1,,,,,,,,,,,,,yellow,hexagon
0.0,2.0,0.0,0.0,1.0,1.0,362.1822980003344,1.0,1.0,phase_1,,,,,,,,,,,,,magenta,diamond
417.0,4.0,4.0,0.0,2.0,2.0,355.4770539994933,1.0,1.0,phase_1,,,,,,,,,,,,,green,triangle
0.0,6.0,0.0,1.0,4.0,4.0,377.9516949998651,1.0,1.0,phase_1,,,,,,,,,,,,,cyan,I
185.0,7.0,3.0,1.0,3.0,3.0,393.1700610010011,1.0,1.0,phase_1,,,,,,,,,,,,,blue,flipped triangle
387.0,8.0,4.0,1.0,2.0,2.0,303.3568999999261,1.0,1.0,phase_1,,,,,,,,,,,,,orange,cross
124.0,6.0,2.0,1.0,1.0,1.0,287.7200369985075,1.0,1.0,phase_1,,,,,,,,,,,,,cyan,I
0.0,2.0,0.0,0.0,3.0,3.0,456.206941000346,1.0,1.0,phase_1,,,,,,,,,,,,,magenta,diamond
0.0,5.0,0.0,1.0,2.0,2.0,378.5900839993701,1.0,1.0,phase_1,,,,,,,,,,,,,white,square
56.0,1.0,1.0,0.0,4.0,4.0,331.0184639994986,1.0,1.0,phase_1,,,,,,,,,,,,,yellow,hexagon
71.0,1.0,1.0,0.0,2.0,2.0,329.1835550007818,2.0,1.0,phase_1,,,,,,,,,,,,,yellow,hexagon
209.0,7.0,3.0,1.0,4.0,4.0,336.7863120001857,2.0,1.0,phase_1,,,,,,,,,,,,,blue,flipped triangle
78.0,6.0,2.0,1.0,4.0,4.0,349.6555740002804,2.0,1.0,phase_1,,,,,,,,,,,,,cyan,I
0.0,3.0,0.0,0.0,2.0,2.0,289.9695239993889,2.0,1.0,phase_1,,,,,,,,,,,,,gray,circle
200.0,7.0,3.0,1.0,3.0,3.0,373.8694429994211,2.0,1.0,phase_1,,,,,,,,,,,,,blue,flipped triangle
94.0,2.0,2.0,0.0,4.0,4.0,343.602015000215,2.0,1.0,phase_1,,,,,,,,,,,,,magenta,diamond
0.0,3.0,0.0,0.0,2.0,2.0,348.9489489984407,2.0,1.0,phase_1,,,,,,,,,,,,,gray,circle
27.0,1.0,1.0,0.0,1.0,1.0,349.831905999963,2.0,1.0,phase_1,,,,,,,,,,,,,yellow,hexagon
37.0,1.0,1.0,0.0,2.0,2.0,350.4008820000308,2.0,1.0,phase_1,,,,,,,,,,,,,yellow,hexagon
421.0,4.0,4.0,0.0,4.0,4.0,353.1298119996791,2.0,1.0,phase_1,,,,,,,,,,,,,green,triangle
183.0,7.0,3.0,1.0,1.0,1.0,376.2933119996887,2.0,1.0,phase_1,,,,,,,,,,,,,blue,flipped triangle
377.0,8.0,4.0,1.0,3.0,3.0,341.1696950006444,2.0,1.0,phase_1,,,,,,,,,,,,,orange,cross
389.0,8.0,4.0,1.0,1.0,1.0,313.2636669997737,2.0,1.0,phase_1,,,,,,,,,,,,,orange,cross
218.0,7.0,3.0,1.0,4.0,4.0,374.5257420014241,2.0,1.0,phase_1,,,,,,,,,,,,,blue,flipped triangle
384.0,4.0,4.0,0.0,3.0,3.0,392.344800000501,2.0,1.0,phase_1,,,,,,,,,,,,,green,triangle
200.0,7.0,3.0,1.0,2.0,2.0,323.7024279987963,2.0,1.0,phase_1,,,,,,,,,,,,,blue,flipped triangle
84.0,6.0,2.0,1.0,2.0,2.0,345.8624590002728,2.0,1.0,phase_1,,,,,,,,,,,,,cyan,I
393.0,8.0,4.0,1.0,4.0,4.0,379.7208500000124,2.0,1.0,phase_1,,,,,,,,,,,,,orange,cross
57.0,5.0,1.0,1.0,2.0,2.0,309.0617190009652,2.0,1.0,phase_1,,,,,,,,,,,,,white,square
0.0,1.0,0.0,0.0,4.0,4.0,384.5612770001025,2.0,1.0,phase_1,,,,,,,,,,,,,yellow,hexagon
419.0,4.0,4.0,0.0,3.0,3.0,377.1328139991965,2.0,1.0,phase_1,,,,,,,,,,,,,green,triangle
66.0,1.0,1.0,0.0,1.0,1.0,379.9642020003375,2.0,1.0,phase_1,,,,,,,,,,,,,yellow,hexagon
53.0,5.0,1.0,1.0,3.0,3.0,415.7589770002232,2.0,1.0,phase_1,,,,,,,,,,,,,white,square
225.0,3.0,3.0,0.0,2.0,2.0,464.4641440008854,2.0,1.0,phase_1,,,,,,,,,,,,,gray,circle
213.0,3.0,3.0,0.0,4.0,4.0,292.9104520007968,2.0,1.0,phase_1,,,,,,,,,,,,,gray,circle
410.0,8.0,4.0,1.0,3.0,3.0,352.9113819986378,2.0,1.0,phase_1,,,,,,,,,,,,,orange,cross
182.0,3.0,3.0,0.0,3.0,3.0,374.4374249999964,2.0,1.0,phase_1,,,,,,,,,,,,,gray,circle
87.0,2.0,2.0,0.0,4.0,4.0,398.3798199988086,2.0,1.0,phase_1,,,,,,,,,,,,,magenta,diamond
187.0,7.0,3.0,1.0,2.0,2.0,305.5772869993234,2.0,1.0,phase_1,,,,,,,,,,,,,blue,flipped triangle
378.0,4.0,4.0,0.0,4.0,4.0,293.1185489997006,2.0,1.0,phase_1,,,,,,,,,,,,,green,triangle
70.0,5.0,1.0,1.0,1.0,1.0,323.22101399950037,2.0,1.0,phase_1,,,,,,,,,,,,,white,square
197.0,3.0,3.0,0.0,2.0,2.0,354.4633759993303,2.0,1.0,phase_1,,,,,,,,,,,,,gray,circle
0.0,1.0,0.0,0.0,4.0,4.0,402.5870879995636,2.0,1.0,phase_1,,,,,,,,,,,,,yellow,hexagon
200.0,3.0,3.0,0.0,2.0,2.0,343.6685409997153,2.0,1.0,phase_1,,,,,,,,,,,,,gray,circle
108.0,2.0,2.0,0.0,2.0,2.0,402.7928010000323,2.0,1.0,phase_1,,,,,,,,,,,,,magenta,diamond
0.0,5.0,0.0,1.0,3.0,3.0,338.5043919988675,2.0,1.0,phase_1,,,,,,,,,,,,,white,square
217.0,7.0,3.0,1.0,2.0,2.0,329.9223160011024,2.0,1.0,phase_1,,,,,,,,,,,,,blue,flipped triangle
411.0,8.0,4.0,1.0,1.0,1.0,336.404047000542,2.0,1.0,phase_1,,,,,,,,,,,,,orange,cross
0.0,3.0,0.0,0.0,3.0,3.0,374.8965959985071,2.0,1.0,phase_1,,,,,,,,,,,,,gray,circle
115.0,6.0,2.0,1.0,4.0,4.0,387.310587999309,2.0,1.0,phase_1,,,,,,,,,,,,,cyan,I
397.0,8.0,4.0,1.0,3.0,3.0,379.8953400000755,2.0,1.0,phase_1,,,,,,,,,,,,,orange,cross
61.0,5.0,1.0,1.0,4.0,4.0,428.9288580002903,2.0,1.0,phase_1,,,,,,,,,,,,,white,square
66.0,1.0,1.0,0.0,2.0,2.0,382.8933489985502,2.0,1.0,phase_1,,,,,,,,,,,,,yellow,hexagon
222.0,3.0,3.0,0.0,4.0,4.0,410.7971060002455,2.0,1.0,phase_1,,,,,,,,,,,,,gray,circle
400.0,8.0,4.0,1.0,2.0,2.0,302.7900209999643,2.0,1.0,phase_1,,,,,,,,,,,,,orange,cross
218.0,3.0,3.0,0.0,1.0,1.0,391.6648119993624,2.0,1.0,phase_1,,,,,,,,,,,,,gray,circle
193.0,3.0,3.0,0.0,3.0,3.0,302.3836800002755,2.0,1.0,phase_1,,,,,,,,,,,,,gray,circle
30.0,1.0,1.0,0.0,2.0,2.0,344.0576820012211,2.0,1.0,phase_1,,,,,,,,,,,,,yellow,hexagon
91.0,2.0,2.0,0.0,4.0,4.0,334.5601729997725,2.0,1.0,phase_1,,,,,,,,,,,,,magenta,diamond
394.0,8.0,4.0,1.0,4.0,4.0,374.4564259995968,2.0,1.0,phase_1,,,,,,,,,,,,,orange,cross
120.0,6.0,2.0,1.0,1.0,1.0,337.107035000372,2.0,1.0,phase_1,,,,,,,,,,,,,cyan,I
196.0,3.0,3.0,0.0,2.0,2.0,386.1102330010908,2.0,1.0,phase_1,,,,,,,,,,,,,gray,circle
407.0,4.0,4.0,0.0,4.0,4.0,313.2184990008682,2.0,1.0,phase_1,,,,,,,,,,,,,green,triangle
0.0,4.0,0.0,0.0,2.0,2.0,335.531398999592,2.0,1.0,phase_1,,,,,,,,,,,,,green,triangle
64.0,5.0,1.0,1.0,1.0,1.0,399.2080240004725,2.0,1.0,phase_1,,,,,,,,,,,,,white,square
412.0,4.0,4.0,0.0,4.0,4.0,358.2972439999139,2.0,1.0,phase_1,,,,,,,,,,,,,green,triangle
188.0,3.0,3.0,0.0,4.0,4.0,414.9963750005554,2.0,1.0,phase_1,,,,,,,,,,,,,gray,circle
62.0,5.0,1.0,1.0,4.0,4.0,387.7551019995735,2.0,1.0,phase_1,,,,,,,,,,,,,white,square
412.0,8.0,4.0,1.0,4.0,4.0,330.7751430002099,2.0,1.0,phase_1,,,,,,,,,,,,,orange,cross
102.0,6.0,2.0,1.0,3.0,3.0,381.9217770014802,2.0,1.0,phase_1,,,,,,,,,,,,,cyan,I
87.0,6.0,2.0,1.0,4.0,4.0,334.0495800002827,2.0,1.0,phase_1,,,,,,,,,,,,,cyan,I
0.0,6.0,0.0,1.0,3.0,3.0,385.8116809988132,2.0,1.0,phase_1,,,,,,,,,,,,,cyan,I
197.0,7.0,3.0,1.0,3.0,3.0,344.3488069988234,2.0,1.0,phase_1,,,,,,,,,,,,,blue,flipped triangle
115.0,2.0,2.0,0.0,1.0,1.0,308.3513199999288,2.0,1.0,phase_1,,,,,,,,,,,,,magenta,diamond
62.0,5.0,1.0,1.0,2.0,2.0,302.424322000661,2.0,1.0,phase_1,,,,,,,,,,,,,white,square
66.0,1.0,1.0,0.0,3.0,3.0,295.1981280002655,2.0,1.0,phase_1,,,,,,,,,,,,,yellow,hexagon
64.0,1.0,1.0,0.0,1.0,1.0,390.14533900081,2.0,1.0,phase_1,,,,,,,,,,,,,yellow,hexagon
55.0,5.0,1.0,1.0,4.0,4.0,353.993327000353,2.0,1.0,phase_1,,,,,,,,,,,,,white,square
0.0,6.0,0.0,1.0,3.0,3.0,365.1139240009797,2.0,1.0,phase_1,,,,,,,,,,,,,cyan,I
404.0,4.0,4.0,0.0,1.0,1.0,288.6244340006669,2.0,1.0,phase_1,,,,,,,,,,,,,green,triangle
376.0,4.0,4.0,0.0,1.0,1.0,341.9001000002026,2.0,1.0,phase_1,,,,,,,,,,,,,green,triangle
70.0,1.0,1.0,0.0,3.0,3.0,376.5246109996951,2.0,1.0,phase_1,,,,,,,,,,,,,yellow,hexagon
120.0,6.0,2.0,1.0,2.0,2.0,327.2839929995825,2.0,1.0,phase_1,,,,,,,,,,,,,cyan,I
0.0,6.0,0.0,1.0,2.0,2.0,412.9896300000837,2.0,1.0,phase_1,,,,,,,,,,,,,cyan,I
210.0,3.0,3.0,0.0,2.0,2.0,352.3246900003869,2.0,1.0,phase_1,,,,,,,,,,,,,gray,circle
0.0,6.0,0.0,1.0,4.0,4.0,437.7486919984221,2.0,1.0,phase_1,,,,,,,,,,,,,cyan,I
51.0,1.0,1.0,0.0,4.0,4.0,404.2480110001634,2.0,1.0,phase_1,,,,,,,,,,,,,yellow,hexagon
75.0,5.0,1.0,1.0,4.0,4.0,371.0025510008563,2.0,1.0,phase_1,,,,,,,,,,,,,white,square
0.0,7.0,0.0,1.0,4.0,4.0,363.1690389993309,2.0,1.0,phase_1,,,,,,,,,,,,,blue,flipped triangle
0.0,1.0,0.0,0.0,3.0,3.0,311.8748990000313,2.0,1.0,phase_1,,,,,,,,,,,,,yellow,hexagon
94.0,6.0,2.0,1.0,2.0,2.0,307.9902259996743,2.0,1.0,phase_1,,,,,,,,,,,,,cyan,I
107.0,6.0,2.0,1.0,3.0,3.0,358.4859249986039,2.0,1.0,phase_1,,,,,,,,,,,,,cyan,I
0.0,8.0,0.0,1.0,3.0,3.0,337.4311739989934,2.0,1.0,phase_1,,,,,,,,,,,,,orange,cross
0.0,3.0,0.0,0.0,3.0,3.0,370.0058280010125,2.0,1.0,phase_1,,,,,,,,,,,,,gray,circle
386.0,4.0,4.0,0.0,1.0,1.0,312.1004460008407,2.0,1.0,phase_1,,,,,,,,,,,,,green,triangle
209.0,7.0,3.0,1.0,1.0,1.0,371.4664380004251,2.0,1.0,phase_1,,,,,,,,,,,,,blue,flipped triangle
416.0,8.0,4.0,1.0,1.0,1.0,337.5115350008855,2.0,1.0,phase_1,,,,,,,,,,,,,orange,cross
101.0,6.0,2.0,1.0,3.0,3.0,326.8813159993442,2.0,1.0,phase_1,,,,,,,,,,,,,cyan,I
64.0,1.0,1.0,0.0,1.0,1.0,327.4674339991179,2.0,1.0,phase_1,,,,,,,,,,,,,yellow,hexagon
124.0,2.0,2.0,0.0,1.0,1.0,304.8760469991975,2.0,1.0,phase_1,,,,,,,,,,,,,magenta,diamond
0.0,5.0,0.0,1.0,3.0,3.0,355.0312250008574,2.0,1.0,phase_1,,,,,,,,,,,,,white,square
381.0,8.0,4.0,1.0,4.0,4.0,470.2795850007533,2.0,1.0,phase_1,,,,,,,,,,,,,orange,cross
192.0,3.0,3.0,0.0,3.0,3.0,320.1675140007864,2.0,1.0,phase_1,,,,,,,,,,,,,gray,circle
375.0,8.0,4.0,1.0,2.0,2.0,347.5167090000468,2.0,1.0,phase_1,,,,,,,,,,,,,orange,cross
102.0,2.0,2.0,0.0,3.0,3.0,368.2166259986843,2.0,1.0,phase_1,,,,,,,,,,,,,magenta,diamond
398.0,8.0,4.0,1.0,2.0,2.0,306.5731520000554,2.0,1.0,phase_1,,,,,,,,,,,,,orange,cross
182.0,7.0,3.0,1.0,2.0,2.0,304.3718190001527,2.0,1.0,phase_1,,,,,,,,,,,,,blue,flipped triangle
400.0,4.0,4.0,0.0,1.0,1.0,408.4817049988487,2.0,1.0,phase_1,,,,,,,,,,,,,green,triangle
0.0,3.0,0.0,0.0,1.0,1.0,437.7085950000037,2.0,1.0,phase_1,,,,,,,,,,,,,gray,circle
103.0,6.0,2.0,1.0,3.0,3.0,315.3332199999568,2.0,1.0,phase_1,,,,,,,,,,,,,cyan,I
101.0,2.0,2.0,0.0,2.0,2.0,354.5275100004801,3.0,1.0,phase_1,,,,,,,,,,,,,magenta,diamond
0.0,7.0,0.0,1.0,1.0,1.0,331.1267870012671,3.0,1.0,phase_1,,,,,,,,,,,,,blue,flipped triangle
419.0,8.0,4.0,1.0,4.0,4.0,403.5049349986366,3.0,1.0,phase_1,,,,,,,,,,,,,orange,cross
113.0,2.0,2.0,0.0,4.0,4.0,348.6403970000538,3.0,1.0,phase_1,,,,,,,,,,,,,magenta,diamond
225.0,7.0,3.0,1.0,4.0,4.0,398.1014670007425,3.0,1.0,phase_1,,,,,,,,,,,,,blue,flipped triangle
84.0,2.0,2.0,0.0,3.0,3.0,297.7169829991908,3.0,1.0,phase_1,,,,,,,,,,,,,magenta,diamond
70.0,1.0,1.0,0.0,3.0,3.0,341.8933150005614,3.0,1.0,phase_1,,,,,,,,,,,,,yellow,hexagon
84.0,6.0,2.0,1.0,4.0,4.0,348.2465830002184,3.0,1.0,phase_1,,,,,,,,,,,,,cyan,I
221.0,3.0,3.0,0.0,4.0,4.0,326.3147130001016,3.0,1.0,phase_1,,,,,,,,,,,,,gray,circle
0.0,5.0,0.0,1.0,2.0,2.0,286.3865439994697,3.0,1.0,phase_1,,,,,,,,,,,,,white,square
216.0,7.0,3.0,1.0,2.0,2.0,304.5638519997737,3.0,1.0,phase_1,,,,,,,,,,,,,blue,flipped triangle
404.0,4.0,4.0,0.0,4.0,4.0,299.8519529992336,3.0,1.0,phase_1,,,,,,,,,,,,,green,triangle
180.0,3.0,3.0,0.0,3.0,3.0,320.8468350003386,3.0,1.0,phase_1,,,,,,,,,,,,,gray,circle
34.0,1.0,1.0,0.0,3.0,3.0,307.6557139993383,3.0,1.0,phase_1,,,,,,,,,,,,,yellow,hexagon
190.0,7.0,3.0,1.0,3.0,3.0,312.2727030004171,3.0,1.0,phase_1,,,,,,,,,,,,,blue,flipped triangle
0.0,4.0,0.0,0.0,4.0,4.0,367.6597449994006,3.0,1.0,phase_1,,,,,,,,,,,,,green,triangle
27.0,5.0,1.0,1.0,1.0,1.0,391.502409000168,3.0,1.0,phase_1,,,,,,,,,,,,,white,square
407.0,8.0,4.0,1.0,2.0,2.0,275.0040310002077,3.0,1.0,phase_1,,,,,,,,,,,,,orange,cross
120.0,2.0,2.0,0.0,4.0,4.0,283.0035959996166,3.0,1.0,phase_1,,,,,,,,,,,,,magenta,diamond
0.0,1.0,0.0,0.0,4.0,4.0,320.6118179987243,3.0,1.0,phase_1,,,,,,,,,,,,,yellow,hexagon
0.0,6.0,0.0,1.0,4.0,4.0,381.7042750015389,3.0,1.0,phase_1,,,,,,,,,,,,,cyan,I
35.0,1.0,1.0,0.0,1.0,1.0,310.4376179999235,3.0,1.0,phase_1,,,,,,,,,,,,,yellow,hexagon
101.0,2.0,2.0,0.0,4.0,4.0,316.960502999791,3.0,1.0,phase_1,,,,,,,,,,,,,magenta,diamond
67.0,5.0,1.0,1.0,4.0,4.0,312.3740440005349,3.0,1.0,phase_1,,,,,,,,,,,,,white,square
26.0,5.0,1.0,1.0,2.0,2.0,318.7797720001981,3.0,1.0,phase_1,,,,,,,,,,,,,white,square
0.0,1.0,0.0,0.0,1.0,1.0,380.7893390003301,3.0,1.0,phase_1,,,,,,,,,,,,,yellow,hexagon
221.0,7.0,3.0,1.0,3.0,3.0,333.4474820003379,3.0,1.0,phase_1,,,,,,,,,,,,,blue,flipped triangle
206.0,3.0,3.0,0.0,1.0,1.0,326.6052749986556,3.0,1.0,phase_1,,,,,,,,,,,,,gray,circle
207.0,7.0,3.0,1.0,4.0,4.0,331.1915800004499,3.0,1.0,phase_1,,,,,,,,,,,,,blue,flipped triangle
107.0,2.0,2.0,0.0,2.0,2.0,317.083582000123,3.0,1.0,phase_1,,,,,,,,,,,,,magenta,diamond
398.0,4.0,4.0,0.0,3.0,3.0,331.2612440004159,3.0,1.0,phase_1,,,,,,,,,,,,,green,triangle
424.0,4.0,4.0,0.0,1.0,1.0,357.3437069990177,3.0,1.0,phase_1,,,,,,,,,,,,,green,triangle
182.0,7.0,3.0,1.0,1.0,1.0,360.9848539999802,3.0,1.0,phase_1,,,,,,,,,,,,,blue,flipped triangle
0.0,3.0,0.0,0.0,2.0,2.0,302.618114001234,3.0,1.0,phase_1,,,,,,,,,,,,,gray,circle
0.0,7.0,0.0,1.0,3.0,3.0,326.9757939997362,3.0,1.0,phase_1,,,,,,,,,,,,,blue,flipped triangle
0.0,8.0,0.0,1.0,1.0,1.0,361.7876530006469,3.0,1.0,phase_1,,,,,,,,,,,,,orange,cross
87.0,2.0,2.0,0.0,2.0,2.0,306.3668999984656,3.0,1.0,phase_1,,,,,,,,,,,,,magenta,diamond
50.0,5.0,1.0,1.0,3.0,3.0,330.2976159993704,3.0,1.0,phase_1,,,,,,,,,,,,,white,square
118.0,2.0,2.0,0.0,3.0,3.0,369.4781890008016,3.0,1.0,phase_1,,,,,,,,,,,,,magenta,diamond
405.0,4.0,4.0,0.0,1.0,1.0,340.589645998989,3.0,1.0,phase_1,,,,,,,,,,,,,green,triangle
221.0,3.0,3.0,0.0,2.0,2.0,302.3118239998439,3.0,1.0,phase_1,,,,,,,,,,,,,gray,circle
382.0,4.0,4.0,0.0,3.0,3.0,345.6980530008877,3.0,1.0,phase_1,,,,,,,,,,,,,green,triangle
414.0,4.0,4.0,0.0,2.0,2.0,317.3542900003667,3.0,1.0,phase_1,,,,,,,,,,,,,green,triangle
421.0,8.0,4.0,1.0,3.0,3.0,344.3561299991415,3.0,1.0,phase_1,,,,,,,,,,,,,orange,cross
90.0,2.0,2.0,0.0,2.0,2.0,276.512737998928,3.0,1.0,phase_1,,,,,,,,,,,,,magenta,diamond
216.0,3.0,3.0,0.0,1.0,1.0,350.8508619997883,3.0,1.0,phase_1,,,,,,,,,,,,,gray,circle
0.0,1.0,0.0,0.0,1.0,1.0,349.638893001611,3.0,1.0,phase_1,,,,,,,,,,,,,yellow,hexagon
44.0,1.0,1.0,0.0,3.0,3.0,311.3384499993117,3.0,1.0,phase_1,,,,,,,,,,,,,yellow,hexagon
99.0,6.0,2.0,1.0,1.0,1.0,374.1478209994966,3.0,1.0,phase_1,,,,,,,,,,,,,cyan,I
389.0,4.0,4.0,0.0,3.0,3.0,282.2820300007151,3.0,1.0,phase_1,,,,,,,,,,,,,green,triangle
56.0,5.0,1.0,1.0,4.0,4.0,281.0771760014177,3.0,1.0,phase_1,,,,,,,,,,,,,white,square
384.0,4.0,4.0,0.0,3.0,3.0,287.33765799916,3.0,1.0,phase_1,,,,,,,,,,,,,green,triangle
74.0,1.0,1.0,0.0,4.0,4.0,269.7592469994561,3.0,1.0,phase_1,,,,,,,,,,,,,yellow,hexagon
115.0,6.0,2.0,1.0,2.0,2.0,325.7767350005451,3.0,1.0,phase_1,,,,,,,,,,,,,cyan,I
0.0,8.0,0.0,1.0,1.0,1.0,340.4814899986377,3.0,1.0,phase_1,,,,,,,,,,,,,orange,cross
0.0,5.0,0.0,1.0,4.0,4.0,325.778280999657,3.0,1.0,phase_1,,,,,,,,,,,,,white,square
401.0,4.0,4.0,0.0,2.0,2.0,339.6887550006795,3.0,1.0,phase_1,,,,,,,,,,,,,green,triangle
386.0,8.0,4.0,1.0,2.0,2.0,340.0464179994742,3.0,1.0,phase_1,,,,,,,,,,,,,orange,cross
0.0,8.0,0.0,1.0,2.0,2.0,277.1948839999822,3.0,1.0,phase_1,,,,,,,,,,,,,orange,cross
190.0,3.0,3.0,0.0,4.0,4.0,339.3875019992265,3.0,1.0,phase_1,,,,,,,,,,,,,gray,circle
100.0,6.0,2.0,1.0,2.0,2.0,326.209838000068,3.0,1.0,phase_1,,,,,,,,,,,,,cyan,I
27.0,1.0,1.0,0.0,2.0,2.0,381.3619790016673,3.0,1.0,phase_1,,,,,,,,,,,,,yellow,hexagon
404.0,8.0,4.0,1.0,4.0,4.0,462.7297900005942,3.0,1.0,phase_1,,,,,,,,,,,,,orange,cross
97.0,2.0,2.0,0.0,1.0,1.0,372.4048639996908,3.0,1.0,phase_1,,,,,,,,,,,,,magenta,diamond
209.0,3.0,3.0,0.0,1.0,1.0,372.2296919986547,3.0,1.0,phase_1,,,,,,,,,,,,,gray,circle
206.0,7.0,3.0,1.0,3.0,3.0,361.9628329997795,3.0,1.0,phase_1,,,,,,,,,,,,,blue,flipped triangle
115.0,2.0,2.0,0.0,2.0,2.0,317.777266000121,3.0,1.0,phase_1,,,,,,,,,,,,,magenta,diamond
0.0,6.0,0.0,1.0,3.0,3.0,356.5793280013167,3.0,1.0,phase_1,,,,,,,,,,,,,cyan,I
53.0,1.0,1.0,0.0,3.0,3.0,342.7072470003622,3.0,1.0,phase_1,,,,,,,,,,,,,yellow,hexagon
403.0,4.0,4.0,0.0,2.0,2.0,348.7035790003574,3.0,1.0,phase_1,,,,,,,,,,,,,green,triangle
30.0,5.0,1.0,1.0,2.0,2.0,330.6716349998169,3.0,1.0,phase_1,,,,,,,,,,,,,white,square
0.0,7.0,0.0,1.0,1.0,1.0,306.4292559993191,3.0,1.0,phase_1,,,,,,,,,,,,,blue,flipped triangle
195.0,3.0,3.0,0.0,3.0,3.0,342.9554119993554,3.0,1.0,phase_1,,,,,,,,,,,,,gray,circle
0.0,6.0,0.0,1.0,2.0,2.0,299.5436559995141,3.0,1.0,phase_1,,,,,,,,,,,,,cyan,I
414.0,8.0,4.0,1.0,2.0,2.0,267.715889000101,3.0,1.0,phase_1,,,,,,,,,,,,,orange,cross
118.0,6.0,2.0,1.0,1.0,1.0,334.5924829991418,3.0,1.0,phase_1,,,,,,,,,,,,,cyan,I
32.0,5.0,1.0,1.0,2.0,2.0,318.5858349988848,3.0,1.0,phase_1,,,,,,,,,,,,,white,square
205.0,3.0,3.0,0.0,2.0,2.0,300.5441430013889,3.0,1.0,phase_1,,,,,,,,,,,,,gray,circle
0.0,2.0,0.0,0.0,2.0,2.0,282.6244269999733,3.0,1.0,phase_1,,,,,,,,,,,,,magenta,diamond
375.0,4.0,4.0,0.0,4.0,4.0,369.8229330002505,3.0,1.0,phase_1,,,,,,,,,,,,,green,triangle
405.0,8.0,4.0,1.0,3.0,3.0,323.3114009999553,3.0,1.0,phase_1,,,,,,,,,,,,,orange,cross
57.0,1.0,1.0,0.0,2.0,2.0,300.673617000939,3.0,1.0,phase_1,,,,,,,,,,,,,yellow,hexagon
27.0,1.0,1.0,0.0,2.0,2.0,274.0908020005008,3.0,1.0,phase_1,,,,,,,,,,,,,yellow,hexagon
416.0,4.0,4.0,0.0,4.0,4.0,303.6892110012559,3.0,1.0,phase_1,,,,,,,,,,,,,green,triangle
37.0,5.0,1.0,1.0,1.0,1.0,315.1529829992796,3.0,1.0,phase_1,,,,,,,,,,,,,white,square
414.0,8.0,4.0,1.0,4.0,4.0,341.5826639993611,3.0,1.0,phase_1,,,,,,,,,,,,,orange,cross
176.0,3.0,3.0,0.0,1.0,1.0,290.4223599998659,3.0,1.0,phase_1,,,,,,,,,,,,,gray,circle
376.0,8.0,4.0,1.0,3.0,3.0,350.1480579998315,3.0,1.0,phase_1,,,,,,,,,,,,,orange,cross
50.0,1.0,1.0,0.0,3.0,3.0,346.6707029983809,3.0,1.0,phase_1,,,,,,,,,,,,,yellow,hexagon
33.0,5.0,1.0,1.0,2.0,2.0,263.7734480013023,3.0,1.0,phase_1,,,,,,,,,,,,,white,square
0.0,1.0,0.0,0.0,3.0,3.0,351.6282410000713,3.0,1.0,phase_1,,,,,,,,,,,,,yellow,hexagon
384.0,8.0,4.0,1.0,4.0,4.0,372.9044119991158,3.0,1.0,phase_1,,,,,,,,,,,,,orange,cross
0.0,5.0,0.0,1.0,2.0,2.0,281.9593539989,3.0,1.0,phase_1,,,,,,,,,,,,,white,square
99.0,2.0,2.0,0.0,1.0,1.0,423.5104559993488,3.0,1.0,phase_1,,,,,,,,,,,,,magenta,diamond
215.0,3.0,3.0,0.0,4.0,4.0,406.2573580013122,3.0,1.0,phase_1,,,,,,,,,,,,,gray,circle
64.0,5.0,1.0,1.0,3.0,3.0,443.5616159989877,3.0,1.0,phase_1,,,,,,,,,,,,,white,square
377.0,4.0,4.0,0.0,1.0,1.0,321.8157030005386,3.0,1.0,phase_1,,,,,,,,,,,,,green,triangle
84.0,6.0,2.0,1.0,2.0,2.0,259.9203270001453,3.0,1.0,phase_1,,,,,,,,,,,,,cyan,I
0.0,1.0,0.0,0.0,1.0,1.0,324.3619479999324,3.0,1.0,phase_1,,,,,,,,,,,,,yellow,hexagon
207.0,3.0,3.0,0.0,4.0,4.0,350.5371310002374,3.0,1.0,phase_1,,,,,,,,,,,,,gray,circle
0.0,7.0,0.0,1.0,3.0,3.0,355.2145819994621,4.0,1.0,phase_1,,,,,,,,,,,,,blue,flipped triangle
0.0,4.0,0.0,0.0,3.0,3.0,285.538534000807,4.0,1.0,phase_1,,,,,,,,,,,,,green,triangle
199.0,7.0,3.0,1.0,2.0,2.0,268.6669649992836,4.0,1.0,phase_1,,,,,,,,,,,,,blue,flipped triangle
0.0,2.0,0.0,0.0,2.0,2.0,291.1575779999111,4.0,1.0,phase_1,,,,,,,,,,,,,magenta,diamond
220.0,3.0,3.0,0.0,2.0,2.0,288.3253870004409,4.0,1.0,phase_1,,,,,,,,,,,,,gray,circle
0.0,8.0,0.0,1.0,4.0,4.0,305.6788139983837,4.0,1.0,phase_1,,,,,,,,,,,,,orange,cross
421.0,4.0,4.0,0.0,2.0,2.0,280.6845209997846,4.0,1.0,phase_1,,,,,,,,,,,,,green,triangle
62.0,1.0,1.0,0.0,2.0,2.0,287.8587970008084,4.0,1.0,phase_1,,,,,,,,,,,,,yellow,hexagon
221.0,7.0,3.0,1.0,2.0,2.0,312.775373000477,4.0,1.0,phase_1,,,,,,,,,,,,,blue,flipped triangle
0.0,1.0,0.0,0.0,1.0,1.0,331.6267090012843,4.0,1.0,phase_1,,,,,,,,,,,,,yellow,hexagon
0.0,7.0,0.0,1.0,3.0,3.0,331.8305480006529,4.0,1.0,phase_1,,,,,,,,,,,,,blue,flipped triangle
0.0,3.0,0.0,0.0,1.0,1.0,288.3040239994443,4.0,1.0,phase_1,,,,,,,,,,,,,gray,circle
393.0,4.0,4.0,0.0,2.0,2.0,270.2984679999645,4.0,1.0,phase_1,,,,,,,,,,,,,green,triangle
78.0,2.0,2.0,0.0,3.0,3.0,344.8777080011496,4.0,1.0,phase_1,,,,,,,,,,,,,magenta,diamond
66.0,5.0,1.0,1.0,1.0,1.0,279.1194050005288,4.0,1.0,phase_1,,,,,,,,,,,,,white,square
62.0,1.0,1.0,0.0,3.0,3.0,284.5391740011109,4.0,1.0,phase_1,,,,,,,,,,,,,yellow,hexagon
55.0,1.0,1.0,0.0,2.0,2.0,272.9589209993719,4.0,1.0,phase_1,,,,,,,,,,,,,yellow,hexagon
27.0,5.0,1.0,1.0,4.0,4.0,310.1155160002236,4.0,1.0,phase_1,,,,,,,,,,,,,white,square
192.0,7.0,3.0,1.0,3.0,3.0,323.4567519994016,4.0,1.0,phase_1,,,,,,,,,,,,,blue,flipped triangle
0.0,4.0,0.0,0.0,4.0,4.0,355.6297799987078,4.0,1.0,phase_1,,,,,,,,,,,,,green,triangle
386.0,8.0,4.0,1.0,2.0,2.0,269.3548730003385,4.0,1.0,phase_1,,,,,,,,,,,,,orange,cross
423.0,4.0,4.0,0.0,3.0,3.0,332.7391800012265,4.0,1.0,phase_1,,,,,,,,,,,,,green,triangle
50.0,1.0,1.0,0.0,4.0,4.0,370.7801870004914,4.0,1.0,phase_1,,,,,,,,,,,,,yellow,hexagon
386.0,4.0,4.0,0.0,3.0,3.0,307.0167530004255,4.0,1.0,phase_1,,,,,,,,,,,,,green,triangle
0.0,8.0,0.0,1.0,1.0,1.0,324.7250689983048,4.0,1.0,phase_1,,,,,,,,,,,,,orange,cross
0.0,8.0,0.0,1.0,4.0,4.0,330.7139869993989,4.0,1.0,phase_1,,,,,,,,,,,,,orange,cross
387.0,4.0,4.0,0.0,1.0,1.0,314.3522750015108,4.0,1.0,phase_1,,,,,,,,,,,,,green,triangle
0.0,4.0,0.0,0.0,4.0,4.0,350.7465200000297,4.0,1.0,phase_1,,,,,,,,,,,,,green,triangle
0.0,8.0,0.0,1.0,3.0,3.0,347.4916239993035,4.0,1.0,phase_1,,,,,,,,,,,,,orange,cross
217.0,3.0,3.0,0.0,2.0,2.0,294.7110180011805,4.0,1.0,phase_1,,,,,,,,,,,,,gray,circle
120.0,2.0,2.0,0.0,3.0,3.0,352.4463289995765,4.0,1.0,phase_1,,,,,,,,,,,,,magenta,diamond
35.0,5.0,1.0,1.0,3.0,3.0,315.0619979987823,4.0,1.0,phase_1,,,,,,,,,,,,,white,square
393.0,8.0,4.0,1.0,1.0,1.0,428.9423999998689,4.0,1.0,phase_1,,,,,,,,,,,,,orange,cross
383.0,8.0,4.0,1.0,4.0,4.0,329.8384080007963,4.0,1.0,phase_1,,,,,,,,,,,,,orange,cross
383.0,4.0,4.0,0.0,3.0,3.0,346.546976999889,4.0,1.0,phase_1,,,,,,,,,,,,,green,triangle
421.0,8.0,4.0,1.0,1.0,1.0,431.5611559995886,4.0,1.0,phase_1,,,,,,,,,,,,,orange,cross
384.0,8.0,4.0,1.0,1.0,1.0,321.5058909991057,4.0,1.0,phase_1,,,,,,,,,,,,,orange,cross
0.0,8.0,0.0,1.0,1.0,1.0,354.9533460009115,4.0,1.0,phase_1,,,,,,,,,,,,,orange,cross
74.0,5.0,1.0,1.0,3.0,3.0,357.4514840001939,4.0,1.0,phase_1,,,,,,,,,,,,,white,square
0.0,4.0,0.0,0.0,2.0,2.0,289.66674999901437,4.0,1.0,phase_1,,,,,,,,,,,,,green,triangle
0.0,4.0,0.0,0.0,2.0,2.0,349.1717919987422,4.0,1.0,phase_1,,,,,,,,,,,,,green,triangle
424.0,4.0,4.0,0.0,4.0,4.0,358.6390839991509,4.0,1.0,phase_1,,,,,,,,,,,,,green,triangle
0.0,7.0,0.0,1.0,1.0,1.0,343.6299549994146,4.0,1.0,phase_1,,,,,,,,,,,,,blue,flipped triangle
393.0,4.0,4.0,0.0,2.0,2.0,372.8924580009334,4.0,1.0,phase_1,,,,,,,,,,,,,green,triangle
44.0,1.0,1.0,0.0,1.0,1.0,340.7017379995523,4.0,1.0,phase_1,,,,,,,,,,,,,yellow,hexagon
118.0,6.0,2.0,1.0,3.0,3.0,396.3934479997988,4.0,1.0,phase_1,,,,,,,,,,,,,cyan,I
180.0,7.0,3.0,1.0,4.0,4.0,422.4382200009131,4.0,1.0,phase_1,,,,,,,,,,,,,blue,flipped triangle
53.0,1.0,1.0,0.0,4.0,4.0,345.9474199989927,4.0,1.0,phase_1,,,,,,,,,,,,,yellow,hexagon
188.0,7.0,3.0,1.0,1.0,1.0,331.2760530006926,4.0,1.0,phase_1,,,,,,,,,,,,,blue,flipped triangle
66.0,5.0,1.0,1.0,3.0,3.0,340.7507119991351,4.0,1.0,phase_1,,,,,,,,,,,,,white,square
0.0,4.0,0.0,0.0,2.0,2.0,254.8632500001986,4.0,1.0,phase_1,,,,,,,,,,,,,green,triangle
0.0,7.0,0.0,1.0,3.0,3.0,318.373750000319,4.0,1.0,phase_1,,,,,,,,,,,,,blue,flipped triangle
423.0,8.0,4.0,1.0,3.0,3.0,393.8762470006622,4.0,1.0,phase_1,,,,,,,,,,,,,orange,cross
393.0,8.0,4.0,1.0,2.0,2.0,282.5118430009752,4.0,1.0,phase_1,,,,,,,,,,,,,orange,cross
78.0,6.0,2.0,1.0,3.0,3.0,344.7500919992308,4.0,1.0,phase_1,,,,,,,,,,,,,cyan,I
424.0,8.0,4.0,1.0,3.0,3.0,351.3225959995907,4.0,1.0,phase_1,,,,,,,,,,,,,orange,cross
57.0,5.0,1.0,1.0,2.0,2.0,361.5237550002348,4.0,1.0,phase_1,,,,,,,,,,,,,white,square
27.0,5.0,1.0,1.0,3.0,3.0,301.8487130011635,4.0,1.0,phase_1,,,,,,,,,,,,,white,square
222.0,7.0,3.0,1.0,1.0,1.0,310.1185729992721,4.0,1.0,phase_1,,,,,,,,,,,,,blue,flipped triangle
44.0,5.0,1.0,1.0,1.0,1.0,332.9538309990312,4.0,1.0,phase_1,,,,,,,,,,,,,white,square
106.0,6.0,2.0,1.0,2.0,2.0,288.1680430000415,4.0,1.0,phase_1,,,,,,,,,,,,,cyan,I
87.0,6.0,2.0,1.0,3.0,3.0,337.5732819986297,4.0,1.0,phase_1,,,,,,,,,,,,,cyan,I
61.0,1.0,1.0,0.0,3.0,3.0,363.4472909998294,4.0,1.0,phase_1,,,,,,,,,,,,,yellow,hexagon
200.0,3.0,3.0,0.0,4.0,4.0,349.2203879995941,4.0,1.0,phase_1,,,,,,,,,,,,,gray,circle
190.0,3.0,3.0,0.0,4.0,4.0,337.822101000711,4.0,1.0,phase_1,,,,,,,,,,,,,gray,circle
101.0,6.0,2.0,1.0,4.0,4.0,313.3084839992079,4.0,1.0,phase_1,,,,,,,,,,,,,cyan,I
210.0,7.0,3.0,1.0,2.0,2.0,308.2948510000278,4.0,1.0,phase_1,,,,,,,,,,,,,blue,flipped triangle
424.0,8.0,4.0,1.0,4.0,4.0,312.939395000285,4.0,1.0,phase_1,,,,,,,,,,,,,orange,cross
217.0,3.0,3.0,0.0,4.0,4.0,337.0526140006404,4.0,1.0,phase_1,,,,,,,,,,,,,gray,circle
44.0,5.0,1.0,1.0,3.0,3.0,298.902767999607,4.0,1.0,phase_1,,,,,,,,,,,,,white,square
83.0,6.0,2.0,1.0,1.0,1.0,372.2352129989303,4.0,1.0,phase_1,,,,,,,,,,,,,cyan,I
0.0,4.0,0.0,0.0,1.0,1.0,342.6600709990453,4.0,1.0,phase_1,,,,,,,,,,,,,green,triangle
401.0,8.0,4.0,1.0,3.0,3.0,335.2043840004626,4.0,1.0,phase_1,,,,,,,,,,,,,orange,cross
26.0,1.0,1.0,0.0,4.0,4.0,479.8667110007955,4.0,1.0,phase_1,,,,,,,,,,,,,yellow,hexagon
33.0,5.0,1.0,1.0,2.0,2.0,340.0576419990102,4.0,1.0,phase_1,,,,,,,,,,,,,white,square
393.0,4.0,4.0,0.0,2.0,2.0,331.8578580001485,4.0,1.0,phase_1,,,,,,,,,,,,,green,triangle
0.0,2.0,0.0,0.0,4.0,4.0,322.2009049986809,4.0,1.0,phase_1,,,,,,,,,,,,,magenta,diamond
183.0,3.0,3.0,0.0,3.0,3.0,364.9185520007449,4.0,1.0,phase_1,,,,,,,,,,,,,gray,circle
0.0,7.0,0.0,1.0,1.0,1.0,346.7364879998058,4.0,1.0,phase_1,,,,,,,,,,,,,blue,flipped triangle
0.0,6.0,0.0,1.0,3.0,3.0,329.6122110004944,4.0,1.0,phase_1,,,,,,,,,,,,,cyan,I
0.0,1.0,0.0,0.0,3.0,3.0,366.2838039999769,4.0,1.0,phase_1,,,,,,,,,,,,,yellow,hexagon
119.0,6.0,2.0,1.0,1.0,1.0,353.8126090006699,4.0,1.0,phase_1,,,,,,,,,,,,,cyan,I
0.0,2.0,0.0,0.0,3.0,3.0,342.9043280011683,4.0,1.0,phase_1,,,,,,,,,,,,,magenta,diamond
91.0,6.0,2.0,1.0,2.0,2.0,285.5587960002594,4.0,1.0,phase_1,,,,,,,,,,,,,cyan,I
119.0,2.0,2.0,0.0,3.0,3.0,298.1294649998744,4.0,1.0,phase_1,,,,,,,,,,,,,magenta,diamond
187.0,3.0,3.0,0.0,3.0,3.0,286.3828919998923,4.0,1.0,phase_1,,,,,,,,,,,,,gray,circle
71.0,5.0,1.0,1.0,2.0,2.0,286.2870730004943,4.0,1.0,phase_1,,,,,,,,,,,,,white,square
83.0,2.0,2.0,0.0,3.0,3.0,275.3732900000614,4.0,1.0,phase_1,,,,,,,,,,,,,magenta,diamond
84.0,2.0,2.0,0.0,2.0,2.0,263.7411199993948,4.0,1.0,phase_1,,,,,,,,,,,,,magenta,diamond
34.0,5.0,1.0,1.0,1.0,1.0,360.7212980004988,4.0,1.0,phase_1,,,,,,,,,,,,,white,square
51.0,5.0,1.0,1.0,2.0,2.0,303.3023830012098,4.0,1.0,phase_1,,,,,,,,,,,,,white,square
124.0,6.0,2.0,1.0,3.0,3.0,316.2449060000654,4.0,1.0,phase_1,,,,,,,,,,,,,cyan,I
193.0,7.0,3.0,1.0,3.0,3.0,324.3552170006296,4.0,1.0,phase_1,,,,,,,,,,,,,blue,flipped triangle
57.0,1.0,1.0,0.0,2.0,2.0,284.1426160011906,4.0,1.0,phase_1,,,,,,,,,,,,,yellow,hexagon
381.0,4.0,4.0,0.0,3.0,3.0,339.1654429997288,4.0,1.0,phase_1,,,,,,,,,,,,,green,triangle
0.0,5.0,0.0,1.0,2.0,2.0,274.964172998807,4.0,1.0,phase_1,,,,,,,,,,,,,white,square
404.0,8.0,4.0,1.0,1.0,1.0,270.5361669995909,4.0,1.0,phase_1,,,,,,,,,,,,,orange,cross
397.0,4.0,4.0,0.0,2.0,2.0,319.997003998651,4.0,1.0,phase_1,,,,,,,,,,,,,green,triangle
181.0,7.0,3.0,1.0,1.0,1.0,371.3680540004134,4.0,1.0,phase_1,,,,,,,,,,,,,blue,flipped triangle
85.0,2.0,2.0,0.0,4.0,4.0,349.7068280012172,4.0,1.0,phase_1,,,,,,,,,,,,,magenta,diamond
0.0,5.0,1.0,1.0,6.0,6.0,429.9275940011284,1.0,1.0,phase_2,stop,250.0,250.0,3.0,,,,,,,,,white,square
0.0,8.0,4.0,1.0,6.0,6.0,398.7687449989607,1.0,1.0,phase_2,stop,250.0,200.0,3.0,,,,,,,,,orange,cross
0.0,4.0,4.0,0.0,5.0,5.0,491.5079340007651,1.0,1.0,phase_2,go,250.0,150.0,1.0,,,,,,,,,green,triangle
0.0,8.0,4.0,1.0,5.0,0.0,0.0,1.0,1.0,phase_2,stop,250.0,150.0,4.0,,,,,,,,,orange,cross
0.0,4.0,4.0,0.0,5.0,5.0,685.9518640012539,1.0,1.0,phase_2,go,300.0,150.0,1.0,,,,,,,,,green,triangle
0.0,5.0,1.0,1.0,5.0,5.0,590.3853769996203,1.0,1.0,phase_2,go,300.0,150.0,1.0,,,,,,,,,white,square
0.0,2.0,2.0,0.0,6.0,6.0,446.748229998775,1.0,1.0,phase_2,go,300.0,150.0,1.0,,,,,,,,,magenta,diamond
0.0,2.0,2.0,0.0,5.0,5.0,443.7537040012103,1.0,1.0,phase_2,go,300.0,150.0,1.0,,,,,,,,,magenta,diamond
0.0,5.0,1.0,1.0,5.0,5.0,317.583990001367,1.0,1.0,phase_2,go,300.0,150.0,1.0,,,,,,,,,white,square
0.0,6.0,2.0,1.0,5.0,0.0,0.0,1.0,1.0,phase_2,stop,300.0,150.0,4.0,,,,,,,,,cyan,I
0.0,3.0,3.0,0.0,6.0,6.0,580.7285179998871,1.0,1.0,phase_2,go,350.0,150.0,1.0,,,,,,,,,gray,circle
0.0,2.0,2.0,0.0,5.0,5.0,442.7798179985984,1.0,1.0,phase_2,go,350.0,150.0,1.0,,,,,,,,,magenta,diamond
0.0,6.0,2.0,1.0,6.0,0.0,0.0,1.0,1.0,phase_2,stop,350.0,150.0,4.0,,,,,,,,,cyan,I
0.0,7.0,3.0,1.0,6.0,0.0,0.0,1.0,1.0,phase_2,stop,350.0,200.0,4.0,,,,,,,,,blue,flipped triangle
0.0,3.0,3.0,0.0,5.0,5.0,492.6861730000382,1.0,1.0,phase_2,go,350.0,250.0,1.0,,,,,,,,,gray,circle
0.0,6.0,2.0,1.0,5.0,5.0,469.7427290011546,1.0,1.0,phase_2,stop,350.0,250.0,3.0,,,,,,,,,cyan,I
0.0,2.0,2.0,0.0,6.0,6.0,557.7370730006805,1.0,1.0,phase_2,go,300.0,250.0,1.0,,,,,,,,,magenta,diamond
0.0,5.0,1.0,1.0,5.0,0.0,0.0,1.0,1.0,phase_2,stop,300.0,250.0,4.0,,,,,,,,,white,square
0.0,4.0,4.0,0.0,6.0,6.0,555.7732359993679,1.0,1.0,phase_2,go,350.0,250.0,1.0,,,,,,,,,green,triangle
0.0,7.0,3.0,1.0,6.0,0.0,0.0,1.0,1.0,phase_2,stop,350.0,250.0,4.0,,,,,,,,,blue,flipped triangle
0.0,7.0,3.0,1.0,5.0,5.0,583.5640240002249,1.0,1.0,phase_2,go,350.0,300.0,1.0,,,,,,,,,blue,flipped triangle
0.0,7.0,3.0,1.0,5.0,5.0,578.6828829986916,1.0,1.0,phase_2,go,350.0,300.0,1.0,,,,,,,,,blue,flipped triangle
0.0,6.0,2.0,1.0,6.0,0.0,0.0,1.0,1.0,phase_2,stop,350.0,300.0,4.0,,,,,,,,,cyan,I
0.0,3.0,3.0,0.0,6.0,6.0,469.3379349992028,1.0,1.0,phase_2,go,350.0,350.0,1.0,,,,,,,,,gray,circle
0.0,5.0,1.0,1.0,6.0,0.0,0.0,1.0,1.0,phase_2,stop,350.0,350.0,4.0,,,,,,,,,white,square
0.0,8.0,4.0,1.0,5.0,5.0,575.5909630006499,1.0,1.0,phase_2,go,350.0,400.0,1.0,,,,,,,,,orange,cross
0.0,2.0,2.0,0.0,6.0,6.0,431.9693699999334,1.0,1.0,phase_2,go,350.0,400.0,1.0,,,,,,,,,magenta,diamond
0.0,6.0,2.0,1.0,6.0,0.0,0.0,1.0,1.0,phase_2,stop,350.0,400.0,4.0,,,,,,,,,cyan,I
0.0,8.0,4.0,1.0,6.0,6.0,608.2561009989149,1.0,1.0,phase_2,stop,350.0,450.0,3.0,,,,,,,,,orange,cross
0.0,2.0,2.0,0.0,5.0,5.0,591.0718619998079,1.0,1.0,phase_2,go,350.0,400.0,1.0,,,,,,,,,magenta,diamond
0.0,5.0,1.0,1.0,6.0,6.0,477.5397409994184,1.0,1.0,phase_2,go,350.0,400.0,1.0,,,,,,,,,white,square
0.0,5.0,1.0,1.0,5.0,5.0,453.5362309998163,1.0,1.0,phase_2,stop,350.0,400.0,3.0,,,,,,,,,white,square
0.0,4.0,4.0,0.0,6.0,6.0,612.3664839997218,1.0,1.0,phase_2,go,300.0,400.0,1.0,,,,,,,,,green,triangle
0.0,5.0,1.0,1.0,5.0,0.0,0.0,1.0,1.0,phase_2,stop,300.0,400.0,4.0,,,,,,,,,white,square
0.0,5.0,1.0,1.0,6.0,0.0,0.0,1.0,1.0,phase_2,stop,350.0,400.0,4.0,,,,,,,,,white,square
0.0,1.0,1.0,0.0,5.0,5.0,496.5860699994664,1.0,1.0,phase_2,go,350.0,450.0,1.0,,,,,,,,,yellow,hexagon
0.0,4.0,4.0,0.0,5.0,5.0,829.3950389997917,2.0,1.0,phase_2,go,350.0,450.0,1.0,,,,,,,,,green,triangle
0.0,6.0,2.0,1.0,5.0,5.0,388.8879799997085,2.0,1.0,phase_2,stop,350.0,450.0,3.0,,,,,,,,,cyan,I
0.0,5.0,1.0,1.0,5.0,0.0,0.0,2.0,1.0,phase_2,stop,300.0,450.0,4.0,,,,,,,,,white,square
0.0,1.0,1.0,0.0,5.0,5.0,479.7153279996564,2.0,1.0,phase_2,go,350.0,450.0,1.0,,,,,,,,,yellow,hexagon
0.0,6.0,2.0,1.0,6.0,6.0,494.9620370007324,2.0,1.0,phase_2,go,350.0,450.0,1.0,,,,,,,,,cyan,I
0.0,6.0,2.0,1.0,5.0,5.0,464.2708760002279,2.0,1.0,phase_2,stop,350.0,450.0,3.0,,,,,,,,,cyan,I
0.0,2.0,2.0,0.0,6.0,6.0,328.1821359996684,2.0,1.0,phase_2,go,300.0,450.0,1.0,,,,,,,,,magenta,diamond
0.0,6.0,2.0,1.0,6.0,6.0,483.1642429999192,2.0,1.0,phase_2,stop,300.0,450.0,3.0,,,,,,,,,cyan,I
0.0,3.0,3.0,0.0,5.0,5.0,703.3292110008915,2.0,1.0,phase_2,go,300.0,400.0,1.0,,,,,,,,,gray,circle
0.0,4.0,4.0,0.0,6.0,6.0,659.234455000842,2.0,1.0,phase_2,go,300.0,400.0,1.0,,,,,,,,,green,triangle
0.0,4.0,4.0,0.0,5.0,5.0,648.844471999837,2.0,1.0,phase_2,go,300.0,400.0,1.0,,,,,,,,,green,triangle
0.0,3.0,3.0,0.0,5.0,5.0,655.9067660000437,2.0,1.0,phase_2,go,300.0,400.0,1.0,,,,,,,,,gray,circle
0.0,1.0,1.0,0.0,5.0,5.0,552.6531230007095,2.0,1.0,phase_2,go,300.0,400.0,1.0,,,,,,,,,yellow,hexagon
0.0,6.0,2.0,1.0,5.0,5.0,606.8261509990407,2.0,1.0,phase_2,go,300.0,400.0,1.0,,,,,,,,,cyan,I
0.0,3.0,3.0,0.0,6.0,6.0,427.8597590000572,2.0,1.0,phase_2,go,300.0,400.0,1.0,,,,,,,,,gray,circle
0.0,3.0,3.0,0.0,5.0,5.0,474.7947590003605,2.0,1.0,phase_2,go,300.0,400.0,1.0,,,,,,,,,gray,circle
0.0,4.0,4.0,0.0,6.0,6.0,380.3557449991785,2.0,1.0,phase_2,go,300.0,400.0,1.0,,,,,,,,,green,triangle
0.0,8.0,4.0,1.0,6.0,0.0,0.0,2.0,1.0,phase_2,stop,300.0,400.0,4.0,,,,,,,,,orange,cross
0.0,4.0,4.0,0.0,5.0,5.0,564.1595900015091,2.0,1.0,phase_2,go,300.0,450.0,1.0,,,,,,,,,green,triangle
0.0,8.0,4.0,1.0,5.0,5.0,554.3203369998082,2.0,1.0,phase_2,go,300.0,450.0,1.0,,,,,,,,,orange,cross
0.0,1.0,1.0,0.0,6.0,6.0,491.6064689987252,2.0,1.0,phase_2,go,300.0,450.0,1.0,,,,,,,,,yellow,hexagon
0.0,1.0,1.0,0.0,6.0,6.0,599.0452919995732,2.0,1.0,phase_2,go,300.0,450.0,1.0,,,,,,,,,yellow,hexagon
0.0,8.0,4.0,1.0,5.0,5.0,482.0417629998701,2.0,1.0,phase_2,stop,300.0,450.0,3.0,,,,,,,,,orange,cross
0.0,3.0,3.0,0.0,6.0,6.0,598.1486929995299,2.0,1.0,phase_2,go,250.0,450.0,1.0,,,,,,,,,gray,circle
0.0,3.0,3.0,0.0,6.0,6.0,521.0829280003964,2.0,1.0,phase_2,go,250.0,450.0,1.0,,,,,,,,,gray,circle
0.0,6.0,2.0,1.0,6.0,6.0,608.5157000015897,2.0,1.0,phase_2,stop,250.0,450.0,3.0,,,,,,,,,cyan,I
0.0,8.0,4.0,1.0,6.0,0.0,0.0,2.0,1.0,phase_2,stop,250.0,400.0,4.0,,,,,,,,,orange,cross
0.0,4.0,4.0,0.0,5.0,5.0,740.7168109984923,2.0,1.0,phase_2,go,250.0,450.0,1.0,,,,,,,,,green,triangle
0.0,1.0,1.0,0.0,5.0,5.0,473.4290709984634,2.0,1.0,phase_2,go,250.0,450.0,1.0,,,,,,,,,yellow,hexagon
0.0,6.0,2.0,1.0,6.0,6.0,529.6152619994245,2.0,1.0,phase_2,stop,250.0,450.0,3.0,,,,,,,,,cyan,I
0.0,6.0,2.0,1.0,6.0,0.0,0.0,2.0,1.0,phase_2,stop,250.0,400.0,4.0,,,,,,,,,cyan,I
0.0,1.0,1.0,0.0,6.0,6.0,689.9645609992149,2.0,1.0,phase_2,go,250.0,450.0,1.0,,,,,,,,,yellow,hexagon
0.0,2.0,2.0,0.0,6.0,6.0,545.9010989998205,2.0,1.0,phase_2,go,250.0,450.0,1.0,,,,,,,,,magenta,diamond
0.0,5.0,1.0,1.0,6.0,0.0,0.0,2.0,1.0,phase_2,stop,250.0,450.0,4.0,,,,,,,,,white,square
0.0,2.0,2.0,0.0,5.0,5.0,698.6215629985963,2.0,1.0,phase_2,go,250.0,500.0,1.0,,,,,,,,,magenta,diamond
0.0,2.0,2.0,0.0,6.0,6.0,417.5113789988245,2.0,1.0,phase_2,go,250.0,500.0,1.0,,,,,,,,,magenta,diamond
0.0,6.0,2.0,1.0,5.0,5.0,547.0364530010556,3.0,1.0,phase_2,go,250.0,500.0,1.0,,,,,,,,,cyan,I
0.0,3.0,3.0,0.0,5.0,5.0,532.4301429991465,3.0,1.0,phase_2,go,250.0,500.0,1.0,,,,,,,,,gray,circle
0.0,3.0,3.0,0.0,5.0,5.0,439.1267680002784,3.0,1.0,phase_2,go,250.0,500.0,1.0,,,,,,,,,gray,circle
0.0,2.0,2.0,0.0,6.0,6.0,479.590785000255,3.0,1.0,phase_2,go,250.0,500.0,1.0,,,,,,,,,magenta,diamond
0.0,8.0,4.0,1.0,6.0,6.0,459.379046000322,3.0,1.0,phase_2,go,250.0,500.0,1.0,,,,,,,,,orange,cross
0.0,1.0,1.0,0.0,6.0,6.0,566.5073700001813,3.0,1.0,phase_2,go,250.0,500.0,1.0,,,,,,,,,yellow,hexagon
0.0,1.0,1.0,0.0,6.0,6.0,646.4414300007775,3.0,1.0,phase_2,go,250.0,500.0,1.0,,,,,,,,,yellow,hexagon
0.0,5.0,1.0,1.0,5.0,0.0,0.0,3.0,1.0,phase_2,stop,250.0,500.0,4.0,,,,,,,,,white,square
0.0,2.0,2.0,0.0,6.0,6.0,612.445825998293,3.0,1.0,phase_2,go,300.0,500.0,1.0,,,,,,,,,magenta,diamond
0.0,3.0,3.0,0.0,6.0,6.0,650.9341170003609,3.0,1.0,phase_2,go,300.0,500.0,1.0,,,,,,,,,gray,circle
0.0,2.0,2.0,0.0,5.0,5.0,393.3389779995195,3.0,1.0,phase_2,go,300.0,500.0,1.0,,,,,,,,,magenta,diamond
0.0,3.0,3.0,0.0,5.0,5.0,555.8325909987616,3.0,1.0,phase_2,go,300.0,500.0,1.0,,,,,,,,,gray,circle
0.0,1.0,1.0,0.0,6.0,6.0,469.7491110000555,3.0,1.0,phase_2,go,300.0,500.0,1.0,,,,,,,,,yellow,hexagon
0.0,4.0,4.0,0.0,5.0,5.0,553.0830000006972,3.0,1.0,phase_2,go,300.0,500.0,1.0,,,,,,,,,green,triangle
0.0,6.0,2.0,1.0,5.0,0.0,0.0,3.0,1.0,phase_2,stop,300.0,500.0,4.0,,,,,,,,,cyan,I
0.0,1.0,1.0,0.0,5.0,5.0,662.1978919993126,3.0,1.0,phase_2,go,350.0,500.0,1.0,,,,,,,,,yellow,hexagon
0.0,3.0,3.0,0.0,5.0,5.0,486.1924919987359,3.0,1.0,phase_2,go,350.0,500.0,1.0,,,,,,,,,gray,circle
0.0,7.0,3.0,1.0,6.0,6.0,538.3479950014589,3.0,1.0,phase_2,stop,350.0,500.0,3.0,,,,,,,,,blue,flipped triangle
0.0,5.0,1.0,1.0,5.0,0.0,0.0,3.0,1.0,phase_2,stop,350.0,450.0,4.0,,,,,,,,,white,square
0.0,1.0,1.0,0.0,6.0,6.0,588.9401050008019,3.0,1.0,phase_2,go,400.0,450.0,1.0,,,,,,,,,yellow,hexagon
0.0,4.0,4.0,0.0,6.0,6.0,724.4020190009905,3.0,1.0,phase_2,go,400.0,450.0,1.0,,,,,,,,,green,triangle
0.0,3.0,3.0,0.0,6.0,6.0,667.695520000052,3.0,1.0,phase_2,go,400.0,450.0,1.0,,,,,,,,,gray,circle
0.0,4.0,4.0,0.0,5.0,5.0,564.5854609992966,3.0,1.0,phase_2,go,400.0,450.0,1.0,,,,,,,,,green,triangle
0.0,3.0,3.0,0.0,6.0,6.0,417.5835940004617,3.0,1.0,phase_2,go,400.0,450.0,1.0,,,,,,,,,gray,circle
0.0,8.0,4.0,1.0,6.0,6.0,516.0644530005811,3.0,1.0,phase_2,go,400.0,450.0,1.0,,,,,,,,,orange,cross
0.0,7.0,3.0,1.0,6.0,6.0,482.1106580002379,3.0,1.0,phase_2,stop,400.0,450.0,3.0,,,,,,,,,blue,flipped triangle
0.0,8.0,4.0,1.0,5.0,5.0,526.4896580010827,3.0,1.0,phase_2,stop,400.0,400.0,3.0,,,,,,,,,orange,cross
0.0,1.0,1.0,0.0,6.0,6.0,617.6331199985725,3.0,1.0,phase_2,go,350.0,400.0,1.0,,,,,,,,,yellow,hexagon
0.0,6.0,2.0,1.0,5.0,0.0,0.0,3.0,1.0,phase_2,stop,350.0,400.0,4.0,,,,,,,,,cyan,I
0.0,3.0,3.0,0.0,5.0,5.0,646.555631999945,3.0,1.0,phase_2,go,400.0,400.0,1.0,,,,,,,,,gray,circle
0.0,4.0,4.0,0.0,5.0,5.0,589.1068479995738,3.0,1.0,phase_2,go,400.0,400.0,1.0,,,,,,,,,green,triangle
0.0,4.0,4.0,0.0,6.0,6.0,632.4740320014826,3.0,1.0,phase_2,go,400.0,400.0,1.0,,,,,,,,,green,triangle
0.0,8.0,4.0,1.0,5.0,5.0,600.6472440003563,3.0,1.0,phase_2,stop,400.0,400.0,3.0,,,,,,,,,orange,cross
0.0,3.0,3.0,0.0,5.0,5.0,557.6044709996495,3.0,1.0,phase_2,go,350.0,400.0,1.0,,,,,,,,,gray,circle
0.0,1.0,1.0,0.0,6.0,6.0,315.9170849994552,3.0,1.0,phase_2,go,350.0,400.0,1.0,,,,,,,,,yellow,hexagon
0.0,7.0,3.0,1.0,5.0,0.0,0.0,3.0,1.0,phase_2,stop,350.0,400.0,4.0,,,,,,,,,blue,flipped triangle
0.0,2.0,2.0,0.0,5.0,5.0,869.5592250005575,4.0,1.0,phase_2,go,400.0,400.0,1.0,,,,,,,,,magenta,diamond
0.0,6.0,2.0,1.0,5.0,0.0,0.0,4.0,1.0,phase_2,stop,400.0,400.0,4.0,,,,,,,,,cyan,I
0.0,1.0,1.0,0.0,5.0,5.0,630.3294169993023,4.0,1.0,phase_2,go,450.0,400.0,1.0,,,,,,,,,yellow,hexagon
0.0,1.0,1.0,0.0,6.0,6.0,608.6634439998306,4.0,1.0,phase_2,go,450.0,400.0,1.0,,,,,,,,,yellow,hexagon
0.0,6.0,2.0,1.0,6.0,0.0,0.0,4.0,1.0,phase_2,stop,450.0,400.0,4.0,,,,,,,,,cyan,I
0.0,5.0,1.0,1.0,6.0,6.0,623.6985129999084,4.0,1.0,phase_2,go,450.0,450.0,1.0,,,,,,,,,white,square
0.0,8.0,4.0,1.0,6.0,0.0,0.0,4.0,1.0,phase_2,stop,450.0,450.0,4.0,,,,,,,,,orange,cross
0.0,3.0,3.0,0.0,5.0,5.0,605.3667389987822,4.0,1.0,phase_2,go,450.0,500.0,1.0,,,,,,,,,gray,circle
0.0,5.0,1.0,1.0,5.0,5.0,569.5171409988689,4.0,1.0,phase_2,stop,450.0,500.0,3.0,,,,,,,,,white,square
0.0,4.0,4.0,0.0,6.0,6.0,653.1937049985572,4.0,1.0,phase_2,go,400.0,500.0,1.0,,,,,,,,,green,triangle
0.0,8.0,4.0,1.0,6.0,0.0,0.0,4.0,1.0,phase_2,stop,400.0,500.0,4.0,,,,,,,,,orange,cross
0.0,7.0,3.0,1.0,6.0,6.0,720.943914999225,4.0,1.0,phase_2,stop,400.0,550.0,3.0,,,,,,,,,blue,flipped triangle
0.0,1.0,1.0,0.0,6.0,6.0,664.8156860010204,4.0,1.0,phase_2,go,400.0,500.0,1.0,,,,,,,,,yellow,hexagon
0.0,2.0,2.0,0.0,6.0,6.0,788.7071090008249,4.0,1.0,phase_2,go,400.0,500.0,1.0,,,,,,,,,magenta,diamond
0.0,2.0,2.0,0.0,5.0,5.0,639.2116799997893,4.0,1.0,phase_2,go,400.0,500.0,1.0,,,,,,,,,magenta,diamond
0.0,6.0,2.0,1.0,5.0,0.0,0.0,4.0,1.0,phase_2,stop,400.0,500.0,4.0,,,,,,,,,cyan,I
0.0,6.0,2.0,1.0,5.0,5.0,587.8647670015198,4.0,1.0,phase_2,go,450.0,500.0,1.0,,,,,,,,,cyan,I
0.0,4.0,4.0,0.0,5.0,5.0,566.8886250005016,4.0,1.0,phase_2,go,450.0,500.0,1.0,,,,,,,,,green,triangle
0.0,7.0,3.0,1.0,5.0,5.0,639.0364649996627,4.0,1.0,phase_2,go,450.0,500.0,1.0,,,,,,,,,blue,flipped triangle
0.0,8.0,4.0,1.0,6.0,6.0,693.6986620003154,4.0,1.0,phase_2,stop,450.0,500.0,3.0,,,,,,,,,orange,cross
0.0,4.0,4.0,0.0,5.0,5.0,500.65508899933775,4.0,1.0,phase_2,go,450.0,450.0,1.0,,,,,,,,,green,triangle
0.0,8.0,4.0,1.0,6.0,6.0,674.1316959996766,4.0,1.0,phase_2,go,450.0,450.0,1.0,,,,,,,,,orange,cross
0.0,7.0,3.0,1.0,5.0,0.0,0.0,4.0,1.0,phase_2,stop,450.0,450.0,4.0,,,,,,,,,blue,flipped triangle
0.0,2.0,2.0,0.0,5.0,5.0,644.4184880001558,4.0,1.0,phase_2,go,500.0,450.0,1.0,,,,,,,,,magenta,diamond
0.0,2.0,2.0,0.0,5.0,5.0,606.9876370002021,4.0,1.0,phase_2,go,500.0,450.0,1.0,,,,,,,,,magenta,diamond
0.0,7.0,3.0,1.0,5.0,5.0,497.1129210007348,4.0,1.0,phase_2,stop,500.0,450.0,3.0,,,,,,,,,blue,flipped triangle
0.0,2.0,2.0,0.0,5.0,5.0,514.6160749991395,4.0,1.0,phase_2,go,450.0,450.0,1.0,,,,,,,,,magenta,diamond
0.0,5.0,1.0,1.0,5.0,0.0,0.0,4.0,1.0,phase_2,stop,450.0,450.0,4.0,,,,,,,,,white,square
0.0,7.0,3.0,1.0,6.0,0.0,0.0,4.0,1.0,phase_2,stop,500.0,450.0,4.0,,,,,,,,,blue,flipped triangle
0.0,4.0,4.0,0.0,6.0,6.0,632.2780059999786,4.0,1.0,phase_2,go,500.0,500.0,1.0,,,,,,,,,green,triangle
0.0,5.0,1.0,1.0,5.0,5.0,278.9789799990103,4.0,1.0,phase_2,stop,500.0,500.0,3.0,,,,,,,,,white,square
0.0,7.0,3.0,1.0,6.0,6.0,500.8380280014535,4.0,1.0,phase_2,go,450.0,500.0,1.0,,,,,,,,,blue,flipped triangle
0.0,5.0,1.0,1.0,6.0,6.0,623.5278860003746,4.0,1.0,phase_2,go,450.0,500.0,1.0,,,,,,,,,white,square
0.0,7.0,3.0,1.0,5.0,5.0,629.5091769989085,4.0,1.0,phase_2,go,450.0,500.0,1.0,,,,,,,,,blue,flipped triangle
0.0,2.0,2.0,0.0,6.0,6.0,489.142067001012,4.0,1.0,phase_2,go,450.0,500.0,1.0,,,,,,,,,magenta,diamond
0.0,5.0,1.0,1.0,6.0,6.0,590.09312300077,4.0,1.0,phase_2,stop,450.0,500.0,3.0,,,,,,,,,white,square
0.0,6.0,2.0,1.0,6.0,6.0,530.5528130011226,5.0,1.0,phase_2,stop,450.0,450.0,3.0,,,,,,,,,cyan,I
0.0,7.0,3.0,1.0,5.0,5.0,431.5696300000127,5.0,1.0,phase_2,stop,450.0,400.0,3.0,,,,,,,,,blue,flipped triangle
0.0,3.0,3.0,0.0,6.0,6.0,511.8751390000398,5.0,1.0,phase_2,go,400.0,400.0,1.0,,,,,,,,,gray,circle
0.0,8.0,4.0,1.0,5.0,5.0,475.7621749995451,5.0,1.0,phase_2,stop,400.0,400.0,3.0,,,,,,,,,orange,cross
0.0,4.0,4.0,0.0,5.0,5.0,628.3935560004466,5.0,1.0,phase_2,go,350.0,400.0,1.0,,,,,,,,,green,triangle
0.0,2.0,2.0,0.0,5.0,5.0,521.851190000234,5.0,1.0,phase_2,go,350.0,400.0,1.0,,,,,,,,,magenta,diamond
0.0,6.0,2.0,1.0,5.0,5.0,334.7010220004449,5.0,1.0,phase_2,stop,350.0,400.0,3.0,,,,,,,,,cyan,I
0.0,3.0,3.0,0.0,5.0,5.0,599.37440000067,5.0,1.0,phase_2,go,300.0,400.0,1.0,,,,,,,,,gray,circle
0.0,1.0,1.0,0.0,5.0,5.0,518.0132829991635,5.0,1.0,phase_2,go,300.0,400.0,1.0,,,,,,,,,yellow,hexagon
0.0,4.0,4.0,0.0,5.0,5.0,506.6126749989053,5.0,1.0,phase_2,go,300.0,400.0,1.0,,,,,,,,,green,triangle
0.0,6.0,2.0,1.0,6.0,6.0,536.5883609993034,5.0,1.0,phase_2,stop,300.0,400.0,3.0,,,,,,,,,cyan,I
0.0,7.0,3.0,1.0,6.0,6.0,475.523613000405,5.0,1.0,phase_2,stop,300.0,350.0,3.0,,,,,,,,,blue,flipped triangle
0.0,1.0,1.0,0.0,6.0,6.0,591.4767930007656,5.0,1.0,phase_2,go,300.0,300.0,1.0,,,,,,,,,yellow,hexagon
0.0,7.0,3.0,1.0,6.0,0.0,0.0,5.0,1.0,phase_2,stop,300.0,300.0,4.0,,,,,,,,,blue,flipped triangle
0.0,4.0,4.0,0.0,5.0,5.0,539.6669559995644,5.0,1.0,phase_2,go,300.0,350.0,1.0,,,,,,,,,green,triangle
0.0,7.0,3.0,1.0,6.0,0.0,0.0,5.0,1.0,phase_2,stop,300.0,350.0,4.0,,,,,,,,,blue,flipped triangle
0.0,8.0,4.0,1.0,6.0,0.0,0.0,5.0,1.0,phase_2,stop,300.0,400.0,4.0,,,,,,,,,orange,cross
0.0,5.0,1.0,1.0,5.0,0.0,0.0,5.0,1.0,phase_2,stop,300.0,450.0,4.0,,,,,,,,,white,square
0.0,3.0,3.0,0.0,6.0,6.0,428.0984189990704,5.0,1.0,phase_2,go,350.0,450.0,1.0,,,,,,,,,gray,circle
0.0,4.0,4.0,0.0,6.0,6.0,672.066877999896,5.0,1.0,phase_2,go,350.0,450.0,1.0,,,,,,,,,green,triangle
0.0,6.0,2.0,1.0,5.0,5.0,421.2746280009014,5.0,1.0,phase_2,stop,350.0,450.0,3.0,,,,,,,,,cyan,I
0.0,2.0,2.0,0.0,6.0,6.0,524.496182000803,5.0,1.0,phase_2,go,300.0,450.0,1.0,,,,,,,,,magenta,diamond
0.0,7.0,3.0,1.0,6.0,6.0,610.182459000498,5.0,1.0,phase_2,stop,300.0,450.0,3.0,,,,,,,,,blue,flipped triangle
0.0,3.0,3.0,0.0,6.0,6.0,654.1800470004091,5.0,1.0,phase_2,go,300.0,400.0,1.0,,,,,,,,,gray,circle
0.0,5.0,1.0,1.0,5.0,5.0,681.6216019997228,5.0,1.0,phase_2,go,300.0,400.0,1.0,,,,,,,,,white,square
0.0,8.0,4.0,1.0,5.0,0.0,0.0,5.0,1.0,phase_2,stop,300.0,400.0,4.0,,,,,,,,,orange,cross
0.0,1.0,1.0,0.0,6.0,6.0,517.5362069985567,5.0,1.0,phase_2,go,350.0,400.0,1.0,,,,,,,,,yellow,hexagon
0.0,8.0,4.0,1.0,6.0,6.0,541.9461790006608,5.0,1.0,phase_2,stop,350.0,400.0,3.0,,,,,,,,,orange,cross
0.0,8.0,4.0,1.0,5.0,5.0,628.432135001276,5.0,1.0,phase_2,go,350.0,350.0,1.0,,,,,,,,,orange,cross
0.0,3.0,3.0,0.0,6.0,6.0,575.9922080014803,5.0,1.0,phase_2,go,350.0,350.0,1.0,,,,,,,,,gray,circle
0.0,5.0,1.0,1.0,6.0,6.0,556.7676779992325,5.0,1.0,phase_2,go,350.0,350.0,1.0,,,,,,,,,white,square
0.0,4.0,4.0,0.0,6.0,6.0,484.5191559998056,5.0,1.0,phase_2,go,350.0,350.0,1.0,,,,,,,,,green,triangle
0.0,1.0,1.0,0.0,5.0,5.0,515.6960889999027,5.0,1.0,phase_2,go,350.0,350.0,1.0,,,,,,,,,yellow,hexagon
0.0,2.0,2.0,0.0,5.0,5.0,410.2156820008531,5.0,1.0,phase_2,go,350.0,350.0,1.0,,,,,,,,,magenta,diamond
0.0,7.0,3.0,1.0,5.0,5.0,341.3422769990575,5.0,1.0,phase_2,stop,350.0,350.0,3.0,,,,,,,,,blue,flipped triangle
0.0,8.0,4.0,1.0,6.0,0.0,0.0,5.0,1.0,phase_2,stop,300.0,350.0,4.0,,,,,,,,,orange,cross
0.0,3.0,3.0,0.0,5.0,5.0,743.4410070000013,6.0,1.0,phase_2,go,300.0,400.0,1.0,,,,,,,,,gray,circle
0.0,6.0,2.0,1.0,6.0,6.0,456.4986790010152,6.0,1.0,phase_2,stop,300.0,400.0,3.0,,,,,,,,,cyan,I
0.0,5.0,1.0,1.0,6.0,0.0,0.0,6.0,1.0,phase_2,stop,300.0,350.0,4.0,,,,,,,,,white,square
0.0,1.0,1.0,0.0,5.0,5.0,582.5001419998443,6.0,1.0,phase_2,go,300.0,400.0,1.0,,,,,,,,,yellow,hexagon
0.0,6.0,2.0,1.0,5.0,5.0,668.4749430005468,6.0,1.0,phase_2,go,300.0,400.0,1.0,,,,,,,,,cyan,I
0.0,3.0,3.0,0.0,5.0,5.0,556.111082998541,6.0,1.0,phase_2,go,300.0,400.0,1.0,,,,,,,,,gray,circle
0.0,4.0,4.0,0.0,5.0,5.0,593.1466040001396,6.0,1.0,phase_2,go,300.0,400.0,1.0,,,,,,,,,green,triangle
0.0,4.0,4.0,0.0,5.0,5.0,573.9700409994839,6.0,1.0,phase_2,go,300.0,400.0,1.0,,,,,,,,,green,triangle
0.0,7.0,3.0,1.0,6.0,0.0,0.0,6.0,1.0,phase_2,stop,300.0,400.0,4.0,,,,,,,,,blue,flipped triangle
0.0,3.0,3.0,0.0,6.0,6.0,462.6016010006424,6.0,1.0,phase_2,go,300.0,450.0,1.0,,,,,,,,,gray,circle
0.0,1.0,1.0,0.0,5.0,5.0,551.6726460009522,6.0,1.0,phase_2,go,300.0,450.0,1.0,,,,,,,,,yellow,hexagon
0.0,5.0,1.0,1.0,6.0,6.0,584.0357859997312,6.0,1.0,phase_2,go,300.0,450.0,1.0,,,,,,,,,white,square
0.0,1.0,1.0,0.0,5.0,5.0,555.6091889993695,6.0,1.0,phase_2,go,300.0,450.0,1.0,,,,,,,,,yellow,hexagon
0.0,3.0,3.0,0.0,6.0,6.0,640.970123000443,6.0,1.0,phase_2,go,300.0,450.0,1.0,,,,,,,,,gray,circle
0.0,7.0,3.0,1.0,5.0,5.0,440.5144850006763,6.0,1.0,phase_2,go,300.0,450.0,1.0,,,,,,,,,blue,flipped triangle
0.0,8.0,4.0,1.0,5.0,0.0,0.0,6.0,1.0,phase_2,stop,300.0,450.0,4.0,,,,,,,,,orange,cross
0.0,3.0,3.0,0.0,5.0,5.0,444.7976949995791,6.0,1.0,phase_2,go,350.0,450.0,1.0,,,,,,,,,gray,circle
0.0,8.0,4.0,1.0,5.0,5.0,491.3971139994828,6.0,1.0,phase_2,stop,350.0,450.0,3.0,,,,,,,,,orange,cross
0.0,7.0,3.0,1.0,5.0,5.0,460.6379510005354,6.0,1.0,phase_2,stop,300.0,450.0,3.0,,,,,,,,,blue,flipped triangle
0.0,5.0,1.0,1.0,5.0,0.0,0.0,6.0,1.0,phase_2,stop,250.0,450.0,4.0,,,,,,,,,white,square
0.0,1.0,1.0,0.0,5.0,5.0,472.911616001511,6.0,1.0,phase_2,go,300.0,450.0,1.0,,,,,,,,,yellow,hexagon
0.0,8.0,4.0,1.0,5.0,0.0,0.0,6.0,1.0,phase_2,stop,300.0,450.0,4.0,,,,,,,,,orange,cross
0.0,3.0,3.0,0.0,6.0,6.0,444.7240749996126,6.0,1.0,phase_2,go,350.0,450.0,1.0,,,,,,,,,gray,circle
0.0,5.0,1.0,1.0,6.0,6.0,595.5747669995617,6.0,1.0,phase_2,stop,350.0,450.0,3.0,,,,,,,,,white,square
0.0,6.0,2.0,1.0,5.0,0.0,0.0,6.0,1.0,phase_2,stop,350.0,400.0,4.0,,,,,,,,,cyan,I
0.0,1.0,1.0,0.0,5.0,5.0,514.2849160001788,6.0,1.0,phase_2,go,400.0,400.0,1.0,,,,,,,,,yellow,hexagon
0.0,4.0,4.0,0.0,6.0,6.0,585.6941149995691,6.0,1.0,phase_2,go,400.0,400.0,1.0,,,,,,,,,green,triangle
0.0,3.0,3.0,0.0,5.0,5.0,536.3796669989824,6.0,1.0,phase_2,go,400.0,400.0,1.0,,,,,,,,,gray,circle
0.0,1.0,1.0,0.0,6.0,6.0,530.0336689997494,6.0,1.0,phase_2,go,400.0,400.0,1.0,,,,,,,,,yellow,hexagon
0.0,7.0,3.0,1.0,6.0,6.0,288.1976610005949,6.0,1.0,phase_2,stop,400.0,400.0,3.0,,,,,,,,,blue,flipped triangle
0.0,4.0,4.0,0.0,6.0,6.0,507.1703229987179,6.0,1.0,phase_2,go,400.0,350.0,1.0,,,,,,,,,green,triangle
0.0,6.0,2.0,1.0,5.0,5.0,567.4665099995764,6.0,1.0,phase_2,stop,400.0,350.0,3.0,,,,,,,,,cyan,I
0.0,1.0,1.0,0.0,5.0,5.0,560.4230400003871,6.0,1.0,phase_2,go,350.0,350.0,1.0,,,,,,,,,yellow,hexagon
0.0,6.0,2.0,1.0,5.0,0.0,0.0,6.0,1.0,phase_2,stop,350.0,350.0,4.0,,,,,,,,,cyan,I
0.0,5.0,1.0,1.0,5.0,0.0,0.0,6.0,1.0,phase_2,stop,400.0,350.0,4.0,,,,,,,,,white,square
0.0,3.0,3.0,0.0,5.0,5.0,436.1298739986523,6.0,1.0,phase_2,go,450.0,350.0,1.0,,,,,,,,,gray,circle
0.0,2.0,2.0,0.0,6.0,6.0,404.3708429999242,7.0,1.0,phase_2,go,450.0,350.0,1.0,,,,,,,,,magenta,diamond
0.0,7.0,3.0,1.0,6.0,6.0,426.8043810006929,7.0,1.0,phase_2,stop,450.0,350.0,3.0,,,,,,,,,blue,flipped triangle
0.0,2.0,2.0,0.0,5.0,5.0,589.0949770000589,7.0,1.0,phase_2,go,450.0,300.0,1.0,,,,,,,,,magenta,diamond
0.0,6.0,2.0,1.0,6.0,6.0,526.5983419994882,7.0,1.0,phase_2,go,450.0,300.0,1.0,,,,,,,,,cyan,I
0.0,7.0,3.0,1.0,5.0,5.0,595.0777379985084,7.0,1.0,phase_2,stop,450.0,300.0,3.0,,,,,,,,,blue,flipped triangle
0.0,2.0,2.0,0.0,6.0,6.0,569.7657950004213,7.0,1.0,phase_2,go,400.0,300.0,1.0,,,,,,,,,magenta,diamond
0.0,7.0,3.0,1.0,6.0,0.0,0.0,7.0,1.0,phase_2,stop,400.0,300.0,4.0,,,,,,,,,blue,flipped triangle
0.0,8.0,4.0,1.0,6.0,6.0,546.793854000498,7.0,1.0,phase_2,stop,400.0,350.0,3.0,,,,,,,,,orange,cross
0.0,4.0,4.0,0.0,6.0,6.0,451.8577929993626,7.0,1.0,phase_2,go,400.0,300.0,1.0,,,,,,,,,green,triangle
0.0,6.0,2.0,1.0,6.0,6.0,275.7995140000275,7.0,1.0,phase_2,stop,400.0,300.0,3.0,,,,,,,,,cyan,I
0.0,1.0,1.0,0.0,5.0,5.0,658.6637390009855,7.0,1.0,phase_2,go,400.0,250.0,1.0,,,,,,,,,yellow,hexagon
0.0,4.0,4.0,0.0,5.0,5.0,717.3781769997731,7.0,1.0,phase_2,go,400.0,250.0,1.0,,,,,,,,,green,triangle
0.0,3.0,3.0,0.0,6.0,6.0,817.2912650006765,7.0,1.0,phase_2,go,400.0,250.0,1.0,,,,,,,,,gray,circle
0.0,7.0,3.0,1.0,5.0,5.0,451.6435749992524,7.0,1.0,phase_2,stop,400.0,250.0,3.0,,,,,,,,,blue,flipped triangle
0.0,8.0,4.0,1.0,5.0,5.0,648.4320690015011,7.0,1.0,phase_2,go,350.0,250.0,1.0,,,,,,,,,orange,cross
0.0,1.0,1.0,0.0,5.0,5.0,581.7609200003062,7.0,1.0,phase_2,go,350.0,250.0,1.0,,,,,,,,,yellow,hexagon
0.0,8.0,4.0,1.0,6.0,0.0,0.0,7.0,1.0,phase_2,stop,350.0,250.0,4.0,,,,,,,,,orange,cross
0.0,5.0,1.0,1.0,6.0,0.0,0.0,7.0,1.0,phase_2,stop,350.0,300.0,4.0,,,,,,,,,white,square
0.0,6.0,2.0,1.0,5.0,5.0,662.446350999744,7.0,1.0,phase_2,go,350.0,350.0,1.0,,,,,,,,,cyan,I
0.0,2.0,2.0,0.0,6.0,6.0,551.9894059998478,7.0,1.0,phase_2,go,350.0,350.0,1.0,,,,,,,,,magenta,diamond
0.0,2.0,2.0,0.0,5.0,5.0,495.4056890001084,7.0,1.0,phase_2,go,350.0,350.0,1.0,,,,,,,,,magenta,diamond
0.0,3.0,3.0,0.0,6.0,6.0,553.3839169984276,7.0,1.0,phase_2,go,350.0,350.0,1.0,,,,,,,,,gray,circle
0.0,8.0,4.0,1.0,6.0,6.0,494.51161599972687,7.0,1.0,phase_2,stop,350.0,350.0,3.0,,,,,,,,,orange,cross
0.0,6.0,2.0,1.0,6.0,0.0,0.0,7.0,1.0,phase_2,stop,350.0,300.0,4.0,,,,,,,,,cyan,I
0.0,1.0,1.0,0.0,6.0,6.0,558.3446599994204,7.0,1.0,phase_2,go,350.0,350.0,1.0,,,,,,,,,yellow,hexagon
0.0,2.0,2.0,0.0,6.0,6.0,614.3598620001285,7.0,1.0,phase_2,go,350.0,350.0,1.0,,,,,,,,,magenta,diamond
0.0,2.0,2.0,0.0,6.0,6.0,611.1903130004066,7.0,1.0,phase_2,go,350.0,350.0,1.0,,,,,,,,,magenta,diamond
0.0,2.0,2.0,0.0,5.0,5.0,540.6915319999825,7.0,1.0,phase_2,go,350.0,350.0,1.0,,,,,,,,,magenta,diamond
0.0,8.0,4.0,1.0,5.0,5.0,598.6960670015833,7.0,1.0,phase_2,go,350.0,350.0,1.0,,,,,,,,,orange,cross
0.0,6.0,2.0,1.0,6.0,0.0,0.0,7.0,1.0,phase_2,stop,350.0,350.0,4.0,,,,,,,,,cyan,I
0.0,2.0,2.0,0.0,6.0,6.0,574.7309399994265,7.0,1.0,phase_2,go,350.0,400.0,1.0,,,,,,,,,magenta,diamond
0.0,1.0,1.0,0.0,6.0,6.0,534.5815880009468,7.0,1.0,phase_2,go,350.0,400.0,1.0,,,,,,,,,yellow,hexagon
0.0,8.0,4.0,1.0,5.0,5.0,592.3426089993882,7.0,1.0,phase_2,go,350.0,400.0,1.0,,,,,,,,,orange,cross
0.0,5.0,1.0,1.0,6.0,6.0,311.5910359992995,7.0,1.0,phase_2,stop,350.0,400.0,3.0,,,,,,,,,white,square
0.0,6.0,2.0,1.0,6.0,6.0,593.871428998682,7.0,1.0,phase_2,go,350.0,350.0,1.0,,,,,,,,,cyan,I
0.0,1.0,1.0,0.0,5.0,5.0,498.5448490006092,7.0,1.0,phase_2,go,350.0,350.0,1.0,,,,,,,,,yellow,hexagon
0.0,7.0,3.0,1.0,5.0,5.0,423.8758559986308,8.0,1.0,phase_2,go,350.0,350.0,1.0,,,,,,,,,blue,flipped triangle
0.0,4.0,4.0,0.0,6.0,6.0,422.3227970014704,8.0,1.0,phase_2,go,350.0,350.0,1.0,,,,,,,,,green,triangle
0.0,3.0,3.0,0.0,5.0,5.0,376.6960169996309,8.0,1.0,phase_2,go,350.0,350.0,1.0,,,,,,,,,gray,circle
0.0,8.0,4.0,1.0,6.0,0.0,0.0,8.0,1.0,phase_2,stop,350.0,350.0,4.0,,,,,,,,,orange,cross
0.0,7.0,3.0,1.0,5.0,5.0,473.0006790014158,8.0,1.0,phase_2,go,350.0,400.0,1.0,,,,,,,,,blue,flipped triangle
0.0,5.0,1.0,1.0,6.0,6.0,537.9693009999755,8.0,1.0,phase_2,go,350.0,400.0,1.0,,,,,,,,,white,square
0.0,1.0,1.0,0.0,6.0,6.0,495.318673998554,8.0,1.0,phase_2,go,350.0,400.0,1.0,,,,,,,,,yellow,hexagon
0.0,7.0,3.0,1.0,5.0,5.0,510.6642840000859,8.0,1.0,phase_2,go,350.0,400.0,1.0,,,,,,,,,blue,flipped triangle
0.0,7.0,3.0,1.0,6.0,6.0,432.6408720007748,8.0,1.0,phase_2,stop,350.0,400.0,3.0,,,,,,,,,blue,flipped triangle
0.0,7.0,3.0,1.0,6.0,0.0,0.0,8.0,1.0,phase_2,stop,350.0,350.0,4.0,,,,,,,,,blue,flipped triangle
0.0,4.0,4.0,0.0,6.0,6.0,521.4168519996747,8.0,1.0,phase_2,go,350.0,400.0,1.0,,,,,,,,,green,triangle
0.0,5.0,1.0,1.0,6.0,6.0,439.1291010015266,8.0,1.0,phase_2,stop,350.0,400.0,3.0,,,,,,,,,white,square
0.0,1.0,1.0,0.0,6.0,6.0,672.6145060001727,8.0,1.0,phase_2,go,350.0,350.0,1.0,,,,,,,,,yellow,hexagon
0.0,8.0,4.0,1.0,5.0,5.0,530.4327009998815,8.0,1.0,phase_2,stop,350.0,350.0,3.0,,,,,,,,,orange,cross
0.0,4.0,4.0,0.0,6.0,6.0,627.9449630001182,8.0,1.0,phase_2,go,300.0,350.0,1.0,,,,,,,,,green,triangle
0.0,5.0,1.0,1.0,6.0,0.0,0.0,8.0,1.0,phase_2,stop,300.0,350.0,4.0,,,,,,,,,white,square
0.0,4.0,4.0,0.0,6.0,6.0,562.6518059998489,8.0,1.0,phase_2,go,300.0,400.0,1.0,,,,,,,,,green,triangle
0.0,8.0,4.0,1.0,6.0,0.0,0.0,8.0,1.0,phase_2,stop,300.0,400.0,4.0,,,,,,,,,orange,cross
0.0,8.0,4.0,1.0,5.0,0.0,0.0,8.0,1.0,phase_2,stop,300.0,450.0,4.0,,,,,,,,,orange,cross
0.0,5.0,1.0,1.0,5.0,0.0,0.0,8.0,1.0,phase_2,stop,350.0,450.0,4.0,,,,,,,,,white,square
0.0,2.0,2.0,0.0,5.0,5.0,562.5406519993703,8.0,1.0,phase_2,go,400.0,450.0,1.0,,,,,,,,,magenta,diamond
0.0,8.0,4.0,1.0,5.0,0.0,0.0,8.0,1.0,phase_2,stop,400.0,450.0,4.0,,,,,,,,,orange,cross
0.0,5.0,1.0,1.0,5.0,5.0,523.9879969994945,8.0,1.0,phase_2,stop,450.0,450.0,3.0,,,,,,,,,white,square
0.0,3.0,3.0,0.0,6.0,6.0,479.3279320001602,8.0,1.0,phase_2,go,400.0,450.0,1.0,,,,,,,,,gray,circle
0.0,5.0,1.0,1.0,5.0,5.0,583.7109059993963,8.0,1.0,phase_2,stop,400.0,450.0,3.0,,,,,,,,,white,square
0.0,2.0,2.0,0.0,5.0,5.0,579.3294149989379,8.0,1.0,phase_2,go,350.0,450.0,1.0,,,,,,,,,magenta,diamond
0.0,1.0,1.0,0.0,5.0,5.0,571.2814559992694,8.0,1.0,phase_2,go,350.0,450.0,1.0,,,,,,,,,yellow,hexagon
0.0,7.0,3.0,1.0,5.0,0.0,0.0,8.0,1.0,phase_2,stop,350.0,450.0,4.0,,,,,,,,,blue,flipped triangle
0.0,2.0,2.0,0.0,5.0,5.0,530.6812949984305,8.0,1.0,phase_2,go,400.0,450.0,1.0,,,,,,,,,magenta,diamond
0.0,7.0,3.0,1.0,5.0,0.0,0.0,8.0,1.0,phase_2,stop,400.0,450.0,4.0,,,,,,,,,blue,flipped triangle
0.0,6.0,2.0,1.0,6.0,6.0,552.658443000837,8.0,1.0,phase_2,go,450.0,450.0,1.0,,,,,,,,,cyan,I
0.0,5.0,1.0,1.0,6.0,6.0,529.2527499987045,8.0,1.0,phase_2,stop,450.0,450.0,3.0,,,,,,,,,white,square
0.0,4.0,4.0,0.0,5.0,5.0,599.7732799987716,8.0,1.0,phase_2,go,450.0,400.0,1.0,,,,,,,,,green,triangle
0.0,2.0,2.0,0.0,6.0,6.0,467.3492869987967,8.0,1.0,phase_2,go,450.0,400.0,1.0,,,,,,,,,magenta,diamond
0.0,7.0,3.0,1.0,6.0,0.0,0.0,8.0,1.0,phase_2,stop,450.0,400.0,4.0,,,,,,,,,blue,flipped triangle
0.0,4.0,4.0,0.0,6.0,6.0,640.7938850006758,8.0,1.0,phase_2,go,450.0,450.0,1.0,,,,,,,,,green,triangle
0.0,2.0,2.0,0.0,7.0,2.0,4303.320479000831,1.0,1.0,phase_3,,,,,195.0,5.0,39.0,195.0,234.0,117.0,156.0,78.0,magenta,diamond
0.0,4.0,4.0,0.0,7.0,4.0,4845.556143998692,1.0,1.0,phase_3,,,,,170.0,5.0,68.0,204.0,102.0,170.0,34.0,136.0,green,triangle
0.0,4.0,4.0,0.0,7.0,5.0,3883.000687999811,1.0,1.0,phase_3,,,,,156.0,4.0,78.0,117.0,195.0,234.0,156.0,39.0,green,triangle
0.0,3.0,3.0,0.0,7.0,5.0,3962.181339000381,1.0,1.0,phase_3,,,,,216.0,4.0,270.0,324.0,54.0,108.0,216.0,162.0,gray,circle
0.0,2.0,2.0,0.0,7.0,6.0,4330.035967001095,1.0,1.0,phase_3,,,,,136.0,4.0,102.0,34.0,170.0,204.0,68.0,136.0,magenta,diamond
0.0,8.0,4.0,1.0,7.0,3.0,4273.780785000781,1.0,1.0,phase_3,,,,,270.0,5.0,54.0,216.0,270.0,108.0,162.0,324.0,orange,cross
0.0,4.0,4.0,0.0,7.0,6.0,4204.723675999048,1.0,1.0,phase_3,,,,,136.0,4.0,204.0,68.0,34.0,170.0,102.0,136.0,green,triangle
0.0,4.0,4.0,0.0,7.0,3.0,3503.48975399902,1.0,1.0,phase_3,,,,,270.0,5.0,54.0,108.0,270.0,162.0,324.0,216.0,green,triangle
0.0,2.0,2.0,0.0,7.0,4.0,3588.229910999871,1.0,1.0,phase_3,,,,,196.0,4.0,49.0,245.0,147.0,196.0,98.0,294.0,magenta,diamond
0.0,2.0,2.0,0.0,7.0,5.0,3077.7253600008407,1.0,1.0,phase_3,,,,,147.0,3.0,98.0,245.0,49.0,294.0,147.0,196.0,magenta,diamond
0.0,5.0,1.0,1.0,7.0,1.0,4408.437621999838,1.0,1.0,phase_3,,,,,216.0,4.0,216.0,324.0,270.0,162.0,108.0,54.0,white,square
0.0,6.0,2.0,1.0,7.0,3.0,3494.91104900153,1.0,1.0,phase_3,,,,,117.0,3.0,39.0,195.0,117.0,78.0,234.0,156.0,cyan,I
0.0,3.0,3.0,0.0,7.0,3.0,3412.3957450010494,1.0,1.0,phase_3,,,,,132.0,3.0,264.0,88.0,132.0,220.0,44.0,176.0,gray,circle
0.0,5.0,1.0,1.0,7.0,4.0,4603.025260001232,1.0,1.0,phase_3,,,,,147.0,3.0,98.0,294.0,196.0,147.0,49.0,245.0,white,square
0.0,2.0,2.0,0.0,7.0,6.0,3811.324857999352,1.0,1.0,phase_3,,,,,220.0,5.0,264.0,88.0,44.0,132.0,176.0,220.0,magenta,diamond
0.0,4.0,4.0,0.0,7.0,5.0,2966.050663000715,1.0,1.0,phase_3,,,,,220.0,5.0,88.0,132.0,44.0,264.0,220.0,176.0,green,triangle
0.0,3.0,3.0,0.0,7.0,6.0,4055.295129001024,1.0,1.0,phase_3,,,,,147.0,3.0,196.0,49.0,98.0,294.0,245.0,147.0,gray,circle
0.0,7.0,3.0,1.0,7.0,4.0,3799.994657998468,1.0,1.0,phase_3,,,,,204.0,6.0,136.0,102.0,68.0,204.0,170.0,34.0,blue,flipped triangle
0.0,8.0,4.0,1.0,7.0,1.0,2616.3600700001552,1.0,1.0,phase_3,,,,,270.0,5.0,270.0,108.0,216.0,324.0,162.0,54.0,orange,cross
0.0,6.0,2.0,1.0,7.0,1.0,4778.209665999384,1.0,1.0,phase_3,,,,,132.0,3.0,132.0,88.0,176.0,44.0,264.0,220.0,cyan,I
0.0,3.0,3.0,0.0,7.0,3.0,2798.0127339997125,2.0,1.0,phase_3,,,,,216.0,4.0,108.0,54.0,216.0,270.0,324.0,162.0,gray,circle
0.0,1.0,1.0,0.0,7.0,5.0,3434.596467999654,2.0,1.0,phase_3,,,,,78.0,2.0,195.0,234.0,156.0,39.0,78.0,117.0,yellow,hexagon
0.0,1.0,1.0,0.0,7.0,4.0,2282.398433000708,2.0,1.0,phase_3,,,,,117.0,3.0,39.0,156.0,195.0,117.0,78.0,234.0,yellow,hexagon
0.0,4.0,4.0,0.0,7.0,2.0,2548.755576000985,2.0,1.0,phase_3,,,,,245.0,5.0,147.0,245.0,98.0,196.0,49.0,294.0,green,triangle
0.0,6.0,2.0,1.0,7.0,1.0,2840.052003999517,2.0,1.0,phase_3,,,,,102.0,3.0,102.0,68.0,170.0,136.0,34.0,204.0,cyan,I
0.0,5.0,1.0,1.0,7.0,5.0,3943.623482000476,2.0,1.0,phase_3,,,,,176.0,4.0,44.0,88.0,220.0,132.0,176.0,264.0,white,square
0.0,1.0,1.0,0.0,7.0,4.0,3166.4353010000923,2.0,1.0,phase_3,,,,,108.0,2.0,54.0,216.0,162.0,108.0,270.0,324.0,yellow,hexagon
0.0,5.0,1.0,1.0,7.0,1.0,3811.168580999947,2.0,1.0,phase_3,,,,,117.0,3.0,117.0,156.0,234.0,78.0,39.0,195.0,white,square
0.0,4.0,4.0,0.0,7.0,6.0,3085.358903999804,2.0,1.0,phase_3,,,,,216.0,4.0,162.0,270.0,324.0,54.0,108.0,216.0,green,triangle
0.0,8.0,4.0,1.0,7.0,6.0,4838.579757999469,2.0,1.0,phase_3,,,,,176.0,4.0,264.0,132.0,220.0,44.0,88.0,176.0,orange,cross
0.0,8.0,4.0,1.0,7.0,3.0,4011.9653189995006,2.0,1.0,phase_3,,,,,245.0,5.0,196.0,49.0,245.0,147.0,294.0,98.0,orange,cross
0.0,7.0,3.0,1.0,7.0,1.0,3574.0605689989025,2.0,1.0,phase_3,,,,,176.0,4.0,176.0,44.0,132.0,220.0,88.0,264.0,blue,flipped triangle
0.0,4.0,4.0,0.0,7.0,6.0,3189.5872580007563,2.0,1.0,phase_3,,,,,195.0,5.0,156.0,117.0,39.0,78.0,234.0,195.0,green,triangle
0.0,8.0,4.0,1.0,7.0,2.0,4736.8578130008245,2.0,1.0,phase_3,,,,,196.0,4.0,49.0,196.0,294.0,147.0,98.0,245.0,orange,cross
0.0,6.0,2.0,1.0,7.0,3.0,4069.507620000877,2.0,1.0,phase_3,,,,,88.0,2.0,44.0,176.0,88.0,264.0,220.0,132.0,cyan,I
0.0,1.0,1.0,0.0,7.0,6.0,1932.6103789990161,2.0,1.0,phase_3,,,,,132.0,3.0,264.0,220.0,44.0,176.0,88.0,132.0,yellow,hexagon
0.0,8.0,4.0,1.0,7.0,4.0,2189.6810100006405,2.0,1.0,phase_3,,,,,170.0,5.0,68.0,34.0,204.0,170.0,102.0,136.0,orange,cross
0.0,7.0,3.0,1.0,7.0,5.0,1692.2735500011186,2.0,1.0,phase_3,,,,,176.0,4.0,132.0,220.0,88.0,44.0,176.0,264.0,blue,flipped triangle
0.0,2.0,2.0,0.0,7.0,2.0,3982.692597001005,2.0,1.0,phase_3,,,,,270.0,5.0,54.0,270.0,324.0,162.0,216.0,108.0,magenta,diamond
0.0,8.0,4.0,1.0,7.0,1.0,4686.062191000019,2.0,1.0,phase_3,,,,,156.0,4.0,156.0,234.0,39.0,78.0,117.0,195.0,orange,cross
0.0,4.0,4.0,0.0,7.0,5.0,4121.912090999103,3.0,1.0,phase_3,,,,,147.0,3.0,294.0,98.0,49.0,196.0,147.0,245.0,green,triangle
0.0,7.0,3.0,1.0,7.0,4.0,1365.732277999996,3.0,1.0,phase_3,,,,,147.0,3.0,49.0,294.0,98.0,147.0,196.0,245.0,blue,flipped triangle
0.0,7.0,3.0,1.0,7.0,6.0,1978.005512000891,3.0,1.0,phase_3,,,,,170.0,5.0,34.0,136.0,204.0,68.0,102.0,170.0,blue,flipped triangle
0.0,7.0,3.0,1.0,7.0,4.0,1205.3958710002917,3.0,1.0,phase_3,,,,,162.0,3.0,54.0,324.0,108.0,162.0,216.0,270.0,blue,flipped triangle
0.0,5.0,1.0,1.0,7.0,1.0,2456.6929169996,3.0,1.0,phase_3,,,,,162.0,3.0,162.0,270.0,216.0,108.0,324.0,54.0,white,square
0.0,7.0,3.0,1.0,7.0,3.0,2413.6828139999125,3.0,1.0,phase_3,,,,,196.0,4.0,98.0,147.0,196.0,294.0,245.0,49.0,blue,flipped triangle
0.0,3.0,3.0,0.0,7.0,4.0,1632.9881879992172,3.0,1.0,phase_3,,,,,102.0,3.0,34.0,136.0,204.0,102.0,68.0,170.0,gray,circle
0.0,7.0,3.0,1.0,7.0,2.0,4186.127367000154,3.0,1.0,phase_3,,,,,216.0,4.0,162.0,216.0,324.0,54.0,108.0,270.0,blue,flipped triangle
0.0,6.0,2.0,1.0,7.0,1.0,3664.046554000379,3.0,1.0,phase_3,,,,,98.0,2.0,98.0,196.0,49.0,294.0,245.0,147.0,cyan,I
0.0,5.0,1.0,1.0,7.0,4.0,2251.1450439997134,3.0,1.0,phase_3,,,,,136.0,4.0,34.0,68.0,204.0,136.0,170.0,102.0,white,square
0.0,8.0,4.0,1.0,7.0,2.0,3589.8519169986685,3.0,1.0,phase_3,,,,,264.0,6.0,88.0,264.0,176.0,220.0,132.0,44.0,orange,cross
0.0,1.0,1.0,0.0,7.0,5.0,4139.488283000901,3.0,1.0,phase_3,,,,,102.0,3.0,68.0,170.0,204.0,136.0,102.0,34.0,yellow,hexagon
0.0,6.0,2.0,1.0,7.0,1.0,2550.5113850013004,3.0,1.0,phase_3,,,,,102.0,3.0,102.0,136.0,170.0,204.0,34.0,68.0,cyan,I
0.0,5.0,1.0,1.0,7.0,4.0,2500.0558410010854,3.0,1.0,phase_3,,,,,136.0,4.0,34.0,170.0,102.0,136.0,204.0,68.0,white,square
0.0,4.0,4.0,0.0,7.0,3.0,4765.5782049987465,3.0,1.0,phase_3,,,,,176.0,4.0,44.0,88.0,176.0,132.0,220.0,264.0,green,triangle
0.0,3.0,3.0,0.0,7.0,2.0,2982.550756998535,3.0,1.0,phase_3,,,,,117.0,3.0,78.0,117.0,195.0,234.0,39.0,156.0,gray,circle
0.0,2.0,2.0,0.0,7.0,2.0,2769.146023001668,3.0,1.0,phase_3,,,,,136.0,4.0,102.0,136.0,68.0,34.0,170.0,204.0,magenta,diamond
0.0,3.0,3.0,0.0,7.0,5.0,3039.717329998893,3.0,1.0,phase_3,,,,,147.0,3.0,245.0,196.0,98.0,49.0,147.0,294.0,gray,circle
0.0,2.0,2.0,0.0,7.0,4.0,3531.700268998975,3.0,1.0,phase_3,,,,,220.0,5.0,132.0,88.0,264.0,220.0,44.0,176.0,magenta,diamond
0.0,2.0,2.0,0.0,7.0,1.0,2018.7123190007696,3.0,1.0,phase_3,,,,,195.0,5.0,195.0,156.0,117.0,234.0,78.0,39.0,magenta,diamond
0.0,6.0,2.0,1.0,7.0,3.0,2514.5407199997862,4.0,1.0,phase_3,,,,,108.0,2.0,270.0,162.0,108.0,216.0,324.0,54.0,cyan,I
0.0,7.0,3.0,1.0,7.0,5.0,1813.6621079993347,4.0,1.0,phase_3,,,,,156.0,4.0,117.0,78.0,195.0,234.0,156.0,39.0,blue,flipped triangle
0.0,7.0,3.0,1.0,7.0,5.0,1993.5301850000544,4.0,1.0,phase_3,,,,,156.0,4.0,195.0,78.0,234.0,39.0,156.0,117.0,blue,flipped triangle
0.0,6.0,2.0,1.0,7.0,5.0,4993.830011999307,4.0,1.0,phase_3,,,,,147.0,3.0,196.0,245.0,294.0,49.0,147.0,98.0,cyan,I
0.0,5.0,1.0,1.0,7.0,3.0,2885.2738219993626,4.0,1.0,phase_3,,,,,132.0,3.0,220.0,44.0,132.0,88.0,176.0,264.0,white,square
0.0,3.0,3.0,0.0,7.0,4.0,3563.278884999818,4.0,1.0,phase_3,,,,,136.0,4.0,102.0,68.0,170.0,136.0,34.0,204.0,gray,circle
0.0,8.0,4.0,1.0,7.0,6.0,2755.0480449990573,4.0,1.0,phase_3,,,,,170.0,5.0,204.0,34.0,68.0,102.0,136.0,170.0,orange,cross
0.0,5.0,1.0,1.0,7.0,4.0,3113.499953000428,4.0,1.0,phase_3,,,,,78.0,2.0,195.0,234.0,117.0,78.0,156.0,39.0,white,square
0.0,1.0,1.0,0.0,7.0,1.0,1813.1557759988937,4.0,1.0,phase_3,,,,,49.0,1.0,49.0,196.0,98.0,147.0,294.0,245.0,yellow,hexagon
0.0,8.0,4.0,1.0,7.0,6.0,3781.258457000149,4.0,1.0,phase_3,,,,,156.0,4.0,195.0,78.0,117.0,234.0,39.0,156.0,orange,cross
0.0,1.0,1.0,0.0,7.0,4.0,3867.6945510014775,4.0,1.0,phase_3,,,,,98.0,2.0,294.0,49.0,147.0,98.0,245.0,196.0,yellow,hexagon
0.0,1.0,1.0,0.0,7.0,5.0,1408.4041789992623,4.0,1.0,phase_3,,,,,102.0,3.0,34.0,204.0,136.0,68.0,102.0,170.0,yellow,hexagon
0.0,6.0,2.0,1.0,7.0,5.0,2167.9884610002773,4.0,1.0,phase_3,,,,,156.0,4.0,195.0,234.0,117.0,39.0,156.0,78.0,cyan,I
0.0,6.0,2.0,1.0,7.0,2.0,2437.299971999892,4.0,1.0,phase_3,,,,,162.0,3.0,108.0,162.0,324.0,54.0,216.0,270.0,cyan,I
0.0,1.0,1.0,0.0,7.0,3.0,4374.165166998864,4.0,1.0,phase_3,,,,,162.0,3.0,108.0,270.0,162.0,54.0,324.0,216.0,yellow,hexagon
0.0,3.0,3.0,0.0,7.0,5.0,3366.4671770002315,4.0,1.0,phase_3,,,,,132.0,3.0,44.0,264.0,176.0,88.0,132.0,220.0,gray,circle
0.0,5.0,1.0,1.0,7.0,2.0,2572.6063400015846,4.0,1.0,phase_3,,,,,196.0,4.0,98.0,196.0,147.0,245.0,49.0,294.0,white,square
0.0,2.0,2.0,0.0,7.0,3.0,4573.239504999947,4.0,1.0,phase_3,,,,,216.0,4.0,270.0,162.0,216.0,324.0,54.0,108.0,magenta,diamond
0.0,1.0,1.0,0.0,7.0,6.0,3684.320550999473,4.0,1.0,phase_3,,,,,132.0,3.0,176.0,88.0,44.0,220.0,264.0,132.0,yellow,hexagon
0.0,3.0,3.0,0.0,7.0,4.0,1331.2923159992351,4.0,1.0,phase_3,,,,,156.0,4.0,78.0,234.0,195.0,156.0,117.0,39.0,gray,circle
