raw_reward_magnitude,stim_reward,stepwise_reward_magnitude,paired_with_stopping,quadrant,response,reaction_time,block,num_trial_presentations,which_part,stop_signal_trial_type,left_SSD,right_SSD,accuracy,chosen_bidding_amount,chosen_bidding_level,possible_bid_1,possible_bid_2,possible_bid_3,possible_bid_4,possible_bid_5,possible_bid_6,color_text,shape_text
57.0,5.0,1.0,1.0,3.0,3.0,484.4298279999748,1.0,1.0,part_1,,,,,,,,,,,,,blue,square
393.0,4.0,4.0,0.0,3.0,3.0,313.9260120001381,1.0,1.0,part_1,,,,,,,,,,,,,magenta,diamond
382.0,4.0,4.0,0.0,2.0,2.0,757.2103489999336,1.0,1.0,part_1,,,,,,,,,,,,,magenta,diamond
0.0,6.0,0.0,1.0,2.0,2.0,339.9769759998889,1.0,1.0,part_1,,,,,,,,,,,,,green,I
200.0,7.0,3.0,1.0,1.0,1.0,479.6288249999634,1.0,1.0,part_1,,,,,,,,,,,,,orange,hexagon
0.0,7.0,0.0,1.0,3.0,3.0,333.5252709998713,1.0,1.0,part_1,,,,,,,,,,,,,orange,hexagon
0.0,1.0,0.0,0.0,4.0,4.0,484.4132499999887,1.0,1.0,part_1,,,,,,,,,,,,,cyan,cross
97.0,2.0,2.0,0.0,2.0,2.0,478.164968000101,1.0,1.0,part_1,,,,,,,,,,,,,white,triangle
52.0,5.0,1.0,1.0,3.0,3.0,245.7501730000331,1.0,1.0,part_1,,,,,,,,,,,,,blue,square
218.0,7.0,3.0,1.0,3.0,3.0,305.5147769998712,1.0,1.0,part_1,,,,,,,,,,,,,orange,hexagon
187.0,7.0,3.0,1.0,3.0,3.0,309.0221489999294,1.0,1.0,part_1,,,,,,,,,,,,,orange,hexagon
122.0,2.0,2.0,0.0,1.0,1.0,300.9809400000449,1.0,1.0,part_1,,,,,,,,,,,,,white,triangle
421.0,8.0,4.0,1.0,2.0,2.0,324.3567039999107,1.0,1.0,part_1,,,,,,,,,,,,,yellow,flipped triangle
69.0,1.0,1.0,0.0,2.0,2.0,293.1498830000691,1.0,1.0,part_1,,,,,,,,,,,,,cyan,cross
113.0,6.0,2.0,1.0,3.0,3.0,264.2689809999865,1.0,1.0,part_1,,,,,,,,,,,,,green,I
55.0,5.0,1.0,1.0,4.0,4.0,323.1820010000774,1.0,2.0,part_1,,,,,,,,,,,,,blue,square
211.0,7.0,3.0,1.0,2.0,2.0,320.1969120000285,1.0,1.0,part_1,,,,,,,,,,,,,orange,hexagon
385.0,8.0,4.0,1.0,2.0,2.0,363.9638269999068,1.0,1.0,part_1,,,,,,,,,,,,,yellow,flipped triangle
201.0,3.0,3.0,0.0,1.0,1.0,318.4206450000602,1.0,1.0,part_1,,,,,,,,,,,,,gray,circle
0.0,2.0,0.0,0.0,2.0,2.0,380.343509000113,1.0,1.0,part_1,,,,,,,,,,,,,white,triangle
90.0,6.0,2.0,1.0,2.0,2.0,328.5202640001898,1.0,1.0,part_1,,,,,,,,,,,,,green,I
97.0,6.0,2.0,1.0,2.0,2.0,278.3070830000724,1.0,1.0,part_1,,,,,,,,,,,,,green,I
0.0,4.0,0.0,0.0,1.0,1.0,269.8806609998883,1.0,1.0,part_1,,,,,,,,,,,,,magenta,diamond
0.0,2.0,0.0,0.0,3.0,3.0,362.6937249998718,1.0,1.0,part_1,,,,,,,,,,,,,white,triangle
35.0,1.0,1.0,0.0,3.0,3.0,320.8446660000845,1.0,1.0,part_1,,,,,,,,,,,,,cyan,cross
416.0,8.0,4.0,1.0,3.0,3.0,249.4882309999866,1.0,1.0,part_1,,,,,,,,,,,,,yellow,flipped triangle
116.0,6.0,2.0,1.0,2.0,2.0,324.1448119999859,1.0,1.0,part_1,,,,,,,,,,,,,green,I
0.0,2.0,0.0,0.0,2.0,2.0,326.2818170001083,1.0,1.0,part_1,,,,,,,,,,,,,white,triangle
69.0,5.0,1.0,1.0,4.0,4.0,320.2643699999044,1.0,2.0,part_1,,,,,,,,,,,,,blue,square
120.0,6.0,2.0,1.0,4.0,4.0,300.7428060000165,1.0,1.0,part_1,,,,,,,,,,,,,green,I
409.0,8.0,4.0,1.0,2.0,2.0,390.7099719999678,1.0,1.0,part_1,,,,,,,,,,,,,yellow,flipped triangle
73.0,5.0,1.0,1.0,1.0,1.0,342.8505370000039,1.0,1.0,part_1,,,,,,,,,,,,,blue,square
0.0,4.0,0.0,0.0,2.0,2.0,324.7921539998515,1.0,1.0,part_1,,,,,,,,,,,,,magenta,diamond
387.0,8.0,4.0,1.0,3.0,3.0,318.2376540000859,1.0,1.0,part_1,,,,,,,,,,,,,yellow,flipped triangle
0.0,7.0,0.0,1.0,4.0,4.0,353.5719379999591,1.0,1.0,part_1,,,,,,,,,,,,,orange,hexagon
200.0,3.0,3.0,0.0,3.0,3.0,351.9340509999438,1.0,1.0,part_1,,,,,,,,,,,,,gray,circle
105.0,2.0,2.0,0.0,2.0,2.0,360.6250629998158,1.0,1.0,part_1,,,,,,,,,,,,,white,triangle
380.0,4.0,4.0,0.0,2.0,2.0,306.6458870000588,1.0,2.0,part_1,,,,,,,,,,,,,magenta,diamond
217.0,3.0,3.0,0.0,3.0,3.0,461.9359020000502,1.0,1.0,part_1,,,,,,,,,,,,,gray,circle
45.0,5.0,1.0,1.0,4.0,4.0,390.5776789999891,1.0,1.0,part_1,,,,,,,,,,,,,blue,square
209.0,3.0,3.0,0.0,1.0,1.0,273.3688340001663,1.0,1.0,part_1,,,,,,,,,,,,,gray,circle
422.0,8.0,4.0,1.0,3.0,3.0,359.862319000058,1.0,1.0,part_1,,,,,,,,,,,,,yellow,flipped triangle
112.0,2.0,2.0,0.0,1.0,1.0,291.8231369999375,1.0,1.0,part_1,,,,,,,,,,,,,white,triangle
100.0,6.0,2.0,1.0,2.0,2.0,344.0597489998254,1.0,2.0,part_1,,,,,,,,,,,,,green,I
186.0,7.0,3.0,1.0,2.0,2.0,385.1611939999202,1.0,1.0,part_1,,,,,,,,,,,,,orange,hexagon
191.0,3.0,3.0,0.0,2.0,2.0,531.1596760000157,1.0,1.0,part_1,,,,,,,,,,,,,gray,circle
222.0,7.0,3.0,1.0,2.0,2.0,403.4710749999703,1.0,1.0,part_1,,,,,,,,,,,,,orange,hexagon
123.0,6.0,2.0,1.0,3.0,3.0,402.8436789999432,1.0,1.0,part_1,,,,,,,,,,,,,green,I
385.0,4.0,4.0,0.0,2.0,2.0,392.4182900000232,1.0,1.0,part_1,,,,,,,,,,,,,magenta,diamond
195.0,7.0,3.0,1.0,4.0,4.0,349.8630530000355,1.0,1.0,part_1,,,,,,,,,,,,,orange,hexagon
97.0,6.0,2.0,1.0,3.0,3.0,589.8442730001534,1.0,1.0,part_1,,,,,,,,,,,,,green,I
0.0,4.0,0.0,0.0,3.0,3.0,385.5793650000123,1.0,1.0,part_1,,,,,,,,,,,,,magenta,diamond
378.0,4.0,4.0,0.0,4.0,4.0,380.2265839999563,1.0,1.0,part_1,,,,,,,,,,,,,magenta,diamond
46.0,5.0,1.0,1.0,2.0,2.0,436.9755449999957,1.0,1.0,part_1,,,,,,,,,,,,,blue,square
89.0,6.0,2.0,1.0,4.0,4.0,323.3414520000224,1.0,1.0,part_1,,,,,,,,,,,,,green,I
202.0,3.0,3.0,0.0,4.0,4.0,403.3861999998862,1.0,1.0,part_1,,,,,,,,,,,,,gray,circle
82.0,2.0,2.0,0.0,3.0,3.0,279.0975210000397,1.0,1.0,part_1,,,,,,,,,,,,,white,triangle
414.0,8.0,4.0,1.0,3.0,3.0,404.1310589998375,1.0,1.0,part_1,,,,,,,,,,,,,yellow,flipped triangle
209.0,3.0,3.0,0.0,2.0,2.0,444.8262230000637,1.0,1.0,part_1,,,,,,,,,,,,,gray,circle
0.0,3.0,0.0,0.0,4.0,4.0,329.1123369999695,1.0,1.0,part_1,,,,,,,,,,,,,gray,circle
108.0,2.0,2.0,0.0,1.0,1.0,433.8438380000298,1.0,1.0,part_1,,,,,,,,,,,,,white,triangle
382.0,8.0,4.0,1.0,1.0,1.0,395.308304000082,1.0,1.0,part_1,,,,,,,,,,,,,yellow,flipped triangle
99.0,2.0,2.0,0.0,3.0,3.0,373.8298980001673,1.0,1.0,part_1,,,,,,,,,,,,,white,triangle
391.0,8.0,4.0,1.0,2.0,2.0,317.8943699999763,1.0,1.0,part_1,,,,,,,,,,,,,yellow,flipped triangle
385.0,8.0,4.0,1.0,3.0,3.0,318.3346960001927,1.0,1.0,part_1,,,,,,,,,,,,,yellow,flipped triangle
403.0,4.0,4.0,0.0,3.0,3.0,362.4545090001447,1.0,1.0,part_1,,,,,,,,,,,,,magenta,diamond
92.0,2.0,2.0,0.0,3.0,3.0,289.0973099999883,1.0,1.0,part_1,,,,,,,,,,,,,white,triangle
90.0,6.0,2.0,1.0,1.0,1.0,292.7392320000308,1.0,1.0,part_1,,,,,,,,,,,,,green,I
418.0,4.0,4.0,0.0,1.0,1.0,400.0461390000964,1.0,1.0,part_1,,,,,,,,,,,,,magenta,diamond
217.0,3.0,3.0,0.0,4.0,4.0,343.4269040001254,1.0,1.0,part_1,,,,,,,,,,,,,gray,circle
209.0,7.0,3.0,1.0,3.0,3.0,413.8672270000825,1.0,1.0,part_1,,,,,,,,,,,,,orange,hexagon
55.0,5.0,1.0,1.0,2.0,2.0,438.6936649998461,1.0,1.0,part_1,,,,,,,,,,,,,blue,square
380.0,8.0,4.0,1.0,1.0,1.0,339.0489299999899,1.0,1.0,part_1,,,,,,,,,,,,,yellow,flipped triangle
0.0,8.0,0.0,1.0,2.0,2.0,443.8022439999258,1.0,1.0,part_1,,,,,,,,,,,,,yellow,flipped triangle
90.0,2.0,2.0,0.0,1.0,1.0,440.2985199999421,1.0,1.0,part_1,,,,,,,,,,,,,white,triangle
183.0,3.0,3.0,0.0,1.0,1.0,364.0580459998546,1.0,1.0,part_1,,,,,,,,,,,,,gray,circle
113.0,2.0,2.0,0.0,3.0,3.0,339.5209150000937,1.0,1.0,part_1,,,,,,,,,,,,,white,triangle
191.0,7.0,3.0,1.0,4.0,4.0,385.8703700000205,1.0,1.0,part_1,,,,,,,,,,,,,orange,hexagon
55.0,1.0,1.0,0.0,3.0,3.0,361.6010470000219,1.0,1.0,part_1,,,,,,,,,,,,,cyan,cross
70.0,5.0,1.0,1.0,4.0,4.0,474.4252170000891,1.0,1.0,part_1,,,,,,,,,,,,,blue,square
27.0,5.0,1.0,1.0,1.0,1.0,358.3472249999886,1.0,1.0,part_1,,,,,,,,,,,,,blue,square
86.0,6.0,2.0,1.0,1.0,1.0,377.6749290000225,1.0,1.0,part_1,,,,,,,,,,,,,green,I
75.0,2.0,2.0,0.0,4.0,4.0,420.9985170000436,1.0,1.0,part_1,,,,,,,,,,,,,white,triangle
0.0,3.0,0.0,0.0,2.0,2.0,290.7138569999006,1.0,1.0,part_1,,,,,,,,,,,,,gray,circle
383.0,4.0,4.0,0.0,1.0,1.0,289.56025200000107,1.0,1.0,part_1,,,,,,,,,,,,,magenta,diamond
112.0,6.0,2.0,1.0,3.0,3.0,468.0766589999621,1.0,1.0,part_1,,,,,,,,,,,,,green,I
0.0,8.0,0.0,1.0,4.0,4.0,543.2812440001271,1.0,1.0,part_1,,,,,,,,,,,,,yellow,flipped triangle
92.0,6.0,2.0,1.0,2.0,2.0,318.4271129998706,1.0,1.0,part_1,,,,,,,,,,,,,green,I
209.0,7.0,3.0,1.0,3.0,3.0,413.8583060000655,1.0,1.0,part_1,,,,,,,,,,,,,orange,hexagon
407.0,8.0,4.0,1.0,3.0,3.0,334.9233989999902,1.0,1.0,part_1,,,,,,,,,,,,,yellow,flipped triangle
199.0,3.0,3.0,0.0,3.0,3.0,407.581768,1.0,1.0,part_1,,,,,,,,,,,,,gray,circle
0.0,3.0,0.0,0.0,1.0,1.0,395.8085659999142,1.0,1.0,part_1,,,,,,,,,,,,,gray,circle
78.0,2.0,2.0,0.0,2.0,2.0,672.7912139999717,1.0,2.0,part_1,,,,,,,,,,,,,white,triangle
395.0,4.0,4.0,0.0,3.0,3.0,459.5136840000577,1.0,1.0,part_1,,,,,,,,,,,,,magenta,diamond
106.0,2.0,2.0,0.0,2.0,2.0,688.6346559999765,1.0,1.0,part_1,,,,,,,,,,,,,white,triangle
0.0,4.0,0.0,0.0,2.0,2.0,341.1244540000098,1.0,1.0,part_1,,,,,,,,,,,,,magenta,diamond
0.0,5.0,0.0,1.0,2.0,2.0,417.8116440000394,1.0,1.0,part_1,,,,,,,,,,,,,blue,square
0.0,4.0,0.0,0.0,2.0,2.0,351.52452900001657,1.0,1.0,part_1,,,,,,,,,,,,,magenta,diamond
399.0,8.0,4.0,1.0,1.0,1.0,564.2963210000289,1.0,1.0,part_1,,,,,,,,,,,,,yellow,flipped triangle
72.0,1.0,1.0,0.0,2.0,2.0,532.7798590001294,1.0,1.0,part_1,,,,,,,,,,,,,cyan,cross
415.0,4.0,4.0,0.0,4.0,4.0,483.7123709999105,2.0,1.0,part_1,,,,,,,,,,,,,magenta,diamond
0.0,1.0,0.0,0.0,2.0,2.0,403.3544840001468,2.0,1.0,part_1,,,,,,,,,,,,,cyan,cross
383.0,8.0,4.0,1.0,2.0,2.0,345.9328240001014,2.0,1.0,part_1,,,,,,,,,,,,,yellow,flipped triangle
0.0,1.0,0.0,0.0,4.0,4.0,283.95597500002617,2.0,2.0,part_1,,,,,,,,,,,,,cyan,cross
187.0,7.0,3.0,1.0,2.0,2.0,374.2078709999532,2.0,1.0,part_1,,,,,,,,,,,,,orange,hexagon
223.0,3.0,3.0,0.0,3.0,3.0,462.6925899999605,2.0,1.0,part_1,,,,,,,,,,,,,gray,circle
202.0,7.0,3.0,1.0,4.0,4.0,330.3624239999863,2.0,1.0,part_1,,,,,,,,,,,,,orange,hexagon
0.0,1.0,0.0,0.0,4.0,4.0,333.0378599998767,2.0,1.0,part_1,,,,,,,,,,,,,cyan,cross
376.0,8.0,4.0,1.0,3.0,3.0,508.608661000153,2.0,1.0,part_1,,,,,,,,,,,,,yellow,flipped triangle
73.0,1.0,1.0,0.0,4.0,4.0,366.7888780000794,2.0,1.0,part_1,,,,,,,,,,,,,cyan,cross
0.0,7.0,0.0,1.0,3.0,3.0,657.434430999956,2.0,1.0,part_1,,,,,,,,,,,,,orange,hexagon
223.0,7.0,3.0,1.0,1.0,1.0,632.7660029999151,2.0,1.0,part_1,,,,,,,,,,,,,orange,hexagon
98.0,6.0,2.0,1.0,4.0,4.0,366.5002029999868,2.0,1.0,part_1,,,,,,,,,,,,,green,I
200.0,7.0,3.0,1.0,2.0,2.0,284.0014299999893,2.0,1.0,part_1,,,,,,,,,,,,,orange,hexagon
223.0,3.0,3.0,0.0,2.0,2.0,372.0052629998918,2.0,2.0,part_1,,,,,,,,,,,,,gray,circle
411.0,8.0,4.0,1.0,3.0,3.0,416.6600030000609,2.0,1.0,part_1,,,,,,,,,,,,,yellow,flipped triangle
418.0,4.0,4.0,0.0,1.0,1.0,379.5929249999972,2.0,1.0,part_1,,,,,,,,,,,,,magenta,diamond
99.0,6.0,2.0,1.0,4.0,4.0,308.6824549998255,2.0,1.0,part_1,,,,,,,,,,,,,green,I
44.0,1.0,1.0,0.0,2.0,2.0,269.8879679999209,2.0,1.0,part_1,,,,,,,,,,,,,cyan,cross
106.0,6.0,2.0,1.0,4.0,4.0,329.2610299999978,2.0,1.0,part_1,,,,,,,,,,,,,green,I
218.0,3.0,3.0,0.0,1.0,1.0,429.1988719999153,2.0,1.0,part_1,,,,,,,,,,,,,gray,circle
92.0,2.0,2.0,0.0,3.0,3.0,383.6017250000623,2.0,1.0,part_1,,,,,,,,,,,,,white,triangle
397.0,4.0,4.0,0.0,3.0,3.0,419.0638029999718,2.0,1.0,part_1,,,,,,,,,,,,,magenta,diamond
217.0,7.0,3.0,1.0,3.0,3.0,401.2341430000106,2.0,1.0,part_1,,,,,,,,,,,,,orange,hexagon
404.0,8.0,4.0,1.0,4.0,4.0,286.2757350001175,2.0,1.0,part_1,,,,,,,,,,,,,yellow,flipped triangle
404.0,4.0,4.0,0.0,2.0,2.0,308.5197180000705,2.0,1.0,part_1,,,,,,,,,,,,,magenta,diamond
35.0,5.0,1.0,1.0,2.0,2.0,358.3918079998511,2.0,1.0,part_1,,,,,,,,,,,,,blue,square
60.0,5.0,1.0,1.0,3.0,3.0,491.2922290000097,2.0,1.0,part_1,,,,,,,,,,,,,blue,square
55.0,1.0,1.0,0.0,2.0,2.0,304.5793029998549,2.0,1.0,part_1,,,,,,,,,,,,,cyan,cross
0.0,1.0,0.0,0.0,2.0,2.0,383.8374480001221,2.0,1.0,part_1,,,,,,,,,,,,,cyan,cross
199.0,7.0,3.0,1.0,4.0,4.0,410.7664039997871,2.0,1.0,part_1,,,,,,,,,,,,,orange,hexagon
0.0,7.0,0.0,1.0,4.0,4.0,375.707119000026,2.0,1.0,part_1,,,,,,,,,,,,,orange,hexagon
182.0,7.0,3.0,1.0,1.0,1.0,464.2058289998658,2.0,1.0,part_1,,,,,,,,,,,,,orange,hexagon
51.0,5.0,1.0,1.0,2.0,2.0,384.8427899999933,2.0,1.0,part_1,,,,,,,,,,,,,blue,square
0.0,4.0,0.0,0.0,3.0,3.0,400.1614149999568,2.0,1.0,part_1,,,,,,,,,,,,,magenta,diamond
0.0,5.0,0.0,1.0,2.0,2.0,795.2532269998756,2.0,1.0,part_1,,,,,,,,,,,,,blue,square
45.0,5.0,1.0,1.0,2.0,2.0,461.4836230000492,2.0,1.0,part_1,,,,,,,,,,,,,blue,square
0.0,5.0,0.0,1.0,1.0,1.0,259.7401159998753,2.0,1.0,part_1,,,,,,,,,,,,,blue,square
70.0,1.0,1.0,0.0,1.0,1.0,483.1034010001076,2.0,1.0,part_1,,,,,,,,,,,,,cyan,cross
0.0,3.0,0.0,0.0,1.0,1.0,358.3879520001574,2.0,1.0,part_1,,,,,,,,,,,,,gray,circle
0.0,7.0,0.0,1.0,1.0,1.0,272.469276000038,2.0,1.0,part_1,,,,,,,,,,,,,orange,hexagon
30.0,5.0,1.0,1.0,1.0,1.0,257.8375779999078,2.0,1.0,part_1,,,,,,,,,,,,,blue,square
0.0,8.0,0.0,1.0,2.0,2.0,721.3994930000354,2.0,1.0,part_1,,,,,,,,,,,,,yellow,flipped triangle
198.0,3.0,3.0,0.0,4.0,4.0,474.7032870000112,2.0,1.0,part_1,,,,,,,,,,,,,gray,circle
37.0,1.0,1.0,0.0,2.0,2.0,325.145091999957,2.0,1.0,part_1,,,,,,,,,,,,,cyan,cross
176.0,3.0,3.0,0.0,4.0,4.0,402.1152269999675,2.0,1.0,part_1,,,,,,,,,,,,,gray,circle
395.0,8.0,4.0,1.0,1.0,1.0,848.0362119998972,2.0,1.0,part_1,,,,,,,,,,,,,yellow,flipped triangle
186.0,3.0,3.0,0.0,4.0,4.0,417.2255680000489,2.0,1.0,part_1,,,,,,,,,,,,,gray,circle
45.0,1.0,1.0,0.0,3.0,3.0,630.5270300001666,2.0,1.0,part_1,,,,,,,,,,,,,cyan,cross
48.0,1.0,1.0,0.0,3.0,3.0,604.853606000006,2.0,1.0,part_1,,,,,,,,,,,,,cyan,cross
383.0,8.0,4.0,1.0,4.0,4.0,433.8477620001413,2.0,1.0,part_1,,,,,,,,,,,,,yellow,flipped triangle
26.0,1.0,1.0,0.0,3.0,3.0,518.5842549999506,2.0,1.0,part_1,,,,,,,,,,,,,cyan,cross
384.0,4.0,4.0,0.0,2.0,2.0,438.6354230000506,2.0,1.0,part_1,,,,,,,,,,,,,magenta,diamond
217.0,7.0,3.0,1.0,1.0,1.0,306.0628690000158,2.0,1.0,part_1,,,,,,,,,,,,,orange,hexagon
36.0,5.0,1.0,1.0,3.0,3.0,388.5111950000919,2.0,1.0,part_1,,,,,,,,,,,,,blue,square
86.0,2.0,2.0,0.0,1.0,1.0,267.7635430000009,2.0,1.0,part_1,,,,,,,,,,,,,white,triangle
214.0,7.0,3.0,1.0,4.0,4.0,352.9608609999286,2.0,1.0,part_1,,,,,,,,,,,,,orange,hexagon
30.0,5.0,1.0,1.0,4.0,4.0,463.4131590000834,2.0,1.0,part_1,,,,,,,,,,,,,blue,square
41.0,1.0,1.0,0.0,3.0,3.0,458.6631050001415,2.0,1.0,part_1,,,,,,,,,,,,,cyan,cross
29.0,1.0,1.0,0.0,1.0,1.0,344.6499179999591,2.0,1.0,part_1,,,,,,,,,,,,,cyan,cross
176.0,7.0,3.0,1.0,4.0,4.0,467.2538820000227,2.0,1.0,part_1,,,,,,,,,,,,,orange,hexagon
102.0,2.0,2.0,0.0,4.0,4.0,459.4783420000112,2.0,1.0,part_1,,,,,,,,,,,,,white,triangle
380.0,8.0,4.0,1.0,4.0,4.0,304.3138420000559,2.0,1.0,part_1,,,,,,,,,,,,,yellow,flipped triangle
125.0,2.0,2.0,0.0,1.0,1.0,510.37053700019896,2.0,1.0,part_1,,,,,,,,,,,,,white,triangle
60.0,1.0,1.0,0.0,4.0,4.0,307.827503999988,2.0,1.0,part_1,,,,,,,,,,,,,cyan,cross
0.0,5.0,0.0,1.0,1.0,1.0,545.8826500000669,2.0,1.0,part_1,,,,,,,,,,,,,blue,square
75.0,5.0,1.0,1.0,3.0,3.0,509.83831600001395,2.0,1.0,part_1,,,,,,,,,,,,,blue,square
93.0,2.0,2.0,0.0,4.0,4.0,455.6160649999583,2.0,1.0,part_1,,,,,,,,,,,,,white,triangle
0.0,6.0,0.0,1.0,1.0,1.0,342.6434450000215,2.0,1.0,part_1,,,,,,,,,,,,,green,I
418.0,8.0,4.0,1.0,4.0,4.0,471.0144200000741,2.0,2.0,part_1,,,,,,,,,,,,,yellow,flipped triangle
0.0,2.0,0.0,0.0,2.0,2.0,400.1025499999286,2.0,1.0,part_1,,,,,,,,,,,,,white,triangle
55.0,5.0,1.0,1.0,4.0,4.0,383.580897999991,2.0,1.0,part_1,,,,,,,,,,,,,blue,square
384.0,8.0,4.0,1.0,1.0,1.0,408.3006979999481,2.0,1.0,part_1,,,,,,,,,,,,,yellow,flipped triangle
376.0,4.0,4.0,0.0,1.0,1.0,396.9601520000196,2.0,1.0,part_1,,,,,,,,,,,,,magenta,diamond
72.0,5.0,1.0,1.0,3.0,3.0,469.7157210000569,2.0,1.0,part_1,,,,,,,,,,,,,blue,square
0.0,5.0,0.0,1.0,2.0,2.0,428.7900520000676,2.0,2.0,part_1,,,,,,,,,,,,,blue,square
75.0,6.0,2.0,1.0,4.0,4.0,434.3267340000238,2.0,2.0,part_1,,,,,,,,,,,,,green,I
195.0,3.0,3.0,0.0,3.0,3.0,445.1420600000801,2.0,1.0,part_1,,,,,,,,,,,,,gray,circle
0.0,8.0,0.0,1.0,2.0,2.0,417.5740749999477,2.0,1.0,part_1,,,,,,,,,,,,,yellow,flipped triangle
377.0,4.0,4.0,0.0,2.0,2.0,590.4954140000882,2.0,1.0,part_1,,,,,,,,,,,,,magenta,diamond
410.0,4.0,4.0,0.0,1.0,1.0,576.3817059998928,2.0,1.0,part_1,,,,,,,,,,,,,magenta,diamond
0.0,5.0,0.0,1.0,3.0,3.0,444.7385070000109,2.0,1.0,part_1,,,,,,,,,,,,,blue,square
378.0,8.0,4.0,1.0,3.0,3.0,375.3898840000147,2.0,1.0,part_1,,,,,,,,,,,,,yellow,flipped triangle
209.0,3.0,3.0,0.0,2.0,2.0,591.5694750001421,2.0,1.0,part_1,,,,,,,,,,,,,gray,circle
92.0,6.0,2.0,1.0,2.0,2.0,949.8092940000332,2.0,1.0,part_1,,,,,,,,,,,,,green,I
385.0,4.0,4.0,0.0,3.0,3.0,610.3172309999536,2.0,1.0,part_1,,,,,,,,,,,,,magenta,diamond
106.0,2.0,2.0,0.0,4.0,4.0,437.2133049998865,2.0,1.0,part_1,,,,,,,,,,,,,white,triangle
51.0,1.0,1.0,0.0,1.0,1.0,426.8845209999199,2.0,1.0,part_1,,,,,,,,,,,,,cyan,cross
0.0,6.0,0.0,1.0,4.0,4.0,536.2103899999511,2.0,1.0,part_1,,,,,,,,,,,,,green,I
112.0,6.0,2.0,1.0,2.0,2.0,578.5166030000255,2.0,1.0,part_1,,,,,,,,,,,,,green,I
0.0,8.0,0.0,1.0,3.0,3.0,401.9506170000113,2.0,1.0,part_1,,,,,,,,,,,,,yellow,flipped triangle
0.0,3.0,0.0,0.0,1.0,1.0,469.452887999978,2.0,1.0,part_1,,,,,,,,,,,,,gray,circle
178.0,3.0,3.0,0.0,3.0,3.0,476.479726999969,2.0,1.0,part_1,,,,,,,,,,,,,gray,circle
211.0,3.0,3.0,0.0,3.0,3.0,531.4745349999157,2.0,1.0,part_1,,,,,,,,,,,,,gray,circle
98.0,6.0,2.0,1.0,4.0,4.0,605.0593340000887,2.0,1.0,part_1,,,,,,,,,,,,,green,I
100.0,2.0,2.0,0.0,1.0,1.0,475.0564900000427,2.0,1.0,part_1,,,,,,,,,,,,,white,triangle
393.0,8.0,4.0,1.0,4.0,4.0,578.2705680001072,2.0,1.0,part_1,,,,,,,,,,,,,yellow,flipped triangle
191.0,3.0,3.0,0.0,2.0,2.0,357.3099709999496,2.0,1.0,part_1,,,,,,,,,,,,,gray,circle
418.0,8.0,4.0,1.0,2.0,2.0,440.0359049998315,2.0,1.0,part_1,,,,,,,,,,,,,yellow,flipped triangle
182.0,3.0,3.0,0.0,1.0,1.0,393.5509630000524,2.0,1.0,part_1,,,,,,,,,,,,,gray,circle
397.0,8.0,4.0,1.0,1.0,1.0,364.8514139999861,3.0,1.0,part_1,,,,,,,,,,,,,yellow,flipped triangle
387.0,4.0,4.0,0.0,1.0,1.0,423.0536200000188,3.0,1.0,part_1,,,,,,,,,,,,,magenta,diamond
0.0,7.0,0.0,1.0,4.0,4.0,310.0990599998567,3.0,1.0,part_1,,,,,,,,,,,,,orange,hexagon
79.0,2.0,2.0,0.0,4.0,4.0,401.0756650000076,3.0,1.0,part_1,,,,,,,,,,,,,white,triangle
41.0,1.0,1.0,0.0,4.0,4.0,289.4199560000743,3.0,1.0,part_1,,,,,,,,,,,,,cyan,cross
0.0,2.0,0.0,0.0,1.0,1.0,441.301815000088,3.0,1.0,part_1,,,,,,,,,,,,,white,triangle
380.0,4.0,4.0,0.0,4.0,4.0,271.9367269999111,3.0,1.0,part_1,,,,,,,,,,,,,magenta,diamond
407.0,4.0,4.0,0.0,4.0,4.0,338.2325819998186,3.0,1.0,part_1,,,,,,,,,,,,,magenta,diamond
119.0,2.0,2.0,0.0,2.0,2.0,322.3513479999838,3.0,1.0,part_1,,,,,,,,,,,,,white,triangle
102.0,6.0,2.0,1.0,3.0,3.0,341.5530529998705,3.0,1.0,part_1,,,,,,,,,,,,,green,I
209.0,7.0,3.0,1.0,1.0,1.0,295.8756359998915,3.0,1.0,part_1,,,,,,,,,,,,,orange,hexagon
50.0,1.0,1.0,0.0,2.0,2.0,322.9228850000254,3.0,1.0,part_1,,,,,,,,,,,,,cyan,cross
0.0,5.0,0.0,1.0,1.0,1.0,307.5415590001285,3.0,1.0,part_1,,,,,,,,,,,,,blue,square
0.0,8.0,0.0,1.0,1.0,1.0,368.5249759998896,3.0,1.0,part_1,,,,,,,,,,,,,yellow,flipped triangle
399.0,4.0,4.0,0.0,3.0,3.0,443.5510979999435,3.0,1.0,part_1,,,,,,,,,,,,,magenta,diamond
0.0,2.0,0.0,0.0,3.0,3.0,382.4807809999129,3.0,1.0,part_1,,,,,,,,,,,,,white,triangle
74.0,5.0,1.0,1.0,4.0,4.0,323.52299699982717,3.0,1.0,part_1,,,,,,,,,,,,,blue,square
75.0,1.0,1.0,0.0,2.0,2.0,315.060123999956,3.0,1.0,part_1,,,,,,,,,,,,,cyan,cross
416.0,4.0,4.0,0.0,2.0,2.0,371.0175169999274,3.0,1.0,part_1,,,,,,,,,,,,,magenta,diamond
105.0,6.0,2.0,1.0,1.0,1.0,263.3544499999516,3.0,1.0,part_1,,,,,,,,,,,,,green,I
0.0,1.0,0.0,0.0,3.0,3.0,327.0092989998829,3.0,1.0,part_1,,,,,,,,,,,,,cyan,cross
403.0,8.0,4.0,1.0,4.0,4.0,250.0187359999017,3.0,1.0,part_1,,,,,,,,,,,,,yellow,flipped triangle
396.0,8.0,4.0,1.0,1.0,1.0,298.1229130000429,3.0,1.0,part_1,,,,,,,,,,,,,yellow,flipped triangle
421.0,4.0,4.0,0.0,4.0,4.0,289.5753609998337,3.0,1.0,part_1,,,,,,,,,,,,,magenta,diamond
117.0,6.0,2.0,1.0,3.0,3.0,380.12027700006,3.0,1.0,part_1,,,,,,,,,,,,,green,I
0.0,8.0,0.0,1.0,2.0,2.0,273.699754999825,3.0,1.0,part_1,,,,,,,,,,,,,yellow,flipped triangle
95.0,2.0,2.0,0.0,4.0,4.0,399.6848330000375,3.0,1.0,part_1,,,,,,,,,,,,,white,triangle
125.0,6.0,2.0,1.0,1.0,1.0,351.2585619998845,3.0,1.0,part_1,,,,,,,,,,,,,green,I
177.0,3.0,3.0,0.0,1.0,1.0,379.2324329999701,3.0,1.0,part_1,,,,,,,,,,,,,gray,circle
0.0,8.0,0.0,1.0,1.0,1.0,405.5194289999235,3.0,1.0,part_1,,,,,,,,,,,,,yellow,flipped triangle
80.0,6.0,2.0,1.0,2.0,2.0,507.5592539999434,3.0,1.0,part_1,,,,,,,,,,,,,green,I
0.0,7.0,0.0,1.0,3.0,3.0,405.1842839999153,3.0,1.0,part_1,,,,,,,,,,,,,orange,hexagon
425.0,4.0,4.0,0.0,2.0,2.0,450.7301079997887,3.0,1.0,part_1,,,,,,,,,,,,,magenta,diamond
177.0,3.0,3.0,0.0,1.0,1.0,408.6407859999781,3.0,1.0,part_1,,,,,,,,,,,,,gray,circle
89.0,6.0,2.0,1.0,2.0,2.0,415.2076519999355,3.0,1.0,part_1,,,,,,,,,,,,,green,I
30.0,1.0,1.0,0.0,2.0,2.0,393.1988219999311,3.0,1.0,part_1,,,,,,,,,,,,,cyan,cross
187.0,3.0,3.0,0.0,2.0,2.0,322.6752760001545,3.0,1.0,part_1,,,,,,,,,,,,,gray,circle
0.0,1.0,0.0,0.0,2.0,2.0,303.0820280000625,3.0,1.0,part_1,,,,,,,,,,,,,cyan,cross
35.0,5.0,1.0,1.0,4.0,4.0,401.8979659999786,3.0,1.0,part_1,,,,,,,,,,,,,blue,square
27.0,1.0,1.0,0.0,4.0,4.0,375.9086810000553,3.0,1.0,part_1,,,,,,,,,,,,,cyan,cross
0.0,4.0,0.0,0.0,4.0,4.0,268.4684610001113,3.0,1.0,part_1,,,,,,,,,,,,,magenta,diamond
74.0,1.0,1.0,0.0,4.0,4.0,347.2137859998838,3.0,1.0,part_1,,,,,,,,,,,,,cyan,cross
218.0,3.0,3.0,0.0,4.0,4.0,301.63999100000177,3.0,1.0,part_1,,,,,,,,,,,,,gray,circle
80.0,2.0,2.0,0.0,4.0,4.0,302.7236569998877,3.0,1.0,part_1,,,,,,,,,,,,,white,triangle
214.0,3.0,3.0,0.0,2.0,2.0,457.8522350000185,3.0,1.0,part_1,,,,,,,,,,,,,gray,circle
176.0,7.0,3.0,1.0,1.0,1.0,406.0863039999276,3.0,1.0,part_1,,,,,,,,,,,,,orange,hexagon
211.0,7.0,3.0,1.0,4.0,4.0,322.8897640001378,3.0,1.0,part_1,,,,,,,,,,,,,orange,hexagon
95.0,6.0,2.0,1.0,2.0,2.0,288.5307880001164,3.0,1.0,part_1,,,,,,,,,,,,,green,I
210.0,7.0,3.0,1.0,1.0,1.0,412.0973809999668,3.0,1.0,part_1,,,,,,,,,,,,,orange,hexagon
191.0,7.0,3.0,1.0,3.0,3.0,591.4054029999534,3.0,1.0,part_1,,,,,,,,,,,,,orange,hexagon
190.0,7.0,3.0,1.0,3.0,3.0,855.8120870000039,3.0,1.0,part_1,,,,,,,,,,,,,orange,hexagon
421.0,4.0,4.0,0.0,1.0,1.0,423.6255379998965,3.0,1.0,part_1,,,,,,,,,,,,,magenta,diamond
400.0,4.0,4.0,0.0,1.0,1.0,343.100123999875,3.0,1.0,part_1,,,,,,,,,,,,,magenta,diamond
112.0,2.0,2.0,0.0,2.0,2.0,438.6852659999931,3.0,1.0,part_1,,,,,,,,,,,,,white,triangle
217.0,3.0,3.0,0.0,1.0,1.0,463.332365000042,3.0,1.0,part_1,,,,,,,,,,,,,gray,circle
50.0,5.0,1.0,1.0,1.0,1.0,372.5739510000494,3.0,1.0,part_1,,,,,,,,,,,,,blue,square
415.0,8.0,4.0,1.0,4.0,4.0,444.9673350000012,3.0,2.0,part_1,,,,,,,,,,,,,yellow,flipped triangle
383.0,4.0,4.0,0.0,2.0,2.0,298.00117199988557,3.0,1.0,part_1,,,,,,,,,,,,,magenta,diamond
0.0,3.0,0.0,0.0,2.0,2.0,358.557269999892,3.0,1.0,part_1,,,,,,,,,,,,,gray,circle
422.0,4.0,4.0,0.0,4.0,4.0,479.3573619999733,3.0,1.0,part_1,,,,,,,,,,,,,magenta,diamond
41.0,1.0,1.0,0.0,1.0,1.0,400.7447409999258,3.0,1.0,part_1,,,,,,,,,,,,,cyan,cross
30.0,1.0,1.0,0.0,2.0,2.0,321.0632529999202,3.0,1.0,part_1,,,,,,,,,,,,,cyan,cross
0.0,6.0,0.0,1.0,2.0,2.0,585.4823020001731,3.0,1.0,part_1,,,,,,,,,,,,,green,I
410.0,8.0,4.0,1.0,1.0,1.0,331.2890740000966,3.0,1.0,part_1,,,,,,,,,,,,,yellow,flipped triangle
40.0,1.0,1.0,0.0,3.0,3.0,339.9807789999158,3.0,1.0,part_1,,,,,,,,,,,,,cyan,cross
44.0,5.0,1.0,1.0,3.0,3.0,619.3694399999004,3.0,1.0,part_1,,,,,,,,,,,,,blue,square
377.0,8.0,4.0,1.0,4.0,4.0,419.7302990000935,3.0,1.0,part_1,,,,,,,,,,,,,yellow,flipped triangle
97.0,2.0,2.0,0.0,4.0,4.0,474.5784790000016,3.0,1.0,part_1,,,,,,,,,,,,,white,triangle
90.0,2.0,2.0,0.0,4.0,4.0,358.3646460001546,3.0,1.0,part_1,,,,,,,,,,,,,white,triangle
218.0,7.0,3.0,1.0,2.0,2.0,486.6606929999761,3.0,1.0,part_1,,,,,,,,,,,,,orange,hexagon
60.0,5.0,1.0,1.0,2.0,2.0,483.010884000123,3.0,1.0,part_1,,,,,,,,,,,,,blue,square
79.0,6.0,2.0,1.0,4.0,4.0,422.2456299999066,3.0,1.0,part_1,,,,,,,,,,,,,green,I
0.0,1.0,0.0,0.0,1.0,1.0,364.8631260000456,3.0,1.0,part_1,,,,,,,,,,,,,cyan,cross
98.0,2.0,2.0,0.0,1.0,1.0,364.373925999871,3.0,1.0,part_1,,,,,,,,,,,,,white,triangle
0.0,6.0,0.0,1.0,2.0,2.0,382.4604569999792,3.0,1.0,part_1,,,,,,,,,,,,,green,I
409.0,8.0,4.0,1.0,2.0,2.0,652.3582879999594,3.0,1.0,part_1,,,,,,,,,,,,,yellow,flipped triangle
0.0,2.0,0.0,0.0,2.0,2.0,490.6436339997526,3.0,1.0,part_1,,,,,,,,,,,,,white,triangle
177.0,7.0,3.0,1.0,2.0,2.0,367.198283000107,3.0,1.0,part_1,,,,,,,,,,,,,orange,hexagon
82.0,6.0,2.0,1.0,1.0,1.0,326.4808129997618,3.0,1.0,part_1,,,,,,,,,,,,,green,I
0.0,4.0,0.0,0.0,2.0,2.0,538.8601669997115,3.0,1.0,part_1,,,,,,,,,,,,,magenta,diamond
176.0,3.0,3.0,0.0,4.0,4.0,582.0128689997546,3.0,1.0,part_1,,,,,,,,,,,,,gray,circle
54.0,1.0,1.0,0.0,1.0,1.0,373.4433269996771,3.0,1.0,part_1,,,,,,,,,,,,,cyan,cross
54.0,5.0,1.0,1.0,1.0,1.0,447.2918040000877,3.0,1.0,part_1,,,,,,,,,,,,,blue,square
123.0,2.0,2.0,0.0,2.0,2.0,372.0488339999974,3.0,1.0,part_1,,,,,,,,,,,,,white,triangle
47.0,5.0,1.0,1.0,1.0,1.0,518.462338000063,3.0,1.0,part_1,,,,,,,,,,,,,blue,square
41.0,5.0,1.0,1.0,1.0,1.0,610.2122279999094,3.0,1.0,part_1,,,,,,,,,,,,,blue,square
29.0,5.0,1.0,1.0,3.0,3.0,409.4788779998453,3.0,2.0,part_1,,,,,,,,,,,,,blue,square
89.0,2.0,2.0,0.0,2.0,2.0,555.6893570001193,3.0,1.0,part_1,,,,,,,,,,,,,white,triangle
0.0,4.0,0.0,0.0,2.0,2.0,629.4095399998696,3.0,1.0,part_1,,,,,,,,,,,,,magenta,diamond
415.0,8.0,4.0,1.0,4.0,4.0,611.522315000002,3.0,1.0,part_1,,,,,,,,,,,,,yellow,flipped triangle
0.0,7.0,0.0,1.0,3.0,3.0,587.8929089999474,3.0,1.0,part_1,,,,,,,,,,,,,orange,hexagon
72.0,1.0,1.0,0.0,4.0,4.0,499.5048569999198,3.0,1.0,part_1,,,,,,,,,,,,,cyan,cross
48.0,5.0,1.0,1.0,4.0,4.0,383.6293370000021,3.0,1.0,part_1,,,,,,,,,,,,,blue,square
108.0,6.0,2.0,1.0,3.0,3.0,415.0207190000401,3.0,1.0,part_1,,,,,,,,,,,,,green,I
182.0,7.0,3.0,1.0,1.0,1.0,262.2310070000822,3.0,1.0,part_1,,,,,,,,,,,,,orange,hexagon
216.0,7.0,3.0,1.0,1.0,1.0,363.6485209999591,3.0,1.0,part_1,,,,,,,,,,,,,orange,hexagon
216.0,3.0,3.0,0.0,2.0,2.0,325.3523540001879,3.0,1.0,part_1,,,,,,,,,,,,,gray,circle
47.0,1.0,1.0,0.0,4.0,4.0,413.0214120000346,3.0,1.0,part_1,,,,,,,,,,,,,cyan,cross
86.0,2.0,2.0,0.0,2.0,2.0,432.7813370000513,3.0,1.0,part_1,,,,,,,,,,,,,white,triangle
57.0,1.0,1.0,0.0,4.0,4.0,341.548684999907,3.0,1.0,part_1,,,,,,,,,,,,,cyan,cross
112.0,6.0,2.0,1.0,3.0,3.0,602.7333140000337,4.0,1.0,part_1,,,,,,,,,,,,,green,I
0.0,6.0,0.0,1.0,2.0,2.0,324.5247500003643,4.0,1.0,part_1,,,,,,,,,,,,,green,I
34.0,1.0,1.0,0.0,1.0,1.0,339.8399269999572,4.0,1.0,part_1,,,,,,,,,,,,,cyan,cross
0.0,3.0,0.0,0.0,4.0,4.0,298.1190139998944,4.0,1.0,part_1,,,,,,,,,,,,,gray,circle
0.0,1.0,0.0,0.0,1.0,1.0,246.5428710002015,4.0,1.0,part_1,,,,,,,,,,,,,cyan,cross
98.0,2.0,2.0,0.0,1.0,1.0,359.8201880004126,4.0,1.0,part_1,,,,,,,,,,,,,white,triangle
89.0,2.0,2.0,0.0,3.0,3.0,455.8186190001834,4.0,1.0,part_1,,,,,,,,,,,,,white,triangle
410.0,8.0,4.0,1.0,4.0,4.0,279.4543989998601,4.0,1.0,part_1,,,,,,,,,,,,,yellow,flipped triangle
40.0,5.0,1.0,1.0,2.0,2.0,617.8871229999459,4.0,1.0,part_1,,,,,,,,,,,,,blue,square
176.0,7.0,3.0,1.0,3.0,3.0,510.406815999886,4.0,1.0,part_1,,,,,,,,,,,,,orange,hexagon
117.0,2.0,2.0,0.0,1.0,1.0,519.1562959998919,4.0,1.0,part_1,,,,,,,,,,,,,white,triangle
106.0,6.0,2.0,1.0,4.0,4.0,315.3100210001867,4.0,1.0,part_1,,,,,,,,,,,,,green,I
409.0,4.0,4.0,0.0,2.0,2.0,330.4698389997611,4.0,1.0,part_1,,,,,,,,,,,,,magenta,diamond
391.0,4.0,4.0,0.0,4.0,4.0,400.9117770001467,4.0,1.0,part_1,,,,,,,,,,,,,magenta,diamond
41.0,5.0,1.0,1.0,3.0,3.0,301.5240479999193,4.0,1.0,part_1,,,,,,,,,,,,,blue,square
403.0,8.0,4.0,1.0,2.0,2.0,328.6407519999557,4.0,1.0,part_1,,,,,,,,,,,,,yellow,flipped triangle
0.0,2.0,0.0,0.0,2.0,2.0,321.6798139997081,4.0,1.0,part_1,,,,,,,,,,,,,white,triangle
63.0,1.0,1.0,0.0,1.0,1.0,305.5647149999458,4.0,1.0,part_1,,,,,,,,,,,,,cyan,cross
0.0,3.0,0.0,0.0,4.0,4.0,301.1369040000318,4.0,1.0,part_1,,,,,,,,,,,,,gray,circle
112.0,2.0,2.0,0.0,2.0,2.0,498.5728739998194,4.0,1.0,part_1,,,,,,,,,,,,,white,triangle
0.0,2.0,0.0,0.0,4.0,4.0,565.6544680000479,4.0,1.0,part_1,,,,,,,,,,,,,white,triangle
63.0,5.0,1.0,1.0,1.0,1.0,314.5206050003253,4.0,1.0,part_1,,,,,,,,,,,,,blue,square
201.0,7.0,3.0,1.0,1.0,1.0,349.3262889996913,4.0,1.0,part_1,,,,,,,,,,,,,orange,hexagon
0.0,5.0,0.0,1.0,3.0,3.0,488.7280670000109,4.0,1.0,part_1,,,,,,,,,,,,,blue,square
72.0,5.0,1.0,1.0,3.0,3.0,487.4205380001513,4.0,1.0,part_1,,,,,,,,,,,,,blue,square
182.0,3.0,3.0,0.0,2.0,2.0,349.9151449996134,4.0,1.0,part_1,,,,,,,,,,,,,gray,circle
34.0,5.0,1.0,1.0,1.0,1.0,304.2877830002908,4.0,1.0,part_1,,,,,,,,,,,,,blue,square
26.0,5.0,1.0,1.0,1.0,1.0,525.2938170001471,4.0,1.0,part_1,,,,,,,,,,,,,blue,square
112.0,6.0,2.0,1.0,4.0,4.0,742.4860320002153,4.0,1.0,part_1,,,,,,,,,,,,,green,I
87.0,6.0,2.0,1.0,1.0,1.0,386.5509239999483,4.0,1.0,part_1,,,,,,,,,,,,,green,I
0.0,7.0,0.0,1.0,3.0,3.0,478.2283819999975,4.0,1.0,part_1,,,,,,,,,,,,,orange,hexagon
36.0,1.0,1.0,0.0,2.0,2.0,329.0119640000739,4.0,1.0,part_1,,,,,,,,,,,,,cyan,cross
60.0,1.0,1.0,0.0,3.0,3.0,434.6976450001421,4.0,1.0,part_1,,,,,,,,,,,,,cyan,cross
100.0,2.0,2.0,0.0,3.0,3.0,433.1036739999945,4.0,1.0,part_1,,,,,,,,,,,,,white,triangle
396.0,4.0,4.0,0.0,3.0,3.0,480.5183039998155,4.0,1.0,part_1,,,,,,,,,,,,,magenta,diamond
192.0,3.0,3.0,0.0,3.0,3.0,394.052080000165,4.0,2.0,part_1,,,,,,,,,,,,,gray,circle
211.0,3.0,3.0,0.0,4.0,4.0,839.1880819999642,4.0,1.0,part_1,,,,,,,,,,,,,gray,circle
183.0,7.0,3.0,1.0,2.0,2.0,472.9560770001626,4.0,1.0,part_1,,,,,,,,,,,,,orange,hexagon
0.0,1.0,0.0,0.0,1.0,1.0,544.5447629999762,4.0,1.0,part_1,,,,,,,,,,,,,cyan,cross
46.0,1.0,1.0,0.0,4.0,4.0,486.5922240001055,4.0,1.0,part_1,,,,,,,,,,,,,cyan,cross
421.0,8.0,4.0,1.0,3.0,3.0,454.37313299999,4.0,1.0,part_1,,,,,,,,,,,,,yellow,flipped triangle
414.0,4.0,4.0,0.0,4.0,4.0,592.6478850001331,4.0,1.0,part_1,,,,,,,,,,,,,magenta,diamond
0.0,3.0,0.0,0.0,3.0,3.0,484.4532280003477,4.0,1.0,part_1,,,,,,,,,,,,,gray,circle
73.0,5.0,1.0,1.0,2.0,2.0,545.6182780003473,4.0,1.0,part_1,,,,,,,,,,,,,blue,square
112.0,2.0,2.0,0.0,3.0,3.0,529.9828729998808,4.0,1.0,part_1,,,,,,,,,,,,,white,triangle
41.0,5.0,1.0,1.0,2.0,2.0,697.9258710002796,4.0,1.0,part_1,,,,,,,,,,,,,blue,square
43.0,1.0,1.0,0.0,3.0,3.0,446.619721999923,4.0,1.0,part_1,,,,,,,,,,,,,cyan,cross
217.0,7.0,3.0,1.0,2.0,2.0,377.3839949999455,4.0,1.0,part_1,,,,,,,,,,,,,orange,hexagon
415.0,4.0,4.0,0.0,3.0,3.0,543.4110450000844,4.0,1.0,part_1,,,,,,,,,,,,,magenta,diamond
403.0,4.0,4.0,0.0,3.0,3.0,522.8338880001502,4.0,1.0,part_1,,,,,,,,,,,,,magenta,diamond
0.0,2.0,0.0,0.0,3.0,3.0,438.9550480000252,4.0,1.0,part_1,,,,,,,,,,,,,white,triangle
200.0,3.0,3.0,0.0,1.0,1.0,511.273521000021,4.0,1.0,part_1,,,,,,,,,,,,,gray,circle
410.0,4.0,4.0,0.0,4.0,4.0,411.4809920001789,4.0,1.0,part_1,,,,,,,,,,,,,magenta,diamond
37.0,5.0,1.0,1.0,2.0,2.0,437.140607999936,4.0,1.0,part_1,,,,,,,,,,,,,blue,square
86.0,6.0,2.0,1.0,1.0,1.0,381.2805909997223,4.0,1.0,part_1,,,,,,,,,,,,,green,I
211.0,3.0,3.0,0.0,1.0,1.0,428.4659089998968,4.0,1.0,part_1,,,,,,,,,,,,,gray,circle
198.0,7.0,3.0,1.0,4.0,4.0,449.9983939999765,4.0,1.0,part_1,,,,,,,,,,,,,orange,hexagon
119.0,6.0,2.0,1.0,1.0,1.0,397.943922000195,4.0,1.0,part_1,,,,,,,,,,,,,green,I
223.0,7.0,3.0,1.0,2.0,2.0,460.7965929999409,4.0,1.0,part_1,,,,,,,,,,,,,orange,hexagon
73.0,1.0,1.0,0.0,4.0,4.0,925.3270140002314,4.0,1.0,part_1,,,,,,,,,,,,,cyan,cross
0.0,5.0,0.0,1.0,3.0,3.0,561.3706730000558,4.0,1.0,part_1,,,,,,,,,,,,,blue,square
178.0,7.0,3.0,1.0,3.0,3.0,375.1595030003045,4.0,1.0,part_1,,,,,,,,,,,,,orange,hexagon
177.0,7.0,3.0,1.0,3.0,3.0,421.8094970001402,4.0,1.0,part_1,,,,,,,,,,,,,orange,hexagon
409.0,4.0,4.0,0.0,1.0,1.0,415.421201999834,4.0,1.0,part_1,,,,,,,,,,,,,magenta,diamond
0.0,5.0,0.0,1.0,1.0,1.0,426.8033670000477,4.0,1.0,part_1,,,,,,,,,,,,,blue,square
0.0,8.0,0.0,1.0,3.0,3.0,502.92088500009413,4.0,1.0,part_1,,,,,,,,,,,,,yellow,flipped triangle
187.0,3.0,3.0,0.0,3.0,3.0,442.2177490000649,4.0,1.0,part_1,,,,,,,,,,,,,gray,circle
210.0,3.0,3.0,0.0,4.0,4.0,593.8585060002879,4.0,1.0,part_1,,,,,,,,,,,,,gray,circle
176.0,3.0,3.0,0.0,3.0,3.0,412.3837360002653,4.0,1.0,part_1,,,,,,,,,,,,,gray,circle
55.0,1.0,1.0,0.0,1.0,1.0,530.8505899997726,4.0,1.0,part_1,,,,,,,,,,,,,cyan,cross
93.0,6.0,2.0,1.0,1.0,1.0,434.9628559998564,4.0,1.0,part_1,,,,,,,,,,,,,green,I
0.0,3.0,0.0,0.0,2.0,2.0,506.7929719998574,4.0,1.0,part_1,,,,,,,,,,,,,gray,circle
122.0,6.0,2.0,1.0,3.0,3.0,411.7702290000125,4.0,1.0,part_1,,,,,,,,,,,,,green,I
0.0,8.0,0.0,1.0,3.0,3.0,495.4171170002155,4.0,1.0,part_1,,,,,,,,,,,,,yellow,flipped triangle
192.0,7.0,3.0,1.0,4.0,4.0,480.6558139998742,4.0,2.0,part_1,,,,,,,,,,,,,orange,hexagon
45.0,1.0,1.0,0.0,1.0,1.0,390.0708109999868,4.0,1.0,part_1,,,,,,,,,,,,,cyan,cross
120.0,2.0,2.0,0.0,3.0,3.0,471.7189670000152,4.0,1.0,part_1,,,,,,,,,,,,,white,triangle
0.0,6.0,0.0,1.0,4.0,4.0,331.1343209998085,4.0,1.0,part_1,,,,,,,,,,,,,green,I
100.0,6.0,2.0,1.0,1.0,1.0,365.443144999972,4.0,1.0,part_1,,,,,,,,,,,,,green,I
0.0,6.0,0.0,1.0,1.0,1.0,400.5373820000386,4.0,1.0,part_1,,,,,,,,,,,,,green,I
0.0,7.0,0.0,1.0,3.0,3.0,499.1283979998115,4.0,1.0,part_1,,,,,,,,,,,,,orange,hexagon
52.0,1.0,1.0,0.0,1.0,1.0,393.9239869996527,4.0,1.0,part_1,,,,,,,,,,,,,cyan,cross
211.0,7.0,3.0,1.0,4.0,4.0,877.8319250000095,4.0,1.0,part_1,,,,,,,,,,,,,orange,hexagon
87.0,2.0,2.0,0.0,3.0,3.0,908.3973259998857,4.0,1.0,part_1,,,,,,,,,,,,,white,triangle
190.0,3.0,3.0,0.0,2.0,2.0,652.0600270000614,4.0,1.0,part_1,,,,,,,,,,,,,gray,circle
35.0,1.0,1.0,0.0,3.0,3.0,647.9683870002191,4.0,1.0,part_1,,,,,,,,,,,,,cyan,cross
116.0,2.0,2.0,0.0,4.0,4.0,683.6110869999175,4.0,1.0,part_1,,,,,,,,,,,,,white,triangle
410.0,8.0,4.0,1.0,1.0,1.0,385.4416389999642,4.0,1.0,part_1,,,,,,,,,,,,,yellow,flipped triangle
222.0,3.0,3.0,0.0,4.0,4.0,508.4544950000236,4.0,1.0,part_1,,,,,,,,,,,,,gray,circle
411.0,4.0,4.0,0.0,1.0,1.0,519.8688750001565,4.0,1.0,part_1,,,,,,,,,,,,,magenta,diamond
425.0,8.0,4.0,1.0,2.0,2.0,555.109598999934,4.0,1.0,part_1,,,,,,,,,,,,,yellow,flipped triangle
0.0,6.0,0.0,1.0,2.0,2.0,541.008746999978,4.0,1.0,part_1,,,,,,,,,,,,,green,I
0.0,4.0,0.0,0.0,4.0,4.0,407.3103010000523,4.0,1.0,part_1,,,,,,,,,,,,,magenta,diamond
0.0,6.0,0.0,1.0,3.0,3.0,466.9417099999009,4.0,1.0,part_1,,,,,,,,,,,,,green,I
391.0,4.0,4.0,0.0,3.0,3.0,561.1950429997705,4.0,1.0,part_1,,,,,,,,,,,,,magenta,diamond
400.0,8.0,4.0,1.0,1.0,1.0,275.8795350000582,4.0,1.0,part_1,,,,,,,,,,,,,yellow,flipped triangle
391.0,8.0,4.0,1.0,2.0,2.0,750.136060999921,4.0,1.0,part_1,,,,,,,,,,,,,yellow,flipped triangle
43.0,5.0,1.0,1.0,4.0,4.0,650.8326930002113,4.0,1.0,part_1,,,,,,,,,,,,,blue,square
410.0,4.0,4.0,0.0,4.0,4.0,352.8022400000736,4.0,1.0,part_1,,,,,,,,,,,,,magenta,diamond
78.0,6.0,2.0,1.0,3.0,3.0,429.2988780002815,4.0,1.0,part_1,,,,,,,,,,,,,green,I
0.0,5.0,1.0,1.0,5.0,1.0,399.576541999977,1.0,0.0,part_2,stop,250.0,250.0,3.0,,,,,,,,,blue,square
0.0,4.0,4.0,0.0,5.0,1.0,430.7619760002126,1.0,0.0,part_2,go,200.0,250.0,2.0,,,,,,,,,magenta,diamond
0.0,7.0,3.0,1.0,6.0,0.0,0.0,1.0,0.0,part_2,stop,200.0,250.0,4.0,,,,,,,,,orange,hexagon
0.0,3.0,3.0,0.0,5.0,1.0,375.1436110001123,1.0,0.0,part_2,go,200.0,300.0,2.0,,,,,,,,,gray,circle
0.0,5.0,1.0,1.0,6.0,0.0,0.0,1.0,0.0,part_2,stop,200.0,300.0,4.0,,,,,,,,,blue,square
0.0,5.0,1.0,1.0,6.0,0.0,0.0,1.0,0.0,part_2,stop,200.0,350.0,4.0,,,,,,,,,blue,square
0.0,7.0,3.0,1.0,6.0,0.0,0.0,1.0,0.0,part_2,stop,200.0,400.0,4.0,,,,,,,,,orange,hexagon
0.0,2.0,2.0,0.0,5.0,1.0,734.4784219999383,1.0,0.0,part_2,go,200.0,450.0,2.0,,,,,,,,,white,triangle
0.0,6.0,2.0,1.0,5.0,0.0,0.0,1.0,0.0,part_2,stop,200.0,450.0,4.0,,,,,,,,,green,I
0.0,7.0,3.0,1.0,6.0,0.0,0.0,1.0,0.0,part_2,stop,250.0,450.0,4.0,,,,,,,,,orange,hexagon
0.0,3.0,3.0,0.0,5.0,1.0,728.986015999908,1.0,0.0,part_2,go,250.0,500.0,2.0,,,,,,,,,gray,circle
0.0,5.0,1.0,1.0,6.0,6.0,768.2873840003595,1.0,0.0,part_2,go,250.0,500.0,1.0,,,,,,,,,blue,square
0.0,1.0,1.0,0.0,5.0,1.0,893.2668759998705,1.0,0.0,part_2,go,250.0,500.0,2.0,,,,,,,,,cyan,cross
0.0,8.0,4.0,1.0,6.0,6.0,646.2063310000303,1.0,0.0,part_2,stop,250.0,500.0,3.0,,,,,,,,,yellow,flipped triangle
0.0,3.0,3.0,0.0,6.0,6.0,1037.9374849999294,1.0,0.0,part_2,go,250.0,450.0,1.0,,,,,,,,,gray,circle
0.0,1.0,1.0,0.0,6.0,6.0,870.275225000114,1.0,0.0,part_2,go,250.0,450.0,1.0,,,,,,,,,cyan,cross
0.0,1.0,1.0,0.0,5.0,1.0,707.9417939999075,1.0,0.0,part_2,go,250.0,450.0,2.0,,,,,,,,,cyan,cross
0.0,8.0,4.0,1.0,5.0,0.0,0.0,1.0,0.0,part_2,stop,250.0,450.0,4.0,,,,,,,,,yellow,flipped triangle
0.0,3.0,3.0,0.0,6.0,6.0,1088.510915999905,1.0,0.0,part_2,go,300.0,450.0,1.0,,,,,,,,,gray,circle
0.0,4.0,4.0,0.0,6.0,6.0,864.0526679996583,1.0,0.0,part_2,go,300.0,450.0,1.0,,,,,,,,,magenta,diamond
0.0,3.0,3.0,0.0,6.0,6.0,626.6883769999367,1.0,0.0,part_2,go,300.0,450.0,1.0,,,,,,,,,gray,circle
0.0,5.0,1.0,1.0,5.0,0.0,0.0,1.0,0.0,part_2,stop,300.0,450.0,4.0,,,,,,,,,blue,square
0.0,6.0,2.0,1.0,5.0,1.0,514.9017459998504,1.0,0.0,part_2,stop,350.0,450.0,3.0,,,,,,,,,green,I
0.0,2.0,2.0,0.0,5.0,1.0,741.8522430002668,1.0,0.0,part_2,go,300.0,450.0,2.0,,,,,,,,,white,triangle
0.0,4.0,4.0,0.0,5.0,1.0,740.3442110003198,1.0,0.0,part_2,go,300.0,450.0,2.0,,,,,,,,,magenta,diamond
0.0,6.0,2.0,1.0,5.0,0.0,0.0,1.0,0.0,part_2,stop,300.0,450.0,4.0,,,,,,,,,green,I
0.0,8.0,4.0,1.0,5.0,0.0,0.0,1.0,0.0,part_2,stop,350.0,450.0,4.0,,,,,,,,,yellow,flipped triangle
0.0,4.0,4.0,0.0,5.0,1.0,850.0345519996699,1.0,0.0,part_2,go,400.0,450.0,2.0,,,,,,,,,magenta,diamond
0.0,5.0,1.0,1.0,5.0,1.0,597.0272419999674,1.0,0.0,part_2,go,400.0,450.0,2.0,,,,,,,,,blue,square
0.0,6.0,2.0,1.0,6.0,0.0,0.0,1.0,0.0,part_2,stop,400.0,450.0,4.0,,,,,,,,,green,I
0.0,5.0,1.0,1.0,5.0,1.0,953.0032200000278,1.0,0.0,part_2,go,400.0,500.0,2.0,,,,,,,,,blue,square
0.0,6.0,2.0,1.0,6.0,0.0,0.0,1.0,0.0,part_2,stop,400.0,500.0,4.0,,,,,,,,,green,I
0.0,8.0,4.0,1.0,5.0,1.0,759.9686329999713,1.0,0.0,part_2,go,400.0,550.0,2.0,,,,,,,,,yellow,flipped triangle
0.0,6.0,2.0,1.0,5.0,1.0,434.7095870002704,1.0,0.0,part_2,stop,400.0,550.0,3.0,,,,,,,,,green,I
0.0,6.0,2.0,1.0,5.0,1.0,866.6332339998917,1.0,0.0,part_2,go,350.0,550.0,2.0,,,,,,,,,green,I
0.0,5.0,1.0,1.0,6.0,0.0,0.0,1.0,0.0,part_2,stop,350.0,550.0,4.0,,,,,,,,,blue,square
0.0,7.0,3.0,1.0,6.0,6.0,701.1324160002914,2.0,0.0,part_2,go,350.0,600.0,1.0,,,,,,,,,orange,hexagon
0.0,6.0,2.0,1.0,6.0,6.0,472.2349640001084,2.0,0.0,part_2,stop,350.0,600.0,3.0,,,,,,,,,green,I
0.0,2.0,2.0,0.0,6.0,6.0,643.0460649999077,2.0,0.0,part_2,go,350.0,550.0,1.0,,,,,,,,,white,triangle
0.0,1.0,1.0,0.0,6.0,6.0,791.382822000287,2.0,0.0,part_2,go,350.0,550.0,1.0,,,,,,,,,cyan,cross
0.0,2.0,2.0,0.0,6.0,6.0,630.528590999802,2.0,0.0,part_2,go,350.0,550.0,1.0,,,,,,,,,white,triangle
0.0,2.0,2.0,0.0,5.0,1.0,355.8266439999897,2.0,0.0,part_2,go,350.0,550.0,2.0,,,,,,,,,white,triangle
0.0,4.0,4.0,0.0,6.0,6.0,570.1741540001422,2.0,0.0,part_2,go,350.0,550.0,1.0,,,,,,,,,magenta,diamond
0.0,6.0,2.0,1.0,6.0,6.0,644.3620820000433,2.0,0.0,part_2,stop,350.0,550.0,3.0,,,,,,,,,green,I
0.0,2.0,2.0,0.0,5.0,1.0,700.808799999777,2.0,0.0,part_2,go,350.0,500.0,2.0,,,,,,,,,white,triangle
0.0,2.0,2.0,0.0,5.0,1.0,388.5705790003158,2.0,0.0,part_2,go,350.0,500.0,2.0,,,,,,,,,white,triangle
0.0,2.0,2.0,0.0,5.0,1.0,672.3438379999607,2.0,0.0,part_2,go,350.0,500.0,2.0,,,,,,,,,white,triangle
0.0,5.0,1.0,1.0,5.0,0.0,0.0,2.0,0.0,part_2,stop,350.0,500.0,4.0,,,,,,,,,blue,square
0.0,2.0,2.0,0.0,5.0,1.0,683.9291100000082,2.0,0.0,part_2,go,400.0,500.0,2.0,,,,,,,,,white,triangle
0.0,2.0,2.0,0.0,6.0,6.0,782.0857550000255,2.0,0.0,part_2,go,400.0,500.0,1.0,,,,,,,,,white,triangle
0.0,6.0,2.0,1.0,6.0,6.0,531.3025440000274,2.0,0.0,part_2,stop,400.0,500.0,3.0,,,,,,,,,green,I
0.0,7.0,3.0,1.0,5.0,0.0,0.0,2.0,0.0,part_2,stop,400.0,450.0,4.0,,,,,,,,,orange,hexagon
0.0,7.0,3.0,1.0,5.0,0.0,0.0,2.0,0.0,part_2,stop,450.0,450.0,4.0,,,,,,,,,orange,hexagon
0.0,7.0,3.0,1.0,6.0,6.0,746.9903070000328,2.0,0.0,part_2,go,500.0,450.0,1.0,,,,,,,,,orange,hexagon
0.0,8.0,4.0,1.0,6.0,0.0,0.0,2.0,0.0,part_2,stop,500.0,450.0,4.0,,,,,,,,,yellow,flipped triangle
0.0,6.0,2.0,1.0,5.0,0.0,0.0,2.0,0.0,part_2,stop,500.0,500.0,4.0,,,,,,,,,green,I
0.0,2.0,2.0,0.0,5.0,1.0,513.6425570003667,2.0,0.0,part_2,go,550.0,500.0,2.0,,,,,,,,,white,triangle
0.0,1.0,1.0,0.0,6.0,6.0,668.3248919998732,2.0,0.0,part_2,go,550.0,500.0,1.0,,,,,,,,,cyan,cross
0.0,8.0,4.0,1.0,6.0,0.0,0.0,2.0,0.0,part_2,stop,550.0,500.0,4.0,,,,,,,,,yellow,flipped triangle
0.0,3.0,3.0,0.0,5.0,1.0,689.2430589996366,2.0,0.0,part_2,go,550.0,550.0,2.0,,,,,,,,,gray,circle
0.0,6.0,2.0,1.0,6.0,0.0,0.0,2.0,0.0,part_2,stop,550.0,550.0,4.0,,,,,,,,,green,I
0.0,3.0,3.0,0.0,6.0,6.0,886.9105669996316,2.0,0.0,part_2,go,550.0,600.0,1.0,,,,,,,,,gray,circle
0.0,5.0,1.0,1.0,5.0,0.0,0.0,2.0,0.0,part_2,stop,550.0,600.0,4.0,,,,,,,,,blue,square
0.0,2.0,2.0,0.0,6.0,6.0,834.576018000007,2.0,0.0,part_2,go,600.0,600.0,1.0,,,,,,,,,white,triangle
0.0,5.0,1.0,1.0,6.0,0.0,0.0,2.0,0.0,part_2,stop,600.0,600.0,4.0,,,,,,,,,blue,square
0.0,4.0,4.0,0.0,5.0,1.0,662.4403659998279,2.0,0.0,part_2,go,600.0,650.0,2.0,,,,,,,,,magenta,diamond
0.0,7.0,3.0,1.0,5.0,0.0,0.0,2.0,0.0,part_2,stop,600.0,650.0,4.0,,,,,,,,,orange,hexagon
0.0,7.0,3.0,1.0,5.0,1.0,692.2576239999216,2.0,0.0,part_2,stop,650.0,650.0,3.0,,,,,,,,,orange,hexagon
0.0,3.0,3.0,0.0,5.0,1.0,838.4014929997647,2.0,0.0,part_2,go,600.0,650.0,2.0,,,,,,,,,gray,circle
0.0,4.0,4.0,0.0,6.0,6.0,897.0810440000605,2.0,0.0,part_2,go,600.0,650.0,1.0,,,,,,,,,magenta,diamond
0.0,8.0,4.0,1.0,5.0,0.0,0.0,2.0,0.0,part_2,stop,600.0,650.0,4.0,,,,,,,,,yellow,flipped triangle
0.0,1.0,1.0,0.0,6.0,6.0,712.4143370001548,2.0,0.0,part_2,go,650.0,650.0,1.0,,,,,,,,,cyan,cross
0.0,8.0,4.0,1.0,5.0,1.0,716.7015970003376,3.0,0.0,part_2,go,650.0,650.0,2.0,,,,,,,,,yellow,flipped triangle
0.0,4.0,4.0,0.0,5.0,1.0,444.0478229998916,3.0,0.0,part_2,go,650.0,650.0,2.0,,,,,,,,,magenta,diamond
0.0,1.0,1.0,0.0,6.0,6.0,399.2976250001447,3.0,0.0,part_2,go,650.0,650.0,1.0,,,,,,,,,cyan,cross
0.0,3.0,3.0,0.0,6.0,6.0,398.8280800003849,3.0,0.0,part_2,go,650.0,650.0,1.0,,,,,,,,,gray,circle
0.0,7.0,3.0,1.0,6.0,6.0,477.3730389997581,3.0,0.0,part_2,stop,650.0,650.0,3.0,,,,,,,,,orange,hexagon
0.0,8.0,4.0,1.0,5.0,1.0,582.9121450001367,3.0,0.0,part_2,go,650.0,600.0,2.0,,,,,,,,,yellow,flipped triangle
0.0,6.0,2.0,1.0,5.0,1.0,372.084341000118,3.0,0.0,part_2,stop,650.0,600.0,3.0,,,,,,,,,green,I
0.0,5.0,1.0,1.0,6.0,0.0,0.0,3.0,0.0,part_2,stop,600.0,600.0,4.0,,,,,,,,,blue,square
0.0,3.0,3.0,0.0,5.0,1.0,718.0187330000081,3.0,0.0,part_2,go,600.0,650.0,2.0,,,,,,,,,gray,circle
0.0,2.0,2.0,0.0,5.0,1.0,616.7375320001156,3.0,0.0,part_2,go,600.0,650.0,2.0,,,,,,,,,white,triangle
0.0,1.0,1.0,0.0,6.0,6.0,868.4502720002456,3.0,0.0,part_2,go,600.0,650.0,1.0,,,,,,,,,cyan,cross
0.0,4.0,4.0,0.0,6.0,6.0,806.094339000083,3.0,0.0,part_2,go,600.0,650.0,1.0,,,,,,,,,magenta,diamond
0.0,1.0,1.0,0.0,5.0,1.0,606.6440480003621,3.0,0.0,part_2,go,600.0,650.0,2.0,,,,,,,,,cyan,cross
0.0,8.0,4.0,1.0,6.0,6.0,788.038816000153,3.0,0.0,part_2,go,600.0,650.0,1.0,,,,,,,,,yellow,flipped triangle
0.0,3.0,3.0,0.0,6.0,6.0,755.3131570002733,3.0,0.0,part_2,go,600.0,650.0,1.0,,,,,,,,,gray,circle
0.0,6.0,2.0,1.0,5.0,1.0,679.9568480000744,3.0,0.0,part_2,stop,600.0,650.0,3.0,,,,,,,,,green,I
0.0,1.0,1.0,0.0,5.0,1.0,809.1128279997974,3.0,0.0,part_2,go,550.0,650.0,2.0,,,,,,,,,cyan,cross
0.0,7.0,3.0,1.0,5.0,1.0,345.3867119997085,3.0,0.0,part_2,stop,550.0,650.0,3.0,,,,,,,,,orange,hexagon
0.0,8.0,4.0,1.0,6.0,0.0,0.0,3.0,0.0,part_2,stop,500.0,650.0,4.0,,,,,,,,,yellow,flipped triangle
0.0,4.0,4.0,0.0,5.0,1.0,1003.1525489998785,3.0,0.0,part_2,go,500.0,700.0,2.0,,,,,,,,,magenta,diamond
0.0,3.0,3.0,0.0,6.0,6.0,1120.590231999813,3.0,0.0,part_2,go,500.0,700.0,1.0,,,,,,,,,gray,circle
0.0,6.0,2.0,1.0,6.0,6.0,951.7902960001264,3.0,0.0,part_2,go,500.0,700.0,1.0,,,,,,,,,green,I
0.0,4.0,4.0,0.0,5.0,1.0,581.7172449997088,3.0,0.0,part_2,go,500.0,700.0,2.0,,,,,,,,,magenta,diamond
0.0,4.0,4.0,0.0,6.0,6.0,743.222875000356,3.0,0.0,part_2,go,500.0,700.0,1.0,,,,,,,,,magenta,diamond
0.0,8.0,4.0,1.0,5.0,0.0,0.0,3.0,0.0,part_2,stop,500.0,700.0,4.0,,,,,,,,,yellow,flipped triangle
0.0,7.0,3.0,1.0,5.0,1.0,650.4233179998664,3.0,0.0,part_2,stop,550.0,700.0,3.0,,,,,,,,,orange,hexagon
0.0,2.0,2.0,0.0,5.0,1.0,830.0370639999528,3.0,0.0,part_2,go,500.0,700.0,2.0,,,,,,,,,white,triangle
0.0,8.0,4.0,1.0,5.0,0.0,0.0,3.0,0.0,part_2,stop,500.0,700.0,4.0,,,,,,,,,yellow,flipped triangle
0.0,5.0,1.0,1.0,5.0,0.0,0.0,3.0,0.0,part_2,stop,550.0,700.0,4.0,,,,,,,,,blue,square
0.0,7.0,3.0,1.0,5.0,0.0,0.0,3.0,0.0,part_2,stop,600.0,700.0,4.0,,,,,,,,,orange,hexagon
0.0,2.0,2.0,0.0,6.0,6.0,916.4430189998712,3.0,0.0,part_2,go,650.0,700.0,1.0,,,,,,,,,white,triangle
0.0,4.0,4.0,0.0,5.0,1.0,888.0835100003424,3.0,0.0,part_2,go,650.0,700.0,2.0,,,,,,,,,magenta,diamond
0.0,5.0,1.0,1.0,6.0,6.0,917.9111820003528,3.0,0.0,part_2,go,650.0,700.0,1.0,,,,,,,,,blue,square
0.0,6.0,2.0,1.0,5.0,1.0,797.4847970003793,3.0,0.0,part_2,go,650.0,700.0,2.0,,,,,,,,,green,I
0.0,4.0,4.0,0.0,5.0,1.0,710.1557170003616,3.0,0.0,part_2,go,650.0,700.0,2.0,,,,,,,,,magenta,diamond
0.0,1.0,1.0,0.0,5.0,1.0,723.1764549997024,3.0,0.0,part_2,go,650.0,700.0,2.0,,,,,,,,,cyan,cross
0.0,3.0,3.0,0.0,5.0,1.0,732.1889559998453,4.0,0.0,part_2,go,650.0,700.0,2.0,,,,,,,,,gray,circle
0.0,3.0,3.0,0.0,5.0,1.0,465.203110999937,4.0,0.0,part_2,go,650.0,700.0,2.0,,,,,,,,,gray,circle
0.0,6.0,2.0,1.0,6.0,6.0,341.4244279997547,4.0,0.0,part_2,stop,650.0,700.0,3.0,,,,,,,,,green,I
0.0,7.0,3.0,1.0,5.0,1.0,369.4532340000478,4.0,0.0,part_2,stop,650.0,650.0,3.0,,,,,,,,,orange,hexagon
0.0,3.0,3.0,0.0,5.0,1.0,457.7175069998702,4.0,0.0,part_2,go,600.0,650.0,2.0,,,,,,,,,gray,circle
0.0,2.0,2.0,0.0,5.0,1.0,328.4801170002538,4.0,0.0,part_2,go,600.0,650.0,2.0,,,,,,,,,white,triangle
0.0,6.0,2.0,1.0,5.0,1.0,330.0978010001927,4.0,0.0,part_2,go,600.0,650.0,2.0,,,,,,,,,green,I
0.0,8.0,4.0,1.0,6.0,6.0,352.8948070002116,4.0,0.0,part_2,stop,600.0,650.0,3.0,,,,,,,,,yellow,flipped triangle
0.0,5.0,1.0,1.0,6.0,6.0,712.038420999761,4.0,0.0,part_2,go,600.0,600.0,1.0,,,,,,,,,blue,square
0.0,6.0,2.0,1.0,6.0,6.0,831.3358139998854,4.0,0.0,part_2,go,600.0,600.0,1.0,,,,,,,,,green,I
0.0,2.0,2.0,0.0,6.0,6.0,754.783763999967,4.0,0.0,part_2,go,600.0,600.0,1.0,,,,,,,,,white,triangle
0.0,6.0,2.0,1.0,6.0,6.0,581.3515939998979,4.0,0.0,part_2,stop,600.0,600.0,3.0,,,,,,,,,green,I
0.0,3.0,3.0,0.0,6.0,6.0,937.0625520000432,4.0,0.0,part_2,go,600.0,550.0,1.0,,,,,,,,,gray,circle
0.0,5.0,1.0,1.0,5.0,1.0,760.6703500000549,4.0,0.0,part_2,stop,600.0,550.0,3.0,,,,,,,,,blue,square
0.0,1.0,1.0,0.0,6.0,6.0,835.0275980001243,4.0,0.0,part_2,go,550.0,550.0,1.0,,,,,,,,,cyan,cross
0.0,8.0,4.0,1.0,6.0,0.0,0.0,4.0,0.0,part_2,stop,550.0,550.0,4.0,,,,,,,,,yellow,flipped triangle
0.0,5.0,1.0,1.0,6.0,6.0,649.4252160000542,4.0,0.0,part_2,stop,550.0,600.0,3.0,,,,,,,,,blue,square
0.0,4.0,4.0,0.0,6.0,6.0,1155.8847850001257,4.0,0.0,part_2,go,550.0,550.0,1.0,,,,,,,,,magenta,diamond
0.0,8.0,4.0,1.0,6.0,0.0,0.0,4.0,0.0,part_2,stop,550.0,550.0,4.0,,,,,,,,,yellow,flipped triangle
0.0,6.0,2.0,1.0,5.0,1.0,698.9275810001345,4.0,0.0,part_2,go,550.0,600.0,2.0,,,,,,,,,green,I
0.0,4.0,4.0,0.0,6.0,6.0,830.2456169999459,4.0,0.0,part_2,go,550.0,600.0,1.0,,,,,,,,,magenta,diamond
0.0,4.0,4.0,0.0,6.0,6.0,931.443491999744,4.0,0.0,part_2,go,550.0,600.0,1.0,,,,,,,,,magenta,diamond
0.0,4.0,4.0,0.0,5.0,1.0,555.8829289998357,4.0,0.0,part_2,go,550.0,600.0,2.0,,,,,,,,,magenta,diamond
0.0,8.0,4.0,1.0,5.0,1.0,407.207119999839,4.0,0.0,part_2,stop,550.0,600.0,3.0,,,,,,,,,yellow,flipped triangle
0.0,4.0,4.0,0.0,5.0,1.0,746.1862349996409,4.0,0.0,part_2,go,500.0,600.0,2.0,,,,,,,,,magenta,diamond
0.0,6.0,2.0,1.0,6.0,0.0,0.0,4.0,0.0,part_2,stop,500.0,600.0,4.0,,,,,,,,,green,I
0.0,7.0,3.0,1.0,6.0,0.0,0.0,4.0,0.0,part_2,stop,500.0,650.0,4.0,,,,,,,,,orange,hexagon
0.0,3.0,3.0,0.0,5.0,1.0,784.0732780000508,4.0,0.0,part_2,go,500.0,700.0,2.0,,,,,,,,,gray,circle
0.0,1.0,1.0,0.0,6.0,6.0,948.0080829998768,4.0,0.0,part_2,go,500.0,700.0,1.0,,,,,,,,,cyan,cross
0.0,6.0,2.0,1.0,6.0,6.0,772.8821480000079,4.0,0.0,part_2,stop,500.0,700.0,3.0,,,,,,,,,green,I
0.0,5.0,1.0,1.0,5.0,1.0,625.3875039997183,4.0,0.0,part_2,stop,500.0,650.0,3.0,,,,,,,,,blue,square
0.0,6.0,2.0,1.0,5.0,1.0,1045.1842669999678,4.0,0.0,part_2,go,450.0,650.0,2.0,,,,,,,,,green,I
0.0,2.0,2.0,0.0,5.0,1.0,710.3601959997832,4.0,0.0,part_2,go,450.0,650.0,2.0,,,,,,,,,white,triangle
0.0,1.0,1.0,0.0,5.0,1.0,665.001790000133,4.0,0.0,part_2,go,450.0,650.0,2.0,,,,,,,,,cyan,cross
0.0,5.0,1.0,1.0,5.0,0.0,0.0,4.0,0.0,part_2,stop,450.0,650.0,4.0,,,,,,,,,blue,square
0.0,5.0,1.0,1.0,6.0,6.0,963.222185000177,4.0,0.0,part_2,go,500.0,650.0,1.0,,,,,,,,,blue,square
0.0,5.0,1.0,1.0,5.0,0.0,0.0,5.0,0.0,part_2,stop,500.0,650.0,4.0,,,,,,,,,blue,square
0.0,3.0,3.0,0.0,6.0,6.0,446.7824540001857,5.0,0.0,part_2,go,550.0,650.0,1.0,,,,,,,,,gray,circle
0.0,8.0,4.0,1.0,6.0,6.0,339.6660680000423,5.0,0.0,part_2,stop,550.0,650.0,3.0,,,,,,,,,yellow,flipped triangle
0.0,1.0,1.0,0.0,5.0,1.0,514.9480660002155,5.0,0.0,part_2,go,550.0,600.0,2.0,,,,,,,,,cyan,cross
0.0,1.0,1.0,0.0,6.0,6.0,479.6316710003339,5.0,0.0,part_2,go,550.0,600.0,1.0,,,,,,,,,cyan,cross
0.0,2.0,2.0,0.0,6.0,6.0,426.5736290003588,5.0,0.0,part_2,go,550.0,600.0,1.0,,,,,,,,,white,triangle
0.0,1.0,1.0,0.0,6.0,6.0,314.1656929997225,5.0,0.0,part_2,go,550.0,600.0,1.0,,,,,,,,,cyan,cross
0.0,8.0,4.0,1.0,5.0,1.0,517.2032420000505,5.0,0.0,part_2,go,550.0,600.0,2.0,,,,,,,,,yellow,flipped triangle
0.0,5.0,1.0,1.0,6.0,6.0,448.7704390003273,5.0,0.0,part_2,stop,550.0,600.0,3.0,,,,,,,,,blue,square
0.0,3.0,3.0,0.0,5.0,1.0,368.237831999977,5.0,0.0,part_2,go,550.0,550.0,2.0,,,,,,,,,gray,circle
0.0,1.0,1.0,0.0,5.0,1.0,422.4115080000956,5.0,0.0,part_2,go,550.0,550.0,2.0,,,,,,,,,cyan,cross
0.0,7.0,3.0,1.0,5.0,1.0,340.8597390002796,5.0,0.0,part_2,stop,550.0,550.0,3.0,,,,,,,,,orange,hexagon
0.0,5.0,1.0,1.0,6.0,6.0,631.3143930001388,5.0,0.0,part_2,stop,500.0,550.0,3.0,,,,,,,,,blue,square
0.0,4.0,4.0,0.0,5.0,1.0,627.1780170000056,5.0,0.0,part_2,go,500.0,500.0,2.0,,,,,,,,,magenta,diamond
0.0,3.0,3.0,0.0,5.0,1.0,606.163836000178,5.0,0.0,part_2,go,500.0,500.0,2.0,,,,,,,,,gray,circle
0.0,3.0,3.0,0.0,5.0,1.0,428.4332900001573,5.0,0.0,part_2,go,500.0,500.0,2.0,,,,,,,,,gray,circle
0.0,8.0,4.0,1.0,6.0,6.0,548.2582059999004,5.0,0.0,part_2,go,500.0,500.0,1.0,,,,,,,,,yellow,flipped triangle
0.0,6.0,2.0,1.0,6.0,6.0,557.1836139997686,5.0,0.0,part_2,stop,500.0,500.0,3.0,,,,,,,,,green,I
0.0,6.0,2.0,1.0,5.0,1.0,589.2882820003251,5.0,0.0,part_2,stop,500.0,450.0,3.0,,,,,,,,,green,I
0.0,2.0,2.0,0.0,6.0,6.0,639.1193170002225,5.0,0.0,part_2,go,450.0,450.0,1.0,,,,,,,,,white,triangle
0.0,8.0,4.0,1.0,5.0,0.0,0.0,5.0,0.0,part_2,stop,450.0,450.0,4.0,,,,,,,,,yellow,flipped triangle
0.0,7.0,3.0,1.0,5.0,1.0,653.697677999844,5.0,0.0,part_2,go,500.0,450.0,2.0,,,,,,,,,orange,hexagon
0.0,7.0,3.0,1.0,5.0,1.0,645.4767039999751,5.0,0.0,part_2,go,500.0,450.0,2.0,,,,,,,,,orange,hexagon
0.0,8.0,4.0,1.0,5.0,0.0,0.0,5.0,0.0,part_2,stop,500.0,450.0,4.0,,,,,,,,,yellow,flipped triangle
0.0,4.0,4.0,0.0,6.0,6.0,1032.4137650000011,5.0,0.0,part_2,go,550.0,450.0,1.0,,,,,,,,,magenta,diamond
0.0,8.0,4.0,1.0,5.0,1.0,742.8272139995897,5.0,0.0,part_2,stop,550.0,450.0,3.0,,,,,,,,,yellow,flipped triangle
0.0,2.0,2.0,0.0,6.0,6.0,751.9652119999591,5.0,0.0,part_2,go,500.0,450.0,1.0,,,,,,,,,white,triangle
0.0,7.0,3.0,1.0,6.0,0.0,0.0,5.0,0.0,part_2,stop,500.0,450.0,4.0,,,,,,,,,orange,hexagon
0.0,4.0,4.0,0.0,6.0,6.0,684.5972480000455,5.0,0.0,part_2,go,500.0,500.0,1.0,,,,,,,,,magenta,diamond
0.0,8.0,4.0,1.0,5.0,0.0,0.0,5.0,0.0,part_2,stop,500.0,500.0,4.0,,,,,,,,,yellow,flipped triangle
0.0,3.0,3.0,0.0,6.0,6.0,644.1589600003681,5.0,0.0,part_2,go,550.0,500.0,1.0,,,,,,,,,gray,circle
0.0,2.0,2.0,0.0,6.0,6.0,704.2889859999377,5.0,0.0,part_2,go,550.0,500.0,1.0,,,,,,,,,white,triangle
0.0,7.0,3.0,1.0,5.0,1.0,590.256276999753,5.0,0.0,part_2,stop,550.0,500.0,3.0,,,,,,,,,orange,hexagon
0.0,1.0,1.0,0.0,5.0,1.0,747.3447859997577,5.0,0.0,part_2,go,500.0,500.0,2.0,,,,,,,,,cyan,cross
0.0,3.0,3.0,0.0,6.0,6.0,878.3740130002116,5.0,0.0,part_2,go,500.0,500.0,1.0,,,,,,,,,gray,circle
0.0,7.0,3.0,1.0,6.0,6.0,538.6433009998655,5.0,0.0,part_2,stop,500.0,500.0,3.0,,,,,,,,,orange,hexagon
0.0,4.0,4.0,0.0,6.0,6.0,633.7378820003323,6.0,0.0,part_2,go,500.0,450.0,1.0,,,,,,,,,magenta,diamond
0.0,5.0,1.0,1.0,5.0,1.0,350.1654140000028,6.0,0.0,part_2,stop,500.0,450.0,3.0,,,,,,,,,blue,square
0.0,7.0,3.0,1.0,6.0,6.0,317.501409000215,6.0,0.0,part_2,stop,450.0,450.0,3.0,,,,,,,,,orange,hexagon
0.0,7.0,3.0,1.0,6.0,6.0,434.9511549999079,6.0,0.0,part_2,stop,450.0,400.0,3.0,,,,,,,,,orange,hexagon
0.0,2.0,2.0,0.0,5.0,1.0,636.3994040002581,6.0,0.0,part_2,go,450.0,350.0,2.0,,,,,,,,,white,triangle
0.0,5.0,1.0,1.0,6.0,6.0,492.4636309997368,6.0,0.0,part_2,stop,450.0,350.0,3.0,,,,,,,,,blue,square
0.0,6.0,2.0,1.0,5.0,1.0,800.0423210000918,6.0,0.0,part_2,go,450.0,300.0,2.0,,,,,,,,,green,I
0.0,7.0,3.0,1.0,6.0,6.0,650.1990950000618,6.0,0.0,part_2,go,450.0,300.0,1.0,,,,,,,,,orange,hexagon
0.0,7.0,3.0,1.0,5.0,1.0,389.6554889997787,6.0,0.0,part_2,stop,450.0,300.0,3.0,,,,,,,,,orange,hexagon
0.0,4.0,4.0,0.0,5.0,1.0,660.4676960000688,6.0,0.0,part_2,go,400.0,300.0,2.0,,,,,,,,,magenta,diamond
0.0,6.0,2.0,1.0,6.0,0.0,0.0,6.0,0.0,part_2,stop,400.0,300.0,4.0,,,,,,,,,green,I
0.0,8.0,4.0,1.0,6.0,0.0,0.0,6.0,0.0,part_2,stop,400.0,350.0,4.0,,,,,,,,,yellow,flipped triangle
0.0,7.0,3.0,1.0,5.0,1.0,336.5958839999621,6.0,0.0,part_2,stop,400.0,400.0,3.0,,,,,,,,,orange,hexagon
0.0,4.0,4.0,0.0,5.0,1.0,479.3416030001936,6.0,0.0,part_2,go,350.0,400.0,2.0,,,,,,,,,magenta,diamond
0.0,3.0,3.0,0.0,6.0,6.0,625.3495600003589,6.0,0.0,part_2,go,350.0,400.0,1.0,,,,,,,,,gray,circle
0.0,3.0,3.0,0.0,6.0,6.0,391.3076230001024,6.0,0.0,part_2,go,350.0,400.0,1.0,,,,,,,,,gray,circle
0.0,1.0,1.0,0.0,6.0,6.0,633.0071239999597,6.0,0.0,part_2,go,350.0,400.0,1.0,,,,,,,,,cyan,cross
0.0,6.0,2.0,1.0,6.0,0.0,0.0,6.0,0.0,part_2,stop,350.0,400.0,4.0,,,,,,,,,green,I
0.0,5.0,1.0,1.0,6.0,1.0,433.8197939996462,6.0,0.0,part_2,go,350.0,450.0,2.0,,,,,,,,,blue,square
0.0,8.0,4.0,1.0,6.0,0.0,0.0,6.0,0.0,part_2,stop,350.0,450.0,4.0,,,,,,,,,yellow,flipped triangle
0.0,4.0,4.0,0.0,5.0,1.0,635.9810819999439,6.0,0.0,part_2,go,350.0,500.0,2.0,,,,,,,,,magenta,diamond
0.0,8.0,4.0,1.0,5.0,0.0,0.0,6.0,0.0,part_2,stop,350.0,500.0,4.0,,,,,,,,,yellow,flipped triangle
0.0,4.0,4.0,0.0,5.0,1.0,593.5964949999288,6.0,0.0,part_2,go,400.0,500.0,2.0,,,,,,,,,magenta,diamond
0.0,7.0,3.0,1.0,6.0,6.0,557.9208799999833,6.0,0.0,part_2,stop,400.0,500.0,3.0,,,,,,,,,orange,hexagon
0.0,3.0,3.0,0.0,6.0,6.0,619.9352160001581,6.0,0.0,part_2,go,400.0,450.0,1.0,,,,,,,,,gray,circle
0.0,7.0,3.0,1.0,5.0,0.0,0.0,6.0,0.0,part_2,stop,400.0,450.0,4.0,,,,,,,,,orange,hexagon
0.0,6.0,2.0,1.0,6.0,0.0,0.0,6.0,0.0,part_2,stop,450.0,450.0,4.0,,,,,,,,,green,I
0.0,7.0,3.0,1.0,5.0,1.0,338.9787330002036,6.0,0.0,part_2,stop,450.0,500.0,3.0,,,,,,,,,orange,hexagon
0.0,7.0,3.0,1.0,5.0,1.0,624.9051039999358,6.0,0.0,part_2,go,400.0,500.0,2.0,,,,,,,,,orange,hexagon
0.0,4.0,4.0,0.0,6.0,6.0,514.1497139998137,6.0,0.0,part_2,go,400.0,500.0,1.0,,,,,,,,,magenta,diamond
0.0,1.0,1.0,0.0,6.0,6.0,392.9216480000832,6.0,0.0,part_2,go,400.0,500.0,1.0,,,,,,,,,cyan,cross
0.0,6.0,2.0,1.0,5.0,0.0,0.0,6.0,0.0,part_2,stop,400.0,500.0,4.0,,,,,,,,,green,I
0.0,3.0,3.0,0.0,5.0,1.0,807.7807689996916,6.0,0.0,part_2,go,450.0,500.0,2.0,,,,,,,,,gray,circle
0.0,1.0,1.0,0.0,6.0,6.0,639.6484810002221,6.0,0.0,part_2,go,450.0,500.0,1.0,,,,,,,,,cyan,cross
0.0,5.0,1.0,1.0,5.0,1.0,450.0283719999061,6.0,0.0,part_2,go,450.0,500.0,2.0,,,,,,,,,blue,square
0.0,7.0,3.0,1.0,6.0,6.0,629.4816069998888,6.0,0.0,part_2,stop,450.0,500.0,3.0,,,,,,,,,orange,hexagon
0.0,5.0,1.0,1.0,5.0,1.0,388.9172139997754,7.0,0.0,part_2,stop,450.0,450.0,3.0,,,,,,,,,blue,square
0.0,8.0,4.0,1.0,6.0,6.0,402.2268170001553,7.0,0.0,part_2,stop,400.0,450.0,3.0,,,,,,,,,yellow,flipped triangle
0.0,4.0,4.0,0.0,6.0,6.0,599.2261880001024,7.0,0.0,part_2,go,400.0,400.0,1.0,,,,,,,,,magenta,diamond
0.0,2.0,2.0,0.0,6.0,6.0,697.6083480003581,7.0,0.0,part_2,go,400.0,400.0,1.0,,,,,,,,,white,triangle
0.0,4.0,4.0,0.0,6.0,6.0,586.4792319998742,7.0,0.0,part_2,go,400.0,400.0,1.0,,,,,,,,,magenta,diamond
0.0,1.0,1.0,0.0,6.0,6.0,550.8914360002564,7.0,0.0,part_2,go,400.0,400.0,1.0,,,,,,,,,cyan,cross
0.0,5.0,1.0,1.0,6.0,6.0,657.432372999665,7.0,0.0,part_2,stop,400.0,400.0,3.0,,,,,,,,,blue,square
0.0,7.0,3.0,1.0,5.0,1.0,612.7656339999703,7.0,0.0,part_2,go,400.0,350.0,2.0,,,,,,,,,orange,hexagon
0.0,8.0,4.0,1.0,6.0,0.0,0.0,7.0,0.0,part_2,stop,400.0,350.0,4.0,,,,,,,,,yellow,flipped triangle
0.0,3.0,3.0,0.0,6.0,6.0,622.2570609998002,7.0,0.0,part_2,go,400.0,400.0,1.0,,,,,,,,,gray,circle
0.0,5.0,1.0,1.0,5.0,0.0,0.0,7.0,0.0,part_2,stop,400.0,400.0,4.0,,,,,,,,,blue,square
0.0,7.0,3.0,1.0,6.0,6.0,588.8784039998427,7.0,0.0,part_2,go,450.0,400.0,1.0,,,,,,,,,orange,hexagon
0.0,3.0,3.0,0.0,5.0,1.0,505.1966320002066,7.0,0.0,part_2,go,450.0,400.0,2.0,,,,,,,,,gray,circle
0.0,1.0,1.0,0.0,5.0,1.0,617.267123000147,7.0,0.0,part_2,go,450.0,400.0,2.0,,,,,,,,,cyan,cross
0.0,3.0,3.0,0.0,6.0,6.0,857.2418129997459,7.0,0.0,part_2,go,450.0,400.0,1.0,,,,,,,,,gray,circle
0.0,8.0,4.0,1.0,6.0,0.0,0.0,7.0,0.0,part_2,stop,450.0,400.0,4.0,,,,,,,,,yellow,flipped triangle
0.0,3.0,3.0,0.0,5.0,1.0,576.7330210001091,7.0,0.0,part_2,go,450.0,450.0,2.0,,,,,,,,,gray,circle
0.0,4.0,4.0,0.0,6.0,6.0,603.4974229996806,7.0,0.0,part_2,go,450.0,450.0,1.0,,,,,,,,,magenta,diamond
0.0,7.0,3.0,1.0,6.0,0.0,0.0,7.0,0.0,part_2,stop,450.0,450.0,4.0,,,,,,,,,orange,hexagon
0.0,4.0,4.0,0.0,6.0,6.0,610.6270609998319,7.0,0.0,part_2,go,450.0,500.0,1.0,,,,,,,,,magenta,diamond
0.0,1.0,1.0,0.0,6.0,6.0,659.5270249999885,7.0,0.0,part_2,go,450.0,500.0,1.0,,,,,,,,,cyan,cross
0.0,3.0,3.0,0.0,5.0,1.0,554.9222360000385,7.0,0.0,part_2,go,450.0,500.0,2.0,,,,,,,,,gray,circle
0.0,8.0,4.0,1.0,5.0,1.0,1021.269127999858,7.0,0.0,part_2,go,450.0,500.0,2.0,,,,,,,,,yellow,flipped triangle
0.0,5.0,1.0,1.0,6.0,6.0,500.59898900008193,7.0,0.0,part_2,go,450.0,500.0,1.0,,,,,,,,,blue,square
0.0,3.0,3.0,0.0,5.0,1.0,604.9474980000014,7.0,0.0,part_2,go,450.0,500.0,2.0,,,,,,,,,gray,circle
0.0,2.0,2.0,0.0,5.0,1.0,763.6779789995671,7.0,0.0,part_2,go,450.0,500.0,2.0,,,,,,,,,white,triangle
0.0,6.0,2.0,1.0,6.0,6.0,313.6683640000228,7.0,0.0,part_2,stop,450.0,500.0,3.0,,,,,,,,,green,I
0.0,4.0,4.0,0.0,6.0,6.0,499.1300229999069,7.0,0.0,part_2,go,450.0,450.0,1.0,,,,,,,,,magenta,diamond
0.0,4.0,4.0,0.0,5.0,1.0,531.8621549999989,7.0,0.0,part_2,go,450.0,450.0,2.0,,,,,,,,,magenta,diamond
0.0,1.0,1.0,0.0,5.0,1.0,591.3293819999126,7.0,0.0,part_2,go,450.0,450.0,2.0,,,,,,,,,cyan,cross
0.0,7.0,3.0,1.0,6.0,6.0,711.7825669997728,7.0,0.0,part_2,go,450.0,450.0,1.0,,,,,,,,,orange,hexagon
0.0,6.0,2.0,1.0,5.0,0.0,0.0,7.0,0.0,part_2,stop,450.0,450.0,4.0,,,,,,,,,green,I
0.0,5.0,1.0,1.0,6.0,6.0,515.4397239998616,7.0,0.0,part_2,stop,500.0,450.0,3.0,,,,,,,,,blue,square
0.0,2.0,2.0,0.0,6.0,6.0,784.0253200001825,7.0,0.0,part_2,go,500.0,400.0,1.0,,,,,,,,,white,triangle
0.0,2.0,2.0,0.0,6.0,6.0,767.264981000153,7.0,0.0,part_2,go,500.0,400.0,1.0,,,,,,,,,white,triangle
0.0,1.0,1.0,0.0,5.0,1.0,578.2049489998826,7.0,0.0,part_2,go,500.0,400.0,2.0,,,,,,,,,cyan,cross
0.0,2.0,2.0,0.0,6.0,6.0,348.3251380002912,8.0,0.0,part_2,go,500.0,400.0,1.0,,,,,,,,,white,triangle
0.0,1.0,1.0,0.0,5.0,1.0,427.0838060001551,8.0,0.0,part_2,go,500.0,400.0,2.0,,,,,,,,,cyan,cross
0.0,3.0,3.0,0.0,6.0,6.0,536.1861089995728,8.0,0.0,part_2,go,500.0,400.0,1.0,,,,,,,,,gray,circle
0.0,1.0,1.0,0.0,5.0,1.0,479.8285130000295,8.0,0.0,part_2,go,500.0,400.0,2.0,,,,,,,,,cyan,cross
0.0,7.0,3.0,1.0,6.0,6.0,438.0602179999187,8.0,0.0,part_2,stop,500.0,400.0,3.0,,,,,,,,,orange,hexagon
0.0,5.0,1.0,1.0,6.0,0.0,0.0,8.0,0.0,part_2,stop,500.0,350.0,4.0,,,,,,,,,blue,square
0.0,3.0,3.0,0.0,6.0,6.0,607.691337000233,8.0,0.0,part_2,go,500.0,400.0,1.0,,,,,,,,,gray,circle
0.0,2.0,2.0,0.0,5.0,1.0,610.6366529998013,8.0,0.0,part_2,go,500.0,400.0,2.0,,,,,,,,,white,triangle
0.0,6.0,2.0,1.0,6.0,0.0,0.0,8.0,0.0,part_2,stop,500.0,400.0,4.0,,,,,,,,,green,I
0.0,5.0,1.0,1.0,5.0,0.0,0.0,8.0,0.0,part_2,stop,500.0,450.0,4.0,,,,,,,,,blue,square
0.0,2.0,2.0,0.0,6.0,6.0,490.6343859997832,8.0,0.0,part_2,go,550.0,450.0,1.0,,,,,,,,,white,triangle
0.0,1.0,1.0,0.0,6.0,6.0,561.4250600001469,8.0,0.0,part_2,go,550.0,450.0,1.0,,,,,,,,,cyan,cross
0.0,2.0,2.0,0.0,6.0,6.0,294.3436259997725,8.0,0.0,part_2,go,550.0,450.0,1.0,,,,,,,,,white,triangle
0.0,8.0,4.0,1.0,6.0,6.0,567.0767149999847,8.0,0.0,part_2,go,550.0,450.0,1.0,,,,,,,,,yellow,flipped triangle
0.0,1.0,1.0,0.0,5.0,1.0,816.3615349999418,8.0,0.0,part_2,go,550.0,450.0,2.0,,,,,,,,,cyan,cross
0.0,5.0,1.0,1.0,5.0,0.0,0.0,8.0,0.0,part_2,stop,550.0,450.0,4.0,,,,,,,,,blue,square
0.0,1.0,1.0,0.0,6.0,6.0,734.4169399998464,8.0,0.0,part_2,go,600.0,450.0,1.0,,,,,,,,,cyan,cross
0.0,2.0,2.0,0.0,5.0,1.0,640.7357570001295,8.0,0.0,part_2,go,600.0,450.0,2.0,,,,,,,,,white,triangle
0.0,2.0,2.0,0.0,5.0,1.0,499.3845069998315,8.0,0.0,part_2,go,600.0,450.0,2.0,,,,,,,,,white,triangle
0.0,2.0,2.0,0.0,6.0,6.0,462.9588689999764,8.0,0.0,part_2,go,600.0,450.0,1.0,,,,,,,,,white,triangle
0.0,8.0,4.0,1.0,6.0,0.0,0.0,8.0,0.0,part_2,stop,600.0,450.0,4.0,,,,,,,,,yellow,flipped triangle
0.0,1.0,1.0,0.0,5.0,1.0,559.0920419999748,8.0,0.0,part_2,go,600.0,500.0,2.0,,,,,,,,,cyan,cross
0.0,2.0,2.0,0.0,5.0,1.0,662.9691510001976,8.0,0.0,part_2,go,600.0,500.0,2.0,,,,,,,,,white,triangle
0.0,1.0,1.0,0.0,6.0,6.0,629.8778999998831,8.0,0.0,part_2,go,600.0,500.0,1.0,,,,,,,,,cyan,cross
0.0,3.0,3.0,0.0,5.0,1.0,495.2635639997425,8.0,0.0,part_2,go,600.0,500.0,2.0,,,,,,,,,gray,circle
0.0,2.0,2.0,0.0,6.0,6.0,388.7367550000817,8.0,0.0,part_2,go,600.0,500.0,1.0,,,,,,,,,white,triangle
0.0,8.0,4.0,1.0,6.0,0.0,0.0,8.0,0.0,part_2,stop,600.0,500.0,4.0,,,,,,,,,yellow,flipped triangle
0.0,4.0,4.0,0.0,5.0,1.0,801.091231999635,8.0,0.0,part_2,go,600.0,550.0,2.0,,,,,,,,,magenta,diamond
0.0,6.0,2.0,1.0,5.0,1.0,997.38190700009,8.0,0.0,part_2,go,600.0,550.0,2.0,,,,,,,,,green,I
0.0,8.0,4.0,1.0,5.0,0.0,0.0,8.0,0.0,part_2,stop,600.0,550.0,4.0,,,,,,,,,yellow,flipped triangle
0.0,4.0,4.0,0.0,6.0,6.0,696.3836410000113,8.0,0.0,part_2,go,650.0,550.0,1.0,,,,,,,,,magenta,diamond
0.0,6.0,2.0,1.0,5.0,1.0,602.6081280001563,8.0,0.0,part_2,stop,650.0,550.0,3.0,,,,,,,,,green,I
0.0,1.0,1.0,0.0,5.0,1.0,724.8738570001478,8.0,0.0,part_2,go,600.0,550.0,2.0,,,,,,,,,cyan,cross
0.0,1.0,1.0,0.0,5.0,1.0,663.6154719999467,8.0,0.0,part_2,go,600.0,550.0,2.0,,,,,,,,,cyan,cross
0.0,8.0,4.0,1.0,5.0,1.0,900.6769560000976,8.0,0.0,part_2,go,600.0,550.0,2.0,,,,,,,,,yellow,flipped triangle
0.0,5.0,1.0,1.0,5.0,1.0,655.921574000331,8.0,0.0,part_2,stop,600.0,550.0,3.0,,,,,,,,,blue,square
0.0,6.0,2.0,1.0,7.0,4.0,3207.965698999942,1.0,2.0,part_3,go,0.0,0.0,0.0,216.0,4.0,108.0,324.0,54.0,216.0,162.0,270.0,green,I
0.0,7.0,3.0,1.0,7.0,1.0,2935.126905999823,1.0,2.0,part_3,go,0.0,0.0,0.0,68.0,2.0,68.0,170.0,204.0,136.0,34.0,102.0,orange,hexagon
0.0,2.0,2.0,0.0,7.0,1.0,4639.181956999892,1.0,1.0,part_3,go,0.0,0.0,0.0,132.0,3.0,132.0,44.0,176.0,220.0,88.0,264.0,white,triangle
0.0,3.0,3.0,0.0,7.0,2.0,4545.2641849997235,1.0,2.0,part_3,go,0.0,0.0,0.0,156.0,4.0,78.0,156.0,39.0,117.0,234.0,195.0,gray,circle
0.0,7.0,3.0,1.0,7.0,5.0,4853.449360000013,1.0,1.0,part_3,go,0.0,0.0,0.0,39.0,1.0,117.0,78.0,156.0,195.0,39.0,234.0,orange,hexagon
0.0,6.0,2.0,1.0,7.0,5.0,2399.0552059995025,1.0,2.0,part_3,go,0.0,0.0,0.0,78.0,2.0,195.0,156.0,117.0,234.0,78.0,39.0,green,I
0.0,4.0,4.0,0.0,7.0,3.0,3847.311622000234,1.0,2.0,part_3,go,0.0,0.0,0.0,147.0,3.0,49.0,98.0,147.0,245.0,196.0,294.0,magenta,diamond
0.0,8.0,4.0,1.0,7.0,6.0,4784.304005999729,1.0,1.0,part_3,go,0.0,0.0,0.0,147.0,3.0,245.0,49.0,98.0,294.0,196.0,147.0,yellow,flipped triangle
0.0,5.0,1.0,1.0,7.0,3.0,3551.1896349999006,1.0,1.0,part_3,go,0.0,0.0,0.0,324.0,6.0,108.0,54.0,324.0,270.0,216.0,162.0,blue,square
0.0,5.0,1.0,1.0,7.0,6.0,3387.6647500001127,1.0,2.0,part_3,go,0.0,0.0,0.0,234.0,6.0,78.0,117.0,156.0,39.0,195.0,234.0,blue,square
0.0,8.0,4.0,1.0,7.0,1.0,4009.441412999877,1.0,1.0,part_3,go,0.0,0.0,0.0,156.0,4.0,156.0,39.0,78.0,195.0,234.0,117.0,yellow,flipped triangle
0.0,3.0,3.0,0.0,7.0,3.0,3839.669576999768,1.0,1.0,part_3,go,0.0,0.0,0.0,204.0,6.0,34.0,170.0,204.0,102.0,68.0,136.0,gray,circle
0.0,3.0,3.0,0.0,7.0,4.0,4392.213572000401,1.0,1.0,part_3,go,0.0,0.0,0.0,216.0,4.0,108.0,270.0,54.0,216.0,162.0,324.0,gray,circle
0.0,7.0,3.0,1.0,7.0,3.0,2169.5000500003516,1.0,2.0,part_3,go,0.0,0.0,0.0,98.0,2.0,49.0,245.0,98.0,294.0,196.0,147.0,orange,hexagon
0.0,7.0,3.0,1.0,7.0,3.0,4555.87925600048,1.0,1.0,part_3,go,0.0,0.0,0.0,108.0,2.0,216.0,162.0,108.0,54.0,324.0,270.0,orange,hexagon
0.0,3.0,3.0,0.0,7.0,2.0,3987.527921000037,1.0,1.0,part_3,go,0.0,0.0,0.0,98.0,2.0,196.0,98.0,245.0,147.0,49.0,294.0,gray,circle
0.0,7.0,3.0,1.0,7.0,4.0,3585.422704000848,1.0,1.0,part_3,go,0.0,0.0,0.0,176.0,4.0,44.0,264.0,220.0,176.0,132.0,88.0,orange,hexagon
0.0,2.0,2.0,0.0,7.0,1.0,3378.5076670001217,1.0,1.0,part_3,go,0.0,0.0,0.0,136.0,4.0,136.0,204.0,102.0,34.0,68.0,170.0,white,triangle
0.0,6.0,2.0,1.0,7.0,6.0,4212.885087000359,1.0,1.0,part_3,go,0.0,0.0,0.0,117.0,3.0,78.0,234.0,156.0,195.0,39.0,117.0,green,I
0.0,2.0,2.0,0.0,7.0,5.0,2984.8148519995448,1.0,1.0,part_3,go,0.0,0.0,0.0,147.0,3.0,98.0,196.0,245.0,294.0,147.0,49.0,white,triangle
0.0,3.0,3.0,0.0,7.0,4.0,1435.047582000152,2.0,1.0,part_3,go,0.0,0.0,0.0,264.0,6.0,176.0,220.0,88.0,264.0,44.0,132.0,gray,circle
0.0,8.0,4.0,1.0,7.0,2.0,2519.414534000134,2.0,1.0,part_3,go,0.0,0.0,0.0,88.0,2.0,176.0,88.0,220.0,264.0,132.0,44.0,yellow,flipped triangle
0.0,3.0,3.0,0.0,7.0,6.0,1954.9780739998823,2.0,1.0,part_3,go,0.0,0.0,0.0,204.0,6.0,68.0,136.0,170.0,34.0,102.0,204.0,gray,circle
0.0,1.0,1.0,0.0,7.0,2.0,2706.104416999551,2.0,1.0,part_3,go,0.0,0.0,0.0,264.0,6.0,220.0,264.0,44.0,132.0,176.0,88.0,cyan,cross
0.0,2.0,2.0,0.0,7.0,2.0,2400.2125740007614,2.0,2.0,part_3,go,0.0,0.0,0.0,102.0,3.0,136.0,102.0,34.0,204.0,68.0,170.0,white,triangle
0.0,1.0,1.0,0.0,7.0,4.0,2421.443430999716,2.0,1.0,part_3,go,0.0,0.0,0.0,156.0,4.0,39.0,195.0,117.0,156.0,78.0,234.0,cyan,cross
0.0,3.0,3.0,0.0,7.0,5.0,3016.6720939996594,2.0,1.0,part_3,go,0.0,0.0,0.0,270.0,5.0,162.0,324.0,108.0,54.0,270.0,216.0,gray,circle
0.0,1.0,1.0,0.0,7.0,4.0,2697.2162790007133,2.0,1.0,part_3,go,0.0,0.0,0.0,196.0,4.0,49.0,294.0,245.0,196.0,98.0,147.0,cyan,cross
0.0,8.0,4.0,1.0,7.0,2.0,2217.2670469999503,2.0,1.0,part_3,go,0.0,0.0,0.0,136.0,4.0,68.0,136.0,204.0,170.0,102.0,34.0,yellow,flipped triangle
0.0,3.0,3.0,0.0,7.0,5.0,2452.767746000063,2.0,1.0,part_3,go,0.0,0.0,0.0,294.0,6.0,147.0,49.0,98.0,245.0,294.0,196.0,gray,circle
0.0,7.0,3.0,1.0,7.0,5.0,2210.227448000296,2.0,1.0,part_3,go,0.0,0.0,0.0,204.0,6.0,34.0,170.0,102.0,68.0,204.0,136.0,orange,hexagon
0.0,1.0,1.0,0.0,7.0,1.0,2800.5481209993377,2.0,1.0,part_3,go,0.0,0.0,0.0,68.0,2.0,68.0,204.0,136.0,34.0,102.0,170.0,cyan,cross
0.0,4.0,4.0,0.0,7.0,2.0,3455.3862479997406,2.0,1.0,part_3,go,0.0,0.0,0.0,98.0,2.0,147.0,98.0,196.0,245.0,294.0,49.0,magenta,diamond
0.0,2.0,2.0,0.0,7.0,6.0,2174.975123999502,2.0,1.0,part_3,go,0.0,0.0,0.0,78.0,2.0,117.0,39.0,234.0,195.0,156.0,78.0,white,triangle
0.0,4.0,4.0,0.0,7.0,4.0,4181.227875000332,2.0,1.0,part_3,go,0.0,0.0,0.0,117.0,3.0,39.0,234.0,195.0,117.0,78.0,156.0,magenta,diamond
0.0,3.0,3.0,0.0,7.0,5.0,2677.847644000394,2.0,1.0,part_3,go,0.0,0.0,0.0,88.0,2.0,264.0,176.0,44.0,220.0,88.0,132.0,gray,circle
0.0,5.0,1.0,1.0,7.0,1.0,4891.7693399998825,2.0,1.0,part_3,go,0.0,0.0,0.0,170.0,5.0,170.0,68.0,102.0,136.0,34.0,204.0,blue,square
0.0,6.0,2.0,1.0,7.0,6.0,4149.534467999729,2.0,1.0,part_3,go,0.0,0.0,0.0,102.0,3.0,68.0,204.0,170.0,34.0,136.0,102.0,green,I
0.0,5.0,1.0,1.0,7.0,5.0,4372.180558999389,2.0,1.0,part_3,go,0.0,0.0,0.0,88.0,2.0,264.0,220.0,132.0,176.0,88.0,44.0,blue,square
0.0,7.0,3.0,1.0,7.0,2.0,3758.242390000305,2.0,1.0,part_3,go,0.0,0.0,0.0,44.0,1.0,88.0,44.0,132.0,176.0,220.0,264.0,orange,hexagon
0.0,7.0,3.0,1.0,7.0,3.0,2070.392847000221,3.0,1.0,part_3,go,0.0,0.0,0.0,108.0,2.0,216.0,324.0,108.0,270.0,162.0,54.0,orange,hexagon
0.0,5.0,1.0,1.0,7.0,5.0,2904.6447989994704,3.0,1.0,part_3,go,0.0,0.0,0.0,98.0,2.0,294.0,147.0,196.0,49.0,98.0,245.0,blue,square
0.0,7.0,3.0,1.0,7.0,6.0,1781.7285629998878,3.0,1.0,part_3,go,0.0,0.0,0.0,234.0,6.0,156.0,195.0,117.0,39.0,78.0,234.0,orange,hexagon
0.0,8.0,4.0,1.0,7.0,2.0,2543.9187410001978,3.0,1.0,part_3,go,0.0,0.0,0.0,136.0,4.0,34.0,136.0,68.0,102.0,204.0,170.0,yellow,flipped triangle
0.0,6.0,2.0,1.0,7.0,3.0,2134.7023680000348,3.0,1.0,part_3,go,0.0,0.0,0.0,68.0,2.0,204.0,170.0,68.0,34.0,102.0,136.0,green,I
0.0,6.0,2.0,1.0,7.0,4.0,4838.874594000117,3.0,1.0,part_3,go,0.0,0.0,0.0,196.0,4.0,49.0,294.0,245.0,196.0,147.0,98.0,green,I
0.0,8.0,4.0,1.0,7.0,4.0,4026.516292999986,3.0,1.0,part_3,go,0.0,0.0,0.0,216.0,4.0,270.0,324.0,108.0,216.0,54.0,162.0,yellow,flipped triangle
0.0,6.0,2.0,1.0,7.0,4.0,3660.889106000468,3.0,1.0,part_3,go,0.0,0.0,0.0,162.0,3.0,54.0,108.0,216.0,162.0,324.0,270.0,green,I
0.0,5.0,1.0,1.0,7.0,4.0,4619.187576999138,3.0,1.0,part_3,go,0.0,0.0,0.0,102.0,3.0,34.0,204.0,136.0,102.0,170.0,68.0,blue,square
0.0,5.0,1.0,1.0,7.0,3.0,1885.1768089998584,3.0,2.0,part_3,go,0.0,0.0,0.0,88.0,2.0,264.0,132.0,88.0,220.0,176.0,44.0,blue,square
0.0,1.0,1.0,0.0,7.0,1.0,3418.3298010002545,3.0,1.0,part_3,go,0.0,0.0,0.0,204.0,6.0,204.0,102.0,170.0,34.0,136.0,68.0,cyan,cross
0.0,8.0,4.0,1.0,7.0,2.0,2018.4944130005533,3.0,1.0,part_3,go,0.0,0.0,0.0,54.0,1.0,108.0,54.0,216.0,324.0,270.0,162.0,yellow,flipped triangle
0.0,2.0,2.0,0.0,7.0,5.0,2032.2628680005437,3.0,1.0,part_3,go,0.0,0.0,0.0,54.0,1.0,270.0,108.0,324.0,216.0,54.0,162.0,white,triangle
0.0,1.0,1.0,0.0,7.0,4.0,2365.8710680001604,3.0,1.0,part_3,go,0.0,0.0,0.0,156.0,4.0,117.0,195.0,78.0,156.0,234.0,39.0,cyan,cross
0.0,6.0,2.0,1.0,7.0,3.0,1846.3625409995077,3.0,1.0,part_3,go,0.0,0.0,0.0,88.0,2.0,176.0,220.0,88.0,264.0,44.0,132.0,green,I
0.0,4.0,4.0,0.0,7.0,4.0,3251.649920000091,3.0,1.0,part_3,go,0.0,0.0,0.0,216.0,4.0,270.0,324.0,162.0,216.0,108.0,54.0,magenta,diamond
0.0,7.0,3.0,1.0,7.0,4.0,2956.3730669997312,3.0,1.0,part_3,go,0.0,0.0,0.0,196.0,4.0,294.0,49.0,98.0,196.0,245.0,147.0,orange,hexagon
0.0,6.0,2.0,1.0,7.0,2.0,2198.2598799995685,3.0,1.0,part_3,go,0.0,0.0,0.0,88.0,2.0,220.0,88.0,44.0,176.0,264.0,132.0,green,I
0.0,2.0,2.0,0.0,7.0,5.0,2072.199817999717,3.0,1.0,part_3,go,0.0,0.0,0.0,220.0,5.0,88.0,132.0,176.0,44.0,220.0,264.0,white,triangle
0.0,3.0,3.0,0.0,7.0,4.0,2350.8190149996153,3.0,1.0,part_3,go,0.0,0.0,0.0,156.0,4.0,234.0,39.0,117.0,156.0,78.0,195.0,gray,circle
0.0,2.0,2.0,0.0,7.0,4.0,2047.0363000004,4.0,1.0,part_3,go,0.0,0.0,0.0,117.0,3.0,78.0,39.0,156.0,117.0,195.0,234.0,white,triangle
0.0,5.0,1.0,1.0,7.0,3.0,4252.37409500005,4.0,1.0,part_3,go,0.0,0.0,0.0,98.0,2.0,196.0,147.0,98.0,49.0,294.0,245.0,blue,square
0.0,4.0,4.0,0.0,7.0,3.0,3861.8635120001272,4.0,1.0,part_3,go,0.0,0.0,0.0,88.0,2.0,132.0,220.0,88.0,176.0,264.0,44.0,magenta,diamond
0.0,6.0,2.0,1.0,7.0,6.0,3106.944827000006,4.0,1.0,part_3,go,0.0,0.0,0.0,98.0,2.0,49.0,294.0,245.0,147.0,196.0,98.0,green,I
0.0,2.0,2.0,0.0,7.0,4.0,4708.016149999821,4.0,2.0,part_3,go,0.0,0.0,0.0,196.0,4.0,49.0,98.0,147.0,196.0,294.0,245.0,white,triangle
0.0,8.0,4.0,1.0,7.0,3.0,2225.709778000237,4.0,1.0,part_3,go,0.0,0.0,0.0,88.0,2.0,44.0,176.0,88.0,132.0,264.0,220.0,yellow,flipped triangle
0.0,5.0,1.0,1.0,7.0,4.0,3287.734984999588,4.0,1.0,part_3,go,0.0,0.0,0.0,324.0,6.0,270.0,54.0,108.0,324.0,216.0,162.0,blue,square
0.0,1.0,1.0,0.0,7.0,3.0,2523.4842449999633,4.0,1.0,part_3,go,0.0,0.0,0.0,245.0,5.0,196.0,294.0,245.0,49.0,147.0,98.0,cyan,cross
0.0,4.0,4.0,0.0,7.0,3.0,2166.3585819997024,4.0,1.0,part_3,go,0.0,0.0,0.0,162.0,3.0,216.0,324.0,162.0,270.0,54.0,108.0,magenta,diamond
0.0,1.0,1.0,0.0,7.0,5.0,2832.964600000196,4.0,1.0,part_3,go,0.0,0.0,0.0,264.0,6.0,44.0,88.0,132.0,220.0,264.0,176.0,cyan,cross
0.0,5.0,1.0,1.0,7.0,6.0,4038.2743899999696,4.0,1.0,part_3,go,0.0,0.0,0.0,117.0,3.0,39.0,78.0,156.0,234.0,195.0,117.0,blue,square
0.0,8.0,4.0,1.0,7.0,5.0,2590.1866800004427,4.0,2.0,part_3,go,0.0,0.0,0.0,78.0,2.0,117.0,39.0,156.0,195.0,78.0,234.0,yellow,flipped triangle
0.0,1.0,1.0,0.0,7.0,1.0,4130.8802989997275,4.0,1.0,part_3,go,0.0,0.0,0.0,216.0,4.0,216.0,270.0,108.0,324.0,54.0,162.0,cyan,cross
0.0,8.0,4.0,1.0,7.0,3.0,1704.9272979993475,4.0,1.0,part_3,go,0.0,0.0,0.0,98.0,2.0,245.0,294.0,98.0,147.0,49.0,196.0,yellow,flipped triangle
0.0,4.0,4.0,0.0,7.0,4.0,2231.3818319998973,4.0,1.0,part_3,go,0.0,0.0,0.0,117.0,3.0,39.0,156.0,78.0,117.0,195.0,234.0,magenta,diamond
0.0,4.0,4.0,0.0,7.0,4.0,1703.675579999981,4.0,1.0,part_3,go,0.0,0.0,0.0,132.0,3.0,176.0,88.0,44.0,132.0,220.0,264.0,magenta,diamond
0.0,4.0,4.0,0.0,7.0,2.0,3725.453364999339,4.0,1.0,part_3,go,0.0,0.0,0.0,136.0,4.0,68.0,136.0,204.0,102.0,34.0,170.0,magenta,diamond
0.0,4.0,4.0,0.0,7.0,1.0,3364.9837859993568,4.0,1.0,part_3,go,0.0,0.0,0.0,68.0,2.0,68.0,34.0,102.0,170.0,204.0,136.0,magenta,diamond
0.0,2.0,2.0,0.0,7.0,4.0,3605.534936000367,4.0,1.0,part_3,go,0.0,0.0,0.0,108.0,2.0,54.0,324.0,270.0,108.0,162.0,216.0,white,triangle
0.0,1.0,1.0,0.0,7.0,4.0,1827.8246219997527,4.0,1.0,part_3,go,0.0,0.0,0.0,108.0,2.0,162.0,324.0,216.0,108.0,270.0,54.0,cyan,cross
