raw_reward_magnitude,stim_reward,stepwise_reward_magnitude,paired_with_stopping,quadrant,response,reaction_time,block,num_trial_presentations,which_part,stop_signal_trial_type,left_SSD,right_SSD,accuracy,chosen_bidding_amount,chosen_bidding_level,possible_bid_1,possible_bid_2,possible_bid_3,possible_bid_4,possible_bid_5,possible_bid_6,color_text,shape_text
0.0,3.0,0.0,0.0,2.0,2.0,460.0469919998886,1.0,1.0,part_1,,,,,,,,,,,,,magenta,cross
0.0,4.0,0.0,0.0,4.0,4.0,363.0404989999078,1.0,1.0,part_1,,,,,,,,,,,,,white,triangle
389.0,4.0,4.0,0.0,1.0,1.0,325.1344849998077,1.0,1.0,part_1,,,,,,,,,,,,,white,triangle
389.0,8.0,4.0,1.0,3.0,3.0,314.4397229998503,1.0,1.0,part_1,,,,,,,,,,,,,green,square
69.0,1.0,1.0,0.0,3.0,3.0,350.8646129998851,1.0,1.0,part_1,,,,,,,,,,,,,orange,I
0.0,7.0,0.0,1.0,2.0,2.0,301.0678089999601,1.0,1.0,part_1,,,,,,,,,,,,,blue,hexagon
215.0,7.0,3.0,1.0,4.0,4.0,278.879274999781,1.0,1.0,part_1,,,,,,,,,,,,,blue,hexagon
406.0,8.0,4.0,1.0,3.0,3.0,325.6795449999572,1.0,1.0,part_1,,,,,,,,,,,,,green,square
423.0,4.0,4.0,0.0,2.0,2.0,335.7009940000353,1.0,1.0,part_1,,,,,,,,,,,,,white,triangle
0.0,6.0,0.0,1.0,4.0,4.0,270.6303520001256,1.0,1.0,part_1,,,,,,,,,,,,,gray,circle
69.0,1.0,1.0,0.0,2.0,2.0,329.9282099999345,1.0,1.0,part_1,,,,,,,,,,,,,orange,I
30.0,5.0,1.0,1.0,2.0,2.0,374.3496150000283,1.0,1.0,part_1,,,,,,,,,,,,,cyan,flipped triangle
0.0,6.0,0.0,1.0,2.0,2.0,348.871379000002,1.0,1.0,part_1,,,,,,,,,,,,,gray,circle
0.0,3.0,0.0,0.0,2.0,2.0,310.1537739999003,1.0,1.0,part_1,,,,,,,,,,,,,magenta,cross
72.0,1.0,1.0,0.0,1.0,1.0,355.319487000088,1.0,1.0,part_1,,,,,,,,,,,,,orange,I
49.0,5.0,1.0,1.0,1.0,1.0,306.0453539999344,1.0,1.0,part_1,,,,,,,,,,,,,cyan,flipped triangle
97.0,6.0,2.0,1.0,4.0,4.0,429.0071800000987,1.0,1.0,part_1,,,,,,,,,,,,,gray,circle
0.0,3.0,0.0,0.0,3.0,3.0,352.0684740001343,1.0,1.0,part_1,,,,,,,,,,,,,magenta,cross
78.0,6.0,2.0,1.0,2.0,2.0,394.9294149999787,1.0,1.0,part_1,,,,,,,,,,,,,gray,circle
200.0,7.0,3.0,1.0,3.0,3.0,344.2464360000485,1.0,1.0,part_1,,,,,,,,,,,,,blue,hexagon
82.0,6.0,2.0,1.0,1.0,1.0,310.9871290000683,1.0,1.0,part_1,,,,,,,,,,,,,gray,circle
407.0,4.0,4.0,0.0,4.0,4.0,374.2212250001557,1.0,1.0,part_1,,,,,,,,,,,,,white,triangle
109.0,2.0,2.0,0.0,4.0,4.0,360.1683440001579,1.0,1.0,part_1,,,,,,,,,,,,,yellow,diamond
36.0,1.0,1.0,0.0,3.0,3.0,339.5460110000385,1.0,1.0,part_1,,,,,,,,,,,,,orange,I
121.0,6.0,2.0,1.0,2.0,2.0,321.0480609998285,1.0,1.0,part_1,,,,,,,,,,,,,gray,circle
185.0,7.0,3.0,1.0,3.0,3.0,328.2856159999028,1.0,1.0,part_1,,,,,,,,,,,,,blue,hexagon
177.0,3.0,3.0,0.0,4.0,4.0,341.1137710002094,1.0,1.0,part_1,,,,,,,,,,,,,magenta,cross
72.0,5.0,1.0,1.0,1.0,1.0,431.1479430000418,1.0,1.0,part_1,,,,,,,,,,,,,cyan,flipped triangle
0.0,2.0,0.0,0.0,2.0,2.0,316.764983999974,1.0,1.0,part_1,,,,,,,,,,,,,yellow,diamond
87.0,2.0,2.0,0.0,2.0,2.0,526.3816330000282,1.0,1.0,part_1,,,,,,,,,,,,,yellow,diamond
0.0,4.0,0.0,0.0,3.0,3.0,369.7175470001639,1.0,1.0,part_1,,,,,,,,,,,,,white,triangle
59.0,1.0,1.0,0.0,1.0,1.0,311.05084699993307,1.0,1.0,part_1,,,,,,,,,,,,,orange,I
224.0,7.0,3.0,1.0,3.0,3.0,329.5894489999682,1.0,1.0,part_1,,,,,,,,,,,,,blue,hexagon
212.0,7.0,3.0,1.0,1.0,1.0,312.5377579999622,1.0,1.0,part_1,,,,,,,,,,,,,blue,hexagon
0.0,1.0,0.0,0.0,2.0,2.0,303.426269999818,1.0,1.0,part_1,,,,,,,,,,,,,orange,I
395.0,8.0,4.0,1.0,2.0,2.0,312.9795449999619,1.0,1.0,part_1,,,,,,,,,,,,,green,square
212.0,7.0,3.0,1.0,1.0,1.0,332.0926069998222,1.0,1.0,part_1,,,,,,,,,,,,,blue,hexagon
97.0,6.0,2.0,1.0,1.0,1.0,432.0394799999576,1.0,1.0,part_1,,,,,,,,,,,,,gray,circle
188.0,7.0,3.0,1.0,2.0,2.0,296.0265880001316,1.0,1.0,part_1,,,,,,,,,,,,,blue,hexagon
119.0,6.0,2.0,1.0,2.0,2.0,312.3172489999888,1.0,1.0,part_1,,,,,,,,,,,,,gray,circle
0.0,8.0,0.0,1.0,3.0,3.0,399.2736170000626,1.0,2.0,part_1,,,,,,,,,,,,,green,square
49.0,1.0,1.0,0.0,1.0,1.0,361.2016789998051,1.0,1.0,part_1,,,,,,,,,,,,,orange,I
99.0,2.0,2.0,0.0,4.0,4.0,370.7163540000238,1.0,1.0,part_1,,,,,,,,,,,,,yellow,diamond
97.0,2.0,2.0,0.0,3.0,3.0,380.8391380000557,1.0,1.0,part_1,,,,,,,,,,,,,yellow,diamond
0.0,7.0,0.0,1.0,3.0,3.0,328.682641000114,1.0,1.0,part_1,,,,,,,,,,,,,blue,hexagon
78.0,2.0,2.0,0.0,1.0,1.0,334.6995679999054,1.0,1.0,part_1,,,,,,,,,,,,,yellow,diamond
121.0,2.0,2.0,0.0,4.0,4.0,359.9964899999577,1.0,1.0,part_1,,,,,,,,,,,,,yellow,diamond
379.0,8.0,4.0,1.0,2.0,2.0,329.1616609999437,1.0,1.0,part_1,,,,,,,,,,,,,green,square
380.0,4.0,4.0,0.0,2.0,2.0,386.6980589998547,1.0,1.0,part_1,,,,,,,,,,,,,white,triangle
72.0,5.0,1.0,1.0,4.0,4.0,361.7221439999412,1.0,1.0,part_1,,,,,,,,,,,,,cyan,flipped triangle
423.0,8.0,4.0,1.0,2.0,2.0,316.7139649999626,1.0,1.0,part_1,,,,,,,,,,,,,green,square
193.0,3.0,3.0,0.0,4.0,4.0,530.7684130000325,1.0,1.0,part_1,,,,,,,,,,,,,magenta,cross
398.0,8.0,4.0,1.0,4.0,4.0,373.2252770000741,1.0,1.0,part_1,,,,,,,,,,,,,green,square
0.0,7.0,0.0,1.0,3.0,3.0,341.5776550000373,1.0,1.0,part_1,,,,,,,,,,,,,blue,hexagon
69.0,5.0,1.0,1.0,4.0,4.0,388.866458999928,1.0,1.0,part_1,,,,,,,,,,,,,cyan,flipped triangle
190.0,3.0,3.0,0.0,2.0,2.0,342.4157749998358,1.0,1.0,part_1,,,,,,,,,,,,,magenta,cross
0.0,4.0,0.0,0.0,2.0,2.0,373.5836949999793,1.0,1.0,part_1,,,,,,,,,,,,,white,triangle
68.0,1.0,1.0,0.0,4.0,4.0,338.3232890000727,1.0,1.0,part_1,,,,,,,,,,,,,orange,I
224.0,3.0,3.0,0.0,4.0,4.0,293.240441999842,1.0,1.0,part_1,,,,,,,,,,,,,magenta,cross
68.0,5.0,1.0,1.0,4.0,4.0,359.2573549999542,1.0,1.0,part_1,,,,,,,,,,,,,cyan,flipped triangle
98.0,2.0,2.0,0.0,3.0,3.0,347.9060959998605,1.0,1.0,part_1,,,,,,,,,,,,,yellow,diamond
192.0,3.0,3.0,0.0,3.0,3.0,428.9147060001141,1.0,1.0,part_1,,,,,,,,,,,,,magenta,cross
183.0,3.0,3.0,0.0,3.0,3.0,364.5666029999574,1.0,1.0,part_1,,,,,,,,,,,,,magenta,cross
213.0,3.0,3.0,0.0,4.0,4.0,311.4462519999961,1.0,1.0,part_1,,,,,,,,,,,,,magenta,cross
212.0,3.0,3.0,0.0,2.0,2.0,341.0373670001263,1.0,1.0,part_1,,,,,,,,,,,,,magenta,cross
0.0,2.0,0.0,0.0,4.0,4.0,290.8530070001234,1.0,1.0,part_1,,,,,,,,,,,,,yellow,diamond
416.0,8.0,4.0,1.0,3.0,3.0,358.5591670000667,1.0,1.0,part_1,,,,,,,,,,,,,green,square
380.0,8.0,4.0,1.0,1.0,1.0,313.9696939999794,1.0,1.0,part_1,,,,,,,,,,,,,green,square
97.0,2.0,2.0,0.0,2.0,2.0,305.6723569998212,1.0,1.0,part_1,,,,,,,,,,,,,yellow,diamond
0.0,6.0,0.0,1.0,4.0,4.0,394.8489669999162,1.0,1.0,part_1,,,,,,,,,,,,,gray,circle
51.0,5.0,1.0,1.0,3.0,3.0,374.4490670001141,1.0,1.0,part_1,,,,,,,,,,,,,cyan,flipped triangle
0.0,8.0,0.0,1.0,2.0,2.0,300.4506089998813,1.0,1.0,part_1,,,,,,,,,,,,,green,square
0.0,5.0,0.0,1.0,4.0,4.0,428.377638000029,1.0,1.0,part_1,,,,,,,,,,,,,cyan,flipped triangle
103.0,2.0,2.0,0.0,1.0,1.0,306.3541859999077,1.0,1.0,part_1,,,,,,,,,,,,,yellow,diamond
64.0,1.0,1.0,0.0,4.0,4.0,319.5648839998739,1.0,1.0,part_1,,,,,,,,,,,,,orange,I
72.0,1.0,1.0,0.0,4.0,4.0,322.3004179999407,1.0,1.0,part_1,,,,,,,,,,,,,orange,I
0.0,1.0,0.0,0.0,2.0,2.0,308.1334479998077,1.0,1.0,part_1,,,,,,,,,,,,,orange,I
83.0,2.0,2.0,0.0,3.0,3.0,426.7061730001842,1.0,1.0,part_1,,,,,,,,,,,,,yellow,diamond
90.0,6.0,2.0,1.0,4.0,4.0,366.4850700001807,1.0,1.0,part_1,,,,,,,,,,,,,gray,circle
0.0,2.0,0.0,0.0,4.0,4.0,359.1048009998303,1.0,1.0,part_1,,,,,,,,,,,,,yellow,diamond
186.0,7.0,3.0,1.0,2.0,2.0,338.0558750000091,1.0,1.0,part_1,,,,,,,,,,,,,blue,hexagon
202.0,3.0,3.0,0.0,3.0,3.0,337.7157370000532,1.0,1.0,part_1,,,,,,,,,,,,,magenta,cross
219.0,3.0,3.0,0.0,2.0,2.0,521.4638160000504,1.0,1.0,part_1,,,,,,,,,,,,,magenta,cross
121.0,6.0,2.0,1.0,4.0,4.0,464.0716589999556,1.0,1.0,part_1,,,,,,,,,,,,,gray,circle
190.0,7.0,3.0,1.0,1.0,1.0,422.0461489999252,1.0,1.0,part_1,,,,,,,,,,,,,blue,hexagon
32.0,1.0,1.0,0.0,1.0,1.0,398.7308319999556,1.0,1.0,part_1,,,,,,,,,,,,,orange,I
51.0,1.0,1.0,0.0,3.0,3.0,456.233746999942,1.0,1.0,part_1,,,,,,,,,,,,,orange,I
50.0,1.0,1.0,0.0,2.0,2.0,314.3952340001306,1.0,1.0,part_1,,,,,,,,,,,,,orange,I
0.0,2.0,0.0,0.0,2.0,2.0,300.8383869998852,1.0,1.0,part_1,,,,,,,,,,,,,yellow,diamond
75.0,1.0,1.0,0.0,4.0,4.0,284.763360999932,1.0,1.0,part_1,,,,,,,,,,,,,orange,I
31.0,5.0,1.0,1.0,2.0,2.0,299.0556049999213,1.0,1.0,part_1,,,,,,,,,,,,,cyan,flipped triangle
122.0,2.0,2.0,0.0,4.0,4.0,307.2236570001223,1.0,1.0,part_1,,,,,,,,,,,,,yellow,diamond
26.0,5.0,1.0,1.0,1.0,1.0,325.1622200000383,1.0,1.0,part_1,,,,,,,,,,,,,cyan,flipped triangle
201.0,7.0,3.0,1.0,1.0,1.0,353.3547900001395,1.0,1.0,part_1,,,,,,,,,,,,,blue,hexagon
386.0,4.0,4.0,0.0,4.0,4.0,324.1385909996097,1.0,1.0,part_1,,,,,,,,,,,,,white,triangle
379.0,4.0,4.0,0.0,2.0,2.0,325.7473650000975,1.0,1.0,part_1,,,,,,,,,,,,,white,triangle
0.0,6.0,0.0,1.0,4.0,4.0,316.2464020001607,1.0,1.0,part_1,,,,,,,,,,,,,gray,circle
0.0,2.0,0.0,0.0,2.0,2.0,313.5306620001756,1.0,1.0,part_1,,,,,,,,,,,,,yellow,diamond
108.0,6.0,2.0,1.0,2.0,2.0,509.63682099973084,1.0,1.0,part_1,,,,,,,,,,,,,gray,circle
44.0,1.0,1.0,0.0,3.0,3.0,439.171795999755,1.0,2.0,part_1,,,,,,,,,,,,,orange,I
177.0,3.0,3.0,0.0,3.0,3.0,379.4464419997894,2.0,1.0,part_1,,,,,,,,,,,,,magenta,cross
0.0,5.0,0.0,1.0,4.0,4.0,316.6189509997821,2.0,1.0,part_1,,,,,,,,,,,,,cyan,flipped triangle
201.0,3.0,3.0,0.0,4.0,4.0,353.9747670001816,2.0,1.0,part_1,,,,,,,,,,,,,magenta,cross
108.0,2.0,2.0,0.0,1.0,1.0,324.1359530002228,2.0,1.0,part_1,,,,,,,,,,,,,yellow,diamond
0.0,8.0,0.0,1.0,3.0,3.0,314.5684299997811,2.0,1.0,part_1,,,,,,,,,,,,,green,square
102.0,2.0,2.0,0.0,1.0,1.0,357.7964099999917,2.0,1.0,part_1,,,,,,,,,,,,,yellow,diamond
420.0,8.0,4.0,1.0,1.0,1.0,331.0194480000064,2.0,1.0,part_1,,,,,,,,,,,,,green,square
387.0,8.0,4.0,1.0,2.0,2.0,323.4241680002014,2.0,1.0,part_1,,,,,,,,,,,,,green,square
97.0,2.0,2.0,0.0,1.0,1.0,295.5047810000906,2.0,1.0,part_1,,,,,,,,,,,,,yellow,diamond
386.0,8.0,4.0,1.0,4.0,4.0,292.0530350002082,2.0,1.0,part_1,,,,,,,,,,,,,green,square
111.0,2.0,2.0,0.0,1.0,1.0,328.4105640000234,2.0,1.0,part_1,,,,,,,,,,,,,yellow,diamond
217.0,7.0,3.0,1.0,1.0,1.0,389.6714050001719,2.0,1.0,part_1,,,,,,,,,,,,,blue,hexagon
78.0,6.0,2.0,1.0,4.0,4.0,359.1198660001282,2.0,1.0,part_1,,,,,,,,,,,,,gray,circle
218.0,3.0,3.0,0.0,1.0,1.0,310.5660720002561,2.0,1.0,part_1,,,,,,,,,,,,,magenta,cross
51.0,1.0,1.0,0.0,2.0,2.0,330.0754469996718,2.0,1.0,part_1,,,,,,,,,,,,,orange,I
75.0,5.0,1.0,1.0,2.0,2.0,378.0835570000818,2.0,1.0,part_1,,,,,,,,,,,,,cyan,flipped triangle
218.0,7.0,3.0,1.0,3.0,3.0,417.7766040002098,2.0,1.0,part_1,,,,,,,,,,,,,blue,hexagon
83.0,6.0,2.0,1.0,3.0,3.0,386.1938819995885,2.0,1.0,part_1,,,,,,,,,,,,,gray,circle
94.0,6.0,2.0,1.0,3.0,3.0,375.8564589998059,2.0,1.0,part_1,,,,,,,,,,,,,gray,circle
399.0,4.0,4.0,0.0,3.0,3.0,317.0734929999526,2.0,1.0,part_1,,,,,,,,,,,,,white,triangle
79.0,6.0,2.0,1.0,3.0,3.0,353.1372839997857,2.0,1.0,part_1,,,,,,,,,,,,,gray,circle
0.0,7.0,0.0,1.0,2.0,2.0,370.4624279998825,2.0,1.0,part_1,,,,,,,,,,,,,blue,hexagon
223.0,7.0,3.0,1.0,4.0,4.0,372.1424760001355,2.0,1.0,part_1,,,,,,,,,,,,,blue,hexagon
45.0,5.0,1.0,1.0,4.0,4.0,338.551692999772,2.0,1.0,part_1,,,,,,,,,,,,,cyan,flipped triangle
418.0,8.0,4.0,1.0,3.0,3.0,423.9969800000835,2.0,1.0,part_1,,,,,,,,,,,,,green,square
122.0,6.0,2.0,1.0,3.0,3.0,359.739449999779,2.0,1.0,part_1,,,,,,,,,,,,,gray,circle
200.0,3.0,3.0,0.0,1.0,1.0,307.6080829996499,2.0,1.0,part_1,,,,,,,,,,,,,magenta,cross
26.0,1.0,1.0,0.0,1.0,1.0,354.0853609997612,2.0,1.0,part_1,,,,,,,,,,,,,orange,I
0.0,5.0,0.0,1.0,2.0,2.0,297.7974119999089,2.0,1.0,part_1,,,,,,,,,,,,,cyan,flipped triangle
90.0,2.0,2.0,0.0,2.0,2.0,349.4951319999018,2.0,1.0,part_1,,,,,,,,,,,,,yellow,diamond
109.0,2.0,2.0,0.0,4.0,4.0,328.3172159999594,2.0,1.0,part_1,,,,,,,,,,,,,yellow,diamond
385.0,8.0,4.0,1.0,2.0,2.0,289.4284449998849,2.0,1.0,part_1,,,,,,,,,,,,,green,square
406.0,8.0,4.0,1.0,1.0,1.0,340.3908629998113,2.0,1.0,part_1,,,,,,,,,,,,,green,square
109.0,6.0,2.0,1.0,3.0,3.0,427.7723489999516,2.0,1.0,part_1,,,,,,,,,,,,,gray,circle
0.0,3.0,0.0,0.0,1.0,1.0,288.9997299998867,2.0,1.0,part_1,,,,,,,,,,,,,magenta,cross
111.0,6.0,2.0,1.0,4.0,4.0,360.8749230002104,2.0,2.0,part_1,,,,,,,,,,,,,gray,circle
218.0,7.0,3.0,1.0,3.0,3.0,322.3560060000636,2.0,1.0,part_1,,,,,,,,,,,,,blue,hexagon
425.0,4.0,4.0,0.0,1.0,1.0,295.5534860002444,2.0,1.0,part_1,,,,,,,,,,,,,white,triangle
387.0,8.0,4.0,1.0,1.0,1.0,403.23975299997977,2.0,1.0,part_1,,,,,,,,,,,,,green,square
206.0,3.0,3.0,0.0,2.0,2.0,311.5905939998811,2.0,1.0,part_1,,,,,,,,,,,,,magenta,cross
0.0,7.0,0.0,1.0,3.0,3.0,333.0698899999333,2.0,1.0,part_1,,,,,,,,,,,,,blue,hexagon
0.0,8.0,0.0,1.0,3.0,3.0,344.9878890000946,2.0,1.0,part_1,,,,,,,,,,,,,green,square
401.0,4.0,4.0,0.0,1.0,1.0,313.1975460000831,2.0,1.0,part_1,,,,,,,,,,,,,white,triangle
27.0,5.0,1.0,1.0,2.0,2.0,366.9109229999776,2.0,1.0,part_1,,,,,,,,,,,,,cyan,flipped triangle
403.0,8.0,4.0,1.0,1.0,1.0,304.7766849999789,2.0,1.0,part_1,,,,,,,,,,,,,green,square
385.0,4.0,4.0,0.0,3.0,3.0,334.9067690000993,2.0,1.0,part_1,,,,,,,,,,,,,white,triangle
118.0,2.0,2.0,0.0,2.0,2.0,348.7292109998634,2.0,1.0,part_1,,,,,,,,,,,,,yellow,diamond
193.0,3.0,3.0,0.0,2.0,2.0,456.0687040002449,2.0,2.0,part_1,,,,,,,,,,,,,magenta,cross
0.0,4.0,0.0,0.0,4.0,4.0,405.4495990003488,2.0,1.0,part_1,,,,,,,,,,,,,white,triangle
182.0,3.0,3.0,0.0,3.0,3.0,374.5191950001754,2.0,1.0,part_1,,,,,,,,,,,,,magenta,cross
47.0,1.0,1.0,0.0,4.0,4.0,333.92469599994,2.0,1.0,part_1,,,,,,,,,,,,,orange,I
26.0,5.0,1.0,1.0,3.0,3.0,365.331065999726,2.0,1.0,part_1,,,,,,,,,,,,,cyan,flipped triangle
402.0,8.0,4.0,1.0,2.0,2.0,303.2353300000068,2.0,1.0,part_1,,,,,,,,,,,,,green,square
104.0,6.0,2.0,1.0,4.0,4.0,321.8979190000937,2.0,1.0,part_1,,,,,,,,,,,,,gray,circle
402.0,4.0,4.0,0.0,3.0,3.0,381.3703079999868,2.0,1.0,part_1,,,,,,,,,,,,,white,triangle
424.0,4.0,4.0,0.0,4.0,4.0,471.0723149996738,2.0,1.0,part_1,,,,,,,,,,,,,white,triangle
97.0,6.0,2.0,1.0,2.0,2.0,392.9487969999172,2.0,1.0,part_1,,,,,,,,,,,,,gray,circle
377.0,4.0,4.0,0.0,2.0,2.0,351.7499720001069,2.0,1.0,part_1,,,,,,,,,,,,,white,triangle
122.0,6.0,2.0,1.0,2.0,2.0,420.9841329998198,2.0,1.0,part_1,,,,,,,,,,,,,gray,circle
64.0,5.0,1.0,1.0,4.0,4.0,424.477263999961,2.0,1.0,part_1,,,,,,,,,,,,,cyan,flipped triangle
100.0,6.0,2.0,1.0,3.0,3.0,430.3092649997779,2.0,1.0,part_1,,,,,,,,,,,,,gray,circle
380.0,4.0,4.0,0.0,1.0,1.0,323.5803210000085,2.0,1.0,part_1,,,,,,,,,,,,,white,triangle
0.0,8.0,0.0,1.0,2.0,2.0,336.1898210000618,2.0,1.0,part_1,,,,,,,,,,,,,green,square
214.0,3.0,3.0,0.0,4.0,4.0,320.4103999996732,2.0,1.0,part_1,,,,,,,,,,,,,magenta,cross
421.0,8.0,4.0,1.0,3.0,3.0,355.8995110001888,2.0,1.0,part_1,,,,,,,,,,,,,green,square
193.0,7.0,3.0,1.0,1.0,1.0,354.1767249998884,2.0,1.0,part_1,,,,,,,,,,,,,blue,hexagon
177.0,7.0,3.0,1.0,4.0,4.0,357.6465559999633,2.0,1.0,part_1,,,,,,,,,,,,,blue,hexagon
102.0,6.0,2.0,1.0,2.0,2.0,407.453488000101,2.0,1.0,part_1,,,,,,,,,,,,,gray,circle
57.0,5.0,1.0,1.0,3.0,3.0,357.4384229996212,2.0,1.0,part_1,,,,,,,,,,,,,cyan,flipped triangle
0.0,6.0,0.0,1.0,2.0,2.0,374.5327090000501,2.0,1.0,part_1,,,,,,,,,,,,,gray,circle
57.0,5.0,1.0,1.0,3.0,3.0,367.7161190003062,2.0,1.0,part_1,,,,,,,,,,,,,cyan,flipped triangle
32.0,5.0,1.0,1.0,1.0,1.0,309.7675320000235,2.0,1.0,part_1,,,,,,,,,,,,,cyan,flipped triangle
69.0,5.0,1.0,1.0,2.0,2.0,393.8362230001075,2.0,1.0,part_1,,,,,,,,,,,,,cyan,flipped triangle
64.0,1.0,1.0,0.0,2.0,2.0,436.599028999808,2.0,1.0,part_1,,,,,,,,,,,,,orange,I
44.0,1.0,1.0,0.0,1.0,1.0,395.8070300000145,2.0,1.0,part_1,,,,,,,,,,,,,orange,I
221.0,7.0,3.0,1.0,2.0,2.0,337.2110000000248,2.0,1.0,part_1,,,,,,,,,,,,,blue,hexagon
30.0,1.0,1.0,0.0,3.0,3.0,343.0439889998524,2.0,1.0,part_1,,,,,,,,,,,,,orange,I
82.0,2.0,2.0,0.0,3.0,3.0,370.2572480001436,2.0,1.0,part_1,,,,,,,,,,,,,yellow,diamond
115.0,6.0,2.0,1.0,2.0,2.0,332.0997900000293,2.0,1.0,part_1,,,,,,,,,,,,,gray,circle
119.0,2.0,2.0,0.0,4.0,4.0,368.4440709998853,2.0,1.0,part_1,,,,,,,,,,,,,yellow,diamond
403.0,4.0,4.0,0.0,2.0,2.0,336.1088249998829,2.0,1.0,part_1,,,,,,,,,,,,,white,triangle
398.0,8.0,4.0,1.0,2.0,2.0,340.5451469998297,2.0,1.0,part_1,,,,,,,,,,,,,green,square
64.0,1.0,1.0,0.0,3.0,3.0,329.1657019999547,2.0,1.0,part_1,,,,,,,,,,,,,orange,I
104.0,2.0,2.0,0.0,2.0,2.0,393.8090179999562,2.0,1.0,part_1,,,,,,,,,,,,,yellow,diamond
113.0,2.0,2.0,0.0,3.0,3.0,368.6805889997231,2.0,1.0,part_1,,,,,,,,,,,,,yellow,diamond
0.0,8.0,0.0,1.0,2.0,2.0,267.936526000085,2.0,1.0,part_1,,,,,,,,,,,,,green,square
0.0,7.0,0.0,1.0,3.0,3.0,333.3278699997208,2.0,1.0,part_1,,,,,,,,,,,,,blue,hexagon
0.0,6.0,0.0,1.0,1.0,1.0,324.2079249998824,2.0,1.0,part_1,,,,,,,,,,,,,gray,circle
45.0,1.0,1.0,0.0,1.0,1.0,328.5312329999215,2.0,1.0,part_1,,,,,,,,,,,,,orange,I
416.0,4.0,4.0,0.0,4.0,4.0,354.3754860002082,2.0,1.0,part_1,,,,,,,,,,,,,white,triangle
189.0,7.0,3.0,1.0,3.0,3.0,356.7181299999902,2.0,1.0,part_1,,,,,,,,,,,,,blue,hexagon
0.0,5.0,0.0,1.0,4.0,4.0,335.376412000187,2.0,1.0,part_1,,,,,,,,,,,,,cyan,flipped triangle
387.0,8.0,4.0,1.0,4.0,4.0,449.0805729997191,2.0,1.0,part_1,,,,,,,,,,,,,green,square
413.0,4.0,4.0,0.0,3.0,3.0,380.178173999866,2.0,1.0,part_1,,,,,,,,,,,,,white,triangle
115.0,2.0,2.0,0.0,2.0,2.0,308.044332999998,2.0,1.0,part_1,,,,,,,,,,,,,yellow,diamond
214.0,7.0,3.0,1.0,1.0,1.0,314.7315840001283,2.0,1.0,part_1,,,,,,,,,,,,,blue,hexagon
0.0,1.0,0.0,0.0,3.0,3.0,346.6474649999327,2.0,1.0,part_1,,,,,,,,,,,,,orange,I
208.0,3.0,3.0,0.0,4.0,4.0,442.474349999884,2.0,1.0,part_1,,,,,,,,,,,,,magenta,cross
86.0,6.0,2.0,1.0,1.0,1.0,344.8552879999624,2.0,1.0,part_1,,,,,,,,,,,,,gray,circle
408.0,8.0,4.0,1.0,4.0,4.0,403.8715920000868,2.0,1.0,part_1,,,,,,,,,,,,,green,square
122.0,6.0,2.0,1.0,3.0,3.0,417.961220000052,3.0,1.0,part_1,,,,,,,,,,,,,gray,circle
401.0,8.0,4.0,1.0,1.0,1.0,336.7229679997763,3.0,1.0,part_1,,,,,,,,,,,,,green,square
199.0,3.0,3.0,0.0,1.0,1.0,393.283983999936,3.0,1.0,part_1,,,,,,,,,,,,,magenta,cross
180.0,7.0,3.0,1.0,4.0,4.0,361.2233250000827,3.0,1.0,part_1,,,,,,,,,,,,,blue,hexagon
0.0,4.0,0.0,0.0,4.0,4.0,331.2629010001728,3.0,1.0,part_1,,,,,,,,,,,,,white,triangle
0.0,7.0,0.0,1.0,1.0,1.0,297.9808229997616,3.0,1.0,part_1,,,,,,,,,,,,,blue,hexagon
0.0,4.0,0.0,0.0,4.0,4.0,296.1283159997947,3.0,1.0,part_1,,,,,,,,,,,,,white,triangle
0.0,1.0,0.0,0.0,4.0,4.0,499.6864800000367,3.0,1.0,part_1,,,,,,,,,,,,,orange,I
201.0,3.0,3.0,0.0,3.0,3.0,369.5051080003395,3.0,2.0,part_1,,,,,,,,,,,,,magenta,cross
215.0,3.0,3.0,0.0,3.0,3.0,350.37443300007,3.0,1.0,part_1,,,,,,,,,,,,,magenta,cross
52.0,5.0,1.0,1.0,4.0,4.0,333.8025320003908,3.0,1.0,part_1,,,,,,,,,,,,,cyan,flipped triangle
77.0,2.0,2.0,0.0,4.0,4.0,368.1349059997956,3.0,1.0,part_1,,,,,,,,,,,,,yellow,diamond
177.0,7.0,3.0,1.0,4.0,4.0,320.1266360001682,3.0,1.0,part_1,,,,,,,,,,,,,blue,hexagon
36.0,5.0,1.0,1.0,2.0,2.0,328.118794999682,3.0,1.0,part_1,,,,,,,,,,,,,cyan,flipped triangle
78.0,6.0,2.0,1.0,1.0,1.0,435.6357220003701,3.0,1.0,part_1,,,,,,,,,,,,,gray,circle
29.0,1.0,1.0,0.0,3.0,3.0,430.8920430003127,3.0,1.0,part_1,,,,,,,,,,,,,orange,I
399.0,8.0,4.0,1.0,4.0,4.0,337.0132310001281,3.0,1.0,part_1,,,,,,,,,,,,,green,square
111.0,2.0,2.0,0.0,1.0,1.0,327.809268999772,3.0,1.0,part_1,,,,,,,,,,,,,yellow,diamond
182.0,7.0,3.0,1.0,2.0,2.0,331.7719000001489,3.0,1.0,part_1,,,,,,,,,,,,,blue,hexagon
0.0,6.0,0.0,1.0,1.0,1.0,336.0036849999233,3.0,1.0,part_1,,,,,,,,,,,,,gray,circle
93.0,6.0,2.0,1.0,1.0,1.0,354.2270140001164,3.0,1.0,part_1,,,,,,,,,,,,,gray,circle
199.0,3.0,3.0,0.0,1.0,1.0,326.1570699996809,3.0,1.0,part_1,,,,,,,,,,,,,magenta,cross
188.0,3.0,3.0,0.0,2.0,2.0,327.8352990000712,3.0,1.0,part_1,,,,,,,,,,,,,magenta,cross
0.0,4.0,0.0,0.0,4.0,4.0,358.6142330000257,3.0,1.0,part_1,,,,,,,,,,,,,white,triangle
0.0,2.0,0.0,0.0,1.0,1.0,303.8961010001912,3.0,1.0,part_1,,,,,,,,,,,,,yellow,diamond
0.0,8.0,0.0,1.0,2.0,2.0,306.0945049996917,3.0,1.0,part_1,,,,,,,,,,,,,green,square
411.0,8.0,4.0,1.0,1.0,1.0,387.0638940002209,3.0,1.0,part_1,,,,,,,,,,,,,green,square
0.0,4.0,0.0,0.0,1.0,1.0,357.591236999724,3.0,1.0,part_1,,,,,,,,,,,,,white,triangle
0.0,7.0,0.0,1.0,3.0,3.0,350.2371149997998,3.0,1.0,part_1,,,,,,,,,,,,,blue,hexagon
31.0,1.0,1.0,0.0,4.0,4.0,431.5613079998002,3.0,1.0,part_1,,,,,,,,,,,,,orange,I
103.0,6.0,2.0,1.0,3.0,3.0,390.9852359997785,3.0,1.0,part_1,,,,,,,,,,,,,gray,circle
416.0,4.0,4.0,0.0,3.0,3.0,312.5497999999425,3.0,1.0,part_1,,,,,,,,,,,,,white,triangle
199.0,7.0,3.0,1.0,4.0,4.0,333.0770269999448,3.0,1.0,part_1,,,,,,,,,,,,,blue,hexagon
86.0,6.0,2.0,1.0,4.0,4.0,369.7184269999525,3.0,1.0,part_1,,,,,,,,,,,,,gray,circle
189.0,7.0,3.0,1.0,2.0,2.0,327.424924999832,3.0,1.0,part_1,,,,,,,,,,,,,blue,hexagon
180.0,3.0,3.0,0.0,4.0,4.0,309.6294490001128,3.0,1.0,part_1,,,,,,,,,,,,,magenta,cross
93.0,2.0,2.0,0.0,3.0,3.0,337.2379620000174,3.0,1.0,part_1,,,,,,,,,,,,,yellow,diamond
78.0,2.0,2.0,0.0,4.0,4.0,332.2304550001718,3.0,1.0,part_1,,,,,,,,,,,,,yellow,diamond
387.0,4.0,4.0,0.0,4.0,4.0,344.8400580000452,3.0,1.0,part_1,,,,,,,,,,,,,white,triangle
406.0,4.0,4.0,0.0,1.0,1.0,412.4731420001808,3.0,1.0,part_1,,,,,,,,,,,,,white,triangle
67.0,5.0,1.0,1.0,4.0,4.0,352.8295820001403,3.0,1.0,part_1,,,,,,,,,,,,,cyan,flipped triangle
0.0,2.0,0.0,0.0,4.0,4.0,329.4607749999159,3.0,1.0,part_1,,,,,,,,,,,,,yellow,diamond
407.0,8.0,4.0,1.0,4.0,4.0,313.4236319997399,3.0,1.0,part_1,,,,,,,,,,,,,green,square
30.0,1.0,1.0,0.0,4.0,4.0,319.079112000054,3.0,1.0,part_1,,,,,,,,,,,,,orange,I
193.0,7.0,3.0,1.0,2.0,2.0,371.4829350001309,3.0,1.0,part_1,,,,,,,,,,,,,blue,hexagon
0.0,8.0,0.0,1.0,1.0,1.0,314.1037300001699,3.0,1.0,part_1,,,,,,,,,,,,,green,square
0.0,1.0,0.0,0.0,3.0,3.0,350.6518689996483,3.0,1.0,part_1,,,,,,,,,,,,,orange,I
213.0,7.0,3.0,1.0,3.0,3.0,390.6036400003358,3.0,1.0,part_1,,,,,,,,,,,,,blue,hexagon
72.0,1.0,1.0,0.0,3.0,3.0,327.0790520000446,3.0,1.0,part_1,,,,,,,,,,,,,orange,I
206.0,7.0,3.0,1.0,1.0,1.0,305.2064670000618,3.0,1.0,part_1,,,,,,,,,,,,,blue,hexagon
29.0,5.0,1.0,1.0,2.0,2.0,398.1266800001322,3.0,1.0,part_1,,,,,,,,,,,,,cyan,flipped triangle
421.0,4.0,4.0,0.0,1.0,1.0,291.2148810000872,3.0,1.0,part_1,,,,,,,,,,,,,white,triangle
0.0,1.0,0.0,0.0,4.0,4.0,452.2763630002373,3.0,2.0,part_1,,,,,,,,,,,,,orange,I
416.0,8.0,4.0,1.0,4.0,4.0,388.4541610000269,3.0,1.0,part_1,,,,,,,,,,,,,green,square
221.0,3.0,3.0,0.0,1.0,1.0,441.573893000168,3.0,1.0,part_1,,,,,,,,,,,,,magenta,cross
186.0,3.0,3.0,0.0,2.0,2.0,409.5081309997113,3.0,1.0,part_1,,,,,,,,,,,,,magenta,cross
0.0,8.0,0.0,1.0,3.0,3.0,377.1803340000588,3.0,1.0,part_1,,,,,,,,,,,,,green,square
424.0,8.0,4.0,1.0,3.0,3.0,359.8312969998005,3.0,1.0,part_1,,,,,,,,,,,,,green,square
185.0,7.0,3.0,1.0,4.0,4.0,471.5230949996112,3.0,1.0,part_1,,,,,,,,,,,,,blue,hexagon
102.0,2.0,2.0,0.0,1.0,1.0,347.66767300016,3.0,1.0,part_1,,,,,,,,,,,,,yellow,diamond
86.0,2.0,2.0,0.0,3.0,3.0,386.1269479998555,3.0,1.0,part_1,,,,,,,,,,,,,yellow,diamond
0.0,8.0,0.0,1.0,1.0,1.0,378.1659739997849,3.0,1.0,part_1,,,,,,,,,,,,,green,square
378.0,8.0,4.0,1.0,2.0,2.0,360.1456649998908,3.0,1.0,part_1,,,,,,,,,,,,,green,square
57.0,1.0,1.0,0.0,3.0,3.0,397.2386129998995,3.0,1.0,part_1,,,,,,,,,,,,,orange,I
380.0,8.0,4.0,1.0,3.0,3.0,361.8873740001618,3.0,1.0,part_1,,,,,,,,,,,,,green,square
85.0,2.0,2.0,0.0,2.0,2.0,331.3056039996809,3.0,1.0,part_1,,,,,,,,,,,,,yellow,diamond
0.0,3.0,0.0,0.0,1.0,1.0,422.2158110001146,3.0,1.0,part_1,,,,,,,,,,,,,magenta,cross
223.0,3.0,3.0,0.0,2.0,2.0,486.2867829997412,3.0,1.0,part_1,,,,,,,,,,,,,magenta,cross
389.0,4.0,4.0,0.0,1.0,1.0,399.6975260001818,3.0,1.0,part_1,,,,,,,,,,,,,white,triangle
0.0,5.0,0.0,1.0,4.0,4.0,493.0816590003815,3.0,1.0,part_1,,,,,,,,,,,,,cyan,flipped triangle
73.0,5.0,1.0,1.0,3.0,3.0,547.6691170001686,3.0,1.0,part_1,,,,,,,,,,,,,cyan,flipped triangle
41.0,5.0,1.0,1.0,1.0,1.0,420.0233060000755,3.0,1.0,part_1,,,,,,,,,,,,,cyan,flipped triangle
0.0,6.0,0.0,1.0,1.0,1.0,459.9292349998904,3.0,1.0,part_1,,,,,,,,,,,,,gray,circle
0.0,6.0,0.0,1.0,2.0,2.0,434.0055829998164,3.0,1.0,part_1,,,,,,,,,,,,,gray,circle
185.0,3.0,3.0,0.0,2.0,2.0,554.2106210000384,3.0,1.0,part_1,,,,,,,,,,,,,magenta,cross
0.0,1.0,0.0,0.0,2.0,2.0,536.5053569998963,3.0,1.0,part_1,,,,,,,,,,,,,orange,I
64.0,5.0,1.0,1.0,3.0,3.0,355.0571149999086,3.0,1.0,part_1,,,,,,,,,,,,,cyan,flipped triangle
183.0,7.0,3.0,1.0,4.0,4.0,407.5559429998066,3.0,1.0,part_1,,,,,,,,,,,,,blue,hexagon
399.0,4.0,4.0,0.0,3.0,3.0,337.6697949997833,3.0,1.0,part_1,,,,,,,,,,,,,white,triangle
402.0,4.0,4.0,0.0,3.0,3.0,313.3802399997876,3.0,1.0,part_1,,,,,,,,,,,,,white,triangle
115.0,2.0,2.0,0.0,3.0,3.0,332.2566530000586,3.0,1.0,part_1,,,,,,,,,,,,,yellow,diamond
0.0,3.0,0.0,0.0,4.0,4.0,450.4341729998486,3.0,1.0,part_1,,,,,,,,,,,,,magenta,cross
398.0,4.0,4.0,0.0,2.0,2.0,353.1441290001567,3.0,1.0,part_1,,,,,,,,,,,,,white,triangle
391.0,4.0,4.0,0.0,4.0,4.0,342.4162199999045,3.0,1.0,part_1,,,,,,,,,,,,,white,triangle
399.0,8.0,4.0,1.0,4.0,4.0,383.0079879999175,3.0,1.0,part_1,,,,,,,,,,,,,green,square
121.0,2.0,2.0,0.0,2.0,2.0,292.629924999801,3.0,1.0,part_1,,,,,,,,,,,,,yellow,diamond
27.0,1.0,1.0,0.0,4.0,4.0,255.26349599977038,3.0,1.0,part_1,,,,,,,,,,,,,orange,I
218.0,3.0,3.0,0.0,4.0,4.0,412.1947200001159,3.0,1.0,part_1,,,,,,,,,,,,,magenta,cross
425.0,8.0,4.0,1.0,1.0,1.0,373.294106999765,3.0,1.0,part_1,,,,,,,,,,,,,green,square
28.0,1.0,1.0,0.0,3.0,3.0,391.3138329999128,3.0,1.0,part_1,,,,,,,,,,,,,orange,I
412.0,4.0,4.0,0.0,4.0,4.0,486.9942780001111,3.0,1.0,part_1,,,,,,,,,,,,,white,triangle
0.0,5.0,0.0,1.0,2.0,2.0,328.4681820000514,3.0,1.0,part_1,,,,,,,,,,,,,cyan,flipped triangle
0.0,1.0,0.0,0.0,2.0,2.0,415.2457539998977,3.0,1.0,part_1,,,,,,,,,,,,,orange,I
395.0,4.0,4.0,0.0,4.0,4.0,340.8954320002522,3.0,1.0,part_1,,,,,,,,,,,,,white,triangle
398.0,4.0,4.0,0.0,1.0,1.0,394.6901080003044,3.0,1.0,part_1,,,,,,,,,,,,,white,triangle
97.0,2.0,2.0,0.0,1.0,1.0,349.1337240002394,3.0,1.0,part_1,,,,,,,,,,,,,yellow,diamond
387.0,4.0,4.0,0.0,1.0,1.0,351.8864670004404,3.0,1.0,part_1,,,,,,,,,,,,,white,triangle
392.0,4.0,4.0,0.0,2.0,2.0,324.0878870001324,3.0,1.0,part_1,,,,,,,,,,,,,white,triangle
0.0,5.0,0.0,1.0,3.0,3.0,345.5731349999951,3.0,1.0,part_1,,,,,,,,,,,,,cyan,flipped triangle
79.0,2.0,2.0,0.0,2.0,2.0,321.8480539999291,3.0,1.0,part_1,,,,,,,,,,,,,yellow,diamond
193.0,7.0,3.0,1.0,1.0,1.0,401.7271369998525,4.0,1.0,part_1,,,,,,,,,,,,,blue,hexagon
406.0,4.0,4.0,0.0,2.0,2.0,348.4630250000009,4.0,1.0,part_1,,,,,,,,,,,,,white,triangle
99.0,6.0,2.0,1.0,1.0,1.0,308.0417360001775,4.0,1.0,part_1,,,,,,,,,,,,,gray,circle
378.0,4.0,4.0,0.0,4.0,4.0,330.8160849996966,4.0,1.0,part_1,,,,,,,,,,,,,white,triangle
50.0,5.0,1.0,1.0,2.0,2.0,316.272040000058,4.0,1.0,part_1,,,,,,,,,,,,,cyan,flipped triangle
122.0,2.0,2.0,0.0,1.0,1.0,336.7403570000533,4.0,1.0,part_1,,,,,,,,,,,,,yellow,diamond
402.0,8.0,4.0,1.0,2.0,2.0,297.2748339998361,4.0,1.0,part_1,,,,,,,,,,,,,green,square
42.0,5.0,1.0,1.0,1.0,1.0,279.1266509998422,4.0,1.0,part_1,,,,,,,,,,,,,cyan,flipped triangle
44.0,5.0,1.0,1.0,2.0,2.0,262.8337409996675,4.0,1.0,part_1,,,,,,,,,,,,,cyan,flipped triangle
211.0,7.0,3.0,1.0,4.0,4.0,456.7145310002161,4.0,1.0,part_1,,,,,,,,,,,,,blue,hexagon
33.0,5.0,1.0,1.0,4.0,4.0,338.032701999964,4.0,1.0,part_1,,,,,,,,,,,,,cyan,flipped triangle
47.0,5.0,1.0,1.0,4.0,4.0,328.3291709999503,4.0,1.0,part_1,,,,,,,,,,,,,cyan,flipped triangle
0.0,6.0,0.0,1.0,4.0,4.0,360.6519669997396,4.0,1.0,part_1,,,,,,,,,,,,,gray,circle
51.0,5.0,1.0,1.0,1.0,1.0,327.378974000112,4.0,1.0,part_1,,,,,,,,,,,,,cyan,flipped triangle
387.0,4.0,4.0,0.0,3.0,3.0,334.7267369999827,4.0,1.0,part_1,,,,,,,,,,,,,white,triangle
0.0,1.0,0.0,0.0,1.0,1.0,368.0826849999903,4.0,1.0,part_1,,,,,,,,,,,,,orange,I
85.0,6.0,2.0,1.0,1.0,1.0,439.1290890002892,4.0,1.0,part_1,,,,,,,,,,,,,gray,circle
59.0,5.0,1.0,1.0,1.0,1.0,321.905198999957,4.0,1.0,part_1,,,,,,,,,,,,,cyan,flipped triangle
28.0,5.0,1.0,1.0,3.0,3.0,399.6749549996821,4.0,1.0,part_1,,,,,,,,,,,,,cyan,flipped triangle
181.0,3.0,3.0,0.0,3.0,3.0,365.6550939999761,4.0,1.0,part_1,,,,,,,,,,,,,magenta,cross
211.0,3.0,3.0,0.0,1.0,1.0,345.3161780003029,4.0,1.0,part_1,,,,,,,,,,,,,magenta,cross
44.0,5.0,1.0,1.0,1.0,1.0,306.4113109999198,4.0,1.0,part_1,,,,,,,,,,,,,cyan,flipped triangle
57.0,1.0,1.0,0.0,2.0,2.0,326.7291530000875,4.0,1.0,part_1,,,,,,,,,,,,,orange,I
377.0,8.0,4.0,1.0,1.0,1.0,340.0971529999879,4.0,1.0,part_1,,,,,,,,,,,,,green,square
189.0,3.0,3.0,0.0,1.0,1.0,335.7300480001868,4.0,1.0,part_1,,,,,,,,,,,,,magenta,cross
30.0,5.0,1.0,1.0,2.0,2.0,338.0204069999308,4.0,1.0,part_1,,,,,,,,,,,,,cyan,flipped triangle
41.0,5.0,1.0,1.0,1.0,1.0,361.9109409996781,4.0,1.0,part_1,,,,,,,,,,,,,cyan,flipped triangle
392.0,8.0,4.0,1.0,4.0,4.0,428.4477080000215,4.0,1.0,part_1,,,,,,,,,,,,,green,square
94.0,2.0,2.0,0.0,3.0,3.0,394.6211600000424,4.0,1.0,part_1,,,,,,,,,,,,,yellow,diamond
52.0,1.0,1.0,0.0,2.0,2.0,365.8276390001447,4.0,1.0,part_1,,,,,,,,,,,,,orange,I
102.0,6.0,2.0,1.0,1.0,1.0,322.1010409997689,4.0,1.0,part_1,,,,,,,,,,,,,gray,circle
0.0,7.0,0.0,1.0,2.0,2.0,286.8833620000259,4.0,1.0,part_1,,,,,,,,,,,,,blue,hexagon
0.0,3.0,0.0,0.0,3.0,3.0,331.4263150000442,4.0,1.0,part_1,,,,,,,,,,,,,magenta,cross
406.0,8.0,4.0,1.0,1.0,1.0,310.5160449999857,4.0,1.0,part_1,,,,,,,,,,,,,green,square
0.0,4.0,0.0,0.0,2.0,2.0,371.0861509998722,4.0,1.0,part_1,,,,,,,,,,,,,white,triangle
175.0,7.0,3.0,1.0,3.0,3.0,348.7818030002927,4.0,1.0,part_1,,,,,,,,,,,,,blue,hexagon
30.0,1.0,1.0,0.0,1.0,1.0,320.37286700006,4.0,1.0,part_1,,,,,,,,,,,,,orange,I
418.0,4.0,4.0,0.0,3.0,3.0,281.0932050001611,4.0,1.0,part_1,,,,,,,,,,,,,white,triangle
217.0,3.0,3.0,0.0,1.0,1.0,302.0174660000521,4.0,1.0,part_1,,,,,,,,,,,,,magenta,cross
0.0,7.0,0.0,1.0,3.0,3.0,424.7200180002437,4.0,1.0,part_1,,,,,,,,,,,,,blue,hexagon
0.0,3.0,0.0,0.0,4.0,4.0,426.0086350000165,4.0,1.0,part_1,,,,,,,,,,,,,magenta,cross
33.0,1.0,1.0,0.0,2.0,2.0,327.8896960000566,4.0,1.0,part_1,,,,,,,,,,,,,orange,I
0.0,3.0,0.0,0.0,4.0,4.0,371.4984140001434,4.0,1.0,part_1,,,,,,,,,,,,,magenta,cross
0.0,2.0,0.0,0.0,1.0,1.0,336.0445640000762,4.0,1.0,part_1,,,,,,,,,,,,,yellow,diamond
67.0,1.0,1.0,0.0,2.0,2.0,322.5368630000957,4.0,1.0,part_1,,,,,,,,,,,,,orange,I
0.0,4.0,0.0,0.0,4.0,4.0,321.995085999788,4.0,1.0,part_1,,,,,,,,,,,,,white,triangle
0.0,5.0,0.0,1.0,4.0,4.0,332.9518470000039,4.0,1.0,part_1,,,,,,,,,,,,,cyan,flipped triangle
72.0,1.0,1.0,0.0,4.0,4.0,300.9835010002462,4.0,1.0,part_1,,,,,,,,,,,,,orange,I
113.0,6.0,2.0,1.0,4.0,4.0,305.3253479997693,4.0,1.0,part_1,,,,,,,,,,,,,gray,circle
208.0,7.0,3.0,1.0,1.0,1.0,300.206949999847,4.0,1.0,part_1,,,,,,,,,,,,,blue,hexagon
122.0,2.0,2.0,0.0,3.0,3.0,308.9053049998256,4.0,1.0,part_1,,,,,,,,,,,,,yellow,diamond
185.0,3.0,3.0,0.0,3.0,3.0,323.5185959997579,4.0,1.0,part_1,,,,,,,,,,,,,magenta,cross
64.0,5.0,1.0,1.0,4.0,4.0,334.3138969999017,4.0,1.0,part_1,,,,,,,,,,,,,cyan,flipped triangle
72.0,5.0,1.0,1.0,3.0,3.0,335.0953730000583,4.0,1.0,part_1,,,,,,,,,,,,,cyan,flipped triangle
115.0,6.0,2.0,1.0,3.0,3.0,318.289146999632,4.0,1.0,part_1,,,,,,,,,,,,,gray,circle
98.0,6.0,2.0,1.0,1.0,1.0,385.6684840002344,4.0,1.0,part_1,,,,,,,,,,,,,gray,circle
389.0,8.0,4.0,1.0,3.0,3.0,275.644967000062,4.0,1.0,part_1,,,,,,,,,,,,,green,square
411.0,4.0,4.0,0.0,3.0,3.0,325.4969629997504,4.0,1.0,part_1,,,,,,,,,,,,,white,triangle
406.0,4.0,4.0,0.0,1.0,1.0,293.5267479997492,4.0,1.0,part_1,,,,,,,,,,,,,white,triangle
0.0,2.0,0.0,0.0,1.0,1.0,296.5900520002833,4.0,1.0,part_1,,,,,,,,,,,,,yellow,diamond
193.0,3.0,3.0,0.0,1.0,1.0,342.4728740001228,4.0,1.0,part_1,,,,,,,,,,,,,magenta,cross
42.0,1.0,1.0,0.0,2.0,2.0,321.6121880000173,4.0,1.0,part_1,,,,,,,,,,,,,orange,I
192.0,7.0,3.0,1.0,2.0,2.0,399.5843220000097,4.0,1.0,part_1,,,,,,,,,,,,,blue,hexagon
0.0,5.0,0.0,1.0,1.0,1.0,301.220492000084,4.0,1.0,part_1,,,,,,,,,,,,,cyan,flipped triangle
175.0,3.0,3.0,0.0,3.0,3.0,318.7619909999739,4.0,1.0,part_1,,,,,,,,,,,,,magenta,cross
413.0,8.0,4.0,1.0,3.0,3.0,303.5703160003322,4.0,1.0,part_1,,,,,,,,,,,,,green,square
219.0,7.0,3.0,1.0,2.0,2.0,400.4578709996167,4.0,1.0,part_1,,,,,,,,,,,,,blue,hexagon
201.0,7.0,3.0,1.0,3.0,3.0,339.0120120002393,4.0,1.0,part_1,,,,,,,,,,,,,blue,hexagon
73.0,1.0,1.0,0.0,4.0,4.0,397.4969519999831,4.0,2.0,part_1,,,,,,,,,,,,,orange,I
0.0,1.0,0.0,0.0,1.0,1.0,413.2474819998606,4.0,1.0,part_1,,,,,,,,,,,,,orange,I
0.0,5.0,0.0,1.0,2.0,2.0,361.8759660002979,4.0,1.0,part_1,,,,,,,,,,,,,cyan,flipped triangle
0.0,2.0,0.0,0.0,1.0,1.0,329.5772899996336,4.0,1.0,part_1,,,,,,,,,,,,,yellow,diamond
30.0,5.0,1.0,1.0,3.0,3.0,326.2431460002517,4.0,1.0,part_1,,,,,,,,,,,,,cyan,flipped triangle
26.0,1.0,1.0,0.0,2.0,2.0,372.7985499999704,4.0,1.0,part_1,,,,,,,,,,,,,orange,I
391.0,8.0,4.0,1.0,2.0,2.0,341.6280820001702,4.0,1.0,part_1,,,,,,,,,,,,,green,square
41.0,1.0,1.0,0.0,1.0,1.0,301.9745770002373,4.0,1.0,part_1,,,,,,,,,,,,,orange,I
224.0,7.0,3.0,1.0,4.0,4.0,266.1453979999351,4.0,1.0,part_1,,,,,,,,,,,,,blue,hexagon
109.0,6.0,2.0,1.0,2.0,2.0,300.1941369998349,4.0,1.0,part_1,,,,,,,,,,,,,gray,circle
382.0,4.0,4.0,0.0,2.0,2.0,305.3740949999337,4.0,1.0,part_1,,,,,,,,,,,,,white,triangle
181.0,7.0,3.0,1.0,2.0,2.0,327.9524119998314,4.0,1.0,part_1,,,,,,,,,,,,,blue,hexagon
199.0,7.0,3.0,1.0,2.0,2.0,343.1660539999939,4.0,1.0,part_1,,,,,,,,,,,,,blue,hexagon
408.0,4.0,4.0,0.0,2.0,2.0,345.3309239998816,4.0,1.0,part_1,,,,,,,,,,,,,white,triangle
77.0,6.0,2.0,1.0,2.0,2.0,366.453341000124,4.0,1.0,part_1,,,,,,,,,,,,,gray,circle
202.0,7.0,3.0,1.0,3.0,3.0,426.5374850001535,4.0,1.0,part_1,,,,,,,,,,,,,blue,hexagon
189.0,3.0,3.0,0.0,2.0,2.0,374.1373610000664,4.0,1.0,part_1,,,,,,,,,,,,,magenta,cross
420.0,4.0,4.0,0.0,4.0,4.0,362.6934290000463,4.0,1.0,part_1,,,,,,,,,,,,,white,triangle
86.0,2.0,2.0,0.0,4.0,4.0,365.1847090000046,4.0,1.0,part_1,,,,,,,,,,,,,yellow,diamond
0.0,3.0,0.0,0.0,2.0,2.0,327.0238750001226,4.0,1.0,part_1,,,,,,,,,,,,,magenta,cross
382.0,8.0,4.0,1.0,3.0,3.0,365.8883850002894,4.0,1.0,part_1,,,,,,,,,,,,,green,square
41.0,1.0,1.0,0.0,1.0,1.0,405.3832209997381,4.0,1.0,part_1,,,,,,,,,,,,,orange,I
212.0,3.0,3.0,0.0,1.0,1.0,382.5273200000083,4.0,1.0,part_1,,,,,,,,,,,,,magenta,cross
87.0,6.0,2.0,1.0,4.0,4.0,362.5955479997174,4.0,1.0,part_1,,,,,,,,,,,,,gray,circle
412.0,8.0,4.0,1.0,4.0,4.0,358.4907630001908,4.0,1.0,part_1,,,,,,,,,,,,,green,square
97.0,6.0,2.0,1.0,1.0,1.0,297.7057739999509,4.0,1.0,part_1,,,,,,,,,,,,,gray,circle
118.0,6.0,2.0,1.0,4.0,4.0,320.5923850000545,4.0,1.0,part_1,,,,,,,,,,,,,gray,circle
111.0,6.0,2.0,1.0,3.0,3.0,332.2159449999162,4.0,1.0,part_1,,,,,,,,,,,,,gray,circle
100.0,2.0,2.0,0.0,2.0,2.0,337.6092519997655,4.0,1.0,part_1,,,,,,,,,,,,,yellow,diamond
78.0,2.0,2.0,0.0,4.0,4.0,303.4497449998525,4.0,1.0,part_1,,,,,,,,,,,,,yellow,diamond
224.0,3.0,3.0,0.0,4.0,4.0,343.0826740000157,4.0,1.0,part_1,,,,,,,,,,,,,magenta,cross
72.0,5.0,1.0,1.0,3.0,3.0,334.0559179996489,4.0,1.0,part_1,,,,,,,,,,,,,cyan,flipped triangle
0.0,5.0,1.0,1.0,5.0,0.0,0.0,1.0,0.0,part_2,stop,250.0,250.0,4.0,,,,,,,,,cyan,flipped triangle
0.0,7.0,3.0,1.0,5.0,5.0,426.5656730003684,1.0,0.0,part_2,stop,300.0,250.0,3.0,,,,,,,,,blue,hexagon
0.0,4.0,4.0,0.0,6.0,6.0,734.1424440000992,1.0,0.0,part_2,go,250.0,250.0,1.0,,,,,,,,,white,triangle
0.0,8.0,4.0,1.0,6.0,0.0,0.0,1.0,0.0,part_2,stop,250.0,250.0,4.0,,,,,,,,,green,square
0.0,7.0,3.0,1.0,6.0,0.0,0.0,1.0,0.0,part_2,stop,250.0,300.0,4.0,,,,,,,,,blue,hexagon
0.0,1.0,1.0,0.0,5.0,5.0,784.4696429997384,1.0,0.0,part_2,go,250.0,350.0,1.0,,,,,,,,,orange,I
0.0,5.0,1.0,1.0,6.0,0.0,0.0,1.0,0.0,part_2,stop,250.0,350.0,4.0,,,,,,,,,cyan,flipped triangle
0.0,1.0,1.0,0.0,5.0,5.0,858.9094909998494,1.0,0.0,part_2,go,250.0,400.0,1.0,,,,,,,,,orange,I
0.0,2.0,2.0,0.0,6.0,6.0,779.1521660001308,1.0,0.0,part_2,go,250.0,400.0,1.0,,,,,,,,,yellow,diamond
0.0,4.0,4.0,0.0,6.0,6.0,841.3241079997533,1.0,0.0,part_2,go,250.0,400.0,1.0,,,,,,,,,white,triangle
0.0,8.0,4.0,1.0,6.0,6.0,905.1057049996416,1.0,0.0,part_2,go,250.0,400.0,1.0,,,,,,,,,green,square
0.0,7.0,3.0,1.0,5.0,0.0,0.0,1.0,0.0,part_2,stop,250.0,400.0,4.0,,,,,,,,,blue,hexagon
0.0,6.0,2.0,1.0,6.0,0.0,0.0,1.0,0.0,part_2,stop,300.0,400.0,4.0,,,,,,,,,gray,circle
0.0,5.0,1.0,1.0,6.0,6.0,974.698098999852,1.0,0.0,part_2,go,300.0,450.0,1.0,,,,,,,,,cyan,flipped triangle
0.0,6.0,2.0,1.0,6.0,0.0,0.0,1.0,0.0,part_2,stop,300.0,450.0,4.0,,,,,,,,,gray,circle
0.0,7.0,3.0,1.0,5.0,0.0,0.0,1.0,0.0,part_2,stop,300.0,500.0,4.0,,,,,,,,,blue,hexagon
0.0,2.0,2.0,0.0,6.0,6.0,959.9943230000464,1.0,0.0,part_2,go,350.0,500.0,1.0,,,,,,,,,yellow,diamond
0.0,3.0,3.0,0.0,5.0,5.0,955.980685999748,1.0,0.0,part_2,go,350.0,500.0,1.0,,,,,,,,,magenta,cross
0.0,5.0,1.0,1.0,5.0,0.0,0.0,1.0,0.0,part_2,stop,350.0,500.0,4.0,,,,,,,,,cyan,flipped triangle
0.0,7.0,3.0,1.0,6.0,6.0,1007.6119029999973,1.0,0.0,part_2,go,400.0,500.0,1.0,,,,,,,,,blue,hexagon
0.0,8.0,4.0,1.0,6.0,0.0,0.0,1.0,0.0,part_2,go,400.0,500.0,5.0,,,,,,,,,green,square
0.0,1.0,1.0,0.0,5.0,5.0,715.8020589999978,1.0,0.0,part_2,go,400.0,500.0,1.0,,,,,,,,,orange,I
0.0,7.0,3.0,1.0,5.0,5.0,550.8124309999403,1.0,0.0,part_2,go,400.0,500.0,1.0,,,,,,,,,blue,hexagon
0.0,3.0,3.0,0.0,5.0,5.0,783.664275999854,1.0,0.0,part_2,go,400.0,500.0,1.0,,,,,,,,,magenta,cross
0.0,8.0,4.0,1.0,6.0,0.0,0.0,1.0,0.0,part_2,stop,400.0,500.0,4.0,,,,,,,,,green,square
0.0,3.0,3.0,0.0,5.0,5.0,671.0052510002242,1.0,0.0,part_2,go,400.0,550.0,1.0,,,,,,,,,magenta,cross
0.0,1.0,1.0,0.0,6.0,6.0,623.77361200015,1.0,0.0,part_2,go,400.0,550.0,1.0,,,,,,,,,orange,I
0.0,1.0,1.0,0.0,5.0,5.0,554.9145909999424,1.0,0.0,part_2,go,400.0,550.0,1.0,,,,,,,,,orange,I
0.0,8.0,4.0,1.0,6.0,6.0,592.7841040002022,1.0,0.0,part_2,stop,400.0,550.0,3.0,,,,,,,,,green,square
0.0,1.0,1.0,0.0,6.0,6.0,797.170683999866,1.0,0.0,part_2,go,400.0,500.0,1.0,,,,,,,,,orange,I
0.0,6.0,2.0,1.0,6.0,0.0,0.0,1.0,0.0,part_2,stop,400.0,500.0,4.0,,,,,,,,,gray,circle
0.0,4.0,4.0,0.0,6.0,6.0,1015.0277329998971,1.0,0.0,part_2,go,400.0,550.0,1.0,,,,,,,,,white,triangle
0.0,8.0,4.0,1.0,5.0,5.0,946.9104360000528,1.0,0.0,part_2,go,400.0,550.0,1.0,,,,,,,,,green,square
0.0,8.0,4.0,1.0,5.0,0.0,0.0,1.0,0.0,part_2,stop,400.0,550.0,4.0,,,,,,,,,green,square
0.0,4.0,4.0,0.0,6.0,6.0,876.7954140002985,1.0,0.0,part_2,go,450.0,550.0,1.0,,,,,,,,,white,triangle
0.0,4.0,4.0,0.0,5.0,5.0,782.5340579997828,1.0,0.0,part_2,go,450.0,550.0,1.0,,,,,,,,,white,triangle
0.0,4.0,4.0,0.0,6.0,6.0,817.5522299998192,2.0,0.0,part_2,go,450.0,550.0,1.0,,,,,,,,,white,triangle
0.0,6.0,2.0,1.0,6.0,6.0,397.8887369999029,2.0,0.0,part_2,go,450.0,550.0,1.0,,,,,,,,,gray,circle
0.0,6.0,2.0,1.0,5.0,0.0,0.0,2.0,0.0,part_2,stop,450.0,550.0,4.0,,,,,,,,,gray,circle
0.0,2.0,2.0,0.0,6.0,6.0,550.4939070001456,2.0,0.0,part_2,go,500.0,550.0,1.0,,,,,,,,,yellow,diamond
0.0,5.0,1.0,1.0,5.0,5.0,669.5784449998428,2.0,0.0,part_2,stop,500.0,550.0,3.0,,,,,,,,,cyan,flipped triangle
0.0,2.0,2.0,0.0,5.0,5.0,1303.7690539999858,2.0,0.0,part_2,go,450.0,550.0,1.0,,,,,,,,,yellow,diamond
0.0,8.0,4.0,1.0,5.0,0.0,0.0,2.0,0.0,part_2,stop,450.0,550.0,4.0,,,,,,,,,green,square
0.0,6.0,2.0,1.0,5.0,5.0,842.4928669996916,2.0,0.0,part_2,go,500.0,550.0,1.0,,,,,,,,,gray,circle
0.0,1.0,1.0,0.0,5.0,5.0,705.7107860000542,2.0,0.0,part_2,go,500.0,550.0,1.0,,,,,,,,,orange,I
0.0,3.0,3.0,0.0,6.0,6.0,681.5007400000468,2.0,0.0,part_2,go,500.0,550.0,1.0,,,,,,,,,magenta,cross
0.0,2.0,2.0,0.0,5.0,5.0,742.7535560000251,2.0,0.0,part_2,go,500.0,550.0,1.0,,,,,,,,,yellow,diamond
0.0,1.0,1.0,0.0,6.0,6.0,587.1605170000294,2.0,0.0,part_2,go,500.0,550.0,1.0,,,,,,,,,orange,I
0.0,4.0,4.0,0.0,6.0,6.0,389.0196190000097,2.0,0.0,part_2,go,500.0,550.0,1.0,,,,,,,,,white,triangle
0.0,7.0,3.0,1.0,5.0,5.0,359.8144139996293,2.0,0.0,part_2,stop,500.0,550.0,3.0,,,,,,,,,blue,hexagon
0.0,3.0,3.0,0.0,6.0,6.0,608.1007939997107,2.0,0.0,part_2,go,450.0,550.0,1.0,,,,,,,,,magenta,cross
0.0,7.0,3.0,1.0,5.0,0.0,0.0,2.0,0.0,part_2,stop,450.0,550.0,4.0,,,,,,,,,blue,hexagon
0.0,5.0,1.0,1.0,5.0,0.0,0.0,2.0,0.0,part_2,stop,500.0,550.0,4.0,,,,,,,,,cyan,flipped triangle
0.0,3.0,3.0,0.0,6.0,6.0,526.918028000182,2.0,0.0,part_2,go,550.0,550.0,1.0,,,,,,,,,magenta,cross
0.0,5.0,1.0,1.0,5.0,5.0,788.4745770002155,2.0,0.0,part_2,go,550.0,550.0,1.0,,,,,,,,,cyan,flipped triangle
0.0,3.0,3.0,0.0,6.0,6.0,652.3878379998678,2.0,0.0,part_2,go,550.0,550.0,1.0,,,,,,,,,magenta,cross
0.0,7.0,3.0,1.0,5.0,0.0,0.0,2.0,0.0,part_2,stop,550.0,550.0,4.0,,,,,,,,,blue,hexagon
0.0,1.0,1.0,0.0,6.0,6.0,668.5079700000642,2.0,0.0,part_2,go,600.0,550.0,1.0,,,,,,,,,orange,I
0.0,8.0,4.0,1.0,6.0,6.0,644.7060099999362,2.0,0.0,part_2,stop,600.0,550.0,3.0,,,,,,,,,green,square
0.0,4.0,4.0,0.0,5.0,5.0,727.2028340003089,2.0,0.0,part_2,go,600.0,500.0,1.0,,,,,,,,,white,triangle
0.0,5.0,1.0,1.0,5.0,5.0,636.6103820000717,2.0,0.0,part_2,stop,600.0,500.0,3.0,,,,,,,,,cyan,flipped triangle
0.0,4.0,4.0,0.0,5.0,5.0,1364.3589069997688,2.0,0.0,part_2,go,550.0,500.0,1.0,,,,,,,,,white,triangle
0.0,7.0,3.0,1.0,6.0,0.0,0.0,2.0,0.0,part_2,stop,550.0,500.0,4.0,,,,,,,,,blue,hexagon
0.0,1.0,1.0,0.0,6.0,6.0,734.7240099998089,2.0,0.0,part_2,go,550.0,550.0,1.0,,,,,,,,,orange,I
0.0,6.0,2.0,1.0,6.0,0.0,0.0,2.0,0.0,part_2,stop,550.0,550.0,4.0,,,,,,,,,gray,circle
0.0,6.0,2.0,1.0,6.0,0.0,0.0,2.0,0.0,part_2,stop,550.0,600.0,4.0,,,,,,,,,gray,circle
0.0,6.0,2.0,1.0,6.0,6.0,726.8708530000367,2.0,0.0,part_2,go,550.0,650.0,1.0,,,,,,,,,gray,circle
0.0,2.0,2.0,0.0,6.0,6.0,850.929902000189,2.0,0.0,part_2,go,550.0,650.0,1.0,,,,,,,,,yellow,diamond
0.0,3.0,3.0,0.0,5.0,5.0,876.7358559998684,2.0,0.0,part_2,go,550.0,650.0,1.0,,,,,,,,,magenta,cross
0.0,4.0,4.0,0.0,6.0,6.0,914.3175470003372,2.0,0.0,part_2,go,550.0,650.0,1.0,,,,,,,,,white,triangle
0.0,3.0,3.0,0.0,6.0,6.0,867.5746829999298,2.0,0.0,part_2,go,550.0,650.0,1.0,,,,,,,,,magenta,cross
0.0,5.0,1.0,1.0,6.0,6.0,757.3561529998187,2.0,0.0,part_2,go,550.0,650.0,1.0,,,,,,,,,cyan,flipped triangle
0.0,4.0,4.0,0.0,5.0,5.0,1210.4324330002785,3.0,0.0,part_2,go,550.0,650.0,1.0,,,,,,,,,white,triangle
0.0,7.0,3.0,1.0,5.0,5.0,405.5736899999829,3.0,0.0,part_2,stop,550.0,650.0,3.0,,,,,,,,,blue,hexagon
0.0,3.0,3.0,0.0,5.0,5.0,629.5191550002528,3.0,0.0,part_2,go,500.0,650.0,1.0,,,,,,,,,magenta,cross
0.0,4.0,4.0,0.0,6.0,6.0,1093.7716339999497,3.0,0.0,part_2,go,500.0,650.0,1.0,,,,,,,,,white,triangle
0.0,3.0,3.0,0.0,6.0,6.0,684.8839169997518,3.0,0.0,part_2,go,500.0,650.0,1.0,,,,,,,,,magenta,cross
0.0,6.0,2.0,1.0,5.0,5.0,381.1067399997228,3.0,0.0,part_2,go,500.0,650.0,1.0,,,,,,,,,gray,circle
0.0,5.0,1.0,1.0,5.0,5.0,646.5202639997187,3.0,0.0,part_2,stop,500.0,650.0,3.0,,,,,,,,,cyan,flipped triangle
0.0,7.0,3.0,1.0,6.0,6.0,630.5634479999753,3.0,0.0,part_2,stop,450.0,650.0,3.0,,,,,,,,,blue,hexagon
0.0,4.0,4.0,0.0,6.0,6.0,910.0823789999596,3.0,0.0,part_2,go,450.0,600.0,1.0,,,,,,,,,white,triangle
0.0,6.0,2.0,1.0,6.0,0.0,0.0,3.0,0.0,part_2,stop,450.0,600.0,4.0,,,,,,,,,gray,circle
0.0,4.0,4.0,0.0,6.0,6.0,826.9613160000517,3.0,0.0,part_2,go,450.0,650.0,1.0,,,,,,,,,white,triangle
0.0,7.0,3.0,1.0,6.0,0.0,0.0,3.0,0.0,part_2,stop,450.0,650.0,4.0,,,,,,,,,blue,hexagon
0.0,7.0,3.0,1.0,6.0,0.0,0.0,3.0,0.0,part_2,stop,450.0,700.0,4.0,,,,,,,,,blue,hexagon
0.0,5.0,1.0,1.0,6.0,6.0,429.5464560000255,3.0,0.0,part_2,stop,450.0,750.0,3.0,,,,,,,,,cyan,flipped triangle
0.0,1.0,1.0,0.0,6.0,6.0,922.583528999894,3.0,0.0,part_2,go,450.0,700.0,1.0,,,,,,,,,orange,I
0.0,1.0,1.0,0.0,6.0,6.0,1182.4750840000888,3.0,0.0,part_2,go,450.0,700.0,1.0,,,,,,,,,orange,I
0.0,6.0,2.0,1.0,5.0,5.0,1198.059677999936,3.0,0.0,part_2,go,450.0,700.0,1.0,,,,,,,,,gray,circle
0.0,1.0,1.0,0.0,6.0,6.0,878.2232859998658,3.0,0.0,part_2,go,450.0,700.0,1.0,,,,,,,,,orange,I
0.0,7.0,3.0,1.0,6.0,0.0,0.0,3.0,0.0,part_2,stop,450.0,700.0,4.0,,,,,,,,,blue,hexagon
0.0,8.0,4.0,1.0,5.0,5.0,1157.789560999845,3.0,0.0,part_2,go,450.0,750.0,1.0,,,,,,,,,green,square
0.0,6.0,2.0,1.0,5.0,0.0,0.0,3.0,0.0,part_2,stop,450.0,750.0,4.0,,,,,,,,,gray,circle
0.0,8.0,4.0,1.0,5.0,0.0,0.0,3.0,0.0,part_2,stop,500.0,750.0,4.0,,,,,,,,,green,square
0.0,4.0,4.0,0.0,5.0,5.0,1173.023166999883,3.0,0.0,part_2,go,550.0,750.0,1.0,,,,,,,,,white,triangle
0.0,4.0,4.0,0.0,5.0,5.0,1146.276338000007,3.0,0.0,part_2,go,550.0,750.0,1.0,,,,,,,,,white,triangle
0.0,7.0,3.0,1.0,5.0,5.0,1322.9971939999814,3.0,0.0,part_2,go,550.0,750.0,1.0,,,,,,,,,blue,hexagon
0.0,5.0,1.0,1.0,5.0,0.0,0.0,3.0,0.0,part_2,stop,550.0,750.0,4.0,,,,,,,,,cyan,flipped triangle
0.0,4.0,4.0,0.0,5.0,5.0,1434.6642450000218,3.0,0.0,part_2,go,600.0,750.0,1.0,,,,,,,,,white,triangle
0.0,2.0,2.0,0.0,5.0,5.0,922.07906800013,3.0,0.0,part_2,go,600.0,750.0,1.0,,,,,,,,,yellow,diamond
0.0,3.0,3.0,0.0,6.0,6.0,381.137812000361,3.0,0.0,part_2,go,600.0,750.0,1.0,,,,,,,,,magenta,cross
0.0,1.0,1.0,0.0,6.0,6.0,880.785928000023,3.0,0.0,part_2,go,600.0,750.0,1.0,,,,,,,,,orange,I
0.0,6.0,2.0,1.0,6.0,6.0,731.1247319998984,3.0,0.0,part_2,stop,600.0,750.0,3.0,,,,,,,,,gray,circle
0.0,7.0,3.0,1.0,6.0,6.0,867.3719860003075,3.0,0.0,part_2,stop,600.0,700.0,3.0,,,,,,,,,blue,hexagon
0.0,2.0,2.0,0.0,6.0,6.0,1041.3720930000636,3.0,0.0,part_2,go,600.0,650.0,1.0,,,,,,,,,yellow,diamond
0.0,2.0,2.0,0.0,5.0,5.0,900.3274050000982,3.0,0.0,part_2,go,600.0,650.0,1.0,,,,,,,,,yellow,diamond
0.0,7.0,3.0,1.0,6.0,6.0,953.017290000389,3.0,0.0,part_2,go,600.0,650.0,1.0,,,,,,,,,blue,hexagon
0.0,7.0,3.0,1.0,5.0,0.0,0.0,3.0,0.0,part_2,stop,600.0,650.0,4.0,,,,,,,,,blue,hexagon
0.0,6.0,2.0,1.0,6.0,6.0,558.4707540001546,4.0,0.0,part_2,stop,650.0,650.0,3.0,,,,,,,,,gray,circle
0.0,2.0,2.0,0.0,5.0,5.0,453.260044000217,4.0,0.0,part_2,go,650.0,600.0,1.0,,,,,,,,,yellow,diamond
0.0,1.0,1.0,0.0,5.0,5.0,589.7536819998095,4.0,0.0,part_2,go,650.0,600.0,1.0,,,,,,,,,orange,I
0.0,7.0,3.0,1.0,5.0,5.0,351.462735000041,4.0,0.0,part_2,go,650.0,600.0,1.0,,,,,,,,,blue,hexagon
0.0,8.0,4.0,1.0,6.0,0.0,0.0,4.0,0.0,part_2,stop,650.0,600.0,4.0,,,,,,,,,green,square
0.0,4.0,4.0,0.0,5.0,5.0,709.7564040000179,4.0,0.0,part_2,go,650.0,650.0,1.0,,,,,,,,,white,triangle
0.0,6.0,2.0,1.0,6.0,0.0,0.0,4.0,0.0,part_2,stop,650.0,650.0,4.0,,,,,,,,,gray,circle
0.0,8.0,4.0,1.0,5.0,0.0,0.0,4.0,0.0,part_2,stop,650.0,700.0,4.0,,,,,,,,,green,square
0.0,5.0,1.0,1.0,6.0,6.0,518.5853689999931,4.0,0.0,part_2,stop,700.0,700.0,3.0,,,,,,,,,cyan,flipped triangle
0.0,8.0,4.0,1.0,5.0,5.0,990.2852029999848,4.0,0.0,part_2,go,700.0,650.0,1.0,,,,,,,,,green,square
0.0,3.0,3.0,0.0,5.0,5.0,870.7562300000973,4.0,0.0,part_2,go,700.0,650.0,1.0,,,,,,,,,magenta,cross
0.0,5.0,1.0,1.0,5.0,5.0,713.033885999721,4.0,0.0,part_2,go,700.0,650.0,1.0,,,,,,,,,cyan,flipped triangle
0.0,3.0,3.0,0.0,6.0,6.0,710.0546459996622,4.0,0.0,part_2,go,700.0,650.0,1.0,,,,,,,,,magenta,cross
0.0,4.0,4.0,0.0,5.0,5.0,673.7967409999328,4.0,0.0,part_2,go,700.0,650.0,1.0,,,,,,,,,white,triangle
0.0,5.0,1.0,1.0,5.0,5.0,755.1779599998554,4.0,0.0,part_2,stop,700.0,650.0,3.0,,,,,,,,,cyan,flipped triangle
0.0,6.0,2.0,1.0,5.0,0.0,0.0,4.0,0.0,part_2,stop,650.0,650.0,4.0,,,,,,,,,gray,circle
0.0,1.0,1.0,0.0,5.0,5.0,800.2542630001699,4.0,0.0,part_2,go,700.0,650.0,1.0,,,,,,,,,orange,I
0.0,4.0,4.0,0.0,6.0,6.0,1201.2071049998667,4.0,0.0,part_2,go,700.0,650.0,1.0,,,,,,,,,white,triangle
0.0,4.0,4.0,0.0,6.0,6.0,761.7292619997897,4.0,0.0,part_2,go,700.0,650.0,1.0,,,,,,,,,white,triangle
0.0,5.0,1.0,1.0,5.0,5.0,679.5574909997413,4.0,0.0,part_2,stop,700.0,650.0,3.0,,,,,,,,,cyan,flipped triangle
0.0,1.0,1.0,0.0,5.0,5.0,738.3110730002045,4.0,0.0,part_2,go,650.0,650.0,1.0,,,,,,,,,orange,I
0.0,8.0,4.0,1.0,6.0,6.0,796.2630570000329,4.0,0.0,part_2,stop,650.0,650.0,3.0,,,,,,,,,green,square
0.0,1.0,1.0,0.0,6.0,6.0,1047.0212400000491,4.0,0.0,part_2,go,650.0,600.0,1.0,,,,,,,,,orange,I
0.0,1.0,1.0,0.0,5.0,5.0,725.8480199998303,4.0,0.0,part_2,go,650.0,600.0,1.0,,,,,,,,,orange,I
0.0,8.0,4.0,1.0,5.0,5.0,753.8073869995969,4.0,0.0,part_2,stop,650.0,600.0,3.0,,,,,,,,,green,square
0.0,8.0,4.0,1.0,5.0,5.0,723.5334209999564,4.0,0.0,part_2,go,600.0,600.0,1.0,,,,,,,,,green,square
0.0,8.0,4.0,1.0,5.0,5.0,1069.7923389998325,4.0,0.0,part_2,go,600.0,600.0,1.0,,,,,,,,,green,square
0.0,3.0,3.0,0.0,6.0,6.0,901.6327829999682,4.0,0.0,part_2,go,600.0,600.0,1.0,,,,,,,,,magenta,cross
0.0,8.0,4.0,1.0,6.0,0.0,0.0,4.0,0.0,part_2,stop,600.0,600.0,4.0,,,,,,,,,green,square
0.0,1.0,1.0,0.0,5.0,5.0,579.2925559999276,4.0,0.0,part_2,go,600.0,650.0,1.0,,,,,,,,,orange,I
0.0,5.0,1.0,1.0,6.0,0.0,0.0,4.0,0.0,part_2,stop,600.0,650.0,4.0,,,,,,,,,cyan,flipped triangle
0.0,2.0,2.0,0.0,5.0,5.0,741.0492109997904,4.0,0.0,part_2,go,600.0,700.0,1.0,,,,,,,,,yellow,diamond
0.0,6.0,2.0,1.0,6.0,6.0,812.1782779999194,4.0,0.0,part_2,go,600.0,700.0,1.0,,,,,,,,,gray,circle
0.0,1.0,1.0,0.0,5.0,5.0,339.8033879998365,4.0,0.0,part_2,go,600.0,700.0,1.0,,,,,,,,,orange,I
0.0,6.0,2.0,1.0,5.0,5.0,330.1831569997375,4.0,0.0,part_2,stop,600.0,700.0,3.0,,,,,,,,,gray,circle
0.0,5.0,1.0,1.0,6.0,6.0,378.8365659997907,4.0,0.0,part_2,go,550.0,700.0,1.0,,,,,,,,,cyan,flipped triangle
0.0,8.0,4.0,1.0,6.0,6.0,487.521334000121,5.0,0.0,part_2,stop,550.0,700.0,3.0,,,,,,,,,green,square
0.0,4.0,4.0,0.0,5.0,5.0,648.1673579996823,5.0,0.0,part_2,go,550.0,650.0,1.0,,,,,,,,,white,triangle
0.0,6.0,2.0,1.0,5.0,0.0,0.0,5.0,0.0,part_2,stop,550.0,650.0,4.0,,,,,,,,,gray,circle
0.0,7.0,3.0,1.0,5.0,0.0,0.0,5.0,0.0,part_2,stop,600.0,650.0,4.0,,,,,,,,,blue,hexagon
0.0,6.0,2.0,1.0,5.0,5.0,581.377615999827,5.0,0.0,part_2,stop,650.0,650.0,3.0,,,,,,,,,gray,circle
0.0,2.0,2.0,0.0,5.0,5.0,859.8567459998776,5.0,0.0,part_2,go,600.0,650.0,1.0,,,,,,,,,yellow,diamond
0.0,1.0,1.0,0.0,6.0,6.0,402.0399510000061,5.0,0.0,part_2,go,600.0,650.0,1.0,,,,,,,,,orange,I
0.0,2.0,2.0,0.0,6.0,6.0,790.5799149998529,5.0,0.0,part_2,go,600.0,650.0,1.0,,,,,,,,,yellow,diamond
0.0,5.0,1.0,1.0,5.0,0.0,0.0,5.0,0.0,part_2,stop,600.0,650.0,4.0,,,,,,,,,cyan,flipped triangle
0.0,1.0,1.0,0.0,6.0,6.0,733.8375980002638,5.0,0.0,part_2,go,650.0,650.0,1.0,,,,,,,,,orange,I
0.0,7.0,3.0,1.0,6.0,6.0,556.3422279997212,5.0,0.0,part_2,stop,650.0,650.0,3.0,,,,,,,,,blue,hexagon
0.0,3.0,3.0,0.0,6.0,6.0,894.5060660003037,5.0,0.0,part_2,go,650.0,600.0,1.0,,,,,,,,,magenta,cross
0.0,6.0,2.0,1.0,5.0,0.0,0.0,5.0,0.0,part_2,stop,650.0,600.0,4.0,,,,,,,,,gray,circle
0.0,6.0,2.0,1.0,5.0,0.0,0.0,5.0,0.0,part_2,stop,700.0,600.0,4.0,,,,,,,,,gray,circle
0.0,6.0,2.0,1.0,5.0,5.0,797.543571999995,5.0,0.0,part_2,stop,750.0,600.0,3.0,,,,,,,,,gray,circle
0.0,4.0,4.0,0.0,5.0,5.0,802.7846859999954,5.0,0.0,part_2,go,700.0,600.0,1.0,,,,,,,,,white,triangle
0.0,2.0,2.0,0.0,6.0,6.0,788.4899330001645,5.0,0.0,part_2,go,700.0,600.0,1.0,,,,,,,,,yellow,diamond
0.0,4.0,4.0,0.0,5.0,5.0,885.6660579999698,5.0,0.0,part_2,go,700.0,600.0,1.0,,,,,,,,,white,triangle
0.0,6.0,2.0,1.0,5.0,5.0,831.5029549999053,5.0,0.0,part_2,go,700.0,600.0,1.0,,,,,,,,,gray,circle
0.0,5.0,1.0,1.0,5.0,5.0,365.2811349998046,5.0,0.0,part_2,stop,700.0,600.0,3.0,,,,,,,,,cyan,flipped triangle
0.0,2.0,2.0,0.0,6.0,6.0,705.4939600002399,5.0,0.0,part_2,go,650.0,600.0,1.0,,,,,,,,,yellow,diamond
0.0,6.0,2.0,1.0,6.0,6.0,718.1528319997597,5.0,0.0,part_2,stop,650.0,600.0,3.0,,,,,,,,,gray,circle
0.0,1.0,1.0,0.0,6.0,6.0,776.6040970000176,5.0,0.0,part_2,go,650.0,550.0,1.0,,,,,,,,,orange,I
0.0,2.0,2.0,0.0,6.0,6.0,619.9565880001501,5.0,0.0,part_2,go,650.0,550.0,1.0,,,,,,,,,yellow,diamond
0.0,8.0,4.0,1.0,6.0,0.0,0.0,5.0,0.0,part_2,stop,650.0,550.0,4.0,,,,,,,,,green,square
0.0,5.0,1.0,1.0,6.0,0.0,0.0,5.0,0.0,part_2,stop,650.0,600.0,4.0,,,,,,,,,cyan,flipped triangle
0.0,6.0,2.0,1.0,5.0,5.0,700.3708180000103,5.0,0.0,part_2,stop,650.0,650.0,3.0,,,,,,,,,gray,circle
0.0,4.0,4.0,0.0,6.0,6.0,691.5976320001391,5.0,0.0,part_2,go,600.0,650.0,1.0,,,,,,,,,white,triangle
0.0,8.0,4.0,1.0,5.0,5.0,587.2406799999226,5.0,0.0,part_2,go,600.0,650.0,1.0,,,,,,,,,green,square
0.0,8.0,4.0,1.0,5.0,0.0,0.0,5.0,0.0,part_2,stop,600.0,650.0,4.0,,,,,,,,,green,square
0.0,6.0,2.0,1.0,6.0,0.0,0.0,5.0,0.0,part_2,stop,650.0,650.0,4.0,,,,,,,,,gray,circle
0.0,3.0,3.0,0.0,6.0,6.0,824.1744169999947,5.0,0.0,part_2,go,650.0,700.0,1.0,,,,,,,,,magenta,cross
0.0,1.0,1.0,0.0,6.0,6.0,709.5023800002309,5.0,0.0,part_2,go,650.0,700.0,1.0,,,,,,,,,orange,I
0.0,4.0,4.0,0.0,6.0,6.0,707.9697379999743,5.0,0.0,part_2,go,650.0,700.0,1.0,,,,,,,,,white,triangle
0.0,4.0,4.0,0.0,5.0,5.0,685.7131239999035,5.0,0.0,part_2,go,650.0,700.0,1.0,,,,,,,,,white,triangle
0.0,1.0,1.0,0.0,6.0,6.0,517.6331149996258,5.0,0.0,part_2,go,650.0,700.0,1.0,,,,,,,,,orange,I
0.0,7.0,3.0,1.0,6.0,6.0,424.765632999879,6.0,0.0,part_2,go,650.0,700.0,1.0,,,,,,,,,blue,hexagon
0.0,6.0,2.0,1.0,6.0,6.0,652.0574950000082,6.0,0.0,part_2,go,650.0,700.0,1.0,,,,,,,,,gray,circle
0.0,3.0,3.0,0.0,6.0,6.0,637.8681900000629,6.0,0.0,part_2,go,650.0,700.0,1.0,,,,,,,,,magenta,cross
0.0,7.0,3.0,1.0,5.0,5.0,626.1232319998271,6.0,0.0,part_2,stop,650.0,700.0,3.0,,,,,,,,,blue,hexagon
0.0,8.0,4.0,1.0,5.0,5.0,528.9207099999658,6.0,0.0,part_2,stop,600.0,700.0,3.0,,,,,,,,,green,square
0.0,1.0,1.0,0.0,6.0,6.0,913.1318639997515,6.0,0.0,part_2,go,550.0,700.0,1.0,,,,,,,,,orange,I
0.0,5.0,1.0,1.0,6.0,6.0,761.8373119998978,6.0,0.0,part_2,go,550.0,700.0,1.0,,,,,,,,,cyan,flipped triangle
0.0,2.0,2.0,0.0,5.0,5.0,695.4082229999585,6.0,0.0,part_2,go,550.0,700.0,1.0,,,,,,,,,yellow,diamond
0.0,4.0,4.0,0.0,5.0,5.0,649.5557580001332,6.0,0.0,part_2,go,550.0,700.0,1.0,,,,,,,,,white,triangle
0.0,8.0,4.0,1.0,5.0,0.0,0.0,6.0,0.0,part_2,stop,550.0,700.0,4.0,,,,,,,,,green,square
0.0,5.0,1.0,1.0,5.0,5.0,743.2374850000087,6.0,0.0,part_2,go,600.0,700.0,1.0,,,,,,,,,cyan,flipped triangle
0.0,1.0,1.0,0.0,6.0,6.0,611.9143169999006,6.0,0.0,part_2,go,600.0,700.0,1.0,,,,,,,,,orange,I
0.0,5.0,1.0,1.0,5.0,5.0,371.9972080002662,6.0,0.0,part_2,stop,600.0,700.0,3.0,,,,,,,,,cyan,flipped triangle
0.0,8.0,4.0,1.0,6.0,6.0,652.0690809998086,6.0,0.0,part_2,stop,550.0,700.0,3.0,,,,,,,,,green,square
0.0,4.0,4.0,0.0,5.0,5.0,618.3247900003153,6.0,0.0,part_2,go,550.0,650.0,1.0,,,,,,,,,white,triangle
0.0,6.0,2.0,1.0,5.0,0.0,0.0,6.0,0.0,part_2,stop,550.0,650.0,4.0,,,,,,,,,gray,circle
0.0,2.0,2.0,0.0,6.0,6.0,688.9154689997667,6.0,0.0,part_2,go,600.0,650.0,1.0,,,,,,,,,yellow,diamond
0.0,5.0,1.0,1.0,6.0,0.0,0.0,6.0,0.0,part_2,stop,600.0,650.0,4.0,,,,,,,,,cyan,flipped triangle
0.0,3.0,3.0,0.0,5.0,5.0,690.0239239998882,6.0,0.0,part_2,go,600.0,700.0,1.0,,,,,,,,,magenta,cross
0.0,2.0,2.0,0.0,5.0,5.0,552.0178719998512,6.0,0.0,part_2,go,600.0,700.0,1.0,,,,,,,,,yellow,diamond
0.0,5.0,1.0,1.0,5.0,0.0,0.0,6.0,0.0,part_2,stop,600.0,700.0,4.0,,,,,,,,,cyan,flipped triangle
0.0,3.0,3.0,0.0,6.0,6.0,407.1519189997161,6.0,0.0,part_2,go,650.0,700.0,1.0,,,,,,,,,magenta,cross
0.0,3.0,3.0,0.0,5.0,5.0,745.9653249998155,6.0,0.0,part_2,go,650.0,700.0,1.0,,,,,,,,,magenta,cross
0.0,6.0,2.0,1.0,5.0,5.0,715.8430670001508,6.0,0.0,part_2,stop,650.0,700.0,3.0,,,,,,,,,gray,circle
0.0,8.0,4.0,1.0,5.0,0.0,0.0,6.0,0.0,part_2,stop,600.0,700.0,4.0,,,,,,,,,green,square
0.0,4.0,4.0,0.0,5.0,5.0,1041.000579999945,6.0,0.0,part_2,go,650.0,700.0,1.0,,,,,,,,,white,triangle
0.0,7.0,3.0,1.0,5.0,0.0,0.0,6.0,0.0,part_2,stop,650.0,700.0,4.0,,,,,,,,,blue,hexagon
0.0,2.0,2.0,0.0,5.0,5.0,850.3486320000775,6.0,0.0,part_2,go,700.0,700.0,1.0,,,,,,,,,yellow,diamond
0.0,3.0,3.0,0.0,5.0,5.0,908.5745369998222,6.0,0.0,part_2,go,700.0,700.0,1.0,,,,,,,,,magenta,cross
0.0,1.0,1.0,0.0,5.0,5.0,824.4751199999882,6.0,0.0,part_2,go,700.0,700.0,1.0,,,,,,,,,orange,I
0.0,8.0,4.0,1.0,6.0,6.0,395.2895359998365,6.0,0.0,part_2,stop,700.0,700.0,3.0,,,,,,,,,green,square
0.0,4.0,4.0,0.0,6.0,6.0,406.4580519998344,6.0,0.0,part_2,go,700.0,650.0,1.0,,,,,,,,,white,triangle
0.0,3.0,3.0,0.0,6.0,6.0,642.9719310003748,6.0,0.0,part_2,go,700.0,650.0,1.0,,,,,,,,,magenta,cross
0.0,2.0,2.0,0.0,6.0,6.0,413.7871249999989,6.0,0.0,part_2,go,700.0,650.0,1.0,,,,,,,,,yellow,diamond
0.0,7.0,3.0,1.0,5.0,5.0,602.4814450001941,6.0,0.0,part_2,stop,700.0,650.0,3.0,,,,,,,,,blue,hexagon
0.0,4.0,4.0,0.0,6.0,6.0,688.5011999997914,6.0,0.0,part_2,go,650.0,650.0,1.0,,,,,,,,,white,triangle
0.0,7.0,3.0,1.0,6.0,6.0,688.336733000142,7.0,0.0,part_2,stop,650.0,650.0,3.0,,,,,,,,,blue,hexagon
0.0,7.0,3.0,1.0,6.0,6.0,636.3262109998686,7.0,0.0,part_2,stop,650.0,600.0,3.0,,,,,,,,,blue,hexagon
0.0,5.0,1.0,1.0,6.0,6.0,561.5580500002579,7.0,0.0,part_2,go,650.0,550.0,1.0,,,,,,,,,cyan,flipped triangle
0.0,3.0,3.0,0.0,5.0,5.0,340.9030369998618,7.0,0.0,part_2,go,650.0,550.0,1.0,,,,,,,,,magenta,cross
0.0,3.0,3.0,0.0,5.0,5.0,611.8362970000817,7.0,0.0,part_2,go,650.0,550.0,1.0,,,,,,,,,magenta,cross
0.0,3.0,3.0,0.0,6.0,6.0,474.2174390003129,7.0,0.0,part_2,go,650.0,550.0,1.0,,,,,,,,,magenta,cross
0.0,7.0,3.0,1.0,5.0,5.0,357.8781360001812,7.0,0.0,part_2,stop,650.0,550.0,3.0,,,,,,,,,blue,hexagon
0.0,6.0,2.0,1.0,5.0,5.0,602.8600970003026,7.0,0.0,part_2,go,600.0,550.0,1.0,,,,,,,,,gray,circle
0.0,7.0,3.0,1.0,6.0,6.0,668.0386549996911,7.0,0.0,part_2,go,600.0,550.0,1.0,,,,,,,,,blue,hexagon
0.0,5.0,1.0,1.0,5.0,5.0,685.8621470000799,7.0,0.0,part_2,stop,600.0,550.0,3.0,,,,,,,,,cyan,flipped triangle
0.0,2.0,2.0,0.0,5.0,5.0,717.3066940003991,7.0,0.0,part_2,go,550.0,550.0,1.0,,,,,,,,,yellow,diamond
0.0,7.0,3.0,1.0,6.0,6.0,684.451000000081,7.0,0.0,part_2,go,550.0,550.0,1.0,,,,,,,,,blue,hexagon
0.0,7.0,3.0,1.0,5.0,5.0,355.5819199991674,7.0,0.0,part_2,stop,550.0,550.0,3.0,,,,,,,,,blue,hexagon
0.0,3.0,3.0,0.0,6.0,6.0,469.6187010003996,7.0,0.0,part_2,go,500.0,550.0,1.0,,,,,,,,,magenta,cross
0.0,5.0,1.0,1.0,6.0,6.0,655.3771359995153,7.0,0.0,part_2,go,500.0,550.0,1.0,,,,,,,,,cyan,flipped triangle
0.0,1.0,1.0,0.0,5.0,5.0,663.132420000693,7.0,0.0,part_2,go,500.0,550.0,1.0,,,,,,,,,orange,I
0.0,8.0,4.0,1.0,6.0,6.0,659.4125379997422,7.0,0.0,part_2,stop,500.0,550.0,3.0,,,,,,,,,green,square
0.0,2.0,2.0,0.0,5.0,5.0,608.6839640001926,7.0,0.0,part_2,go,500.0,500.0,1.0,,,,,,,,,yellow,diamond
0.0,5.0,1.0,1.0,5.0,5.0,578.3146750000014,7.0,0.0,part_2,stop,500.0,500.0,3.0,,,,,,,,,cyan,flipped triangle
0.0,2.0,2.0,0.0,5.0,5.0,585.5677740000829,7.0,0.0,part_2,go,450.0,500.0,1.0,,,,,,,,,yellow,diamond
0.0,2.0,2.0,0.0,6.0,6.0,653.2621270007439,7.0,0.0,part_2,go,450.0,500.0,1.0,,,,,,,,,yellow,diamond
0.0,5.0,1.0,1.0,6.0,6.0,562.8246270007367,7.0,0.0,part_2,stop,450.0,500.0,3.0,,,,,,,,,cyan,flipped triangle
0.0,5.0,1.0,1.0,6.0,0.0,0.0,7.0,0.0,part_2,stop,450.0,450.0,4.0,,,,,,,,,cyan,flipped triangle
0.0,3.0,3.0,0.0,5.0,5.0,431.6671930000666,7.0,0.0,part_2,go,450.0,500.0,1.0,,,,,,,,,magenta,cross
0.0,8.0,4.0,1.0,6.0,0.0,0.0,7.0,0.0,part_2,stop,450.0,500.0,4.0,,,,,,,,,green,square
0.0,1.0,1.0,0.0,5.0,5.0,660.3507969994098,7.0,0.0,part_2,go,450.0,550.0,1.0,,,,,,,,,orange,I
0.0,1.0,1.0,0.0,5.0,5.0,644.0585190002821,7.0,0.0,part_2,go,450.0,550.0,1.0,,,,,,,,,orange,I
0.0,2.0,2.0,0.0,6.0,6.0,666.7090310002095,7.0,0.0,part_2,go,450.0,550.0,1.0,,,,,,,,,yellow,diamond
0.0,5.0,1.0,1.0,6.0,6.0,620.2380309996443,7.0,0.0,part_2,stop,450.0,550.0,3.0,,,,,,,,,cyan,flipped triangle
0.0,3.0,3.0,0.0,5.0,5.0,669.2625169998792,7.0,0.0,part_2,go,450.0,500.0,1.0,,,,,,,,,magenta,cross
0.0,2.0,2.0,0.0,6.0,6.0,952.0640599994294,7.0,0.0,part_2,go,450.0,500.0,1.0,,,,,,,,,yellow,diamond
0.0,2.0,2.0,0.0,6.0,6.0,750.9256980001737,7.0,0.0,part_2,go,450.0,500.0,1.0,,,,,,,,,yellow,diamond
0.0,5.0,1.0,1.0,6.0,0.0,0.0,7.0,0.0,part_2,stop,450.0,500.0,4.0,,,,,,,,,cyan,flipped triangle
0.0,7.0,3.0,1.0,6.0,6.0,444.7114590002456,7.0,0.0,part_2,go,450.0,550.0,1.0,,,,,,,,,blue,hexagon
0.0,7.0,3.0,1.0,6.0,0.0,0.0,7.0,0.0,part_2,stop,450.0,550.0,4.0,,,,,,,,,blue,hexagon
0.0,8.0,4.0,1.0,5.0,0.0,0.0,7.0,0.0,part_2,stop,450.0,600.0,4.0,,,,,,,,,green,square
0.0,4.0,4.0,0.0,5.0,5.0,426.0010289999627,8.0,0.0,part_2,go,500.0,600.0,1.0,,,,,,,,,white,triangle
0.0,6.0,2.0,1.0,6.0,0.0,0.0,8.0,0.0,part_2,stop,500.0,600.0,4.0,,,,,,,,,gray,circle
0.0,4.0,4.0,0.0,6.0,6.0,648.0089939996105,8.0,0.0,part_2,go,500.0,650.0,1.0,,,,,,,,,white,triangle
0.0,2.0,2.0,0.0,5.0,5.0,719.8402670001087,8.0,0.0,part_2,go,500.0,650.0,1.0,,,,,,,,,yellow,diamond
0.0,2.0,2.0,0.0,5.0,5.0,822.4198429998069,8.0,0.0,part_2,go,500.0,650.0,1.0,,,,,,,,,yellow,diamond
0.0,3.0,3.0,0.0,5.0,5.0,358.8684100004684,8.0,0.0,part_2,go,500.0,650.0,1.0,,,,,,,,,magenta,cross
0.0,2.0,2.0,0.0,5.0,5.0,712.3585700001058,8.0,0.0,part_2,go,500.0,650.0,1.0,,,,,,,,,yellow,diamond
0.0,8.0,4.0,1.0,5.0,0.0,0.0,8.0,0.0,part_2,stop,500.0,650.0,4.0,,,,,,,,,green,square
0.0,8.0,4.0,1.0,5.0,5.0,554.9885910004377,8.0,0.0,part_2,go,550.0,650.0,1.0,,,,,,,,,green,square
0.0,4.0,4.0,0.0,5.0,5.0,823.5478849992433,8.0,0.0,part_2,go,550.0,650.0,1.0,,,,,,,,,white,triangle
0.0,7.0,3.0,1.0,5.0,0.0,0.0,8.0,0.0,part_2,stop,550.0,650.0,4.0,,,,,,,,,blue,hexagon
0.0,8.0,4.0,1.0,6.0,6.0,691.2391380001282,8.0,0.0,part_2,stop,600.0,650.0,3.0,,,,,,,,,green,square
0.0,2.0,2.0,0.0,5.0,5.0,330.855874000008,8.0,0.0,part_2,go,600.0,600.0,1.0,,,,,,,,,yellow,diamond
0.0,8.0,4.0,1.0,6.0,6.0,639.2904370004544,8.0,0.0,part_2,stop,600.0,600.0,3.0,,,,,,,,,green,square
0.0,1.0,1.0,0.0,6.0,6.0,682.7303990003202,8.0,0.0,part_2,go,600.0,550.0,1.0,,,,,,,,,orange,I
0.0,3.0,3.0,0.0,6.0,6.0,697.5301289994604,8.0,0.0,part_2,go,600.0,550.0,1.0,,,,,,,,,magenta,cross
0.0,6.0,2.0,1.0,6.0,0.0,0.0,8.0,0.0,part_2,stop,600.0,550.0,4.0,,,,,,,,,gray,circle
0.0,3.0,3.0,0.0,5.0,5.0,546.0781920000954,8.0,0.0,part_2,go,600.0,600.0,1.0,,,,,,,,,magenta,cross
0.0,5.0,1.0,1.0,6.0,0.0,0.0,8.0,0.0,part_2,stop,600.0,600.0,4.0,,,,,,,,,cyan,flipped triangle
0.0,3.0,3.0,0.0,5.0,5.0,696.5928030003852,8.0,0.0,part_2,go,600.0,650.0,1.0,,,,,,,,,magenta,cross
0.0,1.0,1.0,0.0,5.0,5.0,1236.4902569997869,8.0,0.0,part_2,go,600.0,650.0,1.0,,,,,,,,,orange,I
0.0,2.0,2.0,0.0,6.0,6.0,371.6761679997944,8.0,0.0,part_2,go,600.0,650.0,1.0,,,,,,,,,yellow,diamond
0.0,6.0,2.0,1.0,6.0,6.0,416.666592999718,8.0,0.0,part_2,stop,600.0,650.0,3.0,,,,,,,,,gray,circle
0.0,3.0,3.0,0.0,6.0,6.0,863.0598039999313,8.0,0.0,part_2,go,600.0,600.0,1.0,,,,,,,,,magenta,cross
0.0,3.0,3.0,0.0,5.0,5.0,469.291118000001,8.0,0.0,part_2,go,600.0,600.0,1.0,,,,,,,,,magenta,cross
0.0,2.0,2.0,0.0,5.0,5.0,619.5735920000516,8.0,0.0,part_2,go,600.0,600.0,1.0,,,,,,,,,yellow,diamond
0.0,4.0,4.0,0.0,6.0,6.0,352.5562369995896,8.0,0.0,part_2,go,600.0,600.0,1.0,,,,,,,,,white,triangle
0.0,5.0,1.0,1.0,6.0,6.0,386.5869530000054,8.0,0.0,part_2,stop,600.0,600.0,3.0,,,,,,,,,cyan,flipped triangle
0.0,7.0,3.0,1.0,6.0,6.0,366.6194360002919,8.0,0.0,part_2,stop,600.0,550.0,3.0,,,,,,,,,blue,hexagon
0.0,1.0,1.0,0.0,5.0,5.0,405.1444189999529,8.0,0.0,part_2,go,600.0,500.0,1.0,,,,,,,,,orange,I
0.0,1.0,1.0,0.0,5.0,5.0,665.3941410004336,8.0,0.0,part_2,go,600.0,500.0,1.0,,,,,,,,,orange,I
0.0,2.0,2.0,0.0,6.0,6.0,539.001518999612,8.0,0.0,part_2,go,600.0,500.0,1.0,,,,,,,,,yellow,diamond
0.0,8.0,4.0,1.0,6.0,6.0,598.3677719996194,8.0,0.0,part_2,stop,600.0,500.0,3.0,,,,,,,,,green,square
0.0,6.0,2.0,1.0,5.0,5.0,632.2490020002078,8.0,0.0,part_2,stop,600.0,450.0,3.0,,,,,,,,,gray,circle
0.0,3.0,3.0,0.0,5.0,5.0,874.431564000588,8.0,0.0,part_2,go,550.0,450.0,1.0,,,,,,,,,magenta,cross
0.0,2.0,2.0,0.0,6.0,6.0,668.8463790005699,8.0,0.0,part_2,go,550.0,450.0,1.0,,,,,,,,,yellow,diamond
0.0,7.0,3.0,1.0,7.0,5.0,3422.2276729997247,1.0,1.0,part_3,go,0.0,0.0,0.0,245.0,5.0,98.0,294.0,49.0,147.0,245.0,196.0,blue,hexagon
0.0,8.0,4.0,1.0,7.0,1.0,3957.1560409995072,1.0,1.0,part_3,go,0.0,0.0,0.0,196.0,4.0,196.0,49.0,147.0,294.0,245.0,98.0,green,square
0.0,6.0,2.0,1.0,7.0,2.0,2232.903277999867,1.0,1.0,part_3,go,0.0,0.0,0.0,49.0,1.0,245.0,49.0,98.0,294.0,196.0,147.0,gray,circle
0.0,6.0,2.0,1.0,7.0,5.0,1990.8446539993747,1.0,1.0,part_3,go,0.0,0.0,0.0,68.0,2.0,102.0,136.0,34.0,170.0,68.0,204.0,gray,circle
0.0,4.0,4.0,0.0,7.0,2.0,2251.7568350003785,1.0,1.0,part_3,go,0.0,0.0,0.0,162.0,3.0,216.0,162.0,324.0,108.0,54.0,270.0,white,triangle
0.0,8.0,4.0,1.0,7.0,5.0,3164.218697999786,1.0,1.0,part_3,go,0.0,0.0,0.0,196.0,4.0,49.0,294.0,147.0,245.0,196.0,98.0,green,square
0.0,2.0,2.0,0.0,7.0,2.0,4664.29864300062,1.0,1.0,part_3,go,0.0,0.0,0.0,98.0,2.0,147.0,98.0,49.0,196.0,245.0,294.0,yellow,diamond
0.0,4.0,4.0,0.0,7.0,4.0,3911.978443999942,1.0,1.0,part_3,go,0.0,0.0,0.0,132.0,3.0,44.0,220.0,88.0,132.0,264.0,176.0,white,triangle
0.0,3.0,3.0,0.0,7.0,2.0,3482.9966280003646,1.0,1.0,part_3,go,0.0,0.0,0.0,108.0,2.0,162.0,108.0,324.0,270.0,54.0,216.0,magenta,cross
0.0,2.0,2.0,0.0,7.0,3.0,3457.1345159993143,1.0,1.0,part_3,go,0.0,0.0,0.0,220.0,5.0,88.0,176.0,220.0,264.0,132.0,44.0,yellow,diamond
0.0,1.0,1.0,0.0,7.0,2.0,1740.630854000301,1.0,1.0,part_3,go,0.0,0.0,0.0,54.0,1.0,216.0,54.0,270.0,162.0,108.0,324.0,orange,I
0.0,6.0,2.0,1.0,7.0,6.0,2208.8048519999575,1.0,1.0,part_3,go,0.0,0.0,0.0,54.0,1.0,216.0,162.0,108.0,270.0,324.0,54.0,gray,circle
0.0,3.0,3.0,0.0,7.0,3.0,2274.419854000371,1.0,1.0,part_3,go,0.0,0.0,0.0,102.0,3.0,34.0,170.0,102.0,68.0,136.0,204.0,magenta,cross
0.0,1.0,1.0,0.0,7.0,4.0,2826.219300000048,1.0,1.0,part_3,go,0.0,0.0,0.0,78.0,2.0,39.0,156.0,117.0,78.0,234.0,195.0,orange,I
0.0,7.0,3.0,1.0,7.0,1.0,2784.680396999647,1.0,1.0,part_3,go,0.0,0.0,0.0,220.0,5.0,220.0,88.0,44.0,264.0,176.0,132.0,blue,hexagon
0.0,4.0,4.0,0.0,7.0,2.0,946.2323460002152,1.0,2.0,part_3,go,0.0,0.0,0.0,98.0,2.0,147.0,98.0,49.0,196.0,245.0,294.0,white,triangle
0.0,8.0,4.0,1.0,7.0,4.0,3553.316784999879,1.0,1.0,part_3,go,0.0,0.0,0.0,204.0,6.0,170.0,68.0,136.0,204.0,34.0,102.0,green,square
0.0,4.0,4.0,0.0,7.0,5.0,4997.819226000502,1.0,1.0,part_3,go,0.0,0.0,0.0,220.0,5.0,44.0,88.0,132.0,264.0,220.0,176.0,white,triangle
0.0,5.0,1.0,1.0,7.0,5.0,3319.0060569995694,1.0,1.0,part_3,go,0.0,0.0,0.0,162.0,3.0,270.0,108.0,54.0,216.0,162.0,324.0,cyan,flipped triangle
0.0,5.0,1.0,1.0,7.0,1.0,2344.7276530005183,1.0,1.0,part_3,go,0.0,0.0,0.0,156.0,4.0,156.0,195.0,78.0,234.0,117.0,39.0,cyan,flipped triangle
0.0,7.0,3.0,1.0,7.0,3.0,3207.3898709995774,2.0,1.0,part_3,go,0.0,0.0,0.0,216.0,4.0,108.0,54.0,216.0,162.0,324.0,270.0,blue,hexagon
0.0,8.0,4.0,1.0,7.0,4.0,2597.028672000306,2.0,1.0,part_3,go,0.0,0.0,0.0,220.0,5.0,264.0,132.0,88.0,220.0,44.0,176.0,green,square
0.0,6.0,2.0,1.0,7.0,4.0,1649.5301249997285,2.0,1.0,part_3,go,0.0,0.0,0.0,88.0,2.0,264.0,220.0,44.0,88.0,132.0,176.0,gray,circle
0.0,3.0,3.0,0.0,7.0,3.0,2699.328102000436,2.0,1.0,part_3,go,0.0,0.0,0.0,102.0,3.0,170.0,68.0,102.0,204.0,34.0,136.0,magenta,cross
0.0,3.0,3.0,0.0,7.0,5.0,1584.638328999972,2.0,1.0,part_3,go,0.0,0.0,0.0,108.0,2.0,162.0,324.0,54.0,216.0,108.0,270.0,magenta,cross
0.0,7.0,3.0,1.0,7.0,1.0,2859.1129910000745,2.0,1.0,part_3,go,0.0,0.0,0.0,170.0,5.0,170.0,204.0,68.0,136.0,102.0,34.0,blue,hexagon
0.0,3.0,3.0,0.0,7.0,6.0,2342.391996000515,2.0,1.0,part_3,go,0.0,0.0,0.0,78.0,2.0,195.0,156.0,117.0,39.0,234.0,78.0,magenta,cross
0.0,5.0,1.0,1.0,7.0,5.0,2550.798469000256,2.0,1.0,part_3,go,0.0,0.0,0.0,88.0,2.0,220.0,44.0,176.0,132.0,88.0,264.0,cyan,flipped triangle
0.0,8.0,4.0,1.0,7.0,2.0,2705.2921889999197,2.0,1.0,part_3,go,0.0,0.0,0.0,195.0,5.0,78.0,195.0,156.0,234.0,39.0,117.0,green,square
0.0,2.0,2.0,0.0,7.0,3.0,2880.780330999187,2.0,1.0,part_3,go,0.0,0.0,0.0,136.0,4.0,204.0,102.0,136.0,34.0,68.0,170.0,yellow,diamond
0.0,5.0,1.0,1.0,7.0,3.0,4511.056528000154,2.0,1.0,part_3,go,0.0,0.0,0.0,216.0,4.0,108.0,270.0,216.0,162.0,324.0,54.0,cyan,flipped triangle
0.0,4.0,4.0,0.0,7.0,6.0,3991.641996999533,2.0,1.0,part_3,go,0.0,0.0,0.0,136.0,4.0,102.0,68.0,34.0,170.0,204.0,136.0,white,triangle
0.0,8.0,4.0,1.0,7.0,1.0,2918.708004000109,2.0,1.0,part_3,go,0.0,0.0,0.0,216.0,4.0,216.0,324.0,54.0,108.0,162.0,270.0,green,square
0.0,4.0,4.0,0.0,7.0,2.0,3626.715547000458,2.0,1.0,part_3,go,0.0,0.0,0.0,156.0,4.0,195.0,156.0,39.0,234.0,117.0,78.0,white,triangle
0.0,6.0,2.0,1.0,7.0,5.0,1969.2056570002023,2.0,1.0,part_3,go,0.0,0.0,0.0,54.0,1.0,216.0,324.0,108.0,162.0,54.0,270.0,gray,circle
0.0,1.0,1.0,0.0,7.0,1.0,1746.4680879993466,2.0,1.0,part_3,go,0.0,0.0,0.0,54.0,1.0,54.0,324.0,108.0,270.0,216.0,162.0,orange,I
0.0,1.0,1.0,0.0,7.0,3.0,1806.5594290001172,2.0,1.0,part_3,go,0.0,0.0,0.0,88.0,2.0,132.0,264.0,88.0,44.0,220.0,176.0,orange,I
0.0,4.0,4.0,0.0,7.0,6.0,3027.9706510000324,2.0,1.0,part_3,go,0.0,0.0,0.0,162.0,3.0,54.0,270.0,108.0,324.0,216.0,162.0,white,triangle
0.0,2.0,2.0,0.0,7.0,2.0,3009.5183180001186,2.0,1.0,part_3,go,0.0,0.0,0.0,156.0,4.0,117.0,156.0,234.0,78.0,195.0,39.0,yellow,diamond
0.0,4.0,4.0,0.0,7.0,3.0,3116.57931299942,2.0,1.0,part_3,go,0.0,0.0,0.0,170.0,5.0,34.0,204.0,170.0,102.0,136.0,68.0,white,triangle
0.0,6.0,2.0,1.0,7.0,5.0,1037.428677999742,3.0,1.0,part_3,go,0.0,0.0,0.0,78.0,2.0,39.0,156.0,195.0,117.0,78.0,234.0,gray,circle
0.0,8.0,4.0,1.0,7.0,1.0,2146.427550000226,3.0,1.0,part_3,go,0.0,0.0,0.0,220.0,5.0,220.0,132.0,264.0,44.0,88.0,176.0,green,square
0.0,5.0,1.0,1.0,7.0,4.0,1184.919692999756,3.0,1.0,part_3,go,0.0,0.0,0.0,102.0,3.0,68.0,136.0,170.0,102.0,204.0,34.0,cyan,flipped triangle
0.0,4.0,4.0,0.0,7.0,6.0,2735.437500000444,3.0,1.0,part_3,go,0.0,0.0,0.0,117.0,3.0,156.0,234.0,195.0,39.0,78.0,117.0,white,triangle
0.0,6.0,2.0,1.0,7.0,4.0,1338.1927509999514,3.0,1.0,part_3,go,0.0,0.0,0.0,68.0,2.0,170.0,204.0,102.0,68.0,34.0,136.0,gray,circle
0.0,3.0,3.0,0.0,7.0,2.0,2160.1593819996197,3.0,1.0,part_3,go,0.0,0.0,0.0,88.0,2.0,220.0,88.0,132.0,176.0,44.0,264.0,magenta,cross
0.0,7.0,3.0,1.0,7.0,3.0,2053.0216470006053,3.0,1.0,part_3,go,0.0,0.0,0.0,176.0,4.0,132.0,264.0,176.0,88.0,220.0,44.0,blue,hexagon
0.0,3.0,3.0,0.0,7.0,3.0,1555.4409039996244,3.0,1.0,part_3,go,0.0,0.0,0.0,98.0,2.0,196.0,245.0,98.0,147.0,294.0,49.0,magenta,cross
0.0,5.0,1.0,1.0,7.0,1.0,2627.490410000064,3.0,1.0,part_3,go,0.0,0.0,0.0,147.0,3.0,147.0,294.0,98.0,49.0,196.0,245.0,cyan,flipped triangle
0.0,6.0,2.0,1.0,7.0,2.0,1451.60294300058,3.0,1.0,part_3,go,0.0,0.0,0.0,78.0,2.0,117.0,78.0,195.0,234.0,39.0,156.0,gray,circle
0.0,8.0,4.0,1.0,7.0,3.0,3045.0280559998646,3.0,1.0,part_3,go,0.0,0.0,0.0,216.0,4.0,54.0,162.0,216.0,108.0,270.0,324.0,green,square
0.0,5.0,1.0,1.0,7.0,5.0,2232.422587000656,3.0,1.0,part_3,go,0.0,0.0,0.0,170.0,5.0,136.0,68.0,34.0,102.0,170.0,204.0,cyan,flipped triangle
0.0,7.0,3.0,1.0,7.0,1.0,3023.312059000091,3.0,1.0,part_3,go,0.0,0.0,0.0,170.0,5.0,170.0,34.0,68.0,204.0,102.0,136.0,blue,hexagon
0.0,1.0,1.0,0.0,7.0,6.0,1428.0918750000635,3.0,1.0,part_3,go,0.0,0.0,0.0,98.0,2.0,245.0,196.0,147.0,294.0,49.0,98.0,orange,I
0.0,1.0,1.0,0.0,7.0,2.0,1632.496618000005,3.0,1.0,part_3,go,0.0,0.0,0.0,88.0,2.0,176.0,88.0,220.0,44.0,132.0,264.0,orange,I
0.0,8.0,4.0,1.0,7.0,2.0,3018.5973329998887,3.0,1.0,part_3,go,0.0,0.0,0.0,170.0,5.0,34.0,170.0,68.0,204.0,102.0,136.0,green,square
0.0,7.0,3.0,1.0,7.0,4.0,2935.6428319997576,3.0,1.0,part_3,go,0.0,0.0,0.0,196.0,4.0,147.0,98.0,294.0,196.0,49.0,245.0,blue,hexagon
0.0,2.0,2.0,0.0,7.0,1.0,2429.0997580001203,3.0,1.0,part_3,go,0.0,0.0,0.0,170.0,5.0,170.0,136.0,102.0,204.0,34.0,68.0,yellow,diamond
0.0,3.0,3.0,0.0,7.0,4.0,3152.3795759994755,3.0,1.0,part_3,go,0.0,0.0,0.0,132.0,3.0,264.0,88.0,44.0,132.0,220.0,176.0,magenta,cross
0.0,2.0,2.0,0.0,7.0,5.0,3292.6699740000913,3.0,1.0,part_3,go,0.0,0.0,0.0,108.0,2.0,216.0,162.0,54.0,270.0,108.0,324.0,yellow,diamond
0.0,2.0,2.0,0.0,7.0,4.0,1449.133740000434,4.0,1.0,part_3,go,0.0,0.0,0.0,117.0,3.0,156.0,78.0,234.0,117.0,39.0,195.0,yellow,diamond
0.0,3.0,3.0,0.0,7.0,2.0,2339.367494999351,4.0,1.0,part_3,go,0.0,0.0,0.0,147.0,3.0,49.0,147.0,98.0,294.0,196.0,245.0,magenta,cross
0.0,1.0,1.0,0.0,7.0,6.0,1893.2579080001233,4.0,1.0,part_3,go,0.0,0.0,0.0,68.0,2.0,204.0,170.0,136.0,102.0,34.0,68.0,orange,I
0.0,2.0,2.0,0.0,7.0,4.0,1663.2024259997706,4.0,1.0,part_3,go,0.0,0.0,0.0,147.0,3.0,49.0,98.0,196.0,147.0,245.0,294.0,yellow,diamond
0.0,1.0,1.0,0.0,7.0,1.0,1812.4678909998693,4.0,1.0,part_3,go,0.0,0.0,0.0,68.0,2.0,68.0,170.0,204.0,34.0,136.0,102.0,orange,I
0.0,5.0,1.0,1.0,7.0,2.0,1958.0913939998936,4.0,1.0,part_3,go,0.0,0.0,0.0,132.0,3.0,88.0,132.0,44.0,176.0,264.0,220.0,cyan,flipped triangle
0.0,2.0,2.0,0.0,7.0,6.0,2090.6818710000152,4.0,1.0,part_3,go,0.0,0.0,0.0,108.0,2.0,162.0,54.0,270.0,324.0,216.0,108.0,yellow,diamond
0.0,8.0,4.0,1.0,7.0,6.0,2070.589671000562,4.0,1.0,part_3,go,0.0,0.0,0.0,195.0,5.0,78.0,156.0,39.0,117.0,234.0,195.0,green,square
0.0,2.0,2.0,0.0,7.0,6.0,1402.6173040001595,4.0,1.0,part_3,go,0.0,0.0,0.0,132.0,3.0,264.0,88.0,220.0,176.0,44.0,132.0,yellow,diamond
0.0,7.0,3.0,1.0,7.0,1.0,2600.729687000239,4.0,1.0,part_3,go,0.0,0.0,0.0,195.0,5.0,195.0,117.0,39.0,156.0,78.0,234.0,blue,hexagon
0.0,7.0,3.0,1.0,7.0,5.0,1753.4325750002608,4.0,1.0,part_3,go,0.0,0.0,0.0,195.0,5.0,156.0,234.0,78.0,39.0,195.0,117.0,blue,hexagon
0.0,6.0,2.0,1.0,7.0,1.0,1751.8747829999484,4.0,1.0,part_3,go,0.0,0.0,0.0,88.0,2.0,88.0,44.0,220.0,176.0,264.0,132.0,gray,circle
0.0,1.0,1.0,0.0,7.0,4.0,1973.9589640003032,4.0,1.0,part_3,go,0.0,0.0,0.0,98.0,2.0,49.0,294.0,147.0,98.0,245.0,196.0,orange,I
0.0,5.0,1.0,1.0,7.0,1.0,3168.7698570003704,4.0,1.0,part_3,go,0.0,0.0,0.0,117.0,3.0,117.0,234.0,156.0,78.0,39.0,195.0,cyan,flipped triangle
0.0,1.0,1.0,0.0,7.0,2.0,3272.3383089996787,4.0,1.0,part_3,go,0.0,0.0,0.0,78.0,2.0,117.0,78.0,195.0,234.0,156.0,39.0,orange,I
0.0,7.0,3.0,1.0,7.0,2.0,4159.459632999642,4.0,1.0,part_3,go,0.0,0.0,0.0,162.0,3.0,108.0,162.0,216.0,270.0,324.0,54.0,blue,hexagon
0.0,6.0,2.0,1.0,7.0,3.0,2114.642962999824,4.0,1.0,part_3,go,0.0,0.0,0.0,98.0,2.0,245.0,294.0,98.0,49.0,147.0,196.0,gray,circle
0.0,4.0,4.0,0.0,7.0,5.0,2715.024828999958,4.0,1.0,part_3,go,0.0,0.0,0.0,147.0,3.0,294.0,98.0,196.0,245.0,147.0,49.0,white,triangle
0.0,5.0,1.0,1.0,7.0,1.0,1923.5661779994189,4.0,1.0,part_3,go,0.0,0.0,0.0,147.0,3.0,147.0,245.0,294.0,196.0,98.0,49.0,cyan,flipped triangle
0.0,3.0,3.0,0.0,7.0,5.0,1685.1133849995676,4.0,1.0,part_3,go,0.0,0.0,0.0,156.0,4.0,117.0,39.0,195.0,78.0,156.0,234.0,magenta,cross
