raw_reward_magnitude,stim_reward,stepwise_reward_magnitude,paired_with_stopping,quadrant,response,reaction_time,block,num_trial_presentations,which_part,stop_signal_trial_type,left_SSD,right_SSD,accuracy,chosen_bidding_amount,chosen_bidding_level,possible_bid_1,possible_bid_2,possible_bid_3,possible_bid_4,possible_bid_5,possible_bid_6,color_text,shape_text
34.0,1.0,1.0,0.0,1.0,1.0,397.0772579998538,1.0,1.0,part_1,,,,,,,,,,,,,magenta,square
382.0,8.0,4.0,1.0,3.0,3.0,397.6472320000539,1.0,1.0,part_1,,,,,,,,,,,,,white,triangle
208.0,3.0,3.0,0.0,4.0,4.0,430.1048729998911,1.0,1.0,part_1,,,,,,,,,,,,,orange,circle
0.0,1.0,0.0,0.0,1.0,1.0,348.5447220000424,1.0,1.0,part_1,,,,,,,,,,,,,magenta,square
381.0,8.0,4.0,1.0,2.0,2.0,431.0692690000905,1.0,1.0,part_1,,,,,,,,,,,,,white,triangle
191.0,3.0,3.0,0.0,2.0,2.0,375.1622039999347,1.0,1.0,part_1,,,,,,,,,,,,,orange,circle
56.0,5.0,1.0,1.0,2.0,2.0,353.198354000142,1.0,1.0,part_1,,,,,,,,,,,,,blue,I
110.0,2.0,2.0,0.0,3.0,3.0,448.7077969999973,1.0,1.0,part_1,,,,,,,,,,,,,yellow,diamond
0.0,7.0,0.0,1.0,4.0,4.0,442.0465040000181,1.0,1.0,part_1,,,,,,,,,,,,,gray,flipped triangle
0.0,3.0,0.0,0.0,4.0,4.0,391.2927409999156,1.0,1.0,part_1,,,,,,,,,,,,,orange,circle
201.0,3.0,3.0,0.0,1.0,1.0,310.5656390000604,1.0,1.0,part_1,,,,,,,,,,,,,orange,circle
35.0,5.0,1.0,1.0,3.0,3.0,384.0040200000203,1.0,1.0,part_1,,,,,,,,,,,,,blue,I
33.0,1.0,1.0,0.0,3.0,3.0,368.4563809999872,1.0,1.0,part_1,,,,,,,,,,,,,magenta,square
201.0,7.0,3.0,1.0,3.0,3.0,401.9315200000619,1.0,1.0,part_1,,,,,,,,,,,,,gray,flipped triangle
85.0,2.0,2.0,0.0,1.0,1.0,357.5044359999992,1.0,1.0,part_1,,,,,,,,,,,,,yellow,diamond
60.0,5.0,1.0,1.0,1.0,1.0,335.2986410000085,1.0,1.0,part_1,,,,,,,,,,,,,blue,I
190.0,7.0,3.0,1.0,3.0,3.0,361.5748600000188,1.0,1.0,part_1,,,,,,,,,,,,,gray,flipped triangle
51.0,1.0,1.0,0.0,3.0,3.0,353.0796490001648,1.0,1.0,part_1,,,,,,,,,,,,,magenta,square
42.0,1.0,1.0,0.0,3.0,3.0,404.2096299999684,1.0,1.0,part_1,,,,,,,,,,,,,magenta,square
183.0,7.0,3.0,1.0,4.0,4.0,453.9234230001057,1.0,1.0,part_1,,,,,,,,,,,,,gray,flipped triangle
48.0,1.0,1.0,0.0,1.0,1.0,342.5315810000029,1.0,1.0,part_1,,,,,,,,,,,,,magenta,square
421.0,4.0,4.0,0.0,1.0,1.0,272.2239610000088,1.0,1.0,part_1,,,,,,,,,,,,,cyan,hexagon
0.0,7.0,0.0,1.0,4.0,4.0,454.2507850001129,1.0,1.0,part_1,,,,,,,,,,,,,gray,flipped triangle
0.0,1.0,0.0,0.0,1.0,1.0,288.8260070001252,1.0,1.0,part_1,,,,,,,,,,,,,magenta,square
375.0,4.0,4.0,0.0,3.0,3.0,427.1233490001123,1.0,1.0,part_1,,,,,,,,,,,,,cyan,hexagon
224.0,7.0,3.0,1.0,4.0,4.0,575.9679210000286,1.0,1.0,part_1,,,,,,,,,,,,,gray,flipped triangle
391.0,8.0,4.0,1.0,1.0,1.0,298.5850499999287,1.0,1.0,part_1,,,,,,,,,,,,,white,triangle
380.0,8.0,4.0,1.0,3.0,3.0,334.5021439999982,1.0,1.0,part_1,,,,,,,,,,,,,white,triangle
376.0,4.0,4.0,0.0,3.0,3.0,423.4170899999299,1.0,1.0,part_1,,,,,,,,,,,,,cyan,hexagon
100.0,6.0,2.0,1.0,3.0,3.0,405.6216599999516,1.0,1.0,part_1,,,,,,,,,,,,,green,cross
56.0,1.0,1.0,0.0,3.0,3.0,378.8852500001667,1.0,1.0,part_1,,,,,,,,,,,,,magenta,square
414.0,4.0,4.0,0.0,1.0,1.0,350.298549000172,1.0,1.0,part_1,,,,,,,,,,,,,cyan,hexagon
0.0,5.0,0.0,1.0,2.0,2.0,351.9373410001662,1.0,1.0,part_1,,,,,,,,,,,,,blue,I
50.0,5.0,1.0,1.0,2.0,2.0,293.0983180001476,1.0,1.0,part_1,,,,,,,,,,,,,blue,I
26.0,1.0,1.0,0.0,4.0,4.0,368.2795800000349,1.0,1.0,part_1,,,,,,,,,,,,,magenta,square
177.0,3.0,3.0,0.0,1.0,1.0,326.3267090001136,1.0,1.0,part_1,,,,,,,,,,,,,orange,circle
68.0,1.0,1.0,0.0,1.0,1.0,347.6857709999876,1.0,1.0,part_1,,,,,,,,,,,,,magenta,square
0.0,3.0,0.0,0.0,4.0,4.0,502.0306700000674,1.0,1.0,part_1,,,,,,,,,,,,,orange,circle
123.0,2.0,2.0,0.0,4.0,4.0,484.7095679999711,1.0,1.0,part_1,,,,,,,,,,,,,yellow,diamond
96.0,6.0,2.0,1.0,3.0,3.0,454.3375609998747,1.0,1.0,part_1,,,,,,,,,,,,,green,cross
0.0,6.0,0.0,1.0,2.0,2.0,319.25206599999,1.0,1.0,part_1,,,,,,,,,,,,,green,cross
177.0,7.0,3.0,1.0,4.0,4.0,476.5140169999995,1.0,1.0,part_1,,,,,,,,,,,,,gray,flipped triangle
0.0,8.0,0.0,1.0,3.0,3.0,430.1415520001228,1.0,1.0,part_1,,,,,,,,,,,,,white,triangle
0.0,1.0,0.0,0.0,1.0,1.0,357.0602170000256,1.0,1.0,part_1,,,,,,,,,,,,,magenta,square
30.0,1.0,1.0,0.0,2.0,2.0,411.7594209999424,1.0,1.0,part_1,,,,,,,,,,,,,magenta,square
124.0,6.0,2.0,1.0,4.0,4.0,389.4415310001022,1.0,1.0,part_1,,,,,,,,,,,,,green,cross
114.0,6.0,2.0,1.0,1.0,1.0,323.3034309998857,1.0,1.0,part_1,,,,,,,,,,,,,green,cross
0.0,7.0,0.0,1.0,4.0,4.0,477.3432909998973,1.0,1.0,part_1,,,,,,,,,,,,,gray,flipped triangle
60.0,5.0,1.0,1.0,4.0,4.0,432.1285129999523,1.0,1.0,part_1,,,,,,,,,,,,,blue,I
93.0,6.0,2.0,1.0,3.0,3.0,476.7317979999461,1.0,1.0,part_1,,,,,,,,,,,,,green,cross
200.0,3.0,3.0,0.0,4.0,4.0,404.5004590000189,1.0,1.0,part_1,,,,,,,,,,,,,orange,circle
389.0,8.0,4.0,1.0,3.0,3.0,368.2066839999152,1.0,1.0,part_1,,,,,,,,,,,,,white,triangle
63.0,1.0,1.0,0.0,1.0,1.0,380.6262049999986,1.0,1.0,part_1,,,,,,,,,,,,,magenta,square
32.0,1.0,1.0,0.0,1.0,1.0,341.5293129999099,1.0,1.0,part_1,,,,,,,,,,,,,magenta,square
102.0,6.0,2.0,1.0,4.0,4.0,348.8501130000259,1.0,1.0,part_1,,,,,,,,,,,,,green,cross
40.0,5.0,1.0,1.0,2.0,2.0,431.6040950000115,1.0,1.0,part_1,,,,,,,,,,,,,blue,I
71.0,5.0,1.0,1.0,4.0,4.0,380.2443770000536,1.0,1.0,part_1,,,,,,,,,,,,,blue,I
117.0,2.0,2.0,0.0,4.0,4.0,408.2813830000305,1.0,1.0,part_1,,,,,,,,,,,,,yellow,diamond
211.0,7.0,3.0,1.0,2.0,2.0,420.7224060000953,1.0,1.0,part_1,,,,,,,,,,,,,gray,flipped triangle
176.0,3.0,3.0,0.0,4.0,4.0,455.6892719999723,1.0,1.0,part_1,,,,,,,,,,,,,orange,circle
110.0,6.0,2.0,1.0,2.0,2.0,461.9728740001392,1.0,1.0,part_1,,,,,,,,,,,,,green,cross
423.0,4.0,4.0,0.0,3.0,3.0,344.7935179999604,1.0,1.0,part_1,,,,,,,,,,,,,cyan,hexagon
388.0,4.0,4.0,0.0,1.0,1.0,272.1490070000527,1.0,1.0,part_1,,,,,,,,,,,,,cyan,hexagon
202.0,7.0,3.0,1.0,4.0,4.0,337.3685680001017,1.0,1.0,part_1,,,,,,,,,,,,,gray,flipped triangle
60.0,1.0,1.0,0.0,1.0,1.0,513.9824100001533,1.0,1.0,part_1,,,,,,,,,,,,,magenta,square
190.0,3.0,3.0,0.0,3.0,3.0,403.4178259998953,1.0,1.0,part_1,,,,,,,,,,,,,orange,circle
0.0,7.0,0.0,1.0,3.0,3.0,407.0899359999202,1.0,1.0,part_1,,,,,,,,,,,,,gray,flipped triangle
0.0,3.0,0.0,0.0,2.0,2.0,281.3713649998135,1.0,1.0,part_1,,,,,,,,,,,,,orange,circle
56.0,1.0,1.0,0.0,3.0,3.0,432.8943159998744,1.0,1.0,part_1,,,,,,,,,,,,,magenta,square
216.0,3.0,3.0,0.0,2.0,2.0,281.3979160000599,1.0,1.0,part_1,,,,,,,,,,,,,orange,circle
210.0,7.0,3.0,1.0,4.0,4.0,346.4825510000082,1.0,1.0,part_1,,,,,,,,,,,,,gray,flipped triangle
40.0,1.0,1.0,0.0,4.0,4.0,401.1975739999798,1.0,1.0,part_1,,,,,,,,,,,,,magenta,square
375.0,8.0,4.0,1.0,2.0,2.0,287.5464980002107,1.0,1.0,part_1,,,,,,,,,,,,,white,triangle
191.0,3.0,3.0,0.0,2.0,2.0,315.4527259998758,1.0,1.0,part_1,,,,,,,,,,,,,orange,circle
90.0,6.0,2.0,1.0,4.0,4.0,442.5727430002553,1.0,1.0,part_1,,,,,,,,,,,,,green,cross
224.0,7.0,3.0,1.0,2.0,2.0,382.5462859999788,1.0,1.0,part_1,,,,,,,,,,,,,gray,flipped triangle
216.0,3.0,3.0,0.0,1.0,1.0,256.8193980000615,1.0,1.0,part_1,,,,,,,,,,,,,orange,circle
0.0,5.0,0.0,1.0,2.0,2.0,415.0457780001488,1.0,1.0,part_1,,,,,,,,,,,,,blue,I
0.0,6.0,0.0,1.0,2.0,2.0,304.7784539999156,1.0,1.0,part_1,,,,,,,,,,,,,green,cross
376.0,4.0,4.0,0.0,4.0,4.0,458.1497940002919,1.0,1.0,part_1,,,,,,,,,,,,,cyan,hexagon
186.0,3.0,3.0,0.0,4.0,4.0,415.7798119999825,1.0,1.0,part_1,,,,,,,,,,,,,orange,circle
74.0,5.0,1.0,1.0,3.0,3.0,441.0025749998567,1.0,1.0,part_1,,,,,,,,,,,,,blue,I
100.0,2.0,2.0,0.0,2.0,2.0,320.7196349999321,1.0,1.0,part_1,,,,,,,,,,,,,yellow,diamond
74.0,5.0,1.0,1.0,2.0,2.0,358.5615699998925,1.0,1.0,part_1,,,,,,,,,,,,,blue,I
421.0,4.0,4.0,0.0,2.0,2.0,339.8348929999883,1.0,1.0,part_1,,,,,,,,,,,,,cyan,hexagon
84.0,2.0,2.0,0.0,1.0,1.0,359.9148119997153,1.0,1.0,part_1,,,,,,,,,,,,,yellow,diamond
211.0,3.0,3.0,0.0,4.0,4.0,411.7321709995849,1.0,1.0,part_1,,,,,,,,,,,,,orange,circle
405.0,8.0,4.0,1.0,2.0,2.0,294.4212639999932,1.0,1.0,part_1,,,,,,,,,,,,,white,triangle
223.0,7.0,3.0,1.0,1.0,1.0,280.6357109998316,1.0,1.0,part_1,,,,,,,,,,,,,gray,flipped triangle
407.0,4.0,4.0,0.0,1.0,1.0,362.9037190003146,1.0,1.0,part_1,,,,,,,,,,,,,cyan,hexagon
404.0,4.0,4.0,0.0,4.0,4.0,324.4196189998547,1.0,1.0,part_1,,,,,,,,,,,,,cyan,hexagon
215.0,7.0,3.0,1.0,1.0,1.0,306.9634870003028,1.0,1.0,part_1,,,,,,,,,,,,,gray,flipped triangle
104.0,6.0,2.0,1.0,2.0,2.0,359.8641470002803,1.0,1.0,part_1,,,,,,,,,,,,,green,cross
67.0,5.0,1.0,1.0,2.0,2.0,317.0538809999925,1.0,1.0,part_1,,,,,,,,,,,,,blue,I
50.0,1.0,1.0,0.0,4.0,4.0,365.9563010000966,1.0,1.0,part_1,,,,,,,,,,,,,magenta,square
176.0,7.0,3.0,1.0,2.0,2.0,348.5250879998602,1.0,1.0,part_1,,,,,,,,,,,,,gray,flipped triangle
56.0,1.0,1.0,0.0,2.0,2.0,339.4893489999049,1.0,1.0,part_1,,,,,,,,,,,,,magenta,square
85.0,6.0,2.0,1.0,2.0,2.0,325.2717859995755,1.0,1.0,part_1,,,,,,,,,,,,,green,cross
403.0,4.0,4.0,0.0,4.0,4.0,385.6869370001732,1.0,1.0,part_1,,,,,,,,,,,,,cyan,hexagon
66.0,1.0,1.0,0.0,1.0,1.0,292.0833550001589,1.0,1.0,part_1,,,,,,,,,,,,,magenta,square
387.0,4.0,4.0,0.0,4.0,4.0,417.3862019997614,2.0,1.0,part_1,,,,,,,,,,,,,cyan,hexagon
96.0,2.0,2.0,0.0,1.0,1.0,232.1700990000863,2.0,1.0,part_1,,,,,,,,,,,,,yellow,diamond
0.0,5.0,0.0,1.0,2.0,2.0,350.0730790001398,2.0,1.0,part_1,,,,,,,,,,,,,blue,I
0.0,1.0,0.0,0.0,3.0,3.0,334.9038259998451,2.0,1.0,part_1,,,,,,,,,,,,,magenta,square
25.0,5.0,1.0,1.0,3.0,3.0,379.8872449997361,2.0,1.0,part_1,,,,,,,,,,,,,blue,I
392.0,4.0,4.0,0.0,3.0,3.0,435.2113160002773,2.0,1.0,part_1,,,,,,,,,,,,,cyan,hexagon
222.0,7.0,3.0,1.0,2.0,2.0,404.7060049997526,2.0,1.0,part_1,,,,,,,,,,,,,gray,flipped triangle
0.0,6.0,0.0,1.0,4.0,4.0,404.3638819998705,2.0,1.0,part_1,,,,,,,,,,,,,green,cross
0.0,3.0,0.0,0.0,3.0,3.0,430.1033050001024,2.0,1.0,part_1,,,,,,,,,,,,,orange,circle
30.0,5.0,1.0,1.0,3.0,3.0,348.295011999653,2.0,1.0,part_1,,,,,,,,,,,,,blue,I
33.0,5.0,1.0,1.0,3.0,3.0,293.3708810001008,2.0,1.0,part_1,,,,,,,,,,,,,blue,I
403.0,8.0,4.0,1.0,4.0,4.0,422.7257379998264,2.0,1.0,part_1,,,,,,,,,,,,,white,triangle
104.0,2.0,2.0,0.0,3.0,3.0,441.6717449998941,2.0,1.0,part_1,,,,,,,,,,,,,yellow,diamond
35.0,1.0,1.0,0.0,3.0,3.0,287.3040529998434,2.0,1.0,part_1,,,,,,,,,,,,,magenta,square
110.0,6.0,2.0,1.0,2.0,2.0,524.8485069996605,2.0,1.0,part_1,,,,,,,,,,,,,green,cross
204.0,7.0,3.0,1.0,1.0,1.0,319.6362889998454,2.0,1.0,part_1,,,,,,,,,,,,,gray,flipped triangle
191.0,7.0,3.0,1.0,3.0,3.0,293.7228010000581,2.0,1.0,part_1,,,,,,,,,,,,,gray,flipped triangle
414.0,4.0,4.0,0.0,4.0,4.0,310.5006680002589,2.0,1.0,part_1,,,,,,,,,,,,,cyan,hexagon
217.0,7.0,3.0,1.0,1.0,1.0,281.0033629998543,2.0,1.0,part_1,,,,,,,,,,,,,gray,flipped triangle
0.0,5.0,0.0,1.0,4.0,4.0,397.7473019999706,2.0,1.0,part_1,,,,,,,,,,,,,blue,I
0.0,7.0,0.0,1.0,1.0,1.0,388.9081810002608,2.0,1.0,part_1,,,,,,,,,,,,,gray,flipped triangle
0.0,2.0,0.0,0.0,2.0,2.0,327.8705590000754,2.0,1.0,part_1,,,,,,,,,,,,,yellow,diamond
388.0,8.0,4.0,1.0,2.0,2.0,341.1988980001297,2.0,1.0,part_1,,,,,,,,,,,,,white,triangle
380.0,4.0,4.0,0.0,1.0,1.0,309.288646999903,2.0,1.0,part_1,,,,,,,,,,,,,cyan,hexagon
423.0,8.0,4.0,1.0,4.0,4.0,330.4678580002473,2.0,1.0,part_1,,,,,,,,,,,,,white,triangle
389.0,4.0,4.0,0.0,2.0,2.0,371.6330130000642,2.0,1.0,part_1,,,,,,,,,,,,,cyan,hexagon
116.0,6.0,2.0,1.0,4.0,4.0,402.0511489998171,2.0,1.0,part_1,,,,,,,,,,,,,green,cross
44.0,1.0,1.0,0.0,1.0,1.0,397.8555680000681,2.0,1.0,part_1,,,,,,,,,,,,,magenta,square
188.0,3.0,3.0,0.0,3.0,3.0,432.1039670003301,2.0,1.0,part_1,,,,,,,,,,,,,orange,circle
0.0,2.0,0.0,0.0,3.0,3.0,341.1841659999481,2.0,1.0,part_1,,,,,,,,,,,,,yellow,diamond
48.0,1.0,1.0,0.0,3.0,3.0,305.2189650002219,2.0,1.0,part_1,,,,,,,,,,,,,magenta,square
223.0,7.0,3.0,1.0,3.0,3.0,335.8079499998894,2.0,1.0,part_1,,,,,,,,,,,,,gray,flipped triangle
56.0,5.0,1.0,1.0,1.0,1.0,316.2014429999544,2.0,1.0,part_1,,,,,,,,,,,,,blue,I
74.0,1.0,1.0,0.0,2.0,2.0,368.6651399998482,2.0,1.0,part_1,,,,,,,,,,,,,magenta,square
102.0,2.0,2.0,0.0,2.0,2.0,286.4704819999133,2.0,1.0,part_1,,,,,,,,,,,,,yellow,diamond
216.0,7.0,3.0,1.0,2.0,2.0,348.5616190000655,2.0,1.0,part_1,,,,,,,,,,,,,gray,flipped triangle
405.0,4.0,4.0,0.0,1.0,1.0,411.1504940001396,2.0,1.0,part_1,,,,,,,,,,,,,cyan,hexagon
197.0,7.0,3.0,1.0,2.0,2.0,313.7633620003726,2.0,1.0,part_1,,,,,,,,,,,,,gray,flipped triangle
0.0,8.0,0.0,1.0,3.0,3.0,324.6147350000683,2.0,1.0,part_1,,,,,,,,,,,,,white,triangle
43.0,5.0,1.0,1.0,3.0,3.0,408.247719999963,2.0,1.0,part_1,,,,,,,,,,,,,blue,I
74.0,1.0,1.0,0.0,4.0,4.0,383.4405870002229,2.0,1.0,part_1,,,,,,,,,,,,,magenta,square
74.0,1.0,1.0,0.0,4.0,4.0,426.8530159997681,2.0,1.0,part_1,,,,,,,,,,,,,magenta,square
93.0,6.0,2.0,1.0,1.0,1.0,258.0311990000155,2.0,1.0,part_1,,,,,,,,,,,,,green,cross
197.0,3.0,3.0,0.0,2.0,2.0,337.9156290002356,2.0,1.0,part_1,,,,,,,,,,,,,orange,circle
0.0,6.0,0.0,1.0,3.0,3.0,367.1663370000715,2.0,1.0,part_1,,,,,,,,,,,,,green,cross
30.0,1.0,1.0,0.0,1.0,1.0,328.656269000021,2.0,1.0,part_1,,,,,,,,,,,,,magenta,square
396.0,8.0,4.0,1.0,3.0,3.0,367.7439289999711,2.0,1.0,part_1,,,,,,,,,,,,,white,triangle
60.0,1.0,1.0,0.0,4.0,4.0,425.9403979999661,2.0,1.0,part_1,,,,,,,,,,,,,magenta,square
217.0,3.0,3.0,0.0,2.0,2.0,350.0073049999628,2.0,1.0,part_1,,,,,,,,,,,,,orange,circle
25.0,1.0,1.0,0.0,3.0,3.0,346.2935029997425,2.0,1.0,part_1,,,,,,,,,,,,,magenta,square
63.0,5.0,1.0,1.0,1.0,1.0,292.7835129999039,2.0,1.0,part_1,,,,,,,,,,,,,blue,I
187.0,7.0,3.0,1.0,1.0,1.0,427.9389909997917,2.0,1.0,part_1,,,,,,,,,,,,,gray,flipped triangle
95.0,2.0,2.0,0.0,3.0,3.0,424.3006379997496,2.0,1.0,part_1,,,,,,,,,,,,,yellow,diamond
46.0,5.0,1.0,1.0,4.0,4.0,382.904660999884,2.0,2.0,part_1,,,,,,,,,,,,,blue,I
210.0,3.0,3.0,0.0,3.0,3.0,380.9128739999323,2.0,1.0,part_1,,,,,,,,,,,,,orange,circle
114.0,2.0,2.0,0.0,2.0,2.0,441.70145399994,2.0,1.0,part_1,,,,,,,,,,,,,yellow,diamond
0.0,5.0,0.0,1.0,4.0,4.0,415.9477890002563,2.0,1.0,part_1,,,,,,,,,,,,,blue,I
387.0,8.0,4.0,1.0,1.0,1.0,332.9970229997343,2.0,1.0,part_1,,,,,,,,,,,,,white,triangle
421.0,8.0,4.0,1.0,2.0,2.0,311.4103030002297,2.0,1.0,part_1,,,,,,,,,,,,,white,triangle
93.0,2.0,2.0,0.0,3.0,3.0,377.0714160000352,2.0,1.0,part_1,,,,,,,,,,,,,yellow,diamond
107.0,2.0,2.0,0.0,2.0,2.0,294.5471590001034,2.0,1.0,part_1,,,,,,,,,,,,,yellow,diamond
178.0,3.0,3.0,0.0,3.0,3.0,372.348410000086,2.0,1.0,part_1,,,,,,,,,,,,,orange,circle
48.0,5.0,1.0,1.0,2.0,2.0,428.0521239998052,2.0,1.0,part_1,,,,,,,,,,,,,blue,I
383.0,8.0,4.0,1.0,3.0,3.0,445.3750580000815,2.0,1.0,part_1,,,,,,,,,,,,,white,triangle
421.0,8.0,4.0,1.0,1.0,1.0,467.7885489995788,2.0,1.0,part_1,,,,,,,,,,,,,white,triangle
0.0,5.0,0.0,1.0,4.0,4.0,496.6179230000307,2.0,1.0,part_1,,,,,,,,,,,,,blue,I
110.0,2.0,2.0,0.0,2.0,2.0,380.6855479997466,2.0,1.0,part_1,,,,,,,,,,,,,yellow,diamond
421.0,4.0,4.0,0.0,3.0,3.0,366.2780419999762,2.0,1.0,part_1,,,,,,,,,,,,,cyan,hexagon
0.0,6.0,0.0,1.0,3.0,3.0,421.7911330001698,2.0,1.0,part_1,,,,,,,,,,,,,green,cross
403.0,8.0,4.0,1.0,4.0,4.0,476.7609659998015,2.0,1.0,part_1,,,,,,,,,,,,,white,triangle
34.0,5.0,1.0,1.0,4.0,4.0,493.6591169998792,2.0,1.0,part_1,,,,,,,,,,,,,blue,I
0.0,3.0,0.0,0.0,4.0,4.0,400.5261769998469,2.0,1.0,part_1,,,,,,,,,,,,,orange,circle
71.0,1.0,1.0,0.0,2.0,2.0,388.4219869996741,2.0,1.0,part_1,,,,,,,,,,,,,magenta,square
178.0,7.0,3.0,1.0,2.0,2.0,398.2073859997399,2.0,1.0,part_1,,,,,,,,,,,,,gray,flipped triangle
187.0,7.0,3.0,1.0,3.0,3.0,368.5695029998896,2.0,1.0,part_1,,,,,,,,,,,,,gray,flipped triangle
90.0,2.0,2.0,0.0,3.0,3.0,315.4421230001389,2.0,1.0,part_1,,,,,,,,,,,,,yellow,diamond
396.0,4.0,4.0,0.0,4.0,4.0,386.790117000146,2.0,1.0,part_1,,,,,,,,,,,,,cyan,hexagon
382.0,4.0,4.0,0.0,4.0,4.0,407.6662289999149,2.0,1.0,part_1,,,,,,,,,,,,,cyan,hexagon
0.0,2.0,0.0,0.0,4.0,4.0,481.6537649999191,2.0,1.0,part_1,,,,,,,,,,,,,yellow,diamond
383.0,4.0,4.0,0.0,4.0,4.0,356.8486049998682,2.0,1.0,part_1,,,,,,,,,,,,,cyan,hexagon
0.0,4.0,0.0,0.0,4.0,4.0,338.480575000176,2.0,1.0,part_1,,,,,,,,,,,,,cyan,hexagon
196.0,3.0,3.0,0.0,1.0,1.0,402.4408219997895,2.0,1.0,part_1,,,,,,,,,,,,,orange,circle
407.0,8.0,4.0,1.0,3.0,3.0,364.3604379999487,2.0,1.0,part_1,,,,,,,,,,,,,white,triangle
0.0,4.0,0.0,0.0,2.0,2.0,334.049443999902,2.0,1.0,part_1,,,,,,,,,,,,,cyan,hexagon
85.0,2.0,2.0,0.0,1.0,1.0,330.1813430002767,2.0,1.0,part_1,,,,,,,,,,,,,yellow,diamond
0.0,4.0,0.0,0.0,2.0,2.0,323.3863059999748,2.0,1.0,part_1,,,,,,,,,,,,,cyan,hexagon
424.0,8.0,4.0,1.0,4.0,4.0,328.5771400001067,2.0,1.0,part_1,,,,,,,,,,,,,white,triangle
378.0,8.0,4.0,1.0,4.0,4.0,337.326696999753,2.0,1.0,part_1,,,,,,,,,,,,,white,triangle
0.0,3.0,0.0,0.0,3.0,3.0,421.5470720000667,2.0,1.0,part_1,,,,,,,,,,,,,orange,circle
0.0,2.0,0.0,0.0,4.0,4.0,496.2969989996963,2.0,1.0,part_1,,,,,,,,,,,,,yellow,diamond
203.0,7.0,3.0,1.0,1.0,1.0,336.8002440001874,2.0,1.0,part_1,,,,,,,,,,,,,gray,flipped triangle
0.0,6.0,0.0,1.0,2.0,2.0,333.9958420001494,2.0,1.0,part_1,,,,,,,,,,,,,green,cross
0.0,6.0,0.0,1.0,2.0,2.0,325.1508210000793,2.0,1.0,part_1,,,,,,,,,,,,,green,cross
0.0,8.0,0.0,1.0,2.0,2.0,325.8211140000639,2.0,1.0,part_1,,,,,,,,,,,,,white,triangle
26.0,5.0,1.0,1.0,3.0,3.0,391.8859899999916,2.0,1.0,part_1,,,,,,,,,,,,,blue,I
417.0,8.0,4.0,1.0,4.0,4.0,381.0455699999693,2.0,1.0,part_1,,,,,,,,,,,,,white,triangle
76.0,2.0,2.0,0.0,1.0,1.0,272.0855329998812,2.0,1.0,part_1,,,,,,,,,,,,,yellow,diamond
47.0,5.0,1.0,1.0,2.0,2.0,303.0341940002472,2.0,1.0,part_1,,,,,,,,,,,,,blue,I
191.0,3.0,3.0,0.0,3.0,3.0,364.8188439997284,2.0,1.0,part_1,,,,,,,,,,,,,orange,circle
379.0,4.0,4.0,0.0,2.0,2.0,279.3842440000844,2.0,1.0,part_1,,,,,,,,,,,,,cyan,hexagon
396.0,4.0,4.0,0.0,3.0,3.0,327.8590499999154,3.0,1.0,part_1,,,,,,,,,,,,,cyan,hexagon
84.0,6.0,2.0,1.0,4.0,4.0,371.5566579999176,3.0,1.0,part_1,,,,,,,,,,,,,green,cross
0.0,1.0,0.0,0.0,4.0,4.0,365.6471069998588,3.0,1.0,part_1,,,,,,,,,,,,,magenta,square
74.0,5.0,1.0,1.0,2.0,2.0,264.7192649997123,3.0,1.0,part_1,,,,,,,,,,,,,blue,I
204.0,3.0,3.0,0.0,2.0,2.0,291.6448529999798,3.0,1.0,part_1,,,,,,,,,,,,,orange,circle
38.0,5.0,1.0,1.0,1.0,1.0,299.076537000019,3.0,1.0,part_1,,,,,,,,,,,,,blue,I
399.0,8.0,4.0,1.0,4.0,4.0,337.004472999979,3.0,1.0,part_1,,,,,,,,,,,,,white,triangle
204.0,3.0,3.0,0.0,1.0,1.0,264.5049739999194,3.0,1.0,part_1,,,,,,,,,,,,,orange,circle
0.0,1.0,0.0,0.0,2.0,2.0,238.1554739999956,3.0,1.0,part_1,,,,,,,,,,,,,magenta,square
100.0,6.0,2.0,1.0,2.0,2.0,311.3331049999033,3.0,1.0,part_1,,,,,,,,,,,,,green,cross
98.0,2.0,2.0,0.0,1.0,1.0,319.9375120002514,3.0,1.0,part_1,,,,,,,,,,,,,yellow,diamond
121.0,2.0,2.0,0.0,2.0,2.0,316.727850999996,3.0,1.0,part_1,,,,,,,,,,,,,yellow,diamond
64.0,5.0,1.0,1.0,1.0,1.0,312.4515480003538,3.0,1.0,part_1,,,,,,,,,,,,,blue,I
0.0,4.0,0.0,0.0,1.0,1.0,273.7665039999228,3.0,1.0,part_1,,,,,,,,,,,,,cyan,hexagon
208.0,7.0,3.0,1.0,4.0,4.0,385.4766470003596,3.0,1.0,part_1,,,,,,,,,,,,,gray,flipped triangle
0.0,4.0,0.0,0.0,4.0,4.0,393.8251129998207,3.0,1.0,part_1,,,,,,,,,,,,,cyan,hexagon
417.0,4.0,4.0,0.0,2.0,2.0,299.3566129998726,3.0,1.0,part_1,,,,,,,,,,,,,cyan,hexagon
45.0,1.0,1.0,0.0,2.0,2.0,310.1299800000561,3.0,1.0,part_1,,,,,,,,,,,,,magenta,square
100.0,2.0,2.0,0.0,1.0,1.0,358.7666180001179,3.0,1.0,part_1,,,,,,,,,,,,,yellow,diamond
0.0,2.0,0.0,0.0,1.0,1.0,290.987610999764,3.0,1.0,part_1,,,,,,,,,,,,,yellow,diamond
78.0,2.0,2.0,0.0,4.0,4.0,419.7759420003422,3.0,1.0,part_1,,,,,,,,,,,,,yellow,diamond
0.0,1.0,0.0,0.0,2.0,2.0,371.5776190001634,3.0,1.0,part_1,,,,,,,,,,,,,magenta,square
124.0,2.0,2.0,0.0,4.0,4.0,348.5717019998446,3.0,1.0,part_1,,,,,,,,,,,,,yellow,diamond
0.0,8.0,0.0,1.0,4.0,4.0,304.6791540000413,3.0,1.0,part_1,,,,,,,,,,,,,white,triangle
421.0,8.0,4.0,1.0,2.0,2.0,271.7466270000841,3.0,1.0,part_1,,,,,,,,,,,,,white,triangle
409.0,4.0,4.0,0.0,2.0,2.0,307.7622060000067,3.0,1.0,part_1,,,,,,,,,,,,,cyan,hexagon
54.0,1.0,1.0,0.0,4.0,4.0,363.8408510000772,3.0,1.0,part_1,,,,,,,,,,,,,magenta,square
0.0,7.0,0.0,1.0,1.0,1.0,302.39035900012817,3.0,1.0,part_1,,,,,,,,,,,,,gray,flipped triangle
0.0,8.0,0.0,1.0,4.0,4.0,309.7203030001765,3.0,1.0,part_1,,,,,,,,,,,,,white,triangle
223.0,3.0,3.0,0.0,1.0,1.0,257.7422979998118,3.0,1.0,part_1,,,,,,,,,,,,,orange,circle
68.0,5.0,1.0,1.0,4.0,4.0,325.501431000248,3.0,1.0,part_1,,,,,,,,,,,,,blue,I
48.0,5.0,1.0,1.0,1.0,1.0,260.6270370001766,3.0,1.0,part_1,,,,,,,,,,,,,blue,I
0.0,5.0,0.0,1.0,2.0,2.0,334.1411139999763,3.0,1.0,part_1,,,,,,,,,,,,,blue,I
113.0,2.0,2.0,0.0,2.0,2.0,329.1938699999264,3.0,1.0,part_1,,,,,,,,,,,,,yellow,diamond
188.0,7.0,3.0,1.0,4.0,4.0,365.9470100001272,3.0,1.0,part_1,,,,,,,,,,,,,gray,flipped triangle
378.0,4.0,4.0,0.0,4.0,4.0,308.4093879997454,3.0,1.0,part_1,,,,,,,,,,,,,cyan,hexagon
421.0,4.0,4.0,0.0,1.0,1.0,477.1293839999089,3.0,1.0,part_1,,,,,,,,,,,,,cyan,hexagon
197.0,7.0,3.0,1.0,4.0,4.0,322.0116829998005,3.0,1.0,part_1,,,,,,,,,,,,,gray,flipped triangle
45.0,5.0,1.0,1.0,3.0,3.0,423.3925270000327,3.0,1.0,part_1,,,,,,,,,,,,,blue,I
0.0,3.0,0.0,0.0,3.0,3.0,375.1237259998561,3.0,1.0,part_1,,,,,,,,,,,,,orange,circle
42.0,5.0,1.0,1.0,3.0,3.0,383.6148320001484,3.0,1.0,part_1,,,,,,,,,,,,,blue,I
196.0,7.0,3.0,1.0,3.0,3.0,387.79732900002267,3.0,1.0,part_1,,,,,,,,,,,,,gray,flipped triangle
0.0,7.0,0.0,1.0,1.0,1.0,527.3074449996784,3.0,1.0,part_1,,,,,,,,,,,,,gray,flipped triangle
205.0,3.0,3.0,0.0,4.0,4.0,379.8405329998786,3.0,1.0,part_1,,,,,,,,,,,,,orange,circle
0.0,8.0,0.0,1.0,4.0,4.0,332.2176379997472,3.0,1.0,part_1,,,,,,,,,,,,,white,triangle
396.0,8.0,4.0,1.0,4.0,4.0,323.4156349999466,3.0,1.0,part_1,,,,,,,,,,,,,white,triangle
376.0,8.0,4.0,1.0,2.0,2.0,343.0975530000069,3.0,1.0,part_1,,,,,,,,,,,,,white,triangle
404.0,8.0,4.0,1.0,2.0,2.0,311.6259630000968,3.0,1.0,part_1,,,,,,,,,,,,,white,triangle
376.0,8.0,4.0,1.0,3.0,3.0,407.9139240002405,3.0,1.0,part_1,,,,,,,,,,,,,white,triangle
0.0,3.0,0.0,0.0,1.0,1.0,360.9236399997826,3.0,1.0,part_1,,,,,,,,,,,,,orange,circle
421.0,8.0,4.0,1.0,3.0,3.0,340.9429569996973,3.0,1.0,part_1,,,,,,,,,,,,,white,triangle
0.0,2.0,0.0,0.0,4.0,4.0,342.5483859996348,3.0,1.0,part_1,,,,,,,,,,,,,yellow,diamond
56.0,5.0,1.0,1.0,2.0,2.0,318.2159940001838,3.0,1.0,part_1,,,,,,,,,,,,,blue,I
206.0,7.0,3.0,1.0,4.0,4.0,492.6612839999507,3.0,1.0,part_1,,,,,,,,,,,,,gray,flipped triangle
418.0,8.0,4.0,1.0,4.0,4.0,344.4988429996556,3.0,1.0,part_1,,,,,,,,,,,,,white,triangle
190.0,3.0,3.0,0.0,1.0,1.0,373.2764149999639,3.0,1.0,part_1,,,,,,,,,,,,,orange,circle
124.0,6.0,2.0,1.0,3.0,3.0,391.6691680001349,3.0,1.0,part_1,,,,,,,,,,,,,green,cross
84.0,6.0,2.0,1.0,2.0,2.0,404.3416549998255,3.0,1.0,part_1,,,,,,,,,,,,,green,cross
409.0,8.0,4.0,1.0,2.0,2.0,334.4994900003257,3.0,1.0,part_1,,,,,,,,,,,,,white,triangle
381.0,4.0,4.0,0.0,1.0,1.0,355.9551030002694,3.0,1.0,part_1,,,,,,,,,,,,,cyan,hexagon
415.0,4.0,4.0,0.0,2.0,2.0,298.3391210000263,3.0,1.0,part_1,,,,,,,,,,,,,cyan,hexagon
181.0,3.0,3.0,0.0,3.0,3.0,339.2071180001039,3.0,1.0,part_1,,,,,,,,,,,,,orange,circle
29.0,1.0,1.0,0.0,2.0,2.0,288.3890749999409,3.0,1.0,part_1,,,,,,,,,,,,,magenta,square
40.0,1.0,1.0,0.0,4.0,4.0,418.6154310000347,3.0,1.0,part_1,,,,,,,,,,,,,magenta,square
0.0,8.0,0.0,1.0,2.0,2.0,315.238582999882,3.0,1.0,part_1,,,,,,,,,,,,,white,triangle
399.0,4.0,4.0,0.0,4.0,4.0,329.3915590002143,3.0,1.0,part_1,,,,,,,,,,,,,cyan,hexagon
67.0,1.0,1.0,0.0,3.0,3.0,359.0867860002618,3.0,1.0,part_1,,,,,,,,,,,,,magenta,square
93.0,2.0,2.0,0.0,1.0,1.0,436.3910429997304,3.0,1.0,part_1,,,,,,,,,,,,,yellow,diamond
91.0,6.0,2.0,1.0,2.0,2.0,364.6889850001571,3.0,1.0,part_1,,,,,,,,,,,,,green,cross
416.0,8.0,4.0,1.0,3.0,3.0,368.7532760000067,3.0,1.0,part_1,,,,,,,,,,,,,white,triangle
0.0,7.0,0.0,1.0,4.0,4.0,335.3407260001404,3.0,1.0,part_1,,,,,,,,,,,,,gray,flipped triangle
117.0,2.0,2.0,0.0,3.0,3.0,348.0111300000317,3.0,1.0,part_1,,,,,,,,,,,,,yellow,diamond
116.0,6.0,2.0,1.0,1.0,1.0,403.7611989997458,3.0,1.0,part_1,,,,,,,,,,,,,green,cross
46.0,1.0,1.0,0.0,2.0,2.0,318.0926570003066,3.0,1.0,part_1,,,,,,,,,,,,,magenta,square
0.0,1.0,0.0,0.0,3.0,3.0,316.7629439999473,3.0,1.0,part_1,,,,,,,,,,,,,magenta,square
78.0,2.0,2.0,0.0,3.0,3.0,360.7712590001029,3.0,1.0,part_1,,,,,,,,,,,,,yellow,diamond
0.0,2.0,0.0,0.0,1.0,1.0,503.451326999766,3.0,1.0,part_1,,,,,,,,,,,,,yellow,diamond
71.0,5.0,1.0,1.0,1.0,1.0,460.1009770003657,3.0,2.0,part_1,,,,,,,,,,,,,blue,I
186.0,7.0,3.0,1.0,3.0,3.0,371.1195920000136,3.0,1.0,part_1,,,,,,,,,,,,,gray,flipped triangle
405.0,4.0,4.0,0.0,1.0,1.0,323.900663999666,3.0,1.0,part_1,,,,,,,,,,,,,cyan,hexagon
96.0,2.0,2.0,0.0,2.0,2.0,384.5495890000165,3.0,1.0,part_1,,,,,,,,,,,,,yellow,diamond
0.0,2.0,0.0,0.0,1.0,1.0,359.1051499997775,3.0,1.0,part_1,,,,,,,,,,,,,yellow,diamond
124.0,2.0,2.0,0.0,3.0,3.0,368.5029839998606,3.0,1.0,part_1,,,,,,,,,,,,,yellow,diamond
0.0,4.0,0.0,0.0,3.0,3.0,342.7832300003501,3.0,1.0,part_1,,,,,,,,,,,,,cyan,hexagon
418.0,4.0,4.0,0.0,2.0,2.0,333.4937839999838,3.0,1.0,part_1,,,,,,,,,,,,,cyan,hexagon
84.0,6.0,2.0,1.0,2.0,2.0,374.5479110002634,3.0,1.0,part_1,,,,,,,,,,,,,green,cross
405.0,8.0,4.0,1.0,1.0,1.0,371.6978949996701,3.0,1.0,part_1,,,,,,,,,,,,,white,triangle
117.0,6.0,2.0,1.0,2.0,2.0,317.4569669999982,3.0,1.0,part_1,,,,,,,,,,,,,green,cross
0.0,7.0,0.0,1.0,1.0,1.0,467.4493400002575,3.0,1.0,part_1,,,,,,,,,,,,,gray,flipped triangle
78.0,6.0,2.0,1.0,1.0,1.0,329.9190239999916,3.0,1.0,part_1,,,,,,,,,,,,,green,cross
117.0,6.0,2.0,1.0,3.0,3.0,390.131773000121,3.0,1.0,part_1,,,,,,,,,,,,,green,cross
395.0,4.0,4.0,0.0,1.0,1.0,260.8799220001856,3.0,1.0,part_1,,,,,,,,,,,,,cyan,hexagon
116.0,2.0,2.0,0.0,4.0,4.0,414.4380100001399,3.0,1.0,part_1,,,,,,,,,,,,,yellow,diamond
415.0,8.0,4.0,1.0,1.0,1.0,324.3154040001172,3.0,1.0,part_1,,,,,,,,,,,,,white,triangle
224.0,3.0,3.0,0.0,4.0,4.0,478.7209719997918,3.0,1.0,part_1,,,,,,,,,,,,,orange,circle
0.0,4.0,0.0,0.0,1.0,1.0,339.2646649999733,3.0,1.0,part_1,,,,,,,,,,,,,cyan,hexagon
54.0,5.0,1.0,1.0,3.0,3.0,372.9572709999047,3.0,1.0,part_1,,,,,,,,,,,,,blue,I
0.0,6.0,0.0,1.0,3.0,3.0,380.7213509999201,3.0,1.0,part_1,,,,,,,,,,,,,green,cross
415.0,4.0,4.0,0.0,2.0,2.0,326.0823020000316,3.0,1.0,part_1,,,,,,,,,,,,,cyan,hexagon
392.0,8.0,4.0,1.0,3.0,3.0,358.0774269998983,3.0,1.0,part_1,,,,,,,,,,,,,white,triangle
215.0,3.0,3.0,0.0,3.0,3.0,333.3074910001414,4.0,1.0,part_1,,,,,,,,,,,,,orange,circle
188.0,7.0,3.0,1.0,3.0,3.0,371.4947150001535,4.0,1.0,part_1,,,,,,,,,,,,,gray,flipped triangle
399.0,4.0,4.0,0.0,2.0,2.0,273.3520299998417,4.0,1.0,part_1,,,,,,,,,,,,,cyan,hexagon
79.0,6.0,2.0,1.0,1.0,1.0,326.3257099997645,4.0,1.0,part_1,,,,,,,,,,,,,green,cross
205.0,7.0,3.0,1.0,2.0,2.0,280.8836109998083,4.0,1.0,part_1,,,,,,,,,,,,,gray,flipped triangle
0.0,5.0,0.0,1.0,2.0,2.0,317.7243399995859,4.0,1.0,part_1,,,,,,,,,,,,,blue,I
196.0,3.0,3.0,0.0,2.0,2.0,292.4779049999415,4.0,1.0,part_1,,,,,,,,,,,,,orange,circle
414.0,8.0,4.0,1.0,1.0,1.0,299.8570159998053,4.0,1.0,part_1,,,,,,,,,,,,,white,triangle
403.0,4.0,4.0,0.0,3.0,3.0,360.2987139997822,4.0,1.0,part_1,,,,,,,,,,,,,cyan,hexagon
190.0,7.0,3.0,1.0,2.0,2.0,267.0160689999648,4.0,1.0,part_1,,,,,,,,,,,,,gray,flipped triangle
36.0,1.0,1.0,0.0,2.0,2.0,302.6601139999911,4.0,1.0,part_1,,,,,,,,,,,,,magenta,square
187.0,3.0,3.0,0.0,1.0,1.0,315.0656950001576,4.0,1.0,part_1,,,,,,,,,,,,,orange,circle
399.0,8.0,4.0,1.0,1.0,1.0,325.557299999673,4.0,1.0,part_1,,,,,,,,,,,,,white,triangle
216.0,7.0,3.0,1.0,1.0,1.0,289.33170500022237,4.0,1.0,part_1,,,,,,,,,,,,,gray,flipped triangle
79.0,2.0,2.0,0.0,3.0,3.0,399.4478950003213,4.0,1.0,part_1,,,,,,,,,,,,,yellow,diamond
224.0,3.0,3.0,0.0,2.0,2.0,275.8498349999172,4.0,1.0,part_1,,,,,,,,,,,,,orange,circle
85.0,6.0,2.0,1.0,4.0,4.0,326.2691579998318,4.0,1.0,part_1,,,,,,,,,,,,,green,cross
71.0,1.0,1.0,0.0,2.0,2.0,504.67854099997567,4.0,1.0,part_1,,,,,,,,,,,,,magenta,square
30.0,5.0,1.0,1.0,4.0,4.0,351.752814000065,4.0,1.0,part_1,,,,,,,,,,,,,blue,I
91.0,2.0,2.0,0.0,4.0,4.0,355.6710130001193,4.0,1.0,part_1,,,,,,,,,,,,,yellow,diamond
0.0,3.0,0.0,0.0,1.0,1.0,297.0799810000244,4.0,1.0,part_1,,,,,,,,,,,,,orange,circle
84.0,2.0,2.0,0.0,2.0,2.0,324.2922989998078,4.0,1.0,part_1,,,,,,,,,,,,,yellow,diamond
415.0,8.0,4.0,1.0,1.0,1.0,281.4498420002564,4.0,1.0,part_1,,,,,,,,,,,,,white,triangle
93.0,6.0,2.0,1.0,3.0,3.0,326.8494270000701,4.0,1.0,part_1,,,,,,,,,,,,,green,cross
121.0,6.0,2.0,1.0,4.0,4.0,397.9426670002794,4.0,1.0,part_1,,,,,,,,,,,,,green,cross
0.0,5.0,0.0,1.0,2.0,2.0,365.4406529999505,4.0,1.0,part_1,,,,,,,,,,,,,blue,I
120.0,6.0,2.0,1.0,3.0,3.0,384.3100760000197,4.0,1.0,part_1,,,,,,,,,,,,,green,cross
36.0,5.0,1.0,1.0,2.0,2.0,302.9190629999903,4.0,1.0,part_1,,,,,,,,,,,,,blue,I
0.0,1.0,0.0,0.0,2.0,2.0,325.4794669996954,4.0,1.0,part_1,,,,,,,,,,,,,magenta,square
395.0,8.0,4.0,1.0,1.0,1.0,464.6598750000521,4.0,1.0,part_1,,,,,,,,,,,,,white,triangle
84.0,2.0,2.0,0.0,3.0,3.0,366.7896730003122,4.0,1.0,part_1,,,,,,,,,,,,,yellow,diamond
0.0,4.0,0.0,0.0,4.0,4.0,391.1466029999246,4.0,1.0,part_1,,,,,,,,,,,,,cyan,hexagon
79.0,6.0,2.0,1.0,1.0,1.0,341.2354609999966,4.0,1.0,part_1,,,,,,,,,,,,,green,cross
116.0,2.0,2.0,0.0,2.0,2.0,384.1800680002052,4.0,1.0,part_1,,,,,,,,,,,,,yellow,diamond
38.0,1.0,1.0,0.0,3.0,3.0,339.7243930003242,4.0,1.0,part_1,,,,,,,,,,,,,magenta,square
183.0,3.0,3.0,0.0,4.0,4.0,376.8439089999447,4.0,1.0,part_1,,,,,,,,,,,,,orange,circle
391.0,4.0,4.0,0.0,3.0,3.0,407.2699690000263,4.0,1.0,part_1,,,,,,,,,,,,,cyan,hexagon
181.0,7.0,3.0,1.0,1.0,1.0,357.5295790001291,4.0,1.0,part_1,,,,,,,,,,,,,gray,flipped triangle
200.0,7.0,3.0,1.0,2.0,2.0,412.9510560001108,4.0,1.0,part_1,,,,,,,,,,,,,gray,flipped triangle
202.0,3.0,3.0,0.0,2.0,2.0,366.1118499999247,4.0,1.0,part_1,,,,,,,,,,,,,orange,circle
191.0,7.0,3.0,1.0,4.0,4.0,415.269122999689,4.0,1.0,part_1,,,,,,,,,,,,,gray,flipped triangle
59.0,1.0,1.0,0.0,2.0,2.0,381.9280860002436,4.0,1.0,part_1,,,,,,,,,,,,,magenta,square
78.0,6.0,2.0,1.0,3.0,3.0,339.589917000012,4.0,1.0,part_1,,,,,,,,,,,,,green,cross
205.0,3.0,3.0,0.0,3.0,3.0,378.6796049998884,4.0,1.0,part_1,,,,,,,,,,,,,orange,circle
188.0,3.0,3.0,0.0,3.0,3.0,341.6826379998383,4.0,1.0,part_1,,,,,,,,,,,,,orange,circle
379.0,8.0,4.0,1.0,2.0,2.0,354.8571830001492,4.0,1.0,part_1,,,,,,,,,,,,,white,triangle
29.0,5.0,1.0,1.0,4.0,4.0,473.3279829997627,4.0,1.0,part_1,,,,,,,,,,,,,blue,I
76.0,6.0,2.0,1.0,4.0,4.0,358.4815789999993,4.0,1.0,part_1,,,,,,,,,,,,,green,cross
414.0,8.0,4.0,1.0,4.0,4.0,404.2959690000316,4.0,1.0,part_1,,,,,,,,,,,,,white,triangle
222.0,3.0,3.0,0.0,1.0,1.0,430.3951619999679,4.0,1.0,part_1,,,,,,,,,,,,,orange,circle
93.0,2.0,2.0,0.0,4.0,4.0,481.0383680000996,4.0,2.0,part_1,,,,,,,,,,,,,yellow,diamond
32.0,5.0,1.0,1.0,4.0,4.0,411.7920960002266,4.0,1.0,part_1,,,,,,,,,,,,,blue,I
113.0,6.0,2.0,1.0,3.0,3.0,393.9577210003335,4.0,1.0,part_1,,,,,,,,,,,,,green,cross
204.0,7.0,3.0,1.0,1.0,1.0,381.7859579999094,4.0,1.0,part_1,,,,,,,,,,,,,gray,flipped triangle
391.0,8.0,4.0,1.0,1.0,1.0,382.5958539996463,4.0,1.0,part_1,,,,,,,,,,,,,white,triangle
0.0,2.0,0.0,0.0,3.0,3.0,380.7679840001583,4.0,1.0,part_1,,,,,,,,,,,,,yellow,diamond
205.0,7.0,3.0,1.0,1.0,1.0,403.3165710002322,4.0,1.0,part_1,,,,,,,,,,,,,gray,flipped triangle
391.0,4.0,4.0,0.0,3.0,3.0,339.5222489998559,4.0,1.0,part_1,,,,,,,,,,,,,cyan,hexagon
0.0,6.0,0.0,1.0,3.0,3.0,424.4219369998063,4.0,1.0,part_1,,,,,,,,,,,,,green,cross
96.0,6.0,2.0,1.0,2.0,2.0,381.828650999978,4.0,1.0,part_1,,,,,,,,,,,,,green,cross
109.0,6.0,2.0,1.0,1.0,1.0,343.4981279997373,4.0,1.0,part_1,,,,,,,,,,,,,green,cross
0.0,5.0,0.0,1.0,2.0,2.0,414.801702999739,4.0,1.0,part_1,,,,,,,,,,,,,blue,I
416.0,4.0,4.0,0.0,2.0,2.0,322.8376649999518,4.0,1.0,part_1,,,,,,,,,,,,,cyan,hexagon
0.0,8.0,0.0,1.0,2.0,2.0,331.567576999987,4.0,1.0,part_1,,,,,,,,,,,,,white,triangle
197.0,3.0,3.0,0.0,4.0,4.0,454.4352990001243,4.0,1.0,part_1,,,,,,,,,,,,,orange,circle
59.0,5.0,1.0,1.0,1.0,1.0,376.8092800000886,4.0,1.0,part_1,,,,,,,,,,,,,blue,I
51.0,5.0,1.0,1.0,4.0,4.0,376.191806999941,4.0,1.0,part_1,,,,,,,,,,,,,blue,I
47.0,1.0,1.0,0.0,1.0,1.0,307.6533480002581,4.0,1.0,part_1,,,,,,,,,,,,,magenta,square
0.0,2.0,0.0,0.0,2.0,2.0,322.0990719996734,4.0,1.0,part_1,,,,,,,,,,,,,yellow,diamond
83.0,2.0,2.0,0.0,4.0,4.0,402.9869299997699,4.0,1.0,part_1,,,,,,,,,,,,,yellow,diamond
0.0,6.0,0.0,1.0,4.0,4.0,398.4062449999328,4.0,1.0,part_1,,,,,,,,,,,,,green,cross
109.0,2.0,2.0,0.0,4.0,4.0,411.6760409997368,4.0,1.0,part_1,,,,,,,,,,,,,yellow,diamond
0.0,4.0,0.0,0.0,4.0,4.0,354.3445589998555,4.0,1.0,part_1,,,,,,,,,,,,,cyan,hexagon
95.0,6.0,2.0,1.0,3.0,3.0,367.1603069997218,4.0,1.0,part_1,,,,,,,,,,,,,green,cross
107.0,6.0,2.0,1.0,4.0,4.0,369.7840109998651,4.0,1.0,part_1,,,,,,,,,,,,,green,cross
111.0,6.0,2.0,1.0,1.0,1.0,402.3080120000486,4.0,1.0,part_1,,,,,,,,,,,,,green,cross
0.0,8.0,0.0,1.0,4.0,4.0,402.8453959999751,4.0,1.0,part_1,,,,,,,,,,,,,white,triangle
203.0,3.0,3.0,0.0,2.0,2.0,620.2078810001694,4.0,1.0,part_1,,,,,,,,,,,,,orange,circle
223.0,3.0,3.0,0.0,4.0,4.0,333.2607789998292,4.0,1.0,part_1,,,,,,,,,,,,,orange,circle
44.0,5.0,1.0,1.0,1.0,1.0,402.6393250001092,4.0,1.0,part_1,,,,,,,,,,,,,blue,I
120.0,2.0,2.0,0.0,4.0,4.0,366.1464910001086,4.0,1.0,part_1,,,,,,,,,,,,,yellow,diamond
64.0,1.0,1.0,0.0,4.0,4.0,396.4954640000542,4.0,1.0,part_1,,,,,,,,,,,,,magenta,square
83.0,6.0,2.0,1.0,1.0,1.0,397.7884669998275,4.0,1.0,part_1,,,,,,,,,,,,,green,cross
43.0,1.0,1.0,0.0,4.0,4.0,374.6717250000984,4.0,1.0,part_1,,,,,,,,,,,,,magenta,square
0.0,3.0,0.0,0.0,1.0,1.0,501.70286299999134,4.0,1.0,part_1,,,,,,,,,,,,,orange,circle
196.0,7.0,3.0,1.0,3.0,3.0,432.8405649998785,4.0,1.0,part_1,,,,,,,,,,,,,gray,flipped triangle
0.0,7.0,0.0,1.0,2.0,2.0,353.9592349998202,4.0,1.0,part_1,,,,,,,,,,,,,gray,flipped triangle
187.0,3.0,3.0,0.0,1.0,1.0,379.6048629997131,4.0,1.0,part_1,,,,,,,,,,,,,orange,circle
40.0,5.0,1.0,1.0,4.0,4.0,399.1927759998361,4.0,1.0,part_1,,,,,,,,,,,,,blue,I
424.0,4.0,4.0,0.0,3.0,3.0,341.655904000163,4.0,1.0,part_1,,,,,,,,,,,,,cyan,hexagon
191.0,7.0,3.0,1.0,3.0,3.0,408.6274579999553,4.0,1.0,part_1,,,,,,,,,,,,,gray,flipped triangle
0.0,8.0,0.0,1.0,4.0,4.0,398.4874570001011,4.0,1.0,part_1,,,,,,,,,,,,,white,triangle
206.0,3.0,3.0,0.0,3.0,3.0,412.9415590000462,4.0,1.0,part_1,,,,,,,,,,,,,orange,circle
66.0,5.0,1.0,1.0,1.0,1.0,404.7513999998955,4.0,1.0,part_1,,,,,,,,,,,,,blue,I
111.0,2.0,2.0,0.0,1.0,1.0,347.7268179999555,4.0,1.0,part_1,,,,,,,,,,,,,yellow,diamond
123.0,6.0,2.0,1.0,4.0,4.0,394.5699770001738,4.0,1.0,part_1,,,,,,,,,,,,,green,cross
79.0,2.0,2.0,0.0,1.0,1.0,360.9356430001753,4.0,1.0,part_1,,,,,,,,,,,,,yellow,diamond
98.0,6.0,2.0,1.0,1.0,1.0,489.2424079998818,4.0,1.0,part_1,,,,,,,,,,,,,green,cross
0.0,1.0,0.0,0.0,1.0,1.0,324.3093030000636,4.0,1.0,part_1,,,,,,,,,,,,,magenta,square
0.0,4.0,0.0,0.0,1.0,1.0,296.6260849998434,4.0,1.0,part_1,,,,,,,,,,,,,cyan,hexagon
0.0,4.0,4.0,0.0,5.0,5.0,428.7908069995865,1.0,0.0,part_2,go,250.0,250.0,1.0,,,,,,,,,cyan,hexagon
0.0,7.0,3.0,1.0,5.0,0.0,0.0,1.0,0.0,part_2,stop,250.0,250.0,4.0,,,,,,,,,gray,flipped triangle
0.0,5.0,1.0,1.0,6.0,6.0,343.0800660003115,1.0,0.0,part_2,go,300.0,250.0,1.0,,,,,,,,,blue,I
0.0,3.0,3.0,0.0,5.0,5.0,565.5155240001477,1.0,0.0,part_2,go,300.0,250.0,1.0,,,,,,,,,orange,circle
0.0,2.0,2.0,0.0,5.0,5.0,650.2570070001639,1.0,0.0,part_2,go,300.0,250.0,1.0,,,,,,,,,yellow,diamond
0.0,7.0,3.0,1.0,6.0,6.0,550.5972589999146,1.0,0.0,part_2,go,300.0,250.0,1.0,,,,,,,,,gray,flipped triangle
0.0,1.0,1.0,0.0,5.0,5.0,362.1201339997242,1.0,0.0,part_2,go,300.0,250.0,1.0,,,,,,,,,magenta,square
0.0,2.0,2.0,0.0,5.0,5.0,567.357678999997,1.0,0.0,part_2,go,300.0,250.0,1.0,,,,,,,,,yellow,diamond
0.0,3.0,3.0,0.0,5.0,5.0,466.4302659998611,1.0,0.0,part_2,go,300.0,250.0,1.0,,,,,,,,,orange,circle
0.0,8.0,4.0,1.0,6.0,6.0,398.4221759997126,1.0,0.0,part_2,stop,300.0,250.0,3.0,,,,,,,,,white,triangle
0.0,5.0,1.0,1.0,6.0,6.0,386.9326200001524,1.0,0.0,part_2,stop,300.0,200.0,3.0,,,,,,,,,blue,I
0.0,4.0,4.0,0.0,5.0,5.0,275.0962639997851,1.0,0.0,part_2,go,300.0,150.0,1.0,,,,,,,,,cyan,hexagon
0.0,1.0,1.0,0.0,5.0,5.0,605.5136150002909,1.0,0.0,part_2,go,300.0,150.0,1.0,,,,,,,,,magenta,square
0.0,8.0,4.0,1.0,6.0,0.0,0.0,1.0,0.0,part_2,stop,300.0,150.0,4.0,,,,,,,,,white,triangle
0.0,3.0,3.0,0.0,6.0,6.0,517.5792489999367,1.0,0.0,part_2,go,300.0,200.0,1.0,,,,,,,,,orange,circle
0.0,7.0,3.0,1.0,6.0,0.0,0.0,1.0,0.0,part_2,stop,300.0,200.0,4.0,,,,,,,,,gray,flipped triangle
0.0,2.0,2.0,0.0,6.0,6.0,521.8490009997367,1.0,0.0,part_2,go,300.0,250.0,1.0,,,,,,,,,yellow,diamond
0.0,1.0,1.0,0.0,6.0,6.0,656.3010679997205,1.0,0.0,part_2,go,300.0,250.0,1.0,,,,,,,,,magenta,square
0.0,7.0,3.0,1.0,5.0,0.0,0.0,1.0,0.0,part_2,stop,300.0,250.0,4.0,,,,,,,,,gray,flipped triangle
0.0,2.0,2.0,0.0,5.0,5.0,484.2209930002354,1.0,0.0,part_2,go,350.0,250.0,1.0,,,,,,,,,yellow,diamond
0.0,6.0,2.0,1.0,5.0,0.0,0.0,1.0,0.0,part_2,stop,350.0,250.0,4.0,,,,,,,,,green,cross
0.0,5.0,1.0,1.0,6.0,0.0,0.0,1.0,0.0,part_2,stop,400.0,250.0,4.0,,,,,,,,,blue,I
0.0,4.0,4.0,0.0,6.0,6.0,497.8792560000329,1.0,0.0,part_2,go,400.0,300.0,1.0,,,,,,,,,cyan,hexagon
0.0,4.0,4.0,0.0,5.0,5.0,607.3362340002859,1.0,0.0,part_2,go,400.0,300.0,1.0,,,,,,,,,cyan,hexagon
0.0,6.0,2.0,1.0,6.0,0.0,0.0,1.0,0.0,part_2,stop,400.0,300.0,4.0,,,,,,,,,green,cross
0.0,4.0,4.0,0.0,5.0,5.0,543.7399329998698,1.0,0.0,part_2,go,400.0,350.0,1.0,,,,,,,,,cyan,hexagon
0.0,1.0,1.0,0.0,6.0,6.0,567.8405170001497,1.0,0.0,part_2,go,400.0,350.0,1.0,,,,,,,,,magenta,square
0.0,2.0,2.0,0.0,5.0,5.0,462.6705800001218,1.0,0.0,part_2,go,400.0,350.0,1.0,,,,,,,,,yellow,diamond
0.0,6.0,2.0,1.0,6.0,0.0,0.0,1.0,0.0,part_2,stop,400.0,350.0,4.0,,,,,,,,,green,cross
0.0,7.0,3.0,1.0,5.0,5.0,493.9995570002793,1.0,0.0,part_2,stop,400.0,400.0,3.0,,,,,,,,,gray,flipped triangle
0.0,2.0,2.0,0.0,6.0,6.0,507.2371739997834,1.0,0.0,part_2,go,350.0,400.0,1.0,,,,,,,,,yellow,diamond
0.0,7.0,3.0,1.0,6.0,6.0,701.9353379996573,1.0,0.0,part_2,go,350.0,400.0,1.0,,,,,,,,,gray,flipped triangle
0.0,1.0,1.0,0.0,6.0,6.0,762.0262910004385,1.0,0.0,part_2,go,350.0,400.0,1.0,,,,,,,,,magenta,square
0.0,8.0,4.0,1.0,6.0,0.0,0.0,1.0,0.0,part_2,stop,350.0,400.0,4.0,,,,,,,,,white,triangle
0.0,5.0,1.0,1.0,6.0,6.0,634.4111000003068,1.0,0.0,part_2,go,350.0,450.0,1.0,,,,,,,,,blue,I
0.0,5.0,1.0,1.0,5.0,0.0,0.0,1.0,0.0,part_2,stop,350.0,450.0,4.0,,,,,,,,,blue,I
0.0,6.0,2.0,1.0,6.0,6.0,492.8711839997959,2.0,0.0,part_2,stop,400.0,450.0,3.0,,,,,,,,,green,cross
0.0,2.0,2.0,0.0,6.0,6.0,665.0377620003383,2.0,0.0,part_2,go,400.0,400.0,1.0,,,,,,,,,yellow,diamond
0.0,1.0,1.0,0.0,5.0,5.0,564.9270550002257,2.0,0.0,part_2,go,400.0,400.0,1.0,,,,,,,,,magenta,square
0.0,6.0,2.0,1.0,5.0,5.0,648.9945349999289,2.0,0.0,part_2,go,400.0,400.0,1.0,,,,,,,,,green,cross
0.0,2.0,2.0,0.0,5.0,5.0,591.4986269999645,2.0,0.0,part_2,go,400.0,400.0,1.0,,,,,,,,,yellow,diamond
0.0,2.0,2.0,0.0,6.0,6.0,659.725575000266,2.0,0.0,part_2,go,400.0,400.0,1.0,,,,,,,,,yellow,diamond
0.0,6.0,2.0,1.0,5.0,0.0,0.0,2.0,0.0,part_2,stop,400.0,400.0,4.0,,,,,,,,,green,cross
0.0,4.0,4.0,0.0,6.0,6.0,696.0457330001191,2.0,0.0,part_2,go,450.0,400.0,1.0,,,,,,,,,cyan,hexagon
0.0,6.0,2.0,1.0,5.0,0.0,0.0,2.0,0.0,part_2,stop,450.0,400.0,4.0,,,,,,,,,green,cross
0.0,7.0,3.0,1.0,5.0,5.0,586.7628629998762,2.0,0.0,part_2,stop,500.0,400.0,3.0,,,,,,,,,gray,flipped triangle
0.0,1.0,1.0,0.0,6.0,6.0,667.5857949999227,2.0,0.0,part_2,go,450.0,400.0,1.0,,,,,,,,,magenta,square
0.0,7.0,3.0,1.0,6.0,0.0,0.0,2.0,0.0,part_2,stop,450.0,400.0,4.0,,,,,,,,,gray,flipped triangle
0.0,3.0,3.0,0.0,6.0,6.0,629.848038000091,2.0,0.0,part_2,go,450.0,450.0,1.0,,,,,,,,,orange,circle
0.0,6.0,2.0,1.0,6.0,0.0,0.0,2.0,0.0,part_2,stop,450.0,450.0,4.0,,,,,,,,,green,cross
0.0,2.0,2.0,0.0,5.0,5.0,568.1567289998384,2.0,0.0,part_2,go,450.0,500.0,1.0,,,,,,,,,yellow,diamond
0.0,3.0,3.0,0.0,6.0,6.0,647.150191000037,2.0,0.0,part_2,go,450.0,500.0,1.0,,,,,,,,,orange,circle
0.0,5.0,1.0,1.0,5.0,5.0,560.962894000113,2.0,0.0,part_2,stop,450.0,500.0,3.0,,,,,,,,,blue,I
0.0,4.0,4.0,0.0,6.0,6.0,640.8295119999821,2.0,0.0,part_2,go,400.0,500.0,1.0,,,,,,,,,cyan,hexagon
0.0,1.0,1.0,0.0,6.0,6.0,710.4340549999506,2.0,0.0,part_2,go,400.0,500.0,1.0,,,,,,,,,magenta,square
0.0,7.0,3.0,1.0,6.0,0.0,0.0,2.0,0.0,part_2,stop,400.0,500.0,4.0,,,,,,,,,gray,flipped triangle
0.0,2.0,2.0,0.0,6.0,6.0,661.3330059999498,2.0,0.0,part_2,go,400.0,550.0,1.0,,,,,,,,,yellow,diamond
0.0,7.0,3.0,1.0,5.0,5.0,756.7300569999134,2.0,0.0,part_2,go,400.0,550.0,1.0,,,,,,,,,gray,flipped triangle
0.0,3.0,3.0,0.0,5.0,5.0,724.111542999708,2.0,0.0,part_2,go,400.0,550.0,1.0,,,,,,,,,orange,circle
0.0,6.0,2.0,1.0,6.0,6.0,655.4820819997076,2.0,0.0,part_2,stop,400.0,550.0,3.0,,,,,,,,,green,cross
0.0,3.0,3.0,0.0,5.0,5.0,724.3703300000561,2.0,0.0,part_2,go,400.0,500.0,1.0,,,,,,,,,orange,circle
0.0,4.0,4.0,0.0,5.0,5.0,773.9531829997759,2.0,0.0,part_2,go,400.0,500.0,1.0,,,,,,,,,cyan,hexagon
0.0,3.0,3.0,0.0,6.0,6.0,888.5765380000521,2.0,0.0,part_2,go,400.0,500.0,1.0,,,,,,,,,orange,circle
0.0,8.0,4.0,1.0,5.0,0.0,0.0,2.0,0.0,part_2,stop,400.0,500.0,4.0,,,,,,,,,white,triangle
0.0,7.0,3.0,1.0,6.0,0.0,0.0,2.0,0.0,part_2,stop,450.0,500.0,4.0,,,,,,,,,gray,flipped triangle
0.0,2.0,2.0,0.0,5.0,5.0,642.2473290003836,2.0,0.0,part_2,go,450.0,550.0,1.0,,,,,,,,,yellow,diamond
0.0,6.0,2.0,1.0,5.0,5.0,781.6114759998527,2.0,0.0,part_2,go,450.0,550.0,1.0,,,,,,,,,green,cross
0.0,3.0,3.0,0.0,6.0,6.0,879.5315180000216,2.0,0.0,part_2,go,450.0,550.0,1.0,,,,,,,,,orange,circle
0.0,2.0,2.0,0.0,5.0,5.0,716.1542530002407,2.0,0.0,part_2,go,450.0,550.0,1.0,,,,,,,,,yellow,diamond
0.0,5.0,1.0,1.0,5.0,5.0,660.8674290000636,2.0,0.0,part_2,go,450.0,550.0,1.0,,,,,,,,,blue,I
0.0,3.0,3.0,0.0,6.0,6.0,656.3776080001844,2.0,0.0,part_2,go,450.0,550.0,1.0,,,,,,,,,orange,circle
0.0,2.0,2.0,0.0,6.0,6.0,636.5869720002593,2.0,0.0,part_2,go,450.0,550.0,1.0,,,,,,,,,yellow,diamond
0.0,1.0,1.0,0.0,5.0,5.0,389.5657099997152,3.0,0.0,part_2,go,450.0,550.0,1.0,,,,,,,,,magenta,square
0.0,8.0,4.0,1.0,6.0,6.0,346.7317610002283,3.0,0.0,part_2,stop,450.0,550.0,3.0,,,,,,,,,white,triangle
0.0,1.0,1.0,0.0,5.0,5.0,348.4767439999814,3.0,0.0,part_2,go,450.0,500.0,1.0,,,,,,,,,magenta,square
0.0,3.0,3.0,0.0,6.0,6.0,305.327595000108,3.0,0.0,part_2,go,450.0,500.0,1.0,,,,,,,,,orange,circle
0.0,7.0,3.0,1.0,5.0,5.0,405.392213000141,3.0,0.0,part_2,stop,450.0,500.0,3.0,,,,,,,,,gray,flipped triangle
0.0,1.0,1.0,0.0,5.0,5.0,548.4960169997066,3.0,0.0,part_2,go,400.0,500.0,1.0,,,,,,,,,magenta,square
0.0,1.0,1.0,0.0,5.0,5.0,336.3061729996843,3.0,0.0,part_2,go,400.0,500.0,1.0,,,,,,,,,magenta,square
0.0,3.0,3.0,0.0,5.0,5.0,395.1236899997639,3.0,0.0,part_2,go,400.0,500.0,1.0,,,,,,,,,orange,circle
0.0,5.0,1.0,1.0,5.0,0.0,0.0,3.0,0.0,part_2,stop,400.0,500.0,4.0,,,,,,,,,blue,I
0.0,7.0,3.0,1.0,5.0,5.0,562.0513369999571,3.0,0.0,part_2,stop,450.0,500.0,3.0,,,,,,,,,gray,flipped triangle
0.0,6.0,2.0,1.0,5.0,0.0,0.0,3.0,0.0,part_2,stop,400.0,500.0,4.0,,,,,,,,,green,cross
0.0,1.0,1.0,0.0,5.0,5.0,523.6494779996974,3.0,0.0,part_2,go,450.0,500.0,1.0,,,,,,,,,magenta,square
0.0,6.0,2.0,1.0,6.0,6.0,540.5961449996539,3.0,0.0,part_2,stop,450.0,500.0,3.0,,,,,,,,,green,cross
0.0,2.0,2.0,0.0,6.0,6.0,639.5605709999472,3.0,0.0,part_2,go,450.0,450.0,1.0,,,,,,,,,yellow,diamond
0.0,5.0,1.0,1.0,5.0,5.0,505.63829299971985,3.0,0.0,part_2,go,450.0,450.0,1.0,,,,,,,,,blue,I
0.0,8.0,4.0,1.0,5.0,5.0,345.1534389996595,3.0,0.0,part_2,stop,450.0,450.0,3.0,,,,,,,,,white,triangle
0.0,4.0,4.0,0.0,6.0,6.0,430.0966169998901,3.0,0.0,part_2,go,400.0,450.0,1.0,,,,,,,,,cyan,hexagon
0.0,4.0,4.0,0.0,6.0,6.0,364.9120449999827,3.0,0.0,part_2,go,400.0,450.0,1.0,,,,,,,,,cyan,hexagon
0.0,1.0,1.0,0.0,6.0,6.0,478.3596940001189,3.0,0.0,part_2,go,400.0,450.0,1.0,,,,,,,,,magenta,square
0.0,8.0,4.0,1.0,5.0,5.0,419.1897660002723,3.0,0.0,part_2,go,400.0,450.0,1.0,,,,,,,,,white,triangle
0.0,3.0,3.0,0.0,6.0,6.0,585.4869559998406,3.0,0.0,part_2,go,400.0,450.0,1.0,,,,,,,,,orange,circle
0.0,4.0,4.0,0.0,5.0,5.0,619.6844480000436,3.0,0.0,part_2,go,400.0,450.0,1.0,,,,,,,,,cyan,hexagon
0.0,1.0,1.0,0.0,6.0,6.0,394.6476820001408,3.0,0.0,part_2,go,400.0,450.0,1.0,,,,,,,,,magenta,square
0.0,8.0,4.0,1.0,5.0,5.0,432.859591000124,3.0,0.0,part_2,stop,400.0,450.0,3.0,,,,,,,,,white,triangle
0.0,6.0,2.0,1.0,6.0,6.0,497.2485010002856,3.0,0.0,part_2,go,350.0,450.0,1.0,,,,,,,,,green,cross
0.0,7.0,3.0,1.0,6.0,6.0,328.1262669997886,3.0,0.0,part_2,go,350.0,450.0,1.0,,,,,,,,,gray,flipped triangle
0.0,5.0,1.0,1.0,6.0,6.0,427.3082360000444,3.0,0.0,part_2,stop,350.0,450.0,3.0,,,,,,,,,blue,I
0.0,2.0,2.0,0.0,6.0,6.0,704.3905709997489,3.0,0.0,part_2,go,350.0,400.0,1.0,,,,,,,,,yellow,diamond
0.0,1.0,1.0,0.0,6.0,6.0,635.1929520001249,3.0,0.0,part_2,go,350.0,400.0,1.0,,,,,,,,,magenta,square
0.0,8.0,4.0,1.0,6.0,0.0,0.0,3.0,0.0,part_2,stop,350.0,400.0,4.0,,,,,,,,,white,triangle
0.0,7.0,3.0,1.0,6.0,6.0,590.3301809998993,3.0,0.0,part_2,go,350.0,450.0,1.0,,,,,,,,,gray,flipped triangle
0.0,2.0,2.0,0.0,6.0,6.0,527.0561410002301,3.0,0.0,part_2,go,350.0,450.0,1.0,,,,,,,,,yellow,diamond
0.0,4.0,4.0,0.0,5.0,5.0,457.3160730001291,3.0,0.0,part_2,go,350.0,450.0,1.0,,,,,,,,,cyan,hexagon
0.0,8.0,4.0,1.0,5.0,5.0,459.9753709999277,3.0,0.0,part_2,stop,350.0,450.0,3.0,,,,,,,,,white,triangle
0.0,1.0,1.0,0.0,5.0,5.0,351.0113140000612,3.0,0.0,part_2,go,300.0,450.0,1.0,,,,,,,,,magenta,square
0.0,8.0,4.0,1.0,6.0,6.0,390.2036449999286,3.0,0.0,part_2,stop,300.0,450.0,3.0,,,,,,,,,white,triangle
0.0,6.0,2.0,1.0,5.0,5.0,442.2071539997887,4.0,0.0,part_2,stop,300.0,400.0,3.0,,,,,,,,,green,cross
0.0,6.0,2.0,1.0,6.0,6.0,474.596080000083,4.0,0.0,part_2,stop,250.0,400.0,3.0,,,,,,,,,green,cross
0.0,1.0,1.0,0.0,6.0,6.0,464.4071099996836,4.0,0.0,part_2,go,250.0,350.0,1.0,,,,,,,,,magenta,square
0.0,5.0,1.0,1.0,5.0,5.0,400.2242629999273,4.0,0.0,part_2,go,250.0,350.0,1.0,,,,,,,,,blue,I
0.0,8.0,4.0,1.0,6.0,0.0,0.0,4.0,0.0,part_2,stop,250.0,350.0,4.0,,,,,,,,,white,triangle
0.0,8.0,4.0,1.0,6.0,0.0,0.0,4.0,0.0,part_2,stop,250.0,400.0,4.0,,,,,,,,,white,triangle
0.0,3.0,3.0,0.0,5.0,5.0,423.1142409998938,4.0,0.0,part_2,go,250.0,450.0,1.0,,,,,,,,,orange,circle
0.0,4.0,4.0,0.0,5.0,5.0,436.3634770002136,4.0,0.0,part_2,go,250.0,450.0,1.0,,,,,,,,,cyan,hexagon
0.0,7.0,3.0,1.0,6.0,0.0,0.0,4.0,0.0,part_2,stop,250.0,450.0,4.0,,,,,,,,,gray,flipped triangle
0.0,2.0,2.0,0.0,6.0,6.0,362.7518759999475,4.0,0.0,part_2,go,250.0,500.0,1.0,,,,,,,,,yellow,diamond
0.0,4.0,4.0,0.0,6.0,6.0,403.7177899999733,4.0,0.0,part_2,go,250.0,500.0,1.0,,,,,,,,,cyan,hexagon
0.0,5.0,1.0,1.0,6.0,6.0,499.5173000002069,4.0,0.0,part_2,stop,250.0,500.0,3.0,,,,,,,,,blue,I
0.0,8.0,4.0,1.0,5.0,5.0,588.8979440001094,4.0,0.0,part_2,go,250.0,450.0,1.0,,,,,,,,,white,triangle
0.0,4.0,4.0,0.0,6.0,6.0,357.2778610000569,4.0,0.0,part_2,go,250.0,450.0,1.0,,,,,,,,,cyan,hexagon
0.0,7.0,3.0,1.0,6.0,6.0,548.0489090000447,4.0,0.0,part_2,go,250.0,450.0,1.0,,,,,,,,,gray,flipped triangle
0.0,6.0,2.0,1.0,6.0,6.0,547.7520640001785,4.0,0.0,part_2,stop,250.0,450.0,3.0,,,,,,,,,green,cross
0.0,5.0,1.0,1.0,6.0,0.0,0.0,4.0,0.0,part_2,stop,250.0,400.0,4.0,,,,,,,,,blue,I
0.0,8.0,4.0,1.0,5.0,5.0,353.1451480002943,4.0,0.0,part_2,stop,250.0,450.0,3.0,,,,,,,,,white,triangle
0.0,2.0,2.0,0.0,6.0,6.0,278.735709999637,4.0,0.0,part_2,go,200.0,450.0,1.0,,,,,,,,,yellow,diamond
0.0,6.0,2.0,1.0,5.0,5.0,352.1256080002786,4.0,0.0,part_2,stop,200.0,450.0,3.0,,,,,,,,,green,cross
0.0,7.0,3.0,1.0,6.0,0.0,0.0,4.0,0.0,part_2,stop,150.0,450.0,4.0,,,,,,,,,gray,flipped triangle
0.0,4.0,4.0,0.0,5.0,5.0,548.2491590000791,4.0,0.0,part_2,go,150.0,500.0,1.0,,,,,,,,,cyan,hexagon
0.0,5.0,1.0,1.0,5.0,0.0,0.0,4.0,0.0,part_2,stop,150.0,500.0,4.0,,,,,,,,,blue,I
0.0,1.0,1.0,0.0,5.0,5.0,614.0909409996311,4.0,0.0,part_2,go,200.0,500.0,1.0,,,,,,,,,magenta,square
0.0,1.0,1.0,0.0,6.0,6.0,289.8990590001631,4.0,0.0,part_2,go,200.0,500.0,1.0,,,,,,,,,magenta,square
0.0,1.0,1.0,0.0,6.0,6.0,486.2879709999106,4.0,0.0,part_2,go,200.0,500.0,1.0,,,,,,,,,magenta,square
0.0,3.0,3.0,0.0,5.0,5.0,667.7952640002331,4.0,0.0,part_2,go,200.0,500.0,1.0,,,,,,,,,orange,circle
0.0,1.0,1.0,0.0,5.0,5.0,469.5236420002402,4.0,0.0,part_2,go,200.0,500.0,1.0,,,,,,,,,magenta,square
0.0,5.0,1.0,1.0,6.0,6.0,562.6613840004211,4.0,0.0,part_2,stop,200.0,500.0,3.0,,,,,,,,,blue,I
0.0,5.0,1.0,1.0,6.0,6.0,488.2830199999262,4.0,0.0,part_2,stop,200.0,450.0,3.0,,,,,,,,,blue,I
0.0,3.0,3.0,0.0,5.0,5.0,290.3751249996276,4.0,0.0,part_2,go,200.0,400.0,1.0,,,,,,,,,orange,circle
0.0,7.0,3.0,1.0,6.0,6.0,457.9746749996047,4.0,0.0,part_2,stop,200.0,400.0,3.0,,,,,,,,,gray,flipped triangle
0.0,4.0,4.0,0.0,5.0,5.0,683.274399000311,4.0,0.0,part_2,go,200.0,350.0,1.0,,,,,,,,,cyan,hexagon
0.0,4.0,4.0,0.0,6.0,6.0,474.192418000257,4.0,0.0,part_2,go,200.0,350.0,1.0,,,,,,,,,cyan,hexagon
0.0,7.0,3.0,1.0,5.0,0.0,0.0,4.0,0.0,part_2,stop,200.0,350.0,4.0,,,,,,,,,gray,flipped triangle
0.0,8.0,4.0,1.0,5.0,0.0,0.0,4.0,0.0,part_2,stop,250.0,350.0,4.0,,,,,,,,,white,triangle
0.0,8.0,4.0,1.0,6.0,6.0,753.2716270002311,5.0,0.0,part_2,go,300.0,350.0,1.0,,,,,,,,,white,triangle
0.0,5.0,1.0,1.0,6.0,0.0,0.0,5.0,0.0,part_2,stop,300.0,350.0,4.0,,,,,,,,,blue,I
0.0,3.0,3.0,0.0,6.0,6.0,587.0193820001077,5.0,0.0,part_2,go,300.0,400.0,1.0,,,,,,,,,orange,circle
0.0,3.0,3.0,0.0,6.0,6.0,420.3794189998007,5.0,0.0,part_2,go,300.0,400.0,1.0,,,,,,,,,orange,circle
0.0,2.0,2.0,0.0,5.0,5.0,564.3629659998624,5.0,0.0,part_2,go,300.0,400.0,1.0,,,,,,,,,yellow,diamond
0.0,2.0,2.0,0.0,6.0,6.0,274.4968160000098,5.0,0.0,part_2,go,300.0,400.0,1.0,,,,,,,,,yellow,diamond
0.0,8.0,4.0,1.0,6.0,6.0,352.9141590001927,5.0,0.0,part_2,go,300.0,400.0,1.0,,,,,,,,,white,triangle
0.0,4.0,4.0,0.0,5.0,5.0,529.0057350002826,5.0,0.0,part_2,go,300.0,400.0,1.0,,,,,,,,,cyan,hexagon
0.0,6.0,2.0,1.0,5.0,0.0,0.0,5.0,0.0,part_2,stop,300.0,400.0,4.0,,,,,,,,,green,cross
0.0,6.0,2.0,1.0,6.0,0.0,0.0,5.0,0.0,part_2,stop,350.0,400.0,4.0,,,,,,,,,green,cross
0.0,2.0,2.0,0.0,5.0,5.0,346.3307150000219,5.0,0.0,part_2,go,350.0,450.0,1.0,,,,,,,,,yellow,diamond
0.0,7.0,3.0,1.0,6.0,6.0,412.2472439999001,5.0,0.0,part_2,stop,350.0,450.0,3.0,,,,,,,,,gray,flipped triangle
0.0,8.0,4.0,1.0,5.0,5.0,433.3644619996448,5.0,0.0,part_2,stop,350.0,400.0,3.0,,,,,,,,,white,triangle
0.0,4.0,4.0,0.0,5.0,5.0,352.7025660000618,5.0,0.0,part_2,go,300.0,400.0,1.0,,,,,,,,,cyan,hexagon
0.0,1.0,1.0,0.0,5.0,5.0,331.3390670000444,5.0,0.0,part_2,go,300.0,400.0,1.0,,,,,,,,,magenta,square
0.0,7.0,3.0,1.0,5.0,5.0,412.4412910000501,5.0,0.0,part_2,go,300.0,400.0,1.0,,,,,,,,,gray,flipped triangle
0.0,5.0,1.0,1.0,5.0,5.0,339.5536540001558,5.0,0.0,part_2,stop,300.0,400.0,3.0,,,,,,,,,blue,I
0.0,8.0,4.0,1.0,5.0,5.0,315.3276450002522,5.0,0.0,part_2,stop,250.0,400.0,3.0,,,,,,,,,white,triangle
0.0,4.0,4.0,0.0,6.0,6.0,521.8527560000439,5.0,0.0,part_2,go,200.0,400.0,1.0,,,,,,,,,cyan,hexagon
0.0,7.0,3.0,1.0,6.0,6.0,515.4213280002296,5.0,0.0,part_2,stop,200.0,400.0,3.0,,,,,,,,,gray,flipped triangle
0.0,2.0,2.0,0.0,6.0,6.0,454.0194989995143,5.0,0.0,part_2,go,200.0,350.0,1.0,,,,,,,,,yellow,diamond
0.0,7.0,3.0,1.0,5.0,0.0,0.0,5.0,0.0,part_2,stop,200.0,350.0,4.0,,,,,,,,,gray,flipped triangle
0.0,8.0,4.0,1.0,6.0,6.0,410.0864150004781,5.0,0.0,part_2,stop,250.0,350.0,3.0,,,,,,,,,white,triangle
0.0,2.0,2.0,0.0,5.0,5.0,286.3255829997797,5.0,0.0,part_2,go,250.0,300.0,1.0,,,,,,,,,yellow,diamond
0.0,4.0,4.0,0.0,5.0,5.0,432.3244090001026,5.0,0.0,part_2,go,250.0,300.0,1.0,,,,,,,,,cyan,hexagon
0.0,8.0,4.0,1.0,6.0,6.0,459.5149090000632,5.0,0.0,part_2,go,250.0,300.0,1.0,,,,,,,,,white,triangle
0.0,6.0,2.0,1.0,5.0,5.0,334.9988599993594,5.0,0.0,part_2,stop,250.0,300.0,3.0,,,,,,,,,green,cross
0.0,8.0,4.0,1.0,6.0,0.0,0.0,5.0,0.0,part_2,stop,200.0,300.0,4.0,,,,,,,,,white,triangle
0.0,3.0,3.0,0.0,6.0,6.0,310.2703960003055,5.0,0.0,part_2,go,200.0,350.0,1.0,,,,,,,,,orange,circle
0.0,6.0,2.0,1.0,6.0,6.0,360.1022159991771,5.0,0.0,part_2,go,200.0,350.0,1.0,,,,,,,,,green,cross
0.0,6.0,2.0,1.0,5.0,0.0,0.0,5.0,0.0,part_2,stop,200.0,350.0,4.0,,,,,,,,,green,cross
0.0,8.0,4.0,1.0,6.0,6.0,510.6965909999417,5.0,0.0,part_2,stop,250.0,350.0,3.0,,,,,,,,,white,triangle
0.0,2.0,2.0,0.0,5.0,5.0,461.0529310002675,5.0,0.0,part_2,go,250.0,300.0,1.0,,,,,,,,,yellow,diamond
0.0,7.0,3.0,1.0,5.0,5.0,311.7247190002672,5.0,0.0,part_2,go,250.0,300.0,1.0,,,,,,,,,gray,flipped triangle
0.0,2.0,2.0,0.0,5.0,5.0,592.5505039995187,5.0,0.0,part_2,go,250.0,300.0,1.0,,,,,,,,,yellow,diamond
0.0,3.0,3.0,0.0,5.0,5.0,472.39746600007487,5.0,0.0,part_2,go,250.0,300.0,1.0,,,,,,,,,orange,circle
0.0,3.0,3.0,0.0,5.0,5.0,476.7879390001326,6.0,0.0,part_2,go,250.0,300.0,1.0,,,,,,,,,orange,circle
0.0,5.0,1.0,1.0,5.0,0.0,0.0,6.0,0.0,part_2,stop,250.0,300.0,4.0,,,,,,,,,blue,I
0.0,7.0,3.0,1.0,5.0,5.0,332.9850219997752,6.0,0.0,part_2,go,300.0,300.0,1.0,,,,,,,,,gray,flipped triangle
0.0,7.0,3.0,1.0,5.0,5.0,295.4144259992972,6.0,0.0,part_2,stop,300.0,300.0,3.0,,,,,,,,,gray,flipped triangle
0.0,7.0,3.0,1.0,5.0,0.0,0.0,6.0,0.0,part_2,stop,250.0,300.0,4.0,,,,,,,,,gray,flipped triangle
0.0,6.0,2.0,1.0,6.0,6.0,314.4087990003754,6.0,0.0,part_2,go,300.0,300.0,1.0,,,,,,,,,green,cross
0.0,4.0,4.0,0.0,5.0,5.0,386.6059099991616,6.0,0.0,part_2,go,300.0,300.0,1.0,,,,,,,,,cyan,hexagon
0.0,6.0,2.0,1.0,5.0,5.0,469.4929900006173,6.0,0.0,part_2,go,300.0,300.0,1.0,,,,,,,,,green,cross
0.0,7.0,3.0,1.0,6.0,6.0,340.6413599996085,6.0,0.0,part_2,stop,300.0,300.0,3.0,,,,,,,,,gray,flipped triangle
0.0,1.0,1.0,0.0,5.0,5.0,599.9846469994736,6.0,0.0,part_2,go,300.0,250.0,1.0,,,,,,,,,magenta,square
0.0,3.0,3.0,0.0,5.0,5.0,304.4606000003114,6.0,0.0,part_2,go,300.0,250.0,1.0,,,,,,,,,orange,circle
0.0,3.0,3.0,0.0,6.0,6.0,455.7695699995747,6.0,0.0,part_2,go,300.0,250.0,1.0,,,,,,,,,orange,circle
0.0,5.0,1.0,1.0,6.0,6.0,404.987954999342,6.0,0.0,part_2,stop,300.0,250.0,3.0,,,,,,,,,blue,I
0.0,2.0,2.0,0.0,6.0,6.0,483.9667799997187,6.0,0.0,part_2,go,300.0,200.0,1.0,,,,,,,,,yellow,diamond
0.0,4.0,4.0,0.0,5.0,5.0,321.6359660000307,6.0,0.0,part_2,go,300.0,200.0,1.0,,,,,,,,,cyan,hexagon
0.0,2.0,2.0,0.0,5.0,5.0,446.7039569999542,6.0,0.0,part_2,go,300.0,200.0,1.0,,,,,,,,,yellow,diamond
0.0,5.0,1.0,1.0,5.0,5.0,280.8612789995095,6.0,0.0,part_2,stop,300.0,200.0,3.0,,,,,,,,,blue,I
0.0,6.0,2.0,1.0,6.0,0.0,0.0,6.0,0.0,part_2,stop,250.0,200.0,4.0,,,,,,,,,green,cross
0.0,1.0,1.0,0.0,5.0,5.0,315.7199940005739,6.0,0.0,part_2,go,250.0,250.0,1.0,,,,,,,,,magenta,square
0.0,6.0,2.0,1.0,5.0,5.0,304.3020579998483,6.0,0.0,part_2,stop,250.0,250.0,3.0,,,,,,,,,green,cross
0.0,8.0,4.0,1.0,5.0,5.0,424.0827040002841,6.0,0.0,part_2,go,200.0,250.0,1.0,,,,,,,,,white,triangle
0.0,3.0,3.0,0.0,6.0,6.0,406.976425000721,6.0,0.0,part_2,go,200.0,250.0,1.0,,,,,,,,,orange,circle
0.0,4.0,4.0,0.0,6.0,6.0,605.4089720000775,6.0,0.0,part_2,go,200.0,250.0,1.0,,,,,,,,,cyan,hexagon
0.0,8.0,4.0,1.0,6.0,0.0,0.0,6.0,0.0,part_2,stop,200.0,250.0,4.0,,,,,,,,,white,triangle
0.0,4.0,4.0,0.0,6.0,6.0,586.9605159996354,6.0,0.0,part_2,go,200.0,300.0,1.0,,,,,,,,,cyan,hexagon
0.0,4.0,4.0,0.0,6.0,6.0,609.1998679994504,6.0,0.0,part_2,go,200.0,300.0,1.0,,,,,,,,,cyan,hexagon
0.0,6.0,2.0,1.0,5.0,0.0,0.0,6.0,0.0,part_2,stop,200.0,300.0,4.0,,,,,,,,,green,cross
0.0,5.0,1.0,1.0,6.0,0.0,0.0,6.0,0.0,part_2,stop,250.0,300.0,4.0,,,,,,,,,blue,I
0.0,6.0,2.0,1.0,5.0,5.0,307.6046450005378,6.0,0.0,part_2,stop,250.0,350.0,3.0,,,,,,,,,green,cross
0.0,4.0,4.0,0.0,6.0,6.0,288.5322550000637,6.0,0.0,part_2,go,200.0,350.0,1.0,,,,,,,,,cyan,hexagon
0.0,8.0,4.0,1.0,5.0,0.0,0.0,6.0,0.0,part_2,stop,200.0,350.0,4.0,,,,,,,,,white,triangle
0.0,2.0,2.0,0.0,6.0,6.0,470.1100910006062,6.0,0.0,part_2,go,250.0,350.0,1.0,,,,,,,,,yellow,diamond
0.0,5.0,1.0,1.0,5.0,5.0,305.7788090000031,6.0,0.0,part_2,stop,250.0,350.0,3.0,,,,,,,,,blue,I
0.0,4.0,4.0,0.0,5.0,5.0,459.5399600002565,6.0,0.0,part_2,go,200.0,350.0,1.0,,,,,,,,,cyan,hexagon
0.0,5.0,1.0,1.0,5.0,5.0,293.2790230006503,6.0,0.0,part_2,stop,200.0,350.0,3.0,,,,,,,,,blue,I
0.0,3.0,3.0,0.0,5.0,5.0,267.6665979997779,6.0,0.0,part_2,go,150.0,350.0,1.0,,,,,,,,,orange,circle
0.0,2.0,2.0,0.0,5.0,5.0,300.1573469991854,7.0,0.0,part_2,go,150.0,350.0,1.0,,,,,,,,,yellow,diamond
0.0,3.0,3.0,0.0,6.0,6.0,402.0012929995573,7.0,0.0,part_2,go,150.0,350.0,1.0,,,,,,,,,orange,circle
0.0,5.0,1.0,1.0,5.0,5.0,413.7099980007406,7.0,0.0,part_2,stop,150.0,350.0,3.0,,,,,,,,,blue,I
0.0,5.0,1.0,1.0,5.0,5.0,564.3525610003053,7.0,0.0,part_2,go,100.0,350.0,1.0,,,,,,,,,blue,I
0.0,5.0,1.0,1.0,6.0,6.0,303.4196649996374,7.0,0.0,part_2,stop,100.0,350.0,3.0,,,,,,,,,blue,I
0.0,7.0,3.0,1.0,6.0,6.0,353.5278600002129,7.0,0.0,part_2,stop,100.0,300.0,3.0,,,,,,,,,gray,flipped triangle
0.0,3.0,3.0,0.0,6.0,6.0,315.1984959995388,7.0,0.0,part_2,go,100.0,250.0,1.0,,,,,,,,,orange,circle
0.0,1.0,1.0,0.0,5.0,5.0,565.8697449998726,7.0,0.0,part_2,go,100.0,250.0,1.0,,,,,,,,,magenta,square
0.0,5.0,1.0,1.0,5.0,0.0,0.0,7.0,0.0,part_2,stop,100.0,250.0,4.0,,,,,,,,,blue,I
0.0,2.0,2.0,0.0,6.0,6.0,295.5478289995881,7.0,0.0,part_2,go,150.0,250.0,1.0,,,,,,,,,yellow,diamond
0.0,6.0,2.0,1.0,5.0,0.0,0.0,7.0,0.0,part_2,stop,150.0,250.0,4.0,,,,,,,,,green,cross
0.0,4.0,4.0,0.0,5.0,5.0,372.5088979999782,7.0,0.0,part_2,go,200.0,250.0,1.0,,,,,,,,,cyan,hexagon
0.0,8.0,4.0,1.0,5.0,0.0,0.0,7.0,0.0,part_2,stop,200.0,250.0,4.0,,,,,,,,,white,triangle
0.0,4.0,4.0,0.0,6.0,6.0,573.6506260000169,7.0,0.0,part_2,go,250.0,250.0,1.0,,,,,,,,,cyan,hexagon
0.0,2.0,2.0,0.0,6.0,6.0,435.9160899994094,7.0,0.0,part_2,go,250.0,250.0,1.0,,,,,,,,,yellow,diamond
0.0,3.0,3.0,0.0,5.0,5.0,359.2840620003699,7.0,0.0,part_2,go,250.0,250.0,1.0,,,,,,,,,orange,circle
0.0,7.0,3.0,1.0,5.0,0.0,0.0,7.0,0.0,part_2,stop,250.0,250.0,4.0,,,,,,,,,gray,flipped triangle
0.0,1.0,1.0,0.0,6.0,6.0,479.21586399934307,7.0,0.0,part_2,go,300.0,250.0,1.0,,,,,,,,,magenta,square
0.0,1.0,1.0,0.0,6.0,6.0,338.5463899994647,7.0,0.0,part_2,go,300.0,250.0,1.0,,,,,,,,,magenta,square
0.0,3.0,3.0,0.0,5.0,5.0,439.1822970001158,7.0,0.0,part_2,go,300.0,250.0,1.0,,,,,,,,,orange,circle
0.0,1.0,1.0,0.0,5.0,5.0,391.2560139997367,7.0,0.0,part_2,go,300.0,250.0,1.0,,,,,,,,,magenta,square
0.0,8.0,4.0,1.0,5.0,5.0,440.550395000173,7.0,0.0,part_2,stop,300.0,250.0,3.0,,,,,,,,,white,triangle
0.0,3.0,3.0,0.0,6.0,6.0,375.5536720000236,7.0,0.0,part_2,go,250.0,250.0,1.0,,,,,,,,,orange,circle
0.0,7.0,3.0,1.0,6.0,0.0,0.0,7.0,0.0,part_2,stop,250.0,250.0,4.0,,,,,,,,,gray,flipped triangle
0.0,6.0,2.0,1.0,6.0,0.0,0.0,7.0,0.0,part_2,stop,250.0,300.0,4.0,,,,,,,,,green,cross
0.0,8.0,4.0,1.0,6.0,0.0,0.0,7.0,0.0,part_2,stop,250.0,350.0,4.0,,,,,,,,,white,triangle
0.0,3.0,3.0,0.0,6.0,6.0,512.2912900005758,7.0,0.0,part_2,go,250.0,400.0,1.0,,,,,,,,,orange,circle
0.0,7.0,3.0,1.0,5.0,0.0,0.0,7.0,0.0,part_2,stop,250.0,400.0,4.0,,,,,,,,,gray,flipped triangle
0.0,6.0,2.0,1.0,6.0,6.0,289.1073350001534,7.0,0.0,part_2,go,300.0,400.0,1.0,,,,,,,,,green,cross
0.0,5.0,1.0,1.0,6.0,6.0,324.2506589995173,7.0,0.0,part_2,stop,300.0,400.0,3.0,,,,,,,,,blue,I
0.0,4.0,4.0,0.0,6.0,6.0,326.3794939994113,7.0,0.0,part_2,go,300.0,350.0,1.0,,,,,,,,,cyan,hexagon
0.0,3.0,3.0,0.0,5.0,5.0,443.6420310003086,7.0,0.0,part_2,go,300.0,350.0,1.0,,,,,,,,,orange,circle
0.0,3.0,3.0,0.0,5.0,5.0,419.8840240005665,7.0,0.0,part_2,go,300.0,350.0,1.0,,,,,,,,,orange,circle
0.0,3.0,3.0,0.0,5.0,5.0,362.3277090000556,7.0,0.0,part_2,go,300.0,350.0,1.0,,,,,,,,,orange,circle
0.0,2.0,2.0,0.0,5.0,5.0,367.5876930001323,7.0,0.0,part_2,go,300.0,350.0,1.0,,,,,,,,,yellow,diamond
0.0,5.0,1.0,1.0,6.0,0.0,0.0,7.0,0.0,part_2,stop,300.0,350.0,4.0,,,,,,,,,blue,I
0.0,6.0,2.0,1.0,5.0,5.0,337.9919750004774,8.0,0.0,part_2,stop,300.0,400.0,3.0,,,,,,,,,green,cross
0.0,1.0,1.0,0.0,6.0,6.0,468.8660190004157,8.0,0.0,part_2,go,250.0,400.0,1.0,,,,,,,,,magenta,square
0.0,1.0,1.0,0.0,6.0,6.0,338.973072999579,8.0,0.0,part_2,go,250.0,400.0,1.0,,,,,,,,,magenta,square
0.0,6.0,2.0,1.0,5.0,5.0,560.6239779999669,8.0,0.0,part_2,go,250.0,400.0,1.0,,,,,,,,,green,cross
0.0,6.0,2.0,1.0,6.0,6.0,393.7081199992462,8.0,0.0,part_2,stop,250.0,400.0,3.0,,,,,,,,,green,cross
0.0,7.0,3.0,1.0,5.0,5.0,347.1577770005751,8.0,0.0,part_2,stop,250.0,350.0,3.0,,,,,,,,,gray,flipped triangle
0.0,6.0,2.0,1.0,6.0,6.0,407.1466670002337,8.0,0.0,part_2,go,200.0,350.0,1.0,,,,,,,,,green,cross
0.0,1.0,1.0,0.0,6.0,6.0,499.1641070000696,8.0,0.0,part_2,go,200.0,350.0,1.0,,,,,,,,,magenta,square
0.0,4.0,4.0,0.0,6.0,6.0,364.0502280004511,8.0,0.0,part_2,go,200.0,350.0,1.0,,,,,,,,,cyan,hexagon
0.0,1.0,1.0,0.0,6.0,6.0,568.4687789998861,8.0,0.0,part_2,go,200.0,350.0,1.0,,,,,,,,,magenta,square
0.0,5.0,1.0,1.0,6.0,6.0,468.4464780002599,8.0,0.0,part_2,go,200.0,350.0,1.0,,,,,,,,,blue,I
0.0,5.0,1.0,1.0,6.0,6.0,298.7309890004326,8.0,0.0,part_2,stop,200.0,350.0,3.0,,,,,,,,,blue,I
0.0,2.0,2.0,0.0,6.0,6.0,478.9967210008399,8.0,0.0,part_2,go,200.0,300.0,1.0,,,,,,,,,yellow,diamond
0.0,4.0,4.0,0.0,6.0,6.0,328.3151300001918,8.0,0.0,part_2,go,200.0,300.0,1.0,,,,,,,,,cyan,hexagon
0.0,5.0,1.0,1.0,5.0,5.0,570.5144859994107,8.0,0.0,part_2,go,200.0,300.0,1.0,,,,,,,,,blue,I
0.0,8.0,4.0,1.0,6.0,6.0,526.9577899998694,8.0,0.0,part_2,go,200.0,300.0,1.0,,,,,,,,,white,triangle
0.0,1.0,1.0,0.0,5.0,5.0,297.8263049999441,8.0,0.0,part_2,go,200.0,300.0,1.0,,,,,,,,,magenta,square
0.0,3.0,3.0,0.0,6.0,6.0,404.5355890002611,8.0,0.0,part_2,go,200.0,300.0,1.0,,,,,,,,,orange,circle
0.0,2.0,2.0,0.0,5.0,5.0,340.1931019998301,8.0,0.0,part_2,go,200.0,300.0,1.0,,,,,,,,,yellow,diamond
0.0,7.0,3.0,1.0,6.0,6.0,256.6605380006876,8.0,0.0,part_2,stop,200.0,300.0,3.0,,,,,,,,,gray,flipped triangle
0.0,7.0,3.0,1.0,5.0,0.0,0.0,8.0,0.0,part_2,stop,200.0,250.0,4.0,,,,,,,,,gray,flipped triangle
0.0,1.0,1.0,0.0,5.0,5.0,415.5498159998387,8.0,0.0,part_2,go,250.0,250.0,1.0,,,,,,,,,magenta,square
0.0,8.0,4.0,1.0,5.0,5.0,436.1371230006625,8.0,0.0,part_2,go,250.0,250.0,1.0,,,,,,,,,white,triangle
0.0,4.0,4.0,0.0,6.0,6.0,546.0205469998982,8.0,0.0,part_2,go,250.0,250.0,1.0,,,,,,,,,cyan,hexagon
0.0,6.0,2.0,1.0,6.0,0.0,0.0,8.0,0.0,part_2,stop,250.0,250.0,4.0,,,,,,,,,green,cross
0.0,8.0,4.0,1.0,5.0,5.0,326.5456290000657,8.0,0.0,part_2,stop,250.0,300.0,3.0,,,,,,,,,white,triangle
0.0,8.0,4.0,1.0,5.0,5.0,444.1539150002427,8.0,0.0,part_2,go,200.0,300.0,1.0,,,,,,,,,white,triangle
0.0,5.0,1.0,1.0,5.0,0.0,0.0,8.0,0.0,part_2,stop,200.0,300.0,4.0,,,,,,,,,blue,I
0.0,5.0,1.0,1.0,5.0,5.0,324.5568470001672,8.0,0.0,part_2,go,250.0,300.0,1.0,,,,,,,,,blue,I
0.0,8.0,4.0,1.0,5.0,0.0,0.0,8.0,0.0,part_2,stop,250.0,300.0,4.0,,,,,,,,,white,triangle
0.0,1.0,1.0,0.0,6.0,6.0,330.6114750002962,8.0,0.0,part_2,go,300.0,300.0,1.0,,,,,,,,,magenta,square
0.0,2.0,2.0,0.0,5.0,5.0,370.8809670006303,8.0,0.0,part_2,go,300.0,300.0,1.0,,,,,,,,,yellow,diamond
0.0,3.0,3.0,0.0,5.0,5.0,473.7171520000629,8.0,0.0,part_2,go,300.0,300.0,1.0,,,,,,,,,orange,circle
0.0,4.0,4.0,0.0,5.0,5.0,365.7825540003614,8.0,0.0,part_2,go,300.0,300.0,1.0,,,,,,,,,cyan,hexagon
0.0,8.0,4.0,1.0,6.0,0.0,0.0,8.0,0.0,part_2,stop,300.0,300.0,4.0,,,,,,,,,white,triangle
0.0,5.0,1.0,1.0,6.0,6.0,459.0461730003881,8.0,0.0,part_2,stop,300.0,350.0,3.0,,,,,,,,,blue,I
0.0,5.0,1.0,1.0,7.0,4.0,3041.029223000806,1.0,2.0,part_3,go,0.0,0.0,0.0,132.0,3.0,220.0,176.0,264.0,132.0,44.0,88.0,blue,I
0.0,2.0,2.0,0.0,7.0,3.0,3088.2528250003816,1.0,1.0,part_3,go,0.0,0.0,0.0,108.0,2.0,216.0,54.0,108.0,162.0,270.0,324.0,yellow,diamond
0.0,4.0,4.0,0.0,7.0,2.0,2418.090726000628,1.0,1.0,part_3,go,0.0,0.0,0.0,204.0,6.0,170.0,204.0,34.0,102.0,136.0,68.0,cyan,hexagon
0.0,7.0,3.0,1.0,7.0,2.0,3306.7188000004535,1.0,1.0,part_3,go,0.0,0.0,0.0,54.0,1.0,162.0,54.0,324.0,270.0,108.0,216.0,gray,flipped triangle
0.0,6.0,2.0,1.0,7.0,5.0,3430.291656999543,1.0,1.0,part_3,go,0.0,0.0,0.0,216.0,4.0,54.0,108.0,162.0,324.0,216.0,270.0,green,cross
0.0,3.0,3.0,0.0,7.0,5.0,1927.9346040002563,1.0,1.0,part_3,go,0.0,0.0,0.0,170.0,5.0,204.0,34.0,102.0,68.0,170.0,136.0,orange,circle
0.0,2.0,2.0,0.0,7.0,5.0,4395.910608999657,1.0,1.0,part_3,go,0.0,0.0,0.0,294.0,6.0,147.0,98.0,196.0,49.0,294.0,245.0,yellow,diamond
0.0,1.0,1.0,0.0,7.0,4.0,3337.4888999996983,1.0,1.0,part_3,go,0.0,0.0,0.0,220.0,5.0,176.0,44.0,132.0,220.0,88.0,264.0,magenta,square
0.0,5.0,1.0,1.0,7.0,1.0,2528.07935599958,1.0,1.0,part_3,go,0.0,0.0,0.0,204.0,6.0,204.0,170.0,136.0,34.0,102.0,68.0,blue,I
0.0,6.0,2.0,1.0,7.0,5.0,2328.602323999803,1.0,1.0,part_3,go,0.0,0.0,0.0,132.0,3.0,220.0,264.0,44.0,176.0,132.0,88.0,green,cross
0.0,1.0,1.0,0.0,7.0,2.0,2084.902687000067,1.0,1.0,part_3,go,0.0,0.0,0.0,98.0,2.0,245.0,98.0,294.0,196.0,49.0,147.0,magenta,square
0.0,4.0,4.0,0.0,7.0,3.0,1963.3724059995077,1.0,1.0,part_3,go,0.0,0.0,0.0,117.0,3.0,234.0,39.0,117.0,156.0,195.0,78.0,cyan,hexagon
0.0,5.0,1.0,1.0,7.0,5.0,1468.0291340000622,1.0,1.0,part_3,go,0.0,0.0,0.0,156.0,4.0,39.0,195.0,234.0,117.0,156.0,78.0,blue,I
0.0,3.0,3.0,0.0,7.0,4.0,1349.1938799998024,1.0,1.0,part_3,go,0.0,0.0,0.0,98.0,2.0,49.0,245.0,294.0,98.0,147.0,196.0,orange,circle
0.0,3.0,3.0,0.0,7.0,2.0,2491.2203329995464,1.0,1.0,part_3,go,0.0,0.0,0.0,117.0,3.0,39.0,117.0,156.0,195.0,234.0,78.0,orange,circle
0.0,8.0,4.0,1.0,7.0,5.0,1970.30383099991,1.0,1.0,part_3,go,0.0,0.0,0.0,102.0,3.0,68.0,204.0,34.0,136.0,102.0,170.0,white,triangle
0.0,2.0,2.0,0.0,7.0,3.0,1211.190395999438,1.0,1.0,part_3,go,0.0,0.0,0.0,156.0,4.0,117.0,195.0,156.0,234.0,78.0,39.0,yellow,diamond
0.0,2.0,2.0,0.0,7.0,4.0,1374.6532289997049,1.0,1.0,part_3,go,0.0,0.0,0.0,195.0,5.0,117.0,78.0,156.0,195.0,39.0,234.0,yellow,diamond
0.0,3.0,3.0,0.0,7.0,2.0,2125.038023000343,1.0,1.0,part_3,go,0.0,0.0,0.0,156.0,4.0,195.0,156.0,234.0,39.0,117.0,78.0,orange,circle
0.0,2.0,2.0,0.0,7.0,6.0,1855.3479230004089,1.0,1.0,part_3,go,0.0,0.0,0.0,132.0,3.0,88.0,176.0,220.0,44.0,264.0,132.0,yellow,diamond
0.0,3.0,3.0,0.0,7.0,4.0,1402.499775999786,2.0,1.0,part_3,go,0.0,0.0,0.0,216.0,4.0,108.0,270.0,54.0,216.0,162.0,324.0,orange,circle
0.0,1.0,1.0,0.0,7.0,6.0,2409.503355000197,2.0,1.0,part_3,go,0.0,0.0,0.0,102.0,3.0,68.0,34.0,170.0,204.0,136.0,102.0,magenta,square
0.0,7.0,3.0,1.0,7.0,2.0,1220.1207120006077,2.0,1.0,part_3,go,0.0,0.0,0.0,176.0,4.0,88.0,176.0,264.0,132.0,44.0,220.0,gray,flipped triangle
0.0,7.0,3.0,1.0,7.0,4.0,1221.95292699962,2.0,1.0,part_3,go,0.0,0.0,0.0,196.0,4.0,147.0,49.0,294.0,196.0,245.0,98.0,gray,flipped triangle
0.0,2.0,2.0,0.0,7.0,3.0,2272.0413209999606,2.0,1.0,part_3,go,0.0,0.0,0.0,196.0,4.0,147.0,294.0,196.0,245.0,98.0,49.0,yellow,diamond
0.0,4.0,4.0,0.0,7.0,1.0,1317.3782219992063,2.0,1.0,part_3,go,0.0,0.0,0.0,220.0,5.0,220.0,88.0,44.0,132.0,264.0,176.0,cyan,hexagon
0.0,3.0,3.0,0.0,7.0,6.0,1267.1680129997185,2.0,1.0,part_3,go,0.0,0.0,0.0,132.0,3.0,44.0,264.0,176.0,88.0,220.0,132.0,orange,circle
0.0,8.0,4.0,1.0,7.0,2.0,1456.514868999875,2.0,1.0,part_3,go,0.0,0.0,0.0,98.0,2.0,147.0,98.0,49.0,196.0,245.0,294.0,white,triangle
0.0,7.0,3.0,1.0,7.0,5.0,1072.0512919997418,2.0,1.0,part_3,go,0.0,0.0,0.0,68.0,2.0,204.0,34.0,170.0,102.0,68.0,136.0,gray,flipped triangle
0.0,8.0,4.0,1.0,7.0,1.0,1607.8105360002155,2.0,1.0,part_3,go,0.0,0.0,0.0,132.0,3.0,132.0,44.0,176.0,88.0,264.0,220.0,white,triangle
0.0,4.0,4.0,0.0,7.0,2.0,1260.9507260003738,2.0,1.0,part_3,go,0.0,0.0,0.0,204.0,6.0,102.0,204.0,34.0,136.0,68.0,170.0,cyan,hexagon
0.0,1.0,1.0,0.0,7.0,4.0,1603.3463209996626,2.0,1.0,part_3,go,0.0,0.0,0.0,156.0,4.0,195.0,78.0,117.0,156.0,234.0,39.0,magenta,square
0.0,5.0,1.0,1.0,7.0,2.0,1247.787631000392,2.0,1.0,part_3,go,0.0,0.0,0.0,117.0,3.0,78.0,117.0,234.0,195.0,39.0,156.0,blue,I
0.0,5.0,1.0,1.0,7.0,6.0,2406.256299999768,2.0,1.0,part_3,go,0.0,0.0,0.0,324.0,6.0,216.0,270.0,54.0,108.0,162.0,324.0,blue,I
0.0,6.0,2.0,1.0,7.0,2.0,1404.3151449996003,2.0,1.0,part_3,go,0.0,0.0,0.0,156.0,4.0,39.0,156.0,234.0,117.0,195.0,78.0,green,cross
0.0,1.0,1.0,0.0,7.0,3.0,1228.6367450005855,2.0,1.0,part_3,go,0.0,0.0,0.0,156.0,4.0,78.0,39.0,156.0,234.0,117.0,195.0,magenta,square
0.0,8.0,4.0,1.0,7.0,1.0,898.1490049991407,2.0,1.0,part_3,go,0.0,0.0,0.0,170.0,5.0,170.0,204.0,34.0,136.0,102.0,68.0,white,triangle
0.0,3.0,3.0,0.0,7.0,5.0,1287.287402000402,2.0,1.0,part_3,go,0.0,0.0,0.0,44.0,1.0,264.0,132.0,220.0,176.0,44.0,88.0,orange,circle
0.0,2.0,2.0,0.0,7.0,5.0,1505.2377299998625,2.0,1.0,part_3,go,0.0,0.0,0.0,162.0,3.0,270.0,324.0,108.0,54.0,162.0,216.0,yellow,diamond
0.0,8.0,4.0,1.0,7.0,2.0,1937.415233000138,2.0,1.0,part_3,go,0.0,0.0,0.0,147.0,3.0,196.0,147.0,245.0,49.0,294.0,98.0,white,triangle
0.0,2.0,2.0,0.0,7.0,4.0,986.3079409997226,3.0,1.0,part_3,go,0.0,0.0,0.0,136.0,4.0,34.0,68.0,170.0,136.0,102.0,204.0,yellow,diamond
0.0,5.0,1.0,1.0,7.0,3.0,2298.136974000045,3.0,1.0,part_3,go,0.0,0.0,0.0,220.0,5.0,132.0,44.0,220.0,176.0,264.0,88.0,blue,I
0.0,6.0,2.0,1.0,7.0,4.0,1046.3000830004603,3.0,1.0,part_3,go,0.0,0.0,0.0,204.0,6.0,136.0,34.0,68.0,204.0,102.0,170.0,green,cross
0.0,6.0,2.0,1.0,7.0,3.0,1107.6320689999193,3.0,1.0,part_3,go,0.0,0.0,0.0,170.0,5.0,136.0,68.0,170.0,204.0,102.0,34.0,green,cross
0.0,8.0,4.0,1.0,7.0,3.0,1491.15222599994,3.0,1.0,part_3,go,0.0,0.0,0.0,108.0,2.0,270.0,216.0,108.0,324.0,54.0,162.0,white,triangle
0.0,3.0,3.0,0.0,7.0,3.0,1123.5830779996832,3.0,1.0,part_3,go,0.0,0.0,0.0,49.0,1.0,245.0,98.0,49.0,147.0,196.0,294.0,orange,circle
0.0,6.0,2.0,1.0,7.0,5.0,1365.8611780001593,3.0,1.0,part_3,go,0.0,0.0,0.0,196.0,4.0,245.0,49.0,147.0,294.0,196.0,98.0,green,cross
0.0,8.0,4.0,1.0,7.0,3.0,1622.5259639995784,3.0,1.0,part_3,go,0.0,0.0,0.0,162.0,3.0,108.0,324.0,162.0,216.0,270.0,54.0,white,triangle
0.0,3.0,3.0,0.0,7.0,2.0,942.1424870006376,3.0,1.0,part_3,go,0.0,0.0,0.0,270.0,5.0,54.0,270.0,162.0,108.0,216.0,324.0,orange,circle
0.0,4.0,4.0,0.0,7.0,5.0,872.5445519994537,3.0,1.0,part_3,go,0.0,0.0,0.0,176.0,4.0,88.0,132.0,220.0,44.0,176.0,264.0,cyan,hexagon
0.0,1.0,1.0,0.0,7.0,2.0,1405.3987240004062,3.0,1.0,part_3,go,0.0,0.0,0.0,108.0,2.0,270.0,108.0,162.0,54.0,216.0,324.0,magenta,square
0.0,1.0,1.0,0.0,7.0,2.0,732.5076079996506,3.0,1.0,part_3,go,0.0,0.0,0.0,132.0,3.0,176.0,132.0,44.0,264.0,220.0,88.0,magenta,square
0.0,4.0,4.0,0.0,7.0,5.0,1022.9666670002189,3.0,1.0,part_3,go,0.0,0.0,0.0,196.0,4.0,147.0,98.0,49.0,294.0,196.0,245.0,cyan,hexagon
0.0,7.0,3.0,1.0,7.0,4.0,1385.8013159997429,3.0,1.0,part_3,go,0.0,0.0,0.0,88.0,2.0,44.0,176.0,220.0,88.0,264.0,132.0,gray,flipped triangle
0.0,4.0,4.0,0.0,7.0,5.0,1305.6424469996273,3.0,1.0,part_3,go,0.0,0.0,0.0,117.0,3.0,156.0,78.0,234.0,39.0,117.0,195.0,cyan,hexagon
0.0,6.0,2.0,1.0,7.0,2.0,756.9803409996894,3.0,1.0,part_3,go,0.0,0.0,0.0,294.0,6.0,147.0,294.0,49.0,196.0,98.0,245.0,green,cross
0.0,7.0,3.0,1.0,7.0,5.0,959.30426599989,3.0,1.0,part_3,go,0.0,0.0,0.0,78.0,2.0,234.0,117.0,39.0,156.0,78.0,195.0,gray,flipped triangle
0.0,4.0,4.0,0.0,7.0,2.0,1228.8811079997686,3.0,1.0,part_3,go,0.0,0.0,0.0,162.0,3.0,324.0,162.0,270.0,54.0,216.0,108.0,cyan,hexagon
0.0,5.0,1.0,1.0,7.0,5.0,1288.7727530005575,3.0,1.0,part_3,go,0.0,0.0,0.0,245.0,5.0,196.0,49.0,147.0,294.0,245.0,98.0,blue,I
0.0,7.0,3.0,1.0,7.0,4.0,1105.2533140000378,3.0,1.0,part_3,go,0.0,0.0,0.0,78.0,2.0,234.0,39.0,156.0,78.0,195.0,117.0,gray,flipped triangle
0.0,6.0,2.0,1.0,7.0,1.0,905.1536189999752,4.0,1.0,part_3,go,0.0,0.0,0.0,234.0,6.0,234.0,39.0,78.0,156.0,117.0,195.0,green,cross
0.0,8.0,4.0,1.0,7.0,5.0,1340.4079539996021,4.0,1.0,part_3,go,0.0,0.0,0.0,264.0,6.0,88.0,176.0,220.0,44.0,264.0,132.0,white,triangle
0.0,7.0,3.0,1.0,7.0,2.0,1320.4021860001376,4.0,1.0,part_3,go,0.0,0.0,0.0,162.0,3.0,54.0,162.0,324.0,108.0,270.0,216.0,gray,flipped triangle
0.0,7.0,3.0,1.0,7.0,5.0,1353.7827080008356,4.0,1.0,part_3,go,0.0,0.0,0.0,34.0,1.0,68.0,204.0,170.0,136.0,34.0,102.0,gray,flipped triangle
0.0,1.0,1.0,0.0,7.0,2.0,621.1202929998763,4.0,1.0,part_3,go,0.0,0.0,0.0,102.0,3.0,136.0,102.0,204.0,34.0,170.0,68.0,magenta,square
0.0,1.0,1.0,0.0,7.0,2.0,590.8282159998635,4.0,1.0,part_3,go,0.0,0.0,0.0,108.0,2.0,324.0,108.0,54.0,216.0,162.0,270.0,magenta,square
0.0,2.0,2.0,0.0,7.0,5.0,879.4741949996023,4.0,1.0,part_3,go,0.0,0.0,0.0,136.0,4.0,170.0,68.0,102.0,34.0,136.0,204.0,yellow,diamond
0.0,8.0,4.0,1.0,7.0,3.0,712.0545320003657,4.0,1.0,part_3,go,0.0,0.0,0.0,78.0,2.0,39.0,117.0,78.0,195.0,234.0,156.0,white,triangle
0.0,6.0,2.0,1.0,7.0,5.0,605.1776020003672,4.0,1.0,part_3,go,0.0,0.0,0.0,176.0,4.0,88.0,44.0,220.0,264.0,176.0,132.0,green,cross
0.0,2.0,2.0,0.0,7.0,2.0,832.4344779994135,4.0,1.0,part_3,go,0.0,0.0,0.0,44.0,1.0,264.0,44.0,220.0,132.0,88.0,176.0,yellow,diamond
0.0,1.0,1.0,0.0,7.0,3.0,1522.5358540001253,4.0,1.0,part_3,go,0.0,0.0,0.0,196.0,4.0,245.0,49.0,196.0,147.0,294.0,98.0,magenta,square
0.0,4.0,4.0,0.0,7.0,5.0,1211.875097000302,4.0,1.0,part_3,go,0.0,0.0,0.0,54.0,1.0,216.0,162.0,270.0,108.0,54.0,324.0,cyan,hexagon
0.0,7.0,3.0,1.0,7.0,5.0,827.0164989999103,4.0,1.0,part_3,go,0.0,0.0,0.0,49.0,1.0,98.0,245.0,196.0,147.0,49.0,294.0,gray,flipped triangle
0.0,5.0,1.0,1.0,7.0,6.0,1176.350165000258,4.0,1.0,part_3,go,0.0,0.0,0.0,136.0,4.0,102.0,170.0,68.0,34.0,204.0,136.0,blue,I
0.0,4.0,4.0,0.0,7.0,5.0,689.6903130000283,4.0,1.0,part_3,go,0.0,0.0,0.0,245.0,5.0,98.0,294.0,147.0,196.0,245.0,49.0,cyan,hexagon
0.0,3.0,3.0,0.0,7.0,4.0,815.4592649998449,4.0,1.0,part_3,go,0.0,0.0,0.0,68.0,2.0,136.0,204.0,102.0,68.0,170.0,34.0,orange,circle
0.0,5.0,1.0,1.0,7.0,4.0,1060.3128410002682,4.0,1.0,part_3,go,0.0,0.0,0.0,108.0,2.0,270.0,162.0,324.0,108.0,54.0,216.0,blue,I
0.0,5.0,1.0,1.0,7.0,5.0,1605.669911000405,4.0,1.0,part_3,go,0.0,0.0,0.0,245.0,5.0,147.0,49.0,98.0,294.0,245.0,196.0,blue,I
0.0,6.0,2.0,1.0,7.0,2.0,721.7990940007439,4.0,1.0,part_3,go,0.0,0.0,0.0,324.0,6.0,108.0,324.0,54.0,216.0,270.0,162.0,green,cross
0.0,8.0,4.0,1.0,7.0,6.0,903.559223999764,4.0,1.0,part_3,go,0.0,0.0,0.0,195.0,5.0,234.0,39.0,78.0,117.0,156.0,195.0,white,triangle
