raw_reward_magnitude,stim_reward,stepwise_reward_magnitude,paired_with_stopping,stim_location,response,reaction_time,block,num_trial_presentations,which_phase,stop_signal_trial_type,left_SSD,right_SSD,accuracy,chosen_bidding_amount,chosen_bidding_level,possible_bid_1,possible_bid_2,possible_bid_3,possible_bid_4,possible_bid_5,possible_bid_6,color_text,shape_text
87.0,2.0,2.0,0.0,1.0,1.0,537.556615000085,1.0,1.0,phase_1,,,,,,,,,,,,,gray,hexagon
0.0,3.0,0.0,0.0,4.0,4.0,347.3688749998018,1.0,1.0,phase_1,,,,,,,,,,,,,blue,diamond
71.0,1.0,1.0,0.0,3.0,3.0,323.2423419999577,1.0,1.0,phase_1,,,,,,,,,,,,,yellow,circle
0.0,4.0,0.0,0.0,4.0,4.0,316.8945349998466,1.0,1.0,phase_1,,,,,,,,,,,,,magenta,I
0.0,3.0,0.0,0.0,3.0,3.0,293.5831250001683,1.0,1.0,phase_1,,,,,,,,,,,,,blue,diamond
90.0,2.0,2.0,0.0,2.0,2.0,302.7916680000544,1.0,1.0,phase_1,,,,,,,,,,,,,gray,hexagon
379.0,4.0,4.0,0.0,2.0,2.0,324.9154490001729,1.0,1.0,phase_1,,,,,,,,,,,,,magenta,I
111.0,6.0,2.0,1.0,2.0,2.0,297.9168480001135,1.0,1.0,phase_1,,,,,,,,,,,,,green,flipped triangle
422.0,8.0,4.0,1.0,1.0,1.0,360.2146090001952,1.0,1.0,phase_1,,,,,,,,,,,,,cyan,cross
31.0,5.0,1.0,1.0,3.0,3.0,310.0716960000227,1.0,1.0,phase_1,,,,,,,,,,,,,orange,triangle
115.0,2.0,2.0,0.0,4.0,4.0,304.6510639999269,1.0,1.0,phase_1,,,,,,,,,,,,,gray,hexagon
48.0,5.0,1.0,1.0,4.0,4.0,330.5114810000304,1.0,1.0,phase_1,,,,,,,,,,,,,orange,triangle
0.0,4.0,0.0,0.0,2.0,2.0,341.5340440001273,1.0,1.0,phase_1,,,,,,,,,,,,,magenta,I
80.0,6.0,2.0,1.0,4.0,4.0,317.2667579999597,1.0,1.0,phase_1,,,,,,,,,,,,,green,flipped triangle
0.0,7.0,0.0,1.0,3.0,3.0,340.4706819999319,1.0,1.0,phase_1,,,,,,,,,,,,,white,square
0.0,1.0,0.0,0.0,2.0,2.0,301.9276130000889,1.0,1.0,phase_1,,,,,,,,,,,,,yellow,circle
60.0,5.0,1.0,1.0,4.0,4.0,356.9403280000642,1.0,1.0,phase_1,,,,,,,,,,,,,orange,triangle
103.0,2.0,2.0,0.0,4.0,4.0,354.584751999937,1.0,1.0,phase_1,,,,,,,,,,,,,gray,hexagon
0.0,5.0,0.0,1.0,4.0,4.0,316.2688620000153,1.0,1.0,phase_1,,,,,,,,,,,,,orange,triangle
222.0,7.0,3.0,1.0,3.0,3.0,339.2580849999831,1.0,1.0,phase_1,,,,,,,,,,,,,white,square
196.0,7.0,3.0,1.0,2.0,2.0,348.1302409998079,1.0,1.0,phase_1,,,,,,,,,,,,,white,square
0.0,6.0,0.0,1.0,4.0,4.0,315.8514469998863,1.0,1.0,phase_1,,,,,,,,,,,,,green,flipped triangle
196.0,3.0,3.0,0.0,1.0,1.0,357.9223790000014,1.0,1.0,phase_1,,,,,,,,,,,,,blue,diamond
75.0,5.0,1.0,1.0,1.0,1.0,341.7929489999096,1.0,1.0,phase_1,,,,,,,,,,,,,orange,triangle
0.0,7.0,0.0,1.0,3.0,3.0,309.696600000052,1.0,1.0,phase_1,,,,,,,,,,,,,white,square
84.0,2.0,2.0,0.0,4.0,4.0,332.9931890000353,1.0,1.0,phase_1,,,,,,,,,,,,,gray,hexagon
216.0,7.0,3.0,1.0,3.0,3.0,300.4760670000905,1.0,1.0,phase_1,,,,,,,,,,,,,white,square
121.0,6.0,2.0,1.0,4.0,4.0,314.2744540000421,1.0,1.0,phase_1,,,,,,,,,,,,,green,flipped triangle
66.0,5.0,1.0,1.0,1.0,1.0,375.7648539999536,1.0,1.0,phase_1,,,,,,,,,,,,,orange,triangle
33.0,1.0,1.0,0.0,4.0,4.0,298.1860909999341,1.0,1.0,phase_1,,,,,,,,,,,,,yellow,circle
424.0,8.0,4.0,1.0,4.0,4.0,267.0381299999462,1.0,1.0,phase_1,,,,,,,,,,,,,cyan,cross
376.0,8.0,4.0,1.0,3.0,3.0,268.5359000001881,1.0,1.0,phase_1,,,,,,,,,,,,,cyan,cross
400.0,4.0,4.0,0.0,1.0,1.0,341.8780529998457,1.0,1.0,phase_1,,,,,,,,,,,,,magenta,I
209.0,3.0,3.0,0.0,4.0,4.0,334.044280000171,1.0,2.0,phase_1,,,,,,,,,,,,,blue,diamond
0.0,6.0,0.0,1.0,2.0,2.0,391.0381800001232,1.0,1.0,phase_1,,,,,,,,,,,,,green,flipped triangle
0.0,7.0,0.0,1.0,4.0,4.0,327.7113760000247,1.0,1.0,phase_1,,,,,,,,,,,,,white,square
49.0,1.0,1.0,0.0,4.0,4.0,331.0970049999469,1.0,1.0,phase_1,,,,,,,,,,,,,yellow,circle
0.0,8.0,0.0,1.0,3.0,3.0,312.5976890000856,1.0,1.0,phase_1,,,,,,,,,,,,,cyan,cross
0.0,8.0,0.0,1.0,3.0,3.0,295.3044139999292,1.0,1.0,phase_1,,,,,,,,,,,,,cyan,cross
115.0,6.0,2.0,1.0,3.0,3.0,281.5081549999831,1.0,1.0,phase_1,,,,,,,,,,,,,green,flipped triangle
34.0,5.0,1.0,1.0,2.0,2.0,337.7353650000714,1.0,1.0,phase_1,,,,,,,,,,,,,orange,triangle
68.0,5.0,1.0,1.0,1.0,1.0,340.8924589998605,1.0,1.0,phase_1,,,,,,,,,,,,,orange,triangle
42.0,5.0,1.0,1.0,1.0,1.0,421.6890089999197,1.0,1.0,phase_1,,,,,,,,,,,,,orange,triangle
49.0,5.0,1.0,1.0,4.0,4.0,362.1892539999862,1.0,1.0,phase_1,,,,,,,,,,,,,orange,triangle
394.0,8.0,4.0,1.0,2.0,2.0,411.4553599999908,1.0,1.0,phase_1,,,,,,,,,,,,,cyan,cross
0.0,3.0,0.0,0.0,4.0,4.0,325.3848510000807,1.0,1.0,phase_1,,,,,,,,,,,,,blue,diamond
79.0,6.0,2.0,1.0,4.0,4.0,372.9769970000234,1.0,1.0,phase_1,,,,,,,,,,,,,green,flipped triangle
380.0,4.0,4.0,0.0,1.0,1.0,375.9453909999593,1.0,1.0,phase_1,,,,,,,,,,,,,magenta,I
393.0,8.0,4.0,1.0,3.0,3.0,284.9531909998859,1.0,1.0,phase_1,,,,,,,,,,,,,cyan,cross
119.0,6.0,2.0,1.0,3.0,3.0,424.0609980001864,1.0,1.0,phase_1,,,,,,,,,,,,,green,flipped triangle
0.0,5.0,0.0,1.0,1.0,1.0,400.4512989999966,1.0,1.0,phase_1,,,,,,,,,,,,,orange,triangle
37.0,1.0,1.0,0.0,4.0,4.0,467.2266140000829,1.0,1.0,phase_1,,,,,,,,,,,,,yellow,circle
107.0,6.0,2.0,1.0,2.0,2.0,290.438709,1.0,1.0,phase_1,,,,,,,,,,,,,green,flipped triangle
82.0,6.0,2.0,1.0,3.0,3.0,298.6460460001581,1.0,1.0,phase_1,,,,,,,,,,,,,green,flipped triangle
0.0,5.0,0.0,1.0,2.0,2.0,342.628791999914,1.0,1.0,phase_1,,,,,,,,,,,,,orange,triangle
33.0,5.0,1.0,1.0,3.0,3.0,277.9933399999663,1.0,1.0,phase_1,,,,,,,,,,,,,orange,triangle
216.0,7.0,3.0,1.0,2.0,2.0,309.7912050000104,1.0,1.0,phase_1,,,,,,,,,,,,,white,square
420.0,8.0,4.0,1.0,3.0,3.0,267.2148520000519,1.0,1.0,phase_1,,,,,,,,,,,,,cyan,cross
69.0,1.0,1.0,0.0,3.0,3.0,286.3314539999919,1.0,1.0,phase_1,,,,,,,,,,,,,yellow,circle
0.0,5.0,0.0,1.0,1.0,1.0,338.2562369999959,1.0,1.0,phase_1,,,,,,,,,,,,,orange,triangle
37.0,5.0,1.0,1.0,4.0,4.0,313.2007430001522,1.0,1.0,phase_1,,,,,,,,,,,,,orange,triangle
101.0,2.0,2.0,0.0,1.0,1.0,385.41995699984,1.0,1.0,phase_1,,,,,,,,,,,,,gray,hexagon
91.0,2.0,2.0,0.0,3.0,3.0,292.5252390000423,1.0,1.0,phase_1,,,,,,,,,,,,,gray,hexagon
121.0,6.0,2.0,1.0,1.0,1.0,306.1835589999191,1.0,1.0,phase_1,,,,,,,,,,,,,green,flipped triangle
0.0,5.0,0.0,1.0,2.0,2.0,268.7597240001196,1.0,1.0,phase_1,,,,,,,,,,,,,orange,triangle
408.0,4.0,4.0,0.0,1.0,1.0,328.2011209998927,1.0,1.0,phase_1,,,,,,,,,,,,,magenta,I
196.0,3.0,3.0,0.0,4.0,4.0,296.6678309999224,1.0,1.0,phase_1,,,,,,,,,,,,,blue,diamond
87.0,6.0,2.0,1.0,2.0,2.0,332.3850199999469,1.0,1.0,phase_1,,,,,,,,,,,,,green,flipped triangle
0.0,6.0,0.0,1.0,4.0,4.0,344.9698360000184,1.0,1.0,phase_1,,,,,,,,,,,,,green,flipped triangle
189.0,3.0,3.0,0.0,1.0,1.0,365.257032000045,1.0,1.0,phase_1,,,,,,,,,,,,,blue,diamond
211.0,7.0,3.0,1.0,2.0,2.0,315.9971400000358,1.0,1.0,phase_1,,,,,,,,,,,,,white,square
189.0,7.0,3.0,1.0,2.0,2.0,327.6851749999423,1.0,1.0,phase_1,,,,,,,,,,,,,white,square
54.0,1.0,1.0,0.0,2.0,2.0,355.7002210000064,1.0,1.0,phase_1,,,,,,,,,,,,,yellow,circle
389.0,8.0,4.0,1.0,3.0,3.0,361.57975799983427,1.0,1.0,phase_1,,,,,,,,,,,,,cyan,cross
220.0,7.0,3.0,1.0,2.0,2.0,447.3886649998349,1.0,1.0,phase_1,,,,,,,,,,,,,white,square
0.0,7.0,0.0,1.0,4.0,4.0,458.6385039999641,1.0,1.0,phase_1,,,,,,,,,,,,,white,square
34.0,1.0,1.0,0.0,1.0,1.0,327.8449869999349,1.0,1.0,phase_1,,,,,,,,,,,,,yellow,circle
385.0,8.0,4.0,1.0,2.0,2.0,293.3252589998574,1.0,1.0,phase_1,,,,,,,,,,,,,cyan,cross
418.0,4.0,4.0,0.0,1.0,1.0,338.0175610000151,1.0,1.0,phase_1,,,,,,,,,,,,,magenta,I
91.0,6.0,2.0,1.0,1.0,1.0,358.2087719998981,1.0,1.0,phase_1,,,,,,,,,,,,,green,flipped triangle
0.0,5.0,0.0,1.0,1.0,1.0,324.0859949999048,1.0,1.0,phase_1,,,,,,,,,,,,,orange,triangle
99.0,6.0,2.0,1.0,2.0,2.0,311.7531800000961,1.0,1.0,phase_1,,,,,,,,,,,,,green,flipped triangle
26.0,1.0,1.0,0.0,2.0,2.0,319.9592949999896,1.0,1.0,phase_1,,,,,,,,,,,,,yellow,circle
189.0,7.0,3.0,1.0,3.0,3.0,300.860891000184,1.0,1.0,phase_1,,,,,,,,,,,,,white,square
62.0,1.0,1.0,0.0,1.0,1.0,353.5192990000269,1.0,1.0,phase_1,,,,,,,,,,,,,yellow,circle
0.0,7.0,0.0,1.0,3.0,3.0,311.4305189999413,1.0,1.0,phase_1,,,,,,,,,,,,,white,square
41.0,5.0,1.0,1.0,2.0,2.0,338.2096870000168,1.0,1.0,phase_1,,,,,,,,,,,,,orange,triangle
57.0,1.0,1.0,0.0,2.0,2.0,285.4607269998723,1.0,1.0,phase_1,,,,,,,,,,,,,yellow,circle
67.0,5.0,1.0,1.0,1.0,1.0,279.3045449998317,1.0,1.0,phase_1,,,,,,,,,,,,,orange,triangle
403.0,4.0,4.0,0.0,3.0,3.0,318.0621569999857,1.0,1.0,phase_1,,,,,,,,,,,,,magenta,I
399.0,4.0,4.0,0.0,2.0,2.0,373.2858470000337,1.0,1.0,phase_1,,,,,,,,,,,,,magenta,I
0.0,3.0,0.0,0.0,1.0,1.0,364.9300800000219,1.0,1.0,phase_1,,,,,,,,,,,,,blue,diamond
85.0,6.0,2.0,1.0,3.0,3.0,295.6933320001553,1.0,1.0,phase_1,,,,,,,,,,,,,green,flipped triangle
390.0,8.0,4.0,1.0,4.0,4.0,333.9562740000019,1.0,1.0,phase_1,,,,,,,,,,,,,cyan,cross
0.0,5.0,0.0,1.0,1.0,1.0,370.2790930001356,1.0,1.0,phase_1,,,,,,,,,,,,,orange,triangle
421.0,8.0,4.0,1.0,1.0,1.0,385.5082309999034,1.0,1.0,phase_1,,,,,,,,,,,,,cyan,cross
0.0,3.0,0.0,0.0,1.0,1.0,294.1768240000328,1.0,1.0,phase_1,,,,,,,,,,,,,blue,diamond
79.0,2.0,2.0,0.0,3.0,3.0,350.40457299987787,1.0,2.0,phase_1,,,,,,,,,,,,,gray,hexagon
0.0,2.0,0.0,0.0,3.0,3.0,321.6575619999275,1.0,1.0,phase_1,,,,,,,,,,,,,gray,hexagon
0.0,8.0,0.0,1.0,4.0,4.0,373.9404899999954,1.0,1.0,phase_1,,,,,,,,,,,,,cyan,cross
57.0,1.0,1.0,0.0,1.0,1.0,413.5200100001839,2.0,1.0,phase_1,,,,,,,,,,,,,yellow,circle
68.0,1.0,1.0,0.0,2.0,2.0,297.1302270000251,2.0,1.0,phase_1,,,,,,,,,,,,,yellow,circle
393.0,4.0,4.0,0.0,3.0,3.0,326.834609999878,2.0,1.0,phase_1,,,,,,,,,,,,,magenta,I
69.0,5.0,1.0,1.0,1.0,1.0,351.04880699987,2.0,1.0,phase_1,,,,,,,,,,,,,orange,triangle
422.0,4.0,4.0,0.0,4.0,4.0,404.6034579998832,2.0,1.0,phase_1,,,,,,,,,,,,,magenta,I
67.0,1.0,1.0,0.0,1.0,1.0,329.9764440000672,2.0,1.0,phase_1,,,,,,,,,,,,,yellow,circle
0.0,1.0,0.0,0.0,1.0,1.0,345.2723059999698,2.0,1.0,phase_1,,,,,,,,,,,,,yellow,circle
0.0,3.0,0.0,0.0,3.0,3.0,361.2872849998894,2.0,1.0,phase_1,,,,,,,,,,,,,blue,diamond
70.0,5.0,1.0,1.0,2.0,2.0,309.3042929999683,2.0,1.0,phase_1,,,,,,,,,,,,,orange,triangle
389.0,8.0,4.0,1.0,2.0,2.0,286.1650669999562,2.0,1.0,phase_1,,,,,,,,,,,,,cyan,cross
397.0,4.0,4.0,0.0,4.0,4.0,276.5943260001222,2.0,1.0,phase_1,,,,,,,,,,,,,magenta,I
0.0,2.0,0.0,0.0,1.0,1.0,336.8224790001477,2.0,1.0,phase_1,,,,,,,,,,,,,gray,hexagon
411.0,8.0,4.0,1.0,4.0,4.0,444.0499089998866,2.0,1.0,phase_1,,,,,,,,,,,,,cyan,cross
383.0,4.0,4.0,0.0,4.0,4.0,454.2660120000619,2.0,1.0,phase_1,,,,,,,,,,,,,magenta,I
202.0,3.0,3.0,0.0,1.0,1.0,331.8759989999762,2.0,1.0,phase_1,,,,,,,,,,,,,blue,diamond
383.0,8.0,4.0,1.0,1.0,1.0,324.4609659998332,2.0,1.0,phase_1,,,,,,,,,,,,,cyan,cross
182.0,3.0,3.0,0.0,1.0,1.0,341.0727719999613,2.0,1.0,phase_1,,,,,,,,,,,,,blue,diamond
408.0,8.0,4.0,1.0,2.0,2.0,346.0948709998774,2.0,1.0,phase_1,,,,,,,,,,,,,cyan,cross
204.0,7.0,3.0,1.0,2.0,2.0,298.475192999831,2.0,1.0,phase_1,,,,,,,,,,,,,white,square
222.0,3.0,3.0,0.0,2.0,2.0,321.6510700001436,2.0,1.0,phase_1,,,,,,,,,,,,,blue,diamond
103.0,2.0,2.0,0.0,1.0,1.0,310.1488980000795,2.0,1.0,phase_1,,,,,,,,,,,,,gray,hexagon
28.0,1.0,1.0,0.0,2.0,2.0,280.4636610001125,2.0,1.0,phase_1,,,,,,,,,,,,,yellow,circle
181.0,7.0,3.0,1.0,3.0,3.0,454.8670860001493,2.0,1.0,phase_1,,,,,,,,,,,,,white,square
116.0,6.0,2.0,1.0,3.0,3.0,300.7471539999642,2.0,1.0,phase_1,,,,,,,,,,,,,green,flipped triangle
179.0,3.0,3.0,0.0,3.0,3.0,312.4309170000288,2.0,1.0,phase_1,,,,,,,,,,,,,blue,diamond
376.0,4.0,4.0,0.0,3.0,3.0,328.4799309999471,2.0,1.0,phase_1,,,,,,,,,,,,,magenta,I
0.0,4.0,0.0,0.0,4.0,4.0,313.0630659998132,2.0,1.0,phase_1,,,,,,,,,,,,,magenta,I
62.0,5.0,1.0,1.0,2.0,2.0,301.61347499984,2.0,1.0,phase_1,,,,,,,,,,,,,orange,triangle
58.0,5.0,1.0,1.0,2.0,2.0,299.5503729998745,2.0,1.0,phase_1,,,,,,,,,,,,,orange,triangle
403.0,4.0,4.0,0.0,1.0,1.0,368.3605679998436,2.0,1.0,phase_1,,,,,,,,,,,,,magenta,I
80.0,2.0,2.0,0.0,1.0,1.0,337.5995240000975,2.0,1.0,phase_1,,,,,,,,,,,,,gray,hexagon
409.0,4.0,4.0,0.0,4.0,4.0,354.62483099991,2.0,1.0,phase_1,,,,,,,,,,,,,magenta,I
393.0,4.0,4.0,0.0,3.0,3.0,285.8794200001284,2.0,1.0,phase_1,,,,,,,,,,,,,magenta,I
212.0,3.0,3.0,0.0,1.0,1.0,357.5672130000384,2.0,1.0,phase_1,,,,,,,,,,,,,blue,diamond
119.0,2.0,2.0,0.0,3.0,3.0,326.1180360000253,2.0,1.0,phase_1,,,,,,,,,,,,,gray,hexagon
79.0,6.0,2.0,1.0,2.0,2.0,297.7354449999438,2.0,1.0,phase_1,,,,,,,,,,,,,green,flipped triangle
414.0,8.0,4.0,1.0,1.0,1.0,364.5014989999708,2.0,1.0,phase_1,,,,,,,,,,,,,cyan,cross
195.0,3.0,3.0,0.0,2.0,2.0,287.2318329998506,2.0,1.0,phase_1,,,,,,,,,,,,,blue,diamond
0.0,1.0,0.0,0.0,1.0,1.0,325.443216999929,2.0,1.0,phase_1,,,,,,,,,,,,,yellow,circle
202.0,7.0,3.0,1.0,4.0,4.0,467.7347910001117,2.0,1.0,phase_1,,,,,,,,,,,,,white,square
58.0,1.0,1.0,0.0,1.0,1.0,279.5321669998429,2.0,1.0,phase_1,,,,,,,,,,,,,yellow,circle
70.0,5.0,1.0,1.0,1.0,1.0,312.4856320000617,2.0,1.0,phase_1,,,,,,,,,,,,,orange,triangle
389.0,4.0,4.0,0.0,3.0,3.0,376.3095039998916,2.0,1.0,phase_1,,,,,,,,,,,,,magenta,I
123.0,6.0,2.0,1.0,2.0,2.0,382.3081810000985,2.0,1.0,phase_1,,,,,,,,,,,,,green,flipped triangle
404.0,4.0,4.0,0.0,4.0,4.0,298.7204820001352,2.0,1.0,phase_1,,,,,,,,,,,,,magenta,I
213.0,3.0,3.0,0.0,4.0,4.0,298.6282419999497,2.0,1.0,phase_1,,,,,,,,,,,,,blue,diamond
379.0,8.0,4.0,1.0,4.0,4.0,293.6951720000706,2.0,1.0,phase_1,,,,,,,,,,,,,cyan,cross
216.0,3.0,3.0,0.0,4.0,4.0,358.012121999991,2.0,1.0,phase_1,,,,,,,,,,,,,blue,diamond
219.0,7.0,3.0,1.0,4.0,4.0,308.1649759999436,2.0,1.0,phase_1,,,,,,,,,,,,,white,square
409.0,8.0,4.0,1.0,3.0,3.0,318.1065429998853,2.0,1.0,phase_1,,,,,,,,,,,,,cyan,cross
0.0,7.0,0.0,1.0,2.0,2.0,346.2309880001157,2.0,1.0,phase_1,,,,,,,,,,,,,white,square
0.0,2.0,0.0,0.0,1.0,1.0,356.8249489999289,2.0,1.0,phase_1,,,,,,,,,,,,,gray,hexagon
48.0,5.0,1.0,1.0,2.0,2.0,561.4688739999565,2.0,1.0,phase_1,,,,,,,,,,,,,orange,triangle
93.0,6.0,2.0,1.0,1.0,1.0,346.3919339999393,2.0,1.0,phase_1,,,,,,,,,,,,,green,flipped triangle
60.0,1.0,1.0,0.0,4.0,4.0,263.204776999828,2.0,1.0,phase_1,,,,,,,,,,,,,yellow,circle
421.0,4.0,4.0,0.0,2.0,2.0,310.6372689999261,2.0,1.0,phase_1,,,,,,,,,,,,,magenta,I
0.0,1.0,0.0,0.0,4.0,4.0,297.8053950000685,2.0,1.0,phase_1,,,,,,,,,,,,,yellow,circle
115.0,6.0,2.0,1.0,1.0,1.0,426.8996179998794,2.0,1.0,phase_1,,,,,,,,,,,,,green,flipped triangle
411.0,4.0,4.0,0.0,2.0,2.0,490.4832199999873,2.0,1.0,phase_1,,,,,,,,,,,,,magenta,I
46.0,1.0,1.0,0.0,1.0,1.0,542.6132669999788,2.0,1.0,phase_1,,,,,,,,,,,,,yellow,circle
0.0,1.0,0.0,0.0,3.0,3.0,568.6860340001658,2.0,1.0,phase_1,,,,,,,,,,,,,yellow,circle
0.0,1.0,0.0,0.0,3.0,3.0,325.8115700000417,2.0,1.0,phase_1,,,,,,,,,,,,,yellow,circle
80.0,2.0,2.0,0.0,3.0,3.0,354.6315090000007,2.0,1.0,phase_1,,,,,,,,,,,,,gray,hexagon
37.0,5.0,1.0,1.0,3.0,3.0,292.6194130000112,2.0,1.0,phase_1,,,,,,,,,,,,,orange,triangle
421.0,8.0,4.0,1.0,1.0,1.0,295.8601999998791,2.0,1.0,phase_1,,,,,,,,,,,,,cyan,cross
0.0,4.0,0.0,0.0,3.0,3.0,376.3824019999902,2.0,1.0,phase_1,,,,,,,,,,,,,magenta,I
192.0,3.0,3.0,0.0,1.0,1.0,344.4473849999667,2.0,1.0,phase_1,,,,,,,,,,,,,blue,diamond
0.0,7.0,0.0,1.0,3.0,3.0,334.1514589999406,2.0,1.0,phase_1,,,,,,,,,,,,,white,square
0.0,2.0,0.0,0.0,4.0,4.0,367.481841000199,2.0,1.0,phase_1,,,,,,,,,,,,,gray,hexagon
194.0,7.0,3.0,1.0,2.0,2.0,395.4924949998712,2.0,1.0,phase_1,,,,,,,,,,,,,white,square
178.0,7.0,3.0,1.0,1.0,1.0,404.5004839999819,2.0,1.0,phase_1,,,,,,,,,,,,,white,square
419.0,4.0,4.0,0.0,2.0,2.0,378.8842239998757,2.0,1.0,phase_1,,,,,,,,,,,,,magenta,I
219.0,3.0,3.0,0.0,3.0,3.0,333.756226000105,2.0,1.0,phase_1,,,,,,,,,,,,,blue,diamond
209.0,3.0,3.0,0.0,3.0,3.0,367.0536510001057,2.0,1.0,phase_1,,,,,,,,,,,,,blue,diamond
52.0,1.0,1.0,0.0,3.0,3.0,357.9300540000076,2.0,1.0,phase_1,,,,,,,,,,,,,yellow,circle
194.0,3.0,3.0,0.0,2.0,2.0,392.51669999976,2.0,1.0,phase_1,,,,,,,,,,,,,blue,diamond
394.0,8.0,4.0,1.0,4.0,4.0,306.6587580001396,2.0,1.0,phase_1,,,,,,,,,,,,,cyan,cross
0.0,2.0,0.0,0.0,3.0,3.0,331.2518309999177,2.0,1.0,phase_1,,,,,,,,,,,,,gray,hexagon
37.0,5.0,1.0,1.0,4.0,4.0,329.0954589997454,2.0,1.0,phase_1,,,,,,,,,,,,,orange,triangle
57.0,5.0,1.0,1.0,3.0,3.0,270.9855779999088,2.0,1.0,phase_1,,,,,,,,,,,,,orange,triangle
0.0,5.0,0.0,1.0,4.0,4.0,316.9387459997779,2.0,2.0,phase_1,,,,,,,,,,,,,orange,triangle
0.0,7.0,0.0,1.0,4.0,4.0,291.1524090000057,2.0,1.0,phase_1,,,,,,,,,,,,,white,square
380.0,8.0,4.0,1.0,4.0,4.0,297.5725979999879,2.0,1.0,phase_1,,,,,,,,,,,,,cyan,cross
78.0,6.0,2.0,1.0,3.0,3.0,391.157547000148,2.0,1.0,phase_1,,,,,,,,,,,,,green,flipped triangle
203.0,7.0,3.0,1.0,3.0,3.0,328.430346999994,2.0,1.0,phase_1,,,,,,,,,,,,,white,square
203.0,3.0,3.0,0.0,2.0,2.0,354.5775039997352,2.0,1.0,phase_1,,,,,,,,,,,,,blue,diamond
382.0,8.0,4.0,1.0,1.0,1.0,585.4744329999448,2.0,1.0,phase_1,,,,,,,,,,,,,cyan,cross
33.0,1.0,1.0,0.0,2.0,2.0,487.1819909999431,2.0,1.0,phase_1,,,,,,,,,,,,,yellow,circle
97.0,2.0,2.0,0.0,4.0,4.0,405.551714000012,2.0,1.0,phase_1,,,,,,,,,,,,,gray,hexagon
214.0,3.0,3.0,0.0,2.0,2.0,322.5353140001061,2.0,1.0,phase_1,,,,,,,,,,,,,blue,diamond
0.0,5.0,0.0,1.0,2.0,2.0,308.7538419999873,2.0,1.0,phase_1,,,,,,,,,,,,,orange,triangle
424.0,4.0,4.0,0.0,1.0,1.0,405.69493699968,2.0,1.0,phase_1,,,,,,,,,,,,,magenta,I
107.0,6.0,2.0,1.0,1.0,1.0,373.6042479999923,2.0,1.0,phase_1,,,,,,,,,,,,,green,flipped triangle
71.0,5.0,1.0,1.0,2.0,2.0,382.3766280002019,2.0,1.0,phase_1,,,,,,,,,,,,,orange,triangle
113.0,6.0,2.0,1.0,2.0,2.0,334.6562730002915,2.0,1.0,phase_1,,,,,,,,,,,,,green,flipped triangle
46.0,5.0,1.0,1.0,4.0,4.0,521.1544459998549,2.0,2.0,phase_1,,,,,,,,,,,,,orange,triangle
211.0,3.0,3.0,0.0,1.0,1.0,460.9648640002888,2.0,1.0,phase_1,,,,,,,,,,,,,blue,diamond
417.0,4.0,4.0,0.0,2.0,2.0,379.0154009998332,2.0,1.0,phase_1,,,,,,,,,,,,,magenta,I
0.0,2.0,0.0,0.0,1.0,1.0,372.0081309998022,2.0,1.0,phase_1,,,,,,,,,,,,,gray,hexagon
176.0,3.0,3.0,0.0,4.0,4.0,322.5049700004092,2.0,1.0,phase_1,,,,,,,,,,,,,blue,diamond
195.0,7.0,3.0,1.0,1.0,1.0,464.6226979998573,3.0,1.0,phase_1,,,,,,,,,,,,,white,square
189.0,3.0,3.0,0.0,2.0,2.0,314.7333190004246,3.0,1.0,phase_1,,,,,,,,,,,,,blue,diamond
63.0,1.0,1.0,0.0,3.0,3.0,435.1141550000648,3.0,1.0,phase_1,,,,,,,,,,,,,yellow,circle
84.0,6.0,2.0,1.0,3.0,3.0,339.482887000031,3.0,1.0,phase_1,,,,,,,,,,,,,green,flipped triangle
80.0,2.0,2.0,0.0,3.0,3.0,441.6224120000152,3.0,1.0,phase_1,,,,,,,,,,,,,gray,hexagon
30.0,5.0,1.0,1.0,3.0,3.0,321.3962529998753,3.0,1.0,phase_1,,,,,,,,,,,,,orange,triangle
123.0,2.0,2.0,0.0,4.0,4.0,387.6256399998965,3.0,1.0,phase_1,,,,,,,,,,,,,gray,hexagon
389.0,8.0,4.0,1.0,2.0,2.0,393.7678899997081,3.0,1.0,phase_1,,,,,,,,,,,,,cyan,cross
91.0,6.0,2.0,1.0,2.0,2.0,328.5056429999713,3.0,1.0,phase_1,,,,,,,,,,,,,green,flipped triangle
0.0,4.0,0.0,0.0,3.0,3.0,402.4309199999152,3.0,1.0,phase_1,,,,,,,,,,,,,magenta,I
0.0,1.0,0.0,0.0,2.0,2.0,327.4037900000621,3.0,1.0,phase_1,,,,,,,,,,,,,yellow,circle
394.0,8.0,4.0,1.0,2.0,2.0,323.2944830001543,3.0,1.0,phase_1,,,,,,,,,,,,,cyan,cross
109.0,2.0,2.0,0.0,4.0,4.0,376.7967479998333,3.0,1.0,phase_1,,,,,,,,,,,,,gray,hexagon
99.0,2.0,2.0,0.0,2.0,2.0,350.3864089998387,3.0,1.0,phase_1,,,,,,,,,,,,,gray,hexagon
53.0,1.0,1.0,0.0,2.0,2.0,340.69113599980477,3.0,1.0,phase_1,,,,,,,,,,,,,yellow,circle
54.0,5.0,1.0,1.0,2.0,2.0,415.8871899999212,3.0,1.0,phase_1,,,,,,,,,,,,,orange,triangle
113.0,2.0,2.0,0.0,2.0,2.0,373.9748150001105,3.0,1.0,phase_1,,,,,,,,,,,,,gray,hexagon
0.0,3.0,0.0,0.0,2.0,2.0,288.311191000048,3.0,1.0,phase_1,,,,,,,,,,,,,blue,diamond
40.0,5.0,1.0,1.0,4.0,4.0,389.7988250000708,3.0,1.0,phase_1,,,,,,,,,,,,,orange,triangle
80.0,6.0,2.0,1.0,1.0,1.0,379.1072889998759,3.0,1.0,phase_1,,,,,,,,,,,,,green,flipped triangle
417.0,8.0,4.0,1.0,4.0,4.0,369.2378979999375,3.0,1.0,phase_1,,,,,,,,,,,,,cyan,cross
109.0,6.0,2.0,1.0,4.0,4.0,411.7386180000721,3.0,1.0,phase_1,,,,,,,,,,,,,green,flipped triangle
196.0,7.0,3.0,1.0,4.0,4.0,338.9968870001212,3.0,1.0,phase_1,,,,,,,,,,,,,white,square
382.0,4.0,4.0,0.0,4.0,4.0,323.0525159997341,3.0,1.0,phase_1,,,,,,,,,,,,,magenta,I
204.0,3.0,3.0,0.0,4.0,4.0,381.5090260000033,3.0,1.0,phase_1,,,,,,,,,,,,,blue,diamond
213.0,7.0,3.0,1.0,1.0,1.0,357.6055040002757,3.0,1.0,phase_1,,,,,,,,,,,,,white,square
0.0,3.0,0.0,0.0,2.0,2.0,416.2183140001616,3.0,1.0,phase_1,,,,,,,,,,,,,blue,diamond
114.0,2.0,2.0,0.0,1.0,1.0,350.7596090003062,3.0,1.0,phase_1,,,,,,,,,,,,,gray,hexagon
0.0,4.0,0.0,0.0,1.0,1.0,540.608974999941,3.0,1.0,phase_1,,,,,,,,,,,,,magenta,I
101.0,6.0,2.0,1.0,4.0,4.0,558.6402150001959,3.0,1.0,phase_1,,,,,,,,,,,,,green,flipped triangle
394.0,4.0,4.0,0.0,1.0,1.0,370.4721459998836,3.0,1.0,phase_1,,,,,,,,,,,,,magenta,I
0.0,2.0,0.0,0.0,1.0,1.0,412.9548050000267,3.0,1.0,phase_1,,,,,,,,,,,,,gray,hexagon
184.0,3.0,3.0,0.0,3.0,3.0,469.8894420002943,3.0,1.0,phase_1,,,,,,,,,,,,,blue,diamond
75.0,5.0,1.0,1.0,4.0,4.0,386.8666819998907,3.0,1.0,phase_1,,,,,,,,,,,,,orange,triangle
0.0,6.0,0.0,1.0,3.0,3.0,395.1574249999794,3.0,1.0,phase_1,,,,,,,,,,,,,green,flipped triangle
78.0,2.0,2.0,0.0,3.0,3.0,326.5497360002882,3.0,1.0,phase_1,,,,,,,,,,,,,gray,hexagon
404.0,8.0,4.0,1.0,3.0,3.0,463.0375980000281,3.0,1.0,phase_1,,,,,,,,,,,,,cyan,cross
88.0,6.0,2.0,1.0,4.0,4.0,345.8414690003337,3.0,1.0,phase_1,,,,,,,,,,,,,green,flipped triangle
44.0,1.0,1.0,0.0,1.0,1.0,364.8110879998967,3.0,1.0,phase_1,,,,,,,,,,,,,yellow,circle
42.0,1.0,1.0,0.0,4.0,4.0,328.4448819999852,3.0,1.0,phase_1,,,,,,,,,,,,,yellow,circle
107.0,2.0,2.0,0.0,2.0,2.0,361.6423700000268,3.0,1.0,phase_1,,,,,,,,,,,,,gray,hexagon
193.0,3.0,3.0,0.0,2.0,2.0,279.167660999974,3.0,1.0,phase_1,,,,,,,,,,,,,blue,diamond
184.0,7.0,3.0,1.0,3.0,3.0,286.5802879996408,3.0,1.0,phase_1,,,,,,,,,,,,,white,square
52.0,5.0,1.0,1.0,2.0,2.0,341.8367059998672,3.0,1.0,phase_1,,,,,,,,,,,,,orange,triangle
0.0,6.0,0.0,1.0,2.0,2.0,379.2230760000166,3.0,1.0,phase_1,,,,,,,,,,,,,green,flipped triangle
406.0,4.0,4.0,0.0,1.0,1.0,390.9610000000612,3.0,1.0,phase_1,,,,,,,,,,,,,magenta,I
209.0,7.0,3.0,1.0,4.0,4.0,521.0378090000631,3.0,1.0,phase_1,,,,,,,,,,,,,white,square
214.0,7.0,3.0,1.0,2.0,2.0,343.7513879998732,3.0,1.0,phase_1,,,,,,,,,,,,,white,square
84.0,6.0,2.0,1.0,2.0,2.0,270.9945670003435,3.0,1.0,phase_1,,,,,,,,,,,,,green,flipped triangle
216.0,3.0,3.0,0.0,1.0,1.0,402.2450059997027,3.0,1.0,phase_1,,,,,,,,,,,,,blue,diamond
70.0,1.0,1.0,0.0,4.0,4.0,432.0785330000944,3.0,1.0,phase_1,,,,,,,,,,,,,yellow,circle
0.0,3.0,0.0,0.0,1.0,1.0,321.8790359997001,3.0,1.0,phase_1,,,,,,,,,,,,,blue,diamond
193.0,7.0,3.0,1.0,4.0,4.0,343.0140899999969,3.0,1.0,phase_1,,,,,,,,,,,,,white,square
0.0,6.0,0.0,1.0,3.0,3.0,366.371387000072,3.0,1.0,phase_1,,,,,,,,,,,,,green,flipped triangle
96.0,6.0,2.0,1.0,3.0,3.0,364.2708910001602,3.0,1.0,phase_1,,,,,,,,,,,,,green,flipped triangle
114.0,6.0,2.0,1.0,2.0,2.0,293.8619769997785,3.0,1.0,phase_1,,,,,,,,,,,,,green,flipped triangle
421.0,4.0,4.0,0.0,3.0,3.0,400.9235590001481,3.0,1.0,phase_1,,,,,,,,,,,,,magenta,I
403.0,8.0,4.0,1.0,4.0,4.0,305.1742749998993,3.0,1.0,phase_1,,,,,,,,,,,,,cyan,cross
37.0,1.0,1.0,0.0,2.0,2.0,356.4159999996263,3.0,1.0,phase_1,,,,,,,,,,,,,yellow,circle
0.0,8.0,0.0,1.0,4.0,4.0,350.3838579999865,3.0,1.0,phase_1,,,,,,,,,,,,,cyan,cross
195.0,3.0,3.0,0.0,3.0,3.0,296.3564629999382,3.0,1.0,phase_1,,,,,,,,,,,,,blue,diamond
75.0,1.0,1.0,0.0,4.0,4.0,336.0845749998589,3.0,1.0,phase_1,,,,,,,,,,,,,yellow,circle
206.0,3.0,3.0,0.0,3.0,3.0,297.0423809997555,3.0,1.0,phase_1,,,,,,,,,,,,,blue,diamond
0.0,2.0,0.0,0.0,1.0,1.0,286.4951920000749,3.0,1.0,phase_1,,,,,,,,,,,,,gray,hexagon
406.0,8.0,4.0,1.0,1.0,1.0,338.359212999876,3.0,1.0,phase_1,,,,,,,,,,,,,cyan,cross
121.0,2.0,2.0,0.0,4.0,4.0,407.2672639999837,3.0,1.0,phase_1,,,,,,,,,,,,,gray,hexagon
216.0,7.0,3.0,1.0,1.0,1.0,360.5530529998759,3.0,1.0,phase_1,,,,,,,,,,,,,white,square
193.0,3.0,3.0,0.0,4.0,4.0,327.0962180004062,3.0,1.0,phase_1,,,,,,,,,,,,,blue,diamond
196.0,7.0,3.0,1.0,4.0,4.0,379.5741439998892,3.0,1.0,phase_1,,,,,,,,,,,,,white,square
110.0,6.0,2.0,1.0,3.0,3.0,277.9982510000991,3.0,1.0,phase_1,,,,,,,,,,,,,green,flipped triangle
124.0,6.0,2.0,1.0,4.0,4.0,331.0935449999306,3.0,1.0,phase_1,,,,,,,,,,,,,green,flipped triangle
406.0,8.0,4.0,1.0,2.0,2.0,349.0031189999172,3.0,1.0,phase_1,,,,,,,,,,,,,cyan,cross
121.0,2.0,2.0,0.0,3.0,3.0,409.9465779995626,3.0,1.0,phase_1,,,,,,,,,,,,,gray,hexagon
53.0,5.0,1.0,1.0,1.0,1.0,387.3945840000488,3.0,1.0,phase_1,,,,,,,,,,,,,orange,triangle
399.0,8.0,4.0,1.0,1.0,1.0,376.5906500002529,3.0,1.0,phase_1,,,,,,,,,,,,,cyan,cross
196.0,3.0,3.0,0.0,3.0,3.0,333.6786590002703,3.0,1.0,phase_1,,,,,,,,,,,,,blue,diamond
0.0,8.0,0.0,1.0,1.0,1.0,402.5944260001779,3.0,1.0,phase_1,,,,,,,,,,,,,cyan,cross
102.0,6.0,2.0,1.0,1.0,1.0,351.8144390000088,3.0,1.0,phase_1,,,,,,,,,,,,,green,flipped triangle
33.0,5.0,1.0,1.0,1.0,1.0,301.4658269999017,3.0,1.0,phase_1,,,,,,,,,,,,,orange,triangle
0.0,4.0,0.0,0.0,3.0,3.0,469.4572739999785,3.0,1.0,phase_1,,,,,,,,,,,,,magenta,I
58.0,1.0,1.0,0.0,2.0,2.0,322.0477039999423,3.0,1.0,phase_1,,,,,,,,,,,,,yellow,circle
220.0,3.0,3.0,0.0,2.0,2.0,307.6158580001902,3.0,1.0,phase_1,,,,,,,,,,,,,blue,diamond
193.0,7.0,3.0,1.0,4.0,4.0,356.7423780000354,3.0,1.0,phase_1,,,,,,,,,,,,,white,square
195.0,7.0,3.0,1.0,4.0,4.0,534.1600140000082,3.0,1.0,phase_1,,,,,,,,,,,,,white,square
400.0,8.0,4.0,1.0,1.0,1.0,382.0310030000655,3.0,1.0,phase_1,,,,,,,,,,,,,cyan,cross
31.0,1.0,1.0,0.0,3.0,3.0,294.9283630000536,3.0,1.0,phase_1,,,,,,,,,,,,,yellow,circle
206.0,7.0,3.0,1.0,3.0,3.0,298.3513320000384,3.0,1.0,phase_1,,,,,,,,,,,,,white,square
390.0,4.0,4.0,0.0,2.0,2.0,301.1316050001369,3.0,1.0,phase_1,,,,,,,,,,,,,magenta,I
398.0,4.0,4.0,0.0,3.0,3.0,297.2509250002986,3.0,1.0,phase_1,,,,,,,,,,,,,magenta,I
31.0,1.0,1.0,0.0,3.0,3.0,357.1529119999468,3.0,1.0,phase_1,,,,,,,,,,,,,yellow,circle
393.0,8.0,4.0,1.0,3.0,3.0,328.0474950001917,3.0,1.0,phase_1,,,,,,,,,,,,,cyan,cross
48.0,1.0,1.0,0.0,3.0,3.0,337.7029409998613,3.0,1.0,phase_1,,,,,,,,,,,,,yellow,circle
178.0,3.0,3.0,0.0,2.0,2.0,338.5349800000767,3.0,1.0,phase_1,,,,,,,,,,,,,blue,diamond
124.0,2.0,2.0,0.0,2.0,2.0,298.2751090003148,3.0,1.0,phase_1,,,,,,,,,,,,,gray,hexagon
412.0,4.0,4.0,0.0,1.0,1.0,348.2211820000884,3.0,1.0,phase_1,,,,,,,,,,,,,magenta,I
0.0,6.0,0.0,1.0,2.0,2.0,283.5360280000714,3.0,1.0,phase_1,,,,,,,,,,,,,green,flipped triangle
0.0,6.0,0.0,1.0,4.0,4.0,307.5800090000484,3.0,1.0,phase_1,,,,,,,,,,,,,green,flipped triangle
40.0,5.0,1.0,1.0,3.0,3.0,258.0880709997473,3.0,1.0,phase_1,,,,,,,,,,,,,orange,triangle
107.0,2.0,2.0,0.0,4.0,4.0,330.696165000063,3.0,1.0,phase_1,,,,,,,,,,,,,gray,hexagon
0.0,4.0,0.0,0.0,4.0,4.0,308.1953799996881,3.0,1.0,phase_1,,,,,,,,,,,,,magenta,I
192.0,7.0,3.0,1.0,3.0,3.0,318.6684520001108,4.0,1.0,phase_1,,,,,,,,,,,,,white,square
385.0,4.0,4.0,0.0,2.0,2.0,273.3352240002205,4.0,1.0,phase_1,,,,,,,,,,,,,magenta,I
80.0,6.0,2.0,1.0,3.0,3.0,284.1039069999169,4.0,1.0,phase_1,,,,,,,,,,,,,green,flipped triangle
96.0,2.0,2.0,0.0,4.0,4.0,266.8089530002362,4.0,1.0,phase_1,,,,,,,,,,,,,gray,hexagon
0.0,7.0,0.0,1.0,3.0,3.0,255.4470860000037,4.0,2.0,phase_1,,,,,,,,,,,,,white,square
388.0,4.0,4.0,0.0,4.0,4.0,292.4114360002932,4.0,1.0,phase_1,,,,,,,,,,,,,magenta,I
48.0,1.0,1.0,0.0,3.0,3.0,256.8463119996522,4.0,1.0,phase_1,,,,,,,,,,,,,yellow,circle
44.0,5.0,1.0,1.0,3.0,3.0,302.445458999955,4.0,1.0,phase_1,,,,,,,,,,,,,orange,triangle
37.0,1.0,1.0,0.0,4.0,4.0,356.2378530000387,4.0,1.0,phase_1,,,,,,,,,,,,,yellow,circle
403.0,8.0,4.0,1.0,2.0,2.0,396.5511250003146,4.0,1.0,phase_1,,,,,,,,,,,,,cyan,cross
178.0,7.0,3.0,1.0,4.0,4.0,314.0163369998845,4.0,1.0,phase_1,,,,,,,,,,,,,white,square
103.0,6.0,2.0,1.0,1.0,1.0,318.8872609998725,4.0,2.0,phase_1,,,,,,,,,,,,,green,flipped triangle
204.0,3.0,3.0,0.0,1.0,1.0,342.7575069999875,4.0,1.0,phase_1,,,,,,,,,,,,,blue,diamond
0.0,6.0,0.0,1.0,2.0,2.0,339.0062859998579,4.0,1.0,phase_1,,,,,,,,,,,,,green,flipped triangle
75.0,1.0,1.0,0.0,1.0,1.0,367.9003959996407,4.0,1.0,phase_1,,,,,,,,,,,,,yellow,circle
209.0,7.0,3.0,1.0,3.0,3.0,488.3610389997557,4.0,1.0,phase_1,,,,,,,,,,,,,white,square
0.0,8.0,0.0,1.0,1.0,1.0,551.0278059996381,4.0,1.0,phase_1,,,,,,,,,,,,,cyan,cross
30.0,1.0,1.0,0.0,3.0,3.0,423.9992269999675,4.0,1.0,phase_1,,,,,,,,,,,,,yellow,circle
394.0,4.0,4.0,0.0,2.0,2.0,369.6623800001362,4.0,1.0,phase_1,,,,,,,,,,,,,magenta,I
70.0,1.0,1.0,0.0,4.0,4.0,500.64641700009815,4.0,1.0,phase_1,,,,,,,,,,,,,yellow,circle
389.0,4.0,4.0,0.0,4.0,4.0,392.5727900000311,4.0,1.0,phase_1,,,,,,,,,,,,,magenta,I
84.0,2.0,2.0,0.0,1.0,1.0,340.5428860000938,4.0,1.0,phase_1,,,,,,,,,,,,,gray,hexagon
0.0,6.0,0.0,1.0,1.0,1.0,319.8998350003421,4.0,1.0,phase_1,,,,,,,,,,,,,green,flipped triangle
193.0,7.0,3.0,1.0,1.0,1.0,321.1307980000129,4.0,1.0,phase_1,,,,,,,,,,,,,white,square
26.0,5.0,1.0,1.0,3.0,3.0,322.1234799998456,4.0,1.0,phase_1,,,,,,,,,,,,,orange,triangle
202.0,7.0,3.0,1.0,4.0,4.0,485.163423999893,4.0,1.0,phase_1,,,,,,,,,,,,,white,square
63.0,5.0,1.0,1.0,4.0,4.0,298.6885770001208,4.0,1.0,phase_1,,,,,,,,,,,,,orange,triangle
57.0,5.0,1.0,1.0,3.0,3.0,276.2159739995695,4.0,2.0,phase_1,,,,,,,,,,,,,orange,triangle
393.0,8.0,4.0,1.0,3.0,3.0,344.48445299995,4.0,1.0,phase_1,,,,,,,,,,,,,cyan,cross
216.0,3.0,3.0,0.0,4.0,4.0,341.667764000249,4.0,1.0,phase_1,,,,,,,,,,,,,blue,diamond
0.0,2.0,0.0,0.0,4.0,4.0,353.4395500000755,4.0,1.0,phase_1,,,,,,,,,,,,,gray,hexagon
176.0,7.0,3.0,1.0,1.0,1.0,341.7440299999725,4.0,1.0,phase_1,,,,,,,,,,,,,white,square
43.0,1.0,1.0,0.0,2.0,2.0,339.8339539999142,4.0,1.0,phase_1,,,,,,,,,,,,,yellow,circle
202.0,3.0,3.0,0.0,2.0,2.0,352.1233739998024,4.0,1.0,phase_1,,,,,,,,,,,,,blue,diamond
217.0,3.0,3.0,0.0,4.0,4.0,427.4670220002008,4.0,1.0,phase_1,,,,,,,,,,,,,blue,diamond
178.0,3.0,3.0,0.0,3.0,3.0,289.9462119999043,4.0,1.0,phase_1,,,,,,,,,,,,,blue,diamond
418.0,8.0,4.0,1.0,4.0,4.0,333.4192380002605,4.0,1.0,phase_1,,,,,,,,,,,,,cyan,cross
412.0,8.0,4.0,1.0,2.0,2.0,322.3478270001578,4.0,1.0,phase_1,,,,,,,,,,,,,cyan,cross
85.0,2.0,2.0,0.0,1.0,1.0,362.9575139998451,4.0,1.0,phase_1,,,,,,,,,,,,,gray,hexagon
0.0,1.0,0.0,0.0,4.0,4.0,449.2608589998781,4.0,1.0,phase_1,,,,,,,,,,,,,yellow,circle
388.0,8.0,4.0,1.0,4.0,4.0,460.5304149999938,4.0,1.0,phase_1,,,,,,,,,,,,,cyan,cross
103.0,6.0,2.0,1.0,1.0,1.0,333.231724000143,4.0,1.0,phase_1,,,,,,,,,,,,,green,flipped triangle
398.0,8.0,4.0,1.0,3.0,3.0,348.4003499997925,4.0,1.0,phase_1,,,,,,,,,,,,,cyan,cross
111.0,2.0,2.0,0.0,2.0,2.0,435.287573000096,4.0,1.0,phase_1,,,,,,,,,,,,,gray,hexagon
0.0,2.0,0.0,0.0,4.0,4.0,391.361728999982,4.0,1.0,phase_1,,,,,,,,,,,,,gray,hexagon
104.0,2.0,2.0,0.0,1.0,1.0,317.4992139997812,4.0,1.0,phase_1,,,,,,,,,,,,,gray,hexagon
110.0,2.0,2.0,0.0,2.0,2.0,318.0748949998815,4.0,1.0,phase_1,,,,,,,,,,,,,gray,hexagon
82.0,2.0,2.0,0.0,2.0,2.0,282.895463999921,4.0,1.0,phase_1,,,,,,,,,,,,,gray,hexagon
102.0,2.0,2.0,0.0,1.0,1.0,405.9619340000608,4.0,1.0,phase_1,,,,,,,,,,,,,gray,hexagon
116.0,2.0,2.0,0.0,4.0,4.0,333.5472440003286,4.0,1.0,phase_1,,,,,,,,,,,,,gray,hexagon
40.0,1.0,1.0,0.0,3.0,3.0,318.1865299998208,4.0,1.0,phase_1,,,,,,,,,,,,,yellow,circle
181.0,3.0,3.0,0.0,3.0,3.0,366.2253329998748,4.0,1.0,phase_1,,,,,,,,,,,,,blue,diamond
394.0,4.0,4.0,0.0,4.0,4.0,321.9392250002784,4.0,1.0,phase_1,,,,,,,,,,,,,magenta,I
28.0,5.0,1.0,1.0,4.0,4.0,319.3052169999646,4.0,1.0,phase_1,,,,,,,,,,,,,orange,triangle
40.0,1.0,1.0,0.0,1.0,1.0,327.0246239999324,4.0,1.0,phase_1,,,,,,,,,,,,,yellow,circle
43.0,5.0,1.0,1.0,3.0,3.0,290.4298759999619,4.0,1.0,phase_1,,,,,,,,,,,,,orange,triangle
31.0,5.0,1.0,1.0,2.0,2.0,316.6107509996436,4.0,1.0,phase_1,,,,,,,,,,,,,orange,triangle
104.0,6.0,2.0,1.0,4.0,4.0,323.4389060003195,4.0,1.0,phase_1,,,,,,,,,,,,,green,flipped triangle
204.0,7.0,3.0,1.0,2.0,2.0,330.9468399997968,4.0,1.0,phase_1,,,,,,,,,,,,,white,square
0.0,8.0,0.0,1.0,2.0,2.0,355.753268999706,4.0,1.0,phase_1,,,,,,,,,,,,,cyan,cross
66.0,1.0,1.0,0.0,1.0,1.0,423.4965200002989,4.0,1.0,phase_1,,,,,,,,,,,,,yellow,circle
0.0,1.0,0.0,0.0,1.0,1.0,330.9323570001652,4.0,1.0,phase_1,,,,,,,,,,,,,yellow,circle
79.0,2.0,2.0,0.0,3.0,3.0,408.2541290003973,4.0,1.0,phase_1,,,,,,,,,,,,,gray,hexagon
179.0,7.0,3.0,1.0,3.0,3.0,310.9641030000603,4.0,1.0,phase_1,,,,,,,,,,,,,white,square
406.0,4.0,4.0,0.0,2.0,2.0,288.5619250000673,4.0,1.0,phase_1,,,,,,,,,,,,,magenta,I
124.0,6.0,2.0,1.0,1.0,1.0,299.6463630001926,4.0,1.0,phase_1,,,,,,,,,,,,,green,flipped triangle
97.0,6.0,2.0,1.0,4.0,4.0,325.1274219996958,4.0,1.0,phase_1,,,,,,,,,,,,,green,flipped triangle
212.0,7.0,3.0,1.0,1.0,1.0,314.1288150000036,4.0,1.0,phase_1,,,,,,,,,,,,,white,square
0.0,8.0,0.0,1.0,1.0,1.0,316.4707060000182,4.0,1.0,phase_1,,,,,,,,,,,,,cyan,cross
194.0,7.0,3.0,1.0,1.0,1.0,330.9866640001928,4.0,1.0,phase_1,,,,,,,,,,,,,white,square
90.0,6.0,2.0,1.0,4.0,4.0,454.9518209996677,4.0,1.0,phase_1,,,,,,,,,,,,,green,flipped triangle
198.0,3.0,3.0,0.0,4.0,4.0,405.3816400000869,4.0,1.0,phase_1,,,,,,,,,,,,,blue,diamond
382.0,8.0,4.0,1.0,1.0,1.0,321.5977439999733,4.0,1.0,phase_1,,,,,,,,,,,,,cyan,cross
0.0,5.0,0.0,1.0,2.0,2.0,279.0180389997658,4.0,1.0,phase_1,,,,,,,,,,,,,orange,triangle
193.0,3.0,3.0,0.0,1.0,1.0,339.2442479998863,4.0,1.0,phase_1,,,,,,,,,,,,,blue,diamond
58.0,5.0,1.0,1.0,1.0,1.0,313.1718839999848,4.0,1.0,phase_1,,,,,,,,,,,,,orange,triangle
217.0,7.0,3.0,1.0,1.0,1.0,292.2418379998817,4.0,1.0,phase_1,,,,,,,,,,,,,white,square
115.0,2.0,2.0,0.0,1.0,1.0,321.8134009998721,4.0,1.0,phase_1,,,,,,,,,,,,,gray,hexagon
382.0,4.0,4.0,0.0,3.0,3.0,499.7159080003257,4.0,1.0,phase_1,,,,,,,,,,,,,magenta,I
397.0,8.0,4.0,1.0,3.0,3.0,336.665511999854,4.0,1.0,phase_1,,,,,,,,,,,,,cyan,cross
194.0,3.0,3.0,0.0,3.0,3.0,328.9037980002831,4.0,1.0,phase_1,,,,,,,,,,,,,blue,diamond
91.0,2.0,2.0,0.0,3.0,3.0,276.19963799998,4.0,1.0,phase_1,,,,,,,,,,,,,gray,hexagon
393.0,4.0,4.0,0.0,3.0,3.0,282.7476560000832,4.0,1.0,phase_1,,,,,,,,,,,,,magenta,I
420.0,4.0,4.0,0.0,1.0,1.0,327.768653000021,4.0,1.0,phase_1,,,,,,,,,,,,,magenta,I
414.0,4.0,4.0,0.0,3.0,3.0,321.9636909998371,4.0,1.0,phase_1,,,,,,,,,,,,,magenta,I
389.0,4.0,4.0,0.0,4.0,4.0,350.8880350000254,4.0,1.0,phase_1,,,,,,,,,,,,,magenta,I
41.0,1.0,1.0,0.0,4.0,4.0,347.8536269999495,4.0,1.0,phase_1,,,,,,,,,,,,,yellow,circle
182.0,7.0,3.0,1.0,1.0,1.0,341.5284359998622,4.0,1.0,phase_1,,,,,,,,,,,,,white,square
0.0,4.0,0.0,0.0,1.0,1.0,272.0571179997932,4.0,1.0,phase_1,,,,,,,,,,,,,magenta,I
124.0,2.0,2.0,0.0,2.0,2.0,353.9916560002893,4.0,1.0,phase_1,,,,,,,,,,,,,gray,hexagon
419.0,8.0,4.0,1.0,2.0,2.0,505.76257800003077,4.0,1.0,phase_1,,,,,,,,,,,,,cyan,cross
0.0,7.0,0.0,1.0,1.0,1.0,253.8766770003349,4.0,1.0,phase_1,,,,,,,,,,,,,white,square
0.0,3.0,0.0,0.0,3.0,3.0,515.2371489998586,4.0,1.0,phase_1,,,,,,,,,,,,,blue,diamond
198.0,7.0,3.0,1.0,2.0,2.0,320.0259299997015,4.0,1.0,phase_1,,,,,,,,,,,,,white,square
0.0,1.0,0.0,0.0,3.0,3.0,293.6439029999746,4.0,1.0,phase_1,,,,,,,,,,,,,yellow,circle
0.0,8.0,0.0,1.0,4.0,4.0,287.4428019999868,4.0,1.0,phase_1,,,,,,,,,,,,,cyan,cross
88.0,2.0,2.0,0.0,2.0,2.0,320.6618909998724,4.0,1.0,phase_1,,,,,,,,,,,,,gray,hexagon
0.0,8.0,0.0,1.0,2.0,2.0,350.3585200000998,4.0,1.0,phase_1,,,,,,,,,,,,,cyan,cross
93.0,2.0,2.0,0.0,3.0,3.0,341.4598629997272,4.0,1.0,phase_1,,,,,,,,,,,,,gray,hexagon
0.0,4.0,0.0,0.0,3.0,3.0,383.3752069999718,4.0,1.0,phase_1,,,,,,,,,,,,,magenta,I
0.0,6.0,2.0,1.0,5.0,5.0,399.4015359999139,1.0,1.0,phase_2,stop,250.0,250.0,3.0,,,,,,,,,green,flipped triangle
0.0,1.0,1.0,0.0,5.0,5.0,437.1204940002826,1.0,1.0,phase_2,go,200.0,250.0,1.0,,,,,,,,,yellow,circle
0.0,8.0,4.0,1.0,5.0,5.0,608.1677919996764,1.0,1.0,phase_2,stop,200.0,250.0,3.0,,,,,,,,,cyan,cross
0.0,4.0,4.0,0.0,5.0,5.0,632.3564829999668,1.0,1.0,phase_2,go,150.0,250.0,1.0,,,,,,,,,magenta,I
0.0,6.0,2.0,1.0,5.0,5.0,585.3200310002649,1.0,1.0,phase_2,stop,150.0,250.0,3.0,,,,,,,,,green,flipped triangle
0.0,1.0,1.0,0.0,6.0,6.0,663.5555249999925,1.0,1.0,phase_2,go,100.0,250.0,1.0,,,,,,,,,yellow,circle
0.0,3.0,3.0,0.0,5.0,5.0,620.2658430001975,1.0,1.0,phase_2,go,100.0,250.0,1.0,,,,,,,,,blue,diamond
0.0,1.0,1.0,0.0,5.0,5.0,467.6168769997275,1.0,1.0,phase_2,go,100.0,250.0,1.0,,,,,,,,,yellow,circle
0.0,5.0,1.0,1.0,5.0,0.0,0.0,1.0,1.0,phase_2,stop,100.0,250.0,4.0,,,,,,,,,orange,triangle
0.0,3.0,3.0,0.0,5.0,5.0,605.8784150000065,1.0,1.0,phase_2,go,150.0,250.0,1.0,,,,,,,,,blue,diamond
0.0,7.0,3.0,1.0,5.0,0.0,0.0,1.0,1.0,phase_2,stop,150.0,250.0,4.0,,,,,,,,,white,square
0.0,1.0,1.0,0.0,5.0,5.0,626.6714539997338,1.0,1.0,phase_2,go,200.0,250.0,1.0,,,,,,,,,yellow,circle
0.0,7.0,3.0,1.0,6.0,0.0,0.0,1.0,1.0,phase_2,stop,200.0,250.0,4.0,,,,,,,,,white,square
0.0,4.0,4.0,0.0,6.0,6.0,591.922392000015,1.0,1.0,phase_2,go,200.0,300.0,1.0,,,,,,,,,magenta,I
0.0,5.0,1.0,1.0,6.0,0.0,0.0,1.0,1.0,phase_2,stop,200.0,300.0,4.0,,,,,,,,,orange,triangle
0.0,1.0,1.0,0.0,6.0,6.0,586.4817470001071,1.0,1.0,phase_2,go,200.0,350.0,1.0,,,,,,,,,yellow,circle
0.0,4.0,4.0,0.0,5.0,5.0,514.0341060000537,1.0,1.0,phase_2,go,200.0,350.0,1.0,,,,,,,,,magenta,I
0.0,5.0,1.0,1.0,6.0,0.0,0.0,1.0,1.0,phase_2,stop,200.0,350.0,4.0,,,,,,,,,orange,triangle
0.0,4.0,4.0,0.0,6.0,6.0,705.8873040000435,1.0,1.0,phase_2,go,200.0,400.0,1.0,,,,,,,,,magenta,I
0.0,2.0,2.0,0.0,5.0,5.0,610.1449000002503,1.0,1.0,phase_2,go,200.0,400.0,1.0,,,,,,,,,gray,hexagon
0.0,8.0,4.0,1.0,6.0,6.0,437.4046319999252,1.0,1.0,phase_2,stop,200.0,400.0,3.0,,,,,,,,,cyan,cross
0.0,2.0,2.0,0.0,5.0,5.0,653.5104429999592,1.0,1.0,phase_2,go,200.0,350.0,1.0,,,,,,,,,gray,hexagon
0.0,4.0,4.0,0.0,5.0,5.0,454.0315840004041,1.0,1.0,phase_2,go,200.0,350.0,1.0,,,,,,,,,magenta,I
0.0,3.0,3.0,0.0,5.0,5.0,465.0928060000296,1.0,1.0,phase_2,go,200.0,350.0,1.0,,,,,,,,,blue,diamond
0.0,7.0,3.0,1.0,6.0,6.0,527.0234350000464,1.0,1.0,phase_2,go,200.0,350.0,1.0,,,,,,,,,white,square
0.0,5.0,1.0,1.0,5.0,0.0,0.0,1.0,1.0,phase_2,stop,200.0,350.0,4.0,,,,,,,,,orange,triangle
0.0,6.0,2.0,1.0,5.0,0.0,0.0,1.0,1.0,phase_2,stop,250.0,350.0,4.0,,,,,,,,,green,flipped triangle
0.0,5.0,1.0,1.0,6.0,0.0,0.0,1.0,1.0,phase_2,stop,300.0,350.0,4.0,,,,,,,,,orange,triangle
0.0,3.0,3.0,0.0,5.0,5.0,576.5876850000495,1.0,1.0,phase_2,go,300.0,400.0,1.0,,,,,,,,,blue,diamond
0.0,5.0,1.0,1.0,5.0,5.0,796.586212999955,1.0,1.0,phase_2,go,300.0,400.0,1.0,,,,,,,,,orange,triangle
0.0,5.0,1.0,1.0,5.0,5.0,665.5604510001467,1.0,1.0,phase_2,go,300.0,400.0,1.0,,,,,,,,,orange,triangle
0.0,5.0,1.0,1.0,5.0,0.0,0.0,1.0,1.0,phase_2,stop,300.0,400.0,4.0,,,,,,,,,orange,triangle
0.0,3.0,3.0,0.0,6.0,6.0,627.5146230000246,1.0,1.0,phase_2,go,350.0,400.0,1.0,,,,,,,,,blue,diamond
0.0,8.0,4.0,1.0,6.0,0.0,0.0,1.0,1.0,phase_2,stop,350.0,400.0,4.0,,,,,,,,,cyan,cross
0.0,4.0,4.0,0.0,6.0,6.0,772.4305480001021,1.0,1.0,phase_2,go,350.0,450.0,1.0,,,,,,,,,magenta,I
0.0,6.0,2.0,1.0,5.0,0.0,0.0,1.0,1.0,phase_2,stop,350.0,450.0,4.0,,,,,,,,,green,flipped triangle
0.0,1.0,1.0,0.0,5.0,5.0,396.7621890001283,2.0,1.0,phase_2,go,400.0,450.0,1.0,,,,,,,,,yellow,circle
0.0,7.0,3.0,1.0,6.0,6.0,387.141808999786,2.0,1.0,phase_2,stop,400.0,450.0,3.0,,,,,,,,,white,square
0.0,2.0,2.0,0.0,5.0,5.0,268.1786360003571,2.0,1.0,phase_2,go,400.0,400.0,1.0,,,,,,,,,gray,hexagon
0.0,1.0,1.0,0.0,5.0,5.0,310.507795000376,2.0,1.0,phase_2,go,400.0,400.0,1.0,,,,,,,,,yellow,circle
0.0,2.0,2.0,0.0,6.0,6.0,253.66795899981298,2.0,1.0,phase_2,go,400.0,400.0,1.0,,,,,,,,,gray,hexagon
0.0,3.0,3.0,0.0,6.0,6.0,335.8610929999486,2.0,1.0,phase_2,go,400.0,400.0,1.0,,,,,,,,,blue,diamond
0.0,3.0,3.0,0.0,5.0,5.0,386.1354880000363,2.0,1.0,phase_2,go,400.0,400.0,1.0,,,,,,,,,blue,diamond
0.0,5.0,1.0,1.0,6.0,6.0,306.2751649999882,2.0,1.0,phase_2,stop,400.0,400.0,3.0,,,,,,,,,orange,triangle
0.0,6.0,2.0,1.0,6.0,6.0,392.0594779997373,2.0,1.0,phase_2,stop,400.0,350.0,3.0,,,,,,,,,green,flipped triangle
0.0,2.0,2.0,0.0,5.0,5.0,492.75079500012,2.0,1.0,phase_2,go,400.0,300.0,1.0,,,,,,,,,gray,hexagon
0.0,1.0,1.0,0.0,5.0,5.0,383.3551809998425,2.0,1.0,phase_2,go,400.0,300.0,1.0,,,,,,,,,yellow,circle
0.0,7.0,3.0,1.0,5.0,5.0,336.3726829998086,2.0,1.0,phase_2,stop,400.0,300.0,3.0,,,,,,,,,white,square
0.0,8.0,4.0,1.0,6.0,6.0,467.7298360002169,2.0,1.0,phase_2,stop,350.0,300.0,3.0,,,,,,,,,cyan,cross
0.0,5.0,1.0,1.0,6.0,6.0,349.5707909996781,2.0,1.0,phase_2,go,350.0,250.0,1.0,,,,,,,,,orange,triangle
0.0,4.0,4.0,0.0,5.0,5.0,343.7878460003958,2.0,1.0,phase_2,go,350.0,250.0,1.0,,,,,,,,,magenta,I
0.0,8.0,4.0,1.0,5.0,5.0,456.8056970001635,2.0,1.0,phase_2,stop,350.0,250.0,3.0,,,,,,,,,cyan,cross
0.0,8.0,4.0,1.0,6.0,0.0,0.0,2.0,1.0,phase_2,stop,300.0,250.0,4.0,,,,,,,,,cyan,cross
0.0,8.0,4.0,1.0,5.0,5.0,482.6223790000767,2.0,1.0,phase_2,go,300.0,300.0,1.0,,,,,,,,,cyan,cross
0.0,2.0,2.0,0.0,5.0,5.0,472.6887080000779,2.0,1.0,phase_2,go,300.0,300.0,1.0,,,,,,,,,gray,hexagon
0.0,7.0,3.0,1.0,5.0,5.0,335.8771279999928,2.0,1.0,phase_2,stop,300.0,300.0,3.0,,,,,,,,,white,square
0.0,5.0,1.0,1.0,5.0,0.0,0.0,2.0,1.0,phase_2,stop,250.0,300.0,4.0,,,,,,,,,orange,triangle
0.0,6.0,2.0,1.0,5.0,0.0,0.0,2.0,1.0,phase_2,stop,300.0,300.0,4.0,,,,,,,,,green,flipped triangle
0.0,8.0,4.0,1.0,6.0,6.0,371.9886959997893,2.0,1.0,phase_2,go,350.0,300.0,1.0,,,,,,,,,cyan,cross
0.0,7.0,3.0,1.0,5.0,5.0,296.1845459999495,2.0,1.0,phase_2,stop,350.0,300.0,3.0,,,,,,,,,white,square
0.0,7.0,3.0,1.0,5.0,5.0,401.8615139998474,2.0,1.0,phase_2,stop,300.0,300.0,3.0,,,,,,,,,white,square
0.0,6.0,2.0,1.0,6.0,6.0,409.9366969999209,2.0,1.0,phase_2,stop,250.0,300.0,3.0,,,,,,,,,green,flipped triangle
0.0,4.0,4.0,0.0,5.0,5.0,424.5275749999564,2.0,1.0,phase_2,go,250.0,250.0,1.0,,,,,,,,,magenta,I
0.0,8.0,4.0,1.0,6.0,0.0,0.0,2.0,1.0,phase_2,stop,250.0,250.0,4.0,,,,,,,,,cyan,cross
0.0,1.0,1.0,0.0,6.0,6.0,424.0297270002884,2.0,1.0,phase_2,go,250.0,300.0,1.0,,,,,,,,,yellow,circle
0.0,8.0,4.0,1.0,6.0,6.0,756.0488350000014,2.0,1.0,phase_2,go,250.0,300.0,1.0,,,,,,,,,cyan,cross
0.0,6.0,2.0,1.0,5.0,5.0,465.33304400009,2.0,1.0,phase_2,stop,250.0,300.0,3.0,,,,,,,,,green,flipped triangle
0.0,7.0,3.0,1.0,5.0,5.0,602.6483970003937,2.0,1.0,phase_2,go,200.0,300.0,1.0,,,,,,,,,white,square
0.0,1.0,1.0,0.0,6.0,6.0,608.3789989997967,2.0,1.0,phase_2,go,200.0,300.0,1.0,,,,,,,,,yellow,circle
0.0,2.0,2.0,0.0,6.0,6.0,530.4667249997692,2.0,1.0,phase_2,go,200.0,300.0,1.0,,,,,,,,,gray,hexagon
0.0,6.0,2.0,1.0,6.0,6.0,492.3396140002296,2.0,1.0,phase_2,stop,200.0,300.0,3.0,,,,,,,,,green,flipped triangle
0.0,2.0,2.0,0.0,6.0,6.0,730.9739719999016,2.0,1.0,phase_2,go,200.0,250.0,1.0,,,,,,,,,gray,hexagon
0.0,6.0,2.0,1.0,6.0,6.0,346.6346820000581,3.0,1.0,phase_2,stop,200.0,250.0,3.0,,,,,,,,,green,flipped triangle
0.0,2.0,2.0,0.0,5.0,5.0,282.8945030000795,3.0,1.0,phase_2,go,200.0,200.0,1.0,,,,,,,,,gray,hexagon
0.0,1.0,1.0,0.0,5.0,5.0,490.2523279997695,3.0,1.0,phase_2,go,200.0,200.0,1.0,,,,,,,,,yellow,circle
0.0,3.0,3.0,0.0,6.0,6.0,432.08959399999,3.0,1.0,phase_2,go,200.0,200.0,1.0,,,,,,,,,blue,diamond
0.0,8.0,4.0,1.0,5.0,5.0,369.6999919998234,3.0,1.0,phase_2,stop,200.0,200.0,3.0,,,,,,,,,cyan,cross
0.0,5.0,1.0,1.0,6.0,0.0,0.0,3.0,1.0,phase_2,stop,150.0,200.0,4.0,,,,,,,,,orange,triangle
0.0,2.0,2.0,0.0,6.0,6.0,474.6831779998501,3.0,1.0,phase_2,go,150.0,250.0,1.0,,,,,,,,,gray,hexagon
0.0,1.0,1.0,0.0,6.0,6.0,645.2488780000749,3.0,1.0,phase_2,go,150.0,250.0,1.0,,,,,,,,,yellow,circle
0.0,2.0,2.0,0.0,6.0,6.0,467.5877270001365,3.0,1.0,phase_2,go,150.0,250.0,1.0,,,,,,,,,gray,hexagon
0.0,6.0,2.0,1.0,5.0,0.0,0.0,3.0,1.0,phase_2,stop,150.0,250.0,4.0,,,,,,,,,green,flipped triangle
0.0,5.0,1.0,1.0,6.0,0.0,0.0,3.0,1.0,phase_2,stop,200.0,250.0,4.0,,,,,,,,,orange,triangle
0.0,3.0,3.0,0.0,6.0,6.0,503.029978000086,3.0,1.0,phase_2,go,200.0,300.0,1.0,,,,,,,,,blue,diamond
0.0,5.0,1.0,1.0,6.0,0.0,0.0,3.0,1.0,phase_2,stop,200.0,300.0,4.0,,,,,,,,,orange,triangle
0.0,2.0,2.0,0.0,6.0,6.0,594.6968260000176,3.0,1.0,phase_2,go,200.0,350.0,1.0,,,,,,,,,gray,hexagon
0.0,2.0,2.0,0.0,5.0,5.0,312.0404190003683,3.0,1.0,phase_2,go,200.0,350.0,1.0,,,,,,,,,gray,hexagon
0.0,1.0,1.0,0.0,6.0,6.0,477.4328099997547,3.0,1.0,phase_2,go,200.0,350.0,1.0,,,,,,,,,yellow,circle
0.0,8.0,4.0,1.0,6.0,6.0,537.6361499997984,3.0,1.0,phase_2,go,200.0,350.0,1.0,,,,,,,,,cyan,cross
0.0,1.0,1.0,0.0,6.0,6.0,420.2747790000103,3.0,1.0,phase_2,go,200.0,350.0,1.0,,,,,,,,,yellow,circle
0.0,3.0,3.0,0.0,6.0,6.0,354.4805339997765,3.0,1.0,phase_2,go,200.0,350.0,1.0,,,,,,,,,blue,diamond
0.0,7.0,3.0,1.0,5.0,0.0,0.0,3.0,1.0,phase_2,stop,200.0,350.0,4.0,,,,,,,,,white,square
0.0,7.0,3.0,1.0,6.0,6.0,516.3942859999224,3.0,1.0,phase_2,go,250.0,350.0,1.0,,,,,,,,,white,square
0.0,5.0,1.0,1.0,5.0,0.0,0.0,3.0,1.0,phase_2,stop,250.0,350.0,4.0,,,,,,,,,orange,triangle
0.0,3.0,3.0,0.0,5.0,5.0,565.5358610001713,3.0,1.0,phase_2,go,300.0,350.0,1.0,,,,,,,,,blue,diamond
0.0,7.0,3.0,1.0,6.0,6.0,423.8966559996697,3.0,1.0,phase_2,stop,300.0,350.0,3.0,,,,,,,,,white,square
0.0,1.0,1.0,0.0,5.0,5.0,537.5716970002031,3.0,1.0,phase_2,go,300.0,300.0,1.0,,,,,,,,,yellow,circle
0.0,6.0,2.0,1.0,6.0,6.0,464.7725300001184,3.0,1.0,phase_2,go,300.0,300.0,1.0,,,,,,,,,green,flipped triangle
0.0,7.0,3.0,1.0,5.0,5.0,481.8490370003019,3.0,1.0,phase_2,go,300.0,300.0,1.0,,,,,,,,,white,square
0.0,5.0,1.0,1.0,5.0,5.0,543.3627659999729,3.0,1.0,phase_2,go,300.0,300.0,1.0,,,,,,,,,orange,triangle
0.0,4.0,4.0,0.0,5.0,5.0,395.825853000133,3.0,1.0,phase_2,go,300.0,300.0,1.0,,,,,,,,,magenta,I
0.0,8.0,4.0,1.0,6.0,6.0,538.9004399999067,3.0,1.0,phase_2,go,300.0,300.0,1.0,,,,,,,,,cyan,cross
0.0,7.0,3.0,1.0,6.0,0.0,0.0,3.0,1.0,phase_2,stop,300.0,300.0,4.0,,,,,,,,,white,square
0.0,5.0,1.0,1.0,6.0,6.0,459.9366309998913,3.0,1.0,phase_2,go,300.0,350.0,1.0,,,,,,,,,orange,triangle
0.0,2.0,2.0,0.0,5.0,5.0,579.3566970000938,3.0,1.0,phase_2,go,300.0,350.0,1.0,,,,,,,,,gray,hexagon
0.0,5.0,1.0,1.0,6.0,6.0,297.901174999879,3.0,1.0,phase_2,stop,300.0,350.0,3.0,,,,,,,,,orange,triangle
0.0,3.0,3.0,0.0,5.0,5.0,487.0246399996176,3.0,1.0,phase_2,go,300.0,300.0,1.0,,,,,,,,,blue,diamond
0.0,6.0,2.0,1.0,5.0,5.0,446.2540550002813,3.0,1.0,phase_2,go,300.0,300.0,1.0,,,,,,,,,green,flipped triangle
0.0,3.0,3.0,0.0,6.0,6.0,357.0115180000357,4.0,1.0,phase_2,go,300.0,300.0,1.0,,,,,,,,,blue,diamond
0.0,8.0,4.0,1.0,5.0,5.0,281.8433430002187,4.0,1.0,phase_2,stop,300.0,300.0,3.0,,,,,,,,,cyan,cross
0.0,3.0,3.0,0.0,5.0,5.0,474.4344250002541,4.0,1.0,phase_2,go,250.0,300.0,1.0,,,,,,,,,blue,diamond
0.0,3.0,3.0,0.0,6.0,6.0,443.4676909995687,4.0,1.0,phase_2,go,250.0,300.0,1.0,,,,,,,,,blue,diamond
0.0,8.0,4.0,1.0,6.0,6.0,449.7677209997164,4.0,1.0,phase_2,stop,250.0,300.0,3.0,,,,,,,,,cyan,cross
0.0,2.0,2.0,0.0,5.0,5.0,443.8524639999741,4.0,1.0,phase_2,go,250.0,250.0,1.0,,,,,,,,,gray,hexagon
0.0,3.0,3.0,0.0,5.0,5.0,428.3080370000789,4.0,1.0,phase_2,go,250.0,250.0,1.0,,,,,,,,,blue,diamond
0.0,1.0,1.0,0.0,6.0,6.0,404.2535920002592,4.0,1.0,phase_2,go,250.0,250.0,1.0,,,,,,,,,yellow,circle
0.0,5.0,1.0,1.0,6.0,0.0,0.0,4.0,1.0,phase_2,stop,250.0,250.0,4.0,,,,,,,,,orange,triangle
0.0,5.0,1.0,1.0,5.0,0.0,0.0,4.0,1.0,phase_2,stop,250.0,300.0,4.0,,,,,,,,,orange,triangle
0.0,6.0,2.0,1.0,6.0,0.0,0.0,4.0,1.0,phase_2,stop,300.0,300.0,4.0,,,,,,,,,green,flipped triangle
0.0,3.0,3.0,0.0,6.0,6.0,513.9583699997274,4.0,1.0,phase_2,go,300.0,350.0,1.0,,,,,,,,,blue,diamond
0.0,4.0,4.0,0.0,6.0,6.0,378.6699709999084,4.0,1.0,phase_2,go,300.0,350.0,1.0,,,,,,,,,magenta,I
0.0,3.0,3.0,0.0,6.0,6.0,489.4252500002949,4.0,1.0,phase_2,go,300.0,350.0,1.0,,,,,,,,,blue,diamond
0.0,2.0,2.0,0.0,5.0,5.0,429.1561610002645,4.0,1.0,phase_2,go,300.0,350.0,1.0,,,,,,,,,gray,hexagon
0.0,6.0,2.0,1.0,5.0,5.0,340.7036939997852,4.0,1.0,phase_2,stop,300.0,350.0,3.0,,,,,,,,,green,flipped triangle
0.0,8.0,4.0,1.0,5.0,5.0,294.6045179996872,4.0,1.0,phase_2,stop,250.0,350.0,3.0,,,,,,,,,cyan,cross
0.0,7.0,3.0,1.0,5.0,5.0,413.2102020003003,4.0,1.0,phase_2,go,200.0,350.0,1.0,,,,,,,,,white,square
0.0,8.0,4.0,1.0,5.0,0.0,0.0,4.0,1.0,phase_2,stop,200.0,350.0,4.0,,,,,,,,,cyan,cross
0.0,8.0,4.0,1.0,5.0,0.0,0.0,4.0,1.0,phase_2,stop,250.0,350.0,4.0,,,,,,,,,cyan,cross
0.0,7.0,3.0,1.0,6.0,6.0,499.7654070002681,4.0,1.0,phase_2,stop,300.0,350.0,3.0,,,,,,,,,white,square
0.0,2.0,2.0,0.0,5.0,5.0,507.28104900008475,4.0,1.0,phase_2,go,300.0,300.0,1.0,,,,,,,,,gray,hexagon
0.0,7.0,3.0,1.0,6.0,6.0,607.3246820001259,4.0,1.0,phase_2,stop,300.0,300.0,3.0,,,,,,,,,white,square
0.0,8.0,4.0,1.0,6.0,0.0,0.0,4.0,1.0,phase_2,stop,300.0,250.0,4.0,,,,,,,,,cyan,cross
0.0,8.0,4.0,1.0,5.0,0.0,0.0,4.0,1.0,phase_2,stop,300.0,300.0,4.0,,,,,,,,,cyan,cross
0.0,2.0,2.0,0.0,5.0,5.0,594.5905169996877,4.0,1.0,phase_2,go,350.0,300.0,1.0,,,,,,,,,gray,hexagon
0.0,4.0,4.0,0.0,6.0,6.0,594.6618819998548,4.0,1.0,phase_2,go,350.0,300.0,1.0,,,,,,,,,magenta,I
0.0,4.0,4.0,0.0,6.0,6.0,490.8586430001378,4.0,1.0,phase_2,go,350.0,300.0,1.0,,,,,,,,,magenta,I
0.0,2.0,2.0,0.0,5.0,5.0,559.089153000059,4.0,1.0,phase_2,go,350.0,300.0,1.0,,,,,,,,,gray,hexagon
0.0,4.0,4.0,0.0,5.0,5.0,510.2443310001945,4.0,1.0,phase_2,go,350.0,300.0,1.0,,,,,,,,,magenta,I
0.0,6.0,2.0,1.0,6.0,6.0,338.2923719996142,4.0,1.0,phase_2,stop,350.0,300.0,3.0,,,,,,,,,green,flipped triangle
0.0,3.0,3.0,0.0,6.0,6.0,609.9602699996467,4.0,1.0,phase_2,go,350.0,250.0,1.0,,,,,,,,,blue,diamond
0.0,7.0,3.0,1.0,6.0,0.0,0.0,4.0,1.0,phase_2,stop,350.0,250.0,4.0,,,,,,,,,white,square
0.0,3.0,3.0,0.0,6.0,6.0,507.621169000231,4.0,1.0,phase_2,go,350.0,300.0,1.0,,,,,,,,,blue,diamond
0.0,8.0,4.0,1.0,5.0,0.0,0.0,4.0,1.0,phase_2,stop,350.0,300.0,4.0,,,,,,,,,cyan,cross
0.0,3.0,3.0,0.0,5.0,5.0,581.2439769997582,4.0,1.0,phase_2,go,400.0,300.0,1.0,,,,,,,,,blue,diamond
0.0,4.0,4.0,0.0,6.0,6.0,461.4284320000479,5.0,1.0,phase_2,go,400.0,300.0,1.0,,,,,,,,,magenta,I
0.0,6.0,2.0,1.0,5.0,5.0,322.2680140002012,5.0,1.0,phase_2,stop,400.0,300.0,3.0,,,,,,,,,green,flipped triangle
0.0,2.0,2.0,0.0,5.0,5.0,453.2225759999164,5.0,1.0,phase_2,go,350.0,300.0,1.0,,,,,,,,,gray,hexagon
0.0,8.0,4.0,1.0,6.0,6.0,293.8436149997869,5.0,1.0,phase_2,stop,350.0,300.0,3.0,,,,,,,,,cyan,cross
0.0,6.0,2.0,1.0,6.0,6.0,567.8058720000081,5.0,1.0,phase_2,go,350.0,250.0,1.0,,,,,,,,,green,flipped triangle
0.0,4.0,4.0,0.0,6.0,6.0,378.436296000018,5.0,1.0,phase_2,go,350.0,250.0,1.0,,,,,,,,,magenta,I
0.0,2.0,2.0,0.0,5.0,5.0,398.1623709996711,5.0,1.0,phase_2,go,350.0,250.0,1.0,,,,,,,,,gray,hexagon
0.0,2.0,2.0,0.0,6.0,6.0,417.5603029998456,5.0,1.0,phase_2,go,350.0,250.0,1.0,,,,,,,,,gray,hexagon
0.0,2.0,2.0,0.0,6.0,6.0,450.7649490001313,5.0,1.0,phase_2,go,350.0,250.0,1.0,,,,,,,,,gray,hexagon
0.0,6.0,2.0,1.0,5.0,5.0,443.7269049999486,5.0,1.0,phase_2,go,350.0,250.0,1.0,,,,,,,,,green,flipped triangle
0.0,4.0,4.0,0.0,5.0,5.0,346.0315240004092,5.0,1.0,phase_2,go,350.0,250.0,1.0,,,,,,,,,magenta,I
0.0,8.0,4.0,1.0,5.0,5.0,281.1330940003245,5.0,1.0,phase_2,stop,350.0,250.0,3.0,,,,,,,,,cyan,cross
0.0,1.0,1.0,0.0,5.0,5.0,362.4996590001501,5.0,1.0,phase_2,go,300.0,250.0,1.0,,,,,,,,,yellow,circle
0.0,3.0,3.0,0.0,5.0,5.0,369.770284000424,5.0,1.0,phase_2,go,300.0,250.0,1.0,,,,,,,,,blue,diamond
0.0,4.0,4.0,0.0,6.0,6.0,567.543827999998,5.0,1.0,phase_2,go,300.0,250.0,1.0,,,,,,,,,magenta,I
0.0,5.0,1.0,1.0,6.0,6.0,320.4591510002501,5.0,1.0,phase_2,stop,300.0,250.0,3.0,,,,,,,,,orange,triangle
0.0,4.0,4.0,0.0,6.0,6.0,527.6252060002662,5.0,1.0,phase_2,go,300.0,200.0,1.0,,,,,,,,,magenta,I
0.0,1.0,1.0,0.0,6.0,6.0,341.2528359999669,5.0,1.0,phase_2,go,300.0,200.0,1.0,,,,,,,,,yellow,circle
0.0,7.0,3.0,1.0,6.0,6.0,267.6081459999295,5.0,1.0,phase_2,stop,300.0,200.0,3.0,,,,,,,,,white,square
0.0,5.0,1.0,1.0,5.0,5.0,333.2442790001551,5.0,1.0,phase_2,stop,300.0,150.0,3.0,,,,,,,,,orange,triangle
0.0,2.0,2.0,0.0,6.0,6.0,314.7790419998273,5.0,1.0,phase_2,go,250.0,150.0,1.0,,,,,,,,,gray,hexagon
0.0,6.0,2.0,1.0,5.0,0.0,0.0,5.0,1.0,phase_2,stop,250.0,150.0,4.0,,,,,,,,,green,flipped triangle
0.0,8.0,4.0,1.0,6.0,0.0,0.0,5.0,1.0,phase_2,stop,300.0,150.0,4.0,,,,,,,,,cyan,cross
0.0,3.0,3.0,0.0,6.0,6.0,421.6671610001867,5.0,1.0,phase_2,go,300.0,200.0,1.0,,,,,,,,,blue,diamond
0.0,1.0,1.0,0.0,6.0,6.0,529.1047779996916,5.0,1.0,phase_2,go,300.0,200.0,1.0,,,,,,,,,yellow,circle
0.0,8.0,4.0,1.0,5.0,5.0,447.7492589999201,5.0,1.0,phase_2,stop,300.0,200.0,3.0,,,,,,,,,cyan,cross
0.0,2.0,2.0,0.0,6.0,6.0,313.5383449998699,5.0,1.0,phase_2,go,250.0,200.0,1.0,,,,,,,,,gray,hexagon
0.0,5.0,1.0,1.0,6.0,0.0,0.0,5.0,1.0,phase_2,stop,250.0,200.0,4.0,,,,,,,,,orange,triangle
0.0,6.0,2.0,1.0,6.0,0.0,0.0,5.0,1.0,phase_2,stop,250.0,250.0,4.0,,,,,,,,,green,flipped triangle
0.0,4.0,4.0,0.0,5.0,5.0,581.9900779997624,5.0,1.0,phase_2,go,250.0,300.0,1.0,,,,,,,,,magenta,I
0.0,8.0,4.0,1.0,6.0,0.0,0.0,5.0,1.0,phase_2,stop,250.0,300.0,4.0,,,,,,,,,cyan,cross
0.0,5.0,1.0,1.0,5.0,0.0,0.0,5.0,1.0,phase_2,stop,250.0,350.0,4.0,,,,,,,,,orange,triangle
0.0,2.0,2.0,0.0,6.0,6.0,540.2469440000459,5.0,1.0,phase_2,go,300.0,350.0,1.0,,,,,,,,,gray,hexagon
0.0,1.0,1.0,0.0,6.0,6.0,482.5092119999681,5.0,1.0,phase_2,go,300.0,350.0,1.0,,,,,,,,,yellow,circle
0.0,2.0,2.0,0.0,6.0,6.0,545.8105699999578,5.0,1.0,phase_2,go,300.0,350.0,1.0,,,,,,,,,gray,hexagon
0.0,7.0,3.0,1.0,6.0,6.0,516.6989499998635,5.0,1.0,phase_2,stop,300.0,350.0,3.0,,,,,,,,,white,square
0.0,3.0,3.0,0.0,6.0,6.0,354.6252589999312,6.0,1.0,phase_2,go,300.0,300.0,1.0,,,,,,,,,blue,diamond
0.0,4.0,4.0,0.0,5.0,5.0,363.9193460003298,6.0,1.0,phase_2,go,300.0,300.0,1.0,,,,,,,,,magenta,I
0.0,3.0,3.0,0.0,5.0,5.0,449.1541889997279,6.0,1.0,phase_2,go,300.0,300.0,1.0,,,,,,,,,blue,diamond
0.0,8.0,4.0,1.0,5.0,0.0,0.0,6.0,1.0,phase_2,stop,300.0,300.0,4.0,,,,,,,,,cyan,cross
0.0,5.0,1.0,1.0,5.0,5.0,553.9471129995945,6.0,1.0,phase_2,go,350.0,300.0,1.0,,,,,,,,,orange,triangle
0.0,1.0,1.0,0.0,5.0,5.0,472.8214870001466,6.0,1.0,phase_2,go,350.0,300.0,1.0,,,,,,,,,yellow,circle
0.0,1.0,1.0,0.0,6.0,6.0,449.9467420000655,6.0,1.0,phase_2,go,350.0,300.0,1.0,,,,,,,,,yellow,circle
0.0,7.0,3.0,1.0,6.0,0.0,0.0,6.0,1.0,phase_2,stop,350.0,300.0,4.0,,,,,,,,,white,square
0.0,1.0,1.0,0.0,5.0,5.0,370.350074000271,6.0,1.0,phase_2,go,350.0,350.0,1.0,,,,,,,,,yellow,circle
0.0,3.0,3.0,0.0,6.0,6.0,449.4919600001594,6.0,1.0,phase_2,go,350.0,350.0,1.0,,,,,,,,,blue,diamond
0.0,5.0,1.0,1.0,5.0,0.0,0.0,6.0,1.0,phase_2,stop,350.0,350.0,4.0,,,,,,,,,orange,triangle
0.0,7.0,3.0,1.0,6.0,6.0,510.10199399979683,6.0,1.0,phase_2,go,400.0,350.0,1.0,,,,,,,,,white,square
0.0,7.0,3.0,1.0,5.0,5.0,508.351703000244,6.0,1.0,phase_2,stop,400.0,350.0,3.0,,,,,,,,,white,square
0.0,4.0,4.0,0.0,6.0,6.0,554.3797199998153,6.0,1.0,phase_2,go,350.0,350.0,1.0,,,,,,,,,magenta,I
0.0,6.0,2.0,1.0,5.0,0.0,0.0,6.0,1.0,phase_2,stop,350.0,350.0,4.0,,,,,,,,,green,flipped triangle
0.0,4.0,4.0,0.0,5.0,5.0,428.8759539999773,6.0,1.0,phase_2,go,400.0,350.0,1.0,,,,,,,,,magenta,I
0.0,3.0,3.0,0.0,6.0,6.0,634.7936570000456,6.0,1.0,phase_2,go,400.0,350.0,1.0,,,,,,,,,blue,diamond
0.0,4.0,4.0,0.0,5.0,5.0,535.6840080003167,6.0,1.0,phase_2,go,400.0,350.0,1.0,,,,,,,,,magenta,I
0.0,6.0,2.0,1.0,6.0,0.0,0.0,6.0,1.0,phase_2,stop,400.0,350.0,4.0,,,,,,,,,green,flipped triangle
0.0,7.0,3.0,1.0,6.0,6.0,396.1267409999891,6.0,1.0,phase_2,stop,400.0,400.0,3.0,,,,,,,,,white,square
0.0,8.0,4.0,1.0,5.0,5.0,539.1503099999682,6.0,1.0,phase_2,go,400.0,350.0,1.0,,,,,,,,,cyan,cross
0.0,2.0,2.0,0.0,6.0,6.0,528.7849719998121,6.0,1.0,phase_2,go,400.0,350.0,1.0,,,,,,,,,gray,hexagon
0.0,7.0,3.0,1.0,5.0,0.0,0.0,6.0,1.0,phase_2,stop,400.0,350.0,4.0,,,,,,,,,white,square
0.0,7.0,3.0,1.0,6.0,6.0,403.8457760002529,6.0,1.0,phase_2,stop,450.0,350.0,3.0,,,,,,,,,white,square
0.0,5.0,1.0,1.0,6.0,0.0,0.0,6.0,1.0,phase_2,stop,450.0,300.0,4.0,,,,,,,,,orange,triangle
0.0,7.0,3.0,1.0,5.0,5.0,514.7508830000334,6.0,1.0,phase_2,go,450.0,350.0,1.0,,,,,,,,,white,square
0.0,6.0,2.0,1.0,5.0,0.0,0.0,6.0,1.0,phase_2,stop,450.0,350.0,4.0,,,,,,,,,green,flipped triangle
0.0,1.0,1.0,0.0,6.0,6.0,557.4047089999112,6.0,1.0,phase_2,go,500.0,350.0,1.0,,,,,,,,,yellow,circle
0.0,5.0,1.0,1.0,5.0,5.0,1068.054002000281,6.0,1.0,phase_2,go,500.0,350.0,1.0,,,,,,,,,orange,triangle
0.0,2.0,2.0,0.0,6.0,6.0,364.6053050001683,6.0,1.0,phase_2,go,500.0,350.0,1.0,,,,,,,,,gray,hexagon
0.0,6.0,2.0,1.0,5.0,5.0,541.9005370004015,6.0,1.0,phase_2,stop,500.0,350.0,3.0,,,,,,,,,green,flipped triangle
0.0,1.0,1.0,0.0,6.0,6.0,486.4578259998779,6.0,1.0,phase_2,go,450.0,350.0,1.0,,,,,,,,,yellow,circle
0.0,4.0,4.0,0.0,5.0,5.0,476.7999640002927,6.0,1.0,phase_2,go,450.0,350.0,1.0,,,,,,,,,magenta,I
0.0,4.0,4.0,0.0,6.0,6.0,500.3480710001895,6.0,1.0,phase_2,go,450.0,350.0,1.0,,,,,,,,,magenta,I
0.0,5.0,1.0,1.0,6.0,0.0,0.0,6.0,1.0,phase_2,stop,450.0,350.0,4.0,,,,,,,,,orange,triangle
0.0,8.0,4.0,1.0,5.0,5.0,531.2444559999676,6.0,1.0,phase_2,go,450.0,400.0,1.0,,,,,,,,,cyan,cross
0.0,1.0,1.0,0.0,5.0,5.0,355.759634000151,7.0,1.0,phase_2,go,450.0,400.0,1.0,,,,,,,,,yellow,circle
0.0,1.0,1.0,0.0,6.0,6.0,414.4479400001728,7.0,1.0,phase_2,go,450.0,400.0,1.0,,,,,,,,,yellow,circle
0.0,5.0,1.0,1.0,5.0,5.0,490.8934679997401,7.0,1.0,phase_2,stop,450.0,400.0,3.0,,,,,,,,,orange,triangle
0.0,5.0,1.0,1.0,6.0,0.0,0.0,7.0,1.0,phase_2,stop,400.0,400.0,4.0,,,,,,,,,orange,triangle
0.0,4.0,4.0,0.0,5.0,5.0,460.3242910002336,7.0,1.0,phase_2,go,400.0,450.0,1.0,,,,,,,,,magenta,I
0.0,4.0,4.0,0.0,6.0,6.0,543.9269249995959,7.0,1.0,phase_2,go,400.0,450.0,1.0,,,,,,,,,magenta,I
0.0,6.0,2.0,1.0,6.0,6.0,491.8192310001359,7.0,1.0,phase_2,stop,400.0,450.0,3.0,,,,,,,,,green,flipped triangle
0.0,3.0,3.0,0.0,5.0,5.0,413.2448539999132,7.0,1.0,phase_2,go,400.0,400.0,1.0,,,,,,,,,blue,diamond
0.0,4.0,4.0,0.0,5.0,5.0,422.1824199998991,7.0,1.0,phase_2,go,400.0,400.0,1.0,,,,,,,,,magenta,I
0.0,8.0,4.0,1.0,6.0,0.0,0.0,7.0,1.0,phase_2,stop,400.0,400.0,4.0,,,,,,,,,cyan,cross
0.0,7.0,3.0,1.0,5.0,0.0,0.0,7.0,1.0,phase_2,stop,400.0,450.0,4.0,,,,,,,,,white,square
0.0,7.0,3.0,1.0,6.0,6.0,540.7296130001669,7.0,1.0,phase_2,stop,450.0,450.0,3.0,,,,,,,,,white,square
0.0,4.0,4.0,0.0,5.0,5.0,426.50576799997,7.0,1.0,phase_2,go,450.0,400.0,1.0,,,,,,,,,magenta,I
0.0,2.0,2.0,0.0,6.0,6.0,581.728523000038,7.0,1.0,phase_2,go,450.0,400.0,1.0,,,,,,,,,gray,hexagon
0.0,4.0,4.0,0.0,5.0,5.0,655.5579500000022,7.0,1.0,phase_2,go,450.0,400.0,1.0,,,,,,,,,magenta,I
0.0,3.0,3.0,0.0,5.0,5.0,648.2113789998039,7.0,1.0,phase_2,go,450.0,400.0,1.0,,,,,,,,,blue,diamond
0.0,1.0,1.0,0.0,5.0,5.0,346.9559549998848,7.0,1.0,phase_2,go,450.0,400.0,1.0,,,,,,,,,yellow,circle
0.0,6.0,2.0,1.0,5.0,5.0,486.6066990002764,7.0,1.0,phase_2,go,450.0,400.0,1.0,,,,,,,,,green,flipped triangle
0.0,2.0,2.0,0.0,6.0,6.0,665.8950480000385,7.0,1.0,phase_2,go,450.0,400.0,1.0,,,,,,,,,gray,hexagon
0.0,6.0,2.0,1.0,5.0,5.0,443.3701439998003,7.0,1.0,phase_2,stop,450.0,400.0,3.0,,,,,,,,,green,flipped triangle
0.0,8.0,4.0,1.0,5.0,5.0,518.9585590001116,7.0,1.0,phase_2,go,400.0,400.0,1.0,,,,,,,,,cyan,cross
0.0,6.0,2.0,1.0,6.0,6.0,460.2245949999997,7.0,1.0,phase_2,go,400.0,400.0,1.0,,,,,,,,,green,flipped triangle
0.0,6.0,2.0,1.0,6.0,0.0,0.0,7.0,1.0,phase_2,stop,400.0,400.0,4.0,,,,,,,,,green,flipped triangle
0.0,8.0,4.0,1.0,5.0,5.0,494.1599280000446,7.0,1.0,phase_2,stop,400.0,450.0,3.0,,,,,,,,,cyan,cross
0.0,1.0,1.0,0.0,5.0,5.0,536.4390780000576,7.0,1.0,phase_2,go,350.0,450.0,1.0,,,,,,,,,yellow,circle
0.0,3.0,3.0,0.0,6.0,6.0,568.2252050000898,7.0,1.0,phase_2,go,350.0,450.0,1.0,,,,,,,,,blue,diamond
0.0,5.0,1.0,1.0,5.0,5.0,576.6888040002414,7.0,1.0,phase_2,go,350.0,450.0,1.0,,,,,,,,,orange,triangle
0.0,1.0,1.0,0.0,5.0,5.0,673.2377729999826,7.0,1.0,phase_2,go,350.0,450.0,1.0,,,,,,,,,yellow,circle
0.0,4.0,4.0,0.0,6.0,6.0,473.6631800001305,7.0,1.0,phase_2,go,350.0,450.0,1.0,,,,,,,,,magenta,I
0.0,1.0,1.0,0.0,5.0,5.0,430.061458000182,7.0,1.0,phase_2,go,350.0,450.0,1.0,,,,,,,,,yellow,circle
0.0,1.0,1.0,0.0,6.0,6.0,500.37782700019307,7.0,1.0,phase_2,go,350.0,450.0,1.0,,,,,,,,,yellow,circle
0.0,2.0,2.0,0.0,5.0,5.0,418.2249150003372,7.0,1.0,phase_2,go,350.0,450.0,1.0,,,,,,,,,gray,hexagon
0.0,6.0,2.0,1.0,6.0,6.0,555.1779329998681,7.0,1.0,phase_2,go,350.0,450.0,1.0,,,,,,,,,green,flipped triangle
0.0,7.0,3.0,1.0,5.0,5.0,478.875834000064,7.0,1.0,phase_2,stop,350.0,450.0,3.0,,,,,,,,,white,square
0.0,7.0,3.0,1.0,5.0,5.0,554.9035260000892,7.0,1.0,phase_2,go,300.0,450.0,1.0,,,,,,,,,white,square
0.0,3.0,3.0,0.0,5.0,5.0,570.2247210001588,7.0,1.0,phase_2,go,300.0,450.0,1.0,,,,,,,,,blue,diamond
0.0,6.0,2.0,1.0,6.0,6.0,416.3477960000818,8.0,1.0,phase_2,stop,300.0,450.0,3.0,,,,,,,,,green,flipped triangle
0.0,4.0,4.0,0.0,6.0,6.0,475.354538999909,8.0,1.0,phase_2,go,300.0,400.0,1.0,,,,,,,,,magenta,I
0.0,4.0,4.0,0.0,6.0,6.0,507.84652800030017,8.0,1.0,phase_2,go,300.0,400.0,1.0,,,,,,,,,magenta,I
0.0,6.0,2.0,1.0,6.0,6.0,395.5652350000491,8.0,1.0,phase_2,stop,300.0,400.0,3.0,,,,,,,,,green,flipped triangle
0.0,1.0,1.0,0.0,6.0,6.0,450.8806730000287,8.0,1.0,phase_2,go,300.0,350.0,1.0,,,,,,,,,yellow,circle
0.0,2.0,2.0,0.0,6.0,6.0,470.7834720002211,8.0,1.0,phase_2,go,300.0,350.0,1.0,,,,,,,,,gray,hexagon
0.0,5.0,1.0,1.0,5.0,5.0,336.3346490000367,8.0,1.0,phase_2,stop,300.0,350.0,3.0,,,,,,,,,orange,triangle
0.0,4.0,4.0,0.0,5.0,5.0,362.3499539999102,8.0,1.0,phase_2,go,250.0,350.0,1.0,,,,,,,,,magenta,I
0.0,7.0,3.0,1.0,6.0,0.0,0.0,8.0,1.0,phase_2,stop,250.0,350.0,4.0,,,,,,,,,white,square
0.0,7.0,3.0,1.0,6.0,6.0,562.7192179999838,8.0,1.0,phase_2,stop,250.0,400.0,3.0,,,,,,,,,white,square
0.0,3.0,3.0,0.0,6.0,6.0,569.5294310003192,8.0,1.0,phase_2,go,250.0,350.0,1.0,,,,,,,,,blue,diamond
0.0,1.0,1.0,0.0,5.0,5.0,552.8445989998545,8.0,1.0,phase_2,go,250.0,350.0,1.0,,,,,,,,,yellow,circle
0.0,4.0,4.0,0.0,6.0,6.0,511.66047300011996,8.0,1.0,phase_2,go,250.0,350.0,1.0,,,,,,,,,magenta,I
0.0,6.0,2.0,1.0,6.0,6.0,515.4838510002264,8.0,1.0,phase_2,stop,250.0,350.0,3.0,,,,,,,,,green,flipped triangle
0.0,2.0,2.0,0.0,6.0,6.0,595.3963639999529,8.0,1.0,phase_2,go,250.0,300.0,1.0,,,,,,,,,gray,hexagon
0.0,7.0,3.0,1.0,5.0,5.0,624.232805000247,8.0,1.0,phase_2,go,250.0,300.0,1.0,,,,,,,,,white,square
0.0,5.0,1.0,1.0,6.0,6.0,387.3287060000621,8.0,1.0,phase_2,go,250.0,300.0,1.0,,,,,,,,,orange,triangle
0.0,2.0,2.0,0.0,5.0,5.0,567.3125959997378,8.0,1.0,phase_2,go,250.0,300.0,1.0,,,,,,,,,gray,hexagon
0.0,3.0,3.0,0.0,5.0,5.0,569.9435749997974,8.0,1.0,phase_2,go,250.0,300.0,1.0,,,,,,,,,blue,diamond
0.0,3.0,3.0,0.0,5.0,5.0,562.5614669997958,8.0,1.0,phase_2,go,250.0,300.0,1.0,,,,,,,,,blue,diamond
0.0,2.0,2.0,0.0,5.0,5.0,921.1073790002048,8.0,1.0,phase_2,go,250.0,300.0,1.0,,,,,,,,,gray,hexagon
0.0,3.0,3.0,0.0,5.0,5.0,679.3777060001958,8.0,1.0,phase_2,go,250.0,300.0,1.0,,,,,,,,,blue,diamond
0.0,6.0,2.0,1.0,5.0,5.0,1200.249889999668,8.0,1.0,phase_2,go,250.0,300.0,1.0,,,,,,,,,green,flipped triangle
0.0,5.0,1.0,1.0,5.0,0.0,0.0,8.0,1.0,phase_2,stop,250.0,300.0,4.0,,,,,,,,,orange,triangle
0.0,3.0,3.0,0.0,6.0,6.0,529.9419000002672,8.0,1.0,phase_2,go,300.0,300.0,1.0,,,,,,,,,blue,diamond
0.0,8.0,4.0,1.0,5.0,0.0,0.0,8.0,1.0,phase_2,stop,300.0,300.0,4.0,,,,,,,,,cyan,cross
0.0,8.0,4.0,1.0,6.0,6.0,646.7344070001673,8.0,1.0,phase_2,go,350.0,300.0,1.0,,,,,,,,,cyan,cross
0.0,7.0,3.0,1.0,5.0,0.0,0.0,8.0,1.0,phase_2,stop,350.0,300.0,4.0,,,,,,,,,white,square
0.0,8.0,4.0,1.0,6.0,0.0,0.0,8.0,1.0,phase_2,stop,400.0,300.0,4.0,,,,,,,,,cyan,cross
0.0,1.0,1.0,0.0,6.0,6.0,634.7560170001998,8.0,1.0,phase_2,go,400.0,350.0,1.0,,,,,,,,,yellow,circle
0.0,4.0,4.0,0.0,6.0,6.0,816.575467000348,8.0,1.0,phase_2,go,400.0,350.0,1.0,,,,,,,,,magenta,I
0.0,8.0,4.0,1.0,6.0,0.0,0.0,8.0,1.0,phase_2,stop,400.0,350.0,4.0,,,,,,,,,cyan,cross
0.0,5.0,1.0,1.0,6.0,0.0,0.0,8.0,1.0,phase_2,stop,400.0,400.0,4.0,,,,,,,,,orange,triangle
0.0,1.0,1.0,0.0,5.0,5.0,626.2651530000767,8.0,1.0,phase_2,go,400.0,450.0,1.0,,,,,,,,,yellow,circle
0.0,7.0,3.0,1.0,5.0,0.0,0.0,8.0,1.0,phase_2,stop,400.0,450.0,4.0,,,,,,,,,white,square
0.0,6.0,2.0,1.0,6.0,6.0,709.5745139999963,8.0,1.0,phase_2,go,450.0,450.0,1.0,,,,,,,,,green,flipped triangle
0.0,3.0,3.0,0.0,7.0,4.0,3067.581020000034,1.0,1.0,phase_3,,,,,220.0,5.0,132.0,44.0,176.0,220.0,264.0,88.0,blue,diamond
0.0,3.0,3.0,0.0,7.0,2.0,4984.642784999778,1.0,1.0,phase_3,,,,,245.0,5.0,147.0,245.0,294.0,49.0,196.0,98.0,blue,diamond
0.0,3.0,3.0,0.0,7.0,1.0,909.0270900005636,1.0,2.0,phase_3,,,,,195.0,5.0,195.0,39.0,234.0,117.0,156.0,78.0,blue,diamond
0.0,7.0,3.0,1.0,7.0,4.0,1743.0343420001009,1.0,1.0,phase_3,,,,,49.0,1.0,98.0,147.0,245.0,49.0,294.0,196.0,white,square
0.0,2.0,2.0,0.0,7.0,6.0,3319.123519000641,1.0,1.0,phase_3,,,,,136.0,4.0,170.0,34.0,204.0,102.0,68.0,136.0,gray,hexagon
0.0,1.0,1.0,0.0,7.0,2.0,2737.8642339999715,1.0,1.0,phase_3,,,,,294.0,6.0,245.0,294.0,49.0,147.0,196.0,98.0,yellow,circle
0.0,6.0,2.0,1.0,7.0,5.0,2299.820393000118,1.0,1.0,phase_3,,,,,102.0,3.0,136.0,34.0,170.0,204.0,102.0,68.0,green,flipped triangle
0.0,4.0,4.0,0.0,7.0,3.0,3084.7574629997325,1.0,1.0,phase_3,,,,,196.0,4.0,98.0,49.0,196.0,245.0,147.0,294.0,magenta,I
0.0,8.0,4.0,1.0,7.0,5.0,3494.213963999755,1.0,1.0,phase_3,,,,,78.0,2.0,195.0,117.0,39.0,234.0,78.0,156.0,cyan,cross
0.0,5.0,1.0,1.0,7.0,5.0,1616.0640030002469,1.0,1.0,phase_3,,,,,34.0,1.0,102.0,204.0,136.0,68.0,34.0,170.0,orange,triangle
0.0,8.0,4.0,1.0,7.0,6.0,2101.4639239992903,1.0,1.0,phase_3,,,,,39.0,1.0,78.0,195.0,117.0,156.0,234.0,39.0,cyan,cross
0.0,7.0,3.0,1.0,7.0,2.0,2380.943023999862,1.0,1.0,phase_3,,,,,102.0,3.0,170.0,102.0,68.0,136.0,34.0,204.0,white,square
0.0,3.0,3.0,0.0,7.0,6.0,1091.6567210006178,1.0,2.0,phase_3,,,,,195.0,5.0,39.0,78.0,234.0,117.0,156.0,195.0,blue,diamond
0.0,1.0,1.0,0.0,7.0,3.0,1428.1508140002188,1.0,1.0,phase_3,,,,,176.0,4.0,88.0,264.0,176.0,132.0,220.0,44.0,yellow,circle
0.0,4.0,4.0,0.0,7.0,4.0,2548.11041999983,1.0,1.0,phase_3,,,,,78.0,2.0,195.0,234.0,117.0,78.0,156.0,39.0,magenta,I
0.0,7.0,3.0,1.0,7.0,5.0,2109.440234999965,1.0,1.0,phase_3,,,,,132.0,3.0,264.0,176.0,220.0,44.0,132.0,88.0,white,square
0.0,8.0,4.0,1.0,7.0,2.0,1609.629192000284,1.0,1.0,phase_3,,,,,68.0,2.0,34.0,68.0,102.0,204.0,136.0,170.0,cyan,cross
0.0,2.0,2.0,0.0,7.0,4.0,1745.262077000007,1.0,1.0,phase_3,,,,,39.0,1.0,195.0,156.0,234.0,39.0,117.0,78.0,gray,hexagon
0.0,6.0,2.0,1.0,7.0,3.0,1153.8062609997723,1.0,1.0,phase_3,,,,,245.0,5.0,196.0,147.0,245.0,98.0,294.0,49.0,green,flipped triangle
0.0,7.0,3.0,1.0,7.0,4.0,1353.5120449996612,1.0,1.0,phase_3,,,,,216.0,4.0,324.0,54.0,162.0,216.0,108.0,270.0,white,square
0.0,4.0,4.0,0.0,7.0,3.0,1920.6294169998728,2.0,1.0,phase_3,,,,,54.0,1.0,270.0,324.0,54.0,162.0,108.0,216.0,magenta,I
0.0,3.0,3.0,0.0,7.0,5.0,1913.7663049996263,2.0,1.0,phase_3,,,,,162.0,3.0,54.0,270.0,216.0,108.0,162.0,324.0,blue,diamond
0.0,3.0,3.0,0.0,7.0,6.0,2429.1077959996983,2.0,1.0,phase_3,,,,,216.0,4.0,162.0,270.0,54.0,108.0,324.0,216.0,blue,diamond
0.0,1.0,1.0,0.0,7.0,6.0,2043.0145129994344,2.0,1.0,phase_3,,,,,204.0,6.0,102.0,170.0,136.0,34.0,68.0,204.0,yellow,circle
0.0,1.0,1.0,0.0,7.0,5.0,785.156994999852,2.0,1.0,phase_3,,,,,204.0,6.0,68.0,102.0,34.0,170.0,204.0,136.0,yellow,circle
0.0,2.0,2.0,0.0,7.0,5.0,1163.6364589994628,2.0,1.0,phase_3,,,,,34.0,1.0,68.0,102.0,170.0,204.0,34.0,136.0,gray,hexagon
0.0,8.0,4.0,1.0,7.0,4.0,1867.6279990004327,2.0,1.0,phase_3,,,,,49.0,1.0,245.0,98.0,196.0,49.0,147.0,294.0,cyan,cross
0.0,6.0,2.0,1.0,7.0,4.0,1819.2549489995145,2.0,1.0,phase_3,,,,,264.0,6.0,44.0,220.0,132.0,264.0,88.0,176.0,green,flipped triangle
0.0,5.0,1.0,1.0,7.0,3.0,1690.6609320003554,2.0,1.0,phase_3,,,,,98.0,2.0,294.0,49.0,98.0,147.0,196.0,245.0,orange,triangle
0.0,1.0,1.0,0.0,7.0,2.0,2302.3030869999275,2.0,1.0,phase_3,,,,,176.0,4.0,264.0,176.0,44.0,220.0,88.0,132.0,yellow,circle
0.0,8.0,4.0,1.0,7.0,4.0,2173.4328249995087,2.0,1.0,phase_3,,,,,54.0,1.0,324.0,108.0,162.0,54.0,216.0,270.0,cyan,cross
0.0,1.0,1.0,0.0,7.0,2.0,2711.506933999772,2.0,1.0,phase_3,,,,,216.0,4.0,270.0,216.0,108.0,324.0,54.0,162.0,yellow,circle
0.0,6.0,2.0,1.0,7.0,5.0,1369.066794999526,2.0,1.0,phase_3,,,,,234.0,6.0,117.0,156.0,39.0,78.0,234.0,195.0,green,flipped triangle
0.0,5.0,1.0,1.0,7.0,3.0,1353.3330849995764,2.0,1.0,phase_3,,,,,132.0,3.0,220.0,88.0,132.0,44.0,176.0,264.0,orange,triangle
0.0,8.0,4.0,1.0,7.0,4.0,955.6260630006363,2.0,1.0,phase_3,,,,,49.0,1.0,294.0,196.0,98.0,49.0,245.0,147.0,cyan,cross
0.0,7.0,3.0,1.0,7.0,4.0,1850.9798510003748,2.0,1.0,phase_3,,,,,196.0,4.0,294.0,49.0,98.0,196.0,147.0,245.0,white,square
0.0,4.0,4.0,0.0,7.0,1.0,1837.897600999895,2.0,1.0,phase_3,,,,,68.0,2.0,68.0,34.0,204.0,136.0,170.0,102.0,magenta,I
0.0,7.0,3.0,1.0,7.0,5.0,1839.795740000227,2.0,1.0,phase_3,,,,,176.0,4.0,220.0,44.0,264.0,132.0,176.0,88.0,white,square
0.0,1.0,1.0,0.0,7.0,6.0,2362.8102129996482,2.0,1.0,phase_3,,,,,156.0,4.0,39.0,117.0,234.0,195.0,78.0,156.0,yellow,circle
0.0,5.0,1.0,1.0,7.0,1.0,1488.3703030000106,2.0,1.0,phase_3,,,,,88.0,2.0,88.0,44.0,176.0,132.0,220.0,264.0,orange,triangle
0.0,6.0,2.0,1.0,7.0,2.0,3419.551717000104,3.0,1.0,phase_3,,,,,294.0,6.0,245.0,294.0,98.0,147.0,49.0,196.0,green,flipped triangle
0.0,7.0,3.0,1.0,7.0,1.0,1997.0971419998025,3.0,1.0,phase_3,,,,,204.0,6.0,204.0,136.0,170.0,102.0,68.0,34.0,white,square
0.0,8.0,4.0,1.0,7.0,2.0,2027.7438769999208,3.0,1.0,phase_3,,,,,34.0,1.0,68.0,34.0,136.0,170.0,204.0,102.0,cyan,cross
0.0,5.0,1.0,1.0,7.0,3.0,1335.906509999404,3.0,1.0,phase_3,,,,,136.0,4.0,170.0,102.0,136.0,204.0,68.0,34.0,orange,triangle
0.0,2.0,2.0,0.0,7.0,3.0,1880.0045560001308,3.0,1.0,phase_3,,,,,54.0,1.0,162.0,216.0,54.0,108.0,324.0,270.0,gray,hexagon
0.0,8.0,4.0,1.0,7.0,3.0,2589.8487129998102,3.0,1.0,phase_3,,,,,88.0,2.0,132.0,220.0,88.0,176.0,44.0,264.0,cyan,cross
0.0,5.0,1.0,1.0,7.0,5.0,2155.9424919996677,3.0,1.0,phase_3,,,,,156.0,4.0,39.0,195.0,117.0,234.0,156.0,78.0,orange,triangle
0.0,6.0,2.0,1.0,7.0,4.0,2314.2769910000425,3.0,1.0,phase_3,,,,,324.0,6.0,270.0,216.0,54.0,324.0,108.0,162.0,green,flipped triangle
0.0,6.0,2.0,1.0,7.0,3.0,2767.538806999255,3.0,1.0,phase_3,,,,,234.0,6.0,195.0,156.0,234.0,117.0,78.0,39.0,green,flipped triangle
0.0,4.0,4.0,0.0,7.0,5.0,2171.2279329995,3.0,1.0,phase_3,,,,,88.0,2.0,220.0,132.0,44.0,176.0,88.0,264.0,magenta,I
0.0,5.0,1.0,1.0,7.0,1.0,2246.7407410003943,3.0,1.0,phase_3,,,,,108.0,2.0,108.0,270.0,162.0,216.0,324.0,54.0,orange,triangle
0.0,5.0,1.0,1.0,7.0,5.0,1964.7453670004325,3.0,1.0,phase_3,,,,,117.0,3.0,195.0,78.0,234.0,39.0,117.0,156.0,orange,triangle
0.0,8.0,4.0,1.0,7.0,1.0,2542.1549980001146,3.0,1.0,phase_3,,,,,88.0,2.0,88.0,264.0,132.0,44.0,220.0,176.0,cyan,cross
0.0,2.0,2.0,0.0,7.0,6.0,1929.3371419998948,3.0,1.0,phase_3,,,,,49.0,1.0,147.0,245.0,294.0,98.0,196.0,49.0,gray,hexagon
0.0,2.0,2.0,0.0,7.0,3.0,1726.9657470005768,3.0,1.0,phase_3,,,,,44.0,1.0,132.0,264.0,44.0,88.0,220.0,176.0,gray,hexagon
0.0,1.0,1.0,0.0,7.0,5.0,3608.2737340002495,3.0,1.0,phase_3,,,,,195.0,5.0,78.0,156.0,117.0,234.0,195.0,39.0,yellow,circle
0.0,7.0,3.0,1.0,7.0,4.0,4025.6733670003086,3.0,1.0,phase_3,,,,,324.0,6.0,54.0,270.0,108.0,324.0,162.0,216.0,white,square
0.0,5.0,1.0,1.0,7.0,1.0,2336.123105999832,3.0,1.0,phase_3,,,,,270.0,5.0,270.0,162.0,324.0,54.0,108.0,216.0,orange,triangle
0.0,4.0,4.0,0.0,7.0,5.0,1850.3823470000495,3.0,1.0,phase_3,,,,,78.0,2.0,234.0,39.0,195.0,156.0,78.0,117.0,magenta,I
0.0,7.0,3.0,1.0,7.0,2.0,1672.7875670003414,3.0,1.0,phase_3,,,,,195.0,5.0,78.0,195.0,39.0,156.0,117.0,234.0,white,square
0.0,4.0,4.0,0.0,7.0,3.0,2900.3642119996584,4.0,1.0,phase_3,,,,,98.0,2.0,294.0,49.0,98.0,147.0,196.0,245.0,magenta,I
0.0,2.0,2.0,0.0,7.0,2.0,1527.6522459998887,4.0,1.0,phase_3,,,,,49.0,1.0,196.0,49.0,294.0,147.0,245.0,98.0,gray,hexagon
0.0,3.0,3.0,0.0,7.0,3.0,3849.738465999508,4.0,1.0,phase_3,,,,,245.0,5.0,147.0,49.0,245.0,294.0,98.0,196.0,blue,diamond
0.0,4.0,4.0,0.0,7.0,6.0,2025.3878509993228,4.0,1.0,phase_3,,,,,68.0,2.0,136.0,170.0,102.0,34.0,204.0,68.0,magenta,I
0.0,1.0,1.0,0.0,7.0,3.0,1448.1197899995095,4.0,1.0,phase_3,,,,,196.0,4.0,147.0,245.0,196.0,49.0,98.0,294.0,yellow,circle
0.0,8.0,4.0,1.0,7.0,4.0,3023.5140100003264,4.0,1.0,phase_3,,,,,54.0,1.0,108.0,324.0,270.0,54.0,162.0,216.0,cyan,cross
0.0,1.0,1.0,0.0,7.0,4.0,1813.5298229999532,4.0,1.0,phase_3,,,,,216.0,4.0,108.0,162.0,324.0,216.0,54.0,270.0,yellow,circle
0.0,5.0,1.0,1.0,7.0,3.0,1564.7868930000186,4.0,1.0,phase_3,,,,,147.0,3.0,49.0,294.0,147.0,245.0,196.0,98.0,orange,triangle
0.0,2.0,2.0,0.0,7.0,1.0,1530.9326200003852,4.0,1.0,phase_3,,,,,39.0,1.0,39.0,117.0,78.0,156.0,195.0,234.0,gray,hexagon
0.0,6.0,2.0,1.0,7.0,3.0,1676.620967999952,4.0,1.0,phase_3,,,,,204.0,6.0,68.0,34.0,204.0,102.0,170.0,136.0,green,flipped triangle
0.0,3.0,3.0,0.0,7.0,4.0,1110.7031470000948,4.0,1.0,phase_3,,,,,264.0,6.0,44.0,88.0,132.0,264.0,220.0,176.0,blue,diamond
0.0,6.0,2.0,1.0,7.0,4.0,1526.294246999896,4.0,1.0,phase_3,,,,,270.0,5.0,108.0,162.0,216.0,270.0,324.0,54.0,green,flipped triangle
0.0,4.0,4.0,0.0,7.0,2.0,3440.002358999664,4.0,1.0,phase_3,,,,,108.0,2.0,216.0,108.0,162.0,54.0,324.0,270.0,magenta,I
0.0,3.0,3.0,0.0,7.0,1.0,2554.0658010004336,4.0,1.0,phase_3,,,,,204.0,6.0,204.0,68.0,170.0,136.0,102.0,34.0,blue,diamond
0.0,2.0,2.0,0.0,7.0,1.0,1829.74410099996,4.0,1.0,phase_3,,,,,54.0,1.0,54.0,108.0,270.0,216.0,324.0,162.0,gray,hexagon
0.0,4.0,4.0,0.0,7.0,1.0,3083.174737999798,4.0,1.0,phase_3,,,,,88.0,2.0,88.0,176.0,220.0,264.0,132.0,44.0,magenta,I
0.0,3.0,3.0,0.0,7.0,3.0,2562.1984190001967,4.0,1.0,phase_3,,,,,204.0,6.0,34.0,170.0,204.0,102.0,68.0,136.0,blue,diamond
0.0,2.0,2.0,0.0,7.0,3.0,1498.2692149997092,4.0,1.0,phase_3,,,,,44.0,1.0,132.0,88.0,44.0,264.0,220.0,176.0,gray,hexagon
0.0,6.0,2.0,1.0,7.0,1.0,1734.9790819998816,4.0,1.0,phase_3,,,,,220.0,5.0,220.0,176.0,44.0,132.0,264.0,88.0,green,flipped triangle
0.0,7.0,3.0,1.0,7.0,1.0,2405.367266000212,4.0,1.0,phase_3,,,,,234.0,6.0,234.0,117.0,39.0,195.0,78.0,156.0,white,square
