raw_reward_magnitude,stim_reward,stepwise_reward_magnitude,paired_with_stopping,stim_location,response,reaction_time,block,num_trial_presentations,which_phase,stop_signal_trial_type,left_SSD,right_SSD,accuracy,chosen_bidding_amount,chosen_bidding_level,possible_bid_1,possible_bid_2,possible_bid_3,possible_bid_4,possible_bid_5,possible_bid_6,color_text,shape_text
0.0,4.0,0.0,0.0,2.0,2.0,303.1845849999399,1.0,1.0,phase_1,,,,,,,,,,,,,white,hexagon
0.0,5.0,0.0,1.0,4.0,4.0,293.1004129999337,1.0,1.0,phase_1,,,,,,,,,,,,,magenta,I
186.0,3.0,3.0,0.0,1.0,1.0,254.1954349999287,1.0,1.0,phase_1,,,,,,,,,,,,,yellow,cross
57.0,1.0,1.0,0.0,2.0,2.0,248.2803269999749,1.0,1.0,phase_1,,,,,,,,,,,,,orange,diamond
202.0,3.0,3.0,0.0,3.0,3.0,291.7341080000142,1.0,1.0,phase_1,,,,,,,,,,,,,yellow,cross
0.0,6.0,0.0,1.0,2.0,2.0,277.044233999959,1.0,1.0,phase_1,,,,,,,,,,,,,cyan,square
98.0,6.0,2.0,1.0,1.0,1.0,273.3710290000317,1.0,2.0,phase_1,,,,,,,,,,,,,cyan,square
104.0,6.0,2.0,1.0,3.0,3.0,279.0848299999879,1.0,1.0,phase_1,,,,,,,,,,,,,cyan,square
107.0,2.0,2.0,0.0,4.0,4.0,334.2598379999799,1.0,1.0,phase_1,,,,,,,,,,,,,gray,circle
396.0,8.0,4.0,1.0,3.0,3.0,309.6482899999273,1.0,1.0,phase_1,,,,,,,,,,,,,blue,flipped triangle
58.0,1.0,1.0,0.0,1.0,1.0,332.2683159999542,1.0,1.0,phase_1,,,,,,,,,,,,,orange,diamond
0.0,1.0,0.0,0.0,1.0,1.0,302.6712399999951,1.0,1.0,phase_1,,,,,,,,,,,,,orange,diamond
183.0,3.0,3.0,0.0,1.0,1.0,300.9973719999834,1.0,1.0,phase_1,,,,,,,,,,,,,yellow,cross
25.0,1.0,1.0,0.0,2.0,2.0,302.0334209999191,1.0,1.0,phase_1,,,,,,,,,,,,,orange,diamond
376.0,8.0,4.0,1.0,2.0,2.0,319.0835579999884,1.0,1.0,phase_1,,,,,,,,,,,,,blue,flipped triangle
0.0,3.0,0.0,0.0,3.0,3.0,313.2039699999041,1.0,1.0,phase_1,,,,,,,,,,,,,yellow,cross
102.0,2.0,2.0,0.0,2.0,2.0,320.5333410001003,1.0,1.0,phase_1,,,,,,,,,,,,,gray,circle
214.0,7.0,3.0,1.0,3.0,3.0,299.0667530000337,1.0,1.0,phase_1,,,,,,,,,,,,,green,triangle
38.0,1.0,1.0,0.0,2.0,2.0,294.8971590000155,1.0,1.0,phase_1,,,,,,,,,,,,,orange,diamond
390.0,4.0,4.0,0.0,1.0,1.0,223.1861799999706,1.0,1.0,phase_1,,,,,,,,,,,,,white,hexagon
118.0,2.0,2.0,0.0,1.0,1.0,252.6075839999748,1.0,1.0,phase_1,,,,,,,,,,,,,gray,circle
189.0,3.0,3.0,0.0,3.0,3.0,307.091246999903,1.0,1.0,phase_1,,,,,,,,,,,,,yellow,cross
198.0,3.0,3.0,0.0,3.0,3.0,290.9847569999328,1.0,1.0,phase_1,,,,,,,,,,,,,yellow,cross
0.0,7.0,0.0,1.0,4.0,4.0,304.4467270000268,1.0,1.0,phase_1,,,,,,,,,,,,,green,triangle
122.0,6.0,2.0,1.0,4.0,4.0,318.4043989999736,1.0,1.0,phase_1,,,,,,,,,,,,,cyan,square
375.0,8.0,4.0,1.0,4.0,4.0,286.7129769999792,1.0,1.0,phase_1,,,,,,,,,,,,,blue,flipped triangle
110.0,6.0,2.0,1.0,2.0,2.0,329.8152029999528,1.0,1.0,phase_1,,,,,,,,,,,,,cyan,square
425.0,8.0,4.0,1.0,3.0,3.0,300.7245249999641,1.0,1.0,phase_1,,,,,,,,,,,,,blue,flipped triangle
414.0,8.0,4.0,1.0,4.0,4.0,318.5309609999649,1.0,1.0,phase_1,,,,,,,,,,,,,blue,flipped triangle
58.0,5.0,1.0,1.0,3.0,3.0,304.0800139999646,1.0,1.0,phase_1,,,,,,,,,,,,,magenta,I
0.0,7.0,0.0,1.0,1.0,1.0,330.3235409999843,1.0,1.0,phase_1,,,,,,,,,,,,,green,triangle
35.0,5.0,1.0,1.0,4.0,4.0,307.8803559999414,1.0,1.0,phase_1,,,,,,,,,,,,,magenta,I
376.0,4.0,4.0,0.0,3.0,3.0,264.4379739999749,1.0,1.0,phase_1,,,,,,,,,,,,,white,hexagon
202.0,7.0,3.0,1.0,1.0,1.0,283.6122490000434,1.0,1.0,phase_1,,,,,,,,,,,,,green,triangle
62.0,5.0,1.0,1.0,4.0,4.0,276.0712479999938,1.0,1.0,phase_1,,,,,,,,,,,,,magenta,I
184.0,7.0,3.0,1.0,2.0,2.0,344.9283530000002,1.0,1.0,phase_1,,,,,,,,,,,,,green,triangle
416.0,8.0,4.0,1.0,2.0,2.0,328.1151919999274,1.0,1.0,phase_1,,,,,,,,,,,,,blue,flipped triangle
43.0,5.0,1.0,1.0,2.0,2.0,274.0006430000221,1.0,1.0,phase_1,,,,,,,,,,,,,magenta,I
35.0,1.0,1.0,0.0,2.0,2.0,290.289547000043,1.0,1.0,phase_1,,,,,,,,,,,,,orange,diamond
44.0,1.0,1.0,0.0,1.0,1.0,258.0610869999873,1.0,1.0,phase_1,,,,,,,,,,,,,orange,diamond
80.0,6.0,2.0,1.0,2.0,2.0,292.8743270000495,1.0,1.0,phase_1,,,,,,,,,,,,,cyan,square
401.0,4.0,4.0,0.0,1.0,1.0,274.0443999999797,1.0,1.0,phase_1,,,,,,,,,,,,,white,hexagon
83.0,6.0,2.0,1.0,2.0,2.0,267.8821810000045,1.0,1.0,phase_1,,,,,,,,,,,,,cyan,square
44.0,5.0,1.0,1.0,4.0,4.0,296.1550680000755,1.0,1.0,phase_1,,,,,,,,,,,,,magenta,I
0.0,5.0,0.0,1.0,3.0,3.0,309.88738000007737,1.0,1.0,phase_1,,,,,,,,,,,,,magenta,I
221.0,7.0,3.0,1.0,2.0,2.0,321.2505789999795,1.0,1.0,phase_1,,,,,,,,,,,,,green,triangle
29.0,5.0,1.0,1.0,2.0,2.0,285.1032399998985,1.0,1.0,phase_1,,,,,,,,,,,,,magenta,I
103.0,6.0,2.0,1.0,3.0,3.0,322.211521999975,1.0,1.0,phase_1,,,,,,,,,,,,,cyan,square
0.0,8.0,0.0,1.0,4.0,4.0,315.6319390000135,1.0,1.0,phase_1,,,,,,,,,,,,,blue,flipped triangle
50.0,5.0,1.0,1.0,3.0,3.0,287.5907349999806,1.0,1.0,phase_1,,,,,,,,,,,,,magenta,I
0.0,2.0,0.0,0.0,1.0,1.0,272.3926080000183,1.0,1.0,phase_1,,,,,,,,,,,,,gray,circle
73.0,5.0,1.0,1.0,1.0,1.0,270.0769670000227,1.0,1.0,phase_1,,,,,,,,,,,,,magenta,I
65.0,1.0,1.0,0.0,4.0,4.0,283.9205459999903,1.0,1.0,phase_1,,,,,,,,,,,,,orange,diamond
64.0,1.0,1.0,0.0,4.0,4.0,302.6134010000305,1.0,1.0,phase_1,,,,,,,,,,,,,orange,diamond
82.0,2.0,2.0,0.0,1.0,1.0,349.3232000000716,1.0,1.0,phase_1,,,,,,,,,,,,,gray,circle
27.0,1.0,1.0,0.0,1.0,1.0,246.6166419999353,1.0,1.0,phase_1,,,,,,,,,,,,,orange,diamond
218.0,7.0,3.0,1.0,2.0,2.0,272.0095199999832,1.0,1.0,phase_1,,,,,,,,,,,,,green,triangle
0.0,6.0,0.0,1.0,4.0,4.0,321.9437850000304,1.0,1.0,phase_1,,,,,,,,,,,,,cyan,square
423.0,8.0,4.0,1.0,2.0,2.0,300.6882769999492,1.0,1.0,phase_1,,,,,,,,,,,,,blue,flipped triangle
402.0,4.0,4.0,0.0,3.0,3.0,299.427931000082,1.0,1.0,phase_1,,,,,,,,,,,,,white,hexagon
414.0,4.0,4.0,0.0,3.0,3.0,298.6069780000662,1.0,1.0,phase_1,,,,,,,,,,,,,white,hexagon
97.0,6.0,2.0,1.0,4.0,4.0,321.6191940000499,1.0,1.0,phase_1,,,,,,,,,,,,,cyan,square
121.0,2.0,2.0,0.0,2.0,2.0,337.8778329999932,1.0,1.0,phase_1,,,,,,,,,,,,,gray,circle
380.0,4.0,4.0,0.0,4.0,4.0,276.8195019999666,1.0,1.0,phase_1,,,,,,,,,,,,,white,hexagon
380.0,8.0,4.0,1.0,3.0,3.0,306.5482459999202,1.0,1.0,phase_1,,,,,,,,,,,,,blue,flipped triangle
57.0,5.0,1.0,1.0,2.0,2.0,359.709485000053,1.0,1.0,phase_1,,,,,,,,,,,,,magenta,I
195.0,7.0,3.0,1.0,3.0,3.0,258.7277110000059,1.0,1.0,phase_1,,,,,,,,,,,,,green,triangle
402.0,8.0,4.0,1.0,1.0,1.0,346.4175419999264,1.0,1.0,phase_1,,,,,,,,,,,,,blue,flipped triangle
0.0,2.0,0.0,0.0,3.0,3.0,312.3759970000037,1.0,1.0,phase_1,,,,,,,,,,,,,gray,circle
403.0,4.0,4.0,0.0,2.0,2.0,299.6252660000209,1.0,1.0,phase_1,,,,,,,,,,,,,white,hexagon
88.0,6.0,2.0,1.0,1.0,1.0,293.5815350000439,1.0,1.0,phase_1,,,,,,,,,,,,,cyan,square
390.0,8.0,4.0,1.0,1.0,1.0,300.9876849999955,1.0,1.0,phase_1,,,,,,,,,,,,,blue,flipped triangle
64.0,5.0,1.0,1.0,2.0,2.0,296.8374820000008,1.0,1.0,phase_1,,,,,,,,,,,,,magenta,I
0.0,3.0,0.0,0.0,1.0,1.0,234.372932000042,1.0,1.0,phase_1,,,,,,,,,,,,,yellow,cross
198.0,3.0,3.0,0.0,1.0,1.0,240.9333949999563,1.0,1.0,phase_1,,,,,,,,,,,,,yellow,cross
70.0,1.0,1.0,0.0,1.0,1.0,243.1235569999899,1.0,1.0,phase_1,,,,,,,,,,,,,orange,diamond
63.0,1.0,1.0,0.0,3.0,3.0,283.5421590000351,1.0,1.0,phase_1,,,,,,,,,,,,,orange,diamond
216.0,7.0,3.0,1.0,2.0,2.0,300.9524210000336,1.0,1.0,phase_1,,,,,,,,,,,,,green,triangle
223.0,3.0,3.0,0.0,4.0,4.0,328.45154000006,1.0,1.0,phase_1,,,,,,,,,,,,,yellow,cross
108.0,2.0,2.0,0.0,2.0,2.0,291.907318000085,1.0,1.0,phase_1,,,,,,,,,,,,,gray,circle
410.0,4.0,4.0,0.0,2.0,2.0,261.2436420000676,1.0,1.0,phase_1,,,,,,,,,,,,,white,hexagon
175.0,3.0,3.0,0.0,3.0,3.0,284.1961730000548,1.0,1.0,phase_1,,,,,,,,,,,,,yellow,cross
183.0,7.0,3.0,1.0,2.0,2.0,271.2498920000143,1.0,1.0,phase_1,,,,,,,,,,,,,green,triangle
117.0,2.0,2.0,0.0,3.0,3.0,268.2404570000471,1.0,1.0,phase_1,,,,,,,,,,,,,gray,circle
62.0,1.0,1.0,0.0,3.0,3.0,305.9834509999746,1.0,1.0,phase_1,,,,,,,,,,,,,orange,diamond
83.0,2.0,2.0,0.0,4.0,4.0,294.3616820000443,1.0,1.0,phase_1,,,,,,,,,,,,,gray,circle
61.0,1.0,1.0,0.0,3.0,3.0,293.785797000055,1.0,1.0,phase_1,,,,,,,,,,,,,orange,diamond
394.0,8.0,4.0,1.0,3.0,3.0,250.5679230000623,1.0,1.0,phase_1,,,,,,,,,,,,,blue,flipped triangle
38.0,1.0,1.0,0.0,4.0,4.0,291.8369170001824,1.0,1.0,phase_1,,,,,,,,,,,,,orange,diamond
413.0,4.0,4.0,0.0,1.0,1.0,283.802182999807,1.0,1.0,phase_1,,,,,,,,,,,,,white,hexagon
0.0,7.0,0.0,1.0,4.0,4.0,275.4200900001251,1.0,1.0,phase_1,,,,,,,,,,,,,green,triangle
0.0,6.0,0.0,1.0,4.0,4.0,277.2824759999821,1.0,1.0,phase_1,,,,,,,,,,,,,cyan,square
80.0,6.0,2.0,1.0,4.0,4.0,268.0309429999852,1.0,1.0,phase_1,,,,,,,,,,,,,cyan,square
0.0,3.0,0.0,0.0,3.0,3.0,270.4643839999789,1.0,1.0,phase_1,,,,,,,,,,,,,yellow,cross
386.0,4.0,4.0,0.0,4.0,4.0,252.92425699990417,1.0,1.0,phase_1,,,,,,,,,,,,,white,hexagon
51.0,1.0,1.0,0.0,4.0,4.0,286.1839279999003,1.0,1.0,phase_1,,,,,,,,,,,,,orange,diamond
213.0,3.0,3.0,0.0,2.0,2.0,343.2103569998617,1.0,1.0,phase_1,,,,,,,,,,,,,yellow,cross
413.0,8.0,4.0,1.0,4.0,4.0,295.9715150000193,1.0,1.0,phase_1,,,,,,,,,,,,,blue,flipped triangle
0.0,4.0,0.0,0.0,4.0,4.0,253.8412549999975,1.0,1.0,phase_1,,,,,,,,,,,,,white,hexagon
175.0,7.0,3.0,1.0,3.0,3.0,282.4505890000637,1.0,1.0,phase_1,,,,,,,,,,,,,green,triangle
69.0,1.0,1.0,0.0,1.0,1.0,301.1357340001268,2.0,1.0,phase_1,,,,,,,,,,,,,orange,diamond
216.0,7.0,3.0,1.0,1.0,1.0,261.9134849999227,2.0,1.0,phase_1,,,,,,,,,,,,,green,triangle
0.0,5.0,0.0,1.0,4.0,4.0,274.7149489998719,2.0,1.0,phase_1,,,,,,,,,,,,,magenta,I
0.0,2.0,0.0,0.0,4.0,4.0,252.88728500004248,2.0,1.0,phase_1,,,,,,,,,,,,,gray,circle
0.0,8.0,0.0,1.0,1.0,1.0,281.6720289999921,2.0,1.0,phase_1,,,,,,,,,,,,,blue,flipped triangle
49.0,5.0,1.0,1.0,3.0,3.0,292.1180050000203,2.0,1.0,phase_1,,,,,,,,,,,,,magenta,I
375.0,4.0,4.0,0.0,4.0,4.0,287.994893999894,2.0,1.0,phase_1,,,,,,,,,,,,,white,hexagon
111.0,6.0,2.0,1.0,4.0,4.0,278.5705800001778,2.0,1.0,phase_1,,,,,,,,,,,,,cyan,square
399.0,4.0,4.0,0.0,4.0,4.0,277.7087389999906,2.0,1.0,phase_1,,,,,,,,,,,,,white,hexagon
206.0,3.0,3.0,0.0,4.0,4.0,245.6771600000138,2.0,1.0,phase_1,,,,,,,,,,,,,yellow,cross
46.0,1.0,1.0,0.0,2.0,2.0,249.1476789998614,2.0,1.0,phase_1,,,,,,,,,,,,,orange,diamond
103.0,6.0,2.0,1.0,1.0,1.0,234.9352620001354,2.0,1.0,phase_1,,,,,,,,,,,,,cyan,square
91.0,2.0,2.0,0.0,4.0,4.0,252.70714699990998,2.0,1.0,phase_1,,,,,,,,,,,,,gray,circle
102.0,6.0,2.0,1.0,2.0,2.0,243.8278940001055,2.0,1.0,phase_1,,,,,,,,,,,,,cyan,square
41.0,5.0,1.0,1.0,2.0,2.0,285.0179570000364,2.0,1.0,phase_1,,,,,,,,,,,,,magenta,I
119.0,6.0,2.0,1.0,2.0,2.0,289.0432119997967,2.0,1.0,phase_1,,,,,,,,,,,,,cyan,square
402.0,4.0,4.0,0.0,2.0,2.0,251.7630859999826,2.0,1.0,phase_1,,,,,,,,,,,,,white,hexagon
189.0,7.0,3.0,1.0,1.0,1.0,267.6548049998928,2.0,1.0,phase_1,,,,,,,,,,,,,green,triangle
0.0,6.0,0.0,1.0,1.0,1.0,251.3645009998981,2.0,1.0,phase_1,,,,,,,,,,,,,cyan,square
50.0,1.0,1.0,0.0,2.0,2.0,256.5500230000452,2.0,1.0,phase_1,,,,,,,,,,,,,orange,diamond
389.0,4.0,4.0,0.0,4.0,4.0,328.011121000145,2.0,1.0,phase_1,,,,,,,,,,,,,white,hexagon
122.0,6.0,2.0,1.0,4.0,4.0,283.5444840000036,2.0,1.0,phase_1,,,,,,,,,,,,,cyan,square
0.0,2.0,0.0,0.0,2.0,2.0,259.7816219999913,2.0,1.0,phase_1,,,,,,,,,,,,,gray,circle
414.0,8.0,4.0,1.0,3.0,3.0,274.9626869999702,2.0,1.0,phase_1,,,,,,,,,,,,,blue,flipped triangle
117.0,6.0,2.0,1.0,1.0,1.0,250.97642199989417,2.0,1.0,phase_1,,,,,,,,,,,,,cyan,square
418.0,4.0,4.0,0.0,1.0,1.0,266.4698979999684,2.0,2.0,phase_1,,,,,,,,,,,,,white,hexagon
120.0,6.0,2.0,1.0,3.0,3.0,307.8657690000455,2.0,1.0,phase_1,,,,,,,,,,,,,cyan,square
72.0,5.0,1.0,1.0,1.0,1.0,251.46632899986798,2.0,1.0,phase_1,,,,,,,,,,,,,magenta,I
0.0,2.0,0.0,0.0,4.0,4.0,351.2820859998555,2.0,1.0,phase_1,,,,,,,,,,,,,gray,circle
0.0,5.0,0.0,1.0,1.0,1.0,247.8407730000071,2.0,1.0,phase_1,,,,,,,,,,,,,magenta,I
175.0,3.0,3.0,0.0,4.0,4.0,298.1195889999526,2.0,1.0,phase_1,,,,,,,,,,,,,yellow,cross
216.0,3.0,3.0,0.0,3.0,3.0,329.9482669999634,2.0,1.0,phase_1,,,,,,,,,,,,,yellow,cross
202.0,3.0,3.0,0.0,2.0,2.0,284.6314129999427,2.0,1.0,phase_1,,,,,,,,,,,,,yellow,cross
0.0,8.0,0.0,1.0,2.0,2.0,315.3264129998661,2.0,2.0,phase_1,,,,,,,,,,,,,blue,flipped triangle
195.0,7.0,3.0,1.0,1.0,1.0,301.347165999914,2.0,1.0,phase_1,,,,,,,,,,,,,green,triangle
96.0,2.0,2.0,0.0,4.0,4.0,398.2302590000017,2.0,1.0,phase_1,,,,,,,,,,,,,gray,circle
0.0,8.0,0.0,1.0,4.0,4.0,343.6270069998954,2.0,1.0,phase_1,,,,,,,,,,,,,blue,flipped triangle
0.0,3.0,0.0,0.0,2.0,2.0,265.0098439999055,2.0,1.0,phase_1,,,,,,,,,,,,,yellow,cross
30.0,1.0,1.0,0.0,2.0,2.0,268.2733510000616,2.0,1.0,phase_1,,,,,,,,,,,,,orange,diamond
122.0,2.0,2.0,0.0,3.0,3.0,325.2558670001235,2.0,1.0,phase_1,,,,,,,,,,,,,gray,circle
0.0,4.0,0.0,0.0,3.0,3.0,324.6589889999995,2.0,1.0,phase_1,,,,,,,,,,,,,white,hexagon
402.0,8.0,4.0,1.0,2.0,2.0,287.6391879999573,2.0,1.0,phase_1,,,,,,,,,,,,,blue,flipped triangle
178.0,7.0,3.0,1.0,2.0,2.0,284.0484550001747,2.0,1.0,phase_1,,,,,,,,,,,,,green,triangle
0.0,7.0,0.0,1.0,2.0,2.0,284.5596270001351,2.0,1.0,phase_1,,,,,,,,,,,,,green,triangle
109.0,6.0,2.0,1.0,4.0,4.0,337.1320930000365,2.0,1.0,phase_1,,,,,,,,,,,,,cyan,square
0.0,4.0,0.0,0.0,2.0,2.0,317.43256499999,2.0,1.0,phase_1,,,,,,,,,,,,,white,hexagon
104.0,6.0,2.0,1.0,1.0,1.0,294.5147039999938,2.0,1.0,phase_1,,,,,,,,,,,,,cyan,square
384.0,4.0,4.0,0.0,3.0,3.0,293.0402120000508,2.0,1.0,phase_1,,,,,,,,,,,,,white,hexagon
378.0,8.0,4.0,1.0,2.0,2.0,277.9148689999147,2.0,1.0,phase_1,,,,,,,,,,,,,blue,flipped triangle
213.0,7.0,3.0,1.0,2.0,2.0,292.9156229999989,2.0,1.0,phase_1,,,,,,,,,,,,,green,triangle
378.0,4.0,4.0,0.0,4.0,4.0,430.3993440000795,2.0,1.0,phase_1,,,,,,,,,,,,,white,hexagon
0.0,3.0,0.0,0.0,2.0,2.0,292.5462300001982,2.0,1.0,phase_1,,,,,,,,,,,,,yellow,cross
0.0,8.0,0.0,1.0,4.0,4.0,340.3144260000772,2.0,1.0,phase_1,,,,,,,,,,,,,blue,flipped triangle
195.0,3.0,3.0,0.0,1.0,1.0,387.2797600001831,2.0,1.0,phase_1,,,,,,,,,,,,,yellow,cross
36.0,1.0,1.0,0.0,4.0,4.0,310.3557679999085,2.0,1.0,phase_1,,,,,,,,,,,,,orange,diamond
111.0,2.0,2.0,0.0,1.0,1.0,307.2444329998234,2.0,1.0,phase_1,,,,,,,,,,,,,gray,circle
198.0,7.0,3.0,1.0,3.0,3.0,324.407482999959,2.0,1.0,phase_1,,,,,,,,,,,,,green,triangle
46.0,5.0,1.0,1.0,2.0,2.0,288.4543650000069,2.0,1.0,phase_1,,,,,,,,,,,,,magenta,I
218.0,3.0,3.0,0.0,2.0,2.0,292.5323839999691,2.0,1.0,phase_1,,,,,,,,,,,,,yellow,cross
50.0,1.0,1.0,0.0,4.0,4.0,311.0691629999564,2.0,1.0,phase_1,,,,,,,,,,,,,orange,diamond
0.0,6.0,0.0,1.0,2.0,2.0,258.2738480000444,2.0,1.0,phase_1,,,,,,,,,,,,,cyan,square
375.0,8.0,4.0,1.0,2.0,2.0,299.779332000071,2.0,1.0,phase_1,,,,,,,,,,,,,blue,flipped triangle
0.0,4.0,0.0,0.0,2.0,2.0,263.6351599999216,2.0,1.0,phase_1,,,,,,,,,,,,,white,hexagon
80.0,2.0,2.0,0.0,4.0,4.0,331.649537000203,2.0,1.0,phase_1,,,,,,,,,,,,,gray,circle
56.0,5.0,1.0,1.0,4.0,4.0,395.147568000084,2.0,1.0,phase_1,,,,,,,,,,,,,magenta,I
398.0,8.0,4.0,1.0,2.0,2.0,306.73082200019047,2.0,1.0,phase_1,,,,,,,,,,,,,blue,flipped triangle
391.0,8.0,4.0,1.0,4.0,4.0,313.2125810000161,2.0,1.0,phase_1,,,,,,,,,,,,,blue,flipped triangle
0.0,1.0,0.0,0.0,4.0,4.0,300.5672070000855,2.0,1.0,phase_1,,,,,,,,,,,,,orange,diamond
381.0,4.0,4.0,0.0,3.0,3.0,299.7999259998778,2.0,1.0,phase_1,,,,,,,,,,,,,white,hexagon
176.0,3.0,3.0,0.0,1.0,1.0,314.4964809998782,2.0,1.0,phase_1,,,,,,,,,,,,,yellow,cross
36.0,5.0,1.0,1.0,1.0,1.0,276.9528100000116,2.0,1.0,phase_1,,,,,,,,,,,,,magenta,I
110.0,2.0,2.0,0.0,3.0,3.0,309.9669499999891,2.0,1.0,phase_1,,,,,,,,,,,,,gray,circle
113.0,6.0,2.0,1.0,3.0,3.0,297.8248160000021,2.0,1.0,phase_1,,,,,,,,,,,,,cyan,square
395.0,8.0,4.0,1.0,1.0,1.0,240.7379209998907,2.0,1.0,phase_1,,,,,,,,,,,,,blue,flipped triangle
418.0,8.0,4.0,1.0,1.0,1.0,246.4660940001977,2.0,1.0,phase_1,,,,,,,,,,,,,blue,flipped triangle
412.0,8.0,4.0,1.0,4.0,4.0,321.209485000054,2.0,1.0,phase_1,,,,,,,,,,,,,blue,flipped triangle
197.0,7.0,3.0,1.0,1.0,1.0,307.0518919998903,2.0,1.0,phase_1,,,,,,,,,,,,,green,triangle
214.0,7.0,3.0,1.0,3.0,3.0,324.9091370000769,2.0,1.0,phase_1,,,,,,,,,,,,,green,triangle
178.0,3.0,3.0,0.0,4.0,4.0,283.6885900001107,2.0,1.0,phase_1,,,,,,,,,,,,,yellow,cross
54.0,1.0,1.0,0.0,4.0,4.0,334.3320349999885,2.0,1.0,phase_1,,,,,,,,,,,,,orange,diamond
85.0,2.0,2.0,0.0,3.0,3.0,293.6014819999855,2.0,1.0,phase_1,,,,,,,,,,,,,gray,circle
407.0,8.0,4.0,1.0,1.0,1.0,326.7256540000289,2.0,1.0,phase_1,,,,,,,,,,,,,blue,flipped triangle
119.0,2.0,2.0,0.0,2.0,2.0,282.3094699999728,2.0,1.0,phase_1,,,,,,,,,,,,,gray,circle
399.0,8.0,4.0,1.0,1.0,1.0,265.915995999876,2.0,1.0,phase_1,,,,,,,,,,,,,blue,flipped triangle
105.0,2.0,2.0,0.0,2.0,2.0,259.1966889999639,2.0,1.0,phase_1,,,,,,,,,,,,,gray,circle
0.0,4.0,0.0,0.0,1.0,1.0,240.8351300000504,2.0,1.0,phase_1,,,,,,,,,,,,,white,hexagon
91.0,6.0,2.0,1.0,1.0,1.0,292.9470330000185,2.0,1.0,phase_1,,,,,,,,,,,,,cyan,square
188.0,3.0,3.0,0.0,4.0,4.0,282.8426300000046,2.0,1.0,phase_1,,,,,,,,,,,,,yellow,cross
0.0,6.0,0.0,1.0,4.0,4.0,308.8508830001046,2.0,1.0,phase_1,,,,,,,,,,,,,cyan,square
184.0,3.0,3.0,0.0,2.0,2.0,309.7426560000258,2.0,1.0,phase_1,,,,,,,,,,,,,yellow,cross
72.0,1.0,1.0,0.0,3.0,3.0,349.1861270001664,2.0,1.0,phase_1,,,,,,,,,,,,,orange,diamond
216.0,3.0,3.0,0.0,3.0,3.0,306.1183100001017,2.0,1.0,phase_1,,,,,,,,,,,,,yellow,cross
85.0,2.0,2.0,0.0,3.0,3.0,298.2093919999897,2.0,1.0,phase_1,,,,,,,,,,,,,gray,circle
0.0,7.0,0.0,1.0,3.0,3.0,298.0480460000763,2.0,1.0,phase_1,,,,,,,,,,,,,green,triangle
190.0,3.0,3.0,0.0,1.0,1.0,292.5502279999818,2.0,1.0,phase_1,,,,,,,,,,,,,yellow,cross
38.0,5.0,1.0,1.0,1.0,1.0,277.4098110000977,2.0,1.0,phase_1,,,,,,,,,,,,,magenta,I
85.0,6.0,2.0,1.0,3.0,3.0,309.3518789999052,2.0,1.0,phase_1,,,,,,,,,,,,,cyan,square
93.0,2.0,2.0,0.0,1.0,1.0,250.6028069999502,2.0,1.0,phase_1,,,,,,,,,,,,,gray,circle
214.0,3.0,3.0,0.0,2.0,2.0,311.8495809999331,2.0,1.0,phase_1,,,,,,,,,,,,,yellow,cross
44.0,1.0,1.0,0.0,1.0,1.0,248.8060919999952,2.0,1.0,phase_1,,,,,,,,,,,,,orange,diamond
178.0,7.0,3.0,1.0,4.0,4.0,314.971572000104,3.0,1.0,phase_1,,,,,,,,,,,,,green,triangle
70.0,5.0,1.0,1.0,1.0,1.0,287.7917579999121,3.0,1.0,phase_1,,,,,,,,,,,,,magenta,I
190.0,7.0,3.0,1.0,4.0,4.0,246.9864150000376,3.0,1.0,phase_1,,,,,,,,,,,,,green,triangle
414.0,4.0,4.0,0.0,3.0,3.0,300.3591039998809,3.0,1.0,phase_1,,,,,,,,,,,,,white,hexagon
91.0,6.0,2.0,1.0,1.0,1.0,246.0436490000574,3.0,1.0,phase_1,,,,,,,,,,,,,cyan,square
410.0,8.0,4.0,1.0,3.0,3.0,279.5601820000684,3.0,1.0,phase_1,,,,,,,,,,,,,blue,flipped triangle
34.0,1.0,1.0,0.0,2.0,2.0,299.3793369998911,3.0,1.0,phase_1,,,,,,,,,,,,,orange,diamond
176.0,7.0,3.0,1.0,4.0,4.0,295.4210100001546,3.0,1.0,phase_1,,,,,,,,,,,,,green,triangle
0.0,2.0,0.0,0.0,3.0,3.0,284.3089230000259,3.0,1.0,phase_1,,,,,,,,,,,,,gray,circle
77.0,6.0,2.0,1.0,3.0,3.0,280.6762609998259,3.0,1.0,phase_1,,,,,,,,,,,,,cyan,square
48.0,1.0,1.0,0.0,2.0,2.0,258.4012569998322,3.0,1.0,phase_1,,,,,,,,,,,,,orange,diamond
0.0,8.0,0.0,1.0,3.0,3.0,306.3183320000462,3.0,1.0,phase_1,,,,,,,,,,,,,blue,flipped triangle
0.0,7.0,0.0,1.0,2.0,2.0,278.482834999977,3.0,1.0,phase_1,,,,,,,,,,,,,green,triangle
105.0,6.0,2.0,1.0,1.0,1.0,250.54683100006508,3.0,1.0,phase_1,,,,,,,,,,,,,cyan,square
57.0,5.0,1.0,1.0,4.0,4.0,299.1474779998953,3.0,1.0,phase_1,,,,,,,,,,,,,magenta,I
66.0,1.0,1.0,0.0,3.0,3.0,282.885800999793,3.0,1.0,phase_1,,,,,,,,,,,,,orange,diamond
92.0,2.0,2.0,0.0,3.0,3.0,291.7937770000662,3.0,1.0,phase_1,,,,,,,,,,,,,gray,circle
0.0,2.0,0.0,0.0,2.0,2.0,286.498629000107,3.0,1.0,phase_1,,,,,,,,,,,,,gray,circle
0.0,4.0,0.0,0.0,2.0,2.0,263.700179999887,3.0,1.0,phase_1,,,,,,,,,,,,,white,hexagon
0.0,7.0,0.0,1.0,4.0,4.0,311.7999540002074,3.0,1.0,phase_1,,,,,,,,,,,,,green,triangle
121.0,6.0,2.0,1.0,3.0,3.0,291.4566990000367,3.0,1.0,phase_1,,,,,,,,,,,,,cyan,square
41.0,1.0,1.0,0.0,2.0,2.0,293.8731449999068,3.0,1.0,phase_1,,,,,,,,,,,,,orange,diamond
91.0,2.0,2.0,0.0,1.0,1.0,314.0331330000663,3.0,1.0,phase_1,,,,,,,,,,,,,gray,circle
412.0,4.0,4.0,0.0,2.0,2.0,284.2191089998778,3.0,1.0,phase_1,,,,,,,,,,,,,white,hexagon
423.0,8.0,4.0,1.0,1.0,1.0,280.6855500000438,3.0,1.0,phase_1,,,,,,,,,,,,,blue,flipped triangle
82.0,6.0,2.0,1.0,3.0,3.0,296.944159000077,3.0,1.0,phase_1,,,,,,,,,,,,,cyan,square
195.0,3.0,3.0,0.0,3.0,3.0,284.95527400014,3.0,1.0,phase_1,,,,,,,,,,,,,yellow,cross
411.0,4.0,4.0,0.0,2.0,2.0,332.2532270001375,3.0,1.0,phase_1,,,,,,,,,,,,,white,hexagon
0.0,1.0,0.0,0.0,2.0,2.0,271.7667149997851,3.0,1.0,phase_1,,,,,,,,,,,,,orange,diamond
0.0,4.0,0.0,0.0,4.0,4.0,340.3372750001381,3.0,1.0,phase_1,,,,,,,,,,,,,white,hexagon
43.0,1.0,1.0,0.0,4.0,4.0,304.8281010001119,3.0,1.0,phase_1,,,,,,,,,,,,,orange,diamond
214.0,3.0,3.0,0.0,1.0,1.0,291.1576000001332,3.0,1.0,phase_1,,,,,,,,,,,,,yellow,cross
0.0,1.0,0.0,0.0,2.0,2.0,312.9481549999582,3.0,1.0,phase_1,,,,,,,,,,,,,orange,diamond
108.0,6.0,2.0,1.0,3.0,3.0,294.4766699999945,3.0,1.0,phase_1,,,,,,,,,,,,,cyan,square
51.0,5.0,1.0,1.0,4.0,4.0,292.0991720000074,3.0,1.0,phase_1,,,,,,,,,,,,,magenta,I
108.0,2.0,2.0,0.0,1.0,1.0,258.4964489999493,3.0,1.0,phase_1,,,,,,,,,,,,,gray,circle
0.0,7.0,0.0,1.0,4.0,4.0,278.4440469999936,3.0,1.0,phase_1,,,,,,,,,,,,,green,triangle
49.0,1.0,1.0,0.0,3.0,3.0,285.0611839999146,3.0,1.0,phase_1,,,,,,,,,,,,,orange,diamond
0.0,3.0,0.0,0.0,1.0,1.0,247.9027229999246,3.0,1.0,phase_1,,,,,,,,,,,,,yellow,cross
70.0,5.0,1.0,1.0,4.0,4.0,283.2080450000376,3.0,1.0,phase_1,,,,,,,,,,,,,magenta,I
217.0,7.0,3.0,1.0,3.0,3.0,320.0757560000511,3.0,1.0,phase_1,,,,,,,,,,,,,green,triangle
381.0,8.0,4.0,1.0,3.0,3.0,301.0813240000516,3.0,1.0,phase_1,,,,,,,,,,,,,blue,flipped triangle
95.0,2.0,2.0,0.0,2.0,2.0,280.7324509999489,3.0,1.0,phase_1,,,,,,,,,,,,,gray,circle
0.0,6.0,0.0,1.0,2.0,2.0,278.6999499999183,3.0,1.0,phase_1,,,,,,,,,,,,,cyan,square
46.0,1.0,1.0,0.0,3.0,3.0,311.5112919999774,3.0,1.0,phase_1,,,,,,,,,,,,,orange,diamond
0.0,5.0,0.0,1.0,2.0,2.0,277.7638159998332,3.0,1.0,phase_1,,,,,,,,,,,,,magenta,I
63.0,5.0,1.0,1.0,3.0,3.0,303.2816099998854,3.0,1.0,phase_1,,,,,,,,,,,,,magenta,I
0.0,6.0,0.0,1.0,4.0,4.0,302.7975149998383,3.0,1.0,phase_1,,,,,,,,,,,,,cyan,square
85.0,6.0,2.0,1.0,2.0,2.0,311.2379589999818,3.0,1.0,phase_1,,,,,,,,,,,,,cyan,square
88.0,2.0,2.0,0.0,1.0,1.0,306.8135070000153,3.0,1.0,phase_1,,,,,,,,,,,,,gray,circle
0.0,2.0,0.0,0.0,4.0,4.0,325.4172720000952,3.0,1.0,phase_1,,,,,,,,,,,,,gray,circle
0.0,6.0,0.0,1.0,4.0,4.0,299.4712679999338,3.0,1.0,phase_1,,,,,,,,,,,,,cyan,square
198.0,7.0,3.0,1.0,4.0,4.0,319.7744790002161,3.0,1.0,phase_1,,,,,,,,,,,,,green,triangle
391.0,4.0,4.0,0.0,4.0,4.0,292.680904000008,3.0,1.0,phase_1,,,,,,,,,,,,,white,hexagon
214.0,7.0,3.0,1.0,4.0,4.0,263.0233840000073,3.0,1.0,phase_1,,,,,,,,,,,,,green,triangle
214.0,3.0,3.0,0.0,1.0,1.0,272.1103169999423,3.0,1.0,phase_1,,,,,,,,,,,,,yellow,cross
202.0,7.0,3.0,1.0,1.0,1.0,249.9175780001223,3.0,1.0,phase_1,,,,,,,,,,,,,green,triangle
0.0,6.0,0.0,1.0,1.0,1.0,246.5318869999464,3.0,1.0,phase_1,,,,,,,,,,,,,cyan,square
389.0,8.0,4.0,1.0,1.0,1.0,257.5852459999623,3.0,1.0,phase_1,,,,,,,,,,,,,blue,flipped triangle
0.0,5.0,0.0,1.0,4.0,4.0,303.9823569999953,3.0,1.0,phase_1,,,,,,,,,,,,,magenta,I
201.0,7.0,3.0,1.0,2.0,2.0,264.570989999811,3.0,1.0,phase_1,,,,,,,,,,,,,green,triangle
183.0,3.0,3.0,0.0,4.0,4.0,274.7002319999865,3.0,1.0,phase_1,,,,,,,,,,,,,yellow,cross
113.0,2.0,2.0,0.0,1.0,1.0,264.0080719997968,3.0,1.0,phase_1,,,,,,,,,,,,,gray,circle
0.0,1.0,0.0,0.0,2.0,2.0,275.1554170001782,3.0,1.0,phase_1,,,,,,,,,,,,,orange,diamond
56.0,1.0,1.0,0.0,3.0,3.0,299.8798490000354,3.0,1.0,phase_1,,,,,,,,,,,,,orange,diamond
0.0,8.0,0.0,1.0,2.0,2.0,285.0472400000399,3.0,1.0,phase_1,,,,,,,,,,,,,blue,flipped triangle
109.0,2.0,2.0,0.0,2.0,2.0,300.6840640000519,3.0,1.0,phase_1,,,,,,,,,,,,,gray,circle
425.0,4.0,4.0,0.0,1.0,1.0,258.752290999837,3.0,1.0,phase_1,,,,,,,,,,,,,white,hexagon
391.0,8.0,4.0,1.0,3.0,3.0,320.9090289999494,3.0,1.0,phase_1,,,,,,,,,,,,,blue,flipped triangle
195.0,3.0,3.0,0.0,4.0,4.0,303.2174370000575,3.0,1.0,phase_1,,,,,,,,,,,,,yellow,cross
389.0,4.0,4.0,0.0,4.0,4.0,296.1345649998748,3.0,1.0,phase_1,,,,,,,,,,,,,white,hexagon
186.0,7.0,3.0,1.0,4.0,4.0,297.1340779999991,3.0,1.0,phase_1,,,,,,,,,,,,,green,triangle
223.0,7.0,3.0,1.0,3.0,3.0,328.6126620000686,3.0,1.0,phase_1,,,,,,,,,,,,,green,triangle
29.0,1.0,1.0,0.0,1.0,1.0,296.7118379999647,3.0,1.0,phase_1,,,,,,,,,,,,,orange,diamond
375.0,8.0,4.0,1.0,2.0,2.0,294.9316619999536,3.0,1.0,phase_1,,,,,,,,,,,,,blue,flipped triangle
104.0,2.0,2.0,0.0,2.0,2.0,273.4196750000137,3.0,1.0,phase_1,,,,,,,,,,,,,gray,circle
30.0,5.0,1.0,1.0,1.0,1.0,225.67780400004258,3.0,1.0,phase_1,,,,,,,,,,,,,magenta,I
220.0,3.0,3.0,0.0,2.0,2.0,259.170228999892,3.0,1.0,phase_1,,,,,,,,,,,,,yellow,cross
65.0,5.0,1.0,1.0,4.0,4.0,254.9097329999767,3.0,1.0,phase_1,,,,,,,,,,,,,magenta,I
391.0,4.0,4.0,0.0,3.0,3.0,347.0421109998369,3.0,1.0,phase_1,,,,,,,,,,,,,white,hexagon
32.0,5.0,1.0,1.0,3.0,3.0,318.0869080001685,3.0,1.0,phase_1,,,,,,,,,,,,,magenta,I
81.0,2.0,2.0,0.0,4.0,4.0,362.8845229998205,3.0,1.0,phase_1,,,,,,,,,,,,,gray,circle
69.0,5.0,1.0,1.0,3.0,3.0,298.0632720000358,3.0,1.0,phase_1,,,,,,,,,,,,,magenta,I
407.0,4.0,4.0,0.0,1.0,1.0,286.3922799999727,3.0,1.0,phase_1,,,,,,,,,,,,,white,hexagon
221.0,3.0,3.0,0.0,1.0,1.0,283.05507999994,3.0,1.0,phase_1,,,,,,,,,,,,,yellow,cross
25.0,5.0,1.0,1.0,2.0,2.0,260.0244210000255,3.0,1.0,phase_1,,,,,,,,,,,,,magenta,I
389.0,8.0,4.0,1.0,1.0,1.0,297.8825069999402,3.0,1.0,phase_1,,,,,,,,,,,,,blue,flipped triangle
398.0,4.0,4.0,0.0,3.0,3.0,329.1166169999542,3.0,1.0,phase_1,,,,,,,,,,,,,white,hexagon
195.0,7.0,3.0,1.0,3.0,3.0,332.14395899995,3.0,1.0,phase_1,,,,,,,,,,,,,green,triangle
0.0,8.0,0.0,1.0,2.0,2.0,323.9889419999144,3.0,1.0,phase_1,,,,,,,,,,,,,blue,flipped triangle
401.0,8.0,4.0,1.0,3.0,3.0,318.8166420000016,3.0,1.0,phase_1,,,,,,,,,,,,,blue,flipped triangle
403.0,8.0,4.0,1.0,4.0,4.0,337.6947579999978,3.0,1.0,phase_1,,,,,,,,,,,,,blue,flipped triangle
189.0,7.0,3.0,1.0,4.0,4.0,338.3022430000437,3.0,1.0,phase_1,,,,,,,,,,,,,green,triangle
399.0,4.0,4.0,0.0,2.0,2.0,291.2127849999706,3.0,1.0,phase_1,,,,,,,,,,,,,white,hexagon
80.0,2.0,2.0,0.0,2.0,2.0,327.2688619999826,3.0,1.0,phase_1,,,,,,,,,,,,,gray,circle
86.0,6.0,2.0,1.0,4.0,4.0,319.915777999995,3.0,1.0,phase_1,,,,,,,,,,,,,cyan,square
34.0,5.0,1.0,1.0,3.0,3.0,288.8920240000061,3.0,1.0,phase_1,,,,,,,,,,,,,magenta,I
210.0,3.0,3.0,0.0,2.0,2.0,283.2492560000901,3.0,1.0,phase_1,,,,,,,,,,,,,yellow,cross
104.0,2.0,2.0,0.0,1.0,1.0,276.9136749998324,3.0,1.0,phase_1,,,,,,,,,,,,,gray,circle
396.0,4.0,4.0,0.0,1.0,1.0,300.3384700000424,3.0,1.0,phase_1,,,,,,,,,,,,,white,hexagon
220.0,7.0,3.0,1.0,1.0,1.0,256.2349380000341,4.0,1.0,phase_1,,,,,,,,,,,,,green,triangle
178.0,3.0,3.0,0.0,1.0,1.0,262.664395999991,4.0,1.0,phase_1,,,,,,,,,,,,,yellow,cross
220.0,3.0,3.0,0.0,4.0,4.0,291.8534499999623,4.0,1.0,phase_1,,,,,,,,,,,,,yellow,cross
192.0,3.0,3.0,0.0,2.0,2.0,285.6145590001233,4.0,1.0,phase_1,,,,,,,,,,,,,yellow,cross
202.0,7.0,3.0,1.0,4.0,4.0,309.1869149998274,4.0,1.0,phase_1,,,,,,,,,,,,,green,triangle
183.0,7.0,3.0,1.0,2.0,2.0,307.946622000145,4.0,1.0,phase_1,,,,,,,,,,,,,green,triangle
375.0,4.0,4.0,0.0,1.0,1.0,228.3847349999632,4.0,1.0,phase_1,,,,,,,,,,,,,white,hexagon
194.0,7.0,3.0,1.0,3.0,3.0,300.7749989999411,4.0,1.0,phase_1,,,,,,,,,,,,,green,triangle
50.0,5.0,1.0,1.0,2.0,2.0,302.4031960001139,4.0,1.0,phase_1,,,,,,,,,,,,,magenta,I
394.0,4.0,4.0,0.0,4.0,4.0,283.164940000006,4.0,1.0,phase_1,,,,,,,,,,,,,white,hexagon
405.0,8.0,4.0,1.0,4.0,4.0,317.7078070000334,4.0,1.0,phase_1,,,,,,,,,,,,,blue,flipped triangle
416.0,4.0,4.0,0.0,4.0,4.0,290.8037280001281,4.0,1.0,phase_1,,,,,,,,,,,,,white,hexagon
405.0,4.0,4.0,0.0,1.0,1.0,285.1460360000146,4.0,1.0,phase_1,,,,,,,,,,,,,white,hexagon
38.0,5.0,1.0,1.0,3.0,3.0,281.6275490001771,4.0,1.0,phase_1,,,,,,,,,,,,,magenta,I
384.0,8.0,4.0,1.0,4.0,4.0,325.2598190001663,4.0,1.0,phase_1,,,,,,,,,,,,,blue,flipped triangle
93.0,6.0,2.0,1.0,2.0,2.0,296.5232779999951,4.0,1.0,phase_1,,,,,,,,,,,,,cyan,square
0.0,2.0,0.0,0.0,4.0,4.0,302.8608800000256,4.0,1.0,phase_1,,,,,,,,,,,,,gray,circle
38.0,5.0,1.0,1.0,1.0,1.0,271.2537759998668,4.0,1.0,phase_1,,,,,,,,,,,,,magenta,I
0.0,7.0,0.0,1.0,2.0,2.0,337.4136249999537,4.0,1.0,phase_1,,,,,,,,,,,,,green,triangle
201.0,3.0,3.0,0.0,3.0,3.0,300.5398640000294,4.0,1.0,phase_1,,,,,,,,,,,,,yellow,cross
32.0,1.0,1.0,0.0,3.0,3.0,317.5670400000854,4.0,1.0,phase_1,,,,,,,,,,,,,orange,diamond
416.0,8.0,4.0,1.0,2.0,2.0,293.0529749999095,4.0,1.0,phase_1,,,,,,,,,,,,,blue,flipped triangle
0.0,3.0,0.0,0.0,1.0,1.0,250.16564199995628,4.0,1.0,phase_1,,,,,,,,,,,,,yellow,cross
0.0,3.0,0.0,0.0,2.0,2.0,328.817989000072,4.0,1.0,phase_1,,,,,,,,,,,,,yellow,cross
0.0,3.0,0.0,0.0,4.0,4.0,313.9223939999738,4.0,1.0,phase_1,,,,,,,,,,,,,yellow,cross
206.0,7.0,3.0,1.0,1.0,1.0,272.0828989999972,4.0,1.0,phase_1,,,,,,,,,,,,,green,triangle
63.0,5.0,1.0,1.0,1.0,1.0,265.6291559999317,4.0,1.0,phase_1,,,,,,,,,,,,,magenta,I
50.0,5.0,1.0,1.0,4.0,4.0,277.9610689999572,4.0,1.0,phase_1,,,,,,,,,,,,,magenta,I
0.0,8.0,0.0,1.0,2.0,2.0,283.7152140000398,4.0,1.0,phase_1,,,,,,,,,,,,,blue,flipped triangle
98.0,6.0,2.0,1.0,2.0,2.0,292.8922030000649,4.0,1.0,phase_1,,,,,,,,,,,,,cyan,square
81.0,6.0,2.0,1.0,4.0,4.0,339.1701450000255,4.0,1.0,phase_1,,,,,,,,,,,,,cyan,square
27.0,5.0,1.0,1.0,2.0,2.0,276.7510270000457,4.0,1.0,phase_1,,,,,,,,,,,,,magenta,I
399.0,8.0,4.0,1.0,3.0,3.0,297.6316470001166,4.0,1.0,phase_1,,,,,,,,,,,,,blue,flipped triangle
86.0,2.0,2.0,0.0,4.0,4.0,309.5145899999352,4.0,1.0,phase_1,,,,,,,,,,,,,gray,circle
217.0,3.0,3.0,0.0,4.0,4.0,287.2659860001931,4.0,1.0,phase_1,,,,,,,,,,,,,yellow,cross
189.0,3.0,3.0,0.0,4.0,4.0,283.5459170000831,4.0,1.0,phase_1,,,,,,,,,,,,,yellow,cross
57.0,1.0,1.0,0.0,1.0,1.0,312.3238050000054,4.0,1.0,phase_1,,,,,,,,,,,,,orange,diamond
120.0,2.0,2.0,0.0,4.0,4.0,293.0103520000102,4.0,1.0,phase_1,,,,,,,,,,,,,gray,circle
0.0,8.0,0.0,1.0,2.0,2.0,300.8289280001008,4.0,1.0,phase_1,,,,,,,,,,,,,blue,flipped triangle
188.0,7.0,3.0,1.0,3.0,3.0,317.8125900001305,4.0,1.0,phase_1,,,,,,,,,,,,,green,triangle
107.0,6.0,2.0,1.0,3.0,3.0,283.2086309999795,4.0,1.0,phase_1,,,,,,,,,,,,,cyan,square
403.0,4.0,4.0,0.0,2.0,2.0,290.4429300001538,4.0,1.0,phase_1,,,,,,,,,,,,,white,hexagon
104.0,2.0,2.0,0.0,3.0,3.0,270.703764000018,4.0,1.0,phase_1,,,,,,,,,,,,,gray,circle
50.0,1.0,1.0,0.0,1.0,1.0,292.9798069999378,4.0,1.0,phase_1,,,,,,,,,,,,,orange,diamond
0.0,1.0,0.0,0.0,1.0,1.0,304.8954779999349,4.0,1.0,phase_1,,,,,,,,,,,,,orange,diamond
66.0,5.0,1.0,1.0,4.0,4.0,321.374305000063,4.0,1.0,phase_1,,,,,,,,,,,,,magenta,I
424.0,8.0,4.0,1.0,4.0,4.0,278.7911109999186,4.0,1.0,phase_1,,,,,,,,,,,,,blue,flipped triangle
54.0,5.0,1.0,1.0,3.0,3.0,287.9663979999805,4.0,1.0,phase_1,,,,,,,,,,,,,magenta,I
197.0,3.0,3.0,0.0,3.0,3.0,301.4528630001223,4.0,1.0,phase_1,,,,,,,,,,,,,yellow,cross
0.0,4.0,0.0,0.0,1.0,1.0,254.1740789999949,4.0,1.0,phase_1,,,,,,,,,,,,,white,hexagon
73.0,1.0,1.0,0.0,4.0,4.0,301.2987890001568,4.0,1.0,phase_1,,,,,,,,,,,,,orange,diamond
423.0,4.0,4.0,0.0,1.0,1.0,258.2836999999927,4.0,1.0,phase_1,,,,,,,,,,,,,white,hexagon
210.0,7.0,3.0,1.0,2.0,2.0,302.184410999871,4.0,1.0,phase_1,,,,,,,,,,,,,green,triangle
44.0,5.0,1.0,1.0,3.0,3.0,313.9918550000402,4.0,1.0,phase_1,,,,,,,,,,,,,magenta,I
192.0,7.0,3.0,1.0,1.0,1.0,239.8657800001729,4.0,1.0,phase_1,,,,,,,,,,,,,green,triangle
61.0,5.0,1.0,1.0,1.0,1.0,237.2206739999001,4.0,1.0,phase_1,,,,,,,,,,,,,magenta,I
46.0,5.0,1.0,1.0,2.0,2.0,276.94312299991,4.0,1.0,phase_1,,,,,,,,,,,,,magenta,I
416.0,4.0,4.0,0.0,2.0,2.0,280.0988960000268,4.0,1.0,phase_1,,,,,,,,,,,,,white,hexagon
38.0,1.0,1.0,0.0,3.0,3.0,316.9396900000265,4.0,1.0,phase_1,,,,,,,,,,,,,orange,diamond
403.0,8.0,4.0,1.0,2.0,2.0,301.6871330000867,4.0,1.0,phase_1,,,,,,,,,,,,,blue,flipped triangle
386.0,8.0,4.0,1.0,1.0,1.0,228.6244330000499,4.0,1.0,phase_1,,,,,,,,,,,,,blue,flipped triangle
0.0,5.0,0.0,1.0,4.0,4.0,302.3184199998923,4.0,1.0,phase_1,,,,,,,,,,,,,magenta,I
0.0,3.0,0.0,0.0,1.0,1.0,279.1090910000093,4.0,1.0,phase_1,,,,,,,,,,,,,yellow,cross
63.0,1.0,1.0,0.0,4.0,4.0,333.386512000061,4.0,1.0,phase_1,,,,,,,,,,,,,orange,diamond
118.0,6.0,2.0,1.0,2.0,2.0,279.7370319999572,4.0,1.0,phase_1,,,,,,,,,,,,,cyan,square
0.0,1.0,0.0,0.0,3.0,3.0,291.885387000093,4.0,1.0,phase_1,,,,,,,,,,,,,orange,diamond
0.0,5.0,0.0,1.0,1.0,1.0,233.0433770000581,4.0,1.0,phase_1,,,,,,,,,,,,,magenta,I
48.0,5.0,1.0,1.0,1.0,1.0,250.3097759999946,4.0,1.0,phase_1,,,,,,,,,,,,,magenta,I
0.0,5.0,0.0,1.0,1.0,1.0,247.9207039998527,4.0,1.0,phase_1,,,,,,,,,,,,,magenta,I
0.0,5.0,0.0,1.0,2.0,2.0,276.5798130001258,4.0,1.0,phase_1,,,,,,,,,,,,,magenta,I
217.0,3.0,3.0,0.0,2.0,2.0,275.7571249999273,4.0,1.0,phase_1,,,,,,,,,,,,,yellow,cross
97.0,2.0,2.0,0.0,3.0,3.0,318.4607740001866,4.0,1.0,phase_1,,,,,,,,,,,,,gray,circle
92.0,6.0,2.0,1.0,4.0,4.0,303.2308759998159,4.0,1.0,phase_1,,,,,,,,,,,,,cyan,square
103.0,2.0,2.0,0.0,1.0,1.0,233.4830259999307,4.0,1.0,phase_1,,,,,,,,,,,,,gray,circle
202.0,3.0,3.0,0.0,2.0,2.0,273.0075190002026,4.0,1.0,phase_1,,,,,,,,,,,,,yellow,cross
122.0,2.0,2.0,0.0,3.0,3.0,296.9669139999951,4.0,1.0,phase_1,,,,,,,,,,,,,gray,circle
411.0,8.0,4.0,1.0,4.0,4.0,295.4896010000993,4.0,1.0,phase_1,,,,,,,,,,,,,blue,flipped triangle
375.0,4.0,4.0,0.0,2.0,2.0,241.1249029998998,4.0,1.0,phase_1,,,,,,,,,,,,,white,hexagon
424.0,4.0,4.0,0.0,2.0,2.0,282.8285470000082,4.0,1.0,phase_1,,,,,,,,,,,,,white,hexagon
95.0,6.0,2.0,1.0,4.0,4.0,277.2954430001846,4.0,1.0,phase_1,,,,,,,,,,,,,cyan,square
104.0,6.0,2.0,1.0,1.0,1.0,238.5129459999007,4.0,1.0,phase_1,,,,,,,,,,,,,cyan,square
70.0,1.0,1.0,0.0,1.0,1.0,243.42671500016868,4.0,1.0,phase_1,,,,,,,,,,,,,orange,diamond
98.0,2.0,2.0,0.0,4.0,4.0,297.0911620000152,4.0,1.0,phase_1,,,,,,,,,,,,,gray,circle
194.0,3.0,3.0,0.0,3.0,3.0,252.87797500004672,4.0,1.0,phase_1,,,,,,,,,,,,,yellow,cross
103.0,2.0,2.0,0.0,4.0,4.0,272.1291999998811,4.0,1.0,phase_1,,,,,,,,,,,,,gray,circle
77.0,2.0,2.0,0.0,3.0,3.0,294.1327700000329,4.0,1.0,phase_1,,,,,,,,,,,,,gray,circle
0.0,2.0,0.0,0.0,3.0,3.0,306.3512600001559,4.0,1.0,phase_1,,,,,,,,,,,,,gray,circle
220.0,7.0,3.0,1.0,4.0,4.0,271.4760700000624,4.0,1.0,phase_1,,,,,,,,,,,,,green,triangle
217.0,7.0,3.0,1.0,4.0,4.0,269.5684790000996,4.0,1.0,phase_1,,,,,,,,,,,,,green,triangle
96.0,6.0,2.0,1.0,1.0,1.0,297.1317989999988,4.0,1.0,phase_1,,,,,,,,,,,,,cyan,square
98.0,2.0,2.0,0.0,2.0,2.0,273.6096370001633,4.0,1.0,phase_1,,,,,,,,,,,,,gray,circle
395.0,4.0,4.0,0.0,3.0,3.0,262.7069579998533,4.0,1.0,phase_1,,,,,,,,,,,,,white,hexagon
0.0,7.0,0.0,1.0,2.0,2.0,293.1210590002138,4.0,1.0,phase_1,,,,,,,,,,,,,green,triangle
0.0,1.0,0.0,0.0,3.0,3.0,286.9732290000684,4.0,1.0,phase_1,,,,,,,,,,,,,orange,diamond
423.0,4.0,4.0,0.0,3.0,3.0,296.7382909998832,4.0,1.0,phase_1,,,,,,,,,,,,,white,hexagon
0.0,4.0,0.0,0.0,2.0,2.0,237.1565309999823,4.0,1.0,phase_1,,,,,,,,,,,,,white,hexagon
0.0,1.0,0.0,0.0,4.0,4.0,306.7027409999809,4.0,1.0,phase_1,,,,,,,,,,,,,orange,diamond
0.0,1.0,0.0,0.0,1.0,1.0,264.2370979999668,4.0,1.0,phase_1,,,,,,,,,,,,,orange,diamond
175.0,7.0,3.0,1.0,1.0,1.0,243.116905999841,4.0,1.0,phase_1,,,,,,,,,,,,,green,triangle
108.0,6.0,2.0,1.0,2.0,2.0,255.39601500008757,4.0,1.0,phase_1,,,,,,,,,,,,,cyan,square
0.0,4.0,4.0,0.0,6.0,6.0,305.8676780001406,1.0,1.0,phase_2,go,250.0,250.0,1.0,,,,,,,,,white,hexagon
0.0,8.0,4.0,1.0,5.0,5.0,404.2271030002666,1.0,1.0,phase_2,stop,250.0,250.0,3.0,,,,,,,,,blue,flipped triangle
0.0,5.0,1.0,1.0,6.0,6.0,375.6847049999123,1.0,1.0,phase_2,stop,200.0,250.0,3.0,,,,,,,,,magenta,I
0.0,2.0,2.0,0.0,6.0,6.0,523.8804370001162,1.0,1.0,phase_2,go,200.0,200.0,1.0,,,,,,,,,gray,circle
0.0,2.0,2.0,0.0,6.0,6.0,595.1264020000053,1.0,1.0,phase_2,go,200.0,200.0,1.0,,,,,,,,,gray,circle
0.0,8.0,4.0,1.0,5.0,0.0,0.0,1.0,1.0,phase_2,stop,200.0,200.0,4.0,,,,,,,,,blue,flipped triangle
0.0,3.0,3.0,0.0,5.0,5.0,538.4963010001229,1.0,1.0,phase_2,go,250.0,200.0,1.0,,,,,,,,,yellow,cross
0.0,3.0,3.0,0.0,5.0,5.0,531.6284119999182,1.0,1.0,phase_2,go,250.0,200.0,1.0,,,,,,,,,yellow,cross
0.0,6.0,2.0,1.0,5.0,5.0,529.4615810003052,1.0,1.0,phase_2,go,250.0,200.0,1.0,,,,,,,,,cyan,square
0.0,6.0,2.0,1.0,6.0,0.0,0.0,1.0,1.0,phase_2,stop,250.0,200.0,4.0,,,,,,,,,cyan,square
0.0,3.0,3.0,0.0,5.0,5.0,514.4993979997707,1.0,1.0,phase_2,go,250.0,250.0,1.0,,,,,,,,,yellow,cross
0.0,8.0,4.0,1.0,5.0,5.0,505.0795530000869,1.0,1.0,phase_2,go,250.0,250.0,1.0,,,,,,,,,blue,flipped triangle
0.0,8.0,4.0,1.0,6.0,0.0,0.0,1.0,1.0,phase_2,stop,250.0,250.0,4.0,,,,,,,,,blue,flipped triangle
0.0,1.0,1.0,0.0,5.0,5.0,533.2981569999902,1.0,1.0,phase_2,go,250.0,300.0,1.0,,,,,,,,,orange,diamond
0.0,4.0,4.0,0.0,6.0,6.0,476.3335630000256,1.0,1.0,phase_2,go,250.0,300.0,1.0,,,,,,,,,white,hexagon
0.0,5.0,1.0,1.0,5.0,0.0,0.0,1.0,1.0,phase_2,stop,250.0,300.0,4.0,,,,,,,,,magenta,I
0.0,5.0,1.0,1.0,6.0,0.0,0.0,1.0,1.0,phase_2,stop,300.0,300.0,4.0,,,,,,,,,magenta,I
0.0,1.0,1.0,0.0,5.0,5.0,479.5046840004033,1.0,1.0,phase_2,go,300.0,350.0,1.0,,,,,,,,,orange,diamond
0.0,8.0,4.0,1.0,5.0,0.0,0.0,1.0,1.0,phase_2,stop,300.0,350.0,4.0,,,,,,,,,blue,flipped triangle
0.0,6.0,2.0,1.0,6.0,0.0,0.0,1.0,1.0,phase_2,stop,350.0,350.0,4.0,,,,,,,,,cyan,square
0.0,2.0,2.0,0.0,5.0,5.0,637.0373760000803,1.0,1.0,phase_2,go,350.0,400.0,1.0,,,,,,,,,gray,circle
0.0,3.0,3.0,0.0,6.0,6.0,571.1253950003083,1.0,1.0,phase_2,go,350.0,400.0,1.0,,,,,,,,,yellow,cross
0.0,7.0,3.0,1.0,6.0,6.0,502.6696959998844,1.0,1.0,phase_2,stop,350.0,400.0,3.0,,,,,,,,,green,triangle
0.0,5.0,1.0,1.0,5.0,0.0,0.0,1.0,1.0,phase_2,stop,350.0,350.0,4.0,,,,,,,,,magenta,I
0.0,3.0,3.0,0.0,6.0,6.0,626.2772700001733,1.0,1.0,phase_2,go,400.0,350.0,1.0,,,,,,,,,yellow,cross
0.0,7.0,3.0,1.0,5.0,0.0,0.0,1.0,1.0,phase_2,stop,400.0,350.0,4.0,,,,,,,,,green,triangle
0.0,6.0,2.0,1.0,6.0,0.0,0.0,1.0,1.0,phase_2,stop,450.0,350.0,4.0,,,,,,,,,cyan,square
0.0,4.0,4.0,0.0,6.0,6.0,628.6732819999088,1.0,1.0,phase_2,go,450.0,400.0,1.0,,,,,,,,,white,hexagon
0.0,5.0,1.0,1.0,5.0,5.0,700.4731150000225,1.0,1.0,phase_2,go,450.0,400.0,1.0,,,,,,,,,magenta,I
0.0,1.0,1.0,0.0,5.0,5.0,632.4266480000915,1.0,1.0,phase_2,go,450.0,400.0,1.0,,,,,,,,,orange,diamond
0.0,5.0,1.0,1.0,5.0,0.0,0.0,1.0,1.0,phase_2,stop,450.0,400.0,4.0,,,,,,,,,magenta,I
0.0,1.0,1.0,0.0,6.0,6.0,700.3876300000229,1.0,1.0,phase_2,go,500.0,400.0,1.0,,,,,,,,,orange,diamond
0.0,3.0,3.0,0.0,5.0,5.0,553.0671360002088,1.0,1.0,phase_2,go,500.0,400.0,1.0,,,,,,,,,yellow,cross
0.0,5.0,1.0,1.0,6.0,6.0,524.0686120000646,1.0,1.0,phase_2,stop,500.0,400.0,3.0,,,,,,,,,magenta,I
0.0,3.0,3.0,0.0,5.0,5.0,826.9571000000724,1.0,1.0,phase_2,go,500.0,350.0,1.0,,,,,,,,,yellow,cross
0.0,5.0,1.0,1.0,5.0,5.0,630.3577140001835,1.0,1.0,phase_2,stop,500.0,350.0,3.0,,,,,,,,,magenta,I
0.0,8.0,4.0,1.0,5.0,5.0,448.355212000024,2.0,1.0,phase_2,stop,450.0,350.0,3.0,,,,,,,,,blue,flipped triangle
0.0,2.0,2.0,0.0,6.0,6.0,410.3956419999122,2.0,1.0,phase_2,go,400.0,350.0,1.0,,,,,,,,,gray,circle
0.0,2.0,2.0,0.0,6.0,6.0,441.3679489998685,2.0,1.0,phase_2,go,400.0,350.0,1.0,,,,,,,,,gray,circle
0.0,5.0,1.0,1.0,5.0,5.0,445.8332029998928,2.0,1.0,phase_2,stop,400.0,350.0,3.0,,,,,,,,,magenta,I
0.0,5.0,1.0,1.0,5.0,5.0,511.8720730001769,2.0,1.0,phase_2,go,350.0,350.0,1.0,,,,,,,,,magenta,I
0.0,7.0,3.0,1.0,6.0,0.0,0.0,2.0,1.0,phase_2,stop,350.0,350.0,4.0,,,,,,,,,green,triangle
0.0,5.0,1.0,1.0,6.0,0.0,0.0,2.0,1.0,phase_2,stop,350.0,400.0,4.0,,,,,,,,,magenta,I
0.0,8.0,4.0,1.0,6.0,6.0,584.6798570000828,2.0,1.0,phase_2,go,350.0,450.0,1.0,,,,,,,,,blue,flipped triangle
0.0,3.0,3.0,0.0,6.0,6.0,459.4402769998851,2.0,1.0,phase_2,go,350.0,450.0,1.0,,,,,,,,,yellow,cross
0.0,4.0,4.0,0.0,6.0,6.0,474.8299650000263,2.0,1.0,phase_2,go,350.0,450.0,1.0,,,,,,,,,white,hexagon
0.0,6.0,2.0,1.0,5.0,0.0,0.0,2.0,1.0,phase_2,stop,350.0,450.0,4.0,,,,,,,,,cyan,square
0.0,7.0,3.0,1.0,6.0,6.0,553.3954870002162,2.0,1.0,phase_2,stop,400.0,450.0,3.0,,,,,,,,,green,triangle
0.0,4.0,4.0,0.0,5.0,5.0,720.1166009999724,2.0,1.0,phase_2,go,400.0,400.0,1.0,,,,,,,,,white,hexagon
0.0,1.0,1.0,0.0,5.0,5.0,618.1065970004056,2.0,1.0,phase_2,go,400.0,400.0,1.0,,,,,,,,,orange,diamond
0.0,1.0,1.0,0.0,5.0,5.0,679.3599090001408,2.0,1.0,phase_2,go,400.0,400.0,1.0,,,,,,,,,orange,diamond
0.0,4.0,4.0,0.0,6.0,6.0,663.7191109998639,2.0,1.0,phase_2,go,400.0,400.0,1.0,,,,,,,,,white,hexagon
0.0,8.0,4.0,1.0,6.0,0.0,0.0,2.0,1.0,phase_2,stop,400.0,400.0,4.0,,,,,,,,,blue,flipped triangle
0.0,7.0,3.0,1.0,5.0,5.0,662.5016970001525,2.0,1.0,phase_2,go,400.0,450.0,1.0,,,,,,,,,green,triangle
0.0,1.0,1.0,0.0,6.0,6.0,711.0715470003015,2.0,1.0,phase_2,go,400.0,450.0,1.0,,,,,,,,,orange,diamond
0.0,4.0,4.0,0.0,5.0,5.0,554.5429530002366,2.0,1.0,phase_2,go,400.0,450.0,1.0,,,,,,,,,white,hexagon
0.0,4.0,4.0,0.0,6.0,6.0,775.0938099998166,2.0,1.0,phase_2,go,400.0,450.0,1.0,,,,,,,,,white,hexagon
0.0,4.0,4.0,0.0,5.0,5.0,482.6276590001725,2.0,1.0,phase_2,go,400.0,450.0,1.0,,,,,,,,,white,hexagon
0.0,1.0,1.0,0.0,6.0,6.0,715.3983389998757,2.0,1.0,phase_2,go,400.0,450.0,1.0,,,,,,,,,orange,diamond
0.0,3.0,3.0,0.0,5.0,5.0,689.4810610001514,2.0,1.0,phase_2,go,400.0,450.0,1.0,,,,,,,,,yellow,cross
0.0,7.0,3.0,1.0,5.0,0.0,0.0,2.0,1.0,phase_2,stop,400.0,450.0,4.0,,,,,,,,,green,triangle
0.0,4.0,4.0,0.0,6.0,6.0,501.1707869998645,2.0,1.0,phase_2,go,450.0,450.0,1.0,,,,,,,,,white,hexagon
0.0,1.0,1.0,0.0,6.0,6.0,684.3088400000852,2.0,1.0,phase_2,go,450.0,450.0,1.0,,,,,,,,,orange,diamond
0.0,7.0,3.0,1.0,5.0,0.0,0.0,2.0,1.0,phase_2,stop,450.0,450.0,4.0,,,,,,,,,green,triangle
0.0,5.0,1.0,1.0,6.0,0.0,0.0,2.0,1.0,phase_2,stop,500.0,450.0,4.0,,,,,,,,,magenta,I
0.0,2.0,2.0,0.0,5.0,5.0,582.3106299999381,2.0,1.0,phase_2,go,500.0,500.0,1.0,,,,,,,,,gray,circle
0.0,4.0,4.0,0.0,5.0,5.0,603.2900109998991,2.0,1.0,phase_2,go,500.0,500.0,1.0,,,,,,,,,white,hexagon
0.0,2.0,2.0,0.0,6.0,6.0,635.6480880003801,2.0,1.0,phase_2,go,500.0,500.0,1.0,,,,,,,,,gray,circle
0.0,4.0,4.0,0.0,5.0,5.0,671.2716639999599,2.0,1.0,phase_2,go,500.0,500.0,1.0,,,,,,,,,white,hexagon
0.0,3.0,3.0,0.0,5.0,5.0,440.0757980001799,2.0,1.0,phase_2,go,500.0,500.0,1.0,,,,,,,,,yellow,cross
0.0,7.0,3.0,1.0,6.0,0.0,0.0,2.0,1.0,phase_2,stop,500.0,500.0,4.0,,,,,,,,,green,triangle
0.0,3.0,3.0,0.0,6.0,6.0,585.098607999953,2.0,1.0,phase_2,go,500.0,550.0,1.0,,,,,,,,,yellow,cross
0.0,3.0,3.0,0.0,6.0,6.0,651.1584049999328,3.0,1.0,phase_2,go,500.0,550.0,1.0,,,,,,,,,yellow,cross
0.0,8.0,4.0,1.0,6.0,6.0,668.0287419999331,3.0,1.0,phase_2,stop,500.0,550.0,3.0,,,,,,,,,blue,flipped triangle
0.0,2.0,2.0,0.0,5.0,5.0,800.2026410003964,3.0,1.0,phase_2,go,500.0,500.0,1.0,,,,,,,,,gray,circle
0.0,3.0,3.0,0.0,6.0,6.0,455.475621000005,3.0,1.0,phase_2,go,500.0,500.0,1.0,,,,,,,,,yellow,cross
0.0,1.0,1.0,0.0,5.0,5.0,483.5744249999152,3.0,1.0,phase_2,go,500.0,500.0,1.0,,,,,,,,,orange,diamond
0.0,6.0,2.0,1.0,6.0,6.0,564.7747289999643,3.0,1.0,phase_2,go,500.0,500.0,1.0,,,,,,,,,cyan,square
0.0,7.0,3.0,1.0,5.0,5.0,656.0415489998377,3.0,1.0,phase_2,stop,500.0,500.0,3.0,,,,,,,,,green,triangle
0.0,4.0,4.0,0.0,5.0,5.0,497.612178000054,3.0,1.0,phase_2,go,450.0,500.0,1.0,,,,,,,,,white,hexagon
0.0,3.0,3.0,0.0,5.0,5.0,806.3240020001103,3.0,1.0,phase_2,go,450.0,500.0,1.0,,,,,,,,,yellow,cross
0.0,4.0,4.0,0.0,5.0,5.0,741.8636910001624,3.0,1.0,phase_2,go,450.0,500.0,1.0,,,,,,,,,white,hexagon
0.0,1.0,1.0,0.0,5.0,5.0,700.2916659998846,3.0,1.0,phase_2,go,450.0,500.0,1.0,,,,,,,,,orange,diamond
0.0,8.0,4.0,1.0,6.0,6.0,629.4542279997586,3.0,1.0,phase_2,go,450.0,500.0,1.0,,,,,,,,,blue,flipped triangle
0.0,2.0,2.0,0.0,6.0,6.0,598.9110989999062,3.0,1.0,phase_2,go,450.0,500.0,1.0,,,,,,,,,gray,circle
0.0,5.0,1.0,1.0,6.0,0.0,0.0,3.0,1.0,phase_2,stop,450.0,500.0,4.0,,,,,,,,,magenta,I
0.0,6.0,2.0,1.0,6.0,0.0,0.0,3.0,1.0,phase_2,stop,450.0,550.0,4.0,,,,,,,,,cyan,square
0.0,5.0,1.0,1.0,6.0,6.0,636.165622000135,3.0,1.0,phase_2,stop,450.0,600.0,3.0,,,,,,,,,magenta,I
0.0,1.0,1.0,0.0,5.0,5.0,862.2789790001661,3.0,1.0,phase_2,go,450.0,550.0,1.0,,,,,,,,,orange,diamond
0.0,7.0,3.0,1.0,6.0,6.0,674.8293430000558,3.0,1.0,phase_2,stop,450.0,550.0,3.0,,,,,,,,,green,triangle
0.0,3.0,3.0,0.0,6.0,6.0,835.9258800001044,3.0,1.0,phase_2,go,450.0,500.0,1.0,,,,,,,,,yellow,cross
0.0,5.0,1.0,1.0,6.0,6.0,861.7326430003232,3.0,1.0,phase_2,go,450.0,500.0,1.0,,,,,,,,,magenta,I
0.0,3.0,3.0,0.0,5.0,5.0,486.7753690000427,3.0,1.0,phase_2,go,450.0,500.0,1.0,,,,,,,,,yellow,cross
0.0,5.0,1.0,1.0,6.0,6.0,601.1491740000565,3.0,1.0,phase_2,go,450.0,500.0,1.0,,,,,,,,,magenta,I
0.0,5.0,1.0,1.0,5.0,0.0,0.0,3.0,1.0,phase_2,stop,450.0,500.0,4.0,,,,,,,,,magenta,I
0.0,6.0,2.0,1.0,5.0,5.0,693.5251800000515,3.0,1.0,phase_2,go,500.0,500.0,1.0,,,,,,,,,cyan,square
0.0,5.0,1.0,1.0,6.0,0.0,0.0,3.0,1.0,phase_2,stop,500.0,500.0,4.0,,,,,,,,,magenta,I
0.0,7.0,3.0,1.0,6.0,0.0,0.0,3.0,1.0,phase_2,stop,500.0,550.0,4.0,,,,,,,,,green,triangle
0.0,7.0,3.0,1.0,5.0,5.0,675.1846520000981,3.0,1.0,phase_2,stop,500.0,600.0,3.0,,,,,,,,,green,triangle
0.0,1.0,1.0,0.0,6.0,6.0,823.9794139999503,3.0,1.0,phase_2,go,450.0,600.0,1.0,,,,,,,,,orange,diamond
0.0,8.0,4.0,1.0,6.0,0.0,0.0,3.0,1.0,phase_2,stop,450.0,600.0,4.0,,,,,,,,,blue,flipped triangle
0.0,6.0,2.0,1.0,6.0,6.0,729.6654159999889,3.0,1.0,phase_2,stop,450.0,650.0,3.0,,,,,,,,,cyan,square
0.0,7.0,3.0,1.0,6.0,6.0,633.7902250002116,3.0,1.0,phase_2,stop,450.0,600.0,3.0,,,,,,,,,green,triangle
0.0,4.0,4.0,0.0,5.0,5.0,841.0588490000919,3.0,1.0,phase_2,go,450.0,550.0,1.0,,,,,,,,,white,hexagon
0.0,7.0,3.0,1.0,6.0,0.0,0.0,3.0,1.0,phase_2,stop,450.0,550.0,4.0,,,,,,,,,green,triangle
0.0,2.0,2.0,0.0,5.0,5.0,656.8606290002208,3.0,1.0,phase_2,go,450.0,600.0,1.0,,,,,,,,,gray,circle
0.0,8.0,4.0,1.0,6.0,0.0,0.0,3.0,1.0,phase_2,stop,450.0,600.0,4.0,,,,,,,,,blue,flipped triangle
0.0,4.0,4.0,0.0,5.0,5.0,748.3148430001165,3.0,1.0,phase_2,go,450.0,650.0,1.0,,,,,,,,,white,hexagon
0.0,3.0,3.0,0.0,6.0,6.0,262.7720959999351,4.0,1.0,phase_2,go,450.0,650.0,1.0,,,,,,,,,yellow,cross
0.0,1.0,1.0,0.0,5.0,5.0,257.1430120001423,4.0,1.0,phase_2,go,450.0,650.0,1.0,,,,,,,,,orange,diamond
0.0,4.0,4.0,0.0,5.0,5.0,240.7571969997661,4.0,1.0,phase_2,go,450.0,650.0,1.0,,,,,,,,,white,hexagon
0.0,2.0,2.0,0.0,5.0,5.0,277.1156600001632,4.0,1.0,phase_2,go,450.0,650.0,1.0,,,,,,,,,gray,circle
0.0,1.0,1.0,0.0,6.0,6.0,239.2724379997162,4.0,1.0,phase_2,go,450.0,650.0,1.0,,,,,,,,,orange,diamond
0.0,6.0,2.0,1.0,5.0,5.0,230.8283600000322,4.0,1.0,phase_2,stop,450.0,650.0,3.0,,,,,,,,,cyan,square
0.0,7.0,3.0,1.0,5.0,5.0,271.8027660002917,4.0,1.0,phase_2,stop,400.0,650.0,3.0,,,,,,,,,green,triangle
0.0,1.0,1.0,0.0,6.0,6.0,247.8971309997177,4.0,1.0,phase_2,go,350.0,650.0,1.0,,,,,,,,,orange,diamond
0.0,3.0,3.0,0.0,6.0,6.0,281.3168349998705,4.0,1.0,phase_2,go,350.0,650.0,1.0,,,,,,,,,yellow,cross
0.0,5.0,1.0,1.0,6.0,6.0,267.4858370000947,4.0,1.0,phase_2,go,350.0,650.0,1.0,,,,,,,,,magenta,I
0.0,6.0,2.0,1.0,5.0,5.0,226.4206059999196,4.0,1.0,phase_2,stop,350.0,650.0,3.0,,,,,,,,,cyan,square
0.0,7.0,3.0,1.0,5.0,5.0,244.9396720003278,4.0,1.0,phase_2,go,300.0,650.0,1.0,,,,,,,,,green,triangle
0.0,5.0,1.0,1.0,5.0,5.0,262.0149979998132,4.0,1.0,phase_2,stop,300.0,650.0,3.0,,,,,,,,,magenta,I
0.0,6.0,2.0,1.0,6.0,6.0,269.4097459998374,4.0,1.0,phase_2,go,250.0,650.0,1.0,,,,,,,,,cyan,square
0.0,4.0,4.0,0.0,6.0,6.0,258.5047890001988,4.0,1.0,phase_2,go,250.0,650.0,1.0,,,,,,,,,white,hexagon
0.0,6.0,2.0,1.0,5.0,5.0,234.5663810001497,4.0,1.0,phase_2,stop,250.0,650.0,3.0,,,,,,,,,cyan,square
0.0,7.0,3.0,1.0,6.0,6.0,263.078822999887,4.0,1.0,phase_2,stop,200.0,650.0,3.0,,,,,,,,,green,triangle
0.0,1.0,1.0,0.0,5.0,5.0,269.7931299999254,4.0,1.0,phase_2,go,200.0,600.0,1.0,,,,,,,,,orange,diamond
0.0,4.0,4.0,0.0,5.0,5.0,250.1980850001928,4.0,1.0,phase_2,go,200.0,600.0,1.0,,,,,,,,,white,hexagon
0.0,8.0,4.0,1.0,6.0,6.0,276.7375390003508,4.0,1.0,phase_2,stop,200.0,600.0,3.0,,,,,,,,,blue,flipped triangle
0.0,8.0,4.0,1.0,5.0,5.0,277.3812299997189,4.0,1.0,phase_2,stop,200.0,550.0,3.0,,,,,,,,,blue,flipped triangle
0.0,2.0,2.0,0.0,6.0,6.0,265.2128820000143,4.0,1.0,phase_2,go,150.0,550.0,1.0,,,,,,,,,gray,circle
0.0,4.0,4.0,0.0,6.0,6.0,261.9363540002268,4.0,1.0,phase_2,go,150.0,550.0,1.0,,,,,,,,,white,hexagon
0.0,5.0,1.0,1.0,5.0,5.0,271.41054599997,4.0,1.0,phase_2,stop,150.0,550.0,3.0,,,,,,,,,magenta,I
0.0,3.0,3.0,0.0,6.0,6.0,230.3448259999641,4.0,1.0,phase_2,go,100.0,550.0,1.0,,,,,,,,,yellow,cross
0.0,5.0,1.0,1.0,5.0,5.0,266.066961999968,4.0,1.0,phase_2,stop,100.0,550.0,3.0,,,,,,,,,magenta,I
0.0,2.0,2.0,0.0,6.0,6.0,238.4803780000766,4.0,1.0,phase_2,go,50.0,550.0,1.0,,,,,,,,,gray,circle
0.0,8.0,4.0,1.0,5.0,5.0,224.9081539998769,4.0,1.0,phase_2,stop,50.0,550.0,3.0,,,,,,,,,blue,flipped triangle
0.0,2.0,2.0,0.0,5.0,5.0,257.554497000001,4.0,1.0,phase_2,go,0.0,550.0,1.0,,,,,,,,,gray,circle
0.0,5.0,1.0,1.0,6.0,6.0,260.8030710002822,4.0,1.0,phase_2,go,0.0,550.0,1.0,,,,,,,,,magenta,I
0.0,2.0,2.0,0.0,6.0,6.0,252.4373000001105,4.0,1.0,phase_2,go,0.0,550.0,1.0,,,,,,,,,gray,circle
0.0,8.0,4.0,1.0,6.0,6.0,279.676494999876,4.0,1.0,phase_2,stop,0.0,550.0,3.0,,,,,,,,,blue,flipped triangle
0.0,5.0,1.0,1.0,5.0,5.0,251.3898130000598,4.0,1.0,phase_2,stop,0.0,500.0,3.0,,,,,,,,,magenta,I
0.0,2.0,2.0,0.0,6.0,6.0,250.2303490000486,4.0,1.0,phase_2,go,0.0,500.0,1.0,,,,,,,,,gray,circle
0.0,8.0,4.0,1.0,5.0,5.0,231.4305459999559,4.0,1.0,phase_2,stop,0.0,500.0,3.0,,,,,,,,,blue,flipped triangle
0.0,8.0,4.0,1.0,5.0,5.0,298.8969790003466,4.0,1.0,phase_2,stop,0.0,500.0,3.0,,,,,,,,,blue,flipped triangle
0.0,7.0,3.0,1.0,5.0,5.0,306.8479239996122,5.0,1.0,phase_2,go,0.0,500.0,1.0,,,,,,,,,green,triangle
0.0,8.0,4.0,1.0,5.0,0.0,0.0,5.0,1.0,phase_2,stop,0.0,500.0,4.0,,,,,,,,,blue,flipped triangle
0.0,1.0,1.0,0.0,5.0,5.0,413.99105399978,5.0,1.0,phase_2,go,50.0,500.0,1.0,,,,,,,,,orange,diamond
0.0,1.0,1.0,0.0,5.0,5.0,271.993971000029,5.0,1.0,phase_2,go,50.0,500.0,1.0,,,,,,,,,orange,diamond
0.0,6.0,2.0,1.0,5.0,5.0,287.3162500000035,5.0,1.0,phase_2,go,50.0,500.0,1.0,,,,,,,,,cyan,square
0.0,8.0,4.0,1.0,6.0,6.0,317.3877209997044,5.0,1.0,phase_2,go,50.0,500.0,1.0,,,,,,,,,blue,flipped triangle
0.0,7.0,3.0,1.0,5.0,5.0,304.7843149997788,5.0,1.0,phase_2,stop,50.0,500.0,3.0,,,,,,,,,green,triangle
0.0,8.0,4.0,1.0,6.0,6.0,307.9019860001608,5.0,1.0,phase_2,go,0.0,500.0,1.0,,,,,,,,,blue,flipped triangle
0.0,6.0,2.0,1.0,5.0,0.0,0.0,5.0,1.0,phase_2,stop,0.0,500.0,4.0,,,,,,,,,cyan,square
0.0,3.0,3.0,0.0,5.0,5.0,365.1145899998482,5.0,1.0,phase_2,go,50.0,500.0,1.0,,,,,,,,,yellow,cross
0.0,3.0,3.0,0.0,6.0,6.0,278.0149280001751,5.0,1.0,phase_2,go,50.0,500.0,1.0,,,,,,,,,yellow,cross
0.0,4.0,4.0,0.0,6.0,6.0,326.5740219999316,5.0,1.0,phase_2,go,50.0,500.0,1.0,,,,,,,,,white,hexagon
0.0,1.0,1.0,0.0,6.0,6.0,311.529457999768,5.0,1.0,phase_2,go,50.0,500.0,1.0,,,,,,,,,orange,diamond
0.0,2.0,2.0,0.0,5.0,5.0,314.1787120002846,5.0,1.0,phase_2,go,50.0,500.0,1.0,,,,,,,,,gray,circle
0.0,8.0,4.0,1.0,5.0,0.0,0.0,5.0,1.0,phase_2,stop,50.0,500.0,4.0,,,,,,,,,blue,flipped triangle
0.0,7.0,3.0,1.0,5.0,5.0,293.5267190000559,5.0,1.0,phase_2,go,100.0,500.0,1.0,,,,,,,,,green,triangle
0.0,6.0,2.0,1.0,6.0,6.0,318.5628679998444,5.0,1.0,phase_2,stop,100.0,500.0,3.0,,,,,,,,,cyan,square
0.0,8.0,4.0,1.0,6.0,6.0,329.053765000026,5.0,1.0,phase_2,stop,100.0,450.0,3.0,,,,,,,,,blue,flipped triangle
0.0,2.0,2.0,0.0,6.0,6.0,390.8831190001365,5.0,1.0,phase_2,go,100.0,400.0,1.0,,,,,,,,,gray,circle
0.0,8.0,4.0,1.0,5.0,5.0,390.9706729996287,5.0,1.0,phase_2,go,100.0,400.0,1.0,,,,,,,,,blue,flipped triangle
0.0,7.0,3.0,1.0,5.0,5.0,274.6817689999261,5.0,1.0,phase_2,go,100.0,400.0,1.0,,,,,,,,,green,triangle
0.0,5.0,1.0,1.0,5.0,0.0,0.0,5.0,1.0,phase_2,stop,100.0,400.0,4.0,,,,,,,,,magenta,I
0.0,2.0,2.0,0.0,5.0,5.0,385.1367550000759,5.0,1.0,phase_2,go,150.0,400.0,1.0,,,,,,,,,gray,circle
0.0,2.0,2.0,0.0,6.0,6.0,309.5050679999076,5.0,1.0,phase_2,go,150.0,400.0,1.0,,,,,,,,,gray,circle
0.0,2.0,2.0,0.0,5.0,5.0,317.5591240001267,5.0,1.0,phase_2,go,150.0,400.0,1.0,,,,,,,,,gray,circle
0.0,1.0,1.0,0.0,6.0,6.0,396.0262219998185,5.0,1.0,phase_2,go,150.0,400.0,1.0,,,,,,,,,orange,diamond
0.0,1.0,1.0,0.0,5.0,5.0,288.066899000114,5.0,1.0,phase_2,go,150.0,400.0,1.0,,,,,,,,,orange,diamond
0.0,7.0,3.0,1.0,5.0,5.0,297.7196369997728,5.0,1.0,phase_2,stop,150.0,400.0,3.0,,,,,,,,,green,triangle
0.0,1.0,1.0,0.0,6.0,6.0,421.0451890003241,5.0,1.0,phase_2,go,100.0,400.0,1.0,,,,,,,,,orange,diamond
0.0,1.0,1.0,0.0,5.0,5.0,390.6820990000597,5.0,1.0,phase_2,go,100.0,400.0,1.0,,,,,,,,,orange,diamond
0.0,6.0,2.0,1.0,6.0,6.0,445.0478159997146,5.0,1.0,phase_2,stop,100.0,400.0,3.0,,,,,,,,,cyan,square
0.0,5.0,1.0,1.0,5.0,5.0,610.7417350003743,5.0,1.0,phase_2,go,100.0,350.0,1.0,,,,,,,,,magenta,I
0.0,7.0,3.0,1.0,6.0,6.0,289.9312810000083,5.0,1.0,phase_2,go,100.0,350.0,1.0,,,,,,,,,green,triangle
0.0,4.0,4.0,0.0,5.0,5.0,386.0643530001653,5.0,1.0,phase_2,go,100.0,350.0,1.0,,,,,,,,,white,hexagon
0.0,4.0,4.0,0.0,5.0,5.0,352.3991460001525,5.0,1.0,phase_2,go,100.0,350.0,1.0,,,,,,,,,white,hexagon
0.0,3.0,3.0,0.0,6.0,6.0,444.3335179998939,5.0,1.0,phase_2,go,100.0,350.0,1.0,,,,,,,,,yellow,cross
0.0,2.0,2.0,0.0,5.0,5.0,307.2454319999451,6.0,1.0,phase_2,go,100.0,350.0,1.0,,,,,,,,,gray,circle
0.0,3.0,3.0,0.0,6.0,6.0,459.4065209998916,6.0,1.0,phase_2,go,100.0,350.0,1.0,,,,,,,,,yellow,cross
0.0,2.0,2.0,0.0,5.0,5.0,581.9262400000298,6.0,1.0,phase_2,go,100.0,350.0,1.0,,,,,,,,,gray,circle
0.0,8.0,4.0,1.0,5.0,0.0,0.0,6.0,1.0,phase_2,stop,100.0,350.0,4.0,,,,,,,,,blue,flipped triangle
0.0,3.0,3.0,0.0,5.0,5.0,538.0742390002524,6.0,1.0,phase_2,go,150.0,350.0,1.0,,,,,,,,,yellow,cross
0.0,7.0,3.0,1.0,6.0,0.0,0.0,6.0,1.0,phase_2,stop,150.0,350.0,4.0,,,,,,,,,green,triangle
0.0,6.0,2.0,1.0,5.0,5.0,607.7460950000386,6.0,1.0,phase_2,go,150.0,400.0,1.0,,,,,,,,,cyan,square
0.0,4.0,4.0,0.0,5.0,5.0,489.6008830000937,6.0,1.0,phase_2,go,150.0,400.0,1.0,,,,,,,,,white,hexagon
0.0,3.0,3.0,0.0,6.0,6.0,562.347219000003,6.0,1.0,phase_2,go,150.0,400.0,1.0,,,,,,,,,yellow,cross
0.0,6.0,2.0,1.0,6.0,6.0,574.3920240001898,6.0,1.0,phase_2,stop,150.0,400.0,3.0,,,,,,,,,cyan,square
0.0,3.0,3.0,0.0,5.0,5.0,678.3039380002265,6.0,1.0,phase_2,go,150.0,350.0,1.0,,,,,,,,,yellow,cross
0.0,4.0,4.0,0.0,6.0,6.0,681.2874759998522,6.0,1.0,phase_2,go,150.0,350.0,1.0,,,,,,,,,white,hexagon
0.0,8.0,4.0,1.0,6.0,6.0,658.3272530001523,6.0,1.0,phase_2,go,150.0,350.0,1.0,,,,,,,,,blue,flipped triangle
0.0,4.0,4.0,0.0,6.0,6.0,574.6247209999638,6.0,1.0,phase_2,go,150.0,350.0,1.0,,,,,,,,,white,hexagon
0.0,7.0,3.0,1.0,6.0,0.0,0.0,6.0,1.0,phase_2,stop,150.0,350.0,4.0,,,,,,,,,green,triangle
0.0,6.0,2.0,1.0,6.0,6.0,479.002772000058,6.0,1.0,phase_2,stop,150.0,400.0,3.0,,,,,,,,,cyan,square
0.0,7.0,3.0,1.0,6.0,0.0,0.0,6.0,1.0,phase_2,stop,150.0,350.0,4.0,,,,,,,,,green,triangle
0.0,3.0,3.0,0.0,6.0,6.0,717.4303359997793,6.0,1.0,phase_2,go,150.0,400.0,1.0,,,,,,,,,yellow,cross
0.0,1.0,1.0,0.0,6.0,6.0,736.1423669999567,6.0,1.0,phase_2,go,150.0,400.0,1.0,,,,,,,,,orange,diamond
0.0,3.0,3.0,0.0,6.0,6.0,769.8058490000221,6.0,1.0,phase_2,go,150.0,400.0,1.0,,,,,,,,,yellow,cross
0.0,1.0,1.0,0.0,5.0,5.0,601.69635200009,6.0,1.0,phase_2,go,150.0,400.0,1.0,,,,,,,,,orange,diamond
0.0,7.0,3.0,1.0,6.0,0.0,0.0,6.0,1.0,phase_2,stop,150.0,400.0,4.0,,,,,,,,,green,triangle
0.0,1.0,1.0,0.0,6.0,6.0,682.9595799999879,6.0,1.0,phase_2,go,150.0,450.0,1.0,,,,,,,,,orange,diamond
0.0,6.0,2.0,1.0,6.0,0.0,0.0,6.0,1.0,phase_2,stop,150.0,450.0,4.0,,,,,,,,,cyan,square
0.0,1.0,1.0,0.0,6.0,6.0,688.741471999947,6.0,1.0,phase_2,go,150.0,500.0,1.0,,,,,,,,,orange,diamond
0.0,7.0,3.0,1.0,5.0,5.0,724.7939059998316,6.0,1.0,phase_2,go,150.0,500.0,1.0,,,,,,,,,green,triangle
0.0,8.0,4.0,1.0,6.0,0.0,0.0,6.0,1.0,phase_2,stop,150.0,500.0,4.0,,,,,,,,,blue,flipped triangle
0.0,4.0,4.0,0.0,6.0,6.0,709.6044919999258,6.0,1.0,phase_2,go,150.0,550.0,1.0,,,,,,,,,white,hexagon
0.0,6.0,2.0,1.0,5.0,0.0,0.0,6.0,1.0,phase_2,stop,150.0,550.0,4.0,,,,,,,,,cyan,square
0.0,7.0,3.0,1.0,6.0,6.0,480.4012300000977,6.0,1.0,phase_2,stop,200.0,550.0,3.0,,,,,,,,,green,triangle
0.0,6.0,2.0,1.0,5.0,5.0,665.3771380001672,6.0,1.0,phase_2,go,200.0,500.0,1.0,,,,,,,,,cyan,square
0.0,8.0,4.0,1.0,6.0,6.0,603.2031669997195,6.0,1.0,phase_2,go,200.0,500.0,1.0,,,,,,,,,blue,flipped triangle
0.0,2.0,2.0,0.0,5.0,5.0,612.940019999769,6.0,1.0,phase_2,go,200.0,500.0,1.0,,,,,,,,,gray,circle
0.0,4.0,4.0,0.0,6.0,6.0,693.2727720000003,6.0,1.0,phase_2,go,200.0,500.0,1.0,,,,,,,,,white,hexagon
0.0,2.0,2.0,0.0,5.0,5.0,647.0148510002218,6.0,1.0,phase_2,go,200.0,500.0,1.0,,,,,,,,,gray,circle
0.0,6.0,2.0,1.0,5.0,0.0,0.0,6.0,1.0,phase_2,stop,200.0,500.0,4.0,,,,,,,,,cyan,square
0.0,4.0,4.0,0.0,6.0,6.0,294.5109729998876,7.0,1.0,phase_2,go,250.0,500.0,1.0,,,,,,,,,white,hexagon
0.0,6.0,2.0,1.0,6.0,6.0,525.4686450002737,7.0,1.0,phase_2,go,250.0,500.0,1.0,,,,,,,,,cyan,square
0.0,5.0,1.0,1.0,5.0,0.0,0.0,7.0,1.0,phase_2,stop,250.0,500.0,4.0,,,,,,,,,magenta,I
0.0,3.0,3.0,0.0,6.0,6.0,503.65348200011795,7.0,1.0,phase_2,go,300.0,500.0,1.0,,,,,,,,,yellow,cross
0.0,8.0,4.0,1.0,5.0,0.0,0.0,7.0,1.0,phase_2,stop,300.0,500.0,4.0,,,,,,,,,blue,flipped triangle
0.0,7.0,3.0,1.0,6.0,6.0,581.4855250000619,7.0,1.0,phase_2,stop,350.0,500.0,3.0,,,,,,,,,green,triangle
0.0,8.0,4.0,1.0,6.0,0.0,0.0,7.0,1.0,phase_2,stop,350.0,450.0,4.0,,,,,,,,,blue,flipped triangle
0.0,3.0,3.0,0.0,6.0,6.0,583.3210340001642,7.0,1.0,phase_2,go,350.0,500.0,1.0,,,,,,,,,yellow,cross
0.0,4.0,4.0,0.0,5.0,5.0,566.5527689998271,7.0,1.0,phase_2,go,350.0,500.0,1.0,,,,,,,,,white,hexagon
0.0,2.0,2.0,0.0,5.0,5.0,568.6499759999606,7.0,1.0,phase_2,go,350.0,500.0,1.0,,,,,,,,,gray,circle
0.0,8.0,4.0,1.0,5.0,0.0,0.0,7.0,1.0,phase_2,stop,350.0,500.0,4.0,,,,,,,,,blue,flipped triangle
0.0,6.0,2.0,1.0,6.0,6.0,534.3936529998246,7.0,1.0,phase_2,stop,400.0,500.0,3.0,,,,,,,,,cyan,square
0.0,2.0,2.0,0.0,6.0,6.0,689.4639530000859,7.0,1.0,phase_2,go,400.0,450.0,1.0,,,,,,,,,gray,circle
0.0,5.0,1.0,1.0,6.0,6.0,573.8544000000729,7.0,1.0,phase_2,stop,400.0,450.0,3.0,,,,,,,,,magenta,I
0.0,2.0,2.0,0.0,6.0,6.0,839.0237270000398,7.0,1.0,phase_2,go,400.0,400.0,1.0,,,,,,,,,gray,circle
0.0,6.0,2.0,1.0,5.0,0.0,0.0,7.0,1.0,phase_2,stop,400.0,400.0,4.0,,,,,,,,,cyan,square
0.0,4.0,4.0,0.0,5.0,5.0,649.2757199998778,7.0,1.0,phase_2,go,450.0,400.0,1.0,,,,,,,,,white,hexagon
0.0,4.0,4.0,0.0,5.0,5.0,648.572576999868,7.0,1.0,phase_2,go,450.0,400.0,1.0,,,,,,,,,white,hexagon
0.0,8.0,4.0,1.0,6.0,0.0,0.0,7.0,1.0,phase_2,stop,450.0,400.0,4.0,,,,,,,,,blue,flipped triangle
0.0,4.0,4.0,0.0,5.0,5.0,712.1327790000578,7.0,1.0,phase_2,go,450.0,450.0,1.0,,,,,,,,,white,hexagon
0.0,5.0,1.0,1.0,5.0,5.0,672.1439940001801,7.0,1.0,phase_2,go,450.0,450.0,1.0,,,,,,,,,magenta,I
0.0,6.0,2.0,1.0,6.0,0.0,0.0,7.0,1.0,phase_2,stop,450.0,450.0,4.0,,,,,,,,,cyan,square
0.0,6.0,2.0,1.0,6.0,0.0,0.0,7.0,1.0,phase_2,stop,450.0,500.0,4.0,,,,,,,,,cyan,square
0.0,1.0,1.0,0.0,6.0,6.0,653.3657950003544,7.0,1.0,phase_2,go,450.0,550.0,1.0,,,,,,,,,orange,diamond
0.0,4.0,4.0,0.0,6.0,6.0,683.707823000077,7.0,1.0,phase_2,go,450.0,550.0,1.0,,,,,,,,,white,hexagon
0.0,2.0,2.0,0.0,6.0,6.0,711.3809619995664,7.0,1.0,phase_2,go,450.0,550.0,1.0,,,,,,,,,gray,circle
0.0,5.0,1.0,1.0,6.0,6.0,655.0733179997223,7.0,1.0,phase_2,stop,450.0,550.0,3.0,,,,,,,,,magenta,I
0.0,1.0,1.0,0.0,6.0,6.0,558.5550119999425,7.0,1.0,phase_2,go,450.0,500.0,1.0,,,,,,,,,orange,diamond
0.0,1.0,1.0,0.0,6.0,6.0,764.2488649998995,7.0,1.0,phase_2,go,450.0,500.0,1.0,,,,,,,,,orange,diamond
0.0,3.0,3.0,0.0,5.0,5.0,540.602153999771,7.0,1.0,phase_2,go,450.0,500.0,1.0,,,,,,,,,yellow,cross
0.0,6.0,2.0,1.0,5.0,0.0,0.0,7.0,1.0,phase_2,stop,450.0,500.0,4.0,,,,,,,,,cyan,square
0.0,5.0,1.0,1.0,6.0,6.0,626.1351309999554,7.0,1.0,phase_2,stop,500.0,500.0,3.0,,,,,,,,,magenta,I
0.0,1.0,1.0,0.0,6.0,6.0,619.0061130000686,7.0,1.0,phase_2,go,500.0,450.0,1.0,,,,,,,,,orange,diamond
0.0,5.0,1.0,1.0,6.0,6.0,708.8923660003275,7.0,1.0,phase_2,go,500.0,450.0,1.0,,,,,,,,,magenta,I
0.0,6.0,2.0,1.0,5.0,5.0,612.0308819999991,7.0,1.0,phase_2,stop,500.0,450.0,3.0,,,,,,,,,cyan,square
0.0,8.0,4.0,1.0,6.0,0.0,0.0,7.0,1.0,phase_2,stop,450.0,450.0,4.0,,,,,,,,,blue,flipped triangle
0.0,1.0,1.0,0.0,5.0,5.0,531.9227609998052,8.0,1.0,phase_2,go,450.0,500.0,1.0,,,,,,,,,orange,diamond
0.0,1.0,1.0,0.0,5.0,5.0,595.0658239999029,8.0,1.0,phase_2,go,450.0,500.0,1.0,,,,,,,,,orange,diamond
0.0,3.0,3.0,0.0,5.0,5.0,598.7477269995907,8.0,1.0,phase_2,go,450.0,500.0,1.0,,,,,,,,,yellow,cross
0.0,2.0,2.0,0.0,6.0,6.0,474.5685319999211,8.0,1.0,phase_2,go,450.0,500.0,1.0,,,,,,,,,gray,circle
0.0,8.0,4.0,1.0,5.0,5.0,626.5439499998138,8.0,1.0,phase_2,stop,450.0,500.0,3.0,,,,,,,,,blue,flipped triangle
0.0,2.0,2.0,0.0,5.0,5.0,706.7873990004045,8.0,1.0,phase_2,go,400.0,500.0,1.0,,,,,,,,,gray,circle
0.0,3.0,3.0,0.0,5.0,5.0,721.6393599996991,8.0,1.0,phase_2,go,400.0,500.0,1.0,,,,,,,,,yellow,cross
0.0,2.0,2.0,0.0,6.0,6.0,736.007193000205,8.0,1.0,phase_2,go,400.0,500.0,1.0,,,,,,,,,gray,circle
0.0,4.0,4.0,0.0,6.0,6.0,767.1935169996686,8.0,1.0,phase_2,go,400.0,500.0,1.0,,,,,,,,,white,hexagon
0.0,1.0,1.0,0.0,5.0,5.0,574.9104880001141,8.0,1.0,phase_2,go,400.0,500.0,1.0,,,,,,,,,orange,diamond
0.0,3.0,3.0,0.0,5.0,5.0,602.7194080002118,8.0,1.0,phase_2,go,400.0,500.0,1.0,,,,,,,,,yellow,cross
0.0,7.0,3.0,1.0,6.0,6.0,773.0901869999798,8.0,1.0,phase_2,stop,400.0,500.0,3.0,,,,,,,,,green,triangle
0.0,2.0,2.0,0.0,5.0,5.0,529.1242339999371,8.0,1.0,phase_2,go,400.0,450.0,1.0,,,,,,,,,gray,circle
0.0,6.0,2.0,1.0,5.0,0.0,0.0,8.0,1.0,phase_2,stop,400.0,450.0,4.0,,,,,,,,,cyan,square
0.0,5.0,1.0,1.0,5.0,5.0,437.7359919999435,8.0,1.0,phase_2,stop,450.0,450.0,3.0,,,,,,,,,magenta,I
0.0,3.0,3.0,0.0,5.0,5.0,715.968415000134,8.0,1.0,phase_2,go,400.0,450.0,1.0,,,,,,,,,yellow,cross
0.0,7.0,3.0,1.0,5.0,0.0,0.0,8.0,1.0,phase_2,stop,400.0,450.0,4.0,,,,,,,,,green,triangle
0.0,6.0,2.0,1.0,5.0,0.0,0.0,8.0,1.0,phase_2,stop,450.0,450.0,4.0,,,,,,,,,cyan,square
0.0,8.0,4.0,1.0,5.0,0.0,0.0,8.0,1.0,phase_2,stop,500.0,450.0,4.0,,,,,,,,,blue,flipped triangle
0.0,2.0,2.0,0.0,6.0,6.0,565.6011480000416,8.0,1.0,phase_2,go,550.0,450.0,1.0,,,,,,,,,gray,circle
0.0,6.0,2.0,1.0,6.0,6.0,526.5451780001058,8.0,1.0,phase_2,stop,550.0,450.0,3.0,,,,,,,,,cyan,square
0.0,3.0,3.0,0.0,5.0,5.0,677.4005659999602,8.0,1.0,phase_2,go,550.0,400.0,1.0,,,,,,,,,yellow,cross
0.0,7.0,3.0,1.0,6.0,0.0,0.0,8.0,1.0,phase_2,stop,550.0,400.0,4.0,,,,,,,,,green,triangle
0.0,8.0,4.0,1.0,5.0,5.0,546.9508040000619,8.0,1.0,phase_2,go,550.0,450.0,1.0,,,,,,,,,blue,flipped triangle
0.0,7.0,3.0,1.0,5.0,5.0,627.9951380001876,8.0,1.0,phase_2,stop,550.0,450.0,3.0,,,,,,,,,green,triangle
0.0,7.0,3.0,1.0,5.0,5.0,682.5196319996394,8.0,1.0,phase_2,go,500.0,450.0,1.0,,,,,,,,,green,triangle
0.0,5.0,1.0,1.0,5.0,0.0,0.0,8.0,1.0,phase_2,stop,500.0,450.0,4.0,,,,,,,,,magenta,I
0.0,2.0,2.0,0.0,5.0,5.0,760.0830910000695,8.0,1.0,phase_2,go,550.0,450.0,1.0,,,,,,,,,gray,circle
0.0,7.0,3.0,1.0,5.0,5.0,624.4823239999278,8.0,1.0,phase_2,go,550.0,450.0,1.0,,,,,,,,,green,triangle
0.0,6.0,2.0,1.0,5.0,5.0,633.8998860001084,8.0,1.0,phase_2,go,550.0,450.0,1.0,,,,,,,,,cyan,square
0.0,5.0,1.0,1.0,6.0,0.0,0.0,8.0,1.0,phase_2,stop,550.0,450.0,4.0,,,,,,,,,magenta,I
0.0,5.0,1.0,1.0,6.0,6.0,656.1934340002153,8.0,1.0,phase_2,stop,550.0,500.0,3.0,,,,,,,,,magenta,I
0.0,2.0,2.0,0.0,5.0,5.0,690.9237939999002,8.0,1.0,phase_2,go,550.0,450.0,1.0,,,,,,,,,gray,circle
0.0,6.0,2.0,1.0,6.0,0.0,0.0,8.0,1.0,phase_2,stop,550.0,450.0,4.0,,,,,,,,,cyan,square
0.0,1.0,1.0,0.0,6.0,6.0,820.9030189996156,8.0,1.0,phase_2,go,550.0,500.0,1.0,,,,,,,,,orange,diamond
0.0,4.0,4.0,0.0,6.0,6.0,692.8574099997604,8.0,1.0,phase_2,go,550.0,500.0,1.0,,,,,,,,,white,hexagon
0.0,8.0,4.0,1.0,7.0,4.0,3955.091560000256,1.0,1.0,phase_3,,,,,234.0,6.0,78.0,195.0,39.0,234.0,156.0,117.0,blue,flipped triangle
0.0,1.0,1.0,0.0,7.0,6.0,2531.549085999813,1.0,1.0,phase_3,,,,,49.0,1.0,294.0,147.0,196.0,98.0,245.0,49.0,orange,diamond
0.0,2.0,2.0,0.0,7.0,6.0,2242.548582000381,1.0,1.0,phase_3,,,,,44.0,1.0,264.0,176.0,220.0,88.0,132.0,44.0,gray,circle
0.0,4.0,4.0,0.0,7.0,5.0,2638.600713999949,1.0,1.0,phase_3,,,,,294.0,6.0,196.0,98.0,147.0,49.0,294.0,245.0,white,hexagon
0.0,8.0,4.0,1.0,7.0,2.0,2207.982773000367,1.0,1.0,phase_3,,,,,204.0,6.0,102.0,204.0,68.0,170.0,136.0,34.0,blue,flipped triangle
0.0,4.0,4.0,0.0,7.0,5.0,2935.3915330002565,1.0,1.0,phase_3,,,,,234.0,6.0,39.0,156.0,117.0,195.0,234.0,78.0,white,hexagon
0.0,6.0,2.0,1.0,7.0,3.0,1780.4656200000863,1.0,1.0,phase_3,,,,,54.0,1.0,324.0,162.0,54.0,216.0,108.0,270.0,cyan,square
0.0,5.0,1.0,1.0,7.0,3.0,1773.1146989999615,1.0,1.0,phase_3,,,,,68.0,2.0,204.0,102.0,68.0,170.0,34.0,136.0,magenta,I
0.0,8.0,4.0,1.0,7.0,5.0,2862.552757999765,1.0,1.0,phase_3,,,,,294.0,6.0,147.0,196.0,98.0,49.0,294.0,245.0,blue,flipped triangle
0.0,3.0,3.0,0.0,7.0,4.0,2028.1512479996309,1.0,1.0,phase_3,,,,,78.0,2.0,117.0,234.0,39.0,78.0,156.0,195.0,yellow,cross
0.0,7.0,3.0,1.0,7.0,1.0,2522.7581630001623,1.0,1.0,phase_3,,,,,68.0,2.0,68.0,170.0,34.0,102.0,204.0,136.0,green,triangle
0.0,6.0,2.0,1.0,7.0,5.0,1721.7138060000252,1.0,1.0,phase_3,,,,,88.0,2.0,176.0,132.0,264.0,44.0,88.0,220.0,cyan,square
0.0,5.0,1.0,1.0,7.0,5.0,2679.225548999966,1.0,1.0,phase_3,,,,,44.0,1.0,88.0,132.0,176.0,220.0,44.0,264.0,magenta,I
0.0,2.0,2.0,0.0,7.0,5.0,2224.4322840001587,1.0,1.0,phase_3,,,,,34.0,1.0,136.0,170.0,102.0,68.0,34.0,204.0,gray,circle
0.0,8.0,4.0,1.0,7.0,2.0,2523.169152999799,1.0,1.0,phase_3,,,,,294.0,6.0,196.0,294.0,245.0,147.0,49.0,98.0,blue,flipped triangle
0.0,1.0,1.0,0.0,7.0,3.0,2005.0695360000645,1.0,1.0,phase_3,,,,,54.0,1.0,108.0,162.0,54.0,216.0,270.0,324.0,orange,diamond
0.0,4.0,4.0,0.0,7.0,2.0,2624.097447999702,1.0,1.0,phase_3,,,,,324.0,6.0,216.0,324.0,108.0,162.0,270.0,54.0,white,hexagon
0.0,6.0,2.0,1.0,7.0,6.0,2084.557367999878,1.0,1.0,phase_3,,,,,78.0,2.0,195.0,234.0,156.0,39.0,117.0,78.0,cyan,square
0.0,7.0,3.0,1.0,7.0,4.0,2051.267032999931,1.0,1.0,phase_3,,,,,39.0,1.0,117.0,156.0,195.0,39.0,234.0,78.0,green,triangle
0.0,3.0,3.0,0.0,7.0,4.0,4518.5979130001215,1.0,1.0,phase_3,,,,,68.0,2.0,136.0,102.0,34.0,68.0,170.0,204.0,yellow,cross
0.0,4.0,4.0,0.0,7.0,3.0,2503.4834849998333,2.0,1.0,phase_3,,,,,270.0,5.0,216.0,108.0,270.0,54.0,162.0,324.0,white,hexagon
0.0,5.0,1.0,1.0,7.0,5.0,1699.930346000201,2.0,1.0,phase_3,,,,,54.0,1.0,216.0,162.0,324.0,108.0,54.0,270.0,magenta,I
0.0,1.0,1.0,0.0,7.0,1.0,2227.6349690000643,2.0,1.0,phase_3,,,,,34.0,1.0,34.0,68.0,170.0,136.0,204.0,102.0,orange,diamond
0.0,8.0,4.0,1.0,7.0,4.0,1899.5538879999003,2.0,1.0,phase_3,,,,,234.0,6.0,156.0,39.0,195.0,234.0,78.0,117.0,blue,flipped triangle
0.0,3.0,3.0,0.0,7.0,1.0,3207.0788890000586,2.0,1.0,phase_3,,,,,68.0,2.0,68.0,204.0,34.0,170.0,102.0,136.0,yellow,cross
0.0,2.0,2.0,0.0,7.0,6.0,3724.9226660001113,2.0,1.0,phase_3,,,,,147.0,3.0,294.0,98.0,245.0,196.0,49.0,147.0,gray,circle
0.0,6.0,2.0,1.0,7.0,3.0,2367.6417649999166,2.0,1.0,phase_3,,,,,34.0,1.0,204.0,68.0,34.0,102.0,136.0,170.0,cyan,square
0.0,1.0,1.0,0.0,7.0,1.0,2369.260187999771,2.0,1.0,phase_3,,,,,98.0,2.0,98.0,49.0,294.0,245.0,147.0,196.0,orange,diamond
0.0,1.0,1.0,0.0,7.0,1.0,1517.2401070003616,2.0,1.0,phase_3,,,,,78.0,2.0,78.0,39.0,117.0,156.0,234.0,195.0,orange,diamond
0.0,2.0,2.0,0.0,7.0,2.0,2211.030137999842,2.0,1.0,phase_3,,,,,108.0,2.0,54.0,108.0,162.0,324.0,270.0,216.0,gray,circle
0.0,5.0,1.0,1.0,7.0,5.0,1563.127605999398,2.0,1.0,phase_3,,,,,39.0,1.0,156.0,195.0,234.0,117.0,39.0,78.0,magenta,I
0.0,7.0,3.0,1.0,7.0,3.0,2459.4199869998192,2.0,1.0,phase_3,,,,,78.0,2.0,195.0,156.0,78.0,117.0,39.0,234.0,green,triangle
0.0,1.0,1.0,0.0,7.0,2.0,1768.2225580001614,2.0,1.0,phase_3,,,,,68.0,2.0,136.0,68.0,170.0,34.0,204.0,102.0,orange,diamond
0.0,2.0,2.0,0.0,7.0,2.0,2582.0062160000816,2.0,1.0,phase_3,,,,,117.0,3.0,39.0,117.0,78.0,195.0,156.0,234.0,gray,circle
0.0,6.0,2.0,1.0,7.0,6.0,3272.8731259994674,2.0,1.0,phase_3,,,,,54.0,1.0,270.0,162.0,324.0,216.0,108.0,54.0,cyan,square
0.0,5.0,1.0,1.0,7.0,6.0,1880.730027000027,2.0,1.0,phase_3,,,,,44.0,1.0,264.0,88.0,220.0,176.0,132.0,44.0,magenta,I
0.0,4.0,4.0,0.0,7.0,1.0,2307.7455550001105,2.0,1.0,phase_3,,,,,264.0,6.0,264.0,88.0,176.0,220.0,132.0,44.0,white,hexagon
0.0,8.0,4.0,1.0,7.0,2.0,2225.755317999756,2.0,1.0,phase_3,,,,,220.0,5.0,44.0,220.0,88.0,264.0,132.0,176.0,blue,flipped triangle
0.0,1.0,1.0,0.0,7.0,6.0,3371.051299999636,2.0,1.0,phase_3,,,,,44.0,1.0,220.0,132.0,88.0,264.0,176.0,44.0,orange,diamond
0.0,4.0,4.0,0.0,7.0,5.0,1517.848834000688,2.0,1.0,phase_3,,,,,234.0,6.0,78.0,195.0,156.0,117.0,234.0,39.0,white,hexagon
0.0,3.0,3.0,0.0,7.0,6.0,3018.6191479997437,3.0,1.0,phase_3,,,,,49.0,1.0,147.0,196.0,98.0,294.0,245.0,49.0,yellow,cross
0.0,2.0,2.0,0.0,7.0,5.0,1881.9601609993697,3.0,1.0,phase_3,,,,,88.0,2.0,264.0,44.0,132.0,176.0,88.0,220.0,gray,circle
0.0,7.0,3.0,1.0,7.0,3.0,2104.239579999557,3.0,1.0,phase_3,,,,,34.0,1.0,136.0,102.0,34.0,204.0,170.0,68.0,green,triangle
0.0,7.0,3.0,1.0,7.0,2.0,2089.4825539999147,3.0,1.0,phase_3,,,,,49.0,1.0,196.0,49.0,245.0,294.0,147.0,98.0,green,triangle
0.0,6.0,2.0,1.0,7.0,5.0,2092.415937000624,3.0,1.0,phase_3,,,,,49.0,1.0,294.0,196.0,147.0,98.0,49.0,245.0,cyan,square
0.0,8.0,4.0,1.0,7.0,1.0,2279.9774140003137,3.0,1.0,phase_3,,,,,264.0,6.0,264.0,88.0,220.0,44.0,176.0,132.0,blue,flipped triangle
0.0,3.0,3.0,0.0,7.0,1.0,3294.7810329997083,3.0,1.0,phase_3,,,,,88.0,2.0,88.0,264.0,220.0,132.0,44.0,176.0,yellow,cross
0.0,8.0,4.0,1.0,7.0,6.0,1612.398282999493,3.0,1.0,phase_3,,,,,204.0,6.0,136.0,102.0,34.0,68.0,170.0,204.0,blue,flipped triangle
0.0,5.0,1.0,1.0,7.0,3.0,2421.4251479997984,3.0,1.0,phase_3,,,,,49.0,1.0,98.0,245.0,49.0,147.0,294.0,196.0,magenta,I
0.0,7.0,3.0,1.0,7.0,4.0,2454.320476999783,3.0,1.0,phase_3,,,,,88.0,2.0,176.0,264.0,44.0,88.0,220.0,132.0,green,triangle
0.0,3.0,3.0,0.0,7.0,6.0,2363.2355940007983,3.0,1.0,phase_3,,,,,54.0,1.0,216.0,162.0,270.0,324.0,108.0,54.0,yellow,cross
0.0,2.0,2.0,0.0,7.0,4.0,2463.0577429998084,3.0,1.0,phase_3,,,,,108.0,2.0,324.0,162.0,216.0,108.0,54.0,270.0,gray,circle
0.0,5.0,1.0,1.0,7.0,2.0,1981.9217399999616,3.0,1.0,phase_3,,,,,39.0,1.0,78.0,39.0,195.0,117.0,156.0,234.0,magenta,I
0.0,8.0,4.0,1.0,7.0,5.0,2896.9219959999464,3.0,1.0,phase_3,,,,,324.0,6.0,216.0,108.0,270.0,54.0,324.0,162.0,blue,flipped triangle
0.0,4.0,4.0,0.0,7.0,4.0,2040.854631000002,3.0,1.0,phase_3,,,,,170.0,5.0,136.0,34.0,68.0,170.0,204.0,102.0,white,hexagon
0.0,4.0,4.0,0.0,7.0,2.0,1708.3070009994117,3.0,1.0,phase_3,,,,,264.0,6.0,176.0,264.0,220.0,132.0,88.0,44.0,white,hexagon
0.0,4.0,4.0,0.0,7.0,3.0,2257.6395090000005,3.0,1.0,phase_3,,,,,294.0,6.0,245.0,196.0,294.0,98.0,147.0,49.0,white,hexagon
0.0,6.0,2.0,1.0,7.0,2.0,2566.335585000161,3.0,1.0,phase_3,,,,,39.0,1.0,234.0,39.0,156.0,195.0,78.0,117.0,cyan,square
0.0,3.0,3.0,0.0,7.0,4.0,1746.0704389995954,3.0,1.0,phase_3,,,,,39.0,1.0,78.0,117.0,195.0,39.0,156.0,234.0,yellow,cross
0.0,7.0,3.0,1.0,7.0,6.0,2123.2493030001933,3.0,1.0,phase_3,,,,,54.0,1.0,108.0,270.0,324.0,216.0,162.0,54.0,green,triangle
0.0,5.0,1.0,1.0,7.0,6.0,1200.8916770000724,4.0,1.0,phase_3,,,,,49.0,1.0,245.0,147.0,294.0,196.0,98.0,49.0,magenta,I
0.0,1.0,1.0,0.0,7.0,2.0,2313.9553860000888,4.0,1.0,phase_3,,,,,78.0,2.0,234.0,78.0,195.0,39.0,156.0,117.0,orange,diamond
0.0,5.0,1.0,1.0,7.0,1.0,2107.205577000059,4.0,1.0,phase_3,,,,,34.0,1.0,34.0,68.0,170.0,102.0,136.0,204.0,magenta,I
0.0,7.0,3.0,1.0,7.0,1.0,2173.3301989997926,4.0,1.0,phase_3,,,,,49.0,1.0,49.0,294.0,98.0,196.0,245.0,147.0,green,triangle
0.0,1.0,1.0,0.0,7.0,1.0,1981.2782189992504,4.0,1.0,phase_3,,,,,88.0,2.0,88.0,132.0,264.0,44.0,176.0,220.0,orange,diamond
0.0,6.0,2.0,1.0,7.0,6.0,1646.8329179997454,4.0,1.0,phase_3,,,,,44.0,1.0,88.0,176.0,220.0,132.0,264.0,44.0,cyan,square
0.0,4.0,4.0,0.0,7.0,3.0,1522.1429130006072,4.0,1.0,phase_3,,,,,204.0,6.0,102.0,170.0,204.0,34.0,136.0,68.0,white,hexagon
0.0,7.0,3.0,1.0,7.0,1.0,2204.751227999622,4.0,1.0,phase_3,,,,,44.0,1.0,44.0,220.0,264.0,176.0,132.0,88.0,green,triangle
0.0,5.0,1.0,1.0,7.0,3.0,2178.161116999945,4.0,1.0,phase_3,,,,,54.0,1.0,108.0,270.0,54.0,162.0,216.0,324.0,magenta,I
0.0,3.0,3.0,0.0,7.0,6.0,2209.2620339999485,4.0,1.0,phase_3,,,,,108.0,2.0,162.0,270.0,216.0,54.0,324.0,108.0,yellow,cross
0.0,7.0,3.0,1.0,7.0,1.0,2698.6722290002945,4.0,1.0,phase_3,,,,,54.0,1.0,54.0,324.0,216.0,108.0,270.0,162.0,green,triangle
0.0,2.0,2.0,0.0,7.0,2.0,2451.4283569997133,4.0,1.0,phase_3,,,,,117.0,3.0,39.0,117.0,78.0,234.0,156.0,195.0,gray,circle
0.0,3.0,3.0,0.0,7.0,5.0,3060.2013930001704,4.0,1.0,phase_3,,,,,132.0,3.0,88.0,264.0,44.0,220.0,132.0,176.0,yellow,cross
0.0,6.0,2.0,1.0,7.0,3.0,1591.7833240000618,4.0,1.0,phase_3,,,,,49.0,1.0,196.0,98.0,49.0,245.0,294.0,147.0,cyan,square
0.0,2.0,2.0,0.0,7.0,1.0,2637.5835569997435,4.0,1.0,phase_3,,,,,102.0,3.0,102.0,170.0,68.0,34.0,136.0,204.0,gray,circle
0.0,1.0,1.0,0.0,7.0,2.0,3374.7381100001803,4.0,1.0,phase_3,,,,,54.0,1.0,270.0,54.0,216.0,108.0,324.0,162.0,orange,diamond
0.0,6.0,2.0,1.0,7.0,5.0,2359.386602000086,4.0,1.0,phase_3,,,,,68.0,2.0,102.0,170.0,34.0,204.0,68.0,136.0,cyan,square
0.0,2.0,2.0,0.0,7.0,3.0,1753.4901460003312,4.0,1.0,phase_3,,,,,147.0,3.0,196.0,294.0,147.0,245.0,98.0,49.0,gray,circle
0.0,3.0,3.0,0.0,7.0,4.0,2144.9828779996096,4.0,1.0,phase_3,,,,,147.0,3.0,98.0,196.0,245.0,147.0,49.0,294.0,yellow,cross
0.0,8.0,4.0,1.0,7.0,6.0,2792.921667999508,4.0,1.0,phase_3,,,,,108.0,2.0,54.0,162.0,324.0,270.0,216.0,108.0,blue,flipped triangle
