raw_reward_magnitude,stim_reward,stepwise_reward_magnitude,paired_with_stopping,quadrant,response,reaction_time,block,num_trial_presentations,which_part,stop_signal_trial_type,left_SSD,right_SSD,accuracy,chosen_bidding_amount,chosen_bidding_level,possible_bid_1,possible_bid_2,possible_bid_3,possible_bid_4,possible_bid_5,possible_bid_6,color_text,shape_text
110.0,6.0,2.0,1.0,3.0,3.0,362.7522580000004,1.0,1.0,part_1,,,,,,,,,,,,,yellow,I
0.0,2.0,0.0,0.0,2.0,2.0,316.2390580000647,1.0,1.0,part_1,,,,,,,,,,,,,orange,diamond
394.0,8.0,4.0,1.0,1.0,1.0,269.8094720000199,1.0,1.0,part_1,,,,,,,,,,,,,green,circle
379.0,8.0,4.0,1.0,4.0,4.0,271.8113419999781,1.0,1.0,part_1,,,,,,,,,,,,,green,circle
414.0,8.0,4.0,1.0,1.0,1.0,298.3873670000321,1.0,1.0,part_1,,,,,,,,,,,,,green,circle
98.0,6.0,2.0,1.0,2.0,2.0,329.942802000005,1.0,1.0,part_1,,,,,,,,,,,,,yellow,I
375.0,8.0,4.0,1.0,4.0,4.0,283.5408390000111,1.0,1.0,part_1,,,,,,,,,,,,,green,circle
0.0,1.0,0.0,0.0,4.0,4.0,333.560661999968,1.0,1.0,part_1,,,,,,,,,,,,,blue,hexagon
113.0,6.0,2.0,1.0,4.0,4.0,279.2307309999842,1.0,1.0,part_1,,,,,,,,,,,,,yellow,I
90.0,6.0,2.0,1.0,2.0,2.0,340.9725830000525,1.0,1.0,part_1,,,,,,,,,,,,,yellow,I
393.0,8.0,4.0,1.0,2.0,2.0,309.29431200002,1.0,1.0,part_1,,,,,,,,,,,,,green,circle
396.0,4.0,4.0,0.0,2.0,2.0,280.8738319999975,1.0,1.0,part_1,,,,,,,,,,,,,cyan,cross
423.0,8.0,4.0,1.0,1.0,1.0,297.781212000018,1.0,2.0,part_1,,,,,,,,,,,,,green,circle
0.0,1.0,0.0,0.0,1.0,1.0,314.2981410001084,1.0,1.0,part_1,,,,,,,,,,,,,blue,hexagon
206.0,7.0,3.0,1.0,1.0,1.0,301.4747350000561,1.0,1.0,part_1,,,,,,,,,,,,,gray,square
64.0,1.0,1.0,0.0,4.0,4.0,326.9423300000653,1.0,1.0,part_1,,,,,,,,,,,,,blue,hexagon
191.0,3.0,3.0,0.0,3.0,3.0,452.4324950000391,1.0,1.0,part_1,,,,,,,,,,,,,magenta,flipped triangle
64.0,1.0,1.0,0.0,4.0,4.0,325.770736999857,1.0,1.0,part_1,,,,,,,,,,,,,blue,hexagon
388.0,8.0,4.0,1.0,4.0,4.0,284.2308169999796,1.0,1.0,part_1,,,,,,,,,,,,,green,circle
396.0,4.0,4.0,0.0,4.0,4.0,303.2713689999582,1.0,1.0,part_1,,,,,,,,,,,,,cyan,cross
0.0,5.0,0.0,1.0,4.0,4.0,274.4371799999499,1.0,1.0,part_1,,,,,,,,,,,,,white,triangle
69.0,1.0,1.0,0.0,3.0,3.0,280.7554490000257,1.0,1.0,part_1,,,,,,,,,,,,,blue,hexagon
199.0,7.0,3.0,1.0,1.0,1.0,296.7515829998319,1.0,1.0,part_1,,,,,,,,,,,,,gray,square
88.0,6.0,2.0,1.0,4.0,4.0,281.4746219999051,1.0,1.0,part_1,,,,,,,,,,,,,yellow,I
0.0,3.0,0.0,0.0,2.0,2.0,326.471169999877,1.0,1.0,part_1,,,,,,,,,,,,,magenta,flipped triangle
42.0,5.0,1.0,1.0,2.0,2.0,329.2479780000121,1.0,1.0,part_1,,,,,,,,,,,,,white,triangle
397.0,4.0,4.0,0.0,3.0,3.0,332.4094990000503,1.0,1.0,part_1,,,,,,,,,,,,,cyan,cross
81.0,2.0,2.0,0.0,4.0,4.0,260.4073730001346,1.0,1.0,part_1,,,,,,,,,,,,,orange,diamond
399.0,8.0,4.0,1.0,2.0,2.0,304.536416000019,1.0,1.0,part_1,,,,,,,,,,,,,green,circle
0.0,7.0,0.0,1.0,2.0,2.0,312.0214089999535,1.0,1.0,part_1,,,,,,,,,,,,,gray,square
183.0,3.0,3.0,0.0,3.0,3.0,300.5417910001142,1.0,1.0,part_1,,,,,,,,,,,,,magenta,flipped triangle
0.0,8.0,0.0,1.0,4.0,4.0,266.9764100000975,1.0,1.0,part_1,,,,,,,,,,,,,green,circle
46.0,5.0,1.0,1.0,4.0,4.0,377.963278000152,1.0,1.0,part_1,,,,,,,,,,,,,white,triangle
90.0,2.0,2.0,0.0,1.0,1.0,372.2728729999289,1.0,1.0,part_1,,,,,,,,,,,,,orange,diamond
0.0,5.0,0.0,1.0,4.0,4.0,311.4772450001055,1.0,1.0,part_1,,,,,,,,,,,,,white,triangle
98.0,6.0,2.0,1.0,3.0,3.0,296.1357350000071,1.0,1.0,part_1,,,,,,,,,,,,,yellow,I
109.0,6.0,2.0,1.0,4.0,4.0,267.7429459999985,1.0,1.0,part_1,,,,,,,,,,,,,yellow,I
0.0,3.0,0.0,0.0,4.0,4.0,287.488723000024,1.0,1.0,part_1,,,,,,,,,,,,,magenta,flipped triangle
197.0,3.0,3.0,0.0,1.0,1.0,262.578491000113,1.0,1.0,part_1,,,,,,,,,,,,,magenta,flipped triangle
223.0,7.0,3.0,1.0,3.0,3.0,296.0315729999365,1.0,1.0,part_1,,,,,,,,,,,,,gray,square
87.0,2.0,2.0,0.0,1.0,1.0,270.7842790000541,1.0,1.0,part_1,,,,,,,,,,,,,orange,diamond
105.0,2.0,2.0,0.0,1.0,1.0,263.3850510001139,1.0,1.0,part_1,,,,,,,,,,,,,orange,diamond
381.0,4.0,4.0,0.0,4.0,4.0,277.6675359998535,1.0,1.0,part_1,,,,,,,,,,,,,cyan,cross
216.0,7.0,3.0,1.0,2.0,2.0,258.2688800000596,1.0,1.0,part_1,,,,,,,,,,,,,gray,square
46.0,1.0,1.0,0.0,2.0,2.0,373.3895600000778,1.0,1.0,part_1,,,,,,,,,,,,,blue,hexagon
95.0,6.0,2.0,1.0,1.0,1.0,284.9678760001097,1.0,1.0,part_1,,,,,,,,,,,,,yellow,I
0.0,2.0,0.0,0.0,1.0,1.0,283.5845939998762,1.0,1.0,part_1,,,,,,,,,,,,,orange,diamond
396.0,4.0,4.0,0.0,2.0,2.0,302.3409869999796,1.0,1.0,part_1,,,,,,,,,,,,,cyan,cross
0.0,6.0,0.0,1.0,3.0,3.0,293.3052800001405,1.0,1.0,part_1,,,,,,,,,,,,,yellow,I
0.0,2.0,0.0,0.0,1.0,1.0,263.5962800000015,1.0,1.0,part_1,,,,,,,,,,,,,orange,diamond
180.0,7.0,3.0,1.0,3.0,3.0,277.9177260001688,1.0,1.0,part_1,,,,,,,,,,,,,gray,square
218.0,7.0,3.0,1.0,3.0,3.0,290.521088000105,1.0,2.0,part_1,,,,,,,,,,,,,gray,square
98.0,2.0,2.0,0.0,3.0,3.0,281.5812060000553,1.0,1.0,part_1,,,,,,,,,,,,,orange,diamond
411.0,4.0,4.0,0.0,1.0,1.0,307.4857049998627,1.0,1.0,part_1,,,,,,,,,,,,,cyan,cross
106.0,6.0,2.0,1.0,1.0,1.0,295.3609260000576,1.0,1.0,part_1,,,,,,,,,,,,,yellow,I
81.0,2.0,2.0,0.0,3.0,3.0,332.0855340000435,1.0,1.0,part_1,,,,,,,,,,,,,orange,diamond
225.0,7.0,3.0,1.0,2.0,2.0,336.2490749998414,1.0,1.0,part_1,,,,,,,,,,,,,gray,square
0.0,5.0,0.0,1.0,2.0,2.0,364.3756409999241,1.0,1.0,part_1,,,,,,,,,,,,,white,triangle
183.0,7.0,3.0,1.0,2.0,2.0,274.732861999837,1.0,1.0,part_1,,,,,,,,,,,,,gray,square
181.0,3.0,3.0,0.0,3.0,3.0,271.23444200015,1.0,1.0,part_1,,,,,,,,,,,,,magenta,flipped triangle
33.0,5.0,1.0,1.0,3.0,3.0,312.2777769999629,1.0,1.0,part_1,,,,,,,,,,,,,white,triangle
0.0,5.0,0.0,1.0,3.0,3.0,357.1962979999625,1.0,1.0,part_1,,,,,,,,,,,,,white,triangle
396.0,4.0,4.0,0.0,3.0,3.0,296.2134279998736,1.0,1.0,part_1,,,,,,,,,,,,,cyan,cross
102.0,6.0,2.0,1.0,1.0,1.0,294.1129069999988,1.0,1.0,part_1,,,,,,,,,,,,,yellow,I
0.0,4.0,0.0,0.0,3.0,3.0,300.7044379999115,1.0,1.0,part_1,,,,,,,,,,,,,cyan,cross
31.0,5.0,1.0,1.0,1.0,1.0,287.5854809999509,1.0,1.0,part_1,,,,,,,,,,,,,white,triangle
180.0,3.0,3.0,0.0,4.0,4.0,278.9443530000426,1.0,1.0,part_1,,,,,,,,,,,,,magenta,flipped triangle
424.0,4.0,4.0,0.0,4.0,4.0,308.5145950001333,1.0,1.0,part_1,,,,,,,,,,,,,cyan,cross
413.0,8.0,4.0,1.0,3.0,3.0,303.0223369999021,1.0,1.0,part_1,,,,,,,,,,,,,green,circle
0.0,5.0,0.0,1.0,3.0,3.0,290.0975940001444,1.0,1.0,part_1,,,,,,,,,,,,,white,triangle
0.0,8.0,0.0,1.0,1.0,1.0,296.9770649999645,1.0,1.0,part_1,,,,,,,,,,,,,green,circle
43.0,5.0,1.0,1.0,1.0,1.0,273.2535319998987,1.0,1.0,part_1,,,,,,,,,,,,,white,triangle
57.0,5.0,1.0,1.0,3.0,3.0,313.2716729999174,1.0,1.0,part_1,,,,,,,,,,,,,white,triangle
408.0,4.0,4.0,0.0,3.0,3.0,300.9889469999507,1.0,1.0,part_1,,,,,,,,,,,,,cyan,cross
59.0,5.0,1.0,1.0,3.0,3.0,351.9105930001842,1.0,1.0,part_1,,,,,,,,,,,,,white,triangle
194.0,3.0,3.0,0.0,1.0,1.0,276.680314999794,1.0,1.0,part_1,,,,,,,,,,,,,magenta,flipped triangle
38.0,1.0,1.0,0.0,2.0,2.0,282.8556629999639,1.0,1.0,part_1,,,,,,,,,,,,,blue,hexagon
32.0,5.0,1.0,1.0,1.0,1.0,261.3181629999417,1.0,1.0,part_1,,,,,,,,,,,,,white,triangle
118.0,2.0,2.0,0.0,1.0,1.0,264.8955469999237,1.0,1.0,part_1,,,,,,,,,,,,,orange,diamond
415.0,8.0,4.0,1.0,4.0,4.0,324.6679640001275,1.0,1.0,part_1,,,,,,,,,,,,,green,circle
0.0,6.0,0.0,1.0,1.0,1.0,295.6986780000079,1.0,1.0,part_1,,,,,,,,,,,,,yellow,I
99.0,2.0,2.0,0.0,1.0,1.0,281.1117940000258,1.0,1.0,part_1,,,,,,,,,,,,,orange,diamond
224.0,3.0,3.0,0.0,4.0,4.0,359.6611569998913,1.0,1.0,part_1,,,,,,,,,,,,,magenta,flipped triangle
51.0,5.0,1.0,1.0,2.0,2.0,308.4398749999764,1.0,1.0,part_1,,,,,,,,,,,,,white,triangle
36.0,1.0,1.0,0.0,4.0,4.0,274.2779449999943,1.0,1.0,part_1,,,,,,,,,,,,,blue,hexagon
118.0,2.0,2.0,0.0,1.0,1.0,285.3939039998749,1.0,1.0,part_1,,,,,,,,,,,,,orange,diamond
28.0,1.0,1.0,0.0,2.0,2.0,371.7136319999099,1.0,1.0,part_1,,,,,,,,,,,,,blue,hexagon
28.0,1.0,1.0,0.0,3.0,3.0,292.2743900001023,1.0,1.0,part_1,,,,,,,,,,,,,blue,hexagon
388.0,4.0,4.0,0.0,2.0,2.0,418.9793380000992,1.0,1.0,part_1,,,,,,,,,,,,,cyan,cross
54.0,1.0,1.0,0.0,3.0,3.0,324.9097940001775,1.0,1.0,part_1,,,,,,,,,,,,,blue,hexagon
37.0,1.0,1.0,0.0,2.0,2.0,307.7478239999891,1.0,1.0,part_1,,,,,,,,,,,,,blue,hexagon
407.0,8.0,4.0,1.0,2.0,2.0,331.0428429999774,1.0,1.0,part_1,,,,,,,,,,,,,green,circle
412.0,4.0,4.0,0.0,1.0,1.0,286.4024779998999,1.0,1.0,part_1,,,,,,,,,,,,,cyan,cross
407.0,8.0,4.0,1.0,3.0,3.0,280.2225590000944,1.0,1.0,part_1,,,,,,,,,,,,,green,circle
42.0,1.0,1.0,0.0,4.0,4.0,340.6085609999536,1.0,3.0,part_1,,,,,,,,,,,,,blue,hexagon
118.0,6.0,2.0,1.0,2.0,2.0,379.3725140001243,1.0,1.0,part_1,,,,,,,,,,,,,yellow,I
106.0,2.0,2.0,0.0,2.0,2.0,311.745639000037,1.0,1.0,part_1,,,,,,,,,,,,,orange,diamond
63.0,1.0,1.0,0.0,1.0,1.0,291.6832819998944,1.0,2.0,part_1,,,,,,,,,,,,,blue,hexagon
207.0,7.0,3.0,1.0,1.0,1.0,386.4576260000376,1.0,1.0,part_1,,,,,,,,,,,,,gray,square
216.0,7.0,3.0,1.0,4.0,4.0,376.9593059998897,1.0,1.0,part_1,,,,,,,,,,,,,gray,square
71.0,1.0,1.0,0.0,1.0,1.0,298.7537879998854,2.0,1.0,part_1,,,,,,,,,,,,,blue,hexagon
210.0,7.0,3.0,1.0,2.0,2.0,263.5840360001111,2.0,1.0,part_1,,,,,,,,,,,,,gray,square
178.0,3.0,3.0,0.0,3.0,3.0,316.8025499999203,2.0,1.0,part_1,,,,,,,,,,,,,magenta,flipped triangle
223.0,3.0,3.0,0.0,2.0,2.0,306.8875810001827,2.0,1.0,part_1,,,,,,,,,,,,,magenta,flipped triangle
28.0,5.0,1.0,1.0,3.0,3.0,314.7045660000458,2.0,1.0,part_1,,,,,,,,,,,,,white,triangle
0.0,7.0,0.0,1.0,2.0,2.0,317.0772619998843,2.0,1.0,part_1,,,,,,,,,,,,,gray,square
110.0,2.0,2.0,0.0,3.0,3.0,304.9719729999651,2.0,1.0,part_1,,,,,,,,,,,,,orange,diamond
208.0,7.0,3.0,1.0,4.0,4.0,326.1523649998707,2.0,1.0,part_1,,,,,,,,,,,,,gray,square
400.0,4.0,4.0,0.0,3.0,3.0,393.8711020000482,2.0,1.0,part_1,,,,,,,,,,,,,cyan,cross
382.0,8.0,4.0,1.0,4.0,4.0,339.6459180000875,2.0,1.0,part_1,,,,,,,,,,,,,green,circle
176.0,7.0,3.0,1.0,4.0,4.0,373.9867710000908,2.0,1.0,part_1,,,,,,,,,,,,,gray,square
423.0,4.0,4.0,0.0,3.0,3.0,279.7442799999317,2.0,1.0,part_1,,,,,,,,,,,,,cyan,cross
196.0,3.0,3.0,0.0,1.0,1.0,298.0071859999498,2.0,1.0,part_1,,,,,,,,,,,,,magenta,flipped triangle
46.0,1.0,1.0,0.0,1.0,1.0,291.1959670000215,2.0,1.0,part_1,,,,,,,,,,,,,blue,hexagon
382.0,8.0,4.0,1.0,1.0,1.0,285.3676869999617,2.0,1.0,part_1,,,,,,,,,,,,,green,circle
224.0,7.0,3.0,1.0,1.0,1.0,276.7006490000767,2.0,1.0,part_1,,,,,,,,,,,,,gray,square
81.0,6.0,2.0,1.0,4.0,4.0,365.1617759999226,2.0,1.0,part_1,,,,,,,,,,,,,yellow,I
179.0,3.0,3.0,0.0,2.0,2.0,278.0413170000884,2.0,1.0,part_1,,,,,,,,,,,,,magenta,flipped triangle
107.0,2.0,2.0,0.0,2.0,2.0,331.3736790000803,2.0,1.0,part_1,,,,,,,,,,,,,orange,diamond
407.0,4.0,4.0,0.0,2.0,2.0,331.0647280000012,2.0,1.0,part_1,,,,,,,,,,,,,cyan,cross
81.0,2.0,2.0,0.0,4.0,4.0,358.5182519998398,2.0,1.0,part_1,,,,,,,,,,,,,orange,diamond
393.0,4.0,4.0,0.0,4.0,4.0,414.8838619998969,2.0,1.0,part_1,,,,,,,,,,,,,cyan,cross
72.0,1.0,1.0,0.0,1.0,1.0,265.108840000039,2.0,1.0,part_1,,,,,,,,,,,,,blue,hexagon
396.0,8.0,4.0,1.0,3.0,3.0,375.431239000136,2.0,1.0,part_1,,,,,,,,,,,,,green,circle
391.0,4.0,4.0,0.0,1.0,1.0,255.91524299989032,2.0,1.0,part_1,,,,,,,,,,,,,cyan,cross
412.0,8.0,4.0,1.0,2.0,2.0,348.6299769999732,2.0,1.0,part_1,,,,,,,,,,,,,green,circle
0.0,7.0,0.0,1.0,3.0,3.0,305.9888259999752,2.0,1.0,part_1,,,,,,,,,,,,,gray,square
45.0,1.0,1.0,0.0,1.0,1.0,302.7086300000974,2.0,1.0,part_1,,,,,,,,,,,,,blue,hexagon
27.0,5.0,1.0,1.0,2.0,2.0,274.8098490001212,2.0,1.0,part_1,,,,,,,,,,,,,white,triangle
213.0,3.0,3.0,0.0,2.0,2.0,347.5760639998952,2.0,1.0,part_1,,,,,,,,,,,,,magenta,flipped triangle
59.0,1.0,1.0,0.0,3.0,3.0,335.8060719999685,2.0,1.0,part_1,,,,,,,,,,,,,blue,hexagon
65.0,5.0,1.0,1.0,2.0,2.0,307.535795999911,2.0,1.0,part_1,,,,,,,,,,,,,white,triangle
416.0,4.0,4.0,0.0,2.0,2.0,290.2918140000565,2.0,1.0,part_1,,,,,,,,,,,,,cyan,cross
222.0,3.0,3.0,0.0,2.0,2.0,302.0558040000196,2.0,1.0,part_1,,,,,,,,,,,,,magenta,flipped triangle
0.0,5.0,0.0,1.0,2.0,2.0,260.3003360000002,2.0,1.0,part_1,,,,,,,,,,,,,white,triangle
55.0,5.0,1.0,1.0,2.0,2.0,333.282878999853,2.0,1.0,part_1,,,,,,,,,,,,,white,triangle
120.0,2.0,2.0,0.0,3.0,3.0,343.5898719999386,2.0,1.0,part_1,,,,,,,,,,,,,orange,diamond
73.0,5.0,1.0,1.0,4.0,4.0,295.4067409998515,2.0,1.0,part_1,,,,,,,,,,,,,white,triangle
116.0,6.0,2.0,1.0,3.0,3.0,315.3417139999419,2.0,1.0,part_1,,,,,,,,,,,,,yellow,I
87.0,2.0,2.0,0.0,4.0,4.0,293.5560359999272,2.0,1.0,part_1,,,,,,,,,,,,,orange,diamond
202.0,7.0,3.0,1.0,1.0,1.0,234.403365999924,2.0,1.0,part_1,,,,,,,,,,,,,gray,square
67.0,1.0,1.0,0.0,4.0,4.0,289.7905749998699,2.0,1.0,part_1,,,,,,,,,,,,,blue,hexagon
195.0,7.0,3.0,1.0,4.0,4.0,351.3614690000395,2.0,1.0,part_1,,,,,,,,,,,,,gray,square
117.0,6.0,2.0,1.0,1.0,1.0,287.6064480001332,2.0,1.0,part_1,,,,,,,,,,,,,yellow,I
0.0,1.0,0.0,0.0,1.0,1.0,285.3835149999213,2.0,1.0,part_1,,,,,,,,,,,,,blue,hexagon
46.0,5.0,1.0,1.0,1.0,1.0,285.4384970000865,2.0,1.0,part_1,,,,,,,,,,,,,white,triangle
389.0,4.0,4.0,0.0,1.0,1.0,231.2908159999551,2.0,1.0,part_1,,,,,,,,,,,,,cyan,cross
200.0,3.0,3.0,0.0,4.0,4.0,301.5231699998821,2.0,1.0,part_1,,,,,,,,,,,,,magenta,flipped triangle
396.0,8.0,4.0,1.0,1.0,1.0,343.2324170000811,2.0,1.0,part_1,,,,,,,,,,,,,green,circle
407.0,4.0,4.0,0.0,4.0,4.0,296.2007640001047,2.0,1.0,part_1,,,,,,,,,,,,,cyan,cross
119.0,6.0,2.0,1.0,2.0,2.0,241.0654200000408,2.0,1.0,part_1,,,,,,,,,,,,,yellow,I
32.0,5.0,1.0,1.0,4.0,4.0,278.528058999882,2.0,1.0,part_1,,,,,,,,,,,,,white,triangle
0.0,1.0,0.0,0.0,2.0,2.0,299.8119009998845,2.0,1.0,part_1,,,,,,,,,,,,,blue,hexagon
119.0,2.0,2.0,0.0,4.0,4.0,304.3510889999652,2.0,1.0,part_1,,,,,,,,,,,,,orange,diamond
0.0,8.0,0.0,1.0,4.0,4.0,323.7455559999489,2.0,1.0,part_1,,,,,,,,,,,,,green,circle
0.0,8.0,0.0,1.0,1.0,1.0,275.5570279998665,2.0,1.0,part_1,,,,,,,,,,,,,green,circle
382.0,4.0,4.0,0.0,3.0,3.0,292.8282899999885,2.0,1.0,part_1,,,,,,,,,,,,,cyan,cross
68.0,1.0,1.0,0.0,2.0,2.0,276.7559819999405,2.0,1.0,part_1,,,,,,,,,,,,,blue,hexagon
87.0,6.0,2.0,1.0,3.0,3.0,301.6808549998586,2.0,1.0,part_1,,,,,,,,,,,,,yellow,I
102.0,2.0,2.0,0.0,3.0,3.0,306.6018689999055,2.0,1.0,part_1,,,,,,,,,,,,,orange,diamond
187.0,7.0,3.0,1.0,2.0,2.0,306.3969940001243,2.0,1.0,part_1,,,,,,,,,,,,,gray,square
0.0,4.0,0.0,0.0,2.0,2.0,348.7507149998237,2.0,1.0,part_1,,,,,,,,,,,,,cyan,cross
418.0,4.0,4.0,0.0,1.0,1.0,286.0499649998473,2.0,1.0,part_1,,,,,,,,,,,,,cyan,cross
99.0,6.0,2.0,1.0,2.0,2.0,245.8637499998985,2.0,1.0,part_1,,,,,,,,,,,,,yellow,I
408.0,8.0,4.0,1.0,3.0,3.0,308.2279010000093,2.0,1.0,part_1,,,,,,,,,,,,,green,circle
0.0,7.0,0.0,1.0,4.0,4.0,334.5494830000461,2.0,1.0,part_1,,,,,,,,,,,,,gray,square
43.0,1.0,1.0,0.0,3.0,3.0,307.2318239999276,2.0,1.0,part_1,,,,,,,,,,,,,blue,hexagon
0.0,4.0,0.0,0.0,2.0,2.0,272.6768459999675,2.0,1.0,part_1,,,,,,,,,,,,,cyan,cross
0.0,1.0,0.0,0.0,2.0,2.0,252.39632599982542,2.0,1.0,part_1,,,,,,,,,,,,,blue,hexagon
0.0,4.0,0.0,0.0,4.0,4.0,299.1971030000968,2.0,1.0,part_1,,,,,,,,,,,,,cyan,cross
204.0,3.0,3.0,0.0,3.0,3.0,336.4537089998975,2.0,1.0,part_1,,,,,,,,,,,,,magenta,flipped triangle
414.0,4.0,4.0,0.0,1.0,1.0,266.78886300010157,2.0,1.0,part_1,,,,,,,,,,,,,cyan,cross
391.0,8.0,4.0,1.0,2.0,2.0,250.5575440000029,2.0,1.0,part_1,,,,,,,,,,,,,green,circle
187.0,3.0,3.0,0.0,1.0,1.0,308.3848270000544,2.0,1.0,part_1,,,,,,,,,,,,,magenta,flipped triangle
120.0,6.0,2.0,1.0,2.0,2.0,330.8725429999413,2.0,1.0,part_1,,,,,,,,,,,,,yellow,I
420.0,8.0,4.0,1.0,2.0,2.0,304.4473590000507,2.0,2.0,part_1,,,,,,,,,,,,,green,circle
211.0,3.0,3.0,0.0,2.0,2.0,324.4985950000227,2.0,1.0,part_1,,,,,,,,,,,,,magenta,flipped triangle
0.0,6.0,0.0,1.0,3.0,3.0,337.9144670000187,2.0,1.0,part_1,,,,,,,,,,,,,yellow,I
0.0,8.0,0.0,1.0,3.0,3.0,320.8508969999002,2.0,1.0,part_1,,,,,,,,,,,,,green,circle
416.0,8.0,4.0,1.0,4.0,4.0,313.4867240000858,2.0,1.0,part_1,,,,,,,,,,,,,green,circle
0.0,1.0,0.0,0.0,2.0,2.0,251.2119889997848,2.0,1.0,part_1,,,,,,,,,,,,,blue,hexagon
0.0,7.0,0.0,1.0,2.0,2.0,524.1863559999729,2.0,1.0,part_1,,,,,,,,,,,,,gray,square
225.0,3.0,3.0,0.0,3.0,3.0,346.0114609999891,2.0,1.0,part_1,,,,,,,,,,,,,magenta,flipped triangle
120.0,6.0,2.0,1.0,3.0,3.0,343.7238219999017,2.0,1.0,part_1,,,,,,,,,,,,,yellow,I
32.0,1.0,1.0,0.0,3.0,3.0,348.9288160001251,2.0,1.0,part_1,,,,,,,,,,,,,blue,hexagon
0.0,7.0,0.0,1.0,1.0,1.0,313.0970350000552,2.0,1.0,part_1,,,,,,,,,,,,,gray,square
197.0,7.0,3.0,1.0,1.0,1.0,266.4784520000012,2.0,1.0,part_1,,,,,,,,,,,,,gray,square
214.0,3.0,3.0,0.0,1.0,1.0,274.6685269999034,2.0,1.0,part_1,,,,,,,,,,,,,magenta,flipped triangle
118.0,2.0,2.0,0.0,1.0,1.0,262.239357999988,2.0,1.0,part_1,,,,,,,,,,,,,orange,diamond
109.0,2.0,2.0,0.0,2.0,2.0,308.8444989998606,2.0,1.0,part_1,,,,,,,,,,,,,orange,diamond
381.0,8.0,4.0,1.0,2.0,2.0,313.6046540000734,2.0,1.0,part_1,,,,,,,,,,,,,green,circle
65.0,1.0,1.0,0.0,4.0,4.0,313.3884530000159,2.0,2.0,part_1,,,,,,,,,,,,,blue,hexagon
33.0,1.0,1.0,0.0,3.0,3.0,328.2037070000569,2.0,1.0,part_1,,,,,,,,,,,,,blue,hexagon
182.0,7.0,3.0,1.0,2.0,2.0,298.1812540001556,2.0,1.0,part_1,,,,,,,,,,,,,gray,square
210.0,3.0,3.0,0.0,1.0,1.0,347.5859919999493,2.0,1.0,part_1,,,,,,,,,,,,,magenta,flipped triangle
411.0,8.0,4.0,1.0,4.0,4.0,375.5680100000518,2.0,1.0,part_1,,,,,,,,,,,,,green,circle
123.0,6.0,2.0,1.0,1.0,1.0,284.326159000102,2.0,1.0,part_1,,,,,,,,,,,,,yellow,I
423.0,8.0,4.0,1.0,3.0,3.0,415.5883359999279,2.0,1.0,part_1,,,,,,,,,,,,,green,circle
396.0,8.0,4.0,1.0,1.0,1.0,324.7371910001675,2.0,1.0,part_1,,,,,,,,,,,,,green,circle
200.0,7.0,3.0,1.0,4.0,4.0,303.6438780000026,2.0,1.0,part_1,,,,,,,,,,,,,gray,square
72.0,5.0,1.0,1.0,4.0,4.0,349.1092299998399,3.0,1.0,part_1,,,,,,,,,,,,,white,triangle
36.0,5.0,1.0,1.0,1.0,1.0,294.6239579998746,3.0,2.0,part_1,,,,,,,,,,,,,white,triangle
388.0,8.0,4.0,1.0,4.0,4.0,304.8773769999116,3.0,1.0,part_1,,,,,,,,,,,,,green,circle
0.0,6.0,0.0,1.0,4.0,4.0,316.7526650001946,3.0,1.0,part_1,,,,,,,,,,,,,yellow,I
0.0,2.0,0.0,0.0,2.0,2.0,304.7048260000338,3.0,1.0,part_1,,,,,,,,,,,,,orange,diamond
188.0,3.0,3.0,0.0,4.0,4.0,357.6114590000543,3.0,1.0,part_1,,,,,,,,,,,,,magenta,flipped triangle
0.0,3.0,0.0,0.0,3.0,3.0,337.0199380001395,3.0,1.0,part_1,,,,,,,,,,,,,magenta,flipped triangle
420.0,4.0,4.0,0.0,3.0,3.0,318.3924120000938,3.0,1.0,part_1,,,,,,,,,,,,,cyan,cross
94.0,6.0,2.0,1.0,2.0,2.0,331.6705619999993,3.0,1.0,part_1,,,,,,,,,,,,,yellow,I
0.0,3.0,0.0,0.0,2.0,2.0,321.3235759999406,3.0,1.0,part_1,,,,,,,,,,,,,magenta,flipped triangle
67.0,5.0,1.0,1.0,2.0,2.0,288.9850639999167,3.0,1.0,part_1,,,,,,,,,,,,,white,triangle
98.0,2.0,2.0,0.0,3.0,3.0,400.1410949999808,3.0,1.0,part_1,,,,,,,,,,,,,orange,diamond
418.0,8.0,4.0,1.0,3.0,3.0,339.0264950000983,3.0,1.0,part_1,,,,,,,,,,,,,green,circle
178.0,7.0,3.0,1.0,3.0,3.0,342.3942679999072,3.0,1.0,part_1,,,,,,,,,,,,,gray,square
211.0,7.0,3.0,1.0,2.0,2.0,330.8480499999859,3.0,1.0,part_1,,,,,,,,,,,,,gray,square
399.0,4.0,4.0,0.0,4.0,4.0,330.811654999934,3.0,1.0,part_1,,,,,,,,,,,,,cyan,cross
0.0,6.0,0.0,1.0,1.0,1.0,403.3870040000238,3.0,1.0,part_1,,,,,,,,,,,,,yellow,I
0.0,6.0,0.0,1.0,2.0,2.0,302.0986740000353,3.0,1.0,part_1,,,,,,,,,,,,,yellow,I
117.0,2.0,2.0,0.0,3.0,3.0,287.5317799998811,3.0,1.0,part_1,,,,,,,,,,,,,orange,diamond
0.0,3.0,0.0,0.0,4.0,4.0,352.5897189999796,3.0,1.0,part_1,,,,,,,,,,,,,magenta,flipped triangle
188.0,7.0,3.0,1.0,4.0,4.0,321.8312880001122,3.0,1.0,part_1,,,,,,,,,,,,,gray,square
407.0,8.0,4.0,1.0,1.0,1.0,283.6486390001482,3.0,1.0,part_1,,,,,,,,,,,,,green,circle
55.0,1.0,1.0,0.0,3.0,3.0,322.2177049999573,3.0,1.0,part_1,,,,,,,,,,,,,blue,hexagon
117.0,2.0,2.0,0.0,2.0,2.0,293.7529109999559,3.0,1.0,part_1,,,,,,,,,,,,,orange,diamond
0.0,4.0,0.0,0.0,3.0,3.0,328.4936229999857,3.0,1.0,part_1,,,,,,,,,,,,,cyan,cross
413.0,4.0,4.0,0.0,4.0,4.0,341.6197720000582,3.0,1.0,part_1,,,,,,,,,,,,,cyan,cross
0.0,1.0,0.0,0.0,2.0,2.0,348.2525389999864,3.0,1.0,part_1,,,,,,,,,,,,,blue,hexagon
0.0,2.0,0.0,0.0,3.0,3.0,317.8926430000501,3.0,1.0,part_1,,,,,,,,,,,,,orange,diamond
45.0,5.0,1.0,1.0,4.0,4.0,287.170217000039,3.0,1.0,part_1,,,,,,,,,,,,,white,triangle
90.0,2.0,2.0,0.0,3.0,3.0,317.6427819998935,3.0,1.0,part_1,,,,,,,,,,,,,orange,diamond
377.0,8.0,4.0,1.0,4.0,4.0,309.4759860000522,3.0,1.0,part_1,,,,,,,,,,,,,green,circle
118.0,6.0,2.0,1.0,4.0,4.0,311.0201990000405,3.0,1.0,part_1,,,,,,,,,,,,,yellow,I
0.0,4.0,0.0,0.0,3.0,3.0,320.2960149999398,3.0,1.0,part_1,,,,,,,,,,,,,cyan,cross
176.0,3.0,3.0,0.0,4.0,4.0,296.515718999899,3.0,1.0,part_1,,,,,,,,,,,,,magenta,flipped triangle
206.0,3.0,3.0,0.0,4.0,4.0,307.4076989998957,3.0,1.0,part_1,,,,,,,,,,,,,magenta,flipped triangle
379.0,4.0,4.0,0.0,3.0,3.0,324.0304050000304,3.0,1.0,part_1,,,,,,,,,,,,,cyan,cross
110.0,2.0,2.0,0.0,4.0,4.0,302.5397149999662,3.0,1.0,part_1,,,,,,,,,,,,,orange,diamond
0.0,2.0,0.0,0.0,3.0,3.0,328.109951999977,3.0,1.0,part_1,,,,,,,,,,,,,orange,diamond
0.0,6.0,0.0,1.0,4.0,4.0,295.0312330001452,3.0,1.0,part_1,,,,,,,,,,,,,yellow,I
382.0,8.0,4.0,1.0,3.0,3.0,326.5437390000443,3.0,1.0,part_1,,,,,,,,,,,,,green,circle
0.0,3.0,0.0,0.0,4.0,4.0,303.5394949999954,3.0,1.0,part_1,,,,,,,,,,,,,magenta,flipped triangle
204.0,7.0,3.0,1.0,2.0,2.0,288.5677430001578,3.0,1.0,part_1,,,,,,,,,,,,,gray,square
94.0,2.0,2.0,0.0,1.0,1.0,259.4604000000799,3.0,1.0,part_1,,,,,,,,,,,,,orange,diamond
59.0,1.0,1.0,0.0,1.0,1.0,263.4598790000382,3.0,1.0,part_1,,,,,,,,,,,,,blue,hexagon
0.0,8.0,0.0,1.0,2.0,2.0,291.7256160001216,3.0,1.0,part_1,,,,,,,,,,,,,green,circle
396.0,8.0,4.0,1.0,4.0,4.0,349.75062600005907,3.0,1.0,part_1,,,,,,,,,,,,,green,circle
375.0,4.0,4.0,0.0,1.0,1.0,267.2614900000098,3.0,1.0,part_1,,,,,,,,,,,,,cyan,cross
105.0,6.0,2.0,1.0,3.0,3.0,341.8452060000163,3.0,1.0,part_1,,,,,,,,,,,,,yellow,I
0.0,2.0,0.0,0.0,4.0,4.0,283.8053340001352,3.0,1.0,part_1,,,,,,,,,,,,,orange,diamond
67.0,1.0,1.0,0.0,1.0,1.0,270.7503419999284,3.0,1.0,part_1,,,,,,,,,,,,,blue,hexagon
382.0,4.0,4.0,0.0,1.0,1.0,284.0245209999921,3.0,1.0,part_1,,,,,,,,,,,,,cyan,cross
117.0,6.0,2.0,1.0,4.0,4.0,250.7498479999412,3.0,1.0,part_1,,,,,,,,,,,,,yellow,I
205.0,7.0,3.0,1.0,2.0,2.0,263.138083000058,3.0,1.0,part_1,,,,,,,,,,,,,gray,square
194.0,7.0,3.0,1.0,1.0,1.0,242.376207999996,3.0,1.0,part_1,,,,,,,,,,,,,gray,square
216.0,3.0,3.0,0.0,2.0,2.0,277.1979459998874,3.0,1.0,part_1,,,,,,,,,,,,,magenta,flipped triangle
195.0,3.0,3.0,0.0,3.0,3.0,299.2400590001125,3.0,1.0,part_1,,,,,,,,,,,,,magenta,flipped triangle
0.0,7.0,0.0,1.0,2.0,2.0,249.1269419999753,3.0,1.0,part_1,,,,,,,,,,,,,gray,square
216.0,3.0,3.0,0.0,3.0,3.0,287.2798210000837,3.0,1.0,part_1,,,,,,,,,,,,,magenta,flipped triangle
73.0,1.0,1.0,0.0,2.0,2.0,279.3465209999795,3.0,1.0,part_1,,,,,,,,,,,,,blue,hexagon
110.0,6.0,2.0,1.0,2.0,2.0,258.6267049998696,3.0,1.0,part_1,,,,,,,,,,,,,yellow,I
54.0,5.0,1.0,1.0,3.0,3.0,348.8980730001003,3.0,1.0,part_1,,,,,,,,,,,,,white,triangle
37.0,5.0,1.0,1.0,3.0,3.0,298.045213000023,3.0,1.0,part_1,,,,,,,,,,,,,white,triangle
85.0,2.0,2.0,0.0,2.0,2.0,253.9325239999925,3.0,1.0,part_1,,,,,,,,,,,,,orange,diamond
400.0,8.0,4.0,1.0,1.0,1.0,299.5801740000843,3.0,1.0,part_1,,,,,,,,,,,,,green,circle
77.0,6.0,2.0,1.0,1.0,1.0,272.9549749999478,3.0,1.0,part_1,,,,,,,,,,,,,yellow,I
190.0,7.0,3.0,1.0,3.0,3.0,318.0571519999375,3.0,1.0,part_1,,,,,,,,,,,,,gray,square
118.0,6.0,2.0,1.0,3.0,3.0,295.5222460000186,3.0,1.0,part_1,,,,,,,,,,,,,yellow,I
27.0,1.0,1.0,0.0,2.0,2.0,264.8228169998674,3.0,1.0,part_1,,,,,,,,,,,,,blue,hexagon
0.0,2.0,0.0,0.0,2.0,2.0,285.6034490000638,3.0,1.0,part_1,,,,,,,,,,,,,orange,diamond
64.0,5.0,1.0,1.0,1.0,1.0,229.7347670000817,3.0,1.0,part_1,,,,,,,,,,,,,white,triangle
41.0,5.0,1.0,1.0,2.0,2.0,287.951724000095,3.0,1.0,part_1,,,,,,,,,,,,,white,triangle
38.0,5.0,1.0,1.0,3.0,3.0,295.8674080000492,3.0,1.0,part_1,,,,,,,,,,,,,white,triangle
81.0,6.0,2.0,1.0,1.0,1.0,263.2436389999384,3.0,1.0,part_1,,,,,,,,,,,,,yellow,I
72.0,5.0,1.0,1.0,4.0,4.0,349.7867460000634,3.0,1.0,part_1,,,,,,,,,,,,,white,triangle
77.0,2.0,2.0,0.0,4.0,4.0,340.0750009998319,3.0,1.0,part_1,,,,,,,,,,,,,orange,diamond
88.0,2.0,2.0,0.0,2.0,2.0,268.4826909999174,3.0,1.0,part_1,,,,,,,,,,,,,orange,diamond
0.0,4.0,0.0,0.0,3.0,3.0,327.425107000181,3.0,1.0,part_1,,,,,,,,,,,,,cyan,cross
207.0,3.0,3.0,0.0,3.0,3.0,301.0614290001285,3.0,1.0,part_1,,,,,,,,,,,,,magenta,flipped triangle
415.0,4.0,4.0,0.0,4.0,4.0,314.9923490000219,3.0,1.0,part_1,,,,,,,,,,,,,cyan,cross
77.0,6.0,2.0,1.0,3.0,3.0,326.5893419998065,3.0,1.0,part_1,,,,,,,,,,,,,yellow,I
120.0,2.0,2.0,0.0,4.0,4.0,279.3746190000092,3.0,1.0,part_1,,,,,,,,,,,,,orange,diamond
178.0,7.0,3.0,1.0,1.0,1.0,301.2112599999454,3.0,1.0,part_1,,,,,,,,,,,,,gray,square
386.0,4.0,4.0,0.0,2.0,2.0,356.9054179999966,3.0,1.0,part_1,,,,,,,,,,,,,cyan,cross
60.0,1.0,1.0,0.0,4.0,4.0,306.8817839998701,3.0,1.0,part_1,,,,,,,,,,,,,blue,hexagon
35.0,1.0,1.0,0.0,4.0,4.0,408.4382940000068,3.0,1.0,part_1,,,,,,,,,,,,,blue,hexagon
41.0,1.0,1.0,0.0,1.0,1.0,325.2469380001912,3.0,1.0,part_1,,,,,,,,,,,,,blue,hexagon
0.0,1.0,0.0,0.0,2.0,2.0,263.2726750000529,3.0,1.0,part_1,,,,,,,,,,,,,blue,hexagon
60.0,5.0,1.0,1.0,4.0,4.0,314.6227310000995,3.0,1.0,part_1,,,,,,,,,,,,,white,triangle
388.0,4.0,4.0,0.0,2.0,2.0,362.5084980001247,3.0,1.0,part_1,,,,,,,,,,,,,cyan,cross
35.0,1.0,1.0,0.0,4.0,4.0,340.6341290001364,3.0,1.0,part_1,,,,,,,,,,,,,blue,hexagon
214.0,7.0,3.0,1.0,4.0,4.0,326.6574679998939,3.0,2.0,part_1,,,,,,,,,,,,,gray,square
35.0,5.0,1.0,1.0,1.0,1.0,295.0073089998568,3.0,1.0,part_1,,,,,,,,,,,,,white,triangle
205.0,3.0,3.0,0.0,1.0,1.0,376.8456220000189,3.0,1.0,part_1,,,,,,,,,,,,,magenta,flipped triangle
0.0,8.0,0.0,1.0,4.0,4.0,327.4829530000716,3.0,1.0,part_1,,,,,,,,,,,,,green,circle
89.0,2.0,2.0,0.0,3.0,3.0,316.3499499999034,3.0,1.0,part_1,,,,,,,,,,,,,orange,diamond
377.0,4.0,4.0,0.0,3.0,3.0,327.2204679999504,3.0,1.0,part_1,,,,,,,,,,,,,cyan,cross
69.0,5.0,1.0,1.0,2.0,2.0,298.5070360000463,3.0,1.0,part_1,,,,,,,,,,,,,white,triangle
424.0,8.0,4.0,1.0,1.0,1.0,321.5074029999414,3.0,1.0,part_1,,,,,,,,,,,,,green,circle
32.0,1.0,1.0,0.0,3.0,3.0,343.0847120000635,3.0,1.0,part_1,,,,,,,,,,,,,blue,hexagon
387.0,4.0,4.0,0.0,2.0,2.0,262.7412169999843,3.0,1.0,part_1,,,,,,,,,,,,,cyan,cross
202.0,3.0,3.0,0.0,4.0,4.0,386.2914860001183,4.0,1.0,part_1,,,,,,,,,,,,,magenta,flipped triangle
44.0,5.0,1.0,1.0,3.0,3.0,293.6891399999695,4.0,1.0,part_1,,,,,,,,,,,,,white,triangle
101.0,6.0,2.0,1.0,1.0,1.0,374.5071359999201,4.0,1.0,part_1,,,,,,,,,,,,,yellow,I
425.0,4.0,4.0,0.0,4.0,4.0,266.8580900001416,4.0,1.0,part_1,,,,,,,,,,,,,cyan,cross
0.0,6.0,0.0,1.0,3.0,3.0,282.9023329998108,4.0,1.0,part_1,,,,,,,,,,,,,yellow,I
193.0,3.0,3.0,0.0,2.0,2.0,315.0735519998306,4.0,1.0,part_1,,,,,,,,,,,,,magenta,flipped triangle
0.0,5.0,0.0,1.0,1.0,1.0,251.4454440001827,4.0,1.0,part_1,,,,,,,,,,,,,white,triangle
222.0,7.0,3.0,1.0,3.0,3.0,339.9038889999701,4.0,1.0,part_1,,,,,,,,,,,,,gray,square
82.0,2.0,2.0,0.0,4.0,4.0,420.8656650000648,4.0,1.0,part_1,,,,,,,,,,,,,orange,diamond
218.0,3.0,3.0,0.0,2.0,2.0,264.8972780000349,4.0,1.0,part_1,,,,,,,,,,,,,magenta,flipped triangle
45.0,5.0,1.0,1.0,3.0,3.0,329.9734719998923,4.0,1.0,part_1,,,,,,,,,,,,,white,triangle
181.0,7.0,3.0,1.0,2.0,2.0,283.3521879999807,4.0,1.0,part_1,,,,,,,,,,,,,gray,square
0.0,1.0,0.0,0.0,2.0,2.0,315.1591450000524,4.0,1.0,part_1,,,,,,,,,,,,,blue,hexagon
193.0,7.0,3.0,1.0,4.0,4.0,339.6100929999193,4.0,1.0,part_1,,,,,,,,,,,,,gray,square
0.0,4.0,0.0,0.0,1.0,1.0,275.3901790001691,4.0,1.0,part_1,,,,,,,,,,,,,cyan,cross
0.0,7.0,0.0,1.0,4.0,4.0,334.024772000248,4.0,1.0,part_1,,,,,,,,,,,,,gray,square
208.0,3.0,3.0,0.0,4.0,4.0,333.2210360003955,4.0,1.0,part_1,,,,,,,,,,,,,magenta,flipped triangle
101.0,2.0,2.0,0.0,2.0,2.0,289.3612800003211,4.0,1.0,part_1,,,,,,,,,,,,,orange,diamond
59.0,5.0,1.0,1.0,2.0,2.0,363.6783739998463,4.0,1.0,part_1,,,,,,,,,,,,,white,triangle
94.0,6.0,2.0,1.0,2.0,2.0,309.6487160000833,4.0,1.0,part_1,,,,,,,,,,,,,yellow,I
0.0,5.0,0.0,1.0,2.0,2.0,283.1960459998299,4.0,1.0,part_1,,,,,,,,,,,,,white,triangle
63.0,5.0,1.0,1.0,4.0,4.0,301.1213280001357,4.0,1.0,part_1,,,,,,,,,,,,,white,triangle
123.0,2.0,2.0,0.0,1.0,1.0,290.3816289999668,4.0,1.0,part_1,,,,,,,,,,,,,orange,diamond
199.0,3.0,3.0,0.0,4.0,4.0,338.3722270000362,4.0,1.0,part_1,,,,,,,,,,,,,magenta,flipped triangle
0.0,5.0,0.0,1.0,1.0,1.0,303.6242079997464,4.0,1.0,part_1,,,,,,,,,,,,,white,triangle
423.0,4.0,4.0,0.0,3.0,3.0,396.960517000025,4.0,1.0,part_1,,,,,,,,,,,,,cyan,cross
178.0,3.0,3.0,0.0,2.0,2.0,327.6172449996011,4.0,1.0,part_1,,,,,,,,,,,,,magenta,flipped triangle
176.0,7.0,3.0,1.0,3.0,3.0,336.1594410002908,4.0,1.0,part_1,,,,,,,,,,,,,gray,square
386.0,8.0,4.0,1.0,2.0,2.0,333.2097839997914,4.0,1.0,part_1,,,,,,,,,,,,,green,circle
0.0,2.0,0.0,0.0,1.0,1.0,322.515576999649,4.0,1.0,part_1,,,,,,,,,,,,,orange,diamond
382.0,4.0,4.0,0.0,1.0,1.0,292.5306810002439,4.0,1.0,part_1,,,,,,,,,,,,,cyan,cross
199.0,7.0,3.0,1.0,4.0,4.0,351.1524909999934,4.0,1.0,part_1,,,,,,,,,,,,,gray,square
67.0,5.0,1.0,1.0,1.0,1.0,314.6977189999234,4.0,1.0,part_1,,,,,,,,,,,,,white,triangle
89.0,6.0,2.0,1.0,4.0,4.0,399.9164530000598,4.0,1.0,part_1,,,,,,,,,,,,,yellow,I
396.0,8.0,4.0,1.0,3.0,3.0,354.0409470001577,4.0,1.0,part_1,,,,,,,,,,,,,green,circle
31.0,1.0,1.0,0.0,1.0,1.0,297.6191050001944,4.0,1.0,part_1,,,,,,,,,,,,,blue,hexagon
35.0,5.0,1.0,1.0,4.0,4.0,337.1701249998295,4.0,1.0,part_1,,,,,,,,,,,,,white,triangle
82.0,6.0,2.0,1.0,4.0,4.0,353.0760200001168,4.0,1.0,part_1,,,,,,,,,,,,,yellow,I
196.0,7.0,3.0,1.0,1.0,1.0,303.1581850000293,4.0,1.0,part_1,,,,,,,,,,,,,gray,square
0.0,8.0,0.0,1.0,2.0,2.0,309.8425210000641,4.0,1.0,part_1,,,,,,,,,,,,,green,circle
58.0,5.0,1.0,1.0,2.0,2.0,306.9546860001537,4.0,1.0,part_1,,,,,,,,,,,,,white,triangle
0.0,3.0,0.0,0.0,4.0,4.0,325.5909469999096,4.0,1.0,part_1,,,,,,,,,,,,,magenta,flipped triangle
92.0,6.0,2.0,1.0,3.0,3.0,345.8483959998375,4.0,1.0,part_1,,,,,,,,,,,,,yellow,I
0.0,6.0,0.0,1.0,3.0,3.0,339.0164590000495,4.0,1.0,part_1,,,,,,,,,,,,,yellow,I
0.0,7.0,0.0,1.0,2.0,2.0,328.7548399998741,4.0,1.0,part_1,,,,,,,,,,,,,gray,square
400.0,8.0,4.0,1.0,1.0,1.0,265.3837630000453,4.0,1.0,part_1,,,,,,,,,,,,,green,circle
0.0,3.0,0.0,0.0,3.0,3.0,316.70038999982347,4.0,1.0,part_1,,,,,,,,,,,,,magenta,flipped triangle
0.0,8.0,0.0,1.0,4.0,4.0,315.426151000338,4.0,1.0,part_1,,,,,,,,,,,,,green,circle
68.0,5.0,1.0,1.0,1.0,1.0,260.5559899998297,4.0,1.0,part_1,,,,,,,,,,,,,white,triangle
0.0,8.0,0.0,1.0,4.0,4.0,325.8748590001232,4.0,1.0,part_1,,,,,,,,,,,,,green,circle
396.0,4.0,4.0,0.0,2.0,2.0,274.670019000041,4.0,1.0,part_1,,,,,,,,,,,,,cyan,cross
425.0,8.0,4.0,1.0,3.0,3.0,308.5702629996376,4.0,1.0,part_1,,,,,,,,,,,,,green,circle
389.0,8.0,4.0,1.0,2.0,2.0,280.7741050000913,4.0,1.0,part_1,,,,,,,,,,,,,green,circle
77.0,2.0,2.0,0.0,3.0,3.0,300.0002690000656,4.0,1.0,part_1,,,,,,,,,,,,,orange,diamond
407.0,4.0,4.0,0.0,1.0,1.0,324.549584000124,4.0,1.0,part_1,,,,,,,,,,,,,cyan,cross
107.0,6.0,2.0,1.0,4.0,4.0,364.980344000287,4.0,1.0,part_1,,,,,,,,,,,,,yellow,I
44.0,1.0,1.0,0.0,4.0,4.0,318.3453560000089,4.0,1.0,part_1,,,,,,,,,,,,,blue,hexagon
58.0,1.0,1.0,0.0,2.0,2.0,319.4272179998734,4.0,1.0,part_1,,,,,,,,,,,,,blue,hexagon
202.0,3.0,3.0,0.0,4.0,4.0,296.2897960001101,4.0,1.0,part_1,,,,,,,,,,,,,magenta,flipped triangle
394.0,4.0,4.0,0.0,2.0,2.0,268.4255829999529,4.0,1.0,part_1,,,,,,,,,,,,,cyan,cross
94.0,2.0,2.0,0.0,2.0,2.0,291.4015900000777,4.0,1.0,part_1,,,,,,,,,,,,,orange,diamond
0.0,5.0,0.0,1.0,3.0,3.0,351.988725999945,4.0,1.0,part_1,,,,,,,,,,,,,white,triangle
0.0,1.0,0.0,0.0,2.0,2.0,325.1478570000472,4.0,1.0,part_1,,,,,,,,,,,,,blue,hexagon
87.0,6.0,2.0,1.0,2.0,2.0,294.2189830000643,4.0,1.0,part_1,,,,,,,,,,,,,yellow,I
0.0,7.0,0.0,1.0,2.0,2.0,506.160551999983,4.0,1.0,part_1,,,,,,,,,,,,,gray,square
0.0,3.0,0.0,0.0,2.0,2.0,323.5049889999573,4.0,1.0,part_1,,,,,,,,,,,,,magenta,flipped triangle
0.0,6.0,0.0,1.0,1.0,1.0,292.1004530003301,4.0,1.0,part_1,,,,,,,,,,,,,yellow,I
0.0,4.0,0.0,0.0,3.0,3.0,340.6228869998813,4.0,1.0,part_1,,,,,,,,,,,,,cyan,cross
81.0,6.0,2.0,1.0,1.0,1.0,337.0913730000211,4.0,1.0,part_1,,,,,,,,,,,,,yellow,I
191.0,7.0,3.0,1.0,4.0,4.0,343.2187819998944,4.0,1.0,part_1,,,,,,,,,,,,,gray,square
116.0,2.0,2.0,0.0,4.0,4.0,307.0515039999009,4.0,1.0,part_1,,,,,,,,,,,,,orange,diamond
213.0,7.0,3.0,1.0,3.0,3.0,344.3383280000489,4.0,1.0,part_1,,,,,,,,,,,,,gray,square
202.0,7.0,3.0,1.0,1.0,1.0,299.9594570001136,4.0,1.0,part_1,,,,,,,,,,,,,gray,square
199.0,3.0,3.0,0.0,2.0,2.0,280.1111610001499,4.0,1.0,part_1,,,,,,,,,,,,,magenta,flipped triangle
190.0,3.0,3.0,0.0,1.0,1.0,337.3323470000287,4.0,1.0,part_1,,,,,,,,,,,,,magenta,flipped triangle
400.0,4.0,4.0,0.0,4.0,4.0,433.1485960001373,4.0,1.0,part_1,,,,,,,,,,,,,cyan,cross
113.0,2.0,2.0,0.0,2.0,2.0,287.2457909998047,4.0,1.0,part_1,,,,,,,,,,,,,orange,diamond
397.0,8.0,4.0,1.0,3.0,3.0,341.7259510001713,4.0,1.0,part_1,,,,,,,,,,,,,green,circle
0.0,3.0,0.0,0.0,1.0,1.0,287.2110790003717,4.0,1.0,part_1,,,,,,,,,,,,,magenta,flipped triangle
72.0,1.0,1.0,0.0,1.0,1.0,310.359377000168,4.0,1.0,part_1,,,,,,,,,,,,,blue,hexagon
71.0,5.0,1.0,1.0,1.0,1.0,287.9254280001078,4.0,1.0,part_1,,,,,,,,,,,,,white,triangle
0.0,4.0,0.0,0.0,4.0,4.0,344.6588440001505,4.0,1.0,part_1,,,,,,,,,,,,,cyan,cross
222.0,3.0,3.0,0.0,1.0,1.0,317.8961530002198,4.0,1.0,part_1,,,,,,,,,,,,,magenta,flipped triangle
75.0,2.0,2.0,0.0,1.0,1.0,313.6537660002432,4.0,1.0,part_1,,,,,,,,,,,,,orange,diamond
57.0,1.0,1.0,0.0,2.0,2.0,291.8679489998794,4.0,1.0,part_1,,,,,,,,,,,,,blue,hexagon
95.0,2.0,2.0,0.0,4.0,4.0,328.8393190000533,4.0,1.0,part_1,,,,,,,,,,,,,orange,diamond
75.0,6.0,2.0,1.0,1.0,1.0,271.1379790002866,4.0,1.0,part_1,,,,,,,,,,,,,yellow,I
176.0,3.0,3.0,0.0,1.0,1.0,423.9749519997531,4.0,1.0,part_1,,,,,,,,,,,,,magenta,flipped triangle
85.0,6.0,2.0,1.0,4.0,4.0,370.7749529999091,4.0,1.0,part_1,,,,,,,,,,,,,yellow,I
92.0,2.0,2.0,0.0,2.0,2.0,298.2083239999156,4.0,1.0,part_1,,,,,,,,,,,,,orange,diamond
179.0,7.0,3.0,1.0,3.0,3.0,312.2479509997902,4.0,1.0,part_1,,,,,,,,,,,,,gray,square
0.0,2.0,0.0,0.0,4.0,4.0,328.7560409999059,4.0,1.0,part_1,,,,,,,,,,,,,orange,diamond
387.0,8.0,4.0,1.0,2.0,2.0,291.0431539999081,4.0,1.0,part_1,,,,,,,,,,,,,green,circle
64.0,5.0,1.0,1.0,3.0,3.0,305.396361000021,4.0,1.0,part_1,,,,,,,,,,,,,white,triangle
28.0,5.0,1.0,1.0,4.0,4.0,324.5209309998245,4.0,1.0,part_1,,,,,,,,,,,,,white,triangle
45.0,1.0,1.0,0.0,2.0,2.0,318.3882359999188,4.0,1.0,part_1,,,,,,,,,,,,,blue,hexagon
182.0,3.0,3.0,0.0,3.0,3.0,385.0912520001657,4.0,1.0,part_1,,,,,,,,,,,,,magenta,flipped triangle
90.0,6.0,2.0,1.0,3.0,3.0,354.0068289998999,4.0,1.0,part_1,,,,,,,,,,,,,yellow,I
222.0,7.0,3.0,1.0,3.0,3.0,371.2780800001383,4.0,1.0,part_1,,,,,,,,,,,,,gray,square
51.0,1.0,1.0,0.0,3.0,3.0,359.6182539999972,4.0,1.0,part_1,,,,,,,,,,,,,blue,hexagon
0.0,7.0,3.0,1.0,5.0,5.0,398.886400000265,1.0,0.0,part_2,stop,250.0,250.0,3.0,,,,,,,,,gray,square
0.0,2.0,2.0,0.0,5.0,5.0,422.5396550000369,1.0,0.0,part_2,go,200.0,250.0,1.0,,,,,,,,,orange,diamond
0.0,4.0,4.0,0.0,5.0,5.0,612.7707210002882,1.0,0.0,part_2,go,200.0,250.0,1.0,,,,,,,,,cyan,cross
0.0,5.0,1.0,1.0,6.0,0.0,0.0,1.0,0.0,part_2,stop,200.0,250.0,4.0,,,,,,,,,white,triangle
0.0,4.0,4.0,0.0,5.0,5.0,740.6736430002638,1.0,0.0,part_2,go,200.0,300.0,1.0,,,,,,,,,cyan,cross
0.0,8.0,4.0,1.0,6.0,6.0,675.4269869998097,1.0,0.0,part_2,go,200.0,300.0,1.0,,,,,,,,,green,circle
0.0,7.0,3.0,1.0,5.0,5.0,558.4925349999139,1.0,0.0,part_2,go,200.0,300.0,1.0,,,,,,,,,gray,square
0.0,7.0,3.0,1.0,5.0,5.0,328.9875880000181,1.0,0.0,part_2,stop,200.0,300.0,3.0,,,,,,,,,gray,square
0.0,2.0,2.0,0.0,6.0,6.0,657.0962949999739,1.0,0.0,part_2,go,150.0,300.0,1.0,,,,,,,,,orange,diamond
0.0,8.0,4.0,1.0,5.0,5.0,701.7183180000757,1.0,0.0,part_2,go,150.0,300.0,1.0,,,,,,,,,green,circle
0.0,1.0,1.0,0.0,5.0,5.0,401.064525000038,1.0,0.0,part_2,go,150.0,300.0,1.0,,,,,,,,,blue,hexagon
0.0,7.0,3.0,1.0,6.0,0.0,0.0,1.0,0.0,part_2,stop,150.0,300.0,4.0,,,,,,,,,gray,square
0.0,3.0,3.0,0.0,6.0,6.0,699.9109729999873,1.0,0.0,part_2,go,150.0,350.0,1.0,,,,,,,,,magenta,flipped triangle
0.0,4.0,4.0,0.0,6.0,6.0,693.6336349999692,1.0,0.0,part_2,go,150.0,350.0,1.0,,,,,,,,,cyan,cross
0.0,8.0,4.0,1.0,5.0,0.0,0.0,1.0,0.0,part_2,stop,150.0,350.0,4.0,,,,,,,,,green,circle
0.0,2.0,2.0,0.0,5.0,5.0,805.882709999878,1.0,0.0,part_2,go,200.0,350.0,1.0,,,,,,,,,orange,diamond
0.0,6.0,2.0,1.0,6.0,6.0,708.2294700003331,1.0,0.0,part_2,go,200.0,350.0,1.0,,,,,,,,,yellow,I
0.0,4.0,4.0,0.0,5.0,5.0,722.4549799998385,1.0,0.0,part_2,go,200.0,350.0,1.0,,,,,,,,,cyan,cross
0.0,5.0,1.0,1.0,6.0,6.0,530.3568169997561,1.0,0.0,part_2,go,200.0,350.0,1.0,,,,,,,,,white,triangle
0.0,1.0,1.0,0.0,5.0,5.0,752.8508149998743,1.0,0.0,part_2,go,200.0,350.0,1.0,,,,,,,,,blue,hexagon
0.0,4.0,4.0,0.0,6.0,6.0,606.5482089998113,1.0,0.0,part_2,go,200.0,350.0,1.0,,,,,,,,,cyan,cross
0.0,7.0,3.0,1.0,5.0,5.0,796.3240580002093,1.0,0.0,part_2,go,200.0,350.0,1.0,,,,,,,,,gray,square
0.0,6.0,2.0,1.0,5.0,0.0,0.0,1.0,0.0,part_2,stop,200.0,350.0,4.0,,,,,,,,,yellow,I
0.0,4.0,4.0,0.0,5.0,5.0,655.0001109999357,1.0,0.0,part_2,go,250.0,350.0,1.0,,,,,,,,,cyan,cross
0.0,7.0,3.0,1.0,5.0,0.0,0.0,1.0,0.0,part_2,stop,250.0,350.0,4.0,,,,,,,,,gray,square
0.0,4.0,4.0,0.0,5.0,5.0,665.2939320001678,1.0,0.0,part_2,go,300.0,350.0,1.0,,,,,,,,,cyan,cross
0.0,1.0,1.0,0.0,6.0,6.0,765.2390069997637,1.0,0.0,part_2,go,300.0,350.0,1.0,,,,,,,,,blue,hexagon
0.0,8.0,4.0,1.0,5.0,0.0,0.0,1.0,0.0,part_2,stop,300.0,350.0,4.0,,,,,,,,,green,circle
0.0,3.0,3.0,0.0,6.0,6.0,675.4140650000409,1.0,0.0,part_2,go,350.0,350.0,1.0,,,,,,,,,magenta,flipped triangle
0.0,1.0,1.0,0.0,6.0,6.0,650.4857509999056,1.0,0.0,part_2,go,350.0,350.0,1.0,,,,,,,,,blue,hexagon
0.0,6.0,2.0,1.0,6.0,0.0,0.0,1.0,0.0,part_2,stop,350.0,350.0,4.0,,,,,,,,,yellow,I
0.0,7.0,3.0,1.0,5.0,0.0,0.0,1.0,0.0,part_2,stop,350.0,400.0,4.0,,,,,,,,,gray,square
0.0,2.0,2.0,0.0,5.0,5.0,672.5659060002727,1.0,0.0,part_2,go,400.0,400.0,1.0,,,,,,,,,orange,diamond
0.0,2.0,2.0,0.0,5.0,5.0,729.6769729996413,1.0,0.0,part_2,go,400.0,400.0,1.0,,,,,,,,,orange,diamond
0.0,8.0,4.0,1.0,5.0,0.0,0.0,1.0,0.0,part_2,stop,400.0,400.0,4.0,,,,,,,,,green,circle
0.0,5.0,1.0,1.0,5.0,0.0,0.0,1.0,0.0,part_2,stop,450.0,400.0,4.0,,,,,,,,,white,triangle
0.0,8.0,4.0,1.0,6.0,6.0,659.4196460000603,2.0,0.0,part_2,go,500.0,400.0,1.0,,,,,,,,,green,circle
0.0,8.0,4.0,1.0,5.0,5.0,383.3513270001276,2.0,0.0,part_2,go,500.0,400.0,1.0,,,,,,,,,green,circle
0.0,1.0,1.0,0.0,5.0,5.0,532.7583919997778,2.0,0.0,part_2,go,500.0,400.0,1.0,,,,,,,,,blue,hexagon
0.0,7.0,3.0,1.0,5.0,5.0,397.7290230000108,2.0,0.0,part_2,stop,500.0,400.0,3.0,,,,,,,,,gray,square
0.0,4.0,4.0,0.0,5.0,5.0,576.1620729999777,2.0,0.0,part_2,go,450.0,400.0,1.0,,,,,,,,,cyan,cross
0.0,4.0,4.0,0.0,6.0,6.0,526.1847970000417,2.0,0.0,part_2,go,450.0,400.0,1.0,,,,,,,,,cyan,cross
0.0,3.0,3.0,0.0,5.0,5.0,460.0883060002161,2.0,0.0,part_2,go,450.0,400.0,1.0,,,,,,,,,magenta,flipped triangle
0.0,7.0,3.0,1.0,5.0,5.0,424.7242009996625,2.0,0.0,part_2,stop,450.0,400.0,3.0,,,,,,,,,gray,square
0.0,2.0,2.0,0.0,5.0,5.0,534.2727869997361,2.0,0.0,part_2,go,400.0,400.0,1.0,,,,,,,,,orange,diamond
0.0,3.0,3.0,0.0,6.0,6.0,505.414228999598,2.0,0.0,part_2,go,400.0,400.0,1.0,,,,,,,,,magenta,flipped triangle
0.0,5.0,1.0,1.0,5.0,5.0,385.7219230003466,2.0,0.0,part_2,stop,400.0,400.0,3.0,,,,,,,,,white,triangle
0.0,3.0,3.0,0.0,6.0,6.0,453.8158209998073,2.0,0.0,part_2,go,350.0,400.0,1.0,,,,,,,,,magenta,flipped triangle
0.0,2.0,2.0,0.0,5.0,5.0,593.6045590001413,2.0,0.0,part_2,go,350.0,400.0,1.0,,,,,,,,,orange,diamond
0.0,6.0,2.0,1.0,5.0,0.0,0.0,2.0,0.0,part_2,stop,350.0,400.0,4.0,,,,,,,,,yellow,I
0.0,1.0,1.0,0.0,5.0,5.0,572.5211379999564,2.0,0.0,part_2,go,400.0,400.0,1.0,,,,,,,,,blue,hexagon
0.0,5.0,1.0,1.0,5.0,0.0,0.0,2.0,0.0,part_2,stop,400.0,400.0,4.0,,,,,,,,,white,triangle
0.0,3.0,3.0,0.0,5.0,5.0,670.0434619997395,2.0,0.0,part_2,go,450.0,400.0,1.0,,,,,,,,,magenta,flipped triangle
0.0,7.0,3.0,1.0,5.0,5.0,688.8890879999963,2.0,0.0,part_2,go,450.0,400.0,1.0,,,,,,,,,gray,square
0.0,3.0,3.0,0.0,6.0,6.0,587.8108090000751,2.0,0.0,part_2,go,450.0,400.0,1.0,,,,,,,,,magenta,flipped triangle
0.0,4.0,4.0,0.0,6.0,6.0,514.7103760000391,2.0,0.0,part_2,go,450.0,400.0,1.0,,,,,,,,,cyan,cross
0.0,4.0,4.0,0.0,5.0,5.0,666.1002959999678,2.0,0.0,part_2,go,450.0,400.0,1.0,,,,,,,,,cyan,cross
0.0,7.0,3.0,1.0,6.0,6.0,487.8183999999237,2.0,0.0,part_2,stop,450.0,400.0,3.0,,,,,,,,,gray,square
0.0,6.0,2.0,1.0,5.0,0.0,0.0,2.0,0.0,part_2,stop,450.0,350.0,4.0,,,,,,,,,yellow,I
0.0,4.0,4.0,0.0,6.0,6.0,717.94601900001,2.0,0.0,part_2,go,500.0,350.0,1.0,,,,,,,,,cyan,cross
0.0,2.0,2.0,0.0,6.0,6.0,597.3195050000868,2.0,0.0,part_2,go,500.0,350.0,1.0,,,,,,,,,orange,diamond
0.0,3.0,3.0,0.0,5.0,5.0,569.7474689995943,2.0,0.0,part_2,go,500.0,350.0,1.0,,,,,,,,,magenta,flipped triangle
0.0,2.0,2.0,0.0,6.0,6.0,605.8011989998704,2.0,0.0,part_2,go,500.0,350.0,1.0,,,,,,,,,orange,diamond
0.0,4.0,4.0,0.0,6.0,6.0,729.5678929999667,2.0,0.0,part_2,go,500.0,350.0,1.0,,,,,,,,,cyan,cross
0.0,4.0,4.0,0.0,6.0,6.0,628.197203000127,2.0,0.0,part_2,go,500.0,350.0,1.0,,,,,,,,,cyan,cross
0.0,1.0,1.0,0.0,5.0,5.0,259.9804219998987,2.0,0.0,part_2,go,500.0,350.0,1.0,,,,,,,,,blue,hexagon
0.0,7.0,3.0,1.0,6.0,6.0,507.5657159995899,2.0,0.0,part_2,go,500.0,350.0,1.0,,,,,,,,,gray,square
0.0,8.0,4.0,1.0,6.0,6.0,340.7638969997606,2.0,0.0,part_2,stop,500.0,350.0,3.0,,,,,,,,,green,circle
0.0,8.0,4.0,1.0,5.0,5.0,585.356364999825,2.0,0.0,part_2,stop,500.0,300.0,3.0,,,,,,,,,green,circle
0.0,1.0,1.0,0.0,6.0,6.0,794.4845590000114,2.0,0.0,part_2,go,450.0,300.0,1.0,,,,,,,,,blue,hexagon
0.0,8.0,4.0,1.0,5.0,0.0,0.0,2.0,0.0,part_2,stop,450.0,300.0,4.0,,,,,,,,,green,circle
0.0,2.0,2.0,0.0,6.0,6.0,746.3746540001921,2.0,0.0,part_2,go,500.0,300.0,1.0,,,,,,,,,orange,diamond
0.0,6.0,2.0,1.0,6.0,6.0,1029.8512649997065,3.0,0.0,part_2,stop,500.0,300.0,3.0,,,,,,,,,yellow,I
0.0,4.0,4.0,0.0,6.0,6.0,617.8418049998982,3.0,0.0,part_2,go,500.0,250.0,1.0,,,,,,,,,cyan,cross
0.0,5.0,1.0,1.0,6.0,0.0,0.0,3.0,0.0,part_2,stop,500.0,250.0,4.0,,,,,,,,,white,triangle
0.0,7.0,3.0,1.0,6.0,6.0,613.771510999868,3.0,0.0,part_2,go,500.0,300.0,1.0,,,,,,,,,gray,square
0.0,6.0,2.0,1.0,6.0,0.0,0.0,3.0,0.0,part_2,stop,500.0,300.0,4.0,,,,,,,,,yellow,I
0.0,2.0,2.0,0.0,5.0,5.0,736.2156629997116,3.0,0.0,part_2,go,500.0,350.0,1.0,,,,,,,,,orange,diamond
0.0,3.0,3.0,0.0,5.0,5.0,700.7925540001452,3.0,0.0,part_2,go,500.0,350.0,1.0,,,,,,,,,magenta,flipped triangle
0.0,5.0,1.0,1.0,6.0,6.0,292.8299560003324,3.0,0.0,part_2,stop,500.0,350.0,3.0,,,,,,,,,white,triangle
0.0,5.0,1.0,1.0,6.0,0.0,0.0,3.0,0.0,part_2,stop,500.0,300.0,4.0,,,,,,,,,white,triangle
0.0,1.0,1.0,0.0,6.0,6.0,614.8687069999141,3.0,0.0,part_2,go,500.0,350.0,1.0,,,,,,,,,blue,hexagon
0.0,3.0,3.0,0.0,5.0,5.0,576.9824340000014,3.0,0.0,part_2,go,500.0,350.0,1.0,,,,,,,,,magenta,flipped triangle
0.0,5.0,1.0,1.0,6.0,6.0,594.6822559999418,3.0,0.0,part_2,go,500.0,350.0,1.0,,,,,,,,,white,triangle
0.0,1.0,1.0,0.0,6.0,6.0,596.2969700003669,3.0,0.0,part_2,go,500.0,350.0,1.0,,,,,,,,,blue,hexagon
0.0,1.0,1.0,0.0,6.0,6.0,445.5242630001521,3.0,0.0,part_2,go,500.0,350.0,1.0,,,,,,,,,blue,hexagon
0.0,6.0,2.0,1.0,6.0,0.0,0.0,3.0,0.0,part_2,stop,500.0,350.0,4.0,,,,,,,,,yellow,I
0.0,4.0,4.0,0.0,6.0,6.0,881.6371919997437,3.0,0.0,part_2,go,500.0,400.0,1.0,,,,,,,,,cyan,cross
0.0,5.0,1.0,1.0,6.0,6.0,536.6896350001298,3.0,0.0,part_2,stop,500.0,400.0,3.0,,,,,,,,,white,triangle
0.0,6.0,2.0,1.0,5.0,5.0,535.8733309999479,3.0,0.0,part_2,stop,500.0,350.0,3.0,,,,,,,,,yellow,I
0.0,4.0,4.0,0.0,6.0,6.0,779.1480669998236,3.0,0.0,part_2,go,450.0,350.0,1.0,,,,,,,,,cyan,cross
0.0,8.0,4.0,1.0,6.0,0.0,0.0,3.0,0.0,part_2,stop,450.0,350.0,4.0,,,,,,,,,green,circle
0.0,5.0,1.0,1.0,5.0,5.0,542.8037740002765,3.0,0.0,part_2,stop,450.0,400.0,3.0,,,,,,,,,white,triangle
0.0,4.0,4.0,0.0,5.0,5.0,908.2098260000748,3.0,0.0,part_2,go,400.0,400.0,1.0,,,,,,,,,cyan,cross
0.0,7.0,3.0,1.0,5.0,0.0,0.0,3.0,0.0,part_2,stop,400.0,400.0,4.0,,,,,,,,,gray,square
0.0,3.0,3.0,0.0,6.0,6.0,831.2890460001654,3.0,0.0,part_2,go,450.0,400.0,1.0,,,,,,,,,magenta,flipped triangle
0.0,5.0,1.0,1.0,5.0,5.0,645.2782260003005,3.0,0.0,part_2,go,450.0,400.0,1.0,,,,,,,,,white,triangle
0.0,4.0,4.0,0.0,6.0,6.0,597.0406900000853,3.0,0.0,part_2,go,450.0,400.0,1.0,,,,,,,,,cyan,cross
0.0,6.0,2.0,1.0,5.0,0.0,0.0,3.0,0.0,part_2,stop,450.0,400.0,4.0,,,,,,,,,yellow,I
0.0,6.0,2.0,1.0,5.0,0.0,0.0,3.0,0.0,part_2,stop,500.0,400.0,4.0,,,,,,,,,yellow,I
0.0,1.0,1.0,0.0,6.0,6.0,760.231703000045,3.0,0.0,part_2,go,550.0,400.0,1.0,,,,,,,,,blue,hexagon
0.0,4.0,4.0,0.0,5.0,5.0,581.5587490001235,3.0,0.0,part_2,go,550.0,400.0,1.0,,,,,,,,,cyan,cross
0.0,8.0,4.0,1.0,5.0,5.0,665.5014140001185,3.0,0.0,part_2,stop,550.0,400.0,3.0,,,,,,,,,green,circle
0.0,4.0,4.0,0.0,6.0,6.0,834.2504520001057,3.0,0.0,part_2,go,500.0,400.0,1.0,,,,,,,,,cyan,cross
0.0,6.0,2.0,1.0,5.0,0.0,0.0,3.0,0.0,part_2,stop,500.0,400.0,4.0,,,,,,,,,yellow,I
0.0,2.0,2.0,0.0,6.0,6.0,798.5372469997856,3.0,0.0,part_2,go,550.0,400.0,1.0,,,,,,,,,orange,diamond
0.0,2.0,2.0,0.0,5.0,5.0,779.752045999885,3.0,0.0,part_2,go,550.0,400.0,1.0,,,,,,,,,orange,diamond
0.0,1.0,1.0,0.0,6.0,6.0,753.3365260001119,3.0,0.0,part_2,go,550.0,400.0,1.0,,,,,,,,,blue,hexagon
0.0,2.0,2.0,0.0,5.0,5.0,388.5348659996452,4.0,0.0,part_2,go,550.0,400.0,1.0,,,,,,,,,orange,diamond
0.0,3.0,3.0,0.0,6.0,6.0,362.2269479997158,4.0,0.0,part_2,go,550.0,400.0,1.0,,,,,,,,,magenta,flipped triangle
0.0,5.0,1.0,1.0,6.0,6.0,340.8701349999319,4.0,0.0,part_2,stop,550.0,400.0,3.0,,,,,,,,,white,triangle
0.0,2.0,2.0,0.0,6.0,6.0,400.3071520000958,4.0,0.0,part_2,go,550.0,350.0,1.0,,,,,,,,,orange,diamond
0.0,8.0,4.0,1.0,5.0,5.0,269.2614080001476,4.0,0.0,part_2,stop,550.0,350.0,3.0,,,,,,,,,green,circle
0.0,3.0,3.0,0.0,5.0,5.0,513.8094700000693,4.0,0.0,part_2,go,500.0,350.0,1.0,,,,,,,,,magenta,flipped triangle
0.0,4.0,4.0,0.0,5.0,5.0,565.636928999993,4.0,0.0,part_2,go,500.0,350.0,1.0,,,,,,,,,cyan,cross
0.0,8.0,4.0,1.0,5.0,5.0,460.2886729999227,4.0,0.0,part_2,go,500.0,350.0,1.0,,,,,,,,,green,circle
0.0,3.0,3.0,0.0,6.0,6.0,278.6560899999131,4.0,0.0,part_2,go,500.0,350.0,1.0,,,,,,,,,magenta,flipped triangle
0.0,1.0,1.0,0.0,6.0,6.0,434.7028150000369,4.0,0.0,part_2,go,500.0,350.0,1.0,,,,,,,,,blue,hexagon
0.0,5.0,1.0,1.0,5.0,5.0,557.6158449998729,4.0,0.0,part_2,stop,500.0,350.0,3.0,,,,,,,,,white,triangle
0.0,3.0,3.0,0.0,6.0,6.0,577.7717089999896,4.0,0.0,part_2,go,450.0,350.0,1.0,,,,,,,,,magenta,flipped triangle
0.0,8.0,4.0,1.0,6.0,0.0,0.0,4.0,0.0,part_2,stop,450.0,350.0,4.0,,,,,,,,,green,circle
0.0,2.0,2.0,0.0,5.0,5.0,669.7744560001411,4.0,0.0,part_2,go,450.0,400.0,1.0,,,,,,,,,orange,diamond
0.0,7.0,3.0,1.0,6.0,0.0,0.0,4.0,0.0,part_2,stop,450.0,400.0,4.0,,,,,,,,,gray,square
0.0,1.0,1.0,0.0,5.0,5.0,552.7256840000518,4.0,0.0,part_2,go,450.0,450.0,1.0,,,,,,,,,blue,hexagon
0.0,1.0,1.0,0.0,5.0,5.0,663.7082790002751,4.0,0.0,part_2,go,450.0,450.0,1.0,,,,,,,,,blue,hexagon
0.0,7.0,3.0,1.0,5.0,5.0,610.9341870001117,4.0,0.0,part_2,go,450.0,450.0,1.0,,,,,,,,,gray,square
0.0,5.0,1.0,1.0,5.0,5.0,282.3772309998276,4.0,0.0,part_2,stop,450.0,450.0,3.0,,,,,,,,,white,triangle
0.0,7.0,3.0,1.0,6.0,6.0,578.9372090002871,4.0,0.0,part_2,stop,400.0,450.0,3.0,,,,,,,,,gray,square
0.0,4.0,4.0,0.0,6.0,6.0,716.5375849999691,4.0,0.0,part_2,go,400.0,400.0,1.0,,,,,,,,,cyan,cross
0.0,3.0,3.0,0.0,6.0,6.0,528.2900460001656,4.0,0.0,part_2,go,400.0,400.0,1.0,,,,,,,,,magenta,flipped triangle
0.0,6.0,2.0,1.0,6.0,6.0,360.2764570000545,4.0,0.0,part_2,go,400.0,400.0,1.0,,,,,,,,,yellow,I
0.0,5.0,1.0,1.0,5.0,5.0,522.4901869996756,4.0,0.0,part_2,go,400.0,400.0,1.0,,,,,,,,,white,triangle
0.0,3.0,3.0,0.0,5.0,5.0,518.9269040001818,4.0,0.0,part_2,go,400.0,400.0,1.0,,,,,,,,,magenta,flipped triangle
0.0,2.0,2.0,0.0,6.0,6.0,578.3283939999819,4.0,0.0,part_2,go,400.0,400.0,1.0,,,,,,,,,orange,diamond
0.0,5.0,1.0,1.0,6.0,6.0,365.8631899997999,4.0,0.0,part_2,go,400.0,400.0,1.0,,,,,,,,,white,triangle
0.0,4.0,4.0,0.0,5.0,5.0,617.5527440000224,4.0,0.0,part_2,go,400.0,400.0,1.0,,,,,,,,,cyan,cross
0.0,7.0,3.0,1.0,6.0,0.0,0.0,4.0,0.0,part_2,stop,400.0,400.0,4.0,,,,,,,,,gray,square
0.0,4.0,4.0,0.0,5.0,5.0,334.2340399999557,4.0,0.0,part_2,go,400.0,450.0,1.0,,,,,,,,,cyan,cross
0.0,4.0,4.0,0.0,6.0,6.0,287.2376520003854,4.0,0.0,part_2,go,400.0,450.0,1.0,,,,,,,,,cyan,cross
0.0,6.0,2.0,1.0,6.0,6.0,338.516895000339,4.0,0.0,part_2,stop,400.0,450.0,3.0,,,,,,,,,yellow,I
0.0,8.0,4.0,1.0,5.0,0.0,0.0,4.0,0.0,part_2,stop,400.0,400.0,4.0,,,,,,,,,green,circle
0.0,4.0,4.0,0.0,6.0,6.0,622.0900970001821,4.0,0.0,part_2,go,450.0,400.0,1.0,,,,,,,,,cyan,cross
0.0,3.0,3.0,0.0,6.0,6.0,339.5111069999075,4.0,0.0,part_2,go,450.0,400.0,1.0,,,,,,,,,magenta,flipped triangle
0.0,8.0,4.0,1.0,5.0,5.0,543.2216999997763,4.0,0.0,part_2,go,450.0,400.0,1.0,,,,,,,,,green,circle
0.0,1.0,1.0,0.0,5.0,5.0,281.0712039999998,5.0,0.0,part_2,go,450.0,400.0,1.0,,,,,,,,,blue,hexagon
0.0,6.0,2.0,1.0,6.0,6.0,298.7337399999887,5.0,0.0,part_2,stop,450.0,400.0,3.0,,,,,,,,,yellow,I
0.0,3.0,3.0,0.0,6.0,6.0,570.1945350001552,5.0,0.0,part_2,go,450.0,350.0,1.0,,,,,,,,,magenta,flipped triangle
0.0,6.0,2.0,1.0,5.0,5.0,292.9186760002267,5.0,0.0,part_2,stop,450.0,350.0,3.0,,,,,,,,,yellow,I
0.0,7.0,3.0,1.0,5.0,5.0,302.8180129999782,5.0,0.0,part_2,stop,400.0,350.0,3.0,,,,,,,,,gray,square
0.0,2.0,2.0,0.0,6.0,6.0,467.721359999814,5.0,0.0,part_2,go,350.0,350.0,1.0,,,,,,,,,orange,diamond
0.0,5.0,1.0,1.0,6.0,6.0,562.3957059997338,5.0,0.0,part_2,go,350.0,350.0,1.0,,,,,,,,,white,triangle
0.0,2.0,2.0,0.0,5.0,5.0,295.7587789996978,5.0,0.0,part_2,go,350.0,350.0,1.0,,,,,,,,,orange,diamond
0.0,5.0,1.0,1.0,6.0,6.0,313.0514750000657,5.0,0.0,part_2,stop,350.0,350.0,3.0,,,,,,,,,white,triangle
0.0,8.0,4.0,1.0,6.0,6.0,336.3869770000747,5.0,0.0,part_2,stop,350.0,300.0,3.0,,,,,,,,,green,circle
0.0,8.0,4.0,1.0,5.0,0.0,0.0,5.0,0.0,part_2,stop,350.0,250.0,4.0,,,,,,,,,green,circle
0.0,2.0,2.0,0.0,6.0,6.0,776.6758000002483,5.0,0.0,part_2,go,400.0,250.0,1.0,,,,,,,,,orange,diamond
0.0,1.0,1.0,0.0,6.0,6.0,583.2771710001907,5.0,0.0,part_2,go,400.0,250.0,1.0,,,,,,,,,blue,hexagon
0.0,6.0,2.0,1.0,5.0,0.0,0.0,5.0,0.0,part_2,stop,400.0,250.0,4.0,,,,,,,,,yellow,I
0.0,3.0,3.0,0.0,5.0,5.0,958.258338000178,5.0,0.0,part_2,go,450.0,250.0,1.0,,,,,,,,,magenta,flipped triangle
0.0,5.0,1.0,1.0,5.0,0.0,0.0,5.0,0.0,part_2,stop,450.0,250.0,4.0,,,,,,,,,white,triangle
0.0,3.0,3.0,0.0,5.0,5.0,662.9873530000623,5.0,0.0,part_2,go,500.0,250.0,1.0,,,,,,,,,magenta,flipped triangle
0.0,1.0,1.0,0.0,5.0,5.0,527.2368000000824,5.0,0.0,part_2,go,500.0,250.0,1.0,,,,,,,,,blue,hexagon
0.0,3.0,3.0,0.0,5.0,5.0,722.5771660000646,5.0,0.0,part_2,go,500.0,250.0,1.0,,,,,,,,,magenta,flipped triangle
0.0,8.0,4.0,1.0,5.0,0.0,0.0,5.0,0.0,part_2,stop,500.0,250.0,4.0,,,,,,,,,green,circle
0.0,4.0,4.0,0.0,5.0,5.0,503.3326580000903,5.0,0.0,part_2,go,550.0,250.0,1.0,,,,,,,,,cyan,cross
0.0,8.0,4.0,1.0,6.0,0.0,0.0,5.0,0.0,part_2,stop,550.0,250.0,4.0,,,,,,,,,green,circle
0.0,2.0,2.0,0.0,6.0,6.0,592.2461850000218,5.0,0.0,part_2,go,550.0,300.0,1.0,,,,,,,,,orange,diamond
0.0,1.0,1.0,0.0,5.0,5.0,490.2588790000663,5.0,0.0,part_2,go,550.0,300.0,1.0,,,,,,,,,blue,hexagon
0.0,8.0,4.0,1.0,6.0,0.0,0.0,5.0,0.0,part_2,stop,550.0,300.0,4.0,,,,,,,,,green,circle
0.0,1.0,1.0,0.0,6.0,6.0,592.8499799997553,5.0,0.0,part_2,go,550.0,350.0,1.0,,,,,,,,,blue,hexagon
0.0,3.0,3.0,0.0,5.0,5.0,436.5753849997418,5.0,0.0,part_2,go,550.0,350.0,1.0,,,,,,,,,magenta,flipped triangle
0.0,7.0,3.0,1.0,6.0,6.0,386.9911289998526,5.0,0.0,part_2,stop,550.0,350.0,3.0,,,,,,,,,gray,square
0.0,1.0,1.0,0.0,5.0,5.0,398.2789310002772,5.0,0.0,part_2,go,550.0,300.0,1.0,,,,,,,,,blue,hexagon
0.0,6.0,2.0,1.0,6.0,6.0,286.5456209997319,5.0,0.0,part_2,stop,550.0,300.0,3.0,,,,,,,,,yellow,I
0.0,2.0,2.0,0.0,5.0,5.0,565.4431499997372,5.0,0.0,part_2,go,550.0,250.0,1.0,,,,,,,,,orange,diamond
0.0,5.0,1.0,1.0,5.0,5.0,437.1913280001536,5.0,0.0,part_2,go,550.0,250.0,1.0,,,,,,,,,white,triangle
0.0,5.0,1.0,1.0,5.0,5.0,367.260811000051,5.0,0.0,part_2,stop,550.0,250.0,3.0,,,,,,,,,white,triangle
0.0,1.0,1.0,0.0,6.0,6.0,584.7227499998553,5.0,0.0,part_2,go,500.0,250.0,1.0,,,,,,,,,blue,hexagon
0.0,2.0,2.0,0.0,5.0,5.0,394.9119809999502,5.0,0.0,part_2,go,500.0,250.0,1.0,,,,,,,,,orange,diamond
0.0,3.0,3.0,0.0,6.0,6.0,617.3291270001755,5.0,0.0,part_2,go,500.0,250.0,1.0,,,,,,,,,magenta,flipped triangle
0.0,7.0,3.0,1.0,6.0,6.0,355.4548520000935,6.0,0.0,part_2,stop,500.0,250.0,3.0,,,,,,,,,gray,square
0.0,1.0,1.0,0.0,5.0,5.0,327.18690899992,6.0,0.0,part_2,go,500.0,200.0,1.0,,,,,,,,,blue,hexagon
0.0,1.0,1.0,0.0,6.0,6.0,300.4504310001721,6.0,0.0,part_2,go,500.0,200.0,1.0,,,,,,,,,blue,hexagon
0.0,8.0,4.0,1.0,6.0,0.0,0.0,6.0,0.0,part_2,stop,500.0,200.0,4.0,,,,,,,,,green,circle
0.0,7.0,3.0,1.0,5.0,5.0,361.3248130000102,6.0,0.0,part_2,go,500.0,250.0,1.0,,,,,,,,,gray,square
0.0,3.0,3.0,0.0,5.0,5.0,426.4579000000594,6.0,0.0,part_2,go,500.0,250.0,1.0,,,,,,,,,magenta,flipped triangle
0.0,5.0,1.0,1.0,5.0,5.0,414.5048489999681,6.0,0.0,part_2,stop,500.0,250.0,3.0,,,,,,,,,white,triangle
0.0,4.0,4.0,0.0,5.0,5.0,477.4451969997244,6.0,0.0,part_2,go,450.0,250.0,1.0,,,,,,,,,cyan,cross
0.0,4.0,4.0,0.0,5.0,5.0,592.5188730002446,6.0,0.0,part_2,go,450.0,250.0,1.0,,,,,,,,,cyan,cross
0.0,1.0,1.0,0.0,5.0,5.0,593.7243050002508,6.0,0.0,part_2,go,450.0,250.0,1.0,,,,,,,,,blue,hexagon
0.0,2.0,2.0,0.0,6.0,6.0,566.9460139997682,6.0,0.0,part_2,go,450.0,250.0,1.0,,,,,,,,,orange,diamond
0.0,8.0,4.0,1.0,6.0,6.0,349.80026500034,6.0,0.0,part_2,stop,450.0,250.0,3.0,,,,,,,,,green,circle
0.0,8.0,4.0,1.0,6.0,6.0,1035.5147310001485,6.0,0.0,part_2,go,450.0,200.0,1.0,,,,,,,,,green,circle
0.0,7.0,3.0,1.0,6.0,0.0,0.0,6.0,0.0,part_2,stop,450.0,200.0,4.0,,,,,,,,,gray,square
0.0,6.0,2.0,1.0,6.0,6.0,666.9880740000735,6.0,0.0,part_2,go,450.0,250.0,1.0,,,,,,,,,yellow,I
0.0,8.0,4.0,1.0,5.0,0.0,0.0,6.0,0.0,part_2,stop,450.0,250.0,4.0,,,,,,,,,green,circle
0.0,5.0,1.0,1.0,6.0,0.0,0.0,6.0,0.0,part_2,stop,500.0,250.0,4.0,,,,,,,,,white,triangle
0.0,7.0,3.0,1.0,5.0,0.0,0.0,6.0,0.0,part_2,stop,500.0,300.0,4.0,,,,,,,,,gray,square
0.0,2.0,2.0,0.0,5.0,5.0,520.9379230000195,6.0,0.0,part_2,go,550.0,300.0,1.0,,,,,,,,,orange,diamond
0.0,7.0,3.0,1.0,6.0,6.0,418.1525349999901,6.0,0.0,part_2,stop,550.0,300.0,3.0,,,,,,,,,gray,square
0.0,6.0,2.0,1.0,6.0,0.0,0.0,6.0,0.0,part_2,stop,550.0,250.0,4.0,,,,,,,,,yellow,I
0.0,2.0,2.0,0.0,6.0,6.0,701.0548620000918,6.0,0.0,part_2,go,550.0,300.0,1.0,,,,,,,,,orange,diamond
0.0,1.0,1.0,0.0,6.0,6.0,328.6257179997847,6.0,0.0,part_2,go,550.0,300.0,1.0,,,,,,,,,blue,hexagon
0.0,5.0,1.0,1.0,6.0,6.0,348.060323000027,6.0,0.0,part_2,stop,550.0,300.0,3.0,,,,,,,,,white,triangle
0.0,5.0,1.0,1.0,6.0,0.0,0.0,6.0,0.0,part_2,stop,550.0,250.0,4.0,,,,,,,,,white,triangle
0.0,2.0,2.0,0.0,6.0,6.0,785.1125299998785,6.0,0.0,part_2,go,550.0,300.0,1.0,,,,,,,,,orange,diamond
0.0,7.0,3.0,1.0,5.0,5.0,598.2121570000345,6.0,0.0,part_2,stop,550.0,300.0,3.0,,,,,,,,,gray,square
0.0,8.0,4.0,1.0,5.0,0.0,0.0,6.0,0.0,part_2,stop,500.0,300.0,4.0,,,,,,,,,green,circle
0.0,4.0,4.0,0.0,6.0,6.0,708.3164579998993,6.0,0.0,part_2,go,550.0,300.0,1.0,,,,,,,,,cyan,cross
0.0,6.0,2.0,1.0,6.0,0.0,0.0,6.0,0.0,part_2,stop,550.0,300.0,4.0,,,,,,,,,yellow,I
0.0,6.0,2.0,1.0,5.0,0.0,0.0,6.0,0.0,part_2,stop,550.0,350.0,4.0,,,,,,,,,yellow,I
0.0,1.0,1.0,0.0,6.0,6.0,718.9039390000289,6.0,0.0,part_2,go,600.0,350.0,1.0,,,,,,,,,blue,hexagon
0.0,5.0,1.0,1.0,5.0,5.0,719.4100639999306,6.0,0.0,part_2,stop,600.0,350.0,3.0,,,,,,,,,white,triangle
0.0,1.0,1.0,0.0,5.0,5.0,853.3888550000484,6.0,0.0,part_2,go,550.0,350.0,1.0,,,,,,,,,blue,hexagon
0.0,8.0,4.0,1.0,5.0,0.0,0.0,6.0,0.0,part_2,stop,550.0,350.0,4.0,,,,,,,,,green,circle
0.0,5.0,1.0,1.0,5.0,0.0,0.0,6.0,0.0,part_2,stop,600.0,350.0,4.0,,,,,,,,,white,triangle
0.0,1.0,1.0,0.0,6.0,6.0,362.3861629998828,7.0,0.0,part_2,go,650.0,350.0,1.0,,,,,,,,,blue,hexagon
0.0,6.0,2.0,1.0,6.0,6.0,948.6217830003624,7.0,0.0,part_2,go,650.0,350.0,1.0,,,,,,,,,yellow,I
0.0,7.0,3.0,1.0,6.0,0.0,0.0,7.0,0.0,part_2,stop,650.0,350.0,4.0,,,,,,,,,gray,square
0.0,5.0,1.0,1.0,6.0,6.0,905.3497190002416,7.0,0.0,part_2,go,650.0,400.0,1.0,,,,,,,,,white,triangle
0.0,2.0,2.0,0.0,6.0,6.0,592.3249649999889,7.0,0.0,part_2,go,650.0,400.0,1.0,,,,,,,,,orange,diamond
0.0,4.0,4.0,0.0,6.0,6.0,542.319425000187,7.0,0.0,part_2,go,650.0,400.0,1.0,,,,,,,,,cyan,cross
0.0,5.0,1.0,1.0,5.0,5.0,548.2571360003021,7.0,0.0,part_2,stop,650.0,400.0,3.0,,,,,,,,,white,triangle
0.0,7.0,3.0,1.0,6.0,0.0,0.0,7.0,0.0,part_2,stop,600.0,400.0,4.0,,,,,,,,,gray,square
0.0,6.0,2.0,1.0,6.0,0.0,0.0,7.0,0.0,part_2,stop,600.0,450.0,4.0,,,,,,,,,yellow,I
0.0,1.0,1.0,0.0,5.0,5.0,608.0708220001725,7.0,0.0,part_2,go,600.0,500.0,1.0,,,,,,,,,blue,hexagon
0.0,3.0,3.0,0.0,6.0,6.0,324.8217919999661,7.0,0.0,part_2,go,600.0,500.0,1.0,,,,,,,,,magenta,flipped triangle
0.0,5.0,1.0,1.0,6.0,6.0,763.1317330001366,7.0,0.0,part_2,go,600.0,500.0,1.0,,,,,,,,,white,triangle
0.0,2.0,2.0,0.0,5.0,5.0,594.0582849998464,7.0,0.0,part_2,go,600.0,500.0,1.0,,,,,,,,,orange,diamond
0.0,6.0,2.0,1.0,6.0,0.0,0.0,7.0,0.0,part_2,stop,600.0,500.0,4.0,,,,,,,,,yellow,I
0.0,6.0,2.0,1.0,6.0,0.0,0.0,7.0,0.0,part_2,stop,600.0,550.0,4.0,,,,,,,,,yellow,I
0.0,3.0,3.0,0.0,5.0,5.0,479.9171720001141,7.0,0.0,part_2,go,600.0,600.0,1.0,,,,,,,,,magenta,flipped triangle
0.0,3.0,3.0,0.0,6.0,6.0,698.4751750001124,7.0,0.0,part_2,go,600.0,600.0,1.0,,,,,,,,,magenta,flipped triangle
0.0,7.0,3.0,1.0,5.0,5.0,719.9804950000726,7.0,0.0,part_2,stop,600.0,600.0,3.0,,,,,,,,,gray,square
0.0,7.0,3.0,1.0,6.0,0.0,0.0,7.0,0.0,part_2,stop,550.0,600.0,4.0,,,,,,,,,gray,square
0.0,6.0,2.0,1.0,6.0,6.0,1072.481095999592,7.0,0.0,part_2,go,550.0,650.0,1.0,,,,,,,,,yellow,I
0.0,3.0,3.0,0.0,6.0,6.0,812.3856219999652,7.0,0.0,part_2,go,550.0,650.0,1.0,,,,,,,,,magenta,flipped triangle
0.0,6.0,2.0,1.0,5.0,5.0,873.9451299998109,7.0,0.0,part_2,go,550.0,650.0,1.0,,,,,,,,,yellow,I
0.0,8.0,4.0,1.0,6.0,0.0,0.0,7.0,0.0,part_2,stop,550.0,650.0,4.0,,,,,,,,,green,circle
0.0,8.0,4.0,1.0,5.0,5.0,1467.235182999957,7.0,0.0,part_2,go,550.0,700.0,1.0,,,,,,,,,green,circle
0.0,8.0,4.0,1.0,6.0,0.0,0.0,7.0,0.0,part_2,stop,550.0,700.0,4.0,,,,,,,,,green,circle
0.0,2.0,2.0,0.0,6.0,6.0,594.0669420001541,7.0,0.0,part_2,go,550.0,750.0,1.0,,,,,,,,,orange,diamond
0.0,6.0,2.0,1.0,5.0,0.0,0.0,7.0,0.0,part_2,stop,550.0,750.0,4.0,,,,,,,,,yellow,I
0.0,1.0,1.0,0.0,5.0,5.0,599.9459409999872,7.0,0.0,part_2,go,600.0,750.0,1.0,,,,,,,,,blue,hexagon
0.0,6.0,2.0,1.0,5.0,5.0,990.664055000252,7.0,0.0,part_2,go,600.0,750.0,1.0,,,,,,,,,yellow,I
0.0,1.0,1.0,0.0,5.0,5.0,922.552373000144,7.0,0.0,part_2,go,600.0,750.0,1.0,,,,,,,,,blue,hexagon
0.0,3.0,3.0,0.0,6.0,6.0,517.6346620000913,7.0,0.0,part_2,go,600.0,750.0,1.0,,,,,,,,,magenta,flipped triangle
0.0,3.0,3.0,0.0,5.0,5.0,312.0549780001056,7.0,0.0,part_2,go,600.0,750.0,1.0,,,,,,,,,magenta,flipped triangle
0.0,5.0,1.0,1.0,6.0,6.0,858.9545350000662,7.0,0.0,part_2,stop,600.0,750.0,3.0,,,,,,,,,white,triangle
0.0,3.0,3.0,0.0,5.0,5.0,627.1076739999444,7.0,0.0,part_2,go,600.0,700.0,1.0,,,,,,,,,magenta,flipped triangle
0.0,6.0,2.0,1.0,6.0,6.0,841.5445589998853,7.0,0.0,part_2,stop,600.0,700.0,3.0,,,,,,,,,yellow,I
0.0,8.0,4.0,1.0,6.0,0.0,0.0,7.0,0.0,part_2,stop,600.0,650.0,4.0,,,,,,,,,green,circle
0.0,4.0,4.0,0.0,5.0,5.0,374.6958199999426,8.0,0.0,part_2,go,600.0,700.0,1.0,,,,,,,,,cyan,cross
0.0,8.0,4.0,1.0,6.0,6.0,698.5907389998829,8.0,0.0,part_2,stop,600.0,700.0,3.0,,,,,,,,,green,circle
0.0,5.0,1.0,1.0,6.0,6.0,471.0871060001409,8.0,0.0,part_2,stop,600.0,650.0,3.0,,,,,,,,,white,triangle
0.0,3.0,3.0,0.0,5.0,5.0,280.3558929999781,8.0,0.0,part_2,go,600.0,600.0,1.0,,,,,,,,,magenta,flipped triangle
0.0,1.0,1.0,0.0,6.0,6.0,298.8486899998861,8.0,0.0,part_2,go,600.0,600.0,1.0,,,,,,,,,blue,hexagon
0.0,2.0,2.0,0.0,5.0,5.0,265.158657000029,8.0,0.0,part_2,go,600.0,600.0,1.0,,,,,,,,,orange,diamond
0.0,5.0,1.0,1.0,5.0,5.0,297.9518239999379,8.0,0.0,part_2,stop,600.0,600.0,3.0,,,,,,,,,white,triangle
0.0,4.0,4.0,0.0,5.0,5.0,268.5781229997701,8.0,0.0,part_2,go,550.0,600.0,1.0,,,,,,,,,cyan,cross
0.0,2.0,2.0,0.0,6.0,6.0,296.7079790000753,8.0,0.0,part_2,go,550.0,600.0,1.0,,,,,,,,,orange,diamond
0.0,8.0,4.0,1.0,6.0,6.0,336.8975099997442,8.0,0.0,part_2,stop,550.0,600.0,3.0,,,,,,,,,green,circle
0.0,3.0,3.0,0.0,6.0,6.0,388.2546039999397,8.0,0.0,part_2,go,550.0,550.0,1.0,,,,,,,,,magenta,flipped triangle
0.0,2.0,2.0,0.0,6.0,6.0,394.6842919999653,8.0,0.0,part_2,go,550.0,550.0,1.0,,,,,,,,,orange,diamond
0.0,3.0,3.0,0.0,5.0,5.0,326.3297560001774,8.0,0.0,part_2,go,550.0,550.0,1.0,,,,,,,,,magenta,flipped triangle
0.0,6.0,2.0,1.0,5.0,5.0,836.6212400001132,8.0,0.0,part_2,go,550.0,550.0,1.0,,,,,,,,,yellow,I
0.0,6.0,2.0,1.0,5.0,5.0,567.9616090001218,8.0,0.0,part_2,go,550.0,550.0,1.0,,,,,,,,,yellow,I
0.0,7.0,3.0,1.0,5.0,5.0,822.9416039998796,8.0,0.0,part_2,go,550.0,550.0,1.0,,,,,,,,,gray,square
0.0,7.0,3.0,1.0,6.0,0.0,0.0,8.0,0.0,part_2,stop,550.0,550.0,4.0,,,,,,,,,gray,square
0.0,1.0,1.0,0.0,6.0,6.0,605.9349160000238,8.0,0.0,part_2,go,550.0,600.0,1.0,,,,,,,,,blue,hexagon
0.0,3.0,3.0,0.0,5.0,5.0,345.0214430004052,8.0,0.0,part_2,go,550.0,600.0,1.0,,,,,,,,,magenta,flipped triangle
0.0,7.0,3.0,1.0,6.0,6.0,389.3010140000115,8.0,0.0,part_2,stop,550.0,600.0,3.0,,,,,,,,,gray,square
0.0,5.0,1.0,1.0,5.0,5.0,318.8415559998248,8.0,0.0,part_2,stop,550.0,550.0,3.0,,,,,,,,,white,triangle
0.0,4.0,4.0,0.0,6.0,6.0,661.7938819999836,8.0,0.0,part_2,go,500.0,550.0,1.0,,,,,,,,,cyan,cross
0.0,2.0,2.0,0.0,6.0,6.0,371.9834010003069,8.0,0.0,part_2,go,500.0,550.0,1.0,,,,,,,,,orange,diamond
0.0,7.0,3.0,1.0,6.0,0.0,0.0,8.0,0.0,part_2,stop,500.0,550.0,4.0,,,,,,,,,gray,square
0.0,8.0,4.0,1.0,6.0,0.0,0.0,8.0,0.0,part_2,stop,500.0,600.0,4.0,,,,,,,,,green,circle
0.0,7.0,3.0,1.0,5.0,0.0,0.0,8.0,0.0,part_2,stop,500.0,650.0,4.0,,,,,,,,,gray,square
0.0,1.0,1.0,0.0,5.0,5.0,592.9901409999729,8.0,0.0,part_2,go,550.0,650.0,1.0,,,,,,,,,blue,hexagon
0.0,5.0,1.0,1.0,5.0,5.0,335.6095449998975,8.0,0.0,part_2,stop,550.0,650.0,3.0,,,,,,,,,white,triangle
0.0,6.0,2.0,1.0,5.0,0.0,0.0,8.0,0.0,part_2,stop,500.0,650.0,4.0,,,,,,,,,yellow,I
0.0,8.0,4.0,1.0,6.0,6.0,1109.3747270001586,8.0,0.0,part_2,go,550.0,650.0,1.0,,,,,,,,,green,circle
0.0,2.0,2.0,0.0,5.0,5.0,550.6148220001705,8.0,0.0,part_2,go,550.0,650.0,1.0,,,,,,,,,orange,diamond
0.0,7.0,3.0,1.0,6.0,6.0,850.7070880000356,8.0,0.0,part_2,go,550.0,650.0,1.0,,,,,,,,,gray,square
0.0,6.0,2.0,1.0,5.0,5.0,740.0666090002233,8.0,0.0,part_2,stop,550.0,650.0,3.0,,,,,,,,,yellow,I
0.0,2.0,2.0,0.0,5.0,5.0,543.3251219997146,8.0,0.0,part_2,go,500.0,650.0,1.0,,,,,,,,,orange,diamond
0.0,6.0,2.0,1.0,5.0,0.0,0.0,8.0,0.0,part_2,stop,500.0,650.0,4.0,,,,,,,,,yellow,I
0.0,4.0,4.0,0.0,5.0,5.0,540.9700549998888,8.0,0.0,part_2,go,550.0,650.0,1.0,,,,,,,,,cyan,cross
0.0,6.0,2.0,1.0,7.0,2.0,33.6960759996145,1.0,1.0,part_3,go,0.0,0.0,0.0,147.0,3.0,196.0,147.0,98.0,294.0,49.0,245.0,yellow,I
0.0,6.0,2.0,1.0,7.0,5.0,2213.549953000438,1.0,1.0,part_3,go,0.0,0.0,0.0,44.0,1.0,176.0,88.0,220.0,132.0,44.0,264.0,yellow,I
0.0,2.0,2.0,0.0,7.0,2.0,1763.1800420003856,1.0,1.0,part_3,go,0.0,0.0,0.0,49.0,1.0,245.0,49.0,98.0,294.0,196.0,147.0,orange,diamond
0.0,8.0,4.0,1.0,7.0,5.0,3316.8345840003894,1.0,1.0,part_3,go,0.0,0.0,0.0,117.0,3.0,156.0,234.0,39.0,195.0,117.0,78.0,green,circle
0.0,8.0,4.0,1.0,7.0,6.0,3285.555712000132,1.0,1.0,part_3,go,0.0,0.0,0.0,216.0,4.0,270.0,108.0,324.0,54.0,162.0,216.0,green,circle
0.0,1.0,1.0,0.0,7.0,6.0,4508.320250999532,1.0,1.0,part_3,go,0.0,0.0,0.0,162.0,3.0,108.0,324.0,270.0,216.0,54.0,162.0,blue,hexagon
0.0,5.0,1.0,1.0,7.0,4.0,2450.974349999342,1.0,1.0,part_3,go,0.0,0.0,0.0,98.0,2.0,49.0,294.0,147.0,98.0,245.0,196.0,white,triangle
0.0,3.0,3.0,0.0,7.0,4.0,2455.2877819996866,1.0,1.0,part_3,go,0.0,0.0,0.0,68.0,2.0,136.0,170.0,204.0,68.0,34.0,102.0,magenta,flipped triangle
0.0,4.0,4.0,0.0,7.0,5.0,3565.308047000144,1.0,1.0,part_3,go,0.0,0.0,0.0,34.0,1.0,102.0,136.0,170.0,68.0,34.0,204.0,cyan,cross
0.0,3.0,3.0,0.0,7.0,1.0,2326.809952000076,1.0,1.0,part_3,go,0.0,0.0,0.0,78.0,2.0,78.0,156.0,117.0,234.0,195.0,39.0,magenta,flipped triangle
0.0,2.0,2.0,0.0,7.0,4.0,2162.901353000052,1.0,1.0,part_3,go,0.0,0.0,0.0,49.0,1.0,196.0,98.0,147.0,49.0,294.0,245.0,orange,diamond
0.0,1.0,1.0,0.0,7.0,6.0,3161.7626120005298,1.0,1.0,part_3,go,0.0,0.0,0.0,102.0,3.0,170.0,68.0,34.0,136.0,204.0,102.0,blue,hexagon
0.0,6.0,2.0,1.0,7.0,1.0,3328.232492999632,1.0,1.0,part_3,go,0.0,0.0,0.0,108.0,2.0,108.0,270.0,162.0,54.0,216.0,324.0,yellow,I
0.0,6.0,2.0,1.0,7.0,5.0,4503.257097000642,1.0,1.0,part_3,go,0.0,0.0,0.0,78.0,2.0,156.0,39.0,117.0,234.0,78.0,195.0,yellow,I
0.0,1.0,1.0,0.0,7.0,2.0,2214.495101000466,1.0,1.0,part_3,go,0.0,0.0,0.0,44.0,1.0,88.0,44.0,132.0,176.0,264.0,220.0,blue,hexagon
0.0,3.0,3.0,0.0,7.0,6.0,2140.4201209998064,1.0,1.0,part_3,go,0.0,0.0,0.0,156.0,4.0,39.0,117.0,234.0,78.0,195.0,156.0,magenta,flipped triangle
0.0,5.0,1.0,1.0,7.0,2.0,2047.3871530002725,1.0,1.0,part_3,go,0.0,0.0,0.0,54.0,1.0,108.0,54.0,216.0,270.0,162.0,324.0,white,triangle
0.0,4.0,4.0,0.0,7.0,5.0,1932.0518009999432,1.0,1.0,part_3,go,0.0,0.0,0.0,68.0,2.0,34.0,102.0,170.0,204.0,68.0,136.0,cyan,cross
0.0,6.0,2.0,1.0,7.0,6.0,3324.560525999914,1.0,1.0,part_3,go,0.0,0.0,0.0,195.0,5.0,234.0,39.0,156.0,78.0,117.0,195.0,yellow,I
0.0,2.0,2.0,0.0,7.0,5.0,3310.5898570001955,1.0,1.0,part_3,go,0.0,0.0,0.0,234.0,6.0,117.0,195.0,78.0,156.0,234.0,39.0,orange,diamond
0.0,2.0,2.0,0.0,7.0,1.0,1425.5390700000137,2.0,1.0,part_3,go,0.0,0.0,0.0,176.0,4.0,176.0,132.0,264.0,88.0,44.0,220.0,orange,diamond
0.0,2.0,2.0,0.0,7.0,5.0,2534.0500190004605,2.0,1.0,part_3,go,0.0,0.0,0.0,102.0,3.0,136.0,34.0,204.0,68.0,102.0,170.0,orange,diamond
0.0,7.0,3.0,1.0,7.0,5.0,1358.3652739998795,2.0,1.0,part_3,go,0.0,0.0,0.0,68.0,2.0,136.0,204.0,170.0,34.0,68.0,102.0,gray,square
0.0,2.0,2.0,0.0,7.0,6.0,2425.235392000104,2.0,1.0,part_3,go,0.0,0.0,0.0,220.0,5.0,132.0,88.0,176.0,264.0,44.0,220.0,orange,diamond
0.0,6.0,2.0,1.0,7.0,1.0,3217.415826999968,2.0,1.0,part_3,go,0.0,0.0,0.0,54.0,1.0,54.0,270.0,324.0,162.0,216.0,108.0,yellow,I
0.0,7.0,3.0,1.0,7.0,2.0,2145.2879480002593,2.0,1.0,part_3,go,0.0,0.0,0.0,245.0,5.0,147.0,245.0,294.0,196.0,49.0,98.0,gray,square
0.0,5.0,1.0,1.0,7.0,3.0,2875.2415930002826,2.0,1.0,part_3,go,0.0,0.0,0.0,324.0,6.0,216.0,54.0,324.0,162.0,270.0,108.0,white,triangle
0.0,3.0,3.0,0.0,7.0,6.0,1551.2299499996516,2.0,1.0,part_3,go,0.0,0.0,0.0,196.0,4.0,98.0,147.0,294.0,49.0,245.0,196.0,magenta,flipped triangle
0.0,1.0,1.0,0.0,7.0,2.0,1846.6550570001343,2.0,1.0,part_3,go,0.0,0.0,0.0,147.0,3.0,294.0,147.0,196.0,245.0,98.0,49.0,blue,hexagon
0.0,3.0,3.0,0.0,7.0,2.0,1820.7411429993952,2.0,1.0,part_3,go,0.0,0.0,0.0,220.0,5.0,88.0,220.0,264.0,132.0,44.0,176.0,magenta,flipped triangle
0.0,7.0,3.0,1.0,7.0,3.0,1519.1634769998927,2.0,1.0,part_3,go,0.0,0.0,0.0,44.0,1.0,88.0,220.0,44.0,132.0,264.0,176.0,gray,square
0.0,5.0,1.0,1.0,7.0,6.0,2076.3692549999178,2.0,1.0,part_3,go,0.0,0.0,0.0,176.0,4.0,132.0,88.0,220.0,44.0,264.0,176.0,white,triangle
0.0,8.0,4.0,1.0,7.0,3.0,2540.5397399999856,2.0,1.0,part_3,go,0.0,0.0,0.0,245.0,5.0,147.0,49.0,245.0,98.0,196.0,294.0,green,circle
0.0,6.0,2.0,1.0,7.0,2.0,1848.8111040005608,2.0,1.0,part_3,go,0.0,0.0,0.0,98.0,2.0,196.0,98.0,245.0,49.0,147.0,294.0,yellow,I
0.0,4.0,4.0,0.0,7.0,3.0,1584.5516139997926,2.0,1.0,part_3,go,0.0,0.0,0.0,78.0,2.0,39.0,117.0,78.0,234.0,156.0,195.0,cyan,cross
0.0,1.0,1.0,0.0,7.0,6.0,1280.4921130000366,2.0,1.0,part_3,go,0.0,0.0,0.0,234.0,6.0,78.0,39.0,156.0,117.0,195.0,234.0,blue,hexagon
0.0,7.0,3.0,1.0,7.0,6.0,1822.8225870007009,2.0,1.0,part_3,go,0.0,0.0,0.0,49.0,1.0,147.0,294.0,196.0,245.0,98.0,49.0,gray,square
0.0,4.0,4.0,0.0,7.0,4.0,1817.8325779999795,2.0,1.0,part_3,go,0.0,0.0,0.0,162.0,3.0,324.0,54.0,108.0,162.0,216.0,270.0,cyan,cross
0.0,7.0,3.0,1.0,7.0,1.0,2467.999516999953,2.0,1.0,part_3,go,0.0,0.0,0.0,132.0,3.0,132.0,264.0,176.0,220.0,88.0,44.0,gray,square
0.0,5.0,1.0,1.0,7.0,4.0,2867.371481000191,2.0,1.0,part_3,go,0.0,0.0,0.0,49.0,1.0,245.0,294.0,98.0,49.0,147.0,196.0,white,triangle
0.0,5.0,1.0,1.0,7.0,6.0,1447.1261869994123,3.0,1.0,part_3,go,0.0,0.0,0.0,170.0,5.0,102.0,34.0,204.0,136.0,68.0,170.0,white,triangle
0.0,8.0,4.0,1.0,7.0,6.0,2286.0477630001697,3.0,1.0,part_3,go,0.0,0.0,0.0,162.0,3.0,54.0,270.0,216.0,108.0,324.0,162.0,green,circle
0.0,2.0,2.0,0.0,7.0,4.0,1818.191005000699,3.0,1.0,part_3,go,0.0,0.0,0.0,34.0,1.0,136.0,170.0,102.0,34.0,204.0,68.0,orange,diamond
0.0,4.0,4.0,0.0,7.0,1.0,3031.9215579993397,3.0,1.0,part_3,go,0.0,0.0,0.0,220.0,5.0,220.0,44.0,264.0,176.0,88.0,132.0,cyan,cross
0.0,3.0,3.0,0.0,7.0,6.0,1696.3829209998948,3.0,1.0,part_3,go,0.0,0.0,0.0,68.0,2.0,136.0,204.0,34.0,102.0,170.0,68.0,magenta,flipped triangle
0.0,1.0,1.0,0.0,7.0,4.0,1618.16101399927,3.0,1.0,part_3,go,0.0,0.0,0.0,117.0,3.0,39.0,234.0,195.0,117.0,78.0,156.0,blue,hexagon
0.0,8.0,4.0,1.0,7.0,2.0,2660.135300000547,3.0,1.0,part_3,go,0.0,0.0,0.0,220.0,5.0,88.0,220.0,44.0,132.0,264.0,176.0,green,circle
0.0,5.0,1.0,1.0,7.0,5.0,2006.3324600005217,3.0,1.0,part_3,go,0.0,0.0,0.0,68.0,2.0,170.0,136.0,102.0,34.0,68.0,204.0,white,triangle
0.0,6.0,2.0,1.0,7.0,6.0,1626.0642280003594,3.0,1.0,part_3,go,0.0,0.0,0.0,204.0,6.0,68.0,170.0,102.0,34.0,136.0,204.0,yellow,I
0.0,6.0,2.0,1.0,7.0,6.0,1834.48397400025,3.0,1.0,part_3,go,0.0,0.0,0.0,34.0,1.0,136.0,102.0,204.0,170.0,68.0,34.0,yellow,I
0.0,7.0,3.0,1.0,7.0,1.0,2183.4796399998595,3.0,1.0,part_3,go,0.0,0.0,0.0,34.0,1.0,34.0,170.0,102.0,136.0,204.0,68.0,gray,square
0.0,4.0,4.0,0.0,7.0,4.0,1546.8222540002898,3.0,1.0,part_3,go,0.0,0.0,0.0,49.0,1.0,294.0,147.0,245.0,49.0,98.0,196.0,cyan,cross
0.0,7.0,3.0,1.0,7.0,3.0,1659.986650999599,3.0,1.0,part_3,go,0.0,0.0,0.0,39.0,1.0,195.0,117.0,39.0,156.0,234.0,78.0,gray,square
0.0,8.0,4.0,1.0,7.0,6.0,1421.385884999836,3.0,1.0,part_3,go,0.0,0.0,0.0,136.0,4.0,34.0,170.0,204.0,68.0,102.0,136.0,green,circle
0.0,5.0,1.0,1.0,7.0,3.0,1565.547596000215,3.0,1.0,part_3,go,0.0,0.0,0.0,117.0,3.0,234.0,156.0,117.0,39.0,195.0,78.0,white,triangle
0.0,3.0,3.0,0.0,7.0,2.0,3009.3829240004197,3.0,1.0,part_3,go,0.0,0.0,0.0,54.0,1.0,108.0,54.0,216.0,162.0,324.0,270.0,magenta,flipped triangle
0.0,2.0,2.0,0.0,7.0,4.0,3088.6042749998524,3.0,1.0,part_3,go,0.0,0.0,0.0,39.0,1.0,117.0,195.0,156.0,39.0,234.0,78.0,orange,diamond
0.0,5.0,1.0,1.0,7.0,1.0,2652.974056999483,3.0,1.0,part_3,go,0.0,0.0,0.0,176.0,4.0,176.0,264.0,220.0,132.0,88.0,44.0,white,triangle
0.0,1.0,1.0,0.0,7.0,2.0,3457.4496149998595,3.0,1.0,part_3,go,0.0,0.0,0.0,162.0,3.0,324.0,162.0,54.0,108.0,216.0,270.0,blue,hexagon
0.0,2.0,2.0,0.0,7.0,4.0,2496.498857000006,3.0,1.0,part_3,go,0.0,0.0,0.0,162.0,3.0,108.0,324.0,270.0,162.0,216.0,54.0,orange,diamond
0.0,8.0,4.0,1.0,7.0,3.0,1232.0905739998125,4.0,1.0,part_3,go,0.0,0.0,0.0,88.0,2.0,44.0,132.0,88.0,176.0,220.0,264.0,green,circle
0.0,8.0,4.0,1.0,7.0,6.0,1842.821352000101,4.0,1.0,part_3,go,0.0,0.0,0.0,147.0,3.0,196.0,98.0,49.0,245.0,294.0,147.0,green,circle
0.0,4.0,4.0,0.0,7.0,5.0,3166.7643629998565,4.0,1.0,part_3,go,0.0,0.0,0.0,117.0,3.0,234.0,78.0,39.0,156.0,117.0,195.0,cyan,cross
0.0,1.0,1.0,0.0,7.0,4.0,3173.3027029995355,4.0,1.0,part_3,go,0.0,0.0,0.0,44.0,1.0,264.0,132.0,176.0,44.0,88.0,220.0,blue,hexagon
0.0,4.0,4.0,0.0,7.0,3.0,2408.260586999859,4.0,1.0,part_3,go,0.0,0.0,0.0,108.0,2.0,324.0,216.0,108.0,162.0,270.0,54.0,cyan,cross
0.0,4.0,4.0,0.0,7.0,6.0,2088.2044300005873,4.0,1.0,part_3,go,0.0,0.0,0.0,49.0,1.0,294.0,245.0,147.0,196.0,98.0,49.0,cyan,cross
0.0,4.0,4.0,0.0,7.0,3.0,2083.2511979997435,4.0,1.0,part_3,go,0.0,0.0,0.0,176.0,4.0,88.0,264.0,176.0,132.0,220.0,44.0,cyan,cross
0.0,1.0,1.0,0.0,7.0,5.0,2571.651343000667,4.0,1.0,part_3,go,0.0,0.0,0.0,102.0,3.0,34.0,170.0,68.0,204.0,102.0,136.0,blue,hexagon
0.0,8.0,4.0,1.0,7.0,2.0,3948.108153000248,4.0,1.0,part_3,go,0.0,0.0,0.0,156.0,4.0,195.0,156.0,117.0,39.0,234.0,78.0,green,circle
0.0,3.0,3.0,0.0,7.0,5.0,2220.942070000092,4.0,1.0,part_3,go,0.0,0.0,0.0,264.0,6.0,44.0,220.0,88.0,176.0,264.0,132.0,magenta,flipped triangle
0.0,3.0,3.0,0.0,7.0,6.0,1885.7070889998797,4.0,1.0,part_3,go,0.0,0.0,0.0,216.0,4.0,108.0,162.0,324.0,54.0,270.0,216.0,magenta,flipped triangle
0.0,7.0,3.0,1.0,7.0,1.0,1712.2404600004302,4.0,1.0,part_3,go,0.0,0.0,0.0,108.0,2.0,108.0,162.0,270.0,54.0,216.0,324.0,gray,square
0.0,7.0,3.0,1.0,7.0,5.0,1645.9501150002325,4.0,1.0,part_3,go,0.0,0.0,0.0,117.0,3.0,39.0,234.0,195.0,78.0,117.0,156.0,gray,square
0.0,2.0,2.0,0.0,7.0,6.0,2617.3768669996207,4.0,1.0,part_3,go,0.0,0.0,0.0,108.0,2.0,162.0,270.0,324.0,216.0,54.0,108.0,orange,diamond
0.0,7.0,3.0,1.0,7.0,6.0,2627.2064770000725,4.0,1.0,part_3,go,0.0,0.0,0.0,54.0,1.0,216.0,162.0,108.0,324.0,270.0,54.0,gray,square
0.0,5.0,1.0,1.0,7.0,6.0,2469.208959999378,4.0,1.0,part_3,go,0.0,0.0,0.0,117.0,3.0,78.0,39.0,156.0,195.0,234.0,117.0,white,triangle
0.0,8.0,4.0,1.0,7.0,2.0,1615.3368519999276,4.0,1.0,part_3,go,0.0,0.0,0.0,170.0,5.0,204.0,170.0,136.0,102.0,34.0,68.0,green,circle
0.0,3.0,3.0,0.0,7.0,6.0,2151.600223999594,4.0,1.0,part_3,go,0.0,0.0,0.0,196.0,4.0,294.0,98.0,147.0,245.0,49.0,196.0,magenta,flipped triangle
0.0,6.0,2.0,1.0,7.0,2.0,1079.1947540001274,4.0,1.0,part_3,go,0.0,0.0,0.0,132.0,3.0,264.0,132.0,44.0,88.0,220.0,176.0,yellow,I
0.0,1.0,1.0,0.0,7.0,2.0,1627.2093800007497,4.0,1.0,part_3,go,0.0,0.0,0.0,98.0,2.0,196.0,98.0,49.0,147.0,294.0,245.0,blue,hexagon
