raw_reward_magnitude,stim_reward,stepwise_reward_magnitude,paired_with_stopping,stim_location,response,reaction_time,block,num_trial_presentations,which_phase,stop_signal_trial_type,left_SSD,right_SSD,accuracy,chosen_bidding_amount,chosen_bidding_level,possible_bid_1,possible_bid_2,possible_bid_3,possible_bid_4,possible_bid_5,possible_bid_6,color_text,shape_text
389.0,4.0,4.0,0.0,2.0,2.0,430.136518999916,1.0,1.0,phase_1,,,,,,,,,,,,,blue,triangle
423.0,8.0,4.0,1.0,1.0,1.0,340.7793609999316,1.0,1.0,phase_1,,,,,,,,,,,,,green,cross
0.0,1.0,0.0,0.0,2.0,2.0,393.7489679999544,1.0,1.0,phase_1,,,,,,,,,,,,,yellow,diamond
0.0,7.0,0.0,1.0,2.0,2.0,426.3155869998627,1.0,1.0,phase_1,,,,,,,,,,,,,cyan,square
190.0,7.0,2.0,1.0,2.0,2.0,400.2160260001801,1.0,1.0,phase_1,,,,,,,,,,,,,cyan,square
61.0,1.0,0.5,0.0,2.0,2.0,333.6265170000843,1.0,1.0,phase_1,,,,,,,,,,,,,yellow,diamond
415.0,4.0,4.0,0.0,1.0,1.0,365.2169029999186,1.0,1.0,phase_1,,,,,,,,,,,,,blue,triangle
186.0,7.0,2.0,1.0,4.0,4.0,409.9870109998846,1.0,1.0,phase_1,,,,,,,,,,,,,cyan,square
45.0,5.0,0.5,1.0,1.0,1.0,407.6643829998829,1.0,1.0,phase_1,,,,,,,,,,,,,gray,I
0.0,5.0,0.0,1.0,2.0,2.0,386.2564750002093,1.0,1.0,phase_1,,,,,,,,,,,,,gray,I
410.0,4.0,4.0,0.0,1.0,1.0,385.545688999855,1.0,1.0,phase_1,,,,,,,,,,,,,blue,triangle
84.0,6.0,1.0,1.0,3.0,3.0,464.6681489998627,1.0,1.0,phase_1,,,,,,,,,,,,,magenta,circle
400.0,4.0,4.0,0.0,4.0,4.0,374.9227020000489,1.0,1.0,phase_1,,,,,,,,,,,,,blue,triangle
83.0,2.0,1.0,0.0,1.0,1.0,381.2086609998459,1.0,1.0,phase_1,,,,,,,,,,,,,white,hexagon
390.0,8.0,4.0,1.0,1.0,1.0,342.3656159998245,1.0,1.0,phase_1,,,,,,,,,,,,,green,cross
0.0,1.0,0.0,0.0,3.0,3.0,333.1320620000042,1.0,1.0,phase_1,,,,,,,,,,,,,yellow,diamond
105.0,6.0,1.0,1.0,2.0,2.0,362.76044600003837,1.0,1.0,phase_1,,,,,,,,,,,,,magenta,circle
177.0,3.0,2.0,0.0,2.0,2.0,493.694866999931,1.0,1.0,phase_1,,,,,,,,,,,,,orange,flipped triangle
181.0,3.0,2.0,0.0,2.0,2.0,373.1636840000192,1.0,1.0,phase_1,,,,,,,,,,,,,orange,flipped triangle
383.0,8.0,4.0,1.0,3.0,3.0,367.2641919999933,1.0,1.0,phase_1,,,,,,,,,,,,,green,cross
193.0,3.0,2.0,0.0,3.0,3.0,440.9177129998625,1.0,1.0,phase_1,,,,,,,,,,,,,orange,flipped triangle
0.0,7.0,0.0,1.0,4.0,4.0,401.0700389999329,1.0,1.0,phase_1,,,,,,,,,,,,,cyan,square
421.0,8.0,4.0,1.0,2.0,2.0,426.7079559999729,1.0,1.0,phase_1,,,,,,,,,,,,,green,cross
70.0,1.0,0.5,0.0,1.0,1.0,386.9093739999698,1.0,1.0,phase_1,,,,,,,,,,,,,yellow,diamond
119.0,2.0,1.0,0.0,3.0,3.0,376.1062650000895,1.0,1.0,phase_1,,,,,,,,,,,,,white,hexagon
96.0,2.0,1.0,0.0,3.0,3.0,408.8473310000609,1.0,1.0,phase_1,,,,,,,,,,,,,white,hexagon
0.0,2.0,0.0,0.0,1.0,1.0,401.4271340001869,1.0,1.0,phase_1,,,,,,,,,,,,,white,hexagon
0.0,1.0,0.0,0.0,4.0,4.0,358.0507110000326,1.0,1.0,phase_1,,,,,,,,,,,,,yellow,diamond
53.0,5.0,0.5,1.0,4.0,4.0,408.0807880000066,1.0,1.0,phase_1,,,,,,,,,,,,,gray,I
0.0,2.0,0.0,0.0,1.0,1.0,366.6028380000625,1.0,1.0,phase_1,,,,,,,,,,,,,white,hexagon
125.0,2.0,1.0,0.0,3.0,3.0,323.7720229999468,1.0,1.0,phase_1,,,,,,,,,,,,,white,hexagon
39.0,5.0,0.5,1.0,2.0,2.0,374.4971389999136,1.0,1.0,phase_1,,,,,,,,,,,,,gray,I
184.0,7.0,2.0,1.0,2.0,2.0,399.5720790001087,1.0,1.0,phase_1,,,,,,,,,,,,,cyan,square
380.0,4.0,4.0,0.0,1.0,1.0,345.3759530000297,1.0,1.0,phase_1,,,,,,,,,,,,,blue,triangle
123.0,2.0,1.0,0.0,1.0,1.0,367.2493950000444,1.0,1.0,phase_1,,,,,,,,,,,,,white,hexagon
0.0,4.0,0.0,0.0,4.0,4.0,390.3976760000205,1.0,1.0,phase_1,,,,,,,,,,,,,blue,triangle
103.0,2.0,1.0,0.0,3.0,3.0,351.1023369999293,1.0,1.0,phase_1,,,,,,,,,,,,,white,hexagon
111.0,6.0,1.0,1.0,4.0,4.0,472.3895490001268,1.0,1.0,phase_1,,,,,,,,,,,,,magenta,circle
101.0,6.0,1.0,1.0,1.0,1.0,297.3888320000242,1.0,1.0,phase_1,,,,,,,,,,,,,magenta,circle
41.0,5.0,0.5,1.0,1.0,1.0,333.2840179998584,1.0,1.0,phase_1,,,,,,,,,,,,,gray,I
120.0,2.0,1.0,0.0,1.0,1.0,342.5507370000105,1.0,1.0,phase_1,,,,,,,,,,,,,white,hexagon
61.0,5.0,0.5,1.0,4.0,4.0,403.8004270000783,1.0,1.0,phase_1,,,,,,,,,,,,,gray,I
0.0,4.0,0.0,0.0,4.0,4.0,354.3204150000747,1.0,1.0,phase_1,,,,,,,,,,,,,blue,triangle
216.0,3.0,2.0,0.0,1.0,1.0,341.3039819999994,1.0,1.0,phase_1,,,,,,,,,,,,,orange,flipped triangle
400.0,8.0,4.0,1.0,3.0,3.0,356.96531899998257,1.0,1.0,phase_1,,,,,,,,,,,,,green,cross
217.0,7.0,2.0,1.0,4.0,4.0,347.9818700000123,1.0,1.0,phase_1,,,,,,,,,,,,,cyan,square
0.0,1.0,0.0,0.0,2.0,2.0,547.7347369999279,1.0,2.0,phase_1,,,,,,,,,,,,,yellow,diamond
87.0,2.0,1.0,0.0,1.0,1.0,400.7290040001408,1.0,1.0,phase_1,,,,,,,,,,,,,white,hexagon
212.0,3.0,2.0,0.0,3.0,3.0,344.3317989999741,1.0,1.0,phase_1,,,,,,,,,,,,,orange,flipped triangle
34.0,1.0,0.5,0.0,3.0,3.0,376.1687589999383,1.0,1.0,phase_1,,,,,,,,,,,,,yellow,diamond
211.0,7.0,2.0,1.0,3.0,3.0,378.9760669999396,1.0,1.0,phase_1,,,,,,,,,,,,,cyan,square
0.0,6.0,0.0,1.0,3.0,3.0,337.8544489999058,1.0,1.0,phase_1,,,,,,,,,,,,,magenta,circle
194.0,7.0,2.0,1.0,3.0,3.0,359.3249339999147,1.0,1.0,phase_1,,,,,,,,,,,,,cyan,square
0.0,4.0,0.0,0.0,3.0,3.0,397.7896499998223,1.0,1.0,phase_1,,,,,,,,,,,,,blue,triangle
208.0,3.0,2.0,0.0,4.0,4.0,309.2182339998999,1.0,1.0,phase_1,,,,,,,,,,,,,orange,flipped triangle
85.0,2.0,1.0,0.0,4.0,4.0,469.5104800000536,1.0,1.0,phase_1,,,,,,,,,,,,,white,hexagon
90.0,6.0,1.0,1.0,3.0,3.0,363.2762450001792,1.0,1.0,phase_1,,,,,,,,,,,,,magenta,circle
51.0,5.0,0.5,1.0,2.0,2.0,389.6064569998998,1.0,1.0,phase_1,,,,,,,,,,,,,gray,I
410.0,8.0,4.0,1.0,1.0,1.0,393.7446110001019,1.0,1.0,phase_1,,,,,,,,,,,,,green,cross
224.0,7.0,2.0,1.0,3.0,3.0,355.4904289999285,1.0,1.0,phase_1,,,,,,,,,,,,,cyan,square
57.0,1.0,0.5,0.0,2.0,2.0,375.8695750000242,1.0,1.0,phase_1,,,,,,,,,,,,,yellow,diamond
187.0,3.0,2.0,0.0,1.0,1.0,427.4727239999265,1.0,1.0,phase_1,,,,,,,,,,,,,orange,flipped triangle
424.0,4.0,4.0,0.0,2.0,2.0,371.5694799998346,1.0,1.0,phase_1,,,,,,,,,,,,,blue,triangle
68.0,1.0,0.5,0.0,1.0,1.0,361.4981159998933,1.0,1.0,phase_1,,,,,,,,,,,,,yellow,diamond
390.0,4.0,4.0,0.0,4.0,4.0,427.3597530000188,1.0,1.0,phase_1,,,,,,,,,,,,,blue,triangle
103.0,6.0,1.0,1.0,1.0,1.0,384.5476369999687,1.0,1.0,phase_1,,,,,,,,,,,,,magenta,circle
0.0,1.0,0.0,0.0,4.0,4.0,357.87470199989,1.0,1.0,phase_1,,,,,,,,,,,,,yellow,diamond
201.0,3.0,2.0,0.0,2.0,2.0,401.1433659998147,1.0,1.0,phase_1,,,,,,,,,,,,,orange,flipped triangle
400.0,8.0,4.0,1.0,1.0,1.0,366.7219049998493,1.0,1.0,phase_1,,,,,,,,,,,,,green,cross
205.0,3.0,2.0,0.0,1.0,1.0,343.713973000149,1.0,1.0,phase_1,,,,,,,,,,,,,orange,flipped triangle
100.0,6.0,1.0,1.0,1.0,1.0,319.9711839999963,1.0,1.0,phase_1,,,,,,,,,,,,,magenta,circle
378.0,4.0,4.0,0.0,1.0,1.0,324.9084799999764,1.0,1.0,phase_1,,,,,,,,,,,,,blue,triangle
39.0,1.0,0.5,0.0,4.0,4.0,372.4455459998808,1.0,1.0,phase_1,,,,,,,,,,,,,yellow,diamond
0.0,7.0,0.0,1.0,3.0,3.0,376.2305059999562,1.0,1.0,phase_1,,,,,,,,,,,,,cyan,square
125.0,6.0,1.0,1.0,2.0,2.0,405.6906140001501,1.0,1.0,phase_1,,,,,,,,,,,,,magenta,circle
188.0,7.0,2.0,1.0,2.0,2.0,374.9110919998202,1.0,1.0,phase_1,,,,,,,,,,,,,cyan,square
415.0,8.0,4.0,1.0,3.0,3.0,362.8814240000793,1.0,1.0,phase_1,,,,,,,,,,,,,green,cross
89.0,6.0,1.0,1.0,4.0,4.0,338.2790200000727,1.0,1.0,phase_1,,,,,,,,,,,,,magenta,circle
211.0,3.0,2.0,0.0,3.0,3.0,367.5557789999857,1.0,1.0,phase_1,,,,,,,,,,,,,orange,flipped triangle
31.0,1.0,0.5,0.0,4.0,4.0,343.7749839999924,1.0,1.0,phase_1,,,,,,,,,,,,,yellow,diamond
396.0,8.0,4.0,1.0,1.0,1.0,336.848732999897,1.0,1.0,phase_1,,,,,,,,,,,,,green,cross
54.0,5.0,0.5,1.0,2.0,2.0,408.2808630000727,1.0,1.0,phase_1,,,,,,,,,,,,,gray,I
211.0,7.0,2.0,1.0,4.0,4.0,326.8443509998633,1.0,1.0,phase_1,,,,,,,,,,,,,cyan,square
111.0,6.0,1.0,1.0,2.0,2.0,319.2121220001809,1.0,1.0,phase_1,,,,,,,,,,,,,magenta,circle
0.0,3.0,0.0,0.0,2.0,2.0,400.141000999838,1.0,1.0,phase_1,,,,,,,,,,,,,orange,flipped triangle
403.0,8.0,4.0,1.0,2.0,2.0,402.7248700001564,1.0,1.0,phase_1,,,,,,,,,,,,,green,cross
396.0,4.0,4.0,0.0,4.0,4.0,384.9752339999668,1.0,1.0,phase_1,,,,,,,,,,,,,blue,triangle
90.0,6.0,1.0,1.0,4.0,4.0,438.2483460001367,1.0,1.0,phase_1,,,,,,,,,,,,,magenta,circle
0.0,4.0,0.0,0.0,2.0,2.0,448.2063370001015,1.0,1.0,phase_1,,,,,,,,,,,,,blue,triangle
68.0,5.0,0.5,1.0,3.0,3.0,379.889976999948,1.0,1.0,phase_1,,,,,,,,,,,,,gray,I
116.0,2.0,1.0,0.0,4.0,4.0,378.9146480000909,1.0,1.0,phase_1,,,,,,,,,,,,,white,hexagon
53.0,1.0,0.5,0.0,4.0,4.0,373.7322929998754,1.0,1.0,phase_1,,,,,,,,,,,,,yellow,diamond
78.0,6.0,1.0,1.0,2.0,2.0,360.5450269999437,1.0,1.0,phase_1,,,,,,,,,,,,,magenta,circle
391.0,4.0,4.0,0.0,1.0,1.0,421.9298780001281,1.0,1.0,phase_1,,,,,,,,,,,,,blue,triangle
35.0,5.0,0.5,1.0,4.0,4.0,369.4851750001362,1.0,1.0,phase_1,,,,,,,,,,,,,gray,I
100.0,2.0,1.0,0.0,3.0,3.0,546.3642800000343,1.0,1.0,phase_1,,,,,,,,,,,,,white,hexagon
400.0,4.0,4.0,0.0,2.0,2.0,432.1958209998229,1.0,1.0,phase_1,,,,,,,,,,,,,blue,triangle
188.0,7.0,2.0,1.0,3.0,3.0,401.9070570000167,1.0,1.0,phase_1,,,,,,,,,,,,,cyan,square
87.0,6.0,1.0,1.0,2.0,2.0,315.7642500000293,1.0,1.0,phase_1,,,,,,,,,,,,,magenta,circle
53.0,1.0,0.5,0.0,2.0,2.0,305.7601979999162,1.0,1.0,phase_1,,,,,,,,,,,,,yellow,diamond
96.0,6.0,1.0,1.0,3.0,3.0,361.3626999999724,2.0,1.0,phase_1,,,,,,,,,,,,,magenta,circle
413.0,8.0,4.0,1.0,4.0,4.0,402.007741000034,2.0,1.0,phase_1,,,,,,,,,,,,,green,cross
177.0,7.0,2.0,1.0,2.0,2.0,348.4702499999912,2.0,1.0,phase_1,,,,,,,,,,,,,cyan,square
0.0,1.0,0.0,0.0,2.0,2.0,402.1302950000063,2.0,1.0,phase_1,,,,,,,,,,,,,yellow,diamond
423.0,4.0,4.0,0.0,3.0,3.0,369.5891499999106,2.0,1.0,phase_1,,,,,,,,,,,,,blue,triangle
224.0,7.0,2.0,1.0,1.0,1.0,325.1793310000721,2.0,1.0,phase_1,,,,,,,,,,,,,cyan,square
108.0,2.0,1.0,0.0,4.0,4.0,323.4943939999084,2.0,1.0,phase_1,,,,,,,,,,,,,white,hexagon
57.0,5.0,0.5,1.0,2.0,2.0,368.0789329998788,2.0,1.0,phase_1,,,,,,,,,,,,,gray,I
386.0,8.0,4.0,1.0,3.0,3.0,365.2730169999358,2.0,1.0,phase_1,,,,,,,,,,,,,green,cross
0.0,8.0,0.0,1.0,4.0,4.0,418.0700709998746,2.0,1.0,phase_1,,,,,,,,,,,,,green,cross
64.0,1.0,0.5,0.0,4.0,4.0,335.0959639999473,2.0,1.0,phase_1,,,,,,,,,,,,,yellow,diamond
53.0,5.0,0.5,1.0,4.0,4.0,382.4019520000092,2.0,1.0,phase_1,,,,,,,,,,,,,gray,I
0.0,3.0,0.0,0.0,3.0,3.0,345.9600189999037,2.0,1.0,phase_1,,,,,,,,,,,,,orange,flipped triangle
207.0,7.0,2.0,1.0,3.0,3.0,350.9528590000172,2.0,1.0,phase_1,,,,,,,,,,,,,cyan,square
224.0,3.0,2.0,0.0,2.0,2.0,355.7096560000445,2.0,1.0,phase_1,,,,,,,,,,,,,orange,flipped triangle
77.0,2.0,1.0,0.0,4.0,4.0,329.8731739998857,2.0,1.0,phase_1,,,,,,,,,,,,,white,hexagon
180.0,3.0,2.0,0.0,2.0,2.0,363.7425510000867,2.0,1.0,phase_1,,,,,,,,,,,,,orange,flipped triangle
221.0,3.0,2.0,0.0,3.0,3.0,343.004424000128,2.0,1.0,phase_1,,,,,,,,,,,,,orange,flipped triangle
223.0,7.0,2.0,1.0,4.0,4.0,320.9612090001883,2.0,1.0,phase_1,,,,,,,,,,,,,cyan,square
40.0,5.0,0.5,1.0,4.0,4.0,365.463630000022,2.0,1.0,phase_1,,,,,,,,,,,,,gray,I
0.0,7.0,0.0,1.0,2.0,2.0,323.1821239999135,2.0,1.0,phase_1,,,,,,,,,,,,,cyan,square
403.0,4.0,4.0,0.0,2.0,2.0,396.1712029999944,2.0,1.0,phase_1,,,,,,,,,,,,,blue,triangle
64.0,5.0,0.5,1.0,2.0,2.0,386.3686360000429,2.0,1.0,phase_1,,,,,,,,,,,,,gray,I
32.0,5.0,0.5,1.0,3.0,3.0,324.3533879999631,2.0,1.0,phase_1,,,,,,,,,,,,,gray,I
0.0,5.0,0.0,1.0,3.0,3.0,394.1278009999678,2.0,1.0,phase_1,,,,,,,,,,,,,gray,I
87.0,2.0,1.0,0.0,2.0,2.0,383.4868229998847,2.0,1.0,phase_1,,,,,,,,,,,,,white,hexagon
31.0,5.0,0.5,1.0,3.0,3.0,397.4811130001399,2.0,1.0,phase_1,,,,,,,,,,,,,gray,I
421.0,8.0,4.0,1.0,3.0,3.0,393.8894560001245,2.0,1.0,phase_1,,,,,,,,,,,,,green,cross
213.0,7.0,2.0,1.0,4.0,4.0,353.2361170000513,2.0,1.0,phase_1,,,,,,,,,,,,,cyan,square
90.0,2.0,1.0,0.0,2.0,2.0,339.0404510000735,2.0,1.0,phase_1,,,,,,,,,,,,,white,hexagon
410.0,8.0,4.0,1.0,3.0,3.0,346.7134539998824,2.0,1.0,phase_1,,,,,,,,,,,,,green,cross
37.0,5.0,0.5,1.0,4.0,4.0,356.1834180000005,2.0,1.0,phase_1,,,,,,,,,,,,,gray,I
208.0,3.0,2.0,0.0,4.0,4.0,394.2265870000483,2.0,1.0,phase_1,,,,,,,,,,,,,orange,flipped triangle
54.0,1.0,0.5,0.0,2.0,2.0,388.3554569999887,2.0,1.0,phase_1,,,,,,,,,,,,,yellow,diamond
383.0,4.0,4.0,0.0,4.0,4.0,398.6327220000021,2.0,1.0,phase_1,,,,,,,,,,,,,blue,triangle
123.0,2.0,1.0,0.0,2.0,2.0,369.8065819999101,2.0,1.0,phase_1,,,,,,,,,,,,,white,hexagon
186.0,7.0,2.0,1.0,1.0,1.0,415.8941420000701,2.0,1.0,phase_1,,,,,,,,,,,,,cyan,square
177.0,3.0,2.0,0.0,1.0,1.0,358.573589000116,2.0,1.0,phase_1,,,,,,,,,,,,,orange,flipped triangle
412.0,4.0,4.0,0.0,2.0,2.0,363.4155700001429,2.0,1.0,phase_1,,,,,,,,,,,,,blue,triangle
421.0,4.0,4.0,0.0,4.0,4.0,340.8201830000053,2.0,1.0,phase_1,,,,,,,,,,,,,blue,triangle
209.0,7.0,2.0,1.0,1.0,1.0,317.2803229999772,2.0,1.0,phase_1,,,,,,,,,,,,,cyan,square
77.0,6.0,1.0,1.0,2.0,2.0,315.6978649999473,2.0,1.0,phase_1,,,,,,,,,,,,,magenta,circle
0.0,2.0,0.0,0.0,2.0,2.0,436.6657049999958,2.0,2.0,phase_1,,,,,,,,,,,,,white,hexagon
78.0,6.0,1.0,1.0,4.0,4.0,471.7509890001565,2.0,2.0,phase_1,,,,,,,,,,,,,magenta,circle
207.0,3.0,2.0,0.0,1.0,1.0,433.1480999999257,2.0,1.0,phase_1,,,,,,,,,,,,,orange,flipped triangle
408.0,4.0,4.0,0.0,3.0,3.0,395.7512060001136,2.0,1.0,phase_1,,,,,,,,,,,,,blue,triangle
225.0,3.0,2.0,0.0,3.0,3.0,393.0766030000541,2.0,1.0,phase_1,,,,,,,,,,,,,orange,flipped triangle
64.0,1.0,0.5,0.0,3.0,3.0,398.52165100001,2.0,1.0,phase_1,,,,,,,,,,,,,yellow,diamond
223.0,3.0,2.0,0.0,3.0,3.0,413.7995569999475,2.0,1.0,phase_1,,,,,,,,,,,,,orange,flipped triangle
420.0,8.0,4.0,1.0,3.0,3.0,421.4627060000566,2.0,1.0,phase_1,,,,,,,,,,,,,green,cross
204.0,3.0,2.0,0.0,1.0,1.0,487.6669980001225,2.0,1.0,phase_1,,,,,,,,,,,,,orange,flipped triangle
0.0,8.0,0.0,1.0,1.0,1.0,413.487841999995,2.0,1.0,phase_1,,,,,,,,,,,,,green,cross
45.0,1.0,0.5,0.0,3.0,3.0,438.044206000086,2.0,1.0,phase_1,,,,,,,,,,,,,yellow,diamond
189.0,3.0,2.0,0.0,1.0,1.0,338.9718169999014,2.0,1.0,phase_1,,,,,,,,,,,,,orange,flipped triangle
382.0,8.0,4.0,1.0,1.0,1.0,383.3532209998793,2.0,1.0,phase_1,,,,,,,,,,,,,green,cross
389.0,8.0,4.0,1.0,1.0,1.0,374.9882360000356,2.0,1.0,phase_1,,,,,,,,,,,,,green,cross
90.0,2.0,1.0,0.0,3.0,3.0,501.2104889999591,2.0,1.0,phase_1,,,,,,,,,,,,,white,hexagon
381.0,8.0,4.0,1.0,2.0,2.0,428.7982609998835,2.0,1.0,phase_1,,,,,,,,,,,,,green,cross
408.0,8.0,4.0,1.0,4.0,4.0,334.1000699999767,2.0,1.0,phase_1,,,,,,,,,,,,,green,cross
0.0,2.0,0.0,0.0,4.0,4.0,347.3104950001016,2.0,1.0,phase_1,,,,,,,,,,,,,white,hexagon
0.0,6.0,0.0,1.0,4.0,4.0,355.1726579999013,2.0,1.0,phase_1,,,,,,,,,,,,,magenta,circle
0.0,8.0,0.0,1.0,3.0,3.0,359.8878960001457,2.0,1.0,phase_1,,,,,,,,,,,,,green,cross
94.0,6.0,1.0,1.0,3.0,3.0,402.6408569998239,2.0,1.0,phase_1,,,,,,,,,,,,,magenta,circle
0.0,3.0,0.0,0.0,1.0,1.0,373.6966739998024,2.0,1.0,phase_1,,,,,,,,,,,,,orange,flipped triangle
0.0,5.0,0.0,1.0,4.0,4.0,330.5333039998004,2.0,1.0,phase_1,,,,,,,,,,,,,gray,I
415.0,4.0,4.0,0.0,3.0,3.0,390.8290089998445,2.0,1.0,phase_1,,,,,,,,,,,,,blue,triangle
78.0,2.0,1.0,0.0,2.0,2.0,417.2115510000367,2.0,1.0,phase_1,,,,,,,,,,,,,white,hexagon
29.0,1.0,0.5,0.0,2.0,2.0,448.3499090001714,2.0,1.0,phase_1,,,,,,,,,,,,,yellow,diamond
68.0,1.0,0.5,0.0,4.0,4.0,491.4999359998546,2.0,1.0,phase_1,,,,,,,,,,,,,yellow,diamond
0.0,3.0,0.0,0.0,4.0,4.0,403.8669149999805,2.0,1.0,phase_1,,,,,,,,,,,,,orange,flipped triangle
70.0,1.0,0.5,0.0,3.0,3.0,369.9464100000114,2.0,1.0,phase_1,,,,,,,,,,,,,yellow,diamond
121.0,6.0,1.0,1.0,4.0,4.0,407.2653749999517,2.0,1.0,phase_1,,,,,,,,,,,,,magenta,circle
47.0,5.0,0.5,1.0,1.0,1.0,367.5385200003802,2.0,1.0,phase_1,,,,,,,,,,,,,gray,I
0.0,4.0,0.0,0.0,2.0,2.0,409.8352239998348,2.0,1.0,phase_1,,,,,,,,,,,,,blue,triangle
0.0,5.0,0.0,1.0,1.0,1.0,387.9076709999935,2.0,1.0,phase_1,,,,,,,,,,,,,gray,I
51.0,5.0,0.5,1.0,2.0,2.0,433.5762489999979,2.0,1.0,phase_1,,,,,,,,,,,,,gray,I
197.0,3.0,2.0,0.0,4.0,4.0,388.5142379999706,2.0,1.0,phase_1,,,,,,,,,,,,,orange,flipped triangle
177.0,3.0,2.0,0.0,1.0,1.0,359.0367669999068,2.0,1.0,phase_1,,,,,,,,,,,,,orange,flipped triangle
70.0,5.0,0.5,1.0,4.0,4.0,365.1069180000377,2.0,1.0,phase_1,,,,,,,,,,,,,gray,I
212.0,7.0,2.0,1.0,4.0,4.0,360.9970379998231,2.0,1.0,phase_1,,,,,,,,,,,,,cyan,square
116.0,6.0,1.0,1.0,3.0,3.0,366.8213589999141,2.0,1.0,phase_1,,,,,,,,,,,,,magenta,circle
0.0,2.0,0.0,0.0,4.0,4.0,388.9826839999841,2.0,1.0,phase_1,,,,,,,,,,,,,white,hexagon
413.0,4.0,4.0,0.0,1.0,1.0,406.6138950001914,2.0,1.0,phase_1,,,,,,,,,,,,,blue,triangle
59.0,5.0,0.5,1.0,3.0,3.0,396.4613739999549,2.0,1.0,phase_1,,,,,,,,,,,,,gray,I
424.0,8.0,4.0,1.0,4.0,4.0,368.8506240000606,2.0,1.0,phase_1,,,,,,,,,,,,,green,cross
403.0,4.0,4.0,0.0,3.0,3.0,350.5360049998671,2.0,1.0,phase_1,,,,,,,,,,,,,blue,triangle
0.0,1.0,0.0,0.0,1.0,1.0,391.288933999931,2.0,1.0,phase_1,,,,,,,,,,,,,yellow,diamond
116.0,2.0,1.0,0.0,2.0,2.0,353.5237890000644,2.0,1.0,phase_1,,,,,,,,,,,,,white,hexagon
68.0,5.0,0.5,1.0,3.0,3.0,520.1907610003218,2.0,1.0,phase_1,,,,,,,,,,,,,gray,I
123.0,6.0,1.0,1.0,3.0,3.0,380.4558820002057,2.0,1.0,phase_1,,,,,,,,,,,,,magenta,circle
0.0,4.0,0.0,0.0,3.0,3.0,330.9190220002165,2.0,1.0,phase_1,,,,,,,,,,,,,blue,triangle
71.0,1.0,0.5,0.0,1.0,1.0,412.1434990001944,2.0,1.0,phase_1,,,,,,,,,,,,,yellow,diamond
35.0,5.0,0.5,1.0,4.0,4.0,332.0699320001949,2.0,1.0,phase_1,,,,,,,,,,,,,gray,I
42.0,1.0,0.5,0.0,4.0,4.0,370.0041740003144,2.0,1.0,phase_1,,,,,,,,,,,,,yellow,diamond
187.0,7.0,2.0,1.0,2.0,2.0,365.055669999947,2.0,1.0,phase_1,,,,,,,,,,,,,cyan,square
208.0,7.0,2.0,1.0,1.0,1.0,368.387444000291,2.0,1.0,phase_1,,,,,,,,,,,,,cyan,square
49.0,1.0,0.5,0.0,3.0,3.0,366.544549000082,2.0,1.0,phase_1,,,,,,,,,,,,,yellow,diamond
204.0,7.0,2.0,1.0,4.0,4.0,406.8998249999822,2.0,1.0,phase_1,,,,,,,,,,,,,cyan,square
186.0,3.0,2.0,0.0,4.0,4.0,458.3191579999948,2.0,1.0,phase_1,,,,,,,,,,,,,orange,flipped triangle
0.0,7.0,0.0,1.0,1.0,1.0,456.4923869997983,2.0,1.0,phase_1,,,,,,,,,,,,,cyan,square
51.0,1.0,0.5,0.0,2.0,2.0,432.2379039999759,3.0,1.0,phase_1,,,,,,,,,,,,,yellow,diamond
0.0,3.0,0.0,0.0,3.0,3.0,295.5065549999744,3.0,1.0,phase_1,,,,,,,,,,,,,orange,flipped triangle
391.0,4.0,4.0,0.0,2.0,2.0,443.4132440001121,3.0,1.0,phase_1,,,,,,,,,,,,,blue,triangle
0.0,7.0,0.0,1.0,4.0,4.0,382.979355000316,3.0,1.0,phase_1,,,,,,,,,,,,,cyan,square
208.0,7.0,2.0,1.0,4.0,4.0,457.5337370001762,3.0,1.0,phase_1,,,,,,,,,,,,,cyan,square
42.0,5.0,0.5,1.0,1.0,1.0,422.6791470000535,3.0,1.0,phase_1,,,,,,,,,,,,,gray,I
95.0,2.0,1.0,0.0,4.0,4.0,431.7617920000884,3.0,1.0,phase_1,,,,,,,,,,,,,white,hexagon
200.0,3.0,2.0,0.0,3.0,3.0,376.9125229996461,3.0,1.0,phase_1,,,,,,,,,,,,,orange,flipped triangle
382.0,4.0,4.0,0.0,4.0,4.0,410.5300320002243,3.0,1.0,phase_1,,,,,,,,,,,,,blue,triangle
0.0,5.0,0.0,1.0,4.0,4.0,375.272447000043,3.0,1.0,phase_1,,,,,,,,,,,,,gray,I
0.0,8.0,0.0,1.0,1.0,1.0,380.8847509999395,3.0,1.0,phase_1,,,,,,,,,,,,,green,cross
0.0,2.0,0.0,0.0,3.0,3.0,357.8042280000773,3.0,1.0,phase_1,,,,,,,,,,,,,white,hexagon
225.0,7.0,2.0,1.0,3.0,3.0,378.2354520003537,3.0,1.0,phase_1,,,,,,,,,,,,,cyan,square
408.0,8.0,4.0,1.0,4.0,4.0,375.3872209999827,3.0,1.0,phase_1,,,,,,,,,,,,,green,cross
0.0,8.0,0.0,1.0,1.0,1.0,396.5261299999838,3.0,1.0,phase_1,,,,,,,,,,,,,green,cross
0.0,6.0,0.0,1.0,3.0,3.0,312.7756359999694,3.0,1.0,phase_1,,,,,,,,,,,,,magenta,circle
35.0,1.0,0.5,0.0,2.0,2.0,330.9790180001073,3.0,1.0,phase_1,,,,,,,,,,,,,yellow,diamond
111.0,2.0,1.0,0.0,2.0,2.0,364.4174559999555,3.0,1.0,phase_1,,,,,,,,,,,,,white,hexagon
383.0,4.0,4.0,0.0,4.0,4.0,527.1261890002279,3.0,1.0,phase_1,,,,,,,,,,,,,blue,triangle
81.0,6.0,1.0,1.0,1.0,1.0,367.5153630001659,3.0,1.0,phase_1,,,,,,,,,,,,,magenta,circle
379.0,8.0,4.0,1.0,2.0,2.0,347.2418940000352,3.0,1.0,phase_1,,,,,,,,,,,,,green,cross
390.0,4.0,4.0,0.0,1.0,1.0,394.5210809997661,3.0,1.0,phase_1,,,,,,,,,,,,,blue,triangle
192.0,7.0,2.0,1.0,2.0,2.0,485.4415969998626,3.0,1.0,phase_1,,,,,,,,,,,,,cyan,square
35.0,1.0,0.5,0.0,1.0,1.0,458.2445989999542,3.0,1.0,phase_1,,,,,,,,,,,,,yellow,diamond
71.0,1.0,0.5,0.0,3.0,3.0,325.9942360000423,3.0,1.0,phase_1,,,,,,,,,,,,,yellow,diamond
209.0,3.0,2.0,0.0,1.0,1.0,359.182470000178,3.0,1.0,phase_1,,,,,,,,,,,,,orange,flipped triangle
0.0,6.0,0.0,1.0,1.0,1.0,329.0510840001843,3.0,1.0,phase_1,,,,,,,,,,,,,magenta,circle
414.0,4.0,4.0,0.0,4.0,4.0,354.8656490002031,3.0,1.0,phase_1,,,,,,,,,,,,,blue,triangle
410.0,4.0,4.0,0.0,2.0,2.0,343.6841950001508,3.0,1.0,phase_1,,,,,,,,,,,,,blue,triangle
216.0,7.0,2.0,1.0,4.0,4.0,369.0934259998357,3.0,1.0,phase_1,,,,,,,,,,,,,cyan,square
0.0,5.0,0.0,1.0,4.0,4.0,465.21240800029767,3.0,2.0,phase_1,,,,,,,,,,,,,gray,I
199.0,7.0,2.0,1.0,2.0,2.0,404.1835019997961,3.0,1.0,phase_1,,,,,,,,,,,,,cyan,square
116.0,6.0,1.0,1.0,4.0,4.0,343.1249969999044,3.0,1.0,phase_1,,,,,,,,,,,,,magenta,circle
83.0,6.0,1.0,1.0,1.0,1.0,391.6841810000733,3.0,1.0,phase_1,,,,,,,,,,,,,magenta,circle
87.0,6.0,1.0,1.0,2.0,2.0,384.5684490001986,3.0,1.0,phase_1,,,,,,,,,,,,,magenta,circle
184.0,3.0,2.0,0.0,3.0,3.0,343.7052430003859,3.0,1.0,phase_1,,,,,,,,,,,,,orange,flipped triangle
415.0,8.0,4.0,1.0,1.0,1.0,342.0640710000953,3.0,1.0,phase_1,,,,,,,,,,,,,green,cross
121.0,2.0,1.0,0.0,1.0,1.0,403.2739909998781,3.0,1.0,phase_1,,,,,,,,,,,,,white,hexagon
389.0,8.0,4.0,1.0,4.0,4.0,392.9358230002435,3.0,1.0,phase_1,,,,,,,,,,,,,green,cross
0.0,8.0,0.0,1.0,3.0,3.0,365.7923969999501,3.0,1.0,phase_1,,,,,,,,,,,,,green,cross
181.0,7.0,2.0,1.0,3.0,3.0,369.3227169997044,3.0,1.0,phase_1,,,,,,,,,,,,,cyan,square
197.0,7.0,2.0,1.0,1.0,1.0,401.2254169997504,3.0,1.0,phase_1,,,,,,,,,,,,,cyan,square
105.0,2.0,1.0,0.0,1.0,1.0,430.4494680000061,3.0,1.0,phase_1,,,,,,,,,,,,,white,hexagon
42.0,5.0,0.5,1.0,3.0,3.0,385.5918720000773,3.0,1.0,phase_1,,,,,,,,,,,,,gray,I
381.0,8.0,4.0,1.0,1.0,1.0,409.6397050002451,3.0,1.0,phase_1,,,,,,,,,,,,,green,cross
0.0,6.0,0.0,1.0,1.0,1.0,498.8307260000511,3.0,1.0,phase_1,,,,,,,,,,,,,magenta,circle
189.0,7.0,2.0,1.0,1.0,1.0,390.7291790001181,3.0,1.0,phase_1,,,,,,,,,,,,,cyan,square
57.0,1.0,0.5,0.0,1.0,1.0,355.7221420001042,3.0,1.0,phase_1,,,,,,,,,,,,,yellow,diamond
0.0,6.0,0.0,1.0,3.0,3.0,368.931887999679,3.0,1.0,phase_1,,,,,,,,,,,,,magenta,circle
83.0,6.0,1.0,1.0,4.0,4.0,369.0900990000045,3.0,1.0,phase_1,,,,,,,,,,,,,magenta,circle
378.0,8.0,4.0,1.0,4.0,4.0,384.1036740000163,3.0,1.0,phase_1,,,,,,,,,,,,,green,cross
0.0,3.0,0.0,0.0,1.0,1.0,403.6414080001123,3.0,1.0,phase_1,,,,,,,,,,,,,orange,flipped triangle
0.0,7.0,0.0,1.0,4.0,4.0,369.8991609999211,3.0,1.0,phase_1,,,,,,,,,,,,,cyan,square
212.0,3.0,2.0,0.0,2.0,2.0,390.9994050000023,3.0,1.0,phase_1,,,,,,,,,,,,,orange,flipped triangle
421.0,4.0,4.0,0.0,3.0,3.0,326.1666939997667,3.0,1.0,phase_1,,,,,,,,,,,,,blue,triangle
211.0,3.0,2.0,0.0,2.0,2.0,389.1087420001895,3.0,1.0,phase_1,,,,,,,,,,,,,orange,flipped triangle
0.0,1.0,0.0,0.0,2.0,2.0,405.4513139999471,3.0,1.0,phase_1,,,,,,,,,,,,,yellow,diamond
0.0,3.0,0.0,0.0,1.0,1.0,346.8302490000496,3.0,1.0,phase_1,,,,,,,,,,,,,orange,flipped triangle
386.0,4.0,4.0,0.0,4.0,4.0,357.9132019999633,3.0,1.0,phase_1,,,,,,,,,,,,,blue,triangle
400.0,4.0,4.0,0.0,3.0,3.0,355.5286350001552,3.0,1.0,phase_1,,,,,,,,,,,,,blue,triangle
35.0,5.0,0.5,1.0,3.0,3.0,389.1688070002601,3.0,1.0,phase_1,,,,,,,,,,,,,gray,I
120.0,6.0,1.0,1.0,1.0,1.0,397.2512469999856,3.0,1.0,phase_1,,,,,,,,,,,,,magenta,circle
68.0,5.0,0.5,1.0,3.0,3.0,402.575299000091,3.0,1.0,phase_1,,,,,,,,,,,,,gray,I
64.0,1.0,0.5,0.0,3.0,3.0,358.6146980001103,3.0,1.0,phase_1,,,,,,,,,,,,,yellow,diamond
199.0,3.0,2.0,0.0,3.0,3.0,516.2370409998402,3.0,1.0,phase_1,,,,,,,,,,,,,orange,flipped triangle
109.0,2.0,1.0,0.0,3.0,3.0,452.2463329999482,3.0,1.0,phase_1,,,,,,,,,,,,,white,hexagon
391.0,8.0,4.0,1.0,2.0,2.0,501.8648350001058,3.0,1.0,phase_1,,,,,,,,,,,,,green,cross
190.0,3.0,2.0,0.0,4.0,4.0,408.5680950001915,3.0,1.0,phase_1,,,,,,,,,,,,,orange,flipped triangle
412.0,8.0,4.0,1.0,3.0,3.0,361.7750100002013,3.0,1.0,phase_1,,,,,,,,,,,,,green,cross
379.0,4.0,4.0,0.0,3.0,3.0,586.7636059997494,3.0,1.0,phase_1,,,,,,,,,,,,,blue,triangle
88.0,6.0,1.0,1.0,3.0,3.0,505.9632719999172,3.0,1.0,phase_1,,,,,,,,,,,,,magenta,circle
213.0,3.0,2.0,0.0,4.0,4.0,382.4475709998296,3.0,1.0,phase_1,,,,,,,,,,,,,orange,flipped triangle
188.0,3.0,2.0,0.0,4.0,4.0,391.448242000024,3.0,1.0,phase_1,,,,,,,,,,,,,orange,flipped triangle
420.0,4.0,4.0,0.0,2.0,2.0,416.5198129999226,3.0,1.0,phase_1,,,,,,,,,,,,,blue,triangle
383.0,8.0,4.0,1.0,3.0,3.0,346.2680820002788,3.0,1.0,phase_1,,,,,,,,,,,,,green,cross
0.0,4.0,0.0,0.0,3.0,3.0,446.3170800004263,3.0,1.0,phase_1,,,,,,,,,,,,,blue,triangle
0.0,5.0,0.0,1.0,4.0,4.0,431.9119860001592,3.0,1.0,phase_1,,,,,,,,,,,,,gray,I
0.0,2.0,0.0,0.0,2.0,2.0,475.7924079999611,3.0,1.0,phase_1,,,,,,,,,,,,,white,hexagon
123.0,6.0,1.0,1.0,2.0,2.0,400.7560999998532,3.0,1.0,phase_1,,,,,,,,,,,,,magenta,circle
217.0,3.0,2.0,0.0,2.0,2.0,410.4950770001778,3.0,1.0,phase_1,,,,,,,,,,,,,orange,flipped triangle
81.0,2.0,1.0,0.0,2.0,2.0,395.0634349998836,3.0,1.0,phase_1,,,,,,,,,,,,,white,hexagon
31.0,1.0,0.5,0.0,2.0,2.0,388.1425219997254,3.0,1.0,phase_1,,,,,,,,,,,,,yellow,diamond
97.0,2.0,1.0,0.0,1.0,1.0,398.9495910000187,3.0,1.0,phase_1,,,,,,,,,,,,,white,hexagon
415.0,8.0,4.0,1.0,4.0,4.0,381.8023700000594,3.0,1.0,phase_1,,,,,,,,,,,,,green,cross
408.0,4.0,4.0,0.0,3.0,3.0,457.9873299999235,3.0,1.0,phase_1,,,,,,,,,,,,,blue,triangle
108.0,2.0,1.0,0.0,3.0,3.0,405.8061179998731,3.0,1.0,phase_1,,,,,,,,,,,,,white,hexagon
37.0,1.0,0.5,0.0,4.0,4.0,379.8633669998708,3.0,1.0,phase_1,,,,,,,,,,,,,yellow,diamond
89.0,2.0,1.0,0.0,1.0,1.0,376.1122910000267,3.0,1.0,phase_1,,,,,,,,,,,,,white,hexagon
0.0,3.0,0.0,0.0,1.0,1.0,338.56578599989,3.0,1.0,phase_1,,,,,,,,,,,,,orange,flipped triangle
92.0,2.0,1.0,0.0,4.0,4.0,522.4223029999848,3.0,1.0,phase_1,,,,,,,,,,,,,white,hexagon
111.0,2.0,1.0,0.0,4.0,4.0,350.7353889999649,3.0,1.0,phase_1,,,,,,,,,,,,,white,hexagon
59.0,1.0,0.5,0.0,3.0,3.0,424.6884310000496,3.0,1.0,phase_1,,,,,,,,,,,,,yellow,diamond
202.0,7.0,2.0,1.0,1.0,1.0,326.3959240002805,3.0,1.0,phase_1,,,,,,,,,,,,,cyan,square
202.0,3.0,2.0,0.0,4.0,4.0,343.333086000257,3.0,1.0,phase_1,,,,,,,,,,,,,orange,flipped triangle
49.0,1.0,0.5,0.0,3.0,3.0,338.1533239999044,3.0,1.0,phase_1,,,,,,,,,,,,,yellow,diamond
108.0,6.0,1.0,1.0,4.0,4.0,382.4273039999752,3.0,1.0,phase_1,,,,,,,,,,,,,magenta,circle
109.0,2.0,1.0,0.0,2.0,2.0,368.2336679999025,3.0,1.0,phase_1,,,,,,,,,,,,,white,hexagon
194.0,3.0,2.0,0.0,2.0,2.0,424.290617999759,3.0,1.0,phase_1,,,,,,,,,,,,,orange,flipped triangle
0.0,6.0,0.0,1.0,1.0,1.0,411.3144329999159,3.0,1.0,phase_1,,,,,,,,,,,,,magenta,circle
0.0,7.0,0.0,1.0,1.0,1.0,378.8127910002004,3.0,1.0,phase_1,,,,,,,,,,,,,cyan,square
92.0,6.0,1.0,1.0,1.0,1.0,447.8573530000176,4.0,1.0,phase_1,,,,,,,,,,,,,magenta,circle
0.0,3.0,0.0,0.0,2.0,2.0,365.5048020000322,4.0,1.0,phase_1,,,,,,,,,,,,,orange,flipped triangle
0.0,2.0,0.0,0.0,4.0,4.0,304.6229589999711,4.0,1.0,phase_1,,,,,,,,,,,,,white,hexagon
390.0,8.0,4.0,1.0,1.0,1.0,390.460910999991,4.0,1.0,phase_1,,,,,,,,,,,,,green,cross
123.0,6.0,1.0,1.0,1.0,1.0,426.3122209999892,4.0,1.0,phase_1,,,,,,,,,,,,,magenta,circle
414.0,8.0,4.0,1.0,4.0,4.0,373.2142250000834,4.0,1.0,phase_1,,,,,,,,,,,,,green,cross
70.0,5.0,0.5,1.0,1.0,1.0,314.4156250000378,4.0,1.0,phase_1,,,,,,,,,,,,,gray,I
0.0,4.0,0.0,0.0,1.0,1.0,407.0034589999523,4.0,1.0,phase_1,,,,,,,,,,,,,blue,triangle
83.0,2.0,1.0,0.0,1.0,1.0,497.8097319999506,4.0,1.0,phase_1,,,,,,,,,,,,,white,hexagon
68.0,1.0,0.5,0.0,4.0,4.0,451.8129410002984,4.0,1.0,phase_1,,,,,,,,,,,,,yellow,diamond
119.0,6.0,1.0,1.0,3.0,3.0,411.6300880000381,4.0,1.0,phase_1,,,,,,,,,,,,,magenta,circle
0.0,7.0,0.0,1.0,3.0,3.0,388.2740499998363,4.0,1.0,phase_1,,,,,,,,,,,,,cyan,square
47.0,1.0,0.5,0.0,4.0,4.0,336.7928089996894,4.0,1.0,phase_1,,,,,,,,,,,,,yellow,diamond
0.0,5.0,0.0,1.0,1.0,1.0,358.3706449999226,4.0,1.0,phase_1,,,,,,,,,,,,,gray,I
87.0,6.0,1.0,1.0,4.0,4.0,376.4443139998548,4.0,1.0,phase_1,,,,,,,,,,,,,magenta,circle
0.0,6.0,0.0,1.0,2.0,2.0,448.186638000152,4.0,1.0,phase_1,,,,,,,,,,,,,magenta,circle
381.0,4.0,4.0,0.0,3.0,3.0,383.699400000296,4.0,1.0,phase_1,,,,,,,,,,,,,blue,triangle
416.0,4.0,4.0,0.0,4.0,4.0,452.1965690000797,4.0,1.0,phase_1,,,,,,,,,,,,,blue,triangle
392.0,8.0,4.0,1.0,2.0,2.0,371.6416070001287,4.0,1.0,phase_1,,,,,,,,,,,,,green,cross
49.0,5.0,0.5,1.0,3.0,3.0,367.5127080000493,4.0,1.0,phase_1,,,,,,,,,,,,,gray,I
64.0,5.0,0.5,1.0,2.0,2.0,431.2164549996851,4.0,1.0,phase_1,,,,,,,,,,,,,gray,I
97.0,6.0,1.0,1.0,3.0,3.0,385.277350999786,4.0,1.0,phase_1,,,,,,,,,,,,,magenta,circle
57.0,1.0,0.5,0.0,1.0,1.0,542.7198649999809,4.0,1.0,phase_1,,,,,,,,,,,,,yellow,diamond
409.0,4.0,4.0,0.0,1.0,1.0,467.9086779997305,4.0,1.0,phase_1,,,,,,,,,,,,,blue,triangle
57.0,5.0,0.5,1.0,4.0,4.0,429.8523190000196,4.0,1.0,phase_1,,,,,,,,,,,,,gray,I
0.0,8.0,0.0,1.0,1.0,1.0,400.862393999887,4.0,1.0,phase_1,,,,,,,,,,,,,green,cross
212.0,7.0,2.0,1.0,2.0,2.0,426.9791450001321,4.0,1.0,phase_1,,,,,,,,,,,,,cyan,square
88.0,2.0,1.0,0.0,3.0,3.0,370.0240890002533,4.0,1.0,phase_1,,,,,,,,,,,,,white,hexagon
380.0,8.0,4.0,1.0,2.0,2.0,614.6169539997572,4.0,1.0,phase_1,,,,,,,,,,,,,green,cross
403.0,8.0,4.0,1.0,2.0,2.0,423.6493440002959,4.0,1.0,phase_1,,,,,,,,,,,,,green,cross
180.0,7.0,2.0,1.0,1.0,1.0,372.3062750000281,4.0,1.0,phase_1,,,,,,,,,,,,,cyan,square
51.0,1.0,0.5,0.0,2.0,2.0,401.2371419998999,4.0,1.0,phase_1,,,,,,,,,,,,,yellow,diamond
400.0,8.0,4.0,1.0,2.0,2.0,402.9482239998287,4.0,1.0,phase_1,,,,,,,,,,,,,green,cross
182.0,3.0,2.0,0.0,1.0,1.0,346.4200180001171,4.0,1.0,phase_1,,,,,,,,,,,,,orange,flipped triangle
0.0,6.0,0.0,1.0,2.0,2.0,396.2520489999406,4.0,1.0,phase_1,,,,,,,,,,,,,magenta,circle
0.0,3.0,0.0,0.0,2.0,2.0,578.3450599997195,4.0,1.0,phase_1,,,,,,,,,,,,,orange,flipped triangle
415.0,4.0,4.0,0.0,1.0,1.0,388.8129289998687,4.0,1.0,phase_1,,,,,,,,,,,,,blue,triangle
193.0,7.0,2.0,1.0,3.0,3.0,436.3179380002293,4.0,1.0,phase_1,,,,,,,,,,,,,cyan,square
391.0,8.0,4.0,1.0,2.0,2.0,384.2303559999891,4.0,1.0,phase_1,,,,,,,,,,,,,green,cross
0.0,5.0,0.0,1.0,4.0,4.0,391.5944240002318,4.0,1.0,phase_1,,,,,,,,,,,,,gray,I
108.0,6.0,1.0,1.0,1.0,1.0,350.3550120003638,4.0,1.0,phase_1,,,,,,,,,,,,,magenta,circle
57.0,5.0,0.5,1.0,2.0,2.0,393.8054430000193,4.0,1.0,phase_1,,,,,,,,,,,,,gray,I
34.0,5.0,0.5,1.0,3.0,3.0,324.9379409999164,4.0,1.0,phase_1,,,,,,,,,,,,,gray,I
177.0,7.0,2.0,1.0,4.0,4.0,380.7239080001636,4.0,1.0,phase_1,,,,,,,,,,,,,cyan,square
29.0,5.0,0.5,1.0,2.0,2.0,361.5125620003709,4.0,1.0,phase_1,,,,,,,,,,,,,gray,I
205.0,7.0,2.0,1.0,2.0,2.0,350.139012999989,4.0,1.0,phase_1,,,,,,,,,,,,,cyan,square
85.0,6.0,1.0,1.0,2.0,2.0,347.3269109999819,4.0,1.0,phase_1,,,,,,,,,,,,,magenta,circle
0.0,5.0,0.0,1.0,1.0,1.0,364.7952810001698,4.0,1.0,phase_1,,,,,,,,,,,,,gray,I
377.0,8.0,4.0,1.0,4.0,4.0,306.6639509997912,4.0,1.0,phase_1,,,,,,,,,,,,,green,cross
109.0,6.0,1.0,1.0,3.0,3.0,395.4090299998825,4.0,1.0,phase_1,,,,,,,,,,,,,magenta,circle
109.0,6.0,1.0,1.0,2.0,2.0,350.3438699999606,4.0,1.0,phase_1,,,,,,,,,,,,,magenta,circle
0.0,2.0,0.0,0.0,2.0,2.0,339.5597979997546,4.0,1.0,phase_1,,,,,,,,,,,,,white,hexagon
221.0,7.0,2.0,1.0,1.0,1.0,360.4153950000182,4.0,1.0,phase_1,,,,,,,,,,,,,cyan,square
71.0,5.0,0.5,1.0,1.0,1.0,465.5639040001915,4.0,1.0,phase_1,,,,,,,,,,,,,gray,I
106.0,2.0,1.0,0.0,1.0,1.0,381.7014960000051,4.0,1.0,phase_1,,,,,,,,,,,,,white,hexagon
40.0,1.0,0.5,0.0,1.0,1.0,415.5299829999421,4.0,1.0,phase_1,,,,,,,,,,,,,yellow,diamond
27.0,5.0,0.5,1.0,1.0,1.0,358.0963399999746,4.0,1.0,phase_1,,,,,,,,,,,,,gray,I
0.0,4.0,0.0,0.0,1.0,1.0,376.82862200017547,4.0,1.0,phase_1,,,,,,,,,,,,,blue,triangle
35.0,1.0,0.5,0.0,3.0,3.0,325.4958010002156,4.0,1.0,phase_1,,,,,,,,,,,,,yellow,diamond
49.0,5.0,0.5,1.0,4.0,4.0,375.2815019997797,4.0,1.0,phase_1,,,,,,,,,,,,,gray,I
0.0,8.0,0.0,1.0,4.0,4.0,365.9575830001813,4.0,1.0,phase_1,,,,,,,,,,,,,green,cross
192.0,3.0,2.0,0.0,4.0,4.0,398.1733180003175,4.0,1.0,phase_1,,,,,,,,,,,,,orange,flipped triangle
381.0,4.0,4.0,0.0,2.0,2.0,446.4946339999187,4.0,1.0,phase_1,,,,,,,,,,,,,blue,triangle
95.0,6.0,1.0,1.0,4.0,4.0,417.872890000126,4.0,1.0,phase_1,,,,,,,,,,,,,magenta,circle
409.0,8.0,4.0,1.0,3.0,3.0,398.6556229997404,4.0,1.0,phase_1,,,,,,,,,,,,,green,cross
188.0,3.0,2.0,0.0,3.0,3.0,400.9462690000873,4.0,1.0,phase_1,,,,,,,,,,,,,orange,flipped triangle
94.0,2.0,1.0,0.0,2.0,2.0,311.3001470001109,4.0,1.0,phase_1,,,,,,,,,,,,,white,hexagon
0.0,4.0,0.0,0.0,3.0,3.0,395.7517419999021,4.0,1.0,phase_1,,,,,,,,,,,,,blue,triangle
224.0,3.0,2.0,0.0,4.0,4.0,375.0048479996621,4.0,1.0,phase_1,,,,,,,,,,,,,orange,flipped triangle
0.0,8.0,0.0,1.0,1.0,1.0,396.8019560002176,4.0,1.0,phase_1,,,,,,,,,,,,,green,cross
101.0,2.0,1.0,0.0,2.0,2.0,437.6042180001604,4.0,1.0,phase_1,,,,,,,,,,,,,white,hexagon
0.0,1.0,0.0,0.0,3.0,3.0,366.6434609999669,4.0,1.0,phase_1,,,,,,,,,,,,,yellow,diamond
64.0,5.0,0.5,1.0,1.0,1.0,356.3510630001474,4.0,1.0,phase_1,,,,,,,,,,,,,gray,I
0.0,1.0,0.0,0.0,4.0,4.0,414.4295500000226,4.0,1.0,phase_1,,,,,,,,,,,,,yellow,diamond
0.0,8.0,0.0,1.0,4.0,4.0,520.1808110000457,4.0,1.0,phase_1,,,,,,,,,,,,,green,cross
57.0,1.0,0.5,0.0,1.0,1.0,527.531688000181,4.0,1.0,phase_1,,,,,,,,,,,,,yellow,diamond
32.0,1.0,0.5,0.0,2.0,2.0,430.8813570000893,4.0,1.0,phase_1,,,,,,,,,,,,,yellow,diamond
182.0,7.0,2.0,1.0,2.0,2.0,437.4723679998169,4.0,1.0,phase_1,,,,,,,,,,,,,cyan,square
84.0,2.0,1.0,0.0,4.0,4.0,387.4759219997941,4.0,1.0,phase_1,,,,,,,,,,,,,white,hexagon
27.0,1.0,0.5,0.0,1.0,1.0,434.1944309999235,4.0,1.0,phase_1,,,,,,,,,,,,,yellow,diamond
123.0,2.0,1.0,0.0,4.0,4.0,348.8522439997723,4.0,1.0,phase_1,,,,,,,,,,,,,white,hexagon
0.0,2.0,0.0,0.0,2.0,2.0,381.7220860000816,4.0,1.0,phase_1,,,,,,,,,,,,,white,hexagon
106.0,6.0,1.0,1.0,1.0,1.0,453.3197609998751,4.0,1.0,phase_1,,,,,,,,,,,,,magenta,circle
0.0,6.0,0.0,1.0,3.0,3.0,496.5066080003453,4.0,1.0,phase_1,,,,,,,,,,,,,magenta,circle
377.0,4.0,4.0,0.0,1.0,1.0,343.583628000033,4.0,1.0,phase_1,,,,,,,,,,,,,blue,triangle
416.0,8.0,4.0,1.0,4.0,4.0,354.7730760001286,4.0,1.0,phase_1,,,,,,,,,,,,,green,cross
57.0,5.0,0.5,1.0,1.0,1.0,403.2081130003462,4.0,1.0,phase_1,,,,,,,,,,,,,gray,I
42.0,1.0,0.5,0.0,1.0,1.0,425.8011970000552,4.0,1.0,phase_1,,,,,,,,,,,,,yellow,diamond
31.0,5.0,0.5,1.0,1.0,1.0,424.5640219996858,4.0,1.0,phase_1,,,,,,,,,,,,,gray,I
177.0,7.0,2.0,1.0,1.0,1.0,388.4512249996987,4.0,1.0,phase_1,,,,,,,,,,,,,cyan,square
41.0,1.0,0.5,0.0,4.0,4.0,609.3725119999363,4.0,1.0,phase_1,,,,,,,,,,,,,yellow,diamond
389.0,4.0,4.0,0.0,2.0,2.0,611.967156999981,4.0,1.0,phase_1,,,,,,,,,,,,,blue,triangle
0.0,7.0,0.0,1.0,2.0,2.0,412.4634779996086,4.0,1.0,phase_1,,,,,,,,,,,,,cyan,square
78.0,2.0,1.0,0.0,4.0,4.0,428.6277320002227,4.0,1.0,phase_1,,,,,,,,,,,,,white,hexagon
87.0,2.0,1.0,0.0,3.0,3.0,345.4254939997554,4.0,1.0,phase_1,,,,,,,,,,,,,white,hexagon
71.0,5.0,0.5,1.0,2.0,2.0,376.8428989997119,4.0,1.0,phase_1,,,,,,,,,,,,,gray,I
186.0,3.0,2.0,0.0,2.0,2.0,392.0195599998806,4.0,1.0,phase_1,,,,,,,,,,,,,orange,flipped triangle
200.0,7.0,2.0,1.0,3.0,3.0,411.12239000040057,4.0,1.0,phase_1,,,,,,,,,,,,,cyan,square
201.0,7.0,2.0,1.0,3.0,3.0,363.607631999912,4.0,1.0,phase_1,,,,,,,,,,,,,cyan,square
392.0,4.0,4.0,0.0,3.0,3.0,374.5483190000414,4.0,1.0,phase_1,,,,,,,,,,,,,blue,triangle
0.0,7.0,2.0,1.0,6.0,6.0,675.790508999853,1.0,1.0,phase_2,go,250.0,250.0,1.0,,,,,,,,,cyan,square
0.0,4.0,4.0,0.0,5.0,5.0,595.0387279999632,1.0,1.0,phase_2,go,250.0,250.0,1.0,,,,,,,,,blue,triangle
0.0,1.0,0.5,0.0,6.0,6.0,466.9754630003808,1.0,1.0,phase_2,go,250.0,250.0,1.0,,,,,,,,,yellow,diamond
0.0,1.0,0.5,0.0,5.0,5.0,538.3861719997185,1.0,1.0,phase_2,go,250.0,250.0,1.0,,,,,,,,,yellow,diamond
0.0,5.0,0.5,1.0,5.0,0.0,0.0,1.0,1.0,phase_2,stop,250.0,250.0,4.0,,,,,,,,,gray,I
0.0,2.0,1.0,0.0,6.0,6.0,559.842093000043,1.0,1.0,phase_2,go,300.0,250.0,1.0,,,,,,,,,white,hexagon
0.0,7.0,2.0,1.0,6.0,0.0,0.0,1.0,1.0,phase_2,stop,300.0,250.0,4.0,,,,,,,,,cyan,square
0.0,2.0,1.0,0.0,5.0,5.0,676.6397470000811,1.0,1.0,phase_2,go,300.0,300.0,1.0,,,,,,,,,white,hexagon
0.0,4.0,4.0,0.0,6.0,6.0,709.670854000251,1.0,1.0,phase_2,go,300.0,300.0,1.0,,,,,,,,,blue,triangle
0.0,6.0,1.0,1.0,5.0,0.0,0.0,1.0,1.0,phase_2,stop,300.0,300.0,4.0,,,,,,,,,magenta,circle
0.0,5.0,0.5,1.0,6.0,6.0,779.3741540003793,1.0,1.0,phase_2,go,350.0,300.0,1.0,,,,,,,,,gray,I
0.0,6.0,1.0,1.0,6.0,0.0,0.0,1.0,1.0,phase_2,stop,350.0,300.0,4.0,,,,,,,,,magenta,circle
0.0,1.0,0.5,0.0,6.0,6.0,621.9287910003004,1.0,1.0,phase_2,go,350.0,350.0,1.0,,,,,,,,,yellow,diamond
0.0,6.0,1.0,1.0,6.0,0.0,0.0,1.0,1.0,phase_2,stop,350.0,350.0,4.0,,,,,,,,,magenta,circle
0.0,3.0,2.0,0.0,5.0,5.0,706.7696590002015,1.0,1.0,phase_2,go,350.0,400.0,1.0,,,,,,,,,orange,flipped triangle
0.0,2.0,1.0,0.0,5.0,5.0,798.3310429999619,1.0,1.0,phase_2,go,350.0,400.0,1.0,,,,,,,,,white,hexagon
0.0,5.0,0.5,1.0,5.0,0.0,0.0,1.0,1.0,phase_2,stop,350.0,400.0,4.0,,,,,,,,,gray,I
0.0,4.0,4.0,0.0,6.0,6.0,650.9363160002977,1.0,1.0,phase_2,go,400.0,400.0,1.0,,,,,,,,,blue,triangle
0.0,8.0,4.0,1.0,6.0,6.0,762.476357000196,1.0,1.0,phase_2,go,400.0,400.0,1.0,,,,,,,,,green,cross
0.0,1.0,0.5,0.0,5.0,5.0,684.3881770000735,1.0,1.0,phase_2,go,400.0,400.0,1.0,,,,,,,,,yellow,diamond
0.0,5.0,0.5,1.0,6.0,0.0,0.0,1.0,1.0,phase_2,stop,400.0,400.0,4.0,,,,,,,,,gray,I
0.0,8.0,4.0,1.0,6.0,6.0,774.462104000122,1.0,1.0,phase_2,go,400.0,450.0,1.0,,,,,,,,,green,cross
0.0,6.0,1.0,1.0,5.0,5.0,867.4994460002381,1.0,1.0,phase_2,go,400.0,450.0,1.0,,,,,,,,,magenta,circle
0.0,6.0,1.0,1.0,6.0,0.0,0.0,1.0,1.0,phase_2,stop,400.0,450.0,4.0,,,,,,,,,magenta,circle
0.0,4.0,4.0,0.0,5.0,5.0,964.5516010000392,1.0,1.0,phase_2,go,400.0,500.0,1.0,,,,,,,,,blue,triangle
0.0,6.0,1.0,1.0,6.0,0.0,0.0,1.0,1.0,phase_2,stop,400.0,500.0,4.0,,,,,,,,,magenta,circle
0.0,2.0,1.0,0.0,6.0,6.0,1007.8886420001254,1.0,1.0,phase_2,go,400.0,550.0,1.0,,,,,,,,,white,hexagon
0.0,7.0,2.0,1.0,5.0,0.0,0.0,1.0,1.0,phase_2,stop,400.0,550.0,4.0,,,,,,,,,cyan,square
0.0,1.0,0.5,0.0,6.0,6.0,911.2420340002244,1.0,1.0,phase_2,go,450.0,550.0,1.0,,,,,,,,,yellow,diamond
0.0,4.0,4.0,0.0,6.0,6.0,880.0747880000017,1.0,1.0,phase_2,go,450.0,550.0,1.0,,,,,,,,,blue,triangle
0.0,1.0,0.5,0.0,5.0,5.0,707.8722370001742,1.0,1.0,phase_2,go,450.0,550.0,1.0,,,,,,,,,yellow,diamond
0.0,8.0,4.0,1.0,6.0,6.0,603.3301550000942,1.0,1.0,phase_2,stop,450.0,550.0,3.0,,,,,,,,,green,cross
0.0,3.0,2.0,0.0,6.0,6.0,868.0005610003718,1.0,1.0,phase_2,go,450.0,500.0,1.0,,,,,,,,,orange,flipped triangle
0.0,6.0,1.0,1.0,5.0,0.0,0.0,1.0,1.0,phase_2,stop,450.0,500.0,4.0,,,,,,,,,magenta,circle
0.0,3.0,2.0,0.0,5.0,5.0,983.0172490001132,1.0,1.0,phase_2,go,500.0,500.0,1.0,,,,,,,,,orange,flipped triangle
0.0,5.0,0.5,1.0,6.0,6.0,897.52728700023,1.0,1.0,phase_2,go,500.0,500.0,1.0,,,,,,,,,gray,I
0.0,7.0,2.0,1.0,5.0,0.0,0.0,2.0,1.0,phase_2,stop,500.0,500.0,4.0,,,,,,,,,cyan,square
0.0,3.0,2.0,0.0,6.0,6.0,801.3217220000115,2.0,1.0,phase_2,go,550.0,500.0,1.0,,,,,,,,,orange,flipped triangle
0.0,7.0,2.0,1.0,5.0,0.0,0.0,2.0,1.0,phase_2,stop,550.0,500.0,4.0,,,,,,,,,cyan,square
0.0,7.0,2.0,1.0,5.0,0.0,0.0,2.0,1.0,phase_2,stop,600.0,500.0,4.0,,,,,,,,,cyan,square
0.0,3.0,2.0,0.0,6.0,6.0,768.0574890000571,2.0,1.0,phase_2,go,650.0,500.0,1.0,,,,,,,,,orange,flipped triangle
0.0,5.0,0.5,1.0,5.0,5.0,980.038309000065,2.0,1.0,phase_2,go,650.0,500.0,1.0,,,,,,,,,gray,I
0.0,8.0,4.0,1.0,6.0,0.0,0.0,2.0,1.0,phase_2,stop,650.0,500.0,4.0,,,,,,,,,green,cross
0.0,5.0,0.5,1.0,6.0,0.0,0.0,2.0,1.0,phase_2,stop,650.0,550.0,4.0,,,,,,,,,gray,I
0.0,6.0,1.0,1.0,6.0,0.0,0.0,2.0,1.0,phase_2,stop,650.0,600.0,4.0,,,,,,,,,magenta,circle
0.0,8.0,4.0,1.0,5.0,5.0,853.6096699999689,2.0,1.0,phase_2,go,650.0,650.0,1.0,,,,,,,,,green,cross
0.0,8.0,4.0,1.0,6.0,6.0,983.1677520000994,2.0,1.0,phase_2,go,650.0,650.0,1.0,,,,,,,,,green,cross
0.0,7.0,2.0,1.0,6.0,0.0,0.0,2.0,1.0,phase_2,stop,650.0,650.0,4.0,,,,,,,,,cyan,square
0.0,7.0,2.0,1.0,6.0,0.0,0.0,2.0,1.0,phase_2,stop,650.0,700.0,4.0,,,,,,,,,cyan,square
0.0,4.0,4.0,0.0,6.0,6.0,936.9569739997132,2.0,1.0,phase_2,go,650.0,750.0,1.0,,,,,,,,,blue,triangle
0.0,1.0,0.5,0.0,5.0,5.0,1111.2182570000186,2.0,1.0,phase_2,go,650.0,750.0,1.0,,,,,,,,,yellow,diamond
0.0,3.0,2.0,0.0,5.0,5.0,905.797591999999,2.0,1.0,phase_2,go,650.0,750.0,1.0,,,,,,,,,orange,flipped triangle
0.0,7.0,2.0,1.0,6.0,6.0,729.3793789999654,2.0,1.0,phase_2,stop,650.0,750.0,3.0,,,,,,,,,cyan,square
0.0,4.0,4.0,0.0,5.0,5.0,909.7003080000832,2.0,1.0,phase_2,go,650.0,700.0,1.0,,,,,,,,,blue,triangle
0.0,1.0,0.5,0.0,5.0,5.0,1068.112465000013,2.0,1.0,phase_2,go,650.0,700.0,1.0,,,,,,,,,yellow,diamond
0.0,1.0,0.5,0.0,6.0,6.0,1200.0149640002746,2.0,1.0,phase_2,go,650.0,700.0,1.0,,,,,,,,,yellow,diamond
0.0,2.0,1.0,0.0,6.0,6.0,999.1116119999788,2.0,1.0,phase_2,go,650.0,700.0,1.0,,,,,,,,,white,hexagon
0.0,2.0,1.0,0.0,5.0,5.0,917.7288999999292,2.0,1.0,phase_2,go,650.0,700.0,1.0,,,,,,,,,white,hexagon
0.0,5.0,0.5,1.0,5.0,0.0,0.0,2.0,1.0,phase_2,stop,650.0,700.0,4.0,,,,,,,,,gray,I
0.0,5.0,0.5,1.0,5.0,5.0,1248.093569000048,2.0,1.0,phase_2,go,700.0,700.0,1.0,,,,,,,,,gray,I
0.0,2.0,1.0,0.0,6.0,6.0,1236.581121999734,2.0,1.0,phase_2,go,700.0,700.0,1.0,,,,,,,,,white,hexagon
0.0,3.0,2.0,0.0,5.0,5.0,1403.8669599999594,2.0,1.0,phase_2,go,700.0,700.0,1.0,,,,,,,,,orange,flipped triangle
0.0,1.0,0.5,0.0,5.0,5.0,1039.4024790002732,2.0,1.0,phase_2,go,700.0,700.0,1.0,,,,,,,,,yellow,diamond
0.0,3.0,2.0,0.0,5.0,5.0,1087.1200400001726,2.0,1.0,phase_2,go,700.0,700.0,1.0,,,,,,,,,orange,flipped triangle
0.0,1.0,0.5,0.0,5.0,5.0,918.2815889998892,2.0,1.0,phase_2,go,700.0,700.0,1.0,,,,,,,,,yellow,diamond
0.0,6.0,1.0,1.0,5.0,0.0,0.0,2.0,1.0,phase_2,stop,700.0,700.0,4.0,,,,,,,,,magenta,circle
0.0,1.0,0.5,0.0,6.0,6.0,967.0312899997951,2.0,1.0,phase_2,go,750.0,700.0,1.0,,,,,,,,,yellow,diamond
0.0,6.0,1.0,1.0,6.0,0.0,0.0,2.0,1.0,phase_2,stop,750.0,700.0,4.0,,,,,,,,,magenta,circle
0.0,4.0,4.0,0.0,5.0,5.0,941.5542830001868,2.0,1.0,phase_2,go,750.0,750.0,1.0,,,,,,,,,blue,triangle
0.0,4.0,4.0,0.0,6.0,6.0,1260.661834000075,2.0,1.0,phase_2,go,750.0,750.0,1.0,,,,,,,,,blue,triangle
0.0,2.0,1.0,0.0,5.0,5.0,1099.2622969997683,2.0,1.0,phase_2,go,750.0,750.0,1.0,,,,,,,,,white,hexagon
0.0,7.0,2.0,1.0,5.0,5.0,891.223109999828,2.0,1.0,phase_2,stop,750.0,750.0,3.0,,,,,,,,,cyan,square
0.0,3.0,2.0,0.0,5.0,5.0,921.0921799999596,3.0,1.0,phase_2,go,700.0,750.0,1.0,,,,,,,,,orange,flipped triangle
0.0,1.0,0.5,0.0,5.0,5.0,720.5540939999082,3.0,1.0,phase_2,go,700.0,750.0,1.0,,,,,,,,,yellow,diamond
0.0,6.0,1.0,1.0,5.0,5.0,740.7775910000964,3.0,1.0,phase_2,stop,700.0,750.0,3.0,,,,,,,,,magenta,circle
0.0,8.0,4.0,1.0,6.0,0.0,0.0,3.0,1.0,phase_2,stop,650.0,750.0,4.0,,,,,,,,,green,cross
0.0,3.0,2.0,0.0,6.0,6.0,1042.4913609999749,3.0,1.0,phase_2,go,650.0,800.0,1.0,,,,,,,,,orange,flipped triangle
0.0,7.0,2.0,1.0,5.0,0.0,0.0,3.0,1.0,phase_2,stop,650.0,800.0,4.0,,,,,,,,,cyan,square
0.0,2.0,1.0,0.0,5.0,5.0,1163.8766510000096,3.0,1.0,phase_2,go,700.0,800.0,1.0,,,,,,,,,white,hexagon
0.0,7.0,2.0,1.0,6.0,0.0,0.0,3.0,1.0,phase_2,stop,700.0,800.0,4.0,,,,,,,,,cyan,square
0.0,6.0,1.0,1.0,6.0,6.0,968.0557149999912,3.0,1.0,phase_2,stop,700.0,850.0,3.0,,,,,,,,,magenta,circle
0.0,2.0,1.0,0.0,5.0,0.0,0.0,3.0,1.0,phase_2,go,700.0,800.0,5.0,,,,,,,,,white,hexagon
0.0,3.0,2.0,0.0,5.0,5.0,708.2948410002246,3.0,1.0,phase_2,go,700.0,800.0,1.0,,,,,,,,,orange,flipped triangle
0.0,5.0,0.5,1.0,5.0,5.0,773.7776479998502,3.0,1.0,phase_2,stop,700.0,800.0,3.0,,,,,,,,,gray,I
0.0,6.0,1.0,1.0,6.0,0.0,0.0,3.0,1.0,phase_2,stop,650.0,800.0,4.0,,,,,,,,,magenta,circle
0.0,4.0,4.0,0.0,5.0,5.0,965.0744909999958,3.0,1.0,phase_2,go,650.0,850.0,1.0,,,,,,,,,blue,triangle
0.0,1.0,0.5,0.0,5.0,5.0,763.1990320001023,3.0,1.0,phase_2,go,650.0,850.0,1.0,,,,,,,,,yellow,diamond
0.0,4.0,4.0,0.0,6.0,6.0,850.6903889997375,3.0,1.0,phase_2,go,650.0,850.0,1.0,,,,,,,,,blue,triangle
0.0,5.0,0.5,1.0,6.0,6.0,957.7026789997944,3.0,1.0,phase_2,stop,650.0,850.0,3.0,,,,,,,,,gray,I
0.0,1.0,0.5,0.0,5.0,0.0,0.0,3.0,1.0,phase_2,go,650.0,800.0,5.0,,,,,,,,,yellow,diamond
0.0,6.0,1.0,1.0,5.0,0.0,0.0,3.0,1.0,phase_2,stop,650.0,800.0,4.0,,,,,,,,,magenta,circle
0.0,2.0,1.0,0.0,6.0,6.0,902.6211389996206,3.0,1.0,phase_2,go,700.0,800.0,1.0,,,,,,,,,white,hexagon
0.0,2.0,1.0,0.0,6.0,6.0,977.4210169998696,3.0,1.0,phase_2,go,700.0,800.0,1.0,,,,,,,,,white,hexagon
0.0,1.0,0.5,0.0,6.0,6.0,1165.5768189998523,3.0,1.0,phase_2,go,700.0,800.0,1.0,,,,,,,,,yellow,diamond
0.0,3.0,2.0,0.0,5.0,5.0,931.4957010001308,3.0,1.0,phase_2,go,700.0,800.0,1.0,,,,,,,,,orange,flipped triangle
0.0,4.0,4.0,0.0,6.0,6.0,896.0861559999103,3.0,1.0,phase_2,go,700.0,800.0,1.0,,,,,,,,,blue,triangle
0.0,8.0,4.0,1.0,6.0,0.0,0.0,3.0,1.0,phase_2,stop,700.0,800.0,4.0,,,,,,,,,green,cross
0.0,3.0,2.0,0.0,5.0,5.0,910.7222399998136,3.0,1.0,phase_2,go,700.0,850.0,1.0,,,,,,,,,orange,flipped triangle
0.0,7.0,2.0,1.0,5.0,0.0,0.0,3.0,1.0,phase_2,stop,700.0,850.0,4.0,,,,,,,,,cyan,square
0.0,7.0,2.0,1.0,5.0,5.0,1142.168528000184,3.0,1.0,phase_2,go,750.0,850.0,1.0,,,,,,,,,cyan,square
0.0,5.0,0.5,1.0,6.0,0.0,0.0,3.0,1.0,phase_2,stop,750.0,850.0,4.0,,,,,,,,,gray,I
0.0,2.0,1.0,0.0,5.0,5.0,950.8412189998126,3.0,1.0,phase_2,go,750.0,900.0,1.0,,,,,,,,,white,hexagon
0.0,4.0,4.0,0.0,5.0,5.0,822.4933920000694,3.0,1.0,phase_2,go,750.0,900.0,1.0,,,,,,,,,blue,triangle
0.0,2.0,1.0,0.0,6.0,6.0,972.5560759998187,3.0,1.0,phase_2,go,750.0,900.0,1.0,,,,,,,,,white,hexagon
0.0,7.0,2.0,1.0,6.0,6.0,601.5616869999576,3.0,1.0,phase_2,stop,750.0,900.0,3.0,,,,,,,,,cyan,square
0.0,4.0,4.0,0.0,6.0,6.0,1084.949503000189,3.0,1.0,phase_2,go,750.0,850.0,1.0,,,,,,,,,blue,triangle
0.0,5.0,0.5,1.0,5.0,5.0,555.8313050000834,3.0,1.0,phase_2,stop,750.0,850.0,3.0,,,,,,,,,gray,I
0.0,5.0,0.5,1.0,5.0,5.0,1193.679424000038,3.0,1.0,phase_2,stop,700.0,850.0,3.0,,,,,,,,,gray,I
0.0,8.0,4.0,1.0,5.0,5.0,643.6762970001837,4.0,1.0,phase_2,stop,650.0,850.0,3.0,,,,,,,,,green,cross
0.0,3.0,2.0,0.0,6.0,6.0,796.6007919999356,4.0,1.0,phase_2,go,600.0,850.0,1.0,,,,,,,,,orange,flipped triangle
0.0,3.0,2.0,0.0,6.0,6.0,491.4864970000963,4.0,1.0,phase_2,go,600.0,850.0,1.0,,,,,,,,,orange,flipped triangle
0.0,2.0,1.0,0.0,6.0,6.0,706.4252770001076,4.0,1.0,phase_2,go,600.0,850.0,1.0,,,,,,,,,white,hexagon
0.0,1.0,0.5,0.0,5.0,5.0,730.8830280003349,4.0,1.0,phase_2,go,600.0,850.0,1.0,,,,,,,,,yellow,diamond
0.0,6.0,1.0,1.0,5.0,5.0,848.3492489999662,4.0,1.0,phase_2,go,600.0,850.0,1.0,,,,,,,,,magenta,circle
0.0,5.0,0.5,1.0,5.0,5.0,560.5322019996493,4.0,1.0,phase_2,stop,600.0,850.0,3.0,,,,,,,,,gray,I
0.0,8.0,4.0,1.0,6.0,6.0,799.60145799987,4.0,1.0,phase_2,stop,550.0,850.0,3.0,,,,,,,,,green,cross
0.0,7.0,2.0,1.0,6.0,6.0,1120.74555900017,4.0,1.0,phase_2,go,550.0,800.0,1.0,,,,,,,,,cyan,square
0.0,8.0,4.0,1.0,5.0,0.0,0.0,4.0,1.0,phase_2,stop,550.0,800.0,4.0,,,,,,,,,green,cross
0.0,8.0,4.0,1.0,5.0,0.0,0.0,4.0,1.0,phase_2,stop,600.0,800.0,4.0,,,,,,,,,green,cross
0.0,3.0,2.0,0.0,6.0,6.0,1177.5184199996147,4.0,1.0,phase_2,go,650.0,800.0,1.0,,,,,,,,,orange,flipped triangle
0.0,3.0,2.0,0.0,6.0,6.0,947.0968529999482,4.0,1.0,phase_2,go,650.0,800.0,1.0,,,,,,,,,orange,flipped triangle
0.0,2.0,1.0,0.0,5.0,5.0,822.6203350000105,4.0,1.0,phase_2,go,650.0,800.0,1.0,,,,,,,,,white,hexagon
0.0,5.0,0.5,1.0,6.0,6.0,712.817829999949,4.0,1.0,phase_2,stop,650.0,800.0,3.0,,,,,,,,,gray,I
0.0,4.0,4.0,0.0,5.0,5.0,910.6761070001994,4.0,1.0,phase_2,go,650.0,750.0,1.0,,,,,,,,,blue,triangle
0.0,8.0,4.0,1.0,6.0,6.0,806.3032270001713,4.0,1.0,phase_2,go,650.0,750.0,1.0,,,,,,,,,green,cross
0.0,4.0,4.0,0.0,5.0,5.0,712.2009939998861,4.0,1.0,phase_2,go,650.0,750.0,1.0,,,,,,,,,blue,triangle
0.0,8.0,4.0,1.0,5.0,0.0,0.0,4.0,1.0,phase_2,stop,650.0,750.0,4.0,,,,,,,,,green,cross
0.0,8.0,4.0,1.0,6.0,0.0,0.0,4.0,1.0,phase_2,stop,700.0,750.0,4.0,,,,,,,,,green,cross
0.0,1.0,0.5,0.0,6.0,6.0,1100.9475509999902,4.0,1.0,phase_2,go,700.0,800.0,1.0,,,,,,,,,yellow,diamond
0.0,2.0,1.0,0.0,6.0,6.0,1029.9137189999783,4.0,1.0,phase_2,go,700.0,800.0,1.0,,,,,,,,,white,hexagon
0.0,7.0,2.0,1.0,6.0,0.0,0.0,4.0,1.0,phase_2,stop,700.0,800.0,4.0,,,,,,,,,cyan,square
0.0,4.0,4.0,0.0,5.0,5.0,1218.01924600004,4.0,1.0,phase_2,go,700.0,850.0,1.0,,,,,,,,,blue,triangle
0.0,5.0,0.5,1.0,5.0,5.0,1102.20696999977,4.0,1.0,phase_2,go,700.0,850.0,1.0,,,,,,,,,gray,I
0.0,5.0,0.5,1.0,6.0,0.0,0.0,4.0,1.0,phase_2,stop,700.0,850.0,4.0,,,,,,,,,gray,I
0.0,4.0,4.0,0.0,6.0,6.0,1002.2490820001622,4.0,1.0,phase_2,go,700.0,900.0,1.0,,,,,,,,,blue,triangle
0.0,8.0,4.0,1.0,5.0,5.0,1031.541510999887,4.0,1.0,phase_2,go,700.0,900.0,1.0,,,,,,,,,green,cross
0.0,3.0,2.0,0.0,5.0,5.0,1337.066398999923,4.0,1.0,phase_2,go,700.0,900.0,1.0,,,,,,,,,orange,flipped triangle
0.0,1.0,0.5,0.0,6.0,6.0,1084.5631349998257,4.0,1.0,phase_2,go,700.0,900.0,1.0,,,,,,,,,yellow,diamond
0.0,3.0,2.0,0.0,6.0,6.0,929.6328450000146,4.0,1.0,phase_2,go,700.0,900.0,1.0,,,,,,,,,orange,flipped triangle
0.0,4.0,4.0,0.0,6.0,6.0,808.3405099996526,4.0,1.0,phase_2,go,700.0,900.0,1.0,,,,,,,,,blue,triangle
0.0,8.0,4.0,1.0,5.0,5.0,825.1010149997455,4.0,1.0,phase_2,stop,700.0,900.0,3.0,,,,,,,,,green,cross
0.0,5.0,0.5,1.0,5.0,0.0,0.0,4.0,1.0,phase_2,stop,650.0,900.0,4.0,,,,,,,,,gray,I
0.0,3.0,2.0,0.0,5.0,5.0,715.0016939999659,4.0,1.0,phase_2,go,700.0,900.0,1.0,,,,,,,,,orange,flipped triangle
0.0,1.0,0.5,0.0,6.0,6.0,759.2996280000079,4.0,1.0,phase_2,go,700.0,900.0,1.0,,,,,,,,,yellow,diamond
0.0,8.0,4.0,1.0,6.0,6.0,873.2368969999698,5.0,1.0,phase_2,stop,700.0,900.0,3.0,,,,,,,,,green,cross
0.0,7.0,2.0,1.0,5.0,5.0,690.077781999662,5.0,1.0,phase_2,go,700.0,850.0,1.0,,,,,,,,,cyan,square
0.0,6.0,1.0,1.0,5.0,5.0,786.7973590000474,5.0,1.0,phase_2,go,700.0,850.0,1.0,,,,,,,,,magenta,circle
0.0,3.0,2.0,0.0,5.0,5.0,940.70981699997,5.0,1.0,phase_2,go,700.0,850.0,1.0,,,,,,,,,orange,flipped triangle
0.0,5.0,0.5,1.0,5.0,0.0,0.0,5.0,1.0,phase_2,stop,700.0,850.0,4.0,,,,,,,,,gray,I
0.0,1.0,0.5,0.0,5.0,5.0,1012.8892249999808,5.0,1.0,phase_2,go,750.0,850.0,1.0,,,,,,,,,yellow,diamond
0.0,2.0,1.0,0.0,5.0,5.0,1319.45936000011,5.0,1.0,phase_2,go,750.0,850.0,1.0,,,,,,,,,white,hexagon
0.0,7.0,2.0,1.0,6.0,6.0,883.6361389999183,5.0,1.0,phase_2,stop,750.0,850.0,3.0,,,,,,,,,cyan,square
0.0,8.0,4.0,1.0,5.0,0.0,0.0,5.0,1.0,phase_2,stop,750.0,800.0,4.0,,,,,,,,,green,cross
0.0,6.0,1.0,1.0,6.0,0.0,0.0,5.0,1.0,phase_2,stop,800.0,800.0,4.0,,,,,,,,,magenta,circle
0.0,4.0,4.0,0.0,6.0,6.0,861.2669049998658,5.0,1.0,phase_2,go,800.0,850.0,1.0,,,,,,,,,blue,triangle
0.0,8.0,4.0,1.0,5.0,0.0,0.0,5.0,1.0,phase_2,stop,800.0,850.0,4.0,,,,,,,,,green,cross
0.0,2.0,1.0,0.0,6.0,6.0,1183.5033880001902,5.0,1.0,phase_2,go,850.0,850.0,1.0,,,,,,,,,white,hexagon
0.0,3.0,2.0,0.0,6.0,6.0,1026.6903110000385,5.0,1.0,phase_2,go,850.0,850.0,1.0,,,,,,,,,orange,flipped triangle
0.0,3.0,2.0,0.0,6.0,6.0,929.5058379998408,5.0,1.0,phase_2,go,850.0,850.0,1.0,,,,,,,,,orange,flipped triangle
0.0,6.0,1.0,1.0,6.0,6.0,855.6642919998012,5.0,1.0,phase_2,go,850.0,850.0,1.0,,,,,,,,,magenta,circle
0.0,6.0,1.0,1.0,5.0,5.0,891.5728599999966,5.0,1.0,phase_2,stop,850.0,850.0,3.0,,,,,,,,,magenta,circle
0.0,5.0,0.5,1.0,5.0,5.0,931.9692670001132,5.0,1.0,phase_2,go,800.0,850.0,1.0,,,,,,,,,gray,I
0.0,4.0,4.0,0.0,6.0,6.0,912.3374810001224,5.0,1.0,phase_2,go,800.0,850.0,1.0,,,,,,,,,blue,triangle
0.0,1.0,0.5,0.0,6.0,6.0,1089.48097099983,5.0,1.0,phase_2,go,800.0,850.0,1.0,,,,,,,,,yellow,diamond
0.0,1.0,0.5,0.0,5.0,5.0,1223.8148000001274,5.0,1.0,phase_2,go,800.0,850.0,1.0,,,,,,,,,yellow,diamond
0.0,7.0,2.0,1.0,6.0,6.0,798.425161999603,5.0,1.0,phase_2,stop,800.0,850.0,3.0,,,,,,,,,cyan,square
0.0,7.0,2.0,1.0,6.0,0.0,0.0,5.0,1.0,phase_2,stop,800.0,800.0,4.0,,,,,,,,,cyan,square
0.0,1.0,0.5,0.0,6.0,6.0,1079.6929160001127,5.0,1.0,phase_2,go,800.0,850.0,1.0,,,,,,,,,yellow,diamond
0.0,7.0,2.0,1.0,5.0,5.0,491.4224290000675,5.0,1.0,phase_2,stop,800.0,850.0,3.0,,,,,,,,,cyan,square
0.0,3.0,2.0,0.0,6.0,6.0,1298.5863349999818,5.0,1.0,phase_2,go,750.0,850.0,1.0,,,,,,,,,orange,flipped triangle
0.0,2.0,1.0,0.0,5.0,5.0,1282.127717000094,5.0,1.0,phase_2,go,750.0,850.0,1.0,,,,,,,,,white,hexagon
0.0,6.0,1.0,1.0,5.0,5.0,1193.3485119998295,5.0,1.0,phase_2,go,750.0,850.0,1.0,,,,,,,,,magenta,circle
0.0,1.0,0.5,0.0,6.0,6.0,860.5784270002914,5.0,1.0,phase_2,go,750.0,850.0,1.0,,,,,,,,,yellow,diamond
0.0,4.0,4.0,0.0,5.0,5.0,1050.1343739997535,5.0,1.0,phase_2,go,750.0,850.0,1.0,,,,,,,,,blue,triangle
0.0,4.0,4.0,0.0,6.0,6.0,1066.9733949998772,5.0,1.0,phase_2,go,750.0,850.0,1.0,,,,,,,,,blue,triangle
0.0,6.0,1.0,1.0,5.0,5.0,852.4243809997643,5.0,1.0,phase_2,stop,750.0,850.0,3.0,,,,,,,,,magenta,circle
0.0,1.0,0.5,0.0,5.0,5.0,1302.7365779998945,5.0,1.0,phase_2,go,700.0,850.0,1.0,,,,,,,,,yellow,diamond
0.0,8.0,4.0,1.0,5.0,0.0,0.0,5.0,1.0,phase_2,stop,700.0,850.0,4.0,,,,,,,,,green,cross
0.0,5.0,0.5,1.0,6.0,6.0,949.549043999923,5.0,1.0,phase_2,stop,750.0,850.0,3.0,,,,,,,,,gray,I
0.0,7.0,2.0,1.0,5.0,0.0,0.0,5.0,1.0,phase_2,go,750.0,800.0,5.0,,,,,,,,,cyan,square
0.0,5.0,0.5,1.0,6.0,6.0,467.3817620000591,6.0,1.0,phase_2,stop,750.0,800.0,3.0,,,,,,,,,gray,I
0.0,1.0,0.5,0.0,5.0,5.0,383.3040079998682,6.0,1.0,phase_2,go,750.0,750.0,1.0,,,,,,,,,yellow,diamond
0.0,5.0,0.5,1.0,5.0,5.0,298.267363999912,6.0,1.0,phase_2,go,750.0,750.0,1.0,,,,,,,,,gray,I
0.0,7.0,2.0,1.0,5.0,5.0,303.6254730000109,6.0,1.0,phase_2,stop,750.0,750.0,3.0,,,,,,,,,cyan,square
0.0,6.0,1.0,1.0,6.0,6.0,314.9684089999027,6.0,1.0,phase_2,stop,700.0,750.0,3.0,,,,,,,,,magenta,circle
0.0,7.0,2.0,1.0,5.0,5.0,265.7220890000644,6.0,1.0,phase_2,stop,700.0,700.0,3.0,,,,,,,,,cyan,square
0.0,2.0,1.0,0.0,5.0,6.0,351.083946000017,6.0,1.0,phase_2,go,650.0,700.0,2.0,,,,,,,,,white,hexagon
0.0,3.0,2.0,0.0,6.0,6.0,503.8778960001764,6.0,1.0,phase_2,go,650.0,700.0,1.0,,,,,,,,,orange,flipped triangle
0.0,8.0,4.0,1.0,6.0,6.0,379.6951340000305,6.0,1.0,phase_2,stop,650.0,700.0,3.0,,,,,,,,,green,cross
0.0,5.0,0.5,1.0,6.0,6.0,327.5483819998044,6.0,1.0,phase_2,stop,650.0,650.0,3.0,,,,,,,,,gray,I
0.0,1.0,0.5,0.0,6.0,6.0,440.8263459999944,6.0,1.0,phase_2,go,650.0,600.0,1.0,,,,,,,,,yellow,diamond
0.0,2.0,1.0,0.0,5.0,5.0,305.2470460002041,6.0,1.0,phase_2,go,650.0,600.0,1.0,,,,,,,,,white,hexagon
0.0,5.0,0.5,1.0,5.0,5.0,367.61749399965987,6.0,1.0,phase_2,stop,650.0,600.0,3.0,,,,,,,,,gray,I
0.0,3.0,2.0,0.0,5.0,5.0,362.9228700001476,6.0,1.0,phase_2,go,600.0,600.0,1.0,,,,,,,,,orange,flipped triangle
0.0,3.0,2.0,0.0,5.0,5.0,318.6118110002098,6.0,1.0,phase_2,go,600.0,600.0,1.0,,,,,,,,,orange,flipped triangle
0.0,1.0,0.5,0.0,6.0,6.0,369.335810999928,6.0,1.0,phase_2,go,600.0,600.0,1.0,,,,,,,,,yellow,diamond
0.0,5.0,0.5,1.0,5.0,5.0,350.9814830003961,6.0,1.0,phase_2,stop,600.0,600.0,3.0,,,,,,,,,gray,I
0.0,6.0,1.0,1.0,6.0,6.0,336.7007940000803,6.0,1.0,phase_2,stop,550.0,600.0,3.0,,,,,,,,,magenta,circle
0.0,7.0,2.0,1.0,5.0,5.0,273.8753769999675,6.0,1.0,phase_2,stop,550.0,550.0,3.0,,,,,,,,,cyan,square
0.0,2.0,1.0,0.0,6.0,6.0,250.8577990001868,6.0,1.0,phase_2,go,500.0,550.0,1.0,,,,,,,,,white,hexagon
0.0,2.0,1.0,0.0,5.0,5.0,251.24521399993682,6.0,1.0,phase_2,go,500.0,550.0,1.0,,,,,,,,,white,hexagon
0.0,7.0,2.0,1.0,6.0,6.0,301.6124390001096,6.0,1.0,phase_2,stop,500.0,550.0,3.0,,,,,,,,,cyan,square
0.0,8.0,4.0,1.0,5.0,5.0,312.9747620000671,6.0,1.0,phase_2,stop,500.0,500.0,3.0,,,,,,,,,green,cross
0.0,6.0,1.0,1.0,6.0,6.0,315.8925960001397,6.0,1.0,phase_2,stop,450.0,500.0,3.0,,,,,,,,,magenta,circle
0.0,4.0,4.0,0.0,5.0,5.0,273.1235269998251,6.0,1.0,phase_2,go,450.0,450.0,1.0,,,,,,,,,blue,triangle
0.0,7.0,2.0,1.0,5.0,5.0,346.2568079999073,6.0,1.0,phase_2,stop,450.0,450.0,3.0,,,,,,,,,cyan,square
0.0,7.0,2.0,1.0,6.0,6.0,253.5982750000585,6.0,1.0,phase_2,stop,400.0,450.0,3.0,,,,,,,,,cyan,square
0.0,6.0,1.0,1.0,5.0,5.0,274.8664589998952,6.0,1.0,phase_2,go,400.0,400.0,1.0,,,,,,,,,magenta,circle
0.0,2.0,1.0,0.0,5.0,5.0,404.2968459998519,6.0,1.0,phase_2,go,400.0,400.0,1.0,,,,,,,,,white,hexagon
0.0,5.0,0.5,1.0,6.0,6.0,371.5597719997277,6.0,1.0,phase_2,stop,400.0,400.0,3.0,,,,,,,,,gray,I
0.0,4.0,4.0,0.0,6.0,6.0,320.1948060000177,6.0,1.0,phase_2,go,400.0,350.0,1.0,,,,,,,,,blue,triangle
0.0,2.0,1.0,0.0,5.0,5.0,296.3936579999426,6.0,1.0,phase_2,go,400.0,350.0,1.0,,,,,,,,,white,hexagon
0.0,6.0,1.0,1.0,6.0,6.0,303.1462430003557,6.0,1.0,phase_2,stop,400.0,350.0,3.0,,,,,,,,,magenta,circle
0.0,6.0,1.0,1.0,5.0,5.0,336.7234149995965,6.0,1.0,phase_2,go,400.0,300.0,1.0,,,,,,,,,magenta,circle
0.0,5.0,0.5,1.0,6.0,6.0,350.7514220000303,6.0,1.0,phase_2,stop,400.0,300.0,3.0,,,,,,,,,gray,I
0.0,3.0,2.0,0.0,6.0,6.0,311.4690900001733,6.0,1.0,phase_2,go,400.0,250.0,1.0,,,,,,,,,orange,flipped triangle
0.0,1.0,0.5,0.0,5.0,5.0,457.6003600000149,7.0,1.0,phase_2,go,400.0,250.0,1.0,,,,,,,,,yellow,diamond
0.0,4.0,4.0,0.0,5.0,5.0,343.8129729997854,7.0,1.0,phase_2,go,400.0,250.0,1.0,,,,,,,,,blue,triangle
0.0,3.0,2.0,0.0,6.0,6.0,493.234861000019,7.0,1.0,phase_2,go,400.0,250.0,1.0,,,,,,,,,orange,flipped triangle
0.0,6.0,1.0,1.0,6.0,6.0,697.4826749997192,7.0,1.0,phase_2,stop,400.0,250.0,3.0,,,,,,,,,magenta,circle
0.0,2.0,1.0,0.0,6.0,6.0,676.630262999879,7.0,1.0,phase_2,go,400.0,200.0,1.0,,,,,,,,,white,hexagon
0.0,6.0,1.0,1.0,6.0,6.0,317.4337549999109,7.0,1.0,phase_2,stop,400.0,200.0,3.0,,,,,,,,,magenta,circle
0.0,6.0,1.0,1.0,6.0,6.0,663.2856299997911,7.0,1.0,phase_2,stop,400.0,150.0,3.0,,,,,,,,,magenta,circle
0.0,5.0,0.5,1.0,6.0,0.0,0.0,7.0,1.0,phase_2,stop,400.0,100.0,4.0,,,,,,,,,gray,I
0.0,3.0,2.0,0.0,5.0,5.0,739.5168839998405,7.0,1.0,phase_2,go,400.0,150.0,1.0,,,,,,,,,orange,flipped triangle
0.0,8.0,4.0,1.0,5.0,5.0,393.2232239999393,7.0,1.0,phase_2,stop,400.0,150.0,3.0,,,,,,,,,green,cross
0.0,7.0,2.0,1.0,5.0,5.0,633.6802659998284,7.0,1.0,phase_2,go,350.0,150.0,1.0,,,,,,,,,cyan,square
0.0,3.0,2.0,0.0,5.0,5.0,519.5450900000651,7.0,1.0,phase_2,go,350.0,150.0,1.0,,,,,,,,,orange,flipped triangle
0.0,1.0,0.5,0.0,5.0,5.0,387.2254030002295,7.0,1.0,phase_2,go,350.0,150.0,1.0,,,,,,,,,yellow,diamond
0.0,8.0,4.0,1.0,5.0,5.0,390.5517179996423,7.0,1.0,phase_2,stop,350.0,150.0,3.0,,,,,,,,,green,cross
0.0,8.0,4.0,1.0,6.0,6.0,517.9124570004205,7.0,1.0,phase_2,go,300.0,150.0,1.0,,,,,,,,,green,cross
0.0,1.0,0.5,0.0,6.0,6.0,389.3299369997294,7.0,1.0,phase_2,go,300.0,150.0,1.0,,,,,,,,,yellow,diamond
0.0,2.0,1.0,0.0,6.0,6.0,558.8414650001141,7.0,1.0,phase_2,go,300.0,150.0,1.0,,,,,,,,,white,hexagon
0.0,5.0,0.5,1.0,5.0,5.0,732.0052720001513,7.0,1.0,phase_2,go,300.0,150.0,1.0,,,,,,,,,gray,I
0.0,6.0,1.0,1.0,5.0,5.0,427.3065960001077,7.0,1.0,phase_2,stop,300.0,150.0,3.0,,,,,,,,,magenta,circle
0.0,6.0,1.0,1.0,5.0,0.0,0.0,7.0,1.0,phase_2,stop,250.0,150.0,4.0,,,,,,,,,magenta,circle
0.0,7.0,2.0,1.0,6.0,6.0,324.5821950004028,7.0,1.0,phase_2,go,300.0,150.0,1.0,,,,,,,,,cyan,square
0.0,4.0,4.0,0.0,5.0,5.0,541.1843770002633,7.0,1.0,phase_2,go,300.0,150.0,1.0,,,,,,,,,blue,triangle
0.0,2.0,1.0,0.0,6.0,6.0,300.0422079999225,7.0,1.0,phase_2,go,300.0,150.0,1.0,,,,,,,,,white,hexagon
0.0,4.0,4.0,0.0,5.0,5.0,553.5200930003157,7.0,1.0,phase_2,go,300.0,150.0,1.0,,,,,,,,,blue,triangle
0.0,5.0,0.5,1.0,6.0,6.0,355.889038999976,7.0,1.0,phase_2,stop,300.0,150.0,3.0,,,,,,,,,gray,I
0.0,6.0,1.0,1.0,5.0,5.0,1430.3703549999227,7.0,1.0,phase_2,go,300.0,100.0,1.0,,,,,,,,,magenta,circle
0.0,8.0,4.0,1.0,5.0,5.0,341.2046999997074,7.0,1.0,phase_2,stop,300.0,100.0,3.0,,,,,,,,,green,cross
0.0,8.0,4.0,1.0,5.0,5.0,484.3326399995931,7.0,1.0,phase_2,go,250.0,100.0,1.0,,,,,,,,,green,cross
0.0,8.0,4.0,1.0,6.0,6.0,322.2713070003919,7.0,1.0,phase_2,stop,250.0,100.0,3.0,,,,,,,,,green,cross
0.0,7.0,2.0,1.0,6.0,0.0,0.0,7.0,1.0,phase_2,stop,250.0,50.0,4.0,,,,,,,,,cyan,square
0.0,1.0,0.5,0.0,6.0,6.0,674.3012319998343,7.0,1.0,phase_2,go,250.0,100.0,1.0,,,,,,,,,yellow,diamond
0.0,5.0,0.5,1.0,6.0,0.0,0.0,7.0,1.0,phase_2,stop,250.0,100.0,4.0,,,,,,,,,gray,I
0.0,3.0,2.0,0.0,5.0,5.0,595.805298000414,7.0,1.0,phase_2,go,250.0,150.0,1.0,,,,,,,,,orange,flipped triangle
0.0,4.0,4.0,0.0,6.0,6.0,483.8110470000174,7.0,1.0,phase_2,go,250.0,150.0,1.0,,,,,,,,,blue,triangle
0.0,2.0,1.0,0.0,6.0,6.0,490.9249439997438,7.0,1.0,phase_2,go,250.0,150.0,1.0,,,,,,,,,white,hexagon
0.0,8.0,4.0,1.0,5.0,0.0,0.0,7.0,1.0,phase_2,stop,250.0,150.0,4.0,,,,,,,,,green,cross
0.0,3.0,2.0,0.0,5.0,5.0,1415.3761610000402,8.0,1.0,phase_2,go,300.0,150.0,1.0,,,,,,,,,orange,flipped triangle
0.0,2.0,1.0,0.0,6.0,6.0,313.8250649999463,8.0,1.0,phase_2,go,300.0,150.0,1.0,,,,,,,,,white,hexagon
0.0,6.0,1.0,1.0,6.0,6.0,326.4115430001766,8.0,1.0,phase_2,stop,300.0,150.0,3.0,,,,,,,,,magenta,circle
0.0,4.0,4.0,0.0,5.0,5.0,567.8144910002629,8.0,1.0,phase_2,go,300.0,100.0,1.0,,,,,,,,,blue,triangle
0.0,2.0,1.0,0.0,5.0,5.0,415.6856929998866,8.0,1.0,phase_2,go,300.0,100.0,1.0,,,,,,,,,white,hexagon
0.0,5.0,0.5,1.0,6.0,6.0,317.6992829999108,8.0,1.0,phase_2,go,300.0,100.0,1.0,,,,,,,,,gray,I
0.0,2.0,1.0,0.0,5.0,5.0,295.7166010000946,8.0,1.0,phase_2,go,300.0,100.0,1.0,,,,,,,,,white,hexagon
0.0,3.0,2.0,0.0,6.0,6.0,256.2239090002549,8.0,1.0,phase_2,go,300.0,100.0,1.0,,,,,,,,,orange,flipped triangle
0.0,2.0,1.0,0.0,6.0,6.0,454.3799139996736,8.0,1.0,phase_2,go,300.0,100.0,1.0,,,,,,,,,white,hexagon
0.0,7.0,2.0,1.0,5.0,5.0,463.1811260001086,8.0,1.0,phase_2,go,300.0,100.0,1.0,,,,,,,,,cyan,square
0.0,1.0,0.5,0.0,6.0,6.0,453.0909709997104,8.0,1.0,phase_2,go,300.0,100.0,1.0,,,,,,,,,yellow,diamond
0.0,8.0,4.0,1.0,6.0,6.0,565.365853000003,8.0,1.0,phase_2,stop,300.0,100.0,3.0,,,,,,,,,green,cross
0.0,2.0,1.0,0.0,5.0,5.0,562.2081609999441,8.0,1.0,phase_2,go,300.0,50.0,1.0,,,,,,,,,white,hexagon
0.0,6.0,1.0,1.0,5.0,0.0,0.0,8.0,1.0,phase_2,stop,300.0,50.0,4.0,,,,,,,,,magenta,circle
0.0,4.0,4.0,0.0,5.0,5.0,467.9147789997842,8.0,1.0,phase_2,go,350.0,50.0,1.0,,,,,,,,,blue,triangle
0.0,3.0,2.0,0.0,6.0,6.0,430.5492430003141,8.0,1.0,phase_2,go,350.0,50.0,1.0,,,,,,,,,orange,flipped triangle
0.0,8.0,4.0,1.0,5.0,0.0,0.0,8.0,1.0,phase_2,stop,350.0,50.0,4.0,,,,,,,,,green,cross
0.0,5.0,0.5,1.0,5.0,5.0,449.7391140002946,8.0,1.0,phase_2,stop,400.0,50.0,3.0,,,,,,,,,gray,I
0.0,4.0,4.0,0.0,6.0,6.0,811.2760530002561,8.0,1.0,phase_2,go,350.0,50.0,1.0,,,,,,,,,blue,triangle
0.0,8.0,4.0,1.0,6.0,6.0,531.2376480001149,8.0,1.0,phase_2,go,350.0,50.0,1.0,,,,,,,,,green,cross
0.0,7.0,2.0,1.0,6.0,6.0,544.0235369997026,8.0,1.0,phase_2,stop,350.0,50.0,3.0,,,,,,,,,cyan,square
0.0,4.0,4.0,0.0,6.0,6.0,636.2045430000762,8.0,1.0,phase_2,go,350.0,0.0,1.0,,,,,,,,,blue,triangle
0.0,8.0,4.0,1.0,6.0,0.0,0.0,8.0,1.0,phase_2,stop,350.0,0.0,4.0,,,,,,,,,green,cross
0.0,4.0,4.0,0.0,5.0,5.0,416.9968730002438,8.0,1.0,phase_2,go,350.0,50.0,1.0,,,,,,,,,blue,triangle
0.0,3.0,2.0,0.0,6.0,6.0,348.8863420002417,8.0,1.0,phase_2,go,350.0,50.0,1.0,,,,,,,,,orange,flipped triangle
0.0,8.0,4.0,1.0,5.0,5.0,464.6652709998307,8.0,1.0,phase_2,stop,350.0,50.0,3.0,,,,,,,,,green,cross
0.0,7.0,2.0,1.0,5.0,5.0,373.8687279997066,8.0,1.0,phase_2,stop,300.0,50.0,3.0,,,,,,,,,cyan,square
0.0,1.0,0.5,0.0,6.0,6.0,284.3419770001674,8.0,1.0,phase_2,go,250.0,50.0,1.0,,,,,,,,,yellow,diamond
0.0,8.0,4.0,1.0,6.0,6.0,379.3973350002488,8.0,1.0,phase_2,stop,250.0,50.0,3.0,,,,,,,,,green,cross
0.0,7.0,2.0,1.0,6.0,6.0,871.0977939999793,8.0,1.0,phase_2,go,250.0,0.0,1.0,,,,,,,,,cyan,square
0.0,4.0,4.0,0.0,6.0,6.0,299.6472909999284,8.0,1.0,phase_2,go,250.0,0.0,1.0,,,,,,,,,blue,triangle
0.0,5.0,0.5,1.0,6.0,0.0,0.0,8.0,1.0,phase_2,stop,250.0,0.0,4.0,,,,,,,,,gray,I
0.0,4.0,4.0,0.0,5.0,5.0,547.6683229999253,8.0,1.0,phase_2,go,250.0,50.0,1.0,,,,,,,,,blue,triangle
0.0,6.0,1.0,1.0,5.0,5.0,583.8368919999084,8.0,1.0,phase_2,go,250.0,50.0,1.0,,,,,,,,,magenta,circle
0.0,2.0,1.0,0.0,6.0,6.0,727.7988480000204,8.0,1.0,phase_2,go,250.0,50.0,1.0,,,,,,,,,white,hexagon
0.0,1.0,0.5,0.0,5.0,5.0,323.9992979997623,8.0,1.0,phase_2,go,250.0,50.0,1.0,,,,,,,,,yellow,diamond
0.0,1.0,0.5,0.0,7.0,1.0,4499.470511000254,1.0,1.0,phase_3,,,,,196.0,4.0,196.0,147.0,294.0,245.0,49.0,98.0,yellow,diamond
0.0,2.0,1.0,0.0,7.0,4.0,1708.10370900017,1.0,2.0,phase_3,,,,,108.0,2.0,216.0,270.0,54.0,108.0,162.0,324.0,white,hexagon
0.0,2.0,1.0,0.0,7.0,5.0,2898.2423060006117,1.0,1.0,phase_3,,,,,170.0,5.0,34.0,68.0,136.0,204.0,170.0,102.0,white,hexagon
0.0,5.0,0.5,1.0,7.0,1.0,2089.112223000484,1.0,1.0,phase_3,,,,,195.0,5.0,195.0,117.0,78.0,234.0,39.0,156.0,gray,I
0.0,6.0,1.0,1.0,7.0,5.0,1950.8450190005533,1.0,1.0,phase_3,,,,,195.0,5.0,156.0,117.0,78.0,234.0,195.0,39.0,magenta,circle
0.0,8.0,4.0,1.0,7.0,2.0,3078.467190000083,1.0,1.0,phase_3,,,,,234.0,6.0,195.0,234.0,78.0,117.0,39.0,156.0,green,cross
0.0,4.0,4.0,0.0,7.0,2.0,1188.240750000659,1.0,1.0,phase_3,,,,,204.0,6.0,170.0,204.0,136.0,102.0,34.0,68.0,blue,triangle
0.0,7.0,2.0,1.0,7.0,3.0,1437.7781240000331,1.0,1.0,phase_3,,,,,216.0,4.0,108.0,162.0,216.0,270.0,54.0,324.0,cyan,square
0.0,1.0,0.5,0.0,7.0,3.0,791.4314509998803,1.0,1.0,phase_3,,,,,216.0,4.0,324.0,270.0,216.0,162.0,54.0,108.0,yellow,diamond
0.0,1.0,0.5,0.0,7.0,3.0,2528.3756199996787,1.0,1.0,phase_3,,,,,102.0,3.0,204.0,34.0,102.0,68.0,136.0,170.0,yellow,diamond
0.0,3.0,2.0,0.0,7.0,2.0,1375.857365000229,1.0,1.0,phase_3,,,,,245.0,5.0,147.0,245.0,49.0,196.0,98.0,294.0,orange,flipped triangle
0.0,7.0,2.0,1.0,7.0,4.0,1365.9603229998538,1.0,1.0,phase_3,,,,,117.0,3.0,156.0,195.0,78.0,117.0,39.0,234.0,cyan,square
0.0,1.0,0.5,0.0,7.0,4.0,929.1518980007822,1.0,1.0,phase_3,,,,,245.0,5.0,49.0,294.0,196.0,245.0,147.0,98.0,yellow,diamond
0.0,2.0,1.0,0.0,7.0,5.0,1636.9913959997575,1.0,1.0,phase_3,,,,,196.0,4.0,49.0,294.0,245.0,147.0,196.0,98.0,white,hexagon
0.0,4.0,4.0,0.0,7.0,5.0,631.809419000092,1.0,1.0,phase_3,,,,,102.0,3.0,68.0,170.0,34.0,136.0,102.0,204.0,blue,triangle
0.0,2.0,1.0,0.0,7.0,4.0,1071.26047499969,1.0,1.0,phase_3,,,,,147.0,3.0,245.0,98.0,49.0,147.0,294.0,196.0,white,hexagon
0.0,2.0,1.0,0.0,7.0,1.0,1608.733826000389,1.0,1.0,phase_3,,,,,176.0,4.0,176.0,264.0,44.0,132.0,220.0,88.0,white,hexagon
0.0,4.0,4.0,0.0,7.0,1.0,1894.9882729993988,1.0,1.0,phase_3,,,,,220.0,5.0,220.0,176.0,132.0,88.0,44.0,264.0,blue,triangle
0.0,6.0,1.0,1.0,7.0,1.0,1255.9508949998417,1.0,1.0,phase_3,,,,,162.0,3.0,162.0,324.0,108.0,270.0,216.0,54.0,magenta,circle
0.0,7.0,2.0,1.0,7.0,5.0,1225.064360000033,1.0,1.0,phase_3,,,,,264.0,6.0,176.0,132.0,44.0,88.0,264.0,220.0,cyan,square
0.0,3.0,2.0,0.0,7.0,4.0,888.1642119995377,2.0,1.0,phase_3,,,,,147.0,3.0,98.0,245.0,294.0,147.0,49.0,196.0,orange,flipped triangle
0.0,3.0,2.0,0.0,7.0,2.0,1132.4034549998032,2.0,1.0,phase_3,,,,,220.0,5.0,88.0,220.0,132.0,44.0,264.0,176.0,orange,flipped triangle
0.0,1.0,0.5,0.0,7.0,3.0,578.3162839998113,2.0,1.0,phase_3,,,,,132.0,3.0,264.0,88.0,132.0,44.0,220.0,176.0,yellow,diamond
0.0,7.0,2.0,1.0,7.0,3.0,599.1614750000736,2.0,1.0,phase_3,,,,,195.0,5.0,117.0,234.0,195.0,78.0,156.0,39.0,cyan,square
0.0,5.0,0.5,1.0,7.0,4.0,1431.852517000152,2.0,1.0,phase_3,,,,,176.0,4.0,88.0,264.0,44.0,176.0,220.0,132.0,gray,I
0.0,5.0,0.5,1.0,7.0,4.0,636.2249759995393,2.0,1.0,phase_3,,,,,147.0,3.0,49.0,196.0,98.0,147.0,294.0,245.0,gray,I
0.0,1.0,0.5,0.0,7.0,3.0,1513.1166029996166,2.0,1.0,phase_3,,,,,216.0,4.0,270.0,108.0,216.0,324.0,162.0,54.0,yellow,diamond
0.0,1.0,0.5,0.0,7.0,4.0,598.1965359997048,2.0,1.0,phase_3,,,,,136.0,4.0,170.0,204.0,68.0,136.0,34.0,102.0,yellow,diamond
0.0,2.0,1.0,0.0,7.0,3.0,832.270972000515,2.0,1.0,phase_3,,,,,220.0,5.0,176.0,44.0,220.0,264.0,132.0,88.0,white,hexagon
0.0,1.0,0.5,0.0,7.0,3.0,640.9067889999278,2.0,1.0,phase_3,,,,,195.0,5.0,117.0,156.0,195.0,78.0,234.0,39.0,yellow,diamond
0.0,8.0,4.0,1.0,7.0,4.0,776.0960420000629,2.0,1.0,phase_3,,,,,270.0,5.0,108.0,162.0,324.0,270.0,216.0,54.0,green,cross
0.0,8.0,4.0,1.0,7.0,4.0,592.556111999329,2.0,1.0,phase_3,,,,,216.0,4.0,324.0,270.0,108.0,216.0,162.0,54.0,green,cross
0.0,6.0,1.0,1.0,7.0,4.0,493.1524600006014,2.0,1.0,phase_3,,,,,204.0,6.0,34.0,102.0,68.0,204.0,136.0,170.0,magenta,circle
0.0,2.0,1.0,0.0,7.0,3.0,601.3390159996561,2.0,1.0,phase_3,,,,,324.0,6.0,216.0,162.0,324.0,54.0,270.0,108.0,white,hexagon
0.0,1.0,0.5,0.0,7.0,5.0,571.8430360002458,2.0,1.0,phase_3,,,,,234.0,6.0,78.0,156.0,195.0,39.0,234.0,117.0,yellow,diamond
0.0,6.0,1.0,1.0,7.0,2.0,742.9550639999434,2.0,1.0,phase_3,,,,,195.0,5.0,156.0,195.0,117.0,78.0,234.0,39.0,magenta,circle
0.0,7.0,2.0,1.0,7.0,3.0,668.200722999245,2.0,1.0,phase_3,,,,,162.0,3.0,270.0,108.0,162.0,54.0,324.0,216.0,cyan,square
0.0,6.0,1.0,1.0,7.0,1.0,1229.3353530003517,2.0,1.0,phase_3,,,,,245.0,5.0,245.0,147.0,98.0,196.0,294.0,49.0,magenta,circle
0.0,5.0,0.5,1.0,7.0,3.0,515.1384800001324,2.0,1.0,phase_3,,,,,204.0,6.0,102.0,34.0,204.0,170.0,136.0,68.0,gray,I
0.0,8.0,4.0,1.0,7.0,3.0,389.2170780000015,2.0,1.0,phase_3,,,,,294.0,6.0,245.0,196.0,294.0,147.0,98.0,49.0,green,cross
0.0,4.0,4.0,0.0,7.0,3.0,617.5177600007373,3.0,1.0,phase_3,,,,,270.0,5.0,54.0,108.0,270.0,216.0,162.0,324.0,blue,triangle
0.0,5.0,0.5,1.0,7.0,5.0,933.4477319998769,3.0,1.0,phase_3,,,,,156.0,4.0,195.0,234.0,78.0,39.0,156.0,117.0,gray,I
0.0,7.0,2.0,1.0,7.0,4.0,481.1892509997051,3.0,1.0,phase_3,,,,,68.0,2.0,136.0,34.0,102.0,68.0,204.0,170.0,cyan,square
0.0,8.0,4.0,1.0,7.0,3.0,464.406998999948,3.0,1.0,phase_3,,,,,132.0,3.0,44.0,264.0,132.0,220.0,176.0,88.0,green,cross
0.0,6.0,1.0,1.0,7.0,2.0,227.3097439992852,3.0,1.0,phase_3,,,,,132.0,3.0,44.0,132.0,264.0,88.0,220.0,176.0,magenta,circle
0.0,2.0,1.0,0.0,7.0,4.0,585.9939820002182,3.0,1.0,phase_3,,,,,195.0,5.0,78.0,234.0,39.0,195.0,117.0,156.0,white,hexagon
0.0,4.0,4.0,0.0,7.0,4.0,683.2958519999011,3.0,1.0,phase_3,,,,,245.0,5.0,294.0,49.0,98.0,245.0,196.0,147.0,blue,triangle
0.0,6.0,1.0,1.0,7.0,5.0,724.8430629997529,3.0,1.0,phase_3,,,,,196.0,4.0,245.0,294.0,98.0,49.0,196.0,147.0,magenta,circle
0.0,4.0,4.0,0.0,7.0,1.0,748.3802029992148,3.0,1.0,phase_3,,,,,324.0,6.0,324.0,270.0,108.0,216.0,54.0,162.0,blue,triangle
0.0,3.0,2.0,0.0,7.0,4.0,532.8097050005454,3.0,1.0,phase_3,,,,,204.0,6.0,102.0,68.0,136.0,204.0,170.0,34.0,orange,flipped triangle
0.0,3.0,2.0,0.0,7.0,3.0,612.8607720002037,3.0,1.0,phase_3,,,,,324.0,6.0,270.0,108.0,324.0,54.0,162.0,216.0,orange,flipped triangle
0.0,8.0,4.0,1.0,7.0,4.0,463.0889410000236,3.0,1.0,phase_3,,,,,204.0,6.0,170.0,136.0,68.0,204.0,34.0,102.0,green,cross
0.0,4.0,4.0,0.0,7.0,4.0,522.7977080003257,3.0,1.0,phase_3,,,,,195.0,5.0,156.0,234.0,117.0,195.0,78.0,39.0,blue,triangle
0.0,8.0,4.0,1.0,7.0,3.0,594.3186579997928,3.0,1.0,phase_3,,,,,264.0,6.0,220.0,44.0,264.0,88.0,176.0,132.0,green,cross
0.0,3.0,2.0,0.0,7.0,4.0,486.2010449996887,3.0,1.0,phase_3,,,,,78.0,2.0,195.0,156.0,117.0,78.0,234.0,39.0,orange,flipped triangle
0.0,8.0,4.0,1.0,7.0,4.0,578.8305790001687,3.0,1.0,phase_3,,,,,136.0,4.0,170.0,102.0,34.0,136.0,204.0,68.0,green,cross
0.0,5.0,0.5,1.0,7.0,3.0,612.123935999989,3.0,1.0,phase_3,,,,,108.0,2.0,270.0,162.0,108.0,54.0,216.0,324.0,gray,I
0.0,8.0,4.0,1.0,7.0,3.0,585.2789750006195,3.0,1.0,phase_3,,,,,117.0,3.0,78.0,195.0,117.0,39.0,234.0,156.0,green,cross
0.0,1.0,0.5,0.0,7.0,4.0,467.4390749996746,3.0,1.0,phase_3,,,,,220.0,5.0,264.0,132.0,176.0,220.0,44.0,88.0,yellow,diamond
0.0,3.0,2.0,0.0,7.0,3.0,698.8778060003824,3.0,1.0,phase_3,,,,,176.0,4.0,132.0,220.0,176.0,264.0,88.0,44.0,orange,flipped triangle
0.0,5.0,0.5,1.0,7.0,3.0,811.7084169998634,4.0,1.0,phase_3,,,,,264.0,6.0,176.0,88.0,264.0,132.0,220.0,44.0,gray,I
0.0,6.0,1.0,1.0,7.0,4.0,552.8724209998472,4.0,1.0,phase_3,,,,,176.0,4.0,132.0,88.0,220.0,176.0,44.0,264.0,magenta,circle
0.0,4.0,4.0,0.0,7.0,3.0,451.4237700004742,4.0,1.0,phase_3,,,,,234.0,6.0,117.0,78.0,234.0,195.0,39.0,156.0,blue,triangle
0.0,4.0,4.0,0.0,7.0,4.0,472.4610920002305,4.0,1.0,phase_3,,,,,220.0,5.0,264.0,132.0,176.0,220.0,88.0,44.0,blue,triangle
0.0,5.0,0.5,1.0,7.0,4.0,527.1838889993887,4.0,1.0,phase_3,,,,,294.0,6.0,98.0,147.0,49.0,294.0,245.0,196.0,gray,I
0.0,7.0,2.0,1.0,7.0,3.0,593.5781589996623,4.0,1.0,phase_3,,,,,34.0,1.0,170.0,102.0,34.0,68.0,136.0,204.0,cyan,square
0.0,7.0,2.0,1.0,7.0,4.0,710.5085590001181,4.0,1.0,phase_3,,,,,49.0,1.0,294.0,98.0,196.0,49.0,147.0,245.0,cyan,square
0.0,2.0,1.0,0.0,7.0,3.0,471.8262540000069,4.0,1.0,phase_3,,,,,39.0,1.0,156.0,78.0,39.0,117.0,234.0,195.0,white,hexagon
0.0,3.0,2.0,0.0,7.0,4.0,612.9450340004041,4.0,1.0,phase_3,,,,,270.0,5.0,54.0,108.0,324.0,270.0,162.0,216.0,orange,flipped triangle
0.0,6.0,1.0,1.0,7.0,4.0,727.8940589994818,4.0,1.0,phase_3,,,,,68.0,2.0,170.0,204.0,102.0,68.0,34.0,136.0,magenta,circle
0.0,3.0,2.0,0.0,7.0,3.0,518.2151290000547,4.0,1.0,phase_3,,,,,156.0,4.0,195.0,234.0,156.0,117.0,78.0,39.0,orange,flipped triangle
0.0,8.0,4.0,1.0,7.0,4.0,648.9450839999336,4.0,1.0,phase_3,,,,,196.0,4.0,294.0,245.0,98.0,196.0,147.0,49.0,green,cross
0.0,7.0,2.0,1.0,7.0,6.0,1549.6738460005872,4.0,1.0,phase_3,,,,,220.0,5.0,88.0,176.0,264.0,44.0,132.0,220.0,cyan,square
0.0,6.0,1.0,1.0,7.0,4.0,922.665178999523,4.0,1.0,phase_3,,,,,216.0,4.0,324.0,54.0,108.0,216.0,270.0,162.0,magenta,circle
0.0,2.0,1.0,0.0,7.0,3.0,1082.996611999988,4.0,1.0,phase_3,,,,,102.0,3.0,204.0,68.0,102.0,34.0,136.0,170.0,white,hexagon
0.0,5.0,0.5,1.0,7.0,4.0,535.8346370003346,4.0,1.0,phase_3,,,,,270.0,5.0,54.0,324.0,108.0,270.0,162.0,216.0,gray,I
0.0,7.0,2.0,1.0,7.0,4.0,717.766476000179,4.0,1.0,phase_3,,,,,245.0,5.0,147.0,196.0,294.0,245.0,49.0,98.0,cyan,square
0.0,5.0,0.5,1.0,7.0,3.0,601.4330580001115,4.0,1.0,phase_3,,,,,136.0,4.0,204.0,68.0,136.0,34.0,170.0,102.0,gray,I
0.0,3.0,2.0,0.0,7.0,3.0,892.5099179996323,4.0,1.0,phase_3,,,,,136.0,4.0,34.0,68.0,136.0,102.0,204.0,170.0,orange,flipped triangle
0.0,4.0,4.0,0.0,7.0,4.0,870.6575819996942,4.0,1.0,phase_3,,,,,147.0,3.0,196.0,245.0,294.0,147.0,98.0,49.0,blue,triangle
