raw_reward_magnitude,stim_reward,stepwise_reward_magnitude,paired_with_stopping,quadrant,response,reaction_time,block,num_trial_presentations,which_part,stop_signal_trial_type,left_SSD,right_SSD,accuracy,chosen_bidding_amount,chosen_bidding_level,possible_bid_1,possible_bid_2,possible_bid_3,possible_bid_4,possible_bid_5,possible_bid_6,color_text,shape_text
390.0,8.0,4.0,1.0,3.0,3.0,451.4879289999953,1.0,1.0,part_1,,,,,,,,,,,,,yellow,diamond
88.0,2.0,2.0,0.0,1.0,1.0,331.5754200000356,1.0,1.0,part_1,,,,,,,,,,,,,magenta,square
115.0,2.0,2.0,0.0,4.0,4.0,308.2000090000747,1.0,1.0,part_1,,,,,,,,,,,,,magenta,square
182.0,7.0,3.0,1.0,4.0,4.0,366.945036000061,1.0,1.0,part_1,,,,,,,,,,,,,blue,cross
409.0,4.0,4.0,0.0,4.0,4.0,350.515507999944,1.0,1.0,part_1,,,,,,,,,,,,,green,circle
0.0,3.0,0.0,0.0,3.0,3.0,370.8489749999444,1.0,1.0,part_1,,,,,,,,,,,,,cyan,I
44.0,1.0,1.0,0.0,2.0,2.0,339.4233320000239,1.0,1.0,part_1,,,,,,,,,,,,,white,flipped triangle
213.0,7.0,3.0,1.0,4.0,4.0,368.1946490000882,1.0,1.0,part_1,,,,,,,,,,,,,blue,cross
125.0,2.0,2.0,0.0,1.0,1.0,279.6023900000364,1.0,1.0,part_1,,,,,,,,,,,,,magenta,square
189.0,7.0,3.0,1.0,2.0,2.0,384.9606090000179,1.0,1.0,part_1,,,,,,,,,,,,,blue,cross
0.0,2.0,0.0,0.0,2.0,2.0,308.03087100002807,1.0,1.0,part_1,,,,,,,,,,,,,magenta,square
418.0,4.0,4.0,0.0,2.0,2.0,336.2576470001386,1.0,1.0,part_1,,,,,,,,,,,,,green,circle
418.0,8.0,4.0,1.0,1.0,1.0,275.0889169999482,1.0,1.0,part_1,,,,,,,,,,,,,yellow,diamond
215.0,7.0,3.0,1.0,3.0,3.0,340.6881270000212,1.0,1.0,part_1,,,,,,,,,,,,,blue,cross
66.0,5.0,1.0,1.0,4.0,4.0,308.7986519999504,1.0,1.0,part_1,,,,,,,,,,,,,gray,hexagon
100.0,2.0,2.0,0.0,3.0,3.0,363.9049560001695,1.0,1.0,part_1,,,,,,,,,,,,,magenta,square
98.0,2.0,2.0,0.0,2.0,2.0,304.9156250001488,1.0,1.0,part_1,,,,,,,,,,,,,magenta,square
109.0,6.0,2.0,1.0,3.0,3.0,339.7017049999249,1.0,1.0,part_1,,,,,,,,,,,,,orange,triangle
100.0,2.0,2.0,0.0,2.0,2.0,245.3351080000629,1.0,1.0,part_1,,,,,,,,,,,,,magenta,square
390.0,8.0,4.0,1.0,3.0,3.0,301.2876809998488,1.0,1.0,part_1,,,,,,,,,,,,,yellow,diamond
40.0,1.0,1.0,0.0,3.0,3.0,286.6787499999645,1.0,1.0,part_1,,,,,,,,,,,,,white,flipped triangle
101.0,6.0,2.0,1.0,1.0,1.0,263.8172580000173,1.0,1.0,part_1,,,,,,,,,,,,,orange,triangle
407.0,8.0,4.0,1.0,4.0,4.0,346.9784999999774,1.0,1.0,part_1,,,,,,,,,,,,,yellow,diamond
115.0,6.0,2.0,1.0,2.0,2.0,263.886421999814,1.0,1.0,part_1,,,,,,,,,,,,,orange,triangle
0.0,2.0,0.0,0.0,2.0,2.0,346.476808000034,1.0,1.0,part_1,,,,,,,,,,,,,magenta,square
420.0,4.0,4.0,0.0,1.0,1.0,335.9037000000171,1.0,1.0,part_1,,,,,,,,,,,,,green,circle
98.0,6.0,2.0,1.0,2.0,2.0,313.3872569999312,1.0,1.0,part_1,,,,,,,,,,,,,orange,triangle
0.0,7.0,0.0,1.0,2.0,2.0,287.0980430000145,1.0,1.0,part_1,,,,,,,,,,,,,blue,cross
189.0,3.0,3.0,0.0,1.0,1.0,286.9166349998977,1.0,1.0,part_1,,,,,,,,,,,,,cyan,I
98.0,6.0,2.0,1.0,3.0,3.0,376.9400749999931,1.0,1.0,part_1,,,,,,,,,,,,,orange,triangle
90.0,2.0,2.0,0.0,4.0,4.0,369.5923520001543,1.0,1.0,part_1,,,,,,,,,,,,,magenta,square
415.0,4.0,4.0,0.0,2.0,2.0,264.4570590000512,1.0,1.0,part_1,,,,,,,,,,,,,green,circle
0.0,3.0,0.0,0.0,2.0,2.0,312.1650269999918,1.0,1.0,part_1,,,,,,,,,,,,,cyan,I
98.0,2.0,2.0,0.0,2.0,2.0,302.7608639999926,1.0,1.0,part_1,,,,,,,,,,,,,magenta,square
222.0,3.0,3.0,0.0,1.0,1.0,288.6737999999695,1.0,1.0,part_1,,,,,,,,,,,,,cyan,I
0.0,6.0,0.0,1.0,1.0,1.0,383.2986379998147,1.0,1.0,part_1,,,,,,,,,,,,,orange,triangle
116.0,6.0,2.0,1.0,1.0,1.0,305.7033000000047,1.0,1.0,part_1,,,,,,,,,,,,,orange,triangle
60.0,5.0,1.0,1.0,4.0,4.0,343.2796130000497,1.0,1.0,part_1,,,,,,,,,,,,,gray,hexagon
114.0,2.0,2.0,0.0,3.0,3.0,428.5571940001773,1.0,1.0,part_1,,,,,,,,,,,,,magenta,square
95.0,2.0,2.0,0.0,4.0,4.0,444.5292309999331,1.0,2.0,part_1,,,,,,,,,,,,,magenta,square
0.0,8.0,0.0,1.0,1.0,1.0,301.413415999832,1.0,1.0,part_1,,,,,,,,,,,,,yellow,diamond
35.0,1.0,1.0,0.0,4.0,4.0,333.5053719999905,1.0,1.0,part_1,,,,,,,,,,,,,white,flipped triangle
199.0,3.0,3.0,0.0,2.0,2.0,272.2768810001525,1.0,1.0,part_1,,,,,,,,,,,,,cyan,I
206.0,3.0,3.0,0.0,4.0,4.0,341.167519999999,1.0,1.0,part_1,,,,,,,,,,,,,cyan,I
104.0,6.0,2.0,1.0,4.0,4.0,428.9367099997889,1.0,1.0,part_1,,,,,,,,,,,,,orange,triangle
102.0,2.0,2.0,0.0,4.0,4.0,374.5883180001783,1.0,1.0,part_1,,,,,,,,,,,,,magenta,square
206.0,3.0,3.0,0.0,3.0,3.0,341.41287500006,1.0,1.0,part_1,,,,,,,,,,,,,cyan,I
69.0,5.0,1.0,1.0,2.0,2.0,315.574437000123,1.0,1.0,part_1,,,,,,,,,,,,,gray,hexagon
183.0,3.0,3.0,0.0,2.0,2.0,352.1950030001335,1.0,1.0,part_1,,,,,,,,,,,,,cyan,I
0.0,6.0,0.0,1.0,4.0,4.0,315.6977349999579,1.0,1.0,part_1,,,,,,,,,,,,,orange,triangle
55.0,5.0,1.0,1.0,2.0,2.0,431.8738659999326,1.0,1.0,part_1,,,,,,,,,,,,,gray,hexagon
414.0,8.0,4.0,1.0,1.0,1.0,344.5607510000172,1.0,1.0,part_1,,,,,,,,,,,,,yellow,diamond
413.0,8.0,4.0,1.0,3.0,3.0,268.8921559999926,1.0,1.0,part_1,,,,,,,,,,,,,yellow,diamond
179.0,7.0,3.0,1.0,3.0,3.0,440.7192879998547,1.0,1.0,part_1,,,,,,,,,,,,,blue,cross
0.0,1.0,0.0,0.0,2.0,2.0,358.6770009999327,1.0,1.0,part_1,,,,,,,,,,,,,white,flipped triangle
200.0,3.0,3.0,0.0,1.0,1.0,399.9371620000147,1.0,1.0,part_1,,,,,,,,,,,,,cyan,I
0.0,6.0,0.0,1.0,4.0,4.0,274.0350659998967,1.0,1.0,part_1,,,,,,,,,,,,,orange,triangle
214.0,3.0,3.0,0.0,2.0,2.0,291.0758789998908,1.0,1.0,part_1,,,,,,,,,,,,,cyan,I
0.0,1.0,0.0,0.0,3.0,3.0,322.851073000038,1.0,1.0,part_1,,,,,,,,,,,,,white,flipped triangle
75.0,2.0,2.0,0.0,2.0,2.0,318.3193449999635,1.0,1.0,part_1,,,,,,,,,,,,,magenta,square
192.0,7.0,3.0,1.0,4.0,4.0,310.0112810000155,1.0,1.0,part_1,,,,,,,,,,,,,blue,cross
224.0,3.0,3.0,0.0,4.0,4.0,313.7742559999878,1.0,1.0,part_1,,,,,,,,,,,,,cyan,I
70.0,1.0,1.0,0.0,2.0,2.0,323.4998440000254,1.0,1.0,part_1,,,,,,,,,,,,,white,flipped triangle
420.0,4.0,4.0,0.0,2.0,2.0,417.6772759999494,1.0,1.0,part_1,,,,,,,,,,,,,green,circle
0.0,2.0,0.0,0.0,1.0,1.0,414.8900630000298,1.0,1.0,part_1,,,,,,,,,,,,,magenta,square
73.0,5.0,1.0,1.0,3.0,3.0,358.7399689999984,1.0,1.0,part_1,,,,,,,,,,,,,gray,hexagon
386.0,8.0,4.0,1.0,2.0,2.0,297.1775579999303,1.0,1.0,part_1,,,,,,,,,,,,,yellow,diamond
0.0,7.0,0.0,1.0,2.0,2.0,406.555808000121,1.0,1.0,part_1,,,,,,,,,,,,,blue,cross
107.0,6.0,2.0,1.0,3.0,3.0,290.9634769998774,1.0,1.0,part_1,,,,,,,,,,,,,orange,triangle
191.0,7.0,3.0,1.0,4.0,4.0,323.7693910000416,1.0,2.0,part_1,,,,,,,,,,,,,blue,cross
28.0,5.0,1.0,1.0,2.0,2.0,424.1282109999247,1.0,1.0,part_1,,,,,,,,,,,,,gray,hexagon
205.0,7.0,3.0,1.0,2.0,2.0,298.9316180000969,1.0,1.0,part_1,,,,,,,,,,,,,blue,cross
55.0,1.0,1.0,0.0,3.0,3.0,290.520018000052,1.0,1.0,part_1,,,,,,,,,,,,,white,flipped triangle
66.0,1.0,1.0,0.0,3.0,3.0,413.8335269999516,1.0,1.0,part_1,,,,,,,,,,,,,white,flipped triangle
48.0,5.0,1.0,1.0,2.0,2.0,337.8555269998742,1.0,1.0,part_1,,,,,,,,,,,,,gray,hexagon
181.0,7.0,3.0,1.0,2.0,2.0,394.033871999909,1.0,1.0,part_1,,,,,,,,,,,,,blue,cross
106.0,6.0,2.0,1.0,2.0,2.0,385.0974760000554,1.0,1.0,part_1,,,,,,,,,,,,,orange,triangle
420.0,4.0,4.0,0.0,4.0,4.0,359.6914319998632,1.0,1.0,part_1,,,,,,,,,,,,,green,circle
75.0,6.0,2.0,1.0,1.0,1.0,315.903106000178,1.0,1.0,part_1,,,,,,,,,,,,,orange,triangle
55.0,1.0,1.0,0.0,1.0,1.0,368.6071740000898,1.0,1.0,part_1,,,,,,,,,,,,,white,flipped triangle
189.0,3.0,3.0,0.0,2.0,2.0,333.6953240000184,1.0,1.0,part_1,,,,,,,,,,,,,cyan,I
42.0,5.0,1.0,1.0,4.0,4.0,353.5357030000341,1.0,1.0,part_1,,,,,,,,,,,,,gray,hexagon
190.0,3.0,3.0,0.0,2.0,2.0,332.9718239999693,1.0,1.0,part_1,,,,,,,,,,,,,cyan,I
88.0,6.0,2.0,1.0,2.0,2.0,336.2982779999584,1.0,1.0,part_1,,,,,,,,,,,,,orange,triangle
0.0,7.0,0.0,1.0,4.0,4.0,344.5918350000738,1.0,1.0,part_1,,,,,,,,,,,,,blue,cross
392.0,4.0,4.0,0.0,2.0,2.0,276.5069269999003,1.0,1.0,part_1,,,,,,,,,,,,,green,circle
388.0,4.0,4.0,0.0,1.0,1.0,386.2405240001862,1.0,1.0,part_1,,,,,,,,,,,,,green,circle
410.0,8.0,4.0,1.0,2.0,2.0,355.2696730000662,1.0,1.0,part_1,,,,,,,,,,,,,yellow,diamond
0.0,1.0,0.0,0.0,4.0,4.0,367.6512590000129,1.0,1.0,part_1,,,,,,,,,,,,,white,flipped triangle
55.0,5.0,1.0,1.0,4.0,4.0,409.5843260001857,1.0,1.0,part_1,,,,,,,,,,,,,gray,hexagon
377.0,8.0,4.0,1.0,4.0,4.0,310.2222830000301,1.0,1.0,part_1,,,,,,,,,,,,,yellow,diamond
206.0,7.0,3.0,1.0,2.0,2.0,293.8415429998713,1.0,1.0,part_1,,,,,,,,,,,,,blue,cross
192.0,3.0,3.0,0.0,3.0,3.0,385.1904670000294,1.0,1.0,part_1,,,,,,,,,,,,,cyan,I
386.0,4.0,4.0,0.0,3.0,3.0,393.3111789999657,1.0,1.0,part_1,,,,,,,,,,,,,green,circle
199.0,7.0,3.0,1.0,3.0,3.0,325.5765999999767,1.0,1.0,part_1,,,,,,,,,,,,,blue,cross
48.0,1.0,1.0,0.0,1.0,1.0,344.2546670000865,1.0,1.0,part_1,,,,,,,,,,,,,white,flipped triangle
402.0,8.0,4.0,1.0,1.0,1.0,325.2041190000909,1.0,1.0,part_1,,,,,,,,,,,,,yellow,diamond
409.0,8.0,4.0,1.0,3.0,3.0,357.2361849999197,1.0,1.0,part_1,,,,,,,,,,,,,yellow,diamond
0.0,1.0,0.0,0.0,3.0,3.0,359.9593369999638,1.0,1.0,part_1,,,,,,,,,,,,,white,flipped triangle
0.0,3.0,0.0,0.0,1.0,1.0,281.1480199998186,1.0,1.0,part_1,,,,,,,,,,,,,cyan,I
34.0,5.0,1.0,1.0,3.0,3.0,428.1963560001713,2.0,1.0,part_1,,,,,,,,,,,,,gray,hexagon
379.0,4.0,4.0,0.0,4.0,4.0,379.39720400027,2.0,1.0,part_1,,,,,,,,,,,,,green,circle
105.0,2.0,2.0,0.0,3.0,3.0,301.7212830000062,2.0,1.0,part_1,,,,,,,,,,,,,magenta,square
0.0,4.0,0.0,0.0,1.0,1.0,364.1811740003504,2.0,1.0,part_1,,,,,,,,,,,,,green,circle
65.0,5.0,1.0,1.0,2.0,2.0,290.855140000076,2.0,1.0,part_1,,,,,,,,,,,,,gray,hexagon
69.0,5.0,1.0,1.0,4.0,4.0,337.1709190000729,2.0,1.0,part_1,,,,,,,,,,,,,gray,hexagon
420.0,8.0,4.0,1.0,2.0,2.0,298.3839310004441,2.0,1.0,part_1,,,,,,,,,,,,,yellow,diamond
414.0,4.0,4.0,0.0,4.0,4.0,330.8554059999551,2.0,1.0,part_1,,,,,,,,,,,,,green,circle
199.0,7.0,3.0,1.0,1.0,1.0,309.4091120001394,2.0,1.0,part_1,,,,,,,,,,,,,blue,cross
27.0,1.0,1.0,0.0,2.0,2.0,383.0632340000193,2.0,1.0,part_1,,,,,,,,,,,,,white,flipped triangle
0.0,8.0,0.0,1.0,2.0,2.0,389.3393219996142,2.0,1.0,part_1,,,,,,,,,,,,,yellow,diamond
413.0,4.0,4.0,0.0,3.0,3.0,339.3784120003147,2.0,1.0,part_1,,,,,,,,,,,,,green,circle
73.0,1.0,1.0,0.0,2.0,2.0,379.8470570000063,2.0,1.0,part_1,,,,,,,,,,,,,white,flipped triangle
196.0,3.0,3.0,0.0,3.0,3.0,339.2359700001179,2.0,1.0,part_1,,,,,,,,,,,,,cyan,I
407.0,4.0,4.0,0.0,2.0,2.0,314.1134409997903,2.0,1.0,part_1,,,,,,,,,,,,,green,circle
420.0,8.0,4.0,1.0,2.0,2.0,352.0799430002626,2.0,1.0,part_1,,,,,,,,,,,,,yellow,diamond
34.0,5.0,1.0,1.0,3.0,3.0,382.1024769999894,2.0,1.0,part_1,,,,,,,,,,,,,gray,hexagon
401.0,4.0,4.0,0.0,4.0,4.0,484.3606509998608,2.0,1.0,part_1,,,,,,,,,,,,,green,circle
0.0,3.0,0.0,0.0,3.0,3.0,387.3590329999388,2.0,1.0,part_1,,,,,,,,,,,,,cyan,I
95.0,2.0,2.0,0.0,1.0,1.0,415.9377669998321,2.0,1.0,part_1,,,,,,,,,,,,,magenta,square
44.0,1.0,1.0,0.0,4.0,4.0,377.7448579999145,2.0,1.0,part_1,,,,,,,,,,,,,white,flipped triangle
423.0,4.0,4.0,0.0,3.0,3.0,389.3090309998115,2.0,1.0,part_1,,,,,,,,,,,,,green,circle
77.0,6.0,2.0,1.0,4.0,4.0,355.2815339999142,2.0,1.0,part_1,,,,,,,,,,,,,orange,triangle
221.0,3.0,3.0,0.0,3.0,3.0,392.0962839997628,2.0,1.0,part_1,,,,,,,,,,,,,cyan,I
191.0,3.0,3.0,0.0,2.0,2.0,323.3535730000767,2.0,1.0,part_1,,,,,,,,,,,,,cyan,I
82.0,2.0,2.0,0.0,2.0,2.0,340.3597670003364,2.0,1.0,part_1,,,,,,,,,,,,,magenta,square
210.0,3.0,3.0,0.0,4.0,4.0,366.4170780002678,2.0,1.0,part_1,,,,,,,,,,,,,cyan,I
40.0,5.0,1.0,1.0,3.0,3.0,320.4885029999786,2.0,1.0,part_1,,,,,,,,,,,,,gray,hexagon
104.0,6.0,2.0,1.0,4.0,4.0,311.2682559999484,2.0,1.0,part_1,,,,,,,,,,,,,orange,triangle
386.0,8.0,4.0,1.0,1.0,1.0,311.037725999995,2.0,1.0,part_1,,,,,,,,,,,,,yellow,diamond
178.0,7.0,3.0,1.0,1.0,1.0,325.8495899999616,2.0,1.0,part_1,,,,,,,,,,,,,blue,cross
73.0,1.0,1.0,0.0,2.0,2.0,251.3605879998977,2.0,1.0,part_1,,,,,,,,,,,,,white,flipped triangle
393.0,8.0,4.0,1.0,4.0,4.0,365.3739060000589,2.0,1.0,part_1,,,,,,,,,,,,,yellow,diamond
62.0,1.0,1.0,0.0,4.0,4.0,386.3984319996234,2.0,1.0,part_1,,,,,,,,,,,,,white,flipped triangle
88.0,6.0,2.0,1.0,3.0,3.0,439.2386650001754,2.0,1.0,part_1,,,,,,,,,,,,,orange,triangle
0.0,4.0,0.0,0.0,2.0,2.0,294.2001720002736,2.0,1.0,part_1,,,,,,,,,,,,,green,circle
0.0,1.0,0.0,0.0,1.0,1.0,389.8621769999408,2.0,1.0,part_1,,,,,,,,,,,,,white,flipped triangle
34.0,1.0,1.0,0.0,1.0,1.0,361.7722459998731,2.0,1.0,part_1,,,,,,,,,,,,,white,flipped triangle
205.0,3.0,3.0,0.0,3.0,3.0,333.397474999856,2.0,1.0,part_1,,,,,,,,,,,,,cyan,I
183.0,3.0,3.0,0.0,4.0,4.0,361.1252960004094,2.0,1.0,part_1,,,,,,,,,,,,,cyan,I
0.0,7.0,0.0,1.0,1.0,1.0,332.2798939998392,2.0,1.0,part_1,,,,,,,,,,,,,blue,cross
0.0,5.0,0.0,1.0,4.0,4.0,376.9427520001045,2.0,1.0,part_1,,,,,,,,,,,,,gray,hexagon
104.0,2.0,2.0,0.0,3.0,3.0,386.6716799998357,2.0,1.0,part_1,,,,,,,,,,,,,magenta,square
209.0,3.0,3.0,0.0,4.0,4.0,355.6012829999417,2.0,1.0,part_1,,,,,,,,,,,,,cyan,I
48.0,1.0,1.0,0.0,1.0,1.0,298.223925000002,2.0,1.0,part_1,,,,,,,,,,,,,white,flipped triangle
0.0,7.0,0.0,1.0,3.0,3.0,289.6174849997806,2.0,1.0,part_1,,,,,,,,,,,,,blue,cross
410.0,4.0,4.0,0.0,1.0,1.0,342.0375140003671,2.0,1.0,part_1,,,,,,,,,,,,,green,circle
44.0,5.0,1.0,1.0,1.0,1.0,412.1338800000558,2.0,1.0,part_1,,,,,,,,,,,,,gray,hexagon
423.0,4.0,4.0,0.0,4.0,4.0,382.108356000117,2.0,1.0,part_1,,,,,,,,,,,,,green,circle
218.0,7.0,3.0,1.0,1.0,1.0,340.5273339999439,2.0,1.0,part_1,,,,,,,,,,,,,blue,cross
0.0,5.0,0.0,1.0,4.0,4.0,348.2296610000048,2.0,1.0,part_1,,,,,,,,,,,,,gray,hexagon
388.0,8.0,4.0,1.0,1.0,1.0,274.9767740001516,2.0,1.0,part_1,,,,,,,,,,,,,yellow,diamond
393.0,4.0,4.0,0.0,4.0,4.0,301.5558229999442,2.0,1.0,part_1,,,,,,,,,,,,,green,circle
104.0,2.0,2.0,0.0,1.0,1.0,354.3762439999227,2.0,1.0,part_1,,,,,,,,,,,,,magenta,square
0.0,2.0,0.0,0.0,2.0,2.0,384.745734000262,2.0,1.0,part_1,,,,,,,,,,,,,magenta,square
384.0,8.0,4.0,1.0,1.0,1.0,367.1785379997345,2.0,1.0,part_1,,,,,,,,,,,,,yellow,diamond
222.0,7.0,3.0,1.0,2.0,2.0,303.1114180002987,2.0,1.0,part_1,,,,,,,,,,,,,blue,cross
51.0,1.0,1.0,0.0,1.0,1.0,337.0691200002511,2.0,1.0,part_1,,,,,,,,,,,,,white,flipped triangle
50.0,1.0,1.0,0.0,4.0,4.0,374.6032430003652,2.0,1.0,part_1,,,,,,,,,,,,,white,flipped triangle
0.0,8.0,0.0,1.0,1.0,1.0,287.5237030002608,2.0,1.0,part_1,,,,,,,,,,,,,yellow,diamond
0.0,4.0,0.0,0.0,4.0,4.0,447.5564970002779,2.0,1.0,part_1,,,,,,,,,,,,,green,circle
223.0,7.0,3.0,1.0,2.0,2.0,302.3794030000317,2.0,1.0,part_1,,,,,,,,,,,,,blue,cross
415.0,8.0,4.0,1.0,3.0,3.0,281.1389990001771,2.0,1.0,part_1,,,,,,,,,,,,,yellow,diamond
206.0,7.0,3.0,1.0,3.0,3.0,362.739799999872,2.0,1.0,part_1,,,,,,,,,,,,,blue,cross
93.0,2.0,2.0,0.0,4.0,4.0,343.6891690002994,2.0,1.0,part_1,,,,,,,,,,,,,magenta,square
408.0,8.0,4.0,1.0,2.0,2.0,380.8256580000488,2.0,1.0,part_1,,,,,,,,,,,,,yellow,diamond
397.0,4.0,4.0,0.0,2.0,2.0,333.8007809998089,2.0,1.0,part_1,,,,,,,,,,,,,green,circle
74.0,5.0,1.0,1.0,4.0,4.0,377.2938530000829,2.0,1.0,part_1,,,,,,,,,,,,,gray,hexagon
44.0,5.0,1.0,1.0,2.0,2.0,250.32511899962628,2.0,1.0,part_1,,,,,,,,,,,,,gray,hexagon
381.0,8.0,4.0,1.0,2.0,2.0,354.3338059998859,2.0,1.0,part_1,,,,,,,,,,,,,yellow,diamond
65.0,1.0,1.0,0.0,2.0,2.0,259.3298189999586,2.0,1.0,part_1,,,,,,,,,,,,,white,flipped triangle
209.0,7.0,3.0,1.0,2.0,2.0,454.678567999963,2.0,1.0,part_1,,,,,,,,,,,,,blue,cross
423.0,8.0,4.0,1.0,1.0,1.0,339.0065099997628,2.0,1.0,part_1,,,,,,,,,,,,,yellow,diamond
218.0,3.0,3.0,0.0,3.0,3.0,335.3813379999337,2.0,1.0,part_1,,,,,,,,,,,,,cyan,I
182.0,3.0,3.0,0.0,2.0,2.0,262.4337069996727,2.0,1.0,part_1,,,,,,,,,,,,,cyan,I
76.0,2.0,2.0,0.0,1.0,1.0,290.0289359999988,2.0,1.0,part_1,,,,,,,,,,,,,magenta,square
105.0,6.0,2.0,1.0,1.0,1.0,284.0104390002125,2.0,1.0,part_1,,,,,,,,,,,,,orange,triangle
0.0,1.0,0.0,0.0,2.0,2.0,264.7308129999146,2.0,1.0,part_1,,,,,,,,,,,,,white,flipped triangle
403.0,8.0,4.0,1.0,4.0,4.0,321.9886419997237,2.0,1.0,part_1,,,,,,,,,,,,,yellow,diamond
106.0,2.0,2.0,0.0,4.0,4.0,371.3545770001474,2.0,1.0,part_1,,,,,,,,,,,,,magenta,square
382.0,4.0,4.0,0.0,3.0,3.0,357.0529319999878,2.0,1.0,part_1,,,,,,,,,,,,,green,circle
73.0,5.0,1.0,1.0,4.0,4.0,367.0814840002094,2.0,1.0,part_1,,,,,,,,,,,,,gray,hexagon
0.0,5.0,0.0,1.0,1.0,1.0,338.8557520001996,2.0,1.0,part_1,,,,,,,,,,,,,gray,hexagon
198.0,7.0,3.0,1.0,1.0,1.0,389.9479330002577,2.0,1.0,part_1,,,,,,,,,,,,,blue,cross
0.0,8.0,0.0,1.0,3.0,3.0,340.3114819998336,2.0,1.0,part_1,,,,,,,,,,,,,yellow,diamond
97.0,2.0,2.0,0.0,1.0,1.0,314.7305630000119,2.0,1.0,part_1,,,,,,,,,,,,,magenta,square
96.0,6.0,2.0,1.0,4.0,4.0,333.6508980000872,2.0,1.0,part_1,,,,,,,,,,,,,orange,triangle
187.0,3.0,3.0,0.0,2.0,2.0,244.0622679996522,2.0,1.0,part_1,,,,,,,,,,,,,cyan,I
113.0,6.0,2.0,1.0,4.0,4.0,355.931640000108,2.0,1.0,part_1,,,,,,,,,,,,,orange,triangle
382.0,8.0,4.0,1.0,3.0,3.0,370.46219299963917,2.0,1.0,part_1,,,,,,,,,,,,,yellow,diamond
0.0,1.0,0.0,0.0,1.0,1.0,294.7315010001148,2.0,1.0,part_1,,,,,,,,,,,,,white,flipped triangle
27.0,1.0,1.0,0.0,4.0,4.0,415.6733469999381,2.0,1.0,part_1,,,,,,,,,,,,,white,flipped triangle
125.0,6.0,2.0,1.0,4.0,4.0,353.0869989999701,2.0,1.0,part_1,,,,,,,,,,,,,orange,triangle
90.0,2.0,2.0,0.0,1.0,1.0,279.00629499981727,2.0,1.0,part_1,,,,,,,,,,,,,magenta,square
407.0,8.0,4.0,1.0,4.0,4.0,256.2389340000663,2.0,1.0,part_1,,,,,,,,,,,,,yellow,diamond
100.0,6.0,2.0,1.0,1.0,1.0,328.3126450000964,2.0,1.0,part_1,,,,,,,,,,,,,orange,triangle
74.0,1.0,1.0,0.0,3.0,3.0,315.6031559997245,2.0,1.0,part_1,,,,,,,,,,,,,white,flipped triangle
88.0,2.0,2.0,0.0,2.0,2.0,387.2845930000039,2.0,1.0,part_1,,,,,,,,,,,,,magenta,square
219.0,3.0,3.0,0.0,1.0,1.0,353.2592460001069,2.0,1.0,part_1,,,,,,,,,,,,,cyan,I
50.0,1.0,1.0,0.0,1.0,1.0,291.789375999997,2.0,1.0,part_1,,,,,,,,,,,,,white,flipped triangle
113.0,2.0,2.0,0.0,3.0,3.0,402.5090039999668,3.0,1.0,part_1,,,,,,,,,,,,,magenta,square
123.0,6.0,2.0,1.0,3.0,3.0,349.8281309998674,3.0,1.0,part_1,,,,,,,,,,,,,orange,triangle
0.0,6.0,0.0,1.0,4.0,4.0,300.9546550001687,3.0,1.0,part_1,,,,,,,,,,,,,orange,triangle
112.0,2.0,2.0,0.0,4.0,4.0,343.3289079998758,3.0,1.0,part_1,,,,,,,,,,,,,magenta,square
48.0,5.0,1.0,1.0,2.0,2.0,315.5079200000728,3.0,1.0,part_1,,,,,,,,,,,,,gray,hexagon
34.0,5.0,1.0,1.0,4.0,4.0,343.4277200003635,3.0,1.0,part_1,,,,,,,,,,,,,gray,hexagon
0.0,5.0,0.0,1.0,1.0,1.0,288.1941040000129,3.0,1.0,part_1,,,,,,,,,,,,,gray,hexagon
111.0,6.0,2.0,1.0,4.0,4.0,248.5276349998457,3.0,1.0,part_1,,,,,,,,,,,,,orange,triangle
223.0,3.0,3.0,0.0,4.0,4.0,334.8204130002159,3.0,1.0,part_1,,,,,,,,,,,,,cyan,I
27.0,5.0,1.0,1.0,1.0,1.0,314.9707359998501,3.0,1.0,part_1,,,,,,,,,,,,,gray,hexagon
0.0,3.0,0.0,0.0,2.0,2.0,320.3035080000518,3.0,1.0,part_1,,,,,,,,,,,,,cyan,I
0.0,3.0,0.0,0.0,4.0,4.0,436.8932009997479,3.0,1.0,part_1,,,,,,,,,,,,,cyan,I
28.0,1.0,1.0,0.0,3.0,3.0,353.0465789999653,3.0,1.0,part_1,,,,,,,,,,,,,white,flipped triangle
56.0,5.0,1.0,1.0,4.0,4.0,860.1052290000553,3.0,1.0,part_1,,,,,,,,,,,,,gray,hexagon
0.0,2.0,0.0,0.0,2.0,2.0,325.2550290003455,3.0,1.0,part_1,,,,,,,,,,,,,magenta,square
0.0,5.0,0.0,1.0,2.0,2.0,285.2449239999259,3.0,1.0,part_1,,,,,,,,,,,,,gray,hexagon
402.0,4.0,4.0,0.0,1.0,1.0,330.4367280002225,3.0,1.0,part_1,,,,,,,,,,,,,green,circle
82.0,6.0,2.0,1.0,2.0,2.0,419.0111200000501,3.0,1.0,part_1,,,,,,,,,,,,,orange,triangle
42.0,5.0,1.0,1.0,3.0,3.0,318.3670209996307,3.0,1.0,part_1,,,,,,,,,,,,,gray,hexagon
408.0,4.0,4.0,0.0,4.0,4.0,324.10446699987,3.0,1.0,part_1,,,,,,,,,,,,,green,circle
0.0,7.0,0.0,1.0,4.0,4.0,298.1270130003395,3.0,1.0,part_1,,,,,,,,,,,,,blue,cross
37.0,1.0,1.0,0.0,4.0,4.0,317.6739169998654,3.0,1.0,part_1,,,,,,,,,,,,,white,flipped triangle
0.0,1.0,0.0,0.0,1.0,1.0,296.8673189998299,3.0,1.0,part_1,,,,,,,,,,,,,white,flipped triangle
214.0,7.0,3.0,1.0,4.0,4.0,321.6841639996346,3.0,1.0,part_1,,,,,,,,,,,,,blue,cross
89.0,2.0,2.0,0.0,1.0,1.0,280.8842109998295,3.0,1.0,part_1,,,,,,,,,,,,,magenta,square
0.0,5.0,0.0,1.0,4.0,4.0,377.391966000232,3.0,1.0,part_1,,,,,,,,,,,,,gray,hexagon
42.0,1.0,1.0,0.0,3.0,3.0,395.292740000059,3.0,1.0,part_1,,,,,,,,,,,,,white,flipped triangle
196.0,7.0,3.0,1.0,3.0,3.0,828.6687509998956,3.0,1.0,part_1,,,,,,,,,,,,,blue,cross
0.0,6.0,0.0,1.0,4.0,4.0,353.9020519997393,3.0,1.0,part_1,,,,,,,,,,,,,orange,triangle
213.0,3.0,3.0,0.0,3.0,3.0,376.8276430000696,3.0,1.0,part_1,,,,,,,,,,,,,cyan,I
50.0,5.0,1.0,1.0,1.0,1.0,334.4995179995749,3.0,1.0,part_1,,,,,,,,,,,,,gray,hexagon
392.0,8.0,4.0,1.0,1.0,1.0,335.4363910002575,3.0,1.0,part_1,,,,,,,,,,,,,yellow,diamond
210.0,7.0,3.0,1.0,1.0,1.0,284.4557680000434,3.0,1.0,part_1,,,,,,,,,,,,,blue,cross
200.0,7.0,3.0,1.0,4.0,4.0,537.0235089999369,3.0,1.0,part_1,,,,,,,,,,,,,blue,cross
198.0,3.0,3.0,0.0,1.0,1.0,278.2090509999761,3.0,1.0,part_1,,,,,,,,,,,,,cyan,I
69.0,1.0,1.0,0.0,1.0,1.0,341.382380000141,3.0,1.0,part_1,,,,,,,,,,,,,white,flipped triangle
0.0,4.0,0.0,0.0,4.0,4.0,366.9233069999791,3.0,1.0,part_1,,,,,,,,,,,,,green,circle
119.0,2.0,2.0,0.0,4.0,4.0,589.0392839996821,3.0,1.0,part_1,,,,,,,,,,,,,magenta,square
0.0,4.0,0.0,0.0,1.0,1.0,463.1068100002267,3.0,1.0,part_1,,,,,,,,,,,,,green,circle
0.0,6.0,0.0,1.0,1.0,1.0,348.1445200000053,3.0,1.0,part_1,,,,,,,,,,,,,orange,triangle
0.0,8.0,0.0,1.0,4.0,4.0,333.7195760000213,3.0,1.0,part_1,,,,,,,,,,,,,yellow,diamond
102.0,6.0,2.0,1.0,4.0,4.0,459.8171090001415,3.0,1.0,part_1,,,,,,,,,,,,,orange,triangle
196.0,3.0,3.0,0.0,1.0,1.0,290.6138719999944,3.0,1.0,part_1,,,,,,,,,,,,,cyan,I
70.0,5.0,1.0,1.0,1.0,1.0,322.847776999879,3.0,1.0,part_1,,,,,,,,,,,,,gray,hexagon
61.0,5.0,1.0,1.0,4.0,4.0,302.7862130002177,3.0,1.0,part_1,,,,,,,,,,,,,gray,hexagon
0.0,2.0,0.0,0.0,1.0,1.0,405.441509999946,3.0,1.0,part_1,,,,,,,,,,,,,magenta,square
34.0,1.0,1.0,0.0,2.0,2.0,325.0022400002308,3.0,1.0,part_1,,,,,,,,,,,,,white,flipped triangle
111.0,2.0,2.0,0.0,1.0,1.0,334.0310230000796,3.0,1.0,part_1,,,,,,,,,,,,,magenta,square
202.0,7.0,3.0,1.0,2.0,2.0,302.2091210000326,3.0,1.0,part_1,,,,,,,,,,,,,blue,cross
116.0,2.0,2.0,0.0,1.0,1.0,366.1956470000405,3.0,1.0,part_1,,,,,,,,,,,,,magenta,square
89.0,6.0,2.0,1.0,2.0,2.0,325.8182040003703,3.0,1.0,part_1,,,,,,,,,,,,,orange,triangle
107.0,2.0,2.0,0.0,3.0,3.0,384.3161889999464,3.0,1.0,part_1,,,,,,,,,,,,,magenta,square
0.0,2.0,0.0,0.0,4.0,4.0,392.7615580000747,3.0,1.0,part_1,,,,,,,,,,,,,magenta,square
55.0,5.0,1.0,1.0,3.0,3.0,342.0578029999888,3.0,1.0,part_1,,,,,,,,,,,,,gray,hexagon
77.0,2.0,2.0,0.0,2.0,2.0,320.2513800001725,3.0,1.0,part_1,,,,,,,,,,,,,magenta,square
35.0,5.0,1.0,1.0,3.0,3.0,335.5685110000195,3.0,1.0,part_1,,,,,,,,,,,,,gray,hexagon
216.0,7.0,3.0,1.0,2.0,2.0,328.3741479999662,3.0,1.0,part_1,,,,,,,,,,,,,blue,cross
0.0,1.0,0.0,0.0,2.0,2.0,334.2061809998995,3.0,1.0,part_1,,,,,,,,,,,,,white,flipped triangle
0.0,3.0,0.0,0.0,3.0,3.0,380.3530660002252,3.0,1.0,part_1,,,,,,,,,,,,,cyan,I
221.0,7.0,3.0,1.0,3.0,3.0,400.7558070002233,3.0,1.0,part_1,,,,,,,,,,,,,blue,cross
27.0,5.0,1.0,1.0,1.0,1.0,392.216692999682,3.0,1.0,part_1,,,,,,,,,,,,,gray,hexagon
25.0,5.0,1.0,1.0,3.0,3.0,433.2418850003705,3.0,1.0,part_1,,,,,,,,,,,,,gray,hexagon
424.0,4.0,4.0,0.0,2.0,2.0,254.8558670000602,3.0,1.0,part_1,,,,,,,,,,,,,green,circle
0.0,7.0,0.0,1.0,1.0,1.0,331.8943029998991,3.0,1.0,part_1,,,,,,,,,,,,,blue,cross
187.0,7.0,3.0,1.0,1.0,1.0,418.5862620001899,3.0,1.0,part_1,,,,,,,,,,,,,blue,cross
0.0,5.0,0.0,1.0,3.0,3.0,290.4496510000172,3.0,1.0,part_1,,,,,,,,,,,,,gray,hexagon
381.0,4.0,4.0,0.0,3.0,3.0,345.6316570000126,3.0,1.0,part_1,,,,,,,,,,,,,green,circle
0.0,6.0,0.0,1.0,1.0,1.0,259.6290209999097,3.0,1.0,part_1,,,,,,,,,,,,,orange,triangle
0.0,7.0,0.0,1.0,2.0,2.0,314.3506960000195,3.0,1.0,part_1,,,,,,,,,,,,,blue,cross
379.0,8.0,4.0,1.0,1.0,1.0,274.2881069998475,3.0,1.0,part_1,,,,,,,,,,,,,yellow,diamond
25.0,1.0,1.0,0.0,3.0,3.0,275.4487510001127,3.0,1.0,part_1,,,,,,,,,,,,,white,flipped triangle
80.0,6.0,2.0,1.0,1.0,1.0,272.4034670000037,3.0,1.0,part_1,,,,,,,,,,,,,orange,triangle
181.0,7.0,3.0,1.0,4.0,4.0,330.1687839998521,3.0,1.0,part_1,,,,,,,,,,,,,blue,cross
60.0,1.0,1.0,0.0,4.0,4.0,297.6774630001273,3.0,1.0,part_1,,,,,,,,,,,,,white,flipped triangle
385.0,4.0,4.0,0.0,2.0,2.0,253.0724870002814,3.0,1.0,part_1,,,,,,,,,,,,,green,circle
420.0,8.0,4.0,1.0,2.0,2.0,284.2038160001721,3.0,1.0,part_1,,,,,,,,,,,,,yellow,diamond
219.0,7.0,3.0,1.0,1.0,1.0,305.8753609998348,3.0,1.0,part_1,,,,,,,,,,,,,blue,cross
0.0,4.0,0.0,0.0,4.0,4.0,292.5400660001287,3.0,1.0,part_1,,,,,,,,,,,,,green,circle
204.0,3.0,3.0,0.0,3.0,3.0,407.9637270001512,3.0,1.0,part_1,,,,,,,,,,,,,cyan,I
56.0,1.0,1.0,0.0,1.0,1.0,225.1382360000207,3.0,1.0,part_1,,,,,,,,,,,,,white,flipped triangle
95.0,6.0,2.0,1.0,3.0,3.0,315.8090010001615,3.0,1.0,part_1,,,,,,,,,,,,,orange,triangle
377.0,4.0,4.0,0.0,1.0,1.0,257.0262500003082,3.0,1.0,part_1,,,,,,,,,,,,,green,circle
398.0,8.0,4.0,1.0,2.0,2.0,241.8314480000845,3.0,1.0,part_1,,,,,,,,,,,,,yellow,diamond
0.0,8.0,0.0,1.0,1.0,1.0,276.8489709997084,3.0,1.0,part_1,,,,,,,,,,,,,yellow,diamond
0.0,6.0,0.0,1.0,2.0,2.0,270.0996550001946,3.0,1.0,part_1,,,,,,,,,,,,,orange,triangle
383.0,4.0,4.0,0.0,3.0,3.0,315.3932039999745,3.0,1.0,part_1,,,,,,,,,,,,,green,circle
401.0,8.0,4.0,1.0,3.0,3.0,381.4967700000125,3.0,1.0,part_1,,,,,,,,,,,,,yellow,diamond
385.0,8.0,4.0,1.0,3.0,3.0,342.2729619996971,3.0,1.0,part_1,,,,,,,,,,,,,yellow,diamond
112.0,6.0,2.0,1.0,3.0,3.0,299.7703759997421,3.0,1.0,part_1,,,,,,,,,,,,,orange,triangle
181.0,3.0,3.0,0.0,1.0,1.0,303.5426910000751,3.0,1.0,part_1,,,,,,,,,,,,,cyan,I
101.0,2.0,2.0,0.0,3.0,3.0,323.5703610002929,3.0,1.0,part_1,,,,,,,,,,,,,magenta,square
0.0,5.0,0.0,1.0,2.0,2.0,299.9861770003917,3.0,1.0,part_1,,,,,,,,,,,,,gray,hexagon
413.0,4.0,4.0,0.0,2.0,2.0,309.8438369997893,3.0,1.0,part_1,,,,,,,,,,,,,green,circle
26.0,5.0,1.0,1.0,3.0,3.0,316.21954000002,3.0,1.0,part_1,,,,,,,,,,,,,gray,hexagon
82.0,2.0,2.0,0.0,2.0,2.0,227.1758499996394,3.0,1.0,part_1,,,,,,,,,,,,,magenta,square
183.0,7.0,3.0,1.0,4.0,4.0,352.3772749999807,3.0,1.0,part_1,,,,,,,,,,,,,blue,cross
61.0,1.0,1.0,0.0,4.0,4.0,380.2302109997981,3.0,1.0,part_1,,,,,,,,,,,,,white,flipped triangle
109.0,2.0,2.0,0.0,3.0,3.0,302.1732209999754,3.0,1.0,part_1,,,,,,,,,,,,,magenta,square
0.0,4.0,0.0,0.0,4.0,4.0,324.9991409998074,3.0,1.0,part_1,,,,,,,,,,,,,green,circle
218.0,3.0,3.0,0.0,1.0,1.0,318.6498400000346,3.0,1.0,part_1,,,,,,,,,,,,,cyan,I
93.0,6.0,2.0,1.0,2.0,2.0,322.9410270000699,4.0,1.0,part_1,,,,,,,,,,,,,orange,triangle
0.0,6.0,0.0,1.0,1.0,1.0,359.3368390002069,4.0,1.0,part_1,,,,,,,,,,,,,orange,triangle
196.0,7.0,3.0,1.0,4.0,4.0,360.3674370001499,4.0,1.0,part_1,,,,,,,,,,,,,blue,cross
0.0,4.0,0.0,0.0,4.0,4.0,349.2751670000871,4.0,1.0,part_1,,,,,,,,,,,,,green,circle
216.0,3.0,3.0,0.0,1.0,1.0,268.7465639996844,4.0,1.0,part_1,,,,,,,,,,,,,cyan,I
50.0,5.0,1.0,1.0,2.0,2.0,280.436778999956,4.0,1.0,part_1,,,,,,,,,,,,,gray,hexagon
0.0,2.0,0.0,0.0,3.0,3.0,317.3829299998942,4.0,1.0,part_1,,,,,,,,,,,,,magenta,square
0.0,5.0,0.0,1.0,4.0,4.0,302.4063580000984,4.0,1.0,part_1,,,,,,,,,,,,,gray,hexagon
215.0,3.0,3.0,0.0,3.0,3.0,357.453314000395,4.0,1.0,part_1,,,,,,,,,,,,,cyan,I
0.0,8.0,0.0,1.0,4.0,4.0,316.6186319999724,4.0,1.0,part_1,,,,,,,,,,,,,yellow,diamond
397.0,8.0,4.0,1.0,3.0,3.0,335.4402990003109,4.0,1.0,part_1,,,,,,,,,,,,,yellow,diamond
37.0,5.0,1.0,1.0,2.0,2.0,266.9801130000451,4.0,1.0,part_1,,,,,,,,,,,,,gray,hexagon
390.0,4.0,4.0,0.0,1.0,1.0,312.4473930001841,4.0,1.0,part_1,,,,,,,,,,,,,green,circle
178.0,3.0,3.0,0.0,4.0,4.0,352.9521569998906,4.0,1.0,part_1,,,,,,,,,,,,,cyan,I
123.0,2.0,2.0,0.0,2.0,2.0,205.0942129999384,4.0,1.0,part_1,,,,,,,,,,,,,magenta,square
61.0,5.0,1.0,1.0,1.0,1.0,228.7530929997956,4.0,1.0,part_1,,,,,,,,,,,,,gray,hexagon
196.0,7.0,3.0,1.0,3.0,3.0,297.5212479996116,4.0,1.0,part_1,,,,,,,,,,,,,blue,cross
0.0,8.0,0.0,1.0,4.0,4.0,325.5103759997837,4.0,1.0,part_1,,,,,,,,,,,,,yellow,diamond
187.0,3.0,3.0,0.0,2.0,2.0,289.5008209998195,4.0,1.0,part_1,,,,,,,,,,,,,cyan,I
0.0,1.0,0.0,0.0,3.0,3.0,313.8479279996318,4.0,1.0,part_1,,,,,,,,,,,,,white,flipped triangle
383.0,8.0,4.0,1.0,4.0,4.0,387.3176709998915,4.0,1.0,part_1,,,,,,,,,,,,,yellow,diamond
79.0,6.0,2.0,1.0,3.0,3.0,289.7454590001871,4.0,1.0,part_1,,,,,,,,,,,,,orange,triangle
114.0,6.0,2.0,1.0,1.0,1.0,312.4887500002842,4.0,1.0,part_1,,,,,,,,,,,,,orange,triangle
79.0,2.0,2.0,0.0,3.0,3.0,310.4629469999054,4.0,1.0,part_1,,,,,,,,,,,,,magenta,square
55.0,1.0,1.0,0.0,3.0,3.0,333.1855680003173,4.0,1.0,part_1,,,,,,,,,,,,,white,flipped triangle
190.0,7.0,3.0,1.0,4.0,4.0,431.8940319999456,4.0,1.0,part_1,,,,,,,,,,,,,blue,cross
189.0,7.0,3.0,1.0,1.0,1.0,259.6342189999632,4.0,1.0,part_1,,,,,,,,,,,,,blue,cross
42.0,1.0,1.0,0.0,1.0,1.0,397.3589550000724,4.0,1.0,part_1,,,,,,,,,,,,,white,flipped triangle
0.0,3.0,0.0,0.0,1.0,1.0,341.0112819997266,4.0,1.0,part_1,,,,,,,,,,,,,cyan,I
122.0,2.0,2.0,0.0,2.0,2.0,215.8127179995972,4.0,1.0,part_1,,,,,,,,,,,,,magenta,square
0.0,3.0,0.0,0.0,2.0,2.0,259.9379220000628,4.0,1.0,part_1,,,,,,,,,,,,,cyan,I
96.0,2.0,2.0,0.0,3.0,3.0,411.4677030001985,4.0,1.0,part_1,,,,,,,,,,,,,magenta,square
418.0,4.0,4.0,0.0,1.0,1.0,409.7964799998408,4.0,1.0,part_1,,,,,,,,,,,,,green,circle
0.0,8.0,0.0,1.0,3.0,3.0,344.0777139999227,4.0,1.0,part_1,,,,,,,,,,,,,yellow,diamond
0.0,5.0,0.0,1.0,1.0,1.0,291.5285990002303,4.0,1.0,part_1,,,,,,,,,,,,,gray,hexagon
66.0,1.0,1.0,0.0,3.0,3.0,362.1656440000151,4.0,1.0,part_1,,,,,,,,,,,,,white,flipped triangle
181.0,3.0,3.0,0.0,4.0,4.0,345.2440730002308,4.0,1.0,part_1,,,,,,,,,,,,,cyan,I
67.0,5.0,1.0,1.0,2.0,2.0,247.5024660002418,4.0,1.0,part_1,,,,,,,,,,,,,gray,hexagon
199.0,3.0,3.0,0.0,1.0,1.0,428.8534950001121,4.0,1.0,part_1,,,,,,,,,,,,,cyan,I
398.0,4.0,4.0,0.0,1.0,1.0,306.2237560002359,4.0,1.0,part_1,,,,,,,,,,,,,green,circle
187.0,7.0,3.0,1.0,3.0,3.0,328.9209730000948,4.0,1.0,part_1,,,,,,,,,,,,,blue,cross
423.0,8.0,4.0,1.0,4.0,4.0,302.0674340000369,4.0,1.0,part_1,,,,,,,,,,,,,yellow,diamond
224.0,7.0,3.0,1.0,2.0,2.0,200.0264620000962,4.0,1.0,part_1,,,,,,,,,,,,,blue,cross
76.0,6.0,2.0,1.0,2.0,2.0,290.8508139998957,4.0,1.0,part_1,,,,,,,,,,,,,orange,triangle
403.0,4.0,4.0,0.0,3.0,3.0,238.1020079997142,4.0,1.0,part_1,,,,,,,,,,,,,green,circle
119.0,2.0,2.0,0.0,4.0,4.0,394.0485650000482,4.0,1.0,part_1,,,,,,,,,,,,,magenta,square
179.0,3.0,3.0,0.0,2.0,2.0,327.9424540000946,4.0,1.0,part_1,,,,,,,,,,,,,cyan,I
30.0,5.0,1.0,1.0,1.0,1.0,296.5496890001304,4.0,1.0,part_1,,,,,,,,,,,,,gray,hexagon
122.0,6.0,2.0,1.0,1.0,1.0,331.0931829996661,4.0,1.0,part_1,,,,,,,,,,,,,orange,triangle
390.0,4.0,4.0,0.0,4.0,4.0,362.1627099996658,4.0,1.0,part_1,,,,,,,,,,,,,green,circle
0.0,6.0,0.0,1.0,4.0,4.0,391.811718000099,4.0,1.0,part_1,,,,,,,,,,,,,orange,triangle
34.0,1.0,1.0,0.0,3.0,3.0,377.8597790001186,4.0,1.0,part_1,,,,,,,,,,,,,white,flipped triangle
90.0,6.0,2.0,1.0,4.0,4.0,407.3586549998254,4.0,1.0,part_1,,,,,,,,,,,,,orange,triangle
202.0,3.0,3.0,0.0,4.0,4.0,319.4616209998457,4.0,1.0,part_1,,,,,,,,,,,,,cyan,I
119.0,6.0,2.0,1.0,3.0,3.0,325.4779750000125,4.0,1.0,part_1,,,,,,,,,,,,,orange,triangle
69.0,1.0,1.0,0.0,2.0,2.0,298.8277480003489,4.0,1.0,part_1,,,,,,,,,,,,,white,flipped triangle
218.0,7.0,3.0,1.0,3.0,3.0,273.155687000326,4.0,1.0,part_1,,,,,,,,,,,,,blue,cross
0.0,8.0,0.0,1.0,3.0,3.0,255.6926420002128,4.0,1.0,part_1,,,,,,,,,,,,,yellow,diamond
393.0,4.0,4.0,0.0,1.0,1.0,328.3082130001276,4.0,1.0,part_1,,,,,,,,,,,,,green,circle
61.0,1.0,1.0,0.0,4.0,4.0,321.3259710000784,4.0,1.0,part_1,,,,,,,,,,,,,white,flipped triangle
40.0,1.0,1.0,0.0,1.0,1.0,300.8814599998004,4.0,1.0,part_1,,,,,,,,,,,,,white,flipped triangle
90.0,6.0,2.0,1.0,1.0,1.0,286.1466829999699,4.0,1.0,part_1,,,,,,,,,,,,,orange,triangle
379.0,4.0,4.0,0.0,1.0,1.0,288.3759650003412,4.0,1.0,part_1,,,,,,,,,,,,,green,circle
100.0,6.0,2.0,1.0,4.0,4.0,317.2256480002033,4.0,1.0,part_1,,,,,,,,,,,,,orange,triangle
0.0,4.0,0.0,0.0,1.0,1.0,284.6023869997225,4.0,1.0,part_1,,,,,,,,,,,,,green,circle
381.0,8.0,4.0,1.0,4.0,4.0,270.8453400000508,4.0,1.0,part_1,,,,,,,,,,,,,yellow,diamond
30.0,1.0,1.0,0.0,4.0,4.0,369.6584790000088,4.0,1.0,part_1,,,,,,,,,,,,,white,flipped triangle
66.0,5.0,1.0,1.0,3.0,3.0,372.2937920001641,4.0,1.0,part_1,,,,,,,,,,,,,gray,hexagon
0.0,2.0,0.0,0.0,4.0,4.0,432.5282250001692,4.0,2.0,part_1,,,,,,,,,,,,,magenta,square
80.0,2.0,2.0,0.0,4.0,4.0,391.110977000153,4.0,1.0,part_1,,,,,,,,,,,,,magenta,square
386.0,4.0,4.0,0.0,2.0,2.0,345.1072679999925,4.0,1.0,part_1,,,,,,,,,,,,,green,circle
0.0,7.0,0.0,1.0,2.0,2.0,281.6251489998649,4.0,1.0,part_1,,,,,,,,,,,,,blue,cross
62.0,5.0,1.0,1.0,1.0,1.0,298.1065479998506,4.0,1.0,part_1,,,,,,,,,,,,,gray,hexagon
407.0,4.0,4.0,0.0,3.0,3.0,313.4759259996826,4.0,1.0,part_1,,,,,,,,,,,,,green,circle
384.0,4.0,4.0,0.0,3.0,3.0,325.68871599960397,4.0,1.0,part_1,,,,,,,,,,,,,green,circle
188.0,7.0,3.0,1.0,1.0,1.0,393.6204809997434,4.0,1.0,part_1,,,,,,,,,,,,,blue,cross
0.0,3.0,0.0,0.0,2.0,2.0,256.5304869999636,4.0,1.0,part_1,,,,,,,,,,,,,cyan,I
204.0,7.0,3.0,1.0,3.0,3.0,405.6204359999356,4.0,1.0,part_1,,,,,,,,,,,,,blue,cross
393.0,8.0,4.0,1.0,4.0,4.0,435.3965489999609,4.0,1.0,part_1,,,,,,,,,,,,,yellow,diamond
418.0,8.0,4.0,1.0,4.0,4.0,417.2935980000147,4.0,1.0,part_1,,,,,,,,,,,,,yellow,diamond
413.0,8.0,4.0,1.0,1.0,1.0,416.5672340000128,4.0,1.0,part_1,,,,,,,,,,,,,yellow,diamond
424.0,8.0,4.0,1.0,3.0,3.0,377.8293800000938,4.0,1.0,part_1,,,,,,,,,,,,,yellow,diamond
196.0,3.0,3.0,0.0,4.0,4.0,292.8030279999802,4.0,1.0,part_1,,,,,,,,,,,,,cyan,I
0.0,4.0,0.0,0.0,4.0,4.0,310.1182789996528,4.0,1.0,part_1,,,,,,,,,,,,,green,circle
379.0,8.0,4.0,1.0,2.0,2.0,332.2181359999376,4.0,1.0,part_1,,,,,,,,,,,,,yellow,diamond
51.0,5.0,1.0,1.0,1.0,1.0,345.2121800000896,4.0,1.0,part_1,,,,,,,,,,,,,gray,hexagon
183.0,7.0,3.0,1.0,1.0,1.0,397.5986599998578,4.0,1.0,part_1,,,,,,,,,,,,,blue,cross
40.0,5.0,1.0,1.0,1.0,1.0,365.165953000087,4.0,1.0,part_1,,,,,,,,,,,,,gray,hexagon
82.0,6.0,2.0,1.0,2.0,2.0,325.641768999958,4.0,1.0,part_1,,,,,,,,,,,,,orange,triangle
67.0,1.0,1.0,0.0,2.0,2.0,392.2903600000609,4.0,1.0,part_1,,,,,,,,,,,,,white,flipped triangle
381.0,4.0,4.0,0.0,3.0,3.0,338.9155280001432,4.0,1.0,part_1,,,,,,,,,,,,,green,circle
95.0,6.0,2.0,1.0,2.0,2.0,364.4297529999676,4.0,1.0,part_1,,,,,,,,,,,,,orange,triangle
381.0,4.0,4.0,0.0,4.0,4.0,357.8232720001324,4.0,1.0,part_1,,,,,,,,,,,,,green,circle
26.0,1.0,1.0,0.0,2.0,2.0,277.260748000117,4.0,1.0,part_1,,,,,,,,,,,,,white,flipped triangle
97.0,6.0,2.0,1.0,3.0,3.0,383.9170070000364,4.0,1.0,part_1,,,,,,,,,,,,,orange,triangle
119.0,6.0,2.0,1.0,1.0,1.0,384.9930549999953,4.0,1.0,part_1,,,,,,,,,,,,,orange,triangle
188.0,3.0,3.0,0.0,3.0,3.0,408.2000260000313,4.0,1.0,part_1,,,,,,,,,,,,,cyan,I
0.0,7.0,0.0,1.0,4.0,4.0,354.6090849999928,4.0,1.0,part_1,,,,,,,,,,,,,blue,cross
381.0,8.0,4.0,1.0,2.0,2.0,292.226133999975,4.0,1.0,part_1,,,,,,,,,,,,,yellow,diamond
0.0,2.0,0.0,0.0,1.0,1.0,249.4976059997498,4.0,1.0,part_1,,,,,,,,,,,,,magenta,square
0.0,8.0,4.0,1.0,6.0,6.0,399.3174009997347,1.0,0.0,part_2,stop,250.0,250.0,3.0,,,,,,,,,yellow,diamond
0.0,5.0,1.0,1.0,5.0,5.0,287.6852650001638,1.0,0.0,part_2,stop,250.0,200.0,3.0,,,,,,,,,gray,hexagon
0.0,7.0,3.0,1.0,6.0,6.0,379.9812279999059,1.0,0.0,part_2,stop,200.0,200.0,3.0,,,,,,,,,blue,cross
0.0,4.0,4.0,0.0,6.0,6.0,355.7148240001879,1.0,0.0,part_2,go,200.0,150.0,1.0,,,,,,,,,green,circle
0.0,4.0,4.0,0.0,5.0,5.0,297.2565079999185,1.0,0.0,part_2,go,200.0,150.0,1.0,,,,,,,,,green,circle
0.0,1.0,1.0,0.0,5.0,5.0,268.9874229999986,1.0,0.0,part_2,go,200.0,150.0,1.0,,,,,,,,,white,flipped triangle
0.0,6.0,2.0,1.0,6.0,6.0,196.2221449998651,1.0,0.0,part_2,stop,200.0,150.0,3.0,,,,,,,,,orange,triangle
0.0,3.0,3.0,0.0,6.0,6.0,362.2921569999562,1.0,0.0,part_2,go,200.0,100.0,1.0,,,,,,,,,cyan,I
0.0,5.0,1.0,1.0,6.0,6.0,282.1904520001226,1.0,0.0,part_2,stop,200.0,100.0,3.0,,,,,,,,,gray,hexagon
0.0,5.0,1.0,1.0,5.0,5.0,286.9380219999584,1.0,0.0,part_2,stop,200.0,50.0,3.0,,,,,,,,,gray,hexagon
0.0,4.0,4.0,0.0,6.0,6.0,301.685980000002,1.0,0.0,part_2,go,150.0,50.0,1.0,,,,,,,,,green,circle
0.0,3.0,3.0,0.0,5.0,5.0,302.5403530000403,1.0,0.0,part_2,go,150.0,50.0,1.0,,,,,,,,,cyan,I
0.0,7.0,3.0,1.0,5.0,0.0,0.0,1.0,0.0,part_2,stop,150.0,50.0,4.0,,,,,,,,,blue,cross
0.0,2.0,2.0,0.0,5.0,5.0,326.759721000144,1.0,0.0,part_2,go,200.0,50.0,1.0,,,,,,,,,magenta,square
0.0,6.0,2.0,1.0,6.0,6.0,269.2332389997318,1.0,0.0,part_2,stop,200.0,50.0,3.0,,,,,,,,,orange,triangle
0.0,4.0,4.0,0.0,6.0,6.0,367.9523539999536,1.0,0.0,part_2,go,200.0,0.0,1.0,,,,,,,,,green,circle
0.0,7.0,3.0,1.0,5.0,0.0,0.0,1.0,0.0,part_2,stop,200.0,0.0,4.0,,,,,,,,,blue,cross
0.0,5.0,1.0,1.0,6.0,6.0,241.6235720002078,1.0,0.0,part_2,stop,250.0,0.0,3.0,,,,,,,,,gray,hexagon
0.0,6.0,2.0,1.0,5.0,5.0,341.5129270001671,1.0,0.0,part_2,stop,250.0,0.0,3.0,,,,,,,,,orange,triangle
0.0,5.0,1.0,1.0,6.0,6.0,409.3407139998817,1.0,0.0,part_2,go,200.0,0.0,1.0,,,,,,,,,gray,hexagon
0.0,4.0,4.0,0.0,5.0,5.0,193.3864330003416,1.0,0.0,part_2,go,200.0,0.0,1.0,,,,,,,,,green,circle
0.0,6.0,2.0,1.0,6.0,6.0,221.7618039999251,1.0,0.0,part_2,go,200.0,0.0,1.0,,,,,,,,,orange,triangle
0.0,2.0,2.0,0.0,6.0,6.0,295.3517819996705,1.0,0.0,part_2,go,200.0,0.0,1.0,,,,,,,,,magenta,square
0.0,8.0,4.0,1.0,5.0,5.0,234.8214850003387,1.0,0.0,part_2,stop,200.0,0.0,3.0,,,,,,,,,yellow,diamond
0.0,2.0,2.0,0.0,5.0,5.0,361.7721370001163,1.0,0.0,part_2,go,150.0,0.0,1.0,,,,,,,,,magenta,square
0.0,7.0,3.0,1.0,5.0,5.0,279.7256219996598,1.0,0.0,part_2,go,150.0,0.0,1.0,,,,,,,,,blue,cross
0.0,7.0,3.0,1.0,6.0,6.0,218.345662000047,1.0,0.0,part_2,stop,150.0,0.0,3.0,,,,,,,,,blue,cross
0.0,3.0,3.0,0.0,6.0,6.0,362.8516150001815,1.0,0.0,part_2,go,150.0,0.0,1.0,,,,,,,,,cyan,I
0.0,1.0,1.0,0.0,5.0,5.0,278.782597999907,1.0,0.0,part_2,go,150.0,0.0,1.0,,,,,,,,,white,flipped triangle
0.0,8.0,4.0,1.0,6.0,6.0,228.2280600002195,1.0,0.0,part_2,stop,150.0,0.0,3.0,,,,,,,,,yellow,diamond
0.0,1.0,1.0,0.0,6.0,6.0,350.962497999717,1.0,0.0,part_2,go,150.0,0.0,1.0,,,,,,,,,white,flipped triangle
0.0,5.0,1.0,1.0,6.0,0.0,0.0,1.0,0.0,part_2,stop,150.0,0.0,4.0,,,,,,,,,gray,hexagon
0.0,4.0,4.0,0.0,5.0,5.0,410.4312919998847,1.0,0.0,part_2,go,150.0,50.0,1.0,,,,,,,,,green,circle
0.0,1.0,1.0,0.0,5.0,5.0,367.0866610000303,1.0,0.0,part_2,go,150.0,50.0,1.0,,,,,,,,,white,flipped triangle
0.0,7.0,3.0,1.0,5.0,5.0,333.9692419999664,1.0,0.0,part_2,go,150.0,50.0,1.0,,,,,,,,,blue,cross
0.0,7.0,3.0,1.0,5.0,5.0,309.1040980002617,1.0,0.0,part_2,stop,150.0,50.0,3.0,,,,,,,,,blue,cross
0.0,6.0,2.0,1.0,6.0,0.0,0.0,2.0,0.0,part_2,stop,100.0,50.0,4.0,,,,,,,,,orange,triangle
0.0,5.0,1.0,1.0,5.0,5.0,352.3769290000018,2.0,0.0,part_2,go,100.0,100.0,1.0,,,,,,,,,gray,hexagon
0.0,7.0,3.0,1.0,5.0,0.0,0.0,2.0,0.0,part_2,stop,100.0,100.0,4.0,,,,,,,,,blue,cross
0.0,5.0,1.0,1.0,5.0,0.0,0.0,2.0,0.0,part_2,stop,150.0,100.0,4.0,,,,,,,,,gray,hexagon
0.0,1.0,1.0,0.0,5.0,5.0,713.5445619996972,2.0,0.0,part_2,go,200.0,100.0,1.0,,,,,,,,,white,flipped triangle
0.0,8.0,4.0,1.0,5.0,5.0,323.8660460001483,2.0,0.0,part_2,go,200.0,100.0,1.0,,,,,,,,,yellow,diamond
0.0,3.0,3.0,0.0,6.0,6.0,265.9776870000314,2.0,0.0,part_2,go,200.0,100.0,1.0,,,,,,,,,cyan,I
0.0,2.0,2.0,0.0,5.0,5.0,269.9343859999317,2.0,0.0,part_2,go,200.0,100.0,1.0,,,,,,,,,magenta,square
0.0,6.0,2.0,1.0,6.0,0.0,0.0,2.0,0.0,part_2,stop,200.0,100.0,4.0,,,,,,,,,orange,triangle
0.0,8.0,4.0,1.0,5.0,0.0,0.0,2.0,0.0,part_2,stop,200.0,150.0,4.0,,,,,,,,,yellow,diamond
0.0,6.0,2.0,1.0,6.0,0.0,0.0,2.0,0.0,part_2,stop,250.0,150.0,4.0,,,,,,,,,orange,triangle
0.0,2.0,2.0,0.0,6.0,6.0,469.1863880002529,2.0,0.0,part_2,go,250.0,200.0,1.0,,,,,,,,,magenta,square
0.0,4.0,4.0,0.0,5.0,5.0,476.14998500012,2.0,0.0,part_2,go,250.0,200.0,1.0,,,,,,,,,green,circle
0.0,8.0,4.0,1.0,5.0,5.0,312.881785999707,2.0,0.0,part_2,stop,250.0,200.0,3.0,,,,,,,,,yellow,diamond
0.0,5.0,1.0,1.0,5.0,0.0,0.0,2.0,0.0,part_2,stop,200.0,200.0,4.0,,,,,,,,,gray,hexagon
0.0,7.0,3.0,1.0,6.0,0.0,0.0,2.0,0.0,part_2,stop,250.0,200.0,4.0,,,,,,,,,blue,cross
0.0,1.0,1.0,0.0,5.0,5.0,527.6432579998982,2.0,0.0,part_2,go,250.0,250.0,1.0,,,,,,,,,white,flipped triangle
0.0,8.0,4.0,1.0,5.0,0.0,0.0,2.0,0.0,part_2,stop,250.0,250.0,4.0,,,,,,,,,yellow,diamond
0.0,1.0,1.0,0.0,6.0,6.0,390.0074970001697,2.0,0.0,part_2,go,300.0,250.0,1.0,,,,,,,,,white,flipped triangle
0.0,8.0,4.0,1.0,5.0,5.0,536.1073799999758,2.0,0.0,part_2,go,300.0,250.0,1.0,,,,,,,,,yellow,diamond
0.0,8.0,4.0,1.0,6.0,6.0,522.8504199999406,2.0,0.0,part_2,stop,300.0,250.0,3.0,,,,,,,,,yellow,diamond
0.0,2.0,2.0,0.0,6.0,6.0,428.7959210000736,2.0,0.0,part_2,go,300.0,200.0,1.0,,,,,,,,,magenta,square
0.0,5.0,1.0,1.0,5.0,5.0,587.2057000001405,2.0,0.0,part_2,go,300.0,200.0,1.0,,,,,,,,,gray,hexagon
0.0,3.0,3.0,0.0,6.0,6.0,525.8554020001611,2.0,0.0,part_2,go,300.0,200.0,1.0,,,,,,,,,cyan,I
0.0,8.0,4.0,1.0,5.0,0.0,0.0,2.0,0.0,part_2,stop,300.0,200.0,4.0,,,,,,,,,yellow,diamond
0.0,6.0,2.0,1.0,5.0,5.0,378.4172850000686,2.0,0.0,part_2,go,350.0,200.0,1.0,,,,,,,,,orange,triangle
0.0,1.0,1.0,0.0,6.0,6.0,270.0600529997246,2.0,0.0,part_2,go,350.0,200.0,1.0,,,,,,,,,white,flipped triangle
0.0,5.0,1.0,1.0,6.0,6.0,328.534492000017,2.0,0.0,part_2,stop,350.0,200.0,3.0,,,,,,,,,gray,hexagon
0.0,5.0,1.0,1.0,6.0,0.0,0.0,2.0,0.0,part_2,stop,350.0,150.0,4.0,,,,,,,,,gray,hexagon
0.0,3.0,3.0,0.0,5.0,5.0,611.6731389997767,2.0,0.0,part_2,go,350.0,200.0,1.0,,,,,,,,,cyan,I
0.0,8.0,4.0,1.0,5.0,5.0,381.473152000126,2.0,0.0,part_2,stop,350.0,200.0,3.0,,,,,,,,,yellow,diamond
0.0,1.0,1.0,0.0,5.0,5.0,700.0490580003316,2.0,0.0,part_2,go,300.0,200.0,1.0,,,,,,,,,white,flipped triangle
0.0,7.0,3.0,1.0,6.0,6.0,286.1591340001723,2.0,0.0,part_2,stop,300.0,200.0,3.0,,,,,,,,,blue,cross
0.0,8.0,4.0,1.0,5.0,5.0,427.8757869997207,2.0,0.0,part_2,stop,300.0,150.0,3.0,,,,,,,,,yellow,diamond
0.0,4.0,4.0,0.0,6.0,6.0,795.9145219997481,2.0,0.0,part_2,go,250.0,150.0,1.0,,,,,,,,,green,circle
0.0,2.0,2.0,0.0,5.0,5.0,535.3416489997471,2.0,0.0,part_2,go,250.0,150.0,1.0,,,,,,,,,magenta,square
0.0,7.0,3.0,1.0,6.0,0.0,0.0,3.0,0.0,part_2,go,250.0,150.0,5.0,,,,,,,,,blue,cross
0.0,8.0,4.0,1.0,6.0,6.0,398.8440839998475,3.0,0.0,part_2,stop,250.0,150.0,3.0,,,,,,,,,yellow,diamond
0.0,7.0,3.0,1.0,6.0,6.0,428.7461540002368,3.0,0.0,part_2,stop,250.0,100.0,3.0,,,,,,,,,blue,cross
0.0,6.0,2.0,1.0,5.0,5.0,292.6085279996187,3.0,0.0,part_2,go,250.0,50.0,1.0,,,,,,,,,orange,triangle
0.0,4.0,4.0,0.0,6.0,6.0,476.0122510001565,3.0,0.0,part_2,go,250.0,50.0,1.0,,,,,,,,,green,circle
0.0,5.0,1.0,1.0,6.0,0.0,0.0,3.0,0.0,part_2,stop,250.0,50.0,4.0,,,,,,,,,gray,hexagon
0.0,3.0,3.0,0.0,5.0,5.0,507.22139799972865,3.0,0.0,part_2,go,250.0,100.0,1.0,,,,,,,,,cyan,I
0.0,7.0,3.0,1.0,6.0,0.0,0.0,3.0,0.0,part_2,stop,250.0,100.0,4.0,,,,,,,,,blue,cross
0.0,1.0,1.0,0.0,6.0,6.0,492.2355540002172,3.0,0.0,part_2,go,250.0,150.0,1.0,,,,,,,,,white,flipped triangle
0.0,6.0,2.0,1.0,5.0,5.0,314.4301560000713,3.0,0.0,part_2,stop,250.0,150.0,3.0,,,,,,,,,orange,triangle
0.0,4.0,4.0,0.0,6.0,6.0,310.6754609998461,3.0,0.0,part_2,go,200.0,150.0,1.0,,,,,,,,,green,circle
0.0,5.0,1.0,1.0,6.0,0.0,0.0,3.0,0.0,part_2,stop,200.0,150.0,4.0,,,,,,,,,gray,hexagon
0.0,7.0,3.0,1.0,5.0,5.0,549.7272560000965,3.0,0.0,part_2,go,200.0,200.0,1.0,,,,,,,,,blue,cross
0.0,8.0,4.0,1.0,6.0,6.0,591.3561099996514,3.0,0.0,part_2,go,200.0,200.0,1.0,,,,,,,,,yellow,diamond
0.0,7.0,3.0,1.0,5.0,0.0,0.0,3.0,0.0,part_2,stop,200.0,200.0,4.0,,,,,,,,,blue,cross
0.0,3.0,3.0,0.0,6.0,6.0,291.4419600001565,3.0,0.0,part_2,go,250.0,200.0,1.0,,,,,,,,,cyan,I
0.0,7.0,3.0,1.0,5.0,5.0,497.157240999968,3.0,0.0,part_2,go,250.0,200.0,1.0,,,,,,,,,blue,cross
0.0,4.0,4.0,0.0,5.0,5.0,384.1185029996268,3.0,0.0,part_2,go,250.0,200.0,1.0,,,,,,,,,green,circle
0.0,4.0,4.0,0.0,5.0,5.0,288.6286610000752,3.0,0.0,part_2,go,250.0,200.0,1.0,,,,,,,,,green,circle
0.0,5.0,1.0,1.0,5.0,5.0,428.7864660000196,3.0,0.0,part_2,stop,250.0,200.0,3.0,,,,,,,,,gray,hexagon
0.0,2.0,2.0,0.0,5.0,5.0,581.7066169997815,3.0,0.0,part_2,go,200.0,200.0,1.0,,,,,,,,,magenta,square
0.0,1.0,1.0,0.0,6.0,6.0,324.2964729997766,3.0,0.0,part_2,go,200.0,200.0,1.0,,,,,,,,,white,flipped triangle
0.0,3.0,3.0,0.0,6.0,6.0,304.3405090002125,3.0,0.0,part_2,go,200.0,200.0,1.0,,,,,,,,,cyan,I
0.0,1.0,1.0,0.0,6.0,6.0,305.0717129999611,3.0,0.0,part_2,go,200.0,200.0,1.0,,,,,,,,,white,flipped triangle
0.0,1.0,1.0,0.0,5.0,5.0,352.9145759998755,3.0,0.0,part_2,go,200.0,200.0,1.0,,,,,,,,,white,flipped triangle
0.0,2.0,2.0,0.0,6.0,6.0,370.6247170002825,3.0,0.0,part_2,go,200.0,200.0,1.0,,,,,,,,,magenta,square
0.0,6.0,2.0,1.0,5.0,5.0,292.7573420001863,3.0,0.0,part_2,stop,200.0,200.0,3.0,,,,,,,,,orange,triangle
0.0,4.0,4.0,0.0,6.0,6.0,517.7676809998957,3.0,0.0,part_2,go,150.0,200.0,1.0,,,,,,,,,green,circle
0.0,3.0,3.0,0.0,5.0,5.0,385.8689209996555,3.0,0.0,part_2,go,150.0,200.0,1.0,,,,,,,,,cyan,I
0.0,3.0,3.0,0.0,6.0,6.0,409.2760420003287,3.0,0.0,part_2,go,150.0,200.0,1.0,,,,,,,,,cyan,I
0.0,8.0,4.0,1.0,6.0,0.0,0.0,3.0,0.0,part_2,stop,150.0,200.0,4.0,,,,,,,,,yellow,diamond
0.0,7.0,3.0,1.0,5.0,5.0,459.2560969999795,3.0,0.0,part_2,go,150.0,250.0,1.0,,,,,,,,,blue,cross
0.0,6.0,2.0,1.0,5.0,0.0,0.0,3.0,0.0,part_2,stop,150.0,250.0,4.0,,,,,,,,,orange,triangle
0.0,8.0,4.0,1.0,6.0,6.0,388.8573860003816,3.0,0.0,part_2,stop,200.0,250.0,3.0,,,,,,,,,yellow,diamond
0.0,4.0,4.0,0.0,6.0,6.0,619.1193059999023,3.0,0.0,part_2,go,200.0,200.0,1.0,,,,,,,,,green,circle
0.0,2.0,2.0,0.0,5.0,5.0,655.4357090003577,3.0,0.0,part_2,go,200.0,200.0,1.0,,,,,,,,,magenta,square
0.0,2.0,2.0,0.0,5.0,5.0,1181.4274240000486,4.0,0.0,part_2,go,200.0,200.0,1.0,,,,,,,,,magenta,square
0.0,7.0,3.0,1.0,6.0,6.0,298.8269549996403,4.0,0.0,part_2,stop,200.0,200.0,3.0,,,,,,,,,blue,cross
0.0,2.0,2.0,0.0,6.0,6.0,552.3034570001073,4.0,0.0,part_2,go,200.0,150.0,1.0,,,,,,,,,magenta,square
0.0,5.0,1.0,1.0,5.0,5.0,687.3491030000878,4.0,0.0,part_2,stop,200.0,150.0,3.0,,,,,,,,,gray,hexagon
0.0,7.0,3.0,1.0,6.0,6.0,482.2360690000096,4.0,0.0,part_2,stop,150.0,150.0,3.0,,,,,,,,,blue,cross
0.0,6.0,2.0,1.0,5.0,5.0,519.441168999947,4.0,0.0,part_2,go,150.0,100.0,1.0,,,,,,,,,orange,triangle
0.0,4.0,4.0,0.0,6.0,6.0,592.9723159997593,4.0,0.0,part_2,go,150.0,100.0,1.0,,,,,,,,,green,circle
0.0,3.0,3.0,0.0,5.0,5.0,467.1387749999667,4.0,0.0,part_2,go,150.0,100.0,1.0,,,,,,,,,cyan,I
0.0,5.0,1.0,1.0,5.0,0.0,0.0,4.0,0.0,part_2,stop,150.0,100.0,4.0,,,,,,,,,gray,hexagon
0.0,3.0,3.0,0.0,5.0,5.0,529.3628819999867,4.0,0.0,part_2,go,200.0,100.0,1.0,,,,,,,,,cyan,I
0.0,8.0,4.0,1.0,5.0,0.0,0.0,4.0,0.0,part_2,stop,200.0,100.0,4.0,,,,,,,,,yellow,diamond
0.0,1.0,1.0,0.0,5.0,5.0,478.9180259999739,4.0,0.0,part_2,go,250.0,100.0,1.0,,,,,,,,,white,flipped triangle
0.0,4.0,4.0,0.0,5.0,5.0,555.7333159999871,4.0,0.0,part_2,go,250.0,100.0,1.0,,,,,,,,,green,circle
0.0,6.0,2.0,1.0,5.0,0.0,0.0,4.0,0.0,part_2,stop,250.0,100.0,4.0,,,,,,,,,orange,triangle
0.0,6.0,2.0,1.0,6.0,0.0,0.0,4.0,0.0,part_2,stop,300.0,100.0,4.0,,,,,,,,,orange,triangle
0.0,2.0,2.0,0.0,5.0,5.0,698.0319540002711,4.0,0.0,part_2,go,300.0,150.0,1.0,,,,,,,,,magenta,square
0.0,6.0,2.0,1.0,6.0,0.0,0.0,4.0,0.0,part_2,stop,300.0,150.0,4.0,,,,,,,,,orange,triangle
0.0,5.0,1.0,1.0,5.0,5.0,491.0746040000049,4.0,0.0,part_2,go,300.0,200.0,1.0,,,,,,,,,gray,hexagon
0.0,3.0,3.0,0.0,5.0,5.0,523.8173640000241,4.0,0.0,part_2,go,300.0,200.0,1.0,,,,,,,,,cyan,I
0.0,8.0,4.0,1.0,5.0,0.0,0.0,4.0,0.0,part_2,stop,300.0,200.0,4.0,,,,,,,,,yellow,diamond
0.0,7.0,3.0,1.0,5.0,5.0,582.9603719998886,4.0,0.0,part_2,go,350.0,200.0,1.0,,,,,,,,,blue,cross
0.0,1.0,1.0,0.0,6.0,6.0,660.2927760000057,4.0,0.0,part_2,go,350.0,200.0,1.0,,,,,,,,,white,flipped triangle
0.0,1.0,1.0,0.0,6.0,6.0,441.2277579999681,4.0,0.0,part_2,go,350.0,200.0,1.0,,,,,,,,,white,flipped triangle
0.0,4.0,4.0,0.0,6.0,6.0,393.4959080002045,4.0,0.0,part_2,go,350.0,200.0,1.0,,,,,,,,,green,circle
0.0,4.0,4.0,0.0,5.0,5.0,565.9958010000992,4.0,0.0,part_2,go,350.0,200.0,1.0,,,,,,,,,green,circle
0.0,2.0,2.0,0.0,6.0,6.0,438.0758759998571,4.0,0.0,part_2,go,350.0,200.0,1.0,,,,,,,,,magenta,square
0.0,6.0,2.0,1.0,5.0,5.0,438.5312389999853,4.0,0.0,part_2,stop,350.0,200.0,3.0,,,,,,,,,orange,triangle
0.0,3.0,3.0,0.0,6.0,6.0,456.2238860003162,4.0,0.0,part_2,go,300.0,200.0,1.0,,,,,,,,,cyan,I
0.0,8.0,4.0,1.0,6.0,6.0,521.2954250000621,4.0,0.0,part_2,go,300.0,200.0,1.0,,,,,,,,,yellow,diamond
0.0,8.0,4.0,1.0,5.0,0.0,0.0,4.0,0.0,part_2,stop,300.0,200.0,4.0,,,,,,,,,yellow,diamond
0.0,7.0,3.0,1.0,5.0,0.0,0.0,4.0,0.0,part_2,stop,350.0,200.0,4.0,,,,,,,,,blue,cross
0.0,2.0,2.0,0.0,5.0,5.0,574.9503559995901,4.0,0.0,part_2,go,400.0,200.0,1.0,,,,,,,,,magenta,square
0.0,3.0,3.0,0.0,5.0,5.0,574.3419929999618,4.0,0.0,part_2,go,400.0,200.0,1.0,,,,,,,,,cyan,I
0.0,1.0,1.0,0.0,6.0,6.0,812.9603340003086,4.0,0.0,part_2,go,400.0,200.0,1.0,,,,,,,,,white,flipped triangle
0.0,8.0,4.0,1.0,6.0,6.0,437.6382049999847,4.0,0.0,part_2,go,400.0,200.0,1.0,,,,,,,,,yellow,diamond
0.0,3.0,3.0,0.0,5.0,5.0,648.4520160001921,4.0,0.0,part_2,go,400.0,200.0,1.0,,,,,,,,,cyan,I
0.0,5.0,1.0,1.0,6.0,6.0,831.5827999999783,5.0,0.0,part_2,stop,400.0,200.0,3.0,,,,,,,,,gray,hexagon
0.0,6.0,2.0,1.0,6.0,6.0,608.0501900000854,5.0,0.0,part_2,go,400.0,150.0,1.0,,,,,,,,,orange,triangle
0.0,2.0,2.0,0.0,5.0,5.0,471.6767800000525,5.0,0.0,part_2,go,400.0,150.0,1.0,,,,,,,,,magenta,square
0.0,6.0,2.0,1.0,6.0,0.0,0.0,5.0,0.0,part_2,stop,400.0,150.0,4.0,,,,,,,,,orange,triangle
0.0,1.0,1.0,0.0,5.0,5.0,627.1843099998478,5.0,0.0,part_2,go,400.0,200.0,1.0,,,,,,,,,white,flipped triangle
0.0,4.0,4.0,0.0,6.0,6.0,542.7351240000462,5.0,0.0,part_2,go,400.0,200.0,1.0,,,,,,,,,green,circle
0.0,4.0,4.0,0.0,5.0,5.0,941.486875999999,5.0,0.0,part_2,go,400.0,200.0,1.0,,,,,,,,,green,circle
0.0,5.0,1.0,1.0,6.0,0.0,0.0,5.0,0.0,part_2,stop,400.0,200.0,4.0,,,,,,,,,gray,hexagon
0.0,1.0,1.0,0.0,6.0,6.0,660.5246839999381,5.0,0.0,part_2,go,400.0,250.0,1.0,,,,,,,,,white,flipped triangle
0.0,5.0,1.0,1.0,6.0,0.0,0.0,5.0,0.0,part_2,stop,400.0,250.0,4.0,,,,,,,,,gray,hexagon
0.0,7.0,3.0,1.0,5.0,0.0,0.0,5.0,0.0,part_2,stop,400.0,300.0,4.0,,,,,,,,,blue,cross
0.0,5.0,1.0,1.0,6.0,6.0,894.0703359999134,5.0,0.0,part_2,go,450.0,300.0,1.0,,,,,,,,,gray,hexagon
0.0,7.0,3.0,1.0,6.0,0.0,0.0,5.0,0.0,part_2,stop,450.0,300.0,4.0,,,,,,,,,blue,cross
0.0,7.0,3.0,1.0,6.0,6.0,511.34902000012517,5.0,0.0,part_2,stop,450.0,350.0,3.0,,,,,,,,,blue,cross
0.0,2.0,2.0,0.0,6.0,6.0,776.8998360002115,5.0,0.0,part_2,go,450.0,300.0,1.0,,,,,,,,,magenta,square
0.0,5.0,1.0,1.0,6.0,0.0,0.0,5.0,0.0,part_2,stop,450.0,300.0,4.0,,,,,,,,,gray,hexagon
0.0,2.0,2.0,0.0,6.0,6.0,538.02935099975,5.0,0.0,part_2,go,450.0,350.0,1.0,,,,,,,,,magenta,square
0.0,3.0,3.0,0.0,6.0,6.0,478.9588169996932,5.0,0.0,part_2,go,450.0,350.0,1.0,,,,,,,,,cyan,I
0.0,4.0,4.0,0.0,6.0,6.0,584.6182069999486,5.0,0.0,part_2,go,450.0,350.0,1.0,,,,,,,,,green,circle
0.0,3.0,3.0,0.0,6.0,6.0,302.9685699998481,5.0,0.0,part_2,go,450.0,350.0,1.0,,,,,,,,,cyan,I
0.0,6.0,2.0,1.0,6.0,0.0,0.0,5.0,0.0,part_2,stop,450.0,350.0,4.0,,,,,,,,,orange,triangle
0.0,2.0,2.0,0.0,6.0,6.0,574.5952289998968,5.0,0.0,part_2,go,450.0,400.0,1.0,,,,,,,,,magenta,square
0.0,3.0,3.0,0.0,5.0,5.0,503.23735899974054,5.0,0.0,part_2,go,450.0,400.0,1.0,,,,,,,,,cyan,I
0.0,5.0,1.0,1.0,6.0,6.0,768.6909070002912,5.0,0.0,part_2,go,450.0,400.0,1.0,,,,,,,,,gray,hexagon
0.0,6.0,2.0,1.0,5.0,0.0,0.0,5.0,0.0,part_2,stop,450.0,400.0,4.0,,,,,,,,,orange,triangle
0.0,2.0,2.0,0.0,6.0,6.0,753.1520610000371,5.0,0.0,part_2,go,500.0,400.0,1.0,,,,,,,,,magenta,square
0.0,1.0,1.0,0.0,5.0,5.0,795.4598009996516,5.0,0.0,part_2,go,500.0,400.0,1.0,,,,,,,,,white,flipped triangle
0.0,2.0,2.0,0.0,5.0,5.0,843.6603360000845,5.0,0.0,part_2,go,500.0,400.0,1.0,,,,,,,,,magenta,square
0.0,4.0,4.0,0.0,6.0,6.0,543.4238749999167,5.0,0.0,part_2,go,500.0,400.0,1.0,,,,,,,,,green,circle
0.0,1.0,1.0,0.0,5.0,5.0,432.9382579999219,5.0,0.0,part_2,go,500.0,400.0,1.0,,,,,,,,,white,flipped triangle
0.0,4.0,4.0,0.0,6.0,6.0,519.2823030001819,5.0,0.0,part_2,go,500.0,400.0,1.0,,,,,,,,,green,circle
0.0,6.0,2.0,1.0,6.0,6.0,331.5893620001588,5.0,0.0,part_2,stop,500.0,400.0,3.0,,,,,,,,,orange,triangle
0.0,7.0,3.0,1.0,6.0,0.0,0.0,5.0,0.0,part_2,stop,500.0,350.0,4.0,,,,,,,,,blue,cross
0.0,4.0,4.0,0.0,5.0,5.0,595.1380400001653,5.0,0.0,part_2,go,500.0,400.0,1.0,,,,,,,,,green,circle
0.0,7.0,3.0,1.0,5.0,0.0,0.0,5.0,0.0,part_2,stop,500.0,400.0,4.0,,,,,,,,,blue,cross
0.0,1.0,1.0,0.0,6.0,6.0,1112.0460199999798,5.0,0.0,part_2,go,550.0,400.0,1.0,,,,,,,,,white,flipped triangle
0.0,2.0,2.0,0.0,6.0,6.0,905.1403420003226,6.0,0.0,part_2,go,550.0,400.0,1.0,,,,,,,,,magenta,square
0.0,3.0,3.0,0.0,5.0,5.0,605.6212240000605,6.0,0.0,part_2,go,550.0,400.0,1.0,,,,,,,,,cyan,I
0.0,1.0,1.0,0.0,6.0,6.0,644.314015999953,6.0,0.0,part_2,go,550.0,400.0,1.0,,,,,,,,,white,flipped triangle
0.0,5.0,1.0,1.0,6.0,6.0,348.8068100000419,6.0,0.0,part_2,stop,550.0,400.0,3.0,,,,,,,,,gray,hexagon
0.0,2.0,2.0,0.0,6.0,6.0,573.8311620002605,6.0,0.0,part_2,go,550.0,350.0,1.0,,,,,,,,,magenta,square
0.0,4.0,4.0,0.0,5.0,5.0,504.76357499974256,6.0,0.0,part_2,go,550.0,350.0,1.0,,,,,,,,,green,circle
0.0,5.0,1.0,1.0,5.0,5.0,776.6813250000268,6.0,0.0,part_2,go,550.0,350.0,1.0,,,,,,,,,gray,hexagon
0.0,8.0,4.0,1.0,5.0,0.0,0.0,6.0,0.0,part_2,stop,550.0,350.0,4.0,,,,,,,,,yellow,diamond
0.0,6.0,2.0,1.0,5.0,5.0,765.1834090002012,6.0,0.0,part_2,stop,600.0,350.0,3.0,,,,,,,,,orange,triangle
0.0,6.0,2.0,1.0,6.0,6.0,726.536235000367,6.0,0.0,part_2,go,550.0,350.0,1.0,,,,,,,,,orange,triangle
0.0,4.0,4.0,0.0,5.0,5.0,964.365947999795,6.0,0.0,part_2,go,550.0,350.0,1.0,,,,,,,,,green,circle
0.0,8.0,4.0,1.0,6.0,6.0,717.6554090001446,6.0,0.0,part_2,go,550.0,350.0,1.0,,,,,,,,,yellow,diamond
0.0,5.0,1.0,1.0,5.0,5.0,581.4774189998388,6.0,0.0,part_2,stop,550.0,350.0,3.0,,,,,,,,,gray,hexagon
0.0,5.0,1.0,1.0,6.0,0.0,0.0,6.0,0.0,part_2,stop,500.0,350.0,4.0,,,,,,,,,gray,hexagon
0.0,6.0,2.0,1.0,6.0,6.0,519.6281840003394,6.0,0.0,part_2,stop,500.0,400.0,3.0,,,,,,,,,orange,triangle
0.0,3.0,3.0,0.0,6.0,6.0,550.3268769998613,6.0,0.0,part_2,go,500.0,350.0,1.0,,,,,,,,,cyan,I
0.0,4.0,4.0,0.0,5.0,5.0,906.7873819999476,6.0,0.0,part_2,go,500.0,350.0,1.0,,,,,,,,,green,circle
0.0,5.0,1.0,1.0,5.0,0.0,0.0,6.0,0.0,part_2,stop,500.0,350.0,4.0,,,,,,,,,gray,hexagon
0.0,1.0,1.0,0.0,5.0,5.0,695.5561489999127,6.0,0.0,part_2,go,550.0,350.0,1.0,,,,,,,,,white,flipped triangle
0.0,2.0,2.0,0.0,5.0,5.0,1047.711722999793,6.0,0.0,part_2,go,550.0,350.0,1.0,,,,,,,,,magenta,square
0.0,3.0,3.0,0.0,6.0,6.0,1373.7818070003414,6.0,0.0,part_2,go,550.0,350.0,1.0,,,,,,,,,cyan,I
0.0,2.0,2.0,0.0,6.0,6.0,757.98697800019,6.0,0.0,part_2,go,550.0,350.0,1.0,,,,,,,,,magenta,square
0.0,2.0,2.0,0.0,6.0,6.0,1087.4180989999331,6.0,0.0,part_2,go,550.0,350.0,1.0,,,,,,,,,magenta,square
0.0,5.0,1.0,1.0,5.0,5.0,301.6343740000593,6.0,0.0,part_2,go,550.0,350.0,1.0,,,,,,,,,gray,hexagon
0.0,3.0,3.0,0.0,5.0,5.0,606.6258490000109,6.0,0.0,part_2,go,550.0,350.0,1.0,,,,,,,,,cyan,I
0.0,8.0,4.0,1.0,5.0,5.0,784.3688860002658,6.0,0.0,part_2,go,550.0,350.0,1.0,,,,,,,,,yellow,diamond
0.0,5.0,1.0,1.0,5.0,0.0,0.0,6.0,0.0,part_2,stop,550.0,350.0,4.0,,,,,,,,,gray,hexagon
0.0,1.0,1.0,0.0,6.0,6.0,626.1261820000072,6.0,0.0,part_2,go,600.0,350.0,1.0,,,,,,,,,white,flipped triangle
0.0,8.0,4.0,1.0,5.0,0.0,0.0,6.0,0.0,part_2,stop,600.0,350.0,4.0,,,,,,,,,yellow,diamond
0.0,6.0,2.0,1.0,6.0,6.0,1009.1324420000092,6.0,0.0,part_2,go,650.0,350.0,1.0,,,,,,,,,orange,triangle
0.0,3.0,3.0,0.0,5.0,5.0,1020.4341759999809,6.0,0.0,part_2,go,650.0,350.0,1.0,,,,,,,,,cyan,I
0.0,3.0,3.0,0.0,6.0,6.0,1436.8825850001483,6.0,0.0,part_2,go,650.0,350.0,1.0,,,,,,,,,cyan,I
0.0,5.0,1.0,1.0,5.0,0.0,0.0,6.0,0.0,part_2,stop,650.0,350.0,4.0,,,,,,,,,gray,hexagon
0.0,1.0,1.0,0.0,5.0,5.0,685.3744989998631,6.0,0.0,part_2,go,700.0,350.0,1.0,,,,,,,,,white,flipped triangle
0.0,5.0,1.0,1.0,6.0,0.0,0.0,6.0,0.0,part_2,stop,700.0,350.0,4.0,,,,,,,,,gray,hexagon
0.0,1.0,1.0,0.0,5.0,5.0,753.814286999841,6.0,0.0,part_2,go,700.0,400.0,1.0,,,,,,,,,white,flipped triangle
0.0,4.0,4.0,0.0,6.0,6.0,619.3158060000314,7.0,0.0,part_2,go,700.0,400.0,1.0,,,,,,,,,green,circle
0.0,2.0,2.0,0.0,5.0,5.0,465.1968530001795,7.0,0.0,part_2,go,700.0,400.0,1.0,,,,,,,,,magenta,square
0.0,7.0,3.0,1.0,6.0,6.0,541.4330280000286,7.0,0.0,part_2,stop,700.0,400.0,3.0,,,,,,,,,blue,cross
0.0,2.0,2.0,0.0,5.0,5.0,424.4545830001698,7.0,0.0,part_2,go,700.0,350.0,1.0,,,,,,,,,magenta,square
0.0,3.0,3.0,0.0,5.0,5.0,534.0543970000908,7.0,0.0,part_2,go,700.0,350.0,1.0,,,,,,,,,cyan,I
0.0,7.0,3.0,1.0,6.0,0.0,0.0,7.0,0.0,part_2,stop,700.0,350.0,4.0,,,,,,,,,blue,cross
0.0,1.0,1.0,0.0,5.0,5.0,556.529841000156,7.0,0.0,part_2,go,700.0,400.0,1.0,,,,,,,,,white,flipped triangle
0.0,2.0,2.0,0.0,6.0,6.0,287.837300999854,7.0,0.0,part_2,go,700.0,400.0,1.0,,,,,,,,,magenta,square
0.0,7.0,3.0,1.0,6.0,0.0,0.0,7.0,0.0,part_2,stop,700.0,400.0,4.0,,,,,,,,,blue,cross
0.0,4.0,4.0,0.0,5.0,5.0,278.486230999988,7.0,0.0,part_2,go,700.0,450.0,1.0,,,,,,,,,green,circle
0.0,5.0,1.0,1.0,5.0,5.0,377.8746570001203,7.0,0.0,part_2,stop,700.0,450.0,3.0,,,,,,,,,gray,hexagon
0.0,7.0,3.0,1.0,5.0,5.0,450.7358299997577,7.0,0.0,part_2,stop,650.0,450.0,3.0,,,,,,,,,blue,cross
0.0,3.0,3.0,0.0,5.0,5.0,664.3807469999956,7.0,0.0,part_2,go,600.0,450.0,1.0,,,,,,,,,cyan,I
0.0,6.0,2.0,1.0,5.0,5.0,465.2834220000841,7.0,0.0,part_2,stop,600.0,450.0,3.0,,,,,,,,,orange,triangle
0.0,2.0,2.0,0.0,6.0,6.0,646.350805000111,7.0,0.0,part_2,go,550.0,450.0,1.0,,,,,,,,,magenta,square
0.0,6.0,2.0,1.0,5.0,5.0,580.2999440002168,7.0,0.0,part_2,go,550.0,450.0,1.0,,,,,,,,,orange,triangle
0.0,1.0,1.0,0.0,6.0,6.0,762.76801899985,7.0,0.0,part_2,go,550.0,450.0,1.0,,,,,,,,,white,flipped triangle
0.0,8.0,4.0,1.0,6.0,0.0,0.0,7.0,0.0,part_2,stop,550.0,450.0,4.0,,,,,,,,,yellow,diamond
0.0,6.0,2.0,1.0,5.0,5.0,481.0865509998621,7.0,0.0,part_2,stop,550.0,500.0,3.0,,,,,,,,,orange,triangle
0.0,8.0,4.0,1.0,6.0,0.0,0.0,7.0,0.0,part_2,stop,500.0,500.0,4.0,,,,,,,,,yellow,diamond
0.0,3.0,3.0,0.0,6.0,6.0,709.1776319998644,7.0,0.0,part_2,go,500.0,550.0,1.0,,,,,,,,,cyan,I
0.0,4.0,4.0,0.0,6.0,6.0,333.1861360002222,7.0,0.0,part_2,go,500.0,550.0,1.0,,,,,,,,,green,circle
0.0,4.0,4.0,0.0,6.0,6.0,286.9624179998027,7.0,0.0,part_2,go,500.0,550.0,1.0,,,,,,,,,green,circle
0.0,1.0,1.0,0.0,5.0,5.0,318.7971329998618,7.0,0.0,part_2,go,500.0,550.0,1.0,,,,,,,,,white,flipped triangle
0.0,7.0,3.0,1.0,5.0,5.0,265.4828949998773,7.0,0.0,part_2,stop,500.0,550.0,3.0,,,,,,,,,blue,cross
0.0,1.0,1.0,0.0,6.0,6.0,393.3168809999188,7.0,0.0,part_2,go,450.0,550.0,1.0,,,,,,,,,white,flipped triangle
0.0,8.0,4.0,1.0,6.0,6.0,290.5171120000887,7.0,0.0,part_2,stop,450.0,550.0,3.0,,,,,,,,,yellow,diamond
0.0,6.0,2.0,1.0,5.0,0.0,0.0,7.0,0.0,part_2,stop,450.0,500.0,4.0,,,,,,,,,orange,triangle
0.0,3.0,3.0,0.0,6.0,6.0,493.4021869994467,7.0,0.0,part_2,go,500.0,500.0,1.0,,,,,,,,,cyan,I
0.0,6.0,2.0,1.0,5.0,0.0,0.0,7.0,0.0,part_2,stop,500.0,500.0,4.0,,,,,,,,,orange,triangle
0.0,6.0,2.0,1.0,6.0,0.0,0.0,7.0,0.0,part_2,stop,550.0,500.0,4.0,,,,,,,,,orange,triangle
0.0,2.0,2.0,0.0,5.0,5.0,1001.9661110000015,7.0,0.0,part_2,go,550.0,550.0,1.0,,,,,,,,,magenta,square
0.0,3.0,3.0,0.0,6.0,6.0,488.6170750005476,7.0,0.0,part_2,go,550.0,550.0,1.0,,,,,,,,,cyan,I
0.0,8.0,4.0,1.0,6.0,6.0,586.197309000454,7.0,0.0,part_2,stop,550.0,550.0,3.0,,,,,,,,,yellow,diamond
0.0,7.0,3.0,1.0,6.0,6.0,754.8093389996211,7.0,0.0,part_2,go,550.0,500.0,1.0,,,,,,,,,blue,cross
0.0,1.0,1.0,0.0,5.0,5.0,423.774830000184,7.0,0.0,part_2,go,550.0,500.0,1.0,,,,,,,,,white,flipped triangle
0.0,8.0,4.0,1.0,6.0,6.0,260.1545309998982,8.0,0.0,part_2,go,550.0,500.0,1.0,,,,,,,,,yellow,diamond
0.0,7.0,3.0,1.0,6.0,6.0,434.1571260001728,8.0,0.0,part_2,stop,550.0,500.0,3.0,,,,,,,,,blue,cross
0.0,3.0,3.0,0.0,6.0,6.0,383.9231179999842,8.0,0.0,part_2,go,550.0,450.0,1.0,,,,,,,,,cyan,I
0.0,4.0,4.0,0.0,5.0,5.0,429.2555219999485,8.0,0.0,part_2,go,550.0,450.0,1.0,,,,,,,,,green,circle
0.0,8.0,4.0,1.0,6.0,6.0,490.5295070002466,8.0,0.0,part_2,stop,550.0,450.0,3.0,,,,,,,,,yellow,diamond
0.0,6.0,2.0,1.0,5.0,5.0,394.8733309998715,8.0,0.0,part_2,stop,550.0,400.0,3.0,,,,,,,,,orange,triangle
0.0,1.0,1.0,0.0,6.0,6.0,473.9045249998526,8.0,0.0,part_2,go,500.0,400.0,1.0,,,,,,,,,white,flipped triangle
0.0,7.0,3.0,1.0,5.0,5.0,793.6141840000346,8.0,0.0,part_2,go,500.0,400.0,1.0,,,,,,,,,blue,cross
0.0,4.0,4.0,0.0,5.0,5.0,312.8993549998995,8.0,0.0,part_2,go,500.0,400.0,1.0,,,,,,,,,green,circle
0.0,6.0,2.0,1.0,6.0,6.0,298.4015120000549,8.0,0.0,part_2,go,500.0,400.0,1.0,,,,,,,,,orange,triangle
0.0,3.0,3.0,0.0,6.0,6.0,434.0562520001185,8.0,0.0,part_2,go,500.0,400.0,1.0,,,,,,,,,cyan,I
0.0,1.0,1.0,0.0,6.0,6.0,287.6640010008486,8.0,0.0,part_2,go,500.0,400.0,1.0,,,,,,,,,white,flipped triangle
0.0,6.0,2.0,1.0,6.0,6.0,463.949531000253,8.0,0.0,part_2,stop,500.0,400.0,3.0,,,,,,,,,orange,triangle
0.0,4.0,4.0,0.0,5.0,5.0,473.2648740000513,8.0,0.0,part_2,go,500.0,350.0,1.0,,,,,,,,,green,circle
0.0,8.0,4.0,1.0,5.0,5.0,473.561728000277,8.0,0.0,part_2,stop,500.0,350.0,3.0,,,,,,,,,yellow,diamond
0.0,5.0,1.0,1.0,6.0,6.0,562.5876009999047,8.0,0.0,part_2,go,450.0,350.0,1.0,,,,,,,,,gray,hexagon
0.0,3.0,3.0,0.0,5.0,5.0,371.5791530003116,8.0,0.0,part_2,go,450.0,350.0,1.0,,,,,,,,,cyan,I
0.0,8.0,4.0,1.0,5.0,5.0,499.5349330001772,8.0,0.0,part_2,stop,450.0,350.0,3.0,,,,,,,,,yellow,diamond
0.0,2.0,2.0,0.0,5.0,5.0,276.1295469999822,8.0,0.0,part_2,go,400.0,350.0,1.0,,,,,,,,,magenta,square
0.0,3.0,3.0,0.0,5.0,5.0,292.990290000489,8.0,0.0,part_2,go,400.0,350.0,1.0,,,,,,,,,cyan,I
0.0,4.0,4.0,0.0,5.0,5.0,388.9226000001144,8.0,0.0,part_2,go,400.0,350.0,1.0,,,,,,,,,green,circle
0.0,3.0,3.0,0.0,5.0,5.0,452.8509060000942,8.0,0.0,part_2,go,400.0,350.0,1.0,,,,,,,,,cyan,I
0.0,7.0,3.0,1.0,6.0,0.0,0.0,8.0,0.0,part_2,stop,400.0,350.0,4.0,,,,,,,,,blue,cross
0.0,2.0,2.0,0.0,5.0,5.0,367.6659509992532,8.0,0.0,part_2,go,400.0,400.0,1.0,,,,,,,,,magenta,square
0.0,1.0,1.0,0.0,5.0,5.0,329.7545719997288,8.0,0.0,part_2,go,400.0,400.0,1.0,,,,,,,,,white,flipped triangle
0.0,4.0,4.0,0.0,6.0,6.0,327.0116169996981,8.0,0.0,part_2,go,400.0,400.0,1.0,,,,,,,,,green,circle
0.0,2.0,2.0,0.0,6.0,6.0,296.7677249998814,8.0,0.0,part_2,go,400.0,400.0,1.0,,,,,,,,,magenta,square
0.0,2.0,2.0,0.0,6.0,6.0,543.3411210005943,8.0,0.0,part_2,go,400.0,400.0,1.0,,,,,,,,,magenta,square
0.0,8.0,4.0,1.0,6.0,0.0,0.0,8.0,0.0,part_2,stop,400.0,400.0,4.0,,,,,,,,,yellow,diamond
0.0,7.0,3.0,1.0,5.0,5.0,432.4812509994444,8.0,0.0,part_2,stop,400.0,450.0,3.0,,,,,,,,,blue,cross
0.0,1.0,1.0,0.0,6.0,6.0,734.6969099999114,8.0,0.0,part_2,go,350.0,450.0,1.0,,,,,,,,,white,flipped triangle
0.0,8.0,4.0,1.0,5.0,0.0,0.0,8.0,0.0,part_2,stop,350.0,450.0,4.0,,,,,,,,,yellow,diamond
0.0,6.0,2.0,1.0,5.0,5.0,607.0180420001634,8.0,0.0,part_2,stop,400.0,450.0,3.0,,,,,,,,,orange,triangle
0.0,2.0,2.0,0.0,5.0,5.0,826.8207770006484,8.0,0.0,part_2,go,350.0,450.0,1.0,,,,,,,,,magenta,square
0.0,5.0,1.0,1.0,5.0,0.0,0.0,8.0,0.0,part_2,stop,350.0,450.0,4.0,,,,,,,,,gray,hexagon
0.0,8.0,4.0,1.0,6.0,0.0,0.0,8.0,0.0,part_2,go,400.0,450.0,5.0,,,,,,,,,yellow,diamond
0.0,3.0,3.0,0.0,7.0,2.0,0.5982639995636,1.0,1.0,part_3,go,0.0,0.0,0.0,44.0,1.0,88.0,44.0,264.0,176.0,132.0,220.0,cyan,I
0.0,6.0,2.0,1.0,7.0,4.0,1981.5832889999,1.0,1.0,part_3,go,0.0,0.0,0.0,68.0,2.0,102.0,170.0,204.0,68.0,34.0,136.0,orange,triangle
0.0,4.0,4.0,0.0,7.0,2.0,2777.797964000456,1.0,1.0,part_3,go,0.0,0.0,0.0,98.0,2.0,294.0,98.0,49.0,245.0,147.0,196.0,green,circle
0.0,4.0,4.0,0.0,7.0,5.0,2223.323571999572,1.0,1.0,part_3,go,0.0,0.0,0.0,234.0,6.0,195.0,39.0,78.0,156.0,234.0,117.0,green,circle
0.0,3.0,3.0,0.0,7.0,4.0,1638.5869559999264,1.0,1.0,part_3,go,0.0,0.0,0.0,162.0,3.0,108.0,270.0,54.0,162.0,324.0,216.0,cyan,I
0.0,7.0,3.0,1.0,7.0,2.0,2570.188673999837,1.0,1.0,part_3,go,0.0,0.0,0.0,136.0,4.0,68.0,136.0,204.0,34.0,102.0,170.0,blue,cross
0.0,3.0,3.0,0.0,7.0,3.0,2821.534958000484,1.0,1.0,part_3,go,0.0,0.0,0.0,136.0,4.0,204.0,68.0,136.0,34.0,102.0,170.0,cyan,I
0.0,1.0,1.0,0.0,7.0,6.0,4384.05455299926,1.0,1.0,part_3,go,0.0,0.0,0.0,156.0,4.0,117.0,39.0,234.0,195.0,78.0,156.0,white,flipped triangle
0.0,4.0,4.0,0.0,7.0,2.0,1310.9579080000913,1.0,1.0,part_3,go,0.0,0.0,0.0,49.0,1.0,245.0,49.0,147.0,196.0,98.0,294.0,green,circle
0.0,7.0,3.0,1.0,7.0,4.0,1228.0609169993113,1.0,1.0,part_3,go,0.0,0.0,0.0,270.0,5.0,108.0,54.0,324.0,270.0,162.0,216.0,blue,cross
0.0,3.0,3.0,0.0,7.0,6.0,3775.502187999337,1.0,1.0,part_3,go,0.0,0.0,0.0,162.0,3.0,54.0,108.0,270.0,324.0,216.0,162.0,cyan,I
0.0,5.0,1.0,1.0,7.0,2.0,4416.98138799984,1.0,1.0,part_3,go,0.0,0.0,0.0,102.0,3.0,136.0,102.0,68.0,170.0,34.0,204.0,gray,hexagon
0.0,2.0,2.0,0.0,7.0,5.0,2230.819424999936,1.0,1.0,part_3,go,0.0,0.0,0.0,156.0,4.0,78.0,195.0,117.0,234.0,156.0,39.0,magenta,square
0.0,2.0,2.0,0.0,7.0,3.0,1588.0466700000395,1.0,1.0,part_3,go,0.0,0.0,0.0,147.0,3.0,196.0,245.0,147.0,49.0,294.0,98.0,magenta,square
0.0,4.0,4.0,0.0,7.0,1.0,4371.24749800023,1.0,1.0,part_3,go,0.0,0.0,0.0,216.0,4.0,216.0,270.0,54.0,108.0,162.0,324.0,green,circle
0.0,4.0,4.0,0.0,7.0,5.0,2504.2581610005072,1.0,1.0,part_3,go,0.0,0.0,0.0,216.0,4.0,54.0,108.0,162.0,270.0,216.0,324.0,green,circle
0.0,8.0,4.0,1.0,7.0,4.0,2653.6739510002008,1.0,1.0,part_3,go,0.0,0.0,0.0,108.0,2.0,54.0,216.0,324.0,108.0,270.0,162.0,yellow,diamond
0.0,3.0,3.0,0.0,7.0,6.0,3177.0264610004233,1.0,1.0,part_3,go,0.0,0.0,0.0,98.0,2.0,294.0,245.0,196.0,147.0,49.0,98.0,cyan,I
0.0,5.0,1.0,1.0,7.0,4.0,3092.0931990003737,1.0,1.0,part_3,go,0.0,0.0,0.0,196.0,4.0,294.0,147.0,98.0,196.0,245.0,49.0,gray,hexagon
0.0,8.0,4.0,1.0,7.0,4.0,2931.652414999917,1.0,1.0,part_3,go,0.0,0.0,0.0,176.0,4.0,264.0,44.0,132.0,176.0,88.0,220.0,yellow,diamond
0.0,7.0,3.0,1.0,7.0,1.0,3155.3406089997225,2.0,1.0,part_3,go,0.0,0.0,0.0,98.0,2.0,98.0,294.0,49.0,245.0,147.0,196.0,blue,cross
0.0,8.0,4.0,1.0,7.0,1.0,4319.3988180000815,2.0,1.0,part_3,go,0.0,0.0,0.0,216.0,4.0,216.0,162.0,108.0,54.0,270.0,324.0,yellow,diamond
0.0,3.0,3.0,0.0,7.0,3.0,898.605389000295,2.0,1.0,part_3,go,0.0,0.0,0.0,39.0,1.0,234.0,117.0,39.0,156.0,78.0,195.0,cyan,I
0.0,5.0,1.0,1.0,7.0,1.0,1048.1116420005492,2.0,2.0,part_3,go,0.0,0.0,0.0,162.0,3.0,162.0,108.0,270.0,54.0,324.0,216.0,gray,hexagon
0.0,8.0,4.0,1.0,7.0,2.0,1821.927441000298,2.0,1.0,part_3,go,0.0,0.0,0.0,49.0,1.0,245.0,49.0,147.0,294.0,98.0,196.0,yellow,diamond
0.0,7.0,3.0,1.0,7.0,2.0,2069.2915469999207,2.0,1.0,part_3,go,0.0,0.0,0.0,170.0,5.0,68.0,170.0,204.0,136.0,102.0,34.0,blue,cross
0.0,6.0,2.0,1.0,7.0,4.0,1937.3390170003404,2.0,1.0,part_3,go,0.0,0.0,0.0,88.0,2.0,264.0,132.0,220.0,88.0,44.0,176.0,orange,triangle
0.0,4.0,4.0,0.0,7.0,2.0,1409.7743879992777,2.0,1.0,part_3,go,0.0,0.0,0.0,117.0,3.0,39.0,117.0,195.0,156.0,78.0,234.0,green,circle
0.0,3.0,3.0,0.0,7.0,5.0,2198.85874099964,2.0,1.0,part_3,go,0.0,0.0,0.0,245.0,5.0,147.0,98.0,294.0,49.0,245.0,196.0,cyan,I
0.0,2.0,2.0,0.0,7.0,3.0,2984.899650999978,2.0,1.0,part_3,go,0.0,0.0,0.0,245.0,5.0,98.0,294.0,245.0,49.0,196.0,147.0,magenta,square
0.0,6.0,2.0,1.0,7.0,4.0,1936.8979089995264,2.0,1.0,part_3,go,0.0,0.0,0.0,102.0,3.0,204.0,136.0,170.0,102.0,34.0,68.0,orange,triangle
0.0,2.0,2.0,0.0,7.0,1.0,1504.3349379993742,2.0,1.0,part_3,go,0.0,0.0,0.0,204.0,6.0,204.0,170.0,34.0,136.0,102.0,68.0,magenta,square
0.0,7.0,3.0,1.0,7.0,6.0,1759.961697000108,2.0,1.0,part_3,go,0.0,0.0,0.0,98.0,2.0,196.0,294.0,49.0,147.0,245.0,98.0,blue,cross
0.0,1.0,1.0,0.0,7.0,3.0,1752.3528400006398,2.0,1.0,part_3,go,0.0,0.0,0.0,176.0,4.0,44.0,88.0,176.0,264.0,132.0,220.0,white,flipped triangle
0.0,6.0,2.0,1.0,7.0,4.0,3827.454616000068,2.0,1.0,part_3,go,0.0,0.0,0.0,176.0,4.0,88.0,132.0,44.0,176.0,220.0,264.0,orange,triangle
0.0,1.0,1.0,0.0,7.0,4.0,2809.169211999688,2.0,1.0,part_3,go,0.0,0.0,0.0,220.0,5.0,264.0,44.0,176.0,220.0,132.0,88.0,white,flipped triangle
0.0,1.0,1.0,0.0,7.0,6.0,2535.3186190004635,2.0,1.0,part_3,go,0.0,0.0,0.0,216.0,4.0,162.0,270.0,108.0,324.0,54.0,216.0,white,flipped triangle
0.0,1.0,1.0,0.0,7.0,4.0,2902.783570999418,2.0,1.0,part_3,go,0.0,0.0,0.0,117.0,3.0,78.0,39.0,195.0,117.0,234.0,156.0,white,flipped triangle
0.0,6.0,2.0,1.0,7.0,3.0,3108.8732829994115,2.0,1.0,part_3,go,0.0,0.0,0.0,324.0,6.0,270.0,216.0,324.0,108.0,54.0,162.0,orange,triangle
0.0,4.0,4.0,0.0,7.0,4.0,1850.1499929998315,2.0,1.0,part_3,go,0.0,0.0,0.0,34.0,1.0,170.0,136.0,68.0,34.0,102.0,204.0,green,circle
0.0,8.0,4.0,1.0,7.0,2.0,1626.887061999696,3.0,1.0,part_3,go,0.0,0.0,0.0,156.0,4.0,117.0,156.0,195.0,234.0,39.0,78.0,yellow,diamond
0.0,8.0,4.0,1.0,7.0,3.0,1216.3100230000057,3.0,1.0,part_3,go,0.0,0.0,0.0,68.0,2.0,136.0,204.0,68.0,34.0,102.0,170.0,yellow,diamond
0.0,4.0,4.0,0.0,7.0,4.0,940.2497250002853,3.0,1.0,part_3,go,0.0,0.0,0.0,132.0,3.0,88.0,264.0,220.0,132.0,176.0,44.0,green,circle
0.0,7.0,3.0,1.0,7.0,3.0,3013.727028000176,3.0,1.0,part_3,go,0.0,0.0,0.0,195.0,5.0,78.0,234.0,195.0,156.0,117.0,39.0,blue,cross
0.0,5.0,1.0,1.0,7.0,1.0,1747.058744000242,3.0,1.0,part_3,go,0.0,0.0,0.0,54.0,1.0,54.0,216.0,270.0,324.0,162.0,108.0,gray,hexagon
0.0,2.0,2.0,0.0,7.0,6.0,3373.543912000059,3.0,1.0,part_3,go,0.0,0.0,0.0,132.0,3.0,264.0,176.0,220.0,44.0,88.0,132.0,magenta,square
0.0,4.0,4.0,0.0,7.0,3.0,1350.2747789998466,3.0,1.0,part_3,go,0.0,0.0,0.0,102.0,3.0,136.0,170.0,102.0,68.0,34.0,204.0,green,circle
0.0,5.0,1.0,1.0,7.0,2.0,2800.503122000009,3.0,1.0,part_3,go,0.0,0.0,0.0,264.0,6.0,132.0,264.0,220.0,44.0,176.0,88.0,gray,hexagon
0.0,1.0,1.0,0.0,7.0,4.0,2411.7296320000605,3.0,1.0,part_3,go,0.0,0.0,0.0,102.0,3.0,170.0,204.0,68.0,102.0,34.0,136.0,white,flipped triangle
0.0,7.0,3.0,1.0,7.0,5.0,1580.616055000064,3.0,1.0,part_3,go,0.0,0.0,0.0,78.0,2.0,234.0,195.0,39.0,117.0,78.0,156.0,blue,cross
0.0,8.0,4.0,1.0,7.0,1.0,2723.412309000196,3.0,1.0,part_3,go,0.0,0.0,0.0,102.0,3.0,102.0,34.0,170.0,204.0,68.0,136.0,yellow,diamond
0.0,5.0,1.0,1.0,7.0,6.0,2586.2047939999684,3.0,1.0,part_3,go,0.0,0.0,0.0,132.0,3.0,44.0,88.0,264.0,220.0,176.0,132.0,gray,hexagon
0.0,2.0,2.0,0.0,7.0,4.0,1645.7136379995063,3.0,1.0,part_3,go,0.0,0.0,0.0,216.0,4.0,54.0,270.0,108.0,216.0,324.0,162.0,magenta,square
0.0,1.0,1.0,0.0,7.0,1.0,1756.9526209999822,3.0,1.0,part_3,go,0.0,0.0,0.0,204.0,6.0,204.0,68.0,102.0,170.0,34.0,136.0,white,flipped triangle
0.0,8.0,4.0,1.0,7.0,3.0,2593.6416049999025,3.0,1.0,part_3,go,0.0,0.0,0.0,147.0,3.0,245.0,98.0,147.0,49.0,294.0,196.0,yellow,diamond
0.0,7.0,3.0,1.0,7.0,4.0,1251.3846690007997,3.0,1.0,part_3,go,0.0,0.0,0.0,324.0,6.0,270.0,54.0,162.0,324.0,216.0,108.0,blue,cross
0.0,5.0,1.0,1.0,7.0,5.0,2093.1081529997755,3.0,1.0,part_3,go,0.0,0.0,0.0,147.0,3.0,196.0,98.0,294.0,245.0,147.0,49.0,gray,hexagon
0.0,2.0,2.0,0.0,7.0,3.0,1706.3045909999346,3.0,1.0,part_3,go,0.0,0.0,0.0,44.0,1.0,88.0,176.0,44.0,264.0,132.0,220.0,magenta,square
0.0,2.0,2.0,0.0,7.0,3.0,3676.293017999342,3.0,1.0,part_3,go,0.0,0.0,0.0,162.0,3.0,324.0,108.0,162.0,216.0,270.0,54.0,magenta,square
0.0,6.0,2.0,1.0,7.0,6.0,2798.844095000277,3.0,1.0,part_3,go,0.0,0.0,0.0,49.0,1.0,245.0,98.0,294.0,147.0,196.0,49.0,orange,triangle
0.0,3.0,3.0,0.0,7.0,3.0,1706.8108049998043,4.0,1.0,part_3,go,0.0,0.0,0.0,176.0,4.0,132.0,88.0,176.0,264.0,220.0,44.0,cyan,I
0.0,1.0,1.0,0.0,7.0,4.0,2566.163943999527,4.0,1.0,part_3,go,0.0,0.0,0.0,49.0,1.0,245.0,98.0,294.0,49.0,196.0,147.0,white,flipped triangle
0.0,7.0,3.0,1.0,7.0,1.0,2009.2210160000832,4.0,1.0,part_3,go,0.0,0.0,0.0,176.0,4.0,176.0,44.0,264.0,132.0,220.0,88.0,blue,cross
0.0,1.0,1.0,0.0,7.0,4.0,3135.922034000032,4.0,1.0,part_3,go,0.0,0.0,0.0,162.0,3.0,54.0,108.0,216.0,162.0,270.0,324.0,white,flipped triangle
0.0,6.0,2.0,1.0,7.0,6.0,1631.3366779995704,4.0,1.0,part_3,go,0.0,0.0,0.0,117.0,3.0,234.0,156.0,39.0,195.0,78.0,117.0,orange,triangle
0.0,4.0,4.0,0.0,7.0,1.0,2911.570420999851,4.0,1.0,part_3,go,0.0,0.0,0.0,220.0,5.0,220.0,264.0,44.0,176.0,88.0,132.0,green,circle
0.0,6.0,2.0,1.0,7.0,2.0,2888.0190520003453,4.0,1.0,part_3,go,0.0,0.0,0.0,196.0,4.0,49.0,196.0,245.0,147.0,98.0,294.0,orange,triangle
0.0,8.0,4.0,1.0,7.0,3.0,2394.0299170008075,4.0,1.0,part_3,go,0.0,0.0,0.0,195.0,5.0,117.0,78.0,195.0,234.0,156.0,39.0,yellow,diamond
0.0,3.0,3.0,0.0,7.0,4.0,2215.5052500002057,4.0,1.0,part_3,go,0.0,0.0,0.0,170.0,5.0,68.0,102.0,34.0,170.0,204.0,136.0,cyan,I
0.0,1.0,1.0,0.0,7.0,2.0,1709.8634399999355,4.0,1.0,part_3,go,0.0,0.0,0.0,245.0,5.0,196.0,245.0,294.0,147.0,98.0,49.0,white,flipped triangle
0.0,7.0,3.0,1.0,7.0,4.0,2975.073994000013,4.0,1.0,part_3,go,0.0,0.0,0.0,88.0,2.0,220.0,264.0,44.0,88.0,176.0,132.0,blue,cross
0.0,5.0,1.0,1.0,7.0,6.0,1635.3388150000685,4.0,1.0,part_3,go,0.0,0.0,0.0,195.0,5.0,39.0,117.0,156.0,234.0,78.0,195.0,gray,hexagon
0.0,6.0,2.0,1.0,7.0,5.0,3633.2630659999263,4.0,1.0,part_3,go,0.0,0.0,0.0,270.0,5.0,216.0,54.0,162.0,108.0,270.0,324.0,orange,triangle
0.0,3.0,3.0,0.0,7.0,3.0,1133.6985549996823,4.0,1.0,part_3,go,0.0,0.0,0.0,156.0,4.0,39.0,78.0,156.0,234.0,195.0,117.0,cyan,I
0.0,8.0,4.0,1.0,7.0,5.0,2442.49863999994,4.0,1.0,part_3,go,0.0,0.0,0.0,132.0,3.0,176.0,220.0,88.0,44.0,132.0,264.0,yellow,diamond
0.0,5.0,1.0,1.0,7.0,6.0,1990.3360309999696,4.0,1.0,part_3,go,0.0,0.0,0.0,117.0,3.0,156.0,78.0,39.0,234.0,195.0,117.0,gray,hexagon
0.0,6.0,2.0,1.0,7.0,3.0,1388.7153509995187,4.0,1.0,part_3,go,0.0,0.0,0.0,117.0,3.0,195.0,234.0,117.0,78.0,156.0,39.0,orange,triangle
0.0,2.0,2.0,0.0,7.0,5.0,2339.056580999568,4.0,1.0,part_3,go,0.0,0.0,0.0,78.0,2.0,234.0,39.0,117.0,156.0,78.0,195.0,magenta,square
0.0,2.0,2.0,0.0,7.0,3.0,1569.6482310004285,4.0,1.0,part_3,go,0.0,0.0,0.0,204.0,6.0,136.0,68.0,204.0,102.0,34.0,170.0,magenta,square
0.0,5.0,1.0,1.0,7.0,3.0,3080.934354999954,4.0,1.0,part_3,go,0.0,0.0,0.0,204.0,6.0,34.0,170.0,204.0,136.0,102.0,68.0,gray,hexagon
