raw_reward_magnitude,stim_reward,stepwise_reward_magnitude,paired_with_stopping,stim_location,response,reaction_time,block,num_trial_presentations,which_phase,stop_signal_trial_type,left_SSD,right_SSD,accuracy,chosen_bidding_amount,chosen_bidding_level,possible_bid_1,possible_bid_2,possible_bid_3,possible_bid_4,possible_bid_5,possible_bid_6,color_text,shape_text
180.0,3.0,3.0,0.0,2.0,2.0,569.3041170000015,1.0,1.0,phase_1,,,,,,,,,,,,,gray,hexagon
0.0,5.0,0.0,1.0,4.0,4.0,483.7403750000248,1.0,1.0,phase_1,,,,,,,,,,,,,cyan,I
177.0,3.0,3.0,0.0,4.0,4.0,481.8122260001019,1.0,1.0,phase_1,,,,,,,,,,,,,gray,hexagon
223.0,3.0,3.0,0.0,2.0,2.0,423.1934590000037,1.0,1.0,phase_1,,,,,,,,,,,,,gray,hexagon
425.0,4.0,4.0,0.0,2.0,2.0,420.4971869999099,1.0,1.0,phase_1,,,,,,,,,,,,,green,cross
0.0,8.0,0.0,1.0,2.0,2.0,445.5227739999827,1.0,1.0,phase_1,,,,,,,,,,,,,white,circle
0.0,1.0,0.0,0.0,4.0,4.0,360.6778659998326,1.0,1.0,phase_1,,,,,,,,,,,,,blue,diamond
90.0,6.0,2.0,1.0,1.0,1.0,346.7527950001567,1.0,1.0,phase_1,,,,,,,,,,,,,yellow,triangle
0.0,1.0,0.0,0.0,3.0,3.0,439.7616390001531,1.0,1.0,phase_1,,,,,,,,,,,,,blue,diamond
222.0,7.0,3.0,1.0,1.0,1.0,426.8362550001257,1.0,1.0,phase_1,,,,,,,,,,,,,magenta,flipped triangle
0.0,2.0,0.0,0.0,2.0,2.0,350.4283439999653,1.0,1.0,phase_1,,,,,,,,,,,,,orange,square
75.0,2.0,2.0,0.0,3.0,3.0,326.5507450000768,1.0,1.0,phase_1,,,,,,,,,,,,,orange,square
26.0,1.0,1.0,0.0,2.0,2.0,344.0082559998245,1.0,1.0,phase_1,,,,,,,,,,,,,blue,diamond
215.0,3.0,3.0,0.0,1.0,1.0,388.9472470000328,1.0,1.0,phase_1,,,,,,,,,,,,,gray,hexagon
0.0,1.0,0.0,0.0,2.0,2.0,339.9753799999416,1.0,1.0,phase_1,,,,,,,,,,,,,blue,diamond
123.0,6.0,2.0,1.0,3.0,3.0,386.4195020000807,1.0,1.0,phase_1,,,,,,,,,,,,,yellow,triangle
419.0,4.0,4.0,0.0,3.0,3.0,358.1247339998299,1.0,1.0,phase_1,,,,,,,,,,,,,green,cross
398.0,8.0,4.0,1.0,2.0,2.0,273.7407970000731,1.0,1.0,phase_1,,,,,,,,,,,,,white,circle
38.0,5.0,1.0,1.0,3.0,3.0,391.2911429999894,1.0,1.0,phase_1,,,,,,,,,,,,,cyan,I
59.0,1.0,1.0,0.0,1.0,1.0,373.0998060000274,1.0,1.0,phase_1,,,,,,,,,,,,,blue,diamond
223.0,3.0,3.0,0.0,2.0,2.0,414.1974619999473,1.0,1.0,phase_1,,,,,,,,,,,,,gray,hexagon
113.0,6.0,2.0,1.0,3.0,3.0,348.7341099998957,1.0,1.0,phase_1,,,,,,,,,,,,,yellow,triangle
183.0,7.0,3.0,1.0,2.0,2.0,342.9501260000052,1.0,1.0,phase_1,,,,,,,,,,,,,magenta,flipped triangle
0.0,8.0,0.0,1.0,1.0,1.0,357.6253759999872,1.0,1.0,phase_1,,,,,,,,,,,,,white,circle
223.0,7.0,3.0,1.0,4.0,4.0,336.2300999999661,1.0,1.0,phase_1,,,,,,,,,,,,,magenta,flipped triangle
206.0,7.0,3.0,1.0,4.0,4.0,395.6009490000269,1.0,1.0,phase_1,,,,,,,,,,,,,magenta,flipped triangle
116.0,2.0,2.0,0.0,1.0,1.0,369.9286529999881,1.0,1.0,phase_1,,,,,,,,,,,,,orange,square
94.0,2.0,2.0,0.0,2.0,2.0,282.9690290000144,1.0,1.0,phase_1,,,,,,,,,,,,,orange,square
0.0,2.0,0.0,0.0,1.0,1.0,324.0653310001562,1.0,1.0,phase_1,,,,,,,,,,,,,orange,square
0.0,3.0,0.0,0.0,4.0,4.0,262.0201999998244,1.0,1.0,phase_1,,,,,,,,,,,,,gray,hexagon
121.0,6.0,2.0,1.0,2.0,2.0,317.8758090000428,1.0,1.0,phase_1,,,,,,,,,,,,,yellow,triangle
393.0,4.0,4.0,0.0,4.0,4.0,366.7667409999922,1.0,1.0,phase_1,,,,,,,,,,,,,green,cross
80.0,2.0,2.0,0.0,2.0,2.0,356.7616540001381,1.0,1.0,phase_1,,,,,,,,,,,,,orange,square
106.0,2.0,2.0,0.0,3.0,3.0,312.9418280000209,1.0,1.0,phase_1,,,,,,,,,,,,,orange,square
48.0,5.0,1.0,1.0,1.0,1.0,295.7414109998808,1.0,1.0,phase_1,,,,,,,,,,,,,cyan,I
111.0,6.0,2.0,1.0,3.0,3.0,369.1037609999057,1.0,1.0,phase_1,,,,,,,,,,,,,yellow,triangle
388.0,8.0,4.0,1.0,1.0,1.0,327.9926719999366,1.0,1.0,phase_1,,,,,,,,,,,,,white,circle
108.0,2.0,2.0,0.0,4.0,4.0,291.3891279999916,1.0,1.0,phase_1,,,,,,,,,,,,,orange,square
204.0,7.0,3.0,1.0,1.0,1.0,315.2922869999202,1.0,1.0,phase_1,,,,,,,,,,,,,magenta,flipped triangle
381.0,8.0,4.0,1.0,4.0,4.0,312.6900039999327,1.0,1.0,phase_1,,,,,,,,,,,,,white,circle
57.0,5.0,1.0,1.0,3.0,3.0,348.2248000000254,1.0,1.0,phase_1,,,,,,,,,,,,,cyan,I
82.0,6.0,2.0,1.0,4.0,4.0,349.9277490000168,1.0,1.0,phase_1,,,,,,,,,,,,,yellow,triangle
71.0,1.0,1.0,0.0,4.0,4.0,297.6094939999711,1.0,1.0,phase_1,,,,,,,,,,,,,blue,diamond
376.0,4.0,4.0,0.0,2.0,2.0,313.029551999989,1.0,1.0,phase_1,,,,,,,,,,,,,green,cross
400.0,8.0,4.0,1.0,4.0,4.0,343.9259829999628,1.0,1.0,phase_1,,,,,,,,,,,,,white,circle
116.0,6.0,2.0,1.0,1.0,1.0,324.695389999988,1.0,1.0,phase_1,,,,,,,,,,,,,yellow,triangle
384.0,4.0,4.0,0.0,1.0,1.0,364.5899970001665,1.0,1.0,phase_1,,,,,,,,,,,,,green,cross
106.0,2.0,2.0,0.0,3.0,3.0,304.2202789999919,1.0,1.0,phase_1,,,,,,,,,,,,,orange,square
397.0,8.0,4.0,1.0,2.0,2.0,324.4101730001603,1.0,1.0,phase_1,,,,,,,,,,,,,white,circle
405.0,8.0,4.0,1.0,2.0,2.0,308.4908629998608,1.0,1.0,phase_1,,,,,,,,,,,,,white,circle
0.0,7.0,0.0,1.0,1.0,1.0,363.6354669999946,1.0,1.0,phase_1,,,,,,,,,,,,,magenta,flipped triangle
400.0,4.0,4.0,0.0,1.0,1.0,319.8913839999022,1.0,1.0,phase_1,,,,,,,,,,,,,green,cross
393.0,8.0,4.0,1.0,3.0,3.0,364.1401249999489,1.0,1.0,phase_1,,,,,,,,,,,,,white,circle
51.0,1.0,1.0,0.0,4.0,4.0,337.8299410001091,1.0,1.0,phase_1,,,,,,,,,,,,,blue,diamond
59.0,1.0,1.0,0.0,2.0,2.0,362.7991309999743,1.0,1.0,phase_1,,,,,,,,,,,,,blue,diamond
225.0,3.0,3.0,0.0,2.0,2.0,333.9324609999039,1.0,1.0,phase_1,,,,,,,,,,,,,gray,hexagon
82.0,2.0,2.0,0.0,2.0,2.0,305.1536830000714,1.0,1.0,phase_1,,,,,,,,,,,,,orange,square
389.0,4.0,4.0,0.0,1.0,1.0,320.9970789998806,1.0,1.0,phase_1,,,,,,,,,,,,,green,cross
183.0,3.0,3.0,0.0,1.0,1.0,346.8245609999485,1.0,1.0,phase_1,,,,,,,,,,,,,gray,hexagon
0.0,7.0,0.0,1.0,4.0,4.0,360.140322999996,1.0,1.0,phase_1,,,,,,,,,,,,,magenta,flipped triangle
62.0,5.0,1.0,1.0,3.0,3.0,394.8120800000652,1.0,1.0,phase_1,,,,,,,,,,,,,cyan,I
0.0,1.0,0.0,0.0,1.0,1.0,352.8566180000325,1.0,1.0,phase_1,,,,,,,,,,,,,blue,diamond
45.0,1.0,1.0,0.0,4.0,4.0,581.5039569999954,1.0,1.0,phase_1,,,,,,,,,,,,,blue,diamond
61.0,5.0,1.0,1.0,1.0,1.0,363.4610639999209,1.0,1.0,phase_1,,,,,,,,,,,,,cyan,I
56.0,1.0,1.0,0.0,2.0,2.0,293.9817030000995,1.0,1.0,phase_1,,,,,,,,,,,,,blue,diamond
56.0,1.0,1.0,0.0,3.0,3.0,298.9950450000833,1.0,1.0,phase_1,,,,,,,,,,,,,blue,diamond
220.0,3.0,3.0,0.0,4.0,4.0,387.9616619999524,1.0,1.0,phase_1,,,,,,,,,,,,,gray,hexagon
389.0,8.0,4.0,1.0,2.0,2.0,359.3014990001393,1.0,1.0,phase_1,,,,,,,,,,,,,white,circle
34.0,1.0,1.0,0.0,2.0,2.0,373.9342380001744,1.0,1.0,phase_1,,,,,,,,,,,,,blue,diamond
64.0,1.0,1.0,0.0,1.0,1.0,291.4819529999022,1.0,1.0,phase_1,,,,,,,,,,,,,blue,diamond
179.0,7.0,3.0,1.0,1.0,1.0,320.849563000138,1.0,1.0,phase_1,,,,,,,,,,,,,magenta,flipped triangle
397.0,4.0,4.0,0.0,1.0,1.0,347.0034399999804,1.0,1.0,phase_1,,,,,,,,,,,,,green,cross
410.0,8.0,4.0,1.0,1.0,1.0,291.9667080000181,1.0,1.0,phase_1,,,,,,,,,,,,,white,circle
85.0,2.0,2.0,0.0,1.0,1.0,321.0571039999195,1.0,1.0,phase_1,,,,,,,,,,,,,orange,square
194.0,7.0,3.0,1.0,4.0,4.0,362.7677499998754,1.0,1.0,phase_1,,,,,,,,,,,,,magenta,flipped triangle
102.0,6.0,2.0,1.0,3.0,3.0,392.3908700000993,1.0,1.0,phase_1,,,,,,,,,,,,,yellow,triangle
0.0,4.0,0.0,0.0,3.0,3.0,352.9835429999366,1.0,1.0,phase_1,,,,,,,,,,,,,green,cross
393.0,4.0,4.0,0.0,3.0,3.0,362.5212379999993,1.0,1.0,phase_1,,,,,,,,,,,,,green,cross
181.0,3.0,3.0,0.0,2.0,2.0,335.6185210000149,1.0,1.0,phase_1,,,,,,,,,,,,,gray,hexagon
0.0,3.0,0.0,0.0,2.0,2.0,378.9676889998645,1.0,1.0,phase_1,,,,,,,,,,,,,gray,hexagon
43.0,5.0,1.0,1.0,3.0,3.0,359.1710529999545,1.0,1.0,phase_1,,,,,,,,,,,,,cyan,I
0.0,3.0,0.0,0.0,2.0,2.0,348.7358679999488,1.0,1.0,phase_1,,,,,,,,,,,,,gray,hexagon
415.0,4.0,4.0,0.0,1.0,1.0,312.8696690000652,1.0,1.0,phase_1,,,,,,,,,,,,,green,cross
0.0,2.0,0.0,0.0,1.0,1.0,409.1922049999539,1.0,1.0,phase_1,,,,,,,,,,,,,orange,square
123.0,2.0,2.0,0.0,4.0,4.0,370.0572709999505,1.0,1.0,phase_1,,,,,,,,,,,,,orange,square
101.0,2.0,2.0,0.0,2.0,2.0,346.0190739999689,1.0,1.0,phase_1,,,,,,,,,,,,,orange,square
406.0,4.0,4.0,0.0,3.0,3.0,377.0638350001718,1.0,1.0,phase_1,,,,,,,,,,,,,green,cross
0.0,8.0,0.0,1.0,4.0,4.0,482.6724480001303,1.0,1.0,phase_1,,,,,,,,,,,,,white,circle
72.0,5.0,1.0,1.0,1.0,1.0,308.2331609998618,1.0,1.0,phase_1,,,,,,,,,,,,,cyan,I
193.0,3.0,3.0,0.0,3.0,3.0,416.8511610000678,1.0,1.0,phase_1,,,,,,,,,,,,,gray,hexagon
396.0,8.0,4.0,1.0,3.0,3.0,372.59897000012637,1.0,1.0,phase_1,,,,,,,,,,,,,white,circle
121.0,2.0,2.0,0.0,2.0,2.0,453.4054900000228,1.0,1.0,phase_1,,,,,,,,,,,,,orange,square
63.0,1.0,1.0,0.0,3.0,3.0,321.1668469998585,1.0,1.0,phase_1,,,,,,,,,,,,,blue,diamond
209.0,3.0,3.0,0.0,2.0,2.0,305.7883869998932,1.0,1.0,phase_1,,,,,,,,,,,,,gray,hexagon
63.0,5.0,1.0,1.0,1.0,1.0,315.445125999986,1.0,1.0,phase_1,,,,,,,,,,,,,cyan,I
123.0,2.0,2.0,0.0,3.0,3.0,360.9281799999735,1.0,1.0,phase_1,,,,,,,,,,,,,orange,square
0.0,5.0,0.0,1.0,4.0,4.0,389.1704590000699,1.0,1.0,phase_1,,,,,,,,,,,,,cyan,I
389.0,8.0,4.0,1.0,2.0,2.0,314.0791619998708,1.0,1.0,phase_1,,,,,,,,,,,,,white,circle
61.0,1.0,1.0,0.0,3.0,3.0,455.9811840001657,1.0,1.0,phase_1,,,,,,,,,,,,,blue,diamond
189.0,3.0,3.0,0.0,4.0,4.0,364.6252099999856,1.0,1.0,phase_1,,,,,,,,,,,,,gray,hexagon
208.0,7.0,3.0,1.0,2.0,2.0,618.8322400000743,2.0,1.0,phase_1,,,,,,,,,,,,,magenta,flipped triangle
381.0,4.0,4.0,0.0,3.0,3.0,338.9653910001016,2.0,1.0,phase_1,,,,,,,,,,,,,green,cross
0.0,5.0,0.0,1.0,4.0,4.0,350.8391650000249,2.0,1.0,phase_1,,,,,,,,,,,,,cyan,I
113.0,2.0,2.0,0.0,4.0,4.0,394.3821699999716,2.0,1.0,phase_1,,,,,,,,,,,,,orange,square
90.0,2.0,2.0,0.0,1.0,1.0,372.793449000028,2.0,1.0,phase_1,,,,,,,,,,,,,orange,square
67.0,1.0,1.0,0.0,1.0,1.0,359.1888099999778,2.0,1.0,phase_1,,,,,,,,,,,,,blue,diamond
401.0,4.0,4.0,0.0,1.0,1.0,310.5186899999808,2.0,1.0,phase_1,,,,,,,,,,,,,green,cross
192.0,3.0,3.0,0.0,3.0,3.0,359.6572040000865,2.0,1.0,phase_1,,,,,,,,,,,,,gray,hexagon
391.0,4.0,4.0,0.0,4.0,4.0,327.8981320002003,2.0,1.0,phase_1,,,,,,,,,,,,,green,cross
0.0,4.0,0.0,0.0,2.0,2.0,340.9433110000464,2.0,1.0,phase_1,,,,,,,,,,,,,green,cross
64.0,5.0,1.0,1.0,1.0,1.0,351.5278089998901,2.0,1.0,phase_1,,,,,,,,,,,,,cyan,I
44.0,5.0,1.0,1.0,2.0,2.0,340.5732259998331,2.0,1.0,phase_1,,,,,,,,,,,,,cyan,I
189.0,7.0,3.0,1.0,4.0,4.0,326.7303390000506,2.0,1.0,phase_1,,,,,,,,,,,,,magenta,flipped triangle
50.0,1.0,1.0,0.0,1.0,1.0,388.1372920000103,2.0,1.0,phase_1,,,,,,,,,,,,,blue,diamond
0.0,2.0,0.0,0.0,4.0,4.0,388.5855779999474,2.0,1.0,phase_1,,,,,,,,,,,,,orange,square
26.0,5.0,1.0,1.0,1.0,1.0,302.9445910001413,2.0,1.0,phase_1,,,,,,,,,,,,,cyan,I
391.0,8.0,4.0,1.0,2.0,2.0,321.7621520000193,2.0,1.0,phase_1,,,,,,,,,,,,,white,circle
67.0,5.0,1.0,1.0,4.0,4.0,346.4388849999977,2.0,1.0,phase_1,,,,,,,,,,,,,cyan,I
0.0,2.0,0.0,0.0,4.0,4.0,373.6670299999787,2.0,2.0,phase_1,,,,,,,,,,,,,orange,square
112.0,2.0,2.0,0.0,4.0,4.0,405.8138000000326,2.0,1.0,phase_1,,,,,,,,,,,,,orange,square
180.0,7.0,3.0,1.0,3.0,3.0,416.0412230000929,2.0,1.0,phase_1,,,,,,,,,,,,,magenta,flipped triangle
376.0,8.0,4.0,1.0,4.0,4.0,418.6976800001503,2.0,1.0,phase_1,,,,,,,,,,,,,white,circle
26.0,1.0,1.0,0.0,2.0,2.0,386.8822339998132,2.0,1.0,phase_1,,,,,,,,,,,,,blue,diamond
0.0,8.0,0.0,1.0,2.0,2.0,400.5998370000725,2.0,1.0,phase_1,,,,,,,,,,,,,white,circle
0.0,5.0,0.0,1.0,2.0,2.0,340.777080999942,2.0,1.0,phase_1,,,,,,,,,,,,,cyan,I
97.0,2.0,2.0,0.0,1.0,1.0,479.1993960000127,2.0,1.0,phase_1,,,,,,,,,,,,,orange,square
376.0,8.0,4.0,1.0,3.0,3.0,419.9675749998732,2.0,1.0,phase_1,,,,,,,,,,,,,white,circle
423.0,8.0,4.0,1.0,2.0,2.0,355.7848319999266,2.0,1.0,phase_1,,,,,,,,,,,,,white,circle
211.0,3.0,3.0,0.0,1.0,1.0,423.6818409999614,2.0,1.0,phase_1,,,,,,,,,,,,,gray,hexagon
383.0,8.0,4.0,1.0,4.0,4.0,332.6051499998357,2.0,1.0,phase_1,,,,,,,,,,,,,white,circle
401.0,8.0,4.0,1.0,3.0,3.0,408.2655360000444,2.0,1.0,phase_1,,,,,,,,,,,,,white,circle
36.0,5.0,1.0,1.0,4.0,4.0,367.9670750000241,2.0,1.0,phase_1,,,,,,,,,,,,,cyan,I
123.0,6.0,2.0,1.0,3.0,3.0,388.9565560000392,2.0,1.0,phase_1,,,,,,,,,,,,,yellow,triangle
0.0,4.0,0.0,0.0,1.0,1.0,422.8931720001583,2.0,1.0,phase_1,,,,,,,,,,,,,green,cross
388.0,4.0,4.0,0.0,3.0,3.0,357.5355759999183,2.0,1.0,phase_1,,,,,,,,,,,,,green,cross
0.0,5.0,0.0,1.0,1.0,1.0,420.0704160000441,2.0,1.0,phase_1,,,,,,,,,,,,,cyan,I
92.0,6.0,2.0,1.0,2.0,2.0,470.6117670000367,2.0,1.0,phase_1,,,,,,,,,,,,,yellow,triangle
122.0,2.0,2.0,0.0,3.0,3.0,327.7441870000075,2.0,1.0,phase_1,,,,,,,,,,,,,orange,square
0.0,6.0,0.0,1.0,2.0,2.0,282.2065010000187,2.0,1.0,phase_1,,,,,,,,,,,,,yellow,triangle
415.0,8.0,4.0,1.0,4.0,4.0,364.2130529999576,2.0,1.0,phase_1,,,,,,,,,,,,,white,circle
112.0,6.0,2.0,1.0,1.0,1.0,388.4316749999925,2.0,1.0,phase_1,,,,,,,,,,,,,yellow,triangle
0.0,7.0,0.0,1.0,3.0,3.0,441.250299000103,2.0,1.0,phase_1,,,,,,,,,,,,,magenta,flipped triangle
388.0,4.0,4.0,0.0,4.0,4.0,404.6349049999662,2.0,1.0,phase_1,,,,,,,,,,,,,green,cross
0.0,6.0,0.0,1.0,3.0,3.0,413.6988689999725,2.0,1.0,phase_1,,,,,,,,,,,,,yellow,triangle
0.0,7.0,0.0,1.0,2.0,2.0,297.9367549999097,2.0,1.0,phase_1,,,,,,,,,,,,,magenta,flipped triangle
425.0,8.0,4.0,1.0,2.0,2.0,311.0923100000491,2.0,1.0,phase_1,,,,,,,,,,,,,white,circle
195.0,3.0,3.0,0.0,1.0,1.0,456.9962670000222,2.0,1.0,phase_1,,,,,,,,,,,,,gray,hexagon
48.0,1.0,1.0,0.0,1.0,1.0,387.3266639998292,2.0,1.0,phase_1,,,,,,,,,,,,,blue,diamond
122.0,6.0,2.0,1.0,2.0,2.0,318.88243100002,2.0,1.0,phase_1,,,,,,,,,,,,,yellow,triangle
85.0,6.0,2.0,1.0,4.0,4.0,377.5293969999893,2.0,1.0,phase_1,,,,,,,,,,,,,yellow,triangle
194.0,7.0,3.0,1.0,2.0,2.0,505.1936590000423,2.0,1.0,phase_1,,,,,,,,,,,,,magenta,flipped triangle
0.0,3.0,0.0,0.0,2.0,2.0,385.861216999956,2.0,1.0,phase_1,,,,,,,,,,,,,gray,hexagon
376.0,4.0,4.0,0.0,1.0,1.0,373.5508869999648,2.0,1.0,phase_1,,,,,,,,,,,,,green,cross
396.0,4.0,4.0,0.0,4.0,4.0,343.7363420000565,2.0,1.0,phase_1,,,,,,,,,,,,,green,cross
415.0,8.0,4.0,1.0,4.0,4.0,333.008264,2.0,1.0,phase_1,,,,,,,,,,,,,white,circle
71.0,1.0,1.0,0.0,3.0,3.0,428.9942840000549,2.0,1.0,phase_1,,,,,,,,,,,,,blue,diamond
88.0,6.0,2.0,1.0,1.0,1.0,410.1579919999949,2.0,1.0,phase_1,,,,,,,,,,,,,yellow,triangle
60.0,1.0,1.0,0.0,3.0,3.0,379.6748729998853,2.0,1.0,phase_1,,,,,,,,,,,,,blue,diamond
0.0,4.0,0.0,0.0,4.0,4.0,349.58389600001277,2.0,1.0,phase_1,,,,,,,,,,,,,green,cross
0.0,6.0,0.0,1.0,1.0,1.0,377.2691929998473,2.0,1.0,phase_1,,,,,,,,,,,,,yellow,triangle
97.0,6.0,2.0,1.0,2.0,2.0,445.3717000001234,2.0,1.0,phase_1,,,,,,,,,,,,,yellow,triangle
406.0,8.0,4.0,1.0,1.0,1.0,401.6937520000283,2.0,1.0,phase_1,,,,,,,,,,,,,white,circle
0.0,8.0,0.0,1.0,2.0,2.0,350.1044360000378,2.0,1.0,phase_1,,,,,,,,,,,,,white,circle
0.0,8.0,0.0,1.0,4.0,4.0,447.9957009998543,2.0,1.0,phase_1,,,,,,,,,,,,,white,circle
216.0,3.0,3.0,0.0,1.0,1.0,384.108551999816,2.0,1.0,phase_1,,,,,,,,,,,,,gray,hexagon
80.0,6.0,2.0,1.0,4.0,4.0,346.4529860000311,2.0,1.0,phase_1,,,,,,,,,,,,,yellow,triangle
410.0,4.0,4.0,0.0,2.0,2.0,329.0695680000226,2.0,1.0,phase_1,,,,,,,,,,,,,green,cross
224.0,3.0,3.0,0.0,1.0,1.0,401.3163969998459,2.0,1.0,phase_1,,,,,,,,,,,,,gray,hexagon
0.0,5.0,0.0,1.0,3.0,3.0,366.4309630000844,2.0,1.0,phase_1,,,,,,,,,,,,,cyan,I
0.0,6.0,0.0,1.0,3.0,3.0,388.2921649999389,2.0,1.0,phase_1,,,,,,,,,,,,,yellow,triangle
409.0,4.0,4.0,0.0,2.0,2.0,328.6738360000072,2.0,1.0,phase_1,,,,,,,,,,,,,green,cross
0.0,1.0,0.0,0.0,3.0,3.0,351.1840320002193,2.0,1.0,phase_1,,,,,,,,,,,,,blue,diamond
0.0,1.0,0.0,0.0,1.0,1.0,401.251947999981,2.0,1.0,phase_1,,,,,,,,,,,,,blue,diamond
77.0,6.0,2.0,1.0,1.0,1.0,467.0817159999387,2.0,1.0,phase_1,,,,,,,,,,,,,yellow,triangle
57.0,1.0,1.0,0.0,3.0,3.0,334.0002420000019,2.0,1.0,phase_1,,,,,,,,,,,,,blue,diamond
196.0,3.0,3.0,0.0,4.0,4.0,305.2803010000389,2.0,1.0,phase_1,,,,,,,,,,,,,gray,hexagon
75.0,6.0,2.0,1.0,1.0,1.0,246.3971069998933,2.0,1.0,phase_1,,,,,,,,,,,,,yellow,triangle
59.0,5.0,1.0,1.0,3.0,3.0,364.1409449999173,2.0,1.0,phase_1,,,,,,,,,,,,,cyan,I
384.0,4.0,4.0,0.0,2.0,2.0,466.6605310001159,2.0,1.0,phase_1,,,,,,,,,,,,,green,cross
205.0,7.0,3.0,1.0,4.0,4.0,342.4367049999546,2.0,1.0,phase_1,,,,,,,,,,,,,magenta,flipped triangle
100.0,6.0,2.0,1.0,1.0,1.0,317.6481359998888,2.0,1.0,phase_1,,,,,,,,,,,,,yellow,triangle
0.0,1.0,0.0,0.0,4.0,4.0,379.5082379999712,2.0,1.0,phase_1,,,,,,,,,,,,,blue,diamond
97.0,2.0,2.0,0.0,2.0,2.0,531.7419450000216,2.0,1.0,phase_1,,,,,,,,,,,,,orange,square
193.0,7.0,3.0,1.0,4.0,4.0,390.1358180000898,2.0,1.0,phase_1,,,,,,,,,,,,,magenta,flipped triangle
67.0,1.0,1.0,0.0,2.0,2.0,322.617763999915,2.0,1.0,phase_1,,,,,,,,,,,,,blue,diamond
106.0,6.0,2.0,1.0,3.0,3.0,426.3003500000195,2.0,1.0,phase_1,,,,,,,,,,,,,yellow,triangle
108.0,6.0,2.0,1.0,3.0,3.0,362.3054019999472,2.0,1.0,phase_1,,,,,,,,,,,,,yellow,triangle
88.0,6.0,2.0,1.0,3.0,3.0,336.3726329998826,2.0,1.0,phase_1,,,,,,,,,,,,,yellow,triangle
118.0,6.0,2.0,1.0,1.0,1.0,359.6846850000474,2.0,1.0,phase_1,,,,,,,,,,,,,yellow,triangle
48.0,5.0,1.0,1.0,4.0,4.0,327.4531049999041,2.0,1.0,phase_1,,,,,,,,,,,,,cyan,I
44.0,5.0,1.0,1.0,2.0,2.0,317.3472230000698,2.0,1.0,phase_1,,,,,,,,,,,,,cyan,I
116.0,6.0,2.0,1.0,4.0,4.0,333.2216849998985,2.0,1.0,phase_1,,,,,,,,,,,,,yellow,triangle
0.0,2.0,0.0,0.0,2.0,2.0,297.0185839999431,2.0,1.0,phase_1,,,,,,,,,,,,,orange,square
45.0,5.0,1.0,1.0,3.0,3.0,502.90343999995457,2.0,1.0,phase_1,,,,,,,,,,,,,cyan,I
398.0,4.0,4.0,0.0,3.0,3.0,374.4456879999234,2.0,1.0,phase_1,,,,,,,,,,,,,green,cross
0.0,7.0,0.0,1.0,4.0,4.0,378.4309140000914,2.0,1.0,phase_1,,,,,,,,,,,,,magenta,flipped triangle
192.0,7.0,3.0,1.0,3.0,3.0,387.176454999917,2.0,1.0,phase_1,,,,,,,,,,,,,magenta,flipped triangle
225.0,7.0,3.0,1.0,2.0,2.0,386.1808889998883,2.0,1.0,phase_1,,,,,,,,,,,,,magenta,flipped triangle
62.0,1.0,1.0,0.0,1.0,1.0,390.9264499998244,2.0,1.0,phase_1,,,,,,,,,,,,,blue,diamond
55.0,1.0,1.0,0.0,2.0,2.0,319.199473000026,2.0,1.0,phase_1,,,,,,,,,,,,,blue,diamond
0.0,2.0,0.0,0.0,3.0,3.0,463.9868940000724,3.0,1.0,phase_1,,,,,,,,,,,,,orange,square
0.0,7.0,0.0,1.0,3.0,3.0,310.1939050000055,3.0,1.0,phase_1,,,,,,,,,,,,,magenta,flipped triangle
34.0,1.0,1.0,0.0,4.0,4.0,323.7641910000093,3.0,1.0,phase_1,,,,,,,,,,,,,blue,diamond
88.0,2.0,2.0,0.0,3.0,3.0,283.8640759998725,3.0,1.0,phase_1,,,,,,,,,,,,,orange,square
97.0,6.0,2.0,1.0,4.0,4.0,366.3397949999307,3.0,1.0,phase_1,,,,,,,,,,,,,yellow,triangle
193.0,3.0,3.0,0.0,4.0,4.0,305.5840519998583,3.0,1.0,phase_1,,,,,,,,,,,,,gray,hexagon
179.0,3.0,3.0,0.0,1.0,1.0,321.0305970001172,3.0,1.0,phase_1,,,,,,,,,,,,,gray,hexagon
416.0,4.0,4.0,0.0,3.0,3.0,276.3918900000135,3.0,1.0,phase_1,,,,,,,,,,,,,green,cross
82.0,6.0,2.0,1.0,3.0,3.0,312.0667980001599,3.0,1.0,phase_1,,,,,,,,,,,,,yellow,triangle
77.0,2.0,2.0,0.0,4.0,4.0,301.7062900000837,3.0,1.0,phase_1,,,,,,,,,,,,,orange,square
386.0,8.0,4.0,1.0,4.0,4.0,357.3565960000451,3.0,1.0,phase_1,,,,,,,,,,,,,white,circle
179.0,7.0,3.0,1.0,1.0,1.0,307.4041959998794,3.0,1.0,phase_1,,,,,,,,,,,,,magenta,flipped triangle
106.0,6.0,2.0,1.0,3.0,3.0,279.2670090000229,3.0,1.0,phase_1,,,,,,,,,,,,,yellow,triangle
195.0,3.0,3.0,0.0,1.0,1.0,464.621864000037,3.0,1.0,phase_1,,,,,,,,,,,,,gray,hexagon
56.0,5.0,1.0,1.0,3.0,3.0,411.0217669999656,3.0,1.0,phase_1,,,,,,,,,,,,,cyan,I
423.0,4.0,4.0,0.0,4.0,4.0,314.3516579998504,3.0,1.0,phase_1,,,,,,,,,,,,,green,cross
403.0,4.0,4.0,0.0,1.0,1.0,329.4349569998758,3.0,1.0,phase_1,,,,,,,,,,,,,green,cross
188.0,7.0,3.0,1.0,3.0,3.0,319.9769450000076,3.0,1.0,phase_1,,,,,,,,,,,,,magenta,flipped triangle
212.0,7.0,3.0,1.0,2.0,2.0,324.6309490000385,3.0,1.0,phase_1,,,,,,,,,,,,,magenta,flipped triangle
122.0,2.0,2.0,0.0,2.0,2.0,322.2830429999703,3.0,1.0,phase_1,,,,,,,,,,,,,orange,square
204.0,3.0,3.0,0.0,3.0,3.0,346.1143980000543,3.0,1.0,phase_1,,,,,,,,,,,,,gray,hexagon
111.0,2.0,2.0,0.0,4.0,4.0,341.4356830000997,3.0,1.0,phase_1,,,,,,,,,,,,,orange,square
209.0,7.0,3.0,1.0,3.0,3.0,304.8873320001348,3.0,1.0,phase_1,,,,,,,,,,,,,magenta,flipped triangle
419.0,8.0,4.0,1.0,3.0,3.0,356.8413139998938,3.0,1.0,phase_1,,,,,,,,,,,,,white,circle
408.0,4.0,4.0,0.0,4.0,4.0,327.0835099999658,3.0,1.0,phase_1,,,,,,,,,,,,,green,cross
51.0,5.0,1.0,1.0,3.0,3.0,311.7001530001744,3.0,1.0,phase_1,,,,,,,,,,,,,cyan,I
377.0,8.0,4.0,1.0,1.0,1.0,383.0806510000002,3.0,1.0,phase_1,,,,,,,,,,,,,white,circle
392.0,4.0,4.0,0.0,2.0,2.0,402.509911999914,3.0,1.0,phase_1,,,,,,,,,,,,,green,cross
216.0,7.0,3.0,1.0,3.0,3.0,294.4848509996518,3.0,1.0,phase_1,,,,,,,,,,,,,magenta,flipped triangle
408.0,8.0,4.0,1.0,1.0,1.0,323.0794010000863,3.0,1.0,phase_1,,,,,,,,,,,,,white,circle
0.0,6.0,0.0,1.0,3.0,3.0,338.5214260001703,3.0,1.0,phase_1,,,,,,,,,,,,,yellow,triangle
71.0,5.0,1.0,1.0,4.0,4.0,316.8516390001059,3.0,1.0,phase_1,,,,,,,,,,,,,cyan,I
81.0,6.0,2.0,1.0,2.0,2.0,318.702853999639,3.0,1.0,phase_1,,,,,,,,,,,,,yellow,triangle
84.0,2.0,2.0,0.0,3.0,3.0,310.1357059999827,3.0,1.0,phase_1,,,,,,,,,,,,,orange,square
100.0,2.0,2.0,0.0,2.0,2.0,319.3491119995997,3.0,1.0,phase_1,,,,,,,,,,,,,orange,square
0.0,1.0,0.0,0.0,2.0,2.0,342.3859670001548,3.0,1.0,phase_1,,,,,,,,,,,,,blue,diamond
75.0,1.0,1.0,0.0,4.0,4.0,289.0728459997262,3.0,1.0,phase_1,,,,,,,,,,,,,blue,diamond
63.0,5.0,1.0,1.0,4.0,4.0,402.8999410002143,3.0,1.0,phase_1,,,,,,,,,,,,,cyan,I
0.0,1.0,0.0,0.0,4.0,4.0,521.9495599999391,3.0,1.0,phase_1,,,,,,,,,,,,,blue,diamond
223.0,7.0,3.0,1.0,2.0,2.0,359.5298139998704,3.0,1.0,phase_1,,,,,,,,,,,,,magenta,flipped triangle
84.0,6.0,2.0,1.0,2.0,2.0,307.9989990001195,3.0,1.0,phase_1,,,,,,,,,,,,,yellow,triangle
0.0,4.0,0.0,0.0,3.0,3.0,301.6437960000075,3.0,1.0,phase_1,,,,,,,,,,,,,green,cross
56.0,5.0,1.0,1.0,4.0,4.0,341.249548000178,3.0,1.0,phase_1,,,,,,,,,,,,,cyan,I
90.0,6.0,2.0,1.0,1.0,1.0,405.4481360003592,3.0,1.0,phase_1,,,,,,,,,,,,,yellow,triangle
28.0,1.0,1.0,0.0,4.0,4.0,346.4774110002508,3.0,1.0,phase_1,,,,,,,,,,,,,blue,diamond
198.0,3.0,3.0,0.0,2.0,2.0,315.7579899998382,3.0,1.0,phase_1,,,,,,,,,,,,,gray,hexagon
195.0,7.0,3.0,1.0,1.0,1.0,367.6971150002828,3.0,1.0,phase_1,,,,,,,,,,,,,magenta,flipped triangle
384.0,8.0,4.0,1.0,1.0,1.0,350.7301300001018,3.0,1.0,phase_1,,,,,,,,,,,,,white,circle
0.0,2.0,0.0,0.0,2.0,2.0,323.6504669998794,3.0,1.0,phase_1,,,,,,,,,,,,,orange,square
90.0,2.0,2.0,0.0,2.0,2.0,308.7130250000882,3.0,1.0,phase_1,,,,,,,,,,,,,orange,square
63.0,1.0,1.0,0.0,3.0,3.0,383.8037049999911,3.0,1.0,phase_1,,,,,,,,,,,,,blue,diamond
36.0,1.0,1.0,0.0,2.0,2.0,323.8935429999401,3.0,1.0,phase_1,,,,,,,,,,,,,blue,diamond
0.0,3.0,0.0,0.0,2.0,2.0,313.1990090000727,3.0,1.0,phase_1,,,,,,,,,,,,,gray,hexagon
405.0,4.0,4.0,0.0,1.0,1.0,434.6645619998526,3.0,1.0,phase_1,,,,,,,,,,,,,green,cross
178.0,3.0,3.0,0.0,3.0,3.0,316.6947799995796,3.0,1.0,phase_1,,,,,,,,,,,,,gray,hexagon
82.0,2.0,2.0,0.0,1.0,1.0,391.2927760002276,3.0,1.0,phase_1,,,,,,,,,,,,,orange,square
0.0,8.0,0.0,1.0,4.0,4.0,395.2455919998101,3.0,1.0,phase_1,,,,,,,,,,,,,white,circle
177.0,7.0,3.0,1.0,4.0,4.0,317.6384329999564,3.0,1.0,phase_1,,,,,,,,,,,,,magenta,flipped triangle
0.0,4.0,0.0,0.0,3.0,3.0,344.1097680001803,3.0,1.0,phase_1,,,,,,,,,,,,,green,cross
191.0,3.0,3.0,0.0,4.0,4.0,321.0963010001251,3.0,1.0,phase_1,,,,,,,,,,,,,gray,hexagon
32.0,1.0,1.0,0.0,1.0,1.0,322.333854000135,3.0,1.0,phase_1,,,,,,,,,,,,,blue,diamond
99.0,2.0,2.0,0.0,3.0,3.0,391.4958670002306,3.0,1.0,phase_1,,,,,,,,,,,,,orange,square
0.0,3.0,0.0,0.0,2.0,2.0,311.3389280001684,3.0,1.0,phase_1,,,,,,,,,,,,,gray,hexagon
108.0,2.0,2.0,0.0,2.0,2.0,352.3988070000996,3.0,1.0,phase_1,,,,,,,,,,,,,orange,square
419.0,4.0,4.0,0.0,4.0,4.0,375.2710609996939,3.0,1.0,phase_1,,,,,,,,,,,,,green,cross
97.0,2.0,2.0,0.0,1.0,1.0,295.2832260002651,3.0,1.0,phase_1,,,,,,,,,,,,,orange,square
414.0,8.0,4.0,1.0,3.0,3.0,319.7462570001335,3.0,1.0,phase_1,,,,,,,,,,,,,white,circle
106.0,6.0,2.0,1.0,2.0,2.0,295.1179599999705,3.0,1.0,phase_1,,,,,,,,,,,,,yellow,triangle
215.0,7.0,3.0,1.0,1.0,1.0,314.862623999943,3.0,1.0,phase_1,,,,,,,,,,,,,magenta,flipped triangle
0.0,7.0,0.0,1.0,2.0,2.0,319.8248619996775,3.0,1.0,phase_1,,,,,,,,,,,,,magenta,flipped triangle
215.0,7.0,3.0,1.0,1.0,1.0,318.463244999748,3.0,1.0,phase_1,,,,,,,,,,,,,magenta,flipped triangle
204.0,7.0,3.0,1.0,1.0,1.0,329.308107000088,3.0,1.0,phase_1,,,,,,,,,,,,,magenta,flipped triangle
392.0,8.0,4.0,1.0,3.0,3.0,343.114388000231,3.0,1.0,phase_1,,,,,,,,,,,,,white,circle
409.0,8.0,4.0,1.0,4.0,4.0,373.8203739999335,3.0,1.0,phase_1,,,,,,,,,,,,,white,circle
211.0,7.0,3.0,1.0,1.0,1.0,333.5958990001018,3.0,1.0,phase_1,,,,,,,,,,,,,magenta,flipped triangle
193.0,7.0,3.0,1.0,4.0,4.0,339.1526600003089,3.0,1.0,phase_1,,,,,,,,,,,,,magenta,flipped triangle
0.0,7.0,0.0,1.0,1.0,1.0,283.7822279998363,3.0,1.0,phase_1,,,,,,,,,,,,,magenta,flipped triangle
0.0,8.0,0.0,1.0,1.0,1.0,331.8486269999994,3.0,1.0,phase_1,,,,,,,,,,,,,white,circle
0.0,5.0,0.0,1.0,3.0,3.0,380.8385869997437,3.0,1.0,phase_1,,,,,,,,,,,,,cyan,I
0.0,6.0,0.0,1.0,2.0,2.0,282.1502329998111,3.0,1.0,phase_1,,,,,,,,,,,,,yellow,triangle
191.0,7.0,3.0,1.0,3.0,3.0,308.4134969999468,3.0,1.0,phase_1,,,,,,,,,,,,,magenta,flipped triangle
32.0,5.0,1.0,1.0,2.0,2.0,290.3130280001278,3.0,1.0,phase_1,,,,,,,,,,,,,cyan,I
220.0,7.0,3.0,1.0,3.0,3.0,308.8085480003428,3.0,1.0,phase_1,,,,,,,,,,,,,magenta,flipped triangle
67.0,1.0,1.0,0.0,2.0,2.0,314.136684999994,3.0,1.0,phase_1,,,,,,,,,,,,,blue,diamond
34.0,5.0,1.0,1.0,2.0,2.0,285.0086240000564,3.0,1.0,phase_1,,,,,,,,,,,,,cyan,I
416.0,8.0,4.0,1.0,2.0,2.0,295.7386270004463,3.0,1.0,phase_1,,,,,,,,,,,,,white,circle
425.0,8.0,4.0,1.0,4.0,4.0,302.7423379999163,3.0,1.0,phase_1,,,,,,,,,,,,,white,circle
92.0,2.0,2.0,0.0,4.0,4.0,323.719661999803,3.0,1.0,phase_1,,,,,,,,,,,,,orange,square
71.0,5.0,1.0,1.0,4.0,4.0,310.4783769999812,3.0,1.0,phase_1,,,,,,,,,,,,,cyan,I
205.0,3.0,3.0,0.0,4.0,4.0,326.6039860000091,3.0,1.0,phase_1,,,,,,,,,,,,,gray,hexagon
0.0,2.0,0.0,0.0,4.0,4.0,314.5011169999634,3.0,1.0,phase_1,,,,,,,,,,,,,orange,square
99.0,6.0,2.0,1.0,4.0,4.0,290.6779659997482,3.0,1.0,phase_1,,,,,,,,,,,,,yellow,triangle
59.0,5.0,1.0,1.0,1.0,1.0,371.762432000196,3.0,1.0,phase_1,,,,,,,,,,,,,cyan,I
106.0,2.0,2.0,0.0,1.0,1.0,323.2202889998916,3.0,2.0,phase_1,,,,,,,,,,,,,orange,square
0.0,4.0,0.0,0.0,4.0,4.0,354.2274659998838,3.0,1.0,phase_1,,,,,,,,,,,,,green,cross
388.0,8.0,4.0,1.0,1.0,1.0,363.2548109999334,3.0,1.0,phase_1,,,,,,,,,,,,,white,circle
196.0,7.0,3.0,1.0,3.0,3.0,336.7954999998801,3.0,1.0,phase_1,,,,,,,,,,,,,magenta,flipped triangle
423.0,8.0,4.0,1.0,1.0,1.0,363.0756010002187,3.0,1.0,phase_1,,,,,,,,,,,,,white,circle
383.0,4.0,4.0,0.0,2.0,2.0,329.1290429997389,3.0,1.0,phase_1,,,,,,,,,,,,,green,cross
191.0,3.0,3.0,0.0,2.0,2.0,353.8487820001137,3.0,1.0,phase_1,,,,,,,,,,,,,gray,hexagon
204.0,3.0,3.0,0.0,4.0,4.0,356.7201099999693,4.0,1.0,phase_1,,,,,,,,,,,,,gray,hexagon
44.0,1.0,1.0,0.0,4.0,4.0,300.0915069997063,4.0,1.0,phase_1,,,,,,,,,,,,,blue,diamond
212.0,3.0,3.0,0.0,1.0,1.0,379.4494320000012,4.0,1.0,phase_1,,,,,,,,,,,,,gray,hexagon
183.0,3.0,3.0,0.0,4.0,4.0,304.5949409997774,4.0,1.0,phase_1,,,,,,,,,,,,,gray,hexagon
90.0,6.0,2.0,1.0,4.0,4.0,304.7816839998631,4.0,1.0,phase_1,,,,,,,,,,,,,yellow,triangle
111.0,6.0,2.0,1.0,2.0,2.0,300.5062409997663,4.0,1.0,phase_1,,,,,,,,,,,,,yellow,triangle
389.0,4.0,4.0,0.0,3.0,3.0,380.0291350003135,4.0,1.0,phase_1,,,,,,,,,,,,,green,cross
423.0,4.0,4.0,0.0,3.0,3.0,393.5873069999616,4.0,1.0,phase_1,,,,,,,,,,,,,green,cross
38.0,5.0,1.0,1.0,1.0,1.0,363.2926949999273,4.0,1.0,phase_1,,,,,,,,,,,,,cyan,I
215.0,3.0,3.0,0.0,3.0,3.0,364.4311509997351,4.0,1.0,phase_1,,,,,,,,,,,,,gray,hexagon
0.0,7.0,0.0,1.0,2.0,2.0,331.8938870002057,4.0,1.0,phase_1,,,,,,,,,,,,,magenta,flipped triangle
0.0,3.0,0.0,0.0,2.0,2.0,358.0272519998289,4.0,1.0,phase_1,,,,,,,,,,,,,gray,hexagon
88.0,2.0,2.0,0.0,4.0,4.0,328.5094429998025,4.0,1.0,phase_1,,,,,,,,,,,,,orange,square
0.0,4.0,0.0,0.0,4.0,4.0,417.0696999999563,4.0,1.0,phase_1,,,,,,,,,,,,,green,cross
31.0,1.0,1.0,0.0,3.0,3.0,289.2110960001446,4.0,1.0,phase_1,,,,,,,,,,,,,blue,diamond
0.0,6.0,0.0,1.0,1.0,1.0,425.6986089999373,4.0,1.0,phase_1,,,,,,,,,,,,,yellow,triangle
386.0,4.0,4.0,0.0,4.0,4.0,335.1084109999647,4.0,1.0,phase_1,,,,,,,,,,,,,green,cross
81.0,2.0,2.0,0.0,3.0,3.0,333.5768510000889,4.0,1.0,phase_1,,,,,,,,,,,,,orange,square
395.0,4.0,4.0,0.0,3.0,3.0,316.1412230001588,4.0,1.0,phase_1,,,,,,,,,,,,,green,cross
206.0,7.0,3.0,1.0,3.0,3.0,332.4706059997879,4.0,1.0,phase_1,,,,,,,,,,,,,magenta,flipped triangle
111.0,2.0,2.0,0.0,1.0,1.0,447.87797100025267,4.0,1.0,phase_1,,,,,,,,,,,,,orange,square
67.0,5.0,1.0,1.0,2.0,2.0,401.50746099971,4.0,1.0,phase_1,,,,,,,,,,,,,cyan,I
0.0,6.0,0.0,1.0,4.0,4.0,411.96124399994,4.0,1.0,phase_1,,,,,,,,,,,,,yellow,triangle
0.0,5.0,0.0,1.0,1.0,1.0,373.0320159997973,4.0,1.0,phase_1,,,,,,,,,,,,,cyan,I
194.0,3.0,3.0,0.0,3.0,3.0,334.1597329999786,4.0,1.0,phase_1,,,,,,,,,,,,,gray,hexagon
75.0,5.0,1.0,1.0,4.0,4.0,432.7427650000572,4.0,1.0,phase_1,,,,,,,,,,,,,cyan,I
0.0,6.0,0.0,1.0,3.0,3.0,354.2339050000009,4.0,1.0,phase_1,,,,,,,,,,,,,yellow,triangle
198.0,7.0,3.0,1.0,2.0,2.0,319.4182610000098,4.0,1.0,phase_1,,,,,,,,,,,,,magenta,flipped triangle
0.0,5.0,0.0,1.0,1.0,1.0,394.2138020001948,4.0,1.0,phase_1,,,,,,,,,,,,,cyan,I
181.0,7.0,3.0,1.0,2.0,2.0,447.1925559996634,4.0,1.0,phase_1,,,,,,,,,,,,,magenta,flipped triangle
0.0,3.0,0.0,0.0,3.0,3.0,334.6715239999867,4.0,1.0,phase_1,,,,,,,,,,,,,gray,hexagon
48.0,1.0,1.0,0.0,1.0,1.0,340.2848460000314,4.0,1.0,phase_1,,,,,,,,,,,,,blue,diamond
42.0,1.0,1.0,0.0,4.0,4.0,328.4218100002363,4.0,1.0,phase_1,,,,,,,,,,,,,blue,diamond
90.0,2.0,2.0,0.0,4.0,4.0,387.755611999637,4.0,1.0,phase_1,,,,,,,,,,,,,orange,square
32.0,1.0,1.0,0.0,3.0,3.0,371.4840310003637,4.0,1.0,phase_1,,,,,,,,,,,,,blue,diamond
33.0,5.0,1.0,1.0,1.0,1.0,392.9229589998613,4.0,1.0,phase_1,,,,,,,,,,,,,cyan,I
188.0,3.0,3.0,0.0,2.0,2.0,359.3516250002722,4.0,1.0,phase_1,,,,,,,,,,,,,gray,hexagon
44.0,1.0,1.0,0.0,1.0,1.0,323.5994810002012,4.0,1.0,phase_1,,,,,,,,,,,,,blue,diamond
122.0,6.0,2.0,1.0,2.0,2.0,337.2827890002554,4.0,1.0,phase_1,,,,,,,,,,,,,yellow,triangle
55.0,5.0,1.0,1.0,4.0,4.0,318.790818999787,4.0,1.0,phase_1,,,,,,,,,,,,,cyan,I
208.0,3.0,3.0,0.0,4.0,4.0,381.0118020001027,4.0,1.0,phase_1,,,,,,,,,,,,,gray,hexagon
60.0,5.0,1.0,1.0,2.0,2.0,315.9103289999621,4.0,1.0,phase_1,,,,,,,,,,,,,cyan,I
403.0,8.0,4.0,1.0,1.0,1.0,295.8794900000612,4.0,1.0,phase_1,,,,,,,,,,,,,white,circle
116.0,2.0,2.0,0.0,4.0,4.0,310.8444990002681,4.0,1.0,phase_1,,,,,,,,,,,,,orange,square
189.0,7.0,3.0,1.0,4.0,4.0,299.2601860000832,4.0,1.0,phase_1,,,,,,,,,,,,,magenta,flipped triangle
396.0,8.0,4.0,1.0,3.0,3.0,309.4520509998801,4.0,1.0,phase_1,,,,,,,,,,,,,white,circle
398.0,4.0,4.0,0.0,2.0,2.0,287.5410579999879,4.0,1.0,phase_1,,,,,,,,,,,,,green,cross
179.0,3.0,3.0,0.0,1.0,1.0,729.8718900001404,4.0,1.0,phase_1,,,,,,,,,,,,,gray,hexagon
72.0,1.0,1.0,0.0,2.0,2.0,320.7002189997183,4.0,1.0,phase_1,,,,,,,,,,,,,blue,diamond
42.0,5.0,1.0,1.0,3.0,3.0,291.9287189997703,4.0,1.0,phase_1,,,,,,,,,,,,,cyan,I
222.0,3.0,3.0,0.0,3.0,3.0,362.8958750000493,4.0,1.0,phase_1,,,,,,,,,,,,,gray,hexagon
108.0,6.0,2.0,1.0,4.0,4.0,276.7234729999472,4.0,1.0,phase_1,,,,,,,,,,,,,yellow,triangle
34.0,5.0,1.0,1.0,2.0,2.0,287.3479049999332,4.0,1.0,phase_1,,,,,,,,,,,,,cyan,I
0.0,8.0,0.0,1.0,1.0,1.0,335.4333460001726,4.0,1.0,phase_1,,,,,,,,,,,,,white,circle
195.0,7.0,3.0,1.0,2.0,2.0,297.2962630001348,4.0,1.0,phase_1,,,,,,,,,,,,,magenta,flipped triangle
0.0,3.0,0.0,0.0,3.0,3.0,307.9121310001937,4.0,1.0,phase_1,,,,,,,,,,,,,gray,hexagon
377.0,4.0,4.0,0.0,2.0,2.0,267.9071749998911,4.0,1.0,phase_1,,,,,,,,,,,,,green,cross
415.0,4.0,4.0,0.0,4.0,4.0,328.25587099978287,4.0,1.0,phase_1,,,,,,,,,,,,,green,cross
393.0,8.0,4.0,1.0,4.0,4.0,405.6430059999911,4.0,1.0,phase_1,,,,,,,,,,,,,white,circle
118.0,2.0,2.0,0.0,1.0,1.0,376.0527360000196,4.0,1.0,phase_1,,,,,,,,,,,,,orange,square
90.0,2.0,2.0,0.0,3.0,3.0,306.5196899997318,4.0,1.0,phase_1,,,,,,,,,,,,,orange,square
0.0,6.0,0.0,1.0,4.0,4.0,304.9933960000999,4.0,1.0,phase_1,,,,,,,,,,,,,yellow,triangle
43.0,1.0,1.0,0.0,4.0,4.0,321.1622650001118,4.0,1.0,phase_1,,,,,,,,,,,,,blue,diamond
189.0,3.0,3.0,0.0,2.0,2.0,349.894322000182,4.0,1.0,phase_1,,,,,,,,,,,,,gray,hexagon
395.0,8.0,4.0,1.0,2.0,2.0,335.2162619999035,4.0,1.0,phase_1,,,,,,,,,,,,,white,circle
396.0,4.0,4.0,0.0,1.0,1.0,360.4316089999884,4.0,1.0,phase_1,,,,,,,,,,,,,green,cross
28.0,5.0,1.0,1.0,1.0,1.0,357.7038829998855,4.0,1.0,phase_1,,,,,,,,,,,,,cyan,I
224.0,7.0,3.0,1.0,2.0,2.0,337.6612900001419,4.0,1.0,phase_1,,,,,,,,,,,,,magenta,flipped triangle
414.0,4.0,4.0,0.0,4.0,4.0,405.4075639996881,4.0,1.0,phase_1,,,,,,,,,,,,,green,cross
398.0,8.0,4.0,1.0,1.0,1.0,367.6508549997379,4.0,1.0,phase_1,,,,,,,,,,,,,white,circle
33.0,1.0,1.0,0.0,4.0,4.0,378.6973669998588,4.0,1.0,phase_1,,,,,,,,,,,,,blue,diamond
50.0,5.0,1.0,1.0,2.0,2.0,318.6399109999911,4.0,1.0,phase_1,,,,,,,,,,,,,cyan,I
0.0,7.0,0.0,1.0,2.0,2.0,327.099176000047,4.0,1.0,phase_1,,,,,,,,,,,,,magenta,flipped triangle
384.0,8.0,4.0,1.0,3.0,3.0,294.1847430001871,4.0,1.0,phase_1,,,,,,,,,,,,,white,circle
425.0,4.0,4.0,0.0,2.0,2.0,288.7430720002157,4.0,1.0,phase_1,,,,,,,,,,,,,green,cross
67.0,5.0,1.0,1.0,2.0,2.0,317.5325830002293,4.0,1.0,phase_1,,,,,,,,,,,,,cyan,I
206.0,3.0,3.0,0.0,3.0,3.0,295.0589059996673,4.0,1.0,phase_1,,,,,,,,,,,,,gray,hexagon
26.0,5.0,1.0,1.0,2.0,2.0,253.3188400002473,4.0,1.0,phase_1,,,,,,,,,,,,,cyan,I
97.0,6.0,2.0,1.0,4.0,4.0,299.5846180001535,4.0,1.0,phase_1,,,,,,,,,,,,,yellow,triangle
0.0,4.0,0.0,0.0,3.0,3.0,338.5195329997259,4.0,1.0,phase_1,,,,,,,,,,,,,green,cross
206.0,3.0,3.0,0.0,3.0,3.0,380.071119999684,4.0,1.0,phase_1,,,,,,,,,,,,,gray,hexagon
0.0,5.0,0.0,1.0,2.0,2.0,298.0623219996232,4.0,1.0,phase_1,,,,,,,,,,,,,cyan,I
31.0,5.0,1.0,1.0,3.0,3.0,320.4076839997469,4.0,1.0,phase_1,,,,,,,,,,,,,cyan,I
183.0,7.0,3.0,1.0,3.0,3.0,350.3758320002816,4.0,1.0,phase_1,,,,,,,,,,,,,magenta,flipped triangle
90.0,6.0,2.0,1.0,4.0,4.0,321.9099980001374,4.0,1.0,phase_1,,,,,,,,,,,,,yellow,triangle
191.0,7.0,3.0,1.0,4.0,4.0,326.6374590002669,4.0,1.0,phase_1,,,,,,,,,,,,,magenta,flipped triangle
0.0,4.0,0.0,0.0,3.0,3.0,321.0906049998812,4.0,1.0,phase_1,,,,,,,,,,,,,green,cross
419.0,8.0,4.0,1.0,3.0,3.0,299.1838540001481,4.0,1.0,phase_1,,,,,,,,,,,,,white,circle
0.0,8.0,0.0,1.0,4.0,4.0,430.3883229999883,4.0,1.0,phase_1,,,,,,,,,,,,,white,circle
102.0,2.0,2.0,0.0,1.0,1.0,325.1680469998064,4.0,1.0,phase_1,,,,,,,,,,,,,orange,square
32.0,5.0,1.0,1.0,4.0,4.0,317.6928620000581,4.0,1.0,phase_1,,,,,,,,,,,,,cyan,I
94.0,6.0,2.0,1.0,1.0,1.0,331.5731960001358,4.0,1.0,phase_1,,,,,,,,,,,,,yellow,triangle
178.0,7.0,3.0,1.0,1.0,1.0,391.0380450001867,4.0,1.0,phase_1,,,,,,,,,,,,,magenta,flipped triangle
38.0,1.0,1.0,0.0,3.0,3.0,350.1814569999624,4.0,1.0,phase_1,,,,,,,,,,,,,blue,diamond
0.0,1.0,0.0,0.0,2.0,2.0,337.5206300001991,4.0,1.0,phase_1,,,,,,,,,,,,,blue,diamond
0.0,3.0,0.0,0.0,4.0,4.0,322.8909140002542,4.0,1.0,phase_1,,,,,,,,,,,,,gray,hexagon
0.0,2.0,0.0,0.0,1.0,1.0,290.5150080000567,4.0,1.0,phase_1,,,,,,,,,,,,,orange,square
101.0,6.0,2.0,1.0,2.0,2.0,293.68905299998,4.0,1.0,phase_1,,,,,,,,,,,,,yellow,triangle
38.0,1.0,1.0,0.0,1.0,1.0,267.708452000079,4.0,1.0,phase_1,,,,,,,,,,,,,blue,diamond
194.0,3.0,3.0,0.0,3.0,3.0,321.7085669998596,4.0,1.0,phase_1,,,,,,,,,,,,,gray,hexagon
0.0,7.0,3.0,1.0,6.0,0.0,0.0,1.0,1.0,phase_2,stop,250.0,250.0,4.0,,,,,,,,,magenta,flipped triangle
0.0,4.0,4.0,0.0,6.0,6.0,594.6337840000524,1.0,1.0,phase_2,go,250.0,300.0,1.0,,,,,,,,,green,cross
0.0,4.0,4.0,0.0,5.0,5.0,662.1734360001028,1.0,1.0,phase_2,go,250.0,300.0,1.0,,,,,,,,,green,cross
0.0,3.0,3.0,0.0,5.0,5.0,679.8475390000931,1.0,1.0,phase_2,go,250.0,300.0,1.0,,,,,,,,,gray,hexagon
0.0,4.0,4.0,0.0,5.0,5.0,640.0064219997148,1.0,1.0,phase_2,go,250.0,300.0,1.0,,,,,,,,,green,cross
0.0,2.0,2.0,0.0,6.0,6.0,686.3574520002658,1.0,1.0,phase_2,go,250.0,300.0,1.0,,,,,,,,,orange,square
0.0,5.0,1.0,1.0,5.0,0.0,0.0,1.0,1.0,phase_2,stop,250.0,300.0,4.0,,,,,,,,,cyan,I
0.0,2.0,2.0,0.0,5.0,5.0,392.4856700000418,1.0,1.0,phase_2,go,300.0,300.0,1.0,,,,,,,,,orange,square
0.0,2.0,2.0,0.0,6.0,6.0,514.6916519997831,1.0,1.0,phase_2,go,300.0,300.0,1.0,,,,,,,,,orange,square
0.0,6.0,2.0,1.0,6.0,0.0,0.0,1.0,1.0,phase_2,stop,300.0,300.0,4.0,,,,,,,,,yellow,triangle
0.0,1.0,1.0,0.0,6.0,6.0,619.397224000295,1.0,1.0,phase_2,go,300.0,350.0,1.0,,,,,,,,,blue,diamond
0.0,8.0,4.0,1.0,6.0,0.0,0.0,1.0,1.0,phase_2,stop,300.0,350.0,4.0,,,,,,,,,white,circle
0.0,5.0,1.0,1.0,6.0,0.0,0.0,1.0,1.0,phase_2,stop,300.0,400.0,4.0,,,,,,,,,cyan,I
0.0,1.0,1.0,0.0,5.0,5.0,616.6931870002372,1.0,1.0,phase_2,go,300.0,450.0,1.0,,,,,,,,,blue,diamond
0.0,1.0,1.0,0.0,5.0,5.0,764.5620050002435,1.0,1.0,phase_2,go,300.0,450.0,1.0,,,,,,,,,blue,diamond
0.0,7.0,3.0,1.0,6.0,0.0,0.0,1.0,1.0,phase_2,stop,300.0,450.0,4.0,,,,,,,,,magenta,flipped triangle
0.0,1.0,1.0,0.0,5.0,5.0,719.868127999689,1.0,1.0,phase_2,go,300.0,500.0,1.0,,,,,,,,,blue,diamond
0.0,2.0,2.0,0.0,5.0,5.0,895.005774999845,1.0,1.0,phase_2,go,300.0,500.0,1.0,,,,,,,,,orange,square
0.0,7.0,3.0,1.0,5.0,0.0,0.0,1.0,1.0,phase_2,stop,300.0,500.0,4.0,,,,,,,,,magenta,flipped triangle
0.0,1.0,1.0,0.0,6.0,6.0,517.5597040001776,1.0,1.0,phase_2,go,350.0,500.0,1.0,,,,,,,,,blue,diamond
0.0,7.0,3.0,1.0,6.0,0.0,0.0,1.0,1.0,phase_2,stop,350.0,500.0,4.0,,,,,,,,,magenta,flipped triangle
0.0,4.0,4.0,0.0,6.0,6.0,830.35269300035,1.0,1.0,phase_2,go,350.0,550.0,1.0,,,,,,,,,green,cross
0.0,8.0,4.0,1.0,5.0,0.0,0.0,1.0,1.0,phase_2,stop,350.0,550.0,4.0,,,,,,,,,white,circle
0.0,7.0,3.0,1.0,6.0,0.0,0.0,1.0,1.0,phase_2,stop,400.0,550.0,4.0,,,,,,,,,magenta,flipped triangle
0.0,4.0,4.0,0.0,5.0,5.0,790.8346849999361,1.0,1.0,phase_2,go,400.0,600.0,1.0,,,,,,,,,green,cross
0.0,2.0,2.0,0.0,6.0,6.0,794.0908619998481,1.0,1.0,phase_2,go,400.0,600.0,1.0,,,,,,,,,orange,square
0.0,1.0,1.0,0.0,5.0,5.0,863.868666000144,1.0,1.0,phase_2,go,400.0,600.0,1.0,,,,,,,,,blue,diamond
0.0,7.0,3.0,1.0,6.0,0.0,0.0,1.0,1.0,phase_2,stop,400.0,600.0,4.0,,,,,,,,,magenta,flipped triangle
0.0,8.0,4.0,1.0,5.0,0.0,0.0,1.0,1.0,phase_2,stop,400.0,650.0,4.0,,,,,,,,,white,circle
0.0,1.0,1.0,0.0,5.0,5.0,735.6742609999856,1.0,1.0,phase_2,go,450.0,650.0,1.0,,,,,,,,,blue,diamond
0.0,3.0,3.0,0.0,6.0,6.0,857.7868869997474,1.0,1.0,phase_2,go,450.0,650.0,1.0,,,,,,,,,gray,hexagon
0.0,6.0,2.0,1.0,6.0,0.0,0.0,1.0,1.0,phase_2,stop,450.0,650.0,4.0,,,,,,,,,yellow,triangle
0.0,3.0,3.0,0.0,6.0,6.0,822.1871000000647,1.0,1.0,phase_2,go,450.0,700.0,1.0,,,,,,,,,gray,hexagon
0.0,2.0,2.0,0.0,6.0,6.0,895.9716029999072,1.0,1.0,phase_2,go,450.0,700.0,1.0,,,,,,,,,orange,square
0.0,8.0,4.0,1.0,6.0,0.0,0.0,1.0,1.0,phase_2,stop,450.0,700.0,4.0,,,,,,,,,white,circle
0.0,8.0,4.0,1.0,5.0,5.0,835.0453110001581,1.0,1.0,phase_2,go,450.0,750.0,1.0,,,,,,,,,white,circle
0.0,5.0,1.0,1.0,6.0,6.0,1233.5354209999423,2.0,1.0,phase_2,go,450.0,750.0,1.0,,,,,,,,,cyan,I
0.0,3.0,3.0,0.0,6.0,6.0,426.5390420000585,2.0,1.0,phase_2,go,450.0,750.0,1.0,,,,,,,,,gray,hexagon
0.0,4.0,4.0,0.0,5.0,5.0,608.47110099985,2.0,1.0,phase_2,go,450.0,750.0,1.0,,,,,,,,,green,cross
0.0,5.0,1.0,1.0,5.0,0.0,0.0,2.0,1.0,phase_2,stop,450.0,750.0,4.0,,,,,,,,,cyan,I
0.0,8.0,4.0,1.0,5.0,5.0,663.9039579999917,2.0,1.0,phase_2,stop,500.0,750.0,3.0,,,,,,,,,white,circle
0.0,2.0,2.0,0.0,5.0,5.0,791.1566709999533,2.0,1.0,phase_2,go,450.0,750.0,1.0,,,,,,,,,orange,square
0.0,4.0,4.0,0.0,6.0,6.0,975.0385269999242,2.0,1.0,phase_2,go,450.0,750.0,1.0,,,,,,,,,green,cross
0.0,3.0,3.0,0.0,6.0,6.0,1127.1291950001796,2.0,1.0,phase_2,go,450.0,750.0,1.0,,,,,,,,,gray,hexagon
0.0,5.0,1.0,1.0,5.0,5.0,979.5713490002528,2.0,1.0,phase_2,go,450.0,750.0,1.0,,,,,,,,,cyan,I
0.0,4.0,4.0,0.0,5.0,5.0,820.4680769999868,2.0,1.0,phase_2,go,450.0,750.0,1.0,,,,,,,,,green,cross
0.0,3.0,3.0,0.0,6.0,6.0,771.9419840000228,2.0,1.0,phase_2,go,450.0,750.0,1.0,,,,,,,,,gray,hexagon
0.0,5.0,1.0,1.0,5.0,5.0,835.898688999805,2.0,1.0,phase_2,go,450.0,750.0,1.0,,,,,,,,,cyan,I
0.0,4.0,4.0,0.0,6.0,6.0,784.4398600000204,2.0,1.0,phase_2,go,450.0,750.0,1.0,,,,,,,,,green,cross
0.0,1.0,1.0,0.0,6.0,6.0,1004.0870740003811,2.0,1.0,phase_2,go,450.0,750.0,1.0,,,,,,,,,blue,diamond
0.0,8.0,4.0,1.0,5.0,0.0,0.0,2.0,1.0,phase_2,stop,450.0,750.0,4.0,,,,,,,,,white,circle
0.0,7.0,3.0,1.0,6.0,6.0,818.4728310002356,2.0,1.0,phase_2,stop,500.0,750.0,3.0,,,,,,,,,magenta,flipped triangle
0.0,7.0,3.0,1.0,6.0,0.0,0.0,2.0,1.0,phase_2,stop,500.0,700.0,4.0,,,,,,,,,magenta,flipped triangle
0.0,2.0,2.0,0.0,6.0,6.0,985.3254820000076,2.0,1.0,phase_2,go,500.0,750.0,1.0,,,,,,,,,orange,square
0.0,1.0,1.0,0.0,5.0,5.0,924.3371950001348,2.0,1.0,phase_2,go,500.0,750.0,1.0,,,,,,,,,blue,diamond
0.0,7.0,3.0,1.0,5.0,0.0,0.0,2.0,1.0,phase_2,stop,500.0,750.0,4.0,,,,,,,,,magenta,flipped triangle
0.0,4.0,4.0,0.0,5.0,5.0,940.5847920002088,2.0,1.0,phase_2,go,550.0,750.0,1.0,,,,,,,,,green,cross
0.0,8.0,4.0,1.0,6.0,6.0,536.7329460000292,2.0,1.0,phase_2,go,550.0,750.0,1.0,,,,,,,,,white,circle
0.0,8.0,4.0,1.0,5.0,0.0,0.0,2.0,1.0,phase_2,stop,550.0,750.0,4.0,,,,,,,,,white,circle
0.0,3.0,3.0,0.0,6.0,6.0,831.510881000213,2.0,1.0,phase_2,go,600.0,750.0,1.0,,,,,,,,,gray,hexagon
0.0,8.0,4.0,1.0,5.0,0.0,0.0,2.0,1.0,phase_2,stop,600.0,750.0,4.0,,,,,,,,,white,circle
0.0,5.0,1.0,1.0,5.0,0.0,0.0,2.0,1.0,phase_2,stop,650.0,750.0,4.0,,,,,,,,,cyan,I
0.0,8.0,4.0,1.0,6.0,6.0,1040.6262050000803,2.0,1.0,phase_2,go,700.0,750.0,1.0,,,,,,,,,white,circle
0.0,1.0,1.0,0.0,6.0,6.0,1102.9193529998338,2.0,1.0,phase_2,go,700.0,750.0,1.0,,,,,,,,,blue,diamond
0.0,5.0,1.0,1.0,6.0,0.0,0.0,2.0,1.0,phase_2,stop,700.0,750.0,4.0,,,,,,,,,cyan,I
0.0,7.0,3.0,1.0,5.0,0.0,0.0,2.0,1.0,phase_2,stop,700.0,800.0,4.0,,,,,,,,,magenta,flipped triangle
0.0,5.0,1.0,1.0,5.0,5.0,874.8805549998906,2.0,1.0,phase_2,stop,750.0,800.0,3.0,,,,,,,,,cyan,I
0.0,3.0,3.0,0.0,6.0,6.0,1266.122821999943,2.0,1.0,phase_2,go,700.0,800.0,1.0,,,,,,,,,gray,hexagon
0.0,6.0,2.0,1.0,6.0,0.0,0.0,2.0,1.0,phase_2,stop,700.0,800.0,4.0,,,,,,,,,yellow,triangle
0.0,7.0,3.0,1.0,5.0,0.0,0.0,2.0,1.0,phase_2,stop,700.0,850.0,4.0,,,,,,,,,magenta,flipped triangle
0.0,6.0,2.0,1.0,5.0,5.0,1097.1705209999527,2.0,1.0,phase_2,go,750.0,850.0,1.0,,,,,,,,,yellow,triangle
0.0,4.0,4.0,0.0,6.0,6.0,1187.149318000138,2.0,1.0,phase_2,go,750.0,850.0,1.0,,,,,,,,,green,cross
0.0,4.0,4.0,0.0,6.0,6.0,759.7937089999505,3.0,1.0,phase_2,go,750.0,850.0,1.0,,,,,,,,,green,cross
0.0,4.0,4.0,0.0,5.0,5.0,883.3705169995483,3.0,1.0,phase_2,go,750.0,850.0,1.0,,,,,,,,,green,cross
0.0,8.0,4.0,1.0,6.0,6.0,372.13790099986,3.0,1.0,phase_2,go,750.0,850.0,1.0,,,,,,,,,white,circle
0.0,1.0,1.0,0.0,5.0,5.0,928.0767979998928,3.0,1.0,phase_2,go,750.0,850.0,1.0,,,,,,,,,blue,diamond
0.0,7.0,3.0,1.0,5.0,5.0,860.094114000276,3.0,1.0,phase_2,go,750.0,850.0,1.0,,,,,,,,,magenta,flipped triangle
0.0,6.0,2.0,1.0,5.0,5.0,791.8382660000134,3.0,1.0,phase_2,stop,750.0,850.0,3.0,,,,,,,,,yellow,triangle
0.0,7.0,3.0,1.0,6.0,6.0,806.8719039997632,3.0,1.0,phase_2,stop,700.0,850.0,3.0,,,,,,,,,magenta,flipped triangle
0.0,6.0,2.0,1.0,5.0,5.0,763.0865330002052,3.0,1.0,phase_2,stop,700.0,800.0,3.0,,,,,,,,,yellow,triangle
0.0,1.0,1.0,0.0,6.0,6.0,779.0303789997779,3.0,1.0,phase_2,go,650.0,800.0,1.0,,,,,,,,,blue,diamond
0.0,1.0,1.0,0.0,5.0,5.0,904.7577480000656,3.0,1.0,phase_2,go,650.0,800.0,1.0,,,,,,,,,blue,diamond
0.0,3.0,3.0,0.0,5.0,5.0,1004.7858150001048,3.0,1.0,phase_2,go,650.0,800.0,1.0,,,,,,,,,gray,hexagon
0.0,6.0,2.0,1.0,5.0,0.0,0.0,3.0,1.0,phase_2,stop,650.0,800.0,4.0,,,,,,,,,yellow,triangle
0.0,2.0,2.0,0.0,5.0,5.0,892.2706130001643,3.0,1.0,phase_2,go,700.0,800.0,1.0,,,,,,,,,orange,square
0.0,7.0,3.0,1.0,6.0,6.0,396.4049020000857,3.0,1.0,phase_2,stop,700.0,800.0,3.0,,,,,,,,,magenta,flipped triangle
0.0,4.0,4.0,0.0,5.0,5.0,891.6232149999814,3.0,1.0,phase_2,go,700.0,750.0,1.0,,,,,,,,,green,cross
0.0,6.0,2.0,1.0,6.0,6.0,837.7958609999041,3.0,1.0,phase_2,stop,700.0,750.0,3.0,,,,,,,,,yellow,triangle
0.0,1.0,1.0,0.0,6.0,6.0,1128.7281360000634,3.0,1.0,phase_2,go,700.0,700.0,1.0,,,,,,,,,blue,diamond
0.0,7.0,3.0,1.0,5.0,5.0,839.570612999978,3.0,1.0,phase_2,stop,700.0,700.0,3.0,,,,,,,,,magenta,flipped triangle
0.0,4.0,4.0,0.0,5.0,5.0,730.619508000018,3.0,1.0,phase_2,go,650.0,700.0,1.0,,,,,,,,,green,cross
0.0,5.0,1.0,1.0,5.0,0.0,0.0,3.0,1.0,phase_2,stop,650.0,700.0,4.0,,,,,,,,,cyan,I
0.0,8.0,4.0,1.0,6.0,6.0,1143.8842430002296,3.0,1.0,phase_2,go,700.0,700.0,1.0,,,,,,,,,white,circle
0.0,5.0,1.0,1.0,6.0,0.0,0.0,3.0,1.0,phase_2,stop,700.0,700.0,4.0,,,,,,,,,cyan,I
0.0,4.0,4.0,0.0,5.0,5.0,935.3982099996756,3.0,1.0,phase_2,go,700.0,750.0,1.0,,,,,,,,,green,cross
0.0,7.0,3.0,1.0,5.0,5.0,1158.2858469996609,3.0,1.0,phase_2,go,700.0,750.0,1.0,,,,,,,,,magenta,flipped triangle
0.0,8.0,4.0,1.0,6.0,0.0,0.0,3.0,1.0,phase_2,stop,700.0,750.0,4.0,,,,,,,,,white,circle
0.0,8.0,4.0,1.0,5.0,5.0,754.972431999704,3.0,1.0,phase_2,stop,700.0,800.0,3.0,,,,,,,,,white,circle
0.0,6.0,2.0,1.0,6.0,6.0,1363.9676719999445,3.0,1.0,phase_2,go,650.0,800.0,1.0,,,,,,,,,yellow,triangle
0.0,8.0,4.0,1.0,5.0,0.0,0.0,3.0,1.0,phase_2,stop,650.0,800.0,4.0,,,,,,,,,white,circle
0.0,3.0,3.0,0.0,5.0,5.0,919.5982460000778,3.0,1.0,phase_2,go,700.0,800.0,1.0,,,,,,,,,gray,hexagon
0.0,8.0,4.0,1.0,6.0,0.0,0.0,3.0,1.0,phase_2,stop,700.0,800.0,4.0,,,,,,,,,white,circle
0.0,5.0,1.0,1.0,5.0,0.0,0.0,3.0,1.0,phase_2,stop,700.0,850.0,4.0,,,,,,,,,cyan,I
0.0,2.0,2.0,0.0,5.0,5.0,947.3933429999306,3.0,1.0,phase_2,go,750.0,850.0,1.0,,,,,,,,,orange,square
0.0,5.0,1.0,1.0,6.0,0.0,0.0,3.0,1.0,phase_2,stop,750.0,850.0,4.0,,,,,,,,,cyan,I
0.0,3.0,3.0,0.0,6.0,6.0,1303.6400150003828,3.0,1.0,phase_2,go,750.0,900.0,1.0,,,,,,,,,gray,hexagon
0.0,6.0,2.0,1.0,6.0,0.0,0.0,3.0,1.0,phase_2,stop,750.0,900.0,4.0,,,,,,,,,yellow,triangle
0.0,1.0,1.0,0.0,6.0,6.0,1042.7220760002456,3.0,1.0,phase_2,go,750.0,950.0,1.0,,,,,,,,,blue,diamond
0.0,6.0,2.0,1.0,6.0,6.0,718.6608920001163,4.0,1.0,phase_2,stop,750.0,950.0,3.0,,,,,,,,,yellow,triangle
0.0,4.0,4.0,0.0,5.0,5.0,265.5599619997701,4.0,1.0,phase_2,go,750.0,900.0,1.0,,,,,,,,,green,cross
0.0,7.0,3.0,1.0,5.0,5.0,276.9892589999472,4.0,1.0,phase_2,stop,750.0,900.0,3.0,,,,,,,,,magenta,flipped triangle
0.0,4.0,4.0,0.0,6.0,6.0,331.8420630002947,4.0,1.0,phase_2,go,700.0,900.0,1.0,,,,,,,,,green,cross
0.0,5.0,1.0,1.0,5.0,5.0,242.2360079999634,4.0,1.0,phase_2,stop,700.0,900.0,3.0,,,,,,,,,cyan,I
0.0,7.0,3.0,1.0,6.0,6.0,389.0667070004383,4.0,1.0,phase_2,stop,650.0,900.0,3.0,,,,,,,,,magenta,flipped triangle
0.0,7.0,3.0,1.0,5.0,5.0,216.8043250003393,4.0,1.0,phase_2,stop,650.0,850.0,3.0,,,,,,,,,magenta,flipped triangle
0.0,3.0,3.0,0.0,5.0,5.0,342.5323149999713,4.0,1.0,phase_2,go,600.0,850.0,1.0,,,,,,,,,gray,hexagon
0.0,7.0,3.0,1.0,6.0,6.0,750.1553230003992,4.0,1.0,phase_2,stop,600.0,850.0,3.0,,,,,,,,,magenta,flipped triangle
0.0,8.0,4.0,1.0,5.0,5.0,265.1979969996318,4.0,1.0,phase_2,stop,600.0,800.0,3.0,,,,,,,,,white,circle
0.0,4.0,4.0,0.0,6.0,6.0,239.9495109998497,4.0,1.0,phase_2,go,550.0,800.0,1.0,,,,,,,,,green,cross
0.0,3.0,3.0,0.0,5.0,5.0,307.9243809997933,4.0,1.0,phase_2,go,550.0,800.0,1.0,,,,,,,,,gray,hexagon
0.0,4.0,4.0,0.0,6.0,6.0,271.6786589999174,4.0,1.0,phase_2,go,550.0,800.0,1.0,,,,,,,,,green,cross
0.0,3.0,3.0,0.0,5.0,5.0,846.3948400003574,4.0,1.0,phase_2,go,550.0,800.0,1.0,,,,,,,,,gray,hexagon
0.0,2.0,2.0,0.0,5.0,5.0,373.7117820001003,4.0,1.0,phase_2,go,550.0,800.0,1.0,,,,,,,,,orange,square
0.0,1.0,1.0,0.0,6.0,6.0,323.4166090001054,4.0,1.0,phase_2,go,550.0,800.0,1.0,,,,,,,,,blue,diamond
0.0,5.0,1.0,1.0,6.0,6.0,857.0774290001282,4.0,1.0,phase_2,stop,550.0,800.0,3.0,,,,,,,,,cyan,I
0.0,5.0,1.0,1.0,6.0,6.0,426.6356170001018,4.0,1.0,phase_2,stop,550.0,750.0,3.0,,,,,,,,,cyan,I
0.0,2.0,2.0,0.0,6.0,6.0,326.7494410001745,4.0,1.0,phase_2,go,550.0,700.0,1.0,,,,,,,,,orange,square
0.0,3.0,3.0,0.0,5.0,5.0,279.2896400001154,4.0,1.0,phase_2,go,550.0,700.0,1.0,,,,,,,,,gray,hexagon
0.0,1.0,1.0,0.0,6.0,6.0,325.7128879999982,4.0,1.0,phase_2,go,550.0,700.0,1.0,,,,,,,,,blue,diamond
0.0,5.0,1.0,1.0,6.0,6.0,306.8362190001608,4.0,1.0,phase_2,stop,550.0,700.0,3.0,,,,,,,,,cyan,I
0.0,5.0,1.0,1.0,5.0,5.0,262.2553999999581,4.0,1.0,phase_2,go,550.0,650.0,1.0,,,,,,,,,cyan,I
0.0,2.0,2.0,0.0,6.0,6.0,648.7395549997927,4.0,1.0,phase_2,go,550.0,650.0,1.0,,,,,,,,,orange,square
0.0,4.0,4.0,0.0,5.0,5.0,601.0203430000729,4.0,1.0,phase_2,go,550.0,650.0,1.0,,,,,,,,,green,cross
0.0,6.0,2.0,1.0,5.0,0.0,0.0,4.0,1.0,phase_2,stop,550.0,650.0,4.0,,,,,,,,,yellow,triangle
0.0,4.0,4.0,0.0,5.0,5.0,520.4596189996664,4.0,1.0,phase_2,go,600.0,650.0,1.0,,,,,,,,,green,cross
0.0,5.0,1.0,1.0,5.0,5.0,376.9539449999683,4.0,1.0,phase_2,stop,600.0,650.0,3.0,,,,,,,,,cyan,I
0.0,5.0,1.0,1.0,6.0,6.0,648.1669939998937,4.0,1.0,phase_2,stop,550.0,650.0,3.0,,,,,,,,,cyan,I
0.0,4.0,4.0,0.0,5.0,5.0,312.7600179996079,4.0,1.0,phase_2,go,550.0,600.0,1.0,,,,,,,,,green,cross
0.0,2.0,2.0,0.0,5.0,5.0,279.2618890002813,4.0,1.0,phase_2,go,550.0,600.0,1.0,,,,,,,,,orange,square
0.0,8.0,4.0,1.0,6.0,6.0,265.7468919996972,4.0,1.0,phase_2,stop,550.0,600.0,3.0,,,,,,,,,white,circle
0.0,4.0,4.0,0.0,6.0,6.0,378.9156160000857,4.0,1.0,phase_2,go,550.0,550.0,1.0,,,,,,,,,green,cross
0.0,1.0,1.0,0.0,6.0,6.0,695.5009960001917,4.0,1.0,phase_2,go,550.0,550.0,1.0,,,,,,,,,blue,diamond
0.0,1.0,1.0,0.0,5.0,5.0,489.194365000003,4.0,1.0,phase_2,go,550.0,550.0,1.0,,,,,,,,,blue,diamond
0.0,8.0,4.0,1.0,6.0,0.0,0.0,4.0,1.0,phase_2,stop,550.0,550.0,4.0,,,,,,,,,white,circle
0.0,4.0,4.0,0.0,5.0,5.0,498.7035569997715,5.0,1.0,phase_2,go,550.0,600.0,1.0,,,,,,,,,green,cross
0.0,7.0,3.0,1.0,6.0,6.0,299.5361590001266,5.0,1.0,phase_2,stop,550.0,600.0,3.0,,,,,,,,,magenta,flipped triangle
0.0,2.0,2.0,0.0,5.0,5.0,597.2423719999824,5.0,1.0,phase_2,go,550.0,550.0,1.0,,,,,,,,,orange,square
0.0,2.0,2.0,0.0,5.0,5.0,737.8561639998225,5.0,1.0,phase_2,go,550.0,550.0,1.0,,,,,,,,,orange,square
0.0,6.0,2.0,1.0,6.0,6.0,293.2349180000528,5.0,1.0,phase_2,stop,550.0,550.0,3.0,,,,,,,,,yellow,triangle
0.0,2.0,2.0,0.0,5.0,5.0,271.4023769999585,5.0,1.0,phase_2,go,550.0,500.0,1.0,,,,,,,,,orange,square
0.0,3.0,3.0,0.0,5.0,5.0,436.9289629999002,5.0,1.0,phase_2,go,550.0,500.0,1.0,,,,,,,,,gray,hexagon
0.0,7.0,3.0,1.0,5.0,5.0,317.7981180001552,5.0,1.0,phase_2,stop,550.0,500.0,3.0,,,,,,,,,magenta,flipped triangle
0.0,3.0,3.0,0.0,5.0,5.0,316.5300440000465,5.0,1.0,phase_2,go,500.0,500.0,1.0,,,,,,,,,gray,hexagon
0.0,4.0,4.0,0.0,5.0,5.0,538.3710219998648,5.0,1.0,phase_2,go,500.0,500.0,1.0,,,,,,,,,green,cross
0.0,6.0,2.0,1.0,5.0,5.0,380.2545789999385,5.0,1.0,phase_2,stop,500.0,500.0,3.0,,,,,,,,,yellow,triangle
0.0,4.0,4.0,0.0,5.0,5.0,342.8448829999979,5.0,1.0,phase_2,go,450.0,500.0,1.0,,,,,,,,,green,cross
0.0,7.0,3.0,1.0,5.0,5.0,689.2083640000237,5.0,1.0,phase_2,go,450.0,500.0,1.0,,,,,,,,,magenta,flipped triangle
0.0,6.0,2.0,1.0,5.0,5.0,260.8016220001445,5.0,1.0,phase_2,stop,450.0,500.0,3.0,,,,,,,,,yellow,triangle
0.0,3.0,3.0,0.0,5.0,5.0,496.034296000289,5.0,1.0,phase_2,go,400.0,500.0,1.0,,,,,,,,,gray,hexagon
0.0,5.0,1.0,1.0,6.0,0.0,0.0,5.0,1.0,phase_2,stop,400.0,500.0,4.0,,,,,,,,,cyan,I
0.0,6.0,2.0,1.0,6.0,0.0,0.0,5.0,1.0,phase_2,stop,400.0,550.0,4.0,,,,,,,,,yellow,triangle
0.0,5.0,1.0,1.0,5.0,5.0,394.9664209999355,5.0,1.0,phase_2,stop,400.0,600.0,3.0,,,,,,,,,cyan,I
0.0,6.0,2.0,1.0,6.0,6.0,679.4361689999278,5.0,1.0,phase_2,go,350.0,600.0,1.0,,,,,,,,,yellow,triangle
0.0,3.0,3.0,0.0,6.0,6.0,729.0454119997776,5.0,1.0,phase_2,go,350.0,600.0,1.0,,,,,,,,,gray,hexagon
0.0,7.0,3.0,1.0,5.0,5.0,480.5799180003305,5.0,1.0,phase_2,go,350.0,600.0,1.0,,,,,,,,,magenta,flipped triangle
0.0,4.0,4.0,0.0,5.0,5.0,418.470723000155,5.0,1.0,phase_2,go,350.0,600.0,1.0,,,,,,,,,green,cross
0.0,3.0,3.0,0.0,6.0,6.0,375.6481250002252,5.0,1.0,phase_2,go,350.0,600.0,1.0,,,,,,,,,gray,hexagon
0.0,3.0,3.0,0.0,6.0,6.0,619.8148580001543,5.0,1.0,phase_2,go,350.0,600.0,1.0,,,,,,,,,gray,hexagon
0.0,1.0,1.0,0.0,5.0,5.0,641.8005199998333,5.0,1.0,phase_2,go,350.0,600.0,1.0,,,,,,,,,blue,diamond
0.0,5.0,1.0,1.0,6.0,6.0,469.5118980002917,5.0,1.0,phase_2,stop,350.0,600.0,3.0,,,,,,,,,cyan,I
0.0,3.0,3.0,0.0,5.0,5.0,429.5207800000753,5.0,1.0,phase_2,go,350.0,550.0,1.0,,,,,,,,,gray,hexagon
0.0,4.0,4.0,0.0,6.0,6.0,517.1793929998785,5.0,1.0,phase_2,go,350.0,550.0,1.0,,,,,,,,,green,cross
0.0,2.0,2.0,0.0,5.0,5.0,607.2681569999077,5.0,1.0,phase_2,go,350.0,550.0,1.0,,,,,,,,,orange,square
0.0,3.0,3.0,0.0,5.0,5.0,331.53351799956,5.0,1.0,phase_2,go,350.0,550.0,1.0,,,,,,,,,gray,hexagon
0.0,2.0,2.0,0.0,6.0,6.0,733.8830600001529,5.0,1.0,phase_2,go,350.0,550.0,1.0,,,,,,,,,orange,square
0.0,6.0,2.0,1.0,6.0,6.0,1100.285820999943,5.0,1.0,phase_2,go,350.0,550.0,1.0,,,,,,,,,yellow,triangle
0.0,8.0,4.0,1.0,5.0,5.0,310.7935709999765,5.0,1.0,phase_2,stop,350.0,550.0,3.0,,,,,,,,,white,circle
0.0,1.0,1.0,0.0,6.0,6.0,838.4644500001741,5.0,1.0,phase_2,go,300.0,550.0,1.0,,,,,,,,,blue,diamond
0.0,2.0,2.0,0.0,6.0,6.0,569.9679650001599,5.0,1.0,phase_2,go,300.0,550.0,1.0,,,,,,,,,orange,square
0.0,6.0,2.0,1.0,5.0,0.0,0.0,5.0,1.0,phase_2,stop,300.0,550.0,4.0,,,,,,,,,yellow,triangle
0.0,1.0,1.0,0.0,5.0,5.0,635.8144109999557,6.0,1.0,phase_2,go,350.0,550.0,1.0,,,,,,,,,blue,diamond
0.0,2.0,2.0,0.0,6.0,6.0,453.58122299967357,6.0,1.0,phase_2,go,350.0,550.0,1.0,,,,,,,,,orange,square
0.0,7.0,3.0,1.0,6.0,6.0,712.2295499998472,6.0,1.0,phase_2,go,350.0,550.0,1.0,,,,,,,,,magenta,flipped triangle
0.0,6.0,2.0,1.0,5.0,0.0,0.0,6.0,1.0,phase_2,stop,350.0,550.0,4.0,,,,,,,,,yellow,triangle
0.0,2.0,2.0,0.0,6.0,6.0,339.8177509998277,6.0,1.0,phase_2,go,400.0,550.0,1.0,,,,,,,,,orange,square
0.0,5.0,1.0,1.0,5.0,5.0,280.1018010000007,6.0,1.0,phase_2,go,400.0,550.0,1.0,,,,,,,,,cyan,I
0.0,2.0,2.0,0.0,6.0,6.0,227.0610619998478,6.0,1.0,phase_2,go,400.0,550.0,1.0,,,,,,,,,orange,square
0.0,2.0,2.0,0.0,6.0,6.0,346.343034000256,6.0,1.0,phase_2,go,400.0,550.0,1.0,,,,,,,,,orange,square
0.0,3.0,3.0,0.0,6.0,6.0,316.6978920003203,6.0,1.0,phase_2,go,400.0,550.0,1.0,,,,,,,,,gray,hexagon
0.0,6.0,2.0,1.0,6.0,6.0,789.5853429999988,6.0,1.0,phase_2,stop,400.0,550.0,3.0,,,,,,,,,yellow,triangle
0.0,6.0,2.0,1.0,6.0,6.0,686.6732700000284,6.0,1.0,phase_2,go,400.0,500.0,1.0,,,,,,,,,yellow,triangle
0.0,6.0,2.0,1.0,5.0,0.0,0.0,6.0,1.0,phase_2,stop,400.0,500.0,4.0,,,,,,,,,yellow,triangle
0.0,1.0,1.0,0.0,5.0,5.0,514.5377529997859,6.0,1.0,phase_2,go,450.0,500.0,1.0,,,,,,,,,blue,diamond
0.0,6.0,2.0,1.0,6.0,0.0,0.0,6.0,1.0,phase_2,stop,450.0,500.0,4.0,,,,,,,,,yellow,triangle
0.0,5.0,1.0,1.0,6.0,6.0,592.1173839997209,6.0,1.0,phase_2,stop,450.0,550.0,3.0,,,,,,,,,cyan,I
0.0,7.0,3.0,1.0,6.0,6.0,348.4515840000313,6.0,1.0,phase_2,stop,450.0,500.0,3.0,,,,,,,,,magenta,flipped triangle
0.0,1.0,1.0,0.0,5.0,5.0,585.5226550002044,6.0,1.0,phase_2,go,450.0,450.0,1.0,,,,,,,,,blue,diamond
0.0,8.0,4.0,1.0,5.0,0.0,0.0,6.0,1.0,phase_2,stop,450.0,450.0,4.0,,,,,,,,,white,circle
0.0,8.0,4.0,1.0,6.0,6.0,360.6583840000894,6.0,1.0,phase_2,go,500.0,450.0,1.0,,,,,,,,,white,circle
0.0,7.0,3.0,1.0,5.0,0.0,0.0,6.0,1.0,phase_2,stop,500.0,450.0,4.0,,,,,,,,,magenta,flipped triangle
0.0,3.0,3.0,0.0,5.0,5.0,614.2153400001007,6.0,1.0,phase_2,go,550.0,450.0,1.0,,,,,,,,,gray,hexagon
0.0,1.0,1.0,0.0,6.0,6.0,602.7201759998206,6.0,1.0,phase_2,go,550.0,450.0,1.0,,,,,,,,,blue,diamond
0.0,5.0,1.0,1.0,5.0,5.0,790.6951569998455,6.0,1.0,phase_2,go,550.0,450.0,1.0,,,,,,,,,cyan,I
0.0,8.0,4.0,1.0,5.0,5.0,309.9333290001596,6.0,1.0,phase_2,stop,550.0,450.0,3.0,,,,,,,,,white,circle
0.0,6.0,2.0,1.0,5.0,5.0,290.0055180002709,6.0,1.0,phase_2,stop,500.0,450.0,3.0,,,,,,,,,yellow,triangle
0.0,5.0,1.0,1.0,5.0,5.0,610.118245999729,6.0,1.0,phase_2,stop,450.0,450.0,3.0,,,,,,,,,cyan,I
0.0,3.0,3.0,0.0,5.0,5.0,551.1309899998196,6.0,1.0,phase_2,go,400.0,450.0,1.0,,,,,,,,,gray,hexagon
0.0,3.0,3.0,0.0,5.0,5.0,832.0983030002935,6.0,1.0,phase_2,go,400.0,450.0,1.0,,,,,,,,,gray,hexagon
0.0,7.0,3.0,1.0,5.0,0.0,0.0,6.0,1.0,phase_2,stop,400.0,450.0,4.0,,,,,,,,,magenta,flipped triangle
0.0,2.0,2.0,0.0,5.0,5.0,811.6708689999541,6.0,1.0,phase_2,go,450.0,450.0,1.0,,,,,,,,,orange,square
0.0,1.0,1.0,0.0,5.0,5.0,716.8938999998318,6.0,1.0,phase_2,go,450.0,450.0,1.0,,,,,,,,,blue,diamond
0.0,6.0,2.0,1.0,5.0,0.0,0.0,6.0,1.0,phase_2,stop,450.0,450.0,4.0,,,,,,,,,yellow,triangle
0.0,1.0,1.0,0.0,6.0,6.0,313.2412790000671,6.0,1.0,phase_2,go,500.0,450.0,1.0,,,,,,,,,blue,diamond
0.0,3.0,3.0,0.0,5.0,5.0,545.0154569998631,6.0,1.0,phase_2,go,500.0,450.0,1.0,,,,,,,,,gray,hexagon
0.0,7.0,3.0,1.0,5.0,5.0,740.266111999972,6.0,1.0,phase_2,go,500.0,450.0,1.0,,,,,,,,,magenta,flipped triangle
0.0,3.0,3.0,0.0,5.0,5.0,499.2429680000896,6.0,1.0,phase_2,go,500.0,450.0,1.0,,,,,,,,,gray,hexagon
0.0,5.0,1.0,1.0,6.0,0.0,0.0,7.0,1.0,phase_2,stop,500.0,450.0,4.0,,,,,,,,,cyan,I
0.0,7.0,3.0,1.0,6.0,6.0,477.6793119999638,7.0,1.0,phase_2,go,500.0,500.0,1.0,,,,,,,,,magenta,flipped triangle
0.0,7.0,3.0,1.0,5.0,5.0,248.545212999943,7.0,1.0,phase_2,go,500.0,500.0,1.0,,,,,,,,,magenta,flipped triangle
0.0,1.0,1.0,0.0,5.0,5.0,597.035225000127,7.0,1.0,phase_2,go,500.0,500.0,1.0,,,,,,,,,blue,diamond
0.0,3.0,3.0,0.0,6.0,6.0,500.6960020000406,7.0,1.0,phase_2,go,500.0,500.0,1.0,,,,,,,,,gray,hexagon
0.0,7.0,3.0,1.0,6.0,6.0,327.0741730002555,7.0,1.0,phase_2,stop,500.0,500.0,3.0,,,,,,,,,magenta,flipped triangle
0.0,1.0,1.0,0.0,5.0,5.0,478.2913640001425,7.0,1.0,phase_2,go,500.0,450.0,1.0,,,,,,,,,blue,diamond
0.0,4.0,4.0,0.0,6.0,6.0,612.0162760003041,7.0,1.0,phase_2,go,500.0,450.0,1.0,,,,,,,,,green,cross
0.0,5.0,1.0,1.0,5.0,5.0,647.93908799993,7.0,1.0,phase_2,stop,500.0,450.0,3.0,,,,,,,,,cyan,I
0.0,5.0,1.0,1.0,5.0,5.0,628.5063629998149,7.0,1.0,phase_2,go,450.0,450.0,1.0,,,,,,,,,cyan,I
0.0,4.0,4.0,0.0,6.0,6.0,573.6912000002121,7.0,1.0,phase_2,go,450.0,450.0,1.0,,,,,,,,,green,cross
0.0,7.0,3.0,1.0,5.0,5.0,738.1192470002134,7.0,1.0,phase_2,go,450.0,450.0,1.0,,,,,,,,,magenta,flipped triangle
0.0,6.0,2.0,1.0,5.0,5.0,1111.071133999758,7.0,1.0,phase_2,go,450.0,450.0,1.0,,,,,,,,,yellow,triangle
0.0,8.0,4.0,1.0,5.0,5.0,417.3490949997358,7.0,1.0,phase_2,stop,450.0,450.0,3.0,,,,,,,,,white,circle
0.0,6.0,2.0,1.0,5.0,5.0,323.7822549999691,7.0,1.0,phase_2,stop,400.0,450.0,3.0,,,,,,,,,yellow,triangle
0.0,8.0,4.0,1.0,6.0,6.0,273.7891460001265,7.0,1.0,phase_2,go,350.0,450.0,1.0,,,,,,,,,white,circle
0.0,6.0,2.0,1.0,6.0,0.0,0.0,7.0,1.0,phase_2,stop,350.0,450.0,4.0,,,,,,,,,yellow,triangle
0.0,2.0,2.0,0.0,5.0,5.0,569.5874799998819,7.0,1.0,phase_2,go,350.0,500.0,1.0,,,,,,,,,orange,square
0.0,6.0,2.0,1.0,6.0,6.0,539.4186439998521,7.0,1.0,phase_2,stop,350.0,500.0,3.0,,,,,,,,,yellow,triangle
0.0,2.0,2.0,0.0,6.0,6.0,686.4844209999319,7.0,1.0,phase_2,go,350.0,450.0,1.0,,,,,,,,,orange,square
0.0,2.0,2.0,0.0,5.0,5.0,587.1941000000334,7.0,1.0,phase_2,go,350.0,450.0,1.0,,,,,,,,,orange,square
0.0,2.0,2.0,0.0,6.0,6.0,733.6388409999017,7.0,1.0,phase_2,go,350.0,450.0,1.0,,,,,,,,,orange,square
0.0,8.0,4.0,1.0,6.0,6.0,528.1045890001224,7.0,1.0,phase_2,stop,350.0,450.0,3.0,,,,,,,,,white,circle
0.0,8.0,4.0,1.0,6.0,6.0,349.290629999814,7.0,1.0,phase_2,stop,350.0,400.0,3.0,,,,,,,,,white,circle
0.0,5.0,1.0,1.0,6.0,0.0,0.0,7.0,1.0,phase_2,stop,350.0,350.0,4.0,,,,,,,,,cyan,I
0.0,4.0,4.0,0.0,6.0,6.0,358.4058339997682,7.0,1.0,phase_2,go,350.0,400.0,1.0,,,,,,,,,green,cross
0.0,7.0,3.0,1.0,6.0,0.0,0.0,7.0,1.0,phase_2,stop,350.0,400.0,4.0,,,,,,,,,magenta,flipped triangle
0.0,2.0,2.0,0.0,5.0,5.0,327.1827660000781,7.0,1.0,phase_2,go,350.0,450.0,1.0,,,,,,,,,orange,square
0.0,6.0,2.0,1.0,5.0,0.0,0.0,7.0,1.0,phase_2,stop,350.0,450.0,4.0,,,,,,,,,yellow,triangle
0.0,2.0,2.0,0.0,5.0,5.0,628.5658070000864,7.0,1.0,phase_2,go,400.0,450.0,1.0,,,,,,,,,orange,square
0.0,6.0,2.0,1.0,5.0,5.0,626.8358040001658,7.0,1.0,phase_2,go,400.0,450.0,1.0,,,,,,,,,yellow,triangle
0.0,8.0,4.0,1.0,6.0,0.0,0.0,7.0,1.0,phase_2,stop,400.0,450.0,4.0,,,,,,,,,white,circle
0.0,5.0,1.0,1.0,6.0,6.0,390.2506950003044,7.0,1.0,phase_2,go,400.0,500.0,1.0,,,,,,,,,cyan,I
0.0,6.0,2.0,1.0,6.0,6.0,554.0148959998987,7.0,1.0,phase_2,stop,400.0,500.0,3.0,,,,,,,,,yellow,triangle
0.0,3.0,3.0,0.0,6.0,6.0,576.6922389998399,7.0,1.0,phase_2,go,400.0,450.0,1.0,,,,,,,,,gray,hexagon
0.0,5.0,1.0,1.0,6.0,6.0,742.1207299998969,7.0,1.0,phase_2,go,400.0,450.0,1.0,,,,,,,,,cyan,I
0.0,2.0,2.0,0.0,6.0,6.0,588.2460039997568,8.0,1.0,phase_2,go,400.0,450.0,1.0,,,,,,,,,orange,square
0.0,8.0,4.0,1.0,5.0,5.0,492.39459599994,8.0,1.0,phase_2,stop,400.0,450.0,3.0,,,,,,,,,white,circle
0.0,8.0,4.0,1.0,5.0,5.0,734.6176450000712,8.0,1.0,phase_2,go,350.0,450.0,1.0,,,,,,,,,white,circle
0.0,1.0,1.0,0.0,6.0,6.0,678.3338209997964,8.0,1.0,phase_2,go,350.0,450.0,1.0,,,,,,,,,blue,diamond
0.0,4.0,4.0,0.0,6.0,6.0,324.6698809998634,8.0,1.0,phase_2,go,350.0,450.0,1.0,,,,,,,,,green,cross
0.0,5.0,1.0,1.0,6.0,6.0,499.2406390001633,8.0,1.0,phase_2,stop,350.0,450.0,3.0,,,,,,,,,cyan,I
0.0,8.0,4.0,1.0,6.0,6.0,674.2910560001292,8.0,1.0,phase_2,go,350.0,400.0,1.0,,,,,,,,,white,circle
0.0,5.0,1.0,1.0,6.0,0.0,0.0,8.0,1.0,phase_2,stop,350.0,400.0,4.0,,,,,,,,,cyan,I
0.0,3.0,3.0,0.0,6.0,6.0,520.3568930000984,8.0,1.0,phase_2,go,350.0,450.0,1.0,,,,,,,,,gray,hexagon
0.0,1.0,1.0,0.0,6.0,6.0,1007.792069000061,8.0,1.0,phase_2,go,350.0,450.0,1.0,,,,,,,,,blue,diamond
0.0,6.0,2.0,1.0,6.0,0.0,0.0,8.0,1.0,phase_2,stop,350.0,450.0,4.0,,,,,,,,,yellow,triangle
0.0,8.0,4.0,1.0,5.0,5.0,434.9797979998584,8.0,1.0,phase_2,stop,350.0,500.0,3.0,,,,,,,,,white,circle
0.0,2.0,2.0,0.0,5.0,5.0,636.2824769998952,8.0,1.0,phase_2,go,300.0,500.0,1.0,,,,,,,,,orange,square
0.0,3.0,3.0,0.0,6.0,6.0,595.6497939996552,8.0,1.0,phase_2,go,300.0,500.0,1.0,,,,,,,,,gray,hexagon
0.0,7.0,3.0,1.0,5.0,0.0,0.0,8.0,1.0,phase_2,stop,300.0,500.0,4.0,,,,,,,,,magenta,flipped triangle
0.0,3.0,3.0,0.0,5.0,6.0,588.9966719996664,8.0,1.0,phase_2,go,350.0,500.0,2.0,,,,,,,,,gray,hexagon
0.0,2.0,2.0,0.0,6.0,6.0,648.78658500038,8.0,1.0,phase_2,go,350.0,500.0,1.0,,,,,,,,,orange,square
0.0,1.0,1.0,0.0,6.0,6.0,556.0796439999649,8.0,1.0,phase_2,go,350.0,500.0,1.0,,,,,,,,,blue,diamond
0.0,4.0,4.0,0.0,6.0,6.0,717.2523510002975,8.0,1.0,phase_2,go,350.0,500.0,1.0,,,,,,,,,green,cross
0.0,2.0,2.0,0.0,6.0,6.0,442.3799440000948,8.0,1.0,phase_2,go,350.0,500.0,1.0,,,,,,,,,orange,square
0.0,1.0,1.0,0.0,6.0,6.0,591.2413739997646,8.0,1.0,phase_2,go,350.0,500.0,1.0,,,,,,,,,blue,diamond
0.0,8.0,4.0,1.0,6.0,0.0,0.0,8.0,1.0,phase_2,stop,350.0,500.0,4.0,,,,,,,,,white,circle
0.0,8.0,4.0,1.0,6.0,0.0,0.0,8.0,1.0,phase_2,stop,350.0,550.0,4.0,,,,,,,,,white,circle
0.0,1.0,1.0,0.0,6.0,6.0,596.5727699999661,8.0,1.0,phase_2,go,350.0,600.0,1.0,,,,,,,,,blue,diamond
0.0,3.0,3.0,0.0,6.0,6.0,535.0196589997722,8.0,1.0,phase_2,go,350.0,600.0,1.0,,,,,,,,,gray,hexagon
0.0,8.0,4.0,1.0,5.0,0.0,0.0,8.0,1.0,phase_2,stop,350.0,600.0,4.0,,,,,,,,,white,circle
0.0,1.0,1.0,0.0,5.0,5.0,573.625095999887,8.0,1.0,phase_2,go,400.0,600.0,1.0,,,,,,,,,blue,diamond
0.0,7.0,3.0,1.0,6.0,0.0,0.0,8.0,1.0,phase_2,stop,400.0,600.0,4.0,,,,,,,,,magenta,flipped triangle
0.0,6.0,2.0,1.0,5.0,5.0,863.1238259999918,8.0,1.0,phase_2,go,400.0,650.0,1.0,,,,,,,,,yellow,triangle
0.0,1.0,1.0,0.0,5.0,5.0,290.6352700001662,8.0,1.0,phase_2,go,400.0,650.0,1.0,,,,,,,,,blue,diamond
0.0,4.0,4.0,0.0,6.0,6.0,474.8042299997905,8.0,1.0,phase_2,go,400.0,650.0,1.0,,,,,,,,,green,cross
0.0,6.0,2.0,1.0,5.0,5.0,629.7855949997029,8.0,1.0,phase_2,go,400.0,650.0,1.0,,,,,,,,,yellow,triangle
0.0,5.0,1.0,1.0,5.0,5.0,498.3878529997128,8.0,1.0,phase_2,stop,400.0,650.0,3.0,,,,,,,,,cyan,I
0.0,4.0,4.0,0.0,6.0,6.0,503.1625270003133,8.0,1.0,phase_2,go,350.0,650.0,1.0,,,,,,,,,green,cross
0.0,2.0,2.0,0.0,5.0,5.0,545.8017430000837,8.0,1.0,phase_2,go,350.0,650.0,1.0,,,,,,,,,orange,square
0.0,3.0,3.0,0.0,6.0,6.0,337.07578100029417,8.0,1.0,phase_2,go,350.0,650.0,1.0,,,,,,,,,gray,hexagon
0.0,3.0,3.0,0.0,7.0,3.0,1521.083147000354,1.0,2.0,phase_3,,,,,54.0,1.0,216.0,108.0,54.0,162.0,324.0,270.0,gray,hexagon
0.0,3.0,3.0,0.0,7.0,4.0,2311.922307000259,1.0,1.0,phase_3,,,,,68.0,2.0,34.0,102.0,136.0,68.0,170.0,204.0,gray,hexagon
0.0,5.0,1.0,1.0,7.0,1.0,3434.731187000125,1.0,1.0,phase_3,,,,,195.0,5.0,195.0,234.0,117.0,39.0,156.0,78.0,cyan,I
0.0,4.0,4.0,0.0,7.0,4.0,2118.800903000192,1.0,1.0,phase_3,,,,,98.0,2.0,147.0,294.0,245.0,98.0,196.0,49.0,green,cross
0.0,1.0,1.0,0.0,7.0,6.0,1416.6599939999287,1.0,1.0,phase_3,,,,,147.0,3.0,98.0,49.0,294.0,196.0,245.0,147.0,blue,diamond
0.0,4.0,4.0,0.0,7.0,2.0,2259.1421990000526,1.0,1.0,phase_3,,,,,220.0,5.0,176.0,220.0,132.0,264.0,88.0,44.0,green,cross
0.0,3.0,3.0,0.0,7.0,4.0,1466.761628000313,1.0,1.0,phase_3,,,,,195.0,5.0,234.0,39.0,117.0,195.0,78.0,156.0,gray,hexagon
0.0,8.0,4.0,1.0,7.0,5.0,1359.4510279999668,1.0,1.0,phase_3,,,,,162.0,3.0,216.0,270.0,54.0,324.0,162.0,108.0,white,circle
0.0,7.0,3.0,1.0,7.0,2.0,1648.9640230001896,1.0,1.0,phase_3,,,,,117.0,3.0,156.0,117.0,78.0,234.0,39.0,195.0,magenta,flipped triangle
0.0,2.0,2.0,0.0,7.0,2.0,1196.5038340003955,1.0,1.0,phase_3,,,,,264.0,6.0,44.0,264.0,88.0,220.0,176.0,132.0,orange,square
0.0,2.0,2.0,0.0,7.0,2.0,1637.6967109999896,1.0,1.0,phase_3,,,,,204.0,6.0,34.0,204.0,136.0,170.0,68.0,102.0,orange,square
0.0,1.0,1.0,0.0,7.0,5.0,1435.4612249999263,1.0,1.0,phase_3,,,,,136.0,4.0,68.0,204.0,34.0,170.0,136.0,102.0,blue,diamond
0.0,2.0,2.0,0.0,7.0,3.0,1696.6016199994556,1.0,1.0,phase_3,,,,,162.0,3.0,324.0,108.0,162.0,270.0,54.0,216.0,orange,square
0.0,7.0,3.0,1.0,7.0,2.0,2203.3478760004077,1.0,1.0,phase_3,,,,,162.0,3.0,216.0,162.0,54.0,324.0,108.0,270.0,magenta,flipped triangle
0.0,3.0,3.0,0.0,7.0,4.0,1297.1310689999882,1.0,1.0,phase_3,,,,,176.0,4.0,132.0,264.0,220.0,176.0,44.0,88.0,gray,hexagon
0.0,2.0,2.0,0.0,7.0,2.0,1142.2131509998508,1.0,1.0,phase_3,,,,,132.0,3.0,264.0,132.0,220.0,88.0,176.0,44.0,orange,square
0.0,6.0,2.0,1.0,7.0,3.0,1027.9248090000692,1.0,1.0,phase_3,,,,,147.0,3.0,245.0,196.0,147.0,98.0,49.0,294.0,yellow,triangle
0.0,4.0,4.0,0.0,7.0,3.0,2143.382642999313,1.0,1.0,phase_3,,,,,117.0,3.0,195.0,78.0,117.0,234.0,39.0,156.0,green,cross
0.0,5.0,1.0,1.0,7.0,5.0,2461.38603899999,1.0,1.0,phase_3,,,,,147.0,3.0,245.0,294.0,196.0,98.0,147.0,49.0,cyan,I
0.0,2.0,2.0,0.0,7.0,3.0,1858.718148000662,1.0,1.0,phase_3,,,,,108.0,2.0,54.0,324.0,108.0,216.0,270.0,162.0,orange,square
0.0,8.0,4.0,1.0,7.0,5.0,949.5961550001084,2.0,1.0,phase_3,,,,,204.0,6.0,136.0,102.0,34.0,68.0,204.0,170.0,white,circle
0.0,4.0,4.0,0.0,7.0,3.0,2299.0317870007857,2.0,1.0,phase_3,,,,,78.0,2.0,195.0,39.0,78.0,234.0,117.0,156.0,green,cross
0.0,4.0,4.0,0.0,7.0,3.0,1685.7244200000423,2.0,1.0,phase_3,,,,,147.0,3.0,98.0,245.0,147.0,49.0,294.0,196.0,green,cross
0.0,8.0,4.0,1.0,7.0,4.0,1427.7685469996868,2.0,1.0,phase_3,,,,,176.0,4.0,264.0,220.0,88.0,176.0,132.0,44.0,white,circle
0.0,3.0,3.0,0.0,7.0,3.0,1401.969839999765,2.0,1.0,phase_3,,,,,264.0,6.0,44.0,132.0,264.0,220.0,88.0,176.0,gray,hexagon
0.0,8.0,4.0,1.0,7.0,1.0,686.6785640004309,2.0,1.0,phase_3,,,,,156.0,4.0,156.0,195.0,117.0,39.0,78.0,234.0,white,circle
0.0,2.0,2.0,0.0,7.0,5.0,1115.0517709993435,2.0,1.0,phase_3,,,,,117.0,3.0,234.0,195.0,39.0,78.0,117.0,156.0,orange,square
0.0,7.0,3.0,1.0,7.0,3.0,1085.6712100003278,2.0,1.0,phase_3,,,,,132.0,3.0,44.0,88.0,132.0,176.0,220.0,264.0,magenta,flipped triangle
0.0,4.0,4.0,0.0,7.0,4.0,995.3739489992586,2.0,1.0,phase_3,,,,,204.0,6.0,68.0,136.0,170.0,204.0,34.0,102.0,green,cross
0.0,3.0,3.0,0.0,7.0,6.0,1311.4780389996668,2.0,1.0,phase_3,,,,,68.0,2.0,34.0,102.0,136.0,170.0,204.0,68.0,gray,hexagon
0.0,5.0,1.0,1.0,7.0,1.0,1197.7781089999553,2.0,1.0,phase_3,,,,,136.0,4.0,136.0,68.0,34.0,170.0,204.0,102.0,cyan,I
0.0,1.0,1.0,0.0,7.0,3.0,1126.5921459998935,2.0,1.0,phase_3,,,,,162.0,3.0,270.0,108.0,162.0,324.0,216.0,54.0,blue,diamond
0.0,1.0,1.0,0.0,7.0,3.0,1012.1535769994807,2.0,1.0,phase_3,,,,,204.0,6.0,68.0,34.0,204.0,102.0,170.0,136.0,blue,diamond
0.0,3.0,3.0,0.0,7.0,4.0,683.934360999956,2.0,1.0,phase_3,,,,,98.0,2.0,294.0,196.0,245.0,98.0,147.0,49.0,gray,hexagon
0.0,6.0,2.0,1.0,7.0,2.0,751.2295540000196,2.0,1.0,phase_3,,,,,220.0,5.0,264.0,220.0,132.0,44.0,88.0,176.0,yellow,triangle
0.0,7.0,3.0,1.0,7.0,4.0,859.6369910001158,2.0,1.0,phase_3,,,,,68.0,2.0,204.0,34.0,170.0,68.0,136.0,102.0,magenta,flipped triangle
0.0,1.0,1.0,0.0,7.0,4.0,1121.8708040005367,2.0,1.0,phase_3,,,,,108.0,2.0,162.0,54.0,324.0,108.0,216.0,270.0,blue,diamond
0.0,6.0,2.0,1.0,7.0,2.0,999.836158999642,2.0,1.0,phase_3,,,,,204.0,6.0,102.0,204.0,68.0,170.0,34.0,136.0,yellow,triangle
0.0,6.0,2.0,1.0,7.0,6.0,1062.270491000163,2.0,1.0,phase_3,,,,,34.0,1.0,204.0,170.0,68.0,102.0,136.0,34.0,yellow,triangle
0.0,5.0,1.0,1.0,7.0,5.0,1264.0177160001258,2.0,1.0,phase_3,,,,,216.0,4.0,108.0,270.0,162.0,54.0,216.0,324.0,cyan,I
0.0,1.0,1.0,0.0,7.0,3.0,1087.5239349998085,3.0,1.0,phase_3,,,,,44.0,1.0,220.0,88.0,44.0,132.0,264.0,176.0,blue,diamond
0.0,1.0,1.0,0.0,7.0,4.0,982.8778450000756,3.0,1.0,phase_3,,,,,195.0,5.0,39.0,234.0,156.0,195.0,117.0,78.0,blue,diamond
0.0,7.0,3.0,1.0,7.0,4.0,1132.0015749997765,3.0,1.0,phase_3,,,,,234.0,6.0,156.0,39.0,117.0,234.0,195.0,78.0,magenta,flipped triangle
0.0,1.0,1.0,0.0,7.0,2.0,720.672544000081,3.0,1.0,phase_3,,,,,78.0,2.0,39.0,78.0,156.0,117.0,195.0,234.0,blue,diamond
0.0,4.0,4.0,0.0,7.0,3.0,596.1929479999526,3.0,1.0,phase_3,,,,,270.0,5.0,54.0,324.0,270.0,162.0,108.0,216.0,green,cross
0.0,6.0,2.0,1.0,7.0,4.0,810.6453480004348,3.0,1.0,phase_3,,,,,39.0,1.0,117.0,195.0,234.0,39.0,156.0,78.0,yellow,triangle
0.0,8.0,4.0,1.0,7.0,2.0,941.3297900000543,3.0,1.0,phase_3,,,,,88.0,2.0,176.0,88.0,220.0,132.0,264.0,44.0,white,circle
0.0,8.0,4.0,1.0,7.0,5.0,988.2672519997868,3.0,1.0,phase_3,,,,,216.0,4.0,54.0,108.0,162.0,270.0,216.0,324.0,white,circle
0.0,4.0,4.0,0.0,7.0,4.0,891.4848819995314,3.0,1.0,phase_3,,,,,204.0,6.0,34.0,68.0,102.0,204.0,170.0,136.0,green,cross
0.0,6.0,2.0,1.0,7.0,4.0,845.1246759996138,3.0,1.0,phase_3,,,,,162.0,3.0,54.0,270.0,324.0,162.0,108.0,216.0,yellow,triangle
0.0,1.0,1.0,0.0,7.0,4.0,683.6885209995671,3.0,1.0,phase_3,,,,,245.0,5.0,294.0,98.0,49.0,245.0,196.0,147.0,blue,diamond
0.0,5.0,1.0,1.0,7.0,4.0,1808.360654000353,3.0,1.0,phase_3,,,,,44.0,1.0,88.0,132.0,176.0,44.0,220.0,264.0,cyan,I
0.0,2.0,2.0,0.0,7.0,1.0,1600.4859599997872,3.0,1.0,phase_3,,,,,156.0,4.0,156.0,39.0,195.0,117.0,234.0,78.0,orange,square
0.0,7.0,3.0,1.0,7.0,4.0,1413.3774530000665,3.0,1.0,phase_3,,,,,102.0,3.0,170.0,34.0,68.0,102.0,204.0,136.0,magenta,flipped triangle
0.0,8.0,4.0,1.0,7.0,4.0,1047.6983469998231,3.0,1.0,phase_3,,,,,294.0,6.0,147.0,49.0,245.0,294.0,196.0,98.0,white,circle
0.0,6.0,2.0,1.0,7.0,3.0,1029.2965970002117,3.0,1.0,phase_3,,,,,78.0,2.0,39.0,156.0,78.0,195.0,117.0,234.0,yellow,triangle
0.0,7.0,3.0,1.0,7.0,4.0,997.7904359993772,3.0,1.0,phase_3,,,,,176.0,4.0,44.0,88.0,264.0,176.0,220.0,132.0,magenta,flipped triangle
0.0,4.0,4.0,0.0,7.0,3.0,450.3127589996438,3.0,1.0,phase_3,,,,,270.0,5.0,54.0,162.0,270.0,216.0,108.0,324.0,green,cross
0.0,5.0,1.0,1.0,7.0,5.0,761.2406540001757,3.0,1.0,phase_3,,,,,108.0,2.0,162.0,324.0,54.0,216.0,108.0,270.0,cyan,I
0.0,2.0,2.0,0.0,7.0,3.0,660.2401109994389,3.0,1.0,phase_3,,,,,102.0,3.0,68.0,204.0,102.0,136.0,34.0,170.0,orange,square
0.0,5.0,1.0,1.0,7.0,2.0,842.787469000541,4.0,1.0,phase_3,,,,,88.0,2.0,176.0,88.0,44.0,264.0,132.0,220.0,cyan,I
0.0,5.0,1.0,1.0,7.0,4.0,556.8523149995599,4.0,1.0,phase_3,,,,,294.0,6.0,245.0,147.0,98.0,294.0,196.0,49.0,cyan,I
0.0,4.0,4.0,0.0,7.0,5.0,490.6854999999268,4.0,1.0,phase_3,,,,,220.0,5.0,88.0,176.0,132.0,44.0,220.0,264.0,green,cross
0.0,8.0,4.0,1.0,7.0,1.0,1438.0835689999003,4.0,1.0,phase_3,,,,,234.0,6.0,234.0,78.0,39.0,156.0,117.0,195.0,white,circle
0.0,2.0,2.0,0.0,7.0,1.0,1024.1768039995804,4.0,1.0,phase_3,,,,,49.0,1.0,49.0,147.0,98.0,245.0,196.0,294.0,orange,square
0.0,8.0,4.0,1.0,7.0,4.0,1203.5624430000098,4.0,1.0,phase_3,,,,,294.0,6.0,245.0,147.0,98.0,294.0,196.0,49.0,white,circle
0.0,1.0,1.0,0.0,7.0,3.0,1191.1428069997785,4.0,1.0,phase_3,,,,,176.0,4.0,132.0,88.0,176.0,264.0,220.0,44.0,blue,diamond
0.0,6.0,2.0,1.0,7.0,3.0,1739.7164969997905,4.0,1.0,phase_3,,,,,49.0,1.0,245.0,147.0,49.0,294.0,196.0,98.0,yellow,triangle
0.0,5.0,1.0,1.0,7.0,4.0,1585.7549009997456,4.0,1.0,phase_3,,,,,204.0,6.0,102.0,136.0,34.0,204.0,68.0,170.0,cyan,I
0.0,7.0,3.0,1.0,7.0,4.0,930.4249819997494,4.0,1.0,phase_3,,,,,162.0,3.0,216.0,54.0,270.0,162.0,108.0,324.0,magenta,flipped triangle
0.0,5.0,1.0,1.0,7.0,3.0,1072.7661020000596,4.0,1.0,phase_3,,,,,117.0,3.0,234.0,78.0,117.0,39.0,195.0,156.0,cyan,I
0.0,3.0,3.0,0.0,7.0,5.0,1029.2445680006497,4.0,1.0,phase_3,,,,,195.0,5.0,117.0,156.0,234.0,39.0,195.0,78.0,gray,hexagon
0.0,6.0,2.0,1.0,7.0,3.0,911.1451970002236,4.0,1.0,phase_3,,,,,176.0,4.0,264.0,132.0,176.0,88.0,220.0,44.0,yellow,triangle
0.0,6.0,2.0,1.0,7.0,4.0,1100.163977000193,4.0,1.0,phase_3,,,,,270.0,5.0,162.0,108.0,54.0,270.0,324.0,216.0,yellow,triangle
0.0,3.0,3.0,0.0,7.0,1.0,1708.343989000241,4.0,1.0,phase_3,,,,,216.0,4.0,216.0,324.0,54.0,270.0,108.0,162.0,gray,hexagon
0.0,7.0,3.0,1.0,7.0,4.0,1274.26986699993,4.0,1.0,phase_3,,,,,147.0,3.0,196.0,245.0,98.0,147.0,294.0,49.0,magenta,flipped triangle
0.0,3.0,3.0,0.0,7.0,2.0,2023.02024599976,4.0,1.0,phase_3,,,,,196.0,4.0,294.0,196.0,147.0,49.0,98.0,245.0,gray,hexagon
0.0,2.0,2.0,0.0,7.0,2.0,2290.502458999981,4.0,1.0,phase_3,,,,,196.0,4.0,98.0,196.0,294.0,245.0,147.0,49.0,orange,square
0.0,8.0,4.0,1.0,7.0,3.0,1370.4305970004498,4.0,1.0,phase_3,,,,,204.0,6.0,136.0,170.0,204.0,68.0,34.0,102.0,white,circle
0.0,7.0,3.0,1.0,7.0,3.0,1604.277606999858,4.0,1.0,phase_3,,,,,98.0,2.0,147.0,294.0,98.0,245.0,49.0,196.0,magenta,flipped triangle
