raw_reward_magnitude,stim_reward,stepwise_reward_magnitude,paired_with_stopping,stim_location,response,reaction_time,block,num_trial_presentations,which_phase,stop_signal_trial_type,left_SSD,right_SSD,accuracy,chosen_bidding_amount,chosen_bidding_level,possible_bid_1,possible_bid_2,possible_bid_3,possible_bid_4,possible_bid_5,possible_bid_6,color_text,shape_text
67.0,1.0,1.0,0.0,2.0,2.0,286.015211999711,1.0,1.0,phase_1,,,,,,,,,,,,,orange,cross
0.0,5.0,0.0,1.0,3.0,3.0,287.3401459996785,1.0,1.0,phase_1,,,,,,,,,,,,,yellow,I
52.0,1.0,1.0,0.0,3.0,3.0,253.261373999976,1.0,1.0,phase_1,,,,,,,,,,,,,orange,cross
47.0,1.0,1.0,0.0,3.0,3.0,256.7711740002778,1.0,2.0,phase_1,,,,,,,,,,,,,orange,cross
86.0,6.0,2.0,1.0,1.0,1.0,236.0004890001619,1.0,1.0,phase_1,,,,,,,,,,,,,cyan,square
30.0,1.0,1.0,0.0,4.0,4.0,247.7932339998005,1.0,1.0,phase_1,,,,,,,,,,,,,orange,cross
422.0,8.0,4.0,1.0,4.0,4.0,273.7801220000619,1.0,1.0,phase_1,,,,,,,,,,,,,blue,circle
124.0,6.0,2.0,1.0,3.0,3.0,295.7643690001532,1.0,1.0,phase_1,,,,,,,,,,,,,cyan,square
375.0,8.0,4.0,1.0,2.0,2.0,252.94876700036178,1.0,1.0,phase_1,,,,,,,,,,,,,blue,circle
92.0,6.0,2.0,1.0,3.0,3.0,262.9467430001568,1.0,1.0,phase_1,,,,,,,,,,,,,cyan,square
383.0,4.0,4.0,0.0,3.0,3.0,300.1816119999603,1.0,1.0,phase_1,,,,,,,,,,,,,magenta,flipped triangle
420.0,8.0,4.0,1.0,4.0,4.0,287.7276250001159,1.0,1.0,phase_1,,,,,,,,,,,,,blue,circle
407.0,8.0,4.0,1.0,2.0,2.0,240.7294760000695,1.0,1.0,phase_1,,,,,,,,,,,,,blue,circle
0.0,1.0,0.0,0.0,4.0,4.0,275.0411219999478,1.0,2.0,phase_1,,,,,,,,,,,,,orange,cross
198.0,7.0,3.0,1.0,1.0,1.0,259.1821630003323,1.0,1.0,phase_1,,,,,,,,,,,,,gray,triangle
55.0,5.0,1.0,1.0,3.0,3.0,276.8209790001492,1.0,1.0,phase_1,,,,,,,,,,,,,yellow,I
410.0,8.0,4.0,1.0,4.0,4.0,251.0579300001154,1.0,1.0,phase_1,,,,,,,,,,,,,blue,circle
83.0,6.0,2.0,1.0,1.0,1.0,276.7664889997832,1.0,1.0,phase_1,,,,,,,,,,,,,cyan,square
0.0,6.0,0.0,1.0,4.0,4.0,247.46103600000419,1.0,1.0,phase_1,,,,,,,,,,,,,cyan,square
198.0,3.0,3.0,0.0,4.0,4.0,303.5298260001582,1.0,1.0,phase_1,,,,,,,,,,,,,white,hexagon
0.0,4.0,0.0,0.0,4.0,4.0,278.4302810000554,1.0,1.0,phase_1,,,,,,,,,,,,,magenta,flipped triangle
0.0,8.0,0.0,1.0,4.0,4.0,300.144296000326,1.0,1.0,phase_1,,,,,,,,,,,,,blue,circle
84.0,2.0,2.0,0.0,1.0,1.0,249.2835420002848,1.0,1.0,phase_1,,,,,,,,,,,,,green,diamond
68.0,1.0,1.0,0.0,3.0,3.0,300.9150749999207,1.0,1.0,phase_1,,,,,,,,,,,,,orange,cross
201.0,7.0,3.0,1.0,2.0,2.0,424.7463169999719,1.0,1.0,phase_1,,,,,,,,,,,,,gray,triangle
0.0,8.0,0.0,1.0,3.0,3.0,331.6707130002214,1.0,1.0,phase_1,,,,,,,,,,,,,blue,circle
77.0,2.0,2.0,0.0,3.0,3.0,299.1586200000711,1.0,1.0,phase_1,,,,,,,,,,,,,green,diamond
175.0,3.0,3.0,0.0,3.0,3.0,299.3464429996493,1.0,1.0,phase_1,,,,,,,,,,,,,white,hexagon
382.0,8.0,4.0,1.0,4.0,4.0,338.0543599996599,1.0,1.0,phase_1,,,,,,,,,,,,,blue,circle
94.0,2.0,2.0,0.0,2.0,2.0,572.891817999789,1.0,1.0,phase_1,,,,,,,,,,,,,green,diamond
220.0,3.0,3.0,0.0,4.0,4.0,325.6430500000533,1.0,1.0,phase_1,,,,,,,,,,,,,white,hexagon
35.0,1.0,1.0,0.0,2.0,2.0,254.22864599977402,1.0,1.0,phase_1,,,,,,,,,,,,,orange,cross
42.0,5.0,1.0,1.0,4.0,4.0,252.92772500006322,1.0,1.0,phase_1,,,,,,,,,,,,,yellow,I
73.0,1.0,1.0,0.0,3.0,3.0,288.3705469998858,1.0,1.0,phase_1,,,,,,,,,,,,,orange,cross
403.0,4.0,4.0,0.0,3.0,3.0,285.6527710000591,1.0,1.0,phase_1,,,,,,,,,,,,,magenta,flipped triangle
29.0,1.0,1.0,0.0,2.0,2.0,309.7638989997904,1.0,1.0,phase_1,,,,,,,,,,,,,orange,cross
417.0,8.0,4.0,1.0,3.0,3.0,267.2389929998644,1.0,1.0,phase_1,,,,,,,,,,,,,blue,circle
86.0,2.0,2.0,0.0,1.0,1.0,262.6678209999227,1.0,1.0,phase_1,,,,,,,,,,,,,green,diamond
409.0,4.0,4.0,0.0,2.0,2.0,306.4126760000363,1.0,1.0,phase_1,,,,,,,,,,,,,magenta,flipped triangle
392.0,4.0,4.0,0.0,1.0,1.0,479.1208749998077,1.0,1.0,phase_1,,,,,,,,,,,,,magenta,flipped triangle
32.0,5.0,1.0,1.0,4.0,4.0,603.8450430000921,1.0,1.0,phase_1,,,,,,,,,,,,,yellow,I
221.0,7.0,3.0,1.0,4.0,4.0,288.8922289998845,1.0,1.0,phase_1,,,,,,,,,,,,,gray,triangle
46.0,1.0,1.0,0.0,3.0,3.0,290.5527319999237,1.0,1.0,phase_1,,,,,,,,,,,,,orange,cross
0.0,1.0,0.0,0.0,4.0,4.0,278.5497550003128,1.0,1.0,phase_1,,,,,,,,,,,,,orange,cross
0.0,8.0,0.0,1.0,2.0,2.0,277.6049770000099,1.0,1.0,phase_1,,,,,,,,,,,,,blue,circle
56.0,5.0,1.0,1.0,1.0,1.0,268.914613999641,1.0,1.0,phase_1,,,,,,,,,,,,,yellow,I
87.0,2.0,2.0,0.0,1.0,1.0,253.8406449998547,1.0,1.0,phase_1,,,,,,,,,,,,,green,diamond
393.0,4.0,4.0,0.0,1.0,1.0,251.42217800021172,1.0,1.0,phase_1,,,,,,,,,,,,,magenta,flipped triangle
218.0,3.0,3.0,0.0,2.0,2.0,233.4451740002805,1.0,1.0,phase_1,,,,,,,,,,,,,white,hexagon
210.0,7.0,3.0,1.0,3.0,3.0,271.6181480000159,1.0,1.0,phase_1,,,,,,,,,,,,,gray,triangle
56.0,1.0,1.0,0.0,4.0,4.0,450.8593200002906,1.0,1.0,phase_1,,,,,,,,,,,,,orange,cross
0.0,6.0,0.0,1.0,4.0,4.0,318.7066569998933,1.0,1.0,phase_1,,,,,,,,,,,,,cyan,square
397.0,8.0,4.0,1.0,3.0,3.0,291.8812079997224,1.0,1.0,phase_1,,,,,,,,,,,,,blue,circle
422.0,4.0,4.0,0.0,2.0,2.0,370.758775000013,1.0,1.0,phase_1,,,,,,,,,,,,,magenta,flipped triangle
0.0,2.0,0.0,0.0,3.0,3.0,286.3502079999307,1.0,1.0,phase_1,,,,,,,,,,,,,green,diamond
185.0,3.0,3.0,0.0,3.0,3.0,290.977082000154,1.0,1.0,phase_1,,,,,,,,,,,,,white,hexagon
221.0,3.0,3.0,0.0,4.0,4.0,299.9807139999575,1.0,1.0,phase_1,,,,,,,,,,,,,white,hexagon
191.0,3.0,3.0,0.0,1.0,1.0,230.331866999677,1.0,1.0,phase_1,,,,,,,,,,,,,white,hexagon
0.0,5.0,0.0,1.0,1.0,1.0,276.8634189997101,1.0,1.0,phase_1,,,,,,,,,,,,,yellow,I
67.0,5.0,1.0,1.0,1.0,1.0,386.2364219999108,1.0,1.0,phase_1,,,,,,,,,,,,,yellow,I
96.0,2.0,2.0,0.0,4.0,4.0,320.6154340000466,1.0,1.0,phase_1,,,,,,,,,,,,,green,diamond
422.0,8.0,4.0,1.0,4.0,4.0,329.1792609998083,1.0,1.0,phase_1,,,,,,,,,,,,,blue,circle
0.0,6.0,0.0,1.0,1.0,1.0,345.4108409996479,1.0,1.0,phase_1,,,,,,,,,,,,,cyan,square
37.0,1.0,1.0,0.0,2.0,2.0,305.1111390000187,1.0,2.0,phase_1,,,,,,,,,,,,,orange,cross
0.0,3.0,0.0,0.0,1.0,1.0,259.8273069997958,1.0,2.0,phase_1,,,,,,,,,,,,,white,hexagon
0.0,5.0,0.0,1.0,2.0,2.0,291.9367790000251,1.0,1.0,phase_1,,,,,,,,,,,,,yellow,I
411.0,8.0,4.0,1.0,3.0,3.0,306.9273070000236,1.0,1.0,phase_1,,,,,,,,,,,,,blue,circle
123.0,6.0,2.0,1.0,3.0,3.0,245.117897,1.0,2.0,phase_1,,,,,,,,,,,,,cyan,square
98.0,6.0,2.0,1.0,2.0,2.0,244.6483690000604,1.0,1.0,phase_1,,,,,,,,,,,,,cyan,square
407.0,8.0,4.0,1.0,2.0,2.0,300.2267249999022,1.0,2.0,phase_1,,,,,,,,,,,,,blue,circle
423.0,8.0,4.0,1.0,2.0,2.0,387.734625000121,1.0,1.0,phase_1,,,,,,,,,,,,,blue,circle
210.0,7.0,3.0,1.0,2.0,2.0,485.6453670004157,1.0,1.0,phase_1,,,,,,,,,,,,,gray,triangle
78.0,2.0,2.0,0.0,3.0,3.0,290.2580069999203,1.0,1.0,phase_1,,,,,,,,,,,,,green,diamond
84.0,6.0,2.0,1.0,2.0,2.0,322.0318479998241,1.0,1.0,phase_1,,,,,,,,,,,,,cyan,square
0.0,5.0,0.0,1.0,4.0,4.0,372.6382120003109,1.0,1.0,phase_1,,,,,,,,,,,,,yellow,I
409.0,8.0,4.0,1.0,2.0,2.0,280.5636220000451,1.0,1.0,phase_1,,,,,,,,,,,,,blue,circle
225.0,7.0,3.0,1.0,1.0,1.0,252.1761269999842,1.0,1.0,phase_1,,,,,,,,,,,,,gray,triangle
45.0,5.0,1.0,1.0,1.0,1.0,332.7045149999321,1.0,1.0,phase_1,,,,,,,,,,,,,yellow,I
88.0,6.0,2.0,1.0,4.0,4.0,259.4541670000581,1.0,1.0,phase_1,,,,,,,,,,,,,cyan,square
199.0,7.0,3.0,1.0,2.0,2.0,317.8559980001409,1.0,1.0,phase_1,,,,,,,,,,,,,gray,triangle
96.0,6.0,2.0,1.0,4.0,4.0,330.624618999991,1.0,1.0,phase_1,,,,,,,,,,,,,cyan,square
0.0,5.0,0.0,1.0,3.0,3.0,485.0883300000532,1.0,1.0,phase_1,,,,,,,,,,,,,yellow,I
184.0,7.0,3.0,1.0,3.0,3.0,986.1501569998836,1.0,1.0,phase_1,,,,,,,,,,,,,gray,triangle
0.0,5.0,0.0,1.0,2.0,2.0,361.7168999999194,1.0,1.0,phase_1,,,,,,,,,,,,,yellow,I
380.0,4.0,4.0,0.0,3.0,3.0,260.7482710000113,1.0,1.0,phase_1,,,,,,,,,,,,,magenta,flipped triangle
116.0,6.0,2.0,1.0,2.0,2.0,295.5081620002602,1.0,1.0,phase_1,,,,,,,,,,,,,cyan,square
389.0,8.0,4.0,1.0,3.0,3.0,328.8104430002931,1.0,1.0,phase_1,,,,,,,,,,,,,blue,circle
35.0,5.0,1.0,1.0,4.0,4.0,304.5749399998385,1.0,1.0,phase_1,,,,,,,,,,,,,yellow,I
388.0,8.0,4.0,1.0,2.0,2.0,362.8121259998806,1.0,1.0,phase_1,,,,,,,,,,,,,blue,circle
118.0,2.0,2.0,0.0,3.0,3.0,366.0281879997455,1.0,1.0,phase_1,,,,,,,,,,,,,green,diamond
0.0,2.0,0.0,0.0,3.0,3.0,548.3662589999767,1.0,1.0,phase_1,,,,,,,,,,,,,green,diamond
27.0,1.0,1.0,0.0,4.0,4.0,345.7444820001001,1.0,1.0,phase_1,,,,,,,,,,,,,orange,cross
58.0,1.0,1.0,0.0,1.0,1.0,368.7315500001205,1.0,2.0,phase_1,,,,,,,,,,,,,orange,cross
390.0,8.0,4.0,1.0,3.0,3.0,366.5630910004438,1.0,1.0,phase_1,,,,,,,,,,,,,blue,circle
210.0,3.0,3.0,0.0,3.0,3.0,344.5798930001729,1.0,1.0,phase_1,,,,,,,,,,,,,white,hexagon
0.0,3.0,0.0,0.0,1.0,1.0,329.328630999953,1.0,1.0,phase_1,,,,,,,,,,,,,white,hexagon
0.0,7.0,0.0,1.0,3.0,3.0,355.1510669999516,1.0,1.0,phase_1,,,,,,,,,,,,,gray,triangle
123.0,2.0,2.0,0.0,4.0,4.0,446.4253769997413,1.0,1.0,phase_1,,,,,,,,,,,,,green,diamond
52.0,5.0,1.0,1.0,2.0,2.0,495.2798760000405,1.0,1.0,phase_1,,,,,,,,,,,,,yellow,I
0.0,6.0,0.0,1.0,3.0,3.0,444.7449049998795,1.0,1.0,phase_1,,,,,,,,,,,,,cyan,square
115.0,6.0,2.0,1.0,3.0,3.0,347.8306510000948,2.0,1.0,phase_1,,,,,,,,,,,,,cyan,square
392.0,8.0,4.0,1.0,2.0,2.0,258.008862999759,2.0,1.0,phase_1,,,,,,,,,,,,,blue,circle
0.0,2.0,0.0,0.0,1.0,1.0,222.0074540000496,2.0,1.0,phase_1,,,,,,,,,,,,,green,diamond
68.0,5.0,1.0,1.0,2.0,2.0,364.790155999799,2.0,1.0,phase_1,,,,,,,,,,,,,yellow,I
196.0,7.0,3.0,1.0,3.0,3.0,306.1335770003097,2.0,1.0,phase_1,,,,,,,,,,,,,gray,triangle
184.0,3.0,3.0,0.0,1.0,1.0,252.2026629999345,2.0,1.0,phase_1,,,,,,,,,,,,,white,hexagon
412.0,8.0,4.0,1.0,3.0,3.0,290.3880440003377,2.0,1.0,phase_1,,,,,,,,,,,,,blue,circle
214.0,3.0,3.0,0.0,4.0,4.0,290.7732929998019,2.0,1.0,phase_1,,,,,,,,,,,,,white,hexagon
0.0,6.0,0.0,1.0,4.0,4.0,418.1638909999492,2.0,1.0,phase_1,,,,,,,,,,,,,cyan,square
29.0,5.0,1.0,1.0,1.0,1.0,253.2402229999206,2.0,1.0,phase_1,,,,,,,,,,,,,yellow,I
393.0,8.0,4.0,1.0,4.0,4.0,325.9757609998814,2.0,1.0,phase_1,,,,,,,,,,,,,blue,circle
180.0,7.0,3.0,1.0,3.0,3.0,316.4521960002275,2.0,1.0,phase_1,,,,,,,,,,,,,gray,triangle
125.0,2.0,2.0,0.0,4.0,4.0,325.4046919996654,2.0,1.0,phase_1,,,,,,,,,,,,,green,diamond
97.0,6.0,2.0,1.0,1.0,1.0,323.0850519998967,2.0,1.0,phase_1,,,,,,,,,,,,,cyan,square
176.0,7.0,3.0,1.0,4.0,4.0,368.6746260000291,2.0,1.0,phase_1,,,,,,,,,,,,,gray,triangle
92.0,6.0,2.0,1.0,2.0,2.0,314.9476020003021,2.0,1.0,phase_1,,,,,,,,,,,,,cyan,square
116.0,2.0,2.0,0.0,3.0,3.0,314.1911769998842,2.0,1.0,phase_1,,,,,,,,,,,,,green,diamond
83.0,2.0,2.0,0.0,2.0,2.0,277.9995969999618,2.0,1.0,phase_1,,,,,,,,,,,,,green,diamond
206.0,7.0,3.0,1.0,4.0,4.0,268.4000410004046,2.0,1.0,phase_1,,,,,,,,,,,,,gray,triangle
67.0,5.0,1.0,1.0,1.0,1.0,346.9676069998968,2.0,1.0,phase_1,,,,,,,,,,,,,yellow,I
0.0,8.0,0.0,1.0,1.0,1.0,391.150557000401,2.0,1.0,phase_1,,,,,,,,,,,,,blue,circle
0.0,8.0,0.0,1.0,4.0,4.0,760.0066089999018,2.0,1.0,phase_1,,,,,,,,,,,,,blue,circle
0.0,3.0,0.0,0.0,3.0,3.0,306.277124999724,2.0,1.0,phase_1,,,,,,,,,,,,,white,hexagon
213.0,7.0,3.0,1.0,2.0,2.0,359.5518010001797,2.0,1.0,phase_1,,,,,,,,,,,,,gray,triangle
185.0,3.0,3.0,0.0,2.0,2.0,300.9513950000837,2.0,1.0,phase_1,,,,,,,,,,,,,white,hexagon
52.0,5.0,1.0,1.0,2.0,2.0,429.1414569997869,2.0,1.0,phase_1,,,,,,,,,,,,,yellow,I
0.0,6.0,0.0,1.0,1.0,1.0,267.657355999745,2.0,1.0,phase_1,,,,,,,,,,,,,cyan,square
0.0,1.0,0.0,0.0,4.0,4.0,331.7139460000362,2.0,1.0,phase_1,,,,,,,,,,,,,orange,cross
0.0,5.0,0.0,1.0,2.0,2.0,348.6383900003602,2.0,1.0,phase_1,,,,,,,,,,,,,yellow,I
84.0,6.0,2.0,1.0,3.0,3.0,521.9630349997715,2.0,1.0,phase_1,,,,,,,,,,,,,cyan,square
187.0,7.0,3.0,1.0,2.0,2.0,421.8890769998324,2.0,1.0,phase_1,,,,,,,,,,,,,gray,triangle
52.0,5.0,1.0,1.0,1.0,1.0,435.3635879997455,2.0,1.0,phase_1,,,,,,,,,,,,,yellow,I
213.0,7.0,3.0,1.0,1.0,1.0,285.8923690000665,2.0,1.0,phase_1,,,,,,,,,,,,,gray,triangle
84.0,2.0,2.0,0.0,1.0,1.0,380.62402200012,2.0,1.0,phase_1,,,,,,,,,,,,,green,diamond
385.0,4.0,4.0,0.0,4.0,4.0,292.2955549997823,2.0,1.0,phase_1,,,,,,,,,,,,,magenta,flipped triangle
183.0,3.0,3.0,0.0,3.0,3.0,276.8742990001556,2.0,1.0,phase_1,,,,,,,,,,,,,white,hexagon
413.0,8.0,4.0,1.0,4.0,4.0,568.243270000039,2.0,1.0,phase_1,,,,,,,,,,,,,blue,circle
400.0,8.0,4.0,1.0,1.0,1.0,379.9487659998704,2.0,1.0,phase_1,,,,,,,,,,,,,blue,circle
98.0,6.0,2.0,1.0,4.0,4.0,286.9336180001482,2.0,1.0,phase_1,,,,,,,,,,,,,cyan,square
86.0,6.0,2.0,1.0,2.0,2.0,313.2262200001605,2.0,1.0,phase_1,,,,,,,,,,,,,cyan,square
71.0,1.0,1.0,0.0,2.0,2.0,403.6715279999043,2.0,1.0,phase_1,,,,,,,,,,,,,orange,cross
0.0,7.0,0.0,1.0,3.0,3.0,285.8202600000368,2.0,1.0,phase_1,,,,,,,,,,,,,gray,triangle
0.0,4.0,0.0,0.0,1.0,1.0,533.137594999971,2.0,1.0,phase_1,,,,,,,,,,,,,magenta,flipped triangle
36.0,5.0,1.0,1.0,3.0,3.0,979.5924310001284,2.0,1.0,phase_1,,,,,,,,,,,,,yellow,I
0.0,4.0,0.0,0.0,1.0,1.0,346.2030519999644,2.0,1.0,phase_1,,,,,,,,,,,,,magenta,flipped triangle
224.0,3.0,3.0,0.0,1.0,1.0,288.4479449999162,2.0,1.0,phase_1,,,,,,,,,,,,,white,hexagon
411.0,4.0,4.0,0.0,4.0,4.0,429.975500999717,2.0,1.0,phase_1,,,,,,,,,,,,,magenta,flipped triangle
397.0,4.0,4.0,0.0,2.0,2.0,330.9879370003727,2.0,1.0,phase_1,,,,,,,,,,,,,magenta,flipped triangle
0.0,2.0,0.0,0.0,1.0,1.0,365.7156879999093,2.0,1.0,phase_1,,,,,,,,,,,,,green,diamond
92.0,2.0,2.0,0.0,1.0,1.0,259.7100750003847,2.0,1.0,phase_1,,,,,,,,,,,,,green,diamond
35.0,5.0,1.0,1.0,3.0,3.0,359.6948060003342,2.0,1.0,phase_1,,,,,,,,,,,,,yellow,I
111.0,6.0,2.0,1.0,3.0,3.0,956.06809300034,2.0,1.0,phase_1,,,,,,,,,,,,,cyan,square
0.0,1.0,0.0,0.0,2.0,2.0,269.3721870000445,2.0,2.0,phase_1,,,,,,,,,,,,,orange,cross
43.0,5.0,1.0,1.0,3.0,3.0,286.4073050000115,2.0,1.0,phase_1,,,,,,,,,,,,,yellow,I
58.0,5.0,1.0,1.0,2.0,2.0,359.9143100000219,2.0,1.0,phase_1,,,,,,,,,,,,,yellow,I
75.0,2.0,2.0,0.0,3.0,3.0,293.5686539999551,2.0,1.0,phase_1,,,,,,,,,,,,,green,diamond
42.0,1.0,1.0,0.0,2.0,2.0,290.9978829998181,2.0,1.0,phase_1,,,,,,,,,,,,,orange,cross
61.0,1.0,1.0,0.0,4.0,4.0,605.865322000227,2.0,1.0,phase_1,,,,,,,,,,,,,orange,cross
0.0,4.0,0.0,0.0,1.0,1.0,405.6054160000713,2.0,2.0,phase_1,,,,,,,,,,,,,magenta,flipped triangle
86.0,2.0,2.0,0.0,4.0,4.0,390.5764129999625,2.0,1.0,phase_1,,,,,,,,,,,,,green,diamond
37.0,5.0,1.0,1.0,3.0,3.0,292.7985569999691,2.0,1.0,phase_1,,,,,,,,,,,,,yellow,I
412.0,4.0,4.0,0.0,2.0,2.0,380.2921419996892,2.0,1.0,phase_1,,,,,,,,,,,,,magenta,flipped triangle
73.0,5.0,1.0,1.0,2.0,2.0,311.1778030001915,2.0,1.0,phase_1,,,,,,,,,,,,,yellow,I
403.0,8.0,4.0,1.0,1.0,1.0,272.2751930000413,2.0,1.0,phase_1,,,,,,,,,,,,,blue,circle
187.0,3.0,3.0,0.0,4.0,4.0,349.3705500000033,2.0,2.0,phase_1,,,,,,,,,,,,,white,hexagon
0.0,5.0,0.0,1.0,4.0,4.0,346.2359679997462,2.0,1.0,phase_1,,,,,,,,,,,,,yellow,I
203.0,3.0,3.0,0.0,1.0,1.0,386.9788099996185,2.0,1.0,phase_1,,,,,,,,,,,,,white,hexagon
0.0,2.0,0.0,0.0,3.0,3.0,304.8450260002937,2.0,1.0,phase_1,,,,,,,,,,,,,green,diamond
189.0,7.0,3.0,1.0,2.0,2.0,680.031038999914,2.0,1.0,phase_1,,,,,,,,,,,,,gray,triangle
183.0,3.0,3.0,0.0,3.0,3.0,460.3301560000545,2.0,1.0,phase_1,,,,,,,,,,,,,white,hexagon
0.0,6.0,0.0,1.0,3.0,3.0,926.779567000267,2.0,1.0,phase_1,,,,,,,,,,,,,cyan,square
124.0,2.0,2.0,0.0,4.0,4.0,373.5780520000844,2.0,1.0,phase_1,,,,,,,,,,,,,green,diamond
200.0,7.0,3.0,1.0,3.0,3.0,263.9047300003767,2.0,1.0,phase_1,,,,,,,,,,,,,gray,triangle
380.0,4.0,4.0,0.0,1.0,1.0,439.704200000051,2.0,1.0,phase_1,,,,,,,,,,,,,magenta,flipped triangle
400.0,8.0,4.0,1.0,4.0,4.0,732.2308959996917,2.0,1.0,phase_1,,,,,,,,,,,,,blue,circle
98.0,2.0,2.0,0.0,4.0,4.0,412.5793349999185,2.0,1.0,phase_1,,,,,,,,,,,,,green,diamond
116.0,6.0,2.0,1.0,1.0,1.0,335.0122110000484,2.0,1.0,phase_1,,,,,,,,,,,,,cyan,square
196.0,3.0,3.0,0.0,4.0,4.0,295.5606000000443,2.0,1.0,phase_1,,,,,,,,,,,,,white,hexagon
198.0,3.0,3.0,0.0,2.0,2.0,333.3613879999575,2.0,1.0,phase_1,,,,,,,,,,,,,white,hexagon
54.0,5.0,1.0,1.0,3.0,3.0,942.1066840000094,2.0,2.0,phase_1,,,,,,,,,,,,,yellow,I
389.0,4.0,4.0,0.0,2.0,2.0,978.2970470000693,2.0,1.0,phase_1,,,,,,,,,,,,,magenta,flipped triangle
0.0,1.0,0.0,0.0,4.0,4.0,349.4078180001452,2.0,2.0,phase_1,,,,,,,,,,,,,orange,cross
191.0,3.0,3.0,0.0,2.0,2.0,921.0110119997807,2.0,1.0,phase_1,,,,,,,,,,,,,white,hexagon
0.0,8.0,0.0,1.0,4.0,4.0,397.649487000308,2.0,1.0,phase_1,,,,,,,,,,,,,blue,circle
0.0,7.0,0.0,1.0,3.0,3.0,323.92157000003857,2.0,1.0,phase_1,,,,,,,,,,,,,gray,triangle
25.0,5.0,1.0,1.0,4.0,4.0,555.8324490002633,2.0,1.0,phase_1,,,,,,,,,,,,,yellow,I
383.0,8.0,4.0,1.0,1.0,1.0,375.5288600000313,2.0,2.0,phase_1,,,,,,,,,,,,,blue,circle
61.0,1.0,1.0,0.0,1.0,1.0,408.2967700001063,2.0,1.0,phase_1,,,,,,,,,,,,,orange,cross
415.0,8.0,4.0,1.0,2.0,2.0,276.7004689999339,2.0,2.0,phase_1,,,,,,,,,,,,,blue,circle
0.0,2.0,0.0,0.0,1.0,1.0,674.5716129998982,2.0,1.0,phase_1,,,,,,,,,,,,,green,diamond
400.0,4.0,4.0,0.0,4.0,4.0,332.8749290003543,2.0,2.0,phase_1,,,,,,,,,,,,,magenta,flipped triangle
120.0,6.0,2.0,1.0,1.0,1.0,248.6009150002246,2.0,1.0,phase_1,,,,,,,,,,,,,cyan,square
46.0,5.0,1.0,1.0,2.0,2.0,286.232788000234,2.0,1.0,phase_1,,,,,,,,,,,,,yellow,I
0.0,7.0,0.0,1.0,2.0,2.0,378.7456240002029,2.0,1.0,phase_1,,,,,,,,,,,,,gray,triangle
396.0,8.0,4.0,1.0,3.0,3.0,333.9455720001751,2.0,1.0,phase_1,,,,,,,,,,,,,blue,circle
47.0,5.0,1.0,1.0,4.0,4.0,305.4929429999902,2.0,2.0,phase_1,,,,,,,,,,,,,yellow,I
421.0,4.0,4.0,0.0,3.0,3.0,342.838495000251,2.0,3.0,phase_1,,,,,,,,,,,,,magenta,flipped triangle
116.0,6.0,2.0,1.0,4.0,4.0,303.1010019999485,2.0,1.0,phase_1,,,,,,,,,,,,,cyan,square
88.0,2.0,2.0,0.0,3.0,3.0,799.8548159998791,2.0,1.0,phase_1,,,,,,,,,,,,,green,diamond
70.0,1.0,1.0,0.0,2.0,2.0,328.9830270000493,2.0,1.0,phase_1,,,,,,,,,,,,,orange,cross
420.0,4.0,4.0,0.0,2.0,2.0,462.2478950000186,3.0,1.0,phase_1,,,,,,,,,,,,,magenta,flipped triangle
213.0,3.0,3.0,0.0,3.0,3.0,228.5385510003834,3.0,1.0,phase_1,,,,,,,,,,,,,white,hexagon
35.0,1.0,1.0,0.0,4.0,4.0,314.4356679999873,3.0,1.0,phase_1,,,,,,,,,,,,,orange,cross
206.0,3.0,3.0,0.0,2.0,2.0,245.6050739997408,3.0,1.0,phase_1,,,,,,,,,,,,,white,hexagon
112.0,2.0,2.0,0.0,1.0,1.0,275.0623150000137,3.0,2.0,phase_1,,,,,,,,,,,,,green,diamond
62.0,1.0,1.0,0.0,1.0,1.0,254.51736300010452,3.0,2.0,phase_1,,,,,,,,,,,,,orange,cross
66.0,5.0,1.0,1.0,2.0,2.0,265.0984230003814,3.0,1.0,phase_1,,,,,,,,,,,,,yellow,I
70.0,5.0,1.0,1.0,3.0,3.0,327.379481999742,3.0,1.0,phase_1,,,,,,,,,,,,,yellow,I
0.0,7.0,0.0,1.0,1.0,1.0,287.557993000064,3.0,1.0,phase_1,,,,,,,,,,,,,gray,triangle
114.0,2.0,2.0,0.0,1.0,1.0,265.0236029999178,3.0,1.0,phase_1,,,,,,,,,,,,,green,diamond
84.0,2.0,2.0,0.0,3.0,3.0,263.7876730000243,3.0,1.0,phase_1,,,,,,,,,,,,,green,diamond
210.0,3.0,3.0,0.0,3.0,3.0,275.3293979999398,3.0,1.0,phase_1,,,,,,,,,,,,,white,hexagon
48.0,1.0,1.0,0.0,1.0,1.0,238.5172550002607,3.0,1.0,phase_1,,,,,,,,,,,,,orange,cross
36.0,1.0,1.0,0.0,3.0,3.0,271.8850569999631,3.0,1.0,phase_1,,,,,,,,,,,,,orange,cross
421.0,8.0,4.0,1.0,1.0,1.0,289.112756999657,3.0,1.0,phase_1,,,,,,,,,,,,,blue,circle
115.0,2.0,2.0,0.0,4.0,4.0,290.5859089996738,3.0,1.0,phase_1,,,,,,,,,,,,,green,diamond
0.0,3.0,0.0,0.0,4.0,4.0,288.5684140001103,3.0,1.0,phase_1,,,,,,,,,,,,,white,hexagon
411.0,4.0,4.0,0.0,1.0,1.0,271.209810000073,3.0,1.0,phase_1,,,,,,,,,,,,,magenta,flipped triangle
0.0,1.0,0.0,0.0,3.0,3.0,282.1664200000668,3.0,1.0,phase_1,,,,,,,,,,,,,orange,cross
78.0,6.0,2.0,1.0,4.0,4.0,331.8969560000369,3.0,1.0,phase_1,,,,,,,,,,,,,cyan,square
389.0,8.0,4.0,1.0,1.0,1.0,364.7329219998028,3.0,1.0,phase_1,,,,,,,,,,,,,blue,circle
36.0,1.0,1.0,0.0,4.0,4.0,419.2173910000747,3.0,1.0,phase_1,,,,,,,,,,,,,orange,cross
423.0,4.0,4.0,0.0,1.0,1.0,290.6530599998405,3.0,1.0,phase_1,,,,,,,,,,,,,magenta,flipped triangle
123.0,2.0,2.0,0.0,4.0,4.0,297.6741790002961,3.0,1.0,phase_1,,,,,,,,,,,,,green,diamond
0.0,8.0,0.0,1.0,2.0,2.0,312.7839000003405,3.0,1.0,phase_1,,,,,,,,,,,,,blue,circle
113.0,6.0,2.0,1.0,3.0,3.0,369.6739790002539,3.0,1.0,phase_1,,,,,,,,,,,,,cyan,square
0.0,6.0,0.0,1.0,1.0,1.0,251.1159509999743,3.0,1.0,phase_1,,,,,,,,,,,,,cyan,square
411.0,8.0,4.0,1.0,2.0,2.0,241.253615000005,3.0,1.0,phase_1,,,,,,,,,,,,,blue,circle
379.0,8.0,4.0,1.0,2.0,2.0,273.6867059998076,3.0,1.0,phase_1,,,,,,,,,,,,,blue,circle
388.0,4.0,4.0,0.0,3.0,3.0,344.1252420002456,3.0,1.0,phase_1,,,,,,,,,,,,,magenta,flipped triangle
214.0,7.0,3.0,1.0,4.0,4.0,250.60529100028361,3.0,1.0,phase_1,,,,,,,,,,,,,gray,triangle
375.0,4.0,4.0,0.0,4.0,4.0,472.247574999983,3.0,1.0,phase_1,,,,,,,,,,,,,magenta,flipped triangle
189.0,7.0,3.0,1.0,2.0,2.0,298.5960709997926,3.0,1.0,phase_1,,,,,,,,,,,,,gray,triangle
390.0,8.0,4.0,1.0,3.0,3.0,297.5242370002888,3.0,1.0,phase_1,,,,,,,,,,,,,blue,circle
390.0,4.0,4.0,0.0,4.0,4.0,291.2935919998745,3.0,1.0,phase_1,,,,,,,,,,,,,magenta,flipped triangle
225.0,3.0,3.0,0.0,4.0,4.0,297.7082509996762,3.0,1.0,phase_1,,,,,,,,,,,,,white,hexagon
0.0,7.0,0.0,1.0,4.0,4.0,336.5230199997313,3.0,1.0,phase_1,,,,,,,,,,,,,gray,triangle
87.0,6.0,2.0,1.0,2.0,2.0,275.7423660000313,3.0,1.0,phase_1,,,,,,,,,,,,,cyan,square
0.0,7.0,0.0,1.0,1.0,1.0,286.037263000253,3.0,1.0,phase_1,,,,,,,,,,,,,gray,triangle
120.0,2.0,2.0,0.0,1.0,1.0,286.2453739999182,3.0,1.0,phase_1,,,,,,,,,,,,,green,diamond
219.0,7.0,3.0,1.0,2.0,2.0,232.9777800000556,3.0,1.0,phase_1,,,,,,,,,,,,,gray,triangle
201.0,7.0,3.0,1.0,3.0,3.0,303.9364329997625,3.0,1.0,phase_1,,,,,,,,,,,,,gray,triangle
382.0,4.0,4.0,0.0,4.0,4.0,367.1322479999617,3.0,1.0,phase_1,,,,,,,,,,,,,magenta,flipped triangle
0.0,5.0,0.0,1.0,2.0,2.0,705.1667979999365,3.0,1.0,phase_1,,,,,,,,,,,,,yellow,I
0.0,1.0,0.0,0.0,2.0,2.0,296.3015730001643,3.0,1.0,phase_1,,,,,,,,,,,,,orange,cross
206.0,3.0,3.0,0.0,4.0,4.0,392.9495880001923,3.0,1.0,phase_1,,,,,,,,,,,,,white,hexagon
75.0,6.0,2.0,1.0,3.0,3.0,490.4548019999311,3.0,3.0,phase_1,,,,,,,,,,,,,cyan,square
125.0,6.0,2.0,1.0,1.0,1.0,252.66786600013802,3.0,1.0,phase_1,,,,,,,,,,,,,cyan,square
0.0,4.0,0.0,0.0,2.0,2.0,254.32756600002898,3.0,1.0,phase_1,,,,,,,,,,,,,magenta,flipped triangle
58.0,1.0,1.0,0.0,3.0,3.0,262.608012000328,3.0,1.0,phase_1,,,,,,,,,,,,,orange,cross
36.0,5.0,1.0,1.0,4.0,4.0,330.7831689999148,3.0,1.0,phase_1,,,,,,,,,,,,,yellow,I
63.0,5.0,1.0,1.0,2.0,2.0,248.1567840000025,3.0,1.0,phase_1,,,,,,,,,,,,,yellow,I
383.0,4.0,4.0,0.0,2.0,2.0,252.9406110002128,3.0,1.0,phase_1,,,,,,,,,,,,,magenta,flipped triangle
225.0,3.0,3.0,0.0,1.0,1.0,314.1772650001257,3.0,1.0,phase_1,,,,,,,,,,,,,white,hexagon
67.0,1.0,1.0,0.0,2.0,2.0,304.1201159999218,3.0,1.0,phase_1,,,,,,,,,,,,,orange,cross
413.0,4.0,4.0,0.0,1.0,1.0,307.1983280001404,3.0,1.0,phase_1,,,,,,,,,,,,,magenta,flipped triangle
61.0,5.0,1.0,1.0,4.0,4.0,343.2519610000781,3.0,1.0,phase_1,,,,,,,,,,,,,yellow,I
217.0,7.0,3.0,1.0,2.0,2.0,260.8538919998864,3.0,1.0,phase_1,,,,,,,,,,,,,gray,triangle
225.0,7.0,3.0,1.0,4.0,4.0,352.3471509997762,3.0,1.0,phase_1,,,,,,,,,,,,,gray,triangle
380.0,8.0,4.0,1.0,4.0,4.0,300.183723000373,3.0,1.0,phase_1,,,,,,,,,,,,,blue,circle
204.0,3.0,3.0,0.0,3.0,3.0,319.1600810000636,3.0,1.0,phase_1,,,,,,,,,,,,,white,hexagon
36.0,1.0,1.0,0.0,1.0,1.0,371.04447599995177,3.0,1.0,phase_1,,,,,,,,,,,,,orange,cross
389.0,4.0,4.0,0.0,4.0,4.0,268.297039999652,3.0,1.0,phase_1,,,,,,,,,,,,,magenta,flipped triangle
209.0,7.0,3.0,1.0,1.0,1.0,263.7076989999514,3.0,1.0,phase_1,,,,,,,,,,,,,gray,triangle
180.0,3.0,3.0,0.0,2.0,2.0,314.435599999797,3.0,1.0,phase_1,,,,,,,,,,,,,white,hexagon
410.0,4.0,4.0,0.0,1.0,1.0,362.2921219998716,3.0,1.0,phase_1,,,,,,,,,,,,,magenta,flipped triangle
113.0,2.0,2.0,0.0,2.0,2.0,257.399691000046,3.0,1.0,phase_1,,,,,,,,,,,,,green,diamond
393.0,8.0,4.0,1.0,1.0,1.0,285.4347839997899,3.0,1.0,phase_1,,,,,,,,,,,,,blue,circle
0.0,6.0,0.0,1.0,3.0,3.0,295.0073379997775,3.0,1.0,phase_1,,,,,,,,,,,,,cyan,square
0.0,8.0,0.0,1.0,4.0,4.0,281.8879550000019,3.0,1.0,phase_1,,,,,,,,,,,,,blue,circle
400.0,4.0,4.0,0.0,1.0,1.0,300.6246529998861,3.0,1.0,phase_1,,,,,,,,,,,,,magenta,flipped triangle
124.0,2.0,2.0,0.0,3.0,3.0,331.0574459997042,3.0,1.0,phase_1,,,,,,,,,,,,,green,diamond
176.0,7.0,3.0,1.0,2.0,2.0,260.796001000017,3.0,1.0,phase_1,,,,,,,,,,,,,gray,triangle
175.0,7.0,3.0,1.0,1.0,1.0,562.3939370002518,3.0,1.0,phase_1,,,,,,,,,,,,,gray,triangle
0.0,1.0,0.0,0.0,2.0,2.0,660.4065169999558,3.0,1.0,phase_1,,,,,,,,,,,,,orange,cross
100.0,2.0,2.0,0.0,2.0,2.0,441.7963640003108,3.0,1.0,phase_1,,,,,,,,,,,,,green,diamond
93.0,6.0,2.0,1.0,2.0,2.0,313.5462589998496,3.0,1.0,phase_1,,,,,,,,,,,,,cyan,square
200.0,3.0,3.0,0.0,3.0,3.0,404.0530860002036,3.0,1.0,phase_1,,,,,,,,,,,,,white,hexagon
0.0,7.0,0.0,1.0,4.0,4.0,304.7020140002132,3.0,1.0,phase_1,,,,,,,,,,,,,gray,triangle
82.0,2.0,2.0,0.0,2.0,2.0,278.0804140002146,3.0,1.0,phase_1,,,,,,,,,,,,,green,diamond
93.0,2.0,2.0,0.0,2.0,2.0,255.67834699995728,3.0,1.0,phase_1,,,,,,,,,,,,,green,diamond
124.0,6.0,2.0,1.0,2.0,2.0,290.6457199997021,3.0,1.0,phase_1,,,,,,,,,,,,,cyan,square
92.0,2.0,2.0,0.0,2.0,2.0,269.1330580000795,3.0,1.0,phase_1,,,,,,,,,,,,,green,diamond
67.0,1.0,1.0,0.0,1.0,1.0,271.4419720000478,3.0,1.0,phase_1,,,,,,,,,,,,,orange,cross
123.0,6.0,2.0,1.0,1.0,1.0,264.2043310002009,3.0,1.0,phase_1,,,,,,,,,,,,,cyan,square
84.0,6.0,2.0,1.0,3.0,3.0,293.3880509999653,3.0,1.0,phase_1,,,,,,,,,,,,,cyan,square
0.0,8.0,0.0,1.0,4.0,4.0,273.6813739998069,3.0,1.0,phase_1,,,,,,,,,,,,,blue,circle
176.0,3.0,3.0,0.0,1.0,1.0,512.6154939998742,3.0,1.0,phase_1,,,,,,,,,,,,,white,hexagon
0.0,2.0,0.0,0.0,1.0,1.0,360.4357210001581,3.0,1.0,phase_1,,,,,,,,,,,,,green,diamond
185.0,7.0,3.0,1.0,4.0,4.0,438.9605860001211,3.0,1.0,phase_1,,,,,,,,,,,,,gray,triangle
27.0,5.0,1.0,1.0,2.0,2.0,317.3024310003711,3.0,1.0,phase_1,,,,,,,,,,,,,yellow,I
58.0,5.0,1.0,1.0,3.0,3.0,301.5648350001356,3.0,1.0,phase_1,,,,,,,,,,,,,yellow,I
0.0,3.0,0.0,0.0,2.0,2.0,386.4548080000531,3.0,1.0,phase_1,,,,,,,,,,,,,white,hexagon
377.0,4.0,4.0,0.0,3.0,3.0,356.7652029996679,3.0,1.0,phase_1,,,,,,,,,,,,,magenta,flipped triangle
209.0,3.0,3.0,0.0,1.0,1.0,510.5895880001299,3.0,1.0,phase_1,,,,,,,,,,,,,white,hexagon
385.0,8.0,4.0,1.0,3.0,3.0,290.4914179998741,3.0,2.0,phase_1,,,,,,,,,,,,,blue,circle
36.0,1.0,1.0,0.0,4.0,4.0,261.9761949999883,3.0,1.0,phase_1,,,,,,,,,,,,,orange,cross
0.0,4.0,0.0,0.0,4.0,4.0,310.7265520002329,3.0,1.0,phase_1,,,,,,,,,,,,,magenta,flipped triangle
55.0,1.0,1.0,0.0,1.0,1.0,257.4946400000044,3.0,1.0,phase_1,,,,,,,,,,,,,orange,cross
0.0,4.0,0.0,0.0,4.0,4.0,276.2374660001114,3.0,1.0,phase_1,,,,,,,,,,,,,magenta,flipped triangle
116.0,2.0,2.0,0.0,3.0,3.0,393.5554180002327,4.0,1.0,phase_1,,,,,,,,,,,,,green,diamond
176.0,3.0,3.0,0.0,4.0,4.0,281.7533380002714,4.0,1.0,phase_1,,,,,,,,,,,,,white,hexagon
0.0,3.0,0.0,0.0,1.0,1.0,252.68254999991768,4.0,1.0,phase_1,,,,,,,,,,,,,white,hexagon
108.0,6.0,2.0,1.0,4.0,4.0,279.3991640000968,4.0,1.0,phase_1,,,,,,,,,,,,,cyan,square
36.0,5.0,1.0,1.0,3.0,3.0,272.7348950002124,4.0,1.0,phase_1,,,,,,,,,,,,,yellow,I
383.0,8.0,4.0,1.0,3.0,3.0,252.90067900004942,4.0,1.0,phase_1,,,,,,,,,,,,,blue,circle
191.0,7.0,3.0,1.0,3.0,3.0,272.2379689998888,4.0,1.0,phase_1,,,,,,,,,,,,,gray,triangle
112.0,6.0,2.0,1.0,3.0,3.0,244.5364010000048,4.0,1.0,phase_1,,,,,,,,,,,,,cyan,square
116.0,2.0,2.0,0.0,3.0,3.0,294.012081999881,4.0,1.0,phase_1,,,,,,,,,,,,,green,diamond
415.0,4.0,4.0,0.0,2.0,2.0,281.9596799999999,4.0,1.0,phase_1,,,,,,,,,,,,,magenta,flipped triangle
217.0,3.0,3.0,0.0,2.0,2.0,285.9107799999947,4.0,1.0,phase_1,,,,,,,,,,,,,white,hexagon
30.0,5.0,1.0,1.0,1.0,1.0,298.9070819999142,4.0,1.0,phase_1,,,,,,,,,,,,,yellow,I
396.0,4.0,4.0,0.0,3.0,3.0,273.5470479997275,4.0,1.0,phase_1,,,,,,,,,,,,,magenta,flipped triangle
420.0,8.0,4.0,1.0,4.0,4.0,370.3001009998843,4.0,1.0,phase_1,,,,,,,,,,,,,blue,circle
41.0,1.0,1.0,0.0,2.0,2.0,365.1756949998344,4.0,1.0,phase_1,,,,,,,,,,,,,orange,cross
0.0,2.0,0.0,0.0,2.0,2.0,264.0684309999415,4.0,1.0,phase_1,,,,,,,,,,,,,green,diamond
189.0,3.0,3.0,0.0,1.0,1.0,323.820968000291,4.0,2.0,phase_1,,,,,,,,,,,,,white,hexagon
100.0,6.0,2.0,1.0,4.0,4.0,374.9655530000382,4.0,1.0,phase_1,,,,,,,,,,,,,cyan,square
199.0,3.0,3.0,0.0,1.0,1.0,252.36598599985882,4.0,1.0,phase_1,,,,,,,,,,,,,white,hexagon
201.0,3.0,3.0,0.0,2.0,2.0,258.629983999981,4.0,1.0,phase_1,,,,,,,,,,,,,white,hexagon
203.0,7.0,3.0,1.0,3.0,3.0,291.9619539998166,4.0,2.0,phase_1,,,,,,,,,,,,,gray,triangle
0.0,3.0,0.0,0.0,3.0,3.0,308.9917110000897,4.0,1.0,phase_1,,,,,,,,,,,,,white,hexagon
118.0,6.0,2.0,1.0,4.0,4.0,346.45002499974,4.0,1.0,phase_1,,,,,,,,,,,,,cyan,square
98.0,2.0,2.0,0.0,4.0,4.0,373.0121640001016,4.0,1.0,phase_1,,,,,,,,,,,,,green,diamond
83.0,6.0,2.0,1.0,2.0,2.0,272.1669389998169,4.0,1.0,phase_1,,,,,,,,,,,,,cyan,square
184.0,3.0,3.0,0.0,1.0,1.0,300.7031219999589,4.0,1.0,phase_1,,,,,,,,,,,,,white,hexagon
0.0,4.0,0.0,0.0,1.0,1.0,406.7659110000932,4.0,1.0,phase_1,,,,,,,,,,,,,magenta,flipped triangle
393.0,4.0,4.0,0.0,2.0,2.0,292.4707899996974,4.0,1.0,phase_1,,,,,,,,,,,,,magenta,flipped triangle
41.0,5.0,1.0,1.0,2.0,2.0,369.6022909998646,4.0,1.0,phase_1,,,,,,,,,,,,,yellow,I
380.0,8.0,4.0,1.0,1.0,1.0,283.5930690002897,4.0,1.0,phase_1,,,,,,,,,,,,,blue,circle
0.0,1.0,0.0,0.0,3.0,3.0,288.8340889999199,4.0,2.0,phase_1,,,,,,,,,,,,,orange,cross
61.0,5.0,1.0,1.0,1.0,1.0,278.6059069999282,4.0,1.0,phase_1,,,,,,,,,,,,,yellow,I
224.0,7.0,3.0,1.0,3.0,3.0,311.9479779998073,4.0,1.0,phase_1,,,,,,,,,,,,,gray,triangle
0.0,5.0,0.0,1.0,1.0,1.0,298.37932800001,4.0,2.0,phase_1,,,,,,,,,,,,,yellow,I
183.0,7.0,3.0,1.0,4.0,4.0,549.3146879998676,4.0,1.0,phase_1,,,,,,,,,,,,,gray,triangle
183.0,7.0,3.0,1.0,4.0,4.0,470.937344000049,4.0,1.0,phase_1,,,,,,,,,,,,,gray,triangle
0.0,1.0,0.0,0.0,3.0,3.0,303.0266099999608,4.0,1.0,phase_1,,,,,,,,,,,,,orange,cross
88.0,2.0,2.0,0.0,2.0,2.0,295.885422000083,4.0,1.0,phase_1,,,,,,,,,,,,,green,diamond
379.0,4.0,4.0,0.0,1.0,1.0,284.6525509999082,4.0,1.0,phase_1,,,,,,,,,,,,,magenta,flipped triangle
201.0,3.0,3.0,0.0,3.0,3.0,293.4673950003343,4.0,1.0,phase_1,,,,,,,,,,,,,white,hexagon
0.0,6.0,0.0,1.0,3.0,3.0,305.9895260003031,4.0,1.0,phase_1,,,,,,,,,,,,,cyan,square
77.0,6.0,2.0,1.0,4.0,4.0,399.6137549997911,4.0,1.0,phase_1,,,,,,,,,,,,,cyan,square
88.0,6.0,2.0,1.0,1.0,1.0,284.853280000334,4.0,1.0,phase_1,,,,,,,,,,,,,cyan,square
83.0,2.0,2.0,0.0,2.0,2.0,414.5679360003669,4.0,1.0,phase_1,,,,,,,,,,,,,green,diamond
420.0,4.0,4.0,0.0,4.0,4.0,588.0913400001191,4.0,1.0,phase_1,,,,,,,,,,,,,magenta,flipped triangle
213.0,3.0,3.0,0.0,4.0,4.0,302.7671609997924,4.0,1.0,phase_1,,,,,,,,,,,,,white,hexagon
47.0,5.0,1.0,1.0,3.0,3.0,338.1242800001018,4.0,1.0,phase_1,,,,,,,,,,,,,yellow,I
392.0,4.0,4.0,0.0,3.0,3.0,397.8387619999921,4.0,1.0,phase_1,,,,,,,,,,,,,magenta,flipped triangle
94.0,6.0,2.0,1.0,1.0,1.0,322.1887740000966,4.0,2.0,phase_1,,,,,,,,,,,,,cyan,square
219.0,3.0,3.0,0.0,2.0,2.0,283.9509870000256,4.0,1.0,phase_1,,,,,,,,,,,,,white,hexagon
114.0,6.0,2.0,1.0,2.0,2.0,258.6690420002924,4.0,1.0,phase_1,,,,,,,,,,,,,cyan,square
25.0,1.0,1.0,0.0,3.0,3.0,316.9195279997439,4.0,1.0,phase_1,,,,,,,,,,,,,orange,cross
62.0,5.0,1.0,1.0,4.0,4.0,288.8917319996835,4.0,2.0,phase_1,,,,,,,,,,,,,yellow,I
47.0,1.0,1.0,0.0,1.0,1.0,318.8876750000418,4.0,1.0,phase_1,,,,,,,,,,,,,orange,cross
0.0,3.0,0.0,0.0,4.0,4.0,350.9499399997366,4.0,1.0,phase_1,,,,,,,,,,,,,white,hexagon
185.0,7.0,3.0,1.0,3.0,3.0,322.0784660002209,4.0,1.0,phase_1,,,,,,,,,,,,,gray,triangle
191.0,7.0,3.0,1.0,1.0,1.0,301.2162079999143,4.0,1.0,phase_1,,,,,,,,,,,,,gray,triangle
0.0,8.0,0.0,1.0,2.0,2.0,275.3184899997904,4.0,1.0,phase_1,,,,,,,,,,,,,blue,circle
54.0,1.0,1.0,0.0,4.0,4.0,394.7591699998156,4.0,1.0,phase_1,,,,,,,,,,,,,orange,cross
0.0,3.0,0.0,0.0,4.0,4.0,308.1480989999363,4.0,1.0,phase_1,,,,,,,,,,,,,white,hexagon
82.0,6.0,2.0,1.0,4.0,4.0,385.1942840001356,4.0,2.0,phase_1,,,,,,,,,,,,,cyan,square
204.0,7.0,3.0,1.0,1.0,1.0,297.8420979998191,4.0,1.0,phase_1,,,,,,,,,,,,,gray,triangle
97.0,2.0,2.0,0.0,4.0,4.0,312.9387569997561,4.0,1.0,phase_1,,,,,,,,,,,,,green,diamond
45.0,1.0,1.0,0.0,2.0,2.0,232.683826000084,4.0,1.0,phase_1,,,,,,,,,,,,,orange,cross
111.0,2.0,2.0,0.0,2.0,2.0,279.3227239999396,4.0,1.0,phase_1,,,,,,,,,,,,,green,diamond
52.0,1.0,1.0,0.0,4.0,4.0,290.5371649999324,4.0,1.0,phase_1,,,,,,,,,,,,,orange,cross
405.0,8.0,4.0,1.0,1.0,1.0,302.7629939997496,4.0,3.0,phase_1,,,,,,,,,,,,,blue,circle
0.0,3.0,0.0,0.0,1.0,1.0,276.6242190000412,4.0,1.0,phase_1,,,,,,,,,,,,,white,hexagon
105.0,6.0,2.0,1.0,1.0,1.0,308.2100709998485,4.0,1.0,phase_1,,,,,,,,,,,,,cyan,square
422.0,4.0,4.0,0.0,3.0,3.0,345.353538999916,4.0,1.0,phase_1,,,,,,,,,,,,,magenta,flipped triangle
198.0,7.0,3.0,1.0,4.0,4.0,306.535463000273,4.0,1.0,phase_1,,,,,,,,,,,,,gray,triangle
32.0,1.0,1.0,0.0,3.0,3.0,331.8560939997041,4.0,1.0,phase_1,,,,,,,,,,,,,orange,cross
189.0,3.0,3.0,0.0,2.0,2.0,247.4896080002508,4.0,1.0,phase_1,,,,,,,,,,,,,white,hexagon
105.0,2.0,2.0,0.0,1.0,1.0,280.2118589997917,4.0,1.0,phase_1,,,,,,,,,,,,,green,diamond
407.0,4.0,4.0,0.0,3.0,3.0,288.5488009997061,4.0,1.0,phase_1,,,,,,,,,,,,,magenta,flipped triangle
220.0,7.0,3.0,1.0,1.0,1.0,302.0049070000823,4.0,1.0,phase_1,,,,,,,,,,,,,gray,triangle
43.0,1.0,1.0,0.0,3.0,3.0,276.6221780002524,4.0,1.0,phase_1,,,,,,,,,,,,,orange,cross
108.0,2.0,2.0,0.0,1.0,1.0,508.62538100000165,4.0,1.0,phase_1,,,,,,,,,,,,,green,diamond
184.0,7.0,3.0,1.0,1.0,1.0,577.1925849999207,4.0,1.0,phase_1,,,,,,,,,,,,,gray,triangle
67.0,5.0,1.0,1.0,4.0,4.0,312.3480019999078,4.0,1.0,phase_1,,,,,,,,,,,,,yellow,I
377.0,8.0,4.0,1.0,1.0,1.0,250.11973500022577,4.0,1.0,phase_1,,,,,,,,,,,,,blue,circle
36.0,5.0,1.0,1.0,1.0,1.0,266.6621779999332,4.0,1.0,phase_1,,,,,,,,,,,,,yellow,I
0.0,2.0,0.0,0.0,3.0,3.0,357.7090419998967,4.0,1.0,phase_1,,,,,,,,,,,,,green,diamond
407.0,4.0,4.0,0.0,4.0,4.0,353.8241260002905,4.0,2.0,phase_1,,,,,,,,,,,,,magenta,flipped triangle
392.0,8.0,4.0,1.0,1.0,1.0,338.8482210002621,4.0,1.0,phase_1,,,,,,,,,,,,,blue,circle
405.0,4.0,4.0,0.0,2.0,2.0,345.8317740000893,4.0,1.0,phase_1,,,,,,,,,,,,,magenta,flipped triangle
0.0,7.0,0.0,1.0,2.0,2.0,357.3557990002882,4.0,1.0,phase_1,,,,,,,,,,,,,gray,triangle
0.0,2.0,0.0,0.0,3.0,3.0,324.7416929998508,4.0,2.0,phase_1,,,,,,,,,,,,,green,diamond
218.0,7.0,3.0,1.0,4.0,4.0,388.3237099998951,4.0,1.0,phase_1,,,,,,,,,,,,,gray,triangle
0.0,4.0,0.0,0.0,1.0,1.0,280.9393210000053,4.0,1.0,phase_1,,,,,,,,,,,,,magenta,flipped triangle
71.0,5.0,1.0,1.0,4.0,4.0,376.6738050003368,4.0,1.0,phase_1,,,,,,,,,,,,,yellow,I
390.0,4.0,4.0,0.0,1.0,1.0,327.9370790000939,4.0,1.0,phase_1,,,,,,,,,,,,,magenta,flipped triangle
417.0,4.0,4.0,0.0,4.0,4.0,466.5864610001335,4.0,1.0,phase_1,,,,,,,,,,,,,magenta,flipped triangle
48.0,5.0,1.0,1.0,1.0,1.0,308.2413739998628,4.0,2.0,phase_1,,,,,,,,,,,,,yellow,I
0.0,4.0,0.0,0.0,1.0,1.0,233.9730710000367,4.0,1.0,phase_1,,,,,,,,,,,,,magenta,flipped triangle
206.0,7.0,3.0,1.0,1.0,1.0,273.3601969998744,4.0,1.0,phase_1,,,,,,,,,,,,,gray,triangle
0.0,7.0,0.0,1.0,4.0,4.0,311.2919929999407,4.0,2.0,phase_1,,,,,,,,,,,,,gray,triangle
66.0,1.0,1.0,0.0,4.0,4.0,327.4702009994144,4.0,1.0,phase_1,,,,,,,,,,,,,orange,cross
52.0,1.0,1.0,0.0,1.0,1.0,357.7228630001627,4.0,1.0,phase_1,,,,,,,,,,,,,orange,cross
63.0,1.0,1.0,0.0,1.0,1.0,295.8987629999683,4.0,2.0,phase_1,,,,,,,,,,,,,orange,cross
0.0,8.0,4.0,1.0,5.0,1.0,408.2765499997549,1.0,1.0,phase_2,stop,250.0,250.0,3.0,,,,,,,,,blue,circle
0.0,7.0,3.0,1.0,5.0,5.0,340.9544209998785,1.0,1.0,phase_2,stop,200.0,250.0,3.0,,,,,,,,,gray,triangle
0.0,8.0,4.0,1.0,5.0,0.0,0.0,1.0,1.0,phase_2,stop,150.0,250.0,4.0,,,,,,,,,blue,circle
0.0,8.0,4.0,1.0,5.0,5.0,361.8270400002075,1.0,1.0,phase_2,go,200.0,250.0,1.0,,,,,,,,,blue,circle
0.0,4.0,4.0,0.0,6.0,6.0,356.07763799998787,1.0,1.0,phase_2,go,200.0,250.0,1.0,,,,,,,,,magenta,flipped triangle
0.0,3.0,3.0,0.0,5.0,5.0,495.3543170004195,1.0,1.0,phase_2,go,200.0,250.0,1.0,,,,,,,,,white,hexagon
0.0,5.0,1.0,1.0,5.0,5.0,321.6104789999008,1.0,1.0,phase_2,stop,200.0,250.0,3.0,,,,,,,,,yellow,I
0.0,7.0,3.0,1.0,6.0,0.0,0.0,1.0,1.0,phase_2,stop,150.0,250.0,4.0,,,,,,,,,gray,triangle
0.0,3.0,3.0,0.0,6.0,6.0,414.8517350004113,1.0,1.0,phase_2,go,150.0,300.0,1.0,,,,,,,,,white,hexagon
0.0,7.0,3.0,1.0,6.0,0.0,0.0,1.0,1.0,phase_2,stop,150.0,300.0,4.0,,,,,,,,,gray,triangle
0.0,7.0,3.0,1.0,6.0,0.0,0.0,1.0,1.0,phase_2,stop,150.0,350.0,4.0,,,,,,,,,gray,triangle
0.0,2.0,2.0,0.0,6.0,6.0,525.9438069997486,1.0,1.0,phase_2,go,150.0,400.0,1.0,,,,,,,,,green,diamond
0.0,5.0,1.0,1.0,5.0,0.0,0.0,1.0,1.0,phase_2,stop,150.0,400.0,4.0,,,,,,,,,yellow,I
0.0,4.0,4.0,0.0,6.0,6.0,494.132669999999,1.0,1.0,phase_2,go,200.0,400.0,1.0,,,,,,,,,magenta,flipped triangle
0.0,1.0,1.0,0.0,5.0,5.0,517.5143520000347,1.0,1.0,phase_2,go,200.0,400.0,1.0,,,,,,,,,orange,cross
0.0,6.0,2.0,1.0,6.0,6.0,461.9137120007508,1.0,1.0,phase_2,stop,200.0,400.0,3.0,,,,,,,,,cyan,square
0.0,7.0,3.0,1.0,5.0,5.0,624.962222999784,1.0,1.0,phase_2,go,200.0,350.0,1.0,,,,,,,,,gray,triangle
0.0,5.0,1.0,1.0,5.0,5.0,315.1626960006979,1.0,1.0,phase_2,stop,200.0,350.0,3.0,,,,,,,,,yellow,I
0.0,6.0,2.0,1.0,6.0,6.0,330.8450320000702,1.0,1.0,phase_2,stop,150.0,350.0,3.0,,,,,,,,,cyan,square
0.0,5.0,1.0,1.0,6.0,0.0,0.0,1.0,1.0,phase_2,stop,150.0,300.0,4.0,,,,,,,,,yellow,I
0.0,3.0,3.0,0.0,6.0,6.0,668.465001000186,1.0,1.0,phase_2,go,150.0,350.0,1.0,,,,,,,,,white,hexagon
0.0,6.0,2.0,1.0,6.0,6.0,588.4241909998309,1.0,1.0,phase_2,go,150.0,350.0,1.0,,,,,,,,,cyan,square
0.0,2.0,2.0,0.0,6.0,6.0,325.6266259995755,1.0,1.0,phase_2,go,150.0,350.0,1.0,,,,,,,,,green,diamond
0.0,8.0,4.0,1.0,5.0,0.0,0.0,1.0,1.0,phase_2,stop,150.0,350.0,4.0,,,,,,,,,blue,circle
0.0,1.0,1.0,0.0,6.0,6.0,288.7131690004025,1.0,1.0,phase_2,go,200.0,350.0,1.0,,,,,,,,,orange,cross
0.0,1.0,1.0,0.0,6.0,6.0,674.6308520005186,1.0,1.0,phase_2,go,200.0,350.0,1.0,,,,,,,,,orange,cross
0.0,1.0,1.0,0.0,6.0,6.0,550.8487669994793,1.0,1.0,phase_2,go,200.0,350.0,1.0,,,,,,,,,orange,cross
0.0,8.0,4.0,1.0,6.0,6.0,526.594902999932,1.0,1.0,phase_2,go,200.0,350.0,1.0,,,,,,,,,blue,circle
0.0,8.0,4.0,1.0,5.0,0.0,0.0,1.0,1.0,phase_2,stop,200.0,350.0,4.0,,,,,,,,,blue,circle
0.0,1.0,1.0,0.0,6.0,6.0,485.4737810001097,1.0,1.0,phase_2,go,250.0,350.0,1.0,,,,,,,,,orange,cross
0.0,4.0,4.0,0.0,6.0,6.0,493.8258689999202,1.0,1.0,phase_2,go,250.0,350.0,1.0,,,,,,,,,magenta,flipped triangle
0.0,3.0,3.0,0.0,6.0,6.0,317.1808430006422,1.0,1.0,phase_2,go,250.0,350.0,1.0,,,,,,,,,white,hexagon
0.0,7.0,3.0,1.0,5.0,0.0,0.0,1.0,1.0,phase_2,stop,250.0,350.0,4.0,,,,,,,,,gray,triangle
0.0,2.0,2.0,0.0,5.0,5.0,403.4384059996228,1.0,1.0,phase_2,go,300.0,350.0,1.0,,,,,,,,,green,diamond
0.0,8.0,4.0,1.0,6.0,0.0,0.0,1.0,1.0,phase_2,stop,300.0,350.0,4.0,,,,,,,,,blue,circle
0.0,6.0,2.0,1.0,5.0,5.0,827.200028000334,1.0,1.0,phase_2,go,300.0,400.0,1.0,,,,,,,,,cyan,square
0.0,5.0,1.0,1.0,6.0,6.0,1031.3783289993808,2.0,1.0,phase_2,go,300.0,400.0,1.0,,,,,,,,,yellow,I
0.0,1.0,1.0,0.0,6.0,6.0,390.4527430004236,2.0,1.0,phase_2,go,300.0,400.0,1.0,,,,,,,,,orange,cross
0.0,6.0,2.0,1.0,5.0,0.0,0.0,2.0,1.0,phase_2,stop,300.0,400.0,4.0,,,,,,,,,cyan,square
0.0,2.0,2.0,0.0,5.0,5.0,443.7113320000208,2.0,1.0,phase_2,go,350.0,400.0,1.0,,,,,,,,,green,diamond
0.0,4.0,4.0,0.0,5.0,5.0,365.9548759997051,2.0,1.0,phase_2,go,350.0,400.0,1.0,,,,,,,,,magenta,flipped triangle
0.0,5.0,1.0,1.0,6.0,6.0,453.4519799999543,2.0,1.0,phase_2,go,350.0,400.0,1.0,,,,,,,,,yellow,I
0.0,3.0,3.0,0.0,6.0,6.0,395.5968299997039,2.0,1.0,phase_2,go,350.0,400.0,1.0,,,,,,,,,white,hexagon
0.0,4.0,4.0,0.0,5.0,5.0,333.9965109998957,2.0,1.0,phase_2,go,350.0,400.0,1.0,,,,,,,,,magenta,flipped triangle
0.0,3.0,3.0,0.0,6.0,6.0,308.3054879998599,2.0,1.0,phase_2,go,350.0,400.0,1.0,,,,,,,,,white,hexagon
0.0,3.0,3.0,0.0,5.0,5.0,433.461096999963,2.0,1.0,phase_2,go,350.0,400.0,1.0,,,,,,,,,white,hexagon
0.0,5.0,1.0,1.0,6.0,6.0,440.0158689995805,2.0,1.0,phase_2,stop,350.0,400.0,3.0,,,,,,,,,yellow,I
0.0,2.0,2.0,0.0,5.0,5.0,607.3760460003541,2.0,1.0,phase_2,go,350.0,350.0,1.0,,,,,,,,,green,diamond
0.0,2.0,2.0,0.0,5.0,5.0,384.0254629994888,2.0,1.0,phase_2,go,350.0,350.0,1.0,,,,,,,,,green,diamond
0.0,3.0,3.0,0.0,5.0,5.0,350.0649890002023,2.0,1.0,phase_2,go,350.0,350.0,1.0,,,,,,,,,white,hexagon
0.0,3.0,3.0,0.0,5.0,5.0,349.583772999722,2.0,1.0,phase_2,go,350.0,350.0,1.0,,,,,,,,,white,hexagon
0.0,3.0,3.0,0.0,6.0,6.0,425.7982019998962,2.0,1.0,phase_2,go,350.0,350.0,1.0,,,,,,,,,white,hexagon
0.0,8.0,4.0,1.0,6.0,6.0,558.9449160006552,2.0,1.0,phase_2,stop,350.0,350.0,3.0,,,,,,,,,blue,circle
0.0,3.0,3.0,0.0,6.0,6.0,552.9708520007262,2.0,1.0,phase_2,go,350.0,300.0,1.0,,,,,,,,,white,hexagon
0.0,7.0,3.0,1.0,6.0,0.0,0.0,2.0,1.0,phase_2,stop,350.0,300.0,4.0,,,,,,,,,gray,triangle
0.0,4.0,4.0,0.0,5.0,5.0,460.0131549996149,2.0,1.0,phase_2,go,350.0,350.0,1.0,,,,,,,,,magenta,flipped triangle
0.0,6.0,2.0,1.0,6.0,0.0,0.0,2.0,1.0,phase_2,stop,350.0,350.0,4.0,,,,,,,,,cyan,square
0.0,6.0,2.0,1.0,5.0,0.0,0.0,2.0,1.0,phase_2,stop,350.0,400.0,4.0,,,,,,,,,cyan,square
0.0,2.0,2.0,0.0,5.0,5.0,636.927086000469,2.0,1.0,phase_2,go,400.0,400.0,1.0,,,,,,,,,green,diamond
0.0,8.0,4.0,1.0,5.0,5.0,455.1932419999502,2.0,1.0,phase_2,stop,400.0,400.0,3.0,,,,,,,,,blue,circle
0.0,4.0,4.0,0.0,6.0,6.0,766.549338999539,2.0,1.0,phase_2,go,350.0,400.0,1.0,,,,,,,,,magenta,flipped triangle
0.0,3.0,3.0,0.0,6.0,6.0,334.0149670002574,2.0,1.0,phase_2,go,350.0,400.0,1.0,,,,,,,,,white,hexagon
0.0,4.0,4.0,0.0,6.0,6.0,642.1119540000291,2.0,1.0,phase_2,go,350.0,400.0,1.0,,,,,,,,,magenta,flipped triangle
0.0,5.0,1.0,1.0,5.0,5.0,642.0769740007017,2.0,1.0,phase_2,stop,350.0,400.0,3.0,,,,,,,,,yellow,I
0.0,3.0,3.0,0.0,6.0,6.0,485.5644130002474,2.0,1.0,phase_2,go,300.0,400.0,1.0,,,,,,,,,white,hexagon
0.0,6.0,2.0,1.0,5.0,5.0,531.6781900000933,2.0,1.0,phase_2,go,300.0,400.0,1.0,,,,,,,,,cyan,square
0.0,4.0,4.0,0.0,6.0,6.0,321.9619349993081,2.0,1.0,phase_2,go,300.0,400.0,1.0,,,,,,,,,magenta,flipped triangle
0.0,8.0,4.0,1.0,5.0,5.0,331.6346809997412,2.0,1.0,phase_2,stop,300.0,400.0,3.0,,,,,,,,,blue,circle
0.0,7.0,3.0,1.0,6.0,0.0,0.0,2.0,1.0,phase_2,stop,250.0,400.0,4.0,,,,,,,,,gray,triangle
0.0,7.0,3.0,1.0,6.0,6.0,637.5804469998911,2.0,1.0,phase_2,go,250.0,450.0,1.0,,,,,,,,,gray,triangle
0.0,8.0,4.0,1.0,5.0,0.0,0.0,2.0,1.0,phase_2,stop,250.0,450.0,4.0,,,,,,,,,blue,circle
0.0,2.0,2.0,0.0,6.0,6.0,308.908558999974,2.0,1.0,phase_2,go,300.0,450.0,1.0,,,,,,,,,green,diamond
0.0,5.0,1.0,1.0,5.0,0.0,0.0,3.0,1.0,phase_2,stop,300.0,450.0,4.0,,,,,,,,,yellow,I
0.0,4.0,4.0,0.0,5.0,5.0,407.3908529999244,3.0,1.0,phase_2,go,350.0,450.0,1.0,,,,,,,,,magenta,flipped triangle
0.0,1.0,1.0,0.0,5.0,5.0,659.4312220004213,3.0,1.0,phase_2,go,350.0,450.0,1.0,,,,,,,,,orange,cross
0.0,5.0,1.0,1.0,5.0,5.0,417.4235179998504,3.0,1.0,phase_2,go,350.0,450.0,1.0,,,,,,,,,yellow,I
0.0,8.0,4.0,1.0,6.0,6.0,552.2484289995191,3.0,1.0,phase_2,stop,350.0,450.0,3.0,,,,,,,,,blue,circle
0.0,6.0,2.0,1.0,6.0,6.0,495.9151789998941,3.0,1.0,phase_2,go,350.0,400.0,1.0,,,,,,,,,cyan,square
0.0,1.0,1.0,0.0,5.0,5.0,713.0302830000801,3.0,1.0,phase_2,go,350.0,400.0,1.0,,,,,,,,,orange,cross
0.0,3.0,3.0,0.0,5.0,5.0,560.5546930000855,3.0,1.0,phase_2,go,350.0,400.0,1.0,,,,,,,,,white,hexagon
0.0,4.0,4.0,0.0,6.0,6.0,416.6388230005395,3.0,1.0,phase_2,go,350.0,400.0,1.0,,,,,,,,,magenta,flipped triangle
0.0,2.0,2.0,0.0,6.0,6.0,425.7804950002537,3.0,1.0,phase_2,go,350.0,400.0,1.0,,,,,,,,,green,diamond
0.0,7.0,3.0,1.0,5.0,5.0,407.0602350002446,3.0,1.0,phase_2,stop,350.0,400.0,3.0,,,,,,,,,gray,triangle
0.0,3.0,3.0,0.0,5.0,5.0,353.7643519994162,3.0,1.0,phase_2,go,300.0,400.0,1.0,,,,,,,,,white,hexagon
0.0,1.0,1.0,0.0,6.0,6.0,488.8671910002813,3.0,1.0,phase_2,go,300.0,400.0,1.0,,,,,,,,,orange,cross
0.0,3.0,3.0,0.0,6.0,6.0,432.6539769999726,3.0,1.0,phase_2,go,300.0,400.0,1.0,,,,,,,,,white,hexagon
0.0,7.0,3.0,1.0,5.0,5.0,302.9545009994763,3.0,1.0,phase_2,go,300.0,400.0,1.0,,,,,,,,,gray,triangle
0.0,1.0,1.0,0.0,5.0,5.0,314.0155970004343,3.0,1.0,phase_2,go,300.0,400.0,1.0,,,,,,,,,orange,cross
0.0,5.0,1.0,1.0,5.0,5.0,265.5167959992468,3.0,1.0,phase_2,go,300.0,400.0,1.0,,,,,,,,,yellow,I
0.0,8.0,4.0,1.0,6.0,6.0,308.5515390002911,3.0,1.0,phase_2,stop,300.0,400.0,3.0,,,,,,,,,blue,circle
0.0,8.0,4.0,1.0,6.0,6.0,518.3086610004466,3.0,1.0,phase_2,go,300.0,350.0,1.0,,,,,,,,,blue,circle
0.0,4.0,4.0,0.0,5.0,5.0,361.9222979996266,3.0,1.0,phase_2,go,300.0,350.0,1.0,,,,,,,,,magenta,flipped triangle
0.0,7.0,3.0,1.0,5.0,5.0,432.82136699963297,3.0,1.0,phase_2,stop,300.0,350.0,3.0,,,,,,,,,gray,triangle
0.0,3.0,3.0,0.0,6.0,6.0,530.9773840008347,3.0,1.0,phase_2,go,250.0,350.0,1.0,,,,,,,,,white,hexagon
0.0,3.0,3.0,0.0,5.0,5.0,350.2956169995741,3.0,1.0,phase_2,go,250.0,350.0,1.0,,,,,,,,,white,hexagon
0.0,7.0,3.0,1.0,6.0,6.0,711.7863499997839,3.0,1.0,phase_2,go,250.0,350.0,1.0,,,,,,,,,gray,triangle
0.0,7.0,3.0,1.0,6.0,6.0,441.54262700067187,3.0,1.0,phase_2,go,250.0,350.0,1.0,,,,,,,,,gray,triangle
0.0,2.0,2.0,0.0,5.0,5.0,564.8693910006841,3.0,1.0,phase_2,go,250.0,350.0,1.0,,,,,,,,,green,diamond
0.0,5.0,1.0,1.0,6.0,6.0,343.75110900055,3.0,1.0,phase_2,stop,250.0,350.0,3.0,,,,,,,,,yellow,I
0.0,8.0,4.0,1.0,5.0,0.0,0.0,3.0,1.0,phase_2,stop,250.0,300.0,4.0,,,,,,,,,blue,circle
0.0,6.0,2.0,1.0,5.0,0.0,0.0,3.0,1.0,phase_2,stop,300.0,300.0,4.0,,,,,,,,,cyan,square
0.0,6.0,2.0,1.0,5.0,5.0,353.2538800000111,3.0,1.0,phase_2,go,350.0,300.0,1.0,,,,,,,,,cyan,square
0.0,5.0,1.0,1.0,6.0,0.0,0.0,3.0,1.0,phase_2,stop,350.0,300.0,4.0,,,,,,,,,yellow,I
0.0,8.0,4.0,1.0,5.0,5.0,447.1115750002354,3.0,1.0,phase_2,stop,350.0,350.0,3.0,,,,,,,,,blue,circle
0.0,7.0,3.0,1.0,5.0,0.0,0.0,3.0,1.0,phase_2,stop,300.0,350.0,4.0,,,,,,,,,gray,triangle
0.0,5.0,1.0,1.0,6.0,2.0,444.083553999917,3.0,1.0,phase_2,go,350.0,350.0,2.0,,,,,,,,,yellow,I
0.0,1.0,1.0,0.0,5.0,5.0,525.814051999987,3.0,1.0,phase_2,go,350.0,350.0,1.0,,,,,,,,,orange,cross
0.0,2.0,2.0,0.0,6.0,6.0,650.8917579994886,3.0,1.0,phase_2,go,350.0,350.0,1.0,,,,,,,,,green,diamond
0.0,7.0,3.0,1.0,6.0,6.0,686.6121569992174,4.0,1.0,phase_2,stop,350.0,350.0,3.0,,,,,,,,,gray,triangle
0.0,7.0,3.0,1.0,5.0,5.0,347.0261320007921,4.0,1.0,phase_2,stop,350.0,300.0,3.0,,,,,,,,,gray,triangle
0.0,4.0,4.0,0.0,5.0,5.0,528.7631849996615,4.0,1.0,phase_2,go,300.0,300.0,1.0,,,,,,,,,magenta,flipped triangle
0.0,6.0,2.0,1.0,6.0,0.0,0.0,4.0,1.0,phase_2,stop,300.0,300.0,4.0,,,,,,,,,cyan,square
0.0,3.0,3.0,0.0,6.0,6.0,712.920223000765,4.0,1.0,phase_2,go,300.0,350.0,1.0,,,,,,,,,white,hexagon
0.0,6.0,2.0,1.0,5.0,0.0,0.0,4.0,1.0,phase_2,stop,300.0,350.0,4.0,,,,,,,,,cyan,square
0.0,5.0,1.0,1.0,5.0,0.0,0.0,4.0,1.0,phase_2,stop,350.0,350.0,4.0,,,,,,,,,yellow,I
0.0,4.0,4.0,0.0,5.0,5.0,590.533200000209,4.0,1.0,phase_2,go,400.0,350.0,1.0,,,,,,,,,magenta,flipped triangle
0.0,6.0,2.0,1.0,6.0,0.0,0.0,4.0,1.0,phase_2,stop,400.0,350.0,4.0,,,,,,,,,cyan,square
0.0,5.0,1.0,1.0,5.0,0.0,0.0,4.0,1.0,phase_2,stop,400.0,400.0,4.0,,,,,,,,,yellow,I
0.0,5.0,1.0,1.0,5.0,5.0,510.10321600006137,4.0,1.0,phase_2,stop,450.0,400.0,3.0,,,,,,,,,yellow,I
0.0,2.0,2.0,0.0,5.0,5.0,618.0282289997194,4.0,1.0,phase_2,go,400.0,400.0,1.0,,,,,,,,,green,diamond
0.0,3.0,3.0,0.0,5.0,5.0,1027.690087999872,4.0,1.0,phase_2,go,400.0,400.0,1.0,,,,,,,,,white,hexagon
0.0,7.0,3.0,1.0,6.0,6.0,556.8795070003034,4.0,1.0,phase_2,stop,400.0,400.0,3.0,,,,,,,,,gray,triangle
0.0,6.0,2.0,1.0,6.0,0.0,0.0,4.0,1.0,phase_2,stop,400.0,350.0,4.0,,,,,,,,,cyan,square
0.0,6.0,2.0,1.0,6.0,0.0,0.0,4.0,1.0,phase_2,stop,400.0,400.0,4.0,,,,,,,,,cyan,square
0.0,1.0,1.0,0.0,6.0,6.0,1051.511730999664,4.0,1.0,phase_2,go,400.0,450.0,1.0,,,,,,,,,orange,cross
0.0,7.0,3.0,1.0,5.0,0.0,0.0,4.0,1.0,phase_2,stop,400.0,450.0,4.0,,,,,,,,,gray,triangle
0.0,3.0,3.0,0.0,5.0,5.0,600.0735580000764,4.0,1.0,phase_2,go,450.0,450.0,1.0,,,,,,,,,white,hexagon
0.0,8.0,4.0,1.0,6.0,6.0,657.5757239997984,4.0,1.0,phase_2,go,450.0,450.0,1.0,,,,,,,,,blue,circle
0.0,3.0,3.0,0.0,6.0,6.0,389.9811330002194,4.0,1.0,phase_2,go,450.0,450.0,1.0,,,,,,,,,white,hexagon
0.0,7.0,3.0,1.0,5.0,5.0,339.9285249997774,4.0,1.0,phase_2,go,450.0,450.0,1.0,,,,,,,,,gray,triangle
0.0,7.0,3.0,1.0,6.0,0.0,0.0,4.0,1.0,phase_2,stop,450.0,450.0,4.0,,,,,,,,,gray,triangle
0.0,3.0,3.0,0.0,5.0,0.0,0.0,4.0,1.0,phase_2,go,450.0,500.0,5.0,,,,,,,,,white,hexagon
0.0,3.0,3.0,0.0,6.0,6.0,361.6344560005018,4.0,1.0,phase_2,go,450.0,500.0,1.0,,,,,,,,,white,hexagon
0.0,1.0,1.0,0.0,5.0,5.0,931.167550000282,4.0,1.0,phase_2,go,450.0,500.0,1.0,,,,,,,,,orange,cross
0.0,7.0,3.0,1.0,5.0,0.0,0.0,4.0,1.0,phase_2,stop,450.0,500.0,4.0,,,,,,,,,gray,triangle
0.0,5.0,1.0,1.0,6.0,6.0,916.0122549992592,4.0,1.0,phase_2,go,500.0,500.0,1.0,,,,,,,,,yellow,I
0.0,7.0,3.0,1.0,5.0,0.0,0.0,4.0,1.0,phase_2,stop,500.0,500.0,4.0,,,,,,,,,gray,triangle
0.0,4.0,4.0,0.0,6.0,6.0,1161.55519700078,4.0,1.0,phase_2,go,550.0,500.0,1.0,,,,,,,,,magenta,flipped triangle
0.0,5.0,1.0,1.0,6.0,6.0,535.412209000242,4.0,1.0,phase_2,stop,550.0,500.0,3.0,,,,,,,,,yellow,I
0.0,7.0,3.0,1.0,6.0,0.0,0.0,4.0,1.0,phase_2,stop,550.0,450.0,4.0,,,,,,,,,gray,triangle
0.0,7.0,3.0,1.0,6.0,0.0,0.0,4.0,1.0,phase_2,stop,550.0,500.0,4.0,,,,,,,,,gray,triangle
0.0,2.0,2.0,0.0,5.0,5.0,606.7703339995205,4.0,1.0,phase_2,go,550.0,550.0,1.0,,,,,,,,,green,diamond
0.0,5.0,1.0,1.0,5.0,5.0,582.7578690004884,4.0,1.0,phase_2,stop,550.0,550.0,3.0,,,,,,,,,yellow,I
0.0,8.0,4.0,1.0,6.0,0.0,0.0,4.0,1.0,phase_2,stop,500.0,550.0,4.0,,,,,,,,,blue,circle
0.0,2.0,2.0,0.0,6.0,6.0,860.3195899995626,5.0,1.0,phase_2,go,500.0,600.0,1.0,,,,,,,,,green,diamond
0.0,5.0,1.0,1.0,5.0,5.0,300.4520180002146,5.0,1.0,phase_2,stop,500.0,600.0,3.0,,,,,,,,,yellow,I
0.0,4.0,4.0,0.0,6.0,6.0,291.1743630002092,5.0,1.0,phase_2,go,450.0,600.0,1.0,,,,,,,,,magenta,flipped triangle
0.0,5.0,1.0,1.0,6.0,6.0,326.9500770002196,5.0,1.0,phase_2,stop,450.0,600.0,3.0,,,,,,,,,yellow,I
0.0,1.0,1.0,0.0,5.0,5.0,334.4026610002402,5.0,1.0,phase_2,go,450.0,550.0,1.0,,,,,,,,,orange,cross
0.0,7.0,3.0,1.0,6.0,6.0,357.5574070000584,5.0,1.0,phase_2,go,450.0,550.0,1.0,,,,,,,,,gray,triangle
0.0,6.0,2.0,1.0,6.0,6.0,625.0339050002367,5.0,1.0,phase_2,stop,450.0,550.0,3.0,,,,,,,,,cyan,square
0.0,6.0,2.0,1.0,5.0,5.0,532.0663080001395,5.0,1.0,phase_2,go,450.0,500.0,1.0,,,,,,,,,cyan,square
0.0,1.0,1.0,0.0,5.0,5.0,367.6670619997821,5.0,1.0,phase_2,go,450.0,500.0,1.0,,,,,,,,,orange,cross
0.0,2.0,2.0,0.0,5.0,5.0,407.891433000259,5.0,1.0,phase_2,go,450.0,500.0,1.0,,,,,,,,,green,diamond
0.0,3.0,3.0,0.0,5.0,5.0,609.2298530002154,5.0,1.0,phase_2,go,450.0,500.0,1.0,,,,,,,,,white,hexagon
0.0,6.0,2.0,1.0,6.0,6.0,315.9220500001538,5.0,1.0,phase_2,go,450.0,500.0,1.0,,,,,,,,,cyan,square
0.0,6.0,2.0,1.0,5.0,5.0,482.5401380003313,5.0,1.0,phase_2,stop,450.0,500.0,3.0,,,,,,,,,cyan,square
0.0,7.0,3.0,1.0,5.0,0.0,0.0,5.0,1.0,phase_2,stop,400.0,500.0,4.0,,,,,,,,,gray,triangle
0.0,2.0,2.0,0.0,6.0,6.0,563.0515129996638,5.0,1.0,phase_2,go,450.0,500.0,1.0,,,,,,,,,green,diamond
0.0,4.0,4.0,0.0,5.0,5.0,584.4325439993554,5.0,1.0,phase_2,go,450.0,500.0,1.0,,,,,,,,,magenta,flipped triangle
0.0,6.0,2.0,1.0,6.0,6.0,623.9018579999538,5.0,1.0,phase_2,stop,450.0,500.0,3.0,,,,,,,,,cyan,square
0.0,8.0,4.0,1.0,6.0,0.0,0.0,5.0,1.0,phase_2,stop,450.0,450.0,4.0,,,,,,,,,blue,circle
0.0,2.0,2.0,0.0,6.0,6.0,640.2240959996561,5.0,1.0,phase_2,go,450.0,500.0,1.0,,,,,,,,,green,diamond
0.0,2.0,2.0,0.0,6.0,6.0,489.5346450002762,5.0,1.0,phase_2,go,450.0,500.0,1.0,,,,,,,,,green,diamond
0.0,6.0,2.0,1.0,6.0,6.0,350.4769310002302,5.0,1.0,phase_2,stop,450.0,500.0,3.0,,,,,,,,,cyan,square
0.0,1.0,1.0,0.0,5.0,5.0,569.458867999856,5.0,1.0,phase_2,go,450.0,450.0,1.0,,,,,,,,,orange,cross
0.0,8.0,4.0,1.0,6.0,6.0,533.5800100001507,5.0,1.0,phase_2,go,450.0,450.0,1.0,,,,,,,,,blue,circle
0.0,5.0,1.0,1.0,6.0,6.0,620.5777979994309,5.0,1.0,phase_2,stop,450.0,450.0,3.0,,,,,,,,,yellow,I
0.0,4.0,4.0,0.0,6.0,6.0,467.6440920002278,5.0,1.0,phase_2,go,450.0,400.0,1.0,,,,,,,,,magenta,flipped triangle
0.0,4.0,4.0,0.0,5.0,5.0,464.9079159999019,5.0,1.0,phase_2,go,450.0,400.0,1.0,,,,,,,,,magenta,flipped triangle
0.0,3.0,3.0,0.0,5.0,5.0,595.8049089995257,5.0,1.0,phase_2,go,450.0,400.0,1.0,,,,,,,,,white,hexagon
0.0,7.0,3.0,1.0,5.0,5.0,328.6592380000002,5.0,1.0,phase_2,stop,450.0,400.0,3.0,,,,,,,,,gray,triangle
0.0,4.0,4.0,0.0,5.0,5.0,552.7065380001659,5.0,1.0,phase_2,go,400.0,400.0,1.0,,,,,,,,,magenta,flipped triangle
0.0,6.0,2.0,1.0,5.0,5.0,312.6242779999302,5.0,1.0,phase_2,stop,400.0,400.0,3.0,,,,,,,,,cyan,square
0.0,1.0,1.0,0.0,6.0,6.0,523.4698559997923,5.0,1.0,phase_2,go,350.0,400.0,1.0,,,,,,,,,orange,cross
0.0,1.0,1.0,0.0,6.0,6.0,448.4587630004171,5.0,1.0,phase_2,go,350.0,400.0,1.0,,,,,,,,,orange,cross
0.0,5.0,1.0,1.0,5.0,5.0,433.1477699997776,5.0,1.0,phase_2,go,350.0,400.0,1.0,,,,,,,,,yellow,I
0.0,5.0,1.0,1.0,6.0,6.0,298.0943999991723,5.0,1.0,phase_2,go,350.0,400.0,1.0,,,,,,,,,yellow,I
0.0,6.0,2.0,1.0,6.0,6.0,466.8677899999238,5.0,1.0,phase_2,go,350.0,400.0,1.0,,,,,,,,,cyan,square
0.0,2.0,2.0,0.0,5.0,5.0,429.0125050001734,5.0,1.0,phase_2,go,350.0,400.0,1.0,,,,,,,,,green,diamond
0.0,3.0,3.0,0.0,5.0,5.0,880.7493479998811,6.0,1.0,phase_2,go,350.0,400.0,1.0,,,,,,,,,white,hexagon
0.0,4.0,4.0,0.0,5.0,5.0,353.5671119998369,6.0,1.0,phase_2,go,350.0,400.0,1.0,,,,,,,,,magenta,flipped triangle
0.0,5.0,1.0,1.0,5.0,5.0,350.0169529997947,6.0,1.0,phase_2,stop,350.0,400.0,3.0,,,,,,,,,yellow,I
0.0,3.0,3.0,0.0,5.0,5.0,335.079573999792,6.0,1.0,phase_2,go,300.0,400.0,1.0,,,,,,,,,white,hexagon
0.0,2.0,2.0,0.0,5.0,5.0,317.7574979999917,6.0,1.0,phase_2,go,300.0,400.0,1.0,,,,,,,,,green,diamond
0.0,5.0,1.0,1.0,5.0,5.0,331.8417149994275,6.0,1.0,phase_2,stop,300.0,400.0,3.0,,,,,,,,,yellow,I
0.0,8.0,4.0,1.0,6.0,6.0,442.5954489997821,6.0,1.0,phase_2,stop,250.0,400.0,3.0,,,,,,,,,blue,circle
0.0,3.0,3.0,0.0,5.0,5.0,487.4840610000319,6.0,1.0,phase_2,go,250.0,350.0,1.0,,,,,,,,,white,hexagon
0.0,8.0,4.0,1.0,5.0,5.0,397.6050310002392,6.0,1.0,phase_2,stop,250.0,350.0,3.0,,,,,,,,,blue,circle
0.0,5.0,1.0,1.0,5.0,0.0,0.0,6.0,1.0,phase_2,stop,200.0,350.0,4.0,,,,,,,,,yellow,I
0.0,1.0,1.0,0.0,6.0,6.0,562.6079379999283,6.0,1.0,phase_2,go,250.0,350.0,1.0,,,,,,,,,orange,cross
0.0,8.0,4.0,1.0,6.0,6.0,426.4560100000381,6.0,1.0,phase_2,go,250.0,350.0,1.0,,,,,,,,,blue,circle
0.0,5.0,1.0,1.0,6.0,6.0,484.1267740002877,6.0,1.0,phase_2,stop,250.0,350.0,3.0,,,,,,,,,yellow,I
0.0,2.0,2.0,0.0,5.0,5.0,516.9847079996543,6.0,1.0,phase_2,go,250.0,300.0,1.0,,,,,,,,,green,diamond
0.0,6.0,2.0,1.0,5.0,0.0,0.0,6.0,1.0,phase_2,stop,250.0,300.0,4.0,,,,,,,,,cyan,square
0.0,1.0,1.0,0.0,5.0,5.0,605.2809980001257,6.0,1.0,phase_2,go,300.0,300.0,1.0,,,,,,,,,orange,cross
0.0,4.0,4.0,0.0,6.0,6.0,529.1588300005969,6.0,1.0,phase_2,go,300.0,300.0,1.0,,,,,,,,,magenta,flipped triangle
0.0,5.0,1.0,1.0,5.0,5.0,461.9766629994046,6.0,1.0,phase_2,stop,300.0,300.0,3.0,,,,,,,,,yellow,I
0.0,8.0,4.0,1.0,5.0,5.0,359.8771870001656,6.0,1.0,phase_2,stop,250.0,300.0,3.0,,,,,,,,,blue,circle
0.0,3.0,3.0,0.0,6.0,6.0,580.445212000086,6.0,1.0,phase_2,go,200.0,300.0,1.0,,,,,,,,,white,hexagon
0.0,4.0,4.0,0.0,6.0,6.0,559.6121590006078,6.0,1.0,phase_2,go,200.0,300.0,1.0,,,,,,,,,magenta,flipped triangle
0.0,2.0,2.0,0.0,6.0,6.0,623.0208480001238,6.0,1.0,phase_2,go,200.0,300.0,1.0,,,,,,,,,green,diamond
0.0,7.0,3.0,1.0,5.0,0.0,0.0,6.0,1.0,phase_2,stop,200.0,300.0,4.0,,,,,,,,,gray,triangle
0.0,4.0,4.0,0.0,6.0,6.0,612.420886000109,6.0,1.0,phase_2,go,250.0,300.0,1.0,,,,,,,,,magenta,flipped triangle
0.0,7.0,3.0,1.0,5.0,0.0,0.0,6.0,1.0,phase_2,stop,250.0,300.0,4.0,,,,,,,,,gray,triangle
0.0,6.0,2.0,1.0,5.0,0.0,0.0,6.0,1.0,phase_2,stop,300.0,300.0,4.0,,,,,,,,,cyan,square
0.0,5.0,1.0,1.0,6.0,0.0,0.0,6.0,1.0,phase_2,go,350.0,300.0,5.0,,,,,,,,,yellow,I
0.0,1.0,1.0,0.0,5.0,5.0,544.012367000505,6.0,1.0,phase_2,go,350.0,300.0,1.0,,,,,,,,,orange,cross
0.0,1.0,1.0,0.0,5.0,5.0,424.2125139999189,6.0,1.0,phase_2,go,350.0,300.0,1.0,,,,,,,,,orange,cross
0.0,3.0,3.0,0.0,6.0,6.0,519.7599900002388,6.0,1.0,phase_2,go,350.0,300.0,1.0,,,,,,,,,white,hexagon
0.0,5.0,1.0,1.0,5.0,5.0,497.0268899996881,6.0,1.0,phase_2,stop,350.0,300.0,3.0,,,,,,,,,yellow,I
0.0,2.0,2.0,0.0,6.0,6.0,541.321612999127,6.0,1.0,phase_2,go,300.0,300.0,1.0,,,,,,,,,green,diamond
0.0,1.0,1.0,0.0,5.0,5.0,761.1668449999343,6.0,1.0,phase_2,go,300.0,300.0,1.0,,,,,,,,,orange,cross
0.0,2.0,2.0,0.0,6.0,6.0,617.3001349998231,6.0,1.0,phase_2,go,300.0,300.0,1.0,,,,,,,,,green,diamond
0.0,6.0,2.0,1.0,5.0,5.0,376.6455610002595,6.0,1.0,phase_2,stop,300.0,300.0,3.0,,,,,,,,,cyan,square
0.0,2.0,2.0,0.0,5.0,5.0,502.1007309997003,6.0,1.0,phase_2,go,250.0,300.0,1.0,,,,,,,,,green,diamond
0.0,6.0,2.0,1.0,5.0,5.0,439.0472320001208,7.0,1.0,phase_2,go,250.0,300.0,1.0,,,,,,,,,cyan,square
0.0,4.0,4.0,0.0,6.0,6.0,384.3065820001357,7.0,1.0,phase_2,go,250.0,300.0,1.0,,,,,,,,,magenta,flipped triangle
0.0,8.0,4.0,1.0,5.0,5.0,345.3778650000458,7.0,1.0,phase_2,stop,250.0,300.0,3.0,,,,,,,,,blue,circle
0.0,1.0,1.0,0.0,6.0,6.0,494.6443259996158,7.0,1.0,phase_2,go,200.0,300.0,1.0,,,,,,,,,orange,cross
0.0,2.0,2.0,0.0,5.0,5.0,571.6352350000307,7.0,1.0,phase_2,go,200.0,300.0,1.0,,,,,,,,,green,diamond
0.0,4.0,4.0,0.0,5.0,5.0,583.1236370004262,7.0,1.0,phase_2,go,200.0,300.0,1.0,,,,,,,,,magenta,flipped triangle
0.0,1.0,1.0,0.0,6.0,6.0,384.0421559998503,7.0,1.0,phase_2,go,200.0,300.0,1.0,,,,,,,,,orange,cross
0.0,8.0,4.0,1.0,5.0,0.0,0.0,7.0,1.0,phase_2,stop,200.0,300.0,4.0,,,,,,,,,blue,circle
0.0,8.0,4.0,1.0,6.0,0.0,0.0,7.0,1.0,phase_2,stop,250.0,300.0,4.0,,,,,,,,,blue,circle
0.0,2.0,2.0,0.0,5.0,5.0,589.0441430001374,7.0,1.0,phase_2,go,250.0,350.0,1.0,,,,,,,,,green,diamond
0.0,7.0,3.0,1.0,6.0,0.0,0.0,7.0,1.0,phase_2,stop,250.0,350.0,4.0,,,,,,,,,gray,triangle
0.0,3.0,3.0,0.0,6.0,6.0,676.9881889995304,7.0,1.0,phase_2,go,250.0,400.0,1.0,,,,,,,,,white,hexagon
0.0,8.0,4.0,1.0,6.0,0.0,0.0,7.0,1.0,phase_2,stop,250.0,400.0,4.0,,,,,,,,,blue,circle
0.0,2.0,2.0,0.0,5.0,5.0,535.9932569999728,7.0,1.0,phase_2,go,250.0,450.0,1.0,,,,,,,,,green,diamond
0.0,1.0,1.0,0.0,5.0,5.0,478.191078999771,7.0,1.0,phase_2,go,250.0,450.0,1.0,,,,,,,,,orange,cross
0.0,6.0,2.0,1.0,5.0,5.0,366.1501260003206,7.0,1.0,phase_2,stop,250.0,450.0,3.0,,,,,,,,,cyan,square
0.0,1.0,1.0,0.0,6.0,6.0,641.5040060001047,7.0,1.0,phase_2,go,200.0,450.0,1.0,,,,,,,,,orange,cross
0.0,8.0,4.0,1.0,5.0,0.0,0.0,7.0,1.0,phase_2,stop,200.0,450.0,4.0,,,,,,,,,blue,circle
0.0,4.0,4.0,0.0,6.0,6.0,879.1263100001743,7.0,1.0,phase_2,go,250.0,450.0,1.0,,,,,,,,,magenta,flipped triangle
0.0,7.0,3.0,1.0,5.0,5.0,588.0826410002555,7.0,1.0,phase_2,go,250.0,450.0,1.0,,,,,,,,,gray,triangle
0.0,6.0,2.0,1.0,6.0,6.0,634.2815709995193,7.0,1.0,phase_2,stop,250.0,450.0,3.0,,,,,,,,,cyan,square
0.0,5.0,1.0,1.0,6.0,0.0,0.0,7.0,1.0,phase_2,stop,250.0,400.0,4.0,,,,,,,,,yellow,I
0.0,2.0,2.0,0.0,6.0,6.0,1085.5347690003327,7.0,1.0,phase_2,go,250.0,450.0,1.0,,,,,,,,,green,diamond
0.0,6.0,2.0,1.0,5.0,0.0,0.0,7.0,1.0,phase_2,stop,250.0,450.0,4.0,,,,,,,,,cyan,square
0.0,4.0,4.0,0.0,5.0,5.0,479.8975180001434,7.0,1.0,phase_2,go,300.0,450.0,1.0,,,,,,,,,magenta,flipped triangle
0.0,2.0,2.0,0.0,6.0,6.0,310.0417499999821,7.0,1.0,phase_2,go,300.0,450.0,1.0,,,,,,,,,green,diamond
0.0,8.0,4.0,1.0,6.0,6.0,435.5657140004041,7.0,1.0,phase_2,stop,300.0,450.0,3.0,,,,,,,,,blue,circle
0.0,8.0,4.0,1.0,5.0,0.0,0.0,7.0,1.0,phase_2,stop,300.0,400.0,4.0,,,,,,,,,blue,circle
0.0,8.0,4.0,1.0,6.0,6.0,465.6157629997324,7.0,1.0,phase_2,go,350.0,400.0,1.0,,,,,,,,,blue,circle
0.0,5.0,1.0,1.0,6.0,6.0,359.8381989995687,7.0,1.0,phase_2,stop,350.0,400.0,3.0,,,,,,,,,yellow,I
0.0,1.0,1.0,0.0,6.0,6.0,738.4763210002347,7.0,1.0,phase_2,go,350.0,350.0,1.0,,,,,,,,,orange,cross
0.0,8.0,4.0,1.0,5.0,5.0,608.011581000028,7.0,1.0,phase_2,go,350.0,350.0,1.0,,,,,,,,,blue,circle
0.0,2.0,2.0,0.0,6.0,6.0,497.0097409996015,7.0,1.0,phase_2,go,350.0,350.0,1.0,,,,,,,,,green,diamond
0.0,4.0,4.0,0.0,5.0,5.0,401.0850889999346,7.0,1.0,phase_2,go,350.0,350.0,1.0,,,,,,,,,magenta,flipped triangle
0.0,3.0,3.0,0.0,5.0,5.0,358.1652869997924,7.0,1.0,phase_2,go,350.0,350.0,1.0,,,,,,,,,white,hexagon
0.0,6.0,2.0,1.0,5.0,5.0,322.3398890004318,7.0,1.0,phase_2,stop,350.0,350.0,3.0,,,,,,,,,cyan,square
0.0,1.0,1.0,0.0,6.0,6.0,321.3822280004024,8.0,1.0,phase_2,go,300.0,350.0,1.0,,,,,,,,,orange,cross
0.0,1.0,1.0,0.0,5.0,5.0,368.8807620001171,8.0,1.0,phase_2,go,300.0,350.0,1.0,,,,,,,,,orange,cross
0.0,7.0,3.0,1.0,5.0,5.0,286.1061289995632,8.0,1.0,phase_2,stop,300.0,350.0,3.0,,,,,,,,,gray,triangle
0.0,4.0,4.0,0.0,5.0,5.0,406.170791000477,8.0,1.0,phase_2,go,250.0,350.0,1.0,,,,,,,,,magenta,flipped triangle
0.0,4.0,4.0,0.0,6.0,6.0,369.8061610002696,8.0,1.0,phase_2,go,250.0,350.0,1.0,,,,,,,,,magenta,flipped triangle
0.0,2.0,2.0,0.0,6.0,6.0,387.9966699996657,8.0,1.0,phase_2,go,250.0,350.0,1.0,,,,,,,,,green,diamond
0.0,6.0,2.0,1.0,5.0,5.0,345.4664369992315,8.0,1.0,phase_2,stop,250.0,350.0,3.0,,,,,,,,,cyan,square
0.0,1.0,1.0,0.0,5.0,5.0,622.3203889994693,8.0,1.0,phase_2,go,200.0,350.0,1.0,,,,,,,,,orange,cross
0.0,4.0,4.0,0.0,5.0,5.0,443.6290350004128,8.0,1.0,phase_2,go,200.0,350.0,1.0,,,,,,,,,magenta,flipped triangle
0.0,2.0,2.0,0.0,5.0,5.0,340.8110889995441,8.0,1.0,phase_2,go,200.0,350.0,1.0,,,,,,,,,green,diamond
0.0,7.0,3.0,1.0,6.0,6.0,371.0238619996744,8.0,1.0,phase_2,go,200.0,350.0,1.0,,,,,,,,,gray,triangle
0.0,1.0,1.0,0.0,5.0,5.0,326.7258519999814,8.0,1.0,phase_2,go,200.0,350.0,1.0,,,,,,,,,orange,cross
0.0,4.0,4.0,0.0,5.0,5.0,336.4408590005041,8.0,1.0,phase_2,go,200.0,350.0,1.0,,,,,,,,,magenta,flipped triangle
0.0,2.0,2.0,0.0,6.0,6.0,351.0674280005332,8.0,1.0,phase_2,go,200.0,350.0,1.0,,,,,,,,,green,diamond
0.0,3.0,3.0,0.0,5.0,5.0,312.9593559997374,8.0,1.0,phase_2,go,200.0,350.0,1.0,,,,,,,,,white,hexagon
0.0,7.0,3.0,1.0,6.0,6.0,318.1396730005872,8.0,1.0,phase_2,stop,200.0,350.0,3.0,,,,,,,,,gray,triangle
0.0,1.0,1.0,0.0,6.0,6.0,487.7107349993821,8.0,1.0,phase_2,go,200.0,300.0,1.0,,,,,,,,,orange,cross
0.0,4.0,4.0,0.0,6.0,6.0,312.7795049995256,8.0,1.0,phase_2,go,200.0,300.0,1.0,,,,,,,,,magenta,flipped triangle
0.0,6.0,2.0,1.0,6.0,6.0,286.0803079993275,8.0,1.0,phase_2,stop,200.0,300.0,3.0,,,,,,,,,cyan,square
0.0,1.0,1.0,0.0,6.0,6.0,480.40493299959047,8.0,1.0,phase_2,go,200.0,250.0,1.0,,,,,,,,,orange,cross
0.0,8.0,4.0,1.0,5.0,5.0,309.9282819994187,8.0,1.0,phase_2,stop,200.0,250.0,3.0,,,,,,,,,blue,circle
0.0,3.0,3.0,0.0,6.0,6.0,456.6529229996376,8.0,1.0,phase_2,go,150.0,250.0,1.0,,,,,,,,,white,hexagon
0.0,8.0,4.0,1.0,6.0,6.0,516.2439929999891,8.0,1.0,phase_2,go,150.0,250.0,1.0,,,,,,,,,blue,circle
0.0,6.0,2.0,1.0,6.0,6.0,417.8362889997515,8.0,1.0,phase_2,stop,150.0,250.0,3.0,,,,,,,,,cyan,square
0.0,4.0,4.0,0.0,5.0,5.0,269.9478869999439,8.0,1.0,phase_2,go,150.0,200.0,1.0,,,,,,,,,magenta,flipped triangle
0.0,5.0,1.0,1.0,6.0,0.0,0.0,8.0,1.0,phase_2,stop,150.0,200.0,4.0,,,,,,,,,yellow,I
0.0,3.0,3.0,0.0,5.0,5.0,730.5131630000687,8.0,1.0,phase_2,go,150.0,250.0,1.0,,,,,,,,,white,hexagon
0.0,1.0,1.0,0.0,6.0,6.0,435.0259960001494,8.0,1.0,phase_2,go,150.0,250.0,1.0,,,,,,,,,orange,cross
0.0,6.0,2.0,1.0,6.0,0.0,0.0,8.0,1.0,phase_2,stop,150.0,250.0,4.0,,,,,,,,,cyan,square
0.0,1.0,1.0,0.0,5.0,5.0,573.6501330002284,8.0,1.0,phase_2,go,150.0,300.0,1.0,,,,,,,,,orange,cross
0.0,2.0,2.0,0.0,5.0,5.0,294.858313000077,8.0,1.0,phase_2,go,150.0,300.0,1.0,,,,,,,,,green,diamond
0.0,7.0,3.0,1.0,6.0,6.0,766.6046809999898,8.0,1.0,phase_2,stop,150.0,300.0,3.0,,,,,,,,,gray,triangle
0.0,8.0,4.0,1.0,6.0,0.0,0.0,8.0,1.0,phase_2,stop,150.0,250.0,4.0,,,,,,,,,blue,circle
0.0,5.0,1.0,1.0,6.0,0.0,0.0,8.0,1.0,phase_2,stop,150.0,300.0,4.0,,,,,,,,,yellow,I
0.0,2.0,2.0,0.0,6.0,6.0,493.9451619993633,8.0,1.0,phase_2,go,150.0,350.0,1.0,,,,,,,,,green,diamond
0.0,4.0,4.0,0.0,6.0,6.0,359.4056910005747,8.0,1.0,phase_2,go,150.0,350.0,1.0,,,,,,,,,magenta,flipped triangle
0.0,5.0,1.0,1.0,7.0,4.0,3293.3148769998297,1.0,1.0,phase_3,,,,,195.0,5.0,39.0,234.0,117.0,195.0,156.0,78.0,yellow,I
0.0,7.0,3.0,1.0,7.0,2.0,2850.757944999714,1.0,1.0,phase_3,,,,,170.0,5.0,204.0,170.0,34.0,102.0,68.0,136.0,gray,triangle
0.0,2.0,2.0,0.0,7.0,1.0,3300.525020999885,1.0,1.0,phase_3,,,,,170.0,5.0,170.0,204.0,34.0,136.0,102.0,68.0,green,diamond
0.0,8.0,4.0,1.0,7.0,6.0,2596.882600999379,1.0,1.0,phase_3,,,,,196.0,4.0,147.0,245.0,49.0,98.0,294.0,196.0,blue,circle
0.0,7.0,3.0,1.0,7.0,5.0,2940.1205989997834,1.0,1.0,phase_3,,,,,216.0,4.0,108.0,54.0,324.0,162.0,216.0,270.0,gray,triangle
0.0,1.0,1.0,0.0,7.0,6.0,2513.871705999918,1.0,1.0,phase_3,,,,,196.0,4.0,294.0,245.0,98.0,49.0,147.0,196.0,orange,cross
0.0,8.0,4.0,1.0,7.0,6.0,2640.5800949996774,1.0,1.0,phase_3,,,,,196.0,4.0,147.0,98.0,294.0,245.0,49.0,196.0,blue,circle
0.0,1.0,1.0,0.0,7.0,1.0,2920.913308999843,1.0,1.0,phase_3,,,,,195.0,5.0,195.0,234.0,156.0,78.0,117.0,39.0,orange,cross
0.0,3.0,3.0,0.0,7.0,3.0,2924.608294000791,1.0,1.0,phase_3,,,,,176.0,4.0,44.0,132.0,176.0,220.0,88.0,264.0,white,hexagon
0.0,5.0,1.0,1.0,7.0,1.0,2801.891880999392,1.0,1.0,phase_3,,,,,170.0,5.0,170.0,136.0,102.0,34.0,68.0,204.0,yellow,I
0.0,2.0,2.0,0.0,7.0,1.0,1377.2519920003106,1.0,1.0,phase_3,,,,,196.0,4.0,196.0,147.0,294.0,49.0,98.0,245.0,green,diamond
0.0,8.0,4.0,1.0,7.0,4.0,2979.922384999554,1.0,1.0,phase_3,,,,,162.0,3.0,270.0,216.0,324.0,162.0,108.0,54.0,blue,circle
0.0,6.0,2.0,1.0,7.0,5.0,3205.6768229995214,1.0,1.0,phase_3,,,,,196.0,4.0,49.0,98.0,147.0,245.0,196.0,294.0,cyan,square
0.0,4.0,4.0,0.0,7.0,4.0,3272.5875249998358,1.0,1.0,phase_3,,,,,220.0,5.0,132.0,44.0,264.0,220.0,176.0,88.0,magenta,flipped triangle
0.0,1.0,1.0,0.0,7.0,6.0,2868.3423150005183,1.0,1.0,phase_3,,,,,156.0,4.0,78.0,39.0,117.0,234.0,195.0,156.0,orange,cross
0.0,4.0,4.0,0.0,7.0,6.0,2830.278747999728,1.0,1.0,phase_3,,,,,196.0,4.0,147.0,245.0,49.0,98.0,294.0,196.0,magenta,flipped triangle
0.0,3.0,3.0,0.0,7.0,1.0,2523.03727799972,1.0,1.0,phase_3,,,,,117.0,3.0,117.0,39.0,156.0,195.0,78.0,234.0,white,hexagon
0.0,7.0,3.0,1.0,7.0,1.0,2336.624851999659,1.0,1.0,phase_3,,,,,102.0,3.0,102.0,34.0,136.0,68.0,170.0,204.0,gray,triangle
0.0,5.0,1.0,1.0,7.0,4.0,2051.739980999628,1.0,1.0,phase_3,,,,,117.0,3.0,234.0,39.0,156.0,117.0,195.0,78.0,yellow,I
0.0,5.0,1.0,1.0,7.0,6.0,2272.37642199998,1.0,1.0,phase_3,,,,,136.0,4.0,102.0,68.0,170.0,204.0,34.0,136.0,yellow,I
0.0,7.0,3.0,1.0,7.0,3.0,2631.362742999954,2.0,1.0,phase_3,,,,,132.0,3.0,176.0,264.0,132.0,88.0,44.0,220.0,gray,triangle
0.0,6.0,2.0,1.0,7.0,4.0,2035.3007870007787,2.0,1.0,phase_3,,,,,170.0,5.0,68.0,102.0,204.0,170.0,34.0,136.0,cyan,square
0.0,4.0,4.0,0.0,7.0,2.0,1610.7635640000808,2.0,1.0,phase_3,,,,,216.0,4.0,270.0,216.0,54.0,108.0,162.0,324.0,magenta,flipped triangle
0.0,4.0,4.0,0.0,7.0,1.0,1613.0985829995552,2.0,1.0,phase_3,,,,,195.0,5.0,195.0,39.0,117.0,78.0,234.0,156.0,magenta,flipped triangle
0.0,6.0,2.0,1.0,7.0,1.0,1318.72669600034,2.0,1.0,phase_3,,,,,132.0,3.0,132.0,176.0,264.0,220.0,44.0,88.0,cyan,square
0.0,7.0,3.0,1.0,7.0,2.0,1812.8336399995533,2.0,1.0,phase_3,,,,,147.0,3.0,245.0,147.0,294.0,49.0,196.0,98.0,gray,triangle
0.0,2.0,2.0,0.0,7.0,5.0,1960.287330999563,2.0,1.0,phase_3,,,,,216.0,4.0,162.0,108.0,270.0,54.0,216.0,324.0,green,diamond
0.0,2.0,2.0,0.0,7.0,5.0,1257.4442400000407,2.0,1.0,phase_3,,,,,170.0,5.0,102.0,204.0,136.0,68.0,170.0,34.0,green,diamond
0.0,4.0,4.0,0.0,7.0,6.0,1404.988628000865,2.0,1.0,phase_3,,,,,196.0,4.0,98.0,294.0,147.0,49.0,245.0,196.0,magenta,flipped triangle
0.0,5.0,1.0,1.0,7.0,3.0,1852.3436929999664,2.0,1.0,phase_3,,,,,108.0,2.0,54.0,270.0,108.0,216.0,162.0,324.0,yellow,I
0.0,3.0,3.0,0.0,7.0,6.0,1748.0313859996386,2.0,1.0,phase_3,,,,,136.0,4.0,102.0,34.0,170.0,204.0,68.0,136.0,white,hexagon
0.0,6.0,2.0,1.0,7.0,2.0,3488.370658000349,2.0,1.0,phase_3,,,,,54.0,1.0,324.0,54.0,270.0,108.0,162.0,216.0,cyan,square
0.0,8.0,4.0,1.0,7.0,1.0,1666.7057119993842,2.0,1.0,phase_3,,,,,204.0,6.0,204.0,34.0,68.0,102.0,170.0,136.0,blue,circle
0.0,4.0,4.0,0.0,7.0,1.0,1599.920290999762,2.0,1.0,phase_3,,,,,216.0,4.0,216.0,54.0,108.0,270.0,162.0,324.0,magenta,flipped triangle
0.0,2.0,2.0,0.0,7.0,5.0,1955.5730049996785,2.0,1.0,phase_3,,,,,117.0,3.0,195.0,234.0,156.0,78.0,117.0,39.0,green,diamond
0.0,4.0,4.0,0.0,7.0,2.0,1307.9819590002444,2.0,1.0,phase_3,,,,,195.0,5.0,156.0,195.0,234.0,39.0,117.0,78.0,magenta,flipped triangle
0.0,4.0,4.0,0.0,7.0,3.0,1395.934624999427,2.0,1.0,phase_3,,,,,170.0,5.0,136.0,204.0,170.0,102.0,34.0,68.0,magenta,flipped triangle
0.0,7.0,3.0,1.0,7.0,6.0,1813.7167709992357,2.0,1.0,phase_3,,,,,147.0,3.0,294.0,98.0,196.0,245.0,49.0,147.0,gray,triangle
0.0,5.0,1.0,1.0,7.0,6.0,1443.0133799996838,2.0,1.0,phase_3,,,,,132.0,3.0,220.0,264.0,88.0,176.0,44.0,132.0,yellow,I
0.0,6.0,2.0,1.0,7.0,2.0,1824.4264629993268,2.0,1.0,phase_3,,,,,108.0,2.0,216.0,108.0,54.0,324.0,162.0,270.0,cyan,square
0.0,7.0,3.0,1.0,7.0,3.0,1299.8265890000766,3.0,1.0,phase_3,,,,,162.0,3.0,54.0,324.0,162.0,108.0,216.0,270.0,gray,triangle
0.0,3.0,3.0,0.0,7.0,4.0,1193.591866999668,3.0,1.0,phase_3,,,,,162.0,3.0,54.0,324.0,216.0,162.0,108.0,270.0,white,hexagon
0.0,1.0,1.0,0.0,7.0,4.0,2803.5922509998272,3.0,1.0,phase_3,,,,,176.0,4.0,44.0,264.0,88.0,176.0,132.0,220.0,orange,cross
0.0,8.0,4.0,1.0,7.0,6.0,1277.6846679998926,3.0,1.0,phase_3,,,,,204.0,6.0,68.0,136.0,170.0,34.0,102.0,204.0,blue,circle
0.0,3.0,3.0,0.0,7.0,3.0,1305.5751169995349,3.0,1.0,phase_3,,,,,147.0,3.0,294.0,98.0,147.0,196.0,245.0,49.0,white,hexagon
0.0,3.0,3.0,0.0,7.0,5.0,1301.8628879999596,3.0,1.0,phase_3,,,,,147.0,3.0,245.0,196.0,98.0,294.0,147.0,49.0,white,hexagon
0.0,8.0,4.0,1.0,7.0,2.0,1556.6625519995796,3.0,1.0,phase_3,,,,,220.0,5.0,176.0,220.0,44.0,132.0,88.0,264.0,blue,circle
0.0,3.0,3.0,0.0,7.0,1.0,2006.5234789999522,3.0,1.0,phase_3,,,,,108.0,2.0,108.0,270.0,216.0,162.0,54.0,324.0,white,hexagon
0.0,1.0,1.0,0.0,7.0,6.0,1310.4117000002589,3.0,1.0,phase_3,,,,,98.0,2.0,147.0,294.0,245.0,49.0,196.0,98.0,orange,cross
0.0,6.0,2.0,1.0,7.0,2.0,780.4564690004554,3.0,1.0,phase_3,,,,,49.0,1.0,294.0,49.0,196.0,147.0,98.0,245.0,cyan,square
0.0,2.0,2.0,0.0,7.0,3.0,2007.8220979994512,3.0,1.0,phase_3,,,,,176.0,4.0,88.0,132.0,176.0,264.0,44.0,220.0,green,diamond
0.0,6.0,2.0,1.0,7.0,2.0,1296.6357269997388,3.0,1.0,phase_3,,,,,78.0,2.0,117.0,78.0,39.0,234.0,156.0,195.0,cyan,square
0.0,1.0,1.0,0.0,7.0,5.0,777.0823820001169,3.0,1.0,phase_3,,,,,170.0,5.0,68.0,136.0,102.0,34.0,170.0,204.0,orange,cross
0.0,8.0,4.0,1.0,7.0,5.0,1392.9771869998149,3.0,1.0,phase_3,,,,,270.0,5.0,324.0,54.0,108.0,162.0,270.0,216.0,blue,circle
0.0,3.0,3.0,0.0,7.0,5.0,2797.2931960002825,3.0,1.0,phase_3,,,,,234.0,6.0,195.0,156.0,78.0,117.0,234.0,39.0,white,hexagon
0.0,2.0,2.0,0.0,7.0,4.0,1239.3305890000192,3.0,1.0,phase_3,,,,,117.0,3.0,156.0,39.0,195.0,117.0,234.0,78.0,green,diamond
0.0,6.0,2.0,1.0,7.0,2.0,2017.5123210001402,3.0,1.0,phase_3,,,,,234.0,6.0,78.0,234.0,195.0,117.0,156.0,39.0,cyan,square
0.0,2.0,2.0,0.0,7.0,6.0,1155.6468830003723,3.0,1.0,phase_3,,,,,162.0,3.0,108.0,216.0,54.0,324.0,270.0,162.0,green,diamond
0.0,1.0,1.0,0.0,7.0,6.0,1210.3052389993536,3.0,1.0,phase_3,,,,,176.0,4.0,264.0,44.0,220.0,132.0,88.0,176.0,orange,cross
0.0,8.0,4.0,1.0,7.0,5.0,1514.0178769997874,3.0,1.0,phase_3,,,,,195.0,5.0,234.0,117.0,156.0,39.0,195.0,78.0,blue,circle
0.0,7.0,3.0,1.0,7.0,6.0,1676.5781340000103,4.0,1.0,phase_3,,,,,132.0,3.0,176.0,88.0,44.0,264.0,220.0,132.0,gray,triangle
0.0,7.0,3.0,1.0,7.0,6.0,1039.7697650005284,4.0,1.0,phase_3,,,,,156.0,4.0,234.0,117.0,39.0,78.0,195.0,156.0,gray,triangle
0.0,1.0,1.0,0.0,7.0,4.0,1521.8189799998072,4.0,1.0,phase_3,,,,,162.0,3.0,216.0,108.0,270.0,162.0,324.0,54.0,orange,cross
0.0,4.0,4.0,0.0,7.0,2.0,1311.2776669995585,4.0,1.0,phase_3,,,,,176.0,4.0,88.0,176.0,264.0,44.0,220.0,132.0,magenta,flipped triangle
0.0,1.0,1.0,0.0,7.0,3.0,1222.2219449995464,4.0,1.0,phase_3,,,,,162.0,3.0,108.0,216.0,162.0,270.0,54.0,324.0,orange,cross
0.0,4.0,4.0,0.0,7.0,3.0,1146.5400429997317,4.0,1.0,phase_3,,,,,170.0,5.0,68.0,136.0,170.0,204.0,102.0,34.0,magenta,flipped triangle
0.0,8.0,4.0,1.0,7.0,3.0,2087.388337000448,4.0,1.0,phase_3,,,,,220.0,5.0,88.0,264.0,220.0,176.0,44.0,132.0,blue,circle
0.0,5.0,1.0,1.0,7.0,4.0,1989.1579390005063,4.0,1.0,phase_3,,,,,98.0,2.0,49.0,245.0,196.0,98.0,147.0,294.0,yellow,I
0.0,2.0,2.0,0.0,7.0,1.0,1882.704149000347,4.0,1.0,phase_3,,,,,147.0,3.0,147.0,98.0,294.0,245.0,196.0,49.0,green,diamond
0.0,6.0,2.0,1.0,7.0,1.0,2670.7808270002715,4.0,1.0,phase_3,,,,,204.0,6.0,204.0,136.0,170.0,68.0,102.0,34.0,cyan,square
0.0,3.0,3.0,0.0,7.0,6.0,3120.5904720000035,4.0,1.0,phase_3,,,,,88.0,2.0,264.0,220.0,176.0,44.0,132.0,88.0,white,hexagon
0.0,5.0,1.0,1.0,7.0,2.0,1971.4576859996669,4.0,1.0,phase_3,,,,,98.0,2.0,245.0,98.0,294.0,147.0,49.0,196.0,yellow,I
0.0,1.0,1.0,0.0,7.0,4.0,1412.666263000574,4.0,1.0,phase_3,,,,,170.0,5.0,68.0,204.0,34.0,170.0,136.0,102.0,orange,cross
0.0,2.0,2.0,0.0,7.0,5.0,2064.0546669992546,4.0,1.0,phase_3,,,,,176.0,4.0,264.0,132.0,220.0,88.0,176.0,44.0,green,diamond
0.0,5.0,1.0,1.0,7.0,3.0,2526.597452000715,4.0,1.0,phase_3,,,,,176.0,4.0,132.0,220.0,176.0,88.0,264.0,44.0,yellow,I
0.0,7.0,3.0,1.0,7.0,5.0,1595.663434999551,4.0,1.0,phase_3,,,,,117.0,3.0,156.0,78.0,195.0,39.0,117.0,234.0,gray,triangle
0.0,8.0,4.0,1.0,7.0,4.0,1967.0675130000743,4.0,1.0,phase_3,,,,,195.0,5.0,234.0,39.0,78.0,195.0,117.0,156.0,blue,circle
0.0,3.0,3.0,0.0,7.0,2.0,2002.7682629997798,4.0,1.0,phase_3,,,,,136.0,4.0,102.0,136.0,34.0,204.0,68.0,170.0,white,hexagon
0.0,6.0,2.0,1.0,7.0,2.0,1705.7773320002525,4.0,1.0,phase_3,,,,,88.0,2.0,220.0,88.0,176.0,44.0,132.0,264.0,cyan,square
0.0,5.0,1.0,1.0,7.0,4.0,1807.262311000159,4.0,1.0,phase_3,,,,,162.0,3.0,54.0,324.0,108.0,162.0,270.0,216.0,yellow,I
