raw_reward_magnitude,stim_reward,stepwise_reward_magnitude,paired_with_stopping,stim_location,response,reaction_time,block,num_trial_presentations,which_phase,stop_signal_trial_type,left_SSD,right_SSD,accuracy,chosen_bidding_amount,chosen_bidding_level,possible_bid_1,possible_bid_2,possible_bid_3,possible_bid_4,possible_bid_5,possible_bid_6,color_text,shape_text
0.0,2.0,0.0,0.0,2.0,2.0,424.6894440000233,1.0,1.0,phase_1,,,,,,,,,,,,,green,square
112.0,6.0,1.0,1.0,4.0,4.0,521.8478179999693,1.0,1.0,phase_1,,,,,,,,,,,,,blue,triangle
66.0,5.0,0.5,1.0,3.0,3.0,421.5084789999537,1.0,1.0,phase_1,,,,,,,,,,,,,gray,flipped triangle
69.0,5.0,0.5,1.0,2.0,2.0,374.5278239999834,1.0,1.0,phase_1,,,,,,,,,,,,,gray,flipped triangle
379.0,8.0,4.0,1.0,3.0,3.0,327.0168589999684,1.0,1.0,phase_1,,,,,,,,,,,,,white,I
0.0,7.0,0.0,1.0,1.0,1.0,492.075477999947,1.0,1.0,phase_1,,,,,,,,,,,,,orange,hexagon
0.0,5.0,0.0,1.0,2.0,2.0,372.2492989999182,1.0,1.0,phase_1,,,,,,,,,,,,,gray,flipped triangle
0.0,4.0,0.0,0.0,3.0,3.0,322.4652379999497,1.0,1.0,phase_1,,,,,,,,,,,,,magenta,circle
420.0,8.0,4.0,1.0,1.0,1.0,404.2061589999548,1.0,1.0,phase_1,,,,,,,,,,,,,white,I
60.0,1.0,0.5,0.0,1.0,1.0,421.5313070000093,1.0,1.0,phase_1,,,,,,,,,,,,,cyan,diamond
87.0,2.0,1.0,0.0,4.0,4.0,327.7922429999762,1.0,1.0,phase_1,,,,,,,,,,,,,green,square
177.0,3.0,2.0,0.0,2.0,2.0,272.5161490000118,1.0,1.0,phase_1,,,,,,,,,,,,,yellow,cross
0.0,7.0,0.0,1.0,4.0,4.0,372.0218969999678,1.0,1.0,phase_1,,,,,,,,,,,,,orange,hexagon
32.0,1.0,0.5,0.0,2.0,2.0,290.6135539999468,1.0,1.0,phase_1,,,,,,,,,,,,,cyan,diamond
0.0,3.0,0.0,0.0,2.0,2.0,307.196494999971,1.0,1.0,phase_1,,,,,,,,,,,,,yellow,cross
53.0,1.0,0.5,0.0,2.0,2.0,284.2899270000316,1.0,1.0,phase_1,,,,,,,,,,,,,cyan,diamond
379.0,4.0,4.0,0.0,3.0,3.0,352.5620560000106,1.0,1.0,phase_1,,,,,,,,,,,,,magenta,circle
41.0,1.0,0.5,0.0,1.0,1.0,351.9064219999563,1.0,1.0,phase_1,,,,,,,,,,,,,cyan,diamond
80.0,6.0,1.0,1.0,4.0,4.0,384.4228429999248,1.0,1.0,phase_1,,,,,,,,,,,,,blue,triangle
48.0,5.0,0.5,1.0,3.0,3.0,354.1107349999493,1.0,1.0,phase_1,,,,,,,,,,,,,gray,flipped triangle
222.0,3.0,2.0,0.0,3.0,3.0,341.0557759999619,1.0,1.0,phase_1,,,,,,,,,,,,,yellow,cross
408.0,4.0,4.0,0.0,3.0,3.0,327.0485870000357,1.0,1.0,phase_1,,,,,,,,,,,,,magenta,circle
0.0,2.0,0.0,0.0,1.0,1.0,387.358312999936,1.0,1.0,phase_1,,,,,,,,,,,,,green,square
215.0,7.0,2.0,1.0,1.0,1.0,397.4412459999712,1.0,1.0,phase_1,,,,,,,,,,,,,orange,hexagon
417.0,8.0,4.0,1.0,2.0,2.0,298.1303450000041,1.0,1.0,phase_1,,,,,,,,,,,,,white,I
90.0,6.0,1.0,1.0,4.0,4.0,331.7242230000374,1.0,1.0,phase_1,,,,,,,,,,,,,blue,triangle
94.0,6.0,1.0,1.0,2.0,2.0,313.0142400000295,1.0,1.0,phase_1,,,,,,,,,,,,,blue,triangle
0.0,4.0,0.0,0.0,3.0,3.0,498.2059470000877,1.0,1.0,phase_1,,,,,,,,,,,,,magenta,circle
0.0,1.0,0.0,0.0,3.0,3.0,348.478028000045,1.0,1.0,phase_1,,,,,,,,,,,,,cyan,diamond
109.0,2.0,1.0,0.0,2.0,2.0,245.7859660000849,1.0,1.0,phase_1,,,,,,,,,,,,,green,square
0.0,1.0,0.0,0.0,1.0,1.0,327.9375449999406,1.0,1.0,phase_1,,,,,,,,,,,,,cyan,diamond
0.0,8.0,0.0,1.0,3.0,3.0,282.2444519999862,1.0,1.0,phase_1,,,,,,,,,,,,,white,I
420.0,4.0,4.0,0.0,1.0,1.0,485.0427950000266,1.0,1.0,phase_1,,,,,,,,,,,,,magenta,circle
397.0,4.0,4.0,0.0,4.0,4.0,404.5437330000823,1.0,1.0,phase_1,,,,,,,,,,,,,magenta,circle
0.0,4.0,0.0,0.0,3.0,3.0,301.7041009998138,1.0,1.0,phase_1,,,,,,,,,,,,,magenta,circle
191.0,3.0,2.0,0.0,4.0,4.0,419.2664619999959,1.0,1.0,phase_1,,,,,,,,,,,,,yellow,cross
122.0,6.0,1.0,1.0,1.0,1.0,367.2690299999885,1.0,2.0,phase_1,,,,,,,,,,,,,blue,triangle
0.0,1.0,0.0,0.0,3.0,3.0,382.8708510000069,1.0,1.0,phase_1,,,,,,,,,,,,,cyan,diamond
36.0,5.0,0.5,1.0,4.0,4.0,455.9832019999703,1.0,1.0,phase_1,,,,,,,,,,,,,gray,flipped triangle
39.0,1.0,0.5,0.0,4.0,4.0,314.8137880000377,1.0,1.0,phase_1,,,,,,,,,,,,,cyan,diamond
41.0,5.0,0.5,1.0,3.0,3.0,332.1967189999668,1.0,1.0,phase_1,,,,,,,,,,,,,gray,flipped triangle
117.0,6.0,1.0,1.0,2.0,2.0,363.1933169999684,1.0,1.0,phase_1,,,,,,,,,,,,,blue,triangle
222.0,7.0,2.0,1.0,2.0,2.0,543.5065609999583,1.0,1.0,phase_1,,,,,,,,,,,,,orange,hexagon
391.0,8.0,4.0,1.0,2.0,2.0,369.3866429998707,1.0,1.0,phase_1,,,,,,,,,,,,,white,I
0.0,3.0,0.0,0.0,2.0,2.0,370.2546849999635,1.0,1.0,phase_1,,,,,,,,,,,,,yellow,cross
0.0,1.0,0.0,0.0,1.0,1.0,340.2104159999908,1.0,1.0,phase_1,,,,,,,,,,,,,cyan,diamond
395.0,8.0,4.0,1.0,1.0,1.0,392.87675000014127,1.0,1.0,phase_1,,,,,,,,,,,,,white,I
79.0,6.0,1.0,1.0,3.0,3.0,286.412638999991,1.0,1.0,phase_1,,,,,,,,,,,,,blue,triangle
94.0,2.0,1.0,0.0,4.0,4.0,491.1938989998816,1.0,1.0,phase_1,,,,,,,,,,,,,green,square
420.0,8.0,4.0,1.0,2.0,2.0,319.669341000008,1.0,1.0,phase_1,,,,,,,,,,,,,white,I
83.0,2.0,1.0,0.0,3.0,3.0,284.1894840000805,1.0,1.0,phase_1,,,,,,,,,,,,,green,square
0.0,5.0,0.0,1.0,2.0,2.0,411.9834509999691,1.0,1.0,phase_1,,,,,,,,,,,,,gray,flipped triangle
419.0,8.0,4.0,1.0,1.0,1.0,372.3664520000511,1.0,1.0,phase_1,,,,,,,,,,,,,white,I
217.0,7.0,2.0,1.0,4.0,4.0,562.006958999973,1.0,1.0,phase_1,,,,,,,,,,,,,orange,hexagon
62.0,1.0,0.5,0.0,2.0,2.0,707.452609000029,1.0,1.0,phase_1,,,,,,,,,,,,,cyan,diamond
391.0,4.0,4.0,0.0,1.0,1.0,602.3160249999364,1.0,1.0,phase_1,,,,,,,,,,,,,magenta,circle
194.0,7.0,2.0,1.0,3.0,3.0,705.2608639999107,1.0,1.0,phase_1,,,,,,,,,,,,,orange,hexagon
210.0,7.0,2.0,1.0,2.0,2.0,424.5043829998849,1.0,1.0,phase_1,,,,,,,,,,,,,orange,hexagon
380.0,8.0,4.0,1.0,3.0,3.0,433.4260010000434,1.0,1.0,phase_1,,,,,,,,,,,,,white,I
105.0,6.0,1.0,1.0,2.0,2.0,344.6403059999738,1.0,1.0,phase_1,,,,,,,,,,,,,blue,triangle
0.0,6.0,0.0,1.0,3.0,3.0,333.8509510001586,1.0,1.0,phase_1,,,,,,,,,,,,,blue,triangle
203.0,7.0,2.0,1.0,3.0,3.0,350.7906350000667,1.0,1.0,phase_1,,,,,,,,,,,,,orange,hexagon
208.0,3.0,2.0,0.0,3.0,3.0,380.3506059998653,1.0,1.0,phase_1,,,,,,,,,,,,,yellow,cross
94.0,2.0,1.0,0.0,2.0,2.0,400.7980589999533,1.0,1.0,phase_1,,,,,,,,,,,,,green,square
0.0,5.0,0.0,1.0,3.0,3.0,397.2742870000729,1.0,1.0,phase_1,,,,,,,,,,,,,gray,flipped triangle
177.0,7.0,2.0,1.0,3.0,3.0,428.7265130001287,1.0,1.0,phase_1,,,,,,,,,,,,,orange,hexagon
217.0,3.0,2.0,0.0,1.0,1.0,397.4432259999503,1.0,1.0,phase_1,,,,,,,,,,,,,yellow,cross
180.0,3.0,2.0,0.0,1.0,1.0,474.6359729999767,1.0,1.0,phase_1,,,,,,,,,,,,,yellow,cross
29.0,1.0,0.5,0.0,4.0,4.0,490.8581460001642,1.0,1.0,phase_1,,,,,,,,,,,,,cyan,diamond
58.0,5.0,0.5,1.0,2.0,2.0,627.087511000127,1.0,1.0,phase_1,,,,,,,,,,,,,gray,flipped triangle
0.0,5.0,0.0,1.0,1.0,1.0,440.0317310000901,1.0,1.0,phase_1,,,,,,,,,,,,,gray,flipped triangle
0.0,5.0,0.0,1.0,2.0,2.0,736.8311350001022,1.0,1.0,phase_1,,,,,,,,,,,,,gray,flipped triangle
0.0,6.0,0.0,1.0,3.0,3.0,495.1366150000922,1.0,1.0,phase_1,,,,,,,,,,,,,blue,triangle
386.0,8.0,4.0,1.0,1.0,1.0,506.29457800005184,1.0,1.0,phase_1,,,,,,,,,,,,,white,I
0.0,4.0,0.0,0.0,1.0,1.0,428.9292930000101,1.0,1.0,phase_1,,,,,,,,,,,,,magenta,circle
41.0,5.0,0.5,1.0,4.0,4.0,463.7785869999788,1.0,1.0,phase_1,,,,,,,,,,,,,gray,flipped triangle
197.0,7.0,2.0,1.0,1.0,1.0,363.8962459999675,1.0,1.0,phase_1,,,,,,,,,,,,,orange,hexagon
215.0,7.0,2.0,1.0,3.0,3.0,500.13343499995244,1.0,1.0,phase_1,,,,,,,,,,,,,orange,hexagon
379.0,8.0,4.0,1.0,1.0,1.0,400.9480079998866,1.0,1.0,phase_1,,,,,,,,,,,,,white,I
30.0,5.0,0.5,1.0,4.0,4.0,648.775723999961,1.0,1.0,phase_1,,,,,,,,,,,,,gray,flipped triangle
213.0,7.0,2.0,1.0,3.0,3.0,607.1398330000193,1.0,1.0,phase_1,,,,,,,,,,,,,orange,hexagon
70.0,5.0,0.5,1.0,2.0,2.0,579.8333440000079,1.0,1.0,phase_1,,,,,,,,,,,,,gray,flipped triangle
69.0,1.0,0.5,0.0,4.0,4.0,638.378553999928,1.0,1.0,phase_1,,,,,,,,,,,,,cyan,diamond
37.0,1.0,0.5,0.0,2.0,2.0,546.9855129999814,1.0,1.0,phase_1,,,,,,,,,,,,,cyan,diamond
214.0,7.0,2.0,1.0,3.0,3.0,431.4361369999915,1.0,1.0,phase_1,,,,,,,,,,,,,orange,hexagon
101.0,2.0,1.0,0.0,4.0,4.0,862.1121759999824,1.0,1.0,phase_1,,,,,,,,,,,,,green,square
48.0,1.0,0.5,0.0,1.0,1.0,413.1456919999436,1.0,1.0,phase_1,,,,,,,,,,,,,cyan,diamond
419.0,4.0,4.0,0.0,4.0,4.0,528.2515810001769,1.0,1.0,phase_1,,,,,,,,,,,,,magenta,circle
53.0,5.0,0.5,1.0,3.0,3.0,430.6311400000595,1.0,1.0,phase_1,,,,,,,,,,,,,gray,flipped triangle
386.0,4.0,4.0,0.0,1.0,1.0,308.0926899999667,1.0,1.0,phase_1,,,,,,,,,,,,,magenta,circle
37.0,5.0,0.5,1.0,3.0,3.0,335.986081999863,1.0,1.0,phase_1,,,,,,,,,,,,,gray,flipped triangle
416.0,8.0,4.0,1.0,4.0,4.0,650.686769999993,1.0,1.0,phase_1,,,,,,,,,,,,,white,I
50.0,5.0,0.5,1.0,1.0,1.0,575.6333489998724,1.0,1.0,phase_1,,,,,,,,,,,,,gray,flipped triangle
95.0,2.0,1.0,0.0,3.0,3.0,395.2946619999693,1.0,1.0,phase_1,,,,,,,,,,,,,green,square
205.0,3.0,2.0,0.0,2.0,2.0,301.2601880000147,1.0,1.0,phase_1,,,,,,,,,,,,,yellow,cross
124.0,2.0,1.0,0.0,1.0,1.0,580.6087909998041,1.0,1.0,phase_1,,,,,,,,,,,,,green,square
0.0,7.0,0.0,1.0,3.0,3.0,396.926583000095,1.0,1.0,phase_1,,,,,,,,,,,,,orange,hexagon
0.0,2.0,0.0,0.0,1.0,1.0,546.7092310000226,1.0,1.0,phase_1,,,,,,,,,,,,,green,square
39.0,1.0,0.5,0.0,3.0,3.0,356.4043359999687,1.0,1.0,phase_1,,,,,,,,,,,,,cyan,diamond
0.0,3.0,0.0,0.0,3.0,3.0,745.1508340000146,1.0,1.0,phase_1,,,,,,,,,,,,,yellow,cross
177.0,7.0,2.0,1.0,1.0,1.0,326.3581610001438,2.0,1.0,phase_1,,,,,,,,,,,,,orange,hexagon
0.0,8.0,0.0,1.0,1.0,1.0,408.1645529997786,2.0,1.0,phase_1,,,,,,,,,,,,,white,I
89.0,6.0,1.0,1.0,4.0,4.0,438.171642000043,2.0,1.0,phase_1,,,,,,,,,,,,,blue,triangle
0.0,4.0,0.0,0.0,4.0,4.0,414.8519930001839,2.0,1.0,phase_1,,,,,,,,,,,,,magenta,circle
207.0,3.0,2.0,0.0,2.0,2.0,374.1476060001787,2.0,1.0,phase_1,,,,,,,,,,,,,yellow,cross
71.0,1.0,0.5,0.0,2.0,2.0,510.144629000024,2.0,1.0,phase_1,,,,,,,,,,,,,cyan,diamond
75.0,5.0,0.5,1.0,1.0,1.0,471.8972570001369,2.0,1.0,phase_1,,,,,,,,,,,,,gray,flipped triangle
94.0,6.0,1.0,1.0,4.0,4.0,435.2212130002044,2.0,1.0,phase_1,,,,,,,,,,,,,blue,triangle
0.0,6.0,0.0,1.0,2.0,2.0,301.2587710002208,2.0,1.0,phase_1,,,,,,,,,,,,,blue,triangle
422.0,8.0,4.0,1.0,2.0,2.0,405.6988439999713,2.0,1.0,phase_1,,,,,,,,,,,,,white,I
416.0,4.0,4.0,0.0,2.0,2.0,357.4523280001358,2.0,1.0,phase_1,,,,,,,,,,,,,magenta,circle
87.0,6.0,1.0,1.0,3.0,3.0,333.5604669998702,2.0,1.0,phase_1,,,,,,,,,,,,,blue,triangle
101.0,6.0,1.0,1.0,3.0,3.0,321.3709259998722,2.0,1.0,phase_1,,,,,,,,,,,,,blue,triangle
216.0,3.0,2.0,0.0,1.0,1.0,319.1036509999776,2.0,1.0,phase_1,,,,,,,,,,,,,yellow,cross
40.0,1.0,0.5,0.0,4.0,4.0,359.6554540001762,2.0,1.0,phase_1,,,,,,,,,,,,,cyan,diamond
402.0,8.0,4.0,1.0,4.0,4.0,440.9730869999748,2.0,1.0,phase_1,,,,,,,,,,,,,white,I
406.0,8.0,4.0,1.0,4.0,4.0,431.3535809999393,2.0,1.0,phase_1,,,,,,,,,,,,,white,I
45.0,1.0,0.5,0.0,4.0,4.0,365.99911899998,2.0,1.0,phase_1,,,,,,,,,,,,,cyan,diamond
110.0,2.0,1.0,0.0,4.0,4.0,375.6692939998629,2.0,1.0,phase_1,,,,,,,,,,,,,green,square
91.0,2.0,1.0,0.0,3.0,3.0,422.91269500015,2.0,1.0,phase_1,,,,,,,,,,,,,green,square
0.0,5.0,0.0,1.0,3.0,3.0,368.0715489999784,2.0,1.0,phase_1,,,,,,,,,,,,,gray,flipped triangle
385.0,8.0,4.0,1.0,2.0,2.0,452.9883029999837,2.0,1.0,phase_1,,,,,,,,,,,,,white,I
0.0,7.0,0.0,1.0,2.0,2.0,384.5213740000872,2.0,1.0,phase_1,,,,,,,,,,,,,orange,hexagon
224.0,3.0,2.0,0.0,4.0,4.0,554.3083820000447,2.0,1.0,phase_1,,,,,,,,,,,,,yellow,cross
191.0,7.0,2.0,1.0,4.0,4.0,522.8943469999194,2.0,1.0,phase_1,,,,,,,,,,,,,orange,hexagon
417.0,4.0,4.0,0.0,3.0,3.0,489.693686999999,2.0,1.0,phase_1,,,,,,,,,,,,,magenta,circle
0.0,3.0,0.0,0.0,3.0,3.0,401.788439000029,2.0,1.0,phase_1,,,,,,,,,,,,,yellow,cross
392.0,4.0,4.0,0.0,4.0,4.0,578.7439050000103,2.0,1.0,phase_1,,,,,,,,,,,,,magenta,circle
186.0,3.0,2.0,0.0,3.0,3.0,471.3157109999883,2.0,1.0,phase_1,,,,,,,,,,,,,yellow,cross
186.0,7.0,2.0,1.0,4.0,4.0,457.5069039999562,2.0,1.0,phase_1,,,,,,,,,,,,,orange,hexagon
0.0,8.0,0.0,1.0,1.0,1.0,326.4150369998333,2.0,1.0,phase_1,,,,,,,,,,,,,white,I
393.0,8.0,4.0,1.0,4.0,4.0,462.6981579999665,2.0,1.0,phase_1,,,,,,,,,,,,,white,I
0.0,5.0,0.0,1.0,4.0,4.0,393.701055000065,2.0,1.0,phase_1,,,,,,,,,,,,,gray,flipped triangle
377.0,8.0,4.0,1.0,2.0,2.0,647.9309020000983,2.0,1.0,phase_1,,,,,,,,,,,,,white,I
0.0,4.0,0.0,0.0,3.0,3.0,592.6673540000138,2.0,1.0,phase_1,,,,,,,,,,,,,magenta,circle
190.0,7.0,2.0,1.0,4.0,4.0,467.1852789999775,2.0,1.0,phase_1,,,,,,,,,,,,,orange,hexagon
114.0,2.0,1.0,0.0,1.0,1.0,390.2044970000133,2.0,1.0,phase_1,,,,,,,,,,,,,green,square
41.0,1.0,0.5,0.0,2.0,2.0,426.9375139999738,2.0,1.0,phase_1,,,,,,,,,,,,,cyan,diamond
72.0,1.0,0.5,0.0,4.0,4.0,430.1952529999653,2.0,1.0,phase_1,,,,,,,,,,,,,cyan,diamond
119.0,2.0,1.0,0.0,2.0,2.0,544.2796280001403,2.0,1.0,phase_1,,,,,,,,,,,,,green,square
0.0,4.0,0.0,0.0,3.0,3.0,454.3146480000359,2.0,1.0,phase_1,,,,,,,,,,,,,magenta,circle
114.0,6.0,1.0,1.0,1.0,1.0,331.5901980001854,2.0,1.0,phase_1,,,,,,,,,,,,,blue,triangle
0.0,7.0,0.0,1.0,3.0,3.0,380.2592030001506,2.0,1.0,phase_1,,,,,,,,,,,,,orange,hexagon
378.0,8.0,4.0,1.0,3.0,3.0,376.9146969998473,2.0,1.0,phase_1,,,,,,,,,,,,,white,I
208.0,7.0,2.0,1.0,3.0,3.0,463.6592899998959,2.0,1.0,phase_1,,,,,,,,,,,,,orange,hexagon
177.0,3.0,2.0,0.0,3.0,3.0,414.0010000000984,2.0,1.0,phase_1,,,,,,,,,,,,,yellow,cross
402.0,4.0,4.0,0.0,2.0,2.0,475.5026180000641,2.0,1.0,phase_1,,,,,,,,,,,,,magenta,circle
0.0,3.0,0.0,0.0,1.0,1.0,413.7222809999912,2.0,1.0,phase_1,,,,,,,,,,,,,yellow,cross
0.0,8.0,0.0,1.0,3.0,3.0,583.6888759999965,2.0,1.0,phase_1,,,,,,,,,,,,,white,I
195.0,3.0,2.0,0.0,4.0,4.0,391.7296600000099,2.0,1.0,phase_1,,,,,,,,,,,,,yellow,cross
177.0,3.0,2.0,0.0,2.0,2.0,255.00732699993017,2.0,1.0,phase_1,,,,,,,,,,,,,yellow,cross
386.0,8.0,4.0,1.0,1.0,1.0,336.7347359999257,2.0,1.0,phase_1,,,,,,,,,,,,,white,I
379.0,4.0,4.0,0.0,3.0,3.0,283.3294370000203,2.0,1.0,phase_1,,,,,,,,,,,,,magenta,circle
123.0,2.0,1.0,0.0,2.0,2.0,460.8739410000453,2.0,1.0,phase_1,,,,,,,,,,,,,green,square
385.0,4.0,4.0,0.0,3.0,3.0,487.9353469998477,2.0,1.0,phase_1,,,,,,,,,,,,,magenta,circle
195.0,7.0,2.0,1.0,1.0,1.0,721.0248040000806,2.0,1.0,phase_1,,,,,,,,,,,,,orange,hexagon
391.0,8.0,4.0,1.0,4.0,4.0,561.66142699999,2.0,1.0,phase_1,,,,,,,,,,,,,white,I
408.0,8.0,4.0,1.0,1.0,1.0,617.0108480000636,2.0,1.0,phase_1,,,,,,,,,,,,,white,I
33.0,1.0,0.5,0.0,3.0,3.0,581.5432669999154,2.0,1.0,phase_1,,,,,,,,,,,,,cyan,diamond
47.0,5.0,0.5,1.0,2.0,2.0,427.6987279999957,2.0,2.0,phase_1,,,,,,,,,,,,,gray,flipped triangle
190.0,3.0,2.0,0.0,4.0,4.0,375.8442319999631,2.0,1.0,phase_1,,,,,,,,,,,,,yellow,cross
190.0,3.0,2.0,0.0,1.0,1.0,391.4737210000112,2.0,1.0,phase_1,,,,,,,,,,,,,yellow,cross
404.0,8.0,4.0,1.0,4.0,4.0,372.8736089999529,2.0,1.0,phase_1,,,,,,,,,,,,,white,I
28.0,5.0,0.5,1.0,3.0,3.0,310.1277470000241,2.0,1.0,phase_1,,,,,,,,,,,,,gray,flipped triangle
206.0,7.0,2.0,1.0,2.0,2.0,300.8728849999897,2.0,1.0,phase_1,,,,,,,,,,,,,orange,hexagon
43.0,1.0,0.5,0.0,3.0,3.0,276.539368000158,2.0,1.0,phase_1,,,,,,,,,,,,,cyan,diamond
217.0,3.0,2.0,0.0,1.0,1.0,297.2918650000338,2.0,1.0,phase_1,,,,,,,,,,,,,yellow,cross
411.0,8.0,4.0,1.0,1.0,1.0,406.9729309999275,2.0,1.0,phase_1,,,,,,,,,,,,,white,I
421.0,8.0,4.0,1.0,3.0,3.0,360.6440480000401,2.0,1.0,phase_1,,,,,,,,,,,,,white,I
0.0,2.0,0.0,0.0,4.0,4.0,575.0929269997869,2.0,1.0,phase_1,,,,,,,,,,,,,green,square
0.0,1.0,0.0,0.0,3.0,3.0,448.2889319999685,2.0,1.0,phase_1,,,,,,,,,,,,,cyan,diamond
80.0,2.0,1.0,0.0,1.0,1.0,298.9905310000722,2.0,1.0,phase_1,,,,,,,,,,,,,green,square
189.0,7.0,2.0,1.0,1.0,1.0,357.7795270000479,2.0,1.0,phase_1,,,,,,,,,,,,,orange,hexagon
404.0,4.0,4.0,0.0,3.0,3.0,343.8029839999217,2.0,1.0,phase_1,,,,,,,,,,,,,magenta,circle
0.0,3.0,0.0,0.0,2.0,2.0,283.8613499998246,2.0,1.0,phase_1,,,,,,,,,,,,,yellow,cross
40.0,5.0,0.5,1.0,4.0,4.0,321.3404110001647,2.0,1.0,phase_1,,,,,,,,,,,,,gray,flipped triangle
118.0,2.0,1.0,0.0,3.0,3.0,293.7958810000509,2.0,1.0,phase_1,,,,,,,,,,,,,green,square
96.0,6.0,1.0,1.0,2.0,2.0,312.5952230000166,2.0,2.0,phase_1,,,,,,,,,,,,,blue,triangle
108.0,2.0,1.0,0.0,4.0,4.0,490.672633000031,2.0,1.0,phase_1,,,,,,,,,,,,,green,square
77.0,2.0,1.0,0.0,3.0,3.0,364.3749450000086,2.0,1.0,phase_1,,,,,,,,,,,,,green,square
69.0,5.0,0.5,1.0,1.0,1.0,371.5209219999451,2.0,1.0,phase_1,,,,,,,,,,,,,gray,flipped triangle
69.0,1.0,0.5,0.0,1.0,1.0,467.0814570001766,2.0,1.0,phase_1,,,,,,,,,,,,,cyan,diamond
0.0,2.0,0.0,0.0,3.0,3.0,583.6723769998571,2.0,1.0,phase_1,,,,,,,,,,,,,green,square
72.0,5.0,0.5,1.0,3.0,3.0,397.9420880000361,2.0,1.0,phase_1,,,,,,,,,,,,,gray,flipped triangle
122.0,2.0,1.0,0.0,3.0,3.0,615.2006830000118,2.0,1.0,phase_1,,,,,,,,,,,,,green,square
105.0,2.0,1.0,0.0,3.0,3.0,379.8203190001459,2.0,1.0,phase_1,,,,,,,,,,,,,green,square
66.0,1.0,0.5,0.0,3.0,3.0,363.6352109999734,2.0,1.0,phase_1,,,,,,,,,,,,,cyan,diamond
103.0,6.0,1.0,1.0,2.0,2.0,416.7837090001285,2.0,1.0,phase_1,,,,,,,,,,,,,blue,triangle
408.0,8.0,4.0,1.0,2.0,2.0,705.7812120001472,2.0,1.0,phase_1,,,,,,,,,,,,,white,I
0.0,7.0,0.0,1.0,1.0,1.0,317.4242659999891,2.0,1.0,phase_1,,,,,,,,,,,,,orange,hexagon
420.0,4.0,4.0,0.0,2.0,2.0,428.8813139999092,2.0,1.0,phase_1,,,,,,,,,,,,,magenta,circle
39.0,5.0,0.5,1.0,2.0,2.0,294.6013289999882,2.0,1.0,phase_1,,,,,,,,,,,,,gray,flipped triangle
418.0,8.0,4.0,1.0,4.0,4.0,600.704018999977,2.0,1.0,phase_1,,,,,,,,,,,,,white,I
64.0,5.0,0.5,1.0,1.0,1.0,490.2332389999628,2.0,1.0,phase_1,,,,,,,,,,,,,gray,flipped triangle
89.0,6.0,1.0,1.0,3.0,3.0,543.3055620001142,2.0,1.0,phase_1,,,,,,,,,,,,,blue,triangle
58.0,1.0,0.5,0.0,1.0,1.0,553.5419970001385,2.0,1.0,phase_1,,,,,,,,,,,,,cyan,diamond
102.0,6.0,1.0,1.0,2.0,2.0,510.461813999882,2.0,1.0,phase_1,,,,,,,,,,,,,blue,triangle
211.0,7.0,2.0,1.0,3.0,3.0,372.3323009999149,2.0,1.0,phase_1,,,,,,,,,,,,,orange,hexagon
397.0,4.0,4.0,0.0,2.0,2.0,393.7863450000805,2.0,1.0,phase_1,,,,,,,,,,,,,magenta,circle
380.0,4.0,4.0,0.0,2.0,2.0,348.910842999885,2.0,1.0,phase_1,,,,,,,,,,,,,magenta,circle
90.0,2.0,1.0,0.0,4.0,4.0,406.0643169998457,3.0,1.0,phase_1,,,,,,,,,,,,,green,square
27.0,1.0,0.5,0.0,4.0,4.0,424.2071849998865,3.0,1.0,phase_1,,,,,,,,,,,,,cyan,diamond
80.0,2.0,1.0,0.0,2.0,2.0,473.9071710000644,3.0,1.0,phase_1,,,,,,,,,,,,,green,square
184.0,3.0,2.0,0.0,4.0,4.0,338.2639189999281,3.0,1.0,phase_1,,,,,,,,,,,,,yellow,cross
123.0,6.0,1.0,1.0,2.0,2.0,322.7544960000159,3.0,1.0,phase_1,,,,,,,,,,,,,blue,triangle
197.0,3.0,2.0,0.0,2.0,2.0,343.1382809999377,3.0,1.0,phase_1,,,,,,,,,,,,,yellow,cross
411.0,4.0,4.0,0.0,1.0,1.0,539.1249970000445,3.0,1.0,phase_1,,,,,,,,,,,,,magenta,circle
86.0,6.0,1.0,1.0,3.0,3.0,305.2596219999941,3.0,1.0,phase_1,,,,,,,,,,,,,blue,triangle
80.0,6.0,1.0,1.0,2.0,2.0,275.4526629998963,3.0,1.0,phase_1,,,,,,,,,,,,,blue,triangle
207.0,7.0,2.0,1.0,1.0,1.0,561.6949949999253,3.0,1.0,phase_1,,,,,,,,,,,,,orange,hexagon
76.0,6.0,1.0,1.0,4.0,4.0,372.3016179999376,3.0,1.0,phase_1,,,,,,,,,,,,,blue,triangle
223.0,3.0,2.0,0.0,1.0,1.0,526.8720789999861,3.0,1.0,phase_1,,,,,,,,,,,,,yellow,cross
58.0,1.0,0.5,0.0,2.0,2.0,506.281417000082,3.0,1.0,phase_1,,,,,,,,,,,,,cyan,diamond
0.0,8.0,0.0,1.0,3.0,3.0,493.5557520000202,3.0,1.0,phase_1,,,,,,,,,,,,,white,I
0.0,1.0,0.0,0.0,4.0,4.0,510.6679959999383,3.0,1.0,phase_1,,,,,,,,,,,,,cyan,diamond
32.0,5.0,0.5,1.0,2.0,2.0,770.1274840001133,3.0,1.0,phase_1,,,,,,,,,,,,,gray,flipped triangle
47.0,1.0,0.5,0.0,1.0,1.0,457.7440109999315,3.0,1.0,phase_1,,,,,,,,,,,,,cyan,diamond
28.0,1.0,0.5,0.0,1.0,1.0,530.1323290000255,3.0,1.0,phase_1,,,,,,,,,,,,,cyan,diamond
0.0,1.0,0.0,0.0,4.0,4.0,648.8986039998963,3.0,1.0,phase_1,,,,,,,,,,,,,cyan,diamond
89.0,2.0,1.0,0.0,4.0,4.0,507.99336599993694,3.0,1.0,phase_1,,,,,,,,,,,,,green,square
36.0,1.0,0.5,0.0,3.0,3.0,304.3372380000164,3.0,1.0,phase_1,,,,,,,,,,,,,cyan,diamond
0.0,3.0,0.0,0.0,2.0,2.0,377.1635400000832,3.0,1.0,phase_1,,,,,,,,,,,,,yellow,cross
83.0,2.0,1.0,0.0,3.0,3.0,549.7997150000629,3.0,1.0,phase_1,,,,,,,,,,,,,green,square
53.0,1.0,0.5,0.0,3.0,3.0,558.5961019999104,3.0,1.0,phase_1,,,,,,,,,,,,,cyan,diamond
217.0,7.0,2.0,1.0,3.0,3.0,392.0130799999697,3.0,1.0,phase_1,,,,,,,,,,,,,orange,hexagon
108.0,6.0,1.0,1.0,3.0,3.0,352.2114800000508,3.0,1.0,phase_1,,,,,,,,,,,,,blue,triangle
27.0,5.0,0.5,1.0,4.0,4.0,421.7536920000384,3.0,1.0,phase_1,,,,,,,,,,,,,gray,flipped triangle
0.0,8.0,0.0,1.0,3.0,3.0,394.7607029999744,3.0,1.0,phase_1,,,,,,,,,,,,,white,I
33.0,5.0,0.5,1.0,1.0,1.0,525.4125649998969,3.0,1.0,phase_1,,,,,,,,,,,,,gray,flipped triangle
96.0,2.0,1.0,0.0,3.0,3.0,295.3332889999274,3.0,1.0,phase_1,,,,,,,,,,,,,green,square
0.0,6.0,0.0,1.0,4.0,4.0,323.4415699998862,3.0,1.0,phase_1,,,,,,,,,,,,,blue,triangle
201.0,7.0,2.0,1.0,2.0,2.0,246.039582000094,3.0,1.0,phase_1,,,,,,,,,,,,,orange,hexagon
421.0,4.0,4.0,0.0,1.0,1.0,589.4177050001872,3.0,1.0,phase_1,,,,,,,,,,,,,magenta,circle
203.0,3.0,2.0,0.0,3.0,3.0,329.0962710000258,3.0,1.0,phase_1,,,,,,,,,,,,,yellow,cross
105.0,2.0,1.0,0.0,1.0,1.0,307.9104759999609,3.0,1.0,phase_1,,,,,,,,,,,,,green,square
115.0,2.0,1.0,0.0,4.0,4.0,347.213322000016,3.0,1.0,phase_1,,,,,,,,,,,,,green,square
0.0,6.0,0.0,1.0,3.0,3.0,455.7330239999828,3.0,1.0,phase_1,,,,,,,,,,,,,blue,triangle
376.0,8.0,4.0,1.0,1.0,1.0,578.6895279998134,3.0,1.0,phase_1,,,,,,,,,,,,,white,I
218.0,3.0,2.0,0.0,3.0,3.0,286.7833650000193,3.0,1.0,phase_1,,,,,,,,,,,,,yellow,cross
421.0,8.0,4.0,1.0,3.0,3.0,670.3564889999143,3.0,1.0,phase_1,,,,,,,,,,,,,white,I
43.0,5.0,0.5,1.0,1.0,1.0,483.8559240001814,3.0,1.0,phase_1,,,,,,,,,,,,,gray,flipped triangle
0.0,3.0,0.0,0.0,3.0,3.0,553.35863099981,3.0,1.0,phase_1,,,,,,,,,,,,,yellow,cross
62.0,5.0,0.5,1.0,1.0,1.0,458.1789539997771,3.0,1.0,phase_1,,,,,,,,,,,,,gray,flipped triangle
36.0,1.0,0.5,0.0,2.0,2.0,480.5962159998671,3.0,1.0,phase_1,,,,,,,,,,,,,cyan,diamond
402.0,4.0,4.0,0.0,4.0,4.0,689.5764250000411,3.0,1.0,phase_1,,,,,,,,,,,,,magenta,circle
69.0,5.0,0.5,1.0,2.0,2.0,579.5397270001104,3.0,1.0,phase_1,,,,,,,,,,,,,gray,flipped triangle
115.0,6.0,1.0,1.0,1.0,1.0,410.02847499999,3.0,1.0,phase_1,,,,,,,,,,,,,blue,triangle
0.0,8.0,0.0,1.0,4.0,4.0,513.1375539999681,3.0,1.0,phase_1,,,,,,,,,,,,,white,I
420.0,4.0,4.0,0.0,3.0,3.0,541.3270500000635,3.0,1.0,phase_1,,,,,,,,,,,,,magenta,circle
0.0,5.0,0.0,1.0,3.0,3.0,703.4936069999276,3.0,1.0,phase_1,,,,,,,,,,,,,gray,flipped triangle
201.0,3.0,2.0,0.0,2.0,2.0,385.1018640000347,3.0,1.0,phase_1,,,,,,,,,,,,,yellow,cross
407.0,8.0,4.0,1.0,4.0,4.0,439.6063289998437,3.0,1.0,phase_1,,,,,,,,,,,,,white,I
112.0,2.0,1.0,0.0,1.0,1.0,640.3937100001258,3.0,1.0,phase_1,,,,,,,,,,,,,green,square
0.0,2.0,0.0,0.0,2.0,2.0,587.59004500007,3.0,1.0,phase_1,,,,,,,,,,,,,green,square
124.0,6.0,1.0,1.0,1.0,1.0,526.4241700001548,3.0,1.0,phase_1,,,,,,,,,,,,,blue,triangle
418.0,4.0,4.0,0.0,3.0,3.0,416.4484000000357,3.0,1.0,phase_1,,,,,,,,,,,,,magenta,circle
218.0,7.0,2.0,1.0,1.0,1.0,357.0592270000361,3.0,1.0,phase_1,,,,,,,,,,,,,orange,hexagon
187.0,7.0,2.0,1.0,4.0,4.0,564.0157360001012,3.0,1.0,phase_1,,,,,,,,,,,,,orange,hexagon
0.0,8.0,0.0,1.0,2.0,2.0,427.0319269999163,3.0,1.0,phase_1,,,,,,,,,,,,,white,I
214.0,3.0,2.0,0.0,4.0,4.0,302.8106940000725,3.0,1.0,phase_1,,,,,,,,,,,,,yellow,cross
188.0,7.0,2.0,1.0,2.0,2.0,393.89088300004,3.0,1.0,phase_1,,,,,,,,,,,,,orange,hexagon
66.0,1.0,0.5,0.0,3.0,3.0,341.0049619999427,3.0,2.0,phase_1,,,,,,,,,,,,,cyan,diamond
49.0,1.0,0.5,0.0,1.0,1.0,518.9613989998634,3.0,1.0,phase_1,,,,,,,,,,,,,cyan,diamond
213.0,3.0,2.0,0.0,4.0,4.0,486.0773899999913,3.0,1.0,phase_1,,,,,,,,,,,,,yellow,cross
392.0,8.0,4.0,1.0,1.0,1.0,489.9987700000565,3.0,1.0,phase_1,,,,,,,,,,,,,white,I
77.0,6.0,1.0,1.0,4.0,4.0,374.2585780000809,3.0,1.0,phase_1,,,,,,,,,,,,,blue,triangle
45.0,5.0,0.5,1.0,4.0,4.0,377.4291779998293,3.0,1.0,phase_1,,,,,,,,,,,,,gray,flipped triangle
397.0,8.0,4.0,1.0,2.0,2.0,390.5356140001004,3.0,1.0,phase_1,,,,,,,,,,,,,white,I
385.0,4.0,4.0,0.0,1.0,1.0,474.8852660000011,3.0,1.0,phase_1,,,,,,,,,,,,,magenta,circle
29.0,5.0,0.5,1.0,3.0,3.0,406.3549709999279,3.0,1.0,phase_1,,,,,,,,,,,,,gray,flipped triangle
0.0,4.0,0.0,0.0,2.0,2.0,439.6219780001047,3.0,1.0,phase_1,,,,,,,,,,,,,magenta,circle
391.0,4.0,4.0,0.0,3.0,3.0,345.4775080001582,3.0,1.0,phase_1,,,,,,,,,,,,,magenta,circle
86.0,2.0,1.0,0.0,1.0,1.0,515.5096580001555,3.0,1.0,phase_1,,,,,,,,,,,,,green,square
0.0,2.0,0.0,0.0,3.0,3.0,372.4502200000188,3.0,1.0,phase_1,,,,,,,,,,,,,green,square
0.0,8.0,0.0,1.0,1.0,1.0,451.5871779999543,3.0,1.0,phase_1,,,,,,,,,,,,,white,I
87.0,6.0,1.0,1.0,3.0,3.0,278.3646940001745,3.0,1.0,phase_1,,,,,,,,,,,,,blue,triangle
108.0,2.0,1.0,0.0,1.0,1.0,439.0107919998627,3.0,1.0,phase_1,,,,,,,,,,,,,green,square
222.0,7.0,2.0,1.0,4.0,4.0,485.0412769999366,3.0,1.0,phase_1,,,,,,,,,,,,,orange,hexagon
117.0,2.0,1.0,0.0,1.0,1.0,559.2683279999164,3.0,1.0,phase_1,,,,,,,,,,,,,green,square
189.0,3.0,2.0,0.0,2.0,2.0,420.1267640000878,3.0,1.0,phase_1,,,,,,,,,,,,,yellow,cross
0.0,5.0,0.0,1.0,1.0,1.0,690.3165789999548,3.0,1.0,phase_1,,,,,,,,,,,,,gray,flipped triangle
397.0,8.0,4.0,1.0,3.0,3.0,669.2832819999239,3.0,1.0,phase_1,,,,,,,,,,,,,white,I
403.0,4.0,4.0,0.0,4.0,4.0,488.2978990001447,3.0,1.0,phase_1,,,,,,,,,,,,,magenta,circle
211.0,3.0,2.0,0.0,3.0,3.0,337.1529099999861,3.0,1.0,phase_1,,,,,,,,,,,,,yellow,cross
378.0,4.0,4.0,0.0,2.0,2.0,513.0314339999131,3.0,1.0,phase_1,,,,,,,,,,,,,magenta,circle
39.0,5.0,0.5,1.0,1.0,1.0,627.2471089998817,3.0,1.0,phase_1,,,,,,,,,,,,,gray,flipped triangle
180.0,7.0,2.0,1.0,4.0,4.0,370.2901940000629,3.0,1.0,phase_1,,,,,,,,,,,,,orange,hexagon
84.0,2.0,1.0,0.0,2.0,2.0,541.9116059999851,3.0,1.0,phase_1,,,,,,,,,,,,,green,square
215.0,3.0,2.0,0.0,4.0,4.0,609.9423879998085,3.0,1.0,phase_1,,,,,,,,,,,,,yellow,cross
0.0,2.0,0.0,0.0,2.0,2.0,518.5735620000287,3.0,1.0,phase_1,,,,,,,,,,,,,green,square
195.0,3.0,2.0,0.0,2.0,2.0,389.0733860000637,3.0,1.0,phase_1,,,,,,,,,,,,,yellow,cross
91.0,6.0,1.0,1.0,1.0,1.0,370.9861490001458,3.0,1.0,phase_1,,,,,,,,,,,,,blue,triangle
422.0,4.0,4.0,0.0,1.0,1.0,429.9849540000195,3.0,1.0,phase_1,,,,,,,,,,,,,magenta,circle
112.0,6.0,1.0,1.0,4.0,4.0,501.05347499993513,3.0,1.0,phase_1,,,,,,,,,,,,,blue,triangle
119.0,6.0,1.0,1.0,4.0,4.0,378.4314219999487,3.0,1.0,phase_1,,,,,,,,,,,,,blue,triangle
57.0,1.0,0.5,0.0,1.0,1.0,559.4849739998153,3.0,1.0,phase_1,,,,,,,,,,,,,cyan,diamond
71.0,5.0,0.5,1.0,3.0,3.0,562.1574009999222,3.0,1.0,phase_1,,,,,,,,,,,,,gray,flipped triangle
0.0,7.0,0.0,1.0,3.0,3.0,425.6407790001049,3.0,1.0,phase_1,,,,,,,,,,,,,orange,hexagon
0.0,7.0,0.0,1.0,1.0,1.0,369.9176689999603,3.0,1.0,phase_1,,,,,,,,,,,,,orange,hexagon
409.0,8.0,4.0,1.0,3.0,3.0,402.9603520000364,3.0,1.0,phase_1,,,,,,,,,,,,,white,I
64.0,1.0,0.5,0.0,1.0,1.0,38.7047379999785,4.0,1.0,phase_1,,,,,,,,,,,,,cyan,diamond
177.0,7.0,2.0,1.0,2.0,2.0,444.269684999881,4.0,1.0,phase_1,,,,,,,,,,,,,orange,hexagon
53.0,5.0,0.5,1.0,3.0,3.0,555.3340129999924,4.0,1.0,phase_1,,,,,,,,,,,,,gray,flipped triangle
0.0,4.0,0.0,0.0,1.0,1.0,408.1614090000585,4.0,1.0,phase_1,,,,,,,,,,,,,magenta,circle
407.0,4.0,4.0,0.0,1.0,1.0,397.2855689999051,4.0,1.0,phase_1,,,,,,,,,,,,,magenta,circle
58.0,5.0,0.5,1.0,4.0,4.0,408.6055340001167,4.0,1.0,phase_1,,,,,,,,,,,,,gray,flipped triangle
210.0,3.0,2.0,0.0,3.0,3.0,456.7028619999291,4.0,1.0,phase_1,,,,,,,,,,,,,yellow,cross
190.0,3.0,2.0,0.0,3.0,3.0,438.7008450000849,4.0,1.0,phase_1,,,,,,,,,,,,,yellow,cross
376.0,4.0,4.0,0.0,2.0,2.0,543.3543200001623,4.0,1.0,phase_1,,,,,,,,,,,,,magenta,circle
384.0,8.0,4.0,1.0,3.0,3.0,418.5212950001187,4.0,1.0,phase_1,,,,,,,,,,,,,white,I
36.0,5.0,0.5,1.0,2.0,2.0,382.7060920000349,4.0,1.0,phase_1,,,,,,,,,,,,,gray,flipped triangle
222.0,3.0,2.0,0.0,4.0,4.0,362.9625010000836,4.0,1.0,phase_1,,,,,,,,,,,,,yellow,cross
118.0,6.0,1.0,1.0,3.0,3.0,373.2016720000501,4.0,1.0,phase_1,,,,,,,,,,,,,blue,triangle
79.0,2.0,1.0,0.0,1.0,1.0,560.9096580001278,4.0,1.0,phase_1,,,,,,,,,,,,,green,square
119.0,6.0,1.0,1.0,3.0,3.0,449.9955030000819,4.0,2.0,phase_1,,,,,,,,,,,,,blue,triangle
30.0,1.0,0.5,0.0,2.0,2.0,595.7893130000684,4.0,1.0,phase_1,,,,,,,,,,,,,cyan,diamond
393.0,4.0,4.0,0.0,4.0,4.0,323.2798100000309,4.0,1.0,phase_1,,,,,,,,,,,,,magenta,circle
119.0,2.0,1.0,0.0,3.0,3.0,492.730704999758,4.0,1.0,phase_1,,,,,,,,,,,,,green,square
115.0,2.0,1.0,0.0,4.0,4.0,387.2244750000391,4.0,1.0,phase_1,,,,,,,,,,,,,green,square
420.0,8.0,4.0,1.0,2.0,2.0,317.1434219998446,4.0,1.0,phase_1,,,,,,,,,,,,,white,I
216.0,7.0,2.0,1.0,2.0,2.0,353.3848729998681,4.0,1.0,phase_1,,,,,,,,,,,,,orange,hexagon
385.0,8.0,4.0,1.0,2.0,2.0,331.6996879998442,4.0,1.0,phase_1,,,,,,,,,,,,,white,I
0.0,4.0,0.0,0.0,3.0,3.0,355.3122439998333,4.0,1.0,phase_1,,,,,,,,,,,,,magenta,circle
194.0,3.0,2.0,0.0,1.0,1.0,352.14839199989,4.0,2.0,phase_1,,,,,,,,,,,,,yellow,cross
87.0,2.0,1.0,0.0,1.0,1.0,395.0804800001606,4.0,1.0,phase_1,,,,,,,,,,,,,green,square
76.0,2.0,1.0,0.0,4.0,4.0,438.3833520000735,4.0,1.0,phase_1,,,,,,,,,,,,,green,square
50.0,1.0,0.5,0.0,4.0,4.0,596.1791599997923,4.0,1.0,phase_1,,,,,,,,,,,,,cyan,diamond
89.0,2.0,1.0,0.0,2.0,2.0,645.8726669998214,4.0,1.0,phase_1,,,,,,,,,,,,,green,square
115.0,6.0,1.0,1.0,2.0,2.0,513.1445160000112,4.0,1.0,phase_1,,,,,,,,,,,,,blue,triangle
66.0,5.0,0.5,1.0,2.0,2.0,457.3474220001117,4.0,1.0,phase_1,,,,,,,,,,,,,gray,flipped triangle
53.0,5.0,0.5,1.0,4.0,4.0,428.0887709996932,4.0,2.0,phase_1,,,,,,,,,,,,,gray,flipped triangle
411.0,4.0,4.0,0.0,2.0,2.0,569.3178610003997,4.0,1.0,phase_1,,,,,,,,,,,,,magenta,circle
397.0,8.0,4.0,1.0,4.0,4.0,360.5487710001398,4.0,1.0,phase_1,,,,,,,,,,,,,white,I
386.0,4.0,4.0,0.0,2.0,2.0,302.2174669999913,4.0,1.0,phase_1,,,,,,,,,,,,,magenta,circle
0.0,8.0,0.0,1.0,2.0,2.0,428.7771219997012,4.0,1.0,phase_1,,,,,,,,,,,,,white,I
175.0,7.0,2.0,1.0,1.0,1.0,503.8662269998895,4.0,1.0,phase_1,,,,,,,,,,,,,orange,hexagon
406.0,4.0,4.0,0.0,4.0,4.0,413.7502839998888,4.0,1.0,phase_1,,,,,,,,,,,,,magenta,circle
0.0,1.0,0.0,0.0,3.0,3.0,398.8149279998652,4.0,1.0,phase_1,,,,,,,,,,,,,cyan,diamond
105.0,6.0,1.0,1.0,1.0,1.0,305.6609499999467,4.0,1.0,phase_1,,,,,,,,,,,,,blue,triangle
60.0,5.0,0.5,1.0,2.0,2.0,464.6224019998044,4.0,1.0,phase_1,,,,,,,,,,,,,gray,flipped triangle
0.0,5.0,0.0,1.0,3.0,3.0,430.6753910000225,4.0,2.0,phase_1,,,,,,,,,,,,,gray,flipped triangle
0.0,3.0,0.0,0.0,4.0,4.0,434.3929059996299,4.0,1.0,phase_1,,,,,,,,,,,,,yellow,cross
0.0,6.0,0.0,1.0,1.0,1.0,584.1458069999135,4.0,1.0,phase_1,,,,,,,,,,,,,blue,triangle
0.0,3.0,0.0,0.0,2.0,2.0,412.3747939997884,4.0,1.0,phase_1,,,,,,,,,,,,,yellow,cross
215.0,3.0,2.0,0.0,1.0,1.0,468.11357499973377,4.0,1.0,phase_1,,,,,,,,,,,,,yellow,cross
84.0,6.0,1.0,1.0,1.0,1.0,451.8151610000132,4.0,1.0,phase_1,,,,,,,,,,,,,blue,triangle
403.0,8.0,4.0,1.0,4.0,4.0,542.2844909999185,4.0,1.0,phase_1,,,,,,,,,,,,,white,I
0.0,6.0,0.0,1.0,2.0,2.0,371.5412389997254,4.0,1.0,phase_1,,,,,,,,,,,,,blue,triangle
0.0,1.0,0.0,0.0,1.0,1.0,346.6467420003027,4.0,1.0,phase_1,,,,,,,,,,,,,cyan,diamond
185.0,7.0,2.0,1.0,4.0,4.0,550.9647999997469,4.0,1.0,phase_1,,,,,,,,,,,,,orange,hexagon
109.0,6.0,1.0,1.0,3.0,3.0,672.8800840000986,4.0,1.0,phase_1,,,,,,,,,,,,,blue,triangle
27.0,1.0,0.5,0.0,3.0,3.0,503.26026400034607,4.0,1.0,phase_1,,,,,,,,,,,,,cyan,diamond
57.0,5.0,0.5,1.0,1.0,1.0,470.1160719996551,4.0,2.0,phase_1,,,,,,,,,,,,,gray,flipped triangle
178.0,7.0,2.0,1.0,2.0,2.0,495.0612849997924,4.0,1.0,phase_1,,,,,,,,,,,,,orange,hexagon
74.0,5.0,0.5,1.0,1.0,1.0,506.3830860003691,4.0,1.0,phase_1,,,,,,,,,,,,,gray,flipped triangle
187.0,3.0,2.0,0.0,2.0,2.0,433.5307080000348,4.0,1.0,phase_1,,,,,,,,,,,,,yellow,cross
112.0,2.0,1.0,0.0,2.0,2.0,385.8053589997325,4.0,1.0,phase_1,,,,,,,,,,,,,green,square
69.0,1.0,0.5,0.0,3.0,3.0,542.9945360001511,4.0,1.0,phase_1,,,,,,,,,,,,,cyan,diamond
384.0,4.0,4.0,0.0,3.0,3.0,464.7572029998628,4.0,1.0,phase_1,,,,,,,,,,,,,magenta,circle
0.0,7.0,0.0,1.0,3.0,3.0,307.7634159999434,4.0,1.0,phase_1,,,,,,,,,,,,,orange,hexagon
83.0,6.0,1.0,1.0,2.0,2.0,523.6211030000959,4.0,1.0,phase_1,,,,,,,,,,,,,blue,triangle
103.0,2.0,1.0,0.0,2.0,2.0,639.5742579998114,4.0,1.0,phase_1,,,,,,,,,,,,,green,square
395.0,4.0,4.0,0.0,4.0,4.0,455.0725809999676,4.0,1.0,phase_1,,,,,,,,,,,,,magenta,circle
411.0,8.0,4.0,1.0,3.0,3.0,497.1327609996478,4.0,1.0,phase_1,,,,,,,,,,,,,white,I
205.0,7.0,2.0,1.0,4.0,4.0,425.6313099999715,4.0,1.0,phase_1,,,,,,,,,,,,,orange,hexagon
0.0,6.0,0.0,1.0,4.0,4.0,439.1273720002573,4.0,1.0,phase_1,,,,,,,,,,,,,blue,triangle
377.0,4.0,4.0,0.0,4.0,4.0,546.9234219999635,4.0,1.0,phase_1,,,,,,,,,,,,,magenta,circle
0.0,7.0,0.0,1.0,4.0,4.0,498.1393010002648,4.0,1.0,phase_1,,,,,,,,,,,,,orange,hexagon
421.0,4.0,4.0,0.0,1.0,1.0,549.2419020001762,4.0,1.0,phase_1,,,,,,,,,,,,,magenta,circle
108.0,6.0,1.0,1.0,1.0,1.0,548.9288959997793,4.0,1.0,phase_1,,,,,,,,,,,,,blue,triangle
224.0,7.0,2.0,1.0,1.0,1.0,658.2578110001123,4.0,1.0,phase_1,,,,,,,,,,,,,orange,hexagon
178.0,3.0,2.0,0.0,4.0,4.0,597.8478229999382,4.0,1.0,phase_1,,,,,,,,,,,,,yellow,cross
70.0,1.0,0.5,0.0,4.0,4.0,432.50914500004,4.0,1.0,phase_1,,,,,,,,,,,,,cyan,diamond
190.0,7.0,2.0,1.0,3.0,3.0,586.7603839997173,4.0,1.0,phase_1,,,,,,,,,,,,,orange,hexagon
49.0,5.0,0.5,1.0,4.0,4.0,464.2194559996824,4.0,2.0,phase_1,,,,,,,,,,,,,gray,flipped triangle
74.0,1.0,0.5,0.0,4.0,4.0,543.0451020001783,4.0,1.0,phase_1,,,,,,,,,,,,,cyan,diamond
0.0,1.0,0.0,0.0,3.0,3.0,436.6106259999469,4.0,1.0,phase_1,,,,,,,,,,,,,cyan,diamond
402.0,8.0,4.0,1.0,3.0,3.0,501.16918100002295,4.0,1.0,phase_1,,,,,,,,,,,,,white,I
190.0,7.0,2.0,1.0,4.0,4.0,609.0061740001147,4.0,1.0,phase_1,,,,,,,,,,,,,orange,hexagon
409.0,4.0,4.0,0.0,2.0,2.0,337.0757389998289,4.0,1.0,phase_1,,,,,,,,,,,,,magenta,circle
0.0,6.0,0.0,1.0,3.0,3.0,429.5730130002084,4.0,1.0,phase_1,,,,,,,,,,,,,blue,triangle
408.0,4.0,4.0,0.0,4.0,4.0,446.3742459997775,4.0,1.0,phase_1,,,,,,,,,,,,,magenta,circle
223.0,7.0,2.0,1.0,2.0,2.0,411.2527379998028,4.0,1.0,phase_1,,,,,,,,,,,,,orange,hexagon
206.0,3.0,2.0,0.0,2.0,2.0,346.1353820002841,4.0,1.0,phase_1,,,,,,,,,,,,,yellow,cross
75.0,1.0,0.5,0.0,3.0,3.0,382.2471930002393,4.0,1.0,phase_1,,,,,,,,,,,,,cyan,diamond
27.0,5.0,0.5,1.0,4.0,4.0,450.7474079996427,4.0,1.0,phase_1,,,,,,,,,,,,,gray,flipped triangle
175.0,3.0,2.0,0.0,1.0,1.0,452.7117379998344,4.0,1.0,phase_1,,,,,,,,,,,,,yellow,cross
185.0,3.0,2.0,0.0,1.0,1.0,485.3339510000296,4.0,1.0,phase_1,,,,,,,,,,,,,yellow,cross
184.0,7.0,2.0,1.0,1.0,1.0,664.4573840003432,4.0,1.0,phase_1,,,,,,,,,,,,,orange,hexagon
397.0,4.0,4.0,0.0,1.0,1.0,490.2827089999846,4.0,1.0,phase_1,,,,,,,,,,,,,magenta,circle
0.0,2.0,0.0,0.0,2.0,2.0,639.8816070000066,4.0,1.0,phase_1,,,,,,,,,,,,,green,square
83.0,6.0,1.0,1.0,4.0,4.0,317.9666969999744,4.0,1.0,phase_1,,,,,,,,,,,,,blue,triangle
102.0,2.0,1.0,0.0,2.0,2.0,355.9580999999525,4.0,1.0,phase_1,,,,,,,,,,,,,green,square
110.0,6.0,1.0,1.0,1.0,1.0,363.3495370004311,4.0,1.0,phase_1,,,,,,,,,,,,,blue,triangle
95.0,6.0,1.0,1.0,1.0,1.0,396.1836769999536,4.0,1.0,phase_1,,,,,,,,,,,,,blue,triangle
195.0,7.0,2.0,1.0,2.0,2.0,284.0255109999816,4.0,1.0,phase_1,,,,,,,,,,,,,orange,hexagon
0.0,2.0,0.0,0.0,2.0,2.0,299.1161319996536,4.0,1.0,phase_1,,,,,,,,,,,,,green,square
53.0,1.0,0.5,0.0,2.0,2.0,313.9748409998901,4.0,1.0,phase_1,,,,,,,,,,,,,cyan,diamond
0.0,6.0,0.0,1.0,4.0,4.0,454.6787749995928,4.0,1.0,phase_1,,,,,,,,,,,,,blue,triangle
188.0,3.0,2.0,0.0,3.0,3.0,488.5822960000041,4.0,1.0,phase_1,,,,,,,,,,,,,yellow,cross
0.0,1.0,0.5,0.0,6.0,6.0,404.1467649999504,1.0,1.0,phase_2,go,250.0,250.0,1.0,,,,,,,,,cyan,diamond
0.0,5.0,0.5,1.0,6.0,6.0,415.2156239997566,1.0,1.0,phase_2,stop,250.0,250.0,3.0,,,,,,,,,gray,flipped triangle
0.0,3.0,2.0,0.0,6.0,6.0,446.3535810000394,1.0,1.0,phase_2,go,250.0,200.0,1.0,,,,,,,,,yellow,cross
0.0,4.0,4.0,0.0,5.0,5.0,443.2667599999149,1.0,1.0,phase_2,go,250.0,200.0,1.0,,,,,,,,,magenta,circle
0.0,5.0,0.5,1.0,6.0,0.0,0.0,1.0,1.0,phase_2,stop,250.0,200.0,4.0,,,,,,,,,gray,flipped triangle
0.0,7.0,2.0,1.0,6.0,0.0,0.0,1.0,1.0,phase_2,stop,250.0,250.0,4.0,,,,,,,,,orange,hexagon
0.0,3.0,2.0,0.0,5.0,5.0,564.32536300008,1.0,1.0,phase_2,go,250.0,300.0,1.0,,,,,,,,,yellow,cross
0.0,7.0,2.0,1.0,5.0,0.0,0.0,1.0,1.0,phase_2,stop,250.0,300.0,4.0,,,,,,,,,orange,hexagon
0.0,6.0,1.0,1.0,6.0,0.0,0.0,1.0,1.0,phase_2,stop,300.0,300.0,4.0,,,,,,,,,blue,triangle
0.0,8.0,4.0,1.0,6.0,6.0,822.3597400001381,1.0,1.0,phase_2,go,300.0,350.0,1.0,,,,,,,,,white,I
0.0,2.0,1.0,0.0,6.0,6.0,573.3796340000481,1.0,1.0,phase_2,go,300.0,350.0,1.0,,,,,,,,,green,square
0.0,4.0,4.0,0.0,5.0,5.0,804.4012410000505,1.0,1.0,phase_2,go,300.0,350.0,1.0,,,,,,,,,magenta,circle
0.0,5.0,0.5,1.0,5.0,0.0,0.0,1.0,1.0,phase_2,stop,300.0,350.0,4.0,,,,,,,,,gray,flipped triangle
0.0,4.0,4.0,0.0,6.0,6.0,886.4876430002369,1.0,1.0,phase_2,go,350.0,350.0,1.0,,,,,,,,,magenta,circle
0.0,2.0,1.0,0.0,5.0,5.0,825.5247479996797,1.0,1.0,phase_2,go,350.0,350.0,1.0,,,,,,,,,green,square
0.0,2.0,1.0,0.0,6.0,6.0,441.0154510001121,1.0,1.0,phase_2,go,350.0,350.0,1.0,,,,,,,,,green,square
0.0,3.0,2.0,0.0,6.0,6.0,812.692307999896,1.0,1.0,phase_2,go,350.0,350.0,1.0,,,,,,,,,yellow,cross
0.0,5.0,0.5,1.0,5.0,5.0,823.8174990001426,1.0,1.0,phase_2,go,350.0,350.0,1.0,,,,,,,,,gray,flipped triangle
0.0,1.0,0.5,0.0,5.0,5.0,895.9016839999094,1.0,1.0,phase_2,go,350.0,350.0,1.0,,,,,,,,,cyan,diamond
0.0,4.0,4.0,0.0,6.0,6.0,786.9560150002144,1.0,1.0,phase_2,go,350.0,350.0,1.0,,,,,,,,,magenta,circle
0.0,5.0,0.5,1.0,6.0,0.0,0.0,1.0,1.0,phase_2,stop,350.0,350.0,4.0,,,,,,,,,gray,flipped triangle
0.0,4.0,4.0,0.0,5.0,5.0,843.3333200000561,1.0,1.0,phase_2,go,350.0,400.0,1.0,,,,,,,,,magenta,circle
0.0,2.0,1.0,0.0,6.0,6.0,1255.6363909998254,1.0,1.0,phase_2,go,350.0,400.0,1.0,,,,,,,,,green,square
0.0,7.0,2.0,1.0,6.0,0.0,0.0,1.0,1.0,phase_2,stop,350.0,400.0,4.0,,,,,,,,,orange,hexagon
0.0,8.0,4.0,1.0,6.0,0.0,0.0,1.0,1.0,phase_2,stop,350.0,450.0,4.0,,,,,,,,,white,I
0.0,6.0,1.0,1.0,6.0,0.0,0.0,1.0,1.0,phase_2,stop,350.0,500.0,4.0,,,,,,,,,blue,triangle
0.0,4.0,4.0,0.0,6.0,6.0,966.9910489997164,1.0,1.0,phase_2,go,350.0,550.0,1.0,,,,,,,,,magenta,circle
0.0,8.0,4.0,1.0,5.0,0.0,0.0,1.0,1.0,phase_2,stop,350.0,550.0,4.0,,,,,,,,,white,I
0.0,1.0,0.5,0.0,6.0,6.0,1374.967584999922,1.0,1.0,phase_2,go,400.0,550.0,1.0,,,,,,,,,cyan,diamond
0.0,5.0,0.5,1.0,6.0,0.0,0.0,1.0,1.0,phase_2,stop,400.0,550.0,4.0,,,,,,,,,gray,flipped triangle
0.0,7.0,2.0,1.0,5.0,5.0,942.7992749997428,1.0,1.0,phase_2,go,400.0,600.0,1.0,,,,,,,,,orange,hexagon
0.0,3.0,2.0,0.0,6.0,6.0,1124.255804999848,1.0,1.0,phase_2,go,400.0,600.0,1.0,,,,,,,,,yellow,cross
0.0,2.0,1.0,0.0,6.0,0.0,0.0,1.0,1.0,phase_2,go,400.0,600.0,5.0,,,,,,,,,green,square
0.0,6.0,1.0,1.0,5.0,6.0,397.0759260000704,1.0,1.0,phase_2,stop,400.0,600.0,3.0,,,,,,,,,blue,triangle
0.0,8.0,4.0,1.0,5.0,0.0,0.0,1.0,1.0,phase_2,stop,350.0,600.0,4.0,,,,,,,,,white,I
0.0,2.0,1.0,0.0,6.0,6.0,808.605567000086,1.0,1.0,phase_2,go,400.0,600.0,1.0,,,,,,,,,green,square
0.0,7.0,2.0,1.0,6.0,6.0,406.6884030003166,2.0,1.0,phase_2,go,400.0,600.0,1.0,,,,,,,,,orange,hexagon
0.0,4.0,4.0,0.0,6.0,6.0,481.773899000018,2.0,1.0,phase_2,go,400.0,600.0,1.0,,,,,,,,,magenta,circle
0.0,2.0,1.0,0.0,6.0,6.0,529.9357459998646,2.0,1.0,phase_2,go,400.0,600.0,1.0,,,,,,,,,green,square
0.0,4.0,4.0,0.0,5.0,5.0,445.65731100010447,2.0,1.0,phase_2,go,400.0,600.0,1.0,,,,,,,,,magenta,circle
0.0,1.0,0.5,0.0,5.0,5.0,443.3777220001502,2.0,1.0,phase_2,go,400.0,600.0,1.0,,,,,,,,,cyan,diamond
0.0,5.0,0.5,1.0,6.0,6.0,567.5324240000919,2.0,1.0,phase_2,go,400.0,600.0,1.0,,,,,,,,,gray,flipped triangle
0.0,7.0,2.0,1.0,5.0,5.0,251.01316700011012,2.0,1.0,phase_2,stop,400.0,600.0,3.0,,,,,,,,,orange,hexagon
0.0,3.0,2.0,0.0,5.0,5.0,755.1004110000576,2.0,1.0,phase_2,go,350.0,600.0,1.0,,,,,,,,,yellow,cross
0.0,1.0,0.5,0.0,6.0,6.0,427.2271690001616,2.0,1.0,phase_2,go,350.0,600.0,1.0,,,,,,,,,cyan,diamond
0.0,6.0,1.0,1.0,5.0,5.0,311.5381490001709,2.0,1.0,phase_2,stop,350.0,600.0,3.0,,,,,,,,,blue,triangle
0.0,8.0,4.0,1.0,6.0,6.0,342.9104519996144,2.0,1.0,phase_2,stop,300.0,600.0,3.0,,,,,,,,,white,I
0.0,1.0,0.5,0.0,6.0,6.0,515.3496309999355,2.0,1.0,phase_2,go,300.0,550.0,1.0,,,,,,,,,cyan,diamond
0.0,1.0,0.5,0.0,6.0,6.0,663.3481410003697,2.0,1.0,phase_2,go,300.0,550.0,1.0,,,,,,,,,cyan,diamond
0.0,3.0,2.0,0.0,5.0,5.0,633.9164940000046,2.0,1.0,phase_2,go,300.0,550.0,1.0,,,,,,,,,yellow,cross
0.0,3.0,2.0,0.0,5.0,5.0,698.1880029998138,2.0,1.0,phase_2,go,300.0,550.0,1.0,,,,,,,,,yellow,cross
0.0,2.0,1.0,0.0,6.0,6.0,314.6757280001111,2.0,1.0,phase_2,go,300.0,550.0,1.0,,,,,,,,,green,square
0.0,4.0,4.0,0.0,5.0,5.0,660.5919179996818,2.0,1.0,phase_2,go,300.0,550.0,1.0,,,,,,,,,magenta,circle
0.0,2.0,1.0,0.0,5.0,5.0,390.70416200002,2.0,1.0,phase_2,go,300.0,550.0,1.0,,,,,,,,,green,square
0.0,3.0,2.0,0.0,6.0,6.0,300.252250000085,2.0,1.0,phase_2,go,300.0,550.0,1.0,,,,,,,,,yellow,cross
0.0,1.0,0.5,0.0,6.0,6.0,474.5116589997451,2.0,1.0,phase_2,go,300.0,550.0,1.0,,,,,,,,,cyan,diamond
0.0,6.0,1.0,1.0,5.0,5.0,389.5619590002752,2.0,1.0,phase_2,stop,300.0,550.0,3.0,,,,,,,,,blue,triangle
0.0,1.0,0.5,0.0,6.0,6.0,626.782632999948,2.0,1.0,phase_2,go,250.0,550.0,1.0,,,,,,,,,cyan,diamond
0.0,6.0,1.0,1.0,5.0,5.0,965.2555239999856,2.0,1.0,phase_2,stop,250.0,550.0,3.0,,,,,,,,,blue,triangle
0.0,1.0,0.5,0.0,6.0,6.0,1022.6749540001947,2.0,1.0,phase_2,go,200.0,550.0,1.0,,,,,,,,,cyan,diamond
0.0,5.0,0.5,1.0,5.0,5.0,638.905670999975,2.0,1.0,phase_2,go,200.0,550.0,1.0,,,,,,,,,gray,flipped triangle
0.0,8.0,4.0,1.0,5.0,0.0,0.0,2.0,1.0,phase_2,stop,200.0,550.0,4.0,,,,,,,,,white,I
0.0,4.0,4.0,0.0,6.0,6.0,801.8592769999486,2.0,1.0,phase_2,go,250.0,550.0,1.0,,,,,,,,,magenta,circle
0.0,6.0,1.0,1.0,5.0,0.0,0.0,2.0,1.0,phase_2,stop,250.0,550.0,4.0,,,,,,,,,blue,triangle
0.0,5.0,0.5,1.0,6.0,0.0,0.0,2.0,1.0,phase_2,stop,300.0,550.0,4.0,,,,,,,,,gray,flipped triangle
0.0,5.0,0.5,1.0,6.0,0.0,0.0,2.0,1.0,phase_2,stop,300.0,600.0,4.0,,,,,,,,,gray,flipped triangle
0.0,7.0,2.0,1.0,5.0,5.0,912.2713450001356,2.0,1.0,phase_2,go,300.0,650.0,1.0,,,,,,,,,orange,hexagon
0.0,7.0,2.0,1.0,6.0,0.0,0.0,2.0,1.0,phase_2,stop,300.0,650.0,4.0,,,,,,,,,orange,hexagon
0.0,8.0,4.0,1.0,5.0,0.0,0.0,2.0,1.0,phase_2,stop,300.0,700.0,4.0,,,,,,,,,white,I
0.0,3.0,2.0,0.0,6.0,6.0,820.1208770001358,2.0,1.0,phase_2,go,350.0,700.0,1.0,,,,,,,,,yellow,cross
0.0,8.0,4.0,1.0,6.0,0.0,0.0,2.0,1.0,phase_2,stop,350.0,700.0,4.0,,,,,,,,,white,I
0.0,3.0,2.0,0.0,6.0,6.0,1067.8899909999018,2.0,1.0,phase_2,go,350.0,750.0,1.0,,,,,,,,,yellow,cross
0.0,6.0,1.0,1.0,5.0,5.0,590.5438889999459,3.0,1.0,phase_2,stop,350.0,750.0,3.0,,,,,,,,,blue,triangle
0.0,5.0,0.5,1.0,5.0,5.0,839.7564770002646,3.0,1.0,phase_2,stop,300.0,750.0,3.0,,,,,,,,,gray,flipped triangle
0.0,3.0,2.0,0.0,6.0,6.0,433.2331350001368,3.0,1.0,phase_2,go,250.0,750.0,1.0,,,,,,,,,yellow,cross
0.0,3.0,2.0,0.0,5.0,5.0,461.313286999939,3.0,1.0,phase_2,go,250.0,750.0,1.0,,,,,,,,,yellow,cross
0.0,7.0,2.0,1.0,6.0,6.0,286.1051340000813,3.0,1.0,phase_2,stop,250.0,750.0,3.0,,,,,,,,,orange,hexagon
0.0,2.0,1.0,0.0,6.0,6.0,706.500017000053,3.0,1.0,phase_2,go,250.0,700.0,1.0,,,,,,,,,green,square
0.0,1.0,0.5,0.0,6.0,6.0,417.0485409999855,3.0,1.0,phase_2,go,250.0,700.0,1.0,,,,,,,,,cyan,diamond
0.0,1.0,0.5,0.0,5.0,5.0,368.7750060003054,3.0,1.0,phase_2,go,250.0,700.0,1.0,,,,,,,,,cyan,diamond
0.0,7.0,2.0,1.0,5.0,5.0,331.5330049999829,3.0,1.0,phase_2,stop,250.0,700.0,3.0,,,,,,,,,orange,hexagon
0.0,4.0,4.0,0.0,5.0,5.0,1196.7153140003577,3.0,1.0,phase_2,go,200.0,700.0,1.0,,,,,,,,,magenta,circle
0.0,6.0,1.0,1.0,6.0,6.0,343.0015090002598,3.0,1.0,phase_2,stop,200.0,700.0,3.0,,,,,,,,,blue,triangle
0.0,8.0,4.0,1.0,6.0,0.0,0.0,3.0,1.0,phase_2,stop,200.0,650.0,4.0,,,,,,,,,white,I
0.0,7.0,2.0,1.0,6.0,6.0,778.0158350001329,3.0,1.0,phase_2,stop,200.0,700.0,3.0,,,,,,,,,orange,hexagon
0.0,1.0,0.5,0.0,5.0,5.0,598.8332249999075,3.0,1.0,phase_2,go,200.0,650.0,1.0,,,,,,,,,cyan,diamond
0.0,4.0,4.0,0.0,5.0,5.0,416.8424449999293,3.0,1.0,phase_2,go,200.0,650.0,1.0,,,,,,,,,magenta,circle
0.0,3.0,2.0,0.0,6.0,6.0,385.8818419998897,3.0,1.0,phase_2,go,200.0,650.0,1.0,,,,,,,,,yellow,cross
0.0,4.0,4.0,0.0,5.0,5.0,488.661668000077,3.0,1.0,phase_2,go,200.0,650.0,1.0,,,,,,,,,magenta,circle
0.0,1.0,0.5,0.0,5.0,5.0,586.6919840000264,3.0,1.0,phase_2,go,200.0,650.0,1.0,,,,,,,,,cyan,diamond
0.0,2.0,1.0,0.0,5.0,5.0,723.0735050002295,3.0,1.0,phase_2,go,200.0,650.0,1.0,,,,,,,,,green,square
0.0,6.0,1.0,1.0,6.0,6.0,693.1009970003288,3.0,1.0,phase_2,stop,200.0,650.0,3.0,,,,,,,,,blue,triangle
0.0,2.0,1.0,0.0,5.0,5.0,533.7995029999547,3.0,1.0,phase_2,go,200.0,600.0,1.0,,,,,,,,,green,square
0.0,7.0,2.0,1.0,6.0,6.0,567.7230070000405,3.0,1.0,phase_2,stop,200.0,600.0,3.0,,,,,,,,,orange,hexagon
0.0,8.0,4.0,1.0,6.0,0.0,0.0,3.0,1.0,phase_2,stop,200.0,550.0,4.0,,,,,,,,,white,I
0.0,8.0,4.0,1.0,6.0,0.0,0.0,3.0,1.0,phase_2,stop,200.0,600.0,4.0,,,,,,,,,white,I
0.0,8.0,4.0,1.0,6.0,6.0,901.70691000003,3.0,1.0,phase_2,go,200.0,650.0,1.0,,,,,,,,,white,I
0.0,5.0,0.5,1.0,5.0,5.0,431.574110999918,3.0,1.0,phase_2,go,200.0,650.0,1.0,,,,,,,,,gray,flipped triangle
0.0,8.0,4.0,1.0,6.0,6.0,701.2136050002482,3.0,1.0,phase_2,go,200.0,650.0,1.0,,,,,,,,,white,I
0.0,5.0,0.5,1.0,6.0,6.0,405.4552119996515,3.0,1.0,phase_2,stop,200.0,650.0,3.0,,,,,,,,,gray,flipped triangle
0.0,6.0,1.0,1.0,6.0,6.0,1145.8257040003446,3.0,1.0,phase_2,go,200.0,600.0,1.0,,,,,,,,,blue,triangle
0.0,6.0,1.0,1.0,6.0,6.0,660.1375239997651,3.0,1.0,phase_2,go,200.0,600.0,1.0,,,,,,,,,blue,triangle
0.0,3.0,2.0,0.0,5.0,5.0,570.4603549997955,3.0,1.0,phase_2,go,200.0,600.0,1.0,,,,,,,,,yellow,cross
0.0,6.0,1.0,1.0,6.0,6.0,738.9013810002325,3.0,1.0,phase_2,go,200.0,600.0,1.0,,,,,,,,,blue,triangle
0.0,8.0,4.0,1.0,5.0,5.0,524.1552239999692,3.0,1.0,phase_2,go,200.0,600.0,1.0,,,,,,,,,white,I
0.0,8.0,4.0,1.0,5.0,5.0,448.9639459998216,3.0,1.0,phase_2,go,200.0,600.0,1.0,,,,,,,,,white,I
0.0,7.0,2.0,1.0,5.0,5.0,395.9875810000994,3.0,1.0,phase_2,go,200.0,600.0,1.0,,,,,,,,,orange,hexagon
0.0,5.0,0.5,1.0,6.0,6.0,337.7781540002615,3.0,1.0,phase_2,stop,200.0,600.0,3.0,,,,,,,,,gray,flipped triangle
0.0,8.0,4.0,1.0,6.0,6.0,920.5166259998804,4.0,1.0,phase_2,stop,200.0,550.0,3.0,,,,,,,,,white,I
0.0,8.0,4.0,1.0,6.0,6.0,759.3860989995846,4.0,1.0,phase_2,go,200.0,500.0,1.0,,,,,,,,,white,I
0.0,4.0,4.0,0.0,5.0,5.0,580.7894859999578,4.0,1.0,phase_2,go,200.0,500.0,1.0,,,,,,,,,magenta,circle
0.0,1.0,0.5,0.0,5.0,5.0,524.5898070002113,4.0,1.0,phase_2,go,200.0,500.0,1.0,,,,,,,,,cyan,diamond
0.0,7.0,2.0,1.0,6.0,6.0,563.7199050001982,4.0,1.0,phase_2,stop,200.0,500.0,3.0,,,,,,,,,orange,hexagon
0.0,3.0,2.0,0.0,5.0,5.0,422.3976299999776,4.0,1.0,phase_2,go,200.0,450.0,1.0,,,,,,,,,yellow,cross
0.0,8.0,4.0,1.0,5.0,0.0,0.0,4.0,1.0,phase_2,stop,200.0,450.0,4.0,,,,,,,,,white,I
0.0,6.0,1.0,1.0,6.0,6.0,482.6616099999228,4.0,1.0,phase_2,stop,250.0,450.0,3.0,,,,,,,,,blue,triangle
0.0,3.0,2.0,0.0,5.0,0.0,0.0,4.0,1.0,phase_2,go,250.0,400.0,5.0,,,,,,,,,yellow,cross
0.0,2.0,1.0,0.0,6.0,6.0,776.4425240002311,4.0,1.0,phase_2,go,250.0,400.0,1.0,,,,,,,,,green,square
0.0,6.0,1.0,1.0,6.0,6.0,442.7079409997532,4.0,1.0,phase_2,stop,250.0,400.0,3.0,,,,,,,,,blue,triangle
0.0,1.0,0.5,0.0,6.0,6.0,567.6153899999008,4.0,1.0,phase_2,go,250.0,350.0,1.0,,,,,,,,,cyan,diamond
0.0,7.0,2.0,1.0,6.0,0.0,0.0,4.0,1.0,phase_2,stop,250.0,350.0,4.0,,,,,,,,,orange,hexagon
0.0,4.0,4.0,0.0,6.0,6.0,660.2719640000032,4.0,1.0,phase_2,go,250.0,400.0,1.0,,,,,,,,,magenta,circle
0.0,6.0,1.0,1.0,5.0,5.0,646.4023739999902,4.0,1.0,phase_2,stop,250.0,400.0,3.0,,,,,,,,,blue,triangle
0.0,7.0,2.0,1.0,6.0,6.0,557.3994040000798,4.0,1.0,phase_2,go,200.0,400.0,1.0,,,,,,,,,orange,hexagon
0.0,1.0,0.5,0.0,5.0,5.0,566.8526990002647,4.0,1.0,phase_2,go,200.0,400.0,1.0,,,,,,,,,cyan,diamond
0.0,4.0,4.0,0.0,6.0,6.0,583.7555500002054,4.0,1.0,phase_2,go,200.0,400.0,1.0,,,,,,,,,magenta,circle
0.0,6.0,1.0,1.0,6.0,0.0,0.0,4.0,1.0,phase_2,stop,200.0,400.0,4.0,,,,,,,,,blue,triangle
0.0,6.0,1.0,1.0,5.0,0.0,0.0,4.0,1.0,phase_2,stop,200.0,450.0,4.0,,,,,,,,,blue,triangle
0.0,2.0,1.0,0.0,5.0,5.0,794.1345680001177,4.0,1.0,phase_2,go,250.0,450.0,1.0,,,,,,,,,green,square
0.0,4.0,4.0,0.0,5.0,5.0,1311.13143399989,4.0,1.0,phase_2,go,250.0,450.0,1.0,,,,,,,,,magenta,circle
0.0,5.0,0.5,1.0,6.0,6.0,694.9826469999607,4.0,1.0,phase_2,go,250.0,450.0,1.0,,,,,,,,,gray,flipped triangle
0.0,8.0,4.0,1.0,6.0,0.0,0.0,4.0,1.0,phase_2,stop,250.0,450.0,4.0,,,,,,,,,white,I
0.0,8.0,4.0,1.0,6.0,6.0,878.4318080001867,4.0,1.0,phase_2,go,250.0,500.0,1.0,,,,,,,,,white,I
0.0,6.0,1.0,1.0,6.0,6.0,766.1770839999917,4.0,1.0,phase_2,go,250.0,500.0,1.0,,,,,,,,,blue,triangle
0.0,3.0,2.0,0.0,5.0,5.0,636.4540959998521,4.0,1.0,phase_2,go,250.0,500.0,1.0,,,,,,,,,yellow,cross
0.0,4.0,4.0,0.0,5.0,5.0,452.9024869998466,4.0,1.0,phase_2,go,250.0,500.0,1.0,,,,,,,,,magenta,circle
0.0,5.0,0.5,1.0,5.0,5.0,600.9883850001643,4.0,1.0,phase_2,go,250.0,500.0,1.0,,,,,,,,,gray,flipped triangle
0.0,7.0,2.0,1.0,5.0,0.0,0.0,4.0,1.0,phase_2,stop,250.0,500.0,4.0,,,,,,,,,orange,hexagon
0.0,7.0,2.0,1.0,6.0,6.0,605.7863480000378,4.0,1.0,phase_2,stop,300.0,500.0,3.0,,,,,,,,,orange,hexagon
0.0,3.0,2.0,0.0,5.0,5.0,1487.240070000098,4.0,1.0,phase_2,go,300.0,450.0,1.0,,,,,,,,,yellow,cross
0.0,2.0,1.0,0.0,6.0,6.0,434.2941139998402,4.0,1.0,phase_2,go,300.0,450.0,1.0,,,,,,,,,green,square
0.0,2.0,1.0,0.0,5.0,5.0,550.9630550000111,4.0,1.0,phase_2,go,300.0,450.0,1.0,,,,,,,,,green,square
0.0,4.0,4.0,0.0,5.0,5.0,438.4033369997269,4.0,1.0,phase_2,go,300.0,450.0,1.0,,,,,,,,,magenta,circle
0.0,3.0,2.0,0.0,6.0,6.0,479.9764200001846,4.0,1.0,phase_2,go,300.0,450.0,1.0,,,,,,,,,yellow,cross
0.0,5.0,0.5,1.0,6.0,6.0,370.0908460000391,5.0,1.0,phase_2,stop,300.0,450.0,3.0,,,,,,,,,gray,flipped triangle
0.0,3.0,2.0,0.0,6.0,6.0,426.7374539999764,5.0,1.0,phase_2,go,300.0,400.0,1.0,,,,,,,,,yellow,cross
0.0,7.0,2.0,1.0,5.0,5.0,282.8214259998276,5.0,1.0,phase_2,stop,300.0,400.0,3.0,,,,,,,,,orange,hexagon
0.0,5.0,0.5,1.0,6.0,6.0,394.9033240000972,5.0,1.0,phase_2,stop,250.0,400.0,3.0,,,,,,,,,gray,flipped triangle
0.0,3.0,2.0,0.0,6.0,6.0,417.4495940001179,5.0,1.0,phase_2,go,250.0,350.0,1.0,,,,,,,,,yellow,cross
0.0,7.0,2.0,1.0,5.0,5.0,379.404730999795,5.0,1.0,phase_2,stop,250.0,350.0,3.0,,,,,,,,,orange,hexagon
0.0,5.0,0.5,1.0,5.0,0.0,0.0,5.0,1.0,phase_2,stop,200.0,350.0,4.0,,,,,,,,,gray,flipped triangle
0.0,1.0,0.5,0.0,6.0,6.0,560.9593839999434,5.0,1.0,phase_2,go,250.0,350.0,1.0,,,,,,,,,cyan,diamond
0.0,4.0,4.0,0.0,5.0,5.0,517.0315860000301,5.0,1.0,phase_2,go,250.0,350.0,1.0,,,,,,,,,magenta,circle
0.0,7.0,2.0,1.0,5.0,5.0,405.3876510001828,5.0,1.0,phase_2,stop,250.0,350.0,3.0,,,,,,,,,orange,hexagon
0.0,1.0,0.5,0.0,5.0,5.0,517.8897319997304,5.0,1.0,phase_2,go,200.0,350.0,1.0,,,,,,,,,cyan,diamond
0.0,2.0,1.0,0.0,6.0,6.0,452.0576330000949,5.0,1.0,phase_2,go,200.0,350.0,1.0,,,,,,,,,green,square
0.0,2.0,1.0,0.0,5.0,5.0,423.1070620003265,5.0,1.0,phase_2,go,200.0,350.0,1.0,,,,,,,,,green,square
0.0,4.0,4.0,0.0,5.0,5.0,433.3712110001215,5.0,1.0,phase_2,go,200.0,350.0,1.0,,,,,,,,,magenta,circle
0.0,8.0,4.0,1.0,5.0,5.0,387.2731339997699,5.0,1.0,phase_2,stop,200.0,350.0,3.0,,,,,,,,,white,I
0.0,7.0,2.0,1.0,6.0,6.0,512.4869910000598,5.0,1.0,phase_2,stop,150.0,350.0,3.0,,,,,,,,,orange,hexagon
0.0,4.0,4.0,0.0,6.0,6.0,703.4492879997742,5.0,1.0,phase_2,go,150.0,300.0,1.0,,,,,,,,,magenta,circle
0.0,3.0,2.0,0.0,6.0,6.0,438.1354010001814,5.0,1.0,phase_2,go,150.0,300.0,1.0,,,,,,,,,yellow,cross
0.0,2.0,1.0,0.0,5.0,5.0,834.9950759998137,5.0,1.0,phase_2,go,150.0,300.0,1.0,,,,,,,,,green,square
0.0,8.0,4.0,1.0,5.0,0.0,0.0,5.0,1.0,phase_2,stop,150.0,300.0,4.0,,,,,,,,,white,I
0.0,5.0,0.5,1.0,5.0,0.0,0.0,5.0,1.0,phase_2,stop,200.0,300.0,4.0,,,,,,,,,gray,flipped triangle
0.0,3.0,2.0,0.0,5.0,5.0,807.2347030001765,5.0,1.0,phase_2,go,250.0,300.0,1.0,,,,,,,,,yellow,cross
0.0,6.0,1.0,1.0,5.0,5.0,440.3388149999045,5.0,1.0,phase_2,go,250.0,300.0,1.0,,,,,,,,,blue,triangle
0.0,8.0,4.0,1.0,5.0,5.0,386.2024190002557,5.0,1.0,phase_2,stop,250.0,300.0,3.0,,,,,,,,,white,I
0.0,4.0,4.0,0.0,6.0,6.0,863.5372560001997,5.0,1.0,phase_2,go,200.0,300.0,1.0,,,,,,,,,magenta,circle
0.0,8.0,4.0,1.0,5.0,0.0,0.0,5.0,1.0,phase_2,stop,200.0,300.0,4.0,,,,,,,,,white,I
0.0,4.0,4.0,0.0,6.0,6.0,660.5254950000017,5.0,1.0,phase_2,go,250.0,300.0,1.0,,,,,,,,,magenta,circle
0.0,4.0,4.0,0.0,6.0,6.0,1367.4285629999758,5.0,1.0,phase_2,go,250.0,300.0,1.0,,,,,,,,,magenta,circle
0.0,3.0,2.0,0.0,6.0,6.0,696.7689359998985,5.0,1.0,phase_2,go,250.0,300.0,1.0,,,,,,,,,yellow,cross
0.0,5.0,0.5,1.0,5.0,0.0,0.0,5.0,1.0,phase_2,stop,250.0,300.0,4.0,,,,,,,,,gray,flipped triangle
0.0,7.0,2.0,1.0,6.0,0.0,0.0,5.0,1.0,phase_2,stop,300.0,300.0,4.0,,,,,,,,,orange,hexagon
0.0,1.0,0.5,0.0,5.0,5.0,1448.5150809996412,5.0,1.0,phase_2,go,300.0,350.0,1.0,,,,,,,,,cyan,diamond
0.0,1.0,0.5,0.0,6.0,6.0,505.1014710002164,5.0,1.0,phase_2,go,300.0,350.0,1.0,,,,,,,,,cyan,diamond
0.0,5.0,0.5,1.0,5.0,0.0,0.0,5.0,1.0,phase_2,stop,300.0,350.0,4.0,,,,,,,,,gray,flipped triangle
0.0,6.0,1.0,1.0,5.0,5.0,459.9962850002157,5.0,1.0,phase_2,stop,350.0,350.0,3.0,,,,,,,,,blue,triangle
0.0,5.0,0.5,1.0,6.0,0.0,0.0,5.0,1.0,phase_2,stop,300.0,350.0,4.0,,,,,,,,,gray,flipped triangle
0.0,1.0,0.5,0.0,5.0,5.0,605.5188249997627,6.0,1.0,phase_2,go,300.0,400.0,1.0,,,,,,,,,cyan,diamond
0.0,3.0,2.0,0.0,5.0,5.0,367.7644880003754,6.0,1.0,phase_2,go,300.0,400.0,1.0,,,,,,,,,yellow,cross
0.0,8.0,4.0,1.0,5.0,5.0,460.2160989998083,6.0,1.0,phase_2,stop,300.0,400.0,3.0,,,,,,,,,white,I
0.0,2.0,1.0,0.0,5.0,5.0,632.5336599998082,6.0,1.0,phase_2,go,250.0,400.0,1.0,,,,,,,,,green,square
0.0,6.0,1.0,1.0,5.0,0.0,0.0,6.0,1.0,phase_2,stop,250.0,400.0,4.0,,,,,,,,,blue,triangle
0.0,3.0,2.0,0.0,5.0,5.0,830.4874119999113,6.0,1.0,phase_2,go,300.0,400.0,1.0,,,,,,,,,yellow,cross
0.0,3.0,2.0,0.0,5.0,5.0,339.0401639999254,6.0,1.0,phase_2,go,300.0,400.0,1.0,,,,,,,,,yellow,cross
0.0,6.0,1.0,1.0,5.0,5.0,331.4152049997574,6.0,1.0,phase_2,stop,300.0,400.0,3.0,,,,,,,,,blue,triangle
0.0,2.0,1.0,0.0,6.0,6.0,262.650202000259,6.0,1.0,phase_2,go,250.0,400.0,1.0,,,,,,,,,green,square
0.0,8.0,4.0,1.0,6.0,6.0,362.1109969999452,6.0,1.0,phase_2,stop,250.0,400.0,3.0,,,,,,,,,white,I
0.0,4.0,4.0,0.0,6.0,6.0,398.2781029999387,6.0,1.0,phase_2,go,250.0,350.0,1.0,,,,,,,,,magenta,circle
0.0,3.0,2.0,0.0,6.0,6.0,603.227822000008,6.0,1.0,phase_2,go,250.0,350.0,1.0,,,,,,,,,yellow,cross
0.0,1.0,0.5,0.0,5.0,5.0,590.7004810001126,6.0,1.0,phase_2,go,250.0,350.0,1.0,,,,,,,,,cyan,diamond
0.0,5.0,0.5,1.0,5.0,5.0,491.6075940000155,6.0,1.0,phase_2,stop,250.0,350.0,3.0,,,,,,,,,gray,flipped triangle
0.0,2.0,1.0,0.0,6.0,6.0,844.0059339995969,6.0,1.0,phase_2,go,200.0,350.0,1.0,,,,,,,,,green,square
0.0,4.0,4.0,0.0,5.0,5.0,555.5097589999605,6.0,1.0,phase_2,go,200.0,350.0,1.0,,,,,,,,,magenta,circle
0.0,1.0,0.5,0.0,5.0,5.0,479.4940299998416,6.0,1.0,phase_2,go,200.0,350.0,1.0,,,,,,,,,cyan,diamond
0.0,2.0,1.0,0.0,5.0,5.0,450.4893530001936,6.0,1.0,phase_2,go,200.0,350.0,1.0,,,,,,,,,green,square
0.0,5.0,0.5,1.0,5.0,0.0,0.0,6.0,1.0,phase_2,stop,200.0,350.0,4.0,,,,,,,,,gray,flipped triangle
0.0,4.0,4.0,0.0,6.0,6.0,477.1492650002074,6.0,1.0,phase_2,go,250.0,350.0,1.0,,,,,,,,,magenta,circle
0.0,6.0,1.0,1.0,6.0,0.0,0.0,6.0,1.0,phase_2,stop,250.0,350.0,4.0,,,,,,,,,blue,triangle
0.0,8.0,4.0,1.0,5.0,0.0,0.0,6.0,1.0,phase_2,go,250.0,400.0,5.0,,,,,,,,,white,I
0.0,6.0,1.0,1.0,5.0,5.0,404.6227590001763,6.0,1.0,phase_2,go,250.0,400.0,1.0,,,,,,,,,blue,triangle
0.0,4.0,4.0,0.0,6.0,6.0,286.3073829998939,6.0,1.0,phase_2,go,250.0,400.0,1.0,,,,,,,,,magenta,circle
0.0,2.0,1.0,0.0,6.0,6.0,410.7599170001776,6.0,1.0,phase_2,go,250.0,400.0,1.0,,,,,,,,,green,square
0.0,6.0,1.0,1.0,6.0,6.0,380.0765490000231,6.0,1.0,phase_2,go,250.0,400.0,1.0,,,,,,,,,blue,triangle
0.0,5.0,0.5,1.0,5.0,5.0,231.2321929998688,6.0,1.0,phase_2,go,250.0,400.0,1.0,,,,,,,,,gray,flipped triangle
0.0,1.0,0.5,0.0,6.0,6.0,256.416186000024,6.0,1.0,phase_2,go,250.0,400.0,1.0,,,,,,,,,cyan,diamond
0.0,7.0,2.0,1.0,5.0,5.0,269.4956049999746,6.0,1.0,phase_2,go,250.0,400.0,1.0,,,,,,,,,orange,hexagon
0.0,8.0,4.0,1.0,5.0,0.0,0.0,6.0,1.0,phase_2,stop,250.0,400.0,4.0,,,,,,,,,white,I
0.0,4.0,4.0,0.0,5.0,5.0,782.972695999888,6.0,1.0,phase_2,go,300.0,400.0,1.0,,,,,,,,,magenta,circle
0.0,1.0,0.5,0.0,5.0,5.0,415.4778910001369,6.0,1.0,phase_2,go,300.0,400.0,1.0,,,,,,,,,cyan,diamond
0.0,1.0,0.5,0.0,6.0,6.0,329.5360649999566,6.0,1.0,phase_2,go,300.0,400.0,1.0,,,,,,,,,cyan,diamond
0.0,5.0,0.5,1.0,5.0,5.0,367.2110319998865,6.0,1.0,phase_2,stop,300.0,400.0,3.0,,,,,,,,,gray,flipped triangle
0.0,1.0,0.5,0.0,5.0,5.0,813.4369210001751,6.0,1.0,phase_2,go,250.0,400.0,1.0,,,,,,,,,cyan,diamond
0.0,7.0,2.0,1.0,6.0,6.0,371.7734819997531,6.0,1.0,phase_2,stop,250.0,400.0,3.0,,,,,,,,,orange,hexagon
0.0,4.0,4.0,0.0,6.0,6.0,658.2854840003165,7.0,1.0,phase_2,go,250.0,350.0,1.0,,,,,,,,,magenta,circle
0.0,6.0,1.0,1.0,5.0,5.0,290.7281919997331,7.0,1.0,phase_2,stop,250.0,350.0,3.0,,,,,,,,,blue,triangle
0.0,3.0,2.0,0.0,5.0,5.0,421.3780989998668,7.0,1.0,phase_2,go,200.0,350.0,1.0,,,,,,,,,yellow,cross
0.0,4.0,4.0,0.0,6.0,6.0,250.48622599979348,7.0,1.0,phase_2,go,200.0,350.0,1.0,,,,,,,,,magenta,circle
0.0,4.0,4.0,0.0,5.0,5.0,261.3817129999916,7.0,1.0,phase_2,go,200.0,350.0,1.0,,,,,,,,,magenta,circle
0.0,7.0,2.0,1.0,5.0,5.0,311.6936269998405,7.0,1.0,phase_2,stop,200.0,350.0,3.0,,,,,,,,,orange,hexagon
0.0,7.0,2.0,1.0,6.0,6.0,476.4763260000109,7.0,1.0,phase_2,go,150.0,350.0,1.0,,,,,,,,,orange,hexagon
0.0,6.0,1.0,1.0,5.0,5.0,531.8568369998502,7.0,1.0,phase_2,go,150.0,350.0,1.0,,,,,,,,,blue,triangle
0.0,1.0,0.5,0.0,5.0,5.0,342.4677210000482,7.0,1.0,phase_2,go,150.0,350.0,1.0,,,,,,,,,cyan,diamond
0.0,6.0,1.0,1.0,6.0,6.0,448.6363790001633,7.0,1.0,phase_2,stop,150.0,350.0,3.0,,,,,,,,,blue,triangle
0.0,3.0,2.0,0.0,5.0,5.0,892.3814330000823,7.0,1.0,phase_2,go,150.0,300.0,1.0,,,,,,,,,yellow,cross
0.0,6.0,1.0,1.0,5.0,0.0,0.0,7.0,1.0,phase_2,stop,150.0,300.0,4.0,,,,,,,,,blue,triangle
0.0,2.0,1.0,0.0,6.0,6.0,566.2696809999943,7.0,1.0,phase_2,go,200.0,300.0,1.0,,,,,,,,,green,square
0.0,1.0,0.5,0.0,5.0,5.0,517.7880199998981,7.0,1.0,phase_2,go,200.0,300.0,1.0,,,,,,,,,cyan,diamond
0.0,5.0,0.5,1.0,6.0,6.0,553.674695999689,7.0,1.0,phase_2,go,200.0,300.0,1.0,,,,,,,,,gray,flipped triangle
0.0,2.0,1.0,0.0,5.0,5.0,497.9570189998412,7.0,1.0,phase_2,go,200.0,300.0,1.0,,,,,,,,,green,square
0.0,8.0,4.0,1.0,5.0,0.0,0.0,7.0,1.0,phase_2,stop,200.0,300.0,4.0,,,,,,,,,white,I
0.0,5.0,0.5,1.0,6.0,0.0,0.0,7.0,1.0,phase_2,stop,250.0,300.0,4.0,,,,,,,,,gray,flipped triangle
0.0,2.0,1.0,0.0,5.0,5.0,464.1421639998953,7.0,1.0,phase_2,go,250.0,350.0,1.0,,,,,,,,,green,square
0.0,8.0,4.0,1.0,6.0,6.0,294.0101500003038,7.0,1.0,phase_2,stop,250.0,350.0,3.0,,,,,,,,,white,I
0.0,3.0,2.0,0.0,5.0,5.0,577.4584329997197,7.0,1.0,phase_2,go,250.0,300.0,1.0,,,,,,,,,yellow,cross
0.0,5.0,0.5,1.0,6.0,6.0,459.2329000001882,7.0,1.0,phase_2,stop,250.0,300.0,3.0,,,,,,,,,gray,flipped triangle
0.0,1.0,0.5,0.0,6.0,6.0,464.8292609999771,7.0,1.0,phase_2,go,250.0,250.0,1.0,,,,,,,,,cyan,diamond
0.0,5.0,0.5,1.0,5.0,5.0,550.4420180000125,7.0,1.0,phase_2,stop,250.0,250.0,3.0,,,,,,,,,gray,flipped triangle
0.0,6.0,1.0,1.0,5.0,0.0,0.0,7.0,1.0,phase_2,stop,200.0,250.0,4.0,,,,,,,,,blue,triangle
0.0,2.0,1.0,0.0,5.0,5.0,1140.5565929999284,7.0,1.0,phase_2,go,250.0,250.0,1.0,,,,,,,,,green,square
0.0,1.0,0.5,0.0,6.0,6.0,618.6162889998741,7.0,1.0,phase_2,go,250.0,250.0,1.0,,,,,,,,,cyan,diamond
0.0,7.0,2.0,1.0,5.0,5.0,650.1430990001609,7.0,1.0,phase_2,go,250.0,250.0,1.0,,,,,,,,,orange,hexagon
0.0,5.0,0.5,1.0,5.0,0.0,0.0,7.0,1.0,phase_2,stop,250.0,250.0,4.0,,,,,,,,,gray,flipped triangle
0.0,7.0,2.0,1.0,5.0,0.0,0.0,7.0,1.0,phase_2,stop,300.0,250.0,4.0,,,,,,,,,orange,hexagon
0.0,2.0,1.0,0.0,5.0,5.0,518.9404150000883,7.0,1.0,phase_2,go,350.0,250.0,1.0,,,,,,,,,green,square
0.0,1.0,0.5,0.0,6.0,6.0,515.3564180000103,7.0,1.0,phase_2,go,350.0,250.0,1.0,,,,,,,,,cyan,diamond
0.0,8.0,4.0,1.0,5.0,0.0,0.0,7.0,1.0,phase_2,stop,350.0,250.0,4.0,,,,,,,,,white,I
0.0,6.0,1.0,1.0,6.0,6.0,343.3229040001606,7.0,1.0,phase_2,go,400.0,250.0,1.0,,,,,,,,,blue,triangle
0.0,5.0,0.5,1.0,6.0,6.0,567.2064290001799,7.0,1.0,phase_2,go,400.0,250.0,1.0,,,,,,,,,gray,flipped triangle
0.0,1.0,0.5,0.0,5.0,5.0,646.2359229999493,7.0,1.0,phase_2,go,400.0,250.0,1.0,,,,,,,,,cyan,diamond
0.0,5.0,0.5,1.0,5.0,0.0,0.0,8.0,1.0,phase_2,stop,400.0,250.0,4.0,,,,,,,,,gray,flipped triangle
0.0,7.0,2.0,1.0,5.0,5.0,539.0023449999717,8.0,1.0,phase_2,stop,450.0,250.0,3.0,,,,,,,,,orange,hexagon
0.0,1.0,0.5,0.0,6.0,6.0,749.5282350000707,8.0,1.0,phase_2,go,400.0,250.0,1.0,,,,,,,,,cyan,diamond
0.0,2.0,1.0,0.0,5.0,5.0,722.7350240000305,8.0,1.0,phase_2,go,400.0,250.0,1.0,,,,,,,,,green,square
0.0,2.0,1.0,0.0,6.0,6.0,421.2038079999729,8.0,1.0,phase_2,go,400.0,250.0,1.0,,,,,,,,,green,square
0.0,3.0,2.0,0.0,6.0,6.0,314.7219839997888,8.0,1.0,phase_2,go,400.0,250.0,1.0,,,,,,,,,yellow,cross
0.0,2.0,1.0,0.0,5.0,5.0,309.5504410002831,8.0,1.0,phase_2,go,400.0,250.0,1.0,,,,,,,,,green,square
0.0,2.0,1.0,0.0,6.0,6.0,425.1722389999486,8.0,1.0,phase_2,go,400.0,250.0,1.0,,,,,,,,,green,square
0.0,3.0,2.0,0.0,6.0,6.0,355.7453039998108,8.0,1.0,phase_2,go,400.0,250.0,1.0,,,,,,,,,yellow,cross
0.0,6.0,1.0,1.0,6.0,6.0,386.199612999917,8.0,1.0,phase_2,stop,400.0,250.0,3.0,,,,,,,,,blue,triangle
0.0,4.0,4.0,0.0,5.0,5.0,764.8720530000901,8.0,1.0,phase_2,go,400.0,200.0,1.0,,,,,,,,,magenta,circle
0.0,2.0,1.0,0.0,6.0,6.0,672.198797999954,8.0,1.0,phase_2,go,400.0,200.0,1.0,,,,,,,,,green,square
0.0,7.0,2.0,1.0,5.0,5.0,460.1497250000648,8.0,1.0,phase_2,stop,400.0,200.0,3.0,,,,,,,,,orange,hexagon
0.0,5.0,0.5,1.0,6.0,0.0,0.0,8.0,1.0,phase_2,stop,350.0,200.0,4.0,,,,,,,,,gray,flipped triangle
0.0,7.0,2.0,1.0,5.0,5.0,503.76002599978165,8.0,1.0,phase_2,go,350.0,250.0,1.0,,,,,,,,,orange,hexagon
0.0,7.0,2.0,1.0,6.0,0.0,0.0,8.0,1.0,phase_2,stop,350.0,250.0,4.0,,,,,,,,,orange,hexagon
0.0,5.0,0.5,1.0,5.0,0.0,0.0,8.0,1.0,phase_2,stop,350.0,300.0,4.0,,,,,,,,,gray,flipped triangle
0.0,8.0,4.0,1.0,6.0,0.0,0.0,8.0,1.0,phase_2,stop,400.0,300.0,4.0,,,,,,,,,white,I
0.0,2.0,1.0,0.0,5.0,5.0,663.3536000003915,8.0,1.0,phase_2,go,400.0,350.0,1.0,,,,,,,,,green,square
0.0,7.0,2.0,1.0,6.0,6.0,293.3860179996372,8.0,1.0,phase_2,stop,400.0,350.0,3.0,,,,,,,,,orange,hexagon
0.0,4.0,4.0,0.0,6.0,6.0,642.4180259996319,8.0,1.0,phase_2,go,400.0,300.0,1.0,,,,,,,,,magenta,circle
0.0,8.0,4.0,1.0,6.0,6.0,494.176384000184,8.0,1.0,phase_2,go,400.0,300.0,1.0,,,,,,,,,white,I
0.0,8.0,4.0,1.0,5.0,5.0,439.5916319999742,8.0,1.0,phase_2,stop,400.0,300.0,3.0,,,,,,,,,white,I
0.0,3.0,2.0,0.0,6.0,6.0,538.9345230000799,8.0,1.0,phase_2,go,350.0,300.0,1.0,,,,,,,,,yellow,cross
0.0,6.0,1.0,1.0,6.0,0.0,0.0,8.0,1.0,phase_2,stop,350.0,300.0,4.0,,,,,,,,,blue,triangle
0.0,6.0,1.0,1.0,5.0,0.0,0.0,8.0,1.0,phase_2,stop,350.0,350.0,4.0,,,,,,,,,blue,triangle
0.0,2.0,1.0,0.0,5.0,0.0,0.0,8.0,1.0,phase_2,go,400.0,350.0,5.0,,,,,,,,,green,square
0.0,4.0,4.0,0.0,6.0,6.0,783.3850119995986,8.0,1.0,phase_2,go,400.0,350.0,1.0,,,,,,,,,magenta,circle
0.0,7.0,2.0,1.0,5.0,5.0,502.8539979998641,8.0,1.0,phase_2,stop,400.0,350.0,3.0,,,,,,,,,orange,hexagon
0.0,3.0,2.0,0.0,6.0,6.0,339.9169350000193,8.0,1.0,phase_2,go,350.0,350.0,1.0,,,,,,,,,yellow,cross
0.0,3.0,2.0,0.0,5.0,5.0,393.706347999796,8.0,1.0,phase_2,go,350.0,350.0,1.0,,,,,,,,,yellow,cross
0.0,6.0,1.0,1.0,6.0,6.0,483.4826379997139,8.0,1.0,phase_2,stop,350.0,350.0,3.0,,,,,,,,,blue,triangle
0.0,1.0,0.5,0.0,5.0,5.0,453.2450300002892,8.0,1.0,phase_2,go,350.0,300.0,1.0,,,,,,,,,cyan,diamond
0.0,7.0,2.0,1.0,6.0,6.0,1428.4465880000423,8.0,1.0,phase_2,stop,350.0,300.0,3.0,,,,,,,,,orange,hexagon
0.0,8.0,4.0,1.0,5.0,5.0,502.69784499960224,8.0,1.0,phase_2,stop,350.0,250.0,3.0,,,,,,,,,white,I
0.0,8.0,4.0,1.0,6.0,0.0,0.0,8.0,1.0,phase_2,stop,300.0,250.0,4.0,,,,,,,,,white,I
0.0,3.0,2.0,0.0,7.0,4.0,3479.368878999594,1.0,1.0,phase_3,,,,,216.0,4.0,54.0,324.0,108.0,216.0,270.0,162.0,yellow,cross
0.0,1.0,0.5,0.0,7.0,2.0,1988.0599309999525,1.0,1.0,phase_3,,,,,204.0,6.0,34.0,204.0,68.0,136.0,102.0,170.0,cyan,diamond
0.0,8.0,4.0,1.0,7.0,6.0,1353.4140130000196,1.0,1.0,phase_3,,,,,294.0,6.0,98.0,196.0,49.0,147.0,245.0,294.0,white,I
0.0,8.0,4.0,1.0,7.0,3.0,1324.9581390000458,1.0,1.0,phase_3,,,,,220.0,5.0,176.0,132.0,220.0,88.0,44.0,264.0,white,I
0.0,1.0,0.5,0.0,7.0,5.0,1017.4845179999463,1.0,1.0,phase_3,,,,,39.0,1.0,156.0,117.0,195.0,78.0,39.0,234.0,cyan,diamond
0.0,7.0,2.0,1.0,7.0,1.0,1887.002145000224,1.0,1.0,phase_3,,,,,234.0,6.0,234.0,39.0,117.0,156.0,195.0,78.0,orange,hexagon
0.0,3.0,2.0,0.0,7.0,2.0,1484.1696710000178,1.0,1.0,phase_3,,,,,117.0,3.0,195.0,117.0,39.0,234.0,78.0,156.0,yellow,cross
0.0,5.0,0.5,1.0,7.0,4.0,1679.9270340002297,1.0,1.0,phase_3,,,,,216.0,4.0,162.0,324.0,270.0,216.0,108.0,54.0,gray,flipped triangle
0.0,4.0,4.0,0.0,7.0,1.0,621.9786880001266,1.0,1.0,phase_3,,,,,102.0,3.0,102.0,68.0,34.0,136.0,204.0,170.0,magenta,circle
0.0,3.0,2.0,0.0,7.0,5.0,1681.822142999863,1.0,1.0,phase_3,,,,,196.0,4.0,294.0,49.0,98.0,245.0,196.0,147.0,yellow,cross
0.0,7.0,2.0,1.0,7.0,4.0,629.2072729997926,1.0,1.0,phase_3,,,,,245.0,5.0,98.0,196.0,49.0,245.0,294.0,147.0,orange,hexagon
0.0,2.0,1.0,0.0,7.0,6.0,678.4112209998057,1.0,1.0,phase_3,,,,,88.0,2.0,176.0,220.0,44.0,264.0,132.0,88.0,green,square
0.0,2.0,1.0,0.0,7.0,1.0,569.2019909997725,1.0,1.0,phase_3,,,,,245.0,5.0,245.0,98.0,196.0,49.0,294.0,147.0,green,square
0.0,2.0,1.0,0.0,7.0,2.0,595.1304560003337,1.0,1.0,phase_3,,,,,196.0,4.0,245.0,196.0,98.0,147.0,49.0,294.0,green,square
0.0,4.0,4.0,0.0,7.0,5.0,1505.010613000195,1.0,1.0,phase_3,,,,,147.0,3.0,196.0,98.0,49.0,245.0,147.0,294.0,magenta,circle
0.0,5.0,0.5,1.0,7.0,3.0,340.1980409998941,1.0,1.0,phase_3,,,,,147.0,3.0,245.0,294.0,147.0,196.0,49.0,98.0,gray,flipped triangle
0.0,2.0,1.0,0.0,7.0,6.0,1320.836818999851,1.0,1.0,phase_3,,,,,136.0,4.0,204.0,170.0,34.0,102.0,68.0,136.0,green,square
0.0,1.0,0.5,0.0,7.0,1.0,351.1241769997468,1.0,1.0,phase_3,,,,,270.0,5.0,270.0,54.0,108.0,324.0,216.0,162.0,cyan,diamond
0.0,7.0,2.0,1.0,7.0,4.0,302.4463990000186,1.0,1.0,phase_3,,,,,204.0,6.0,102.0,136.0,68.0,204.0,34.0,170.0,orange,hexagon
0.0,7.0,2.0,1.0,7.0,5.0,252.46142900004998,1.0,1.0,phase_3,,,,,162.0,3.0,54.0,324.0,108.0,270.0,162.0,216.0,orange,hexagon
0.0,8.0,4.0,1.0,7.0,2.0,1244.0934670003116,2.0,1.0,phase_3,,,,,170.0,5.0,204.0,170.0,102.0,68.0,34.0,136.0,white,I
0.0,6.0,1.0,1.0,7.0,6.0,1195.0731599999926,2.0,1.0,phase_3,,,,,102.0,3.0,68.0,34.0,136.0,170.0,204.0,102.0,blue,triangle
0.0,5.0,0.5,1.0,7.0,2.0,976.67321300014,2.0,1.0,phase_3,,,,,78.0,2.0,156.0,78.0,234.0,195.0,39.0,117.0,gray,flipped triangle
0.0,3.0,2.0,0.0,7.0,1.0,531.0839939993457,2.0,1.0,phase_3,,,,,234.0,6.0,234.0,78.0,195.0,39.0,117.0,156.0,yellow,cross
0.0,7.0,2.0,1.0,7.0,5.0,583.2971629997701,2.0,1.0,phase_3,,,,,136.0,4.0,102.0,34.0,68.0,204.0,136.0,170.0,orange,hexagon
0.0,2.0,1.0,0.0,7.0,6.0,942.8310339999372,2.0,1.0,phase_3,,,,,54.0,1.0,108.0,216.0,270.0,324.0,162.0,54.0,green,square
0.0,5.0,0.5,1.0,7.0,2.0,374.2752309999559,2.0,1.0,phase_3,,,,,156.0,4.0,39.0,156.0,234.0,78.0,195.0,117.0,gray,flipped triangle
0.0,7.0,2.0,1.0,7.0,1.0,320.4355230000146,2.0,1.0,phase_3,,,,,196.0,4.0,196.0,49.0,245.0,98.0,294.0,147.0,orange,hexagon
0.0,1.0,0.5,0.0,7.0,2.0,418.1708739997702,2.0,1.0,phase_3,,,,,220.0,5.0,88.0,220.0,264.0,44.0,176.0,132.0,cyan,diamond
0.0,1.0,0.5,0.0,7.0,5.0,388.7597200000527,2.0,1.0,phase_3,,,,,204.0,6.0,68.0,170.0,136.0,102.0,204.0,34.0,cyan,diamond
0.0,2.0,1.0,0.0,7.0,6.0,212.5980060000074,2.0,1.0,phase_3,,,,,195.0,5.0,234.0,156.0,117.0,78.0,39.0,195.0,green,square
0.0,5.0,0.5,1.0,7.0,4.0,440.0769089997993,2.0,1.0,phase_3,,,,,264.0,6.0,132.0,44.0,220.0,264.0,88.0,176.0,gray,flipped triangle
0.0,6.0,1.0,1.0,7.0,1.0,353.5441820004052,2.0,1.0,phase_3,,,,,294.0,6.0,294.0,49.0,245.0,196.0,98.0,147.0,blue,triangle
0.0,2.0,1.0,0.0,7.0,6.0,342.5239629996213,2.0,1.0,phase_3,,,,,220.0,5.0,264.0,176.0,132.0,88.0,44.0,220.0,green,square
0.0,6.0,1.0,1.0,7.0,6.0,32.434709999506495,2.0,1.0,phase_3,,,,,270.0,5.0,54.0,216.0,324.0,108.0,162.0,270.0,blue,triangle
0.0,5.0,0.5,1.0,7.0,3.0,1525.3131419995043,2.0,1.0,phase_3,,,,,34.0,1.0,170.0,136.0,34.0,68.0,102.0,204.0,gray,flipped triangle
0.0,4.0,4.0,0.0,7.0,1.0,745.5986180002583,2.0,1.0,phase_3,,,,,117.0,3.0,117.0,234.0,195.0,156.0,78.0,39.0,magenta,circle
0.0,1.0,0.5,0.0,7.0,5.0,3263.9459359998,2.0,1.0,phase_3,,,,,324.0,6.0,216.0,108.0,162.0,54.0,324.0,270.0,cyan,diamond
0.0,8.0,4.0,1.0,7.0,6.0,454.492420999486,2.0,1.0,phase_3,,,,,117.0,3.0,234.0,156.0,78.0,195.0,39.0,117.0,white,I
0.0,6.0,1.0,1.0,7.0,2.0,472.3744480006644,2.0,1.0,phase_3,,,,,147.0,3.0,196.0,147.0,49.0,294.0,98.0,245.0,blue,triangle
0.0,8.0,4.0,1.0,7.0,1.0,817.3005019998527,3.0,1.0,phase_3,,,,,54.0,1.0,54.0,162.0,216.0,108.0,324.0,270.0,white,I
0.0,3.0,2.0,0.0,7.0,4.0,1679.7536349995426,3.0,1.0,phase_3,,,,,170.0,5.0,68.0,34.0,102.0,170.0,136.0,204.0,yellow,cross
0.0,1.0,0.5,0.0,7.0,6.0,478.8603630004218,3.0,1.0,phase_3,,,,,49.0,1.0,147.0,245.0,196.0,98.0,294.0,49.0,cyan,diamond
0.0,5.0,0.5,1.0,7.0,2.0,402.6832659992578,3.0,1.0,phase_3,,,,,136.0,4.0,170.0,136.0,34.0,204.0,68.0,102.0,gray,flipped triangle
0.0,7.0,2.0,1.0,7.0,3.0,498.550322000483,3.0,1.0,phase_3,,,,,264.0,6.0,220.0,44.0,264.0,132.0,176.0,88.0,orange,hexagon
0.0,5.0,0.5,1.0,7.0,1.0,541.6090580001764,3.0,1.0,phase_3,,,,,245.0,5.0,245.0,147.0,196.0,98.0,294.0,49.0,gray,flipped triangle
0.0,7.0,2.0,1.0,7.0,2.0,706.2058089995844,3.0,1.0,phase_3,,,,,234.0,6.0,39.0,234.0,78.0,117.0,156.0,195.0,orange,hexagon
0.0,5.0,0.5,1.0,7.0,5.0,330.1122149996445,3.0,1.0,phase_3,,,,,54.0,1.0,324.0,162.0,216.0,108.0,54.0,270.0,gray,flipped triangle
0.0,4.0,4.0,0.0,7.0,6.0,1353.299886000059,3.0,1.0,phase_3,,,,,44.0,1.0,264.0,132.0,176.0,220.0,88.0,44.0,magenta,circle
0.0,8.0,4.0,1.0,7.0,3.0,598.2821770003284,3.0,1.0,phase_3,,,,,245.0,5.0,196.0,294.0,245.0,98.0,147.0,49.0,white,I
0.0,8.0,4.0,1.0,7.0,6.0,0.2114440003424,3.0,1.0,phase_3,,,,,204.0,6.0,102.0,170.0,68.0,34.0,136.0,204.0,white,I
0.0,2.0,1.0,0.0,7.0,5.0,731.4962520003974,3.0,1.0,phase_3,,,,,234.0,6.0,117.0,39.0,195.0,78.0,234.0,156.0,green,square
0.0,4.0,4.0,0.0,7.0,4.0,686.7603040000176,3.0,1.0,phase_3,,,,,39.0,1.0,117.0,234.0,78.0,39.0,195.0,156.0,magenta,circle
0.0,6.0,1.0,1.0,7.0,3.0,944.696403999842,3.0,1.0,phase_3,,,,,44.0,1.0,264.0,176.0,44.0,132.0,220.0,88.0,blue,triangle
0.0,7.0,2.0,1.0,7.0,2.0,15.452007000021599,3.0,1.0,phase_3,,,,,176.0,4.0,220.0,176.0,264.0,132.0,88.0,44.0,orange,hexagon
0.0,4.0,4.0,0.0,7.0,5.0,482.8691539996725,3.0,1.0,phase_3,,,,,196.0,4.0,49.0,98.0,294.0,147.0,196.0,245.0,magenta,circle
0.0,4.0,4.0,0.0,7.0,6.0,568.0145919995994,3.0,1.0,phase_3,,,,,162.0,3.0,216.0,270.0,54.0,108.0,324.0,162.0,magenta,circle
0.0,5.0,0.5,1.0,7.0,3.0,2170.174576000136,3.0,1.0,phase_3,,,,,88.0,2.0,44.0,132.0,88.0,264.0,176.0,220.0,gray,flipped triangle
0.0,6.0,1.0,1.0,7.0,1.0,4668.406345999756,3.0,1.0,phase_3,,,,,39.0,1.0,39.0,156.0,234.0,78.0,195.0,117.0,blue,triangle
0.0,3.0,2.0,0.0,7.0,2.0,2267.7613659998315,3.0,1.0,phase_3,,,,,294.0,6.0,98.0,294.0,147.0,245.0,49.0,196.0,yellow,cross
0.0,7.0,2.0,1.0,7.0,6.0,1499.8073180004212,4.0,1.0,phase_3,,,,,162.0,3.0,324.0,216.0,108.0,54.0,270.0,162.0,orange,hexagon
0.0,4.0,4.0,0.0,7.0,6.0,305.9015059998273,4.0,1.0,phase_3,,,,,324.0,6.0,270.0,54.0,216.0,108.0,162.0,324.0,magenta,circle
0.0,8.0,4.0,1.0,7.0,5.0,1065.9901700000771,4.0,1.0,phase_3,,,,,156.0,4.0,117.0,234.0,195.0,39.0,156.0,78.0,white,I
0.0,6.0,1.0,1.0,7.0,1.0,3743.3132750002183,4.0,1.0,phase_3,,,,,54.0,1.0,54.0,108.0,270.0,162.0,216.0,324.0,blue,triangle
0.0,3.0,2.0,0.0,7.0,2.0,1246.2279159999523,4.0,1.0,phase_3,,,,,88.0,2.0,264.0,88.0,176.0,132.0,220.0,44.0,yellow,cross
0.0,4.0,4.0,0.0,7.0,6.0,231.1259080006493,4.0,1.0,phase_3,,,,,68.0,2.0,34.0,136.0,102.0,204.0,170.0,68.0,magenta,circle
0.0,1.0,0.5,0.0,7.0,6.0,217.3396790003607,4.0,1.0,phase_3,,,,,78.0,2.0,234.0,156.0,117.0,195.0,39.0,78.0,cyan,diamond
0.0,6.0,1.0,1.0,7.0,1.0,424.8575249994246,4.0,1.0,phase_3,,,,,44.0,1.0,44.0,88.0,132.0,176.0,264.0,220.0,blue,triangle
0.0,6.0,1.0,1.0,7.0,4.0,2680.5309969995506,4.0,1.0,phase_3,,,,,39.0,1.0,78.0,234.0,195.0,39.0,156.0,117.0,blue,triangle
0.0,2.0,1.0,0.0,7.0,6.0,888.6011319991667,4.0,1.0,phase_3,,,,,270.0,5.0,108.0,162.0,216.0,324.0,54.0,270.0,green,square
0.0,3.0,2.0,0.0,7.0,2.0,729.3427000004158,4.0,1.0,phase_3,,,,,88.0,2.0,132.0,88.0,264.0,220.0,176.0,44.0,yellow,cross
0.0,3.0,2.0,0.0,7.0,2.0,510.8593300001303,4.0,1.0,phase_3,,,,,162.0,3.0,216.0,162.0,324.0,54.0,108.0,270.0,yellow,cross
0.0,6.0,1.0,1.0,7.0,3.0,2704.4441240004744,4.0,1.0,phase_3,,,,,136.0,4.0,34.0,170.0,136.0,102.0,204.0,68.0,blue,triangle
0.0,4.0,4.0,0.0,7.0,6.0,379.6621129995401,4.0,1.0,phase_3,,,,,220.0,5.0,88.0,44.0,264.0,132.0,176.0,220.0,magenta,circle
0.0,1.0,0.5,0.0,7.0,6.0,419.9785629998587,4.0,1.0,phase_3,,,,,294.0,6.0,245.0,147.0,98.0,196.0,49.0,294.0,cyan,diamond
0.0,1.0,0.5,0.0,7.0,6.0,314.3433260001984,4.0,1.0,phase_3,,,,,132.0,3.0,176.0,220.0,88.0,44.0,264.0,132.0,cyan,diamond
0.0,3.0,2.0,0.0,7.0,2.0,739.3312399999559,4.0,1.0,phase_3,,,,,68.0,2.0,204.0,68.0,102.0,34.0,136.0,170.0,yellow,cross
0.0,8.0,4.0,1.0,7.0,5.0,985.1393609997104,4.0,1.0,phase_3,,,,,324.0,6.0,54.0,162.0,108.0,216.0,324.0,270.0,white,I
0.0,2.0,1.0,0.0,7.0,6.0,726.8892820002293,4.0,1.0,phase_3,,,,,34.0,1.0,136.0,204.0,68.0,170.0,102.0,34.0,green,square
0.0,8.0,4.0,1.0,7.0,3.0,2740.391106999596,4.0,1.0,phase_3,,,,,44.0,1.0,220.0,132.0,44.0,88.0,176.0,264.0,white,I
