raw_reward_magnitude,stim_reward,stepwise_reward_magnitude,paired_with_stopping,quadrant,response,reaction_time,block,num_trial_presentations,which_part,stop_signal_trial_type,left_SSD,right_SSD,accuracy,chosen_bidding_amount,chosen_bidding_level,possible_bid_1,possible_bid_2,possible_bid_3,possible_bid_4,possible_bid_5,possible_bid_6,color_text,shape_text
0.0,5.0,0.0,1.0,2.0,2.0,361.9184789999963,1.0,1.0,part_1,,,,,,,,,,,,,cyan,diamond
396.0,4.0,4.0,0.0,3.0,3.0,258.2835369998975,1.0,1.0,part_1,,,,,,,,,,,,,magenta,I
75.0,1.0,1.0,0.0,3.0,3.0,303.2738150000114,1.0,1.0,part_1,,,,,,,,,,,,,gray,circle
197.0,3.0,3.0,0.0,2.0,2.0,246.6143300000567,1.0,1.0,part_1,,,,,,,,,,,,,yellow,cross
189.0,7.0,3.0,1.0,2.0,2.0,271.6996100000415,1.0,1.0,part_1,,,,,,,,,,,,,blue,square
105.0,6.0,2.0,1.0,2.0,2.0,241.0130610001033,1.0,1.0,part_1,,,,,,,,,,,,,white,flipped triangle
73.0,5.0,1.0,1.0,1.0,1.0,231.5572530001191,1.0,1.0,part_1,,,,,,,,,,,,,cyan,diamond
66.0,5.0,1.0,1.0,1.0,1.0,281.2666669999544,1.0,2.0,part_1,,,,,,,,,,,,,cyan,diamond
0.0,2.0,0.0,0.0,2.0,2.0,229.3512399999144,1.0,1.0,part_1,,,,,,,,,,,,,green,hexagon
0.0,5.0,0.0,1.0,3.0,3.0,299.2779290000271,1.0,1.0,part_1,,,,,,,,,,,,,cyan,diamond
70.0,1.0,1.0,0.0,4.0,4.0,334.914733000005,1.0,2.0,part_1,,,,,,,,,,,,,gray,circle
42.0,1.0,1.0,0.0,1.0,1.0,281.7605789998652,1.0,1.0,part_1,,,,,,,,,,,,,gray,circle
114.0,6.0,2.0,1.0,1.0,1.0,269.8608139999123,1.0,1.0,part_1,,,,,,,,,,,,,white,flipped triangle
37.0,5.0,1.0,1.0,2.0,2.0,311.3069880000694,1.0,1.0,part_1,,,,,,,,,,,,,cyan,diamond
416.0,8.0,4.0,1.0,1.0,1.0,307.8903910000008,1.0,1.0,part_1,,,,,,,,,,,,,orange,triangle
400.0,8.0,4.0,1.0,3.0,3.0,338.8249299998733,1.0,1.0,part_1,,,,,,,,,,,,,orange,triangle
115.0,2.0,2.0,0.0,2.0,2.0,248.9145120000557,1.0,1.0,part_1,,,,,,,,,,,,,green,hexagon
203.0,3.0,3.0,0.0,2.0,2.0,269.5083070000237,1.0,1.0,part_1,,,,,,,,,,,,,yellow,cross
182.0,3.0,3.0,0.0,4.0,4.0,263.0342620000192,1.0,1.0,part_1,,,,,,,,,,,,,yellow,cross
42.0,5.0,1.0,1.0,4.0,4.0,287.9478970000946,1.0,1.0,part_1,,,,,,,,,,,,,cyan,diamond
386.0,4.0,4.0,0.0,4.0,4.0,319.6844149999833,1.0,1.0,part_1,,,,,,,,,,,,,magenta,I
385.0,4.0,4.0,0.0,3.0,3.0,390.4733580000084,1.0,1.0,part_1,,,,,,,,,,,,,magenta,I
390.0,4.0,4.0,0.0,4.0,4.0,313.5387410000021,1.0,1.0,part_1,,,,,,,,,,,,,magenta,I
61.0,1.0,1.0,0.0,2.0,2.0,285.4918880000241,1.0,1.0,part_1,,,,,,,,,,,,,gray,circle
66.0,1.0,1.0,0.0,4.0,4.0,252.5095070000134,1.0,1.0,part_1,,,,,,,,,,,,,gray,circle
114.0,2.0,2.0,0.0,2.0,2.0,273.2172280000213,1.0,1.0,part_1,,,,,,,,,,,,,green,hexagon
102.0,2.0,2.0,0.0,2.0,2.0,264.2065329998786,1.0,1.0,part_1,,,,,,,,,,,,,green,hexagon
53.0,1.0,1.0,0.0,1.0,1.0,287.7655040001627,1.0,1.0,part_1,,,,,,,,,,,,,gray,circle
0.0,2.0,0.0,0.0,3.0,3.0,300.8410810000441,1.0,1.0,part_1,,,,,,,,,,,,,green,hexagon
375.0,4.0,4.0,0.0,1.0,1.0,267.1163919999344,1.0,1.0,part_1,,,,,,,,,,,,,magenta,I
119.0,2.0,2.0,0.0,2.0,2.0,286.7161740000483,1.0,1.0,part_1,,,,,,,,,,,,,green,hexagon
109.0,6.0,2.0,1.0,2.0,2.0,288.6467629998606,1.0,1.0,part_1,,,,,,,,,,,,,white,flipped triangle
30.0,1.0,1.0,0.0,2.0,2.0,257.7663219999522,1.0,1.0,part_1,,,,,,,,,,,,,gray,circle
177.0,7.0,3.0,1.0,4.0,4.0,261.9509200001175,1.0,1.0,part_1,,,,,,,,,,,,,blue,square
91.0,6.0,2.0,1.0,2.0,2.0,217.3837899999853,1.0,1.0,part_1,,,,,,,,,,,,,white,flipped triangle
75.0,5.0,1.0,1.0,4.0,4.0,254.41577800006598,1.0,1.0,part_1,,,,,,,,,,,,,cyan,diamond
400.0,4.0,4.0,0.0,2.0,2.0,236.2415650000002,1.0,1.0,part_1,,,,,,,,,,,,,magenta,I
48.0,1.0,1.0,0.0,3.0,3.0,292.8924880000068,1.0,1.0,part_1,,,,,,,,,,,,,gray,circle
185.0,7.0,3.0,1.0,1.0,1.0,295.1767160000145,1.0,1.0,part_1,,,,,,,,,,,,,blue,square
216.0,7.0,3.0,1.0,3.0,3.0,337.4648579999757,1.0,1.0,part_1,,,,,,,,,,,,,blue,square
398.0,4.0,4.0,0.0,1.0,1.0,252.82999399996697,1.0,1.0,part_1,,,,,,,,,,,,,magenta,I
116.0,2.0,2.0,0.0,4.0,4.0,287.9020769998988,1.0,1.0,part_1,,,,,,,,,,,,,green,hexagon
204.0,3.0,3.0,0.0,2.0,2.0,279.3491360000644,1.0,1.0,part_1,,,,,,,,,,,,,yellow,cross
0.0,6.0,0.0,1.0,3.0,3.0,271.4107770000282,1.0,1.0,part_1,,,,,,,,,,,,,white,flipped triangle
0.0,2.0,0.0,0.0,4.0,4.0,238.7454059999072,1.0,1.0,part_1,,,,,,,,,,,,,green,hexagon
34.0,1.0,1.0,0.0,1.0,1.0,312.625435999962,1.0,1.0,part_1,,,,,,,,,,,,,gray,circle
54.0,5.0,1.0,1.0,3.0,3.0,255.58608400001498,1.0,1.0,part_1,,,,,,,,,,,,,cyan,diamond
183.0,7.0,3.0,1.0,4.0,4.0,227.7483709999614,1.0,1.0,part_1,,,,,,,,,,,,,blue,square
203.0,7.0,3.0,1.0,2.0,2.0,317.6470719999997,1.0,1.0,part_1,,,,,,,,,,,,,blue,square
99.0,6.0,2.0,1.0,2.0,2.0,312.8503410000576,1.0,1.0,part_1,,,,,,,,,,,,,white,flipped triangle
26.0,5.0,1.0,1.0,1.0,1.0,300.9296539999013,1.0,1.0,part_1,,,,,,,,,,,,,cyan,diamond
66.0,1.0,1.0,0.0,2.0,2.0,281.6111729998738,1.0,1.0,part_1,,,,,,,,,,,,,gray,circle
81.0,6.0,2.0,1.0,4.0,4.0,260.1628520001213,1.0,1.0,part_1,,,,,,,,,,,,,white,flipped triangle
415.0,4.0,4.0,0.0,1.0,1.0,260.5693000000428,1.0,1.0,part_1,,,,,,,,,,,,,magenta,I
197.0,7.0,3.0,1.0,1.0,1.0,330.5500910000774,1.0,1.0,part_1,,,,,,,,,,,,,blue,square
216.0,3.0,3.0,0.0,3.0,3.0,323.9869399999406,1.0,1.0,part_1,,,,,,,,,,,,,yellow,cross
214.0,7.0,3.0,1.0,3.0,3.0,337.174725000068,1.0,1.0,part_1,,,,,,,,,,,,,blue,square
189.0,3.0,3.0,0.0,1.0,1.0,325.4304890001549,1.0,1.0,part_1,,,,,,,,,,,,,yellow,cross
0.0,3.0,0.0,0.0,3.0,3.0,264.3120050001926,1.0,1.0,part_1,,,,,,,,,,,,,yellow,cross
0.0,1.0,0.0,0.0,1.0,1.0,264.2782480002097,1.0,1.0,part_1,,,,,,,,,,,,,gray,circle
414.0,4.0,4.0,0.0,1.0,1.0,269.6528579999722,1.0,1.0,part_1,,,,,,,,,,,,,magenta,I
398.0,4.0,4.0,0.0,2.0,2.0,259.4664959999591,1.0,1.0,part_1,,,,,,,,,,,,,magenta,I
176.0,7.0,3.0,1.0,4.0,4.0,254.5567019999453,1.0,1.0,part_1,,,,,,,,,,,,,blue,square
204.0,7.0,3.0,1.0,4.0,4.0,340.91821800006977,1.0,1.0,part_1,,,,,,,,,,,,,blue,square
119.0,6.0,2.0,1.0,4.0,4.0,266.7388049999317,1.0,1.0,part_1,,,,,,,,,,,,,white,flipped triangle
398.0,8.0,4.0,1.0,1.0,1.0,252.3476199999095,1.0,1.0,part_1,,,,,,,,,,,,,orange,triangle
417.0,4.0,4.0,0.0,4.0,4.0,305.5824559999109,1.0,1.0,part_1,,,,,,,,,,,,,magenta,I
212.0,7.0,3.0,1.0,4.0,4.0,267.1632340000087,1.0,1.0,part_1,,,,,,,,,,,,,blue,square
190.0,3.0,3.0,0.0,2.0,2.0,364.3267489999289,1.0,1.0,part_1,,,,,,,,,,,,,yellow,cross
386.0,4.0,4.0,0.0,3.0,3.0,335.3491220000251,1.0,1.0,part_1,,,,,,,,,,,,,magenta,I
218.0,3.0,3.0,0.0,4.0,4.0,266.1540869999044,1.0,1.0,part_1,,,,,,,,,,,,,yellow,cross
0.0,7.0,0.0,1.0,4.0,4.0,241.2695599998642,1.0,1.0,part_1,,,,,,,,,,,,,blue,square
115.0,6.0,2.0,1.0,1.0,1.0,315.604545000042,1.0,1.0,part_1,,,,,,,,,,,,,white,flipped triangle
392.0,4.0,4.0,0.0,1.0,1.0,298.1981220000307,1.0,1.0,part_1,,,,,,,,,,,,,magenta,I
0.0,1.0,0.0,0.0,3.0,3.0,374.809113000083,1.0,1.0,part_1,,,,,,,,,,,,,gray,circle
0.0,6.0,0.0,1.0,4.0,4.0,260.3915100000904,1.0,1.0,part_1,,,,,,,,,,,,,white,flipped triangle
396.0,8.0,4.0,1.0,4.0,4.0,293.7481139999818,1.0,1.0,part_1,,,,,,,,,,,,,orange,triangle
72.0,1.0,1.0,0.0,1.0,1.0,283.8838459999806,1.0,1.0,part_1,,,,,,,,,,,,,gray,circle
400.0,8.0,4.0,1.0,2.0,2.0,327.6086800001394,1.0,1.0,part_1,,,,,,,,,,,,,orange,triangle
397.0,4.0,4.0,0.0,1.0,1.0,312.8542690001268,1.0,1.0,part_1,,,,,,,,,,,,,magenta,I
209.0,7.0,3.0,1.0,3.0,3.0,308.2104489999437,1.0,1.0,part_1,,,,,,,,,,,,,blue,square
200.0,7.0,3.0,1.0,3.0,3.0,310.6629330000032,1.0,1.0,part_1,,,,,,,,,,,,,blue,square
212.0,3.0,3.0,0.0,1.0,1.0,288.4504329999799,1.0,1.0,part_1,,,,,,,,,,,,,yellow,cross
0.0,5.0,0.0,1.0,1.0,1.0,303.392532000089,1.0,1.0,part_1,,,,,,,,,,,,,cyan,diamond
410.0,4.0,4.0,0.0,2.0,2.0,276.4343240000926,1.0,1.0,part_1,,,,,,,,,,,,,magenta,I
78.0,2.0,2.0,0.0,2.0,2.0,245.6634640000174,1.0,1.0,part_1,,,,,,,,,,,,,green,hexagon
0.0,8.0,0.0,1.0,2.0,2.0,250.2293109998845,1.0,1.0,part_1,,,,,,,,,,,,,orange,triangle
0.0,3.0,0.0,0.0,3.0,3.0,252.22224699996332,1.0,1.0,part_1,,,,,,,,,,,,,yellow,cross
383.0,4.0,4.0,0.0,3.0,3.0,407.0533280000745,1.0,1.0,part_1,,,,,,,,,,,,,magenta,I
81.0,2.0,2.0,0.0,4.0,4.0,270.3841279999324,1.0,1.0,part_1,,,,,,,,,,,,,green,hexagon
176.0,3.0,3.0,0.0,1.0,1.0,248.4635159999015,1.0,1.0,part_1,,,,,,,,,,,,,yellow,cross
186.0,7.0,3.0,1.0,1.0,1.0,259.3030370001088,1.0,1.0,part_1,,,,,,,,,,,,,blue,square
222.0,3.0,3.0,0.0,4.0,4.0,311.8517209998117,1.0,1.0,part_1,,,,,,,,,,,,,yellow,cross
42.0,1.0,1.0,0.0,2.0,2.0,274.936142000115,1.0,1.0,part_1,,,,,,,,,,,,,gray,circle
185.0,3.0,3.0,0.0,1.0,1.0,263.126087000046,1.0,1.0,part_1,,,,,,,,,,,,,yellow,cross
51.0,1.0,1.0,0.0,2.0,2.0,302.5366609999764,1.0,1.0,part_1,,,,,,,,,,,,,gray,circle
122.0,6.0,2.0,1.0,2.0,2.0,315.214922999985,1.0,1.0,part_1,,,,,,,,,,,,,white,flipped triangle
417.0,8.0,4.0,1.0,4.0,4.0,240.1209449999441,1.0,1.0,part_1,,,,,,,,,,,,,orange,triangle
0.0,4.0,0.0,0.0,4.0,4.0,285.6134549999751,1.0,1.0,part_1,,,,,,,,,,,,,magenta,I
0.0,7.0,0.0,1.0,2.0,2.0,259.3996360001256,1.0,1.0,part_1,,,,,,,,,,,,,blue,square
85.0,2.0,2.0,0.0,4.0,4.0,355.2357199998823,2.0,1.0,part_1,,,,,,,,,,,,,green,hexagon
119.0,6.0,2.0,1.0,3.0,3.0,331.6944670000339,2.0,1.0,part_1,,,,,,,,,,,,,white,flipped triangle
48.0,5.0,1.0,1.0,1.0,1.0,269.8603469998488,2.0,1.0,part_1,,,,,,,,,,,,,cyan,diamond
224.0,7.0,3.0,1.0,3.0,3.0,230.0450019999971,2.0,1.0,part_1,,,,,,,,,,,,,blue,square
0.0,3.0,0.0,0.0,2.0,2.0,251.84097099986502,2.0,1.0,part_1,,,,,,,,,,,,,yellow,cross
410.0,8.0,4.0,1.0,4.0,4.0,278.7069020000672,2.0,1.0,part_1,,,,,,,,,,,,,orange,triangle
0.0,5.0,0.0,1.0,4.0,4.0,313.9738959998794,2.0,1.0,part_1,,,,,,,,,,,,,cyan,diamond
0.0,7.0,0.0,1.0,4.0,4.0,302.40901899992417,2.0,1.0,part_1,,,,,,,,,,,,,blue,square
77.0,2.0,2.0,0.0,3.0,3.0,267.5630740000088,2.0,1.0,part_1,,,,,,,,,,,,,green,hexagon
183.0,3.0,3.0,0.0,3.0,3.0,298.7741340000411,2.0,2.0,part_1,,,,,,,,,,,,,yellow,cross
0.0,4.0,0.0,0.0,3.0,3.0,524.6289799999886,2.0,1.0,part_1,,,,,,,,,,,,,magenta,I
0.0,1.0,0.0,0.0,3.0,3.0,380.7106680001197,2.0,1.0,part_1,,,,,,,,,,,,,gray,circle
29.0,1.0,1.0,0.0,4.0,4.0,252.51366199995567,2.0,1.0,part_1,,,,,,,,,,,,,gray,circle
196.0,3.0,3.0,0.0,2.0,2.0,310.8888619999561,2.0,1.0,part_1,,,,,,,,,,,,,yellow,cross
0.0,4.0,0.0,0.0,4.0,4.0,269.2902660000982,2.0,1.0,part_1,,,,,,,,,,,,,magenta,I
0.0,4.0,0.0,0.0,4.0,4.0,309.2669409998052,2.0,1.0,part_1,,,,,,,,,,,,,magenta,I
37.0,1.0,1.0,0.0,2.0,2.0,338.6471139999685,2.0,1.0,part_1,,,,,,,,,,,,,gray,circle
394.0,8.0,4.0,1.0,2.0,2.0,321.0325909999483,2.0,1.0,part_1,,,,,,,,,,,,,orange,triangle
100.0,2.0,2.0,0.0,2.0,2.0,271.8746720001945,2.0,1.0,part_1,,,,,,,,,,,,,green,hexagon
0.0,6.0,0.0,1.0,3.0,3.0,301.9503460000123,2.0,1.0,part_1,,,,,,,,,,,,,white,flipped triangle
189.0,3.0,3.0,0.0,1.0,1.0,301.3456399999086,2.0,2.0,part_1,,,,,,,,,,,,,yellow,cross
0.0,8.0,0.0,1.0,3.0,3.0,388.8637050001762,2.0,1.0,part_1,,,,,,,,,,,,,orange,triangle
89.0,2.0,2.0,0.0,1.0,1.0,338.3051749999595,2.0,1.0,part_1,,,,,,,,,,,,,green,hexagon
186.0,7.0,3.0,1.0,1.0,1.0,341.3892430000942,2.0,1.0,part_1,,,,,,,,,,,,,blue,square
208.0,3.0,3.0,0.0,3.0,3.0,288.1550800000241,2.0,1.0,part_1,,,,,,,,,,,,,yellow,cross
104.0,6.0,2.0,1.0,2.0,2.0,242.8508129999045,2.0,1.0,part_1,,,,,,,,,,,,,white,flipped triangle
102.0,2.0,2.0,0.0,4.0,4.0,362.7115179999691,2.0,1.0,part_1,,,,,,,,,,,,,green,hexagon
186.0,7.0,3.0,1.0,2.0,2.0,258.7424509999891,2.0,1.0,part_1,,,,,,,,,,,,,blue,square
45.0,1.0,1.0,0.0,4.0,4.0,285.6951119999849,2.0,1.0,part_1,,,,,,,,,,,,,gray,circle
196.0,7.0,3.0,1.0,1.0,1.0,311.625468000102,2.0,1.0,part_1,,,,,,,,,,,,,blue,square
89.0,6.0,2.0,1.0,3.0,3.0,306.6961419999643,2.0,1.0,part_1,,,,,,,,,,,,,white,flipped triangle
183.0,7.0,3.0,1.0,1.0,1.0,300.8960019999449,2.0,1.0,part_1,,,,,,,,,,,,,blue,square
0.0,1.0,0.0,0.0,2.0,2.0,248.2666369999151,2.0,1.0,part_1,,,,,,,,,,,,,gray,circle
220.0,7.0,3.0,1.0,3.0,3.0,323.8040850001198,2.0,1.0,part_1,,,,,,,,,,,,,blue,square
120.0,2.0,2.0,0.0,4.0,4.0,299.4905549999203,2.0,1.0,part_1,,,,,,,,,,,,,green,hexagon
0.0,6.0,0.0,1.0,1.0,1.0,233.7917820000257,2.0,1.0,part_1,,,,,,,,,,,,,white,flipped triangle
0.0,6.0,0.0,1.0,4.0,4.0,283.0806700001176,2.0,1.0,part_1,,,,,,,,,,,,,white,flipped triangle
77.0,6.0,2.0,1.0,1.0,1.0,358.6086160000832,2.0,1.0,part_1,,,,,,,,,,,,,white,flipped triangle
91.0,2.0,2.0,0.0,1.0,1.0,358.9585429999715,2.0,1.0,part_1,,,,,,,,,,,,,green,hexagon
72.0,5.0,1.0,1.0,2.0,2.0,317.4573789999613,2.0,1.0,part_1,,,,,,,,,,,,,cyan,diamond
93.0,2.0,2.0,0.0,3.0,3.0,299.6758600002067,2.0,1.0,part_1,,,,,,,,,,,,,green,hexagon
0.0,2.0,0.0,0.0,3.0,3.0,298.2097569999951,2.0,1.0,part_1,,,,,,,,,,,,,green,hexagon
37.0,5.0,1.0,1.0,2.0,2.0,263.3730929999274,2.0,1.0,part_1,,,,,,,,,,,,,cyan,diamond
196.0,7.0,3.0,1.0,2.0,2.0,327.6254170000356,2.0,1.0,part_1,,,,,,,,,,,,,blue,square
83.0,6.0,2.0,1.0,3.0,3.0,326.8042470001546,2.0,1.0,part_1,,,,,,,,,,,,,white,flipped triangle
0.0,4.0,0.0,0.0,2.0,2.0,271.5715360000104,2.0,1.0,part_1,,,,,,,,,,,,,magenta,I
224.0,7.0,3.0,1.0,1.0,1.0,292.5087339999663,2.0,1.0,part_1,,,,,,,,,,,,,blue,square
0.0,2.0,0.0,0.0,4.0,4.0,272.1097749999899,2.0,1.0,part_1,,,,,,,,,,,,,green,hexagon
112.0,6.0,2.0,1.0,1.0,1.0,325.2550510001128,2.0,1.0,part_1,,,,,,,,,,,,,white,flipped triangle
0.0,8.0,0.0,1.0,1.0,1.0,309.964194000031,2.0,1.0,part_1,,,,,,,,,,,,,orange,triangle
75.0,5.0,1.0,1.0,4.0,4.0,260.0222409998878,2.0,1.0,part_1,,,,,,,,,,,,,cyan,diamond
26.0,1.0,1.0,0.0,1.0,1.0,293.8441989999774,2.0,1.0,part_1,,,,,,,,,,,,,gray,circle
0.0,8.0,0.0,1.0,4.0,4.0,258.8916469999276,2.0,1.0,part_1,,,,,,,,,,,,,orange,triangle
70.0,5.0,1.0,1.0,4.0,4.0,272.513753000112,2.0,1.0,part_1,,,,,,,,,,,,,cyan,diamond
87.0,2.0,2.0,0.0,3.0,3.0,364.3452249998518,2.0,1.0,part_1,,,,,,,,,,,,,green,hexagon
105.0,2.0,2.0,0.0,3.0,3.0,326.2782619999598,2.0,1.0,part_1,,,,,,,,,,,,,green,hexagon
176.0,3.0,3.0,0.0,1.0,1.0,348.3426140001029,2.0,1.0,part_1,,,,,,,,,,,,,yellow,cross
0.0,7.0,0.0,1.0,2.0,2.0,245.8591399999932,2.0,1.0,part_1,,,,,,,,,,,,,blue,square
64.0,1.0,1.0,0.0,2.0,2.0,279.9396089999391,2.0,1.0,part_1,,,,,,,,,,,,,gray,circle
124.0,6.0,2.0,1.0,3.0,3.0,314.5297430000937,2.0,1.0,part_1,,,,,,,,,,,,,white,flipped triangle
379.0,4.0,4.0,0.0,4.0,4.0,319.3415030000324,2.0,1.0,part_1,,,,,,,,,,,,,magenta,I
176.0,7.0,3.0,1.0,4.0,4.0,310.7106459999613,2.0,1.0,part_1,,,,,,,,,,,,,blue,square
91.0,6.0,2.0,1.0,3.0,3.0,368.432121999831,2.0,1.0,part_1,,,,,,,,,,,,,white,flipped triangle
0.0,6.0,0.0,1.0,3.0,3.0,301.7960959998618,2.0,1.0,part_1,,,,,,,,,,,,,white,flipped triangle
375.0,4.0,4.0,0.0,4.0,4.0,273.8499609999962,2.0,1.0,part_1,,,,,,,,,,,,,magenta,I
0.0,7.0,0.0,1.0,1.0,1.0,293.6601920000612,2.0,1.0,part_1,,,,,,,,,,,,,blue,square
220.0,3.0,3.0,0.0,3.0,3.0,285.43762499998587,2.0,1.0,part_1,,,,,,,,,,,,,yellow,cross
184.0,3.0,3.0,0.0,3.0,3.0,386.2270429999626,2.0,1.0,part_1,,,,,,,,,,,,,yellow,cross
401.0,8.0,4.0,1.0,2.0,2.0,275.7743669999399,2.0,1.0,part_1,,,,,,,,,,,,,orange,triangle
424.0,4.0,4.0,0.0,2.0,2.0,292.7794649999669,2.0,1.0,part_1,,,,,,,,,,,,,magenta,I
190.0,7.0,3.0,1.0,4.0,4.0,299.4303389998549,2.0,1.0,part_1,,,,,,,,,,,,,blue,square
50.0,1.0,1.0,0.0,3.0,3.0,339.7183829999903,2.0,1.0,part_1,,,,,,,,,,,,,gray,circle
50.0,5.0,1.0,1.0,1.0,1.0,298.4576660001039,2.0,1.0,part_1,,,,,,,,,,,,,cyan,diamond
375.0,8.0,4.0,1.0,3.0,3.0,321.8024220000188,2.0,1.0,part_1,,,,,,,,,,,,,orange,triangle
378.0,8.0,4.0,1.0,1.0,1.0,307.4324159999833,2.0,1.0,part_1,,,,,,,,,,,,,orange,triangle
425.0,8.0,4.0,1.0,3.0,3.0,299.9680140001146,2.0,1.0,part_1,,,,,,,,,,,,,orange,triangle
382.0,8.0,4.0,1.0,4.0,4.0,323.7721199998304,2.0,1.0,part_1,,,,,,,,,,,,,orange,triangle
72.0,1.0,1.0,0.0,4.0,4.0,298.9064159999088,2.0,1.0,part_1,,,,,,,,,,,,,gray,circle
37.0,1.0,1.0,0.0,1.0,1.0,257.6493710000704,2.0,1.0,part_1,,,,,,,,,,,,,gray,circle
35.0,5.0,1.0,1.0,4.0,4.0,311.3673769998968,2.0,1.0,part_1,,,,,,,,,,,,,cyan,diamond
397.0,8.0,4.0,1.0,4.0,4.0,302.961175000064,2.0,1.0,part_1,,,,,,,,,,,,,orange,triangle
183.0,3.0,3.0,0.0,4.0,4.0,259.2702930000996,2.0,1.0,part_1,,,,,,,,,,,,,yellow,cross
89.0,2.0,2.0,0.0,1.0,1.0,248.120014000051,2.0,1.0,part_1,,,,,,,,,,,,,green,hexagon
0.0,7.0,0.0,1.0,3.0,3.0,279.4620879999456,2.0,1.0,part_1,,,,,,,,,,,,,blue,square
54.0,1.0,1.0,0.0,2.0,2.0,297.2367600000325,2.0,1.0,part_1,,,,,,,,,,,,,gray,circle
101.0,2.0,2.0,0.0,2.0,2.0,329.9147259999699,2.0,1.0,part_1,,,,,,,,,,,,,green,hexagon
30.0,5.0,1.0,1.0,2.0,2.0,273.5400130000016,2.0,1.0,part_1,,,,,,,,,,,,,cyan,diamond
199.0,7.0,3.0,1.0,2.0,2.0,236.1921019999044,2.0,1.0,part_1,,,,,,,,,,,,,blue,square
214.0,3.0,3.0,0.0,4.0,4.0,259.9860759999046,2.0,1.0,part_1,,,,,,,,,,,,,yellow,cross
124.0,2.0,2.0,0.0,2.0,2.0,241.2634309998793,2.0,1.0,part_1,,,,,,,,,,,,,green,hexagon
0.0,1.0,0.0,0.0,1.0,1.0,282.8994049998528,2.0,1.0,part_1,,,,,,,,,,,,,gray,circle
0.0,3.0,0.0,0.0,4.0,4.0,268.29855699998,2.0,1.0,part_1,,,,,,,,,,,,,yellow,cross
0.0,4.0,0.0,0.0,2.0,2.0,269.6101389999512,2.0,1.0,part_1,,,,,,,,,,,,,magenta,I
96.0,2.0,2.0,0.0,1.0,1.0,332.8388270001596,2.0,1.0,part_1,,,,,,,,,,,,,green,hexagon
409.0,4.0,4.0,0.0,3.0,3.0,303.5589920000348,2.0,1.0,part_1,,,,,,,,,,,,,magenta,I
0.0,2.0,0.0,0.0,2.0,2.0,276.488621999988,2.0,1.0,part_1,,,,,,,,,,,,,green,hexagon
32.0,1.0,1.0,0.0,3.0,3.0,342.9581180000696,2.0,1.0,part_1,,,,,,,,,,,,,gray,circle
28.0,1.0,1.0,0.0,3.0,3.0,375.2987840000514,2.0,1.0,part_1,,,,,,,,,,,,,gray,circle
186.0,3.0,3.0,0.0,2.0,2.0,266.5697349998481,2.0,1.0,part_1,,,,,,,,,,,,,yellow,cross
209.0,3.0,3.0,0.0,1.0,1.0,267.0192150001185,2.0,1.0,part_1,,,,,,,,,,,,,yellow,cross
379.0,4.0,4.0,0.0,4.0,4.0,334.5844410000609,3.0,1.0,part_1,,,,,,,,,,,,,magenta,I
89.0,2.0,2.0,0.0,3.0,3.0,374.26389800020837,3.0,1.0,part_1,,,,,,,,,,,,,green,hexagon
204.0,3.0,3.0,0.0,2.0,2.0,303.4275509999133,3.0,1.0,part_1,,,,,,,,,,,,,yellow,cross
379.0,8.0,4.0,1.0,1.0,1.0,228.4334519999902,3.0,1.0,part_1,,,,,,,,,,,,,orange,triangle
61.0,5.0,1.0,1.0,4.0,4.0,280.9145900000658,3.0,1.0,part_1,,,,,,,,,,,,,cyan,diamond
392.0,8.0,4.0,1.0,3.0,3.0,307.4647710000135,3.0,1.0,part_1,,,,,,,,,,,,,orange,triangle
383.0,4.0,4.0,0.0,2.0,2.0,312.6715629996397,3.0,1.0,part_1,,,,,,,,,,,,,magenta,I
0.0,5.0,0.0,1.0,1.0,1.0,294.1019740001138,3.0,1.0,part_1,,,,,,,,,,,,,cyan,diamond
115.0,2.0,2.0,0.0,1.0,1.0,360.4206469999553,3.0,1.0,part_1,,,,,,,,,,,,,green,hexagon
69.0,1.0,1.0,0.0,4.0,4.0,254.1579059998184,3.0,1.0,part_1,,,,,,,,,,,,,gray,circle
410.0,8.0,4.0,1.0,1.0,1.0,299.978961999841,3.0,1.0,part_1,,,,,,,,,,,,,orange,triangle
0.0,1.0,0.0,0.0,1.0,1.0,271.7148909996467,3.0,1.0,part_1,,,,,,,,,,,,,gray,circle
414.0,8.0,4.0,1.0,2.0,2.0,231.0066949999054,3.0,1.0,part_1,,,,,,,,,,,,,orange,triangle
119.0,2.0,2.0,0.0,1.0,1.0,290.9325450000324,3.0,1.0,part_1,,,,,,,,,,,,,green,hexagon
124.0,2.0,2.0,0.0,4.0,4.0,227.0474679999097,3.0,1.0,part_1,,,,,,,,,,,,,green,hexagon
224.0,3.0,3.0,0.0,3.0,3.0,320.01710699978497,3.0,1.0,part_1,,,,,,,,,,,,,yellow,cross
383.0,8.0,4.0,1.0,1.0,1.0,400.3487320001113,3.0,1.0,part_1,,,,,,,,,,,,,orange,triangle
414.0,8.0,4.0,1.0,4.0,4.0,320.0212359997749,3.0,2.0,part_1,,,,,,,,,,,,,orange,triangle
42.0,5.0,1.0,1.0,3.0,3.0,297.3350590000336,3.0,1.0,part_1,,,,,,,,,,,,,cyan,diamond
0.0,8.0,0.0,1.0,1.0,1.0,342.3103739996804,3.0,1.0,part_1,,,,,,,,,,,,,orange,triangle
83.0,2.0,2.0,0.0,1.0,1.0,301.0934199996882,3.0,1.0,part_1,,,,,,,,,,,,,green,hexagon
109.0,2.0,2.0,0.0,2.0,2.0,258.8753709997036,3.0,1.0,part_1,,,,,,,,,,,,,green,hexagon
200.0,3.0,3.0,0.0,4.0,4.0,333.3549149997452,3.0,1.0,part_1,,,,,,,,,,,,,yellow,cross
382.0,4.0,4.0,0.0,2.0,2.0,300.039543999901,3.0,1.0,part_1,,,,,,,,,,,,,magenta,I
30.0,5.0,1.0,1.0,3.0,3.0,293.0535100003908,3.0,1.0,part_1,,,,,,,,,,,,,cyan,diamond
0.0,4.0,0.0,0.0,4.0,4.0,241.0613100000773,3.0,1.0,part_1,,,,,,,,,,,,,magenta,I
419.0,4.0,4.0,0.0,3.0,3.0,309.6548849998726,3.0,1.0,part_1,,,,,,,,,,,,,magenta,I
0.0,1.0,0.0,0.0,3.0,3.0,400.1884290000816,3.0,1.0,part_1,,,,,,,,,,,,,gray,circle
37.0,5.0,1.0,1.0,3.0,3.0,358.0333460004112,3.0,1.0,part_1,,,,,,,,,,,,,cyan,diamond
385.0,8.0,4.0,1.0,4.0,4.0,246.3128239996876,3.0,1.0,part_1,,,,,,,,,,,,,orange,triangle
224.0,3.0,3.0,0.0,4.0,4.0,333.8109789997361,3.0,1.0,part_1,,,,,,,,,,,,,yellow,cross
189.0,7.0,3.0,1.0,2.0,2.0,276.2480289998166,3.0,1.0,part_1,,,,,,,,,,,,,blue,square
414.0,4.0,4.0,0.0,2.0,2.0,319.9393969998709,3.0,1.0,part_1,,,,,,,,,,,,,magenta,I
216.0,3.0,3.0,0.0,3.0,3.0,309.1862759997639,3.0,1.0,part_1,,,,,,,,,,,,,yellow,cross
205.0,7.0,3.0,1.0,1.0,1.0,324.6485659997233,3.0,1.0,part_1,,,,,,,,,,,,,blue,square
410.0,4.0,4.0,0.0,3.0,3.0,317.1406649998971,3.0,1.0,part_1,,,,,,,,,,,,,magenta,I
82.0,6.0,2.0,1.0,2.0,2.0,266.7028820001178,3.0,1.0,part_1,,,,,,,,,,,,,white,flipped triangle
89.0,6.0,2.0,1.0,1.0,1.0,330.9176900002057,3.0,1.0,part_1,,,,,,,,,,,,,white,flipped triangle
0.0,3.0,0.0,0.0,1.0,1.0,311.0697470001469,3.0,1.0,part_1,,,,,,,,,,,,,yellow,cross
186.0,3.0,3.0,0.0,2.0,2.0,267.1240260001468,3.0,1.0,part_1,,,,,,,,,,,,,yellow,cross
124.0,2.0,2.0,0.0,4.0,4.0,266.4224569998623,3.0,1.0,part_1,,,,,,,,,,,,,green,hexagon
406.0,8.0,4.0,1.0,1.0,1.0,258.7485260000903,3.0,1.0,part_1,,,,,,,,,,,,,orange,triangle
394.0,4.0,4.0,0.0,1.0,1.0,317.5272329999643,3.0,1.0,part_1,,,,,,,,,,,,,magenta,I
0.0,3.0,0.0,0.0,2.0,2.0,284.8664909997751,3.0,1.0,part_1,,,,,,,,,,,,,yellow,cross
37.0,1.0,1.0,0.0,1.0,1.0,530.1738689995545,3.0,1.0,part_1,,,,,,,,,,,,,gray,circle
0.0,5.0,0.0,1.0,3.0,3.0,545.2629699998397,3.0,1.0,part_1,,,,,,,,,,,,,cyan,diamond
32.0,5.0,1.0,1.0,3.0,3.0,407.8230860000076,3.0,1.0,part_1,,,,,,,,,,,,,cyan,diamond
0.0,7.0,0.0,1.0,4.0,4.0,298.853376000352,3.0,1.0,part_1,,,,,,,,,,,,,blue,square
0.0,5.0,0.0,1.0,2.0,2.0,247.940586000368,3.0,1.0,part_1,,,,,,,,,,,,,cyan,diamond
96.0,6.0,2.0,1.0,2.0,2.0,285.6781460000093,3.0,1.0,part_1,,,,,,,,,,,,,white,flipped triangle
189.0,3.0,3.0,0.0,1.0,1.0,337.8462400000899,3.0,1.0,part_1,,,,,,,,,,,,,yellow,cross
0.0,4.0,0.0,0.0,1.0,1.0,347.0600149998972,3.0,1.0,part_1,,,,,,,,,,,,,magenta,I
75.0,5.0,1.0,1.0,4.0,4.0,273.0095249999067,3.0,1.0,part_1,,,,,,,,,,,,,cyan,diamond
378.0,4.0,4.0,0.0,4.0,4.0,288.8622059999761,3.0,1.0,part_1,,,,,,,,,,,,,magenta,I
0.0,2.0,0.0,0.0,1.0,1.0,330.0593210001352,3.0,1.0,part_1,,,,,,,,,,,,,green,hexagon
403.0,8.0,4.0,1.0,1.0,1.0,315.3443669998523,3.0,1.0,part_1,,,,,,,,,,,,,orange,triangle
423.0,8.0,4.0,1.0,2.0,2.0,215.6931499998791,3.0,1.0,part_1,,,,,,,,,,,,,orange,triangle
51.0,1.0,1.0,0.0,2.0,2.0,268.2160379999914,3.0,1.0,part_1,,,,,,,,,,,,,gray,circle
101.0,6.0,2.0,1.0,4.0,4.0,262.015510999845,3.0,1.0,part_1,,,,,,,,,,,,,white,flipped triangle
84.0,6.0,2.0,1.0,4.0,4.0,336.295919999884,3.0,1.0,part_1,,,,,,,,,,,,,white,flipped triangle
96.0,6.0,2.0,1.0,3.0,3.0,430.8236609999767,3.0,1.0,part_1,,,,,,,,,,,,,white,flipped triangle
30.0,1.0,1.0,0.0,1.0,1.0,415.2760239999225,3.0,1.0,part_1,,,,,,,,,,,,,gray,circle
43.0,5.0,1.0,1.0,3.0,3.0,304.8150810000152,3.0,1.0,part_1,,,,,,,,,,,,,cyan,diamond
406.0,4.0,4.0,0.0,1.0,1.0,299.1743210000095,3.0,1.0,part_1,,,,,,,,,,,,,magenta,I
83.0,2.0,2.0,0.0,1.0,1.0,375.4539030001069,3.0,1.0,part_1,,,,,,,,,,,,,green,hexagon
421.0,8.0,4.0,1.0,2.0,2.0,263.6617839998507,3.0,1.0,part_1,,,,,,,,,,,,,orange,triangle
37.0,1.0,1.0,0.0,2.0,2.0,313.33315900019437,3.0,1.0,part_1,,,,,,,,,,,,,gray,circle
0.0,3.0,0.0,0.0,4.0,4.0,356.7777930002194,3.0,1.0,part_1,,,,,,,,,,,,,yellow,cross
66.0,5.0,1.0,1.0,4.0,4.0,318.6372560003292,3.0,1.0,part_1,,,,,,,,,,,,,cyan,diamond
404.0,8.0,4.0,1.0,2.0,2.0,247.5647850001223,3.0,1.0,part_1,,,,,,,,,,,,,orange,triangle
104.0,2.0,2.0,0.0,3.0,3.0,339.4130390001919,3.0,1.0,part_1,,,,,,,,,,,,,green,hexagon
65.0,1.0,1.0,0.0,4.0,4.0,337.227349999921,3.0,1.0,part_1,,,,,,,,,,,,,gray,circle
57.0,5.0,1.0,1.0,1.0,1.0,241.0904600001231,3.0,1.0,part_1,,,,,,,,,,,,,cyan,diamond
32.0,5.0,1.0,1.0,3.0,3.0,294.7781759999088,3.0,1.0,part_1,,,,,,,,,,,,,cyan,diamond
216.0,7.0,3.0,1.0,2.0,2.0,245.7143060000817,3.0,1.0,part_1,,,,,,,,,,,,,blue,square
98.0,2.0,2.0,0.0,3.0,3.0,341.1007599997901,3.0,2.0,part_1,,,,,,,,,,,,,green,hexagon
386.0,8.0,4.0,1.0,4.0,4.0,298.4549499997229,3.0,1.0,part_1,,,,,,,,,,,,,orange,triangle
400.0,4.0,4.0,0.0,2.0,2.0,271.1520850002671,3.0,1.0,part_1,,,,,,,,,,,,,magenta,I
75.0,1.0,1.0,0.0,4.0,4.0,296.0568950002198,3.0,1.0,part_1,,,,,,,,,,,,,gray,circle
98.0,6.0,2.0,1.0,1.0,1.0,329.3299859997205,3.0,1.0,part_1,,,,,,,,,,,,,white,flipped triangle
102.0,6.0,2.0,1.0,4.0,4.0,316.6089910000664,3.0,1.0,part_1,,,,,,,,,,,,,white,flipped triangle
29.0,5.0,1.0,1.0,2.0,2.0,241.0588279999501,3.0,1.0,part_1,,,,,,,,,,,,,cyan,diamond
0.0,7.0,0.0,1.0,1.0,1.0,340.8284849997471,3.0,1.0,part_1,,,,,,,,,,,,,blue,square
40.0,5.0,1.0,1.0,2.0,2.0,280.8497610003542,3.0,1.0,part_1,,,,,,,,,,,,,cyan,diamond
415.0,8.0,4.0,1.0,3.0,3.0,389.5907070000248,3.0,1.0,part_1,,,,,,,,,,,,,orange,triangle
0.0,8.0,0.0,1.0,3.0,3.0,410.1057170000786,3.0,1.0,part_1,,,,,,,,,,,,,orange,triangle
0.0,8.0,0.0,1.0,2.0,2.0,302.3972540004251,3.0,1.0,part_1,,,,,,,,,,,,,orange,triangle
112.0,2.0,2.0,0.0,3.0,3.0,405.7406960000662,3.0,1.0,part_1,,,,,,,,,,,,,green,hexagon
189.0,7.0,3.0,1.0,3.0,3.0,360.0840450003488,3.0,1.0,part_1,,,,,,,,,,,,,blue,square
0.0,8.0,0.0,1.0,3.0,3.0,360.8173600000555,3.0,1.0,part_1,,,,,,,,,,,,,orange,triangle
53.0,5.0,1.0,1.0,3.0,3.0,329.0886999998292,3.0,1.0,part_1,,,,,,,,,,,,,cyan,diamond
0.0,4.0,0.0,0.0,3.0,3.0,325.9241650002877,3.0,1.0,part_1,,,,,,,,,,,,,magenta,I
425.0,4.0,4.0,0.0,3.0,3.0,288.818812000045,3.0,1.0,part_1,,,,,,,,,,,,,magenta,I
120.0,6.0,2.0,1.0,1.0,1.0,276.4291649996266,3.0,1.0,part_1,,,,,,,,,,,,,white,flipped triangle
419.0,8.0,4.0,1.0,3.0,3.0,283.6212130000604,3.0,1.0,part_1,,,,,,,,,,,,,orange,triangle
423.0,4.0,4.0,0.0,4.0,4.0,357.5020200000836,3.0,1.0,part_1,,,,,,,,,,,,,magenta,I
124.0,6.0,2.0,1.0,3.0,3.0,350.4741009996905,3.0,1.0,part_1,,,,,,,,,,,,,white,flipped triangle
394.0,4.0,4.0,0.0,4.0,4.0,304.0620469996611,3.0,1.0,part_1,,,,,,,,,,,,,magenta,I
37.0,5.0,1.0,1.0,4.0,4.0,285.6393689999095,3.0,1.0,part_1,,,,,,,,,,,,,cyan,diamond
99.0,2.0,2.0,0.0,1.0,1.0,237.3585109999112,3.0,1.0,part_1,,,,,,,,,,,,,green,hexagon
0.0,3.0,0.0,0.0,2.0,2.0,369.6316830000796,4.0,1.0,part_1,,,,,,,,,,,,,yellow,cross
91.0,2.0,2.0,0.0,3.0,3.0,296.9959349998134,4.0,1.0,part_1,,,,,,,,,,,,,green,hexagon
0.0,3.0,0.0,0.0,1.0,1.0,247.6183290000335,4.0,1.0,part_1,,,,,,,,,,,,,yellow,cross
28.0,5.0,1.0,1.0,3.0,3.0,337.9493899997214,4.0,1.0,part_1,,,,,,,,,,,,,cyan,diamond
215.0,7.0,3.0,1.0,4.0,4.0,301.7000380000354,4.0,1.0,part_1,,,,,,,,,,,,,blue,square
0.0,4.0,0.0,0.0,4.0,4.0,335.6956180000452,4.0,1.0,part_1,,,,,,,,,,,,,magenta,I
0.0,5.0,0.0,1.0,2.0,2.0,399.8020839999299,4.0,1.0,part_1,,,,,,,,,,,,,cyan,diamond
99.0,2.0,2.0,0.0,3.0,3.0,300.6857289997242,4.0,1.0,part_1,,,,,,,,,,,,,green,hexagon
35.0,1.0,1.0,0.0,4.0,4.0,267.9744090000895,4.0,1.0,part_1,,,,,,,,,,,,,gray,circle
0.0,8.0,0.0,1.0,4.0,4.0,299.450219999926,4.0,1.0,part_1,,,,,,,,,,,,,orange,triangle
27.0,1.0,1.0,0.0,3.0,3.0,289.2592769999282,4.0,1.0,part_1,,,,,,,,,,,,,gray,circle
416.0,4.0,4.0,0.0,1.0,1.0,306.8962960001045,4.0,1.0,part_1,,,,,,,,,,,,,magenta,I
421.0,4.0,4.0,0.0,2.0,2.0,269.4896140001219,4.0,2.0,part_1,,,,,,,,,,,,,magenta,I
45.0,5.0,1.0,1.0,3.0,3.0,307.7245360000233,4.0,1.0,part_1,,,,,,,,,,,,,cyan,diamond
0.0,2.0,0.0,0.0,1.0,1.0,234.847056000035,4.0,1.0,part_1,,,,,,,,,,,,,green,hexagon
394.0,8.0,4.0,1.0,3.0,3.0,498.0939919996672,4.0,1.0,part_1,,,,,,,,,,,,,orange,triangle
0.0,5.0,0.0,1.0,2.0,2.0,267.5510060003034,4.0,1.0,part_1,,,,,,,,,,,,,cyan,diamond
182.0,7.0,3.0,1.0,2.0,2.0,251.78481800003277,4.0,1.0,part_1,,,,,,,,,,,,,blue,square
27.0,5.0,1.0,1.0,1.0,1.0,301.21397899984,4.0,1.0,part_1,,,,,,,,,,,,,cyan,diamond
0.0,1.0,0.0,0.0,3.0,3.0,303.4853969998039,4.0,1.0,part_1,,,,,,,,,,,,,gray,circle
96.0,2.0,2.0,0.0,4.0,4.0,288.8048719996732,4.0,1.0,part_1,,,,,,,,,,,,,green,hexagon
0.0,7.0,0.0,1.0,4.0,4.0,299.9654689997442,4.0,1.0,part_1,,,,,,,,,,,,,blue,square
78.0,6.0,2.0,1.0,3.0,3.0,309.4074910000017,4.0,1.0,part_1,,,,,,,,,,,,,white,flipped triangle
424.0,8.0,4.0,1.0,3.0,3.0,346.73925499964747,4.0,1.0,part_1,,,,,,,,,,,,,orange,triangle
116.0,6.0,2.0,1.0,2.0,2.0,329.9180609997165,4.0,1.0,part_1,,,,,,,,,,,,,white,flipped triangle
214.0,3.0,3.0,0.0,4.0,4.0,338.4511429999293,4.0,1.0,part_1,,,,,,,,,,,,,yellow,cross
100.0,6.0,2.0,1.0,4.0,4.0,307.0494009998583,4.0,1.0,part_1,,,,,,,,,,,,,white,flipped triangle
214.0,7.0,3.0,1.0,4.0,4.0,279.0339450002648,4.0,1.0,part_1,,,,,,,,,,,,,blue,square
390.0,8.0,4.0,1.0,4.0,4.0,299.1728440001679,4.0,1.0,part_1,,,,,,,,,,,,,orange,triangle
51.0,5.0,1.0,1.0,4.0,4.0,261.0498079998251,4.0,1.0,part_1,,,,,,,,,,,,,cyan,diamond
64.0,5.0,1.0,1.0,2.0,2.0,283.0919899997752,4.0,1.0,part_1,,,,,,,,,,,,,cyan,diamond
214.0,7.0,3.0,1.0,3.0,3.0,339.6050379997177,4.0,1.0,part_1,,,,,,,,,,,,,blue,square
0.0,8.0,0.0,1.0,4.0,4.0,292.9608109998298,4.0,1.0,part_1,,,,,,,,,,,,,orange,triangle
72.0,5.0,1.0,1.0,2.0,2.0,255.8571540002958,4.0,1.0,part_1,,,,,,,,,,,,,cyan,diamond
177.0,3.0,3.0,0.0,3.0,3.0,331.3471020001088,4.0,1.0,part_1,,,,,,,,,,,,,yellow,cross
75.0,1.0,1.0,0.0,4.0,4.0,251.7514700002721,4.0,1.0,part_1,,,,,,,,,,,,,gray,circle
0.0,2.0,0.0,0.0,3.0,3.0,323.2579199998326,4.0,1.0,part_1,,,,,,,,,,,,,green,hexagon
34.0,5.0,1.0,1.0,2.0,2.0,312.2183150003366,4.0,1.0,part_1,,,,,,,,,,,,,cyan,diamond
0.0,6.0,0.0,1.0,1.0,1.0,285.017419000269,4.0,1.0,part_1,,,,,,,,,,,,,white,flipped triangle
196.0,3.0,3.0,0.0,4.0,4.0,250.8264739999504,4.0,1.0,part_1,,,,,,,,,,,,,yellow,cross
32.0,1.0,1.0,0.0,1.0,1.0,238.4973209996133,4.0,1.0,part_1,,,,,,,,,,,,,gray,circle
0.0,1.0,0.0,0.0,1.0,1.0,521.5944599999602,4.0,1.0,part_1,,,,,,,,,,,,,gray,circle
51.0,5.0,1.0,1.0,2.0,2.0,247.1064559999831,4.0,1.0,part_1,,,,,,,,,,,,,cyan,diamond
91.0,6.0,2.0,1.0,4.0,4.0,425.2309250000508,4.0,1.0,part_1,,,,,,,,,,,,,white,flipped triangle
91.0,2.0,2.0,0.0,2.0,2.0,235.4687089996332,4.0,1.0,part_1,,,,,,,,,,,,,green,hexagon
419.0,8.0,4.0,1.0,1.0,1.0,289.4631489998573,4.0,1.0,part_1,,,,,,,,,,,,,orange,triangle
40.0,1.0,1.0,0.0,3.0,3.0,364.9654959999679,4.0,1.0,part_1,,,,,,,,,,,,,gray,circle
43.0,1.0,1.0,0.0,3.0,3.0,409.2328590004399,4.0,1.0,part_1,,,,,,,,,,,,,gray,circle
403.0,4.0,4.0,0.0,3.0,3.0,365.186642000026,4.0,1.0,part_1,,,,,,,,,,,,,magenta,I
93.0,6.0,2.0,1.0,4.0,4.0,291.5341130001252,4.0,1.0,part_1,,,,,,,,,,,,,white,flipped triangle
184.0,7.0,3.0,1.0,3.0,3.0,350.4108739998628,4.0,1.0,part_1,,,,,,,,,,,,,blue,square
57.0,1.0,1.0,0.0,1.0,1.0,330.0138879999394,4.0,1.0,part_1,,,,,,,,,,,,,gray,circle
398.0,8.0,4.0,1.0,3.0,3.0,339.0190310001344,4.0,1.0,part_1,,,,,,,,,,,,,orange,triangle
199.0,3.0,3.0,0.0,1.0,1.0,407.6396410000598,4.0,1.0,part_1,,,,,,,,,,,,,yellow,cross
193.0,3.0,3.0,0.0,2.0,2.0,244.6932160000869,4.0,1.0,part_1,,,,,,,,,,,,,yellow,cross
186.0,3.0,3.0,0.0,2.0,2.0,304.2812539997612,4.0,1.0,part_1,,,,,,,,,,,,,yellow,cross
115.0,6.0,2.0,1.0,3.0,3.0,289.5233809999809,4.0,1.0,part_1,,,,,,,,,,,,,white,flipped triangle
205.0,7.0,3.0,1.0,3.0,3.0,352.7238500000749,4.0,1.0,part_1,,,,,,,,,,,,,blue,square
65.0,5.0,1.0,1.0,1.0,1.0,357.1594449999793,4.0,1.0,part_1,,,,,,,,,,,,,cyan,diamond
124.0,6.0,2.0,1.0,4.0,4.0,326.0096109997903,4.0,1.0,part_1,,,,,,,,,,,,,white,flipped triangle
102.0,6.0,2.0,1.0,1.0,1.0,316.2858659998164,4.0,1.0,part_1,,,,,,,,,,,,,white,flipped triangle
222.0,7.0,3.0,1.0,4.0,4.0,279.7108009999647,4.0,1.0,part_1,,,,,,,,,,,,,blue,square
83.0,6.0,2.0,1.0,3.0,3.0,272.4161559999629,4.0,1.0,part_1,,,,,,,,,,,,,white,flipped triangle
87.0,6.0,2.0,1.0,2.0,2.0,276.8750679997538,4.0,1.0,part_1,,,,,,,,,,,,,white,flipped triangle
85.0,6.0,2.0,1.0,4.0,4.0,279.8322920002647,4.0,1.0,part_1,,,,,,,,,,,,,white,flipped triangle
386.0,8.0,4.0,1.0,3.0,3.0,333.5542610002449,4.0,1.0,part_1,,,,,,,,,,,,,orange,triangle
419.0,4.0,4.0,0.0,4.0,4.0,286.7983979999735,4.0,1.0,part_1,,,,,,,,,,,,,magenta,I
89.0,6.0,2.0,1.0,1.0,1.0,297.7735509998638,4.0,1.0,part_1,,,,,,,,,,,,,white,flipped triangle
122.0,2.0,2.0,0.0,4.0,4.0,270.097755000279,4.0,1.0,part_1,,,,,,,,,,,,,green,hexagon
69.0,5.0,1.0,1.0,1.0,1.0,269.6802460000072,4.0,1.0,part_1,,,,,,,,,,,,,cyan,diamond
208.0,7.0,3.0,1.0,2.0,2.0,238.6657500001092,4.0,1.0,part_1,,,,,,,,,,,,,blue,square
82.0,2.0,2.0,0.0,4.0,4.0,239.1675179997037,4.0,1.0,part_1,,,,,,,,,,,,,green,hexagon
0.0,2.0,0.0,0.0,2.0,2.0,272.6846470000055,4.0,1.0,part_1,,,,,,,,,,,,,green,hexagon
193.0,7.0,3.0,1.0,1.0,1.0,395.1654620000226,4.0,1.0,part_1,,,,,,,,,,,,,blue,square
0.0,7.0,0.0,1.0,4.0,4.0,273.2992820001527,4.0,1.0,part_1,,,,,,,,,,,,,blue,square
218.0,7.0,3.0,1.0,2.0,2.0,256.3251990000026,4.0,1.0,part_1,,,,,,,,,,,,,blue,square
404.0,4.0,4.0,0.0,1.0,1.0,322.9002900002342,4.0,1.0,part_1,,,,,,,,,,,,,magenta,I
0.0,6.0,0.0,1.0,1.0,1.0,318.6544019999928,4.0,1.0,part_1,,,,,,,,,,,,,white,flipped triangle
75.0,5.0,1.0,1.0,1.0,1.0,316.7919490001623,4.0,1.0,part_1,,,,,,,,,,,,,cyan,diamond
205.0,3.0,3.0,0.0,3.0,3.0,337.1053580003718,4.0,1.0,part_1,,,,,,,,,,,,,yellow,cross
401.0,4.0,4.0,0.0,2.0,2.0,292.9035050001403,4.0,1.0,part_1,,,,,,,,,,,,,magenta,I
0.0,1.0,0.0,0.0,1.0,1.0,308.8440890001038,4.0,1.0,part_1,,,,,,,,,,,,,gray,circle
215.0,3.0,3.0,0.0,1.0,1.0,312.8245779998906,4.0,1.0,part_1,,,,,,,,,,,,,yellow,cross
84.0,2.0,2.0,0.0,1.0,1.0,243.8497429998278,4.0,1.0,part_1,,,,,,,,,,,,,green,hexagon
397.0,8.0,4.0,1.0,1.0,1.0,387.1280359999218,4.0,1.0,part_1,,,,,,,,,,,,,orange,triangle
204.0,7.0,3.0,1.0,1.0,1.0,256.9263899999896,4.0,1.0,part_1,,,,,,,,,,,,,blue,square
375.0,8.0,4.0,1.0,2.0,2.0,408.2784430001993,4.0,1.0,part_1,,,,,,,,,,,,,orange,triangle
99.0,6.0,2.0,1.0,1.0,1.0,285.1400539998394,4.0,1.0,part_1,,,,,,,,,,,,,white,flipped triangle
409.0,8.0,4.0,1.0,2.0,2.0,295.0666619999538,4.0,1.0,part_1,,,,,,,,,,,,,orange,triangle
205.0,3.0,3.0,0.0,4.0,4.0,330.6817749999027,4.0,1.0,part_1,,,,,,,,,,,,,yellow,cross
0.0,6.0,0.0,1.0,4.0,4.0,305.033819000073,4.0,1.0,part_1,,,,,,,,,,,,,white,flipped triangle
0.0,6.0,0.0,1.0,2.0,2.0,253.3784420002121,4.0,1.0,part_1,,,,,,,,,,,,,white,flipped triangle
0.0,3.0,0.0,0.0,4.0,4.0,322.3749570001928,4.0,1.0,part_1,,,,,,,,,,,,,yellow,cross
397.0,4.0,4.0,0.0,3.0,3.0,326.8869590001486,4.0,1.0,part_1,,,,,,,,,,,,,magenta,I
73.0,1.0,1.0,0.0,3.0,3.0,360.470474000067,4.0,1.0,part_1,,,,,,,,,,,,,gray,circle
383.0,8.0,4.0,1.0,4.0,4.0,269.9742229997355,4.0,1.0,part_1,,,,,,,,,,,,,orange,triangle
379.0,8.0,4.0,1.0,2.0,2.0,266.199021000375,4.0,1.0,part_1,,,,,,,,,,,,,orange,triangle
214.0,3.0,3.0,0.0,3.0,3.0,284.816215000319,4.0,1.0,part_1,,,,,,,,,,,,,yellow,cross
0.0,5.0,0.0,1.0,3.0,3.0,303.0644999998912,4.0,2.0,part_1,,,,,,,,,,,,,cyan,diamond
75.0,1.0,1.0,0.0,3.0,3.0,347.6113059996351,4.0,1.0,part_1,,,,,,,,,,,,,gray,circle
0.0,7.0,3.0,1.0,6.0,6.0,401.289209999959,1.0,0.0,part_2,stop,250.0,250.0,3.0,,,,,,,,,blue,square
0.0,7.0,3.0,1.0,6.0,0.0,0.0,1.0,0.0,part_2,stop,250.0,200.0,4.0,,,,,,,,,blue,square
0.0,5.0,1.0,1.0,5.0,5.0,329.1492360003758,1.0,0.0,part_2,go,250.0,250.0,1.0,,,,,,,,,cyan,diamond
0.0,8.0,4.0,1.0,5.0,5.0,322.0377020002161,1.0,0.0,part_2,stop,250.0,250.0,3.0,,,,,,,,,orange,triangle
0.0,5.0,1.0,1.0,6.0,0.0,0.0,1.0,0.0,part_2,stop,200.0,250.0,4.0,,,,,,,,,cyan,diamond
0.0,1.0,1.0,0.0,5.0,5.0,635.6765089999499,1.0,0.0,part_2,go,200.0,300.0,1.0,,,,,,,,,gray,circle
0.0,4.0,4.0,0.0,6.0,6.0,518.9620659998582,1.0,0.0,part_2,go,200.0,300.0,1.0,,,,,,,,,magenta,I
0.0,6.0,2.0,1.0,5.0,5.0,298.3599440003672,1.0,0.0,part_2,stop,200.0,300.0,3.0,,,,,,,,,white,flipped triangle
0.0,8.0,4.0,1.0,5.0,0.0,0.0,1.0,0.0,part_2,stop,150.0,300.0,4.0,,,,,,,,,orange,triangle
0.0,1.0,1.0,0.0,5.0,5.0,479.4743659999767,1.0,0.0,part_2,go,200.0,300.0,1.0,,,,,,,,,gray,circle
0.0,2.0,2.0,0.0,6.0,6.0,490.6811790001484,1.0,0.0,part_2,go,200.0,300.0,1.0,,,,,,,,,green,hexagon
0.0,1.0,1.0,0.0,5.0,5.0,471.7548569997234,1.0,0.0,part_2,go,200.0,300.0,1.0,,,,,,,,,gray,circle
0.0,3.0,3.0,0.0,6.0,6.0,411.3346949998231,1.0,0.0,part_2,go,200.0,300.0,1.0,,,,,,,,,yellow,cross
0.0,7.0,3.0,1.0,6.0,6.0,410.1458359996286,1.0,0.0,part_2,stop,200.0,300.0,3.0,,,,,,,,,blue,square
0.0,7.0,3.0,1.0,6.0,6.0,388.3209529999476,1.0,0.0,part_2,stop,200.0,250.0,3.0,,,,,,,,,blue,square
0.0,6.0,2.0,1.0,5.0,0.0,0.0,1.0,0.0,part_2,stop,200.0,200.0,4.0,,,,,,,,,white,flipped triangle
0.0,2.0,2.0,0.0,6.0,6.0,462.541864999821,1.0,0.0,part_2,go,250.0,200.0,1.0,,,,,,,,,green,hexagon
0.0,7.0,3.0,1.0,6.0,0.0,0.0,1.0,0.0,part_2,stop,250.0,200.0,4.0,,,,,,,,,blue,square
0.0,5.0,1.0,1.0,6.0,0.0,0.0,1.0,0.0,part_2,stop,250.0,250.0,4.0,,,,,,,,,cyan,diamond
0.0,4.0,4.0,0.0,5.0,5.0,378.6516019999908,1.0,0.0,part_2,go,250.0,300.0,1.0,,,,,,,,,magenta,I
0.0,4.0,4.0,0.0,5.0,5.0,361.8819780003832,1.0,0.0,part_2,go,250.0,300.0,1.0,,,,,,,,,magenta,I
0.0,4.0,4.0,0.0,5.0,5.0,386.5730200000143,1.0,0.0,part_2,go,250.0,300.0,1.0,,,,,,,,,magenta,I
0.0,7.0,3.0,1.0,5.0,5.0,414.9000249999517,1.0,0.0,part_2,go,250.0,300.0,1.0,,,,,,,,,blue,square
0.0,8.0,4.0,1.0,6.0,0.0,0.0,1.0,0.0,part_2,stop,250.0,300.0,4.0,,,,,,,,,orange,triangle
0.0,6.0,2.0,1.0,6.0,0.0,0.0,1.0,0.0,part_2,stop,250.0,350.0,4.0,,,,,,,,,white,flipped triangle
0.0,7.0,3.0,1.0,5.0,5.0,387.618122999811,1.0,0.0,part_2,go,250.0,400.0,1.0,,,,,,,,,blue,square
0.0,8.0,4.0,1.0,5.0,0.0,0.0,1.0,0.0,part_2,stop,250.0,400.0,4.0,,,,,,,,,orange,triangle
0.0,3.0,3.0,0.0,6.0,6.0,602.5096140001551,1.0,0.0,part_2,go,300.0,400.0,1.0,,,,,,,,,yellow,cross
0.0,6.0,2.0,1.0,6.0,6.0,375.7660199999009,1.0,0.0,part_2,stop,300.0,400.0,3.0,,,,,,,,,white,flipped triangle
0.0,8.0,4.0,1.0,6.0,6.0,634.8640169999271,1.0,0.0,part_2,go,300.0,350.0,1.0,,,,,,,,,orange,triangle
0.0,3.0,3.0,0.0,6.0,6.0,593.258841000079,1.0,0.0,part_2,go,300.0,350.0,1.0,,,,,,,,,yellow,cross
0.0,3.0,3.0,0.0,5.0,5.0,449.7017280000364,1.0,0.0,part_2,go,300.0,350.0,1.0,,,,,,,,,yellow,cross
0.0,2.0,2.0,0.0,6.0,6.0,399.9516310000217,1.0,0.0,part_2,go,300.0,350.0,1.0,,,,,,,,,green,hexagon
0.0,4.0,4.0,0.0,5.0,5.0,348.1870330001584,1.0,0.0,part_2,go,300.0,350.0,1.0,,,,,,,,,magenta,I
0.0,5.0,1.0,1.0,6.0,6.0,430.0356980002107,1.0,0.0,part_2,stop,300.0,350.0,3.0,,,,,,,,,cyan,diamond
0.0,5.0,1.0,1.0,5.0,0.0,0.0,1.0,0.0,part_2,stop,300.0,300.0,4.0,,,,,,,,,cyan,diamond
0.0,6.0,2.0,1.0,6.0,0.0,0.0,2.0,0.0,part_2,stop,350.0,300.0,4.0,,,,,,,,,white,flipped triangle
0.0,3.0,3.0,0.0,5.0,5.0,377.9211170003691,2.0,0.0,part_2,go,350.0,350.0,1.0,,,,,,,,,yellow,cross
0.0,1.0,1.0,0.0,6.0,6.0,412.2982669996418,2.0,0.0,part_2,go,350.0,350.0,1.0,,,,,,,,,gray,circle
0.0,6.0,2.0,1.0,6.0,6.0,416.86030100026977,2.0,0.0,part_2,stop,350.0,350.0,3.0,,,,,,,,,white,flipped triangle
0.0,8.0,4.0,1.0,5.0,5.0,605.3992939996533,2.0,0.0,part_2,go,350.0,300.0,1.0,,,,,,,,,orange,triangle
0.0,4.0,4.0,0.0,5.0,5.0,408.7975979996372,2.0,0.0,part_2,go,350.0,300.0,1.0,,,,,,,,,magenta,I
0.0,4.0,4.0,0.0,6.0,6.0,483.7971240003753,2.0,0.0,part_2,go,350.0,300.0,1.0,,,,,,,,,magenta,I
0.0,5.0,1.0,1.0,5.0,5.0,447.0588350000071,2.0,0.0,part_2,go,350.0,300.0,1.0,,,,,,,,,cyan,diamond
0.0,3.0,3.0,0.0,5.0,5.0,407.394363000094,2.0,0.0,part_2,go,350.0,300.0,1.0,,,,,,,,,yellow,cross
0.0,8.0,4.0,1.0,6.0,0.0,0.0,2.0,0.0,part_2,stop,350.0,300.0,4.0,,,,,,,,,orange,triangle
0.0,4.0,4.0,0.0,6.0,6.0,708.362291999947,2.0,0.0,part_2,go,350.0,350.0,1.0,,,,,,,,,magenta,I
0.0,7.0,3.0,1.0,5.0,0.0,0.0,2.0,0.0,part_2,stop,350.0,350.0,4.0,,,,,,,,,blue,square
0.0,8.0,4.0,1.0,5.0,5.0,734.1527869998572,2.0,0.0,part_2,go,400.0,350.0,1.0,,,,,,,,,orange,triangle
0.0,1.0,1.0,0.0,6.0,6.0,600.9114139997109,2.0,0.0,part_2,go,400.0,350.0,1.0,,,,,,,,,gray,circle
0.0,1.0,1.0,0.0,5.0,5.0,447.2770799998216,2.0,0.0,part_2,go,400.0,350.0,1.0,,,,,,,,,gray,circle
0.0,6.0,2.0,1.0,5.0,5.0,350.2312430000529,2.0,0.0,part_2,stop,400.0,350.0,3.0,,,,,,,,,white,flipped triangle
0.0,5.0,1.0,1.0,6.0,0.0,0.0,2.0,0.0,part_2,stop,350.0,350.0,4.0,,,,,,,,,cyan,diamond
0.0,3.0,3.0,0.0,5.0,5.0,347.2022860000834,2.0,0.0,part_2,go,350.0,400.0,1.0,,,,,,,,,yellow,cross
0.0,7.0,3.0,1.0,6.0,0.0,0.0,2.0,0.0,part_2,stop,350.0,400.0,4.0,,,,,,,,,blue,square
0.0,6.0,2.0,1.0,6.0,6.0,498.6928640000769,2.0,0.0,part_2,stop,350.0,450.0,3.0,,,,,,,,,white,flipped triangle
0.0,6.0,2.0,1.0,6.0,6.0,711.1272760002976,2.0,0.0,part_2,go,350.0,400.0,1.0,,,,,,,,,white,flipped triangle
0.0,6.0,2.0,1.0,6.0,6.0,735.8683739998924,2.0,0.0,part_2,go,350.0,400.0,1.0,,,,,,,,,white,flipped triangle
0.0,8.0,4.0,1.0,6.0,0.0,0.0,2.0,0.0,part_2,stop,350.0,400.0,4.0,,,,,,,,,orange,triangle
0.0,5.0,1.0,1.0,5.0,0.0,0.0,2.0,0.0,part_2,stop,350.0,450.0,4.0,,,,,,,,,cyan,diamond
0.0,2.0,2.0,0.0,6.0,6.0,645.8321830000386,2.0,0.0,part_2,go,400.0,450.0,1.0,,,,,,,,,green,hexagon
0.0,7.0,3.0,1.0,6.0,0.0,0.0,2.0,0.0,part_2,stop,400.0,450.0,4.0,,,,,,,,,blue,square
0.0,2.0,2.0,0.0,6.0,6.0,750.2107029999934,2.0,0.0,part_2,go,400.0,500.0,1.0,,,,,,,,,green,hexagon
0.0,2.0,2.0,0.0,6.0,6.0,698.0910270003733,2.0,0.0,part_2,go,400.0,500.0,1.0,,,,,,,,,green,hexagon
0.0,5.0,1.0,1.0,5.0,5.0,585.5470920000698,2.0,0.0,part_2,go,400.0,500.0,1.0,,,,,,,,,cyan,diamond
0.0,2.0,2.0,0.0,5.0,5.0,362.8269209998507,2.0,0.0,part_2,go,400.0,500.0,1.0,,,,,,,,,green,hexagon
0.0,3.0,3.0,0.0,5.0,5.0,415.9151920002841,2.0,0.0,part_2,go,400.0,500.0,1.0,,,,,,,,,yellow,cross
0.0,7.0,3.0,1.0,6.0,6.0,762.704063000001,2.0,0.0,part_2,go,400.0,500.0,1.0,,,,,,,,,blue,square
0.0,5.0,1.0,1.0,5.0,0.0,0.0,2.0,0.0,part_2,stop,400.0,500.0,4.0,,,,,,,,,cyan,diamond
0.0,7.0,3.0,1.0,5.0,0.0,0.0,2.0,0.0,part_2,stop,450.0,500.0,4.0,,,,,,,,,blue,square
0.0,5.0,1.0,1.0,6.0,6.0,699.549565000325,2.0,0.0,part_2,go,500.0,500.0,1.0,,,,,,,,,cyan,diamond
0.0,5.0,1.0,1.0,6.0,6.0,396.3541450002594,2.0,0.0,part_2,stop,500.0,500.0,3.0,,,,,,,,,cyan,diamond
0.0,8.0,4.0,1.0,6.0,6.0,564.7232339997572,3.0,0.0,part_2,go,500.0,450.0,1.0,,,,,,,,,orange,triangle
0.0,1.0,1.0,0.0,6.0,6.0,476.9877910002833,3.0,0.0,part_2,go,500.0,450.0,1.0,,,,,,,,,gray,circle
0.0,4.0,4.0,0.0,5.0,5.0,533.6020869999629,3.0,0.0,part_2,go,500.0,450.0,1.0,,,,,,,,,magenta,I
0.0,2.0,2.0,0.0,6.0,6.0,384.1695270002674,3.0,0.0,part_2,go,500.0,450.0,1.0,,,,,,,,,green,hexagon
0.0,2.0,2.0,0.0,5.0,5.0,423.4182550003424,3.0,0.0,part_2,go,500.0,450.0,1.0,,,,,,,,,green,hexagon
0.0,4.0,4.0,0.0,5.0,5.0,337.6029129999551,3.0,0.0,part_2,go,500.0,450.0,1.0,,,,,,,,,magenta,I
0.0,8.0,4.0,1.0,5.0,5.0,533.4925590000239,3.0,0.0,part_2,stop,500.0,450.0,3.0,,,,,,,,,orange,triangle
0.0,5.0,1.0,1.0,5.0,5.0,400.8107979998385,3.0,0.0,part_2,stop,450.0,450.0,3.0,,,,,,,,,cyan,diamond
0.0,3.0,3.0,0.0,5.0,5.0,722.4144900001193,3.0,0.0,part_2,go,400.0,450.0,1.0,,,,,,,,,yellow,cross
0.0,6.0,2.0,1.0,6.0,0.0,0.0,3.0,0.0,part_2,stop,400.0,450.0,4.0,,,,,,,,,white,flipped triangle
0.0,4.0,4.0,0.0,6.0,6.0,628.9439110000785,3.0,0.0,part_2,go,400.0,500.0,1.0,,,,,,,,,magenta,I
0.0,6.0,2.0,1.0,6.0,6.0,567.4988999999186,3.0,0.0,part_2,stop,400.0,500.0,3.0,,,,,,,,,white,flipped triangle
0.0,6.0,2.0,1.0,5.0,0.0,0.0,3.0,0.0,part_2,stop,400.0,450.0,4.0,,,,,,,,,white,flipped triangle
0.0,3.0,3.0,0.0,6.0,6.0,595.4359170000316,3.0,0.0,part_2,go,450.0,450.0,1.0,,,,,,,,,yellow,cross
0.0,4.0,4.0,0.0,6.0,6.0,720.0216569999611,3.0,0.0,part_2,go,450.0,450.0,1.0,,,,,,,,,magenta,I
0.0,7.0,3.0,1.0,5.0,5.0,581.1901340002805,3.0,0.0,part_2,stop,450.0,450.0,3.0,,,,,,,,,blue,square
0.0,8.0,4.0,1.0,6.0,0.0,0.0,3.0,0.0,part_2,stop,400.0,450.0,4.0,,,,,,,,,orange,triangle
0.0,1.0,1.0,0.0,6.0,6.0,681.9535869999527,3.0,0.0,part_2,go,400.0,500.0,1.0,,,,,,,,,gray,circle
0.0,3.0,3.0,0.0,5.0,5.0,852.4396889997661,3.0,0.0,part_2,go,400.0,500.0,1.0,,,,,,,,,yellow,cross
0.0,2.0,2.0,0.0,5.0,5.0,800.3897019998476,3.0,0.0,part_2,go,400.0,500.0,1.0,,,,,,,,,green,hexagon
0.0,3.0,3.0,0.0,6.0,6.0,564.8559680003018,3.0,0.0,part_2,go,400.0,500.0,1.0,,,,,,,,,yellow,cross
0.0,2.0,2.0,0.0,5.0,5.0,656.6256460000659,3.0,0.0,part_2,go,400.0,500.0,1.0,,,,,,,,,green,hexagon
0.0,5.0,1.0,1.0,6.0,6.0,646.1270760000843,3.0,0.0,part_2,go,400.0,500.0,1.0,,,,,,,,,cyan,diamond
0.0,6.0,2.0,1.0,5.0,0.0,0.0,3.0,0.0,part_2,stop,400.0,500.0,4.0,,,,,,,,,white,flipped triangle
0.0,2.0,2.0,0.0,6.0,6.0,660.9215720000066,3.0,0.0,part_2,go,450.0,500.0,1.0,,,,,,,,,green,hexagon
0.0,4.0,4.0,0.0,5.0,5.0,811.7904450000424,3.0,0.0,part_2,go,450.0,500.0,1.0,,,,,,,,,magenta,I
0.0,5.0,1.0,1.0,6.0,0.0,0.0,3.0,0.0,part_2,stop,450.0,500.0,4.0,,,,,,,,,cyan,diamond
0.0,1.0,1.0,0.0,6.0,6.0,664.344527999674,3.0,0.0,part_2,go,450.0,550.0,1.0,,,,,,,,,gray,circle
0.0,3.0,3.0,0.0,5.0,5.0,691.2576549998448,3.0,0.0,part_2,go,450.0,550.0,1.0,,,,,,,,,yellow,cross
0.0,8.0,4.0,1.0,5.0,0.0,0.0,3.0,0.0,part_2,stop,450.0,550.0,4.0,,,,,,,,,orange,triangle
0.0,5.0,1.0,1.0,5.0,5.0,563.6997819997305,3.0,0.0,part_2,stop,500.0,550.0,3.0,,,,,,,,,cyan,diamond
0.0,2.0,2.0,0.0,5.0,5.0,733.7752789999286,3.0,0.0,part_2,go,450.0,550.0,1.0,,,,,,,,,green,hexagon
0.0,4.0,4.0,0.0,5.0,5.0,754.8659399999451,3.0,0.0,part_2,go,450.0,550.0,1.0,,,,,,,,,magenta,I
0.0,4.0,4.0,0.0,5.0,5.0,480.8583160001944,3.0,0.0,part_2,go,450.0,550.0,1.0,,,,,,,,,magenta,I
0.0,3.0,3.0,0.0,5.0,5.0,510.9452379997492,3.0,0.0,part_2,go,450.0,550.0,1.0,,,,,,,,,yellow,cross
0.0,5.0,1.0,1.0,5.0,0.0,0.0,3.0,0.0,part_2,stop,450.0,550.0,4.0,,,,,,,,,cyan,diamond
0.0,8.0,4.0,1.0,6.0,6.0,596.5522209999108,4.0,0.0,part_2,stop,500.0,550.0,3.0,,,,,,,,,orange,triangle
0.0,7.0,3.0,1.0,5.0,5.0,648.5798260000593,4.0,0.0,part_2,go,500.0,500.0,1.0,,,,,,,,,blue,square
0.0,4.0,4.0,0.0,5.0,5.0,400.3843909999887,4.0,0.0,part_2,go,500.0,500.0,1.0,,,,,,,,,magenta,I
0.0,7.0,3.0,1.0,6.0,6.0,414.24286199981,4.0,0.0,part_2,stop,500.0,500.0,3.0,,,,,,,,,blue,square
0.0,5.0,1.0,1.0,6.0,0.0,0.0,4.0,0.0,part_2,stop,500.0,450.0,4.0,,,,,,,,,cyan,diamond
0.0,3.0,3.0,0.0,6.0,6.0,583.0357659997389,4.0,0.0,part_2,go,500.0,500.0,1.0,,,,,,,,,yellow,cross
0.0,2.0,2.0,0.0,6.0,6.0,748.7171920001856,4.0,0.0,part_2,go,500.0,500.0,1.0,,,,,,,,,green,hexagon
0.0,1.0,1.0,0.0,5.0,5.0,581.0265019999861,4.0,0.0,part_2,go,500.0,500.0,1.0,,,,,,,,,gray,circle
0.0,7.0,3.0,1.0,6.0,6.0,624.9173820001488,4.0,0.0,part_2,stop,500.0,500.0,3.0,,,,,,,,,blue,square
0.0,4.0,4.0,0.0,6.0,6.0,698.3536289999392,4.0,0.0,part_2,go,500.0,450.0,1.0,,,,,,,,,magenta,I
0.0,2.0,2.0,0.0,5.0,5.0,591.5555330002462,4.0,0.0,part_2,go,500.0,450.0,1.0,,,,,,,,,green,hexagon
0.0,1.0,1.0,0.0,5.0,5.0,493.7345690000256,4.0,0.0,part_2,go,500.0,450.0,1.0,,,,,,,,,gray,circle
0.0,4.0,4.0,0.0,6.0,6.0,617.3749099998531,4.0,0.0,part_2,go,500.0,450.0,1.0,,,,,,,,,magenta,I
0.0,8.0,4.0,1.0,5.0,5.0,577.0951199997398,4.0,0.0,part_2,go,500.0,450.0,1.0,,,,,,,,,orange,triangle
0.0,8.0,4.0,1.0,6.0,0.0,0.0,4.0,0.0,part_2,stop,500.0,450.0,4.0,,,,,,,,,orange,triangle
0.0,1.0,1.0,0.0,5.0,5.0,582.5460710002517,4.0,0.0,part_2,go,500.0,500.0,1.0,,,,,,,,,gray,circle
0.0,6.0,2.0,1.0,6.0,6.0,803.5272339998301,4.0,0.0,part_2,go,500.0,500.0,1.0,,,,,,,,,white,flipped triangle
0.0,4.0,4.0,0.0,6.0,6.0,667.927772999974,4.0,0.0,part_2,go,500.0,500.0,1.0,,,,,,,,,magenta,I
0.0,6.0,2.0,1.0,5.0,0.0,0.0,4.0,0.0,part_2,stop,500.0,500.0,4.0,,,,,,,,,white,flipped triangle
0.0,3.0,3.0,0.0,6.0,6.0,555.6924719999188,4.0,0.0,part_2,go,550.0,500.0,1.0,,,,,,,,,yellow,cross
0.0,3.0,3.0,0.0,6.0,6.0,797.3243719998209,4.0,0.0,part_2,go,550.0,500.0,1.0,,,,,,,,,yellow,cross
0.0,6.0,2.0,1.0,5.0,5.0,948.9762620000874,4.0,0.0,part_2,go,550.0,500.0,1.0,,,,,,,,,white,flipped triangle
0.0,8.0,4.0,1.0,6.0,6.0,588.6642160003248,4.0,0.0,part_2,stop,550.0,500.0,3.0,,,,,,,,,orange,triangle
0.0,8.0,4.0,1.0,5.0,0.0,0.0,4.0,0.0,part_2,stop,550.0,450.0,4.0,,,,,,,,,orange,triangle
0.0,4.0,4.0,0.0,6.0,6.0,755.4303379997691,4.0,0.0,part_2,go,600.0,450.0,1.0,,,,,,,,,magenta,I
0.0,7.0,3.0,1.0,5.0,5.0,700.2459520003868,4.0,0.0,part_2,stop,600.0,450.0,3.0,,,,,,,,,blue,square
0.0,2.0,2.0,0.0,6.0,6.0,878.7988140002199,4.0,0.0,part_2,go,550.0,450.0,1.0,,,,,,,,,green,hexagon
0.0,4.0,4.0,0.0,5.0,5.0,744.6595629999138,4.0,0.0,part_2,go,550.0,450.0,1.0,,,,,,,,,magenta,I
0.0,5.0,1.0,1.0,5.0,0.0,0.0,4.0,0.0,part_2,stop,550.0,450.0,4.0,,,,,,,,,cyan,diamond
0.0,7.0,3.0,1.0,5.0,5.0,855.8315719997154,4.0,0.0,part_2,go,600.0,450.0,1.0,,,,,,,,,blue,square
0.0,6.0,2.0,1.0,5.0,5.0,704.3006069998228,4.0,0.0,part_2,stop,600.0,450.0,3.0,,,,,,,,,white,flipped triangle
0.0,1.0,1.0,0.0,5.0,5.0,858.3335800003624,4.0,0.0,part_2,go,550.0,450.0,1.0,,,,,,,,,gray,circle
0.0,4.0,4.0,0.0,5.0,5.0,930.7388719998926,4.0,0.0,part_2,go,550.0,450.0,1.0,,,,,,,,,magenta,I
0.0,5.0,1.0,1.0,5.0,5.0,602.0472959999097,4.0,0.0,part_2,stop,550.0,450.0,3.0,,,,,,,,,cyan,diamond
0.0,2.0,2.0,0.0,5.0,5.0,966.1619059997976,4.0,0.0,part_2,go,500.0,450.0,1.0,,,,,,,,,green,hexagon
0.0,6.0,2.0,1.0,5.0,0.0,0.0,4.0,0.0,part_2,stop,500.0,450.0,4.0,,,,,,,,,white,flipped triangle
0.0,6.0,2.0,1.0,5.0,5.0,498.1188330002624,5.0,0.0,part_2,stop,550.0,450.0,3.0,,,,,,,,,white,flipped triangle
0.0,2.0,2.0,0.0,6.0,6.0,458.8983740000003,5.0,0.0,part_2,go,500.0,450.0,1.0,,,,,,,,,green,hexagon
0.0,4.0,4.0,0.0,6.0,6.0,480.2246979998017,5.0,0.0,part_2,go,500.0,450.0,1.0,,,,,,,,,magenta,I
0.0,1.0,1.0,0.0,5.0,5.0,470.5561579999084,5.0,0.0,part_2,go,500.0,450.0,1.0,,,,,,,,,gray,circle
0.0,3.0,3.0,0.0,5.0,5.0,433.9187790001233,5.0,0.0,part_2,go,500.0,450.0,1.0,,,,,,,,,yellow,cross
0.0,5.0,1.0,1.0,5.0,0.0,0.0,5.0,0.0,part_2,stop,500.0,450.0,4.0,,,,,,,,,cyan,diamond
0.0,1.0,1.0,0.0,5.0,5.0,428.4067690000483,5.0,0.0,part_2,go,550.0,450.0,1.0,,,,,,,,,gray,circle
0.0,8.0,4.0,1.0,5.0,5.0,664.9419219997981,5.0,0.0,part_2,stop,550.0,450.0,3.0,,,,,,,,,orange,triangle
0.0,2.0,2.0,0.0,5.0,5.0,829.1628209999544,5.0,0.0,part_2,go,500.0,450.0,1.0,,,,,,,,,green,hexagon
0.0,4.0,4.0,0.0,6.0,6.0,833.7699059998158,5.0,0.0,part_2,go,500.0,450.0,1.0,,,,,,,,,magenta,I
0.0,2.0,2.0,0.0,5.0,5.0,541.6165420001562,5.0,0.0,part_2,go,500.0,450.0,1.0,,,,,,,,,green,hexagon
0.0,8.0,4.0,1.0,6.0,6.0,322.2818579997693,5.0,0.0,part_2,stop,500.0,450.0,3.0,,,,,,,,,orange,triangle
0.0,7.0,3.0,1.0,6.0,0.0,0.0,5.0,0.0,part_2,stop,500.0,400.0,4.0,,,,,,,,,blue,square
0.0,2.0,2.0,0.0,5.0,5.0,491.0476589998325,5.0,0.0,part_2,go,500.0,450.0,1.0,,,,,,,,,green,hexagon
0.0,7.0,3.0,1.0,5.0,0.0,0.0,5.0,0.0,part_2,stop,500.0,450.0,4.0,,,,,,,,,blue,square
0.0,4.0,4.0,0.0,6.0,6.0,339.5627160002732,5.0,0.0,part_2,go,550.0,450.0,1.0,,,,,,,,,magenta,I
0.0,8.0,4.0,1.0,5.0,0.0,0.0,5.0,0.0,part_2,stop,550.0,450.0,4.0,,,,,,,,,orange,triangle
0.0,8.0,4.0,1.0,5.0,5.0,656.5849930002514,5.0,0.0,part_2,stop,600.0,450.0,3.0,,,,,,,,,orange,triangle
0.0,3.0,3.0,0.0,5.0,5.0,561.8203570002152,5.0,0.0,part_2,go,550.0,450.0,1.0,,,,,,,,,yellow,cross
0.0,2.0,2.0,0.0,5.0,5.0,702.0593860002009,5.0,0.0,part_2,go,550.0,450.0,1.0,,,,,,,,,green,hexagon
0.0,5.0,1.0,1.0,6.0,6.0,474.5209560001058,5.0,0.0,part_2,go,550.0,450.0,1.0,,,,,,,,,cyan,diamond
0.0,5.0,1.0,1.0,6.0,6.0,488.5711189999711,5.0,0.0,part_2,stop,550.0,450.0,3.0,,,,,,,,,cyan,diamond
0.0,1.0,1.0,0.0,6.0,6.0,679.433501999938,5.0,0.0,part_2,go,550.0,400.0,1.0,,,,,,,,,gray,circle
0.0,7.0,3.0,1.0,5.0,5.0,645.6806119999783,5.0,0.0,part_2,stop,550.0,400.0,3.0,,,,,,,,,blue,square
0.0,2.0,2.0,0.0,6.0,6.0,777.4457589998747,5.0,0.0,part_2,go,500.0,400.0,1.0,,,,,,,,,green,hexagon
0.0,5.0,1.0,1.0,5.0,0.0,0.0,5.0,0.0,part_2,stop,500.0,400.0,4.0,,,,,,,,,cyan,diamond
0.0,2.0,2.0,0.0,6.0,6.0,483.5609780002414,5.0,0.0,part_2,go,550.0,400.0,1.0,,,,,,,,,green,hexagon
0.0,6.0,2.0,1.0,6.0,6.0,524.9332220000724,5.0,0.0,part_2,go,550.0,400.0,1.0,,,,,,,,,white,flipped triangle
0.0,8.0,4.0,1.0,6.0,6.0,457.2941460000947,5.0,0.0,part_2,go,550.0,400.0,1.0,,,,,,,,,orange,triangle
0.0,3.0,3.0,0.0,5.0,5.0,672.0927129999836,5.0,0.0,part_2,go,550.0,400.0,1.0,,,,,,,,,yellow,cross
0.0,5.0,1.0,1.0,5.0,5.0,826.8728789998931,5.0,0.0,part_2,go,550.0,400.0,1.0,,,,,,,,,cyan,diamond
0.0,4.0,4.0,0.0,6.0,6.0,372.4476140000661,5.0,0.0,part_2,go,550.0,400.0,1.0,,,,,,,,,magenta,I
0.0,7.0,3.0,1.0,6.0,6.0,372.5605189997623,5.0,0.0,part_2,stop,550.0,400.0,3.0,,,,,,,,,blue,square
0.0,4.0,4.0,0.0,5.0,5.0,492.2178219999296,5.0,0.0,part_2,go,550.0,350.0,1.0,,,,,,,,,magenta,I
0.0,8.0,4.0,1.0,5.0,5.0,328.1353420002233,5.0,0.0,part_2,stop,550.0,350.0,3.0,,,,,,,,,orange,triangle
0.0,8.0,4.0,1.0,5.0,5.0,589.0326970002207,5.0,0.0,part_2,go,500.0,350.0,1.0,,,,,,,,,orange,triangle
0.0,1.0,1.0,0.0,6.0,6.0,442.5050909999299,6.0,0.0,part_2,go,500.0,350.0,1.0,,,,,,,,,gray,circle
0.0,1.0,1.0,0.0,6.0,6.0,377.968177999719,6.0,0.0,part_2,go,500.0,350.0,1.0,,,,,,,,,gray,circle
0.0,4.0,4.0,0.0,6.0,6.0,288.4423049999896,6.0,0.0,part_2,go,500.0,350.0,1.0,,,,,,,,,magenta,I
0.0,6.0,2.0,1.0,5.0,5.0,536.3548599998467,6.0,0.0,part_2,stop,500.0,350.0,3.0,,,,,,,,,white,flipped triangle
0.0,7.0,3.0,1.0,6.0,6.0,492.4418049999985,6.0,0.0,part_2,stop,450.0,350.0,3.0,,,,,,,,,blue,square
0.0,1.0,1.0,0.0,5.0,5.0,355.1139179999154,6.0,0.0,part_2,go,450.0,300.0,1.0,,,,,,,,,gray,circle
0.0,6.0,2.0,1.0,6.0,6.0,465.9360939999715,6.0,0.0,part_2,stop,450.0,300.0,3.0,,,,,,,,,white,flipped triangle
0.0,3.0,3.0,0.0,5.0,5.0,615.429588999632,6.0,0.0,part_2,go,450.0,250.0,1.0,,,,,,,,,yellow,cross
0.0,6.0,2.0,1.0,6.0,0.0,0.0,6.0,0.0,part_2,stop,450.0,250.0,4.0,,,,,,,,,white,flipped triangle
0.0,3.0,3.0,0.0,5.0,5.0,519.4323859996075,6.0,0.0,part_2,go,450.0,300.0,1.0,,,,,,,,,yellow,cross
0.0,5.0,1.0,1.0,5.0,0.0,0.0,6.0,0.0,part_2,stop,450.0,300.0,4.0,,,,,,,,,cyan,diamond
0.0,1.0,1.0,0.0,5.0,5.0,460.3267510001387,6.0,0.0,part_2,go,500.0,300.0,1.0,,,,,,,,,gray,circle
0.0,7.0,3.0,1.0,5.0,5.0,548.142468000151,6.0,0.0,part_2,stop,500.0,300.0,3.0,,,,,,,,,blue,square
0.0,6.0,2.0,1.0,5.0,5.0,710.4946819999896,6.0,0.0,part_2,go,450.0,300.0,1.0,,,,,,,,,white,flipped triangle
0.0,3.0,3.0,0.0,6.0,6.0,1039.1352060000827,6.0,0.0,part_2,go,450.0,300.0,1.0,,,,,,,,,yellow,cross
0.0,7.0,3.0,1.0,5.0,5.0,570.7332020001559,6.0,0.0,part_2,stop,450.0,300.0,3.0,,,,,,,,,blue,square
0.0,6.0,2.0,1.0,5.0,0.0,0.0,6.0,0.0,part_2,stop,400.0,300.0,4.0,,,,,,,,,white,flipped triangle
0.0,8.0,4.0,1.0,6.0,6.0,515.3807080000661,6.0,0.0,part_2,go,450.0,300.0,1.0,,,,,,,,,orange,triangle
0.0,2.0,2.0,0.0,5.0,5.0,526.8474139998034,6.0,0.0,part_2,go,450.0,300.0,1.0,,,,,,,,,green,hexagon
0.0,1.0,1.0,0.0,6.0,6.0,373.1664039996758,6.0,0.0,part_2,go,450.0,300.0,1.0,,,,,,,,,gray,circle
0.0,1.0,1.0,0.0,6.0,6.0,476.1904120000508,6.0,0.0,part_2,go,450.0,300.0,1.0,,,,,,,,,gray,circle
0.0,3.0,3.0,0.0,5.0,5.0,386.4662310002131,6.0,0.0,part_2,go,450.0,300.0,1.0,,,,,,,,,yellow,cross
0.0,1.0,1.0,0.0,6.0,6.0,469.7274630002539,6.0,0.0,part_2,go,450.0,300.0,1.0,,,,,,,,,gray,circle
0.0,5.0,1.0,1.0,5.0,5.0,701.1979490002886,6.0,0.0,part_2,go,450.0,300.0,1.0,,,,,,,,,cyan,diamond
0.0,6.0,2.0,1.0,5.0,5.0,427.8568080003424,6.0,0.0,part_2,go,450.0,300.0,1.0,,,,,,,,,white,flipped triangle
0.0,6.0,2.0,1.0,5.0,5.0,322.8813640002954,6.0,0.0,part_2,go,450.0,300.0,1.0,,,,,,,,,white,flipped triangle
0.0,8.0,4.0,1.0,6.0,6.0,293.8041639999937,6.0,0.0,part_2,stop,450.0,300.0,3.0,,,,,,,,,orange,triangle
0.0,2.0,2.0,0.0,6.0,6.0,482.4576730002263,6.0,0.0,part_2,go,450.0,250.0,1.0,,,,,,,,,green,hexagon
0.0,2.0,2.0,0.0,5.0,5.0,493.5911450002095,6.0,0.0,part_2,go,450.0,250.0,1.0,,,,,,,,,green,hexagon
0.0,5.0,1.0,1.0,6.0,0.0,0.0,6.0,0.0,part_2,stop,450.0,250.0,4.0,,,,,,,,,cyan,diamond
0.0,6.0,2.0,1.0,5.0,5.0,415.1323129999582,6.0,0.0,part_2,stop,450.0,300.0,3.0,,,,,,,,,white,flipped triangle
0.0,5.0,1.0,1.0,6.0,0.0,0.0,6.0,0.0,part_2,stop,400.0,300.0,4.0,,,,,,,,,cyan,diamond
0.0,3.0,3.0,0.0,6.0,6.0,595.3894700001001,6.0,0.0,part_2,go,400.0,350.0,1.0,,,,,,,,,yellow,cross
0.0,7.0,3.0,1.0,5.0,5.0,350.4902980002953,6.0,0.0,part_2,go,400.0,350.0,1.0,,,,,,,,,blue,square
0.0,4.0,4.0,0.0,5.0,5.0,427.2676509999655,6.0,0.0,part_2,go,400.0,350.0,1.0,,,,,,,,,magenta,I
0.0,8.0,4.0,1.0,5.0,5.0,349.8691259997031,6.0,0.0,part_2,stop,400.0,350.0,3.0,,,,,,,,,orange,triangle
0.0,2.0,2.0,0.0,5.0,5.0,399.6133569999074,7.0,0.0,part_2,go,350.0,350.0,1.0,,,,,,,,,green,hexagon
0.0,2.0,2.0,0.0,6.0,6.0,264.7669119996862,7.0,0.0,part_2,go,350.0,350.0,1.0,,,,,,,,,green,hexagon
0.0,4.0,4.0,0.0,6.0,6.0,338.0629650000628,7.0,0.0,part_2,go,350.0,350.0,1.0,,,,,,,,,magenta,I
0.0,1.0,1.0,0.0,5.0,5.0,256.266154000059,7.0,0.0,part_2,go,350.0,350.0,1.0,,,,,,,,,gray,circle
0.0,5.0,1.0,1.0,5.0,5.0,327.0805370002563,7.0,0.0,part_2,stop,350.0,350.0,3.0,,,,,,,,,cyan,diamond
0.0,8.0,4.0,1.0,6.0,0.0,0.0,7.0,0.0,part_2,stop,300.0,350.0,4.0,,,,,,,,,orange,triangle
0.0,3.0,3.0,0.0,6.0,6.0,598.6100350000925,7.0,0.0,part_2,go,300.0,400.0,1.0,,,,,,,,,yellow,cross
0.0,4.0,4.0,0.0,6.0,6.0,486.7578060002415,7.0,0.0,part_2,go,300.0,400.0,1.0,,,,,,,,,magenta,I
0.0,7.0,3.0,1.0,6.0,6.0,437.6061779998963,7.0,0.0,part_2,stop,300.0,400.0,3.0,,,,,,,,,blue,square
0.0,6.0,2.0,1.0,6.0,0.0,0.0,7.0,0.0,part_2,stop,300.0,350.0,4.0,,,,,,,,,white,flipped triangle
0.0,4.0,4.0,0.0,5.0,5.0,435.2992490003089,7.0,0.0,part_2,go,300.0,400.0,1.0,,,,,,,,,magenta,I
0.0,6.0,2.0,1.0,6.0,0.0,0.0,7.0,0.0,part_2,stop,300.0,400.0,4.0,,,,,,,,,white,flipped triangle
0.0,7.0,3.0,1.0,6.0,0.0,0.0,7.0,0.0,part_2,stop,300.0,450.0,4.0,,,,,,,,,blue,square
0.0,2.0,2.0,0.0,5.0,5.0,459.9493910000092,7.0,0.0,part_2,go,300.0,500.0,1.0,,,,,,,,,green,hexagon
0.0,3.0,3.0,0.0,5.0,5.0,491.3664660002723,7.0,0.0,part_2,go,300.0,500.0,1.0,,,,,,,,,yellow,cross
0.0,1.0,1.0,0.0,6.0,6.0,785.6161790000442,7.0,0.0,part_2,go,300.0,500.0,1.0,,,,,,,,,gray,circle
0.0,8.0,4.0,1.0,5.0,0.0,0.0,7.0,0.0,part_2,stop,300.0,500.0,4.0,,,,,,,,,orange,triangle
0.0,1.0,1.0,0.0,6.0,6.0,399.0362730000925,7.0,0.0,part_2,go,350.0,500.0,1.0,,,,,,,,,gray,circle
0.0,4.0,4.0,0.0,6.0,6.0,461.3883709998845,7.0,0.0,part_2,go,350.0,500.0,1.0,,,,,,,,,magenta,I
0.0,3.0,3.0,0.0,6.0,6.0,445.6599160002952,7.0,0.0,part_2,go,350.0,500.0,1.0,,,,,,,,,yellow,cross
0.0,2.0,2.0,0.0,5.0,5.0,527.0092430000659,7.0,0.0,part_2,go,350.0,500.0,1.0,,,,,,,,,green,hexagon
0.0,1.0,1.0,0.0,6.0,6.0,463.7422280002283,7.0,0.0,part_2,go,350.0,500.0,1.0,,,,,,,,,gray,circle
0.0,3.0,3.0,0.0,6.0,6.0,414.9187120001443,7.0,0.0,part_2,go,350.0,500.0,1.0,,,,,,,,,yellow,cross
0.0,1.0,1.0,0.0,5.0,5.0,397.7833359999749,7.0,0.0,part_2,go,350.0,500.0,1.0,,,,,,,,,gray,circle
0.0,2.0,2.0,0.0,6.0,6.0,382.87884999999727,7.0,0.0,part_2,go,350.0,500.0,1.0,,,,,,,,,green,hexagon
0.0,6.0,2.0,1.0,6.0,6.0,436.1627240000416,7.0,0.0,part_2,stop,350.0,500.0,3.0,,,,,,,,,white,flipped triangle
0.0,3.0,3.0,0.0,6.0,6.0,709.1600570001901,7.0,0.0,part_2,go,350.0,450.0,1.0,,,,,,,,,yellow,cross
0.0,2.0,2.0,0.0,6.0,6.0,352.5534880000123,7.0,0.0,part_2,go,350.0,450.0,1.0,,,,,,,,,green,hexagon
0.0,7.0,3.0,1.0,5.0,5.0,418.1779380000989,7.0,0.0,part_2,stop,350.0,450.0,3.0,,,,,,,,,blue,square
0.0,2.0,2.0,0.0,5.0,5.0,628.6330840002847,7.0,0.0,part_2,go,300.0,450.0,1.0,,,,,,,,,green,hexagon
0.0,7.0,3.0,1.0,5.0,5.0,488.9627219999966,7.0,0.0,part_2,go,300.0,450.0,1.0,,,,,,,,,blue,square
0.0,3.0,3.0,0.0,6.0,6.0,657.5277550000465,7.0,0.0,part_2,go,300.0,450.0,1.0,,,,,,,,,yellow,cross
0.0,8.0,4.0,1.0,5.0,0.0,0.0,7.0,0.0,part_2,stop,300.0,450.0,4.0,,,,,,,,,orange,triangle
0.0,5.0,1.0,1.0,6.0,0.0,0.0,7.0,0.0,part_2,stop,350.0,450.0,4.0,,,,,,,,,cyan,diamond
0.0,3.0,3.0,0.0,6.0,6.0,499.987456999861,7.0,0.0,part_2,go,350.0,500.0,1.0,,,,,,,,,yellow,cross
0.0,1.0,1.0,0.0,6.0,6.0,456.3970710000831,7.0,0.0,part_2,go,350.0,500.0,1.0,,,,,,,,,gray,circle
0.0,3.0,3.0,0.0,6.0,6.0,561.8873609996626,8.0,0.0,part_2,go,350.0,500.0,1.0,,,,,,,,,yellow,cross
0.0,2.0,2.0,0.0,6.0,6.0,379.1284569997515,8.0,0.0,part_2,go,350.0,500.0,1.0,,,,,,,,,green,hexagon
0.0,6.0,2.0,1.0,6.0,6.0,355.4455890002828,8.0,0.0,part_2,stop,350.0,500.0,3.0,,,,,,,,,white,flipped triangle
0.0,1.0,1.0,0.0,5.0,5.0,357.0703710001908,8.0,0.0,part_2,go,350.0,450.0,1.0,,,,,,,,,gray,circle
0.0,1.0,1.0,0.0,6.0,6.0,462.8420919998461,8.0,0.0,part_2,go,350.0,450.0,1.0,,,,,,,,,gray,circle
0.0,6.0,2.0,1.0,6.0,6.0,521.1756419998892,8.0,0.0,part_2,go,350.0,450.0,1.0,,,,,,,,,white,flipped triangle
0.0,5.0,1.0,1.0,5.0,5.0,389.3915220000963,8.0,0.0,part_2,stop,350.0,450.0,3.0,,,,,,,,,cyan,diamond
0.0,5.0,1.0,1.0,6.0,0.0,0.0,8.0,0.0,part_2,stop,300.0,450.0,4.0,,,,,,,,,cyan,diamond
0.0,6.0,2.0,1.0,5.0,0.0,0.0,8.0,0.0,part_2,stop,300.0,500.0,4.0,,,,,,,,,white,flipped triangle
0.0,5.0,1.0,1.0,6.0,6.0,543.4255189998112,8.0,0.0,part_2,go,350.0,500.0,1.0,,,,,,,,,cyan,diamond
0.0,7.0,3.0,1.0,6.0,6.0,591.2113230001523,8.0,0.0,part_2,go,350.0,500.0,1.0,,,,,,,,,blue,square
0.0,4.0,4.0,0.0,6.0,6.0,522.599381999953,8.0,0.0,part_2,go,350.0,500.0,1.0,,,,,,,,,magenta,I
0.0,4.0,4.0,0.0,5.0,5.0,276.6877219996786,8.0,0.0,part_2,go,350.0,500.0,1.0,,,,,,,,,magenta,I
0.0,4.0,4.0,0.0,5.0,5.0,350.9887249997518,8.0,0.0,part_2,go,350.0,500.0,1.0,,,,,,,,,magenta,I
0.0,8.0,4.0,1.0,6.0,6.0,384.9520769999799,8.0,0.0,part_2,go,350.0,500.0,1.0,,,,,,,,,orange,triangle
0.0,8.0,4.0,1.0,5.0,0.0,0.0,8.0,0.0,part_2,stop,350.0,500.0,4.0,,,,,,,,,orange,triangle
0.0,3.0,3.0,0.0,5.0,5.0,677.2862100001475,8.0,0.0,part_2,go,400.0,500.0,1.0,,,,,,,,,yellow,cross
0.0,1.0,1.0,0.0,5.0,5.0,380.8820399999604,8.0,0.0,part_2,go,400.0,500.0,1.0,,,,,,,,,gray,circle
0.0,7.0,3.0,1.0,6.0,6.0,414.5149840001068,8.0,0.0,part_2,stop,400.0,500.0,3.0,,,,,,,,,blue,square
0.0,1.0,1.0,0.0,5.0,5.0,552.7119779999339,8.0,0.0,part_2,go,400.0,450.0,1.0,,,,,,,,,gray,circle
0.0,1.0,1.0,0.0,5.0,5.0,493.184293000013,8.0,0.0,part_2,go,400.0,450.0,1.0,,,,,,,,,gray,circle
0.0,1.0,1.0,0.0,6.0,6.0,388.8365540001359,8.0,0.0,part_2,go,400.0,450.0,1.0,,,,,,,,,gray,circle
0.0,5.0,1.0,1.0,6.0,6.0,324.5692159998725,8.0,0.0,part_2,stop,400.0,450.0,3.0,,,,,,,,,cyan,diamond
0.0,6.0,2.0,1.0,5.0,0.0,0.0,8.0,0.0,part_2,stop,400.0,400.0,4.0,,,,,,,,,white,flipped triangle
0.0,3.0,3.0,0.0,6.0,6.0,581.9958500001121,8.0,0.0,part_2,go,450.0,400.0,1.0,,,,,,,,,yellow,cross
0.0,7.0,3.0,1.0,5.0,5.0,436.3666899998861,8.0,0.0,part_2,stop,450.0,400.0,3.0,,,,,,,,,blue,square
0.0,7.0,3.0,1.0,5.0,5.0,368.9857949998441,8.0,0.0,part_2,go,400.0,400.0,1.0,,,,,,,,,blue,square
0.0,7.0,3.0,1.0,6.0,0.0,0.0,8.0,0.0,part_2,stop,400.0,400.0,4.0,,,,,,,,,blue,square
0.0,1.0,1.0,0.0,6.0,6.0,570.796364999751,8.0,0.0,part_2,go,400.0,450.0,1.0,,,,,,,,,gray,circle
0.0,2.0,2.0,0.0,5.0,5.0,677.2202430001926,8.0,0.0,part_2,go,400.0,450.0,1.0,,,,,,,,,green,hexagon
0.0,5.0,1.0,1.0,6.0,0.0,0.0,8.0,0.0,part_2,stop,400.0,450.0,4.0,,,,,,,,,cyan,diamond
0.0,8.0,4.0,1.0,6.0,0.0,0.0,8.0,0.0,part_2,stop,400.0,500.0,4.0,,,,,,,,,orange,triangle
0.0,8.0,4.0,1.0,6.0,6.0,689.9690830000509,8.0,0.0,part_2,stop,400.0,550.0,3.0,,,,,,,,,orange,triangle
0.0,3.0,3.0,0.0,5.0,5.0,443.9636929996595,8.0,0.0,part_2,go,400.0,500.0,1.0,,,,,,,,,yellow,cross
0.0,7.0,3.0,1.0,5.0,5.0,541.460810999979,8.0,0.0,part_2,stop,400.0,500.0,3.0,,,,,,,,,blue,square
0.0,8.0,4.0,1.0,6.0,0.0,0.0,8.0,0.0,part_2,stop,350.0,500.0,4.0,,,,,,,,,orange,triangle
0.0,3.0,3.0,0.0,7.0,3.0,1427.0651039996665,1.0,2.0,part_3,go,0.0,0.0,0.0,264.0,6.0,44.0,88.0,264.0,132.0,220.0,176.0,yellow,cross
0.0,1.0,1.0,0.0,7.0,6.0,2554.035655000007,1.0,1.0,part_3,go,0.0,0.0,0.0,156.0,4.0,234.0,78.0,195.0,117.0,39.0,156.0,gray,circle
0.0,2.0,2.0,0.0,7.0,2.0,2255.9796389996336,1.0,1.0,part_3,go,0.0,0.0,0.0,195.0,5.0,117.0,195.0,234.0,39.0,78.0,156.0,green,hexagon
0.0,1.0,1.0,0.0,7.0,1.0,3066.365484999551,1.0,1.0,part_3,go,0.0,0.0,0.0,117.0,3.0,117.0,156.0,78.0,234.0,39.0,195.0,gray,circle
0.0,8.0,4.0,1.0,7.0,3.0,2818.230109000069,1.0,1.0,part_3,go,0.0,0.0,0.0,170.0,5.0,68.0,34.0,170.0,136.0,204.0,102.0,orange,triangle
0.0,1.0,1.0,0.0,7.0,6.0,1437.939012999777,1.0,1.0,part_3,go,0.0,0.0,0.0,44.0,1.0,264.0,176.0,132.0,220.0,88.0,44.0,gray,circle
0.0,8.0,4.0,1.0,7.0,1.0,2138.5632739993525,1.0,1.0,part_3,go,0.0,0.0,0.0,195.0,5.0,195.0,117.0,78.0,39.0,156.0,234.0,orange,triangle
0.0,4.0,4.0,0.0,7.0,1.0,1864.3246150004416,1.0,1.0,part_3,go,0.0,0.0,0.0,220.0,5.0,220.0,132.0,264.0,88.0,44.0,176.0,magenta,I
0.0,4.0,4.0,0.0,7.0,5.0,1684.484784000233,1.0,1.0,part_3,go,0.0,0.0,0.0,324.0,6.0,216.0,162.0,108.0,54.0,324.0,270.0,magenta,I
0.0,4.0,4.0,0.0,7.0,4.0,2600.1118909998695,1.0,1.0,part_3,go,0.0,0.0,0.0,204.0,6.0,34.0,170.0,102.0,204.0,136.0,68.0,magenta,I
0.0,8.0,4.0,1.0,7.0,1.0,2170.4857529994115,1.0,1.0,part_3,go,0.0,0.0,0.0,245.0,5.0,245.0,147.0,49.0,98.0,294.0,196.0,orange,triangle
0.0,4.0,4.0,0.0,7.0,2.0,3337.2565340005167,1.0,1.0,part_3,go,0.0,0.0,0.0,195.0,5.0,234.0,195.0,78.0,156.0,39.0,117.0,magenta,I
0.0,1.0,1.0,0.0,7.0,5.0,1952.077251999981,1.0,1.0,part_3,go,0.0,0.0,0.0,98.0,2.0,147.0,294.0,49.0,245.0,98.0,196.0,gray,circle
0.0,3.0,3.0,0.0,7.0,4.0,3038.2017499996437,1.0,1.0,part_3,go,0.0,0.0,0.0,117.0,3.0,156.0,39.0,195.0,117.0,234.0,78.0,yellow,cross
0.0,5.0,1.0,1.0,7.0,5.0,2290.9246410008564,1.0,1.0,part_3,go,0.0,0.0,0.0,162.0,3.0,270.0,54.0,324.0,216.0,162.0,108.0,cyan,diamond
0.0,8.0,4.0,1.0,7.0,2.0,1370.650552999905,1.0,1.0,part_3,go,0.0,0.0,0.0,132.0,3.0,264.0,132.0,88.0,44.0,220.0,176.0,orange,triangle
0.0,3.0,3.0,0.0,7.0,4.0,1738.0667790002915,1.0,1.0,part_3,go,0.0,0.0,0.0,102.0,3.0,34.0,204.0,136.0,102.0,170.0,68.0,yellow,cross
0.0,2.0,2.0,0.0,7.0,4.0,2341.4121419991716,1.0,1.0,part_3,go,0.0,0.0,0.0,132.0,3.0,88.0,264.0,176.0,132.0,220.0,44.0,green,hexagon
0.0,8.0,4.0,1.0,7.0,3.0,3256.212884000888,1.0,1.0,part_3,go,0.0,0.0,0.0,204.0,6.0,34.0,136.0,204.0,102.0,170.0,68.0,orange,triangle
0.0,8.0,4.0,1.0,7.0,5.0,3307.410713999161,1.0,1.0,part_3,go,0.0,0.0,0.0,162.0,3.0,270.0,54.0,108.0,324.0,162.0,216.0,orange,triangle
0.0,7.0,3.0,1.0,7.0,4.0,1927.8886480005897,2.0,1.0,part_3,go,0.0,0.0,0.0,156.0,4.0,78.0,117.0,234.0,156.0,195.0,39.0,blue,square
0.0,6.0,2.0,1.0,7.0,2.0,1668.409015999714,2.0,1.0,part_3,go,0.0,0.0,0.0,49.0,1.0,196.0,49.0,294.0,245.0,147.0,98.0,white,flipped triangle
0.0,6.0,2.0,1.0,7.0,4.0,1191.7016229999715,2.0,1.0,part_3,go,0.0,0.0,0.0,88.0,2.0,176.0,132.0,44.0,88.0,264.0,220.0,white,flipped triangle
0.0,6.0,2.0,1.0,7.0,1.0,1383.8012719998003,2.0,1.0,part_3,go,0.0,0.0,0.0,54.0,1.0,54.0,270.0,216.0,324.0,108.0,162.0,white,flipped triangle
0.0,5.0,1.0,1.0,7.0,2.0,1496.4724520004893,2.0,1.0,part_3,go,0.0,0.0,0.0,170.0,5.0,68.0,170.0,204.0,34.0,102.0,136.0,cyan,diamond
0.0,1.0,1.0,0.0,7.0,5.0,1598.3475389994055,2.0,1.0,part_3,go,0.0,0.0,0.0,54.0,1.0,108.0,162.0,216.0,270.0,54.0,324.0,gray,circle
0.0,4.0,4.0,0.0,7.0,3.0,1941.1709639998664,2.0,1.0,part_3,go,0.0,0.0,0.0,294.0,6.0,196.0,98.0,294.0,147.0,49.0,245.0,magenta,I
0.0,4.0,4.0,0.0,7.0,3.0,1384.1353970001364,2.0,1.0,part_3,go,0.0,0.0,0.0,264.0,6.0,176.0,88.0,264.0,220.0,44.0,132.0,magenta,I
0.0,5.0,1.0,1.0,7.0,3.0,2757.3301000002175,2.0,1.0,part_3,go,0.0,0.0,0.0,132.0,3.0,44.0,264.0,132.0,220.0,176.0,88.0,cyan,diamond
0.0,6.0,2.0,1.0,7.0,5.0,2177.8567280007337,2.0,1.0,part_3,go,0.0,0.0,0.0,98.0,2.0,49.0,196.0,294.0,245.0,98.0,147.0,white,flipped triangle
0.0,2.0,2.0,0.0,7.0,2.0,891.7203760001939,2.0,1.0,part_3,go,0.0,0.0,0.0,270.0,5.0,54.0,270.0,324.0,162.0,108.0,216.0,green,hexagon
0.0,7.0,3.0,1.0,7.0,1.0,1877.9878680006732,2.0,1.0,part_3,go,0.0,0.0,0.0,68.0,2.0,68.0,102.0,204.0,34.0,136.0,170.0,blue,square
0.0,7.0,3.0,1.0,7.0,2.0,2416.1254450000342,2.0,1.0,part_3,go,0.0,0.0,0.0,68.0,2.0,170.0,68.0,136.0,204.0,102.0,34.0,blue,square
0.0,8.0,4.0,1.0,7.0,3.0,2893.804768999871,2.0,1.0,part_3,go,0.0,0.0,0.0,234.0,6.0,39.0,78.0,234.0,156.0,117.0,195.0,orange,triangle
0.0,6.0,2.0,1.0,7.0,3.0,1746.9172029996116,2.0,1.0,part_3,go,0.0,0.0,0.0,78.0,2.0,234.0,117.0,78.0,195.0,156.0,39.0,white,flipped triangle
0.0,2.0,2.0,0.0,7.0,6.0,948.971585000436,2.0,1.0,part_3,go,0.0,0.0,0.0,195.0,5.0,117.0,156.0,39.0,78.0,234.0,195.0,green,hexagon
0.0,6.0,2.0,1.0,7.0,2.0,1113.9556949992766,2.0,1.0,part_3,go,0.0,0.0,0.0,34.0,1.0,136.0,34.0,170.0,68.0,204.0,102.0,white,flipped triangle
0.0,3.0,3.0,0.0,7.0,2.0,1567.7716150003107,2.0,1.0,part_3,go,0.0,0.0,0.0,88.0,2.0,264.0,88.0,44.0,132.0,220.0,176.0,yellow,cross
0.0,7.0,3.0,1.0,7.0,4.0,1829.054183000153,2.0,1.0,part_3,go,0.0,0.0,0.0,324.0,6.0,54.0,216.0,270.0,324.0,108.0,162.0,blue,square
0.0,1.0,1.0,0.0,7.0,2.0,1168.0281259996264,2.0,1.0,part_3,go,0.0,0.0,0.0,98.0,2.0,147.0,98.0,196.0,245.0,294.0,49.0,gray,circle
0.0,7.0,3.0,1.0,7.0,2.0,779.1441319996011,3.0,1.0,part_3,go,0.0,0.0,0.0,44.0,1.0,88.0,44.0,220.0,132.0,176.0,264.0,blue,square
0.0,4.0,4.0,0.0,7.0,5.0,1483.9219650002633,3.0,1.0,part_3,go,0.0,0.0,0.0,324.0,6.0,54.0,108.0,270.0,162.0,324.0,216.0,magenta,I
0.0,6.0,2.0,1.0,7.0,5.0,2413.700472000528,3.0,1.0,part_3,go,0.0,0.0,0.0,54.0,1.0,216.0,108.0,270.0,162.0,54.0,324.0,white,flipped triangle
0.0,2.0,2.0,0.0,7.0,2.0,1824.1910289998489,3.0,1.0,part_3,go,0.0,0.0,0.0,147.0,3.0,98.0,147.0,49.0,294.0,196.0,245.0,green,hexagon
0.0,2.0,2.0,0.0,7.0,6.0,1755.841280999448,3.0,1.0,part_3,go,0.0,0.0,0.0,98.0,2.0,49.0,294.0,147.0,245.0,196.0,98.0,green,hexagon
0.0,3.0,3.0,0.0,7.0,3.0,1817.080001999784,3.0,1.0,part_3,go,0.0,0.0,0.0,162.0,3.0,270.0,108.0,162.0,54.0,216.0,324.0,yellow,cross
0.0,7.0,3.0,1.0,7.0,2.0,1754.8623860002408,3.0,1.0,part_3,go,0.0,0.0,0.0,156.0,4.0,78.0,156.0,195.0,117.0,234.0,39.0,blue,square
0.0,4.0,4.0,0.0,7.0,6.0,2241.765423999823,3.0,1.0,part_3,go,0.0,0.0,0.0,195.0,5.0,39.0,234.0,117.0,156.0,78.0,195.0,magenta,I
0.0,5.0,1.0,1.0,7.0,2.0,1155.9049329998743,3.0,1.0,part_3,go,0.0,0.0,0.0,270.0,5.0,324.0,270.0,108.0,216.0,54.0,162.0,cyan,diamond
0.0,8.0,4.0,1.0,7.0,3.0,1426.4034799998626,3.0,1.0,part_3,go,0.0,0.0,0.0,294.0,6.0,98.0,245.0,294.0,49.0,147.0,196.0,orange,triangle
0.0,1.0,1.0,0.0,7.0,2.0,1230.4634590000203,3.0,1.0,part_3,go,0.0,0.0,0.0,54.0,1.0,162.0,54.0,108.0,270.0,324.0,216.0,gray,circle
0.0,1.0,1.0,0.0,7.0,1.0,1187.6736889998938,3.0,1.0,part_3,go,0.0,0.0,0.0,44.0,1.0,44.0,132.0,88.0,264.0,220.0,176.0,gray,circle
0.0,2.0,2.0,0.0,7.0,2.0,3099.7729199998503,3.0,1.0,part_3,go,0.0,0.0,0.0,108.0,2.0,216.0,108.0,54.0,270.0,324.0,162.0,green,hexagon
0.0,3.0,3.0,0.0,7.0,6.0,2072.853538000345,3.0,1.0,part_3,go,0.0,0.0,0.0,117.0,3.0,195.0,39.0,234.0,78.0,156.0,117.0,yellow,cross
0.0,3.0,3.0,0.0,7.0,2.0,1960.220670000126,3.0,1.0,part_3,go,0.0,0.0,0.0,162.0,3.0,108.0,162.0,270.0,216.0,324.0,54.0,yellow,cross
0.0,7.0,3.0,1.0,7.0,6.0,1708.9960610001071,3.0,1.0,part_3,go,0.0,0.0,0.0,147.0,3.0,294.0,98.0,196.0,49.0,245.0,147.0,blue,square
0.0,5.0,1.0,1.0,7.0,3.0,1946.586209999623,3.0,1.0,part_3,go,0.0,0.0,0.0,98.0,2.0,49.0,147.0,98.0,196.0,245.0,294.0,cyan,diamond
0.0,3.0,3.0,0.0,7.0,5.0,1549.8308579999502,3.0,1.0,part_3,go,0.0,0.0,0.0,196.0,4.0,294.0,98.0,245.0,147.0,196.0,49.0,yellow,cross
0.0,2.0,2.0,0.0,7.0,2.0,1374.3426279997948,3.0,1.0,part_3,go,0.0,0.0,0.0,102.0,3.0,204.0,102.0,34.0,136.0,68.0,170.0,green,hexagon
0.0,3.0,3.0,0.0,7.0,3.0,1396.1328100003811,3.0,1.0,part_3,go,0.0,0.0,0.0,147.0,3.0,49.0,196.0,147.0,245.0,98.0,294.0,yellow,cross
0.0,7.0,3.0,1.0,7.0,4.0,1523.2248829997843,4.0,1.0,part_3,go,0.0,0.0,0.0,147.0,3.0,294.0,49.0,98.0,147.0,196.0,245.0,blue,square
0.0,6.0,2.0,1.0,7.0,4.0,1869.320038999831,4.0,1.0,part_3,go,0.0,0.0,0.0,117.0,3.0,39.0,195.0,234.0,117.0,156.0,78.0,white,flipped triangle
0.0,8.0,4.0,1.0,7.0,1.0,1263.2537059998867,4.0,1.0,part_3,go,0.0,0.0,0.0,270.0,5.0,270.0,54.0,162.0,108.0,216.0,324.0,orange,triangle
0.0,1.0,1.0,0.0,7.0,6.0,1854.0952379999,4.0,1.0,part_3,go,0.0,0.0,0.0,68.0,2.0,204.0,136.0,170.0,34.0,102.0,68.0,gray,circle
0.0,7.0,3.0,1.0,7.0,2.0,1609.8500820007755,4.0,1.0,part_3,go,0.0,0.0,0.0,54.0,1.0,108.0,54.0,216.0,162.0,324.0,270.0,blue,square
0.0,6.0,2.0,1.0,7.0,3.0,1571.0698530001537,4.0,1.0,part_3,go,0.0,0.0,0.0,34.0,1.0,204.0,102.0,34.0,136.0,68.0,170.0,white,flipped triangle
0.0,5.0,1.0,1.0,7.0,5.0,2154.0239280002424,4.0,1.0,part_3,go,0.0,0.0,0.0,264.0,6.0,176.0,44.0,220.0,132.0,264.0,88.0,cyan,diamond
0.0,2.0,2.0,0.0,7.0,2.0,1281.9455480002944,4.0,1.0,part_3,go,0.0,0.0,0.0,170.0,5.0,34.0,170.0,204.0,136.0,68.0,102.0,green,hexagon
0.0,1.0,1.0,0.0,7.0,2.0,2654.467690000274,4.0,1.0,part_3,go,0.0,0.0,0.0,68.0,2.0,170.0,68.0,102.0,204.0,136.0,34.0,gray,circle
0.0,3.0,3.0,0.0,7.0,4.0,2323.5798719997547,4.0,1.0,part_3,go,0.0,0.0,0.0,136.0,4.0,102.0,68.0,34.0,136.0,204.0,170.0,yellow,cross
0.0,7.0,3.0,1.0,7.0,2.0,1903.3966979995969,4.0,1.0,part_3,go,0.0,0.0,0.0,176.0,4.0,88.0,176.0,220.0,264.0,132.0,44.0,blue,square
0.0,5.0,1.0,1.0,7.0,5.0,2593.14876299959,4.0,1.0,part_3,go,0.0,0.0,0.0,156.0,4.0,78.0,39.0,195.0,234.0,156.0,117.0,cyan,diamond
0.0,4.0,4.0,0.0,7.0,6.0,1415.8699460003843,4.0,1.0,part_3,go,0.0,0.0,0.0,294.0,6.0,245.0,49.0,147.0,98.0,196.0,294.0,magenta,I
0.0,2.0,2.0,0.0,7.0,2.0,2411.6341179997107,4.0,1.0,part_3,go,0.0,0.0,0.0,176.0,4.0,132.0,176.0,220.0,44.0,264.0,88.0,green,hexagon
0.0,6.0,2.0,1.0,7.0,2.0,2568.665091999719,4.0,1.0,part_3,go,0.0,0.0,0.0,88.0,2.0,220.0,88.0,264.0,176.0,44.0,132.0,white,flipped triangle
0.0,8.0,4.0,1.0,7.0,5.0,2963.4013000004416,4.0,1.0,part_3,go,0.0,0.0,0.0,220.0,5.0,88.0,132.0,176.0,44.0,220.0,264.0,orange,triangle
0.0,5.0,1.0,1.0,7.0,2.0,2365.2049800002715,4.0,1.0,part_3,go,0.0,0.0,0.0,156.0,4.0,195.0,156.0,78.0,117.0,39.0,234.0,cyan,diamond
0.0,5.0,1.0,1.0,7.0,1.0,990.6982120000976,4.0,1.0,part_3,go,0.0,0.0,0.0,147.0,3.0,147.0,245.0,98.0,294.0,196.0,49.0,cyan,diamond
0.0,4.0,4.0,0.0,7.0,3.0,1767.401274999429,4.0,1.0,part_3,go,0.0,0.0,0.0,204.0,6.0,68.0,102.0,204.0,34.0,136.0,170.0,magenta,I
0.0,5.0,1.0,1.0,7.0,1.0,2176.752841999587,4.0,1.0,part_3,go,0.0,0.0,0.0,170.0,5.0,170.0,204.0,102.0,136.0,68.0,34.0,cyan,diamond
