raw_reward_magnitude,stim_reward,stepwise_reward_magnitude,paired_with_stopping,stim_location,response,reaction_time,block,num_trial_presentations,which_phase,stop_signal_trial_type,left_SSD,right_SSD,accuracy,chosen_bidding_amount,chosen_bidding_level,possible_bid_1,possible_bid_2,possible_bid_3,possible_bid_4,possible_bid_5,possible_bid_6,color_text,shape_text
191.0,3.0,2.0,0.0,1.0,1.0,312.6481439999224,1.0,1.0,phase_1,,,,,,,,,,,,,blue,triangle
95.0,2.0,1.0,0.0,4.0,4.0,337.2459889999391,1.0,1.0,phase_1,,,,,,,,,,,,,yellow,I
417.0,4.0,4.0,0.0,4.0,4.0,278.6291869999786,1.0,1.0,phase_1,,,,,,,,,,,,,orange,circle
376.0,8.0,4.0,1.0,4.0,4.0,299.9317070000415,1.0,1.0,phase_1,,,,,,,,,,,,,white,flipped triangle
68.0,5.0,0.5,1.0,3.0,3.0,253.929909999897,1.0,1.0,phase_1,,,,,,,,,,,,,magenta,cross
405.0,8.0,4.0,1.0,3.0,3.0,344.7587949999615,1.0,1.0,phase_1,,,,,,,,,,,,,white,flipped triangle
60.0,1.0,0.5,0.0,2.0,2.0,255.6474900000012,1.0,1.0,phase_1,,,,,,,,,,,,,cyan,hexagon
41.0,1.0,0.5,0.0,3.0,3.0,271.6680290000113,1.0,1.0,phase_1,,,,,,,,,,,,,cyan,hexagon
82.0,2.0,1.0,0.0,1.0,1.0,453.0038299999432,1.0,1.0,phase_1,,,,,,,,,,,,,yellow,I
0.0,7.0,0.0,1.0,1.0,1.0,318.5353919998306,1.0,1.0,phase_1,,,,,,,,,,,,,gray,diamond
376.0,4.0,4.0,0.0,3.0,3.0,286.6307950000646,1.0,1.0,phase_1,,,,,,,,,,,,,orange,circle
178.0,7.0,2.0,1.0,1.0,1.0,288.7861980000252,1.0,1.0,phase_1,,,,,,,,,,,,,gray,diamond
187.0,3.0,2.0,0.0,3.0,3.0,264.0717510000741,1.0,1.0,phase_1,,,,,,,,,,,,,blue,triangle
419.0,4.0,4.0,0.0,3.0,3.0,279.392764000022,1.0,1.0,phase_1,,,,,,,,,,,,,orange,circle
207.0,7.0,2.0,1.0,4.0,4.0,317.285474999835,1.0,1.0,phase_1,,,,,,,,,,,,,gray,diamond
0.0,4.0,0.0,0.0,1.0,1.0,245.5306560000281,1.0,1.0,phase_1,,,,,,,,,,,,,orange,circle
0.0,5.0,0.0,1.0,1.0,1.0,345.4942209998535,1.0,1.0,phase_1,,,,,,,,,,,,,magenta,cross
225.0,3.0,2.0,0.0,3.0,3.0,282.5859829999899,1.0,1.0,phase_1,,,,,,,,,,,,,blue,triangle
102.0,6.0,1.0,1.0,4.0,4.0,276.4470100000835,1.0,1.0,phase_1,,,,,,,,,,,,,green,square
61.0,1.0,0.5,0.0,1.0,1.0,234.4433249998019,1.0,1.0,phase_1,,,,,,,,,,,,,cyan,hexagon
0.0,3.0,0.0,0.0,1.0,1.0,234.9481799999466,1.0,1.0,phase_1,,,,,,,,,,,,,blue,triangle
0.0,1.0,0.0,0.0,1.0,1.0,235.5843529999219,1.0,1.0,phase_1,,,,,,,,,,,,,cyan,hexagon
0.0,6.0,0.0,1.0,3.0,3.0,269.6728500000063,1.0,1.0,phase_1,,,,,,,,,,,,,green,square
93.0,6.0,1.0,1.0,1.0,1.0,224.9676460000955,1.0,1.0,phase_1,,,,,,,,,,,,,green,square
27.0,5.0,0.5,1.0,4.0,4.0,242.2365550000904,1.0,1.0,phase_1,,,,,,,,,,,,,magenta,cross
77.0,2.0,1.0,0.0,1.0,1.0,221.643653000001,1.0,1.0,phase_1,,,,,,,,,,,,,yellow,I
125.0,2.0,1.0,0.0,3.0,3.0,256.1238640000738,1.0,1.0,phase_1,,,,,,,,,,,,,yellow,I
123.0,6.0,1.0,1.0,3.0,3.0,259.0411759999824,1.0,1.0,phase_1,,,,,,,,,,,,,green,square
417.0,4.0,4.0,0.0,3.0,3.0,296.1914570000772,1.0,1.0,phase_1,,,,,,,,,,,,,orange,circle
220.0,3.0,2.0,0.0,2.0,2.0,256.5649339999254,1.0,1.0,phase_1,,,,,,,,,,,,,blue,triangle
0.0,3.0,0.0,0.0,4.0,4.0,300.6781789999877,1.0,1.0,phase_1,,,,,,,,,,,,,blue,triangle
101.0,2.0,1.0,0.0,3.0,3.0,296.4291139999204,1.0,1.0,phase_1,,,,,,,,,,,,,yellow,I
59.0,5.0,0.5,1.0,4.0,4.0,238.3796649999112,1.0,1.0,phase_1,,,,,,,,,,,,,magenta,cross
85.0,6.0,1.0,1.0,2.0,2.0,272.31726400009387,1.0,1.0,phase_1,,,,,,,,,,,,,green,square
98.0,2.0,1.0,0.0,2.0,2.0,259.4440830000621,1.0,1.0,phase_1,,,,,,,,,,,,,yellow,I
191.0,7.0,2.0,1.0,1.0,1.0,233.5275240000101,1.0,1.0,phase_1,,,,,,,,,,,,,gray,diamond
405.0,8.0,4.0,1.0,3.0,3.0,275.9942339998815,1.0,1.0,phase_1,,,,,,,,,,,,,white,flipped triangle
43.0,5.0,0.5,1.0,2.0,2.0,244.9262410000301,1.0,1.0,phase_1,,,,,,,,,,,,,magenta,cross
0.0,7.0,0.0,1.0,3.0,3.0,270.8806050000021,1.0,1.0,phase_1,,,,,,,,,,,,,gray,diamond
419.0,8.0,4.0,1.0,1.0,1.0,233.8209049999022,1.0,1.0,phase_1,,,,,,,,,,,,,white,flipped triangle
85.0,2.0,1.0,0.0,1.0,1.0,253.07175099987938,1.0,1.0,phase_1,,,,,,,,,,,,,yellow,I
405.0,4.0,4.0,0.0,3.0,3.0,272.8174050000689,1.0,1.0,phase_1,,,,,,,,,,,,,orange,circle
43.0,5.0,0.5,1.0,2.0,2.0,267.6598699999886,1.0,1.0,phase_1,,,,,,,,,,,,,magenta,cross
43.0,1.0,0.5,0.0,2.0,2.0,270.2094700000543,1.0,1.0,phase_1,,,,,,,,,,,,,cyan,hexagon
199.0,3.0,2.0,0.0,1.0,1.0,272.511057000429,1.0,1.0,phase_1,,,,,,,,,,,,,blue,triangle
27.0,1.0,0.5,0.0,3.0,3.0,285.8290029998898,1.0,1.0,phase_1,,,,,,,,,,,,,cyan,hexagon
376.0,4.0,4.0,0.0,2.0,2.0,287.0239559997571,1.0,1.0,phase_1,,,,,,,,,,,,,orange,circle
25.0,1.0,0.5,0.0,1.0,1.0,246.3024749999931,1.0,1.0,phase_1,,,,,,,,,,,,,cyan,hexagon
0.0,3.0,0.0,0.0,1.0,1.0,265.9637739998288,1.0,1.0,phase_1,,,,,,,,,,,,,blue,triangle
46.0,1.0,0.5,0.0,4.0,4.0,263.5320439999304,1.0,1.0,phase_1,,,,,,,,,,,,,cyan,hexagon
382.0,8.0,4.0,1.0,4.0,4.0,328.9595250003003,1.0,1.0,phase_1,,,,,,,,,,,,,white,flipped triangle
198.0,7.0,2.0,1.0,3.0,3.0,290.3164859999378,1.0,1.0,phase_1,,,,,,,,,,,,,gray,diamond
0.0,8.0,0.0,1.0,2.0,2.0,305.1017819998378,1.0,1.0,phase_1,,,,,,,,,,,,,white,flipped triangle
196.0,3.0,2.0,0.0,1.0,1.0,280.9925589999693,1.0,1.0,phase_1,,,,,,,,,,,,,blue,triangle
27.0,1.0,0.5,0.0,2.0,2.0,298.2607129997632,1.0,1.0,phase_1,,,,,,,,,,,,,cyan,hexagon
190.0,7.0,2.0,1.0,4.0,4.0,298.6772899998868,1.0,1.0,phase_1,,,,,,,,,,,,,gray,diamond
192.0,7.0,2.0,1.0,3.0,3.0,301.6342820001227,1.0,1.0,phase_1,,,,,,,,,,,,,gray,diamond
0.0,5.0,0.0,1.0,2.0,2.0,298.6343229999875,1.0,1.0,phase_1,,,,,,,,,,,,,magenta,cross
376.0,8.0,4.0,1.0,2.0,2.0,305.0601280001501,1.0,1.0,phase_1,,,,,,,,,,,,,white,flipped triangle
46.0,1.0,0.5,0.0,4.0,4.0,313.196496999808,1.0,1.0,phase_1,,,,,,,,,,,,,cyan,hexagon
376.0,8.0,4.0,1.0,4.0,4.0,297.7299880003556,1.0,1.0,phase_1,,,,,,,,,,,,,white,flipped triangle
221.0,3.0,2.0,0.0,3.0,3.0,297.8372829998079,1.0,1.0,phase_1,,,,,,,,,,,,,blue,triangle
43.0,1.0,0.5,0.0,4.0,4.0,258.3689690000028,1.0,1.0,phase_1,,,,,,,,,,,,,cyan,hexagon
32.0,1.0,0.5,0.0,1.0,1.0,290.9643589996449,1.0,1.0,phase_1,,,,,,,,,,,,,cyan,hexagon
38.0,5.0,0.5,1.0,3.0,3.0,292.3585250000542,1.0,1.0,phase_1,,,,,,,,,,,,,magenta,cross
55.0,5.0,0.5,1.0,3.0,3.0,288.0963010002233,1.0,1.0,phase_1,,,,,,,,,,,,,magenta,cross
222.0,7.0,2.0,1.0,3.0,3.0,286.5249129999938,1.0,1.0,phase_1,,,,,,,,,,,,,gray,diamond
32.0,5.0,0.5,1.0,1.0,1.0,245.5780179998328,1.0,1.0,phase_1,,,,,,,,,,,,,magenta,cross
95.0,6.0,1.0,1.0,3.0,3.0,296.6248800003086,1.0,1.0,phase_1,,,,,,,,,,,,,green,square
182.0,3.0,2.0,0.0,1.0,1.0,282.3935719998189,1.0,1.0,phase_1,,,,,,,,,,,,,blue,triangle
176.0,7.0,2.0,1.0,3.0,3.0,283.9659539999957,1.0,1.0,phase_1,,,,,,,,,,,,,gray,diamond
407.0,4.0,4.0,0.0,3.0,3.0,295.6038150000495,1.0,1.0,phase_1,,,,,,,,,,,,,orange,circle
84.0,6.0,1.0,1.0,2.0,2.0,298.9772219998485,1.0,1.0,phase_1,,,,,,,,,,,,,green,square
85.0,6.0,1.0,1.0,3.0,3.0,275.81870899985,1.0,1.0,phase_1,,,,,,,,,,,,,green,square
57.0,5.0,0.5,1.0,1.0,1.0,248.6912770000344,1.0,1.0,phase_1,,,,,,,,,,,,,magenta,cross
104.0,2.0,1.0,0.0,2.0,2.0,282.5058609996631,1.0,1.0,phase_1,,,,,,,,,,,,,yellow,I
214.0,3.0,2.0,0.0,2.0,2.0,299.4306470000083,1.0,1.0,phase_1,,,,,,,,,,,,,blue,triangle
177.0,7.0,2.0,1.0,2.0,2.0,281.8623100001787,1.0,1.0,phase_1,,,,,,,,,,,,,gray,diamond
0.0,6.0,0.0,1.0,2.0,2.0,275.3750580000087,1.0,1.0,phase_1,,,,,,,,,,,,,green,square
111.0,2.0,1.0,0.0,2.0,2.0,278.6273370002163,1.0,1.0,phase_1,,,,,,,,,,,,,yellow,I
0.0,2.0,0.0,0.0,1.0,1.0,246.7780749998382,1.0,1.0,phase_1,,,,,,,,,,,,,yellow,I
0.0,4.0,0.0,0.0,1.0,1.0,281.8014760000551,1.0,1.0,phase_1,,,,,,,,,,,,,orange,circle
405.0,4.0,4.0,0.0,4.0,4.0,339.2799830003241,1.0,1.0,phase_1,,,,,,,,,,,,,orange,circle
43.0,1.0,0.5,0.0,3.0,3.0,309.0291070002422,1.0,1.0,phase_1,,,,,,,,,,,,,cyan,hexagon
78.0,2.0,1.0,0.0,2.0,2.0,309.165953000047,1.0,1.0,phase_1,,,,,,,,,,,,,yellow,I
0.0,8.0,0.0,1.0,2.0,2.0,288.8082089998534,1.0,1.0,phase_1,,,,,,,,,,,,,white,flipped triangle
0.0,8.0,0.0,1.0,2.0,2.0,272.729648999757,1.0,1.0,phase_1,,,,,,,,,,,,,white,flipped triangle
80.0,2.0,1.0,0.0,1.0,1.0,228.6031660000844,1.0,1.0,phase_1,,,,,,,,,,,,,yellow,I
398.0,8.0,4.0,1.0,4.0,4.0,284.3096830001741,1.0,1.0,phase_1,,,,,,,,,,,,,white,flipped triangle
207.0,3.0,2.0,0.0,2.0,2.0,282.0269839999128,1.0,1.0,phase_1,,,,,,,,,,,,,blue,triangle
423.0,4.0,4.0,0.0,1.0,1.0,285.4425690002244,1.0,1.0,phase_1,,,,,,,,,,,,,orange,circle
88.0,6.0,1.0,1.0,1.0,1.0,265.9028030002446,1.0,1.0,phase_1,,,,,,,,,,,,,green,square
123.0,6.0,1.0,1.0,2.0,2.0,276.2424420002389,1.0,1.0,phase_1,,,,,,,,,,,,,green,square
424.0,8.0,4.0,1.0,1.0,1.0,252.6130189999094,1.0,1.0,phase_1,,,,,,,,,,,,,white,flipped triangle
211.0,3.0,2.0,0.0,1.0,1.0,274.9189510000178,1.0,1.0,phase_1,,,,,,,,,,,,,blue,triangle
102.0,2.0,1.0,0.0,2.0,2.0,271.4973780002765,1.0,1.0,phase_1,,,,,,,,,,,,,yellow,I
99.0,6.0,1.0,1.0,1.0,1.0,235.2448090000507,1.0,1.0,phase_1,,,,,,,,,,,,,green,square
53.0,1.0,0.5,0.0,4.0,4.0,283.1959650002318,1.0,1.0,phase_1,,,,,,,,,,,,,cyan,hexagon
112.0,6.0,1.0,1.0,4.0,4.0,299.9505729999328,1.0,1.0,phase_1,,,,,,,,,,,,,green,square
192.0,3.0,2.0,0.0,4.0,4.0,279.5286479999959,1.0,1.0,phase_1,,,,,,,,,,,,,blue,triangle
187.0,3.0,2.0,0.0,1.0,1.0,290.4725059997872,2.0,1.0,phase_1,,,,,,,,,,,,,blue,triangle
384.0,8.0,4.0,1.0,4.0,4.0,328.019734999998,2.0,1.0,phase_1,,,,,,,,,,,,,white,flipped triangle
0.0,8.0,0.0,1.0,2.0,2.0,259.3407240001397,2.0,1.0,phase_1,,,,,,,,,,,,,white,flipped triangle
386.0,8.0,4.0,1.0,3.0,3.0,299.3780749998223,2.0,1.0,phase_1,,,,,,,,,,,,,white,flipped triangle
379.0,4.0,4.0,0.0,3.0,3.0,290.0242470000194,2.0,1.0,phase_1,,,,,,,,,,,,,orange,circle
423.0,8.0,4.0,1.0,2.0,2.0,278.4730829998807,2.0,1.0,phase_1,,,,,,,,,,,,,white,flipped triangle
109.0,2.0,1.0,0.0,2.0,2.0,282.5718450003478,2.0,1.0,phase_1,,,,,,,,,,,,,yellow,I
0.0,7.0,0.0,1.0,2.0,2.0,260.2138379997996,2.0,1.0,phase_1,,,,,,,,,,,,,gray,diamond
382.0,4.0,4.0,0.0,4.0,4.0,283.7675440000566,2.0,1.0,phase_1,,,,,,,,,,,,,orange,circle
69.0,1.0,0.5,0.0,3.0,3.0,300.4399149999699,2.0,1.0,phase_1,,,,,,,,,,,,,cyan,hexagon
0.0,2.0,0.0,0.0,4.0,4.0,330.8535289997962,2.0,1.0,phase_1,,,,,,,,,,,,,yellow,I
424.0,4.0,4.0,0.0,4.0,4.0,294.2398790000879,2.0,1.0,phase_1,,,,,,,,,,,,,orange,circle
419.0,8.0,4.0,1.0,2.0,2.0,263.0764659998021,2.0,1.0,phase_1,,,,,,,,,,,,,white,flipped triangle
205.0,7.0,2.0,1.0,4.0,4.0,290.7796720000988,2.0,1.0,phase_1,,,,,,,,,,,,,gray,diamond
94.0,2.0,1.0,0.0,2.0,2.0,295.4779159999816,2.0,1.0,phase_1,,,,,,,,,,,,,yellow,I
94.0,6.0,1.0,1.0,4.0,4.0,291.0913690002417,2.0,1.0,phase_1,,,,,,,,,,,,,green,square
0.0,5.0,0.0,1.0,2.0,2.0,280.1775910002106,2.0,1.0,phase_1,,,,,,,,,,,,,magenta,cross
415.0,4.0,4.0,0.0,3.0,3.0,300.1433529998394,2.0,1.0,phase_1,,,,,,,,,,,,,orange,circle
88.0,6.0,1.0,1.0,4.0,4.0,327.2275449999142,2.0,1.0,phase_1,,,,,,,,,,,,,green,square
94.0,2.0,1.0,0.0,1.0,1.0,277.0753759996296,2.0,1.0,phase_1,,,,,,,,,,,,,yellow,I
45.0,1.0,0.5,0.0,1.0,1.0,271.8878999999106,2.0,1.0,phase_1,,,,,,,,,,,,,cyan,hexagon
72.0,5.0,0.5,1.0,2.0,2.0,274.563986999965,2.0,1.0,phase_1,,,,,,,,,,,,,magenta,cross
389.0,8.0,4.0,1.0,3.0,3.0,298.4754880003493,2.0,1.0,phase_1,,,,,,,,,,,,,white,flipped triangle
112.0,2.0,1.0,0.0,1.0,1.0,260.7507349998741,2.0,1.0,phase_1,,,,,,,,,,,,,yellow,I
0.0,6.0,0.0,1.0,3.0,3.0,238.4395120002409,2.0,1.0,phase_1,,,,,,,,,,,,,green,square
0.0,7.0,0.0,1.0,1.0,1.0,295.3543230000832,2.0,1.0,phase_1,,,,,,,,,,,,,gray,diamond
386.0,8.0,4.0,1.0,1.0,1.0,315.2431809999143,2.0,1.0,phase_1,,,,,,,,,,,,,white,flipped triangle
407.0,4.0,4.0,0.0,4.0,4.0,269.2031139999926,2.0,1.0,phase_1,,,,,,,,,,,,,orange,circle
64.0,5.0,0.5,1.0,3.0,3.0,281.5428890003204,2.0,1.0,phase_1,,,,,,,,,,,,,magenta,cross
120.0,6.0,1.0,1.0,4.0,4.0,317.5337840002612,2.0,1.0,phase_1,,,,,,,,,,,,,green,square
0.0,6.0,0.0,1.0,4.0,4.0,288.8979939998535,2.0,1.0,phase_1,,,,,,,,,,,,,green,square
120.0,2.0,1.0,0.0,3.0,3.0,296.2433269999565,2.0,1.0,phase_1,,,,,,,,,,,,,yellow,I
0.0,7.0,0.0,1.0,3.0,3.0,286.914078999871,2.0,1.0,phase_1,,,,,,,,,,,,,gray,diamond
119.0,2.0,1.0,0.0,4.0,4.0,323.4188579999681,2.0,1.0,phase_1,,,,,,,,,,,,,yellow,I
410.0,4.0,4.0,0.0,3.0,3.0,294.6554119998836,2.0,1.0,phase_1,,,,,,,,,,,,,orange,circle
78.0,6.0,1.0,1.0,4.0,4.0,297.8663539997797,2.0,1.0,phase_1,,,,,,,,,,,,,green,square
419.0,4.0,4.0,0.0,2.0,2.0,314.8100520002117,2.0,1.0,phase_1,,,,,,,,,,,,,orange,circle
386.0,4.0,4.0,0.0,4.0,4.0,306.7637999997714,2.0,1.0,phase_1,,,,,,,,,,,,,orange,circle
384.0,4.0,4.0,0.0,1.0,1.0,316.0196409999116,2.0,1.0,phase_1,,,,,,,,,,,,,orange,circle
33.0,1.0,0.5,0.0,1.0,1.0,293.5865340000418,2.0,1.0,phase_1,,,,,,,,,,,,,cyan,hexagon
386.0,4.0,4.0,0.0,2.0,2.0,311.4444420002655,2.0,1.0,phase_1,,,,,,,,,,,,,orange,circle
84.0,2.0,1.0,0.0,4.0,4.0,407.7696899998955,2.0,1.0,phase_1,,,,,,,,,,,,,yellow,I
116.0,2.0,1.0,0.0,1.0,1.0,269.9568440002622,2.0,1.0,phase_1,,,,,,,,,,,,,yellow,I
412.0,8.0,4.0,1.0,2.0,2.0,280.6817030000275,2.0,1.0,phase_1,,,,,,,,,,,,,white,flipped triangle
214.0,7.0,2.0,1.0,4.0,4.0,297.4744339999233,2.0,1.0,phase_1,,,,,,,,,,,,,gray,diamond
409.0,4.0,4.0,0.0,2.0,2.0,267.1404390002863,2.0,1.0,phase_1,,,,,,,,,,,,,orange,circle
403.0,8.0,4.0,1.0,4.0,4.0,281.0825130000012,2.0,1.0,phase_1,,,,,,,,,,,,,white,flipped triangle
34.0,1.0,0.5,0.0,2.0,2.0,289.7337980002703,2.0,1.0,phase_1,,,,,,,,,,,,,cyan,hexagon
188.0,3.0,2.0,0.0,1.0,1.0,265.6821630002923,2.0,1.0,phase_1,,,,,,,,,,,,,blue,triangle
0.0,1.0,0.0,0.0,1.0,1.0,270.3248069997244,2.0,1.0,phase_1,,,,,,,,,,,,,cyan,hexagon
28.0,5.0,0.5,1.0,4.0,4.0,306.5884579996236,2.0,1.0,phase_1,,,,,,,,,,,,,magenta,cross
64.0,1.0,0.5,0.0,3.0,3.0,328.1719350002277,2.0,1.0,phase_1,,,,,,,,,,,,,cyan,hexagon
38.0,1.0,0.5,0.0,3.0,3.0,279.7209089999342,2.0,1.0,phase_1,,,,,,,,,,,,,cyan,hexagon
191.0,3.0,2.0,0.0,4.0,4.0,321.6224249999868,2.0,1.0,phase_1,,,,,,,,,,,,,blue,triangle
61.0,5.0,0.5,1.0,4.0,4.0,324.3376479999824,2.0,1.0,phase_1,,,,,,,,,,,,,magenta,cross
61.0,5.0,0.5,1.0,3.0,3.0,291.2203469995802,2.0,1.0,phase_1,,,,,,,,,,,,,magenta,cross
417.0,8.0,4.0,1.0,3.0,3.0,278.0257419999543,2.0,1.0,phase_1,,,,,,,,,,,,,white,flipped triangle
202.0,3.0,2.0,0.0,3.0,3.0,305.0071019997631,2.0,1.0,phase_1,,,,,,,,,,,,,blue,triangle
0.0,1.0,0.0,0.0,2.0,2.0,308.4384889998546,2.0,1.0,phase_1,,,,,,,,,,,,,cyan,hexagon
403.0,4.0,4.0,0.0,2.0,2.0,332.8994200001034,2.0,1.0,phase_1,,,,,,,,,,,,,orange,circle
417.0,8.0,4.0,1.0,4.0,4.0,309.475236000253,2.0,1.0,phase_1,,,,,,,,,,,,,white,flipped triangle
190.0,3.0,2.0,0.0,3.0,3.0,279.3597459999546,2.0,1.0,phase_1,,,,,,,,,,,,,blue,triangle
77.0,6.0,1.0,1.0,3.0,3.0,257.1692950000397,2.0,1.0,phase_1,,,,,,,,,,,,,green,square
202.0,7.0,2.0,1.0,4.0,4.0,283.4689710002749,2.0,1.0,phase_1,,,,,,,,,,,,,gray,diamond
67.0,1.0,0.5,0.0,1.0,1.0,271.0606290002033,2.0,1.0,phase_1,,,,,,,,,,,,,cyan,hexagon
186.0,3.0,2.0,0.0,4.0,4.0,299.395461000131,2.0,1.0,phase_1,,,,,,,,,,,,,blue,triangle
0.0,3.0,0.0,0.0,3.0,3.0,293.1812850001734,2.0,1.0,phase_1,,,,,,,,,,,,,blue,triangle
99.0,2.0,1.0,0.0,2.0,2.0,290.8075750001444,2.0,1.0,phase_1,,,,,,,,,,,,,yellow,I
403.0,4.0,4.0,0.0,4.0,4.0,257.1197299998857,2.0,1.0,phase_1,,,,,,,,,,,,,orange,circle
0.0,8.0,0.0,1.0,2.0,2.0,290.5554470003153,2.0,1.0,phase_1,,,,,,,,,,,,,white,flipped triangle
205.0,3.0,2.0,0.0,3.0,3.0,275.8584719999817,2.0,1.0,phase_1,,,,,,,,,,,,,blue,triangle
0.0,1.0,0.0,0.0,3.0,3.0,281.7087249995893,2.0,1.0,phase_1,,,,,,,,,,,,,cyan,hexagon
396.0,8.0,4.0,1.0,3.0,3.0,347.5427550001768,2.0,1.0,phase_1,,,,,,,,,,,,,white,flipped triangle
0.0,4.0,0.0,0.0,1.0,1.0,269.1078040002139,2.0,1.0,phase_1,,,,,,,,,,,,,orange,circle
119.0,6.0,1.0,1.0,2.0,2.0,292.6578999999947,2.0,1.0,phase_1,,,,,,,,,,,,,green,square
407.0,8.0,4.0,1.0,1.0,1.0,274.8823249999077,2.0,1.0,phase_1,,,,,,,,,,,,,white,flipped triangle
67.0,1.0,0.5,0.0,2.0,2.0,334.9459039995963,2.0,1.0,phase_1,,,,,,,,,,,,,cyan,hexagon
75.0,2.0,1.0,0.0,3.0,3.0,308.013456000026,2.0,1.0,phase_1,,,,,,,,,,,,,yellow,I
81.0,2.0,1.0,0.0,1.0,1.0,257.3366390001865,2.0,1.0,phase_1,,,,,,,,,,,,,yellow,I
188.0,7.0,2.0,1.0,3.0,3.0,326.7776590000721,2.0,1.0,phase_1,,,,,,,,,,,,,gray,diamond
402.0,8.0,4.0,1.0,3.0,3.0,295.4878300001837,2.0,1.0,phase_1,,,,,,,,,,,,,white,flipped triangle
382.0,4.0,4.0,0.0,1.0,1.0,277.0012959999803,2.0,1.0,phase_1,,,,,,,,,,,,,orange,circle
212.0,7.0,2.0,1.0,3.0,3.0,302.8023140000186,2.0,1.0,phase_1,,,,,,,,,,,,,gray,diamond
0.0,6.0,0.0,1.0,1.0,1.0,270.8302259998163,2.0,1.0,phase_1,,,,,,,,,,,,,green,square
88.0,2.0,1.0,0.0,4.0,4.0,313.4433179998268,2.0,1.0,phase_1,,,,,,,,,,,,,yellow,I
0.0,5.0,0.0,1.0,4.0,4.0,372.4045149997437,2.0,1.0,phase_1,,,,,,,,,,,,,magenta,cross
110.0,2.0,1.0,0.0,4.0,4.0,319.8810940002659,2.0,1.0,phase_1,,,,,,,,,,,,,yellow,I
89.0,6.0,1.0,1.0,2.0,2.0,344.1264520001823,2.0,1.0,phase_1,,,,,,,,,,,,,green,square
40.0,5.0,0.5,1.0,2.0,2.0,290.4238659998555,2.0,1.0,phase_1,,,,,,,,,,,,,magenta,cross
113.0,6.0,1.0,1.0,4.0,4.0,318.9318080003431,2.0,1.0,phase_1,,,,,,,,,,,,,green,square
0.0,5.0,0.0,1.0,2.0,2.0,255.9168719999434,2.0,1.0,phase_1,,,,,,,,,,,,,magenta,cross
187.0,7.0,2.0,1.0,1.0,1.0,237.68291499982288,2.0,1.0,phase_1,,,,,,,,,,,,,gray,diamond
0.0,3.0,0.0,0.0,4.0,4.0,288.5674809999727,2.0,1.0,phase_1,,,,,,,,,,,,,blue,triangle
0.0,6.0,0.0,1.0,1.0,1.0,271.660724999947,2.0,1.0,phase_1,,,,,,,,,,,,,green,square
207.0,3.0,2.0,0.0,4.0,4.0,303.0569130000913,2.0,1.0,phase_1,,,,,,,,,,,,,blue,triangle
395.0,8.0,4.0,1.0,4.0,4.0,286.6452570001456,2.0,1.0,phase_1,,,,,,,,,,,,,white,flipped triangle
202.0,3.0,2.0,0.0,4.0,4.0,317.5560300001052,2.0,1.0,phase_1,,,,,,,,,,,,,blue,triangle
199.0,7.0,2.0,1.0,3.0,3.0,329.9165260000336,2.0,1.0,phase_1,,,,,,,,,,,,,gray,diamond
186.0,7.0,2.0,1.0,4.0,4.0,304.1398080004001,2.0,1.0,phase_1,,,,,,,,,,,,,gray,diamond
55.0,1.0,0.5,0.0,2.0,2.0,293.6914160000015,2.0,1.0,phase_1,,,,,,,,,,,,,cyan,hexagon
182.0,7.0,2.0,1.0,2.0,2.0,318.9000020001913,3.0,1.0,phase_1,,,,,,,,,,,,,gray,diamond
83.0,2.0,1.0,0.0,3.0,3.0,327.9479249999895,3.0,1.0,phase_1,,,,,,,,,,,,,yellow,I
0.0,1.0,0.0,0.0,2.0,2.0,277.5454480001826,3.0,1.0,phase_1,,,,,,,,,,,,,cyan,hexagon
177.0,3.0,2.0,0.0,4.0,4.0,295.679170999847,3.0,1.0,phase_1,,,,,,,,,,,,,blue,triangle
25.0,5.0,0.5,1.0,4.0,4.0,292.6214400004028,3.0,1.0,phase_1,,,,,,,,,,,,,magenta,cross
376.0,4.0,4.0,0.0,1.0,1.0,272.2246819998872,3.0,1.0,phase_1,,,,,,,,,,,,,orange,circle
220.0,7.0,2.0,1.0,4.0,4.0,269.5928430002823,3.0,1.0,phase_1,,,,,,,,,,,,,gray,diamond
0.0,2.0,0.0,0.0,2.0,2.0,274.6388989999104,3.0,1.0,phase_1,,,,,,,,,,,,,yellow,I
26.0,5.0,0.5,1.0,2.0,2.0,273.7303680000877,3.0,1.0,phase_1,,,,,,,,,,,,,magenta,cross
392.0,4.0,4.0,0.0,1.0,1.0,243.0969400002141,3.0,1.0,phase_1,,,,,,,,,,,,,orange,circle
398.0,4.0,4.0,0.0,4.0,4.0,287.2352909998881,3.0,1.0,phase_1,,,,,,,,,,,,,orange,circle
198.0,3.0,2.0,0.0,2.0,2.0,263.6775139999372,3.0,1.0,phase_1,,,,,,,,,,,,,blue,triangle
67.0,5.0,0.5,1.0,4.0,4.0,290.1097029998709,3.0,1.0,phase_1,,,,,,,,,,,,,magenta,cross
0.0,2.0,0.0,0.0,4.0,4.0,291.7178689999673,3.0,1.0,phase_1,,,,,,,,,,,,,yellow,I
0.0,2.0,0.0,0.0,1.0,1.0,262.258075000318,3.0,1.0,phase_1,,,,,,,,,,,,,yellow,I
223.0,3.0,2.0,0.0,1.0,1.0,296.7876279999473,3.0,1.0,phase_1,,,,,,,,,,,,,blue,triangle
68.0,1.0,0.5,0.0,1.0,1.0,296.1086939999404,3.0,1.0,phase_1,,,,,,,,,,,,,cyan,hexagon
0.0,8.0,0.0,1.0,1.0,1.0,262.1159069999521,3.0,1.0,phase_1,,,,,,,,,,,,,white,flipped triangle
33.0,5.0,0.5,1.0,1.0,1.0,298.303942000075,3.0,1.0,phase_1,,,,,,,,,,,,,magenta,cross
424.0,8.0,4.0,1.0,2.0,2.0,300.1095339996027,3.0,1.0,phase_1,,,,,,,,,,,,,white,flipped triangle
34.0,5.0,0.5,1.0,1.0,1.0,265.633106000223,3.0,1.0,phase_1,,,,,,,,,,,,,magenta,cross
377.0,4.0,4.0,0.0,4.0,4.0,331.7037609999715,3.0,1.0,phase_1,,,,,,,,,,,,,orange,circle
75.0,6.0,1.0,1.0,3.0,3.0,294.4596020001881,3.0,1.0,phase_1,,,,,,,,,,,,,green,square
377.0,8.0,4.0,1.0,2.0,2.0,293.5608339998907,3.0,1.0,phase_1,,,,,,,,,,,,,white,flipped triangle
194.0,7.0,2.0,1.0,2.0,2.0,298.3359019999625,3.0,1.0,phase_1,,,,,,,,,,,,,gray,diamond
34.0,1.0,0.5,0.0,2.0,2.0,285.9646020001491,3.0,1.0,phase_1,,,,,,,,,,,,,cyan,hexagon
410.0,8.0,4.0,1.0,1.0,1.0,260.3235390001828,3.0,1.0,phase_1,,,,,,,,,,,,,white,flipped triangle
0.0,5.0,0.0,1.0,3.0,3.0,350.7329649996791,3.0,1.0,phase_1,,,,,,,,,,,,,magenta,cross
0.0,5.0,0.0,1.0,4.0,4.0,327.529596000204,3.0,1.0,phase_1,,,,,,,,,,,,,magenta,cross
104.0,6.0,1.0,1.0,1.0,1.0,246.0942289999366,3.0,1.0,phase_1,,,,,,,,,,,,,green,square
389.0,4.0,4.0,0.0,2.0,2.0,290.2975649999462,3.0,1.0,phase_1,,,,,,,,,,,,,orange,circle
0.0,3.0,0.0,0.0,4.0,4.0,314.209695000045,3.0,1.0,phase_1,,,,,,,,,,,,,blue,triangle
102.0,6.0,1.0,1.0,1.0,1.0,257.8440639999826,3.0,1.0,phase_1,,,,,,,,,,,,,green,square
61.0,1.0,0.5,0.0,4.0,4.0,295.7913909999661,3.0,1.0,phase_1,,,,,,,,,,,,,cyan,hexagon
44.0,5.0,0.5,1.0,4.0,4.0,297.4846310003158,3.0,1.0,phase_1,,,,,,,,,,,,,magenta,cross
45.0,5.0,0.5,1.0,4.0,4.0,305.5345669999951,3.0,1.0,phase_1,,,,,,,,,,,,,magenta,cross
123.0,2.0,1.0,0.0,3.0,3.0,317.92039699985247,3.0,1.0,phase_1,,,,,,,,,,,,,yellow,I
111.0,6.0,1.0,1.0,3.0,3.0,297.0857290001731,3.0,1.0,phase_1,,,,,,,,,,,,,green,square
55.0,5.0,0.5,1.0,3.0,3.0,299.3824780000977,3.0,1.0,phase_1,,,,,,,,,,,,,magenta,cross
0.0,8.0,0.0,1.0,4.0,4.0,285.5823859999873,3.0,1.0,phase_1,,,,,,,,,,,,,white,flipped triangle
180.0,7.0,2.0,1.0,2.0,2.0,315.6441250002899,3.0,1.0,phase_1,,,,,,,,,,,,,gray,diamond
89.0,2.0,1.0,0.0,4.0,4.0,271.1081610000292,3.0,1.0,phase_1,,,,,,,,,,,,,yellow,I
222.0,3.0,2.0,0.0,1.0,1.0,246.4933180003754,3.0,1.0,phase_1,,,,,,,,,,,,,blue,triangle
28.0,1.0,0.5,0.0,4.0,4.0,267.7394479997019,3.0,1.0,phase_1,,,,,,,,,,,,,cyan,hexagon
0.0,1.0,0.0,0.0,1.0,1.0,253.2273379997605,3.0,1.0,phase_1,,,,,,,,,,,,,cyan,hexagon
111.0,6.0,1.0,1.0,4.0,4.0,294.158115999835,3.0,1.0,phase_1,,,,,,,,,,,,,green,square
0.0,1.0,0.0,0.0,2.0,2.0,281.0231029998249,3.0,1.0,phase_1,,,,,,,,,,,,,cyan,hexagon
216.0,7.0,2.0,1.0,1.0,1.0,270.487853999839,3.0,1.0,phase_1,,,,,,,,,,,,,gray,diamond
0.0,6.0,0.0,1.0,4.0,4.0,265.8008349999363,3.0,1.0,phase_1,,,,,,,,,,,,,green,square
191.0,7.0,2.0,1.0,1.0,1.0,228.8637660003587,3.0,1.0,phase_1,,,,,,,,,,,,,gray,diamond
73.0,1.0,0.5,0.0,4.0,4.0,246.1514910000914,3.0,1.0,phase_1,,,,,,,,,,,,,cyan,hexagon
121.0,6.0,1.0,1.0,2.0,2.0,260.0017600002502,3.0,1.0,phase_1,,,,,,,,,,,,,green,square
393.0,8.0,4.0,1.0,2.0,2.0,285.2519360003498,3.0,1.0,phase_1,,,,,,,,,,,,,white,flipped triangle
119.0,2.0,1.0,0.0,4.0,4.0,310.8657500001754,3.0,1.0,phase_1,,,,,,,,,,,,,yellow,I
201.0,7.0,2.0,1.0,3.0,3.0,342.7243539999836,3.0,1.0,phase_1,,,,,,,,,,,,,gray,diamond
43.0,5.0,0.5,1.0,1.0,1.0,257.8456080000251,3.0,1.0,phase_1,,,,,,,,,,,,,magenta,cross
208.0,3.0,2.0,0.0,4.0,4.0,273.4277180002209,3.0,1.0,phase_1,,,,,,,,,,,,,blue,triangle
176.0,3.0,2.0,0.0,3.0,3.0,277.6720880001448,3.0,1.0,phase_1,,,,,,,,,,,,,blue,triangle
73.0,1.0,0.5,0.0,3.0,3.0,284.0296989998023,3.0,1.0,phase_1,,,,,,,,,,,,,cyan,hexagon
208.0,7.0,2.0,1.0,2.0,2.0,257.2418919999109,3.0,1.0,phase_1,,,,,,,,,,,,,gray,diamond
0.0,1.0,0.0,0.0,3.0,3.0,314.3641100000423,3.0,1.0,phase_1,,,,,,,,,,,,,cyan,hexagon
89.0,2.0,1.0,0.0,2.0,2.0,283.258294999996,3.0,1.0,phase_1,,,,,,,,,,,,,yellow,I
26.0,1.0,0.5,0.0,3.0,3.0,282.666251000137,3.0,1.0,phase_1,,,,,,,,,,,,,cyan,hexagon
94.0,2.0,1.0,0.0,1.0,1.0,278.188149000016,3.0,1.0,phase_1,,,,,,,,,,,,,yellow,I
81.0,6.0,1.0,1.0,4.0,4.0,285.1896249999299,3.0,1.0,phase_1,,,,,,,,,,,,,green,square
419.0,4.0,4.0,0.0,1.0,1.0,249.974019000092,3.0,1.0,phase_1,,,,,,,,,,,,,orange,circle
0.0,3.0,0.0,0.0,1.0,1.0,269.7516960001849,3.0,1.0,phase_1,,,,,,,,,,,,,blue,triangle
64.0,5.0,0.5,1.0,2.0,2.0,273.0109509998328,3.0,1.0,phase_1,,,,,,,,,,,,,magenta,cross
409.0,8.0,4.0,1.0,2.0,2.0,291.3638759996502,3.0,1.0,phase_1,,,,,,,,,,,,,white,flipped triangle
201.0,3.0,2.0,0.0,4.0,4.0,283.0529170000773,3.0,1.0,phase_1,,,,,,,,,,,,,blue,triangle
111.0,2.0,1.0,0.0,1.0,1.0,280.2934730002562,3.0,1.0,phase_1,,,,,,,,,,,,,yellow,I
45.0,5.0,0.5,1.0,3.0,3.0,301.8814080000993,3.0,1.0,phase_1,,,,,,,,,,,,,magenta,cross
210.0,3.0,2.0,0.0,2.0,2.0,279.3258090000563,3.0,1.0,phase_1,,,,,,,,,,,,,blue,triangle
402.0,4.0,4.0,0.0,2.0,2.0,284.0570879998267,3.0,1.0,phase_1,,,,,,,,,,,,,orange,circle
0.0,7.0,0.0,1.0,4.0,4.0,282.7507769998192,3.0,1.0,phase_1,,,,,,,,,,,,,gray,diamond
98.0,6.0,1.0,1.0,1.0,1.0,258.4132030001456,3.0,1.0,phase_1,,,,,,,,,,,,,green,square
109.0,6.0,1.0,1.0,3.0,3.0,270.1784880000559,3.0,1.0,phase_1,,,,,,,,,,,,,green,square
75.0,1.0,0.5,0.0,4.0,4.0,329.1054379997149,3.0,1.0,phase_1,,,,,,,,,,,,,cyan,hexagon
197.0,3.0,2.0,0.0,3.0,3.0,329.1970930004027,3.0,1.0,phase_1,,,,,,,,,,,,,blue,triangle
196.0,3.0,2.0,0.0,2.0,2.0,273.2391779995851,3.0,1.0,phase_1,,,,,,,,,,,,,blue,triangle
0.0,4.0,0.0,0.0,4.0,4.0,375.9518100000605,3.0,1.0,phase_1,,,,,,,,,,,,,orange,circle
412.0,4.0,4.0,0.0,1.0,1.0,292.0592780001243,3.0,1.0,phase_1,,,,,,,,,,,,,orange,circle
57.0,1.0,0.5,0.0,2.0,2.0,279.1048209996916,3.0,1.0,phase_1,,,,,,,,,,,,,cyan,hexagon
395.0,4.0,4.0,0.0,2.0,2.0,307.2190049997516,3.0,1.0,phase_1,,,,,,,,,,,,,orange,circle
212.0,3.0,2.0,0.0,4.0,4.0,290.3584959999534,3.0,1.0,phase_1,,,,,,,,,,,,,blue,triangle
0.0,5.0,0.0,1.0,4.0,4.0,309.4624660002409,3.0,1.0,phase_1,,,,,,,,,,,,,magenta,cross
410.0,8.0,4.0,1.0,1.0,1.0,255.19923399997418,3.0,1.0,phase_1,,,,,,,,,,,,,white,flipped triangle
69.0,5.0,0.5,1.0,1.0,1.0,287.8930779997972,3.0,1.0,phase_1,,,,,,,,,,,,,magenta,cross
0.0,2.0,0.0,0.0,1.0,1.0,269.8793069998828,3.0,1.0,phase_1,,,,,,,,,,,,,yellow,I
221.0,7.0,2.0,1.0,4.0,4.0,247.3310979999041,3.0,1.0,phase_1,,,,,,,,,,,,,gray,diamond
202.0,7.0,2.0,1.0,2.0,2.0,267.3306279998542,3.0,1.0,phase_1,,,,,,,,,,,,,gray,diamond
72.0,1.0,0.5,0.0,4.0,4.0,296.2675480002872,3.0,1.0,phase_1,,,,,,,,,,,,,cyan,hexagon
415.0,8.0,4.0,1.0,1.0,1.0,298.9391880000767,3.0,1.0,phase_1,,,,,,,,,,,,,white,flipped triangle
0.0,8.0,0.0,1.0,3.0,3.0,304.5273509997059,3.0,1.0,phase_1,,,,,,,,,,,,,white,flipped triangle
73.0,5.0,0.5,1.0,1.0,1.0,239.5927169995957,3.0,1.0,phase_1,,,,,,,,,,,,,magenta,cross
94.0,6.0,1.0,1.0,2.0,2.0,264.7032660001969,3.0,1.0,phase_1,,,,,,,,,,,,,green,square
197.0,7.0,2.0,1.0,1.0,1.0,254.2800830001397,3.0,1.0,phase_1,,,,,,,,,,,,,gray,diamond
385.0,4.0,4.0,0.0,4.0,4.0,294.1914279999764,3.0,1.0,phase_1,,,,,,,,,,,,,orange,circle
67.0,5.0,0.5,1.0,3.0,3.0,305.834053000126,3.0,1.0,phase_1,,,,,,,,,,,,,magenta,cross
41.0,5.0,0.5,1.0,4.0,4.0,317.0750649996989,3.0,1.0,phase_1,,,,,,,,,,,,,magenta,cross
64.0,1.0,0.5,0.0,3.0,3.0,332.6661520000016,4.0,1.0,phase_1,,,,,,,,,,,,,cyan,hexagon
202.0,3.0,2.0,0.0,1.0,1.0,304.8772789998111,4.0,1.0,phase_1,,,,,,,,,,,,,blue,triangle
0.0,6.0,0.0,1.0,4.0,4.0,269.3186199999218,4.0,1.0,phase_1,,,,,,,,,,,,,green,square
216.0,3.0,2.0,0.0,3.0,3.0,285.8073879997391,4.0,1.0,phase_1,,,,,,,,,,,,,blue,triangle
27.0,5.0,0.5,1.0,1.0,1.0,283.2448379999732,4.0,1.0,phase_1,,,,,,,,,,,,,magenta,cross
211.0,7.0,2.0,1.0,1.0,1.0,261.7784359999859,4.0,1.0,phase_1,,,,,,,,,,,,,gray,diamond
217.0,7.0,2.0,1.0,2.0,2.0,315.6209160001708,4.0,1.0,phase_1,,,,,,,,,,,,,gray,diamond
0.0,2.0,0.0,0.0,2.0,2.0,305.4062610003711,4.0,1.0,phase_1,,,,,,,,,,,,,yellow,I
116.0,6.0,1.0,1.0,1.0,1.0,264.4431619996794,4.0,1.0,phase_1,,,,,,,,,,,,,green,square
60.0,5.0,0.5,1.0,3.0,3.0,341.728575000161,4.0,1.0,phase_1,,,,,,,,,,,,,magenta,cross
82.0,6.0,1.0,1.0,2.0,2.0,303.1754839998939,4.0,1.0,phase_1,,,,,,,,,,,,,green,square
0.0,4.0,0.0,0.0,4.0,4.0,346.2528749996636,4.0,1.0,phase_1,,,,,,,,,,,,,orange,circle
225.0,7.0,2.0,1.0,2.0,2.0,310.1496570002382,4.0,1.0,phase_1,,,,,,,,,,,,,gray,diamond
89.0,6.0,1.0,1.0,4.0,4.0,329.6921080000174,4.0,1.0,phase_1,,,,,,,,,,,,,green,square
0.0,3.0,0.0,0.0,2.0,2.0,281.766055999924,4.0,1.0,phase_1,,,,,,,,,,,,,blue,triangle
0.0,6.0,0.0,1.0,4.0,4.0,325.2107010002873,4.0,1.0,phase_1,,,,,,,,,,,,,green,square
46.0,5.0,0.5,1.0,1.0,1.0,244.2309339999155,4.0,1.0,phase_1,,,,,,,,,,,,,magenta,cross
73.0,5.0,0.5,1.0,1.0,1.0,283.7935450002078,4.0,1.0,phase_1,,,,,,,,,,,,,magenta,cross
194.0,3.0,2.0,0.0,2.0,2.0,334.6523120003439,4.0,1.0,phase_1,,,,,,,,,,,,,blue,triangle
197.0,3.0,2.0,0.0,2.0,2.0,302.0101950000935,4.0,1.0,phase_1,,,,,,,,,,,,,blue,triangle
53.0,5.0,0.5,1.0,3.0,3.0,293.7792739999167,4.0,1.0,phase_1,,,,,,,,,,,,,magenta,cross
177.0,3.0,2.0,0.0,3.0,3.0,322.7814599999874,4.0,1.0,phase_1,,,,,,,,,,,,,blue,triangle
119.0,6.0,1.0,1.0,3.0,3.0,293.3130330002313,4.0,1.0,phase_1,,,,,,,,,,,,,green,square
403.0,8.0,4.0,1.0,3.0,3.0,275.6415089997972,4.0,1.0,phase_1,,,,,,,,,,,,,white,flipped triangle
0.0,7.0,0.0,1.0,2.0,2.0,298.4106389999397,4.0,1.0,phase_1,,,,,,,,,,,,,gray,diamond
223.0,7.0,2.0,1.0,3.0,3.0,296.7822919999889,4.0,1.0,phase_1,,,,,,,,,,,,,gray,diamond
39.0,1.0,0.5,0.0,4.0,4.0,322.0785049998085,4.0,1.0,phase_1,,,,,,,,,,,,,cyan,hexagon
407.0,8.0,4.0,1.0,1.0,1.0,314.0731169996797,4.0,1.0,phase_1,,,,,,,,,,,,,white,flipped triangle
75.0,5.0,0.5,1.0,2.0,2.0,319.0528580003047,4.0,1.0,phase_1,,,,,,,,,,,,,magenta,cross
180.0,3.0,2.0,0.0,2.0,2.0,290.7902560000366,4.0,1.0,phase_1,,,,,,,,,,,,,blue,triangle
384.0,8.0,4.0,1.0,1.0,1.0,288.8182330002564,4.0,1.0,phase_1,,,,,,,,,,,,,white,flipped triangle
384.0,4.0,4.0,0.0,1.0,1.0,337.7643939998052,4.0,1.0,phase_1,,,,,,,,,,,,,orange,circle
0.0,4.0,0.0,0.0,1.0,1.0,297.9741250001098,4.0,1.0,phase_1,,,,,,,,,,,,,orange,circle
395.0,4.0,4.0,0.0,2.0,2.0,302.1217430000433,4.0,1.0,phase_1,,,,,,,,,,,,,orange,circle
0.0,1.0,0.0,0.0,3.0,3.0,319.6595529998376,4.0,1.0,phase_1,,,,,,,,,,,,,cyan,hexagon
56.0,5.0,0.5,1.0,4.0,4.0,297.8955700000369,4.0,1.0,phase_1,,,,,,,,,,,,,magenta,cross
403.0,8.0,4.0,1.0,3.0,3.0,292.2526679999464,4.0,1.0,phase_1,,,,,,,,,,,,,white,flipped triangle
46.0,5.0,0.5,1.0,2.0,2.0,290.7559010000113,4.0,1.0,phase_1,,,,,,,,,,,,,magenta,cross
0.0,5.0,0.0,1.0,3.0,3.0,296.5587210001104,4.0,1.0,phase_1,,,,,,,,,,,,,magenta,cross
59.0,1.0,0.5,0.0,1.0,1.0,272.4434829997335,4.0,1.0,phase_1,,,,,,,,,,,,,cyan,hexagon
197.0,7.0,2.0,1.0,1.0,1.0,307.0482510001966,4.0,1.0,phase_1,,,,,,,,,,,,,gray,diamond
0.0,1.0,0.0,0.0,3.0,3.0,317.5547729997561,4.0,1.0,phase_1,,,,,,,,,,,,,cyan,hexagon
178.0,3.0,2.0,0.0,2.0,2.0,295.8795070003361,4.0,1.0,phase_1,,,,,,,,,,,,,blue,triangle
113.0,2.0,1.0,0.0,3.0,3.0,300.5230570001913,4.0,1.0,phase_1,,,,,,,,,,,,,yellow,I
196.0,7.0,2.0,1.0,1.0,1.0,268.0732789999638,4.0,1.0,phase_1,,,,,,,,,,,,,gray,diamond
382.0,8.0,4.0,1.0,2.0,2.0,297.4468809998143,4.0,1.0,phase_1,,,,,,,,,,,,,white,flipped triangle
210.0,7.0,2.0,1.0,4.0,4.0,337.5596320001932,4.0,1.0,phase_1,,,,,,,,,,,,,gray,diamond
202.0,7.0,2.0,1.0,3.0,3.0,300.0428889999966,4.0,1.0,phase_1,,,,,,,,,,,,,gray,diamond
0.0,3.0,0.0,0.0,2.0,2.0,282.8272389997437,4.0,1.0,phase_1,,,,,,,,,,,,,blue,triangle
0.0,2.0,0.0,0.0,4.0,4.0,289.9404229997344,4.0,1.0,phase_1,,,,,,,,,,,,,yellow,I
0.0,2.0,0.0,0.0,1.0,1.0,296.6342159998021,4.0,1.0,phase_1,,,,,,,,,,,,,yellow,I
0.0,7.0,0.0,1.0,1.0,1.0,299.2824799998743,4.0,1.0,phase_1,,,,,,,,,,,,,gray,diamond
112.0,2.0,1.0,0.0,4.0,4.0,321.6819940003006,4.0,1.0,phase_1,,,,,,,,,,,,,yellow,I
395.0,8.0,4.0,1.0,4.0,4.0,349.6190689998002,4.0,1.0,phase_1,,,,,,,,,,,,,white,flipped triangle
419.0,8.0,4.0,1.0,4.0,4.0,303.0009330000212,4.0,1.0,phase_1,,,,,,,,,,,,,white,flipped triangle
0.0,4.0,0.0,0.0,4.0,4.0,343.4125489998223,4.0,1.0,phase_1,,,,,,,,,,,,,orange,circle
125.0,6.0,1.0,1.0,3.0,3.0,312.0619020000958,4.0,1.0,phase_1,,,,,,,,,,,,,green,square
410.0,4.0,4.0,0.0,1.0,1.0,223.7537629998769,4.0,1.0,phase_1,,,,,,,,,,,,,orange,circle
187.0,7.0,2.0,1.0,2.0,2.0,309.9118099999032,4.0,1.0,phase_1,,,,,,,,,,,,,gray,diamond
44.0,1.0,0.5,0.0,1.0,1.0,260.3227029999289,4.0,1.0,phase_1,,,,,,,,,,,,,cyan,hexagon
0.0,7.0,0.0,1.0,3.0,3.0,332.4086060001718,4.0,1.0,phase_1,,,,,,,,,,,,,gray,diamond
39.0,5.0,0.5,1.0,2.0,2.0,308.5389329999088,4.0,1.0,phase_1,,,,,,,,,,,,,magenta,cross
101.0,6.0,1.0,1.0,1.0,1.0,256.7982420000589,4.0,1.0,phase_1,,,,,,,,,,,,,green,square
0.0,8.0,0.0,1.0,2.0,2.0,284.791929000221,4.0,1.0,phase_1,,,,,,,,,,,,,white,flipped triangle
80.0,6.0,1.0,1.0,3.0,3.0,311.8222870002682,4.0,1.0,phase_1,,,,,,,,,,,,,green,square
40.0,1.0,0.5,0.0,2.0,2.0,273.3333859996492,4.0,1.0,phase_1,,,,,,,,,,,,,cyan,hexagon
385.0,8.0,4.0,1.0,3.0,3.0,287.1157929998844,4.0,1.0,phase_1,,,,,,,,,,,,,white,flipped triangle
85.0,2.0,1.0,0.0,3.0,3.0,296.7556359999435,4.0,1.0,phase_1,,,,,,,,,,,,,yellow,I
123.0,2.0,1.0,0.0,4.0,4.0,334.2952080001851,4.0,1.0,phase_1,,,,,,,,,,,,,yellow,I
55.0,1.0,0.5,0.0,2.0,2.0,301.4065269999264,4.0,1.0,phase_1,,,,,,,,,,,,,cyan,hexagon
0.0,7.0,0.0,1.0,3.0,3.0,301.8501749997995,4.0,1.0,phase_1,,,,,,,,,,,,,gray,diamond
177.0,7.0,2.0,1.0,2.0,2.0,279.76488200010857,4.0,1.0,phase_1,,,,,,,,,,,,,gray,diamond
94.0,6.0,1.0,1.0,1.0,1.0,254.16209800005157,4.0,1.0,phase_1,,,,,,,,,,,,,green,square
102.0,2.0,1.0,0.0,3.0,3.0,311.7881020002642,4.0,1.0,phase_1,,,,,,,,,,,,,yellow,I
93.0,2.0,1.0,0.0,3.0,3.0,303.2565879998401,4.0,1.0,phase_1,,,,,,,,,,,,,yellow,I
0.0,3.0,0.0,0.0,3.0,3.0,309.002171999964,4.0,1.0,phase_1,,,,,,,,,,,,,blue,triangle
379.0,8.0,4.0,1.0,2.0,2.0,308.6787109996294,4.0,1.0,phase_1,,,,,,,,,,,,,white,flipped triangle
0.0,6.0,0.0,1.0,2.0,2.0,290.2369080002245,4.0,1.0,phase_1,,,,,,,,,,,,,green,square
0.0,4.0,0.0,0.0,3.0,3.0,285.6141930001286,4.0,1.0,phase_1,,,,,,,,,,,,,orange,circle
0.0,2.0,0.0,0.0,3.0,3.0,303.5802690001219,4.0,1.0,phase_1,,,,,,,,,,,,,yellow,I
393.0,4.0,4.0,0.0,2.0,2.0,312.7247290003652,4.0,1.0,phase_1,,,,,,,,,,,,,orange,circle
34.0,5.0,0.5,1.0,2.0,2.0,277.4421190001703,4.0,1.0,phase_1,,,,,,,,,,,,,magenta,cross
56.0,1.0,0.5,0.0,1.0,1.0,281.4069200003359,4.0,1.0,phase_1,,,,,,,,,,,,,cyan,hexagon
392.0,8.0,4.0,1.0,1.0,1.0,310.5834689999938,4.0,1.0,phase_1,,,,,,,,,,,,,white,flipped triangle
207.0,7.0,2.0,1.0,1.0,1.0,267.1478530000968,4.0,1.0,phase_1,,,,,,,,,,,,,gray,diamond
403.0,4.0,4.0,0.0,1.0,1.0,272.3240649997933,4.0,1.0,phase_1,,,,,,,,,,,,,orange,circle
83.0,6.0,1.0,1.0,1.0,1.0,281.14369099967,4.0,1.0,phase_1,,,,,,,,,,,,,green,square
45.0,1.0,0.5,0.0,3.0,3.0,308.1199779999224,4.0,1.0,phase_1,,,,,,,,,,,,,cyan,hexagon
0.0,4.0,0.0,0.0,1.0,1.0,263.4571929997946,4.0,1.0,phase_1,,,,,,,,,,,,,orange,circle
0.0,4.0,0.0,0.0,2.0,2.0,280.2660390002529,4.0,1.0,phase_1,,,,,,,,,,,,,orange,circle
217.0,3.0,2.0,0.0,4.0,4.0,311.1036909999711,4.0,1.0,phase_1,,,,,,,,,,,,,blue,triangle
424.0,4.0,4.0,0.0,3.0,3.0,306.968832000166,4.0,1.0,phase_1,,,,,,,,,,,,,orange,circle
0.0,5.0,0.0,1.0,3.0,3.0,297.8016050001315,4.0,1.0,phase_1,,,,,,,,,,,,,magenta,cross
196.0,7.0,2.0,1.0,4.0,4.0,351.4052069999707,4.0,1.0,phase_1,,,,,,,,,,,,,gray,diamond
396.0,4.0,4.0,0.0,3.0,3.0,418.2015060000594,4.0,1.0,phase_1,,,,,,,,,,,,,orange,circle
88.0,2.0,1.0,0.0,4.0,4.0,344.7909680003249,4.0,1.0,phase_1,,,,,,,,,,,,,yellow,I
121.0,2.0,1.0,0.0,2.0,2.0,299.7711250000066,4.0,1.0,phase_1,,,,,,,,,,,,,yellow,I
0.0,8.0,0.0,1.0,1.0,1.0,294.9151739999252,4.0,1.0,phase_1,,,,,,,,,,,,,white,flipped triangle
110.0,6.0,1.0,1.0,2.0,2.0,310.090219000358,4.0,1.0,phase_1,,,,,,,,,,,,,green,square
112.0,6.0,1.0,1.0,2.0,2.0,286.3587460001326,4.0,1.0,phase_1,,,,,,,,,,,,,green,square
0.0,3.0,2.0,0.0,5.0,5.0,280.5518690001918,1.0,1.0,phase_2,go,250.0,250.0,1.0,,,,,,,,,blue,triangle
0.0,5.0,0.5,1.0,5.0,5.0,461.8322920000537,1.0,1.0,phase_2,stop,250.0,250.0,3.0,,,,,,,,,magenta,cross
0.0,3.0,2.0,0.0,5.0,5.0,367.7368469998328,1.0,1.0,phase_2,go,200.0,250.0,1.0,,,,,,,,,blue,triangle
0.0,7.0,2.0,1.0,6.0,6.0,373.6216370002694,1.0,1.0,phase_2,stop,200.0,250.0,3.0,,,,,,,,,gray,diamond
0.0,8.0,4.0,1.0,5.0,0.0,0.0,1.0,1.0,phase_2,stop,200.0,200.0,4.0,,,,,,,,,white,flipped triangle
0.0,2.0,1.0,0.0,6.0,6.0,544.8597800000243,1.0,1.0,phase_2,go,250.0,200.0,1.0,,,,,,,,,yellow,I
0.0,7.0,2.0,1.0,5.0,5.0,649.1839210002581,1.0,1.0,phase_2,go,250.0,200.0,1.0,,,,,,,,,gray,diamond
0.0,5.0,0.5,1.0,5.0,0.0,0.0,1.0,1.0,phase_2,stop,250.0,200.0,4.0,,,,,,,,,magenta,cross
0.0,4.0,4.0,0.0,5.0,5.0,709.1140550001,1.0,1.0,phase_2,go,300.0,200.0,1.0,,,,,,,,,orange,circle
0.0,2.0,1.0,0.0,6.0,6.0,638.3700790001967,1.0,1.0,phase_2,go,300.0,200.0,1.0,,,,,,,,,yellow,I
0.0,7.0,2.0,1.0,6.0,0.0,0.0,1.0,1.0,phase_2,stop,300.0,200.0,4.0,,,,,,,,,gray,diamond
0.0,8.0,4.0,1.0,5.0,5.0,509.39120900011403,1.0,1.0,phase_2,go,300.0,250.0,1.0,,,,,,,,,white,flipped triangle
0.0,6.0,1.0,1.0,6.0,0.0,0.0,1.0,1.0,phase_2,stop,300.0,250.0,4.0,,,,,,,,,green,square
0.0,8.0,4.0,1.0,6.0,6.0,417.3471379999682,1.0,1.0,phase_2,stop,300.0,300.0,3.0,,,,,,,,,white,flipped triangle
0.0,1.0,0.5,0.0,6.0,6.0,567.9250369998954,1.0,1.0,phase_2,go,300.0,250.0,1.0,,,,,,,,,cyan,hexagon
0.0,8.0,4.0,1.0,6.0,6.0,761.5218789997016,1.0,1.0,phase_2,go,300.0,250.0,1.0,,,,,,,,,white,flipped triangle
0.0,6.0,1.0,1.0,5.0,0.0,0.0,1.0,1.0,phase_2,stop,300.0,250.0,4.0,,,,,,,,,green,square
0.0,2.0,1.0,0.0,5.0,5.0,676.0853490000045,1.0,1.0,phase_2,go,350.0,250.0,1.0,,,,,,,,,yellow,I
0.0,8.0,4.0,1.0,6.0,0.0,0.0,1.0,1.0,phase_2,stop,350.0,250.0,4.0,,,,,,,,,white,flipped triangle
0.0,4.0,4.0,0.0,6.0,6.0,608.5857150001175,1.0,1.0,phase_2,go,350.0,300.0,1.0,,,,,,,,,orange,circle
0.0,1.0,0.5,0.0,5.0,5.0,523.1349470000168,1.0,1.0,phase_2,go,350.0,300.0,1.0,,,,,,,,,cyan,hexagon
0.0,4.0,4.0,0.0,5.0,5.0,631.4376240002275,1.0,1.0,phase_2,go,350.0,300.0,1.0,,,,,,,,,orange,circle
0.0,1.0,0.5,0.0,6.0,6.0,626.6470800001116,1.0,1.0,phase_2,go,350.0,300.0,1.0,,,,,,,,,cyan,hexagon
0.0,1.0,0.5,0.0,5.0,5.0,553.7937910003166,1.0,1.0,phase_2,go,350.0,300.0,1.0,,,,,,,,,cyan,hexagon
0.0,5.0,0.5,1.0,5.0,5.0,626.1351680000189,1.0,1.0,phase_2,go,350.0,300.0,1.0,,,,,,,,,magenta,cross
0.0,2.0,1.0,0.0,6.0,6.0,593.2889720002095,1.0,1.0,phase_2,go,350.0,300.0,1.0,,,,,,,,,yellow,I
0.0,7.0,2.0,1.0,5.0,5.0,512.9269879998901,1.0,1.0,phase_2,go,350.0,300.0,1.0,,,,,,,,,gray,diamond
0.0,8.0,4.0,1.0,6.0,0.0,0.0,1.0,1.0,phase_2,stop,350.0,300.0,4.0,,,,,,,,,white,flipped triangle
0.0,4.0,4.0,0.0,6.0,6.0,479.2620339999303,1.0,1.0,phase_2,go,350.0,350.0,1.0,,,,,,,,,orange,circle
0.0,6.0,1.0,1.0,6.0,0.0,0.0,1.0,1.0,phase_2,stop,350.0,350.0,4.0,,,,,,,,,green,square
0.0,7.0,2.0,1.0,6.0,0.0,0.0,1.0,1.0,phase_2,stop,350.0,400.0,4.0,,,,,,,,,gray,diamond
0.0,5.0,0.5,1.0,5.0,5.0,575.6089200003771,1.0,1.0,phase_2,go,350.0,450.0,1.0,,,,,,,,,magenta,cross
0.0,8.0,4.0,1.0,6.0,0.0,0.0,1.0,1.0,phase_2,stop,350.0,450.0,4.0,,,,,,,,,white,flipped triangle
0.0,1.0,0.5,0.0,6.0,6.0,733.700891999888,1.0,1.0,phase_2,go,350.0,500.0,1.0,,,,,,,,,cyan,hexagon
0.0,6.0,1.0,1.0,5.0,5.0,559.1657820000364,1.0,1.0,phase_2,stop,350.0,500.0,3.0,,,,,,,,,green,square
0.0,7.0,2.0,1.0,5.0,0.0,0.0,1.0,1.0,phase_2,stop,300.0,500.0,4.0,,,,,,,,,gray,diamond
0.0,6.0,1.0,1.0,6.0,6.0,474.907198999972,2.0,1.0,phase_2,stop,350.0,500.0,3.0,,,,,,,,,green,square
0.0,2.0,1.0,0.0,6.0,6.0,568.4873639997932,2.0,1.0,phase_2,go,350.0,450.0,1.0,,,,,,,,,yellow,I
0.0,5.0,0.5,1.0,6.0,6.0,646.9056249998175,2.0,1.0,phase_2,stop,350.0,450.0,3.0,,,,,,,,,magenta,cross
0.0,5.0,0.5,1.0,5.0,5.0,589.4183450000128,2.0,1.0,phase_2,go,350.0,400.0,1.0,,,,,,,,,magenta,cross
0.0,1.0,0.5,0.0,6.0,6.0,572.2244339999634,2.0,1.0,phase_2,go,350.0,400.0,1.0,,,,,,,,,cyan,hexagon
0.0,7.0,2.0,1.0,5.0,5.0,475.3637959997832,2.0,1.0,phase_2,stop,350.0,400.0,3.0,,,,,,,,,gray,diamond
0.0,1.0,0.5,0.0,5.0,5.0,683.8864349997493,2.0,1.0,phase_2,go,300.0,400.0,1.0,,,,,,,,,cyan,hexagon
0.0,6.0,1.0,1.0,6.0,0.0,0.0,2.0,1.0,phase_2,stop,300.0,400.0,4.0,,,,,,,,,green,square
0.0,2.0,1.0,0.0,5.0,5.0,614.6899139998823,2.0,1.0,phase_2,go,300.0,450.0,1.0,,,,,,,,,yellow,I
0.0,5.0,0.5,1.0,5.0,0.0,0.0,2.0,1.0,phase_2,stop,300.0,450.0,4.0,,,,,,,,,magenta,cross
0.0,5.0,0.5,1.0,6.0,0.0,0.0,2.0,1.0,phase_2,stop,350.0,450.0,4.0,,,,,,,,,magenta,cross
0.0,5.0,0.5,1.0,5.0,5.0,483.0281120002837,2.0,1.0,phase_2,go,350.0,500.0,1.0,,,,,,,,,magenta,cross
0.0,6.0,1.0,1.0,5.0,0.0,0.0,2.0,1.0,phase_2,stop,350.0,500.0,4.0,,,,,,,,,green,square
0.0,2.0,1.0,0.0,6.0,6.0,633.462215000236,2.0,1.0,phase_2,go,400.0,500.0,1.0,,,,,,,,,yellow,I
0.0,3.0,2.0,0.0,5.0,5.0,774.0919739999299,2.0,1.0,phase_2,go,400.0,500.0,1.0,,,,,,,,,blue,triangle
0.0,6.0,1.0,1.0,6.0,6.0,629.0331960003641,2.0,1.0,phase_2,stop,400.0,500.0,3.0,,,,,,,,,green,square
0.0,6.0,1.0,1.0,5.0,0.0,0.0,2.0,1.0,phase_2,stop,400.0,450.0,4.0,,,,,,,,,green,square
0.0,6.0,1.0,1.0,6.0,0.0,0.0,2.0,1.0,phase_2,stop,450.0,450.0,4.0,,,,,,,,,green,square
0.0,4.0,4.0,0.0,6.0,6.0,581.3070589997551,2.0,1.0,phase_2,go,450.0,500.0,1.0,,,,,,,,,orange,circle
0.0,8.0,4.0,1.0,6.0,6.0,616.5984090002894,2.0,1.0,phase_2,stop,450.0,500.0,3.0,,,,,,,,,white,flipped triangle
0.0,8.0,4.0,1.0,6.0,6.0,273.9387840001654,2.0,1.0,phase_2,go,450.0,450.0,1.0,,,,,,,,,white,flipped triangle
0.0,1.0,0.5,0.0,5.0,5.0,252.7435910001259,2.0,1.0,phase_2,go,450.0,450.0,1.0,,,,,,,,,cyan,hexagon
0.0,7.0,2.0,1.0,6.0,6.0,241.0612499998023,2.0,1.0,phase_2,stop,450.0,450.0,3.0,,,,,,,,,gray,diamond
0.0,6.0,1.0,1.0,5.0,0.0,0.0,2.0,1.0,phase_2,stop,450.0,400.0,4.0,,,,,,,,,green,square
0.0,5.0,0.5,1.0,6.0,0.0,0.0,2.0,1.0,phase_2,stop,500.0,400.0,4.0,,,,,,,,,magenta,cross
0.0,1.0,0.5,0.0,5.0,5.0,266.7989080000552,2.0,1.0,phase_2,go,500.0,450.0,1.0,,,,,,,,,cyan,hexagon
0.0,4.0,4.0,0.0,5.0,5.0,692.869537000206,2.0,1.0,phase_2,go,500.0,450.0,1.0,,,,,,,,,orange,circle
0.0,7.0,2.0,1.0,6.0,0.0,0.0,2.0,1.0,phase_2,stop,500.0,450.0,4.0,,,,,,,,,gray,diamond
0.0,7.0,2.0,1.0,6.0,6.0,281.6300849999607,2.0,1.0,phase_2,stop,500.0,500.0,3.0,,,,,,,,,gray,diamond
0.0,4.0,4.0,0.0,5.0,5.0,711.9102960000419,2.0,1.0,phase_2,go,500.0,450.0,1.0,,,,,,,,,orange,circle
0.0,7.0,2.0,1.0,6.0,6.0,789.9329609999768,2.0,1.0,phase_2,go,500.0,450.0,1.0,,,,,,,,,gray,diamond
0.0,2.0,1.0,0.0,6.0,6.0,796.3275249999242,2.0,1.0,phase_2,go,500.0,450.0,1.0,,,,,,,,,yellow,I
0.0,6.0,1.0,1.0,5.0,5.0,608.0167380000603,2.0,1.0,phase_2,go,500.0,450.0,1.0,,,,,,,,,green,square
0.0,3.0,2.0,0.0,6.0,6.0,738.4368349999022,2.0,1.0,phase_2,go,500.0,450.0,1.0,,,,,,,,,blue,triangle
0.0,3.0,2.0,0.0,6.0,6.0,709.1037990003315,2.0,1.0,phase_2,go,500.0,450.0,1.0,,,,,,,,,blue,triangle
0.0,6.0,1.0,1.0,5.0,5.0,541.4271999998164,2.0,1.0,phase_2,stop,500.0,450.0,3.0,,,,,,,,,green,square
0.0,3.0,2.0,0.0,5.0,5.0,490.7896079998863,3.0,1.0,phase_2,go,450.0,450.0,1.0,,,,,,,,,blue,triangle
0.0,3.0,2.0,0.0,6.0,6.0,537.0790539996051,3.0,1.0,phase_2,go,450.0,450.0,1.0,,,,,,,,,blue,triangle
0.0,7.0,2.0,1.0,6.0,6.0,620.9517560000677,3.0,1.0,phase_2,stop,450.0,450.0,3.0,,,,,,,,,gray,diamond
0.0,1.0,0.5,0.0,6.0,6.0,698.4183429999575,3.0,1.0,phase_2,go,450.0,400.0,1.0,,,,,,,,,cyan,hexagon
0.0,1.0,0.5,0.0,5.0,5.0,686.6933829996924,3.0,1.0,phase_2,go,450.0,400.0,1.0,,,,,,,,,cyan,hexagon
0.0,7.0,2.0,1.0,6.0,0.0,0.0,3.0,1.0,phase_2,stop,450.0,400.0,4.0,,,,,,,,,gray,diamond
0.0,8.0,4.0,1.0,5.0,5.0,646.3507749999735,3.0,1.0,phase_2,go,450.0,450.0,1.0,,,,,,,,,white,flipped triangle
0.0,1.0,0.5,0.0,5.0,5.0,805.7368910003788,3.0,1.0,phase_2,go,450.0,450.0,1.0,,,,,,,,,cyan,hexagon
0.0,7.0,2.0,1.0,6.0,0.0,0.0,3.0,1.0,phase_2,stop,450.0,450.0,4.0,,,,,,,,,gray,diamond
0.0,4.0,4.0,0.0,5.0,5.0,665.3852370000095,3.0,1.0,phase_2,go,450.0,500.0,1.0,,,,,,,,,orange,circle
0.0,5.0,0.5,1.0,5.0,0.0,0.0,3.0,1.0,phase_2,stop,450.0,500.0,4.0,,,,,,,,,magenta,cross
0.0,4.0,4.0,0.0,6.0,6.0,872.7147069998864,3.0,1.0,phase_2,go,500.0,500.0,1.0,,,,,,,,,orange,circle
0.0,5.0,0.5,1.0,5.0,0.0,0.0,3.0,1.0,phase_2,stop,500.0,500.0,4.0,,,,,,,,,magenta,cross
0.0,8.0,4.0,1.0,5.0,0.0,0.0,3.0,1.0,phase_2,stop,550.0,500.0,4.0,,,,,,,,,white,flipped triangle
0.0,8.0,4.0,1.0,6.0,0.0,0.0,3.0,1.0,phase_2,stop,600.0,500.0,4.0,,,,,,,,,white,flipped triangle
0.0,1.0,0.5,0.0,6.0,6.0,853.1727249996948,3.0,1.0,phase_2,go,600.0,550.0,1.0,,,,,,,,,cyan,hexagon
0.0,3.0,2.0,0.0,6.0,6.0,631.944158999886,3.0,1.0,phase_2,go,600.0,550.0,1.0,,,,,,,,,blue,triangle
0.0,3.0,2.0,0.0,6.0,6.0,701.8498829997952,3.0,1.0,phase_2,go,600.0,550.0,1.0,,,,,,,,,blue,triangle
0.0,2.0,1.0,0.0,5.0,5.0,684.7923089999313,3.0,1.0,phase_2,go,600.0,550.0,1.0,,,,,,,,,yellow,I
0.0,1.0,0.5,0.0,6.0,6.0,742.4124280000797,3.0,1.0,phase_2,go,600.0,550.0,1.0,,,,,,,,,cyan,hexagon
0.0,3.0,2.0,0.0,6.0,6.0,477.4680720001925,3.0,1.0,phase_2,go,600.0,550.0,1.0,,,,,,,,,blue,triangle
0.0,1.0,0.5,0.0,6.0,6.0,849.0924409998115,3.0,1.0,phase_2,go,600.0,550.0,1.0,,,,,,,,,cyan,hexagon
0.0,8.0,4.0,1.0,5.0,0.0,0.0,3.0,1.0,phase_2,stop,600.0,550.0,4.0,,,,,,,,,white,flipped triangle
0.0,3.0,2.0,0.0,5.0,5.0,553.2224930002485,3.0,1.0,phase_2,go,650.0,550.0,1.0,,,,,,,,,blue,triangle
0.0,2.0,1.0,0.0,6.0,6.0,844.7978079998393,3.0,1.0,phase_2,go,650.0,550.0,1.0,,,,,,,,,yellow,I
0.0,1.0,0.5,0.0,6.0,6.0,871.0217719999491,3.0,1.0,phase_2,go,650.0,550.0,1.0,,,,,,,,,cyan,hexagon
0.0,7.0,2.0,1.0,5.0,5.0,854.1026709999642,3.0,1.0,phase_2,go,650.0,550.0,1.0,,,,,,,,,gray,diamond
0.0,2.0,1.0,0.0,6.0,6.0,865.2999979999549,3.0,1.0,phase_2,go,650.0,550.0,1.0,,,,,,,,,yellow,I
0.0,7.0,2.0,1.0,6.0,6.0,912.5188179996258,3.0,1.0,phase_2,go,650.0,550.0,1.0,,,,,,,,,gray,diamond
0.0,7.0,2.0,1.0,5.0,5.0,764.6217020001131,3.0,1.0,phase_2,stop,650.0,550.0,3.0,,,,,,,,,gray,diamond
0.0,2.0,1.0,0.0,5.0,5.0,654.6353090002413,3.0,1.0,phase_2,go,600.0,550.0,1.0,,,,,,,,,yellow,I
0.0,6.0,1.0,1.0,5.0,5.0,871.4312930001142,3.0,1.0,phase_2,go,600.0,550.0,1.0,,,,,,,,,green,square
0.0,1.0,0.5,0.0,5.0,5.0,1072.233593999954,3.0,1.0,phase_2,go,600.0,550.0,1.0,,,,,,,,,cyan,hexagon
0.0,8.0,4.0,1.0,6.0,0.0,0.0,3.0,1.0,phase_2,stop,600.0,550.0,4.0,,,,,,,,,white,flipped triangle
0.0,1.0,0.5,0.0,6.0,6.0,784.0993329996309,3.0,1.0,phase_2,go,600.0,600.0,1.0,,,,,,,,,cyan,hexagon
0.0,7.0,2.0,1.0,6.0,0.0,0.0,3.0,1.0,phase_2,stop,600.0,600.0,4.0,,,,,,,,,gray,diamond
0.0,8.0,4.0,1.0,5.0,5.0,512.5071719999141,4.0,1.0,phase_2,go,600.0,650.0,1.0,,,,,,,,,white,flipped triangle
0.0,6.0,1.0,1.0,6.0,6.0,351.5837120003198,4.0,1.0,phase_2,go,600.0,650.0,1.0,,,,,,,,,green,square
0.0,1.0,0.5,0.0,6.0,6.0,472.517309000068,4.0,1.0,phase_2,go,600.0,650.0,1.0,,,,,,,,,cyan,hexagon
0.0,8.0,4.0,1.0,5.0,5.0,594.5803790000355,4.0,1.0,phase_2,stop,600.0,650.0,3.0,,,,,,,,,white,flipped triangle
0.0,7.0,2.0,1.0,6.0,6.0,502.98116900012246,4.0,1.0,phase_2,stop,550.0,650.0,3.0,,,,,,,,,gray,diamond
0.0,2.0,1.0,0.0,5.0,5.0,586.2099370001488,4.0,1.0,phase_2,go,550.0,600.0,1.0,,,,,,,,,yellow,I
0.0,5.0,0.5,1.0,6.0,6.0,379.0314339998986,4.0,1.0,phase_2,go,550.0,600.0,1.0,,,,,,,,,magenta,cross
0.0,3.0,2.0,0.0,6.0,6.0,363.3114980002574,4.0,1.0,phase_2,go,550.0,600.0,1.0,,,,,,,,,blue,triangle
0.0,4.0,4.0,0.0,5.0,5.0,523.6558409997087,4.0,1.0,phase_2,go,550.0,600.0,1.0,,,,,,,,,orange,circle
0.0,4.0,4.0,0.0,5.0,5.0,443.9147109997066,4.0,1.0,phase_2,go,550.0,600.0,1.0,,,,,,,,,orange,circle
0.0,3.0,2.0,0.0,5.0,5.0,414.0726880000329,4.0,1.0,phase_2,go,550.0,600.0,1.0,,,,,,,,,blue,triangle
0.0,3.0,2.0,0.0,6.0,6.0,470.0119770000128,4.0,1.0,phase_2,go,550.0,600.0,1.0,,,,,,,,,blue,triangle
0.0,8.0,4.0,1.0,6.0,6.0,462.5680940002894,4.0,1.0,phase_2,stop,550.0,600.0,3.0,,,,,,,,,white,flipped triangle
0.0,4.0,4.0,0.0,5.0,5.0,570.8904279999842,4.0,1.0,phase_2,go,550.0,550.0,1.0,,,,,,,,,orange,circle
0.0,1.0,0.5,0.0,5.0,5.0,520.0269279998793,4.0,1.0,phase_2,go,550.0,550.0,1.0,,,,,,,,,cyan,hexagon
0.0,8.0,4.0,1.0,5.0,5.0,650.9073839997654,4.0,1.0,phase_2,go,550.0,550.0,1.0,,,,,,,,,white,flipped triangle
0.0,8.0,4.0,1.0,5.0,5.0,597.8749569999309,4.0,1.0,phase_2,stop,550.0,550.0,3.0,,,,,,,,,white,flipped triangle
0.0,6.0,1.0,1.0,5.0,5.0,605.4933469999924,4.0,1.0,phase_2,go,500.0,550.0,1.0,,,,,,,,,green,square
0.0,8.0,4.0,1.0,5.0,0.0,0.0,4.0,1.0,phase_2,stop,500.0,550.0,4.0,,,,,,,,,white,flipped triangle
0.0,8.0,4.0,1.0,6.0,6.0,583.9568840001448,4.0,1.0,phase_2,stop,550.0,550.0,3.0,,,,,,,,,white,flipped triangle
0.0,2.0,1.0,0.0,6.0,6.0,371.7225149998739,4.0,1.0,phase_2,go,550.0,500.0,1.0,,,,,,,,,yellow,I
0.0,4.0,4.0,0.0,6.0,6.0,648.8223870001093,4.0,1.0,phase_2,go,550.0,500.0,1.0,,,,,,,,,orange,circle
0.0,2.0,1.0,0.0,5.0,5.0,449.9826619999112,4.0,1.0,phase_2,go,550.0,500.0,1.0,,,,,,,,,yellow,I
0.0,4.0,4.0,0.0,5.0,5.0,684.6321640000497,4.0,1.0,phase_2,go,550.0,500.0,1.0,,,,,,,,,orange,circle
0.0,7.0,2.0,1.0,5.0,5.0,326.7820969999775,4.0,1.0,phase_2,stop,550.0,500.0,3.0,,,,,,,,,gray,diamond
0.0,7.0,2.0,1.0,5.0,5.0,438.5834290001185,4.0,1.0,phase_2,stop,500.0,500.0,3.0,,,,,,,,,gray,diamond
0.0,5.0,0.5,1.0,6.0,6.0,582.0110859999659,4.0,1.0,phase_2,stop,450.0,500.0,3.0,,,,,,,,,magenta,cross
0.0,3.0,2.0,0.0,5.0,5.0,232.2473850003916,4.0,1.0,phase_2,go,450.0,450.0,1.0,,,,,,,,,blue,triangle
0.0,2.0,1.0,0.0,5.0,5.0,670.639478999874,4.0,1.0,phase_2,go,450.0,450.0,1.0,,,,,,,,,yellow,I
0.0,6.0,1.0,1.0,5.0,5.0,520.0011300003098,4.0,1.0,phase_2,go,450.0,450.0,1.0,,,,,,,,,green,square
0.0,1.0,0.5,0.0,6.0,6.0,626.4629419997618,4.0,1.0,phase_2,go,450.0,450.0,1.0,,,,,,,,,cyan,hexagon
0.0,5.0,0.5,1.0,6.0,0.0,0.0,4.0,1.0,phase_2,stop,450.0,450.0,4.0,,,,,,,,,magenta,cross
0.0,8.0,4.0,1.0,5.0,5.0,555.9678469999199,4.0,1.0,phase_2,stop,450.0,500.0,3.0,,,,,,,,,white,flipped triangle
0.0,4.0,4.0,0.0,6.0,6.0,645.8815890000551,4.0,1.0,phase_2,go,400.0,500.0,1.0,,,,,,,,,orange,circle
0.0,6.0,1.0,1.0,6.0,6.0,558.7729869998839,4.0,1.0,phase_2,go,400.0,500.0,1.0,,,,,,,,,green,square
0.0,2.0,1.0,0.0,5.0,5.0,576.1344960001225,4.0,1.0,phase_2,go,400.0,500.0,1.0,,,,,,,,,yellow,I
0.0,1.0,0.5,0.0,5.0,5.0,383.5463499999605,5.0,1.0,phase_2,go,400.0,500.0,1.0,,,,,,,,,cyan,hexagon
0.0,4.0,4.0,0.0,6.0,6.0,367.9244099998868,5.0,1.0,phase_2,go,400.0,500.0,1.0,,,,,,,,,orange,circle
0.0,2.0,1.0,0.0,6.0,6.0,476.758186999632,5.0,1.0,phase_2,go,400.0,500.0,1.0,,,,,,,,,yellow,I
0.0,8.0,4.0,1.0,5.0,0.0,0.0,5.0,1.0,phase_2,stop,400.0,500.0,4.0,,,,,,,,,white,flipped triangle
0.0,2.0,1.0,0.0,5.0,5.0,461.3660479999453,5.0,1.0,phase_2,go,450.0,500.0,1.0,,,,,,,,,yellow,I
0.0,7.0,2.0,1.0,5.0,0.0,0.0,5.0,1.0,phase_2,stop,450.0,500.0,4.0,,,,,,,,,gray,diamond
0.0,3.0,2.0,0.0,6.0,6.0,365.0733949998539,5.0,1.0,phase_2,go,500.0,500.0,1.0,,,,,,,,,blue,triangle
0.0,3.0,2.0,0.0,5.0,5.0,608.0690740000136,5.0,1.0,phase_2,go,500.0,500.0,1.0,,,,,,,,,blue,triangle
0.0,4.0,4.0,0.0,6.0,6.0,842.3415259999274,5.0,1.0,phase_2,go,500.0,500.0,1.0,,,,,,,,,orange,circle
0.0,6.0,1.0,1.0,6.0,6.0,757.308963000014,5.0,1.0,phase_2,stop,500.0,500.0,3.0,,,,,,,,,green,square
0.0,2.0,1.0,0.0,6.0,6.0,868.4089489997859,5.0,1.0,phase_2,go,500.0,450.0,1.0,,,,,,,,,yellow,I
0.0,8.0,4.0,1.0,6.0,0.0,0.0,5.0,1.0,phase_2,stop,500.0,450.0,4.0,,,,,,,,,white,flipped triangle
0.0,2.0,1.0,0.0,6.0,6.0,767.2283500000958,5.0,1.0,phase_2,go,500.0,500.0,1.0,,,,,,,,,yellow,I
0.0,5.0,0.5,1.0,6.0,0.0,0.0,5.0,1.0,phase_2,stop,500.0,500.0,4.0,,,,,,,,,magenta,cross
0.0,3.0,2.0,0.0,5.0,5.0,727.3134239999308,5.0,1.0,phase_2,go,500.0,550.0,1.0,,,,,,,,,blue,triangle
0.0,6.0,1.0,1.0,6.0,0.0,0.0,5.0,1.0,phase_2,stop,500.0,550.0,4.0,,,,,,,,,green,square
0.0,6.0,1.0,1.0,6.0,6.0,735.8248470000035,5.0,1.0,phase_2,stop,500.0,600.0,3.0,,,,,,,,,green,square
0.0,4.0,4.0,0.0,5.0,5.0,364.1131570002471,5.0,1.0,phase_2,go,500.0,550.0,1.0,,,,,,,,,orange,circle
0.0,4.0,4.0,0.0,5.0,5.0,648.7758570001461,5.0,1.0,phase_2,go,500.0,550.0,1.0,,,,,,,,,orange,circle
0.0,5.0,0.5,1.0,6.0,6.0,914.3144459999348,5.0,1.0,phase_2,go,500.0,550.0,1.0,,,,,,,,,magenta,cross
0.0,8.0,4.0,1.0,5.0,5.0,537.7351940001063,5.0,1.0,phase_2,stop,500.0,550.0,3.0,,,,,,,,,white,flipped triangle
0.0,5.0,0.5,1.0,6.0,6.0,487.5124359996334,5.0,1.0,phase_2,go,450.0,550.0,1.0,,,,,,,,,magenta,cross
0.0,2.0,1.0,0.0,5.0,5.0,646.399386000212,5.0,1.0,phase_2,go,450.0,550.0,1.0,,,,,,,,,yellow,I
0.0,6.0,1.0,1.0,5.0,5.0,425.4463920001399,5.0,1.0,phase_2,stop,450.0,550.0,3.0,,,,,,,,,green,square
0.0,7.0,2.0,1.0,5.0,5.0,551.1459519998425,5.0,1.0,phase_2,stop,400.0,550.0,3.0,,,,,,,,,gray,diamond
0.0,5.0,0.5,1.0,6.0,6.0,455.3572830000121,5.0,1.0,phase_2,stop,350.0,550.0,3.0,,,,,,,,,magenta,cross
0.0,1.0,0.5,0.0,6.0,6.0,615.2451610000753,5.0,1.0,phase_2,go,350.0,500.0,1.0,,,,,,,,,cyan,hexagon
0.0,5.0,0.5,1.0,6.0,6.0,549.4453179999255,5.0,1.0,phase_2,go,350.0,500.0,1.0,,,,,,,,,magenta,cross
0.0,3.0,2.0,0.0,6.0,6.0,760.6073460001426,5.0,1.0,phase_2,go,350.0,500.0,1.0,,,,,,,,,blue,triangle
0.0,1.0,0.5,0.0,5.0,5.0,773.2751869998538,5.0,1.0,phase_2,go,350.0,500.0,1.0,,,,,,,,,cyan,hexagon
0.0,5.0,0.5,1.0,6.0,0.0,0.0,5.0,1.0,phase_2,stop,350.0,500.0,4.0,,,,,,,,,magenta,cross
0.0,2.0,1.0,0.0,5.0,5.0,910.2768610000568,5.0,1.0,phase_2,go,350.0,550.0,1.0,,,,,,,,,yellow,I
0.0,5.0,0.5,1.0,6.0,6.0,778.9815950000047,5.0,1.0,phase_2,stop,350.0,550.0,3.0,,,,,,,,,magenta,cross
0.0,6.0,1.0,1.0,5.0,5.0,478.2703650002986,5.0,1.0,phase_2,stop,350.0,500.0,3.0,,,,,,,,,green,square
0.0,1.0,0.5,0.0,6.0,6.0,626.7117249999501,5.0,1.0,phase_2,go,300.0,500.0,1.0,,,,,,,,,cyan,hexagon
0.0,4.0,4.0,0.0,6.0,6.0,607.1113930001957,5.0,1.0,phase_2,go,300.0,500.0,1.0,,,,,,,,,orange,circle
0.0,6.0,1.0,1.0,6.0,6.0,479.9663039993902,6.0,1.0,phase_2,stop,300.0,500.0,3.0,,,,,,,,,green,square
0.0,7.0,2.0,1.0,5.0,5.0,492.2161499998765,6.0,1.0,phase_2,go,300.0,450.0,1.0,,,,,,,,,gray,diamond
0.0,7.0,2.0,1.0,5.0,0.0,0.0,6.0,1.0,phase_2,stop,300.0,450.0,4.0,,,,,,,,,gray,diamond
0.0,4.0,4.0,0.0,6.0,6.0,600.4163309999058,6.0,1.0,phase_2,go,350.0,450.0,1.0,,,,,,,,,orange,circle
0.0,5.0,0.5,1.0,5.0,0.0,0.0,6.0,1.0,phase_2,stop,350.0,450.0,4.0,,,,,,,,,magenta,cross
0.0,6.0,1.0,1.0,5.0,0.0,0.0,6.0,1.0,phase_2,stop,400.0,450.0,4.0,,,,,,,,,green,square
0.0,6.0,1.0,1.0,5.0,5.0,648.5629300004803,6.0,1.0,phase_2,stop,450.0,450.0,3.0,,,,,,,,,green,square
0.0,3.0,2.0,0.0,5.0,5.0,659.8652150005364,6.0,1.0,phase_2,go,400.0,450.0,1.0,,,,,,,,,blue,triangle
0.0,3.0,2.0,0.0,6.0,6.0,728.480099999615,6.0,1.0,phase_2,go,400.0,450.0,1.0,,,,,,,,,blue,triangle
0.0,3.0,2.0,0.0,5.0,5.0,883.3369379999567,6.0,1.0,phase_2,go,400.0,450.0,1.0,,,,,,,,,blue,triangle
0.0,7.0,2.0,1.0,5.0,5.0,801.1888129994986,6.0,1.0,phase_2,go,400.0,450.0,1.0,,,,,,,,,gray,diamond
0.0,8.0,4.0,1.0,5.0,5.0,750.9030270002768,6.0,1.0,phase_2,go,400.0,450.0,1.0,,,,,,,,,white,flipped triangle
0.0,1.0,0.5,0.0,6.0,6.0,727.6465590002772,6.0,1.0,phase_2,go,400.0,450.0,1.0,,,,,,,,,cyan,hexagon
0.0,6.0,1.0,1.0,6.0,6.0,624.4538470000407,6.0,1.0,phase_2,stop,400.0,450.0,3.0,,,,,,,,,green,square
0.0,2.0,1.0,0.0,6.0,6.0,587.2927910004364,6.0,1.0,phase_2,go,400.0,400.0,1.0,,,,,,,,,yellow,I
0.0,1.0,0.5,0.0,6.0,6.0,693.9970699995683,6.0,1.0,phase_2,go,400.0,400.0,1.0,,,,,,,,,cyan,hexagon
0.0,8.0,4.0,1.0,5.0,5.0,571.699351999996,6.0,1.0,phase_2,stop,400.0,400.0,3.0,,,,,,,,,white,flipped triangle
0.0,4.0,4.0,0.0,5.0,5.0,845.6253590002234,6.0,1.0,phase_2,go,350.0,400.0,1.0,,,,,,,,,orange,circle
0.0,8.0,4.0,1.0,6.0,0.0,0.0,6.0,1.0,phase_2,stop,350.0,400.0,4.0,,,,,,,,,white,flipped triangle
0.0,7.0,2.0,1.0,6.0,6.0,590.8851220001452,6.0,1.0,phase_2,stop,350.0,450.0,3.0,,,,,,,,,gray,diamond
0.0,1.0,0.5,0.0,5.0,5.0,634.669574000327,6.0,1.0,phase_2,go,350.0,400.0,1.0,,,,,,,,,cyan,hexagon
0.0,1.0,0.5,0.0,6.0,6.0,700.3362259993082,6.0,1.0,phase_2,go,350.0,400.0,1.0,,,,,,,,,cyan,hexagon
0.0,3.0,2.0,0.0,5.0,5.0,531.9040099993799,6.0,1.0,phase_2,go,350.0,400.0,1.0,,,,,,,,,blue,triangle
0.0,5.0,0.5,1.0,6.0,6.0,598.7657969999418,6.0,1.0,phase_2,stop,350.0,400.0,3.0,,,,,,,,,magenta,cross
0.0,1.0,0.5,0.0,5.0,5.0,480.7196949996069,6.0,1.0,phase_2,go,350.0,350.0,1.0,,,,,,,,,cyan,hexagon
0.0,6.0,1.0,1.0,5.0,0.0,0.0,6.0,1.0,phase_2,stop,350.0,350.0,4.0,,,,,,,,,green,square
0.0,6.0,1.0,1.0,5.0,5.0,600.6907430000865,6.0,1.0,phase_2,go,400.0,350.0,1.0,,,,,,,,,green,square
0.0,7.0,2.0,1.0,6.0,0.0,0.0,6.0,1.0,phase_2,stop,400.0,350.0,4.0,,,,,,,,,gray,diamond
0.0,4.0,4.0,0.0,6.0,6.0,738.674362999518,6.0,1.0,phase_2,go,400.0,400.0,1.0,,,,,,,,,orange,circle
0.0,1.0,0.5,0.0,5.0,5.0,653.2074050001029,6.0,1.0,phase_2,go,400.0,400.0,1.0,,,,,,,,,cyan,hexagon
0.0,7.0,2.0,1.0,5.0,0.0,0.0,6.0,1.0,phase_2,stop,400.0,400.0,4.0,,,,,,,,,gray,diamond
0.0,7.0,2.0,1.0,6.0,0.0,0.0,6.0,1.0,phase_2,stop,450.0,400.0,4.0,,,,,,,,,gray,diamond
0.0,5.0,0.5,1.0,5.0,0.0,0.0,6.0,1.0,phase_2,stop,450.0,450.0,4.0,,,,,,,,,magenta,cross
0.0,1.0,0.5,0.0,5.0,5.0,618.7748820002525,6.0,1.0,phase_2,go,500.0,450.0,1.0,,,,,,,,,cyan,hexagon
0.0,2.0,1.0,0.0,5.0,5.0,684.0606599998864,6.0,1.0,phase_2,go,500.0,450.0,1.0,,,,,,,,,yellow,I
0.0,3.0,2.0,0.0,5.0,5.0,654.7530220004774,6.0,1.0,phase_2,go,500.0,450.0,1.0,,,,,,,,,blue,triangle
0.0,5.0,0.5,1.0,5.0,5.0,555.7480289999148,7.0,1.0,phase_2,stop,500.0,450.0,3.0,,,,,,,,,magenta,cross
0.0,5.0,0.5,1.0,6.0,6.0,490.5035370002224,7.0,1.0,phase_2,stop,450.0,450.0,3.0,,,,,,,,,magenta,cross
0.0,2.0,1.0,0.0,5.0,5.0,661.885899000481,7.0,1.0,phase_2,go,450.0,400.0,1.0,,,,,,,,,yellow,I
0.0,8.0,4.0,1.0,5.0,0.0,0.0,7.0,1.0,phase_2,stop,450.0,400.0,4.0,,,,,,,,,white,flipped triangle
0.0,2.0,1.0,0.0,5.0,5.0,697.9911689995788,7.0,1.0,phase_2,go,500.0,400.0,1.0,,,,,,,,,yellow,I
0.0,7.0,2.0,1.0,6.0,6.0,805.4838329999257,7.0,1.0,phase_2,go,500.0,400.0,1.0,,,,,,,,,gray,diamond
0.0,7.0,2.0,1.0,5.0,5.0,582.9125809996185,7.0,1.0,phase_2,stop,500.0,400.0,3.0,,,,,,,,,gray,diamond
0.0,3.0,2.0,0.0,5.0,5.0,653.324022000561,7.0,1.0,phase_2,go,450.0,400.0,1.0,,,,,,,,,blue,triangle
0.0,1.0,0.5,0.0,6.0,6.0,814.8532909999631,7.0,1.0,phase_2,go,450.0,400.0,1.0,,,,,,,,,cyan,hexagon
0.0,5.0,0.5,1.0,6.0,0.0,0.0,7.0,1.0,phase_2,stop,450.0,400.0,4.0,,,,,,,,,magenta,cross
0.0,1.0,0.5,0.0,5.0,5.0,506.69446400024754,7.0,1.0,phase_2,go,450.0,450.0,1.0,,,,,,,,,cyan,hexagon
0.0,4.0,4.0,0.0,6.0,6.0,678.4779170002366,7.0,1.0,phase_2,go,450.0,450.0,1.0,,,,,,,,,orange,circle
0.0,8.0,4.0,1.0,6.0,6.0,383.5985229998186,7.0,1.0,phase_2,stop,450.0,450.0,3.0,,,,,,,,,white,flipped triangle
0.0,3.0,2.0,0.0,6.0,6.0,1207.448597999246,7.0,1.0,phase_2,go,450.0,400.0,1.0,,,,,,,,,blue,triangle
0.0,4.0,4.0,0.0,6.0,6.0,677.0561909997923,7.0,1.0,phase_2,go,450.0,400.0,1.0,,,,,,,,,orange,circle
0.0,4.0,4.0,0.0,5.0,5.0,378.1018830004541,7.0,1.0,phase_2,go,450.0,400.0,1.0,,,,,,,,,orange,circle
0.0,2.0,1.0,0.0,5.0,5.0,720.3703819996008,7.0,1.0,phase_2,go,450.0,400.0,1.0,,,,,,,,,yellow,I
0.0,5.0,0.5,1.0,5.0,5.0,645.0727609999376,7.0,1.0,phase_2,stop,450.0,400.0,3.0,,,,,,,,,magenta,cross
0.0,6.0,1.0,1.0,6.0,0.0,0.0,7.0,1.0,phase_2,stop,400.0,400.0,4.0,,,,,,,,,green,square
0.0,7.0,2.0,1.0,5.0,5.0,553.7541609992331,7.0,1.0,phase_2,go,400.0,450.0,1.0,,,,,,,,,gray,diamond
0.0,4.0,4.0,0.0,6.0,6.0,609.8001709997334,7.0,1.0,phase_2,go,400.0,450.0,1.0,,,,,,,,,orange,circle
0.0,3.0,2.0,0.0,6.0,6.0,484.4328720000703,7.0,1.0,phase_2,go,400.0,450.0,1.0,,,,,,,,,blue,triangle
0.0,2.0,1.0,0.0,5.0,5.0,613.07867800042,7.0,1.0,phase_2,go,400.0,450.0,1.0,,,,,,,,,yellow,I
0.0,3.0,2.0,0.0,5.0,5.0,465.5224309999539,7.0,1.0,phase_2,go,400.0,450.0,1.0,,,,,,,,,blue,triangle
0.0,6.0,1.0,1.0,5.0,5.0,431.8882719999237,7.0,1.0,phase_2,stop,400.0,450.0,3.0,,,,,,,,,green,square
0.0,3.0,2.0,0.0,5.0,5.0,574.4798120003907,7.0,1.0,phase_2,go,350.0,450.0,1.0,,,,,,,,,blue,triangle
0.0,8.0,4.0,1.0,6.0,6.0,706.1691950002569,7.0,1.0,phase_2,go,350.0,450.0,1.0,,,,,,,,,white,flipped triangle
0.0,3.0,2.0,0.0,6.0,6.0,622.2663750004358,7.0,1.0,phase_2,go,350.0,450.0,1.0,,,,,,,,,blue,triangle
0.0,6.0,1.0,1.0,6.0,6.0,577.0257949998268,7.0,1.0,phase_2,stop,350.0,450.0,3.0,,,,,,,,,green,square
0.0,4.0,4.0,0.0,5.0,5.0,586.8883800003459,7.0,1.0,phase_2,go,350.0,400.0,1.0,,,,,,,,,orange,circle
0.0,2.0,1.0,0.0,6.0,6.0,607.5084849999257,7.0,1.0,phase_2,go,350.0,400.0,1.0,,,,,,,,,yellow,I
0.0,1.0,0.5,0.0,5.0,5.0,725.8118619993184,7.0,1.0,phase_2,go,350.0,400.0,1.0,,,,,,,,,cyan,hexagon
0.0,3.0,2.0,0.0,6.0,6.0,776.734939000562,7.0,1.0,phase_2,go,350.0,400.0,1.0,,,,,,,,,blue,triangle
0.0,4.0,4.0,0.0,6.0,6.0,590.132738999273,7.0,1.0,phase_2,go,350.0,400.0,1.0,,,,,,,,,orange,circle
0.0,6.0,1.0,1.0,6.0,6.0,752.2844679997434,7.0,1.0,phase_2,go,350.0,400.0,1.0,,,,,,,,,green,square
0.0,5.0,0.5,1.0,5.0,5.0,475.7844800005841,7.0,1.0,phase_2,stop,350.0,400.0,3.0,,,,,,,,,magenta,cross
0.0,5.0,0.5,1.0,6.0,6.0,295.8837710002626,8.0,1.0,phase_2,stop,300.0,400.0,3.0,,,,,,,,,magenta,cross
0.0,2.0,1.0,0.0,6.0,6.0,293.4163620002437,8.0,1.0,phase_2,go,300.0,350.0,1.0,,,,,,,,,yellow,I
0.0,6.0,1.0,1.0,6.0,6.0,330.5906300001879,8.0,1.0,phase_2,stop,300.0,350.0,3.0,,,,,,,,,green,square
0.0,7.0,2.0,1.0,6.0,6.0,359.2507949997525,8.0,1.0,phase_2,stop,300.0,300.0,3.0,,,,,,,,,gray,diamond
0.0,1.0,0.5,0.0,5.0,5.0,244.0708160002032,8.0,1.0,phase_2,go,300.0,250.0,1.0,,,,,,,,,cyan,hexagon
0.0,4.0,4.0,0.0,5.0,5.0,489.8098559997379,8.0,1.0,phase_2,go,300.0,250.0,1.0,,,,,,,,,orange,circle
0.0,5.0,0.5,1.0,5.0,5.0,518.2573920001232,8.0,1.0,phase_2,stop,300.0,250.0,3.0,,,,,,,,,magenta,cross
0.0,3.0,2.0,0.0,5.0,5.0,532.403438000074,8.0,1.0,phase_2,go,250.0,250.0,1.0,,,,,,,,,blue,triangle
0.0,6.0,1.0,1.0,6.0,0.0,0.0,8.0,1.0,phase_2,stop,250.0,250.0,4.0,,,,,,,,,green,square
0.0,3.0,2.0,0.0,6.0,6.0,543.777955999758,8.0,1.0,phase_2,go,250.0,300.0,1.0,,,,,,,,,blue,triangle
0.0,2.0,1.0,0.0,6.0,6.0,389.0775920008309,8.0,1.0,phase_2,go,250.0,300.0,1.0,,,,,,,,,yellow,I
0.0,4.0,4.0,0.0,5.0,5.0,528.3357239995894,8.0,1.0,phase_2,go,250.0,300.0,1.0,,,,,,,,,orange,circle
0.0,8.0,4.0,1.0,6.0,0.0,0.0,8.0,1.0,phase_2,stop,250.0,300.0,4.0,,,,,,,,,white,flipped triangle
0.0,7.0,2.0,1.0,5.0,0.0,0.0,8.0,1.0,phase_2,stop,250.0,350.0,4.0,,,,,,,,,gray,diamond
0.0,4.0,4.0,0.0,5.0,5.0,597.2854239998924,8.0,1.0,phase_2,go,300.0,350.0,1.0,,,,,,,,,orange,circle
0.0,4.0,4.0,0.0,6.0,6.0,505.0201419999212,8.0,1.0,phase_2,go,300.0,350.0,1.0,,,,,,,,,orange,circle
0.0,5.0,0.5,1.0,6.0,0.0,0.0,8.0,1.0,phase_2,stop,300.0,350.0,4.0,,,,,,,,,magenta,cross
0.0,5.0,0.5,1.0,5.0,5.0,399.6744229998512,8.0,1.0,phase_2,stop,300.0,400.0,3.0,,,,,,,,,magenta,cross
0.0,3.0,2.0,0.0,6.0,6.0,292.5256340004125,8.0,1.0,phase_2,go,250.0,400.0,1.0,,,,,,,,,blue,triangle
0.0,8.0,4.0,1.0,5.0,5.0,364.3594040004245,8.0,1.0,phase_2,go,250.0,400.0,1.0,,,,,,,,,white,flipped triangle
0.0,7.0,2.0,1.0,5.0,0.0,0.0,8.0,1.0,phase_2,stop,250.0,400.0,4.0,,,,,,,,,gray,diamond
0.0,8.0,4.0,1.0,5.0,5.0,373.2620139999199,8.0,1.0,phase_2,stop,300.0,400.0,3.0,,,,,,,,,white,flipped triangle
0.0,5.0,0.5,1.0,5.0,5.0,366.2948490000417,8.0,1.0,phase_2,stop,250.0,400.0,3.0,,,,,,,,,magenta,cross
0.0,4.0,4.0,0.0,6.0,6.0,392.7739760001714,8.0,1.0,phase_2,go,200.0,400.0,1.0,,,,,,,,,orange,circle
0.0,8.0,4.0,1.0,6.0,6.0,431.1259819996849,8.0,1.0,phase_2,stop,200.0,400.0,3.0,,,,,,,,,white,flipped triangle
0.0,2.0,1.0,0.0,6.0,6.0,459.8416219996579,8.0,1.0,phase_2,go,200.0,350.0,1.0,,,,,,,,,yellow,I
0.0,8.0,4.0,1.0,6.0,0.0,0.0,8.0,1.0,phase_2,stop,200.0,350.0,4.0,,,,,,,,,white,flipped triangle
0.0,4.0,4.0,0.0,5.0,5.0,313.7963729996045,8.0,1.0,phase_2,go,200.0,400.0,1.0,,,,,,,,,orange,circle
0.0,4.0,4.0,0.0,6.0,6.0,622.2985300000801,8.0,1.0,phase_2,go,200.0,400.0,1.0,,,,,,,,,orange,circle
0.0,2.0,1.0,0.0,6.0,6.0,574.8882120005874,8.0,1.0,phase_2,go,200.0,400.0,1.0,,,,,,,,,yellow,I
0.0,2.0,1.0,0.0,5.0,5.0,298.0961610001031,8.0,1.0,phase_2,go,200.0,400.0,1.0,,,,,,,,,yellow,I
0.0,3.0,2.0,0.0,6.0,6.0,476.3723200003369,8.0,1.0,phase_2,go,200.0,400.0,1.0,,,,,,,,,blue,triangle
0.0,3.0,2.0,0.0,5.0,5.0,254.7294220003095,8.0,1.0,phase_2,go,200.0,400.0,1.0,,,,,,,,,blue,triangle
0.0,5.0,0.5,1.0,5.0,5.0,540.1999119994798,8.0,1.0,phase_2,go,200.0,400.0,1.0,,,,,,,,,magenta,cross
0.0,6.0,1.0,1.0,5.0,5.0,472.0891860006304,8.0,1.0,phase_2,go,200.0,400.0,1.0,,,,,,,,,green,square
0.0,2.0,1.0,0.0,5.0,5.0,517.4856049998198,8.0,1.0,phase_2,go,200.0,400.0,1.0,,,,,,,,,yellow,I
0.0,1.0,0.5,0.0,7.0,2.0,2083.332979000261,1.0,1.0,phase_3,,,,,147.0,3.0,49.0,147.0,294.0,196.0,245.0,98.0,cyan,hexagon
0.0,8.0,4.0,1.0,7.0,3.0,1512.467225000364,1.0,1.0,phase_3,,,,,162.0,3.0,216.0,54.0,162.0,270.0,108.0,324.0,white,flipped triangle
0.0,5.0,0.5,1.0,7.0,3.0,1872.9596559996933,1.0,1.0,phase_3,,,,,49.0,1.0,245.0,196.0,49.0,98.0,294.0,147.0,magenta,cross
0.0,8.0,4.0,1.0,7.0,2.0,1365.4804210000293,1.0,1.0,phase_3,,,,,78.0,2.0,234.0,78.0,195.0,156.0,39.0,117.0,white,flipped triangle
0.0,8.0,4.0,1.0,7.0,2.0,1791.382053000234,1.0,1.0,phase_3,,,,,156.0,4.0,39.0,156.0,195.0,234.0,78.0,117.0,white,flipped triangle
0.0,8.0,4.0,1.0,7.0,5.0,1261.3604730004226,1.0,1.0,phase_3,,,,,68.0,2.0,102.0,34.0,136.0,204.0,68.0,170.0,white,flipped triangle
0.0,5.0,0.5,1.0,7.0,2.0,1010.6621650002126,1.0,1.0,phase_3,,,,,78.0,2.0,39.0,78.0,234.0,156.0,195.0,117.0,magenta,cross
0.0,1.0,0.5,0.0,7.0,3.0,1074.5178530005433,1.0,1.0,phase_3,,,,,108.0,2.0,216.0,324.0,108.0,270.0,54.0,162.0,cyan,hexagon
0.0,5.0,0.5,1.0,7.0,4.0,1104.580747,1.0,1.0,phase_3,,,,,102.0,3.0,170.0,204.0,34.0,102.0,68.0,136.0,magenta,cross
0.0,5.0,0.5,1.0,7.0,2.0,1427.5983970001107,1.0,1.0,phase_3,,,,,117.0,3.0,156.0,117.0,195.0,234.0,78.0,39.0,magenta,cross
0.0,6.0,1.0,1.0,7.0,6.0,1402.982657999928,1.0,1.0,phase_3,,,,,220.0,5.0,88.0,44.0,132.0,264.0,176.0,220.0,green,square
0.0,3.0,2.0,0.0,7.0,3.0,1314.813359999789,1.0,1.0,phase_3,,,,,68.0,2.0,136.0,34.0,68.0,170.0,204.0,102.0,blue,triangle
0.0,1.0,0.5,0.0,7.0,2.0,1225.0156339996463,1.0,1.0,phase_3,,,,,162.0,3.0,216.0,162.0,324.0,270.0,108.0,54.0,cyan,hexagon
0.0,7.0,2.0,1.0,7.0,2.0,1970.7088859995563,1.0,1.0,phase_3,,,,,117.0,3.0,78.0,117.0,39.0,195.0,156.0,234.0,gray,diamond
0.0,1.0,0.5,0.0,7.0,4.0,1655.500640000355,1.0,1.0,phase_3,,,,,102.0,3.0,68.0,204.0,170.0,102.0,34.0,136.0,cyan,hexagon
0.0,3.0,2.0,0.0,7.0,1.0,1939.591510000355,1.0,1.0,phase_3,,,,,102.0,3.0,102.0,204.0,68.0,136.0,34.0,170.0,blue,triangle
0.0,3.0,2.0,0.0,7.0,2.0,1041.20604200034,1.0,1.0,phase_3,,,,,117.0,3.0,78.0,117.0,195.0,39.0,156.0,234.0,blue,triangle
0.0,5.0,0.5,1.0,7.0,3.0,3175.8317779995195,1.0,1.0,phase_3,,,,,88.0,2.0,220.0,132.0,88.0,176.0,264.0,44.0,magenta,cross
0.0,4.0,4.0,0.0,7.0,1.0,1303.2298569996783,1.0,1.0,phase_3,,,,,102.0,3.0,102.0,204.0,170.0,68.0,34.0,136.0,orange,circle
0.0,6.0,1.0,1.0,7.0,5.0,1848.7945819997549,1.0,1.0,phase_3,,,,,108.0,2.0,324.0,270.0,162.0,54.0,108.0,216.0,green,square
0.0,7.0,2.0,1.0,7.0,5.0,1808.4072989995548,2.0,1.0,phase_3,,,,,102.0,3.0,136.0,170.0,204.0,34.0,102.0,68.0,gray,diamond
0.0,6.0,1.0,1.0,7.0,3.0,1620.5412799999976,2.0,1.0,phase_3,,,,,117.0,3.0,234.0,78.0,117.0,156.0,195.0,39.0,green,square
0.0,5.0,0.5,1.0,7.0,4.0,2593.9738580000267,2.0,1.0,phase_3,,,,,98.0,2.0,49.0,245.0,294.0,98.0,147.0,196.0,magenta,cross
0.0,7.0,2.0,1.0,7.0,6.0,1906.0541469998495,2.0,1.0,phase_3,,,,,88.0,2.0,264.0,132.0,220.0,176.0,44.0,88.0,gray,diamond
0.0,2.0,1.0,0.0,7.0,6.0,2058.746890000293,2.0,1.0,phase_3,,,,,132.0,3.0,44.0,220.0,176.0,264.0,88.0,132.0,yellow,I
0.0,4.0,4.0,0.0,7.0,1.0,3119.0929680005866,2.0,1.0,phase_3,,,,,98.0,2.0,98.0,294.0,147.0,196.0,245.0,49.0,orange,circle
0.0,4.0,4.0,0.0,7.0,6.0,1522.5149969992344,2.0,1.0,phase_3,,,,,102.0,3.0,204.0,136.0,34.0,68.0,170.0,102.0,orange,circle
0.0,4.0,4.0,0.0,7.0,6.0,2096.700280000732,2.0,1.0,phase_3,,,,,49.0,1.0,196.0,294.0,245.0,98.0,147.0,49.0,orange,circle
0.0,8.0,4.0,1.0,7.0,1.0,1798.5233650006194,2.0,1.0,phase_3,,,,,98.0,2.0,98.0,245.0,196.0,147.0,294.0,49.0,white,flipped triangle
0.0,5.0,0.5,1.0,7.0,5.0,1666.336825000144,2.0,1.0,phase_3,,,,,108.0,2.0,324.0,162.0,216.0,270.0,108.0,54.0,magenta,cross
0.0,4.0,4.0,0.0,7.0,4.0,2488.5397470006865,2.0,1.0,phase_3,,,,,78.0,2.0,195.0,39.0,156.0,78.0,117.0,234.0,orange,circle
0.0,2.0,1.0,0.0,7.0,3.0,1288.1997320000664,2.0,1.0,phase_3,,,,,108.0,2.0,324.0,270.0,108.0,216.0,162.0,54.0,yellow,I
0.0,7.0,2.0,1.0,7.0,3.0,1994.6934179997695,2.0,1.0,phase_3,,,,,98.0,2.0,245.0,294.0,98.0,49.0,196.0,147.0,gray,diamond
0.0,7.0,2.0,1.0,7.0,1.0,1346.663604999776,2.0,1.0,phase_3,,,,,78.0,2.0,78.0,234.0,195.0,117.0,39.0,156.0,gray,diamond
0.0,7.0,2.0,1.0,7.0,4.0,1712.655500999972,2.0,1.0,phase_3,,,,,49.0,1.0,245.0,98.0,294.0,49.0,196.0,147.0,gray,diamond
0.0,1.0,0.5,0.0,7.0,3.0,1376.3028789999223,2.0,1.0,phase_3,,,,,78.0,2.0,39.0,195.0,78.0,156.0,117.0,234.0,cyan,hexagon
0.0,6.0,1.0,1.0,7.0,6.0,1711.6740639994532,2.0,1.0,phase_3,,,,,54.0,1.0,216.0,162.0,270.0,108.0,324.0,54.0,green,square
0.0,2.0,1.0,0.0,7.0,4.0,1626.0473559996171,2.0,1.0,phase_3,,,,,88.0,2.0,220.0,264.0,44.0,88.0,176.0,132.0,yellow,I
0.0,2.0,1.0,0.0,7.0,1.0,1963.164771000265,2.0,1.0,phase_3,,,,,78.0,2.0,78.0,195.0,234.0,39.0,156.0,117.0,yellow,I
0.0,2.0,1.0,0.0,7.0,6.0,1479.325847999462,2.0,1.0,phase_3,,,,,78.0,2.0,195.0,156.0,234.0,117.0,39.0,78.0,yellow,I
0.0,2.0,1.0,0.0,7.0,3.0,1597.4862490002124,3.0,1.0,phase_3,,,,,68.0,2.0,136.0,102.0,68.0,34.0,204.0,170.0,yellow,I
0.0,4.0,4.0,0.0,7.0,2.0,1587.4546370005191,3.0,1.0,phase_3,,,,,108.0,2.0,270.0,108.0,54.0,216.0,162.0,324.0,orange,circle
0.0,5.0,0.5,1.0,7.0,1.0,1467.1889070004909,3.0,1.0,phase_3,,,,,102.0,3.0,102.0,170.0,136.0,204.0,68.0,34.0,magenta,cross
0.0,1.0,0.5,0.0,7.0,5.0,1477.5129670006208,3.0,1.0,phase_3,,,,,49.0,1.0,147.0,196.0,98.0,245.0,49.0,294.0,cyan,hexagon
0.0,8.0,4.0,1.0,7.0,1.0,1213.788265000403,3.0,1.0,phase_3,,,,,68.0,2.0,68.0,170.0,34.0,136.0,204.0,102.0,white,flipped triangle
0.0,1.0,0.5,0.0,7.0,5.0,1301.9941999991715,3.0,1.0,phase_3,,,,,88.0,2.0,132.0,264.0,176.0,44.0,88.0,220.0,cyan,hexagon
0.0,3.0,2.0,0.0,7.0,3.0,1365.935531000105,3.0,1.0,phase_3,,,,,196.0,4.0,49.0,98.0,196.0,294.0,245.0,147.0,blue,triangle
0.0,7.0,2.0,1.0,7.0,2.0,1240.09647999992,3.0,1.0,phase_3,,,,,88.0,2.0,176.0,88.0,220.0,264.0,132.0,44.0,gray,diamond
0.0,7.0,2.0,1.0,7.0,5.0,1388.0101579998154,3.0,1.0,phase_3,,,,,54.0,1.0,324.0,162.0,216.0,108.0,54.0,270.0,gray,diamond
0.0,3.0,2.0,0.0,7.0,6.0,1045.158459999584,3.0,1.0,phase_3,,,,,54.0,1.0,216.0,108.0,270.0,324.0,162.0,54.0,blue,triangle
0.0,6.0,1.0,1.0,7.0,2.0,1481.7566910005553,3.0,1.0,phase_3,,,,,49.0,1.0,245.0,49.0,147.0,294.0,98.0,196.0,green,square
0.0,4.0,4.0,0.0,7.0,2.0,1258.501637000336,3.0,1.0,phase_3,,,,,78.0,2.0,234.0,78.0,195.0,156.0,117.0,39.0,orange,circle
0.0,5.0,0.5,1.0,7.0,4.0,1189.2042859999492,3.0,1.0,phase_3,,,,,54.0,1.0,216.0,162.0,108.0,54.0,324.0,270.0,magenta,cross
0.0,6.0,1.0,1.0,7.0,2.0,1281.8214799999623,3.0,1.0,phase_3,,,,,98.0,2.0,49.0,98.0,147.0,245.0,294.0,196.0,green,square
0.0,4.0,4.0,0.0,7.0,3.0,1271.2001010004317,3.0,1.0,phase_3,,,,,54.0,1.0,216.0,162.0,54.0,108.0,270.0,324.0,orange,circle
0.0,7.0,2.0,1.0,7.0,2.0,1456.6894750005304,3.0,1.0,phase_3,,,,,68.0,2.0,204.0,68.0,34.0,170.0,136.0,102.0,gray,diamond
0.0,6.0,1.0,1.0,7.0,5.0,1431.510165999498,3.0,1.0,phase_3,,,,,68.0,2.0,170.0,136.0,204.0,34.0,68.0,102.0,green,square
0.0,1.0,0.5,0.0,7.0,1.0,1559.1676779995396,3.0,1.0,phase_3,,,,,88.0,2.0,88.0,220.0,264.0,176.0,44.0,132.0,cyan,hexagon
0.0,2.0,1.0,0.0,7.0,1.0,1939.144094999392,3.0,1.0,phase_3,,,,,54.0,1.0,54.0,108.0,270.0,324.0,162.0,216.0,yellow,I
0.0,7.0,2.0,1.0,7.0,2.0,1314.7664950001854,3.0,1.0,phase_3,,,,,54.0,1.0,270.0,54.0,162.0,108.0,324.0,216.0,gray,diamond
0.0,1.0,0.5,0.0,7.0,5.0,1718.0017820001012,4.0,1.0,phase_3,,,,,78.0,2.0,156.0,195.0,39.0,117.0,78.0,234.0,cyan,hexagon
0.0,8.0,4.0,1.0,7.0,4.0,972.6033030001418,4.0,1.0,phase_3,,,,,98.0,2.0,196.0,294.0,147.0,98.0,49.0,245.0,white,flipped triangle
0.0,4.0,4.0,0.0,7.0,6.0,1366.3925609998842,4.0,1.0,phase_3,,,,,88.0,2.0,44.0,220.0,176.0,264.0,132.0,88.0,orange,circle
0.0,3.0,2.0,0.0,7.0,4.0,949.3526320002276,4.0,1.0,phase_3,,,,,88.0,2.0,176.0,264.0,132.0,88.0,220.0,44.0,blue,triangle
0.0,2.0,1.0,0.0,7.0,6.0,1050.0362380007573,4.0,1.0,phase_3,,,,,68.0,2.0,102.0,136.0,204.0,34.0,170.0,68.0,yellow,I
0.0,2.0,1.0,0.0,7.0,6.0,1692.8076849999345,4.0,1.0,phase_3,,,,,98.0,2.0,147.0,196.0,245.0,294.0,49.0,98.0,yellow,I
0.0,8.0,4.0,1.0,7.0,2.0,1368.888364000668,4.0,1.0,phase_3,,,,,88.0,2.0,44.0,88.0,176.0,264.0,220.0,132.0,white,flipped triangle
0.0,6.0,1.0,1.0,7.0,1.0,2423.386563999884,4.0,1.0,phase_3,,,,,102.0,3.0,102.0,136.0,170.0,204.0,34.0,68.0,green,square
0.0,2.0,1.0,0.0,7.0,6.0,1208.8864120005385,4.0,1.0,phase_3,,,,,98.0,2.0,245.0,294.0,49.0,196.0,147.0,98.0,yellow,I
0.0,8.0,4.0,1.0,7.0,3.0,1625.279259999843,4.0,1.0,phase_3,,,,,88.0,2.0,220.0,132.0,88.0,264.0,176.0,44.0,white,flipped triangle
0.0,8.0,4.0,1.0,7.0,6.0,1581.487966000168,4.0,1.0,phase_3,,,,,108.0,2.0,216.0,324.0,162.0,270.0,54.0,108.0,white,flipped triangle
0.0,3.0,2.0,0.0,7.0,5.0,937.4031729994384,4.0,1.0,phase_3,,,,,88.0,2.0,264.0,132.0,44.0,220.0,88.0,176.0,blue,triangle
0.0,3.0,2.0,0.0,7.0,6.0,1099.2742050002562,4.0,1.0,phase_3,,,,,78.0,2.0,156.0,117.0,39.0,195.0,234.0,78.0,blue,triangle
0.0,6.0,1.0,1.0,7.0,3.0,1231.997861000309,4.0,1.0,phase_3,,,,,88.0,2.0,44.0,176.0,88.0,264.0,132.0,220.0,green,square
0.0,4.0,4.0,0.0,7.0,3.0,1548.1380199998966,4.0,1.0,phase_3,,,,,88.0,2.0,220.0,132.0,88.0,176.0,44.0,264.0,orange,circle
0.0,1.0,0.5,0.0,7.0,6.0,1191.131470000073,4.0,1.0,phase_3,,,,,68.0,2.0,170.0,204.0,136.0,102.0,34.0,68.0,cyan,hexagon
0.0,6.0,1.0,1.0,7.0,5.0,1023.2565919995975,4.0,1.0,phase_3,,,,,39.0,1.0,195.0,234.0,78.0,117.0,39.0,156.0,green,square
0.0,3.0,2.0,0.0,7.0,4.0,958.2540259998495,4.0,1.0,phase_3,,,,,54.0,1.0,162.0,270.0,324.0,54.0,108.0,216.0,blue,triangle
0.0,5.0,0.5,1.0,7.0,5.0,1245.8531540005424,4.0,1.0,phase_3,,,,,88.0,2.0,132.0,176.0,264.0,44.0,88.0,220.0,magenta,cross
0.0,3.0,2.0,0.0,7.0,3.0,1425.4974859995857,4.0,1.0,phase_3,,,,,49.0,1.0,147.0,245.0,49.0,294.0,196.0,98.0,blue,triangle
