raw_reward_magnitude,stim_reward,stepwise_reward_magnitude,paired_with_stopping,quadrant,response,reaction_time,block,num_trial_presentations,which_part,stop_signal_trial_type,left_SSD,right_SSD,accuracy,chosen_bidding_amount,chosen_bidding_level,possible_bid_1,possible_bid_2,possible_bid_3,possible_bid_4,possible_bid_5,possible_bid_6,color_text,shape_text
87.0,6.0,2.0,1.0,2.0,2.0,929.9722609998752,1.0,1.0,part_1,,,,,,,,,,,,,magenta,flipped triangle
0.0,2.0,0.0,0.0,3.0,3.0,485.9593490000407,1.0,1.0,part_1,,,,,,,,,,,,,green,cross
0.0,6.0,0.0,1.0,1.0,1.0,386.2594540000827,1.0,1.0,part_1,,,,,,,,,,,,,magenta,flipped triangle
80.0,2.0,2.0,0.0,1.0,1.0,394.42805899989247,1.0,1.0,part_1,,,,,,,,,,,,,green,cross
43.0,1.0,1.0,0.0,2.0,2.0,436.9374920001974,1.0,1.0,part_1,,,,,,,,,,,,,orange,diamond
90.0,2.0,2.0,0.0,3.0,3.0,522.1240959999705,1.0,1.0,part_1,,,,,,,,,,,,,green,cross
379.0,8.0,4.0,1.0,4.0,4.0,551.2809599999855,1.0,1.0,part_1,,,,,,,,,,,,,white,circle
124.0,2.0,2.0,0.0,4.0,4.0,594.7454199999811,1.0,1.0,part_1,,,,,,,,,,,,,green,cross
66.0,5.0,1.0,1.0,2.0,2.0,442.3763409999992,1.0,1.0,part_1,,,,,,,,,,,,,blue,triangle
101.0,6.0,2.0,1.0,4.0,4.0,537.739908000276,1.0,1.0,part_1,,,,,,,,,,,,,magenta,flipped triangle
384.0,4.0,4.0,0.0,2.0,2.0,390.3949200002898,1.0,1.0,part_1,,,,,,,,,,,,,gray,hexagon
209.0,3.0,3.0,0.0,4.0,4.0,540.6623169997147,1.0,1.0,part_1,,,,,,,,,,,,,yellow,I
62.0,1.0,1.0,0.0,3.0,3.0,541.5306780000719,1.0,1.0,part_1,,,,,,,,,,,,,orange,diamond
212.0,3.0,3.0,0.0,1.0,1.0,494.1221180001776,1.0,1.0,part_1,,,,,,,,,,,,,yellow,I
0.0,2.0,0.0,0.0,1.0,1.0,452.9529159999583,1.0,1.0,part_1,,,,,,,,,,,,,green,cross
420.0,8.0,4.0,1.0,3.0,3.0,589.6241199998258,1.0,1.0,part_1,,,,,,,,,,,,,white,circle
87.0,2.0,2.0,0.0,3.0,3.0,547.0520539997779,1.0,1.0,part_1,,,,,,,,,,,,,green,cross
222.0,7.0,3.0,1.0,1.0,1.0,451.9202540000151,1.0,2.0,part_1,,,,,,,,,,,,,cyan,square
199.0,3.0,3.0,0.0,2.0,2.0,384.9132619998272,1.0,1.0,part_1,,,,,,,,,,,,,yellow,I
391.0,8.0,4.0,1.0,2.0,2.0,416.3489409997964,1.0,1.0,part_1,,,,,,,,,,,,,white,circle
26.0,1.0,1.0,0.0,3.0,3.0,395.4418489997806,1.0,1.0,part_1,,,,,,,,,,,,,orange,diamond
0.0,1.0,0.0,0.0,2.0,2.0,568.0980289998843,1.0,1.0,part_1,,,,,,,,,,,,,orange,diamond
39.0,5.0,1.0,1.0,4.0,4.0,527.2245000001021,1.0,1.0,part_1,,,,,,,,,,,,,blue,triangle
400.0,8.0,4.0,1.0,4.0,4.0,550.5473160001202,1.0,1.0,part_1,,,,,,,,,,,,,white,circle
56.0,5.0,1.0,1.0,3.0,3.0,590.5850340000143,1.0,1.0,part_1,,,,,,,,,,,,,blue,triangle
51.0,5.0,1.0,1.0,1.0,1.0,739.5882609998807,1.0,1.0,part_1,,,,,,,,,,,,,blue,triangle
73.0,1.0,1.0,0.0,2.0,2.0,287.6141339997957,1.0,1.0,part_1,,,,,,,,,,,,,orange,diamond
225.0,3.0,3.0,0.0,1.0,1.0,459.9274060001335,1.0,1.0,part_1,,,,,,,,,,,,,yellow,I
218.0,3.0,3.0,0.0,4.0,4.0,819.6776749996388,1.0,1.0,part_1,,,,,,,,,,,,,yellow,I
94.0,2.0,2.0,0.0,2.0,2.0,389.2985100001169,1.0,1.0,part_1,,,,,,,,,,,,,green,cross
384.0,4.0,4.0,0.0,2.0,2.0,502.58396200024436,1.0,1.0,part_1,,,,,,,,,,,,,gray,hexagon
393.0,8.0,4.0,1.0,2.0,2.0,405.5521290001707,1.0,1.0,part_1,,,,,,,,,,,,,white,circle
204.0,3.0,3.0,0.0,2.0,2.0,317.0951709998917,1.0,1.0,part_1,,,,,,,,,,,,,yellow,I
206.0,3.0,3.0,0.0,2.0,2.0,313.1301599996732,1.0,1.0,part_1,,,,,,,,,,,,,yellow,I
385.0,4.0,4.0,0.0,4.0,4.0,347.186707000219,1.0,1.0,part_1,,,,,,,,,,,,,gray,hexagon
119.0,6.0,2.0,1.0,1.0,1.0,495.98925899999807,1.0,1.0,part_1,,,,,,,,,,,,,magenta,flipped triangle
212.0,7.0,3.0,1.0,2.0,2.0,505.3839470001549,1.0,1.0,part_1,,,,,,,,,,,,,cyan,square
418.0,8.0,4.0,1.0,2.0,2.0,440.72065499995,1.0,1.0,part_1,,,,,,,,,,,,,white,circle
113.0,6.0,2.0,1.0,1.0,1.0,551.6357569999855,1.0,2.0,part_1,,,,,,,,,,,,,magenta,flipped triangle
0.0,8.0,0.0,1.0,1.0,1.0,591.699497999798,1.0,1.0,part_1,,,,,,,,,,,,,white,circle
86.0,2.0,2.0,0.0,4.0,4.0,560.2423780001118,1.0,1.0,part_1,,,,,,,,,,,,,green,cross
81.0,2.0,2.0,0.0,2.0,2.0,331.8061560003116,1.0,1.0,part_1,,,,,,,,,,,,,green,cross
196.0,3.0,3.0,0.0,3.0,3.0,481.9732739997562,1.0,1.0,part_1,,,,,,,,,,,,,yellow,I
379.0,4.0,4.0,0.0,3.0,3.0,383.6901489999036,1.0,1.0,part_1,,,,,,,,,,,,,gray,hexagon
416.0,4.0,4.0,0.0,3.0,3.0,367.6788719999422,1.0,1.0,part_1,,,,,,,,,,,,,gray,hexagon
399.0,8.0,4.0,1.0,3.0,3.0,319.4998630001464,1.0,1.0,part_1,,,,,,,,,,,,,white,circle
411.0,8.0,4.0,1.0,2.0,2.0,679.982869000014,1.0,1.0,part_1,,,,,,,,,,,,,white,circle
35.0,5.0,1.0,1.0,2.0,2.0,427.22746700019337,1.0,1.0,part_1,,,,,,,,,,,,,blue,triangle
115.0,6.0,2.0,1.0,2.0,2.0,492.6949649998278,1.0,1.0,part_1,,,,,,,,,,,,,magenta,flipped triangle
420.0,4.0,4.0,0.0,2.0,2.0,478.821164999772,1.0,1.0,part_1,,,,,,,,,,,,,gray,hexagon
0.0,1.0,0.0,0.0,1.0,1.0,651.6560249997383,1.0,1.0,part_1,,,,,,,,,,,,,orange,diamond
103.0,2.0,2.0,0.0,3.0,3.0,527.4692099997083,1.0,1.0,part_1,,,,,,,,,,,,,green,cross
408.0,8.0,4.0,1.0,1.0,1.0,554.5988280000529,1.0,1.0,part_1,,,,,,,,,,,,,white,circle
92.0,2.0,2.0,0.0,3.0,3.0,499.2254489998231,1.0,1.0,part_1,,,,,,,,,,,,,green,cross
30.0,1.0,1.0,0.0,4.0,4.0,778.3662900001218,1.0,1.0,part_1,,,,,,,,,,,,,orange,diamond
381.0,4.0,4.0,0.0,2.0,2.0,412.8018149999661,1.0,2.0,part_1,,,,,,,,,,,,,gray,hexagon
183.0,7.0,3.0,1.0,4.0,4.0,713.3295389999148,1.0,1.0,part_1,,,,,,,,,,,,,cyan,square
66.0,1.0,1.0,0.0,1.0,1.0,603.9099310000893,1.0,1.0,part_1,,,,,,,,,,,,,orange,diamond
391.0,4.0,4.0,0.0,4.0,4.0,515.5171850001352,1.0,3.0,part_1,,,,,,,,,,,,,gray,hexagon
199.0,7.0,3.0,1.0,4.0,4.0,402.7066139997259,1.0,1.0,part_1,,,,,,,,,,,,,cyan,square
205.0,3.0,3.0,0.0,3.0,3.0,530.0741159999234,1.0,1.0,part_1,,,,,,,,,,,,,yellow,I
0.0,8.0,0.0,1.0,2.0,2.0,470.3533649999372,1.0,1.0,part_1,,,,,,,,,,,,,white,circle
0.0,5.0,0.0,1.0,1.0,1.0,482.6503210001647,1.0,1.0,part_1,,,,,,,,,,,,,blue,triangle
418.0,4.0,4.0,0.0,1.0,1.0,401.41768400008,1.0,1.0,part_1,,,,,,,,,,,,,gray,hexagon
72.0,5.0,1.0,1.0,4.0,4.0,718.9685470002587,1.0,1.0,part_1,,,,,,,,,,,,,blue,triangle
101.0,2.0,2.0,0.0,1.0,1.0,615.2602610000031,1.0,1.0,part_1,,,,,,,,,,,,,green,cross
375.0,8.0,4.0,1.0,1.0,1.0,358.8050960001965,1.0,1.0,part_1,,,,,,,,,,,,,white,circle
398.0,4.0,4.0,0.0,1.0,1.0,517.3926880002,1.0,1.0,part_1,,,,,,,,,,,,,gray,hexagon
124.0,6.0,2.0,1.0,1.0,1.0,729.7037110001838,1.0,1.0,part_1,,,,,,,,,,,,,magenta,flipped triangle
83.0,2.0,2.0,0.0,4.0,4.0,467.0687419998103,1.0,1.0,part_1,,,,,,,,,,,,,green,cross
62.0,5.0,1.0,1.0,3.0,3.0,859.9755759996697,1.0,1.0,part_1,,,,,,,,,,,,,blue,triangle
103.0,2.0,2.0,0.0,2.0,2.0,432.8651850000824,1.0,1.0,part_1,,,,,,,,,,,,,green,cross
377.0,8.0,4.0,1.0,3.0,3.0,375.7098710002537,1.0,1.0,part_1,,,,,,,,,,,,,white,circle
113.0,6.0,2.0,1.0,2.0,2.0,908.0377960003716,1.0,1.0,part_1,,,,,,,,,,,,,magenta,flipped triangle
175.0,7.0,3.0,1.0,4.0,4.0,593.4646720002092,1.0,1.0,part_1,,,,,,,,,,,,,cyan,square
205.0,7.0,3.0,1.0,3.0,3.0,424.6601149998241,1.0,1.0,part_1,,,,,,,,,,,,,cyan,square
0.0,1.0,0.0,0.0,4.0,4.0,710.0879270001315,1.0,1.0,part_1,,,,,,,,,,,,,orange,diamond
220.0,3.0,3.0,0.0,1.0,1.0,729.5013810003184,1.0,1.0,part_1,,,,,,,,,,,,,yellow,I
206.0,7.0,3.0,1.0,3.0,3.0,586.5758619997905,1.0,1.0,part_1,,,,,,,,,,,,,cyan,square
84.0,2.0,2.0,0.0,3.0,3.0,458.1835640001372,1.0,1.0,part_1,,,,,,,,,,,,,green,cross
0.0,1.0,0.0,0.0,2.0,2.0,609.2107519998535,1.0,1.0,part_1,,,,,,,,,,,,,orange,diamond
75.0,2.0,2.0,0.0,1.0,1.0,542.4036510003134,1.0,1.0,part_1,,,,,,,,,,,,,green,cross
0.0,8.0,0.0,1.0,2.0,2.0,543.2731229998353,1.0,1.0,part_1,,,,,,,,,,,,,white,circle
0.0,3.0,0.0,0.0,4.0,4.0,436.2747270001819,1.0,1.0,part_1,,,,,,,,,,,,,yellow,I
0.0,2.0,0.0,0.0,2.0,2.0,509.71049200006746,1.0,1.0,part_1,,,,,,,,,,,,,green,cross
30.0,5.0,1.0,1.0,3.0,3.0,351.857285999813,1.0,1.0,part_1,,,,,,,,,,,,,blue,triangle
78.0,6.0,2.0,1.0,2.0,2.0,355.3128869998545,1.0,1.0,part_1,,,,,,,,,,,,,magenta,flipped triangle
72.0,1.0,1.0,0.0,3.0,3.0,506.37069399999746,1.0,1.0,part_1,,,,,,,,,,,,,orange,diamond
215.0,3.0,3.0,0.0,4.0,4.0,784.3765130000975,1.0,1.0,part_1,,,,,,,,,,,,,yellow,I
47.0,1.0,1.0,0.0,2.0,2.0,669.4489839997004,1.0,1.0,part_1,,,,,,,,,,,,,orange,diamond
0.0,3.0,0.0,0.0,3.0,3.0,504.6054089998506,1.0,1.0,part_1,,,,,,,,,,,,,yellow,I
75.0,6.0,2.0,1.0,4.0,4.0,471.473490000335,1.0,1.0,part_1,,,,,,,,,,,,,magenta,flipped triangle
412.0,4.0,4.0,0.0,3.0,3.0,469.8708590003662,1.0,1.0,part_1,,,,,,,,,,,,,gray,hexagon
86.0,6.0,2.0,1.0,4.0,4.0,347.7045119998365,1.0,1.0,part_1,,,,,,,,,,,,,magenta,flipped triangle
390.0,4.0,4.0,0.0,4.0,4.0,459.6299900003942,1.0,1.0,part_1,,,,,,,,,,,,,gray,hexagon
39.0,1.0,1.0,0.0,3.0,3.0,445.3971650000312,1.0,1.0,part_1,,,,,,,,,,,,,orange,diamond
0.0,4.0,0.0,0.0,1.0,1.0,587.7965109998513,1.0,1.0,part_1,,,,,,,,,,,,,gray,hexagon
208.0,7.0,3.0,1.0,1.0,1.0,385.8611609998661,1.0,1.0,part_1,,,,,,,,,,,,,cyan,square
50.0,1.0,1.0,0.0,3.0,3.0,397.5064599999314,1.0,1.0,part_1,,,,,,,,,,,,,orange,diamond
115.0,6.0,2.0,1.0,3.0,3.0,404.8587479996968,1.0,1.0,part_1,,,,,,,,,,,,,magenta,flipped triangle
111.0,2.0,2.0,0.0,3.0,3.0,393.2106120000753,2.0,1.0,part_1,,,,,,,,,,,,,green,cross
106.0,2.0,2.0,0.0,4.0,4.0,396.7067799999313,2.0,1.0,part_1,,,,,,,,,,,,,green,cross
194.0,7.0,3.0,1.0,2.0,2.0,396.5672449999147,2.0,1.0,part_1,,,,,,,,,,,,,cyan,square
0.0,3.0,0.0,0.0,2.0,2.0,622.5121610000315,2.0,1.0,part_1,,,,,,,,,,,,,yellow,I
423.0,4.0,4.0,0.0,4.0,4.0,585.0077750001219,2.0,1.0,part_1,,,,,,,,,,,,,gray,hexagon
70.0,5.0,1.0,1.0,2.0,2.0,657.9416800000217,2.0,1.0,part_1,,,,,,,,,,,,,blue,triangle
0.0,1.0,0.0,0.0,2.0,2.0,596.3798950001546,2.0,1.0,part_1,,,,,,,,,,,,,orange,diamond
421.0,8.0,4.0,1.0,4.0,4.0,624.6695869999712,2.0,1.0,part_1,,,,,,,,,,,,,white,circle
0.0,8.0,0.0,1.0,1.0,1.0,807.8491510000276,2.0,1.0,part_1,,,,,,,,,,,,,white,circle
400.0,4.0,4.0,0.0,3.0,3.0,301.909476000219,2.0,1.0,part_1,,,,,,,,,,,,,gray,hexagon
0.0,7.0,0.0,1.0,4.0,4.0,357.9200499998478,2.0,1.0,part_1,,,,,,,,,,,,,cyan,square
0.0,3.0,0.0,0.0,2.0,2.0,501.6753800000515,2.0,1.0,part_1,,,,,,,,,,,,,yellow,I
123.0,2.0,2.0,0.0,1.0,1.0,393.2101999998849,2.0,1.0,part_1,,,,,,,,,,,,,green,cross
109.0,6.0,2.0,1.0,3.0,3.0,413.376253000024,2.0,1.0,part_1,,,,,,,,,,,,,magenta,flipped triangle
224.0,3.0,3.0,0.0,2.0,2.0,514.8414459999913,2.0,1.0,part_1,,,,,,,,,,,,,yellow,I
51.0,1.0,1.0,0.0,4.0,4.0,401.3217400001849,2.0,1.0,part_1,,,,,,,,,,,,,orange,diamond
378.0,4.0,4.0,0.0,4.0,4.0,478.7627159998919,2.0,1.0,part_1,,,,,,,,,,,,,gray,hexagon
0.0,5.0,0.0,1.0,4.0,4.0,404.8642359998666,2.0,2.0,part_1,,,,,,,,,,,,,blue,triangle
189.0,3.0,3.0,0.0,1.0,1.0,489.5136209997872,2.0,1.0,part_1,,,,,,,,,,,,,yellow,I
392.0,8.0,4.0,1.0,2.0,2.0,431.5669570000864,2.0,1.0,part_1,,,,,,,,,,,,,white,circle
402.0,8.0,4.0,1.0,4.0,4.0,526.2946389998433,2.0,1.0,part_1,,,,,,,,,,,,,white,circle
0.0,2.0,0.0,0.0,4.0,4.0,494.5173330002035,2.0,1.0,part_1,,,,,,,,,,,,,green,cross
54.0,5.0,1.0,1.0,1.0,1.0,757.2610900001564,2.0,1.0,part_1,,,,,,,,,,,,,blue,triangle
189.0,3.0,3.0,0.0,4.0,4.0,529.6429199997874,2.0,1.0,part_1,,,,,,,,,,,,,yellow,I
92.0,6.0,2.0,1.0,2.0,2.0,744.4291090000661,2.0,1.0,part_1,,,,,,,,,,,,,magenta,flipped triangle
70.0,1.0,1.0,0.0,2.0,2.0,500.3204309996363,2.0,1.0,part_1,,,,,,,,,,,,,orange,diamond
44.0,5.0,1.0,1.0,1.0,1.0,562.0771760000025,2.0,1.0,part_1,,,,,,,,,,,,,blue,triangle
392.0,4.0,4.0,0.0,2.0,2.0,404.0914600000178,2.0,1.0,part_1,,,,,,,,,,,,,gray,hexagon
0.0,4.0,0.0,0.0,1.0,1.0,406.8212659999517,2.0,1.0,part_1,,,,,,,,,,,,,gray,hexagon
205.0,3.0,3.0,0.0,4.0,4.0,392.474102000051,2.0,1.0,part_1,,,,,,,,,,,,,yellow,I
224.0,7.0,3.0,1.0,2.0,2.0,347.2292750002452,2.0,1.0,part_1,,,,,,,,,,,,,cyan,square
0.0,2.0,0.0,0.0,3.0,3.0,346.3611590000255,2.0,1.0,part_1,,,,,,,,,,,,,green,cross
90.0,6.0,2.0,1.0,2.0,2.0,389.5061680000253,2.0,1.0,part_1,,,,,,,,,,,,,magenta,flipped triangle
111.0,6.0,2.0,1.0,2.0,2.0,347.3051120004129,2.0,1.0,part_1,,,,,,,,,,,,,magenta,flipped triangle
109.0,6.0,2.0,1.0,4.0,4.0,444.4027990002723,2.0,2.0,part_1,,,,,,,,,,,,,magenta,flipped triangle
65.0,1.0,1.0,0.0,2.0,2.0,965.04794700013,2.0,1.0,part_1,,,,,,,,,,,,,orange,diamond
190.0,7.0,3.0,1.0,3.0,3.0,518.6980130001757,2.0,1.0,part_1,,,,,,,,,,,,,cyan,square
185.0,3.0,3.0,0.0,3.0,3.0,463.7751209997987,2.0,1.0,part_1,,,,,,,,,,,,,yellow,I
80.0,2.0,2.0,0.0,3.0,3.0,486.0080369999195,2.0,1.0,part_1,,,,,,,,,,,,,green,cross
96.0,6.0,2.0,1.0,4.0,4.0,524.4257599997582,2.0,1.0,part_1,,,,,,,,,,,,,magenta,flipped triangle
201.0,7.0,3.0,1.0,2.0,2.0,342.0468849999452,2.0,1.0,part_1,,,,,,,,,,,,,cyan,square
75.0,5.0,1.0,1.0,3.0,3.0,617.8886759998932,2.0,1.0,part_1,,,,,,,,,,,,,blue,triangle
0.0,5.0,0.0,1.0,4.0,4.0,488.1608880000385,2.0,1.0,part_1,,,,,,,,,,,,,blue,triangle
75.0,1.0,1.0,0.0,2.0,2.0,406.8140589997711,2.0,1.0,part_1,,,,,,,,,,,,,orange,diamond
0.0,5.0,0.0,1.0,1.0,1.0,334.3563059997905,2.0,1.0,part_1,,,,,,,,,,,,,blue,triangle
416.0,8.0,4.0,1.0,1.0,1.0,539.5615219999854,2.0,1.0,part_1,,,,,,,,,,,,,white,circle
400.0,4.0,4.0,0.0,3.0,3.0,642.9883470000277,2.0,2.0,part_1,,,,,,,,,,,,,gray,hexagon
92.0,6.0,2.0,1.0,1.0,1.0,382.8961499998513,2.0,2.0,part_1,,,,,,,,,,,,,magenta,flipped triangle
50.0,5.0,1.0,1.0,2.0,2.0,580.4562930002248,2.0,1.0,part_1,,,,,,,,,,,,,blue,triangle
27.0,5.0,1.0,1.0,2.0,2.0,367.6203520003582,2.0,1.0,part_1,,,,,,,,,,,,,blue,triangle
375.0,4.0,4.0,0.0,1.0,1.0,499.4957480002995,2.0,1.0,part_1,,,,,,,,,,,,,gray,hexagon
116.0,2.0,2.0,0.0,4.0,4.0,621.0521859998153,2.0,1.0,part_1,,,,,,,,,,,,,green,cross
183.0,3.0,3.0,0.0,1.0,1.0,864.0413150001223,2.0,1.0,part_1,,,,,,,,,,,,,yellow,I
104.0,6.0,2.0,1.0,2.0,2.0,350.4265960000339,2.0,2.0,part_1,,,,,,,,,,,,,magenta,flipped triangle
415.0,8.0,4.0,1.0,1.0,1.0,560.6006850002814,2.0,1.0,part_1,,,,,,,,,,,,,white,circle
0.0,5.0,0.0,1.0,2.0,2.0,622.2746429998551,2.0,1.0,part_1,,,,,,,,,,,,,blue,triangle
176.0,3.0,3.0,0.0,1.0,1.0,453.4639659996173,2.0,1.0,part_1,,,,,,,,,,,,,yellow,I
54.0,1.0,1.0,0.0,1.0,1.0,368.7946959998953,2.0,1.0,part_1,,,,,,,,,,,,,orange,diamond
201.0,3.0,3.0,0.0,4.0,4.0,581.3186870000209,2.0,1.0,part_1,,,,,,,,,,,,,yellow,I
108.0,2.0,2.0,0.0,4.0,4.0,391.6433750000578,2.0,1.0,part_1,,,,,,,,,,,,,green,cross
29.0,1.0,1.0,0.0,1.0,1.0,476.2268399999811,2.0,1.0,part_1,,,,,,,,,,,,,orange,diamond
0.0,7.0,0.0,1.0,2.0,2.0,440.5154720002429,2.0,1.0,part_1,,,,,,,,,,,,,cyan,square
27.0,1.0,1.0,0.0,1.0,1.0,490.5068809998738,2.0,2.0,part_1,,,,,,,,,,,,,orange,diamond
0.0,1.0,0.0,0.0,4.0,4.0,571.4288929998474,2.0,1.0,part_1,,,,,,,,,,,,,orange,diamond
65.0,1.0,1.0,0.0,1.0,1.0,438.5443959999975,2.0,1.0,part_1,,,,,,,,,,,,,orange,diamond
42.0,1.0,1.0,0.0,2.0,2.0,569.3925489999856,2.0,1.0,part_1,,,,,,,,,,,,,orange,diamond
378.0,8.0,4.0,1.0,1.0,1.0,458.6844410000594,2.0,1.0,part_1,,,,,,,,,,,,,white,circle
70.0,1.0,1.0,0.0,3.0,3.0,380.0055049996445,2.0,1.0,part_1,,,,,,,,,,,,,orange,diamond
78.0,2.0,2.0,0.0,1.0,1.0,558.6164019996431,2.0,1.0,part_1,,,,,,,,,,,,,green,cross
33.0,1.0,1.0,0.0,4.0,4.0,674.0297930000452,2.0,1.0,part_1,,,,,,,,,,,,,orange,diamond
0.0,7.0,0.0,1.0,2.0,2.0,588.1792290001613,2.0,1.0,part_1,,,,,,,,,,,,,cyan,square
182.0,7.0,3.0,1.0,3.0,3.0,570.8193169998594,2.0,1.0,part_1,,,,,,,,,,,,,cyan,square
379.0,4.0,4.0,0.0,1.0,1.0,573.3989059999658,2.0,1.0,part_1,,,,,,,,,,,,,gray,hexagon
80.0,6.0,2.0,1.0,3.0,3.0,555.2198499999577,2.0,1.0,part_1,,,,,,,,,,,,,magenta,flipped triangle
197.0,7.0,3.0,1.0,3.0,3.0,541.3924179997593,2.0,1.0,part_1,,,,,,,,,,,,,cyan,square
0.0,4.0,0.0,0.0,3.0,3.0,411.1329790002855,2.0,1.0,part_1,,,,,,,,,,,,,gray,hexagon
119.0,2.0,2.0,0.0,3.0,3.0,467.3525809998864,2.0,1.0,part_1,,,,,,,,,,,,,green,cross
194.0,3.0,3.0,0.0,4.0,4.0,648.1408690001444,2.0,1.0,part_1,,,,,,,,,,,,,yellow,I
96.0,2.0,2.0,0.0,2.0,2.0,659.6578669996234,2.0,1.0,part_1,,,,,,,,,,,,,green,cross
0.0,2.0,0.0,0.0,4.0,4.0,614.1632120002214,2.0,1.0,part_1,,,,,,,,,,,,,green,cross
124.0,2.0,2.0,0.0,2.0,2.0,594.2237939998449,2.0,1.0,part_1,,,,,,,,,,,,,green,cross
408.0,8.0,4.0,1.0,1.0,1.0,837.4963510000271,2.0,1.0,part_1,,,,,,,,,,,,,white,circle
62.0,1.0,1.0,0.0,3.0,3.0,580.9973739997076,2.0,1.0,part_1,,,,,,,,,,,,,orange,diamond
36.0,1.0,1.0,0.0,1.0,1.0,872.4264030001905,2.0,1.0,part_1,,,,,,,,,,,,,orange,diamond
190.0,3.0,3.0,0.0,1.0,1.0,693.2620659999884,2.0,1.0,part_1,,,,,,,,,,,,,yellow,I
65.0,5.0,1.0,1.0,1.0,1.0,607.8452609999658,2.0,1.0,part_1,,,,,,,,,,,,,blue,triangle
103.0,6.0,2.0,1.0,1.0,1.0,577.9482680000001,2.0,3.0,part_1,,,,,,,,,,,,,magenta,flipped triangle
384.0,8.0,4.0,1.0,4.0,4.0,603.9492880004218,2.0,1.0,part_1,,,,,,,,,,,,,white,circle
70.0,5.0,1.0,1.0,3.0,3.0,562.3469809997914,2.0,3.0,part_1,,,,,,,,,,,,,blue,triangle
199.0,3.0,3.0,0.0,2.0,2.0,551.1211360003472,2.0,1.0,part_1,,,,,,,,,,,,,yellow,I
377.0,4.0,4.0,0.0,1.0,1.0,813.7748180001836,2.0,1.0,part_1,,,,,,,,,,,,,gray,hexagon
183.0,7.0,3.0,1.0,2.0,2.0,397.2939360000964,2.0,1.0,part_1,,,,,,,,,,,,,cyan,square
199.0,7.0,3.0,1.0,3.0,3.0,410.6119410002975,2.0,1.0,part_1,,,,,,,,,,,,,cyan,square
194.0,7.0,3.0,1.0,4.0,4.0,432.4274729997341,2.0,1.0,part_1,,,,,,,,,,,,,cyan,square
0.0,5.0,0.0,1.0,3.0,3.0,664.8726550001811,2.0,2.0,part_1,,,,,,,,,,,,,blue,triangle
0.0,8.0,0.0,1.0,1.0,1.0,686.5793860001759,2.0,1.0,part_1,,,,,,,,,,,,,white,circle
81.0,6.0,2.0,1.0,3.0,3.0,519.1590829999768,2.0,1.0,part_1,,,,,,,,,,,,,magenta,flipped triangle
419.0,8.0,4.0,1.0,4.0,4.0,506.1198630000945,2.0,1.0,part_1,,,,,,,,,,,,,white,circle
115.0,2.0,2.0,0.0,1.0,1.0,531.0171610003636,2.0,1.0,part_1,,,,,,,,,,,,,green,cross
414.0,8.0,4.0,1.0,4.0,4.0,484.5798209998975,2.0,1.0,part_1,,,,,,,,,,,,,white,circle
384.0,4.0,4.0,0.0,4.0,4.0,418.3148070001152,3.0,2.0,part_1,,,,,,,,,,,,,gray,hexagon
94.0,6.0,2.0,1.0,3.0,3.0,338.7424830002601,3.0,1.0,part_1,,,,,,,,,,,,,magenta,flipped triangle
80.0,6.0,2.0,1.0,1.0,1.0,347.7972440000485,3.0,1.0,part_1,,,,,,,,,,,,,magenta,flipped triangle
0.0,4.0,0.0,0.0,2.0,2.0,308.8329739998698,3.0,1.0,part_1,,,,,,,,,,,,,gray,hexagon
0.0,3.0,0.0,0.0,2.0,2.0,455.2627800003392,3.0,1.0,part_1,,,,,,,,,,,,,yellow,I
31.0,1.0,1.0,0.0,2.0,2.0,428.1860269998105,3.0,1.0,part_1,,,,,,,,,,,,,orange,diamond
406.0,4.0,4.0,0.0,1.0,1.0,673.4234989999095,3.0,1.0,part_1,,,,,,,,,,,,,gray,hexagon
211.0,7.0,3.0,1.0,4.0,4.0,641.6466350001429,3.0,1.0,part_1,,,,,,,,,,,,,cyan,square
0.0,8.0,0.0,1.0,3.0,3.0,618.298760000016,3.0,1.0,part_1,,,,,,,,,,,,,white,circle
196.0,7.0,3.0,1.0,1.0,1.0,733.8533399997687,3.0,1.0,part_1,,,,,,,,,,,,,cyan,square
0.0,7.0,0.0,1.0,4.0,4.0,472.2452000000885,3.0,1.0,part_1,,,,,,,,,,,,,cyan,square
96.0,6.0,2.0,1.0,3.0,3.0,580.0039549999383,3.0,1.0,part_1,,,,,,,,,,,,,magenta,flipped triangle
45.0,5.0,1.0,1.0,1.0,1.0,465.514475999953,3.0,1.0,part_1,,,,,,,,,,,,,blue,triangle
0.0,6.0,0.0,1.0,3.0,3.0,326.5302840000004,3.0,1.0,part_1,,,,,,,,,,,,,magenta,flipped triangle
113.0,2.0,2.0,0.0,2.0,2.0,635.4922089999491,3.0,1.0,part_1,,,,,,,,,,,,,green,cross
208.0,3.0,3.0,0.0,1.0,1.0,788.4439360000215,3.0,1.0,part_1,,,,,,,,,,,,,yellow,I
29.0,5.0,1.0,1.0,2.0,2.0,463.3001140000488,3.0,1.0,part_1,,,,,,,,,,,,,blue,triangle
0.0,5.0,0.0,1.0,4.0,4.0,414.1747959997701,3.0,2.0,part_1,,,,,,,,,,,,,blue,triangle
175.0,3.0,3.0,0.0,2.0,2.0,389.5271750002393,3.0,1.0,part_1,,,,,,,,,,,,,yellow,I
391.0,4.0,4.0,0.0,3.0,3.0,393.9336290000028,3.0,1.0,part_1,,,,,,,,,,,,,gray,hexagon
414.0,4.0,4.0,0.0,4.0,4.0,336.9715690000703,3.0,1.0,part_1,,,,,,,,,,,,,gray,hexagon
0.0,6.0,0.0,1.0,1.0,1.0,371.8846689998827,3.0,2.0,part_1,,,,,,,,,,,,,magenta,flipped triangle
220.0,7.0,3.0,1.0,4.0,4.0,578.3667040000182,3.0,1.0,part_1,,,,,,,,,,,,,cyan,square
57.0,1.0,1.0,0.0,3.0,3.0,546.1330049997741,3.0,1.0,part_1,,,,,,,,,,,,,orange,diamond
0.0,1.0,0.0,0.0,3.0,3.0,467.4981220000518,3.0,1.0,part_1,,,,,,,,,,,,,orange,diamond
124.0,6.0,2.0,1.0,3.0,3.0,459.9114299999201,3.0,1.0,part_1,,,,,,,,,,,,,magenta,flipped triangle
51.0,1.0,1.0,0.0,2.0,2.0,420.391801000278,3.0,1.0,part_1,,,,,,,,,,,,,orange,diamond
204.0,7.0,3.0,1.0,1.0,1.0,436.4389990000745,3.0,1.0,part_1,,,,,,,,,,,,,cyan,square
218.0,7.0,3.0,1.0,1.0,1.0,500.5944219997218,3.0,1.0,part_1,,,,,,,,,,,,,cyan,square
65.0,5.0,1.0,1.0,3.0,3.0,478.486908999912,3.0,2.0,part_1,,,,,,,,,,,,,blue,triangle
0.0,6.0,0.0,1.0,1.0,1.0,545.9058260003076,3.0,1.0,part_1,,,,,,,,,,,,,magenta,flipped triangle
200.0,3.0,3.0,0.0,2.0,2.0,424.0984330003812,3.0,1.0,part_1,,,,,,,,,,,,,yellow,I
30.0,5.0,1.0,1.0,4.0,4.0,469.0724689999115,3.0,2.0,part_1,,,,,,,,,,,,,blue,triangle
423.0,8.0,4.0,1.0,3.0,3.0,558.1816630001413,3.0,1.0,part_1,,,,,,,,,,,,,white,circle
62.0,5.0,1.0,1.0,1.0,1.0,363.7384059998112,3.0,2.0,part_1,,,,,,,,,,,,,blue,triangle
102.0,6.0,2.0,1.0,4.0,4.0,424.8866379998617,3.0,1.0,part_1,,,,,,,,,,,,,magenta,flipped triangle
384.0,8.0,4.0,1.0,1.0,1.0,458.3596300003592,3.0,1.0,part_1,,,,,,,,,,,,,white,circle
0.0,4.0,0.0,0.0,1.0,1.0,497.0490079999763,3.0,1.0,part_1,,,,,,,,,,,,,gray,hexagon
386.0,4.0,4.0,0.0,2.0,2.0,435.1633649998803,3.0,1.0,part_1,,,,,,,,,,,,,gray,hexagon
185.0,7.0,3.0,1.0,3.0,3.0,436.4508640001077,3.0,1.0,part_1,,,,,,,,,,,,,cyan,square
0.0,5.0,0.0,1.0,4.0,4.0,532.377457000166,3.0,1.0,part_1,,,,,,,,,,,,,blue,triangle
200.0,7.0,3.0,1.0,4.0,4.0,434.1464869999072,3.0,1.0,part_1,,,,,,,,,,,,,cyan,square
0.0,2.0,0.0,0.0,2.0,2.0,419.7824780003429,3.0,1.0,part_1,,,,,,,,,,,,,green,cross
399.0,4.0,4.0,0.0,3.0,3.0,399.67599900001,3.0,1.0,part_1,,,,,,,,,,,,,gray,hexagon
0.0,6.0,0.0,1.0,2.0,2.0,702.8125060001003,3.0,1.0,part_1,,,,,,,,,,,,,magenta,flipped triangle
33.0,5.0,1.0,1.0,4.0,4.0,467.0248440002069,3.0,1.0,part_1,,,,,,,,,,,,,blue,triangle
182.0,3.0,3.0,0.0,4.0,4.0,478.8556369999242,3.0,1.0,part_1,,,,,,,,,,,,,yellow,I
53.0,5.0,1.0,1.0,2.0,2.0,649.4938839996394,3.0,1.0,part_1,,,,,,,,,,,,,blue,triangle
0.0,4.0,0.0,0.0,4.0,4.0,585.9483619997263,3.0,1.0,part_1,,,,,,,,,,,,,gray,hexagon
103.0,6.0,2.0,1.0,2.0,2.0,960.026887999902,3.0,1.0,part_1,,,,,,,,,,,,,magenta,flipped triangle
212.0,7.0,3.0,1.0,2.0,2.0,703.2755300001554,3.0,1.0,part_1,,,,,,,,,,,,,cyan,square
59.0,5.0,1.0,1.0,3.0,3.0,814.8552309999104,3.0,1.0,part_1,,,,,,,,,,,,,blue,triangle
393.0,4.0,4.0,0.0,3.0,3.0,499.327620999793,3.0,1.0,part_1,,,,,,,,,,,,,gray,hexagon
189.0,7.0,3.0,1.0,4.0,4.0,551.0050010002487,3.0,1.0,part_1,,,,,,,,,,,,,cyan,square
209.0,7.0,3.0,1.0,1.0,1.0,780.4215749997638,3.0,1.0,part_1,,,,,,,,,,,,,cyan,square
36.0,5.0,1.0,1.0,1.0,1.0,857.9675799996949,3.0,1.0,part_1,,,,,,,,,,,,,blue,triangle
0.0,8.0,0.0,1.0,2.0,2.0,903.4320270002354,3.0,1.0,part_1,,,,,,,,,,,,,white,circle
44.0,1.0,1.0,0.0,3.0,3.0,611.6545370000495,3.0,1.0,part_1,,,,,,,,,,,,,orange,diamond
189.0,7.0,3.0,1.0,1.0,1.0,649.8643160002757,3.0,1.0,part_1,,,,,,,,,,,,,cyan,square
45.0,1.0,1.0,0.0,4.0,4.0,576.7622099997425,3.0,1.0,part_1,,,,,,,,,,,,,orange,diamond
390.0,8.0,4.0,1.0,4.0,4.0,469.9738609997439,3.0,1.0,part_1,,,,,,,,,,,,,white,circle
0.0,2.0,0.0,0.0,2.0,2.0,528.1489929998315,3.0,1.0,part_1,,,,,,,,,,,,,green,cross
81.0,2.0,2.0,0.0,1.0,1.0,600.0643059996946,3.0,1.0,part_1,,,,,,,,,,,,,green,cross
39.0,1.0,1.0,0.0,4.0,4.0,562.3566270000993,3.0,1.0,part_1,,,,,,,,,,,,,orange,diamond
33.0,5.0,1.0,1.0,2.0,2.0,645.8087249998243,3.0,1.0,part_1,,,,,,,,,,,,,blue,triangle
92.0,2.0,2.0,0.0,1.0,1.0,767.3215529998743,3.0,1.0,part_1,,,,,,,,,,,,,green,cross
0.0,4.0,0.0,0.0,1.0,1.0,447.0869319998201,3.0,1.0,part_1,,,,,,,,,,,,,gray,hexagon
176.0,7.0,3.0,1.0,1.0,1.0,610.6326350000018,3.0,1.0,part_1,,,,,,,,,,,,,cyan,square
99.0,2.0,2.0,0.0,2.0,2.0,409.3177240001751,3.0,1.0,part_1,,,,,,,,,,,,,green,cross
0.0,3.0,0.0,0.0,1.0,1.0,430.7835049999085,3.0,1.0,part_1,,,,,,,,,,,,,yellow,I
189.0,3.0,3.0,0.0,3.0,3.0,391.5605619999951,3.0,1.0,part_1,,,,,,,,,,,,,yellow,I
99.0,6.0,2.0,1.0,3.0,3.0,689.9640780002301,3.0,1.0,part_1,,,,,,,,,,,,,magenta,flipped triangle
384.0,8.0,4.0,1.0,4.0,4.0,645.6619179998597,3.0,1.0,part_1,,,,,,,,,,,,,white,circle
414.0,8.0,4.0,1.0,1.0,1.0,617.331655000271,3.0,1.0,part_1,,,,,,,,,,,,,white,circle
414.0,4.0,4.0,0.0,2.0,2.0,823.9213150000069,3.0,1.0,part_1,,,,,,,,,,,,,gray,hexagon
0.0,4.0,0.0,0.0,3.0,3.0,621.0135870001068,3.0,1.0,part_1,,,,,,,,,,,,,gray,hexagon
102.0,2.0,2.0,0.0,4.0,4.0,510.7942260001437,3.0,1.0,part_1,,,,,,,,,,,,,green,cross
106.0,6.0,2.0,1.0,3.0,3.0,495.2694319999864,3.0,1.0,part_1,,,,,,,,,,,,,magenta,flipped triangle
26.0,5.0,1.0,1.0,4.0,4.0,484.5992330001536,3.0,1.0,part_1,,,,,,,,,,,,,blue,triangle
113.0,2.0,2.0,0.0,3.0,3.0,573.1572969998524,3.0,1.0,part_1,,,,,,,,,,,,,green,cross
184.0,7.0,3.0,1.0,1.0,1.0,718.736698000157,3.0,1.0,part_1,,,,,,,,,,,,,cyan,square
421.0,4.0,4.0,0.0,3.0,3.0,540.1139210002839,3.0,1.0,part_1,,,,,,,,,,,,,gray,hexagon
225.0,7.0,3.0,1.0,4.0,4.0,489.2291750002187,3.0,1.0,part_1,,,,,,,,,,,,,cyan,square
211.0,3.0,3.0,0.0,3.0,3.0,528.8867420003953,3.0,1.0,part_1,,,,,,,,,,,,,yellow,I
0.0,7.0,0.0,1.0,4.0,4.0,528.0103790000794,3.0,1.0,part_1,,,,,,,,,,,,,cyan,square
84.0,6.0,2.0,1.0,4.0,4.0,445.4512090001117,3.0,1.0,part_1,,,,,,,,,,,,,magenta,flipped triangle
81.0,6.0,2.0,1.0,2.0,2.0,253.6944819999007,3.0,2.0,part_1,,,,,,,,,,,,,magenta,flipped triangle
0.0,1.0,0.0,0.0,3.0,3.0,361.6162630000872,3.0,1.0,part_1,,,,,,,,,,,,,orange,diamond
66.0,1.0,1.0,0.0,4.0,4.0,510.1672639998469,3.0,1.0,part_1,,,,,,,,,,,,,orange,diamond
418.0,4.0,4.0,0.0,2.0,2.0,642.2970300000088,3.0,1.0,part_1,,,,,,,,,,,,,gray,hexagon
199.0,3.0,3.0,0.0,1.0,1.0,652.9306679999536,3.0,1.0,part_1,,,,,,,,,,,,,yellow,I
35.0,1.0,1.0,0.0,4.0,4.0,395.8691520001594,3.0,1.0,part_1,,,,,,,,,,,,,orange,diamond
109.0,2.0,2.0,0.0,2.0,2.0,707.1638080001321,3.0,1.0,part_1,,,,,,,,,,,,,green,cross
30.0,1.0,1.0,0.0,4.0,4.0,625.207778999993,3.0,1.0,part_1,,,,,,,,,,,,,orange,diamond
408.0,4.0,4.0,0.0,3.0,3.0,511.267405000126,3.0,1.0,part_1,,,,,,,,,,,,,gray,hexagon
184.0,3.0,3.0,0.0,2.0,2.0,398.5177589997875,3.0,1.0,part_1,,,,,,,,,,,,,yellow,I
205.0,7.0,3.0,1.0,3.0,3.0,479.0841910003109,3.0,1.0,part_1,,,,,,,,,,,,,cyan,square
179.0,7.0,3.0,1.0,1.0,1.0,495.1443390000349,3.0,1.0,part_1,,,,,,,,,,,,,cyan,square
0.0,6.0,0.0,1.0,3.0,3.0,465.293517000191,3.0,1.0,part_1,,,,,,,,,,,,,magenta,flipped triangle
193.0,3.0,3.0,0.0,3.0,3.0,471.3231199998517,3.0,1.0,part_1,,,,,,,,,,,,,yellow,I
379.0,8.0,4.0,1.0,2.0,2.0,525.9478719999606,4.0,1.0,part_1,,,,,,,,,,,,,white,circle
55.0,1.0,1.0,0.0,3.0,3.0,409.7378400001616,4.0,1.0,part_1,,,,,,,,,,,,,orange,diamond
402.0,4.0,4.0,0.0,4.0,4.0,425.0995289999082,4.0,1.0,part_1,,,,,,,,,,,,,gray,hexagon
47.0,5.0,1.0,1.0,4.0,4.0,548.1398799997805,4.0,1.0,part_1,,,,,,,,,,,,,blue,triangle
396.0,8.0,4.0,1.0,2.0,2.0,565.1505200003157,4.0,1.0,part_1,,,,,,,,,,,,,white,circle
88.0,6.0,2.0,1.0,4.0,4.0,372.0287279998047,4.0,1.0,part_1,,,,,,,,,,,,,magenta,flipped triangle
88.0,2.0,2.0,0.0,2.0,2.0,685.5562719997579,4.0,1.0,part_1,,,,,,,,,,,,,green,cross
62.0,1.0,1.0,0.0,1.0,1.0,543.4604439997202,4.0,1.0,part_1,,,,,,,,,,,,,orange,diamond
116.0,6.0,2.0,1.0,1.0,1.0,484.0053679999982,4.0,1.0,part_1,,,,,,,,,,,,,magenta,flipped triangle
83.0,6.0,2.0,1.0,1.0,1.0,573.5066229999575,4.0,1.0,part_1,,,,,,,,,,,,,magenta,flipped triangle
219.0,3.0,3.0,0.0,2.0,2.0,825.1697019995845,4.0,1.0,part_1,,,,,,,,,,,,,yellow,I
105.0,2.0,2.0,0.0,1.0,1.0,632.7929650001352,4.0,1.0,part_1,,,,,,,,,,,,,green,cross
194.0,3.0,3.0,0.0,1.0,1.0,481.2250830000266,4.0,1.0,part_1,,,,,,,,,,,,,yellow,I
0.0,6.0,0.0,1.0,3.0,3.0,349.1797209999276,4.0,2.0,part_1,,,,,,,,,,,,,magenta,flipped triangle
218.0,3.0,3.0,0.0,3.0,3.0,487.0631960002356,4.0,1.0,part_1,,,,,,,,,,,,,yellow,I
59.0,1.0,1.0,0.0,1.0,1.0,819.7159240003202,4.0,1.0,part_1,,,,,,,,,,,,,orange,diamond
183.0,3.0,3.0,0.0,4.0,4.0,462.4050419997729,4.0,1.0,part_1,,,,,,,,,,,,,yellow,I
218.0,7.0,3.0,1.0,3.0,3.0,362.1562849998554,4.0,1.0,part_1,,,,,,,,,,,,,cyan,square
0.0,4.0,0.0,0.0,2.0,2.0,503.17043399991235,4.0,1.0,part_1,,,,,,,,,,,,,gray,hexagon
104.0,2.0,2.0,0.0,3.0,3.0,406.3794769999731,4.0,1.0,part_1,,,,,,,,,,,,,green,cross
0.0,7.0,0.0,1.0,4.0,4.0,384.7441889997753,4.0,1.0,part_1,,,,,,,,,,,,,cyan,square
40.0,5.0,1.0,1.0,3.0,3.0,519.7489330003009,4.0,1.0,part_1,,,,,,,,,,,,,blue,triangle
42.0,5.0,1.0,1.0,1.0,1.0,413.8026189998527,4.0,3.0,part_1,,,,,,,,,,,,,blue,triangle
0.0,7.0,0.0,1.0,4.0,4.0,472.7375970001048,4.0,1.0,part_1,,,,,,,,,,,,,cyan,square
0.0,5.0,0.0,1.0,3.0,3.0,405.5099709999012,4.0,1.0,part_1,,,,,,,,,,,,,blue,triangle
0.0,7.0,0.0,1.0,1.0,1.0,720.8738780000203,4.0,2.0,part_1,,,,,,,,,,,,,cyan,square
43.0,5.0,1.0,1.0,2.0,2.0,500.27342499970473,4.0,1.0,part_1,,,,,,,,,,,,,blue,triangle
0.0,8.0,0.0,1.0,3.0,3.0,481.2585149998085,4.0,1.0,part_1,,,,,,,,,,,,,white,circle
0.0,3.0,0.0,0.0,1.0,1.0,595.5957210003362,4.0,1.0,part_1,,,,,,,,,,,,,yellow,I
0.0,6.0,0.0,1.0,2.0,2.0,332.5159189998885,4.0,1.0,part_1,,,,,,,,,,,,,magenta,flipped triangle
396.0,4.0,4.0,0.0,1.0,1.0,410.5787520002195,4.0,1.0,part_1,,,,,,,,,,,,,gray,hexagon
398.0,8.0,4.0,1.0,4.0,4.0,830.0927380000758,4.0,2.0,part_1,,,,,,,,,,,,,white,circle
0.0,7.0,0.0,1.0,1.0,1.0,435.4312559999016,4.0,1.0,part_1,,,,,,,,,,,,,cyan,square
0.0,3.0,0.0,0.0,2.0,2.0,427.4793280001177,4.0,1.0,part_1,,,,,,,,,,,,,yellow,I
0.0,2.0,0.0,0.0,1.0,1.0,557.2152080003434,4.0,1.0,part_1,,,,,,,,,,,,,green,cross
40.0,1.0,1.0,0.0,1.0,1.0,350.3750130003027,4.0,1.0,part_1,,,,,,,,,,,,,orange,diamond
411.0,4.0,4.0,0.0,1.0,1.0,359.2760970000199,4.0,1.0,part_1,,,,,,,,,,,,,gray,hexagon
406.0,8.0,4.0,1.0,3.0,3.0,455.9331129999009,4.0,1.0,part_1,,,,,,,,,,,,,white,circle
0.0,8.0,0.0,1.0,2.0,2.0,406.823481000174,4.0,1.0,part_1,,,,,,,,,,,,,white,circle
0.0,6.0,0.0,1.0,4.0,4.0,524.986644999899,4.0,1.0,part_1,,,,,,,,,,,,,magenta,flipped triangle
0.0,7.0,0.0,1.0,4.0,4.0,500.6067909998819,4.0,1.0,part_1,,,,,,,,,,,,,cyan,square
193.0,7.0,3.0,1.0,2.0,2.0,560.7137119995969,4.0,1.0,part_1,,,,,,,,,,,,,cyan,square
219.0,7.0,3.0,1.0,2.0,2.0,550.3799520001849,4.0,1.0,part_1,,,,,,,,,,,,,cyan,square
57.0,5.0,1.0,1.0,4.0,4.0,395.7474230001025,4.0,2.0,part_1,,,,,,,,,,,,,blue,triangle
104.0,6.0,2.0,1.0,4.0,4.0,484.6228730002622,4.0,1.0,part_1,,,,,,,,,,,,,magenta,flipped triangle
423.0,4.0,4.0,0.0,4.0,4.0,527.6616219998687,4.0,1.0,part_1,,,,,,,,,,,,,gray,hexagon
222.0,3.0,3.0,0.0,3.0,3.0,555.6347990000177,4.0,1.0,part_1,,,,,,,,,,,,,yellow,I
189.0,7.0,3.0,1.0,2.0,2.0,441.9551340001817,4.0,1.0,part_1,,,,,,,,,,,,,cyan,square
120.0,6.0,2.0,1.0,1.0,1.0,425.6076869996832,4.0,1.0,part_1,,,,,,,,,,,,,magenta,flipped triangle
385.0,8.0,4.0,1.0,1.0,1.0,386.3308330001018,4.0,1.0,part_1,,,,,,,,,,,,,white,circle
0.0,8.0,0.0,1.0,1.0,1.0,324.6231279999847,4.0,1.0,part_1,,,,,,,,,,,,,white,circle
0.0,3.0,0.0,0.0,1.0,1.0,533.5598480000954,4.0,1.0,part_1,,,,,,,,,,,,,yellow,I
412.0,8.0,4.0,1.0,3.0,3.0,470.9612439996817,4.0,1.0,part_1,,,,,,,,,,,,,white,circle
31.0,5.0,1.0,1.0,3.0,3.0,362.9624949999197,4.0,1.0,part_1,,,,,,,,,,,,,blue,triangle
179.0,3.0,3.0,0.0,3.0,3.0,357.0603739999569,4.0,1.0,part_1,,,,,,,,,,,,,yellow,I
408.0,4.0,4.0,0.0,2.0,2.0,485.16491700002,4.0,1.0,part_1,,,,,,,,,,,,,gray,hexagon
199.0,7.0,3.0,1.0,2.0,2.0,402.1449430001667,4.0,1.0,part_1,,,,,,,,,,,,,cyan,square
109.0,2.0,2.0,0.0,2.0,2.0,309.8539440002241,4.0,1.0,part_1,,,,,,,,,,,,,green,cross
386.0,8.0,4.0,1.0,3.0,3.0,572.8639680000924,4.0,1.0,part_1,,,,,,,,,,,,,white,circle
62.0,5.0,1.0,1.0,4.0,4.0,791.0314850000759,4.0,1.0,part_1,,,,,,,,,,,,,blue,triangle
108.0,6.0,2.0,1.0,3.0,3.0,342.8983489998245,4.0,1.0,part_1,,,,,,,,,,,,,magenta,flipped triangle
376.0,4.0,4.0,0.0,4.0,4.0,500.8183539998754,4.0,1.0,part_1,,,,,,,,,,,,,gray,hexagon
105.0,6.0,2.0,1.0,4.0,4.0,444.4544670000141,4.0,1.0,part_1,,,,,,,,,,,,,magenta,flipped triangle
400.0,8.0,4.0,1.0,3.0,3.0,474.8173139996652,4.0,1.0,part_1,,,,,,,,,,,,,white,circle
53.0,1.0,1.0,0.0,2.0,2.0,445.6753399999797,4.0,1.0,part_1,,,,,,,,,,,,,orange,diamond
423.0,8.0,4.0,1.0,2.0,2.0,598.2859779996943,4.0,1.0,part_1,,,,,,,,,,,,,white,circle
73.0,5.0,1.0,1.0,1.0,1.0,781.8781239998316,4.0,1.0,part_1,,,,,,,,,,,,,blue,triangle
0.0,2.0,0.0,0.0,1.0,1.0,467.4556660002054,4.0,2.0,part_1,,,,,,,,,,,,,green,cross
376.0,8.0,4.0,1.0,3.0,3.0,443.3873599996332,4.0,1.0,part_1,,,,,,,,,,,,,white,circle
96.0,2.0,2.0,0.0,4.0,4.0,478.3726250002473,4.0,1.0,part_1,,,,,,,,,,,,,green,cross
104.0,2.0,2.0,0.0,1.0,1.0,499.3319469999733,4.0,1.0,part_1,,,,,,,,,,,,,green,cross
123.0,6.0,2.0,1.0,1.0,1.0,291.4852310000242,4.0,4.0,part_1,,,,,,,,,,,,,magenta,flipped triangle
33.0,1.0,1.0,0.0,4.0,4.0,452.6811709997673,4.0,1.0,part_1,,,,,,,,,,,,,orange,diamond
212.0,3.0,3.0,0.0,4.0,4.0,357.6737359999242,4.0,1.0,part_1,,,,,,,,,,,,,yellow,I
0.0,5.0,0.0,1.0,4.0,4.0,796.4943239999229,4.0,1.0,part_1,,,,,,,,,,,,,blue,triangle
120.0,2.0,2.0,0.0,4.0,4.0,409.2048700003943,4.0,1.0,part_1,,,,,,,,,,,,,green,cross
67.0,5.0,1.0,1.0,2.0,2.0,497.7958449999278,4.0,1.0,part_1,,,,,,,,,,,,,blue,triangle
66.0,5.0,1.0,1.0,1.0,1.0,563.068048000332,4.0,1.0,part_1,,,,,,,,,,,,,blue,triangle
199.0,3.0,3.0,0.0,3.0,3.0,772.3099250001724,4.0,1.0,part_1,,,,,,,,,,,,,yellow,I
0.0,6.0,0.0,1.0,2.0,2.0,791.2179180002568,4.0,1.0,part_1,,,,,,,,,,,,,magenta,flipped triangle
0.0,4.0,0.0,0.0,3.0,3.0,605.0731109999106,4.0,1.0,part_1,,,,,,,,,,,,,gray,hexagon
39.0,5.0,1.0,1.0,4.0,4.0,351.1650049999844,4.0,2.0,part_1,,,,,,,,,,,,,blue,triangle
0.0,3.0,0.0,0.0,1.0,1.0,357.4323230000118,4.0,1.0,part_1,,,,,,,,,,,,,yellow,I
215.0,7.0,3.0,1.0,4.0,4.0,412.9623560002073,4.0,1.0,part_1,,,,,,,,,,,,,cyan,square
67.0,1.0,1.0,0.0,4.0,4.0,322.1357219999845,4.0,1.0,part_1,,,,,,,,,,,,,orange,diamond
199.0,7.0,3.0,1.0,3.0,3.0,349.6270390000973,4.0,1.0,part_1,,,,,,,,,,,,,cyan,square
55.0,5.0,1.0,1.0,4.0,4.0,332.5643729999683,4.0,1.0,part_1,,,,,,,,,,,,,blue,triangle
0.0,1.0,0.0,0.0,3.0,3.0,356.1581359999763,4.0,1.0,part_1,,,,,,,,,,,,,orange,diamond
423.0,8.0,4.0,1.0,1.0,1.0,327.9965940000693,4.0,1.0,part_1,,,,,,,,,,,,,white,circle
423.0,4.0,4.0,0.0,1.0,1.0,372.969319999811,4.0,1.0,part_1,,,,,,,,,,,,,gray,hexagon
391.0,8.0,4.0,1.0,2.0,2.0,401.2880450000011,4.0,1.0,part_1,,,,,,,,,,,,,white,circle
418.0,8.0,4.0,1.0,3.0,3.0,670.0963089997458,4.0,1.0,part_1,,,,,,,,,,,,,white,circle
197.0,3.0,3.0,0.0,2.0,2.0,555.911579000167,4.0,1.0,part_1,,,,,,,,,,,,,yellow,I
419.0,4.0,4.0,0.0,1.0,1.0,223.610649999955,4.0,2.0,part_1,,,,,,,,,,,,,gray,hexagon
415.0,4.0,4.0,0.0,2.0,2.0,446.0612870002478,4.0,1.0,part_1,,,,,,,,,,,,,gray,hexagon
0.0,1.0,0.0,0.0,1.0,1.0,761.7802929999016,4.0,1.0,part_1,,,,,,,,,,,,,orange,diamond
381.0,8.0,4.0,1.0,2.0,2.0,503.8784719999967,4.0,1.0,part_1,,,,,,,,,,,,,white,circle
51.0,5.0,1.0,1.0,3.0,3.0,504.43842899994706,4.0,1.0,part_1,,,,,,,,,,,,,blue,triangle
115.0,2.0,2.0,0.0,4.0,4.0,363.123534999886,4.0,1.0,part_1,,,,,,,,,,,,,green,cross
56.0,1.0,1.0,0.0,1.0,1.0,731.0832739999569,4.0,1.0,part_1,,,,,,,,,,,,,orange,diamond
0.0,4.0,4.0,0.0,6.0,6.0,611.4612110000053,1.0,0.0,part_2,go,250.0,250.0,1.0,,,,,,,,,gray,hexagon
0.0,5.0,1.0,1.0,6.0,6.0,399.2567949999284,1.0,0.0,part_2,stop,250.0,250.0,3.0,,,,,,,,,blue,triangle
0.0,2.0,2.0,0.0,5.0,5.0,306.9129420000536,1.0,0.0,part_2,go,250.0,200.0,1.0,,,,,,,,,green,cross
0.0,2.0,2.0,0.0,6.0,6.0,439.1058280002653,1.0,0.0,part_2,go,250.0,200.0,1.0,,,,,,,,,green,cross
0.0,8.0,4.0,1.0,5.0,5.0,417.4664799998027,1.0,0.0,part_2,stop,250.0,200.0,3.0,,,,,,,,,white,circle
0.0,1.0,1.0,0.0,6.0,6.0,380.700378000256,1.0,0.0,part_2,go,200.0,200.0,1.0,,,,,,,,,orange,diamond
0.0,7.0,3.0,1.0,6.0,6.0,506.25404900029025,1.0,0.0,part_2,go,200.0,200.0,1.0,,,,,,,,,cyan,square
0.0,8.0,4.0,1.0,6.0,6.0,362.9564000002574,1.0,0.0,part_2,stop,200.0,200.0,3.0,,,,,,,,,white,circle
0.0,4.0,4.0,0.0,5.0,5.0,722.8381350000745,1.0,0.0,part_2,go,200.0,150.0,1.0,,,,,,,,,gray,hexagon
0.0,7.0,3.0,1.0,5.0,0.0,0.0,1.0,0.0,part_2,stop,200.0,150.0,4.0,,,,,,,,,cyan,square
0.0,5.0,1.0,1.0,6.0,6.0,318.894609000381,1.0,0.0,part_2,stop,250.0,150.0,3.0,,,,,,,,,blue,triangle
0.0,2.0,2.0,0.0,6.0,6.0,900.3793229999246,1.0,0.0,part_2,go,250.0,100.0,1.0,,,,,,,,,green,cross
0.0,6.0,2.0,1.0,6.0,0.0,0.0,1.0,0.0,part_2,stop,250.0,100.0,4.0,,,,,,,,,magenta,flipped triangle
0.0,3.0,3.0,0.0,6.0,6.0,786.7284679996374,1.0,0.0,part_2,go,250.0,150.0,1.0,,,,,,,,,yellow,I
0.0,7.0,3.0,1.0,6.0,6.0,684.140028999991,1.0,0.0,part_2,go,250.0,150.0,1.0,,,,,,,,,cyan,square
0.0,3.0,3.0,0.0,5.0,5.0,797.2950020002827,1.0,0.0,part_2,go,250.0,150.0,1.0,,,,,,,,,yellow,I
0.0,7.0,3.0,1.0,5.0,0.0,0.0,1.0,0.0,part_2,stop,250.0,150.0,4.0,,,,,,,,,cyan,square
0.0,7.0,3.0,1.0,6.0,0.0,0.0,1.0,0.0,part_2,stop,300.0,150.0,4.0,,,,,,,,,cyan,square
0.0,4.0,4.0,0.0,5.0,5.0,825.1102519998312,1.0,0.0,part_2,go,300.0,200.0,1.0,,,,,,,,,gray,hexagon
0.0,2.0,2.0,0.0,5.0,5.0,770.1558900002965,1.0,0.0,part_2,go,300.0,200.0,1.0,,,,,,,,,green,cross
0.0,4.0,4.0,0.0,5.0,5.0,810.8346670001083,1.0,0.0,part_2,go,300.0,200.0,1.0,,,,,,,,,gray,hexagon
0.0,7.0,3.0,1.0,5.0,0.0,0.0,1.0,0.0,part_2,stop,300.0,200.0,4.0,,,,,,,,,cyan,square
0.0,3.0,3.0,0.0,6.0,6.0,815.7259849999718,1.0,0.0,part_2,go,350.0,200.0,1.0,,,,,,,,,yellow,I
0.0,8.0,4.0,1.0,5.0,0.0,0.0,1.0,0.0,part_2,stop,350.0,200.0,4.0,,,,,,,,,white,circle
0.0,6.0,2.0,1.0,5.0,5.0,879.9180839996552,1.0,0.0,part_2,go,400.0,200.0,1.0,,,,,,,,,magenta,flipped triangle
0.0,8.0,4.0,1.0,5.0,5.0,1027.367730000151,1.0,0.0,part_2,go,400.0,200.0,1.0,,,,,,,,,white,circle
0.0,1.0,1.0,0.0,5.0,5.0,896.050870000181,1.0,0.0,part_2,go,400.0,200.0,1.0,,,,,,,,,orange,diamond
0.0,4.0,4.0,0.0,6.0,6.0,818.168813000284,1.0,0.0,part_2,go,400.0,200.0,1.0,,,,,,,,,gray,hexagon
0.0,3.0,3.0,0.0,5.0,5.0,862.0484599996416,1.0,0.0,part_2,go,400.0,200.0,1.0,,,,,,,,,yellow,I
0.0,8.0,4.0,1.0,6.0,0.0,0.0,1.0,0.0,part_2,stop,400.0,200.0,4.0,,,,,,,,,white,circle
0.0,2.0,2.0,0.0,5.0,5.0,695.0207309996586,1.0,0.0,part_2,go,400.0,250.0,1.0,,,,,,,,,green,cross
0.0,5.0,1.0,1.0,5.0,0.0,0.0,1.0,0.0,part_2,stop,400.0,250.0,4.0,,,,,,,,,blue,triangle
0.0,8.0,4.0,1.0,5.0,0.0,0.0,1.0,0.0,part_2,stop,450.0,250.0,4.0,,,,,,,,,white,circle
0.0,2.0,2.0,0.0,6.0,6.0,1127.790534000269,1.0,0.0,part_2,go,500.0,250.0,1.0,,,,,,,,,green,cross
0.0,5.0,1.0,1.0,5.0,5.0,831.9351449999886,1.0,0.0,part_2,go,500.0,250.0,1.0,,,,,,,,,blue,triangle
0.0,1.0,1.0,0.0,6.0,6.0,1006.20219800021,1.0,0.0,part_2,go,500.0,250.0,1.0,,,,,,,,,orange,diamond
0.0,3.0,3.0,0.0,5.0,5.0,835.344422000162,2.0,0.0,part_2,go,500.0,250.0,1.0,,,,,,,,,yellow,I
0.0,4.0,4.0,0.0,5.0,5.0,626.291073000175,2.0,0.0,part_2,go,500.0,250.0,1.0,,,,,,,,,gray,hexagon
0.0,4.0,4.0,0.0,6.0,6.0,560.9940670001379,2.0,0.0,part_2,go,500.0,250.0,1.0,,,,,,,,,gray,hexagon
0.0,3.0,3.0,0.0,5.0,5.0,516.9827449999502,2.0,0.0,part_2,go,500.0,250.0,1.0,,,,,,,,,yellow,I
0.0,4.0,4.0,0.0,5.0,5.0,698.0715390000114,2.0,0.0,part_2,go,500.0,250.0,1.0,,,,,,,,,gray,hexagon
0.0,8.0,4.0,1.0,6.0,6.0,468.7883639999199,2.0,0.0,part_2,stop,500.0,250.0,3.0,,,,,,,,,white,circle
0.0,1.0,1.0,0.0,6.0,6.0,756.6150860002381,2.0,0.0,part_2,go,500.0,200.0,1.0,,,,,,,,,orange,diamond
0.0,4.0,4.0,0.0,6.0,6.0,480.8911380000609,2.0,0.0,part_2,go,500.0,200.0,1.0,,,,,,,,,gray,hexagon
0.0,1.0,1.0,0.0,5.0,5.0,626.9501500000842,2.0,0.0,part_2,go,500.0,200.0,1.0,,,,,,,,,orange,diamond
0.0,7.0,3.0,1.0,6.0,6.0,300.0962870000876,2.0,0.0,part_2,stop,500.0,200.0,3.0,,,,,,,,,cyan,square
0.0,1.0,1.0,0.0,5.0,5.0,484.473373000128,2.0,0.0,part_2,go,500.0,150.0,1.0,,,,,,,,,orange,diamond
0.0,8.0,4.0,1.0,5.0,5.0,586.8877259999863,2.0,0.0,part_2,go,500.0,150.0,1.0,,,,,,,,,white,circle
0.0,3.0,3.0,0.0,6.0,6.0,469.8779529999228,2.0,0.0,part_2,go,500.0,150.0,1.0,,,,,,,,,yellow,I
0.0,6.0,2.0,1.0,6.0,0.0,0.0,2.0,0.0,part_2,stop,500.0,150.0,4.0,,,,,,,,,magenta,flipped triangle
0.0,7.0,3.0,1.0,5.0,5.0,471.1641230001078,2.0,0.0,part_2,stop,500.0,200.0,3.0,,,,,,,,,cyan,square
0.0,8.0,4.0,1.0,6.0,0.0,0.0,2.0,0.0,part_2,stop,450.0,200.0,4.0,,,,,,,,,white,circle
0.0,5.0,1.0,1.0,6.0,6.0,398.263519000011,2.0,0.0,part_2,go,450.0,250.0,1.0,,,,,,,,,blue,triangle
0.0,8.0,4.0,1.0,6.0,6.0,324.6372920002613,2.0,0.0,part_2,stop,450.0,250.0,3.0,,,,,,,,,white,circle
0.0,3.0,3.0,0.0,5.0,5.0,652.1975190003104,2.0,0.0,part_2,go,450.0,200.0,1.0,,,,,,,,,yellow,I
0.0,7.0,3.0,1.0,6.0,6.0,354.5887370000855,2.0,0.0,part_2,go,450.0,200.0,1.0,,,,,,,,,cyan,square
0.0,8.0,4.0,1.0,5.0,5.0,331.5822690001369,2.0,0.0,part_2,stop,450.0,200.0,3.0,,,,,,,,,white,circle
0.0,8.0,4.0,1.0,5.0,0.0,0.0,2.0,0.0,part_2,stop,400.0,200.0,4.0,,,,,,,,,white,circle
0.0,4.0,4.0,0.0,6.0,6.0,593.3467580002798,2.0,0.0,part_2,go,450.0,200.0,1.0,,,,,,,,,gray,hexagon
0.0,2.0,2.0,0.0,5.0,5.0,451.8553509997218,2.0,0.0,part_2,go,450.0,200.0,1.0,,,,,,,,,green,cross
0.0,7.0,3.0,1.0,6.0,6.0,277.4620039999718,2.0,0.0,part_2,go,450.0,200.0,1.0,,,,,,,,,cyan,square
0.0,6.0,2.0,1.0,5.0,5.0,288.9999810004156,2.0,0.0,part_2,stop,450.0,200.0,3.0,,,,,,,,,magenta,flipped triangle
0.0,3.0,3.0,0.0,5.0,5.0,419.6193809998476,2.0,0.0,part_2,go,400.0,200.0,1.0,,,,,,,,,yellow,I
0.0,7.0,3.0,1.0,5.0,5.0,389.9440899999717,2.0,0.0,part_2,stop,400.0,200.0,3.0,,,,,,,,,cyan,square
0.0,5.0,1.0,1.0,6.0,0.0,0.0,2.0,0.0,part_2,stop,350.0,200.0,4.0,,,,,,,,,blue,triangle
0.0,6.0,2.0,1.0,5.0,0.0,0.0,2.0,0.0,part_2,stop,350.0,250.0,4.0,,,,,,,,,magenta,flipped triangle
0.0,1.0,1.0,0.0,5.0,5.0,747.4842229999012,2.0,0.0,part_2,go,400.0,250.0,1.0,,,,,,,,,orange,diamond
0.0,3.0,3.0,0.0,6.0,6.0,472.8682009999829,2.0,0.0,part_2,go,400.0,250.0,1.0,,,,,,,,,yellow,I
0.0,8.0,4.0,1.0,6.0,6.0,398.1669980003062,2.0,0.0,part_2,stop,400.0,250.0,3.0,,,,,,,,,white,circle
0.0,1.0,1.0,0.0,6.0,6.0,727.9115520000232,2.0,0.0,part_2,go,400.0,200.0,1.0,,,,,,,,,orange,diamond
0.0,6.0,2.0,1.0,5.0,5.0,265.8099660002335,2.0,0.0,part_2,go,400.0,200.0,1.0,,,,,,,,,magenta,flipped triangle
0.0,6.0,2.0,1.0,5.0,5.0,440.9454650003681,2.0,0.0,part_2,stop,400.0,200.0,3.0,,,,,,,,,magenta,flipped triangle
0.0,7.0,3.0,1.0,5.0,5.0,1056.6114369999011,3.0,0.0,part_2,stop,350.0,200.0,3.0,,,,,,,,,cyan,square
0.0,2.0,2.0,0.0,5.0,5.0,486.0186270002486,3.0,0.0,part_2,go,300.0,200.0,1.0,,,,,,,,,green,cross
0.0,8.0,4.0,1.0,5.0,5.0,524.599746000149,3.0,0.0,part_2,stop,300.0,200.0,3.0,,,,,,,,,white,circle
0.0,2.0,2.0,0.0,6.0,6.0,540.256060000047,3.0,0.0,part_2,go,250.0,200.0,1.0,,,,,,,,,green,cross
0.0,3.0,3.0,0.0,5.0,5.0,460.1552019998962,3.0,0.0,part_2,go,250.0,200.0,1.0,,,,,,,,,yellow,I
0.0,2.0,2.0,0.0,5.0,5.0,484.94166699993,3.0,0.0,part_2,go,250.0,200.0,1.0,,,,,,,,,green,cross
0.0,1.0,1.0,0.0,6.0,6.0,669.734784999946,3.0,0.0,part_2,go,250.0,200.0,1.0,,,,,,,,,orange,diamond
0.0,4.0,4.0,0.0,6.0,6.0,529.6430710000095,3.0,0.0,part_2,go,250.0,200.0,1.0,,,,,,,,,gray,hexagon
0.0,5.0,1.0,1.0,5.0,5.0,331.3651800003754,3.0,0.0,part_2,stop,250.0,200.0,3.0,,,,,,,,,blue,triangle
0.0,5.0,1.0,1.0,5.0,5.0,523.1817520002551,3.0,0.0,part_2,go,200.0,200.0,1.0,,,,,,,,,blue,triangle
0.0,2.0,2.0,0.0,6.0,6.0,496.3277910001125,3.0,0.0,part_2,go,200.0,200.0,1.0,,,,,,,,,green,cross
0.0,5.0,1.0,1.0,6.0,0.0,0.0,3.0,0.0,part_2,stop,200.0,200.0,4.0,,,,,,,,,blue,triangle
0.0,6.0,2.0,1.0,5.0,5.0,409.574209999846,3.0,0.0,part_2,stop,200.0,250.0,3.0,,,,,,,,,magenta,flipped triangle
0.0,3.0,3.0,0.0,6.0,6.0,460.2503160003834,3.0,0.0,part_2,go,150.0,250.0,1.0,,,,,,,,,yellow,I
0.0,1.0,1.0,0.0,6.0,6.0,427.8637730003538,3.0,0.0,part_2,go,150.0,250.0,1.0,,,,,,,,,orange,diamond
0.0,6.0,2.0,1.0,5.0,0.0,0.0,3.0,0.0,part_2,stop,150.0,250.0,4.0,,,,,,,,,magenta,flipped triangle
0.0,6.0,2.0,1.0,6.0,6.0,497.4043679994793,3.0,0.0,part_2,stop,200.0,250.0,3.0,,,,,,,,,magenta,flipped triangle
0.0,3.0,3.0,0.0,5.0,5.0,538.648815999295,3.0,0.0,part_2,go,200.0,200.0,1.0,,,,,,,,,yellow,I
0.0,4.0,4.0,0.0,6.0,6.0,874.993497000105,3.0,0.0,part_2,go,200.0,200.0,1.0,,,,,,,,,gray,hexagon
0.0,4.0,4.0,0.0,6.0,6.0,535.4780340003344,3.0,0.0,part_2,go,200.0,200.0,1.0,,,,,,,,,gray,hexagon
0.0,4.0,4.0,0.0,6.0,6.0,426.2468330007323,3.0,0.0,part_2,go,200.0,200.0,1.0,,,,,,,,,gray,hexagon
0.0,5.0,1.0,1.0,6.0,0.0,0.0,3.0,0.0,part_2,stop,200.0,200.0,4.0,,,,,,,,,blue,triangle
0.0,4.0,4.0,0.0,5.0,5.0,359.2707850002625,3.0,0.0,part_2,go,200.0,250.0,1.0,,,,,,,,,gray,hexagon
0.0,8.0,4.0,1.0,6.0,6.0,500.2075900001728,3.0,0.0,part_2,go,200.0,250.0,1.0,,,,,,,,,white,circle
0.0,8.0,4.0,1.0,6.0,6.0,611.0173449997092,3.0,0.0,part_2,go,200.0,250.0,1.0,,,,,,,,,white,circle
0.0,3.0,3.0,0.0,6.0,6.0,520.0142280000364,3.0,0.0,part_2,go,200.0,250.0,1.0,,,,,,,,,yellow,I
0.0,4.0,4.0,0.0,6.0,6.0,435.4492530001153,3.0,0.0,part_2,go,200.0,250.0,1.0,,,,,,,,,gray,hexagon
0.0,5.0,1.0,1.0,6.0,0.0,0.0,3.0,0.0,part_2,stop,200.0,250.0,4.0,,,,,,,,,blue,triangle
0.0,7.0,3.0,1.0,6.0,6.0,871.253933000844,3.0,0.0,part_2,go,200.0,300.0,1.0,,,,,,,,,cyan,square
0.0,6.0,2.0,1.0,5.0,0.0,0.0,3.0,0.0,part_2,stop,200.0,300.0,4.0,,,,,,,,,magenta,flipped triangle
0.0,8.0,4.0,1.0,6.0,6.0,824.5709070006342,3.0,0.0,part_2,stop,250.0,300.0,3.0,,,,,,,,,white,circle
0.0,2.0,2.0,0.0,6.0,6.0,1075.5903910003326,3.0,0.0,part_2,go,250.0,250.0,1.0,,,,,,,,,green,cross
0.0,5.0,1.0,1.0,5.0,0.0,0.0,3.0,0.0,part_2,stop,250.0,250.0,4.0,,,,,,,,,blue,triangle
0.0,7.0,3.0,1.0,6.0,0.0,0.0,3.0,0.0,part_2,stop,300.0,250.0,4.0,,,,,,,,,cyan,square
0.0,7.0,3.0,1.0,6.0,0.0,0.0,3.0,0.0,part_2,stop,300.0,300.0,4.0,,,,,,,,,cyan,square
0.0,4.0,4.0,0.0,5.0,5.0,975.6070690000342,3.0,0.0,part_2,go,300.0,350.0,1.0,,,,,,,,,gray,hexagon
0.0,6.0,2.0,1.0,6.0,0.0,0.0,4.0,0.0,part_2,stop,300.0,350.0,4.0,,,,,,,,,magenta,flipped triangle
0.0,3.0,3.0,0.0,5.0,5.0,464.6852509995369,4.0,0.0,part_2,go,300.0,400.0,1.0,,,,,,,,,yellow,I
0.0,5.0,1.0,1.0,6.0,6.0,362.4106550005308,4.0,0.0,part_2,stop,300.0,400.0,3.0,,,,,,,,,blue,triangle
0.0,3.0,3.0,0.0,5.0,5.0,1105.3413809995618,4.0,0.0,part_2,go,300.0,350.0,1.0,,,,,,,,,yellow,I
0.0,6.0,2.0,1.0,5.0,5.0,408.5366080007588,4.0,0.0,part_2,stop,300.0,350.0,3.0,,,,,,,,,magenta,flipped triangle
0.0,5.0,1.0,1.0,5.0,0.0,0.0,4.0,0.0,part_2,stop,250.0,350.0,4.0,,,,,,,,,blue,triangle
0.0,3.0,3.0,0.0,5.0,5.0,600.4993609994926,4.0,0.0,part_2,go,300.0,350.0,1.0,,,,,,,,,yellow,I
0.0,1.0,1.0,0.0,5.0,5.0,398.9943480000875,4.0,0.0,part_2,go,300.0,350.0,1.0,,,,,,,,,orange,diamond
0.0,3.0,3.0,0.0,5.0,5.0,379.5104999999239,4.0,0.0,part_2,go,300.0,350.0,1.0,,,,,,,,,yellow,I
0.0,8.0,4.0,1.0,6.0,6.0,442.8844599997319,4.0,0.0,part_2,go,300.0,350.0,1.0,,,,,,,,,white,circle
0.0,1.0,1.0,0.0,6.0,6.0,492.6139019999027,4.0,0.0,part_2,go,300.0,350.0,1.0,,,,,,,,,orange,diamond
0.0,6.0,2.0,1.0,6.0,6.0,449.7208980001232,4.0,0.0,part_2,stop,300.0,350.0,3.0,,,,,,,,,magenta,flipped triangle
0.0,2.0,2.0,0.0,6.0,6.0,496.6479430004256,4.0,0.0,part_2,go,300.0,300.0,1.0,,,,,,,,,green,cross
0.0,1.0,1.0,0.0,5.0,5.0,402.3843710001529,4.0,0.0,part_2,go,300.0,300.0,1.0,,,,,,,,,orange,diamond
0.0,8.0,4.0,1.0,6.0,6.0,495.058163000067,4.0,0.0,part_2,stop,300.0,300.0,3.0,,,,,,,,,white,circle
0.0,5.0,1.0,1.0,6.0,6.0,421.5575799998987,4.0,0.0,part_2,stop,300.0,250.0,3.0,,,,,,,,,blue,triangle
0.0,8.0,4.0,1.0,5.0,0.0,0.0,4.0,0.0,part_2,stop,300.0,200.0,4.0,,,,,,,,,white,circle
0.0,1.0,1.0,0.0,5.0,5.0,562.7693429996725,4.0,0.0,part_2,go,350.0,200.0,1.0,,,,,,,,,orange,diamond
0.0,1.0,1.0,0.0,6.0,6.0,426.0943109993604,4.0,0.0,part_2,go,350.0,200.0,1.0,,,,,,,,,orange,diamond
0.0,1.0,1.0,0.0,6.0,6.0,333.0827649997445,4.0,0.0,part_2,go,350.0,200.0,1.0,,,,,,,,,orange,diamond
0.0,6.0,2.0,1.0,5.0,5.0,632.4018290006279,4.0,0.0,part_2,go,350.0,200.0,1.0,,,,,,,,,magenta,flipped triangle
0.0,8.0,4.0,1.0,5.0,5.0,585.0453680004648,4.0,0.0,part_2,go,350.0,200.0,1.0,,,,,,,,,white,circle
0.0,5.0,1.0,1.0,6.0,0.0,0.0,4.0,0.0,part_2,stop,350.0,200.0,4.0,,,,,,,,,blue,triangle
0.0,2.0,2.0,0.0,6.0,6.0,609.2872580002222,4.0,0.0,part_2,go,350.0,250.0,1.0,,,,,,,,,green,cross
0.0,5.0,1.0,1.0,5.0,5.0,794.2940469993118,4.0,0.0,part_2,go,350.0,250.0,1.0,,,,,,,,,blue,triangle
0.0,7.0,3.0,1.0,6.0,6.0,481.6903410001032,4.0,0.0,part_2,stop,350.0,250.0,3.0,,,,,,,,,cyan,square
0.0,7.0,3.0,1.0,5.0,0.0,0.0,4.0,0.0,part_2,stop,350.0,200.0,4.0,,,,,,,,,cyan,square
0.0,3.0,3.0,0.0,6.0,6.0,751.8256980001752,4.0,0.0,part_2,go,400.0,200.0,1.0,,,,,,,,,yellow,I
0.0,5.0,1.0,1.0,6.0,0.0,0.0,4.0,0.0,part_2,stop,400.0,200.0,4.0,,,,,,,,,blue,triangle
0.0,8.0,4.0,1.0,5.0,5.0,627.6433259999976,4.0,0.0,part_2,stop,400.0,250.0,3.0,,,,,,,,,white,circle
0.0,7.0,3.0,1.0,6.0,0.0,0.0,4.0,0.0,part_2,stop,350.0,250.0,4.0,,,,,,,,,cyan,square
0.0,6.0,2.0,1.0,5.0,5.0,850.9271620005165,4.0,0.0,part_2,go,350.0,300.0,1.0,,,,,,,,,magenta,flipped triangle
0.0,2.0,2.0,0.0,5.0,5.0,620.7304199997452,4.0,0.0,part_2,go,350.0,300.0,1.0,,,,,,,,,green,cross
0.0,2.0,2.0,0.0,5.0,5.0,695.6017219999922,4.0,0.0,part_2,go,350.0,300.0,1.0,,,,,,,,,green,cross
0.0,1.0,1.0,0.0,5.0,5.0,736.1905230000048,4.0,0.0,part_2,go,350.0,300.0,1.0,,,,,,,,,orange,diamond
0.0,5.0,1.0,1.0,6.0,6.0,461.8960040006641,4.0,0.0,part_2,stop,350.0,300.0,3.0,,,,,,,,,blue,triangle
0.0,7.0,3.0,1.0,5.0,0.0,0.0,5.0,0.0,part_2,stop,350.0,250.0,4.0,,,,,,,,,cyan,square
0.0,4.0,4.0,0.0,5.0,5.0,581.723749000048,5.0,0.0,part_2,go,400.0,250.0,1.0,,,,,,,,,gray,hexagon
0.0,6.0,2.0,1.0,6.0,6.0,386.6618519996336,5.0,0.0,part_2,go,400.0,250.0,1.0,,,,,,,,,magenta,flipped triangle
0.0,1.0,1.0,0.0,5.0,5.0,598.8840259997232,5.0,0.0,part_2,go,400.0,250.0,1.0,,,,,,,,,orange,diamond
0.0,7.0,3.0,1.0,5.0,5.0,497.6255309993576,5.0,0.0,part_2,stop,400.0,250.0,3.0,,,,,,,,,cyan,square
0.0,4.0,4.0,0.0,5.0,5.0,705.5488969999715,5.0,0.0,part_2,go,350.0,250.0,1.0,,,,,,,,,gray,hexagon
0.0,1.0,1.0,0.0,6.0,6.0,568.468574999315,5.0,0.0,part_2,go,350.0,250.0,1.0,,,,,,,,,orange,diamond
0.0,3.0,3.0,0.0,5.0,5.0,600.0463380005385,5.0,0.0,part_2,go,350.0,250.0,1.0,,,,,,,,,yellow,I
0.0,1.0,1.0,0.0,5.0,5.0,708.5822290000579,5.0,0.0,part_2,go,350.0,250.0,1.0,,,,,,,,,orange,diamond
0.0,3.0,3.0,0.0,6.0,6.0,548.3443630000693,5.0,0.0,part_2,go,350.0,250.0,1.0,,,,,,,,,yellow,I
0.0,7.0,3.0,1.0,6.0,0.0,0.0,5.0,0.0,part_2,stop,350.0,250.0,4.0,,,,,,,,,cyan,square
0.0,2.0,2.0,0.0,5.0,5.0,576.0917810002866,5.0,0.0,part_2,go,350.0,300.0,1.0,,,,,,,,,green,cross
0.0,8.0,4.0,1.0,6.0,6.0,604.6091210000668,5.0,0.0,part_2,stop,350.0,300.0,3.0,,,,,,,,,white,circle
0.0,6.0,2.0,1.0,6.0,6.0,749.3204330003209,5.0,0.0,part_2,go,350.0,250.0,1.0,,,,,,,,,magenta,flipped triangle
0.0,2.0,2.0,0.0,6.0,6.0,802.0892069998808,5.0,0.0,part_2,go,350.0,250.0,1.0,,,,,,,,,green,cross
0.0,1.0,1.0,0.0,5.0,5.0,452.8819560000556,5.0,0.0,part_2,go,350.0,250.0,1.0,,,,,,,,,orange,diamond
0.0,5.0,1.0,1.0,6.0,6.0,464.5042920001287,5.0,0.0,part_2,stop,350.0,250.0,3.0,,,,,,,,,blue,triangle
0.0,1.0,1.0,0.0,6.0,6.0,1010.0230680000095,5.0,0.0,part_2,go,350.0,200.0,1.0,,,,,,,,,orange,diamond
0.0,4.0,4.0,0.0,6.0,6.0,414.8206939998999,5.0,0.0,part_2,go,350.0,200.0,1.0,,,,,,,,,gray,hexagon
0.0,5.0,1.0,1.0,5.0,5.0,654.1543549992639,5.0,0.0,part_2,stop,350.0,200.0,3.0,,,,,,,,,blue,triangle
0.0,7.0,3.0,1.0,6.0,6.0,374.1271919998326,5.0,0.0,part_2,go,300.0,200.0,1.0,,,,,,,,,cyan,square
0.0,7.0,3.0,1.0,5.0,0.0,0.0,5.0,0.0,part_2,stop,300.0,200.0,4.0,,,,,,,,,cyan,square
0.0,4.0,4.0,0.0,6.0,6.0,612.4760180000521,5.0,0.0,part_2,go,350.0,200.0,1.0,,,,,,,,,gray,hexagon
0.0,6.0,2.0,1.0,5.0,5.0,471.1606829996526,5.0,0.0,part_2,go,350.0,200.0,1.0,,,,,,,,,magenta,flipped triangle
0.0,6.0,2.0,1.0,5.0,5.0,516.7152499998338,5.0,0.0,part_2,stop,350.0,200.0,3.0,,,,,,,,,magenta,flipped triangle
0.0,1.0,1.0,0.0,5.0,5.0,731.2503470002412,5.0,0.0,part_2,go,300.0,200.0,1.0,,,,,,,,,orange,diamond
0.0,6.0,2.0,1.0,6.0,6.0,333.6753129997305,5.0,0.0,part_2,stop,300.0,200.0,3.0,,,,,,,,,magenta,flipped triangle
0.0,5.0,1.0,1.0,5.0,0.0,0.0,5.0,0.0,part_2,stop,300.0,150.0,4.0,,,,,,,,,blue,triangle
0.0,7.0,3.0,1.0,5.0,5.0,648.6910089997764,5.0,0.0,part_2,go,350.0,150.0,1.0,,,,,,,,,cyan,square
0.0,7.0,3.0,1.0,5.0,5.0,486.0516759999882,5.0,0.0,part_2,stop,350.0,150.0,3.0,,,,,,,,,cyan,square
0.0,3.0,3.0,0.0,6.0,6.0,572.4511009993876,5.0,0.0,part_2,go,300.0,150.0,1.0,,,,,,,,,yellow,I
0.0,2.0,2.0,0.0,5.0,5.0,418.6130620000767,5.0,0.0,part_2,go,300.0,150.0,1.0,,,,,,,,,green,cross
0.0,7.0,3.0,1.0,5.0,0.0,0.0,5.0,0.0,part_2,stop,300.0,150.0,4.0,,,,,,,,,cyan,square
0.0,8.0,4.0,1.0,5.0,5.0,639.9024709999139,5.0,0.0,part_2,go,350.0,150.0,1.0,,,,,,,,,white,circle
0.0,6.0,2.0,1.0,6.0,6.0,370.1869899996381,5.0,0.0,part_2,stop,350.0,150.0,3.0,,,,,,,,,magenta,flipped triangle
0.0,8.0,4.0,1.0,5.0,0.0,0.0,5.0,0.0,part_2,stop,350.0,100.0,4.0,,,,,,,,,white,circle
0.0,4.0,4.0,0.0,6.0,6.0,810.2051899995786,6.0,0.0,part_2,go,400.0,100.0,1.0,,,,,,,,,gray,hexagon
0.0,4.0,4.0,0.0,5.0,5.0,699.443878999773,6.0,0.0,part_2,go,400.0,100.0,1.0,,,,,,,,,gray,hexagon
0.0,4.0,4.0,0.0,5.0,5.0,423.6597239996627,6.0,0.0,part_2,go,400.0,100.0,1.0,,,,,,,,,gray,hexagon
0.0,6.0,2.0,1.0,6.0,0.0,0.0,6.0,0.0,part_2,stop,400.0,100.0,4.0,,,,,,,,,magenta,flipped triangle
0.0,3.0,3.0,0.0,6.0,6.0,560.0780929999019,6.0,0.0,part_2,go,400.0,150.0,1.0,,,,,,,,,yellow,I
0.0,2.0,2.0,0.0,5.0,5.0,298.4075930007748,6.0,0.0,part_2,go,400.0,150.0,1.0,,,,,,,,,green,cross
0.0,7.0,3.0,1.0,6.0,0.0,0.0,6.0,0.0,part_2,stop,400.0,150.0,4.0,,,,,,,,,cyan,square
0.0,2.0,2.0,0.0,5.0,5.0,436.5777419998267,6.0,0.0,part_2,go,400.0,200.0,1.0,,,,,,,,,green,cross
0.0,6.0,2.0,1.0,6.0,0.0,0.0,6.0,0.0,part_2,stop,400.0,200.0,4.0,,,,,,,,,magenta,flipped triangle
0.0,4.0,4.0,0.0,5.0,5.0,416.6381019995242,6.0,0.0,part_2,go,400.0,250.0,1.0,,,,,,,,,gray,hexagon
0.0,4.0,4.0,0.0,6.0,6.0,818.5497699996631,6.0,0.0,part_2,go,400.0,250.0,1.0,,,,,,,,,gray,hexagon
0.0,6.0,2.0,1.0,6.0,0.0,0.0,6.0,0.0,part_2,stop,400.0,250.0,4.0,,,,,,,,,magenta,flipped triangle
0.0,1.0,1.0,0.0,6.0,6.0,603.4503519995269,6.0,0.0,part_2,go,400.0,300.0,1.0,,,,,,,,,orange,diamond
0.0,5.0,1.0,1.0,5.0,5.0,470.5409480002345,6.0,0.0,part_2,go,400.0,300.0,1.0,,,,,,,,,blue,triangle
0.0,6.0,2.0,1.0,6.0,6.0,327.4974930000098,6.0,0.0,part_2,go,400.0,300.0,1.0,,,,,,,,,magenta,flipped triangle
0.0,3.0,3.0,0.0,6.0,6.0,525.1565680000567,6.0,0.0,part_2,go,400.0,300.0,1.0,,,,,,,,,yellow,I
0.0,5.0,1.0,1.0,6.0,6.0,421.8519750002087,6.0,0.0,part_2,stop,400.0,300.0,3.0,,,,,,,,,blue,triangle
0.0,2.0,2.0,0.0,6.0,6.0,562.7697780000744,6.0,0.0,part_2,go,400.0,250.0,1.0,,,,,,,,,green,cross
0.0,1.0,1.0,0.0,6.0,6.0,1330.4455840006997,6.0,0.0,part_2,go,400.0,250.0,1.0,,,,,,,,,orange,diamond
0.0,4.0,4.0,0.0,5.0,5.0,580.2074359999096,6.0,0.0,part_2,go,400.0,250.0,1.0,,,,,,,,,gray,hexagon
0.0,5.0,1.0,1.0,6.0,6.0,514.7962289993302,6.0,0.0,part_2,go,400.0,250.0,1.0,,,,,,,,,blue,triangle
0.0,6.0,2.0,1.0,6.0,0.0,0.0,6.0,0.0,part_2,stop,400.0,250.0,4.0,,,,,,,,,magenta,flipped triangle
0.0,7.0,3.0,1.0,5.0,0.0,0.0,6.0,0.0,part_2,stop,400.0,300.0,4.0,,,,,,,,,cyan,square
0.0,8.0,4.0,1.0,6.0,6.0,528.0859139993481,6.0,0.0,part_2,go,450.0,300.0,1.0,,,,,,,,,white,circle
0.0,6.0,2.0,1.0,6.0,6.0,644.7600840001542,6.0,0.0,part_2,go,450.0,300.0,1.0,,,,,,,,,magenta,flipped triangle
0.0,3.0,3.0,0.0,6.0,6.0,617.2737349997988,6.0,0.0,part_2,go,450.0,300.0,1.0,,,,,,,,,yellow,I
0.0,2.0,2.0,0.0,6.0,6.0,698.8474660001884,6.0,0.0,part_2,go,450.0,300.0,1.0,,,,,,,,,green,cross
0.0,3.0,3.0,0.0,5.0,5.0,553.3296240000709,6.0,0.0,part_2,go,450.0,300.0,1.0,,,,,,,,,yellow,I
0.0,6.0,2.0,1.0,6.0,0.0,0.0,6.0,0.0,part_2,stop,450.0,300.0,4.0,,,,,,,,,magenta,flipped triangle
0.0,2.0,2.0,0.0,5.0,5.0,499.1032039997662,6.0,0.0,part_2,go,450.0,350.0,1.0,,,,,,,,,green,cross
0.0,3.0,3.0,0.0,5.0,5.0,375.4698929997175,6.0,0.0,part_2,go,450.0,350.0,1.0,,,,,,,,,yellow,I
0.0,5.0,1.0,1.0,5.0,5.0,690.994411000247,6.0,0.0,part_2,go,450.0,350.0,1.0,,,,,,,,,blue,triangle
0.0,8.0,4.0,1.0,5.0,5.0,492.3557820002315,6.0,0.0,part_2,stop,450.0,350.0,3.0,,,,,,,,,white,circle
0.0,7.0,3.0,1.0,5.0,5.0,726.4874319998853,6.0,0.0,part_2,go,400.0,350.0,1.0,,,,,,,,,cyan,square
0.0,2.0,2.0,0.0,6.0,6.0,578.2477520006069,6.0,0.0,part_2,go,400.0,350.0,1.0,,,,,,,,,green,cross
0.0,4.0,4.0,0.0,6.0,6.0,464.9715089999517,6.0,0.0,part_2,go,400.0,350.0,1.0,,,,,,,,,gray,hexagon
0.0,1.0,1.0,0.0,6.0,6.0,905.106625999906,7.0,0.0,part_2,go,400.0,350.0,1.0,,,,,,,,,orange,diamond
0.0,6.0,2.0,1.0,5.0,5.0,555.6270779998158,7.0,0.0,part_2,stop,400.0,350.0,3.0,,,,,,,,,magenta,flipped triangle
0.0,8.0,4.0,1.0,5.0,0.0,0.0,7.0,0.0,part_2,stop,350.0,350.0,4.0,,,,,,,,,white,circle
0.0,1.0,1.0,0.0,5.0,5.0,735.7718069997645,7.0,0.0,part_2,go,400.0,350.0,1.0,,,,,,,,,orange,diamond
0.0,1.0,1.0,0.0,5.0,5.0,436.5656449999733,7.0,0.0,part_2,go,400.0,350.0,1.0,,,,,,,,,orange,diamond
0.0,3.0,3.0,0.0,6.0,6.0,393.6411190006765,7.0,0.0,part_2,go,400.0,350.0,1.0,,,,,,,,,yellow,I
0.0,5.0,1.0,1.0,6.0,6.0,449.6155400001953,7.0,0.0,part_2,stop,400.0,350.0,3.0,,,,,,,,,blue,triangle
0.0,1.0,1.0,0.0,6.0,6.0,593.9552250001725,7.0,0.0,part_2,go,400.0,300.0,1.0,,,,,,,,,orange,diamond
0.0,8.0,4.0,1.0,6.0,0.0,0.0,7.0,0.0,part_2,stop,400.0,300.0,4.0,,,,,,,,,white,circle
0.0,1.0,1.0,0.0,5.0,5.0,756.7306740002095,7.0,0.0,part_2,go,400.0,350.0,1.0,,,,,,,,,orange,diamond
0.0,4.0,4.0,0.0,5.0,5.0,693.3239729996785,7.0,0.0,part_2,go,400.0,350.0,1.0,,,,,,,,,gray,hexagon
0.0,5.0,1.0,1.0,5.0,5.0,366.2034140006653,7.0,0.0,part_2,stop,400.0,350.0,3.0,,,,,,,,,blue,triangle
0.0,3.0,3.0,0.0,5.0,5.0,644.870981999702,7.0,0.0,part_2,go,350.0,350.0,1.0,,,,,,,,,yellow,I
0.0,7.0,3.0,1.0,6.0,6.0,342.1443679999356,7.0,0.0,part_2,go,350.0,350.0,1.0,,,,,,,,,cyan,square
0.0,7.0,3.0,1.0,6.0,6.0,418.0846809995273,7.0,0.0,part_2,stop,350.0,350.0,3.0,,,,,,,,,cyan,square
0.0,8.0,4.0,1.0,6.0,0.0,0.0,7.0,0.0,part_2,stop,350.0,300.0,4.0,,,,,,,,,white,circle
0.0,4.0,4.0,0.0,6.0,6.0,590.0636620008299,7.0,0.0,part_2,go,350.0,350.0,1.0,,,,,,,,,gray,hexagon
0.0,8.0,4.0,1.0,5.0,5.0,468.9681439995183,7.0,0.0,part_2,stop,350.0,350.0,3.0,,,,,,,,,white,circle
0.0,2.0,2.0,0.0,5.0,5.0,596.538695000163,7.0,0.0,part_2,go,300.0,350.0,1.0,,,,,,,,,green,cross
0.0,1.0,1.0,0.0,6.0,6.0,564.9860550001904,7.0,0.0,part_2,go,300.0,350.0,1.0,,,,,,,,,orange,diamond
0.0,1.0,1.0,0.0,5.0,5.0,356.2682129995664,7.0,0.0,part_2,go,300.0,350.0,1.0,,,,,,,,,orange,diamond
0.0,5.0,1.0,1.0,5.0,5.0,420.7779230000597,7.0,0.0,part_2,go,300.0,350.0,1.0,,,,,,,,,blue,triangle
0.0,5.0,1.0,1.0,6.0,6.0,417.5151469999036,7.0,0.0,part_2,go,300.0,350.0,1.0,,,,,,,,,blue,triangle
0.0,1.0,1.0,0.0,6.0,6.0,437.5966769994193,7.0,0.0,part_2,go,300.0,350.0,1.0,,,,,,,,,orange,diamond
0.0,2.0,2.0,0.0,6.0,6.0,481.2315290000697,7.0,0.0,part_2,go,300.0,350.0,1.0,,,,,,,,,green,cross
0.0,3.0,3.0,0.0,6.0,6.0,384.9701230001301,7.0,0.0,part_2,go,300.0,350.0,1.0,,,,,,,,,yellow,I
0.0,5.0,1.0,1.0,5.0,5.0,340.5619739996837,7.0,0.0,part_2,stop,300.0,350.0,3.0,,,,,,,,,blue,triangle
0.0,6.0,2.0,1.0,5.0,0.0,0.0,7.0,0.0,part_2,stop,250.0,350.0,4.0,,,,,,,,,magenta,flipped triangle
0.0,3.0,3.0,0.0,5.0,5.0,593.3839709996391,7.0,0.0,part_2,go,300.0,350.0,1.0,,,,,,,,,yellow,I
0.0,6.0,2.0,1.0,5.0,5.0,376.7615930000829,7.0,0.0,part_2,stop,300.0,350.0,3.0,,,,,,,,,magenta,flipped triangle
0.0,3.0,3.0,0.0,6.0,6.0,470.90689200013,7.0,0.0,part_2,go,250.0,350.0,1.0,,,,,,,,,yellow,I
0.0,4.0,4.0,0.0,5.0,5.0,293.1459789997461,7.0,0.0,part_2,go,250.0,350.0,1.0,,,,,,,,,gray,hexagon
0.0,1.0,1.0,0.0,5.0,5.0,419.5940480003628,7.0,0.0,part_2,go,250.0,350.0,1.0,,,,,,,,,orange,diamond
0.0,4.0,4.0,0.0,6.0,6.0,397.2696569999243,7.0,0.0,part_2,go,250.0,350.0,1.0,,,,,,,,,gray,hexagon
0.0,1.0,1.0,0.0,5.0,5.0,553.6477249997915,7.0,0.0,part_2,go,250.0,350.0,1.0,,,,,,,,,orange,diamond
0.0,6.0,2.0,1.0,5.0,0.0,0.0,7.0,0.0,part_2,stop,250.0,350.0,4.0,,,,,,,,,magenta,flipped triangle
0.0,4.0,4.0,0.0,6.0,6.0,500.26741300007416,8.0,0.0,part_2,go,300.0,350.0,1.0,,,,,,,,,gray,hexagon
0.0,8.0,4.0,1.0,5.0,5.0,527.3250370000824,8.0,0.0,part_2,go,300.0,350.0,1.0,,,,,,,,,white,circle
0.0,6.0,2.0,1.0,5.0,5.0,398.356949999652,8.0,0.0,part_2,stop,300.0,350.0,3.0,,,,,,,,,magenta,flipped triangle
0.0,3.0,3.0,0.0,5.0,5.0,678.7288709992936,8.0,0.0,part_2,go,250.0,350.0,1.0,,,,,,,,,yellow,I
0.0,8.0,4.0,1.0,6.0,6.0,417.7438749993598,8.0,0.0,part_2,stop,250.0,350.0,3.0,,,,,,,,,white,circle
0.0,7.0,3.0,1.0,6.0,0.0,0.0,8.0,0.0,part_2,stop,250.0,300.0,4.0,,,,,,,,,cyan,square
0.0,2.0,2.0,0.0,6.0,6.0,787.6295240002946,8.0,0.0,part_2,go,250.0,350.0,1.0,,,,,,,,,green,cross
0.0,4.0,4.0,0.0,5.0,5.0,614.6838639997441,8.0,0.0,part_2,go,250.0,350.0,1.0,,,,,,,,,gray,hexagon
0.0,2.0,2.0,0.0,5.0,5.0,497.5220590004028,8.0,0.0,part_2,go,250.0,350.0,1.0,,,,,,,,,green,cross
0.0,3.0,3.0,0.0,6.0,6.0,579.2197490000035,8.0,0.0,part_2,go,250.0,350.0,1.0,,,,,,,,,yellow,I
0.0,5.0,1.0,1.0,5.0,0.0,0.0,8.0,0.0,part_2,stop,250.0,350.0,4.0,,,,,,,,,blue,triangle
0.0,8.0,4.0,1.0,5.0,0.0,0.0,8.0,0.0,part_2,stop,300.0,350.0,4.0,,,,,,,,,white,circle
0.0,5.0,1.0,1.0,6.0,0.0,0.0,8.0,0.0,part_2,stop,350.0,350.0,4.0,,,,,,,,,blue,triangle
0.0,2.0,2.0,0.0,5.0,5.0,444.1016450000461,8.0,0.0,part_2,go,350.0,400.0,1.0,,,,,,,,,green,cross
0.0,2.0,2.0,0.0,5.0,5.0,1268.375333000222,8.0,0.0,part_2,go,350.0,400.0,1.0,,,,,,,,,green,cross
0.0,8.0,4.0,1.0,6.0,6.0,274.6325140005865,8.0,0.0,part_2,stop,350.0,400.0,3.0,,,,,,,,,white,circle
0.0,3.0,3.0,0.0,6.0,6.0,733.9655939995282,8.0,0.0,part_2,go,350.0,350.0,1.0,,,,,,,,,yellow,I
0.0,7.0,3.0,1.0,5.0,0.0,0.0,8.0,0.0,part_2,stop,350.0,350.0,4.0,,,,,,,,,cyan,square
0.0,2.0,2.0,0.0,6.0,6.0,621.0644120001234,8.0,0.0,part_2,go,400.0,350.0,1.0,,,,,,,,,green,cross
0.0,5.0,1.0,1.0,5.0,0.0,0.0,8.0,0.0,part_2,stop,400.0,350.0,4.0,,,,,,,,,blue,triangle
0.0,4.0,4.0,0.0,5.0,5.0,1350.5260000001726,8.0,0.0,part_2,go,450.0,350.0,1.0,,,,,,,,,gray,hexagon
0.0,7.0,3.0,1.0,6.0,6.0,535.1781850004045,8.0,0.0,part_2,stop,450.0,350.0,3.0,,,,,,,,,cyan,square
0.0,6.0,2.0,1.0,6.0,0.0,0.0,8.0,0.0,part_2,stop,450.0,300.0,4.0,,,,,,,,,magenta,flipped triangle
0.0,2.0,2.0,0.0,6.0,6.0,435.8679850001863,8.0,0.0,part_2,go,450.0,350.0,1.0,,,,,,,,,green,cross
0.0,2.0,2.0,0.0,5.0,5.0,391.8636630005494,8.0,0.0,part_2,go,450.0,350.0,1.0,,,,,,,,,green,cross
0.0,4.0,4.0,0.0,5.0,5.0,690.1878839998972,8.0,0.0,part_2,go,450.0,350.0,1.0,,,,,,,,,gray,hexagon
0.0,7.0,3.0,1.0,5.0,5.0,675.6309569991572,8.0,0.0,part_2,stop,450.0,350.0,3.0,,,,,,,,,cyan,square
0.0,5.0,1.0,1.0,5.0,0.0,0.0,8.0,0.0,part_2,stop,400.0,350.0,4.0,,,,,,,,,blue,triangle
0.0,5.0,1.0,1.0,5.0,0.0,0.0,8.0,0.0,part_2,stop,450.0,350.0,4.0,,,,,,,,,blue,triangle
0.0,2.0,2.0,0.0,6.0,6.0,510.1446990001932,8.0,0.0,part_2,go,500.0,350.0,1.0,,,,,,,,,green,cross
0.0,2.0,2.0,0.0,6.0,6.0,425.4007190002085,8.0,0.0,part_2,go,500.0,350.0,1.0,,,,,,,,,green,cross
0.0,8.0,4.0,1.0,6.0,6.0,391.2805079999089,8.0,0.0,part_2,stop,500.0,350.0,3.0,,,,,,,,,white,circle
0.0,1.0,1.0,0.0,6.0,6.0,640.3886469997815,8.0,0.0,part_2,go,500.0,300.0,1.0,,,,,,,,,orange,diamond
0.0,7.0,3.0,1.0,5.0,5.0,470.0038540004243,8.0,0.0,part_2,stop,500.0,300.0,3.0,,,,,,,,,cyan,square
0.0,6.0,2.0,1.0,6.0,6.0,339.6394589999545,8.0,0.0,part_2,stop,450.0,300.0,3.0,,,,,,,,,magenta,flipped triangle
0.0,3.0,3.0,0.0,6.0,6.0,699.9843969997528,8.0,0.0,part_2,go,450.0,250.0,1.0,,,,,,,,,yellow,I
0.0,6.0,2.0,1.0,7.0,4.0,4481.731889999537,1.0,2.0,part_3,go,0.0,0.0,0.0,117.0,3.0,234.0,39.0,78.0,117.0,156.0,195.0,magenta,flipped triangle
0.0,3.0,3.0,0.0,7.0,2.0,1457.7237390003577,1.0,2.0,part_3,go,0.0,0.0,0.0,245.0,5.0,49.0,245.0,98.0,294.0,196.0,147.0,yellow,I
0.0,6.0,2.0,1.0,7.0,6.0,3726.184134000505,1.0,1.0,part_3,go,0.0,0.0,0.0,136.0,4.0,102.0,170.0,68.0,204.0,34.0,136.0,magenta,flipped triangle
0.0,8.0,4.0,1.0,7.0,5.0,1042.5255790005394,1.0,2.0,part_3,go,0.0,0.0,0.0,102.0,3.0,204.0,170.0,34.0,136.0,102.0,68.0,white,circle
0.0,8.0,4.0,1.0,7.0,2.0,3519.695087999935,1.0,1.0,part_3,go,0.0,0.0,0.0,147.0,3.0,196.0,147.0,294.0,245.0,49.0,98.0,white,circle
0.0,1.0,1.0,0.0,7.0,5.0,1939.458934999493,1.0,1.0,part_3,go,0.0,0.0,0.0,88.0,2.0,264.0,44.0,132.0,176.0,88.0,220.0,orange,diamond
0.0,1.0,1.0,0.0,7.0,6.0,3352.5046519998796,1.0,1.0,part_3,go,0.0,0.0,0.0,162.0,3.0,108.0,54.0,216.0,324.0,270.0,162.0,orange,diamond
0.0,4.0,4.0,0.0,7.0,5.0,3842.9780249998657,1.0,1.0,part_3,go,0.0,0.0,0.0,108.0,2.0,162.0,270.0,54.0,216.0,108.0,324.0,gray,hexagon
0.0,5.0,1.0,1.0,7.0,6.0,2326.545731000806,1.0,1.0,part_3,go,0.0,0.0,0.0,78.0,2.0,195.0,234.0,117.0,39.0,156.0,78.0,blue,triangle
0.0,3.0,3.0,0.0,7.0,6.0,4518.468225000106,1.0,1.0,part_3,go,0.0,0.0,0.0,195.0,5.0,234.0,117.0,156.0,78.0,39.0,195.0,yellow,I
0.0,5.0,1.0,1.0,7.0,1.0,3978.922211000281,1.0,1.0,part_3,go,0.0,0.0,0.0,136.0,4.0,136.0,204.0,34.0,102.0,68.0,170.0,blue,triangle
0.0,8.0,4.0,1.0,7.0,4.0,3763.0397920002,1.0,1.0,part_3,go,0.0,0.0,0.0,132.0,3.0,176.0,88.0,44.0,132.0,220.0,264.0,white,circle
0.0,5.0,1.0,1.0,7.0,5.0,3927.593569999772,1.0,1.0,part_3,go,0.0,0.0,0.0,88.0,2.0,132.0,44.0,220.0,176.0,88.0,264.0,blue,triangle
0.0,2.0,2.0,0.0,7.0,6.0,4366.314152000086,1.0,1.0,part_3,go,0.0,0.0,0.0,170.0,5.0,34.0,204.0,136.0,68.0,102.0,170.0,green,cross
0.0,7.0,3.0,1.0,7.0,4.0,3225.222109000242,1.0,1.0,part_3,go,0.0,0.0,0.0,108.0,2.0,324.0,162.0,270.0,108.0,54.0,216.0,cyan,square
0.0,1.0,1.0,0.0,7.0,5.0,3199.618238999392,1.0,1.0,part_3,go,0.0,0.0,0.0,98.0,2.0,49.0,147.0,196.0,294.0,98.0,245.0,orange,diamond
0.0,2.0,2.0,0.0,7.0,4.0,300.7257129993377,1.0,2.0,part_3,go,0.0,0.0,0.0,234.0,6.0,117.0,78.0,156.0,234.0,195.0,39.0,green,cross
0.0,1.0,1.0,0.0,7.0,5.0,2437.5010809999367,1.0,1.0,part_3,go,0.0,0.0,0.0,270.0,5.0,54.0,324.0,216.0,162.0,270.0,108.0,orange,diamond
0.0,2.0,2.0,0.0,7.0,3.0,3296.087245000308,1.0,1.0,part_3,go,0.0,0.0,0.0,132.0,3.0,44.0,176.0,132.0,88.0,264.0,220.0,green,cross
0.0,8.0,4.0,1.0,7.0,2.0,3597.4776070006556,1.0,1.0,part_3,go,0.0,0.0,0.0,216.0,4.0,54.0,216.0,162.0,270.0,324.0,108.0,white,circle
0.0,3.0,3.0,0.0,7.0,5.0,2683.2690979999825,2.0,1.0,part_3,go,0.0,0.0,0.0,156.0,4.0,234.0,195.0,78.0,39.0,156.0,117.0,yellow,I
0.0,6.0,2.0,1.0,7.0,1.0,3769.4703380002466,2.0,1.0,part_3,go,0.0,0.0,0.0,270.0,5.0,270.0,108.0,324.0,216.0,54.0,162.0,magenta,flipped triangle
0.0,2.0,2.0,0.0,7.0,1.0,3601.8800659994668,2.0,1.0,part_3,go,0.0,0.0,0.0,216.0,4.0,216.0,108.0,324.0,270.0,162.0,54.0,green,cross
0.0,1.0,1.0,0.0,7.0,5.0,2781.8580169996494,2.0,1.0,part_3,go,0.0,0.0,0.0,234.0,6.0,39.0,195.0,117.0,78.0,234.0,156.0,orange,diamond
0.0,4.0,4.0,0.0,7.0,3.0,2064.3658280005184,2.0,1.0,part_3,go,0.0,0.0,0.0,170.0,5.0,102.0,68.0,170.0,204.0,34.0,136.0,gray,hexagon
0.0,4.0,4.0,0.0,7.0,6.0,2536.3251649996528,2.0,1.0,part_3,go,0.0,0.0,0.0,195.0,5.0,156.0,117.0,78.0,234.0,39.0,195.0,gray,hexagon
0.0,2.0,2.0,0.0,7.0,4.0,3022.4995090002267,2.0,1.0,part_3,go,0.0,0.0,0.0,196.0,4.0,245.0,98.0,147.0,196.0,294.0,49.0,green,cross
0.0,4.0,4.0,0.0,7.0,3.0,3906.851142999585,2.0,1.0,part_3,go,0.0,0.0,0.0,196.0,4.0,98.0,49.0,196.0,294.0,147.0,245.0,gray,hexagon
0.0,7.0,3.0,1.0,7.0,5.0,3323.2880559999103,2.0,1.0,part_3,go,0.0,0.0,0.0,156.0,4.0,78.0,234.0,195.0,39.0,156.0,117.0,cyan,square
0.0,3.0,3.0,0.0,7.0,4.0,2802.936719000172,2.0,1.0,part_3,go,0.0,0.0,0.0,220.0,5.0,44.0,132.0,88.0,220.0,264.0,176.0,yellow,I
0.0,1.0,1.0,0.0,7.0,2.0,4915.788795000481,2.0,1.0,part_3,go,0.0,0.0,0.0,147.0,3.0,196.0,147.0,49.0,98.0,294.0,245.0,orange,diamond
0.0,3.0,3.0,0.0,7.0,3.0,3767.933826000444,2.0,1.0,part_3,go,0.0,0.0,0.0,162.0,3.0,216.0,108.0,162.0,54.0,324.0,270.0,yellow,I
0.0,5.0,1.0,1.0,7.0,1.0,2987.007903999256,2.0,1.0,part_3,go,0.0,0.0,0.0,147.0,3.0,147.0,98.0,294.0,196.0,49.0,245.0,blue,triangle
0.0,7.0,3.0,1.0,7.0,2.0,3210.6897929998013,2.0,1.0,part_3,go,0.0,0.0,0.0,176.0,4.0,220.0,176.0,88.0,264.0,44.0,132.0,cyan,square
0.0,3.0,3.0,0.0,7.0,3.0,3167.3390179994385,2.0,1.0,part_3,go,0.0,0.0,0.0,170.0,5.0,34.0,204.0,170.0,68.0,136.0,102.0,yellow,I
0.0,7.0,3.0,1.0,7.0,1.0,4616.635122999469,2.0,1.0,part_3,go,0.0,0.0,0.0,156.0,4.0,156.0,117.0,78.0,195.0,234.0,39.0,cyan,square
0.0,6.0,2.0,1.0,7.0,4.0,360.7487070003117,2.0,2.0,part_3,go,0.0,0.0,0.0,176.0,4.0,264.0,132.0,88.0,176.0,44.0,220.0,magenta,flipped triangle
0.0,6.0,2.0,1.0,7.0,4.0,547.8436530002,2.0,1.0,part_3,go,0.0,0.0,0.0,136.0,4.0,102.0,170.0,204.0,136.0,68.0,34.0,magenta,flipped triangle
0.0,1.0,1.0,0.0,7.0,5.0,3006.9652049996876,2.0,1.0,part_3,go,0.0,0.0,0.0,176.0,4.0,88.0,132.0,264.0,44.0,176.0,220.0,orange,diamond
0.0,4.0,4.0,0.0,7.0,5.0,2188.1022170000506,2.0,1.0,part_3,go,0.0,0.0,0.0,156.0,4.0,39.0,117.0,78.0,234.0,156.0,195.0,gray,hexagon
0.0,3.0,3.0,0.0,7.0,3.0,3390.7461759999933,3.0,1.0,part_3,go,0.0,0.0,0.0,176.0,4.0,44.0,88.0,176.0,132.0,264.0,220.0,yellow,I
0.0,5.0,1.0,1.0,7.0,4.0,1698.6150989996531,3.0,1.0,part_3,go,0.0,0.0,0.0,98.0,2.0,147.0,49.0,196.0,98.0,294.0,245.0,blue,triangle
0.0,6.0,2.0,1.0,7.0,6.0,2264.974085999711,3.0,1.0,part_3,go,0.0,0.0,0.0,156.0,4.0,117.0,234.0,78.0,195.0,39.0,156.0,magenta,flipped triangle
0.0,5.0,1.0,1.0,7.0,1.0,3671.290386999317,3.0,1.0,part_3,go,0.0,0.0,0.0,136.0,4.0,136.0,34.0,204.0,102.0,68.0,170.0,blue,triangle
0.0,7.0,3.0,1.0,7.0,5.0,275.6824489997598,3.0,2.0,part_3,go,0.0,0.0,0.0,176.0,4.0,44.0,132.0,88.0,264.0,176.0,220.0,cyan,square
0.0,5.0,1.0,1.0,7.0,4.0,4015.6087929999558,3.0,1.0,part_3,go,0.0,0.0,0.0,132.0,3.0,176.0,220.0,44.0,132.0,88.0,264.0,blue,triangle
0.0,1.0,1.0,0.0,7.0,5.0,3121.2456060002296,3.0,1.0,part_3,go,0.0,0.0,0.0,136.0,4.0,34.0,204.0,170.0,102.0,136.0,68.0,orange,diamond
0.0,4.0,4.0,0.0,7.0,5.0,4085.7444339999347,3.0,1.0,part_3,go,0.0,0.0,0.0,220.0,5.0,88.0,264.0,132.0,176.0,220.0,44.0,gray,hexagon
0.0,6.0,2.0,1.0,7.0,4.0,3364.2394139997123,3.0,1.0,part_3,go,0.0,0.0,0.0,98.0,2.0,245.0,147.0,294.0,98.0,49.0,196.0,magenta,flipped triangle
0.0,4.0,4.0,0.0,7.0,2.0,431.4495429998715,3.0,2.0,part_3,go,0.0,0.0,0.0,162.0,3.0,108.0,162.0,270.0,216.0,324.0,54.0,gray,hexagon
0.0,6.0,2.0,1.0,7.0,1.0,4477.430190999257,3.0,1.0,part_3,go,0.0,0.0,0.0,162.0,3.0,162.0,216.0,54.0,324.0,270.0,108.0,magenta,flipped triangle
0.0,1.0,1.0,0.0,7.0,3.0,4470.238221000727,3.0,1.0,part_3,go,0.0,0.0,0.0,117.0,3.0,156.0,78.0,117.0,195.0,39.0,234.0,orange,diamond
0.0,2.0,2.0,0.0,7.0,4.0,4771.9942020003145,3.0,1.0,part_3,go,0.0,0.0,0.0,195.0,5.0,234.0,117.0,156.0,195.0,39.0,78.0,green,cross
0.0,8.0,4.0,1.0,7.0,4.0,3085.2509180003835,3.0,2.0,part_3,go,0.0,0.0,0.0,162.0,3.0,324.0,108.0,54.0,162.0,216.0,270.0,white,circle
0.0,3.0,3.0,0.0,7.0,3.0,2062.274736999825,3.0,2.0,part_3,go,0.0,0.0,0.0,170.0,5.0,102.0,34.0,170.0,204.0,136.0,68.0,yellow,I
0.0,2.0,2.0,0.0,7.0,4.0,2879.635469999812,3.0,1.0,part_3,go,0.0,0.0,0.0,136.0,4.0,170.0,34.0,204.0,136.0,68.0,102.0,green,cross
0.0,2.0,2.0,0.0,7.0,3.0,3563.9025059999767,3.0,1.0,part_3,go,0.0,0.0,0.0,196.0,4.0,98.0,49.0,196.0,147.0,294.0,245.0,green,cross
0.0,8.0,4.0,1.0,7.0,4.0,3681.007160000263,3.0,1.0,part_3,go,0.0,0.0,0.0,156.0,4.0,234.0,78.0,117.0,156.0,195.0,39.0,white,circle
0.0,8.0,4.0,1.0,7.0,6.0,2468.174325000291,3.0,1.0,part_3,go,0.0,0.0,0.0,147.0,3.0,245.0,98.0,49.0,196.0,294.0,147.0,white,circle
0.0,7.0,3.0,1.0,7.0,4.0,1390.2126259999932,3.0,2.0,part_3,go,0.0,0.0,0.0,136.0,4.0,34.0,170.0,102.0,136.0,204.0,68.0,cyan,square
0.0,2.0,2.0,0.0,7.0,5.0,2783.744243000001,4.0,1.0,part_3,go,0.0,0.0,0.0,220.0,5.0,88.0,44.0,176.0,264.0,220.0,132.0,green,cross
0.0,7.0,3.0,1.0,7.0,2.0,3701.778532999924,4.0,1.0,part_3,go,0.0,0.0,0.0,108.0,2.0,162.0,108.0,324.0,270.0,54.0,216.0,cyan,square
0.0,6.0,2.0,1.0,7.0,4.0,1873.3777190000185,4.0,1.0,part_3,go,0.0,0.0,0.0,147.0,3.0,98.0,196.0,245.0,147.0,294.0,49.0,magenta,flipped triangle
0.0,3.0,3.0,0.0,7.0,1.0,4878.100998000264,4.0,1.0,part_3,go,0.0,0.0,0.0,147.0,3.0,147.0,294.0,98.0,196.0,245.0,49.0,yellow,I
0.0,4.0,4.0,0.0,7.0,4.0,3275.718840999616,4.0,1.0,part_3,go,0.0,0.0,0.0,102.0,3.0,34.0,204.0,170.0,102.0,68.0,136.0,gray,hexagon
0.0,4.0,4.0,0.0,7.0,5.0,1368.8887629996316,4.0,1.0,part_3,go,0.0,0.0,0.0,176.0,4.0,44.0,132.0,220.0,264.0,176.0,88.0,gray,hexagon
0.0,7.0,3.0,1.0,7.0,5.0,2700.398822000352,4.0,1.0,part_3,go,0.0,0.0,0.0,147.0,3.0,196.0,98.0,294.0,245.0,147.0,49.0,cyan,square
0.0,5.0,1.0,1.0,7.0,6.0,3438.8141070003257,4.0,1.0,part_3,go,0.0,0.0,0.0,117.0,3.0,195.0,39.0,234.0,78.0,156.0,117.0,blue,triangle
0.0,7.0,3.0,1.0,7.0,2.0,2241.288590000295,4.0,1.0,part_3,go,0.0,0.0,0.0,136.0,4.0,204.0,136.0,34.0,68.0,102.0,170.0,cyan,square
0.0,5.0,1.0,1.0,7.0,2.0,1917.2587479997671,4.0,1.0,part_3,go,0.0,0.0,0.0,162.0,3.0,54.0,162.0,108.0,216.0,324.0,270.0,blue,triangle
0.0,5.0,1.0,1.0,7.0,3.0,3044.3453809994026,4.0,1.0,part_3,go,0.0,0.0,0.0,216.0,4.0,270.0,108.0,216.0,162.0,324.0,54.0,blue,triangle
0.0,7.0,3.0,1.0,7.0,4.0,3312.3775469994143,4.0,1.0,part_3,go,0.0,0.0,0.0,196.0,4.0,98.0,294.0,147.0,196.0,49.0,245.0,cyan,square
0.0,3.0,3.0,0.0,7.0,2.0,4272.883874999934,4.0,1.0,part_3,go,0.0,0.0,0.0,162.0,3.0,108.0,162.0,270.0,216.0,324.0,54.0,yellow,I
0.0,8.0,4.0,1.0,7.0,2.0,3156.628709999495,4.0,1.0,part_3,go,0.0,0.0,0.0,170.0,5.0,68.0,170.0,136.0,204.0,34.0,102.0,white,circle
0.0,4.0,4.0,0.0,7.0,3.0,1078.7541429999692,4.0,1.0,part_3,go,0.0,0.0,0.0,147.0,3.0,196.0,245.0,147.0,49.0,294.0,98.0,gray,hexagon
0.0,8.0,4.0,1.0,7.0,5.0,4159.870342000431,4.0,1.0,part_3,go,0.0,0.0,0.0,156.0,4.0,78.0,234.0,39.0,117.0,156.0,195.0,white,circle
0.0,6.0,2.0,1.0,7.0,1.0,3486.699490000319,4.0,1.0,part_3,go,0.0,0.0,0.0,176.0,4.0,176.0,88.0,264.0,132.0,44.0,220.0,magenta,flipped triangle
0.0,2.0,2.0,0.0,7.0,5.0,314.8693699995419,4.0,2.0,part_3,go,0.0,0.0,0.0,216.0,4.0,324.0,270.0,162.0,54.0,216.0,108.0,green,cross
0.0,8.0,4.0,1.0,7.0,3.0,2270.912440999382,4.0,1.0,part_3,go,0.0,0.0,0.0,132.0,3.0,176.0,220.0,132.0,44.0,88.0,264.0,white,circle
0.0,1.0,1.0,0.0,7.0,3.0,3367.5062720003552,4.0,1.0,part_3,go,0.0,0.0,0.0,170.0,5.0,136.0,68.0,170.0,102.0,34.0,204.0,orange,diamond
