raw_reward_magnitude,stim_reward,stepwise_reward_magnitude,paired_with_stopping,stim_location,response,reaction_time,block,num_trial_presentations,which_phase,stop_signal_trial_type,left_SSD,right_SSD,accuracy,chosen_bidding_amount,chosen_bidding_level,possible_bid_1,possible_bid_2,possible_bid_3,possible_bid_4,possible_bid_5,possible_bid_6,color_text,shape_text
378.0,8.0,4.0,1.0,2.0,2.0,311.1696829998891,1.0,1.0,phase_1,,,,,,,,,,,,,cyan,hexagon
39.0,5.0,0.5,1.0,2.0,2.0,304.6836119999625,1.0,1.0,phase_1,,,,,,,,,,,,,green,diamond
414.0,8.0,4.0,1.0,4.0,4.0,363.2755650000945,1.0,1.0,phase_1,,,,,,,,,,,,,cyan,hexagon
213.0,7.0,2.0,1.0,3.0,3.0,327.1606679998058,1.0,1.0,phase_1,,,,,,,,,,,,,yellow,cross
0.0,8.0,0.0,1.0,3.0,3.0,296.0335039999791,1.0,1.0,phase_1,,,,,,,,,,,,,cyan,hexagon
402.0,8.0,4.0,1.0,1.0,1.0,320.3986760001953,1.0,1.0,phase_1,,,,,,,,,,,,,cyan,hexagon
59.0,1.0,0.5,0.0,2.0,2.0,278.7994880000042,1.0,1.0,phase_1,,,,,,,,,,,,,orange,circle
219.0,7.0,2.0,1.0,3.0,3.0,479.2407790000652,1.0,1.0,phase_1,,,,,,,,,,,,,yellow,cross
404.0,8.0,4.0,1.0,3.0,3.0,334.9358240000128,1.0,1.0,phase_1,,,,,,,,,,,,,cyan,hexagon
0.0,5.0,0.0,1.0,3.0,3.0,351.1347190001288,1.0,1.0,phase_1,,,,,,,,,,,,,green,diamond
0.0,5.0,0.0,1.0,4.0,4.0,301.7841060000137,1.0,1.0,phase_1,,,,,,,,,,,,,green,diamond
28.0,1.0,0.5,0.0,2.0,2.0,398.5035580001295,1.0,1.0,phase_1,,,,,,,,,,,,,orange,circle
191.0,7.0,2.0,1.0,2.0,2.0,305.7662580001761,1.0,1.0,phase_1,,,,,,,,,,,,,yellow,cross
0.0,8.0,0.0,1.0,3.0,3.0,278.716126999825,1.0,1.0,phase_1,,,,,,,,,,,,,cyan,hexagon
32.0,5.0,0.5,1.0,1.0,1.0,255.3082320000612,1.0,1.0,phase_1,,,,,,,,,,,,,green,diamond
0.0,6.0,0.0,1.0,3.0,3.0,308.451924999872,1.0,1.0,phase_1,,,,,,,,,,,,,gray,flipped triangle
0.0,6.0,0.0,1.0,2.0,2.0,266.8336119998002,1.0,1.0,phase_1,,,,,,,,,,,,,gray,flipped triangle
192.0,3.0,2.0,0.0,1.0,1.0,238.2231960000354,1.0,1.0,phase_1,,,,,,,,,,,,,white,square
36.0,5.0,0.5,1.0,1.0,1.0,340.8065189998979,1.0,1.0,phase_1,,,,,,,,,,,,,green,diamond
50.0,1.0,0.5,0.0,2.0,2.0,290.3602250000858,1.0,1.0,phase_1,,,,,,,,,,,,,orange,circle
0.0,4.0,0.0,0.0,2.0,2.0,312.603450999859,1.0,1.0,phase_1,,,,,,,,,,,,,blue,I
102.0,6.0,1.0,1.0,2.0,2.0,293.571737999855,1.0,1.0,phase_1,,,,,,,,,,,,,gray,flipped triangle
420.0,8.0,4.0,1.0,2.0,2.0,310.7526740000139,1.0,1.0,phase_1,,,,,,,,,,,,,cyan,hexagon
122.0,2.0,1.0,0.0,4.0,4.0,286.0899960001006,1.0,1.0,phase_1,,,,,,,,,,,,,magenta,triangle
38.0,5.0,0.5,1.0,4.0,4.0,256.1889830001291,1.0,1.0,phase_1,,,,,,,,,,,,,green,diamond
193.0,3.0,2.0,0.0,3.0,3.0,290.1191179998932,1.0,1.0,phase_1,,,,,,,,,,,,,white,square
87.0,2.0,1.0,0.0,2.0,2.0,334.2035809998833,1.0,1.0,phase_1,,,,,,,,,,,,,magenta,triangle
0.0,4.0,0.0,0.0,1.0,1.0,353.6082329999317,1.0,1.0,phase_1,,,,,,,,,,,,,blue,I
84.0,2.0,1.0,0.0,2.0,2.0,352.4437809999199,1.0,1.0,phase_1,,,,,,,,,,,,,magenta,triangle
414.0,8.0,4.0,1.0,4.0,4.0,362.6444480000828,1.0,1.0,phase_1,,,,,,,,,,,,,cyan,hexagon
421.0,4.0,4.0,0.0,2.0,2.0,410.2476739999474,1.0,1.0,phase_1,,,,,,,,,,,,,blue,I
0.0,6.0,0.0,1.0,2.0,2.0,300.783587000069,1.0,1.0,phase_1,,,,,,,,,,,,,gray,flipped triangle
206.0,7.0,2.0,1.0,4.0,4.0,273.6784510000234,1.0,1.0,phase_1,,,,,,,,,,,,,yellow,cross
0.0,2.0,0.0,0.0,3.0,3.0,226.2416860000939,1.0,1.0,phase_1,,,,,,,,,,,,,magenta,triangle
94.0,2.0,1.0,0.0,4.0,4.0,320.6746969999585,1.0,1.0,phase_1,,,,,,,,,,,,,magenta,triangle
72.0,1.0,0.5,0.0,1.0,1.0,304.0753679999852,1.0,1.0,phase_1,,,,,,,,,,,,,orange,circle
104.0,2.0,1.0,0.0,2.0,2.0,379.6141099999204,1.0,1.0,phase_1,,,,,,,,,,,,,magenta,triangle
177.0,3.0,2.0,0.0,4.0,4.0,565.0263079999149,1.0,1.0,phase_1,,,,,,,,,,,,,white,square
212.0,3.0,2.0,0.0,3.0,3.0,271.3837500000409,1.0,1.0,phase_1,,,,,,,,,,,,,white,square
0.0,5.0,0.0,1.0,2.0,2.0,291.1273649999657,1.0,1.0,phase_1,,,,,,,,,,,,,green,diamond
82.0,6.0,1.0,1.0,3.0,3.0,344.9341129999084,1.0,1.0,phase_1,,,,,,,,,,,,,gray,flipped triangle
0.0,3.0,0.0,0.0,3.0,3.0,289.8459400000774,1.0,1.0,phase_1,,,,,,,,,,,,,white,square
0.0,5.0,0.0,1.0,3.0,3.0,293.8103740000315,1.0,1.0,phase_1,,,,,,,,,,,,,green,diamond
377.0,8.0,4.0,1.0,4.0,4.0,325.3861420000703,1.0,1.0,phase_1,,,,,,,,,,,,,cyan,hexagon
75.0,6.0,1.0,1.0,1.0,1.0,353.0241789999309,1.0,1.0,phase_1,,,,,,,,,,,,,gray,flipped triangle
97.0,2.0,1.0,0.0,4.0,4.0,393.724807999888,1.0,1.0,phase_1,,,,,,,,,,,,,magenta,triangle
217.0,7.0,2.0,1.0,3.0,3.0,306.760603000157,1.0,1.0,phase_1,,,,,,,,,,,,,yellow,cross
115.0,6.0,1.0,1.0,3.0,3.0,278.2346209999105,1.0,1.0,phase_1,,,,,,,,,,,,,gray,flipped triangle
51.0,1.0,0.5,0.0,2.0,2.0,417.0511970000916,1.0,1.0,phase_1,,,,,,,,,,,,,orange,circle
32.0,1.0,0.5,0.0,3.0,3.0,480.728309999904,1.0,1.0,phase_1,,,,,,,,,,,,,orange,circle
36.0,1.0,0.5,0.0,1.0,1.0,385.8953169999495,1.0,1.0,phase_1,,,,,,,,,,,,,orange,circle
0.0,3.0,0.0,0.0,1.0,1.0,369.8445659999834,1.0,1.0,phase_1,,,,,,,,,,,,,white,square
62.0,5.0,0.5,1.0,4.0,4.0,317.2608930001388,1.0,1.0,phase_1,,,,,,,,,,,,,green,diamond
0.0,6.0,0.0,1.0,3.0,3.0,299.7723260000384,1.0,1.0,phase_1,,,,,,,,,,,,,gray,flipped triangle
397.0,4.0,4.0,0.0,3.0,3.0,316.3620899999841,1.0,1.0,phase_1,,,,,,,,,,,,,blue,I
199.0,7.0,2.0,1.0,3.0,3.0,294.2235610000807,1.0,1.0,phase_1,,,,,,,,,,,,,yellow,cross
69.0,1.0,0.5,0.0,3.0,3.0,321.2993679999272,1.0,1.0,phase_1,,,,,,,,,,,,,orange,circle
190.0,7.0,2.0,1.0,2.0,2.0,434.060504999934,1.0,1.0,phase_1,,,,,,,,,,,,,yellow,cross
397.0,8.0,4.0,1.0,1.0,1.0,275.7077290000325,1.0,1.0,phase_1,,,,,,,,,,,,,cyan,hexagon
0.0,2.0,0.0,0.0,4.0,4.0,338.7809569999263,1.0,2.0,phase_1,,,,,,,,,,,,,magenta,triangle
422.0,8.0,4.0,1.0,1.0,1.0,336.7773929999202,1.0,1.0,phase_1,,,,,,,,,,,,,cyan,hexagon
220.0,3.0,2.0,0.0,4.0,4.0,352.6849309998852,1.0,1.0,phase_1,,,,,,,,,,,,,white,square
0.0,6.0,0.0,1.0,4.0,4.0,487.4341120000736,1.0,1.0,phase_1,,,,,,,,,,,,,gray,flipped triangle
225.0,3.0,2.0,0.0,4.0,4.0,390.2264580001429,1.0,1.0,phase_1,,,,,,,,,,,,,white,square
182.0,3.0,2.0,0.0,4.0,4.0,298.4360929999639,1.0,1.0,phase_1,,,,,,,,,,,,,white,square
420.0,4.0,4.0,0.0,1.0,1.0,368.1975829999828,1.0,1.0,phase_1,,,,,,,,,,,,,blue,I
210.0,3.0,2.0,0.0,3.0,3.0,326.3330960000985,1.0,1.0,phase_1,,,,,,,,,,,,,white,square
69.0,5.0,0.5,1.0,2.0,2.0,454.9491530001432,1.0,1.0,phase_1,,,,,,,,,,,,,green,diamond
79.0,6.0,1.0,1.0,4.0,4.0,329.975801000046,1.0,1.0,phase_1,,,,,,,,,,,,,gray,flipped triangle
95.0,2.0,1.0,0.0,2.0,2.0,395.6437790000109,1.0,1.0,phase_1,,,,,,,,,,,,,magenta,triangle
31.0,1.0,0.5,0.0,4.0,4.0,368.9748199999485,1.0,1.0,phase_1,,,,,,,,,,,,,orange,circle
177.0,3.0,2.0,0.0,2.0,2.0,465.2488090000588,1.0,1.0,phase_1,,,,,,,,,,,,,white,square
75.0,2.0,1.0,0.0,1.0,1.0,315.9093019999091,1.0,1.0,phase_1,,,,,,,,,,,,,magenta,triangle
0.0,2.0,0.0,0.0,4.0,4.0,343.8653959999556,1.0,1.0,phase_1,,,,,,,,,,,,,magenta,triangle
403.0,4.0,4.0,0.0,4.0,4.0,398.2760179999332,1.0,1.0,phase_1,,,,,,,,,,,,,blue,I
104.0,6.0,1.0,1.0,3.0,3.0,334.4182470000305,1.0,1.0,phase_1,,,,,,,,,,,,,gray,flipped triangle
68.0,1.0,0.5,0.0,4.0,4.0,326.3823310001044,1.0,1.0,phase_1,,,,,,,,,,,,,orange,circle
378.0,4.0,4.0,0.0,4.0,4.0,336.0465450000447,1.0,1.0,phase_1,,,,,,,,,,,,,blue,I
388.0,4.0,4.0,0.0,3.0,3.0,437.6950769999439,1.0,1.0,phase_1,,,,,,,,,,,,,blue,I
0.0,8.0,0.0,1.0,2.0,2.0,411.5720449999571,1.0,1.0,phase_1,,,,,,,,,,,,,cyan,hexagon
89.0,6.0,1.0,1.0,2.0,2.0,734.0909959998498,1.0,1.0,phase_1,,,,,,,,,,,,,gray,flipped triangle
412.0,8.0,4.0,1.0,4.0,4.0,622.9389180000453,1.0,1.0,phase_1,,,,,,,,,,,,,cyan,hexagon
193.0,7.0,2.0,1.0,1.0,1.0,479.6578240000144,1.0,1.0,phase_1,,,,,,,,,,,,,yellow,cross
177.0,7.0,2.0,1.0,4.0,4.0,300.2485540000634,1.0,1.0,phase_1,,,,,,,,,,,,,yellow,cross
94.0,2.0,1.0,0.0,1.0,1.0,387.3902919999636,1.0,1.0,phase_1,,,,,,,,,,,,,magenta,triangle
388.0,8.0,4.0,1.0,1.0,1.0,420.585550999931,1.0,1.0,phase_1,,,,,,,,,,,,,cyan,hexagon
207.0,3.0,2.0,0.0,3.0,3.0,270.3520990000925,1.0,1.0,phase_1,,,,,,,,,,,,,white,square
414.0,4.0,4.0,0.0,3.0,3.0,381.2801349999972,1.0,1.0,phase_1,,,,,,,,,,,,,blue,I
60.0,5.0,0.5,1.0,2.0,2.0,435.6011639999906,1.0,1.0,phase_1,,,,,,,,,,,,,green,diamond
402.0,4.0,4.0,0.0,3.0,3.0,393.1064230000629,1.0,1.0,phase_1,,,,,,,,,,,,,blue,I
118.0,2.0,1.0,0.0,1.0,1.0,379.5524800000294,1.0,1.0,phase_1,,,,,,,,,,,,,magenta,triangle
203.0,3.0,2.0,0.0,4.0,4.0,411.6226740000002,1.0,1.0,phase_1,,,,,,,,,,,,,white,square
94.0,6.0,1.0,1.0,3.0,3.0,398.4526289998484,1.0,1.0,phase_1,,,,,,,,,,,,,gray,flipped triangle
220.0,7.0,2.0,1.0,3.0,3.0,334.9140440000155,1.0,1.0,phase_1,,,,,,,,,,,,,yellow,cross
411.0,4.0,4.0,0.0,4.0,4.0,388.4558610000113,1.0,1.0,phase_1,,,,,,,,,,,,,blue,I
0.0,5.0,0.0,1.0,2.0,2.0,418.1629920001342,1.0,1.0,phase_1,,,,,,,,,,,,,green,diamond
67.0,5.0,0.5,1.0,2.0,2.0,690.4848869999114,1.0,1.0,phase_1,,,,,,,,,,,,,green,diamond
219.0,3.0,2.0,0.0,3.0,3.0,423.4031820001291,1.0,1.0,phase_1,,,,,,,,,,,,,white,square
32.0,5.0,0.5,1.0,3.0,3.0,392.4150650000229,1.0,1.0,phase_1,,,,,,,,,,,,,green,diamond
102.0,2.0,1.0,0.0,3.0,3.0,314.9592300001131,1.0,1.0,phase_1,,,,,,,,,,,,,magenta,triangle
415.0,4.0,4.0,0.0,2.0,2.0,331.5991580000172,2.0,1.0,phase_1,,,,,,,,,,,,,blue,I
0.0,8.0,0.0,1.0,2.0,2.0,388.6161980001361,2.0,1.0,phase_1,,,,,,,,,,,,,cyan,hexagon
71.0,5.0,0.5,1.0,1.0,1.0,298.2139270000061,2.0,1.0,phase_1,,,,,,,,,,,,,green,diamond
67.0,5.0,0.5,1.0,4.0,4.0,401.3583180001205,2.0,1.0,phase_1,,,,,,,,,,,,,green,diamond
193.0,7.0,2.0,1.0,3.0,3.0,289.116937000017,2.0,1.0,phase_1,,,,,,,,,,,,,yellow,cross
38.0,1.0,0.5,0.0,1.0,1.0,297.4334870000348,2.0,1.0,phase_1,,,,,,,,,,,,,orange,circle
378.0,8.0,4.0,1.0,2.0,2.0,318.807205999974,2.0,1.0,phase_1,,,,,,,,,,,,,cyan,hexagon
207.0,3.0,2.0,0.0,4.0,4.0,303.6901380000927,2.0,1.0,phase_1,,,,,,,,,,,,,white,square
392.0,4.0,4.0,0.0,1.0,1.0,400.6422989998555,2.0,1.0,phase_1,,,,,,,,,,,,,blue,I
79.0,2.0,1.0,0.0,2.0,2.0,355.270130000008,2.0,1.0,phase_1,,,,,,,,,,,,,magenta,triangle
0.0,4.0,0.0,0.0,2.0,2.0,350.4682929999489,2.0,1.0,phase_1,,,,,,,,,,,,,blue,I
47.0,1.0,0.5,0.0,2.0,2.0,447.8744589998769,2.0,1.0,phase_1,,,,,,,,,,,,,orange,circle
50.0,1.0,0.5,0.0,4.0,4.0,502.6104039998245,2.0,1.0,phase_1,,,,,,,,,,,,,orange,circle
182.0,3.0,2.0,0.0,2.0,2.0,373.7519439998777,2.0,1.0,phase_1,,,,,,,,,,,,,white,square
101.0,6.0,1.0,1.0,1.0,1.0,356.0619949998909,2.0,1.0,phase_1,,,,,,,,,,,,,gray,flipped triangle
0.0,2.0,0.0,0.0,1.0,1.0,343.695721000131,2.0,1.0,phase_1,,,,,,,,,,,,,magenta,triangle
212.0,3.0,2.0,0.0,4.0,4.0,428.0292880000615,2.0,1.0,phase_1,,,,,,,,,,,,,white,square
28.0,5.0,0.5,1.0,4.0,4.0,318.6447510001926,2.0,1.0,phase_1,,,,,,,,,,,,,green,diamond
221.0,7.0,2.0,1.0,2.0,2.0,336.3208789999135,2.0,1.0,phase_1,,,,,,,,,,,,,yellow,cross
183.0,7.0,2.0,1.0,2.0,2.0,360.7425069999408,2.0,1.0,phase_1,,,,,,,,,,,,,yellow,cross
385.0,8.0,4.0,1.0,1.0,1.0,408.0833120001443,2.0,1.0,phase_1,,,,,,,,,,,,,cyan,hexagon
411.0,8.0,4.0,1.0,1.0,1.0,244.8842249998506,2.0,1.0,phase_1,,,,,,,,,,,,,cyan,hexagon
0.0,1.0,0.0,0.0,2.0,2.0,481.5747800000736,2.0,1.0,phase_1,,,,,,,,,,,,,orange,circle
90.0,2.0,1.0,0.0,3.0,3.0,324.1658899999038,2.0,1.0,phase_1,,,,,,,,,,,,,magenta,triangle
198.0,3.0,2.0,0.0,1.0,1.0,401.5361389999725,2.0,1.0,phase_1,,,,,,,,,,,,,white,square
421.0,8.0,4.0,1.0,3.0,3.0,307.8519979999328,2.0,1.0,phase_1,,,,,,,,,,,,,cyan,hexagon
183.0,3.0,2.0,0.0,4.0,4.0,315.2944939999997,2.0,2.0,phase_1,,,,,,,,,,,,,white,square
0.0,2.0,0.0,0.0,3.0,3.0,618.346314000064,2.0,1.0,phase_1,,,,,,,,,,,,,magenta,triangle
47.0,5.0,0.5,1.0,3.0,3.0,386.1597779998647,2.0,1.0,phase_1,,,,,,,,,,,,,green,diamond
0.0,5.0,0.0,1.0,4.0,4.0,573.223870999982,2.0,1.0,phase_1,,,,,,,,,,,,,green,diamond
26.0,1.0,0.5,0.0,4.0,4.0,378.1573259998367,2.0,1.0,phase_1,,,,,,,,,,,,,orange,circle
0.0,7.0,0.0,1.0,2.0,2.0,471.6243089999352,2.0,1.0,phase_1,,,,,,,,,,,,,yellow,cross
402.0,4.0,4.0,0.0,1.0,1.0,474.4385940000484,2.0,1.0,phase_1,,,,,,,,,,,,,blue,I
0.0,3.0,0.0,0.0,3.0,3.0,364.5667680000315,2.0,1.0,phase_1,,,,,,,,,,,,,white,square
68.0,5.0,0.5,1.0,4.0,4.0,425.0924830000713,2.0,1.0,phase_1,,,,,,,,,,,,,green,diamond
99.0,2.0,1.0,0.0,4.0,4.0,404.0146099998765,2.0,1.0,phase_1,,,,,,,,,,,,,magenta,triangle
199.0,3.0,2.0,0.0,2.0,2.0,301.1052019999169,2.0,1.0,phase_1,,,,,,,,,,,,,white,square
100.0,6.0,1.0,1.0,1.0,1.0,385.1094230001308,2.0,1.0,phase_1,,,,,,,,,,,,,gray,flipped triangle
377.0,4.0,4.0,0.0,2.0,2.0,546.9559539999409,2.0,1.0,phase_1,,,,,,,,,,,,,blue,I
0.0,3.0,0.0,0.0,4.0,4.0,408.8735549999001,2.0,1.0,phase_1,,,,,,,,,,,,,white,square
62.0,1.0,0.5,0.0,4.0,4.0,329.6888080001281,2.0,1.0,phase_1,,,,,,,,,,,,,orange,circle
103.0,6.0,1.0,1.0,1.0,1.0,647.5942550000582,2.0,1.0,phase_1,,,,,,,,,,,,,gray,flipped triangle
210.0,7.0,2.0,1.0,2.0,2.0,493.1612090001636,2.0,1.0,phase_1,,,,,,,,,,,,,yellow,cross
48.0,5.0,0.5,1.0,1.0,1.0,475.50797100007,2.0,1.0,phase_1,,,,,,,,,,,,,green,diamond
72.0,5.0,0.5,1.0,2.0,2.0,482.8579540001101,2.0,1.0,phase_1,,,,,,,,,,,,,green,diamond
0.0,1.0,0.0,0.0,4.0,4.0,441.0237239999333,2.0,1.0,phase_1,,,,,,,,,,,,,orange,circle
405.0,4.0,4.0,0.0,3.0,3.0,271.7891099998724,2.0,1.0,phase_1,,,,,,,,,,,,,blue,I
0.0,3.0,0.0,0.0,1.0,1.0,343.2242230001066,2.0,1.0,phase_1,,,,,,,,,,,,,white,square
0.0,4.0,0.0,0.0,4.0,4.0,325.600613000006,2.0,1.0,phase_1,,,,,,,,,,,,,blue,I
0.0,4.0,0.0,0.0,3.0,3.0,290.417214999934,2.0,1.0,phase_1,,,,,,,,,,,,,blue,I
405.0,8.0,4.0,1.0,4.0,4.0,437.9798689999461,2.0,1.0,phase_1,,,,,,,,,,,,,cyan,hexagon
0.0,7.0,0.0,1.0,3.0,3.0,503.0963179999617,2.0,1.0,phase_1,,,,,,,,,,,,,yellow,cross
52.0,5.0,0.5,1.0,1.0,1.0,375.0506330000007,2.0,1.0,phase_1,,,,,,,,,,,,,green,diamond
0.0,5.0,0.0,1.0,4.0,4.0,359.3513319999601,2.0,1.0,phase_1,,,,,,,,,,,,,green,diamond
0.0,1.0,0.0,0.0,3.0,3.0,267.8044389999741,2.0,1.0,phase_1,,,,,,,,,,,,,orange,circle
213.0,7.0,2.0,1.0,4.0,4.0,316.5756739999779,2.0,1.0,phase_1,,,,,,,,,,,,,yellow,cross
124.0,2.0,1.0,0.0,4.0,4.0,348.1362629997875,2.0,1.0,phase_1,,,,,,,,,,,,,magenta,triangle
0.0,3.0,0.0,0.0,4.0,4.0,283.2264480000503,2.0,1.0,phase_1,,,,,,,,,,,,,white,square
420.0,8.0,4.0,1.0,4.0,4.0,410.0199960000736,2.0,1.0,phase_1,,,,,,,,,,,,,cyan,hexagon
181.0,7.0,2.0,1.0,4.0,4.0,433.2064249999803,2.0,1.0,phase_1,,,,,,,,,,,,,yellow,cross
411.0,8.0,4.0,1.0,3.0,3.0,302.13385699994427,2.0,1.0,phase_1,,,,,,,,,,,,,cyan,hexagon
198.0,7.0,2.0,1.0,2.0,2.0,379.787424000142,2.0,1.0,phase_1,,,,,,,,,,,,,yellow,cross
0.0,4.0,0.0,0.0,4.0,4.0,362.975378000101,2.0,1.0,phase_1,,,,,,,,,,,,,blue,I
415.0,8.0,4.0,1.0,2.0,2.0,545.963860000029,2.0,1.0,phase_1,,,,,,,,,,,,,cyan,hexagon
197.0,7.0,2.0,1.0,2.0,2.0,448.8561030000255,2.0,2.0,phase_1,,,,,,,,,,,,,yellow,cross
212.0,7.0,2.0,1.0,1.0,1.0,403.0934250001792,2.0,1.0,phase_1,,,,,,,,,,,,,yellow,cross
197.0,3.0,2.0,0.0,1.0,1.0,472.1449260000554,2.0,1.0,phase_1,,,,,,,,,,,,,white,square
191.0,3.0,2.0,0.0,1.0,1.0,497.7160230000663,2.0,1.0,phase_1,,,,,,,,,,,,,white,square
0.0,7.0,0.0,1.0,4.0,4.0,403.2726849998198,2.0,1.0,phase_1,,,,,,,,,,,,,yellow,cross
0.0,4.0,0.0,0.0,2.0,2.0,613.6013999998795,2.0,1.0,phase_1,,,,,,,,,,,,,blue,I
412.0,4.0,4.0,0.0,3.0,3.0,442.9889650000405,2.0,1.0,phase_1,,,,,,,,,,,,,blue,I
94.0,6.0,1.0,1.0,3.0,3.0,371.4944079999895,2.0,1.0,phase_1,,,,,,,,,,,,,gray,flipped triangle
0.0,3.0,0.0,0.0,1.0,1.0,368.103155999961,2.0,1.0,phase_1,,,,,,,,,,,,,white,square
31.0,5.0,0.5,1.0,3.0,3.0,333.9475560001119,2.0,1.0,phase_1,,,,,,,,,,,,,green,diamond
38.0,5.0,0.5,1.0,2.0,2.0,460.3391979999287,2.0,1.0,phase_1,,,,,,,,,,,,,green,diamond
0.0,7.0,0.0,1.0,1.0,1.0,396.3054060000104,2.0,1.0,phase_1,,,,,,,,,,,,,yellow,cross
107.0,2.0,1.0,0.0,3.0,3.0,473.154655999906,2.0,1.0,phase_1,,,,,,,,,,,,,magenta,triangle
0.0,7.0,0.0,1.0,2.0,2.0,498.2181729999411,2.0,1.0,phase_1,,,,,,,,,,,,,yellow,cross
415.0,4.0,4.0,0.0,1.0,1.0,333.4735880000607,2.0,1.0,phase_1,,,,,,,,,,,,,blue,I
399.0,8.0,4.0,1.0,4.0,4.0,338.8578340000094,2.0,1.0,phase_1,,,,,,,,,,,,,cyan,hexagon
103.0,2.0,1.0,0.0,1.0,1.0,324.7193810000226,2.0,1.0,phase_1,,,,,,,,,,,,,magenta,triangle
39.0,1.0,0.5,0.0,4.0,4.0,599.6647760000542,2.0,1.0,phase_1,,,,,,,,,,,,,orange,circle
420.0,4.0,4.0,0.0,2.0,2.0,476.6691909999281,2.0,1.0,phase_1,,,,,,,,,,,,,blue,I
35.0,5.0,0.5,1.0,2.0,2.0,426.5673429999879,2.0,1.0,phase_1,,,,,,,,,,,,,green,diamond
416.0,8.0,4.0,1.0,3.0,3.0,381.1275430000478,2.0,1.0,phase_1,,,,,,,,,,,,,cyan,hexagon
97.0,6.0,1.0,1.0,2.0,2.0,790.68109800005,2.0,1.0,phase_1,,,,,,,,,,,,,gray,flipped triangle
0.0,1.0,0.0,0.0,1.0,1.0,303.424619999987,2.0,1.0,phase_1,,,,,,,,,,,,,orange,circle
192.0,7.0,2.0,1.0,2.0,2.0,295.0537059998623,2.0,1.0,phase_1,,,,,,,,,,,,,yellow,cross
32.0,1.0,0.5,0.0,3.0,3.0,431.80491699990847,2.0,1.0,phase_1,,,,,,,,,,,,,orange,circle
192.0,7.0,2.0,1.0,4.0,4.0,290.8124589998806,2.0,1.0,phase_1,,,,,,,,,,,,,yellow,cross
217.0,3.0,2.0,0.0,2.0,2.0,264.6214000001237,2.0,1.0,phase_1,,,,,,,,,,,,,white,square
71.0,5.0,0.5,1.0,2.0,2.0,399.2776210000102,2.0,1.0,phase_1,,,,,,,,,,,,,green,diamond
225.0,7.0,2.0,1.0,2.0,2.0,417.619969000043,2.0,1.0,phase_1,,,,,,,,,,,,,yellow,cross
26.0,5.0,0.5,1.0,4.0,4.0,381.9320719999268,2.0,1.0,phase_1,,,,,,,,,,,,,green,diamond
381.0,8.0,4.0,1.0,2.0,2.0,622.7969200001553,2.0,1.0,phase_1,,,,,,,,,,,,,cyan,hexagon
56.0,5.0,0.5,1.0,3.0,3.0,371.9641070001671,2.0,1.0,phase_1,,,,,,,,,,,,,green,diamond
124.0,6.0,1.0,1.0,4.0,4.0,460.3744080000069,2.0,1.0,phase_1,,,,,,,,,,,,,gray,flipped triangle
87.0,2.0,1.0,0.0,1.0,1.0,348.7522790001094,2.0,1.0,phase_1,,,,,,,,,,,,,magenta,triangle
63.0,5.0,0.5,1.0,3.0,3.0,311.4463029999115,2.0,1.0,phase_1,,,,,,,,,,,,,green,diamond
101.0,2.0,1.0,0.0,1.0,1.0,318.3139630000369,2.0,1.0,phase_1,,,,,,,,,,,,,magenta,triangle
403.0,8.0,4.0,1.0,4.0,4.0,420.9302219999244,3.0,1.0,phase_1,,,,,,,,,,,,,cyan,hexagon
121.0,2.0,1.0,0.0,2.0,2.0,361.7233180000312,3.0,1.0,phase_1,,,,,,,,,,,,,magenta,triangle
115.0,6.0,1.0,1.0,3.0,3.0,412.4147659999835,3.0,1.0,phase_1,,,,,,,,,,,,,gray,flipped triangle
71.0,1.0,0.5,0.0,3.0,3.0,417.6155990001007,3.0,1.0,phase_1,,,,,,,,,,,,,orange,circle
176.0,3.0,2.0,0.0,2.0,2.0,333.2988869999553,3.0,1.0,phase_1,,,,,,,,,,,,,white,square
0.0,3.0,0.0,0.0,4.0,4.0,380.4245890000857,3.0,1.0,phase_1,,,,,,,,,,,,,white,square
72.0,5.0,0.5,1.0,1.0,1.0,333.2159929998397,3.0,1.0,phase_1,,,,,,,,,,,,,green,diamond
68.0,5.0,0.5,1.0,3.0,3.0,343.4649299999819,3.0,1.0,phase_1,,,,,,,,,,,,,green,diamond
420.0,8.0,4.0,1.0,1.0,1.0,421.8090570000186,3.0,1.0,phase_1,,,,,,,,,,,,,cyan,hexagon
409.0,4.0,4.0,0.0,4.0,4.0,357.394548000002,3.0,1.0,phase_1,,,,,,,,,,,,,blue,I
0.0,1.0,0.0,0.0,3.0,3.0,403.2676530000572,3.0,1.0,phase_1,,,,,,,,,,,,,orange,circle
90.0,6.0,1.0,1.0,4.0,4.0,346.4703319998534,3.0,1.0,phase_1,,,,,,,,,,,,,gray,flipped triangle
51.0,5.0,0.5,1.0,3.0,3.0,351.582634999886,3.0,1.0,phase_1,,,,,,,,,,,,,green,diamond
213.0,3.0,2.0,0.0,2.0,2.0,349.96311399982,3.0,1.0,phase_1,,,,,,,,,,,,,white,square
390.0,4.0,4.0,0.0,1.0,1.0,396.4626570000291,3.0,1.0,phase_1,,,,,,,,,,,,,blue,I
72.0,1.0,0.5,0.0,4.0,4.0,365.8967250000842,3.0,1.0,phase_1,,,,,,,,,,,,,orange,circle
38.0,1.0,0.5,0.0,3.0,3.0,469.4102179998936,3.0,1.0,phase_1,,,,,,,,,,,,,orange,circle
123.0,2.0,1.0,0.0,3.0,3.0,318.9755710000099,3.0,1.0,phase_1,,,,,,,,,,,,,magenta,triangle
223.0,7.0,2.0,1.0,3.0,3.0,386.6486059998806,3.0,1.0,phase_1,,,,,,,,,,,,,yellow,cross
0.0,5.0,0.0,1.0,1.0,1.0,339.1742020000947,3.0,1.0,phase_1,,,,,,,,,,,,,green,diamond
0.0,7.0,0.0,1.0,4.0,4.0,263.5853259998839,3.0,1.0,phase_1,,,,,,,,,,,,,yellow,cross
416.0,4.0,4.0,0.0,1.0,1.0,423.3680600000298,3.0,1.0,phase_1,,,,,,,,,,,,,blue,I
218.0,7.0,2.0,1.0,1.0,1.0,342.1027649999359,3.0,1.0,phase_1,,,,,,,,,,,,,yellow,cross
0.0,5.0,0.0,1.0,3.0,3.0,328.6750100000972,3.0,1.0,phase_1,,,,,,,,,,,,,green,diamond
108.0,6.0,1.0,1.0,2.0,2.0,505.34205000008114,3.0,1.0,phase_1,,,,,,,,,,,,,gray,flipped triangle
206.0,3.0,2.0,0.0,3.0,3.0,389.0203739999833,3.0,1.0,phase_1,,,,,,,,,,,,,white,square
113.0,6.0,1.0,1.0,4.0,4.0,436.236893999876,3.0,1.0,phase_1,,,,,,,,,,,,,gray,flipped triangle
71.0,1.0,0.5,0.0,4.0,4.0,561.3346869999987,3.0,1.0,phase_1,,,,,,,,,,,,,orange,circle
107.0,6.0,1.0,1.0,1.0,1.0,472.8778720000264,3.0,1.0,phase_1,,,,,,,,,,,,,gray,flipped triangle
119.0,2.0,1.0,0.0,2.0,2.0,421.9449729998814,3.0,1.0,phase_1,,,,,,,,,,,,,magenta,triangle
183.0,7.0,2.0,1.0,1.0,1.0,367.3616129999573,3.0,1.0,phase_1,,,,,,,,,,,,,yellow,cross
113.0,6.0,1.0,1.0,1.0,1.0,313.950246000104,3.0,1.0,phase_1,,,,,,,,,,,,,gray,flipped triangle
0.0,6.0,0.0,1.0,1.0,1.0,323.0985039999723,3.0,1.0,phase_1,,,,,,,,,,,,,gray,flipped triangle
385.0,8.0,4.0,1.0,3.0,3.0,335.837993000041,3.0,1.0,phase_1,,,,,,,,,,,,,cyan,hexagon
0.0,7.0,0.0,1.0,2.0,2.0,647.1945809998942,3.0,1.0,phase_1,,,,,,,,,,,,,yellow,cross
78.0,6.0,1.0,1.0,4.0,4.0,409.9062620000495,3.0,1.0,phase_1,,,,,,,,,,,,,gray,flipped triangle
405.0,8.0,4.0,1.0,3.0,3.0,318.2179699999778,3.0,1.0,phase_1,,,,,,,,,,,,,cyan,hexagon
115.0,2.0,1.0,0.0,3.0,3.0,305.3369770000245,3.0,1.0,phase_1,,,,,,,,,,,,,magenta,triangle
56.0,1.0,0.5,0.0,1.0,1.0,263.6382749999484,3.0,1.0,phase_1,,,,,,,,,,,,,orange,circle
50.0,5.0,0.5,1.0,1.0,1.0,419.9477439999555,3.0,1.0,phase_1,,,,,,,,,,,,,green,diamond
66.0,1.0,0.5,0.0,2.0,2.0,356.5724029999728,3.0,1.0,phase_1,,,,,,,,,,,,,orange,circle
78.0,2.0,1.0,0.0,3.0,3.0,352.8923159999522,3.0,1.0,phase_1,,,,,,,,,,,,,magenta,triangle
404.0,4.0,4.0,0.0,1.0,1.0,343.0574449998858,3.0,1.0,phase_1,,,,,,,,,,,,,blue,I
195.0,7.0,2.0,1.0,2.0,2.0,357.3904530001073,3.0,1.0,phase_1,,,,,,,,,,,,,yellow,cross
387.0,8.0,4.0,1.0,3.0,3.0,359.2418200000793,3.0,1.0,phase_1,,,,,,,,,,,,,cyan,hexagon
402.0,4.0,4.0,0.0,4.0,4.0,323.0544590001045,3.0,1.0,phase_1,,,,,,,,,,,,,blue,I
118.0,2.0,1.0,0.0,4.0,4.0,349.8715969999466,3.0,1.0,phase_1,,,,,,,,,,,,,magenta,triangle
0.0,1.0,0.0,0.0,3.0,3.0,324.6019339999293,3.0,1.0,phase_1,,,,,,,,,,,,,orange,circle
199.0,7.0,2.0,1.0,3.0,3.0,297.3222809998788,3.0,1.0,phase_1,,,,,,,,,,,,,yellow,cross
119.0,6.0,1.0,1.0,1.0,1.0,519.4177509999918,3.0,1.0,phase_1,,,,,,,,,,,,,gray,flipped triangle
185.0,3.0,2.0,0.0,1.0,1.0,475.7065870001042,3.0,1.0,phase_1,,,,,,,,,,,,,white,square
181.0,3.0,2.0,0.0,3.0,3.0,381.685576000109,3.0,1.0,phase_1,,,,,,,,,,,,,white,square
0.0,7.0,0.0,1.0,4.0,4.0,439.5016830001168,3.0,1.0,phase_1,,,,,,,,,,,,,yellow,cross
0.0,5.0,0.0,1.0,2.0,2.0,323.7409010000647,3.0,1.0,phase_1,,,,,,,,,,,,,green,diamond
386.0,8.0,4.0,1.0,1.0,1.0,519.571310999936,3.0,1.0,phase_1,,,,,,,,,,,,,cyan,hexagon
89.0,2.0,1.0,0.0,4.0,4.0,339.5860260000063,3.0,1.0,phase_1,,,,,,,,,,,,,magenta,triangle
94.0,2.0,1.0,0.0,1.0,1.0,407.3931170000833,3.0,1.0,phase_1,,,,,,,,,,,,,magenta,triangle
409.0,8.0,4.0,1.0,4.0,4.0,396.177021000085,3.0,1.0,phase_1,,,,,,,,,,,,,cyan,hexagon
71.0,1.0,0.5,0.0,3.0,3.0,350.6447570000546,3.0,1.0,phase_1,,,,,,,,,,,,,orange,circle
400.0,4.0,4.0,0.0,2.0,2.0,455.3981410001597,3.0,1.0,phase_1,,,,,,,,,,,,,blue,I
405.0,4.0,4.0,0.0,3.0,3.0,387.2910290001528,3.0,1.0,phase_1,,,,,,,,,,,,,blue,I
385.0,4.0,4.0,0.0,1.0,1.0,359.0356409999913,3.0,1.0,phase_1,,,,,,,,,,,,,blue,I
68.0,1.0,0.5,0.0,1.0,1.0,346.6385840001749,3.0,1.0,phase_1,,,,,,,,,,,,,orange,circle
56.0,5.0,0.5,1.0,1.0,1.0,370.7914730000539,3.0,1.0,phase_1,,,,,,,,,,,,,green,diamond
0.0,3.0,0.0,0.0,1.0,1.0,302.3178439998446,3.0,1.0,phase_1,,,,,,,,,,,,,white,square
113.0,2.0,1.0,0.0,4.0,4.0,385.4055469998911,3.0,1.0,phase_1,,,,,,,,,,,,,magenta,triangle
0.0,2.0,0.0,0.0,2.0,2.0,803.07440699994,3.0,1.0,phase_1,,,,,,,,,,,,,magenta,triangle
420.0,4.0,4.0,0.0,2.0,2.0,324.2727169999853,3.0,1.0,phase_1,,,,,,,,,,,,,blue,I
0.0,1.0,0.0,0.0,4.0,4.0,369.4964950000212,3.0,1.0,phase_1,,,,,,,,,,,,,orange,circle
0.0,7.0,0.0,1.0,4.0,4.0,370.155645000068,3.0,1.0,phase_1,,,,,,,,,,,,,yellow,cross
66.0,5.0,0.5,1.0,2.0,2.0,349.2305390000183,3.0,1.0,phase_1,,,,,,,,,,,,,green,diamond
82.0,2.0,1.0,0.0,3.0,3.0,458.0092569999578,3.0,1.0,phase_1,,,,,,,,,,,,,magenta,triangle
0.0,7.0,0.0,1.0,4.0,4.0,316.2449509998168,3.0,1.0,phase_1,,,,,,,,,,,,,yellow,cross
377.0,8.0,4.0,1.0,1.0,1.0,395.0705940001171,3.0,1.0,phase_1,,,,,,,,,,,,,cyan,hexagon
207.0,7.0,2.0,1.0,4.0,4.0,447.0536639998954,3.0,1.0,phase_1,,,,,,,,,,,,,yellow,cross
40.0,5.0,0.5,1.0,3.0,3.0,330.3362240001206,3.0,1.0,phase_1,,,,,,,,,,,,,green,diamond
71.0,5.0,0.5,1.0,3.0,3.0,380.836921999844,3.0,1.0,phase_1,,,,,,,,,,,,,green,diamond
399.0,4.0,4.0,0.0,4.0,4.0,350.7970720002049,3.0,1.0,phase_1,,,,,,,,,,,,,blue,I
386.0,4.0,4.0,0.0,3.0,3.0,295.2233569999407,3.0,1.0,phase_1,,,,,,,,,,,,,blue,I
100.0,2.0,1.0,0.0,2.0,2.0,387.6814640000248,3.0,1.0,phase_1,,,,,,,,,,,,,magenta,triangle
212.0,7.0,2.0,1.0,1.0,1.0,294.1818210001656,3.0,1.0,phase_1,,,,,,,,,,,,,yellow,cross
116.0,2.0,1.0,0.0,1.0,1.0,341.3950009999098,3.0,1.0,phase_1,,,,,,,,,,,,,magenta,triangle
381.0,4.0,4.0,0.0,3.0,3.0,362.2420589999819,3.0,1.0,phase_1,,,,,,,,,,,,,blue,I
83.0,2.0,1.0,0.0,2.0,2.0,383.3370250001735,3.0,1.0,phase_1,,,,,,,,,,,,,magenta,triangle
0.0,8.0,0.0,1.0,1.0,1.0,293.890003000115,3.0,1.0,phase_1,,,,,,,,,,,,,cyan,hexagon
100.0,2.0,1.0,0.0,4.0,4.0,527.2970910000367,3.0,1.0,phase_1,,,,,,,,,,,,,magenta,triangle
218.0,3.0,2.0,0.0,1.0,1.0,604.2102289998184,3.0,1.0,phase_1,,,,,,,,,,,,,white,square
87.0,6.0,1.0,1.0,1.0,1.0,308.1885940000575,3.0,1.0,phase_1,,,,,,,,,,,,,gray,flipped triangle
27.0,1.0,0.5,0.0,2.0,2.0,396.9896749999861,3.0,1.0,phase_1,,,,,,,,,,,,,orange,circle
32.0,5.0,0.5,1.0,4.0,4.0,259.2558470000767,3.0,2.0,phase_1,,,,,,,,,,,,,green,diamond
115.0,2.0,1.0,0.0,1.0,1.0,462.0435930000894,3.0,1.0,phase_1,,,,,,,,,,,,,magenta,triangle
32.0,5.0,0.5,1.0,2.0,2.0,581.7734729998847,3.0,1.0,phase_1,,,,,,,,,,,,,green,diamond
381.0,8.0,4.0,1.0,2.0,2.0,386.0947709999891,3.0,1.0,phase_1,,,,,,,,,,,,,cyan,hexagon
88.0,2.0,1.0,0.0,3.0,3.0,417.3822489997292,3.0,1.0,phase_1,,,,,,,,,,,,,magenta,triangle
216.0,7.0,2.0,1.0,3.0,3.0,497.7859630002967,3.0,1.0,phase_1,,,,,,,,,,,,,yellow,cross
409.0,4.0,4.0,0.0,3.0,3.0,343.2539660002476,3.0,1.0,phase_1,,,,,,,,,,,,,blue,I
195.0,3.0,2.0,0.0,2.0,2.0,378.0109530002846,3.0,1.0,phase_1,,,,,,,,,,,,,white,square
83.0,6.0,1.0,1.0,4.0,4.0,383.6671210001441,3.0,1.0,phase_1,,,,,,,,,,,,,gray,flipped triangle
99.0,6.0,1.0,1.0,3.0,3.0,506.407818000298,3.0,1.0,phase_1,,,,,,,,,,,,,gray,flipped triangle
80.0,6.0,1.0,1.0,2.0,2.0,413.659428000301,3.0,1.0,phase_1,,,,,,,,,,,,,gray,flipped triangle
52.0,1.0,0.5,0.0,3.0,3.0,422.338112000034,4.0,1.0,phase_1,,,,,,,,,,,,,orange,circle
390.0,8.0,4.0,1.0,2.0,2.0,351.9206760001907,4.0,1.0,phase_1,,,,,,,,,,,,,cyan,hexagon
67.0,1.0,0.5,0.0,1.0,1.0,292.5165379997452,4.0,1.0,phase_1,,,,,,,,,,,,,orange,circle
422.0,4.0,4.0,0.0,2.0,2.0,452.9093409996676,4.0,1.0,phase_1,,,,,,,,,,,,,blue,I
27.0,5.0,0.5,1.0,1.0,1.0,273.5538839997389,4.0,1.0,phase_1,,,,,,,,,,,,,green,diamond
0.0,1.0,0.0,0.0,4.0,4.0,313.2187559999693,4.0,1.0,phase_1,,,,,,,,,,,,,orange,circle
402.0,8.0,4.0,1.0,3.0,3.0,355.6345900001361,4.0,1.0,phase_1,,,,,,,,,,,,,cyan,hexagon
185.0,7.0,2.0,1.0,4.0,4.0,431.1152769996624,4.0,1.0,phase_1,,,,,,,,,,,,,yellow,cross
88.0,6.0,1.0,1.0,4.0,4.0,396.858455000256,4.0,1.0,phase_1,,,,,,,,,,,,,gray,flipped triangle
94.0,6.0,1.0,1.0,2.0,2.0,350.3018819997123,4.0,1.0,phase_1,,,,,,,,,,,,,gray,flipped triangle
0.0,3.0,0.0,0.0,4.0,4.0,273.9515210000718,4.0,1.0,phase_1,,,,,,,,,,,,,white,square
377.0,4.0,4.0,0.0,2.0,2.0,610.410984000282,4.0,1.0,phase_1,,,,,,,,,,,,,blue,I
411.0,4.0,4.0,0.0,2.0,2.0,450.5153999998583,4.0,1.0,phase_1,,,,,,,,,,,,,blue,I
90.0,2.0,1.0,0.0,3.0,3.0,381.7197349999333,4.0,1.0,phase_1,,,,,,,,,,,,,magenta,triangle
187.0,7.0,2.0,1.0,3.0,3.0,585.0013700001,4.0,1.0,phase_1,,,,,,,,,,,,,yellow,cross
67.0,1.0,0.5,0.0,1.0,1.0,388.6311259998365,4.0,1.0,phase_1,,,,,,,,,,,,,orange,circle
392.0,8.0,4.0,1.0,1.0,1.0,470.0137790000553,4.0,1.0,phase_1,,,,,,,,,,,,,cyan,hexagon
121.0,6.0,1.0,1.0,3.0,3.0,331.042294999861,4.0,1.0,phase_1,,,,,,,,,,,,,gray,flipped triangle
216.0,3.0,2.0,0.0,4.0,4.0,328.8456010000118,4.0,1.0,phase_1,,,,,,,,,,,,,white,square
59.0,5.0,0.5,1.0,1.0,1.0,424.8618459996578,4.0,1.0,phase_1,,,,,,,,,,,,,green,diamond
182.0,7.0,2.0,1.0,1.0,1.0,374.8720410003443,4.0,1.0,phase_1,,,,,,,,,,,,,yellow,cross
414.0,4.0,4.0,0.0,4.0,4.0,395.5307910000556,4.0,1.0,phase_1,,,,,,,,,,,,,blue,I
0.0,6.0,0.0,1.0,3.0,3.0,264.9113550000948,4.0,1.0,phase_1,,,,,,,,,,,,,gray,flipped triangle
0.0,8.0,0.0,1.0,1.0,1.0,304.0411820002191,4.0,1.0,phase_1,,,,,,,,,,,,,cyan,hexagon
0.0,2.0,0.0,0.0,3.0,3.0,332.0590640000773,4.0,1.0,phase_1,,,,,,,,,,,,,magenta,triangle
0.0,4.0,0.0,0.0,1.0,1.0,629.9481659998492,4.0,1.0,phase_1,,,,,,,,,,,,,blue,I
380.0,4.0,4.0,0.0,2.0,2.0,349.4588250000561,4.0,1.0,phase_1,,,,,,,,,,,,,blue,I
387.0,4.0,4.0,0.0,1.0,1.0,342.2124409999014,4.0,1.0,phase_1,,,,,,,,,,,,,blue,I
0.0,6.0,0.0,1.0,2.0,2.0,393.0001450003146,4.0,1.0,phase_1,,,,,,,,,,,,,gray,flipped triangle
123.0,6.0,1.0,1.0,1.0,1.0,307.3615739999695,4.0,1.0,phase_1,,,,,,,,,,,,,gray,flipped triangle
213.0,3.0,2.0,0.0,2.0,2.0,420.12039500014,4.0,1.0,phase_1,,,,,,,,,,,,,white,square
83.0,6.0,1.0,1.0,1.0,1.0,422.3774710003454,4.0,1.0,phase_1,,,,,,,,,,,,,gray,flipped triangle
199.0,3.0,2.0,0.0,3.0,3.0,322.4876490003225,4.0,1.0,phase_1,,,,,,,,,,,,,white,square
0.0,4.0,0.0,0.0,4.0,4.0,316.9036350000169,4.0,1.0,phase_1,,,,,,,,,,,,,blue,I
0.0,8.0,0.0,1.0,3.0,3.0,265.9149969999816,4.0,1.0,phase_1,,,,,,,,,,,,,cyan,hexagon
83.0,2.0,1.0,0.0,2.0,2.0,502.3645020000913,4.0,1.0,phase_1,,,,,,,,,,,,,magenta,triangle
90.0,6.0,1.0,1.0,2.0,2.0,292.8114340002139,4.0,2.0,phase_1,,,,,,,,,,,,,gray,flipped triangle
50.0,5.0,0.5,1.0,3.0,3.0,488.2401479999316,4.0,1.0,phase_1,,,,,,,,,,,,,green,diamond
402.0,8.0,4.0,1.0,2.0,2.0,340.4504180002732,4.0,1.0,phase_1,,,,,,,,,,,,,cyan,hexagon
108.0,2.0,1.0,0.0,1.0,1.0,324.1513759999179,4.0,1.0,phase_1,,,,,,,,,,,,,magenta,triangle
116.0,6.0,1.0,1.0,3.0,3.0,478.2587839999905,4.0,1.0,phase_1,,,,,,,,,,,,,gray,flipped triangle
0.0,8.0,0.0,1.0,2.0,2.0,533.2633759999226,4.0,1.0,phase_1,,,,,,,,,,,,,cyan,hexagon
63.0,1.0,0.5,0.0,3.0,3.0,540.0714480001625,4.0,1.0,phase_1,,,,,,,,,,,,,orange,circle
223.0,3.0,2.0,0.0,4.0,4.0,335.8607010000014,4.0,1.0,phase_1,,,,,,,,,,,,,white,square
381.0,4.0,4.0,0.0,4.0,4.0,549.0684360001978,4.0,1.0,phase_1,,,,,,,,,,,,,blue,I
0.0,6.0,0.0,1.0,1.0,1.0,343.9477419997274,4.0,1.0,phase_1,,,,,,,,,,,,,gray,flipped triangle
40.0,1.0,0.5,0.0,3.0,3.0,472.9620339999201,4.0,1.0,phase_1,,,,,,,,,,,,,orange,circle
190.0,3.0,2.0,0.0,1.0,1.0,336.4191360001314,4.0,1.0,phase_1,,,,,,,,,,,,,white,square
415.0,8.0,4.0,1.0,2.0,2.0,355.8905220002089,4.0,1.0,phase_1,,,,,,,,,,,,,cyan,hexagon
100.0,6.0,1.0,1.0,2.0,2.0,569.0330150000591,4.0,1.0,phase_1,,,,,,,,,,,,,gray,flipped triangle
221.0,3.0,2.0,0.0,1.0,1.0,351.9431240001722,4.0,1.0,phase_1,,,,,,,,,,,,,white,square
0.0,2.0,0.0,0.0,3.0,3.0,342.8838800000449,4.0,1.0,phase_1,,,,,,,,,,,,,magenta,triangle
60.0,1.0,0.5,0.0,4.0,4.0,274.6535749997747,4.0,1.0,phase_1,,,,,,,,,,,,,orange,circle
377.0,8.0,4.0,1.0,3.0,3.0,395.4832189997432,4.0,1.0,phase_1,,,,,,,,,,,,,cyan,hexagon
409.0,8.0,4.0,1.0,3.0,3.0,360.9569079999346,4.0,1.0,phase_1,,,,,,,,,,,,,cyan,hexagon
207.0,7.0,2.0,1.0,4.0,4.0,411.8432929999471,4.0,1.0,phase_1,,,,,,,,,,,,,yellow,cross
41.0,1.0,0.5,0.0,1.0,1.0,297.5089319998005,4.0,1.0,phase_1,,,,,,,,,,,,,orange,circle
118.0,6.0,1.0,1.0,4.0,4.0,329.4458400000621,4.0,1.0,phase_1,,,,,,,,,,,,,gray,flipped triangle
42.0,5.0,0.5,1.0,4.0,4.0,283.5662630000115,4.0,1.0,phase_1,,,,,,,,,,,,,green,diamond
41.0,5.0,0.5,1.0,4.0,4.0,541.3931140001296,4.0,1.0,phase_1,,,,,,,,,,,,,green,diamond
0.0,8.0,0.0,1.0,3.0,3.0,380.7524099997863,4.0,1.0,phase_1,,,,,,,,,,,,,cyan,hexagon
385.0,4.0,4.0,0.0,4.0,4.0,391.4214319997882,4.0,1.0,phase_1,,,,,,,,,,,,,blue,I
377.0,4.0,4.0,0.0,4.0,4.0,338.727241000015,4.0,1.0,phase_1,,,,,,,,,,,,,blue,I
378.0,4.0,4.0,0.0,1.0,1.0,441.7694379999375,4.0,1.0,phase_1,,,,,,,,,,,,,blue,I
0.0,1.0,0.0,0.0,4.0,4.0,523.024723999697,4.0,1.0,phase_1,,,,,,,,,,,,,orange,circle
87.0,6.0,1.0,1.0,2.0,2.0,677.4220100001003,4.0,1.0,phase_1,,,,,,,,,,,,,gray,flipped triangle
113.0,2.0,1.0,0.0,4.0,4.0,360.183139000128,4.0,1.0,phase_1,,,,,,,,,,,,,magenta,triangle
198.0,3.0,2.0,0.0,1.0,1.0,343.0393949997778,4.0,1.0,phase_1,,,,,,,,,,,,,white,square
177.0,7.0,2.0,1.0,4.0,4.0,398.6756729996159,4.0,1.0,phase_1,,,,,,,,,,,,,yellow,cross
48.0,1.0,0.5,0.0,1.0,1.0,435.7550630002151,4.0,1.0,phase_1,,,,,,,,,,,,,orange,circle
201.0,7.0,2.0,1.0,1.0,1.0,372.9593690000001,4.0,1.0,phase_1,,,,,,,,,,,,,yellow,cross
380.0,8.0,4.0,1.0,2.0,2.0,550.8964229998128,4.0,1.0,phase_1,,,,,,,,,,,,,cyan,hexagon
198.0,7.0,2.0,1.0,1.0,1.0,368.3830400000261,4.0,1.0,phase_1,,,,,,,,,,,,,yellow,cross
192.0,3.0,2.0,0.0,2.0,2.0,347.3737780000192,4.0,1.0,phase_1,,,,,,,,,,,,,white,square
42.0,1.0,0.5,0.0,2.0,2.0,358.7378440001885,4.0,1.0,phase_1,,,,,,,,,,,,,orange,circle
54.0,5.0,0.5,1.0,4.0,4.0,527.1293659998264,4.0,1.0,phase_1,,,,,,,,,,,,,green,diamond
122.0,6.0,1.0,1.0,3.0,3.0,356.3646709999375,4.0,1.0,phase_1,,,,,,,,,,,,,gray,flipped triangle
54.0,1.0,0.5,0.0,1.0,1.0,366.6531250000844,4.0,1.0,phase_1,,,,,,,,,,,,,orange,circle
32.0,1.0,0.5,0.0,2.0,2.0,475.7313180002711,4.0,1.0,phase_1,,,,,,,,,,,,,orange,circle
201.0,3.0,2.0,0.0,3.0,3.0,502.8330969998933,4.0,1.0,phase_1,,,,,,,,,,,,,white,square
193.0,3.0,2.0,0.0,2.0,2.0,932.6224169999476,4.0,1.0,phase_1,,,,,,,,,,,,,white,square
203.0,7.0,2.0,1.0,1.0,1.0,499.8571989999618,4.0,1.0,phase_1,,,,,,,,,,,,,yellow,cross
35.0,1.0,0.5,0.0,4.0,4.0,344.9994859997787,4.0,1.0,phase_1,,,,,,,,,,,,,orange,circle
56.0,1.0,0.5,0.0,3.0,3.0,466.2859099998968,4.0,1.0,phase_1,,,,,,,,,,,,,orange,circle
118.0,6.0,1.0,1.0,2.0,2.0,404.6939370000473,4.0,1.0,phase_1,,,,,,,,,,,,,gray,flipped triangle
0.0,8.0,0.0,1.0,2.0,2.0,484.8454680000031,4.0,1.0,phase_1,,,,,,,,,,,,,cyan,hexagon
80.0,2.0,1.0,0.0,3.0,3.0,397.825512000054,4.0,1.0,phase_1,,,,,,,,,,,,,magenta,triangle
32.0,1.0,0.5,0.0,2.0,2.0,702.233944999989,4.0,1.0,phase_1,,,,,,,,,,,,,orange,circle
0.0,2.0,0.0,0.0,3.0,3.0,630.2868699999635,4.0,1.0,phase_1,,,,,,,,,,,,,magenta,triangle
0.0,1.0,0.0,0.0,4.0,4.0,367.3818759998539,4.0,1.0,phase_1,,,,,,,,,,,,,orange,circle
95.0,6.0,1.0,1.0,4.0,4.0,439.6815129998686,4.0,1.0,phase_1,,,,,,,,,,,,,gray,flipped triangle
183.0,3.0,2.0,0.0,1.0,1.0,366.8699069999093,4.0,1.0,phase_1,,,,,,,,,,,,,white,square
0.0,6.0,0.0,1.0,2.0,2.0,490.4078989998197,4.0,1.0,phase_1,,,,,,,,,,,,,gray,flipped triangle
0.0,2.0,0.0,0.0,2.0,2.0,380.6371269997726,4.0,1.0,phase_1,,,,,,,,,,,,,magenta,triangle
182.0,7.0,2.0,1.0,4.0,4.0,376.4382159997694,4.0,1.0,phase_1,,,,,,,,,,,,,yellow,cross
0.0,4.0,0.0,0.0,4.0,4.0,370.188003000294,4.0,1.0,phase_1,,,,,,,,,,,,,blue,I
176.0,7.0,2.0,1.0,1.0,1.0,498.5382969998682,4.0,1.0,phase_1,,,,,,,,,,,,,yellow,cross
400.0,8.0,4.0,1.0,4.0,4.0,334.4548119998762,4.0,1.0,phase_1,,,,,,,,,,,,,cyan,hexagon
187.0,3.0,2.0,0.0,3.0,3.0,344.9288789997808,4.0,1.0,phase_1,,,,,,,,,,,,,white,square
84.0,6.0,1.0,1.0,4.0,4.0,400.6396220001988,4.0,1.0,phase_1,,,,,,,,,,,,,gray,flipped triangle
0.0,1.0,0.5,0.0,6.0,6.0,381.7980809999426,1.0,1.0,phase_2,go,250.0,250.0,1.0,,,,,,,,,orange,circle
0.0,2.0,1.0,0.0,5.0,5.0,241.3958749998528,1.0,1.0,phase_2,go,250.0,250.0,1.0,,,,,,,,,magenta,triangle
0.0,7.0,2.0,1.0,5.0,0.0,0.0,1.0,1.0,phase_2,stop,250.0,250.0,4.0,,,,,,,,,yellow,cross
0.0,1.0,0.5,0.0,6.0,6.0,310.4321890000392,1.0,1.0,phase_2,go,300.0,250.0,1.0,,,,,,,,,orange,circle
0.0,7.0,2.0,1.0,5.0,5.0,197.7775400000609,1.0,1.0,phase_2,go,300.0,250.0,1.0,,,,,,,,,yellow,cross
0.0,4.0,4.0,0.0,6.0,6.0,280.6669880001209,1.0,1.0,phase_2,go,300.0,250.0,1.0,,,,,,,,,blue,I
0.0,6.0,1.0,1.0,5.0,5.0,262.1953370003211,1.0,1.0,phase_2,stop,300.0,250.0,3.0,,,,,,,,,gray,flipped triangle
0.0,2.0,1.0,0.0,6.0,6.0,216.8391959999098,1.0,1.0,phase_2,go,250.0,250.0,1.0,,,,,,,,,magenta,triangle
0.0,1.0,0.5,0.0,6.0,6.0,274.0263739997317,1.0,1.0,phase_2,go,250.0,250.0,1.0,,,,,,,,,orange,circle
0.0,8.0,4.0,1.0,5.0,5.0,230.8434619999388,1.0,1.0,phase_2,stop,250.0,250.0,3.0,,,,,,,,,cyan,hexagon
0.0,2.0,1.0,0.0,5.0,5.0,406.4035440001134,1.0,1.0,phase_2,go,200.0,250.0,1.0,,,,,,,,,magenta,triangle
0.0,2.0,1.0,0.0,5.0,5.0,295.2683809999143,1.0,1.0,phase_2,go,200.0,250.0,1.0,,,,,,,,,magenta,triangle
0.0,3.0,2.0,0.0,6.0,6.0,315.1314619999539,1.0,1.0,phase_2,go,200.0,250.0,1.0,,,,,,,,,white,square
0.0,6.0,1.0,1.0,6.0,6.0,381.8690919997607,1.0,1.0,phase_2,stop,200.0,250.0,3.0,,,,,,,,,gray,flipped triangle
0.0,3.0,2.0,0.0,5.0,5.0,254.6793639999123,1.0,1.0,phase_2,go,200.0,200.0,1.0,,,,,,,,,white,square
0.0,4.0,4.0,0.0,5.0,5.0,293.1176580000283,1.0,1.0,phase_2,go,200.0,200.0,1.0,,,,,,,,,blue,I
0.0,3.0,2.0,0.0,5.0,5.0,295.1189160003196,1.0,1.0,phase_2,go,200.0,200.0,1.0,,,,,,,,,white,square
0.0,4.0,4.0,0.0,6.0,6.0,237.2890550000193,1.0,1.0,phase_2,go,200.0,200.0,1.0,,,,,,,,,blue,I
0.0,6.0,1.0,1.0,6.0,6.0,326.781192999988,1.0,1.0,phase_2,go,200.0,200.0,1.0,,,,,,,,,gray,flipped triangle
0.0,4.0,4.0,0.0,6.0,6.0,298.151319000226,1.0,1.0,phase_2,go,200.0,200.0,1.0,,,,,,,,,blue,I
0.0,1.0,0.5,0.0,5.0,5.0,276.213559000098,1.0,1.0,phase_2,go,200.0,200.0,1.0,,,,,,,,,orange,circle
0.0,6.0,1.0,1.0,5.0,5.0,222.8387549998842,1.0,1.0,phase_2,go,200.0,200.0,1.0,,,,,,,,,gray,flipped triangle
0.0,8.0,4.0,1.0,6.0,6.0,239.870054000221,1.0,1.0,phase_2,stop,200.0,200.0,3.0,,,,,,,,,cyan,hexagon
0.0,2.0,1.0,0.0,6.0,6.0,378.5832419998769,1.0,1.0,phase_2,go,200.0,150.0,1.0,,,,,,,,,magenta,triangle
0.0,5.0,0.5,1.0,6.0,6.0,295.4703410000547,1.0,1.0,phase_2,go,200.0,150.0,1.0,,,,,,,,,green,diamond
0.0,1.0,0.5,0.0,6.0,6.0,327.0443850001356,1.0,1.0,phase_2,go,200.0,150.0,1.0,,,,,,,,,orange,circle
0.0,3.0,2.0,0.0,6.0,6.0,400.6157529997836,1.0,1.0,phase_2,go,200.0,150.0,1.0,,,,,,,,,white,square
0.0,7.0,2.0,1.0,5.0,5.0,293.1431900001371,1.0,1.0,phase_2,stop,200.0,150.0,3.0,,,,,,,,,yellow,cross
0.0,3.0,2.0,0.0,5.0,5.0,210.2372479998848,1.0,1.0,phase_2,go,150.0,150.0,1.0,,,,,,,,,white,square
0.0,2.0,1.0,0.0,5.0,5.0,232.0589800001471,1.0,1.0,phase_2,go,150.0,150.0,1.0,,,,,,,,,magenta,triangle
0.0,8.0,4.0,1.0,6.0,6.0,295.760509000047,1.0,1.0,phase_2,stop,150.0,150.0,3.0,,,,,,,,,cyan,hexagon
0.0,1.0,0.5,0.0,6.0,6.0,336.4409770001657,1.0,1.0,phase_2,go,150.0,100.0,1.0,,,,,,,,,orange,circle
0.0,1.0,0.5,0.0,6.0,6.0,290.0980750000599,1.0,1.0,phase_2,go,150.0,100.0,1.0,,,,,,,,,orange,circle
0.0,5.0,0.5,1.0,6.0,6.0,267.7308250003989,1.0,1.0,phase_2,stop,150.0,100.0,3.0,,,,,,,,,green,diamond
0.0,1.0,0.5,0.0,5.0,5.0,262.6677530001871,1.0,1.0,phase_2,go,150.0,50.0,1.0,,,,,,,,,orange,circle
0.0,2.0,1.0,0.0,5.0,5.0,212.4254629998176,1.0,1.0,phase_2,go,150.0,50.0,1.0,,,,,,,,,magenta,triangle
0.0,5.0,0.5,1.0,6.0,0.0,0.0,2.0,1.0,phase_2,stop,150.0,50.0,4.0,,,,,,,,,green,diamond
0.0,5.0,0.5,1.0,5.0,5.0,310.3714070002752,2.0,1.0,phase_2,go,150.0,100.0,1.0,,,,,,,,,green,diamond
0.0,3.0,2.0,0.0,5.0,5.0,343.8970699999117,2.0,1.0,phase_2,go,150.0,100.0,1.0,,,,,,,,,white,square
0.0,5.0,0.5,1.0,5.0,5.0,328.0073070000071,2.0,1.0,phase_2,go,150.0,100.0,1.0,,,,,,,,,green,diamond
0.0,2.0,1.0,0.0,5.0,5.0,330.6758810003884,2.0,1.0,phase_2,go,150.0,100.0,1.0,,,,,,,,,magenta,triangle
0.0,1.0,0.5,0.0,5.0,5.0,275.5269160002171,2.0,1.0,phase_2,go,150.0,100.0,1.0,,,,,,,,,orange,circle
0.0,3.0,2.0,0.0,5.0,5.0,257.2378190002382,2.0,1.0,phase_2,go,150.0,100.0,1.0,,,,,,,,,white,square
0.0,2.0,1.0,0.0,5.0,5.0,245.7140329997855,2.0,1.0,phase_2,go,150.0,100.0,1.0,,,,,,,,,magenta,triangle
0.0,1.0,0.5,0.0,6.0,6.0,388.3419620001405,2.0,1.0,phase_2,go,150.0,100.0,1.0,,,,,,,,,orange,circle
0.0,8.0,4.0,1.0,5.0,5.0,246.0202009997374,2.0,1.0,phase_2,stop,150.0,100.0,3.0,,,,,,,,,cyan,hexagon
0.0,4.0,4.0,0.0,6.0,6.0,429.1181529997629,2.0,1.0,phase_2,go,100.0,100.0,1.0,,,,,,,,,blue,I
0.0,5.0,0.5,1.0,5.0,0.0,0.0,2.0,1.0,phase_2,stop,100.0,100.0,4.0,,,,,,,,,green,diamond
0.0,2.0,1.0,0.0,5.0,5.0,374.5153099998788,2.0,1.0,phase_2,go,150.0,100.0,1.0,,,,,,,,,magenta,triangle
0.0,6.0,1.0,1.0,5.0,5.0,638.2175539997661,2.0,1.0,phase_2,stop,150.0,100.0,3.0,,,,,,,,,gray,flipped triangle
0.0,1.0,0.5,0.0,5.0,5.0,555.4835580001054,2.0,1.0,phase_2,go,100.0,100.0,1.0,,,,,,,,,orange,circle
0.0,1.0,0.5,0.0,6.0,6.0,422.3819439998806,2.0,1.0,phase_2,go,100.0,100.0,1.0,,,,,,,,,orange,circle
0.0,5.0,0.5,1.0,6.0,0.0,0.0,2.0,1.0,phase_2,stop,100.0,100.0,4.0,,,,,,,,,green,diamond
0.0,8.0,4.0,1.0,5.0,0.0,0.0,2.0,1.0,phase_2,stop,100.0,150.0,4.0,,,,,,,,,cyan,hexagon
0.0,7.0,2.0,1.0,5.0,0.0,0.0,2.0,1.0,phase_2,stop,150.0,150.0,4.0,,,,,,,,,yellow,cross
0.0,5.0,0.5,1.0,5.0,5.0,530.2028409996637,2.0,1.0,phase_2,go,200.0,150.0,1.0,,,,,,,,,green,diamond
0.0,7.0,2.0,1.0,6.0,0.0,0.0,2.0,1.0,phase_2,stop,200.0,150.0,4.0,,,,,,,,,yellow,cross
0.0,2.0,1.0,0.0,6.0,6.0,472.6929429998563,2.0,1.0,phase_2,go,200.0,200.0,1.0,,,,,,,,,magenta,triangle
0.0,4.0,4.0,0.0,5.0,5.0,348.0327239999496,2.0,1.0,phase_2,go,200.0,200.0,1.0,,,,,,,,,blue,I
0.0,4.0,4.0,0.0,6.0,6.0,345.2643340001486,2.0,1.0,phase_2,go,200.0,200.0,1.0,,,,,,,,,blue,I
0.0,8.0,4.0,1.0,5.0,5.0,345.9360259998902,2.0,1.0,phase_2,stop,200.0,200.0,3.0,,,,,,,,,cyan,hexagon
0.0,6.0,1.0,1.0,6.0,6.0,457.0152580004105,2.0,1.0,phase_2,go,150.0,200.0,1.0,,,,,,,,,gray,flipped triangle
0.0,3.0,2.0,0.0,6.0,6.0,426.6947500000242,2.0,1.0,phase_2,go,150.0,200.0,1.0,,,,,,,,,white,square
0.0,8.0,4.0,1.0,5.0,5.0,524.7181409999939,2.0,1.0,phase_2,go,150.0,200.0,1.0,,,,,,,,,cyan,hexagon
0.0,5.0,0.5,1.0,6.0,6.0,370.9002450000298,2.0,1.0,phase_2,stop,150.0,200.0,3.0,,,,,,,,,green,diamond
0.0,2.0,1.0,0.0,6.0,6.0,672.4223330002133,2.0,1.0,phase_2,go,150.0,150.0,1.0,,,,,,,,,magenta,triangle
0.0,8.0,4.0,1.0,5.0,0.0,0.0,2.0,1.0,phase_2,stop,150.0,150.0,4.0,,,,,,,,,cyan,hexagon
0.0,6.0,1.0,1.0,5.0,5.0,489.3208180001238,2.0,1.0,phase_2,go,200.0,150.0,1.0,,,,,,,,,gray,flipped triangle
0.0,2.0,1.0,0.0,6.0,6.0,371.9060209996314,2.0,1.0,phase_2,go,200.0,150.0,1.0,,,,,,,,,magenta,triangle
0.0,7.0,2.0,1.0,6.0,0.0,0.0,2.0,1.0,phase_2,stop,200.0,150.0,4.0,,,,,,,,,yellow,cross
0.0,5.0,0.5,1.0,5.0,5.0,305.404395000096,2.0,1.0,phase_2,stop,200.0,200.0,3.0,,,,,,,,,green,diamond
0.0,5.0,0.5,1.0,6.0,6.0,511.7577920000258,2.0,1.0,phase_2,go,150.0,200.0,1.0,,,,,,,,,green,diamond
0.0,6.0,1.0,1.0,6.0,0.0,0.0,3.0,1.0,phase_2,stop,150.0,200.0,4.0,,,,,,,,,gray,flipped triangle
0.0,2.0,1.0,0.0,6.0,6.0,581.4571389996672,3.0,1.0,phase_2,go,150.0,250.0,1.0,,,,,,,,,magenta,triangle
0.0,8.0,4.0,1.0,6.0,0.0,0.0,3.0,1.0,phase_2,stop,150.0,250.0,4.0,,,,,,,,,cyan,hexagon
0.0,4.0,4.0,0.0,5.0,5.0,475.0270190002084,3.0,1.0,phase_2,go,150.0,300.0,1.0,,,,,,,,,blue,I
0.0,8.0,4.0,1.0,6.0,6.0,432.3412640001152,3.0,1.0,phase_2,go,150.0,300.0,1.0,,,,,,,,,cyan,hexagon
0.0,4.0,4.0,0.0,6.0,6.0,440.0608729997657,3.0,1.0,phase_2,go,150.0,300.0,1.0,,,,,,,,,blue,I
0.0,4.0,4.0,0.0,6.0,6.0,409.8341549997712,3.0,1.0,phase_2,go,150.0,300.0,1.0,,,,,,,,,blue,I
0.0,1.0,0.5,0.0,6.0,6.0,445.3768690000288,3.0,1.0,phase_2,go,150.0,300.0,1.0,,,,,,,,,orange,circle
0.0,3.0,2.0,0.0,5.0,5.0,559.3189470000652,3.0,1.0,phase_2,go,150.0,300.0,1.0,,,,,,,,,white,square
0.0,4.0,4.0,0.0,5.0,5.0,490.6120020000344,3.0,1.0,phase_2,go,150.0,300.0,1.0,,,,,,,,,blue,I
0.0,7.0,2.0,1.0,5.0,0.0,0.0,3.0,1.0,phase_2,stop,150.0,300.0,4.0,,,,,,,,,yellow,cross
0.0,3.0,2.0,0.0,5.0,5.0,514.1393009998865,3.0,1.0,phase_2,go,200.0,300.0,1.0,,,,,,,,,white,square
0.0,3.0,2.0,0.0,6.0,6.0,639.3278410000676,3.0,1.0,phase_2,go,200.0,300.0,1.0,,,,,,,,,white,square
0.0,7.0,2.0,1.0,6.0,6.0,381.004300999848,3.0,1.0,phase_2,stop,200.0,300.0,3.0,,,,,,,,,yellow,cross
0.0,5.0,0.5,1.0,5.0,5.0,486.0244390001753,3.0,1.0,phase_2,go,200.0,250.0,1.0,,,,,,,,,green,diamond
0.0,2.0,1.0,0.0,5.0,5.0,485.7657150000705,3.0,1.0,phase_2,go,200.0,250.0,1.0,,,,,,,,,magenta,triangle
0.0,7.0,2.0,1.0,6.0,0.0,0.0,3.0,1.0,phase_2,stop,200.0,250.0,4.0,,,,,,,,,yellow,cross
0.0,4.0,4.0,0.0,6.0,6.0,588.0162329999621,3.0,1.0,phase_2,go,200.0,300.0,1.0,,,,,,,,,blue,I
0.0,8.0,4.0,1.0,6.0,6.0,495.3569340000285,3.0,1.0,phase_2,stop,200.0,300.0,3.0,,,,,,,,,cyan,hexagon
0.0,7.0,2.0,1.0,6.0,0.0,0.0,3.0,1.0,phase_2,stop,200.0,250.0,4.0,,,,,,,,,yellow,cross
0.0,2.0,1.0,0.0,6.0,6.0,696.7745879996983,3.0,1.0,phase_2,go,200.0,300.0,1.0,,,,,,,,,magenta,triangle
0.0,8.0,4.0,1.0,6.0,0.0,0.0,3.0,1.0,phase_2,stop,200.0,300.0,4.0,,,,,,,,,cyan,hexagon
0.0,5.0,0.5,1.0,6.0,0.0,0.0,3.0,1.0,phase_2,stop,200.0,350.0,4.0,,,,,,,,,green,diamond
0.0,5.0,0.5,1.0,5.0,0.0,0.0,3.0,1.0,phase_2,stop,200.0,400.0,4.0,,,,,,,,,green,diamond
0.0,5.0,0.5,1.0,5.0,5.0,668.4863099999347,3.0,1.0,phase_2,go,250.0,400.0,1.0,,,,,,,,,green,diamond
0.0,8.0,4.0,1.0,5.0,5.0,586.5877629998977,3.0,1.0,phase_2,go,250.0,400.0,1.0,,,,,,,,,cyan,hexagon
0.0,2.0,1.0,0.0,5.0,5.0,536.2031479999132,3.0,1.0,phase_2,go,250.0,400.0,1.0,,,,,,,,,magenta,triangle
0.0,6.0,1.0,1.0,6.0,0.0,0.0,3.0,1.0,phase_2,stop,250.0,400.0,4.0,,,,,,,,,gray,flipped triangle
0.0,5.0,0.5,1.0,6.0,0.0,0.0,3.0,1.0,phase_2,stop,250.0,450.0,4.0,,,,,,,,,green,diamond
0.0,2.0,1.0,0.0,6.0,6.0,759.0625190000537,3.0,1.0,phase_2,go,250.0,500.0,1.0,,,,,,,,,magenta,triangle
0.0,6.0,1.0,1.0,5.0,0.0,0.0,3.0,1.0,phase_2,stop,250.0,500.0,4.0,,,,,,,,,gray,flipped triangle
0.0,5.0,0.5,1.0,5.0,0.0,0.0,3.0,1.0,phase_2,stop,300.0,500.0,4.0,,,,,,,,,green,diamond
0.0,1.0,0.5,0.0,5.0,5.0,698.0017800001406,3.0,1.0,phase_2,go,350.0,500.0,1.0,,,,,,,,,orange,circle
0.0,2.0,1.0,0.0,6.0,6.0,676.130682999883,3.0,1.0,phase_2,go,350.0,500.0,1.0,,,,,,,,,magenta,triangle
0.0,4.0,4.0,0.0,6.0,6.0,780.9702979998292,3.0,1.0,phase_2,go,350.0,500.0,1.0,,,,,,,,,blue,I
0.0,8.0,4.0,1.0,6.0,0.0,0.0,3.0,1.0,phase_2,stop,350.0,500.0,4.0,,,,,,,,,cyan,hexagon
0.0,1.0,0.5,0.0,5.0,5.0,569.1304199999649,4.0,1.0,phase_2,go,350.0,550.0,1.0,,,,,,,,,orange,circle
0.0,8.0,4.0,1.0,5.0,0.0,0.0,4.0,1.0,phase_2,stop,350.0,550.0,4.0,,,,,,,,,cyan,hexagon
0.0,7.0,2.0,1.0,6.0,6.0,691.115912999976,4.0,1.0,phase_2,stop,400.0,550.0,3.0,,,,,,,,,yellow,cross
0.0,1.0,0.5,0.0,6.0,6.0,710.5189060002886,4.0,1.0,phase_2,go,400.0,500.0,1.0,,,,,,,,,orange,circle
0.0,6.0,1.0,1.0,6.0,0.0,0.0,4.0,1.0,phase_2,stop,400.0,500.0,4.0,,,,,,,,,gray,flipped triangle
0.0,3.0,2.0,0.0,6.0,6.0,803.3539810003276,4.0,1.0,phase_2,go,400.0,550.0,1.0,,,,,,,,,white,square
0.0,6.0,1.0,1.0,6.0,0.0,0.0,4.0,1.0,phase_2,stop,400.0,550.0,4.0,,,,,,,,,gray,flipped triangle
0.0,1.0,0.5,0.0,5.0,5.0,483.8415379999787,4.0,1.0,phase_2,go,400.0,600.0,1.0,,,,,,,,,orange,circle
0.0,6.0,1.0,1.0,6.0,6.0,724.7156110001924,4.0,1.0,phase_2,go,400.0,600.0,1.0,,,,,,,,,gray,flipped triangle
0.0,6.0,1.0,1.0,5.0,0.0,0.0,4.0,1.0,phase_2,stop,400.0,600.0,4.0,,,,,,,,,gray,flipped triangle
0.0,8.0,4.0,1.0,5.0,0.0,0.0,4.0,1.0,phase_2,stop,450.0,600.0,4.0,,,,,,,,,cyan,hexagon
0.0,6.0,1.0,1.0,5.0,0.0,0.0,4.0,1.0,phase_2,stop,500.0,600.0,4.0,,,,,,,,,gray,flipped triangle
0.0,4.0,4.0,0.0,5.0,5.0,1014.4052790001297,4.0,1.0,phase_2,go,550.0,600.0,1.0,,,,,,,,,blue,I
0.0,7.0,2.0,1.0,6.0,0.0,0.0,4.0,1.0,phase_2,stop,550.0,600.0,4.0,,,,,,,,,yellow,cross
0.0,6.0,1.0,1.0,6.0,0.0,0.0,4.0,1.0,phase_2,stop,550.0,650.0,4.0,,,,,,,,,gray,flipped triangle
0.0,8.0,4.0,1.0,6.0,6.0,822.5597509999716,4.0,1.0,phase_2,stop,550.0,700.0,3.0,,,,,,,,,cyan,hexagon
0.0,7.0,2.0,1.0,6.0,6.0,896.074074000353,4.0,1.0,phase_2,go,550.0,650.0,1.0,,,,,,,,,yellow,cross
0.0,7.0,2.0,1.0,6.0,0.0,0.0,4.0,1.0,phase_2,stop,550.0,650.0,4.0,,,,,,,,,yellow,cross
0.0,7.0,2.0,1.0,6.0,6.0,885.8536959996854,4.0,1.0,phase_2,go,550.0,700.0,1.0,,,,,,,,,yellow,cross
0.0,4.0,4.0,0.0,5.0,5.0,821.8019500000082,4.0,1.0,phase_2,go,550.0,700.0,1.0,,,,,,,,,blue,I
0.0,7.0,2.0,1.0,5.0,0.0,0.0,4.0,1.0,phase_2,stop,550.0,700.0,4.0,,,,,,,,,yellow,cross
0.0,3.0,2.0,0.0,6.0,6.0,815.666443000282,4.0,1.0,phase_2,go,600.0,700.0,1.0,,,,,,,,,white,square
0.0,4.0,4.0,0.0,5.0,5.0,809.6727610000016,4.0,1.0,phase_2,go,600.0,700.0,1.0,,,,,,,,,blue,I
0.0,7.0,2.0,1.0,6.0,6.0,803.9670819998719,4.0,1.0,phase_2,go,600.0,700.0,1.0,,,,,,,,,yellow,cross
0.0,5.0,0.5,1.0,6.0,0.0,0.0,4.0,1.0,phase_2,stop,600.0,700.0,4.0,,,,,,,,,green,diamond
0.0,8.0,4.0,1.0,5.0,5.0,751.7161629998554,4.0,1.0,phase_2,go,600.0,750.0,1.0,,,,,,,,,cyan,hexagon
0.0,7.0,2.0,1.0,6.0,6.0,856.0125149997475,4.0,1.0,phase_2,stop,600.0,750.0,3.0,,,,,,,,,yellow,cross
0.0,2.0,1.0,0.0,6.0,6.0,888.8480049999998,4.0,1.0,phase_2,go,600.0,700.0,1.0,,,,,,,,,magenta,triangle
0.0,8.0,4.0,1.0,6.0,6.0,832.8168630000619,4.0,1.0,phase_2,go,600.0,700.0,1.0,,,,,,,,,cyan,hexagon
0.0,5.0,0.5,1.0,6.0,0.0,0.0,4.0,1.0,phase_2,stop,600.0,700.0,4.0,,,,,,,,,green,diamond
0.0,6.0,1.0,1.0,5.0,0.0,0.0,4.0,1.0,phase_2,stop,600.0,750.0,4.0,,,,,,,,,gray,flipped triangle
0.0,6.0,1.0,1.0,6.0,6.0,931.078166000134,4.0,1.0,phase_2,go,650.0,750.0,1.0,,,,,,,,,gray,flipped triangle
0.0,8.0,4.0,1.0,6.0,6.0,922.6078940000662,4.0,1.0,phase_2,stop,650.0,750.0,3.0,,,,,,,,,cyan,hexagon
0.0,1.0,0.5,0.0,6.0,6.0,1130.0420659999872,4.0,1.0,phase_2,go,650.0,700.0,1.0,,,,,,,,,orange,circle
0.0,4.0,4.0,0.0,6.0,6.0,979.4304919996648,4.0,1.0,phase_2,go,650.0,700.0,1.0,,,,,,,,,blue,I
0.0,6.0,1.0,1.0,5.0,0.0,0.0,4.0,1.0,phase_2,stop,650.0,700.0,4.0,,,,,,,,,gray,flipped triangle
0.0,3.0,2.0,0.0,5.0,5.0,1022.2078070000862,5.0,1.0,phase_2,go,700.0,700.0,1.0,,,,,,,,,white,square
0.0,5.0,0.5,1.0,6.0,0.0,0.0,5.0,1.0,phase_2,stop,700.0,700.0,4.0,,,,,,,,,green,diamond
0.0,1.0,0.5,0.0,5.0,5.0,883.6238899998534,5.0,1.0,phase_2,go,700.0,750.0,1.0,,,,,,,,,orange,circle
0.0,6.0,1.0,1.0,6.0,0.0,0.0,5.0,1.0,phase_2,stop,700.0,750.0,4.0,,,,,,,,,gray,flipped triangle
0.0,4.0,4.0,0.0,5.0,5.0,932.6496219996444,5.0,1.0,phase_2,go,700.0,800.0,1.0,,,,,,,,,blue,I
0.0,4.0,4.0,0.0,5.0,5.0,966.6001949999554,5.0,1.0,phase_2,go,700.0,800.0,1.0,,,,,,,,,blue,I
0.0,2.0,1.0,0.0,5.0,5.0,707.2753100001137,5.0,1.0,phase_2,go,700.0,800.0,1.0,,,,,,,,,magenta,triangle
0.0,6.0,1.0,1.0,5.0,0.0,0.0,5.0,1.0,phase_2,stop,700.0,800.0,4.0,,,,,,,,,gray,flipped triangle
0.0,3.0,2.0,0.0,6.0,6.0,948.1117430000268,5.0,1.0,phase_2,go,750.0,800.0,1.0,,,,,,,,,white,square
0.0,1.0,0.5,0.0,6.0,6.0,881.3635049996265,5.0,1.0,phase_2,go,750.0,800.0,1.0,,,,,,,,,orange,circle
0.0,5.0,0.5,1.0,5.0,5.0,793.716866000068,5.0,1.0,phase_2,stop,750.0,800.0,3.0,,,,,,,,,green,diamond
0.0,1.0,0.5,0.0,6.0,6.0,686.218559000281,5.0,1.0,phase_2,go,700.0,800.0,1.0,,,,,,,,,orange,circle
0.0,2.0,1.0,0.0,6.0,6.0,910.1709179999488,5.0,1.0,phase_2,go,700.0,800.0,1.0,,,,,,,,,magenta,triangle
0.0,8.0,4.0,1.0,5.0,5.0,689.6199600000728,5.0,1.0,phase_2,go,700.0,800.0,1.0,,,,,,,,,cyan,hexagon
0.0,7.0,2.0,1.0,5.0,5.0,832.5383900000816,5.0,1.0,phase_2,stop,700.0,800.0,3.0,,,,,,,,,yellow,cross
0.0,7.0,2.0,1.0,5.0,5.0,637.8179289999935,5.0,1.0,phase_2,stop,650.0,800.0,3.0,,,,,,,,,yellow,cross
0.0,2.0,1.0,0.0,6.0,6.0,833.2809290000114,5.0,1.0,phase_2,go,600.0,800.0,1.0,,,,,,,,,magenta,triangle
0.0,3.0,2.0,0.0,6.0,6.0,895.2652140001192,5.0,1.0,phase_2,go,600.0,800.0,1.0,,,,,,,,,white,square
0.0,4.0,4.0,0.0,5.0,5.0,781.9029980000778,5.0,1.0,phase_2,go,600.0,800.0,1.0,,,,,,,,,blue,I
0.0,8.0,4.0,1.0,5.0,5.0,867.7581130000362,5.0,1.0,phase_2,go,600.0,800.0,1.0,,,,,,,,,cyan,hexagon
0.0,2.0,1.0,0.0,6.0,6.0,417.7758820001145,5.0,1.0,phase_2,go,600.0,800.0,1.0,,,,,,,,,magenta,triangle
0.0,1.0,0.5,0.0,5.0,5.0,615.2679919996444,5.0,1.0,phase_2,go,600.0,800.0,1.0,,,,,,,,,orange,circle
0.0,3.0,2.0,0.0,6.0,6.0,253.2939829998213,5.0,1.0,phase_2,go,600.0,800.0,1.0,,,,,,,,,white,square
0.0,5.0,0.5,1.0,5.0,0.0,0.0,5.0,1.0,phase_2,stop,600.0,800.0,4.0,,,,,,,,,green,diamond
0.0,7.0,2.0,1.0,6.0,6.0,740.4904569998507,5.0,1.0,phase_2,go,650.0,800.0,1.0,,,,,,,,,yellow,cross
0.0,6.0,1.0,1.0,6.0,6.0,835.6445320000603,5.0,1.0,phase_2,go,650.0,800.0,1.0,,,,,,,,,gray,flipped triangle
0.0,3.0,2.0,0.0,5.0,5.0,868.7140120000549,5.0,1.0,phase_2,go,650.0,800.0,1.0,,,,,,,,,white,square
0.0,3.0,2.0,0.0,6.0,6.0,865.4598940001961,5.0,1.0,phase_2,go,650.0,800.0,1.0,,,,,,,,,white,square
0.0,8.0,4.0,1.0,6.0,6.0,749.9715580001975,5.0,1.0,phase_2,stop,650.0,800.0,3.0,,,,,,,,,cyan,hexagon
0.0,3.0,2.0,0.0,5.0,5.0,730.0374199999169,5.0,1.0,phase_2,go,650.0,750.0,1.0,,,,,,,,,white,square
0.0,2.0,1.0,0.0,6.0,6.0,738.8522850001209,5.0,1.0,phase_2,go,650.0,750.0,1.0,,,,,,,,,magenta,triangle
0.0,7.0,2.0,1.0,5.0,5.0,762.2531830002117,5.0,1.0,phase_2,go,650.0,750.0,1.0,,,,,,,,,yellow,cross
0.0,7.0,2.0,1.0,5.0,5.0,631.491403000382,5.0,1.0,phase_2,stop,650.0,750.0,3.0,,,,,,,,,yellow,cross
0.0,2.0,1.0,0.0,6.0,6.0,679.0833869999915,5.0,1.0,phase_2,go,600.0,750.0,1.0,,,,,,,,,magenta,triangle
0.0,5.0,0.5,1.0,5.0,0.0,0.0,5.0,1.0,phase_2,stop,600.0,750.0,4.0,,,,,,,,,green,diamond
0.0,8.0,4.0,1.0,6.0,6.0,888.0898180000258,5.0,1.0,phase_2,stop,650.0,750.0,3.0,,,,,,,,,cyan,hexagon
0.0,4.0,4.0,0.0,6.0,6.0,479.2323960000431,6.0,1.0,phase_2,go,650.0,700.0,1.0,,,,,,,,,blue,I
0.0,8.0,4.0,1.0,6.0,6.0,484.4262960000378,6.0,1.0,phase_2,go,650.0,700.0,1.0,,,,,,,,,cyan,hexagon
0.0,1.0,0.5,0.0,5.0,5.0,414.8060220004481,6.0,1.0,phase_2,go,650.0,700.0,1.0,,,,,,,,,orange,circle
0.0,7.0,2.0,1.0,5.0,5.0,381.6596540000319,6.0,1.0,phase_2,stop,650.0,700.0,3.0,,,,,,,,,yellow,cross
0.0,8.0,4.0,1.0,5.0,5.0,583.6541419998866,6.0,1.0,phase_2,stop,600.0,700.0,3.0,,,,,,,,,cyan,hexagon
0.0,4.0,4.0,0.0,6.0,6.0,914.7253820001424,6.0,1.0,phase_2,go,550.0,700.0,1.0,,,,,,,,,blue,I
0.0,4.0,4.0,0.0,6.0,6.0,669.0994250002404,6.0,1.0,phase_2,go,550.0,700.0,1.0,,,,,,,,,blue,I
0.0,6.0,1.0,1.0,6.0,6.0,741.3023330000215,6.0,1.0,phase_2,stop,550.0,700.0,3.0,,,,,,,,,gray,flipped triangle
0.0,4.0,4.0,0.0,5.0,5.0,714.0278790002412,6.0,1.0,phase_2,go,550.0,650.0,1.0,,,,,,,,,blue,I
0.0,8.0,4.0,1.0,6.0,6.0,741.8033540002398,6.0,1.0,phase_2,stop,550.0,650.0,3.0,,,,,,,,,cyan,hexagon
0.0,4.0,4.0,0.0,5.0,5.0,875.3530809999575,6.0,1.0,phase_2,go,550.0,600.0,1.0,,,,,,,,,blue,I
0.0,7.0,2.0,1.0,6.0,6.0,1037.991733999661,6.0,1.0,phase_2,go,550.0,600.0,1.0,,,,,,,,,yellow,cross
0.0,4.0,4.0,0.0,6.0,5.0,188.9158169997244,6.0,1.0,phase_2,go,550.0,600.0,2.0,,,,,,,,,blue,I
0.0,8.0,4.0,1.0,6.0,0.0,0.0,6.0,1.0,phase_2,stop,550.0,600.0,4.0,,,,,,,,,cyan,hexagon
0.0,7.0,2.0,1.0,5.0,5.0,619.9861850000161,6.0,1.0,phase_2,go,550.0,650.0,1.0,,,,,,,,,yellow,cross
0.0,6.0,1.0,1.0,6.0,6.0,491.2942229998407,6.0,1.0,phase_2,stop,550.0,650.0,3.0,,,,,,,,,gray,flipped triangle
0.0,3.0,2.0,0.0,6.0,6.0,876.1626509999587,6.0,1.0,phase_2,go,550.0,600.0,1.0,,,,,,,,,white,square
0.0,4.0,4.0,0.0,5.0,5.0,858.4316020001097,6.0,1.0,phase_2,go,550.0,600.0,1.0,,,,,,,,,blue,I
0.0,3.0,2.0,0.0,6.0,6.0,774.7859769997376,6.0,1.0,phase_2,go,550.0,600.0,1.0,,,,,,,,,white,square
0.0,6.0,1.0,1.0,5.0,5.0,422.0994610000161,6.0,1.0,phase_2,stop,550.0,600.0,3.0,,,,,,,,,gray,flipped triangle
0.0,6.0,1.0,1.0,5.0,0.0,0.0,6.0,1.0,phase_2,stop,500.0,600.0,4.0,,,,,,,,,gray,flipped triangle
0.0,5.0,0.5,1.0,6.0,0.0,0.0,6.0,1.0,phase_2,stop,550.0,600.0,4.0,,,,,,,,,green,diamond
0.0,3.0,2.0,0.0,6.0,6.0,647.7704700000686,6.0,1.0,phase_2,go,550.0,650.0,1.0,,,,,,,,,white,square
0.0,8.0,4.0,1.0,5.0,0.0,0.0,6.0,1.0,phase_2,stop,550.0,650.0,4.0,,,,,,,,,cyan,hexagon
0.0,1.0,0.5,0.0,5.0,5.0,624.263406999944,6.0,1.0,phase_2,go,600.0,650.0,1.0,,,,,,,,,orange,circle
0.0,2.0,1.0,0.0,5.0,5.0,874.4954690000668,6.0,1.0,phase_2,go,600.0,650.0,1.0,,,,,,,,,magenta,triangle
0.0,7.0,2.0,1.0,6.0,6.0,743.3636410000872,6.0,1.0,phase_2,go,600.0,650.0,1.0,,,,,,,,,yellow,cross
0.0,7.0,2.0,1.0,6.0,6.0,713.9320419996693,6.0,1.0,phase_2,stop,600.0,650.0,3.0,,,,,,,,,yellow,cross
0.0,3.0,2.0,0.0,5.0,5.0,737.1169980001469,6.0,1.0,phase_2,go,600.0,600.0,1.0,,,,,,,,,white,square
0.0,1.0,0.5,0.0,5.0,5.0,439.8084979998202,6.0,1.0,phase_2,go,600.0,600.0,1.0,,,,,,,,,orange,circle
0.0,3.0,2.0,0.0,6.0,6.0,475.8749940001507,6.0,1.0,phase_2,go,600.0,600.0,1.0,,,,,,,,,white,square
0.0,7.0,2.0,1.0,5.0,0.0,0.0,6.0,1.0,phase_2,stop,600.0,600.0,4.0,,,,,,,,,yellow,cross
0.0,5.0,0.5,1.0,6.0,0.0,0.0,6.0,1.0,phase_2,stop,650.0,600.0,4.0,,,,,,,,,green,diamond
0.0,2.0,1.0,0.0,5.0,5.0,704.1809499996816,6.0,1.0,phase_2,go,650.0,650.0,1.0,,,,,,,,,magenta,triangle
0.0,2.0,1.0,0.0,5.0,5.0,936.1612030002108,6.0,1.0,phase_2,go,650.0,650.0,1.0,,,,,,,,,magenta,triangle
0.0,3.0,2.0,0.0,5.0,5.0,711.2667710002825,6.0,1.0,phase_2,go,650.0,650.0,1.0,,,,,,,,,white,square
0.0,4.0,4.0,0.0,6.0,6.0,1386.360867999883,7.0,1.0,phase_2,go,650.0,650.0,1.0,,,,,,,,,blue,I
0.0,1.0,0.5,0.0,6.0,6.0,432.5376199999482,7.0,1.0,phase_2,go,650.0,650.0,1.0,,,,,,,,,orange,circle
0.0,1.0,0.5,0.0,5.0,5.0,674.2410770002607,7.0,1.0,phase_2,go,650.0,650.0,1.0,,,,,,,,,orange,circle
0.0,5.0,0.5,1.0,5.0,5.0,736.71012099976,7.0,1.0,phase_2,go,650.0,650.0,1.0,,,,,,,,,green,diamond
0.0,6.0,1.0,1.0,6.0,6.0,507.59943299999577,7.0,1.0,phase_2,stop,650.0,650.0,3.0,,,,,,,,,gray,flipped triangle
0.0,6.0,1.0,1.0,6.0,0.0,0.0,7.0,1.0,phase_2,stop,650.0,600.0,4.0,,,,,,,,,gray,flipped triangle
0.0,4.0,4.0,0.0,5.0,5.0,580.3699559996858,7.0,1.0,phase_2,go,650.0,650.0,1.0,,,,,,,,,blue,I
0.0,7.0,2.0,1.0,6.0,0.0,0.0,7.0,1.0,phase_2,stop,650.0,650.0,4.0,,,,,,,,,yellow,cross
0.0,2.0,1.0,0.0,6.0,6.0,664.8975990001418,7.0,1.0,phase_2,go,650.0,700.0,1.0,,,,,,,,,magenta,triangle
0.0,3.0,2.0,0.0,5.0,5.0,377.2704809998686,7.0,1.0,phase_2,go,650.0,700.0,1.0,,,,,,,,,white,square
0.0,4.0,4.0,0.0,6.0,6.0,484.437882000293,7.0,1.0,phase_2,go,650.0,700.0,1.0,,,,,,,,,blue,I
0.0,3.0,2.0,0.0,5.0,5.0,495.6760159998339,7.0,1.0,phase_2,go,650.0,700.0,1.0,,,,,,,,,white,square
0.0,6.0,1.0,1.0,6.0,0.0,0.0,7.0,1.0,phase_2,stop,650.0,700.0,4.0,,,,,,,,,gray,flipped triangle
0.0,5.0,0.5,1.0,5.0,5.0,964.2805489997954,7.0,1.0,phase_2,go,650.0,750.0,1.0,,,,,,,,,green,diamond
0.0,8.0,4.0,1.0,5.0,0.0,0.0,7.0,1.0,phase_2,stop,650.0,750.0,4.0,,,,,,,,,cyan,hexagon
0.0,5.0,0.5,1.0,6.0,6.0,832.1419800004151,7.0,1.0,phase_2,stop,700.0,750.0,3.0,,,,,,,,,green,diamond
0.0,4.0,4.0,0.0,6.0,6.0,573.7168770001517,7.0,1.0,phase_2,go,700.0,700.0,1.0,,,,,,,,,blue,I
0.0,5.0,0.5,1.0,6.0,0.0,0.0,7.0,1.0,phase_2,stop,700.0,700.0,4.0,,,,,,,,,green,diamond
0.0,1.0,0.5,0.0,5.0,5.0,558.3192819999567,7.0,1.0,phase_2,go,700.0,750.0,1.0,,,,,,,,,orange,circle
0.0,3.0,2.0,0.0,5.0,5.0,480.9456449997924,7.0,1.0,phase_2,go,700.0,750.0,1.0,,,,,,,,,white,square
0.0,6.0,1.0,1.0,5.0,5.0,416.6049929999644,7.0,1.0,phase_2,stop,700.0,750.0,3.0,,,,,,,,,gray,flipped triangle
0.0,5.0,0.5,1.0,5.0,0.0,0.0,7.0,1.0,phase_2,stop,650.0,750.0,4.0,,,,,,,,,green,diamond
0.0,7.0,2.0,1.0,5.0,0.0,0.0,7.0,1.0,phase_2,stop,700.0,750.0,4.0,,,,,,,,,yellow,cross
0.0,3.0,2.0,0.0,6.0,6.0,680.7964399999946,7.0,1.0,phase_2,go,750.0,750.0,1.0,,,,,,,,,white,square
0.0,7.0,2.0,1.0,6.0,0.0,0.0,7.0,1.0,phase_2,stop,750.0,750.0,4.0,,,,,,,,,yellow,cross
0.0,3.0,2.0,0.0,6.0,6.0,809.8304189998089,7.0,1.0,phase_2,go,750.0,800.0,1.0,,,,,,,,,white,square
0.0,2.0,1.0,0.0,5.0,5.0,630.7181370002581,7.0,1.0,phase_2,go,750.0,800.0,1.0,,,,,,,,,magenta,triangle
0.0,7.0,2.0,1.0,5.0,0.0,0.0,7.0,1.0,phase_2,stop,750.0,800.0,4.0,,,,,,,,,yellow,cross
0.0,2.0,1.0,0.0,5.0,5.0,526.1648260002403,7.0,1.0,phase_2,go,800.0,800.0,1.0,,,,,,,,,magenta,triangle
0.0,1.0,0.5,0.0,6.0,6.0,419.5543979999456,7.0,1.0,phase_2,go,800.0,800.0,1.0,,,,,,,,,orange,circle
0.0,6.0,1.0,1.0,5.0,0.0,0.0,7.0,1.0,phase_2,stop,800.0,800.0,4.0,,,,,,,,,gray,flipped triangle
0.0,4.0,4.0,0.0,6.0,6.0,520.8168120002483,7.0,1.0,phase_2,go,850.0,800.0,1.0,,,,,,,,,blue,I
0.0,8.0,4.0,1.0,6.0,0.0,0.0,7.0,1.0,phase_2,stop,850.0,800.0,4.0,,,,,,,,,cyan,hexagon
0.0,6.0,1.0,1.0,5.0,5.0,1197.851226000239,7.0,1.0,phase_2,go,850.0,850.0,1.0,,,,,,,,,gray,flipped triangle
0.0,8.0,4.0,1.0,5.0,0.0,0.0,7.0,1.0,phase_2,stop,850.0,850.0,4.0,,,,,,,,,cyan,hexagon
0.0,3.0,2.0,0.0,5.0,5.0,629.1444319999755,7.0,1.0,phase_2,go,900.0,850.0,1.0,,,,,,,,,white,square
0.0,6.0,1.0,1.0,5.0,0.0,0.0,8.0,1.0,phase_2,stop,900.0,850.0,4.0,,,,,,,,,gray,flipped triangle
0.0,8.0,4.0,1.0,5.0,0.0,0.0,8.0,1.0,phase_2,stop,950.0,850.0,4.0,,,,,,,,,cyan,hexagon
0.0,4.0,4.0,0.0,5.0,5.0,521.7123659999743,8.0,1.0,phase_2,go,1000.0,850.0,1.0,,,,,,,,,blue,I
0.0,1.0,0.5,0.0,5.0,5.0,402.95568800002,8.0,1.0,phase_2,go,1000.0,850.0,1.0,,,,,,,,,orange,circle
0.0,5.0,0.5,1.0,6.0,6.0,990.2745470003538,8.0,1.0,phase_2,stop,1000.0,850.0,3.0,,,,,,,,,green,diamond
0.0,3.0,2.0,0.0,6.0,6.0,574.9464529999386,8.0,1.0,phase_2,go,1000.0,800.0,1.0,,,,,,,,,white,square
0.0,3.0,2.0,0.0,5.0,5.0,736.9568340000114,8.0,1.0,phase_2,go,1000.0,800.0,1.0,,,,,,,,,white,square
0.0,3.0,2.0,0.0,5.0,5.0,410.5293079996954,8.0,1.0,phase_2,go,1000.0,800.0,1.0,,,,,,,,,white,square
0.0,2.0,1.0,0.0,5.0,5.0,937.9378550002002,8.0,1.0,phase_2,go,1000.0,800.0,1.0,,,,,,,,,magenta,triangle
0.0,1.0,0.5,0.0,6.0,6.0,388.7423190003574,8.0,1.0,phase_2,go,1000.0,800.0,1.0,,,,,,,,,orange,circle
0.0,5.0,0.5,1.0,6.0,0.0,0.0,8.0,1.0,phase_2,stop,1000.0,800.0,4.0,,,,,,,,,green,diamond
0.0,5.0,0.5,1.0,5.0,0.0,0.0,8.0,1.0,phase_2,stop,1000.0,850.0,4.0,,,,,,,,,green,diamond
0.0,6.0,1.0,1.0,6.0,0.0,0.0,8.0,1.0,phase_2,stop,1050.0,850.0,4.0,,,,,,,,,gray,flipped triangle
0.0,1.0,0.5,0.0,5.0,5.0,529.9603439998464,8.0,1.0,phase_2,go,1050.0,900.0,1.0,,,,,,,,,orange,circle
0.0,8.0,4.0,1.0,5.0,5.0,1081.1863730000368,8.0,1.0,phase_2,stop,1050.0,900.0,3.0,,,,,,,,,cyan,hexagon
0.0,5.0,0.5,1.0,6.0,0.0,0.0,8.0,1.0,phase_2,stop,1000.0,900.0,4.0,,,,,,,,,green,diamond
0.0,2.0,1.0,0.0,6.0,6.0,676.4689329997964,8.0,1.0,phase_2,go,1000.0,950.0,1.0,,,,,,,,,magenta,triangle
0.0,5.0,0.5,1.0,5.0,0.0,0.0,8.0,1.0,phase_2,stop,1000.0,950.0,4.0,,,,,,,,,green,diamond
0.0,7.0,2.0,1.0,5.0,5.0,1093.975906000196,8.0,1.0,phase_2,stop,1050.0,950.0,3.0,,,,,,,,,yellow,cross
0.0,4.0,4.0,0.0,5.0,5.0,617.4498289997246,8.0,1.0,phase_2,go,1000.0,950.0,1.0,,,,,,,,,blue,I
0.0,4.0,4.0,0.0,5.0,5.0,575.2554810001129,8.0,1.0,phase_2,go,1000.0,950.0,1.0,,,,,,,,,blue,I
0.0,2.0,1.0,0.0,6.0,6.0,648.9018170000236,8.0,1.0,phase_2,go,1000.0,950.0,1.0,,,,,,,,,magenta,triangle
0.0,8.0,4.0,1.0,6.0,0.0,0.0,8.0,1.0,phase_2,go,1000.0,950.0,5.0,,,,,,,,,cyan,hexagon
0.0,7.0,2.0,1.0,5.0,5.0,343.7919359998886,8.0,1.0,phase_2,stop,1000.0,950.0,3.0,,,,,,,,,yellow,cross
0.0,4.0,4.0,0.0,5.0,5.0,391.4695409998785,8.0,1.0,phase_2,go,950.0,950.0,1.0,,,,,,,,,blue,I
0.0,3.0,2.0,0.0,6.0,6.0,626.8238030002067,8.0,1.0,phase_2,go,950.0,950.0,1.0,,,,,,,,,white,square
0.0,1.0,0.5,0.0,5.0,5.0,384.4759190001241,8.0,1.0,phase_2,go,950.0,950.0,1.0,,,,,,,,,orange,circle
0.0,6.0,1.0,1.0,5.0,0.0,0.0,8.0,1.0,phase_2,stop,950.0,950.0,4.0,,,,,,,,,gray,flipped triangle
0.0,6.0,1.0,1.0,5.0,5.0,1274.3942170000082,8.0,1.0,phase_2,go,1000.0,950.0,1.0,,,,,,,,,gray,flipped triangle
0.0,1.0,0.5,0.0,6.0,6.0,549.5829540000159,8.0,1.0,phase_2,go,1000.0,950.0,1.0,,,,,,,,,orange,circle
0.0,5.0,0.5,1.0,5.0,0.0,0.0,8.0,1.0,phase_2,stop,1000.0,950.0,4.0,,,,,,,,,green,diamond
0.0,2.0,1.0,0.0,5.0,5.0,606.6608979999728,8.0,1.0,phase_2,go,1050.0,950.0,1.0,,,,,,,,,magenta,triangle
0.0,1.0,0.5,0.0,5.0,5.0,439.9309649998031,8.0,1.0,phase_2,go,1050.0,950.0,1.0,,,,,,,,,orange,circle
0.0,8.0,4.0,1.0,6.0,0.0,0.0,8.0,1.0,phase_2,stop,1050.0,950.0,4.0,,,,,,,,,cyan,hexagon
0.0,1.0,0.5,0.0,6.0,6.0,492.0687349999753,8.0,1.0,phase_2,go,1050.0,1000.0,1.0,,,,,,,,,orange,circle
0.0,7.0,2.0,1.0,5.0,0.0,0.0,8.0,1.0,phase_2,stop,1050.0,1000.0,4.0,,,,,,,,,yellow,cross
0.0,2.0,1.0,0.0,7.0,2.0,3574.671216999832,1.0,1.0,phase_3,,,,,156.0,4.0,78.0,156.0,234.0,195.0,117.0,39.0,magenta,triangle
0.0,7.0,2.0,1.0,7.0,2.0,3029.6806420001303,1.0,1.0,phase_3,,,,,234.0,6.0,117.0,234.0,39.0,156.0,78.0,195.0,yellow,cross
0.0,1.0,0.5,0.0,7.0,5.0,1237.3891909996928,1.0,1.0,phase_3,,,,,245.0,5.0,98.0,49.0,294.0,196.0,245.0,147.0,orange,circle
0.0,3.0,2.0,0.0,7.0,6.0,1198.1547399996089,1.0,1.0,phase_3,,,,,176.0,4.0,220.0,88.0,264.0,44.0,132.0,176.0,white,square
0.0,7.0,2.0,1.0,7.0,4.0,1303.341728000305,1.0,1.0,phase_3,,,,,264.0,6.0,88.0,176.0,132.0,264.0,220.0,44.0,yellow,cross
0.0,7.0,2.0,1.0,7.0,5.0,2788.62220100018,1.0,1.0,phase_3,,,,,245.0,5.0,98.0,147.0,196.0,49.0,245.0,294.0,yellow,cross
0.0,3.0,2.0,0.0,7.0,2.0,2954.06504499988,1.0,1.0,phase_3,,,,,162.0,3.0,324.0,162.0,54.0,108.0,216.0,270.0,white,square
0.0,5.0,0.5,1.0,7.0,4.0,1421.6423169996233,1.0,1.0,phase_3,,,,,324.0,6.0,162.0,54.0,108.0,324.0,270.0,216.0,green,diamond
0.0,1.0,0.5,0.0,7.0,2.0,2345.692205999967,1.0,1.0,phase_3,,,,,156.0,4.0,39.0,156.0,117.0,234.0,195.0,78.0,orange,circle
0.0,8.0,4.0,1.0,7.0,5.0,1954.2286819996664,1.0,1.0,phase_3,,,,,204.0,6.0,136.0,170.0,34.0,68.0,204.0,102.0,cyan,hexagon
0.0,4.0,4.0,0.0,7.0,3.0,1948.461754000164,1.0,1.0,phase_3,,,,,78.0,2.0,156.0,195.0,78.0,39.0,117.0,234.0,blue,I
0.0,1.0,0.5,0.0,7.0,4.0,1176.7187140003443,1.0,1.0,phase_3,,,,,136.0,4.0,102.0,68.0,170.0,136.0,34.0,204.0,orange,circle
0.0,6.0,1.0,1.0,7.0,5.0,1060.2512339996792,1.0,1.0,phase_3,,,,,54.0,1.0,162.0,324.0,270.0,216.0,54.0,108.0,gray,flipped triangle
0.0,6.0,1.0,1.0,7.0,1.0,1690.0116500000877,1.0,1.0,phase_3,,,,,78.0,2.0,78.0,195.0,234.0,117.0,39.0,156.0,gray,flipped triangle
0.0,2.0,1.0,0.0,7.0,4.0,1670.2928640002028,1.0,1.0,phase_3,,,,,264.0,6.0,176.0,220.0,132.0,264.0,44.0,88.0,magenta,triangle
0.0,6.0,1.0,1.0,7.0,5.0,902.4874709998584,1.0,1.0,phase_3,,,,,34.0,1.0,204.0,136.0,68.0,170.0,34.0,102.0,gray,flipped triangle
0.0,8.0,4.0,1.0,7.0,4.0,982.283219999772,1.0,1.0,phase_3,,,,,324.0,6.0,54.0,216.0,270.0,324.0,108.0,162.0,cyan,hexagon
0.0,7.0,2.0,1.0,7.0,3.0,1760.4101079996326,1.0,1.0,phase_3,,,,,204.0,6.0,34.0,170.0,204.0,102.0,68.0,136.0,yellow,cross
0.0,8.0,4.0,1.0,7.0,1.0,2030.704488000083,1.0,1.0,phase_3,,,,,294.0,6.0,294.0,245.0,147.0,196.0,98.0,49.0,cyan,hexagon
0.0,8.0,4.0,1.0,7.0,6.0,1441.4552190000904,1.0,1.0,phase_3,,,,,234.0,6.0,195.0,117.0,78.0,156.0,39.0,234.0,cyan,hexagon
0.0,6.0,1.0,1.0,7.0,2.0,1432.1686439998302,2.0,1.0,phase_3,,,,,49.0,1.0,245.0,49.0,98.0,147.0,294.0,196.0,gray,flipped triangle
0.0,4.0,4.0,0.0,7.0,4.0,1450.271718999829,2.0,1.0,phase_3,,,,,204.0,6.0,136.0,34.0,170.0,204.0,102.0,68.0,blue,I
0.0,5.0,0.5,1.0,7.0,1.0,1598.2021560002977,2.0,1.0,phase_3,,,,,234.0,6.0,234.0,156.0,195.0,117.0,39.0,78.0,green,diamond
0.0,6.0,1.0,1.0,7.0,1.0,1397.6527810000334,2.0,1.0,phase_3,,,,,44.0,1.0,44.0,88.0,176.0,220.0,132.0,264.0,gray,flipped triangle
0.0,5.0,0.5,1.0,7.0,5.0,1597.0569219998652,2.0,1.0,phase_3,,,,,294.0,6.0,49.0,147.0,245.0,98.0,294.0,196.0,green,diamond
0.0,2.0,1.0,0.0,7.0,6.0,1215.5286830002296,2.0,1.0,phase_3,,,,,234.0,6.0,39.0,195.0,117.0,78.0,156.0,234.0,magenta,triangle
0.0,4.0,4.0,0.0,7.0,4.0,985.3624450006464,2.0,1.0,phase_3,,,,,136.0,4.0,204.0,170.0,34.0,136.0,102.0,68.0,blue,I
0.0,2.0,1.0,0.0,7.0,4.0,1422.7542950002317,2.0,1.0,phase_3,,,,,204.0,6.0,136.0,68.0,102.0,204.0,34.0,170.0,magenta,triangle
0.0,6.0,1.0,1.0,7.0,5.0,1467.6712210002734,2.0,1.0,phase_3,,,,,39.0,1.0,117.0,195.0,234.0,78.0,39.0,156.0,gray,flipped triangle
0.0,1.0,0.5,0.0,7.0,3.0,1237.4809240000104,2.0,1.0,phase_3,,,,,54.0,1.0,324.0,270.0,54.0,216.0,108.0,162.0,orange,circle
0.0,7.0,2.0,1.0,7.0,1.0,2295.041511999443,2.0,1.0,phase_3,,,,,294.0,6.0,294.0,147.0,98.0,49.0,196.0,245.0,yellow,cross
0.0,7.0,2.0,1.0,7.0,3.0,1875.1091180001824,2.0,1.0,phase_3,,,,,270.0,5.0,324.0,108.0,270.0,54.0,162.0,216.0,yellow,cross
0.0,1.0,0.5,0.0,7.0,6.0,883.8870939998742,2.0,1.0,phase_3,,,,,88.0,2.0,220.0,132.0,176.0,264.0,44.0,88.0,orange,circle
0.0,1.0,0.5,0.0,7.0,6.0,722.5990259994433,2.0,1.0,phase_3,,,,,44.0,1.0,88.0,264.0,220.0,132.0,176.0,44.0,orange,circle
0.0,5.0,0.5,1.0,7.0,3.0,1457.2897699999885,2.0,1.0,phase_3,,,,,204.0,6.0,34.0,68.0,204.0,102.0,170.0,136.0,green,diamond
0.0,1.0,0.5,0.0,7.0,6.0,440.9513450000304,2.0,1.0,phase_3,,,,,234.0,6.0,195.0,78.0,117.0,156.0,39.0,234.0,orange,circle
0.0,3.0,2.0,0.0,7.0,4.0,1489.6848889993637,2.0,1.0,phase_3,,,,,108.0,2.0,54.0,162.0,216.0,108.0,270.0,324.0,white,square
0.0,2.0,1.0,0.0,7.0,2.0,1264.071638999667,2.0,1.0,phase_3,,,,,270.0,5.0,108.0,270.0,216.0,162.0,324.0,54.0,magenta,triangle
0.0,8.0,4.0,1.0,7.0,5.0,1129.9845250005092,2.0,1.0,phase_3,,,,,324.0,6.0,270.0,108.0,162.0,54.0,324.0,216.0,cyan,hexagon
0.0,5.0,0.5,1.0,7.0,2.0,1551.755847000095,2.0,1.0,phase_3,,,,,204.0,6.0,34.0,204.0,68.0,102.0,136.0,170.0,green,diamond
0.0,8.0,4.0,1.0,7.0,5.0,1973.193861999789,3.0,1.0,phase_3,,,,,204.0,6.0,102.0,136.0,68.0,170.0,204.0,34.0,cyan,hexagon
0.0,8.0,4.0,1.0,7.0,6.0,1708.2767040001272,3.0,1.0,phase_3,,,,,264.0,6.0,220.0,88.0,132.0,176.0,44.0,264.0,cyan,hexagon
0.0,7.0,2.0,1.0,7.0,1.0,1435.2264239996655,3.0,1.0,phase_3,,,,,270.0,5.0,270.0,324.0,216.0,108.0,54.0,162.0,yellow,cross
0.0,5.0,0.5,1.0,7.0,4.0,1457.2897499992905,3.0,1.0,phase_3,,,,,270.0,5.0,108.0,162.0,216.0,270.0,54.0,324.0,green,diamond
0.0,1.0,0.5,0.0,7.0,6.0,272.6972810005463,3.0,1.0,phase_3,,,,,170.0,5.0,204.0,68.0,34.0,102.0,136.0,170.0,orange,circle
0.0,4.0,4.0,0.0,7.0,4.0,355.2429780002057,3.0,1.0,phase_3,,,,,324.0,6.0,216.0,162.0,54.0,324.0,270.0,108.0,blue,I
0.0,8.0,4.0,1.0,7.0,2.0,1817.879745999562,3.0,1.0,phase_3,,,,,264.0,6.0,88.0,264.0,176.0,44.0,132.0,220.0,cyan,hexagon
0.0,1.0,0.5,0.0,7.0,6.0,216.2236570002278,3.0,1.0,phase_3,,,,,324.0,6.0,270.0,216.0,108.0,162.0,54.0,324.0,orange,circle
0.0,2.0,1.0,0.0,7.0,3.0,1588.1764529995053,3.0,1.0,phase_3,,,,,294.0,6.0,196.0,98.0,294.0,49.0,147.0,245.0,magenta,triangle
0.0,3.0,2.0,0.0,7.0,1.0,1113.0390739999712,3.0,1.0,phase_3,,,,,204.0,6.0,204.0,102.0,170.0,68.0,34.0,136.0,white,square
0.0,6.0,1.0,1.0,7.0,6.0,910.2469620002012,3.0,1.0,phase_3,,,,,49.0,1.0,196.0,147.0,245.0,294.0,98.0,49.0,gray,flipped triangle
0.0,6.0,1.0,1.0,7.0,4.0,1942.9037169993533,3.0,1.0,phase_3,,,,,54.0,1.0,324.0,216.0,270.0,54.0,108.0,162.0,gray,flipped triangle
0.0,8.0,4.0,1.0,7.0,3.0,1599.4260349998513,3.0,1.0,phase_3,,,,,234.0,6.0,117.0,156.0,234.0,39.0,78.0,195.0,cyan,hexagon
0.0,6.0,1.0,1.0,7.0,5.0,1078.0002649999003,3.0,1.0,phase_3,,,,,44.0,1.0,88.0,264.0,132.0,220.0,44.0,176.0,gray,flipped triangle
0.0,3.0,2.0,0.0,7.0,1.0,893.2907019998311,3.0,1.0,phase_3,,,,,102.0,3.0,102.0,68.0,34.0,136.0,170.0,204.0,white,square
0.0,5.0,0.5,1.0,7.0,5.0,1467.9805969999506,3.0,1.0,phase_3,,,,,264.0,6.0,220.0,44.0,88.0,176.0,264.0,132.0,green,diamond
0.0,3.0,2.0,0.0,7.0,1.0,1127.8281980003158,3.0,1.0,phase_3,,,,,220.0,5.0,220.0,264.0,132.0,88.0,44.0,176.0,white,square
0.0,5.0,0.5,1.0,7.0,3.0,1506.7506969999158,3.0,1.0,phase_3,,,,,264.0,6.0,44.0,88.0,264.0,220.0,132.0,176.0,green,diamond
0.0,7.0,2.0,1.0,7.0,2.0,1583.9411309998468,3.0,1.0,phase_3,,,,,204.0,6.0,170.0,204.0,34.0,68.0,136.0,102.0,yellow,cross
0.0,7.0,2.0,1.0,7.0,1.0,1718.132054000307,3.0,1.0,phase_3,,,,,234.0,6.0,234.0,117.0,195.0,39.0,156.0,78.0,yellow,cross
0.0,4.0,4.0,0.0,7.0,4.0,20.697306999863898,4.0,1.0,phase_3,,,,,234.0,6.0,39.0,78.0,195.0,234.0,117.0,156.0,blue,I
0.0,2.0,1.0,0.0,7.0,1.0,1354.485747000581,4.0,1.0,phase_3,,,,,264.0,6.0,264.0,132.0,44.0,176.0,88.0,220.0,magenta,triangle
0.0,4.0,4.0,0.0,7.0,4.0,224.5064660000935,4.0,1.0,phase_3,,,,,245.0,5.0,49.0,147.0,98.0,245.0,294.0,196.0,blue,I
0.0,5.0,0.5,1.0,7.0,5.0,1112.1571000003314,4.0,1.0,phase_3,,,,,294.0,6.0,98.0,49.0,196.0,245.0,294.0,147.0,green,diamond
0.0,4.0,4.0,0.0,7.0,4.0,209.7662469996066,4.0,1.0,phase_3,,,,,216.0,4.0,108.0,54.0,324.0,216.0,270.0,162.0,blue,I
0.0,3.0,2.0,0.0,7.0,1.0,870.912390999365,4.0,1.0,phase_3,,,,,156.0,4.0,156.0,117.0,39.0,78.0,234.0,195.0,white,square
0.0,4.0,4.0,0.0,7.0,4.0,229.6781690001808,4.0,1.0,phase_3,,,,,44.0,1.0,264.0,220.0,88.0,44.0,132.0,176.0,blue,I
0.0,4.0,4.0,0.0,7.0,4.0,410.1190009996571,4.0,1.0,phase_3,,,,,245.0,5.0,196.0,147.0,98.0,245.0,294.0,49.0,blue,I
0.0,7.0,2.0,1.0,7.0,2.0,1318.1000320000749,4.0,1.0,phase_3,,,,,264.0,6.0,44.0,264.0,132.0,176.0,220.0,88.0,yellow,cross
0.0,8.0,4.0,1.0,7.0,5.0,1334.4633630003957,4.0,1.0,phase_3,,,,,294.0,6.0,147.0,49.0,245.0,196.0,294.0,98.0,cyan,hexagon
0.0,1.0,0.5,0.0,7.0,6.0,248.1637029995909,4.0,1.0,phase_3,,,,,49.0,1.0,245.0,196.0,147.0,98.0,294.0,49.0,orange,circle
0.0,3.0,2.0,0.0,7.0,1.0,1137.4639119994754,4.0,1.0,phase_3,,,,,78.0,2.0,78.0,39.0,234.0,117.0,156.0,195.0,white,square
0.0,5.0,0.5,1.0,7.0,5.0,1096.9116619999113,4.0,1.0,phase_3,,,,,234.0,6.0,117.0,39.0,195.0,156.0,234.0,78.0,green,diamond
0.0,3.0,2.0,0.0,7.0,1.0,903.6500940001132,4.0,1.0,phase_3,,,,,98.0,2.0,98.0,294.0,147.0,196.0,245.0,49.0,white,square
0.0,6.0,1.0,1.0,7.0,2.0,2284.9629350002942,4.0,1.0,phase_3,,,,,34.0,1.0,170.0,34.0,136.0,204.0,68.0,102.0,gray,flipped triangle
0.0,4.0,4.0,0.0,7.0,4.0,851.2529749996247,4.0,1.0,phase_3,,,,,220.0,5.0,44.0,88.0,264.0,220.0,132.0,176.0,blue,I
0.0,2.0,1.0,0.0,7.0,5.0,1236.8914049993691,4.0,1.0,phase_3,,,,,324.0,6.0,270.0,162.0,108.0,216.0,324.0,54.0,magenta,triangle
0.0,2.0,1.0,0.0,7.0,4.0,1124.4496200006324,4.0,1.0,phase_3,,,,,294.0,6.0,98.0,196.0,245.0,294.0,49.0,147.0,magenta,triangle
0.0,3.0,2.0,0.0,7.0,1.0,1540.8374729995558,4.0,1.0,phase_3,,,,,294.0,6.0,294.0,196.0,245.0,98.0,49.0,147.0,white,square
0.0,2.0,1.0,0.0,7.0,5.0,2235.319372999584,4.0,1.0,phase_3,,,,,102.0,3.0,68.0,34.0,204.0,170.0,102.0,136.0,magenta,triangle
