raw_reward_magnitude,stim_reward,stepwise_reward_magnitude,paired_with_stopping,stim_location,response,reaction_time,block,num_trial_presentations,which_phase,stop_signal_trial_type,left_SSD,right_SSD,accuracy,chosen_bidding_amount,chosen_bidding_level,possible_bid_1,possible_bid_2,possible_bid_3,possible_bid_4,possible_bid_5,possible_bid_6,color_text,shape_text
216.0,3.0,2.0,0.0,4.0,4.0,492.7244860000428,1.0,1.0,phase_1,,,,,,,,,,,,,orange,diamond
94.0,6.0,1.0,1.0,3.0,3.0,329.5829460000732,1.0,1.0,phase_1,,,,,,,,,,,,,gray,flipped triangle
61.0,1.0,0.5,0.0,4.0,4.0,324.1608890000407,1.0,1.0,phase_1,,,,,,,,,,,,,yellow,I
98.0,6.0,1.0,1.0,3.0,3.0,266.5538070000366,1.0,1.0,phase_1,,,,,,,,,,,,,gray,flipped triangle
0.0,6.0,0.0,1.0,3.0,3.0,288.871773999972,1.0,1.0,phase_1,,,,,,,,,,,,,gray,flipped triangle
87.0,2.0,1.0,0.0,1.0,1.0,327.1829749999142,1.0,1.0,phase_1,,,,,,,,,,,,,blue,square
0.0,6.0,0.0,1.0,2.0,2.0,306.3806569998633,1.0,1.0,phase_1,,,,,,,,,,,,,gray,flipped triangle
74.0,1.0,0.5,0.0,3.0,3.0,252.55071900005532,1.0,1.0,phase_1,,,,,,,,,,,,,yellow,I
207.0,3.0,2.0,0.0,4.0,4.0,303.4560140001758,1.0,1.0,phase_1,,,,,,,,,,,,,orange,diamond
123.0,2.0,1.0,0.0,4.0,4.0,345.9722899999633,1.0,1.0,phase_1,,,,,,,,,,,,,blue,square
393.0,4.0,4.0,0.0,1.0,1.0,414.9269649999496,1.0,1.0,phase_1,,,,,,,,,,,,,green,circle
415.0,8.0,4.0,1.0,3.0,3.0,257.9408980000153,1.0,1.0,phase_1,,,,,,,,,,,,,cyan,cross
52.0,1.0,0.5,0.0,2.0,2.0,297.0872050000253,1.0,1.0,phase_1,,,,,,,,,,,,,yellow,I
225.0,3.0,2.0,0.0,1.0,1.0,288.7152519999745,1.0,1.0,phase_1,,,,,,,,,,,,,orange,diamond
420.0,4.0,4.0,0.0,1.0,1.0,327.3284429999421,1.0,1.0,phase_1,,,,,,,,,,,,,green,circle
176.0,3.0,2.0,0.0,3.0,3.0,319.580680999934,1.0,1.0,phase_1,,,,,,,,,,,,,orange,diamond
187.0,7.0,2.0,1.0,1.0,1.0,274.3326559998422,1.0,1.0,phase_1,,,,,,,,,,,,,magenta,triangle
415.0,4.0,4.0,0.0,4.0,4.0,281.2254919999759,1.0,1.0,phase_1,,,,,,,,,,,,,green,circle
213.0,3.0,2.0,0.0,1.0,1.0,251.4017299999977,1.0,1.0,phase_1,,,,,,,,,,,,,orange,diamond
108.0,2.0,1.0,0.0,4.0,4.0,298.1556590000309,1.0,1.0,phase_1,,,,,,,,,,,,,blue,square
421.0,4.0,4.0,0.0,3.0,3.0,311.3263369998549,1.0,1.0,phase_1,,,,,,,,,,,,,green,circle
37.0,5.0,0.5,1.0,4.0,4.0,259.672023000121,1.0,1.0,phase_1,,,,,,,,,,,,,white,hexagon
398.0,4.0,4.0,0.0,1.0,1.0,265.7328889999917,1.0,1.0,phase_1,,,,,,,,,,,,,green,circle
417.0,4.0,4.0,0.0,3.0,3.0,259.2227940001521,1.0,1.0,phase_1,,,,,,,,,,,,,green,circle
33.0,1.0,0.5,0.0,1.0,1.0,312.2476849998747,1.0,1.0,phase_1,,,,,,,,,,,,,yellow,I
0.0,4.0,0.0,0.0,2.0,2.0,282.6352219999535,1.0,1.0,phase_1,,,,,,,,,,,,,green,circle
48.0,1.0,0.5,0.0,3.0,3.0,314.7496019998925,1.0,1.0,phase_1,,,,,,,,,,,,,yellow,I
0.0,6.0,0.0,1.0,1.0,1.0,350.7062569999561,1.0,1.0,phase_1,,,,,,,,,,,,,gray,flipped triangle
94.0,2.0,1.0,0.0,4.0,4.0,350.9466340001381,1.0,1.0,phase_1,,,,,,,,,,,,,blue,square
122.0,6.0,1.0,1.0,4.0,4.0,330.5904609999288,1.0,1.0,phase_1,,,,,,,,,,,,,gray,flipped triangle
206.0,3.0,2.0,0.0,3.0,3.0,311.7299010000351,1.0,1.0,phase_1,,,,,,,,,,,,,orange,diamond
382.0,8.0,4.0,1.0,3.0,3.0,252.1385360000749,1.0,1.0,phase_1,,,,,,,,,,,,,cyan,cross
382.0,8.0,4.0,1.0,3.0,3.0,234.6673409999766,1.0,1.0,phase_1,,,,,,,,,,,,,cyan,cross
190.0,3.0,2.0,0.0,1.0,1.0,293.3095880000564,1.0,1.0,phase_1,,,,,,,,,,,,,orange,diamond
421.0,4.0,4.0,0.0,1.0,1.0,273.4930430001441,1.0,1.0,phase_1,,,,,,,,,,,,,green,circle
420.0,8.0,4.0,1.0,1.0,1.0,257.038047000151,1.0,1.0,phase_1,,,,,,,,,,,,,cyan,cross
0.0,3.0,0.0,0.0,4.0,4.0,284.6816659998694,1.0,1.0,phase_1,,,,,,,,,,,,,orange,diamond
196.0,7.0,2.0,1.0,4.0,4.0,328.9004289999866,1.0,1.0,phase_1,,,,,,,,,,,,,magenta,triangle
0.0,8.0,0.0,1.0,2.0,2.0,259.4620700001542,1.0,1.0,phase_1,,,,,,,,,,,,,cyan,cross
207.0,3.0,2.0,0.0,2.0,2.0,300.4607679999935,1.0,1.0,phase_1,,,,,,,,,,,,,orange,diamond
0.0,8.0,0.0,1.0,1.0,1.0,323.6406150001585,1.0,1.0,phase_1,,,,,,,,,,,,,cyan,cross
98.0,2.0,1.0,0.0,1.0,1.0,398.0592490001982,1.0,1.0,phase_1,,,,,,,,,,,,,blue,square
192.0,7.0,2.0,1.0,4.0,4.0,355.5019679999986,1.0,1.0,phase_1,,,,,,,,,,,,,magenta,triangle
0.0,1.0,0.0,0.0,3.0,3.0,304.7054659998593,1.0,1.0,phase_1,,,,,,,,,,,,,yellow,I
26.0,1.0,0.5,0.0,2.0,2.0,264.9901620000037,1.0,1.0,phase_1,,,,,,,,,,,,,yellow,I
40.0,1.0,0.5,0.0,3.0,3.0,324.2179329999999,1.0,1.0,phase_1,,,,,,,,,,,,,yellow,I
0.0,2.0,0.0,0.0,2.0,2.0,316.662339000004,1.0,1.0,phase_1,,,,,,,,,,,,,blue,square
400.0,8.0,4.0,1.0,4.0,4.0,533.8889000001927,1.0,1.0,phase_1,,,,,,,,,,,,,cyan,cross
102.0,2.0,1.0,0.0,4.0,4.0,336.975491999965,1.0,2.0,phase_1,,,,,,,,,,,,,blue,square
0.0,6.0,0.0,1.0,3.0,3.0,308.4515089999513,1.0,1.0,phase_1,,,,,,,,,,,,,gray,flipped triangle
53.0,1.0,0.5,0.0,4.0,4.0,274.8028389999035,1.0,1.0,phase_1,,,,,,,,,,,,,yellow,I
0.0,3.0,0.0,0.0,4.0,4.0,303.9440610000383,1.0,1.0,phase_1,,,,,,,,,,,,,orange,diamond
379.0,4.0,4.0,0.0,3.0,3.0,329.0876319999825,1.0,1.0,phase_1,,,,,,,,,,,,,green,circle
405.0,8.0,4.0,1.0,4.0,4.0,292.0555300001979,1.0,1.0,phase_1,,,,,,,,,,,,,cyan,cross
113.0,2.0,1.0,0.0,1.0,1.0,324.4988700000704,1.0,1.0,phase_1,,,,,,,,,,,,,blue,square
183.0,7.0,2.0,1.0,3.0,3.0,272.87520699997,1.0,1.0,phase_1,,,,,,,,,,,,,magenta,triangle
379.0,8.0,4.0,1.0,2.0,2.0,243.9215770000373,1.0,1.0,phase_1,,,,,,,,,,,,,cyan,cross
39.0,5.0,0.5,1.0,2.0,2.0,331.3205259998995,1.0,1.0,phase_1,,,,,,,,,,,,,white,hexagon
96.0,2.0,1.0,0.0,3.0,3.0,335.7884580000245,1.0,1.0,phase_1,,,,,,,,,,,,,blue,square
64.0,5.0,0.5,1.0,4.0,4.0,311.1938009999448,1.0,1.0,phase_1,,,,,,,,,,,,,white,hexagon
181.0,7.0,2.0,1.0,4.0,4.0,358.0579709998801,1.0,1.0,phase_1,,,,,,,,,,,,,magenta,triangle
46.0,1.0,0.5,0.0,1.0,1.0,315.0894929999595,1.0,1.0,phase_1,,,,,,,,,,,,,yellow,I
119.0,2.0,1.0,0.0,2.0,2.0,264.8869669999385,1.0,1.0,phase_1,,,,,,,,,,,,,blue,square
409.0,8.0,4.0,1.0,3.0,3.0,306.7730570001004,1.0,1.0,phase_1,,,,,,,,,,,,,cyan,cross
0.0,2.0,0.0,0.0,1.0,1.0,316.8350610001198,1.0,1.0,phase_1,,,,,,,,,,,,,blue,square
0.0,6.0,0.0,1.0,3.0,3.0,342.4106190000202,1.0,2.0,phase_1,,,,,,,,,,,,,gray,flipped triangle
68.0,5.0,0.5,1.0,1.0,1.0,336.6778910001358,1.0,1.0,phase_1,,,,,,,,,,,,,white,hexagon
0.0,7.0,0.0,1.0,2.0,2.0,342.9617860001599,1.0,1.0,phase_1,,,,,,,,,,,,,magenta,triangle
41.0,1.0,0.5,0.0,4.0,4.0,322.4742940001306,1.0,1.0,phase_1,,,,,,,,,,,,,yellow,I
117.0,2.0,1.0,0.0,2.0,2.0,362.777122000125,1.0,1.0,phase_1,,,,,,,,,,,,,blue,square
175.0,7.0,2.0,1.0,1.0,1.0,332.2171259999322,1.0,1.0,phase_1,,,,,,,,,,,,,magenta,triangle
381.0,4.0,4.0,0.0,4.0,4.0,409.943247000001,1.0,1.0,phase_1,,,,,,,,,,,,,green,circle
101.0,6.0,1.0,1.0,2.0,2.0,325.2486830001544,1.0,1.0,phase_1,,,,,,,,,,,,,gray,flipped triangle
411.0,4.0,4.0,0.0,4.0,4.0,317.8216270000575,1.0,1.0,phase_1,,,,,,,,,,,,,green,circle
0.0,7.0,0.0,1.0,2.0,2.0,446.1144889999104,1.0,1.0,phase_1,,,,,,,,,,,,,magenta,triangle
392.0,8.0,4.0,1.0,2.0,2.0,344.7413199999118,1.0,1.0,phase_1,,,,,,,,,,,,,cyan,cross
0.0,3.0,0.0,0.0,3.0,3.0,330.6260150000071,1.0,1.0,phase_1,,,,,,,,,,,,,orange,diamond
196.0,3.0,2.0,0.0,3.0,3.0,253.14773900004178,1.0,1.0,phase_1,,,,,,,,,,,,,orange,diamond
405.0,4.0,4.0,0.0,4.0,4.0,243.2446210000307,1.0,1.0,phase_1,,,,,,,,,,,,,green,circle
185.0,3.0,2.0,0.0,3.0,3.0,297.3856199998863,1.0,1.0,phase_1,,,,,,,,,,,,,orange,diamond
107.0,6.0,1.0,1.0,2.0,2.0,257.9369439999937,1.0,1.0,phase_1,,,,,,,,,,,,,gray,flipped triangle
61.0,5.0,0.5,1.0,2.0,2.0,338.9263209999171,1.0,1.0,phase_1,,,,,,,,,,,,,white,hexagon
40.0,5.0,0.5,1.0,1.0,1.0,244.5619709999391,1.0,2.0,phase_1,,,,,,,,,,,,,white,hexagon
210.0,7.0,2.0,1.0,2.0,2.0,305.352804000222,1.0,1.0,phase_1,,,,,,,,,,,,,magenta,triangle
99.0,2.0,1.0,0.0,2.0,2.0,338.176095000108,1.0,1.0,phase_1,,,,,,,,,,,,,blue,square
72.0,1.0,0.5,0.0,2.0,2.0,265.3056130000095,1.0,1.0,phase_1,,,,,,,,,,,,,yellow,I
403.0,4.0,4.0,0.0,2.0,2.0,283.8059289999819,1.0,1.0,phase_1,,,,,,,,,,,,,green,circle
381.0,8.0,4.0,1.0,1.0,1.0,378.9555250000376,1.0,1.0,phase_1,,,,,,,,,,,,,cyan,cross
107.0,2.0,1.0,0.0,1.0,1.0,297.3296389998268,1.0,1.0,phase_1,,,,,,,,,,,,,blue,square
383.0,4.0,4.0,0.0,3.0,3.0,275.2885709999191,1.0,2.0,phase_1,,,,,,,,,,,,,green,circle
200.0,3.0,2.0,0.0,2.0,2.0,329.2312679998304,1.0,1.0,phase_1,,,,,,,,,,,,,orange,diamond
398.0,8.0,4.0,1.0,3.0,3.0,318.9633679999133,1.0,1.0,phase_1,,,,,,,,,,,,,cyan,cross
411.0,8.0,4.0,1.0,1.0,1.0,369.6971120000398,1.0,1.0,phase_1,,,,,,,,,,,,,cyan,cross
0.0,4.0,0.0,0.0,4.0,4.0,422.4735080001665,1.0,1.0,phase_1,,,,,,,,,,,,,green,circle
425.0,8.0,4.0,1.0,3.0,3.0,369.3910769998183,1.0,1.0,phase_1,,,,,,,,,,,,,cyan,cross
390.0,4.0,4.0,0.0,4.0,4.0,333.5180189999391,1.0,2.0,phase_1,,,,,,,,,,,,,green,circle
0.0,7.0,0.0,1.0,2.0,2.0,311.3601719999224,1.0,1.0,phase_1,,,,,,,,,,,,,magenta,triangle
0.0,1.0,0.0,0.0,1.0,1.0,258.1423149999864,1.0,1.0,phase_1,,,,,,,,,,,,,yellow,I
70.0,1.0,0.5,0.0,2.0,2.0,419.2702569998801,1.0,1.0,phase_1,,,,,,,,,,,,,yellow,I
0.0,5.0,0.0,1.0,4.0,4.0,501.88430999992306,1.0,1.0,phase_1,,,,,,,,,,,,,white,hexagon
52.0,5.0,0.5,1.0,1.0,1.0,381.0202229999504,2.0,1.0,phase_1,,,,,,,,,,,,,white,hexagon
93.0,6.0,1.0,1.0,3.0,3.0,315.9255839998423,2.0,1.0,phase_1,,,,,,,,,,,,,gray,flipped triangle
182.0,7.0,2.0,1.0,2.0,2.0,259.3885599999339,2.0,1.0,phase_1,,,,,,,,,,,,,magenta,triangle
26.0,5.0,0.5,1.0,3.0,3.0,301.8634729999121,2.0,1.0,phase_1,,,,,,,,,,,,,white,hexagon
0.0,5.0,0.0,1.0,4.0,4.0,321.7448360001071,2.0,2.0,phase_1,,,,,,,,,,,,,white,hexagon
0.0,4.0,0.0,0.0,2.0,2.0,401.5569949999644,2.0,1.0,phase_1,,,,,,,,,,,,,green,circle
417.0,8.0,4.0,1.0,2.0,2.0,344.8590210000475,2.0,1.0,phase_1,,,,,,,,,,,,,cyan,cross
187.0,3.0,2.0,0.0,1.0,1.0,321.5064169999095,2.0,1.0,phase_1,,,,,,,,,,,,,orange,diamond
85.0,6.0,1.0,1.0,3.0,3.0,358.7598749998051,2.0,1.0,phase_1,,,,,,,,,,,,,gray,flipped triangle
424.0,8.0,4.0,1.0,4.0,4.0,533.6610589999964,2.0,1.0,phase_1,,,,,,,,,,,,,cyan,cross
88.0,2.0,1.0,0.0,1.0,1.0,392.3711600000388,2.0,1.0,phase_1,,,,,,,,,,,,,blue,square
117.0,6.0,1.0,1.0,3.0,3.0,353.0669980000311,2.0,1.0,phase_1,,,,,,,,,,,,,gray,flipped triangle
188.0,7.0,2.0,1.0,1.0,1.0,472.1405299999333,2.0,1.0,phase_1,,,,,,,,,,,,,magenta,triangle
207.0,7.0,2.0,1.0,4.0,4.0,270.6655360000241,2.0,1.0,phase_1,,,,,,,,,,,,,magenta,triangle
207.0,7.0,2.0,1.0,1.0,1.0,350.7095150000623,2.0,1.0,phase_1,,,,,,,,,,,,,magenta,triangle
178.0,7.0,2.0,1.0,2.0,2.0,290.0161570000819,2.0,1.0,phase_1,,,,,,,,,,,,,magenta,triangle
0.0,7.0,0.0,1.0,1.0,1.0,341.9264179999572,2.0,1.0,phase_1,,,,,,,,,,,,,magenta,triangle
0.0,2.0,0.0,0.0,2.0,2.0,272.2940230000858,2.0,1.0,phase_1,,,,,,,,,,,,,blue,square
0.0,1.0,0.0,0.0,4.0,4.0,349.9060909998661,2.0,1.0,phase_1,,,,,,,,,,,,,yellow,I
0.0,1.0,0.0,0.0,1.0,1.0,256.7349969999668,2.0,1.0,phase_1,,,,,,,,,,,,,yellow,I
0.0,2.0,0.0,0.0,2.0,2.0,304.4026529998973,2.0,1.0,phase_1,,,,,,,,,,,,,blue,square
87.0,6.0,1.0,1.0,4.0,4.0,262.9724109999642,2.0,1.0,phase_1,,,,,,,,,,,,,gray,flipped triangle
41.0,5.0,0.5,1.0,4.0,4.0,249.9821070000507,2.0,1.0,phase_1,,,,,,,,,,,,,white,hexagon
215.0,3.0,2.0,0.0,2.0,2.0,280.4317300001457,2.0,1.0,phase_1,,,,,,,,,,,,,orange,diamond
0.0,1.0,0.0,0.0,2.0,2.0,296.1400599999706,2.0,1.0,phase_1,,,,,,,,,,,,,yellow,I
0.0,1.0,0.0,0.0,1.0,1.0,255.53017699985497,2.0,1.0,phase_1,,,,,,,,,,,,,yellow,I
108.0,6.0,1.0,1.0,2.0,2.0,240.4690509999909,2.0,1.0,phase_1,,,,,,,,,,,,,gray,flipped triangle
411.0,4.0,4.0,0.0,2.0,2.0,281.1317350001445,2.0,1.0,phase_1,,,,,,,,,,,,,green,circle
0.0,3.0,0.0,0.0,4.0,4.0,298.1971120000253,2.0,2.0,phase_1,,,,,,,,,,,,,orange,diamond
0.0,3.0,0.0,0.0,4.0,4.0,291.2355570001637,2.0,1.0,phase_1,,,,,,,,,,,,,orange,diamond
182.0,3.0,2.0,0.0,4.0,4.0,284.6924199998284,2.0,1.0,phase_1,,,,,,,,,,,,,orange,diamond
184.0,7.0,2.0,1.0,4.0,4.0,308.0460109999876,2.0,1.0,phase_1,,,,,,,,,,,,,magenta,triangle
407.0,8.0,4.0,1.0,4.0,4.0,274.2909059998055,2.0,1.0,phase_1,,,,,,,,,,,,,cyan,cross
119.0,6.0,1.0,1.0,1.0,1.0,472.1438029998808,2.0,1.0,phase_1,,,,,,,,,,,,,gray,flipped triangle
120.0,2.0,1.0,0.0,2.0,2.0,305.7497750000948,2.0,1.0,phase_1,,,,,,,,,,,,,blue,square
184.0,3.0,2.0,0.0,3.0,3.0,344.0243990000908,2.0,1.0,phase_1,,,,,,,,,,,,,orange,diamond
83.0,2.0,1.0,0.0,1.0,1.0,271.8093669998325,2.0,1.0,phase_1,,,,,,,,,,,,,blue,square
379.0,4.0,4.0,0.0,2.0,2.0,237.4657590000879,2.0,1.0,phase_1,,,,,,,,,,,,,green,circle
382.0,4.0,4.0,0.0,2.0,2.0,288.7095569999474,2.0,1.0,phase_1,,,,,,,,,,,,,green,circle
72.0,5.0,0.5,1.0,4.0,4.0,318.3937090000199,2.0,1.0,phase_1,,,,,,,,,,,,,white,hexagon
44.0,5.0,0.5,1.0,2.0,2.0,245.7491780000964,2.0,1.0,phase_1,,,,,,,,,,,,,white,hexagon
205.0,3.0,2.0,0.0,1.0,1.0,262.6442849998511,2.0,1.0,phase_1,,,,,,,,,,,,,orange,diamond
97.0,2.0,1.0,0.0,3.0,3.0,319.0184999998564,2.0,1.0,phase_1,,,,,,,,,,,,,blue,square
0.0,3.0,0.0,0.0,4.0,4.0,348.3068680000087,2.0,1.0,phase_1,,,,,,,,,,,,,orange,diamond
216.0,7.0,2.0,1.0,1.0,1.0,365.5870150000737,2.0,1.0,phase_1,,,,,,,,,,,,,magenta,triangle
62.0,1.0,0.5,0.0,2.0,2.0,307.822675999887,2.0,1.0,phase_1,,,,,,,,,,,,,yellow,I
0.0,7.0,0.0,1.0,1.0,1.0,427.1554480001214,2.0,1.0,phase_1,,,,,,,,,,,,,magenta,triangle
36.0,5.0,0.5,1.0,3.0,3.0,352.2342969999954,2.0,1.0,phase_1,,,,,,,,,,,,,white,hexagon
214.0,3.0,2.0,0.0,2.0,2.0,306.9058790001691,2.0,1.0,phase_1,,,,,,,,,,,,,orange,diamond
0.0,4.0,0.0,0.0,4.0,4.0,407.5142899998809,2.0,1.0,phase_1,,,,,,,,,,,,,green,circle
221.0,3.0,2.0,0.0,1.0,1.0,290.7638619999488,2.0,1.0,phase_1,,,,,,,,,,,,,orange,diamond
120.0,6.0,1.0,1.0,3.0,3.0,300.6431090000205,2.0,1.0,phase_1,,,,,,,,,,,,,gray,flipped triangle
59.0,5.0,0.5,1.0,2.0,2.0,254.960260999951,2.0,1.0,phase_1,,,,,,,,,,,,,white,hexagon
0.0,7.0,0.0,1.0,4.0,4.0,339.7839049998765,2.0,1.0,phase_1,,,,,,,,,,,,,magenta,triangle
53.0,1.0,0.5,0.0,3.0,3.0,320.7279150001341,2.0,1.0,phase_1,,,,,,,,,,,,,yellow,I
104.0,6.0,1.0,1.0,4.0,4.0,323.6699210001461,2.0,2.0,phase_1,,,,,,,,,,,,,gray,flipped triangle
26.0,1.0,0.5,0.0,4.0,4.0,293.7246950000372,2.0,1.0,phase_1,,,,,,,,,,,,,yellow,I
0.0,1.0,0.0,0.0,4.0,4.0,292.42120899994,2.0,1.0,phase_1,,,,,,,,,,,,,yellow,I
420.0,8.0,4.0,1.0,3.0,3.0,434.4433070000377,2.0,1.0,phase_1,,,,,,,,,,,,,cyan,cross
212.0,3.0,2.0,0.0,2.0,2.0,295.7375319999755,2.0,1.0,phase_1,,,,,,,,,,,,,orange,diamond
68.0,5.0,0.5,1.0,2.0,2.0,347.1144400000412,2.0,1.0,phase_1,,,,,,,,,,,,,white,hexagon
0.0,7.0,0.0,1.0,3.0,3.0,367.7800619998379,2.0,1.0,phase_1,,,,,,,,,,,,,magenta,triangle
208.0,7.0,2.0,1.0,3.0,3.0,328.8192770000933,2.0,1.0,phase_1,,,,,,,,,,,,,magenta,triangle
222.0,7.0,2.0,1.0,2.0,2.0,346.2396949998947,2.0,1.0,phase_1,,,,,,,,,,,,,magenta,triangle
414.0,8.0,4.0,1.0,2.0,2.0,308.0725259997052,2.0,1.0,phase_1,,,,,,,,,,,,,cyan,cross
0.0,4.0,0.0,0.0,3.0,3.0,457.7426650002962,2.0,1.0,phase_1,,,,,,,,,,,,,green,circle
216.0,7.0,2.0,1.0,3.0,3.0,265.9298239996133,2.0,1.0,phase_1,,,,,,,,,,,,,magenta,triangle
58.0,1.0,0.5,0.0,4.0,4.0,474.2352429998391,2.0,1.0,phase_1,,,,,,,,,,,,,yellow,I
120.0,2.0,1.0,0.0,3.0,3.0,426.5849700000217,2.0,1.0,phase_1,,,,,,,,,,,,,blue,square
392.0,4.0,4.0,0.0,1.0,1.0,431.783811999594,2.0,1.0,phase_1,,,,,,,,,,,,,green,circle
400.0,4.0,4.0,0.0,4.0,4.0,345.0407240002278,2.0,1.0,phase_1,,,,,,,,,,,,,green,circle
424.0,4.0,4.0,0.0,2.0,2.0,333.594216000165,2.0,1.0,phase_1,,,,,,,,,,,,,green,circle
45.0,5.0,0.5,1.0,3.0,3.0,317.6198709998061,2.0,1.0,phase_1,,,,,,,,,,,,,white,hexagon
417.0,8.0,4.0,1.0,4.0,4.0,293.4249969998745,2.0,1.0,phase_1,,,,,,,,,,,,,cyan,cross
214.0,7.0,2.0,1.0,2.0,2.0,264.0449000000444,2.0,1.0,phase_1,,,,,,,,,,,,,magenta,triangle
80.0,2.0,1.0,0.0,3.0,3.0,311.4409029999478,2.0,1.0,phase_1,,,,,,,,,,,,,blue,square
122.0,2.0,1.0,0.0,1.0,1.0,368.2055100002799,2.0,1.0,phase_1,,,,,,,,,,,,,blue,square
123.0,6.0,1.0,1.0,1.0,1.0,296.2719619999916,2.0,2.0,phase_1,,,,,,,,,,,,,gray,flipped triangle
0.0,2.0,0.0,0.0,4.0,4.0,416.7464110000765,2.0,1.0,phase_1,,,,,,,,,,,,,blue,square
96.0,6.0,1.0,1.0,3.0,3.0,457.1875030001138,2.0,1.0,phase_1,,,,,,,,,,,,,gray,flipped triangle
222.0,3.0,2.0,0.0,2.0,2.0,356.272054999863,2.0,1.0,phase_1,,,,,,,,,,,,,orange,diamond
83.0,2.0,1.0,0.0,1.0,1.0,355.5678239999906,2.0,1.0,phase_1,,,,,,,,,,,,,blue,square
53.0,5.0,0.5,1.0,2.0,2.0,400.6252219996895,2.0,1.0,phase_1,,,,,,,,,,,,,white,hexagon
176.0,7.0,2.0,1.0,3.0,3.0,353.5774480001237,2.0,1.0,phase_1,,,,,,,,,,,,,magenta,triangle
197.0,7.0,2.0,1.0,4.0,4.0,376.5897749999567,2.0,1.0,phase_1,,,,,,,,,,,,,magenta,triangle
32.0,5.0,0.5,1.0,3.0,3.0,331.3495150000562,2.0,1.0,phase_1,,,,,,,,,,,,,white,hexagon
400.0,4.0,4.0,0.0,4.0,4.0,308.9877259999412,2.0,1.0,phase_1,,,,,,,,,,,,,green,circle
32.0,1.0,0.5,0.0,4.0,4.0,379.6036869998715,2.0,1.0,phase_1,,,,,,,,,,,,,yellow,I
213.0,7.0,2.0,1.0,3.0,3.0,351.6605480003818,2.0,1.0,phase_1,,,,,,,,,,,,,magenta,triangle
76.0,6.0,1.0,1.0,2.0,2.0,299.4760380001935,2.0,1.0,phase_1,,,,,,,,,,,,,gray,flipped triangle
110.0,2.0,1.0,0.0,3.0,3.0,356.3751490000868,2.0,1.0,phase_1,,,,,,,,,,,,,blue,square
37.0,1.0,0.5,0.0,1.0,1.0,398.0596619999232,2.0,1.0,phase_1,,,,,,,,,,,,,yellow,I
0.0,5.0,0.0,1.0,3.0,3.0,275.2933480001047,2.0,1.0,phase_1,,,,,,,,,,,,,white,hexagon
225.0,7.0,2.0,1.0,2.0,2.0,339.0738940001938,2.0,1.0,phase_1,,,,,,,,,,,,,magenta,triangle
68.0,1.0,0.5,0.0,3.0,3.0,394.3687999999383,2.0,1.0,phase_1,,,,,,,,,,,,,yellow,I
40.0,5.0,0.5,1.0,2.0,2.0,402.6833190000616,2.0,1.0,phase_1,,,,,,,,,,,,,white,hexagon
194.0,3.0,2.0,0.0,2.0,2.0,267.8669420001824,2.0,1.0,phase_1,,,,,,,,,,,,,orange,diamond
56.0,5.0,0.5,1.0,4.0,4.0,293.9625959998011,2.0,1.0,phase_1,,,,,,,,,,,,,white,hexagon
210.0,3.0,2.0,0.0,4.0,4.0,295.9893699999156,2.0,1.0,phase_1,,,,,,,,,,,,,orange,diamond
104.0,2.0,1.0,0.0,2.0,2.0,296.9195280002168,2.0,1.0,phase_1,,,,,,,,,,,,,blue,square
78.0,2.0,1.0,0.0,4.0,4.0,357.8396279999651,3.0,1.0,phase_1,,,,,,,,,,,,,blue,square
0.0,3.0,0.0,0.0,1.0,1.0,285.027891000027,3.0,1.0,phase_1,,,,,,,,,,,,,orange,diamond
204.0,7.0,2.0,1.0,4.0,4.0,248.7417360002837,3.0,1.0,phase_1,,,,,,,,,,,,,magenta,triangle
415.0,4.0,4.0,0.0,4.0,4.0,650.1475079999182,3.0,1.0,phase_1,,,,,,,,,,,,,green,circle
206.0,7.0,2.0,1.0,3.0,3.0,310.1775930003896,3.0,1.0,phase_1,,,,,,,,,,,,,magenta,triangle
58.0,5.0,0.5,1.0,2.0,2.0,361.5878290002001,3.0,1.0,phase_1,,,,,,,,,,,,,white,hexagon
0.0,5.0,0.0,1.0,4.0,4.0,331.0346000002937,3.0,1.0,phase_1,,,,,,,,,,,,,white,hexagon
379.0,8.0,4.0,1.0,1.0,1.0,389.0527890002886,3.0,1.0,phase_1,,,,,,,,,,,,,cyan,cross
0.0,4.0,0.0,0.0,4.0,4.0,253.7195280001469,3.0,1.0,phase_1,,,,,,,,,,,,,green,circle
93.0,6.0,1.0,1.0,2.0,2.0,340.7814449997204,3.0,1.0,phase_1,,,,,,,,,,,,,gray,flipped triangle
121.0,6.0,1.0,1.0,2.0,2.0,354.9558790000446,3.0,1.0,phase_1,,,,,,,,,,,,,gray,flipped triangle
109.0,6.0,1.0,1.0,3.0,3.0,316.8663980000019,3.0,1.0,phase_1,,,,,,,,,,,,,gray,flipped triangle
382.0,4.0,4.0,0.0,3.0,3.0,339.5076760002666,3.0,1.0,phase_1,,,,,,,,,,,,,green,circle
0.0,6.0,0.0,1.0,1.0,1.0,419.5004769999286,3.0,1.0,phase_1,,,,,,,,,,,,,gray,flipped triangle
393.0,8.0,4.0,1.0,4.0,4.0,281.9215100003021,3.0,1.0,phase_1,,,,,,,,,,,,,cyan,cross
74.0,5.0,0.5,1.0,4.0,4.0,355.3711909999038,3.0,1.0,phase_1,,,,,,,,,,,,,white,hexagon
0.0,4.0,0.0,0.0,2.0,2.0,334.0157339998768,3.0,1.0,phase_1,,,,,,,,,,,,,green,circle
181.0,3.0,2.0,0.0,3.0,3.0,349.4169079999665,3.0,1.0,phase_1,,,,,,,,,,,,,orange,diamond
203.0,3.0,2.0,0.0,4.0,4.0,409.8591430001761,3.0,1.0,phase_1,,,,,,,,,,,,,orange,diamond
211.0,3.0,2.0,0.0,1.0,1.0,383.348586000011,3.0,1.0,phase_1,,,,,,,,,,,,,orange,diamond
80.0,6.0,1.0,1.0,1.0,1.0,299.6614540002156,3.0,1.0,phase_1,,,,,,,,,,,,,gray,flipped triangle
222.0,3.0,2.0,0.0,1.0,1.0,263.9376469996932,3.0,1.0,phase_1,,,,,,,,,,,,,orange,diamond
82.0,6.0,1.0,1.0,1.0,1.0,305.4384670003855,3.0,1.0,phase_1,,,,,,,,,,,,,gray,flipped triangle
0.0,6.0,0.0,1.0,2.0,2.0,257.0720680000704,3.0,1.0,phase_1,,,,,,,,,,,,,gray,flipped triangle
222.0,7.0,2.0,1.0,1.0,1.0,384.4803569995747,3.0,1.0,phase_1,,,,,,,,,,,,,magenta,triangle
110.0,6.0,1.0,1.0,3.0,3.0,321.2690629998178,3.0,1.0,phase_1,,,,,,,,,,,,,gray,flipped triangle
47.0,5.0,0.5,1.0,2.0,2.0,284.6827339999436,3.0,1.0,phase_1,,,,,,,,,,,,,white,hexagon
204.0,3.0,2.0,0.0,4.0,4.0,266.6068520002227,3.0,1.0,phase_1,,,,,,,,,,,,,orange,diamond
0.0,5.0,0.0,1.0,1.0,1.0,306.1132040002121,3.0,1.0,phase_1,,,,,,,,,,,,,white,hexagon
68.0,1.0,0.5,0.0,2.0,2.0,268.1107789999259,3.0,1.0,phase_1,,,,,,,,,,,,,yellow,I
33.0,1.0,0.5,0.0,2.0,2.0,310.025086999758,3.0,1.0,phase_1,,,,,,,,,,,,,yellow,I
379.0,8.0,4.0,1.0,4.0,4.0,310.9188020002875,3.0,2.0,phase_1,,,,,,,,,,,,,cyan,cross
40.0,1.0,0.5,0.0,3.0,3.0,369.0588989998105,3.0,1.0,phase_1,,,,,,,,,,,,,yellow,I
212.0,7.0,2.0,1.0,2.0,2.0,345.0673689999348,3.0,1.0,phase_1,,,,,,,,,,,,,magenta,triangle
84.0,2.0,1.0,0.0,1.0,1.0,314.6042899998065,3.0,1.0,phase_1,,,,,,,,,,,,,blue,square
384.0,8.0,4.0,1.0,3.0,3.0,315.8029810001608,3.0,1.0,phase_1,,,,,,,,,,,,,cyan,cross
417.0,4.0,4.0,0.0,1.0,1.0,382.0930799997768,3.0,1.0,phase_1,,,,,,,,,,,,,green,circle
400.0,4.0,4.0,0.0,3.0,3.0,484.8114469996289,3.0,1.0,phase_1,,,,,,,,,,,,,green,circle
377.0,8.0,4.0,1.0,4.0,4.0,329.0906309998718,3.0,1.0,phase_1,,,,,,,,,,,,,cyan,cross
0.0,6.0,0.0,1.0,3.0,3.0,309.3453690003116,3.0,2.0,phase_1,,,,,,,,,,,,,gray,flipped triangle
56.0,1.0,0.5,0.0,4.0,4.0,472.3480840002594,3.0,1.0,phase_1,,,,,,,,,,,,,yellow,I
388.0,8.0,4.0,1.0,1.0,1.0,308.7485959999867,3.0,2.0,phase_1,,,,,,,,,,,,,cyan,cross
82.0,2.0,1.0,0.0,4.0,4.0,417.510484000104,3.0,1.0,phase_1,,,,,,,,,,,,,blue,square
206.0,7.0,2.0,1.0,1.0,1.0,393.3576240001457,3.0,1.0,phase_1,,,,,,,,,,,,,magenta,triangle
381.0,4.0,4.0,0.0,4.0,4.0,377.5669120000202,3.0,1.0,phase_1,,,,,,,,,,,,,green,circle
84.0,6.0,1.0,1.0,3.0,3.0,464.0232029996696,3.0,1.0,phase_1,,,,,,,,,,,,,gray,flipped triangle
403.0,8.0,4.0,1.0,1.0,1.0,394.9247919999834,3.0,1.0,phase_1,,,,,,,,,,,,,cyan,cross
182.0,7.0,2.0,1.0,1.0,1.0,378.0241350000324,3.0,1.0,phase_1,,,,,,,,,,,,,magenta,triangle
121.0,2.0,1.0,0.0,2.0,2.0,388.4405359999618,3.0,1.0,phase_1,,,,,,,,,,,,,blue,square
187.0,3.0,2.0,0.0,4.0,4.0,444.3207409999559,3.0,1.0,phase_1,,,,,,,,,,,,,orange,diamond
53.0,5.0,0.5,1.0,1.0,1.0,432.1177849997184,3.0,1.0,phase_1,,,,,,,,,,,,,white,hexagon
211.0,7.0,2.0,1.0,2.0,2.0,424.0654059999542,3.0,1.0,phase_1,,,,,,,,,,,,,magenta,triangle
205.0,7.0,2.0,1.0,2.0,2.0,388.5615019999022,3.0,1.0,phase_1,,,,,,,,,,,,,magenta,triangle
111.0,6.0,1.0,1.0,1.0,1.0,575.8099179997771,3.0,1.0,phase_1,,,,,,,,,,,,,gray,flipped triangle
120.0,6.0,1.0,1.0,4.0,4.0,412.0834299997113,3.0,1.0,phase_1,,,,,,,,,,,,,gray,flipped triangle
415.0,8.0,4.0,1.0,3.0,3.0,334.4864939999752,3.0,1.0,phase_1,,,,,,,,,,,,,cyan,cross
185.0,7.0,2.0,1.0,3.0,3.0,293.5492480000903,3.0,1.0,phase_1,,,,,,,,,,,,,magenta,triangle
45.0,1.0,0.5,0.0,1.0,1.0,486.443865000183,3.0,1.0,phase_1,,,,,,,,,,,,,yellow,I
400.0,8.0,4.0,1.0,2.0,2.0,462.7726240000811,3.0,1.0,phase_1,,,,,,,,,,,,,cyan,cross
0.0,3.0,0.0,0.0,4.0,4.0,344.8971420002635,3.0,1.0,phase_1,,,,,,,,,,,,,orange,diamond
0.0,7.0,0.0,1.0,4.0,4.0,324.4959140001811,3.0,1.0,phase_1,,,,,,,,,,,,,magenta,triangle
0.0,8.0,0.0,1.0,2.0,2.0,305.5295140002272,3.0,1.0,phase_1,,,,,,,,,,,,,cyan,cross
0.0,5.0,0.0,1.0,3.0,3.0,277.4949660001766,3.0,1.0,phase_1,,,,,,,,,,,,,white,hexagon
0.0,3.0,0.0,0.0,3.0,3.0,304.3722380002691,3.0,1.0,phase_1,,,,,,,,,,,,,orange,diamond
53.0,1.0,0.5,0.0,1.0,1.0,351.4435189999858,3.0,1.0,phase_1,,,,,,,,,,,,,yellow,I
188.0,3.0,2.0,0.0,2.0,2.0,478.2522670002436,3.0,1.0,phase_1,,,,,,,,,,,,,orange,diamond
46.0,5.0,0.5,1.0,4.0,4.0,383.0627990000721,3.0,1.0,phase_1,,,,,,,,,,,,,white,hexagon
398.0,4.0,4.0,0.0,2.0,2.0,378.9848399997026,3.0,1.0,phase_1,,,,,,,,,,,,,green,circle
76.0,2.0,1.0,0.0,2.0,2.0,331.9998090000808,3.0,1.0,phase_1,,,,,,,,,,,,,blue,square
381.0,8.0,4.0,1.0,3.0,3.0,349.3212099997436,3.0,1.0,phase_1,,,,,,,,,,,,,cyan,cross
102.0,6.0,1.0,1.0,4.0,4.0,404.9780100003772,3.0,1.0,phase_1,,,,,,,,,,,,,gray,flipped triangle
0.0,7.0,0.0,1.0,4.0,4.0,401.033790999918,3.0,1.0,phase_1,,,,,,,,,,,,,magenta,triangle
39.0,1.0,0.5,0.0,1.0,1.0,500.3558329999578,3.0,1.0,phase_1,,,,,,,,,,,,,yellow,I
0.0,8.0,0.0,1.0,2.0,2.0,305.1753019999523,3.0,1.0,phase_1,,,,,,,,,,,,,cyan,cross
45.0,1.0,0.5,0.0,3.0,3.0,304.6858650000104,3.0,1.0,phase_1,,,,,,,,,,,,,yellow,I
0.0,5.0,0.0,1.0,3.0,3.0,260.3263359997072,3.0,1.0,phase_1,,,,,,,,,,,,,white,hexagon
33.0,5.0,0.5,1.0,4.0,4.0,539.2925629998899,3.0,1.0,phase_1,,,,,,,,,,,,,white,hexagon
411.0,8.0,4.0,1.0,2.0,2.0,403.2584000001407,3.0,1.0,phase_1,,,,,,,,,,,,,cyan,cross
0.0,8.0,0.0,1.0,4.0,4.0,364.6602980002171,3.0,1.0,phase_1,,,,,,,,,,,,,cyan,cross
61.0,5.0,0.5,1.0,1.0,1.0,499.252406999858,3.0,1.0,phase_1,,,,,,,,,,,,,white,hexagon
47.0,1.0,0.5,0.0,2.0,2.0,334.2223579998062,3.0,2.0,phase_1,,,,,,,,,,,,,yellow,I
206.0,3.0,2.0,0.0,1.0,1.0,404.9103109996395,3.0,1.0,phase_1,,,,,,,,,,,,,orange,diamond
185.0,7.0,2.0,1.0,1.0,1.0,397.9914870001266,3.0,1.0,phase_1,,,,,,,,,,,,,magenta,triangle
388.0,8.0,4.0,1.0,2.0,2.0,290.8721829999194,3.0,1.0,phase_1,,,,,,,,,,,,,cyan,cross
78.0,2.0,1.0,0.0,4.0,4.0,415.0604189999285,3.0,1.0,phase_1,,,,,,,,,,,,,blue,square
0.0,3.0,0.0,0.0,3.0,3.0,240.9080280003763,3.0,1.0,phase_1,,,,,,,,,,,,,orange,diamond
0.0,1.0,0.0,0.0,1.0,1.0,336.802495000029,3.0,1.0,phase_1,,,,,,,,,,,,,yellow,I
403.0,4.0,4.0,0.0,1.0,1.0,397.4087919996236,3.0,1.0,phase_1,,,,,,,,,,,,,green,circle
409.0,4.0,4.0,0.0,3.0,3.0,325.640863999979,3.0,1.0,phase_1,,,,,,,,,,,,,green,circle
0.0,1.0,0.0,0.0,4.0,4.0,342.8536589999567,3.0,1.0,phase_1,,,,,,,,,,,,,yellow,I
79.0,2.0,1.0,0.0,1.0,1.0,281.5626489996248,3.0,1.0,phase_1,,,,,,,,,,,,,blue,square
44.0,1.0,0.5,0.0,3.0,3.0,328.4963820001394,3.0,1.0,phase_1,,,,,,,,,,,,,yellow,I
0.0,8.0,0.0,1.0,3.0,3.0,314.6615099999508,3.0,1.0,phase_1,,,,,,,,,,,,,cyan,cross
0.0,2.0,0.0,0.0,1.0,1.0,383.7633860002825,3.0,1.0,phase_1,,,,,,,,,,,,,blue,square
93.0,2.0,1.0,0.0,2.0,2.0,369.1412289999789,3.0,1.0,phase_1,,,,,,,,,,,,,blue,square
185.0,3.0,2.0,0.0,2.0,2.0,320.0263290000293,3.0,1.0,phase_1,,,,,,,,,,,,,orange,diamond
400.0,8.0,4.0,1.0,4.0,4.0,235.71448299981049,3.0,1.0,phase_1,,,,,,,,,,,,,cyan,cross
222.0,7.0,2.0,1.0,4.0,4.0,316.9666929998129,3.0,1.0,phase_1,,,,,,,,,,,,,magenta,triangle
117.0,2.0,1.0,0.0,4.0,4.0,443.2238589997723,3.0,1.0,phase_1,,,,,,,,,,,,,blue,square
390.0,8.0,4.0,1.0,2.0,2.0,412.4558759999672,3.0,1.0,phase_1,,,,,,,,,,,,,cyan,cross
403.0,8.0,4.0,1.0,2.0,2.0,542.3919509998996,4.0,1.0,phase_1,,,,,,,,,,,,,cyan,cross
398.0,8.0,4.0,1.0,4.0,4.0,291.9136549999166,4.0,1.0,phase_1,,,,,,,,,,,,,cyan,cross
0.0,8.0,0.0,1.0,1.0,1.0,297.2688889999517,4.0,1.0,phase_1,,,,,,,,,,,,,cyan,cross
182.0,3.0,2.0,0.0,4.0,4.0,337.2542170000088,4.0,1.0,phase_1,,,,,,,,,,,,,orange,diamond
0.0,1.0,0.0,0.0,1.0,1.0,343.6250209997524,4.0,1.0,phase_1,,,,,,,,,,,,,yellow,I
120.0,6.0,1.0,1.0,2.0,2.0,374.9572589999843,4.0,1.0,phase_1,,,,,,,,,,,,,gray,flipped triangle
45.0,5.0,0.5,1.0,2.0,2.0,265.1532969998698,4.0,1.0,phase_1,,,,,,,,,,,,,white,hexagon
178.0,3.0,2.0,0.0,4.0,4.0,354.1481470001599,4.0,1.0,phase_1,,,,,,,,,,,,,orange,diamond
183.0,3.0,2.0,0.0,4.0,4.0,362.6753399998961,4.0,2.0,phase_1,,,,,,,,,,,,,orange,diamond
111.0,2.0,1.0,0.0,4.0,4.0,342.7834880003502,4.0,1.0,phase_1,,,,,,,,,,,,,blue,square
94.0,2.0,1.0,0.0,3.0,3.0,317.8555770000457,4.0,1.0,phase_1,,,,,,,,,,,,,blue,square
215.0,7.0,2.0,1.0,4.0,4.0,379.8039000002973,4.0,1.0,phase_1,,,,,,,,,,,,,magenta,triangle
113.0,6.0,1.0,1.0,2.0,2.0,389.7257730000092,4.0,1.0,phase_1,,,,,,,,,,,,,gray,flipped triangle
0.0,5.0,0.0,1.0,2.0,2.0,374.9065350002638,4.0,1.0,phase_1,,,,,,,,,,,,,white,hexagon
43.0,5.0,0.5,1.0,4.0,4.0,455.6974329998411,4.0,1.0,phase_1,,,,,,,,,,,,,white,hexagon
96.0,6.0,1.0,1.0,4.0,4.0,333.9482070000485,4.0,1.0,phase_1,,,,,,,,,,,,,gray,flipped triangle
0.0,2.0,0.0,0.0,4.0,4.0,319.2359790000409,4.0,1.0,phase_1,,,,,,,,,,,,,blue,square
379.0,4.0,4.0,0.0,1.0,1.0,407.6930430001084,4.0,1.0,phase_1,,,,,,,,,,,,,green,circle
0.0,5.0,0.0,1.0,2.0,2.0,390.3392489996804,4.0,1.0,phase_1,,,,,,,,,,,,,white,hexagon
72.0,1.0,0.5,0.0,1.0,1.0,396.0938159998477,4.0,1.0,phase_1,,,,,,,,,,,,,yellow,I
83.0,6.0,1.0,1.0,2.0,2.0,294.6327619997646,4.0,1.0,phase_1,,,,,,,,,,,,,gray,flipped triangle
53.0,5.0,0.5,1.0,3.0,3.0,337.1630659999027,4.0,1.0,phase_1,,,,,,,,,,,,,white,hexagon
203.0,7.0,2.0,1.0,3.0,3.0,326.028456000131,4.0,1.0,phase_1,,,,,,,,,,,,,magenta,triangle
74.0,5.0,0.5,1.0,4.0,4.0,334.6399709998877,4.0,1.0,phase_1,,,,,,,,,,,,,white,hexagon
388.0,4.0,4.0,0.0,4.0,4.0,392.3700350001127,4.0,1.0,phase_1,,,,,,,,,,,,,green,circle
48.0,5.0,0.5,1.0,3.0,3.0,325.2584259998912,4.0,1.0,phase_1,,,,,,,,,,,,,white,hexagon
414.0,4.0,4.0,0.0,1.0,1.0,453.1551469999613,4.0,1.0,phase_1,,,,,,,,,,,,,green,circle
120.0,2.0,1.0,0.0,3.0,3.0,423.6436090000097,4.0,1.0,phase_1,,,,,,,,,,,,,blue,square
407.0,4.0,4.0,0.0,2.0,2.0,406.0553839999556,4.0,1.0,phase_1,,,,,,,,,,,,,green,circle
0.0,8.0,0.0,1.0,1.0,1.0,431.6404699998202,4.0,1.0,phase_1,,,,,,,,,,,,,cyan,cross
88.0,6.0,1.0,1.0,1.0,1.0,380.8624010002859,4.0,1.0,phase_1,,,,,,,,,,,,,gray,flipped triangle
85.0,2.0,1.0,0.0,3.0,3.0,513.8704219998544,4.0,1.0,phase_1,,,,,,,,,,,,,blue,square
26.0,1.0,0.5,0.0,2.0,2.0,318.8834799998403,4.0,1.0,phase_1,,,,,,,,,,,,,yellow,I
96.0,2.0,1.0,0.0,2.0,2.0,298.8044610001452,4.0,1.0,phase_1,,,,,,,,,,,,,blue,square
0.0,7.0,0.0,1.0,3.0,3.0,287.1163790000537,4.0,1.0,phase_1,,,,,,,,,,,,,magenta,triangle
0.0,2.0,0.0,0.0,3.0,3.0,298.6404199996286,4.0,1.0,phase_1,,,,,,,,,,,,,blue,square
190.0,7.0,2.0,1.0,4.0,4.0,342.5432549997822,4.0,1.0,phase_1,,,,,,,,,,,,,magenta,triangle
74.0,1.0,0.5,0.0,1.0,1.0,441.5434580000692,4.0,1.0,phase_1,,,,,,,,,,,,,yellow,I
216.0,3.0,2.0,0.0,3.0,3.0,330.2108910002062,4.0,1.0,phase_1,,,,,,,,,,,,,orange,diamond
36.0,1.0,0.5,0.0,4.0,4.0,372.6451580000685,4.0,1.0,phase_1,,,,,,,,,,,,,yellow,I
0.0,6.0,0.0,1.0,2.0,2.0,278.1009940003969,4.0,1.0,phase_1,,,,,,,,,,,,,gray,flipped triangle
383.0,8.0,4.0,1.0,2.0,2.0,348.4982970003329,4.0,1.0,phase_1,,,,,,,,,,,,,cyan,cross
377.0,4.0,4.0,0.0,3.0,3.0,292.6243469996734,4.0,1.0,phase_1,,,,,,,,,,,,,green,circle
0.0,8.0,0.0,1.0,3.0,3.0,314.7394150000764,4.0,1.0,phase_1,,,,,,,,,,,,,cyan,cross
25.0,1.0,0.5,0.0,4.0,4.0,405.9376889999839,4.0,1.0,phase_1,,,,,,,,,,,,,yellow,I
99.0,6.0,1.0,1.0,4.0,4.0,406.1019390001092,4.0,1.0,phase_1,,,,,,,,,,,,,gray,flipped triangle
420.0,4.0,4.0,0.0,3.0,3.0,417.6232029999482,4.0,1.0,phase_1,,,,,,,,,,,,,green,circle
0.0,2.0,0.0,0.0,2.0,2.0,344.9345930002891,4.0,1.0,phase_1,,,,,,,,,,,,,blue,square
175.0,3.0,2.0,0.0,3.0,3.0,293.5106479999376,4.0,1.0,phase_1,,,,,,,,,,,,,orange,diamond
192.0,3.0,2.0,0.0,1.0,1.0,289.2265479999878,4.0,1.0,phase_1,,,,,,,,,,,,,orange,diamond
78.0,6.0,1.0,1.0,2.0,2.0,285.9106430000793,4.0,1.0,phase_1,,,,,,,,,,,,,gray,flipped triangle
96.0,2.0,1.0,0.0,3.0,3.0,284.6155040001576,4.0,1.0,phase_1,,,,,,,,,,,,,blue,square
0.0,8.0,0.0,1.0,3.0,3.0,267.4239740003941,4.0,1.0,phase_1,,,,,,,,,,,,,cyan,cross
64.0,1.0,0.5,0.0,3.0,3.0,310.5208259999017,4.0,1.0,phase_1,,,,,,,,,,,,,yellow,I
96.0,6.0,1.0,1.0,4.0,4.0,360.1172260000567,4.0,1.0,phase_1,,,,,,,,,,,,,gray,flipped triangle
93.0,2.0,1.0,0.0,4.0,4.0,271.8951740002922,4.0,1.0,phase_1,,,,,,,,,,,,,blue,square
403.0,4.0,4.0,0.0,2.0,2.0,443.6524729999291,4.0,1.0,phase_1,,,,,,,,,,,,,green,circle
62.0,5.0,0.5,1.0,3.0,3.0,282.4205670003721,4.0,1.0,phase_1,,,,,,,,,,,,,white,hexagon
0.0,4.0,0.0,0.0,1.0,1.0,249.4285379998473,4.0,1.0,phase_1,,,,,,,,,,,,,green,circle
72.0,5.0,0.5,1.0,1.0,1.0,288.876806999724,4.0,1.0,phase_1,,,,,,,,,,,,,white,hexagon
0.0,2.0,0.0,0.0,3.0,3.0,362.37103700023,4.0,1.0,phase_1,,,,,,,,,,,,,blue,square
78.0,6.0,1.0,1.0,1.0,1.0,335.439105000205,4.0,1.0,phase_1,,,,,,,,,,,,,gray,flipped triangle
83.0,6.0,1.0,1.0,1.0,1.0,314.788246000262,4.0,1.0,phase_1,,,,,,,,,,,,,gray,flipped triangle
61.0,1.0,0.5,0.0,4.0,4.0,331.245227999716,4.0,1.0,phase_1,,,,,,,,,,,,,yellow,I
117.0,6.0,1.0,1.0,4.0,4.0,358.8532559997475,4.0,1.0,phase_1,,,,,,,,,,,,,gray,flipped triangle
197.0,3.0,2.0,0.0,3.0,3.0,354.529846999867,4.0,1.0,phase_1,,,,,,,,,,,,,orange,diamond
26.0,5.0,0.5,1.0,1.0,1.0,297.5276530000883,4.0,1.0,phase_1,,,,,,,,,,,,,white,hexagon
384.0,4.0,4.0,0.0,1.0,1.0,360.3725839998333,4.0,1.0,phase_1,,,,,,,,,,,,,green,circle
425.0,4.0,4.0,0.0,2.0,2.0,307.8796509998938,4.0,1.0,phase_1,,,,,,,,,,,,,green,circle
94.0,6.0,1.0,1.0,4.0,4.0,335.0487900002008,4.0,2.0,phase_1,,,,,,,,,,,,,gray,flipped triangle
208.0,3.0,2.0,0.0,3.0,3.0,458.209947999876,4.0,1.0,phase_1,,,,,,,,,,,,,orange,diamond
0.0,4.0,0.0,0.0,3.0,3.0,295.1799560000836,4.0,1.0,phase_1,,,,,,,,,,,,,green,circle
222.0,3.0,2.0,0.0,2.0,2.0,326.0127329999704,4.0,1.0,phase_1,,,,,,,,,,,,,orange,diamond
25.0,5.0,0.5,1.0,1.0,1.0,260.8040189998064,4.0,1.0,phase_1,,,,,,,,,,,,,white,hexagon
33.0,5.0,0.5,1.0,3.0,3.0,244.7403510000185,4.0,1.0,phase_1,,,,,,,,,,,,,white,hexagon
200.0,7.0,2.0,1.0,1.0,1.0,427.4418559998594,4.0,1.0,phase_1,,,,,,,,,,,,,magenta,triangle
53.0,1.0,0.5,0.0,1.0,1.0,326.0226709999188,4.0,1.0,phase_1,,,,,,,,,,,,,yellow,I
43.0,1.0,0.5,0.0,3.0,3.0,522.7925869999126,4.0,1.0,phase_1,,,,,,,,,,,,,yellow,I
59.0,5.0,0.5,1.0,3.0,3.0,306.1056289998305,4.0,1.0,phase_1,,,,,,,,,,,,,white,hexagon
379.0,4.0,4.0,0.0,2.0,2.0,499.4764620000751,4.0,1.0,phase_1,,,,,,,,,,,,,green,circle
187.0,7.0,2.0,1.0,3.0,3.0,341.4818309997827,4.0,1.0,phase_1,,,,,,,,,,,,,magenta,triangle
0.0,4.0,0.0,0.0,2.0,2.0,319.2331640002521,4.0,1.0,phase_1,,,,,,,,,,,,,green,circle
194.0,7.0,2.0,1.0,2.0,2.0,389.661955000065,4.0,1.0,phase_1,,,,,,,,,,,,,magenta,triangle
70.0,5.0,0.5,1.0,1.0,1.0,343.2505389996549,4.0,1.0,phase_1,,,,,,,,,,,,,white,hexagon
79.0,6.0,1.0,1.0,1.0,1.0,390.08110199984,4.0,1.0,phase_1,,,,,,,,,,,,,gray,flipped triangle
26.0,5.0,0.5,1.0,3.0,3.0,498.3049200000096,4.0,1.0,phase_1,,,,,,,,,,,,,white,hexagon
0.0,6.0,0.0,1.0,2.0,2.0,290.5258509999839,4.0,1.0,phase_1,,,,,,,,,,,,,gray,flipped triangle
403.0,8.0,4.0,1.0,1.0,1.0,295.0454019996869,4.0,1.0,phase_1,,,,,,,,,,,,,cyan,cross
59.0,1.0,0.5,0.0,2.0,2.0,307.5570979999611,4.0,1.0,phase_1,,,,,,,,,,,,,yellow,I
59.0,1.0,0.5,0.0,1.0,1.0,290.3484090002166,4.0,1.0,phase_1,,,,,,,,,,,,,yellow,I
101.0,2.0,1.0,0.0,3.0,3.0,365.864424999927,4.0,1.0,phase_1,,,,,,,,,,,,,blue,square
379.0,8.0,4.0,1.0,1.0,1.0,318.0118979998951,4.0,1.0,phase_1,,,,,,,,,,,,,cyan,cross
97.0,6.0,1.0,1.0,1.0,1.0,280.6835559999854,4.0,1.0,phase_1,,,,,,,,,,,,,gray,flipped triangle
221.0,7.0,2.0,1.0,3.0,3.0,376.9954379999944,4.0,2.0,phase_1,,,,,,,,,,,,,magenta,triangle
421.0,8.0,4.0,1.0,1.0,1.0,364.3433420002111,4.0,1.0,phase_1,,,,,,,,,,,,,cyan,cross
388.0,4.0,4.0,0.0,3.0,3.0,293.9739739999822,4.0,1.0,phase_1,,,,,,,,,,,,,green,circle
53.0,5.0,0.5,1.0,1.0,1.0,428.5387340000852,4.0,1.0,phase_1,,,,,,,,,,,,,white,hexagon
109.0,2.0,1.0,0.0,2.0,2.0,312.3595830002159,4.0,1.0,phase_1,,,,,,,,,,,,,blue,square
0.0,5.0,0.0,1.0,4.0,4.0,334.0516909997859,4.0,1.0,phase_1,,,,,,,,,,,,,white,hexagon
421.0,8.0,4.0,1.0,1.0,1.0,358.5158500000034,4.0,1.0,phase_1,,,,,,,,,,,,,cyan,cross
0.0,6.0,1.0,1.0,6.0,6.0,703.673419000097,1.0,1.0,phase_2,go,250.0,250.0,1.0,,,,,,,,,gray,flipped triangle
0.0,8.0,4.0,1.0,5.0,5.0,330.4574290000346,1.0,1.0,phase_2,go,250.0,250.0,1.0,,,,,,,,,cyan,cross
0.0,8.0,4.0,1.0,5.0,5.0,239.036169999963,1.0,1.0,phase_2,stop,250.0,250.0,3.0,,,,,,,,,cyan,cross
0.0,7.0,2.0,1.0,5.0,0.0,0.0,1.0,1.0,phase_2,stop,200.0,250.0,4.0,,,,,,,,,magenta,triangle
0.0,1.0,0.5,0.0,6.0,6.0,272.5541499999053,1.0,1.0,phase_2,go,250.0,250.0,1.0,,,,,,,,,yellow,I
0.0,8.0,4.0,1.0,5.0,5.0,331.5643569999338,1.0,1.0,phase_2,stop,250.0,250.0,3.0,,,,,,,,,cyan,cross
0.0,3.0,2.0,0.0,5.0,5.0,550.4251629999999,1.0,1.0,phase_2,go,200.0,250.0,1.0,,,,,,,,,orange,diamond
0.0,1.0,0.5,0.0,6.0,6.0,372.3957739998695,1.0,1.0,phase_2,go,200.0,250.0,1.0,,,,,,,,,yellow,I
0.0,2.0,1.0,0.0,6.0,6.0,605.9571809996669,1.0,1.0,phase_2,go,200.0,250.0,1.0,,,,,,,,,blue,square
0.0,1.0,0.5,0.0,5.0,5.0,439.2115989999183,1.0,1.0,phase_2,go,200.0,250.0,1.0,,,,,,,,,yellow,I
0.0,5.0,0.5,1.0,5.0,5.0,274.4862559998182,1.0,1.0,phase_2,go,200.0,250.0,1.0,,,,,,,,,white,hexagon
0.0,6.0,1.0,1.0,6.0,6.0,482.5268959998539,1.0,1.0,phase_2,stop,200.0,250.0,3.0,,,,,,,,,gray,flipped triangle
0.0,8.0,4.0,1.0,5.0,0.0,0.0,1.0,1.0,phase_2,stop,200.0,200.0,4.0,,,,,,,,,cyan,cross
0.0,7.0,2.0,1.0,5.0,5.0,503.3539649998602,1.0,1.0,phase_2,go,250.0,200.0,1.0,,,,,,,,,magenta,triangle
0.0,7.0,2.0,1.0,5.0,0.0,0.0,1.0,1.0,phase_2,stop,250.0,200.0,4.0,,,,,,,,,magenta,triangle
0.0,6.0,1.0,1.0,5.0,5.0,539.8906329996862,1.0,1.0,phase_2,go,300.0,200.0,1.0,,,,,,,,,gray,flipped triangle
0.0,3.0,2.0,0.0,5.0,5.0,1103.0348470003446,1.0,1.0,phase_2,go,300.0,200.0,1.0,,,,,,,,,orange,diamond
0.0,7.0,2.0,1.0,6.0,6.0,271.8433430000004,1.0,1.0,phase_2,stop,300.0,200.0,3.0,,,,,,,,,magenta,triangle
0.0,7.0,2.0,1.0,6.0,6.0,583.431088999987,1.0,1.0,phase_2,go,300.0,150.0,1.0,,,,,,,,,magenta,triangle
0.0,2.0,1.0,0.0,5.0,5.0,758.5157429998617,1.0,1.0,phase_2,go,300.0,150.0,1.0,,,,,,,,,blue,square
0.0,3.0,2.0,0.0,5.0,5.0,455.2241710002818,1.0,1.0,phase_2,go,300.0,150.0,1.0,,,,,,,,,orange,diamond
0.0,4.0,4.0,0.0,5.0,5.0,495.5159080000157,1.0,1.0,phase_2,go,300.0,150.0,1.0,,,,,,,,,green,circle
0.0,2.0,1.0,0.0,6.0,6.0,357.848666999871,1.0,1.0,phase_2,go,300.0,150.0,1.0,,,,,,,,,blue,square
0.0,5.0,0.5,1.0,6.0,6.0,464.2975320002733,1.0,1.0,phase_2,go,300.0,150.0,1.0,,,,,,,,,white,hexagon
0.0,3.0,2.0,0.0,6.0,6.0,494.7454050002307,1.0,1.0,phase_2,go,300.0,150.0,1.0,,,,,,,,,orange,diamond
0.0,4.0,4.0,0.0,6.0,6.0,367.6247969997348,1.0,1.0,phase_2,go,300.0,150.0,1.0,,,,,,,,,green,circle
0.0,8.0,4.0,1.0,6.0,0.0,0.0,1.0,1.0,phase_2,stop,300.0,150.0,4.0,,,,,,,,,cyan,cross
0.0,3.0,2.0,0.0,6.0,6.0,521.5597259998503,1.0,1.0,phase_2,go,300.0,200.0,1.0,,,,,,,,,orange,diamond
0.0,2.0,1.0,0.0,5.0,5.0,236.2378819998412,1.0,1.0,phase_2,go,300.0,200.0,1.0,,,,,,,,,blue,square
0.0,8.0,4.0,1.0,6.0,6.0,455.0523279999652,1.0,1.0,phase_2,stop,300.0,200.0,3.0,,,,,,,,,cyan,cross
0.0,5.0,0.5,1.0,5.0,0.0,0.0,1.0,1.0,phase_2,stop,300.0,150.0,4.0,,,,,,,,,white,hexagon
0.0,1.0,0.5,0.0,6.0,6.0,295.9284820003631,1.0,1.0,phase_2,go,350.0,150.0,1.0,,,,,,,,,yellow,I
0.0,4.0,4.0,0.0,6.0,6.0,706.8452949997663,1.0,1.0,phase_2,go,350.0,150.0,1.0,,,,,,,,,green,circle
0.0,7.0,2.0,1.0,5.0,5.0,474.8194600001625,1.0,1.0,phase_2,go,350.0,150.0,1.0,,,,,,,,,magenta,triangle
0.0,2.0,1.0,0.0,6.0,6.0,428.9148210000348,1.0,1.0,phase_2,go,350.0,150.0,1.0,,,,,,,,,blue,square
0.0,8.0,4.0,1.0,6.0,0.0,0.0,1.0,1.0,phase_2,stop,350.0,150.0,4.0,,,,,,,,,cyan,cross
0.0,8.0,4.0,1.0,6.0,6.0,952.404683000168,2.0,1.0,phase_2,stop,350.0,200.0,3.0,,,,,,,,,cyan,cross
0.0,6.0,1.0,1.0,5.0,0.0,0.0,2.0,1.0,phase_2,stop,350.0,150.0,4.0,,,,,,,,,gray,flipped triangle
0.0,2.0,1.0,0.0,5.0,5.0,540.9152810002524,2.0,1.0,phase_2,go,400.0,150.0,1.0,,,,,,,,,blue,square
0.0,5.0,0.5,1.0,5.0,5.0,452.2198709996701,2.0,1.0,phase_2,go,400.0,150.0,1.0,,,,,,,,,white,hexagon
0.0,3.0,2.0,0.0,5.0,5.0,389.9831889998495,2.0,1.0,phase_2,go,400.0,150.0,1.0,,,,,,,,,orange,diamond
0.0,6.0,1.0,1.0,5.0,5.0,442.5827039999603,2.0,1.0,phase_2,stop,400.0,150.0,3.0,,,,,,,,,gray,flipped triangle
0.0,4.0,4.0,0.0,5.0,5.0,617.7158100003908,2.0,1.0,phase_2,go,350.0,150.0,1.0,,,,,,,,,green,circle
0.0,7.0,2.0,1.0,6.0,0.0,0.0,2.0,1.0,phase_2,stop,350.0,150.0,4.0,,,,,,,,,magenta,triangle
0.0,4.0,4.0,0.0,5.0,5.0,674.572623000131,2.0,1.0,phase_2,go,350.0,200.0,1.0,,,,,,,,,green,circle
0.0,3.0,2.0,0.0,6.0,6.0,628.68373099991,2.0,1.0,phase_2,go,350.0,200.0,1.0,,,,,,,,,orange,diamond
0.0,5.0,0.5,1.0,6.0,0.0,0.0,2.0,1.0,phase_2,stop,350.0,200.0,4.0,,,,,,,,,white,hexagon
0.0,3.0,2.0,0.0,6.0,6.0,528.7639110001692,2.0,1.0,phase_2,go,350.0,250.0,1.0,,,,,,,,,orange,diamond
0.0,3.0,2.0,0.0,6.0,6.0,499.0574009998454,2.0,1.0,phase_2,go,350.0,250.0,1.0,,,,,,,,,orange,diamond
0.0,1.0,0.5,0.0,5.0,5.0,577.9816729996128,2.0,1.0,phase_2,go,350.0,250.0,1.0,,,,,,,,,yellow,I
0.0,7.0,2.0,1.0,6.0,0.0,0.0,2.0,1.0,phase_2,stop,350.0,250.0,4.0,,,,,,,,,magenta,triangle
0.0,7.0,2.0,1.0,6.0,0.0,0.0,2.0,1.0,phase_2,stop,350.0,300.0,4.0,,,,,,,,,magenta,triangle
0.0,1.0,0.5,0.0,5.0,5.0,247.1407990001353,2.0,1.0,phase_2,go,350.0,350.0,1.0,,,,,,,,,yellow,I
0.0,1.0,0.5,0.0,6.0,6.0,460.362212000291,2.0,1.0,phase_2,go,350.0,350.0,1.0,,,,,,,,,yellow,I
0.0,6.0,1.0,1.0,6.0,6.0,329.2188469999928,2.0,1.0,phase_2,stop,350.0,350.0,3.0,,,,,,,,,gray,flipped triangle
0.0,7.0,2.0,1.0,5.0,5.0,470.6572210002377,2.0,1.0,phase_2,stop,350.0,300.0,3.0,,,,,,,,,magenta,triangle
0.0,3.0,2.0,0.0,5.0,5.0,400.7563720001599,2.0,1.0,phase_2,go,300.0,300.0,1.0,,,,,,,,,orange,diamond
0.0,5.0,0.5,1.0,5.0,0.0,0.0,2.0,1.0,phase_2,stop,300.0,300.0,4.0,,,,,,,,,white,hexagon
0.0,1.0,0.5,0.0,5.0,5.0,778.3868419996907,2.0,1.0,phase_2,go,350.0,300.0,1.0,,,,,,,,,yellow,I
0.0,6.0,1.0,1.0,6.0,0.0,0.0,2.0,1.0,phase_2,stop,350.0,300.0,4.0,,,,,,,,,gray,flipped triangle
0.0,2.0,1.0,0.0,5.0,5.0,822.9629369998293,2.0,1.0,phase_2,go,350.0,350.0,1.0,,,,,,,,,blue,square
0.0,1.0,0.5,0.0,6.0,6.0,622.3470190002445,2.0,1.0,phase_2,go,350.0,350.0,1.0,,,,,,,,,yellow,I
0.0,8.0,4.0,1.0,5.0,5.0,589.1246759997557,2.0,1.0,phase_2,go,350.0,350.0,1.0,,,,,,,,,cyan,cross
0.0,1.0,0.5,0.0,6.0,6.0,615.090101000078,2.0,1.0,phase_2,go,350.0,350.0,1.0,,,,,,,,,yellow,I
0.0,2.0,1.0,0.0,5.0,5.0,279.8564810000243,2.0,1.0,phase_2,go,350.0,350.0,1.0,,,,,,,,,blue,square
0.0,1.0,0.5,0.0,5.0,5.0,628.1766060001246,2.0,1.0,phase_2,go,350.0,350.0,1.0,,,,,,,,,yellow,I
0.0,6.0,1.0,1.0,6.0,0.0,0.0,2.0,1.0,phase_2,stop,350.0,350.0,4.0,,,,,,,,,gray,flipped triangle
0.0,7.0,2.0,1.0,6.0,0.0,0.0,2.0,1.0,phase_2,stop,350.0,400.0,4.0,,,,,,,,,magenta,triangle
0.0,2.0,1.0,0.0,6.0,6.0,518.2944100001805,2.0,1.0,phase_2,go,350.0,450.0,1.0,,,,,,,,,blue,square
0.0,1.0,0.5,0.0,6.0,6.0,522.4108870002055,2.0,1.0,phase_2,go,350.0,450.0,1.0,,,,,,,,,yellow,I
0.0,7.0,2.0,1.0,5.0,0.0,0.0,2.0,1.0,phase_2,stop,350.0,450.0,4.0,,,,,,,,,magenta,triangle
0.0,2.0,1.0,0.0,6.0,6.0,502.4105369998324,2.0,1.0,phase_2,go,400.0,450.0,1.0,,,,,,,,,blue,square
0.0,5.0,0.5,1.0,6.0,0.0,0.0,3.0,1.0,phase_2,stop,400.0,450.0,4.0,,,,,,,,,white,hexagon
0.0,6.0,1.0,1.0,5.0,5.0,340.8053510001991,3.0,1.0,phase_2,stop,400.0,500.0,3.0,,,,,,,,,gray,flipped triangle
0.0,8.0,4.0,1.0,5.0,5.0,740.0586139997358,3.0,1.0,phase_2,go,350.0,500.0,1.0,,,,,,,,,cyan,cross
0.0,1.0,0.5,0.0,6.0,6.0,866.4556169997013,3.0,1.0,phase_2,go,350.0,500.0,1.0,,,,,,,,,yellow,I
0.0,2.0,1.0,0.0,6.0,6.0,799.8955269999897,3.0,1.0,phase_2,go,350.0,500.0,1.0,,,,,,,,,blue,square
0.0,2.0,1.0,0.0,5.0,5.0,522.9478010001003,3.0,1.0,phase_2,go,350.0,500.0,1.0,,,,,,,,,blue,square
0.0,2.0,1.0,0.0,5.0,5.0,437.6561389999551,3.0,1.0,phase_2,go,350.0,500.0,1.0,,,,,,,,,blue,square
0.0,1.0,0.5,0.0,6.0,6.0,444.1820060001191,3.0,1.0,phase_2,go,350.0,500.0,1.0,,,,,,,,,yellow,I
0.0,8.0,4.0,1.0,6.0,6.0,493.5791610000706,3.0,1.0,phase_2,stop,350.0,500.0,3.0,,,,,,,,,cyan,cross
0.0,3.0,2.0,0.0,6.0,6.0,1358.067957000003,3.0,1.0,phase_2,go,350.0,450.0,1.0,,,,,,,,,orange,diamond
0.0,2.0,1.0,0.0,6.0,6.0,432.9792779999479,3.0,1.0,phase_2,go,350.0,450.0,1.0,,,,,,,,,blue,square
0.0,5.0,0.5,1.0,5.0,0.0,0.0,3.0,1.0,phase_2,stop,350.0,450.0,4.0,,,,,,,,,white,hexagon
0.0,8.0,4.0,1.0,5.0,0.0,0.0,3.0,1.0,phase_2,stop,400.0,450.0,4.0,,,,,,,,,cyan,cross
0.0,3.0,2.0,0.0,6.0,6.0,457.2915170001579,3.0,1.0,phase_2,go,450.0,450.0,1.0,,,,,,,,,orange,diamond
0.0,8.0,4.0,1.0,6.0,6.0,435.5480320000424,3.0,1.0,phase_2,stop,450.0,450.0,3.0,,,,,,,,,cyan,cross
0.0,4.0,4.0,0.0,5.0,5.0,429.2642319996957,3.0,1.0,phase_2,go,450.0,400.0,1.0,,,,,,,,,green,circle
0.0,8.0,4.0,1.0,5.0,5.0,1391.919551999763,3.0,1.0,phase_2,go,450.0,400.0,1.0,,,,,,,,,cyan,cross
0.0,2.0,1.0,0.0,6.0,6.0,843.0150750000394,3.0,1.0,phase_2,go,450.0,400.0,1.0,,,,,,,,,blue,square
0.0,7.0,2.0,1.0,5.0,5.0,986.9608779999908,3.0,1.0,phase_2,go,450.0,400.0,1.0,,,,,,,,,magenta,triangle
0.0,4.0,4.0,0.0,5.0,5.0,648.0898039999374,3.0,1.0,phase_2,go,450.0,400.0,1.0,,,,,,,,,green,circle
0.0,8.0,4.0,1.0,5.0,5.0,309.1063949996169,3.0,1.0,phase_2,stop,450.0,400.0,3.0,,,,,,,,,cyan,cross
0.0,4.0,4.0,0.0,6.0,6.0,535.5081600000631,3.0,1.0,phase_2,go,400.0,400.0,1.0,,,,,,,,,green,circle
0.0,8.0,4.0,1.0,6.0,0.0,0.0,3.0,1.0,phase_2,stop,400.0,400.0,4.0,,,,,,,,,cyan,cross
0.0,8.0,4.0,1.0,6.0,6.0,1216.3632249998957,3.0,1.0,phase_2,go,400.0,450.0,1.0,,,,,,,,,cyan,cross
0.0,5.0,0.5,1.0,5.0,5.0,942.265072000282,3.0,1.0,phase_2,go,400.0,450.0,1.0,,,,,,,,,white,hexagon
0.0,4.0,4.0,0.0,6.0,6.0,500.7304130003831,3.0,1.0,phase_2,go,400.0,450.0,1.0,,,,,,,,,green,circle
0.0,1.0,0.5,0.0,6.0,6.0,557.1608089999245,3.0,1.0,phase_2,go,400.0,450.0,1.0,,,,,,,,,yellow,I
0.0,5.0,0.5,1.0,6.0,0.0,0.0,3.0,1.0,phase_2,stop,400.0,450.0,4.0,,,,,,,,,white,hexagon
0.0,3.0,2.0,0.0,5.0,5.0,471.9177470001341,3.0,1.0,phase_2,go,400.0,500.0,1.0,,,,,,,,,orange,diamond
0.0,8.0,4.0,1.0,6.0,6.0,759.7044300000562,3.0,1.0,phase_2,stop,400.0,500.0,3.0,,,,,,,,,cyan,cross
0.0,4.0,4.0,0.0,5.0,5.0,529.5136230001845,3.0,1.0,phase_2,go,400.0,450.0,1.0,,,,,,,,,green,circle
0.0,3.0,2.0,0.0,6.0,6.0,500.7786349997332,3.0,1.0,phase_2,go,400.0,450.0,1.0,,,,,,,,,orange,diamond
0.0,4.0,4.0,0.0,5.0,5.0,437.8874349999933,3.0,1.0,phase_2,go,400.0,450.0,1.0,,,,,,,,,green,circle
0.0,3.0,2.0,0.0,5.0,5.0,357.7844359997471,3.0,1.0,phase_2,go,400.0,450.0,1.0,,,,,,,,,orange,diamond
0.0,3.0,2.0,0.0,6.0,6.0,382.1291959998234,3.0,1.0,phase_2,go,400.0,450.0,1.0,,,,,,,,,orange,diamond
0.0,2.0,1.0,0.0,5.0,5.0,474.364917999992,3.0,1.0,phase_2,go,400.0,450.0,1.0,,,,,,,,,blue,square
0.0,4.0,4.0,0.0,6.0,6.0,445.551235000039,4.0,1.0,phase_2,go,400.0,450.0,1.0,,,,,,,,,green,circle
0.0,1.0,0.5,0.0,5.0,5.0,301.962445999834,4.0,1.0,phase_2,go,400.0,450.0,1.0,,,,,,,,,yellow,I
0.0,2.0,1.0,0.0,5.0,5.0,347.6471909998508,4.0,1.0,phase_2,go,400.0,450.0,1.0,,,,,,,,,blue,square
0.0,7.0,2.0,1.0,5.0,5.0,269.4045250000272,4.0,1.0,phase_2,stop,400.0,450.0,3.0,,,,,,,,,magenta,triangle
0.0,7.0,2.0,1.0,5.0,0.0,0.0,4.0,1.0,phase_2,stop,350.0,450.0,4.0,,,,,,,,,magenta,triangle
0.0,6.0,1.0,1.0,6.0,6.0,538.1561330000295,4.0,1.0,phase_2,stop,400.0,450.0,3.0,,,,,,,,,gray,flipped triangle
0.0,7.0,2.0,1.0,6.0,6.0,1131.9260719997146,4.0,1.0,phase_2,go,400.0,400.0,1.0,,,,,,,,,magenta,triangle
0.0,1.0,0.5,0.0,6.0,6.0,778.6978570002248,4.0,1.0,phase_2,go,400.0,400.0,1.0,,,,,,,,,yellow,I
0.0,6.0,1.0,1.0,6.0,0.0,0.0,4.0,1.0,phase_2,stop,400.0,400.0,4.0,,,,,,,,,gray,flipped triangle
0.0,3.0,2.0,0.0,5.0,5.0,461.3550849999228,4.0,1.0,phase_2,go,400.0,450.0,1.0,,,,,,,,,orange,diamond
0.0,7.0,2.0,1.0,6.0,0.0,0.0,4.0,1.0,phase_2,stop,400.0,450.0,4.0,,,,,,,,,magenta,triangle
0.0,3.0,2.0,0.0,6.0,6.0,461.9483999999829,4.0,1.0,phase_2,go,400.0,500.0,1.0,,,,,,,,,orange,diamond
0.0,5.0,0.5,1.0,5.0,5.0,320.6199490000472,4.0,1.0,phase_2,go,400.0,500.0,1.0,,,,,,,,,white,hexagon
0.0,6.0,1.0,1.0,5.0,5.0,1056.0051940001358,4.0,1.0,phase_2,go,400.0,500.0,1.0,,,,,,,,,gray,flipped triangle
0.0,4.0,4.0,0.0,5.0,5.0,336.4426879998063,4.0,1.0,phase_2,go,400.0,500.0,1.0,,,,,,,,,green,circle
0.0,5.0,0.5,1.0,6.0,6.0,395.1724399998966,4.0,1.0,phase_2,stop,400.0,500.0,3.0,,,,,,,,,white,hexagon
0.0,6.0,1.0,1.0,6.0,0.0,0.0,4.0,1.0,phase_2,stop,400.0,450.0,4.0,,,,,,,,,gray,flipped triangle
0.0,7.0,2.0,1.0,6.0,0.0,0.0,4.0,1.0,phase_2,stop,400.0,500.0,4.0,,,,,,,,,magenta,triangle
0.0,4.0,4.0,0.0,6.0,6.0,404.9579510001422,4.0,1.0,phase_2,go,400.0,550.0,1.0,,,,,,,,,green,circle
0.0,1.0,0.5,0.0,5.0,5.0,350.8064540001214,4.0,1.0,phase_2,go,400.0,550.0,1.0,,,,,,,,,yellow,I
0.0,7.0,2.0,1.0,6.0,6.0,274.4020129998716,4.0,1.0,phase_2,stop,400.0,550.0,3.0,,,,,,,,,magenta,triangle
0.0,1.0,0.5,0.0,6.0,6.0,450.1054999996086,4.0,1.0,phase_2,go,400.0,500.0,1.0,,,,,,,,,yellow,I
0.0,4.0,4.0,0.0,6.0,6.0,354.3766819998382,4.0,1.0,phase_2,go,400.0,500.0,1.0,,,,,,,,,green,circle
0.0,6.0,1.0,1.0,5.0,0.0,0.0,4.0,1.0,phase_2,stop,400.0,500.0,4.0,,,,,,,,,gray,flipped triangle
0.0,3.0,2.0,0.0,6.0,6.0,371.1923600003501,4.0,1.0,phase_2,go,450.0,500.0,1.0,,,,,,,,,orange,diamond
0.0,2.0,1.0,0.0,6.0,6.0,387.6989730001696,4.0,1.0,phase_2,go,450.0,500.0,1.0,,,,,,,,,blue,square
0.0,3.0,2.0,0.0,5.0,5.0,358.5335450002276,4.0,1.0,phase_2,go,450.0,500.0,1.0,,,,,,,,,orange,diamond
0.0,8.0,4.0,1.0,6.0,6.0,420.5552060002446,4.0,1.0,phase_2,stop,450.0,500.0,3.0,,,,,,,,,cyan,cross
0.0,2.0,1.0,0.0,5.0,5.0,431.8330959999912,4.0,1.0,phase_2,go,450.0,450.0,1.0,,,,,,,,,blue,square
0.0,5.0,0.5,1.0,5.0,0.0,0.0,4.0,1.0,phase_2,stop,450.0,450.0,4.0,,,,,,,,,white,hexagon
0.0,1.0,0.5,0.0,6.0,6.0,358.8549370001601,4.0,1.0,phase_2,go,500.0,450.0,1.0,,,,,,,,,yellow,I
0.0,2.0,1.0,0.0,5.0,5.0,377.7040919999308,4.0,1.0,phase_2,go,500.0,450.0,1.0,,,,,,,,,blue,square
0.0,5.0,0.5,1.0,5.0,0.0,0.0,4.0,1.0,phase_2,stop,500.0,450.0,4.0,,,,,,,,,white,hexagon
0.0,2.0,1.0,0.0,5.0,5.0,460.0570830002652,4.0,1.0,phase_2,go,550.0,450.0,1.0,,,,,,,,,blue,square
0.0,8.0,4.0,1.0,5.0,0.0,0.0,4.0,1.0,phase_2,stop,550.0,450.0,4.0,,,,,,,,,cyan,cross
0.0,3.0,2.0,0.0,5.0,5.0,465.4135730002053,4.0,1.0,phase_2,go,600.0,450.0,1.0,,,,,,,,,orange,diamond
0.0,1.0,0.5,0.0,5.0,6.0,459.6750029995746,5.0,1.0,phase_2,go,600.0,450.0,2.0,,,,,,,,,yellow,I
0.0,8.0,4.0,1.0,5.0,5.0,392.0993499996257,5.0,1.0,phase_2,go,600.0,450.0,1.0,,,,,,,,,cyan,cross
0.0,4.0,4.0,0.0,6.0,6.0,462.4339460001465,5.0,1.0,phase_2,go,600.0,450.0,1.0,,,,,,,,,green,circle
0.0,5.0,0.5,1.0,6.0,0.0,0.0,5.0,1.0,phase_2,stop,600.0,450.0,4.0,,,,,,,,,white,hexagon
0.0,5.0,0.5,1.0,6.0,6.0,917.28478099958,5.0,1.0,phase_2,go,600.0,500.0,1.0,,,,,,,,,white,hexagon
0.0,1.0,0.5,0.0,5.0,5.0,407.6292139998259,5.0,1.0,phase_2,go,600.0,500.0,1.0,,,,,,,,,yellow,I
0.0,4.0,4.0,0.0,6.0,6.0,467.0667580003282,5.0,1.0,phase_2,go,600.0,500.0,1.0,,,,,,,,,green,circle
0.0,5.0,0.5,1.0,6.0,0.0,0.0,5.0,1.0,phase_2,stop,600.0,500.0,4.0,,,,,,,,,white,hexagon
0.0,2.0,1.0,0.0,6.0,6.0,383.091314000012,5.0,1.0,phase_2,go,600.0,550.0,1.0,,,,,,,,,blue,square
0.0,5.0,0.5,1.0,5.0,0.0,0.0,5.0,1.0,phase_2,stop,600.0,550.0,4.0,,,,,,,,,white,hexagon
0.0,6.0,1.0,1.0,5.0,0.0,0.0,5.0,1.0,phase_2,stop,650.0,550.0,4.0,,,,,,,,,gray,flipped triangle
0.0,2.0,1.0,0.0,6.0,6.0,544.6700120000969,5.0,1.0,phase_2,go,700.0,550.0,1.0,,,,,,,,,blue,square
0.0,3.0,2.0,0.0,5.0,5.0,405.8032460002323,5.0,1.0,phase_2,go,700.0,550.0,1.0,,,,,,,,,orange,diamond
0.0,7.0,2.0,1.0,5.0,5.0,456.6042429996741,5.0,1.0,phase_2,go,700.0,550.0,1.0,,,,,,,,,magenta,triangle
0.0,7.0,2.0,1.0,6.0,6.0,580.8756189999258,5.0,1.0,phase_2,stop,700.0,550.0,3.0,,,,,,,,,magenta,triangle
0.0,2.0,1.0,0.0,6.0,6.0,463.5300749996531,5.0,1.0,phase_2,go,700.0,500.0,1.0,,,,,,,,,blue,square
0.0,2.0,1.0,0.0,6.0,6.0,441.8662890002451,5.0,1.0,phase_2,go,700.0,500.0,1.0,,,,,,,,,blue,square
0.0,7.0,2.0,1.0,6.0,6.0,857.7009999999063,5.0,1.0,phase_2,go,700.0,500.0,1.0,,,,,,,,,magenta,triangle
0.0,6.0,1.0,1.0,6.0,0.0,0.0,5.0,1.0,phase_2,stop,700.0,500.0,4.0,,,,,,,,,gray,flipped triangle
0.0,8.0,4.0,1.0,5.0,5.0,937.9698870002358,5.0,1.0,phase_2,go,700.0,550.0,1.0,,,,,,,,,cyan,cross
0.0,7.0,2.0,1.0,6.0,6.0,749.2262710002251,5.0,1.0,phase_2,go,700.0,550.0,1.0,,,,,,,,,magenta,triangle
0.0,7.0,2.0,1.0,5.0,5.0,558.3023500003037,5.0,1.0,phase_2,stop,700.0,550.0,3.0,,,,,,,,,magenta,triangle
0.0,6.0,1.0,1.0,6.0,0.0,0.0,5.0,1.0,phase_2,go,650.0,550.0,5.0,,,,,,,,,gray,flipped triangle
0.0,3.0,2.0,0.0,6.0,6.0,517.8102630002286,5.0,1.0,phase_2,go,650.0,550.0,1.0,,,,,,,,,orange,diamond
0.0,7.0,2.0,1.0,5.0,5.0,917.7749159998712,5.0,1.0,phase_2,stop,650.0,550.0,3.0,,,,,,,,,magenta,triangle
0.0,1.0,0.5,0.0,5.0,5.0,490.85808499967237,5.0,1.0,phase_2,go,600.0,550.0,1.0,,,,,,,,,yellow,I
0.0,1.0,0.5,0.0,6.0,6.0,565.4005810001763,5.0,1.0,phase_2,go,600.0,550.0,1.0,,,,,,,,,yellow,I
0.0,3.0,2.0,0.0,5.0,5.0,655.7869590001246,5.0,1.0,phase_2,go,600.0,550.0,1.0,,,,,,,,,orange,diamond
0.0,6.0,1.0,1.0,6.0,0.0,0.0,5.0,1.0,phase_2,stop,600.0,550.0,4.0,,,,,,,,,gray,flipped triangle
0.0,4.0,4.0,0.0,6.0,6.0,486.8919089999508,5.0,1.0,phase_2,go,600.0,600.0,1.0,,,,,,,,,green,circle
0.0,2.0,1.0,0.0,5.0,5.0,434.0253840000514,5.0,1.0,phase_2,go,600.0,600.0,1.0,,,,,,,,,blue,square
0.0,5.0,0.5,1.0,6.0,0.0,0.0,5.0,1.0,phase_2,stop,600.0,600.0,4.0,,,,,,,,,white,hexagon
0.0,6.0,1.0,1.0,6.0,0.0,0.0,5.0,1.0,phase_2,stop,600.0,650.0,4.0,,,,,,,,,gray,flipped triangle
0.0,6.0,1.0,1.0,5.0,5.0,646.2863249998918,5.0,1.0,phase_2,stop,600.0,700.0,3.0,,,,,,,,,gray,flipped triangle
0.0,4.0,4.0,0.0,5.0,5.0,717.1329329999026,5.0,1.0,phase_2,go,550.0,700.0,1.0,,,,,,,,,green,circle
0.0,7.0,2.0,1.0,5.0,5.0,621.4909059999627,5.0,1.0,phase_2,go,550.0,700.0,1.0,,,,,,,,,magenta,triangle
0.0,5.0,0.5,1.0,6.0,0.0,0.0,6.0,1.0,phase_2,stop,550.0,700.0,4.0,,,,,,,,,white,hexagon
0.0,5.0,0.5,1.0,6.0,0.0,0.0,6.0,1.0,phase_2,stop,550.0,750.0,4.0,,,,,,,,,white,hexagon
0.0,6.0,1.0,1.0,5.0,0.0,0.0,6.0,1.0,phase_2,stop,550.0,800.0,4.0,,,,,,,,,gray,flipped triangle
0.0,3.0,2.0,0.0,5.0,5.0,520.02570500008,6.0,1.0,phase_2,go,600.0,800.0,1.0,,,,,,,,,orange,diamond
0.0,6.0,1.0,1.0,5.0,5.0,1153.1250609996275,6.0,1.0,phase_2,go,600.0,800.0,1.0,,,,,,,,,gray,flipped triangle
0.0,3.0,2.0,0.0,6.0,6.0,733.7731349998649,6.0,1.0,phase_2,go,600.0,800.0,1.0,,,,,,,,,orange,diamond
0.0,1.0,0.5,0.0,5.0,5.0,415.2405630002249,6.0,1.0,phase_2,go,600.0,800.0,1.0,,,,,,,,,yellow,I
0.0,1.0,0.5,0.0,5.0,5.0,467.8399600002194,6.0,1.0,phase_2,go,600.0,800.0,1.0,,,,,,,,,yellow,I
0.0,8.0,4.0,1.0,5.0,5.0,307.303950000005,6.0,1.0,phase_2,stop,600.0,800.0,3.0,,,,,,,,,cyan,cross
0.0,2.0,1.0,0.0,5.0,5.0,522.6722060001521,6.0,1.0,phase_2,go,550.0,800.0,1.0,,,,,,,,,blue,square
0.0,8.0,4.0,1.0,6.0,6.0,728.4606759999406,6.0,1.0,phase_2,stop,550.0,800.0,3.0,,,,,,,,,cyan,cross
0.0,7.0,2.0,1.0,5.0,0.0,0.0,6.0,1.0,phase_2,stop,550.0,750.0,4.0,,,,,,,,,magenta,triangle
0.0,6.0,1.0,1.0,6.0,0.0,0.0,6.0,1.0,phase_2,stop,600.0,750.0,4.0,,,,,,,,,gray,flipped triangle
0.0,4.0,4.0,0.0,6.0,6.0,681.5156169996044,6.0,1.0,phase_2,go,600.0,800.0,1.0,,,,,,,,,green,circle
0.0,7.0,2.0,1.0,6.0,0.0,0.0,6.0,1.0,phase_2,stop,600.0,800.0,4.0,,,,,,,,,magenta,triangle
0.0,4.0,4.0,0.0,5.0,5.0,552.1600160000162,6.0,1.0,phase_2,go,600.0,850.0,1.0,,,,,,,,,green,circle
0.0,4.0,4.0,0.0,6.0,6.0,964.9366720000216,6.0,1.0,phase_2,go,600.0,850.0,1.0,,,,,,,,,green,circle
0.0,6.0,1.0,1.0,6.0,0.0,0.0,6.0,1.0,phase_2,stop,600.0,850.0,4.0,,,,,,,,,gray,flipped triangle
0.0,7.0,2.0,1.0,5.0,0.0,0.0,6.0,1.0,phase_2,stop,600.0,900.0,4.0,,,,,,,,,magenta,triangle
0.0,5.0,0.5,1.0,5.0,0.0,0.0,6.0,1.0,phase_2,stop,650.0,900.0,4.0,,,,,,,,,white,hexagon
0.0,3.0,2.0,0.0,5.0,5.0,543.1406459997561,6.0,1.0,phase_2,go,700.0,900.0,1.0,,,,,,,,,orange,diamond
0.0,6.0,1.0,1.0,5.0,5.0,1066.1046449999958,6.0,1.0,phase_2,go,700.0,900.0,1.0,,,,,,,,,gray,flipped triangle
0.0,4.0,4.0,0.0,5.0,0.0,0.0,6.0,1.0,phase_2,go,700.0,900.0,5.0,,,,,,,,,green,circle
0.0,5.0,0.5,1.0,6.0,0.0,0.0,6.0,1.0,phase_2,stop,700.0,900.0,4.0,,,,,,,,,white,hexagon
0.0,2.0,1.0,0.0,6.0,0.0,0.0,6.0,1.0,phase_2,go,700.0,950.0,5.0,,,,,,,,,blue,square
0.0,5.0,0.5,1.0,5.0,0.0,0.0,6.0,1.0,phase_2,stop,700.0,950.0,4.0,,,,,,,,,white,hexagon
0.0,5.0,0.5,1.0,5.0,0.0,0.0,6.0,1.0,phase_2,stop,750.0,950.0,4.0,,,,,,,,,white,hexagon
0.0,2.0,1.0,0.0,5.0,5.0,1191.585933999704,6.0,1.0,phase_2,go,800.0,950.0,1.0,,,,,,,,,blue,square
0.0,4.0,4.0,0.0,6.0,6.0,441.5138330000445,6.0,1.0,phase_2,go,800.0,950.0,1.0,,,,,,,,,green,circle
0.0,4.0,4.0,0.0,6.0,6.0,1098.6494940002558,6.0,1.0,phase_2,go,800.0,950.0,1.0,,,,,,,,,green,circle
0.0,5.0,0.5,1.0,5.0,5.0,401.3574049999988,6.0,1.0,phase_2,stop,800.0,950.0,3.0,,,,,,,,,white,hexagon
0.0,3.0,2.0,0.0,6.0,6.0,443.5106699997959,6.0,1.0,phase_2,go,750.0,950.0,1.0,,,,,,,,,orange,diamond
0.0,7.0,2.0,1.0,6.0,6.0,1339.147950000097,6.0,1.0,phase_2,stop,750.0,950.0,3.0,,,,,,,,,magenta,triangle
0.0,3.0,2.0,0.0,6.0,6.0,648.5132960001465,6.0,1.0,phase_2,go,750.0,900.0,1.0,,,,,,,,,orange,diamond
0.0,3.0,2.0,0.0,6.0,6.0,579.634217000148,6.0,1.0,phase_2,go,750.0,900.0,1.0,,,,,,,,,orange,diamond
0.0,6.0,1.0,1.0,5.0,0.0,0.0,6.0,1.0,phase_2,stop,750.0,900.0,4.0,,,,,,,,,gray,flipped triangle
0.0,5.0,0.5,1.0,6.0,0.0,0.0,7.0,1.0,phase_2,stop,800.0,900.0,4.0,,,,,,,,,white,hexagon
0.0,2.0,1.0,0.0,5.0,5.0,502.9085199998917,7.0,1.0,phase_2,go,800.0,950.0,1.0,,,,,,,,,blue,square
0.0,8.0,4.0,1.0,6.0,6.0,433.7505509997754,7.0,1.0,phase_2,stop,800.0,950.0,3.0,,,,,,,,,cyan,cross
0.0,1.0,0.5,0.0,6.0,6.0,370.4979389999607,7.0,1.0,phase_2,go,800.0,900.0,1.0,,,,,,,,,yellow,I
0.0,4.0,4.0,0.0,6.0,6.0,445.2768860001015,7.0,1.0,phase_2,go,800.0,900.0,1.0,,,,,,,,,green,circle
0.0,4.0,4.0,0.0,5.0,5.0,222.2411359998659,7.0,1.0,phase_2,go,800.0,900.0,1.0,,,,,,,,,green,circle
0.0,2.0,1.0,0.0,5.0,5.0,403.2282929997564,7.0,1.0,phase_2,go,800.0,900.0,1.0,,,,,,,,,blue,square
0.0,2.0,1.0,0.0,5.0,5.0,343.8959610002712,7.0,1.0,phase_2,go,800.0,900.0,1.0,,,,,,,,,blue,square
0.0,7.0,2.0,1.0,5.0,5.0,426.5064359997268,7.0,1.0,phase_2,stop,800.0,900.0,3.0,,,,,,,,,magenta,triangle
0.0,8.0,4.0,1.0,5.0,5.0,569.508458999735,7.0,1.0,phase_2,stop,750.0,900.0,3.0,,,,,,,,,cyan,cross
0.0,4.0,4.0,0.0,5.0,5.0,461.4658769996822,7.0,1.0,phase_2,go,700.0,900.0,1.0,,,,,,,,,green,circle
0.0,6.0,1.0,1.0,5.0,0.0,0.0,7.0,1.0,phase_2,stop,700.0,900.0,4.0,,,,,,,,,gray,flipped triangle
0.0,2.0,1.0,0.0,6.0,6.0,307.3769200000242,7.0,1.0,phase_2,go,750.0,900.0,1.0,,,,,,,,,blue,square
0.0,5.0,0.5,1.0,6.0,6.0,1161.615586000153,7.0,1.0,phase_2,stop,750.0,900.0,3.0,,,,,,,,,white,hexagon
0.0,1.0,0.5,0.0,5.0,5.0,425.3361350001796,7.0,1.0,phase_2,go,750.0,850.0,1.0,,,,,,,,,yellow,I
0.0,5.0,0.5,1.0,5.0,0.0,0.0,7.0,1.0,phase_2,stop,750.0,850.0,4.0,,,,,,,,,white,hexagon
0.0,2.0,1.0,0.0,6.0,6.0,460.7394760000716,7.0,1.0,phase_2,go,800.0,850.0,1.0,,,,,,,,,blue,square
0.0,6.0,1.0,1.0,5.0,0.0,0.0,7.0,1.0,phase_2,go,800.0,850.0,5.0,,,,,,,,,gray,flipped triangle
0.0,5.0,0.5,1.0,6.0,0.0,0.0,7.0,1.0,phase_2,go,800.0,850.0,5.0,,,,,,,,,white,hexagon
0.0,8.0,4.0,1.0,6.0,6.0,343.7820579997606,7.0,1.0,phase_2,stop,800.0,850.0,3.0,,,,,,,,,cyan,cross
0.0,4.0,4.0,0.0,5.0,5.0,231.9294119997721,7.0,1.0,phase_2,go,800.0,800.0,1.0,,,,,,,,,green,circle
0.0,6.0,1.0,1.0,5.0,5.0,337.5101659999018,7.0,1.0,phase_2,stop,800.0,800.0,3.0,,,,,,,,,gray,flipped triangle
0.0,2.0,1.0,0.0,6.0,6.0,327.8600590001588,7.0,1.0,phase_2,go,750.0,800.0,1.0,,,,,,,,,blue,square
0.0,6.0,1.0,1.0,5.0,0.0,0.0,7.0,1.0,phase_2,stop,750.0,800.0,4.0,,,,,,,,,gray,flipped triangle
0.0,4.0,4.0,0.0,6.0,6.0,283.8189669996609,7.0,1.0,phase_2,go,800.0,800.0,1.0,,,,,,,,,green,circle
0.0,5.0,0.5,1.0,5.0,5.0,239.382077999835,7.0,1.0,phase_2,go,800.0,800.0,1.0,,,,,,,,,white,hexagon
0.0,8.0,4.0,1.0,5.0,5.0,935.8568830002696,7.0,1.0,phase_2,go,800.0,800.0,1.0,,,,,,,,,cyan,cross
0.0,8.0,4.0,1.0,6.0,0.0,0.0,7.0,1.0,phase_2,stop,800.0,800.0,4.0,,,,,,,,,cyan,cross
0.0,1.0,0.5,0.0,5.0,5.0,463.8601980000203,7.0,1.0,phase_2,go,800.0,850.0,1.0,,,,,,,,,yellow,I
0.0,3.0,2.0,0.0,5.0,5.0,358.3501579996664,7.0,1.0,phase_2,go,800.0,850.0,1.0,,,,,,,,,orange,diamond
0.0,7.0,2.0,1.0,6.0,0.0,0.0,7.0,1.0,phase_2,stop,800.0,850.0,4.0,,,,,,,,,magenta,triangle
0.0,6.0,1.0,1.0,6.0,6.0,925.8577619998504,7.0,1.0,phase_2,go,800.0,900.0,1.0,,,,,,,,,gray,flipped triangle
0.0,6.0,1.0,1.0,6.0,6.0,1177.6766019997922,7.0,1.0,phase_2,go,800.0,900.0,1.0,,,,,,,,,gray,flipped triangle
0.0,5.0,0.5,1.0,6.0,6.0,986.8925300002048,7.0,1.0,phase_2,stop,800.0,900.0,3.0,,,,,,,,,white,hexagon
0.0,6.0,1.0,1.0,5.0,0.0,0.0,7.0,1.0,phase_2,stop,800.0,850.0,4.0,,,,,,,,,gray,flipped triangle
0.0,8.0,4.0,1.0,5.0,0.0,0.0,7.0,1.0,phase_2,stop,850.0,850.0,4.0,,,,,,,,,cyan,cross
0.0,1.0,0.5,0.0,5.0,5.0,689.3165279998357,8.0,1.0,phase_2,go,900.0,850.0,1.0,,,,,,,,,yellow,I
0.0,4.0,4.0,0.0,6.0,6.0,415.8276190000833,8.0,1.0,phase_2,go,900.0,850.0,1.0,,,,,,,,,green,circle
0.0,7.0,2.0,1.0,5.0,5.0,295.3141460002371,8.0,1.0,phase_2,stop,900.0,850.0,3.0,,,,,,,,,magenta,triangle
0.0,3.0,2.0,0.0,5.0,5.0,368.498142000135,8.0,1.0,phase_2,go,850.0,850.0,1.0,,,,,,,,,orange,diamond
0.0,4.0,4.0,0.0,5.0,5.0,482.7170660000774,8.0,1.0,phase_2,go,850.0,850.0,1.0,,,,,,,,,green,circle
0.0,3.0,2.0,0.0,5.0,5.0,291.3389260002077,8.0,1.0,phase_2,go,850.0,850.0,1.0,,,,,,,,,orange,diamond
0.0,8.0,4.0,1.0,6.0,6.0,273.5301110001273,8.0,1.0,phase_2,stop,850.0,850.0,3.0,,,,,,,,,cyan,cross
0.0,6.0,1.0,1.0,6.0,6.0,834.8800619996837,8.0,1.0,phase_2,stop,850.0,800.0,3.0,,,,,,,,,gray,flipped triangle
0.0,2.0,1.0,0.0,6.0,6.0,288.1056229998648,8.0,1.0,phase_2,go,850.0,750.0,1.0,,,,,,,,,blue,square
0.0,4.0,4.0,0.0,5.0,5.0,230.5294540001341,8.0,1.0,phase_2,go,850.0,750.0,1.0,,,,,,,,,green,circle
0.0,4.0,4.0,0.0,6.0,6.0,340.5876910001097,8.0,1.0,phase_2,go,850.0,750.0,1.0,,,,,,,,,green,circle
0.0,1.0,0.5,0.0,5.0,5.0,299.901028000022,8.0,1.0,phase_2,go,850.0,750.0,1.0,,,,,,,,,yellow,I
0.0,7.0,2.0,1.0,6.0,6.0,445.8736950000457,8.0,1.0,phase_2,stop,850.0,750.0,3.0,,,,,,,,,magenta,triangle
0.0,5.0,0.5,1.0,6.0,6.0,281.9572459993651,8.0,1.0,phase_2,stop,850.0,700.0,3.0,,,,,,,,,white,hexagon
0.0,1.0,0.5,0.0,6.0,6.0,295.2873069998531,8.0,1.0,phase_2,go,850.0,650.0,1.0,,,,,,,,,yellow,I
0.0,5.0,0.5,1.0,5.0,5.0,283.6266210006215,8.0,1.0,phase_2,stop,850.0,650.0,3.0,,,,,,,,,white,hexagon
0.0,4.0,4.0,0.0,5.0,5.0,327.0810900003198,8.0,1.0,phase_2,go,800.0,650.0,1.0,,,,,,,,,green,circle
0.0,3.0,2.0,0.0,6.0,6.0,324.2011060001459,8.0,1.0,phase_2,go,800.0,650.0,1.0,,,,,,,,,orange,diamond
0.0,6.0,1.0,1.0,6.0,6.0,280.8672809997006,8.0,1.0,phase_2,stop,800.0,650.0,3.0,,,,,,,,,gray,flipped triangle
0.0,5.0,0.5,1.0,5.0,5.0,1305.3443469998456,8.0,1.0,phase_2,go,800.0,600.0,1.0,,,,,,,,,white,hexagon
0.0,1.0,0.5,0.0,6.0,6.0,409.7204239997154,8.0,1.0,phase_2,go,800.0,600.0,1.0,,,,,,,,,yellow,I
0.0,8.0,4.0,1.0,6.0,6.0,435.2870820002863,8.0,1.0,phase_2,stop,800.0,600.0,3.0,,,,,,,,,cyan,cross
0.0,1.0,0.5,0.0,6.0,6.0,488.8266990001284,8.0,1.0,phase_2,go,800.0,550.0,1.0,,,,,,,,,yellow,I
0.0,1.0,0.5,0.0,5.0,5.0,439.8656469993511,8.0,1.0,phase_2,go,800.0,550.0,1.0,,,,,,,,,yellow,I
0.0,1.0,0.5,0.0,5.0,5.0,298.727530999713,8.0,1.0,phase_2,go,800.0,550.0,1.0,,,,,,,,,yellow,I
0.0,5.0,0.5,1.0,6.0,0.0,0.0,8.0,1.0,phase_2,stop,800.0,550.0,4.0,,,,,,,,,white,hexagon
0.0,3.0,2.0,0.0,6.0,6.0,490.4213930003607,8.0,1.0,phase_2,go,800.0,600.0,1.0,,,,,,,,,orange,diamond
0.0,7.0,2.0,1.0,5.0,5.0,337.192034000509,8.0,1.0,phase_2,stop,800.0,600.0,3.0,,,,,,,,,magenta,triangle
0.0,8.0,4.0,1.0,6.0,6.0,247.3666449996017,8.0,1.0,phase_2,stop,750.0,600.0,3.0,,,,,,,,,cyan,cross
0.0,4.0,4.0,0.0,5.0,5.0,252.02715899922617,8.0,1.0,phase_2,go,750.0,550.0,1.0,,,,,,,,,green,circle
0.0,7.0,2.0,1.0,6.0,6.0,252.40384599965182,8.0,1.0,phase_2,stop,750.0,550.0,3.0,,,,,,,,,magenta,triangle
0.0,3.0,2.0,0.0,5.0,5.0,350.8450979998088,8.0,1.0,phase_2,go,750.0,500.0,1.0,,,,,,,,,orange,diamond
0.0,8.0,4.0,1.0,5.0,5.0,897.9591529996469,8.0,1.0,phase_2,go,750.0,500.0,1.0,,,,,,,,,cyan,cross
0.0,6.0,1.0,1.0,5.0,5.0,997.7149529995586,8.0,1.0,phase_2,stop,750.0,500.0,3.0,,,,,,,,,gray,flipped triangle
0.0,8.0,4.0,1.0,6.0,0.0,0.0,8.0,1.0,phase_2,stop,700.0,500.0,4.0,,,,,,,,,cyan,cross
0.0,8.0,4.0,1.0,5.0,5.0,838.9847199996439,8.0,1.0,phase_2,stop,700.0,550.0,3.0,,,,,,,,,cyan,cross
0.0,6.0,1.0,1.0,7.0,2.0,4684.765689999949,1.0,1.0,phase_3,,,,,102.0,3.0,34.0,102.0,204.0,136.0,170.0,68.0,gray,flipped triangle
0.0,7.0,2.0,1.0,7.0,5.0,2275.853768000161,1.0,1.0,phase_3,,,,,34.0,1.0,204.0,136.0,68.0,170.0,34.0,102.0,magenta,triangle
0.0,6.0,1.0,1.0,7.0,6.0,2645.9378489998926,1.0,1.0,phase_3,,,,,49.0,1.0,294.0,245.0,98.0,196.0,147.0,49.0,gray,flipped triangle
0.0,6.0,1.0,1.0,7.0,3.0,2092.017171000407,1.0,1.0,phase_3,,,,,88.0,2.0,220.0,176.0,88.0,132.0,44.0,264.0,gray,flipped triangle
0.0,2.0,1.0,0.0,7.0,1.0,1367.3483749998925,1.0,1.0,phase_3,,,,,34.0,1.0,34.0,68.0,170.0,136.0,204.0,102.0,blue,square
0.0,4.0,4.0,0.0,7.0,3.0,1163.3400729997447,1.0,1.0,phase_3,,,,,44.0,1.0,132.0,88.0,44.0,264.0,220.0,176.0,green,circle
0.0,7.0,2.0,1.0,7.0,4.0,1349.9372080004832,1.0,1.0,phase_3,,,,,98.0,2.0,196.0,245.0,294.0,98.0,147.0,49.0,magenta,triangle
0.0,4.0,4.0,0.0,7.0,4.0,2217.597215999376,1.0,1.0,phase_3,,,,,78.0,2.0,39.0,117.0,234.0,78.0,195.0,156.0,green,circle
0.0,2.0,1.0,0.0,7.0,5.0,1410.5175409995354,1.0,1.0,phase_3,,,,,88.0,2.0,220.0,132.0,44.0,264.0,88.0,176.0,blue,square
0.0,4.0,4.0,0.0,7.0,6.0,2241.9437560001825,1.0,1.0,phase_3,,,,,102.0,3.0,34.0,68.0,136.0,170.0,204.0,102.0,green,circle
0.0,3.0,2.0,0.0,7.0,5.0,2014.2029509997883,1.0,1.0,phase_3,,,,,136.0,4.0,68.0,102.0,34.0,204.0,136.0,170.0,orange,diamond
0.0,8.0,4.0,1.0,7.0,4.0,1656.981249000637,1.0,1.0,phase_3,,,,,270.0,5.0,54.0,324.0,162.0,270.0,108.0,216.0,cyan,cross
0.0,5.0,0.5,1.0,7.0,6.0,2146.7405280000094,1.0,1.0,phase_3,,,,,162.0,3.0,270.0,324.0,216.0,54.0,108.0,162.0,white,hexagon
0.0,8.0,4.0,1.0,7.0,1.0,2207.7653819997067,1.0,1.0,phase_3,,,,,147.0,3.0,147.0,294.0,98.0,196.0,49.0,245.0,cyan,cross
0.0,8.0,4.0,1.0,7.0,2.0,2090.5032999999094,1.0,1.0,phase_3,,,,,196.0,4.0,98.0,196.0,49.0,147.0,294.0,245.0,cyan,cross
0.0,7.0,2.0,1.0,7.0,4.0,3869.286322999869,1.0,1.0,phase_3,,,,,117.0,3.0,234.0,78.0,195.0,117.0,156.0,39.0,magenta,triangle
0.0,7.0,2.0,1.0,7.0,1.0,1521.3628989995414,1.0,1.0,phase_3,,,,,176.0,4.0,176.0,264.0,44.0,220.0,132.0,88.0,magenta,triangle
0.0,4.0,4.0,0.0,7.0,3.0,3136.042152999835,1.0,1.0,phase_3,,,,,54.0,1.0,108.0,162.0,54.0,216.0,324.0,270.0,green,circle
0.0,3.0,2.0,0.0,7.0,4.0,1301.7820949999075,1.0,1.0,phase_3,,,,,54.0,1.0,216.0,108.0,324.0,54.0,162.0,270.0,orange,diamond
0.0,5.0,0.5,1.0,7.0,6.0,1981.3498919993435,1.0,1.0,phase_3,,,,,54.0,1.0,216.0,162.0,324.0,270.0,108.0,54.0,white,hexagon
0.0,8.0,4.0,1.0,7.0,2.0,1461.044657000457,2.0,1.0,phase_3,,,,,78.0,2.0,156.0,78.0,234.0,195.0,117.0,39.0,cyan,cross
0.0,8.0,4.0,1.0,7.0,6.0,1539.688883999588,2.0,1.0,phase_3,,,,,102.0,3.0,68.0,34.0,170.0,204.0,136.0,102.0,cyan,cross
0.0,5.0,0.5,1.0,7.0,3.0,3909.8618779999015,2.0,1.0,phase_3,,,,,132.0,3.0,220.0,264.0,132.0,176.0,44.0,88.0,white,hexagon
0.0,3.0,2.0,0.0,7.0,2.0,1891.0171930001525,2.0,1.0,phase_3,,,,,78.0,2.0,156.0,78.0,117.0,39.0,195.0,234.0,orange,diamond
0.0,8.0,4.0,1.0,7.0,2.0,2084.1417689998707,2.0,1.0,phase_3,,,,,102.0,3.0,170.0,102.0,204.0,136.0,68.0,34.0,cyan,cross
0.0,1.0,0.5,0.0,7.0,2.0,2176.292457999807,2.0,1.0,phase_3,,,,,136.0,4.0,170.0,136.0,34.0,204.0,68.0,102.0,yellow,I
0.0,5.0,0.5,1.0,7.0,6.0,1898.5842559995945,2.0,1.0,phase_3,,,,,98.0,2.0,147.0,294.0,245.0,196.0,49.0,98.0,white,hexagon
0.0,3.0,2.0,0.0,7.0,1.0,2010.5617740000525,2.0,1.0,phase_3,,,,,117.0,3.0,117.0,234.0,156.0,39.0,195.0,78.0,orange,diamond
0.0,8.0,4.0,1.0,7.0,5.0,2146.619662000376,2.0,1.0,phase_3,,,,,117.0,3.0,234.0,156.0,39.0,195.0,117.0,78.0,cyan,cross
0.0,2.0,1.0,0.0,7.0,3.0,2029.8876110000492,2.0,1.0,phase_3,,,,,117.0,3.0,78.0,195.0,117.0,39.0,234.0,156.0,blue,square
0.0,6.0,1.0,1.0,7.0,2.0,1568.2410299996263,2.0,1.0,phase_3,,,,,176.0,4.0,88.0,176.0,220.0,264.0,44.0,132.0,gray,flipped triangle
0.0,2.0,1.0,0.0,7.0,6.0,2523.032463999698,2.0,1.0,phase_3,,,,,54.0,1.0,216.0,162.0,108.0,270.0,324.0,54.0,blue,square
0.0,6.0,1.0,1.0,7.0,5.0,2302.0737139995617,2.0,1.0,phase_3,,,,,117.0,3.0,39.0,234.0,78.0,195.0,117.0,156.0,gray,flipped triangle
0.0,3.0,2.0,0.0,7.0,3.0,1716.5096570006426,2.0,1.0,phase_3,,,,,88.0,2.0,132.0,220.0,88.0,176.0,264.0,44.0,orange,diamond
0.0,1.0,0.5,0.0,7.0,5.0,1801.6188769997823,2.0,1.0,phase_3,,,,,78.0,2.0,156.0,39.0,234.0,117.0,78.0,195.0,yellow,I
0.0,8.0,4.0,1.0,7.0,3.0,2585.361470999487,2.0,1.0,phase_3,,,,,132.0,3.0,88.0,176.0,132.0,264.0,220.0,44.0,cyan,cross
0.0,4.0,4.0,0.0,7.0,5.0,1904.7686840003732,2.0,1.0,phase_3,,,,,39.0,1.0,234.0,195.0,78.0,117.0,39.0,156.0,green,circle
0.0,5.0,0.5,1.0,7.0,1.0,1316.564138999638,2.0,1.0,phase_3,,,,,88.0,2.0,88.0,220.0,176.0,132.0,44.0,264.0,white,hexagon
0.0,6.0,1.0,1.0,7.0,6.0,2298.528882000028,2.0,1.0,phase_3,,,,,162.0,3.0,324.0,54.0,108.0,216.0,270.0,162.0,gray,flipped triangle
0.0,7.0,2.0,1.0,7.0,6.0,2104.5949529998325,2.0,1.0,phase_3,,,,,216.0,4.0,162.0,54.0,108.0,324.0,270.0,216.0,magenta,triangle
0.0,2.0,1.0,0.0,7.0,1.0,3242.189257000064,3.0,1.0,phase_3,,,,,49.0,1.0,49.0,147.0,294.0,196.0,245.0,98.0,blue,square
0.0,3.0,2.0,0.0,7.0,5.0,1956.494007999936,3.0,1.0,phase_3,,,,,147.0,3.0,196.0,49.0,245.0,294.0,147.0,98.0,orange,diamond
0.0,3.0,2.0,0.0,7.0,6.0,2176.905657000134,3.0,1.0,phase_3,,,,,196.0,4.0,49.0,294.0,147.0,245.0,98.0,196.0,orange,diamond
0.0,1.0,0.5,0.0,7.0,6.0,1656.3328250003906,3.0,1.0,phase_3,,,,,49.0,1.0,294.0,196.0,245.0,147.0,98.0,49.0,yellow,I
0.0,1.0,0.5,0.0,7.0,3.0,1397.9503660002592,3.0,1.0,phase_3,,,,,78.0,2.0,39.0,117.0,78.0,195.0,156.0,234.0,yellow,I
0.0,7.0,2.0,1.0,7.0,1.0,1211.9420210001408,3.0,1.0,phase_3,,,,,44.0,1.0,44.0,264.0,176.0,132.0,88.0,220.0,magenta,triangle
0.0,4.0,4.0,0.0,7.0,2.0,1587.0360850003635,3.0,1.0,phase_3,,,,,98.0,2.0,245.0,98.0,196.0,49.0,147.0,294.0,green,circle
0.0,4.0,4.0,0.0,7.0,3.0,1862.2665399998368,3.0,1.0,phase_3,,,,,49.0,1.0,196.0,245.0,49.0,294.0,147.0,98.0,green,circle
0.0,2.0,1.0,0.0,7.0,4.0,1567.9785080001238,3.0,1.0,phase_3,,,,,117.0,3.0,234.0,156.0,39.0,117.0,78.0,195.0,blue,square
0.0,7.0,2.0,1.0,7.0,4.0,2411.349705000248,3.0,1.0,phase_3,,,,,147.0,3.0,49.0,245.0,98.0,147.0,196.0,294.0,magenta,triangle
0.0,7.0,2.0,1.0,7.0,4.0,1578.0092810000497,3.0,1.0,phase_3,,,,,117.0,3.0,156.0,78.0,195.0,117.0,234.0,39.0,magenta,triangle
0.0,6.0,1.0,1.0,7.0,5.0,2372.818761000417,3.0,1.0,phase_3,,,,,196.0,4.0,98.0,49.0,294.0,147.0,196.0,245.0,gray,flipped triangle
0.0,2.0,1.0,0.0,7.0,6.0,1984.5102899998888,3.0,1.0,phase_3,,,,,44.0,1.0,176.0,132.0,264.0,220.0,88.0,44.0,blue,square
0.0,8.0,4.0,1.0,7.0,3.0,1902.1188560000155,3.0,1.0,phase_3,,,,,108.0,2.0,54.0,324.0,108.0,216.0,162.0,270.0,cyan,cross
0.0,5.0,0.5,1.0,7.0,2.0,1131.8125660000078,3.0,1.0,phase_3,,,,,136.0,4.0,34.0,136.0,102.0,170.0,68.0,204.0,white,hexagon
0.0,3.0,2.0,0.0,7.0,3.0,2124.6376499993858,3.0,1.0,phase_3,,,,,324.0,6.0,162.0,216.0,324.0,54.0,108.0,270.0,orange,diamond
0.0,1.0,0.5,0.0,7.0,5.0,1311.211092999656,3.0,1.0,phase_3,,,,,88.0,2.0,264.0,220.0,44.0,176.0,88.0,132.0,yellow,I
0.0,6.0,1.0,1.0,7.0,4.0,1295.01436999999,3.0,1.0,phase_3,,,,,216.0,4.0,324.0,108.0,162.0,216.0,270.0,54.0,gray,flipped triangle
0.0,1.0,0.5,0.0,7.0,4.0,1526.257402999363,3.0,1.0,phase_3,,,,,88.0,2.0,176.0,132.0,44.0,88.0,220.0,264.0,yellow,I
0.0,7.0,2.0,1.0,7.0,2.0,951.8753349993858,3.0,1.0,phase_3,,,,,54.0,1.0,324.0,54.0,108.0,270.0,216.0,162.0,magenta,triangle
0.0,7.0,2.0,1.0,7.0,3.0,1584.3134179995104,4.0,1.0,phase_3,,,,,102.0,3.0,68.0,136.0,102.0,34.0,204.0,170.0,magenta,triangle
0.0,2.0,1.0,0.0,7.0,4.0,1355.8215360008037,4.0,1.0,phase_3,,,,,170.0,5.0,136.0,34.0,68.0,170.0,102.0,204.0,blue,square
0.0,4.0,4.0,0.0,7.0,2.0,891.664158999447,4.0,1.0,phase_3,,,,,102.0,3.0,204.0,102.0,34.0,136.0,68.0,170.0,green,circle
0.0,5.0,0.5,1.0,7.0,4.0,1946.6278610007064,4.0,1.0,phase_3,,,,,156.0,4.0,234.0,195.0,39.0,156.0,78.0,117.0,white,hexagon
0.0,2.0,1.0,0.0,7.0,6.0,1836.5722130001811,4.0,1.0,phase_3,,,,,49.0,1.0,245.0,98.0,196.0,294.0,147.0,49.0,blue,square
0.0,5.0,0.5,1.0,7.0,5.0,2366.698100000576,4.0,1.0,phase_3,,,,,102.0,3.0,170.0,34.0,68.0,204.0,102.0,136.0,white,hexagon
0.0,6.0,1.0,1.0,7.0,4.0,2776.791319999574,4.0,1.0,phase_3,,,,,156.0,4.0,39.0,195.0,117.0,156.0,234.0,78.0,gray,flipped triangle
0.0,1.0,0.5,0.0,7.0,5.0,2755.7519419997334,4.0,1.0,phase_3,,,,,108.0,2.0,162.0,216.0,270.0,324.0,108.0,54.0,yellow,I
0.0,5.0,0.5,1.0,7.0,3.0,1638.7872859995696,4.0,1.0,phase_3,,,,,78.0,2.0,117.0,39.0,78.0,195.0,156.0,234.0,white,hexagon
0.0,6.0,1.0,1.0,7.0,4.0,1696.3564940006108,4.0,1.0,phase_3,,,,,102.0,3.0,34.0,136.0,170.0,102.0,68.0,204.0,gray,flipped triangle
0.0,4.0,4.0,0.0,7.0,1.0,1256.0965800003032,4.0,1.0,phase_3,,,,,88.0,2.0,88.0,220.0,132.0,176.0,44.0,264.0,green,circle
0.0,8.0,4.0,1.0,7.0,4.0,1982.3501029995896,4.0,1.0,phase_3,,,,,132.0,3.0,220.0,88.0,176.0,132.0,264.0,44.0,cyan,cross
0.0,1.0,0.5,0.0,7.0,2.0,992.6146809993952,4.0,1.0,phase_3,,,,,102.0,3.0,136.0,102.0,170.0,68.0,204.0,34.0,yellow,I
0.0,3.0,2.0,0.0,7.0,3.0,2166.519411000081,4.0,1.0,phase_3,,,,,102.0,3.0,136.0,34.0,102.0,170.0,68.0,204.0,orange,diamond
0.0,2.0,1.0,0.0,7.0,4.0,1894.5539719998123,4.0,1.0,phase_3,,,,,162.0,3.0,270.0,324.0,216.0,162.0,54.0,108.0,blue,square
0.0,5.0,0.5,1.0,7.0,5.0,2605.2833349995126,4.0,1.0,phase_3,,,,,294.0,6.0,98.0,49.0,147.0,196.0,294.0,245.0,white,hexagon
0.0,1.0,0.5,0.0,7.0,2.0,1247.5303999999596,4.0,1.0,phase_3,,,,,98.0,2.0,245.0,98.0,147.0,196.0,49.0,294.0,yellow,I
0.0,1.0,0.5,0.0,7.0,2.0,1326.7500149995612,4.0,1.0,phase_3,,,,,216.0,4.0,270.0,216.0,108.0,54.0,324.0,162.0,yellow,I
0.0,4.0,4.0,0.0,7.0,2.0,1172.5187049996748,4.0,1.0,phase_3,,,,,162.0,3.0,54.0,162.0,108.0,270.0,324.0,216.0,green,circle
0.0,3.0,2.0,0.0,7.0,5.0,898.6596800004918,4.0,1.0,phase_3,,,,,264.0,6.0,44.0,220.0,88.0,132.0,264.0,176.0,orange,diamond
