raw_reward_magnitude,stim_reward,stepwise_reward_magnitude,paired_with_stopping,stim_location,response,reaction_time,block,num_trial_presentations,which_phase,stop_signal_trial_type,left_SSD,right_SSD,accuracy,chosen_bidding_amount,chosen_bidding_level,possible_bid_1,possible_bid_2,possible_bid_3,possible_bid_4,possible_bid_5,possible_bid_6,color_text,shape_text
0.0,6.0,0.0,1.0,4.0,4.0,310.455667000042,1.0,1.0,phase_1,,,,,,,,,,,,,cyan,cross
0.0,4.0,0.0,0.0,1.0,1.0,265.5119639998702,1.0,1.0,phase_1,,,,,,,,,,,,,magenta,hexagon
397.0,8.0,4.0,1.0,3.0,3.0,239.4057319997955,1.0,1.0,phase_1,,,,,,,,,,,,,blue,circle
88.0,2.0,2.0,0.0,1.0,1.0,286.5649229997871,1.0,1.0,phase_1,,,,,,,,,,,,,gray,triangle
47.0,1.0,1.0,0.0,3.0,3.0,244.043516000147,1.0,1.0,phase_1,,,,,,,,,,,,,orange,flipped triangle
405.0,4.0,4.0,0.0,3.0,3.0,269.1543199998705,1.0,1.0,phase_1,,,,,,,,,,,,,magenta,hexagon
191.0,3.0,3.0,0.0,1.0,1.0,268.8982810000198,1.0,1.0,phase_1,,,,,,,,,,,,,yellow,I
211.0,7.0,3.0,1.0,4.0,4.0,268.6429049999788,1.0,1.0,phase_1,,,,,,,,,,,,,green,square
103.0,6.0,2.0,1.0,2.0,2.0,272.7816309998161,1.0,1.0,phase_1,,,,,,,,,,,,,cyan,cross
192.0,3.0,3.0,0.0,4.0,4.0,253.8886389997969,1.0,1.0,phase_1,,,,,,,,,,,,,yellow,I
111.0,6.0,2.0,1.0,3.0,3.0,267.7168000000165,1.0,1.0,phase_1,,,,,,,,,,,,,cyan,cross
204.0,3.0,3.0,0.0,2.0,2.0,235.2140689999942,1.0,1.0,phase_1,,,,,,,,,,,,,yellow,I
376.0,4.0,4.0,0.0,2.0,2.0,256.3600150001548,1.0,1.0,phase_1,,,,,,,,,,,,,magenta,hexagon
62.0,5.0,1.0,1.0,1.0,1.0,223.4901850001733,1.0,1.0,phase_1,,,,,,,,,,,,,white,diamond
90.0,6.0,2.0,1.0,2.0,2.0,267.9856760000803,1.0,1.0,phase_1,,,,,,,,,,,,,cyan,cross
30.0,5.0,1.0,1.0,3.0,3.0,271.6386820002299,1.0,1.0,phase_1,,,,,,,,,,,,,white,diamond
124.0,2.0,2.0,0.0,2.0,2.0,240.9793510000781,1.0,1.0,phase_1,,,,,,,,,,,,,gray,triangle
0.0,6.0,0.0,1.0,2.0,2.0,251.2275789999876,1.0,1.0,phase_1,,,,,,,,,,,,,cyan,cross
378.0,4.0,4.0,0.0,2.0,2.0,229.1699540000991,1.0,1.0,phase_1,,,,,,,,,,,,,magenta,hexagon
414.0,4.0,4.0,0.0,3.0,3.0,295.4551399998308,1.0,1.0,phase_1,,,,,,,,,,,,,magenta,hexagon
53.0,5.0,1.0,1.0,2.0,2.0,252.07582299981368,1.0,1.0,phase_1,,,,,,,,,,,,,white,diamond
85.0,6.0,2.0,1.0,2.0,2.0,251.18873399969738,1.0,1.0,phase_1,,,,,,,,,,,,,cyan,cross
207.0,7.0,3.0,1.0,1.0,1.0,258.1997190000038,1.0,1.0,phase_1,,,,,,,,,,,,,green,square
387.0,8.0,4.0,1.0,2.0,2.0,239.893738000319,1.0,1.0,phase_1,,,,,,,,,,,,,blue,circle
410.0,4.0,4.0,0.0,2.0,2.0,225.5280590002257,1.0,1.0,phase_1,,,,,,,,,,,,,magenta,hexagon
124.0,6.0,2.0,1.0,2.0,2.0,253.2539379999434,1.0,1.0,phase_1,,,,,,,,,,,,,cyan,cross
28.0,1.0,1.0,0.0,4.0,4.0,266.0766529998,1.0,1.0,phase_1,,,,,,,,,,,,,orange,flipped triangle
91.0,6.0,2.0,1.0,2.0,2.0,256.6177829999105,1.0,1.0,phase_1,,,,,,,,,,,,,cyan,cross
52.0,5.0,1.0,1.0,3.0,3.0,268.3100549998016,1.0,1.0,phase_1,,,,,,,,,,,,,white,diamond
196.0,7.0,3.0,1.0,4.0,4.0,259.5256419999714,1.0,1.0,phase_1,,,,,,,,,,,,,green,square
380.0,8.0,4.0,1.0,4.0,4.0,271.7452920001051,1.0,1.0,phase_1,,,,,,,,,,,,,blue,circle
407.0,8.0,4.0,1.0,1.0,1.0,244.4188019999273,1.0,1.0,phase_1,,,,,,,,,,,,,blue,circle
113.0,2.0,2.0,0.0,4.0,4.0,271.3782020000508,1.0,1.0,phase_1,,,,,,,,,,,,,gray,triangle
31.0,1.0,1.0,0.0,1.0,1.0,254.6800039999652,1.0,1.0,phase_1,,,,,,,,,,,,,orange,flipped triangle
0.0,6.0,0.0,1.0,4.0,4.0,253.05883999999418,1.0,1.0,phase_1,,,,,,,,,,,,,cyan,cross
187.0,7.0,3.0,1.0,3.0,3.0,236.4454710000245,1.0,1.0,phase_1,,,,,,,,,,,,,green,square
421.0,8.0,4.0,1.0,4.0,4.0,236.1869900000783,1.0,1.0,phase_1,,,,,,,,,,,,,blue,circle
212.0,7.0,3.0,1.0,1.0,1.0,231.1594450002303,1.0,1.0,phase_1,,,,,,,,,,,,,green,square
93.0,2.0,2.0,0.0,1.0,1.0,252.8898630002913,1.0,1.0,phase_1,,,,,,,,,,,,,gray,triangle
381.0,8.0,4.0,1.0,2.0,2.0,287.1551550001641,1.0,1.0,phase_1,,,,,,,,,,,,,blue,circle
0.0,5.0,0.0,1.0,2.0,2.0,257.4848960002782,1.0,1.0,phase_1,,,,,,,,,,,,,white,diamond
384.0,4.0,4.0,0.0,4.0,4.0,271.5588109999771,1.0,1.0,phase_1,,,,,,,,,,,,,magenta,hexagon
0.0,7.0,0.0,1.0,4.0,4.0,276.8670919999749,1.0,1.0,phase_1,,,,,,,,,,,,,green,square
0.0,1.0,0.0,0.0,4.0,4.0,241.14813400001358,1.0,1.0,phase_1,,,,,,,,,,,,,orange,flipped triangle
26.0,5.0,1.0,1.0,1.0,1.0,252.3737309998068,1.0,1.0,phase_1,,,,,,,,,,,,,white,diamond
55.0,1.0,1.0,0.0,2.0,2.0,272.9117849999056,1.0,1.0,phase_1,,,,,,,,,,,,,orange,flipped triangle
424.0,8.0,4.0,1.0,3.0,3.0,281.2290459996802,1.0,1.0,phase_1,,,,,,,,,,,,,blue,circle
410.0,4.0,4.0,0.0,3.0,3.0,276.8201929998213,1.0,1.0,phase_1,,,,,,,,,,,,,magenta,hexagon
82.0,6.0,2.0,1.0,1.0,1.0,238.3247369998571,1.0,1.0,phase_1,,,,,,,,,,,,,cyan,cross
407.0,4.0,4.0,0.0,4.0,4.0,240.3314680000221,1.0,1.0,phase_1,,,,,,,,,,,,,magenta,hexagon
88.0,6.0,2.0,1.0,4.0,4.0,269.5002220002607,1.0,1.0,phase_1,,,,,,,,,,,,,cyan,cross
217.0,3.0,3.0,0.0,3.0,3.0,243.9740299996629,1.0,1.0,phase_1,,,,,,,,,,,,,yellow,I
0.0,4.0,0.0,0.0,1.0,1.0,221.6956610000124,1.0,1.0,phase_1,,,,,,,,,,,,,magenta,hexagon
0.0,5.0,0.0,1.0,4.0,4.0,247.7194449998023,1.0,1.0,phase_1,,,,,,,,,,,,,white,diamond
55.0,5.0,1.0,1.0,1.0,1.0,253.84534300019368,1.0,1.0,phase_1,,,,,,,,,,,,,white,diamond
0.0,6.0,0.0,1.0,4.0,4.0,227.6163659998928,1.0,1.0,phase_1,,,,,,,,,,,,,cyan,cross
101.0,6.0,2.0,1.0,1.0,1.0,256.9684889999735,1.0,1.0,phase_1,,,,,,,,,,,,,cyan,cross
376.0,8.0,4.0,1.0,2.0,2.0,279.5202990000689,1.0,1.0,phase_1,,,,,,,,,,,,,blue,circle
69.0,5.0,1.0,1.0,4.0,4.0,271.3274040002034,1.0,1.0,phase_1,,,,,,,,,,,,,white,diamond
95.0,6.0,2.0,1.0,2.0,2.0,233.8034659996992,1.0,1.0,phase_1,,,,,,,,,,,,,cyan,cross
197.0,3.0,3.0,0.0,3.0,3.0,345.9668310001689,1.0,1.0,phase_1,,,,,,,,,,,,,yellow,I
0.0,8.0,0.0,1.0,3.0,3.0,256.8083390001447,1.0,1.0,phase_1,,,,,,,,,,,,,blue,circle
107.0,6.0,2.0,1.0,3.0,3.0,265.1760820003801,1.0,1.0,phase_1,,,,,,,,,,,,,cyan,cross
411.0,8.0,4.0,1.0,2.0,2.0,252.8308269997978,1.0,1.0,phase_1,,,,,,,,,,,,,blue,circle
0.0,4.0,0.0,0.0,4.0,4.0,275.2029609996498,1.0,1.0,phase_1,,,,,,,,,,,,,magenta,hexagon
26.0,1.0,1.0,0.0,4.0,4.0,303.9732310003273,1.0,1.0,phase_1,,,,,,,,,,,,,orange,flipped triangle
0.0,5.0,0.0,1.0,3.0,3.0,294.8832669999319,1.0,1.0,phase_1,,,,,,,,,,,,,white,diamond
0.0,2.0,0.0,0.0,3.0,3.0,304.2787169997609,1.0,1.0,phase_1,,,,,,,,,,,,,gray,triangle
384.0,8.0,4.0,1.0,1.0,1.0,245.3241460002573,1.0,1.0,phase_1,,,,,,,,,,,,,blue,circle
71.0,5.0,1.0,1.0,2.0,2.0,253.590830000121,1.0,1.0,phase_1,,,,,,,,,,,,,white,diamond
90.0,6.0,2.0,1.0,4.0,4.0,257.1258339999076,1.0,1.0,phase_1,,,,,,,,,,,,,cyan,cross
0.0,2.0,0.0,0.0,3.0,3.0,301.9762829999308,1.0,1.0,phase_1,,,,,,,,,,,,,gray,triangle
116.0,6.0,2.0,1.0,2.0,2.0,301.0528229997362,1.0,1.0,phase_1,,,,,,,,,,,,,cyan,cross
69.0,1.0,1.0,0.0,1.0,1.0,244.3638489999102,1.0,1.0,phase_1,,,,,,,,,,,,,orange,flipped triangle
405.0,4.0,4.0,0.0,1.0,1.0,239.8863450002863,1.0,1.0,phase_1,,,,,,,,,,,,,magenta,hexagon
405.0,8.0,4.0,1.0,4.0,4.0,284.5714919999409,1.0,1.0,phase_1,,,,,,,,,,,,,blue,circle
118.0,6.0,2.0,1.0,3.0,3.0,293.6595750002198,1.0,1.0,phase_1,,,,,,,,,,,,,cyan,cross
0.0,7.0,0.0,1.0,2.0,2.0,257.9073759998209,1.0,1.0,phase_1,,,,,,,,,,,,,green,square
40.0,1.0,1.0,0.0,3.0,3.0,289.4674940002915,1.0,1.0,phase_1,,,,,,,,,,,,,orange,flipped triangle
189.0,3.0,3.0,0.0,1.0,1.0,254.5146739998927,1.0,1.0,phase_1,,,,,,,,,,,,,yellow,I
216.0,3.0,3.0,0.0,4.0,4.0,229.3412940002781,1.0,1.0,phase_1,,,,,,,,,,,,,yellow,I
56.0,5.0,1.0,1.0,3.0,3.0,288.2365320001554,1.0,1.0,phase_1,,,,,,,,,,,,,white,diamond
0.0,6.0,0.0,1.0,3.0,3.0,370.4587709999032,1.0,1.0,phase_1,,,,,,,,,,,,,cyan,cross
0.0,5.0,0.0,1.0,1.0,1.0,255.61157599986473,1.0,1.0,phase_1,,,,,,,,,,,,,white,diamond
122.0,6.0,2.0,1.0,4.0,4.0,244.627078999656,1.0,1.0,phase_1,,,,,,,,,,,,,cyan,cross
29.0,1.0,1.0,0.0,2.0,2.0,245.5221159998473,1.0,1.0,phase_1,,,,,,,,,,,,,orange,flipped triangle
82.0,6.0,2.0,1.0,1.0,1.0,242.0367179997811,1.0,1.0,phase_1,,,,,,,,,,,,,cyan,cross
99.0,6.0,2.0,1.0,4.0,4.0,266.5550360002271,1.0,1.0,phase_1,,,,,,,,,,,,,cyan,cross
424.0,4.0,4.0,0.0,3.0,3.0,281.7265410003529,1.0,1.0,phase_1,,,,,,,,,,,,,magenta,hexagon
48.0,1.0,1.0,0.0,4.0,4.0,270.2038689999426,1.0,1.0,phase_1,,,,,,,,,,,,,orange,flipped triangle
107.0,2.0,2.0,0.0,1.0,1.0,256.3477939997938,1.0,1.0,phase_1,,,,,,,,,,,,,gray,triangle
125.0,6.0,2.0,1.0,1.0,1.0,268.5458430000835,1.0,1.0,phase_1,,,,,,,,,,,,,cyan,cross
201.0,7.0,3.0,1.0,2.0,2.0,299.4388609999987,1.0,1.0,phase_1,,,,,,,,,,,,,green,square
118.0,6.0,2.0,1.0,3.0,3.0,321.3950690001184,1.0,1.0,phase_1,,,,,,,,,,,,,cyan,cross
191.0,7.0,3.0,1.0,2.0,2.0,258.5182889997668,1.0,1.0,phase_1,,,,,,,,,,,,,green,square
183.0,3.0,3.0,0.0,1.0,1.0,204.0454519997183,1.0,1.0,phase_1,,,,,,,,,,,,,yellow,I
118.0,2.0,2.0,0.0,3.0,3.0,273.486511000101,1.0,1.0,phase_1,,,,,,,,,,,,,gray,triangle
62.0,1.0,1.0,0.0,3.0,3.0,299.8650479999014,1.0,1.0,phase_1,,,,,,,,,,,,,orange,flipped triangle
82.0,6.0,2.0,1.0,3.0,3.0,321.3706709998405,1.0,1.0,phase_1,,,,,,,,,,,,,cyan,cross
54.0,1.0,1.0,0.0,1.0,1.0,255.6752380000944,1.0,1.0,phase_1,,,,,,,,,,,,,orange,flipped triangle
0.0,5.0,0.0,1.0,4.0,4.0,256.5304760000799,2.0,1.0,phase_1,,,,,,,,,,,,,white,diamond
197.0,7.0,3.0,1.0,2.0,2.0,241.9266560000323,2.0,1.0,phase_1,,,,,,,,,,,,,green,square
176.0,3.0,3.0,0.0,2.0,2.0,242.5436549997357,2.0,1.0,phase_1,,,,,,,,,,,,,yellow,I
183.0,7.0,3.0,1.0,3.0,3.0,283.2730589998391,2.0,1.0,phase_1,,,,,,,,,,,,,green,square
55.0,5.0,1.0,1.0,2.0,2.0,238.2639190000191,2.0,1.0,phase_1,,,,,,,,,,,,,white,diamond
74.0,5.0,1.0,1.0,4.0,4.0,259.7670469999684,2.0,1.0,phase_1,,,,,,,,,,,,,white,diamond
383.0,4.0,4.0,0.0,1.0,1.0,210.7744250001815,2.0,1.0,phase_1,,,,,,,,,,,,,magenta,hexagon
217.0,7.0,3.0,1.0,4.0,4.0,237.9433109999809,2.0,1.0,phase_1,,,,,,,,,,,,,green,square
0.0,3.0,0.0,0.0,4.0,4.0,250.66704600021689,2.0,1.0,phase_1,,,,,,,,,,,,,yellow,I
0.0,1.0,0.0,0.0,3.0,3.0,262.4046590003672,2.0,1.0,phase_1,,,,,,,,,,,,,orange,flipped triangle
74.0,1.0,1.0,0.0,2.0,2.0,232.6391249998778,2.0,1.0,phase_1,,,,,,,,,,,,,orange,flipped triangle
420.0,8.0,4.0,1.0,3.0,3.0,240.6279839997296,2.0,1.0,phase_1,,,,,,,,,,,,,blue,circle
397.0,4.0,4.0,0.0,2.0,2.0,249.72480099995659,2.0,1.0,phase_1,,,,,,,,,,,,,magenta,hexagon
185.0,7.0,3.0,1.0,1.0,1.0,211.2148370001705,2.0,1.0,phase_1,,,,,,,,,,,,,green,square
0.0,2.0,0.0,0.0,1.0,1.0,258.7374029999409,2.0,1.0,phase_1,,,,,,,,,,,,,gray,triangle
46.0,5.0,1.0,1.0,4.0,4.0,244.3244429996411,2.0,1.0,phase_1,,,,,,,,,,,,,white,diamond
187.0,3.0,3.0,0.0,2.0,2.0,241.1348519999592,2.0,1.0,phase_1,,,,,,,,,,,,,yellow,I
0.0,1.0,0.0,0.0,1.0,1.0,268.0581150002581,2.0,1.0,phase_1,,,,,,,,,,,,,orange,flipped triangle
47.0,5.0,1.0,1.0,4.0,4.0,276.4414640000723,2.0,1.0,phase_1,,,,,,,,,,,,,white,diamond
0.0,7.0,0.0,1.0,3.0,3.0,260.8041970001977,2.0,2.0,phase_1,,,,,,,,,,,,,green,square
419.0,8.0,4.0,1.0,1.0,1.0,229.3721870000808,2.0,1.0,phase_1,,,,,,,,,,,,,blue,circle
381.0,8.0,4.0,1.0,4.0,4.0,233.269527000175,2.0,1.0,phase_1,,,,,,,,,,,,,blue,circle
220.0,3.0,3.0,0.0,4.0,4.0,244.9225919999662,2.0,1.0,phase_1,,,,,,,,,,,,,yellow,I
115.0,2.0,2.0,0.0,4.0,4.0,297.3848910000924,2.0,1.0,phase_1,,,,,,,,,,,,,gray,triangle
215.0,3.0,3.0,0.0,3.0,3.0,315.7331709999198,2.0,1.0,phase_1,,,,,,,,,,,,,yellow,I
423.0,8.0,4.0,1.0,2.0,2.0,276.9024740000532,2.0,1.0,phase_1,,,,,,,,,,,,,blue,circle
197.0,3.0,3.0,0.0,1.0,1.0,318.340858999818,2.0,1.0,phase_1,,,,,,,,,,,,,yellow,I
43.0,1.0,1.0,0.0,2.0,2.0,268.2452489998468,2.0,1.0,phase_1,,,,,,,,,,,,,orange,flipped triangle
90.0,2.0,2.0,0.0,2.0,2.0,280.2077560004363,2.0,1.0,phase_1,,,,,,,,,,,,,gray,triangle
64.0,1.0,1.0,0.0,3.0,3.0,289.4580960000894,2.0,1.0,phase_1,,,,,,,,,,,,,orange,flipped triangle
86.0,6.0,2.0,1.0,2.0,2.0,262.7076369999486,2.0,1.0,phase_1,,,,,,,,,,,,,cyan,cross
0.0,2.0,0.0,0.0,2.0,2.0,257.3310090001541,2.0,1.0,phase_1,,,,,,,,,,,,,gray,triangle
0.0,7.0,0.0,1.0,2.0,2.0,228.4417119999489,2.0,1.0,phase_1,,,,,,,,,,,,,green,square
78.0,2.0,2.0,0.0,3.0,3.0,304.78912999979,2.0,1.0,phase_1,,,,,,,,,,,,,gray,triangle
54.0,5.0,1.0,1.0,1.0,1.0,189.9622159999126,2.0,1.0,phase_1,,,,,,,,,,,,,white,diamond
0.0,2.0,0.0,0.0,3.0,3.0,264.9117259998093,2.0,1.0,phase_1,,,,,,,,,,,,,gray,triangle
82.0,2.0,2.0,0.0,4.0,4.0,255.1572259999375,2.0,1.0,phase_1,,,,,,,,,,,,,gray,triangle
419.0,4.0,4.0,0.0,2.0,2.0,218.5170719999405,2.0,1.0,phase_1,,,,,,,,,,,,,magenta,hexagon
411.0,4.0,4.0,0.0,3.0,3.0,317.3463369998899,2.0,1.0,phase_1,,,,,,,,,,,,,magenta,hexagon
118.0,2.0,2.0,0.0,4.0,4.0,278.1170799999017,2.0,1.0,phase_1,,,,,,,,,,,,,gray,triangle
28.0,5.0,1.0,1.0,2.0,2.0,234.2610730001979,2.0,1.0,phase_1,,,,,,,,,,,,,white,diamond
0.0,3.0,0.0,0.0,1.0,1.0,267.9061369999544,2.0,1.0,phase_1,,,,,,,,,,,,,yellow,I
180.0,3.0,3.0,0.0,4.0,4.0,261.6393299999799,2.0,1.0,phase_1,,,,,,,,,,,,,yellow,I
0.0,5.0,0.0,1.0,4.0,4.0,278.1163869999545,2.0,1.0,phase_1,,,,,,,,,,,,,white,diamond
0.0,4.0,0.0,0.0,1.0,1.0,241.6894220000358,2.0,1.0,phase_1,,,,,,,,,,,,,magenta,hexagon
183.0,3.0,3.0,0.0,4.0,4.0,224.1202689997408,2.0,1.0,phase_1,,,,,,,,,,,,,yellow,I
27.0,5.0,1.0,1.0,4.0,4.0,211.7004930000803,2.0,1.0,phase_1,,,,,,,,,,,,,white,diamond
0.0,7.0,0.0,1.0,1.0,1.0,226.5152810000472,2.0,1.0,phase_1,,,,,,,,,,,,,green,square
393.0,8.0,4.0,1.0,1.0,1.0,185.4727929999171,2.0,1.0,phase_1,,,,,,,,,,,,,blue,circle
423.0,4.0,4.0,0.0,1.0,1.0,222.1420569999281,2.0,1.0,phase_1,,,,,,,,,,,,,magenta,hexagon
55.0,1.0,1.0,0.0,3.0,3.0,274.030753000261,2.0,1.0,phase_1,,,,,,,,,,,,,orange,flipped triangle
52.0,5.0,1.0,1.0,3.0,3.0,249.0206729999045,2.0,1.0,phase_1,,,,,,,,,,,,,white,diamond
88.0,6.0,2.0,1.0,1.0,1.0,225.9815239999625,2.0,1.0,phase_1,,,,,,,,,,,,,cyan,cross
82.0,2.0,2.0,0.0,1.0,1.0,257.1734879998075,2.0,1.0,phase_1,,,,,,,,,,,,,gray,triangle
27.0,1.0,1.0,0.0,1.0,1.0,345.0325669996346,2.0,1.0,phase_1,,,,,,,,,,,,,orange,flipped triangle
64.0,5.0,1.0,1.0,4.0,4.0,268.4308070001862,2.0,1.0,phase_1,,,,,,,,,,,,,white,diamond
0.0,5.0,0.0,1.0,3.0,3.0,269.975365999926,2.0,1.0,phase_1,,,,,,,,,,,,,white,diamond
217.0,3.0,3.0,0.0,1.0,1.0,222.8235060001679,2.0,1.0,phase_1,,,,,,,,,,,,,yellow,I
64.0,1.0,1.0,0.0,4.0,4.0,248.4263309997914,2.0,2.0,phase_1,,,,,,,,,,,,,orange,flipped triangle
201.0,3.0,3.0,0.0,4.0,4.0,250.82875199996118,2.0,1.0,phase_1,,,,,,,,,,,,,yellow,I
420.0,4.0,4.0,0.0,4.0,4.0,256.5984479997496,2.0,1.0,phase_1,,,,,,,,,,,,,magenta,hexagon
395.0,8.0,4.0,1.0,3.0,3.0,275.226940000266,2.0,1.0,phase_1,,,,,,,,,,,,,blue,circle
414.0,8.0,4.0,1.0,2.0,2.0,278.5732080001253,2.0,1.0,phase_1,,,,,,,,,,,,,blue,circle
121.0,6.0,2.0,1.0,4.0,4.0,254.41689300032522,2.0,1.0,phase_1,,,,,,,,,,,,,cyan,cross
75.0,2.0,2.0,0.0,4.0,4.0,273.2978620001631,2.0,1.0,phase_1,,,,,,,,,,,,,gray,triangle
401.0,8.0,4.0,1.0,3.0,3.0,284.5173519999662,2.0,1.0,phase_1,,,,,,,,,,,,,blue,circle
75.0,5.0,1.0,1.0,3.0,3.0,283.4825449999698,2.0,1.0,phase_1,,,,,,,,,,,,,white,diamond
46.0,1.0,1.0,0.0,3.0,3.0,277.8419479996046,2.0,1.0,phase_1,,,,,,,,,,,,,orange,flipped triangle
91.0,6.0,2.0,1.0,3.0,3.0,300.0608990000728,2.0,1.0,phase_1,,,,,,,,,,,,,cyan,cross
380.0,4.0,4.0,0.0,1.0,1.0,261.6835290000381,2.0,1.0,phase_1,,,,,,,,,,,,,magenta,hexagon
395.0,4.0,4.0,0.0,4.0,4.0,258.3973959999639,2.0,1.0,phase_1,,,,,,,,,,,,,magenta,hexagon
47.0,1.0,1.0,0.0,4.0,4.0,292.4845030001961,2.0,1.0,phase_1,,,,,,,,,,,,,orange,flipped triangle
0.0,2.0,0.0,0.0,2.0,2.0,301.0601260002659,2.0,1.0,phase_1,,,,,,,,,,,,,gray,triangle
125.0,6.0,2.0,1.0,1.0,1.0,258.8732669996716,2.0,1.0,phase_1,,,,,,,,,,,,,cyan,cross
201.0,3.0,3.0,0.0,2.0,2.0,278.6088289999497,2.0,1.0,phase_1,,,,,,,,,,,,,yellow,I
0.0,5.0,0.0,1.0,1.0,1.0,324.8803589999625,2.0,1.0,phase_1,,,,,,,,,,,,,white,diamond
185.0,3.0,3.0,0.0,4.0,4.0,255.59118099999978,2.0,1.0,phase_1,,,,,,,,,,,,,yellow,I
107.0,2.0,2.0,0.0,2.0,2.0,264.4636129998616,2.0,1.0,phase_1,,,,,,,,,,,,,gray,triangle
418.0,4.0,4.0,0.0,1.0,1.0,241.6992769999524,2.0,1.0,phase_1,,,,,,,,,,,,,magenta,hexagon
74.0,5.0,1.0,1.0,4.0,4.0,295.27378199964,2.0,1.0,phase_1,,,,,,,,,,,,,white,diamond
410.0,8.0,4.0,1.0,2.0,2.0,234.8570460003429,2.0,1.0,phase_1,,,,,,,,,,,,,blue,circle
0.0,1.0,0.0,0.0,1.0,1.0,247.6688039996588,2.0,1.0,phase_1,,,,,,,,,,,,,orange,flipped triangle
0.0,2.0,0.0,0.0,4.0,4.0,280.325902000186,2.0,1.0,phase_1,,,,,,,,,,,,,gray,triangle
36.0,1.0,1.0,0.0,2.0,2.0,263.9501019998533,2.0,1.0,phase_1,,,,,,,,,,,,,orange,flipped triangle
117.0,6.0,2.0,1.0,4.0,4.0,270.4907110000931,2.0,1.0,phase_1,,,,,,,,,,,,,cyan,cross
180.0,3.0,3.0,0.0,1.0,1.0,259.9632530000235,2.0,1.0,phase_1,,,,,,,,,,,,,yellow,I
80.0,2.0,2.0,0.0,2.0,2.0,293.8085730002058,2.0,1.0,phase_1,,,,,,,,,,,,,gray,triangle
387.0,8.0,4.0,1.0,1.0,1.0,275.8320860002641,2.0,1.0,phase_1,,,,,,,,,,,,,blue,circle
0.0,7.0,0.0,1.0,3.0,3.0,269.326245999764,2.0,1.0,phase_1,,,,,,,,,,,,,green,square
400.0,8.0,4.0,1.0,4.0,4.0,271.1745730002803,2.0,2.0,phase_1,,,,,,,,,,,,,blue,circle
400.0,4.0,4.0,0.0,1.0,1.0,251.4283370001067,2.0,1.0,phase_1,,,,,,,,,,,,,magenta,hexagon
220.0,7.0,3.0,1.0,2.0,2.0,251.83063499980562,2.0,1.0,phase_1,,,,,,,,,,,,,green,square
75.0,1.0,1.0,0.0,4.0,4.0,250.6608899998355,2.0,1.0,phase_1,,,,,,,,,,,,,orange,flipped triangle
39.0,1.0,1.0,0.0,3.0,3.0,295.3705390000323,2.0,1.0,phase_1,,,,,,,,,,,,,orange,flipped triangle
99.0,2.0,2.0,0.0,2.0,2.0,272.4984409996978,2.0,1.0,phase_1,,,,,,,,,,,,,gray,triangle
0.0,4.0,0.0,0.0,1.0,1.0,254.8670639998818,2.0,1.0,phase_1,,,,,,,,,,,,,magenta,hexagon
103.0,2.0,2.0,0.0,2.0,2.0,297.6237870002478,2.0,1.0,phase_1,,,,,,,,,,,,,gray,triangle
0.0,3.0,0.0,0.0,2.0,2.0,341.8344520000573,2.0,1.0,phase_1,,,,,,,,,,,,,yellow,I
0.0,7.0,0.0,1.0,4.0,4.0,261.6051949999018,2.0,1.0,phase_1,,,,,,,,,,,,,green,square
216.0,7.0,3.0,1.0,1.0,1.0,217.0541730001787,2.0,1.0,phase_1,,,,,,,,,,,,,green,square
52.0,1.0,1.0,0.0,1.0,1.0,283.9424700000563,3.0,1.0,phase_1,,,,,,,,,,,,,orange,flipped triangle
180.0,7.0,3.0,1.0,2.0,2.0,248.4142340003927,3.0,1.0,phase_1,,,,,,,,,,,,,green,square
37.0,5.0,1.0,1.0,1.0,1.0,246.7222530003709,3.0,1.0,phase_1,,,,,,,,,,,,,white,diamond
199.0,3.0,3.0,0.0,2.0,2.0,276.2712580001789,3.0,1.0,phase_1,,,,,,,,,,,,,yellow,I
100.0,6.0,2.0,1.0,3.0,3.0,371.3385709997965,3.0,1.0,phase_1,,,,,,,,,,,,,cyan,cross
70.0,5.0,1.0,1.0,3.0,3.0,265.1527789998908,3.0,1.0,phase_1,,,,,,,,,,,,,white,diamond
65.0,5.0,1.0,1.0,2.0,2.0,235.4703749997497,3.0,1.0,phase_1,,,,,,,,,,,,,white,diamond
40.0,5.0,1.0,1.0,2.0,2.0,296.1302150001756,3.0,1.0,phase_1,,,,,,,,,,,,,white,diamond
0.0,3.0,0.0,0.0,1.0,1.0,272.3908259999916,3.0,1.0,phase_1,,,,,,,,,,,,,yellow,I
0.0,1.0,0.0,0.0,3.0,3.0,285.6308340001305,3.0,1.0,phase_1,,,,,,,,,,,,,orange,flipped triangle
56.0,1.0,1.0,0.0,4.0,4.0,271.3880849996712,3.0,1.0,phase_1,,,,,,,,,,,,,orange,flipped triangle
31.0,5.0,1.0,1.0,3.0,3.0,262.1169909998571,3.0,1.0,phase_1,,,,,,,,,,,,,white,diamond
101.0,2.0,2.0,0.0,1.0,1.0,237.5044850000449,3.0,1.0,phase_1,,,,,,,,,,,,,gray,triangle
100.0,2.0,2.0,0.0,2.0,2.0,257.9728550003892,3.0,1.0,phase_1,,,,,,,,,,,,,gray,triangle
88.0,2.0,2.0,0.0,4.0,4.0,287.8197529998942,3.0,1.0,phase_1,,,,,,,,,,,,,gray,triangle
27.0,5.0,1.0,1.0,3.0,3.0,262.4523869999393,3.0,2.0,phase_1,,,,,,,,,,,,,white,diamond
203.0,7.0,3.0,1.0,4.0,4.0,261.2201480001204,3.0,1.0,phase_1,,,,,,,,,,,,,green,square
0.0,4.0,0.0,0.0,3.0,3.0,320.2651189999415,3.0,1.0,phase_1,,,,,,,,,,,,,magenta,hexagon
25.0,1.0,1.0,0.0,1.0,1.0,240.153581999948,3.0,1.0,phase_1,,,,,,,,,,,,,orange,flipped triangle
404.0,8.0,4.0,1.0,3.0,3.0,260.00162299988,3.0,1.0,phase_1,,,,,,,,,,,,,blue,circle
188.0,7.0,3.0,1.0,4.0,4.0,294.9472599998444,3.0,1.0,phase_1,,,,,,,,,,,,,green,square
0.0,8.0,0.0,1.0,3.0,3.0,305.6249050000588,3.0,1.0,phase_1,,,,,,,,,,,,,blue,circle
0.0,4.0,0.0,0.0,3.0,3.0,280.8111220001592,3.0,1.0,phase_1,,,,,,,,,,,,,magenta,hexagon
420.0,8.0,4.0,1.0,1.0,1.0,262.4979739998707,3.0,1.0,phase_1,,,,,,,,,,,,,blue,circle
218.0,3.0,3.0,0.0,2.0,2.0,253.89583500009388,3.0,1.0,phase_1,,,,,,,,,,,,,yellow,I
218.0,7.0,3.0,1.0,1.0,1.0,290.8098760003668,3.0,1.0,phase_1,,,,,,,,,,,,,green,square
75.0,6.0,2.0,1.0,1.0,1.0,300.5614759999844,3.0,1.0,phase_1,,,,,,,,,,,,,cyan,cross
188.0,3.0,3.0,0.0,1.0,1.0,277.9387909999968,3.0,1.0,phase_1,,,,,,,,,,,,,yellow,I
207.0,3.0,3.0,0.0,1.0,1.0,267.7035259998774,3.0,1.0,phase_1,,,,,,,,,,,,,yellow,I
55.0,1.0,1.0,0.0,1.0,1.0,261.4759070002037,3.0,1.0,phase_1,,,,,,,,,,,,,orange,flipped triangle
212.0,3.0,3.0,0.0,3.0,3.0,287.4015820002569,3.0,1.0,phase_1,,,,,,,,,,,,,yellow,I
401.0,4.0,4.0,0.0,1.0,1.0,266.3173719997758,3.0,1.0,phase_1,,,,,,,,,,,,,magenta,hexagon
69.0,1.0,1.0,0.0,3.0,3.0,367.9401710001002,3.0,1.0,phase_1,,,,,,,,,,,,,orange,flipped triangle
0.0,1.0,0.0,0.0,1.0,1.0,240.3595719997611,3.0,1.0,phase_1,,,,,,,,,,,,,orange,flipped triangle
203.0,3.0,3.0,0.0,3.0,3.0,329.3061479998869,3.0,1.0,phase_1,,,,,,,,,,,,,yellow,I
0.0,1.0,0.0,0.0,1.0,1.0,281.5219899998737,3.0,1.0,phase_1,,,,,,,,,,,,,orange,flipped triangle
219.0,3.0,3.0,0.0,3.0,3.0,303.39815200022707,3.0,1.0,phase_1,,,,,,,,,,,,,yellow,I
387.0,4.0,4.0,0.0,4.0,4.0,282.9748889998882,3.0,1.0,phase_1,,,,,,,,,,,,,magenta,hexagon
177.0,3.0,3.0,0.0,4.0,4.0,302.8633620001528,3.0,1.0,phase_1,,,,,,,,,,,,,yellow,I
0.0,6.0,0.0,1.0,1.0,1.0,274.8670000000857,3.0,1.0,phase_1,,,,,,,,,,,,,cyan,cross
125.0,2.0,2.0,0.0,4.0,4.0,290.3008709999994,3.0,1.0,phase_1,,,,,,,,,,,,,gray,triangle
185.0,7.0,3.0,1.0,4.0,4.0,267.0025110001006,3.0,1.0,phase_1,,,,,,,,,,,,,green,square
400.0,8.0,4.0,1.0,4.0,4.0,302.710286999627,3.0,1.0,phase_1,,,,,,,,,,,,,blue,circle
39.0,5.0,1.0,1.0,2.0,2.0,278.1329889999142,3.0,1.0,phase_1,,,,,,,,,,,,,white,diamond
203.0,3.0,3.0,0.0,1.0,1.0,243.5205450001376,3.0,1.0,phase_1,,,,,,,,,,,,,yellow,I
65.0,1.0,1.0,0.0,2.0,2.0,287.794637999923,3.0,1.0,phase_1,,,,,,,,,,,,,orange,flipped triangle
418.0,8.0,4.0,1.0,3.0,3.0,287.4969370000144,3.0,1.0,phase_1,,,,,,,,,,,,,blue,circle
420.0,4.0,4.0,0.0,2.0,2.0,307.6232879998315,3.0,1.0,phase_1,,,,,,,,,,,,,magenta,hexagon
0.0,8.0,0.0,1.0,2.0,2.0,298.8102239996806,3.0,1.0,phase_1,,,,,,,,,,,,,blue,circle
116.0,6.0,2.0,1.0,4.0,4.0,263.4686400001556,3.0,1.0,phase_1,,,,,,,,,,,,,cyan,cross
411.0,4.0,4.0,0.0,2.0,2.0,228.5681809999005,3.0,1.0,phase_1,,,,,,,,,,,,,magenta,hexagon
180.0,7.0,3.0,1.0,4.0,4.0,237.8363969996826,3.0,1.0,phase_1,,,,,,,,,,,,,green,square
95.0,2.0,2.0,0.0,4.0,4.0,267.9812809997202,3.0,2.0,phase_1,,,,,,,,,,,,,gray,triangle
91.0,2.0,2.0,0.0,3.0,3.0,260.1890979999552,3.0,1.0,phase_1,,,,,,,,,,,,,gray,triangle
78.0,6.0,2.0,1.0,4.0,4.0,284.9933339998642,3.0,1.0,phase_1,,,,,,,,,,,,,cyan,cross
215.0,7.0,3.0,1.0,2.0,2.0,297.6889020001181,3.0,1.0,phase_1,,,,,,,,,,,,,green,square
0.0,1.0,0.0,0.0,3.0,3.0,279.2866690001574,3.0,1.0,phase_1,,,,,,,,,,,,,orange,flipped triangle
47.0,5.0,1.0,1.0,1.0,1.0,284.7631780000483,3.0,1.0,phase_1,,,,,,,,,,,,,white,diamond
111.0,2.0,2.0,0.0,1.0,1.0,293.0583910001587,3.0,2.0,phase_1,,,,,,,,,,,,,gray,triangle
0.0,3.0,0.0,0.0,2.0,2.0,304.9566330000743,3.0,1.0,phase_1,,,,,,,,,,,,,yellow,I
206.0,3.0,3.0,0.0,2.0,2.0,269.1638390001571,3.0,1.0,phase_1,,,,,,,,,,,,,yellow,I
0.0,8.0,0.0,1.0,1.0,1.0,278.8798450001195,3.0,1.0,phase_1,,,,,,,,,,,,,blue,circle
71.0,1.0,1.0,0.0,4.0,4.0,289.6002500001486,3.0,1.0,phase_1,,,,,,,,,,,,,orange,flipped triangle
222.0,3.0,3.0,0.0,4.0,4.0,300.0651719999041,3.0,1.0,phase_1,,,,,,,,,,,,,yellow,I
381.0,4.0,4.0,0.0,2.0,2.0,285.9511830001793,3.0,1.0,phase_1,,,,,,,,,,,,,magenta,hexagon
0.0,5.0,0.0,1.0,4.0,4.0,265.2438640002401,3.0,1.0,phase_1,,,,,,,,,,,,,white,diamond
101.0,2.0,2.0,0.0,2.0,2.0,294.179756000176,3.0,1.0,phase_1,,,,,,,,,,,,,gray,triangle
376.0,4.0,4.0,0.0,1.0,1.0,258.2166809997943,3.0,1.0,phase_1,,,,,,,,,,,,,magenta,hexagon
0.0,3.0,0.0,0.0,3.0,3.0,335.6300099999316,3.0,1.0,phase_1,,,,,,,,,,,,,yellow,I
0.0,4.0,0.0,0.0,3.0,3.0,297.9759200002263,3.0,1.0,phase_1,,,,,,,,,,,,,magenta,hexagon
0.0,2.0,0.0,0.0,3.0,3.0,296.0165979998237,3.0,1.0,phase_1,,,,,,,,,,,,,gray,triangle
378.0,8.0,4.0,1.0,1.0,1.0,309.3460549998781,3.0,1.0,phase_1,,,,,,,,,,,,,blue,circle
47.0,5.0,1.0,1.0,3.0,3.0,365.10039399991,3.0,1.0,phase_1,,,,,,,,,,,,,white,diamond
37.0,1.0,1.0,0.0,2.0,2.0,257.3801869998533,3.0,1.0,phase_1,,,,,,,,,,,,,orange,flipped triangle
115.0,6.0,2.0,1.0,3.0,3.0,275.8401559999583,3.0,1.0,phase_1,,,,,,,,,,,,,cyan,cross
25.0,5.0,1.0,1.0,4.0,4.0,258.2019870001204,3.0,1.0,phase_1,,,,,,,,,,,,,white,diamond
85.0,2.0,2.0,0.0,3.0,3.0,272.1925330001795,3.0,1.0,phase_1,,,,,,,,,,,,,gray,triangle
80.0,6.0,2.0,1.0,2.0,2.0,281.6610359996048,3.0,1.0,phase_1,,,,,,,,,,,,,cyan,cross
0.0,4.0,0.0,0.0,4.0,4.0,316.6267540000262,3.0,1.0,phase_1,,,,,,,,,,,,,magenta,hexagon
91.0,2.0,2.0,0.0,3.0,3.0,275.0005560001227,3.0,1.0,phase_1,,,,,,,,,,,,,gray,triangle
0.0,8.0,0.0,1.0,4.0,4.0,308.1081770001219,3.0,1.0,phase_1,,,,,,,,,,,,,blue,circle
0.0,2.0,0.0,0.0,4.0,4.0,310.6582069999604,3.0,1.0,phase_1,,,,,,,,,,,,,gray,triangle
78.0,2.0,2.0,0.0,2.0,2.0,298.9400799997384,3.0,1.0,phase_1,,,,,,,,,,,,,gray,triangle
68.0,5.0,1.0,1.0,4.0,4.0,283.340066999699,3.0,1.0,phase_1,,,,,,,,,,,,,white,diamond
192.0,7.0,3.0,1.0,2.0,2.0,257.8812149999976,3.0,1.0,phase_1,,,,,,,,,,,,,green,square
82.0,2.0,2.0,0.0,3.0,3.0,310.4566480001267,3.0,1.0,phase_1,,,,,,,,,,,,,gray,triangle
392.0,8.0,4.0,1.0,4.0,4.0,306.607385999996,3.0,1.0,phase_1,,,,,,,,,,,,,blue,circle
420.0,8.0,4.0,1.0,1.0,1.0,260.6457030001365,3.0,1.0,phase_1,,,,,,,,,,,,,blue,circle
189.0,7.0,3.0,1.0,1.0,1.0,265.9687739997025,3.0,1.0,phase_1,,,,,,,,,,,,,green,square
0.0,7.0,0.0,1.0,2.0,2.0,291.8182319999687,3.0,1.0,phase_1,,,,,,,,,,,,,green,square
86.0,2.0,2.0,0.0,3.0,3.0,299.8761529997864,3.0,1.0,phase_1,,,,,,,,,,,,,gray,triangle
30.0,1.0,1.0,0.0,3.0,3.0,283.0076610002834,3.0,1.0,phase_1,,,,,,,,,,,,,orange,flipped triangle
125.0,2.0,2.0,0.0,4.0,4.0,281.991287999972,3.0,1.0,phase_1,,,,,,,,,,,,,gray,triangle
395.0,4.0,4.0,0.0,4.0,4.0,306.4272679998794,3.0,1.0,phase_1,,,,,,,,,,,,,magenta,hexagon
190.0,7.0,3.0,1.0,1.0,1.0,306.5080629999102,3.0,1.0,phase_1,,,,,,,,,,,,,green,square
201.0,7.0,3.0,1.0,1.0,1.0,282.8044460002274,3.0,1.0,phase_1,,,,,,,,,,,,,green,square
201.0,7.0,3.0,1.0,3.0,3.0,296.1162569999942,3.0,1.0,phase_1,,,,,,,,,,,,,green,square
407.0,4.0,4.0,0.0,3.0,3.0,350.7382889997643,3.0,1.0,phase_1,,,,,,,,,,,,,magenta,hexagon
0.0,1.0,0.0,0.0,1.0,1.0,563.0779089997304,3.0,1.0,phase_1,,,,,,,,,,,,,orange,flipped triangle
220.0,7.0,3.0,1.0,3.0,3.0,316.3416429997596,3.0,1.0,phase_1,,,,,,,,,,,,,green,square
211.0,3.0,3.0,0.0,2.0,2.0,293.82077199989,4.0,1.0,phase_1,,,,,,,,,,,,,yellow,I
52.0,1.0,1.0,0.0,4.0,4.0,285.7157040002676,4.0,1.0,phase_1,,,,,,,,,,,,,orange,flipped triangle
177.0,7.0,3.0,1.0,3.0,3.0,251.43815199999148,4.0,1.0,phase_1,,,,,,,,,,,,,green,square
183.0,7.0,3.0,1.0,4.0,4.0,275.714674000028,4.0,1.0,phase_1,,,,,,,,,,,,,green,square
90.0,2.0,2.0,0.0,3.0,3.0,306.2070969999695,4.0,1.0,phase_1,,,,,,,,,,,,,gray,triangle
0.0,3.0,0.0,0.0,3.0,3.0,335.9353229998305,4.0,1.0,phase_1,,,,,,,,,,,,,yellow,I
407.0,8.0,4.0,1.0,4.0,4.0,285.1713260001816,4.0,1.0,phase_1,,,,,,,,,,,,,blue,circle
117.0,2.0,2.0,0.0,1.0,1.0,286.9823249998262,4.0,1.0,phase_1,,,,,,,,,,,,,gray,triangle
376.0,4.0,4.0,0.0,4.0,4.0,288.9727239999047,4.0,1.0,phase_1,,,,,,,,,,,,,magenta,hexagon
112.0,2.0,2.0,0.0,3.0,3.0,260.3730180003367,4.0,1.0,phase_1,,,,,,,,,,,,,gray,triangle
82.0,6.0,2.0,1.0,4.0,4.0,295.550983999874,4.0,1.0,phase_1,,,,,,,,,,,,,cyan,cross
198.0,7.0,3.0,1.0,1.0,1.0,258.1955520004158,4.0,1.0,phase_1,,,,,,,,,,,,,green,square
43.0,5.0,1.0,1.0,2.0,2.0,246.3101299999834,4.0,1.0,phase_1,,,,,,,,,,,,,white,diamond
222.0,7.0,3.0,1.0,2.0,2.0,286.0845660002269,4.0,1.0,phase_1,,,,,,,,,,,,,green,square
197.0,7.0,3.0,1.0,3.0,3.0,312.4159489998419,4.0,1.0,phase_1,,,,,,,,,,,,,green,square
0.0,8.0,0.0,1.0,2.0,2.0,298.7838179997197,4.0,1.0,phase_1,,,,,,,,,,,,,blue,circle
28.0,1.0,1.0,0.0,2.0,2.0,332.4118649998127,4.0,1.0,phase_1,,,,,,,,,,,,,orange,flipped triangle
201.0,3.0,3.0,0.0,2.0,2.0,318.2222100003855,4.0,1.0,phase_1,,,,,,,,,,,,,yellow,I
29.0,5.0,1.0,1.0,2.0,2.0,365.945333000127,4.0,1.0,phase_1,,,,,,,,,,,,,white,diamond
404.0,4.0,4.0,0.0,3.0,3.0,595.628730000044,4.0,1.0,phase_1,,,,,,,,,,,,,magenta,hexagon
0.0,7.0,0.0,1.0,4.0,4.0,340.3799970001273,4.0,1.0,phase_1,,,,,,,,,,,,,green,square
404.0,8.0,4.0,1.0,1.0,1.0,268.1846659997973,4.0,1.0,phase_1,,,,,,,,,,,,,blue,circle
411.0,8.0,4.0,1.0,3.0,3.0,304.4160940003166,4.0,1.0,phase_1,,,,,,,,,,,,,blue,circle
204.0,7.0,3.0,1.0,2.0,2.0,284.1402929998367,4.0,1.0,phase_1,,,,,,,,,,,,,green,square
220.0,3.0,3.0,0.0,1.0,1.0,314.7533960000146,4.0,1.0,phase_1,,,,,,,,,,,,,yellow,I
107.0,6.0,2.0,1.0,3.0,3.0,326.8182100000558,4.0,1.0,phase_1,,,,,,,,,,,,,cyan,cross
0.0,6.0,0.0,1.0,4.0,4.0,350.7219170001008,4.0,1.0,phase_1,,,,,,,,,,,,,cyan,cross
85.0,2.0,2.0,0.0,4.0,4.0,311.500247999902,4.0,1.0,phase_1,,,,,,,,,,,,,gray,triangle
27.0,1.0,1.0,0.0,4.0,4.0,281.053687000167,4.0,1.0,phase_1,,,,,,,,,,,,,orange,flipped triangle
116.0,2.0,2.0,0.0,2.0,2.0,290.7666689998223,4.0,1.0,phase_1,,,,,,,,,,,,,gray,triangle
48.0,5.0,1.0,1.0,1.0,1.0,248.0472479996933,4.0,1.0,phase_1,,,,,,,,,,,,,white,diamond
112.0,6.0,2.0,1.0,2.0,2.0,295.9928490004131,4.0,1.0,phase_1,,,,,,,,,,,,,cyan,cross
404.0,4.0,4.0,0.0,2.0,2.0,312.1389749999252,4.0,1.0,phase_1,,,,,,,,,,,,,magenta,hexagon
121.0,2.0,2.0,0.0,1.0,1.0,277.6198490000752,4.0,1.0,phase_1,,,,,,,,,,,,,gray,triangle
420.0,4.0,4.0,0.0,3.0,3.0,298.5908709997602,4.0,1.0,phase_1,,,,,,,,,,,,,magenta,hexagon
0.0,8.0,0.0,1.0,1.0,1.0,314.2106529999182,4.0,1.0,phase_1,,,,,,,,,,,,,blue,circle
190.0,3.0,3.0,0.0,3.0,3.0,284.5025990000067,4.0,1.0,phase_1,,,,,,,,,,,,,yellow,I
64.0,5.0,1.0,1.0,1.0,1.0,266.7556450001029,4.0,1.0,phase_1,,,,,,,,,,,,,white,diamond
0.0,1.0,0.0,0.0,3.0,3.0,316.4505919999101,4.0,1.0,phase_1,,,,,,,,,,,,,orange,flipped triangle
387.0,4.0,4.0,0.0,4.0,4.0,298.5971120001522,4.0,1.0,phase_1,,,,,,,,,,,,,magenta,hexagon
394.0,4.0,4.0,0.0,2.0,2.0,265.6041730001561,4.0,1.0,phase_1,,,,,,,,,,,,,magenta,hexagon
421.0,4.0,4.0,0.0,3.0,3.0,296.0709879998831,4.0,1.0,phase_1,,,,,,,,,,,,,magenta,hexagon
395.0,8.0,4.0,1.0,3.0,3.0,323.9199499998904,4.0,1.0,phase_1,,,,,,,,,,,,,blue,circle
116.0,2.0,2.0,0.0,1.0,1.0,249.8619659995711,4.0,1.0,phase_1,,,,,,,,,,,,,gray,triangle
209.0,3.0,3.0,0.0,3.0,3.0,271.3601519999429,4.0,1.0,phase_1,,,,,,,,,,,,,yellow,I
0.0,7.0,0.0,1.0,1.0,1.0,269.6448520000558,4.0,1.0,phase_1,,,,,,,,,,,,,green,square
0.0,3.0,0.0,0.0,4.0,4.0,253.49413499998258,4.0,1.0,phase_1,,,,,,,,,,,,,yellow,I
381.0,4.0,4.0,0.0,4.0,4.0,290.9382190000542,4.0,1.0,phase_1,,,,,,,,,,,,,magenta,hexagon
410.0,8.0,4.0,1.0,2.0,2.0,337.6174720001472,4.0,1.0,phase_1,,,,,,,,,,,,,blue,circle
68.0,1.0,1.0,0.0,2.0,2.0,291.8914199999562,4.0,1.0,phase_1,,,,,,,,,,,,,orange,flipped triangle
219.0,7.0,3.0,1.0,3.0,3.0,272.5499980001586,4.0,1.0,phase_1,,,,,,,,,,,,,green,square
376.0,8.0,4.0,1.0,4.0,4.0,248.5248610000781,4.0,1.0,phase_1,,,,,,,,,,,,,blue,circle
69.0,5.0,1.0,1.0,1.0,1.0,249.2065139999795,4.0,1.0,phase_1,,,,,,,,,,,,,white,diamond
0.0,4.0,0.0,0.0,4.0,4.0,399.4121979999363,4.0,1.0,phase_1,,,,,,,,,,,,,magenta,hexagon
0.0,8.0,0.0,1.0,1.0,1.0,271.9183809999776,4.0,1.0,phase_1,,,,,,,,,,,,,blue,circle
85.0,6.0,2.0,1.0,3.0,3.0,263.4232380000867,4.0,1.0,phase_1,,,,,,,,,,,,,cyan,cross
82.0,2.0,2.0,0.0,3.0,3.0,363.5101780000696,4.0,1.0,phase_1,,,,,,,,,,,,,gray,triangle
93.0,6.0,2.0,1.0,1.0,1.0,312.3547760001202,4.0,1.0,phase_1,,,,,,,,,,,,,cyan,cross
176.0,7.0,3.0,1.0,1.0,1.0,288.4273740000935,4.0,1.0,phase_1,,,,,,,,,,,,,green,square
122.0,2.0,2.0,0.0,1.0,1.0,284.0078839999478,4.0,1.0,phase_1,,,,,,,,,,,,,gray,triangle
405.0,8.0,4.0,1.0,4.0,4.0,250.5202990000725,4.0,1.0,phase_1,,,,,,,,,,,,,blue,circle
0.0,6.0,0.0,1.0,1.0,1.0,276.8396370001937,4.0,1.0,phase_1,,,,,,,,,,,,,cyan,cross
376.0,8.0,4.0,1.0,3.0,3.0,307.4482740003077,4.0,1.0,phase_1,,,,,,,,,,,,,blue,circle
217.0,7.0,3.0,1.0,3.0,3.0,272.5787740000669,4.0,1.0,phase_1,,,,,,,,,,,,,green,square
198.0,3.0,3.0,0.0,2.0,2.0,307.3900770000364,4.0,1.0,phase_1,,,,,,,,,,,,,yellow,I
55.0,5.0,1.0,1.0,1.0,1.0,302.7444169997579,4.0,1.0,phase_1,,,,,,,,,,,,,white,diamond
0.0,6.0,0.0,1.0,3.0,3.0,322.1678169998085,4.0,1.0,phase_1,,,,,,,,,,,,,cyan,cross
191.0,3.0,3.0,0.0,3.0,3.0,337.8341129996443,4.0,1.0,phase_1,,,,,,,,,,,,,yellow,I
0.0,3.0,0.0,0.0,4.0,4.0,274.4231960000434,4.0,1.0,phase_1,,,,,,,,,,,,,yellow,I
185.0,3.0,3.0,0.0,3.0,3.0,298.0974380002408,4.0,1.0,phase_1,,,,,,,,,,,,,yellow,I
383.0,8.0,4.0,1.0,2.0,2.0,398.1328240001858,4.0,1.0,phase_1,,,,,,,,,,,,,blue,circle
113.0,6.0,2.0,1.0,4.0,4.0,328.1905949997963,4.0,1.0,phase_1,,,,,,,,,,,,,cyan,cross
0.0,8.0,0.0,1.0,2.0,2.0,312.4217170002339,4.0,1.0,phase_1,,,,,,,,,,,,,blue,circle
393.0,4.0,4.0,0.0,1.0,1.0,274.0924529998665,4.0,1.0,phase_1,,,,,,,,,,,,,magenta,hexagon
74.0,1.0,1.0,0.0,2.0,2.0,265.9064300000864,4.0,1.0,phase_1,,,,,,,,,,,,,orange,flipped triangle
400.0,4.0,4.0,0.0,3.0,3.0,294.7965780003869,4.0,1.0,phase_1,,,,,,,,,,,,,magenta,hexagon
47.0,1.0,1.0,0.0,1.0,1.0,309.4025519999377,4.0,1.0,phase_1,,,,,,,,,,,,,orange,flipped triangle
101.0,6.0,2.0,1.0,1.0,1.0,276.6264619999674,4.0,1.0,phase_1,,,,,,,,,,,,,cyan,cross
0.0,2.0,0.0,0.0,4.0,4.0,280.4184480000913,4.0,1.0,phase_1,,,,,,,,,,,,,gray,triangle
392.0,4.0,4.0,0.0,1.0,1.0,238.5822229998666,4.0,1.0,phase_1,,,,,,,,,,,,,magenta,hexagon
0.0,3.0,0.0,0.0,3.0,3.0,280.5741789998137,4.0,1.0,phase_1,,,,,,,,,,,,,yellow,I
0.0,6.0,0.0,1.0,3.0,3.0,280.8300849997067,4.0,1.0,phase_1,,,,,,,,,,,,,cyan,cross
0.0,5.0,0.0,1.0,4.0,4.0,265.1902760003395,4.0,1.0,phase_1,,,,,,,,,,,,,white,diamond
53.0,1.0,1.0,0.0,3.0,3.0,280.5705989999296,4.0,1.0,phase_1,,,,,,,,,,,,,orange,flipped triangle
69.0,5.0,1.0,1.0,4.0,4.0,285.8460459997332,4.0,1.0,phase_1,,,,,,,,,,,,,white,diamond
410.0,4.0,4.0,0.0,4.0,4.0,307.3718150003515,4.0,1.0,phase_1,,,,,,,,,,,,,magenta,hexagon
394.0,8.0,4.0,1.0,2.0,2.0,274.5016549997672,4.0,1.0,phase_1,,,,,,,,,,,,,blue,circle
28.0,5.0,1.0,1.0,2.0,2.0,280.5959950001124,4.0,1.0,phase_1,,,,,,,,,,,,,white,diamond
199.0,7.0,3.0,1.0,4.0,4.0,232.3186849998819,4.0,1.0,phase_1,,,,,,,,,,,,,green,square
410.0,8.0,4.0,1.0,1.0,1.0,253.3711799997036,4.0,1.0,phase_1,,,,,,,,,,,,,blue,circle
203.0,7.0,3.0,1.0,3.0,3.0,281.0132680001516,4.0,1.0,phase_1,,,,,,,,,,,,,green,square
206.0,7.0,3.0,1.0,2.0,2.0,458.6643930001628,4.0,1.0,phase_1,,,,,,,,,,,,,green,square
69.0,1.0,1.0,0.0,1.0,1.0,283.9989730000525,4.0,1.0,phase_1,,,,,,,,,,,,,orange,flipped triangle
209.0,7.0,3.0,1.0,4.0,4.0,336.0101420003047,4.0,1.0,phase_1,,,,,,,,,,,,,green,square
196.0,3.0,3.0,0.0,4.0,4.0,265.9511609999754,4.0,2.0,phase_1,,,,,,,,,,,,,yellow,I
36.0,5.0,1.0,1.0,3.0,3.0,295.8432230002472,4.0,1.0,phase_1,,,,,,,,,,,,,white,diamond
191.0,7.0,3.0,1.0,3.0,3.0,352.9927339995993,4.0,1.0,phase_1,,,,,,,,,,,,,green,square
70.0,1.0,1.0,0.0,1.0,1.0,275.679423999918,4.0,1.0,phase_1,,,,,,,,,,,,,orange,flipped triangle
78.0,6.0,2.0,1.0,1.0,1.0,264.4921040000554,4.0,1.0,phase_1,,,,,,,,,,,,,cyan,cross
0.0,8.0,0.0,1.0,4.0,4.0,282.338917999823,4.0,1.0,phase_1,,,,,,,,,,,,,blue,circle
0.0,3.0,3.0,0.0,6.0,6.0,495.5734379996102,1.0,1.0,phase_2,go,250.0,250.0,1.0,,,,,,,,,yellow,I
0.0,3.0,3.0,0.0,5.0,5.0,378.9202680000016,1.0,1.0,phase_2,go,250.0,250.0,1.0,,,,,,,,,yellow,I
0.0,6.0,2.0,1.0,6.0,6.0,493.2228259999647,1.0,1.0,phase_2,stop,250.0,250.0,3.0,,,,,,,,,cyan,cross
0.0,7.0,3.0,1.0,6.0,0.0,0.0,1.0,1.0,phase_2,stop,250.0,200.0,4.0,,,,,,,,,green,square
0.0,2.0,2.0,0.0,6.0,6.0,510.5920350001725,1.0,1.0,phase_2,go,250.0,250.0,1.0,,,,,,,,,gray,triangle
0.0,3.0,3.0,0.0,5.0,5.0,469.2727399997238,1.0,1.0,phase_2,go,250.0,250.0,1.0,,,,,,,,,yellow,I
0.0,6.0,2.0,1.0,5.0,5.0,488.7588219999088,1.0,1.0,phase_2,stop,250.0,250.0,3.0,,,,,,,,,cyan,cross
0.0,5.0,1.0,1.0,5.0,0.0,0.0,1.0,1.0,phase_2,stop,200.0,250.0,4.0,,,,,,,,,white,diamond
0.0,5.0,1.0,1.0,5.0,0.0,0.0,1.0,1.0,phase_2,stop,250.0,250.0,4.0,,,,,,,,,white,diamond
0.0,2.0,2.0,0.0,5.0,5.0,643.4744059997684,1.0,1.0,phase_2,go,300.0,250.0,1.0,,,,,,,,,gray,triangle
0.0,6.0,2.0,1.0,5.0,0.0,0.0,1.0,1.0,phase_2,stop,300.0,250.0,4.0,,,,,,,,,cyan,cross
0.0,8.0,4.0,1.0,5.0,0.0,0.0,1.0,1.0,phase_2,stop,350.0,250.0,4.0,,,,,,,,,blue,circle
0.0,2.0,2.0,0.0,5.0,5.0,677.1557889996984,1.0,1.0,phase_2,go,400.0,250.0,1.0,,,,,,,,,gray,triangle
0.0,5.0,1.0,1.0,6.0,0.0,0.0,1.0,1.0,phase_2,stop,400.0,250.0,4.0,,,,,,,,,white,diamond
0.0,5.0,1.0,1.0,5.0,5.0,492.9904189993976,1.0,1.0,phase_2,stop,400.0,300.0,3.0,,,,,,,,,white,diamond
0.0,1.0,1.0,0.0,6.0,6.0,767.6281750000271,1.0,1.0,phase_2,go,350.0,300.0,1.0,,,,,,,,,orange,flipped triangle
0.0,3.0,3.0,0.0,5.0,5.0,697.8045780006141,1.0,1.0,phase_2,go,350.0,300.0,1.0,,,,,,,,,yellow,I
0.0,1.0,1.0,0.0,6.0,6.0,698.5829519999243,1.0,1.0,phase_2,go,350.0,300.0,1.0,,,,,,,,,orange,flipped triangle
0.0,4.0,4.0,0.0,5.0,5.0,719.9120780005615,1.0,1.0,phase_2,go,350.0,300.0,1.0,,,,,,,,,magenta,hexagon
0.0,8.0,4.0,1.0,5.0,0.0,0.0,1.0,1.0,phase_2,stop,350.0,300.0,4.0,,,,,,,,,blue,circle
0.0,5.0,1.0,1.0,5.0,5.0,1049.3959149998773,1.0,1.0,phase_2,go,400.0,300.0,1.0,,,,,,,,,white,diamond
0.0,4.0,4.0,0.0,6.0,6.0,799.5681920001516,1.0,1.0,phase_2,go,400.0,300.0,1.0,,,,,,,,,magenta,hexagon
0.0,6.0,2.0,1.0,5.0,5.0,723.9810829996713,1.0,1.0,phase_2,stop,400.0,300.0,3.0,,,,,,,,,cyan,cross
0.0,1.0,1.0,0.0,5.0,5.0,992.728535000424,1.0,1.0,phase_2,go,350.0,300.0,1.0,,,,,,,,,orange,flipped triangle
0.0,3.0,3.0,0.0,5.0,5.0,1082.4398799995834,1.0,1.0,phase_2,go,350.0,300.0,1.0,,,,,,,,,yellow,I
0.0,6.0,2.0,1.0,6.0,0.0,0.0,1.0,1.0,phase_2,stop,350.0,300.0,4.0,,,,,,,,,cyan,cross
0.0,6.0,2.0,1.0,5.0,0.0,0.0,1.0,1.0,phase_2,stop,350.0,350.0,4.0,,,,,,,,,cyan,cross
0.0,7.0,3.0,1.0,6.0,6.0,667.5157469999249,1.0,1.0,phase_2,go,400.0,350.0,1.0,,,,,,,,,green,square
0.0,3.0,3.0,0.0,6.0,6.0,867.525974000273,1.0,1.0,phase_2,go,400.0,350.0,1.0,,,,,,,,,yellow,I
0.0,1.0,1.0,0.0,6.0,6.0,871.2954860002355,1.0,1.0,phase_2,go,400.0,350.0,1.0,,,,,,,,,orange,flipped triangle
0.0,8.0,4.0,1.0,6.0,0.0,0.0,1.0,1.0,phase_2,stop,400.0,350.0,4.0,,,,,,,,,blue,circle
0.0,2.0,2.0,0.0,6.0,6.0,932.2719729998424,1.0,1.0,phase_2,go,400.0,400.0,1.0,,,,,,,,,gray,triangle
0.0,5.0,1.0,1.0,5.0,5.0,1071.1665230001015,1.0,1.0,phase_2,go,400.0,400.0,1.0,,,,,,,,,white,diamond
0.0,6.0,2.0,1.0,6.0,6.0,855.3768829997352,1.0,1.0,phase_2,go,400.0,400.0,1.0,,,,,,,,,cyan,cross
0.0,7.0,3.0,1.0,6.0,0.0,0.0,1.0,1.0,phase_2,stop,400.0,400.0,4.0,,,,,,,,,green,square
0.0,2.0,2.0,0.0,6.0,6.0,650.5476900001668,1.0,1.0,phase_2,go,400.0,450.0,1.0,,,,,,,,,gray,triangle
0.0,3.0,3.0,0.0,6.0,6.0,745.2898139999888,2.0,1.0,phase_2,go,400.0,450.0,1.0,,,,,,,,,yellow,I
0.0,1.0,1.0,0.0,6.0,6.0,513.9032460001545,2.0,1.0,phase_2,go,400.0,450.0,1.0,,,,,,,,,orange,flipped triangle
0.0,1.0,1.0,0.0,5.0,5.0,457.2719019997748,2.0,1.0,phase_2,go,400.0,450.0,1.0,,,,,,,,,orange,flipped triangle
0.0,4.0,4.0,0.0,5.0,5.0,561.3408549997985,2.0,1.0,phase_2,go,400.0,450.0,1.0,,,,,,,,,magenta,hexagon
0.0,7.0,3.0,1.0,6.0,6.0,636.9523769999432,2.0,1.0,phase_2,stop,400.0,450.0,3.0,,,,,,,,,green,square
0.0,2.0,2.0,0.0,5.0,5.0,677.6196729997537,2.0,1.0,phase_2,go,400.0,400.0,1.0,,,,,,,,,gray,triangle
0.0,3.0,3.0,0.0,6.0,6.0,743.1680999998207,2.0,1.0,phase_2,go,400.0,400.0,1.0,,,,,,,,,yellow,I
0.0,5.0,1.0,1.0,6.0,0.0,0.0,2.0,1.0,phase_2,stop,400.0,400.0,4.0,,,,,,,,,white,diamond
0.0,2.0,2.0,0.0,6.0,6.0,588.4434390000024,2.0,1.0,phase_2,go,400.0,450.0,1.0,,,,,,,,,gray,triangle
0.0,6.0,2.0,1.0,5.0,0.0,0.0,2.0,1.0,phase_2,stop,400.0,450.0,4.0,,,,,,,,,cyan,cross
0.0,7.0,3.0,1.0,6.0,0.0,0.0,2.0,1.0,phase_2,stop,450.0,450.0,4.0,,,,,,,,,green,square
0.0,4.0,4.0,0.0,6.0,6.0,779.0522900004362,2.0,1.0,phase_2,go,450.0,500.0,1.0,,,,,,,,,magenta,hexagon
0.0,3.0,3.0,0.0,6.0,6.0,610.0052540004981,2.0,1.0,phase_2,go,450.0,500.0,1.0,,,,,,,,,yellow,I
0.0,4.0,4.0,0.0,5.0,5.0,856.317110999953,2.0,1.0,phase_2,go,450.0,500.0,1.0,,,,,,,,,magenta,hexagon
0.0,2.0,2.0,0.0,5.0,5.0,555.1048420002189,2.0,1.0,phase_2,go,450.0,500.0,1.0,,,,,,,,,gray,triangle
0.0,5.0,1.0,1.0,5.0,5.0,1017.0274669999344,2.0,1.0,phase_2,go,450.0,500.0,1.0,,,,,,,,,white,diamond
0.0,4.0,4.0,0.0,5.0,5.0,725.078145000225,2.0,1.0,phase_2,go,450.0,500.0,1.0,,,,,,,,,magenta,hexagon
0.0,1.0,1.0,0.0,5.0,5.0,845.2284229997531,2.0,1.0,phase_2,go,450.0,500.0,1.0,,,,,,,,,orange,flipped triangle
0.0,8.0,4.0,1.0,5.0,0.0,0.0,2.0,1.0,phase_2,stop,450.0,500.0,4.0,,,,,,,,,blue,circle
0.0,6.0,2.0,1.0,6.0,6.0,856.8315159991471,2.0,1.0,phase_2,go,500.0,500.0,1.0,,,,,,,,,cyan,cross
0.0,5.0,1.0,1.0,6.0,6.0,676.4275699997597,2.0,1.0,phase_2,stop,500.0,500.0,3.0,,,,,,,,,white,diamond
0.0,6.0,2.0,1.0,5.0,5.0,721.7602680002528,2.0,1.0,phase_2,stop,500.0,450.0,3.0,,,,,,,,,cyan,cross
0.0,8.0,4.0,1.0,6.0,6.0,924.3979969996872,2.0,1.0,phase_2,go,450.0,450.0,1.0,,,,,,,,,blue,circle
0.0,2.0,2.0,0.0,6.0,6.0,608.7040649999835,2.0,1.0,phase_2,go,450.0,450.0,1.0,,,,,,,,,gray,triangle
0.0,4.0,4.0,0.0,5.0,5.0,910.3126079999128,2.0,1.0,phase_2,go,450.0,450.0,1.0,,,,,,,,,magenta,hexagon
0.0,7.0,3.0,1.0,6.0,0.0,0.0,2.0,1.0,phase_2,stop,450.0,450.0,4.0,,,,,,,,,green,square
0.0,1.0,1.0,0.0,5.0,5.0,816.5302589995918,2.0,1.0,phase_2,go,450.0,500.0,1.0,,,,,,,,,orange,flipped triangle
0.0,6.0,2.0,1.0,5.0,0.0,0.0,2.0,1.0,phase_2,stop,450.0,500.0,4.0,,,,,,,,,cyan,cross
0.0,2.0,2.0,0.0,5.0,5.0,503.994122000222,2.0,1.0,phase_2,go,500.0,500.0,1.0,,,,,,,,,gray,triangle
0.0,5.0,1.0,1.0,6.0,6.0,724.750012000186,2.0,1.0,phase_2,stop,500.0,500.0,3.0,,,,,,,,,white,diamond
0.0,4.0,4.0,0.0,6.0,6.0,1054.3187209996177,2.0,1.0,phase_2,go,500.0,450.0,1.0,,,,,,,,,magenta,hexagon
0.0,5.0,1.0,1.0,6.0,0.0,0.0,2.0,1.0,phase_2,stop,500.0,450.0,4.0,,,,,,,,,white,diamond
0.0,4.0,4.0,0.0,5.0,5.0,571.667021000394,2.0,1.0,phase_2,go,500.0,500.0,1.0,,,,,,,,,magenta,hexagon
0.0,7.0,3.0,1.0,5.0,5.0,738.8185909994718,2.0,1.0,phase_2,go,500.0,500.0,1.0,,,,,,,,,green,square
0.0,1.0,1.0,0.0,5.0,5.0,605.3217980006593,2.0,1.0,phase_2,go,500.0,500.0,1.0,,,,,,,,,orange,flipped triangle
0.0,7.0,3.0,1.0,6.0,0.0,0.0,2.0,1.0,phase_2,stop,500.0,500.0,4.0,,,,,,,,,green,square
0.0,1.0,1.0,0.0,6.0,6.0,838.1755609998436,3.0,1.0,phase_2,go,500.0,550.0,1.0,,,,,,,,,orange,flipped triangle
0.0,3.0,3.0,0.0,5.0,5.0,469.241592999424,3.0,1.0,phase_2,go,500.0,550.0,1.0,,,,,,,,,yellow,I
0.0,6.0,2.0,1.0,6.0,6.0,294.0911530004086,3.0,1.0,phase_2,stop,500.0,550.0,3.0,,,,,,,,,cyan,cross
0.0,3.0,3.0,0.0,6.0,6.0,802.9465390000041,3.0,1.0,phase_2,go,500.0,500.0,1.0,,,,,,,,,yellow,I
0.0,1.0,1.0,0.0,5.0,5.0,469.9711149996801,3.0,1.0,phase_2,go,500.0,500.0,1.0,,,,,,,,,orange,flipped triangle
0.0,1.0,1.0,0.0,5.0,5.0,392.8662349999285,3.0,1.0,phase_2,go,500.0,500.0,1.0,,,,,,,,,orange,flipped triangle
0.0,7.0,3.0,1.0,5.0,0.0,0.0,3.0,1.0,phase_2,stop,500.0,500.0,4.0,,,,,,,,,green,square
0.0,7.0,3.0,1.0,5.0,5.0,722.778907999782,3.0,1.0,phase_2,stop,550.0,500.0,3.0,,,,,,,,,green,square
0.0,5.0,1.0,1.0,5.0,0.0,0.0,3.0,1.0,phase_2,stop,500.0,500.0,4.0,,,,,,,,,white,diamond
0.0,3.0,3.0,0.0,6.0,6.0,624.9919069996395,3.0,1.0,phase_2,go,550.0,500.0,1.0,,,,,,,,,yellow,I
0.0,3.0,3.0,0.0,6.0,6.0,504.71702800041385,3.0,1.0,phase_2,go,550.0,500.0,1.0,,,,,,,,,yellow,I
0.0,2.0,2.0,0.0,5.0,5.0,624.0212969996719,3.0,1.0,phase_2,go,550.0,500.0,1.0,,,,,,,,,gray,triangle
0.0,8.0,4.0,1.0,5.0,5.0,763.081735999549,3.0,1.0,phase_2,stop,550.0,500.0,3.0,,,,,,,,,blue,circle
0.0,7.0,3.0,1.0,6.0,0.0,0.0,3.0,1.0,phase_2,stop,500.0,500.0,4.0,,,,,,,,,green,square
0.0,5.0,1.0,1.0,6.0,6.0,979.2035520003992,3.0,1.0,phase_2,go,500.0,550.0,1.0,,,,,,,,,white,diamond
0.0,4.0,4.0,0.0,6.0,6.0,948.0816029999914,3.0,1.0,phase_2,go,500.0,550.0,1.0,,,,,,,,,magenta,hexagon
0.0,2.0,2.0,0.0,6.0,6.0,514.5726709997689,3.0,1.0,phase_2,go,500.0,550.0,1.0,,,,,,,,,gray,triangle
0.0,1.0,1.0,0.0,5.0,5.0,412.050765999993,3.0,1.0,phase_2,go,500.0,550.0,1.0,,,,,,,,,orange,flipped triangle
0.0,3.0,3.0,0.0,5.0,5.0,503.4826700002668,3.0,1.0,phase_2,go,500.0,550.0,1.0,,,,,,,,,yellow,I
0.0,2.0,2.0,0.0,5.0,5.0,479.4700299999022,3.0,1.0,phase_2,go,500.0,550.0,1.0,,,,,,,,,gray,triangle
0.0,2.0,2.0,0.0,6.0,6.0,471.492390000094,3.0,1.0,phase_2,go,500.0,550.0,1.0,,,,,,,,,gray,triangle
0.0,6.0,2.0,1.0,5.0,0.0,0.0,3.0,1.0,phase_2,stop,500.0,550.0,4.0,,,,,,,,,cyan,cross
0.0,6.0,2.0,1.0,6.0,6.0,753.302142999928,3.0,1.0,phase_2,stop,550.0,550.0,3.0,,,,,,,,,cyan,cross
0.0,5.0,1.0,1.0,5.0,5.0,942.1363609999388,3.0,1.0,phase_2,go,550.0,500.0,1.0,,,,,,,,,white,diamond
0.0,8.0,4.0,1.0,6.0,6.0,929.724967000766,3.0,1.0,phase_2,go,550.0,500.0,1.0,,,,,,,,,blue,circle
0.0,4.0,4.0,0.0,5.0,5.0,717.2401839998201,3.0,1.0,phase_2,go,550.0,500.0,1.0,,,,,,,,,magenta,hexagon
0.0,4.0,4.0,0.0,6.0,6.0,595.8017789998848,3.0,1.0,phase_2,go,550.0,500.0,1.0,,,,,,,,,magenta,hexagon
0.0,4.0,4.0,0.0,6.0,6.0,485.4732170006173,3.0,1.0,phase_2,go,550.0,500.0,1.0,,,,,,,,,magenta,hexagon
0.0,1.0,1.0,0.0,5.0,5.0,474.2700850001711,3.0,1.0,phase_2,go,550.0,500.0,1.0,,,,,,,,,orange,flipped triangle
0.0,7.0,3.0,1.0,6.0,0.0,0.0,3.0,1.0,phase_2,stop,550.0,500.0,4.0,,,,,,,,,green,square
0.0,5.0,1.0,1.0,5.0,5.0,745.9489920001943,3.0,1.0,phase_2,stop,550.0,550.0,3.0,,,,,,,,,white,diamond
0.0,3.0,3.0,0.0,5.0,5.0,612.4058850000438,3.0,1.0,phase_2,go,500.0,550.0,1.0,,,,,,,,,yellow,I
0.0,2.0,2.0,0.0,5.0,5.0,574.1824220003764,3.0,1.0,phase_2,go,500.0,550.0,1.0,,,,,,,,,gray,triangle
0.0,4.0,4.0,0.0,5.0,5.0,721.7258440005025,3.0,1.0,phase_2,go,500.0,550.0,1.0,,,,,,,,,magenta,hexagon
0.0,1.0,1.0,0.0,5.0,5.0,572.6653870005975,3.0,1.0,phase_2,go,500.0,550.0,1.0,,,,,,,,,orange,flipped triangle
0.0,7.0,3.0,1.0,5.0,0.0,0.0,3.0,1.0,phase_2,stop,500.0,550.0,4.0,,,,,,,,,green,square
0.0,2.0,2.0,0.0,5.0,5.0,993.3645319997596,4.0,1.0,phase_2,go,550.0,550.0,1.0,,,,,,,,,gray,triangle
0.0,7.0,3.0,1.0,5.0,0.0,0.0,4.0,1.0,phase_2,stop,550.0,550.0,4.0,,,,,,,,,green,square
0.0,3.0,3.0,0.0,5.0,5.0,578.8118050004414,4.0,1.0,phase_2,go,600.0,550.0,1.0,,,,,,,,,yellow,I
0.0,2.0,2.0,0.0,6.0,6.0,468.2571789999201,4.0,1.0,phase_2,go,600.0,550.0,1.0,,,,,,,,,gray,triangle
0.0,4.0,4.0,0.0,6.0,6.0,686.6575929998362,4.0,1.0,phase_2,go,600.0,550.0,1.0,,,,,,,,,magenta,hexagon
0.0,2.0,2.0,0.0,6.0,6.0,462.0019479998518,4.0,1.0,phase_2,go,600.0,550.0,1.0,,,,,,,,,gray,triangle
0.0,3.0,3.0,0.0,6.0,6.0,469.8950109996076,4.0,1.0,phase_2,go,600.0,550.0,1.0,,,,,,,,,yellow,I
0.0,6.0,2.0,1.0,6.0,0.0,0.0,4.0,1.0,phase_2,stop,600.0,550.0,4.0,,,,,,,,,cyan,cross
0.0,8.0,4.0,1.0,5.0,5.0,612.0841490001112,4.0,1.0,phase_2,go,600.0,600.0,1.0,,,,,,,,,blue,circle
0.0,1.0,1.0,0.0,5.0,5.0,448.2240010001987,4.0,1.0,phase_2,go,600.0,600.0,1.0,,,,,,,,,orange,flipped triangle
0.0,8.0,4.0,1.0,5.0,5.0,574.0654840001298,4.0,1.0,phase_2,stop,600.0,600.0,3.0,,,,,,,,,blue,circle
0.0,8.0,4.0,1.0,6.0,0.0,0.0,4.0,1.0,phase_2,stop,550.0,600.0,4.0,,,,,,,,,blue,circle
0.0,1.0,1.0,0.0,6.0,6.0,899.8520509994705,4.0,1.0,phase_2,go,550.0,650.0,1.0,,,,,,,,,orange,flipped triangle
0.0,8.0,4.0,1.0,6.0,0.0,0.0,4.0,1.0,phase_2,stop,550.0,650.0,4.0,,,,,,,,,blue,circle
0.0,1.0,1.0,0.0,6.0,6.0,807.2241630006829,4.0,1.0,phase_2,go,550.0,700.0,1.0,,,,,,,,,orange,flipped triangle
0.0,2.0,2.0,0.0,6.0,6.0,521.7382699993323,4.0,1.0,phase_2,go,550.0,700.0,1.0,,,,,,,,,gray,triangle
0.0,7.0,3.0,1.0,5.0,0.0,0.0,4.0,1.0,phase_2,stop,550.0,700.0,4.0,,,,,,,,,green,square
0.0,1.0,1.0,0.0,5.0,5.0,651.206712000203,4.0,1.0,phase_2,go,600.0,700.0,1.0,,,,,,,,,orange,flipped triangle
0.0,6.0,2.0,1.0,5.0,0.0,0.0,4.0,1.0,phase_2,stop,600.0,700.0,4.0,,,,,,,,,cyan,cross
0.0,2.0,2.0,0.0,6.0,6.0,531.2408589998086,4.0,1.0,phase_2,go,650.0,700.0,1.0,,,,,,,,,gray,triangle
0.0,6.0,2.0,1.0,6.0,0.0,0.0,4.0,1.0,phase_2,stop,650.0,700.0,4.0,,,,,,,,,cyan,cross
0.0,7.0,3.0,1.0,6.0,6.0,1077.695459000097,4.0,1.0,phase_2,go,650.0,750.0,1.0,,,,,,,,,green,square
0.0,6.0,2.0,1.0,5.0,5.0,769.4175269998595,4.0,1.0,phase_2,stop,650.0,750.0,3.0,,,,,,,,,cyan,cross
0.0,3.0,3.0,0.0,6.0,6.0,567.9616900006295,4.0,1.0,phase_2,go,600.0,750.0,1.0,,,,,,,,,yellow,I
0.0,1.0,1.0,0.0,6.0,6.0,542.1938919998865,4.0,1.0,phase_2,go,600.0,750.0,1.0,,,,,,,,,orange,flipped triangle
0.0,6.0,2.0,1.0,5.0,5.0,992.8149389997998,4.0,1.0,phase_2,go,600.0,750.0,1.0,,,,,,,,,cyan,cross
0.0,4.0,4.0,0.0,6.0,6.0,803.2838910003193,4.0,1.0,phase_2,go,600.0,750.0,1.0,,,,,,,,,magenta,hexagon
0.0,6.0,2.0,1.0,6.0,6.0,842.3305279993656,4.0,1.0,phase_2,go,600.0,750.0,1.0,,,,,,,,,cyan,cross
0.0,5.0,1.0,1.0,6.0,6.0,864.047828999901,4.0,1.0,phase_2,stop,600.0,750.0,3.0,,,,,,,,,white,diamond
0.0,6.0,2.0,1.0,6.0,6.0,862.1353150001596,4.0,1.0,phase_2,stop,600.0,700.0,3.0,,,,,,,,,cyan,cross
0.0,1.0,1.0,0.0,6.0,6.0,889.5819489998757,4.0,1.0,phase_2,go,600.0,650.0,1.0,,,,,,,,,orange,flipped triangle
0.0,7.0,3.0,1.0,6.0,0.0,0.0,4.0,1.0,phase_2,stop,600.0,650.0,4.0,,,,,,,,,green,square
0.0,7.0,3.0,1.0,5.0,0.0,0.0,4.0,1.0,phase_2,stop,600.0,700.0,4.0,,,,,,,,,green,square
0.0,3.0,3.0,0.0,5.0,5.0,557.1422149996579,4.0,1.0,phase_2,go,650.0,700.0,1.0,,,,,,,,,yellow,I
0.0,2.0,2.0,0.0,5.0,5.0,515.6454689995371,4.0,1.0,phase_2,go,650.0,700.0,1.0,,,,,,,,,gray,triangle
0.0,5.0,1.0,1.0,6.0,0.0,0.0,4.0,1.0,phase_2,stop,650.0,700.0,4.0,,,,,,,,,white,diamond
0.0,8.0,4.0,1.0,5.0,0.0,0.0,5.0,1.0,phase_2,stop,650.0,750.0,4.0,,,,,,,,,blue,circle
0.0,1.0,1.0,0.0,6.0,6.0,664.9952059997304,5.0,1.0,phase_2,go,700.0,750.0,1.0,,,,,,,,,orange,flipped triangle
0.0,3.0,3.0,0.0,5.0,5.0,437.967660999675,5.0,1.0,phase_2,go,700.0,750.0,1.0,,,,,,,,,yellow,I
0.0,6.0,2.0,1.0,6.0,6.0,886.5878790002171,5.0,1.0,phase_2,go,700.0,750.0,1.0,,,,,,,,,cyan,cross
0.0,1.0,1.0,0.0,6.0,6.0,487.1708459995716,5.0,1.0,phase_2,go,700.0,750.0,1.0,,,,,,,,,orange,flipped triangle
0.0,3.0,3.0,0.0,5.0,5.0,372.5724930000069,5.0,1.0,phase_2,go,700.0,750.0,1.0,,,,,,,,,yellow,I
0.0,6.0,2.0,1.0,5.0,5.0,836.8508879993897,5.0,1.0,phase_2,stop,700.0,750.0,3.0,,,,,,,,,cyan,cross
0.0,2.0,2.0,0.0,5.0,5.0,486.5004670000417,5.0,1.0,phase_2,go,650.0,750.0,1.0,,,,,,,,,gray,triangle
0.0,8.0,4.0,1.0,6.0,6.0,884.031178999976,5.0,1.0,phase_2,stop,650.0,750.0,3.0,,,,,,,,,blue,circle
0.0,4.0,4.0,0.0,6.0,6.0,871.5617980005845,5.0,1.0,phase_2,go,650.0,700.0,1.0,,,,,,,,,magenta,hexagon
0.0,4.0,4.0,0.0,5.0,5.0,591.4860899993073,5.0,1.0,phase_2,go,650.0,700.0,1.0,,,,,,,,,magenta,hexagon
0.0,8.0,4.0,1.0,5.0,0.0,0.0,5.0,1.0,phase_2,stop,650.0,700.0,4.0,,,,,,,,,blue,circle
0.0,2.0,2.0,0.0,6.0,6.0,488.3822190004139,5.0,1.0,phase_2,go,700.0,700.0,1.0,,,,,,,,,gray,triangle
0.0,4.0,4.0,0.0,6.0,6.0,912.3430970003028,5.0,1.0,phase_2,go,700.0,700.0,1.0,,,,,,,,,magenta,hexagon
0.0,6.0,2.0,1.0,5.0,5.0,1041.3945629998125,5.0,1.0,phase_2,go,700.0,700.0,1.0,,,,,,,,,cyan,cross
0.0,3.0,3.0,0.0,5.0,5.0,458.1749710005169,5.0,1.0,phase_2,go,700.0,700.0,1.0,,,,,,,,,yellow,I
0.0,8.0,4.0,1.0,6.0,0.0,0.0,5.0,1.0,phase_2,stop,700.0,700.0,4.0,,,,,,,,,blue,circle
0.0,5.0,1.0,1.0,6.0,6.0,521.2551260001419,5.0,1.0,phase_2,stop,700.0,750.0,3.0,,,,,,,,,white,diamond
0.0,2.0,2.0,0.0,6.0,6.0,576.6945589994066,5.0,1.0,phase_2,go,700.0,700.0,1.0,,,,,,,,,gray,triangle
0.0,3.0,3.0,0.0,5.0,5.0,418.9325070001359,5.0,1.0,phase_2,go,700.0,700.0,1.0,,,,,,,,,yellow,I
0.0,4.0,4.0,0.0,6.0,6.0,1200.579987999845,5.0,1.0,phase_2,go,700.0,700.0,1.0,,,,,,,,,magenta,hexagon
0.0,5.0,1.0,1.0,5.0,5.0,1211.8070639999132,5.0,1.0,phase_2,go,700.0,700.0,1.0,,,,,,,,,white,diamond
0.0,1.0,1.0,0.0,6.0,6.0,441.4207170002555,5.0,1.0,phase_2,go,700.0,700.0,1.0,,,,,,,,,orange,flipped triangle
0.0,5.0,1.0,1.0,5.0,0.0,0.0,5.0,1.0,phase_2,stop,700.0,700.0,4.0,,,,,,,,,white,diamond
0.0,6.0,2.0,1.0,6.0,0.0,0.0,5.0,1.0,phase_2,stop,750.0,700.0,4.0,,,,,,,,,cyan,cross
0.0,8.0,4.0,1.0,5.0,5.0,869.4614980004189,5.0,1.0,phase_2,stop,750.0,750.0,3.0,,,,,,,,,blue,circle
0.0,1.0,1.0,0.0,5.0,5.0,872.0490959995004,5.0,1.0,phase_2,go,700.0,750.0,1.0,,,,,,,,,orange,flipped triangle
0.0,5.0,1.0,1.0,5.0,0.0,0.0,5.0,1.0,phase_2,stop,700.0,750.0,4.0,,,,,,,,,white,diamond
0.0,3.0,3.0,0.0,5.0,5.0,549.5129009996162,5.0,1.0,phase_2,go,750.0,750.0,1.0,,,,,,,,,yellow,I
0.0,5.0,1.0,1.0,5.0,0.0,0.0,5.0,1.0,phase_2,stop,750.0,750.0,4.0,,,,,,,,,white,diamond
0.0,1.0,1.0,0.0,6.0,6.0,748.8368120002633,5.0,1.0,phase_2,go,800.0,750.0,1.0,,,,,,,,,orange,flipped triangle
0.0,8.0,4.0,1.0,5.0,5.0,911.40292900036,5.0,1.0,phase_2,stop,800.0,750.0,3.0,,,,,,,,,blue,circle
0.0,6.0,2.0,1.0,5.0,0.0,0.0,5.0,1.0,phase_2,stop,750.0,750.0,4.0,,,,,,,,,cyan,cross
0.0,1.0,1.0,0.0,6.0,6.0,511.114195999653,5.0,1.0,phase_2,go,800.0,750.0,1.0,,,,,,,,,orange,flipped triangle
0.0,6.0,2.0,1.0,5.0,0.0,0.0,5.0,1.0,phase_2,stop,800.0,750.0,4.0,,,,,,,,,cyan,cross
0.0,6.0,2.0,1.0,6.0,6.0,1332.5304339996364,5.0,1.0,phase_2,go,850.0,750.0,1.0,,,,,,,,,cyan,cross
0.0,6.0,2.0,1.0,5.0,5.0,979.3938570001046,6.0,1.0,phase_2,go,850.0,750.0,1.0,,,,,,,,,cyan,cross
0.0,7.0,3.0,1.0,5.0,5.0,852.6998309998817,6.0,1.0,phase_2,go,850.0,750.0,1.0,,,,,,,,,green,square
0.0,3.0,3.0,0.0,5.0,5.0,466.7736159999549,6.0,1.0,phase_2,go,850.0,750.0,1.0,,,,,,,,,yellow,I
0.0,7.0,3.0,1.0,5.0,5.0,771.9615380001414,6.0,1.0,phase_2,stop,850.0,750.0,3.0,,,,,,,,,green,square
0.0,7.0,3.0,1.0,5.0,5.0,939.0368020003734,6.0,1.0,phase_2,go,800.0,750.0,1.0,,,,,,,,,green,square
0.0,2.0,2.0,0.0,6.0,6.0,544.6875710003951,6.0,1.0,phase_2,go,800.0,750.0,1.0,,,,,,,,,gray,triangle
0.0,8.0,4.0,1.0,6.0,6.0,809.0920149998055,6.0,1.0,phase_2,stop,800.0,750.0,3.0,,,,,,,,,blue,circle
0.0,8.0,4.0,1.0,5.0,5.0,1047.986202000175,6.0,1.0,phase_2,go,800.0,700.0,1.0,,,,,,,,,blue,circle
0.0,4.0,4.0,0.0,6.0,6.0,309.4600430003993,6.0,1.0,phase_2,go,800.0,700.0,1.0,,,,,,,,,magenta,hexagon
0.0,7.0,3.0,1.0,5.0,0.0,0.0,6.0,1.0,phase_2,stop,800.0,700.0,4.0,,,,,,,,,green,square
0.0,8.0,4.0,1.0,6.0,0.0,0.0,6.0,1.0,phase_2,stop,850.0,700.0,4.0,,,,,,,,,blue,circle
0.0,3.0,3.0,0.0,5.0,5.0,413.9366210001753,6.0,1.0,phase_2,go,850.0,750.0,1.0,,,,,,,,,yellow,I
0.0,7.0,3.0,1.0,5.0,0.0,0.0,6.0,1.0,phase_2,stop,850.0,750.0,4.0,,,,,,,,,green,square
0.0,8.0,4.0,1.0,6.0,0.0,0.0,6.0,1.0,phase_2,stop,900.0,750.0,4.0,,,,,,,,,blue,circle
0.0,8.0,4.0,1.0,6.0,6.0,910.526026000298,6.0,1.0,phase_2,go,900.0,800.0,1.0,,,,,,,,,blue,circle
0.0,2.0,2.0,0.0,5.0,5.0,341.0230769995905,6.0,1.0,phase_2,go,900.0,800.0,1.0,,,,,,,,,gray,triangle
0.0,5.0,1.0,1.0,6.0,6.0,334.5689520001542,6.0,1.0,phase_2,stop,900.0,800.0,3.0,,,,,,,,,white,diamond
0.0,7.0,3.0,1.0,5.0,5.0,1016.2986589994034,6.0,1.0,phase_2,stop,900.0,750.0,3.0,,,,,,,,,green,square
0.0,5.0,1.0,1.0,6.0,0.0,0.0,6.0,1.0,phase_2,stop,850.0,750.0,4.0,,,,,,,,,white,diamond
0.0,4.0,4.0,0.0,5.0,5.0,687.1555769994302,6.0,1.0,phase_2,go,850.0,800.0,1.0,,,,,,,,,magenta,hexagon
0.0,8.0,4.0,1.0,5.0,5.0,972.2279079996952,6.0,1.0,phase_2,go,850.0,800.0,1.0,,,,,,,,,blue,circle
0.0,2.0,2.0,0.0,5.0,5.0,467.702134999854,6.0,1.0,phase_2,go,850.0,800.0,1.0,,,,,,,,,gray,triangle
0.0,8.0,4.0,1.0,5.0,5.0,572.2915129999819,6.0,1.0,phase_2,stop,850.0,800.0,3.0,,,,,,,,,blue,circle
0.0,1.0,1.0,0.0,6.0,6.0,499.9522620000789,6.0,1.0,phase_2,go,800.0,800.0,1.0,,,,,,,,,orange,flipped triangle
0.0,7.0,3.0,1.0,5.0,0.0,0.0,6.0,1.0,phase_2,stop,800.0,800.0,4.0,,,,,,,,,green,square
0.0,1.0,1.0,0.0,5.0,5.0,484.3821510003181,6.0,1.0,phase_2,go,850.0,800.0,1.0,,,,,,,,,orange,flipped triangle
0.0,6.0,2.0,1.0,5.0,0.0,0.0,6.0,1.0,phase_2,stop,850.0,800.0,4.0,,,,,,,,,cyan,cross
0.0,1.0,1.0,0.0,5.0,5.0,501.6610499997114,6.0,1.0,phase_2,go,900.0,800.0,1.0,,,,,,,,,orange,flipped triangle
0.0,8.0,4.0,1.0,6.0,0.0,0.0,6.0,1.0,phase_2,stop,900.0,800.0,4.0,,,,,,,,,blue,circle
0.0,7.0,3.0,1.0,5.0,5.0,1153.264876999856,6.0,1.0,phase_2,go,900.0,850.0,1.0,,,,,,,,,green,square
0.0,3.0,3.0,0.0,6.0,6.0,408.4265410001535,6.0,1.0,phase_2,go,900.0,850.0,1.0,,,,,,,,,yellow,I
0.0,1.0,1.0,0.0,6.0,6.0,354.9283920001471,6.0,1.0,phase_2,go,900.0,850.0,1.0,,,,,,,,,orange,flipped triangle
0.0,4.0,4.0,0.0,5.0,5.0,338.6424379996242,6.0,1.0,phase_2,go,900.0,850.0,1.0,,,,,,,,,magenta,hexagon
0.0,5.0,1.0,1.0,6.0,0.0,0.0,6.0,1.0,phase_2,stop,900.0,850.0,4.0,,,,,,,,,white,diamond
0.0,3.0,3.0,0.0,5.0,5.0,517.0170719993621,6.0,1.0,phase_2,go,900.0,900.0,1.0,,,,,,,,,yellow,I
0.0,2.0,2.0,0.0,5.0,5.0,450.0865159998284,6.0,1.0,phase_2,go,900.0,900.0,1.0,,,,,,,,,gray,triangle
0.0,8.0,4.0,1.0,5.0,5.0,793.2664350000778,7.0,1.0,phase_2,stop,900.0,900.0,3.0,,,,,,,,,blue,circle
0.0,3.0,3.0,0.0,6.0,6.0,495.9009719996174,7.0,1.0,phase_2,go,850.0,900.0,1.0,,,,,,,,,yellow,I
0.0,5.0,1.0,1.0,5.0,5.0,989.2498339995656,7.0,1.0,phase_2,stop,850.0,900.0,3.0,,,,,,,,,white,diamond
0.0,3.0,3.0,0.0,6.0,6.0,475.9197729999869,7.0,1.0,phase_2,go,800.0,900.0,1.0,,,,,,,,,yellow,I
0.0,2.0,2.0,0.0,6.0,6.0,498.5820190004233,7.0,1.0,phase_2,go,800.0,900.0,1.0,,,,,,,,,gray,triangle
0.0,8.0,4.0,1.0,5.0,0.0,0.0,7.0,1.0,phase_2,stop,800.0,900.0,4.0,,,,,,,,,blue,circle
0.0,1.0,1.0,0.0,6.0,6.0,602.7571390004596,7.0,1.0,phase_2,go,850.0,900.0,1.0,,,,,,,,,orange,flipped triangle
0.0,1.0,1.0,0.0,5.0,5.0,306.7455210002663,7.0,1.0,phase_2,go,850.0,900.0,1.0,,,,,,,,,orange,flipped triangle
0.0,6.0,2.0,1.0,6.0,6.0,1066.2728819997938,7.0,1.0,phase_2,go,850.0,900.0,1.0,,,,,,,,,cyan,cross
0.0,7.0,3.0,1.0,6.0,6.0,795.5001399996036,7.0,1.0,phase_2,stop,850.0,900.0,3.0,,,,,,,,,green,square
0.0,1.0,1.0,0.0,5.0,5.0,498.8303860000087,7.0,1.0,phase_2,go,850.0,850.0,1.0,,,,,,,,,orange,flipped triangle
0.0,3.0,3.0,0.0,6.0,6.0,314.7155419992486,7.0,1.0,phase_2,go,850.0,850.0,1.0,,,,,,,,,yellow,I
0.0,5.0,1.0,1.0,6.0,6.0,940.244824999354,7.0,1.0,phase_2,stop,850.0,850.0,3.0,,,,,,,,,white,diamond
0.0,6.0,2.0,1.0,6.0,0.0,0.0,7.0,1.0,phase_2,stop,850.0,800.0,4.0,,,,,,,,,cyan,cross
0.0,8.0,4.0,1.0,6.0,6.0,1038.895308000065,7.0,1.0,phase_2,stop,850.0,850.0,3.0,,,,,,,,,blue,circle
0.0,2.0,2.0,0.0,5.0,5.0,482.2446879998097,7.0,1.0,phase_2,go,850.0,800.0,1.0,,,,,,,,,gray,triangle
0.0,2.0,2.0,0.0,6.0,6.0,525.5046209995271,7.0,1.0,phase_2,go,850.0,800.0,1.0,,,,,,,,,gray,triangle
0.0,4.0,4.0,0.0,6.0,6.0,550.8910140006265,7.0,1.0,phase_2,go,850.0,800.0,1.0,,,,,,,,,magenta,hexagon
0.0,4.0,4.0,0.0,5.0,5.0,367.318145000354,7.0,1.0,phase_2,go,850.0,800.0,1.0,,,,,,,,,magenta,hexagon
0.0,7.0,3.0,1.0,5.0,5.0,616.7659069997171,7.0,1.0,phase_2,stop,850.0,800.0,3.0,,,,,,,,,green,square
0.0,3.0,3.0,0.0,6.0,6.0,403.1567629999699,7.0,1.0,phase_2,go,800.0,800.0,1.0,,,,,,,,,yellow,I
0.0,4.0,4.0,0.0,5.0,5.0,379.8097039998538,7.0,1.0,phase_2,go,800.0,800.0,1.0,,,,,,,,,magenta,hexagon
0.0,4.0,4.0,0.0,6.0,6.0,330.4977249999865,7.0,1.0,phase_2,go,800.0,800.0,1.0,,,,,,,,,magenta,hexagon
0.0,7.0,3.0,1.0,5.0,5.0,543.7449339997329,7.0,1.0,phase_2,go,800.0,800.0,1.0,,,,,,,,,green,square
0.0,4.0,4.0,0.0,6.0,6.0,475.6080679999286,7.0,1.0,phase_2,go,800.0,800.0,1.0,,,,,,,,,magenta,hexagon
0.0,3.0,3.0,0.0,6.0,6.0,362.4819030001163,7.0,1.0,phase_2,go,800.0,800.0,1.0,,,,,,,,,yellow,I
0.0,6.0,2.0,1.0,6.0,0.0,0.0,7.0,1.0,phase_2,stop,800.0,800.0,4.0,,,,,,,,,cyan,cross
0.0,2.0,2.0,0.0,5.0,5.0,480.9383689998867,7.0,1.0,phase_2,go,800.0,850.0,1.0,,,,,,,,,gray,triangle
0.0,7.0,3.0,1.0,6.0,6.0,326.5993439999874,7.0,1.0,phase_2,stop,800.0,850.0,3.0,,,,,,,,,green,square
0.0,1.0,1.0,0.0,6.0,6.0,487.9991030002202,7.0,1.0,phase_2,go,800.0,800.0,1.0,,,,,,,,,orange,flipped triangle
0.0,5.0,1.0,1.0,6.0,6.0,496.1100769996847,7.0,1.0,phase_2,go,800.0,800.0,1.0,,,,,,,,,white,diamond
0.0,3.0,3.0,0.0,6.0,6.0,463.5493830000996,7.0,1.0,phase_2,go,800.0,800.0,1.0,,,,,,,,,yellow,I
0.0,3.0,3.0,0.0,6.0,6.0,338.1096069997511,7.0,1.0,phase_2,go,800.0,800.0,1.0,,,,,,,,,yellow,I
0.0,8.0,4.0,1.0,5.0,5.0,845.8054230004564,7.0,1.0,phase_2,go,800.0,800.0,1.0,,,,,,,,,blue,circle
0.0,5.0,1.0,1.0,5.0,0.0,0.0,7.0,1.0,phase_2,stop,800.0,800.0,4.0,,,,,,,,,white,diamond
0.0,2.0,2.0,0.0,6.0,6.0,414.4773510006416,7.0,1.0,phase_2,go,850.0,800.0,1.0,,,,,,,,,gray,triangle
0.0,4.0,4.0,0.0,5.0,5.0,522.0832689992676,8.0,1.0,phase_2,go,850.0,800.0,1.0,,,,,,,,,magenta,hexagon
0.0,2.0,2.0,0.0,5.0,5.0,326.0897840000325,8.0,1.0,phase_2,go,850.0,800.0,1.0,,,,,,,,,gray,triangle
0.0,5.0,1.0,1.0,5.0,5.0,317.7998340006525,8.0,1.0,phase_2,stop,850.0,800.0,3.0,,,,,,,,,white,diamond
0.0,8.0,4.0,1.0,6.0,6.0,560.6952140005887,8.0,1.0,phase_2,stop,800.0,800.0,3.0,,,,,,,,,blue,circle
0.0,8.0,4.0,1.0,6.0,6.0,1095.3677999996216,8.0,1.0,phase_2,go,800.0,750.0,1.0,,,,,,,,,blue,circle
0.0,8.0,4.0,1.0,5.0,5.0,771.9036290000076,8.0,1.0,phase_2,stop,800.0,750.0,3.0,,,,,,,,,blue,circle
0.0,5.0,1.0,1.0,6.0,0.0,0.0,8.0,1.0,phase_2,stop,750.0,750.0,4.0,,,,,,,,,white,diamond
0.0,5.0,1.0,1.0,5.0,5.0,919.1540069996336,8.0,1.0,phase_2,go,750.0,800.0,1.0,,,,,,,,,white,diamond
0.0,7.0,3.0,1.0,6.0,0.0,0.0,8.0,1.0,phase_2,stop,750.0,800.0,4.0,,,,,,,,,green,square
0.0,6.0,2.0,1.0,5.0,0.0,0.0,8.0,1.0,phase_2,stop,750.0,850.0,4.0,,,,,,,,,cyan,cross
0.0,3.0,3.0,0.0,5.0,5.0,556.5647240000544,8.0,1.0,phase_2,go,800.0,850.0,1.0,,,,,,,,,yellow,I
0.0,7.0,3.0,1.0,6.0,0.0,0.0,8.0,1.0,phase_2,stop,800.0,850.0,4.0,,,,,,,,,green,square
0.0,4.0,4.0,0.0,5.0,5.0,651.9440909996774,8.0,1.0,phase_2,go,800.0,900.0,1.0,,,,,,,,,magenta,hexagon
0.0,7.0,3.0,1.0,6.0,6.0,316.2267750003593,8.0,1.0,phase_2,go,800.0,900.0,1.0,,,,,,,,,green,square
0.0,4.0,4.0,0.0,5.0,5.0,472.5060290002147,8.0,1.0,phase_2,go,800.0,900.0,1.0,,,,,,,,,magenta,hexagon
0.0,8.0,4.0,1.0,5.0,5.0,1136.8306699996538,8.0,1.0,phase_2,go,800.0,900.0,1.0,,,,,,,,,blue,circle
0.0,7.0,3.0,1.0,6.0,6.0,565.2003260001948,8.0,1.0,phase_2,stop,800.0,900.0,3.0,,,,,,,,,green,square
0.0,4.0,4.0,0.0,6.0,6.0,514.7833289993287,8.0,1.0,phase_2,go,800.0,850.0,1.0,,,,,,,,,magenta,hexagon
0.0,5.0,1.0,1.0,6.0,6.0,374.8154229997453,8.0,1.0,phase_2,go,800.0,850.0,1.0,,,,,,,,,white,diamond
0.0,2.0,2.0,0.0,5.0,5.0,404.0423510004984,8.0,1.0,phase_2,go,800.0,850.0,1.0,,,,,,,,,gray,triangle
0.0,4.0,4.0,0.0,6.0,6.0,461.297365000064,8.0,1.0,phase_2,go,800.0,850.0,1.0,,,,,,,,,magenta,hexagon
0.0,6.0,2.0,1.0,6.0,6.0,820.7080519996452,8.0,1.0,phase_2,stop,800.0,850.0,3.0,,,,,,,,,cyan,cross
0.0,7.0,3.0,1.0,5.0,5.0,1253.8788450001448,8.0,1.0,phase_2,go,800.0,800.0,1.0,,,,,,,,,green,square
0.0,8.0,4.0,1.0,6.0,0.0,0.0,8.0,1.0,phase_2,stop,800.0,800.0,4.0,,,,,,,,,blue,circle
0.0,4.0,4.0,0.0,5.0,5.0,721.2119830001029,8.0,1.0,phase_2,go,800.0,850.0,1.0,,,,,,,,,magenta,hexagon
0.0,5.0,1.0,1.0,6.0,6.0,939.7733850000805,8.0,1.0,phase_2,stop,800.0,850.0,3.0,,,,,,,,,white,diamond
0.0,8.0,4.0,1.0,6.0,0.0,0.0,8.0,1.0,phase_2,stop,800.0,800.0,4.0,,,,,,,,,blue,circle
0.0,2.0,2.0,0.0,6.0,6.0,553.1732680001369,8.0,1.0,phase_2,go,800.0,850.0,1.0,,,,,,,,,gray,triangle
0.0,1.0,1.0,0.0,5.0,5.0,476.2749569999869,8.0,1.0,phase_2,go,800.0,850.0,1.0,,,,,,,,,orange,flipped triangle
0.0,6.0,2.0,1.0,6.0,0.0,0.0,8.0,1.0,phase_2,stop,800.0,850.0,4.0,,,,,,,,,cyan,cross
0.0,5.0,1.0,1.0,6.0,6.0,753.957408000133,8.0,1.0,phase_2,stop,800.0,900.0,3.0,,,,,,,,,white,diamond
0.0,4.0,4.0,0.0,6.0,6.0,580.8511850000286,8.0,1.0,phase_2,go,800.0,850.0,1.0,,,,,,,,,magenta,hexagon
0.0,5.0,1.0,1.0,5.0,0.0,0.0,8.0,1.0,phase_2,stop,800.0,850.0,4.0,,,,,,,,,white,diamond
0.0,8.0,4.0,1.0,6.0,0.0,0.0,8.0,1.0,phase_2,stop,850.0,850.0,4.0,,,,,,,,,blue,circle
0.0,4.0,4.0,0.0,5.0,5.0,638.2809780006937,8.0,1.0,phase_2,go,850.0,900.0,1.0,,,,,,,,,magenta,hexagon
0.0,7.0,3.0,1.0,6.0,6.0,1135.3276909994747,8.0,1.0,phase_2,stop,850.0,900.0,3.0,,,,,,,,,green,square
0.0,4.0,4.0,0.0,7.0,5.0,3331.7902170001616,1.0,1.0,phase_3,,,,,220.0,5.0,176.0,264.0,88.0,44.0,220.0,132.0,magenta,hexagon
0.0,3.0,3.0,0.0,7.0,6.0,1966.4122320000388,1.0,1.0,phase_3,,,,,196.0,4.0,98.0,147.0,49.0,294.0,245.0,196.0,yellow,I
0.0,5.0,1.0,1.0,7.0,2.0,2284.619401000782,1.0,1.0,phase_3,,,,,220.0,5.0,88.0,220.0,44.0,176.0,264.0,132.0,white,diamond
0.0,1.0,1.0,0.0,7.0,4.0,1865.5444020005236,1.0,1.0,phase_3,,,,,78.0,2.0,195.0,117.0,156.0,78.0,39.0,234.0,orange,flipped triangle
0.0,6.0,2.0,1.0,7.0,1.0,2168.270848999782,1.0,1.0,phase_3,,,,,156.0,4.0,156.0,234.0,117.0,78.0,195.0,39.0,cyan,cross
0.0,8.0,4.0,1.0,7.0,6.0,445.1240819998929,1.0,1.0,phase_3,,,,,170.0,5.0,102.0,204.0,68.0,136.0,34.0,170.0,blue,circle
0.0,6.0,2.0,1.0,7.0,2.0,352.4301469997226,1.0,1.0,phase_3,,,,,220.0,5.0,88.0,220.0,44.0,132.0,176.0,264.0,cyan,cross
0.0,5.0,1.0,1.0,7.0,4.0,363.989059999767,1.0,1.0,phase_3,,,,,68.0,2.0,34.0,102.0,204.0,68.0,170.0,136.0,white,diamond
0.0,1.0,1.0,0.0,7.0,3.0,860.1263210002799,1.0,1.0,phase_3,,,,,102.0,3.0,68.0,204.0,102.0,34.0,170.0,136.0,orange,flipped triangle
0.0,5.0,1.0,1.0,7.0,5.0,279.4634199999564,1.0,1.0,phase_3,,,,,195.0,5.0,39.0,234.0,156.0,117.0,195.0,78.0,white,diamond
0.0,8.0,4.0,1.0,7.0,1.0,541.388630000256,1.0,1.0,phase_3,,,,,196.0,4.0,196.0,98.0,147.0,245.0,294.0,49.0,blue,circle
0.0,3.0,3.0,0.0,7.0,3.0,494.7143889994549,1.0,1.0,phase_3,,,,,156.0,4.0,234.0,195.0,156.0,117.0,78.0,39.0,yellow,I
0.0,6.0,2.0,1.0,7.0,6.0,324.4702370002414,1.0,1.0,phase_3,,,,,102.0,3.0,68.0,204.0,34.0,136.0,170.0,102.0,cyan,cross
0.0,5.0,1.0,1.0,7.0,2.0,444.1674050003712,1.0,1.0,phase_3,,,,,49.0,1.0,196.0,49.0,147.0,98.0,294.0,245.0,white,diamond
0.0,5.0,1.0,1.0,7.0,5.0,1120.2390079997713,1.0,1.0,phase_3,,,,,156.0,4.0,78.0,117.0,195.0,39.0,156.0,234.0,white,diamond
0.0,4.0,4.0,0.0,7.0,1.0,496.7597919994659,1.0,1.0,phase_3,,,,,102.0,3.0,102.0,34.0,170.0,204.0,136.0,68.0,magenta,hexagon
0.0,2.0,2.0,0.0,7.0,5.0,1327.4966609997136,1.0,1.0,phase_3,,,,,170.0,5.0,204.0,68.0,136.0,34.0,170.0,102.0,gray,triangle
0.0,2.0,2.0,0.0,7.0,1.0,1492.7061980006329,1.0,1.0,phase_3,,,,,117.0,3.0,117.0,195.0,39.0,156.0,234.0,78.0,gray,triangle
0.0,2.0,2.0,0.0,7.0,3.0,403.3916529997441,1.0,1.0,phase_3,,,,,195.0,5.0,156.0,117.0,195.0,234.0,39.0,78.0,gray,triangle
0.0,1.0,1.0,0.0,7.0,2.0,317.5452449995646,1.0,1.0,phase_3,,,,,324.0,6.0,162.0,324.0,270.0,108.0,216.0,54.0,orange,flipped triangle
0.0,8.0,4.0,1.0,7.0,4.0,404.3304999995598,2.0,1.0,phase_3,,,,,216.0,4.0,270.0,324.0,54.0,216.0,108.0,162.0,blue,circle
0.0,5.0,1.0,1.0,7.0,5.0,469.6346650007399,2.0,1.0,phase_3,,,,,54.0,1.0,162.0,108.0,324.0,270.0,54.0,216.0,white,diamond
0.0,5.0,1.0,1.0,7.0,2.0,560.6565170000977,2.0,1.0,phase_3,,,,,170.0,5.0,34.0,170.0,68.0,204.0,102.0,136.0,white,diamond
0.0,3.0,3.0,0.0,7.0,3.0,650.9431370004677,2.0,1.0,phase_3,,,,,170.0,5.0,204.0,34.0,170.0,136.0,68.0,102.0,yellow,I
0.0,4.0,4.0,0.0,7.0,1.0,442.9510999998456,2.0,1.0,phase_3,,,,,270.0,5.0,270.0,324.0,54.0,108.0,162.0,216.0,magenta,hexagon
0.0,1.0,1.0,0.0,7.0,5.0,643.6795939998774,2.0,1.0,phase_3,,,,,117.0,3.0,234.0,39.0,78.0,195.0,117.0,156.0,orange,flipped triangle
0.0,5.0,1.0,1.0,7.0,1.0,1224.467691999962,2.0,1.0,phase_3,,,,,147.0,3.0,147.0,196.0,245.0,98.0,49.0,294.0,white,diamond
0.0,2.0,2.0,0.0,7.0,2.0,759.7015210003519,2.0,1.0,phase_3,,,,,98.0,2.0,49.0,98.0,196.0,294.0,147.0,245.0,gray,triangle
0.0,7.0,3.0,1.0,7.0,6.0,333.1027539998104,2.0,1.0,phase_3,,,,,34.0,1.0,170.0,68.0,204.0,102.0,136.0,34.0,green,square
0.0,8.0,4.0,1.0,7.0,5.0,353.9350379996904,2.0,1.0,phase_3,,,,,117.0,3.0,156.0,234.0,78.0,39.0,117.0,195.0,blue,circle
0.0,5.0,1.0,1.0,7.0,4.0,453.965402999529,2.0,1.0,phase_3,,,,,162.0,3.0,54.0,108.0,216.0,162.0,270.0,324.0,white,diamond
0.0,1.0,1.0,0.0,7.0,3.0,358.7582159998419,2.0,1.0,phase_3,,,,,34.0,1.0,102.0,68.0,34.0,204.0,136.0,170.0,orange,flipped triangle
0.0,3.0,3.0,0.0,7.0,2.0,260.502357000405,2.0,1.0,phase_3,,,,,44.0,1.0,264.0,44.0,220.0,88.0,176.0,132.0,yellow,I
0.0,3.0,3.0,0.0,7.0,1.0,246.1933760005195,2.0,1.0,phase_3,,,,,170.0,5.0,170.0,34.0,204.0,68.0,102.0,136.0,yellow,I
0.0,7.0,3.0,1.0,7.0,6.0,0.26586500007389996,2.0,1.0,phase_3,,,,,147.0,3.0,245.0,49.0,196.0,294.0,98.0,147.0,green,square
0.0,4.0,4.0,0.0,7.0,5.0,426.3679239993507,2.0,1.0,phase_3,,,,,98.0,2.0,49.0,196.0,147.0,294.0,98.0,245.0,magenta,hexagon
0.0,8.0,4.0,1.0,7.0,2.0,274.0279749996261,2.0,1.0,phase_3,,,,,176.0,4.0,264.0,176.0,132.0,44.0,220.0,88.0,blue,circle
0.0,8.0,4.0,1.0,7.0,4.0,299.0191079998112,2.0,1.0,phase_3,,,,,78.0,2.0,195.0,234.0,117.0,78.0,156.0,39.0,blue,circle
0.0,7.0,3.0,1.0,7.0,1.0,1152.518816000338,2.0,1.0,phase_3,,,,,176.0,4.0,176.0,132.0,264.0,44.0,88.0,220.0,green,square
0.0,2.0,2.0,0.0,7.0,3.0,617.1906810004657,2.0,1.0,phase_3,,,,,264.0,6.0,44.0,220.0,264.0,176.0,88.0,132.0,gray,triangle
0.0,6.0,2.0,1.0,7.0,1.0,825.0786809994679,3.0,1.0,phase_3,,,,,78.0,2.0,78.0,117.0,195.0,39.0,156.0,234.0,cyan,cross
0.0,6.0,2.0,1.0,7.0,5.0,508.8765720001902,3.0,1.0,phase_3,,,,,204.0,6.0,34.0,170.0,102.0,136.0,204.0,68.0,cyan,cross
0.0,7.0,3.0,1.0,7.0,3.0,638.3116429997244,3.0,1.0,phase_3,,,,,196.0,4.0,147.0,49.0,196.0,294.0,245.0,98.0,green,square
0.0,2.0,2.0,0.0,7.0,2.0,1288.0475980000483,3.0,1.0,phase_3,,,,,220.0,5.0,88.0,220.0,44.0,264.0,132.0,176.0,gray,triangle
0.0,3.0,3.0,0.0,7.0,5.0,1666.4767190004568,3.0,1.0,phase_3,,,,,162.0,3.0,216.0,324.0,270.0,54.0,162.0,108.0,yellow,I
0.0,7.0,3.0,1.0,7.0,4.0,1432.455316999949,3.0,1.0,phase_3,,,,,68.0,2.0,204.0,170.0,136.0,68.0,34.0,102.0,green,square
0.0,4.0,4.0,0.0,7.0,2.0,790.7241370003248,3.0,1.0,phase_3,,,,,294.0,6.0,98.0,294.0,196.0,245.0,147.0,49.0,magenta,hexagon
0.0,1.0,1.0,0.0,7.0,6.0,902.9992410005434,3.0,1.0,phase_3,,,,,264.0,6.0,132.0,44.0,220.0,176.0,88.0,264.0,orange,flipped triangle
0.0,4.0,4.0,0.0,7.0,5.0,610.5199009998614,3.0,1.0,phase_3,,,,,204.0,6.0,170.0,34.0,136.0,68.0,204.0,102.0,magenta,hexagon
0.0,6.0,2.0,1.0,7.0,4.0,592.9811740006699,3.0,1.0,phase_3,,,,,147.0,3.0,49.0,245.0,294.0,147.0,98.0,196.0,cyan,cross
0.0,4.0,4.0,0.0,7.0,2.0,464.9865670007784,3.0,1.0,phase_3,,,,,220.0,5.0,132.0,220.0,264.0,88.0,176.0,44.0,magenta,hexagon
0.0,7.0,3.0,1.0,7.0,3.0,508.2979589997194,3.0,1.0,phase_3,,,,,216.0,4.0,54.0,108.0,216.0,270.0,162.0,324.0,green,square
0.0,1.0,1.0,0.0,7.0,4.0,1066.0410079999565,3.0,1.0,phase_3,,,,,245.0,5.0,196.0,98.0,147.0,245.0,49.0,294.0,orange,flipped triangle
0.0,6.0,2.0,1.0,7.0,1.0,1961.9385779997172,3.0,1.0,phase_3,,,,,147.0,3.0,147.0,196.0,294.0,49.0,98.0,245.0,cyan,cross
0.0,7.0,3.0,1.0,7.0,2.0,781.8243869996877,3.0,1.0,phase_3,,,,,176.0,4.0,220.0,176.0,132.0,88.0,44.0,264.0,green,square
0.0,7.0,3.0,1.0,7.0,4.0,849.916105000375,3.0,1.0,phase_3,,,,,234.0,6.0,78.0,39.0,117.0,234.0,156.0,195.0,green,square
0.0,8.0,4.0,1.0,7.0,3.0,748.0368489996181,3.0,1.0,phase_3,,,,,34.0,1.0,204.0,170.0,34.0,136.0,102.0,68.0,blue,circle
0.0,4.0,4.0,0.0,7.0,6.0,1115.4372760001934,3.0,1.0,phase_3,,,,,39.0,1.0,234.0,78.0,195.0,117.0,156.0,39.0,magenta,hexagon
0.0,8.0,4.0,1.0,7.0,5.0,798.2583550001436,3.0,1.0,phase_3,,,,,49.0,1.0,98.0,196.0,245.0,147.0,49.0,294.0,blue,circle
0.0,3.0,3.0,0.0,7.0,1.0,1003.8097169999671,3.0,1.0,phase_3,,,,,147.0,3.0,147.0,98.0,245.0,294.0,196.0,49.0,yellow,I
0.0,2.0,2.0,0.0,7.0,3.0,623.0556209993665,4.0,1.0,phase_3,,,,,294.0,6.0,98.0,196.0,294.0,147.0,245.0,49.0,gray,triangle
0.0,4.0,4.0,0.0,7.0,4.0,583.6863219992665,4.0,1.0,phase_3,,,,,195.0,5.0,39.0,234.0,156.0,195.0,117.0,78.0,magenta,hexagon
0.0,1.0,1.0,0.0,7.0,6.0,530.4702160001398,4.0,1.0,phase_3,,,,,216.0,4.0,108.0,162.0,270.0,54.0,324.0,216.0,orange,flipped triangle
0.0,7.0,3.0,1.0,7.0,5.0,304.6133199995893,4.0,1.0,phase_3,,,,,234.0,6.0,39.0,78.0,195.0,156.0,234.0,117.0,green,square
0.0,2.0,2.0,0.0,7.0,2.0,2331.039765000241,4.0,1.0,phase_3,,,,,68.0,2.0,204.0,68.0,170.0,136.0,102.0,34.0,gray,triangle
0.0,7.0,3.0,1.0,7.0,3.0,514.2537170004289,4.0,1.0,phase_3,,,,,108.0,2.0,324.0,270.0,108.0,54.0,162.0,216.0,green,square
0.0,5.0,1.0,1.0,7.0,2.0,385.8671230000254,4.0,1.0,phase_3,,,,,44.0,1.0,176.0,44.0,132.0,264.0,88.0,220.0,white,diamond
0.0,3.0,3.0,0.0,7.0,4.0,348.1878709999364,4.0,1.0,phase_3,,,,,162.0,3.0,216.0,324.0,108.0,162.0,270.0,54.0,yellow,I
0.0,4.0,4.0,0.0,7.0,6.0,311.484950000704,4.0,1.0,phase_3,,,,,162.0,3.0,54.0,108.0,216.0,324.0,270.0,162.0,magenta,hexagon
0.0,2.0,2.0,0.0,7.0,5.0,507.15874599973176,4.0,1.0,phase_3,,,,,162.0,3.0,324.0,54.0,216.0,108.0,162.0,270.0,gray,triangle
0.0,8.0,4.0,1.0,7.0,1.0,1991.535032999309,4.0,1.0,phase_3,,,,,176.0,4.0,176.0,44.0,264.0,132.0,88.0,220.0,blue,circle
0.0,3.0,3.0,0.0,7.0,3.0,668.6098419995687,4.0,1.0,phase_3,,,,,132.0,3.0,44.0,264.0,132.0,176.0,88.0,220.0,yellow,I
0.0,6.0,2.0,1.0,7.0,2.0,292.8622760000507,4.0,1.0,phase_3,,,,,108.0,2.0,162.0,108.0,216.0,324.0,270.0,54.0,cyan,cross
0.0,1.0,1.0,0.0,7.0,4.0,477.5940350000383,4.0,1.0,phase_3,,,,,132.0,3.0,176.0,44.0,220.0,132.0,264.0,88.0,orange,flipped triangle
0.0,2.0,2.0,0.0,7.0,3.0,832.9228259999581,4.0,1.0,phase_3,,,,,54.0,1.0,324.0,108.0,54.0,162.0,216.0,270.0,gray,triangle
0.0,3.0,3.0,0.0,7.0,6.0,416.5027600001849,4.0,1.0,phase_3,,,,,156.0,4.0,195.0,234.0,78.0,39.0,117.0,156.0,yellow,I
0.0,8.0,4.0,1.0,7.0,4.0,486.9137579999005,4.0,1.0,phase_3,,,,,54.0,1.0,270.0,324.0,162.0,54.0,216.0,108.0,blue,circle
0.0,6.0,2.0,1.0,7.0,1.0,1500.8850840004015,4.0,1.0,phase_3,,,,,44.0,1.0,44.0,176.0,264.0,88.0,132.0,220.0,cyan,cross
0.0,1.0,1.0,0.0,7.0,4.0,2280.1195570000345,4.0,1.0,phase_3,,,,,49.0,1.0,196.0,98.0,294.0,49.0,245.0,147.0,orange,flipped triangle
0.0,6.0,2.0,1.0,7.0,5.0,1428.6629729995184,4.0,1.0,phase_3,,,,,108.0,2.0,162.0,270.0,324.0,54.0,108.0,216.0,cyan,cross
