raw_reward_magnitude,stim_reward,stepwise_reward_magnitude,paired_with_stopping,quadrant,response,reaction_time,block,num_trial_presentations,which_part,stop_signal_trial_type,left_SSD,right_SSD,accuracy,chosen_bidding_amount,chosen_bidding_level,possible_bid_1,possible_bid_2,possible_bid_3,possible_bid_4,possible_bid_5,possible_bid_6,color_text,shape_text
417.0,8.0,4.0,1.0,3.0,3.0,306.2713510000208,1.0,1.0,part_1,,,,,,,,,,,,,magenta,cross
379.0,8.0,4.0,1.0,3.0,3.0,285.9948010000153,1.0,1.0,part_1,,,,,,,,,,,,,magenta,cross
87.0,2.0,2.0,0.0,2.0,2.0,237.7175369999804,1.0,1.0,part_1,,,,,,,,,,,,,cyan,hexagon
397.0,8.0,4.0,1.0,3.0,3.0,225.0493479999704,1.0,1.0,part_1,,,,,,,,,,,,,magenta,cross
0.0,1.0,0.0,0.0,4.0,4.0,268.326562000027,1.0,1.0,part_1,,,,,,,,,,,,,orange,square
112.0,2.0,2.0,0.0,4.0,4.0,302.2093210000207,1.0,2.0,part_1,,,,,,,,,,,,,cyan,hexagon
112.0,6.0,2.0,1.0,4.0,4.0,278.9635679999946,1.0,1.0,part_1,,,,,,,,,,,,,green,circle
0.0,8.0,0.0,1.0,3.0,3.0,292.0647839999901,1.0,1.0,part_1,,,,,,,,,,,,,magenta,cross
45.0,5.0,1.0,1.0,4.0,4.0,284.2102170000089,1.0,1.0,part_1,,,,,,,,,,,,,blue,diamond
415.0,8.0,4.0,1.0,4.0,4.0,290.9187299999871,1.0,1.0,part_1,,,,,,,,,,,,,magenta,cross
94.0,2.0,2.0,0.0,3.0,3.0,267.2727030000033,1.0,1.0,part_1,,,,,,,,,,,,,cyan,hexagon
416.0,4.0,4.0,0.0,1.0,1.0,362.0281240000054,1.0,2.0,part_1,,,,,,,,,,,,,gray,I
177.0,3.0,3.0,0.0,2.0,2.0,327.6517450000256,1.0,1.0,part_1,,,,,,,,,,,,,white,triangle
0.0,7.0,0.0,1.0,1.0,1.0,383.6942679999993,1.0,1.0,part_1,,,,,,,,,,,,,yellow,flipped triangle
0.0,3.0,0.0,0.0,3.0,3.0,334.865284999978,1.0,1.0,part_1,,,,,,,,,,,,,white,triangle
27.0,5.0,1.0,1.0,4.0,4.0,300.5966530000137,1.0,1.0,part_1,,,,,,,,,,,,,blue,diamond
125.0,6.0,2.0,1.0,4.0,4.0,317.0289219999631,1.0,1.0,part_1,,,,,,,,,,,,,green,circle
0.0,4.0,0.0,0.0,2.0,2.0,322.0112799999697,1.0,1.0,part_1,,,,,,,,,,,,,gray,I
0.0,7.0,0.0,1.0,2.0,2.0,318.5553429999572,1.0,1.0,part_1,,,,,,,,,,,,,yellow,flipped triangle
76.0,6.0,2.0,1.0,3.0,3.0,327.4053110000068,1.0,1.0,part_1,,,,,,,,,,,,,green,circle
124.0,6.0,2.0,1.0,2.0,2.0,257.9140610000081,1.0,1.0,part_1,,,,,,,,,,,,,green,circle
0.0,3.0,0.0,0.0,2.0,2.0,333.11047899996987,1.0,1.0,part_1,,,,,,,,,,,,,white,triangle
66.0,1.0,1.0,0.0,3.0,3.0,317.4453480000352,1.0,1.0,part_1,,,,,,,,,,,,,orange,square
208.0,3.0,3.0,0.0,1.0,1.0,241.9216819999974,1.0,1.0,part_1,,,,,,,,,,,,,white,triangle
42.0,1.0,1.0,0.0,4.0,4.0,361.5751159999831,1.0,1.0,part_1,,,,,,,,,,,,,orange,square
89.0,6.0,2.0,1.0,3.0,3.0,315.9884460000057,1.0,1.0,part_1,,,,,,,,,,,,,green,circle
422.0,8.0,4.0,1.0,1.0,1.0,308.6089560000005,1.0,1.0,part_1,,,,,,,,,,,,,magenta,cross
34.0,5.0,1.0,1.0,4.0,4.0,378.5167660000184,1.0,1.0,part_1,,,,,,,,,,,,,blue,diamond
59.0,1.0,1.0,0.0,2.0,2.0,466.5429840000001,1.0,1.0,part_1,,,,,,,,,,,,,orange,square
0.0,4.0,0.0,0.0,4.0,4.0,346.9363510000107,1.0,1.0,part_1,,,,,,,,,,,,,gray,I
0.0,1.0,0.0,0.0,4.0,4.0,331.7187729999773,1.0,1.0,part_1,,,,,,,,,,,,,orange,square
72.0,5.0,1.0,1.0,3.0,3.0,313.6468980000018,1.0,1.0,part_1,,,,,,,,,,,,,blue,diamond
32.0,1.0,1.0,0.0,3.0,3.0,279.5199679999882,1.0,1.0,part_1,,,,,,,,,,,,,orange,square
188.0,7.0,3.0,1.0,4.0,4.0,289.1476429999784,1.0,1.0,part_1,,,,,,,,,,,,,yellow,flipped triangle
0.0,7.0,0.0,1.0,3.0,3.0,322.5986859999921,1.0,1.0,part_1,,,,,,,,,,,,,yellow,flipped triangle
41.0,5.0,1.0,1.0,2.0,2.0,369.6445410000137,1.0,1.0,part_1,,,,,,,,,,,,,blue,diamond
215.0,7.0,3.0,1.0,3.0,3.0,341.1539539999921,1.0,1.0,part_1,,,,,,,,,,,,,yellow,flipped triangle
392.0,4.0,4.0,0.0,3.0,3.0,275.5156479999527,1.0,1.0,part_1,,,,,,,,,,,,,gray,I
108.0,2.0,2.0,0.0,1.0,1.0,405.868981000026,1.0,1.0,part_1,,,,,,,,,,,,,cyan,hexagon
47.0,1.0,1.0,0.0,1.0,1.0,287.3097170000278,1.0,1.0,part_1,,,,,,,,,,,,,orange,square
33.0,5.0,1.0,1.0,1.0,1.0,302.0544540000287,1.0,1.0,part_1,,,,,,,,,,,,,blue,diamond
196.0,3.0,3.0,0.0,1.0,1.0,277.9123760000175,1.0,1.0,part_1,,,,,,,,,,,,,white,triangle
50.0,1.0,1.0,0.0,1.0,1.0,278.5496899999771,1.0,1.0,part_1,,,,,,,,,,,,,orange,square
110.0,2.0,2.0,0.0,2.0,2.0,365.6956869999703,1.0,1.0,part_1,,,,,,,,,,,,,cyan,hexagon
176.0,7.0,3.0,1.0,3.0,3.0,344.3591550000064,1.0,1.0,part_1,,,,,,,,,,,,,yellow,flipped triangle
59.0,1.0,1.0,0.0,1.0,1.0,301.4874390000273,1.0,1.0,part_1,,,,,,,,,,,,,orange,square
214.0,7.0,3.0,1.0,1.0,1.0,275.2728499999648,1.0,1.0,part_1,,,,,,,,,,,,,yellow,flipped triangle
388.0,4.0,4.0,0.0,1.0,1.0,287.9276840000102,1.0,1.0,part_1,,,,,,,,,,,,,gray,I
106.0,2.0,2.0,0.0,3.0,3.0,337.094578999995,1.0,1.0,part_1,,,,,,,,,,,,,cyan,hexagon
220.0,7.0,3.0,1.0,1.0,1.0,273.8756749999993,1.0,1.0,part_1,,,,,,,,,,,,,yellow,flipped triangle
99.0,6.0,2.0,1.0,2.0,2.0,358.0102910000278,1.0,1.0,part_1,,,,,,,,,,,,,green,circle
42.0,5.0,1.0,1.0,2.0,2.0,373.3268530000373,1.0,1.0,part_1,,,,,,,,,,,,,blue,diamond
70.0,5.0,1.0,1.0,2.0,2.0,301.0597219999908,1.0,1.0,part_1,,,,,,,,,,,,,blue,diamond
183.0,3.0,3.0,0.0,1.0,1.0,281.7261060000078,1.0,1.0,part_1,,,,,,,,,,,,,white,triangle
185.0,7.0,3.0,1.0,2.0,2.0,265.979700999992,1.0,1.0,part_1,,,,,,,,,,,,,yellow,flipped triangle
0.0,6.0,0.0,1.0,1.0,1.0,264.2076110000175,1.0,1.0,part_1,,,,,,,,,,,,,green,circle
220.0,3.0,3.0,0.0,3.0,3.0,348.3283690000007,1.0,1.0,part_1,,,,,,,,,,,,,white,triangle
208.0,3.0,3.0,0.0,2.0,2.0,400.0288789999331,1.0,1.0,part_1,,,,,,,,,,,,,white,triangle
212.0,3.0,3.0,0.0,2.0,2.0,319.0361819999907,1.0,1.0,part_1,,,,,,,,,,,,,white,triangle
387.0,8.0,4.0,1.0,3.0,3.0,354.1279649999751,1.0,1.0,part_1,,,,,,,,,,,,,magenta,cross
390.0,8.0,4.0,1.0,1.0,1.0,288.2513180001069,1.0,1.0,part_1,,,,,,,,,,,,,magenta,cross
424.0,8.0,4.0,1.0,2.0,2.0,293.9008760000661,1.0,1.0,part_1,,,,,,,,,,,,,magenta,cross
0.0,2.0,0.0,0.0,1.0,1.0,256.7055950000849,1.0,1.0,part_1,,,,,,,,,,,,,cyan,hexagon
27.0,1.0,1.0,0.0,2.0,2.0,333.2468990000734,1.0,1.0,part_1,,,,,,,,,,,,,orange,square
99.0,2.0,2.0,0.0,4.0,4.0,430.0456360000453,1.0,1.0,part_1,,,,,,,,,,,,,cyan,hexagon
53.0,5.0,1.0,1.0,3.0,3.0,340.9701319999385,1.0,1.0,part_1,,,,,,,,,,,,,blue,diamond
387.0,4.0,4.0,0.0,4.0,4.0,343.7324289999424,1.0,1.0,part_1,,,,,,,,,,,,,gray,I
0.0,5.0,0.0,1.0,4.0,4.0,405.4169820000197,1.0,1.0,part_1,,,,,,,,,,,,,blue,diamond
219.0,7.0,3.0,1.0,4.0,4.0,323.5926170000311,1.0,1.0,part_1,,,,,,,,,,,,,yellow,flipped triangle
103.0,6.0,2.0,1.0,4.0,4.0,307.5352920000114,1.0,1.0,part_1,,,,,,,,,,,,,green,circle
59.0,5.0,1.0,1.0,2.0,2.0,423.7195590000056,1.0,1.0,part_1,,,,,,,,,,,,,blue,diamond
53.0,1.0,1.0,0.0,4.0,4.0,307.5580339999533,1.0,1.0,part_1,,,,,,,,,,,,,orange,square
0.0,8.0,0.0,1.0,1.0,1.0,362.3845810000148,1.0,1.0,part_1,,,,,,,,,,,,,magenta,cross
0.0,8.0,0.0,1.0,3.0,3.0,363.314786999922,1.0,1.0,part_1,,,,,,,,,,,,,magenta,cross
397.0,8.0,4.0,1.0,1.0,1.0,375.7313019999628,1.0,1.0,part_1,,,,,,,,,,,,,magenta,cross
424.0,4.0,4.0,0.0,2.0,2.0,395.9222360000467,1.0,1.0,part_1,,,,,,,,,,,,,gray,I
117.0,2.0,2.0,0.0,2.0,2.0,310.3520090000984,1.0,1.0,part_1,,,,,,,,,,,,,cyan,hexagon
49.0,1.0,1.0,0.0,2.0,2.0,281.9991779999782,1.0,1.0,part_1,,,,,,,,,,,,,orange,square
90.0,6.0,2.0,1.0,1.0,1.0,292.0900369999799,1.0,1.0,part_1,,,,,,,,,,,,,green,circle
94.0,6.0,2.0,1.0,1.0,1.0,275.6856239999479,1.0,1.0,part_1,,,,,,,,,,,,,green,circle
103.0,2.0,2.0,0.0,3.0,3.0,323.5086949999868,1.0,1.0,part_1,,,,,,,,,,,,,cyan,hexagon
218.0,3.0,3.0,0.0,2.0,2.0,397.7860029999647,1.0,1.0,part_1,,,,,,,,,,,,,white,triangle
190.0,7.0,3.0,1.0,2.0,2.0,271.7009819999703,1.0,1.0,part_1,,,,,,,,,,,,,yellow,flipped triangle
401.0,8.0,4.0,1.0,4.0,4.0,481.1036470000545,1.0,1.0,part_1,,,,,,,,,,,,,magenta,cross
181.0,3.0,3.0,0.0,1.0,1.0,347.8915769999275,1.0,1.0,part_1,,,,,,,,,,,,,white,triangle
0.0,8.0,0.0,1.0,2.0,2.0,307.3093279999739,1.0,1.0,part_1,,,,,,,,,,,,,magenta,cross
33.0,1.0,1.0,0.0,4.0,4.0,300.8749690000059,1.0,1.0,part_1,,,,,,,,,,,,,orange,square
103.0,6.0,2.0,1.0,1.0,1.0,305.7452680000097,1.0,1.0,part_1,,,,,,,,,,,,,green,circle
0.0,6.0,0.0,1.0,1.0,1.0,309.6541890000708,1.0,1.0,part_1,,,,,,,,,,,,,green,circle
63.0,1.0,1.0,0.0,4.0,4.0,379.4404090000398,1.0,1.0,part_1,,,,,,,,,,,,,orange,square
0.0,5.0,0.0,1.0,2.0,2.0,326.1069760000055,1.0,1.0,part_1,,,,,,,,,,,,,blue,diamond
44.0,1.0,1.0,0.0,2.0,2.0,330.81120999997887,1.0,1.0,part_1,,,,,,,,,,,,,orange,square
0.0,7.0,0.0,1.0,3.0,3.0,342.2109959999488,1.0,1.0,part_1,,,,,,,,,,,,,yellow,flipped triangle
108.0,6.0,2.0,1.0,2.0,2.0,284.7613209999053,1.0,1.0,part_1,,,,,,,,,,,,,green,circle
76.0,2.0,2.0,0.0,1.0,1.0,291.2666519999902,1.0,1.0,part_1,,,,,,,,,,,,,cyan,hexagon
73.0,1.0,1.0,0.0,4.0,4.0,361.3450020000073,1.0,1.0,part_1,,,,,,,,,,,,,orange,square
76.0,6.0,2.0,1.0,4.0,4.0,300.1652180000747,1.0,1.0,part_1,,,,,,,,,,,,,green,circle
101.0,2.0,2.0,0.0,3.0,3.0,337.7987170000551,1.0,1.0,part_1,,,,,,,,,,,,,cyan,hexagon
0.0,7.0,0.0,1.0,1.0,1.0,347.8097089999892,1.0,1.0,part_1,,,,,,,,,,,,,yellow,flipped triangle
181.0,7.0,3.0,1.0,2.0,2.0,303.3922549999488,1.0,1.0,part_1,,,,,,,,,,,,,yellow,flipped triangle
73.0,1.0,1.0,0.0,1.0,1.0,284.3501069999092,2.0,1.0,part_1,,,,,,,,,,,,,orange,square
89.0,2.0,2.0,0.0,4.0,4.0,311.4375810000638,2.0,1.0,part_1,,,,,,,,,,,,,cyan,hexagon
0.0,1.0,0.0,0.0,4.0,4.0,282.4715880000212,2.0,1.0,part_1,,,,,,,,,,,,,orange,square
32.0,5.0,1.0,1.0,4.0,4.0,284.2855190000364,2.0,1.0,part_1,,,,,,,,,,,,,blue,diamond
179.0,3.0,3.0,0.0,1.0,1.0,321.7899929999248,2.0,1.0,part_1,,,,,,,,,,,,,white,triangle
204.0,3.0,3.0,0.0,4.0,4.0,288.5595469999771,2.0,1.0,part_1,,,,,,,,,,,,,white,triangle
116.0,6.0,2.0,1.0,4.0,4.0,289.1716540000288,2.0,1.0,part_1,,,,,,,,,,,,,green,circle
0.0,1.0,0.0,0.0,1.0,1.0,357.1628710000141,2.0,1.0,part_1,,,,,,,,,,,,,orange,square
381.0,4.0,4.0,0.0,1.0,1.0,256.3156889999618,2.0,1.0,part_1,,,,,,,,,,,,,gray,I
420.0,4.0,4.0,0.0,4.0,4.0,311.5831819999357,2.0,1.0,part_1,,,,,,,,,,,,,gray,I
392.0,4.0,4.0,0.0,2.0,2.0,281.4379670001017,2.0,1.0,part_1,,,,,,,,,,,,,gray,I
0.0,5.0,0.0,1.0,2.0,2.0,295.7888980000689,2.0,1.0,part_1,,,,,,,,,,,,,blue,diamond
108.0,2.0,2.0,0.0,1.0,1.0,284.4131950000701,2.0,1.0,part_1,,,,,,,,,,,,,cyan,hexagon
81.0,6.0,2.0,1.0,1.0,1.0,284.717162999982,2.0,1.0,part_1,,,,,,,,,,,,,green,circle
0.0,2.0,0.0,0.0,2.0,2.0,301.6977160000351,2.0,1.0,part_1,,,,,,,,,,,,,cyan,hexagon
65.0,1.0,1.0,0.0,4.0,4.0,378.9943320000475,2.0,1.0,part_1,,,,,,,,,,,,,orange,square
78.0,2.0,2.0,0.0,4.0,4.0,367.0643379999774,2.0,1.0,part_1,,,,,,,,,,,,,cyan,hexagon
0.0,1.0,0.0,0.0,3.0,3.0,418.9239959999895,2.0,1.0,part_1,,,,,,,,,,,,,orange,square
179.0,7.0,3.0,1.0,3.0,3.0,277.163416999997,2.0,1.0,part_1,,,,,,,,,,,,,yellow,flipped triangle
75.0,1.0,1.0,0.0,2.0,2.0,433.0746619999672,2.0,1.0,part_1,,,,,,,,,,,,,orange,square
392.0,8.0,4.0,1.0,4.0,4.0,345.2073589999145,2.0,1.0,part_1,,,,,,,,,,,,,magenta,cross
90.0,6.0,2.0,1.0,1.0,1.0,260.0434390000146,2.0,1.0,part_1,,,,,,,,,,,,,green,circle
0.0,6.0,0.0,1.0,4.0,4.0,379.2521159999751,2.0,1.0,part_1,,,,,,,,,,,,,green,circle
225.0,3.0,3.0,0.0,3.0,3.0,339.8247889999766,2.0,1.0,part_1,,,,,,,,,,,,,white,triangle
190.0,3.0,3.0,0.0,3.0,3.0,321.0163039999543,2.0,1.0,part_1,,,,,,,,,,,,,white,triangle
81.0,2.0,2.0,0.0,1.0,1.0,287.2908560000269,2.0,1.0,part_1,,,,,,,,,,,,,cyan,hexagon
220.0,3.0,3.0,0.0,4.0,4.0,350.4120970000031,2.0,1.0,part_1,,,,,,,,,,,,,white,triangle
208.0,7.0,3.0,1.0,3.0,3.0,377.1986890000107,2.0,1.0,part_1,,,,,,,,,,,,,yellow,flipped triangle
423.0,4.0,4.0,0.0,1.0,1.0,349.7376239999994,2.0,1.0,part_1,,,,,,,,,,,,,gray,I
0.0,3.0,0.0,0.0,2.0,2.0,389.7631140000612,2.0,1.0,part_1,,,,,,,,,,,,,white,triangle
64.0,5.0,1.0,1.0,4.0,4.0,374.4318810000777,2.0,1.0,part_1,,,,,,,,,,,,,blue,diamond
0.0,2.0,0.0,0.0,3.0,3.0,280.3084670000544,2.0,1.0,part_1,,,,,,,,,,,,,cyan,hexagon
0.0,8.0,0.0,1.0,2.0,2.0,345.0781110000207,2.0,1.0,part_1,,,,,,,,,,,,,magenta,cross
177.0,3.0,3.0,0.0,4.0,4.0,278.9721960000406,2.0,1.0,part_1,,,,,,,,,,,,,white,triangle
72.0,1.0,1.0,0.0,4.0,4.0,294.601534000094,2.0,1.0,part_1,,,,,,,,,,,,,orange,square
0.0,5.0,0.0,1.0,2.0,2.0,246.2931279999338,2.0,1.0,part_1,,,,,,,,,,,,,blue,diamond
47.0,5.0,1.0,1.0,2.0,2.0,293.1119369999351,2.0,1.0,part_1,,,,,,,,,,,,,blue,diamond
204.0,3.0,3.0,0.0,4.0,4.0,359.777409000003,2.0,1.0,part_1,,,,,,,,,,,,,white,triangle
416.0,8.0,4.0,1.0,4.0,4.0,304.8201999999946,2.0,1.0,part_1,,,,,,,,,,,,,magenta,cross
405.0,8.0,4.0,1.0,3.0,3.0,356.6939510000111,2.0,1.0,part_1,,,,,,,,,,,,,magenta,cross
215.0,3.0,3.0,0.0,4.0,4.0,333.2920120000153,2.0,1.0,part_1,,,,,,,,,,,,,white,triangle
66.0,5.0,1.0,1.0,3.0,3.0,262.9836060000343,2.0,1.0,part_1,,,,,,,,,,,,,blue,diamond
401.0,4.0,4.0,0.0,2.0,2.0,366.6060639999386,2.0,1.0,part_1,,,,,,,,,,,,,gray,I
391.0,4.0,4.0,0.0,4.0,4.0,305.1504240000895,2.0,1.0,part_1,,,,,,,,,,,,,gray,I
45.0,1.0,1.0,0.0,2.0,2.0,274.8143090000212,2.0,1.0,part_1,,,,,,,,,,,,,orange,square
418.0,4.0,4.0,0.0,1.0,1.0,317.5334210000073,2.0,1.0,part_1,,,,,,,,,,,,,gray,I
398.0,4.0,4.0,0.0,2.0,2.0,299.5273510000515,2.0,1.0,part_1,,,,,,,,,,,,,gray,I
410.0,4.0,4.0,0.0,2.0,2.0,303.8191329999335,2.0,1.0,part_1,,,,,,,,,,,,,gray,I
92.0,6.0,2.0,1.0,3.0,3.0,325.0230520000059,2.0,1.0,part_1,,,,,,,,,,,,,green,circle
65.0,5.0,1.0,1.0,4.0,4.0,298.0771219999951,2.0,1.0,part_1,,,,,,,,,,,,,blue,diamond
50.0,5.0,1.0,1.0,1.0,1.0,298.1578710000576,2.0,1.0,part_1,,,,,,,,,,,,,blue,diamond
393.0,8.0,4.0,1.0,2.0,2.0,290.9956880000663,2.0,1.0,part_1,,,,,,,,,,,,,magenta,cross
0.0,4.0,0.0,0.0,1.0,1.0,299.4979869999952,2.0,1.0,part_1,,,,,,,,,,,,,gray,I
99.0,6.0,2.0,1.0,3.0,3.0,297.9749510000147,2.0,1.0,part_1,,,,,,,,,,,,,green,circle
44.0,5.0,1.0,1.0,1.0,1.0,283.4055600000056,2.0,1.0,part_1,,,,,,,,,,,,,blue,diamond
96.0,2.0,2.0,0.0,3.0,3.0,321.330135999915,2.0,1.0,part_1,,,,,,,,,,,,,cyan,hexagon
78.0,6.0,2.0,1.0,2.0,2.0,346.3610249999647,2.0,1.0,part_1,,,,,,,,,,,,,green,circle
405.0,8.0,4.0,1.0,2.0,2.0,271.3845419999643,2.0,1.0,part_1,,,,,,,,,,,,,magenta,cross
221.0,3.0,3.0,0.0,3.0,3.0,278.5545859999274,2.0,1.0,part_1,,,,,,,,,,,,,white,triangle
415.0,4.0,4.0,0.0,4.0,4.0,378.5180779999564,2.0,1.0,part_1,,,,,,,,,,,,,gray,I
76.0,2.0,2.0,0.0,1.0,1.0,375.4719479999266,2.0,1.0,part_1,,,,,,,,,,,,,cyan,hexagon
418.0,8.0,4.0,1.0,1.0,1.0,270.7610310000063,2.0,1.0,part_1,,,,,,,,,,,,,magenta,cross
63.0,5.0,1.0,1.0,3.0,3.0,318.7418420000085,2.0,1.0,part_1,,,,,,,,,,,,,blue,diamond
41.0,1.0,1.0,0.0,1.0,1.0,289.2886760000692,2.0,1.0,part_1,,,,,,,,,,,,,orange,square
190.0,7.0,3.0,1.0,4.0,4.0,291.7581210000435,2.0,1.0,part_1,,,,,,,,,,,,,yellow,flipped triangle
32.0,1.0,1.0,0.0,4.0,4.0,291.2711159999617,2.0,1.0,part_1,,,,,,,,,,,,,orange,square
115.0,2.0,2.0,0.0,2.0,2.0,538.3865300000252,2.0,1.0,part_1,,,,,,,,,,,,,cyan,hexagon
0.0,8.0,0.0,1.0,4.0,4.0,274.0197529999477,2.0,1.0,part_1,,,,,,,,,,,,,magenta,cross
221.0,3.0,3.0,0.0,3.0,3.0,292.8499000000784,2.0,1.0,part_1,,,,,,,,,,,,,white,triangle
190.0,3.0,3.0,0.0,1.0,1.0,312.4330020000343,2.0,1.0,part_1,,,,,,,,,,,,,white,triangle
125.0,6.0,2.0,1.0,1.0,1.0,313.4284420000313,2.0,1.0,part_1,,,,,,,,,,,,,green,circle
0.0,6.0,0.0,1.0,2.0,2.0,321.3240869999936,2.0,1.0,part_1,,,,,,,,,,,,,green,circle
375.0,4.0,4.0,0.0,1.0,1.0,246.102943999972,2.0,1.0,part_1,,,,,,,,,,,,,gray,I
204.0,7.0,3.0,1.0,4.0,4.0,289.5692949999784,2.0,1.0,part_1,,,,,,,,,,,,,yellow,flipped triangle
379.0,4.0,4.0,0.0,3.0,3.0,386.7954580000514,2.0,1.0,part_1,,,,,,,,,,,,,gray,I
60.0,5.0,1.0,1.0,4.0,4.0,295.6231829999751,2.0,1.0,part_1,,,,,,,,,,,,,blue,diamond
398.0,8.0,4.0,1.0,2.0,2.0,286.7844199998899,2.0,1.0,part_1,,,,,,,,,,,,,magenta,cross
0.0,2.0,0.0,0.0,1.0,1.0,324.5882290000281,2.0,1.0,part_1,,,,,,,,,,,,,cyan,hexagon
405.0,4.0,4.0,0.0,3.0,3.0,312.2554759999048,2.0,1.0,part_1,,,,,,,,,,,,,gray,I
189.0,3.0,3.0,0.0,4.0,4.0,373.6476550000134,2.0,1.0,part_1,,,,,,,,,,,,,white,triangle
42.0,1.0,1.0,0.0,1.0,1.0,296.3172529999838,2.0,1.0,part_1,,,,,,,,,,,,,orange,square
387.0,8.0,4.0,1.0,4.0,4.0,290.4316640000388,2.0,1.0,part_1,,,,,,,,,,,,,magenta,cross
60.0,1.0,1.0,0.0,3.0,3.0,323.0473979999715,2.0,1.0,part_1,,,,,,,,,,,,,orange,square
54.0,5.0,1.0,1.0,3.0,3.0,282.6111750000564,2.0,1.0,part_1,,,,,,,,,,,,,blue,diamond
396.0,4.0,4.0,0.0,3.0,3.0,323.7448039999435,2.0,1.0,part_1,,,,,,,,,,,,,gray,I
0.0,5.0,0.0,1.0,1.0,1.0,278.5363170000892,2.0,1.0,part_1,,,,,,,,,,,,,blue,diamond
27.0,1.0,1.0,0.0,3.0,3.0,274.652887000002,2.0,1.0,part_1,,,,,,,,,,,,,orange,square
189.0,3.0,3.0,0.0,2.0,2.0,291.5649699999676,2.0,1.0,part_1,,,,,,,,,,,,,white,triangle
396.0,8.0,4.0,1.0,1.0,1.0,279.755788999978,2.0,1.0,part_1,,,,,,,,,,,,,magenta,cross
122.0,6.0,2.0,1.0,1.0,1.0,342.5621339999907,2.0,1.0,part_1,,,,,,,,,,,,,green,circle
411.0,4.0,4.0,0.0,1.0,1.0,287.3122539999713,2.0,1.0,part_1,,,,,,,,,,,,,gray,I
49.0,5.0,1.0,1.0,3.0,3.0,331.5606029999571,2.0,1.0,part_1,,,,,,,,,,,,,blue,diamond
76.0,6.0,2.0,1.0,2.0,2.0,296.9863340000529,2.0,1.0,part_1,,,,,,,,,,,,,green,circle
125.0,2.0,2.0,0.0,1.0,1.0,327.2476739999774,2.0,1.0,part_1,,,,,,,,,,,,,cyan,hexagon
201.0,3.0,3.0,0.0,3.0,3.0,324.6770259999039,2.0,1.0,part_1,,,,,,,,,,,,,white,triangle
0.0,2.0,0.0,0.0,1.0,1.0,296.79595499999317,2.0,1.0,part_1,,,,,,,,,,,,,cyan,hexagon
189.0,7.0,3.0,1.0,3.0,3.0,307.4589020000076,2.0,2.0,part_1,,,,,,,,,,,,,yellow,flipped triangle
0.0,6.0,0.0,1.0,3.0,3.0,279.5961559999114,2.0,1.0,part_1,,,,,,,,,,,,,green,circle
185.0,3.0,3.0,0.0,2.0,2.0,358.4211260000529,2.0,1.0,part_1,,,,,,,,,,,,,white,triangle
59.0,5.0,1.0,1.0,2.0,2.0,257.1013710000898,2.0,1.0,part_1,,,,,,,,,,,,,blue,diamond
0.0,1.0,0.0,0.0,1.0,1.0,342.7426770000465,3.0,1.0,part_1,,,,,,,,,,,,,orange,square
70.0,1.0,1.0,0.0,3.0,3.0,309.3543860001091,3.0,1.0,part_1,,,,,,,,,,,,,orange,square
32.0,5.0,1.0,1.0,3.0,3.0,292.0372849999921,3.0,1.0,part_1,,,,,,,,,,,,,blue,diamond
56.0,5.0,1.0,1.0,1.0,1.0,240.7528469999533,3.0,1.0,part_1,,,,,,,,,,,,,blue,diamond
378.0,4.0,4.0,0.0,2.0,2.0,400.7442550000633,3.0,1.0,part_1,,,,,,,,,,,,,gray,I
214.0,7.0,3.0,1.0,4.0,4.0,354.7354529999893,3.0,1.0,part_1,,,,,,,,,,,,,yellow,flipped triangle
193.0,7.0,3.0,1.0,1.0,1.0,260.9536549999802,3.0,1.0,part_1,,,,,,,,,,,,,yellow,flipped triangle
188.0,3.0,3.0,0.0,2.0,2.0,265.1648989999557,3.0,1.0,part_1,,,,,,,,,,,,,white,triangle
392.0,8.0,4.0,1.0,1.0,1.0,311.1525960000563,3.0,1.0,part_1,,,,,,,,,,,,,magenta,cross
193.0,3.0,3.0,0.0,3.0,3.0,335.3159729999788,3.0,1.0,part_1,,,,,,,,,,,,,white,triangle
0.0,3.0,0.0,0.0,3.0,3.0,329.6989479999865,3.0,1.0,part_1,,,,,,,,,,,,,white,triangle
378.0,8.0,4.0,1.0,2.0,2.0,367.860563000022,3.0,1.0,part_1,,,,,,,,,,,,,magenta,cross
96.0,6.0,2.0,1.0,3.0,3.0,279.3169729999363,3.0,1.0,part_1,,,,,,,,,,,,,green,circle
0.0,7.0,0.0,1.0,1.0,1.0,309.024149000038,3.0,1.0,part_1,,,,,,,,,,,,,yellow,flipped triangle
0.0,1.0,0.0,0.0,4.0,4.0,312.7608610000152,3.0,1.0,part_1,,,,,,,,,,,,,orange,square
0.0,7.0,0.0,1.0,3.0,3.0,297.1972799999776,3.0,2.0,part_1,,,,,,,,,,,,,yellow,flipped triangle
0.0,1.0,0.0,0.0,1.0,1.0,408.0365889999484,3.0,1.0,part_1,,,,,,,,,,,,,orange,square
29.0,1.0,1.0,0.0,2.0,2.0,282.6638060000732,3.0,1.0,part_1,,,,,,,,,,,,,orange,square
0.0,2.0,0.0,0.0,4.0,4.0,751.9829979999031,3.0,1.0,part_1,,,,,,,,,,,,,cyan,hexagon
42.0,5.0,1.0,1.0,1.0,1.0,283.244649000153,3.0,1.0,part_1,,,,,,,,,,,,,blue,diamond
221.0,7.0,3.0,1.0,1.0,1.0,291.804250000041,3.0,1.0,part_1,,,,,,,,,,,,,yellow,flipped triangle
0.0,8.0,0.0,1.0,4.0,4.0,324.0843460000633,3.0,1.0,part_1,,,,,,,,,,,,,magenta,cross
0.0,5.0,0.0,1.0,1.0,1.0,284.8896820000846,3.0,1.0,part_1,,,,,,,,,,,,,blue,diamond
0.0,2.0,0.0,0.0,3.0,3.0,356.3016420000622,3.0,1.0,part_1,,,,,,,,,,,,,cyan,hexagon
395.0,8.0,4.0,1.0,3.0,3.0,334.2419769999196,3.0,1.0,part_1,,,,,,,,,,,,,magenta,cross
30.0,5.0,1.0,1.0,1.0,1.0,280.9926909999376,3.0,1.0,part_1,,,,,,,,,,,,,blue,diamond
204.0,7.0,3.0,1.0,1.0,1.0,223.6140960001194,3.0,1.0,part_1,,,,,,,,,,,,,yellow,flipped triangle
0.0,8.0,0.0,1.0,1.0,1.0,327.5475579998783,3.0,1.0,part_1,,,,,,,,,,,,,magenta,cross
0.0,8.0,0.0,1.0,3.0,3.0,258.3323410001412,3.0,2.0,part_1,,,,,,,,,,,,,magenta,cross
114.0,2.0,2.0,0.0,4.0,4.0,375.8689460000823,3.0,1.0,part_1,,,,,,,,,,,,,cyan,hexagon
179.0,7.0,3.0,1.0,2.0,2.0,281.8186749998403,3.0,1.0,part_1,,,,,,,,,,,,,yellow,flipped triangle
195.0,3.0,3.0,0.0,4.0,4.0,309.2042709999987,3.0,1.0,part_1,,,,,,,,,,,,,white,triangle
114.0,6.0,2.0,1.0,1.0,1.0,243.3935139999903,3.0,1.0,part_1,,,,,,,,,,,,,green,circle
0.0,5.0,0.0,1.0,3.0,3.0,311.8194240000775,3.0,1.0,part_1,,,,,,,,,,,,,blue,diamond
38.0,1.0,1.0,0.0,3.0,3.0,264.9816709999868,3.0,1.0,part_1,,,,,,,,,,,,,orange,square
75.0,5.0,1.0,1.0,2.0,2.0,269.633204999991,3.0,1.0,part_1,,,,,,,,,,,,,blue,diamond
101.0,6.0,2.0,1.0,2.0,2.0,306.7356819999531,3.0,1.0,part_1,,,,,,,,,,,,,green,circle
0.0,3.0,0.0,0.0,1.0,1.0,266.9953690001421,3.0,1.0,part_1,,,,,,,,,,,,,white,triangle
121.0,2.0,2.0,0.0,3.0,3.0,257.3321469999428,3.0,1.0,part_1,,,,,,,,,,,,,cyan,hexagon
89.0,6.0,2.0,1.0,4.0,4.0,301.0369900000569,3.0,2.0,part_1,,,,,,,,,,,,,green,circle
96.0,2.0,2.0,0.0,4.0,4.0,298.177393999822,3.0,1.0,part_1,,,,,,,,,,,,,cyan,hexagon
0.0,4.0,0.0,0.0,1.0,1.0,340.2842899999996,3.0,1.0,part_1,,,,,,,,,,,,,gray,I
383.0,8.0,4.0,1.0,3.0,3.0,299.4447200001104,3.0,1.0,part_1,,,,,,,,,,,,,magenta,cross
381.0,8.0,4.0,1.0,1.0,1.0,360.8367540000472,3.0,1.0,part_1,,,,,,,,,,,,,magenta,cross
52.0,5.0,1.0,1.0,1.0,1.0,287.8093629999512,3.0,1.0,part_1,,,,,,,,,,,,,blue,diamond
404.0,4.0,4.0,0.0,2.0,2.0,614.635428000156,3.0,1.0,part_1,,,,,,,,,,,,,gray,I
99.0,2.0,2.0,0.0,3.0,3.0,341.3746810001612,3.0,1.0,part_1,,,,,,,,,,,,,cyan,hexagon
387.0,4.0,4.0,0.0,4.0,4.0,331.9899120001537,3.0,2.0,part_1,,,,,,,,,,,,,gray,I
90.0,2.0,2.0,0.0,4.0,4.0,437.3963790001198,3.0,1.0,part_1,,,,,,,,,,,,,cyan,hexagon
183.0,7.0,3.0,1.0,2.0,2.0,259.6930770000654,3.0,1.0,part_1,,,,,,,,,,,,,yellow,flipped triangle
83.0,6.0,2.0,1.0,2.0,2.0,300.1329749999968,3.0,1.0,part_1,,,,,,,,,,,,,green,circle
95.0,6.0,2.0,1.0,4.0,4.0,316.6935579999972,3.0,1.0,part_1,,,,,,,,,,,,,green,circle
410.0,8.0,4.0,1.0,3.0,3.0,310.2748389999306,3.0,1.0,part_1,,,,,,,,,,,,,magenta,cross
114.0,2.0,2.0,0.0,2.0,2.0,482.9812429998128,3.0,1.0,part_1,,,,,,,,,,,,,cyan,hexagon
28.0,5.0,1.0,1.0,4.0,4.0,332.091083000023,3.0,1.0,part_1,,,,,,,,,,,,,blue,diamond
397.0,4.0,4.0,0.0,1.0,1.0,260.7827689998885,3.0,1.0,part_1,,,,,,,,,,,,,gray,I
197.0,7.0,3.0,1.0,1.0,1.0,302.2251339998547,3.0,1.0,part_1,,,,,,,,,,,,,yellow,flipped triangle
405.0,4.0,4.0,0.0,3.0,3.0,343.4684399999241,3.0,1.0,part_1,,,,,,,,,,,,,gray,I
420.0,8.0,4.0,1.0,4.0,4.0,367.8356589998657,3.0,1.0,part_1,,,,,,,,,,,,,magenta,cross
411.0,4.0,4.0,0.0,2.0,2.0,478.587994999998,3.0,1.0,part_1,,,,,,,,,,,,,gray,I
110.0,6.0,2.0,1.0,2.0,2.0,346.5990499998952,3.0,1.0,part_1,,,,,,,,,,,,,green,circle
52.0,1.0,1.0,0.0,1.0,1.0,341.8062129999271,3.0,1.0,part_1,,,,,,,,,,,,,orange,square
103.0,2.0,2.0,0.0,4.0,4.0,544.8500200000126,3.0,1.0,part_1,,,,,,,,,,,,,cyan,hexagon
393.0,4.0,4.0,0.0,3.0,3.0,478.0324330001804,3.0,1.0,part_1,,,,,,,,,,,,,gray,I
176.0,3.0,3.0,0.0,4.0,4.0,451.1335710001276,3.0,1.0,part_1,,,,,,,,,,,,,white,triangle
54.0,1.0,1.0,0.0,3.0,3.0,386.4026599999306,3.0,1.0,part_1,,,,,,,,,,,,,orange,square
0.0,4.0,0.0,0.0,2.0,2.0,409.8920569999791,3.0,1.0,part_1,,,,,,,,,,,,,gray,I
95.0,2.0,2.0,0.0,1.0,1.0,317.5759880000441,3.0,1.0,part_1,,,,,,,,,,,,,cyan,hexagon
47.0,1.0,1.0,0.0,1.0,1.0,283.9448970000831,3.0,1.0,part_1,,,,,,,,,,,,,orange,square
197.0,7.0,3.0,1.0,1.0,1.0,273.8244749998557,3.0,1.0,part_1,,,,,,,,,,,,,yellow,flipped triangle
197.0,3.0,3.0,0.0,3.0,3.0,302.549407000015,3.0,1.0,part_1,,,,,,,,,,,,,white,triangle
0.0,6.0,0.0,1.0,1.0,1.0,313.5999350001839,3.0,1.0,part_1,,,,,,,,,,,,,green,circle
177.0,7.0,3.0,1.0,1.0,1.0,286.9920810001076,3.0,1.0,part_1,,,,,,,,,,,,,yellow,flipped triangle
89.0,2.0,2.0,0.0,2.0,2.0,329.0184779998526,3.0,1.0,part_1,,,,,,,,,,,,,cyan,hexagon
216.0,3.0,3.0,0.0,1.0,1.0,307.5104959998498,3.0,1.0,part_1,,,,,,,,,,,,,white,triangle
64.0,1.0,1.0,0.0,4.0,4.0,311.7136419998587,3.0,1.0,part_1,,,,,,,,,,,,,orange,square
0.0,4.0,0.0,0.0,4.0,4.0,368.5659620000479,3.0,1.0,part_1,,,,,,,,,,,,,gray,I
391.0,8.0,4.0,1.0,2.0,2.0,280.5251190000035,3.0,1.0,part_1,,,,,,,,,,,,,magenta,cross
405.0,8.0,4.0,1.0,3.0,3.0,351.0012740000547,3.0,1.0,part_1,,,,,,,,,,,,,magenta,cross
39.0,5.0,1.0,1.0,1.0,1.0,353.4895660000074,3.0,1.0,part_1,,,,,,,,,,,,,blue,diamond
397.0,4.0,4.0,0.0,3.0,3.0,373.6186209998777,3.0,1.0,part_1,,,,,,,,,,,,,gray,I
423.0,8.0,4.0,1.0,1.0,1.0,318.7479539999458,3.0,1.0,part_1,,,,,,,,,,,,,magenta,cross
90.0,2.0,2.0,0.0,1.0,1.0,436.0138530000768,3.0,1.0,part_1,,,,,,,,,,,,,cyan,hexagon
122.0,2.0,2.0,0.0,4.0,4.0,454.4521430000259,3.0,1.0,part_1,,,,,,,,,,,,,cyan,hexagon
0.0,7.0,0.0,1.0,2.0,2.0,400.2515640002002,3.0,1.0,part_1,,,,,,,,,,,,,yellow,flipped triangle
0.0,4.0,0.0,0.0,4.0,4.0,292.2077589998935,3.0,1.0,part_1,,,,,,,,,,,,,gray,I
179.0,3.0,3.0,0.0,1.0,1.0,310.2808319999894,3.0,1.0,part_1,,,,,,,,,,,,,white,triangle
0.0,6.0,0.0,1.0,2.0,2.0,268.6230900001192,3.0,1.0,part_1,,,,,,,,,,,,,green,circle
0.0,8.0,0.0,1.0,2.0,2.0,279.3383450000419,3.0,1.0,part_1,,,,,,,,,,,,,magenta,cross
0.0,3.0,0.0,0.0,4.0,4.0,334.134511000002,3.0,1.0,part_1,,,,,,,,,,,,,white,triangle
411.0,8.0,4.0,1.0,3.0,3.0,367.246188000081,3.0,1.0,part_1,,,,,,,,,,,,,magenta,cross
34.0,1.0,1.0,0.0,1.0,1.0,351.8866429999434,3.0,1.0,part_1,,,,,,,,,,,,,orange,square
0.0,3.0,0.0,0.0,4.0,4.0,438.860853000051,3.0,1.0,part_1,,,,,,,,,,,,,white,triangle
109.0,6.0,2.0,1.0,3.0,3.0,521.5772569999899,3.0,1.0,part_1,,,,,,,,,,,,,green,circle
109.0,2.0,2.0,0.0,2.0,2.0,369.2392689999906,3.0,2.0,part_1,,,,,,,,,,,,,cyan,hexagon
381.0,8.0,4.0,1.0,4.0,4.0,459.3434650000745,3.0,1.0,part_1,,,,,,,,,,,,,magenta,cross
108.0,6.0,2.0,1.0,4.0,4.0,308.4458230000564,3.0,1.0,part_1,,,,,,,,,,,,,green,circle
214.0,3.0,3.0,0.0,1.0,1.0,384.8463330000413,3.0,1.0,part_1,,,,,,,,,,,,,white,triangle
190.0,7.0,3.0,1.0,2.0,2.0,306.9336379999186,3.0,1.0,part_1,,,,,,,,,,,,,yellow,flipped triangle
92.0,2.0,2.0,0.0,3.0,3.0,300.6350680000196,3.0,1.0,part_1,,,,,,,,,,,,,cyan,hexagon
0.0,4.0,0.0,0.0,2.0,2.0,353.6363310001889,4.0,1.0,part_1,,,,,,,,,,,,,gray,I
219.0,3.0,3.0,0.0,3.0,3.0,258.5175070000787,4.0,1.0,part_1,,,,,,,,,,,,,white,triangle
42.0,5.0,1.0,1.0,3.0,3.0,253.2813369998621,4.0,1.0,part_1,,,,,,,,,,,,,blue,diamond
118.0,6.0,2.0,1.0,3.0,3.0,305.831340000168,4.0,1.0,part_1,,,,,,,,,,,,,green,circle
106.0,6.0,2.0,1.0,3.0,3.0,318.0422600000838,4.0,1.0,part_1,,,,,,,,,,,,,green,circle
0.0,6.0,0.0,1.0,1.0,1.0,295.0224579999485,4.0,1.0,part_1,,,,,,,,,,,,,green,circle
383.0,4.0,4.0,0.0,4.0,4.0,365.2250240002104,4.0,1.0,part_1,,,,,,,,,,,,,gray,I
118.0,2.0,2.0,0.0,2.0,2.0,311.9205200000579,4.0,1.0,part_1,,,,,,,,,,,,,cyan,hexagon
192.0,3.0,3.0,0.0,3.0,3.0,323.8436310000452,4.0,1.0,part_1,,,,,,,,,,,,,white,triangle
195.0,7.0,3.0,1.0,2.0,2.0,317.2176149998904,4.0,1.0,part_1,,,,,,,,,,,,,yellow,flipped triangle
76.0,2.0,2.0,0.0,2.0,2.0,269.802805999916,4.0,1.0,part_1,,,,,,,,,,,,,cyan,hexagon
87.0,6.0,2.0,1.0,4.0,4.0,379.2506539998612,4.0,1.0,part_1,,,,,,,,,,,,,green,circle
0.0,6.0,0.0,1.0,1.0,1.0,375.6997549999141,4.0,1.0,part_1,,,,,,,,,,,,,green,circle
0.0,2.0,0.0,0.0,2.0,2.0,302.7819190001537,4.0,1.0,part_1,,,,,,,,,,,,,cyan,hexagon
0.0,2.0,0.0,0.0,1.0,1.0,295.8784429999923,4.0,1.0,part_1,,,,,,,,,,,,,cyan,hexagon
214.0,3.0,3.0,0.0,2.0,2.0,260.4827659999955,4.0,1.0,part_1,,,,,,,,,,,,,white,triangle
221.0,3.0,3.0,0.0,4.0,4.0,489.8352899999736,4.0,1.0,part_1,,,,,,,,,,,,,white,triangle
29.0,5.0,1.0,1.0,2.0,2.0,283.903890999909,4.0,1.0,part_1,,,,,,,,,,,,,blue,diamond
220.0,7.0,3.0,1.0,3.0,3.0,319.3227859999297,4.0,1.0,part_1,,,,,,,,,,,,,yellow,flipped triangle
83.0,2.0,2.0,0.0,1.0,1.0,313.3399769999414,4.0,1.0,part_1,,,,,,,,,,,,,cyan,hexagon
208.0,3.0,3.0,0.0,2.0,2.0,294.4418459999269,4.0,1.0,part_1,,,,,,,,,,,,,white,triangle
0.0,7.0,0.0,1.0,3.0,3.0,292.5284610000744,4.0,1.0,part_1,,,,,,,,,,,,,yellow,flipped triangle
67.0,5.0,1.0,1.0,1.0,1.0,440.1611190000949,4.0,1.0,part_1,,,,,,,,,,,,,blue,diamond
216.0,7.0,3.0,1.0,4.0,4.0,285.7400979999056,4.0,2.0,part_1,,,,,,,,,,,,,yellow,flipped triangle
201.0,7.0,3.0,1.0,3.0,3.0,229.5786359998146,4.0,2.0,part_1,,,,,,,,,,,,,yellow,flipped triangle
405.0,4.0,4.0,0.0,4.0,4.0,374.4272089998048,4.0,1.0,part_1,,,,,,,,,,,,,gray,I
388.0,8.0,4.0,1.0,1.0,1.0,316.5142309999282,4.0,1.0,part_1,,,,,,,,,,,,,magenta,cross
114.0,6.0,2.0,1.0,1.0,1.0,299.205794999807,4.0,1.0,part_1,,,,,,,,,,,,,green,circle
375.0,8.0,4.0,1.0,2.0,2.0,377.7409270001044,4.0,1.0,part_1,,,,,,,,,,,,,magenta,cross
0.0,3.0,0.0,0.0,2.0,2.0,309.5324670000536,4.0,1.0,part_1,,,,,,,,,,,,,white,triangle
189.0,7.0,3.0,1.0,2.0,2.0,303.2658990000527,4.0,1.0,part_1,,,,,,,,,,,,,yellow,flipped triangle
0.0,3.0,0.0,0.0,1.0,1.0,441.8877210000573,4.0,1.0,part_1,,,,,,,,,,,,,white,triangle
221.0,7.0,3.0,1.0,3.0,3.0,340.6320019998929,4.0,1.0,part_1,,,,,,,,,,,,,yellow,flipped triangle
0.0,5.0,0.0,1.0,1.0,1.0,316.482341999972,4.0,1.0,part_1,,,,,,,,,,,,,blue,diamond
417.0,4.0,4.0,0.0,3.0,3.0,426.773126000171,4.0,1.0,part_1,,,,,,,,,,,,,gray,I
208.0,7.0,3.0,1.0,3.0,3.0,395.4862860000503,4.0,1.0,part_1,,,,,,,,,,,,,yellow,flipped triangle
42.0,1.0,1.0,0.0,3.0,3.0,289.9323130000084,4.0,1.0,part_1,,,,,,,,,,,,,orange,square
0.0,6.0,0.0,1.0,3.0,3.0,272.6794370000789,4.0,1.0,part_1,,,,,,,,,,,,,green,circle
177.0,7.0,3.0,1.0,2.0,2.0,350.81080499981,4.0,1.0,part_1,,,,,,,,,,,,,yellow,flipped triangle
116.0,2.0,2.0,0.0,3.0,3.0,405.1555309999912,4.0,1.0,part_1,,,,,,,,,,,,,cyan,hexagon
28.0,1.0,1.0,0.0,3.0,3.0,323.4664270000849,4.0,1.0,part_1,,,,,,,,,,,,,orange,square
0.0,2.0,0.0,0.0,2.0,2.0,356.5447339999537,4.0,1.0,part_1,,,,,,,,,,,,,cyan,hexagon
416.0,8.0,4.0,1.0,2.0,2.0,374.0325910000592,4.0,1.0,part_1,,,,,,,,,,,,,magenta,cross
0.0,5.0,0.0,1.0,2.0,2.0,312.2630489999665,4.0,1.0,part_1,,,,,,,,,,,,,blue,diamond
73.0,5.0,1.0,1.0,2.0,2.0,395.1320529999975,4.0,1.0,part_1,,,,,,,,,,,,,blue,diamond
76.0,6.0,2.0,1.0,4.0,4.0,522.0076570001311,4.0,1.0,part_1,,,,,,,,,,,,,green,circle
196.0,7.0,3.0,1.0,4.0,4.0,344.2850569999791,4.0,1.0,part_1,,,,,,,,,,,,,yellow,flipped triangle
381.0,4.0,4.0,0.0,4.0,4.0,366.8205940000462,4.0,1.0,part_1,,,,,,,,,,,,,gray,I
401.0,4.0,4.0,0.0,4.0,4.0,480.833862000054,4.0,1.0,part_1,,,,,,,,,,,,,gray,I
192.0,7.0,3.0,1.0,2.0,2.0,347.0009790000858,4.0,1.0,part_1,,,,,,,,,,,,,yellow,flipped triangle
381.0,8.0,4.0,1.0,4.0,4.0,308.5878770000363,4.0,1.0,part_1,,,,,,,,,,,,,magenta,cross
404.0,8.0,4.0,1.0,1.0,1.0,370.7456680001542,4.0,1.0,part_1,,,,,,,,,,,,,magenta,cross
0.0,1.0,0.0,0.0,2.0,2.0,363.8374340000609,4.0,1.0,part_1,,,,,,,,,,,,,orange,square
401.0,8.0,4.0,1.0,2.0,2.0,476.4207580001312,4.0,1.0,part_1,,,,,,,,,,,,,magenta,cross
0.0,5.0,0.0,1.0,2.0,2.0,362.7631250001286,4.0,1.0,part_1,,,,,,,,,,,,,blue,diamond
212.0,7.0,3.0,1.0,4.0,4.0,430.110304999971,4.0,1.0,part_1,,,,,,,,,,,,,yellow,flipped triangle
38.0,5.0,1.0,1.0,1.0,1.0,452.9056710000532,4.0,1.0,part_1,,,,,,,,,,,,,blue,diamond
39.0,1.0,1.0,0.0,1.0,1.0,683.5385150000093,4.0,1.0,part_1,,,,,,,,,,,,,orange,square
76.0,2.0,2.0,0.0,2.0,2.0,266.2955369999054,4.0,1.0,part_1,,,,,,,,,,,,,cyan,hexagon
422.0,4.0,4.0,0.0,2.0,2.0,306.0531390001415,4.0,1.0,part_1,,,,,,,,,,,,,gray,I
30.0,1.0,1.0,0.0,2.0,2.0,287.52427699987487,4.0,1.0,part_1,,,,,,,,,,,,,orange,square
416.0,4.0,4.0,0.0,3.0,3.0,317.0111720000932,4.0,1.0,part_1,,,,,,,,,,,,,gray,I
81.0,2.0,2.0,0.0,1.0,1.0,328.2530050000787,4.0,1.0,part_1,,,,,,,,,,,,,cyan,hexagon
395.0,4.0,4.0,0.0,1.0,1.0,378.4487299999455,4.0,1.0,part_1,,,,,,,,,,,,,gray,I
190.0,3.0,3.0,0.0,1.0,1.0,262.1961999998348,4.0,1.0,part_1,,,,,,,,,,,,,white,triangle
0.0,7.0,0.0,1.0,4.0,4.0,544.8286789999202,4.0,1.0,part_1,,,,,,,,,,,,,yellow,flipped triangle
175.0,7.0,3.0,1.0,1.0,1.0,381.0972849998961,4.0,1.0,part_1,,,,,,,,,,,,,yellow,flipped triangle
67.0,1.0,1.0,0.0,2.0,2.0,269.7436880000623,4.0,1.0,part_1,,,,,,,,,,,,,orange,square
124.0,2.0,2.0,0.0,3.0,3.0,430.2782970000862,4.0,1.0,part_1,,,,,,,,,,,,,cyan,hexagon
121.0,6.0,2.0,1.0,2.0,2.0,307.8338130001157,4.0,1.0,part_1,,,,,,,,,,,,,green,circle
42.0,5.0,1.0,1.0,3.0,3.0,356.0026479999578,4.0,1.0,part_1,,,,,,,,,,,,,blue,diamond
390.0,4.0,4.0,0.0,3.0,3.0,286.2572540000201,4.0,1.0,part_1,,,,,,,,,,,,,gray,I
125.0,2.0,2.0,0.0,4.0,4.0,368.7648899999658,4.0,1.0,part_1,,,,,,,,,,,,,cyan,hexagon
197.0,3.0,3.0,0.0,2.0,2.0,340.0259570000798,4.0,1.0,part_1,,,,,,,,,,,,,white,triangle
115.0,6.0,2.0,1.0,3.0,3.0,272.004643999935,4.0,1.0,part_1,,,,,,,,,,,,,green,circle
47.0,5.0,1.0,1.0,2.0,2.0,286.0488490000534,4.0,1.0,part_1,,,,,,,,,,,,,blue,diamond
81.0,6.0,2.0,1.0,2.0,2.0,268.5111690000212,4.0,1.0,part_1,,,,,,,,,,,,,green,circle
408.0,8.0,4.0,1.0,2.0,2.0,372.9806799999551,4.0,1.0,part_1,,,,,,,,,,,,,magenta,cross
221.0,7.0,3.0,1.0,3.0,3.0,97.4984759998278,4.0,2.0,part_1,,,,,,,,,,,,,yellow,flipped triangle
0.0,3.0,0.0,0.0,1.0,1.0,410.282977999941,4.0,1.0,part_1,,,,,,,,,,,,,white,triangle
72.0,1.0,1.0,0.0,3.0,3.0,498.0841250001049,4.0,1.0,part_1,,,,,,,,,,,,,orange,square
381.0,4.0,4.0,0.0,1.0,1.0,297.7613939999628,4.0,1.0,part_1,,,,,,,,,,,,,gray,I
73.0,5.0,1.0,1.0,4.0,4.0,362.2828130000926,4.0,1.0,part_1,,,,,,,,,,,,,blue,diamond
72.0,5.0,1.0,1.0,3.0,3.0,334.1700819999005,4.0,1.0,part_1,,,,,,,,,,,,,blue,diamond
408.0,4.0,4.0,0.0,2.0,2.0,312.7790050000385,4.0,1.0,part_1,,,,,,,,,,,,,gray,I
96.0,6.0,2.0,1.0,1.0,1.0,321.6947970001911,4.0,1.0,part_1,,,,,,,,,,,,,green,circle
175.0,3.0,3.0,0.0,4.0,4.0,324.2512179999721,4.0,1.0,part_1,,,,,,,,,,,,,white,triangle
56.0,1.0,1.0,0.0,2.0,2.0,305.2777499999592,4.0,1.0,part_1,,,,,,,,,,,,,orange,square
27.0,5.0,1.0,1.0,4.0,4.0,333.1367210000735,4.0,1.0,part_1,,,,,,,,,,,,,blue,diamond
225.0,7.0,3.0,1.0,4.0,4.0,393.2782740000675,4.0,1.0,part_1,,,,,,,,,,,,,yellow,flipped triangle
42.0,1.0,1.0,0.0,4.0,4.0,274.5818759999565,4.0,1.0,part_1,,,,,,,,,,,,,orange,square
0.0,4.0,0.0,0.0,4.0,4.0,329.7763529999429,4.0,1.0,part_1,,,,,,,,,,,,,gray,I
0.0,4.0,0.0,0.0,1.0,1.0,361.5115879999848,4.0,1.0,part_1,,,,,,,,,,,,,gray,I
411.0,8.0,4.0,1.0,4.0,4.0,408.1398200000876,4.0,1.0,part_1,,,,,,,,,,,,,magenta,cross
117.0,6.0,2.0,1.0,3.0,3.0,403.1273869998131,4.0,1.0,part_1,,,,,,,,,,,,,green,circle
218.0,7.0,3.0,1.0,4.0,4.0,337.2673169999416,4.0,1.0,part_1,,,,,,,,,,,,,yellow,flipped triangle
0.0,1.0,0.0,0.0,3.0,3.0,457.8964120000819,4.0,1.0,part_1,,,,,,,,,,,,,orange,square
397.0,4.0,4.0,0.0,4.0,4.0,689.4116260000374,4.0,1.0,part_1,,,,,,,,,,,,,gray,I
397.0,8.0,4.0,1.0,4.0,4.0,322.3422859998663,4.0,1.0,part_1,,,,,,,,,,,,,magenta,cross
208.0,7.0,3.0,1.0,1.0,1.0,342.7945769999496,4.0,1.0,part_1,,,,,,,,,,,,,yellow,flipped triangle
0.0,3.0,3.0,0.0,6.0,6.0,338.3892269998796,1.0,0.0,part_2,go,250.0,250.0,1.0,,,,,,,,,white,triangle
0.0,3.0,3.0,0.0,5.0,5.0,258.2384219999767,1.0,0.0,part_2,go,250.0,250.0,1.0,,,,,,,,,white,triangle
0.0,2.0,2.0,0.0,6.0,6.0,227.3060529998929,1.0,0.0,part_2,go,250.0,250.0,1.0,,,,,,,,,cyan,hexagon
0.0,2.0,2.0,0.0,6.0,6.0,304.3967989999601,1.0,0.0,part_2,go,250.0,250.0,1.0,,,,,,,,,cyan,hexagon
0.0,8.0,4.0,1.0,5.0,5.0,399.2779090001477,1.0,0.0,part_2,stop,250.0,250.0,3.0,,,,,,,,,magenta,cross
0.0,5.0,1.0,1.0,6.0,6.0,287.6339070000995,1.0,0.0,part_2,stop,200.0,250.0,3.0,,,,,,,,,blue,diamond
0.0,4.0,4.0,0.0,5.0,5.0,257.3934389999976,1.0,0.0,part_2,go,200.0,200.0,1.0,,,,,,,,,gray,I
0.0,4.0,4.0,0.0,6.0,6.0,331.0025920000043,1.0,0.0,part_2,go,200.0,200.0,1.0,,,,,,,,,gray,I
0.0,7.0,3.0,1.0,6.0,6.0,374.5525360000101,1.0,0.0,part_2,stop,200.0,200.0,3.0,,,,,,,,,yellow,flipped triangle
0.0,5.0,1.0,1.0,5.0,5.0,299.1074349999962,1.0,0.0,part_2,stop,200.0,150.0,3.0,,,,,,,,,blue,diamond
0.0,3.0,3.0,0.0,6.0,6.0,593.7109520000377,1.0,0.0,part_2,go,150.0,150.0,1.0,,,,,,,,,white,triangle
0.0,8.0,4.0,1.0,5.0,5.0,394.6420439999656,1.0,0.0,part_2,go,150.0,150.0,1.0,,,,,,,,,magenta,cross
0.0,6.0,2.0,1.0,5.0,5.0,299.9801189998834,1.0,0.0,part_2,stop,150.0,150.0,3.0,,,,,,,,,green,circle
0.0,6.0,2.0,1.0,5.0,0.0,0.0,1.0,0.0,part_2,stop,100.0,150.0,4.0,,,,,,,,,green,circle
0.0,4.0,4.0,0.0,5.0,5.0,306.6376540000419,1.0,0.0,part_2,go,150.0,150.0,1.0,,,,,,,,,gray,I
0.0,6.0,2.0,1.0,5.0,5.0,285.8275759999742,1.0,0.0,part_2,stop,150.0,150.0,3.0,,,,,,,,,green,circle
0.0,5.0,1.0,1.0,5.0,0.0,0.0,1.0,0.0,part_2,stop,100.0,150.0,4.0,,,,,,,,,blue,diamond
0.0,4.0,4.0,0.0,6.0,6.0,318.4797040000831,1.0,0.0,part_2,go,150.0,150.0,1.0,,,,,,,,,gray,I
0.0,3.0,3.0,0.0,5.0,5.0,392.7240660000279,1.0,0.0,part_2,go,150.0,150.0,1.0,,,,,,,,,white,triangle
0.0,3.0,3.0,0.0,6.0,6.0,280.7034729999031,1.0,0.0,part_2,go,150.0,150.0,1.0,,,,,,,,,white,triangle
0.0,6.0,2.0,1.0,6.0,0.0,0.0,1.0,0.0,part_2,stop,150.0,150.0,4.0,,,,,,,,,green,circle
0.0,4.0,4.0,0.0,5.0,5.0,397.6201489999766,1.0,0.0,part_2,go,150.0,200.0,1.0,,,,,,,,,gray,I
0.0,1.0,1.0,0.0,5.0,5.0,338.1359889999658,1.0,0.0,part_2,go,150.0,200.0,1.0,,,,,,,,,orange,square
0.0,2.0,2.0,0.0,6.0,6.0,400.8433419999164,1.0,0.0,part_2,go,150.0,200.0,1.0,,,,,,,,,cyan,hexagon
0.0,6.0,2.0,1.0,6.0,6.0,322.0119750001231,1.0,0.0,part_2,stop,150.0,200.0,3.0,,,,,,,,,green,circle
0.0,8.0,4.0,1.0,5.0,0.0,0.0,1.0,0.0,part_2,stop,150.0,150.0,4.0,,,,,,,,,magenta,cross
0.0,4.0,4.0,0.0,5.0,5.0,461.2834930001099,1.0,0.0,part_2,go,200.0,150.0,1.0,,,,,,,,,gray,I
0.0,3.0,3.0,0.0,6.0,6.0,386.8745060001402,1.0,0.0,part_2,go,200.0,150.0,1.0,,,,,,,,,white,triangle
0.0,3.0,3.0,0.0,6.0,6.0,304.9777139999605,1.0,0.0,part_2,go,200.0,150.0,1.0,,,,,,,,,white,triangle
0.0,7.0,3.0,1.0,5.0,0.0,0.0,1.0,0.0,part_2,stop,200.0,150.0,4.0,,,,,,,,,yellow,flipped triangle
0.0,1.0,1.0,0.0,5.0,5.0,433.3231630000682,1.0,0.0,part_2,go,250.0,150.0,1.0,,,,,,,,,orange,square
0.0,2.0,2.0,0.0,5.0,5.0,323.0431050001243,1.0,0.0,part_2,go,250.0,150.0,1.0,,,,,,,,,cyan,hexagon
0.0,8.0,4.0,1.0,6.0,0.0,0.0,1.0,0.0,part_2,stop,250.0,150.0,4.0,,,,,,,,,magenta,cross
0.0,4.0,4.0,0.0,6.0,6.0,523.6936730000252,1.0,0.0,part_2,go,250.0,200.0,1.0,,,,,,,,,gray,I
0.0,6.0,2.0,1.0,6.0,6.0,337.0366209996973,1.0,0.0,part_2,stop,250.0,200.0,3.0,,,,,,,,,green,circle
0.0,7.0,3.0,1.0,6.0,0.0,0.0,1.0,0.0,part_2,stop,250.0,150.0,4.0,,,,,,,,,yellow,flipped triangle
0.0,8.0,4.0,1.0,5.0,0.0,0.0,2.0,0.0,part_2,stop,250.0,200.0,4.0,,,,,,,,,magenta,cross
0.0,3.0,3.0,0.0,5.0,5.0,276.8367630001194,2.0,0.0,part_2,go,300.0,200.0,1.0,,,,,,,,,white,triangle
0.0,8.0,4.0,1.0,5.0,5.0,334.4720709997091,2.0,0.0,part_2,stop,300.0,200.0,3.0,,,,,,,,,magenta,cross
0.0,4.0,4.0,0.0,6.0,6.0,395.2377330001582,2.0,0.0,part_2,go,250.0,200.0,1.0,,,,,,,,,gray,I
0.0,3.0,3.0,0.0,6.0,6.0,362.6491439999881,2.0,0.0,part_2,go,250.0,200.0,1.0,,,,,,,,,white,triangle
0.0,3.0,3.0,0.0,5.0,5.0,493.2839640000566,2.0,0.0,part_2,go,250.0,200.0,1.0,,,,,,,,,white,triangle
0.0,5.0,1.0,1.0,5.0,5.0,378.1282410000131,2.0,0.0,part_2,stop,250.0,200.0,3.0,,,,,,,,,blue,diamond
0.0,6.0,2.0,1.0,5.0,0.0,0.0,2.0,0.0,part_2,stop,200.0,200.0,4.0,,,,,,,,,green,circle
0.0,2.0,2.0,0.0,5.0,5.0,346.088416999919,2.0,0.0,part_2,go,250.0,200.0,1.0,,,,,,,,,cyan,hexagon
0.0,5.0,1.0,1.0,6.0,0.0,0.0,2.0,0.0,part_2,stop,250.0,200.0,4.0,,,,,,,,,blue,diamond
0.0,5.0,1.0,1.0,5.0,0.0,0.0,2.0,0.0,part_2,stop,250.0,250.0,4.0,,,,,,,,,blue,diamond
0.0,4.0,4.0,0.0,5.0,5.0,450.176717999966,2.0,0.0,part_2,go,300.0,250.0,1.0,,,,,,,,,gray,I
0.0,6.0,2.0,1.0,5.0,0.0,0.0,2.0,0.0,part_2,stop,300.0,250.0,4.0,,,,,,,,,green,circle
0.0,3.0,3.0,0.0,5.0,5.0,519.5961919998808,2.0,0.0,part_2,go,350.0,250.0,1.0,,,,,,,,,white,triangle
0.0,2.0,2.0,0.0,5.0,5.0,700.6056059999537,2.0,0.0,part_2,go,350.0,250.0,1.0,,,,,,,,,cyan,hexagon
0.0,6.0,2.0,1.0,5.0,0.0,0.0,2.0,0.0,part_2,stop,350.0,250.0,4.0,,,,,,,,,green,circle
0.0,5.0,1.0,1.0,6.0,6.0,405.946232000133,2.0,0.0,part_2,stop,400.0,250.0,3.0,,,,,,,,,blue,diamond
0.0,1.0,1.0,0.0,5.0,5.0,579.4319860001451,2.0,0.0,part_2,go,400.0,200.0,1.0,,,,,,,,,orange,square
0.0,5.0,1.0,1.0,6.0,6.0,340.4849209996428,2.0,0.0,part_2,go,400.0,200.0,1.0,,,,,,,,,blue,diamond
0.0,1.0,1.0,0.0,6.0,6.0,555.6252260003021,2.0,0.0,part_2,go,400.0,200.0,1.0,,,,,,,,,orange,square
0.0,2.0,2.0,0.0,6.0,6.0,518.1106119998731,2.0,0.0,part_2,go,400.0,200.0,1.0,,,,,,,,,cyan,hexagon
0.0,7.0,3.0,1.0,6.0,0.0,0.0,2.0,0.0,part_2,stop,400.0,200.0,4.0,,,,,,,,,yellow,flipped triangle
0.0,4.0,4.0,0.0,5.0,5.0,503.98089300006177,2.0,0.0,part_2,go,400.0,250.0,1.0,,,,,,,,,gray,I
0.0,8.0,4.0,1.0,6.0,0.0,0.0,2.0,0.0,part_2,stop,400.0,250.0,4.0,,,,,,,,,magenta,cross
0.0,3.0,3.0,0.0,5.0,5.0,372.4645109996345,2.0,0.0,part_2,go,400.0,300.0,1.0,,,,,,,,,white,triangle
0.0,2.0,2.0,0.0,5.0,5.0,365.1370389998192,2.0,0.0,part_2,go,400.0,300.0,1.0,,,,,,,,,cyan,hexagon
0.0,7.0,3.0,1.0,6.0,0.0,0.0,2.0,0.0,part_2,stop,400.0,300.0,4.0,,,,,,,,,yellow,flipped triangle
0.0,5.0,1.0,1.0,5.0,5.0,370.1616409998678,2.0,0.0,part_2,stop,400.0,350.0,3.0,,,,,,,,,blue,diamond
0.0,1.0,1.0,0.0,6.0,6.0,735.5041020000499,2.0,0.0,part_2,go,350.0,350.0,1.0,,,,,,,,,orange,square
0.0,3.0,3.0,0.0,5.0,5.0,476.1285869999483,2.0,0.0,part_2,go,350.0,350.0,1.0,,,,,,,,,white,triangle
0.0,1.0,1.0,0.0,6.0,6.0,562.3291189999691,2.0,0.0,part_2,go,350.0,350.0,1.0,,,,,,,,,orange,square
0.0,4.0,4.0,0.0,6.0,6.0,548.1733659999009,2.0,0.0,part_2,go,350.0,350.0,1.0,,,,,,,,,gray,I
0.0,6.0,2.0,1.0,5.0,5.0,387.7907109999796,2.0,0.0,part_2,stop,350.0,350.0,3.0,,,,,,,,,green,circle
0.0,1.0,1.0,0.0,6.0,6.0,548.032400000011,2.0,0.0,part_2,go,300.0,350.0,1.0,,,,,,,,,orange,square
0.0,2.0,2.0,0.0,5.0,5.0,549.9125340002138,2.0,0.0,part_2,go,300.0,350.0,1.0,,,,,,,,,cyan,hexagon
0.0,3.0,3.0,0.0,6.0,6.0,421.7737479998504,2.0,0.0,part_2,go,300.0,350.0,1.0,,,,,,,,,white,triangle
0.0,7.0,3.0,1.0,6.0,6.0,408.1858800000191,3.0,0.0,part_2,stop,300.0,350.0,3.0,,,,,,,,,yellow,flipped triangle
0.0,2.0,2.0,0.0,6.0,6.0,366.3946149999901,3.0,0.0,part_2,go,300.0,300.0,1.0,,,,,,,,,cyan,hexagon
0.0,2.0,2.0,0.0,6.0,6.0,457.0714800001951,3.0,0.0,part_2,go,300.0,300.0,1.0,,,,,,,,,cyan,hexagon
0.0,4.0,4.0,0.0,5.0,5.0,422.0908810002584,3.0,0.0,part_2,go,300.0,300.0,1.0,,,,,,,,,gray,I
0.0,7.0,3.0,1.0,5.0,5.0,425.4927870001666,3.0,0.0,part_2,go,300.0,300.0,1.0,,,,,,,,,yellow,flipped triangle
0.0,2.0,2.0,0.0,5.0,5.0,450.4887879998023,3.0,0.0,part_2,go,300.0,300.0,1.0,,,,,,,,,cyan,hexagon
0.0,8.0,4.0,1.0,6.0,6.0,411.2306580000222,3.0,0.0,part_2,stop,300.0,300.0,3.0,,,,,,,,,magenta,cross
0.0,1.0,1.0,0.0,6.0,6.0,583.3259900000485,3.0,0.0,part_2,go,300.0,250.0,1.0,,,,,,,,,orange,square
0.0,6.0,2.0,1.0,5.0,5.0,533.5090459998355,3.0,0.0,part_2,go,300.0,250.0,1.0,,,,,,,,,green,circle
0.0,7.0,3.0,1.0,5.0,5.0,397.9420100004063,3.0,0.0,part_2,go,300.0,250.0,1.0,,,,,,,,,yellow,flipped triangle
0.0,8.0,4.0,1.0,5.0,5.0,551.8997469998794,3.0,0.0,part_2,go,300.0,250.0,1.0,,,,,,,,,magenta,cross
0.0,5.0,1.0,1.0,6.0,0.0,0.0,3.0,0.0,part_2,stop,300.0,250.0,4.0,,,,,,,,,blue,diamond
0.0,6.0,2.0,1.0,6.0,0.0,0.0,3.0,0.0,part_2,stop,300.0,300.0,4.0,,,,,,,,,green,circle
0.0,7.0,3.0,1.0,6.0,6.0,612.1388429996841,3.0,0.0,part_2,go,300.0,350.0,1.0,,,,,,,,,yellow,flipped triangle
0.0,4.0,4.0,0.0,5.0,5.0,545.5616740000551,3.0,0.0,part_2,go,300.0,350.0,1.0,,,,,,,,,gray,I
0.0,7.0,3.0,1.0,5.0,5.0,348.72845100017,3.0,0.0,part_2,stop,300.0,350.0,3.0,,,,,,,,,yellow,flipped triangle
0.0,8.0,4.0,1.0,6.0,0.0,0.0,3.0,0.0,part_2,stop,250.0,350.0,4.0,,,,,,,,,magenta,cross
0.0,2.0,2.0,0.0,5.0,5.0,396.3054210003065,3.0,0.0,part_2,go,250.0,400.0,1.0,,,,,,,,,cyan,hexagon
0.0,1.0,1.0,0.0,5.0,5.0,534.2260219999844,3.0,0.0,part_2,go,250.0,400.0,1.0,,,,,,,,,orange,square
0.0,8.0,4.0,1.0,5.0,0.0,0.0,3.0,0.0,part_2,stop,250.0,400.0,4.0,,,,,,,,,magenta,cross
0.0,2.0,2.0,0.0,6.0,6.0,628.1653430000915,3.0,0.0,part_2,go,300.0,400.0,1.0,,,,,,,,,cyan,hexagon
0.0,6.0,2.0,1.0,5.0,5.0,560.0694659997316,3.0,0.0,part_2,go,300.0,400.0,1.0,,,,,,,,,green,circle
0.0,3.0,3.0,0.0,5.0,5.0,574.8064600002181,3.0,0.0,part_2,go,300.0,400.0,1.0,,,,,,,,,white,triangle
0.0,1.0,1.0,0.0,5.0,5.0,412.2674650002409,3.0,0.0,part_2,go,300.0,400.0,1.0,,,,,,,,,orange,square
0.0,1.0,1.0,0.0,5.0,5.0,346.7245629999524,3.0,0.0,part_2,go,300.0,400.0,1.0,,,,,,,,,orange,square
0.0,3.0,3.0,0.0,5.0,5.0,319.5349460002035,3.0,0.0,part_2,go,300.0,400.0,1.0,,,,,,,,,white,triangle
0.0,3.0,3.0,0.0,5.0,5.0,420.3639639999892,3.0,0.0,part_2,go,300.0,400.0,1.0,,,,,,,,,white,triangle
0.0,6.0,2.0,1.0,5.0,0.0,0.0,3.0,0.0,part_2,stop,300.0,400.0,4.0,,,,,,,,,green,circle
0.0,5.0,1.0,1.0,5.0,5.0,441.7892800001937,3.0,0.0,part_2,stop,350.0,400.0,3.0,,,,,,,,,blue,diamond
0.0,2.0,2.0,0.0,6.0,6.0,539.2634929999076,3.0,0.0,part_2,go,300.0,400.0,1.0,,,,,,,,,cyan,hexagon
0.0,6.0,2.0,1.0,5.0,0.0,0.0,3.0,0.0,part_2,stop,300.0,400.0,4.0,,,,,,,,,green,circle
0.0,6.0,2.0,1.0,5.0,5.0,438.1025970001246,3.0,0.0,part_2,go,350.0,400.0,1.0,,,,,,,,,green,circle
0.0,1.0,1.0,0.0,6.0,6.0,493.6999000001378,3.0,0.0,part_2,go,350.0,400.0,1.0,,,,,,,,,orange,square
0.0,3.0,3.0,0.0,6.0,6.0,528.8189190000594,3.0,0.0,part_2,go,350.0,400.0,1.0,,,,,,,,,white,triangle
0.0,1.0,1.0,0.0,5.0,5.0,522.1527520002383,3.0,0.0,part_2,go,350.0,400.0,1.0,,,,,,,,,orange,square
0.0,5.0,1.0,1.0,5.0,0.0,0.0,3.0,0.0,part_2,stop,350.0,400.0,4.0,,,,,,,,,blue,diamond
0.0,4.0,4.0,0.0,5.0,5.0,505.06005499983075,4.0,0.0,part_2,go,400.0,400.0,1.0,,,,,,,,,gray,I
0.0,4.0,4.0,0.0,6.0,6.0,359.5290230000501,4.0,0.0,part_2,go,400.0,400.0,1.0,,,,,,,,,gray,I
0.0,7.0,3.0,1.0,5.0,5.0,366.8018739999752,4.0,0.0,part_2,stop,400.0,400.0,3.0,,,,,,,,,yellow,flipped triangle
0.0,4.0,4.0,0.0,6.0,6.0,604.8936329998469,4.0,0.0,part_2,go,350.0,400.0,1.0,,,,,,,,,gray,I
0.0,5.0,1.0,1.0,5.0,5.0,465.8604880000894,4.0,0.0,part_2,go,350.0,400.0,1.0,,,,,,,,,blue,diamond
0.0,1.0,1.0,0.0,5.0,5.0,383.0664339998293,4.0,0.0,part_2,go,350.0,400.0,1.0,,,,,,,,,orange,square
0.0,4.0,4.0,0.0,6.0,6.0,527.0407329999216,4.0,0.0,part_2,go,350.0,400.0,1.0,,,,,,,,,gray,I
0.0,5.0,1.0,1.0,6.0,6.0,383.2097730000896,4.0,0.0,part_2,stop,350.0,400.0,3.0,,,,,,,,,blue,diamond
0.0,8.0,4.0,1.0,6.0,0.0,0.0,4.0,0.0,part_2,stop,350.0,350.0,4.0,,,,,,,,,magenta,cross
0.0,2.0,2.0,0.0,6.0,6.0,617.1616809997431,4.0,0.0,part_2,go,350.0,400.0,1.0,,,,,,,,,cyan,hexagon
0.0,6.0,2.0,1.0,6.0,6.0,383.8403800000378,4.0,0.0,part_2,go,350.0,400.0,1.0,,,,,,,,,green,circle
0.0,3.0,3.0,0.0,5.0,5.0,620.6292800002302,4.0,0.0,part_2,go,350.0,400.0,1.0,,,,,,,,,white,triangle
0.0,1.0,1.0,0.0,6.0,6.0,538.9186890001838,4.0,0.0,part_2,go,350.0,400.0,1.0,,,,,,,,,orange,square
0.0,4.0,4.0,0.0,5.0,5.0,477.1487449997948,4.0,0.0,part_2,go,350.0,400.0,1.0,,,,,,,,,gray,I
0.0,4.0,4.0,0.0,5.0,5.0,500.60590400016736,4.0,0.0,part_2,go,350.0,400.0,1.0,,,,,,,,,gray,I
0.0,2.0,2.0,0.0,5.0,5.0,495.8100740000191,4.0,0.0,part_2,go,350.0,400.0,1.0,,,,,,,,,cyan,hexagon
0.0,4.0,4.0,0.0,5.0,5.0,441.8417669999144,4.0,0.0,part_2,go,350.0,400.0,1.0,,,,,,,,,gray,I
0.0,8.0,4.0,1.0,5.0,0.0,0.0,4.0,0.0,part_2,stop,350.0,400.0,4.0,,,,,,,,,magenta,cross
0.0,5.0,1.0,1.0,5.0,5.0,319.3953640002291,4.0,0.0,part_2,stop,400.0,400.0,3.0,,,,,,,,,blue,diamond
0.0,1.0,1.0,0.0,5.0,5.0,612.4160990002565,4.0,0.0,part_2,go,350.0,400.0,1.0,,,,,,,,,orange,square
0.0,1.0,1.0,0.0,5.0,5.0,675.6349030001729,4.0,0.0,part_2,go,350.0,400.0,1.0,,,,,,,,,orange,square
0.0,7.0,3.0,1.0,5.0,0.0,0.0,4.0,0.0,part_2,stop,350.0,400.0,4.0,,,,,,,,,yellow,flipped triangle
0.0,4.0,4.0,0.0,6.0,6.0,461.8273020000742,4.0,0.0,part_2,go,400.0,400.0,1.0,,,,,,,,,gray,I
0.0,4.0,4.0,0.0,6.0,6.0,426.6135719999511,4.0,0.0,part_2,go,400.0,400.0,1.0,,,,,,,,,gray,I
0.0,2.0,2.0,0.0,5.0,5.0,619.9022369996783,4.0,0.0,part_2,go,400.0,400.0,1.0,,,,,,,,,cyan,hexagon
0.0,8.0,4.0,1.0,6.0,0.0,0.0,4.0,0.0,part_2,stop,400.0,400.0,4.0,,,,,,,,,magenta,cross
0.0,7.0,3.0,1.0,6.0,6.0,651.8015080000623,4.0,0.0,part_2,go,400.0,450.0,1.0,,,,,,,,,yellow,flipped triangle
0.0,6.0,2.0,1.0,6.0,0.0,0.0,4.0,0.0,part_2,stop,400.0,450.0,4.0,,,,,,,,,green,circle
0.0,2.0,2.0,0.0,5.0,5.0,619.7793589999492,4.0,0.0,part_2,go,400.0,500.0,1.0,,,,,,,,,cyan,hexagon
0.0,1.0,1.0,0.0,6.0,6.0,702.4961279998934,4.0,0.0,part_2,go,400.0,500.0,1.0,,,,,,,,,orange,square
0.0,6.0,2.0,1.0,6.0,0.0,0.0,4.0,0.0,part_2,stop,400.0,500.0,4.0,,,,,,,,,green,circle
0.0,4.0,4.0,0.0,6.0,6.0,522.2629950003466,4.0,0.0,part_2,go,400.0,550.0,1.0,,,,,,,,,gray,I
0.0,7.0,3.0,1.0,5.0,5.0,597.6662639995993,4.0,0.0,part_2,stop,400.0,550.0,3.0,,,,,,,,,yellow,flipped triangle
0.0,6.0,2.0,1.0,5.0,0.0,0.0,4.0,0.0,part_2,stop,350.0,550.0,4.0,,,,,,,,,green,circle
0.0,1.0,1.0,0.0,5.0,5.0,546.3401169999997,4.0,0.0,part_2,go,400.0,550.0,1.0,,,,,,,,,orange,square
0.0,6.0,2.0,1.0,5.0,0.0,0.0,4.0,0.0,part_2,stop,400.0,550.0,4.0,,,,,,,,,green,circle
0.0,1.0,1.0,0.0,6.0,6.0,433.8377310000396,5.0,0.0,part_2,go,450.0,550.0,1.0,,,,,,,,,orange,square
0.0,8.0,4.0,1.0,6.0,6.0,559.6092620003219,5.0,0.0,part_2,go,450.0,550.0,1.0,,,,,,,,,magenta,cross
0.0,1.0,1.0,0.0,6.0,6.0,325.1940860000104,5.0,0.0,part_2,go,450.0,550.0,1.0,,,,,,,,,orange,square
0.0,7.0,3.0,1.0,6.0,6.0,337.0072939997044,5.0,0.0,part_2,stop,450.0,550.0,3.0,,,,,,,,,yellow,flipped triangle
0.0,8.0,4.0,1.0,6.0,6.0,628.1191759999274,5.0,0.0,part_2,stop,450.0,500.0,3.0,,,,,,,,,magenta,cross
0.0,3.0,3.0,0.0,6.0,6.0,733.793367999624,5.0,0.0,part_2,go,450.0,450.0,1.0,,,,,,,,,white,triangle
0.0,4.0,4.0,0.0,6.0,6.0,536.908542999754,5.0,0.0,part_2,go,450.0,450.0,1.0,,,,,,,,,gray,I
0.0,2.0,2.0,0.0,6.0,6.0,581.8938630000048,5.0,0.0,part_2,go,450.0,450.0,1.0,,,,,,,,,cyan,hexagon
0.0,7.0,3.0,1.0,5.0,0.0,0.0,5.0,0.0,part_2,stop,450.0,450.0,4.0,,,,,,,,,yellow,flipped triangle
0.0,6.0,2.0,1.0,6.0,6.0,574.2822000001979,5.0,0.0,part_2,go,500.0,450.0,1.0,,,,,,,,,green,circle
0.0,5.0,1.0,1.0,5.0,0.0,0.0,5.0,0.0,part_2,stop,500.0,450.0,4.0,,,,,,,,,blue,diamond
0.0,1.0,1.0,0.0,6.0,6.0,786.7249650003032,5.0,0.0,part_2,go,550.0,450.0,1.0,,,,,,,,,orange,square
0.0,6.0,2.0,1.0,6.0,6.0,719.9455520003539,5.0,0.0,part_2,go,550.0,450.0,1.0,,,,,,,,,green,circle
0.0,7.0,3.0,1.0,5.0,5.0,659.473399000035,5.0,0.0,part_2,stop,550.0,450.0,3.0,,,,,,,,,yellow,flipped triangle
0.0,4.0,4.0,0.0,5.0,5.0,885.9305369996946,5.0,0.0,part_2,go,500.0,450.0,1.0,,,,,,,,,gray,I
0.0,1.0,1.0,0.0,6.0,6.0,483.151997999812,5.0,0.0,part_2,go,500.0,450.0,1.0,,,,,,,,,orange,square
0.0,7.0,3.0,1.0,6.0,6.0,631.5528949999134,5.0,0.0,part_2,stop,500.0,450.0,3.0,,,,,,,,,yellow,flipped triangle
0.0,5.0,1.0,1.0,5.0,0.0,0.0,5.0,0.0,part_2,stop,500.0,400.0,4.0,,,,,,,,,blue,diamond
0.0,3.0,3.0,0.0,5.0,5.0,380.095830999835,5.0,0.0,part_2,go,550.0,400.0,1.0,,,,,,,,,white,triangle
0.0,7.0,3.0,1.0,5.0,5.0,605.1684959998056,5.0,0.0,part_2,stop,550.0,400.0,3.0,,,,,,,,,yellow,flipped triangle
0.0,1.0,1.0,0.0,5.0,5.0,968.2824169999548,5.0,0.0,part_2,go,500.0,400.0,1.0,,,,,,,,,orange,square
0.0,6.0,2.0,1.0,5.0,5.0,617.725837999842,5.0,0.0,part_2,stop,500.0,400.0,3.0,,,,,,,,,green,circle
0.0,4.0,4.0,0.0,6.0,6.0,597.169010000016,5.0,0.0,part_2,go,450.0,400.0,1.0,,,,,,,,,gray,I
0.0,5.0,1.0,1.0,6.0,6.0,573.2472859999689,5.0,0.0,part_2,stop,450.0,400.0,3.0,,,,,,,,,blue,diamond
0.0,7.0,3.0,1.0,5.0,0.0,0.0,5.0,0.0,part_2,stop,450.0,350.0,4.0,,,,,,,,,yellow,flipped triangle
0.0,3.0,3.0,0.0,6.0,6.0,801.3500010001735,5.0,0.0,part_2,go,500.0,350.0,1.0,,,,,,,,,white,triangle
0.0,7.0,3.0,1.0,5.0,0.0,0.0,5.0,0.0,part_2,stop,500.0,350.0,4.0,,,,,,,,,yellow,flipped triangle
0.0,1.0,1.0,0.0,6.0,6.0,795.2446700001019,5.0,0.0,part_2,go,550.0,350.0,1.0,,,,,,,,,orange,square
0.0,8.0,4.0,1.0,5.0,5.0,748.6343850000594,5.0,0.0,part_2,go,550.0,350.0,1.0,,,,,,,,,magenta,cross
0.0,3.0,3.0,0.0,5.0,5.0,687.7035530001194,5.0,0.0,part_2,go,550.0,350.0,1.0,,,,,,,,,white,triangle
0.0,2.0,2.0,0.0,5.0,5.0,598.0178830000114,5.0,0.0,part_2,go,550.0,350.0,1.0,,,,,,,,,cyan,hexagon
0.0,4.0,4.0,0.0,6.0,6.0,693.2316269999319,5.0,0.0,part_2,go,550.0,350.0,1.0,,,,,,,,,gray,I
0.0,4.0,4.0,0.0,5.0,5.0,741.2256940001498,5.0,0.0,part_2,go,550.0,350.0,1.0,,,,,,,,,gray,I
0.0,8.0,4.0,1.0,6.0,0.0,0.0,5.0,0.0,part_2,stop,550.0,350.0,4.0,,,,,,,,,magenta,cross
0.0,7.0,3.0,1.0,5.0,5.0,599.9852380000448,5.0,0.0,part_2,stop,550.0,400.0,3.0,,,,,,,,,yellow,flipped triangle
0.0,5.0,1.0,1.0,6.0,6.0,917.5370689999908,5.0,0.0,part_2,go,500.0,400.0,1.0,,,,,,,,,blue,diamond
0.0,8.0,4.0,1.0,6.0,6.0,402.1182659998885,6.0,0.0,part_2,go,500.0,400.0,1.0,,,,,,,,,magenta,cross
0.0,7.0,3.0,1.0,6.0,6.0,333.318409000185,6.0,0.0,part_2,stop,500.0,400.0,3.0,,,,,,,,,yellow,flipped triangle
0.0,4.0,4.0,0.0,6.0,6.0,607.6117739999063,6.0,0.0,part_2,go,500.0,350.0,1.0,,,,,,,,,gray,I
0.0,8.0,4.0,1.0,5.0,5.0,298.2807510002203,6.0,0.0,part_2,stop,500.0,350.0,3.0,,,,,,,,,magenta,cross
0.0,6.0,2.0,1.0,6.0,6.0,723.1065810001382,6.0,0.0,part_2,go,450.0,350.0,1.0,,,,,,,,,green,circle
0.0,3.0,3.0,0.0,6.0,6.0,507.50371499998437,6.0,0.0,part_2,go,450.0,350.0,1.0,,,,,,,,,white,triangle
0.0,5.0,1.0,1.0,6.0,6.0,312.4852549999559,6.0,0.0,part_2,go,450.0,350.0,1.0,,,,,,,,,blue,diamond
0.0,8.0,4.0,1.0,6.0,6.0,465.3187379999508,6.0,0.0,part_2,stop,450.0,350.0,3.0,,,,,,,,,magenta,cross
0.0,8.0,4.0,1.0,5.0,5.0,627.7031949998673,6.0,0.0,part_2,stop,450.0,300.0,3.0,,,,,,,,,magenta,cross
0.0,2.0,2.0,0.0,5.0,5.0,779.0347649997784,6.0,0.0,part_2,go,400.0,300.0,1.0,,,,,,,,,cyan,hexagon
0.0,1.0,1.0,0.0,6.0,6.0,662.3921129998962,6.0,0.0,part_2,go,400.0,300.0,1.0,,,,,,,,,orange,square
0.0,1.0,1.0,0.0,5.0,5.0,721.5192560001924,6.0,0.0,part_2,go,400.0,300.0,1.0,,,,,,,,,orange,square
0.0,6.0,2.0,1.0,6.0,6.0,481.2980269998661,6.0,0.0,part_2,stop,400.0,300.0,3.0,,,,,,,,,green,circle
0.0,3.0,3.0,0.0,6.0,6.0,610.87008100003,6.0,0.0,part_2,go,400.0,250.0,1.0,,,,,,,,,white,triangle
0.0,5.0,1.0,1.0,5.0,5.0,527.6059529996928,6.0,0.0,part_2,stop,400.0,250.0,3.0,,,,,,,,,blue,diamond
0.0,3.0,3.0,0.0,6.0,6.0,753.1952379999893,6.0,0.0,part_2,go,350.0,250.0,1.0,,,,,,,,,white,triangle
0.0,7.0,3.0,1.0,6.0,6.0,593.5864200000651,6.0,0.0,part_2,go,350.0,250.0,1.0,,,,,,,,,yellow,flipped triangle
0.0,5.0,1.0,1.0,5.0,0.0,0.0,6.0,0.0,part_2,stop,350.0,250.0,4.0,,,,,,,,,blue,diamond
0.0,5.0,1.0,1.0,5.0,5.0,462.9992879999918,6.0,0.0,part_2,go,400.0,250.0,1.0,,,,,,,,,blue,diamond
0.0,7.0,3.0,1.0,5.0,5.0,517.421954999918,6.0,0.0,part_2,go,400.0,250.0,1.0,,,,,,,,,yellow,flipped triangle
0.0,3.0,3.0,0.0,5.0,5.0,679.2589169999701,6.0,0.0,part_2,go,400.0,250.0,1.0,,,,,,,,,white,triangle
0.0,2.0,2.0,0.0,5.0,5.0,419.3917579996196,6.0,0.0,part_2,go,400.0,250.0,1.0,,,,,,,,,cyan,hexagon
0.0,2.0,2.0,0.0,5.0,5.0,502.2292049998214,6.0,0.0,part_2,go,400.0,250.0,1.0,,,,,,,,,cyan,hexagon
0.0,7.0,3.0,1.0,6.0,6.0,520.7675109995762,6.0,0.0,part_2,go,400.0,250.0,1.0,,,,,,,,,yellow,flipped triangle
0.0,6.0,2.0,1.0,6.0,6.0,373.9364749999367,6.0,0.0,part_2,go,400.0,250.0,1.0,,,,,,,,,green,circle
0.0,1.0,1.0,0.0,5.0,5.0,492.9773049998402,6.0,0.0,part_2,go,400.0,250.0,1.0,,,,,,,,,orange,square
0.0,2.0,2.0,0.0,5.0,5.0,460.9595830002035,6.0,0.0,part_2,go,400.0,250.0,1.0,,,,,,,,,cyan,hexagon
0.0,6.0,2.0,1.0,5.0,5.0,347.9296609998528,6.0,0.0,part_2,stop,400.0,250.0,3.0,,,,,,,,,green,circle
0.0,2.0,2.0,0.0,5.0,5.0,596.2818369998786,6.0,0.0,part_2,go,350.0,250.0,1.0,,,,,,,,,cyan,hexagon
0.0,7.0,3.0,1.0,5.0,5.0,385.9139589999358,6.0,0.0,part_2,stop,350.0,250.0,3.0,,,,,,,,,yellow,flipped triangle
0.0,7.0,3.0,1.0,5.0,5.0,421.5068179996706,6.0,0.0,part_2,go,300.0,250.0,1.0,,,,,,,,,yellow,flipped triangle
0.0,3.0,3.0,0.0,5.0,5.0,506.9483070001297,6.0,0.0,part_2,go,300.0,250.0,1.0,,,,,,,,,white,triangle
0.0,5.0,1.0,1.0,5.0,5.0,295.0232359999063,6.0,0.0,part_2,stop,300.0,250.0,3.0,,,,,,,,,blue,diamond
0.0,5.0,1.0,1.0,6.0,0.0,0.0,6.0,0.0,part_2,stop,250.0,250.0,4.0,,,,,,,,,blue,diamond
0.0,5.0,1.0,1.0,6.0,6.0,612.7386909997767,6.0,0.0,part_2,go,250.0,300.0,1.0,,,,,,,,,blue,diamond
0.0,3.0,3.0,0.0,5.0,5.0,450.5382249999456,6.0,0.0,part_2,go,250.0,300.0,1.0,,,,,,,,,white,triangle
0.0,4.0,4.0,0.0,5.0,5.0,439.5335560002422,7.0,0.0,part_2,go,250.0,300.0,1.0,,,,,,,,,gray,I
0.0,8.0,4.0,1.0,5.0,5.0,319.6488459998363,7.0,0.0,part_2,stop,250.0,300.0,3.0,,,,,,,,,magenta,cross
0.0,3.0,3.0,0.0,6.0,6.0,331.6013690000545,7.0,0.0,part_2,go,200.0,300.0,1.0,,,,,,,,,white,triangle
0.0,5.0,1.0,1.0,6.0,6.0,422.9241689999981,7.0,0.0,part_2,stop,200.0,300.0,3.0,,,,,,,,,blue,diamond
0.0,1.0,1.0,0.0,6.0,6.0,602.5491639998108,7.0,0.0,part_2,go,200.0,250.0,1.0,,,,,,,,,orange,square
0.0,2.0,2.0,0.0,6.0,6.0,690.1358310001342,7.0,0.0,part_2,go,200.0,250.0,1.0,,,,,,,,,cyan,hexagon
0.0,8.0,4.0,1.0,6.0,6.0,428.2036949998655,7.0,0.0,part_2,go,200.0,250.0,1.0,,,,,,,,,magenta,cross
0.0,4.0,4.0,0.0,6.0,6.0,345.1007950002349,7.0,0.0,part_2,go,200.0,250.0,1.0,,,,,,,,,gray,I
0.0,6.0,2.0,1.0,6.0,6.0,308.1745640001827,7.0,0.0,part_2,stop,200.0,250.0,3.0,,,,,,,,,green,circle
0.0,1.0,1.0,0.0,5.0,5.0,309.8528520004038,7.0,0.0,part_2,go,200.0,200.0,1.0,,,,,,,,,orange,square
0.0,8.0,4.0,1.0,6.0,0.0,0.0,7.0,0.0,part_2,stop,200.0,200.0,4.0,,,,,,,,,magenta,cross
0.0,7.0,3.0,1.0,6.0,0.0,0.0,7.0,0.0,part_2,stop,200.0,250.0,4.0,,,,,,,,,yellow,flipped triangle
0.0,2.0,2.0,0.0,6.0,6.0,426.8330059999243,7.0,0.0,part_2,go,200.0,300.0,1.0,,,,,,,,,cyan,hexagon
0.0,6.0,2.0,1.0,6.0,6.0,622.965984000075,7.0,0.0,part_2,go,200.0,300.0,1.0,,,,,,,,,green,circle
0.0,5.0,1.0,1.0,5.0,5.0,334.1637900002752,7.0,0.0,part_2,go,200.0,300.0,1.0,,,,,,,,,blue,diamond
0.0,7.0,3.0,1.0,5.0,0.0,0.0,7.0,0.0,part_2,stop,200.0,300.0,4.0,,,,,,,,,yellow,flipped triangle
0.0,3.0,3.0,0.0,6.0,6.0,597.244954999951,7.0,0.0,part_2,go,250.0,300.0,1.0,,,,,,,,,white,triangle
0.0,8.0,4.0,1.0,5.0,0.0,0.0,7.0,0.0,part_2,stop,250.0,300.0,4.0,,,,,,,,,magenta,cross
0.0,2.0,2.0,0.0,6.0,6.0,714.0527910000856,7.0,0.0,part_2,go,300.0,300.0,1.0,,,,,,,,,cyan,hexagon
0.0,1.0,1.0,0.0,6.0,6.0,579.8854679997021,7.0,0.0,part_2,go,300.0,300.0,1.0,,,,,,,,,orange,square
0.0,5.0,1.0,1.0,5.0,5.0,355.3318970002692,7.0,0.0,part_2,stop,300.0,300.0,3.0,,,,,,,,,blue,diamond
0.0,2.0,2.0,0.0,6.0,6.0,576.5152109997871,7.0,0.0,part_2,go,250.0,300.0,1.0,,,,,,,,,cyan,hexagon
0.0,5.0,1.0,1.0,6.0,6.0,650.133230999927,7.0,0.0,part_2,go,250.0,300.0,1.0,,,,,,,,,blue,diamond
0.0,6.0,2.0,1.0,5.0,5.0,443.9052500001708,7.0,0.0,part_2,stop,250.0,300.0,3.0,,,,,,,,,green,circle
0.0,1.0,1.0,0.0,6.0,6.0,341.9571379999979,7.0,0.0,part_2,go,200.0,300.0,1.0,,,,,,,,,orange,square
0.0,6.0,2.0,1.0,6.0,6.0,483.5119829999712,7.0,0.0,part_2,stop,200.0,300.0,3.0,,,,,,,,,green,circle
0.0,5.0,1.0,1.0,6.0,6.0,547.1083649999855,7.0,0.0,part_2,go,200.0,250.0,1.0,,,,,,,,,blue,diamond
0.0,7.0,3.0,1.0,6.0,6.0,342.0537560000412,7.0,0.0,part_2,stop,200.0,250.0,3.0,,,,,,,,,yellow,flipped triangle
0.0,7.0,3.0,1.0,6.0,6.0,573.1633250002233,7.0,0.0,part_2,go,200.0,200.0,1.0,,,,,,,,,yellow,flipped triangle
0.0,8.0,4.0,1.0,6.0,6.0,547.6866970002447,7.0,0.0,part_2,go,200.0,200.0,1.0,,,,,,,,,magenta,cross
0.0,8.0,4.0,1.0,5.0,0.0,0.0,7.0,0.0,part_2,stop,200.0,200.0,4.0,,,,,,,,,magenta,cross
0.0,1.0,1.0,0.0,5.0,5.0,431.3849219997792,7.0,0.0,part_2,go,250.0,200.0,1.0,,,,,,,,,orange,square
0.0,3.0,3.0,0.0,5.0,5.0,496.9710710001891,7.0,0.0,part_2,go,250.0,200.0,1.0,,,,,,,,,white,triangle
0.0,2.0,2.0,0.0,6.0,6.0,612.3711449999973,7.0,0.0,part_2,go,250.0,200.0,1.0,,,,,,,,,cyan,hexagon
0.0,6.0,2.0,1.0,6.0,0.0,0.0,7.0,0.0,part_2,stop,250.0,200.0,4.0,,,,,,,,,green,circle
0.0,2.0,2.0,0.0,6.0,6.0,561.1397859997851,7.0,0.0,part_2,go,250.0,250.0,1.0,,,,,,,,,cyan,hexagon
0.0,4.0,4.0,0.0,5.0,5.0,433.092667999972,8.0,0.0,part_2,go,250.0,250.0,1.0,,,,,,,,,gray,I
0.0,7.0,3.0,1.0,6.0,0.0,0.0,8.0,0.0,part_2,stop,250.0,250.0,4.0,,,,,,,,,yellow,flipped triangle
0.0,8.0,4.0,1.0,5.0,5.0,307.1290339998995,8.0,0.0,part_2,go,250.0,300.0,1.0,,,,,,,,,magenta,cross
0.0,5.0,1.0,1.0,6.0,0.0,0.0,8.0,0.0,part_2,stop,250.0,300.0,4.0,,,,,,,,,blue,diamond
0.0,8.0,4.0,1.0,6.0,0.0,0.0,8.0,0.0,part_2,stop,250.0,350.0,4.0,,,,,,,,,magenta,cross
0.0,4.0,4.0,0.0,5.0,5.0,250.7531510000262,8.0,0.0,part_2,go,250.0,400.0,1.0,,,,,,,,,gray,I
0.0,8.0,4.0,1.0,6.0,6.0,574.1396019998319,8.0,0.0,part_2,stop,250.0,400.0,3.0,,,,,,,,,magenta,cross
0.0,2.0,2.0,0.0,6.0,6.0,575.9142050001174,8.0,0.0,part_2,go,250.0,350.0,1.0,,,,,,,,,cyan,hexagon
0.0,5.0,1.0,1.0,6.0,0.0,0.0,8.0,0.0,part_2,stop,250.0,350.0,4.0,,,,,,,,,blue,diamond
0.0,8.0,4.0,1.0,5.0,0.0,0.0,8.0,0.0,part_2,stop,250.0,400.0,4.0,,,,,,,,,magenta,cross
0.0,6.0,2.0,1.0,6.0,6.0,522.4168190002274,8.0,0.0,part_2,stop,300.0,400.0,3.0,,,,,,,,,green,circle
0.0,1.0,1.0,0.0,6.0,6.0,800.6444180000472,8.0,0.0,part_2,go,300.0,350.0,1.0,,,,,,,,,orange,square
0.0,7.0,3.0,1.0,6.0,0.0,0.0,8.0,0.0,part_2,stop,300.0,350.0,4.0,,,,,,,,,yellow,flipped triangle
0.0,3.0,3.0,0.0,6.0,6.0,688.6072729998887,8.0,0.0,part_2,go,300.0,400.0,1.0,,,,,,,,,white,triangle
0.0,2.0,2.0,0.0,5.0,5.0,598.5865709999416,8.0,0.0,part_2,go,300.0,400.0,1.0,,,,,,,,,cyan,hexagon
0.0,8.0,4.0,1.0,6.0,0.0,0.0,8.0,0.0,part_2,stop,300.0,400.0,4.0,,,,,,,,,magenta,cross
0.0,8.0,4.0,1.0,6.0,6.0,603.3878900002492,8.0,0.0,part_2,stop,300.0,450.0,3.0,,,,,,,,,magenta,cross
0.0,8.0,4.0,1.0,5.0,0.0,0.0,8.0,0.0,part_2,stop,300.0,400.0,4.0,,,,,,,,,magenta,cross
0.0,3.0,3.0,0.0,6.0,6.0,642.5938580000548,8.0,0.0,part_2,go,350.0,400.0,1.0,,,,,,,,,white,triangle
0.0,1.0,1.0,0.0,5.0,5.0,632.3067700000138,8.0,0.0,part_2,go,350.0,400.0,1.0,,,,,,,,,orange,square
0.0,1.0,1.0,0.0,5.0,5.0,634.2935280003985,8.0,0.0,part_2,go,350.0,400.0,1.0,,,,,,,,,orange,square
0.0,3.0,3.0,0.0,5.0,5.0,404.6325819999765,8.0,0.0,part_2,go,350.0,400.0,1.0,,,,,,,,,white,triangle
0.0,4.0,4.0,0.0,6.0,6.0,549.4672980003088,8.0,0.0,part_2,go,350.0,400.0,1.0,,,,,,,,,gray,I
0.0,2.0,2.0,0.0,6.0,6.0,372.594134999872,8.0,0.0,part_2,go,350.0,400.0,1.0,,,,,,,,,cyan,hexagon
0.0,6.0,2.0,1.0,5.0,0.0,0.0,8.0,0.0,part_2,stop,350.0,400.0,4.0,,,,,,,,,green,circle
0.0,4.0,4.0,0.0,6.0,6.0,623.8079669997205,8.0,0.0,part_2,go,400.0,400.0,1.0,,,,,,,,,gray,I
0.0,5.0,1.0,1.0,6.0,0.0,0.0,8.0,0.0,part_2,stop,400.0,400.0,4.0,,,,,,,,,blue,diamond
0.0,3.0,3.0,0.0,6.0,6.0,655.2070509997066,8.0,0.0,part_2,go,400.0,450.0,1.0,,,,,,,,,white,triangle
0.0,5.0,1.0,1.0,6.0,0.0,0.0,8.0,0.0,part_2,stop,400.0,450.0,4.0,,,,,,,,,blue,diamond
0.0,5.0,1.0,1.0,5.0,0.0,0.0,8.0,0.0,part_2,stop,400.0,500.0,4.0,,,,,,,,,blue,diamond
0.0,2.0,2.0,0.0,5.0,5.0,702.8645479999795,8.0,0.0,part_2,go,450.0,500.0,1.0,,,,,,,,,cyan,hexagon
0.0,7.0,3.0,1.0,6.0,0.0,0.0,8.0,0.0,part_2,stop,450.0,500.0,4.0,,,,,,,,,yellow,flipped triangle
0.0,4.0,4.0,0.0,5.0,5.0,625.9219260000464,8.0,0.0,part_2,go,450.0,550.0,1.0,,,,,,,,,gray,I
0.0,6.0,2.0,1.0,6.0,6.0,679.7223429998667,8.0,0.0,part_2,stop,450.0,550.0,3.0,,,,,,,,,green,circle
0.0,8.0,4.0,1.0,5.0,5.0,900.9995970000092,8.0,0.0,part_2,go,450.0,500.0,1.0,,,,,,,,,magenta,cross
0.0,7.0,3.0,1.0,5.0,0.0,0.0,8.0,0.0,part_2,stop,450.0,500.0,4.0,,,,,,,,,yellow,flipped triangle
0.0,7.0,3.0,1.0,7.0,3.0,2685.044251000363,1.0,1.0,part_3,go,0.0,0.0,0.0,196.0,4.0,245.0,49.0,196.0,98.0,294.0,147.0,yellow,flipped triangle
0.0,2.0,2.0,0.0,7.0,2.0,1893.7513890000448,1.0,1.0,part_3,go,0.0,0.0,0.0,98.0,2.0,196.0,98.0,147.0,49.0,294.0,245.0,cyan,hexagon
0.0,6.0,2.0,1.0,7.0,1.0,1551.7526620001263,1.0,1.0,part_3,go,0.0,0.0,0.0,34.0,1.0,34.0,136.0,204.0,170.0,102.0,68.0,green,circle
0.0,4.0,4.0,0.0,7.0,5.0,2768.4000449999075,1.0,1.0,part_3,go,0.0,0.0,0.0,245.0,5.0,294.0,98.0,147.0,49.0,245.0,196.0,gray,I
0.0,5.0,1.0,1.0,7.0,4.0,1860.4071330000809,1.0,1.0,part_3,go,0.0,0.0,0.0,204.0,6.0,136.0,170.0,68.0,204.0,102.0,34.0,blue,diamond
0.0,5.0,1.0,1.0,7.0,1.0,1338.898196000173,1.0,1.0,part_3,go,0.0,0.0,0.0,88.0,2.0,88.0,220.0,132.0,176.0,264.0,44.0,blue,diamond
0.0,1.0,1.0,0.0,7.0,2.0,1164.9752739999713,1.0,1.0,part_3,go,0.0,0.0,0.0,54.0,1.0,324.0,54.0,270.0,216.0,108.0,162.0,orange,square
0.0,8.0,4.0,1.0,7.0,4.0,1939.7936249997656,1.0,1.0,part_3,go,0.0,0.0,0.0,204.0,6.0,68.0,34.0,102.0,204.0,170.0,136.0,magenta,cross
0.0,1.0,1.0,0.0,7.0,2.0,1278.8477439999042,1.0,1.0,part_3,go,0.0,0.0,0.0,98.0,2.0,147.0,98.0,196.0,245.0,49.0,294.0,orange,square
0.0,7.0,3.0,1.0,7.0,5.0,2425.5744749998485,1.0,1.0,part_3,go,0.0,0.0,0.0,195.0,5.0,156.0,234.0,78.0,117.0,195.0,39.0,yellow,flipped triangle
0.0,3.0,3.0,0.0,7.0,4.0,2037.7426909999485,1.0,1.0,part_3,go,0.0,0.0,0.0,195.0,5.0,78.0,117.0,234.0,195.0,39.0,156.0,white,triangle
0.0,6.0,2.0,1.0,7.0,3.0,1448.301777999859,1.0,1.0,part_3,go,0.0,0.0,0.0,54.0,1.0,216.0,270.0,54.0,108.0,162.0,324.0,green,circle
0.0,4.0,4.0,0.0,7.0,4.0,1651.1454270003014,1.0,1.0,part_3,go,0.0,0.0,0.0,54.0,1.0,216.0,162.0,324.0,54.0,108.0,270.0,gray,I
0.0,3.0,3.0,0.0,7.0,5.0,2626.7549789999975,1.0,1.0,part_3,go,0.0,0.0,0.0,204.0,6.0,68.0,34.0,136.0,170.0,204.0,102.0,white,triangle
0.0,8.0,4.0,1.0,7.0,3.0,1712.0635369997217,1.0,1.0,part_3,go,0.0,0.0,0.0,294.0,6.0,196.0,98.0,294.0,147.0,245.0,49.0,magenta,cross
0.0,7.0,3.0,1.0,7.0,4.0,1534.8675630002615,1.0,1.0,part_3,go,0.0,0.0,0.0,204.0,6.0,34.0,102.0,136.0,204.0,170.0,68.0,yellow,flipped triangle
0.0,6.0,2.0,1.0,7.0,3.0,3240.3557620000356,1.0,1.0,part_3,go,0.0,0.0,0.0,68.0,2.0,136.0,170.0,68.0,34.0,204.0,102.0,green,circle
0.0,8.0,4.0,1.0,7.0,3.0,1559.1987440002413,1.0,1.0,part_3,go,0.0,0.0,0.0,204.0,6.0,68.0,170.0,204.0,102.0,136.0,34.0,magenta,cross
0.0,1.0,1.0,0.0,7.0,4.0,1340.9734100000603,1.0,1.0,part_3,go,0.0,0.0,0.0,34.0,1.0,204.0,170.0,136.0,34.0,68.0,102.0,orange,square
0.0,7.0,3.0,1.0,7.0,4.0,1203.549354000188,1.0,1.0,part_3,go,0.0,0.0,0.0,220.0,5.0,132.0,88.0,44.0,220.0,264.0,176.0,yellow,flipped triangle
0.0,2.0,2.0,0.0,7.0,3.0,1147.5689429998963,2.0,1.0,part_3,go,0.0,0.0,0.0,39.0,1.0,156.0,78.0,39.0,234.0,117.0,195.0,cyan,hexagon
0.0,5.0,1.0,1.0,7.0,3.0,1226.5325789999224,2.0,1.0,part_3,go,0.0,0.0,0.0,54.0,1.0,162.0,324.0,54.0,108.0,270.0,216.0,blue,diamond
0.0,3.0,3.0,0.0,7.0,5.0,1609.0530230003424,2.0,1.0,part_3,go,0.0,0.0,0.0,220.0,5.0,88.0,132.0,44.0,176.0,220.0,264.0,white,triangle
0.0,2.0,2.0,0.0,7.0,5.0,1306.0374480000974,2.0,1.0,part_3,go,0.0,0.0,0.0,54.0,1.0,270.0,108.0,324.0,162.0,54.0,216.0,cyan,hexagon
0.0,7.0,3.0,1.0,7.0,5.0,1838.1846999996017,2.0,1.0,part_3,go,0.0,0.0,0.0,195.0,5.0,156.0,234.0,39.0,117.0,195.0,78.0,yellow,flipped triangle
0.0,1.0,1.0,0.0,7.0,6.0,3920.611653999913,2.0,1.0,part_3,go,0.0,0.0,0.0,44.0,1.0,88.0,132.0,264.0,220.0,176.0,44.0,orange,square
0.0,2.0,2.0,0.0,7.0,5.0,1795.1359360004062,2.0,1.0,part_3,go,0.0,0.0,0.0,34.0,1.0,170.0,68.0,102.0,204.0,34.0,136.0,cyan,hexagon
0.0,1.0,1.0,0.0,7.0,3.0,1979.9240199999983,2.0,1.0,part_3,go,0.0,0.0,0.0,78.0,2.0,117.0,195.0,78.0,234.0,156.0,39.0,orange,square
0.0,7.0,3.0,1.0,7.0,1.0,2365.2672570001414,2.0,1.0,part_3,go,0.0,0.0,0.0,216.0,4.0,216.0,54.0,324.0,270.0,108.0,162.0,yellow,flipped triangle
0.0,6.0,2.0,1.0,7.0,3.0,2108.4908259999793,2.0,1.0,part_3,go,0.0,0.0,0.0,147.0,3.0,196.0,49.0,147.0,294.0,245.0,98.0,green,circle
0.0,6.0,2.0,1.0,7.0,3.0,1155.8986639997784,2.0,1.0,part_3,go,0.0,0.0,0.0,117.0,3.0,195.0,39.0,117.0,234.0,156.0,78.0,green,circle
0.0,4.0,4.0,0.0,7.0,1.0,2656.041973000356,2.0,1.0,part_3,go,0.0,0.0,0.0,264.0,6.0,264.0,220.0,44.0,132.0,88.0,176.0,gray,I
0.0,7.0,3.0,1.0,7.0,4.0,2329.0696399999433,2.0,1.0,part_3,go,0.0,0.0,0.0,270.0,5.0,162.0,324.0,54.0,270.0,216.0,108.0,yellow,flipped triangle
0.0,1.0,1.0,0.0,7.0,5.0,3401.8239070001073,2.0,1.0,part_3,go,0.0,0.0,0.0,39.0,1.0,117.0,234.0,78.0,195.0,39.0,156.0,orange,square
0.0,3.0,3.0,0.0,7.0,2.0,2774.638212999889,2.0,1.0,part_3,go,0.0,0.0,0.0,245.0,5.0,49.0,245.0,98.0,196.0,294.0,147.0,white,triangle
0.0,5.0,1.0,1.0,7.0,4.0,2012.6799579998078,2.0,1.0,part_3,go,0.0,0.0,0.0,98.0,2.0,49.0,147.0,294.0,98.0,245.0,196.0,blue,diamond
0.0,4.0,4.0,0.0,7.0,1.0,2218.8777390001633,2.0,1.0,part_3,go,0.0,0.0,0.0,264.0,6.0,264.0,132.0,176.0,44.0,88.0,220.0,gray,I
0.0,7.0,3.0,1.0,7.0,4.0,1998.5539750000496,2.0,1.0,part_3,go,0.0,0.0,0.0,204.0,6.0,170.0,102.0,136.0,204.0,68.0,34.0,yellow,flipped triangle
0.0,6.0,2.0,1.0,7.0,6.0,2162.168111000028,2.0,1.0,part_3,go,0.0,0.0,0.0,88.0,2.0,44.0,132.0,264.0,176.0,220.0,88.0,green,circle
0.0,7.0,3.0,1.0,7.0,5.0,1953.070291000131,2.0,1.0,part_3,go,0.0,0.0,0.0,220.0,5.0,264.0,44.0,176.0,132.0,220.0,88.0,yellow,flipped triangle
0.0,6.0,2.0,1.0,7.0,3.0,2813.984252999944,3.0,1.0,part_3,go,0.0,0.0,0.0,49.0,1.0,196.0,294.0,49.0,147.0,245.0,98.0,green,circle
0.0,8.0,4.0,1.0,7.0,6.0,1973.9623569998912,3.0,1.0,part_3,go,0.0,0.0,0.0,270.0,5.0,324.0,54.0,108.0,162.0,216.0,270.0,magenta,cross
0.0,2.0,2.0,0.0,7.0,3.0,2703.603092999856,3.0,1.0,part_3,go,0.0,0.0,0.0,88.0,2.0,176.0,44.0,88.0,132.0,264.0,220.0,cyan,hexagon
0.0,1.0,1.0,0.0,7.0,4.0,1020.3315789999581,3.0,1.0,part_3,go,0.0,0.0,0.0,34.0,1.0,102.0,170.0,136.0,34.0,68.0,204.0,orange,square
0.0,2.0,2.0,0.0,7.0,5.0,835.7659450002757,3.0,1.0,part_3,go,0.0,0.0,0.0,44.0,1.0,220.0,176.0,132.0,88.0,44.0,264.0,cyan,hexagon
0.0,6.0,2.0,1.0,7.0,3.0,2617.8564699998788,3.0,1.0,part_3,go,0.0,0.0,0.0,156.0,4.0,39.0,78.0,156.0,195.0,117.0,234.0,green,circle
0.0,2.0,2.0,0.0,7.0,4.0,1315.5673809997095,3.0,1.0,part_3,go,0.0,0.0,0.0,98.0,2.0,147.0,294.0,196.0,98.0,245.0,49.0,cyan,hexagon
0.0,6.0,2.0,1.0,7.0,4.0,2184.3679799999336,3.0,1.0,part_3,go,0.0,0.0,0.0,108.0,2.0,270.0,216.0,324.0,108.0,162.0,54.0,green,circle
0.0,5.0,1.0,1.0,7.0,5.0,1470.917886999814,3.0,1.0,part_3,go,0.0,0.0,0.0,102.0,3.0,136.0,68.0,34.0,170.0,102.0,204.0,blue,diamond
0.0,7.0,3.0,1.0,7.0,6.0,1841.48547399991,3.0,1.0,part_3,go,0.0,0.0,0.0,245.0,5.0,196.0,98.0,147.0,49.0,294.0,245.0,yellow,flipped triangle
0.0,3.0,3.0,0.0,7.0,4.0,2840.0096430000303,3.0,1.0,part_3,go,0.0,0.0,0.0,195.0,5.0,39.0,78.0,234.0,195.0,117.0,156.0,white,triangle
0.0,3.0,3.0,0.0,7.0,3.0,1939.0197040002024,3.0,1.0,part_3,go,0.0,0.0,0.0,220.0,5.0,176.0,264.0,220.0,132.0,44.0,88.0,white,triangle
0.0,1.0,1.0,0.0,7.0,4.0,3298.7750569996024,3.0,1.0,part_3,go,0.0,0.0,0.0,108.0,2.0,54.0,216.0,324.0,108.0,162.0,270.0,orange,square
0.0,4.0,4.0,0.0,7.0,3.0,1932.23453399969,3.0,1.0,part_3,go,0.0,0.0,0.0,234.0,6.0,39.0,156.0,234.0,78.0,195.0,117.0,gray,I
0.0,4.0,4.0,0.0,7.0,4.0,1814.2464010002184,3.0,1.0,part_3,go,0.0,0.0,0.0,234.0,6.0,39.0,78.0,195.0,234.0,156.0,117.0,gray,I
0.0,5.0,1.0,1.0,7.0,3.0,2844.211661999907,3.0,1.0,part_3,go,0.0,0.0,0.0,147.0,3.0,245.0,196.0,147.0,294.0,49.0,98.0,blue,diamond
0.0,2.0,2.0,0.0,7.0,4.0,1780.0305770001614,3.0,1.0,part_3,go,0.0,0.0,0.0,78.0,2.0,195.0,234.0,117.0,78.0,156.0,39.0,cyan,hexagon
0.0,5.0,1.0,1.0,7.0,2.0,3522.8958239999884,3.0,1.0,part_3,go,0.0,0.0,0.0,78.0,2.0,234.0,78.0,156.0,39.0,117.0,195.0,blue,diamond
0.0,4.0,4.0,0.0,7.0,1.0,2130.3189730001577,3.0,1.0,part_3,go,0.0,0.0,0.0,204.0,6.0,204.0,170.0,102.0,136.0,68.0,34.0,gray,I
0.0,5.0,1.0,1.0,7.0,3.0,1721.5730859998075,3.0,1.0,part_3,go,0.0,0.0,0.0,117.0,3.0,195.0,78.0,117.0,234.0,156.0,39.0,blue,diamond
0.0,2.0,2.0,0.0,7.0,3.0,1970.6766399999651,4.0,1.0,part_3,go,0.0,0.0,0.0,54.0,1.0,162.0,108.0,54.0,324.0,216.0,270.0,cyan,hexagon
0.0,5.0,1.0,1.0,7.0,4.0,1574.225299000318,4.0,1.0,part_3,go,0.0,0.0,0.0,54.0,1.0,270.0,216.0,324.0,54.0,162.0,108.0,blue,diamond
0.0,8.0,4.0,1.0,7.0,3.0,1769.400338000196,4.0,1.0,part_3,go,0.0,0.0,0.0,234.0,6.0,195.0,117.0,234.0,39.0,78.0,156.0,magenta,cross
0.0,3.0,3.0,0.0,7.0,6.0,1501.8265979997525,4.0,1.0,part_3,go,0.0,0.0,0.0,245.0,5.0,196.0,294.0,147.0,98.0,49.0,245.0,white,triangle
0.0,3.0,3.0,0.0,7.0,3.0,2199.8094770001444,4.0,1.0,part_3,go,0.0,0.0,0.0,216.0,4.0,270.0,162.0,216.0,54.0,324.0,108.0,white,triangle
0.0,2.0,2.0,0.0,7.0,1.0,1453.4756689999997,4.0,1.0,part_3,go,0.0,0.0,0.0,34.0,1.0,34.0,102.0,68.0,204.0,170.0,136.0,cyan,hexagon
0.0,5.0,1.0,1.0,7.0,3.0,2705.0946429999385,4.0,1.0,part_3,go,0.0,0.0,0.0,88.0,2.0,176.0,220.0,88.0,264.0,132.0,44.0,blue,diamond
0.0,3.0,3.0,0.0,7.0,1.0,3319.4854839998698,4.0,1.0,part_3,go,0.0,0.0,0.0,216.0,4.0,216.0,324.0,54.0,162.0,108.0,270.0,white,triangle
0.0,8.0,4.0,1.0,7.0,6.0,2058.1857810002475,4.0,1.0,part_3,go,0.0,0.0,0.0,234.0,6.0,195.0,156.0,117.0,39.0,78.0,234.0,magenta,cross
0.0,8.0,4.0,1.0,7.0,6.0,1205.7051669999057,4.0,1.0,part_3,go,0.0,0.0,0.0,264.0,6.0,176.0,88.0,132.0,220.0,44.0,264.0,magenta,cross
0.0,6.0,2.0,1.0,7.0,4.0,2901.476607999939,4.0,1.0,part_3,go,0.0,0.0,0.0,44.0,1.0,220.0,132.0,176.0,44.0,88.0,264.0,green,circle
0.0,1.0,1.0,0.0,7.0,6.0,2081.4055360001475,4.0,1.0,part_3,go,0.0,0.0,0.0,49.0,1.0,245.0,196.0,98.0,147.0,294.0,49.0,orange,square
0.0,4.0,4.0,0.0,7.0,1.0,1481.715475999863,4.0,1.0,part_3,go,0.0,0.0,0.0,294.0,6.0,294.0,98.0,196.0,245.0,147.0,49.0,gray,I
0.0,4.0,4.0,0.0,7.0,6.0,1122.4147809998613,4.0,1.0,part_3,go,0.0,0.0,0.0,324.0,6.0,162.0,216.0,108.0,270.0,54.0,324.0,gray,I
0.0,8.0,4.0,1.0,7.0,1.0,1486.5066600000318,4.0,1.0,part_3,go,0.0,0.0,0.0,270.0,5.0,270.0,324.0,162.0,216.0,54.0,108.0,magenta,cross
0.0,4.0,4.0,0.0,7.0,1.0,1527.5373680001394,4.0,1.0,part_3,go,0.0,0.0,0.0,204.0,6.0,204.0,170.0,136.0,102.0,34.0,68.0,gray,I
0.0,3.0,3.0,0.0,7.0,4.0,1616.1897289998706,4.0,1.0,part_3,go,0.0,0.0,0.0,204.0,6.0,68.0,34.0,136.0,204.0,102.0,170.0,white,triangle
0.0,1.0,1.0,0.0,7.0,5.0,2946.7797570000585,4.0,1.0,part_3,go,0.0,0.0,0.0,44.0,1.0,220.0,88.0,132.0,176.0,44.0,264.0,orange,square
0.0,8.0,4.0,1.0,7.0,1.0,1744.5746570001577,4.0,1.0,part_3,go,0.0,0.0,0.0,264.0,6.0,264.0,132.0,44.0,88.0,176.0,220.0,magenta,cross
0.0,8.0,4.0,1.0,7.0,6.0,1276.933642000131,4.0,1.0,part_3,go,0.0,0.0,0.0,294.0,6.0,98.0,49.0,196.0,245.0,147.0,294.0,magenta,cross
