raw_reward_magnitude,stim_reward,stepwise_reward_magnitude,paired_with_stopping,stim_location,response,reaction_time,block,num_trial_presentations,which_phase,stop_signal_trial_type,left_SSD,right_SSD,accuracy,chosen_bidding_amount,chosen_bidding_level,possible_bid_1,possible_bid_2,possible_bid_3,possible_bid_4,possible_bid_5,possible_bid_6,color_text,shape_text
83.0,6.0,1.0,1.0,1.0,1.0,658.8950229997863,1.0,1.0,phase_1,,,,,,,,,,,,,orange,I
0.0,7.0,0.0,1.0,1.0,1.0,345.9805279999273,1.0,1.0,phase_1,,,,,,,,,,,,,yellow,diamond
0.0,8.0,0.0,1.0,2.0,2.0,379.5949049999763,1.0,1.0,phase_1,,,,,,,,,,,,,white,cross
33.0,1.0,0.5,0.0,3.0,3.0,421.1679000000004,1.0,1.0,phase_1,,,,,,,,,,,,,green,hexagon
220.0,7.0,2.0,1.0,2.0,2.0,407.9696839999087,1.0,1.0,phase_1,,,,,,,,,,,,,yellow,diamond
217.0,7.0,2.0,1.0,1.0,1.0,356.6108880004321,1.0,1.0,phase_1,,,,,,,,,,,,,yellow,diamond
0.0,5.0,0.0,1.0,2.0,2.0,354.3843160005053,1.0,1.0,phase_1,,,,,,,,,,,,,magenta,square
55.0,5.0,0.5,1.0,4.0,4.0,382.6089350004622,1.0,1.0,phase_1,,,,,,,,,,,,,magenta,square
208.0,7.0,2.0,1.0,3.0,3.0,307.9707879987836,1.0,1.0,phase_1,,,,,,,,,,,,,yellow,diamond
417.0,4.0,4.0,0.0,1.0,1.0,384.8604650011111,1.0,1.0,phase_1,,,,,,,,,,,,,cyan,triangle
380.0,8.0,4.0,1.0,2.0,2.0,396.2811060009699,1.0,1.0,phase_1,,,,,,,,,,,,,white,cross
382.0,8.0,4.0,1.0,4.0,4.0,443.3205919995089,1.0,1.0,phase_1,,,,,,,,,,,,,white,cross
75.0,1.0,0.5,0.0,2.0,2.0,249.8226709994924,1.0,1.0,phase_1,,,,,,,,,,,,,green,hexagon
107.0,6.0,1.0,1.0,3.0,3.0,338.8310299997101,1.0,1.0,phase_1,,,,,,,,,,,,,orange,I
200.0,3.0,2.0,0.0,2.0,2.0,401.3923029997386,1.0,1.0,phase_1,,,,,,,,,,,,,gray,circle
396.0,4.0,4.0,0.0,1.0,1.0,372.575241000959,1.0,1.0,phase_1,,,,,,,,,,,,,cyan,triangle
209.0,7.0,2.0,1.0,1.0,1.0,326.8395060003968,1.0,1.0,phase_1,,,,,,,,,,,,,yellow,diamond
409.0,8.0,4.0,1.0,3.0,3.0,360.8735660000093,1.0,1.0,phase_1,,,,,,,,,,,,,white,cross
200.0,3.0,2.0,0.0,1.0,1.0,256.3952199998311,1.0,1.0,phase_1,,,,,,,,,,,,,gray,circle
179.0,3.0,2.0,0.0,2.0,2.0,339.2539930009661,1.0,1.0,phase_1,,,,,,,,,,,,,gray,circle
62.0,1.0,0.5,0.0,3.0,3.0,335.9610799998336,1.0,1.0,phase_1,,,,,,,,,,,,,green,hexagon
196.0,3.0,2.0,0.0,4.0,4.0,434.8123470008431,1.0,1.0,phase_1,,,,,,,,,,,,,gray,circle
212.0,7.0,2.0,1.0,4.0,4.0,646.635007000441,1.0,1.0,phase_1,,,,,,,,,,,,,yellow,diamond
65.0,5.0,0.5,1.0,2.0,2.0,392.6765489995887,1.0,1.0,phase_1,,,,,,,,,,,,,magenta,square
0.0,3.0,0.0,0.0,3.0,3.0,303.2523849997233,1.0,1.0,phase_1,,,,,,,,,,,,,gray,circle
192.0,3.0,2.0,0.0,1.0,1.0,274.6758949997456,1.0,1.0,phase_1,,,,,,,,,,,,,gray,circle
116.0,6.0,1.0,1.0,2.0,2.0,340.8330900001601,1.0,1.0,phase_1,,,,,,,,,,,,,orange,I
199.0,7.0,2.0,1.0,4.0,4.0,413.8483309998264,1.0,1.0,phase_1,,,,,,,,,,,,,yellow,diamond
417.0,8.0,4.0,1.0,3.0,3.0,379.3426149986771,1.0,1.0,phase_1,,,,,,,,,,,,,white,cross
0.0,3.0,0.0,0.0,1.0,1.0,337.1772829996189,1.0,1.0,phase_1,,,,,,,,,,,,,gray,circle
214.0,7.0,2.0,1.0,2.0,2.0,348.4017729988409,1.0,1.0,phase_1,,,,,,,,,,,,,yellow,diamond
109.0,2.0,1.0,0.0,3.0,3.0,381.102268000177,1.0,1.0,phase_1,,,,,,,,,,,,,blue,flipped triangle
62.0,1.0,0.5,0.0,4.0,4.0,450.8554490003007,1.0,1.0,phase_1,,,,,,,,,,,,,green,hexagon
387.0,4.0,4.0,0.0,1.0,1.0,361.7116280001937,1.0,1.0,phase_1,,,,,,,,,,,,,cyan,triangle
87.0,6.0,1.0,1.0,3.0,3.0,358.6185200001637,1.0,1.0,phase_1,,,,,,,,,,,,,orange,I
101.0,6.0,1.0,1.0,2.0,2.0,476.1203449997992,1.0,1.0,phase_1,,,,,,,,,,,,,orange,I
412.0,4.0,4.0,0.0,1.0,1.0,328.0648799991468,1.0,1.0,phase_1,,,,,,,,,,,,,cyan,triangle
71.0,5.0,0.5,1.0,1.0,1.0,334.7896619998209,1.0,1.0,phase_1,,,,,,,,,,,,,magenta,square
416.0,4.0,4.0,0.0,1.0,1.0,343.7787820002995,1.0,1.0,phase_1,,,,,,,,,,,,,cyan,triangle
89.0,6.0,1.0,1.0,4.0,4.0,324.961087999327,1.0,1.0,phase_1,,,,,,,,,,,,,orange,I
90.0,6.0,1.0,1.0,3.0,3.0,394.3998260001535,1.0,1.0,phase_1,,,,,,,,,,,,,orange,I
400.0,4.0,4.0,0.0,2.0,2.0,376.4148500013107,1.0,1.0,phase_1,,,,,,,,,,,,,cyan,triangle
45.0,1.0,0.5,0.0,3.0,3.0,530.5498319994513,1.0,1.0,phase_1,,,,,,,,,,,,,green,hexagon
95.0,6.0,1.0,1.0,2.0,2.0,393.3950099999492,1.0,1.0,phase_1,,,,,,,,,,,,,orange,I
0.0,6.0,0.0,1.0,1.0,1.0,334.7925830003078,1.0,1.0,phase_1,,,,,,,,,,,,,orange,I
93.0,2.0,1.0,0.0,1.0,1.0,450.8328109986905,1.0,1.0,phase_1,,,,,,,,,,,,,blue,flipped triangle
0.0,3.0,0.0,0.0,4.0,4.0,389.4272030011052,1.0,1.0,phase_1,,,,,,,,,,,,,gray,circle
59.0,1.0,0.5,0.0,2.0,2.0,263.5729390003689,1.0,1.0,phase_1,,,,,,,,,,,,,green,hexagon
214.0,7.0,2.0,1.0,1.0,1.0,346.4305190009327,1.0,1.0,phase_1,,,,,,,,,,,,,yellow,diamond
67.0,5.0,0.5,1.0,4.0,4.0,371.3527609997982,1.0,1.0,phase_1,,,,,,,,,,,,,magenta,square
105.0,6.0,1.0,1.0,1.0,1.0,303.0236610011343,1.0,1.0,phase_1,,,,,,,,,,,,,orange,I
422.0,4.0,4.0,0.0,4.0,4.0,332.085719999668,1.0,1.0,phase_1,,,,,,,,,,,,,cyan,triangle
415.0,4.0,4.0,0.0,2.0,2.0,328.5160489995178,1.0,1.0,phase_1,,,,,,,,,,,,,cyan,triangle
220.0,3.0,2.0,0.0,4.0,4.0,389.9904329991841,1.0,1.0,phase_1,,,,,,,,,,,,,gray,circle
394.0,8.0,4.0,1.0,2.0,2.0,310.3323029990861,1.0,1.0,phase_1,,,,,,,,,,,,,white,cross
0.0,8.0,0.0,1.0,4.0,4.0,377.668174000064,1.0,1.0,phase_1,,,,,,,,,,,,,white,cross
185.0,3.0,2.0,0.0,4.0,4.0,343.0143269997643,1.0,2.0,phase_1,,,,,,,,,,,,,gray,circle
97.0,2.0,1.0,0.0,2.0,2.0,346.8302839992248,1.0,1.0,phase_1,,,,,,,,,,,,,blue,flipped triangle
376.0,4.0,4.0,0.0,2.0,2.0,421.460534000289,1.0,1.0,phase_1,,,,,,,,,,,,,cyan,triangle
108.0,2.0,1.0,0.0,2.0,2.0,424.1227870006696,1.0,1.0,phase_1,,,,,,,,,,,,,blue,flipped triangle
192.0,7.0,2.0,1.0,3.0,3.0,557.9195970003639,1.0,1.0,phase_1,,,,,,,,,,,,,yellow,diamond
0.0,4.0,0.0,0.0,2.0,2.0,471.578323000358,1.0,1.0,phase_1,,,,,,,,,,,,,cyan,triangle
0.0,1.0,0.0,0.0,3.0,3.0,292.3236300011922,1.0,1.0,phase_1,,,,,,,,,,,,,green,hexagon
71.0,1.0,0.5,0.0,1.0,1.0,401.0800260002725,1.0,1.0,phase_1,,,,,,,,,,,,,green,hexagon
417.0,8.0,4.0,1.0,1.0,1.0,335.4044999996404,1.0,1.0,phase_1,,,,,,,,,,,,,white,cross
42.0,5.0,0.5,1.0,3.0,3.0,415.1053660007164,1.0,1.0,phase_1,,,,,,,,,,,,,magenta,square
27.0,5.0,0.5,1.0,2.0,2.0,324.1998800003784,1.0,1.0,phase_1,,,,,,,,,,,,,magenta,square
49.0,5.0,0.5,1.0,1.0,1.0,262.3032440005772,1.0,1.0,phase_1,,,,,,,,,,,,,magenta,square
89.0,2.0,1.0,0.0,3.0,3.0,410.7728079998196,1.0,1.0,phase_1,,,,,,,,,,,,,blue,flipped triangle
391.0,8.0,4.0,1.0,3.0,3.0,335.7722550008475,1.0,1.0,phase_1,,,,,,,,,,,,,white,cross
52.0,5.0,0.5,1.0,3.0,3.0,406.4731720009149,1.0,1.0,phase_1,,,,,,,,,,,,,magenta,square
101.0,2.0,1.0,0.0,4.0,4.0,297.3278780009423,1.0,2.0,phase_1,,,,,,,,,,,,,blue,flipped triangle
182.0,3.0,2.0,0.0,2.0,2.0,437.5267959985649,1.0,1.0,phase_1,,,,,,,,,,,,,gray,circle
41.0,1.0,0.5,0.0,1.0,1.0,401.9229030000133,1.0,1.0,phase_1,,,,,,,,,,,,,green,hexagon
402.0,4.0,4.0,0.0,3.0,3.0,484.9734280014672,1.0,1.0,phase_1,,,,,,,,,,,,,cyan,triangle
0.0,8.0,0.0,1.0,4.0,4.0,400.4446179988008,1.0,1.0,phase_1,,,,,,,,,,,,,white,cross
376.0,4.0,4.0,0.0,3.0,3.0,455.809039000087,1.0,1.0,phase_1,,,,,,,,,,,,,cyan,triangle
59.0,5.0,0.5,1.0,4.0,4.0,484.0012290005688,1.0,1.0,phase_1,,,,,,,,,,,,,magenta,square
0.0,2.0,0.0,0.0,2.0,2.0,394.3645500003185,1.0,1.0,phase_1,,,,,,,,,,,,,blue,flipped triangle
111.0,2.0,1.0,0.0,1.0,1.0,520.1832830007334,1.0,1.0,phase_1,,,,,,,,,,,,,blue,flipped triangle
0.0,5.0,0.0,1.0,4.0,4.0,382.3906100005843,1.0,1.0,phase_1,,,,,,,,,,,,,magenta,square
385.0,4.0,4.0,0.0,2.0,2.0,282.258400999126,1.0,1.0,phase_1,,,,,,,,,,,,,cyan,triangle
200.0,7.0,2.0,1.0,1.0,1.0,393.8222540000424,1.0,1.0,phase_1,,,,,,,,,,,,,yellow,diamond
118.0,6.0,1.0,1.0,3.0,3.0,429.707168999812,1.0,1.0,phase_1,,,,,,,,,,,,,orange,I
78.0,6.0,1.0,1.0,3.0,3.0,413.9536170005158,1.0,1.0,phase_1,,,,,,,,,,,,,orange,I
0.0,7.0,0.0,1.0,3.0,3.0,314.453337001396,1.0,1.0,phase_1,,,,,,,,,,,,,yellow,diamond
79.0,2.0,1.0,0.0,4.0,4.0,416.9189340009325,1.0,1.0,phase_1,,,,,,,,,,,,,blue,flipped triangle
379.0,8.0,4.0,1.0,1.0,1.0,341.2730069994723,1.0,1.0,phase_1,,,,,,,,,,,,,white,cross
396.0,4.0,4.0,0.0,4.0,4.0,374.9452140000358,1.0,1.0,phase_1,,,,,,,,,,,,,cyan,triangle
200.0,7.0,2.0,1.0,3.0,3.0,427.3472940003557,1.0,1.0,phase_1,,,,,,,,,,,,,yellow,diamond
0.0,5.0,0.0,1.0,3.0,3.0,373.8197820002824,1.0,1.0,phase_1,,,,,,,,,,,,,magenta,square
380.0,4.0,4.0,0.0,4.0,4.0,279.0103679999447,1.0,1.0,phase_1,,,,,,,,,,,,,cyan,triangle
190.0,3.0,2.0,0.0,2.0,2.0,334.1855889993894,1.0,1.0,phase_1,,,,,,,,,,,,,gray,circle
214.0,7.0,2.0,1.0,4.0,4.0,296.4512300004571,1.0,1.0,phase_1,,,,,,,,,,,,,yellow,diamond
0.0,6.0,0.0,1.0,4.0,4.0,395.1174200010428,1.0,1.0,phase_1,,,,,,,,,,,,,orange,I
410.0,8.0,4.0,1.0,4.0,4.0,347.5851999992301,1.0,1.0,phase_1,,,,,,,,,,,,,white,cross
183.0,7.0,2.0,1.0,4.0,4.0,394.3454359996394,1.0,1.0,phase_1,,,,,,,,,,,,,yellow,diamond
119.0,2.0,1.0,0.0,1.0,1.0,417.0727670007181,1.0,1.0,phase_1,,,,,,,,,,,,,blue,flipped triangle
58.0,5.0,0.5,1.0,2.0,2.0,426.0718679997808,1.0,1.0,phase_1,,,,,,,,,,,,,magenta,square
125.0,6.0,1.0,1.0,1.0,1.0,298.9264509997156,1.0,1.0,phase_1,,,,,,,,,,,,,orange,I
195.0,7.0,2.0,1.0,2.0,2.0,509.48568800049543,2.0,1.0,phase_1,,,,,,,,,,,,,yellow,diamond
396.0,8.0,4.0,1.0,3.0,3.0,403.0489629985823,2.0,1.0,phase_1,,,,,,,,,,,,,white,cross
102.0,2.0,1.0,0.0,1.0,1.0,306.6097280006943,2.0,1.0,phase_1,,,,,,,,,,,,,blue,flipped triangle
217.0,3.0,2.0,0.0,4.0,4.0,372.1783589990082,2.0,1.0,phase_1,,,,,,,,,,,,,gray,circle
422.0,8.0,4.0,1.0,4.0,4.0,430.0736029999825,2.0,1.0,phase_1,,,,,,,,,,,,,white,cross
202.0,7.0,2.0,1.0,2.0,2.0,281.5008010002202,2.0,1.0,phase_1,,,,,,,,,,,,,yellow,diamond
214.0,3.0,2.0,0.0,1.0,1.0,305.6297999992239,2.0,1.0,phase_1,,,,,,,,,,,,,gray,circle
105.0,2.0,1.0,0.0,2.0,2.0,317.5608950004971,2.0,1.0,phase_1,,,,,,,,,,,,,blue,flipped triangle
88.0,6.0,1.0,1.0,4.0,4.0,354.8557739995885,2.0,1.0,phase_1,,,,,,,,,,,,,orange,I
197.0,3.0,2.0,0.0,4.0,4.0,411.6790759999276,2.0,1.0,phase_1,,,,,,,,,,,,,gray,circle
86.0,2.0,1.0,0.0,4.0,4.0,410.0129390008078,2.0,1.0,phase_1,,,,,,,,,,,,,blue,flipped triangle
199.0,7.0,2.0,1.0,4.0,4.0,281.1594089998834,2.0,1.0,phase_1,,,,,,,,,,,,,yellow,diamond
0.0,3.0,0.0,0.0,4.0,4.0,341.6348849987116,2.0,1.0,phase_1,,,,,,,,,,,,,gray,circle
55.0,5.0,0.5,1.0,3.0,3.0,669.909825999639,2.0,1.0,phase_1,,,,,,,,,,,,,magenta,square
62.0,5.0,0.5,1.0,1.0,1.0,411.8242239983374,2.0,1.0,phase_1,,,,,,,,,,,,,magenta,square
422.0,8.0,4.0,1.0,4.0,4.0,429.9575470013224,2.0,1.0,phase_1,,,,,,,,,,,,,white,cross
0.0,2.0,0.0,0.0,4.0,4.0,425.043656001435,2.0,1.0,phase_1,,,,,,,,,,,,,blue,flipped triangle
214.0,3.0,2.0,0.0,2.0,2.0,432.2690180015343,2.0,1.0,phase_1,,,,,,,,,,,,,gray,circle
0.0,7.0,0.0,1.0,1.0,1.0,314.0554050005448,2.0,1.0,phase_1,,,,,,,,,,,,,yellow,diamond
88.0,2.0,1.0,0.0,4.0,4.0,403.3992099994066,2.0,1.0,phase_1,,,,,,,,,,,,,blue,flipped triangle
0.0,2.0,0.0,0.0,2.0,2.0,416.3590219995967,2.0,1.0,phase_1,,,,,,,,,,,,,blue,flipped triangle
421.0,4.0,4.0,0.0,2.0,2.0,407.8620849995786,2.0,2.0,phase_1,,,,,,,,,,,,,cyan,triangle
26.0,5.0,0.5,1.0,1.0,1.0,389.2325680008071,2.0,1.0,phase_1,,,,,,,,,,,,,magenta,square
213.0,3.0,2.0,0.0,4.0,4.0,412.5979430009465,2.0,1.0,phase_1,,,,,,,,,,,,,gray,circle
0.0,6.0,0.0,1.0,3.0,3.0,578.4025609991659,2.0,1.0,phase_1,,,,,,,,,,,,,orange,I
37.0,5.0,0.5,1.0,3.0,3.0,462.5846829985676,2.0,1.0,phase_1,,,,,,,,,,,,,magenta,square
67.0,1.0,0.5,0.0,3.0,3.0,391.1447379996389,2.0,1.0,phase_1,,,,,,,,,,,,,green,hexagon
33.0,1.0,0.5,0.0,1.0,1.0,380.7784370001172,2.0,1.0,phase_1,,,,,,,,,,,,,green,hexagon
0.0,5.0,0.0,1.0,2.0,2.0,347.2737179999967,2.0,1.0,phase_1,,,,,,,,,,,,,magenta,square
61.0,5.0,0.5,1.0,3.0,3.0,470.439754999461,2.0,1.0,phase_1,,,,,,,,,,,,,magenta,square
120.0,2.0,1.0,0.0,4.0,4.0,345.6978610010992,2.0,1.0,phase_1,,,,,,,,,,,,,blue,flipped triangle
197.0,7.0,2.0,1.0,2.0,2.0,310.4366659990774,2.0,1.0,phase_1,,,,,,,,,,,,,yellow,diamond
123.0,6.0,1.0,1.0,2.0,2.0,363.181478000115,2.0,1.0,phase_1,,,,,,,,,,,,,orange,I
0.0,1.0,0.0,0.0,1.0,1.0,263.0670329999702,2.0,1.0,phase_1,,,,,,,,,,,,,green,hexagon
111.0,6.0,1.0,1.0,3.0,3.0,400.3013729998201,2.0,1.0,phase_1,,,,,,,,,,,,,orange,I
92.0,6.0,1.0,1.0,3.0,3.0,421.6050220002216,2.0,1.0,phase_1,,,,,,,,,,,,,orange,I
50.0,1.0,0.5,0.0,1.0,1.0,286.2793380008952,2.0,1.0,phase_1,,,,,,,,,,,,,green,hexagon
0.0,2.0,0.0,0.0,2.0,2.0,374.4258879996778,2.0,1.0,phase_1,,,,,,,,,,,,,blue,flipped triangle
0.0,5.0,0.0,1.0,4.0,4.0,431.3117840010818,2.0,1.0,phase_1,,,,,,,,,,,,,magenta,square
0.0,4.0,0.0,0.0,4.0,4.0,421.0321470000053,2.0,1.0,phase_1,,,,,,,,,,,,,cyan,triangle
107.0,2.0,1.0,0.0,1.0,1.0,424.92181399939,2.0,1.0,phase_1,,,,,,,,,,,,,blue,flipped triangle
409.0,4.0,4.0,0.0,1.0,1.0,375.2806219999911,2.0,1.0,phase_1,,,,,,,,,,,,,cyan,triangle
0.0,2.0,0.0,0.0,1.0,1.0,371.3829579992307,2.0,1.0,phase_1,,,,,,,,,,,,,blue,flipped triangle
120.0,6.0,1.0,1.0,1.0,1.0,334.773574000792,2.0,1.0,phase_1,,,,,,,,,,,,,orange,I
101.0,2.0,1.0,0.0,3.0,3.0,371.6711460001534,2.0,1.0,phase_1,,,,,,,,,,,,,blue,flipped triangle
385.0,8.0,4.0,1.0,2.0,2.0,375.5915639994782,2.0,1.0,phase_1,,,,,,,,,,,,,white,cross
80.0,2.0,1.0,0.0,2.0,2.0,353.7088619996211,2.0,1.0,phase_1,,,,,,,,,,,,,blue,flipped triangle
223.0,3.0,2.0,0.0,3.0,3.0,414.9909749994549,2.0,1.0,phase_1,,,,,,,,,,,,,gray,circle
0.0,7.0,0.0,1.0,4.0,4.0,465.7523490004678,2.0,1.0,phase_1,,,,,,,,,,,,,yellow,diamond
0.0,2.0,0.0,0.0,3.0,3.0,383.5746919994562,2.0,1.0,phase_1,,,,,,,,,,,,,blue,flipped triangle
401.0,8.0,4.0,1.0,2.0,2.0,283.5272449992772,2.0,1.0,phase_1,,,,,,,,,,,,,white,cross
49.0,1.0,0.5,0.0,1.0,1.0,300.5253040009847,2.0,1.0,phase_1,,,,,,,,,,,,,green,hexagon
0.0,5.0,0.0,1.0,3.0,3.0,438.9591330000257,2.0,1.0,phase_1,,,,,,,,,,,,,magenta,square
192.0,3.0,2.0,0.0,1.0,1.0,415.9776720007357,2.0,1.0,phase_1,,,,,,,,,,,,,gray,circle
223.0,7.0,2.0,1.0,4.0,4.0,630.0314400014031,2.0,1.0,phase_1,,,,,,,,,,,,,yellow,diamond
394.0,4.0,4.0,0.0,3.0,3.0,409.8946029989747,2.0,1.0,phase_1,,,,,,,,,,,,,cyan,triangle
53.0,1.0,0.5,0.0,3.0,3.0,329.5075290006934,2.0,1.0,phase_1,,,,,,,,,,,,,green,hexagon
0.0,2.0,0.0,0.0,3.0,3.0,362.9240740010573,2.0,1.0,phase_1,,,,,,,,,,,,,blue,flipped triangle
0.0,7.0,0.0,1.0,4.0,4.0,323.334380000233,2.0,1.0,phase_1,,,,,,,,,,,,,yellow,diamond
209.0,3.0,2.0,0.0,4.0,4.0,410.5824399994162,2.0,1.0,phase_1,,,,,,,,,,,,,gray,circle
376.0,8.0,4.0,1.0,3.0,3.0,337.8320049996546,2.0,1.0,phase_1,,,,,,,,,,,,,white,cross
55.0,1.0,0.5,0.0,4.0,4.0,333.90658099961,2.0,1.0,phase_1,,,,,,,,,,,,,green,hexagon
397.0,8.0,4.0,1.0,4.0,4.0,340.1655760007998,2.0,1.0,phase_1,,,,,,,,,,,,,white,cross
64.0,1.0,0.5,0.0,1.0,1.0,320.6677830003173,2.0,1.0,phase_1,,,,,,,,,,,,,green,hexagon
387.0,4.0,4.0,0.0,4.0,4.0,270.4964450003899,2.0,1.0,phase_1,,,,,,,,,,,,,cyan,triangle
205.0,7.0,2.0,1.0,2.0,2.0,281.9818070001929,2.0,1.0,phase_1,,,,,,,,,,,,,yellow,diamond
0.0,8.0,0.0,1.0,1.0,1.0,255.5466809990321,2.0,1.0,phase_1,,,,,,,,,,,,,white,cross
376.0,8.0,4.0,1.0,2.0,2.0,374.6033019997412,2.0,1.0,phase_1,,,,,,,,,,,,,white,cross
190.0,7.0,2.0,1.0,1.0,1.0,261.8496840004809,2.0,1.0,phase_1,,,,,,,,,,,,,yellow,diamond
65.0,1.0,0.5,0.0,2.0,2.0,272.9164689990284,2.0,1.0,phase_1,,,,,,,,,,,,,green,hexagon
422.0,4.0,4.0,0.0,3.0,3.0,412.6638870002352,2.0,1.0,phase_1,,,,,,,,,,,,,cyan,triangle
45.0,5.0,0.5,1.0,3.0,3.0,399.5310279988189,2.0,1.0,phase_1,,,,,,,,,,,,,magenta,square
34.0,1.0,0.5,0.0,4.0,4.0,396.3059170000633,2.0,1.0,phase_1,,,,,,,,,,,,,green,hexagon
0.0,8.0,0.0,1.0,4.0,4.0,389.4823090013233,2.0,1.0,phase_1,,,,,,,,,,,,,white,cross
31.0,5.0,0.5,1.0,1.0,1.0,359.927642999537,2.0,1.0,phase_1,,,,,,,,,,,,,magenta,square
0.0,1.0,0.0,0.0,4.0,4.0,352.5164460006635,2.0,1.0,phase_1,,,,,,,,,,,,,green,hexagon
192.0,7.0,2.0,1.0,3.0,3.0,502.22855700121727,2.0,1.0,phase_1,,,,,,,,,,,,,yellow,diamond
27.0,1.0,0.5,0.0,3.0,3.0,448.5149159991124,2.0,1.0,phase_1,,,,,,,,,,,,,green,hexagon
0.0,4.0,0.0,0.0,3.0,3.0,391.6991630012489,2.0,1.0,phase_1,,,,,,,,,,,,,cyan,triangle
0.0,6.0,0.0,1.0,2.0,2.0,420.2958450005098,2.0,1.0,phase_1,,,,,,,,,,,,,orange,I
405.0,4.0,4.0,0.0,3.0,3.0,374.6919860004709,2.0,1.0,phase_1,,,,,,,,,,,,,cyan,triangle
52.0,1.0,0.5,0.0,2.0,2.0,343.6568830002215,2.0,1.0,phase_1,,,,,,,,,,,,,green,hexagon
117.0,2.0,1.0,0.0,2.0,2.0,536.8757020005432,2.0,1.0,phase_1,,,,,,,,,,,,,blue,flipped triangle
0.0,5.0,0.0,1.0,4.0,4.0,413.9855530011118,2.0,1.0,phase_1,,,,,,,,,,,,,magenta,square
424.0,4.0,4.0,0.0,1.0,1.0,433.0638880001061,2.0,1.0,phase_1,,,,,,,,,,,,,cyan,triangle
179.0,7.0,2.0,1.0,3.0,3.0,423.3626539989927,2.0,1.0,phase_1,,,,,,,,,,,,,yellow,diamond
379.0,4.0,4.0,0.0,1.0,1.0,401.5790749999723,2.0,1.0,phase_1,,,,,,,,,,,,,cyan,triangle
92.0,2.0,1.0,0.0,4.0,4.0,481.4992020001227,2.0,1.0,phase_1,,,,,,,,,,,,,blue,flipped triangle
88.0,6.0,1.0,1.0,1.0,1.0,344.38235800007527,2.0,1.0,phase_1,,,,,,,,,,,,,orange,I
43.0,1.0,0.5,0.0,3.0,3.0,448.9376539986551,2.0,1.0,phase_1,,,,,,,,,,,,,green,hexagon
175.0,7.0,2.0,1.0,3.0,3.0,424.0702480001346,2.0,1.0,phase_1,,,,,,,,,,,,,yellow,diamond
0.0,7.0,0.0,1.0,4.0,4.0,415.4370470005233,2.0,1.0,phase_1,,,,,,,,,,,,,yellow,diamond
92.0,2.0,1.0,0.0,1.0,1.0,409.3157739989692,2.0,1.0,phase_1,,,,,,,,,,,,,blue,flipped triangle
34.0,5.0,0.5,1.0,2.0,2.0,365.646819000176,2.0,1.0,phase_1,,,,,,,,,,,,,magenta,square
111.0,6.0,1.0,1.0,3.0,3.0,370.3870290009945,2.0,1.0,phase_1,,,,,,,,,,,,,orange,I
26.0,1.0,0.5,0.0,4.0,4.0,315.6185919997369,2.0,1.0,phase_1,,,,,,,,,,,,,green,hexagon
65.0,1.0,0.5,0.0,2.0,2.0,353.3264550005697,2.0,1.0,phase_1,,,,,,,,,,,,,green,hexagon
179.0,7.0,2.0,1.0,2.0,2.0,354.0533220002544,2.0,1.0,phase_1,,,,,,,,,,,,,yellow,diamond
62.0,5.0,0.5,1.0,3.0,3.0,330.6311899996217,2.0,1.0,phase_1,,,,,,,,,,,,,magenta,square
0.0,8.0,0.0,1.0,3.0,3.0,348.798455999713,2.0,1.0,phase_1,,,,,,,,,,,,,white,cross
123.0,2.0,1.0,0.0,3.0,3.0,380.1404620007815,3.0,1.0,phase_1,,,,,,,,,,,,,blue,flipped triangle
199.0,3.0,2.0,0.0,1.0,1.0,371.7213970012381,3.0,2.0,phase_1,,,,,,,,,,,,,gray,circle
59.0,1.0,0.5,0.0,1.0,1.0,403.0060349996347,3.0,1.0,phase_1,,,,,,,,,,,,,green,hexagon
58.0,1.0,0.5,0.0,3.0,3.0,366.7838829987886,3.0,1.0,phase_1,,,,,,,,,,,,,green,hexagon
383.0,8.0,4.0,1.0,3.0,3.0,441.7165120012214,3.0,1.0,phase_1,,,,,,,,,,,,,white,cross
0.0,1.0,0.0,0.0,3.0,3.0,348.1723999993846,3.0,1.0,phase_1,,,,,,,,,,,,,green,hexagon
217.0,7.0,2.0,1.0,1.0,1.0,317.0382790012809,3.0,1.0,phase_1,,,,,,,,,,,,,yellow,diamond
0.0,4.0,0.0,0.0,2.0,2.0,298.6724839993258,3.0,1.0,phase_1,,,,,,,,,,,,,cyan,triangle
410.0,4.0,4.0,0.0,2.0,2.0,293.1299570009287,3.0,1.0,phase_1,,,,,,,,,,,,,cyan,triangle
83.0,2.0,1.0,0.0,3.0,3.0,393.6499070005084,3.0,1.0,phase_1,,,,,,,,,,,,,blue,flipped triangle
188.0,7.0,2.0,1.0,4.0,4.0,310.8457549988088,3.0,1.0,phase_1,,,,,,,,,,,,,yellow,diamond
90.0,2.0,1.0,0.0,4.0,4.0,348.513926999658,3.0,1.0,phase_1,,,,,,,,,,,,,blue,flipped triangle
0.0,7.0,0.0,1.0,1.0,1.0,258.8287979997403,3.0,1.0,phase_1,,,,,,,,,,,,,yellow,diamond
80.0,6.0,1.0,1.0,2.0,2.0,410.2188200013188,3.0,1.0,phase_1,,,,,,,,,,,,,orange,I
31.0,1.0,0.5,0.0,3.0,3.0,354.1958539990446,3.0,1.0,phase_1,,,,,,,,,,,,,green,hexagon
111.0,2.0,1.0,0.0,4.0,4.0,413.7440880003851,3.0,1.0,phase_1,,,,,,,,,,,,,blue,flipped triangle
111.0,2.0,1.0,0.0,4.0,4.0,343.617151998842,3.0,2.0,phase_1,,,,,,,,,,,,,blue,flipped triangle
59.0,5.0,0.5,1.0,2.0,2.0,374.4601320013316,3.0,1.0,phase_1,,,,,,,,,,,,,magenta,square
59.0,5.0,0.5,1.0,4.0,4.0,347.1553360013786,3.0,1.0,phase_1,,,,,,,,,,,,,magenta,square
87.0,2.0,1.0,0.0,3.0,3.0,414.703376000034,3.0,2.0,phase_1,,,,,,,,,,,,,blue,flipped triangle
411.0,8.0,4.0,1.0,1.0,1.0,391.693755000233,3.0,1.0,phase_1,,,,,,,,,,,,,white,cross
90.0,6.0,1.0,1.0,4.0,4.0,360.7255200004147,3.0,1.0,phase_1,,,,,,,,,,,,,orange,I
123.0,6.0,1.0,1.0,1.0,1.0,424.22971000087267,3.0,1.0,phase_1,,,,,,,,,,,,,orange,I
200.0,3.0,2.0,0.0,1.0,1.0,352.3923709999508,3.0,1.0,phase_1,,,,,,,,,,,,,gray,circle
202.0,3.0,2.0,0.0,2.0,2.0,657.4564940001437,3.0,1.0,phase_1,,,,,,,,,,,,,gray,circle
68.0,1.0,0.5,0.0,4.0,4.0,379.1249570003856,3.0,1.0,phase_1,,,,,,,,,,,,,green,hexagon
102.0,6.0,1.0,1.0,4.0,4.0,401.1434289986937,3.0,1.0,phase_1,,,,,,,,,,,,,orange,I
103.0,2.0,1.0,0.0,3.0,3.0,362.7240879995952,3.0,1.0,phase_1,,,,,,,,,,,,,blue,flipped triangle
0.0,1.0,0.0,0.0,4.0,4.0,348.5194759996375,3.0,1.0,phase_1,,,,,,,,,,,,,green,hexagon
90.0,2.0,1.0,0.0,4.0,4.0,298.6522960000002,3.0,1.0,phase_1,,,,,,,,,,,,,blue,flipped triangle
0.0,2.0,0.0,0.0,4.0,4.0,370.4413029990974,3.0,1.0,phase_1,,,,,,,,,,,,,blue,flipped triangle
37.0,1.0,0.5,0.0,1.0,1.0,285.5322650011658,3.0,1.0,phase_1,,,,,,,,,,,,,green,hexagon
0.0,2.0,0.0,0.0,1.0,1.0,478.8578049992793,3.0,1.0,phase_1,,,,,,,,,,,,,blue,flipped triangle
420.0,8.0,4.0,1.0,2.0,2.0,386.5008290013065,3.0,2.0,phase_1,,,,,,,,,,,,,white,cross
398.0,8.0,4.0,1.0,4.0,4.0,369.4579610000801,3.0,1.0,phase_1,,,,,,,,,,,,,white,cross
199.0,3.0,2.0,0.0,4.0,4.0,408.5733849988173,3.0,1.0,phase_1,,,,,,,,,,,,,gray,circle
195.0,3.0,2.0,0.0,1.0,1.0,394.1586609998921,3.0,1.0,phase_1,,,,,,,,,,,,,gray,circle
199.0,7.0,2.0,1.0,1.0,1.0,364.7891750006238,3.0,1.0,phase_1,,,,,,,,,,,,,yellow,diamond
411.0,4.0,4.0,0.0,4.0,4.0,455.6028949991741,3.0,1.0,phase_1,,,,,,,,,,,,,cyan,triangle
420.0,4.0,4.0,0.0,3.0,3.0,418.5530329996254,3.0,1.0,phase_1,,,,,,,,,,,,,cyan,triangle
0.0,7.0,0.0,1.0,2.0,2.0,337.5571910000872,3.0,1.0,phase_1,,,,,,,,,,,,,yellow,diamond
97.0,6.0,1.0,1.0,2.0,2.0,375.2653920000739,3.0,1.0,phase_1,,,,,,,,,,,,,orange,I
417.0,4.0,4.0,0.0,4.0,4.0,436.4051149987062,3.0,1.0,phase_1,,,,,,,,,,,,,cyan,triangle
202.0,7.0,2.0,1.0,4.0,4.0,414.0429679991939,3.0,1.0,phase_1,,,,,,,,,,,,,yellow,diamond
423.0,8.0,4.0,1.0,2.0,2.0,255.03431799916137,3.0,1.0,phase_1,,,,,,,,,,,,,white,cross
55.0,1.0,0.5,0.0,2.0,2.0,341.0393030007981,3.0,1.0,phase_1,,,,,,,,,,,,,green,hexagon
43.0,5.0,0.5,1.0,4.0,4.0,372.3543900014192,3.0,1.0,phase_1,,,,,,,,,,,,,magenta,square
86.0,6.0,1.0,1.0,2.0,2.0,257.2613769989402,3.0,1.0,phase_1,,,,,,,,,,,,,orange,I
202.0,3.0,2.0,0.0,3.0,3.0,362.2286059999169,3.0,1.0,phase_1,,,,,,,,,,,,,gray,circle
92.0,6.0,1.0,1.0,4.0,4.0,519.8306599995703,3.0,1.0,phase_1,,,,,,,,,,,,,orange,I
72.0,1.0,0.5,0.0,2.0,2.0,430.1748069992754,3.0,1.0,phase_1,,,,,,,,,,,,,green,hexagon
391.0,4.0,4.0,0.0,2.0,2.0,346.5863979999994,3.0,1.0,phase_1,,,,,,,,,,,,,cyan,triangle
27.0,5.0,0.5,1.0,2.0,2.0,399.5943409991014,3.0,1.0,phase_1,,,,,,,,,,,,,magenta,square
397.0,4.0,4.0,0.0,1.0,1.0,516.4633019994653,3.0,1.0,phase_1,,,,,,,,,,,,,cyan,triangle
0.0,3.0,0.0,0.0,4.0,4.0,426.3447970006382,3.0,1.0,phase_1,,,,,,,,,,,,,gray,circle
95.0,2.0,1.0,0.0,2.0,2.0,340.7381860015448,3.0,1.0,phase_1,,,,,,,,,,,,,blue,flipped triangle
0.0,2.0,0.0,0.0,2.0,2.0,344.7858070012444,3.0,1.0,phase_1,,,,,,,,,,,,,blue,flipped triangle
183.0,3.0,2.0,0.0,2.0,2.0,296.1457380006322,3.0,1.0,phase_1,,,,,,,,,,,,,gray,circle
33.0,5.0,0.5,1.0,1.0,1.0,356.0943989996303,3.0,1.0,phase_1,,,,,,,,,,,,,magenta,square
220.0,3.0,2.0,0.0,2.0,2.0,331.6965770009119,3.0,1.0,phase_1,,,,,,,,,,,,,gray,circle
29.0,5.0,0.5,1.0,4.0,4.0,364.9603039993963,3.0,1.0,phase_1,,,,,,,,,,,,,magenta,square
120.0,2.0,1.0,0.0,3.0,3.0,434.1696589999628,3.0,1.0,phase_1,,,,,,,,,,,,,blue,flipped triangle
0.0,4.0,0.0,0.0,1.0,1.0,294.7232980004628,3.0,1.0,phase_1,,,,,,,,,,,,,cyan,triangle
61.0,1.0,0.5,0.0,4.0,4.0,274.7200209996663,3.0,2.0,phase_1,,,,,,,,,,,,,green,hexagon
48.0,1.0,0.5,0.0,1.0,1.0,429.3653549993905,3.0,1.0,phase_1,,,,,,,,,,,,,green,hexagon
0.0,3.0,0.0,0.0,3.0,3.0,506.8167490007909,3.0,1.0,phase_1,,,,,,,,,,,,,gray,circle
0.0,6.0,0.0,1.0,4.0,4.0,484.5535219992598,3.0,1.0,phase_1,,,,,,,,,,,,,orange,I
108.0,6.0,1.0,1.0,2.0,2.0,435.7594890007021,3.0,1.0,phase_1,,,,,,,,,,,,,orange,I
33.0,5.0,0.5,1.0,3.0,3.0,498.5296030008612,3.0,1.0,phase_1,,,,,,,,,,,,,magenta,square
0.0,4.0,0.0,0.0,1.0,1.0,341.4540470002976,3.0,1.0,phase_1,,,,,,,,,,,,,cyan,triangle
391.0,4.0,4.0,0.0,3.0,3.0,478.1812740002351,3.0,1.0,phase_1,,,,,,,,,,,,,cyan,triangle
27.0,1.0,0.5,0.0,2.0,2.0,306.1472959998355,3.0,1.0,phase_1,,,,,,,,,,,,,green,hexagon
0.0,6.0,0.0,1.0,4.0,4.0,418.736527000874,3.0,1.0,phase_1,,,,,,,,,,,,,orange,I
78.0,2.0,1.0,0.0,3.0,3.0,397.422349999033,3.0,1.0,phase_1,,,,,,,,,,,,,blue,flipped triangle
422.0,4.0,4.0,0.0,3.0,3.0,367.5852460000897,3.0,1.0,phase_1,,,,,,,,,,,,,cyan,triangle
55.0,5.0,0.5,1.0,3.0,3.0,376.2918120009999,3.0,1.0,phase_1,,,,,,,,,,,,,magenta,square
421.0,8.0,4.0,1.0,1.0,1.0,347.4017330008792,3.0,1.0,phase_1,,,,,,,,,,,,,white,cross
119.0,6.0,1.0,1.0,4.0,4.0,341.3551230005396,3.0,1.0,phase_1,,,,,,,,,,,,,orange,I
0.0,3.0,0.0,0.0,4.0,4.0,406.9023840002046,3.0,1.0,phase_1,,,,,,,,,,,,,gray,circle
36.0,1.0,0.5,0.0,4.0,4.0,352.4991329995828,3.0,1.0,phase_1,,,,,,,,,,,,,green,hexagon
88.0,2.0,1.0,0.0,3.0,3.0,399.8222659993189,3.0,1.0,phase_1,,,,,,,,,,,,,blue,flipped triangle
0.0,5.0,0.0,1.0,3.0,3.0,338.955289000296,3.0,1.0,phase_1,,,,,,,,,,,,,magenta,square
0.0,1.0,0.0,0.0,2.0,2.0,366.2797580000188,3.0,1.0,phase_1,,,,,,,,,,,,,green,hexagon
103.0,6.0,1.0,1.0,2.0,2.0,368.92728499879007,3.0,1.0,phase_1,,,,,,,,,,,,,orange,I
0.0,4.0,0.0,0.0,2.0,2.0,381.7477120010153,3.0,1.0,phase_1,,,,,,,,,,,,,cyan,triangle
382.0,8.0,4.0,1.0,2.0,2.0,287.8564650000044,3.0,1.0,phase_1,,,,,,,,,,,,,white,cross
64.0,5.0,0.5,1.0,4.0,4.0,352.2889030009537,3.0,1.0,phase_1,,,,,,,,,,,,,magenta,square
28.0,5.0,0.5,1.0,4.0,4.0,358.8941139987582,3.0,1.0,phase_1,,,,,,,,,,,,,magenta,square
197.0,7.0,2.0,1.0,2.0,2.0,289.4220649995986,3.0,1.0,phase_1,,,,,,,,,,,,,yellow,diamond
42.0,1.0,0.5,0.0,4.0,4.0,354.5986360004463,3.0,1.0,phase_1,,,,,,,,,,,,,green,hexagon
216.0,3.0,2.0,0.0,3.0,3.0,440.1127109995286,3.0,1.0,phase_1,,,,,,,,,,,,,gray,circle
179.0,3.0,2.0,0.0,3.0,3.0,371.3997040013055,3.0,1.0,phase_1,,,,,,,,,,,,,gray,circle
396.0,8.0,4.0,1.0,4.0,4.0,473.9979810001387,3.0,1.0,phase_1,,,,,,,,,,,,,white,cross
217.0,3.0,2.0,0.0,1.0,1.0,358.65302099955437,3.0,1.0,phase_1,,,,,,,,,,,,,gray,circle
0.0,1.0,0.0,0.0,4.0,4.0,331.1306200012041,3.0,1.0,phase_1,,,,,,,,,,,,,green,hexagon
217.0,7.0,2.0,1.0,1.0,1.0,450.8280189984361,3.0,1.0,phase_1,,,,,,,,,,,,,yellow,diamond
91.0,6.0,1.0,1.0,3.0,3.0,618.5384079999494,3.0,1.0,phase_1,,,,,,,,,,,,,orange,I
118.0,2.0,1.0,0.0,1.0,1.0,420.7904049999342,3.0,1.0,phase_1,,,,,,,,,,,,,blue,flipped triangle
386.0,4.0,4.0,0.0,2.0,2.0,390.8088069983932,3.0,1.0,phase_1,,,,,,,,,,,,,cyan,triangle
398.0,4.0,4.0,0.0,4.0,4.0,431.0369409995473,3.0,1.0,phase_1,,,,,,,,,,,,,cyan,triangle
101.0,6.0,1.0,1.0,2.0,2.0,414.0036139997392,4.0,1.0,phase_1,,,,,,,,,,,,,orange,I
0.0,5.0,0.0,1.0,3.0,3.0,335.447188001126,4.0,1.0,phase_1,,,,,,,,,,,,,magenta,square
188.0,3.0,2.0,0.0,3.0,3.0,389.711661999172,4.0,1.0,phase_1,,,,,,,,,,,,,gray,circle
391.0,8.0,4.0,1.0,1.0,1.0,317.8634149990103,4.0,1.0,phase_1,,,,,,,,,,,,,white,cross
67.0,5.0,0.5,1.0,3.0,3.0,399.2471889996523,4.0,1.0,phase_1,,,,,,,,,,,,,magenta,square
205.0,3.0,2.0,0.0,3.0,3.0,284.8145699990709,4.0,1.0,phase_1,,,,,,,,,,,,,gray,circle
199.0,3.0,2.0,0.0,3.0,3.0,373.1936559997848,4.0,1.0,phase_1,,,,,,,,,,,,,gray,circle
0.0,8.0,0.0,1.0,1.0,1.0,307.2055990014632,4.0,1.0,phase_1,,,,,,,,,,,,,white,cross
42.0,1.0,0.5,0.0,2.0,2.0,500.8339070009242,4.0,1.0,phase_1,,,,,,,,,,,,,green,hexagon
48.0,5.0,0.5,1.0,1.0,1.0,409.2207699995924,4.0,1.0,phase_1,,,,,,,,,,,,,magenta,square
177.0,7.0,2.0,1.0,1.0,1.0,346.1564530007308,4.0,1.0,phase_1,,,,,,,,,,,,,yellow,diamond
423.0,4.0,4.0,0.0,4.0,4.0,574.3060289987625,4.0,1.0,phase_1,,,,,,,,,,,,,cyan,triangle
0.0,1.0,0.0,0.0,4.0,4.0,385.7691279990831,4.0,1.0,phase_1,,,,,,,,,,,,,green,hexagon
387.0,8.0,4.0,1.0,1.0,1.0,346.7190820010728,4.0,1.0,phase_1,,,,,,,,,,,,,white,cross
424.0,8.0,4.0,1.0,1.0,1.0,340.437725000811,4.0,1.0,phase_1,,,,,,,,,,,,,white,cross
0.0,7.0,0.0,1.0,3.0,3.0,417.0085299992934,4.0,1.0,phase_1,,,,,,,,,,,,,yellow,diamond
402.0,8.0,4.0,1.0,3.0,3.0,352.3311009994359,4.0,1.0,phase_1,,,,,,,,,,,,,white,cross
28.0,1.0,0.5,0.0,2.0,2.0,306.7331530000956,4.0,1.0,phase_1,,,,,,,,,,,,,green,hexagon
0.0,1.0,0.0,0.0,4.0,4.0,405.0864510008978,4.0,1.0,phase_1,,,,,,,,,,,,,green,hexagon
93.0,6.0,1.0,1.0,4.0,4.0,335.1804059984715,4.0,1.0,phase_1,,,,,,,,,,,,,orange,I
185.0,7.0,2.0,1.0,3.0,3.0,348.0433530003211,4.0,1.0,phase_1,,,,,,,,,,,,,yellow,diamond
91.0,2.0,1.0,0.0,2.0,2.0,325.1123820009525,4.0,1.0,phase_1,,,,,,,,,,,,,blue,flipped triangle
117.0,6.0,1.0,1.0,4.0,4.0,368.8823009997577,4.0,1.0,phase_1,,,,,,,,,,,,,orange,I
59.0,1.0,0.5,0.0,4.0,4.0,396.7599119987426,4.0,1.0,phase_1,,,,,,,,,,,,,green,hexagon
212.0,3.0,2.0,0.0,2.0,2.0,360.2083350015164,4.0,1.0,phase_1,,,,,,,,,,,,,gray,circle
76.0,6.0,1.0,1.0,1.0,1.0,534.033261001241,4.0,1.0,phase_1,,,,,,,,,,,,,orange,I
36.0,5.0,0.5,1.0,2.0,2.0,344.0880929993,4.0,1.0,phase_1,,,,,,,,,,,,,magenta,square
125.0,2.0,1.0,0.0,1.0,1.0,357.4204810010997,4.0,1.0,phase_1,,,,,,,,,,,,,blue,flipped triangle
87.0,2.0,1.0,0.0,2.0,2.0,304.7782300000108,4.0,1.0,phase_1,,,,,,,,,,,,,blue,flipped triangle
0.0,7.0,0.0,1.0,4.0,4.0,355.5481740004325,4.0,1.0,phase_1,,,,,,,,,,,,,yellow,diamond
55.0,1.0,0.5,0.0,3.0,3.0,535.9104500003014,4.0,1.0,phase_1,,,,,,,,,,,,,green,hexagon
42.0,5.0,0.5,1.0,2.0,2.0,452.484811999966,4.0,1.0,phase_1,,,,,,,,,,,,,magenta,square
109.0,6.0,1.0,1.0,1.0,1.0,402.4267340009828,4.0,1.0,phase_1,,,,,,,,,,,,,orange,I
0.0,5.0,0.0,1.0,2.0,2.0,311.7266839999502,4.0,1.0,phase_1,,,,,,,,,,,,,magenta,square
382.0,4.0,4.0,0.0,2.0,2.0,340.9691890010435,4.0,1.0,phase_1,,,,,,,,,,,,,cyan,triangle
50.0,5.0,0.5,1.0,2.0,2.0,321.0146410001471,4.0,1.0,phase_1,,,,,,,,,,,,,magenta,square
196.0,7.0,2.0,1.0,3.0,3.0,342.3683820001315,4.0,1.0,phase_1,,,,,,,,,,,,,yellow,diamond
175.0,3.0,2.0,0.0,3.0,3.0,332.8357209993555,4.0,1.0,phase_1,,,,,,,,,,,,,gray,circle
177.0,3.0,2.0,0.0,1.0,1.0,588.0771380016085,4.0,1.0,phase_1,,,,,,,,,,,,,gray,circle
0.0,4.0,0.0,0.0,4.0,4.0,748.6511989991413,4.0,1.0,phase_1,,,,,,,,,,,,,cyan,triangle
116.0,2.0,1.0,0.0,1.0,1.0,369.4515770002908,4.0,1.0,phase_1,,,,,,,,,,,,,blue,flipped triangle
398.0,8.0,4.0,1.0,1.0,1.0,401.982085999407,4.0,1.0,phase_1,,,,,,,,,,,,,white,cross
100.0,2.0,1.0,0.0,1.0,1.0,342.3644080012309,4.0,1.0,phase_1,,,,,,,,,,,,,blue,flipped triangle
405.0,8.0,4.0,1.0,3.0,3.0,463.1233449999854,4.0,1.0,phase_1,,,,,,,,,,,,,white,cross
216.0,7.0,2.0,1.0,2.0,2.0,418.49803399964,4.0,1.0,phase_1,,,,,,,,,,,,,yellow,diamond
0.0,6.0,0.0,1.0,4.0,4.0,400.3011050008354,4.0,1.0,phase_1,,,,,,,,,,,,,orange,I
376.0,4.0,4.0,0.0,3.0,3.0,356.7914359991846,4.0,1.0,phase_1,,,,,,,,,,,,,cyan,triangle
0.0,6.0,0.0,1.0,4.0,4.0,352.6187200004642,4.0,1.0,phase_1,,,,,,,,,,,,,orange,I
0.0,8.0,0.0,1.0,4.0,4.0,337.2512410005583,4.0,1.0,phase_1,,,,,,,,,,,,,white,cross
208.0,3.0,2.0,0.0,2.0,2.0,455.6527510012529,4.0,1.0,phase_1,,,,,,,,,,,,,gray,circle
0.0,8.0,0.0,1.0,3.0,3.0,378.1791029996384,4.0,1.0,phase_1,,,,,,,,,,,,,white,cross
67.0,1.0,0.5,0.0,4.0,4.0,396.44309300092567,4.0,1.0,phase_1,,,,,,,,,,,,,green,hexagon
76.0,2.0,1.0,0.0,2.0,2.0,386.1282689995278,4.0,1.0,phase_1,,,,,,,,,,,,,blue,flipped triangle
213.0,7.0,2.0,1.0,4.0,4.0,380.7193810007447,4.0,1.0,phase_1,,,,,,,,,,,,,yellow,diamond
387.0,8.0,4.0,1.0,1.0,1.0,349.9911159997282,4.0,1.0,phase_1,,,,,,,,,,,,,white,cross
0.0,4.0,0.0,0.0,3.0,3.0,293.6268920002476,4.0,1.0,phase_1,,,,,,,,,,,,,cyan,triangle
386.0,8.0,4.0,1.0,1.0,1.0,349.6147210007621,4.0,1.0,phase_1,,,,,,,,,,,,,white,cross
29.0,1.0,0.5,0.0,1.0,1.0,427.819960999841,4.0,1.0,phase_1,,,,,,,,,,,,,green,hexagon
412.0,8.0,4.0,1.0,3.0,3.0,414.0508880009292,4.0,1.0,phase_1,,,,,,,,,,,,,white,cross
217.0,3.0,2.0,0.0,4.0,4.0,519.3568960003176,4.0,1.0,phase_1,,,,,,,,,,,,,gray,circle
205.0,3.0,2.0,0.0,1.0,1.0,344.4711060001282,4.0,1.0,phase_1,,,,,,,,,,,,,gray,circle
409.0,4.0,4.0,0.0,4.0,4.0,526.8201140006568,4.0,1.0,phase_1,,,,,,,,,,,,,cyan,triangle
197.0,3.0,2.0,0.0,3.0,3.0,356.381331999728,4.0,1.0,phase_1,,,,,,,,,,,,,gray,circle
79.0,6.0,1.0,1.0,4.0,4.0,387.2704290006368,4.0,1.0,phase_1,,,,,,,,,,,,,orange,I
205.0,7.0,2.0,1.0,2.0,2.0,474.305985000683,4.0,1.0,phase_1,,,,,,,,,,,,,yellow,diamond
72.0,5.0,0.5,1.0,1.0,1.0,322.1032929995999,4.0,1.0,phase_1,,,,,,,,,,,,,magenta,square
180.0,7.0,2.0,1.0,1.0,1.0,303.2609759993647,4.0,1.0,phase_1,,,,,,,,,,,,,yellow,diamond
65.0,5.0,0.5,1.0,1.0,1.0,293.3228220008459,4.0,1.0,phase_1,,,,,,,,,,,,,magenta,square
382.0,4.0,4.0,0.0,2.0,2.0,402.9660039996088,4.0,1.0,phase_1,,,,,,,,,,,,,cyan,triangle
0.0,3.0,0.0,0.0,2.0,2.0,326.843392000228,4.0,1.0,phase_1,,,,,,,,,,,,,gray,circle
214.0,3.0,2.0,0.0,3.0,3.0,374.7984360015834,4.0,1.0,phase_1,,,,,,,,,,,,,gray,circle
200.0,7.0,2.0,1.0,3.0,3.0,385.90202100022,4.0,1.0,phase_1,,,,,,,,,,,,,yellow,diamond
180.0,3.0,2.0,0.0,4.0,4.0,406.3583570004994,4.0,1.0,phase_1,,,,,,,,,,,,,gray,circle
0.0,6.0,0.0,1.0,3.0,3.0,349.4671589996869,4.0,1.0,phase_1,,,,,,,,,,,,,orange,I
0.0,3.0,0.0,0.0,2.0,2.0,337.484580999444,4.0,1.0,phase_1,,,,,,,,,,,,,gray,circle
383.0,4.0,4.0,0.0,1.0,1.0,287.1273059990926,4.0,1.0,phase_1,,,,,,,,,,,,,cyan,triangle
123.0,2.0,1.0,0.0,2.0,2.0,398.0377449988737,4.0,1.0,phase_1,,,,,,,,,,,,,blue,flipped triangle
111.0,6.0,1.0,1.0,1.0,1.0,398.589960001118,4.0,1.0,phase_1,,,,,,,,,,,,,orange,I
376.0,8.0,4.0,1.0,2.0,2.0,346.6660840003897,4.0,1.0,phase_1,,,,,,,,,,,,,white,cross
120.0,6.0,1.0,1.0,1.0,1.0,254.3148599997948,4.0,1.0,phase_1,,,,,,,,,,,,,orange,I
75.0,5.0,0.5,1.0,4.0,4.0,457.3758909991738,4.0,1.0,phase_1,,,,,,,,,,,,,magenta,square
0.0,6.0,0.0,1.0,1.0,1.0,468.1987760013726,4.0,1.0,phase_1,,,,,,,,,,,,,orange,I
53.0,5.0,0.5,1.0,2.0,2.0,331.5410529994551,4.0,1.0,phase_1,,,,,,,,,,,,,magenta,square
401.0,4.0,4.0,0.0,3.0,3.0,363.3148689987138,4.0,1.0,phase_1,,,,,,,,,,,,,cyan,triangle
0.0,3.0,0.0,0.0,1.0,1.0,301.2046189996908,4.0,1.0,phase_1,,,,,,,,,,,,,gray,circle
415.0,8.0,4.0,1.0,4.0,4.0,425.6925049994606,4.0,1.0,phase_1,,,,,,,,,,,,,white,cross
422.0,8.0,4.0,1.0,4.0,4.0,437.503650000508,4.0,1.0,phase_1,,,,,,,,,,,,,white,cross
409.0,8.0,4.0,1.0,3.0,3.0,415.2237670004979,4.0,1.0,phase_1,,,,,,,,,,,,,white,cross
398.0,4.0,4.0,0.0,4.0,4.0,407.7467850001994,4.0,1.0,phase_1,,,,,,,,,,,,,cyan,triangle
100.0,6.0,1.0,1.0,3.0,3.0,337.6877970003988,4.0,1.0,phase_1,,,,,,,,,,,,,orange,I
0.0,4.0,0.0,0.0,4.0,4.0,432.1448379996582,4.0,1.0,phase_1,,,,,,,,,,,,,cyan,triangle
0.0,8.0,0.0,1.0,3.0,3.0,308.2952750010008,4.0,1.0,phase_1,,,,,,,,,,,,,white,cross
68.0,5.0,0.5,1.0,4.0,4.0,381.3313110003946,4.0,1.0,phase_1,,,,,,,,,,,,,magenta,square
220.0,7.0,2.0,1.0,4.0,4.0,611.6243549986393,4.0,1.0,phase_1,,,,,,,,,,,,,yellow,diamond
400.0,8.0,4.0,1.0,2.0,2.0,374.6108960003766,4.0,1.0,phase_1,,,,,,,,,,,,,white,cross
41.0,5.0,0.5,1.0,1.0,1.0,577.8810259998863,4.0,1.0,phase_1,,,,,,,,,,,,,magenta,square
0.0,1.0,0.0,0.0,1.0,1.0,378.0898069999239,4.0,1.0,phase_1,,,,,,,,,,,,,green,hexagon
416.0,8.0,4.0,1.0,4.0,4.0,367.8600999992341,4.0,1.0,phase_1,,,,,,,,,,,,,white,cross
182.0,7.0,2.0,1.0,3.0,3.0,399.671479999597,4.0,1.0,phase_1,,,,,,,,,,,,,yellow,diamond
87.0,6.0,1.0,1.0,4.0,4.0,487.5465040004201,4.0,1.0,phase_1,,,,,,,,,,,,,orange,I
0.0,8.0,4.0,1.0,6.0,6.0,473.7361110001075,1.0,1.0,phase_2,go,250.0,250.0,1.0,,,,,,,,,white,cross
0.0,4.0,4.0,0.0,5.0,5.0,411.9930979995843,1.0,1.0,phase_2,go,250.0,250.0,1.0,,,,,,,,,cyan,triangle
0.0,4.0,4.0,0.0,5.0,5.0,364.4599800009018,1.0,1.0,phase_2,go,250.0,250.0,1.0,,,,,,,,,cyan,triangle
0.0,6.0,1.0,1.0,5.0,5.0,400.8619209998869,1.0,1.0,phase_2,stop,250.0,250.0,3.0,,,,,,,,,orange,I
0.0,6.0,1.0,1.0,6.0,6.0,302.4998630007758,1.0,1.0,phase_2,go,200.0,250.0,1.0,,,,,,,,,orange,I
0.0,5.0,0.5,1.0,6.0,6.0,318.0500050002592,1.0,1.0,phase_2,stop,200.0,250.0,3.0,,,,,,,,,magenta,square
0.0,4.0,4.0,0.0,5.0,5.0,285.193536999941,1.0,1.0,phase_2,go,200.0,200.0,1.0,,,,,,,,,cyan,triangle
0.0,3.0,2.0,0.0,6.0,6.0,488.9397500010091,1.0,1.0,phase_2,go,200.0,200.0,1.0,,,,,,,,,gray,circle
0.0,4.0,4.0,0.0,6.0,6.0,379.1021689994522,1.0,1.0,phase_2,go,200.0,200.0,1.0,,,,,,,,,cyan,triangle
0.0,8.0,4.0,1.0,5.0,5.0,380.9626239999488,1.0,1.0,phase_2,stop,200.0,200.0,3.0,,,,,,,,,white,cross
0.0,7.0,2.0,1.0,5.0,0.0,0.0,1.0,1.0,phase_2,stop,150.0,200.0,4.0,,,,,,,,,yellow,diamond
0.0,3.0,2.0,0.0,5.0,5.0,555.344297999909,1.0,1.0,phase_2,go,200.0,200.0,1.0,,,,,,,,,gray,circle
0.0,1.0,0.5,0.0,6.0,6.0,430.9483470005943,1.0,1.0,phase_2,go,200.0,200.0,1.0,,,,,,,,,green,hexagon
0.0,1.0,0.5,0.0,5.0,5.0,604.6283329997095,1.0,1.0,phase_2,go,200.0,200.0,1.0,,,,,,,,,green,hexagon
0.0,3.0,2.0,0.0,6.0,6.0,391.577607999352,1.0,1.0,phase_2,go,200.0,200.0,1.0,,,,,,,,,gray,circle
0.0,7.0,2.0,1.0,5.0,0.0,0.0,1.0,1.0,phase_2,stop,200.0,200.0,4.0,,,,,,,,,yellow,diamond
0.0,6.0,1.0,1.0,5.0,0.0,0.0,1.0,1.0,phase_2,stop,250.0,200.0,4.0,,,,,,,,,orange,I
0.0,4.0,4.0,0.0,6.0,6.0,340.5699550003191,1.0,1.0,phase_2,go,300.0,200.0,1.0,,,,,,,,,cyan,triangle
0.0,8.0,4.0,1.0,6.0,0.0,0.0,1.0,1.0,phase_2,stop,300.0,200.0,4.0,,,,,,,,,white,cross
0.0,3.0,2.0,0.0,6.0,6.0,636.4070770014223,1.0,1.0,phase_2,go,300.0,250.0,1.0,,,,,,,,,gray,circle
0.0,5.0,0.5,1.0,6.0,0.0,0.0,1.0,1.0,phase_2,stop,300.0,250.0,4.0,,,,,,,,,magenta,square
0.0,2.0,1.0,0.0,6.0,6.0,497.7245330010191,1.0,1.0,phase_2,go,300.0,300.0,1.0,,,,,,,,,blue,flipped triangle
0.0,3.0,2.0,0.0,5.0,5.0,606.5860380003869,1.0,1.0,phase_2,go,300.0,300.0,1.0,,,,,,,,,gray,circle
0.0,1.0,0.5,0.0,6.0,6.0,623.3179890004976,1.0,1.0,phase_2,go,300.0,300.0,1.0,,,,,,,,,green,hexagon
0.0,1.0,0.5,0.0,6.0,6.0,649.9318599999242,1.0,1.0,phase_2,go,300.0,300.0,1.0,,,,,,,,,green,hexagon
0.0,4.0,4.0,0.0,6.0,6.0,477.5524020005832,1.0,1.0,phase_2,go,300.0,300.0,1.0,,,,,,,,,cyan,triangle
0.0,6.0,1.0,1.0,5.0,0.0,0.0,1.0,1.0,phase_2,stop,300.0,300.0,4.0,,,,,,,,,orange,I
0.0,8.0,4.0,1.0,5.0,5.0,447.0920950006984,1.0,1.0,phase_2,go,350.0,300.0,1.0,,,,,,,,,white,cross
0.0,8.0,4.0,1.0,5.0,0.0,0.0,1.0,1.0,phase_2,stop,350.0,300.0,4.0,,,,,,,,,white,cross
0.0,8.0,4.0,1.0,6.0,0.0,0.0,1.0,1.0,phase_2,stop,400.0,300.0,4.0,,,,,,,,,white,cross
0.0,7.0,2.0,1.0,5.0,0.0,0.0,1.0,1.0,phase_2,stop,400.0,350.0,4.0,,,,,,,,,yellow,diamond
0.0,2.0,1.0,0.0,5.0,5.0,666.4094509997085,1.0,1.0,phase_2,go,450.0,350.0,1.0,,,,,,,,,blue,flipped triangle
0.0,1.0,0.5,0.0,6.0,6.0,655.1220100009232,1.0,1.0,phase_2,go,450.0,350.0,1.0,,,,,,,,,green,hexagon
0.0,1.0,0.5,0.0,6.0,6.0,633.1527629990887,1.0,1.0,phase_2,go,450.0,350.0,1.0,,,,,,,,,green,hexagon
0.0,3.0,2.0,0.0,6.0,6.0,631.2584039987996,1.0,1.0,phase_2,go,450.0,350.0,1.0,,,,,,,,,gray,circle
0.0,3.0,2.0,0.0,5.0,5.0,771.6700750006567,1.0,1.0,phase_2,go,450.0,350.0,1.0,,,,,,,,,gray,circle
0.0,4.0,4.0,0.0,6.0,6.0,1113.1996140011324,2.0,1.0,phase_2,go,450.0,350.0,1.0,,,,,,,,,cyan,triangle
0.0,2.0,1.0,0.0,5.0,5.0,410.2153629992244,2.0,1.0,phase_2,go,450.0,350.0,1.0,,,,,,,,,blue,flipped triangle
0.0,5.0,0.5,1.0,6.0,0.0,0.0,2.0,1.0,phase_2,stop,450.0,350.0,4.0,,,,,,,,,magenta,square
0.0,7.0,2.0,1.0,6.0,6.0,481.8359520013473,2.0,1.0,phase_2,stop,450.0,400.0,3.0,,,,,,,,,yellow,diamond
0.0,7.0,2.0,1.0,6.0,0.0,0.0,2.0,1.0,phase_2,stop,450.0,350.0,4.0,,,,,,,,,yellow,diamond
0.0,3.0,2.0,0.0,5.0,5.0,497.6046570009202,2.0,1.0,phase_2,go,450.0,400.0,1.0,,,,,,,,,gray,circle
0.0,1.0,0.5,0.0,6.0,6.0,627.0669080004154,2.0,1.0,phase_2,go,450.0,400.0,1.0,,,,,,,,,green,hexagon
0.0,8.0,4.0,1.0,5.0,5.0,603.5352259987121,2.0,1.0,phase_2,go,450.0,400.0,1.0,,,,,,,,,white,cross
0.0,6.0,1.0,1.0,5.0,5.0,648.459518000891,2.0,1.0,phase_2,go,450.0,400.0,1.0,,,,,,,,,orange,I
0.0,2.0,1.0,0.0,6.0,6.0,640.1320850000047,2.0,1.0,phase_2,go,450.0,400.0,1.0,,,,,,,,,blue,flipped triangle
0.0,2.0,1.0,0.0,6.0,6.0,632.3561579993111,2.0,1.0,phase_2,go,450.0,400.0,1.0,,,,,,,,,blue,flipped triangle
0.0,7.0,2.0,1.0,6.0,0.0,0.0,2.0,1.0,phase_2,stop,450.0,400.0,4.0,,,,,,,,,yellow,diamond
0.0,1.0,0.5,0.0,6.0,6.0,555.727406999722,2.0,1.0,phase_2,go,450.0,450.0,1.0,,,,,,,,,green,hexagon
0.0,7.0,2.0,1.0,6.0,0.0,0.0,2.0,1.0,phase_2,stop,450.0,450.0,4.0,,,,,,,,,yellow,diamond
0.0,8.0,4.0,1.0,5.0,5.0,693.4470699998201,2.0,1.0,phase_2,go,450.0,500.0,1.0,,,,,,,,,white,cross
0.0,5.0,0.5,1.0,5.0,0.0,0.0,2.0,1.0,phase_2,stop,450.0,500.0,4.0,,,,,,,,,magenta,square
0.0,3.0,2.0,0.0,6.0,6.0,772.4701459992502,2.0,1.0,phase_2,go,500.0,500.0,1.0,,,,,,,,,gray,circle
0.0,6.0,1.0,1.0,6.0,0.0,0.0,2.0,1.0,phase_2,stop,500.0,500.0,4.0,,,,,,,,,orange,I
0.0,4.0,4.0,0.0,5.0,5.0,686.5327229988907,2.0,1.0,phase_2,go,500.0,550.0,1.0,,,,,,,,,cyan,triangle
0.0,2.0,1.0,0.0,6.0,6.0,729.7869110007014,2.0,1.0,phase_2,go,500.0,550.0,1.0,,,,,,,,,blue,flipped triangle
0.0,4.0,4.0,0.0,5.0,5.0,760.2688210008637,2.0,1.0,phase_2,go,500.0,550.0,1.0,,,,,,,,,cyan,triangle
0.0,5.0,0.5,1.0,6.0,0.0,0.0,2.0,1.0,phase_2,stop,500.0,550.0,4.0,,,,,,,,,magenta,square
0.0,7.0,2.0,1.0,6.0,6.0,717.276485000184,2.0,1.0,phase_2,stop,500.0,600.0,3.0,,,,,,,,,yellow,diamond
0.0,8.0,4.0,1.0,6.0,6.0,767.177043000629,2.0,1.0,phase_2,go,500.0,550.0,1.0,,,,,,,,,white,cross
0.0,2.0,1.0,0.0,5.0,5.0,865.9554619989649,2.0,1.0,phase_2,go,500.0,550.0,1.0,,,,,,,,,blue,flipped triangle
0.0,5.0,0.5,1.0,5.0,5.0,860.707904001174,2.0,1.0,phase_2,go,500.0,550.0,1.0,,,,,,,,,magenta,square
0.0,6.0,1.0,1.0,5.0,5.0,913.3426870012044,2.0,1.0,phase_2,go,500.0,550.0,1.0,,,,,,,,,orange,I
0.0,4.0,4.0,0.0,5.0,5.0,748.5329280007136,2.0,1.0,phase_2,go,500.0,550.0,1.0,,,,,,,,,cyan,triangle
0.0,5.0,0.5,1.0,6.0,6.0,776.5391350003483,2.0,1.0,phase_2,go,500.0,550.0,1.0,,,,,,,,,magenta,square
0.0,5.0,0.5,1.0,6.0,6.0,762.7383760009252,2.0,1.0,phase_2,go,500.0,550.0,1.0,,,,,,,,,magenta,square
0.0,4.0,4.0,0.0,6.0,6.0,891.5534329989896,2.0,1.0,phase_2,go,500.0,550.0,1.0,,,,,,,,,cyan,triangle
0.0,5.0,0.5,1.0,6.0,0.0,0.0,2.0,1.0,phase_2,stop,500.0,550.0,4.0,,,,,,,,,magenta,square
0.0,2.0,1.0,0.0,5.0,5.0,792.1597459990153,2.0,1.0,phase_2,go,500.0,600.0,1.0,,,,,,,,,blue,flipped triangle
0.0,1.0,0.5,0.0,6.0,6.0,798.8632760007022,2.0,1.0,phase_2,go,500.0,600.0,1.0,,,,,,,,,green,hexagon
0.0,3.0,2.0,0.0,6.0,6.0,865.3811929998483,2.0,1.0,phase_2,go,500.0,600.0,1.0,,,,,,,,,gray,circle
0.0,8.0,4.0,1.0,6.0,0.0,0.0,2.0,1.0,phase_2,stop,500.0,600.0,4.0,,,,,,,,,white,cross
0.0,3.0,2.0,0.0,6.0,6.0,508.1379690000176,3.0,1.0,phase_2,go,500.0,650.0,1.0,,,,,,,,,gray,circle
0.0,3.0,2.0,0.0,6.0,6.0,307.7585400005773,3.0,1.0,phase_2,go,500.0,650.0,1.0,,,,,,,,,gray,circle
0.0,4.0,4.0,0.0,5.0,5.0,277.5128630000836,3.0,1.0,phase_2,go,500.0,650.0,1.0,,,,,,,,,cyan,triangle
0.0,7.0,2.0,1.0,5.0,5.0,342.6674239999556,3.0,1.0,phase_2,go,500.0,650.0,1.0,,,,,,,,,yellow,diamond
0.0,7.0,2.0,1.0,6.0,6.0,226.2209060008899,3.0,1.0,phase_2,go,500.0,650.0,1.0,,,,,,,,,yellow,diamond
0.0,6.0,1.0,1.0,6.0,6.0,318.9015129992185,3.0,1.0,phase_2,stop,500.0,650.0,3.0,,,,,,,,,orange,I
0.0,7.0,2.0,1.0,5.0,5.0,308.9008779988944,3.0,1.0,phase_2,stop,500.0,600.0,3.0,,,,,,,,,yellow,diamond
0.0,6.0,1.0,1.0,5.0,5.0,332.231877000595,3.0,1.0,phase_2,stop,450.0,600.0,3.0,,,,,,,,,orange,I
0.0,4.0,4.0,0.0,6.0,6.0,335.9445389996836,3.0,1.0,phase_2,go,400.0,600.0,1.0,,,,,,,,,cyan,triangle
0.0,2.0,1.0,0.0,5.0,5.0,335.1926270006515,3.0,1.0,phase_2,go,400.0,600.0,1.0,,,,,,,,,blue,flipped triangle
0.0,2.0,1.0,0.0,6.0,6.0,506.3924900005077,3.0,1.0,phase_2,go,400.0,600.0,1.0,,,,,,,,,blue,flipped triangle
0.0,7.0,2.0,1.0,6.0,6.0,254.9844610002765,3.0,1.0,phase_2,stop,400.0,600.0,3.0,,,,,,,,,yellow,diamond
0.0,2.0,1.0,0.0,5.0,5.0,257.8896110007918,3.0,1.0,phase_2,go,400.0,550.0,1.0,,,,,,,,,blue,flipped triangle
0.0,4.0,4.0,0.0,5.0,5.0,286.5726139989419,3.0,1.0,phase_2,go,400.0,550.0,1.0,,,,,,,,,cyan,triangle
0.0,3.0,2.0,0.0,6.0,6.0,276.1747889999242,3.0,1.0,phase_2,go,400.0,550.0,1.0,,,,,,,,,gray,circle
0.0,4.0,4.0,0.0,6.0,6.0,333.2675889996608,3.0,1.0,phase_2,go,400.0,550.0,1.0,,,,,,,,,cyan,triangle
0.0,6.0,1.0,1.0,5.0,5.0,398.1683839992911,3.0,1.0,phase_2,stop,400.0,550.0,3.0,,,,,,,,,orange,I
0.0,7.0,2.0,1.0,5.0,5.0,304.9650699995254,3.0,1.0,phase_2,stop,350.0,550.0,3.0,,,,,,,,,yellow,diamond
0.0,8.0,4.0,1.0,6.0,6.0,322.3288830013189,3.0,1.0,phase_2,go,300.0,550.0,1.0,,,,,,,,,white,cross
0.0,3.0,2.0,0.0,5.0,5.0,353.4506600008171,3.0,1.0,phase_2,go,300.0,550.0,1.0,,,,,,,,,gray,circle
0.0,3.0,2.0,0.0,6.0,6.0,297.9974689988012,3.0,1.0,phase_2,go,300.0,550.0,1.0,,,,,,,,,gray,circle
0.0,4.0,4.0,0.0,5.0,5.0,720.9739800000534,3.0,1.0,phase_2,go,300.0,550.0,1.0,,,,,,,,,cyan,triangle
0.0,5.0,0.5,1.0,5.0,0.0,0.0,3.0,1.0,phase_2,stop,300.0,550.0,4.0,,,,,,,,,magenta,square
0.0,5.0,0.5,1.0,6.0,6.0,286.0838119995605,3.0,1.0,phase_2,stop,350.0,550.0,3.0,,,,,,,,,magenta,square
0.0,1.0,0.5,0.0,6.0,6.0,328.9870360003988,3.0,1.0,phase_2,go,350.0,500.0,1.0,,,,,,,,,green,hexagon
0.0,7.0,2.0,1.0,6.0,6.0,385.4037999990396,3.0,1.0,phase_2,stop,350.0,500.0,3.0,,,,,,,,,yellow,diamond
0.0,6.0,1.0,1.0,5.0,5.0,392.5706350000837,3.0,1.0,phase_2,stop,350.0,450.0,3.0,,,,,,,,,orange,I
0.0,5.0,0.5,1.0,5.0,5.0,337.7458730010403,3.0,1.0,phase_2,stop,300.0,450.0,3.0,,,,,,,,,magenta,square
0.0,4.0,4.0,0.0,5.0,5.0,748.4688120002829,3.0,1.0,phase_2,go,250.0,450.0,1.0,,,,,,,,,cyan,triangle
0.0,1.0,0.5,0.0,6.0,6.0,664.6200199993473,3.0,1.0,phase_2,go,250.0,450.0,1.0,,,,,,,,,green,hexagon
0.0,2.0,1.0,0.0,5.0,5.0,674.4199420008954,3.0,1.0,phase_2,go,250.0,450.0,1.0,,,,,,,,,blue,flipped triangle
0.0,7.0,2.0,1.0,5.0,0.0,0.0,3.0,1.0,phase_2,stop,250.0,450.0,4.0,,,,,,,,,yellow,diamond
0.0,8.0,4.0,1.0,5.0,5.0,450.9363119996123,3.0,1.0,phase_2,stop,300.0,450.0,3.0,,,,,,,,,white,cross
0.0,1.0,0.5,0.0,5.0,5.0,581.870401998458,3.0,1.0,phase_2,go,250.0,450.0,1.0,,,,,,,,,green,hexagon
0.0,4.0,4.0,0.0,5.0,5.0,322.9702490007184,3.0,1.0,phase_2,go,250.0,450.0,1.0,,,,,,,,,cyan,triangle
0.0,2.0,1.0,0.0,6.0,6.0,313.4070790001715,3.0,1.0,phase_2,go,250.0,450.0,1.0,,,,,,,,,blue,flipped triangle
0.0,5.0,0.5,1.0,6.0,6.0,512.3076700001548,4.0,1.0,phase_2,stop,250.0,450.0,3.0,,,,,,,,,magenta,square
0.0,8.0,4.0,1.0,6.0,6.0,374.8713479999424,4.0,1.0,phase_2,stop,250.0,400.0,3.0,,,,,,,,,white,cross
0.0,6.0,1.0,1.0,5.0,0.0,0.0,4.0,1.0,phase_2,stop,250.0,350.0,4.0,,,,,,,,,orange,I
0.0,4.0,4.0,0.0,5.0,5.0,356.9514310001977,4.0,1.0,phase_2,go,300.0,350.0,1.0,,,,,,,,,cyan,triangle
0.0,7.0,2.0,1.0,6.0,0.0,0.0,4.0,1.0,phase_2,stop,300.0,350.0,4.0,,,,,,,,,yellow,diamond
0.0,5.0,0.5,1.0,6.0,6.0,348.3353230003558,4.0,1.0,phase_2,stop,300.0,400.0,3.0,,,,,,,,,magenta,square
0.0,8.0,4.0,1.0,6.0,0.0,0.0,4.0,1.0,phase_2,stop,300.0,350.0,4.0,,,,,,,,,white,cross
0.0,2.0,1.0,0.0,5.0,5.0,445.41274900075217,4.0,1.0,phase_2,go,300.0,400.0,1.0,,,,,,,,,blue,flipped triangle
0.0,8.0,4.0,1.0,6.0,0.0,0.0,4.0,1.0,phase_2,stop,300.0,400.0,4.0,,,,,,,,,white,cross
0.0,8.0,4.0,1.0,5.0,0.0,0.0,4.0,1.0,phase_2,stop,300.0,450.0,4.0,,,,,,,,,white,cross
0.0,4.0,4.0,0.0,5.0,5.0,595.5274810003175,4.0,1.0,phase_2,go,350.0,450.0,1.0,,,,,,,,,cyan,triangle
0.0,6.0,1.0,1.0,5.0,0.0,0.0,4.0,1.0,phase_2,stop,350.0,450.0,4.0,,,,,,,,,orange,I
0.0,4.0,4.0,0.0,6.0,6.0,393.5126010001113,4.0,1.0,phase_2,go,400.0,450.0,1.0,,,,,,,,,cyan,triangle
0.0,3.0,2.0,0.0,5.0,5.0,572.0976360007626,4.0,1.0,phase_2,go,400.0,450.0,1.0,,,,,,,,,gray,circle
0.0,5.0,0.5,1.0,6.0,0.0,0.0,4.0,1.0,phase_2,stop,400.0,450.0,4.0,,,,,,,,,magenta,square
0.0,8.0,4.0,1.0,5.0,5.0,501.3424680000753,4.0,1.0,phase_2,stop,400.0,500.0,3.0,,,,,,,,,white,cross
0.0,7.0,2.0,1.0,5.0,5.0,710.748343000887,4.0,1.0,phase_2,go,350.0,500.0,1.0,,,,,,,,,yellow,diamond
0.0,7.0,2.0,1.0,6.0,0.0,0.0,4.0,1.0,phase_2,stop,350.0,500.0,4.0,,,,,,,,,yellow,diamond
0.0,2.0,1.0,0.0,5.0,5.0,691.7684600011853,4.0,1.0,phase_2,go,350.0,550.0,1.0,,,,,,,,,blue,flipped triangle
0.0,8.0,4.0,1.0,5.0,0.0,0.0,4.0,1.0,phase_2,stop,350.0,550.0,4.0,,,,,,,,,white,cross
0.0,5.0,0.5,1.0,5.0,0.0,0.0,4.0,1.0,phase_2,stop,400.0,550.0,4.0,,,,,,,,,magenta,square
0.0,7.0,2.0,1.0,6.0,6.0,379.0038749993982,4.0,1.0,phase_2,stop,450.0,550.0,3.0,,,,,,,,,yellow,diamond
0.0,7.0,2.0,1.0,5.0,5.0,666.6945140004827,4.0,1.0,phase_2,go,450.0,500.0,1.0,,,,,,,,,yellow,diamond
0.0,8.0,4.0,1.0,5.0,0.0,0.0,4.0,1.0,phase_2,stop,450.0,500.0,4.0,,,,,,,,,white,cross
0.0,7.0,2.0,1.0,5.0,5.0,803.4519859993452,4.0,1.0,phase_2,go,500.0,500.0,1.0,,,,,,,,,yellow,diamond
0.0,2.0,1.0,0.0,5.0,5.0,584.8385159988538,4.0,1.0,phase_2,go,500.0,500.0,1.0,,,,,,,,,blue,flipped triangle
0.0,1.0,0.5,0.0,6.0,6.0,760.2602020015183,4.0,1.0,phase_2,go,500.0,500.0,1.0,,,,,,,,,green,hexagon
0.0,5.0,0.5,1.0,5.0,5.0,442.3952220004139,4.0,1.0,phase_2,stop,500.0,500.0,3.0,,,,,,,,,magenta,square
0.0,1.0,0.5,0.0,5.0,5.0,746.4153439996153,4.0,1.0,phase_2,go,450.0,500.0,1.0,,,,,,,,,green,hexagon
0.0,3.0,2.0,0.0,6.0,6.0,683.2781780012738,4.0,1.0,phase_2,go,450.0,500.0,1.0,,,,,,,,,gray,circle
0.0,2.0,1.0,0.0,6.0,6.0,663.84888399989,4.0,1.0,phase_2,go,450.0,500.0,1.0,,,,,,,,,blue,flipped triangle
0.0,5.0,0.5,1.0,6.0,0.0,0.0,4.0,1.0,phase_2,stop,450.0,500.0,4.0,,,,,,,,,magenta,square
0.0,3.0,2.0,0.0,5.0,5.0,659.8248690006585,4.0,1.0,phase_2,go,450.0,550.0,1.0,,,,,,,,,gray,circle
0.0,3.0,2.0,0.0,6.0,6.0,661.3921130010567,4.0,1.0,phase_2,go,450.0,550.0,1.0,,,,,,,,,gray,circle
0.0,1.0,0.5,0.0,6.0,6.0,927.1710000011808,4.0,1.0,phase_2,go,450.0,550.0,1.0,,,,,,,,,green,hexagon
0.0,1.0,0.5,0.0,6.0,6.0,426.6420800013293,4.0,1.0,phase_2,go,450.0,550.0,1.0,,,,,,,,,green,hexagon
0.0,8.0,4.0,1.0,6.0,6.0,505.54979000116873,5.0,1.0,phase_2,stop,450.0,550.0,3.0,,,,,,,,,white,cross
0.0,7.0,2.0,1.0,5.0,5.0,487.3959679989639,5.0,1.0,phase_2,stop,450.0,500.0,3.0,,,,,,,,,yellow,diamond
0.0,1.0,0.5,0.0,6.0,6.0,602.1077979985421,5.0,1.0,phase_2,go,400.0,500.0,1.0,,,,,,,,,green,hexagon
0.0,8.0,4.0,1.0,6.0,6.0,604.91964799985,5.0,1.0,phase_2,stop,400.0,500.0,3.0,,,,,,,,,white,cross
0.0,2.0,1.0,0.0,6.0,6.0,820.3093749998516,5.0,1.0,phase_2,go,400.0,450.0,1.0,,,,,,,,,blue,flipped triangle
0.0,4.0,4.0,0.0,6.0,6.0,770.1802589999716,5.0,1.0,phase_2,go,400.0,450.0,1.0,,,,,,,,,cyan,triangle
0.0,3.0,2.0,0.0,6.0,6.0,645.5580960009684,5.0,1.0,phase_2,go,400.0,450.0,1.0,,,,,,,,,gray,circle
0.0,5.0,0.5,1.0,5.0,5.0,547.2189239990257,5.0,1.0,phase_2,stop,400.0,450.0,3.0,,,,,,,,,magenta,square
0.0,7.0,2.0,1.0,5.0,5.0,508.3728240006167,5.0,1.0,phase_2,stop,350.0,450.0,3.0,,,,,,,,,yellow,diamond
0.0,3.0,2.0,0.0,5.0,5.0,623.5487159992772,5.0,1.0,phase_2,go,300.0,450.0,1.0,,,,,,,,,gray,circle
0.0,3.0,2.0,0.0,6.0,6.0,783.6535610003921,5.0,1.0,phase_2,go,300.0,450.0,1.0,,,,,,,,,gray,circle
0.0,2.0,1.0,0.0,6.0,6.0,655.5752019994543,5.0,1.0,phase_2,go,300.0,450.0,1.0,,,,,,,,,blue,flipped triangle
0.0,1.0,0.5,0.0,5.0,5.0,725.2213970004959,5.0,1.0,phase_2,go,300.0,450.0,1.0,,,,,,,,,green,hexagon
0.0,1.0,0.5,0.0,5.0,5.0,734.6666499997809,5.0,1.0,phase_2,go,300.0,450.0,1.0,,,,,,,,,green,hexagon
0.0,6.0,1.0,1.0,6.0,0.0,0.0,5.0,1.0,phase_2,stop,300.0,450.0,4.0,,,,,,,,,orange,I
0.0,3.0,2.0,0.0,5.0,5.0,675.891799000965,5.0,1.0,phase_2,go,300.0,500.0,1.0,,,,,,,,,gray,circle
0.0,7.0,2.0,1.0,5.0,0.0,0.0,5.0,1.0,phase_2,stop,300.0,500.0,4.0,,,,,,,,,yellow,diamond
0.0,6.0,1.0,1.0,6.0,6.0,515.1898240001174,5.0,1.0,phase_2,go,350.0,500.0,1.0,,,,,,,,,orange,I
0.0,6.0,1.0,1.0,6.0,0.0,0.0,5.0,1.0,phase_2,stop,350.0,500.0,4.0,,,,,,,,,orange,I
0.0,3.0,2.0,0.0,6.0,6.0,877.328293001483,5.0,1.0,phase_2,go,350.0,550.0,1.0,,,,,,,,,gray,circle
0.0,7.0,2.0,1.0,6.0,6.0,723.2387530002597,5.0,1.0,phase_2,stop,350.0,550.0,3.0,,,,,,,,,yellow,diamond
0.0,6.0,1.0,1.0,5.0,0.0,0.0,5.0,1.0,phase_2,stop,350.0,500.0,4.0,,,,,,,,,orange,I
0.0,1.0,0.5,0.0,6.0,6.0,767.02684600059,5.0,1.0,phase_2,go,400.0,500.0,1.0,,,,,,,,,green,hexagon
0.0,2.0,1.0,0.0,5.0,5.0,732.1810739995271,5.0,1.0,phase_2,go,400.0,500.0,1.0,,,,,,,,,blue,flipped triangle
0.0,5.0,0.5,1.0,5.0,5.0,826.6526970000996,5.0,1.0,phase_2,go,400.0,500.0,1.0,,,,,,,,,magenta,square
0.0,3.0,2.0,0.0,5.0,5.0,728.0051029993047,5.0,1.0,phase_2,go,400.0,500.0,1.0,,,,,,,,,gray,circle
0.0,3.0,2.0,0.0,5.0,5.0,525.9310599994933,5.0,1.0,phase_2,go,400.0,500.0,1.0,,,,,,,,,gray,circle
0.0,1.0,0.5,0.0,5.0,5.0,533.1233630004135,5.0,1.0,phase_2,go,400.0,500.0,1.0,,,,,,,,,green,hexagon
0.0,1.0,0.5,0.0,5.0,5.0,613.40598499919,5.0,1.0,phase_2,go,400.0,500.0,1.0,,,,,,,,,green,hexagon
0.0,5.0,0.5,1.0,6.0,6.0,588.5233129993139,5.0,1.0,phase_2,stop,400.0,500.0,3.0,,,,,,,,,magenta,square
0.0,7.0,2.0,1.0,5.0,5.0,696.0639970002376,5.0,1.0,phase_2,go,400.0,450.0,1.0,,,,,,,,,yellow,diamond
0.0,5.0,0.5,1.0,6.0,0.0,0.0,5.0,1.0,phase_2,stop,400.0,450.0,4.0,,,,,,,,,magenta,square
0.0,1.0,0.5,0.0,5.0,5.0,589.2082059999666,5.0,1.0,phase_2,go,400.0,500.0,1.0,,,,,,,,,green,hexagon
0.0,1.0,0.5,0.0,5.0,5.0,522.9660410004726,5.0,1.0,phase_2,go,400.0,500.0,1.0,,,,,,,,,green,hexagon
0.0,4.0,4.0,0.0,6.0,6.0,722.8355930001271,5.0,1.0,phase_2,go,400.0,500.0,1.0,,,,,,,,,cyan,triangle
0.0,6.0,1.0,1.0,6.0,6.0,706.3516569996864,5.0,1.0,phase_2,go,400.0,500.0,1.0,,,,,,,,,orange,I
0.0,2.0,1.0,0.0,6.0,6.0,449.0437360000214,6.0,1.0,phase_2,go,400.0,500.0,1.0,,,,,,,,,blue,flipped triangle
0.0,1.0,0.5,0.0,5.0,5.0,267.164226001114,6.0,1.0,phase_2,go,400.0,500.0,1.0,,,,,,,,,green,hexagon
0.0,2.0,1.0,0.0,6.0,6.0,302.9473300011887,6.0,1.0,phase_2,go,400.0,500.0,1.0,,,,,,,,,blue,flipped triangle
0.0,5.0,0.5,1.0,5.0,5.0,541.1049559988896,6.0,1.0,phase_2,go,400.0,500.0,1.0,,,,,,,,,magenta,square
0.0,6.0,1.0,1.0,5.0,5.0,381.4467490010429,6.0,1.0,phase_2,go,400.0,500.0,1.0,,,,,,,,,orange,I
0.0,6.0,1.0,1.0,5.0,5.0,372.5104109998938,6.0,1.0,phase_2,stop,400.0,500.0,3.0,,,,,,,,,orange,I
0.0,7.0,2.0,1.0,6.0,6.0,339.3178709993663,6.0,1.0,phase_2,stop,350.0,500.0,3.0,,,,,,,,,yellow,diamond
0.0,2.0,1.0,0.0,5.0,5.0,446.6209109996271,6.0,1.0,phase_2,go,350.0,450.0,1.0,,,,,,,,,blue,flipped triangle
0.0,6.0,1.0,1.0,5.0,0.0,0.0,6.0,1.0,phase_2,stop,350.0,450.0,4.0,,,,,,,,,orange,I
0.0,2.0,1.0,0.0,6.0,6.0,443.8461369991273,6.0,1.0,phase_2,go,400.0,450.0,1.0,,,,,,,,,blue,flipped triangle
0.0,5.0,0.5,1.0,6.0,0.0,0.0,6.0,1.0,phase_2,stop,400.0,450.0,4.0,,,,,,,,,magenta,square
0.0,4.0,4.0,0.0,6.0,6.0,696.1492949994863,6.0,1.0,phase_2,go,400.0,500.0,1.0,,,,,,,,,cyan,triangle
0.0,2.0,1.0,0.0,6.0,6.0,760.0569409987656,6.0,1.0,phase_2,go,400.0,500.0,1.0,,,,,,,,,blue,flipped triangle
0.0,2.0,1.0,0.0,6.0,6.0,809.3268779994105,6.0,1.0,phase_2,go,400.0,500.0,1.0,,,,,,,,,blue,flipped triangle
0.0,8.0,4.0,1.0,6.0,0.0,0.0,6.0,1.0,phase_2,stop,400.0,500.0,4.0,,,,,,,,,white,cross
0.0,8.0,4.0,1.0,5.0,5.0,590.6197419990349,6.0,1.0,phase_2,go,400.0,550.0,1.0,,,,,,,,,white,cross
0.0,7.0,2.0,1.0,5.0,5.0,790.7743779996963,6.0,1.0,phase_2,go,400.0,550.0,1.0,,,,,,,,,yellow,diamond
0.0,6.0,1.0,1.0,6.0,6.0,664.765872001226,6.0,1.0,phase_2,stop,400.0,550.0,3.0,,,,,,,,,orange,I
0.0,5.0,0.5,1.0,6.0,6.0,619.3688840012328,6.0,1.0,phase_2,stop,400.0,500.0,3.0,,,,,,,,,magenta,square
0.0,4.0,4.0,0.0,6.0,6.0,885.6896759989468,6.0,1.0,phase_2,go,400.0,450.0,1.0,,,,,,,,,cyan,triangle
0.0,3.0,2.0,0.0,5.0,5.0,748.7783910000871,6.0,1.0,phase_2,go,400.0,450.0,1.0,,,,,,,,,gray,circle
0.0,1.0,0.5,0.0,5.0,5.0,737.7801820002787,6.0,1.0,phase_2,go,400.0,450.0,1.0,,,,,,,,,green,hexagon
0.0,5.0,0.5,1.0,5.0,0.0,0.0,6.0,1.0,phase_2,stop,400.0,450.0,4.0,,,,,,,,,magenta,square
0.0,8.0,4.0,1.0,6.0,0.0,0.0,6.0,1.0,phase_2,stop,450.0,450.0,4.0,,,,,,,,,white,cross
0.0,5.0,0.5,1.0,5.0,5.0,669.0327970009093,6.0,1.0,phase_2,go,450.0,500.0,1.0,,,,,,,,,magenta,square
0.0,7.0,2.0,1.0,5.0,0.0,0.0,6.0,1.0,phase_2,stop,450.0,500.0,4.0,,,,,,,,,yellow,diamond
0.0,8.0,4.0,1.0,5.0,5.0,621.8939400005183,6.0,1.0,phase_2,go,500.0,500.0,1.0,,,,,,,,,white,cross
0.0,6.0,1.0,1.0,6.0,6.0,658.7816080009361,6.0,1.0,phase_2,stop,500.0,500.0,3.0,,,,,,,,,orange,I
0.0,8.0,4.0,1.0,5.0,0.0,0.0,6.0,1.0,phase_2,stop,500.0,450.0,4.0,,,,,,,,,white,cross
0.0,6.0,1.0,1.0,6.0,0.0,0.0,6.0,1.0,phase_2,stop,550.0,450.0,4.0,,,,,,,,,orange,I
0.0,3.0,2.0,0.0,6.0,6.0,697.2707650002121,6.0,1.0,phase_2,go,550.0,500.0,1.0,,,,,,,,,gray,circle
0.0,2.0,1.0,0.0,5.0,5.0,712.5389859993447,6.0,1.0,phase_2,go,550.0,500.0,1.0,,,,,,,,,blue,flipped triangle
0.0,7.0,2.0,1.0,6.0,0.0,0.0,6.0,1.0,phase_2,stop,550.0,500.0,4.0,,,,,,,,,yellow,diamond
0.0,4.0,4.0,0.0,5.0,5.0,637.1912169997813,6.0,1.0,phase_2,go,550.0,550.0,1.0,,,,,,,,,cyan,triangle
0.0,1.0,0.5,0.0,6.0,6.0,795.3507090005587,6.0,1.0,phase_2,go,550.0,550.0,1.0,,,,,,,,,green,hexagon
0.0,7.0,2.0,1.0,5.0,5.0,664.4099730001471,6.0,1.0,phase_2,go,550.0,550.0,1.0,,,,,,,,,yellow,diamond
0.0,2.0,1.0,0.0,5.0,5.0,466.4166269994894,7.0,1.0,phase_2,go,550.0,550.0,1.0,,,,,,,,,blue,flipped triangle
0.0,2.0,1.0,0.0,6.0,6.0,595.4180790013197,7.0,1.0,phase_2,go,550.0,550.0,1.0,,,,,,,,,blue,flipped triangle
0.0,6.0,1.0,1.0,5.0,5.0,761.3176260001637,7.0,1.0,phase_2,go,550.0,550.0,1.0,,,,,,,,,orange,I
0.0,8.0,4.0,1.0,6.0,6.0,632.136611999158,7.0,1.0,phase_2,stop,550.0,550.0,3.0,,,,,,,,,white,cross
0.0,4.0,4.0,0.0,5.0,5.0,617.1110739996948,7.0,1.0,phase_2,go,550.0,500.0,1.0,,,,,,,,,cyan,triangle
0.0,3.0,2.0,0.0,5.0,5.0,679.4830909984739,7.0,1.0,phase_2,go,550.0,500.0,1.0,,,,,,,,,gray,circle
0.0,8.0,4.0,1.0,5.0,5.0,590.3532229986013,7.0,1.0,phase_2,stop,550.0,500.0,3.0,,,,,,,,,white,cross
0.0,4.0,4.0,0.0,6.0,6.0,583.7926709991734,7.0,1.0,phase_2,go,500.0,500.0,1.0,,,,,,,,,cyan,triangle
0.0,4.0,4.0,0.0,5.0,5.0,697.1408489989699,7.0,1.0,phase_2,go,500.0,500.0,1.0,,,,,,,,,cyan,triangle
0.0,8.0,4.0,1.0,6.0,6.0,717.2913520007569,7.0,1.0,phase_2,go,500.0,500.0,1.0,,,,,,,,,white,cross
0.0,8.0,4.0,1.0,5.0,0.0,0.0,7.0,1.0,phase_2,stop,500.0,500.0,4.0,,,,,,,,,white,cross
0.0,5.0,0.5,1.0,6.0,6.0,717.2520229996735,7.0,1.0,phase_2,go,550.0,500.0,1.0,,,,,,,,,magenta,square
0.0,8.0,4.0,1.0,5.0,0.0,0.0,7.0,1.0,phase_2,stop,550.0,500.0,4.0,,,,,,,,,white,cross
0.0,1.0,0.5,0.0,5.0,5.0,592.7414939997107,7.0,1.0,phase_2,go,600.0,500.0,1.0,,,,,,,,,green,hexagon
0.0,4.0,4.0,0.0,6.0,6.0,760.1115529996605,7.0,1.0,phase_2,go,600.0,500.0,1.0,,,,,,,,,cyan,triangle
0.0,3.0,2.0,0.0,6.0,6.0,866.4346959994873,7.0,1.0,phase_2,go,600.0,500.0,1.0,,,,,,,,,gray,circle
0.0,2.0,1.0,0.0,5.0,5.0,774.6860459992604,7.0,1.0,phase_2,go,600.0,500.0,1.0,,,,,,,,,blue,flipped triangle
0.0,1.0,0.5,0.0,6.0,6.0,743.8205579983332,7.0,1.0,phase_2,go,600.0,500.0,1.0,,,,,,,,,green,hexagon
0.0,7.0,2.0,1.0,6.0,6.0,590.7696039994335,7.0,1.0,phase_2,stop,600.0,500.0,3.0,,,,,,,,,yellow,diamond
0.0,5.0,0.5,1.0,5.0,5.0,841.5908439983468,7.0,1.0,phase_2,go,600.0,450.0,1.0,,,,,,,,,magenta,square
0.0,3.0,2.0,0.0,5.0,5.0,825.8459080007015,7.0,1.0,phase_2,go,600.0,450.0,1.0,,,,,,,,,gray,circle
0.0,1.0,0.5,0.0,5.0,5.0,781.7129179984477,7.0,1.0,phase_2,go,600.0,450.0,1.0,,,,,,,,,green,hexagon
0.0,7.0,2.0,1.0,5.0,0.0,0.0,7.0,1.0,phase_2,stop,600.0,450.0,4.0,,,,,,,,,yellow,diamond
0.0,4.0,4.0,0.0,5.0,5.0,926.1763180002164,7.0,1.0,phase_2,go,650.0,450.0,1.0,,,,,,,,,cyan,triangle
0.0,7.0,2.0,1.0,6.0,0.0,0.0,7.0,1.0,phase_2,stop,650.0,450.0,4.0,,,,,,,,,yellow,diamond
0.0,2.0,1.0,0.0,5.0,5.0,592.5446679993911,7.0,1.0,phase_2,go,650.0,500.0,1.0,,,,,,,,,blue,flipped triangle
0.0,1.0,0.5,0.0,5.0,5.0,538.136940998811,7.0,1.0,phase_2,go,650.0,500.0,1.0,,,,,,,,,green,hexagon
0.0,8.0,4.0,1.0,5.0,5.0,825.2710879987717,7.0,1.0,phase_2,stop,650.0,500.0,3.0,,,,,,,,,white,cross
0.0,1.0,0.5,0.0,5.0,5.0,886.3987740005541,7.0,1.0,phase_2,go,600.0,500.0,1.0,,,,,,,,,green,hexagon
0.0,5.0,0.5,1.0,5.0,0.0,0.0,7.0,1.0,phase_2,stop,600.0,500.0,4.0,,,,,,,,,magenta,square
0.0,6.0,1.0,1.0,6.0,0.0,0.0,7.0,1.0,phase_2,stop,650.0,500.0,4.0,,,,,,,,,orange,I
0.0,6.0,1.0,1.0,6.0,6.0,590.2933409997786,7.0,1.0,phase_2,stop,650.0,550.0,3.0,,,,,,,,,orange,I
0.0,2.0,1.0,0.0,5.0,5.0,901.140062000195,7.0,1.0,phase_2,go,650.0,500.0,1.0,,,,,,,,,blue,flipped triangle
0.0,4.0,4.0,0.0,6.0,6.0,1005.5187279995152,7.0,1.0,phase_2,go,650.0,500.0,1.0,,,,,,,,,cyan,triangle
0.0,2.0,1.0,0.0,5.0,5.0,880.9081459985464,7.0,1.0,phase_2,go,650.0,500.0,1.0,,,,,,,,,blue,flipped triangle
0.0,2.0,1.0,0.0,6.0,6.0,967.7148209993902,7.0,1.0,phase_2,go,650.0,500.0,1.0,,,,,,,,,blue,flipped triangle
0.0,5.0,0.5,1.0,5.0,5.0,415.4365690010309,8.0,1.0,phase_2,stop,650.0,500.0,3.0,,,,,,,,,magenta,square
0.0,6.0,1.0,1.0,6.0,6.0,631.4432099989062,8.0,1.0,phase_2,stop,600.0,500.0,3.0,,,,,,,,,orange,I
0.0,5.0,0.5,1.0,5.0,5.0,771.5656090003904,8.0,1.0,phase_2,stop,600.0,450.0,3.0,,,,,,,,,magenta,square
0.0,4.0,4.0,0.0,6.0,6.0,722.4099890008802,8.0,1.0,phase_2,go,550.0,450.0,1.0,,,,,,,,,cyan,triangle
0.0,5.0,0.5,1.0,5.0,5.0,838.6504110003443,8.0,1.0,phase_2,go,550.0,450.0,1.0,,,,,,,,,magenta,square
0.0,6.0,1.0,1.0,5.0,0.0,0.0,8.0,1.0,phase_2,stop,550.0,450.0,4.0,,,,,,,,,orange,I
0.0,5.0,0.5,1.0,5.0,0.0,0.0,8.0,1.0,phase_2,stop,600.0,450.0,4.0,,,,,,,,,magenta,square
0.0,3.0,2.0,0.0,5.0,5.0,694.0767199994298,8.0,1.0,phase_2,go,650.0,450.0,1.0,,,,,,,,,gray,circle
0.0,3.0,2.0,0.0,6.0,6.0,641.9202520010003,8.0,1.0,phase_2,go,650.0,450.0,1.0,,,,,,,,,gray,circle
0.0,1.0,0.5,0.0,6.0,6.0,798.6553540013119,8.0,1.0,phase_2,go,650.0,450.0,1.0,,,,,,,,,green,hexagon
0.0,4.0,4.0,0.0,6.0,6.0,886.7439030000241,8.0,1.0,phase_2,go,650.0,450.0,1.0,,,,,,,,,cyan,triangle
0.0,7.0,2.0,1.0,6.0,6.0,796.0888050001813,8.0,1.0,phase_2,go,650.0,450.0,1.0,,,,,,,,,yellow,diamond
0.0,8.0,4.0,1.0,6.0,0.0,0.0,8.0,1.0,phase_2,stop,650.0,450.0,4.0,,,,,,,,,white,cross
0.0,6.0,1.0,1.0,5.0,5.0,812.6301169995713,8.0,1.0,phase_2,stop,650.0,500.0,3.0,,,,,,,,,orange,I
0.0,6.0,1.0,1.0,6.0,6.0,796.2642989987216,8.0,1.0,phase_2,go,600.0,500.0,1.0,,,,,,,,,orange,I
0.0,8.0,4.0,1.0,6.0,0.0,0.0,8.0,1.0,phase_2,stop,600.0,500.0,4.0,,,,,,,,,white,cross
0.0,1.0,0.5,0.0,5.0,5.0,657.2856640013924,8.0,1.0,phase_2,go,600.0,550.0,1.0,,,,,,,,,green,hexagon
0.0,6.0,1.0,1.0,6.0,0.0,0.0,8.0,1.0,phase_2,stop,600.0,550.0,4.0,,,,,,,,,orange,I
0.0,5.0,0.5,1.0,5.0,0.0,0.0,8.0,1.0,phase_2,stop,600.0,600.0,4.0,,,,,,,,,magenta,square
0.0,6.0,1.0,1.0,6.0,0.0,0.0,8.0,1.0,phase_2,stop,650.0,600.0,4.0,,,,,,,,,orange,I
0.0,1.0,0.5,0.0,5.0,5.0,806.8745290001971,8.0,1.0,phase_2,go,650.0,650.0,1.0,,,,,,,,,green,hexagon
0.0,5.0,0.5,1.0,6.0,0.0,0.0,8.0,1.0,phase_2,stop,650.0,650.0,4.0,,,,,,,,,magenta,square
0.0,4.0,4.0,0.0,5.0,5.0,950.5866929994228,8.0,1.0,phase_2,go,650.0,700.0,1.0,,,,,,,,,cyan,triangle
0.0,3.0,2.0,0.0,5.0,5.0,893.8543179992848,8.0,1.0,phase_2,go,650.0,700.0,1.0,,,,,,,,,gray,circle
0.0,6.0,1.0,1.0,6.0,6.0,849.9012630018115,8.0,1.0,phase_2,go,650.0,700.0,1.0,,,,,,,,,orange,I
0.0,3.0,2.0,0.0,5.0,5.0,648.7157770006888,8.0,1.0,phase_2,go,650.0,700.0,1.0,,,,,,,,,gray,circle
0.0,3.0,2.0,0.0,5.0,5.0,744.0083740002592,8.0,1.0,phase_2,go,650.0,700.0,1.0,,,,,,,,,gray,circle
0.0,7.0,2.0,1.0,6.0,6.0,732.9656219990284,8.0,1.0,phase_2,stop,650.0,700.0,3.0,,,,,,,,,yellow,diamond
0.0,6.0,1.0,1.0,5.0,0.0,0.0,8.0,1.0,phase_2,stop,650.0,650.0,4.0,,,,,,,,,orange,I
0.0,2.0,1.0,0.0,6.0,6.0,1001.3689620009243,8.0,1.0,phase_2,go,700.0,650.0,1.0,,,,,,,,,blue,flipped triangle
0.0,8.0,4.0,1.0,5.0,5.0,825.5835159998242,8.0,1.0,phase_2,stop,700.0,650.0,3.0,,,,,,,,,white,cross
0.0,8.0,4.0,1.0,6.0,0.0,0.0,8.0,1.0,phase_2,stop,650.0,650.0,4.0,,,,,,,,,white,cross
0.0,4.0,4.0,0.0,6.0,6.0,1037.393313999928,8.0,1.0,phase_2,go,650.0,700.0,1.0,,,,,,,,,cyan,triangle
0.0,2.0,1.0,0.0,6.0,6.0,841.9231269999727,8.0,1.0,phase_2,go,650.0,700.0,1.0,,,,,,,,,blue,flipped triangle
0.0,6.0,1.0,1.0,6.0,6.0,883.1030310011556,8.0,1.0,phase_2,stop,650.0,700.0,3.0,,,,,,,,,orange,I
0.0,1.0,0.5,0.0,5.0,5.0,835.4275139990932,8.0,1.0,phase_2,go,650.0,650.0,1.0,,,,,,,,,green,hexagon
0.0,1.0,0.5,0.0,7.0,3.0,1584.047690999796,1.0,1.0,phase_3,,,,,156.0,4.0,78.0,117.0,156.0,234.0,195.0,39.0,green,hexagon
0.0,5.0,0.5,1.0,7.0,5.0,1768.5676159999275,1.0,1.0,phase_3,,,,,245.0,5.0,49.0,98.0,147.0,196.0,245.0,294.0,magenta,square
0.0,4.0,4.0,0.0,7.0,2.0,1498.5777820002113,1.0,1.0,phase_3,,,,,294.0,6.0,196.0,294.0,147.0,245.0,98.0,49.0,cyan,triangle
0.0,6.0,1.0,1.0,7.0,4.0,1602.333056000134,1.0,1.0,phase_3,,,,,88.0,2.0,220.0,264.0,176.0,88.0,44.0,132.0,orange,I
0.0,8.0,4.0,1.0,7.0,5.0,1086.9858330006537,1.0,1.0,phase_3,,,,,270.0,5.0,216.0,108.0,54.0,162.0,270.0,324.0,white,cross
0.0,7.0,2.0,1.0,7.0,3.0,1091.1362759998156,1.0,1.0,phase_3,,,,,102.0,3.0,136.0,204.0,102.0,34.0,68.0,170.0,yellow,diamond
0.0,1.0,0.5,0.0,7.0,6.0,1976.661561999208,1.0,1.0,phase_3,,,,,170.0,5.0,204.0,68.0,136.0,102.0,34.0,170.0,green,hexagon
0.0,5.0,0.5,1.0,7.0,3.0,1436.981820001165,1.0,1.0,phase_3,,,,,220.0,5.0,176.0,88.0,220.0,264.0,44.0,132.0,magenta,square
0.0,3.0,2.0,0.0,7.0,5.0,2921.470729999782,1.0,1.0,phase_3,,,,,132.0,3.0,176.0,220.0,88.0,264.0,132.0,44.0,gray,circle
0.0,8.0,4.0,1.0,7.0,3.0,1408.178219000547,1.0,1.0,phase_3,,,,,136.0,4.0,204.0,68.0,136.0,170.0,34.0,102.0,white,cross
0.0,4.0,4.0,0.0,7.0,6.0,1808.2257179994483,1.0,1.0,phase_3,,,,,245.0,5.0,49.0,147.0,294.0,196.0,98.0,245.0,cyan,triangle
0.0,8.0,4.0,1.0,7.0,1.0,1774.164530999769,1.0,1.0,phase_3,,,,,156.0,4.0,156.0,234.0,117.0,195.0,78.0,39.0,white,cross
0.0,8.0,4.0,1.0,7.0,3.0,2302.5463489993854,1.0,1.0,phase_3,,,,,176.0,4.0,132.0,220.0,176.0,264.0,88.0,44.0,white,cross
0.0,2.0,1.0,0.0,7.0,3.0,1781.6379750001945,1.0,1.0,phase_3,,,,,132.0,3.0,176.0,220.0,132.0,44.0,88.0,264.0,blue,flipped triangle
0.0,8.0,4.0,1.0,7.0,2.0,1661.966318999475,1.0,1.0,phase_3,,,,,170.0,5.0,68.0,170.0,204.0,34.0,136.0,102.0,white,cross
0.0,5.0,0.5,1.0,7.0,5.0,1409.3285880007898,1.0,1.0,phase_3,,,,,234.0,6.0,39.0,195.0,78.0,156.0,234.0,117.0,magenta,square
0.0,4.0,4.0,0.0,7.0,5.0,1084.2833950009665,1.0,1.0,phase_3,,,,,102.0,3.0,204.0,170.0,68.0,136.0,102.0,34.0,cyan,triangle
0.0,8.0,4.0,1.0,7.0,1.0,2285.1182309987053,1.0,1.0,phase_3,,,,,195.0,5.0,195.0,234.0,156.0,39.0,117.0,78.0,white,cross
0.0,5.0,0.5,1.0,7.0,6.0,2346.8248389999644,1.0,1.0,phase_3,,,,,220.0,5.0,132.0,264.0,176.0,44.0,88.0,220.0,magenta,square
0.0,4.0,4.0,0.0,7.0,4.0,1234.6163430011077,1.0,1.0,phase_3,,,,,102.0,3.0,170.0,204.0,34.0,102.0,136.0,68.0,cyan,triangle
0.0,8.0,4.0,1.0,7.0,3.0,1206.0607069997786,2.0,1.0,phase_3,,,,,270.0,5.0,216.0,108.0,270.0,324.0,162.0,54.0,white,cross
0.0,3.0,2.0,0.0,7.0,5.0,2565.91476200083,2.0,1.0,phase_3,,,,,117.0,3.0,156.0,234.0,78.0,39.0,117.0,195.0,gray,circle
0.0,3.0,2.0,0.0,7.0,5.0,1029.1623049997725,2.0,1.0,phase_3,,,,,132.0,3.0,220.0,88.0,264.0,176.0,132.0,44.0,gray,circle
0.0,3.0,2.0,0.0,7.0,2.0,1400.3175039997586,2.0,1.0,phase_3,,,,,156.0,4.0,78.0,156.0,195.0,39.0,117.0,234.0,gray,circle
0.0,2.0,1.0,0.0,7.0,6.0,1012.8477990001556,2.0,1.0,phase_3,,,,,220.0,5.0,264.0,88.0,44.0,176.0,132.0,220.0,blue,flipped triangle
0.0,8.0,4.0,1.0,7.0,3.0,1117.6558019997174,2.0,1.0,phase_3,,,,,245.0,5.0,294.0,98.0,245.0,49.0,196.0,147.0,white,cross
0.0,3.0,2.0,0.0,7.0,2.0,1790.2791409997008,2.0,1.0,phase_3,,,,,98.0,2.0,49.0,98.0,294.0,147.0,196.0,245.0,gray,circle
0.0,5.0,0.5,1.0,7.0,4.0,1368.1592600005388,2.0,1.0,phase_3,,,,,204.0,6.0,170.0,102.0,34.0,204.0,68.0,136.0,magenta,square
0.0,2.0,1.0,0.0,7.0,5.0,893.481196000721,2.0,1.0,phase_3,,,,,102.0,3.0,136.0,68.0,34.0,204.0,102.0,170.0,blue,flipped triangle
0.0,7.0,2.0,1.0,7.0,2.0,2673.6452509994706,2.0,1.0,phase_3,,,,,270.0,5.0,324.0,270.0,54.0,108.0,162.0,216.0,yellow,diamond
0.0,5.0,0.5,1.0,7.0,5.0,3470.1720619996195,2.0,1.0,phase_3,,,,,156.0,4.0,234.0,39.0,117.0,195.0,156.0,78.0,magenta,square
0.0,5.0,0.5,1.0,7.0,4.0,2241.208687000835,2.0,1.0,phase_3,,,,,245.0,5.0,98.0,49.0,196.0,245.0,147.0,294.0,magenta,square
0.0,7.0,2.0,1.0,7.0,3.0,1221.037607998369,2.0,1.0,phase_3,,,,,136.0,4.0,68.0,34.0,136.0,102.0,170.0,204.0,yellow,diamond
0.0,4.0,4.0,0.0,7.0,2.0,3610.969071,2.0,1.0,phase_3,,,,,44.0,1.0,88.0,44.0,176.0,220.0,264.0,132.0,cyan,triangle
0.0,7.0,2.0,1.0,7.0,3.0,1861.2473239991232,2.0,1.0,phase_3,,,,,147.0,3.0,98.0,49.0,147.0,245.0,294.0,196.0,yellow,diamond
0.0,2.0,1.0,0.0,7.0,4.0,1651.316414001485,2.0,1.0,phase_3,,,,,234.0,6.0,156.0,78.0,117.0,234.0,195.0,39.0,blue,flipped triangle
0.0,6.0,1.0,1.0,7.0,4.0,1613.3228380003857,2.0,1.0,phase_3,,,,,39.0,1.0,234.0,195.0,156.0,39.0,117.0,78.0,orange,I
0.0,6.0,1.0,1.0,7.0,6.0,2008.0227790003846,2.0,1.0,phase_3,,,,,162.0,3.0,216.0,54.0,108.0,270.0,324.0,162.0,orange,I
0.0,7.0,2.0,1.0,7.0,1.0,1952.6799640007084,2.0,1.0,phase_3,,,,,117.0,3.0,117.0,156.0,78.0,39.0,195.0,234.0,yellow,diamond
0.0,1.0,0.5,0.0,7.0,3.0,1126.3649529992108,2.0,1.0,phase_3,,,,,108.0,2.0,270.0,162.0,108.0,54.0,324.0,216.0,green,hexagon
0.0,2.0,1.0,0.0,7.0,4.0,1204.148004999297,3.0,1.0,phase_3,,,,,195.0,5.0,39.0,117.0,156.0,195.0,234.0,78.0,blue,flipped triangle
0.0,1.0,0.5,0.0,7.0,2.0,1663.596205000431,3.0,1.0,phase_3,,,,,204.0,6.0,34.0,204.0,68.0,102.0,136.0,170.0,green,hexagon
0.0,1.0,0.5,0.0,7.0,5.0,1224.037887999657,3.0,1.0,phase_3,,,,,39.0,1.0,156.0,78.0,117.0,195.0,39.0,234.0,green,hexagon
0.0,2.0,1.0,0.0,7.0,5.0,1522.8257729995676,3.0,1.0,phase_3,,,,,196.0,4.0,147.0,245.0,49.0,98.0,196.0,294.0,blue,flipped triangle
0.0,6.0,1.0,1.0,7.0,1.0,1732.5197489990387,3.0,1.0,phase_3,,,,,196.0,4.0,196.0,98.0,245.0,147.0,294.0,49.0,orange,I
0.0,1.0,0.5,0.0,7.0,3.0,2591.72250499978,3.0,1.0,phase_3,,,,,98.0,2.0,196.0,294.0,98.0,49.0,147.0,245.0,green,hexagon
0.0,6.0,1.0,1.0,7.0,6.0,1744.4623129995307,3.0,1.0,phase_3,,,,,196.0,4.0,245.0,147.0,294.0,49.0,98.0,196.0,orange,I
0.0,8.0,4.0,1.0,7.0,2.0,2058.359648000988,3.0,1.0,phase_3,,,,,245.0,5.0,49.0,245.0,98.0,196.0,294.0,147.0,white,cross
0.0,3.0,2.0,0.0,7.0,6.0,2800.442720999854,3.0,1.0,phase_3,,,,,98.0,2.0,196.0,294.0,245.0,147.0,49.0,98.0,gray,circle
0.0,6.0,1.0,1.0,7.0,4.0,1913.1113439998444,3.0,1.0,phase_3,,,,,176.0,4.0,44.0,88.0,220.0,176.0,264.0,132.0,orange,I
0.0,7.0,2.0,1.0,7.0,3.0,1761.9715789987822,3.0,1.0,phase_3,,,,,294.0,6.0,49.0,98.0,294.0,147.0,245.0,196.0,yellow,diamond
0.0,4.0,4.0,0.0,7.0,2.0,1298.1896459987183,3.0,1.0,phase_3,,,,,220.0,5.0,88.0,220.0,44.0,132.0,264.0,176.0,cyan,triangle
0.0,7.0,2.0,1.0,7.0,4.0,1733.5318479999842,3.0,1.0,phase_3,,,,,132.0,3.0,264.0,88.0,176.0,132.0,44.0,220.0,yellow,diamond
0.0,5.0,0.5,1.0,7.0,3.0,1329.76840900119,3.0,1.0,phase_3,,,,,162.0,3.0,216.0,270.0,162.0,108.0,54.0,324.0,magenta,square
0.0,5.0,0.5,1.0,7.0,2.0,1907.8799310009344,3.0,1.0,phase_3,,,,,34.0,1.0,102.0,34.0,68.0,136.0,204.0,170.0,magenta,square
0.0,3.0,2.0,0.0,7.0,4.0,2355.6280930006324,3.0,1.0,phase_3,,,,,108.0,2.0,324.0,54.0,270.0,108.0,162.0,216.0,gray,circle
0.0,4.0,4.0,0.0,7.0,4.0,3758.808801998384,3.0,1.0,phase_3,,,,,117.0,3.0,156.0,234.0,78.0,117.0,39.0,195.0,cyan,triangle
0.0,1.0,0.5,0.0,7.0,6.0,2053.121512999496,3.0,1.0,phase_3,,,,,216.0,4.0,54.0,270.0,324.0,108.0,162.0,216.0,green,hexagon
0.0,1.0,0.5,0.0,7.0,3.0,1622.1582750004018,3.0,1.0,phase_3,,,,,132.0,3.0,88.0,264.0,132.0,176.0,44.0,220.0,green,hexagon
0.0,6.0,1.0,1.0,7.0,1.0,1895.578345000104,3.0,1.0,phase_3,,,,,162.0,3.0,162.0,324.0,216.0,54.0,108.0,270.0,orange,I
0.0,7.0,2.0,1.0,7.0,3.0,1095.039234000069,4.0,1.0,phase_3,,,,,195.0,5.0,156.0,234.0,195.0,117.0,78.0,39.0,yellow,diamond
0.0,2.0,1.0,0.0,7.0,4.0,1227.452850000191,4.0,1.0,phase_3,,,,,162.0,3.0,324.0,54.0,216.0,162.0,108.0,270.0,blue,flipped triangle
0.0,6.0,1.0,1.0,7.0,2.0,1555.7464829998937,4.0,1.0,phase_3,,,,,204.0,6.0,102.0,204.0,136.0,68.0,34.0,170.0,orange,I
0.0,2.0,1.0,0.0,7.0,5.0,2139.073622000069,4.0,1.0,phase_3,,,,,196.0,4.0,147.0,49.0,245.0,294.0,196.0,98.0,blue,flipped triangle
0.0,6.0,1.0,1.0,7.0,1.0,1738.783719998537,4.0,1.0,phase_3,,,,,156.0,4.0,156.0,195.0,117.0,78.0,39.0,234.0,orange,I
0.0,1.0,0.5,0.0,7.0,5.0,1430.3303359993151,4.0,1.0,phase_3,,,,,132.0,3.0,88.0,264.0,176.0,220.0,132.0,44.0,green,hexagon
0.0,3.0,2.0,0.0,7.0,4.0,1235.2889329995378,4.0,1.0,phase_3,,,,,204.0,6.0,68.0,170.0,136.0,204.0,34.0,102.0,gray,circle
0.0,7.0,2.0,1.0,7.0,3.0,2494.5036339995568,4.0,1.0,phase_3,,,,,54.0,1.0,324.0,162.0,54.0,216.0,270.0,108.0,yellow,diamond
0.0,2.0,1.0,0.0,7.0,3.0,1676.7887770001837,4.0,1.0,phase_3,,,,,270.0,5.0,54.0,162.0,270.0,324.0,216.0,108.0,blue,flipped triangle
0.0,1.0,0.5,0.0,7.0,4.0,2330.0293889988097,4.0,1.0,phase_3,,,,,147.0,3.0,245.0,196.0,49.0,147.0,98.0,294.0,green,hexagon
0.0,4.0,4.0,0.0,7.0,2.0,2292.299926000851,4.0,1.0,phase_3,,,,,216.0,4.0,54.0,216.0,324.0,162.0,270.0,108.0,cyan,triangle
0.0,7.0,2.0,1.0,7.0,5.0,1553.4230820012451,4.0,1.0,phase_3,,,,,220.0,5.0,132.0,176.0,44.0,88.0,220.0,264.0,yellow,diamond
0.0,5.0,0.5,1.0,7.0,3.0,1733.8624380008696,4.0,1.0,phase_3,,,,,324.0,6.0,108.0,216.0,324.0,54.0,162.0,270.0,magenta,square
0.0,3.0,2.0,0.0,7.0,6.0,3446.785826999985,4.0,1.0,phase_3,,,,,108.0,2.0,162.0,270.0,216.0,54.0,324.0,108.0,gray,circle
0.0,2.0,1.0,0.0,7.0,2.0,1744.1487770011008,4.0,1.0,phase_3,,,,,204.0,6.0,68.0,204.0,34.0,170.0,102.0,136.0,blue,flipped triangle
0.0,6.0,1.0,1.0,7.0,3.0,1392.0869430003222,4.0,1.0,phase_3,,,,,170.0,5.0,204.0,68.0,170.0,102.0,136.0,34.0,orange,I
0.0,8.0,4.0,1.0,7.0,2.0,2700.7115020005585,4.0,1.0,phase_3,,,,,264.0,6.0,220.0,264.0,176.0,44.0,88.0,132.0,white,cross
0.0,3.0,2.0,0.0,7.0,5.0,1346.6077099983522,4.0,1.0,phase_3,,,,,102.0,3.0,170.0,136.0,68.0,34.0,102.0,204.0,gray,circle
0.0,4.0,4.0,0.0,7.0,1.0,1403.160656000182,4.0,1.0,phase_3,,,,,108.0,2.0,108.0,216.0,324.0,162.0,270.0,54.0,cyan,triangle
0.0,4.0,4.0,0.0,7.0,2.0,1277.0159570009127,4.0,1.0,phase_3,,,,,156.0,4.0,117.0,156.0,195.0,234.0,39.0,78.0,cyan,triangle
