raw_reward_magnitude,stim_reward,stepwise_reward_magnitude,paired_with_stopping,stim_location,response,reaction_time,block,num_trial_presentations,which_phase,stop_signal_trial_type,left_SSD,right_SSD,accuracy,chosen_bidding_amount,chosen_bidding_level,possible_bid_1,possible_bid_2,possible_bid_3,possible_bid_4,possible_bid_5,possible_bid_6,color_text,shape_text
397.0,4.0,4.0,0.0,1.0,1.0,481.9988080000712,1.0,1.0,phase_1,,,,,,,,,,,,,green,hexagon
0.0,1.0,0.0,0.0,1.0,1.0,387.9740130000755,1.0,1.0,phase_1,,,,,,,,,,,,,white,circle
0.0,5.0,0.0,1.0,3.0,3.0,318.3612389998416,1.0,1.0,phase_1,,,,,,,,,,,,,cyan,square
120.0,6.0,1.0,1.0,3.0,3.0,279.8189279999405,1.0,1.0,phase_1,,,,,,,,,,,,,yellow,diamond
77.0,6.0,1.0,1.0,4.0,4.0,232.0469030000822,1.0,1.0,phase_1,,,,,,,,,,,,,yellow,diamond
0.0,8.0,0.0,1.0,4.0,4.0,301.8243710000661,1.0,1.0,phase_1,,,,,,,,,,,,,blue,I
382.0,8.0,4.0,1.0,2.0,2.0,263.4084119999897,1.0,1.0,phase_1,,,,,,,,,,,,,blue,I
64.0,5.0,0.5,1.0,3.0,3.0,254.58330900005421,1.0,1.0,phase_1,,,,,,,,,,,,,cyan,square
44.0,1.0,0.5,0.0,1.0,1.0,183.7469829999918,1.0,1.0,phase_1,,,,,,,,,,,,,white,circle
221.0,7.0,2.0,1.0,3.0,3.0,234.7213420000571,1.0,1.0,phase_1,,,,,,,,,,,,,orange,flipped triangle
121.0,2.0,1.0,0.0,2.0,2.0,280.5649680001352,1.0,1.0,phase_1,,,,,,,,,,,,,gray,triangle
219.0,3.0,2.0,0.0,1.0,1.0,251.40731999999838,1.0,1.0,phase_1,,,,,,,,,,,,,magenta,cross
54.0,5.0,0.5,1.0,3.0,3.0,290.8654590000878,1.0,1.0,phase_1,,,,,,,,,,,,,cyan,square
83.0,2.0,1.0,0.0,3.0,3.0,249.8899919999075,1.0,1.0,phase_1,,,,,,,,,,,,,gray,triangle
119.0,6.0,1.0,1.0,1.0,1.0,319.5285730000705,1.0,1.0,phase_1,,,,,,,,,,,,,yellow,diamond
211.0,7.0,2.0,1.0,4.0,4.0,398.6563060000208,1.0,1.0,phase_1,,,,,,,,,,,,,orange,flipped triangle
424.0,8.0,4.0,1.0,1.0,1.0,338.2792180000251,1.0,1.0,phase_1,,,,,,,,,,,,,blue,I
201.0,3.0,2.0,0.0,4.0,4.0,271.8654560001141,1.0,1.0,phase_1,,,,,,,,,,,,,magenta,cross
212.0,3.0,2.0,0.0,4.0,4.0,277.0317289998729,1.0,1.0,phase_1,,,,,,,,,,,,,magenta,cross
424.0,4.0,4.0,0.0,1.0,1.0,267.4482659999739,1.0,1.0,phase_1,,,,,,,,,,,,,green,hexagon
413.0,4.0,4.0,0.0,3.0,3.0,262.6322300000083,1.0,1.0,phase_1,,,,,,,,,,,,,green,hexagon
388.0,8.0,4.0,1.0,1.0,1.0,339.9848100000326,1.0,2.0,phase_1,,,,,,,,,,,,,blue,I
207.0,7.0,2.0,1.0,1.0,1.0,357.8184860000419,1.0,1.0,phase_1,,,,,,,,,,,,,orange,flipped triangle
0.0,7.0,0.0,1.0,3.0,3.0,388.8559679999162,1.0,1.0,phase_1,,,,,,,,,,,,,orange,flipped triangle
0.0,1.0,0.0,0.0,4.0,4.0,354.3090850000681,1.0,2.0,phase_1,,,,,,,,,,,,,white,circle
391.0,4.0,4.0,0.0,1.0,1.0,350.8364350000192,1.0,1.0,phase_1,,,,,,,,,,,,,green,hexagon
53.0,1.0,0.5,0.0,2.0,2.0,309.5819740001388,1.0,1.0,phase_1,,,,,,,,,,,,,white,circle
181.0,3.0,2.0,0.0,1.0,1.0,307.2819709998384,1.0,1.0,phase_1,,,,,,,,,,,,,magenta,cross
180.0,3.0,2.0,0.0,2.0,2.0,445.6271600001855,1.0,1.0,phase_1,,,,,,,,,,,,,magenta,cross
408.0,8.0,4.0,1.0,2.0,2.0,487.0177220000187,1.0,1.0,phase_1,,,,,,,,,,,,,blue,I
120.0,6.0,1.0,1.0,1.0,1.0,409.2895090000183,1.0,1.0,phase_1,,,,,,,,,,,,,yellow,diamond
47.0,1.0,0.5,0.0,1.0,1.0,313.5989829997925,1.0,1.0,phase_1,,,,,,,,,,,,,white,circle
179.0,7.0,2.0,1.0,3.0,3.0,302.5087339999572,1.0,1.0,phase_1,,,,,,,,,,,,,orange,flipped triangle
0.0,4.0,0.0,0.0,2.0,2.0,305.5949560000499,1.0,1.0,phase_1,,,,,,,,,,,,,green,hexagon
382.0,4.0,4.0,0.0,2.0,2.0,269.3201100000806,1.0,1.0,phase_1,,,,,,,,,,,,,green,hexagon
0.0,7.0,0.0,1.0,1.0,1.0,262.0845820001705,1.0,1.0,phase_1,,,,,,,,,,,,,orange,flipped triangle
181.0,3.0,2.0,0.0,1.0,1.0,261.3267790000009,1.0,1.0,phase_1,,,,,,,,,,,,,magenta,cross
45.0,5.0,0.5,1.0,3.0,3.0,345.1506010001139,1.0,1.0,phase_1,,,,,,,,,,,,,cyan,square
410.0,4.0,4.0,0.0,2.0,2.0,287.3117859999183,1.0,1.0,phase_1,,,,,,,,,,,,,green,hexagon
0.0,2.0,0.0,0.0,4.0,4.0,292.4900369998795,1.0,1.0,phase_1,,,,,,,,,,,,,gray,triangle
37.0,5.0,0.5,1.0,1.0,1.0,304.2536979999113,1.0,1.0,phase_1,,,,,,,,,,,,,cyan,square
0.0,5.0,0.0,1.0,3.0,3.0,278.4596420001435,1.0,1.0,phase_1,,,,,,,,,,,,,cyan,square
181.0,7.0,2.0,1.0,1.0,1.0,316.0136910000801,1.0,1.0,phase_1,,,,,,,,,,,,,orange,flipped triangle
88.0,6.0,1.0,1.0,3.0,3.0,245.7227310001144,1.0,1.0,phase_1,,,,,,,,,,,,,yellow,diamond
92.0,2.0,1.0,0.0,4.0,4.0,293.9105760001439,1.0,1.0,phase_1,,,,,,,,,,,,,gray,triangle
41.0,1.0,0.5,0.0,3.0,3.0,362.0246580001094,1.0,1.0,phase_1,,,,,,,,,,,,,white,circle
0.0,7.0,0.0,1.0,3.0,3.0,279.1369760000179,1.0,1.0,phase_1,,,,,,,,,,,,,orange,flipped triangle
48.0,1.0,0.5,0.0,4.0,4.0,261.2963540000237,1.0,1.0,phase_1,,,,,,,,,,,,,white,circle
0.0,3.0,0.0,0.0,4.0,4.0,320.536772999958,1.0,2.0,phase_1,,,,,,,,,,,,,magenta,cross
90.0,6.0,1.0,1.0,2.0,2.0,304.550719999952,1.0,1.0,phase_1,,,,,,,,,,,,,yellow,diamond
55.0,1.0,0.5,0.0,4.0,4.0,300.9058249999725,1.0,1.0,phase_1,,,,,,,,,,,,,white,circle
0.0,4.0,0.0,0.0,1.0,1.0,300.2846000001682,1.0,1.0,phase_1,,,,,,,,,,,,,green,hexagon
0.0,8.0,0.0,1.0,1.0,1.0,269.6030000001883,1.0,1.0,phase_1,,,,,,,,,,,,,blue,I
109.0,6.0,1.0,1.0,1.0,1.0,357.7401370000643,1.0,1.0,phase_1,,,,,,,,,,,,,yellow,diamond
120.0,2.0,1.0,0.0,3.0,3.0,306.2813100000312,1.0,1.0,phase_1,,,,,,,,,,,,,gray,triangle
111.0,6.0,1.0,1.0,1.0,1.0,267.27889100016,1.0,1.0,phase_1,,,,,,,,,,,,,yellow,diamond
64.0,1.0,0.5,0.0,1.0,1.0,304.7272579999571,1.0,1.0,phase_1,,,,,,,,,,,,,white,circle
0.0,2.0,0.0,0.0,4.0,4.0,355.0034800000503,1.0,1.0,phase_1,,,,,,,,,,,,,gray,triangle
195.0,3.0,2.0,0.0,2.0,2.0,327.267953999808,1.0,1.0,phase_1,,,,,,,,,,,,,magenta,cross
83.0,6.0,1.0,1.0,4.0,4.0,285.536195000077,1.0,1.0,phase_1,,,,,,,,,,,,,yellow,diamond
424.0,4.0,4.0,0.0,1.0,1.0,373.4464210001533,1.0,1.0,phase_1,,,,,,,,,,,,,green,hexagon
47.0,5.0,0.5,1.0,2.0,2.0,377.8049850000116,1.0,1.0,phase_1,,,,,,,,,,,,,cyan,square
124.0,6.0,1.0,1.0,1.0,1.0,328.4897849998742,1.0,1.0,phase_1,,,,,,,,,,,,,yellow,diamond
48.0,5.0,0.5,1.0,3.0,3.0,285.4935819998445,1.0,1.0,phase_1,,,,,,,,,,,,,cyan,square
412.0,8.0,4.0,1.0,2.0,2.0,337.9958860000442,1.0,1.0,phase_1,,,,,,,,,,,,,blue,I
387.0,4.0,4.0,0.0,3.0,3.0,358.7918950001949,1.0,1.0,phase_1,,,,,,,,,,,,,green,hexagon
119.0,2.0,1.0,0.0,4.0,4.0,296.2647849999484,1.0,1.0,phase_1,,,,,,,,,,,,,gray,triangle
26.0,1.0,0.5,0.0,4.0,4.0,272.539573999893,1.0,1.0,phase_1,,,,,,,,,,,,,white,circle
116.0,2.0,1.0,0.0,2.0,2.0,317.1078629998192,1.0,1.0,phase_1,,,,,,,,,,,,,gray,triangle
68.0,1.0,0.5,0.0,4.0,4.0,386.1506330001703,1.0,1.0,phase_1,,,,,,,,,,,,,white,circle
96.0,2.0,1.0,0.0,3.0,3.0,329.4997109999258,1.0,1.0,phase_1,,,,,,,,,,,,,gray,triangle
48.0,5.0,0.5,1.0,1.0,1.0,307.1262579999256,1.0,1.0,phase_1,,,,,,,,,,,,,cyan,square
0.0,1.0,0.0,0.0,2.0,2.0,307.6649080001061,1.0,1.0,phase_1,,,,,,,,,,,,,white,circle
394.0,8.0,4.0,1.0,2.0,2.0,305.843244000016,1.0,1.0,phase_1,,,,,,,,,,,,,blue,I
190.0,3.0,2.0,0.0,2.0,2.0,313.8493559999915,1.0,1.0,phase_1,,,,,,,,,,,,,magenta,cross
45.0,1.0,0.5,0.0,2.0,2.0,289.7774250000111,1.0,1.0,phase_1,,,,,,,,,,,,,white,circle
399.0,8.0,4.0,1.0,3.0,3.0,296.7390270000578,1.0,1.0,phase_1,,,,,,,,,,,,,blue,I
382.0,8.0,4.0,1.0,3.0,3.0,295.5178880001767,1.0,1.0,phase_1,,,,,,,,,,,,,blue,I
0.0,2.0,0.0,0.0,2.0,2.0,351.2602069999957,1.0,1.0,phase_1,,,,,,,,,,,,,gray,triangle
70.0,1.0,0.5,0.0,2.0,2.0,343.0199089998496,1.0,1.0,phase_1,,,,,,,,,,,,,white,circle
207.0,7.0,2.0,1.0,3.0,3.0,325.1916689998779,1.0,1.0,phase_1,,,,,,,,,,,,,orange,flipped triangle
61.0,5.0,0.5,1.0,4.0,4.0,355.3780130000632,1.0,1.0,phase_1,,,,,,,,,,,,,cyan,square
0.0,6.0,0.0,1.0,4.0,4.0,299.9919120002232,1.0,1.0,phase_1,,,,,,,,,,,,,yellow,diamond
0.0,6.0,0.0,1.0,3.0,3.0,335.1043539998954,1.0,2.0,phase_1,,,,,,,,,,,,,yellow,diamond
211.0,3.0,2.0,0.0,3.0,3.0,365.1044139999158,1.0,1.0,phase_1,,,,,,,,,,,,,magenta,cross
198.0,7.0,2.0,1.0,4.0,4.0,397.6839880001535,1.0,1.0,phase_1,,,,,,,,,,,,,orange,flipped triangle
0.0,2.0,0.0,0.0,4.0,4.0,277.795185000059,1.0,1.0,phase_1,,,,,,,,,,,,,gray,triangle
387.0,4.0,4.0,0.0,3.0,3.0,320.903860000044,1.0,1.0,phase_1,,,,,,,,,,,,,green,hexagon
38.0,1.0,0.5,0.0,1.0,1.0,271.0946610000064,1.0,1.0,phase_1,,,,,,,,,,,,,white,circle
68.0,5.0,0.5,1.0,1.0,1.0,262.9917360000036,1.0,1.0,phase_1,,,,,,,,,,,,,cyan,square
391.0,8.0,4.0,1.0,2.0,2.0,314.6036370001184,1.0,1.0,phase_1,,,,,,,,,,,,,blue,I
122.0,6.0,1.0,1.0,4.0,4.0,283.9868070000193,1.0,1.0,phase_1,,,,,,,,,,,,,yellow,diamond
0.0,8.0,0.0,1.0,1.0,1.0,295.6419110000752,1.0,1.0,phase_1,,,,,,,,,,,,,blue,I
120.0,2.0,1.0,0.0,1.0,1.0,382.5498260000586,1.0,1.0,phase_1,,,,,,,,,,,,,gray,triangle
0.0,5.0,0.0,1.0,3.0,3.0,350.6197599999723,1.0,1.0,phase_1,,,,,,,,,,,,,cyan,square
423.0,4.0,4.0,0.0,3.0,3.0,418.3840360001341,1.0,1.0,phase_1,,,,,,,,,,,,,green,hexagon
424.0,4.0,4.0,0.0,2.0,2.0,496.8702940000185,1.0,1.0,phase_1,,,,,,,,,,,,,green,hexagon
383.0,4.0,4.0,0.0,4.0,4.0,346.5522260000853,1.0,1.0,phase_1,,,,,,,,,,,,,green,hexagon
398.0,4.0,4.0,0.0,4.0,4.0,335.2084829998603,1.0,1.0,phase_1,,,,,,,,,,,,,green,hexagon
102.0,6.0,1.0,1.0,1.0,1.0,317.9470000000037,1.0,1.0,phase_1,,,,,,,,,,,,,yellow,diamond
382.0,4.0,4.0,0.0,1.0,1.0,257.11263599987427,2.0,1.0,phase_1,,,,,,,,,,,,,green,hexagon
180.0,3.0,2.0,0.0,1.0,1.0,288.1488100001661,2.0,1.0,phase_1,,,,,,,,,,,,,magenta,cross
186.0,3.0,2.0,0.0,3.0,3.0,247.4078250002094,2.0,1.0,phase_1,,,,,,,,,,,,,magenta,cross
376.0,4.0,4.0,0.0,1.0,1.0,238.4095530001104,2.0,1.0,phase_1,,,,,,,,,,,,,green,hexagon
188.0,3.0,2.0,0.0,1.0,1.0,254.4096380001974,2.0,1.0,phase_1,,,,,,,,,,,,,magenta,cross
83.0,6.0,1.0,1.0,2.0,2.0,278.9896350000163,2.0,1.0,phase_1,,,,,,,,,,,,,yellow,diamond
0.0,8.0,0.0,1.0,2.0,2.0,296.3720529996863,2.0,1.0,phase_1,,,,,,,,,,,,,blue,I
393.0,8.0,4.0,1.0,3.0,3.0,274.7353019999536,2.0,1.0,phase_1,,,,,,,,,,,,,blue,I
68.0,1.0,0.5,0.0,3.0,3.0,298.2889269997031,2.0,1.0,phase_1,,,,,,,,,,,,,white,circle
110.0,2.0,1.0,0.0,4.0,4.0,326.7650630000389,2.0,1.0,phase_1,,,,,,,,,,,,,gray,triangle
105.0,2.0,1.0,0.0,3.0,3.0,291.569944999992,2.0,1.0,phase_1,,,,,,,,,,,,,gray,triangle
103.0,2.0,1.0,0.0,3.0,3.0,318.1710570001996,2.0,1.0,phase_1,,,,,,,,,,,,,gray,triangle
204.0,3.0,2.0,0.0,3.0,3.0,312.5895990001481,2.0,1.0,phase_1,,,,,,,,,,,,,magenta,cross
392.0,8.0,4.0,1.0,4.0,4.0,274.62272699995077,2.0,1.0,phase_1,,,,,,,,,,,,,blue,I
0.0,1.0,0.0,0.0,1.0,1.0,248.76076299960908,2.0,1.0,phase_1,,,,,,,,,,,,,white,circle
384.0,4.0,4.0,0.0,2.0,2.0,294.903537999744,2.0,1.0,phase_1,,,,,,,,,,,,,green,hexagon
116.0,6.0,1.0,1.0,1.0,1.0,357.3797960002594,2.0,1.0,phase_1,,,,,,,,,,,,,yellow,diamond
119.0,6.0,1.0,1.0,2.0,2.0,288.4917050000695,2.0,1.0,phase_1,,,,,,,,,,,,,yellow,diamond
96.0,6.0,1.0,1.0,1.0,1.0,295.9839459999784,2.0,1.0,phase_1,,,,,,,,,,,,,yellow,diamond
0.0,4.0,0.0,0.0,4.0,4.0,325.2376690002165,2.0,1.0,phase_1,,,,,,,,,,,,,green,hexagon
185.0,3.0,2.0,0.0,1.0,1.0,343.7113359996147,2.0,1.0,phase_1,,,,,,,,,,,,,magenta,cross
90.0,2.0,1.0,0.0,1.0,1.0,318.9050009996208,2.0,1.0,phase_1,,,,,,,,,,,,,gray,triangle
176.0,7.0,2.0,1.0,1.0,1.0,311.4882909999323,2.0,1.0,phase_1,,,,,,,,,,,,,orange,flipped triangle
221.0,7.0,2.0,1.0,4.0,4.0,338.8548950001677,2.0,1.0,phase_1,,,,,,,,,,,,,orange,flipped triangle
408.0,4.0,4.0,0.0,3.0,3.0,348.2364940000479,2.0,1.0,phase_1,,,,,,,,,,,,,green,hexagon
379.0,4.0,4.0,0.0,4.0,4.0,289.9180549998164,2.0,1.0,phase_1,,,,,,,,,,,,,green,hexagon
407.0,4.0,4.0,0.0,1.0,1.0,213.7303089998568,2.0,1.0,phase_1,,,,,,,,,,,,,green,hexagon
190.0,3.0,2.0,0.0,1.0,1.0,289.2474219997893,2.0,1.0,phase_1,,,,,,,,,,,,,magenta,cross
30.0,5.0,0.5,1.0,1.0,1.0,360.424157000125,2.0,1.0,phase_1,,,,,,,,,,,,,cyan,square
0.0,3.0,0.0,0.0,1.0,1.0,235.5302669998309,2.0,1.0,phase_1,,,,,,,,,,,,,magenta,cross
203.0,7.0,2.0,1.0,2.0,2.0,293.2863189998898,2.0,1.0,phase_1,,,,,,,,,,,,,orange,flipped triangle
392.0,4.0,4.0,0.0,4.0,4.0,342.8455180001037,2.0,1.0,phase_1,,,,,,,,,,,,,green,hexagon
102.0,2.0,1.0,0.0,3.0,3.0,381.6001509999296,2.0,1.0,phase_1,,,,,,,,,,,,,gray,triangle
0.0,5.0,0.0,1.0,3.0,3.0,280.1882819999264,2.0,1.0,phase_1,,,,,,,,,,,,,cyan,square
48.0,5.0,0.5,1.0,1.0,1.0,299.1136250002455,2.0,1.0,phase_1,,,,,,,,,,,,,cyan,square
121.0,6.0,1.0,1.0,3.0,3.0,419.3305449998661,2.0,1.0,phase_1,,,,,,,,,,,,,yellow,diamond
0.0,5.0,0.0,1.0,1.0,1.0,298.2727970002088,2.0,1.0,phase_1,,,,,,,,,,,,,cyan,square
32.0,5.0,0.5,1.0,1.0,1.0,446.5888119998453,2.0,1.0,phase_1,,,,,,,,,,,,,cyan,square
82.0,2.0,1.0,0.0,1.0,1.0,324.6354409998275,2.0,1.0,phase_1,,,,,,,,,,,,,gray,triangle
406.0,8.0,4.0,1.0,4.0,4.0,415.6257290001122,2.0,1.0,phase_1,,,,,,,,,,,,,blue,I
55.0,5.0,0.5,1.0,1.0,1.0,284.6085810001568,2.0,1.0,phase_1,,,,,,,,,,,,,cyan,square
56.0,5.0,0.5,1.0,2.0,2.0,314.916290000383,2.0,1.0,phase_1,,,,,,,,,,,,,cyan,square
0.0,7.0,0.0,1.0,2.0,2.0,311.1906290000661,2.0,1.0,phase_1,,,,,,,,,,,,,orange,flipped triangle
102.0,6.0,1.0,1.0,3.0,3.0,438.6537519999365,2.0,2.0,phase_1,,,,,,,,,,,,,yellow,diamond
26.0,5.0,0.5,1.0,3.0,3.0,311.575644000186,2.0,1.0,phase_1,,,,,,,,,,,,,cyan,square
0.0,5.0,0.0,1.0,4.0,4.0,349.8722330000419,2.0,1.0,phase_1,,,,,,,,,,,,,cyan,square
182.0,7.0,2.0,1.0,2.0,2.0,278.129533000083,2.0,1.0,phase_1,,,,,,,,,,,,,orange,flipped triangle
0.0,6.0,0.0,1.0,1.0,1.0,290.0052500003767,2.0,1.0,phase_1,,,,,,,,,,,,,yellow,diamond
411.0,8.0,4.0,1.0,1.0,1.0,290.8378560000528,2.0,1.0,phase_1,,,,,,,,,,,,,blue,I
388.0,4.0,4.0,0.0,3.0,3.0,262.2179420000066,2.0,1.0,phase_1,,,,,,,,,,,,,green,hexagon
0.0,7.0,0.0,1.0,3.0,3.0,329.5567980003397,2.0,1.0,phase_1,,,,,,,,,,,,,orange,flipped triangle
67.0,1.0,0.5,0.0,4.0,4.0,309.5873679999386,2.0,1.0,phase_1,,,,,,,,,,,,,white,circle
201.0,7.0,2.0,1.0,2.0,2.0,503.44007800003965,2.0,1.0,phase_1,,,,,,,,,,,,,orange,flipped triangle
424.0,8.0,4.0,1.0,1.0,1.0,269.3598870000642,2.0,1.0,phase_1,,,,,,,,,,,,,blue,I
410.0,8.0,4.0,1.0,4.0,4.0,292.8425360000801,2.0,1.0,phase_1,,,,,,,,,,,,,blue,I
103.0,2.0,1.0,0.0,3.0,3.0,346.6720800001894,2.0,1.0,phase_1,,,,,,,,,,,,,gray,triangle
212.0,7.0,2.0,1.0,4.0,4.0,279.8171270001148,2.0,1.0,phase_1,,,,,,,,,,,,,orange,flipped triangle
377.0,8.0,4.0,1.0,4.0,4.0,471.842055000252,2.0,1.0,phase_1,,,,,,,,,,,,,blue,I
219.0,7.0,2.0,1.0,3.0,3.0,375.5140009998285,2.0,1.0,phase_1,,,,,,,,,,,,,orange,flipped triangle
401.0,4.0,4.0,0.0,4.0,4.0,244.5974580000438,2.0,1.0,phase_1,,,,,,,,,,,,,green,hexagon
90.0,2.0,1.0,0.0,2.0,2.0,265.4978059999848,2.0,1.0,phase_1,,,,,,,,,,,,,gray,triangle
70.0,5.0,0.5,1.0,4.0,4.0,384.2624829999295,2.0,1.0,phase_1,,,,,,,,,,,,,cyan,square
55.0,5.0,0.5,1.0,4.0,4.0,399.0515989999039,2.0,1.0,phase_1,,,,,,,,,,,,,cyan,square
190.0,7.0,2.0,1.0,1.0,1.0,347.3239619997912,2.0,2.0,phase_1,,,,,,,,,,,,,orange,flipped triangle
217.0,7.0,2.0,1.0,2.0,2.0,349.0121039999394,2.0,1.0,phase_1,,,,,,,,,,,,,orange,flipped triangle
54.0,1.0,0.5,0.0,3.0,3.0,362.8321109999888,2.0,1.0,phase_1,,,,,,,,,,,,,white,circle
398.0,8.0,4.0,1.0,1.0,1.0,332.2449920001418,2.0,1.0,phase_1,,,,,,,,,,,,,blue,I
72.0,5.0,0.5,1.0,2.0,2.0,401.6794359999949,2.0,1.0,phase_1,,,,,,,,,,,,,cyan,square
38.0,1.0,0.5,0.0,2.0,2.0,536.6273229997205,2.0,1.0,phase_1,,,,,,,,,,,,,white,circle
51.0,5.0,0.5,1.0,4.0,4.0,415.1465720001397,2.0,1.0,phase_1,,,,,,,,,,,,,cyan,square
32.0,1.0,0.5,0.0,4.0,4.0,306.938677999824,2.0,1.0,phase_1,,,,,,,,,,,,,white,circle
0.0,2.0,0.0,0.0,4.0,4.0,302.8840899996794,2.0,1.0,phase_1,,,,,,,,,,,,,gray,triangle
217.0,3.0,2.0,0.0,4.0,4.0,417.5356239998109,2.0,1.0,phase_1,,,,,,,,,,,,,magenta,cross
0.0,3.0,0.0,0.0,1.0,1.0,375.1089340003091,2.0,1.0,phase_1,,,,,,,,,,,,,magenta,cross
113.0,2.0,1.0,0.0,4.0,4.0,330.3937850000693,2.0,1.0,phase_1,,,,,,,,,,,,,gray,triangle
68.0,5.0,0.5,1.0,4.0,4.0,413.4508080001069,2.0,1.0,phase_1,,,,,,,,,,,,,cyan,square
411.0,4.0,4.0,0.0,4.0,4.0,269.8689230001037,2.0,1.0,phase_1,,,,,,,,,,,,,green,hexagon
124.0,2.0,1.0,0.0,2.0,2.0,443.7371550002353,2.0,1.0,phase_1,,,,,,,,,,,,,gray,triangle
377.0,4.0,4.0,0.0,2.0,2.0,328.4970649997376,2.0,1.0,phase_1,,,,,,,,,,,,,green,hexagon
69.0,5.0,0.5,1.0,3.0,3.0,295.6276460004119,2.0,1.0,phase_1,,,,,,,,,,,,,cyan,square
48.0,1.0,0.5,0.0,4.0,4.0,572.7052080001158,2.0,1.0,phase_1,,,,,,,,,,,,,white,circle
416.0,4.0,4.0,0.0,1.0,1.0,350.9251720001884,2.0,1.0,phase_1,,,,,,,,,,,,,green,hexagon
0.0,2.0,0.0,0.0,4.0,4.0,356.3439700001254,2.0,1.0,phase_1,,,,,,,,,,,,,gray,triangle
61.0,1.0,0.5,0.0,3.0,3.0,472.0366099995772,2.0,1.0,phase_1,,,,,,,,,,,,,white,circle
122.0,2.0,1.0,0.0,1.0,1.0,401.6094240000711,2.0,1.0,phase_1,,,,,,,,,,,,,gray,triangle
55.0,1.0,0.5,0.0,2.0,2.0,271.6742249999697,2.0,1.0,phase_1,,,,,,,,,,,,,white,circle
0.0,6.0,0.0,1.0,2.0,2.0,303.9670240000305,2.0,1.0,phase_1,,,,,,,,,,,,,yellow,diamond
387.0,8.0,4.0,1.0,4.0,4.0,369.3013489996701,2.0,1.0,phase_1,,,,,,,,,,,,,blue,I
89.0,2.0,1.0,0.0,1.0,1.0,294.285712999681,2.0,1.0,phase_1,,,,,,,,,,,,,gray,triangle
68.0,5.0,0.5,1.0,4.0,4.0,454.3565339999986,2.0,1.0,phase_1,,,,,,,,,,,,,cyan,square
119.0,2.0,1.0,0.0,2.0,2.0,537.2968279998531,2.0,1.0,phase_1,,,,,,,,,,,,,gray,triangle
220.0,7.0,2.0,1.0,3.0,3.0,386.91067799982187,2.0,1.0,phase_1,,,,,,,,,,,,,orange,flipped triangle
416.0,4.0,4.0,0.0,4.0,4.0,407.5182120000136,2.0,1.0,phase_1,,,,,,,,,,,,,green,hexagon
33.0,5.0,0.5,1.0,2.0,2.0,318.2857400001921,2.0,1.0,phase_1,,,,,,,,,,,,,cyan,square
389.0,8.0,4.0,1.0,3.0,3.0,863.3981150001091,2.0,1.0,phase_1,,,,,,,,,,,,,blue,I
34.0,5.0,0.5,1.0,2.0,2.0,317.1422210002674,2.0,1.0,phase_1,,,,,,,,,,,,,cyan,square
103.0,6.0,1.0,1.0,4.0,4.0,312.8967220000049,2.0,1.0,phase_1,,,,,,,,,,,,,yellow,diamond
0.0,7.0,0.0,1.0,3.0,3.0,340.9943850001582,2.0,1.0,phase_1,,,,,,,,,,,,,orange,flipped triangle
0.0,3.0,0.0,0.0,1.0,1.0,282.2668009998779,2.0,1.0,phase_1,,,,,,,,,,,,,magenta,cross
181.0,7.0,2.0,1.0,1.0,1.0,312.2460399999909,2.0,1.0,phase_1,,,,,,,,,,,,,orange,flipped triangle
69.0,1.0,0.5,0.0,3.0,3.0,304.8522869999033,3.0,1.0,phase_1,,,,,,,,,,,,,white,circle
110.0,6.0,1.0,1.0,3.0,3.0,304.9638560000858,3.0,1.0,phase_1,,,,,,,,,,,,,yellow,diamond
44.0,5.0,0.5,1.0,2.0,2.0,290.6656680002015,3.0,1.0,phase_1,,,,,,,,,,,,,cyan,square
0.0,2.0,0.0,0.0,3.0,3.0,323.9844769996125,3.0,1.0,phase_1,,,,,,,,,,,,,gray,triangle
61.0,5.0,0.5,1.0,4.0,4.0,342.0434829999976,3.0,2.0,phase_1,,,,,,,,,,,,,cyan,square
204.0,7.0,2.0,1.0,1.0,1.0,336.7739599998458,3.0,1.0,phase_1,,,,,,,,,,,,,orange,flipped triangle
0.0,8.0,0.0,1.0,3.0,3.0,305.9046820003459,3.0,1.0,phase_1,,,,,,,,,,,,,blue,I
225.0,7.0,2.0,1.0,4.0,4.0,343.4232529998553,3.0,1.0,phase_1,,,,,,,,,,,,,orange,flipped triangle
0.0,3.0,0.0,0.0,3.0,3.0,359.1712580000603,3.0,1.0,phase_1,,,,,,,,,,,,,magenta,cross
205.0,3.0,2.0,0.0,4.0,4.0,286.2929890002306,3.0,1.0,phase_1,,,,,,,,,,,,,magenta,cross
188.0,7.0,2.0,1.0,2.0,2.0,299.7789529999863,3.0,2.0,phase_1,,,,,,,,,,,,,orange,flipped triangle
203.0,3.0,2.0,0.0,3.0,3.0,321.790048999901,3.0,1.0,phase_1,,,,,,,,,,,,,magenta,cross
216.0,7.0,2.0,1.0,2.0,2.0,307.0125660001395,3.0,1.0,phase_1,,,,,,,,,,,,,orange,flipped triangle
0.0,8.0,0.0,1.0,1.0,1.0,417.8503200000705,3.0,1.0,phase_1,,,,,,,,,,,,,blue,I
67.0,5.0,0.5,1.0,2.0,2.0,409.9864300001172,3.0,1.0,phase_1,,,,,,,,,,,,,cyan,square
56.0,1.0,0.5,0.0,1.0,1.0,295.4793720000452,3.0,1.0,phase_1,,,,,,,,,,,,,white,circle
179.0,3.0,2.0,0.0,2.0,2.0,417.350671999884,3.0,1.0,phase_1,,,,,,,,,,,,,magenta,cross
393.0,4.0,4.0,0.0,4.0,4.0,535.9478569998828,3.0,1.0,phase_1,,,,,,,,,,,,,green,hexagon
397.0,8.0,4.0,1.0,2.0,2.0,400.5454120001559,3.0,1.0,phase_1,,,,,,,,,,,,,blue,I
47.0,5.0,0.5,1.0,3.0,3.0,665.2259679999588,3.0,1.0,phase_1,,,,,,,,,,,,,cyan,square
379.0,8.0,4.0,1.0,2.0,2.0,298.1310300001496,3.0,1.0,phase_1,,,,,,,,,,,,,blue,I
176.0,7.0,2.0,1.0,1.0,1.0,310.4019030001836,3.0,1.0,phase_1,,,,,,,,,,,,,orange,flipped triangle
204.0,3.0,2.0,0.0,4.0,4.0,383.7301059998026,3.0,1.0,phase_1,,,,,,,,,,,,,magenta,cross
98.0,2.0,1.0,0.0,3.0,3.0,437.4480999999832,3.0,1.0,phase_1,,,,,,,,,,,,,gray,triangle
0.0,6.0,0.0,1.0,4.0,4.0,941.6990790000456,3.0,1.0,phase_1,,,,,,,,,,,,,yellow,diamond
0.0,5.0,0.0,1.0,3.0,3.0,796.139612999923,3.0,1.0,phase_1,,,,,,,,,,,,,cyan,square
61.0,1.0,0.5,0.0,3.0,3.0,271.9444049998856,3.0,1.0,phase_1,,,,,,,,,,,,,white,circle
33.0,1.0,0.5,0.0,2.0,2.0,384.6686870001576,3.0,1.0,phase_1,,,,,,,,,,,,,white,circle
43.0,5.0,0.5,1.0,3.0,3.0,325.7359309995991,3.0,1.0,phase_1,,,,,,,,,,,,,cyan,square
0.0,6.0,0.0,1.0,4.0,4.0,538.8871149998522,3.0,1.0,phase_1,,,,,,,,,,,,,yellow,diamond
47.0,1.0,0.5,0.0,4.0,4.0,423.7347580001369,3.0,1.0,phase_1,,,,,,,,,,,,,white,circle
185.0,7.0,2.0,1.0,3.0,3.0,311.3751630003207,3.0,1.0,phase_1,,,,,,,,,,,,,orange,flipped triangle
424.0,8.0,4.0,1.0,3.0,3.0,285.164824000276,3.0,1.0,phase_1,,,,,,,,,,,,,blue,I
0.0,3.0,0.0,0.0,1.0,1.0,269.7750010001982,3.0,1.0,phase_1,,,,,,,,,,,,,magenta,cross
78.0,2.0,1.0,0.0,4.0,4.0,320.4999429999589,3.0,1.0,phase_1,,,,,,,,,,,,,gray,triangle
83.0,2.0,1.0,0.0,2.0,2.0,288.8784810002107,3.0,1.0,phase_1,,,,,,,,,,,,,gray,triangle
0.0,7.0,0.0,1.0,3.0,3.0,292.8138259999286,3.0,1.0,phase_1,,,,,,,,,,,,,orange,flipped triangle
101.0,2.0,1.0,0.0,4.0,4.0,310.9751709998818,3.0,1.0,phase_1,,,,,,,,,,,,,gray,triangle
77.0,2.0,1.0,0.0,1.0,1.0,282.0908010003222,3.0,1.0,phase_1,,,,,,,,,,,,,gray,triangle
108.0,2.0,1.0,0.0,1.0,1.0,305.0069420000909,3.0,2.0,phase_1,,,,,,,,,,,,,gray,triangle
182.0,3.0,2.0,0.0,3.0,3.0,320.6446040003357,3.0,1.0,phase_1,,,,,,,,,,,,,magenta,cross
0.0,6.0,0.0,1.0,1.0,1.0,267.8912100000161,3.0,1.0,phase_1,,,,,,,,,,,,,yellow,diamond
0.0,8.0,0.0,1.0,1.0,1.0,342.4572379999517,3.0,1.0,phase_1,,,,,,,,,,,,,blue,I
0.0,1.0,0.0,0.0,4.0,4.0,514.8131760001888,3.0,1.0,phase_1,,,,,,,,,,,,,white,circle
0.0,4.0,0.0,0.0,1.0,1.0,521.606389000226,3.0,1.0,phase_1,,,,,,,,,,,,,green,hexagon
48.0,1.0,0.5,0.0,1.0,1.0,317.4021390000234,3.0,1.0,phase_1,,,,,,,,,,,,,white,circle
0.0,4.0,0.0,0.0,1.0,1.0,454.1821300003903,3.0,1.0,phase_1,,,,,,,,,,,,,green,hexagon
26.0,1.0,0.5,0.0,1.0,1.0,406.8457399998806,3.0,1.0,phase_1,,,,,,,,,,,,,white,circle
217.0,7.0,2.0,1.0,2.0,2.0,279.2254010000761,3.0,1.0,phase_1,,,,,,,,,,,,,orange,flipped triangle
96.0,6.0,1.0,1.0,4.0,4.0,449.8913979996359,3.0,1.0,phase_1,,,,,,,,,,,,,yellow,diamond
37.0,1.0,0.5,0.0,2.0,2.0,274.1572770000857,3.0,1.0,phase_1,,,,,,,,,,,,,white,circle
56.0,1.0,0.5,0.0,3.0,3.0,260.178119000102,3.0,1.0,phase_1,,,,,,,,,,,,,white,circle
41.0,1.0,0.5,0.0,3.0,3.0,399.0205330001117,3.0,1.0,phase_1,,,,,,,,,,,,,white,circle
419.0,4.0,4.0,0.0,3.0,3.0,313.189486000283,3.0,1.0,phase_1,,,,,,,,,,,,,green,hexagon
176.0,3.0,2.0,0.0,2.0,2.0,294.8565640003835,3.0,1.0,phase_1,,,,,,,,,,,,,magenta,cross
88.0,2.0,1.0,0.0,4.0,4.0,332.5967689997924,3.0,2.0,phase_1,,,,,,,,,,,,,gray,triangle
195.0,7.0,2.0,1.0,4.0,4.0,319.3056229997637,3.0,1.0,phase_1,,,,,,,,,,,,,orange,flipped triangle
0.0,5.0,0.0,1.0,2.0,2.0,293.0484060002527,3.0,1.0,phase_1,,,,,,,,,,,,,cyan,square
377.0,4.0,4.0,0.0,1.0,1.0,430.7193990002815,3.0,1.0,phase_1,,,,,,,,,,,,,green,hexagon
384.0,8.0,4.0,1.0,3.0,3.0,318.5049050002817,3.0,1.0,phase_1,,,,,,,,,,,,,blue,I
413.0,8.0,4.0,1.0,3.0,3.0,366.0804389996883,3.0,1.0,phase_1,,,,,,,,,,,,,blue,I
394.0,4.0,4.0,0.0,3.0,3.0,308.2396679997146,3.0,1.0,phase_1,,,,,,,,,,,,,green,hexagon
205.0,7.0,2.0,1.0,1.0,1.0,338.780792000307,3.0,1.0,phase_1,,,,,,,,,,,,,orange,flipped triangle
207.0,3.0,2.0,0.0,4.0,4.0,349.8730850001266,3.0,1.0,phase_1,,,,,,,,,,,,,magenta,cross
108.0,2.0,1.0,0.0,3.0,3.0,323.6156809998647,3.0,1.0,phase_1,,,,,,,,,,,,,gray,triangle
85.0,6.0,1.0,1.0,3.0,3.0,380.3957449999871,3.0,1.0,phase_1,,,,,,,,,,,,,yellow,diamond
0.0,8.0,0.0,1.0,1.0,1.0,288.2145819999095,3.0,1.0,phase_1,,,,,,,,,,,,,blue,I
218.0,3.0,2.0,0.0,2.0,2.0,491.8279299999994,3.0,1.0,phase_1,,,,,,,,,,,,,magenta,cross
68.0,1.0,0.5,0.0,1.0,1.0,303.5560810003517,3.0,1.0,phase_1,,,,,,,,,,,,,white,circle
376.0,8.0,4.0,1.0,2.0,2.0,626.6365649998988,3.0,1.0,phase_1,,,,,,,,,,,,,blue,I
220.0,3.0,2.0,0.0,2.0,2.0,528.217609999956,3.0,1.0,phase_1,,,,,,,,,,,,,magenta,cross
410.0,8.0,4.0,1.0,1.0,1.0,267.0061429998895,3.0,1.0,phase_1,,,,,,,,,,,,,blue,I
0.0,8.0,0.0,1.0,2.0,2.0,339.69019999995,3.0,1.0,phase_1,,,,,,,,,,,,,blue,I
0.0,1.0,0.0,0.0,1.0,1.0,303.2675049998943,3.0,1.0,phase_1,,,,,,,,,,,,,white,circle
93.0,2.0,1.0,0.0,2.0,2.0,288.8965570000437,3.0,1.0,phase_1,,,,,,,,,,,,,gray,triangle
409.0,4.0,4.0,0.0,2.0,2.0,313.4187290002046,3.0,1.0,phase_1,,,,,,,,,,,,,green,hexagon
220.0,3.0,2.0,0.0,2.0,2.0,309.6725770001285,3.0,1.0,phase_1,,,,,,,,,,,,,magenta,cross
389.0,4.0,4.0,0.0,3.0,3.0,322.2820930000125,3.0,1.0,phase_1,,,,,,,,,,,,,green,hexagon
400.0,8.0,4.0,1.0,4.0,4.0,414.6119729998645,3.0,1.0,phase_1,,,,,,,,,,,,,blue,I
216.0,3.0,2.0,0.0,4.0,4.0,299.8953239998627,3.0,1.0,phase_1,,,,,,,,,,,,,magenta,cross
26.0,5.0,0.5,1.0,4.0,4.0,344.808047999777,3.0,1.0,phase_1,,,,,,,,,,,,,cyan,square
0.0,3.0,0.0,0.0,4.0,4.0,395.5079359998308,3.0,1.0,phase_1,,,,,,,,,,,,,magenta,cross
201.0,7.0,2.0,1.0,4.0,4.0,308.207424000102,3.0,1.0,phase_1,,,,,,,,,,,,,orange,flipped triangle
0.0,2.0,0.0,0.0,3.0,3.0,350.0073310001426,3.0,1.0,phase_1,,,,,,,,,,,,,gray,triangle
89.0,6.0,1.0,1.0,4.0,4.0,374.3874540000433,3.0,1.0,phase_1,,,,,,,,,,,,,yellow,diamond
201.0,3.0,2.0,0.0,3.0,3.0,377.1318239996617,3.0,1.0,phase_1,,,,,,,,,,,,,magenta,cross
0.0,5.0,0.0,1.0,4.0,4.0,330.8992580000449,3.0,1.0,phase_1,,,,,,,,,,,,,cyan,square
179.0,3.0,2.0,0.0,2.0,2.0,307.4718600000778,3.0,1.0,phase_1,,,,,,,,,,,,,magenta,cross
225.0,3.0,2.0,0.0,1.0,1.0,265.255937999882,3.0,1.0,phase_1,,,,,,,,,,,,,magenta,cross
0.0,8.0,0.0,1.0,3.0,3.0,489.9653309998939,3.0,1.0,phase_1,,,,,,,,,,,,,blue,I
0.0,3.0,0.0,0.0,3.0,3.0,306.2049079999269,3.0,1.0,phase_1,,,,,,,,,,,,,magenta,cross
41.0,5.0,0.5,1.0,3.0,3.0,305.46998799991337,3.0,1.0,phase_1,,,,,,,,,,,,,cyan,square
108.0,6.0,1.0,1.0,2.0,2.0,390.5709119999301,3.0,1.0,phase_1,,,,,,,,,,,,,yellow,diamond
416.0,8.0,4.0,1.0,4.0,4.0,410.3546060000553,3.0,1.0,phase_1,,,,,,,,,,,,,blue,I
34.0,1.0,0.5,0.0,4.0,4.0,313.4021470000334,3.0,1.0,phase_1,,,,,,,,,,,,,white,circle
0.0,4.0,0.0,0.0,4.0,4.0,472.3362180002368,3.0,1.0,phase_1,,,,,,,,,,,,,green,hexagon
0.0,2.0,0.0,0.0,3.0,3.0,319.9116669998147,3.0,1.0,phase_1,,,,,,,,,,,,,gray,triangle
101.0,6.0,1.0,1.0,4.0,4.0,261.9609369999125,3.0,1.0,phase_1,,,,,,,,,,,,,yellow,diamond
407.0,8.0,4.0,1.0,4.0,4.0,331.487928000115,3.0,1.0,phase_1,,,,,,,,,,,,,blue,I
53.0,5.0,0.5,1.0,1.0,1.0,391.0717019998628,3.0,1.0,phase_1,,,,,,,,,,,,,cyan,square
0.0,1.0,0.0,0.0,1.0,1.0,268.3108000001084,4.0,1.0,phase_1,,,,,,,,,,,,,white,circle
181.0,3.0,2.0,0.0,3.0,3.0,263.3019710001463,4.0,1.0,phase_1,,,,,,,,,,,,,magenta,cross
220.0,7.0,2.0,1.0,1.0,1.0,232.231253000009,4.0,1.0,phase_1,,,,,,,,,,,,,orange,flipped triangle
51.0,1.0,0.5,0.0,3.0,3.0,293.8067850000152,4.0,1.0,phase_1,,,,,,,,,,,,,white,circle
180.0,7.0,2.0,1.0,2.0,2.0,268.0297379997682,4.0,1.0,phase_1,,,,,,,,,,,,,orange,flipped triangle
176.0,3.0,2.0,0.0,3.0,3.0,290.2749349996156,4.0,1.0,phase_1,,,,,,,,,,,,,magenta,cross
103.0,6.0,1.0,1.0,4.0,4.0,285.0297310001224,4.0,1.0,phase_1,,,,,,,,,,,,,yellow,diamond
55.0,1.0,0.5,0.0,1.0,1.0,282.1666999998342,4.0,1.0,phase_1,,,,,,,,,,,,,white,circle
0.0,7.0,0.0,1.0,3.0,3.0,282.6865509996423,4.0,1.0,phase_1,,,,,,,,,,,,,orange,flipped triangle
109.0,2.0,1.0,0.0,1.0,1.0,276.8601120001221,4.0,1.0,phase_1,,,,,,,,,,,,,gray,triangle
0.0,1.0,0.0,0.0,1.0,1.0,298.5769470001287,4.0,1.0,phase_1,,,,,,,,,,,,,white,circle
113.0,6.0,1.0,1.0,2.0,2.0,245.8100040003046,4.0,1.0,phase_1,,,,,,,,,,,,,yellow,diamond
222.0,3.0,2.0,0.0,2.0,2.0,316.5646080001352,4.0,1.0,phase_1,,,,,,,,,,,,,magenta,cross
423.0,8.0,4.0,1.0,4.0,4.0,400.5652699997881,4.0,2.0,phase_1,,,,,,,,,,,,,blue,I
80.0,6.0,1.0,1.0,3.0,3.0,286.8450060000214,4.0,1.0,phase_1,,,,,,,,,,,,,yellow,diamond
29.0,5.0,0.5,1.0,4.0,4.0,371.239087000049,4.0,1.0,phase_1,,,,,,,,,,,,,cyan,square
80.0,2.0,1.0,0.0,3.0,3.0,289.3812409997736,4.0,1.0,phase_1,,,,,,,,,,,,,gray,triangle
204.0,7.0,2.0,1.0,1.0,1.0,438.9878899996802,4.0,1.0,phase_1,,,,,,,,,,,,,orange,flipped triangle
29.0,1.0,0.5,0.0,3.0,3.0,511.9935580000856,4.0,1.0,phase_1,,,,,,,,,,,,,white,circle
218.0,7.0,2.0,1.0,2.0,2.0,352.8111680002439,4.0,1.0,phase_1,,,,,,,,,,,,,orange,flipped triangle
109.0,2.0,1.0,0.0,2.0,2.0,424.4361709997974,4.0,1.0,phase_1,,,,,,,,,,,,,gray,triangle
180.0,7.0,2.0,1.0,3.0,3.0,367.139945999952,4.0,1.0,phase_1,,,,,,,,,,,,,orange,flipped triangle
72.0,1.0,0.5,0.0,2.0,2.0,309.9373059999379,4.0,1.0,phase_1,,,,,,,,,,,,,white,circle
102.0,2.0,1.0,0.0,4.0,4.0,424.0059639996616,4.0,1.0,phase_1,,,,,,,,,,,,,gray,triangle
41.0,5.0,0.5,1.0,2.0,2.0,487.6632729997254,4.0,1.0,phase_1,,,,,,,,,,,,,cyan,square
38.0,5.0,0.5,1.0,4.0,4.0,460.3788869999334,4.0,1.0,phase_1,,,,,,,,,,,,,cyan,square
0.0,3.0,0.0,0.0,2.0,2.0,327.4925850000727,4.0,1.0,phase_1,,,,,,,,,,,,,magenta,cross
221.0,3.0,2.0,0.0,4.0,4.0,299.1871340000216,4.0,1.0,phase_1,,,,,,,,,,,,,magenta,cross
0.0,6.0,0.0,1.0,2.0,2.0,308.0204520001643,4.0,1.0,phase_1,,,,,,,,,,,,,yellow,diamond
221.0,3.0,2.0,0.0,1.0,1.0,242.566669000098,4.0,1.0,phase_1,,,,,,,,,,,,,magenta,cross
409.0,8.0,4.0,1.0,1.0,1.0,246.4190460000281,4.0,1.0,phase_1,,,,,,,,,,,,,blue,I
82.0,6.0,1.0,1.0,1.0,1.0,277.2111520002909,4.0,1.0,phase_1,,,,,,,,,,,,,yellow,diamond
90.0,6.0,1.0,1.0,2.0,2.0,277.5843630001873,4.0,1.0,phase_1,,,,,,,,,,,,,yellow,diamond
377.0,8.0,4.0,1.0,1.0,1.0,361.1944999997831,4.0,1.0,phase_1,,,,,,,,,,,,,blue,I
202.0,3.0,2.0,0.0,3.0,3.0,321.691632999773,4.0,1.0,phase_1,,,,,,,,,,,,,magenta,cross
419.0,8.0,4.0,1.0,2.0,2.0,264.0423030002239,4.0,1.0,phase_1,,,,,,,,,,,,,blue,I
0.0,1.0,0.0,0.0,3.0,3.0,276.7376339998009,4.0,1.0,phase_1,,,,,,,,,,,,,white,circle
30.0,1.0,0.5,0.0,1.0,1.0,285.4485210000348,4.0,1.0,phase_1,,,,,,,,,,,,,white,circle
415.0,4.0,4.0,0.0,2.0,2.0,492.6281620000736,4.0,1.0,phase_1,,,,,,,,,,,,,green,hexagon
109.0,6.0,1.0,1.0,2.0,2.0,319.4100939999771,4.0,1.0,phase_1,,,,,,,,,,,,,yellow,diamond
415.0,8.0,4.0,1.0,4.0,4.0,346.7333379999218,4.0,1.0,phase_1,,,,,,,,,,,,,blue,I
98.0,6.0,1.0,1.0,3.0,3.0,513.0669899999702,4.0,1.0,phase_1,,,,,,,,,,,,,yellow,diamond
0.0,4.0,0.0,0.0,2.0,2.0,340.7939569997325,4.0,1.0,phase_1,,,,,,,,,,,,,green,hexagon
0.0,5.0,0.0,1.0,1.0,1.0,214.1829170000164,4.0,1.0,phase_1,,,,,,,,,,,,,cyan,square
0.0,7.0,0.0,1.0,2.0,2.0,280.3069400001732,4.0,2.0,phase_1,,,,,,,,,,,,,orange,flipped triangle
0.0,4.0,0.0,0.0,2.0,2.0,285.8875659999285,4.0,1.0,phase_1,,,,,,,,,,,,,green,hexagon
0.0,7.0,0.0,1.0,3.0,3.0,464.9205380001149,4.0,1.0,phase_1,,,,,,,,,,,,,orange,flipped triangle
93.0,6.0,1.0,1.0,2.0,2.0,288.9619070001572,4.0,1.0,phase_1,,,,,,,,,,,,,yellow,diamond
207.0,3.0,2.0,0.0,4.0,4.0,284.7755500001767,4.0,1.0,phase_1,,,,,,,,,,,,,magenta,cross
179.0,7.0,2.0,1.0,3.0,3.0,306.8367290002243,4.0,1.0,phase_1,,,,,,,,,,,,,orange,flipped triangle
34.0,1.0,0.5,0.0,2.0,2.0,395.3441929998007,4.0,1.0,phase_1,,,,,,,,,,,,,white,circle
0.0,4.0,0.0,0.0,1.0,1.0,297.2239969999464,4.0,1.0,phase_1,,,,,,,,,,,,,green,hexagon
398.0,4.0,4.0,0.0,2.0,2.0,263.0037320000156,4.0,1.0,phase_1,,,,,,,,,,,,,green,hexagon
56.0,5.0,0.5,1.0,1.0,1.0,190.725478999866,4.0,1.0,phase_1,,,,,,,,,,,,,cyan,square
55.0,5.0,0.5,1.0,2.0,2.0,204.31867900015268,4.0,1.0,phase_1,,,,,,,,,,,,,cyan,square
34.0,5.0,0.5,1.0,1.0,1.0,302.7291299999888,4.0,1.0,phase_1,,,,,,,,,,,,,cyan,square
0.0,3.0,0.0,0.0,1.0,1.0,303.0813129998932,4.0,1.0,phase_1,,,,,,,,,,,,,magenta,cross
72.0,5.0,0.5,1.0,3.0,3.0,295.0443999998242,4.0,1.0,phase_1,,,,,,,,,,,,,cyan,square
111.0,2.0,1.0,0.0,2.0,2.0,223.1200050000552,4.0,1.0,phase_1,,,,,,,,,,,,,gray,triangle
202.0,7.0,2.0,1.0,3.0,3.0,309.6870019999187,4.0,1.0,phase_1,,,,,,,,,,,,,orange,flipped triangle
89.0,6.0,1.0,1.0,2.0,2.0,728.9900699997816,4.0,1.0,phase_1,,,,,,,,,,,,,yellow,diamond
105.0,6.0,1.0,1.0,3.0,3.0,332.1986149999247,4.0,1.0,phase_1,,,,,,,,,,,,,yellow,diamond
94.0,6.0,1.0,1.0,1.0,1.0,268.2050510002227,4.0,1.0,phase_1,,,,,,,,,,,,,yellow,diamond
393.0,4.0,4.0,0.0,2.0,2.0,281.4438700002029,4.0,1.0,phase_1,,,,,,,,,,,,,green,hexagon
181.0,7.0,2.0,1.0,4.0,4.0,479.2140629997448,4.0,1.0,phase_1,,,,,,,,,,,,,orange,flipped triangle
190.0,7.0,2.0,1.0,4.0,4.0,346.8679500001599,4.0,1.0,phase_1,,,,,,,,,,,,,orange,flipped triangle
399.0,4.0,4.0,0.0,4.0,4.0,275.8669499999087,4.0,1.0,phase_1,,,,,,,,,,,,,green,hexagon
96.0,2.0,1.0,0.0,2.0,2.0,375.3402029997232,4.0,1.0,phase_1,,,,,,,,,,,,,gray,triangle
383.0,8.0,4.0,1.0,3.0,3.0,348.3443210002406,4.0,1.0,phase_1,,,,,,,,,,,,,blue,I
0.0,4.0,0.0,0.0,1.0,1.0,372.333880000042,4.0,1.0,phase_1,,,,,,,,,,,,,green,hexagon
38.0,5.0,0.5,1.0,2.0,2.0,339.29676900015687,4.0,1.0,phase_1,,,,,,,,,,,,,cyan,square
83.0,6.0,1.0,1.0,2.0,2.0,315.5035749996386,4.0,1.0,phase_1,,,,,,,,,,,,,yellow,diamond
416.0,8.0,4.0,1.0,1.0,1.0,302.493615000003,4.0,1.0,phase_1,,,,,,,,,,,,,blue,I
85.0,2.0,1.0,0.0,4.0,4.0,440.9982590000254,4.0,1.0,phase_1,,,,,,,,,,,,,gray,triangle
89.0,2.0,1.0,0.0,1.0,1.0,276.8159659999583,4.0,1.0,phase_1,,,,,,,,,,,,,gray,triangle
0.0,2.0,0.0,0.0,4.0,4.0,256.9867330003035,4.0,2.0,phase_1,,,,,,,,,,,,,gray,triangle
78.0,6.0,1.0,1.0,4.0,4.0,262.4019619997852,4.0,1.0,phase_1,,,,,,,,,,,,,yellow,diamond
83.0,2.0,1.0,0.0,4.0,4.0,306.8436610001299,4.0,1.0,phase_1,,,,,,,,,,,,,gray,triangle
401.0,8.0,4.0,1.0,3.0,3.0,358.9927839998381,4.0,1.0,phase_1,,,,,,,,,,,,,blue,I
108.0,6.0,1.0,1.0,3.0,3.0,472.3009469998942,4.0,1.0,phase_1,,,,,,,,,,,,,yellow,diamond
410.0,4.0,4.0,0.0,4.0,4.0,263.3902510001462,4.0,1.0,phase_1,,,,,,,,,,,,,green,hexagon
94.0,2.0,1.0,0.0,1.0,1.0,365.6805139999051,4.0,1.0,phase_1,,,,,,,,,,,,,gray,triangle
222.0,7.0,2.0,1.0,2.0,2.0,701.1749489997783,4.0,1.0,phase_1,,,,,,,,,,,,,orange,flipped triangle
393.0,8.0,4.0,1.0,3.0,3.0,343.9721589998044,4.0,1.0,phase_1,,,,,,,,,,,,,blue,I
186.0,7.0,2.0,1.0,4.0,4.0,273.9689680001902,4.0,1.0,phase_1,,,,,,,,,,,,,orange,flipped triangle
398.0,8.0,4.0,1.0,2.0,2.0,328.673007999896,4.0,1.0,phase_1,,,,,,,,,,,,,blue,I
72.0,1.0,0.5,0.0,4.0,4.0,284.14298699999557,4.0,1.0,phase_1,,,,,,,,,,,,,white,circle
217.0,3.0,2.0,0.0,3.0,3.0,315.764161000061,4.0,1.0,phase_1,,,,,,,,,,,,,magenta,cross
412.0,4.0,4.0,0.0,3.0,3.0,520.6299409996973,4.0,1.0,phase_1,,,,,,,,,,,,,green,hexagon
213.0,3.0,2.0,0.0,1.0,1.0,252.86143599987548,4.0,1.0,phase_1,,,,,,,,,,,,,magenta,cross
400.0,4.0,4.0,0.0,2.0,2.0,268.7626269998873,4.0,1.0,phase_1,,,,,,,,,,,,,green,hexagon
43.0,1.0,0.5,0.0,2.0,2.0,266.8990309998662,4.0,1.0,phase_1,,,,,,,,,,,,,white,circle
387.0,8.0,4.0,1.0,1.0,1.0,267.7753610000764,4.0,1.0,phase_1,,,,,,,,,,,,,blue,I
0.0,6.0,0.0,1.0,2.0,2.0,392.7281290002611,4.0,1.0,phase_1,,,,,,,,,,,,,yellow,diamond
0.0,1.0,0.0,0.0,2.0,2.0,326.4883659999213,4.0,1.0,phase_1,,,,,,,,,,,,,white,circle
0.0,6.0,0.0,1.0,4.0,4.0,322.3924680000891,4.0,1.0,phase_1,,,,,,,,,,,,,yellow,diamond
406.0,4.0,4.0,0.0,1.0,1.0,313.6084519996984,4.0,1.0,phase_1,,,,,,,,,,,,,green,hexagon
198.0,3.0,2.0,0.0,4.0,4.0,272.851816000184,4.0,1.0,phase_1,,,,,,,,,,,,,magenta,cross
213.0,7.0,2.0,1.0,3.0,3.0,383.6345660001825,4.0,1.0,phase_1,,,,,,,,,,,,,orange,flipped triangle
92.0,6.0,1.0,1.0,4.0,4.0,414.6827590002431,4.0,1.0,phase_1,,,,,,,,,,,,,yellow,diamond
0.0,8.0,4.0,1.0,5.0,5.0,594.2728100003478,1.0,1.0,phase_2,go,250.0,250.0,1.0,,,,,,,,,blue,I
0.0,3.0,2.0,0.0,5.0,5.0,336.5107519998673,1.0,1.0,phase_2,go,250.0,250.0,1.0,,,,,,,,,magenta,cross
0.0,1.0,0.5,0.0,6.0,6.0,564.0947260003486,1.0,1.0,phase_2,go,250.0,250.0,1.0,,,,,,,,,white,circle
0.0,2.0,1.0,0.0,5.0,5.0,651.7910889997438,1.0,1.0,phase_2,go,250.0,250.0,1.0,,,,,,,,,gray,triangle
0.0,3.0,2.0,0.0,6.0,6.0,329.494903000068,1.0,1.0,phase_2,go,250.0,250.0,1.0,,,,,,,,,magenta,cross
0.0,6.0,1.0,1.0,5.0,5.0,489.1524350000509,1.0,1.0,phase_2,go,250.0,250.0,1.0,,,,,,,,,yellow,diamond
0.0,5.0,0.5,1.0,5.0,5.0,400.3389579997929,1.0,1.0,phase_2,stop,250.0,250.0,3.0,,,,,,,,,cyan,square
0.0,2.0,1.0,0.0,6.0,6.0,351.3194890001614,1.0,1.0,phase_2,go,200.0,250.0,1.0,,,,,,,,,gray,triangle
0.0,6.0,1.0,1.0,5.0,0.0,0.0,1.0,1.0,phase_2,stop,200.0,250.0,4.0,,,,,,,,,yellow,diamond
0.0,2.0,1.0,0.0,5.0,5.0,392.1615740000561,1.0,1.0,phase_2,go,250.0,250.0,1.0,,,,,,,,,gray,triangle
0.0,7.0,2.0,1.0,6.0,0.0,0.0,1.0,1.0,phase_2,stop,250.0,250.0,4.0,,,,,,,,,orange,flipped triangle
0.0,7.0,2.0,1.0,6.0,0.0,0.0,1.0,1.0,phase_2,stop,250.0,300.0,4.0,,,,,,,,,orange,flipped triangle
0.0,1.0,0.5,0.0,5.0,5.0,662.7406420002444,1.0,1.0,phase_2,go,250.0,350.0,1.0,,,,,,,,,white,circle
0.0,5.0,0.5,1.0,6.0,0.0,0.0,1.0,1.0,phase_2,stop,250.0,350.0,4.0,,,,,,,,,cyan,square
0.0,2.0,1.0,0.0,6.0,6.0,1093.7040150001849,1.0,1.0,phase_2,go,250.0,400.0,1.0,,,,,,,,,gray,triangle
0.0,6.0,1.0,1.0,6.0,0.0,0.0,1.0,1.0,phase_2,stop,250.0,400.0,4.0,,,,,,,,,yellow,diamond
0.0,7.0,2.0,1.0,6.0,6.0,632.2864190001383,1.0,1.0,phase_2,stop,250.0,450.0,3.0,,,,,,,,,orange,flipped triangle
0.0,1.0,0.5,0.0,6.0,6.0,707.3221680002462,1.0,1.0,phase_2,go,250.0,400.0,1.0,,,,,,,,,white,circle
0.0,6.0,1.0,1.0,6.0,0.0,0.0,1.0,1.0,phase_2,stop,250.0,400.0,4.0,,,,,,,,,yellow,diamond
0.0,7.0,2.0,1.0,5.0,5.0,691.9274520000727,1.0,1.0,phase_2,go,250.0,450.0,1.0,,,,,,,,,orange,flipped triangle
0.0,2.0,1.0,0.0,5.0,5.0,426.1298979999992,1.0,1.0,phase_2,go,250.0,450.0,1.0,,,,,,,,,gray,triangle
0.0,3.0,2.0,0.0,6.0,6.0,730.8875469998384,1.0,1.0,phase_2,go,250.0,450.0,1.0,,,,,,,,,magenta,cross
0.0,2.0,1.0,0.0,5.0,5.0,660.5025899998509,1.0,1.0,phase_2,go,250.0,450.0,1.0,,,,,,,,,gray,triangle
0.0,1.0,0.5,0.0,6.0,6.0,514.2314009999609,1.0,1.0,phase_2,go,250.0,450.0,1.0,,,,,,,,,white,circle
0.0,4.0,4.0,0.0,6.0,6.0,407.4960409998311,1.0,1.0,phase_2,go,250.0,450.0,1.0,,,,,,,,,green,hexagon
0.0,6.0,1.0,1.0,6.0,0.0,0.0,1.0,1.0,phase_2,stop,250.0,450.0,4.0,,,,,,,,,yellow,diamond
0.0,8.0,4.0,1.0,6.0,6.0,669.9251259997254,1.0,1.0,phase_2,stop,250.0,500.0,3.0,,,,,,,,,blue,I
0.0,2.0,1.0,0.0,6.0,6.0,719.3585210002311,1.0,1.0,phase_2,go,250.0,450.0,1.0,,,,,,,,,gray,triangle
0.0,4.0,4.0,0.0,6.0,6.0,344.8590129996773,1.0,1.0,phase_2,go,250.0,450.0,1.0,,,,,,,,,green,hexagon
0.0,5.0,0.5,1.0,5.0,0.0,0.0,1.0,1.0,phase_2,stop,250.0,450.0,4.0,,,,,,,,,cyan,square
0.0,3.0,2.0,0.0,5.0,5.0,530.5828000000474,1.0,1.0,phase_2,go,300.0,450.0,1.0,,,,,,,,,magenta,cross
0.0,1.0,0.5,0.0,5.0,5.0,462.8236749999814,1.0,1.0,phase_2,go,300.0,450.0,1.0,,,,,,,,,white,circle
0.0,6.0,1.0,1.0,5.0,0.0,0.0,1.0,1.0,phase_2,stop,300.0,450.0,4.0,,,,,,,,,yellow,diamond
0.0,6.0,1.0,1.0,5.0,0.0,0.0,1.0,1.0,phase_2,stop,350.0,450.0,4.0,,,,,,,,,yellow,diamond
0.0,1.0,0.5,0.0,6.0,6.0,621.7771270003141,1.0,1.0,phase_2,go,400.0,450.0,1.0,,,,,,,,,white,circle
0.0,5.0,0.5,1.0,5.0,5.0,623.1025139995836,1.0,1.0,phase_2,go,400.0,450.0,1.0,,,,,,,,,cyan,square
0.0,1.0,0.5,0.0,6.0,6.0,369.5790379997561,2.0,1.0,phase_2,go,400.0,450.0,1.0,,,,,,,,,white,circle
0.0,3.0,2.0,0.0,6.0,6.0,460.9856419997413,2.0,1.0,phase_2,go,400.0,450.0,1.0,,,,,,,,,magenta,cross
0.0,1.0,0.5,0.0,5.0,5.0,364.9503430001459,2.0,1.0,phase_2,go,400.0,450.0,1.0,,,,,,,,,white,circle
0.0,7.0,2.0,1.0,5.0,5.0,451.9203250001737,2.0,1.0,phase_2,stop,400.0,450.0,3.0,,,,,,,,,orange,flipped triangle
0.0,7.0,2.0,1.0,6.0,0.0,0.0,2.0,1.0,phase_2,stop,350.0,450.0,4.0,,,,,,,,,orange,flipped triangle
0.0,6.0,1.0,1.0,6.0,6.0,622.5353989998439,2.0,1.0,phase_2,go,350.0,500.0,1.0,,,,,,,,,yellow,diamond
0.0,7.0,2.0,1.0,5.0,5.0,361.0615100001269,2.0,1.0,phase_2,go,350.0,500.0,1.0,,,,,,,,,orange,flipped triangle
0.0,4.0,4.0,0.0,6.0,6.0,527.8507640000498,2.0,1.0,phase_2,go,350.0,500.0,1.0,,,,,,,,,green,hexagon
0.0,8.0,4.0,1.0,5.0,5.0,353.1783179996637,2.0,1.0,phase_2,go,350.0,500.0,1.0,,,,,,,,,blue,I
0.0,6.0,1.0,1.0,5.0,0.0,0.0,2.0,1.0,phase_2,stop,350.0,500.0,4.0,,,,,,,,,yellow,diamond
0.0,1.0,0.5,0.0,5.0,5.0,544.4700100001683,2.0,1.0,phase_2,go,400.0,500.0,1.0,,,,,,,,,white,circle
0.0,5.0,0.5,1.0,6.0,0.0,0.0,2.0,1.0,phase_2,stop,400.0,500.0,4.0,,,,,,,,,cyan,square
0.0,4.0,4.0,0.0,6.0,6.0,521.2056010000197,2.0,1.0,phase_2,go,400.0,550.0,1.0,,,,,,,,,green,hexagon
0.0,6.0,1.0,1.0,6.0,6.0,324.917089000337,2.0,1.0,phase_2,stop,400.0,550.0,3.0,,,,,,,,,yellow,diamond
0.0,1.0,0.5,0.0,5.0,5.0,438.0320730001585,2.0,1.0,phase_2,go,400.0,500.0,1.0,,,,,,,,,white,circle
0.0,6.0,1.0,1.0,6.0,6.0,551.321838000149,2.0,1.0,phase_2,stop,400.0,500.0,3.0,,,,,,,,,yellow,diamond
0.0,5.0,0.5,1.0,5.0,5.0,833.8543149998259,2.0,1.0,phase_2,go,400.0,450.0,1.0,,,,,,,,,cyan,square
0.0,6.0,1.0,1.0,5.0,5.0,533.5655779999797,2.0,1.0,phase_2,stop,400.0,450.0,3.0,,,,,,,,,yellow,diamond
0.0,8.0,4.0,1.0,6.0,0.0,0.0,2.0,1.0,phase_2,stop,350.0,450.0,4.0,,,,,,,,,blue,I
0.0,3.0,2.0,0.0,5.0,5.0,712.4946829999317,2.0,1.0,phase_2,go,350.0,500.0,1.0,,,,,,,,,magenta,cross
0.0,4.0,4.0,0.0,6.0,6.0,581.5596990000813,2.0,1.0,phase_2,go,350.0,500.0,1.0,,,,,,,,,green,hexagon
0.0,1.0,0.5,0.0,5.0,5.0,643.2542529996681,2.0,1.0,phase_2,go,350.0,500.0,1.0,,,,,,,,,white,circle
0.0,5.0,0.5,1.0,5.0,5.0,526.6808490000585,2.0,1.0,phase_2,go,350.0,500.0,1.0,,,,,,,,,cyan,square
0.0,1.0,0.5,0.0,6.0,6.0,277.8427579996787,2.0,1.0,phase_2,go,350.0,500.0,1.0,,,,,,,,,white,circle
0.0,5.0,0.5,1.0,5.0,5.0,261.927433999972,2.0,1.0,phase_2,stop,350.0,500.0,3.0,,,,,,,,,cyan,square
0.0,7.0,2.0,1.0,6.0,6.0,546.7754270002843,2.0,1.0,phase_2,stop,300.0,500.0,3.0,,,,,,,,,orange,flipped triangle
0.0,2.0,1.0,0.0,5.0,5.0,605.1135269999577,2.0,1.0,phase_2,go,300.0,450.0,1.0,,,,,,,,,gray,triangle
0.0,1.0,0.5,0.0,5.0,5.0,586.9978280002215,2.0,1.0,phase_2,go,300.0,450.0,1.0,,,,,,,,,white,circle
0.0,8.0,4.0,1.0,5.0,5.0,563.974799999869,2.0,1.0,phase_2,go,300.0,450.0,1.0,,,,,,,,,blue,I
0.0,5.0,0.5,1.0,5.0,0.0,0.0,2.0,1.0,phase_2,stop,300.0,450.0,4.0,,,,,,,,,cyan,square
0.0,4.0,4.0,0.0,6.0,6.0,1136.8207219998112,2.0,1.0,phase_2,go,350.0,450.0,1.0,,,,,,,,,green,hexagon
0.0,4.0,4.0,0.0,5.0,5.0,310.13201699988707,2.0,1.0,phase_2,go,350.0,450.0,1.0,,,,,,,,,green,hexagon
0.0,2.0,1.0,0.0,6.0,6.0,611.8757159997585,2.0,1.0,phase_2,go,350.0,450.0,1.0,,,,,,,,,gray,triangle
0.0,6.0,1.0,1.0,5.0,0.0,0.0,2.0,1.0,phase_2,stop,350.0,450.0,4.0,,,,,,,,,yellow,diamond
0.0,4.0,4.0,0.0,5.0,5.0,643.1223150002552,2.0,1.0,phase_2,go,400.0,450.0,1.0,,,,,,,,,green,hexagon
0.0,4.0,4.0,0.0,5.0,5.0,404.3449050000163,2.0,1.0,phase_2,go,400.0,450.0,1.0,,,,,,,,,green,hexagon
0.0,3.0,2.0,0.0,5.0,5.0,781.6655020001235,3.0,1.0,phase_2,go,400.0,450.0,1.0,,,,,,,,,magenta,cross
0.0,8.0,4.0,1.0,5.0,5.0,397.1792079996703,3.0,1.0,phase_2,go,400.0,450.0,1.0,,,,,,,,,blue,I
0.0,7.0,2.0,1.0,5.0,5.0,343.1725989998995,3.0,1.0,phase_2,stop,400.0,450.0,3.0,,,,,,,,,orange,flipped triangle
0.0,1.0,0.5,0.0,6.0,6.0,572.077494000041,3.0,1.0,phase_2,go,350.0,450.0,1.0,,,,,,,,,white,circle
0.0,7.0,2.0,1.0,5.0,5.0,324.7739389998969,3.0,1.0,phase_2,stop,350.0,450.0,3.0,,,,,,,,,orange,flipped triangle
0.0,1.0,0.5,0.0,5.0,5.0,554.7248339998987,3.0,1.0,phase_2,go,300.0,450.0,1.0,,,,,,,,,white,circle
0.0,6.0,1.0,1.0,6.0,6.0,354.618377999941,3.0,1.0,phase_2,stop,300.0,450.0,3.0,,,,,,,,,yellow,diamond
0.0,2.0,1.0,0.0,6.0,6.0,774.6379109998998,3.0,1.0,phase_2,go,300.0,400.0,1.0,,,,,,,,,gray,triangle
0.0,4.0,4.0,0.0,6.0,6.0,532.9783379997934,3.0,1.0,phase_2,go,300.0,400.0,1.0,,,,,,,,,green,hexagon
0.0,5.0,0.5,1.0,6.0,6.0,467.1010349998141,3.0,1.0,phase_2,stop,300.0,400.0,3.0,,,,,,,,,cyan,square
0.0,8.0,4.0,1.0,5.0,0.0,0.0,3.0,1.0,phase_2,stop,300.0,350.0,4.0,,,,,,,,,blue,I
0.0,2.0,1.0,0.0,6.0,6.0,729.1275419997874,3.0,1.0,phase_2,go,350.0,350.0,1.0,,,,,,,,,gray,triangle
0.0,8.0,4.0,1.0,6.0,0.0,0.0,3.0,1.0,phase_2,stop,350.0,350.0,4.0,,,,,,,,,blue,I
0.0,3.0,2.0,0.0,6.0,6.0,706.6139689995907,3.0,1.0,phase_2,go,350.0,400.0,1.0,,,,,,,,,magenta,cross
0.0,4.0,4.0,0.0,5.0,5.0,489.03853599995267,3.0,1.0,phase_2,go,350.0,400.0,1.0,,,,,,,,,green,hexagon
0.0,4.0,4.0,0.0,5.0,5.0,410.3470569998535,3.0,1.0,phase_2,go,350.0,400.0,1.0,,,,,,,,,green,hexagon
0.0,8.0,4.0,1.0,5.0,5.0,386.3452169998709,3.0,1.0,phase_2,stop,350.0,400.0,3.0,,,,,,,,,blue,I
0.0,4.0,4.0,0.0,6.0,6.0,341.5165679998608,3.0,1.0,phase_2,go,300.0,400.0,1.0,,,,,,,,,green,hexagon
0.0,5.0,0.5,1.0,6.0,6.0,483.3577069998682,3.0,1.0,phase_2,stop,300.0,400.0,3.0,,,,,,,,,cyan,square
0.0,6.0,1.0,1.0,6.0,0.0,0.0,3.0,1.0,phase_2,stop,300.0,350.0,4.0,,,,,,,,,yellow,diamond
0.0,1.0,0.5,0.0,6.0,6.0,613.4068450000996,3.0,1.0,phase_2,go,300.0,400.0,1.0,,,,,,,,,white,circle
0.0,1.0,0.5,0.0,5.0,5.0,653.8001419999091,3.0,1.0,phase_2,go,300.0,400.0,1.0,,,,,,,,,white,circle
0.0,6.0,1.0,1.0,5.0,0.0,0.0,3.0,1.0,phase_2,stop,300.0,400.0,4.0,,,,,,,,,yellow,diamond
0.0,4.0,4.0,0.0,5.0,5.0,606.9471169998906,3.0,1.0,phase_2,go,350.0,400.0,1.0,,,,,,,,,green,hexagon
0.0,4.0,4.0,0.0,5.0,5.0,610.1581150001039,3.0,1.0,phase_2,go,350.0,400.0,1.0,,,,,,,,,green,hexagon
0.0,3.0,2.0,0.0,6.0,6.0,562.7532280000196,3.0,1.0,phase_2,go,350.0,400.0,1.0,,,,,,,,,magenta,cross
0.0,8.0,4.0,1.0,5.0,5.0,302.5659979998636,3.0,1.0,phase_2,go,350.0,400.0,1.0,,,,,,,,,blue,I
0.0,1.0,0.5,0.0,6.0,6.0,527.8785880000214,3.0,1.0,phase_2,go,350.0,400.0,1.0,,,,,,,,,white,circle
0.0,8.0,4.0,1.0,5.0,5.0,524.5132609998109,3.0,1.0,phase_2,go,350.0,400.0,1.0,,,,,,,,,blue,I
0.0,5.0,0.5,1.0,5.0,5.0,502.14531099982196,3.0,1.0,phase_2,stop,350.0,400.0,3.0,,,,,,,,,cyan,square
0.0,8.0,4.0,1.0,6.0,0.0,0.0,3.0,1.0,phase_2,stop,300.0,400.0,4.0,,,,,,,,,blue,I
0.0,7.0,2.0,1.0,5.0,5.0,342.991093999899,3.0,1.0,phase_2,stop,300.0,450.0,3.0,,,,,,,,,orange,flipped triangle
0.0,3.0,2.0,0.0,6.0,6.0,308.5914299999786,3.0,1.0,phase_2,go,250.0,450.0,1.0,,,,,,,,,magenta,cross
0.0,6.0,1.0,1.0,5.0,0.0,0.0,3.0,1.0,phase_2,stop,250.0,450.0,4.0,,,,,,,,,yellow,diamond
0.0,1.0,0.5,0.0,6.0,6.0,573.1006870000783,3.0,1.0,phase_2,go,300.0,450.0,1.0,,,,,,,,,white,circle
0.0,8.0,4.0,1.0,6.0,6.0,510.6119720003335,3.0,1.0,phase_2,stop,300.0,450.0,3.0,,,,,,,,,blue,I
0.0,1.0,0.5,0.0,6.0,0.0,0.0,4.0,1.0,phase_2,go,300.0,400.0,5.0,,,,,,,,,white,circle
0.0,6.0,1.0,1.0,6.0,6.0,434.4794389999151,4.0,1.0,phase_2,stop,300.0,400.0,3.0,,,,,,,,,yellow,diamond
0.0,3.0,2.0,0.0,6.0,6.0,302.3479809999116,4.0,1.0,phase_2,go,300.0,350.0,1.0,,,,,,,,,magenta,cross
0.0,7.0,2.0,1.0,5.0,5.0,262.3155090000182,4.0,1.0,phase_2,stop,300.0,350.0,3.0,,,,,,,,,orange,flipped triangle
0.0,8.0,4.0,1.0,5.0,5.0,393.9065519998621,4.0,1.0,phase_2,stop,250.0,350.0,3.0,,,,,,,,,blue,I
0.0,7.0,2.0,1.0,5.0,0.0,0.0,4.0,1.0,phase_2,stop,200.0,350.0,4.0,,,,,,,,,orange,flipped triangle
0.0,4.0,4.0,0.0,6.0,6.0,551.6342569999324,4.0,1.0,phase_2,go,250.0,350.0,1.0,,,,,,,,,green,hexagon
0.0,2.0,1.0,0.0,5.0,5.0,755.2190230003362,4.0,1.0,phase_2,go,250.0,350.0,1.0,,,,,,,,,gray,triangle
0.0,1.0,0.5,0.0,5.0,5.0,294.4997969998439,4.0,1.0,phase_2,go,250.0,350.0,1.0,,,,,,,,,white,circle
0.0,2.0,1.0,0.0,6.0,6.0,317.3088349999489,4.0,1.0,phase_2,go,250.0,350.0,1.0,,,,,,,,,gray,triangle
0.0,3.0,2.0,0.0,5.0,5.0,307.2312639997108,4.0,1.0,phase_2,go,250.0,350.0,1.0,,,,,,,,,magenta,cross
0.0,1.0,0.5,0.0,6.0,6.0,289.9720890000026,4.0,1.0,phase_2,go,250.0,350.0,1.0,,,,,,,,,white,circle
0.0,1.0,0.5,0.0,6.0,6.0,277.8487629998381,4.0,1.0,phase_2,go,250.0,350.0,1.0,,,,,,,,,white,circle
0.0,2.0,1.0,0.0,5.0,5.0,368.7054250003712,4.0,1.0,phase_2,go,250.0,350.0,1.0,,,,,,,,,gray,triangle
0.0,6.0,1.0,1.0,5.0,5.0,345.0584759998492,4.0,1.0,phase_2,stop,250.0,350.0,3.0,,,,,,,,,yellow,diamond
0.0,5.0,0.5,1.0,6.0,0.0,0.0,4.0,1.0,phase_2,stop,200.0,350.0,4.0,,,,,,,,,cyan,square
0.0,5.0,0.5,1.0,5.0,0.0,0.0,4.0,1.0,phase_2,stop,200.0,400.0,4.0,,,,,,,,,cyan,square
0.0,2.0,1.0,0.0,5.0,5.0,606.4673519999815,4.0,1.0,phase_2,go,250.0,400.0,1.0,,,,,,,,,gray,triangle
0.0,2.0,1.0,0.0,5.0,5.0,531.7972389998431,4.0,1.0,phase_2,go,250.0,400.0,1.0,,,,,,,,,gray,triangle
0.0,3.0,2.0,0.0,5.0,5.0,282.4682460000076,4.0,1.0,phase_2,go,250.0,400.0,1.0,,,,,,,,,magenta,cross
0.0,1.0,0.5,0.0,5.0,5.0,404.3724810003368,4.0,1.0,phase_2,go,250.0,400.0,1.0,,,,,,,,,white,circle
0.0,5.0,0.5,1.0,6.0,0.0,0.0,4.0,1.0,phase_2,stop,250.0,400.0,4.0,,,,,,,,,cyan,square
0.0,6.0,1.0,1.0,6.0,6.0,686.8863700001384,4.0,1.0,phase_2,go,250.0,450.0,1.0,,,,,,,,,yellow,diamond
0.0,5.0,0.5,1.0,6.0,6.0,524.6574909997435,4.0,1.0,phase_2,stop,250.0,450.0,3.0,,,,,,,,,cyan,square
0.0,8.0,4.0,1.0,6.0,0.0,0.0,4.0,1.0,phase_2,stop,250.0,400.0,4.0,,,,,,,,,blue,I
0.0,3.0,2.0,0.0,6.0,6.0,705.5577049995918,4.0,1.0,phase_2,go,250.0,450.0,1.0,,,,,,,,,magenta,cross
0.0,8.0,4.0,1.0,6.0,0.0,0.0,4.0,1.0,phase_2,stop,250.0,450.0,4.0,,,,,,,,,blue,I
0.0,4.0,4.0,0.0,5.0,5.0,783.5519680002108,4.0,1.0,phase_2,go,250.0,500.0,1.0,,,,,,,,,green,hexagon
0.0,8.0,4.0,1.0,6.0,6.0,545.1477279998471,4.0,1.0,phase_2,stop,250.0,500.0,3.0,,,,,,,,,blue,I
0.0,5.0,0.5,1.0,6.0,6.0,771.0386280000421,4.0,1.0,phase_2,go,250.0,450.0,1.0,,,,,,,,,cyan,square
0.0,5.0,0.5,1.0,5.0,5.0,251.1771099998441,4.0,1.0,phase_2,go,250.0,450.0,1.0,,,,,,,,,cyan,square
0.0,7.0,2.0,1.0,6.0,6.0,547.8753580000557,4.0,1.0,phase_2,stop,250.0,450.0,3.0,,,,,,,,,orange,flipped triangle
0.0,1.0,0.5,0.0,6.0,6.0,720.4132159999972,4.0,1.0,phase_2,go,250.0,400.0,1.0,,,,,,,,,white,circle
0.0,2.0,1.0,0.0,6.0,6.0,900.5977599999824,4.0,1.0,phase_2,go,250.0,400.0,1.0,,,,,,,,,gray,triangle
0.0,4.0,4.0,0.0,5.0,5.0,323.2448409999051,4.0,1.0,phase_2,go,250.0,400.0,1.0,,,,,,,,,green,hexagon
0.0,8.0,4.0,1.0,5.0,0.0,0.0,4.0,1.0,phase_2,stop,250.0,400.0,4.0,,,,,,,,,blue,I
0.0,7.0,2.0,1.0,5.0,5.0,1045.7320589998744,5.0,1.0,phase_2,stop,300.0,400.0,3.0,,,,,,,,,orange,flipped triangle
0.0,6.0,1.0,1.0,5.0,0.0,0.0,5.0,1.0,phase_2,stop,250.0,400.0,4.0,,,,,,,,,yellow,diamond
0.0,2.0,1.0,0.0,6.0,6.0,407.6029469997593,5.0,1.0,phase_2,go,300.0,400.0,1.0,,,,,,,,,gray,triangle
0.0,4.0,4.0,0.0,5.0,5.0,281.5536120001525,5.0,1.0,phase_2,go,300.0,400.0,1.0,,,,,,,,,green,hexagon
0.0,1.0,0.5,0.0,5.0,5.0,376.8842980002773,5.0,1.0,phase_2,go,300.0,400.0,1.0,,,,,,,,,white,circle
0.0,3.0,2.0,0.0,6.0,6.0,283.2242920003409,5.0,1.0,phase_2,go,300.0,400.0,1.0,,,,,,,,,magenta,cross
0.0,3.0,2.0,0.0,6.0,6.0,874.7478569998748,5.0,1.0,phase_2,go,300.0,400.0,1.0,,,,,,,,,magenta,cross
0.0,6.0,1.0,1.0,6.0,6.0,351.795989999573,5.0,1.0,phase_2,stop,300.0,400.0,3.0,,,,,,,,,yellow,diamond
0.0,4.0,4.0,0.0,6.0,6.0,849.9094829999194,5.0,1.0,phase_2,go,300.0,350.0,1.0,,,,,,,,,green,hexagon
0.0,5.0,0.5,1.0,6.0,6.0,379.0376990000368,5.0,1.0,phase_2,go,300.0,350.0,1.0,,,,,,,,,cyan,square
0.0,6.0,1.0,1.0,5.0,5.0,267.6153990000784,5.0,1.0,phase_2,stop,300.0,350.0,3.0,,,,,,,,,yellow,diamond
0.0,7.0,2.0,1.0,6.0,6.0,526.9740349999665,5.0,1.0,phase_2,go,250.0,350.0,1.0,,,,,,,,,orange,flipped triangle
0.0,7.0,2.0,1.0,6.0,6.0,389.8920240003463,5.0,1.0,phase_2,stop,250.0,350.0,3.0,,,,,,,,,orange,flipped triangle
0.0,2.0,1.0,0.0,5.0,5.0,648.008210000171,5.0,1.0,phase_2,go,250.0,300.0,1.0,,,,,,,,,gray,triangle
0.0,7.0,2.0,1.0,5.0,0.0,0.0,5.0,1.0,phase_2,stop,250.0,300.0,4.0,,,,,,,,,orange,flipped triangle
0.0,2.0,1.0,0.0,5.0,5.0,495.2493139999205,5.0,1.0,phase_2,go,300.0,300.0,1.0,,,,,,,,,gray,triangle
0.0,3.0,2.0,0.0,5.0,5.0,410.443277000013,5.0,1.0,phase_2,go,300.0,300.0,1.0,,,,,,,,,magenta,cross
0.0,6.0,1.0,1.0,6.0,6.0,353.1821550000131,5.0,1.0,phase_2,go,300.0,300.0,1.0,,,,,,,,,yellow,diamond
0.0,2.0,1.0,0.0,5.0,5.0,253.4697389996836,5.0,1.0,phase_2,go,300.0,300.0,1.0,,,,,,,,,gray,triangle
0.0,5.0,0.5,1.0,6.0,6.0,339.2627279999942,5.0,1.0,phase_2,stop,300.0,300.0,3.0,,,,,,,,,cyan,square
0.0,7.0,2.0,1.0,6.0,0.0,0.0,5.0,1.0,phase_2,stop,300.0,250.0,4.0,,,,,,,,,orange,flipped triangle
0.0,3.0,2.0,0.0,6.0,6.0,555.2654909997727,5.0,1.0,phase_2,go,300.0,300.0,1.0,,,,,,,,,magenta,cross
0.0,1.0,0.5,0.0,5.0,5.0,300.3768939997826,5.0,1.0,phase_2,go,300.0,300.0,1.0,,,,,,,,,white,circle
0.0,5.0,0.5,1.0,6.0,6.0,263.7769030006893,5.0,1.0,phase_2,stop,300.0,300.0,3.0,,,,,,,,,cyan,square
0.0,8.0,4.0,1.0,6.0,0.0,0.0,5.0,1.0,phase_2,stop,300.0,250.0,4.0,,,,,,,,,blue,I
0.0,6.0,1.0,1.0,6.0,0.0,0.0,5.0,1.0,phase_2,stop,300.0,300.0,4.0,,,,,,,,,yellow,diamond
0.0,4.0,4.0,0.0,6.0,6.0,586.0786829998688,5.0,1.0,phase_2,go,300.0,350.0,1.0,,,,,,,,,green,hexagon
0.0,3.0,2.0,0.0,6.0,6.0,556.1236920002557,5.0,1.0,phase_2,go,300.0,350.0,1.0,,,,,,,,,magenta,cross
0.0,7.0,2.0,1.0,6.0,6.0,626.400862999617,5.0,1.0,phase_2,go,300.0,350.0,1.0,,,,,,,,,orange,flipped triangle
0.0,2.0,1.0,0.0,5.0,5.0,338.1521750006868,5.0,1.0,phase_2,go,300.0,350.0,1.0,,,,,,,,,gray,triangle
0.0,5.0,0.5,1.0,6.0,6.0,382.4266490000809,5.0,1.0,phase_2,stop,300.0,350.0,3.0,,,,,,,,,cyan,square
0.0,5.0,0.5,1.0,6.0,6.0,627.8278970003157,5.0,1.0,phase_2,go,300.0,300.0,1.0,,,,,,,,,cyan,square
0.0,1.0,0.5,0.0,5.0,5.0,560.9859769992909,5.0,1.0,phase_2,go,300.0,300.0,1.0,,,,,,,,,white,circle
0.0,8.0,4.0,1.0,5.0,5.0,388.4221060006894,5.0,1.0,phase_2,stop,300.0,300.0,3.0,,,,,,,,,blue,I
0.0,3.0,2.0,0.0,5.0,5.0,648.5383659992294,5.0,1.0,phase_2,go,250.0,300.0,1.0,,,,,,,,,magenta,cross
0.0,8.0,4.0,1.0,5.0,5.0,358.9641139997184,5.0,1.0,phase_2,stop,250.0,300.0,3.0,,,,,,,,,blue,I
0.0,2.0,1.0,0.0,5.0,5.0,521.7850019998878,6.0,1.0,phase_2,go,200.0,300.0,1.0,,,,,,,,,gray,triangle
0.0,5.0,0.5,1.0,5.0,5.0,272.1750529999553,6.0,1.0,phase_2,stop,200.0,300.0,3.0,,,,,,,,,cyan,square
0.0,5.0,0.5,1.0,6.0,6.0,297.3184979991856,6.0,1.0,phase_2,stop,150.0,300.0,3.0,,,,,,,,,cyan,square
0.0,7.0,2.0,1.0,6.0,0.0,0.0,6.0,1.0,phase_2,stop,150.0,250.0,4.0,,,,,,,,,orange,flipped triangle
0.0,4.0,4.0,0.0,5.0,5.0,510.2389949997814,6.0,1.0,phase_2,go,150.0,300.0,1.0,,,,,,,,,green,hexagon
0.0,1.0,0.5,0.0,5.0,5.0,557.3960540004919,6.0,1.0,phase_2,go,150.0,300.0,1.0,,,,,,,,,white,circle
0.0,4.0,4.0,0.0,6.0,6.0,284.761005999826,6.0,1.0,phase_2,go,150.0,300.0,1.0,,,,,,,,,green,hexagon
0.0,4.0,4.0,0.0,6.0,6.0,275.6014309998136,6.0,1.0,phase_2,go,150.0,300.0,1.0,,,,,,,,,green,hexagon
0.0,5.0,0.5,1.0,5.0,5.0,273.1582379992687,6.0,1.0,phase_2,stop,150.0,300.0,3.0,,,,,,,,,cyan,square
0.0,2.0,1.0,0.0,5.0,5.0,657.3006360004001,6.0,1.0,phase_2,go,100.0,300.0,1.0,,,,,,,,,gray,triangle
0.0,8.0,4.0,1.0,6.0,6.0,272.9480610005339,6.0,1.0,phase_2,go,100.0,300.0,1.0,,,,,,,,,blue,I
0.0,1.0,0.5,0.0,6.0,6.0,387.830077000217,6.0,1.0,phase_2,go,100.0,300.0,1.0,,,,,,,,,white,circle
0.0,8.0,4.0,1.0,5.0,5.0,344.9307869996119,6.0,1.0,phase_2,stop,100.0,300.0,3.0,,,,,,,,,blue,I
0.0,8.0,4.0,1.0,5.0,0.0,0.0,6.0,1.0,phase_2,stop,50.0,300.0,4.0,,,,,,,,,blue,I
0.0,6.0,1.0,1.0,6.0,0.0,0.0,6.0,1.0,phase_2,stop,100.0,300.0,4.0,,,,,,,,,yellow,diamond
0.0,7.0,2.0,1.0,6.0,6.0,752.9449409994413,6.0,1.0,phase_2,go,100.0,350.0,1.0,,,,,,,,,orange,flipped triangle
0.0,5.0,0.5,1.0,5.0,0.0,0.0,6.0,1.0,phase_2,stop,100.0,350.0,4.0,,,,,,,,,cyan,square
0.0,7.0,2.0,1.0,5.0,5.0,590.5992240004707,6.0,1.0,phase_2,go,150.0,350.0,1.0,,,,,,,,,orange,flipped triangle
0.0,4.0,4.0,0.0,6.0,6.0,597.0620080006483,6.0,1.0,phase_2,go,150.0,350.0,1.0,,,,,,,,,green,hexagon
0.0,2.0,1.0,0.0,6.0,6.0,547.1510280003713,6.0,1.0,phase_2,go,150.0,350.0,1.0,,,,,,,,,gray,triangle
0.0,2.0,1.0,0.0,5.0,5.0,408.1586689999312,6.0,1.0,phase_2,go,150.0,350.0,1.0,,,,,,,,,gray,triangle
0.0,3.0,2.0,0.0,6.0,6.0,271.0717259997182,6.0,1.0,phase_2,go,150.0,350.0,1.0,,,,,,,,,magenta,cross
0.0,8.0,4.0,1.0,5.0,5.0,281.625621000785,6.0,1.0,phase_2,stop,150.0,350.0,3.0,,,,,,,,,blue,I
0.0,7.0,2.0,1.0,5.0,5.0,545.4154170001857,6.0,1.0,phase_2,go,100.0,350.0,1.0,,,,,,,,,orange,flipped triangle
0.0,8.0,4.0,1.0,5.0,5.0,379.1821539998636,6.0,1.0,phase_2,stop,100.0,350.0,3.0,,,,,,,,,blue,I
0.0,4.0,4.0,0.0,5.0,5.0,597.0217310004955,6.0,1.0,phase_2,go,50.0,350.0,1.0,,,,,,,,,green,hexagon
0.0,1.0,0.5,0.0,5.0,5.0,558.283747999667,6.0,1.0,phase_2,go,50.0,350.0,1.0,,,,,,,,,white,circle
0.0,2.0,1.0,0.0,6.0,6.0,400.120526000137,6.0,1.0,phase_2,go,50.0,350.0,1.0,,,,,,,,,gray,triangle
0.0,2.0,1.0,0.0,5.0,5.0,316.3223540004765,6.0,1.0,phase_2,go,50.0,350.0,1.0,,,,,,,,,gray,triangle
0.0,1.0,0.5,0.0,6.0,6.0,320.0391059999674,6.0,1.0,phase_2,go,50.0,350.0,1.0,,,,,,,,,white,circle
0.0,8.0,4.0,1.0,6.0,6.0,393.0300890006037,6.0,1.0,phase_2,stop,50.0,350.0,3.0,,,,,,,,,blue,I
0.0,8.0,4.0,1.0,5.0,5.0,405.106338999758,6.0,1.0,phase_2,stop,50.0,300.0,3.0,,,,,,,,,blue,I
0.0,7.0,2.0,1.0,5.0,0.0,0.0,6.0,1.0,phase_2,stop,0.0,300.0,4.0,,,,,,,,,orange,flipped triangle
0.0,4.0,4.0,0.0,6.0,6.0,557.984113999737,6.0,1.0,phase_2,go,50.0,300.0,1.0,,,,,,,,,green,hexagon
0.0,7.0,2.0,1.0,6.0,6.0,432.1827920002761,6.0,1.0,phase_2,stop,50.0,300.0,3.0,,,,,,,,,orange,flipped triangle
0.0,2.0,1.0,0.0,6.0,6.0,629.0433860003759,6.0,1.0,phase_2,go,50.0,250.0,1.0,,,,,,,,,gray,triangle
0.0,3.0,2.0,0.0,6.0,6.0,510.45086100020853,7.0,1.0,phase_2,go,50.0,250.0,1.0,,,,,,,,,magenta,cross
0.0,5.0,0.5,1.0,6.0,6.0,266.6384389995073,7.0,1.0,phase_2,go,50.0,250.0,1.0,,,,,,,,,cyan,square
0.0,5.0,0.5,1.0,5.0,0.0,0.0,7.0,1.0,phase_2,stop,50.0,250.0,4.0,,,,,,,,,cyan,square
0.0,8.0,4.0,1.0,6.0,0.0,0.0,7.0,1.0,phase_2,stop,100.0,250.0,4.0,,,,,,,,,blue,I
0.0,3.0,2.0,0.0,6.0,6.0,637.8797910001595,7.0,1.0,phase_2,go,100.0,300.0,1.0,,,,,,,,,magenta,cross
0.0,6.0,1.0,1.0,5.0,5.0,519.9500239996269,7.0,1.0,phase_2,go,100.0,300.0,1.0,,,,,,,,,yellow,diamond
0.0,3.0,2.0,0.0,6.0,6.0,415.9548899997389,7.0,1.0,phase_2,go,100.0,300.0,1.0,,,,,,,,,magenta,cross
0.0,6.0,1.0,1.0,5.0,5.0,403.3864809998704,7.0,1.0,phase_2,go,100.0,300.0,1.0,,,,,,,,,yellow,diamond
0.0,4.0,4.0,0.0,5.0,5.0,338.9638919998106,7.0,1.0,phase_2,go,100.0,300.0,1.0,,,,,,,,,green,hexagon
0.0,4.0,4.0,0.0,5.0,5.0,325.0949120001678,7.0,1.0,phase_2,go,100.0,300.0,1.0,,,,,,,,,green,hexagon
0.0,7.0,2.0,1.0,6.0,6.0,268.8489519996437,7.0,1.0,phase_2,go,100.0,300.0,1.0,,,,,,,,,orange,flipped triangle
0.0,4.0,4.0,0.0,5.0,5.0,283.1190130000323,7.0,1.0,phase_2,go,100.0,300.0,1.0,,,,,,,,,green,hexagon
0.0,4.0,4.0,0.0,5.0,5.0,302.5551740001901,7.0,1.0,phase_2,go,100.0,300.0,1.0,,,,,,,,,green,hexagon
0.0,8.0,4.0,1.0,6.0,6.0,294.9139860002105,7.0,1.0,phase_2,stop,100.0,300.0,3.0,,,,,,,,,blue,I
0.0,6.0,1.0,1.0,5.0,0.0,0.0,7.0,1.0,phase_2,stop,100.0,250.0,4.0,,,,,,,,,yellow,diamond
0.0,1.0,0.5,0.0,5.0,5.0,379.4268069996178,7.0,1.0,phase_2,go,150.0,250.0,1.0,,,,,,,,,white,circle
0.0,4.0,4.0,0.0,5.0,5.0,296.1069279999719,7.0,1.0,phase_2,go,150.0,250.0,1.0,,,,,,,,,green,hexagon
0.0,3.0,2.0,0.0,5.0,5.0,277.9129230002581,7.0,1.0,phase_2,go,150.0,250.0,1.0,,,,,,,,,magenta,cross
0.0,1.0,0.5,0.0,6.0,6.0,294.8889990002499,7.0,1.0,phase_2,go,150.0,250.0,1.0,,,,,,,,,white,circle
0.0,8.0,4.0,1.0,6.0,6.0,322.4936739998156,7.0,1.0,phase_2,stop,150.0,250.0,3.0,,,,,,,,,blue,I
0.0,3.0,2.0,0.0,5.0,5.0,355.7987419999335,7.0,1.0,phase_2,go,150.0,200.0,1.0,,,,,,,,,magenta,cross
0.0,8.0,4.0,1.0,6.0,0.0,0.0,7.0,1.0,phase_2,stop,150.0,200.0,4.0,,,,,,,,,blue,I
0.0,3.0,2.0,0.0,5.0,5.0,363.8075850003588,7.0,1.0,phase_2,go,150.0,250.0,1.0,,,,,,,,,magenta,cross
0.0,3.0,2.0,0.0,5.0,5.0,399.8532499999783,7.0,1.0,phase_2,go,150.0,250.0,1.0,,,,,,,,,magenta,cross
0.0,2.0,1.0,0.0,6.0,6.0,632.214780999675,7.0,1.0,phase_2,go,150.0,250.0,1.0,,,,,,,,,gray,triangle
0.0,6.0,1.0,1.0,6.0,6.0,398.0195049998656,7.0,1.0,phase_2,go,150.0,250.0,1.0,,,,,,,,,yellow,diamond
0.0,5.0,0.5,1.0,5.0,5.0,295.7488169995486,7.0,1.0,phase_2,stop,150.0,250.0,3.0,,,,,,,,,cyan,square
0.0,4.0,4.0,0.0,5.0,5.0,513.1783980004911,7.0,1.0,phase_2,go,100.0,250.0,1.0,,,,,,,,,green,hexagon
0.0,8.0,4.0,1.0,6.0,6.0,314.3796410004142,7.0,1.0,phase_2,stop,100.0,250.0,3.0,,,,,,,,,blue,I
0.0,5.0,0.5,1.0,6.0,0.0,0.0,7.0,1.0,phase_2,stop,100.0,200.0,4.0,,,,,,,,,cyan,square
0.0,6.0,1.0,1.0,6.0,0.0,0.0,7.0,1.0,phase_2,stop,100.0,250.0,4.0,,,,,,,,,yellow,diamond
0.0,2.0,1.0,0.0,6.0,6.0,602.9992260000654,7.0,1.0,phase_2,go,100.0,300.0,1.0,,,,,,,,,gray,triangle
0.0,3.0,2.0,0.0,5.0,5.0,551.1684539997077,7.0,1.0,phase_2,go,100.0,300.0,1.0,,,,,,,,,magenta,cross
0.0,6.0,1.0,1.0,6.0,6.0,519.327804000568,7.0,1.0,phase_2,go,100.0,300.0,1.0,,,,,,,,,yellow,diamond
0.0,5.0,0.5,1.0,6.0,6.0,332.3193400001401,7.0,1.0,phase_2,stop,100.0,300.0,3.0,,,,,,,,,cyan,square
0.0,7.0,2.0,1.0,5.0,0.0,0.0,7.0,1.0,phase_2,stop,100.0,250.0,4.0,,,,,,,,,orange,flipped triangle
0.0,7.0,2.0,1.0,6.0,6.0,477.0179929992082,8.0,1.0,phase_2,stop,150.0,250.0,3.0,,,,,,,,,orange,flipped triangle
0.0,2.0,1.0,0.0,5.0,5.0,764.3079199997374,8.0,1.0,phase_2,go,150.0,200.0,1.0,,,,,,,,,gray,triangle
0.0,8.0,4.0,1.0,6.0,6.0,596.9654660002561,8.0,1.0,phase_2,go,150.0,200.0,1.0,,,,,,,,,blue,I
0.0,5.0,0.5,1.0,6.0,6.0,486.7974210001193,8.0,1.0,phase_2,go,150.0,200.0,1.0,,,,,,,,,cyan,square
0.0,6.0,1.0,1.0,5.0,5.0,267.4620679999862,8.0,1.0,phase_2,stop,150.0,200.0,3.0,,,,,,,,,yellow,diamond
0.0,2.0,1.0,0.0,6.0,6.0,303.7550889994236,8.0,1.0,phase_2,go,100.0,200.0,1.0,,,,,,,,,gray,triangle
0.0,4.0,4.0,0.0,6.0,6.0,436.1826170006679,8.0,1.0,phase_2,go,100.0,200.0,1.0,,,,,,,,,green,hexagon
0.0,2.0,1.0,0.0,6.0,6.0,398.8077370004248,8.0,1.0,phase_2,go,100.0,200.0,1.0,,,,,,,,,gray,triangle
0.0,7.0,2.0,1.0,5.0,0.0,0.0,8.0,1.0,phase_2,stop,100.0,200.0,4.0,,,,,,,,,orange,flipped triangle
0.0,5.0,0.5,1.0,5.0,0.0,0.0,8.0,1.0,phase_2,stop,150.0,200.0,4.0,,,,,,,,,cyan,square
0.0,6.0,1.0,1.0,5.0,5.0,423.7187569997331,8.0,1.0,phase_2,go,200.0,200.0,1.0,,,,,,,,,yellow,diamond
0.0,7.0,2.0,1.0,6.0,6.0,444.1874209996967,8.0,1.0,phase_2,go,200.0,200.0,1.0,,,,,,,,,orange,flipped triangle
0.0,8.0,4.0,1.0,5.0,0.0,0.0,8.0,1.0,phase_2,stop,200.0,200.0,4.0,,,,,,,,,blue,I
0.0,3.0,2.0,0.0,5.0,5.0,869.3275519999588,8.0,1.0,phase_2,go,250.0,200.0,1.0,,,,,,,,,magenta,cross
0.0,3.0,2.0,0.0,6.0,6.0,531.3549499996952,8.0,1.0,phase_2,go,250.0,200.0,1.0,,,,,,,,,magenta,cross
0.0,4.0,4.0,0.0,6.0,6.0,389.9013750005906,8.0,1.0,phase_2,go,250.0,200.0,1.0,,,,,,,,,green,hexagon
0.0,8.0,4.0,1.0,6.0,6.0,324.4290550001096,8.0,1.0,phase_2,go,250.0,200.0,1.0,,,,,,,,,blue,I
0.0,7.0,2.0,1.0,6.0,6.0,319.7676480003792,8.0,1.0,phase_2,stop,250.0,200.0,3.0,,,,,,,,,orange,flipped triangle
0.0,7.0,2.0,1.0,5.0,0.0,0.0,8.0,1.0,phase_2,stop,250.0,150.0,4.0,,,,,,,,,orange,flipped triangle
0.0,1.0,0.5,0.0,5.0,5.0,581.7411799998808,8.0,1.0,phase_2,go,300.0,150.0,1.0,,,,,,,,,white,circle
0.0,2.0,1.0,0.0,6.0,6.0,400.3635429999121,8.0,1.0,phase_2,go,300.0,150.0,1.0,,,,,,,,,gray,triangle
0.0,3.0,2.0,0.0,6.0,6.0,506.83249999929103,8.0,1.0,phase_2,go,300.0,150.0,1.0,,,,,,,,,magenta,cross
0.0,6.0,1.0,1.0,5.0,5.0,282.8961269997307,8.0,1.0,phase_2,stop,300.0,150.0,3.0,,,,,,,,,yellow,diamond
0.0,7.0,2.0,1.0,6.0,6.0,512.5666530002491,8.0,1.0,phase_2,stop,250.0,150.0,3.0,,,,,,,,,orange,flipped triangle
0.0,1.0,0.5,0.0,6.0,6.0,722.6275789998908,8.0,1.0,phase_2,go,250.0,100.0,1.0,,,,,,,,,white,circle
0.0,5.0,0.5,1.0,5.0,0.0,0.0,8.0,1.0,phase_2,stop,250.0,100.0,4.0,,,,,,,,,cyan,square
0.0,7.0,2.0,1.0,5.0,5.0,874.0979439999137,8.0,1.0,phase_2,stop,300.0,100.0,3.0,,,,,,,,,orange,flipped triangle
0.0,6.0,1.0,1.0,6.0,0.0,0.0,8.0,1.0,phase_2,stop,250.0,100.0,4.0,,,,,,,,,yellow,diamond
0.0,3.0,2.0,0.0,5.0,5.0,507.0992259998093,8.0,1.0,phase_2,go,250.0,150.0,1.0,,,,,,,,,magenta,cross
0.0,3.0,2.0,0.0,5.0,5.0,530.0878919997558,8.0,1.0,phase_2,go,250.0,150.0,1.0,,,,,,,,,magenta,cross
0.0,5.0,0.5,1.0,5.0,0.0,0.0,8.0,1.0,phase_2,stop,250.0,150.0,4.0,,,,,,,,,cyan,square
0.0,3.0,2.0,0.0,5.0,5.0,533.4928419997595,8.0,1.0,phase_2,go,300.0,150.0,1.0,,,,,,,,,magenta,cross
0.0,3.0,2.0,0.0,5.0,5.0,454.6159649999026,8.0,1.0,phase_2,go,300.0,150.0,1.0,,,,,,,,,magenta,cross
0.0,7.0,2.0,1.0,5.0,5.0,393.2352309993803,8.0,1.0,phase_2,stop,300.0,150.0,3.0,,,,,,,,,orange,flipped triangle
0.0,2.0,1.0,0.0,6.0,6.0,534.4360899998719,8.0,1.0,phase_2,go,250.0,150.0,1.0,,,,,,,,,gray,triangle
0.0,4.0,4.0,0.0,6.0,6.0,475.9355309997772,8.0,1.0,phase_2,go,250.0,150.0,1.0,,,,,,,,,green,hexagon
0.0,1.0,0.5,0.0,7.0,2.0,2497.771565999756,1.0,1.0,phase_3,,,,,270.0,5.0,216.0,270.0,162.0,324.0,54.0,108.0,white,circle
0.0,2.0,1.0,0.0,7.0,4.0,1901.475618999939,1.0,1.0,phase_3,,,,,196.0,4.0,49.0,98.0,294.0,196.0,245.0,147.0,gray,triangle
0.0,6.0,1.0,1.0,7.0,1.0,1972.8535879994524,1.0,1.0,phase_3,,,,,324.0,6.0,324.0,216.0,108.0,54.0,270.0,162.0,yellow,diamond
0.0,8.0,4.0,1.0,7.0,4.0,1667.6538880001317,1.0,1.0,phase_3,,,,,102.0,3.0,34.0,136.0,204.0,102.0,170.0,68.0,blue,I
0.0,4.0,4.0,0.0,7.0,5.0,2232.2253430002093,1.0,1.0,phase_3,,,,,234.0,6.0,195.0,39.0,156.0,78.0,234.0,117.0,green,hexagon
0.0,4.0,4.0,0.0,7.0,3.0,2193.264739000369,1.0,1.0,phase_3,,,,,216.0,4.0,108.0,54.0,216.0,270.0,162.0,324.0,green,hexagon
0.0,7.0,2.0,1.0,7.0,2.0,1358.4786829997029,1.0,1.0,phase_3,,,,,234.0,6.0,39.0,234.0,156.0,195.0,117.0,78.0,orange,flipped triangle
0.0,3.0,2.0,0.0,7.0,5.0,1619.4726260000607,1.0,1.0,phase_3,,,,,162.0,3.0,324.0,108.0,216.0,54.0,162.0,270.0,magenta,cross
0.0,1.0,0.5,0.0,7.0,6.0,1287.7704330003326,1.0,1.0,phase_3,,,,,44.0,1.0,176.0,264.0,88.0,220.0,132.0,44.0,white,circle
0.0,3.0,2.0,0.0,7.0,3.0,1683.6823650000952,1.0,1.0,phase_3,,,,,204.0,6.0,102.0,34.0,204.0,136.0,68.0,170.0,magenta,cross
0.0,8.0,4.0,1.0,7.0,3.0,2297.972614000173,1.0,1.0,phase_3,,,,,294.0,6.0,49.0,196.0,294.0,147.0,98.0,245.0,blue,I
0.0,1.0,0.5,0.0,7.0,3.0,1532.3670790003234,1.0,1.0,phase_3,,,,,68.0,2.0,102.0,204.0,68.0,136.0,34.0,170.0,white,circle
0.0,6.0,1.0,1.0,7.0,1.0,2258.1328559999747,1.0,1.0,phase_3,,,,,170.0,5.0,170.0,68.0,136.0,34.0,204.0,102.0,yellow,diamond
0.0,7.0,2.0,1.0,7.0,1.0,2703.6343769996165,1.0,1.0,phase_3,,,,,162.0,3.0,162.0,108.0,216.0,54.0,270.0,324.0,orange,flipped triangle
0.0,5.0,0.5,1.0,7.0,5.0,2625.790084000073,1.0,1.0,phase_3,,,,,220.0,5.0,176.0,44.0,88.0,132.0,220.0,264.0,cyan,square
0.0,6.0,1.0,1.0,7.0,6.0,2313.3300199997398,1.0,1.0,phase_3,,,,,162.0,3.0,108.0,324.0,54.0,270.0,216.0,162.0,yellow,diamond
0.0,3.0,2.0,0.0,7.0,2.0,1517.9035459996155,1.0,1.0,phase_3,,,,,264.0,6.0,176.0,264.0,44.0,132.0,88.0,220.0,magenta,cross
0.0,3.0,2.0,0.0,7.0,4.0,1760.910612999396,1.0,1.0,phase_3,,,,,245.0,5.0,196.0,294.0,147.0,245.0,49.0,98.0,magenta,cross
0.0,8.0,4.0,1.0,7.0,3.0,1813.5127550003745,1.0,1.0,phase_3,,,,,234.0,6.0,78.0,117.0,234.0,39.0,156.0,195.0,blue,I
0.0,6.0,1.0,1.0,7.0,5.0,2763.568194999607,1.0,1.0,phase_3,,,,,156.0,4.0,117.0,195.0,39.0,234.0,156.0,78.0,yellow,diamond
0.0,5.0,0.5,1.0,7.0,5.0,2606.507966999743,2.0,1.0,phase_3,,,,,195.0,5.0,117.0,39.0,234.0,78.0,195.0,156.0,cyan,square
0.0,2.0,1.0,0.0,7.0,1.0,2356.179194000106,2.0,1.0,phase_3,,,,,117.0,3.0,117.0,195.0,39.0,234.0,78.0,156.0,gray,triangle
0.0,8.0,4.0,1.0,7.0,2.0,1694.663943000705,2.0,1.0,phase_3,,,,,264.0,6.0,176.0,264.0,132.0,44.0,88.0,220.0,blue,I
0.0,1.0,0.5,0.0,7.0,2.0,1357.5548959997832,2.0,1.0,phase_3,,,,,39.0,1.0,117.0,39.0,78.0,234.0,156.0,195.0,white,circle
0.0,6.0,1.0,1.0,7.0,4.0,1324.716733999594,2.0,1.0,phase_3,,,,,98.0,2.0,196.0,49.0,294.0,98.0,147.0,245.0,yellow,diamond
0.0,2.0,1.0,0.0,7.0,4.0,1612.7040729998043,2.0,1.0,phase_3,,,,,176.0,4.0,220.0,264.0,44.0,176.0,132.0,88.0,gray,triangle
0.0,1.0,0.5,0.0,7.0,1.0,1160.2620390003722,2.0,1.0,phase_3,,,,,68.0,2.0,68.0,204.0,136.0,34.0,102.0,170.0,white,circle
0.0,2.0,1.0,0.0,7.0,1.0,2011.8349240001407,2.0,1.0,phase_3,,,,,170.0,5.0,170.0,34.0,102.0,136.0,204.0,68.0,gray,triangle
0.0,8.0,4.0,1.0,7.0,2.0,1338.185084999168,2.0,1.0,phase_3,,,,,324.0,6.0,270.0,324.0,216.0,108.0,54.0,162.0,blue,I
0.0,1.0,0.5,0.0,7.0,3.0,1546.603335999862,2.0,1.0,phase_3,,,,,78.0,2.0,195.0,156.0,78.0,117.0,39.0,234.0,white,circle
0.0,4.0,4.0,0.0,7.0,2.0,1299.381965000066,2.0,1.0,phase_3,,,,,234.0,6.0,156.0,234.0,78.0,195.0,117.0,39.0,green,hexagon
0.0,4.0,4.0,0.0,7.0,6.0,2353.2114149993504,2.0,1.0,phase_3,,,,,270.0,5.0,162.0,108.0,54.0,216.0,324.0,270.0,green,hexagon
0.0,8.0,4.0,1.0,7.0,3.0,1527.7925509999477,2.0,1.0,phase_3,,,,,234.0,6.0,78.0,39.0,234.0,117.0,156.0,195.0,blue,I
0.0,5.0,0.5,1.0,7.0,1.0,1467.1642729999803,2.0,1.0,phase_3,,,,,270.0,5.0,270.0,324.0,108.0,54.0,162.0,216.0,cyan,square
0.0,7.0,2.0,1.0,7.0,6.0,2628.1782310006747,2.0,1.0,phase_3,,,,,170.0,5.0,204.0,102.0,136.0,34.0,68.0,170.0,orange,flipped triangle
0.0,5.0,0.5,1.0,7.0,3.0,1554.2494029996303,2.0,1.0,phase_3,,,,,147.0,3.0,245.0,49.0,147.0,98.0,196.0,294.0,cyan,square
0.0,7.0,2.0,1.0,7.0,5.0,2619.0216810000493,2.0,1.0,phase_3,,,,,156.0,4.0,39.0,195.0,234.0,117.0,156.0,78.0,orange,flipped triangle
0.0,3.0,2.0,0.0,7.0,4.0,1550.4065719997016,2.0,1.0,phase_3,,,,,132.0,3.0,88.0,264.0,44.0,132.0,176.0,220.0,magenta,cross
0.0,6.0,1.0,1.0,7.0,3.0,1636.2201319998348,2.0,1.0,phase_3,,,,,78.0,2.0,117.0,234.0,78.0,195.0,39.0,156.0,yellow,diamond
0.0,4.0,4.0,0.0,7.0,6.0,1946.114323999609,2.0,1.0,phase_3,,,,,170.0,5.0,204.0,34.0,68.0,136.0,102.0,170.0,green,hexagon
0.0,8.0,4.0,1.0,7.0,1.0,1439.184263000243,3.0,1.0,phase_3,,,,,147.0,3.0,147.0,294.0,98.0,196.0,49.0,245.0,blue,I
0.0,3.0,2.0,0.0,7.0,1.0,949.0901979997944,3.0,1.0,phase_3,,,,,170.0,5.0,170.0,68.0,102.0,136.0,204.0,34.0,magenta,cross
0.0,7.0,2.0,1.0,7.0,2.0,3183.029464000356,3.0,1.0,phase_3,,,,,147.0,3.0,49.0,147.0,245.0,294.0,196.0,98.0,orange,flipped triangle
0.0,2.0,1.0,0.0,7.0,1.0,1411.1245490003057,3.0,1.0,phase_3,,,,,88.0,2.0,88.0,44.0,132.0,220.0,264.0,176.0,gray,triangle
0.0,5.0,0.5,1.0,7.0,3.0,1863.65958999977,3.0,1.0,phase_3,,,,,136.0,4.0,34.0,102.0,136.0,68.0,204.0,170.0,cyan,square
0.0,8.0,4.0,1.0,7.0,4.0,1863.64669699924,3.0,1.0,phase_3,,,,,264.0,6.0,44.0,88.0,220.0,264.0,176.0,132.0,blue,I
0.0,2.0,1.0,0.0,7.0,1.0,1482.8829630005202,3.0,1.0,phase_3,,,,,170.0,5.0,170.0,34.0,204.0,136.0,68.0,102.0,gray,triangle
0.0,3.0,2.0,0.0,7.0,5.0,1300.5512090003322,3.0,1.0,phase_3,,,,,147.0,3.0,245.0,98.0,196.0,49.0,147.0,294.0,magenta,cross
0.0,1.0,0.5,0.0,7.0,1.0,2014.094612000008,3.0,1.0,phase_3,,,,,196.0,4.0,196.0,294.0,98.0,49.0,245.0,147.0,white,circle
0.0,1.0,0.5,0.0,7.0,4.0,1651.666228999602,3.0,1.0,phase_3,,,,,44.0,1.0,88.0,264.0,176.0,44.0,132.0,220.0,white,circle
0.0,2.0,1.0,0.0,7.0,6.0,2303.903626000647,3.0,1.0,phase_3,,,,,147.0,3.0,196.0,294.0,245.0,98.0,49.0,147.0,gray,triangle
0.0,8.0,4.0,1.0,7.0,3.0,1818.0215590000444,3.0,1.0,phase_3,,,,,204.0,6.0,136.0,170.0,204.0,34.0,68.0,102.0,blue,I
0.0,3.0,2.0,0.0,7.0,6.0,3213.1143460001117,3.0,1.0,phase_3,,,,,270.0,5.0,108.0,162.0,54.0,324.0,216.0,270.0,magenta,cross
0.0,2.0,1.0,0.0,7.0,3.0,1869.4207250000543,3.0,1.0,phase_3,,,,,78.0,2.0,117.0,39.0,78.0,195.0,156.0,234.0,gray,triangle
0.0,7.0,2.0,1.0,7.0,4.0,1524.6994630006157,3.0,1.0,phase_3,,,,,88.0,2.0,220.0,132.0,44.0,88.0,264.0,176.0,orange,flipped triangle
0.0,7.0,2.0,1.0,7.0,1.0,1442.3836220003068,3.0,1.0,phase_3,,,,,98.0,2.0,98.0,245.0,294.0,49.0,196.0,147.0,orange,flipped triangle
0.0,5.0,0.5,1.0,7.0,4.0,2103.920524000386,3.0,1.0,phase_3,,,,,170.0,5.0,136.0,102.0,204.0,170.0,34.0,68.0,cyan,square
0.0,6.0,1.0,1.0,7.0,2.0,2522.468583000773,3.0,1.0,phase_3,,,,,220.0,5.0,44.0,220.0,176.0,132.0,264.0,88.0,yellow,diamond
0.0,1.0,0.5,0.0,7.0,3.0,3484.683261999635,3.0,1.0,phase_3,,,,,54.0,1.0,270.0,216.0,54.0,162.0,108.0,324.0,white,circle
0.0,4.0,4.0,0.0,7.0,3.0,3271.7666239996106,3.0,1.0,phase_3,,,,,176.0,4.0,220.0,44.0,176.0,132.0,88.0,264.0,green,hexagon
0.0,2.0,1.0,0.0,7.0,5.0,1458.8899760001368,4.0,1.0,phase_3,,,,,54.0,1.0,270.0,216.0,162.0,324.0,54.0,108.0,gray,triangle
0.0,7.0,2.0,1.0,7.0,4.0,3217.882373000066,4.0,1.0,phase_3,,,,,132.0,3.0,44.0,264.0,176.0,132.0,220.0,88.0,orange,flipped triangle
0.0,4.0,4.0,0.0,7.0,6.0,2943.0057970002963,4.0,1.0,phase_3,,,,,294.0,6.0,98.0,49.0,147.0,196.0,245.0,294.0,green,hexagon
0.0,2.0,1.0,0.0,7.0,2.0,1473.0829960008125,4.0,1.0,phase_3,,,,,54.0,1.0,324.0,54.0,216.0,108.0,162.0,270.0,gray,triangle
0.0,6.0,1.0,1.0,7.0,4.0,1681.4316780000809,4.0,1.0,phase_3,,,,,88.0,2.0,44.0,176.0,264.0,88.0,132.0,220.0,yellow,diamond
0.0,1.0,0.5,0.0,7.0,2.0,1571.102887000052,4.0,1.0,phase_3,,,,,49.0,1.0,147.0,49.0,245.0,294.0,98.0,196.0,white,circle
0.0,3.0,2.0,0.0,7.0,3.0,1323.850668999512,4.0,1.0,phase_3,,,,,156.0,4.0,78.0,234.0,156.0,195.0,117.0,39.0,magenta,cross
0.0,4.0,4.0,0.0,7.0,1.0,1795.103673000085,4.0,1.0,phase_3,,,,,220.0,5.0,220.0,44.0,264.0,132.0,88.0,176.0,green,hexagon
0.0,7.0,2.0,1.0,7.0,2.0,1165.5896339998435,4.0,1.0,phase_3,,,,,68.0,2.0,204.0,68.0,170.0,34.0,136.0,102.0,orange,flipped triangle
0.0,8.0,4.0,1.0,7.0,3.0,1150.6154489998153,4.0,1.0,phase_3,,,,,324.0,6.0,54.0,162.0,324.0,270.0,108.0,216.0,blue,I
0.0,7.0,2.0,1.0,7.0,6.0,2042.0911069995782,4.0,1.0,phase_3,,,,,108.0,2.0,54.0,324.0,270.0,162.0,216.0,108.0,orange,flipped triangle
0.0,5.0,0.5,1.0,7.0,6.0,2781.611182999768,4.0,1.0,phase_3,,,,,195.0,5.0,39.0,156.0,78.0,117.0,234.0,195.0,cyan,square
0.0,5.0,0.5,1.0,7.0,3.0,2058.4231849998105,4.0,1.0,phase_3,,,,,216.0,4.0,324.0,270.0,216.0,54.0,108.0,162.0,cyan,square
0.0,4.0,4.0,0.0,7.0,3.0,1515.888036999968,4.0,1.0,phase_3,,,,,245.0,5.0,147.0,196.0,245.0,294.0,98.0,49.0,green,hexagon
0.0,3.0,2.0,0.0,7.0,2.0,1595.356787000128,4.0,1.0,phase_3,,,,,156.0,4.0,117.0,156.0,195.0,78.0,39.0,234.0,magenta,cross
0.0,5.0,0.5,1.0,7.0,4.0,2942.8253959995345,4.0,1.0,phase_3,,,,,245.0,5.0,49.0,98.0,147.0,245.0,294.0,196.0,cyan,square
0.0,6.0,1.0,1.0,7.0,5.0,2067.597936000311,4.0,1.0,phase_3,,,,,170.0,5.0,68.0,204.0,102.0,136.0,170.0,34.0,yellow,diamond
0.0,6.0,1.0,1.0,7.0,2.0,2408.9311210000237,4.0,1.0,phase_3,,,,,196.0,4.0,49.0,196.0,294.0,245.0,147.0,98.0,yellow,diamond
0.0,5.0,0.5,1.0,7.0,1.0,1769.936921000408,4.0,1.0,phase_3,,,,,132.0,3.0,132.0,88.0,264.0,220.0,176.0,44.0,cyan,square
0.0,4.0,4.0,0.0,7.0,5.0,2004.12093200066,4.0,1.0,phase_3,,,,,170.0,5.0,204.0,34.0,102.0,68.0,170.0,136.0,green,hexagon
