raw_reward_magnitude,stim_reward,stepwise_reward_magnitude,paired_with_stopping,stim_location,response,reaction_time,block,num_trial_presentations,which_phase,stop_signal_trial_type,left_SSD,right_SSD,accuracy,chosen_bidding_amount,chosen_bidding_level,possible_bid_1,possible_bid_2,possible_bid_3,possible_bid_4,possible_bid_5,possible_bid_6,color_text,shape_text
92.0,2.0,1.0,0.0,4.0,4.0,356.0794133170475,1.0,1.0,phase_1,,,,,,,,,,,,,green,flipped triangle
389.0,4.0,4.0,0.0,3.0,3.0,288.6036720001357,1.0,1.0,phase_1,,,,,,,,,,,,,cyan,diamond
120.0,2.0,1.0,0.0,4.0,4.0,345.803985475186,1.0,1.0,phase_1,,,,,,,,,,,,,green,flipped triangle
389.0,8.0,4.0,1.0,1.0,1.0,292.534631395938,1.0,1.0,phase_1,,,,,,,,,,,,,blue,circle
0.0,7.0,0.0,1.0,2.0,2.0,291.7843631582855,1.0,1.0,phase_1,,,,,,,,,,,,,white,triangle
65.0,5.0,0.5,1.0,3.0,3.0,279.70344171285427,1.0,1.0,phase_1,,,,,,,,,,,,,yellow,I
378.0,8.0,4.0,1.0,1.0,1.0,281.1040756334932,1.0,1.0,phase_1,,,,,,,,,,,,,blue,circle
208.0,7.0,2.0,1.0,4.0,4.0,418.3019503168452,1.0,2.0,phase_1,,,,,,,,,,,,,white,triangle
416.0,4.0,4.0,0.0,3.0,3.0,340.3414741583219,1.0,1.0,phase_1,,,,,,,,,,,,,cyan,diamond
110.0,2.0,1.0,0.0,2.0,2.0,295.355198396237,1.0,1.0,phase_1,,,,,,,,,,,,,green,flipped triangle
66.0,1.0,0.5,0.0,2.0,2.0,341.7635543960386,1.0,1.0,phase_1,,,,,,,,,,,,,magenta,square
0.0,3.0,0.0,0.0,2.0,2.0,318.5815491583526,1.0,1.0,phase_1,,,,,,,,,,,,,gray,hexagon
413.0,8.0,4.0,1.0,3.0,3.0,240.2972662375759,1.0,1.0,phase_1,,,,,,,,,,,,,blue,circle
96.0,6.0,1.0,1.0,4.0,4.0,319.1564193962222,1.0,1.0,phase_1,,,,,,,,,,,,,orange,cross
193.0,7.0,2.0,1.0,4.0,4.0,331.1633756334231,1.0,1.0,phase_1,,,,,,,,,,,,,white,triangle
0.0,1.0,0.0,0.0,1.0,1.0,264.7707850792358,1.0,1.0,phase_1,,,,,,,,,,,,,magenta,square
185.0,3.0,2.0,0.0,3.0,3.0,356.6615160791571,1.0,1.0,phase_1,,,,,,,,,,,,,gray,hexagon
0.0,5.0,0.0,1.0,1.0,1.0,411.5763130791947,1.0,1.0,phase_1,,,,,,,,,,,,,yellow,I
211.0,7.0,2.0,1.0,3.0,3.0,310.1972368415318,1.0,1.0,phase_1,,,,,,,,,,,,,white,triangle
380.0,4.0,4.0,0.0,3.0,3.0,389.5736829999805,1.0,1.0,phase_1,,,,,,,,,,,,,cyan,diamond
68.0,1.0,0.5,0.0,2.0,2.0,390.4486252374681,1.0,1.0,phase_1,,,,,,,,,,,,,magenta,square
36.0,5.0,0.5,1.0,1.0,1.0,392.7806301583132,1.0,1.0,phase_1,,,,,,,,,,,,,yellow,I
0.0,2.0,0.0,0.0,1.0,1.0,336.6069236335534,1.0,1.0,phase_1,,,,,,,,,,,,,green,flipped triangle
93.0,2.0,1.0,0.0,4.0,4.0,269.8395952374994,1.0,1.0,phase_1,,,,,,,,,,,,,green,flipped triangle
180.0,7.0,2.0,1.0,1.0,1.0,280.100112554237,1.0,1.0,phase_1,,,,,,,,,,,,,white,triangle
125.0,6.0,1.0,1.0,2.0,2.0,383.7336851584041,1.0,1.0,phase_1,,,,,,,,,,,,,orange,cross
112.0,2.0,1.0,0.0,3.0,3.0,259.6386836337387,1.0,1.0,phase_1,,,,,,,,,,,,,green,flipped triangle
59.0,5.0,0.5,1.0,1.0,1.0,259.8709104752288,1.0,1.0,phase_1,,,,,,,,,,,,,yellow,I
188.0,3.0,2.0,0.0,4.0,4.0,281.6893863960104,1.0,1.0,phase_1,,,,,,,,,,,,,gray,hexagon
32.0,5.0,0.5,1.0,3.0,3.0,260.0526993169296,1.0,1.0,phase_1,,,,,,,,,,,,,yellow,I
0.0,3.0,0.0,0.0,3.0,3.0,362.927640633643,1.0,1.0,phase_1,,,,,,,,,,,,,gray,hexagon
85.0,2.0,1.0,0.0,4.0,4.0,352.8969892374789,1.0,1.0,phase_1,,,,,,,,,,,,,green,flipped triangle
185.0,7.0,2.0,1.0,4.0,4.0,330.1371142374592,1.0,1.0,phase_1,,,,,,,,,,,,,white,triangle
63.0,1.0,0.5,0.0,3.0,3.0,273.5111762374345,1.0,1.0,phase_1,,,,,,,,,,,,,magenta,square
187.0,3.0,2.0,0.0,1.0,1.0,285.7267722376946,1.0,1.0,phase_1,,,,,,,,,,,,,gray,hexagon
407.0,8.0,4.0,1.0,2.0,2.0,344.2843842374259,1.0,1.0,phase_1,,,,,,,,,,,,,blue,circle
62.0,5.0,0.5,1.0,2.0,2.0,310.1687556336401,1.0,1.0,phase_1,,,,,,,,,,,,,yellow,I
120.0,2.0,1.0,0.0,3.0,3.0,275.3201414752766,1.0,1.0,phase_1,,,,,,,,,,,,,green,flipped triangle
380.0,8.0,4.0,1.0,4.0,4.0,400.4246084753049,1.0,1.0,phase_1,,,,,,,,,,,,,blue,circle
424.0,4.0,4.0,0.0,2.0,2.0,288.4221771585089,1.0,1.0,phase_1,,,,,,,,,,,,,cyan,diamond
0.0,2.0,0.0,0.0,2.0,2.0,279.0311189999102,1.0,2.0,phase_1,,,,,,,,,,,,,green,flipped triangle
116.0,6.0,1.0,1.0,2.0,2.0,357.6614464752765,1.0,1.0,phase_1,,,,,,,,,,,,,orange,cross
0.0,3.0,0.0,0.0,4.0,4.0,369.9485104752966,1.0,1.0,phase_1,,,,,,,,,,,,,gray,hexagon
89.0,6.0,1.0,1.0,2.0,2.0,370.317687079023,1.0,1.0,phase_1,,,,,,,,,,,,,orange,cross
75.0,5.0,0.5,1.0,4.0,4.0,347.6621860791056,1.0,1.0,phase_1,,,,,,,,,,,,,yellow,I
208.0,3.0,2.0,0.0,2.0,2.0,405.154868316913,1.0,1.0,phase_1,,,,,,,,,,,,,gray,hexagon
395.0,4.0,4.0,0.0,3.0,3.0,405.2029393169505,1.0,1.0,phase_1,,,,,,,,,,,,,cyan,diamond
85.0,2.0,1.0,0.0,1.0,1.0,328.5629940789931,1.0,1.0,phase_1,,,,,,,,,,,,,green,flipped triangle
89.0,6.0,1.0,1.0,3.0,3.0,428.4382576336156,1.0,1.0,phase_1,,,,,,,,,,,,,orange,cross
188.0,7.0,2.0,1.0,1.0,1.0,363.6532883961081,1.0,1.0,phase_1,,,,,,,,,,,,,white,triangle
97.0,2.0,1.0,0.0,2.0,2.0,419.3993288417914,1.0,1.0,phase_1,,,,,,,,,,,,,green,flipped triangle
27.0,1.0,0.5,0.0,2.0,2.0,351.9896972375136,1.0,1.0,phase_1,,,,,,,,,,,,,magenta,square
107.0,2.0,1.0,0.0,4.0,4.0,320.3641160794177,1.0,1.0,phase_1,,,,,,,,,,,,,green,flipped triangle
220.0,7.0,2.0,1.0,1.0,1.0,308.8208613962706,1.0,1.0,phase_1,,,,,,,,,,,,,white,triangle
26.0,1.0,0.5,0.0,3.0,3.0,297.9355333959574,1.0,1.0,phase_1,,,,,,,,,,,,,magenta,square
92.0,6.0,1.0,1.0,4.0,4.0,308.5284399999182,1.0,1.0,phase_1,,,,,,,,,,,,,orange,cross
201.0,3.0,2.0,0.0,4.0,4.0,354.8258116338729,1.0,1.0,phase_1,,,,,,,,,,,,,gray,hexagon
116.0,2.0,1.0,0.0,2.0,2.0,321.4884286335291,1.0,1.0,phase_1,,,,,,,,,,,,,green,flipped triangle
0.0,8.0,0.0,1.0,4.0,4.0,345.096931079297,1.0,1.0,phase_1,,,,,,,,,,,,,blue,circle
120.0,2.0,1.0,0.0,2.0,2.0,333.4009524751309,1.0,1.0,phase_1,,,,,,,,,,,,,green,flipped triangle
213.0,7.0,2.0,1.0,3.0,3.0,288.5443632380884,1.0,1.0,phase_1,,,,,,,,,,,,,white,triangle
70.0,5.0,0.5,1.0,3.0,3.0,414.2277993169045,1.0,1.0,phase_1,,,,,,,,,,,,,yellow,I
114.0,6.0,1.0,1.0,1.0,1.0,437.7181091581406,1.0,1.0,phase_1,,,,,,,,,,,,,orange,cross
183.0,3.0,2.0,0.0,2.0,2.0,360.0114550795297,1.0,1.0,phase_1,,,,,,,,,,,,,gray,hexagon
199.0,7.0,2.0,1.0,3.0,3.0,280.8961846340025,1.0,1.0,phase_1,,,,,,,,,,,,,white,triangle
425.0,8.0,4.0,1.0,3.0,3.0,437.5350621585312,1.0,1.0,phase_1,,,,,,,,,,,,,blue,circle
411.0,8.0,4.0,1.0,2.0,2.0,406.6920086338541,1.0,1.0,phase_1,,,,,,,,,,,,,blue,circle
31.0,1.0,0.5,0.0,4.0,4.0,574.797220237997,1.0,1.0,phase_1,,,,,,,,,,,,,magenta,square
196.0,7.0,2.0,1.0,3.0,3.0,417.96193255459,1.0,2.0,phase_1,,,,,,,,,,,,,white,triangle
0.0,1.0,0.0,0.0,4.0,4.0,611.4113749999888,1.0,1.0,phase_1,,,,,,,,,,,,,magenta,square
0.0,7.0,0.0,1.0,1.0,1.0,497.6436912374993,1.0,1.0,phase_1,,,,,,,,,,,,,white,triangle
209.0,3.0,2.0,0.0,2.0,2.0,419.8380876337069,1.0,1.0,phase_1,,,,,,,,,,,,,gray,hexagon
221.0,7.0,2.0,1.0,3.0,3.0,330.5648954751632,1.0,1.0,phase_1,,,,,,,,,,,,,white,triangle
27.0,5.0,0.5,1.0,2.0,2.0,411.4977420795185,1.0,1.0,phase_1,,,,,,,,,,,,,yellow,I
0.0,5.0,0.0,1.0,3.0,3.0,355.272618474828,1.0,1.0,phase_1,,,,,,,,,,,,,yellow,I
403.0,8.0,4.0,1.0,3.0,3.0,422.4582874749103,1.0,1.0,phase_1,,,,,,,,,,,,,blue,circle
90.0,2.0,1.0,0.0,4.0,4.0,377.8480933960964,1.0,1.0,phase_1,,,,,,,,,,,,,green,flipped triangle
30.0,5.0,0.5,1.0,2.0,2.0,413.6030170002414,1.0,1.0,phase_1,,,,,,,,,,,,,yellow,I
389.0,4.0,4.0,0.0,1.0,1.0,368.3272875541661,1.0,1.0,phase_1,,,,,,,,,,,,,cyan,diamond
419.0,4.0,4.0,0.0,4.0,4.0,379.1668283961371,1.0,1.0,phase_1,,,,,,,,,,,,,cyan,diamond
208.0,3.0,2.0,0.0,3.0,3.0,302.3917953169075,1.0,1.0,phase_1,,,,,,,,,,,,,gray,hexagon
0.0,5.0,0.0,1.0,1.0,1.0,492.7353163166117,1.0,1.0,phase_1,,,,,,,,,,,,,yellow,I
27.0,1.0,0.5,0.0,1.0,1.0,483.7924011585528,1.0,1.0,phase_1,,,,,,,,,,,,,magenta,square
0.0,8.0,0.0,1.0,1.0,1.0,405.214105633604,1.0,1.0,phase_1,,,,,,,,,,,,,blue,circle
0.0,6.0,0.0,1.0,2.0,2.0,382.8698033166802,1.0,1.0,phase_1,,,,,,,,,,,,,orange,cross
196.0,3.0,2.0,0.0,3.0,3.0,427.3878330791376,1.0,1.0,phase_1,,,,,,,,,,,,,gray,hexagon
418.0,4.0,4.0,0.0,3.0,3.0,281.4132762377994,1.0,1.0,phase_1,,,,,,,,,,,,,cyan,diamond
0.0,3.0,0.0,0.0,2.0,2.0,406.0570493957129,1.0,1.0,phase_1,,,,,,,,,,,,,gray,hexagon
394.0,4.0,4.0,0.0,1.0,1.0,295.6075392376078,1.0,1.0,phase_1,,,,,,,,,,,,,cyan,diamond
199.0,3.0,2.0,0.0,2.0,2.0,373.4422312377319,1.0,1.0,phase_1,,,,,,,,,,,,,gray,hexagon
49.0,5.0,0.5,1.0,1.0,1.0,508.98898171271867,1.0,1.0,phase_1,,,,,,,,,,,,,yellow,I
30.0,1.0,0.5,0.0,4.0,4.0,554.4728202671649,1.0,1.0,phase_1,,,,,,,,,,,,,magenta,square
35.0,5.0,0.5,1.0,4.0,4.0,386.3510320793466,1.0,1.0,phase_1,,,,,,,,,,,,,yellow,I
65.0,1.0,0.5,0.0,2.0,2.0,410.9507663170006,1.0,1.0,phase_1,,,,,,,,,,,,,magenta,square
217.0,7.0,2.0,1.0,2.0,2.0,378.1317832376771,1.0,1.0,phase_1,,,,,,,,,,,,,white,triangle
55.0,5.0,0.5,1.0,1.0,1.0,423.4202730795005,1.0,1.0,phase_1,,,,,,,,,,,,,yellow,I
72.0,5.0,0.5,1.0,3.0,3.0,309.0538452374858,1.0,1.0,phase_1,,,,,,,,,,,,,yellow,I
76.0,6.0,1.0,1.0,3.0,3.0,400.4636404752091,1.0,1.0,phase_1,,,,,,,,,,,,,orange,cross
94.0,6.0,1.0,1.0,3.0,3.0,345.1531113169039,1.0,1.0,phase_1,,,,,,,,,,,,,orange,cross
0.0,3.0,0.0,0.0,3.0,3.0,434.9669093958255,1.0,1.0,phase_1,,,,,,,,,,,,,gray,hexagon
0.0,6.0,0.0,1.0,4.0,4.0,336.8258752375368,2.0,1.0,phase_1,,,,,,,,,,,,,orange,cross
125.0,6.0,1.0,1.0,2.0,2.0,417.4153771582496,2.0,1.0,phase_1,,,,,,,,,,,,,orange,cross
182.0,7.0,2.0,1.0,2.0,2.0,438.4792610794648,2.0,1.0,phase_1,,,,,,,,,,,,,white,triangle
58.0,5.0,0.5,1.0,2.0,2.0,371.6564645542348,2.0,1.0,phase_1,,,,,,,,,,,,,yellow,I
107.0,6.0,1.0,1.0,2.0,2.0,282.8107863961122,2.0,1.0,phase_1,,,,,,,,,,,,,orange,cross
0.0,7.0,0.0,1.0,3.0,3.0,282.8215327131147,2.0,1.0,phase_1,,,,,,,,,,,,,white,triangle
119.0,6.0,1.0,1.0,2.0,2.0,419.5787672379083,2.0,1.0,phase_1,,,,,,,,,,,,,orange,cross
175.0,3.0,2.0,0.0,3.0,3.0,273.580577316352,2.0,1.0,phase_1,,,,,,,,,,,,,gray,hexagon
217.0,3.0,2.0,0.0,4.0,4.0,329.6550653963095,2.0,1.0,phase_1,,,,,,,,,,,,,gray,hexagon
89.0,2.0,1.0,0.0,3.0,3.0,318.6368835545181,2.0,1.0,phase_1,,,,,,,,,,,,,green,flipped triangle
193.0,3.0,2.0,0.0,1.0,1.0,320.0067633165417,2.0,1.0,phase_1,,,,,,,,,,,,,gray,hexagon
201.0,7.0,2.0,1.0,2.0,2.0,308.8204370792482,2.0,1.0,phase_1,,,,,,,,,,,,,white,triangle
379.0,4.0,4.0,0.0,1.0,1.0,322.0715063166608,2.0,1.0,phase_1,,,,,,,,,,,,,cyan,diamond
77.0,6.0,1.0,1.0,2.0,2.0,321.2437251581832,2.0,1.0,phase_1,,,,,,,,,,,,,orange,cross
394.0,4.0,4.0,0.0,4.0,4.0,288.1838303164841,2.0,1.0,phase_1,,,,,,,,,,,,,cyan,diamond
0.0,5.0,0.0,1.0,4.0,4.0,345.9680414753165,2.0,1.0,phase_1,,,,,,,,,,,,,yellow,I
175.0,7.0,2.0,1.0,4.0,4.0,491.1880793165437,2.0,1.0,phase_1,,,,,,,,,,,,,white,triangle
116.0,6.0,1.0,1.0,4.0,4.0,301.4157361585603,2.0,1.0,phase_1,,,,,,,,,,,,,orange,cross
182.0,3.0,2.0,0.0,3.0,3.0,424.7891206341592,2.0,1.0,phase_1,,,,,,,,,,,,,gray,hexagon
215.0,7.0,2.0,1.0,4.0,4.0,312.5941904750107,2.0,1.0,phase_1,,,,,,,,,,,,,white,triangle
0.0,7.0,0.0,1.0,2.0,2.0,314.6747123964815,2.0,1.0,phase_1,,,,,,,,,,,,,white,triangle
80.0,6.0,1.0,1.0,4.0,4.0,280.2623990792199,2.0,1.0,phase_1,,,,,,,,,,,,,orange,cross
90.0,6.0,1.0,1.0,1.0,1.0,315.901405079785,2.0,1.0,phase_1,,,,,,,,,,,,,orange,cross
384.0,4.0,4.0,0.0,3.0,3.0,269.3608530794336,2.0,1.0,phase_1,,,,,,,,,,,,,cyan,diamond
415.0,4.0,4.0,0.0,3.0,3.0,394.8571643168179,2.0,1.0,phase_1,,,,,,,,,,,,,cyan,diamond
391.0,8.0,4.0,1.0,4.0,4.0,305.4838305542944,2.0,1.0,phase_1,,,,,,,,,,,,,blue,circle
0.0,2.0,0.0,0.0,1.0,1.0,318.2124233962895,2.0,1.0,phase_1,,,,,,,,,,,,,green,flipped triangle
0.0,7.0,0.0,1.0,2.0,2.0,306.0335013169606,2.0,1.0,phase_1,,,,,,,,,,,,,white,triangle
78.0,6.0,1.0,1.0,4.0,4.0,261.4938243168581,2.0,1.0,phase_1,,,,,,,,,,,,,orange,cross
211.0,3.0,2.0,0.0,1.0,1.0,286.2300454748947,2.0,1.0,phase_1,,,,,,,,,,,,,gray,hexagon
411.0,8.0,4.0,1.0,4.0,4.0,363.585257079194,2.0,1.0,phase_1,,,,,,,,,,,,,blue,circle
210.0,7.0,2.0,1.0,4.0,4.0,297.0238125544711,2.0,1.0,phase_1,,,,,,,,,,,,,white,triangle
32.0,1.0,0.5,0.0,1.0,1.0,299.114493554498,2.0,1.0,phase_1,,,,,,,,,,,,,magenta,square
93.0,6.0,1.0,1.0,2.0,2.0,342.9256093168078,2.0,1.0,phase_1,,,,,,,,,,,,,orange,cross
0.0,2.0,0.0,0.0,1.0,1.0,412.3556043959979,2.0,1.0,phase_1,,,,,,,,,,,,,green,flipped triangle
382.0,8.0,4.0,1.0,2.0,2.0,357.2872063168688,2.0,1.0,phase_1,,,,,,,,,,,,,blue,circle
215.0,7.0,2.0,1.0,1.0,1.0,323.7667493963272,2.0,1.0,phase_1,,,,,,,,,,,,,white,triangle
200.0,7.0,2.0,1.0,4.0,4.0,334.2262501582809,2.0,1.0,phase_1,,,,,,,,,,,,,white,triangle
207.0,3.0,2.0,0.0,4.0,4.0,437.0156385543851,2.0,1.0,phase_1,,,,,,,,,,,,,gray,hexagon
211.0,3.0,2.0,0.0,1.0,1.0,312.6675092380537,2.0,1.0,phase_1,,,,,,,,,,,,,gray,hexagon
76.0,2.0,1.0,0.0,3.0,3.0,359.4233381581944,2.0,1.0,phase_1,,,,,,,,,,,,,green,flipped triangle
387.0,4.0,4.0,0.0,4.0,4.0,325.3107081582129,2.0,1.0,phase_1,,,,,,,,,,,,,cyan,diamond
182.0,7.0,2.0,1.0,3.0,3.0,439.041023158552,2.0,1.0,phase_1,,,,,,,,,,,,,white,triangle
59.0,1.0,0.5,0.0,3.0,3.0,326.8480064748473,2.0,1.0,phase_1,,,,,,,,,,,,,magenta,square
0.0,4.0,0.0,0.0,2.0,2.0,506.8341267128744,2.0,1.0,phase_1,,,,,,,,,,,,,cyan,diamond
59.0,5.0,0.5,1.0,4.0,4.0,305.8447621583582,2.0,1.0,phase_1,,,,,,,,,,,,,yellow,I
94.0,2.0,1.0,0.0,1.0,1.0,406.7126331583495,2.0,1.0,phase_1,,,,,,,,,,,,,green,flipped triangle
0.0,8.0,0.0,1.0,4.0,4.0,351.3204500791289,2.0,1.0,phase_1,,,,,,,,,,,,,blue,circle
51.0,5.0,0.5,1.0,3.0,3.0,475.3271144750215,2.0,1.0,phase_1,,,,,,,,,,,,,yellow,I
58.0,1.0,0.5,0.0,4.0,4.0,387.0833881583166,2.0,1.0,phase_1,,,,,,,,,,,,,magenta,square
399.0,8.0,4.0,1.0,3.0,3.0,498.7124323165517,2.0,1.0,phase_1,,,,,,,,,,,,,blue,circle
38.0,1.0,0.5,0.0,2.0,2.0,364.518913237589,2.0,1.0,phase_1,,,,,,,,,,,,,magenta,square
0.0,3.0,0.0,0.0,4.0,4.0,386.7621280792264,2.0,1.0,phase_1,,,,,,,,,,,,,gray,hexagon
413.0,8.0,4.0,1.0,2.0,2.0,421.6590504747728,2.0,1.0,phase_1,,,,,,,,,,,,,blue,circle
215.0,3.0,2.0,0.0,3.0,3.0,512.5756814750275,2.0,1.0,phase_1,,,,,,,,,,,,,gray,hexagon
221.0,7.0,2.0,1.0,1.0,1.0,321.3117461582442,2.0,1.0,phase_1,,,,,,,,,,,,,white,triangle
0.0,1.0,0.0,0.0,2.0,2.0,603.8826573958431,2.0,1.0,phase_1,,,,,,,,,,,,,magenta,square
63.0,1.0,0.5,0.0,3.0,3.0,310.9344754752783,2.0,1.0,phase_1,,,,,,,,,,,,,magenta,square
0.0,7.0,0.0,1.0,1.0,1.0,482.4661182374257,2.0,1.0,phase_1,,,,,,,,,,,,,white,triangle
83.0,2.0,1.0,0.0,3.0,3.0,414.17801215857247,2.0,1.0,phase_1,,,,,,,,,,,,,green,flipped triangle
379.0,8.0,4.0,1.0,1.0,1.0,302.3224696339639,2.0,1.0,phase_1,,,,,,,,,,,,,blue,circle
72.0,1.0,0.5,0.0,2.0,2.0,324.8379046340233,2.0,1.0,phase_1,,,,,,,,,,,,,magenta,square
389.0,8.0,4.0,1.0,4.0,4.0,313.9419043964153,2.0,1.0,phase_1,,,,,,,,,,,,,blue,circle
70.0,1.0,0.5,0.0,4.0,4.0,460.6917833962143,2.0,1.0,phase_1,,,,,,,,,,,,,magenta,square
78.0,2.0,1.0,0.0,1.0,1.0,383.8859642378338,2.0,1.0,phase_1,,,,,,,,,,,,,green,flipped triangle
30.0,5.0,0.5,1.0,4.0,4.0,405.5748546338691,2.0,1.0,phase_1,,,,,,,,,,,,,yellow,I
183.0,7.0,2.0,1.0,2.0,2.0,372.0768654752646,2.0,1.0,phase_1,,,,,,,,,,,,,white,triangle
0.0,3.0,0.0,0.0,1.0,1.0,338.9691300794766,2.0,1.0,phase_1,,,,,,,,,,,,,gray,hexagon
112.0,6.0,1.0,1.0,1.0,1.0,452.2407073168324,2.0,1.0,phase_1,,,,,,,,,,,,,orange,cross
424.0,8.0,4.0,1.0,4.0,4.0,385.5127893166354,2.0,1.0,phase_1,,,,,,,,,,,,,blue,circle
424.0,4.0,4.0,0.0,2.0,2.0,487.7096570003232,2.0,1.0,phase_1,,,,,,,,,,,,,cyan,diamond
37.0,1.0,0.5,0.0,4.0,4.0,375.7936082374726,2.0,1.0,phase_1,,,,,,,,,,,,,magenta,square
384.0,8.0,4.0,1.0,1.0,1.0,602.6431861582751,2.0,1.0,phase_1,,,,,,,,,,,,,blue,circle
209.0,7.0,2.0,1.0,1.0,1.0,456.3938797127775,2.0,1.0,phase_1,,,,,,,,,,,,,white,triangle
0.0,1.0,0.0,0.0,3.0,3.0,479.1873553958794,2.0,1.0,phase_1,,,,,,,,,,,,,magenta,square
216.0,3.0,2.0,0.0,1.0,1.0,367.7645282377852,2.0,1.0,phase_1,,,,,,,,,,,,,gray,hexagon
100.0,2.0,1.0,0.0,2.0,2.0,400.8078444749117,2.0,1.0,phase_1,,,,,,,,,,,,,green,flipped triangle
123.0,2.0,1.0,0.0,4.0,4.0,390.2331523959219,2.0,1.0,phase_1,,,,,,,,,,,,,green,flipped triangle
32.0,1.0,0.5,0.0,4.0,4.0,356.8656823167657,2.0,1.0,phase_1,,,,,,,,,,,,,magenta,square
196.0,7.0,2.0,1.0,2.0,2.0,414.6026414750849,2.0,1.0,phase_1,,,,,,,,,,,,,white,triangle
40.0,5.0,0.5,1.0,1.0,1.0,447.4304864747864,2.0,1.0,phase_1,,,,,,,,,,,,,yellow,I
424.0,8.0,4.0,1.0,4.0,4.0,425.978965000013,2.0,1.0,phase_1,,,,,,,,,,,,,blue,circle
207.0,7.0,2.0,1.0,3.0,3.0,415.5279860792689,2.0,1.0,phase_1,,,,,,,,,,,,,white,triangle
387.0,8.0,4.0,1.0,1.0,1.0,383.7644393961454,2.0,1.0,phase_1,,,,,,,,,,,,,blue,circle
118.0,2.0,1.0,0.0,4.0,4.0,360.2830012378035,2.0,1.0,phase_1,,,,,,,,,,,,,green,flipped triangle
0.0,5.0,0.0,1.0,4.0,4.0,449.9255582377373,2.0,1.0,phase_1,,,,,,,,,,,,,yellow,I
213.0,3.0,2.0,0.0,2.0,2.0,496.6120901581234,2.0,1.0,phase_1,,,,,,,,,,,,,gray,hexagon
52.0,5.0,0.5,1.0,3.0,3.0,474.8174876340272,2.0,1.0,phase_1,,,,,,,,,,,,,yellow,I
0.0,7.0,0.0,1.0,3.0,3.0,372.4202117127788,2.0,1.0,phase_1,,,,,,,,,,,,,white,triangle
0.0,3.0,0.0,0.0,3.0,3.0,317.9515801584784,2.0,1.0,phase_1,,,,,,,,,,,,,gray,hexagon
0.0,8.0,0.0,1.0,3.0,3.0,317.6644430795932,2.0,1.0,phase_1,,,,,,,,,,,,,blue,circle
178.0,7.0,2.0,1.0,4.0,4.0,408.9620473964714,2.0,1.0,phase_1,,,,,,,,,,,,,white,triangle
0.0,2.0,0.0,0.0,2.0,2.0,332.1216944750631,2.0,1.0,phase_1,,,,,,,,,,,,,green,flipped triangle
0.0,4.0,0.0,0.0,4.0,4.0,342.59863531679,2.0,1.0,phase_1,,,,,,,,,,,,,cyan,diamond
123.0,6.0,1.0,1.0,4.0,4.0,377.3973526340342,2.0,1.0,phase_1,,,,,,,,,,,,,orange,cross
0.0,2.0,0.0,0.0,1.0,1.0,546.586163000029,2.0,1.0,phase_1,,,,,,,,,,,,,green,flipped triangle
71.0,1.0,0.5,0.0,1.0,1.0,423.3617723962197,2.0,1.0,phase_1,,,,,,,,,,,,,magenta,square
77.0,2.0,1.0,0.0,2.0,2.0,389.5026372379107,2.0,1.0,phase_1,,,,,,,,,,,,,green,flipped triangle
220.0,3.0,2.0,0.0,4.0,4.0,369.0483979207783,2.0,1.0,phase_1,,,,,,,,,,,,,gray,hexagon
200.0,3.0,2.0,0.0,3.0,3.0,559.9982893963897,2.0,1.0,phase_1,,,,,,,,,,,,,gray,hexagon
32.0,5.0,0.5,1.0,1.0,1.0,308.3895163958914,3.0,1.0,phase_1,,,,,,,,,,,,,yellow,I
66.0,5.0,0.5,1.0,3.0,3.0,295.8454600793629,3.0,1.0,phase_1,,,,,,,,,,,,,yellow,I
407.0,4.0,4.0,0.0,4.0,4.0,318.9864362379921,3.0,1.0,phase_1,,,,,,,,,,,,,cyan,diamond
0.0,5.0,0.0,1.0,1.0,1.0,467.6377456339651,3.0,1.0,phase_1,,,,,,,,,,,,,yellow,I
0.0,5.0,0.0,1.0,1.0,1.0,354.0499273162822,3.0,1.0,phase_1,,,,,,,,,,,,,yellow,I
0.0,8.0,0.0,1.0,2.0,2.0,366.7939850797665,3.0,1.0,phase_1,,,,,,,,,,,,,blue,circle
411.0,4.0,4.0,0.0,4.0,4.0,310.8165202379496,3.0,1.0,phase_1,,,,,,,,,,,,,cyan,diamond
85.0,6.0,1.0,1.0,1.0,1.0,299.9428713960697,3.0,1.0,phase_1,,,,,,,,,,,,,orange,cross
417.0,4.0,4.0,0.0,3.0,3.0,368.4466925542438,3.0,1.0,phase_1,,,,,,,,,,,,,cyan,diamond
413.0,4.0,4.0,0.0,1.0,1.0,403.3596733165723,3.0,1.0,phase_1,,,,,,,,,,,,,cyan,diamond
110.0,6.0,1.0,1.0,3.0,3.0,391.0807385541375,3.0,1.0,phase_1,,,,,,,,,,,,,orange,cross
83.0,6.0,1.0,1.0,1.0,1.0,349.0101783168029,3.0,2.0,phase_1,,,,,,,,,,,,,orange,cross
0.0,4.0,0.0,0.0,2.0,2.0,338.204254316679,3.0,1.0,phase_1,,,,,,,,,,,,,cyan,diamond
380.0,4.0,4.0,0.0,3.0,3.0,349.1112770793734,3.0,1.0,phase_1,,,,,,,,,,,,,cyan,diamond
88.0,2.0,1.0,0.0,3.0,3.0,371.7606506338597,3.0,1.0,phase_1,,,,,,,,,,,,,green,flipped triangle
27.0,5.0,0.5,1.0,1.0,1.0,327.9098233961122,3.0,1.0,phase_1,,,,,,,,,,,,,yellow,I
120.0,6.0,1.0,1.0,1.0,1.0,272.4850203167079,3.0,1.0,phase_1,,,,,,,,,,,,,orange,cross
0.0,8.0,0.0,1.0,1.0,1.0,352.770922633681,3.0,1.0,phase_1,,,,,,,,,,,,,blue,circle
424.0,8.0,4.0,1.0,2.0,2.0,363.406337158267,3.0,1.0,phase_1,,,,,,,,,,,,,blue,circle
80.0,2.0,1.0,0.0,2.0,2.0,453.3913003961061,3.0,1.0,phase_1,,,,,,,,,,,,,green,flipped triangle
200.0,7.0,2.0,1.0,1.0,1.0,431.8631926339549,3.0,2.0,phase_1,,,,,,,,,,,,,white,triangle
109.0,6.0,1.0,1.0,1.0,1.0,421.3390953959788,3.0,1.0,phase_1,,,,,,,,,,,,,orange,cross
100.0,2.0,1.0,0.0,3.0,3.0,376.9990933960798,3.0,1.0,phase_1,,,,,,,,,,,,,green,flipped triangle
49.0,5.0,0.5,1.0,2.0,2.0,445.4922242380235,3.0,1.0,phase_1,,,,,,,,,,,,,yellow,I
35.0,1.0,0.5,0.0,4.0,4.0,412.5489710795591,3.0,1.0,phase_1,,,,,,,,,,,,,magenta,square
0.0,1.0,0.0,0.0,3.0,3.0,389.3835883168322,3.0,1.0,phase_1,,,,,,,,,,,,,magenta,square
395.0,8.0,4.0,1.0,1.0,1.0,335.3809911582175,3.0,1.0,phase_1,,,,,,,,,,,,,blue,circle
380.0,8.0,4.0,1.0,2.0,2.0,447.0131463963298,3.0,1.0,phase_1,,,,,,,,,,,,,blue,circle
120.0,6.0,1.0,1.0,3.0,3.0,334.1479142377466,3.0,1.0,phase_1,,,,,,,,,,,,,orange,cross
178.0,7.0,2.0,1.0,4.0,4.0,312.6934526339937,3.0,1.0,phase_1,,,,,,,,,,,,,white,triangle
61.0,1.0,0.5,0.0,2.0,2.0,371.644519158508,3.0,1.0,phase_1,,,,,,,,,,,,,magenta,square
195.0,3.0,2.0,0.0,4.0,4.0,369.6324786337754,3.0,1.0,phase_1,,,,,,,,,,,,,gray,hexagon
27.0,1.0,0.5,0.0,3.0,3.0,358.8641823166654,3.0,1.0,phase_1,,,,,,,,,,,,,magenta,square
214.0,7.0,2.0,1.0,3.0,3.0,303.9050693164427,3.0,1.0,phase_1,,,,,,,,,,,,,white,triangle
387.0,8.0,4.0,1.0,3.0,3.0,328.3568664751328,3.0,1.0,phase_1,,,,,,,,,,,,,blue,circle
221.0,7.0,2.0,1.0,1.0,1.0,462.6534413960144,3.0,1.0,phase_1,,,,,,,,,,,,,white,triangle
68.0,5.0,0.5,1.0,4.0,4.0,563.9934605546841,3.0,1.0,phase_1,,,,,,,,,,,,,yellow,I
63.0,1.0,0.5,0.0,3.0,3.0,462.8604990793974,3.0,1.0,phase_1,,,,,,,,,,,,,magenta,square
399.0,4.0,4.0,0.0,2.0,2.0,420.6316660793163,3.0,1.0,phase_1,,,,,,,,,,,,,cyan,diamond
96.0,2.0,1.0,0.0,1.0,1.0,420.4201471584383,3.0,1.0,phase_1,,,,,,,,,,,,,green,flipped triangle
179.0,3.0,2.0,0.0,2.0,2.0,476.224707395886,3.0,1.0,phase_1,,,,,,,,,,,,,gray,hexagon
49.0,1.0,0.5,0.0,3.0,3.0,330.9755793957265,3.0,1.0,phase_1,,,,,,,,,,,,,magenta,square
208.0,7.0,2.0,1.0,3.0,3.0,342.8024831582661,3.0,1.0,phase_1,,,,,,,,,,,,,white,triangle
387.0,4.0,4.0,0.0,4.0,4.0,388.4174393961075,3.0,1.0,phase_1,,,,,,,,,,,,,cyan,diamond
114.0,2.0,1.0,0.0,1.0,1.0,356.9449761585019,3.0,1.0,phase_1,,,,,,,,,,,,,green,flipped triangle
0.0,7.0,0.0,1.0,4.0,4.0,413.0969173165795,3.0,1.0,phase_1,,,,,,,,,,,,,white,triangle
0.0,6.0,0.0,1.0,3.0,3.0,468.9280916336429,3.0,1.0,phase_1,,,,,,,,,,,,,orange,cross
100.0,6.0,1.0,1.0,1.0,1.0,380.5578256337867,3.0,1.0,phase_1,,,,,,,,,,,,,orange,cross
59.0,1.0,0.5,0.0,3.0,3.0,345.3775003963528,3.0,1.0,phase_1,,,,,,,,,,,,,magenta,square
425.0,4.0,4.0,0.0,2.0,2.0,470.1170971584361,3.0,1.0,phase_1,,,,,,,,,,,,,cyan,diamond
215.0,3.0,2.0,0.0,3.0,3.0,380.1480484748936,3.0,1.0,phase_1,,,,,,,,,,,,,gray,hexagon
418.0,8.0,4.0,1.0,2.0,2.0,472.776504238027,3.0,1.0,phase_1,,,,,,,,,,,,,blue,circle
0.0,4.0,0.0,0.0,4.0,4.0,437.989378634029,3.0,1.0,phase_1,,,,,,,,,,,,,cyan,diamond
0.0,4.0,0.0,0.0,1.0,1.0,348.6609491583294,3.0,1.0,phase_1,,,,,,,,,,,,,cyan,diamond
0.0,7.0,0.0,1.0,4.0,4.0,395.7527690790812,3.0,1.0,phase_1,,,,,,,,,,,,,white,triangle
40.0,5.0,0.5,1.0,4.0,4.0,338.1656821584329,3.0,1.0,phase_1,,,,,,,,,,,,,yellow,I
221.0,3.0,2.0,0.0,1.0,1.0,396.0248123962628,3.0,2.0,phase_1,,,,,,,,,,,,,gray,hexagon
70.0,5.0,0.5,1.0,2.0,2.0,464.0618093167177,3.0,1.0,phase_1,,,,,,,,,,,,,yellow,I
417.0,8.0,4.0,1.0,3.0,3.0,365.2841306338814,3.0,1.0,phase_1,,,,,,,,,,,,,blue,circle
96.0,6.0,1.0,1.0,3.0,3.0,341.3656001584968,3.0,1.0,phase_1,,,,,,,,,,,,,orange,cross
0.0,1.0,0.0,0.0,4.0,4.0,453.6839781585513,3.0,1.0,phase_1,,,,,,,,,,,,,magenta,square
40.0,1.0,0.5,0.0,1.0,1.0,355.2627993963142,3.0,1.0,phase_1,,,,,,,,,,,,,magenta,square
376.0,4.0,4.0,0.0,1.0,1.0,377.2398653959499,3.0,1.0,phase_1,,,,,,,,,,,,,cyan,diamond
379.0,4.0,4.0,0.0,4.0,4.0,432.8999625545293,3.0,1.0,phase_1,,,,,,,,,,,,,cyan,diamond
0.0,6.0,0.0,1.0,4.0,4.0,478.8460974750705,3.0,1.0,phase_1,,,,,,,,,,,,,orange,cross
214.0,3.0,2.0,0.0,2.0,2.0,379.0074244748211,3.0,1.0,phase_1,,,,,,,,,,,,,gray,hexagon
125.0,2.0,1.0,0.0,3.0,3.0,424.6504863167502,3.0,1.0,phase_1,,,,,,,,,,,,,green,flipped triangle
216.0,7.0,2.0,1.0,2.0,2.0,425.3497900790535,3.0,1.0,phase_1,,,,,,,,,,,,,white,triangle
89.0,2.0,1.0,0.0,1.0,1.0,390.9280333959941,3.0,1.0,phase_1,,,,,,,,,,,,,green,flipped triangle
109.0,2.0,1.0,0.0,3.0,3.0,426.3588235544375,3.0,1.0,phase_1,,,,,,,,,,,,,green,flipped triangle
31.0,5.0,0.5,1.0,3.0,3.0,494.1338743960841,3.0,1.0,phase_1,,,,,,,,,,,,,yellow,I
391.0,4.0,4.0,0.0,2.0,2.0,392.9539913165172,3.0,1.0,phase_1,,,,,,,,,,,,,cyan,diamond
0.0,1.0,0.0,0.0,3.0,3.0,371.4580782379926,3.0,1.0,phase_1,,,,,,,,,,,,,magenta,square
413.0,4.0,4.0,0.0,4.0,4.0,540.6176593164673,3.0,1.0,phase_1,,,,,,,,,,,,,cyan,diamond
63.0,5.0,0.5,1.0,2.0,2.0,439.1094943962343,3.0,1.0,phase_1,,,,,,,,,,,,,yellow,I
96.0,2.0,1.0,0.0,4.0,4.0,373.5626605543984,3.0,1.0,phase_1,,,,,,,,,,,,,green,flipped triangle
417.0,8.0,4.0,1.0,1.0,1.0,374.6584204750434,3.0,1.0,phase_1,,,,,,,,,,,,,blue,circle
400.0,8.0,4.0,1.0,2.0,2.0,431.7628326339218,3.0,1.0,phase_1,,,,,,,,,,,,,blue,circle
39.0,5.0,0.5,1.0,4.0,4.0,330.0695194748186,3.0,1.0,phase_1,,,,,,,,,,,,,yellow,I
398.0,4.0,4.0,0.0,2.0,2.0,374.7325013168847,3.0,1.0,phase_1,,,,,,,,,,,,,cyan,diamond
116.0,2.0,1.0,0.0,3.0,3.0,398.7617915545343,3.0,1.0,phase_1,,,,,,,,,,,,,green,flipped triangle
179.0,7.0,2.0,1.0,3.0,3.0,466.1925286341102,3.0,1.0,phase_1,,,,,,,,,,,,,white,triangle
77.0,6.0,1.0,1.0,4.0,4.0,566.919266316745,3.0,1.0,phase_1,,,,,,,,,,,,,orange,cross
196.0,3.0,2.0,0.0,3.0,3.0,421.2817850793726,3.0,1.0,phase_1,,,,,,,,,,,,,gray,hexagon
412.0,8.0,4.0,1.0,3.0,3.0,422.7385417129881,3.0,1.0,phase_1,,,,,,,,,,,,,blue,circle
0.0,8.0,0.0,1.0,1.0,1.0,728.7112014746526,3.0,1.0,phase_1,,,,,,,,,,,,,blue,circle
398.0,8.0,4.0,1.0,3.0,3.0,390.2199940794162,3.0,1.0,phase_1,,,,,,,,,,,,,blue,circle
85.0,6.0,1.0,1.0,2.0,2.0,515.5276863961262,3.0,1.0,phase_1,,,,,,,,,,,,,orange,cross
27.0,5.0,0.5,1.0,1.0,1.0,447.6768403960705,3.0,1.0,phase_1,,,,,,,,,,,,,yellow,I
182.0,3.0,2.0,0.0,1.0,1.0,459.4511384752877,3.0,1.0,phase_1,,,,,,,,,,,,,gray,hexagon
424.0,4.0,4.0,0.0,4.0,4.0,359.7544680792452,3.0,1.0,phase_1,,,,,,,,,,,,,cyan,diamond
376.0,8.0,4.0,1.0,4.0,4.0,347.9665096338067,3.0,1.0,phase_1,,,,,,,,,,,,,blue,circle
0.0,8.0,0.0,1.0,3.0,3.0,449.4951224255601,3.0,1.0,phase_1,,,,,,,,,,,,,blue,circle
49.0,1.0,0.5,0.0,3.0,3.0,404.4045113168977,3.0,1.0,phase_1,,,,,,,,,,,,,magenta,square
55.0,5.0,0.5,1.0,3.0,3.0,337.0373204252246,3.0,1.0,phase_1,,,,,,,,,,,,,yellow,I
0.0,5.0,0.0,1.0,3.0,3.0,327.8175333957733,3.0,1.0,phase_1,,,,,,,,,,,,,yellow,I
96.0,6.0,1.0,1.0,2.0,2.0,339.219561158643,3.0,1.0,phase_1,,,,,,,,,,,,,orange,cross
380.0,4.0,4.0,0.0,1.0,1.0,374.001628158112,3.0,1.0,phase_1,,,,,,,,,,,,,cyan,diamond
83.0,2.0,1.0,0.0,4.0,4.0,317.9495245544785,3.0,1.0,phase_1,,,,,,,,,,,,,green,flipped triangle
68.0,5.0,0.5,1.0,4.0,4.0,453.9303622377701,3.0,1.0,phase_1,,,,,,,,,,,,,yellow,I
118.0,6.0,1.0,1.0,3.0,3.0,307.0541985543968,4.0,1.0,phase_1,,,,,,,,,,,,,orange,cross
379.0,8.0,4.0,1.0,1.0,1.0,410.0038621581916,4.0,1.0,phase_1,,,,,,,,,,,,,blue,circle
211.0,7.0,2.0,1.0,4.0,4.0,296.9391754750177,4.0,1.0,phase_1,,,,,,,,,,,,,white,triangle
62.0,1.0,0.5,0.0,1.0,1.0,321.018436079612,4.0,1.0,phase_1,,,,,,,,,,,,,magenta,square
94.0,6.0,1.0,1.0,1.0,1.0,276.6478772377923,4.0,1.0,phase_1,,,,,,,,,,,,,orange,cross
116.0,2.0,1.0,0.0,1.0,1.0,276.41917700020707,4.0,1.0,phase_1,,,,,,,,,,,,,green,flipped triangle
71.0,5.0,0.5,1.0,1.0,1.0,232.8849043960872,4.0,1.0,phase_1,,,,,,,,,,,,,yellow,I
0.0,6.0,0.0,1.0,1.0,1.0,334.3430625541259,4.0,1.0,phase_1,,,,,,,,,,,,,orange,cross
0.0,2.0,0.0,0.0,1.0,1.0,300.0009070792657,4.0,1.0,phase_1,,,,,,,,,,,,,green,flipped triangle
0.0,6.0,0.0,1.0,3.0,3.0,356.7739884751972,4.0,2.0,phase_1,,,,,,,,,,,,,orange,cross
0.0,6.0,0.0,1.0,4.0,4.0,481.5977152375126,4.0,1.0,phase_1,,,,,,,,,,,,,orange,cross
0.0,3.0,0.0,0.0,4.0,4.0,359.0418620792661,4.0,1.0,phase_1,,,,,,,,,,,,,gray,hexagon
206.0,3.0,2.0,0.0,2.0,2.0,381.0622141586464,4.0,1.0,phase_1,,,,,,,,,,,,,gray,hexagon
70.0,1.0,0.5,0.0,2.0,2.0,405.2849232375592,4.0,1.0,phase_1,,,,,,,,,,,,,magenta,square
0.0,1.0,0.0,0.0,2.0,2.0,360.8972404749693,4.0,1.0,phase_1,,,,,,,,,,,,,magenta,square
386.0,8.0,4.0,1.0,3.0,3.0,351.30499523756947,4.0,1.0,phase_1,,,,,,,,,,,,,blue,circle
412.0,4.0,4.0,0.0,1.0,1.0,271.4626492379466,4.0,1.0,phase_1,,,,,,,,,,,,,cyan,diamond
180.0,3.0,2.0,0.0,4.0,4.0,294.5912061582021,4.0,1.0,phase_1,,,,,,,,,,,,,gray,hexagon
37.0,5.0,0.5,1.0,4.0,4.0,329.6746135542889,4.0,1.0,phase_1,,,,,,,,,,,,,yellow,I
0.0,8.0,0.0,1.0,4.0,4.0,476.0456641583914,4.0,1.0,phase_1,,,,,,,,,,,,,blue,circle
195.0,7.0,2.0,1.0,2.0,2.0,329.9280002374871,4.0,1.0,phase_1,,,,,,,,,,,,,white,triangle
61.0,5.0,0.5,1.0,2.0,2.0,387.6965297126844,4.0,1.0,phase_1,,,,,,,,,,,,,yellow,I
0.0,4.0,0.0,0.0,2.0,2.0,319.7514090793447,4.0,1.0,phase_1,,,,,,,,,,,,,cyan,diamond
0.0,4.0,0.0,0.0,1.0,1.0,455.1922440791713,4.0,1.0,phase_1,,,,,,,,,,,,,cyan,diamond
116.0,6.0,1.0,1.0,3.0,3.0,286.5346336338916,4.0,1.0,phase_1,,,,,,,,,,,,,orange,cross
200.0,3.0,2.0,0.0,2.0,2.0,345.4545088416125,4.0,1.0,phase_1,,,,,,,,,,,,,gray,hexagon
39.0,1.0,0.5,0.0,1.0,1.0,502.13757715800966,4.0,1.0,phase_1,,,,,,,,,,,,,magenta,square
390.0,8.0,4.0,1.0,1.0,1.0,356.8105733961602,4.0,1.0,phase_1,,,,,,,,,,,,,blue,circle
29.0,5.0,0.5,1.0,2.0,2.0,368.8073513162635,4.0,1.0,phase_1,,,,,,,,,,,,,yellow,I
0.0,1.0,0.0,0.0,3.0,3.0,300.7709932380749,4.0,1.0,phase_1,,,,,,,,,,,,,magenta,square
68.0,1.0,0.5,0.0,3.0,3.0,572.6750871581316,4.0,1.0,phase_1,,,,,,,,,,,,,magenta,square
0.0,1.0,0.0,0.0,3.0,3.0,402.8022517127283,4.0,1.0,phase_1,,,,,,,,,,,,,magenta,square
417.0,4.0,4.0,0.0,1.0,1.0,381.4167874752456,4.0,1.0,phase_1,,,,,,,,,,,,,cyan,diamond
97.0,6.0,1.0,1.0,3.0,3.0,325.5259123961878,4.0,1.0,phase_1,,,,,,,,,,,,,orange,cross
63.0,5.0,0.5,1.0,4.0,4.0,382.9913805543583,4.0,1.0,phase_1,,,,,,,,,,,,,yellow,I
221.0,3.0,2.0,0.0,4.0,4.0,417.7178394752445,4.0,1.0,phase_1,,,,,,,,,,,,,gray,hexagon
394.0,8.0,4.0,1.0,4.0,4.0,293.6031720796563,4.0,1.0,phase_1,,,,,,,,,,,,,blue,circle
55.0,1.0,0.5,0.0,2.0,2.0,329.5963321584167,4.0,1.0,phase_1,,,,,,,,,,,,,magenta,square
416.0,8.0,4.0,1.0,3.0,3.0,350.4277546339835,4.0,1.0,phase_1,,,,,,,,,,,,,blue,circle
29.0,1.0,0.5,0.0,4.0,4.0,385.1290772377069,4.0,2.0,phase_1,,,,,,,,,,,,,magenta,square
0.0,2.0,0.0,0.0,2.0,2.0,375.2617954751258,4.0,1.0,phase_1,,,,,,,,,,,,,green,flipped triangle
0.0,6.0,0.0,1.0,1.0,1.0,376.0994866338478,4.0,1.0,phase_1,,,,,,,,,,,,,orange,cross
394.0,8.0,4.0,1.0,2.0,2.0,342.5790243168194,4.0,1.0,phase_1,,,,,,,,,,,,,blue,circle
405.0,8.0,4.0,1.0,4.0,4.0,321.7294763167047,4.0,1.0,phase_1,,,,,,,,,,,,,blue,circle
96.0,2.0,1.0,0.0,1.0,1.0,288.0366396334466,4.0,1.0,phase_1,,,,,,,,,,,,,green,flipped triangle
55.0,1.0,0.5,0.0,4.0,4.0,355.0679834747825,4.0,1.0,phase_1,,,,,,,,,,,,,magenta,square
0.0,6.0,0.0,1.0,2.0,2.0,311.0065713167387,4.0,1.0,phase_1,,,,,,,,,,,,,orange,cross
403.0,4.0,4.0,0.0,4.0,4.0,335.752073634012,4.0,1.0,phase_1,,,,,,,,,,,,,cyan,diamond
206.0,7.0,2.0,1.0,2.0,2.0,324.6875401582656,4.0,1.0,phase_1,,,,,,,,,,,,,white,triangle
193.0,3.0,2.0,0.0,2.0,2.0,390.9669511585889,4.0,1.0,phase_1,,,,,,,,,,,,,gray,hexagon
0.0,5.0,0.0,1.0,2.0,2.0,370.8943694750815,4.0,1.0,phase_1,,,,,,,,,,,,,yellow,I
100.0,6.0,1.0,1.0,4.0,4.0,269.0300694753205,4.0,1.0,phase_1,,,,,,,,,,,,,orange,cross
411.0,4.0,4.0,0.0,1.0,1.0,348.8903116340225,4.0,1.0,phase_1,,,,,,,,,,,,,cyan,diamond
94.0,2.0,1.0,0.0,2.0,2.0,393.5030235543308,4.0,1.0,phase_1,,,,,,,,,,,,,green,flipped triangle
180.0,3.0,2.0,0.0,4.0,4.0,315.2365236337573,4.0,1.0,phase_1,,,,,,,,,,,,,gray,hexagon
120.0,6.0,1.0,1.0,3.0,3.0,327.5449193165514,4.0,1.0,phase_1,,,,,,,,,,,,,orange,cross
0.0,4.0,0.0,0.0,1.0,1.0,273.0381203164143,4.0,1.0,phase_1,,,,,,,,,,,,,cyan,diamond
0.0,3.0,0.0,0.0,4.0,4.0,306.9029929206408,4.0,1.0,phase_1,,,,,,,,,,,,,gray,hexagon
221.0,3.0,2.0,0.0,1.0,1.0,340.386092999779,4.0,1.0,phase_1,,,,,,,,,,,,,gray,hexagon
180.0,7.0,2.0,1.0,1.0,1.0,419.2491001581402,4.0,1.0,phase_1,,,,,,,,,,,,,white,triangle
38.0,5.0,0.5,1.0,2.0,2.0,409.894868079391,4.0,1.0,phase_1,,,,,,,,,,,,,yellow,I
0.0,4.0,0.0,0.0,2.0,2.0,308.1444143958833,4.0,1.0,phase_1,,,,,,,,,,,,,cyan,diamond
193.0,7.0,2.0,1.0,2.0,2.0,432.5970734753355,4.0,1.0,phase_1,,,,,,,,,,,,,white,triangle
419.0,8.0,4.0,1.0,2.0,2.0,298.7851096340819,4.0,1.0,phase_1,,,,,,,,,,,,,blue,circle
415.0,8.0,4.0,1.0,1.0,1.0,377.4123696339302,4.0,1.0,phase_1,,,,,,,,,,,,,blue,circle
36.0,1.0,0.5,0.0,1.0,1.0,479.94052755439037,4.0,1.0,phase_1,,,,,,,,,,,,,magenta,square
0.0,2.0,0.0,0.0,1.0,1.0,514.8328532377491,4.0,1.0,phase_1,,,,,,,,,,,,,green,flipped triangle
75.0,1.0,0.5,0.0,1.0,1.0,390.9845883963498,4.0,1.0,phase_1,,,,,,,,,,,,,magenta,square
390.0,4.0,4.0,0.0,2.0,2.0,448.3158685543458,4.0,1.0,phase_1,,,,,,,,,,,,,cyan,diamond
26.0,5.0,0.5,1.0,3.0,3.0,469.7567673165395,4.0,1.0,phase_1,,,,,,,,,,,,,yellow,I
100.0,2.0,1.0,0.0,2.0,2.0,571.3618741583559,4.0,1.0,phase_1,,,,,,,,,,,,,green,flipped triangle
52.0,1.0,0.5,0.0,2.0,2.0,427.4386826336922,4.0,1.0,phase_1,,,,,,,,,,,,,magenta,square
40.0,1.0,0.5,0.0,1.0,1.0,360.0740541583036,4.0,1.0,phase_1,,,,,,,,,,,,,magenta,square
0.0,4.0,0.0,0.0,1.0,1.0,473.5396205546749,4.0,1.0,phase_1,,,,,,,,,,,,,cyan,diamond
88.0,6.0,1.0,1.0,4.0,4.0,438.7210813165438,4.0,1.0,phase_1,,,,,,,,,,,,,orange,cross
187.0,7.0,2.0,1.0,1.0,1.0,462.4268613961249,4.0,1.0,phase_1,,,,,,,,,,,,,white,triangle
83.0,6.0,1.0,1.0,4.0,4.0,418.0252313162782,4.0,1.0,phase_1,,,,,,,,,,,,,orange,cross
119.0,2.0,1.0,0.0,2.0,2.0,417.8558793164484,4.0,1.0,phase_1,,,,,,,,,,,,,green,flipped triangle
63.0,5.0,0.5,1.0,1.0,1.0,363.0907602378102,4.0,1.0,phase_1,,,,,,,,,,,,,yellow,I
125.0,2.0,1.0,0.0,1.0,1.0,375.86310423739627,4.0,1.0,phase_1,,,,,,,,,,,,,green,flipped triangle
178.0,3.0,2.0,0.0,3.0,3.0,396.3014212381495,4.0,1.0,phase_1,,,,,,,,,,,,,gray,hexagon
0.0,5.0,0.0,1.0,1.0,1.0,374.5231591583433,4.0,1.0,phase_1,,,,,,,,,,,,,yellow,I
0.0,6.0,0.0,1.0,3.0,3.0,409.8379822380593,4.0,1.0,phase_1,,,,,,,,,,,,,orange,cross
380.0,8.0,4.0,1.0,4.0,4.0,443.4070380793855,4.0,1.0,phase_1,,,,,,,,,,,,,blue,circle
77.0,2.0,1.0,0.0,1.0,1.0,410.3846067127961,4.0,1.0,phase_1,,,,,,,,,,,,,green,flipped triangle
405.0,4.0,4.0,0.0,2.0,2.0,444.5653160000802,4.0,1.0,phase_1,,,,,,,,,,,,,cyan,diamond
386.0,4.0,4.0,0.0,3.0,3.0,434.3304722378889,4.0,1.0,phase_1,,,,,,,,,,,,,cyan,diamond
0.0,2.0,0.0,0.0,1.0,1.0,468.4167699206227,4.0,1.0,phase_1,,,,,,,,,,,,,green,flipped triangle
100.0,6.0,1.0,1.0,1.0,1.0,423.7863893163194,4.0,1.0,phase_1,,,,,,,,,,,,,orange,cross
178.0,3.0,2.0,0.0,1.0,1.0,357.0322497130291,4.0,1.0,phase_1,,,,,,,,,,,,,gray,hexagon
382.0,4.0,4.0,0.0,2.0,2.0,402.2349944752932,4.0,1.0,phase_1,,,,,,,,,,,,,cyan,diamond
0.0,7.0,0.0,1.0,3.0,3.0,357.4903875542077,4.0,1.0,phase_1,,,,,,,,,,,,,white,triangle
210.0,3.0,2.0,0.0,4.0,4.0,370.1985122379483,4.0,1.0,phase_1,,,,,,,,,,,,,gray,hexagon
378.0,4.0,4.0,0.0,2.0,2.0,415.3112645544752,4.0,1.0,phase_1,,,,,,,,,,,,,cyan,diamond
0.0,8.0,0.0,1.0,3.0,3.0,392.4801694752204,4.0,1.0,phase_1,,,,,,,,,,,,,blue,circle
400.0,4.0,4.0,0.0,1.0,1.0,404.9588823168051,4.0,1.0,phase_1,,,,,,,,,,,,,cyan,diamond
219.0,3.0,2.0,0.0,1.0,1.0,495.5803032380572,4.0,1.0,phase_1,,,,,,,,,,,,,gray,hexagon
30.0,1.0,0.5,0.0,4.0,4.0,384.3591396339434,4.0,1.0,phase_1,,,,,,,,,,,,,magenta,square
219.0,7.0,2.0,1.0,2.0,2.0,496.8020543960847,4.0,1.0,phase_1,,,,,,,,,,,,,white,triangle
51.0,1.0,0.5,0.0,1.0,1.0,429.5244314748743,4.0,1.0,phase_1,,,,,,,,,,,,,magenta,square
0.0,3.0,2.0,0.0,5.0,5.0,641.712223671675,1.0,1.0,phase_2,go,250.0,250.0,1.0,,,,,,,,,gray,hexagon
0.0,2.0,1.0,0.0,6.0,6.0,743.9330873748986,1.0,1.0,phase_2,go,250.0,250.0,1.0,,,,,,,,,green,flipped triangle
0.0,1.0,0.5,0.0,6.0,6.0,790.9377473438326,1.0,1.0,phase_2,go,250.0,250.0,1.0,,,,,,,,,magenta,square
0.0,2.0,1.0,0.0,5.0,5.0,948.185568327972,1.0,1.0,phase_2,go,250.0,250.0,1.0,,,,,,,,,green,flipped triangle
0.0,8.0,4.0,1.0,5.0,0.0,0.0,1.0,1.0,phase_2,stop,250.0,250.0,4.0,,,,,,,,,blue,circle
0.0,7.0,2.0,1.0,5.0,5.0,792.221284687912,1.0,1.0,phase_2,go,300.0,250.0,1.0,,,,,,,,,white,triangle
0.0,8.0,4.0,1.0,5.0,0.0,0.0,1.0,1.0,phase_2,stop,300.0,250.0,4.0,,,,,,,,,blue,circle
0.0,6.0,1.0,1.0,5.0,5.0,568.8477013441116,1.0,1.0,phase_2,go,350.0,250.0,1.0,,,,,,,,,orange,cross
0.0,3.0,2.0,0.0,6.0,6.0,760.7313850312494,1.0,1.0,phase_2,go,350.0,250.0,1.0,,,,,,,,,gray,hexagon
0.0,2.0,1.0,0.0,5.0,5.0,660.8233460156043,1.0,1.0,phase_2,go,350.0,250.0,1.0,,,,,,,,,green,flipped triangle
0.0,3.0,2.0,0.0,6.0,6.0,741.7506606875577,1.0,1.0,phase_2,go,350.0,250.0,1.0,,,,,,,,,gray,hexagon
0.0,8.0,4.0,1.0,5.0,0.0,0.0,1.0,1.0,phase_2,stop,350.0,250.0,4.0,,,,,,,,,blue,circle
0.0,2.0,1.0,0.0,5.0,5.0,641.6188167031578,1.0,1.0,phase_2,go,400.0,250.0,1.0,,,,,,,,,green,flipped triangle
0.0,7.0,2.0,1.0,6.0,0.0,0.0,1.0,1.0,phase_2,stop,400.0,250.0,4.0,,,,,,,,,white,triangle
0.0,5.0,0.5,1.0,6.0,6.0,743.2298520311633,1.0,1.0,phase_2,go,400.0,300.0,1.0,,,,,,,,,yellow,I
0.0,5.0,0.5,1.0,6.0,0.0,0.0,1.0,1.0,phase_2,stop,400.0,300.0,4.0,,,,,,,,,yellow,I
0.0,4.0,4.0,0.0,5.0,5.0,958.6572370158136,1.0,1.0,phase_2,go,400.0,350.0,1.0,,,,,,,,,cyan,diamond
0.0,7.0,2.0,1.0,5.0,0.0,0.0,1.0,1.0,phase_2,stop,400.0,350.0,4.0,,,,,,,,,white,triangle
0.0,5.0,0.5,1.0,6.0,0.0,0.0,1.0,1.0,phase_2,stop,450.0,350.0,4.0,,,,,,,,,yellow,I
0.0,6.0,1.0,1.0,5.0,0.0,0.0,1.0,1.0,phase_2,stop,450.0,400.0,4.0,,,,,,,,,orange,cross
0.0,1.0,0.5,0.0,5.0,5.0,591.1609120312278,1.0,1.0,phase_2,go,500.0,400.0,1.0,,,,,,,,,magenta,square
0.0,1.0,0.5,0.0,6.0,6.0,760.6175133437318,1.0,1.0,phase_2,go,500.0,400.0,1.0,,,,,,,,,magenta,square
0.0,7.0,2.0,1.0,6.0,0.0,0.0,1.0,1.0,phase_2,stop,500.0,400.0,4.0,,,,,,,,,white,triangle
0.0,8.0,4.0,1.0,5.0,0.0,0.0,1.0,1.0,phase_2,stop,500.0,450.0,4.0,,,,,,,,,blue,circle
0.0,3.0,2.0,0.0,5.0,5.0,809.5846753440128,1.0,1.0,phase_2,go,550.0,450.0,1.0,,,,,,,,,gray,hexagon
0.0,3.0,2.0,0.0,6.0,6.0,786.2456170937548,1.0,1.0,phase_2,go,550.0,450.0,1.0,,,,,,,,,gray,hexagon
0.0,1.0,0.5,0.0,5.0,5.0,719.7040200312586,1.0,1.0,phase_2,go,550.0,450.0,1.0,,,,,,,,,magenta,square
0.0,7.0,2.0,1.0,6.0,6.0,710.3318980311997,1.0,1.0,phase_2,go,550.0,450.0,1.0,,,,,,,,,white,triangle
0.0,3.0,2.0,0.0,5.0,5.0,608.8301756717556,1.0,1.0,phase_2,go,550.0,450.0,1.0,,,,,,,,,gray,hexagon
0.0,7.0,2.0,1.0,5.0,5.0,667.5626643441319,1.0,1.0,phase_2,stop,550.0,450.0,3.0,,,,,,,,,white,triangle
0.0,6.0,1.0,1.0,6.0,0.0,0.0,1.0,1.0,phase_2,stop,500.0,450.0,4.0,,,,,,,,,orange,cross
0.0,2.0,1.0,0.0,5.0,5.0,534.1741796878523,1.0,1.0,phase_2,go,500.0,500.0,1.0,,,,,,,,,green,flipped triangle
0.0,7.0,2.0,1.0,5.0,5.0,803.3654099999694,1.0,1.0,phase_2,stop,500.0,500.0,3.0,,,,,,,,,white,triangle
0.0,6.0,1.0,1.0,5.0,5.0,984.5812523440144,1.0,1.0,phase_2,stop,450.0,500.0,3.0,,,,,,,,,orange,cross
0.0,7.0,2.0,1.0,5.0,5.0,659.8423973282479,1.0,1.0,phase_2,go,400.0,500.0,1.0,,,,,,,,,white,triangle
0.0,1.0,0.5,0.0,5.0,5.0,749.3106640158658,1.0,1.0,phase_2,go,400.0,500.0,1.0,,,,,,,,,magenta,square
0.0,1.0,0.5,0.0,6.0,6.0,426.12794068782017,2.0,1.0,phase_2,go,400.0,500.0,1.0,,,,,,,,,magenta,square
0.0,4.0,4.0,0.0,5.0,5.0,573.2853853437518,2.0,1.0,phase_2,go,400.0,500.0,1.0,,,,,,,,,cyan,diamond
0.0,5.0,0.5,1.0,5.0,5.0,371.2751683438,2.0,1.0,phase_2,stop,400.0,500.0,3.0,,,,,,,,,yellow,I
0.0,1.0,0.5,0.0,6.0,6.0,496.7142763439369,2.0,1.0,phase_2,go,350.0,500.0,1.0,,,,,,,,,magenta,square
0.0,6.0,1.0,1.0,6.0,6.0,373.79884437496,2.0,1.0,phase_2,stop,350.0,500.0,3.0,,,,,,,,,orange,cross
0.0,3.0,2.0,0.0,6.0,6.0,554.6203900312321,2.0,1.0,phase_2,go,350.0,450.0,1.0,,,,,,,,,gray,hexagon
0.0,4.0,4.0,0.0,6.0,6.0,398.2783626720447,2.0,1.0,phase_2,go,350.0,450.0,1.0,,,,,,,,,cyan,diamond
0.0,2.0,1.0,0.0,5.0,5.0,633.6908856719674,2.0,1.0,phase_2,go,350.0,450.0,1.0,,,,,,,,,green,flipped triangle
0.0,8.0,4.0,1.0,6.0,6.0,703.675249031221,2.0,1.0,phase_2,stop,350.0,450.0,3.0,,,,,,,,,blue,circle
0.0,7.0,2.0,1.0,5.0,0.0,0.0,2.0,1.0,phase_2,stop,350.0,400.0,4.0,,,,,,,,,white,triangle
0.0,7.0,2.0,1.0,6.0,6.0,490.7398653440395,2.0,1.0,phase_2,stop,400.0,400.0,3.0,,,,,,,,,white,triangle
0.0,1.0,0.5,0.0,5.0,5.0,515.2251403596892,2.0,1.0,phase_2,go,400.0,350.0,1.0,,,,,,,,,magenta,square
0.0,2.0,1.0,0.0,5.0,5.0,627.1160030000829,2.0,1.0,phase_2,go,400.0,350.0,1.0,,,,,,,,,green,flipped triangle
0.0,6.0,1.0,1.0,5.0,5.0,404.3577643437857,2.0,1.0,phase_2,go,400.0,350.0,1.0,,,,,,,,,orange,cross
0.0,6.0,1.0,1.0,6.0,0.0,0.0,2.0,1.0,phase_2,stop,400.0,350.0,4.0,,,,,,,,,orange,cross
0.0,1.0,0.5,0.0,6.0,6.0,471.3677220470345,2.0,1.0,phase_2,go,400.0,400.0,1.0,,,,,,,,,magenta,square
0.0,3.0,2.0,0.0,6.0,6.0,518.9694907030571,2.0,1.0,phase_2,go,400.0,400.0,1.0,,,,,,,,,gray,hexagon
0.0,8.0,4.0,1.0,5.0,5.0,475.3049563437344,2.0,1.0,phase_2,go,400.0,400.0,1.0,,,,,,,,,blue,circle
0.0,1.0,0.5,0.0,6.0,6.0,687.9275516721464,2.0,1.0,phase_2,go,400.0,400.0,1.0,,,,,,,,,magenta,square
0.0,5.0,0.5,1.0,5.0,5.0,555.6412680157337,2.0,1.0,phase_2,stop,400.0,400.0,3.0,,,,,,,,,yellow,I
0.0,2.0,1.0,0.0,6.0,6.0,555.1381570312515,2.0,1.0,phase_2,go,350.0,400.0,1.0,,,,,,,,,green,flipped triangle
0.0,2.0,1.0,0.0,6.0,6.0,771.0327443746792,2.0,1.0,phase_2,go,350.0,400.0,1.0,,,,,,,,,green,flipped triangle
0.0,2.0,1.0,0.0,5.0,5.0,411.9760280159426,2.0,1.0,phase_2,go,350.0,400.0,1.0,,,,,,,,,green,flipped triangle
0.0,5.0,0.5,1.0,5.0,0.0,0.0,2.0,1.0,phase_2,stop,350.0,400.0,4.0,,,,,,,,,yellow,I
0.0,8.0,4.0,1.0,6.0,6.0,457.9819229998065,2.0,1.0,phase_2,stop,400.0,400.0,3.0,,,,,,,,,blue,circle
0.0,7.0,2.0,1.0,6.0,6.0,548.7442540311349,2.0,1.0,phase_2,go,400.0,350.0,1.0,,,,,,,,,white,triangle
0.0,4.0,4.0,0.0,6.0,6.0,727.9495423595108,2.0,1.0,phase_2,go,400.0,350.0,1.0,,,,,,,,,cyan,diamond
0.0,5.0,0.5,1.0,6.0,6.0,391.4650753595197,2.0,1.0,phase_2,go,400.0,350.0,1.0,,,,,,,,,yellow,I
0.0,8.0,4.0,1.0,5.0,0.0,0.0,2.0,1.0,phase_2,stop,400.0,350.0,4.0,,,,,,,,,blue,circle
0.0,2.0,1.0,0.0,5.0,5.0,450.1896990159366,2.0,1.0,phase_2,go,450.0,350.0,1.0,,,,,,,,,green,flipped triangle
0.0,8.0,4.0,1.0,6.0,6.0,529.6089023750028,2.0,1.0,phase_2,go,450.0,350.0,1.0,,,,,,,,,blue,circle
0.0,5.0,0.5,1.0,6.0,0.0,0.0,2.0,1.0,phase_2,stop,450.0,350.0,4.0,,,,,,,,,yellow,I
0.0,6.0,1.0,1.0,5.0,5.0,497.6466080001955,2.0,1.0,phase_2,go,450.0,400.0,1.0,,,,,,,,,orange,cross
0.0,4.0,4.0,0.0,6.0,6.0,588.4844720003457,2.0,1.0,phase_2,go,450.0,400.0,1.0,,,,,,,,,cyan,diamond
0.0,8.0,4.0,1.0,6.0,6.0,590.3622690002521,2.0,1.0,phase_2,go,450.0,400.0,1.0,,,,,,,,,blue,circle
0.0,1.0,0.5,0.0,5.0,5.0,353.6055293438949,2.0,1.0,phase_2,go,450.0,400.0,1.0,,,,,,,,,magenta,square
0.0,3.0,2.0,0.0,6.0,6.0,348.955847374782,3.0,1.0,phase_2,go,450.0,400.0,1.0,,,,,,,,,gray,hexagon
0.0,1.0,0.5,0.0,6.0,6.0,384.9459383436624,3.0,1.0,phase_2,go,450.0,400.0,1.0,,,,,,,,,magenta,square
0.0,8.0,4.0,1.0,6.0,6.0,397.6044877031199,3.0,1.0,phase_2,go,450.0,400.0,1.0,,,,,,,,,blue,circle
0.0,6.0,1.0,1.0,6.0,6.0,565.1546496719675,3.0,1.0,phase_2,stop,450.0,400.0,3.0,,,,,,,,,orange,cross
0.0,8.0,4.0,1.0,5.0,0.0,0.0,3.0,1.0,phase_2,stop,450.0,350.0,4.0,,,,,,,,,blue,circle
0.0,1.0,0.5,0.0,6.0,6.0,308.1927973439633,3.0,1.0,phase_2,go,500.0,350.0,1.0,,,,,,,,,magenta,square
0.0,6.0,1.0,1.0,6.0,0.0,0.0,3.0,1.0,phase_2,stop,500.0,350.0,4.0,,,,,,,,,orange,cross
0.0,7.0,2.0,1.0,6.0,0.0,0.0,3.0,1.0,phase_2,stop,500.0,400.0,4.0,,,,,,,,,white,triangle
0.0,4.0,4.0,0.0,5.0,5.0,694.8033830158238,3.0,1.0,phase_2,go,500.0,450.0,1.0,,,,,,,,,cyan,diamond
0.0,4.0,4.0,0.0,5.0,5.0,380.8602480003173,3.0,1.0,phase_2,go,500.0,450.0,1.0,,,,,,,,,cyan,diamond
0.0,4.0,4.0,0.0,5.0,5.0,773.7413953441319,3.0,1.0,phase_2,go,500.0,450.0,1.0,,,,,,,,,cyan,diamond
0.0,1.0,0.5,0.0,6.0,6.0,673.1491723598992,3.0,1.0,phase_2,go,500.0,450.0,1.0,,,,,,,,,magenta,square
0.0,8.0,4.0,1.0,6.0,6.0,416.7622590002793,3.0,1.0,phase_2,stop,500.0,450.0,3.0,,,,,,,,,blue,circle
0.0,5.0,0.5,1.0,6.0,6.0,337.8640390310465,3.0,1.0,phase_2,go,500.0,400.0,1.0,,,,,,,,,yellow,I
0.0,8.0,4.0,1.0,6.0,6.0,372.4929593281558,3.0,1.0,phase_2,stop,500.0,400.0,3.0,,,,,,,,,blue,circle
0.0,7.0,2.0,1.0,6.0,0.0,0.0,3.0,1.0,phase_2,stop,500.0,350.0,4.0,,,,,,,,,white,triangle
0.0,3.0,2.0,0.0,5.0,5.0,565.3939099843228,3.0,1.0,phase_2,go,500.0,400.0,1.0,,,,,,,,,gray,hexagon
0.0,3.0,2.0,0.0,5.0,5.0,588.8445057034914,3.0,1.0,phase_2,go,500.0,400.0,1.0,,,,,,,,,gray,hexagon
0.0,6.0,1.0,1.0,6.0,6.0,533.8726453751406,3.0,1.0,phase_2,stop,500.0,400.0,3.0,,,,,,,,,orange,cross
0.0,4.0,4.0,0.0,6.0,6.0,747.6106600161074,3.0,1.0,phase_2,go,500.0,350.0,1.0,,,,,,,,,cyan,diamond
0.0,7.0,2.0,1.0,6.0,0.0,0.0,3.0,1.0,phase_2,stop,500.0,350.0,4.0,,,,,,,,,white,triangle
0.0,5.0,0.5,1.0,6.0,0.0,0.0,3.0,1.0,phase_2,stop,500.0,400.0,4.0,,,,,,,,,yellow,I
0.0,2.0,1.0,0.0,6.0,6.0,727.4346813596821,3.0,1.0,phase_2,go,500.0,450.0,1.0,,,,,,,,,green,flipped triangle
0.0,3.0,2.0,0.0,5.0,5.0,638.3427350160673,3.0,1.0,phase_2,go,500.0,450.0,1.0,,,,,,,,,gray,hexagon
0.0,5.0,0.5,1.0,5.0,5.0,549.8041576720425,3.0,1.0,phase_2,go,500.0,450.0,1.0,,,,,,,,,yellow,I
0.0,1.0,0.5,0.0,5.0,5.0,426.5250344219566,3.0,1.0,phase_2,go,500.0,450.0,1.0,,,,,,,,,magenta,square
0.0,1.0,0.5,0.0,6.0,6.0,471.590682031092,3.0,1.0,phase_2,go,500.0,450.0,1.0,,,,,,,,,magenta,square
0.0,6.0,1.0,1.0,6.0,6.0,326.8743246562735,3.0,1.0,phase_2,go,500.0,450.0,1.0,,,,,,,,,orange,cross
0.0,1.0,0.5,0.0,5.0,5.0,496.4885210156353,3.0,1.0,phase_2,go,500.0,450.0,1.0,,,,,,,,,magenta,square
0.0,5.0,0.5,1.0,5.0,5.0,555.0178833436803,3.0,1.0,phase_2,stop,500.0,450.0,3.0,,,,,,,,,yellow,I
0.0,7.0,2.0,1.0,5.0,5.0,632.8419793599096,3.0,1.0,phase_2,go,450.0,450.0,1.0,,,,,,,,,white,triangle
0.0,4.0,4.0,0.0,5.0,5.0,510.13542267219236,3.0,1.0,phase_2,go,450.0,450.0,1.0,,,,,,,,,cyan,diamond
0.0,6.0,1.0,1.0,5.0,5.0,411.2465103439717,3.0,1.0,phase_2,stop,450.0,450.0,3.0,,,,,,,,,orange,cross
0.0,1.0,0.5,0.0,6.0,6.0,906.3189570156284,3.0,1.0,phase_2,go,400.0,450.0,1.0,,,,,,,,,magenta,square
0.0,3.0,2.0,0.0,6.0,6.0,467.4933853439142,3.0,1.0,phase_2,go,400.0,450.0,1.0,,,,,,,,,gray,hexagon
0.0,2.0,1.0,0.0,5.0,5.0,739.7667026875752,3.0,1.0,phase_2,go,400.0,450.0,1.0,,,,,,,,,green,flipped triangle
0.0,1.0,0.5,0.0,5.0,5.0,442.0137133597563,4.0,1.0,phase_2,go,400.0,450.0,1.0,,,,,,,,,magenta,square
0.0,7.0,2.0,1.0,5.0,5.0,317.8970610310898,4.0,1.0,phase_2,stop,400.0,450.0,3.0,,,,,,,,,white,triangle
0.0,6.0,1.0,1.0,5.0,5.0,397.0231439998315,4.0,1.0,phase_2,stop,350.0,450.0,3.0,,,,,,,,,orange,cross
0.0,3.0,2.0,0.0,6.0,6.0,656.8640386717561,4.0,1.0,phase_2,go,300.0,450.0,1.0,,,,,,,,,gray,hexagon
0.0,8.0,4.0,1.0,6.0,6.0,399.777533015822,4.0,1.0,phase_2,stop,300.0,450.0,3.0,,,,,,,,,blue,circle
0.0,4.0,4.0,0.0,5.0,5.0,637.5258586876953,4.0,1.0,phase_2,go,300.0,400.0,1.0,,,,,,,,,cyan,diamond
0.0,5.0,0.5,1.0,6.0,6.0,445.7334996723148,4.0,1.0,phase_2,stop,300.0,400.0,3.0,,,,,,,,,yellow,I
0.0,2.0,1.0,0.0,5.0,5.0,672.7332460313846,4.0,1.0,phase_2,go,300.0,350.0,1.0,,,,,,,,,green,flipped triangle
0.0,2.0,1.0,0.0,5.0,5.0,492.8564707029181,4.0,1.0,phase_2,go,300.0,350.0,1.0,,,,,,,,,green,flipped triangle
0.0,3.0,2.0,0.0,5.0,5.0,549.0760596721884,4.0,1.0,phase_2,go,300.0,350.0,1.0,,,,,,,,,gray,hexagon
0.0,8.0,4.0,1.0,5.0,0.0,0.0,4.0,1.0,phase_2,stop,300.0,350.0,4.0,,,,,,,,,blue,circle
0.0,4.0,4.0,0.0,6.0,6.0,617.8854217032494,4.0,1.0,phase_2,go,350.0,350.0,1.0,,,,,,,,,cyan,diamond
0.0,7.0,2.0,1.0,6.0,6.0,483.8336103748588,4.0,1.0,phase_2,stop,350.0,350.0,3.0,,,,,,,,,white,triangle
0.0,4.0,4.0,0.0,6.0,6.0,743.4046273751846,4.0,1.0,phase_2,go,350.0,300.0,1.0,,,,,,,,,cyan,diamond
0.0,3.0,2.0,0.0,5.0,5.0,666.4536907028378,4.0,1.0,phase_2,go,350.0,300.0,1.0,,,,,,,,,gray,hexagon
0.0,8.0,4.0,1.0,5.0,0.0,0.0,4.0,1.0,phase_2,stop,350.0,300.0,4.0,,,,,,,,,blue,circle
0.0,2.0,1.0,0.0,6.0,6.0,622.077423015071,4.0,1.0,phase_2,go,400.0,300.0,1.0,,,,,,,,,green,flipped triangle
0.0,2.0,1.0,0.0,5.0,5.0,668.2955583592047,4.0,1.0,phase_2,go,400.0,300.0,1.0,,,,,,,,,green,flipped triangle
0.0,4.0,4.0,0.0,6.0,6.0,545.125685687708,4.0,1.0,phase_2,go,400.0,300.0,1.0,,,,,,,,,cyan,diamond
0.0,3.0,2.0,0.0,6.0,6.0,557.0147560156329,4.0,1.0,phase_2,go,400.0,300.0,1.0,,,,,,,,,gray,hexagon
0.0,4.0,4.0,0.0,5.0,5.0,413.6244000310398,4.0,1.0,phase_2,go,400.0,300.0,1.0,,,,,,,,,cyan,diamond
0.0,6.0,1.0,1.0,6.0,6.0,368.9163213757638,4.0,1.0,phase_2,stop,400.0,300.0,3.0,,,,,,,,,orange,cross
0.0,2.0,1.0,0.0,5.0,5.0,572.2695959993871,4.0,1.0,phase_2,go,400.0,250.0,1.0,,,,,,,,,green,flipped triangle
0.0,5.0,0.5,1.0,5.0,0.0,0.0,4.0,1.0,phase_2,stop,400.0,250.0,4.0,,,,,,,,,yellow,I
0.0,6.0,1.0,1.0,6.0,0.0,0.0,4.0,1.0,phase_2,stop,450.0,250.0,4.0,,,,,,,,,orange,cross
0.0,4.0,4.0,0.0,5.0,5.0,528.8853366873809,4.0,1.0,phase_2,go,450.0,300.0,1.0,,,,,,,,,cyan,diamond
0.0,3.0,2.0,0.0,6.0,6.0,710.3724080316169,4.0,1.0,phase_2,go,450.0,300.0,1.0,,,,,,,,,gray,hexagon
0.0,8.0,4.0,1.0,6.0,0.0,0.0,4.0,1.0,phase_2,stop,450.0,300.0,4.0,,,,,,,,,blue,circle
0.0,2.0,1.0,0.0,6.0,6.0,576.7442143587687,4.0,1.0,phase_2,go,450.0,350.0,1.0,,,,,,,,,green,flipped triangle
0.0,3.0,2.0,0.0,6.0,6.0,690.5796380151514,4.0,1.0,phase_2,go,450.0,350.0,1.0,,,,,,,,,gray,hexagon
0.0,3.0,2.0,0.0,6.0,6.0,454.8309620158761,4.0,1.0,phase_2,go,450.0,350.0,1.0,,,,,,,,,gray,hexagon
0.0,7.0,2.0,1.0,5.0,5.0,444.0540453588255,4.0,1.0,phase_2,stop,450.0,350.0,3.0,,,,,,,,,white,triangle
0.0,1.0,0.5,0.0,6.0,6.0,491.1786000466236,4.0,1.0,phase_2,go,400.0,350.0,1.0,,,,,,,,,magenta,square
0.0,8.0,4.0,1.0,5.0,0.0,0.0,4.0,1.0,phase_2,stop,400.0,350.0,4.0,,,,,,,,,blue,circle
0.0,5.0,0.5,1.0,6.0,0.0,0.0,4.0,1.0,phase_2,stop,450.0,350.0,4.0,,,,,,,,,yellow,I
0.0,4.0,4.0,0.0,5.0,5.0,414.340372015431,4.0,1.0,phase_2,go,450.0,400.0,1.0,,,,,,,,,cyan,diamond
0.0,5.0,0.5,1.0,6.0,6.0,345.8638263755347,5.0,1.0,phase_2,stop,450.0,400.0,3.0,,,,,,,,,yellow,I
0.0,1.0,0.5,0.0,5.0,5.0,436.712063046798,5.0,1.0,phase_2,go,450.0,350.0,1.0,,,,,,,,,magenta,square
0.0,4.0,4.0,0.0,5.0,5.0,525.9175453438729,5.0,1.0,phase_2,go,450.0,350.0,1.0,,,,,,,,,cyan,diamond
0.0,5.0,0.5,1.0,6.0,6.0,717.7079736720771,5.0,1.0,phase_2,go,450.0,350.0,1.0,,,,,,,,,yellow,I
0.0,5.0,0.5,1.0,5.0,5.0,515.9130883284888,5.0,1.0,phase_2,stop,450.0,350.0,3.0,,,,,,,,,yellow,I
0.0,4.0,4.0,0.0,5.0,5.0,494.69518870319,5.0,1.0,phase_2,go,400.0,350.0,1.0,,,,,,,,,cyan,diamond
0.0,2.0,1.0,0.0,6.0,6.0,495.0945443752061,5.0,1.0,phase_2,go,400.0,350.0,1.0,,,,,,,,,green,flipped triangle
0.0,3.0,2.0,0.0,5.0,5.0,473.5122953752579,5.0,1.0,phase_2,go,400.0,350.0,1.0,,,,,,,,,gray,hexagon
0.0,4.0,4.0,0.0,6.0,6.0,363.4728589850056,5.0,1.0,phase_2,go,400.0,350.0,1.0,,,,,,,,,cyan,diamond
0.0,5.0,0.5,1.0,6.0,0.0,0.0,5.0,1.0,phase_2,stop,400.0,350.0,4.0,,,,,,,,,yellow,I
0.0,2.0,1.0,0.0,6.0,6.0,499.0472450317611,5.0,1.0,phase_2,go,400.0,400.0,1.0,,,,,,,,,green,flipped triangle
0.0,6.0,1.0,1.0,5.0,5.0,681.2163460317606,5.0,1.0,phase_2,go,400.0,400.0,1.0,,,,,,,,,orange,cross
0.0,6.0,1.0,1.0,6.0,0.0,0.0,5.0,1.0,phase_2,stop,400.0,400.0,4.0,,,,,,,,,orange,cross
0.0,7.0,2.0,1.0,5.0,5.0,321.73202337617107,5.0,1.0,phase_2,stop,400.0,450.0,3.0,,,,,,,,,white,triangle
0.0,8.0,4.0,1.0,5.0,0.0,0.0,5.0,1.0,phase_2,stop,350.0,450.0,4.0,,,,,,,,,blue,circle
0.0,4.0,4.0,0.0,5.0,5.0,481.9925266710925,5.0,1.0,phase_2,go,400.0,450.0,1.0,,,,,,,,,cyan,diamond
0.0,7.0,2.0,1.0,5.0,5.0,380.2578020313376,5.0,1.0,phase_2,stop,400.0,450.0,3.0,,,,,,,,,white,triangle
0.0,3.0,2.0,0.0,5.0,5.0,404.1980636884545,5.0,1.0,phase_2,go,350.0,450.0,1.0,,,,,,,,,gray,hexagon
0.0,1.0,0.5,0.0,5.0,5.0,471.8434880151108,5.0,1.0,phase_2,go,350.0,450.0,1.0,,,,,,,,,magenta,square
0.0,2.0,1.0,0.0,6.0,6.0,484.0853297027934,5.0,1.0,phase_2,go,350.0,450.0,1.0,,,,,,,,,green,flipped triangle
0.0,1.0,0.5,0.0,5.0,5.0,576.3577113439169,5.0,1.0,phase_2,go,350.0,450.0,1.0,,,,,,,,,magenta,square
0.0,5.0,0.5,1.0,5.0,5.0,453.1070620150785,5.0,1.0,phase_2,stop,350.0,450.0,3.0,,,,,,,,,yellow,I
0.0,8.0,4.0,1.0,5.0,5.0,722.0143186714267,5.0,1.0,phase_2,go,300.0,450.0,1.0,,,,,,,,,blue,circle
0.0,5.0,0.5,1.0,6.0,6.0,533.5876360149996,5.0,1.0,phase_2,stop,300.0,450.0,3.0,,,,,,,,,yellow,I
0.0,2.0,1.0,0.0,6.0,6.0,487.5627967030596,5.0,1.0,phase_2,go,300.0,400.0,1.0,,,,,,,,,green,flipped triangle
0.0,5.0,0.5,1.0,5.0,0.0,0.0,5.0,1.0,phase_2,stop,300.0,400.0,4.0,,,,,,,,,yellow,I
0.0,3.0,2.0,0.0,6.0,6.0,478.7207533754554,5.0,1.0,phase_2,go,350.0,400.0,1.0,,,,,,,,,gray,hexagon
0.0,6.0,1.0,1.0,5.0,0.0,0.0,5.0,1.0,phase_2,stop,350.0,400.0,4.0,,,,,,,,,orange,cross
0.0,1.0,0.5,0.0,5.0,5.0,660.5476826871381,5.0,1.0,phase_2,go,400.0,400.0,1.0,,,,,,,,,magenta,square
0.0,2.0,1.0,0.0,6.0,6.0,514.1508173292095,5.0,1.0,phase_2,go,400.0,400.0,1.0,,,,,,,,,green,flipped triangle
0.0,1.0,0.5,0.0,5.0,5.0,504.1692403756315,5.0,1.0,phase_2,go,400.0,400.0,1.0,,,,,,,,,magenta,square
0.0,7.0,2.0,1.0,6.0,6.0,410.4160514525574,5.0,1.0,phase_2,stop,400.0,400.0,3.0,,,,,,,,,white,triangle
0.0,2.0,1.0,0.0,5.0,5.0,460.8151603597434,5.0,1.0,phase_2,go,400.0,350.0,1.0,,,,,,,,,green,flipped triangle
0.0,6.0,1.0,1.0,5.0,5.0,382.3047666719503,5.0,1.0,phase_2,stop,400.0,350.0,3.0,,,,,,,,,orange,cross
0.0,7.0,2.0,1.0,5.0,0.0,0.0,5.0,1.0,phase_2,stop,350.0,350.0,4.0,,,,,,,,,white,triangle
0.0,3.0,2.0,0.0,5.0,5.0,520.0323983435737,5.0,1.0,phase_2,go,400.0,350.0,1.0,,,,,,,,,gray,hexagon
0.0,4.0,4.0,0.0,6.0,6.0,541.5234470319774,6.0,1.0,phase_2,go,400.0,350.0,1.0,,,,,,,,,cyan,diamond
0.0,7.0,2.0,1.0,5.0,0.0,0.0,6.0,1.0,phase_2,stop,400.0,350.0,4.0,,,,,,,,,white,triangle
0.0,8.0,4.0,1.0,6.0,0.0,0.0,6.0,1.0,phase_2,stop,450.0,350.0,4.0,,,,,,,,,blue,circle
0.0,8.0,4.0,1.0,6.0,6.0,656.9926056718032,6.0,1.0,phase_2,go,450.0,400.0,1.0,,,,,,,,,blue,circle
0.0,8.0,4.0,1.0,6.0,0.0,0.0,6.0,1.0,phase_2,stop,450.0,400.0,4.0,,,,,,,,,blue,circle
0.0,4.0,4.0,0.0,6.0,6.0,568.8898746711857,6.0,1.0,phase_2,go,450.0,450.0,1.0,,,,,,,,,cyan,diamond
0.0,7.0,2.0,1.0,6.0,6.0,602.4392863591856,6.0,1.0,phase_2,stop,450.0,450.0,3.0,,,,,,,,,white,triangle
0.0,1.0,0.5,0.0,6.0,6.0,502.76164901515585,6.0,1.0,phase_2,go,450.0,400.0,1.0,,,,,,,,,magenta,square
0.0,7.0,2.0,1.0,5.0,5.0,964.550869031882,6.0,1.0,phase_2,go,450.0,400.0,1.0,,,,,,,,,white,triangle
0.0,6.0,1.0,1.0,6.0,0.0,0.0,6.0,1.0,phase_2,stop,450.0,400.0,4.0,,,,,,,,,orange,cross
0.0,6.0,1.0,1.0,5.0,0.0,0.0,6.0,1.0,phase_2,stop,450.0,450.0,4.0,,,,,,,,,orange,cross
0.0,3.0,2.0,0.0,6.0,6.0,540.9300010314837,6.0,1.0,phase_2,go,500.0,450.0,1.0,,,,,,,,,gray,hexagon
0.0,8.0,4.0,1.0,6.0,0.0,0.0,6.0,1.0,phase_2,stop,500.0,450.0,4.0,,,,,,,,,blue,circle
0.0,7.0,2.0,1.0,6.0,0.0,0.0,6.0,1.0,phase_2,stop,500.0,500.0,4.0,,,,,,,,,white,triangle
0.0,4.0,4.0,0.0,6.0,6.0,419.0432206714831,6.0,1.0,phase_2,go,500.0,550.0,1.0,,,,,,,,,cyan,diamond
0.0,6.0,1.0,1.0,5.0,0.0,0.0,6.0,1.0,phase_2,stop,500.0,550.0,4.0,,,,,,,,,orange,cross
0.0,1.0,0.5,0.0,6.0,6.0,511.28061334384256,6.0,1.0,phase_2,go,550.0,550.0,1.0,,,,,,,,,magenta,square
0.0,4.0,4.0,0.0,6.0,6.0,523.0865937037379,6.0,1.0,phase_2,go,550.0,550.0,1.0,,,,,,,,,cyan,diamond
0.0,6.0,1.0,1.0,5.0,0.0,0.0,6.0,1.0,phase_2,stop,550.0,550.0,4.0,,,,,,,,,orange,cross
0.0,7.0,2.0,1.0,6.0,6.0,1020.1223156873311,6.0,1.0,phase_2,go,600.0,550.0,1.0,,,,,,,,,white,triangle
0.0,7.0,2.0,1.0,5.0,5.0,469.0818773588034,6.0,1.0,phase_2,stop,600.0,550.0,3.0,,,,,,,,,white,triangle
0.0,3.0,2.0,0.0,6.0,6.0,446.1860053443161,6.0,1.0,phase_2,go,550.0,550.0,1.0,,,,,,,,,gray,hexagon
0.0,5.0,0.5,1.0,5.0,0.0,0.0,6.0,1.0,phase_2,stop,550.0,550.0,4.0,,,,,,,,,yellow,I
0.0,6.0,1.0,1.0,5.0,0.0,0.0,6.0,1.0,phase_2,stop,600.0,550.0,4.0,,,,,,,,,orange,cross
0.0,6.0,1.0,1.0,6.0,6.0,732.0221403442702,6.0,1.0,phase_2,stop,650.0,550.0,3.0,,,,,,,,,orange,cross
0.0,1.0,0.5,0.0,6.0,6.0,360.5213820155768,6.0,1.0,phase_2,go,650.0,500.0,1.0,,,,,,,,,magenta,square
0.0,2.0,1.0,0.0,6.0,6.0,596.8401713598723,6.0,1.0,phase_2,go,650.0,500.0,1.0,,,,,,,,,green,flipped triangle
0.0,6.0,1.0,1.0,5.0,5.0,835.1346290000947,6.0,1.0,phase_2,go,650.0,500.0,1.0,,,,,,,,,orange,cross
0.0,4.0,4.0,0.0,6.0,6.0,474.555183328448,6.0,1.0,phase_2,go,650.0,500.0,1.0,,,,,,,,,cyan,diamond
0.0,8.0,4.0,1.0,5.0,5.0,690.087948359178,6.0,1.0,phase_2,stop,650.0,500.0,3.0,,,,,,,,,blue,circle
0.0,1.0,0.5,0.0,5.0,5.0,522.6407950312932,6.0,1.0,phase_2,go,600.0,500.0,1.0,,,,,,,,,magenta,square
0.0,7.0,2.0,1.0,5.0,5.0,488.9545773439749,6.0,1.0,phase_2,stop,600.0,500.0,3.0,,,,,,,,,white,triangle
0.0,4.0,4.0,0.0,5.0,5.0,422.269430671804,6.0,1.0,phase_2,go,550.0,500.0,1.0,,,,,,,,,cyan,diamond
0.0,8.0,4.0,1.0,5.0,0.0,0.0,6.0,1.0,phase_2,stop,550.0,500.0,4.0,,,,,,,,,blue,circle
0.0,4.0,4.0,0.0,6.0,6.0,468.9821570473214,6.0,1.0,phase_2,go,600.0,500.0,1.0,,,,,,,,,cyan,diamond
0.0,1.0,0.5,0.0,5.0,5.0,458.3270936873305,6.0,1.0,phase_2,go,600.0,500.0,1.0,,,,,,,,,magenta,square
0.0,5.0,0.5,1.0,6.0,6.0,660.2219870319459,7.0,1.0,phase_2,stop,600.0,500.0,3.0,,,,,,,,,yellow,I
0.0,5.0,0.5,1.0,5.0,0.0,0.0,7.0,1.0,phase_2,stop,600.0,450.0,4.0,,,,,,,,,yellow,I
0.0,1.0,0.5,0.0,5.0,5.0,527.8677030291874,7.0,1.0,phase_2,go,650.0,450.0,1.0,,,,,,,,,magenta,square
0.0,4.0,4.0,0.0,6.0,6.0,493.2162110317222,7.0,1.0,phase_2,go,650.0,450.0,1.0,,,,,,,,,cyan,diamond
0.0,4.0,4.0,0.0,5.0,5.0,551.6003607026505,7.0,1.0,phase_2,go,650.0,450.0,1.0,,,,,,,,,cyan,diamond
0.0,8.0,4.0,1.0,5.0,0.0,0.0,7.0,1.0,phase_2,stop,650.0,450.0,4.0,,,,,,,,,blue,circle
0.0,1.0,0.5,0.0,5.0,5.0,587.6062689840182,7.0,1.0,phase_2,go,700.0,450.0,1.0,,,,,,,,,magenta,square
0.0,3.0,2.0,0.0,5.0,5.0,496.5913266878488,7.0,1.0,phase_2,go,700.0,450.0,1.0,,,,,,,,,gray,hexagon
0.0,7.0,2.0,1.0,6.0,6.0,487.3304000466305,7.0,1.0,phase_2,go,700.0,450.0,1.0,,,,,,,,,white,triangle
0.0,2.0,1.0,0.0,5.0,5.0,464.8338653587416,7.0,1.0,phase_2,go,700.0,450.0,1.0,,,,,,,,,green,flipped triangle
0.0,5.0,0.5,1.0,5.0,5.0,950.6795196875828,7.0,1.0,phase_2,go,700.0,450.0,1.0,,,,,,,,,yellow,I
0.0,6.0,1.0,1.0,6.0,0.0,0.0,7.0,1.0,phase_2,stop,700.0,450.0,4.0,,,,,,,,,orange,cross
0.0,8.0,4.0,1.0,6.0,0.0,0.0,7.0,1.0,phase_2,stop,700.0,500.0,4.0,,,,,,,,,blue,circle
0.0,1.0,0.5,0.0,6.0,6.0,626.3295643757374,7.0,1.0,phase_2,go,700.0,550.0,1.0,,,,,,,,,magenta,square
0.0,5.0,0.5,1.0,6.0,6.0,828.6912087023666,7.0,1.0,phase_2,go,700.0,550.0,1.0,,,,,,,,,yellow,I
0.0,3.0,2.0,0.0,5.0,5.0,458.6335510002755,7.0,1.0,phase_2,go,700.0,550.0,1.0,,,,,,,,,gray,hexagon
0.0,3.0,2.0,0.0,5.0,5.0,414.5542520318486,7.0,1.0,phase_2,go,700.0,550.0,1.0,,,,,,,,,gray,hexagon
0.0,4.0,4.0,0.0,5.0,5.0,482.8775757023322,7.0,1.0,phase_2,go,700.0,550.0,1.0,,,,,,,,,cyan,diamond
0.0,6.0,1.0,1.0,6.0,6.0,709.8434946710768,7.0,1.0,phase_2,stop,700.0,550.0,3.0,,,,,,,,,orange,cross
0.0,2.0,1.0,0.0,6.0,6.0,575.8113430320009,7.0,1.0,phase_2,go,700.0,500.0,1.0,,,,,,,,,green,flipped triangle
0.0,7.0,2.0,1.0,5.0,5.0,676.9361480319276,7.0,1.0,phase_2,stop,700.0,500.0,3.0,,,,,,,,,white,triangle
0.0,8.0,4.0,1.0,6.0,6.0,914.52131799997,7.0,1.0,phase_2,go,650.0,500.0,1.0,,,,,,,,,blue,circle
0.0,2.0,1.0,0.0,6.0,6.0,452.6407943594677,7.0,1.0,phase_2,go,650.0,500.0,1.0,,,,,,,,,green,flipped triangle
0.0,4.0,4.0,0.0,5.0,5.0,488.2746323282845,7.0,1.0,phase_2,go,650.0,500.0,1.0,,,,,,,,,cyan,diamond
0.0,8.0,4.0,1.0,6.0,0.0,0.0,7.0,1.0,phase_2,stop,650.0,500.0,4.0,,,,,,,,,blue,circle
0.0,8.0,4.0,1.0,5.0,0.0,0.0,7.0,1.0,phase_2,stop,650.0,550.0,4.0,,,,,,,,,blue,circle
0.0,2.0,1.0,0.0,6.0,6.0,547.6753886559891,7.0,1.0,phase_2,go,700.0,550.0,1.0,,,,,,,,,green,flipped triangle
0.0,6.0,1.0,1.0,6.0,0.0,0.0,7.0,1.0,phase_2,stop,700.0,550.0,4.0,,,,,,,,,orange,cross
0.0,8.0,4.0,1.0,5.0,0.0,0.0,7.0,1.0,phase_2,stop,700.0,600.0,4.0,,,,,,,,,blue,circle
0.0,7.0,2.0,1.0,5.0,5.0,797.9622540315177,7.0,1.0,phase_2,go,750.0,600.0,1.0,,,,,,,,,white,triangle
0.0,3.0,2.0,0.0,6.0,6.0,573.187718344343,7.0,1.0,phase_2,go,750.0,600.0,1.0,,,,,,,,,gray,hexagon
0.0,3.0,2.0,0.0,6.0,6.0,507.1245050003199,7.0,1.0,phase_2,go,750.0,600.0,1.0,,,,,,,,,gray,hexagon
0.0,7.0,2.0,1.0,6.0,6.0,720.4184683751009,7.0,1.0,phase_2,stop,750.0,600.0,3.0,,,,,,,,,white,triangle
0.0,6.0,1.0,1.0,6.0,0.0,0.0,7.0,1.0,phase_2,stop,750.0,550.0,4.0,,,,,,,,,orange,cross
0.0,2.0,1.0,0.0,6.0,6.0,700.7457936715582,7.0,1.0,phase_2,go,750.0,600.0,1.0,,,,,,,,,green,flipped triangle
0.0,3.0,2.0,0.0,5.0,5.0,621.6605216714015,7.0,1.0,phase_2,go,750.0,600.0,1.0,,,,,,,,,gray,hexagon
0.0,3.0,2.0,0.0,5.0,5.0,653.6842593595793,8.0,1.0,phase_2,go,750.0,600.0,1.0,,,,,,,,,gray,hexagon
0.0,5.0,0.5,1.0,5.0,5.0,777.6703326881034,8.0,1.0,phase_2,stop,750.0,600.0,3.0,,,,,,,,,yellow,I
0.0,4.0,4.0,0.0,6.0,6.0,520.1730550152206,8.0,1.0,phase_2,go,700.0,600.0,1.0,,,,,,,,,cyan,diamond
0.0,4.0,4.0,0.0,5.0,5.0,577.7732803444451,8.0,1.0,phase_2,go,700.0,600.0,1.0,,,,,,,,,cyan,diamond
0.0,8.0,4.0,1.0,6.0,6.0,869.440537328046,8.0,1.0,phase_2,go,700.0,600.0,1.0,,,,,,,,,blue,circle
0.0,3.0,2.0,0.0,5.0,5.0,420.5001273285234,8.0,1.0,phase_2,go,700.0,600.0,1.0,,,,,,,,,gray,hexagon
0.0,6.0,1.0,1.0,5.0,5.0,1018.1429136719089,8.0,1.0,phase_2,go,700.0,600.0,1.0,,,,,,,,,orange,cross
0.0,7.0,2.0,1.0,6.0,6.0,759.8947770147788,8.0,1.0,phase_2,stop,700.0,600.0,3.0,,,,,,,,,white,triangle
0.0,5.0,0.5,1.0,5.0,0.0,0.0,8.0,1.0,phase_2,stop,700.0,550.0,4.0,,,,,,,,,yellow,I
0.0,5.0,0.5,1.0,5.0,0.0,0.0,8.0,1.0,phase_2,stop,750.0,550.0,4.0,,,,,,,,,yellow,I
0.0,4.0,4.0,0.0,6.0,6.0,515.0280617817771,8.0,1.0,phase_2,go,800.0,550.0,1.0,,,,,,,,,cyan,diamond
0.0,5.0,0.5,1.0,6.0,0.0,0.0,8.0,1.0,phase_2,stop,800.0,550.0,4.0,,,,,,,,,yellow,I
0.0,4.0,4.0,0.0,6.0,6.0,493.6877093432485,8.0,1.0,phase_2,go,800.0,600.0,1.0,,,,,,,,,cyan,diamond
0.0,2.0,1.0,0.0,6.0,6.0,485.1953710149246,8.0,1.0,phase_2,go,800.0,600.0,1.0,,,,,,,,,green,flipped triangle
0.0,3.0,2.0,0.0,6.0,6.0,508.16820535965235,8.0,1.0,phase_2,go,800.0,600.0,1.0,,,,,,,,,gray,hexagon
0.0,6.0,1.0,1.0,5.0,5.0,901.9160276875482,8.0,1.0,phase_2,go,800.0,600.0,1.0,,,,,,,,,orange,cross
0.0,6.0,1.0,1.0,6.0,6.0,598.2523843440504,8.0,1.0,phase_2,stop,800.0,600.0,3.0,,,,,,,,,orange,cross
0.0,5.0,0.5,1.0,5.0,0.0,0.0,8.0,1.0,phase_2,stop,800.0,550.0,4.0,,,,,,,,,yellow,I
0.0,5.0,0.5,1.0,6.0,0.0,0.0,8.0,1.0,phase_2,stop,850.0,550.0,4.0,,,,,,,,,yellow,I
0.0,3.0,2.0,0.0,5.0,5.0,477.3228453432239,8.0,1.0,phase_2,go,850.0,600.0,1.0,,,,,,,,,gray,hexagon
0.0,5.0,0.5,1.0,5.0,5.0,927.7909663760512,8.0,1.0,phase_2,go,850.0,600.0,1.0,,,,,,,,,yellow,I
0.0,5.0,0.5,1.0,6.0,6.0,862.7881940310544,8.0,1.0,phase_2,go,850.0,600.0,1.0,,,,,,,,,yellow,I
0.0,2.0,1.0,0.0,5.0,5.0,503.2499073759027,8.0,1.0,phase_2,go,850.0,600.0,1.0,,,,,,,,,green,flipped triangle
0.0,2.0,1.0,0.0,5.0,5.0,367.8540336877631,8.0,1.0,phase_2,go,850.0,600.0,1.0,,,,,,,,,green,flipped triangle
0.0,5.0,0.5,1.0,5.0,5.0,673.5636386711121,8.0,1.0,phase_2,stop,850.0,600.0,3.0,,,,,,,,,yellow,I
0.0,2.0,1.0,0.0,5.0,5.0,516.648046359478,8.0,1.0,phase_2,go,800.0,600.0,1.0,,,,,,,,,green,flipped triangle
0.0,8.0,4.0,1.0,6.0,0.0,0.0,8.0,1.0,phase_2,stop,800.0,600.0,4.0,,,,,,,,,blue,circle
0.0,7.0,2.0,1.0,6.0,0.0,0.0,8.0,1.0,phase_2,stop,800.0,650.0,4.0,,,,,,,,,white,triangle
0.0,1.0,0.5,0.0,6.0,6.0,529.3503456559847,8.0,1.0,phase_2,go,800.0,700.0,1.0,,,,,,,,,magenta,square
0.0,6.0,1.0,1.0,5.0,5.0,912.4828886879186,8.0,1.0,phase_2,go,800.0,700.0,1.0,,,,,,,,,orange,cross
0.0,2.0,1.0,0.0,6.0,6.0,609.8659446715828,8.0,1.0,phase_2,go,800.0,700.0,1.0,,,,,,,,,green,flipped triangle
0.0,6.0,1.0,1.0,6.0,6.0,690.5977546875874,8.0,1.0,phase_2,stop,800.0,700.0,3.0,,,,,,,,,orange,cross
0.0,8.0,4.0,1.0,5.0,5.0,972.8682573431796,8.0,1.0,phase_2,go,800.0,650.0,1.0,,,,,,,,,blue,circle
0.0,1.0,0.5,0.0,5.0,5.0,522.9323193443633,8.0,1.0,phase_2,go,800.0,650.0,1.0,,,,,,,,,magenta,square
0.0,7.0,2.0,1.0,6.0,6.0,592.2130197022852,8.0,1.0,phase_2,stop,800.0,650.0,3.0,,,,,,,,,white,triangle
0.0,1.0,0.5,0.0,6.0,6.0,535.1706833753269,8.0,1.0,phase_2,go,800.0,600.0,1.0,,,,,,,,,magenta,square
0.0,5.0,0.5,1.0,7.0,3.0,875.0439628829554,1.0,2.0,phase_3,,,,,245.0,5.0,196.0,147.0,245.0,294.0,98.0,49.0,yellow,I
0.0,1.0,0.5,0.0,7.0,2.0,2472.472743441358,1.0,1.0,phase_3,,,,,49.0,1.0,294.0,49.0,147.0,98.0,245.0,196.0,magenta,square
0.0,8.0,4.0,1.0,7.0,4.0,2475.5596750519544,1.0,1.0,phase_3,,,,,324.0,6.0,216.0,162.0,108.0,324.0,270.0,54.0,blue,circle
0.0,5.0,0.5,1.0,7.0,1.0,2296.046358052081,1.0,1.0,phase_3,,,,,234.0,6.0,234.0,195.0,156.0,117.0,78.0,39.0,yellow,I
0.0,4.0,4.0,0.0,7.0,3.0,2712.9120268309634,1.0,1.0,phase_3,,,,,88.0,2.0,132.0,220.0,88.0,264.0,44.0,176.0,cyan,diamond
0.0,7.0,2.0,1.0,7.0,2.0,2060.8389444923887,1.0,1.0,phase_3,,,,,204.0,6.0,170.0,204.0,68.0,102.0,136.0,34.0,white,triangle
0.0,8.0,4.0,1.0,7.0,1.0,2074.383018051776,1.0,1.0,phase_3,,,,,264.0,6.0,264.0,176.0,132.0,88.0,220.0,44.0,blue,circle
0.0,2.0,1.0,0.0,7.0,4.0,1905.5187896610728,1.0,1.0,phase_3,,,,,34.0,1.0,102.0,136.0,68.0,34.0,170.0,204.0,green,flipped triangle
0.0,1.0,0.5,0.0,7.0,5.0,1974.3158734409008,1.0,1.0,phase_3,,,,,44.0,1.0,176.0,220.0,132.0,264.0,44.0,88.0,magenta,square
0.0,4.0,4.0,0.0,7.0,5.0,1997.8644232205625,1.0,1.0,phase_3,,,,,78.0,2.0,234.0,117.0,39.0,195.0,78.0,156.0,cyan,diamond
0.0,8.0,4.0,1.0,7.0,6.0,2493.7558506608184,1.0,1.0,phase_3,,,,,234.0,6.0,117.0,195.0,39.0,156.0,78.0,234.0,blue,circle
0.0,6.0,1.0,1.0,7.0,6.0,2314.7298782714643,1.0,1.0,phase_3,,,,,196.0,4.0,98.0,294.0,245.0,49.0,147.0,196.0,orange,cross
0.0,2.0,1.0,0.0,7.0,1.0,1529.5374494407952,1.0,1.0,phase_3,,,,,88.0,2.0,88.0,132.0,220.0,44.0,264.0,176.0,green,flipped triangle
0.0,1.0,0.5,0.0,7.0,5.0,2361.701200882635,1.0,1.0,phase_3,,,,,88.0,2.0,220.0,264.0,44.0,132.0,88.0,176.0,magenta,square
0.0,7.0,2.0,1.0,7.0,1.0,3343.371376831783,1.0,1.0,phase_3,,,,,132.0,3.0,132.0,88.0,264.0,44.0,220.0,176.0,white,triangle
0.0,6.0,1.0,1.0,7.0,5.0,2048.837001882021,1.0,1.0,phase_3,,,,,324.0,6.0,162.0,216.0,54.0,108.0,324.0,270.0,orange,cross
0.0,5.0,0.5,1.0,7.0,2.0,1577.8492408826423,1.0,1.0,phase_3,,,,,294.0,6.0,196.0,294.0,147.0,98.0,245.0,49.0,yellow,I
0.0,1.0,0.5,0.0,7.0,3.0,2029.2263864412234,1.0,1.0,phase_3,,,,,68.0,2.0,102.0,204.0,68.0,170.0,136.0,34.0,magenta,square
0.0,3.0,2.0,0.0,7.0,5.0,1930.5464862718509,1.0,1.0,phase_3,,,,,49.0,1.0,294.0,196.0,245.0,147.0,49.0,98.0,gray,hexagon
0.0,6.0,1.0,1.0,7.0,3.0,2132.4312934411864,1.0,1.0,phase_3,,,,,204.0,6.0,170.0,136.0,204.0,34.0,102.0,68.0,orange,cross
0.0,8.0,4.0,1.0,7.0,3.0,1399.8817102710746,2.0,1.0,phase_3,,,,,294.0,6.0,98.0,245.0,294.0,49.0,147.0,196.0,blue,circle
0.0,2.0,1.0,0.0,7.0,2.0,1447.2045728816738,2.0,1.0,phase_3,,,,,98.0,2.0,196.0,98.0,245.0,147.0,49.0,294.0,green,flipped triangle
0.0,3.0,2.0,0.0,7.0,4.0,1481.0709380517435,2.0,1.0,phase_3,,,,,162.0,3.0,270.0,324.0,108.0,162.0,54.0,216.0,gray,hexagon
0.0,7.0,2.0,1.0,7.0,5.0,1876.015351661408,2.0,1.0,phase_3,,,,,245.0,5.0,98.0,147.0,49.0,196.0,245.0,294.0,white,triangle
0.0,6.0,1.0,1.0,7.0,4.0,1923.140772492843,2.0,1.0,phase_3,,,,,234.0,6.0,195.0,117.0,156.0,234.0,78.0,39.0,orange,cross
0.0,3.0,2.0,0.0,7.0,3.0,1325.9380304416482,2.0,1.0,phase_3,,,,,88.0,2.0,220.0,44.0,88.0,132.0,176.0,264.0,gray,hexagon
0.0,8.0,4.0,1.0,7.0,3.0,1497.4557588311654,2.0,1.0,phase_3,,,,,264.0,6.0,132.0,88.0,264.0,220.0,176.0,44.0,blue,circle
0.0,4.0,4.0,0.0,7.0,6.0,1769.2003366100837,2.0,1.0,phase_3,,,,,39.0,1.0,234.0,117.0,78.0,156.0,195.0,39.0,cyan,diamond
0.0,4.0,4.0,0.0,7.0,6.0,1667.3721434926847,2.0,1.0,phase_3,,,,,34.0,1.0,68.0,102.0,204.0,170.0,136.0,34.0,cyan,diamond
0.0,2.0,1.0,0.0,7.0,2.0,2298.611351492582,2.0,1.0,phase_3,,,,,54.0,1.0,162.0,54.0,216.0,270.0,108.0,324.0,green,flipped triangle
0.0,1.0,0.5,0.0,7.0,6.0,1974.2693528314703,2.0,1.0,phase_3,,,,,78.0,2.0,234.0,156.0,39.0,117.0,195.0,78.0,magenta,square
0.0,1.0,0.5,0.0,7.0,5.0,1918.548978441322,2.0,1.0,phase_3,,,,,54.0,1.0,162.0,216.0,270.0,108.0,54.0,324.0,magenta,square
0.0,5.0,0.5,1.0,7.0,3.0,2143.748516492451,2.0,1.0,phase_3,,,,,216.0,4.0,324.0,270.0,216.0,162.0,108.0,54.0,yellow,I
0.0,6.0,1.0,1.0,7.0,3.0,1492.7542438827004,2.0,1.0,phase_3,,,,,324.0,6.0,162.0,108.0,324.0,54.0,270.0,216.0,orange,cross
0.0,8.0,4.0,1.0,7.0,1.0,2506.9656548821517,2.0,1.0,phase_3,,,,,170.0,5.0,170.0,102.0,68.0,204.0,34.0,136.0,blue,circle
0.0,2.0,1.0,0.0,7.0,6.0,2260.151089831197,2.0,1.0,phase_3,,,,,88.0,2.0,132.0,44.0,264.0,220.0,176.0,88.0,green,flipped triangle
0.0,3.0,2.0,0.0,7.0,6.0,3218.78069783088,2.0,1.0,phase_3,,,,,54.0,1.0,324.0,216.0,162.0,108.0,270.0,54.0,gray,hexagon
0.0,1.0,0.5,0.0,7.0,4.0,2814.868761493017,2.0,1.0,phase_3,,,,,98.0,2.0,245.0,49.0,196.0,98.0,147.0,294.0,magenta,square
0.0,8.0,4.0,1.0,7.0,1.0,1171.7171018826775,2.0,1.0,phase_3,,,,,98.0,2.0,98.0,147.0,49.0,245.0,196.0,294.0,blue,circle
0.0,5.0,0.5,1.0,7.0,6.0,1566.5290478309544,2.0,1.0,phase_3,,,,,204.0,6.0,102.0,34.0,136.0,170.0,68.0,204.0,yellow,I
0.0,7.0,2.0,1.0,7.0,6.0,2370.3422382723147,3.0,1.0,phase_3,,,,,204.0,6.0,34.0,102.0,68.0,136.0,170.0,204.0,white,triangle
0.0,4.0,4.0,0.0,7.0,3.0,1099.850416271693,3.0,1.0,phase_3,,,,,102.0,3.0,68.0,34.0,102.0,204.0,170.0,136.0,cyan,diamond
0.0,4.0,4.0,0.0,7.0,1.0,1719.296125830624,3.0,1.0,phase_3,,,,,147.0,3.0,147.0,245.0,49.0,98.0,294.0,196.0,cyan,diamond
0.0,2.0,1.0,0.0,7.0,6.0,2642.5106234410123,3.0,1.0,phase_3,,,,,147.0,3.0,196.0,294.0,49.0,98.0,245.0,147.0,green,flipped triangle
0.0,6.0,1.0,1.0,7.0,6.0,2182.94903027072,3.0,1.0,phase_3,,,,,294.0,6.0,49.0,245.0,147.0,98.0,196.0,294.0,orange,cross
0.0,2.0,1.0,0.0,7.0,2.0,1723.3736540520113,3.0,1.0,phase_3,,,,,108.0,2.0,162.0,108.0,270.0,216.0,54.0,324.0,green,flipped triangle
0.0,2.0,1.0,0.0,7.0,1.0,1994.328756050891,3.0,1.0,phase_3,,,,,102.0,3.0,102.0,34.0,204.0,136.0,170.0,68.0,green,flipped triangle
0.0,7.0,2.0,1.0,7.0,6.0,982.0836544931808,3.0,1.0,phase_3,,,,,324.0,6.0,162.0,54.0,108.0,216.0,270.0,324.0,white,triangle
0.0,6.0,1.0,1.0,7.0,1.0,2277.049956220253,3.0,1.0,phase_3,,,,,170.0,5.0,170.0,136.0,204.0,102.0,34.0,68.0,orange,cross
0.0,1.0,0.5,0.0,7.0,6.0,2953.668054220543,3.0,1.0,phase_3,,,,,162.0,3.0,54.0,324.0,270.0,108.0,216.0,162.0,magenta,square
0.0,6.0,1.0,1.0,7.0,3.0,2707.576388051166,3.0,1.0,phase_3,,,,,264.0,6.0,176.0,44.0,264.0,132.0,220.0,88.0,orange,cross
0.0,8.0,4.0,1.0,7.0,3.0,2088.3885118819308,3.0,1.0,phase_3,,,,,204.0,6.0,102.0,136.0,204.0,170.0,68.0,34.0,blue,circle
0.0,7.0,2.0,1.0,7.0,2.0,1832.9185098309608,3.0,1.0,phase_3,,,,,324.0,6.0,108.0,324.0,216.0,54.0,162.0,270.0,white,triangle
0.0,7.0,2.0,1.0,7.0,1.0,2081.69697383164,3.0,1.0,phase_3,,,,,234.0,6.0,234.0,78.0,39.0,195.0,117.0,156.0,white,triangle
0.0,5.0,0.5,1.0,7.0,5.0,3252.401172219834,3.0,1.0,phase_3,,,,,136.0,4.0,68.0,102.0,34.0,170.0,136.0,204.0,yellow,I
0.0,4.0,4.0,0.0,7.0,2.0,1283.2511980504933,3.0,1.0,phase_3,,,,,54.0,1.0,216.0,54.0,162.0,108.0,270.0,324.0,cyan,diamond
0.0,3.0,2.0,0.0,7.0,4.0,2612.2921154919823,3.0,1.0,phase_3,,,,,49.0,1.0,196.0,245.0,147.0,49.0,98.0,294.0,gray,hexagon
0.0,7.0,2.0,1.0,7.0,3.0,1825.9722354414407,3.0,1.0,phase_3,,,,,294.0,6.0,196.0,245.0,294.0,49.0,98.0,147.0,white,triangle
0.0,7.0,2.0,1.0,7.0,1.0,2489.8909158309834,3.0,1.0,phase_3,,,,,195.0,5.0,195.0,156.0,39.0,234.0,117.0,78.0,white,triangle
0.0,2.0,1.0,0.0,7.0,3.0,2593.7439186100164,3.0,1.0,phase_3,,,,,39.0,1.0,78.0,156.0,39.0,234.0,195.0,117.0,green,flipped triangle
0.0,4.0,4.0,0.0,7.0,4.0,1168.7231772202722,4.0,1.0,phase_3,,,,,54.0,1.0,162.0,108.0,270.0,54.0,324.0,216.0,cyan,diamond
0.0,8.0,4.0,1.0,7.0,5.0,1528.9045826621075,4.0,1.0,phase_3,,,,,234.0,6.0,39.0,195.0,117.0,156.0,234.0,78.0,blue,circle
0.0,3.0,2.0,0.0,7.0,2.0,1395.0418876102049,4.0,1.0,phase_3,,,,,34.0,1.0,204.0,34.0,102.0,170.0,68.0,136.0,gray,hexagon
0.0,6.0,1.0,1.0,7.0,1.0,2050.437721220078,4.0,1.0,phase_3,,,,,234.0,6.0,234.0,117.0,39.0,78.0,195.0,156.0,orange,cross
0.0,4.0,4.0,0.0,7.0,3.0,1050.1574968311616,4.0,1.0,phase_3,,,,,44.0,1.0,220.0,176.0,44.0,264.0,132.0,88.0,cyan,diamond
0.0,1.0,0.5,0.0,7.0,5.0,2377.234168610812,4.0,1.0,phase_3,,,,,68.0,2.0,204.0,170.0,34.0,136.0,68.0,102.0,magenta,square
0.0,3.0,2.0,0.0,7.0,5.0,1793.440143830594,4.0,1.0,phase_3,,,,,34.0,1.0,136.0,68.0,170.0,102.0,34.0,204.0,gray,hexagon
0.0,2.0,1.0,0.0,7.0,1.0,3697.154192441303,4.0,1.0,phase_3,,,,,78.0,2.0,78.0,195.0,117.0,156.0,234.0,39.0,green,flipped triangle
0.0,3.0,2.0,0.0,7.0,5.0,2538.5098523902343,4.0,1.0,phase_3,,,,,88.0,2.0,44.0,132.0,176.0,220.0,88.0,264.0,gray,hexagon
0.0,5.0,0.5,1.0,7.0,3.0,1820.1587262201429,4.0,1.0,phase_3,,,,,264.0,6.0,132.0,176.0,264.0,44.0,220.0,88.0,yellow,I
0.0,3.0,2.0,0.0,7.0,1.0,1709.2137813906447,4.0,1.0,phase_3,,,,,39.0,1.0,39.0,195.0,156.0,234.0,117.0,78.0,gray,hexagon
0.0,5.0,0.5,1.0,7.0,2.0,2035.5292668828038,4.0,1.0,phase_3,,,,,270.0,5.0,162.0,270.0,108.0,54.0,216.0,324.0,yellow,I
0.0,4.0,4.0,0.0,7.0,1.0,3365.453917051127,4.0,1.0,phase_3,,,,,98.0,2.0,98.0,294.0,245.0,49.0,196.0,147.0,cyan,diamond
0.0,6.0,1.0,1.0,7.0,2.0,2003.633205661572,4.0,1.0,phase_3,,,,,264.0,6.0,176.0,264.0,132.0,220.0,44.0,88.0,orange,cross
0.0,1.0,0.5,0.0,7.0,3.0,2510.8839032200194,4.0,1.0,phase_3,,,,,39.0,1.0,78.0,156.0,39.0,234.0,195.0,117.0,magenta,square
0.0,5.0,0.5,1.0,7.0,5.0,1330.829584831008,4.0,1.0,phase_3,,,,,234.0,6.0,117.0,39.0,195.0,156.0,234.0,78.0,yellow,I
0.0,3.0,2.0,0.0,7.0,5.0,1625.781857272159,4.0,1.0,phase_3,,,,,78.0,2.0,117.0,156.0,39.0,234.0,78.0,195.0,gray,hexagon
0.0,8.0,4.0,1.0,7.0,4.0,3290.3347098817903,4.0,1.0,phase_3,,,,,216.0,4.0,324.0,108.0,162.0,216.0,270.0,54.0,blue,circle
0.0,5.0,0.5,1.0,7.0,3.0,2054.328448271008,4.0,1.0,phase_3,,,,,264.0,6.0,132.0,44.0,264.0,88.0,220.0,176.0,yellow,I
0.0,7.0,2.0,1.0,7.0,3.0,1672.3475172202598,4.0,1.0,phase_3,,,,,264.0,6.0,44.0,176.0,264.0,220.0,132.0,88.0,white,triangle
