raw_reward_magnitude,stim_reward,stepwise_reward_magnitude,paired_with_stopping,stim_location,response,reaction_time,block,num_trial_presentations,which_phase,stop_signal_trial_type,left_SSD,right_SSD,accuracy,chosen_bidding_amount,chosen_bidding_level,possible_bid_1,possible_bid_2,possible_bid_3,possible_bid_4,possible_bid_5,possible_bid_6,color_text,shape_text
49.0,5.0,0.5,1.0,3.0,3.0,365.6409177347086,1.0,1.0,phase_1,,,,,,,,,,,,,yellow,cross
0.0,2.0,0.0,0.0,2.0,2.0,445.1687928522005,1.0,1.0,phase_1,,,,,,,,,,,,,orange,I
394.0,4.0,4.0,0.0,1.0,1.0,412.03954041702667,1.0,1.0,phase_1,,,,,,,,,,,,,gray,flipped triangle
123.0,6.0,1.0,1.0,3.0,3.0,310.4277607053518,1.0,1.0,phase_1,,,,,,,,,,,,,green,hexagon
40.0,1.0,0.5,0.0,3.0,3.0,378.520104335621,1.0,1.0,phase_1,,,,,,,,,,,,,cyan,square
175.0,3.0,2.0,0.0,2.0,2.0,344.6853884961456,1.0,1.0,phase_1,,,,,,,,,,,,,magenta,diamond
125.0,6.0,1.0,1.0,4.0,4.0,369.0609553013928,1.0,1.0,phase_1,,,,,,,,,,,,,green,hexagon
0.0,4.0,0.0,0.0,2.0,2.0,436.0113981529139,1.0,1.0,phase_1,,,,,,,,,,,,,gray,flipped triangle
421.0,8.0,4.0,1.0,3.0,3.0,290.5247418675571,1.0,1.0,phase_1,,,,,,,,,,,,,white,triangle
84.0,2.0,1.0,0.0,1.0,1.0,482.5208770344034,1.0,1.0,phase_1,,,,,,,,,,,,,orange,I
0.0,7.0,0.0,1.0,2.0,2.0,415.1755089988,1.0,1.0,phase_1,,,,,,,,,,,,,blue,circle
88.0,2.0,1.0,0.0,3.0,3.0,325.7178897620179,1.0,1.0,phase_1,,,,,,,,,,,,,orange,I
0.0,6.0,0.0,1.0,1.0,1.0,327.2794680087827,1.0,1.0,phase_1,,,,,,,,,,,,,green,hexagon
201.0,7.0,2.0,1.0,4.0,4.0,326.8355827312916,1.0,1.0,phase_1,,,,,,,,,,,,,blue,circle
199.0,7.0,2.0,1.0,4.0,4.0,361.0537305939942,1.0,1.0,phase_1,,,,,,,,,,,,,blue,circle
220.0,3.0,2.0,0.0,2.0,2.0,305.3386709070764,1.0,1.0,phase_1,,,,,,,,,,,,,magenta,diamond
209.0,7.0,2.0,1.0,3.0,3.0,316.3589600590057,1.0,1.0,phase_1,,,,,,,,,,,,,blue,circle
0.0,8.0,0.0,1.0,2.0,2.0,430.6003784877248,1.0,1.0,phase_1,,,,,,,,,,,,,white,triangle
0.0,1.0,0.0,0.0,4.0,4.0,565.8335718326271,1.0,1.0,phase_1,,,,,,,,,,,,,cyan,square
63.0,1.0,0.5,0.0,2.0,2.0,444.1507314331829,1.0,1.0,phase_1,,,,,,,,,,,,,cyan,square
93.0,2.0,1.0,0.0,1.0,1.0,376.2808587052859,1.0,1.0,phase_1,,,,,,,,,,,,,orange,I
181.0,7.0,2.0,1.0,1.0,1.0,489.3837835988961,1.0,1.0,phase_1,,,,,,,,,,,,,blue,circle
32.0,5.0,0.5,1.0,1.0,1.0,469.068503472954,1.0,1.0,phase_1,,,,,,,,,,,,,yellow,cross
224.0,7.0,2.0,1.0,1.0,1.0,557.3269891319796,1.0,1.0,phase_1,,,,,,,,,,,,,blue,circle
381.0,4.0,4.0,0.0,1.0,1.0,479.0135191287845,1.0,1.0,phase_1,,,,,,,,,,,,,gray,flipped triangle
99.0,2.0,1.0,0.0,1.0,1.0,502.15294846566394,1.0,1.0,phase_1,,,,,,,,,,,,,orange,I
383.0,8.0,4.0,1.0,4.0,4.0,445.8711772458628,1.0,1.0,phase_1,,,,,,,,,,,,,white,triangle
39.0,1.0,0.5,0.0,4.0,4.0,458.2393509917892,1.0,1.0,phase_1,,,,,,,,,,,,,cyan,square
114.0,2.0,1.0,0.0,4.0,4.0,335.4517793050036,1.0,1.0,phase_1,,,,,,,,,,,,,orange,I
68.0,1.0,0.5,0.0,3.0,3.0,459.8232207936235,1.0,1.0,phase_1,,,,,,,,,,,,,cyan,square
0.0,2.0,0.0,0.0,4.0,4.0,427.1585920359939,1.0,1.0,phase_1,,,,,,,,,,,,,orange,I
199.0,3.0,2.0,0.0,1.0,1.0,583.8224377366714,1.0,1.0,phase_1,,,,,,,,,,,,,magenta,diamond
412.0,8.0,4.0,1.0,2.0,2.0,349.8343012761324,1.0,1.0,phase_1,,,,,,,,,,,,,white,triangle
203.0,3.0,2.0,0.0,3.0,3.0,360.7945717521943,1.0,1.0,phase_1,,,,,,,,,,,,,magenta,diamond
379.0,4.0,4.0,0.0,2.0,2.0,565.0396897690371,1.0,1.0,phase_1,,,,,,,,,,,,,gray,flipped triangle
185.0,3.0,2.0,0.0,2.0,2.0,518.8700754661113,1.0,1.0,phase_1,,,,,,,,,,,,,magenta,diamond
187.0,3.0,2.0,0.0,3.0,3.0,440.5446572927758,1.0,1.0,phase_1,,,,,,,,,,,,,magenta,diamond
47.0,1.0,0.5,0.0,2.0,2.0,508.88074457179755,1.0,1.0,phase_1,,,,,,,,,,,,,cyan,square
106.0,2.0,1.0,0.0,2.0,2.0,476.2306975899264,1.0,1.0,phase_1,,,,,,,,,,,,,orange,I
29.0,1.0,0.5,0.0,1.0,1.0,387.966402049642,1.0,1.0,phase_1,,,,,,,,,,,,,cyan,square
0.0,7.0,0.0,1.0,4.0,4.0,376.3673317735083,1.0,1.0,phase_1,,,,,,,,,,,,,blue,circle
55.0,1.0,0.5,0.0,4.0,4.0,421.454046445433,1.0,1.0,phase_1,,,,,,,,,,,,,cyan,square
184.0,7.0,2.0,1.0,3.0,3.0,488.6243198416196,1.0,1.0,phase_1,,,,,,,,,,,,,blue,circle
106.0,2.0,1.0,0.0,1.0,1.0,446.5204191510565,1.0,1.0,phase_1,,,,,,,,,,,,,orange,I
0.0,7.0,0.0,1.0,2.0,2.0,321.995647274889,1.0,1.0,phase_1,,,,,,,,,,,,,blue,circle
191.0,3.0,2.0,0.0,4.0,4.0,401.9252095604315,1.0,1.0,phase_1,,,,,,,,,,,,,magenta,diamond
0.0,8.0,0.0,1.0,2.0,2.0,515.5125043238513,1.0,1.0,phase_1,,,,,,,,,,,,,white,triangle
94.0,6.0,1.0,1.0,1.0,1.0,402.0167722483165,1.0,1.0,phase_1,,,,,,,,,,,,,green,hexagon
216.0,3.0,2.0,0.0,4.0,4.0,426.2792564695701,1.0,1.0,phase_1,,,,,,,,,,,,,magenta,diamond
0.0,5.0,0.0,1.0,4.0,4.0,436.8581413291394,1.0,1.0,phase_1,,,,,,,,,,,,,yellow,cross
414.0,4.0,4.0,0.0,4.0,4.0,392.838969710283,1.0,1.0,phase_1,,,,,,,,,,,,,gray,flipped triangle
50.0,5.0,0.5,1.0,4.0,4.0,326.1636252864264,1.0,1.0,phase_1,,,,,,,,,,,,,yellow,cross
0.0,4.0,0.0,0.0,1.0,1.0,573.4577901894227,1.0,1.0,phase_1,,,,,,,,,,,,,gray,flipped triangle
387.0,4.0,4.0,0.0,2.0,2.0,406.6290453192778,1.0,1.0,phase_1,,,,,,,,,,,,,gray,flipped triangle
194.0,7.0,2.0,1.0,2.0,2.0,383.3344512386247,1.0,1.0,phase_1,,,,,,,,,,,,,blue,circle
225.0,7.0,2.0,1.0,4.0,4.0,610.0566270179115,1.0,1.0,phase_1,,,,,,,,,,,,,blue,circle
99.0,6.0,1.0,1.0,4.0,4.0,530.5098668322898,1.0,1.0,phase_1,,,,,,,,,,,,,green,hexagon
191.0,7.0,2.0,1.0,2.0,2.0,543.8734397175722,1.0,1.0,phase_1,,,,,,,,,,,,,blue,circle
184.0,3.0,2.0,0.0,4.0,4.0,521.2552683078684,1.0,2.0,phase_1,,,,,,,,,,,,,magenta,diamond
40.0,1.0,0.5,0.0,2.0,2.0,556.8841475760564,1.0,1.0,phase_1,,,,,,,,,,,,,cyan,square
378.0,8.0,4.0,1.0,3.0,3.0,432.0932210539467,1.0,1.0,phase_1,,,,,,,,,,,,,white,triangle
0.0,2.0,0.0,0.0,3.0,3.0,466.592728276737,1.0,1.0,phase_1,,,,,,,,,,,,,orange,I
224.0,7.0,2.0,1.0,3.0,3.0,512.4546799925156,1.0,1.0,phase_1,,,,,,,,,,,,,blue,circle
410.0,8.0,4.0,1.0,1.0,1.0,601.9744297373109,1.0,1.0,phase_1,,,,,,,,,,,,,white,triangle
200.0,7.0,2.0,1.0,4.0,4.0,468.3745157090015,1.0,1.0,phase_1,,,,,,,,,,,,,blue,circle
383.0,4.0,4.0,0.0,2.0,2.0,479.748121870216,1.0,1.0,phase_1,,,,,,,,,,,,,gray,flipped triangle
386.0,8.0,4.0,1.0,4.0,4.0,390.5375538743101,1.0,1.0,phase_1,,,,,,,,,,,,,white,triangle
118.0,6.0,1.0,1.0,1.0,1.0,752.4230270646513,1.0,1.0,phase_1,,,,,,,,,,,,,green,hexagon
71.0,1.0,0.5,0.0,2.0,2.0,460.2517598541453,1.0,1.0,phase_1,,,,,,,,,,,,,cyan,square
219.0,7.0,2.0,1.0,4.0,4.0,493.7450753641315,1.0,1.0,phase_1,,,,,,,,,,,,,blue,circle
123.0,2.0,1.0,0.0,2.0,2.0,449.0880384691991,1.0,1.0,phase_1,,,,,,,,,,,,,orange,I
55.0,5.0,0.5,1.0,4.0,4.0,550.1577030518092,1.0,1.0,phase_1,,,,,,,,,,,,,yellow,cross
405.0,8.0,4.0,1.0,1.0,1.0,472.4450437352061,1.0,1.0,phase_1,,,,,,,,,,,,,white,triangle
26.0,1.0,0.5,0.0,1.0,1.0,462.961622281,1.0,1.0,phase_1,,,,,,,,,,,,,cyan,square
421.0,4.0,4.0,0.0,2.0,2.0,429.0211935294792,1.0,1.0,phase_1,,,,,,,,,,,,,gray,flipped triangle
78.0,6.0,1.0,1.0,3.0,3.0,429.2493194807321,1.0,1.0,phase_1,,,,,,,,,,,,,green,hexagon
200.0,3.0,2.0,0.0,2.0,2.0,476.5070675639435,1.0,1.0,phase_1,,,,,,,,,,,,,magenta,diamond
93.0,2.0,1.0,0.0,1.0,1.0,497.3887160886079,1.0,1.0,phase_1,,,,,,,,,,,,,orange,I
0.0,5.0,0.0,1.0,1.0,1.0,779.2725912877358,1.0,1.0,phase_1,,,,,,,,,,,,,yellow,cross
56.0,5.0,0.5,1.0,2.0,2.0,410.2880450082011,1.0,1.0,phase_1,,,,,,,,,,,,,yellow,cross
0.0,8.0,0.0,1.0,4.0,4.0,320.2979084453545,1.0,1.0,phase_1,,,,,,,,,,,,,white,triangle
0.0,2.0,0.0,0.0,4.0,4.0,376.1479550157673,1.0,1.0,phase_1,,,,,,,,,,,,,orange,I
0.0,7.0,0.0,1.0,4.0,4.0,400.2789564547129,1.0,1.0,phase_1,,,,,,,,,,,,,blue,circle
63.0,5.0,0.5,1.0,1.0,1.0,613.849074288737,1.0,1.0,phase_1,,,,,,,,,,,,,yellow,cross
387.0,8.0,4.0,1.0,4.0,4.0,435.136173851788,1.0,1.0,phase_1,,,,,,,,,,,,,white,triangle
49.0,1.0,0.5,0.0,3.0,3.0,422.6089965668507,1.0,1.0,phase_1,,,,,,,,,,,,,cyan,square
380.0,4.0,4.0,0.0,2.0,2.0,425.1619167625904,1.0,1.0,phase_1,,,,,,,,,,,,,gray,flipped triangle
76.0,6.0,1.0,1.0,1.0,1.0,425.3164688707329,1.0,1.0,phase_1,,,,,,,,,,,,,green,hexagon
414.0,8.0,4.0,1.0,2.0,2.0,369.3735593114979,1.0,1.0,phase_1,,,,,,,,,,,,,white,triangle
94.0,2.0,1.0,0.0,4.0,4.0,425.1939988462254,1.0,1.0,phase_1,,,,,,,,,,,,,orange,I
410.0,4.0,4.0,0.0,4.0,4.0,628.3989993389696,1.0,1.0,phase_1,,,,,,,,,,,,,gray,flipped triangle
114.0,6.0,1.0,1.0,2.0,2.0,527.4260703008622,1.0,1.0,phase_1,,,,,,,,,,,,,green,hexagon
181.0,3.0,2.0,0.0,4.0,4.0,415.6376452883705,1.0,1.0,phase_1,,,,,,,,,,,,,magenta,diamond
0.0,5.0,0.0,1.0,3.0,3.0,405.3837322862819,1.0,1.0,phase_1,,,,,,,,,,,,,yellow,cross
125.0,2.0,1.0,0.0,1.0,1.0,462.4553945031948,1.0,1.0,phase_1,,,,,,,,,,,,,orange,I
415.0,8.0,4.0,1.0,1.0,1.0,565.3170264558867,1.0,1.0,phase_1,,,,,,,,,,,,,white,triangle
73.0,5.0,0.5,1.0,2.0,2.0,497.3836941644549,1.0,1.0,phase_1,,,,,,,,,,,,,yellow,cross
50.0,5.0,0.5,1.0,2.0,2.0,498.5812693485059,1.0,1.0,phase_1,,,,,,,,,,,,,yellow,cross
188.0,3.0,2.0,0.0,2.0,2.0,587.6074935658835,1.0,1.0,phase_1,,,,,,,,,,,,,magenta,diamond
0.0,4.0,0.0,0.0,1.0,1.0,723.7581080407836,1.0,1.0,phase_1,,,,,,,,,,,,,gray,flipped triangle
407.0,8.0,4.0,1.0,1.0,1.0,543.862925725989,2.0,2.0,phase_1,,,,,,,,,,,,,white,triangle
102.0,6.0,1.0,1.0,3.0,3.0,420.1395937707275,2.0,1.0,phase_1,,,,,,,,,,,,,green,hexagon
419.0,4.0,4.0,0.0,1.0,1.0,521.894606470596,2.0,1.0,phase_1,,,,,,,,,,,,,gray,flipped triangle
0.0,3.0,0.0,0.0,2.0,2.0,432.7017570612952,2.0,1.0,phase_1,,,,,,,,,,,,,magenta,diamond
225.0,3.0,2.0,0.0,3.0,3.0,411.779182322789,2.0,1.0,phase_1,,,,,,,,,,,,,magenta,diamond
59.0,1.0,0.5,0.0,2.0,2.0,399.9857784365304,2.0,1.0,phase_1,,,,,,,,,,,,,cyan,square
220.0,7.0,2.0,1.0,2.0,2.0,491.4071515668183,2.0,1.0,phase_1,,,,,,,,,,,,,blue,circle
0.0,2.0,0.0,0.0,1.0,1.0,356.6147211240604,2.0,1.0,phase_1,,,,,,,,,,,,,orange,I
190.0,3.0,2.0,0.0,1.0,1.0,423.7272485042922,2.0,1.0,phase_1,,,,,,,,,,,,,magenta,diamond
405.0,4.0,4.0,0.0,1.0,1.0,469.8578021489084,2.0,1.0,phase_1,,,,,,,,,,,,,gray,flipped triangle
47.0,1.0,0.5,0.0,3.0,3.0,414.333289838396,2.0,1.0,phase_1,,,,,,,,,,,,,cyan,square
206.0,3.0,2.0,0.0,2.0,2.0,370.6857381621375,2.0,1.0,phase_1,,,,,,,,,,,,,magenta,diamond
48.0,1.0,0.5,0.0,4.0,4.0,391.726239467971,2.0,1.0,phase_1,,,,,,,,,,,,,cyan,square
50.0,1.0,0.5,0.0,3.0,3.0,313.9080025721341,2.0,1.0,phase_1,,,,,,,,,,,,,cyan,square
188.0,7.0,2.0,1.0,1.0,1.0,417.317510349676,2.0,1.0,phase_1,,,,,,,,,,,,,blue,circle
199.0,7.0,2.0,1.0,3.0,3.0,460.7019191607833,2.0,1.0,phase_1,,,,,,,,,,,,,blue,circle
211.0,3.0,2.0,0.0,1.0,1.0,474.553297564853,2.0,1.0,phase_1,,,,,,,,,,,,,magenta,diamond
0.0,2.0,0.0,0.0,3.0,3.0,394.1963996039703,2.0,1.0,phase_1,,,,,,,,,,,,,orange,I
377.0,4.0,4.0,0.0,3.0,3.0,486.2420763238333,2.0,1.0,phase_1,,,,,,,,,,,,,gray,flipped triangle
110.0,6.0,1.0,1.0,4.0,4.0,384.6025798702612,2.0,1.0,phase_1,,,,,,,,,,,,,green,hexagon
37.0,1.0,0.5,0.0,4.0,4.0,386.6813048371114,2.0,1.0,phase_1,,,,,,,,,,,,,cyan,square
216.0,7.0,2.0,1.0,2.0,2.0,489.2624453059397,2.0,1.0,phase_1,,,,,,,,,,,,,blue,circle
81.0,2.0,1.0,0.0,3.0,3.0,442.6980938878841,2.0,1.0,phase_1,,,,,,,,,,,,,orange,I
43.0,5.0,0.5,1.0,3.0,3.0,421.6267308802344,2.0,1.0,phase_1,,,,,,,,,,,,,yellow,cross
100.0,2.0,1.0,0.0,3.0,3.0,410.4277694714255,2.0,1.0,phase_1,,,,,,,,,,,,,orange,I
89.0,2.0,1.0,0.0,4.0,4.0,444.6723144501447,2.0,1.0,phase_1,,,,,,,,,,,,,orange,I
40.0,5.0,0.5,1.0,1.0,1.0,424.3665931862779,2.0,1.0,phase_1,,,,,,,,,,,,,yellow,cross
389.0,8.0,4.0,1.0,2.0,2.0,536.9669422507286,2.0,1.0,phase_1,,,,,,,,,,,,,white,triangle
33.0,5.0,0.5,1.0,4.0,4.0,468.9239347353577,2.0,1.0,phase_1,,,,,,,,,,,,,yellow,cross
0.0,8.0,0.0,1.0,4.0,4.0,446.7326739686541,2.0,1.0,phase_1,,,,,,,,,,,,,white,triangle
194.0,3.0,2.0,0.0,4.0,4.0,368.4238761779852,2.0,1.0,phase_1,,,,,,,,,,,,,magenta,diamond
52.0,1.0,0.5,0.0,1.0,1.0,875.6130362162367,2.0,1.0,phase_1,,,,,,,,,,,,,cyan,square
0.0,7.0,0.0,1.0,1.0,1.0,391.8824488646351,2.0,1.0,phase_1,,,,,,,,,,,,,blue,circle
379.0,8.0,4.0,1.0,4.0,4.0,414.9800114100799,2.0,1.0,phase_1,,,,,,,,,,,,,white,triangle
40.0,5.0,0.5,1.0,1.0,1.0,484.2804704676382,2.0,1.0,phase_1,,,,,,,,,,,,,yellow,cross
84.0,6.0,1.0,1.0,1.0,1.0,439.8679941659793,2.0,1.0,phase_1,,,,,,,,,,,,,green,hexagon
47.0,5.0,0.5,1.0,1.0,1.0,495.641561166849,2.0,1.0,phase_1,,,,,,,,,,,,,yellow,cross
415.0,4.0,4.0,0.0,2.0,2.0,484.6891752677038,2.0,1.0,phase_1,,,,,,,,,,,,,gray,flipped triangle
81.0,2.0,1.0,0.0,4.0,4.0,429.2631687130779,2.0,1.0,phase_1,,,,,,,,,,,,,orange,I
0.0,4.0,0.0,0.0,2.0,2.0,553.6250821314752,2.0,1.0,phase_1,,,,,,,,,,,,,gray,flipped triangle
214.0,7.0,2.0,1.0,3.0,3.0,465.3693787404336,2.0,1.0,phase_1,,,,,,,,,,,,,blue,circle
0.0,5.0,0.0,1.0,2.0,2.0,486.6553682950325,2.0,1.0,phase_1,,,,,,,,,,,,,yellow,cross
421.0,4.0,4.0,0.0,2.0,2.0,477.9102326137945,2.0,1.0,phase_1,,,,,,,,,,,,,gray,flipped triangle
0.0,5.0,0.0,1.0,2.0,2.0,410.1024057599716,2.0,1.0,phase_1,,,,,,,,,,,,,yellow,cross
0.0,3.0,0.0,0.0,3.0,3.0,377.607797330711,2.0,1.0,phase_1,,,,,,,,,,,,,magenta,diamond
0.0,1.0,0.0,0.0,2.0,2.0,432.8970447531901,2.0,1.0,phase_1,,,,,,,,,,,,,cyan,square
379.0,8.0,4.0,1.0,2.0,2.0,467.9361419985071,2.0,1.0,phase_1,,,,,,,,,,,,,white,triangle
197.0,7.0,2.0,1.0,3.0,3.0,422.7819601073861,2.0,1.0,phase_1,,,,,,,,,,,,,blue,circle
407.0,4.0,4.0,0.0,4.0,4.0,468.7501091975719,2.0,1.0,phase_1,,,,,,,,,,,,,gray,flipped triangle
40.0,1.0,0.5,0.0,2.0,2.0,537.0209016255103,2.0,1.0,phase_1,,,,,,,,,,,,,cyan,square
0.0,3.0,0.0,0.0,2.0,2.0,617.0270633301698,2.0,1.0,phase_1,,,,,,,,,,,,,magenta,diamond
89.0,2.0,1.0,0.0,1.0,1.0,774.469198891893,2.0,1.0,phase_1,,,,,,,,,,,,,orange,I
75.0,6.0,1.0,1.0,2.0,2.0,516.7871507583186,2.0,1.0,phase_1,,,,,,,,,,,,,green,hexagon
207.0,7.0,2.0,1.0,2.0,2.0,618.7608321779408,2.0,1.0,phase_1,,,,,,,,,,,,,blue,circle
0.0,5.0,0.0,1.0,4.0,4.0,438.8437023153528,2.0,1.0,phase_1,,,,,,,,,,,,,yellow,cross
0.0,8.0,0.0,1.0,2.0,2.0,539.7266874206252,2.0,1.0,phase_1,,,,,,,,,,,,,white,triangle
75.0,1.0,0.5,0.0,2.0,2.0,518.984891299624,2.0,1.0,phase_1,,,,,,,,,,,,,cyan,square
0.0,1.0,0.0,0.0,4.0,4.0,597.5656758528203,2.0,1.0,phase_1,,,,,,,,,,,,,cyan,square
185.0,7.0,2.0,1.0,2.0,2.0,462.7206557197496,2.0,1.0,phase_1,,,,,,,,,,,,,blue,circle
0.0,1.0,0.0,0.0,4.0,4.0,575.976034568157,2.0,1.0,phase_1,,,,,,,,,,,,,cyan,square
106.0,6.0,1.0,1.0,4.0,4.0,409.0893388492986,2.0,1.0,phase_1,,,,,,,,,,,,,green,hexagon
81.0,6.0,1.0,1.0,4.0,4.0,452.3931432049721,2.0,1.0,phase_1,,,,,,,,,,,,,green,hexagon
114.0,2.0,1.0,0.0,2.0,2.0,690.2041813009419,2.0,1.0,phase_1,,,,,,,,,,,,,orange,I
30.0,5.0,0.5,1.0,1.0,1.0,500.3901162999682,2.0,1.0,phase_1,,,,,,,,,,,,,yellow,cross
224.0,3.0,2.0,0.0,1.0,1.0,444.6427255752496,2.0,1.0,phase_1,,,,,,,,,,,,,magenta,diamond
0.0,4.0,0.0,0.0,2.0,2.0,635.8888791874051,2.0,1.0,phase_1,,,,,,,,,,,,,gray,flipped triangle
81.0,6.0,1.0,1.0,2.0,2.0,513.6635578237474,2.0,1.0,phase_1,,,,,,,,,,,,,green,hexagon
50.0,1.0,0.5,0.0,2.0,2.0,525.8016118314117,2.0,1.0,phase_1,,,,,,,,,,,,,cyan,square
395.0,8.0,4.0,1.0,4.0,4.0,512.4952311743982,2.0,1.0,phase_1,,,,,,,,,,,,,white,triangle
210.0,7.0,2.0,1.0,4.0,4.0,436.3032257533632,2.0,1.0,phase_1,,,,,,,,,,,,,blue,circle
124.0,6.0,1.0,1.0,1.0,1.0,694.0792828681879,2.0,1.0,phase_1,,,,,,,,,,,,,green,hexagon
191.0,7.0,2.0,1.0,3.0,3.0,514.405837864615,2.0,1.0,phase_1,,,,,,,,,,,,,blue,circle
0.0,4.0,0.0,0.0,2.0,2.0,472.2841788898222,2.0,1.0,phase_1,,,,,,,,,,,,,gray,flipped triangle
396.0,8.0,4.0,1.0,2.0,2.0,776.4856292051263,2.0,1.0,phase_1,,,,,,,,,,,,,white,triangle
0.0,3.0,0.0,0.0,2.0,2.0,585.8138995827176,2.0,1.0,phase_1,,,,,,,,,,,,,magenta,diamond
88.0,6.0,1.0,1.0,4.0,4.0,473.5720961471088,2.0,1.0,phase_1,,,,,,,,,,,,,green,hexagon
124.0,2.0,1.0,0.0,4.0,4.0,405.4065225063823,2.0,1.0,phase_1,,,,,,,,,,,,,orange,I
175.0,7.0,2.0,1.0,1.0,1.0,495.6797256018035,2.0,1.0,phase_1,,,,,,,,,,,,,blue,circle
80.0,6.0,1.0,1.0,3.0,3.0,461.886087723542,2.0,1.0,phase_1,,,,,,,,,,,,,green,hexagon
182.0,3.0,2.0,0.0,4.0,4.0,463.4435521438718,2.0,1.0,phase_1,,,,,,,,,,,,,magenta,diamond
0.0,8.0,0.0,1.0,4.0,4.0,485.6317092198878,2.0,1.0,phase_1,,,,,,,,,,,,,white,triangle
29.0,1.0,0.5,0.0,3.0,3.0,464.1610195976682,2.0,1.0,phase_1,,,,,,,,,,,,,cyan,square
203.0,7.0,2.0,1.0,1.0,1.0,556.2294982955791,2.0,1.0,phase_1,,,,,,,,,,,,,blue,circle
421.0,4.0,4.0,0.0,1.0,1.0,510.72786416625604,2.0,1.0,phase_1,,,,,,,,,,,,,gray,flipped triangle
0.0,3.0,0.0,0.0,1.0,1.0,466.5730202104896,2.0,1.0,phase_1,,,,,,,,,,,,,magenta,diamond
75.0,1.0,0.5,0.0,4.0,4.0,488.3864799048751,2.0,1.0,phase_1,,,,,,,,,,,,,cyan,square
109.0,6.0,1.0,1.0,3.0,3.0,388.2969992118887,2.0,1.0,phase_1,,,,,,,,,,,,,green,hexagon
399.0,4.0,4.0,0.0,2.0,2.0,423.2485017273575,2.0,1.0,phase_1,,,,,,,,,,,,,gray,flipped triangle
418.0,4.0,4.0,0.0,3.0,3.0,433.7452341569587,2.0,1.0,phase_1,,,,,,,,,,,,,gray,flipped triangle
176.0,3.0,2.0,0.0,3.0,3.0,400.8830788661726,2.0,1.0,phase_1,,,,,,,,,,,,,magenta,diamond
68.0,5.0,0.5,1.0,3.0,3.0,366.9068054296076,2.0,1.0,phase_1,,,,,,,,,,,,,yellow,cross
120.0,6.0,1.0,1.0,4.0,4.0,424.4472103309817,2.0,1.0,phase_1,,,,,,,,,,,,,green,hexagon
40.0,5.0,0.5,1.0,3.0,3.0,436.5955552784726,2.0,1.0,phase_1,,,,,,,,,,,,,yellow,cross
71.0,5.0,0.5,1.0,4.0,4.0,493.2671762653626,2.0,1.0,phase_1,,,,,,,,,,,,,yellow,cross
75.0,5.0,0.5,1.0,4.0,4.0,460.8979055774398,2.0,1.0,phase_1,,,,,,,,,,,,,yellow,cross
59.0,5.0,0.5,1.0,4.0,4.0,449.451639316976,2.0,1.0,phase_1,,,,,,,,,,,,,yellow,cross
0.0,6.0,0.0,1.0,4.0,4.0,416.0453496151604,2.0,1.0,phase_1,,,,,,,,,,,,,green,hexagon
114.0,6.0,1.0,1.0,4.0,4.0,438.9870075974613,2.0,1.0,phase_1,,,,,,,,,,,,,green,hexagon
199.0,3.0,2.0,0.0,4.0,4.0,450.4159908392466,2.0,1.0,phase_1,,,,,,,,,,,,,magenta,diamond
193.0,7.0,2.0,1.0,4.0,4.0,440.5143452459015,2.0,1.0,phase_1,,,,,,,,,,,,,blue,circle
52.0,5.0,0.5,1.0,4.0,4.0,489.4708738429472,3.0,1.0,phase_1,,,,,,,,,,,,,yellow,cross
185.0,3.0,2.0,0.0,1.0,1.0,399.1381744854152,3.0,1.0,phase_1,,,,,,,,,,,,,magenta,diamond
0.0,3.0,0.0,0.0,1.0,1.0,658.0609474913217,3.0,1.0,phase_1,,,,,,,,,,,,,magenta,diamond
0.0,3.0,0.0,0.0,2.0,2.0,534.8661297466606,3.0,1.0,phase_1,,,,,,,,,,,,,magenta,diamond
0.0,6.0,0.0,1.0,1.0,1.0,534.7369458177127,3.0,1.0,phase_1,,,,,,,,,,,,,green,hexagon
109.0,2.0,1.0,0.0,4.0,4.0,433.9426162769086,3.0,1.0,phase_1,,,,,,,,,,,,,orange,I
419.0,8.0,4.0,1.0,3.0,3.0,322.4049721611663,3.0,1.0,phase_1,,,,,,,,,,,,,white,triangle
377.0,8.0,4.0,1.0,2.0,2.0,480.0857448717579,3.0,1.0,phase_1,,,,,,,,,,,,,white,triangle
89.0,6.0,1.0,1.0,4.0,4.0,413.8358928612433,3.0,1.0,phase_1,,,,,,,,,,,,,green,hexagon
396.0,4.0,4.0,0.0,2.0,2.0,481.3273541512899,3.0,1.0,phase_1,,,,,,,,,,,,,gray,flipped triangle
199.0,3.0,2.0,0.0,1.0,1.0,335.9625171869993,3.0,1.0,phase_1,,,,,,,,,,,,,magenta,diamond
99.0,6.0,1.0,1.0,3.0,3.0,459.8830590257421,3.0,1.0,phase_1,,,,,,,,,,,,,green,hexagon
81.0,2.0,1.0,0.0,3.0,3.0,494.8913398548029,3.0,1.0,phase_1,,,,,,,,,,,,,orange,I
0.0,8.0,0.0,1.0,3.0,3.0,417.3256458598189,3.0,1.0,phase_1,,,,,,,,,,,,,white,triangle
193.0,3.0,2.0,0.0,4.0,4.0,450.0676654861308,3.0,1.0,phase_1,,,,,,,,,,,,,magenta,diamond
73.0,1.0,0.5,0.0,3.0,3.0,508.01115424837917,3.0,1.0,phase_1,,,,,,,,,,,,,cyan,square
395.0,4.0,4.0,0.0,3.0,3.0,463.1191564840264,3.0,1.0,phase_1,,,,,,,,,,,,,gray,flipped triangle
0.0,7.0,0.0,1.0,4.0,4.0,475.2016486017965,3.0,1.0,phase_1,,,,,,,,,,,,,blue,circle
199.0,7.0,2.0,1.0,4.0,4.0,554.5160118490458,3.0,1.0,phase_1,,,,,,,,,,,,,blue,circle
95.0,2.0,1.0,0.0,2.0,2.0,736.5567334345542,3.0,1.0,phase_1,,,,,,,,,,,,,orange,I
402.0,8.0,4.0,1.0,3.0,3.0,410.2689261781052,3.0,1.0,phase_1,,,,,,,,,,,,,white,triangle
418.0,8.0,4.0,1.0,4.0,4.0,578.4254881436937,3.0,1.0,phase_1,,,,,,,,,,,,,white,triangle
414.0,8.0,4.0,1.0,3.0,3.0,421.5529575594701,3.0,1.0,phase_1,,,,,,,,,,,,,white,triangle
419.0,4.0,4.0,0.0,3.0,3.0,443.4097732882947,3.0,1.0,phase_1,,,,,,,,,,,,,gray,flipped triangle
176.0,7.0,2.0,1.0,2.0,2.0,614.2939262790605,3.0,1.0,phase_1,,,,,,,,,,,,,blue,circle
123.0,6.0,1.0,1.0,2.0,2.0,456.7858129157685,3.0,1.0,phase_1,,,,,,,,,,,,,green,hexagon
118.0,2.0,1.0,0.0,2.0,2.0,491.4548983215354,3.0,1.0,phase_1,,,,,,,,,,,,,orange,I
415.0,4.0,4.0,0.0,1.0,1.0,537.6200392493047,3.0,1.0,phase_1,,,,,,,,,,,,,gray,flipped triangle
99.0,2.0,1.0,0.0,3.0,3.0,582.398827187717,3.0,1.0,phase_1,,,,,,,,,,,,,orange,I
416.0,4.0,4.0,0.0,1.0,1.0,504.0582543006167,3.0,1.0,phase_1,,,,,,,,,,,,,gray,flipped triangle
0.0,6.0,0.0,1.0,1.0,1.0,481.9917872082442,3.0,1.0,phase_1,,,,,,,,,,,,,green,hexagon
100.0,6.0,1.0,1.0,2.0,2.0,527.9467715299688,3.0,1.0,phase_1,,,,,,,,,,,,,green,hexagon
68.0,5.0,0.5,1.0,4.0,4.0,573.07768415194,3.0,1.0,phase_1,,,,,,,,,,,,,yellow,cross
415.0,8.0,4.0,1.0,4.0,4.0,505.6762702879496,3.0,1.0,phase_1,,,,,,,,,,,,,white,triangle
379.0,4.0,4.0,0.0,1.0,1.0,607.8302460373379,3.0,1.0,phase_1,,,,,,,,,,,,,gray,flipped triangle
31.0,5.0,0.5,1.0,1.0,1.0,451.9708172301762,3.0,1.0,phase_1,,,,,,,,,,,,,yellow,cross
102.0,2.0,1.0,0.0,4.0,4.0,441.4246584638022,3.0,1.0,phase_1,,,,,,,,,,,,,orange,I
0.0,7.0,0.0,1.0,1.0,1.0,564.6404881263152,3.0,1.0,phase_1,,,,,,,,,,,,,blue,circle
0.0,6.0,0.0,1.0,2.0,2.0,554.8742322716862,3.0,1.0,phase_1,,,,,,,,,,,,,green,hexagon
94.0,2.0,1.0,0.0,4.0,4.0,532.8549674595706,3.0,1.0,phase_1,,,,,,,,,,,,,orange,I
404.0,8.0,4.0,1.0,1.0,1.0,510.44237706810236,3.0,1.0,phase_1,,,,,,,,,,,,,white,triangle
75.0,5.0,0.5,1.0,3.0,3.0,543.3193987701088,3.0,1.0,phase_1,,,,,,,,,,,,,yellow,cross
93.0,6.0,1.0,1.0,1.0,1.0,431.8866016110405,3.0,1.0,phase_1,,,,,,,,,,,,,green,hexagon
395.0,8.0,4.0,1.0,1.0,1.0,478.1632701633498,3.0,1.0,phase_1,,,,,,,,,,,,,white,triangle
399.0,8.0,4.0,1.0,4.0,4.0,680.7397348457016,3.0,1.0,phase_1,,,,,,,,,,,,,white,triangle
414.0,4.0,4.0,0.0,4.0,4.0,580.8144683251157,3.0,1.0,phase_1,,,,,,,,,,,,,gray,flipped triangle
0.0,3.0,0.0,0.0,4.0,4.0,378.5226844483986,3.0,1.0,phase_1,,,,,,,,,,,,,magenta,diamond
402.0,4.0,4.0,0.0,1.0,1.0,580.8140852022916,3.0,1.0,phase_1,,,,,,,,,,,,,gray,flipped triangle
389.0,4.0,4.0,0.0,2.0,2.0,558.8963974732906,3.0,1.0,phase_1,,,,,,,,,,,,,gray,flipped triangle
190.0,7.0,2.0,1.0,4.0,4.0,503.1539915362373,3.0,1.0,phase_1,,,,,,,,,,,,,blue,circle
207.0,7.0,2.0,1.0,3.0,3.0,425.4048284492455,3.0,1.0,phase_1,,,,,,,,,,,,,blue,circle
99.0,2.0,1.0,0.0,1.0,1.0,483.255652769003,3.0,1.0,phase_1,,,,,,,,,,,,,orange,I
102.0,2.0,1.0,0.0,3.0,3.0,730.7477504946291,3.0,1.0,phase_1,,,,,,,,,,,,,orange,I
66.0,5.0,0.5,1.0,2.0,2.0,652.6225042762235,3.0,1.0,phase_1,,,,,,,,,,,,,yellow,cross
114.0,6.0,1.0,1.0,2.0,2.0,608.1596651347354,3.0,1.0,phase_1,,,,,,,,,,,,,green,hexagon
207.0,3.0,2.0,0.0,2.0,2.0,484.0977707062848,3.0,1.0,phase_1,,,,,,,,,,,,,magenta,diamond
185.0,7.0,2.0,1.0,1.0,1.0,563.9774677692913,3.0,1.0,phase_1,,,,,,,,,,,,,blue,circle
207.0,3.0,2.0,0.0,3.0,3.0,406.5313000464812,3.0,1.0,phase_1,,,,,,,,,,,,,magenta,diamond
380.0,8.0,4.0,1.0,3.0,3.0,418.6781541793607,3.0,1.0,phase_1,,,,,,,,,,,,,white,triangle
27.0,1.0,0.5,0.0,1.0,1.0,767.8457075962797,3.0,1.0,phase_1,,,,,,,,,,,,,cyan,square
95.0,6.0,1.0,1.0,1.0,1.0,532.6012952718884,3.0,1.0,phase_1,,,,,,,,,,,,,green,hexagon
114.0,2.0,1.0,0.0,3.0,3.0,452.9406750225462,3.0,1.0,phase_1,,,,,,,,,,,,,orange,I
394.0,8.0,4.0,1.0,1.0,1.0,512.0807612547651,3.0,1.0,phase_1,,,,,,,,,,,,,white,triangle
100.0,2.0,1.0,0.0,3.0,3.0,409.2446992872283,3.0,1.0,phase_1,,,,,,,,,,,,,orange,I
0.0,8.0,0.0,1.0,2.0,2.0,691.5963351493701,3.0,1.0,phase_1,,,,,,,,,,,,,white,triangle
75.0,2.0,1.0,0.0,2.0,2.0,603.2971533131786,3.0,1.0,phase_1,,,,,,,,,,,,,orange,I
197.0,3.0,2.0,0.0,1.0,1.0,546.7369337566197,3.0,1.0,phase_1,,,,,,,,,,,,,magenta,diamond
0.0,1.0,0.0,0.0,2.0,2.0,503.3920898567885,3.0,1.0,phase_1,,,,,,,,,,,,,cyan,square
123.0,6.0,1.0,1.0,2.0,2.0,581.8443137104623,3.0,1.0,phase_1,,,,,,,,,,,,,green,hexagon
103.0,6.0,1.0,1.0,2.0,2.0,582.237962866202,3.0,1.0,phase_1,,,,,,,,,,,,,green,hexagon
399.0,4.0,4.0,0.0,4.0,4.0,526.4044787618332,3.0,1.0,phase_1,,,,,,,,,,,,,gray,flipped triangle
103.0,2.0,1.0,0.0,1.0,1.0,583.6755127529614,3.0,1.0,phase_1,,,,,,,,,,,,,orange,I
26.0,5.0,0.5,1.0,3.0,3.0,448.5939351725392,3.0,1.0,phase_1,,,,,,,,,,,,,yellow,cross
110.0,2.0,1.0,0.0,3.0,3.0,493.7650225474499,3.0,1.0,phase_1,,,,,,,,,,,,,orange,I
85.0,6.0,1.0,1.0,1.0,1.0,540.111455891747,3.0,1.0,phase_1,,,,,,,,,,,,,green,hexagon
48.0,1.0,0.5,0.0,1.0,1.0,495.3188865911215,3.0,1.0,phase_1,,,,,,,,,,,,,cyan,square
224.0,3.0,2.0,0.0,1.0,1.0,540.8215904608369,3.0,1.0,phase_1,,,,,,,,,,,,,magenta,diamond
0.0,8.0,0.0,1.0,2.0,2.0,564.124072145205,3.0,1.0,phase_1,,,,,,,,,,,,,white,triangle
123.0,2.0,1.0,0.0,1.0,1.0,666.8088058941066,3.0,1.0,phase_1,,,,,,,,,,,,,orange,I
32.0,1.0,0.5,0.0,1.0,1.0,645.5596796004102,3.0,1.0,phase_1,,,,,,,,,,,,,cyan,square
195.0,3.0,2.0,0.0,2.0,2.0,521.5332210063934,3.0,1.0,phase_1,,,,,,,,,,,,,magenta,diamond
0.0,1.0,0.0,0.0,2.0,2.0,713.2515055709518,3.0,1.0,phase_1,,,,,,,,,,,,,cyan,square
56.0,1.0,0.5,0.0,4.0,4.0,489.1786375665106,3.0,1.0,phase_1,,,,,,,,,,,,,cyan,square
419.0,8.0,4.0,1.0,1.0,1.0,500.0775904627517,3.0,1.0,phase_1,,,,,,,,,,,,,white,triangle
0.0,4.0,0.0,0.0,1.0,1.0,657.408281462267,3.0,1.0,phase_1,,,,,,,,,,,,,gray,flipped triangle
0.0,6.0,0.0,1.0,4.0,4.0,501.4437255449593,3.0,1.0,phase_1,,,,,,,,,,,,,green,hexagon
209.0,3.0,2.0,0.0,3.0,3.0,491.4979143068194,3.0,1.0,phase_1,,,,,,,,,,,,,magenta,diamond
31.0,1.0,0.5,0.0,3.0,3.0,400.4512474639341,3.0,1.0,phase_1,,,,,,,,,,,,,cyan,square
421.0,8.0,4.0,1.0,3.0,3.0,366.8655790388584,3.0,1.0,phase_1,,,,,,,,,,,,,white,triangle
53.0,1.0,0.5,0.0,1.0,1.0,480.7059458689764,3.0,1.0,phase_1,,,,,,,,,,,,,cyan,square
99.0,2.0,1.0,0.0,4.0,4.0,503.35767347132787,3.0,1.0,phase_1,,,,,,,,,,,,,orange,I
392.0,8.0,4.0,1.0,2.0,2.0,505.5280711967498,3.0,1.0,phase_1,,,,,,,,,,,,,white,triangle
216.0,7.0,2.0,1.0,2.0,2.0,470.6057651783339,3.0,1.0,phase_1,,,,,,,,,,,,,blue,circle
99.0,6.0,1.0,1.0,3.0,3.0,493.3899804600514,3.0,1.0,phase_1,,,,,,,,,,,,,green,hexagon
389.0,4.0,4.0,0.0,3.0,3.0,504.84838185366243,3.0,1.0,phase_1,,,,,,,,,,,,,gray,flipped triangle
47.0,5.0,0.5,1.0,3.0,3.0,415.6188770430162,3.0,1.0,phase_1,,,,,,,,,,,,,yellow,cross
68.0,5.0,0.5,1.0,3.0,3.0,383.4258615388535,3.0,1.0,phase_1,,,,,,,,,,,,,yellow,cross
381.0,8.0,4.0,1.0,4.0,4.0,486.4503691205755,3.0,1.0,phase_1,,,,,,,,,,,,,white,triangle
93.0,6.0,1.0,1.0,3.0,3.0,406.8027001922019,3.0,1.0,phase_1,,,,,,,,,,,,,green,hexagon
214.0,7.0,2.0,1.0,2.0,2.0,497.8697398910299,3.0,1.0,phase_1,,,,,,,,,,,,,blue,circle
106.0,6.0,1.0,1.0,3.0,3.0,514.0347953420132,4.0,1.0,phase_1,,,,,,,,,,,,,green,hexagon
48.0,5.0,0.5,1.0,1.0,1.0,358.6916254716925,4.0,1.0,phase_1,,,,,,,,,,,,,yellow,cross
29.0,5.0,0.5,1.0,2.0,2.0,370.7276247441768,4.0,1.0,phase_1,,,,,,,,,,,,,yellow,cross
68.0,5.0,0.5,1.0,2.0,2.0,538.6769784381613,4.0,1.0,phase_1,,,,,,,,,,,,,yellow,cross
0.0,2.0,0.0,0.0,4.0,4.0,393.2739364681765,4.0,1.0,phase_1,,,,,,,,,,,,,orange,I
381.0,8.0,4.0,1.0,4.0,4.0,437.852657167241,4.0,1.0,phase_1,,,,,,,,,,,,,white,triangle
0.0,5.0,0.0,1.0,4.0,4.0,415.8581500523723,4.0,1.0,phase_1,,,,,,,,,,,,,yellow,cross
216.0,3.0,2.0,0.0,1.0,1.0,474.378653569147,4.0,1.0,phase_1,,,,,,,,,,,,,magenta,diamond
76.0,2.0,1.0,0.0,2.0,2.0,518.5163972782902,4.0,1.0,phase_1,,,,,,,,,,,,,orange,I
386.0,4.0,4.0,0.0,4.0,4.0,419.6413434692658,4.0,1.0,phase_1,,,,,,,,,,,,,gray,flipped triangle
85.0,2.0,1.0,0.0,2.0,2.0,419.3542457651347,4.0,1.0,phase_1,,,,,,,,,,,,,orange,I
0.0,5.0,0.0,1.0,1.0,1.0,419.4762697443366,4.0,1.0,phase_1,,,,,,,,,,,,,yellow,cross
182.0,7.0,2.0,1.0,1.0,1.0,455.0478822784498,4.0,1.0,phase_1,,,,,,,,,,,,,blue,circle
214.0,3.0,2.0,0.0,3.0,3.0,363.6305793188512,4.0,1.0,phase_1,,,,,,,,,,,,,magenta,diamond
395.0,4.0,4.0,0.0,1.0,1.0,465.964576753322,4.0,1.0,phase_1,,,,,,,,,,,,,gray,flipped triangle
94.0,6.0,1.0,1.0,2.0,2.0,410.2657024632208,4.0,1.0,phase_1,,,,,,,,,,,,,green,hexagon
53.0,5.0,0.5,1.0,2.0,2.0,411.5103348740376,4.0,1.0,phase_1,,,,,,,,,,,,,yellow,cross
211.0,7.0,2.0,1.0,1.0,1.0,345.2932875952683,4.0,1.0,phase_1,,,,,,,,,,,,,blue,circle
383.0,4.0,4.0,0.0,3.0,3.0,433.5795987281017,4.0,1.0,phase_1,,,,,,,,,,,,,gray,flipped triangle
0.0,6.0,0.0,1.0,4.0,4.0,458.5145268356427,4.0,1.0,phase_1,,,,,,,,,,,,,green,hexagon
389.0,8.0,4.0,1.0,1.0,1.0,425.9924514917657,4.0,1.0,phase_1,,,,,,,,,,,,,white,triangle
123.0,2.0,1.0,0.0,2.0,2.0,470.2563545433804,4.0,1.0,phase_1,,,,,,,,,,,,,orange,I
40.0,1.0,0.5,0.0,1.0,1.0,538.2560145808384,4.0,1.0,phase_1,,,,,,,,,,,,,cyan,square
191.0,3.0,2.0,0.0,2.0,2.0,709.1691818204708,4.0,1.0,phase_1,,,,,,,,,,,,,magenta,diamond
73.0,1.0,0.5,0.0,4.0,4.0,416.5633481461555,4.0,1.0,phase_1,,,,,,,,,,,,,cyan,square
210.0,3.0,2.0,0.0,3.0,3.0,347.3429592559114,4.0,1.0,phase_1,,,,,,,,,,,,,magenta,diamond
0.0,6.0,0.0,1.0,1.0,1.0,517.5256677321158,4.0,1.0,phase_1,,,,,,,,,,,,,green,hexagon
73.0,5.0,0.5,1.0,2.0,2.0,495.5738141434267,4.0,1.0,phase_1,,,,,,,,,,,,,yellow,cross
0.0,1.0,0.0,0.0,3.0,3.0,462.7277614781633,4.0,1.0,phase_1,,,,,,,,,,,,,cyan,square
40.0,5.0,0.5,1.0,1.0,1.0,530.4891821579076,4.0,1.0,phase_1,,,,,,,,,,,,,yellow,cross
191.0,7.0,2.0,1.0,1.0,1.0,475.2206015982665,4.0,1.0,phase_1,,,,,,,,,,,,,blue,circle
35.0,5.0,0.5,1.0,2.0,2.0,510.8609388698824,4.0,1.0,phase_1,,,,,,,,,,,,,yellow,cross
399.0,8.0,4.0,1.0,3.0,3.0,397.4539085756987,4.0,1.0,phase_1,,,,,,,,,,,,,white,triangle
0.0,7.0,0.0,1.0,2.0,2.0,431.3757146010175,4.0,1.0,phase_1,,,,,,,,,,,,,blue,circle
0.0,2.0,0.0,0.0,1.0,1.0,397.8127094451338,4.0,1.0,phase_1,,,,,,,,,,,,,orange,I
0.0,2.0,0.0,0.0,3.0,3.0,544.9642017483711,4.0,1.0,phase_1,,,,,,,,,,,,,orange,I
0.0,3.0,0.0,0.0,2.0,2.0,422.554939170368,4.0,1.0,phase_1,,,,,,,,,,,,,magenta,diamond
421.0,8.0,4.0,1.0,2.0,2.0,412.7822577138431,4.0,1.0,phase_1,,,,,,,,,,,,,white,triangle
30.0,1.0,0.5,0.0,3.0,3.0,434.6455237828195,4.0,1.0,phase_1,,,,,,,,,,,,,cyan,square
37.0,5.0,0.5,1.0,2.0,2.0,435.3195968433283,4.0,1.0,phase_1,,,,,,,,,,,,,yellow,cross
0.0,4.0,0.0,0.0,3.0,3.0,536.0041041276418,4.0,1.0,phase_1,,,,,,,,,,,,,gray,flipped triangle
29.0,5.0,0.5,1.0,3.0,3.0,412.6058078254573,4.0,1.0,phase_1,,,,,,,,,,,,,yellow,cross
217.0,7.0,2.0,1.0,3.0,3.0,426.1892313370481,4.0,1.0,phase_1,,,,,,,,,,,,,blue,circle
412.0,4.0,4.0,0.0,3.0,3.0,346.0065061808564,4.0,1.0,phase_1,,,,,,,,,,,,,gray,flipped triangle
206.0,7.0,2.0,1.0,2.0,2.0,438.0582462763414,4.0,1.0,phase_1,,,,,,,,,,,,,blue,circle
416.0,8.0,4.0,1.0,3.0,3.0,392.9214738309383,4.0,1.0,phase_1,,,,,,,,,,,,,white,triangle
0.0,7.0,0.0,1.0,1.0,1.0,496.6619301703758,4.0,1.0,phase_1,,,,,,,,,,,,,blue,circle
0.0,1.0,0.0,0.0,3.0,3.0,404.4203857774846,4.0,1.0,phase_1,,,,,,,,,,,,,cyan,square
392.0,4.0,4.0,0.0,4.0,4.0,372.343479830306,4.0,1.0,phase_1,,,,,,,,,,,,,gray,flipped triangle
390.0,8.0,4.0,1.0,2.0,2.0,407.3262583115138,4.0,1.0,phase_1,,,,,,,,,,,,,white,triangle
78.0,2.0,1.0,0.0,4.0,4.0,374.8553702607751,4.0,1.0,phase_1,,,,,,,,,,,,,orange,I
80.0,2.0,1.0,0.0,3.0,3.0,362.3215476982295,4.0,1.0,phase_1,,,,,,,,,,,,,orange,I
0.0,4.0,0.0,0.0,2.0,2.0,419.2275100504048,4.0,1.0,phase_1,,,,,,,,,,,,,gray,flipped triangle
0.0,7.0,0.0,1.0,4.0,4.0,374.2926677223295,4.0,1.0,phase_1,,,,,,,,,,,,,blue,circle
404.0,4.0,4.0,0.0,4.0,4.0,433.8078141445294,4.0,1.0,phase_1,,,,,,,,,,,,,gray,flipped triangle
89.0,6.0,1.0,1.0,2.0,2.0,421.850397833623,4.0,1.0,phase_1,,,,,,,,,,,,,green,hexagon
33.0,1.0,0.5,0.0,4.0,4.0,634.9689677590504,4.0,1.0,phase_1,,,,,,,,,,,,,cyan,square
191.0,3.0,2.0,0.0,3.0,3.0,433.0192560446448,4.0,1.0,phase_1,,,,,,,,,,,,,magenta,diamond
195.0,7.0,2.0,1.0,1.0,1.0,367.3965061898343,4.0,1.0,phase_1,,,,,,,,,,,,,blue,circle
0.0,5.0,0.0,1.0,4.0,4.0,625.8350718417205,4.0,1.0,phase_1,,,,,,,,,,,,,yellow,cross
0.0,6.0,0.0,1.0,4.0,4.0,446.7612386215478,4.0,1.0,phase_1,,,,,,,,,,,,,green,hexagon
0.0,8.0,0.0,1.0,3.0,3.0,391.8219801853411,4.0,2.0,phase_1,,,,,,,,,,,,,white,triangle
51.0,5.0,0.5,1.0,4.0,4.0,414.3557990901172,4.0,1.0,phase_1,,,,,,,,,,,,,yellow,cross
416.0,8.0,4.0,1.0,2.0,2.0,403.1345673138276,4.0,1.0,phase_1,,,,,,,,,,,,,white,triangle
0.0,5.0,0.0,1.0,4.0,4.0,539.3413237761706,4.0,1.0,phase_1,,,,,,,,,,,,,yellow,cross
0.0,1.0,0.0,0.0,3.0,3.0,539.3327724887058,4.0,1.0,phase_1,,,,,,,,,,,,,cyan,square
100.0,6.0,1.0,1.0,1.0,1.0,495.9880584501661,4.0,2.0,phase_1,,,,,,,,,,,,,green,hexagon
402.0,8.0,4.0,1.0,1.0,1.0,631.78869971307,4.0,1.0,phase_1,,,,,,,,,,,,,white,triangle
381.0,4.0,4.0,0.0,3.0,3.0,485.2104128804058,4.0,1.0,phase_1,,,,,,,,,,,,,gray,flipped triangle
81.0,6.0,1.0,1.0,1.0,1.0,621.1693894583732,4.0,1.0,phase_1,,,,,,,,,,,,,green,hexagon
102.0,6.0,1.0,1.0,4.0,4.0,464.1235987073742,4.0,1.0,phase_1,,,,,,,,,,,,,green,hexagon
187.0,7.0,2.0,1.0,4.0,4.0,431.2706706114113,4.0,1.0,phase_1,,,,,,,,,,,,,blue,circle
39.0,5.0,0.5,1.0,1.0,1.0,521.8172378372401,4.0,1.0,phase_1,,,,,,,,,,,,,yellow,cross
416.0,4.0,4.0,0.0,4.0,4.0,386.2900554668158,4.0,1.0,phase_1,,,,,,,,,,,,,gray,flipped triangle
43.0,1.0,0.5,0.0,2.0,2.0,511.5081841358915,4.0,1.0,phase_1,,,,,,,,,,,,,cyan,square
0.0,4.0,0.0,0.0,4.0,4.0,500.07383147021756,4.0,1.0,phase_1,,,,,,,,,,,,,gray,flipped triangle
68.0,1.0,0.5,0.0,2.0,2.0,480.1893511321395,4.0,1.0,phase_1,,,,,,,,,,,,,cyan,square
48.0,5.0,0.5,1.0,3.0,3.0,367.0940083102323,4.0,1.0,phase_1,,,,,,,,,,,,,yellow,cross
68.0,1.0,0.5,0.0,1.0,1.0,446.2318654404953,4.0,1.0,phase_1,,,,,,,,,,,,,cyan,square
383.0,8.0,4.0,1.0,3.0,3.0,458.4277144749649,4.0,1.0,phase_1,,,,,,,,,,,,,white,triangle
402.0,4.0,4.0,0.0,3.0,3.0,435.5840307543985,4.0,1.0,phase_1,,,,,,,,,,,,,gray,flipped triangle
99.0,6.0,1.0,1.0,3.0,3.0,426.5086023369804,4.0,1.0,phase_1,,,,,,,,,,,,,green,hexagon
0.0,6.0,0.0,1.0,1.0,1.0,415.7439995906316,4.0,1.0,phase_1,,,,,,,,,,,,,green,hexagon
183.0,3.0,2.0,0.0,4.0,4.0,415.191347070504,4.0,1.0,phase_1,,,,,,,,,,,,,magenta,diamond
183.0,7.0,2.0,1.0,3.0,3.0,437.3597538215108,4.0,1.0,phase_1,,,,,,,,,,,,,blue,circle
219.0,3.0,2.0,0.0,3.0,3.0,392.7351200254634,4.0,1.0,phase_1,,,,,,,,,,,,,magenta,diamond
66.0,1.0,0.5,0.0,1.0,1.0,483.8191478629596,4.0,1.0,phase_1,,,,,,,,,,,,,cyan,square
214.0,3.0,2.0,0.0,2.0,2.0,530.9317422797903,4.0,1.0,phase_1,,,,,,,,,,,,,magenta,diamond
51.0,1.0,0.5,0.0,3.0,3.0,395.7925052964128,4.0,1.0,phase_1,,,,,,,,,,,,,cyan,square
27.0,5.0,0.5,1.0,4.0,4.0,373.9028233103454,4.0,1.0,phase_1,,,,,,,,,,,,,yellow,cross
390.0,4.0,4.0,0.0,3.0,3.0,441.40030402922997,4.0,1.0,phase_1,,,,,,,,,,,,,gray,flipped triangle
68.0,1.0,0.5,0.0,4.0,4.0,476.8645535805262,4.0,1.0,phase_1,,,,,,,,,,,,,cyan,square
201.0,3.0,2.0,0.0,1.0,1.0,523.0550780543126,4.0,1.0,phase_1,,,,,,,,,,,,,magenta,diamond
0.0,1.0,0.0,0.0,4.0,4.0,522.2337068407796,4.0,1.0,phase_1,,,,,,,,,,,,,cyan,square
0.0,2.0,0.0,0.0,4.0,4.0,444.7163394652307,4.0,1.0,phase_1,,,,,,,,,,,,,orange,I
378.0,4.0,4.0,0.0,4.0,4.0,456.8763085990213,4.0,1.0,phase_1,,,,,,,,,,,,,gray,flipped triangle
217.0,3.0,2.0,0.0,4.0,4.0,489.0057978336699,4.0,1.0,phase_1,,,,,,,,,,,,,magenta,diamond
120.0,2.0,1.0,0.0,2.0,2.0,490.79043319216,4.0,1.0,phase_1,,,,,,,,,,,,,orange,I
0.0,3.0,0.0,0.0,3.0,3.0,456.0501485248096,4.0,1.0,phase_1,,,,,,,,,,,,,magenta,diamond
35.0,1.0,0.5,0.0,4.0,4.0,547.6341531611979,4.0,1.0,phase_1,,,,,,,,,,,,,cyan,square
0.0,8.0,4.0,1.0,5.0,5.0,578.9118421962485,1.0,1.0,phase_2,stop,250.0,250.0,3.0,,,,,,,,,white,triangle
0.0,6.0,1.0,1.0,5.0,0.0,0.0,1.0,1.0,phase_2,stop,200.0,250.0,4.0,,,,,,,,,green,hexagon
0.0,5.0,0.5,1.0,6.0,0.0,0.0,1.0,1.0,phase_2,stop,250.0,250.0,4.0,,,,,,,,,yellow,cross
0.0,8.0,4.0,1.0,6.0,6.0,683.2764685386792,1.0,1.0,phase_2,go,250.0,300.0,1.0,,,,,,,,,white,triangle
0.0,7.0,2.0,1.0,5.0,0.0,0.0,1.0,1.0,phase_2,stop,250.0,300.0,4.0,,,,,,,,,blue,circle
0.0,1.0,0.5,0.0,5.0,5.0,706.3893722370267,1.0,1.0,phase_2,go,300.0,300.0,1.0,,,,,,,,,cyan,square
0.0,3.0,2.0,0.0,6.0,6.0,753.4144215751439,1.0,1.0,phase_2,go,300.0,300.0,1.0,,,,,,,,,magenta,diamond
0.0,3.0,2.0,0.0,6.0,6.0,775.6109772599302,1.0,1.0,phase_2,go,300.0,300.0,1.0,,,,,,,,,magenta,diamond
0.0,3.0,2.0,0.0,6.0,6.0,856.5555802197196,1.0,1.0,phase_2,go,300.0,300.0,1.0,,,,,,,,,magenta,diamond
0.0,2.0,1.0,0.0,5.0,5.0,641.6320866555907,1.0,1.0,phase_2,go,300.0,300.0,1.0,,,,,,,,,orange,I
0.0,6.0,1.0,1.0,6.0,6.0,710.6953909969889,1.0,1.0,phase_2,go,300.0,300.0,1.0,,,,,,,,,green,hexagon
0.0,4.0,4.0,0.0,6.0,6.0,778.0918222269975,1.0,1.0,phase_2,go,300.0,300.0,1.0,,,,,,,,,gray,flipped triangle
0.0,6.0,1.0,1.0,6.0,0.0,0.0,1.0,1.0,phase_2,stop,300.0,300.0,4.0,,,,,,,,,green,hexagon
0.0,8.0,4.0,1.0,6.0,6.0,792.6900248858146,1.0,1.0,phase_2,go,300.0,350.0,1.0,,,,,,,,,white,triangle
0.0,2.0,1.0,0.0,6.0,6.0,837.7471358980983,1.0,1.0,phase_2,go,300.0,350.0,1.0,,,,,,,,,orange,I
0.0,5.0,0.5,1.0,5.0,5.0,783.0182576435618,1.0,1.0,phase_2,go,300.0,350.0,1.0,,,,,,,,,yellow,cross
0.0,8.0,4.0,1.0,5.0,5.0,816.492618934717,1.0,1.0,phase_2,go,300.0,350.0,1.0,,,,,,,,,white,triangle
0.0,7.0,2.0,1.0,5.0,0.0,0.0,1.0,1.0,phase_2,stop,300.0,350.0,4.0,,,,,,,,,blue,circle
0.0,4.0,4.0,0.0,6.0,6.0,729.3567099259235,1.0,1.0,phase_2,go,350.0,350.0,1.0,,,,,,,,,gray,flipped triangle
0.0,6.0,1.0,1.0,6.0,0.0,0.0,1.0,1.0,phase_2,stop,350.0,350.0,4.0,,,,,,,,,green,hexagon
0.0,3.0,2.0,0.0,6.0,6.0,887.2671878780238,1.0,1.0,phase_2,go,350.0,400.0,1.0,,,,,,,,,magenta,diamond
0.0,7.0,2.0,1.0,6.0,0.0,0.0,1.0,1.0,phase_2,stop,350.0,400.0,4.0,,,,,,,,,blue,circle
0.0,8.0,4.0,1.0,6.0,6.0,821.7534112045541,1.0,1.0,phase_2,go,350.0,450.0,1.0,,,,,,,,,white,triangle
0.0,5.0,0.5,1.0,6.0,0.0,0.0,1.0,1.0,phase_2,stop,350.0,450.0,4.0,,,,,,,,,yellow,cross
0.0,4.0,4.0,0.0,6.0,6.0,812.107746663969,1.0,1.0,phase_2,go,350.0,500.0,1.0,,,,,,,,,gray,flipped triangle
0.0,5.0,0.5,1.0,6.0,6.0,1129.4046136317777,1.0,1.0,phase_2,go,350.0,500.0,1.0,,,,,,,,,yellow,cross
0.0,3.0,2.0,0.0,6.0,6.0,1252.067492925562,1.0,1.0,phase_2,go,350.0,500.0,1.0,,,,,,,,,magenta,diamond
0.0,5.0,0.5,1.0,6.0,0.0,0.0,1.0,1.0,phase_2,stop,350.0,500.0,4.0,,,,,,,,,yellow,cross
0.0,7.0,2.0,1.0,5.0,5.0,466.8337755720131,1.0,1.0,phase_2,stop,350.0,550.0,3.0,,,,,,,,,blue,circle
0.0,4.0,4.0,0.0,6.0,6.0,963.912867649924,1.0,1.0,phase_2,go,300.0,550.0,1.0,,,,,,,,,gray,flipped triangle
0.0,6.0,1.0,1.0,6.0,0.0,0.0,1.0,1.0,phase_2,stop,300.0,550.0,4.0,,,,,,,,,green,hexagon
0.0,7.0,2.0,1.0,6.0,6.0,976.1269319569692,1.0,1.0,phase_2,go,300.0,600.0,1.0,,,,,,,,,blue,circle
0.0,2.0,1.0,0.0,5.0,5.0,1088.4157941909507,1.0,1.0,phase_2,go,300.0,600.0,1.0,,,,,,,,,orange,I
0.0,3.0,2.0,0.0,6.0,6.0,1168.2627405971289,1.0,1.0,phase_2,go,300.0,600.0,1.0,,,,,,,,,magenta,diamond
0.0,3.0,2.0,0.0,5.0,5.0,899.0621071425267,1.0,1.0,phase_2,go,300.0,600.0,1.0,,,,,,,,,magenta,diamond
0.0,2.0,1.0,0.0,6.0,6.0,877.8067228849977,1.0,1.0,phase_2,go,300.0,600.0,1.0,,,,,,,,,orange,I
0.0,8.0,4.0,1.0,6.0,6.0,721.3963815593161,2.0,1.0,phase_2,stop,300.0,600.0,3.0,,,,,,,,,white,triangle
0.0,6.0,1.0,1.0,5.0,5.0,667.5237699528225,2.0,1.0,phase_2,go,300.0,550.0,1.0,,,,,,,,,green,hexagon
0.0,5.0,0.5,1.0,5.0,5.0,532.077091280371,2.0,1.0,phase_2,go,300.0,550.0,1.0,,,,,,,,,yellow,cross
0.0,7.0,2.0,1.0,5.0,0.0,0.0,2.0,1.0,phase_2,stop,300.0,550.0,4.0,,,,,,,,,blue,circle
0.0,2.0,1.0,0.0,6.0,6.0,533.4462079918012,2.0,1.0,phase_2,go,350.0,550.0,1.0,,,,,,,,,orange,I
0.0,1.0,0.5,0.0,5.0,5.0,422.552895557601,2.0,1.0,phase_2,go,350.0,550.0,1.0,,,,,,,,,cyan,square
0.0,5.0,0.5,1.0,6.0,6.0,332.8889115946367,2.0,1.0,phase_2,stop,350.0,550.0,3.0,,,,,,,,,yellow,cross
0.0,7.0,2.0,1.0,5.0,0.0,0.0,2.0,1.0,phase_2,stop,350.0,500.0,4.0,,,,,,,,,blue,circle
0.0,3.0,2.0,0.0,5.0,5.0,628.4739628899843,2.0,1.0,phase_2,go,400.0,500.0,1.0,,,,,,,,,magenta,diamond
0.0,5.0,0.5,1.0,5.0,0.0,0.0,2.0,1.0,phase_2,stop,400.0,500.0,4.0,,,,,,,,,yellow,cross
0.0,5.0,0.5,1.0,5.0,5.0,517.7326772827655,2.0,1.0,phase_2,stop,450.0,500.0,3.0,,,,,,,,,yellow,cross
0.0,2.0,1.0,0.0,5.0,5.0,1024.842472281307,2.0,1.0,phase_2,go,400.0,500.0,1.0,,,,,,,,,orange,I
0.0,5.0,0.5,1.0,6.0,6.0,427.5994965573773,2.0,1.0,phase_2,go,400.0,500.0,1.0,,,,,,,,,yellow,cross
0.0,4.0,4.0,0.0,5.0,5.0,609.7587100230157,2.0,1.0,phase_2,go,400.0,500.0,1.0,,,,,,,,,gray,flipped triangle
0.0,4.0,4.0,0.0,5.0,5.0,621.7491225688718,2.0,1.0,phase_2,go,400.0,500.0,1.0,,,,,,,,,gray,flipped triangle
0.0,2.0,1.0,0.0,6.0,6.0,498.504372255411,2.0,1.0,phase_2,go,400.0,500.0,1.0,,,,,,,,,orange,I
0.0,3.0,2.0,0.0,6.0,6.0,453.4953895490616,2.0,1.0,phase_2,go,400.0,500.0,1.0,,,,,,,,,magenta,diamond
0.0,4.0,4.0,0.0,6.0,6.0,467.6100562210195,2.0,1.0,phase_2,go,400.0,500.0,1.0,,,,,,,,,gray,flipped triangle
0.0,1.0,0.5,0.0,6.0,6.0,467.1982599538751,2.0,1.0,phase_2,go,400.0,500.0,1.0,,,,,,,,,cyan,square
0.0,4.0,4.0,0.0,6.0,6.0,648.1889202841558,2.0,1.0,phase_2,go,400.0,500.0,1.0,,,,,,,,,gray,flipped triangle
0.0,6.0,1.0,1.0,6.0,6.0,457.6007091673091,2.0,1.0,phase_2,stop,400.0,500.0,3.0,,,,,,,,,green,hexagon
0.0,8.0,4.0,1.0,5.0,5.0,525.0975119997747,2.0,1.0,phase_2,stop,400.0,450.0,3.0,,,,,,,,,white,triangle
0.0,8.0,4.0,1.0,6.0,0.0,0.0,2.0,1.0,phase_2,stop,350.0,450.0,4.0,,,,,,,,,white,triangle
0.0,2.0,1.0,0.0,6.0,6.0,809.134816925507,2.0,1.0,phase_2,go,350.0,500.0,1.0,,,,,,,,,orange,I
0.0,3.0,2.0,0.0,6.0,6.0,1157.5896192225628,2.0,1.0,phase_2,go,350.0,500.0,1.0,,,,,,,,,magenta,diamond
0.0,3.0,2.0,0.0,6.0,6.0,1125.6224801763892,2.0,1.0,phase_2,go,350.0,500.0,1.0,,,,,,,,,magenta,diamond
0.0,3.0,2.0,0.0,5.0,5.0,677.60563705815,2.0,1.0,phase_2,go,350.0,500.0,1.0,,,,,,,,,magenta,diamond
0.0,4.0,4.0,0.0,6.0,6.0,688.1608889088966,2.0,1.0,phase_2,go,350.0,500.0,1.0,,,,,,,,,gray,flipped triangle
0.0,3.0,2.0,0.0,5.0,5.0,668.1909668259323,2.0,1.0,phase_2,go,350.0,500.0,1.0,,,,,,,,,magenta,diamond
0.0,6.0,1.0,1.0,5.0,0.0,0.0,2.0,1.0,phase_2,stop,350.0,500.0,4.0,,,,,,,,,green,hexagon
0.0,6.0,1.0,1.0,6.0,6.0,602.1822271868587,2.0,1.0,phase_2,stop,400.0,500.0,3.0,,,,,,,,,green,hexagon
0.0,1.0,0.5,0.0,5.0,5.0,996.5773043222724,2.0,1.0,phase_2,go,400.0,450.0,1.0,,,,,,,,,cyan,square
0.0,1.0,0.5,0.0,6.0,6.0,828.5621795221232,2.0,1.0,phase_2,go,400.0,450.0,1.0,,,,,,,,,cyan,square
0.0,3.0,2.0,0.0,5.0,5.0,807.29475436965,2.0,1.0,phase_2,go,400.0,450.0,1.0,,,,,,,,,magenta,diamond
0.0,4.0,4.0,0.0,6.0,6.0,785.2390626794659,2.0,1.0,phase_2,go,400.0,450.0,1.0,,,,,,,,,gray,flipped triangle
0.0,6.0,1.0,1.0,5.0,0.0,0.0,2.0,1.0,phase_2,stop,400.0,450.0,4.0,,,,,,,,,green,hexagon
0.0,8.0,4.0,1.0,6.0,0.0,0.0,3.0,1.0,phase_2,stop,450.0,450.0,4.0,,,,,,,,,white,triangle
0.0,1.0,0.5,0.0,6.0,6.0,623.3792862039991,3.0,1.0,phase_2,go,450.0,500.0,1.0,,,,,,,,,cyan,square
0.0,6.0,1.0,1.0,6.0,6.0,579.6113009564579,3.0,1.0,phase_2,stop,450.0,500.0,3.0,,,,,,,,,green,hexagon
0.0,8.0,4.0,1.0,5.0,5.0,467.343738884665,3.0,1.0,phase_2,stop,450.0,450.0,3.0,,,,,,,,,white,triangle
0.0,7.0,2.0,1.0,6.0,6.0,602.7192479232326,3.0,1.0,phase_2,go,400.0,450.0,1.0,,,,,,,,,blue,circle
0.0,7.0,2.0,1.0,6.0,6.0,581.3417541212402,3.0,1.0,phase_2,go,400.0,450.0,1.0,,,,,,,,,blue,circle
0.0,4.0,4.0,0.0,6.0,6.0,628.7886211648583,3.0,1.0,phase_2,go,400.0,450.0,1.0,,,,,,,,,gray,flipped triangle
0.0,7.0,2.0,1.0,5.0,0.0,0.0,3.0,1.0,phase_2,stop,400.0,450.0,4.0,,,,,,,,,blue,circle
0.0,6.0,1.0,1.0,6.0,0.0,0.0,3.0,1.0,phase_2,stop,450.0,450.0,4.0,,,,,,,,,green,hexagon
0.0,7.0,2.0,1.0,6.0,6.0,685.3879790287465,3.0,1.0,phase_2,go,450.0,500.0,1.0,,,,,,,,,blue,circle
0.0,3.0,2.0,0.0,6.0,6.0,879.553250502795,3.0,1.0,phase_2,go,450.0,500.0,1.0,,,,,,,,,magenta,diamond
0.0,1.0,0.5,0.0,6.0,6.0,664.5974895218387,3.0,1.0,phase_2,go,450.0,500.0,1.0,,,,,,,,,cyan,square
0.0,1.0,0.5,0.0,5.0,5.0,599.5790591696277,3.0,1.0,phase_2,go,450.0,500.0,1.0,,,,,,,,,cyan,square
0.0,3.0,2.0,0.0,6.0,6.0,544.3130775238387,3.0,1.0,phase_2,go,450.0,500.0,1.0,,,,,,,,,magenta,diamond
0.0,5.0,0.5,1.0,5.0,0.0,0.0,3.0,1.0,phase_2,stop,450.0,500.0,4.0,,,,,,,,,yellow,cross
0.0,4.0,4.0,0.0,5.0,5.0,726.000067545101,3.0,1.0,phase_2,go,500.0,500.0,1.0,,,,,,,,,gray,flipped triangle
0.0,6.0,1.0,1.0,5.0,0.0,0.0,3.0,1.0,phase_2,stop,500.0,500.0,4.0,,,,,,,,,green,hexagon
0.0,3.0,2.0,0.0,5.0,5.0,750.369640532881,3.0,1.0,phase_2,go,550.0,500.0,1.0,,,,,,,,,magenta,diamond
0.0,8.0,4.0,1.0,5.0,5.0,728.4076068899594,3.0,1.0,phase_2,stop,550.0,500.0,3.0,,,,,,,,,white,triangle
0.0,3.0,2.0,0.0,5.0,5.0,907.6472015003674,3.0,1.0,phase_2,go,500.0,500.0,1.0,,,,,,,,,magenta,diamond
0.0,7.0,2.0,1.0,5.0,0.0,0.0,3.0,1.0,phase_2,stop,500.0,500.0,4.0,,,,,,,,,blue,circle
0.0,8.0,4.0,1.0,6.0,6.0,685.0103549077176,3.0,1.0,phase_2,go,550.0,500.0,1.0,,,,,,,,,white,triangle
0.0,7.0,2.0,1.0,6.0,0.0,0.0,3.0,1.0,phase_2,stop,550.0,500.0,4.0,,,,,,,,,blue,circle
0.0,8.0,4.0,1.0,5.0,0.0,0.0,3.0,1.0,phase_2,stop,550.0,550.0,4.0,,,,,,,,,white,triangle
0.0,1.0,0.5,0.0,6.0,6.0,339.2806309275329,3.0,1.0,phase_2,go,600.0,550.0,1.0,,,,,,,,,cyan,square
0.0,6.0,1.0,1.0,5.0,5.0,361.8784471764229,3.0,1.0,phase_2,go,600.0,550.0,1.0,,,,,,,,,green,hexagon
0.0,7.0,2.0,1.0,5.0,0.0,0.0,3.0,1.0,phase_2,stop,600.0,550.0,4.0,,,,,,,,,blue,circle
0.0,2.0,1.0,0.0,6.0,6.0,814.6180969197303,3.0,1.0,phase_2,go,650.0,550.0,1.0,,,,,,,,,orange,I
0.0,6.0,1.0,1.0,6.0,6.0,668.1797199416906,3.0,1.0,phase_2,stop,650.0,550.0,3.0,,,,,,,,,green,hexagon
0.0,6.0,1.0,1.0,5.0,5.0,781.7281242460012,3.0,1.0,phase_2,stop,650.0,500.0,3.0,,,,,,,,,green,hexagon
0.0,6.0,1.0,1.0,6.0,0.0,0.0,3.0,1.0,phase_2,stop,600.0,500.0,4.0,,,,,,,,,green,hexagon
0.0,7.0,2.0,1.0,5.0,5.0,883.9677086216398,3.0,1.0,phase_2,go,600.0,550.0,1.0,,,,,,,,,blue,circle
0.0,3.0,2.0,0.0,5.0,5.0,794.7905126493424,3.0,1.0,phase_2,go,600.0,550.0,1.0,,,,,,,,,magenta,diamond
0.0,8.0,4.0,1.0,5.0,0.0,0.0,3.0,1.0,phase_2,stop,600.0,550.0,4.0,,,,,,,,,white,triangle
0.0,7.0,2.0,1.0,6.0,6.0,977.5305168586784,3.0,1.0,phase_2,go,650.0,550.0,1.0,,,,,,,,,blue,circle
0.0,1.0,0.5,0.0,6.0,6.0,842.5284621771425,3.0,1.0,phase_2,go,650.0,550.0,1.0,,,,,,,,,cyan,square
0.0,8.0,4.0,1.0,6.0,6.0,822.4485366372392,4.0,1.0,phase_2,stop,650.0,550.0,3.0,,,,,,,,,white,triangle
0.0,2.0,1.0,0.0,5.0,5.0,339.7306932602078,4.0,1.0,phase_2,go,650.0,500.0,1.0,,,,,,,,,orange,I
0.0,6.0,1.0,1.0,6.0,6.0,218.2380651938729,4.0,1.0,phase_2,stop,650.0,500.0,3.0,,,,,,,,,green,hexagon
0.0,7.0,2.0,1.0,5.0,5.0,263.0320261232555,4.0,1.0,phase_2,stop,650.0,450.0,3.0,,,,,,,,,blue,circle
0.0,1.0,0.5,0.0,6.0,6.0,262.9881956381723,4.0,1.0,phase_2,go,600.0,450.0,1.0,,,,,,,,,cyan,square
0.0,6.0,1.0,1.0,5.0,5.0,297.7080316049978,4.0,1.0,phase_2,stop,600.0,450.0,3.0,,,,,,,,,green,hexagon
0.0,2.0,1.0,0.0,5.0,5.0,433.7942838901654,4.0,1.0,phase_2,go,550.0,450.0,1.0,,,,,,,,,orange,I
0.0,5.0,0.5,1.0,5.0,5.0,344.4700601976365,4.0,1.0,phase_2,go,550.0,450.0,1.0,,,,,,,,,yellow,cross
0.0,3.0,2.0,0.0,5.0,5.0,356.5559103153646,4.0,1.0,phase_2,go,550.0,450.0,1.0,,,,,,,,,magenta,diamond
0.0,7.0,2.0,1.0,6.0,6.0,324.2640615790151,4.0,1.0,phase_2,stop,550.0,450.0,3.0,,,,,,,,,blue,circle
0.0,1.0,0.5,0.0,5.0,5.0,256.4236331963911,4.0,1.0,phase_2,go,550.0,400.0,1.0,,,,,,,,,cyan,square
0.0,4.0,4.0,0.0,5.0,5.0,349.1981571423821,4.0,1.0,phase_2,go,550.0,400.0,1.0,,,,,,,,,gray,flipped triangle
0.0,2.0,1.0,0.0,5.0,5.0,326.0300862602889,4.0,1.0,phase_2,go,550.0,400.0,1.0,,,,,,,,,orange,I
0.0,6.0,1.0,1.0,5.0,5.0,576.0760938865133,4.0,1.0,phase_2,stop,550.0,400.0,3.0,,,,,,,,,green,hexagon
0.0,5.0,0.5,1.0,5.0,5.0,340.5379222822375,4.0,1.0,phase_2,stop,500.0,400.0,3.0,,,,,,,,,yellow,cross
0.0,3.0,2.0,0.0,6.0,6.0,374.9885324505158,4.0,1.0,phase_2,go,450.0,400.0,1.0,,,,,,,,,magenta,diamond
0.0,5.0,0.5,1.0,6.0,6.0,340.4971575946547,4.0,1.0,phase_2,stop,450.0,400.0,3.0,,,,,,,,,yellow,cross
0.0,7.0,2.0,1.0,6.0,6.0,342.703930917196,4.0,1.0,phase_2,stop,450.0,350.0,3.0,,,,,,,,,blue,circle
0.0,4.0,4.0,0.0,6.0,6.0,489.4081460079178,4.0,1.0,phase_2,go,450.0,300.0,1.0,,,,,,,,,gray,flipped triangle
0.0,5.0,0.5,1.0,6.0,6.0,456.2479326268658,4.0,1.0,phase_2,stop,450.0,300.0,3.0,,,,,,,,,yellow,cross
0.0,1.0,0.5,0.0,6.0,6.0,402.2984132752754,4.0,1.0,phase_2,go,450.0,250.0,1.0,,,,,,,,,cyan,square
0.0,6.0,1.0,1.0,5.0,5.0,323.8971419050358,4.0,1.0,phase_2,go,450.0,250.0,1.0,,,,,,,,,green,hexagon
0.0,6.0,1.0,1.0,5.0,5.0,335.6513051548973,4.0,1.0,phase_2,stop,450.0,250.0,3.0,,,,,,,,,green,hexagon
0.0,7.0,2.0,1.0,6.0,6.0,335.388696170412,4.0,1.0,phase_2,go,400.0,250.0,1.0,,,,,,,,,blue,circle
0.0,7.0,2.0,1.0,5.0,5.0,324.2637740913778,4.0,1.0,phase_2,stop,400.0,250.0,3.0,,,,,,,,,blue,circle
0.0,2.0,1.0,0.0,5.0,5.0,721.215462544933,4.0,1.0,phase_2,go,350.0,250.0,1.0,,,,,,,,,orange,I
0.0,6.0,1.0,1.0,5.0,5.0,450.6757567869499,4.0,1.0,phase_2,stop,350.0,250.0,3.0,,,,,,,,,green,hexagon
0.0,3.0,2.0,0.0,5.0,5.0,383.3400226430967,4.0,1.0,phase_2,go,300.0,250.0,1.0,,,,,,,,,magenta,diamond
0.0,6.0,1.0,1.0,5.0,5.0,374.0333938621916,4.0,1.0,phase_2,stop,300.0,250.0,3.0,,,,,,,,,green,hexagon
0.0,7.0,2.0,1.0,6.0,6.0,396.927562658675,4.0,1.0,phase_2,stop,250.0,250.0,3.0,,,,,,,,,blue,circle
0.0,5.0,0.5,1.0,6.0,6.0,409.4428591779433,4.0,1.0,phase_2,stop,250.0,200.0,3.0,,,,,,,,,yellow,cross
0.0,1.0,0.5,0.0,5.0,5.0,589.653042901773,4.0,1.0,phase_2,go,250.0,150.0,1.0,,,,,,,,,cyan,square
0.0,1.0,0.5,0.0,5.0,5.0,555.9250605292618,4.0,1.0,phase_2,go,250.0,150.0,1.0,,,,,,,,,cyan,square
0.0,3.0,2.0,0.0,5.0,5.0,512.7635379321873,4.0,1.0,phase_2,go,250.0,150.0,1.0,,,,,,,,,magenta,diamond
0.0,8.0,4.0,1.0,6.0,6.0,334.3190142186358,4.0,1.0,phase_2,stop,250.0,150.0,3.0,,,,,,,,,white,triangle
0.0,4.0,4.0,0.0,5.0,5.0,425.662231282331,4.0,1.0,phase_2,go,250.0,100.0,1.0,,,,,,,,,gray,flipped triangle
0.0,2.0,1.0,0.0,5.0,5.0,835.8793188817799,5.0,1.0,phase_2,go,250.0,100.0,1.0,,,,,,,,,orange,I
0.0,8.0,4.0,1.0,6.0,6.0,364.842884184327,5.0,1.0,phase_2,stop,250.0,100.0,3.0,,,,,,,,,white,triangle
0.0,7.0,2.0,1.0,5.0,5.0,410.2939700242132,5.0,1.0,phase_2,stop,250.0,50.0,3.0,,,,,,,,,blue,circle
0.0,4.0,4.0,0.0,6.0,6.0,546.6515755397268,5.0,1.0,phase_2,go,200.0,50.0,1.0,,,,,,,,,gray,flipped triangle
0.0,1.0,0.5,0.0,5.0,5.0,828.2121121301316,5.0,1.0,phase_2,go,200.0,50.0,1.0,,,,,,,,,cyan,square
0.0,5.0,0.5,1.0,5.0,0.0,0.0,5.0,1.0,phase_2,stop,200.0,50.0,4.0,,,,,,,,,yellow,cross
0.0,5.0,0.5,1.0,6.0,0.0,0.0,5.0,1.0,phase_2,stop,250.0,50.0,4.0,,,,,,,,,yellow,cross
0.0,1.0,0.5,0.0,5.0,5.0,785.9727093600668,5.0,1.0,phase_2,go,250.0,100.0,1.0,,,,,,,,,cyan,square
0.0,4.0,4.0,0.0,5.0,5.0,763.7511419015937,5.0,1.0,phase_2,go,250.0,100.0,1.0,,,,,,,,,gray,flipped triangle
0.0,2.0,1.0,0.0,6.0,6.0,607.2800726396963,5.0,1.0,phase_2,go,250.0,100.0,1.0,,,,,,,,,orange,I
0.0,7.0,2.0,1.0,6.0,0.0,0.0,5.0,1.0,phase_2,stop,250.0,100.0,4.0,,,,,,,,,blue,circle
0.0,3.0,2.0,0.0,5.0,5.0,856.166307523381,5.0,1.0,phase_2,go,250.0,150.0,1.0,,,,,,,,,magenta,diamond
0.0,5.0,0.5,1.0,6.0,0.0,0.0,5.0,1.0,phase_2,stop,250.0,150.0,4.0,,,,,,,,,yellow,cross
0.0,2.0,1.0,0.0,6.0,6.0,824.205705546774,5.0,1.0,phase_2,go,250.0,200.0,1.0,,,,,,,,,orange,I
0.0,4.0,4.0,0.0,6.0,6.0,556.5538266673684,5.0,1.0,phase_2,go,250.0,200.0,1.0,,,,,,,,,gray,flipped triangle
0.0,4.0,4.0,0.0,5.0,5.0,443.6364451539702,5.0,1.0,phase_2,go,250.0,200.0,1.0,,,,,,,,,gray,flipped triangle
0.0,4.0,4.0,0.0,5.0,5.0,681.055610650219,5.0,1.0,phase_2,go,250.0,200.0,1.0,,,,,,,,,gray,flipped triangle
0.0,2.0,1.0,0.0,5.0,5.0,603.8991317618638,5.0,1.0,phase_2,go,250.0,200.0,1.0,,,,,,,,,orange,I
0.0,1.0,0.5,0.0,6.0,6.0,638.5344269219786,5.0,1.0,phase_2,go,250.0,200.0,1.0,,,,,,,,,cyan,square
0.0,8.0,4.0,1.0,6.0,0.0,0.0,5.0,1.0,phase_2,stop,250.0,200.0,4.0,,,,,,,,,white,triangle
0.0,8.0,4.0,1.0,6.0,0.0,0.0,5.0,1.0,phase_2,stop,250.0,250.0,4.0,,,,,,,,,white,triangle
0.0,4.0,4.0,0.0,6.0,6.0,763.6161385453306,5.0,1.0,phase_2,go,250.0,300.0,1.0,,,,,,,,,gray,flipped triangle
0.0,2.0,1.0,0.0,5.0,5.0,855.9079501428641,5.0,1.0,phase_2,go,250.0,300.0,1.0,,,,,,,,,orange,I
0.0,3.0,2.0,0.0,5.0,5.0,889.4853919046,5.0,1.0,phase_2,go,250.0,300.0,1.0,,,,,,,,,magenta,diamond
0.0,4.0,4.0,0.0,6.0,6.0,383.0898228916339,5.0,1.0,phase_2,go,250.0,300.0,1.0,,,,,,,,,gray,flipped triangle
0.0,2.0,1.0,0.0,5.0,5.0,620.9617541753687,5.0,1.0,phase_2,go,250.0,300.0,1.0,,,,,,,,,orange,I
0.0,1.0,0.5,0.0,6.0,6.0,633.0876305582933,5.0,1.0,phase_2,go,250.0,300.0,1.0,,,,,,,,,cyan,square
0.0,4.0,4.0,0.0,6.0,6.0,723.8700689049438,5.0,1.0,phase_2,go,250.0,300.0,1.0,,,,,,,,,gray,flipped triangle
0.0,5.0,0.5,1.0,5.0,0.0,0.0,5.0,1.0,phase_2,stop,250.0,300.0,4.0,,,,,,,,,yellow,cross
0.0,3.0,2.0,0.0,5.0,5.0,600.8839032729156,5.0,1.0,phase_2,go,300.0,300.0,1.0,,,,,,,,,magenta,diamond
0.0,5.0,0.5,1.0,6.0,0.0,0.0,5.0,1.0,phase_2,stop,300.0,300.0,4.0,,,,,,,,,yellow,cross
0.0,2.0,1.0,0.0,6.0,6.0,840.7540663029067,5.0,1.0,phase_2,go,300.0,350.0,1.0,,,,,,,,,orange,I
0.0,7.0,2.0,1.0,5.0,0.0,0.0,5.0,1.0,phase_2,stop,300.0,350.0,4.0,,,,,,,,,blue,circle
0.0,2.0,1.0,0.0,6.0,6.0,750.9737812215462,5.0,1.0,phase_2,go,350.0,350.0,1.0,,,,,,,,,orange,I
0.0,6.0,1.0,1.0,5.0,0.0,0.0,5.0,1.0,phase_2,stop,350.0,350.0,4.0,,,,,,,,,green,hexagon
0.0,1.0,0.5,0.0,6.0,6.0,685.4664665297605,5.0,1.0,phase_2,go,400.0,350.0,1.0,,,,,,,,,cyan,square
0.0,1.0,0.5,0.0,5.0,5.0,584.7025233088061,6.0,1.0,phase_2,go,400.0,350.0,1.0,,,,,,,,,cyan,square
0.0,1.0,0.5,0.0,6.0,6.0,799.2304103681818,6.0,1.0,phase_2,go,400.0,350.0,1.0,,,,,,,,,cyan,square
0.0,8.0,4.0,1.0,6.0,0.0,0.0,6.0,1.0,phase_2,stop,400.0,350.0,4.0,,,,,,,,,white,triangle
0.0,6.0,1.0,1.0,6.0,0.0,0.0,6.0,1.0,phase_2,stop,400.0,400.0,4.0,,,,,,,,,green,hexagon
0.0,5.0,0.5,1.0,5.0,0.0,0.0,6.0,1.0,phase_2,stop,400.0,450.0,4.0,,,,,,,,,yellow,cross
0.0,1.0,0.5,0.0,6.0,6.0,633.9403631864116,6.0,1.0,phase_2,go,450.0,450.0,1.0,,,,,,,,,cyan,square
0.0,5.0,0.5,1.0,5.0,5.0,689.3178801983595,6.0,1.0,phase_2,go,450.0,450.0,1.0,,,,,,,,,yellow,cross
0.0,8.0,4.0,1.0,5.0,5.0,578.1136889127083,6.0,1.0,phase_2,go,450.0,450.0,1.0,,,,,,,,,white,triangle
0.0,1.0,0.5,0.0,5.0,5.0,646.1918883724138,6.0,1.0,phase_2,go,450.0,450.0,1.0,,,,,,,,,cyan,square
0.0,1.0,0.5,0.0,5.0,5.0,624.7067802469246,6.0,1.0,phase_2,go,450.0,450.0,1.0,,,,,,,,,cyan,square
0.0,2.0,1.0,0.0,6.0,6.0,501.82298017898574,6.0,1.0,phase_2,go,450.0,450.0,1.0,,,,,,,,,orange,I
0.0,8.0,4.0,1.0,5.0,5.0,660.7387783005834,6.0,1.0,phase_2,go,450.0,450.0,1.0,,,,,,,,,white,triangle
0.0,7.0,2.0,1.0,6.0,6.0,538.5115318931639,6.0,1.0,phase_2,stop,450.0,450.0,3.0,,,,,,,,,blue,circle
0.0,7.0,2.0,1.0,5.0,0.0,0.0,6.0,1.0,phase_2,stop,450.0,400.0,4.0,,,,,,,,,blue,circle
0.0,6.0,1.0,1.0,6.0,6.0,651.2406332767569,6.0,1.0,phase_2,go,500.0,400.0,1.0,,,,,,,,,green,hexagon
0.0,7.0,2.0,1.0,6.0,0.0,0.0,6.0,1.0,phase_2,stop,500.0,400.0,4.0,,,,,,,,,blue,circle
0.0,8.0,4.0,1.0,6.0,0.0,0.0,6.0,1.0,phase_2,stop,500.0,450.0,4.0,,,,,,,,,white,triangle
0.0,5.0,0.5,1.0,6.0,6.0,620.4449679935351,6.0,1.0,phase_2,go,500.0,500.0,1.0,,,,,,,,,yellow,cross
0.0,6.0,1.0,1.0,6.0,0.0,0.0,6.0,1.0,phase_2,stop,500.0,500.0,4.0,,,,,,,,,green,hexagon
0.0,4.0,4.0,0.0,5.0,5.0,791.3959399447776,6.0,1.0,phase_2,go,500.0,550.0,1.0,,,,,,,,,gray,flipped triangle
0.0,8.0,4.0,1.0,5.0,5.0,803.9758612867445,6.0,1.0,phase_2,go,500.0,550.0,1.0,,,,,,,,,white,triangle
0.0,5.0,0.5,1.0,5.0,5.0,579.956567613408,6.0,1.0,phase_2,stop,500.0,550.0,3.0,,,,,,,,,yellow,cross
0.0,3.0,2.0,0.0,6.0,6.0,749.1047052899376,6.0,1.0,phase_2,go,450.0,550.0,1.0,,,,,,,,,magenta,diamond
0.0,5.0,0.5,1.0,5.0,0.0,0.0,6.0,1.0,phase_2,stop,450.0,550.0,4.0,,,,,,,,,yellow,cross
0.0,6.0,1.0,1.0,5.0,5.0,806.0889655607753,6.0,1.0,phase_2,go,500.0,550.0,1.0,,,,,,,,,green,hexagon
0.0,8.0,4.0,1.0,5.0,0.0,0.0,6.0,1.0,phase_2,stop,500.0,550.0,4.0,,,,,,,,,white,triangle
0.0,3.0,2.0,0.0,5.0,5.0,831.3331785611808,6.0,1.0,phase_2,go,550.0,550.0,1.0,,,,,,,,,magenta,diamond
0.0,2.0,1.0,0.0,5.0,5.0,898.2533459784463,6.0,1.0,phase_2,go,550.0,550.0,1.0,,,,,,,,,orange,I
0.0,1.0,0.5,0.0,5.0,5.0,977.816150872968,6.0,1.0,phase_2,go,550.0,550.0,1.0,,,,,,,,,cyan,square
0.0,2.0,1.0,0.0,6.0,6.0,822.9803125723265,6.0,1.0,phase_2,go,550.0,550.0,1.0,,,,,,,,,orange,I
0.0,8.0,4.0,1.0,6.0,0.0,0.0,6.0,1.0,phase_2,stop,550.0,550.0,4.0,,,,,,,,,white,triangle
0.0,8.0,4.0,1.0,6.0,0.0,0.0,6.0,1.0,phase_2,stop,550.0,600.0,4.0,,,,,,,,,white,triangle
0.0,4.0,4.0,0.0,5.0,5.0,677.0722551736981,6.0,1.0,phase_2,go,550.0,650.0,1.0,,,,,,,,,gray,flipped triangle
0.0,6.0,1.0,1.0,6.0,6.0,757.1986662806012,6.0,1.0,phase_2,stop,550.0,650.0,3.0,,,,,,,,,green,hexagon
0.0,3.0,2.0,0.0,5.0,0.0,0.0,6.0,1.0,phase_2,go,550.0,600.0,5.0,,,,,,,,,magenta,diamond
0.0,7.0,2.0,1.0,5.0,5.0,872.1828979323618,6.0,1.0,phase_2,go,550.0,600.0,1.0,,,,,,,,,blue,circle
0.0,5.0,0.5,1.0,5.0,5.0,589.4456961541437,7.0,1.0,phase_2,stop,550.0,600.0,3.0,,,,,,,,,yellow,cross
0.0,6.0,1.0,1.0,5.0,5.0,736.5554881980643,7.0,1.0,phase_2,go,500.0,600.0,1.0,,,,,,,,,green,hexagon
0.0,3.0,2.0,0.0,6.0,6.0,613.8303495245054,7.0,1.0,phase_2,go,500.0,600.0,1.0,,,,,,,,,magenta,diamond
0.0,5.0,0.5,1.0,5.0,5.0,536.0052898759022,7.0,1.0,phase_2,stop,500.0,600.0,3.0,,,,,,,,,yellow,cross
0.0,7.0,2.0,1.0,5.0,0.0,0.0,7.0,1.0,phase_2,stop,450.0,600.0,4.0,,,,,,,,,blue,circle
0.0,2.0,1.0,0.0,5.0,5.0,874.2157479282469,7.0,1.0,phase_2,go,500.0,600.0,1.0,,,,,,,,,orange,I
0.0,7.0,2.0,1.0,6.0,0.0,0.0,7.0,1.0,phase_2,stop,500.0,600.0,4.0,,,,,,,,,blue,circle
0.0,8.0,4.0,1.0,5.0,0.0,0.0,7.0,1.0,phase_2,stop,500.0,650.0,4.0,,,,,,,,,white,triangle
0.0,4.0,4.0,0.0,5.0,5.0,878.1510495464318,7.0,1.0,phase_2,go,550.0,650.0,1.0,,,,,,,,,gray,flipped triangle
0.0,2.0,1.0,0.0,5.0,5.0,788.1263741292059,7.0,1.0,phase_2,go,550.0,650.0,1.0,,,,,,,,,orange,I
0.0,2.0,1.0,0.0,6.0,6.0,676.9473800086416,7.0,1.0,phase_2,go,550.0,650.0,1.0,,,,,,,,,orange,I
0.0,3.0,2.0,0.0,5.0,5.0,892.5126241520047,7.0,1.0,phase_2,go,550.0,650.0,1.0,,,,,,,,,magenta,diamond
0.0,4.0,4.0,0.0,5.0,5.0,747.1361318021081,7.0,1.0,phase_2,go,550.0,650.0,1.0,,,,,,,,,gray,flipped triangle
0.0,7.0,2.0,1.0,5.0,5.0,679.7034702030942,7.0,1.0,phase_2,stop,550.0,650.0,3.0,,,,,,,,,blue,circle
0.0,1.0,0.5,0.0,6.0,6.0,836.7797792889178,7.0,1.0,phase_2,go,500.0,650.0,1.0,,,,,,,,,cyan,square
0.0,4.0,4.0,0.0,5.0,5.0,884.2469881637953,7.0,1.0,phase_2,go,500.0,650.0,1.0,,,,,,,,,gray,flipped triangle
0.0,4.0,4.0,0.0,6.0,6.0,840.1255566277541,7.0,1.0,phase_2,go,500.0,650.0,1.0,,,,,,,,,gray,flipped triangle
0.0,1.0,0.5,0.0,6.0,6.0,784.1676001553424,7.0,1.0,phase_2,go,500.0,650.0,1.0,,,,,,,,,cyan,square
0.0,7.0,2.0,1.0,5.0,0.0,0.0,7.0,1.0,phase_2,stop,500.0,650.0,4.0,,,,,,,,,blue,circle
0.0,1.0,0.5,0.0,6.0,6.0,593.8587678829208,7.0,1.0,phase_2,go,550.0,650.0,1.0,,,,,,,,,cyan,square
0.0,1.0,0.5,0.0,6.0,6.0,910.1942882407455,7.0,1.0,phase_2,go,550.0,650.0,1.0,,,,,,,,,cyan,square
0.0,1.0,0.5,0.0,5.0,5.0,977.8150172205642,7.0,1.0,phase_2,go,550.0,650.0,1.0,,,,,,,,,cyan,square
0.0,5.0,0.5,1.0,6.0,0.0,0.0,7.0,1.0,phase_2,stop,550.0,650.0,4.0,,,,,,,,,yellow,cross
0.0,4.0,4.0,0.0,5.0,5.0,462.826183589641,7.0,1.0,phase_2,go,550.0,700.0,1.0,,,,,,,,,gray,flipped triangle
0.0,3.0,2.0,0.0,6.0,6.0,1002.7975194971075,7.0,1.0,phase_2,go,550.0,700.0,1.0,,,,,,,,,magenta,diamond
0.0,5.0,0.5,1.0,5.0,5.0,1070.9903235547245,7.0,1.0,phase_2,go,550.0,700.0,1.0,,,,,,,,,yellow,cross
0.0,3.0,2.0,0.0,6.0,6.0,880.796717305202,7.0,1.0,phase_2,go,550.0,700.0,1.0,,,,,,,,,magenta,diamond
0.0,3.0,2.0,0.0,5.0,5.0,950.264522281941,7.0,1.0,phase_2,go,550.0,700.0,1.0,,,,,,,,,magenta,diamond
0.0,1.0,0.5,0.0,5.0,5.0,715.3075005626306,7.0,1.0,phase_2,go,550.0,700.0,1.0,,,,,,,,,cyan,square
0.0,2.0,1.0,0.0,5.0,5.0,1142.3018409404904,7.0,1.0,phase_2,go,550.0,700.0,1.0,,,,,,,,,orange,I
0.0,7.0,2.0,1.0,6.0,0.0,0.0,7.0,1.0,phase_2,stop,550.0,700.0,4.0,,,,,,,,,blue,circle
0.0,5.0,0.5,1.0,5.0,0.0,0.0,7.0,1.0,phase_2,stop,550.0,750.0,4.0,,,,,,,,,yellow,cross
0.0,4.0,4.0,0.0,6.0,6.0,638.9806694351137,7.0,1.0,phase_2,go,600.0,750.0,1.0,,,,,,,,,gray,flipped triangle
0.0,4.0,4.0,0.0,5.0,5.0,797.108007769566,7.0,1.0,phase_2,go,600.0,750.0,1.0,,,,,,,,,gray,flipped triangle
0.0,4.0,4.0,0.0,5.0,5.0,909.505276940763,7.0,1.0,phase_2,go,600.0,750.0,1.0,,,,,,,,,gray,flipped triangle
0.0,7.0,2.0,1.0,6.0,0.0,0.0,7.0,1.0,phase_2,stop,600.0,750.0,4.0,,,,,,,,,blue,circle
0.0,2.0,1.0,0.0,5.0,1.0,1081.5915922867134,8.0,1.0,phase_2,go,600.0,800.0,2.0,,,,,,,,,orange,I
0.0,5.0,0.5,1.0,6.0,6.0,622.4138482939452,8.0,1.0,phase_2,stop,600.0,800.0,3.0,,,,,,,,,yellow,cross
0.0,3.0,2.0,0.0,6.0,6.0,554.5025742030703,8.0,1.0,phase_2,go,600.0,750.0,1.0,,,,,,,,,magenta,diamond
0.0,3.0,2.0,0.0,6.0,6.0,455.0593846361153,8.0,1.0,phase_2,go,600.0,750.0,1.0,,,,,,,,,magenta,diamond
0.0,2.0,1.0,0.0,6.0,6.0,816.7366518173367,8.0,1.0,phase_2,go,600.0,750.0,1.0,,,,,,,,,orange,I
0.0,8.0,4.0,1.0,5.0,5.0,681.2518527149223,8.0,1.0,phase_2,stop,600.0,750.0,3.0,,,,,,,,,white,triangle
0.0,1.0,0.5,0.0,5.0,5.0,840.0062035652809,8.0,1.0,phase_2,go,550.0,750.0,1.0,,,,,,,,,cyan,square
0.0,8.0,4.0,1.0,5.0,0.0,0.0,8.0,1.0,phase_2,stop,550.0,750.0,4.0,,,,,,,,,white,triangle
0.0,6.0,1.0,1.0,5.0,5.0,615.883361955639,8.0,1.0,phase_2,stop,600.0,750.0,3.0,,,,,,,,,green,hexagon
0.0,5.0,0.5,1.0,5.0,0.0,0.0,8.0,1.0,phase_2,stop,550.0,750.0,4.0,,,,,,,,,yellow,cross
0.0,8.0,4.0,1.0,6.0,6.0,910.8034308883362,8.0,1.0,phase_2,go,600.0,750.0,1.0,,,,,,,,,white,triangle
0.0,8.0,4.0,1.0,5.0,0.0,0.0,8.0,1.0,phase_2,stop,600.0,750.0,4.0,,,,,,,,,white,triangle
0.0,4.0,4.0,0.0,6.0,6.0,776.8599489936605,8.0,1.0,phase_2,go,650.0,750.0,1.0,,,,,,,,,gray,flipped triangle
0.0,2.0,1.0,0.0,6.0,6.0,1272.3985236370936,8.0,1.0,phase_2,go,650.0,750.0,1.0,,,,,,,,,orange,I
0.0,1.0,0.5,0.0,6.0,6.0,868.9164716051891,8.0,1.0,phase_2,go,650.0,750.0,1.0,,,,,,,,,cyan,square
0.0,4.0,4.0,0.0,5.0,5.0,1138.7640775064938,8.0,1.0,phase_2,go,650.0,750.0,1.0,,,,,,,,,gray,flipped triangle
0.0,1.0,0.5,0.0,5.0,5.0,971.1467298911884,8.0,1.0,phase_2,go,650.0,750.0,1.0,,,,,,,,,cyan,square
0.0,5.0,0.5,1.0,6.0,6.0,826.0998346377164,8.0,1.0,phase_2,go,650.0,750.0,1.0,,,,,,,,,yellow,cross
0.0,1.0,0.5,0.0,5.0,5.0,827.7212153188884,8.0,1.0,phase_2,go,650.0,750.0,1.0,,,,,,,,,cyan,square
0.0,5.0,0.5,1.0,6.0,6.0,726.8418156309053,8.0,1.0,phase_2,stop,650.0,750.0,3.0,,,,,,,,,yellow,cross
0.0,5.0,0.5,1.0,6.0,0.0,0.0,8.0,1.0,phase_2,stop,650.0,700.0,4.0,,,,,,,,,yellow,cross
0.0,6.0,1.0,1.0,6.0,6.0,999.0946775651536,8.0,1.0,phase_2,go,650.0,750.0,1.0,,,,,,,,,green,hexagon
0.0,6.0,1.0,1.0,6.0,6.0,976.8418219173328,8.0,1.0,phase_2,go,650.0,750.0,1.0,,,,,,,,,green,hexagon
0.0,2.0,1.0,0.0,5.0,5.0,751.2711496092379,8.0,1.0,phase_2,go,650.0,750.0,1.0,,,,,,,,,orange,I
0.0,8.0,4.0,1.0,5.0,0.0,0.0,8.0,1.0,phase_2,stop,650.0,750.0,4.0,,,,,,,,,white,triangle
0.0,2.0,1.0,0.0,5.0,5.0,990.2665356639772,8.0,1.0,phase_2,go,700.0,750.0,1.0,,,,,,,,,orange,I
0.0,7.0,2.0,1.0,6.0,6.0,833.7699719122611,8.0,1.0,phase_2,go,700.0,750.0,1.0,,,,,,,,,blue,circle
0.0,8.0,4.0,1.0,6.0,0.0,0.0,8.0,1.0,phase_2,stop,700.0,750.0,4.0,,,,,,,,,white,triangle
0.0,4.0,4.0,0.0,5.0,5.0,755.9376229182817,8.0,1.0,phase_2,go,700.0,800.0,1.0,,,,,,,,,gray,flipped triangle
0.0,8.0,4.0,1.0,5.0,0.0,0.0,8.0,1.0,phase_2,stop,700.0,800.0,4.0,,,,,,,,,white,triangle
0.0,2.0,1.0,0.0,6.0,6.0,824.9453365569934,8.0,1.0,phase_2,go,750.0,800.0,1.0,,,,,,,,,orange,I
0.0,6.0,1.0,1.0,6.0,0.0,0.0,8.0,1.0,phase_2,stop,750.0,800.0,4.0,,,,,,,,,green,hexagon
0.0,8.0,4.0,1.0,5.0,5.0,489.0000721206888,8.0,1.0,phase_2,stop,750.0,850.0,3.0,,,,,,,,,white,triangle
0.0,2.0,1.0,0.0,6.0,6.0,804.7781875939108,8.0,1.0,phase_2,go,700.0,850.0,1.0,,,,,,,,,orange,I
0.0,2.0,1.0,0.0,6.0,6.0,670.8572502830066,8.0,1.0,phase_2,go,700.0,850.0,1.0,,,,,,,,,orange,I
0.0,6.0,1.0,1.0,5.0,0.0,0.0,8.0,1.0,phase_2,stop,700.0,850.0,4.0,,,,,,,,,green,hexagon
0.0,3.0,2.0,0.0,7.0,5.0,2499.1158036282286,1.0,2.0,phase_3,,,,,98.0,2.0,147.0,245.0,294.0,196.0,98.0,49.0,magenta,diamond
0.0,5.0,0.5,1.0,7.0,4.0,2453.589314478449,1.0,1.0,phase_3,,,,,39.0,1.0,156.0,78.0,234.0,39.0,195.0,117.0,yellow,cross
0.0,5.0,0.5,1.0,7.0,2.0,1734.909302496817,1.0,1.0,phase_3,,,,,44.0,1.0,176.0,44.0,264.0,220.0,132.0,88.0,yellow,cross
0.0,7.0,2.0,1.0,7.0,5.0,2218.8936752500013,1.0,1.0,phase_3,,,,,132.0,3.0,176.0,220.0,88.0,264.0,132.0,44.0,blue,circle
0.0,6.0,1.0,1.0,7.0,3.0,2186.4594392245635,1.0,1.0,phase_3,,,,,98.0,2.0,196.0,147.0,98.0,294.0,49.0,245.0,green,hexagon
0.0,4.0,4.0,0.0,7.0,4.0,1591.21266764123,1.0,1.0,phase_3,,,,,44.0,1.0,264.0,176.0,88.0,44.0,220.0,132.0,gray,flipped triangle
0.0,1.0,0.5,0.0,7.0,1.0,3101.2718951678835,1.0,1.0,phase_3,,,,,54.0,1.0,54.0,324.0,162.0,216.0,270.0,108.0,cyan,square
0.0,7.0,2.0,1.0,7.0,6.0,1830.1056030904876,1.0,1.0,phase_3,,,,,39.0,1.0,78.0,195.0,234.0,117.0,156.0,39.0,blue,circle
0.0,3.0,2.0,0.0,7.0,1.0,1549.853038333822,1.0,1.0,phase_3,,,,,98.0,2.0,98.0,245.0,196.0,49.0,147.0,294.0,magenta,diamond
0.0,3.0,2.0,0.0,7.0,2.0,1663.8503491412848,1.0,1.0,phase_3,,,,,34.0,1.0,102.0,34.0,170.0,136.0,204.0,68.0,magenta,diamond
0.0,1.0,0.5,0.0,7.0,4.0,1698.2628206606023,1.0,1.0,phase_3,,,,,88.0,2.0,176.0,220.0,44.0,88.0,264.0,132.0,cyan,square
0.0,7.0,2.0,1.0,7.0,3.0,1688.3874731138349,1.0,1.0,phase_3,,,,,98.0,2.0,147.0,49.0,98.0,196.0,245.0,294.0,blue,circle
0.0,1.0,0.5,0.0,7.0,1.0,2386.7851062095724,1.0,1.0,phase_3,,,,,117.0,3.0,117.0,39.0,195.0,156.0,234.0,78.0,cyan,square
0.0,5.0,0.5,1.0,7.0,5.0,1769.1803073394112,1.0,1.0,phase_3,,,,,102.0,3.0,68.0,170.0,34.0,136.0,102.0,204.0,yellow,cross
0.0,5.0,0.5,1.0,7.0,2.0,1310.188954055775,1.0,1.0,phase_3,,,,,108.0,2.0,162.0,108.0,216.0,324.0,54.0,270.0,yellow,cross
0.0,8.0,4.0,1.0,7.0,6.0,2581.496841914486,1.0,1.0,phase_3,,,,,156.0,4.0,234.0,39.0,117.0,78.0,195.0,156.0,white,triangle
0.0,5.0,0.5,1.0,7.0,3.0,1986.321994510945,1.0,1.0,phase_3,,,,,147.0,3.0,245.0,49.0,147.0,294.0,196.0,98.0,yellow,cross
0.0,2.0,1.0,0.0,7.0,5.0,1481.3860911526715,1.0,1.0,phase_3,,,,,162.0,3.0,270.0,216.0,324.0,108.0,162.0,54.0,orange,I
0.0,7.0,2.0,1.0,7.0,5.0,1616.8679685215466,1.0,1.0,phase_3,,,,,170.0,5.0,34.0,204.0,68.0,102.0,170.0,136.0,blue,circle
0.0,3.0,2.0,0.0,7.0,5.0,1708.165652176831,1.0,1.0,phase_3,,,,,102.0,3.0,204.0,34.0,136.0,68.0,102.0,170.0,magenta,diamond
0.0,2.0,1.0,0.0,7.0,5.0,1845.4742400208488,2.0,1.0,phase_3,,,,,176.0,4.0,132.0,44.0,264.0,220.0,176.0,88.0,orange,I
0.0,6.0,1.0,1.0,7.0,4.0,1361.246788117569,2.0,1.0,phase_3,,,,,176.0,4.0,220.0,264.0,44.0,176.0,88.0,132.0,green,hexagon
0.0,6.0,1.0,1.0,7.0,2.0,2185.7214705087245,2.0,1.0,phase_3,,,,,88.0,2.0,44.0,88.0,132.0,264.0,176.0,220.0,green,hexagon
0.0,7.0,2.0,1.0,7.0,3.0,2288.041790365241,2.0,1.0,phase_3,,,,,132.0,3.0,220.0,264.0,132.0,88.0,44.0,176.0,blue,circle
0.0,4.0,4.0,0.0,7.0,6.0,1320.069040171802,2.0,1.0,phase_3,,,,,98.0,2.0,294.0,245.0,196.0,147.0,49.0,98.0,gray,flipped triangle
0.0,2.0,1.0,0.0,7.0,5.0,1343.220274662599,2.0,1.0,phase_3,,,,,102.0,3.0,170.0,34.0,204.0,136.0,102.0,68.0,orange,I
0.0,1.0,0.5,0.0,7.0,4.0,1344.6377933723852,2.0,1.0,phase_3,,,,,162.0,3.0,54.0,270.0,216.0,162.0,324.0,108.0,cyan,square
0.0,4.0,4.0,0.0,7.0,3.0,1345.351463125553,2.0,1.0,phase_3,,,,,162.0,3.0,270.0,216.0,162.0,324.0,54.0,108.0,gray,flipped triangle
0.0,4.0,4.0,0.0,7.0,4.0,1211.778896045871,2.0,1.0,phase_3,,,,,136.0,4.0,170.0,68.0,102.0,136.0,34.0,204.0,gray,flipped triangle
0.0,2.0,1.0,0.0,7.0,6.0,2474.574253137689,2.0,1.0,phase_3,,,,,108.0,2.0,324.0,216.0,54.0,270.0,162.0,108.0,orange,I
0.0,8.0,4.0,1.0,7.0,3.0,2113.6445504962467,2.0,1.0,phase_3,,,,,196.0,4.0,98.0,294.0,196.0,147.0,245.0,49.0,white,triangle
0.0,3.0,2.0,0.0,7.0,5.0,1800.249283609446,2.0,1.0,phase_3,,,,,108.0,2.0,270.0,216.0,54.0,162.0,108.0,324.0,magenta,diamond
0.0,8.0,4.0,1.0,7.0,4.0,2465.378798020538,2.0,1.0,phase_3,,,,,156.0,4.0,39.0,78.0,117.0,156.0,195.0,234.0,white,triangle
0.0,1.0,0.5,0.0,7.0,5.0,1837.9562146728856,2.0,1.0,phase_3,,,,,147.0,3.0,294.0,196.0,245.0,98.0,147.0,49.0,cyan,square
0.0,5.0,0.5,1.0,7.0,4.0,1444.6460906183347,2.0,1.0,phase_3,,,,,147.0,3.0,49.0,196.0,294.0,147.0,98.0,245.0,yellow,cross
0.0,8.0,4.0,1.0,7.0,5.0,1996.9301063101736,2.0,1.0,phase_3,,,,,136.0,4.0,102.0,34.0,68.0,170.0,136.0,204.0,white,triangle
0.0,2.0,1.0,0.0,7.0,4.0,1863.4001681930383,2.0,1.0,phase_3,,,,,117.0,3.0,234.0,156.0,39.0,117.0,195.0,78.0,orange,I
0.0,1.0,0.5,0.0,7.0,6.0,2168.6310915392824,2.0,1.0,phase_3,,,,,147.0,3.0,294.0,196.0,49.0,98.0,245.0,147.0,cyan,square
0.0,6.0,1.0,1.0,7.0,6.0,2405.270915478468,2.0,1.0,phase_3,,,,,195.0,5.0,117.0,156.0,78.0,39.0,234.0,195.0,green,hexagon
0.0,4.0,4.0,0.0,7.0,5.0,2191.341308003757,2.0,1.0,phase_3,,,,,132.0,3.0,176.0,88.0,220.0,264.0,132.0,44.0,gray,flipped triangle
0.0,8.0,4.0,1.0,7.0,3.0,1745.902657683473,3.0,1.0,phase_3,,,,,102.0,3.0,34.0,170.0,102.0,204.0,68.0,136.0,white,triangle
0.0,1.0,0.5,0.0,7.0,2.0,1679.8985060304403,3.0,1.0,phase_3,,,,,170.0,5.0,102.0,170.0,68.0,204.0,34.0,136.0,cyan,square
0.0,1.0,0.5,0.0,7.0,5.0,1522.6769730215892,3.0,1.0,phase_3,,,,,170.0,5.0,68.0,102.0,204.0,34.0,170.0,136.0,cyan,square
0.0,8.0,4.0,1.0,7.0,1.0,2740.421556518413,3.0,1.0,phase_3,,,,,162.0,3.0,162.0,54.0,216.0,324.0,270.0,108.0,white,triangle
0.0,7.0,2.0,1.0,7.0,3.0,1717.1835116459988,3.0,1.0,phase_3,,,,,162.0,3.0,108.0,324.0,162.0,54.0,270.0,216.0,blue,circle
0.0,7.0,2.0,1.0,7.0,2.0,2223.734022525605,3.0,1.0,phase_3,,,,,136.0,4.0,170.0,136.0,102.0,34.0,204.0,68.0,blue,circle
0.0,4.0,4.0,0.0,7.0,5.0,1875.8837421773933,3.0,1.0,phase_3,,,,,156.0,4.0,78.0,234.0,39.0,195.0,156.0,117.0,gray,flipped triangle
0.0,3.0,2.0,0.0,7.0,4.0,2047.6150516187772,3.0,1.0,phase_3,,,,,156.0,4.0,234.0,117.0,39.0,156.0,78.0,195.0,magenta,diamond
0.0,7.0,2.0,1.0,7.0,2.0,2003.6753002204928,3.0,1.0,phase_3,,,,,162.0,3.0,108.0,162.0,324.0,216.0,270.0,54.0,blue,circle
0.0,2.0,1.0,0.0,7.0,5.0,1532.3714683763685,3.0,1.0,phase_3,,,,,156.0,4.0,117.0,39.0,195.0,234.0,156.0,78.0,orange,I
0.0,3.0,2.0,0.0,7.0,4.0,1385.485535953194,3.0,1.0,phase_3,,,,,132.0,3.0,176.0,264.0,88.0,132.0,220.0,44.0,magenta,diamond
0.0,7.0,2.0,1.0,7.0,4.0,1307.968609384261,3.0,1.0,phase_3,,,,,156.0,4.0,117.0,234.0,78.0,156.0,195.0,39.0,blue,circle
0.0,8.0,4.0,1.0,7.0,2.0,2129.6887220232747,3.0,1.0,phase_3,,,,,147.0,3.0,294.0,147.0,245.0,196.0,49.0,98.0,white,triangle
0.0,2.0,1.0,0.0,7.0,5.0,1704.1832921095192,3.0,1.0,phase_3,,,,,132.0,3.0,44.0,176.0,264.0,220.0,132.0,88.0,orange,I
0.0,5.0,0.5,1.0,7.0,5.0,2639.8297152481973,3.0,1.0,phase_3,,,,,162.0,3.0,108.0,216.0,324.0,54.0,162.0,270.0,yellow,cross
0.0,8.0,4.0,1.0,7.0,5.0,1358.5201096720994,3.0,1.0,phase_3,,,,,108.0,2.0,162.0,216.0,270.0,54.0,108.0,324.0,white,triangle
0.0,4.0,4.0,0.0,7.0,5.0,1167.9143250221389,3.0,1.0,phase_3,,,,,147.0,3.0,49.0,245.0,196.0,98.0,147.0,294.0,gray,flipped triangle
0.0,4.0,4.0,0.0,7.0,3.0,2416.566578729544,3.0,1.0,phase_3,,,,,162.0,3.0,324.0,270.0,162.0,216.0,54.0,108.0,gray,flipped triangle
0.0,2.0,1.0,0.0,7.0,3.0,1709.146543056704,3.0,1.0,phase_3,,,,,136.0,4.0,170.0,68.0,136.0,204.0,102.0,34.0,orange,I
0.0,6.0,1.0,1.0,7.0,5.0,1811.186320730485,3.0,1.0,phase_3,,,,,162.0,3.0,270.0,108.0,324.0,54.0,162.0,216.0,green,hexagon
0.0,4.0,4.0,0.0,7.0,5.0,1684.7075691912323,4.0,1.0,phase_3,,,,,156.0,4.0,195.0,117.0,39.0,234.0,156.0,78.0,gray,flipped triangle
0.0,6.0,1.0,1.0,7.0,5.0,1347.0068132155577,4.0,1.0,phase_3,,,,,170.0,5.0,34.0,102.0,136.0,204.0,170.0,68.0,green,hexagon
0.0,8.0,4.0,1.0,7.0,3.0,2102.704781165812,4.0,1.0,phase_3,,,,,88.0,2.0,132.0,220.0,88.0,44.0,264.0,176.0,white,triangle
0.0,8.0,4.0,1.0,7.0,5.0,1271.357359131798,4.0,1.0,phase_3,,,,,176.0,4.0,132.0,44.0,220.0,264.0,176.0,88.0,white,triangle
0.0,3.0,2.0,0.0,7.0,4.0,2283.6738492478617,4.0,1.0,phase_3,,,,,117.0,3.0,156.0,234.0,78.0,117.0,195.0,39.0,magenta,diamond
0.0,1.0,0.5,0.0,7.0,4.0,1262.518006376922,4.0,1.0,phase_3,,,,,176.0,4.0,264.0,132.0,88.0,176.0,44.0,220.0,cyan,square
0.0,2.0,1.0,0.0,7.0,2.0,1790.7110649975948,4.0,1.0,phase_3,,,,,147.0,3.0,294.0,147.0,98.0,245.0,196.0,49.0,orange,I
0.0,3.0,2.0,0.0,7.0,5.0,1747.1014716429636,4.0,1.0,phase_3,,,,,176.0,4.0,220.0,88.0,132.0,264.0,176.0,44.0,magenta,diamond
0.0,3.0,2.0,0.0,7.0,5.0,2558.1213789992034,4.0,1.0,phase_3,,,,,108.0,2.0,162.0,216.0,324.0,54.0,108.0,270.0,magenta,diamond
0.0,5.0,0.5,1.0,7.0,5.0,2189.002701372374,4.0,1.0,phase_3,,,,,176.0,4.0,220.0,264.0,88.0,132.0,176.0,44.0,yellow,cross
0.0,2.0,1.0,0.0,7.0,6.0,1772.304566402454,4.0,1.0,phase_3,,,,,147.0,3.0,49.0,294.0,98.0,196.0,245.0,147.0,orange,I
0.0,5.0,0.5,1.0,7.0,5.0,1413.6915496201254,4.0,1.0,phase_3,,,,,117.0,3.0,156.0,234.0,195.0,39.0,117.0,78.0,yellow,cross
0.0,6.0,1.0,1.0,7.0,5.0,1122.0134379691444,4.0,1.0,phase_3,,,,,117.0,3.0,39.0,78.0,156.0,195.0,117.0,234.0,green,hexagon
0.0,6.0,1.0,1.0,7.0,5.0,1438.8218356180005,4.0,1.0,phase_3,,,,,108.0,2.0,324.0,54.0,162.0,216.0,108.0,270.0,green,hexagon
0.0,1.0,0.5,0.0,7.0,4.0,1675.8378883241676,4.0,1.0,phase_3,,,,,117.0,3.0,156.0,39.0,234.0,117.0,195.0,78.0,cyan,square
0.0,6.0,1.0,1.0,7.0,1.0,2566.172711609397,4.0,1.0,phase_3,,,,,170.0,5.0,170.0,68.0,34.0,136.0,204.0,102.0,green,hexagon
0.0,4.0,4.0,0.0,7.0,3.0,1711.4473401452417,4.0,1.0,phase_3,,,,,170.0,5.0,68.0,204.0,170.0,136.0,102.0,34.0,gray,flipped triangle
0.0,7.0,2.0,1.0,7.0,5.0,1690.310058998875,4.0,1.0,phase_3,,,,,196.0,4.0,49.0,98.0,294.0,245.0,196.0,147.0,blue,circle
0.0,6.0,1.0,1.0,7.0,3.0,1793.8036266714334,4.0,1.0,phase_3,,,,,147.0,3.0,98.0,196.0,147.0,245.0,49.0,294.0,green,hexagon
0.0,5.0,0.5,1.0,7.0,4.0,1536.730912339408,4.0,1.0,phase_3,,,,,170.0,5.0,204.0,136.0,68.0,170.0,34.0,102.0,yellow,cross
