raw_reward_magnitude,stim_reward,stepwise_reward_magnitude,paired_with_stopping,stim_location,response,reaction_time,block,num_trial_presentations,which_phase,stop_signal_trial_type,left_SSD,right_SSD,accuracy,chosen_bidding_amount,chosen_bidding_level,possible_bid_1,possible_bid_2,possible_bid_3,possible_bid_4,possible_bid_5,possible_bid_6,color_text,shape_text
412.0,8.0,4.0,1.0,4.0,4.0,357.5903452001512,1.0,1.0,phase_1,,,,,,,,,,,,,yellow,circle
43.0,1.0,0.5,0.0,4.0,4.0,323.6180456588045,1.0,1.0,phase_1,,,,,,,,,,,,,orange,flipped triangle
32.0,5.0,0.5,1.0,3.0,3.0,326.3569008558988,1.0,1.0,phase_1,,,,,,,,,,,,,white,triangle
123.0,2.0,1.0,0.0,3.0,3.0,358.3413712331094,1.0,1.0,phase_1,,,,,,,,,,,,,magenta,diamond
384.0,4.0,4.0,0.0,3.0,3.0,327.1146430051885,1.0,2.0,phase_1,,,,,,,,,,,,,blue,square
55.0,1.0,0.5,0.0,4.0,4.0,327.8638421907089,1.0,1.0,phase_1,,,,,,,,,,,,,orange,flipped triangle
187.0,3.0,2.0,0.0,4.0,4.0,326.8222806509584,1.0,1.0,phase_1,,,,,,,,,,,,,green,hexagon
98.0,2.0,1.0,0.0,4.0,4.0,305.3130182088353,1.0,1.0,phase_1,,,,,,,,,,,,,magenta,diamond
0.0,7.0,0.0,1.0,4.0,4.0,305.513332656119,1.0,1.0,phase_1,,,,,,,,,,,,,cyan,I
36.0,5.0,0.5,1.0,4.0,4.0,307.6602452201769,1.0,1.0,phase_1,,,,,,,,,,,,,white,triangle
0.0,2.0,0.0,0.0,3.0,3.0,307.3464912595227,1.0,1.0,phase_1,,,,,,,,,,,,,magenta,diamond
417.0,8.0,4.0,1.0,3.0,3.0,306.7911292309873,1.0,1.0,phase_1,,,,,,,,,,,,,yellow,circle
404.0,4.0,4.0,0.0,1.0,1.0,329.9535601981915,1.0,1.0,phase_1,,,,,,,,,,,,,blue,square
114.0,2.0,1.0,0.0,1.0,1.0,286.5644312114455,1.0,1.0,phase_1,,,,,,,,,,,,,magenta,diamond
104.0,2.0,1.0,0.0,3.0,3.0,296.7410149867646,1.0,1.0,phase_1,,,,,,,,,,,,,magenta,diamond
412.0,4.0,4.0,0.0,2.0,2.0,265.6415808596648,1.0,1.0,phase_1,,,,,,,,,,,,,blue,square
207.0,7.0,2.0,1.0,2.0,2.0,321.569982857909,1.0,1.0,phase_1,,,,,,,,,,,,,cyan,I
379.0,4.0,4.0,0.0,3.0,3.0,298.6204070039093,1.0,1.0,phase_1,,,,,,,,,,,,,blue,square
28.0,5.0,0.5,1.0,4.0,4.0,301.4564788318239,1.0,1.0,phase_1,,,,,,,,,,,,,white,triangle
57.0,1.0,0.5,0.0,1.0,1.0,279.7794254147447,1.0,1.0,phase_1,,,,,,,,,,,,,orange,flipped triangle
195.0,3.0,2.0,0.0,3.0,3.0,278.3559204544872,1.0,1.0,phase_1,,,,,,,,,,,,,green,hexagon
413.0,4.0,4.0,0.0,4.0,4.0,289.7220854065381,1.0,1.0,phase_1,,,,,,,,,,,,,blue,square
0.0,2.0,0.0,0.0,3.0,3.0,313.5321130394004,1.0,1.0,phase_1,,,,,,,,,,,,,magenta,diamond
216.0,3.0,2.0,0.0,2.0,2.0,302.8534420300275,1.0,1.0,phase_1,,,,,,,,,,,,,green,hexagon
120.0,2.0,1.0,0.0,1.0,1.0,269.6231661830097,1.0,1.0,phase_1,,,,,,,,,,,,,magenta,diamond
404.0,8.0,4.0,1.0,1.0,1.0,292.7129034651443,1.0,1.0,phase_1,,,,,,,,,,,,,yellow,circle
201.0,7.0,2.0,1.0,2.0,2.0,294.9680653982796,1.0,1.0,phase_1,,,,,,,,,,,,,cyan,I
197.0,3.0,2.0,0.0,2.0,2.0,293.9143011462874,1.0,1.0,phase_1,,,,,,,,,,,,,green,hexagon
414.0,8.0,4.0,1.0,1.0,1.0,238.4566498803906,1.0,1.0,phase_1,,,,,,,,,,,,,yellow,circle
67.0,5.0,0.5,1.0,4.0,4.0,327.674935630057,1.0,1.0,phase_1,,,,,,,,,,,,,white,triangle
0.0,8.0,0.0,1.0,3.0,3.0,296.1454194155521,1.0,1.0,phase_1,,,,,,,,,,,,,yellow,circle
0.0,4.0,0.0,0.0,2.0,2.0,273.7298078718595,1.0,1.0,phase_1,,,,,,,,,,,,,blue,square
379.0,4.0,4.0,0.0,4.0,4.0,319.4595834356732,1.0,2.0,phase_1,,,,,,,,,,,,,blue,square
53.0,1.0,0.5,0.0,1.0,1.0,342.9832141846418,1.0,1.0,phase_1,,,,,,,,,,,,,orange,flipped triangle
82.0,6.0,1.0,1.0,3.0,3.0,321.5588880120776,1.0,2.0,phase_1,,,,,,,,,,,,,gray,cross
124.0,6.0,1.0,1.0,3.0,3.0,310.5981498374603,1.0,1.0,phase_1,,,,,,,,,,,,,gray,cross
53.0,5.0,0.5,1.0,1.0,1.0,334.5035436213948,1.0,1.0,phase_1,,,,,,,,,,,,,white,triangle
412.0,4.0,4.0,0.0,2.0,2.0,279.1876211995259,1.0,1.0,phase_1,,,,,,,,,,,,,blue,square
0.0,6.0,0.0,1.0,2.0,2.0,300.8400670369155,1.0,1.0,phase_1,,,,,,,,,,,,,gray,cross
0.0,4.0,0.0,0.0,3.0,3.0,336.1663378309458,1.0,1.0,phase_1,,,,,,,,,,,,,blue,square
205.0,7.0,2.0,1.0,4.0,4.0,324.6528214076534,1.0,1.0,phase_1,,,,,,,,,,,,,cyan,I
208.0,3.0,2.0,0.0,1.0,1.0,281.0341586591676,1.0,1.0,phase_1,,,,,,,,,,,,,green,hexagon
195.0,7.0,2.0,1.0,1.0,1.0,279.9353513983078,1.0,1.0,phase_1,,,,,,,,,,,,,cyan,I
0.0,1.0,0.0,0.0,4.0,4.0,291.9564973562956,1.0,1.0,phase_1,,,,,,,,,,,,,orange,flipped triangle
382.0,8.0,4.0,1.0,1.0,1.0,294.5264722220599,1.0,1.0,phase_1,,,,,,,,,,,,,yellow,circle
91.0,2.0,1.0,0.0,3.0,3.0,292.380056635011,1.0,1.0,phase_1,,,,,,,,,,,,,magenta,diamond
125.0,6.0,1.0,1.0,1.0,1.0,250.1569892046973,1.0,1.0,phase_1,,,,,,,,,,,,,gray,cross
88.0,6.0,1.0,1.0,3.0,3.0,294.0824233810417,1.0,1.0,phase_1,,,,,,,,,,,,,gray,cross
44.0,5.0,0.5,1.0,3.0,3.0,283.8547471910715,1.0,1.0,phase_1,,,,,,,,,,,,,white,triangle
89.0,6.0,1.0,1.0,2.0,2.0,307.2783792740665,1.0,1.0,phase_1,,,,,,,,,,,,,gray,cross
60.0,5.0,0.5,1.0,2.0,2.0,297.6348082302138,1.0,1.0,phase_1,,,,,,,,,,,,,white,triangle
398.0,8.0,4.0,1.0,2.0,2.0,308.6227420135401,1.0,1.0,phase_1,,,,,,,,,,,,,yellow,circle
29.0,5.0,0.5,1.0,1.0,1.0,286.1932669766247,1.0,1.0,phase_1,,,,,,,,,,,,,white,triangle
177.0,3.0,2.0,0.0,2.0,2.0,275.6799043854698,1.0,1.0,phase_1,,,,,,,,,,,,,green,hexagon
32.0,1.0,0.5,0.0,1.0,1.0,264.3100032000802,1.0,1.0,phase_1,,,,,,,,,,,,,orange,flipped triangle
0.0,7.0,0.0,1.0,4.0,4.0,322.3174026352353,1.0,1.0,phase_1,,,,,,,,,,,,,cyan,I
63.0,1.0,0.5,0.0,1.0,1.0,267.4989903462119,1.0,1.0,phase_1,,,,,,,,,,,,,orange,flipped triangle
405.0,8.0,4.0,1.0,2.0,2.0,232.4763300130143,1.0,1.0,phase_1,,,,,,,,,,,,,yellow,circle
200.0,3.0,2.0,0.0,2.0,2.0,268.0186552461236,1.0,1.0,phase_1,,,,,,,,,,,,,green,hexagon
0.0,3.0,0.0,0.0,4.0,4.0,301.4212911948561,1.0,2.0,phase_1,,,,,,,,,,,,,green,hexagon
51.0,5.0,0.5,1.0,3.0,3.0,302.9961694264784,1.0,1.0,phase_1,,,,,,,,,,,,,white,triangle
216.0,3.0,2.0,0.0,4.0,4.0,292.8089760243892,1.0,1.0,phase_1,,,,,,,,,,,,,green,hexagon
188.0,3.0,2.0,0.0,4.0,4.0,292.3672138131223,1.0,1.0,phase_1,,,,,,,,,,,,,green,hexagon
220.0,3.0,2.0,0.0,1.0,1.0,271.9381403876468,1.0,1.0,phase_1,,,,,,,,,,,,,green,hexagon
40.0,1.0,0.5,0.0,3.0,3.0,326.6352569917217,1.0,1.0,phase_1,,,,,,,,,,,,,orange,flipped triangle
0.0,5.0,0.0,1.0,1.0,1.0,271.36060182238,1.0,1.0,phase_1,,,,,,,,,,,,,white,triangle
416.0,8.0,4.0,1.0,4.0,4.0,261.4088776172139,1.0,1.0,phase_1,,,,,,,,,,,,,yellow,circle
205.0,7.0,2.0,1.0,4.0,4.0,284.0317718219012,1.0,1.0,phase_1,,,,,,,,,,,,,cyan,I
36.0,1.0,0.5,0.0,2.0,2.0,263.4638783638365,1.0,1.0,phase_1,,,,,,,,,,,,,orange,flipped triangle
0.0,6.0,0.0,1.0,4.0,4.0,297.3937626229599,1.0,1.0,phase_1,,,,,,,,,,,,,gray,cross
0.0,4.0,0.0,0.0,3.0,3.0,286.2065184162929,1.0,1.0,phase_1,,,,,,,,,,,,,blue,square
104.0,6.0,1.0,1.0,3.0,3.0,296.1368136457167,1.0,1.0,phase_1,,,,,,,,,,,,,gray,cross
382.0,4.0,4.0,0.0,1.0,1.0,308.8755648350343,1.0,1.0,phase_1,,,,,,,,,,,,,blue,square
0.0,1.0,0.0,0.0,1.0,1.0,365.3331213863566,1.0,1.0,phase_1,,,,,,,,,,,,,orange,flipped triangle
0.0,7.0,0.0,1.0,4.0,4.0,264.2201522248797,1.0,1.0,phase_1,,,,,,,,,,,,,cyan,I
96.0,2.0,1.0,0.0,2.0,2.0,276.6635194420814,1.0,1.0,phase_1,,,,,,,,,,,,,magenta,diamond
114.0,6.0,1.0,1.0,4.0,4.0,276.7561502405442,1.0,1.0,phase_1,,,,,,,,,,,,,gray,cross
206.0,3.0,2.0,0.0,1.0,1.0,244.0044478280469,1.0,1.0,phase_1,,,,,,,,,,,,,green,hexagon
0.0,8.0,0.0,1.0,4.0,4.0,277.9625688563101,1.0,1.0,phase_1,,,,,,,,,,,,,yellow,circle
72.0,1.0,0.5,0.0,4.0,4.0,266.8189796386286,1.0,1.0,phase_1,,,,,,,,,,,,,orange,flipped triangle
98.0,6.0,1.0,1.0,3.0,3.0,303.9142758352682,1.0,1.0,phase_1,,,,,,,,,,,,,gray,cross
116.0,2.0,1.0,0.0,4.0,4.0,302.9596038395539,1.0,1.0,phase_1,,,,,,,,,,,,,magenta,diamond
84.0,6.0,1.0,1.0,2.0,2.0,281.357703206595,1.0,1.0,phase_1,,,,,,,,,,,,,gray,cross
63.0,5.0,0.5,1.0,1.0,1.0,304.8818269744515,1.0,1.0,phase_1,,,,,,,,,,,,,white,triangle
0.0,2.0,0.0,0.0,3.0,3.0,305.2780008874833,1.0,1.0,phase_1,,,,,,,,,,,,,magenta,diamond
60.0,1.0,0.5,0.0,4.0,4.0,338.91236665658647,1.0,2.0,phase_1,,,,,,,,,,,,,orange,flipped triangle
423.0,8.0,4.0,1.0,4.0,4.0,419.5789140067063,1.0,1.0,phase_1,,,,,,,,,,,,,yellow,circle
407.0,8.0,4.0,1.0,4.0,4.0,340.7713284250349,1.0,1.0,phase_1,,,,,,,,,,,,,yellow,circle
67.0,1.0,0.5,0.0,4.0,4.0,250.474675965961,1.0,1.0,phase_1,,,,,,,,,,,,,orange,flipped triangle
398.0,8.0,4.0,1.0,4.0,4.0,262.2702023945749,1.0,1.0,phase_1,,,,,,,,,,,,,yellow,circle
63.0,5.0,0.5,1.0,1.0,1.0,398.3643306419253,1.0,1.0,phase_1,,,,,,,,,,,,,white,triangle
410.0,4.0,4.0,0.0,4.0,4.0,310.0621538469568,1.0,1.0,phase_1,,,,,,,,,,,,,blue,square
74.0,5.0,0.5,1.0,2.0,2.0,287.7515866421163,1.0,1.0,phase_1,,,,,,,,,,,,,white,triangle
0.0,3.0,0.0,0.0,1.0,1.0,299.9940122244879,1.0,1.0,phase_1,,,,,,,,,,,,,green,hexagon
216.0,7.0,2.0,1.0,3.0,3.0,310.4390042135492,1.0,1.0,phase_1,,,,,,,,,,,,,cyan,I
90.0,6.0,1.0,1.0,3.0,3.0,356.8232511752285,1.0,1.0,phase_1,,,,,,,,,,,,,gray,cross
224.0,3.0,2.0,0.0,3.0,3.0,322.6924493792467,1.0,1.0,phase_1,,,,,,,,,,,,,green,hexagon
0.0,6.0,0.0,1.0,2.0,2.0,390.285667963326,1.0,1.0,phase_1,,,,,,,,,,,,,gray,cross
217.0,3.0,2.0,0.0,3.0,3.0,333.8250241940841,1.0,1.0,phase_1,,,,,,,,,,,,,green,hexagon
0.0,4.0,0.0,0.0,3.0,3.0,300.8000244153663,1.0,1.0,phase_1,,,,,,,,,,,,,blue,square
388.0,4.0,4.0,0.0,3.0,3.0,372.5489328498952,2.0,1.0,phase_1,,,,,,,,,,,,,blue,square
391.0,4.0,4.0,0.0,1.0,1.0,306.3774225884117,2.0,1.0,phase_1,,,,,,,,,,,,,blue,square
416.0,4.0,4.0,0.0,4.0,4.0,283.2109410664998,2.0,1.0,phase_1,,,,,,,,,,,,,blue,square
96.0,6.0,1.0,1.0,1.0,1.0,308.8681192020885,2.0,1.0,phase_1,,,,,,,,,,,,,gray,cross
39.0,5.0,0.5,1.0,4.0,4.0,319.9362906743772,2.0,1.0,phase_1,,,,,,,,,,,,,white,triangle
58.0,5.0,0.5,1.0,2.0,2.0,319.285893230699,2.0,1.0,phase_1,,,,,,,,,,,,,white,triangle
0.0,6.0,0.0,1.0,4.0,4.0,285.5020546121523,2.0,1.0,phase_1,,,,,,,,,,,,,gray,cross
391.0,4.0,4.0,0.0,4.0,4.0,320.3283648472279,2.0,1.0,phase_1,,,,,,,,,,,,,blue,square
388.0,8.0,4.0,1.0,4.0,4.0,322.232307633385,2.0,1.0,phase_1,,,,,,,,,,,,,yellow,circle
0.0,5.0,0.0,1.0,4.0,4.0,287.5652146176435,2.0,1.0,phase_1,,,,,,,,,,,,,white,triangle
407.0,4.0,4.0,0.0,3.0,3.0,312.1215886203572,2.0,1.0,phase_1,,,,,,,,,,,,,blue,square
213.0,3.0,2.0,0.0,3.0,3.0,366.695036238525,2.0,1.0,phase_1,,,,,,,,,,,,,green,hexagon
39.0,5.0,0.5,1.0,4.0,4.0,335.2626314153895,2.0,1.0,phase_1,,,,,,,,,,,,,white,triangle
94.0,6.0,1.0,1.0,1.0,1.0,268.3268536347896,2.0,1.0,phase_1,,,,,,,,,,,,,gray,cross
201.0,3.0,2.0,0.0,4.0,4.0,290.895756217651,2.0,1.0,phase_1,,,,,,,,,,,,,green,hexagon
116.0,6.0,1.0,1.0,1.0,1.0,292.2540028230287,2.0,1.0,phase_1,,,,,,,,,,,,,gray,cross
411.0,4.0,4.0,0.0,3.0,3.0,314.3997470615431,2.0,1.0,phase_1,,,,,,,,,,,,,blue,square
101.0,6.0,1.0,1.0,2.0,2.0,315.5722672236152,2.0,1.0,phase_1,,,,,,,,,,,,,gray,cross
103.0,2.0,1.0,0.0,4.0,4.0,292.5872826599516,2.0,1.0,phase_1,,,,,,,,,,,,,magenta,diamond
183.0,3.0,2.0,0.0,4.0,4.0,338.881972245872,2.0,1.0,phase_1,,,,,,,,,,,,,green,hexagon
53.0,5.0,0.5,1.0,3.0,3.0,361.3034670124762,2.0,1.0,phase_1,,,,,,,,,,,,,white,triangle
398.0,4.0,4.0,0.0,1.0,1.0,261.5279212477617,2.0,1.0,phase_1,,,,,,,,,,,,,blue,square
192.0,3.0,2.0,0.0,1.0,1.0,340.0998699944466,2.0,1.0,phase_1,,,,,,,,,,,,,green,hexagon
379.0,8.0,4.0,1.0,2.0,2.0,364.0455632121302,2.0,1.0,phase_1,,,,,,,,,,,,,yellow,circle
416.0,8.0,4.0,1.0,4.0,4.0,285.23714642506087,2.0,1.0,phase_1,,,,,,,,,,,,,yellow,circle
0.0,7.0,0.0,1.0,2.0,2.0,309.1893266537227,2.0,1.0,phase_1,,,,,,,,,,,,,cyan,I
382.0,4.0,4.0,0.0,1.0,1.0,297.0982161932625,2.0,1.0,phase_1,,,,,,,,,,,,,blue,square
213.0,7.0,2.0,1.0,1.0,1.0,321.3588368380442,2.0,1.0,phase_1,,,,,,,,,,,,,cyan,I
69.0,5.0,0.5,1.0,1.0,1.0,286.6098316735588,2.0,1.0,phase_1,,,,,,,,,,,,,white,triangle
87.0,2.0,1.0,0.0,1.0,1.0,298.7338918028399,2.0,1.0,phase_1,,,,,,,,,,,,,magenta,diamond
386.0,4.0,4.0,0.0,2.0,2.0,322.2813366446644,2.0,1.0,phase_1,,,,,,,,,,,,,blue,square
179.0,7.0,2.0,1.0,1.0,1.0,266.3958031916991,2.0,1.0,phase_1,,,,,,,,,,,,,cyan,I
391.0,8.0,4.0,1.0,1.0,1.0,323.0183070409111,2.0,1.0,phase_1,,,,,,,,,,,,,yellow,circle
66.0,1.0,0.5,0.0,2.0,2.0,345.5031554331071,2.0,1.0,phase_1,,,,,,,,,,,,,orange,flipped triangle
0.0,8.0,0.0,1.0,1.0,1.0,301.4303260715678,2.0,1.0,phase_1,,,,,,,,,,,,,yellow,circle
0.0,6.0,0.0,1.0,2.0,2.0,291.1758749978617,2.0,1.0,phase_1,,,,,,,,,,,,,gray,cross
377.0,8.0,4.0,1.0,3.0,3.0,324.4405990699306,2.0,1.0,phase_1,,,,,,,,,,,,,yellow,circle
390.0,8.0,4.0,1.0,1.0,1.0,325.0935760443099,2.0,1.0,phase_1,,,,,,,,,,,,,yellow,circle
410.0,8.0,4.0,1.0,3.0,3.0,326.141465222463,2.0,2.0,phase_1,,,,,,,,,,,,,yellow,circle
223.0,3.0,2.0,0.0,4.0,4.0,272.6521751610562,2.0,1.0,phase_1,,,,,,,,,,,,,green,hexagon
180.0,7.0,2.0,1.0,2.0,2.0,316.0686923656612,2.0,1.0,phase_1,,,,,,,,,,,,,cyan,I
34.0,1.0,0.5,0.0,2.0,2.0,576.1620823759586,2.0,1.0,phase_1,,,,,,,,,,,,,orange,flipped triangle
391.0,4.0,4.0,0.0,2.0,2.0,328.8430857937783,2.0,1.0,phase_1,,,,,,,,,,,,,blue,square
105.0,2.0,1.0,0.0,2.0,2.0,318.2826560223475,2.0,1.0,phase_1,,,,,,,,,,,,,magenta,diamond
0.0,2.0,0.0,0.0,3.0,3.0,364.7211316856555,2.0,1.0,phase_1,,,,,,,,,,,,,magenta,diamond
39.0,1.0,0.5,0.0,1.0,1.0,308.6914971936494,2.0,1.0,phase_1,,,,,,,,,,,,,orange,flipped triangle
0.0,8.0,0.0,1.0,4.0,4.0,287.6432793564163,2.0,1.0,phase_1,,,,,,,,,,,,,yellow,circle
220.0,3.0,2.0,0.0,4.0,4.0,286.3116569933481,2.0,1.0,phase_1,,,,,,,,,,,,,green,hexagon
177.0,7.0,2.0,1.0,4.0,4.0,320.771440223325,2.0,1.0,phase_1,,,,,,,,,,,,,cyan,I
0.0,5.0,0.0,1.0,1.0,1.0,311.555037042126,2.0,1.0,phase_1,,,,,,,,,,,,,white,triangle
186.0,3.0,2.0,0.0,3.0,3.0,332.7169062104076,2.0,1.0,phase_1,,,,,,,,,,,,,green,hexagon
377.0,4.0,4.0,0.0,4.0,4.0,299.6394531801343,2.0,1.0,phase_1,,,,,,,,,,,,,blue,square
417.0,4.0,4.0,0.0,1.0,1.0,290.5283314175904,2.0,1.0,phase_1,,,,,,,,,,,,,blue,square
404.0,4.0,4.0,0.0,4.0,4.0,268.6903838184662,2.0,1.0,phase_1,,,,,,,,,,,,,blue,square
413.0,8.0,4.0,1.0,3.0,3.0,345.9064472699538,2.0,1.0,phase_1,,,,,,,,,,,,,yellow,circle
115.0,2.0,1.0,0.0,1.0,1.0,303.7429682444781,2.0,1.0,phase_1,,,,,,,,,,,,,magenta,diamond
423.0,4.0,4.0,0.0,2.0,2.0,348.0948001961224,2.0,1.0,phase_1,,,,,,,,,,,,,blue,square
0.0,5.0,0.0,1.0,4.0,4.0,326.2522059958428,2.0,1.0,phase_1,,,,,,,,,,,,,white,triangle
123.0,2.0,1.0,0.0,3.0,3.0,259.9211421911604,2.0,1.0,phase_1,,,,,,,,,,,,,magenta,diamond
213.0,7.0,2.0,1.0,4.0,4.0,304.8826168524101,2.0,2.0,phase_1,,,,,,,,,,,,,cyan,I
399.0,8.0,4.0,1.0,3.0,3.0,328.5411711549386,2.0,1.0,phase_1,,,,,,,,,,,,,yellow,circle
0.0,7.0,0.0,1.0,2.0,2.0,329.4117492623627,2.0,1.0,phase_1,,,,,,,,,,,,,cyan,I
31.0,1.0,0.5,0.0,2.0,2.0,329.0698048658669,2.0,1.0,phase_1,,,,,,,,,,,,,orange,flipped triangle
46.0,1.0,0.5,0.0,4.0,4.0,340.4218956129625,2.0,1.0,phase_1,,,,,,,,,,,,,orange,flipped triangle
105.0,6.0,1.0,1.0,3.0,3.0,364.5541792502627,2.0,1.0,phase_1,,,,,,,,,,,,,gray,cross
0.0,7.0,0.0,1.0,4.0,4.0,432.0076081785373,2.0,1.0,phase_1,,,,,,,,,,,,,cyan,I
55.0,5.0,0.5,1.0,3.0,3.0,342.0744172181003,2.0,1.0,phase_1,,,,,,,,,,,,,white,triangle
0.0,5.0,0.0,1.0,2.0,2.0,333.0607946263626,2.0,1.0,phase_1,,,,,,,,,,,,,white,triangle
27.0,5.0,0.5,1.0,3.0,3.0,298.8746645860374,2.0,1.0,phase_1,,,,,,,,,,,,,white,triangle
412.0,8.0,4.0,1.0,1.0,1.0,287.5056890188716,2.0,1.0,phase_1,,,,,,,,,,,,,yellow,circle
122.0,6.0,1.0,1.0,2.0,2.0,324.5584406540729,2.0,2.0,phase_1,,,,,,,,,,,,,gray,cross
382.0,8.0,4.0,1.0,2.0,2.0,334.8739036591723,2.0,1.0,phase_1,,,,,,,,,,,,,yellow,circle
88.0,2.0,1.0,0.0,3.0,3.0,312.8203459782526,2.0,1.0,phase_1,,,,,,,,,,,,,magenta,diamond
51.0,1.0,0.5,0.0,4.0,4.0,313.573821040336,2.0,1.0,phase_1,,,,,,,,,,,,,orange,flipped triangle
82.0,2.0,1.0,0.0,2.0,2.0,415.3689288650639,2.0,2.0,phase_1,,,,,,,,,,,,,magenta,diamond
218.0,7.0,2.0,1.0,3.0,3.0,349.8636908479966,2.0,1.0,phase_1,,,,,,,,,,,,,cyan,I
34.0,5.0,0.5,1.0,4.0,4.0,350.3202010178938,2.0,1.0,phase_1,,,,,,,,,,,,,white,triangle
187.0,7.0,2.0,1.0,4.0,4.0,338.4103316348046,2.0,1.0,phase_1,,,,,,,,,,,,,cyan,I
55.0,1.0,0.5,0.0,2.0,2.0,363.0358068039641,2.0,1.0,phase_1,,,,,,,,,,,,,orange,flipped triangle
414.0,4.0,4.0,0.0,2.0,2.0,330.083477369044,2.0,1.0,phase_1,,,,,,,,,,,,,blue,square
87.0,2.0,1.0,0.0,1.0,1.0,364.1294146073051,2.0,1.0,phase_1,,,,,,,,,,,,,magenta,diamond
0.0,3.0,0.0,0.0,1.0,1.0,342.2970188548788,2.0,1.0,phase_1,,,,,,,,,,,,,green,hexagon
54.0,5.0,0.5,1.0,2.0,2.0,353.8353376206942,2.0,1.0,phase_1,,,,,,,,,,,,,white,triangle
217.0,7.0,2.0,1.0,3.0,3.0,364.4217878463678,2.0,1.0,phase_1,,,,,,,,,,,,,cyan,I
176.0,3.0,2.0,0.0,1.0,1.0,342.8432918153703,2.0,1.0,phase_1,,,,,,,,,,,,,green,hexagon
223.0,7.0,2.0,1.0,3.0,3.0,388.4803896653466,2.0,1.0,phase_1,,,,,,,,,,,,,cyan,I
205.0,3.0,2.0,0.0,1.0,1.0,333.3340281969867,2.0,1.0,phase_1,,,,,,,,,,,,,green,hexagon
176.0,7.0,2.0,1.0,1.0,1.0,300.7532891933806,2.0,1.0,phase_1,,,,,,,,,,,,,cyan,I
0.0,8.0,0.0,1.0,2.0,2.0,311.3471294054761,2.0,1.0,phase_1,,,,,,,,,,,,,yellow,circle
191.0,3.0,2.0,0.0,1.0,1.0,288.5461148689501,2.0,1.0,phase_1,,,,,,,,,,,,,green,hexagon
29.0,1.0,0.5,0.0,3.0,3.0,368.6455928836949,2.0,1.0,phase_1,,,,,,,,,,,,,orange,flipped triangle
0.0,8.0,0.0,1.0,2.0,2.0,314.3241950310766,2.0,1.0,phase_1,,,,,,,,,,,,,yellow,circle
414.0,8.0,4.0,1.0,2.0,2.0,303.3111084369011,2.0,1.0,phase_1,,,,,,,,,,,,,yellow,circle
377.0,8.0,4.0,1.0,2.0,2.0,279.3892438639886,2.0,1.0,phase_1,,,,,,,,,,,,,yellow,circle
27.0,1.0,0.5,0.0,1.0,1.0,372.1946503501385,2.0,1.0,phase_1,,,,,,,,,,,,,orange,flipped triangle
92.0,6.0,1.0,1.0,1.0,1.0,338.0119873909279,2.0,1.0,phase_1,,,,,,,,,,,,,gray,cross
0.0,3.0,0.0,0.0,1.0,1.0,281.1941098188981,2.0,1.0,phase_1,,,,,,,,,,,,,green,hexagon
196.0,7.0,2.0,1.0,3.0,3.0,360.4546958231367,2.0,1.0,phase_1,,,,,,,,,,,,,cyan,I
208.0,7.0,2.0,1.0,3.0,3.0,338.2411171915009,2.0,1.0,phase_1,,,,,,,,,,,,,cyan,I
71.0,5.0,0.5,1.0,1.0,1.0,318.6303012189455,2.0,1.0,phase_1,,,,,,,,,,,,,white,triangle
29.0,1.0,0.5,0.0,3.0,3.0,339.3215510295704,3.0,1.0,phase_1,,,,,,,,,,,,,orange,flipped triangle
97.0,2.0,1.0,0.0,2.0,2.0,317.5193898496218,3.0,1.0,phase_1,,,,,,,,,,,,,magenta,diamond
123.0,6.0,1.0,1.0,3.0,3.0,317.7058976143598,3.0,1.0,phase_1,,,,,,,,,,,,,gray,cross
0.0,8.0,0.0,1.0,2.0,2.0,342.4104306614026,3.0,1.0,phase_1,,,,,,,,,,,,,yellow,circle
0.0,1.0,0.0,0.0,2.0,2.0,295.8812798024155,3.0,1.0,phase_1,,,,,,,,,,,,,orange,flipped triangle
123.0,6.0,1.0,1.0,1.0,1.0,331.6395430010743,3.0,1.0,phase_1,,,,,,,,,,,,,gray,cross
87.0,6.0,1.0,1.0,4.0,4.0,321.16935803787777,3.0,1.0,phase_1,,,,,,,,,,,,,gray,cross
0.0,7.0,0.0,1.0,2.0,2.0,320.72120369412,3.0,1.0,phase_1,,,,,,,,,,,,,cyan,I
221.0,3.0,2.0,0.0,4.0,4.0,389.433974865824,3.0,1.0,phase_1,,,,,,,,,,,,,green,hexagon
420.0,8.0,4.0,1.0,3.0,3.0,378.2507982687093,3.0,1.0,phase_1,,,,,,,,,,,,,yellow,circle
82.0,6.0,1.0,1.0,4.0,4.0,345.9356883540749,3.0,1.0,phase_1,,,,,,,,,,,,,gray,cross
190.0,3.0,2.0,0.0,1.0,1.0,322.2646992071531,3.0,1.0,phase_1,,,,,,,,,,,,,green,hexagon
0.0,7.0,0.0,1.0,2.0,2.0,312.4281266354956,3.0,1.0,phase_1,,,,,,,,,,,,,cyan,I
0.0,5.0,0.0,1.0,4.0,4.0,312.9043919616379,3.0,1.0,phase_1,,,,,,,,,,,,,white,triangle
0.0,3.0,0.0,0.0,2.0,2.0,348.6020836280659,3.0,1.0,phase_1,,,,,,,,,,,,,green,hexagon
71.0,1.0,0.5,0.0,4.0,4.0,325.2649598871358,3.0,1.0,phase_1,,,,,,,,,,,,,orange,flipped triangle
0.0,6.0,0.0,1.0,4.0,4.0,347.5178286316804,3.0,1.0,phase_1,,,,,,,,,,,,,gray,cross
47.0,1.0,0.5,0.0,2.0,2.0,315.5519533902406,3.0,1.0,phase_1,,,,,,,,,,,,,orange,flipped triangle
190.0,7.0,2.0,1.0,1.0,1.0,294.0825237892568,3.0,1.0,phase_1,,,,,,,,,,,,,cyan,I
50.0,5.0,0.5,1.0,2.0,2.0,304.2485342011787,3.0,1.0,phase_1,,,,,,,,,,,,,white,triangle
0.0,3.0,0.0,0.0,2.0,2.0,349.6416778070852,3.0,1.0,phase_1,,,,,,,,,,,,,green,hexagon
0.0,6.0,0.0,1.0,4.0,4.0,361.7372902226634,3.0,1.0,phase_1,,,,,,,,,,,,,gray,cross
0.0,4.0,0.0,0.0,1.0,1.0,363.1611880264245,3.0,1.0,phase_1,,,,,,,,,,,,,blue,square
107.0,6.0,1.0,1.0,4.0,4.0,328.402346232906,3.0,1.0,phase_1,,,,,,,,,,,,,gray,cross
46.0,5.0,0.5,1.0,4.0,4.0,330.8907970204018,3.0,1.0,phase_1,,,,,,,,,,,,,white,triangle
221.0,7.0,2.0,1.0,1.0,1.0,375.2990018110722,3.0,1.0,phase_1,,,,,,,,,,,,,cyan,I
64.0,1.0,0.5,0.0,1.0,1.0,365.6280066352337,3.0,1.0,phase_1,,,,,,,,,,,,,orange,flipped triangle
190.0,3.0,2.0,0.0,3.0,3.0,342.4136946559883,3.0,1.0,phase_1,,,,,,,,,,,,,green,hexagon
0.0,8.0,0.0,1.0,3.0,3.0,354.8468688386492,3.0,1.0,phase_1,,,,,,,,,,,,,yellow,circle
107.0,2.0,1.0,0.0,2.0,2.0,344.4940418121405,3.0,1.0,phase_1,,,,,,,,,,,,,magenta,diamond
0.0,8.0,0.0,1.0,3.0,3.0,367.1540526556782,3.0,1.0,phase_1,,,,,,,,,,,,,yellow,circle
44.0,1.0,0.5,0.0,2.0,2.0,391.5113948169164,3.0,1.0,phase_1,,,,,,,,,,,,,orange,flipped triangle
189.0,3.0,2.0,0.0,3.0,3.0,324.0355618181638,3.0,1.0,phase_1,,,,,,,,,,,,,green,hexagon
404.0,4.0,4.0,0.0,2.0,2.0,311.8583738105371,3.0,1.0,phase_1,,,,,,,,,,,,,blue,square
416.0,4.0,4.0,0.0,4.0,4.0,348.4587113489397,3.0,1.0,phase_1,,,,,,,,,,,,,blue,square
0.0,2.0,0.0,0.0,2.0,2.0,347.2130369627848,3.0,1.0,phase_1,,,,,,,,,,,,,magenta,diamond
0.0,3.0,0.0,0.0,1.0,1.0,315.4433144372888,3.0,1.0,phase_1,,,,,,,,,,,,,green,hexagon
183.0,7.0,2.0,1.0,3.0,3.0,347.1116999862715,3.0,1.0,phase_1,,,,,,,,,,,,,cyan,I
398.0,8.0,4.0,1.0,3.0,3.0,325.6699191988446,3.0,1.0,phase_1,,,,,,,,,,,,,yellow,circle
377.0,4.0,4.0,0.0,2.0,2.0,349.0890946122817,3.0,1.0,phase_1,,,,,,,,,,,,,blue,square
97.0,2.0,1.0,0.0,4.0,4.0,372.2465966711752,3.0,1.0,phase_1,,,,,,,,,,,,,magenta,diamond
94.0,2.0,1.0,0.0,2.0,2.0,307.2270346456207,3.0,1.0,phase_1,,,,,,,,,,,,,magenta,diamond
407.0,8.0,4.0,1.0,3.0,3.0,339.1749522415921,3.0,1.0,phase_1,,,,,,,,,,,,,yellow,circle
0.0,1.0,0.0,0.0,3.0,3.0,521.3440006482415,3.0,1.0,phase_1,,,,,,,,,,,,,orange,flipped triangle
223.0,7.0,2.0,1.0,3.0,3.0,374.7428758651949,3.0,1.0,phase_1,,,,,,,,,,,,,cyan,I
180.0,3.0,2.0,0.0,2.0,2.0,309.1636936296709,3.0,1.0,phase_1,,,,,,,,,,,,,green,hexagon
190.0,7.0,2.0,1.0,4.0,4.0,365.5516924336552,3.0,1.0,phase_1,,,,,,,,,,,,,cyan,I
0.0,2.0,0.0,0.0,2.0,2.0,320.374493021518,3.0,1.0,phase_1,,,,,,,,,,,,,magenta,diamond
0.0,4.0,0.0,0.0,4.0,4.0,332.5674376683309,3.0,1.0,phase_1,,,,,,,,,,,,,blue,square
200.0,7.0,2.0,1.0,1.0,1.0,356.3544534263201,3.0,1.0,phase_1,,,,,,,,,,,,,cyan,I
43.0,5.0,0.5,1.0,3.0,3.0,332.4514527921565,3.0,1.0,phase_1,,,,,,,,,,,,,white,triangle
0.0,1.0,0.0,0.0,2.0,2.0,288.4657900431193,3.0,1.0,phase_1,,,,,,,,,,,,,orange,flipped triangle
57.0,1.0,0.5,0.0,4.0,4.0,279.0944740409031,3.0,1.0,phase_1,,,,,,,,,,,,,orange,flipped triangle
0.0,2.0,0.0,0.0,1.0,1.0,289.197118836455,3.0,1.0,phase_1,,,,,,,,,,,,,magenta,diamond
204.0,3.0,2.0,0.0,3.0,3.0,346.1336173932068,3.0,1.0,phase_1,,,,,,,,,,,,,green,hexagon
0.0,1.0,0.0,0.0,2.0,2.0,303.1738736317493,3.0,1.0,phase_1,,,,,,,,,,,,,orange,flipped triangle
199.0,7.0,2.0,1.0,2.0,2.0,348.6839348333888,3.0,1.0,phase_1,,,,,,,,,,,,,cyan,I
55.0,5.0,0.5,1.0,2.0,2.0,314.211958379019,3.0,1.0,phase_1,,,,,,,,,,,,,white,triangle
89.0,2.0,1.0,0.0,2.0,2.0,270.1401971862651,3.0,1.0,phase_1,,,,,,,,,,,,,magenta,diamond
224.0,7.0,2.0,1.0,4.0,4.0,339.0150522463955,3.0,1.0,phase_1,,,,,,,,,,,,,cyan,I
28.0,1.0,0.5,0.0,2.0,2.0,306.1262296396307,3.0,1.0,phase_1,,,,,,,,,,,,,orange,flipped triangle
0.0,3.0,0.0,0.0,4.0,4.0,294.0329320263117,3.0,1.0,phase_1,,,,,,,,,,,,,green,hexagon
395.0,8.0,4.0,1.0,1.0,1.0,329.2044626432471,3.0,1.0,phase_1,,,,,,,,,,,,,yellow,circle
0.0,7.0,0.0,1.0,1.0,1.0,295.2507513691671,3.0,1.0,phase_1,,,,,,,,,,,,,cyan,I
423.0,4.0,4.0,0.0,2.0,2.0,296.5852161869406,3.0,1.0,phase_1,,,,,,,,,,,,,blue,square
92.0,2.0,1.0,0.0,3.0,3.0,328.8235434447415,3.0,1.0,phase_1,,,,,,,,,,,,,magenta,diamond
82.0,6.0,1.0,1.0,3.0,3.0,353.0594342155382,3.0,2.0,phase_1,,,,,,,,,,,,,gray,cross
196.0,3.0,2.0,0.0,2.0,2.0,410.6698961695656,3.0,1.0,phase_1,,,,,,,,,,,,,green,hexagon
377.0,8.0,4.0,1.0,4.0,4.0,332.0731506682932,3.0,1.0,phase_1,,,,,,,,,,,,,yellow,circle
72.0,5.0,0.5,1.0,1.0,1.0,334.3385900370776,3.0,1.0,phase_1,,,,,,,,,,,,,white,triangle
53.0,1.0,0.5,0.0,1.0,1.0,299.2676160065457,3.0,1.0,phase_1,,,,,,,,,,,,,orange,flipped triangle
47.0,5.0,0.5,1.0,4.0,4.0,333.5188623750582,3.0,2.0,phase_1,,,,,,,,,,,,,white,triangle
120.0,6.0,1.0,1.0,3.0,3.0,346.9191950280219,3.0,1.0,phase_1,,,,,,,,,,,,,gray,cross
120.0,2.0,1.0,0.0,2.0,2.0,336.1748162424192,3.0,2.0,phase_1,,,,,,,,,,,,,magenta,diamond
114.0,2.0,1.0,0.0,1.0,1.0,505.5071418173611,3.0,1.0,phase_1,,,,,,,,,,,,,magenta,diamond
0.0,4.0,0.0,0.0,2.0,2.0,381.3594423700124,3.0,1.0,phase_1,,,,,,,,,,,,,blue,square
43.0,1.0,0.5,0.0,3.0,3.0,381.6790509736165,3.0,1.0,phase_1,,,,,,,,,,,,,orange,flipped triangle
74.0,1.0,0.5,0.0,2.0,2.0,350.7438673987053,3.0,1.0,phase_1,,,,,,,,,,,,,orange,flipped triangle
50.0,1.0,0.5,0.0,3.0,3.0,383.6209811852313,3.0,1.0,phase_1,,,,,,,,,,,,,orange,flipped triangle
204.0,7.0,2.0,1.0,1.0,1.0,361.8198766489513,3.0,1.0,phase_1,,,,,,,,,,,,,cyan,I
189.0,7.0,2.0,1.0,4.0,4.0,307.0974766160361,3.0,1.0,phase_1,,,,,,,,,,,,,cyan,I
391.0,8.0,4.0,1.0,2.0,2.0,341.8992052320391,3.0,1.0,phase_1,,,,,,,,,,,,,yellow,circle
404.0,8.0,4.0,1.0,3.0,3.0,352.6782318367623,3.0,1.0,phase_1,,,,,,,,,,,,,yellow,circle
0.0,1.0,0.0,0.0,3.0,3.0,432.3262916877866,3.0,1.0,phase_1,,,,,,,,,,,,,orange,flipped triangle
216.0,7.0,2.0,1.0,2.0,2.0,309.8959706258029,3.0,1.0,phase_1,,,,,,,,,,,,,cyan,I
213.0,3.0,2.0,0.0,4.0,4.0,319.2478324053809,3.0,1.0,phase_1,,,,,,,,,,,,,green,hexagon
107.0,2.0,1.0,0.0,1.0,1.0,310.0127196521498,3.0,1.0,phase_1,,,,,,,,,,,,,magenta,diamond
197.0,7.0,2.0,1.0,4.0,4.0,421.7262580641545,3.0,1.0,phase_1,,,,,,,,,,,,,cyan,I
0.0,6.0,0.0,1.0,4.0,4.0,332.2050043498166,3.0,1.0,phase_1,,,,,,,,,,,,,gray,cross
38.0,1.0,0.5,0.0,3.0,3.0,367.2251881798729,3.0,1.0,phase_1,,,,,,,,,,,,,orange,flipped triangle
377.0,4.0,4.0,0.0,1.0,1.0,357.4590568314306,3.0,1.0,phase_1,,,,,,,,,,,,,blue,square
0.0,1.0,0.0,0.0,3.0,3.0,378.5170258488506,3.0,1.0,phase_1,,,,,,,,,,,,,orange,flipped triangle
77.0,6.0,1.0,1.0,1.0,1.0,335.0038414355367,3.0,1.0,phase_1,,,,,,,,,,,,,gray,cross
0.0,8.0,0.0,1.0,4.0,4.0,325.798402831424,3.0,1.0,phase_1,,,,,,,,,,,,,yellow,circle
398.0,4.0,4.0,0.0,2.0,2.0,325.2403236692771,3.0,1.0,phase_1,,,,,,,,,,,,,blue,square
109.0,2.0,1.0,0.0,3.0,3.0,324.7486529871821,3.0,1.0,phase_1,,,,,,,,,,,,,magenta,diamond
390.0,4.0,4.0,0.0,4.0,4.0,360.3725273860618,3.0,1.0,phase_1,,,,,,,,,,,,,blue,square
0.0,6.0,0.0,1.0,3.0,3.0,393.6682576895691,3.0,1.0,phase_1,,,,,,,,,,,,,gray,cross
0.0,3.0,0.0,0.0,3.0,3.0,359.9733260343782,3.0,1.0,phase_1,,,,,,,,,,,,,green,hexagon
75.0,6.0,1.0,1.0,2.0,2.0,373.2624386320822,3.0,1.0,phase_1,,,,,,,,,,,,,gray,cross
77.0,2.0,1.0,0.0,1.0,1.0,365.9481646027416,4.0,1.0,phase_1,,,,,,,,,,,,,magenta,diamond
386.0,8.0,4.0,1.0,4.0,4.0,377.9807096580043,4.0,1.0,phase_1,,,,,,,,,,,,,yellow,circle
115.0,6.0,1.0,1.0,4.0,4.0,345.114114228636,4.0,1.0,phase_1,,,,,,,,,,,,,gray,cross
85.0,6.0,1.0,1.0,2.0,2.0,367.5745546352118,4.0,1.0,phase_1,,,,,,,,,,,,,gray,cross
64.0,5.0,0.5,1.0,3.0,3.0,403.1736856559291,4.0,1.0,phase_1,,,,,,,,,,,,,white,triangle
101.0,2.0,1.0,0.0,4.0,4.0,357.4523422284983,4.0,1.0,phase_1,,,,,,,,,,,,,magenta,diamond
63.0,1.0,0.5,0.0,1.0,1.0,292.0480158645659,4.0,1.0,phase_1,,,,,,,,,,,,,orange,flipped triangle
414.0,4.0,4.0,0.0,3.0,3.0,348.3688043779693,4.0,1.0,phase_1,,,,,,,,,,,,,blue,square
218.0,3.0,2.0,0.0,2.0,2.0,326.9966394291259,4.0,1.0,phase_1,,,,,,,,,,,,,green,hexagon
97.0,6.0,1.0,1.0,4.0,4.0,292.4703491735272,4.0,1.0,phase_1,,,,,,,,,,,,,gray,cross
405.0,4.0,4.0,0.0,3.0,3.0,370.8314173854887,4.0,1.0,phase_1,,,,,,,,,,,,,blue,square
57.0,5.0,0.5,1.0,2.0,2.0,293.1817976641468,4.0,1.0,phase_1,,,,,,,,,,,,,white,triangle
39.0,1.0,0.5,0.0,4.0,4.0,327.7554740197956,4.0,1.0,phase_1,,,,,,,,,,,,,orange,flipped triangle
122.0,2.0,1.0,0.0,4.0,4.0,293.7474726350046,4.0,1.0,phase_1,,,,,,,,,,,,,magenta,diamond
114.0,2.0,1.0,0.0,4.0,4.0,307.4892831500619,4.0,1.0,phase_1,,,,,,,,,,,,,magenta,diamond
179.0,3.0,2.0,0.0,1.0,1.0,308.7427958380431,4.0,1.0,phase_1,,,,,,,,,,,,,green,hexagon
186.0,7.0,2.0,1.0,1.0,1.0,296.8060946441255,4.0,1.0,phase_1,,,,,,,,,,,,,cyan,I
198.0,7.0,2.0,1.0,2.0,2.0,342.1023518312722,4.0,1.0,phase_1,,,,,,,,,,,,,cyan,I
198.0,3.0,2.0,0.0,2.0,2.0,353.6239480599761,4.0,1.0,phase_1,,,,,,,,,,,,,green,hexagon
384.0,8.0,4.0,1.0,3.0,3.0,556.0070334468037,4.0,1.0,phase_1,,,,,,,,,,,,,yellow,circle
206.0,7.0,2.0,1.0,3.0,3.0,378.160020627547,4.0,1.0,phase_1,,,,,,,,,,,,,cyan,I
109.0,6.0,1.0,1.0,1.0,1.0,356.3316076179035,4.0,1.0,phase_1,,,,,,,,,,,,,gray,cross
404.0,8.0,4.0,1.0,2.0,2.0,412.5635678065009,4.0,1.0,phase_1,,,,,,,,,,,,,yellow,circle
0.0,4.0,0.0,0.0,4.0,4.0,380.0054836319759,4.0,1.0,phase_1,,,,,,,,,,,,,blue,square
0.0,1.0,0.0,0.0,2.0,2.0,335.693814617116,4.0,1.0,phase_1,,,,,,,,,,,,,orange,flipped triangle
0.0,5.0,0.0,1.0,1.0,1.0,314.0454270178452,4.0,1.0,phase_1,,,,,,,,,,,,,white,triangle
124.0,2.0,1.0,0.0,1.0,1.0,380.9928889968432,4.0,1.0,phase_1,,,,,,,,,,,,,magenta,diamond
36.0,1.0,0.5,0.0,2.0,2.0,369.1974116372876,4.0,1.0,phase_1,,,,,,,,,,,,,orange,flipped triangle
420.0,8.0,4.0,1.0,2.0,2.0,325.188337592408,4.0,1.0,phase_1,,,,,,,,,,,,,yellow,circle
391.0,8.0,4.0,1.0,1.0,1.0,393.5091581661254,4.0,1.0,phase_1,,,,,,,,,,,,,yellow,circle
188.0,7.0,2.0,1.0,2.0,2.0,349.2304243845865,4.0,1.0,phase_1,,,,,,,,,,,,,cyan,I
395.0,4.0,4.0,0.0,3.0,3.0,575.0582866603509,4.0,1.0,phase_1,,,,,,,,,,,,,blue,square
66.0,5.0,0.5,1.0,1.0,1.0,463.0393821862526,4.0,1.0,phase_1,,,,,,,,,,,,,white,triangle
0.0,4.0,0.0,0.0,1.0,1.0,352.3371986229904,4.0,1.0,phase_1,,,,,,,,,,,,,blue,square
207.0,3.0,2.0,0.0,4.0,4.0,453.3326454111375,4.0,1.0,phase_1,,,,,,,,,,,,,green,hexagon
0.0,2.0,0.0,0.0,1.0,1.0,351.7705902340822,4.0,1.0,phase_1,,,,,,,,,,,,,magenta,diamond
75.0,2.0,1.0,0.0,4.0,4.0,352.1888220566325,4.0,1.0,phase_1,,,,,,,,,,,,,magenta,diamond
220.0,7.0,2.0,1.0,2.0,2.0,296.1925386334769,4.0,1.0,phase_1,,,,,,,,,,,,,cyan,I
67.0,5.0,0.5,1.0,2.0,2.0,375.6507451762445,4.0,1.0,phase_1,,,,,,,,,,,,,white,triangle
407.0,4.0,4.0,0.0,1.0,1.0,354.4789900188334,4.0,1.0,phase_1,,,,,,,,,,,,,blue,square
0.0,6.0,0.0,1.0,1.0,1.0,343.8370883814059,4.0,1.0,phase_1,,,,,,,,,,,,,gray,cross
0.0,1.0,0.0,0.0,2.0,2.0,332.5082994415425,4.0,1.0,phase_1,,,,,,,,,,,,,orange,flipped triangle
31.0,5.0,0.5,1.0,1.0,1.0,312.1327341650612,4.0,1.0,phase_1,,,,,,,,,,,,,white,triangle
0.0,4.0,0.0,0.0,2.0,2.0,311.3236870267428,4.0,1.0,phase_1,,,,,,,,,,,,,blue,square
120.0,6.0,1.0,1.0,2.0,2.0,311.9360550190322,4.0,1.0,phase_1,,,,,,,,,,,,,gray,cross
82.0,2.0,1.0,0.0,2.0,2.0,346.0197563981637,4.0,1.0,phase_1,,,,,,,,,,,,,magenta,diamond
81.0,2.0,1.0,0.0,4.0,4.0,401.8774706637487,4.0,1.0,phase_1,,,,,,,,,,,,,magenta,diamond
398.0,4.0,4.0,0.0,4.0,4.0,392.77700020466,4.0,1.0,phase_1,,,,,,,,,,,,,blue,square
0.0,2.0,0.0,0.0,4.0,4.0,393.0745430407114,4.0,1.0,phase_1,,,,,,,,,,,,,magenta,diamond
0.0,5.0,0.0,1.0,4.0,4.0,427.1003360045142,4.0,1.0,phase_1,,,,,,,,,,,,,white,triangle
0.0,7.0,0.0,1.0,3.0,3.0,427.6264666114002,4.0,1.0,phase_1,,,,,,,,,,,,,cyan,I
183.0,3.0,2.0,0.0,1.0,1.0,338.448763359338,4.0,1.0,phase_1,,,,,,,,,,,,,green,hexagon
85.0,2.0,1.0,0.0,3.0,3.0,496.7122804373503,4.0,1.0,phase_1,,,,,,,,,,,,,magenta,diamond
67.0,1.0,0.5,0.0,3.0,3.0,361.4314123988151,4.0,1.0,phase_1,,,,,,,,,,,,,orange,flipped triangle
192.0,7.0,2.0,1.0,3.0,3.0,453.0340486671775,4.0,1.0,phase_1,,,,,,,,,,,,,cyan,I
81.0,6.0,1.0,1.0,2.0,2.0,430.1285398541949,4.0,1.0,phase_1,,,,,,,,,,,,,gray,cross
0.0,3.0,0.0,0.0,3.0,3.0,374.969863158185,4.0,1.0,phase_1,,,,,,,,,,,,,green,hexagon
125.0,2.0,1.0,0.0,4.0,4.0,352.1887288661673,4.0,1.0,phase_1,,,,,,,,,,,,,magenta,diamond
379.0,8.0,4.0,1.0,4.0,4.0,320.8157858462073,4.0,1.0,phase_1,,,,,,,,,,,,,yellow,circle
0.0,5.0,0.0,1.0,4.0,4.0,321.075857616961,4.0,1.0,phase_1,,,,,,,,,,,,,white,triangle
177.0,3.0,2.0,0.0,2.0,2.0,400.3241652389988,4.0,1.0,phase_1,,,,,,,,,,,,,green,hexagon
223.0,3.0,2.0,0.0,3.0,3.0,343.8505583908409,4.0,1.0,phase_1,,,,,,,,,,,,,green,hexagon
399.0,4.0,4.0,0.0,3.0,3.0,422.5472810212523,4.0,1.0,phase_1,,,,,,,,,,,,,blue,square
66.0,5.0,0.5,1.0,1.0,1.0,345.3229907900095,4.0,1.0,phase_1,,,,,,,,,,,,,white,triangle
38.0,5.0,0.5,1.0,2.0,2.0,358.1355516216717,4.0,1.0,phase_1,,,,,,,,,,,,,white,triangle
58.0,1.0,0.5,0.0,3.0,3.0,402.2810328169726,4.0,1.0,phase_1,,,,,,,,,,,,,orange,flipped triangle
103.0,6.0,1.0,1.0,4.0,4.0,460.1498686242848,4.0,1.0,phase_1,,,,,,,,,,,,,gray,cross
420.0,4.0,4.0,0.0,1.0,1.0,380.4976179962978,4.0,1.0,phase_1,,,,,,,,,,,,,blue,square
400.0,8.0,4.0,1.0,2.0,2.0,358.3280278253369,4.0,1.0,phase_1,,,,,,,,,,,,,yellow,circle
87.0,6.0,1.0,1.0,2.0,2.0,369.7421288234181,4.0,1.0,phase_1,,,,,,,,,,,,,gray,cross
423.0,8.0,4.0,1.0,1.0,1.0,370.5048548290506,4.0,1.0,phase_1,,,,,,,,,,,,,yellow,circle
90.0,2.0,1.0,0.0,1.0,1.0,371.3590270490385,4.0,1.0,phase_1,,,,,,,,,,,,,magenta,diamond
54.0,1.0,0.5,0.0,3.0,3.0,393.8502288656309,4.0,1.0,phase_1,,,,,,,,,,,,,orange,flipped triangle
107.0,6.0,1.0,1.0,2.0,2.0,361.3329064100981,4.0,1.0,phase_1,,,,,,,,,,,,,gray,cross
183.0,7.0,2.0,1.0,2.0,2.0,328.84740026202047,4.0,1.0,phase_1,,,,,,,,,,,,,cyan,I
191.0,7.0,2.0,1.0,2.0,2.0,317.2956278431229,4.0,1.0,phase_1,,,,,,,,,,,,,cyan,I
177.0,7.0,2.0,1.0,1.0,1.0,352.6370264589786,4.0,1.0,phase_1,,,,,,,,,,,,,cyan,I
43.0,5.0,0.5,1.0,4.0,4.0,340.9857486840337,4.0,1.0,phase_1,,,,,,,,,,,,,white,triangle
69.0,1.0,0.5,0.0,1.0,1.0,297.7994094253517,4.0,1.0,phase_1,,,,,,,,,,,,,orange,flipped triangle
411.0,8.0,4.0,1.0,1.0,1.0,297.173673112411,4.0,1.0,phase_1,,,,,,,,,,,,,yellow,circle
97.0,6.0,1.0,1.0,1.0,1.0,297.788193449378,4.0,1.0,phase_1,,,,,,,,,,,,,gray,cross
94.0,6.0,1.0,1.0,1.0,1.0,298.5230758204125,4.0,1.0,phase_1,,,,,,,,,,,,,gray,cross
94.0,2.0,1.0,0.0,3.0,3.0,433.9149271836504,4.0,1.0,phase_1,,,,,,,,,,,,,magenta,diamond
199.0,3.0,2.0,0.0,3.0,3.0,343.2291712379083,4.0,1.0,phase_1,,,,,,,,,,,,,green,hexagon
0.0,5.0,0.0,1.0,4.0,4.0,344.3508390337229,4.0,1.0,phase_1,,,,,,,,,,,,,white,triangle
66.0,1.0,0.5,0.0,3.0,3.0,425.2221998176537,4.0,1.0,phase_1,,,,,,,,,,,,,orange,flipped triangle
91.0,6.0,1.0,1.0,4.0,4.0,357.18918568454677,4.0,1.0,phase_1,,,,,,,,,,,,,gray,cross
84.0,2.0,1.0,0.0,2.0,2.0,368.4568348107859,4.0,1.0,phase_1,,,,,,,,,,,,,magenta,diamond
29.0,5.0,0.5,1.0,3.0,3.0,426.5575212193653,4.0,1.0,phase_1,,,,,,,,,,,,,white,triangle
220.0,7.0,2.0,1.0,4.0,4.0,336.6471286281012,4.0,1.0,phase_1,,,,,,,,,,,,,cyan,I
400.0,4.0,4.0,0.0,3.0,3.0,337.6432986697182,4.0,1.0,phase_1,,,,,,,,,,,,,blue,square
205.0,3.0,2.0,0.0,2.0,2.0,427.5482561788521,4.0,1.0,phase_1,,,,,,,,,,,,,green,hexagon
57.0,5.0,0.5,1.0,4.0,4.0,339.256958803162,4.0,1.0,phase_1,,,,,,,,,,,,,white,triangle
82.0,2.0,1.0,0.0,3.0,3.0,304.9246182199567,4.0,1.0,phase_1,,,,,,,,,,,,,magenta,diamond
0.0,2.0,0.0,0.0,1.0,1.0,396.5337663539685,4.0,1.0,phase_1,,,,,,,,,,,,,magenta,diamond
114.0,6.0,1.0,1.0,4.0,4.0,340.885732031893,4.0,1.0,phase_1,,,,,,,,,,,,,gray,cross
114.0,6.0,1.0,1.0,4.0,4.0,598.4308376791887,4.0,1.0,phase_1,,,,,,,,,,,,,gray,cross
40.0,5.0,0.5,1.0,2.0,2.0,465.0893448269926,4.0,1.0,phase_1,,,,,,,,,,,,,white,triangle
420.0,4.0,4.0,0.0,1.0,1.0,342.8924522013403,4.0,1.0,phase_1,,,,,,,,,,,,,blue,square
36.0,5.0,0.5,1.0,3.0,3.0,352.9877360560931,4.0,1.0,phase_1,,,,,,,,,,,,,white,triangle
0.0,2.0,1.0,0.0,6.0,6.0,464.6357544115744,1.0,1.0,phase_2,go,250.0,250.0,1.0,,,,,,,,,magenta,diamond
0.0,8.0,4.0,1.0,5.0,5.0,445.2915620058775,1.0,1.0,phase_2,go,250.0,250.0,1.0,,,,,,,,,yellow,circle
0.0,6.0,1.0,1.0,6.0,6.0,603.2576080178842,1.0,1.0,phase_2,go,250.0,250.0,1.0,,,,,,,,,gray,cross
0.0,5.0,0.5,1.0,6.0,0.0,0.0,1.0,1.0,phase_2,stop,250.0,250.0,4.0,,,,,,,,,white,triangle
0.0,6.0,1.0,1.0,6.0,6.0,490.7499793334864,1.0,1.0,phase_2,stop,250.0,300.0,3.0,,,,,,,,,gray,cross
0.0,1.0,0.5,0.0,5.0,5.0,356.8647796055302,1.0,1.0,phase_2,go,250.0,250.0,1.0,,,,,,,,,orange,flipped triangle
0.0,3.0,2.0,0.0,5.0,5.0,549.9379358952865,1.0,1.0,phase_2,go,250.0,250.0,1.0,,,,,,,,,green,hexagon
0.0,5.0,0.5,1.0,5.0,0.0,0.0,1.0,1.0,phase_2,stop,250.0,250.0,4.0,,,,,,,,,white,triangle
0.0,4.0,4.0,0.0,6.0,6.0,753.3912784419954,1.0,1.0,phase_2,go,300.0,250.0,1.0,,,,,,,,,blue,square
0.0,8.0,4.0,1.0,6.0,0.0,0.0,1.0,1.0,phase_2,stop,300.0,250.0,4.0,,,,,,,,,yellow,circle
0.0,8.0,4.0,1.0,6.0,0.0,0.0,1.0,1.0,phase_2,stop,300.0,300.0,4.0,,,,,,,,,yellow,circle
0.0,6.0,1.0,1.0,6.0,0.0,0.0,1.0,1.0,phase_2,stop,300.0,350.0,4.0,,,,,,,,,gray,cross
0.0,1.0,0.5,0.0,5.0,5.0,757.9831023467705,1.0,1.0,phase_2,go,300.0,400.0,1.0,,,,,,,,,orange,flipped triangle
0.0,6.0,1.0,1.0,5.0,0.0,0.0,1.0,1.0,phase_2,stop,300.0,400.0,4.0,,,,,,,,,gray,cross
0.0,3.0,2.0,0.0,5.0,5.0,633.8339258800261,1.0,1.0,phase_2,go,350.0,400.0,1.0,,,,,,,,,green,hexagon
0.0,2.0,1.0,0.0,5.0,5.0,613.6428758618422,1.0,1.0,phase_2,go,350.0,400.0,1.0,,,,,,,,,magenta,diamond
0.0,1.0,0.5,0.0,5.0,5.0,423.1121958000585,1.0,1.0,phase_2,go,350.0,400.0,1.0,,,,,,,,,orange,flipped triangle
0.0,8.0,4.0,1.0,5.0,0.0,0.0,1.0,1.0,phase_2,stop,350.0,400.0,4.0,,,,,,,,,yellow,circle
0.0,2.0,1.0,0.0,5.0,5.0,615.1582798920572,1.0,1.0,phase_2,go,400.0,400.0,1.0,,,,,,,,,magenta,diamond
0.0,7.0,2.0,1.0,5.0,5.0,346.8530518584884,1.0,1.0,phase_2,stop,400.0,400.0,3.0,,,,,,,,,cyan,I
0.0,2.0,1.0,0.0,5.0,5.0,369.4503082660958,1.0,1.0,phase_2,go,350.0,400.0,1.0,,,,,,,,,magenta,diamond
0.0,5.0,0.5,1.0,6.0,6.0,820.0450572767295,1.0,1.0,phase_2,go,350.0,400.0,1.0,,,,,,,,,white,triangle
0.0,5.0,0.5,1.0,6.0,0.0,0.0,1.0,1.0,phase_2,stop,350.0,400.0,4.0,,,,,,,,,white,triangle
0.0,8.0,4.0,1.0,6.0,0.0,0.0,1.0,1.0,phase_2,stop,350.0,450.0,4.0,,,,,,,,,yellow,circle
0.0,8.0,4.0,1.0,6.0,0.0,0.0,1.0,1.0,phase_2,stop,350.0,500.0,4.0,,,,,,,,,yellow,circle
0.0,2.0,1.0,0.0,5.0,5.0,744.636419985909,1.0,1.0,phase_2,go,350.0,550.0,1.0,,,,,,,,,magenta,diamond
0.0,6.0,1.0,1.0,5.0,0.0,0.0,1.0,1.0,phase_2,stop,350.0,550.0,4.0,,,,,,,,,gray,cross
0.0,6.0,1.0,1.0,5.0,0.0,0.0,1.0,1.0,phase_2,stop,400.0,550.0,4.0,,,,,,,,,gray,cross
0.0,8.0,4.0,1.0,6.0,0.0,0.0,1.0,1.0,phase_2,stop,450.0,550.0,4.0,,,,,,,,,yellow,circle
0.0,4.0,4.0,0.0,6.0,6.0,511.49434730177745,1.0,1.0,phase_2,go,450.0,600.0,1.0,,,,,,,,,blue,square
0.0,4.0,4.0,0.0,6.0,6.0,469.1277079982683,1.0,1.0,phase_2,go,450.0,600.0,1.0,,,,,,,,,blue,square
0.0,1.0,0.5,0.0,5.0,5.0,571.0280842031352,1.0,1.0,phase_2,go,450.0,600.0,1.0,,,,,,,,,orange,flipped triangle
0.0,2.0,1.0,0.0,5.0,5.0,448.1142436270602,1.0,1.0,phase_2,go,450.0,600.0,1.0,,,,,,,,,magenta,diamond
0.0,6.0,1.0,1.0,5.0,0.0,0.0,1.0,1.0,phase_2,stop,450.0,600.0,4.0,,,,,,,,,gray,cross
0.0,5.0,0.5,1.0,6.0,6.0,560.8592840144411,1.0,1.0,phase_2,stop,500.0,600.0,3.0,,,,,,,,,white,triangle
0.0,1.0,0.5,0.0,6.0,6.0,516.8137511354871,1.0,1.0,phase_2,go,500.0,550.0,1.0,,,,,,,,,orange,flipped triangle
0.0,5.0,0.5,1.0,6.0,6.0,423.3973058871925,2.0,1.0,phase_2,stop,500.0,550.0,3.0,,,,,,,,,white,triangle
0.0,1.0,0.5,0.0,5.0,5.0,434.7871698555536,2.0,1.0,phase_2,go,500.0,500.0,1.0,,,,,,,,,orange,flipped triangle
0.0,4.0,4.0,0.0,6.0,6.0,559.8999007488601,2.0,1.0,phase_2,go,500.0,500.0,1.0,,,,,,,,,blue,square
0.0,4.0,4.0,0.0,5.0,5.0,403.0079953372478,2.0,1.0,phase_2,go,500.0,500.0,1.0,,,,,,,,,blue,square
0.0,1.0,0.5,0.0,6.0,6.0,416.596766852308,2.0,1.0,phase_2,go,500.0,500.0,1.0,,,,,,,,,orange,flipped triangle
0.0,8.0,4.0,1.0,5.0,0.0,0.0,2.0,1.0,phase_2,stop,500.0,500.0,4.0,,,,,,,,,yellow,circle
0.0,1.0,0.5,0.0,5.0,5.0,416.1290323245339,2.0,1.0,phase_2,go,550.0,500.0,1.0,,,,,,,,,orange,flipped triangle
0.0,5.0,0.5,1.0,5.0,0.0,0.0,2.0,1.0,phase_2,stop,550.0,500.0,4.0,,,,,,,,,white,triangle
0.0,8.0,4.0,1.0,6.0,6.0,1048.5629918402992,2.0,1.0,phase_2,go,600.0,500.0,1.0,,,,,,,,,yellow,circle
0.0,5.0,0.5,1.0,6.0,0.0,0.0,2.0,1.0,phase_2,stop,600.0,500.0,4.0,,,,,,,,,white,triangle
0.0,3.0,2.0,0.0,6.0,6.0,543.7728507095017,2.0,1.0,phase_2,go,600.0,550.0,1.0,,,,,,,,,green,hexagon
0.0,5.0,0.5,1.0,6.0,0.0,0.0,2.0,1.0,phase_2,stop,600.0,550.0,4.0,,,,,,,,,white,triangle
0.0,1.0,0.5,0.0,6.0,6.0,546.4643347077072,2.0,1.0,phase_2,go,600.0,600.0,1.0,,,,,,,,,orange,flipped triangle
0.0,5.0,0.5,1.0,5.0,5.0,760.0108679034747,2.0,1.0,phase_2,stop,600.0,600.0,3.0,,,,,,,,,white,triangle
0.0,6.0,1.0,1.0,6.0,6.0,760.5704003362916,2.0,1.0,phase_2,go,550.0,600.0,1.0,,,,,,,,,gray,cross
0.0,4.0,4.0,0.0,5.0,5.0,603.6623594700359,2.0,1.0,phase_2,go,550.0,600.0,1.0,,,,,,,,,blue,square
0.0,6.0,1.0,1.0,5.0,0.0,0.0,2.0,1.0,phase_2,stop,550.0,600.0,4.0,,,,,,,,,gray,cross
0.0,7.0,2.0,1.0,5.0,0.0,0.0,2.0,1.0,phase_2,stop,600.0,600.0,4.0,,,,,,,,,cyan,I
0.0,1.0,0.5,0.0,5.0,5.0,820.119671872817,2.0,1.0,phase_2,go,650.0,600.0,1.0,,,,,,,,,orange,flipped triangle
0.0,2.0,1.0,0.0,6.0,6.0,798.216245311778,2.0,1.0,phase_2,go,650.0,600.0,1.0,,,,,,,,,magenta,diamond
0.0,6.0,1.0,1.0,5.0,0.0,0.0,2.0,1.0,phase_2,stop,650.0,600.0,4.0,,,,,,,,,gray,cross
0.0,4.0,4.0,0.0,6.0,6.0,687.4337012995966,2.0,1.0,phase_2,go,700.0,600.0,1.0,,,,,,,,,blue,square
0.0,2.0,1.0,0.0,5.0,5.0,1005.2767763263546,2.0,1.0,phase_2,go,700.0,600.0,1.0,,,,,,,,,magenta,diamond
0.0,6.0,1.0,1.0,5.0,0.0,0.0,2.0,1.0,phase_2,stop,700.0,600.0,4.0,,,,,,,,,gray,cross
0.0,3.0,2.0,0.0,6.0,6.0,611.3130902522244,2.0,1.0,phase_2,go,750.0,600.0,1.0,,,,,,,,,green,hexagon
0.0,8.0,4.0,1.0,5.0,0.0,0.0,2.0,1.0,phase_2,stop,750.0,600.0,4.0,,,,,,,,,yellow,circle
0.0,8.0,4.0,1.0,5.0,5.0,826.5863617416471,2.0,1.0,phase_2,stop,800.0,600.0,3.0,,,,,,,,,yellow,circle
0.0,5.0,0.5,1.0,5.0,5.0,1053.035263030324,2.0,1.0,phase_2,go,750.0,600.0,1.0,,,,,,,,,white,triangle
0.0,4.0,4.0,0.0,5.0,5.0,502.28282884927467,2.0,1.0,phase_2,go,750.0,600.0,1.0,,,,,,,,,blue,square
0.0,7.0,2.0,1.0,6.0,0.0,0.0,2.0,1.0,phase_2,stop,750.0,600.0,4.0,,,,,,,,,cyan,I
0.0,5.0,0.5,1.0,5.0,5.0,942.843183875084,2.0,1.0,phase_2,go,750.0,650.0,1.0,,,,,,,,,white,triangle
0.0,1.0,0.5,0.0,6.0,6.0,573.1099388794973,2.0,1.0,phase_2,go,750.0,650.0,1.0,,,,,,,,,orange,flipped triangle
0.0,1.0,0.5,0.0,6.0,6.0,753.7074864376336,2.0,1.0,phase_2,go,750.0,650.0,1.0,,,,,,,,,orange,flipped triangle
0.0,4.0,4.0,0.0,6.0,6.0,867.6197514287196,2.0,1.0,phase_2,go,750.0,650.0,1.0,,,,,,,,,blue,square
0.0,1.0,0.5,0.0,6.0,6.0,902.7656168909745,2.0,1.0,phase_2,go,750.0,650.0,1.0,,,,,,,,,orange,flipped triangle
0.0,1.0,0.5,0.0,5.0,5.0,1003.3953015226871,2.0,1.0,phase_2,go,750.0,650.0,1.0,,,,,,,,,orange,flipped triangle
0.0,6.0,1.0,1.0,5.0,5.0,467.5507068168372,3.0,1.0,phase_2,stop,750.0,650.0,3.0,,,,,,,,,gray,cross
0.0,3.0,2.0,0.0,6.0,6.0,366.2007675739005,3.0,1.0,phase_2,go,700.0,650.0,1.0,,,,,,,,,green,hexagon
0.0,2.0,1.0,0.0,6.0,6.0,335.4526017210446,3.0,1.0,phase_2,go,700.0,650.0,1.0,,,,,,,,,magenta,diamond
0.0,1.0,0.5,0.0,5.0,5.0,413.4803926572203,3.0,1.0,phase_2,go,700.0,650.0,1.0,,,,,,,,,orange,flipped triangle
0.0,8.0,4.0,1.0,6.0,6.0,392.1165533247404,3.0,1.0,phase_2,stop,700.0,650.0,3.0,,,,,,,,,yellow,circle
0.0,6.0,1.0,1.0,6.0,6.0,695.7838959060609,3.0,1.0,phase_2,go,700.0,600.0,1.0,,,,,,,,,gray,cross
0.0,5.0,0.5,1.0,5.0,5.0,697.2271563136019,3.0,1.0,phase_2,stop,700.0,600.0,3.0,,,,,,,,,white,triangle
0.0,2.0,1.0,0.0,6.0,6.0,405.5339444312267,3.0,1.0,phase_2,go,650.0,600.0,1.0,,,,,,,,,magenta,diamond
0.0,7.0,2.0,1.0,6.0,6.0,439.9317618808709,3.0,1.0,phase_2,stop,650.0,600.0,3.0,,,,,,,,,cyan,I
0.0,4.0,4.0,0.0,5.0,5.0,464.909586997237,3.0,1.0,phase_2,go,650.0,550.0,1.0,,,,,,,,,blue,square
0.0,8.0,4.0,1.0,5.0,0.0,0.0,3.0,1.0,phase_2,stop,650.0,550.0,4.0,,,,,,,,,yellow,circle
0.0,8.0,4.0,1.0,6.0,0.0,0.0,3.0,1.0,phase_2,stop,700.0,550.0,4.0,,,,,,,,,yellow,circle
0.0,6.0,1.0,1.0,6.0,6.0,692.0079031260684,3.0,1.0,phase_2,go,700.0,600.0,1.0,,,,,,,,,gray,cross
0.0,5.0,0.5,1.0,5.0,0.0,0.0,3.0,1.0,phase_2,stop,700.0,600.0,4.0,,,,,,,,,white,triangle
0.0,1.0,0.5,0.0,5.0,5.0,480.4047174402512,3.0,1.0,phase_2,go,750.0,600.0,1.0,,,,,,,,,orange,flipped triangle
0.0,8.0,4.0,1.0,5.0,5.0,906.817000824958,3.0,1.0,phase_2,go,750.0,600.0,1.0,,,,,,,,,yellow,circle
0.0,7.0,2.0,1.0,6.0,0.0,0.0,3.0,1.0,phase_2,stop,750.0,600.0,4.0,,,,,,,,,cyan,I
0.0,4.0,4.0,0.0,6.0,6.0,548.7803394789807,3.0,1.0,phase_2,go,750.0,650.0,1.0,,,,,,,,,blue,square
0.0,5.0,0.5,1.0,6.0,0.0,0.0,3.0,1.0,phase_2,stop,750.0,650.0,4.0,,,,,,,,,white,triangle
0.0,5.0,0.5,1.0,5.0,5.0,810.3155659046024,3.0,1.0,phase_2,go,750.0,700.0,1.0,,,,,,,,,white,triangle
0.0,4.0,4.0,0.0,5.0,5.0,417.5915180239826,3.0,1.0,phase_2,go,750.0,700.0,1.0,,,,,,,,,blue,square
0.0,4.0,4.0,0.0,5.0,5.0,441.1000238033011,3.0,1.0,phase_2,go,750.0,700.0,1.0,,,,,,,,,blue,square
0.0,1.0,0.5,0.0,6.0,6.0,496.3215008028783,3.0,1.0,phase_2,go,750.0,700.0,1.0,,,,,,,,,orange,flipped triangle
0.0,3.0,2.0,0.0,5.0,5.0,363.7444415362552,3.0,1.0,phase_2,go,750.0,700.0,1.0,,,,,,,,,green,hexagon
0.0,6.0,1.0,1.0,5.0,5.0,375.9061772725545,3.0,1.0,phase_2,stop,750.0,700.0,3.0,,,,,,,,,gray,cross
0.0,7.0,2.0,1.0,5.0,5.0,466.2821794627234,3.0,1.0,phase_2,stop,700.0,700.0,3.0,,,,,,,,,cyan,I
0.0,1.0,0.5,0.0,5.0,5.0,546.2182247429155,3.0,1.0,phase_2,go,650.0,700.0,1.0,,,,,,,,,orange,flipped triangle
0.0,7.0,2.0,1.0,5.0,0.0,0.0,3.0,1.0,phase_2,stop,650.0,700.0,4.0,,,,,,,,,cyan,I
0.0,2.0,1.0,0.0,5.0,5.0,593.4399644611403,3.0,1.0,phase_2,go,700.0,700.0,1.0,,,,,,,,,magenta,diamond
0.0,2.0,1.0,0.0,6.0,6.0,447.1342233009636,3.0,1.0,phase_2,go,700.0,700.0,1.0,,,,,,,,,magenta,diamond
0.0,3.0,2.0,0.0,5.0,5.0,437.5557042658329,3.0,1.0,phase_2,go,700.0,700.0,1.0,,,,,,,,,green,hexagon
0.0,1.0,0.5,0.0,6.0,6.0,447.6503638434224,3.0,1.0,phase_2,go,700.0,700.0,1.0,,,,,,,,,orange,flipped triangle
0.0,4.0,4.0,0.0,5.0,5.0,358.3535979269072,3.0,1.0,phase_2,go,700.0,700.0,1.0,,,,,,,,,blue,square
0.0,2.0,1.0,0.0,5.0,5.0,372.0557468477636,3.0,1.0,phase_2,go,700.0,700.0,1.0,,,,,,,,,magenta,diamond
0.0,7.0,2.0,1.0,5.0,5.0,394.7395483264699,3.0,1.0,phase_2,stop,700.0,700.0,3.0,,,,,,,,,cyan,I
0.0,2.0,1.0,0.0,5.0,5.0,530.2274459390901,3.0,1.0,phase_2,go,650.0,700.0,1.0,,,,,,,,,magenta,diamond
0.0,3.0,2.0,0.0,6.0,6.0,424.9939352739602,4.0,1.0,phase_2,go,650.0,700.0,1.0,,,,,,,,,green,hexagon
0.0,2.0,1.0,0.0,6.0,6.0,391.9338246341795,4.0,1.0,phase_2,go,650.0,700.0,1.0,,,,,,,,,magenta,diamond
0.0,8.0,4.0,1.0,5.0,5.0,705.9412724338472,4.0,1.0,phase_2,stop,650.0,700.0,3.0,,,,,,,,,yellow,circle
0.0,7.0,2.0,1.0,5.0,5.0,898.6377153196372,4.0,1.0,phase_2,go,600.0,700.0,1.0,,,,,,,,,cyan,I
0.0,5.0,0.5,1.0,6.0,6.0,854.8355062957853,4.0,1.0,phase_2,stop,600.0,700.0,3.0,,,,,,,,,white,triangle
0.0,5.0,0.5,1.0,5.0,5.0,912.7198133501224,4.0,1.0,phase_2,go,600.0,650.0,1.0,,,,,,,,,white,triangle
0.0,1.0,0.5,0.0,5.0,5.0,462.2700511827133,4.0,1.0,phase_2,go,600.0,650.0,1.0,,,,,,,,,orange,flipped triangle
0.0,5.0,0.5,1.0,6.0,6.0,914.4144443562254,4.0,1.0,phase_2,stop,600.0,650.0,3.0,,,,,,,,,white,triangle
0.0,4.0,4.0,0.0,6.0,6.0,453.0352876754477,4.0,1.0,phase_2,go,600.0,600.0,1.0,,,,,,,,,blue,square
0.0,1.0,0.5,0.0,6.0,6.0,396.7595146968961,4.0,1.0,phase_2,go,600.0,600.0,1.0,,,,,,,,,orange,flipped triangle
0.0,2.0,1.0,0.0,6.0,6.0,364.8763601086102,4.0,1.0,phase_2,go,600.0,600.0,1.0,,,,,,,,,magenta,diamond
0.0,4.0,4.0,0.0,5.0,5.0,433.1819894141517,4.0,1.0,phase_2,go,600.0,600.0,1.0,,,,,,,,,blue,square
0.0,3.0,2.0,0.0,6.0,6.0,467.4969376064837,4.0,1.0,phase_2,go,600.0,600.0,1.0,,,,,,,,,green,hexagon
0.0,4.0,4.0,0.0,5.0,5.0,355.42837070534,4.0,1.0,phase_2,go,600.0,600.0,1.0,,,,,,,,,blue,square
0.0,1.0,0.5,0.0,6.0,6.0,401.197059371043,4.0,1.0,phase_2,go,600.0,600.0,1.0,,,,,,,,,orange,flipped triangle
0.0,3.0,2.0,0.0,5.0,5.0,368.8724891399033,4.0,1.0,phase_2,go,600.0,600.0,1.0,,,,,,,,,green,hexagon
0.0,7.0,2.0,1.0,6.0,0.0,0.0,4.0,1.0,phase_2,stop,600.0,600.0,4.0,,,,,,,,,cyan,I
0.0,5.0,0.5,1.0,5.0,5.0,1102.9158316669054,4.0,1.0,phase_2,go,600.0,650.0,1.0,,,,,,,,,white,triangle
0.0,6.0,1.0,1.0,6.0,6.0,1069.773074821569,4.0,1.0,phase_2,go,600.0,650.0,1.0,,,,,,,,,gray,cross
0.0,7.0,2.0,1.0,6.0,6.0,947.1093531465158,4.0,1.0,phase_2,go,600.0,650.0,1.0,,,,,,,,,cyan,I
0.0,6.0,1.0,1.0,6.0,0.0,0.0,4.0,1.0,phase_2,stop,600.0,650.0,4.0,,,,,,,,,gray,cross
0.0,6.0,1.0,1.0,5.0,0.0,0.0,4.0,1.0,phase_2,stop,600.0,700.0,4.0,,,,,,,,,gray,cross
0.0,8.0,4.0,1.0,5.0,0.0,0.0,4.0,1.0,phase_2,stop,650.0,700.0,4.0,,,,,,,,,yellow,circle
0.0,6.0,1.0,1.0,6.0,6.0,883.2322878879495,4.0,1.0,phase_2,go,700.0,700.0,1.0,,,,,,,,,gray,cross
0.0,8.0,4.0,1.0,5.0,5.0,748.8778934348375,4.0,1.0,phase_2,stop,700.0,700.0,3.0,,,,,,,,,yellow,circle
0.0,7.0,2.0,1.0,5.0,0.0,0.0,4.0,1.0,phase_2,stop,650.0,700.0,4.0,,,,,,,,,cyan,I
0.0,3.0,2.0,0.0,5.0,5.0,579.6269976999611,4.0,1.0,phase_2,go,700.0,700.0,1.0,,,,,,,,,green,hexagon
0.0,4.0,4.0,0.0,6.0,6.0,390.2601500158198,4.0,1.0,phase_2,go,700.0,700.0,1.0,,,,,,,,,blue,square
0.0,2.0,1.0,0.0,6.0,6.0,380.8532867114991,4.0,1.0,phase_2,go,700.0,700.0,1.0,,,,,,,,,magenta,diamond
0.0,5.0,0.5,1.0,5.0,5.0,842.5572153064422,4.0,1.0,phase_2,stop,700.0,700.0,3.0,,,,,,,,,white,triangle
0.0,1.0,0.5,0.0,6.0,6.0,393.9676293521188,4.0,1.0,phase_2,go,650.0,700.0,1.0,,,,,,,,,orange,flipped triangle
0.0,4.0,4.0,0.0,6.0,6.0,381.8600427475758,4.0,1.0,phase_2,go,650.0,700.0,1.0,,,,,,,,,blue,square
0.0,4.0,4.0,0.0,6.0,6.0,360.1849188562482,4.0,1.0,phase_2,go,650.0,700.0,1.0,,,,,,,,,blue,square
0.0,1.0,0.5,0.0,5.0,5.0,497.2726997220889,4.0,1.0,phase_2,go,650.0,700.0,1.0,,,,,,,,,orange,flipped triangle
0.0,5.0,0.5,1.0,6.0,6.0,812.0405632653274,4.0,1.0,phase_2,stop,650.0,700.0,3.0,,,,,,,,,white,triangle
0.0,6.0,1.0,1.0,6.0,0.0,0.0,4.0,1.0,phase_2,stop,650.0,650.0,4.0,,,,,,,,,gray,cross
0.0,8.0,4.0,1.0,6.0,0.0,0.0,5.0,1.0,phase_2,stop,650.0,700.0,4.0,,,,,,,,,yellow,circle
0.0,5.0,0.5,1.0,5.0,5.0,994.7746654506772,5.0,1.0,phase_2,go,650.0,750.0,1.0,,,,,,,,,white,triangle
0.0,3.0,2.0,0.0,6.0,6.0,421.4313309057615,5.0,1.0,phase_2,go,650.0,750.0,1.0,,,,,,,,,green,hexagon
0.0,1.0,0.5,0.0,6.0,6.0,401.5173583757132,5.0,1.0,phase_2,go,650.0,750.0,1.0,,,,,,,,,orange,flipped triangle
0.0,3.0,2.0,0.0,5.0,5.0,367.596696014516,5.0,1.0,phase_2,go,650.0,750.0,1.0,,,,,,,,,green,hexagon
0.0,7.0,2.0,1.0,5.0,5.0,887.0827792561613,5.0,1.0,phase_2,go,650.0,750.0,1.0,,,,,,,,,cyan,I
0.0,2.0,1.0,0.0,6.0,6.0,402.1118439268321,5.0,1.0,phase_2,go,650.0,750.0,1.0,,,,,,,,,magenta,diamond
0.0,7.0,2.0,1.0,5.0,0.0,0.0,5.0,1.0,phase_2,stop,650.0,750.0,4.0,,,,,,,,,cyan,I
0.0,7.0,2.0,1.0,6.0,0.0,0.0,5.0,1.0,phase_2,stop,700.0,750.0,4.0,,,,,,,,,cyan,I
0.0,1.0,0.5,0.0,5.0,5.0,495.1670451555401,5.0,1.0,phase_2,go,700.0,800.0,1.0,,,,,,,,,orange,flipped triangle
0.0,3.0,2.0,0.0,6.0,6.0,428.1931888544932,5.0,1.0,phase_2,go,700.0,800.0,1.0,,,,,,,,,green,hexagon
0.0,7.0,2.0,1.0,5.0,0.0,0.0,5.0,1.0,phase_2,stop,700.0,800.0,4.0,,,,,,,,,cyan,I
0.0,7.0,2.0,1.0,6.0,6.0,937.9657028475776,5.0,1.0,phase_2,stop,750.0,800.0,3.0,,,,,,,,,cyan,I
0.0,1.0,0.5,0.0,5.0,5.0,522.1061774645932,5.0,1.0,phase_2,go,750.0,750.0,1.0,,,,,,,,,orange,flipped triangle
0.0,8.0,4.0,1.0,6.0,6.0,1006.9011796731502,5.0,1.0,phase_2,go,750.0,750.0,1.0,,,,,,,,,yellow,circle
0.0,3.0,2.0,0.0,6.0,6.0,432.6958177261986,5.0,1.0,phase_2,go,750.0,750.0,1.0,,,,,,,,,green,hexagon
0.0,7.0,2.0,1.0,5.0,5.0,399.3736888514831,5.0,1.0,phase_2,stop,750.0,750.0,3.0,,,,,,,,,cyan,I
0.0,5.0,0.5,1.0,5.0,0.0,0.0,5.0,1.0,phase_2,stop,700.0,750.0,4.0,,,,,,,,,white,triangle
0.0,1.0,0.5,0.0,5.0,5.0,525.4845968447626,5.0,1.0,phase_2,go,750.0,750.0,1.0,,,,,,,,,orange,flipped triangle
0.0,7.0,2.0,1.0,5.0,0.0,0.0,5.0,1.0,phase_2,stop,750.0,750.0,4.0,,,,,,,,,cyan,I
0.0,1.0,0.5,0.0,6.0,6.0,303.3181144855916,5.0,1.0,phase_2,go,800.0,750.0,1.0,,,,,,,,,orange,flipped triangle
0.0,1.0,0.5,0.0,6.0,6.0,335.980586358346,5.0,1.0,phase_2,go,800.0,750.0,1.0,,,,,,,,,orange,flipped triangle
0.0,2.0,1.0,0.0,6.0,6.0,338.4432304301299,5.0,1.0,phase_2,go,800.0,750.0,1.0,,,,,,,,,magenta,diamond
0.0,7.0,2.0,1.0,6.0,6.0,338.1651903036982,5.0,1.0,phase_2,stop,800.0,750.0,3.0,,,,,,,,,cyan,I
0.0,4.0,4.0,0.0,5.0,5.0,361.2873496604152,5.0,1.0,phase_2,go,800.0,700.0,1.0,,,,,,,,,blue,square
0.0,1.0,0.5,0.0,5.0,5.0,474.6571918367408,5.0,1.0,phase_2,go,800.0,700.0,1.0,,,,,,,,,orange,flipped triangle
0.0,3.0,2.0,0.0,5.0,5.0,398.0839928262867,5.0,1.0,phase_2,go,800.0,700.0,1.0,,,,,,,,,green,hexagon
0.0,5.0,0.5,1.0,6.0,0.0,0.0,5.0,1.0,phase_2,stop,800.0,700.0,4.0,,,,,,,,,white,triangle
0.0,3.0,2.0,0.0,5.0,5.0,455.4819565382786,5.0,1.0,phase_2,go,800.0,750.0,1.0,,,,,,,,,green,hexagon
0.0,8.0,4.0,1.0,6.0,6.0,828.1188948894851,5.0,1.0,phase_2,stop,800.0,750.0,3.0,,,,,,,,,yellow,circle
0.0,4.0,4.0,0.0,6.0,6.0,467.0643542776815,5.0,1.0,phase_2,go,800.0,700.0,1.0,,,,,,,,,blue,square
0.0,6.0,1.0,1.0,5.0,0.0,0.0,5.0,1.0,phase_2,stop,800.0,700.0,4.0,,,,,,,,,gray,cross
0.0,3.0,2.0,0.0,6.0,6.0,402.5927499169484,5.0,1.0,phase_2,go,850.0,700.0,1.0,,,,,,,,,green,hexagon
0.0,2.0,1.0,0.0,6.0,6.0,336.1892018583603,5.0,1.0,phase_2,go,850.0,700.0,1.0,,,,,,,,,magenta,diamond
0.0,3.0,2.0,0.0,5.0,5.0,404.1063610929996,5.0,1.0,phase_2,go,850.0,700.0,1.0,,,,,,,,,green,hexagon
0.0,5.0,0.5,1.0,5.0,5.0,899.2428912897594,5.0,1.0,phase_2,stop,850.0,700.0,3.0,,,,,,,,,white,triangle
0.0,5.0,0.5,1.0,5.0,5.0,1027.8268323163502,6.0,1.0,phase_2,go,800.0,700.0,1.0,,,,,,,,,white,triangle
0.0,3.0,2.0,0.0,6.0,6.0,420.0790693284943,6.0,1.0,phase_2,go,800.0,700.0,1.0,,,,,,,,,green,hexagon
0.0,4.0,4.0,0.0,5.0,5.0,377.1350688766688,6.0,1.0,phase_2,go,800.0,700.0,1.0,,,,,,,,,blue,square
0.0,7.0,2.0,1.0,6.0,6.0,893.7331450288184,6.0,1.0,phase_2,stop,800.0,700.0,3.0,,,,,,,,,cyan,I
0.0,3.0,2.0,0.0,5.0,5.0,332.862198993098,6.0,1.0,phase_2,go,800.0,650.0,1.0,,,,,,,,,green,hexagon
0.0,5.0,0.5,1.0,5.0,0.0,0.0,6.0,1.0,phase_2,stop,800.0,650.0,4.0,,,,,,,,,white,triangle
0.0,3.0,2.0,0.0,5.0,5.0,457.3183663305826,6.0,1.0,phase_2,go,850.0,650.0,1.0,,,,,,,,,green,hexagon
0.0,7.0,2.0,1.0,5.0,5.0,1326.531060913112,6.0,1.0,phase_2,go,850.0,650.0,1.0,,,,,,,,,cyan,I
0.0,5.0,0.5,1.0,6.0,0.0,0.0,6.0,1.0,phase_2,stop,850.0,650.0,4.0,,,,,,,,,white,triangle
0.0,4.0,4.0,0.0,6.0,6.0,460.2847028872929,6.0,1.0,phase_2,go,850.0,700.0,1.0,,,,,,,,,blue,square
0.0,8.0,4.0,1.0,5.0,0.0,0.0,6.0,1.0,phase_2,stop,850.0,700.0,4.0,,,,,,,,,yellow,circle
0.0,2.0,1.0,0.0,5.0,5.0,452.2075055865571,6.0,1.0,phase_2,go,900.0,700.0,1.0,,,,,,,,,magenta,diamond
0.0,8.0,4.0,1.0,5.0,0.0,0.0,6.0,1.0,phase_2,stop,900.0,700.0,4.0,,,,,,,,,yellow,circle
0.0,4.0,4.0,0.0,5.0,5.0,407.6119314413517,6.0,1.0,phase_2,go,950.0,700.0,1.0,,,,,,,,,blue,square
0.0,3.0,2.0,0.0,6.0,6.0,340.1586007676087,6.0,1.0,phase_2,go,950.0,700.0,1.0,,,,,,,,,green,hexagon
0.0,5.0,0.5,1.0,6.0,6.0,1162.5489658326842,6.0,1.0,phase_2,go,950.0,700.0,1.0,,,,,,,,,white,triangle
0.0,1.0,0.5,0.0,6.0,6.0,489.6457304130308,6.0,1.0,phase_2,go,950.0,700.0,1.0,,,,,,,,,orange,flipped triangle
0.0,5.0,0.5,1.0,6.0,0.0,0.0,6.0,1.0,phase_2,stop,950.0,700.0,4.0,,,,,,,,,white,triangle
0.0,2.0,1.0,0.0,6.0,6.0,491.641583328601,6.0,1.0,phase_2,go,950.0,750.0,1.0,,,,,,,,,magenta,diamond
0.0,4.0,4.0,0.0,5.0,5.0,356.604769884143,6.0,1.0,phase_2,go,950.0,750.0,1.0,,,,,,,,,blue,square
0.0,1.0,0.5,0.0,6.0,6.0,425.95171614084387,6.0,1.0,phase_2,go,950.0,750.0,1.0,,,,,,,,,orange,flipped triangle
0.0,4.0,4.0,0.0,6.0,6.0,370.433043804951,6.0,1.0,phase_2,go,950.0,750.0,1.0,,,,,,,,,blue,square
0.0,5.0,0.5,1.0,6.0,0.0,0.0,6.0,1.0,phase_2,stop,950.0,750.0,4.0,,,,,,,,,white,triangle
0.0,2.0,1.0,0.0,6.0,6.0,450.3477033576928,6.0,1.0,phase_2,go,950.0,800.0,1.0,,,,,,,,,magenta,diamond
0.0,6.0,1.0,1.0,6.0,0.0,0.0,6.0,1.0,phase_2,stop,950.0,800.0,4.0,,,,,,,,,gray,cross
0.0,8.0,4.0,1.0,5.0,5.0,1227.369419299066,6.0,1.0,phase_2,go,950.0,850.0,1.0,,,,,,,,,yellow,circle
0.0,6.0,1.0,1.0,5.0,5.0,1092.5956583232621,6.0,1.0,phase_2,stop,950.0,850.0,3.0,,,,,,,,,gray,cross
0.0,3.0,2.0,0.0,6.0,6.0,418.3546088752337,6.0,1.0,phase_2,go,900.0,850.0,1.0,,,,,,,,,green,hexagon
0.0,1.0,0.5,0.0,6.0,6.0,443.564745655749,6.0,1.0,phase_2,go,900.0,850.0,1.0,,,,,,,,,orange,flipped triangle
0.0,4.0,4.0,0.0,6.0,6.0,343.0103816790506,6.0,1.0,phase_2,go,900.0,850.0,1.0,,,,,,,,,blue,square
0.0,2.0,1.0,0.0,6.0,6.0,353.5941834561527,6.0,1.0,phase_2,go,900.0,850.0,1.0,,,,,,,,,magenta,diamond
0.0,6.0,1.0,1.0,6.0,6.0,1018.7611848814413,6.0,1.0,phase_2,go,900.0,850.0,1.0,,,,,,,,,gray,cross
0.0,3.0,2.0,0.0,5.0,5.0,422.8675882914103,6.0,1.0,phase_2,go,900.0,850.0,1.0,,,,,,,,,green,hexagon
0.0,2.0,1.0,0.0,6.0,6.0,412.2061859234236,6.0,1.0,phase_2,go,900.0,850.0,1.0,,,,,,,,,magenta,diamond
0.0,8.0,4.0,1.0,6.0,0.0,0.0,6.0,1.0,phase_2,stop,900.0,850.0,4.0,,,,,,,,,yellow,circle
0.0,5.0,0.5,1.0,6.0,0.0,0.0,6.0,1.0,phase_2,stop,900.0,900.0,4.0,,,,,,,,,white,triangle
0.0,8.0,4.0,1.0,5.0,5.0,909.5764050143772,7.0,1.0,phase_2,stop,900.0,950.0,3.0,,,,,,,,,yellow,circle
0.0,6.0,1.0,1.0,5.0,5.0,1129.4838038738817,7.0,1.0,phase_2,go,850.0,950.0,1.0,,,,,,,,,gray,cross
0.0,7.0,2.0,1.0,6.0,0.0,0.0,7.0,1.0,phase_2,stop,850.0,950.0,4.0,,,,,,,,,cyan,I
0.0,6.0,1.0,1.0,5.0,5.0,713.1703184568323,7.0,1.0,phase_2,go,850.0,1000.0,1.0,,,,,,,,,gray,cross
0.0,6.0,1.0,1.0,6.0,0.0,0.0,7.0,1.0,phase_2,stop,850.0,1000.0,4.0,,,,,,,,,gray,cross
0.0,6.0,1.0,1.0,6.0,0.0,0.0,7.0,1.0,phase_2,stop,850.0,1050.0,4.0,,,,,,,,,gray,cross
0.0,3.0,2.0,0.0,5.0,5.0,468.7562328763306,7.0,1.0,phase_2,go,850.0,1100.0,1.0,,,,,,,,,green,hexagon
0.0,8.0,4.0,1.0,5.0,5.0,952.7957801474258,7.0,1.0,phase_2,stop,850.0,1100.0,3.0,,,,,,,,,yellow,circle
0.0,7.0,2.0,1.0,6.0,6.0,1134.4631360843778,7.0,1.0,phase_2,go,800.0,1100.0,1.0,,,,,,,,,cyan,I
0.0,5.0,0.5,1.0,5.0,0.0,0.0,7.0,1.0,phase_2,stop,800.0,1100.0,4.0,,,,,,,,,white,triangle
0.0,3.0,2.0,0.0,6.0,6.0,426.3531181495636,7.0,1.0,phase_2,go,850.0,1100.0,1.0,,,,,,,,,green,hexagon
0.0,2.0,1.0,0.0,5.0,5.0,440.4241683077998,7.0,1.0,phase_2,go,850.0,1100.0,1.0,,,,,,,,,magenta,diamond
0.0,2.0,1.0,0.0,6.0,6.0,385.2197658852674,7.0,1.0,phase_2,go,850.0,1100.0,1.0,,,,,,,,,magenta,diamond
0.0,5.0,0.5,1.0,6.0,6.0,373.6643719021231,7.0,1.0,phase_2,stop,850.0,1100.0,3.0,,,,,,,,,white,triangle
0.0,8.0,4.0,1.0,6.0,6.0,330.4548262967728,7.0,1.0,phase_2,stop,850.0,1050.0,3.0,,,,,,,,,yellow,circle
0.0,2.0,1.0,0.0,5.0,5.0,397.723033442162,7.0,1.0,phase_2,go,850.0,1000.0,1.0,,,,,,,,,magenta,diamond
0.0,8.0,4.0,1.0,6.0,6.0,984.551080793608,7.0,1.0,phase_2,go,850.0,1000.0,1.0,,,,,,,,,yellow,circle
0.0,7.0,2.0,1.0,5.0,5.0,929.0507498080842,7.0,1.0,phase_2,stop,850.0,1000.0,3.0,,,,,,,,,cyan,I
0.0,7.0,2.0,1.0,5.0,0.0,0.0,7.0,1.0,phase_2,stop,800.0,1000.0,4.0,,,,,,,,,cyan,I
0.0,7.0,2.0,1.0,6.0,6.0,1131.7105190246366,7.0,1.0,phase_2,stop,850.0,1000.0,3.0,,,,,,,,,cyan,I
0.0,3.0,2.0,0.0,6.0,6.0,503.27499146806076,7.0,1.0,phase_2,go,850.0,950.0,1.0,,,,,,,,,green,hexagon
0.0,3.0,2.0,0.0,6.0,6.0,414.5133534329943,7.0,1.0,phase_2,go,850.0,950.0,1.0,,,,,,,,,green,hexagon
0.0,1.0,0.5,0.0,5.0,5.0,448.4343153308145,7.0,1.0,phase_2,go,850.0,950.0,1.0,,,,,,,,,orange,flipped triangle
0.0,8.0,4.0,1.0,5.0,5.0,358.6845257086679,7.0,1.0,phase_2,stop,850.0,950.0,3.0,,,,,,,,,yellow,circle
0.0,6.0,1.0,1.0,5.0,0.0,0.0,7.0,1.0,phase_2,stop,800.0,950.0,4.0,,,,,,,,,gray,cross
0.0,2.0,1.0,0.0,5.0,5.0,496.0990045801736,7.0,1.0,phase_2,go,850.0,950.0,1.0,,,,,,,,,magenta,diamond
0.0,6.0,1.0,1.0,6.0,0.0,0.0,7.0,1.0,phase_2,stop,850.0,950.0,4.0,,,,,,,,,gray,cross
0.0,8.0,4.0,1.0,6.0,0.0,0.0,7.0,1.0,phase_2,stop,850.0,1000.0,4.0,,,,,,,,,yellow,circle
0.0,3.0,2.0,0.0,5.0,5.0,408.4570197155699,7.0,1.0,phase_2,go,850.0,1050.0,1.0,,,,,,,,,green,hexagon
0.0,7.0,2.0,1.0,6.0,6.0,1128.6194792483002,7.0,1.0,phase_2,go,850.0,1050.0,1.0,,,,,,,,,cyan,I
0.0,3.0,2.0,0.0,6.0,6.0,432.63495614519337,7.0,1.0,phase_2,go,850.0,1050.0,1.0,,,,,,,,,green,hexagon
0.0,7.0,2.0,1.0,5.0,5.0,815.5360675300471,7.0,1.0,phase_2,go,850.0,1050.0,1.0,,,,,,,,,cyan,I
0.0,2.0,1.0,0.0,5.0,5.0,400.5906815873459,7.0,1.0,phase_2,go,850.0,1050.0,1.0,,,,,,,,,magenta,diamond
0.0,4.0,4.0,0.0,5.0,5.0,355.799125158228,7.0,1.0,phase_2,go,850.0,1050.0,1.0,,,,,,,,,blue,square
0.0,3.0,2.0,0.0,5.0,5.0,346.0990741150453,7.0,1.0,phase_2,go,850.0,1050.0,1.0,,,,,,,,,green,hexagon
0.0,7.0,2.0,1.0,6.0,6.0,1065.9749133046716,7.0,1.0,phase_2,stop,850.0,1050.0,3.0,,,,,,,,,cyan,I
0.0,2.0,1.0,0.0,5.0,5.0,375.0217698398046,8.0,1.0,phase_2,go,850.0,1000.0,1.0,,,,,,,,,magenta,diamond
0.0,7.0,2.0,1.0,6.0,6.0,959.3544538365676,8.0,1.0,phase_2,go,850.0,1000.0,1.0,,,,,,,,,cyan,I
0.0,1.0,0.5,0.0,6.0,6.0,398.8995646359399,8.0,1.0,phase_2,go,850.0,1000.0,1.0,,,,,,,,,orange,flipped triangle
0.0,3.0,2.0,0.0,5.0,5.0,331.3175688381307,8.0,1.0,phase_2,go,850.0,1000.0,1.0,,,,,,,,,green,hexagon
0.0,4.0,4.0,0.0,5.0,5.0,354.7212068806402,8.0,1.0,phase_2,go,850.0,1000.0,1.0,,,,,,,,,blue,square
0.0,4.0,4.0,0.0,5.0,5.0,356.2753652222454,8.0,1.0,phase_2,go,850.0,1000.0,1.0,,,,,,,,,blue,square
0.0,8.0,4.0,1.0,6.0,6.0,715.7275511417538,8.0,1.0,phase_2,go,850.0,1000.0,1.0,,,,,,,,,yellow,circle
0.0,5.0,0.5,1.0,5.0,0.0,0.0,8.0,1.0,phase_2,stop,850.0,1000.0,4.0,,,,,,,,,white,triangle
0.0,2.0,1.0,0.0,5.0,5.0,402.2146628703922,8.0,1.0,phase_2,go,900.0,1000.0,1.0,,,,,,,,,magenta,diamond
0.0,6.0,1.0,1.0,5.0,5.0,393.4985205996781,8.0,1.0,phase_2,stop,900.0,1000.0,3.0,,,,,,,,,gray,cross
0.0,2.0,1.0,0.0,6.0,6.0,494.2900603637099,8.0,1.0,phase_2,go,850.0,1000.0,1.0,,,,,,,,,magenta,diamond
0.0,4.0,4.0,0.0,6.0,6.0,348.7096214084886,8.0,1.0,phase_2,go,850.0,1000.0,1.0,,,,,,,,,blue,square
0.0,6.0,1.0,1.0,6.0,6.0,756.3653167453595,8.0,1.0,phase_2,stop,850.0,1000.0,3.0,,,,,,,,,gray,cross
0.0,8.0,4.0,1.0,6.0,6.0,1261.8471542955376,8.0,1.0,phase_2,go,850.0,950.0,1.0,,,,,,,,,yellow,circle
0.0,6.0,1.0,1.0,5.0,0.0,0.0,8.0,1.0,phase_2,stop,850.0,950.0,4.0,,,,,,,,,gray,cross
0.0,3.0,2.0,0.0,6.0,6.0,374.5693355449475,8.0,1.0,phase_2,go,900.0,950.0,1.0,,,,,,,,,green,hexagon
0.0,8.0,4.0,1.0,6.0,6.0,1062.2909151716158,8.0,1.0,phase_2,go,900.0,950.0,1.0,,,,,,,,,yellow,circle
0.0,7.0,2.0,1.0,5.0,5.0,522.3239792976528,8.0,1.0,phase_2,stop,900.0,950.0,3.0,,,,,,,,,cyan,I
0.0,7.0,2.0,1.0,6.0,6.0,941.3534397026524,8.0,1.0,phase_2,stop,850.0,950.0,3.0,,,,,,,,,cyan,I
0.0,8.0,4.0,1.0,5.0,0.0,0.0,8.0,1.0,phase_2,stop,850.0,900.0,4.0,,,,,,,,,yellow,circle
0.0,2.0,1.0,0.0,6.0,6.0,491.6508552269079,8.0,1.0,phase_2,go,900.0,900.0,1.0,,,,,,,,,magenta,diamond
0.0,4.0,4.0,0.0,6.0,6.0,391.1658843280747,8.0,1.0,phase_2,go,900.0,900.0,1.0,,,,,,,,,blue,square
0.0,2.0,1.0,0.0,5.0,5.0,393.4181982767768,8.0,1.0,phase_2,go,900.0,900.0,1.0,,,,,,,,,magenta,diamond
0.0,7.0,2.0,1.0,6.0,0.0,0.0,8.0,1.0,phase_2,stop,900.0,900.0,4.0,,,,,,,,,cyan,I
0.0,8.0,4.0,1.0,5.0,0.0,0.0,8.0,1.0,phase_2,stop,900.0,950.0,4.0,,,,,,,,,yellow,circle
0.0,3.0,2.0,0.0,6.0,6.0,529.2413182905875,8.0,1.0,phase_2,go,950.0,950.0,1.0,,,,,,,,,green,hexagon
0.0,4.0,4.0,0.0,5.0,5.0,372.9775171959772,8.0,1.0,phase_2,go,950.0,950.0,1.0,,,,,,,,,blue,square
0.0,7.0,2.0,1.0,5.0,5.0,362.9488384467549,8.0,1.0,phase_2,stop,950.0,950.0,3.0,,,,,,,,,cyan,I
0.0,6.0,1.0,1.0,6.0,0.0,0.0,8.0,1.0,phase_2,stop,900.0,950.0,4.0,,,,,,,,,gray,cross
0.0,3.0,2.0,0.0,5.0,5.0,488.8075708877295,8.0,1.0,phase_2,go,900.0,1000.0,1.0,,,,,,,,,green,hexagon
0.0,4.0,4.0,0.0,5.0,5.0,386.449257726781,8.0,1.0,phase_2,go,900.0,1000.0,1.0,,,,,,,,,blue,square
0.0,2.0,1.0,0.0,5.0,5.0,344.2423311062157,8.0,1.0,phase_2,go,900.0,1000.0,1.0,,,,,,,,,magenta,diamond
0.0,4.0,4.0,0.0,6.0,6.0,421.974079683423,8.0,1.0,phase_2,go,900.0,1000.0,1.0,,,,,,,,,blue,square
0.0,7.0,2.0,1.0,6.0,6.0,1199.574571393896,8.0,1.0,phase_2,go,900.0,1000.0,1.0,,,,,,,,,cyan,I
0.0,6.0,1.0,1.0,5.0,0.0,0.0,8.0,1.0,phase_2,stop,900.0,1000.0,4.0,,,,,,,,,gray,cross
0.0,6.0,1.0,1.0,6.0,0.0,0.0,8.0,1.0,phase_2,stop,950.0,1000.0,4.0,,,,,,,,,gray,cross
0.0,5.0,0.5,1.0,7.0,3.0,4300.3617115318775,1.0,1.0,phase_3,,,,,196.0,4.0,49.0,294.0,196.0,98.0,245.0,147.0,white,triangle
0.0,1.0,0.5,0.0,7.0,4.0,4794.750537606888,1.0,1.0,phase_3,,,,,147.0,3.0,245.0,98.0,294.0,147.0,196.0,49.0,orange,flipped triangle
0.0,4.0,4.0,0.0,7.0,5.0,2911.47631284548,1.0,1.0,phase_3,,,,,220.0,5.0,44.0,88.0,264.0,176.0,220.0,132.0,blue,square
0.0,4.0,4.0,0.0,7.0,1.0,2192.320200207177,1.0,1.0,phase_3,,,,,196.0,4.0,196.0,49.0,147.0,294.0,98.0,245.0,blue,square
0.0,8.0,4.0,1.0,7.0,1.0,3172.6443138322797,1.0,1.0,phase_3,,,,,68.0,2.0,68.0,102.0,204.0,170.0,34.0,136.0,yellow,circle
0.0,4.0,4.0,0.0,7.0,3.0,942.0733301667495,1.0,2.0,phase_3,,,,,264.0,6.0,220.0,176.0,264.0,44.0,132.0,88.0,blue,square
0.0,2.0,1.0,0.0,7.0,2.0,2169.407075154595,1.0,1.0,phase_3,,,,,98.0,2.0,245.0,98.0,147.0,49.0,196.0,294.0,magenta,diamond
0.0,2.0,1.0,0.0,7.0,5.0,1314.1681453562342,1.0,1.0,phase_3,,,,,98.0,2.0,196.0,294.0,49.0,147.0,98.0,245.0,magenta,diamond
0.0,5.0,0.5,1.0,7.0,3.0,1810.758508450817,1.0,1.0,phase_3,,,,,108.0,2.0,270.0,216.0,108.0,54.0,324.0,162.0,white,triangle
0.0,2.0,1.0,0.0,7.0,1.0,2092.535507981665,1.0,1.0,phase_3,,,,,39.0,1.0,39.0,195.0,78.0,117.0,156.0,234.0,magenta,diamond
0.0,5.0,0.5,1.0,7.0,6.0,1520.7823035889303,1.0,1.0,phase_3,,,,,78.0,2.0,156.0,195.0,117.0,39.0,234.0,78.0,white,triangle
0.0,1.0,0.5,0.0,7.0,3.0,2039.5844022277743,1.0,1.0,phase_3,,,,,88.0,2.0,176.0,44.0,88.0,132.0,264.0,220.0,orange,flipped triangle
0.0,4.0,4.0,0.0,7.0,4.0,2016.982102068141,1.0,1.0,phase_3,,,,,170.0,5.0,204.0,34.0,136.0,170.0,68.0,102.0,blue,square
0.0,6.0,1.0,1.0,7.0,2.0,1973.0086122290231,1.0,1.0,phase_3,,,,,68.0,2.0,34.0,68.0,136.0,204.0,170.0,102.0,gray,cross
0.0,3.0,2.0,0.0,7.0,3.0,2595.0778127880767,1.0,1.0,phase_3,,,,,108.0,2.0,270.0,54.0,108.0,162.0,216.0,324.0,green,hexagon
0.0,5.0,0.5,1.0,7.0,4.0,1178.2662047771737,1.0,1.0,phase_3,,,,,39.0,1.0,78.0,195.0,156.0,39.0,117.0,234.0,white,triangle
0.0,5.0,0.5,1.0,7.0,5.0,1167.8158593713306,1.0,1.0,phase_3,,,,,49.0,1.0,98.0,147.0,294.0,245.0,49.0,196.0,white,triangle
0.0,7.0,2.0,1.0,7.0,3.0,2652.9509221436456,1.0,1.0,phase_3,,,,,147.0,3.0,196.0,245.0,147.0,98.0,294.0,49.0,cyan,I
0.0,4.0,4.0,0.0,7.0,4.0,1462.1124916011468,1.0,1.0,phase_3,,,,,204.0,6.0,34.0,68.0,170.0,204.0,136.0,102.0,blue,square
0.0,8.0,4.0,1.0,7.0,3.0,1473.5645542968996,1.0,1.0,phase_3,,,,,245.0,5.0,196.0,294.0,245.0,49.0,147.0,98.0,yellow,circle
0.0,1.0,0.5,0.0,7.0,1.0,1571.3872764608825,2.0,1.0,phase_3,,,,,170.0,5.0,170.0,102.0,136.0,34.0,204.0,68.0,orange,flipped triangle
0.0,2.0,1.0,0.0,7.0,5.0,1213.151917734649,2.0,1.0,phase_3,,,,,34.0,1.0,170.0,204.0,102.0,68.0,34.0,136.0,magenta,diamond
0.0,6.0,1.0,1.0,7.0,5.0,1089.3308353843167,2.0,1.0,phase_3,,,,,39.0,1.0,117.0,156.0,195.0,78.0,39.0,234.0,gray,cross
0.0,5.0,0.5,1.0,7.0,3.0,1069.1829338902608,2.0,1.0,phase_3,,,,,68.0,2.0,102.0,170.0,68.0,136.0,34.0,204.0,white,triangle
0.0,2.0,1.0,0.0,7.0,5.0,1349.7890164726414,2.0,1.0,phase_3,,,,,108.0,2.0,54.0,216.0,162.0,270.0,108.0,324.0,magenta,diamond
0.0,3.0,2.0,0.0,7.0,4.0,1148.8308158586733,2.0,1.0,phase_3,,,,,49.0,1.0,98.0,196.0,147.0,49.0,294.0,245.0,green,hexagon
0.0,3.0,2.0,0.0,7.0,6.0,902.5110367801972,2.0,1.0,phase_3,,,,,54.0,1.0,324.0,162.0,270.0,216.0,108.0,54.0,green,hexagon
0.0,7.0,2.0,1.0,7.0,2.0,803.322892752476,2.0,1.0,phase_3,,,,,68.0,2.0,136.0,68.0,34.0,170.0,102.0,204.0,cyan,I
0.0,4.0,4.0,0.0,7.0,6.0,1052.303412288893,2.0,1.0,phase_3,,,,,234.0,6.0,78.0,195.0,117.0,156.0,39.0,234.0,blue,square
0.0,7.0,2.0,1.0,7.0,5.0,873.128148377873,2.0,1.0,phase_3,,,,,54.0,1.0,108.0,324.0,216.0,270.0,54.0,162.0,cyan,I
0.0,6.0,1.0,1.0,7.0,6.0,872.8555472916923,2.0,1.0,phase_3,,,,,34.0,1.0,136.0,170.0,204.0,68.0,102.0,34.0,gray,cross
0.0,4.0,4.0,0.0,7.0,1.0,1393.3360012015328,2.0,1.0,phase_3,,,,,270.0,5.0,270.0,162.0,324.0,54.0,108.0,216.0,blue,square
0.0,7.0,2.0,1.0,7.0,3.0,875.6300377426669,2.0,1.0,phase_3,,,,,78.0,2.0,234.0,195.0,78.0,39.0,156.0,117.0,cyan,I
0.0,3.0,2.0,0.0,7.0,4.0,1327.341936645098,2.0,1.0,phase_3,,,,,68.0,2.0,136.0,102.0,204.0,68.0,170.0,34.0,green,hexagon
0.0,8.0,4.0,1.0,7.0,1.0,1270.8040341967717,2.0,1.0,phase_3,,,,,220.0,5.0,220.0,88.0,264.0,44.0,132.0,176.0,yellow,circle
0.0,3.0,2.0,0.0,7.0,4.0,833.3492612000555,2.0,1.0,phase_3,,,,,68.0,2.0,204.0,170.0,136.0,68.0,34.0,102.0,green,hexagon
0.0,8.0,4.0,1.0,7.0,1.0,1262.051506957505,2.0,1.0,phase_3,,,,,220.0,5.0,220.0,176.0,44.0,132.0,264.0,88.0,yellow,circle
0.0,1.0,0.5,0.0,7.0,6.0,1589.9434424936771,2.0,1.0,phase_3,,,,,54.0,1.0,216.0,108.0,162.0,270.0,324.0,54.0,orange,flipped triangle
0.0,6.0,1.0,1.0,7.0,1.0,1017.1102932654319,2.0,1.0,phase_3,,,,,49.0,1.0,49.0,98.0,294.0,245.0,147.0,196.0,gray,cross
0.0,1.0,0.5,0.0,7.0,6.0,1176.670568587724,2.0,1.0,phase_3,,,,,234.0,6.0,39.0,117.0,195.0,156.0,78.0,234.0,orange,flipped triangle
0.0,6.0,1.0,1.0,7.0,1.0,1480.6080984999426,3.0,1.0,phase_3,,,,,88.0,2.0,88.0,264.0,132.0,176.0,220.0,44.0,gray,cross
0.0,7.0,2.0,1.0,7.0,1.0,1246.984108351171,3.0,1.0,phase_3,,,,,39.0,1.0,39.0,117.0,78.0,156.0,234.0,195.0,cyan,I
0.0,3.0,2.0,0.0,7.0,3.0,1641.671562276315,3.0,1.0,phase_3,,,,,88.0,2.0,264.0,220.0,88.0,176.0,44.0,132.0,green,hexagon
0.0,2.0,1.0,0.0,7.0,2.0,1551.456549204886,3.0,1.0,phase_3,,,,,108.0,2.0,162.0,108.0,54.0,270.0,216.0,324.0,magenta,diamond
0.0,7.0,2.0,1.0,7.0,1.0,1407.1915664244443,3.0,1.0,phase_3,,,,,132.0,3.0,132.0,44.0,176.0,264.0,88.0,220.0,cyan,I
0.0,2.0,1.0,0.0,7.0,2.0,1058.3508345880546,3.0,1.0,phase_3,,,,,78.0,2.0,234.0,78.0,39.0,195.0,117.0,156.0,magenta,diamond
0.0,3.0,2.0,0.0,7.0,5.0,1385.9163431916386,3.0,1.0,phase_3,,,,,78.0,2.0,39.0,195.0,234.0,156.0,78.0,117.0,green,hexagon
0.0,2.0,1.0,0.0,7.0,2.0,2230.931549507659,3.0,1.0,phase_3,,,,,176.0,4.0,264.0,176.0,132.0,44.0,220.0,88.0,magenta,diamond
0.0,6.0,1.0,1.0,7.0,6.0,1186.047090392094,3.0,1.0,phase_3,,,,,44.0,1.0,264.0,176.0,88.0,220.0,132.0,44.0,gray,cross
0.0,8.0,4.0,1.0,7.0,2.0,1795.725294272415,3.0,1.0,phase_3,,,,,195.0,5.0,39.0,195.0,156.0,234.0,78.0,117.0,yellow,circle
0.0,6.0,1.0,1.0,7.0,3.0,1335.5669965967536,3.0,1.0,phase_3,,,,,54.0,1.0,108.0,162.0,54.0,324.0,216.0,270.0,gray,cross
0.0,8.0,4.0,1.0,7.0,2.0,2572.6109907845967,3.0,1.0,phase_3,,,,,270.0,5.0,54.0,270.0,108.0,216.0,324.0,162.0,yellow,circle
0.0,1.0,0.5,0.0,7.0,3.0,975.8986418601124,3.0,1.0,phase_3,,,,,39.0,1.0,117.0,195.0,39.0,234.0,78.0,156.0,orange,flipped triangle
0.0,6.0,1.0,1.0,7.0,6.0,1147.576434421353,3.0,1.0,phase_3,,,,,49.0,1.0,245.0,294.0,98.0,196.0,147.0,49.0,gray,cross
0.0,3.0,2.0,0.0,7.0,4.0,1057.6194796012717,3.0,1.0,phase_3,,,,,98.0,2.0,294.0,147.0,245.0,98.0,49.0,196.0,green,hexagon
0.0,1.0,0.5,0.0,7.0,1.0,1317.367093754001,3.0,1.0,phase_3,,,,,34.0,1.0,34.0,136.0,170.0,102.0,68.0,204.0,orange,flipped triangle
0.0,4.0,4.0,0.0,7.0,5.0,1533.0334504833445,3.0,1.0,phase_3,,,,,195.0,5.0,78.0,117.0,39.0,156.0,195.0,234.0,blue,square
0.0,8.0,4.0,1.0,7.0,5.0,981.488553341478,3.0,1.0,phase_3,,,,,170.0,5.0,102.0,34.0,204.0,68.0,170.0,136.0,yellow,circle
0.0,8.0,4.0,1.0,7.0,2.0,1017.5409438670613,3.0,1.0,phase_3,,,,,195.0,5.0,156.0,195.0,234.0,117.0,78.0,39.0,yellow,circle
0.0,7.0,2.0,1.0,7.0,4.0,1310.4979914496653,3.0,1.0,phase_3,,,,,136.0,4.0,204.0,34.0,68.0,136.0,170.0,102.0,cyan,I
0.0,1.0,0.5,0.0,7.0,2.0,714.4384605926462,4.0,1.0,phase_3,,,,,88.0,2.0,132.0,88.0,176.0,264.0,220.0,44.0,orange,flipped triangle
0.0,8.0,4.0,1.0,7.0,4.0,975.788705982268,4.0,1.0,phase_3,,,,,196.0,4.0,294.0,49.0,98.0,196.0,245.0,147.0,yellow,circle
0.0,5.0,0.5,1.0,7.0,1.0,1246.2643762119114,4.0,1.0,phase_3,,,,,132.0,3.0,132.0,264.0,220.0,176.0,44.0,88.0,white,triangle
0.0,6.0,1.0,1.0,7.0,4.0,1258.9332928764634,4.0,1.0,phase_3,,,,,39.0,1.0,195.0,117.0,156.0,39.0,78.0,234.0,gray,cross
0.0,7.0,2.0,1.0,7.0,3.0,1238.0086503690109,4.0,1.0,phase_3,,,,,88.0,2.0,220.0,44.0,88.0,264.0,132.0,176.0,cyan,I
0.0,5.0,0.5,1.0,7.0,1.0,1114.684005617164,4.0,1.0,phase_3,,,,,170.0,5.0,170.0,204.0,34.0,68.0,136.0,102.0,white,triangle
0.0,2.0,1.0,0.0,7.0,5.0,959.4283655751497,4.0,1.0,phase_3,,,,,44.0,1.0,220.0,88.0,264.0,176.0,44.0,132.0,magenta,diamond
0.0,7.0,2.0,1.0,7.0,1.0,925.7337424205616,4.0,1.0,phase_3,,,,,49.0,1.0,49.0,196.0,294.0,147.0,98.0,245.0,cyan,I
0.0,7.0,2.0,1.0,7.0,5.0,768.7567048706114,4.0,1.0,phase_3,,,,,54.0,1.0,162.0,324.0,216.0,108.0,54.0,270.0,cyan,I
0.0,5.0,0.5,1.0,7.0,5.0,2153.7269126274623,4.0,1.0,phase_3,,,,,108.0,2.0,216.0,324.0,54.0,162.0,108.0,270.0,white,triangle
0.0,4.0,4.0,0.0,7.0,4.0,1019.3532420671545,4.0,1.0,phase_3,,,,,294.0,6.0,196.0,98.0,245.0,294.0,147.0,49.0,blue,square
0.0,3.0,2.0,0.0,7.0,5.0,1054.6460508485325,4.0,1.0,phase_3,,,,,78.0,2.0,195.0,39.0,156.0,234.0,78.0,117.0,green,hexagon
0.0,1.0,0.5,0.0,7.0,1.0,1223.561578837689,4.0,1.0,phase_3,,,,,49.0,1.0,49.0,294.0,147.0,98.0,245.0,196.0,orange,flipped triangle
0.0,4.0,4.0,0.0,7.0,5.0,1315.6224708654918,4.0,1.0,phase_3,,,,,324.0,6.0,270.0,108.0,162.0,216.0,324.0,54.0,blue,square
0.0,6.0,1.0,1.0,7.0,5.0,707.5459894258529,4.0,1.0,phase_3,,,,,54.0,1.0,108.0,270.0,216.0,324.0,54.0,162.0,gray,cross
0.0,2.0,1.0,0.0,7.0,2.0,1002.8507587267086,4.0,1.0,phase_3,,,,,102.0,3.0,68.0,102.0,136.0,34.0,170.0,204.0,magenta,diamond
0.0,5.0,0.5,1.0,7.0,3.0,1543.3353708940558,4.0,1.0,phase_3,,,,,132.0,3.0,264.0,220.0,132.0,88.0,44.0,176.0,white,triangle
0.0,8.0,4.0,1.0,7.0,1.0,2612.113232840784,4.0,1.0,phase_3,,,,,270.0,5.0,270.0,54.0,162.0,324.0,216.0,108.0,yellow,circle
0.0,1.0,0.5,0.0,7.0,1.0,1433.018120646011,4.0,1.0,phase_3,,,,,162.0,3.0,162.0,54.0,216.0,324.0,270.0,108.0,orange,flipped triangle
0.0,3.0,2.0,0.0,7.0,5.0,1118.6706515727565,4.0,1.0,phase_3,,,,,44.0,1.0,220.0,88.0,132.0,176.0,44.0,264.0,green,hexagon
