raw_reward_magnitude,stim_reward,stepwise_reward_magnitude,paired_with_stopping,stim_location,response,reaction_time,block,num_trial_presentations,which_phase,stop_signal_trial_type,left_SSD,right_SSD,accuracy,chosen_bidding_amount,chosen_bidding_level,possible_bid_1,possible_bid_2,possible_bid_3,possible_bid_4,possible_bid_5,possible_bid_6,color_text,shape_text
122.0,6.0,1.0,1.0,1.0,1.0,331.0386969824321,1.0,1.0,phase_1,,,,,,,,,,,,,magenta,square
383.0,8.0,4.0,1.0,2.0,2.0,422.6340583409183,1.0,1.0,phase_1,,,,,,,,,,,,,gray,hexagon
74.0,1.0,0.5,0.0,3.0,3.0,410.4350664420053,1.0,1.0,phase_1,,,,,,,,,,,,,yellow,flipped triangle
51.0,5.0,0.5,1.0,2.0,2.0,378.315643989481,1.0,1.0,phase_1,,,,,,,,,,,,,blue,triangle
86.0,2.0,1.0,0.0,4.0,4.0,276.3170204125345,1.0,1.0,phase_1,,,,,,,,,,,,,cyan,diamond
219.0,7.0,2.0,1.0,1.0,1.0,468.6951318290084,1.0,1.0,phase_1,,,,,,,,,,,,,green,I
40.0,1.0,0.5,0.0,3.0,3.0,368.8301513320766,1.0,2.0,phase_1,,,,,,,,,,,,,yellow,flipped triangle
0.0,5.0,0.0,1.0,1.0,1.0,312.304155959282,1.0,1.0,phase_1,,,,,,,,,,,,,blue,triangle
36.0,1.0,0.5,0.0,3.0,3.0,403.6137693910859,1.0,1.0,phase_1,,,,,,,,,,,,,yellow,flipped triangle
108.0,6.0,1.0,1.0,2.0,2.0,348.8987109740264,1.0,1.0,phase_1,,,,,,,,,,,,,magenta,square
37.0,5.0,0.5,1.0,2.0,2.0,349.0231654723175,1.0,1.0,phase_1,,,,,,,,,,,,,blue,triangle
51.0,1.0,0.5,0.0,4.0,4.0,359.5186149468645,1.0,1.0,phase_1,,,,,,,,,,,,,yellow,flipped triangle
375.0,4.0,4.0,0.0,3.0,3.0,439.4747497863136,1.0,1.0,phase_1,,,,,,,,,,,,,orange,cross
199.0,7.0,2.0,1.0,1.0,1.0,349.715590942651,1.0,1.0,phase_1,,,,,,,,,,,,,green,I
385.0,8.0,4.0,1.0,1.0,1.0,429.2255743639543,1.0,1.0,phase_1,,,,,,,,,,,,,gray,hexagon
392.0,8.0,4.0,1.0,1.0,1.0,384.0712528326548,1.0,1.0,phase_1,,,,,,,,,,,,,gray,hexagon
80.0,6.0,1.0,1.0,3.0,3.0,374.248155450914,1.0,1.0,phase_1,,,,,,,,,,,,,magenta,square
396.0,4.0,4.0,0.0,4.0,4.0,375.5162203451618,1.0,1.0,phase_1,,,,,,,,,,,,,orange,cross
201.0,3.0,2.0,0.0,2.0,2.0,430.8750504278578,1.0,1.0,phase_1,,,,,,,,,,,,,white,circle
396.0,8.0,4.0,1.0,1.0,1.0,330.5711550056003,1.0,1.0,phase_1,,,,,,,,,,,,,gray,hexagon
58.0,5.0,0.5,1.0,1.0,1.0,354.9430879065767,1.0,1.0,phase_1,,,,,,,,,,,,,blue,triangle
122.0,2.0,1.0,0.0,4.0,4.0,320.7662719069049,1.0,1.0,phase_1,,,,,,,,,,,,,cyan,diamond
48.0,5.0,0.5,1.0,1.0,1.0,276.0014703962952,1.0,1.0,phase_1,,,,,,,,,,,,,blue,triangle
423.0,4.0,4.0,0.0,4.0,4.0,321.6912563075311,1.0,1.0,phase_1,,,,,,,,,,,,,orange,cross
124.0,6.0,1.0,1.0,3.0,3.0,345.0088139506988,1.0,1.0,phase_1,,,,,,,,,,,,,magenta,square
400.0,8.0,4.0,1.0,4.0,4.0,323.2762604020536,1.0,1.0,phase_1,,,,,,,,,,,,,gray,hexagon
0.0,1.0,0.0,0.0,4.0,4.0,345.5530937644653,1.0,1.0,phase_1,,,,,,,,,,,,,yellow,flipped triangle
423.0,8.0,4.0,1.0,3.0,3.0,357.7679168083705,1.0,1.0,phase_1,,,,,,,,,,,,,gray,hexagon
0.0,3.0,0.0,0.0,3.0,3.0,391.1867924616672,1.0,1.0,phase_1,,,,,,,,,,,,,white,circle
94.0,6.0,1.0,1.0,3.0,3.0,448.7386394175701,1.0,1.0,phase_1,,,,,,,,,,,,,magenta,square
110.0,2.0,1.0,0.0,4.0,4.0,337.5113084330223,1.0,1.0,phase_1,,,,,,,,,,,,,cyan,diamond
192.0,3.0,2.0,0.0,4.0,4.0,393.3603444020264,1.0,1.0,phase_1,,,,,,,,,,,,,white,circle
105.0,6.0,1.0,1.0,4.0,4.0,349.8121163574978,1.0,1.0,phase_1,,,,,,,,,,,,,magenta,square
394.0,8.0,4.0,1.0,1.0,1.0,373.1470034690574,1.0,1.0,phase_1,,,,,,,,,,,,,gray,hexagon
81.0,2.0,1.0,0.0,4.0,4.0,349.3117273319512,1.0,1.0,phase_1,,,,,,,,,,,,,cyan,diamond
124.0,2.0,1.0,0.0,3.0,3.0,384.9513488239608,1.0,1.0,phase_1,,,,,,,,,,,,,cyan,diamond
38.0,1.0,0.5,0.0,3.0,3.0,395.5770059255883,1.0,1.0,phase_1,,,,,,,,,,,,,yellow,flipped triangle
215.0,7.0,2.0,1.0,1.0,1.0,352.3264003451913,1.0,1.0,phase_1,,,,,,,,,,,,,green,I
177.0,7.0,2.0,1.0,4.0,4.0,373.7559543806128,1.0,1.0,phase_1,,,,,,,,,,,,,green,I
0.0,1.0,0.0,0.0,1.0,1.0,342.228150984738,1.0,1.0,phase_1,,,,,,,,,,,,,yellow,flipped triangle
121.0,6.0,1.0,1.0,1.0,1.0,397.7709173923358,1.0,1.0,phase_1,,,,,,,,,,,,,magenta,square
192.0,7.0,2.0,1.0,3.0,3.0,488.1602204404771,1.0,1.0,phase_1,,,,,,,,,,,,,green,I
400.0,8.0,4.0,1.0,3.0,3.0,465.8067084383219,1.0,1.0,phase_1,,,,,,,,,,,,,gray,hexagon
29.0,1.0,0.5,0.0,1.0,1.0,569.6906754164957,1.0,1.0,phase_1,,,,,,,,,,,,,yellow,flipped triangle
191.0,7.0,2.0,1.0,4.0,4.0,568.7390940147452,1.0,1.0,phase_1,,,,,,,,,,,,,green,I
396.0,4.0,4.0,0.0,1.0,1.0,547.9170323815197,1.0,1.0,phase_1,,,,,,,,,,,,,orange,cross
418.0,8.0,4.0,1.0,3.0,3.0,423.0450623435899,1.0,1.0,phase_1,,,,,,,,,,,,,gray,hexagon
56.0,5.0,0.5,1.0,4.0,4.0,470.6939884345047,1.0,1.0,phase_1,,,,,,,,,,,,,blue,triangle
50.0,5.0,0.5,1.0,4.0,4.0,458.9938559802249,1.0,1.0,phase_1,,,,,,,,,,,,,blue,triangle
114.0,6.0,1.0,1.0,4.0,4.0,391.4398679626174,1.0,1.0,phase_1,,,,,,,,,,,,,magenta,square
92.0,6.0,1.0,1.0,4.0,4.0,348.902971483767,1.0,1.0,phase_1,,,,,,,,,,,,,magenta,square
0.0,7.0,0.0,1.0,3.0,3.0,483.8876258581877,1.0,1.0,phase_1,,,,,,,,,,,,,green,I
69.0,5.0,0.5,1.0,2.0,2.0,506.84855092549697,1.0,1.0,phase_1,,,,,,,,,,,,,blue,triangle
31.0,5.0,0.5,1.0,2.0,2.0,371.5098839602433,1.0,1.0,phase_1,,,,,,,,,,,,,blue,triangle
215.0,7.0,2.0,1.0,1.0,1.0,450.5752574186772,1.0,1.0,phase_1,,,,,,,,,,,,,green,I
208.0,3.0,2.0,0.0,1.0,1.0,484.9861663533374,1.0,1.0,phase_1,,,,,,,,,,,,,white,circle
201.0,7.0,2.0,1.0,2.0,2.0,339.4027487956919,1.0,1.0,phase_1,,,,,,,,,,,,,green,I
37.0,1.0,0.5,0.0,2.0,2.0,409.217495820485,1.0,1.0,phase_1,,,,,,,,,,,,,yellow,flipped triangle
59.0,1.0,0.5,0.0,2.0,2.0,364.5262778154574,1.0,1.0,phase_1,,,,,,,,,,,,,yellow,flipped triangle
0.0,8.0,0.0,1.0,2.0,2.0,376.3320584548637,1.0,1.0,phase_1,,,,,,,,,,,,,gray,hexagon
31.0,1.0,0.5,0.0,4.0,4.0,420.7073174184188,1.0,1.0,phase_1,,,,,,,,,,,,,yellow,flipped triangle
399.0,4.0,4.0,0.0,3.0,3.0,365.2322373818606,1.0,1.0,phase_1,,,,,,,,,,,,,orange,cross
400.0,4.0,4.0,0.0,2.0,2.0,378.1715930090286,1.0,1.0,phase_1,,,,,,,,,,,,,orange,cross
54.0,1.0,0.5,0.0,2.0,2.0,377.4977134889923,1.0,1.0,phase_1,,,,,,,,,,,,,yellow,flipped triangle
0.0,2.0,0.0,0.0,1.0,1.0,334.3677084194496,1.0,1.0,phase_1,,,,,,,,,,,,,cyan,diamond
205.0,3.0,2.0,0.0,3.0,3.0,468.427492363844,1.0,1.0,phase_1,,,,,,,,,,,,,white,circle
224.0,7.0,2.0,1.0,1.0,1.0,536.8668533628806,1.0,1.0,phase_1,,,,,,,,,,,,,green,I
180.0,3.0,2.0,0.0,1.0,1.0,380.2078504231758,1.0,1.0,phase_1,,,,,,,,,,,,,white,circle
189.0,7.0,2.0,1.0,1.0,1.0,347.3249804228544,1.0,1.0,phase_1,,,,,,,,,,,,,green,I
94.0,2.0,1.0,0.0,1.0,1.0,393.1120274355635,1.0,1.0,phase_1,,,,,,,,,,,,,cyan,diamond
81.0,2.0,1.0,0.0,2.0,2.0,459.9436124553904,1.0,1.0,phase_1,,,,,,,,,,,,,cyan,diamond
215.0,3.0,2.0,0.0,3.0,3.0,606.7847904050723,1.0,1.0,phase_1,,,,,,,,,,,,,white,circle
31.0,5.0,0.5,1.0,1.0,1.0,584.502654208336,1.0,1.0,phase_1,,,,,,,,,,,,,blue,triangle
98.0,6.0,1.0,1.0,1.0,1.0,405.6564288912341,1.0,1.0,phase_1,,,,,,,,,,,,,magenta,square
81.0,6.0,1.0,1.0,2.0,2.0,450.3046110039577,1.0,1.0,phase_1,,,,,,,,,,,,,magenta,square
43.0,5.0,0.5,1.0,1.0,1.0,485.1215748349204,1.0,1.0,phase_1,,,,,,,,,,,,,blue,triangle
185.0,7.0,2.0,1.0,4.0,4.0,429.2072998359799,1.0,1.0,phase_1,,,,,,,,,,,,,green,I
220.0,7.0,2.0,1.0,2.0,2.0,384.4579449505545,1.0,1.0,phase_1,,,,,,,,,,,,,green,I
200.0,3.0,2.0,0.0,3.0,3.0,633.9277713559568,1.0,1.0,phase_1,,,,,,,,,,,,,white,circle
220.0,3.0,2.0,0.0,1.0,1.0,387.2408567694947,1.0,1.0,phase_1,,,,,,,,,,,,,white,circle
65.0,1.0,0.5,0.0,3.0,3.0,420.7868158118799,1.0,1.0,phase_1,,,,,,,,,,,,,yellow,flipped triangle
114.0,2.0,1.0,0.0,1.0,1.0,669.7499459260143,1.0,1.0,phase_1,,,,,,,,,,,,,cyan,diamond
409.0,4.0,4.0,0.0,2.0,2.0,455.2912713843398,1.0,1.0,phase_1,,,,,,,,,,,,,orange,cross
0.0,2.0,0.0,0.0,2.0,2.0,444.7849703137763,1.0,1.0,phase_1,,,,,,,,,,,,,cyan,diamond
0.0,7.0,0.0,1.0,1.0,1.0,378.0096029513515,1.0,1.0,phase_1,,,,,,,,,,,,,green,I
27.0,1.0,0.5,0.0,4.0,4.0,377.1631164127029,1.0,1.0,phase_1,,,,,,,,,,,,,yellow,flipped triangle
200.0,7.0,2.0,1.0,3.0,3.0,446.9108129269443,1.0,1.0,phase_1,,,,,,,,,,,,,green,I
0.0,4.0,0.0,0.0,2.0,2.0,356.1028969706967,1.0,1.0,phase_1,,,,,,,,,,,,,orange,cross
43.0,1.0,0.5,0.0,4.0,4.0,458.9039409183897,1.0,1.0,phase_1,,,,,,,,,,,,,yellow,flipped triangle
417.0,8.0,4.0,1.0,3.0,3.0,447.9146657977253,1.0,1.0,phase_1,,,,,,,,,,,,,gray,hexagon
408.0,4.0,4.0,0.0,2.0,2.0,302.0779833896085,1.0,1.0,phase_1,,,,,,,,,,,,,orange,cross
210.0,3.0,2.0,0.0,4.0,4.0,493.0295139783993,1.0,1.0,phase_1,,,,,,,,,,,,,white,circle
0.0,2.0,0.0,0.0,3.0,3.0,449.5465183281339,1.0,1.0,phase_1,,,,,,,,,,,,,cyan,diamond
0.0,8.0,0.0,1.0,2.0,2.0,406.6970804124139,1.0,1.0,phase_1,,,,,,,,,,,,,gray,hexagon
399.0,8.0,4.0,1.0,4.0,4.0,450.6306604016572,1.0,1.0,phase_1,,,,,,,,,,,,,gray,hexagon
51.0,1.0,0.5,0.0,1.0,1.0,327.185635920614,1.0,1.0,phase_1,,,,,,,,,,,,,yellow,flipped triangle
0.0,7.0,0.0,1.0,3.0,3.0,294.5943547529168,1.0,1.0,phase_1,,,,,,,,,,,,,green,I
418.0,4.0,4.0,0.0,1.0,1.0,430.6992393103428,1.0,2.0,phase_1,,,,,,,,,,,,,orange,cross
186.0,7.0,2.0,1.0,1.0,1.0,398.8510763738304,1.0,1.0,phase_1,,,,,,,,,,,,,green,I
97.0,6.0,1.0,1.0,4.0,4.0,374.816064897459,1.0,1.0,phase_1,,,,,,,,,,,,,magenta,square
123.0,2.0,1.0,0.0,2.0,2.0,339.4641288323328,2.0,1.0,phase_1,,,,,,,,,,,,,cyan,diamond
0.0,6.0,0.0,1.0,4.0,4.0,428.9790969341993,2.0,1.0,phase_1,,,,,,,,,,,,,magenta,square
0.0,2.0,0.0,0.0,1.0,1.0,395.3877393505536,2.0,1.0,phase_1,,,,,,,,,,,,,cyan,diamond
175.0,7.0,2.0,1.0,3.0,3.0,362.1109124505892,2.0,1.0,phase_1,,,,,,,,,,,,,green,I
73.0,1.0,0.5,0.0,4.0,4.0,440.3941203490831,2.0,1.0,phase_1,,,,,,,,,,,,,yellow,flipped triangle
58.0,1.0,0.5,0.0,4.0,4.0,576.2488609761931,2.0,1.0,phase_1,,,,,,,,,,,,,yellow,flipped triangle
180.0,7.0,2.0,1.0,3.0,3.0,543.0464958189987,2.0,1.0,phase_1,,,,,,,,,,,,,green,I
404.0,4.0,4.0,0.0,3.0,3.0,364.6944639622234,2.0,1.0,phase_1,,,,,,,,,,,,,orange,cross
111.0,6.0,1.0,1.0,1.0,1.0,466.6807044413872,2.0,1.0,phase_1,,,,,,,,,,,,,magenta,square
0.0,3.0,0.0,0.0,3.0,3.0,364.9603863595985,2.0,1.0,phase_1,,,,,,,,,,,,,white,circle
46.0,5.0,0.5,1.0,3.0,3.0,387.7477559144608,2.0,1.0,phase_1,,,,,,,,,,,,,blue,triangle
0.0,1.0,0.0,0.0,1.0,1.0,457.0401202654466,2.0,1.0,phase_1,,,,,,,,,,,,,yellow,flipped triangle
0.0,1.0,0.0,0.0,3.0,3.0,491.1016369005665,2.0,1.0,phase_1,,,,,,,,,,,,,yellow,flipped triangle
59.0,5.0,0.5,1.0,3.0,3.0,390.579842380248,2.0,1.0,phase_1,,,,,,,,,,,,,blue,triangle
0.0,3.0,0.0,0.0,1.0,1.0,435.5031483573839,2.0,1.0,phase_1,,,,,,,,,,,,,white,circle
34.0,1.0,0.5,0.0,3.0,3.0,324.1738424403593,2.0,1.0,phase_1,,,,,,,,,,,,,yellow,flipped triangle
77.0,2.0,1.0,0.0,3.0,3.0,334.5718769705854,2.0,1.0,phase_1,,,,,,,,,,,,,cyan,diamond
214.0,7.0,2.0,1.0,4.0,4.0,402.6884519844316,2.0,1.0,phase_1,,,,,,,,,,,,,green,I
50.0,1.0,0.5,0.0,1.0,1.0,370.6636703573167,2.0,1.0,phase_1,,,,,,,,,,,,,yellow,flipped triangle
105.0,2.0,1.0,0.0,4.0,4.0,371.1841338081285,2.0,1.0,phase_1,,,,,,,,,,,,,cyan,diamond
71.0,1.0,0.5,0.0,1.0,1.0,359.9770262371748,2.0,1.0,phase_1,,,,,,,,,,,,,yellow,flipped triangle
104.0,6.0,1.0,1.0,4.0,4.0,472.3460478126071,2.0,1.0,phase_1,,,,,,,,,,,,,magenta,square
0.0,3.0,0.0,0.0,4.0,4.0,407.6655103708617,2.0,1.0,phase_1,,,,,,,,,,,,,white,circle
214.0,3.0,2.0,0.0,4.0,4.0,361.2943079788238,2.0,1.0,phase_1,,,,,,,,,,,,,white,circle
55.0,1.0,0.5,0.0,2.0,2.0,318.5005919658579,2.0,1.0,phase_1,,,,,,,,,,,,,yellow,flipped triangle
420.0,8.0,4.0,1.0,4.0,4.0,452.1448742598295,2.0,1.0,phase_1,,,,,,,,,,,,,gray,hexagon
224.0,3.0,2.0,0.0,1.0,1.0,318.0507174110971,2.0,1.0,phase_1,,,,,,,,,,,,,white,circle
0.0,6.0,0.0,1.0,1.0,1.0,309.6221347805112,2.0,1.0,phase_1,,,,,,,,,,,,,magenta,square
179.0,3.0,2.0,0.0,1.0,1.0,444.2785179708153,2.0,2.0,phase_1,,,,,,,,,,,,,white,circle
0.0,7.0,0.0,1.0,1.0,1.0,377.6015029288828,2.0,1.0,phase_1,,,,,,,,,,,,,green,I
216.0,3.0,2.0,0.0,4.0,4.0,479.0619323030114,2.0,1.0,phase_1,,,,,,,,,,,,,white,circle
389.0,8.0,4.0,1.0,4.0,4.0,389.5190289476886,2.0,1.0,phase_1,,,,,,,,,,,,,gray,hexagon
0.0,3.0,0.0,0.0,4.0,4.0,446.994352270849,2.0,1.0,phase_1,,,,,,,,,,,,,white,circle
0.0,2.0,0.0,0.0,1.0,1.0,458.058743912261,2.0,1.0,phase_1,,,,,,,,,,,,,cyan,diamond
390.0,4.0,4.0,0.0,2.0,2.0,470.7912364392541,2.0,1.0,phase_1,,,,,,,,,,,,,orange,cross
62.0,1.0,0.5,0.0,3.0,3.0,536.8845844059251,2.0,1.0,phase_1,,,,,,,,,,,,,yellow,flipped triangle
191.0,3.0,2.0,0.0,4.0,4.0,594.3378074443899,2.0,1.0,phase_1,,,,,,,,,,,,,white,circle
184.0,7.0,2.0,1.0,3.0,3.0,447.8765112580731,2.0,1.0,phase_1,,,,,,,,,,,,,green,I
0.0,4.0,0.0,0.0,3.0,3.0,371.7992498422973,2.0,1.0,phase_1,,,,,,,,,,,,,orange,cross
105.0,2.0,1.0,0.0,3.0,3.0,393.6534554231912,2.0,1.0,phase_1,,,,,,,,,,,,,cyan,diamond
0.0,6.0,0.0,1.0,3.0,3.0,360.9373409999534,2.0,1.0,phase_1,,,,,,,,,,,,,magenta,square
399.0,4.0,4.0,0.0,1.0,1.0,440.4167549218982,2.0,1.0,phase_1,,,,,,,,,,,,,orange,cross
0.0,6.0,0.0,1.0,1.0,1.0,508.23459384264424,2.0,1.0,phase_1,,,,,,,,,,,,,magenta,square
210.0,7.0,2.0,1.0,2.0,2.0,384.5832799561322,2.0,1.0,phase_1,,,,,,,,,,,,,green,I
192.0,7.0,2.0,1.0,4.0,4.0,599.3580098147504,2.0,1.0,phase_1,,,,,,,,,,,,,green,I
0.0,7.0,0.0,1.0,3.0,3.0,487.1264539542608,2.0,1.0,phase_1,,,,,,,,,,,,,green,I
175.0,3.0,2.0,0.0,3.0,3.0,488.6575798154808,2.0,1.0,phase_1,,,,,,,,,,,,,white,circle
0.0,4.0,0.0,0.0,2.0,2.0,376.0933963349089,2.0,1.0,phase_1,,,,,,,,,,,,,orange,cross
78.0,2.0,1.0,0.0,2.0,2.0,400.1354083884507,2.0,1.0,phase_1,,,,,,,,,,,,,cyan,diamond
108.0,2.0,1.0,0.0,1.0,1.0,545.3863193979487,2.0,1.0,phase_1,,,,,,,,,,,,,cyan,diamond
409.0,8.0,4.0,1.0,1.0,1.0,456.0037024202756,2.0,1.0,phase_1,,,,,,,,,,,,,gray,hexagon
123.0,2.0,1.0,0.0,3.0,3.0,390.0236498448066,2.0,1.0,phase_1,,,,,,,,,,,,,cyan,diamond
399.0,8.0,4.0,1.0,3.0,3.0,411.007055954542,2.0,1.0,phase_1,,,,,,,,,,,,,gray,hexagon
185.0,3.0,2.0,0.0,3.0,3.0,367.861300939694,2.0,1.0,phase_1,,,,,,,,,,,,,white,circle
67.0,1.0,0.5,0.0,4.0,4.0,437.0952873141505,2.0,1.0,phase_1,,,,,,,,,,,,,yellow,flipped triangle
95.0,6.0,1.0,1.0,3.0,3.0,425.133868411649,2.0,1.0,phase_1,,,,,,,,,,,,,magenta,square
36.0,5.0,0.5,1.0,3.0,3.0,357.3030519182794,2.0,1.0,phase_1,,,,,,,,,,,,,blue,triangle
32.0,5.0,0.5,1.0,1.0,1.0,405.3002653527073,2.0,1.0,phase_1,,,,,,,,,,,,,blue,triangle
33.0,5.0,0.5,1.0,4.0,4.0,518.4208584832959,2.0,2.0,phase_1,,,,,,,,,,,,,blue,triangle
104.0,2.0,1.0,0.0,4.0,4.0,428.7328763748519,2.0,1.0,phase_1,,,,,,,,,,,,,cyan,diamond
0.0,1.0,0.0,0.0,4.0,4.0,417.0889290398918,2.0,1.0,phase_1,,,,,,,,,,,,,yellow,flipped triangle
69.0,1.0,0.5,0.0,4.0,4.0,384.9402279010974,2.0,1.0,phase_1,,,,,,,,,,,,,yellow,flipped triangle
105.0,2.0,1.0,0.0,3.0,3.0,428.8959894329309,2.0,1.0,phase_1,,,,,,,,,,,,,cyan,diamond
71.0,5.0,0.5,1.0,1.0,1.0,453.7811184418387,2.0,1.0,phase_1,,,,,,,,,,,,,blue,triangle
94.0,6.0,1.0,1.0,2.0,2.0,397.2211569780484,2.0,1.0,phase_1,,,,,,,,,,,,,magenta,square
377.0,8.0,4.0,1.0,2.0,2.0,454.0499964496121,2.0,1.0,phase_1,,,,,,,,,,,,,gray,hexagon
215.0,7.0,2.0,1.0,4.0,4.0,409.1743629542179,2.0,1.0,phase_1,,,,,,,,,,,,,green,I
38.0,5.0,0.5,1.0,1.0,1.0,410.4430869920179,2.0,1.0,phase_1,,,,,,,,,,,,,blue,triangle
212.0,7.0,2.0,1.0,4.0,4.0,568.654456466902,2.0,1.0,phase_1,,,,,,,,,,,,,green,I
92.0,2.0,1.0,0.0,2.0,2.0,490.5827088514343,2.0,1.0,phase_1,,,,,,,,,,,,,cyan,diamond
95.0,6.0,1.0,1.0,1.0,1.0,366.0495804506354,2.0,1.0,phase_1,,,,,,,,,,,,,magenta,square
407.0,8.0,4.0,1.0,4.0,4.0,367.2857763594948,2.0,1.0,phase_1,,,,,,,,,,,,,gray,hexagon
0.0,8.0,0.0,1.0,2.0,2.0,345.0682059628889,2.0,1.0,phase_1,,,,,,,,,,,,,gray,hexagon
0.0,8.0,0.0,1.0,2.0,2.0,368.0118818301707,2.0,1.0,phase_1,,,,,,,,,,,,,gray,hexagon
123.0,6.0,1.0,1.0,3.0,3.0,390.7954763853922,2.0,1.0,phase_1,,,,,,,,,,,,,magenta,square
61.0,1.0,0.5,0.0,1.0,1.0,505.13211637735367,2.0,1.0,phase_1,,,,,,,,,,,,,yellow,flipped triangle
186.0,3.0,2.0,0.0,2.0,2.0,392.4720909562893,2.0,1.0,phase_1,,,,,,,,,,,,,white,circle
98.0,2.0,1.0,0.0,4.0,4.0,382.7186619746499,2.0,1.0,phase_1,,,,,,,,,,,,,cyan,diamond
377.0,4.0,4.0,0.0,1.0,1.0,370.40046940092,2.0,1.0,phase_1,,,,,,,,,,,,,orange,cross
55.0,5.0,0.5,1.0,4.0,4.0,418.2776683592237,2.0,1.0,phase_1,,,,,,,,,,,,,blue,triangle
188.0,3.0,2.0,0.0,3.0,3.0,495.6024028360843,2.0,1.0,phase_1,,,,,,,,,,,,,white,circle
29.0,5.0,0.5,1.0,1.0,1.0,361.1927683814429,2.0,1.0,phase_1,,,,,,,,,,,,,blue,triangle
192.0,3.0,2.0,0.0,2.0,2.0,429.4352745055221,2.0,1.0,phase_1,,,,,,,,,,,,,white,circle
0.0,4.0,0.0,0.0,2.0,2.0,541.7937018210068,2.0,1.0,phase_1,,,,,,,,,,,,,orange,cross
205.0,7.0,2.0,1.0,2.0,2.0,340.3209844254888,2.0,1.0,phase_1,,,,,,,,,,,,,green,I
115.0,6.0,1.0,1.0,1.0,1.0,521.8419573502615,2.0,1.0,phase_1,,,,,,,,,,,,,magenta,square
42.0,1.0,0.5,0.0,4.0,4.0,420.4950719722546,2.0,1.0,phase_1,,,,,,,,,,,,,yellow,flipped triangle
49.0,5.0,0.5,1.0,1.0,1.0,544.3143709562719,2.0,1.0,phase_1,,,,,,,,,,,,,blue,triangle
411.0,4.0,4.0,0.0,4.0,4.0,634.2893034452572,2.0,1.0,phase_1,,,,,,,,,,,,,orange,cross
86.0,2.0,1.0,0.0,2.0,2.0,478.1489754095673,2.0,1.0,phase_1,,,,,,,,,,,,,cyan,diamond
412.0,8.0,4.0,1.0,1.0,1.0,411.7465834133327,2.0,1.0,phase_1,,,,,,,,,,,,,gray,hexagon
112.0,6.0,1.0,1.0,2.0,2.0,468.4728778083808,2.0,1.0,phase_1,,,,,,,,,,,,,magenta,square
193.0,3.0,2.0,0.0,3.0,3.0,389.6816909546032,2.0,1.0,phase_1,,,,,,,,,,,,,white,circle
216.0,7.0,2.0,1.0,1.0,1.0,650.374451011885,2.0,1.0,phase_1,,,,,,,,,,,,,green,I
102.0,6.0,1.0,1.0,2.0,2.0,548.4775122604333,2.0,1.0,phase_1,,,,,,,,,,,,,magenta,square
59.0,5.0,0.5,1.0,3.0,3.0,763.8667839346454,2.0,1.0,phase_1,,,,,,,,,,,,,blue,triangle
115.0,2.0,1.0,0.0,2.0,2.0,448.4861093806103,2.0,2.0,phase_1,,,,,,,,,,,,,cyan,diamond
408.0,4.0,4.0,0.0,1.0,1.0,664.6958324708976,2.0,1.0,phase_1,,,,,,,,,,,,,orange,cross
33.0,1.0,0.5,0.0,2.0,2.0,348.8081239629537,2.0,1.0,phase_1,,,,,,,,,,,,,yellow,flipped triangle
215.0,3.0,2.0,0.0,4.0,4.0,508.0310443881899,2.0,1.0,phase_1,,,,,,,,,,,,,white,circle
412.0,8.0,4.0,1.0,2.0,2.0,392.5451153772883,3.0,1.0,phase_1,,,,,,,,,,,,,gray,hexagon
418.0,4.0,4.0,0.0,4.0,4.0,516.294716973789,3.0,1.0,phase_1,,,,,,,,,,,,,orange,cross
62.0,5.0,0.5,1.0,2.0,2.0,403.5059169400483,3.0,1.0,phase_1,,,,,,,,,,,,,blue,triangle
399.0,4.0,4.0,0.0,1.0,1.0,291.6368859587237,3.0,1.0,phase_1,,,,,,,,,,,,,orange,cross
0.0,3.0,0.0,0.0,3.0,3.0,395.3282799338922,3.0,1.0,phase_1,,,,,,,,,,,,,white,circle
0.0,5.0,0.0,1.0,4.0,4.0,383.9253839687444,3.0,1.0,phase_1,,,,,,,,,,,,,blue,triangle
94.0,6.0,1.0,1.0,2.0,2.0,306.1496003647335,3.0,1.0,phase_1,,,,,,,,,,,,,magenta,square
180.0,7.0,2.0,1.0,2.0,2.0,350.5154964514076,3.0,1.0,phase_1,,,,,,,,,,,,,green,I
411.0,8.0,4.0,1.0,4.0,4.0,452.9594249324873,3.0,1.0,phase_1,,,,,,,,,,,,,gray,hexagon
384.0,8.0,4.0,1.0,2.0,2.0,350.8778943796642,3.0,1.0,phase_1,,,,,,,,,,,,,gray,hexagon
0.0,1.0,0.0,0.0,4.0,4.0,633.4631864447147,3.0,1.0,phase_1,,,,,,,,,,,,,yellow,flipped triangle
121.0,2.0,1.0,0.0,1.0,1.0,364.3587243859656,3.0,1.0,phase_1,,,,,,,,,,,,,cyan,diamond
0.0,2.0,0.0,0.0,4.0,4.0,398.1258473359048,3.0,1.0,phase_1,,,,,,,,,,,,,cyan,diamond
0.0,1.0,0.0,0.0,2.0,2.0,386.8658579885959,3.0,1.0,phase_1,,,,,,,,,,,,,yellow,flipped triangle
205.0,3.0,2.0,0.0,4.0,4.0,567.5845057703555,3.0,1.0,phase_1,,,,,,,,,,,,,white,circle
70.0,5.0,0.5,1.0,2.0,2.0,568.6920423759148,3.0,1.0,phase_1,,,,,,,,,,,,,blue,triangle
70.0,1.0,0.5,0.0,2.0,2.0,401.1123134405352,3.0,1.0,phase_1,,,,,,,,,,,,,yellow,flipped triangle
412.0,4.0,4.0,0.0,2.0,2.0,435.5063999537378,3.0,1.0,phase_1,,,,,,,,,,,,,orange,cross
0.0,4.0,0.0,0.0,2.0,2.0,346.2181242648512,3.0,1.0,phase_1,,,,,,,,,,,,,orange,cross
110.0,6.0,1.0,1.0,3.0,3.0,457.2801468311809,3.0,1.0,phase_1,,,,,,,,,,,,,magenta,square
71.0,1.0,0.5,0.0,1.0,1.0,357.2647033142857,3.0,1.0,phase_1,,,,,,,,,,,,,yellow,flipped triangle
40.0,5.0,0.5,1.0,3.0,3.0,368.9470199751667,3.0,1.0,phase_1,,,,,,,,,,,,,blue,triangle
193.0,7.0,2.0,1.0,2.0,2.0,279.9547279719263,3.0,1.0,phase_1,,,,,,,,,,,,,green,I
25.0,5.0,0.5,1.0,4.0,4.0,346.7574819806032,3.0,1.0,phase_1,,,,,,,,,,,,,blue,triangle
0.0,5.0,0.0,1.0,3.0,3.0,392.7668484393507,3.0,1.0,phase_1,,,,,,,,,,,,,blue,triangle
115.0,6.0,1.0,1.0,3.0,3.0,460.2664429694414,3.0,1.0,phase_1,,,,,,,,,,,,,magenta,square
0.0,2.0,0.0,0.0,4.0,4.0,338.0852684495039,3.0,1.0,phase_1,,,,,,,,,,,,,cyan,diamond
0.0,7.0,0.0,1.0,3.0,3.0,416.7556748725474,3.0,1.0,phase_1,,,,,,,,,,,,,green,I
184.0,3.0,2.0,0.0,2.0,2.0,361.2408280023373,3.0,1.0,phase_1,,,,,,,,,,,,,white,circle
25.0,1.0,0.5,0.0,3.0,3.0,419.2726638866588,3.0,1.0,phase_1,,,,,,,,,,,,,yellow,flipped triangle
0.0,4.0,0.0,0.0,1.0,1.0,386.9829750037752,3.0,1.0,phase_1,,,,,,,,,,,,,orange,cross
111.0,2.0,1.0,0.0,3.0,3.0,441.0641494905576,3.0,1.0,phase_1,,,,,,,,,,,,,cyan,diamond
180.0,3.0,2.0,0.0,1.0,1.0,443.5788523987867,3.0,1.0,phase_1,,,,,,,,,,,,,white,circle
399.0,8.0,4.0,1.0,3.0,3.0,476.6584974713623,3.0,1.0,phase_1,,,,,,,,,,,,,gray,hexagon
206.0,7.0,2.0,1.0,3.0,3.0,465.567029255908,3.0,1.0,phase_1,,,,,,,,,,,,,green,I
48.0,1.0,0.5,0.0,1.0,1.0,781.5571089740843,3.0,1.0,phase_1,,,,,,,,,,,,,yellow,flipped triangle
65.0,5.0,0.5,1.0,3.0,3.0,399.6972704771906,3.0,1.0,phase_1,,,,,,,,,,,,,blue,triangle
91.0,6.0,1.0,1.0,4.0,4.0,434.1882513836026,3.0,1.0,phase_1,,,,,,,,,,,,,magenta,square
418.0,8.0,4.0,1.0,1.0,1.0,412.2933158068917,3.0,1.0,phase_1,,,,,,,,,,,,,gray,hexagon
0.0,7.0,0.0,1.0,3.0,3.0,345.0055964058265,3.0,1.0,phase_1,,,,,,,,,,,,,green,I
219.0,3.0,2.0,0.0,3.0,3.0,559.4586853985675,3.0,1.0,phase_1,,,,,,,,,,,,,white,circle
0.0,2.0,0.0,0.0,2.0,2.0,358.0492030014284,3.0,1.0,phase_1,,,,,,,,,,,,,cyan,diamond
215.0,3.0,2.0,0.0,2.0,2.0,550.6760284188204,3.0,1.0,phase_1,,,,,,,,,,,,,white,circle
96.0,2.0,1.0,0.0,1.0,1.0,607.0065619423985,3.0,1.0,phase_1,,,,,,,,,,,,,cyan,diamond
0.0,6.0,0.0,1.0,2.0,2.0,607.5137048610486,3.0,1.0,phase_1,,,,,,,,,,,,,magenta,square
420.0,4.0,4.0,0.0,1.0,1.0,552.3237509769388,3.0,1.0,phase_1,,,,,,,,,,,,,orange,cross
0.0,8.0,0.0,1.0,4.0,4.0,630.4462664411403,3.0,1.0,phase_1,,,,,,,,,,,,,gray,hexagon
184.0,3.0,2.0,0.0,4.0,4.0,427.5723089231178,3.0,1.0,phase_1,,,,,,,,,,,,,white,circle
192.0,3.0,2.0,0.0,3.0,3.0,495.4474034020677,3.0,1.0,phase_1,,,,,,,,,,,,,white,circle
32.0,1.0,0.5,0.0,1.0,1.0,318.5755967861041,3.0,1.0,phase_1,,,,,,,,,,,,,yellow,flipped triangle
0.0,5.0,0.0,1.0,1.0,1.0,554.0916378377005,3.0,1.0,phase_1,,,,,,,,,,,,,blue,triangle
418.0,8.0,4.0,1.0,4.0,4.0,419.8998793726787,3.0,1.0,phase_1,,,,,,,,,,,,,gray,hexagon
34.0,5.0,0.5,1.0,3.0,3.0,419.5785453775897,3.0,1.0,phase_1,,,,,,,,,,,,,blue,triangle
115.0,2.0,1.0,0.0,3.0,3.0,488.3754339534789,3.0,1.0,phase_1,,,,,,,,,,,,,cyan,diamond
112.0,2.0,1.0,0.0,1.0,1.0,377.7223197976127,3.0,1.0,phase_1,,,,,,,,,,,,,cyan,diamond
205.0,7.0,2.0,1.0,3.0,3.0,399.5168652618304,3.0,1.0,phase_1,,,,,,,,,,,,,green,I
0.0,8.0,0.0,1.0,2.0,2.0,355.9586889459751,3.0,1.0,phase_1,,,,,,,,,,,,,gray,hexagon
383.0,4.0,4.0,0.0,1.0,1.0,491.2291273940354,3.0,1.0,phase_1,,,,,,,,,,,,,orange,cross
87.0,2.0,1.0,0.0,2.0,2.0,417.7764999913052,3.0,1.0,phase_1,,,,,,,,,,,,,cyan,diamond
404.0,8.0,4.0,1.0,2.0,2.0,542.2338499920443,3.0,1.0,phase_1,,,,,,,,,,,,,gray,hexagon
94.0,2.0,1.0,0.0,3.0,3.0,462.7616209327243,3.0,1.0,phase_1,,,,,,,,,,,,,cyan,diamond
95.0,2.0,1.0,0.0,1.0,1.0,442.0496309758164,3.0,1.0,phase_1,,,,,,,,,,,,,cyan,diamond
392.0,4.0,4.0,0.0,2.0,2.0,342.0637792441994,3.0,1.0,phase_1,,,,,,,,,,,,,orange,cross
78.0,6.0,1.0,1.0,4.0,4.0,387.6166609697975,3.0,1.0,phase_1,,,,,,,,,,,,,magenta,square
91.0,2.0,1.0,0.0,3.0,3.0,657.112299813889,3.0,1.0,phase_1,,,,,,,,,,,,,cyan,diamond
96.0,6.0,1.0,1.0,3.0,3.0,377.0605508470908,3.0,1.0,phase_1,,,,,,,,,,,,,magenta,square
0.0,3.0,0.0,0.0,4.0,4.0,747.5242250948213,3.0,1.0,phase_1,,,,,,,,,,,,,white,circle
401.0,4.0,4.0,0.0,1.0,1.0,332.0540959248319,3.0,1.0,phase_1,,,,,,,,,,,,,orange,cross
0.0,1.0,0.0,0.0,4.0,4.0,457.2444984223693,3.0,1.0,phase_1,,,,,,,,,,,,,yellow,flipped triangle
0.0,5.0,0.0,1.0,3.0,3.0,400.3412093734368,3.0,1.0,phase_1,,,,,,,,,,,,,blue,triangle
56.0,1.0,0.5,0.0,2.0,2.0,425.5875078379176,3.0,1.0,phase_1,,,,,,,,,,,,,yellow,flipped triangle
100.0,2.0,1.0,0.0,1.0,1.0,391.5390588226728,3.0,1.0,phase_1,,,,,,,,,,,,,cyan,diamond
194.0,7.0,2.0,1.0,2.0,2.0,503.63584933802485,3.0,1.0,phase_1,,,,,,,,,,,,,green,I
0.0,3.0,0.0,0.0,3.0,3.0,369.0607610042207,3.0,1.0,phase_1,,,,,,,,,,,,,white,circle
418.0,8.0,4.0,1.0,3.0,3.0,369.4980339496396,3.0,1.0,phase_1,,,,,,,,,,,,,gray,hexagon
105.0,6.0,1.0,1.0,1.0,1.0,383.868656354025,3.0,1.0,phase_1,,,,,,,,,,,,,magenta,square
0.0,6.0,0.0,1.0,2.0,2.0,327.6169028249569,3.0,1.0,phase_1,,,,,,,,,,,,,magenta,square
56.0,1.0,0.5,0.0,3.0,3.0,552.8369479579851,3.0,1.0,phase_1,,,,,,,,,,,,,yellow,flipped triangle
384.0,4.0,4.0,0.0,3.0,3.0,474.3531243875623,3.0,1.0,phase_1,,,,,,,,,,,,,orange,cross
385.0,4.0,4.0,0.0,2.0,2.0,532.3089719749987,3.0,1.0,phase_1,,,,,,,,,,,,,orange,cross
408.0,8.0,4.0,1.0,3.0,3.0,430.5477559100836,3.0,1.0,phase_1,,,,,,,,,,,,,gray,hexagon
80.0,2.0,1.0,0.0,2.0,2.0,352.0612904685549,3.0,1.0,phase_1,,,,,,,,,,,,,cyan,diamond
83.0,2.0,1.0,0.0,2.0,2.0,397.6528069470078,3.0,1.0,phase_1,,,,,,,,,,,,,cyan,diamond
396.0,8.0,4.0,1.0,4.0,4.0,442.7597814355977,3.0,1.0,phase_1,,,,,,,,,,,,,gray,hexagon
181.0,3.0,2.0,0.0,4.0,4.0,533.0425872234628,3.0,1.0,phase_1,,,,,,,,,,,,,white,circle
81.0,6.0,1.0,1.0,2.0,2.0,331.1210988904349,3.0,1.0,phase_1,,,,,,,,,,,,,magenta,square
179.0,7.0,2.0,1.0,3.0,3.0,535.3015458676964,3.0,1.0,phase_1,,,,,,,,,,,,,green,I
401.0,8.0,4.0,1.0,2.0,2.0,457.142814353574,3.0,1.0,phase_1,,,,,,,,,,,,,gray,hexagon
379.0,4.0,4.0,0.0,3.0,3.0,466.9557198067195,3.0,1.0,phase_1,,,,,,,,,,,,,orange,cross
0.0,3.0,0.0,0.0,4.0,4.0,525.2654804498889,3.0,1.0,phase_1,,,,,,,,,,,,,white,circle
67.0,5.0,0.5,1.0,2.0,2.0,424.3983483756892,3.0,1.0,phase_1,,,,,,,,,,,,,blue,triangle
102.0,2.0,1.0,0.0,2.0,2.0,357.7759143081493,3.0,1.0,phase_1,,,,,,,,,,,,,cyan,diamond
86.0,6.0,1.0,1.0,4.0,4.0,526.3906662585214,3.0,1.0,phase_1,,,,,,,,,,,,,magenta,square
379.0,8.0,4.0,1.0,2.0,2.0,404.669284413103,3.0,1.0,phase_1,,,,,,,,,,,,,gray,hexagon
181.0,7.0,2.0,1.0,3.0,3.0,618.0526449461468,3.0,1.0,phase_1,,,,,,,,,,,,,green,I
42.0,5.0,0.5,1.0,4.0,4.0,460.9163898858242,3.0,1.0,phase_1,,,,,,,,,,,,,blue,triangle
32.0,5.0,0.5,1.0,3.0,3.0,460.4097089031711,3.0,1.0,phase_1,,,,,,,,,,,,,blue,triangle
208.0,7.0,2.0,1.0,4.0,4.0,483.4381409455091,3.0,1.0,phase_1,,,,,,,,,,,,,green,I
105.0,6.0,1.0,1.0,1.0,1.0,417.3291334300302,3.0,1.0,phase_1,,,,,,,,,,,,,magenta,square
376.0,8.0,4.0,1.0,3.0,3.0,406.2474833917804,3.0,1.0,phase_1,,,,,,,,,,,,,gray,hexagon
388.0,4.0,4.0,0.0,1.0,1.0,361.2253449391573,4.0,1.0,phase_1,,,,,,,,,,,,,orange,cross
408.0,8.0,4.0,1.0,2.0,2.0,329.3955983244814,4.0,1.0,phase_1,,,,,,,,,,,,,gray,hexagon
411.0,4.0,4.0,0.0,3.0,3.0,350.6260373978875,4.0,1.0,phase_1,,,,,,,,,,,,,orange,cross
71.0,5.0,0.5,1.0,1.0,1.0,330.9245222480967,4.0,1.0,phase_1,,,,,,,,,,,,,blue,triangle
0.0,4.0,0.0,0.0,4.0,4.0,409.351187874563,4.0,1.0,phase_1,,,,,,,,,,,,,orange,cross
95.0,2.0,1.0,0.0,4.0,4.0,442.9618274443783,4.0,1.0,phase_1,,,,,,,,,,,,,cyan,diamond
0.0,6.0,0.0,1.0,3.0,3.0,465.951322868932,4.0,1.0,phase_1,,,,,,,,,,,,,magenta,square
54.0,5.0,0.5,1.0,4.0,4.0,399.467643990647,4.0,1.0,phase_1,,,,,,,,,,,,,blue,triangle
94.0,2.0,1.0,0.0,4.0,4.0,423.8293673843145,4.0,1.0,phase_1,,,,,,,,,,,,,cyan,diamond
0.0,3.0,0.0,0.0,3.0,3.0,433.4874759078957,4.0,1.0,phase_1,,,,,,,,,,,,,white,circle
199.0,3.0,2.0,0.0,2.0,2.0,355.8181844418868,4.0,1.0,phase_1,,,,,,,,,,,,,white,circle
389.0,4.0,4.0,0.0,2.0,2.0,344.8469293653033,4.0,1.0,phase_1,,,,,,,,,,,,,orange,cross
192.0,7.0,2.0,1.0,4.0,4.0,459.1308393864892,4.0,1.0,phase_1,,,,,,,,,,,,,green,I
51.0,5.0,0.5,1.0,2.0,2.0,346.1210603709332,4.0,1.0,phase_1,,,,,,,,,,,,,blue,triangle
386.0,8.0,4.0,1.0,1.0,1.0,348.1756329420022,4.0,1.0,phase_1,,,,,,,,,,,,,gray,hexagon
0.0,4.0,0.0,0.0,2.0,2.0,506.39280438190326,4.0,1.0,phase_1,,,,,,,,,,,,,orange,cross
224.0,7.0,2.0,1.0,2.0,2.0,370.4888799693435,4.0,1.0,phase_1,,,,,,,,,,,,,green,I
62.0,1.0,0.5,0.0,4.0,4.0,382.8143092105165,4.0,1.0,phase_1,,,,,,,,,,,,,yellow,flipped triangle
177.0,3.0,2.0,0.0,3.0,3.0,438.92505898838857,4.0,1.0,phase_1,,,,,,,,,,,,,white,circle
0.0,5.0,0.0,1.0,1.0,1.0,382.8381018247455,4.0,1.0,phase_1,,,,,,,,,,,,,blue,triangle
0.0,8.0,0.0,1.0,4.0,4.0,451.1483103851788,4.0,1.0,phase_1,,,,,,,,,,,,,gray,hexagon
0.0,1.0,0.0,0.0,2.0,2.0,284.9886504118331,4.0,1.0,phase_1,,,,,,,,,,,,,yellow,flipped triangle
56.0,5.0,0.5,1.0,3.0,3.0,373.9784358185716,4.0,1.0,phase_1,,,,,,,,,,,,,blue,triangle
206.0,3.0,2.0,0.0,4.0,4.0,420.2522099367343,4.0,1.0,phase_1,,,,,,,,,,,,,white,circle
207.0,3.0,2.0,0.0,1.0,1.0,296.55821894994,4.0,1.0,phase_1,,,,,,,,,,,,,white,circle
61.0,5.0,0.5,1.0,3.0,3.0,410.3091824217699,4.0,1.0,phase_1,,,,,,,,,,,,,blue,triangle
195.0,7.0,2.0,1.0,2.0,2.0,320.3382919309661,4.0,1.0,phase_1,,,,,,,,,,,,,green,I
52.0,1.0,0.5,0.0,3.0,3.0,388.6789878015406,4.0,1.0,phase_1,,,,,,,,,,,,,yellow,flipped triangle
0.0,8.0,0.0,1.0,3.0,3.0,422.1464759320952,4.0,1.0,phase_1,,,,,,,,,,,,,gray,hexagon
184.0,7.0,2.0,1.0,1.0,1.0,502.82770686317235,4.0,1.0,phase_1,,,,,,,,,,,,,green,I
0.0,5.0,0.0,1.0,2.0,2.0,390.7146353740245,4.0,1.0,phase_1,,,,,,,,,,,,,blue,triangle
225.0,3.0,2.0,0.0,2.0,2.0,356.3236254267394,4.0,1.0,phase_1,,,,,,,,,,,,,white,circle
94.0,6.0,1.0,1.0,3.0,3.0,468.2249658508226,4.0,1.0,phase_1,,,,,,,,,,,,,magenta,square
418.0,4.0,4.0,0.0,2.0,2.0,311.8065489106811,4.0,1.0,phase_1,,,,,,,,,,,,,orange,cross
62.0,5.0,0.5,1.0,2.0,2.0,402.3445523926057,4.0,1.0,phase_1,,,,,,,,,,,,,blue,triangle
77.0,6.0,1.0,1.0,4.0,4.0,460.8994189184159,4.0,1.0,phase_1,,,,,,,,,,,,,magenta,square
224.0,3.0,2.0,0.0,1.0,1.0,403.964395809453,4.0,1.0,phase_1,,,,,,,,,,,,,white,circle
225.0,7.0,2.0,1.0,2.0,2.0,303.1107608694583,4.0,1.0,phase_1,,,,,,,,,,,,,green,I
100.0,6.0,1.0,1.0,2.0,2.0,416.8770013493486,4.0,1.0,phase_1,,,,,,,,,,,,,magenta,square
399.0,8.0,4.0,1.0,1.0,1.0,427.9368348652497,4.0,1.0,phase_1,,,,,,,,,,,,,gray,hexagon
188.0,7.0,2.0,1.0,4.0,4.0,417.2876328229904,4.0,1.0,phase_1,,,,,,,,,,,,,green,I
212.0,7.0,2.0,1.0,1.0,1.0,485.518146364484,4.0,1.0,phase_1,,,,,,,,,,,,,green,I
27.0,5.0,0.5,1.0,2.0,2.0,294.2315109539777,4.0,1.0,phase_1,,,,,,,,,,,,,blue,triangle
0.0,7.0,0.0,1.0,1.0,1.0,375.821960857138,4.0,1.0,phase_1,,,,,,,,,,,,,green,I
0.0,6.0,0.0,1.0,4.0,4.0,342.8030399372801,4.0,1.0,phase_1,,,,,,,,,,,,,magenta,square
412.0,4.0,4.0,0.0,4.0,4.0,352.8851523296907,4.0,1.0,phase_1,,,,,,,,,,,,,orange,cross
212.0,3.0,2.0,0.0,2.0,2.0,341.4830423425883,4.0,1.0,phase_1,,,,,,,,,,,,,white,circle
0.0,5.0,0.0,1.0,2.0,2.0,343.9760672627017,4.0,1.0,phase_1,,,,,,,,,,,,,blue,triangle
0.0,4.0,0.0,0.0,3.0,3.0,432.3737543891184,4.0,1.0,phase_1,,,,,,,,,,,,,orange,cross
0.0,2.0,0.0,0.0,3.0,3.0,445.413633424323,4.0,1.0,phase_1,,,,,,,,,,,,,cyan,diamond
87.0,6.0,1.0,1.0,1.0,1.0,446.9383018440567,4.0,1.0,phase_1,,,,,,,,,,,,,magenta,square
407.0,4.0,4.0,0.0,3.0,3.0,400.1591058331541,4.0,1.0,phase_1,,,,,,,,,,,,,orange,cross
417.0,4.0,4.0,0.0,4.0,4.0,401.8563744612038,4.0,1.0,phase_1,,,,,,,,,,,,,orange,cross
52.0,5.0,0.5,1.0,4.0,4.0,367.5513254711404,4.0,1.0,phase_1,,,,,,,,,,,,,blue,triangle
411.0,8.0,4.0,1.0,3.0,3.0,514.9268879322335,4.0,1.0,phase_1,,,,,,,,,,,,,gray,hexagon
31.0,1.0,0.5,0.0,1.0,1.0,538.1898898049258,4.0,1.0,phase_1,,,,,,,,,,,,,yellow,flipped triangle
123.0,6.0,1.0,1.0,3.0,3.0,516.4767322712578,4.0,1.0,phase_1,,,,,,,,,,,,,magenta,square
408.0,8.0,4.0,1.0,4.0,4.0,404.1184473317116,4.0,1.0,phase_1,,,,,,,,,,,,,gray,hexagon
390.0,8.0,4.0,1.0,4.0,4.0,383.7896373588592,4.0,1.0,phase_1,,,,,,,,,,,,,gray,hexagon
399.0,4.0,4.0,0.0,4.0,4.0,382.8893479658291,4.0,1.0,phase_1,,,,,,,,,,,,,orange,cross
377.0,8.0,4.0,1.0,2.0,2.0,373.9510903833434,4.0,1.0,phase_1,,,,,,,,,,,,,gray,hexagon
0.0,5.0,0.0,1.0,1.0,1.0,564.0348863671534,4.0,1.0,phase_1,,,,,,,,,,,,,blue,triangle
86.0,6.0,1.0,1.0,4.0,4.0,406.9127233815379,4.0,1.0,phase_1,,,,,,,,,,,,,magenta,square
0.0,7.0,0.0,1.0,1.0,1.0,420.0807004235685,4.0,1.0,phase_1,,,,,,,,,,,,,green,I
0.0,6.0,0.0,1.0,1.0,1.0,442.2640389529988,4.0,1.0,phase_1,,,,,,,,,,,,,magenta,square
46.0,1.0,0.5,0.0,2.0,2.0,442.4884184263646,4.0,1.0,phase_1,,,,,,,,,,,,,yellow,flipped triangle
376.0,4.0,4.0,0.0,4.0,4.0,397.7282943669706,4.0,1.0,phase_1,,,,,,,,,,,,,orange,cross
0.0,8.0,0.0,1.0,2.0,2.0,342.7186494227499,4.0,1.0,phase_1,,,,,,,,,,,,,gray,hexagon
0.0,4.0,0.0,0.0,1.0,1.0,310.6013039941899,4.0,1.0,phase_1,,,,,,,,,,,,,orange,cross
212.0,3.0,2.0,0.0,2.0,2.0,489.8736154427752,4.0,1.0,phase_1,,,,,,,,,,,,,white,circle
83.0,6.0,1.0,1.0,2.0,2.0,444.7068003937602,4.0,1.0,phase_1,,,,,,,,,,,,,magenta,square
94.0,2.0,1.0,0.0,1.0,1.0,345.5801849486306,4.0,1.0,phase_1,,,,,,,,,,,,,cyan,diamond
32.0,1.0,0.5,0.0,2.0,2.0,378.4868189250119,4.0,1.0,phase_1,,,,,,,,,,,,,yellow,flipped triangle
400.0,4.0,4.0,0.0,3.0,3.0,389.6142194280401,4.0,1.0,phase_1,,,,,,,,,,,,,orange,cross
0.0,1.0,0.0,0.0,3.0,3.0,457.7822755090892,4.0,1.0,phase_1,,,,,,,,,,,,,yellow,flipped triangle
375.0,8.0,4.0,1.0,2.0,2.0,346.8018125859089,4.0,1.0,phase_1,,,,,,,,,,,,,gray,hexagon
81.0,2.0,1.0,0.0,1.0,1.0,403.5805835737847,4.0,2.0,phase_1,,,,,,,,,,,,,cyan,diamond
0.0,5.0,0.0,1.0,4.0,4.0,527.7459594653919,4.0,1.0,phase_1,,,,,,,,,,,,,blue,triangle
97.0,2.0,1.0,0.0,3.0,3.0,404.4732020120136,4.0,1.0,phase_1,,,,,,,,,,,,,cyan,diamond
408.0,4.0,4.0,0.0,3.0,3.0,370.9277769667096,4.0,1.0,phase_1,,,,,,,,,,,,,orange,cross
189.0,3.0,2.0,0.0,1.0,1.0,339.192391897086,4.0,1.0,phase_1,,,,,,,,,,,,,white,circle
0.0,2.0,0.0,0.0,3.0,3.0,351.3908518361859,4.0,1.0,phase_1,,,,,,,,,,,,,cyan,diamond
73.0,5.0,0.5,1.0,4.0,4.0,419.1352363559417,4.0,1.0,phase_1,,,,,,,,,,,,,blue,triangle
49.0,1.0,0.5,0.0,2.0,2.0,431.7607324337587,4.0,1.0,phase_1,,,,,,,,,,,,,yellow,flipped triangle
388.0,8.0,4.0,1.0,1.0,1.0,488.9813489280641,4.0,1.0,phase_1,,,,,,,,,,,,,gray,hexagon
74.0,5.0,0.5,1.0,4.0,4.0,397.5104769342579,4.0,2.0,phase_1,,,,,,,,,,,,,blue,triangle
194.0,3.0,2.0,0.0,1.0,1.0,376.1009509325959,4.0,1.0,phase_1,,,,,,,,,,,,,white,circle
394.0,4.0,4.0,0.0,4.0,4.0,378.3554563997313,4.0,1.0,phase_1,,,,,,,,,,,,,orange,cross
102.0,6.0,1.0,1.0,1.0,1.0,446.4876464335248,4.0,1.0,phase_1,,,,,,,,,,,,,magenta,square
0.0,8.0,0.0,1.0,2.0,2.0,468.3023230172694,4.0,1.0,phase_1,,,,,,,,,,,,,gray,hexagon
207.0,7.0,2.0,1.0,3.0,3.0,660.9758410486393,4.0,1.0,phase_1,,,,,,,,,,,,,green,I
59.0,1.0,0.5,0.0,1.0,1.0,481.9144003558904,4.0,1.0,phase_1,,,,,,,,,,,,,yellow,flipped triangle
102.0,2.0,1.0,0.0,4.0,4.0,423.8707358017564,4.0,1.0,phase_1,,,,,,,,,,,,,cyan,diamond
195.0,3.0,2.0,0.0,2.0,2.0,357.684317859821,4.0,1.0,phase_1,,,,,,,,,,,,,white,circle
377.0,4.0,4.0,0.0,4.0,4.0,516.9225598801859,4.0,1.0,phase_1,,,,,,,,,,,,,orange,cross
81.0,6.0,1.0,1.0,2.0,2.0,427.4244329426437,4.0,1.0,phase_1,,,,,,,,,,,,,magenta,square
418.0,4.0,4.0,0.0,3.0,3.0,529.1583828511648,4.0,1.0,phase_1,,,,,,,,,,,,,orange,cross
386.0,4.0,4.0,0.0,2.0,2.0,440.2485314640216,4.0,1.0,phase_1,,,,,,,,,,,,,orange,cross
0.0,7.0,0.0,1.0,1.0,1.0,541.7769778869115,4.0,1.0,phase_1,,,,,,,,,,,,,green,I
0.0,6.0,0.0,1.0,3.0,3.0,393.9406419522129,4.0,1.0,phase_1,,,,,,,,,,,,,magenta,square
0.0,7.0,2.0,1.0,5.0,5.0,834.7840378410183,1.0,1.0,phase_2,go,250.0,250.0,1.0,,,,,,,,,green,I
0.0,7.0,2.0,1.0,5.0,0.0,0.0,1.0,1.0,phase_2,stop,250.0,250.0,4.0,,,,,,,,,green,I
0.0,1.0,0.5,0.0,6.0,6.0,307.1300188894383,1.0,1.0,phase_2,go,300.0,250.0,1.0,,,,,,,,,yellow,flipped triangle
0.0,6.0,1.0,1.0,5.0,5.0,331.9470564601943,1.0,1.0,phase_2,stop,300.0,250.0,3.0,,,,,,,,,magenta,square
0.0,4.0,4.0,0.0,6.0,6.0,320.5377188860439,1.0,1.0,phase_2,go,250.0,250.0,1.0,,,,,,,,,orange,cross
0.0,4.0,4.0,0.0,6.0,6.0,345.4818966565653,1.0,1.0,phase_2,go,250.0,250.0,1.0,,,,,,,,,orange,cross
0.0,5.0,0.5,1.0,6.0,6.0,424.5797097682953,1.0,1.0,phase_2,go,250.0,250.0,1.0,,,,,,,,,blue,triangle
0.0,6.0,1.0,1.0,5.0,5.0,356.1313994578086,1.0,1.0,phase_2,stop,250.0,250.0,3.0,,,,,,,,,magenta,square
0.0,1.0,0.5,0.0,6.0,6.0,414.6709228516556,1.0,1.0,phase_2,go,200.0,250.0,1.0,,,,,,,,,yellow,flipped triangle
0.0,4.0,4.0,0.0,5.0,5.0,483.0984438885934,1.0,1.0,phase_2,go,200.0,250.0,1.0,,,,,,,,,orange,cross
0.0,6.0,1.0,1.0,5.0,5.0,517.1979368315078,1.0,1.0,phase_2,go,200.0,250.0,1.0,,,,,,,,,magenta,square
0.0,6.0,1.0,1.0,6.0,6.0,415.5933549627661,1.0,1.0,phase_2,stop,200.0,250.0,3.0,,,,,,,,,magenta,square
0.0,2.0,1.0,0.0,6.0,6.0,463.4801027714275,1.0,1.0,phase_2,go,200.0,200.0,1.0,,,,,,,,,cyan,diamond
0.0,3.0,2.0,0.0,5.0,5.0,440.0473677087575,1.0,1.0,phase_2,go,200.0,200.0,1.0,,,,,,,,,white,circle
0.0,7.0,2.0,1.0,5.0,0.0,0.0,1.0,1.0,phase_2,stop,200.0,200.0,4.0,,,,,,,,,green,I
0.0,1.0,0.5,0.0,6.0,6.0,375.6896097911522,1.0,1.0,phase_2,go,250.0,200.0,1.0,,,,,,,,,yellow,flipped triangle
0.0,7.0,2.0,1.0,5.0,0.0,0.0,1.0,1.0,phase_2,stop,250.0,200.0,4.0,,,,,,,,,green,I
0.0,8.0,4.0,1.0,6.0,6.0,433.6348798824474,1.0,1.0,phase_2,go,300.0,200.0,1.0,,,,,,,,,gray,hexagon
0.0,6.0,1.0,1.0,5.0,0.0,0.0,1.0,1.0,phase_2,stop,300.0,200.0,4.0,,,,,,,,,magenta,square
0.0,1.0,0.5,0.0,5.0,5.0,546.1104846326634,1.0,1.0,phase_2,go,350.0,200.0,1.0,,,,,,,,,yellow,flipped triangle
0.0,6.0,1.0,1.0,5.0,5.0,738.3726648404263,1.0,1.0,phase_2,go,350.0,200.0,1.0,,,,,,,,,magenta,square
0.0,7.0,2.0,1.0,5.0,0.0,0.0,1.0,1.0,phase_2,stop,350.0,200.0,4.0,,,,,,,,,green,I
0.0,4.0,4.0,0.0,5.0,5.0,684.5276087406091,1.0,1.0,phase_2,go,400.0,200.0,1.0,,,,,,,,,orange,cross
0.0,8.0,4.0,1.0,5.0,0.0,0.0,1.0,1.0,phase_2,stop,400.0,200.0,4.0,,,,,,,,,gray,hexagon
0.0,1.0,0.5,0.0,5.0,5.0,697.0174159505405,1.0,1.0,phase_2,go,450.0,200.0,1.0,,,,,,,,,yellow,flipped triangle
0.0,4.0,4.0,0.0,6.0,6.0,449.7970838565379,1.0,1.0,phase_2,go,450.0,200.0,1.0,,,,,,,,,orange,cross
0.0,6.0,1.0,1.0,6.0,0.0,0.0,1.0,1.0,phase_2,stop,450.0,200.0,4.0,,,,,,,,,magenta,square
0.0,8.0,4.0,1.0,5.0,5.0,396.1044564493932,1.0,1.0,phase_2,go,450.0,250.0,1.0,,,,,,,,,gray,hexagon
0.0,1.0,0.5,0.0,6.0,6.0,643.8783421181142,1.0,1.0,phase_2,go,450.0,250.0,1.0,,,,,,,,,yellow,flipped triangle
0.0,4.0,4.0,0.0,5.0,5.0,419.3895357311703,1.0,1.0,phase_2,go,450.0,250.0,1.0,,,,,,,,,orange,cross
0.0,8.0,4.0,1.0,6.0,0.0,0.0,1.0,1.0,phase_2,stop,450.0,250.0,4.0,,,,,,,,,gray,hexagon
0.0,2.0,1.0,0.0,5.0,5.0,387.6106230309233,1.0,1.0,phase_2,go,450.0,300.0,1.0,,,,,,,,,cyan,diamond
0.0,1.0,0.5,0.0,6.0,6.0,570.4832180053927,1.0,1.0,phase_2,go,450.0,300.0,1.0,,,,,,,,,yellow,flipped triangle
0.0,4.0,4.0,0.0,5.0,5.0,637.3309605987743,1.0,1.0,phase_2,go,450.0,300.0,1.0,,,,,,,,,orange,cross
0.0,4.0,4.0,0.0,6.0,6.0,513.919218967203,1.0,1.0,phase_2,go,450.0,300.0,1.0,,,,,,,,,orange,cross
0.0,7.0,2.0,1.0,6.0,0.0,0.0,1.0,1.0,phase_2,stop,450.0,300.0,4.0,,,,,,,,,green,I
0.0,4.0,4.0,0.0,5.0,5.0,1443.4976418851877,2.0,1.0,phase_2,go,450.0,350.0,1.0,,,,,,,,,orange,cross
0.0,4.0,4.0,0.0,6.0,6.0,363.9214557479135,2.0,1.0,phase_2,go,450.0,350.0,1.0,,,,,,,,,orange,cross
0.0,4.0,4.0,0.0,6.0,6.0,353.4819596097804,2.0,1.0,phase_2,go,450.0,350.0,1.0,,,,,,,,,orange,cross
0.0,8.0,4.0,1.0,6.0,6.0,342.7984887384809,2.0,1.0,phase_2,stop,450.0,350.0,3.0,,,,,,,,,gray,hexagon
0.0,3.0,2.0,0.0,5.0,5.0,401.3952538371086,2.0,1.0,phase_2,go,450.0,300.0,1.0,,,,,,,,,white,circle
0.0,4.0,4.0,0.0,5.0,5.0,458.5000949446112,2.0,1.0,phase_2,go,450.0,300.0,1.0,,,,,,,,,orange,cross
0.0,4.0,4.0,0.0,6.0,6.0,559.9806858226657,2.0,1.0,phase_2,go,450.0,300.0,1.0,,,,,,,,,orange,cross
0.0,5.0,0.5,1.0,6.0,0.0,0.0,2.0,1.0,phase_2,stop,450.0,300.0,4.0,,,,,,,,,blue,triangle
0.0,8.0,4.0,1.0,6.0,6.0,426.0400311904959,2.0,1.0,phase_2,stop,450.0,350.0,3.0,,,,,,,,,gray,hexagon
0.0,2.0,1.0,0.0,6.0,6.0,730.34999857191,2.0,1.0,phase_2,go,450.0,300.0,1.0,,,,,,,,,cyan,diamond
0.0,8.0,4.0,1.0,6.0,6.0,832.7706757117994,2.0,1.0,phase_2,go,450.0,300.0,1.0,,,,,,,,,gray,hexagon
0.0,1.0,0.5,0.0,6.0,6.0,924.7310568462126,2.0,1.0,phase_2,go,450.0,300.0,1.0,,,,,,,,,yellow,flipped triangle
0.0,2.0,1.0,0.0,6.0,6.0,520.1422160025686,2.0,1.0,phase_2,go,450.0,300.0,1.0,,,,,,,,,cyan,diamond
0.0,5.0,0.5,1.0,6.0,0.0,0.0,2.0,1.0,phase_2,stop,450.0,300.0,4.0,,,,,,,,,blue,triangle
0.0,1.0,0.5,0.0,5.0,5.0,396.5828608488664,2.0,1.0,phase_2,go,450.0,350.0,1.0,,,,,,,,,yellow,flipped triangle
0.0,8.0,4.0,1.0,5.0,0.0,0.0,2.0,1.0,phase_2,stop,450.0,350.0,4.0,,,,,,,,,gray,hexagon
0.0,4.0,4.0,0.0,5.0,5.0,489.2042989376932,2.0,1.0,phase_2,go,500.0,350.0,1.0,,,,,,,,,orange,cross
0.0,7.0,2.0,1.0,6.0,6.0,342.7433465840295,2.0,1.0,phase_2,stop,500.0,350.0,3.0,,,,,,,,,green,I
0.0,8.0,4.0,1.0,5.0,5.0,491.3926718872972,2.0,1.0,phase_2,stop,500.0,300.0,3.0,,,,,,,,,gray,hexagon
0.0,4.0,4.0,0.0,6.0,6.0,795.0979238958098,2.0,1.0,phase_2,go,450.0,300.0,1.0,,,,,,,,,orange,cross
0.0,3.0,2.0,0.0,5.0,5.0,752.1654657321051,2.0,1.0,phase_2,go,450.0,300.0,1.0,,,,,,,,,white,circle
0.0,2.0,1.0,0.0,5.0,5.0,785.1809486164711,2.0,1.0,phase_2,go,450.0,300.0,1.0,,,,,,,,,cyan,diamond
0.0,6.0,1.0,1.0,6.0,0.0,0.0,2.0,1.0,phase_2,stop,450.0,300.0,4.0,,,,,,,,,magenta,square
0.0,5.0,0.5,1.0,6.0,0.0,0.0,2.0,1.0,phase_2,stop,450.0,350.0,4.0,,,,,,,,,blue,triangle
0.0,1.0,0.5,0.0,6.0,6.0,653.3189056208357,2.0,1.0,phase_2,go,450.0,400.0,1.0,,,,,,,,,yellow,flipped triangle
0.0,3.0,2.0,0.0,6.0,6.0,867.0392969506793,2.0,1.0,phase_2,go,450.0,400.0,1.0,,,,,,,,,white,circle
0.0,8.0,4.0,1.0,5.0,0.0,0.0,2.0,1.0,phase_2,stop,450.0,400.0,4.0,,,,,,,,,gray,hexagon
0.0,7.0,2.0,1.0,5.0,5.0,407.8571485588327,2.0,1.0,phase_2,stop,500.0,400.0,3.0,,,,,,,,,green,I
0.0,8.0,4.0,1.0,5.0,0.0,0.0,2.0,1.0,phase_2,stop,450.0,400.0,4.0,,,,,,,,,gray,hexagon
0.0,4.0,4.0,0.0,6.0,6.0,735.5804956168868,2.0,1.0,phase_2,go,500.0,400.0,1.0,,,,,,,,,orange,cross
0.0,1.0,0.5,0.0,5.0,5.0,826.0530075058341,2.0,1.0,phase_2,go,500.0,400.0,1.0,,,,,,,,,yellow,flipped triangle
0.0,8.0,4.0,1.0,6.0,6.0,479.6256226254627,2.0,1.0,phase_2,go,500.0,400.0,1.0,,,,,,,,,gray,hexagon
0.0,4.0,4.0,0.0,5.0,5.0,614.4400589982979,2.0,1.0,phase_2,go,500.0,400.0,1.0,,,,,,,,,orange,cross
0.0,4.0,4.0,0.0,5.0,5.0,492.226836795453,2.0,1.0,phase_2,go,500.0,400.0,1.0,,,,,,,,,orange,cross
0.0,6.0,1.0,1.0,6.0,6.0,368.1094339699484,2.0,1.0,phase_2,stop,500.0,400.0,3.0,,,,,,,,,magenta,square
0.0,3.0,2.0,0.0,6.0,6.0,718.0931589682586,2.0,1.0,phase_2,go,500.0,350.0,1.0,,,,,,,,,white,circle
0.0,7.0,2.0,1.0,6.0,6.0,513.446043827571,3.0,1.0,phase_2,stop,500.0,350.0,3.0,,,,,,,,,green,I
0.0,7.0,2.0,1.0,6.0,0.0,0.0,3.0,1.0,phase_2,stop,500.0,300.0,4.0,,,,,,,,,green,I
0.0,2.0,1.0,0.0,5.0,5.0,470.5296769971028,3.0,1.0,phase_2,go,500.0,350.0,1.0,,,,,,,,,cyan,diamond
0.0,6.0,1.0,1.0,6.0,0.0,0.0,3.0,1.0,phase_2,stop,500.0,350.0,4.0,,,,,,,,,magenta,square
0.0,7.0,2.0,1.0,6.0,6.0,371.8635397381149,3.0,1.0,phase_2,stop,500.0,400.0,3.0,,,,,,,,,green,I
0.0,7.0,2.0,1.0,6.0,6.0,674.7318926500157,3.0,1.0,phase_2,go,500.0,350.0,1.0,,,,,,,,,green,I
0.0,7.0,2.0,1.0,6.0,6.0,384.1768829734064,3.0,1.0,phase_2,go,500.0,350.0,1.0,,,,,,,,,green,I
0.0,5.0,0.5,1.0,6.0,0.0,0.0,3.0,1.0,phase_2,stop,500.0,350.0,4.0,,,,,,,,,blue,triangle
0.0,5.0,0.5,1.0,5.0,5.0,475.6787808728404,3.0,1.0,phase_2,stop,500.0,400.0,3.0,,,,,,,,,blue,triangle
0.0,3.0,2.0,0.0,6.0,6.0,644.4410047843121,3.0,1.0,phase_2,go,450.0,400.0,1.0,,,,,,,,,white,circle
0.0,3.0,2.0,0.0,6.0,6.0,847.6476278156042,3.0,1.0,phase_2,go,450.0,400.0,1.0,,,,,,,,,white,circle
0.0,1.0,0.5,0.0,6.0,6.0,478.8268597912974,3.0,1.0,phase_2,go,450.0,400.0,1.0,,,,,,,,,yellow,flipped triangle
0.0,3.0,2.0,0.0,5.0,5.0,390.0257238419726,3.0,1.0,phase_2,go,450.0,400.0,1.0,,,,,,,,,white,circle
0.0,3.0,2.0,0.0,6.0,6.0,366.908953525126,3.0,1.0,phase_2,go,450.0,400.0,1.0,,,,,,,,,white,circle
0.0,2.0,1.0,0.0,5.0,5.0,515.5685364734381,3.0,1.0,phase_2,go,450.0,400.0,1.0,,,,,,,,,cyan,diamond
0.0,3.0,2.0,0.0,5.0,5.0,481.5622099558823,3.0,1.0,phase_2,go,450.0,400.0,1.0,,,,,,,,,white,circle
0.0,1.0,0.5,0.0,5.0,5.0,459.045180643443,3.0,1.0,phase_2,go,450.0,400.0,1.0,,,,,,,,,yellow,flipped triangle
0.0,8.0,4.0,1.0,6.0,0.0,0.0,3.0,1.0,phase_2,stop,450.0,400.0,4.0,,,,,,,,,gray,hexagon
0.0,7.0,2.0,1.0,5.0,5.0,483.0666619818657,3.0,1.0,phase_2,stop,450.0,450.0,3.0,,,,,,,,,green,I
0.0,1.0,0.5,0.0,5.0,5.0,857.096754538361,3.0,1.0,phase_2,go,400.0,450.0,1.0,,,,,,,,,yellow,flipped triangle
0.0,8.0,4.0,1.0,5.0,0.0,0.0,3.0,1.0,phase_2,stop,400.0,450.0,4.0,,,,,,,,,gray,hexagon
0.0,6.0,1.0,1.0,5.0,5.0,914.4968320033512,3.0,1.0,phase_2,go,450.0,450.0,1.0,,,,,,,,,magenta,square
0.0,2.0,1.0,0.0,6.0,6.0,453.9574926020577,3.0,1.0,phase_2,go,450.0,450.0,1.0,,,,,,,,,cyan,diamond
0.0,3.0,2.0,0.0,5.0,5.0,903.8797519751824,3.0,1.0,phase_2,go,450.0,450.0,1.0,,,,,,,,,white,circle
0.0,4.0,4.0,0.0,5.0,5.0,590.0439947727136,3.0,1.0,phase_2,go,450.0,450.0,1.0,,,,,,,,,orange,cross
0.0,6.0,1.0,1.0,5.0,5.0,501.9846346694976,3.0,1.0,phase_2,stop,450.0,450.0,3.0,,,,,,,,,magenta,square
0.0,2.0,1.0,0.0,5.0,5.0,592.4872306059115,3.0,1.0,phase_2,go,400.0,450.0,1.0,,,,,,,,,cyan,diamond
0.0,3.0,2.0,0.0,6.0,6.0,478.9806108456105,3.0,1.0,phase_2,go,400.0,450.0,1.0,,,,,,,,,white,circle
0.0,5.0,0.5,1.0,5.0,5.0,470.0583315570839,3.0,1.0,phase_2,stop,400.0,450.0,3.0,,,,,,,,,blue,triangle
0.0,8.0,4.0,1.0,5.0,0.0,0.0,3.0,1.0,phase_2,stop,350.0,450.0,4.0,,,,,,,,,gray,hexagon
0.0,3.0,2.0,0.0,5.0,5.0,785.6344351312146,3.0,1.0,phase_2,go,400.0,450.0,1.0,,,,,,,,,white,circle
0.0,2.0,1.0,0.0,5.0,5.0,797.6990086608566,3.0,1.0,phase_2,go,400.0,450.0,1.0,,,,,,,,,cyan,diamond
0.0,6.0,1.0,1.0,6.0,6.0,518.4504300705157,3.0,1.0,phase_2,stop,400.0,450.0,3.0,,,,,,,,,magenta,square
0.0,3.0,2.0,0.0,5.0,5.0,608.1189260585234,3.0,1.0,phase_2,go,400.0,400.0,1.0,,,,,,,,,white,circle
0.0,5.0,0.5,1.0,5.0,5.0,507.5777218444273,3.0,1.0,phase_2,stop,400.0,400.0,3.0,,,,,,,,,blue,triangle
0.0,7.0,2.0,1.0,5.0,0.0,0.0,3.0,1.0,phase_2,stop,350.0,400.0,4.0,,,,,,,,,green,I
0.0,4.0,4.0,0.0,6.0,6.0,295.4230879549868,4.0,1.0,phase_2,go,400.0,400.0,1.0,,,,,,,,,orange,cross
0.0,6.0,1.0,1.0,6.0,6.0,330.7302268804051,4.0,1.0,phase_2,stop,400.0,400.0,3.0,,,,,,,,,magenta,square
0.0,6.0,1.0,1.0,6.0,6.0,398.2845040154643,4.0,1.0,phase_2,stop,400.0,350.0,3.0,,,,,,,,,magenta,square
0.0,4.0,4.0,0.0,6.0,6.0,613.2334097055718,4.0,1.0,phase_2,go,400.0,300.0,1.0,,,,,,,,,orange,cross
0.0,8.0,4.0,1.0,5.0,5.0,467.8702566307038,4.0,1.0,phase_2,go,400.0,300.0,1.0,,,,,,,,,gray,hexagon
0.0,7.0,2.0,1.0,6.0,6.0,312.4838648363948,4.0,1.0,phase_2,stop,400.0,300.0,3.0,,,,,,,,,green,I
0.0,4.0,4.0,0.0,6.0,6.0,662.1347885229625,4.0,1.0,phase_2,go,400.0,250.0,1.0,,,,,,,,,orange,cross
0.0,1.0,0.5,0.0,6.0,6.0,651.8160056439228,4.0,1.0,phase_2,go,400.0,250.0,1.0,,,,,,,,,yellow,flipped triangle
0.0,5.0,0.5,1.0,6.0,6.0,335.8708375017158,4.0,1.0,phase_2,go,400.0,250.0,1.0,,,,,,,,,blue,triangle
0.0,3.0,2.0,0.0,5.0,5.0,415.797121822834,4.0,1.0,phase_2,go,400.0,250.0,1.0,,,,,,,,,white,circle
0.0,6.0,1.0,1.0,6.0,6.0,338.8873759540729,4.0,1.0,phase_2,stop,400.0,250.0,3.0,,,,,,,,,magenta,square
0.0,8.0,4.0,1.0,5.0,5.0,428.8533559883944,4.0,1.0,phase_2,stop,400.0,200.0,3.0,,,,,,,,,gray,hexagon
0.0,3.0,2.0,0.0,5.0,5.0,598.8076858920977,4.0,1.0,phase_2,go,350.0,200.0,1.0,,,,,,,,,white,circle
0.0,8.0,4.0,1.0,6.0,0.0,0.0,4.0,1.0,phase_2,stop,350.0,200.0,4.0,,,,,,,,,gray,hexagon
0.0,3.0,2.0,0.0,5.0,5.0,387.3298069811426,4.0,1.0,phase_2,go,350.0,250.0,1.0,,,,,,,,,white,circle
0.0,3.0,2.0,0.0,6.0,6.0,501.10149482497945,4.0,1.0,phase_2,go,350.0,250.0,1.0,,,,,,,,,white,circle
0.0,5.0,0.5,1.0,6.0,0.0,0.0,4.0,1.0,phase_2,stop,350.0,250.0,4.0,,,,,,,,,blue,triangle
0.0,4.0,4.0,0.0,5.0,5.0,411.0070688184351,4.0,1.0,phase_2,go,350.0,300.0,1.0,,,,,,,,,orange,cross
0.0,1.0,0.5,0.0,5.0,5.0,558.2892567035742,4.0,1.0,phase_2,go,350.0,300.0,1.0,,,,,,,,,yellow,flipped triangle
0.0,5.0,0.5,1.0,5.0,5.0,346.4509727200493,4.0,1.0,phase_2,go,350.0,300.0,1.0,,,,,,,,,blue,triangle
0.0,4.0,4.0,0.0,6.0,6.0,481.5392349846661,4.0,1.0,phase_2,go,350.0,300.0,1.0,,,,,,,,,orange,cross
0.0,4.0,4.0,0.0,5.0,5.0,448.5942967003211,4.0,1.0,phase_2,go,350.0,300.0,1.0,,,,,,,,,orange,cross
0.0,6.0,1.0,1.0,5.0,5.0,372.0103208906948,4.0,1.0,phase_2,stop,350.0,300.0,3.0,,,,,,,,,magenta,square
0.0,5.0,0.5,1.0,5.0,0.0,0.0,4.0,1.0,phase_2,stop,300.0,300.0,4.0,,,,,,,,,blue,triangle
0.0,1.0,0.5,0.0,5.0,5.0,598.551289876923,4.0,1.0,phase_2,go,350.0,300.0,1.0,,,,,,,,,yellow,flipped triangle
0.0,5.0,0.5,1.0,5.0,5.0,496.557401958853,4.0,1.0,phase_2,stop,350.0,300.0,3.0,,,,,,,,,blue,triangle
0.0,2.0,1.0,0.0,6.0,6.0,453.3876195782795,4.0,1.0,phase_2,go,300.0,300.0,1.0,,,,,,,,,cyan,diamond
0.0,7.0,2.0,1.0,6.0,0.0,0.0,4.0,1.0,phase_2,stop,300.0,300.0,4.0,,,,,,,,,green,I
0.0,3.0,2.0,0.0,5.0,5.0,376.3928838307038,4.0,1.0,phase_2,go,300.0,350.0,1.0,,,,,,,,,white,circle
0.0,8.0,4.0,1.0,6.0,0.0,0.0,4.0,1.0,phase_2,stop,300.0,350.0,4.0,,,,,,,,,gray,hexagon
0.0,8.0,4.0,1.0,6.0,6.0,513.5775717790239,4.0,1.0,phase_2,stop,300.0,400.0,3.0,,,,,,,,,gray,hexagon
0.0,4.0,4.0,0.0,6.0,6.0,535.9056607703678,4.0,1.0,phase_2,go,300.0,350.0,1.0,,,,,,,,,orange,cross
0.0,4.0,4.0,0.0,5.0,5.0,559.6423067618161,4.0,1.0,phase_2,go,300.0,350.0,1.0,,,,,,,,,orange,cross
0.0,6.0,1.0,1.0,6.0,0.0,0.0,4.0,1.0,phase_2,stop,300.0,350.0,4.0,,,,,,,,,magenta,square
0.0,5.0,0.5,1.0,5.0,0.0,0.0,4.0,1.0,phase_2,stop,300.0,400.0,4.0,,,,,,,,,blue,triangle
0.0,3.0,2.0,0.0,5.0,5.0,538.5770596330985,4.0,1.0,phase_2,go,350.0,400.0,1.0,,,,,,,,,white,circle
0.0,8.0,4.0,1.0,6.0,6.0,760.5547247221693,5.0,1.0,phase_2,stop,350.0,400.0,3.0,,,,,,,,,gray,hexagon
0.0,4.0,4.0,0.0,6.0,6.0,490.711701917462,5.0,1.0,phase_2,go,350.0,350.0,1.0,,,,,,,,,orange,cross
0.0,1.0,0.5,0.0,5.0,5.0,391.6134065948427,5.0,1.0,phase_2,go,350.0,350.0,1.0,,,,,,,,,yellow,flipped triangle
0.0,8.0,4.0,1.0,6.0,6.0,324.1461748839356,5.0,1.0,phase_2,stop,350.0,350.0,3.0,,,,,,,,,gray,hexagon
0.0,2.0,1.0,0.0,6.0,6.0,357.8843149589374,5.0,1.0,phase_2,go,350.0,300.0,1.0,,,,,,,,,cyan,diamond
0.0,4.0,4.0,0.0,5.0,5.0,428.1907088588923,5.0,1.0,phase_2,go,350.0,300.0,1.0,,,,,,,,,orange,cross
0.0,3.0,2.0,0.0,6.0,6.0,417.6939059980213,5.0,1.0,phase_2,go,350.0,300.0,1.0,,,,,,,,,white,circle
0.0,6.0,1.0,1.0,6.0,6.0,384.5824078307487,5.0,1.0,phase_2,stop,350.0,300.0,3.0,,,,,,,,,magenta,square
0.0,5.0,0.5,1.0,5.0,5.0,486.7327059619128,5.0,1.0,phase_2,stop,350.0,250.0,3.0,,,,,,,,,blue,triangle
0.0,1.0,0.5,0.0,6.0,6.0,485.9906327328644,5.0,1.0,phase_2,go,300.0,250.0,1.0,,,,,,,,,yellow,flipped triangle
0.0,2.0,1.0,0.0,5.0,5.0,545.1105157262646,5.0,1.0,phase_2,go,300.0,250.0,1.0,,,,,,,,,cyan,diamond
0.0,2.0,1.0,0.0,6.0,6.0,567.558582755737,5.0,1.0,phase_2,go,300.0,250.0,1.0,,,,,,,,,cyan,diamond
0.0,5.0,0.5,1.0,6.0,6.0,353.5632804851047,5.0,1.0,phase_2,stop,300.0,250.0,3.0,,,,,,,,,blue,triangle
0.0,3.0,2.0,0.0,5.0,5.0,422.5159760680981,5.0,1.0,phase_2,go,300.0,200.0,1.0,,,,,,,,,white,circle
0.0,8.0,4.0,1.0,6.0,6.0,355.68600188707927,5.0,1.0,phase_2,stop,300.0,200.0,3.0,,,,,,,,,gray,hexagon
0.0,2.0,1.0,0.0,5.0,5.0,637.614676496014,5.0,1.0,phase_2,go,300.0,150.0,1.0,,,,,,,,,cyan,diamond
0.0,7.0,2.0,1.0,6.0,0.0,0.0,5.0,1.0,phase_2,stop,300.0,150.0,4.0,,,,,,,,,green,I
0.0,4.0,4.0,0.0,5.0,5.0,438.1986715598032,5.0,1.0,phase_2,go,300.0,200.0,1.0,,,,,,,,,orange,cross
0.0,5.0,0.5,1.0,5.0,5.0,392.8426200291142,5.0,1.0,phase_2,stop,300.0,200.0,3.0,,,,,,,,,blue,triangle
0.0,2.0,1.0,0.0,5.0,5.0,528.8439028081484,5.0,1.0,phase_2,go,250.0,200.0,1.0,,,,,,,,,cyan,diamond
0.0,5.0,0.5,1.0,6.0,6.0,362.0925827417522,5.0,1.0,phase_2,stop,250.0,200.0,3.0,,,,,,,,,blue,triangle
0.0,4.0,4.0,0.0,5.0,5.0,531.3342000008561,5.0,1.0,phase_2,go,250.0,150.0,1.0,,,,,,,,,orange,cross
0.0,5.0,0.5,1.0,6.0,0.0,0.0,5.0,1.0,phase_2,stop,250.0,150.0,4.0,,,,,,,,,blue,triangle
0.0,1.0,0.5,0.0,5.0,5.0,443.1260696146637,5.0,1.0,phase_2,go,250.0,200.0,1.0,,,,,,,,,yellow,flipped triangle
0.0,1.0,0.5,0.0,6.0,6.0,475.9972416213713,5.0,1.0,phase_2,go,250.0,200.0,1.0,,,,,,,,,yellow,flipped triangle
0.0,8.0,4.0,1.0,5.0,0.0,0.0,5.0,1.0,phase_2,stop,250.0,200.0,4.0,,,,,,,,,gray,hexagon
0.0,7.0,2.0,1.0,6.0,0.0,0.0,5.0,1.0,phase_2,stop,300.0,200.0,4.0,,,,,,,,,green,I
0.0,2.0,1.0,0.0,5.0,5.0,433.2675498444587,5.0,1.0,phase_2,go,300.0,250.0,1.0,,,,,,,,,cyan,diamond
0.0,2.0,1.0,0.0,6.0,6.0,548.485113598872,5.0,1.0,phase_2,go,300.0,250.0,1.0,,,,,,,,,cyan,diamond
0.0,6.0,1.0,1.0,6.0,0.0,0.0,5.0,1.0,phase_2,stop,300.0,250.0,4.0,,,,,,,,,magenta,square
0.0,5.0,0.5,1.0,5.0,5.0,538.9251986052841,5.0,1.0,phase_2,go,300.0,300.0,1.0,,,,,,,,,blue,triangle
0.0,6.0,1.0,1.0,5.0,0.0,0.0,5.0,1.0,phase_2,stop,300.0,300.0,4.0,,,,,,,,,magenta,square
0.0,6.0,1.0,1.0,6.0,0.0,0.0,5.0,1.0,phase_2,stop,350.0,300.0,4.0,,,,,,,,,magenta,square
0.0,5.0,0.5,1.0,5.0,5.0,529.6773867448792,5.0,1.0,phase_2,stop,350.0,350.0,3.0,,,,,,,,,blue,triangle
0.0,6.0,1.0,1.0,6.0,6.0,665.9717475995421,5.0,1.0,phase_2,go,300.0,350.0,1.0,,,,,,,,,magenta,square
0.0,7.0,2.0,1.0,6.0,6.0,710.1406925939955,5.0,1.0,phase_2,go,300.0,350.0,1.0,,,,,,,,,green,I
0.0,1.0,0.5,0.0,6.0,6.0,618.1682217284106,6.0,1.0,phase_2,go,300.0,350.0,1.0,,,,,,,,,yellow,flipped triangle
0.0,2.0,1.0,0.0,5.0,5.0,371.2002858519554,6.0,1.0,phase_2,go,300.0,350.0,1.0,,,,,,,,,cyan,diamond
0.0,3.0,2.0,0.0,6.0,6.0,315.4807056998834,6.0,1.0,phase_2,go,300.0,350.0,1.0,,,,,,,,,white,circle
0.0,3.0,2.0,0.0,6.0,6.0,326.3626446714625,6.0,1.0,phase_2,go,300.0,350.0,1.0,,,,,,,,,white,circle
0.0,7.0,2.0,1.0,5.0,5.0,416.8982166447676,6.0,1.0,phase_2,stop,300.0,350.0,3.0,,,,,,,,,green,I
0.0,3.0,2.0,0.0,6.0,6.0,384.4290188280865,6.0,1.0,phase_2,go,250.0,350.0,1.0,,,,,,,,,white,circle
0.0,4.0,4.0,0.0,5.0,5.0,452.2150748525746,6.0,1.0,phase_2,go,250.0,350.0,1.0,,,,,,,,,orange,cross
0.0,2.0,1.0,0.0,6.0,6.0,387.3759527341462,6.0,1.0,phase_2,go,250.0,350.0,1.0,,,,,,,,,cyan,diamond
0.0,7.0,2.0,1.0,5.0,0.0,0.0,6.0,1.0,phase_2,stop,250.0,350.0,4.0,,,,,,,,,green,I
0.0,2.0,1.0,0.0,5.0,5.0,545.6386147998273,6.0,1.0,phase_2,go,300.0,350.0,1.0,,,,,,,,,cyan,diamond
0.0,1.0,0.5,0.0,5.0,5.0,491.2600978277623,6.0,1.0,phase_2,go,300.0,350.0,1.0,,,,,,,,,yellow,flipped triangle
0.0,5.0,0.5,1.0,6.0,6.0,389.4948247470893,6.0,1.0,phase_2,stop,300.0,350.0,3.0,,,,,,,,,blue,triangle
0.0,5.0,0.5,1.0,6.0,0.0,0.0,6.0,1.0,phase_2,stop,300.0,300.0,4.0,,,,,,,,,blue,triangle
0.0,1.0,0.5,0.0,6.0,6.0,390.7465049996972,6.0,1.0,phase_2,go,300.0,350.0,1.0,,,,,,,,,yellow,flipped triangle
0.0,4.0,4.0,0.0,6.0,6.0,336.4518489688635,6.0,1.0,phase_2,go,300.0,350.0,1.0,,,,,,,,,orange,cross
0.0,1.0,0.5,0.0,5.0,5.0,416.7988888802938,6.0,1.0,phase_2,go,300.0,350.0,1.0,,,,,,,,,yellow,flipped triangle
0.0,5.0,0.5,1.0,5.0,0.0,0.0,6.0,1.0,phase_2,stop,300.0,350.0,4.0,,,,,,,,,blue,triangle
0.0,8.0,4.0,1.0,5.0,0.0,0.0,6.0,1.0,phase_2,stop,350.0,350.0,4.0,,,,,,,,,gray,hexagon
0.0,3.0,2.0,0.0,6.0,6.0,721.6329725924879,6.0,1.0,phase_2,go,400.0,350.0,1.0,,,,,,,,,white,circle
0.0,7.0,2.0,1.0,5.0,0.0,0.0,6.0,1.0,phase_2,stop,400.0,350.0,4.0,,,,,,,,,green,I
0.0,2.0,1.0,0.0,6.0,6.0,475.463856884744,6.0,1.0,phase_2,go,450.0,350.0,1.0,,,,,,,,,cyan,diamond
0.0,3.0,2.0,0.0,5.0,5.0,702.4214546545409,6.0,1.0,phase_2,go,450.0,350.0,1.0,,,,,,,,,white,circle
0.0,5.0,0.5,1.0,5.0,5.0,500.8313351427205,6.0,1.0,phase_2,stop,450.0,350.0,3.0,,,,,,,,,blue,triangle
0.0,7.0,2.0,1.0,5.0,5.0,533.9640958700329,6.0,1.0,phase_2,go,400.0,350.0,1.0,,,,,,,,,green,I
0.0,5.0,0.5,1.0,6.0,0.0,0.0,6.0,1.0,phase_2,stop,400.0,350.0,4.0,,,,,,,,,blue,triangle
0.0,8.0,4.0,1.0,6.0,6.0,457.6133985538035,6.0,1.0,phase_2,stop,400.0,400.0,3.0,,,,,,,,,gray,hexagon
0.0,1.0,0.5,0.0,5.0,5.0,762.0201119570993,6.0,1.0,phase_2,go,400.0,350.0,1.0,,,,,,,,,yellow,flipped triangle
0.0,8.0,4.0,1.0,6.0,6.0,426.0951969772577,6.0,1.0,phase_2,stop,400.0,350.0,3.0,,,,,,,,,gray,hexagon
0.0,4.0,4.0,0.0,6.0,6.0,438.8036928721703,6.0,1.0,phase_2,go,400.0,300.0,1.0,,,,,,,,,orange,cross
0.0,2.0,1.0,0.0,6.0,6.0,449.0926447324455,6.0,1.0,phase_2,go,400.0,300.0,1.0,,,,,,,,,cyan,diamond
0.0,2.0,1.0,0.0,6.0,6.0,539.880737720523,6.0,1.0,phase_2,go,400.0,300.0,1.0,,,,,,,,,cyan,diamond
0.0,6.0,1.0,1.0,5.0,5.0,429.9594239564612,6.0,1.0,phase_2,go,400.0,300.0,1.0,,,,,,,,,magenta,square
0.0,3.0,2.0,0.0,6.0,6.0,406.6076368908398,6.0,1.0,phase_2,go,400.0,300.0,1.0,,,,,,,,,white,circle
0.0,4.0,4.0,0.0,6.0,6.0,384.9176997318864,6.0,1.0,phase_2,go,400.0,300.0,1.0,,,,,,,,,orange,cross
0.0,3.0,2.0,0.0,6.0,6.0,475.7278199540451,6.0,1.0,phase_2,go,400.0,300.0,1.0,,,,,,,,,white,circle
0.0,7.0,2.0,1.0,5.0,5.0,521.679324854631,6.0,1.0,phase_2,stop,400.0,300.0,3.0,,,,,,,,,green,I
0.0,2.0,1.0,0.0,5.0,5.0,404.3207789654843,7.0,1.0,phase_2,go,350.0,300.0,1.0,,,,,,,,,cyan,diamond
0.0,6.0,1.0,1.0,5.0,5.0,349.1429015411995,7.0,1.0,phase_2,stop,350.0,300.0,3.0,,,,,,,,,magenta,square
0.0,5.0,0.5,1.0,5.0,5.0,427.7759648393839,7.0,1.0,phase_2,stop,300.0,300.0,3.0,,,,,,,,,blue,triangle
0.0,2.0,1.0,0.0,6.0,6.0,327.3257167893462,7.0,1.0,phase_2,go,250.0,300.0,1.0,,,,,,,,,cyan,diamond
0.0,3.0,2.0,0.0,5.0,5.0,396.2274354998953,7.0,1.0,phase_2,go,250.0,300.0,1.0,,,,,,,,,white,circle
0.0,2.0,1.0,0.0,5.0,5.0,419.413857976906,7.0,1.0,phase_2,go,250.0,300.0,1.0,,,,,,,,,cyan,diamond
0.0,5.0,0.5,1.0,5.0,5.0,374.8114460031502,7.0,1.0,phase_2,stop,250.0,300.0,3.0,,,,,,,,,blue,triangle
0.0,2.0,1.0,0.0,6.0,6.0,465.5573779018596,7.0,1.0,phase_2,go,200.0,300.0,1.0,,,,,,,,,cyan,diamond
0.0,3.0,2.0,0.0,6.0,6.0,523.0519187753089,7.0,1.0,phase_2,go,200.0,300.0,1.0,,,,,,,,,white,circle
0.0,1.0,0.5,0.0,6.0,6.0,344.3359166267328,7.0,1.0,phase_2,go,200.0,300.0,1.0,,,,,,,,,yellow,flipped triangle
0.0,2.0,1.0,0.0,6.0,6.0,332.4777818634175,7.0,1.0,phase_2,go,200.0,300.0,1.0,,,,,,,,,cyan,diamond
0.0,6.0,1.0,1.0,5.0,5.0,300.6979700294323,7.0,1.0,phase_2,stop,200.0,300.0,3.0,,,,,,,,,magenta,square
0.0,1.0,0.5,0.0,6.0,6.0,367.8036157507449,7.0,1.0,phase_2,go,150.0,300.0,1.0,,,,,,,,,yellow,flipped triangle
0.0,1.0,0.5,0.0,5.0,5.0,347.6520389667712,7.0,1.0,phase_2,go,150.0,300.0,1.0,,,,,,,,,yellow,flipped triangle
0.0,5.0,0.5,1.0,5.0,0.0,0.0,7.0,1.0,phase_2,stop,150.0,300.0,4.0,,,,,,,,,blue,triangle
0.0,5.0,0.5,1.0,5.0,5.0,482.79535677284,7.0,1.0,phase_2,go,200.0,300.0,1.0,,,,,,,,,blue,triangle
0.0,1.0,0.5,0.0,5.0,5.0,564.1279309638776,7.0,1.0,phase_2,go,200.0,300.0,1.0,,,,,,,,,yellow,flipped triangle
0.0,3.0,2.0,0.0,6.0,6.0,429.0783020551316,7.0,1.0,phase_2,go,200.0,300.0,1.0,,,,,,,,,white,circle
0.0,6.0,1.0,1.0,5.0,5.0,396.1556497379206,7.0,1.0,phase_2,go,200.0,300.0,1.0,,,,,,,,,magenta,square
0.0,1.0,0.5,0.0,6.0,6.0,452.5234086322598,7.0,1.0,phase_2,go,200.0,300.0,1.0,,,,,,,,,yellow,flipped triangle
0.0,8.0,4.0,1.0,5.0,0.0,0.0,7.0,1.0,phase_2,stop,200.0,300.0,4.0,,,,,,,,,gray,hexagon
0.0,8.0,4.0,1.0,5.0,0.0,0.0,7.0,1.0,phase_2,stop,250.0,300.0,4.0,,,,,,,,,gray,hexagon
0.0,6.0,1.0,1.0,6.0,6.0,388.9776087598875,7.0,1.0,phase_2,stop,300.0,300.0,3.0,,,,,,,,,magenta,square
0.0,5.0,0.5,1.0,6.0,6.0,343.0863629910163,7.0,1.0,phase_2,go,300.0,250.0,1.0,,,,,,,,,blue,triangle
0.0,8.0,4.0,1.0,5.0,5.0,603.2151686376892,7.0,1.0,phase_2,go,300.0,250.0,1.0,,,,,,,,,gray,hexagon
0.0,1.0,0.5,0.0,5.0,5.0,571.6164957266301,7.0,1.0,phase_2,go,300.0,250.0,1.0,,,,,,,,,yellow,flipped triangle
0.0,5.0,0.5,1.0,5.0,5.0,492.1459820470772,7.0,1.0,phase_2,stop,300.0,250.0,3.0,,,,,,,,,blue,triangle
0.0,5.0,0.5,1.0,6.0,6.0,459.1775727458298,7.0,1.0,phase_2,go,250.0,250.0,1.0,,,,,,,,,blue,triangle
0.0,7.0,2.0,1.0,5.0,0.0,0.0,7.0,1.0,phase_2,stop,250.0,250.0,4.0,,,,,,,,,green,I
0.0,5.0,0.5,1.0,6.0,0.0,0.0,7.0,1.0,phase_2,stop,300.0,250.0,4.0,,,,,,,,,blue,triangle
0.0,2.0,1.0,0.0,5.0,5.0,462.6317609800026,7.0,1.0,phase_2,go,300.0,300.0,1.0,,,,,,,,,cyan,diamond
0.0,1.0,0.5,0.0,5.0,5.0,338.7284444761462,7.0,1.0,phase_2,go,300.0,300.0,1.0,,,,,,,,,yellow,flipped triangle
0.0,7.0,2.0,1.0,6.0,6.0,452.9865208314731,7.0,1.0,phase_2,go,300.0,300.0,1.0,,,,,,,,,green,I
0.0,6.0,1.0,1.0,5.0,5.0,352.6958426227793,7.0,1.0,phase_2,go,300.0,300.0,1.0,,,,,,,,,magenta,square
0.0,7.0,2.0,1.0,5.0,5.0,408.4424957400188,7.0,1.0,phase_2,go,300.0,300.0,1.0,,,,,,,,,green,I
0.0,2.0,1.0,0.0,6.0,6.0,376.9553047604859,7.0,1.0,phase_2,go,300.0,300.0,1.0,,,,,,,,,cyan,diamond
0.0,6.0,1.0,1.0,6.0,0.0,0.0,8.0,1.0,phase_2,stop,300.0,300.0,4.0,,,,,,,,,magenta,square
0.0,7.0,2.0,1.0,5.0,5.0,337.4306058976799,8.0,1.0,phase_2,stop,300.0,350.0,3.0,,,,,,,,,green,I
0.0,5.0,0.5,1.0,6.0,6.0,304.0685086743906,8.0,1.0,phase_2,go,250.0,350.0,1.0,,,,,,,,,blue,triangle
0.0,6.0,1.0,1.0,6.0,6.0,349.5049480115995,8.0,1.0,phase_2,stop,250.0,350.0,3.0,,,,,,,,,magenta,square
0.0,8.0,4.0,1.0,6.0,6.0,417.3917878651991,8.0,1.0,phase_2,go,250.0,300.0,1.0,,,,,,,,,gray,hexagon
0.0,6.0,1.0,1.0,5.0,5.0,397.4103957298212,8.0,1.0,phase_2,go,250.0,300.0,1.0,,,,,,,,,magenta,square
0.0,1.0,0.5,0.0,6.0,6.0,272.4978767218999,8.0,1.0,phase_2,go,250.0,300.0,1.0,,,,,,,,,yellow,flipped triangle
0.0,7.0,2.0,1.0,5.0,5.0,353.7191249779425,8.0,1.0,phase_2,go,250.0,300.0,1.0,,,,,,,,,green,I
0.0,4.0,4.0,0.0,5.0,5.0,354.8608886776492,8.0,1.0,phase_2,go,250.0,300.0,1.0,,,,,,,,,orange,cross
0.0,7.0,2.0,1.0,6.0,6.0,298.1450397055596,8.0,1.0,phase_2,go,250.0,300.0,1.0,,,,,,,,,green,I
0.0,2.0,1.0,0.0,6.0,6.0,568.3239418431185,8.0,1.0,phase_2,go,250.0,300.0,1.0,,,,,,,,,cyan,diamond
0.0,6.0,1.0,1.0,5.0,5.0,368.1715620332397,8.0,1.0,phase_2,stop,250.0,300.0,3.0,,,,,,,,,magenta,square
0.0,8.0,4.0,1.0,5.0,0.0,0.0,8.0,1.0,phase_2,stop,200.0,300.0,4.0,,,,,,,,,gray,hexagon
0.0,1.0,0.5,0.0,6.0,6.0,561.5897148381919,8.0,1.0,phase_2,go,250.0,300.0,1.0,,,,,,,,,yellow,flipped triangle
0.0,8.0,4.0,1.0,6.0,0.0,0.0,8.0,1.0,phase_2,stop,250.0,300.0,4.0,,,,,,,,,gray,hexagon
0.0,7.0,2.0,1.0,6.0,0.0,0.0,8.0,1.0,phase_2,stop,250.0,350.0,4.0,,,,,,,,,green,I
0.0,5.0,0.5,1.0,6.0,6.0,597.5659115356393,8.0,1.0,phase_2,go,250.0,400.0,1.0,,,,,,,,,blue,triangle
0.0,8.0,4.0,1.0,5.0,0.0,0.0,8.0,1.0,phase_2,stop,250.0,400.0,4.0,,,,,,,,,gray,hexagon
0.0,2.0,1.0,0.0,6.0,6.0,475.5558807519264,8.0,1.0,phase_2,go,300.0,400.0,1.0,,,,,,,,,cyan,diamond
0.0,2.0,1.0,0.0,5.0,5.0,329.0180738549679,8.0,1.0,phase_2,go,300.0,400.0,1.0,,,,,,,,,cyan,diamond
0.0,3.0,2.0,0.0,6.0,6.0,342.0871846028603,8.0,1.0,phase_2,go,300.0,400.0,1.0,,,,,,,,,white,circle
0.0,7.0,2.0,1.0,5.0,5.0,342.6503735827282,8.0,1.0,phase_2,stop,300.0,400.0,3.0,,,,,,,,,green,I
0.0,2.0,1.0,0.0,5.0,5.0,488.6752145830542,8.0,1.0,phase_2,go,250.0,400.0,1.0,,,,,,,,,cyan,diamond
0.0,8.0,4.0,1.0,6.0,6.0,399.2934378329664,8.0,1.0,phase_2,go,250.0,400.0,1.0,,,,,,,,,gray,hexagon
0.0,7.0,2.0,1.0,6.0,6.0,546.0011938703246,8.0,1.0,phase_2,stop,250.0,400.0,3.0,,,,,,,,,green,I
0.0,7.0,2.0,1.0,6.0,0.0,0.0,8.0,1.0,phase_2,stop,250.0,350.0,4.0,,,,,,,,,green,I
0.0,3.0,2.0,0.0,5.0,5.0,324.2631049943156,8.0,1.0,phase_2,go,250.0,400.0,1.0,,,,,,,,,white,circle
0.0,7.0,2.0,1.0,6.0,0.0,0.0,8.0,1.0,phase_2,stop,250.0,400.0,4.0,,,,,,,,,green,I
0.0,6.0,1.0,1.0,5.0,5.0,607.4439718504436,8.0,1.0,phase_2,go,250.0,450.0,1.0,,,,,,,,,magenta,square
0.0,6.0,1.0,1.0,6.0,6.0,348.1831718818284,8.0,1.0,phase_2,stop,250.0,450.0,3.0,,,,,,,,,magenta,square
0.0,3.0,2.0,0.0,6.0,6.0,461.6043398273177,8.0,1.0,phase_2,go,250.0,400.0,1.0,,,,,,,,,white,circle
0.0,1.0,0.5,0.0,5.0,5.0,608.9181604911573,8.0,1.0,phase_2,go,250.0,400.0,1.0,,,,,,,,,yellow,flipped triangle
0.0,2.0,1.0,0.0,5.0,6.0,566.1701030330732,8.0,1.0,phase_2,go,250.0,400.0,2.0,,,,,,,,,cyan,diamond
0.0,8.0,4.0,1.0,5.0,5.0,532.8845544718206,8.0,1.0,phase_2,go,250.0,400.0,1.0,,,,,,,,,gray,hexagon
0.0,6.0,1.0,1.0,5.0,0.0,0.0,8.0,1.0,phase_2,stop,250.0,400.0,4.0,,,,,,,,,magenta,square
0.0,3.0,2.0,0.0,5.0,5.0,533.5637836833484,8.0,1.0,phase_2,go,300.0,400.0,1.0,,,,,,,,,white,circle
0.0,3.0,2.0,0.0,7.0,5.0,1062.7292318968102,1.0,2.0,phase_3,,,,,195.0,5.0,156.0,78.0,234.0,117.0,195.0,39.0,white,circle
0.0,5.0,0.5,1.0,7.0,1.0,2346.136426902376,1.0,1.0,phase_3,,,,,162.0,3.0,162.0,324.0,54.0,270.0,216.0,108.0,blue,triangle
0.0,6.0,1.0,1.0,7.0,5.0,2191.4255797164515,1.0,1.0,phase_3,,,,,234.0,6.0,156.0,117.0,78.0,195.0,234.0,39.0,magenta,square
0.0,3.0,2.0,0.0,7.0,6.0,1437.2398916748352,1.0,1.0,phase_3,,,,,136.0,4.0,68.0,170.0,204.0,34.0,102.0,136.0,white,circle
0.0,2.0,1.0,0.0,7.0,1.0,1426.6595529625192,1.0,1.0,phase_3,,,,,136.0,4.0,136.0,68.0,170.0,34.0,204.0,102.0,cyan,diamond
0.0,6.0,1.0,1.0,7.0,2.0,1947.3011716618205,1.0,1.0,phase_3,,,,,98.0,2.0,49.0,98.0,294.0,147.0,245.0,196.0,magenta,square
0.0,1.0,0.5,0.0,7.0,3.0,1215.560924902093,1.0,1.0,phase_3,,,,,204.0,6.0,34.0,170.0,204.0,102.0,136.0,68.0,yellow,flipped triangle
0.0,6.0,1.0,1.0,7.0,6.0,1891.122817993164,1.0,1.0,phase_3,,,,,136.0,4.0,204.0,68.0,102.0,170.0,34.0,136.0,magenta,square
0.0,2.0,1.0,0.0,7.0,2.0,1442.732471798081,1.0,1.0,phase_3,,,,,264.0,6.0,220.0,264.0,132.0,44.0,88.0,176.0,cyan,diamond
0.0,8.0,4.0,1.0,7.0,3.0,1489.568595890887,1.0,1.0,phase_3,,,,,34.0,1.0,204.0,170.0,34.0,102.0,136.0,68.0,gray,hexagon
0.0,5.0,0.5,1.0,7.0,1.0,1534.8408177378587,1.0,1.0,phase_3,,,,,78.0,2.0,78.0,117.0,195.0,39.0,156.0,234.0,blue,triangle
0.0,3.0,2.0,0.0,7.0,2.0,1569.955494836904,1.0,1.0,phase_3,,,,,195.0,5.0,117.0,195.0,78.0,39.0,234.0,156.0,white,circle
0.0,3.0,2.0,0.0,7.0,5.0,1099.108377005905,1.0,1.0,phase_3,,,,,176.0,4.0,88.0,220.0,264.0,132.0,176.0,44.0,white,circle
0.0,7.0,2.0,1.0,7.0,4.0,1314.3031919607893,1.0,1.0,phase_3,,,,,49.0,1.0,196.0,147.0,294.0,49.0,98.0,245.0,green,I
0.0,5.0,0.5,1.0,7.0,5.0,1416.3524599862285,1.0,1.0,phase_3,,,,,49.0,1.0,196.0,294.0,245.0,98.0,49.0,147.0,blue,triangle
0.0,6.0,1.0,1.0,7.0,6.0,2171.652642893605,1.0,1.0,phase_3,,,,,132.0,3.0,176.0,220.0,44.0,264.0,88.0,132.0,magenta,square
0.0,5.0,0.5,1.0,7.0,3.0,2013.5378258419223,1.0,1.0,phase_3,,,,,234.0,6.0,39.0,156.0,234.0,195.0,78.0,117.0,blue,triangle
0.0,7.0,2.0,1.0,7.0,1.0,1125.925209664274,1.0,1.0,phase_3,,,,,196.0,4.0,196.0,147.0,49.0,98.0,245.0,294.0,green,I
0.0,8.0,4.0,1.0,7.0,2.0,993.125531997066,1.0,1.0,phase_3,,,,,147.0,3.0,196.0,147.0,49.0,245.0,294.0,98.0,gray,hexagon
0.0,6.0,1.0,1.0,7.0,3.0,1196.490314847324,1.0,1.0,phase_3,,,,,220.0,5.0,264.0,44.0,220.0,176.0,132.0,88.0,magenta,square
0.0,5.0,0.5,1.0,7.0,1.0,770.2270698500797,2.0,1.0,phase_3,,,,,176.0,4.0,176.0,44.0,264.0,220.0,88.0,132.0,blue,triangle
0.0,7.0,2.0,1.0,7.0,5.0,1142.944715975318,2.0,1.0,phase_3,,,,,78.0,2.0,195.0,39.0,156.0,234.0,78.0,117.0,green,I
0.0,6.0,1.0,1.0,7.0,1.0,1548.9190038642846,2.0,1.0,phase_3,,,,,294.0,6.0,294.0,49.0,245.0,196.0,147.0,98.0,magenta,square
0.0,4.0,4.0,0.0,7.0,4.0,1573.2016037218273,2.0,1.0,phase_3,,,,,49.0,1.0,245.0,196.0,147.0,49.0,98.0,294.0,orange,cross
0.0,2.0,1.0,0.0,7.0,5.0,1505.58884779457,2.0,1.0,phase_3,,,,,195.0,5.0,117.0,39.0,156.0,78.0,195.0,234.0,cyan,diamond
0.0,8.0,4.0,1.0,7.0,1.0,1609.2952289618552,2.0,1.0,phase_3,,,,,220.0,5.0,220.0,88.0,44.0,264.0,132.0,176.0,gray,hexagon
0.0,1.0,0.5,0.0,7.0,6.0,2160.738881735597,2.0,1.0,phase_3,,,,,49.0,1.0,98.0,196.0,245.0,147.0,294.0,49.0,yellow,flipped triangle
0.0,2.0,1.0,0.0,7.0,1.0,1485.832569829654,2.0,1.0,phase_3,,,,,39.0,1.0,39.0,78.0,117.0,234.0,195.0,156.0,cyan,diamond
0.0,4.0,4.0,0.0,7.0,2.0,1723.7185466801748,2.0,1.0,phase_3,,,,,68.0,2.0,102.0,68.0,34.0,170.0,204.0,136.0,orange,cross
0.0,8.0,4.0,1.0,7.0,1.0,1150.7542007602751,2.0,1.0,phase_3,,,,,39.0,1.0,39.0,117.0,195.0,78.0,234.0,156.0,gray,hexagon
0.0,1.0,0.5,0.0,7.0,1.0,1850.0869356794285,2.0,1.0,phase_3,,,,,108.0,2.0,108.0,54.0,216.0,162.0,324.0,270.0,yellow,flipped triangle
0.0,4.0,4.0,0.0,7.0,5.0,1805.4116167477328,2.0,1.0,phase_3,,,,,156.0,4.0,39.0,195.0,117.0,78.0,156.0,234.0,orange,cross
0.0,1.0,0.5,0.0,7.0,2.0,1166.9571177335456,2.0,1.0,phase_3,,,,,44.0,1.0,264.0,44.0,176.0,220.0,88.0,132.0,yellow,flipped triangle
0.0,1.0,0.5,0.0,7.0,3.0,1413.2970857899636,2.0,1.0,phase_3,,,,,49.0,1.0,147.0,196.0,49.0,294.0,98.0,245.0,yellow,flipped triangle
0.0,3.0,2.0,0.0,7.0,5.0,1596.0971188615076,2.0,1.0,phase_3,,,,,204.0,6.0,102.0,68.0,136.0,170.0,204.0,34.0,white,circle
0.0,3.0,2.0,0.0,7.0,3.0,1980.261519784108,2.0,1.0,phase_3,,,,,245.0,5.0,49.0,294.0,245.0,147.0,98.0,196.0,white,circle
0.0,7.0,2.0,1.0,7.0,1.0,1879.0729578468015,2.0,1.0,phase_3,,,,,88.0,2.0,88.0,264.0,176.0,44.0,220.0,132.0,green,I
0.0,3.0,2.0,0.0,7.0,5.0,1981.797893939074,2.0,1.0,phase_3,,,,,162.0,3.0,54.0,324.0,216.0,108.0,162.0,270.0,white,circle
0.0,6.0,1.0,1.0,7.0,1.0,1082.711756869685,2.0,1.0,phase_3,,,,,324.0,6.0,324.0,54.0,270.0,216.0,162.0,108.0,magenta,square
0.0,1.0,0.5,0.0,7.0,4.0,1600.154555751942,2.0,1.0,phase_3,,,,,54.0,1.0,162.0,270.0,324.0,54.0,216.0,108.0,yellow,flipped triangle
0.0,8.0,4.0,1.0,7.0,1.0,1243.4196598478593,3.0,1.0,phase_3,,,,,216.0,4.0,216.0,108.0,54.0,270.0,162.0,324.0,gray,hexagon
0.0,5.0,0.5,1.0,7.0,6.0,1985.4262378648853,3.0,1.0,phase_3,,,,,102.0,3.0,136.0,68.0,34.0,204.0,170.0,102.0,blue,triangle
0.0,7.0,2.0,1.0,7.0,3.0,1459.03854171047,3.0,1.0,phase_3,,,,,68.0,2.0,170.0,136.0,68.0,204.0,102.0,34.0,green,I
0.0,4.0,4.0,0.0,7.0,1.0,1246.4547059498727,3.0,1.0,phase_3,,,,,39.0,1.0,39.0,234.0,117.0,156.0,195.0,78.0,orange,cross
0.0,7.0,2.0,1.0,7.0,4.0,1380.927642865572,3.0,1.0,phase_3,,,,,68.0,2.0,102.0,136.0,170.0,68.0,34.0,204.0,green,I
0.0,2.0,1.0,0.0,7.0,4.0,1978.5545538761653,3.0,1.0,phase_3,,,,,216.0,4.0,162.0,324.0,108.0,216.0,54.0,270.0,cyan,diamond
0.0,2.0,1.0,0.0,7.0,3.0,1102.4874188005924,3.0,1.0,phase_3,,,,,102.0,3.0,68.0,170.0,102.0,136.0,204.0,34.0,cyan,diamond
0.0,2.0,1.0,0.0,7.0,3.0,1834.3966998509127,3.0,1.0,phase_3,,,,,132.0,3.0,88.0,264.0,132.0,220.0,44.0,176.0,cyan,diamond
0.0,2.0,1.0,0.0,7.0,1.0,1645.963531860616,3.0,1.0,phase_3,,,,,196.0,4.0,196.0,49.0,294.0,147.0,245.0,98.0,cyan,diamond
0.0,8.0,4.0,1.0,7.0,1.0,2456.44406467909,3.0,1.0,phase_3,,,,,108.0,2.0,108.0,162.0,270.0,216.0,54.0,324.0,gray,hexagon
0.0,7.0,2.0,1.0,7.0,2.0,1299.3835108354688,3.0,1.0,phase_3,,,,,44.0,1.0,88.0,44.0,176.0,220.0,132.0,264.0,green,I
0.0,4.0,4.0,0.0,7.0,3.0,1355.5488618439997,3.0,1.0,phase_3,,,,,88.0,2.0,220.0,264.0,88.0,44.0,132.0,176.0,orange,cross
0.0,4.0,4.0,0.0,7.0,4.0,1705.8205878711306,3.0,1.0,phase_3,,,,,68.0,2.0,136.0,170.0,34.0,68.0,102.0,204.0,orange,cross
0.0,7.0,2.0,1.0,7.0,4.0,1313.3373588789254,3.0,1.0,phase_3,,,,,39.0,1.0,195.0,234.0,156.0,39.0,117.0,78.0,green,I
0.0,5.0,0.5,1.0,7.0,2.0,1562.517326849047,3.0,1.0,phase_3,,,,,245.0,5.0,49.0,245.0,147.0,98.0,196.0,294.0,blue,triangle
0.0,7.0,2.0,1.0,7.0,4.0,1066.7613278492354,3.0,1.0,phase_3,,,,,270.0,5.0,162.0,54.0,108.0,270.0,216.0,324.0,green,I
0.0,2.0,1.0,0.0,7.0,6.0,1923.4659958747216,3.0,1.0,phase_3,,,,,98.0,2.0,294.0,245.0,196.0,147.0,49.0,98.0,cyan,diamond
0.0,1.0,0.5,0.0,7.0,2.0,1339.808720862493,3.0,1.0,phase_3,,,,,39.0,1.0,234.0,39.0,195.0,78.0,156.0,117.0,yellow,flipped triangle
0.0,4.0,4.0,0.0,7.0,1.0,1217.6655077491887,3.0,1.0,phase_3,,,,,54.0,1.0,54.0,270.0,216.0,324.0,108.0,162.0,orange,cross
0.0,8.0,4.0,1.0,7.0,5.0,1398.9884289330805,3.0,1.0,phase_3,,,,,132.0,3.0,220.0,176.0,88.0,264.0,132.0,44.0,gray,hexagon
0.0,1.0,0.5,0.0,7.0,2.0,1167.7211149362847,4.0,1.0,phase_3,,,,,34.0,1.0,170.0,34.0,204.0,68.0,102.0,136.0,yellow,flipped triangle
0.0,6.0,1.0,1.0,7.0,2.0,1292.0121810166163,4.0,1.0,phase_3,,,,,216.0,4.0,162.0,216.0,270.0,324.0,108.0,54.0,magenta,square
0.0,7.0,2.0,1.0,7.0,5.0,967.9895797744392,4.0,1.0,phase_3,,,,,54.0,1.0,270.0,324.0,162.0,216.0,54.0,108.0,green,I
0.0,1.0,0.5,0.0,7.0,3.0,1294.1953698755242,4.0,1.0,phase_3,,,,,44.0,1.0,220.0,132.0,44.0,176.0,264.0,88.0,yellow,flipped triangle
0.0,6.0,1.0,1.0,7.0,5.0,1589.3374349107037,4.0,1.0,phase_3,,,,,234.0,6.0,156.0,39.0,117.0,78.0,234.0,195.0,magenta,square
0.0,1.0,0.5,0.0,7.0,5.0,1757.752171717584,4.0,1.0,phase_3,,,,,195.0,5.0,117.0,78.0,234.0,39.0,195.0,156.0,yellow,flipped triangle
0.0,5.0,0.5,1.0,7.0,1.0,1601.6264898935333,4.0,1.0,phase_3,,,,,162.0,3.0,162.0,216.0,270.0,108.0,324.0,54.0,blue,triangle
0.0,5.0,0.5,1.0,7.0,3.0,1569.7827428230084,4.0,1.0,phase_3,,,,,220.0,5.0,176.0,88.0,220.0,44.0,132.0,264.0,blue,triangle
0.0,3.0,2.0,0.0,7.0,4.0,1627.0904489792883,4.0,1.0,phase_3,,,,,216.0,4.0,54.0,270.0,324.0,216.0,162.0,108.0,white,circle
0.0,3.0,2.0,0.0,7.0,1.0,1953.4672097070145,4.0,1.0,phase_3,,,,,220.0,5.0,220.0,44.0,88.0,132.0,176.0,264.0,white,circle
0.0,4.0,4.0,0.0,7.0,2.0,1425.4443979589269,4.0,1.0,phase_3,,,,,147.0,3.0,49.0,147.0,245.0,98.0,294.0,196.0,orange,cross
0.0,8.0,4.0,1.0,7.0,6.0,1764.8472738801502,4.0,1.0,phase_3,,,,,117.0,3.0,195.0,234.0,78.0,156.0,39.0,117.0,gray,hexagon
0.0,8.0,4.0,1.0,7.0,2.0,2778.794949932489,4.0,1.0,phase_3,,,,,204.0,6.0,170.0,204.0,136.0,34.0,102.0,68.0,gray,hexagon
0.0,2.0,1.0,0.0,7.0,2.0,2565.6704497523606,4.0,1.0,phase_3,,,,,108.0,2.0,216.0,108.0,270.0,54.0,162.0,324.0,cyan,diamond
0.0,6.0,1.0,1.0,7.0,4.0,2250.925685919356,4.0,1.0,phase_3,,,,,204.0,6.0,68.0,170.0,102.0,204.0,136.0,34.0,magenta,square
0.0,3.0,2.0,0.0,7.0,3.0,1207.7533238916658,4.0,1.0,phase_3,,,,,147.0,3.0,98.0,245.0,147.0,294.0,49.0,196.0,white,circle
0.0,4.0,4.0,0.0,7.0,5.0,1713.5677108890377,4.0,1.0,phase_3,,,,,132.0,3.0,264.0,176.0,220.0,88.0,132.0,44.0,orange,cross
0.0,8.0,4.0,1.0,7.0,4.0,1940.423935011495,4.0,1.0,phase_3,,,,,147.0,3.0,245.0,49.0,98.0,147.0,294.0,196.0,gray,hexagon
0.0,4.0,4.0,0.0,7.0,5.0,1355.5707598570734,4.0,1.0,phase_3,,,,,108.0,2.0,270.0,162.0,324.0,54.0,108.0,216.0,orange,cross
0.0,5.0,0.5,1.0,7.0,6.0,1425.0855626887642,4.0,1.0,phase_3,,,,,102.0,3.0,204.0,136.0,170.0,68.0,34.0,102.0,blue,triangle
