raw_reward_magnitude,stim_reward,stepwise_reward_magnitude,paired_with_stopping,stim_location,response,reaction_time,block,num_trial_presentations,which_phase,stop_signal_trial_type,left_SSD,right_SSD,accuracy,chosen_bidding_amount,chosen_bidding_level,possible_bid_1,possible_bid_2,possible_bid_3,possible_bid_4,possible_bid_5,possible_bid_6,color_text,shape_text
0.0,7.0,0.0,1.0,2.0,2.0,464.7564275655895,1.0,1.0,phase_1,,,,,,,,,,,,,blue,hexagon
385.0,4.0,4.0,0.0,2.0,2.0,509.9215552327223,1.0,1.0,phase_1,,,,,,,,,,,,,yellow,diamond
113.0,2.0,1.0,0.0,2.0,2.0,431.0751490993425,1.0,1.0,phase_1,,,,,,,,,,,,,cyan,cross
391.0,4.0,4.0,0.0,3.0,3.0,386.4021390909329,1.0,1.0,phase_1,,,,,,,,,,,,,yellow,diamond
214.0,7.0,2.0,1.0,3.0,3.0,376.2001351569779,1.0,1.0,phase_1,,,,,,,,,,,,,blue,hexagon
0.0,1.0,0.0,0.0,3.0,3.0,488.8690077350475,1.0,1.0,phase_1,,,,,,,,,,,,,gray,I
412.0,8.0,4.0,1.0,1.0,1.0,376.4467562432401,1.0,1.0,phase_1,,,,,,,,,,,,,orange,square
0.0,3.0,0.0,0.0,3.0,3.0,355.0211425754241,1.0,1.0,phase_1,,,,,,,,,,,,,magenta,triangle
0.0,3.0,0.0,0.0,2.0,2.0,345.1545967254787,1.0,1.0,phase_1,,,,,,,,,,,,,magenta,triangle
61.0,1.0,0.5,0.0,2.0,2.0,458.4268995677121,1.0,1.0,phase_1,,,,,,,,,,,,,gray,I
121.0,2.0,1.0,0.0,4.0,4.0,356.6464752075262,1.0,1.0,phase_1,,,,,,,,,,,,,cyan,cross
186.0,3.0,2.0,0.0,3.0,3.0,446.6806263662874,1.0,1.0,phase_1,,,,,,,,,,,,,magenta,triangle
113.0,6.0,1.0,1.0,1.0,1.0,334.9947242531925,1.0,1.0,phase_1,,,,,,,,,,,,,white,circle
98.0,2.0,1.0,0.0,1.0,1.0,450.0605092616752,1.0,1.0,phase_1,,,,,,,,,,,,,cyan,cross
179.0,3.0,2.0,0.0,4.0,4.0,348.6310081207193,1.0,1.0,phase_1,,,,,,,,,,,,,magenta,triangle
60.0,5.0,0.5,1.0,3.0,3.0,302.5329860392958,1.0,1.0,phase_1,,,,,,,,,,,,,green,flipped triangle
66.0,5.0,0.5,1.0,1.0,1.0,326.0366718750447,1.0,1.0,phase_1,,,,,,,,,,,,,green,flipped triangle
0.0,2.0,0.0,0.0,4.0,4.0,303.4192461054772,1.0,1.0,phase_1,,,,,,,,,,,,,cyan,cross
107.0,2.0,1.0,0.0,4.0,4.0,327.5718337972648,1.0,1.0,phase_1,,,,,,,,,,,,,cyan,cross
177.0,3.0,2.0,0.0,1.0,1.0,316.3368646637536,1.0,1.0,phase_1,,,,,,,,,,,,,magenta,triangle
93.0,6.0,1.0,1.0,1.0,1.0,386.0297673381865,1.0,1.0,phase_1,,,,,,,,,,,,,white,circle
377.0,8.0,4.0,1.0,3.0,3.0,350.4283432266675,1.0,1.0,phase_1,,,,,,,,,,,,,orange,square
0.0,1.0,0.0,0.0,4.0,4.0,353.4806995885446,1.0,1.0,phase_1,,,,,,,,,,,,,gray,I
30.0,5.0,0.5,1.0,1.0,1.0,319.076040177606,1.0,1.0,phase_1,,,,,,,,,,,,,green,flipped triangle
0.0,3.0,0.0,0.0,4.0,4.0,375.4601628752425,1.0,1.0,phase_1,,,,,,,,,,,,,magenta,triangle
86.0,6.0,1.0,1.0,1.0,1.0,332.2901443461887,1.0,1.0,phase_1,,,,,,,,,,,,,white,circle
422.0,4.0,4.0,0.0,1.0,1.0,320.34045108594,1.0,1.0,phase_1,,,,,,,,,,,,,yellow,diamond
184.0,7.0,2.0,1.0,4.0,4.0,446.6776492772624,1.0,2.0,phase_1,,,,,,,,,,,,,blue,hexagon
214.0,3.0,2.0,0.0,4.0,4.0,525.10093228193,1.0,1.0,phase_1,,,,,,,,,,,,,magenta,triangle
411.0,8.0,4.0,1.0,2.0,2.0,538.0854701506905,1.0,1.0,phase_1,,,,,,,,,,,,,orange,square
204.0,7.0,2.0,1.0,4.0,4.0,515.5924877617508,1.0,1.0,phase_1,,,,,,,,,,,,,blue,hexagon
70.0,5.0,0.5,1.0,4.0,4.0,402.7078705839813,1.0,1.0,phase_1,,,,,,,,,,,,,green,flipped triangle
107.0,2.0,1.0,0.0,4.0,4.0,369.4791762391105,1.0,1.0,phase_1,,,,,,,,,,,,,cyan,cross
43.0,5.0,0.5,1.0,3.0,3.0,358.5018569137901,1.0,1.0,phase_1,,,,,,,,,,,,,green,flipped triangle
397.0,8.0,4.0,1.0,4.0,4.0,426.9705535261892,1.0,1.0,phase_1,,,,,,,,,,,,,orange,square
125.0,6.0,1.0,1.0,3.0,3.0,370.2768544317223,1.0,1.0,phase_1,,,,,,,,,,,,,white,circle
415.0,8.0,4.0,1.0,3.0,3.0,314.3385087605566,1.0,1.0,phase_1,,,,,,,,,,,,,orange,square
415.0,4.0,4.0,0.0,4.0,4.0,338.3895510341972,1.0,1.0,phase_1,,,,,,,,,,,,,yellow,diamond
107.0,2.0,1.0,0.0,1.0,1.0,439.9436801904812,1.0,1.0,phase_1,,,,,,,,,,,,,cyan,cross
92.0,6.0,1.0,1.0,1.0,1.0,397.4423296749592,1.0,1.0,phase_1,,,,,,,,,,,,,white,circle
390.0,8.0,4.0,1.0,1.0,1.0,330.5445911246352,1.0,1.0,phase_1,,,,,,,,,,,,,orange,square
125.0,2.0,1.0,0.0,4.0,4.0,408.6532317451201,1.0,1.0,phase_1,,,,,,,,,,,,,cyan,cross
37.0,1.0,0.5,0.0,2.0,2.0,510.3438652586192,1.0,1.0,phase_1,,,,,,,,,,,,,gray,I
116.0,2.0,1.0,0.0,4.0,4.0,353.5154632409103,1.0,1.0,phase_1,,,,,,,,,,,,,cyan,cross
210.0,7.0,2.0,1.0,1.0,1.0,387.4374447041191,1.0,1.0,phase_1,,,,,,,,,,,,,blue,hexagon
0.0,3.0,0.0,0.0,3.0,3.0,398.9077599253505,1.0,1.0,phase_1,,,,,,,,,,,,,magenta,triangle
196.0,3.0,2.0,0.0,4.0,4.0,376.3693490764126,1.0,1.0,phase_1,,,,,,,,,,,,,magenta,triangle
0.0,5.0,0.0,1.0,1.0,1.0,344.1951578133739,1.0,1.0,phase_1,,,,,,,,,,,,,green,flipped triangle
416.0,8.0,4.0,1.0,4.0,4.0,367.4195333733223,1.0,1.0,phase_1,,,,,,,,,,,,,orange,square
407.0,8.0,4.0,1.0,2.0,2.0,301.009360817261,1.0,1.0,phase_1,,,,,,,,,,,,,orange,square
198.0,7.0,2.0,1.0,3.0,3.0,436.0196236521005,1.0,1.0,phase_1,,,,,,,,,,,,,blue,hexagon
0.0,1.0,0.0,0.0,2.0,2.0,380.2829415653832,1.0,1.0,phase_1,,,,,,,,,,,,,gray,I
93.0,2.0,1.0,0.0,1.0,1.0,392.0850101858377,1.0,2.0,phase_1,,,,,,,,,,,,,cyan,cross
402.0,4.0,4.0,0.0,3.0,3.0,347.3874132614583,1.0,1.0,phase_1,,,,,,,,,,,,,yellow,diamond
37.0,5.0,0.5,1.0,2.0,2.0,338.5104716289788,1.0,1.0,phase_1,,,,,,,,,,,,,green,flipped triangle
118.0,6.0,1.0,1.0,2.0,2.0,429.155976162292,1.0,1.0,phase_1,,,,,,,,,,,,,white,circle
387.0,4.0,4.0,0.0,2.0,2.0,338.1680108141154,1.0,1.0,phase_1,,,,,,,,,,,,,yellow,diamond
60.0,1.0,0.5,0.0,4.0,4.0,360.8837945503182,1.0,1.0,phase_1,,,,,,,,,,,,,gray,I
377.0,4.0,4.0,0.0,3.0,3.0,530.3589680115692,1.0,1.0,phase_1,,,,,,,,,,,,,yellow,diamond
85.0,6.0,1.0,1.0,4.0,4.0,451.4351151301525,1.0,1.0,phase_1,,,,,,,,,,,,,white,circle
87.0,6.0,1.0,1.0,3.0,3.0,361.9809572119266,1.0,1.0,phase_1,,,,,,,,,,,,,white,circle
0.0,5.0,0.0,1.0,4.0,4.0,340.9438956878148,1.0,1.0,phase_1,,,,,,,,,,,,,green,flipped triangle
51.0,5.0,0.5,1.0,1.0,1.0,398.3044849592261,1.0,1.0,phase_1,,,,,,,,,,,,,green,flipped triangle
83.0,2.0,1.0,0.0,1.0,1.0,488.7296625529416,1.0,2.0,phase_1,,,,,,,,,,,,,cyan,cross
0.0,2.0,0.0,0.0,2.0,2.0,658.0461546545848,1.0,1.0,phase_1,,,,,,,,,,,,,cyan,cross
111.0,2.0,1.0,0.0,1.0,1.0,604.0460923686624,1.0,1.0,phase_1,,,,,,,,,,,,,cyan,cross
122.0,6.0,1.0,1.0,4.0,4.0,614.3799702986144,1.0,1.0,phase_1,,,,,,,,,,,,,white,circle
177.0,3.0,2.0,0.0,2.0,2.0,356.5213067340664,1.0,1.0,phase_1,,,,,,,,,,,,,magenta,triangle
92.0,2.0,1.0,0.0,3.0,3.0,423.805070691742,1.0,1.0,phase_1,,,,,,,,,,,,,cyan,cross
0.0,4.0,0.0,0.0,1.0,1.0,403.8429370848462,1.0,1.0,phase_1,,,,,,,,,,,,,yellow,diamond
92.0,6.0,1.0,1.0,2.0,2.0,516.3607035647146,1.0,1.0,phase_1,,,,,,,,,,,,,white,circle
217.0,7.0,2.0,1.0,2.0,2.0,459.8420387483202,1.0,1.0,phase_1,,,,,,,,,,,,,blue,hexagon
82.0,6.0,1.0,1.0,4.0,4.0,539.517987286672,1.0,1.0,phase_1,,,,,,,,,,,,,white,circle
409.0,4.0,4.0,0.0,3.0,3.0,550.6468043313362,1.0,1.0,phase_1,,,,,,,,,,,,,yellow,diamond
66.0,1.0,0.5,0.0,1.0,1.0,461.5390953258611,1.0,1.0,phase_1,,,,,,,,,,,,,gray,I
78.0,2.0,1.0,0.0,2.0,2.0,404.8935723258182,1.0,1.0,phase_1,,,,,,,,,,,,,cyan,cross
394.0,4.0,4.0,0.0,3.0,3.0,428.6089911474846,1.0,1.0,phase_1,,,,,,,,,,,,,yellow,diamond
184.0,3.0,2.0,0.0,4.0,4.0,508.21315607754514,1.0,1.0,phase_1,,,,,,,,,,,,,magenta,triangle
116.0,6.0,1.0,1.0,4.0,4.0,441.116509726271,1.0,1.0,phase_1,,,,,,,,,,,,,white,circle
214.0,7.0,2.0,1.0,4.0,4.0,430.9555596555583,1.0,1.0,phase_1,,,,,,,,,,,,,blue,hexagon
421.0,8.0,4.0,1.0,4.0,4.0,340.6778342323378,1.0,1.0,phase_1,,,,,,,,,,,,,orange,square
412.0,4.0,4.0,0.0,1.0,1.0,376.1450815945864,1.0,1.0,phase_1,,,,,,,,,,,,,yellow,diamond
186.0,7.0,2.0,1.0,1.0,1.0,363.9520120341331,1.0,1.0,phase_1,,,,,,,,,,,,,blue,hexagon
215.0,3.0,2.0,0.0,1.0,1.0,366.583278926555,1.0,1.0,phase_1,,,,,,,,,,,,,magenta,triangle
85.0,2.0,1.0,0.0,3.0,3.0,488.1439632736146,1.0,1.0,phase_1,,,,,,,,,,,,,cyan,cross
74.0,1.0,0.5,0.0,4.0,4.0,422.414718545042,1.0,1.0,phase_1,,,,,,,,,,,,,gray,I
99.0,2.0,1.0,0.0,4.0,4.0,434.1474688262678,1.0,1.0,phase_1,,,,,,,,,,,,,cyan,cross
0.0,6.0,0.0,1.0,3.0,3.0,524.5747592416592,1.0,1.0,phase_1,,,,,,,,,,,,,white,circle
0.0,7.0,0.0,1.0,3.0,3.0,389.8504739627242,1.0,1.0,phase_1,,,,,,,,,,,,,blue,hexagon
54.0,5.0,0.5,1.0,4.0,4.0,538.29039784614,1.0,1.0,phase_1,,,,,,,,,,,,,green,flipped triangle
54.0,1.0,0.5,0.0,3.0,3.0,549.1798182483763,1.0,1.0,phase_1,,,,,,,,,,,,,gray,I
0.0,6.0,0.0,1.0,2.0,2.0,527.5702297803946,1.0,1.0,phase_1,,,,,,,,,,,,,white,circle
213.0,7.0,2.0,1.0,1.0,1.0,348.499906132929,1.0,1.0,phase_1,,,,,,,,,,,,,blue,hexagon
207.0,7.0,2.0,1.0,3.0,3.0,404.4883592287078,1.0,1.0,phase_1,,,,,,,,,,,,,blue,hexagon
35.0,5.0,0.5,1.0,2.0,2.0,394.3544089561328,1.0,1.0,phase_1,,,,,,,,,,,,,green,flipped triangle
107.0,6.0,1.0,1.0,2.0,2.0,348.5012702876702,1.0,1.0,phase_1,,,,,,,,,,,,,white,circle
196.0,7.0,2.0,1.0,4.0,4.0,654.2452158755623,1.0,1.0,phase_1,,,,,,,,,,,,,blue,hexagon
224.0,7.0,2.0,1.0,4.0,4.0,563.0263636121526,1.0,1.0,phase_1,,,,,,,,,,,,,blue,hexagon
0.0,1.0,0.0,0.0,2.0,2.0,622.492600698024,1.0,1.0,phase_1,,,,,,,,,,,,,gray,I
121.0,6.0,1.0,1.0,3.0,3.0,599.7924396651797,1.0,1.0,phase_1,,,,,,,,,,,,,white,circle
93.0,6.0,1.0,1.0,1.0,1.0,412.1367512852885,2.0,1.0,phase_1,,,,,,,,,,,,,white,circle
119.0,2.0,1.0,0.0,1.0,1.0,379.3109093094244,2.0,1.0,phase_1,,,,,,,,,,,,,cyan,cross
0.0,6.0,0.0,1.0,3.0,3.0,399.9846985680051,2.0,1.0,phase_1,,,,,,,,,,,,,white,circle
375.0,4.0,4.0,0.0,4.0,4.0,401.3291136943735,2.0,1.0,phase_1,,,,,,,,,,,,,yellow,diamond
420.0,8.0,4.0,1.0,4.0,4.0,379.885800066404,2.0,1.0,phase_1,,,,,,,,,,,,,orange,square
40.0,5.0,0.5,1.0,2.0,2.0,324.1320939268917,2.0,1.0,phase_1,,,,,,,,,,,,,green,flipped triangle
122.0,2.0,1.0,0.0,2.0,2.0,381.0652182437479,2.0,1.0,phase_1,,,,,,,,,,,,,cyan,cross
0.0,6.0,0.0,1.0,2.0,2.0,313.8874600990675,2.0,1.0,phase_1,,,,,,,,,,,,,white,circle
0.0,2.0,0.0,0.0,1.0,1.0,327.3488268023357,2.0,1.0,phase_1,,,,,,,,,,,,,cyan,cross
125.0,2.0,1.0,0.0,3.0,3.0,360.0551227573305,2.0,1.0,phase_1,,,,,,,,,,,,,cyan,cross
93.0,2.0,1.0,0.0,3.0,3.0,439.0471221413463,2.0,1.0,phase_1,,,,,,,,,,,,,cyan,cross
218.0,3.0,2.0,0.0,3.0,3.0,439.3450971110724,2.0,1.0,phase_1,,,,,,,,,,,,,magenta,triangle
54.0,1.0,0.5,0.0,1.0,1.0,374.117114348337,2.0,1.0,phase_1,,,,,,,,,,,,,gray,I
72.0,1.0,0.5,0.0,4.0,4.0,351.3964317389764,2.0,1.0,phase_1,,,,,,,,,,,,,gray,I
56.0,1.0,0.5,0.0,3.0,3.0,352.5103726424277,2.0,1.0,phase_1,,,,,,,,,,,,,gray,I
0.0,2.0,0.0,0.0,1.0,1.0,396.9039643416181,2.0,1.0,phase_1,,,,,,,,,,,,,cyan,cross
0.0,7.0,0.0,1.0,3.0,3.0,353.0615446506999,2.0,1.0,phase_1,,,,,,,,,,,,,blue,hexagon
405.0,4.0,4.0,0.0,4.0,4.0,308.4709770046174,2.0,1.0,phase_1,,,,,,,,,,,,,yellow,diamond
382.0,8.0,4.0,1.0,4.0,4.0,387.8189742099494,2.0,1.0,phase_1,,,,,,,,,,,,,orange,square
188.0,3.0,2.0,0.0,2.0,2.0,567.5012085703202,2.0,1.0,phase_1,,,,,,,,,,,,,magenta,triangle
199.0,7.0,2.0,1.0,3.0,3.0,648.0742251733318,2.0,1.0,phase_1,,,,,,,,,,,,,blue,hexagon
25.0,1.0,0.5,0.0,4.0,4.0,412.4863871838897,2.0,1.0,phase_1,,,,,,,,,,,,,gray,I
192.0,7.0,2.0,1.0,3.0,3.0,379.0896231657825,2.0,1.0,phase_1,,,,,,,,,,,,,blue,hexagon
0.0,4.0,0.0,0.0,1.0,1.0,322.5192836835049,2.0,1.0,phase_1,,,,,,,,,,,,,yellow,diamond
188.0,7.0,2.0,1.0,2.0,2.0,357.966011215467,2.0,1.0,phase_1,,,,,,,,,,,,,blue,hexagon
0.0,7.0,0.0,1.0,3.0,3.0,357.9221112304367,2.0,1.0,phase_1,,,,,,,,,,,,,blue,hexagon
50.0,5.0,0.5,1.0,3.0,3.0,380.6308017810806,2.0,1.0,phase_1,,,,,,,,,,,,,green,flipped triangle
414.0,4.0,4.0,0.0,2.0,2.0,382.2127751191146,2.0,1.0,phase_1,,,,,,,,,,,,,yellow,diamond
51.0,5.0,0.5,1.0,3.0,3.0,381.0004875413142,2.0,1.0,phase_1,,,,,,,,,,,,,green,flipped triangle
71.0,5.0,0.5,1.0,1.0,1.0,337.9118041484616,2.0,1.0,phase_1,,,,,,,,,,,,,green,flipped triangle
211.0,7.0,2.0,1.0,4.0,4.0,337.9028637427836,2.0,1.0,phase_1,,,,,,,,,,,,,blue,hexagon
176.0,7.0,2.0,1.0,4.0,4.0,338.0431925761513,2.0,1.0,phase_1,,,,,,,,,,,,,blue,hexagon
0.0,5.0,0.0,1.0,4.0,4.0,417.440643068403,2.0,1.0,phase_1,,,,,,,,,,,,,green,flipped triangle
177.0,7.0,2.0,1.0,1.0,1.0,430.8219342492521,2.0,1.0,phase_1,,,,,,,,,,,,,blue,hexagon
422.0,8.0,4.0,1.0,2.0,2.0,329.7639917582273,2.0,1.0,phase_1,,,,,,,,,,,,,orange,square
0.0,7.0,0.0,1.0,4.0,4.0,452.8890592046082,2.0,1.0,phase_1,,,,,,,,,,,,,blue,hexagon
0.0,5.0,0.0,1.0,1.0,1.0,295.8544851280749,2.0,1.0,phase_1,,,,,,,,,,,,,green,flipped triangle
394.0,8.0,4.0,1.0,3.0,3.0,430.7729627471417,2.0,1.0,phase_1,,,,,,,,,,,,,orange,square
180.0,3.0,2.0,0.0,3.0,3.0,466.8520507984794,2.0,1.0,phase_1,,,,,,,,,,,,,magenta,triangle
415.0,4.0,4.0,0.0,3.0,3.0,308.659692236688,2.0,1.0,phase_1,,,,,,,,,,,,,yellow,diamond
119.0,6.0,1.0,1.0,3.0,3.0,388.3712470997125,2.0,1.0,phase_1,,,,,,,,,,,,,white,circle
0.0,7.0,0.0,1.0,2.0,2.0,411.0708427615464,2.0,1.0,phase_1,,,,,,,,,,,,,blue,hexagon
25.0,5.0,0.5,1.0,1.0,1.0,310.8603686559945,2.0,1.0,phase_1,,,,,,,,,,,,,green,flipped triangle
218.0,7.0,2.0,1.0,4.0,4.0,445.3855233150534,2.0,1.0,phase_1,,,,,,,,,,,,,blue,hexagon
214.0,3.0,2.0,0.0,3.0,3.0,369.1786538693122,2.0,1.0,phase_1,,,,,,,,,,,,,magenta,triangle
208.0,3.0,2.0,0.0,3.0,3.0,334.4160845736041,2.0,1.0,phase_1,,,,,,,,,,,,,magenta,triangle
113.0,6.0,1.0,1.0,2.0,2.0,380.3455905872397,2.0,1.0,phase_1,,,,,,,,,,,,,white,circle
179.0,7.0,2.0,1.0,2.0,2.0,517.1034591039643,2.0,1.0,phase_1,,,,,,,,,,,,,blue,hexagon
98.0,6.0,1.0,1.0,4.0,4.0,696.6302406508476,2.0,1.0,phase_1,,,,,,,,,,,,,white,circle
197.0,3.0,2.0,0.0,4.0,4.0,550.14433368342,2.0,1.0,phase_1,,,,,,,,,,,,,magenta,triangle
107.0,2.0,1.0,0.0,1.0,1.0,338.0694628576748,2.0,1.0,phase_1,,,,,,,,,,,,,cyan,cross
396.0,4.0,4.0,0.0,3.0,3.0,326.3841999578289,2.0,1.0,phase_1,,,,,,,,,,,,,yellow,diamond
57.0,1.0,0.5,0.0,1.0,1.0,338.6695456574671,2.0,1.0,phase_1,,,,,,,,,,,,,gray,I
384.0,4.0,4.0,0.0,4.0,4.0,463.1431852467358,2.0,1.0,phase_1,,,,,,,,,,,,,yellow,diamond
220.0,3.0,2.0,0.0,1.0,1.0,340.1088306563906,2.0,1.0,phase_1,,,,,,,,,,,,,magenta,triangle
380.0,8.0,4.0,1.0,1.0,1.0,339.9870232096873,2.0,1.0,phase_1,,,,,,,,,,,,,orange,square
0.0,1.0,0.0,0.0,2.0,2.0,522.4372508237138,2.0,1.0,phase_1,,,,,,,,,,,,,gray,I
418.0,8.0,4.0,1.0,3.0,3.0,420.5655700643547,2.0,1.0,phase_1,,,,,,,,,,,,,orange,square
213.0,3.0,2.0,0.0,3.0,3.0,442.7082998445257,2.0,1.0,phase_1,,,,,,,,,,,,,magenta,triangle
413.0,8.0,4.0,1.0,2.0,2.0,330.9840699075721,2.0,1.0,phase_1,,,,,,,,,,,,,orange,square
0.0,8.0,0.0,1.0,1.0,1.0,332.0693129790015,2.0,1.0,phase_1,,,,,,,,,,,,,orange,square
207.0,3.0,2.0,0.0,2.0,2.0,502.7010491467081,2.0,1.0,phase_1,,,,,,,,,,,,,magenta,triangle
0.0,5.0,0.0,1.0,4.0,4.0,400.821371236816,2.0,1.0,phase_1,,,,,,,,,,,,,green,flipped triangle
415.0,8.0,4.0,1.0,4.0,4.0,401.28736034967,2.0,1.0,phase_1,,,,,,,,,,,,,orange,square
102.0,2.0,1.0,0.0,3.0,3.0,424.0620778291486,2.0,1.0,phase_1,,,,,,,,,,,,,cyan,cross
200.0,3.0,2.0,0.0,2.0,2.0,448.5168785904534,2.0,1.0,phase_1,,,,,,,,,,,,,magenta,triangle
381.0,8.0,4.0,1.0,2.0,2.0,323.1980378041044,2.0,1.0,phase_1,,,,,,,,,,,,,orange,square
111.0,2.0,1.0,0.0,2.0,2.0,325.4107861430384,2.0,1.0,phase_1,,,,,,,,,,,,,cyan,cross
189.0,7.0,2.0,1.0,3.0,3.0,391.6596875642426,2.0,1.0,phase_1,,,,,,,,,,,,,blue,hexagon
35.0,5.0,0.5,1.0,2.0,2.0,349.3351298966445,2.0,1.0,phase_1,,,,,,,,,,,,,green,flipped triangle
186.0,7.0,2.0,1.0,2.0,2.0,395.2731322497129,2.0,1.0,phase_1,,,,,,,,,,,,,blue,hexagon
410.0,8.0,4.0,1.0,2.0,2.0,372.6911713019945,2.0,1.0,phase_1,,,,,,,,,,,,,orange,square
0.0,8.0,0.0,1.0,4.0,4.0,506.25750166364014,2.0,1.0,phase_1,,,,,,,,,,,,,orange,square
204.0,7.0,2.0,1.0,1.0,1.0,328.2193407649174,2.0,1.0,phase_1,,,,,,,,,,,,,blue,hexagon
378.0,8.0,4.0,1.0,3.0,3.0,350.7368862628937,2.0,1.0,phase_1,,,,,,,,,,,,,orange,square
35.0,1.0,0.5,0.0,4.0,4.0,565.0904578506015,2.0,1.0,phase_1,,,,,,,,,,,,,gray,I
416.0,4.0,4.0,0.0,1.0,1.0,375.9063472389243,2.0,1.0,phase_1,,,,,,,,,,,,,yellow,diamond
25.0,1.0,0.5,0.0,2.0,2.0,364.7863056394271,2.0,1.0,phase_1,,,,,,,,,,,,,gray,I
62.0,5.0,0.5,1.0,2.0,2.0,376.5957388095557,2.0,2.0,phase_1,,,,,,,,,,,,,green,flipped triangle
184.0,3.0,2.0,0.0,1.0,1.0,421.7320136376656,2.0,1.0,phase_1,,,,,,,,,,,,,magenta,triangle
0.0,3.0,0.0,0.0,1.0,1.0,603.3673917991109,2.0,1.0,phase_1,,,,,,,,,,,,,magenta,triangle
194.0,7.0,2.0,1.0,1.0,1.0,344.826853252016,2.0,1.0,phase_1,,,,,,,,,,,,,blue,hexagon
119.0,6.0,1.0,1.0,3.0,3.0,389.2269500647671,2.0,1.0,phase_1,,,,,,,,,,,,,white,circle
199.0,3.0,2.0,0.0,3.0,3.0,378.1752738286741,2.0,1.0,phase_1,,,,,,,,,,,,,magenta,triangle
118.0,2.0,1.0,0.0,4.0,4.0,447.9915081756189,2.0,2.0,phase_1,,,,,,,,,,,,,cyan,cross
411.0,4.0,4.0,0.0,4.0,4.0,414.4712096313014,2.0,1.0,phase_1,,,,,,,,,,,,,yellow,diamond
60.0,1.0,0.5,0.0,3.0,3.0,661.9604043662548,2.0,1.0,phase_1,,,,,,,,,,,,,gray,I
36.0,1.0,0.5,0.0,1.0,1.0,583.9756751083769,2.0,1.0,phase_1,,,,,,,,,,,,,gray,I
177.0,7.0,2.0,1.0,4.0,4.0,606.2328512198292,2.0,1.0,phase_1,,,,,,,,,,,,,blue,hexagon
0.0,8.0,0.0,1.0,3.0,3.0,404.9533421639353,2.0,1.0,phase_1,,,,,,,,,,,,,orange,square
0.0,6.0,0.0,1.0,1.0,1.0,393.9565522014163,2.0,1.0,phase_1,,,,,,,,,,,,,white,circle
399.0,8.0,4.0,1.0,2.0,2.0,406.2868185574189,2.0,1.0,phase_1,,,,,,,,,,,,,orange,square
396.0,8.0,4.0,1.0,1.0,1.0,486.0507157281972,2.0,1.0,phase_1,,,,,,,,,,,,,orange,square
47.0,5.0,0.5,1.0,3.0,3.0,576.1411160929129,2.0,1.0,phase_1,,,,,,,,,,,,,green,flipped triangle
29.0,5.0,0.5,1.0,2.0,2.0,441.8710892205126,2.0,1.0,phase_1,,,,,,,,,,,,,green,flipped triangle
410.0,4.0,4.0,0.0,2.0,2.0,430.7922943262383,2.0,1.0,phase_1,,,,,,,,,,,,,yellow,diamond
95.0,6.0,1.0,1.0,4.0,4.0,498.6579161486588,2.0,1.0,phase_1,,,,,,,,,,,,,white,circle
0.0,4.0,0.0,0.0,4.0,4.0,442.3652209807187,2.0,1.0,phase_1,,,,,,,,,,,,,yellow,diamond
385.0,8.0,4.0,1.0,1.0,1.0,400.0649417284876,2.0,1.0,phase_1,,,,,,,,,,,,,orange,square
405.0,8.0,4.0,1.0,1.0,1.0,457.305567106232,2.0,1.0,phase_1,,,,,,,,,,,,,orange,square
196.0,7.0,2.0,1.0,3.0,3.0,381.5542520605959,3.0,1.0,phase_1,,,,,,,,,,,,,blue,hexagon
0.0,2.0,0.0,0.0,1.0,1.0,327.14811176992947,3.0,1.0,phase_1,,,,,,,,,,,,,cyan,cross
0.0,3.0,0.0,0.0,4.0,4.0,394.941583101172,3.0,1.0,phase_1,,,,,,,,,,,,,magenta,triangle
204.0,3.0,2.0,0.0,4.0,4.0,372.1936214715242,3.0,1.0,phase_1,,,,,,,,,,,,,magenta,triangle
43.0,1.0,0.5,0.0,1.0,1.0,385.8341738814488,3.0,1.0,phase_1,,,,,,,,,,,,,gray,I
0.0,4.0,0.0,0.0,4.0,4.0,396.5921268681995,3.0,1.0,phase_1,,,,,,,,,,,,,yellow,diamond
409.0,8.0,4.0,1.0,1.0,1.0,308.6193926865235,3.0,1.0,phase_1,,,,,,,,,,,,,orange,square
66.0,5.0,0.5,1.0,4.0,4.0,408.726557798218,3.0,1.0,phase_1,,,,,,,,,,,,,green,flipped triangle
209.0,7.0,2.0,1.0,1.0,1.0,309.4601897173561,3.0,1.0,phase_1,,,,,,,,,,,,,blue,hexagon
120.0,6.0,1.0,1.0,1.0,1.0,354.020343744196,3.0,1.0,phase_1,,,,,,,,,,,,,white,circle
194.0,3.0,2.0,0.0,4.0,4.0,343.1137077277526,3.0,1.0,phase_1,,,,,,,,,,,,,magenta,triangle
0.0,1.0,0.0,0.0,4.0,4.0,410.86139815161,3.0,1.0,phase_1,,,,,,,,,,,,,gray,I
57.0,5.0,0.5,1.0,2.0,2.0,366.8027745443396,3.0,1.0,phase_1,,,,,,,,,,,,,green,flipped triangle
0.0,8.0,0.0,1.0,4.0,4.0,389.2821106710471,3.0,1.0,phase_1,,,,,,,,,,,,,orange,square
182.0,3.0,2.0,0.0,4.0,4.0,411.8556017638184,3.0,1.0,phase_1,,,,,,,,,,,,,magenta,triangle
378.0,4.0,4.0,0.0,3.0,3.0,412.2437885962426,3.0,1.0,phase_1,,,,,,,,,,,,,yellow,diamond
217.0,3.0,2.0,0.0,1.0,1.0,347.3585657193325,3.0,1.0,phase_1,,,,,,,,,,,,,magenta,triangle
82.0,2.0,1.0,0.0,3.0,3.0,335.3901952505111,3.0,1.0,phase_1,,,,,,,,,,,,,cyan,cross
33.0,5.0,0.5,1.0,2.0,2.0,494.1193407285027,3.0,1.0,phase_1,,,,,,,,,,,,,green,flipped triangle
0.0,3.0,0.0,0.0,3.0,3.0,596.2603608495556,3.0,1.0,phase_1,,,,,,,,,,,,,magenta,triangle
402.0,8.0,4.0,1.0,3.0,3.0,472.5709183840081,3.0,1.0,phase_1,,,,,,,,,,,,,orange,square
62.0,1.0,0.5,0.0,1.0,1.0,495.1298496453091,3.0,1.0,phase_1,,,,,,,,,,,,,gray,I
208.0,7.0,2.0,1.0,1.0,1.0,361.993956612423,3.0,1.0,phase_1,,,,,,,,,,,,,blue,hexagon
107.0,6.0,1.0,1.0,3.0,3.0,350.0665337196551,3.0,1.0,phase_1,,,,,,,,,,,,,white,circle
0.0,8.0,0.0,1.0,1.0,1.0,418.0949436849914,3.0,1.0,phase_1,,,,,,,,,,,,,orange,square
35.0,1.0,0.5,0.0,3.0,3.0,441.8590520508587,3.0,1.0,phase_1,,,,,,,,,,,,,gray,I
0.0,7.0,0.0,1.0,4.0,4.0,544.4351176265627,3.0,1.0,phase_1,,,,,,,,,,,,,blue,hexagon
78.0,6.0,1.0,1.0,1.0,1.0,386.9646051898598,3.0,1.0,phase_1,,,,,,,,,,,,,white,circle
86.0,6.0,1.0,1.0,2.0,2.0,343.1049616192467,3.0,1.0,phase_1,,,,,,,,,,,,,white,circle
68.0,1.0,0.5,0.0,3.0,3.0,342.6587269059382,3.0,1.0,phase_1,,,,,,,,,,,,,gray,I
380.0,4.0,4.0,0.0,1.0,1.0,298.3359427889809,3.0,1.0,phase_1,,,,,,,,,,,,,yellow,diamond
416.0,8.0,4.0,1.0,4.0,4.0,444.9565602117218,3.0,1.0,phase_1,,,,,,,,,,,,,orange,square
0.0,1.0,0.0,0.0,2.0,2.0,354.8030248493887,3.0,1.0,phase_1,,,,,,,,,,,,,gray,I
92.0,2.0,1.0,0.0,3.0,3.0,401.112949824892,3.0,1.0,phase_1,,,,,,,,,,,,,cyan,cross
26.0,5.0,0.5,1.0,4.0,4.0,513.6149297468364,3.0,2.0,phase_1,,,,,,,,,,,,,green,flipped triangle
0.0,2.0,0.0,0.0,1.0,1.0,448.3049968257546,3.0,1.0,phase_1,,,,,,,,,,,,,cyan,cross
57.0,5.0,0.5,1.0,1.0,1.0,470.963291125372,3.0,1.0,phase_1,,,,,,,,,,,,,green,flipped triangle
0.0,8.0,0.0,1.0,1.0,1.0,358.4127195645123,3.0,1.0,phase_1,,,,,,,,,,,,,orange,square
210.0,3.0,2.0,0.0,3.0,3.0,504.52708860393614,3.0,1.0,phase_1,,,,,,,,,,,,,magenta,triangle
120.0,2.0,1.0,0.0,3.0,3.0,459.7087740548886,3.0,1.0,phase_1,,,,,,,,,,,,,cyan,cross
0.0,6.0,0.0,1.0,4.0,4.0,574.2625763523392,3.0,1.0,phase_1,,,,,,,,,,,,,white,circle
197.0,7.0,2.0,1.0,4.0,4.0,394.9223698000423,3.0,1.0,phase_1,,,,,,,,,,,,,blue,hexagon
62.0,5.0,0.5,1.0,1.0,1.0,396.0317277233116,3.0,1.0,phase_1,,,,,,,,,,,,,green,flipped triangle
384.0,8.0,4.0,1.0,1.0,1.0,417.5283716758713,3.0,1.0,phase_1,,,,,,,,,,,,,orange,square
71.0,1.0,0.5,0.0,2.0,2.0,440.6692975317128,3.0,1.0,phase_1,,,,,,,,,,,,,gray,I
52.0,1.0,0.5,0.0,3.0,3.0,430.1358652883209,3.0,1.0,phase_1,,,,,,,,,,,,,gray,I
82.0,6.0,1.0,1.0,2.0,2.0,352.2564830491319,3.0,1.0,phase_1,,,,,,,,,,,,,white,circle
0.0,8.0,0.0,1.0,2.0,2.0,375.7404272328131,3.0,1.0,phase_1,,,,,,,,,,,,,orange,square
72.0,5.0,0.5,1.0,3.0,3.0,624.2288482026197,3.0,1.0,phase_1,,,,,,,,,,,,,green,flipped triangle
0.0,3.0,0.0,0.0,2.0,2.0,409.4365643104538,3.0,1.0,phase_1,,,,,,,,,,,,,magenta,triangle
0.0,2.0,0.0,0.0,3.0,3.0,377.1626019151881,3.0,1.0,phase_1,,,,,,,,,,,,,cyan,cross
0.0,4.0,0.0,0.0,2.0,2.0,457.9798625782132,3.0,1.0,phase_1,,,,,,,,,,,,,yellow,diamond
215.0,7.0,2.0,1.0,1.0,1.0,377.7796138310805,3.0,1.0,phase_1,,,,,,,,,,,,,blue,hexagon
61.0,5.0,0.5,1.0,3.0,3.0,367.0945373596623,3.0,1.0,phase_1,,,,,,,,,,,,,green,flipped triangle
0.0,8.0,0.0,1.0,2.0,2.0,380.3559443331323,3.0,1.0,phase_1,,,,,,,,,,,,,orange,square
218.0,7.0,2.0,1.0,3.0,3.0,446.0318991914391,3.0,1.0,phase_1,,,,,,,,,,,,,blue,hexagon
420.0,4.0,4.0,0.0,4.0,4.0,526.2790679116733,3.0,1.0,phase_1,,,,,,,,,,,,,yellow,diamond
43.0,1.0,0.5,0.0,2.0,2.0,313.0035967333242,3.0,1.0,phase_1,,,,,,,,,,,,,gray,I
43.0,5.0,0.5,1.0,2.0,2.0,347.2904186928645,3.0,1.0,phase_1,,,,,,,,,,,,,green,flipped triangle
0.0,5.0,0.0,1.0,2.0,2.0,336.8015306768939,3.0,1.0,phase_1,,,,,,,,,,,,,green,flipped triangle
29.0,1.0,0.5,0.0,4.0,4.0,417.376633035019,3.0,1.0,phase_1,,,,,,,,,,,,,gray,I
399.0,4.0,4.0,0.0,1.0,1.0,315.3000882011838,3.0,1.0,phase_1,,,,,,,,,,,,,yellow,diamond
209.0,3.0,2.0,0.0,3.0,3.0,427.3200271418318,3.0,1.0,phase_1,,,,,,,,,,,,,magenta,triangle
381.0,4.0,4.0,0.0,2.0,2.0,665.7772452454083,3.0,2.0,phase_1,,,,,,,,,,,,,yellow,diamond
414.0,8.0,4.0,1.0,3.0,3.0,722.7735628257506,3.0,1.0,phase_1,,,,,,,,,,,,,orange,square
0.0,4.0,0.0,0.0,4.0,4.0,464.4248060649261,3.0,1.0,phase_1,,,,,,,,,,,,,yellow,diamond
57.0,1.0,0.5,0.0,3.0,3.0,430.3782411734573,3.0,1.0,phase_1,,,,,,,,,,,,,gray,I
220.0,7.0,2.0,1.0,2.0,2.0,567.9317566100508,3.0,1.0,phase_1,,,,,,,,,,,,,blue,hexagon
89.0,6.0,1.0,1.0,3.0,3.0,410.3435826837085,3.0,1.0,phase_1,,,,,,,,,,,,,white,circle
224.0,3.0,2.0,0.0,2.0,2.0,466.5759347262792,3.0,1.0,phase_1,,,,,,,,,,,,,magenta,triangle
0.0,2.0,0.0,0.0,3.0,3.0,421.3085285737179,3.0,1.0,phase_1,,,,,,,,,,,,,cyan,cross
86.0,6.0,1.0,1.0,4.0,4.0,511.9966035708785,3.0,1.0,phase_1,,,,,,,,,,,,,white,circle
33.0,5.0,0.5,1.0,4.0,4.0,389.4544147187844,3.0,1.0,phase_1,,,,,,,,,,,,,green,flipped triangle
0.0,1.0,0.0,0.0,2.0,2.0,333.9217421016656,3.0,1.0,phase_1,,,,,,,,,,,,,gray,I
398.0,8.0,4.0,1.0,2.0,2.0,705.3882365580648,3.0,1.0,phase_1,,,,,,,,,,,,,orange,square
68.0,5.0,0.5,1.0,4.0,4.0,505.04869973519817,3.0,1.0,phase_1,,,,,,,,,,,,,green,flipped triangle
99.0,6.0,1.0,1.0,1.0,1.0,447.9044988402165,3.0,1.0,phase_1,,,,,,,,,,,,,white,circle
382.0,4.0,4.0,0.0,1.0,1.0,358.8990441057831,3.0,1.0,phase_1,,,,,,,,,,,,,yellow,diamond
57.0,1.0,0.5,0.0,2.0,2.0,359.0930707287043,3.0,1.0,phase_1,,,,,,,,,,,,,gray,I
0.0,2.0,0.0,0.0,3.0,3.0,427.0852477056905,3.0,1.0,phase_1,,,,,,,,,,,,,cyan,cross
62.0,5.0,0.5,1.0,4.0,4.0,406.0708926408551,3.0,1.0,phase_1,,,,,,,,,,,,,green,flipped triangle
33.0,1.0,0.5,0.0,1.0,1.0,339.1080900328234,3.0,1.0,phase_1,,,,,,,,,,,,,gray,I
0.0,3.0,0.0,0.0,3.0,3.0,575.5169751355425,3.0,1.0,phase_1,,,,,,,,,,,,,magenta,triangle
0.0,2.0,0.0,0.0,4.0,4.0,464.0112195629626,3.0,1.0,phase_1,,,,,,,,,,,,,cyan,cross
188.0,3.0,2.0,0.0,2.0,2.0,384.5678172074258,3.0,1.0,phase_1,,,,,,,,,,,,,magenta,triangle
119.0,2.0,1.0,0.0,3.0,3.0,351.1580250924453,3.0,1.0,phase_1,,,,,,,,,,,,,cyan,cross
0.0,5.0,0.0,1.0,4.0,4.0,409.5594807295128,3.0,1.0,phase_1,,,,,,,,,,,,,green,flipped triangle
30.0,1.0,0.5,0.0,4.0,4.0,454.1464876383543,3.0,1.0,phase_1,,,,,,,,,,,,,gray,I
0.0,6.0,0.0,1.0,3.0,3.0,397.769900271669,3.0,1.0,phase_1,,,,,,,,,,,,,white,circle
26.0,1.0,0.5,0.0,2.0,2.0,342.6581251551397,3.0,1.0,phase_1,,,,,,,,,,,,,gray,I
79.0,6.0,1.0,1.0,1.0,1.0,378.6825116258114,3.0,1.0,phase_1,,,,,,,,,,,,,white,circle
413.0,4.0,4.0,0.0,2.0,2.0,681.3401726540178,3.0,2.0,phase_1,,,,,,,,,,,,,yellow,diamond
216.0,3.0,2.0,0.0,1.0,1.0,502.90131417568773,3.0,1.0,phase_1,,,,,,,,,,,,,magenta,triangle
99.0,2.0,1.0,0.0,2.0,2.0,582.1501366444863,3.0,1.0,phase_1,,,,,,,,,,,,,cyan,cross
192.0,3.0,2.0,0.0,2.0,2.0,616.5503251831979,3.0,1.0,phase_1,,,,,,,,,,,,,magenta,triangle
51.0,1.0,0.5,0.0,3.0,3.0,729.2464018100873,3.0,1.0,phase_1,,,,,,,,,,,,,gray,I
0.0,6.0,0.0,1.0,4.0,4.0,639.3089246121235,3.0,1.0,phase_1,,,,,,,,,,,,,white,circle
69.0,1.0,0.5,0.0,3.0,3.0,539.2297333455645,3.0,1.0,phase_1,,,,,,,,,,,,,gray,I
99.0,6.0,1.0,1.0,4.0,4.0,563.0112302605994,3.0,1.0,phase_1,,,,,,,,,,,,,white,circle
393.0,8.0,4.0,1.0,3.0,3.0,416.0362337715924,3.0,1.0,phase_1,,,,,,,,,,,,,orange,square
107.0,6.0,1.0,1.0,2.0,2.0,498.1426751473918,4.0,1.0,phase_1,,,,,,,,,,,,,white,circle
50.0,1.0,0.5,0.0,4.0,4.0,464.703774661757,4.0,2.0,phase_1,,,,,,,,,,,,,gray,I
386.0,4.0,4.0,0.0,1.0,1.0,545.2914378256537,4.0,1.0,phase_1,,,,,,,,,,,,,yellow,diamond
56.0,5.0,0.5,1.0,3.0,3.0,365.406941564288,4.0,1.0,phase_1,,,,,,,,,,,,,green,flipped triangle
57.0,5.0,0.5,1.0,3.0,3.0,388.4271656279452,4.0,1.0,phase_1,,,,,,,,,,,,,green,flipped triangle
95.0,2.0,1.0,0.0,1.0,1.0,323.0630143661983,4.0,1.0,phase_1,,,,,,,,,,,,,cyan,cross
54.0,5.0,0.5,1.0,4.0,4.0,457.3400921653956,4.0,1.0,phase_1,,,,,,,,,,,,,green,flipped triangle
0.0,3.0,0.0,0.0,3.0,3.0,334.07170814462,4.0,1.0,phase_1,,,,,,,,,,,,,magenta,triangle
188.0,7.0,2.0,1.0,1.0,1.0,480.2327581564896,4.0,1.0,phase_1,,,,,,,,,,,,,blue,hexagon
0.0,6.0,0.0,1.0,4.0,4.0,346.4088583714328,4.0,1.0,phase_1,,,,,,,,,,,,,white,circle
0.0,4.0,0.0,0.0,3.0,3.0,345.983822713606,4.0,1.0,phase_1,,,,,,,,,,,,,yellow,diamond
86.0,2.0,1.0,0.0,1.0,1.0,449.4512201054021,4.0,1.0,phase_1,,,,,,,,,,,,,cyan,cross
26.0,5.0,0.5,1.0,4.0,4.0,313.779582560528,4.0,1.0,phase_1,,,,,,,,,,,,,green,flipped triangle
26.0,1.0,0.5,0.0,4.0,4.0,393.4462998295203,4.0,1.0,phase_1,,,,,,,,,,,,,gray,I
0.0,8.0,0.0,1.0,4.0,4.0,395.2276158961467,4.0,1.0,phase_1,,,,,,,,,,,,,orange,square
111.0,6.0,1.0,1.0,3.0,3.0,339.6232480881735,4.0,1.0,phase_1,,,,,,,,,,,,,white,circle
411.0,8.0,4.0,1.0,3.0,3.0,316.1592280957848,4.0,1.0,phase_1,,,,,,,,,,,,,orange,square
200.0,7.0,2.0,1.0,2.0,2.0,361.5967327496037,4.0,1.0,phase_1,,,,,,,,,,,,,blue,hexagon
0.0,4.0,0.0,0.0,2.0,2.0,318.6405460583046,4.0,1.0,phase_1,,,,,,,,,,,,,yellow,diamond
215.0,3.0,2.0,0.0,2.0,2.0,409.0494817937724,4.0,1.0,phase_1,,,,,,,,,,,,,magenta,triangle
62.0,1.0,0.5,0.0,2.0,2.0,588.5739212390035,4.0,1.0,phase_1,,,,,,,,,,,,,gray,I
89.0,2.0,1.0,0.0,2.0,2.0,352.838386723306,4.0,1.0,phase_1,,,,,,,,,,,,,cyan,cross
409.0,4.0,4.0,0.0,2.0,2.0,521.7759376973845,4.0,1.0,phase_1,,,,,,,,,,,,,yellow,diamond
415.0,4.0,4.0,0.0,4.0,4.0,443.8868295401335,4.0,1.0,phase_1,,,,,,,,,,,,,yellow,diamond
0.0,4.0,0.0,0.0,1.0,1.0,501.8886140896939,4.0,1.0,phase_1,,,,,,,,,,,,,yellow,diamond
421.0,4.0,4.0,0.0,2.0,2.0,332.4208611738868,4.0,1.0,phase_1,,,,,,,,,,,,,yellow,diamond
51.0,1.0,0.5,0.0,1.0,1.0,400.1672841841355,4.0,1.0,phase_1,,,,,,,,,,,,,gray,I
89.0,2.0,1.0,0.0,4.0,4.0,400.4809889011085,4.0,1.0,phase_1,,,,,,,,,,,,,cyan,cross
225.0,7.0,2.0,1.0,2.0,2.0,459.5813061459921,4.0,1.0,phase_1,,,,,,,,,,,,,blue,hexagon
386.0,8.0,4.0,1.0,1.0,1.0,369.6914318716153,4.0,1.0,phase_1,,,,,,,,,,,,,orange,square
0.0,1.0,0.0,0.0,1.0,1.0,751.6239682445303,4.0,1.0,phase_1,,,,,,,,,,,,,gray,I
52.0,5.0,0.5,1.0,1.0,1.0,336.6512335487641,4.0,1.0,phase_1,,,,,,,,,,,,,green,flipped triangle
111.0,6.0,1.0,1.0,4.0,4.0,394.5920741534792,4.0,2.0,phase_1,,,,,,,,,,,,,white,circle
87.0,2.0,1.0,0.0,2.0,2.0,562.3242105939426,4.0,1.0,phase_1,,,,,,,,,,,,,cyan,cross
70.0,1.0,0.5,0.0,2.0,2.0,371.867315727286,4.0,1.0,phase_1,,,,,,,,,,,,,gray,I
0.0,7.0,0.0,1.0,4.0,4.0,406.2190110562369,4.0,1.0,phase_1,,,,,,,,,,,,,blue,hexagon
416.0,4.0,4.0,0.0,3.0,3.0,372.2036587423645,4.0,1.0,phase_1,,,,,,,,,,,,,yellow,diamond
83.0,6.0,1.0,1.0,2.0,2.0,362.3148819897324,4.0,1.0,phase_1,,,,,,,,,,,,,white,circle
379.0,8.0,4.0,1.0,4.0,4.0,397.0170641550794,4.0,1.0,phase_1,,,,,,,,,,,,,orange,square
0.0,6.0,0.0,1.0,4.0,4.0,442.0347146806307,4.0,1.0,phase_1,,,,,,,,,,,,,white,circle
125.0,6.0,1.0,1.0,2.0,2.0,465.4420448932796,4.0,1.0,phase_1,,,,,,,,,,,,,white,circle
113.0,2.0,1.0,0.0,3.0,3.0,521.9018753268756,4.0,1.0,phase_1,,,,,,,,,,,,,cyan,cross
176.0,3.0,2.0,0.0,2.0,2.0,600.7064375444315,4.0,1.0,phase_1,,,,,,,,,,,,,magenta,triangle
74.0,5.0,0.5,1.0,2.0,2.0,646.7910890933126,4.0,1.0,phase_1,,,,,,,,,,,,,green,flipped triangle
218.0,3.0,2.0,0.0,1.0,1.0,525.285960000474,4.0,1.0,phase_1,,,,,,,,,,,,,magenta,triangle
66.0,1.0,0.5,0.0,2.0,2.0,546.3185550761409,4.0,1.0,phase_1,,,,,,,,,,,,,gray,I
80.0,6.0,1.0,1.0,3.0,3.0,390.8956326195039,4.0,1.0,phase_1,,,,,,,,,,,,,white,circle
86.0,2.0,1.0,0.0,4.0,4.0,425.0403100741096,4.0,1.0,phase_1,,,,,,,,,,,,,cyan,cross
25.0,5.0,0.5,1.0,1.0,1.0,548.9380482467823,4.0,1.0,phase_1,,,,,,,,,,,,,green,flipped triangle
211.0,3.0,2.0,0.0,1.0,1.0,649.8004981549457,4.0,1.0,phase_1,,,,,,,,,,,,,magenta,triangle
407.0,4.0,4.0,0.0,2.0,2.0,629.4305811170489,4.0,1.0,phase_1,,,,,,,,,,,,,yellow,diamond
89.0,6.0,1.0,1.0,2.0,2.0,866.474604641553,4.0,1.0,phase_1,,,,,,,,,,,,,white,circle
62.0,1.0,0.5,0.0,1.0,1.0,651.4092413708568,4.0,1.0,phase_1,,,,,,,,,,,,,gray,I
0.0,5.0,0.0,1.0,4.0,4.0,495.3114103409461,4.0,1.0,phase_1,,,,,,,,,,,,,green,flipped triangle
47.0,1.0,0.5,0.0,4.0,4.0,507.34245707280934,4.0,1.0,phase_1,,,,,,,,,,,,,gray,I
184.0,7.0,2.0,1.0,2.0,2.0,440.1804581866599,4.0,1.0,phase_1,,,,,,,,,,,,,blue,hexagon
0.0,4.0,0.0,0.0,1.0,1.0,373.0956113431602,4.0,1.0,phase_1,,,,,,,,,,,,,yellow,diamond
380.0,8.0,4.0,1.0,4.0,4.0,419.3934095674194,4.0,1.0,phase_1,,,,,,,,,,,,,orange,square
36.0,5.0,0.5,1.0,3.0,3.0,532.1887542377226,4.0,1.0,phase_1,,,,,,,,,,,,,green,flipped triangle
204.0,3.0,2.0,0.0,4.0,4.0,531.0969307902269,4.0,1.0,phase_1,,,,,,,,,,,,,magenta,triangle
0.0,5.0,0.0,1.0,4.0,4.0,442.0100870775059,4.0,1.0,phase_1,,,,,,,,,,,,,green,flipped triangle
186.0,3.0,2.0,0.0,1.0,1.0,431.8605857552029,4.0,1.0,phase_1,,,,,,,,,,,,,magenta,triangle
80.0,2.0,1.0,0.0,1.0,1.0,443.2223507319577,4.0,1.0,phase_1,,,,,,,,,,,,,cyan,cross
390.0,4.0,4.0,0.0,4.0,4.0,433.2773889182135,4.0,1.0,phase_1,,,,,,,,,,,,,yellow,diamond
393.0,4.0,4.0,0.0,2.0,2.0,445.7065046299249,4.0,1.0,phase_1,,,,,,,,,,,,,yellow,diamond
79.0,2.0,1.0,0.0,4.0,4.0,366.5351455565542,4.0,1.0,phase_1,,,,,,,,,,,,,cyan,cross
379.0,4.0,4.0,0.0,1.0,1.0,277.4128750897944,4.0,1.0,phase_1,,,,,,,,,,,,,yellow,diamond
415.0,8.0,4.0,1.0,2.0,2.0,424.5664682239294,4.0,1.0,phase_1,,,,,,,,,,,,,orange,square
0.0,8.0,0.0,1.0,2.0,2.0,390.650745597668,4.0,1.0,phase_1,,,,,,,,,,,,,orange,square
0.0,1.0,0.0,0.0,3.0,3.0,457.5546050909906,4.0,1.0,phase_1,,,,,,,,,,,,,gray,I
387.0,8.0,4.0,1.0,3.0,3.0,549.1114181349985,4.0,1.0,phase_1,,,,,,,,,,,,,orange,square
189.0,3.0,2.0,0.0,4.0,4.0,537.8570247557946,4.0,1.0,phase_1,,,,,,,,,,,,,magenta,triangle
101.0,2.0,1.0,0.0,2.0,2.0,630.7115938980132,4.0,1.0,phase_1,,,,,,,,,,,,,cyan,cross
60.0,5.0,0.5,1.0,1.0,1.0,708.9905369793996,4.0,1.0,phase_1,,,,,,,,,,,,,green,flipped triangle
418.0,4.0,4.0,0.0,4.0,4.0,809.9196557304822,4.0,1.0,phase_1,,,,,,,,,,,,,yellow,diamond
0.0,5.0,0.0,1.0,4.0,4.0,427.3269027471542,4.0,1.0,phase_1,,,,,,,,,,,,,green,flipped triangle
198.0,3.0,2.0,0.0,1.0,1.0,509.1420210665092,4.0,1.0,phase_1,,,,,,,,,,,,,magenta,triangle
411.0,4.0,4.0,0.0,3.0,3.0,462.0668517309241,4.0,1.0,phase_1,,,,,,,,,,,,,yellow,diamond
40.0,1.0,0.5,0.0,1.0,1.0,813.5386566864327,4.0,1.0,phase_1,,,,,,,,,,,,,gray,I
225.0,3.0,2.0,0.0,3.0,3.0,452.4111385690048,4.0,1.0,phase_1,,,,,,,,,,,,,magenta,triangle
86.0,2.0,1.0,0.0,2.0,2.0,431.0903670848347,4.0,1.0,phase_1,,,,,,,,,,,,,cyan,cross
107.0,6.0,1.0,1.0,3.0,3.0,375.5886422586627,4.0,1.0,phase_1,,,,,,,,,,,,,white,circle
0.0,7.0,0.0,1.0,2.0,2.0,589.6025218535215,4.0,1.0,phase_1,,,,,,,,,,,,,blue,hexagon
182.0,7.0,2.0,1.0,2.0,2.0,400.1453670789487,4.0,1.0,phase_1,,,,,,,,,,,,,blue,hexagon
397.0,4.0,4.0,0.0,1.0,1.0,512.6858292496763,4.0,1.0,phase_1,,,,,,,,,,,,,yellow,diamond
196.0,3.0,2.0,0.0,2.0,2.0,467.439926113002,4.0,1.0,phase_1,,,,,,,,,,,,,magenta,triangle
180.0,7.0,2.0,1.0,3.0,3.0,321.3700575870462,4.0,1.0,phase_1,,,,,,,,,,,,,blue,hexagon
375.0,8.0,4.0,1.0,2.0,2.0,378.2871691510081,4.0,1.0,phase_1,,,,,,,,,,,,,orange,square
102.0,6.0,1.0,1.0,4.0,4.0,896.4006826863624,4.0,1.0,phase_1,,,,,,,,,,,,,white,circle
82.0,2.0,1.0,0.0,2.0,2.0,358.508052828256,4.0,1.0,phase_1,,,,,,,,,,,,,cyan,cross
215.0,7.0,2.0,1.0,2.0,2.0,357.7128942706622,4.0,1.0,phase_1,,,,,,,,,,,,,blue,hexagon
216.0,7.0,2.0,1.0,3.0,3.0,380.6403667549602,4.0,1.0,phase_1,,,,,,,,,,,,,blue,hexagon
0.0,7.0,0.0,1.0,1.0,1.0,493.4550626785494,4.0,1.0,phase_1,,,,,,,,,,,,,blue,hexagon
33.0,1.0,0.5,0.0,3.0,3.0,438.4105231147259,4.0,1.0,phase_1,,,,,,,,,,,,,gray,I
101.0,6.0,1.0,1.0,1.0,1.0,496.4637730736285,4.0,1.0,phase_1,,,,,,,,,,,,,white,circle
398.0,4.0,4.0,0.0,1.0,1.0,428.9547341759316,4.0,1.0,phase_1,,,,,,,,,,,,,yellow,diamond
380.0,4.0,4.0,0.0,4.0,4.0,371.48154014721507,4.0,1.0,phase_1,,,,,,,,,,,,,yellow,diamond
409.0,8.0,4.0,1.0,1.0,1.0,384.465652226936,4.0,1.0,phase_1,,,,,,,,,,,,,orange,square
391.0,8.0,4.0,1.0,4.0,4.0,340.2307219221256,4.0,1.0,phase_1,,,,,,,,,,,,,orange,square
69.0,5.0,0.5,1.0,4.0,4.0,498.3777202432975,4.0,1.0,phase_1,,,,,,,,,,,,,green,flipped triangle
0.0,3.0,2.0,0.0,6.0,2.0,944.3831979879178,1.0,1.0,phase_2,go,250.0,250.0,2.0,,,,,,,,,magenta,triangle
0.0,2.0,1.0,0.0,5.0,5.0,1350.8784159785137,1.0,1.0,phase_2,go,250.0,250.0,1.0,,,,,,,,,cyan,cross
0.0,1.0,0.5,0.0,6.0,6.0,565.3559169732034,1.0,1.0,phase_2,go,250.0,250.0,1.0,,,,,,,,,gray,I
0.0,2.0,1.0,0.0,6.0,6.0,420.0625980156474,1.0,1.0,phase_2,go,250.0,250.0,1.0,,,,,,,,,cyan,cross
0.0,5.0,0.5,1.0,5.0,5.0,274.8415716923773,1.0,1.0,phase_2,go,250.0,250.0,1.0,,,,,,,,,green,flipped triangle
0.0,6.0,1.0,1.0,6.0,0.0,0.0,1.0,1.0,phase_2,stop,250.0,250.0,4.0,,,,,,,,,white,circle
0.0,8.0,4.0,1.0,5.0,5.0,332.3467479785904,1.0,1.0,phase_2,stop,250.0,300.0,3.0,,,,,,,,,orange,square
0.0,2.0,1.0,0.0,5.0,5.0,456.3598333043046,1.0,1.0,phase_2,go,200.0,300.0,1.0,,,,,,,,,cyan,cross
0.0,5.0,0.5,1.0,5.0,0.0,0.0,1.0,1.0,phase_2,stop,200.0,300.0,4.0,,,,,,,,,green,flipped triangle
0.0,5.0,0.5,1.0,5.0,0.0,0.0,1.0,1.0,phase_2,stop,250.0,300.0,4.0,,,,,,,,,green,flipped triangle
0.0,3.0,2.0,0.0,6.0,6.0,358.1791730248369,1.0,1.0,phase_2,go,300.0,300.0,1.0,,,,,,,,,magenta,triangle
0.0,8.0,4.0,1.0,5.0,5.0,391.292201296892,1.0,1.0,phase_2,stop,300.0,300.0,3.0,,,,,,,,,orange,square
0.0,1.0,0.5,0.0,6.0,6.0,472.5431342958472,1.0,1.0,phase_2,go,250.0,300.0,1.0,,,,,,,,,gray,I
0.0,1.0,0.5,0.0,5.0,5.0,439.5648509962484,1.0,1.0,phase_2,go,250.0,300.0,1.0,,,,,,,,,gray,I
0.0,6.0,1.0,1.0,6.0,0.0,0.0,1.0,1.0,phase_2,stop,250.0,300.0,4.0,,,,,,,,,white,circle
0.0,5.0,0.5,1.0,5.0,0.0,0.0,1.0,1.0,phase_2,stop,250.0,350.0,4.0,,,,,,,,,green,flipped triangle
0.0,4.0,4.0,0.0,6.0,6.0,644.0911429235712,1.0,1.0,phase_2,go,300.0,350.0,1.0,,,,,,,,,yellow,diamond
0.0,4.0,4.0,0.0,5.0,5.0,588.1976510281675,1.0,1.0,phase_2,go,300.0,350.0,1.0,,,,,,,,,yellow,diamond
0.0,3.0,2.0,0.0,5.0,5.0,475.8939926396124,1.0,1.0,phase_2,go,300.0,350.0,1.0,,,,,,,,,magenta,triangle
0.0,4.0,4.0,0.0,6.0,6.0,522.8017893387005,1.0,1.0,phase_2,go,300.0,350.0,1.0,,,,,,,,,yellow,diamond
0.0,8.0,4.0,1.0,5.0,5.0,895.4570716596209,1.0,1.0,phase_2,go,300.0,350.0,1.0,,,,,,,,,orange,square
0.0,8.0,4.0,1.0,6.0,6.0,400.6853893515654,1.0,1.0,phase_2,go,300.0,350.0,1.0,,,,,,,,,orange,square
0.0,3.0,2.0,0.0,6.0,6.0,626.4464253326878,1.0,1.0,phase_2,go,300.0,350.0,1.0,,,,,,,,,magenta,triangle
0.0,5.0,0.5,1.0,6.0,6.0,480.7221253286116,1.0,1.0,phase_2,stop,300.0,350.0,3.0,,,,,,,,,green,flipped triangle
0.0,5.0,0.5,1.0,6.0,0.0,0.0,1.0,1.0,phase_2,stop,300.0,300.0,4.0,,,,,,,,,green,flipped triangle
0.0,3.0,2.0,0.0,5.0,5.0,471.5129242977127,1.0,1.0,phase_2,go,300.0,350.0,1.0,,,,,,,,,magenta,triangle
0.0,3.0,2.0,0.0,5.0,5.0,887.9706596489996,1.0,1.0,phase_2,go,300.0,350.0,1.0,,,,,,,,,magenta,triangle
0.0,7.0,2.0,1.0,5.0,0.0,0.0,1.0,1.0,phase_2,stop,300.0,350.0,4.0,,,,,,,,,blue,hexagon
0.0,4.0,4.0,0.0,6.0,6.0,844.0028183395043,1.0,1.0,phase_2,go,350.0,350.0,1.0,,,,,,,,,yellow,diamond
0.0,4.0,4.0,0.0,5.0,5.0,1216.9554569991303,1.0,1.0,phase_2,go,350.0,350.0,1.0,,,,,,,,,yellow,diamond
0.0,3.0,2.0,0.0,5.0,5.0,1060.7520139892586,1.0,1.0,phase_2,go,350.0,350.0,1.0,,,,,,,,,magenta,triangle
0.0,7.0,2.0,1.0,6.0,6.0,891.4435696788132,1.0,1.0,phase_2,go,350.0,350.0,1.0,,,,,,,,,blue,hexagon
0.0,5.0,0.5,1.0,6.0,0.0,0.0,1.0,1.0,phase_2,stop,350.0,350.0,4.0,,,,,,,,,green,flipped triangle
0.0,7.0,2.0,1.0,5.0,0.0,0.0,1.0,1.0,phase_2,stop,350.0,400.0,4.0,,,,,,,,,blue,hexagon
0.0,1.0,0.5,0.0,6.0,6.0,626.1629083310254,1.0,1.0,phase_2,go,400.0,400.0,1.0,,,,,,,,,gray,I
0.0,4.0,4.0,0.0,6.0,6.0,480.4768659523688,1.0,1.0,phase_2,go,400.0,400.0,1.0,,,,,,,,,yellow,diamond
0.0,4.0,4.0,0.0,6.0,6.0,414.9409686797298,2.0,1.0,phase_2,go,400.0,400.0,1.0,,,,,,,,,yellow,diamond
0.0,6.0,1.0,1.0,5.0,5.0,539.2482237075455,2.0,1.0,phase_2,go,400.0,400.0,1.0,,,,,,,,,white,circle
0.0,8.0,4.0,1.0,6.0,6.0,438.4713816107251,2.0,1.0,phase_2,stop,400.0,400.0,3.0,,,,,,,,,orange,square
0.0,4.0,4.0,0.0,6.0,6.0,506.44724728772417,2.0,1.0,phase_2,go,400.0,350.0,1.0,,,,,,,,,yellow,diamond
0.0,1.0,0.5,0.0,5.0,5.0,451.6254906193353,2.0,1.0,phase_2,go,400.0,350.0,1.0,,,,,,,,,gray,I
0.0,1.0,0.5,0.0,5.0,5.0,407.5826486223377,2.0,1.0,phase_2,go,400.0,350.0,1.0,,,,,,,,,gray,I
0.0,7.0,2.0,1.0,6.0,6.0,520.526100997813,2.0,1.0,phase_2,go,400.0,350.0,1.0,,,,,,,,,blue,hexagon
0.0,7.0,2.0,1.0,5.0,0.0,0.0,2.0,1.0,phase_2,stop,400.0,350.0,4.0,,,,,,,,,blue,hexagon
0.0,3.0,2.0,0.0,6.0,6.0,578.7292366730981,2.0,1.0,phase_2,go,450.0,350.0,1.0,,,,,,,,,magenta,triangle
0.0,5.0,0.5,1.0,6.0,6.0,681.1070456751622,2.0,1.0,phase_2,go,450.0,350.0,1.0,,,,,,,,,green,flipped triangle
0.0,5.0,0.5,1.0,5.0,0.0,0.0,2.0,1.0,phase_2,stop,450.0,350.0,4.0,,,,,,,,,green,flipped triangle
0.0,8.0,4.0,1.0,5.0,0.0,0.0,2.0,1.0,phase_2,stop,500.0,350.0,4.0,,,,,,,,,orange,square
0.0,8.0,4.0,1.0,5.0,5.0,931.6194963175805,2.0,1.0,phase_2,go,550.0,350.0,1.0,,,,,,,,,orange,square
0.0,3.0,2.0,0.0,6.0,6.0,751.5516279963776,2.0,1.0,phase_2,go,550.0,350.0,1.0,,,,,,,,,magenta,triangle
0.0,5.0,0.5,1.0,5.0,0.0,0.0,2.0,1.0,phase_2,stop,550.0,350.0,4.0,,,,,,,,,green,flipped triangle
0.0,6.0,1.0,1.0,5.0,5.0,799.7921890346333,2.0,1.0,phase_2,go,600.0,350.0,1.0,,,,,,,,,white,circle
0.0,3.0,2.0,0.0,5.0,5.0,969.1501827328466,2.0,1.0,phase_2,go,600.0,350.0,1.0,,,,,,,,,magenta,triangle
0.0,4.0,4.0,0.0,5.0,5.0,407.3129563475959,2.0,1.0,phase_2,go,600.0,350.0,1.0,,,,,,,,,yellow,diamond
0.0,2.0,1.0,0.0,5.0,5.0,451.2000886024907,2.0,1.0,phase_2,go,600.0,350.0,1.0,,,,,,,,,cyan,cross
0.0,4.0,4.0,0.0,6.0,6.0,429.758345009759,2.0,1.0,phase_2,go,600.0,350.0,1.0,,,,,,,,,yellow,diamond
0.0,3.0,2.0,0.0,5.0,5.0,554.8665382666513,2.0,1.0,phase_2,go,600.0,350.0,1.0,,,,,,,,,magenta,triangle
0.0,4.0,4.0,0.0,6.0,6.0,433.5183146758936,2.0,1.0,phase_2,go,600.0,350.0,1.0,,,,,,,,,yellow,diamond
0.0,6.0,1.0,1.0,5.0,5.0,490.7416166970506,2.0,1.0,phase_2,stop,600.0,350.0,3.0,,,,,,,,,white,circle
0.0,2.0,1.0,0.0,6.0,6.0,390.0492063257843,2.0,1.0,phase_2,go,550.0,350.0,1.0,,,,,,,,,cyan,cross
0.0,6.0,1.0,1.0,6.0,0.0,0.0,2.0,1.0,phase_2,stop,550.0,350.0,4.0,,,,,,,,,white,circle
0.0,8.0,4.0,1.0,5.0,5.0,592.629567021504,2.0,1.0,phase_2,stop,550.0,400.0,3.0,,,,,,,,,orange,square
0.0,6.0,1.0,1.0,6.0,6.0,481.382736354135,2.0,1.0,phase_2,go,500.0,400.0,1.0,,,,,,,,,white,circle
0.0,3.0,2.0,0.0,6.0,6.0,559.9649783107452,2.0,1.0,phase_2,go,500.0,400.0,1.0,,,,,,,,,magenta,triangle
0.0,1.0,0.5,0.0,5.0,5.0,370.6602670135908,2.0,1.0,phase_2,go,500.0,400.0,1.0,,,,,,,,,gray,I
0.0,5.0,0.5,1.0,6.0,6.0,483.5695432848297,2.0,1.0,phase_2,stop,500.0,400.0,3.0,,,,,,,,,green,flipped triangle
0.0,6.0,1.0,1.0,6.0,6.0,866.904798313044,2.0,1.0,phase_2,go,500.0,350.0,1.0,,,,,,,,,white,circle
0.0,8.0,4.0,1.0,5.0,0.0,0.0,2.0,1.0,phase_2,stop,500.0,350.0,4.0,,,,,,,,,orange,square
0.0,6.0,1.0,1.0,5.0,0.0,0.0,2.0,1.0,phase_2,stop,550.0,350.0,4.0,,,,,,,,,white,circle
0.0,1.0,0.5,0.0,5.0,5.0,992.5760925980284,2.0,1.0,phase_2,go,600.0,350.0,1.0,,,,,,,,,gray,I
0.0,4.0,4.0,0.0,5.0,5.0,813.3688109810464,2.0,1.0,phase_2,go,600.0,350.0,1.0,,,,,,,,,yellow,diamond
0.0,6.0,1.0,1.0,6.0,0.0,0.0,2.0,1.0,phase_2,stop,600.0,350.0,4.0,,,,,,,,,white,circle
0.0,2.0,1.0,0.0,6.0,6.0,565.2073536184616,3.0,1.0,phase_2,go,600.0,400.0,1.0,,,,,,,,,cyan,cross
0.0,3.0,2.0,0.0,5.0,5.0,395.661651273258,3.0,1.0,phase_2,go,600.0,400.0,1.0,,,,,,,,,magenta,triangle
0.0,5.0,0.5,1.0,6.0,6.0,364.3278296221979,3.0,1.0,phase_2,go,600.0,400.0,1.0,,,,,,,,,green,flipped triangle
0.0,5.0,0.5,1.0,5.0,5.0,374.6377130155451,3.0,1.0,phase_2,stop,600.0,400.0,3.0,,,,,,,,,green,flipped triangle
0.0,1.0,0.5,0.0,6.0,6.0,510.9040873358026,3.0,1.0,phase_2,go,550.0,400.0,1.0,,,,,,,,,gray,I
0.0,8.0,4.0,1.0,5.0,5.0,355.2385270013474,3.0,1.0,phase_2,stop,550.0,400.0,3.0,,,,,,,,,orange,square
0.0,2.0,1.0,0.0,6.0,6.0,592.4997403635643,3.0,1.0,phase_2,go,500.0,400.0,1.0,,,,,,,,,cyan,cross
0.0,6.0,1.0,1.0,5.0,5.0,468.2265449664555,3.0,1.0,phase_2,stop,500.0,400.0,3.0,,,,,,,,,white,circle
0.0,8.0,4.0,1.0,6.0,6.0,729.7514493111521,3.0,1.0,phase_2,go,450.0,400.0,1.0,,,,,,,,,orange,square
0.0,4.0,4.0,0.0,5.0,5.0,595.4531820025295,3.0,1.0,phase_2,go,450.0,400.0,1.0,,,,,,,,,yellow,diamond
0.0,2.0,1.0,0.0,6.0,6.0,380.976592306979,3.0,1.0,phase_2,go,450.0,400.0,1.0,,,,,,,,,cyan,cross
0.0,5.0,0.5,1.0,6.0,0.0,0.0,3.0,1.0,phase_2,stop,450.0,400.0,4.0,,,,,,,,,green,flipped triangle
0.0,1.0,0.5,0.0,6.0,6.0,609.3175022979267,3.0,1.0,phase_2,go,450.0,450.0,1.0,,,,,,,,,gray,I
0.0,8.0,4.0,1.0,6.0,6.0,1048.8326122867877,3.0,1.0,phase_2,go,450.0,450.0,1.0,,,,,,,,,orange,square
0.0,5.0,0.5,1.0,6.0,6.0,699.1244580131024,3.0,1.0,phase_2,go,450.0,450.0,1.0,,,,,,,,,green,flipped triangle
0.0,2.0,1.0,0.0,6.0,6.0,465.3451535850763,3.0,1.0,phase_2,go,450.0,450.0,1.0,,,,,,,,,cyan,cross
0.0,7.0,2.0,1.0,5.0,0.0,0.0,3.0,1.0,phase_2,stop,450.0,450.0,4.0,,,,,,,,,blue,hexagon
0.0,5.0,0.5,1.0,5.0,0.0,0.0,3.0,1.0,phase_2,stop,500.0,450.0,4.0,,,,,,,,,green,flipped triangle
0.0,3.0,2.0,0.0,5.0,5.0,916.1917779711076,3.0,1.0,phase_2,go,550.0,450.0,1.0,,,,,,,,,magenta,triangle
0.0,7.0,2.0,1.0,6.0,6.0,399.6795783168636,3.0,1.0,phase_2,stop,550.0,450.0,3.0,,,,,,,,,blue,hexagon
0.0,5.0,0.5,1.0,5.0,0.0,0.0,3.0,1.0,phase_2,stop,550.0,400.0,4.0,,,,,,,,,green,flipped triangle
0.0,1.0,0.5,0.0,5.0,5.0,684.1075692791492,3.0,1.0,phase_2,go,600.0,400.0,1.0,,,,,,,,,gray,I
0.0,7.0,2.0,1.0,5.0,0.0,0.0,3.0,1.0,phase_2,stop,600.0,400.0,4.0,,,,,,,,,blue,hexagon
0.0,3.0,2.0,0.0,5.0,5.0,854.2883043410257,3.0,1.0,phase_2,go,650.0,400.0,1.0,,,,,,,,,magenta,triangle
0.0,1.0,0.5,0.0,5.0,5.0,639.9749793345109,3.0,1.0,phase_2,go,650.0,400.0,1.0,,,,,,,,,gray,I
0.0,6.0,1.0,1.0,5.0,5.0,663.5536846588366,3.0,1.0,phase_2,go,650.0,400.0,1.0,,,,,,,,,white,circle
0.0,1.0,0.5,0.0,5.0,5.0,518.4606366092339,3.0,1.0,phase_2,go,650.0,400.0,1.0,,,,,,,,,gray,I
0.0,2.0,1.0,0.0,5.0,5.0,630.9290666249581,3.0,1.0,phase_2,go,650.0,400.0,1.0,,,,,,,,,cyan,cross
0.0,8.0,4.0,1.0,5.0,5.0,610.2665366488509,3.0,1.0,phase_2,stop,650.0,400.0,3.0,,,,,,,,,orange,square
0.0,7.0,2.0,1.0,6.0,0.0,0.0,3.0,1.0,phase_2,stop,600.0,400.0,4.0,,,,,,,,,blue,hexagon
0.0,5.0,0.5,1.0,6.0,0.0,0.0,3.0,1.0,phase_2,stop,600.0,450.0,4.0,,,,,,,,,green,flipped triangle
0.0,4.0,4.0,0.0,6.0,6.0,951.115484640468,3.0,1.0,phase_2,go,600.0,500.0,1.0,,,,,,,,,yellow,diamond
0.0,2.0,1.0,0.0,6.0,6.0,669.4646943360567,3.0,1.0,phase_2,go,600.0,500.0,1.0,,,,,,,,,cyan,cross
0.0,6.0,1.0,1.0,6.0,6.0,423.4863042947836,3.0,1.0,phase_2,stop,600.0,500.0,3.0,,,,,,,,,white,circle
0.0,8.0,4.0,1.0,5.0,0.0,0.0,3.0,1.0,phase_2,stop,600.0,450.0,4.0,,,,,,,,,orange,square
0.0,4.0,4.0,0.0,6.0,6.0,964.5285826991312,3.0,1.0,phase_2,go,650.0,450.0,1.0,,,,,,,,,yellow,diamond
0.0,3.0,2.0,0.0,6.0,6.0,1134.9198389798405,4.0,1.0,phase_2,go,650.0,450.0,1.0,,,,,,,,,magenta,triangle
0.0,2.0,1.0,0.0,5.0,5.0,427.0170696545392,4.0,1.0,phase_2,go,650.0,450.0,1.0,,,,,,,,,cyan,cross
0.0,8.0,4.0,1.0,5.0,5.0,326.6286143334582,4.0,1.0,phase_2,stop,650.0,450.0,3.0,,,,,,,,,orange,square
0.0,2.0,1.0,0.0,6.0,6.0,408.0873242928646,4.0,1.0,phase_2,go,600.0,450.0,1.0,,,,,,,,,cyan,cross
0.0,2.0,1.0,0.0,5.0,5.0,667.2109109931625,4.0,1.0,phase_2,go,600.0,450.0,1.0,,,,,,,,,cyan,cross
0.0,3.0,2.0,0.0,6.0,6.0,375.1975636696443,4.0,1.0,phase_2,go,600.0,450.0,1.0,,,,,,,,,magenta,triangle
0.0,3.0,2.0,0.0,5.0,5.0,342.5815665978007,4.0,1.0,phase_2,go,600.0,450.0,1.0,,,,,,,,,magenta,triangle
0.0,1.0,0.5,0.0,6.0,6.0,510.73184463893995,4.0,1.0,phase_2,go,600.0,450.0,1.0,,,,,,,,,gray,I
0.0,1.0,0.5,0.0,6.0,6.0,434.6601599827409,4.0,1.0,phase_2,go,600.0,450.0,1.0,,,,,,,,,gray,I
0.0,1.0,0.5,0.0,5.0,5.0,422.5124905933626,4.0,1.0,phase_2,go,600.0,450.0,1.0,,,,,,,,,gray,I
0.0,5.0,0.5,1.0,6.0,6.0,548.4264683327638,4.0,1.0,phase_2,stop,600.0,450.0,3.0,,,,,,,,,green,flipped triangle
0.0,6.0,1.0,1.0,6.0,6.0,527.220047020819,4.0,1.0,phase_2,go,600.0,400.0,1.0,,,,,,,,,white,circle
0.0,2.0,1.0,0.0,6.0,6.0,604.9795945873484,4.0,1.0,phase_2,go,600.0,400.0,1.0,,,,,,,,,cyan,cross
0.0,1.0,0.5,0.0,6.0,6.0,403.8004479953088,4.0,1.0,phase_2,go,600.0,400.0,1.0,,,,,,,,,gray,I
0.0,5.0,0.5,1.0,6.0,6.0,549.898758996278,4.0,1.0,phase_2,go,600.0,400.0,1.0,,,,,,,,,green,flipped triangle
0.0,2.0,1.0,0.0,6.0,6.0,552.8870139969513,4.0,1.0,phase_2,go,600.0,400.0,1.0,,,,,,,,,cyan,cross
0.0,5.0,0.5,1.0,5.0,5.0,699.5269015897065,4.0,1.0,phase_2,stop,600.0,400.0,3.0,,,,,,,,,green,flipped triangle
0.0,1.0,0.5,0.0,6.0,6.0,622.0371926901862,4.0,1.0,phase_2,go,550.0,400.0,1.0,,,,,,,,,gray,I
0.0,3.0,2.0,0.0,5.0,5.0,947.0503847114742,4.0,1.0,phase_2,go,550.0,400.0,1.0,,,,,,,,,magenta,triangle
0.0,3.0,2.0,0.0,5.0,5.0,430.6513346964493,4.0,1.0,phase_2,go,550.0,400.0,1.0,,,,,,,,,magenta,triangle
0.0,1.0,0.5,0.0,6.0,6.0,455.5484596639871,4.0,1.0,phase_2,go,550.0,400.0,1.0,,,,,,,,,gray,I
0.0,1.0,0.5,0.0,6.0,6.0,444.79942263569677,4.0,1.0,phase_2,go,550.0,400.0,1.0,,,,,,,,,gray,I
0.0,2.0,1.0,0.0,5.0,5.0,702.8260013321415,4.0,1.0,phase_2,go,550.0,400.0,1.0,,,,,,,,,cyan,cross
0.0,2.0,1.0,0.0,5.0,5.0,389.6737879840657,4.0,1.0,phase_2,go,550.0,400.0,1.0,,,,,,,,,cyan,cross
0.0,1.0,0.5,0.0,5.0,5.0,559.4533522962593,4.0,1.0,phase_2,go,550.0,400.0,1.0,,,,,,,,,gray,I
0.0,6.0,1.0,1.0,6.0,0.0,0.0,4.0,1.0,phase_2,stop,550.0,400.0,4.0,,,,,,,,,white,circle
0.0,4.0,4.0,0.0,6.0,6.0,538.130717643071,4.0,1.0,phase_2,go,550.0,450.0,1.0,,,,,,,,,yellow,diamond
0.0,6.0,1.0,1.0,5.0,5.0,652.8087476617657,4.0,1.0,phase_2,stop,550.0,450.0,3.0,,,,,,,,,white,circle
0.0,6.0,1.0,1.0,6.0,6.0,360.4014912853017,4.0,1.0,phase_2,stop,500.0,450.0,3.0,,,,,,,,,white,circle
0.0,2.0,1.0,0.0,6.0,6.0,540.5272343195975,4.0,1.0,phase_2,go,500.0,400.0,1.0,,,,,,,,,cyan,cross
0.0,5.0,0.5,1.0,6.0,0.0,0.0,4.0,1.0,phase_2,stop,500.0,400.0,4.0,,,,,,,,,green,flipped triangle
0.0,7.0,2.0,1.0,6.0,0.0,0.0,4.0,1.0,phase_2,stop,500.0,450.0,4.0,,,,,,,,,blue,hexagon
0.0,2.0,1.0,0.0,6.0,6.0,656.7217092961073,4.0,1.0,phase_2,go,500.0,500.0,1.0,,,,,,,,,cyan,cross
0.0,4.0,4.0,0.0,5.0,5.0,476.3620849698782,4.0,1.0,phase_2,go,500.0,500.0,1.0,,,,,,,,,yellow,diamond
0.0,6.0,1.0,1.0,6.0,6.0,387.1769166435115,4.0,1.0,phase_2,stop,500.0,500.0,3.0,,,,,,,,,white,circle
0.0,2.0,1.0,0.0,6.0,6.0,501.1062700068578,4.0,1.0,phase_2,go,500.0,450.0,1.0,,,,,,,,,cyan,cross
0.0,6.0,1.0,1.0,5.0,5.0,382.649652659893,5.0,1.0,phase_2,stop,500.0,450.0,3.0,,,,,,,,,white,circle
0.0,5.0,0.5,1.0,5.0,0.0,0.0,5.0,1.0,phase_2,stop,450.0,450.0,4.0,,,,,,,,,green,flipped triangle
0.0,6.0,1.0,1.0,5.0,0.0,0.0,5.0,1.0,phase_2,stop,500.0,450.0,4.0,,,,,,,,,white,circle
0.0,2.0,1.0,0.0,6.0,6.0,397.7824742905795,5.0,1.0,phase_2,go,550.0,450.0,1.0,,,,,,,,,cyan,cross
0.0,3.0,2.0,0.0,5.0,5.0,453.9714673301205,5.0,1.0,phase_2,go,550.0,450.0,1.0,,,,,,,,,magenta,triangle
0.0,4.0,4.0,0.0,5.0,5.0,465.4754970106296,5.0,1.0,phase_2,go,550.0,450.0,1.0,,,,,,,,,yellow,diamond
0.0,4.0,4.0,0.0,6.0,6.0,309.3738126335665,5.0,1.0,phase_2,go,550.0,450.0,1.0,,,,,,,,,yellow,diamond
0.0,1.0,0.5,0.0,5.0,5.0,356.0417842818424,5.0,1.0,phase_2,go,550.0,450.0,1.0,,,,,,,,,gray,I
0.0,3.0,2.0,0.0,5.0,5.0,355.2919222856872,5.0,1.0,phase_2,go,550.0,450.0,1.0,,,,,,,,,magenta,triangle
0.0,7.0,2.0,1.0,5.0,5.0,367.597664706409,5.0,1.0,phase_2,stop,550.0,450.0,3.0,,,,,,,,,blue,hexagon
0.0,6.0,1.0,1.0,6.0,6.0,313.6248115915805,5.0,1.0,phase_2,stop,500.0,450.0,3.0,,,,,,,,,white,circle
0.0,8.0,4.0,1.0,5.0,5.0,392.206170305144,5.0,1.0,phase_2,stop,500.0,400.0,3.0,,,,,,,,,orange,square
0.0,1.0,0.5,0.0,5.0,5.0,685.320413322188,5.0,1.0,phase_2,go,450.0,400.0,1.0,,,,,,,,,gray,I
0.0,8.0,4.0,1.0,6.0,6.0,360.1938189822249,5.0,1.0,phase_2,stop,450.0,400.0,3.0,,,,,,,,,orange,square
0.0,2.0,1.0,0.0,6.0,6.0,799.5175720425323,5.0,1.0,phase_2,go,450.0,350.0,1.0,,,,,,,,,cyan,cross
0.0,7.0,2.0,1.0,6.0,6.0,835.1264239754528,5.0,1.0,phase_2,go,450.0,350.0,1.0,,,,,,,,,blue,hexagon
0.0,3.0,2.0,0.0,6.0,6.0,542.3536407179199,5.0,1.0,phase_2,go,450.0,350.0,1.0,,,,,,,,,magenta,triangle
0.0,6.0,1.0,1.0,5.0,0.0,0.0,5.0,1.0,phase_2,stop,450.0,350.0,4.0,,,,,,,,,white,circle
0.0,7.0,2.0,1.0,6.0,0.0,0.0,5.0,1.0,phase_2,stop,500.0,350.0,4.0,,,,,,,,,blue,hexagon
0.0,1.0,0.5,0.0,6.0,6.0,917.2121339361184,5.0,1.0,phase_2,go,500.0,400.0,1.0,,,,,,,,,gray,I
0.0,8.0,4.0,1.0,5.0,5.0,466.6975950240157,5.0,1.0,phase_2,stop,500.0,400.0,3.0,,,,,,,,,orange,square
0.0,6.0,1.0,1.0,5.0,0.0,0.0,5.0,1.0,phase_2,stop,450.0,400.0,4.0,,,,,,,,,white,circle
0.0,3.0,2.0,0.0,6.0,6.0,660.8371123438701,5.0,1.0,phase_2,go,500.0,400.0,1.0,,,,,,,,,magenta,triangle
0.0,7.0,2.0,1.0,6.0,0.0,0.0,5.0,1.0,phase_2,stop,500.0,400.0,4.0,,,,,,,,,blue,hexagon
0.0,2.0,1.0,0.0,5.0,5.0,638.3936523343436,5.0,1.0,phase_2,go,500.0,450.0,1.0,,,,,,,,,cyan,cross
0.0,6.0,1.0,1.0,6.0,0.0,0.0,5.0,1.0,phase_2,stop,500.0,450.0,4.0,,,,,,,,,white,circle
0.0,2.0,1.0,0.0,5.0,5.0,494.1786713316105,5.0,1.0,phase_2,go,500.0,500.0,1.0,,,,,,,,,cyan,cross
0.0,7.0,2.0,1.0,6.0,0.0,0.0,5.0,1.0,phase_2,stop,500.0,500.0,4.0,,,,,,,,,blue,hexagon
0.0,5.0,0.5,1.0,6.0,0.0,0.0,5.0,1.0,phase_2,stop,500.0,550.0,4.0,,,,,,,,,green,flipped triangle
0.0,4.0,4.0,0.0,5.0,5.0,824.631498020608,5.0,1.0,phase_2,go,500.0,600.0,1.0,,,,,,,,,yellow,diamond
0.0,7.0,2.0,1.0,5.0,5.0,938.3087446913124,5.0,1.0,phase_2,go,500.0,600.0,1.0,,,,,,,,,blue,hexagon
0.0,5.0,0.5,1.0,5.0,0.0,0.0,5.0,1.0,phase_2,stop,500.0,600.0,4.0,,,,,,,,,green,flipped triangle
0.0,8.0,4.0,1.0,5.0,5.0,983.1936343107373,5.0,1.0,phase_2,go,550.0,600.0,1.0,,,,,,,,,orange,square
0.0,4.0,4.0,0.0,5.0,5.0,826.3724247226492,5.0,1.0,phase_2,go,550.0,600.0,1.0,,,,,,,,,yellow,diamond
0.0,2.0,1.0,0.0,6.0,6.0,591.1285249749199,5.0,1.0,phase_2,go,550.0,600.0,1.0,,,,,,,,,cyan,cross
0.0,3.0,2.0,0.0,6.0,6.0,627.1863986039534,5.0,1.0,phase_2,go,550.0,600.0,1.0,,,,,,,,,magenta,triangle
0.0,4.0,4.0,0.0,5.0,5.0,321.0646933293901,6.0,1.0,phase_2,go,550.0,600.0,1.0,,,,,,,,,yellow,diamond
0.0,8.0,4.0,1.0,6.0,6.0,334.2593272682279,6.0,1.0,phase_2,stop,550.0,600.0,3.0,,,,,,,,,orange,square
0.0,5.0,0.5,1.0,5.0,5.0,367.161545320414,6.0,1.0,phase_2,go,550.0,550.0,1.0,,,,,,,,,green,flipped triangle
0.0,7.0,2.0,1.0,6.0,6.0,672.4307920085266,6.0,1.0,phase_2,stop,550.0,550.0,3.0,,,,,,,,,blue,hexagon
0.0,5.0,0.5,1.0,6.0,6.0,842.8964693448506,6.0,1.0,phase_2,go,550.0,500.0,1.0,,,,,,,,,green,flipped triangle
0.0,3.0,2.0,0.0,6.0,6.0,774.6600050013512,6.0,1.0,phase_2,go,550.0,500.0,1.0,,,,,,,,,magenta,triangle
0.0,5.0,0.5,1.0,5.0,0.0,0.0,6.0,1.0,phase_2,stop,550.0,500.0,4.0,,,,,,,,,green,flipped triangle
0.0,6.0,1.0,1.0,6.0,0.0,0.0,6.0,1.0,phase_2,stop,600.0,500.0,4.0,,,,,,,,,white,circle
0.0,5.0,0.5,1.0,6.0,0.0,0.0,6.0,1.0,phase_2,stop,600.0,550.0,4.0,,,,,,,,,green,flipped triangle
0.0,1.0,0.5,0.0,5.0,5.0,631.9352386635728,6.0,1.0,phase_2,go,600.0,600.0,1.0,,,,,,,,,gray,I
0.0,5.0,0.5,1.0,6.0,6.0,588.007724029012,6.0,1.0,phase_2,go,600.0,600.0,1.0,,,,,,,,,green,flipped triangle
0.0,7.0,2.0,1.0,6.0,6.0,443.9033226226456,6.0,1.0,phase_2,stop,600.0,600.0,3.0,,,,,,,,,blue,hexagon
0.0,2.0,1.0,0.0,6.0,6.0,411.2052922719158,6.0,1.0,phase_2,go,600.0,550.0,1.0,,,,,,,,,cyan,cross
0.0,6.0,1.0,1.0,5.0,5.0,737.2277302783914,6.0,1.0,phase_2,go,600.0,550.0,1.0,,,,,,,,,white,circle
0.0,1.0,0.5,0.0,6.0,6.0,424.3532366817817,6.0,1.0,phase_2,go,600.0,550.0,1.0,,,,,,,,,gray,I
0.0,6.0,1.0,1.0,6.0,6.0,660.7777419849299,6.0,1.0,phase_2,stop,600.0,550.0,3.0,,,,,,,,,white,circle
0.0,8.0,4.0,1.0,5.0,0.0,0.0,6.0,1.0,phase_2,stop,600.0,500.0,4.0,,,,,,,,,orange,square
0.0,6.0,1.0,1.0,6.0,0.0,0.0,6.0,1.0,phase_2,stop,650.0,500.0,4.0,,,,,,,,,white,circle
0.0,7.0,2.0,1.0,5.0,5.0,584.6278200042434,6.0,1.0,phase_2,go,650.0,550.0,1.0,,,,,,,,,blue,hexagon
0.0,3.0,2.0,0.0,5.0,5.0,662.4723929562606,6.0,1.0,phase_2,go,650.0,550.0,1.0,,,,,,,,,magenta,triangle
0.0,8.0,4.0,1.0,6.0,6.0,686.0779150156304,6.0,1.0,phase_2,go,650.0,550.0,1.0,,,,,,,,,orange,square
0.0,8.0,4.0,1.0,6.0,0.0,0.0,6.0,1.0,phase_2,stop,650.0,550.0,4.0,,,,,,,,,orange,square
0.0,7.0,2.0,1.0,5.0,5.0,1105.4496156284586,6.0,1.0,phase_2,go,650.0,600.0,1.0,,,,,,,,,blue,hexagon
0.0,4.0,4.0,0.0,5.0,5.0,746.5212550014257,6.0,1.0,phase_2,go,650.0,600.0,1.0,,,,,,,,,yellow,diamond
0.0,7.0,2.0,1.0,5.0,5.0,747.1138856490143,6.0,1.0,phase_2,stop,650.0,600.0,3.0,,,,,,,,,blue,hexagon
0.0,2.0,1.0,0.0,5.0,6.0,712.6367196906358,6.0,1.0,phase_2,go,600.0,600.0,2.0,,,,,,,,,cyan,cross
0.0,4.0,4.0,0.0,5.0,6.0,1051.480085297953,6.0,1.0,phase_2,go,600.0,600.0,2.0,,,,,,,,,yellow,diamond
0.0,3.0,2.0,0.0,6.0,6.0,1380.157871695701,6.0,1.0,phase_2,go,600.0,600.0,1.0,,,,,,,,,magenta,triangle
0.0,7.0,2.0,1.0,5.0,0.0,0.0,6.0,1.0,phase_2,stop,600.0,600.0,4.0,,,,,,,,,blue,hexagon
0.0,5.0,0.5,1.0,6.0,0.0,0.0,6.0,1.0,phase_2,stop,650.0,600.0,4.0,,,,,,,,,green,flipped triangle
0.0,5.0,0.5,1.0,5.0,5.0,583.5506360162981,6.0,1.0,phase_2,stop,650.0,650.0,3.0,,,,,,,,,green,flipped triangle
0.0,1.0,0.5,0.0,6.0,6.0,830.1206500036642,6.0,1.0,phase_2,go,600.0,650.0,1.0,,,,,,,,,gray,I
0.0,4.0,4.0,0.0,5.0,5.0,629.9685163539834,6.0,1.0,phase_2,go,600.0,650.0,1.0,,,,,,,,,yellow,diamond
0.0,2.0,1.0,0.0,5.0,5.0,719.6049413178116,6.0,1.0,phase_2,go,600.0,650.0,1.0,,,,,,,,,cyan,cross
0.0,8.0,4.0,1.0,6.0,6.0,563.3624003385194,6.0,1.0,phase_2,stop,600.0,650.0,3.0,,,,,,,,,orange,square
0.0,8.0,4.0,1.0,6.0,0.0,0.0,6.0,1.0,phase_2,stop,600.0,600.0,4.0,,,,,,,,,orange,square
0.0,1.0,0.5,0.0,6.0,2.0,1214.0825553215109,7.0,1.0,phase_2,go,600.0,650.0,2.0,,,,,,,,,gray,I
0.0,6.0,1.0,1.0,5.0,0.0,0.0,7.0,1.0,phase_2,stop,600.0,650.0,4.0,,,,,,,,,white,circle
0.0,3.0,2.0,0.0,5.0,1.0,1182.7816047007218,7.0,1.0,phase_2,go,650.0,650.0,2.0,,,,,,,,,magenta,triangle
0.0,7.0,2.0,1.0,6.0,0.0,0.0,7.0,1.0,phase_2,stop,650.0,650.0,4.0,,,,,,,,,blue,hexagon
0.0,3.0,2.0,0.0,6.0,6.0,913.1175850052388,7.0,1.0,phase_2,go,650.0,700.0,1.0,,,,,,,,,magenta,triangle
0.0,7.0,2.0,1.0,5.0,0.0,0.0,7.0,1.0,phase_2,go,650.0,700.0,5.0,,,,,,,,,blue,hexagon
0.0,7.0,2.0,1.0,5.0,1.0,768.718971638009,7.0,1.0,phase_2,stop,650.0,700.0,3.0,,,,,,,,,blue,hexagon
0.0,7.0,2.0,1.0,5.0,1.0,847.9416853515431,7.0,1.0,phase_2,stop,600.0,700.0,3.0,,,,,,,,,blue,hexagon
0.0,5.0,0.5,1.0,5.0,0.0,0.0,7.0,1.0,phase_2,stop,550.0,700.0,4.0,,,,,,,,,green,flipped triangle
0.0,8.0,4.0,1.0,6.0,6.0,646.246696007438,7.0,1.0,phase_2,go,600.0,700.0,1.0,,,,,,,,,orange,square
0.0,7.0,2.0,1.0,6.0,6.0,636.8665455956943,7.0,1.0,phase_2,go,600.0,700.0,1.0,,,,,,,,,blue,hexagon
0.0,1.0,0.5,0.0,6.0,6.0,771.7373616760597,7.0,1.0,phase_2,go,600.0,700.0,1.0,,,,,,,,,gray,I
0.0,6.0,1.0,1.0,6.0,6.0,695.2053349814378,7.0,1.0,phase_2,stop,600.0,700.0,3.0,,,,,,,,,white,circle
0.0,8.0,4.0,1.0,6.0,6.0,695.0052453321405,7.0,1.0,phase_2,stop,600.0,650.0,3.0,,,,,,,,,orange,square
0.0,2.0,1.0,0.0,5.0,5.0,943.2731525739656,7.0,1.0,phase_2,go,600.0,600.0,1.0,,,,,,,,,cyan,cross
0.0,1.0,0.5,0.0,5.0,5.0,608.2595873158425,7.0,1.0,phase_2,go,600.0,600.0,1.0,,,,,,,,,gray,I
0.0,1.0,0.5,0.0,5.0,5.0,496.0008429479785,7.0,1.0,phase_2,go,600.0,600.0,1.0,,,,,,,,,gray,I
0.0,4.0,4.0,0.0,5.0,5.0,776.7878192826174,7.0,1.0,phase_2,go,600.0,600.0,1.0,,,,,,,,,yellow,diamond
0.0,3.0,2.0,0.0,6.0,6.0,665.0711097172461,7.0,1.0,phase_2,go,600.0,600.0,1.0,,,,,,,,,magenta,triangle
0.0,4.0,4.0,0.0,5.0,5.0,519.5094002992846,7.0,1.0,phase_2,go,600.0,600.0,1.0,,,,,,,,,yellow,diamond
0.0,4.0,4.0,0.0,6.0,6.0,385.9408313292078,7.0,1.0,phase_2,go,600.0,600.0,1.0,,,,,,,,,yellow,diamond
0.0,2.0,1.0,0.0,6.0,6.0,533.0336320330389,7.0,1.0,phase_2,go,600.0,600.0,1.0,,,,,,,,,cyan,cross
0.0,8.0,4.0,1.0,5.0,5.0,467.6118816714734,7.0,1.0,phase_2,stop,600.0,600.0,3.0,,,,,,,,,orange,square
0.0,6.0,1.0,1.0,5.0,5.0,770.8182369824499,7.0,1.0,phase_2,go,550.0,600.0,1.0,,,,,,,,,white,circle
0.0,4.0,4.0,0.0,6.0,6.0,512.3575252946466,7.0,1.0,phase_2,go,550.0,600.0,1.0,,,,,,,,,yellow,diamond
0.0,4.0,4.0,0.0,5.0,5.0,603.1823387020268,7.0,1.0,phase_2,go,550.0,600.0,1.0,,,,,,,,,yellow,diamond
0.0,8.0,4.0,1.0,6.0,0.0,0.0,7.0,1.0,phase_2,stop,550.0,600.0,4.0,,,,,,,,,orange,square
0.0,7.0,2.0,1.0,6.0,6.0,571.9088823534548,7.0,1.0,phase_2,go,550.0,650.0,1.0,,,,,,,,,blue,hexagon
0.0,1.0,0.5,0.0,6.0,6.0,684.4098172732629,7.0,1.0,phase_2,go,550.0,650.0,1.0,,,,,,,,,gray,I
0.0,4.0,4.0,0.0,5.0,5.0,416.7162746889516,7.0,1.0,phase_2,go,550.0,650.0,1.0,,,,,,,,,yellow,diamond
0.0,4.0,4.0,0.0,6.0,6.0,404.8981833620928,7.0,1.0,phase_2,go,550.0,650.0,1.0,,,,,,,,,yellow,diamond
0.0,5.0,0.5,1.0,6.0,6.0,575.9014112991281,7.0,1.0,phase_2,stop,550.0,650.0,3.0,,,,,,,,,green,flipped triangle
0.0,6.0,1.0,1.0,5.0,5.0,598.354994028341,7.0,1.0,phase_2,go,550.0,600.0,1.0,,,,,,,,,white,circle
0.0,4.0,4.0,0.0,5.0,5.0,780.8466983260587,7.0,1.0,phase_2,go,550.0,600.0,1.0,,,,,,,,,yellow,diamond
0.0,8.0,4.0,1.0,5.0,5.0,612.5574599718675,7.0,1.0,phase_2,go,550.0,600.0,1.0,,,,,,,,,orange,square
0.0,7.0,2.0,1.0,6.0,6.0,679.4619982829317,7.0,1.0,phase_2,stop,550.0,600.0,3.0,,,,,,,,,blue,hexagon
0.0,8.0,4.0,1.0,6.0,6.0,439.6058613201603,8.0,1.0,phase_2,stop,550.0,550.0,3.0,,,,,,,,,orange,square
0.0,1.0,0.5,0.0,5.0,5.0,555.0396266626194,8.0,1.0,phase_2,go,550.0,500.0,1.0,,,,,,,,,gray,I
0.0,3.0,2.0,0.0,5.0,5.0,633.4953482728451,8.0,1.0,phase_2,go,550.0,500.0,1.0,,,,,,,,,magenta,triangle
0.0,8.0,4.0,1.0,6.0,6.0,340.9656960284337,8.0,1.0,phase_2,stop,550.0,500.0,3.0,,,,,,,,,orange,square
0.0,1.0,0.5,0.0,5.0,5.0,432.5902386335656,8.0,1.0,phase_2,go,550.0,450.0,1.0,,,,,,,,,gray,I
0.0,8.0,4.0,1.0,6.0,0.0,0.0,8.0,1.0,phase_2,stop,550.0,450.0,4.0,,,,,,,,,orange,square
0.0,3.0,2.0,0.0,6.0,6.0,1209.8303549573757,8.0,1.0,phase_2,go,550.0,500.0,1.0,,,,,,,,,magenta,triangle
0.0,5.0,0.5,1.0,5.0,5.0,974.4905416155234,8.0,1.0,phase_2,go,550.0,500.0,1.0,,,,,,,,,green,flipped triangle
0.0,6.0,1.0,1.0,5.0,0.0,0.0,8.0,1.0,phase_2,stop,550.0,500.0,4.0,,,,,,,,,white,circle
0.0,4.0,4.0,0.0,6.0,6.0,764.1625250107609,8.0,1.0,phase_2,go,600.0,500.0,1.0,,,,,,,,,yellow,diamond
0.0,7.0,2.0,1.0,6.0,0.0,0.0,8.0,1.0,phase_2,stop,600.0,500.0,4.0,,,,,,,,,blue,hexagon
0.0,8.0,4.0,1.0,6.0,0.0,0.0,8.0,1.0,phase_2,stop,600.0,550.0,4.0,,,,,,,,,orange,square
0.0,6.0,1.0,1.0,5.0,0.0,0.0,8.0,1.0,phase_2,stop,600.0,600.0,4.0,,,,,,,,,white,circle
0.0,4.0,4.0,0.0,6.0,6.0,1013.2457963190973,8.0,1.0,phase_2,go,650.0,600.0,1.0,,,,,,,,,yellow,diamond
0.0,7.0,2.0,1.0,5.0,0.0,0.0,8.0,1.0,phase_2,stop,650.0,600.0,4.0,,,,,,,,,blue,hexagon
0.0,3.0,2.0,0.0,6.0,6.0,679.1994203231297,8.0,1.0,phase_2,go,700.0,600.0,1.0,,,,,,,,,magenta,triangle
0.0,7.0,2.0,1.0,6.0,6.0,610.9901739982888,8.0,1.0,phase_2,stop,700.0,600.0,3.0,,,,,,,,,blue,hexagon
0.0,7.0,2.0,1.0,6.0,0.0,0.0,8.0,1.0,phase_2,stop,700.0,550.0,4.0,,,,,,,,,blue,hexagon
0.0,3.0,2.0,0.0,5.0,5.0,1187.756110681221,8.0,1.0,phase_2,go,700.0,600.0,1.0,,,,,,,,,magenta,triangle
0.0,2.0,1.0,0.0,5.0,5.0,905.4062209906988,8.0,1.0,phase_2,go,700.0,600.0,1.0,,,,,,,,,cyan,cross
0.0,1.0,0.5,0.0,5.0,5.0,693.25240701437,8.0,1.0,phase_2,go,700.0,600.0,1.0,,,,,,,,,gray,I
0.0,2.0,1.0,0.0,5.0,5.0,750.4436370218173,8.0,1.0,phase_2,go,700.0,600.0,1.0,,,,,,,,,cyan,cross
0.0,8.0,4.0,1.0,6.0,6.0,728.2361556426622,8.0,1.0,phase_2,stop,700.0,600.0,3.0,,,,,,,,,orange,square
0.0,7.0,2.0,1.0,5.0,0.0,0.0,8.0,1.0,phase_2,stop,700.0,550.0,4.0,,,,,,,,,blue,hexagon
0.0,7.0,2.0,1.0,5.0,0.0,0.0,8.0,1.0,phase_2,stop,750.0,550.0,4.0,,,,,,,,,blue,hexagon
0.0,1.0,0.5,0.0,6.0,6.0,933.9599376544356,8.0,1.0,phase_2,go,800.0,550.0,1.0,,,,,,,,,gray,I
0.0,4.0,4.0,0.0,6.0,6.0,945.576329017058,8.0,1.0,phase_2,go,800.0,550.0,1.0,,,,,,,,,yellow,diamond
0.0,6.0,1.0,1.0,5.0,5.0,766.7269282974303,8.0,1.0,phase_2,stop,800.0,550.0,3.0,,,,,,,,,white,circle
0.0,2.0,1.0,0.0,5.0,5.0,1105.068110045977,8.0,1.0,phase_2,go,750.0,550.0,1.0,,,,,,,,,cyan,cross
0.0,2.0,1.0,0.0,5.0,5.0,993.51382633904,8.0,1.0,phase_2,go,750.0,550.0,1.0,,,,,,,,,cyan,cross
0.0,8.0,4.0,1.0,5.0,5.0,869.8371353093535,8.0,1.0,phase_2,stop,750.0,550.0,3.0,,,,,,,,,orange,square
0.0,6.0,1.0,1.0,6.0,0.0,0.0,8.0,1.0,phase_2,stop,700.0,550.0,4.0,,,,,,,,,white,circle
0.0,2.0,1.0,0.0,5.0,5.0,961.3931216299534,8.0,1.0,phase_2,go,700.0,600.0,1.0,,,,,,,,,cyan,cross
0.0,7.0,2.0,1.0,5.0,0.0,0.0,8.0,1.0,phase_2,stop,700.0,600.0,4.0,,,,,,,,,blue,hexagon
0.0,5.0,0.5,1.0,5.0,0.0,0.0,8.0,1.0,phase_2,stop,750.0,600.0,4.0,,,,,,,,,green,flipped triangle
0.0,3.0,2.0,0.0,6.0,6.0,1032.2188822901808,8.0,1.0,phase_2,go,800.0,600.0,1.0,,,,,,,,,magenta,triangle
0.0,3.0,2.0,0.0,7.0,3.0,2596.671928593423,1.0,1.0,phase_3,,,,,54.0,1.0,108.0,216.0,54.0,162.0,270.0,324.0,magenta,triangle
0.0,3.0,2.0,0.0,7.0,5.0,4493.0161907104775,1.0,1.0,phase_3,,,,,156.0,4.0,117.0,39.0,78.0,234.0,156.0,195.0,magenta,triangle
0.0,5.0,0.5,1.0,7.0,3.0,3056.573685666081,1.0,1.0,phase_3,,,,,102.0,3.0,68.0,136.0,102.0,34.0,170.0,204.0,green,flipped triangle
0.0,8.0,4.0,1.0,7.0,3.0,4430.22108200239,1.0,1.0,phase_3,,,,,264.0,6.0,220.0,132.0,264.0,88.0,44.0,176.0,orange,square
0.0,1.0,0.5,0.0,7.0,1.0,3001.239126024302,1.0,1.0,phase_3,,,,,204.0,6.0,204.0,102.0,136.0,34.0,68.0,170.0,gray,I
0.0,1.0,0.5,0.0,7.0,2.0,2890.3753033373505,1.0,1.0,phase_3,,,,,196.0,4.0,98.0,196.0,294.0,147.0,49.0,245.0,gray,I
0.0,6.0,1.0,1.0,7.0,2.0,3992.753625672776,1.0,1.0,phase_3,,,,,147.0,3.0,98.0,147.0,196.0,245.0,49.0,294.0,white,circle
0.0,4.0,4.0,0.0,7.0,5.0,3427.759161684662,1.0,1.0,phase_3,,,,,98.0,2.0,147.0,49.0,196.0,294.0,98.0,245.0,yellow,diamond
0.0,7.0,2.0,1.0,7.0,2.0,3294.303114351351,1.0,1.0,phase_3,,,,,204.0,6.0,136.0,204.0,170.0,34.0,102.0,68.0,blue,hexagon
0.0,5.0,0.5,1.0,7.0,1.0,3058.682812668849,1.0,1.0,phase_3,,,,,156.0,4.0,156.0,78.0,117.0,195.0,234.0,39.0,green,flipped triangle
0.0,2.0,1.0,0.0,7.0,2.0,3846.4460039976975,1.0,1.0,phase_3,,,,,195.0,5.0,78.0,195.0,156.0,234.0,39.0,117.0,cyan,cross
0.0,5.0,0.5,1.0,7.0,2.0,3037.489813345019,1.0,1.0,phase_3,,,,,147.0,3.0,49.0,147.0,196.0,98.0,294.0,245.0,green,flipped triangle
0.0,2.0,1.0,0.0,7.0,3.0,2352.7833963744342,1.0,1.0,phase_3,,,,,162.0,3.0,270.0,216.0,162.0,108.0,324.0,54.0,cyan,cross
0.0,6.0,1.0,1.0,7.0,3.0,3378.698071290273,1.0,1.0,phase_3,,,,,195.0,5.0,117.0,156.0,195.0,78.0,234.0,39.0,white,circle
0.0,7.0,2.0,1.0,7.0,5.0,1669.7230060235595,1.0,1.0,phase_3,,,,,147.0,3.0,294.0,49.0,245.0,98.0,147.0,196.0,blue,hexagon
0.0,7.0,2.0,1.0,7.0,1.0,2772.8539906675,1.0,1.0,phase_3,,,,,176.0,4.0,176.0,220.0,88.0,132.0,44.0,264.0,blue,hexagon
0.0,8.0,4.0,1.0,7.0,5.0,3414.383429684676,1.0,1.0,phase_3,,,,,324.0,6.0,270.0,108.0,162.0,54.0,324.0,216.0,orange,square
0.0,5.0,0.5,1.0,7.0,2.0,1560.0708280107938,1.0,1.0,phase_3,,,,,147.0,3.0,245.0,147.0,196.0,98.0,294.0,49.0,green,flipped triangle
0.0,7.0,2.0,1.0,7.0,4.0,3888.606628635898,1.0,1.0,phase_3,,,,,216.0,4.0,270.0,162.0,324.0,216.0,108.0,54.0,blue,hexagon
0.0,1.0,0.5,0.0,7.0,6.0,3969.776837679092,1.0,1.0,phase_3,,,,,108.0,2.0,270.0,162.0,216.0,324.0,54.0,108.0,gray,I
0.0,1.0,0.5,0.0,7.0,5.0,2693.202971306164,2.0,1.0,phase_3,,,,,196.0,4.0,98.0,294.0,49.0,147.0,196.0,245.0,gray,I
0.0,4.0,4.0,0.0,7.0,4.0,2290.483769669663,2.0,1.0,phase_3,,,,,39.0,1.0,78.0,234.0,195.0,39.0,117.0,156.0,yellow,diamond
0.0,4.0,4.0,0.0,7.0,2.0,1187.6091053127311,2.0,1.0,phase_3,,,,,34.0,1.0,204.0,34.0,68.0,170.0,136.0,102.0,yellow,diamond
0.0,1.0,0.5,0.0,7.0,6.0,1414.1008727019653,2.0,1.0,phase_3,,,,,195.0,5.0,78.0,117.0,234.0,39.0,156.0,195.0,gray,I
0.0,3.0,2.0,0.0,7.0,4.0,1898.8733057049103,2.0,1.0,phase_3,,,,,294.0,6.0,196.0,49.0,98.0,294.0,245.0,147.0,magenta,triangle
0.0,1.0,0.5,0.0,7.0,6.0,2373.656682379078,2.0,1.0,phase_3,,,,,176.0,4.0,220.0,44.0,132.0,88.0,264.0,176.0,gray,I
0.0,4.0,4.0,0.0,7.0,1.0,1869.0691452939063,2.0,1.0,phase_3,,,,,88.0,2.0,88.0,264.0,176.0,44.0,132.0,220.0,yellow,diamond
0.0,8.0,4.0,1.0,7.0,2.0,1260.528239654377,2.0,1.0,phase_3,,,,,147.0,3.0,294.0,147.0,98.0,196.0,49.0,245.0,orange,square
0.0,8.0,4.0,1.0,7.0,2.0,1273.6952873528935,2.0,1.0,phase_3,,,,,88.0,2.0,176.0,88.0,44.0,264.0,132.0,220.0,orange,square
0.0,7.0,2.0,1.0,7.0,5.0,2546.509136329405,2.0,1.0,phase_3,,,,,204.0,6.0,136.0,34.0,68.0,102.0,204.0,170.0,blue,hexagon
0.0,7.0,2.0,1.0,7.0,2.0,1760.8774553518742,2.0,1.0,phase_3,,,,,234.0,6.0,78.0,234.0,195.0,156.0,39.0,117.0,blue,hexagon
0.0,8.0,4.0,1.0,7.0,4.0,3189.271519659087,2.0,1.0,phase_3,,,,,170.0,5.0,34.0,136.0,68.0,170.0,102.0,204.0,orange,square
0.0,5.0,0.5,1.0,7.0,1.0,1716.1707670311444,2.0,1.0,phase_3,,,,,176.0,4.0,176.0,264.0,132.0,88.0,220.0,44.0,green,flipped triangle
0.0,2.0,1.0,0.0,7.0,6.0,1617.3111283569597,2.0,1.0,phase_3,,,,,34.0,1.0,136.0,170.0,204.0,102.0,68.0,34.0,cyan,cross
0.0,2.0,1.0,0.0,7.0,6.0,953.9568280451932,2.0,1.0,phase_3,,,,,44.0,1.0,264.0,220.0,176.0,132.0,88.0,44.0,cyan,cross
0.0,5.0,0.5,1.0,7.0,2.0,2181.32180639077,2.0,1.0,phase_3,,,,,170.0,5.0,136.0,170.0,68.0,204.0,102.0,34.0,green,flipped triangle
0.0,6.0,1.0,1.0,7.0,3.0,1631.513050349895,2.0,1.0,phase_3,,,,,44.0,1.0,88.0,132.0,44.0,176.0,220.0,264.0,white,circle
0.0,1.0,0.5,0.0,7.0,6.0,1869.420755712781,2.0,1.0,phase_3,,,,,195.0,5.0,234.0,78.0,156.0,39.0,117.0,195.0,gray,I
0.0,5.0,0.5,1.0,7.0,2.0,2095.6438166904263,2.0,1.0,phase_3,,,,,132.0,3.0,176.0,132.0,44.0,220.0,88.0,264.0,green,flipped triangle
0.0,1.0,0.5,0.0,7.0,5.0,1173.033078026492,2.0,1.0,phase_3,,,,,204.0,6.0,136.0,102.0,34.0,170.0,204.0,68.0,gray,I
0.0,5.0,0.5,1.0,7.0,3.0,1570.9453313611448,3.0,1.0,phase_3,,,,,78.0,2.0,234.0,117.0,78.0,195.0,39.0,156.0,green,flipped triangle
0.0,7.0,2.0,1.0,7.0,3.0,1820.649768400472,3.0,1.0,phase_3,,,,,49.0,1.0,245.0,294.0,49.0,147.0,98.0,196.0,blue,hexagon
0.0,8.0,4.0,1.0,7.0,4.0,1326.1470663710495,3.0,1.0,phase_3,,,,,98.0,2.0,294.0,196.0,147.0,98.0,245.0,49.0,orange,square
0.0,3.0,2.0,0.0,7.0,1.0,2836.1933719716035,3.0,1.0,phase_3,,,,,136.0,4.0,136.0,34.0,102.0,68.0,170.0,204.0,magenta,triangle
0.0,6.0,1.0,1.0,7.0,4.0,1487.5501776696185,3.0,1.0,phase_3,,,,,204.0,6.0,136.0,34.0,170.0,204.0,68.0,102.0,white,circle
0.0,6.0,1.0,1.0,7.0,3.0,2105.404036701657,3.0,1.0,phase_3,,,,,216.0,4.0,162.0,108.0,216.0,270.0,324.0,54.0,white,circle
0.0,7.0,2.0,1.0,7.0,1.0,2096.6413167188875,3.0,1.0,phase_3,,,,,264.0,6.0,264.0,88.0,132.0,44.0,220.0,176.0,blue,hexagon
0.0,3.0,2.0,0.0,7.0,3.0,1884.4673000276089,3.0,1.0,phase_3,,,,,147.0,3.0,245.0,98.0,147.0,49.0,294.0,196.0,magenta,triangle
0.0,8.0,4.0,1.0,7.0,2.0,1681.9220336619765,3.0,1.0,phase_3,,,,,234.0,6.0,78.0,234.0,39.0,195.0,156.0,117.0,orange,square
0.0,5.0,0.5,1.0,7.0,5.0,1807.7030536951495,3.0,1.0,phase_3,,,,,108.0,2.0,162.0,270.0,54.0,216.0,108.0,324.0,green,flipped triangle
0.0,6.0,1.0,1.0,7.0,6.0,2381.4501736778766,3.0,1.0,phase_3,,,,,264.0,6.0,176.0,220.0,132.0,44.0,88.0,264.0,white,circle
0.0,6.0,1.0,1.0,7.0,5.0,1955.5523649905808,3.0,1.0,phase_3,,,,,196.0,4.0,294.0,49.0,245.0,147.0,196.0,98.0,white,circle
0.0,2.0,1.0,0.0,7.0,1.0,2045.4643900156952,3.0,1.0,phase_3,,,,,34.0,1.0,34.0,204.0,170.0,68.0,102.0,136.0,cyan,cross
0.0,2.0,1.0,0.0,7.0,3.0,2260.7814517105,3.0,1.0,phase_3,,,,,44.0,1.0,264.0,176.0,44.0,220.0,132.0,88.0,cyan,cross
0.0,8.0,4.0,1.0,7.0,1.0,2689.379988005385,3.0,1.0,phase_3,,,,,39.0,1.0,39.0,195.0,234.0,156.0,117.0,78.0,orange,square
0.0,2.0,1.0,0.0,7.0,2.0,1801.9901656662116,3.0,1.0,phase_3,,,,,49.0,1.0,196.0,49.0,294.0,98.0,245.0,147.0,cyan,cross
0.0,7.0,2.0,1.0,7.0,5.0,1768.7161003705114,3.0,1.0,phase_3,,,,,195.0,5.0,234.0,156.0,39.0,117.0,195.0,78.0,blue,hexagon
0.0,8.0,4.0,1.0,7.0,1.0,1409.6365493605845,3.0,1.0,phase_3,,,,,68.0,2.0,68.0,34.0,170.0,102.0,136.0,204.0,orange,square
0.0,4.0,4.0,0.0,7.0,2.0,1469.1029043751769,3.0,1.0,phase_3,,,,,324.0,6.0,270.0,324.0,54.0,108.0,216.0,162.0,yellow,diamond
0.0,3.0,2.0,0.0,7.0,3.0,2864.384879008867,3.0,1.0,phase_3,,,,,204.0,6.0,68.0,102.0,204.0,34.0,170.0,136.0,magenta,triangle
0.0,3.0,2.0,0.0,7.0,3.0,2179.321654723026,4.0,1.0,phase_3,,,,,44.0,1.0,88.0,220.0,44.0,264.0,132.0,176.0,magenta,triangle
0.0,1.0,0.5,0.0,7.0,2.0,1178.9742059772834,4.0,1.0,phase_3,,,,,88.0,2.0,132.0,88.0,220.0,176.0,44.0,264.0,gray,I
0.0,4.0,4.0,0.0,7.0,4.0,3060.1588530116715,4.0,1.0,phase_3,,,,,196.0,4.0,294.0,147.0,245.0,196.0,49.0,98.0,yellow,diamond
0.0,2.0,1.0,0.0,7.0,2.0,3207.079900719691,4.0,1.0,phase_3,,,,,216.0,4.0,270.0,216.0,108.0,162.0,54.0,324.0,cyan,cross
0.0,6.0,1.0,1.0,7.0,4.0,2578.858259716071,4.0,1.0,phase_3,,,,,204.0,6.0,34.0,102.0,68.0,204.0,136.0,170.0,white,circle
0.0,7.0,2.0,1.0,7.0,4.0,4535.365376679692,4.0,1.0,phase_3,,,,,270.0,5.0,54.0,216.0,162.0,270.0,108.0,324.0,blue,hexagon
0.0,8.0,4.0,1.0,7.0,6.0,1585.420869640075,4.0,1.0,phase_3,,,,,324.0,6.0,162.0,54.0,216.0,270.0,108.0,324.0,orange,square
0.0,6.0,1.0,1.0,7.0,6.0,2420.0371646438725,4.0,1.0,phase_3,,,,,162.0,3.0,54.0,108.0,270.0,216.0,324.0,162.0,white,circle
0.0,2.0,1.0,0.0,7.0,3.0,2172.555971366819,4.0,1.0,phase_3,,,,,49.0,1.0,98.0,245.0,49.0,294.0,147.0,196.0,cyan,cross
0.0,3.0,2.0,0.0,7.0,2.0,1150.7127456134183,4.0,1.0,phase_3,,,,,44.0,1.0,220.0,44.0,264.0,176.0,88.0,132.0,magenta,triangle
0.0,2.0,1.0,0.0,7.0,1.0,1455.2125966874885,4.0,1.0,phase_3,,,,,117.0,3.0,117.0,156.0,78.0,39.0,234.0,195.0,cyan,cross
0.0,3.0,2.0,0.0,7.0,2.0,1534.0598037000746,4.0,1.0,phase_3,,,,,54.0,1.0,108.0,54.0,162.0,324.0,270.0,216.0,magenta,triangle
0.0,4.0,4.0,0.0,7.0,3.0,1422.279792954214,4.0,1.0,phase_3,,,,,102.0,3.0,170.0,68.0,102.0,136.0,34.0,204.0,yellow,diamond
0.0,5.0,0.5,1.0,7.0,2.0,1637.0223123230971,4.0,1.0,phase_3,,,,,162.0,3.0,324.0,162.0,216.0,270.0,54.0,108.0,green,flipped triangle
0.0,4.0,4.0,0.0,7.0,6.0,2684.411085327156,4.0,1.0,phase_3,,,,,108.0,2.0,270.0,54.0,162.0,216.0,324.0,108.0,yellow,diamond
0.0,6.0,1.0,1.0,7.0,5.0,1437.0428080437705,4.0,1.0,phase_3,,,,,195.0,5.0,78.0,39.0,234.0,156.0,195.0,117.0,white,circle
0.0,4.0,4.0,0.0,7.0,5.0,2316.4813153562136,4.0,1.0,phase_3,,,,,78.0,2.0,117.0,156.0,234.0,39.0,78.0,195.0,yellow,diamond
0.0,3.0,2.0,0.0,7.0,6.0,2519.7298250277527,4.0,1.0,phase_3,,,,,39.0,1.0,117.0,78.0,195.0,156.0,234.0,39.0,magenta,triangle
0.0,1.0,0.5,0.0,7.0,2.0,1137.9296309896745,4.0,1.0,phase_3,,,,,108.0,2.0,54.0,108.0,216.0,270.0,162.0,324.0,gray,I
0.0,4.0,4.0,0.0,7.0,6.0,1610.1157953380607,4.0,1.0,phase_3,,,,,88.0,2.0,176.0,132.0,44.0,264.0,220.0,88.0,yellow,diamond
