raw_reward_magnitude,stim_reward,stepwise_reward_magnitude,paired_with_stopping,stim_location,response,reaction_time,block,num_trial_presentations,which_phase,stop_signal_trial_type,left_SSD,right_SSD,accuracy,chosen_bidding_amount,chosen_bidding_level,possible_bid_1,possible_bid_2,possible_bid_3,possible_bid_4,possible_bid_5,possible_bid_6,color_text,shape_text
89.0,2.0,2.0,0.0,3.0,3.0,427.2530924099555,1.0,1.0,phase_1,,,,,,,,,,,,,white,hexagon
175.0,7.0,3.0,1.0,2.0,2.0,272.6372354918567,1.0,1.0,phase_1,,,,,,,,,,,,,blue,I
0.0,1.0,0.0,0.0,1.0,1.0,295.6611953231913,1.0,1.0,phase_1,,,,,,,,,,,,,yellow,cross
175.0,3.0,3.0,0.0,2.0,2.0,442.3430124916194,1.0,1.0,phase_1,,,,,,,,,,,,,orange,triangle
38.0,5.0,1.0,1.0,4.0,4.0,305.9839415727765,1.0,1.0,phase_1,,,,,,,,,,,,,cyan,diamond
53.0,1.0,1.0,0.0,1.0,1.0,297.8214417453273,1.0,1.0,phase_1,,,,,,,,,,,,,yellow,cross
0.0,8.0,0.0,1.0,4.0,4.0,240.1235314937366,1.0,1.0,phase_1,,,,,,,,,,,,,green,square
117.0,6.0,2.0,1.0,1.0,1.0,354.7002579143736,1.0,1.0,phase_1,,,,,,,,,,,,,gray,circle
0.0,1.0,0.0,0.0,2.0,2.0,286.399331256689,1.0,1.0,phase_1,,,,,,,,,,,,,yellow,cross
378.0,8.0,4.0,1.0,1.0,1.0,277.4421396607067,1.0,1.0,phase_1,,,,,,,,,,,,,green,square
0.0,8.0,0.0,1.0,2.0,2.0,300.5564757477259,1.0,1.0,phase_1,,,,,,,,,,,,,green,square
0.0,2.0,0.0,0.0,2.0,2.0,278.0134888307657,1.0,1.0,phase_1,,,,,,,,,,,,,white,hexagon
394.0,8.0,4.0,1.0,2.0,2.0,265.6902976632409,1.0,1.0,phase_1,,,,,,,,,,,,,green,square
407.0,4.0,4.0,0.0,2.0,2.0,244.2761984893877,1.0,1.0,phase_1,,,,,,,,,,,,,magenta,flipped triangle
28.0,5.0,1.0,1.0,3.0,3.0,357.1966386625718,1.0,1.0,phase_1,,,,,,,,,,,,,cyan,diamond
206.0,7.0,3.0,1.0,3.0,3.0,324.2422066614381,1.0,1.0,phase_1,,,,,,,,,,,,,blue,I
111.0,6.0,2.0,1.0,1.0,1.0,279.8038427426945,1.0,1.0,phase_1,,,,,,,,,,,,,gray,circle
49.0,5.0,1.0,1.0,1.0,1.0,223.7787757476326,1.0,1.0,phase_1,,,,,,,,,,,,,cyan,diamond
180.0,7.0,3.0,1.0,2.0,2.0,247.8197534946957,1.0,1.0,phase_1,,,,,,,,,,,,,blue,I
211.0,7.0,3.0,1.0,3.0,3.0,258.6635245752404,1.0,1.0,phase_1,,,,,,,,,,,,,blue,I
0.0,5.0,0.0,1.0,3.0,3.0,271.8463209130277,1.0,1.0,phase_1,,,,,,,,,,,,,cyan,diamond
65.0,5.0,1.0,1.0,4.0,4.0,238.546445085376,1.0,1.0,phase_1,,,,,,,,,,,,,cyan,diamond
191.0,7.0,3.0,1.0,2.0,2.0,238.4131167455052,1.0,1.0,phase_1,,,,,,,,,,,,,blue,I
389.0,4.0,4.0,0.0,2.0,2.0,285.3343294918886,1.0,2.0,phase_1,,,,,,,,,,,,,magenta,flipped triangle
218.0,3.0,3.0,0.0,3.0,3.0,307.0762706629466,1.0,1.0,phase_1,,,,,,,,,,,,,orange,triangle
80.0,2.0,2.0,0.0,1.0,1.0,239.8064593216986,1.0,1.0,phase_1,,,,,,,,,,,,,white,hexagon
178.0,3.0,3.0,0.0,4.0,4.0,253.0683368313475,1.0,1.0,phase_1,,,,,,,,,,,,,orange,triangle
378.0,8.0,4.0,1.0,2.0,2.0,263.5946058289846,1.0,1.0,phase_1,,,,,,,,,,,,,green,square
73.0,1.0,1.0,0.0,2.0,2.0,253.07940283164498,1.0,1.0,phase_1,,,,,,,,,,,,,yellow,cross
108.0,2.0,2.0,0.0,1.0,1.0,275.9200137443258,1.0,1.0,phase_1,,,,,,,,,,,,,white,hexagon
81.0,6.0,2.0,1.0,4.0,4.0,265.7140683222678,1.0,1.0,phase_1,,,,,,,,,,,,,gray,circle
80.0,2.0,2.0,0.0,2.0,2.0,278.2115170011821,1.0,1.0,phase_1,,,,,,,,,,,,,white,hexagon
111.0,2.0,2.0,0.0,4.0,4.0,243.13801374592,1.0,1.0,phase_1,,,,,,,,,,,,,white,hexagon
379.0,8.0,4.0,1.0,4.0,4.0,288.6214784084586,1.0,1.0,phase_1,,,,,,,,,,,,,green,square
105.0,6.0,2.0,1.0,2.0,2.0,222.2262578325171,1.0,1.0,phase_1,,,,,,,,,,,,,gray,circle
214.0,7.0,3.0,1.0,2.0,2.0,234.1815873187442,1.0,1.0,phase_1,,,,,,,,,,,,,blue,I
0.0,7.0,0.0,1.0,1.0,1.0,281.8345428313478,1.0,2.0,phase_1,,,,,,,,,,,,,blue,I
382.0,4.0,4.0,0.0,4.0,4.0,291.6487764923658,1.0,1.0,phase_1,,,,,,,,,,,,,magenta,flipped triangle
62.0,5.0,1.0,1.0,1.0,1.0,271.7455375750432,1.0,1.0,phase_1,,,,,,,,,,,,,cyan,diamond
383.0,8.0,4.0,1.0,2.0,2.0,259.7759529999166,1.0,1.0,phase_1,,,,,,,,,,,,,green,square
108.0,6.0,2.0,1.0,3.0,3.0,304.5859656631364,1.0,1.0,phase_1,,,,,,,,,,,,,gray,circle
74.0,5.0,1.0,1.0,2.0,2.0,237.7685463216039,1.0,1.0,phase_1,,,,,,,,,,,,,cyan,diamond
45.0,5.0,1.0,1.0,3.0,3.0,296.0542303226248,1.0,1.0,phase_1,,,,,,,,,,,,,cyan,diamond
194.0,3.0,3.0,0.0,2.0,2.0,295.2250118323718,1.0,1.0,phase_1,,,,,,,,,,,,,orange,triangle
417.0,4.0,4.0,0.0,4.0,4.0,343.1291392371349,1.0,2.0,phase_1,,,,,,,,,,,,,magenta,flipped triangle
62.0,1.0,1.0,0.0,1.0,1.0,321.2838456602185,1.0,1.0,phase_1,,,,,,,,,,,,,yellow,cross
395.0,8.0,4.0,1.0,1.0,1.0,322.096068830433,1.0,2.0,phase_1,,,,,,,,,,,,,green,square
199.0,3.0,3.0,0.0,4.0,4.0,298.050550831249,1.0,1.0,phase_1,,,,,,,,,,,,,orange,triangle
409.0,4.0,4.0,0.0,4.0,4.0,323.1112325775029,1.0,1.0,phase_1,,,,,,,,,,,,,magenta,flipped triangle
417.0,8.0,4.0,1.0,3.0,3.0,311.9353027468605,1.0,1.0,phase_1,,,,,,,,,,,,,green,square
102.0,2.0,2.0,0.0,1.0,1.0,289.8102319159079,1.0,1.0,phase_1,,,,,,,,,,,,,white,hexagon
178.0,3.0,3.0,0.0,4.0,4.0,323.3183252996241,1.0,1.0,phase_1,,,,,,,,,,,,,orange,triangle
123.0,6.0,2.0,1.0,1.0,1.0,279.087512215483,1.0,1.0,phase_1,,,,,,,,,,,,,gray,circle
73.0,1.0,1.0,0.0,1.0,1.0,280.0075759623723,1.0,1.0,phase_1,,,,,,,,,,,,,yellow,cross
179.0,3.0,3.0,0.0,3.0,3.0,313.2923761695565,1.0,1.0,phase_1,,,,,,,,,,,,,orange,triangle
0.0,4.0,0.0,0.0,2.0,2.0,327.3002515743428,1.0,1.0,phase_1,,,,,,,,,,,,,magenta,flipped triangle
420.0,4.0,4.0,0.0,4.0,4.0,314.4361193226359,1.0,1.0,phase_1,,,,,,,,,,,,,magenta,flipped triangle
0.0,1.0,0.0,0.0,3.0,3.0,360.3607518307399,1.0,1.0,phase_1,,,,,,,,,,,,,yellow,cross
78.0,6.0,2.0,1.0,4.0,4.0,361.2795584085688,1.0,1.0,phase_1,,,,,,,,,,,,,gray,circle
378.0,8.0,4.0,1.0,4.0,4.0,305.4631326594972,1.0,1.0,phase_1,,,,,,,,,,,,,green,square
98.0,2.0,2.0,0.0,4.0,4.0,340.1057744922582,1.0,1.0,phase_1,,,,,,,,,,,,,white,hexagon
192.0,7.0,3.0,1.0,4.0,4.0,339.4355778291356,1.0,1.0,phase_1,,,,,,,,,,,,,blue,I
0.0,4.0,0.0,0.0,2.0,2.0,262.1547433227533,1.0,1.0,phase_1,,,,,,,,,,,,,magenta,flipped triangle
73.0,5.0,1.0,1.0,4.0,4.0,330.3042617444589,1.0,1.0,phase_1,,,,,,,,,,,,,cyan,diamond
98.0,6.0,2.0,1.0,4.0,4.0,318.7635364920425,1.0,1.0,phase_1,,,,,,,,,,,,,gray,circle
41.0,1.0,1.0,0.0,2.0,2.0,275.4259514913428,1.0,1.0,phase_1,,,,,,,,,,,,,yellow,cross
0.0,7.0,0.0,1.0,1.0,1.0,365.8059195731766,1.0,1.0,phase_1,,,,,,,,,,,,,blue,I
0.0,2.0,0.0,0.0,4.0,4.0,287.9119609970075,1.0,1.0,phase_1,,,,,,,,,,,,,white,hexagon
0.0,3.0,0.0,0.0,2.0,2.0,310.1708914036862,1.0,1.0,phase_1,,,,,,,,,,,,,orange,triangle
53.0,5.0,1.0,1.0,4.0,4.0,311.8942136607074,1.0,1.0,phase_1,,,,,,,,,,,,,cyan,diamond
117.0,2.0,2.0,0.0,3.0,3.0,312.652241827891,1.0,1.0,phase_1,,,,,,,,,,,,,white,hexagon
0.0,3.0,0.0,0.0,3.0,3.0,322.4359494925011,1.0,1.0,phase_1,,,,,,,,,,,,,orange,triangle
412.0,8.0,4.0,1.0,3.0,3.0,278.6729395775182,1.0,1.0,phase_1,,,,,,,,,,,,,green,square
383.0,8.0,4.0,1.0,4.0,4.0,302.0163316614344,1.0,1.0,phase_1,,,,,,,,,,,,,green,square
82.0,6.0,2.0,1.0,2.0,2.0,314.1821594908833,1.0,1.0,phase_1,,,,,,,,,,,,,gray,circle
73.0,1.0,1.0,0.0,2.0,2.0,337.2926883203035,1.0,1.0,phase_1,,,,,,,,,,,,,yellow,cross
68.0,5.0,1.0,1.0,3.0,3.0,313.7926242379762,1.0,1.0,phase_1,,,,,,,,,,,,,cyan,diamond
220.0,3.0,3.0,0.0,3.0,3.0,315.6738688303449,1.0,1.0,phase_1,,,,,,,,,,,,,orange,triangle
211.0,3.0,3.0,0.0,3.0,3.0,327.7005044910765,1.0,1.0,phase_1,,,,,,,,,,,,,orange,triangle
61.0,1.0,1.0,0.0,2.0,2.0,328.2958159979898,1.0,1.0,phase_1,,,,,,,,,,,,,yellow,cross
40.0,1.0,1.0,0.0,3.0,3.0,305.5932196584763,1.0,1.0,phase_1,,,,,,,,,,,,,yellow,cross
99.0,6.0,2.0,1.0,2.0,2.0,328.8850699173054,1.0,1.0,phase_1,,,,,,,,,,,,,gray,circle
0.0,3.0,0.0,0.0,4.0,4.0,328.7812666603713,1.0,1.0,phase_1,,,,,,,,,,,,,orange,triangle
61.0,5.0,1.0,1.0,1.0,1.0,318.7446687479678,1.0,1.0,phase_1,,,,,,,,,,,,,cyan,diamond
409.0,8.0,4.0,1.0,1.0,1.0,352.6785206631757,1.0,1.0,phase_1,,,,,,,,,,,,,green,square
73.0,5.0,1.0,1.0,2.0,2.0,321.1043849150883,1.0,1.0,phase_1,,,,,,,,,,,,,cyan,diamond
0.0,1.0,0.0,0.0,3.0,3.0,309.5909195762942,1.0,1.0,phase_1,,,,,,,,,,,,,yellow,cross
198.0,3.0,3.0,0.0,3.0,3.0,309.3352215764753,1.0,1.0,phase_1,,,,,,,,,,,,,orange,triangle
193.0,7.0,3.0,1.0,3.0,3.0,298.8866414052609,1.0,1.0,phase_1,,,,,,,,,,,,,blue,I
394.0,4.0,4.0,0.0,3.0,3.0,309.6082755728275,1.0,1.0,phase_1,,,,,,,,,,,,,magenta,flipped triangle
0.0,3.0,0.0,0.0,1.0,1.0,311.9366738319513,1.0,1.0,phase_1,,,,,,,,,,,,,orange,triangle
0.0,8.0,0.0,1.0,4.0,4.0,256.6646085761022,1.0,1.0,phase_1,,,,,,,,,,,,,green,square
223.0,7.0,3.0,1.0,4.0,4.0,290.2670904913975,1.0,1.0,phase_1,,,,,,,,,,,,,blue,I
108.0,2.0,2.0,0.0,3.0,3.0,290.4911284094851,1.0,1.0,phase_1,,,,,,,,,,,,,white,hexagon
0.0,1.0,0.0,0.0,2.0,2.0,279.8821318283444,1.0,1.0,phase_1,,,,,,,,,,,,,yellow,cross
0.0,2.0,0.0,0.0,3.0,3.0,292.0044260827126,1.0,1.0,phase_1,,,,,,,,,,,,,white,hexagon
0.0,1.0,0.0,0.0,4.0,4.0,303.3992647469858,1.0,1.0,phase_1,,,,,,,,,,,,,yellow,cross
50.0,5.0,1.0,1.0,3.0,3.0,303.2861554893316,1.0,1.0,phase_1,,,,,,,,,,,,,cyan,diamond
219.0,3.0,3.0,0.0,2.0,2.0,315.5482354923151,1.0,1.0,phase_1,,,,,,,,,,,,,orange,triangle
0.0,8.0,0.0,1.0,1.0,1.0,282.9154157443554,1.0,1.0,phase_1,,,,,,,,,,,,,green,square
0.0,5.0,0.0,1.0,2.0,2.0,403.6662217440607,2.0,1.0,phase_1,,,,,,,,,,,,,cyan,diamond
224.0,3.0,3.0,0.0,4.0,4.0,302.1549219156441,2.0,2.0,phase_1,,,,,,,,,,,,,orange,triangle
0.0,1.0,0.0,0.0,1.0,1.0,268.6411019130901,2.0,1.0,phase_1,,,,,,,,,,,,,yellow,cross
421.0,8.0,4.0,1.0,4.0,4.0,282.1357005777827,2.0,1.0,phase_1,,,,,,,,,,,,,green,square
182.0,3.0,3.0,0.0,4.0,4.0,315.7614353222016,2.0,1.0,phase_1,,,,,,,,,,,,,orange,triangle
191.0,3.0,3.0,0.0,2.0,2.0,270.6619659147691,2.0,1.0,phase_1,,,,,,,,,,,,,orange,triangle
224.0,7.0,3.0,1.0,3.0,3.0,282.7826793218264,2.0,1.0,phase_1,,,,,,,,,,,,,blue,I
65.0,1.0,1.0,0.0,3.0,3.0,317.1673294054926,2.0,2.0,phase_1,,,,,,,,,,,,,yellow,cross
43.0,1.0,1.0,0.0,1.0,1.0,294.8828634907841,2.0,1.0,phase_1,,,,,,,,,,,,,yellow,cross
179.0,7.0,3.0,1.0,2.0,2.0,207.1678234060527,2.0,1.0,phase_1,,,,,,,,,,,,,blue,I
110.0,6.0,2.0,1.0,3.0,3.0,240.5689436600369,2.0,1.0,phase_1,,,,,,,,,,,,,gray,circle
206.0,3.0,3.0,0.0,2.0,2.0,241.3256809159065,2.0,1.0,phase_1,,,,,,,,,,,,,orange,triangle
39.0,5.0,1.0,1.0,3.0,3.0,219.6510588291857,2.0,1.0,phase_1,,,,,,,,,,,,,cyan,diamond
220.0,3.0,3.0,0.0,4.0,4.0,298.4201004037459,2.0,1.0,phase_1,,,,,,,,,,,,,orange,triangle
410.0,8.0,4.0,1.0,4.0,4.0,288.2797989150276,2.0,1.0,phase_1,,,,,,,,,,,,,green,square
183.0,7.0,3.0,1.0,1.0,1.0,309.8406286590034,2.0,1.0,phase_1,,,,,,,,,,,,,blue,I
196.0,3.0,3.0,0.0,1.0,1.0,311.2114837458648,2.0,1.0,phase_1,,,,,,,,,,,,,orange,triangle
0.0,7.0,0.0,1.0,3.0,3.0,322.0891604069038,2.0,1.0,phase_1,,,,,,,,,,,,,blue,I
0.0,6.0,0.0,1.0,4.0,4.0,279.3236340839939,2.0,1.0,phase_1,,,,,,,,,,,,,gray,circle
0.0,6.0,0.0,1.0,1.0,1.0,324.4304998333973,2.0,1.0,phase_1,,,,,,,,,,,,,gray,circle
412.0,8.0,4.0,1.0,3.0,3.0,301.0515836613194,2.0,1.0,phase_1,,,,,,,,,,,,,green,square
40.0,5.0,1.0,1.0,3.0,3.0,324.7756055752688,2.0,1.0,phase_1,,,,,,,,,,,,,cyan,diamond
76.0,2.0,2.0,0.0,3.0,3.0,303.5253974921943,2.0,1.0,phase_1,,,,,,,,,,,,,white,hexagon
206.0,7.0,3.0,1.0,3.0,3.0,325.0169136626937,2.0,1.0,phase_1,,,,,,,,,,,,,blue,I
219.0,3.0,3.0,0.0,1.0,1.0,362.5634383242868,2.0,2.0,phase_1,,,,,,,,,,,,,orange,triangle
32.0,1.0,1.0,0.0,4.0,4.0,305.0791589157597,2.0,1.0,phase_1,,,,,,,,,,,,,yellow,cross
0.0,7.0,0.0,1.0,1.0,1.0,319.0955847458099,2.0,1.0,phase_1,,,,,,,,,,,,,blue,I
177.0,7.0,3.0,1.0,1.0,1.0,283.5735138287418,2.0,1.0,phase_1,,,,,,,,,,,,,blue,I
60.0,5.0,1.0,1.0,2.0,2.0,319.0281049173791,2.0,1.0,phase_1,,,,,,,,,,,,,cyan,diamond
96.0,2.0,2.0,0.0,3.0,3.0,273.6589686610386,2.0,1.0,phase_1,,,,,,,,,,,,,white,hexagon
0.0,7.0,0.0,1.0,4.0,4.0,274.6730566614133,2.0,1.0,phase_1,,,,,,,,,,,,,blue,I
211.0,7.0,3.0,1.0,4.0,4.0,307.7051292530086,2.0,1.0,phase_1,,,,,,,,,,,,,blue,I
118.0,2.0,2.0,0.0,3.0,3.0,298.2436346610484,2.0,1.0,phase_1,,,,,,,,,,,,,white,hexagon
0.0,8.0,0.0,1.0,1.0,1.0,275.8762178309553,2.0,1.0,phase_1,,,,,,,,,,,,,green,square
0.0,5.0,0.0,1.0,2.0,2.0,253.30151148955338,2.0,1.0,phase_1,,,,,,,,,,,,,cyan,diamond
39.0,1.0,1.0,0.0,2.0,2.0,312.170188746677,2.0,1.0,phase_1,,,,,,,,,,,,,yellow,cross
409.0,8.0,4.0,1.0,1.0,1.0,289.1688880008587,2.0,1.0,phase_1,,,,,,,,,,,,,green,square
34.0,5.0,1.0,1.0,4.0,4.0,311.7060489130381,2.0,1.0,phase_1,,,,,,,,,,,,,cyan,diamond
100.0,6.0,2.0,1.0,2.0,2.0,335.0307422369951,2.0,1.0,phase_1,,,,,,,,,,,,,gray,circle
216.0,7.0,3.0,1.0,4.0,4.0,335.3413874101534,2.0,1.0,phase_1,,,,,,,,,,,,,blue,I
203.0,3.0,3.0,0.0,4.0,4.0,348.4800214901042,2.0,1.0,phase_1,,,,,,,,,,,,,orange,triangle
64.0,5.0,1.0,1.0,2.0,2.0,313.8913825787313,2.0,1.0,phase_1,,,,,,,,,,,,,cyan,diamond
30.0,5.0,1.0,1.0,3.0,3.0,304.0868100833904,2.0,1.0,phase_1,,,,,,,,,,,,,cyan,diamond
58.0,1.0,1.0,0.0,4.0,4.0,282.0979708303639,2.0,1.0,phase_1,,,,,,,,,,,,,yellow,cross
415.0,8.0,4.0,1.0,1.0,1.0,315.1514656601648,2.0,1.0,phase_1,,,,,,,,,,,,,green,square
213.0,7.0,3.0,1.0,3.0,3.0,304.6749559143791,2.0,1.0,phase_1,,,,,,,,,,,,,blue,I
68.0,5.0,1.0,1.0,4.0,4.0,295.3664067426871,2.0,1.0,phase_1,,,,,,,,,,,,,cyan,diamond
42.0,5.0,1.0,1.0,2.0,2.0,284.5781444921158,2.0,1.0,phase_1,,,,,,,,,,,,,cyan,diamond
422.0,4.0,4.0,0.0,3.0,3.0,284.5076265766693,2.0,1.0,phase_1,,,,,,,,,,,,,magenta,flipped triangle
198.0,7.0,3.0,1.0,2.0,2.0,296.9703765738813,2.0,1.0,phase_1,,,,,,,,,,,,,blue,I
29.0,1.0,1.0,0.0,3.0,3.0,296.357266997802,2.0,1.0,phase_1,,,,,,,,,,,,,yellow,cross
0.0,3.0,0.0,0.0,4.0,4.0,297.4496245769842,2.0,1.0,phase_1,,,,,,,,,,,,,orange,triangle
76.0,6.0,2.0,1.0,1.0,1.0,331.4516049977101,2.0,1.0,phase_1,,,,,,,,,,,,,gray,circle
397.0,8.0,4.0,1.0,2.0,2.0,252.64417740618228,2.0,1.0,phase_1,,,,,,,,,,,,,green,square
192.0,3.0,3.0,0.0,1.0,1.0,320.8854664917453,2.0,1.0,phase_1,,,,,,,,,,,,,orange,triangle
92.0,2.0,2.0,0.0,2.0,2.0,332.7738378284266,2.0,1.0,phase_1,,,,,,,,,,,,,white,hexagon
30.0,1.0,1.0,0.0,3.0,3.0,277.3641475760087,2.0,1.0,phase_1,,,,,,,,,,,,,yellow,cross
38.0,1.0,1.0,0.0,1.0,1.0,344.9581397471775,2.0,1.0,phase_1,,,,,,,,,,,,,yellow,cross
0.0,2.0,0.0,0.0,3.0,3.0,322.4015396590403,2.0,1.0,phase_1,,,,,,,,,,,,,white,hexagon
379.0,4.0,4.0,0.0,4.0,4.0,313.6235545753152,2.0,1.0,phase_1,,,,,,,,,,,,,magenta,flipped triangle
0.0,2.0,0.0,0.0,2.0,2.0,314.1485504929733,2.0,1.0,phase_1,,,,,,,,,,,,,white,hexagon
89.0,6.0,2.0,1.0,4.0,4.0,346.5267639148806,2.0,1.0,phase_1,,,,,,,,,,,,,gray,circle
0.0,4.0,0.0,0.0,1.0,1.0,337.2389393225603,2.0,1.0,phase_1,,,,,,,,,,,,,magenta,flipped triangle
185.0,7.0,3.0,1.0,4.0,4.0,371.3415767451806,2.0,1.0,phase_1,,,,,,,,,,,,,blue,I
0.0,7.0,0.0,1.0,3.0,3.0,338.2306346611585,2.0,1.0,phase_1,,,,,,,,,,,,,blue,I
0.0,3.0,0.0,0.0,4.0,4.0,315.3690004910459,2.0,1.0,phase_1,,,,,,,,,,,,,orange,triangle
56.0,1.0,1.0,0.0,2.0,2.0,316.1630409995268,2.0,1.0,phase_1,,,,,,,,,,,,,yellow,cross
41.0,5.0,1.0,1.0,4.0,4.0,305.869055489893,2.0,1.0,phase_1,,,,,,,,,,,,,cyan,diamond
112.0,6.0,2.0,1.0,3.0,3.0,317.5712679149001,2.0,1.0,phase_1,,,,,,,,,,,,,gray,circle
45.0,1.0,1.0,0.0,2.0,2.0,330.3347366600064,2.0,1.0,phase_1,,,,,,,,,,,,,yellow,cross
0.0,3.0,0.0,0.0,3.0,3.0,307.2206670840387,2.0,1.0,phase_1,,,,,,,,,,,,,orange,triangle
100.0,2.0,2.0,0.0,1.0,1.0,309.7268499150232,2.0,1.0,phase_1,,,,,,,,,,,,,white,hexagon
30.0,5.0,1.0,1.0,2.0,2.0,319.4919432353345,2.0,1.0,phase_1,,,,,,,,,,,,,cyan,diamond
39.0,1.0,1.0,0.0,3.0,3.0,286.4671079987602,2.0,1.0,phase_1,,,,,,,,,,,,,yellow,cross
122.0,2.0,2.0,0.0,4.0,4.0,320.4133779145195,2.0,1.0,phase_1,,,,,,,,,,,,,white,hexagon
378.0,8.0,4.0,1.0,2.0,2.0,320.973617661366,2.0,1.0,phase_1,,,,,,,,,,,,,green,square
214.0,3.0,3.0,0.0,4.0,4.0,300.3148990028421,2.0,1.0,phase_1,,,,,,,,,,,,,orange,triangle
423.0,8.0,4.0,1.0,2.0,2.0,301.1704458294844,2.0,1.0,phase_1,,,,,,,,,,,,,green,square
80.0,6.0,2.0,1.0,3.0,3.0,400.8137393248034,2.0,1.0,phase_1,,,,,,,,,,,,,gray,circle
0.0,4.0,0.0,0.0,3.0,3.0,346.5187679175869,2.0,1.0,phase_1,,,,,,,,,,,,,magenta,flipped triangle
182.0,7.0,3.0,1.0,2.0,2.0,346.6080365760717,2.0,1.0,phase_1,,,,,,,,,,,,,blue,I
0.0,2.0,0.0,0.0,3.0,3.0,324.5193248294526,2.0,1.0,phase_1,,,,,,,,,,,,,white,hexagon
194.0,7.0,3.0,1.0,1.0,1.0,348.7572635749529,2.0,2.0,phase_1,,,,,,,,,,,,,blue,I
390.0,4.0,4.0,0.0,4.0,4.0,348.1861884065438,2.0,1.0,phase_1,,,,,,,,,,,,,magenta,flipped triangle
117.0,2.0,2.0,0.0,4.0,4.0,351.2365206624963,2.0,1.0,phase_1,,,,,,,,,,,,,white,hexagon
0.0,5.0,0.0,1.0,4.0,4.0,350.9624133221223,2.0,1.0,phase_1,,,,,,,,,,,,,cyan,diamond
223.0,3.0,3.0,0.0,2.0,2.0,328.3871826643008,2.0,1.0,phase_1,,,,,,,,,,,,,orange,triangle
0.0,6.0,0.0,1.0,4.0,4.0,340.2599017463217,2.0,1.0,phase_1,,,,,,,,,,,,,gray,circle
185.0,3.0,3.0,0.0,1.0,1.0,340.7796767423861,2.0,1.0,phase_1,,,,,,,,,,,,,orange,triangle
400.0,4.0,4.0,0.0,3.0,3.0,319.5003055770939,2.0,1.0,phase_1,,,,,,,,,,,,,magenta,flipped triangle
0.0,4.0,0.0,0.0,3.0,3.0,317.9074872386991,2.0,1.0,phase_1,,,,,,,,,,,,,magenta,flipped triangle
420.0,8.0,4.0,1.0,1.0,1.0,307.732706576644,2.0,1.0,phase_1,,,,,,,,,,,,,green,square
110.0,2.0,2.0,0.0,1.0,1.0,590.4702115767577,2.0,1.0,phase_1,,,,,,,,,,,,,white,hexagon
50.0,1.0,1.0,0.0,2.0,2.0,355.5364426611049,2.0,1.0,phase_1,,,,,,,,,,,,,yellow,cross
0.0,5.0,0.0,1.0,4.0,4.0,264.8090176626283,2.0,1.0,phase_1,,,,,,,,,,,,,cyan,diamond
0.0,8.0,0.0,1.0,1.0,1.0,277.2438429165049,2.0,1.0,phase_1,,,,,,,,,,,,,green,square
125.0,6.0,2.0,1.0,4.0,4.0,266.1683466612885,2.0,1.0,phase_1,,,,,,,,,,,,,gray,circle
44.0,1.0,1.0,0.0,1.0,1.0,346.1268419159751,2.0,2.0,phase_1,,,,,,,,,,,,,yellow,cross
0.0,8.0,0.0,1.0,3.0,3.0,289.9898017458326,2.0,1.0,phase_1,,,,,,,,,,,,,green,square
385.0,4.0,4.0,0.0,4.0,4.0,302.2428446602134,2.0,1.0,phase_1,,,,,,,,,,,,,magenta,flipped triangle
121.0,2.0,2.0,0.0,2.0,2.0,336.574436405499,3.0,1.0,phase_1,,,,,,,,,,,,,white,hexagon
108.0,2.0,2.0,0.0,3.0,3.0,337.0966506627155,3.0,1.0,phase_1,,,,,,,,,,,,,white,hexagon
74.0,1.0,1.0,0.0,4.0,4.0,293.368090660806,3.0,1.0,phase_1,,,,,,,,,,,,,yellow,cross
390.0,8.0,4.0,1.0,3.0,3.0,304.1813488307525,3.0,1.0,phase_1,,,,,,,,,,,,,green,square
0.0,2.0,0.0,0.0,2.0,2.0,272.7576256584143,3.0,1.0,phase_1,,,,,,,,,,,,,white,hexagon
409.0,4.0,4.0,0.0,1.0,1.0,261.0776260007696,3.0,1.0,phase_1,,,,,,,,,,,,,magenta,flipped triangle
92.0,6.0,2.0,1.0,4.0,4.0,273.0406529153697,3.0,1.0,phase_1,,,,,,,,,,,,,gray,circle
404.0,4.0,4.0,0.0,3.0,3.0,319.2805057442456,3.0,1.0,phase_1,,,,,,,,,,,,,magenta,flipped triangle
99.0,2.0,2.0,0.0,4.0,4.0,273.145015748014,3.0,1.0,phase_1,,,,,,,,,,,,,white,hexagon
394.0,4.0,4.0,0.0,1.0,1.0,275.7958617476106,3.0,1.0,phase_1,,,,,,,,,,,,,magenta,flipped triangle
178.0,7.0,3.0,1.0,1.0,1.0,286.6103566630045,3.0,1.0,phase_1,,,,,,,,,,,,,blue,I
207.0,7.0,3.0,1.0,1.0,1.0,275.3917447225831,3.0,1.0,phase_1,,,,,,,,,,,,,blue,I
34.0,1.0,1.0,0.0,1.0,1.0,252.7402533232816,3.0,1.0,phase_1,,,,,,,,,,,,,yellow,cross
96.0,6.0,2.0,1.0,2.0,2.0,277.9235807465738,3.0,1.0,phase_1,,,,,,,,,,,,,gray,circle
0.0,7.0,0.0,1.0,4.0,4.0,312.3227409123501,3.0,2.0,phase_1,,,,,,,,,,,,,blue,I
389.0,8.0,4.0,1.0,3.0,3.0,312.5174752385646,3.0,1.0,phase_1,,,,,,,,,,,,,green,square
39.0,5.0,1.0,1.0,1.0,1.0,301.3931450004747,3.0,1.0,phase_1,,,,,,,,,,,,,cyan,diamond
383.0,4.0,4.0,0.0,1.0,1.0,336.434266406286,3.0,1.0,phase_1,,,,,,,,,,,,,magenta,flipped triangle
0.0,4.0,0.0,0.0,4.0,4.0,312.8005457474501,3.0,1.0,phase_1,,,,,,,,,,,,,magenta,flipped triangle
28.0,1.0,1.0,0.0,4.0,4.0,358.9922328283137,3.0,1.0,phase_1,,,,,,,,,,,,,yellow,cross
42.0,1.0,1.0,0.0,4.0,4.0,304.6310474892379,3.0,1.0,phase_1,,,,,,,,,,,,,yellow,cross
189.0,3.0,3.0,0.0,3.0,3.0,338.5272123232425,3.0,1.0,phase_1,,,,,,,,,,,,,orange,triangle
44.0,5.0,1.0,1.0,3.0,3.0,427.2324299163301,3.0,1.0,phase_1,,,,,,,,,,,,,cyan,diamond
378.0,4.0,4.0,0.0,1.0,1.0,361.1228484915045,3.0,1.0,phase_1,,,,,,,,,,,,,magenta,flipped triangle
0.0,8.0,0.0,1.0,4.0,4.0,328.4437840848113,3.0,1.0,phase_1,,,,,,,,,,,,,green,square
382.0,4.0,4.0,0.0,3.0,3.0,363.1219854069059,3.0,1.0,phase_1,,,,,,,,,,,,,magenta,flipped triangle
88.0,6.0,2.0,1.0,1.0,1.0,418.9423113202792,3.0,1.0,phase_1,,,,,,,,,,,,,gray,circle
214.0,3.0,3.0,0.0,2.0,2.0,441.6263648308813,3.0,1.0,phase_1,,,,,,,,,,,,,orange,triangle
422.0,8.0,4.0,1.0,4.0,4.0,318.2222366594942,3.0,1.0,phase_1,,,,,,,,,,,,,green,square
206.0,3.0,3.0,0.0,1.0,1.0,296.7000996613933,3.0,1.0,phase_1,,,,,,,,,,,,,orange,triangle
98.0,6.0,2.0,1.0,2.0,2.0,319.8090687437798,3.0,1.0,phase_1,,,,,,,,,,,,,gray,circle
50.0,5.0,1.0,1.0,1.0,1.0,321.1305339136743,3.0,1.0,phase_1,,,,,,,,,,,,,cyan,diamond
91.0,6.0,2.0,1.0,1.0,1.0,343.6631674921955,3.0,1.0,phase_1,,,,,,,,,,,,,gray,circle
220.0,7.0,3.0,1.0,4.0,4.0,445.3142332349671,3.0,1.0,phase_1,,,,,,,,,,,,,blue,I
0.0,3.0,0.0,0.0,3.0,3.0,322.6343898313644,3.0,1.0,phase_1,,,,,,,,,,,,,orange,triangle
0.0,4.0,0.0,0.0,4.0,4.0,278.1292464933358,3.0,1.0,phase_1,,,,,,,,,,,,,magenta,flipped triangle
76.0,2.0,2.0,0.0,4.0,4.0,289.5884445752017,3.0,1.0,phase_1,,,,,,,,,,,,,white,hexagon
0.0,7.0,0.0,1.0,4.0,4.0,290.4114138327713,3.0,1.0,phase_1,,,,,,,,,,,,,blue,I
196.0,7.0,3.0,1.0,1.0,1.0,280.7364890832104,3.0,1.0,phase_1,,,,,,,,,,,,,blue,I
0.0,5.0,0.0,1.0,4.0,4.0,292.5140757470217,3.0,1.0,phase_1,,,,,,,,,,,,,cyan,diamond
0.0,3.0,0.0,0.0,3.0,3.0,325.5630217427097,3.0,1.0,phase_1,,,,,,,,,,,,,orange,triangle
78.0,2.0,2.0,0.0,4.0,4.0,303.6045724911673,3.0,1.0,phase_1,,,,,,,,,,,,,white,hexagon
108.0,6.0,2.0,1.0,3.0,3.0,327.4906076585466,3.0,1.0,phase_1,,,,,,,,,,,,,gray,circle
395.0,4.0,4.0,0.0,2.0,2.0,293.8066739152418,3.0,1.0,phase_1,,,,,,,,,,,,,magenta,flipped triangle
0.0,1.0,0.0,0.0,4.0,4.0,282.7122009148297,3.0,1.0,phase_1,,,,,,,,,,,,,yellow,cross
109.0,6.0,2.0,1.0,3.0,3.0,328.6173305750708,3.0,1.0,phase_1,,,,,,,,,,,,,gray,circle
80.0,2.0,2.0,0.0,4.0,4.0,283.9063914070721,3.0,1.0,phase_1,,,,,,,,,,,,,white,hexagon
219.0,7.0,3.0,1.0,4.0,4.0,363.1180918309837,3.0,1.0,phase_1,,,,,,,,,,,,,blue,I
87.0,6.0,2.0,1.0,1.0,1.0,340.6873648309556,3.0,1.0,phase_1,,,,,,,,,,,,,gray,circle
27.0,1.0,1.0,0.0,4.0,4.0,263.0747999974119,3.0,1.0,phase_1,,,,,,,,,,,,,yellow,cross
177.0,3.0,3.0,0.0,4.0,4.0,309.761465916381,3.0,1.0,phase_1,,,,,,,,,,,,,orange,triangle
91.0,2.0,2.0,0.0,2.0,2.0,387.6477800004068,3.0,1.0,phase_1,,,,,,,,,,,,,white,hexagon
181.0,7.0,3.0,1.0,3.0,3.0,310.4467252378526,3.0,1.0,phase_1,,,,,,,,,,,,,blue,I
125.0,2.0,2.0,0.0,2.0,2.0,299.2628318315837,3.0,1.0,phase_1,,,,,,,,,,,,,white,hexagon
422.0,8.0,4.0,1.0,3.0,3.0,379.3847924061992,3.0,1.0,phase_1,,,,,,,,,,,,,green,square
0.0,4.0,0.0,0.0,1.0,1.0,277.6763924048282,3.0,1.0,phase_1,,,,,,,,,,,,,magenta,flipped triangle
196.0,7.0,3.0,1.0,1.0,1.0,277.753864407714,3.0,1.0,phase_1,,,,,,,,,,,,,blue,I
123.0,2.0,2.0,0.0,3.0,3.0,323.9976773220405,3.0,1.0,phase_1,,,,,,,,,,,,,white,hexagon
125.0,6.0,2.0,1.0,4.0,4.0,302.0813684925088,3.0,1.0,phase_1,,,,,,,,,,,,,gray,circle
186.0,7.0,3.0,1.0,3.0,3.0,312.7388725770288,3.0,1.0,phase_1,,,,,,,,,,,,,blue,I
199.0,7.0,3.0,1.0,2.0,2.0,336.8449794907064,3.0,1.0,phase_1,,,,,,,,,,,,,blue,I
424.0,8.0,4.0,1.0,1.0,1.0,304.6925474081945,3.0,1.0,phase_1,,,,,,,,,,,,,green,square
0.0,6.0,0.0,1.0,2.0,2.0,328.0661367462016,3.0,1.0,phase_1,,,,,,,,,,,,,gray,circle
42.0,5.0,1.0,1.0,4.0,4.0,326.1401550007576,3.0,1.0,phase_1,,,,,,,,,,,,,cyan,diamond
119.0,6.0,2.0,1.0,1.0,1.0,316.5755774098215,3.0,1.0,phase_1,,,,,,,,,,,,,gray,circle
403.0,8.0,4.0,1.0,2.0,2.0,316.7572325764922,3.0,1.0,phase_1,,,,,,,,,,,,,green,square
121.0,6.0,2.0,1.0,2.0,2.0,341.1660868296167,3.0,1.0,phase_1,,,,,,,,,,,,,gray,circle
415.0,4.0,4.0,0.0,3.0,3.0,340.8001897441863,3.0,1.0,phase_1,,,,,,,,,,,,,magenta,flipped triangle
389.0,4.0,4.0,0.0,2.0,2.0,329.1919119146769,3.0,1.0,phase_1,,,,,,,,,,,,,magenta,flipped triangle
0.0,4.0,0.0,0.0,1.0,1.0,273.5158627438068,3.0,1.0,phase_1,,,,,,,,,,,,,magenta,flipped triangle
218.0,7.0,3.0,1.0,4.0,4.0,274.9653035752999,3.0,1.0,phase_1,,,,,,,,,,,,,blue,I
405.0,4.0,4.0,0.0,3.0,3.0,307.9901462369889,3.0,1.0,phase_1,,,,,,,,,,,,,magenta,flipped triangle
204.0,7.0,3.0,1.0,3.0,3.0,355.2853405781206,3.0,1.0,phase_1,,,,,,,,,,,,,blue,I
0.0,6.0,0.0,1.0,3.0,3.0,343.6598868283909,3.0,1.0,phase_1,,,,,,,,,,,,,gray,circle
201.0,3.0,3.0,0.0,1.0,1.0,265.2206679995288,3.0,1.0,phase_1,,,,,,,,,,,,,orange,triangle
423.0,4.0,4.0,0.0,4.0,4.0,265.1119116635527,3.0,1.0,phase_1,,,,,,,,,,,,,magenta,flipped triangle
421.0,4.0,4.0,0.0,1.0,1.0,311.6571607424703,3.0,1.0,phase_1,,,,,,,,,,,,,magenta,flipped triangle
0.0,2.0,0.0,0.0,3.0,3.0,300.1710412390821,3.0,1.0,phase_1,,,,,,,,,,,,,white,hexagon
68.0,1.0,1.0,0.0,4.0,4.0,300.922975573485,3.0,1.0,phase_1,,,,,,,,,,,,,yellow,cross
79.0,2.0,2.0,0.0,4.0,4.0,336.3459597458131,3.0,1.0,phase_1,,,,,,,,,,,,,white,hexagon
100.0,6.0,2.0,1.0,4.0,4.0,326.3790318305837,3.0,1.0,phase_1,,,,,,,,,,,,,gray,circle
0.0,1.0,0.0,0.0,2.0,2.0,314.4929099144065,3.0,1.0,phase_1,,,,,,,,,,,,,yellow,cross
125.0,2.0,2.0,0.0,2.0,2.0,327.8153738283436,3.0,1.0,phase_1,,,,,,,,,,,,,white,hexagon
46.0,1.0,1.0,0.0,4.0,4.0,314.4767734047491,3.0,1.0,phase_1,,,,,,,,,,,,,yellow,cross
27.0,5.0,1.0,1.0,4.0,4.0,326.4448602349148,3.0,1.0,phase_1,,,,,,,,,,,,,cyan,diamond
178.0,7.0,3.0,1.0,2.0,2.0,338.8569197486504,3.0,1.0,phase_1,,,,,,,,,,,,,blue,I
76.0,6.0,2.0,1.0,3.0,3.0,350.2708428277401,3.0,1.0,phase_1,,,,,,,,,,,,,gray,circle
216.0,3.0,3.0,0.0,3.0,3.0,363.5907702373515,3.0,1.0,phase_1,,,,,,,,,,,,,orange,triangle
105.0,2.0,2.0,0.0,2.0,2.0,655.0236456605489,3.0,1.0,phase_1,,,,,,,,,,,,,white,hexagon
117.0,6.0,2.0,1.0,4.0,4.0,364.0323388317483,3.0,1.0,phase_1,,,,,,,,,,,,,gray,circle
199.0,3.0,3.0,0.0,1.0,1.0,296.8245443189516,3.0,1.0,phase_1,,,,,,,,,,,,,orange,triangle
214.0,7.0,3.0,1.0,2.0,2.0,400.1028204911563,3.0,1.0,phase_1,,,,,,,,,,,,,blue,I
199.0,7.0,3.0,1.0,1.0,1.0,331.3169557477522,3.0,1.0,phase_1,,,,,,,,,,,,,blue,I
51.0,5.0,1.0,1.0,4.0,4.0,275.7720836598309,3.0,1.0,phase_1,,,,,,,,,,,,,cyan,diamond
46.0,5.0,1.0,1.0,3.0,3.0,275.4572403209749,3.0,1.0,phase_1,,,,,,,,,,,,,cyan,diamond
385.0,8.0,4.0,1.0,4.0,4.0,288.4456744905037,3.0,1.0,phase_1,,,,,,,,,,,,,green,square
410.0,4.0,4.0,0.0,2.0,2.0,312.3847265778749,3.0,1.0,phase_1,,,,,,,,,,,,,magenta,flipped triangle
0.0,8.0,0.0,1.0,2.0,2.0,357.1183425774507,3.0,1.0,phase_1,,,,,,,,,,,,,green,square
407.0,8.0,4.0,1.0,1.0,1.0,290.7575428325799,3.0,1.0,phase_1,,,,,,,,,,,,,green,square
50.0,5.0,1.0,1.0,1.0,1.0,290.4065113216347,3.0,1.0,phase_1,,,,,,,,,,,,,cyan,diamond
409.0,4.0,4.0,0.0,1.0,1.0,350.9516005760815,4.0,1.0,phase_1,,,,,,,,,,,,,magenta,flipped triangle
102.0,6.0,2.0,1.0,2.0,2.0,283.3796592349245,4.0,1.0,phase_1,,,,,,,,,,,,,gray,circle
53.0,5.0,1.0,1.0,1.0,1.0,261.1204676577472,4.0,1.0,phase_1,,,,,,,,,,,,,cyan,diamond
389.0,4.0,4.0,0.0,2.0,2.0,262.3483685747487,4.0,1.0,phase_1,,,,,,,,,,,,,magenta,flipped triangle
97.0,2.0,2.0,0.0,1.0,1.0,285.017686404899,4.0,1.0,phase_1,,,,,,,,,,,,,white,hexagon
98.0,2.0,2.0,0.0,1.0,1.0,262.8847714913718,4.0,1.0,phase_1,,,,,,,,,,,,,white,hexagon
220.0,7.0,3.0,1.0,1.0,1.0,274.9725535759353,4.0,1.0,phase_1,,,,,,,,,,,,,blue,I
412.0,4.0,4.0,0.0,1.0,1.0,252.6530014911259,4.0,1.0,phase_1,,,,,,,,,,,,,magenta,flipped triangle
119.0,2.0,2.0,0.0,2.0,2.0,277.4630719140987,4.0,1.0,phase_1,,,,,,,,,,,,,white,hexagon
112.0,2.0,2.0,0.0,2.0,2.0,277.0668179146014,4.0,1.0,phase_1,,,,,,,,,,,,,white,hexagon
402.0,8.0,4.0,1.0,2.0,2.0,310.9791544047766,4.0,1.0,phase_1,,,,,,,,,,,,,green,square
50.0,1.0,1.0,0.0,1.0,1.0,391.8396655753895,4.0,1.0,phase_1,,,,,,,,,,,,,yellow,cross
385.0,8.0,4.0,1.0,3.0,3.0,379.8867013210838,4.0,1.0,phase_1,,,,,,,,,,,,,green,square
96.0,2.0,2.0,0.0,4.0,4.0,357.4293039164331,4.0,1.0,phase_1,,,,,,,,,,,,,white,hexagon
118.0,6.0,2.0,1.0,3.0,3.0,369.1149886581115,4.0,1.0,phase_1,,,,,,,,,,,,,gray,circle
378.0,4.0,4.0,0.0,1.0,1.0,313.1900227454025,4.0,1.0,phase_1,,,,,,,,,,,,,magenta,flipped triangle
58.0,5.0,1.0,1.0,2.0,2.0,325.6857763190055,4.0,1.0,phase_1,,,,,,,,,,,,,cyan,diamond
43.0,5.0,1.0,1.0,2.0,2.0,302.8841569175711,4.0,1.0,phase_1,,,,,,,,,,,,,cyan,diamond
402.0,4.0,4.0,0.0,3.0,3.0,348.3202205752604,4.0,1.0,phase_1,,,,,,,,,,,,,magenta,flipped triangle
49.0,1.0,1.0,0.0,3.0,3.0,338.8980359995912,4.0,1.0,phase_1,,,,,,,,,,,,,yellow,cross
213.0,3.0,3.0,0.0,1.0,1.0,338.8703916607483,4.0,1.0,phase_1,,,,,,,,,,,,,orange,triangle
394.0,8.0,4.0,1.0,1.0,1.0,327.9729505775322,4.0,1.0,phase_1,,,,,,,,,,,,,green,square
400.0,8.0,4.0,1.0,3.0,3.0,328.1719947481178,4.0,1.0,phase_1,,,,,,,,,,,,,green,square
193.0,3.0,3.0,0.0,3.0,3.0,362.9677249155065,4.0,1.0,phase_1,,,,,,,,,,,,,orange,triangle
29.0,5.0,1.0,1.0,1.0,1.0,306.7711244912061,4.0,1.0,phase_1,,,,,,,,,,,,,cyan,diamond
0.0,5.0,0.0,1.0,4.0,4.0,330.6213154901343,4.0,1.0,phase_1,,,,,,,,,,,,,cyan,diamond
207.0,3.0,3.0,0.0,1.0,1.0,274.5040506597433,4.0,1.0,phase_1,,,,,,,,,,,,,orange,triangle
0.0,7.0,0.0,1.0,1.0,1.0,276.8102726622601,4.0,1.0,phase_1,,,,,,,,,,,,,blue,I
0.0,7.0,0.0,1.0,1.0,1.0,264.4296264916193,4.0,1.0,phase_1,,,,,,,,,,,,,blue,I
68.0,1.0,1.0,0.0,1.0,1.0,300.1408846612321,4.0,1.0,phase_1,,,,,,,,,,,,,yellow,cross
81.0,2.0,2.0,0.0,1.0,1.0,276.7755886634404,4.0,1.0,phase_1,,,,,,,,,,,,,white,hexagon
52.0,1.0,1.0,0.0,3.0,3.0,379.7343548321805,4.0,1.0,phase_1,,,,,,,,,,,,,yellow,cross
122.0,6.0,2.0,1.0,2.0,2.0,333.6564938326773,4.0,1.0,phase_1,,,,,,,,,,,,,gray,circle
389.0,8.0,4.0,1.0,2.0,2.0,347.7726215787697,4.0,1.0,phase_1,,,,,,,,,,,,,green,square
0.0,5.0,0.0,1.0,1.0,1.0,347.016419575084,4.0,1.0,phase_1,,,,,,,,,,,,,cyan,diamond
383.0,4.0,4.0,0.0,3.0,3.0,334.795726575976,4.0,1.0,phase_1,,,,,,,,,,,,,magenta,flipped triangle
0.0,4.0,0.0,0.0,4.0,4.0,358.1324703227437,4.0,1.0,phase_1,,,,,,,,,,,,,magenta,flipped triangle
382.0,8.0,4.0,1.0,3.0,3.0,336.015254000813,4.0,1.0,phase_1,,,,,,,,,,,,,green,square
53.0,1.0,1.0,0.0,3.0,3.0,327.14895232129487,4.0,1.0,phase_1,,,,,,,,,,,,,yellow,cross
80.0,6.0,2.0,1.0,1.0,1.0,372.4754344912071,4.0,1.0,phase_1,,,,,,,,,,,,,gray,circle
382.0,8.0,4.0,1.0,4.0,4.0,338.1342266620777,4.0,1.0,phase_1,,,,,,,,,,,,,green,square
52.0,5.0,1.0,1.0,1.0,1.0,339.6115875766554,4.0,1.0,phase_1,,,,,,,,,,,,,cyan,diamond
56.0,5.0,1.0,1.0,3.0,3.0,340.0598729167541,4.0,1.0,phase_1,,,,,,,,,,,,,cyan,diamond
79.0,6.0,2.0,1.0,2.0,2.0,362.6497223231126,4.0,1.0,phase_1,,,,,,,,,,,,,gray,circle
64.0,1.0,1.0,0.0,2.0,2.0,319.4650883233407,4.0,1.0,phase_1,,,,,,,,,,,,,yellow,cross
409.0,8.0,4.0,1.0,2.0,2.0,319.5454776614497,4.0,1.0,phase_1,,,,,,,,,,,,,green,square
0.0,5.0,0.0,1.0,3.0,3.0,342.1919609136239,4.0,1.0,phase_1,,,,,,,,,,,,,cyan,diamond
403.0,4.0,4.0,0.0,1.0,1.0,343.7417308305157,4.0,1.0,phase_1,,,,,,,,,,,,,magenta,flipped triangle
378.0,4.0,4.0,0.0,4.0,4.0,332.0148368293303,4.0,1.0,phase_1,,,,,,,,,,,,,magenta,flipped triangle
48.0,1.0,1.0,0.0,4.0,4.0,343.6393298288749,4.0,1.0,phase_1,,,,,,,,,,,,,yellow,cross
378.0,4.0,4.0,0.0,2.0,2.0,343.9358229152276,4.0,1.0,phase_1,,,,,,,,,,,,,magenta,flipped triangle
181.0,3.0,3.0,0.0,3.0,3.0,334.4168110015744,4.0,1.0,phase_1,,,,,,,,,,,,,orange,triangle
109.0,2.0,2.0,0.0,1.0,1.0,369.4692597455287,4.0,2.0,phase_1,,,,,,,,,,,,,white,hexagon
424.0,4.0,4.0,0.0,4.0,4.0,358.0859007452091,4.0,1.0,phase_1,,,,,,,,,,,,,magenta,flipped triangle
417.0,8.0,4.0,1.0,3.0,3.0,357.1588056584005,4.0,1.0,phase_1,,,,,,,,,,,,,green,square
204.0,3.0,3.0,0.0,3.0,3.0,346.831316488533,4.0,1.0,phase_1,,,,,,,,,,,,,orange,triangle
397.0,4.0,4.0,0.0,2.0,2.0,336.7353337453096,4.0,1.0,phase_1,,,,,,,,,,,,,magenta,flipped triangle
211.0,3.0,3.0,0.0,2.0,2.0,327.4189483199734,4.0,1.0,phase_1,,,,,,,,,,,,,orange,triangle
180.0,3.0,3.0,0.0,1.0,1.0,338.2252826631884,4.0,1.0,phase_1,,,,,,,,,,,,,orange,triangle
0.0,3.0,0.0,0.0,2.0,2.0,315.7907975764829,4.0,1.0,phase_1,,,,,,,,,,,,,orange,triangle
186.0,3.0,3.0,0.0,2.0,2.0,351.7231011719559,4.0,1.0,phase_1,,,,,,,,,,,,,orange,triangle
203.0,7.0,3.0,1.0,4.0,4.0,361.8445369138499,4.0,1.0,phase_1,,,,,,,,,,,,,blue,I
389.0,8.0,4.0,1.0,4.0,4.0,339.1978919171379,4.0,1.0,phase_1,,,,,,,,,,,,,green,square
0.0,2.0,0.0,0.0,2.0,2.0,351.5891815768555,4.0,1.0,phase_1,,,,,,,,,,,,,white,hexagon
405.0,8.0,4.0,1.0,4.0,4.0,364.7619722360105,4.0,1.0,phase_1,,,,,,,,,,,,,green,square
97.0,6.0,2.0,1.0,3.0,3.0,375.9653446577431,4.0,1.0,phase_1,,,,,,,,,,,,,gray,circle
82.0,2.0,2.0,0.0,1.0,1.0,353.8944526626437,4.0,1.0,phase_1,,,,,,,,,,,,,white,hexagon
108.0,6.0,2.0,1.0,3.0,3.0,386.8073305748112,4.0,1.0,phase_1,,,,,,,,,,,,,gray,circle
0.0,8.0,0.0,1.0,2.0,2.0,333.7430294086516,4.0,1.0,phase_1,,,,,,,,,,,,,green,square
80.0,6.0,2.0,1.0,1.0,1.0,367.3142749139515,4.0,1.0,phase_1,,,,,,,,,,,,,gray,circle
42.0,1.0,1.0,0.0,2.0,2.0,356.1035449165501,4.0,1.0,phase_1,,,,,,,,,,,,,yellow,cross
73.0,5.0,1.0,1.0,2.0,2.0,324.1926733207947,4.0,1.0,phase_1,,,,,,,,,,,,,cyan,diamond
96.0,6.0,2.0,1.0,4.0,4.0,345.0123004076886,4.0,1.0,phase_1,,,,,,,,,,,,,gray,circle
32.0,5.0,1.0,1.0,2.0,2.0,323.7300424880232,4.0,1.0,phase_1,,,,,,,,,,,,,cyan,diamond
50.0,1.0,1.0,0.0,3.0,3.0,336.0389749177557,4.0,1.0,phase_1,,,,,,,,,,,,,yellow,cross
385.0,4.0,4.0,0.0,3.0,3.0,335.8656364907801,4.0,1.0,phase_1,,,,,,,,,,,,,magenta,flipped triangle
189.0,7.0,3.0,1.0,1.0,1.0,347.1690435762866,4.0,1.0,phase_1,,,,,,,,,,,,,blue,I
87.0,2.0,2.0,0.0,2.0,2.0,325.232928746118,4.0,1.0,phase_1,,,,,,,,,,,,,white,hexagon
219.0,7.0,3.0,1.0,4.0,4.0,348.3485677461431,4.0,1.0,phase_1,,,,,,,,,,,,,blue,I
417.0,4.0,4.0,0.0,2.0,2.0,339.6008757445088,4.0,1.0,phase_1,,,,,,,,,,,,,magenta,flipped triangle
0.0,6.0,0.0,1.0,3.0,3.0,372.8523603203939,4.0,1.0,phase_1,,,,,,,,,,,,,gray,circle
88.0,2.0,2.0,0.0,3.0,3.0,329.1645216595498,4.0,1.0,phase_1,,,,,,,,,,,,,white,hexagon
48.0,5.0,1.0,1.0,1.0,1.0,351.6825066617457,4.0,1.0,phase_1,,,,,,,,,,,,,cyan,diamond
0.0,5.0,0.0,1.0,3.0,3.0,316.8218528335274,4.0,1.0,phase_1,,,,,,,,,,,,,cyan,diamond
51.0,1.0,1.0,0.0,3.0,3.0,328.738964490185,4.0,1.0,phase_1,,,,,,,,,,,,,yellow,cross
0.0,2.0,0.0,0.0,1.0,1.0,365.2681204912369,4.0,1.0,phase_1,,,,,,,,,,,,,white,hexagon
422.0,4.0,4.0,0.0,2.0,2.0,375.0371104906662,4.0,1.0,phase_1,,,,,,,,,,,,,magenta,flipped triangle
30.0,1.0,1.0,0.0,4.0,4.0,366.2340577466239,4.0,1.0,phase_1,,,,,,,,,,,,,yellow,cross
60.0,1.0,1.0,0.0,1.0,1.0,410.98068174324,4.0,1.0,phase_1,,,,,,,,,,,,,yellow,cross
0.0,1.0,0.0,0.0,2.0,2.0,433.6454958320246,4.0,1.0,phase_1,,,,,,,,,,,,,yellow,cross
412.0,4.0,4.0,0.0,1.0,1.0,402.1125768304046,4.0,1.0,phase_1,,,,,,,,,,,,,magenta,flipped triangle
404.0,8.0,4.0,1.0,1.0,1.0,368.7693804895389,4.0,1.0,phase_1,,,,,,,,,,,,,green,square
0.0,6.0,0.0,1.0,3.0,3.0,356.7068772354105,4.0,1.0,phase_1,,,,,,,,,,,,,gray,circle
196.0,3.0,3.0,0.0,4.0,4.0,380.1936754898634,4.0,1.0,phase_1,,,,,,,,,,,,,orange,triangle
183.0,3.0,3.0,0.0,2.0,2.0,368.3874339185422,4.0,1.0,phase_1,,,,,,,,,,,,,orange,triangle
201.0,7.0,3.0,1.0,3.0,3.0,358.364848743804,4.0,1.0,phase_1,,,,,,,,,,,,,blue,I
0.0,6.0,0.0,1.0,2.0,2.0,360.2130208309972,4.0,1.0,phase_1,,,,,,,,,,,,,gray,circle
0.0,6.0,0.0,1.0,3.0,3.0,370.2028908301145,4.0,1.0,phase_1,,,,,,,,,,,,,gray,circle
0.0,6.0,0.0,1.0,1.0,1.0,439.0854185767239,4.0,1.0,phase_1,,,,,,,,,,,,,gray,circle
100.0,2.0,2.0,0.0,3.0,3.0,360.030674830341,4.0,1.0,phase_1,,,,,,,,,,,,,white,hexagon
0.0,5.0,1.0,1.0,5.0,5.0,383.3605406107381,1.0,1.0,phase_2,go,250.0,250.0,1.0,,,,,,,,,cyan,diamond
0.0,2.0,2.0,0.0,5.0,5.0,722.2209623250819,1.0,1.0,phase_2,go,250.0,250.0,1.0,,,,,,,,,white,hexagon
0.0,4.0,4.0,0.0,6.0,6.0,578.1231386317813,1.0,1.0,phase_2,go,250.0,250.0,1.0,,,,,,,,,magenta,flipped triangle
0.0,1.0,1.0,0.0,6.0,6.0,330.6742262866464,1.0,1.0,phase_2,go,250.0,250.0,1.0,,,,,,,,,yellow,cross
0.0,7.0,3.0,1.0,5.0,0.0,0.0,1.0,1.0,phase_2,stop,250.0,250.0,4.0,,,,,,,,,blue,I
0.0,7.0,3.0,1.0,5.0,0.0,0.0,1.0,1.0,phase_2,stop,300.0,250.0,4.0,,,,,,,,,blue,I
0.0,3.0,3.0,0.0,5.0,5.0,514.1587619800703,1.0,1.0,phase_2,go,350.0,250.0,1.0,,,,,,,,,orange,triangle
0.0,4.0,4.0,0.0,5.0,5.0,603.689277308149,1.0,1.0,phase_2,go,350.0,250.0,1.0,,,,,,,,,magenta,flipped triangle
0.0,7.0,3.0,1.0,5.0,0.0,0.0,1.0,1.0,phase_2,stop,350.0,250.0,4.0,,,,,,,,,blue,I
0.0,2.0,2.0,0.0,6.0,6.0,503.9857886113168,1.0,1.0,phase_2,go,400.0,250.0,1.0,,,,,,,,,white,hexagon
0.0,8.0,4.0,1.0,5.0,0.0,0.0,1.0,1.0,phase_2,stop,400.0,250.0,4.0,,,,,,,,,green,square
0.0,2.0,2.0,0.0,6.0,6.0,428.6028416536283,1.0,1.0,phase_2,go,450.0,250.0,1.0,,,,,,,,,white,hexagon
0.0,7.0,3.0,1.0,5.0,5.0,585.3399296538555,1.0,1.0,phase_2,stop,450.0,250.0,3.0,,,,,,,,,blue,I
0.0,3.0,3.0,0.0,5.0,5.0,621.0554692843289,1.0,1.0,phase_2,go,400.0,250.0,1.0,,,,,,,,,orange,triangle
0.0,8.0,4.0,1.0,5.0,0.0,0.0,1.0,1.0,phase_2,stop,400.0,250.0,4.0,,,,,,,,,green,square
0.0,6.0,2.0,1.0,5.0,0.0,0.0,1.0,1.0,phase_2,stop,450.0,250.0,4.0,,,,,,,,,gray,circle
0.0,2.0,2.0,0.0,5.0,5.0,814.4615849996626,1.0,1.0,phase_2,go,500.0,250.0,1.0,,,,,,,,,white,hexagon
0.0,3.0,3.0,0.0,6.0,6.0,780.5509313038783,1.0,1.0,phase_2,go,500.0,250.0,1.0,,,,,,,,,orange,triangle
0.0,3.0,3.0,0.0,6.0,6.0,770.4709516510775,1.0,1.0,phase_2,go,500.0,250.0,1.0,,,,,,,,,orange,triangle
0.0,1.0,1.0,0.0,5.0,5.0,343.5727156102075,1.0,1.0,phase_2,go,500.0,250.0,1.0,,,,,,,,,yellow,cross
0.0,6.0,2.0,1.0,5.0,5.0,805.1811666118738,1.0,1.0,phase_2,go,500.0,250.0,1.0,,,,,,,,,gray,circle
0.0,5.0,1.0,1.0,6.0,0.0,0.0,1.0,1.0,phase_2,stop,500.0,250.0,4.0,,,,,,,,,cyan,diamond
0.0,7.0,3.0,1.0,6.0,0.0,0.0,1.0,1.0,phase_2,stop,500.0,300.0,4.0,,,,,,,,,blue,I
0.0,1.0,1.0,0.0,6.0,6.0,717.5195296076708,1.0,1.0,phase_2,go,500.0,350.0,1.0,,,,,,,,,yellow,cross
0.0,4.0,4.0,0.0,5.0,5.0,775.1097089785617,1.0,1.0,phase_2,go,500.0,350.0,1.0,,,,,,,,,magenta,flipped triangle
0.0,8.0,4.0,1.0,6.0,0.0,0.0,1.0,1.0,phase_2,stop,500.0,350.0,4.0,,,,,,,,,green,square
0.0,1.0,1.0,0.0,5.0,5.0,654.5850769580284,1.0,1.0,phase_2,go,500.0,400.0,1.0,,,,,,,,,yellow,cross
0.0,8.0,4.0,1.0,6.0,0.0,0.0,1.0,1.0,phase_2,stop,500.0,400.0,4.0,,,,,,,,,green,square
0.0,5.0,1.0,1.0,6.0,0.0,0.0,1.0,1.0,phase_2,stop,500.0,450.0,4.0,,,,,,,,,cyan,diamond
0.0,6.0,2.0,1.0,6.0,6.0,667.803385957086,1.0,1.0,phase_2,stop,500.0,500.0,3.0,,,,,,,,,gray,circle
0.0,3.0,3.0,0.0,6.0,6.0,678.5201916500228,1.0,1.0,phase_2,go,500.0,450.0,1.0,,,,,,,,,orange,triangle
0.0,8.0,4.0,1.0,5.0,5.0,354.8574386513792,1.0,1.0,phase_2,go,500.0,450.0,1.0,,,,,,,,,green,square
0.0,2.0,2.0,0.0,6.0,6.0,747.8131726529682,1.0,1.0,phase_2,go,500.0,450.0,1.0,,,,,,,,,white,hexagon
0.0,7.0,3.0,1.0,5.0,5.0,838.797505304683,1.0,1.0,phase_2,go,500.0,450.0,1.0,,,,,,,,,blue,I
0.0,3.0,3.0,0.0,6.0,6.0,693.1544709805166,1.0,1.0,phase_2,go,500.0,450.0,1.0,,,,,,,,,orange,triangle
0.0,5.0,1.0,1.0,5.0,5.0,752.2363129792211,1.0,1.0,phase_2,go,500.0,450.0,1.0,,,,,,,,,cyan,diamond
0.0,4.0,4.0,0.0,6.0,6.0,302.2636140012764,2.0,1.0,phase_2,go,500.0,450.0,1.0,,,,,,,,,magenta,flipped triangle
0.0,4.0,4.0,0.0,6.0,6.0,436.9847932830453,2.0,1.0,phase_2,go,500.0,450.0,1.0,,,,,,,,,magenta,flipped triangle
0.0,5.0,1.0,1.0,5.0,5.0,538.0218566315307,2.0,1.0,phase_2,go,500.0,450.0,1.0,,,,,,,,,cyan,diamond
0.0,5.0,1.0,1.0,5.0,5.0,494.4731356335978,2.0,1.0,phase_2,stop,500.0,450.0,3.0,,,,,,,,,cyan,diamond
0.0,6.0,2.0,1.0,6.0,6.0,540.5806776325335,2.0,1.0,phase_2,stop,450.0,450.0,3.0,,,,,,,,,gray,circle
0.0,2.0,2.0,0.0,5.0,5.0,463.4315419789345,2.0,1.0,phase_2,go,450.0,400.0,1.0,,,,,,,,,white,hexagon
0.0,1.0,1.0,0.0,5.0,5.0,632.9849749781715,2.0,1.0,phase_2,go,450.0,400.0,1.0,,,,,,,,,yellow,cross
0.0,2.0,2.0,0.0,5.0,5.0,610.2530953066889,2.0,1.0,phase_2,go,450.0,400.0,1.0,,,,,,,,,white,hexagon
0.0,4.0,4.0,0.0,6.0,6.0,566.8378182817833,2.0,1.0,phase_2,go,450.0,400.0,1.0,,,,,,,,,magenta,flipped triangle
0.0,4.0,4.0,0.0,5.0,5.0,499.2230599564209,2.0,1.0,phase_2,go,450.0,400.0,1.0,,,,,,,,,magenta,flipped triangle
0.0,2.0,2.0,0.0,5.0,5.0,646.7565896527958,2.0,1.0,phase_2,go,450.0,400.0,1.0,,,,,,,,,white,hexagon
0.0,6.0,2.0,1.0,5.0,0.0,0.0,2.0,1.0,phase_2,stop,450.0,400.0,4.0,,,,,,,,,gray,circle
0.0,1.0,1.0,0.0,6.0,6.0,580.8990159566747,2.0,1.0,phase_2,go,500.0,400.0,1.0,,,,,,,,,yellow,cross
0.0,2.0,2.0,0.0,5.0,5.0,617.0584809769935,2.0,1.0,phase_2,go,500.0,400.0,1.0,,,,,,,,,white,hexagon
0.0,1.0,1.0,0.0,6.0,6.0,561.0406186751788,2.0,1.0,phase_2,go,500.0,400.0,1.0,,,,,,,,,yellow,cross
0.0,3.0,3.0,0.0,6.0,6.0,674.5825706530013,2.0,1.0,phase_2,go,500.0,400.0,1.0,,,,,,,,,orange,triangle
0.0,6.0,2.0,1.0,6.0,0.0,0.0,2.0,1.0,phase_2,stop,500.0,400.0,4.0,,,,,,,,,gray,circle
0.0,1.0,1.0,0.0,5.0,5.0,664.844204653491,2.0,1.0,phase_2,go,500.0,450.0,1.0,,,,,,,,,yellow,cross
0.0,6.0,2.0,1.0,6.0,6.0,564.7347153244482,2.0,1.0,phase_2,go,500.0,450.0,1.0,,,,,,,,,gray,circle
0.0,1.0,1.0,0.0,5.0,5.0,688.0545356543735,2.0,1.0,phase_2,go,500.0,450.0,1.0,,,,,,,,,yellow,cross
0.0,2.0,2.0,0.0,5.0,5.0,622.5256973266369,2.0,1.0,phase_2,go,500.0,450.0,1.0,,,,,,,,,white,hexagon
0.0,3.0,3.0,0.0,6.0,6.0,678.2391056112829,2.0,1.0,phase_2,go,500.0,450.0,1.0,,,,,,,,,orange,triangle
0.0,5.0,1.0,1.0,6.0,0.0,0.0,2.0,1.0,phase_2,stop,500.0,450.0,4.0,,,,,,,,,cyan,diamond
0.0,7.0,3.0,1.0,6.0,6.0,454.782589651586,2.0,1.0,phase_2,stop,500.0,500.0,3.0,,,,,,,,,blue,I
0.0,5.0,1.0,1.0,5.0,5.0,592.1666066715261,2.0,1.0,phase_2,stop,500.0,450.0,3.0,,,,,,,,,cyan,diamond
0.0,2.0,2.0,0.0,5.0,5.0,726.6627019562293,2.0,1.0,phase_2,go,450.0,450.0,1.0,,,,,,,,,white,hexagon
0.0,7.0,3.0,1.0,6.0,6.0,311.9865576336451,2.0,1.0,phase_2,stop,450.0,450.0,3.0,,,,,,,,,blue,I
0.0,2.0,2.0,0.0,5.0,5.0,707.198008956766,2.0,1.0,phase_2,go,450.0,400.0,1.0,,,,,,,,,white,hexagon
0.0,1.0,1.0,0.0,6.0,6.0,672.6156122858811,2.0,1.0,phase_2,go,450.0,400.0,1.0,,,,,,,,,yellow,cross
0.0,7.0,3.0,1.0,5.0,0.0,0.0,2.0,1.0,phase_2,stop,450.0,400.0,4.0,,,,,,,,,blue,I
0.0,6.0,2.0,1.0,6.0,0.0,0.0,2.0,1.0,phase_2,stop,500.0,400.0,4.0,,,,,,,,,gray,circle
0.0,5.0,1.0,1.0,6.0,0.0,0.0,2.0,1.0,phase_2,stop,500.0,450.0,4.0,,,,,,,,,cyan,diamond
0.0,6.0,2.0,1.0,5.0,5.0,664.3115263032087,2.0,1.0,phase_2,go,500.0,500.0,1.0,,,,,,,,,gray,circle
0.0,3.0,3.0,0.0,6.0,6.0,631.4055479779199,2.0,1.0,phase_2,go,500.0,500.0,1.0,,,,,,,,,orange,triangle
0.0,3.0,3.0,0.0,5.0,5.0,699.8946806306776,2.0,1.0,phase_2,go,500.0,500.0,1.0,,,,,,,,,orange,triangle
0.0,4.0,4.0,0.0,5.0,5.0,724.0509036309959,2.0,1.0,phase_2,go,500.0,500.0,1.0,,,,,,,,,magenta,flipped triangle
0.0,2.0,2.0,0.0,6.0,6.0,503.581344284612,3.0,1.0,phase_2,go,500.0,500.0,1.0,,,,,,,,,white,hexagon
0.0,1.0,1.0,0.0,5.0,5.0,449.3170849818853,3.0,1.0,phase_2,go,500.0,500.0,1.0,,,,,,,,,yellow,cross
0.0,3.0,3.0,0.0,5.0,5.0,562.5791313250375,3.0,1.0,phase_2,go,500.0,500.0,1.0,,,,,,,,,orange,triangle
0.0,6.0,2.0,1.0,5.0,5.0,573.3605133063975,3.0,1.0,phase_2,stop,500.0,500.0,3.0,,,,,,,,,gray,circle
0.0,7.0,3.0,1.0,5.0,5.0,686.9746646298154,3.0,1.0,phase_2,go,450.0,500.0,1.0,,,,,,,,,blue,I
0.0,8.0,4.0,1.0,5.0,5.0,598.2496706747042,3.0,1.0,phase_2,stop,450.0,500.0,3.0,,,,,,,,,green,square
0.0,7.0,3.0,1.0,6.0,6.0,339.7591933025978,3.0,1.0,phase_2,stop,400.0,500.0,3.0,,,,,,,,,blue,I
0.0,7.0,3.0,1.0,6.0,6.0,463.5926219780231,3.0,1.0,phase_2,stop,400.0,450.0,3.0,,,,,,,,,blue,I
0.0,2.0,2.0,0.0,6.0,6.0,677.9442859769915,3.0,1.0,phase_2,go,400.0,400.0,1.0,,,,,,,,,white,hexagon
0.0,6.0,2.0,1.0,6.0,0.0,0.0,3.0,1.0,phase_2,stop,400.0,400.0,4.0,,,,,,,,,gray,circle
0.0,7.0,3.0,1.0,5.0,5.0,555.7091936498182,3.0,1.0,phase_2,go,400.0,450.0,1.0,,,,,,,,,blue,I
0.0,4.0,4.0,0.0,5.0,5.0,490.5549736322427,3.0,1.0,phase_2,go,400.0,450.0,1.0,,,,,,,,,magenta,flipped triangle
0.0,2.0,2.0,0.0,6.0,6.0,253.7327923055272,3.0,1.0,phase_2,go,400.0,450.0,1.0,,,,,,,,,white,hexagon
0.0,3.0,3.0,0.0,5.0,5.0,267.5567699807288,3.0,1.0,phase_2,go,400.0,450.0,1.0,,,,,,,,,orange,triangle
0.0,8.0,4.0,1.0,5.0,6.0,121.9826983069651,3.0,1.0,phase_2,stop,400.0,450.0,3.0,,,,,,,,,green,square
0.0,3.0,3.0,0.0,5.0,5.0,348.5061519786541,3.0,1.0,phase_2,go,350.0,450.0,1.0,,,,,,,,,orange,triangle
0.0,3.0,3.0,0.0,5.0,5.0,348.7639696104452,3.0,1.0,phase_2,go,350.0,450.0,1.0,,,,,,,,,orange,triangle
0.0,7.0,3.0,1.0,6.0,6.0,606.7738899801043,3.0,1.0,phase_2,stop,350.0,450.0,3.0,,,,,,,,,blue,I
0.0,3.0,3.0,0.0,6.0,6.0,382.3618269780127,3.0,1.0,phase_2,go,350.0,400.0,1.0,,,,,,,,,orange,triangle
0.0,6.0,2.0,1.0,6.0,6.0,362.1556330217572,3.0,1.0,phase_2,go,350.0,400.0,1.0,,,,,,,,,gray,circle
0.0,7.0,3.0,1.0,5.0,5.0,262.4120826512808,3.0,1.0,phase_2,stop,350.0,400.0,3.0,,,,,,,,,blue,I
0.0,8.0,4.0,1.0,5.0,0.0,0.0,3.0,1.0,phase_2,stop,300.0,400.0,4.0,,,,,,,,,green,square
0.0,3.0,3.0,0.0,6.0,6.0,555.1145187964721,3.0,1.0,phase_2,go,350.0,400.0,1.0,,,,,,,,,orange,triangle
0.0,8.0,4.0,1.0,6.0,6.0,353.2133033077116,3.0,1.0,phase_2,stop,350.0,400.0,3.0,,,,,,,,,green,square
0.0,3.0,3.0,0.0,5.0,5.0,602.7010806501494,3.0,1.0,phase_2,go,350.0,350.0,1.0,,,,,,,,,orange,triangle
0.0,8.0,4.0,1.0,6.0,6.0,265.9451176332368,3.0,1.0,phase_2,go,350.0,350.0,1.0,,,,,,,,,green,square
0.0,2.0,2.0,0.0,5.0,5.0,278.3130369789433,3.0,1.0,phase_2,go,350.0,350.0,1.0,,,,,,,,,white,hexagon
0.0,6.0,2.0,1.0,6.0,6.0,223.3382849772169,3.0,1.0,phase_2,stop,350.0,350.0,3.0,,,,,,,,,gray,circle
0.0,4.0,4.0,0.0,6.0,6.0,302.0806625208934,3.0,1.0,phase_2,go,350.0,300.0,1.0,,,,,,,,,magenta,flipped triangle
0.0,3.0,3.0,0.0,6.0,6.0,291.6411409787542,3.0,1.0,phase_2,go,350.0,300.0,1.0,,,,,,,,,orange,triangle
0.0,2.0,2.0,0.0,5.0,5.0,336.7053536530875,3.0,1.0,phase_2,go,350.0,300.0,1.0,,,,,,,,,white,hexagon
0.0,2.0,2.0,0.0,6.0,6.0,225.2802569564664,3.0,1.0,phase_2,go,350.0,300.0,1.0,,,,,,,,,white,hexagon
0.0,3.0,3.0,0.0,6.0,6.0,304.7152096332866,3.0,1.0,phase_2,go,350.0,300.0,1.0,,,,,,,,,orange,triangle
0.0,6.0,2.0,1.0,5.0,5.0,306.5086950009572,3.0,1.0,phase_2,stop,350.0,300.0,3.0,,,,,,,,,gray,circle
0.0,7.0,3.0,1.0,6.0,6.0,587.1362326324743,3.0,1.0,phase_2,go,300.0,300.0,1.0,,,,,,,,,blue,I
0.0,2.0,2.0,0.0,5.0,5.0,454.6478873271553,3.0,1.0,phase_2,go,300.0,300.0,1.0,,,,,,,,,white,hexagon
0.0,2.0,2.0,0.0,6.0,6.0,619.4712453034299,4.0,1.0,phase_2,go,300.0,300.0,1.0,,,,,,,,,white,hexagon
0.0,6.0,2.0,1.0,6.0,0.0,0.0,4.0,1.0,phase_2,stop,300.0,300.0,4.0,,,,,,,,,gray,circle
0.0,3.0,3.0,0.0,5.0,5.0,496.2635556330497,4.0,1.0,phase_2,go,300.0,350.0,1.0,,,,,,,,,orange,triangle
0.0,6.0,2.0,1.0,6.0,0.0,0.0,4.0,1.0,phase_2,stop,300.0,350.0,4.0,,,,,,,,,gray,circle
0.0,4.0,4.0,0.0,6.0,6.0,567.5921309593832,4.0,1.0,phase_2,go,300.0,400.0,1.0,,,,,,,,,magenta,flipped triangle
0.0,7.0,3.0,1.0,5.0,0.0,0.0,4.0,1.0,phase_2,stop,300.0,400.0,4.0,,,,,,,,,blue,I
0.0,1.0,1.0,0.0,5.0,5.0,590.4784119811666,4.0,1.0,phase_2,go,350.0,400.0,1.0,,,,,,,,,yellow,cross
0.0,1.0,1.0,0.0,5.0,5.0,647.6805742822762,4.0,1.0,phase_2,go,350.0,400.0,1.0,,,,,,,,,yellow,cross
0.0,5.0,1.0,1.0,5.0,0.0,0.0,4.0,1.0,phase_2,stop,350.0,400.0,4.0,,,,,,,,,cyan,diamond
0.0,7.0,3.0,1.0,6.0,6.0,594.52084595614,4.0,1.0,phase_2,go,400.0,400.0,1.0,,,,,,,,,blue,I
0.0,8.0,4.0,1.0,6.0,6.0,380.4104886730783,4.0,1.0,phase_2,go,400.0,400.0,1.0,,,,,,,,,green,square
0.0,2.0,2.0,0.0,6.0,6.0,583.9711743064981,4.0,1.0,phase_2,go,400.0,400.0,1.0,,,,,,,,,white,hexagon
0.0,1.0,1.0,0.0,5.0,5.0,619.40559728464,4.0,1.0,phase_2,go,400.0,400.0,1.0,,,,,,,,,yellow,cross
0.0,7.0,3.0,1.0,5.0,5.0,370.4941782816604,4.0,1.0,phase_2,go,400.0,400.0,1.0,,,,,,,,,blue,I
0.0,2.0,2.0,0.0,5.0,5.0,620.6709863254218,4.0,1.0,phase_2,go,400.0,400.0,1.0,,,,,,,,,white,hexagon
0.0,3.0,3.0,0.0,5.0,5.0,294.3253989578807,4.0,1.0,phase_2,go,400.0,400.0,1.0,,,,,,,,,orange,triangle
0.0,4.0,4.0,0.0,5.0,5.0,598.1326389592141,4.0,1.0,phase_2,go,400.0,400.0,1.0,,,,,,,,,magenta,flipped triangle
0.0,5.0,1.0,1.0,6.0,0.0,0.0,4.0,1.0,phase_2,stop,400.0,400.0,4.0,,,,,,,,,cyan,diamond
0.0,1.0,1.0,0.0,6.0,6.0,611.0501406728872,4.0,1.0,phase_2,go,400.0,450.0,1.0,,,,,,,,,yellow,cross
0.0,7.0,3.0,1.0,6.0,6.0,544.5019340004364,4.0,1.0,phase_2,stop,400.0,450.0,3.0,,,,,,,,,blue,I
0.0,6.0,2.0,1.0,5.0,5.0,456.5866986522451,4.0,1.0,phase_2,stop,400.0,400.0,3.0,,,,,,,,,gray,circle
0.0,3.0,3.0,0.0,5.0,5.0,591.8559549791098,4.0,1.0,phase_2,go,350.0,400.0,1.0,,,,,,,,,orange,triangle
0.0,6.0,2.0,1.0,5.0,5.0,491.7003293048765,4.0,1.0,phase_2,go,350.0,400.0,1.0,,,,,,,,,gray,circle
0.0,4.0,4.0,0.0,6.0,6.0,289.4899823040759,4.0,1.0,phase_2,go,350.0,400.0,1.0,,,,,,,,,magenta,flipped triangle
0.0,3.0,3.0,0.0,6.0,6.0,617.8601103274559,4.0,1.0,phase_2,go,350.0,400.0,1.0,,,,,,,,,orange,triangle
0.0,6.0,2.0,1.0,6.0,6.0,572.3516852813191,4.0,1.0,phase_2,stop,350.0,400.0,3.0,,,,,,,,,gray,circle
0.0,8.0,4.0,1.0,6.0,0.0,0.0,4.0,1.0,phase_2,stop,350.0,350.0,4.0,,,,,,,,,green,square
0.0,1.0,1.0,0.0,6.0,6.0,618.5025953454897,4.0,1.0,phase_2,go,350.0,400.0,1.0,,,,,,,,,yellow,cross
0.0,1.0,1.0,0.0,5.0,5.0,665.0132899776509,4.0,1.0,phase_2,go,350.0,400.0,1.0,,,,,,,,,yellow,cross
0.0,1.0,1.0,0.0,5.0,5.0,598.1041380000534,4.0,1.0,phase_2,go,350.0,400.0,1.0,,,,,,,,,yellow,cross
0.0,4.0,4.0,0.0,5.0,5.0,351.7335983233352,4.0,1.0,phase_2,go,350.0,400.0,1.0,,,,,,,,,magenta,flipped triangle
0.0,8.0,4.0,1.0,6.0,6.0,408.5795909777516,4.0,1.0,phase_2,go,350.0,400.0,1.0,,,,,,,,,green,square
0.0,4.0,4.0,0.0,5.0,5.0,589.2188849575177,4.0,1.0,phase_2,go,350.0,400.0,1.0,,,,,,,,,magenta,flipped triangle
0.0,5.0,1.0,1.0,6.0,0.0,0.0,4.0,1.0,phase_2,stop,350.0,400.0,4.0,,,,,,,,,cyan,diamond
0.0,5.0,1.0,1.0,6.0,0.0,0.0,4.0,1.0,phase_2,stop,350.0,450.0,4.0,,,,,,,,,cyan,diamond
0.0,3.0,3.0,0.0,5.0,5.0,660.3675309779646,4.0,1.0,phase_2,go,350.0,500.0,1.0,,,,,,,,,orange,triangle
0.0,5.0,1.0,1.0,5.0,0.0,0.0,5.0,1.0,phase_2,stop,350.0,500.0,4.0,,,,,,,,,cyan,diamond
0.0,2.0,2.0,0.0,5.0,5.0,474.4095979367557,5.0,1.0,phase_2,go,400.0,500.0,1.0,,,,,,,,,white,hexagon
0.0,8.0,4.0,1.0,6.0,6.0,374.1164199382183,5.0,1.0,phase_2,go,400.0,500.0,1.0,,,,,,,,,green,square
0.0,8.0,4.0,1.0,5.0,5.0,431.512025934353,5.0,1.0,phase_2,stop,400.0,500.0,3.0,,,,,,,,,green,square
0.0,4.0,4.0,0.0,6.0,6.0,488.7528693252534,5.0,1.0,phase_2,go,350.0,500.0,1.0,,,,,,,,,magenta,flipped triangle
0.0,4.0,4.0,0.0,5.0,5.0,467.8898583260888,5.0,1.0,phase_2,go,350.0,500.0,1.0,,,,,,,,,magenta,flipped triangle
0.0,5.0,1.0,1.0,5.0,0.0,0.0,5.0,1.0,phase_2,stop,350.0,500.0,4.0,,,,,,,,,cyan,diamond
0.0,2.0,2.0,0.0,5.0,5.0,581.1525459794211,5.0,1.0,phase_2,go,400.0,500.0,1.0,,,,,,,,,white,hexagon
0.0,3.0,3.0,0.0,5.0,5.0,694.9271619778301,5.0,1.0,phase_2,go,400.0,500.0,1.0,,,,,,,,,orange,triangle
0.0,8.0,4.0,1.0,5.0,5.0,638.423476000753,5.0,1.0,phase_2,go,400.0,500.0,1.0,,,,,,,,,green,square
0.0,2.0,2.0,0.0,6.0,6.0,606.999173956865,5.0,1.0,phase_2,go,400.0,500.0,1.0,,,,,,,,,white,hexagon
0.0,4.0,4.0,0.0,6.0,6.0,550.3034563480469,5.0,1.0,phase_2,go,400.0,500.0,1.0,,,,,,,,,magenta,flipped triangle
0.0,5.0,1.0,1.0,6.0,6.0,608.67746463191,5.0,1.0,phase_2,stop,400.0,500.0,3.0,,,,,,,,,cyan,diamond
0.0,2.0,2.0,0.0,6.0,6.0,744.4085686729522,5.0,1.0,phase_2,go,400.0,450.0,1.0,,,,,,,,,white,hexagon
0.0,4.0,4.0,0.0,5.0,5.0,575.0996342867438,5.0,1.0,phase_2,go,400.0,450.0,1.0,,,,,,,,,magenta,flipped triangle
0.0,7.0,3.0,1.0,6.0,6.0,621.3333019586571,5.0,1.0,phase_2,go,400.0,450.0,1.0,,,,,,,,,blue,I
0.0,1.0,1.0,0.0,5.0,5.0,701.1263473468716,5.0,1.0,phase_2,go,400.0,450.0,1.0,,,,,,,,,yellow,cross
0.0,6.0,2.0,1.0,5.0,5.0,613.2698972869548,5.0,1.0,phase_2,go,400.0,450.0,1.0,,,,,,,,,gray,circle
0.0,7.0,3.0,1.0,5.0,5.0,533.8697449587926,5.0,1.0,phase_2,go,400.0,450.0,1.0,,,,,,,,,blue,I
0.0,8.0,4.0,1.0,5.0,0.0,0.0,5.0,1.0,phase_2,stop,400.0,450.0,4.0,,,,,,,,,green,square
0.0,5.0,1.0,1.0,5.0,0.0,0.0,5.0,1.0,phase_2,stop,450.0,450.0,4.0,,,,,,,,,cyan,diamond
0.0,4.0,4.0,0.0,6.0,6.0,762.6750083254592,5.0,1.0,phase_2,go,500.0,450.0,1.0,,,,,,,,,magenta,flipped triangle
0.0,1.0,1.0,0.0,6.0,6.0,750.8528239595762,5.0,1.0,phase_2,go,500.0,450.0,1.0,,,,,,,,,yellow,cross
0.0,5.0,1.0,1.0,6.0,0.0,0.0,5.0,1.0,phase_2,stop,500.0,450.0,4.0,,,,,,,,,cyan,diamond
0.0,8.0,4.0,1.0,5.0,0.0,0.0,5.0,1.0,phase_2,stop,500.0,500.0,4.0,,,,,,,,,green,square
0.0,8.0,4.0,1.0,5.0,5.0,698.8609683248797,5.0,1.0,phase_2,go,550.0,500.0,1.0,,,,,,,,,green,square
0.0,1.0,1.0,0.0,5.0,5.0,675.5667866527801,5.0,1.0,phase_2,go,550.0,500.0,1.0,,,,,,,,,yellow,cross
0.0,1.0,1.0,0.0,6.0,6.0,687.1592710012919,5.0,1.0,phase_2,go,550.0,500.0,1.0,,,,,,,,,yellow,cross
0.0,5.0,1.0,1.0,6.0,6.0,632.4114972849202,5.0,1.0,phase_2,go,550.0,500.0,1.0,,,,,,,,,cyan,diamond
0.0,1.0,1.0,0.0,5.0,5.0,622.3088446313341,5.0,1.0,phase_2,go,550.0,500.0,1.0,,,,,,,,,yellow,cross
0.0,4.0,4.0,0.0,6.0,6.0,610.9504283267597,5.0,1.0,phase_2,go,550.0,500.0,1.0,,,,,,,,,magenta,flipped triangle
0.0,7.0,3.0,1.0,5.0,5.0,545.247896672663,5.0,1.0,phase_2,stop,550.0,500.0,3.0,,,,,,,,,blue,I
0.0,6.0,2.0,1.0,5.0,0.0,0.0,5.0,1.0,phase_2,stop,500.0,500.0,4.0,,,,,,,,,gray,circle
0.0,4.0,4.0,0.0,5.0,5.0,682.4567976073013,5.0,1.0,phase_2,go,550.0,500.0,1.0,,,,,,,,,magenta,flipped triangle
0.0,4.0,4.0,0.0,6.0,6.0,751.2594589570654,5.0,1.0,phase_2,go,550.0,500.0,1.0,,,,,,,,,magenta,flipped triangle
0.0,5.0,1.0,1.0,6.0,6.0,727.9518546092731,5.0,1.0,phase_2,go,550.0,500.0,1.0,,,,,,,,,cyan,diamond
0.0,1.0,1.0,0.0,6.0,6.0,319.4589223057846,6.0,1.0,phase_2,go,550.0,500.0,1.0,,,,,,,,,yellow,cross
0.0,1.0,1.0,0.0,5.0,5.0,499.733919998107,6.0,1.0,phase_2,go,550.0,500.0,1.0,,,,,,,,,yellow,cross
0.0,2.0,2.0,0.0,6.0,6.0,398.2105693066842,6.0,1.0,phase_2,go,550.0,500.0,1.0,,,,,,,,,white,hexagon
0.0,6.0,2.0,1.0,6.0,6.0,444.5724053039157,6.0,1.0,phase_2,go,550.0,500.0,1.0,,,,,,,,,gray,circle
0.0,3.0,3.0,0.0,6.0,6.0,569.4742233063153,6.0,1.0,phase_2,go,550.0,500.0,1.0,,,,,,,,,orange,triangle
0.0,5.0,1.0,1.0,5.0,5.0,378.5632086328405,6.0,1.0,phase_2,stop,550.0,500.0,3.0,,,,,,,,,cyan,diamond
0.0,5.0,1.0,1.0,6.0,6.0,513.686064612557,6.0,1.0,phase_2,stop,500.0,500.0,3.0,,,,,,,,,cyan,diamond
0.0,8.0,4.0,1.0,6.0,0.0,0.0,6.0,1.0,phase_2,stop,500.0,450.0,4.0,,,,,,,,,green,square
0.0,1.0,1.0,0.0,6.0,6.0,640.4895356536144,6.0,1.0,phase_2,go,500.0,500.0,1.0,,,,,,,,,yellow,cross
0.0,5.0,1.0,1.0,6.0,0.0,0.0,6.0,1.0,phase_2,stop,500.0,500.0,4.0,,,,,,,,,cyan,diamond
0.0,3.0,3.0,0.0,6.0,6.0,620.3045006550383,6.0,1.0,phase_2,go,500.0,550.0,1.0,,,,,,,,,orange,triangle
0.0,2.0,2.0,0.0,6.0,6.0,361.0660136509978,6.0,1.0,phase_2,go,500.0,550.0,1.0,,,,,,,,,white,hexagon
0.0,1.0,1.0,0.0,6.0,6.0,678.0669456093165,6.0,1.0,phase_2,go,500.0,550.0,1.0,,,,,,,,,yellow,cross
0.0,7.0,3.0,1.0,5.0,0.0,0.0,6.0,1.0,phase_2,stop,500.0,550.0,4.0,,,,,,,,,blue,I
0.0,5.0,1.0,1.0,5.0,0.0,0.0,6.0,1.0,phase_2,stop,550.0,550.0,4.0,,,,,,,,,cyan,diamond
0.0,3.0,3.0,0.0,6.0,6.0,702.7439166340628,6.0,1.0,phase_2,go,600.0,550.0,1.0,,,,,,,,,orange,triangle
0.0,3.0,3.0,0.0,6.0,6.0,748.9275799780444,6.0,1.0,phase_2,go,600.0,550.0,1.0,,,,,,,,,orange,triangle
0.0,1.0,1.0,0.0,6.0,6.0,670.590629306389,6.0,1.0,phase_2,go,600.0,550.0,1.0,,,,,,,,,yellow,cross
0.0,8.0,4.0,1.0,6.0,6.0,738.0918872840994,6.0,1.0,phase_2,stop,600.0,550.0,3.0,,,,,,,,,green,square
0.0,4.0,4.0,0.0,6.0,6.0,852.6035809591122,6.0,1.0,phase_2,go,600.0,500.0,1.0,,,,,,,,,magenta,flipped triangle
0.0,8.0,4.0,1.0,5.0,5.0,718.242308957997,6.0,1.0,phase_2,stop,600.0,500.0,3.0,,,,,,,,,green,square
0.0,6.0,2.0,1.0,5.0,0.0,0.0,6.0,1.0,phase_2,stop,550.0,500.0,4.0,,,,,,,,,gray,circle
0.0,1.0,1.0,0.0,5.0,5.0,909.5175946713424,6.0,1.0,phase_2,go,600.0,500.0,1.0,,,,,,,,,yellow,cross
0.0,6.0,2.0,1.0,5.0,5.0,663.479503000417,6.0,1.0,phase_2,stop,600.0,500.0,3.0,,,,,,,,,gray,circle
0.0,8.0,4.0,1.0,5.0,0.0,0.0,6.0,1.0,phase_2,stop,550.0,500.0,4.0,,,,,,,,,green,square
0.0,4.0,4.0,0.0,6.0,6.0,698.9171836539754,6.0,1.0,phase_2,go,600.0,500.0,1.0,,,,,,,,,magenta,flipped triangle
0.0,7.0,3.0,1.0,5.0,5.0,620.5026293064293,6.0,1.0,phase_2,go,600.0,500.0,1.0,,,,,,,,,blue,I
0.0,3.0,3.0,0.0,5.0,5.0,689.4583713074098,6.0,1.0,phase_2,go,600.0,500.0,1.0,,,,,,,,,orange,triangle
0.0,1.0,1.0,0.0,6.0,6.0,813.0348709782993,6.0,1.0,phase_2,go,600.0,500.0,1.0,,,,,,,,,yellow,cross
0.0,8.0,4.0,1.0,6.0,6.0,646.3518973469036,6.0,1.0,phase_2,stop,600.0,500.0,3.0,,,,,,,,,green,square
0.0,7.0,3.0,1.0,5.0,0.0,0.0,6.0,1.0,phase_2,stop,600.0,450.0,4.0,,,,,,,,,blue,I
0.0,2.0,2.0,0.0,6.0,6.0,862.1458886736946,6.0,1.0,phase_2,go,650.0,450.0,1.0,,,,,,,,,white,hexagon
0.0,8.0,4.0,1.0,5.0,0.0,0.0,6.0,1.0,phase_2,stop,650.0,450.0,4.0,,,,,,,,,green,square
0.0,2.0,2.0,0.0,6.0,6.0,717.727388957428,6.0,1.0,phase_2,go,700.0,450.0,1.0,,,,,,,,,white,hexagon
0.0,7.0,3.0,1.0,6.0,0.0,0.0,6.0,1.0,phase_2,stop,700.0,450.0,4.0,,,,,,,,,blue,I
0.0,8.0,4.0,1.0,6.0,0.0,0.0,6.0,1.0,phase_2,stop,700.0,500.0,4.0,,,,,,,,,green,square
0.0,6.0,2.0,1.0,5.0,5.0,498.5331236530328,7.0,1.0,phase_2,stop,700.0,550.0,3.0,,,,,,,,,gray,circle
0.0,2.0,2.0,0.0,6.0,6.0,452.4749273077759,7.0,1.0,phase_2,go,650.0,550.0,1.0,,,,,,,,,white,hexagon
0.0,4.0,4.0,0.0,6.0,6.0,622.4982742824068,7.0,1.0,phase_2,go,650.0,550.0,1.0,,,,,,,,,magenta,flipped triangle
0.0,4.0,4.0,0.0,6.0,6.0,634.4668050005566,7.0,1.0,phase_2,go,650.0,550.0,1.0,,,,,,,,,magenta,flipped triangle
0.0,8.0,4.0,1.0,6.0,6.0,624.2566146320314,7.0,1.0,phase_2,stop,650.0,550.0,3.0,,,,,,,,,green,square
0.0,4.0,4.0,0.0,6.0,6.0,817.1646506525576,7.0,1.0,phase_2,go,650.0,500.0,1.0,,,,,,,,,magenta,flipped triangle
0.0,6.0,2.0,1.0,6.0,0.0,0.0,7.0,1.0,phase_2,stop,650.0,500.0,4.0,,,,,,,,,gray,circle
0.0,4.0,4.0,0.0,5.0,5.0,817.8203026545816,7.0,1.0,phase_2,go,650.0,550.0,1.0,,,,,,,,,magenta,flipped triangle
0.0,5.0,1.0,1.0,5.0,5.0,753.061697632802,7.0,1.0,phase_2,stop,650.0,550.0,3.0,,,,,,,,,cyan,diamond
0.0,5.0,1.0,1.0,6.0,0.0,0.0,7.0,1.0,phase_2,stop,600.0,550.0,4.0,,,,,,,,,cyan,diamond
0.0,4.0,4.0,0.0,5.0,5.0,842.4465340212919,7.0,1.0,phase_2,go,600.0,600.0,1.0,,,,,,,,,magenta,flipped triangle
0.0,6.0,2.0,1.0,5.0,0.0,0.0,7.0,1.0,phase_2,stop,600.0,600.0,4.0,,,,,,,,,gray,circle
0.0,6.0,2.0,1.0,6.0,6.0,878.697381936945,7.0,1.0,phase_2,go,650.0,600.0,1.0,,,,,,,,,gray,circle
0.0,3.0,3.0,0.0,6.0,6.0,812.0309629812255,7.0,1.0,phase_2,go,650.0,600.0,1.0,,,,,,,,,orange,triangle
0.0,6.0,2.0,1.0,6.0,0.0,0.0,7.0,1.0,phase_2,stop,650.0,600.0,4.0,,,,,,,,,gray,circle
0.0,1.0,1.0,0.0,6.0,6.0,779.8843129785382,7.0,1.0,phase_2,go,650.0,650.0,1.0,,,,,,,,,yellow,cross
0.0,2.0,2.0,0.0,6.0,6.0,758.5506043251371,7.0,1.0,phase_2,go,650.0,650.0,1.0,,,,,,,,,white,hexagon
0.0,2.0,2.0,0.0,6.0,6.0,759.3236753273231,7.0,1.0,phase_2,go,650.0,650.0,1.0,,,,,,,,,white,hexagon
0.0,1.0,1.0,0.0,6.0,6.0,793.6129096742661,7.0,1.0,phase_2,go,650.0,650.0,1.0,,,,,,,,,yellow,cross
0.0,7.0,3.0,1.0,6.0,0.0,0.0,7.0,1.0,phase_2,stop,650.0,650.0,4.0,,,,,,,,,blue,I
0.0,3.0,3.0,0.0,6.0,6.0,862.5998429997708,7.0,1.0,phase_2,go,650.0,700.0,1.0,,,,,,,,,orange,triangle
0.0,6.0,2.0,1.0,5.0,0.0,0.0,7.0,1.0,phase_2,stop,650.0,700.0,4.0,,,,,,,,,gray,circle
0.0,5.0,1.0,1.0,5.0,0.0,0.0,7.0,1.0,phase_2,stop,700.0,700.0,4.0,,,,,,,,,cyan,diamond
0.0,2.0,2.0,0.0,5.0,5.0,741.4698823049548,7.0,1.0,phase_2,go,750.0,700.0,1.0,,,,,,,,,white,hexagon
0.0,5.0,1.0,1.0,6.0,6.0,698.7258036133426,7.0,1.0,phase_2,stop,750.0,700.0,3.0,,,,,,,,,cyan,diamond
0.0,6.0,2.0,1.0,5.0,5.0,697.362273978797,7.0,1.0,phase_2,stop,750.0,650.0,3.0,,,,,,,,,gray,circle
0.0,4.0,4.0,0.0,5.0,5.0,779.1259426085162,7.0,1.0,phase_2,go,700.0,650.0,1.0,,,,,,,,,magenta,flipped triangle
0.0,6.0,2.0,1.0,6.0,6.0,734.6516989782685,7.0,1.0,phase_2,stop,700.0,650.0,3.0,,,,,,,,,gray,circle
0.0,7.0,3.0,1.0,6.0,6.0,780.8718506530568,7.0,1.0,phase_2,stop,700.0,600.0,3.0,,,,,,,,,blue,I
0.0,7.0,3.0,1.0,5.0,5.0,678.4728193269984,7.0,1.0,phase_2,stop,700.0,550.0,3.0,,,,,,,,,blue,I
0.0,3.0,3.0,0.0,5.0,5.0,758.0358076738776,7.0,1.0,phase_2,go,650.0,550.0,1.0,,,,,,,,,orange,triangle
0.0,4.0,4.0,0.0,5.0,5.0,670.4768069575948,7.0,1.0,phase_2,go,650.0,550.0,1.0,,,,,,,,,magenta,flipped triangle
0.0,7.0,3.0,1.0,5.0,5.0,726.3386236518272,7.0,1.0,phase_2,stop,650.0,550.0,3.0,,,,,,,,,blue,I
0.0,5.0,1.0,1.0,6.0,0.0,0.0,7.0,1.0,phase_2,stop,600.0,550.0,4.0,,,,,,,,,cyan,diamond
0.0,5.0,1.0,1.0,6.0,6.0,897.3137259563373,7.0,1.0,phase_2,go,600.0,600.0,1.0,,,,,,,,,cyan,diamond
0.0,7.0,3.0,1.0,6.0,0.0,0.0,7.0,1.0,phase_2,stop,600.0,600.0,4.0,,,,,,,,,blue,I
0.0,8.0,4.0,1.0,5.0,5.0,348.4724763075064,8.0,1.0,phase_2,stop,600.0,650.0,3.0,,,,,,,,,green,square
0.0,5.0,1.0,1.0,6.0,6.0,439.7574853283004,8.0,1.0,phase_2,go,550.0,650.0,1.0,,,,,,,,,cyan,diamond
0.0,5.0,1.0,1.0,5.0,5.0,283.830421652965,8.0,1.0,phase_2,go,550.0,650.0,1.0,,,,,,,,,cyan,diamond
0.0,8.0,4.0,1.0,5.0,5.0,599.7241229561041,8.0,1.0,phase_2,stop,550.0,650.0,3.0,,,,,,,,,green,square
0.0,4.0,4.0,0.0,5.0,5.0,723.1551349796064,8.0,1.0,phase_2,go,500.0,650.0,1.0,,,,,,,,,magenta,flipped triangle
0.0,7.0,3.0,1.0,6.0,6.0,320.0684599796659,8.0,1.0,phase_2,stop,500.0,650.0,3.0,,,,,,,,,blue,I
0.0,1.0,1.0,0.0,6.0,6.0,566.9229709383217,8.0,1.0,phase_2,go,500.0,600.0,1.0,,,,,,,,,yellow,cross
0.0,6.0,2.0,1.0,5.0,0.0,0.0,8.0,1.0,phase_2,stop,500.0,600.0,4.0,,,,,,,,,gray,circle
0.0,8.0,4.0,1.0,5.0,5.0,625.0538339554623,8.0,1.0,phase_2,stop,550.0,600.0,3.0,,,,,,,,,green,square
0.0,3.0,3.0,0.0,5.0,5.0,760.9006596539984,8.0,1.0,phase_2,go,500.0,600.0,1.0,,,,,,,,,orange,triangle
0.0,3.0,3.0,0.0,5.0,5.0,560.1955593265302,8.0,1.0,phase_2,go,500.0,600.0,1.0,,,,,,,,,orange,triangle
0.0,6.0,2.0,1.0,6.0,6.0,335.0697343048523,8.0,1.0,phase_2,stop,500.0,600.0,3.0,,,,,,,,,gray,circle
0.0,6.0,2.0,1.0,5.0,0.0,0.0,8.0,1.0,phase_2,stop,500.0,550.0,4.0,,,,,,,,,gray,circle
0.0,1.0,1.0,0.0,5.0,5.0,787.7050773277006,8.0,1.0,phase_2,go,550.0,550.0,1.0,,,,,,,,,yellow,cross
0.0,8.0,4.0,1.0,6.0,6.0,248.5203002870548,8.0,1.0,phase_2,go,550.0,550.0,1.0,,,,,,,,,green,square
0.0,5.0,1.0,1.0,5.0,5.0,292.9930339560087,8.0,1.0,phase_2,stop,550.0,550.0,3.0,,,,,,,,,cyan,diamond
0.0,8.0,4.0,1.0,6.0,6.0,305.4721239568607,8.0,1.0,phase_2,stop,500.0,550.0,3.0,,,,,,,,,green,square
0.0,5.0,1.0,1.0,5.0,0.0,0.0,8.0,1.0,phase_2,stop,500.0,500.0,4.0,,,,,,,,,cyan,diamond
0.0,3.0,3.0,0.0,5.0,5.0,691.0769869791693,8.0,1.0,phase_2,go,550.0,500.0,1.0,,,,,,,,,orange,triangle
0.0,7.0,3.0,1.0,6.0,0.0,0.0,8.0,1.0,phase_2,stop,550.0,500.0,4.0,,,,,,,,,blue,I
0.0,1.0,1.0,0.0,6.0,6.0,343.7238359765615,8.0,1.0,phase_2,go,550.0,550.0,1.0,,,,,,,,,yellow,cross
0.0,5.0,1.0,1.0,5.0,5.0,560.0986563040351,8.0,1.0,phase_2,stop,550.0,550.0,3.0,,,,,,,,,cyan,diamond
0.0,8.0,4.0,1.0,5.0,0.0,0.0,8.0,1.0,phase_2,stop,500.0,550.0,4.0,,,,,,,,,green,square
0.0,7.0,3.0,1.0,6.0,6.0,345.4737309584743,8.0,1.0,phase_2,stop,550.0,550.0,3.0,,,,,,,,,blue,I
0.0,6.0,2.0,1.0,6.0,6.0,649.4119019589562,8.0,1.0,phase_2,go,550.0,500.0,1.0,,,,,,,,,gray,circle
0.0,4.0,4.0,0.0,5.0,5.0,718.3123563263507,8.0,1.0,phase_2,go,550.0,500.0,1.0,,,,,,,,,magenta,flipped triangle
0.0,8.0,4.0,1.0,6.0,6.0,336.5649936313275,8.0,1.0,phase_2,stop,550.0,500.0,3.0,,,,,,,,,green,square
0.0,7.0,3.0,1.0,6.0,6.0,572.9862906737253,8.0,1.0,phase_2,stop,550.0,450.0,3.0,,,,,,,,,blue,I
0.0,4.0,4.0,0.0,6.0,6.0,238.0297696290654,8.0,1.0,phase_2,go,550.0,400.0,1.0,,,,,,,,,magenta,flipped triangle
0.0,2.0,2.0,0.0,5.0,5.0,293.0725006517605,8.0,1.0,phase_2,go,550.0,400.0,1.0,,,,,,,,,white,hexagon
0.0,8.0,4.0,1.0,6.0,6.0,272.3220749758184,8.0,1.0,phase_2,go,550.0,400.0,1.0,,,,,,,,,green,square
0.0,1.0,1.0,0.0,5.0,5.0,252.0485739805735,8.0,1.0,phase_2,go,550.0,400.0,1.0,,,,,,,,,yellow,cross
0.0,4.0,4.0,0.0,5.0,5.0,296.4326799992705,8.0,1.0,phase_2,go,550.0,400.0,1.0,,,,,,,,,magenta,flipped triangle
0.0,8.0,4.0,1.0,6.0,6.0,240.5631483270554,8.0,1.0,phase_2,stop,550.0,400.0,3.0,,,,,,,,,green,square
0.0,2.0,2.0,0.0,5.0,5.0,636.247795959207,8.0,1.0,phase_2,go,550.0,350.0,1.0,,,,,,,,,white,hexagon
0.0,5.0,1.0,1.0,5.0,5.0,669.9322746535472,8.0,1.0,phase_2,go,550.0,350.0,1.0,,,,,,,,,cyan,diamond
0.0,3.0,3.0,0.0,7.0,4.0,1815.5290336690089,1.0,2.0,phase_3,,,,,294.0,6.0,196.0,98.0,49.0,294.0,147.0,245.0,orange,triangle
0.0,2.0,2.0,0.0,7.0,2.0,1761.503928224556,1.0,1.0,phase_3,,,,,68.0,2.0,204.0,68.0,102.0,170.0,34.0,136.0,white,hexagon
0.0,4.0,4.0,0.0,7.0,5.0,1907.439049336972,1.0,1.0,phase_3,,,,,216.0,4.0,270.0,54.0,108.0,162.0,216.0,324.0,magenta,flipped triangle
0.0,6.0,2.0,1.0,7.0,2.0,1290.872328892874,1.0,1.0,phase_3,,,,,147.0,3.0,294.0,147.0,196.0,245.0,49.0,98.0,gray,circle
0.0,7.0,3.0,1.0,7.0,2.0,1729.362473670335,1.0,1.0,phase_3,,,,,88.0,2.0,264.0,88.0,44.0,220.0,176.0,132.0,blue,I
0.0,8.0,4.0,1.0,7.0,5.0,1023.5797986715625,1.0,1.0,phase_3,,,,,117.0,3.0,234.0,195.0,156.0,39.0,117.0,78.0,green,square
0.0,5.0,1.0,1.0,7.0,2.0,1868.2638228929136,1.0,1.0,phase_3,,,,,162.0,3.0,54.0,162.0,216.0,324.0,270.0,108.0,cyan,diamond
0.0,2.0,2.0,0.0,7.0,3.0,1970.94978766836,1.0,1.0,phase_3,,,,,117.0,3.0,234.0,195.0,117.0,78.0,156.0,39.0,white,hexagon
0.0,8.0,4.0,1.0,7.0,6.0,2477.4318884483364,1.0,1.0,phase_3,,,,,294.0,6.0,98.0,147.0,245.0,49.0,196.0,294.0,green,square
0.0,4.0,4.0,0.0,7.0,4.0,1848.1408542211284,1.0,1.0,phase_3,,,,,196.0,4.0,49.0,245.0,294.0,196.0,98.0,147.0,magenta,flipped triangle
0.0,7.0,3.0,1.0,7.0,2.0,1420.8793601101206,1.0,1.0,phase_3,,,,,102.0,3.0,204.0,102.0,170.0,34.0,136.0,68.0,blue,I
0.0,3.0,3.0,0.0,7.0,5.0,1997.6875132233545,1.0,1.0,phase_3,,,,,196.0,4.0,49.0,98.0,294.0,245.0,196.0,147.0,orange,triangle
0.0,5.0,1.0,1.0,7.0,6.0,2559.562728558376,1.0,1.0,phase_3,,,,,34.0,1.0,204.0,170.0,68.0,136.0,102.0,34.0,cyan,diamond
0.0,6.0,2.0,1.0,7.0,2.0,2200.31846978236,1.0,1.0,phase_3,,,,,132.0,3.0,44.0,132.0,88.0,264.0,220.0,176.0,gray,circle
0.0,7.0,3.0,1.0,7.0,4.0,2394.591621559812,1.0,1.0,phase_3,,,,,324.0,6.0,270.0,108.0,216.0,324.0,54.0,162.0,blue,I
0.0,3.0,3.0,0.0,7.0,4.0,2102.1348788926844,1.0,1.0,phase_3,,,,,156.0,4.0,195.0,234.0,39.0,156.0,78.0,117.0,orange,triangle
0.0,1.0,1.0,0.0,7.0,2.0,1328.2137193345989,1.0,1.0,phase_3,,,,,39.0,1.0,78.0,39.0,195.0,234.0,117.0,156.0,yellow,cross
0.0,4.0,4.0,0.0,7.0,1.0,2329.21547033402,1.0,1.0,phase_3,,,,,162.0,3.0,162.0,324.0,54.0,270.0,108.0,216.0,magenta,flipped triangle
0.0,5.0,1.0,1.0,7.0,6.0,2409.1510291109444,1.0,1.0,phase_3,,,,,234.0,6.0,78.0,39.0,156.0,195.0,117.0,234.0,cyan,diamond
0.0,7.0,3.0,1.0,7.0,5.0,2512.092217668396,1.0,1.0,phase_3,,,,,108.0,2.0,270.0,324.0,162.0,54.0,108.0,216.0,blue,I
0.0,4.0,4.0,0.0,7.0,4.0,1562.2882370043951,2.0,1.0,phase_3,,,,,136.0,4.0,102.0,34.0,170.0,136.0,68.0,204.0,magenta,flipped triangle
0.0,6.0,2.0,1.0,7.0,5.0,2090.7897344477533,2.0,1.0,phase_3,,,,,156.0,4.0,39.0,195.0,78.0,117.0,156.0,234.0,gray,circle
0.0,5.0,1.0,1.0,7.0,6.0,1519.271308556199,2.0,1.0,phase_3,,,,,196.0,4.0,49.0,147.0,294.0,98.0,245.0,196.0,cyan,diamond
0.0,8.0,4.0,1.0,7.0,2.0,1057.0000352236093,2.0,1.0,phase_3,,,,,216.0,4.0,324.0,216.0,270.0,108.0,54.0,162.0,green,square
0.0,8.0,4.0,1.0,7.0,6.0,1992.2109428916883,2.0,1.0,phase_3,,,,,156.0,4.0,39.0,78.0,195.0,234.0,117.0,156.0,green,square
0.0,2.0,2.0,0.0,7.0,5.0,1804.0623281121952,2.0,1.0,phase_3,,,,,170.0,5.0,68.0,102.0,34.0,136.0,170.0,204.0,white,hexagon
0.0,1.0,1.0,0.0,7.0,2.0,1150.3513743336953,2.0,1.0,phase_3,,,,,294.0,6.0,98.0,294.0,147.0,245.0,196.0,49.0,yellow,cross
0.0,1.0,1.0,0.0,7.0,6.0,3154.532515334722,2.0,1.0,phase_3,,,,,162.0,3.0,324.0,54.0,108.0,270.0,216.0,162.0,yellow,cross
0.0,8.0,4.0,1.0,7.0,3.0,2594.721132336417,2.0,1.0,phase_3,,,,,294.0,6.0,245.0,49.0,294.0,147.0,196.0,98.0,green,square
0.0,8.0,4.0,1.0,7.0,5.0,2245.103195113188,2.0,1.0,phase_3,,,,,136.0,4.0,170.0,68.0,102.0,204.0,136.0,34.0,green,square
0.0,6.0,2.0,1.0,7.0,2.0,1392.3384975605586,2.0,1.0,phase_3,,,,,204.0,6.0,34.0,204.0,170.0,136.0,68.0,102.0,gray,circle
0.0,4.0,4.0,0.0,7.0,3.0,2485.153126559453,2.0,1.0,phase_3,,,,,132.0,3.0,88.0,44.0,132.0,176.0,220.0,264.0,magenta,flipped triangle
0.0,8.0,4.0,1.0,7.0,6.0,1831.9630214500648,2.0,1.0,phase_3,,,,,216.0,4.0,324.0,54.0,108.0,162.0,270.0,216.0,green,square
0.0,4.0,4.0,0.0,7.0,3.0,1835.2829402210773,2.0,1.0,phase_3,,,,,264.0,6.0,88.0,132.0,264.0,220.0,176.0,44.0,magenta,flipped triangle
0.0,2.0,2.0,0.0,7.0,5.0,2555.103582890297,2.0,1.0,phase_3,,,,,270.0,5.0,108.0,54.0,162.0,324.0,270.0,216.0,white,hexagon
0.0,5.0,1.0,1.0,7.0,5.0,2242.3242621116515,2.0,1.0,phase_3,,,,,147.0,3.0,294.0,98.0,49.0,245.0,147.0,196.0,cyan,diamond
0.0,3.0,3.0,0.0,7.0,6.0,2130.73110744881,2.0,1.0,phase_3,,,,,204.0,6.0,34.0,68.0,170.0,136.0,102.0,204.0,orange,triangle
0.0,6.0,2.0,1.0,7.0,2.0,2141.9604510047066,2.0,1.0,phase_3,,,,,216.0,4.0,324.0,216.0,270.0,54.0,162.0,108.0,gray,circle
0.0,8.0,4.0,1.0,7.0,3.0,2176.870173447241,2.0,1.0,phase_3,,,,,176.0,4.0,132.0,264.0,176.0,44.0,220.0,88.0,green,square
0.0,4.0,4.0,0.0,7.0,2.0,2168.2188864469936,2.0,1.0,phase_3,,,,,196.0,4.0,245.0,196.0,147.0,98.0,294.0,49.0,magenta,flipped triangle
0.0,3.0,3.0,0.0,7.0,5.0,1482.187802223052,3.0,1.0,phase_3,,,,,108.0,2.0,162.0,54.0,270.0,216.0,108.0,324.0,orange,triangle
0.0,2.0,2.0,0.0,7.0,5.0,2382.018954558589,3.0,1.0,phase_3,,,,,264.0,6.0,132.0,88.0,44.0,220.0,264.0,176.0,white,hexagon
0.0,6.0,2.0,1.0,7.0,3.0,932.9250893351856,3.0,1.0,phase_3,,,,,39.0,1.0,78.0,195.0,39.0,234.0,117.0,156.0,gray,circle
0.0,5.0,1.0,1.0,7.0,5.0,1630.7641512212283,3.0,1.0,phase_3,,,,,324.0,6.0,108.0,216.0,162.0,54.0,324.0,270.0,cyan,diamond
0.0,1.0,1.0,0.0,7.0,6.0,1653.8036534475395,3.0,1.0,phase_3,,,,,220.0,5.0,44.0,88.0,176.0,264.0,132.0,220.0,yellow,cross
0.0,7.0,3.0,1.0,7.0,3.0,2678.3297607835266,3.0,1.0,phase_3,,,,,132.0,3.0,44.0,88.0,132.0,220.0,264.0,176.0,blue,I
0.0,2.0,2.0,0.0,7.0,6.0,2072.682236110268,3.0,1.0,phase_3,,,,,294.0,6.0,49.0,147.0,196.0,245.0,98.0,294.0,white,hexagon
0.0,7.0,3.0,1.0,7.0,5.0,2163.13350933342,3.0,1.0,phase_3,,,,,156.0,4.0,195.0,78.0,39.0,117.0,156.0,234.0,blue,I
0.0,2.0,2.0,0.0,7.0,3.0,3605.458033111063,3.0,1.0,phase_3,,,,,294.0,6.0,147.0,49.0,294.0,196.0,245.0,98.0,white,hexagon
0.0,7.0,3.0,1.0,7.0,1.0,2897.722400895873,3.0,1.0,phase_3,,,,,147.0,3.0,147.0,98.0,294.0,245.0,49.0,196.0,blue,I
0.0,5.0,1.0,1.0,7.0,6.0,2043.3550633351838,3.0,1.0,phase_3,,,,,156.0,4.0,234.0,195.0,78.0,39.0,117.0,156.0,cyan,diamond
0.0,2.0,2.0,0.0,7.0,4.0,2538.437374336354,3.0,1.0,phase_3,,,,,216.0,4.0,324.0,162.0,270.0,216.0,54.0,108.0,white,hexagon
0.0,8.0,4.0,1.0,7.0,5.0,1675.1339168949926,3.0,1.0,phase_3,,,,,136.0,4.0,102.0,34.0,68.0,204.0,136.0,170.0,green,square
0.0,6.0,2.0,1.0,7.0,2.0,2351.082607110584,3.0,1.0,phase_3,,,,,54.0,1.0,324.0,54.0,108.0,270.0,216.0,162.0,gray,circle
0.0,1.0,1.0,0.0,7.0,5.0,2069.7913987823995,3.0,1.0,phase_3,,,,,162.0,3.0,54.0,216.0,270.0,324.0,162.0,108.0,yellow,cross
0.0,6.0,2.0,1.0,7.0,5.0,2127.3956827826623,3.0,1.0,phase_3,,,,,176.0,4.0,44.0,132.0,264.0,220.0,176.0,88.0,gray,circle
0.0,1.0,1.0,0.0,7.0,2.0,2319.91740522426,3.0,1.0,phase_3,,,,,102.0,3.0,136.0,102.0,34.0,170.0,68.0,204.0,yellow,cross
0.0,7.0,3.0,1.0,7.0,1.0,2467.136851781106,3.0,1.0,phase_3,,,,,170.0,5.0,170.0,34.0,102.0,68.0,136.0,204.0,blue,I
0.0,4.0,4.0,0.0,7.0,3.0,2051.386438557529,3.0,1.0,phase_3,,,,,204.0,6.0,170.0,102.0,204.0,34.0,136.0,68.0,magenta,flipped triangle
0.0,5.0,1.0,1.0,7.0,5.0,1737.4198028956016,3.0,1.0,phase_3,,,,,102.0,3.0,68.0,170.0,34.0,136.0,102.0,204.0,cyan,diamond
0.0,7.0,3.0,1.0,7.0,2.0,1817.299930109584,4.0,1.0,phase_3,,,,,245.0,5.0,49.0,245.0,294.0,98.0,147.0,196.0,blue,I
0.0,6.0,2.0,1.0,7.0,3.0,1244.8548081119952,4.0,1.0,phase_3,,,,,34.0,1.0,136.0,68.0,34.0,204.0,102.0,170.0,gray,circle
0.0,3.0,3.0,0.0,7.0,4.0,2279.8112700002093,4.0,1.0,phase_3,,,,,117.0,3.0,156.0,78.0,39.0,117.0,234.0,195.0,orange,triangle
0.0,4.0,4.0,0.0,7.0,5.0,1932.418632335612,4.0,1.0,phase_3,,,,,156.0,4.0,234.0,117.0,78.0,195.0,156.0,39.0,magenta,flipped triangle
0.0,5.0,1.0,1.0,7.0,4.0,2427.8866876702523,4.0,1.0,phase_3,,,,,132.0,3.0,88.0,44.0,264.0,132.0,176.0,220.0,cyan,diamond
0.0,6.0,2.0,1.0,7.0,2.0,1102.248598224833,4.0,1.0,phase_3,,,,,147.0,3.0,98.0,147.0,49.0,294.0,245.0,196.0,gray,circle
0.0,3.0,3.0,0.0,7.0,5.0,1012.877286222647,4.0,1.0,phase_3,,,,,102.0,3.0,204.0,34.0,170.0,136.0,102.0,68.0,orange,triangle
0.0,3.0,3.0,0.0,7.0,2.0,1544.1896601114422,4.0,1.0,phase_3,,,,,176.0,4.0,88.0,176.0,264.0,220.0,44.0,132.0,orange,triangle
0.0,1.0,1.0,0.0,7.0,4.0,2049.5544822224474,4.0,1.0,phase_3,,,,,147.0,3.0,294.0,196.0,98.0,147.0,49.0,245.0,yellow,cross
0.0,2.0,2.0,0.0,7.0,2.0,2749.668305114028,4.0,1.0,phase_3,,,,,264.0,6.0,220.0,264.0,176.0,88.0,44.0,132.0,white,hexagon
0.0,4.0,4.0,0.0,7.0,2.0,1692.3355915569118,4.0,1.0,phase_3,,,,,117.0,3.0,234.0,117.0,156.0,78.0,39.0,195.0,magenta,flipped triangle
0.0,1.0,1.0,0.0,7.0,6.0,2041.656905112177,4.0,1.0,phase_3,,,,,68.0,2.0,170.0,136.0,204.0,102.0,34.0,68.0,yellow,cross
0.0,1.0,1.0,0.0,7.0,4.0,2178.2524084446777,4.0,1.0,phase_3,,,,,176.0,4.0,132.0,88.0,44.0,176.0,220.0,264.0,yellow,cross
0.0,8.0,4.0,1.0,7.0,6.0,2313.95120189336,4.0,1.0,phase_3,,,,,220.0,5.0,264.0,44.0,132.0,88.0,176.0,220.0,green,square
0.0,7.0,3.0,1.0,7.0,1.0,1752.3183100056483,4.0,1.0,phase_3,,,,,195.0,5.0,195.0,39.0,117.0,234.0,156.0,78.0,blue,I
0.0,2.0,2.0,0.0,7.0,2.0,1496.586111446959,4.0,1.0,phase_3,,,,,234.0,6.0,39.0,234.0,156.0,117.0,195.0,78.0,white,hexagon
0.0,3.0,3.0,0.0,7.0,5.0,1147.7543992223218,4.0,1.0,phase_3,,,,,270.0,5.0,54.0,108.0,162.0,216.0,270.0,324.0,orange,triangle
0.0,3.0,3.0,0.0,7.0,4.0,1856.84446266896,4.0,1.0,phase_3,,,,,88.0,2.0,220.0,44.0,176.0,88.0,264.0,132.0,orange,triangle
0.0,1.0,1.0,0.0,7.0,1.0,1689.4559623360692,4.0,1.0,phase_3,,,,,195.0,5.0,195.0,117.0,156.0,39.0,78.0,234.0,yellow,cross
0.0,5.0,1.0,1.0,7.0,6.0,1815.853589669132,4.0,1.0,phase_3,,,,,176.0,4.0,88.0,44.0,220.0,132.0,264.0,176.0,cyan,diamond
