raw_reward_magnitude,stim_reward,stepwise_reward_magnitude,paired_with_stopping,stim_location,response,reaction_time,block,num_trial_presentations,which_phase,stop_signal_trial_type,left_SSD,right_SSD,accuracy,chosen_bidding_amount,chosen_bidding_level,possible_bid_1,possible_bid_2,possible_bid_3,possible_bid_4,possible_bid_5,possible_bid_6,color_text,shape_text
384.0,8.0,4.0,1.0,4.0,4.0,382.7225316199474,1.0,1.0,phase_1,,,,,,,,,,,,,cyan,square
397.0,4.0,4.0,0.0,3.0,3.0,405.7216477231122,1.0,1.0,phase_1,,,,,,,,,,,,,orange,I
390.0,4.0,4.0,0.0,1.0,1.0,350.0022077350877,1.0,1.0,phase_1,,,,,,,,,,,,,orange,I
420.0,4.0,4.0,0.0,4.0,4.0,339.2480897600762,1.0,1.0,phase_1,,,,,,,,,,,,,orange,I
0.0,2.0,0.0,0.0,1.0,1.0,375.3390710335225,1.0,1.0,phase_1,,,,,,,,,,,,,magenta,circle
412.0,8.0,4.0,1.0,4.0,4.0,419.3075940711424,1.0,1.0,phase_1,,,,,,,,,,,,,cyan,square
389.0,4.0,4.0,0.0,3.0,3.0,351.7054808908142,1.0,1.0,phase_1,,,,,,,,,,,,,orange,I
395.0,8.0,4.0,1.0,4.0,4.0,375.957494485192,1.0,1.0,phase_1,,,,,,,,,,,,,cyan,square
220.0,7.0,2.0,1.0,4.0,4.0,318.9885233296081,1.0,1.0,phase_1,,,,,,,,,,,,,yellow,hexagon
87.0,6.0,1.0,1.0,4.0,4.0,343.0564264417626,1.0,1.0,phase_1,,,,,,,,,,,,,blue,flipped triangle
384.0,4.0,4.0,0.0,3.0,3.0,365.9844385110773,1.0,1.0,phase_1,,,,,,,,,,,,,orange,I
189.0,7.0,2.0,1.0,3.0,3.0,321.7698507360182,1.0,1.0,phase_1,,,,,,,,,,,,,yellow,hexagon
97.0,6.0,1.0,1.0,2.0,2.0,389.8801751201972,1.0,1.0,phase_1,,,,,,,,,,,,,blue,flipped triangle
417.0,4.0,4.0,0.0,2.0,2.0,335.1695867022499,1.0,1.0,phase_1,,,,,,,,,,,,,orange,I
396.0,4.0,4.0,0.0,2.0,2.0,402.8912439243868,1.0,1.0,phase_1,,,,,,,,,,,,,orange,I
383.0,4.0,4.0,0.0,4.0,4.0,740.3385537327267,1.0,1.0,phase_1,,,,,,,,,,,,,orange,I
0.0,4.0,0.0,0.0,1.0,1.0,402.7758430456742,1.0,1.0,phase_1,,,,,,,,,,,,,orange,I
93.0,2.0,1.0,0.0,3.0,3.0,313.6624949402176,1.0,1.0,phase_1,,,,,,,,,,,,,magenta,circle
420.0,8.0,4.0,1.0,4.0,4.0,404.4025866314769,1.0,1.0,phase_1,,,,,,,,,,,,,cyan,square
120.0,6.0,1.0,1.0,3.0,3.0,392.5100435153581,1.0,1.0,phase_1,,,,,,,,,,,,,blue,flipped triangle
86.0,6.0,1.0,1.0,2.0,2.0,326.3086156221106,1.0,1.0,phase_1,,,,,,,,,,,,,blue,flipped triangle
74.0,1.0,0.5,0.0,3.0,3.0,338.3870609104633,1.0,1.0,phase_1,,,,,,,,,,,,,white,diamond
207.0,7.0,2.0,1.0,1.0,1.0,317.8023581858724,1.0,1.0,phase_1,,,,,,,,,,,,,yellow,hexagon
82.0,6.0,1.0,1.0,4.0,4.0,327.5835858657956,1.0,1.0,phase_1,,,,,,,,,,,,,blue,flipped triangle
420.0,8.0,4.0,1.0,3.0,3.0,340.4834162793122,1.0,1.0,phase_1,,,,,,,,,,,,,cyan,square
0.0,2.0,0.0,0.0,4.0,4.0,464.8624943220056,1.0,2.0,phase_1,,,,,,,,,,,,,magenta,circle
40.0,5.0,0.5,1.0,4.0,4.0,408.061706169974,1.0,1.0,phase_1,,,,,,,,,,,,,green,cross
421.0,4.0,4.0,0.0,4.0,4.0,330.5236817686818,1.0,1.0,phase_1,,,,,,,,,,,,,orange,I
0.0,7.0,0.0,1.0,3.0,3.0,421.72430513892317,1.0,1.0,phase_1,,,,,,,,,,,,,yellow,hexagon
378.0,4.0,4.0,0.0,1.0,1.0,355.7759477989748,1.0,1.0,phase_1,,,,,,,,,,,,,orange,I
75.0,6.0,1.0,1.0,3.0,3.0,298.3266144292429,1.0,1.0,phase_1,,,,,,,,,,,,,blue,flipped triangle
56.0,1.0,0.5,0.0,2.0,2.0,345.8243163186125,1.0,1.0,phase_1,,,,,,,,,,,,,white,diamond
73.0,5.0,0.5,1.0,2.0,2.0,366.9234160915948,1.0,1.0,phase_1,,,,,,,,,,,,,green,cross
115.0,2.0,1.0,0.0,4.0,4.0,299.83373102732,1.0,1.0,phase_1,,,,,,,,,,,,,magenta,circle
0.0,8.0,0.0,1.0,3.0,3.0,333.8034916087053,1.0,1.0,phase_1,,,,,,,,,,,,,cyan,square
112.0,6.0,1.0,1.0,2.0,2.0,425.166732922662,1.0,1.0,phase_1,,,,,,,,,,,,,blue,flipped triangle
211.0,3.0,2.0,0.0,1.0,1.0,346.329114632681,1.0,1.0,phase_1,,,,,,,,,,,,,gray,triangle
192.0,7.0,2.0,1.0,2.0,2.0,325.4659316153265,1.0,1.0,phase_1,,,,,,,,,,,,,yellow,hexagon
123.0,2.0,1.0,0.0,2.0,2.0,371.690388477873,1.0,1.0,phase_1,,,,,,,,,,,,,magenta,circle
0.0,2.0,0.0,0.0,1.0,1.0,361.3260724814608,1.0,1.0,phase_1,,,,,,,,,,,,,magenta,circle
398.0,4.0,4.0,0.0,3.0,3.0,427.9653442208655,1.0,1.0,phase_1,,,,,,,,,,,,,orange,I
0.0,7.0,0.0,1.0,1.0,1.0,464.0028487192467,1.0,1.0,phase_1,,,,,,,,,,,,,yellow,hexagon
65.0,1.0,0.5,0.0,4.0,4.0,519.1307698842138,1.0,1.0,phase_1,,,,,,,,,,,,,white,diamond
54.0,1.0,0.5,0.0,2.0,2.0,385.890859295614,1.0,1.0,phase_1,,,,,,,,,,,,,white,diamond
397.0,8.0,4.0,1.0,1.0,1.0,442.251028784085,1.0,1.0,phase_1,,,,,,,,,,,,,cyan,square
55.0,5.0,0.5,1.0,1.0,1.0,430.4725050460547,1.0,1.0,phase_1,,,,,,,,,,,,,green,cross
196.0,7.0,2.0,1.0,4.0,4.0,408.4169755224138,1.0,1.0,phase_1,,,,,,,,,,,,,yellow,hexagon
94.0,6.0,1.0,1.0,1.0,1.0,298.3614087570458,1.0,1.0,phase_1,,,,,,,,,,,,,blue,flipped triangle
391.0,8.0,4.0,1.0,1.0,1.0,421.0825221380219,1.0,1.0,phase_1,,,,,,,,,,,,,cyan,square
30.0,5.0,0.5,1.0,1.0,1.0,400.8529268903658,1.0,1.0,phase_1,,,,,,,,,,,,,green,cross
396.0,8.0,4.0,1.0,2.0,2.0,388.8320201658644,1.0,1.0,phase_1,,,,,,,,,,,,,cyan,square
108.0,6.0,1.0,1.0,1.0,1.0,422.4953202647157,1.0,1.0,phase_1,,,,,,,,,,,,,blue,flipped triangle
182.0,3.0,2.0,0.0,2.0,2.0,378.3406024449505,1.0,1.0,phase_1,,,,,,,,,,,,,gray,triangle
210.0,7.0,2.0,1.0,3.0,3.0,446.469871152658,1.0,1.0,phase_1,,,,,,,,,,,,,yellow,hexagon
401.0,8.0,4.0,1.0,3.0,3.0,447.1878595068119,1.0,1.0,phase_1,,,,,,,,,,,,,cyan,square
190.0,7.0,2.0,1.0,2.0,2.0,503.65298916585743,1.0,1.0,phase_1,,,,,,,,,,,,,yellow,hexagon
211.0,7.0,2.0,1.0,4.0,4.0,450.0624104985036,1.0,3.0,phase_1,,,,,,,,,,,,,yellow,hexagon
185.0,3.0,2.0,0.0,1.0,1.0,483.6706608184613,1.0,1.0,phase_1,,,,,,,,,,,,,gray,triangle
199.0,7.0,2.0,1.0,1.0,1.0,405.519489897415,1.0,1.0,phase_1,,,,,,,,,,,,,yellow,hexagon
0.0,6.0,0.0,1.0,1.0,1.0,429.2679714853875,1.0,1.0,phase_1,,,,,,,,,,,,,blue,flipped triangle
120.0,2.0,1.0,0.0,4.0,4.0,417.6629129215143,1.0,1.0,phase_1,,,,,,,,,,,,,magenta,circle
385.0,4.0,4.0,0.0,3.0,3.0,361.4494170760736,1.0,1.0,phase_1,,,,,,,,,,,,,orange,I
212.0,3.0,2.0,0.0,3.0,3.0,363.0806140135973,1.0,1.0,phase_1,,,,,,,,,,,,,gray,triangle
0.0,6.0,0.0,1.0,2.0,2.0,396.0002001840621,1.0,1.0,phase_1,,,,,,,,,,,,,blue,flipped triangle
208.0,3.0,2.0,0.0,2.0,2.0,464.0492600155994,1.0,1.0,phase_1,,,,,,,,,,,,,gray,triangle
0.0,3.0,0.0,0.0,4.0,4.0,453.1684294342994,1.0,1.0,phase_1,,,,,,,,,,,,,gray,triangle
90.0,6.0,1.0,1.0,3.0,3.0,477.0550511311739,1.0,1.0,phase_1,,,,,,,,,,,,,blue,flipped triangle
416.0,8.0,4.0,1.0,2.0,2.0,612.3342624632642,1.0,1.0,phase_1,,,,,,,,,,,,,cyan,square
0.0,8.0,0.0,1.0,3.0,3.0,376.6157125355676,1.0,1.0,phase_1,,,,,,,,,,,,,cyan,square
378.0,4.0,4.0,0.0,1.0,1.0,445.0687501230277,1.0,1.0,phase_1,,,,,,,,,,,,,orange,I
0.0,5.0,0.0,1.0,1.0,1.0,525.7913252571598,1.0,1.0,phase_1,,,,,,,,,,,,,green,cross
188.0,7.0,2.0,1.0,3.0,3.0,400.9419730282388,1.0,1.0,phase_1,,,,,,,,,,,,,yellow,hexagon
114.0,2.0,1.0,0.0,2.0,2.0,448.0796818970702,1.0,1.0,phase_1,,,,,,,,,,,,,magenta,circle
184.0,7.0,2.0,1.0,3.0,3.0,379.9201555666514,1.0,1.0,phase_1,,,,,,,,,,,,,yellow,hexagon
83.0,6.0,1.0,1.0,1.0,1.0,370.4515449353494,1.0,1.0,phase_1,,,,,,,,,,,,,blue,flipped triangle
0.0,6.0,0.0,1.0,4.0,4.0,506.06071669608355,1.0,2.0,phase_1,,,,,,,,,,,,,blue,flipped triangle
401.0,4.0,4.0,0.0,4.0,4.0,449.630533286836,1.0,1.0,phase_1,,,,,,,,,,,,,orange,I
420.0,4.0,4.0,0.0,1.0,1.0,349.0389287471771,1.0,1.0,phase_1,,,,,,,,,,,,,orange,I
382.0,4.0,4.0,0.0,4.0,4.0,461.5688849589787,1.0,1.0,phase_1,,,,,,,,,,,,,orange,I
207.0,3.0,2.0,0.0,1.0,1.0,407.2800943395123,1.0,1.0,phase_1,,,,,,,,,,,,,gray,triangle
0.0,8.0,0.0,1.0,3.0,3.0,395.2323966077529,1.0,1.0,phase_1,,,,,,,,,,,,,cyan,square
62.0,5.0,0.5,1.0,4.0,4.0,429.9242368433624,1.0,1.0,phase_1,,,,,,,,,,,,,green,cross
382.0,8.0,4.0,1.0,2.0,2.0,351.849875296466,1.0,1.0,phase_1,,,,,,,,,,,,,cyan,square
400.0,4.0,4.0,0.0,4.0,4.0,397.8104027337394,1.0,1.0,phase_1,,,,,,,,,,,,,orange,I
0.0,4.0,0.0,0.0,4.0,4.0,364.1656506224535,1.0,1.0,phase_1,,,,,,,,,,,,,orange,I
42.0,5.0,0.5,1.0,3.0,3.0,453.9953581988811,1.0,1.0,phase_1,,,,,,,,,,,,,green,cross
377.0,4.0,4.0,0.0,4.0,4.0,544.6097698877566,1.0,1.0,phase_1,,,,,,,,,,,,,orange,I
0.0,4.0,0.0,0.0,4.0,4.0,410.1543129654601,1.0,1.0,phase_1,,,,,,,,,,,,,orange,I
87.0,2.0,1.0,0.0,3.0,3.0,422.306424123235,1.0,1.0,phase_1,,,,,,,,,,,,,magenta,circle
97.0,2.0,1.0,0.0,4.0,4.0,614.225764235016,1.0,2.0,phase_1,,,,,,,,,,,,,magenta,circle
204.0,3.0,2.0,0.0,1.0,1.0,503.9875347283669,1.0,1.0,phase_1,,,,,,,,,,,,,gray,triangle
56.0,1.0,0.5,0.0,4.0,4.0,412.3206249205395,1.0,1.0,phase_1,,,,,,,,,,,,,white,diamond
211.0,3.0,2.0,0.0,3.0,3.0,413.5536348912865,1.0,1.0,phase_1,,,,,,,,,,,,,gray,triangle
180.0,3.0,2.0,0.0,4.0,4.0,335.8942684717476,1.0,1.0,phase_1,,,,,,,,,,,,,gray,triangle
119.0,6.0,1.0,1.0,2.0,2.0,358.4137018769979,1.0,1.0,phase_1,,,,,,,,,,,,,blue,flipped triangle
213.0,7.0,2.0,1.0,4.0,4.0,438.7795577640645,1.0,1.0,phase_1,,,,,,,,,,,,,yellow,hexagon
41.0,1.0,0.5,0.0,1.0,1.0,415.4520551674068,1.0,1.0,phase_1,,,,,,,,,,,,,white,diamond
0.0,2.0,0.0,0.0,1.0,1.0,315.7661370350979,1.0,1.0,phase_1,,,,,,,,,,,,,magenta,circle
199.0,3.0,2.0,0.0,1.0,1.0,429.4956285157241,1.0,1.0,phase_1,,,,,,,,,,,,,gray,triangle
111.0,2.0,1.0,0.0,4.0,4.0,462.1220828848891,1.0,1.0,phase_1,,,,,,,,,,,,,magenta,circle
97.0,6.0,1.0,1.0,1.0,1.0,401.372360647656,2.0,1.0,phase_1,,,,,,,,,,,,,blue,flipped triangle
86.0,2.0,1.0,0.0,2.0,2.0,301.8244097474962,2.0,1.0,phase_1,,,,,,,,,,,,,magenta,circle
223.0,3.0,2.0,0.0,3.0,3.0,334.1037161881104,2.0,1.0,phase_1,,,,,,,,,,,,,gray,triangle
213.0,3.0,2.0,0.0,2.0,2.0,348.2600514544174,2.0,1.0,phase_1,,,,,,,,,,,,,gray,triangle
123.0,6.0,1.0,1.0,3.0,3.0,392.9124228889122,2.0,1.0,phase_1,,,,,,,,,,,,,blue,flipped triangle
123.0,2.0,1.0,0.0,2.0,2.0,371.7246357700787,2.0,1.0,phase_1,,,,,,,,,,,,,magenta,circle
199.0,7.0,2.0,1.0,2.0,2.0,337.4085407704115,2.0,1.0,phase_1,,,,,,,,,,,,,yellow,hexagon
98.0,2.0,1.0,0.0,2.0,2.0,315.5871623312123,2.0,1.0,phase_1,,,,,,,,,,,,,magenta,circle
42.0,1.0,0.5,0.0,1.0,1.0,349.6978697367012,2.0,1.0,phase_1,,,,,,,,,,,,,white,diamond
0.0,7.0,0.0,1.0,2.0,2.0,306.7614077590406,2.0,1.0,phase_1,,,,,,,,,,,,,yellow,hexagon
416.0,8.0,4.0,1.0,1.0,1.0,408.4574858425185,2.0,1.0,phase_1,,,,,,,,,,,,,cyan,square
114.0,2.0,1.0,0.0,2.0,2.0,307.4800620088354,2.0,1.0,phase_1,,,,,,,,,,,,,magenta,circle
64.0,5.0,0.5,1.0,4.0,4.0,351.5490252175368,2.0,1.0,phase_1,,,,,,,,,,,,,green,cross
63.0,5.0,0.5,1.0,1.0,1.0,363.9180090394802,2.0,1.0,phase_1,,,,,,,,,,,,,green,cross
417.0,8.0,4.0,1.0,2.0,2.0,387.6933048013598,2.0,1.0,phase_1,,,,,,,,,,,,,cyan,square
0.0,5.0,0.0,1.0,1.0,1.0,354.1256871540099,2.0,1.0,phase_1,,,,,,,,,,,,,green,cross
0.0,8.0,0.0,1.0,3.0,3.0,331.2988219549879,2.0,1.0,phase_1,,,,,,,,,,,,,cyan,square
378.0,8.0,4.0,1.0,1.0,1.0,275.8799452567473,2.0,1.0,phase_1,,,,,,,,,,,,,cyan,square
56.0,5.0,0.5,1.0,2.0,2.0,389.3856927170418,2.0,2.0,phase_1,,,,,,,,,,,,,green,cross
0.0,6.0,0.0,1.0,1.0,1.0,400.7423537550494,2.0,1.0,phase_1,,,,,,,,,,,,,blue,flipped triangle
412.0,4.0,4.0,0.0,4.0,4.0,437.2273283079266,2.0,2.0,phase_1,,,,,,,,,,,,,orange,I
194.0,7.0,2.0,1.0,4.0,4.0,403.0033309245482,2.0,1.0,phase_1,,,,,,,,,,,,,yellow,hexagon
189.0,3.0,2.0,0.0,2.0,2.0,358.1246561952866,2.0,1.0,phase_1,,,,,,,,,,,,,gray,triangle
32.0,1.0,0.5,0.0,3.0,3.0,346.7429462471045,2.0,1.0,phase_1,,,,,,,,,,,,,white,diamond
0.0,6.0,0.0,1.0,1.0,1.0,393.8234025263227,2.0,1.0,phase_1,,,,,,,,,,,,,blue,flipped triangle
0.0,8.0,0.0,1.0,3.0,3.0,327.1050081821158,2.0,1.0,phase_1,,,,,,,,,,,,,cyan,square
0.0,5.0,0.0,1.0,4.0,4.0,328.3284001518041,2.0,1.0,phase_1,,,,,,,,,,,,,green,cross
408.0,8.0,4.0,1.0,1.0,1.0,326.9659178331494,2.0,1.0,phase_1,,,,,,,,,,,,,cyan,square
408.0,4.0,4.0,0.0,2.0,2.0,327.9941401560791,2.0,1.0,phase_1,,,,,,,,,,,,,orange,I
210.0,3.0,2.0,0.0,1.0,1.0,497.5032290676608,2.0,1.0,phase_1,,,,,,,,,,,,,gray,triangle
202.0,3.0,2.0,0.0,4.0,4.0,386.6580808535218,2.0,1.0,phase_1,,,,,,,,,,,,,gray,triangle
115.0,2.0,1.0,0.0,3.0,3.0,385.9858732903376,2.0,1.0,phase_1,,,,,,,,,,,,,magenta,circle
50.0,5.0,0.5,1.0,2.0,2.0,365.2970038820058,2.0,1.0,phase_1,,,,,,,,,,,,,green,cross
74.0,5.0,0.5,1.0,1.0,1.0,353.5126608330756,2.0,1.0,phase_1,,,,,,,,,,,,,green,cross
77.0,6.0,1.0,1.0,1.0,1.0,409.4865365186706,2.0,1.0,phase_1,,,,,,,,,,,,,blue,flipped triangle
0.0,6.0,0.0,1.0,3.0,3.0,331.8190691643394,2.0,1.0,phase_1,,,,,,,,,,,,,blue,flipped triangle
0.0,5.0,0.0,1.0,3.0,3.0,354.9277980346232,2.0,1.0,phase_1,,,,,,,,,,,,,green,cross
102.0,6.0,1.0,1.0,3.0,3.0,400.7928436039947,2.0,1.0,phase_1,,,,,,,,,,,,,blue,flipped triangle
196.0,3.0,2.0,0.0,3.0,3.0,322.7205456933006,2.0,1.0,phase_1,,,,,,,,,,,,,gray,triangle
0.0,2.0,0.0,0.0,4.0,4.0,368.6304261209443,2.0,2.0,phase_1,,,,,,,,,,,,,magenta,circle
108.0,2.0,1.0,0.0,1.0,1.0,403.9199487888254,2.0,1.0,phase_1,,,,,,,,,,,,,magenta,circle
115.0,6.0,1.0,1.0,4.0,4.0,380.494675016962,2.0,1.0,phase_1,,,,,,,,,,,,,blue,flipped triangle
31.0,1.0,0.5,0.0,4.0,4.0,360.6905517517589,2.0,1.0,phase_1,,,,,,,,,,,,,white,diamond
0.0,1.0,0.0,0.0,2.0,2.0,326.4297291752882,2.0,1.0,phase_1,,,,,,,,,,,,,white,diamond
56.0,1.0,0.5,0.0,4.0,4.0,507.8350447001867,2.0,2.0,phase_1,,,,,,,,,,,,,white,diamond
99.0,2.0,1.0,0.0,2.0,2.0,484.4287075102329,2.0,1.0,phase_1,,,,,,,,,,,,,magenta,circle
215.0,7.0,2.0,1.0,4.0,4.0,406.387546507176,2.0,1.0,phase_1,,,,,,,,,,,,,yellow,hexagon
87.0,2.0,1.0,0.0,1.0,1.0,406.984637316782,2.0,1.0,phase_1,,,,,,,,,,,,,magenta,circle
117.0,6.0,1.0,1.0,3.0,3.0,361.710917786695,2.0,1.0,phase_1,,,,,,,,,,,,,blue,flipped triangle
0.0,5.0,0.0,1.0,4.0,4.0,396.1762707913294,2.0,1.0,phase_1,,,,,,,,,,,,,green,cross
54.0,5.0,0.5,1.0,4.0,4.0,476.0522259166464,2.0,1.0,phase_1,,,,,,,,,,,,,green,cross
202.0,7.0,2.0,1.0,1.0,1.0,408.8744491455145,2.0,1.0,phase_1,,,,,,,,,,,,,yellow,hexagon
0.0,7.0,0.0,1.0,3.0,3.0,331.9015622255392,2.0,1.0,phase_1,,,,,,,,,,,,,yellow,hexagon
404.0,4.0,4.0,0.0,2.0,2.0,365.5021770391613,2.0,1.0,phase_1,,,,,,,,,,,,,orange,I
385.0,4.0,4.0,0.0,3.0,3.0,387.5365294516086,2.0,1.0,phase_1,,,,,,,,,,,,,orange,I
65.0,5.0,0.5,1.0,4.0,4.0,389.1706654685549,2.0,1.0,phase_1,,,,,,,,,,,,,green,cross
75.0,2.0,1.0,0.0,1.0,1.0,456.9579964736476,2.0,1.0,phase_1,,,,,,,,,,,,,magenta,circle
56.0,5.0,0.5,1.0,1.0,1.0,391.4490119204856,2.0,1.0,phase_1,,,,,,,,,,,,,green,cross
87.0,6.0,1.0,1.0,4.0,4.0,357.6852258993312,2.0,1.0,phase_1,,,,,,,,,,,,,blue,flipped triangle
73.0,1.0,0.5,0.0,4.0,4.0,470.9815170499496,2.0,1.0,phase_1,,,,,,,,,,,,,white,diamond
41.0,5.0,0.5,1.0,1.0,1.0,437.7151816152036,2.0,1.0,phase_1,,,,,,,,,,,,,green,cross
0.0,4.0,0.0,0.0,1.0,1.0,358.31484285881737,2.0,1.0,phase_1,,,,,,,,,,,,,orange,I
181.0,3.0,2.0,0.0,3.0,3.0,359.2884368845261,2.0,1.0,phase_1,,,,,,,,,,,,,gray,triangle
29.0,1.0,0.5,0.0,2.0,2.0,359.1282609850168,2.0,1.0,phase_1,,,,,,,,,,,,,white,diamond
410.0,4.0,4.0,0.0,2.0,2.0,384.3609127798117,2.0,1.0,phase_1,,,,,,,,,,,,,orange,I
179.0,7.0,2.0,1.0,3.0,3.0,326.9694198970683,2.0,1.0,phase_1,,,,,,,,,,,,,yellow,hexagon
31.0,5.0,0.5,1.0,1.0,1.0,418.0715109687298,2.0,1.0,phase_1,,,,,,,,,,,,,green,cross
194.0,3.0,2.0,0.0,2.0,2.0,384.6137761720456,2.0,1.0,phase_1,,,,,,,,,,,,,gray,triangle
0.0,8.0,0.0,1.0,1.0,1.0,384.8564109648578,2.0,1.0,phase_1,,,,,,,,,,,,,cyan,square
400.0,8.0,4.0,1.0,3.0,3.0,319.7756388690322,2.0,1.0,phase_1,,,,,,,,,,,,,cyan,square
0.0,6.0,0.0,1.0,2.0,2.0,375.8045441936701,2.0,1.0,phase_1,,,,,,,,,,,,,blue,flipped triangle
56.0,5.0,0.5,1.0,3.0,3.0,329.9878050456755,2.0,1.0,phase_1,,,,,,,,,,,,,green,cross
408.0,4.0,4.0,0.0,3.0,3.0,375.5685508949682,2.0,1.0,phase_1,,,,,,,,,,,,,orange,I
34.0,1.0,0.5,0.0,4.0,4.0,364.760065858718,2.0,1.0,phase_1,,,,,,,,,,,,,white,diamond
0.0,1.0,0.0,0.0,4.0,4.0,331.7212119000032,2.0,1.0,phase_1,,,,,,,,,,,,,white,diamond
220.0,7.0,2.0,1.0,2.0,2.0,366.5414482820779,2.0,1.0,phase_1,,,,,,,,,,,,,yellow,hexagon
389.0,4.0,4.0,0.0,2.0,2.0,424.5357139152474,2.0,1.0,phase_1,,,,,,,,,,,,,orange,I
209.0,7.0,2.0,1.0,1.0,1.0,400.9862662060186,2.0,1.0,phase_1,,,,,,,,,,,,,yellow,hexagon
49.0,1.0,0.5,0.0,3.0,3.0,334.7785758669488,2.0,1.0,phase_1,,,,,,,,,,,,,white,diamond
87.0,6.0,1.0,1.0,2.0,2.0,345.9573535365052,2.0,1.0,phase_1,,,,,,,,,,,,,blue,flipped triangle
99.0,6.0,1.0,1.0,3.0,3.0,312.9470801795833,2.0,1.0,phase_1,,,,,,,,,,,,,blue,flipped triangle
0.0,2.0,0.0,0.0,2.0,2.0,358.7720806244761,2.0,1.0,phase_1,,,,,,,,,,,,,magenta,circle
47.0,5.0,0.5,1.0,2.0,2.0,337.0896590058692,2.0,1.0,phase_1,,,,,,,,,,,,,green,cross
40.0,1.0,0.5,0.0,4.0,4.0,314.2075744690373,2.0,1.0,phase_1,,,,,,,,,,,,,white,diamond
117.0,2.0,1.0,0.0,3.0,3.0,360.7267727493308,2.0,1.0,phase_1,,,,,,,,,,,,,magenta,circle
410.0,8.0,4.0,1.0,3.0,3.0,383.2387818256393,2.0,1.0,phase_1,,,,,,,,,,,,,cyan,square
114.0,6.0,1.0,1.0,3.0,3.0,338.4062457480468,2.0,1.0,phase_1,,,,,,,,,,,,,blue,flipped triangle
47.0,1.0,0.5,0.0,1.0,1.0,383.4106720169075,2.0,1.0,phase_1,,,,,,,,,,,,,white,diamond
49.0,5.0,0.5,1.0,4.0,4.0,362.2877961606718,2.0,1.0,phase_1,,,,,,,,,,,,,green,cross
201.0,3.0,2.0,0.0,3.0,3.0,362.6289887470193,2.0,1.0,phase_1,,,,,,,,,,,,,gray,triangle
0.0,7.0,0.0,1.0,4.0,4.0,396.928786940407,2.0,1.0,phase_1,,,,,,,,,,,,,yellow,hexagon
103.0,2.0,1.0,0.0,1.0,1.0,374.3545559118502,2.0,1.0,phase_1,,,,,,,,,,,,,magenta,circle
32.0,5.0,0.5,1.0,3.0,3.0,307.1189603069797,2.0,1.0,phase_1,,,,,,,,,,,,,green,cross
378.0,4.0,4.0,0.0,1.0,1.0,353.9220171514898,2.0,1.0,phase_1,,,,,,,,,,,,,orange,I
43.0,1.0,0.5,0.0,1.0,1.0,353.9455474819988,2.0,1.0,phase_1,,,,,,,,,,,,,white,diamond
390.0,4.0,4.0,0.0,3.0,3.0,308.6920263012871,2.0,1.0,phase_1,,,,,,,,,,,,,orange,I
398.0,8.0,4.0,1.0,2.0,2.0,309.9547207239084,2.0,1.0,phase_1,,,,,,,,,,,,,cyan,square
66.0,5.0,0.5,1.0,3.0,3.0,354.8325841547921,2.0,1.0,phase_1,,,,,,,,,,,,,green,cross
114.0,6.0,1.0,1.0,3.0,3.0,356.1195343500003,2.0,1.0,phase_1,,,,,,,,,,,,,blue,flipped triangle
80.0,2.0,1.0,0.0,2.0,2.0,322.3903182661161,2.0,1.0,phase_1,,,,,,,,,,,,,magenta,circle
123.0,6.0,1.0,1.0,2.0,2.0,367.2901525278575,3.0,1.0,phase_1,,,,,,,,,,,,,blue,flipped triangle
98.0,2.0,1.0,0.0,2.0,2.0,300.577896181494,3.0,1.0,phase_1,,,,,,,,,,,,,magenta,circle
196.0,3.0,2.0,0.0,4.0,4.0,378.5937380744144,3.0,1.0,phase_1,,,,,,,,,,,,,gray,triangle
182.0,3.0,2.0,0.0,4.0,4.0,346.0612587514333,3.0,1.0,phase_1,,,,,,,,,,,,,gray,triangle
213.0,7.0,2.0,1.0,3.0,3.0,313.2223807624541,3.0,1.0,phase_1,,,,,,,,,,,,,yellow,hexagon
90.0,2.0,1.0,0.0,3.0,3.0,324.8060007463209,3.0,1.0,phase_1,,,,,,,,,,,,,magenta,circle
60.0,1.0,0.5,0.0,3.0,3.0,336.129805073142,3.0,1.0,phase_1,,,,,,,,,,,,,white,diamond
216.0,3.0,2.0,0.0,4.0,4.0,369.5870743249543,3.0,1.0,phase_1,,,,,,,,,,,,,gray,triangle
120.0,2.0,1.0,0.0,4.0,4.0,304.1621472802944,3.0,1.0,phase_1,,,,,,,,,,,,,magenta,circle
212.0,7.0,2.0,1.0,1.0,1.0,372.2738632932305,3.0,2.0,phase_1,,,,,,,,,,,,,yellow,hexagon
26.0,1.0,0.5,0.0,1.0,1.0,316.2317890673876,3.0,1.0,phase_1,,,,,,,,,,,,,white,diamond
74.0,1.0,0.5,0.0,4.0,4.0,395.9061170462519,3.0,1.0,phase_1,,,,,,,,,,,,,white,diamond
119.0,2.0,1.0,0.0,3.0,3.0,340.1009701774455,3.0,1.0,phase_1,,,,,,,,,,,,,magenta,circle
414.0,4.0,4.0,0.0,2.0,2.0,340.414194506593,3.0,1.0,phase_1,,,,,,,,,,,,,orange,I
400.0,8.0,4.0,1.0,3.0,3.0,283.8604762218892,3.0,1.0,phase_1,,,,,,,,,,,,,cyan,square
42.0,1.0,0.5,0.0,4.0,4.0,342.5556970178149,3.0,1.0,phase_1,,,,,,,,,,,,,white,diamond
185.0,7.0,2.0,1.0,1.0,1.0,354.2157797492109,3.0,1.0,phase_1,,,,,,,,,,,,,yellow,hexagon
208.0,7.0,2.0,1.0,2.0,2.0,411.913089454174,3.0,2.0,phase_1,,,,,,,,,,,,,yellow,hexagon
62.0,1.0,0.5,0.0,3.0,3.0,298.1168312835507,3.0,1.0,phase_1,,,,,,,,,,,,,white,diamond
36.0,5.0,0.5,1.0,2.0,2.0,390.7462127390317,3.0,1.0,phase_1,,,,,,,,,,,,,green,cross
416.0,4.0,4.0,0.0,3.0,3.0,334.3917290330864,3.0,1.0,phase_1,,,,,,,,,,,,,orange,I
390.0,8.0,4.0,1.0,2.0,2.0,333.9216645108536,3.0,1.0,phase_1,,,,,,,,,,,,,cyan,square
196.0,7.0,2.0,1.0,2.0,2.0,301.2037454755045,3.0,1.0,phase_1,,,,,,,,,,,,,yellow,hexagon
0.0,7.0,0.0,1.0,3.0,3.0,358.0352871795185,3.0,1.0,phase_1,,,,,,,,,,,,,yellow,hexagon
216.0,3.0,2.0,0.0,4.0,4.0,391.9910197146237,3.0,1.0,phase_1,,,,,,,,,,,,,gray,triangle
182.0,7.0,2.0,1.0,4.0,4.0,382.6900703134015,3.0,1.0,phase_1,,,,,,,,,,,,,yellow,hexagon
77.0,2.0,1.0,0.0,3.0,3.0,481.9378128740936,3.0,1.0,phase_1,,,,,,,,,,,,,magenta,circle
198.0,7.0,2.0,1.0,2.0,2.0,337.0963225024752,3.0,1.0,phase_1,,,,,,,,,,,,,yellow,hexagon
82.0,2.0,1.0,0.0,4.0,4.0,360.7767274952493,3.0,1.0,phase_1,,,,,,,,,,,,,magenta,circle
425.0,4.0,4.0,0.0,1.0,1.0,418.751488730777,3.0,1.0,phase_1,,,,,,,,,,,,,orange,I
0.0,7.0,0.0,1.0,3.0,3.0,304.9135564942844,3.0,1.0,phase_1,,,,,,,,,,,,,yellow,hexagon
98.0,6.0,1.0,1.0,1.0,1.0,363.4416469722055,3.0,1.0,phase_1,,,,,,,,,,,,,blue,flipped triangle
398.0,4.0,4.0,0.0,4.0,4.0,294.3022760446183,3.0,1.0,phase_1,,,,,,,,,,,,,orange,I
0.0,2.0,0.0,0.0,1.0,1.0,351.7169010010548,3.0,1.0,phase_1,,,,,,,,,,,,,magenta,circle
181.0,7.0,2.0,1.0,4.0,4.0,319.65739489533,3.0,1.0,phase_1,,,,,,,,,,,,,yellow,hexagon
414.0,8.0,4.0,1.0,2.0,2.0,330.1501726382412,3.0,1.0,phase_1,,,,,,,,,,,,,cyan,square
43.0,5.0,0.5,1.0,1.0,1.0,375.7747664349153,3.0,1.0,phase_1,,,,,,,,,,,,,green,cross
0.0,3.0,0.0,0.0,4.0,4.0,387.5531444791704,3.0,1.0,phase_1,,,,,,,,,,,,,gray,triangle
103.0,6.0,1.0,1.0,4.0,4.0,354.3148278840817,3.0,1.0,phase_1,,,,,,,,,,,,,blue,flipped triangle
199.0,3.0,2.0,0.0,3.0,3.0,342.8228452685289,3.0,1.0,phase_1,,,,,,,,,,,,,gray,triangle
378.0,8.0,4.0,1.0,3.0,3.0,320.9880703361705,3.0,1.0,phase_1,,,,,,,,,,,,,cyan,square
0.0,4.0,0.0,0.0,2.0,2.0,335.0833752774633,3.0,1.0,phase_1,,,,,,,,,,,,,orange,I
188.0,3.0,2.0,0.0,3.0,3.0,344.6245514787733,3.0,1.0,phase_1,,,,,,,,,,,,,gray,triangle
385.0,8.0,4.0,1.0,4.0,4.0,256.7913719103671,3.0,1.0,phase_1,,,,,,,,,,,,,cyan,square
383.0,8.0,4.0,1.0,3.0,3.0,345.6289570312947,3.0,1.0,phase_1,,,,,,,,,,,,,cyan,square
50.0,1.0,0.5,0.0,2.0,2.0,347.2242687712423,3.0,1.0,phase_1,,,,,,,,,,,,,white,diamond
211.0,7.0,2.0,1.0,1.0,1.0,359.0678394539282,3.0,1.0,phase_1,,,,,,,,,,,,,yellow,hexagon
86.0,6.0,1.0,1.0,4.0,4.0,348.4159329091199,3.0,1.0,phase_1,,,,,,,,,,,,,blue,flipped triangle
0.0,7.0,0.0,1.0,4.0,4.0,316.3526351563632,3.0,1.0,phase_1,,,,,,,,,,,,,yellow,hexagon
74.0,5.0,0.5,1.0,2.0,2.0,372.0722320140339,3.0,1.0,phase_1,,,,,,,,,,,,,green,cross
30.0,1.0,0.5,0.0,1.0,1.0,294.6548294858075,3.0,1.0,phase_1,,,,,,,,,,,,,white,diamond
112.0,2.0,1.0,0.0,2.0,2.0,327.5546022923663,3.0,1.0,phase_1,,,,,,,,,,,,,magenta,circle
0.0,3.0,0.0,0.0,2.0,2.0,341.446001897566,3.0,1.0,phase_1,,,,,,,,,,,,,gray,triangle
66.0,1.0,0.5,0.0,3.0,3.0,316.9555800268426,3.0,1.0,phase_1,,,,,,,,,,,,,white,diamond
86.0,2.0,1.0,0.0,4.0,4.0,296.3641386595554,3.0,1.0,phase_1,,,,,,,,,,,,,magenta,circle
385.0,8.0,4.0,1.0,1.0,1.0,285.1122785941697,3.0,1.0,phase_1,,,,,,,,,,,,,cyan,square
186.0,7.0,2.0,1.0,2.0,2.0,298.1389612541534,3.0,1.0,phase_1,,,,,,,,,,,,,yellow,hexagon
393.0,4.0,4.0,0.0,2.0,2.0,321.475256641861,3.0,1.0,phase_1,,,,,,,,,,,,,orange,I
0.0,1.0,0.0,0.0,3.0,3.0,285.9674077481031,3.0,1.0,phase_1,,,,,,,,,,,,,white,diamond
0.0,8.0,0.0,1.0,4.0,4.0,366.9485871214419,3.0,2.0,phase_1,,,,,,,,,,,,,cyan,square
90.0,2.0,1.0,0.0,3.0,3.0,344.8079261579551,3.0,1.0,phase_1,,,,,,,,,,,,,magenta,circle
93.0,6.0,1.0,1.0,2.0,2.0,358.1344008562155,3.0,1.0,phase_1,,,,,,,,,,,,,blue,flipped triangle
0.0,2.0,0.0,0.0,2.0,2.0,368.4877005871385,3.0,1.0,phase_1,,,,,,,,,,,,,magenta,circle
67.0,5.0,0.5,1.0,4.0,4.0,504.07388858729973,3.0,1.0,phase_1,,,,,,,,,,,,,green,cross
40.0,1.0,0.5,0.0,2.0,2.0,370.9940665867179,3.0,1.0,phase_1,,,,,,,,,,,,,white,diamond
52.0,1.0,0.5,0.0,3.0,3.0,335.7985423062928,3.0,1.0,phase_1,,,,,,,,,,,,,white,diamond
42.0,5.0,0.5,1.0,3.0,3.0,370.4731347388588,3.0,2.0,phase_1,,,,,,,,,,,,,green,cross
408.0,4.0,4.0,0.0,1.0,1.0,383.8126740884036,3.0,1.0,phase_1,,,,,,,,,,,,,orange,I
28.0,5.0,0.5,1.0,2.0,2.0,419.0522419521585,3.0,2.0,phase_1,,,,,,,,,,,,,green,cross
182.0,7.0,2.0,1.0,1.0,1.0,419.0772100700997,3.0,1.0,phase_1,,,,,,,,,,,,,yellow,hexagon
216.0,7.0,2.0,1.0,3.0,3.0,361.4803324453532,3.0,1.0,phase_1,,,,,,,,,,,,,yellow,hexagon
0.0,4.0,0.0,0.0,2.0,2.0,353.2659221673384,3.0,1.0,phase_1,,,,,,,,,,,,,orange,I
184.0,3.0,2.0,0.0,2.0,2.0,375.1407503150403,3.0,1.0,phase_1,,,,,,,,,,,,,gray,triangle
404.0,8.0,4.0,1.0,4.0,4.0,331.1082404688932,3.0,1.0,phase_1,,,,,,,,,,,,,cyan,square
54.0,1.0,0.5,0.0,2.0,2.0,386.8876216583885,3.0,1.0,phase_1,,,,,,,,,,,,,white,diamond
98.0,6.0,1.0,1.0,1.0,1.0,297.4913721554912,3.0,1.0,phase_1,,,,,,,,,,,,,blue,flipped triangle
400.0,4.0,4.0,0.0,1.0,1.0,332.5850960682146,3.0,1.0,phase_1,,,,,,,,,,,,,orange,I
181.0,7.0,2.0,1.0,4.0,4.0,490.573049581144,3.0,1.0,phase_1,,,,,,,,,,,,,yellow,hexagon
60.0,5.0,0.5,1.0,2.0,2.0,355.4798140539787,3.0,1.0,phase_1,,,,,,,,,,,,,green,cross
0.0,8.0,0.0,1.0,1.0,1.0,346.3745780754834,3.0,1.0,phase_1,,,,,,,,,,,,,cyan,square
425.0,8.0,4.0,1.0,1.0,1.0,356.9149250397458,3.0,1.0,phase_1,,,,,,,,,,,,,cyan,square
0.0,1.0,0.0,0.0,4.0,4.0,334.3716725939885,3.0,1.0,phase_1,,,,,,,,,,,,,white,diamond
0.0,3.0,0.0,0.0,4.0,4.0,369.9309878866188,3.0,1.0,phase_1,,,,,,,,,,,,,gray,triangle
54.0,1.0,0.5,0.0,2.0,2.0,324.6604754822328,3.0,1.0,phase_1,,,,,,,,,,,,,white,diamond
0.0,3.0,0.0,0.0,3.0,3.0,336.9089820189401,3.0,1.0,phase_1,,,,,,,,,,,,,gray,triangle
181.0,3.0,2.0,0.0,3.0,3.0,358.8525740196928,3.0,1.0,phase_1,,,,,,,,,,,,,gray,triangle
98.0,2.0,1.0,0.0,4.0,4.0,327.3301649023779,3.0,1.0,phase_1,,,,,,,,,,,,,magenta,circle
221.0,7.0,2.0,1.0,3.0,3.0,326.1186088784598,3.0,1.0,phase_1,,,,,,,,,,,,,yellow,hexagon
420.0,8.0,4.0,1.0,2.0,2.0,316.1874007200822,3.0,1.0,phase_1,,,,,,,,,,,,,cyan,square
0.0,8.0,0.0,1.0,1.0,1.0,350.6723337923176,3.0,1.0,phase_1,,,,,,,,,,,,,cyan,square
0.0,1.0,0.0,0.0,2.0,2.0,340.3377677313983,3.0,1.0,phase_1,,,,,,,,,,,,,white,diamond
190.0,3.0,2.0,0.0,2.0,2.0,328.9063030970283,3.0,1.0,phase_1,,,,,,,,,,,,,gray,triangle
404.0,8.0,4.0,1.0,2.0,2.0,319.0809531952254,3.0,1.0,phase_1,,,,,,,,,,,,,cyan,square
192.0,3.0,2.0,0.0,4.0,4.0,308.5536947473883,3.0,1.0,phase_1,,,,,,,,,,,,,gray,triangle
0.0,1.0,0.0,0.0,2.0,2.0,287.0463675935752,3.0,1.0,phase_1,,,,,,,,,,,,,white,diamond
0.0,1.0,0.0,0.0,1.0,1.0,308.7111417553387,3.0,1.0,phase_1,,,,,,,,,,,,,white,diamond
0.0,7.0,0.0,1.0,2.0,2.0,298.5183567507192,3.0,1.0,phase_1,,,,,,,,,,,,,yellow,hexagon
87.0,2.0,1.0,0.0,3.0,3.0,320.8862726460211,3.0,1.0,phase_1,,,,,,,,,,,,,magenta,circle
64.0,5.0,0.5,1.0,4.0,4.0,321.067135722842,3.0,1.0,phase_1,,,,,,,,,,,,,green,cross
0.0,3.0,0.0,0.0,2.0,2.0,355.9712455025874,3.0,1.0,phase_1,,,,,,,,,,,,,gray,triangle
29.0,1.0,0.5,0.0,1.0,1.0,379.8319478519261,4.0,1.0,phase_1,,,,,,,,,,,,,white,diamond
63.0,1.0,0.5,0.0,1.0,1.0,290.2730941423215,4.0,1.0,phase_1,,,,,,,,,,,,,white,diamond
49.0,1.0,0.5,0.0,1.0,1.0,280.4563232930377,4.0,1.0,phase_1,,,,,,,,,,,,,white,diamond
389.0,8.0,4.0,1.0,2.0,2.0,347.5369024672545,4.0,1.0,phase_1,,,,,,,,,,,,,cyan,square
207.0,7.0,2.0,1.0,3.0,3.0,336.1679135123268,4.0,1.0,phase_1,,,,,,,,,,,,,yellow,hexagon
0.0,6.0,0.0,1.0,1.0,1.0,359.9953990778886,4.0,1.0,phase_1,,,,,,,,,,,,,blue,flipped triangle
186.0,3.0,2.0,0.0,2.0,2.0,315.3368437779136,4.0,1.0,phase_1,,,,,,,,,,,,,gray,triangle
179.0,3.0,2.0,0.0,4.0,4.0,316.4577257120982,4.0,1.0,phase_1,,,,,,,,,,,,,gray,triangle
416.0,4.0,4.0,0.0,2.0,2.0,318.1455877493135,4.0,1.0,phase_1,,,,,,,,,,,,,orange,I
90.0,6.0,1.0,1.0,4.0,4.0,294.2301759612746,4.0,1.0,phase_1,,,,,,,,,,,,,blue,flipped triangle
220.0,3.0,2.0,0.0,2.0,2.0,329.0134142152965,4.0,1.0,phase_1,,,,,,,,,,,,,gray,triangle
0.0,4.0,0.0,0.0,4.0,4.0,330.2683756337501,4.0,1.0,phase_1,,,,,,,,,,,,,orange,I
63.0,5.0,0.5,1.0,3.0,3.0,307.3529921821318,4.0,1.0,phase_1,,,,,,,,,,,,,green,cross
0.0,4.0,0.0,0.0,2.0,2.0,319.5720121730119,4.0,1.0,phase_1,,,,,,,,,,,,,orange,I
223.0,7.0,2.0,1.0,2.0,2.0,365.7535228994675,4.0,2.0,phase_1,,,,,,,,,,,,,yellow,hexagon
193.0,3.0,2.0,0.0,4.0,4.0,379.1285443003289,4.0,1.0,phase_1,,,,,,,,,,,,,gray,triangle
0.0,8.0,0.0,1.0,2.0,2.0,334.660456283018,4.0,1.0,phase_1,,,,,,,,,,,,,cyan,square
29.0,5.0,0.5,1.0,2.0,2.0,378.5799621837213,4.0,1.0,phase_1,,,,,,,,,,,,,green,cross
98.0,6.0,1.0,1.0,1.0,1.0,311.8628690135665,4.0,1.0,phase_1,,,,,,,,,,,,,blue,flipped triangle
114.0,6.0,1.0,1.0,4.0,4.0,368.7397236935794,4.0,1.0,phase_1,,,,,,,,,,,,,blue,flipped triangle
0.0,3.0,0.0,0.0,2.0,2.0,312.6590577885508,4.0,1.0,phase_1,,,,,,,,,,,,,gray,triangle
0.0,2.0,0.0,0.0,4.0,4.0,268.0220567272044,4.0,1.0,phase_1,,,,,,,,,,,,,magenta,circle
0.0,1.0,0.0,0.0,1.0,1.0,392.9994608624838,4.0,2.0,phase_1,,,,,,,,,,,,,white,diamond
54.0,5.0,0.5,1.0,3.0,3.0,360.7224817387759,4.0,1.0,phase_1,,,,,,,,,,,,,green,cross
80.0,6.0,1.0,1.0,2.0,2.0,339.9018177296966,4.0,1.0,phase_1,,,,,,,,,,,,,blue,flipped triangle
111.0,6.0,1.0,1.0,4.0,4.0,295.0029204948805,4.0,1.0,phase_1,,,,,,,,,,,,,blue,flipped triangle
36.0,1.0,0.5,0.0,1.0,1.0,239.5181505708024,4.0,1.0,phase_1,,,,,,,,,,,,,white,diamond
395.0,4.0,4.0,0.0,2.0,2.0,307.6511532999575,4.0,1.0,phase_1,,,,,,,,,,,,,orange,I
79.0,2.0,1.0,0.0,3.0,3.0,316.9981940300204,4.0,1.0,phase_1,,,,,,,,,,,,,magenta,circle
0.0,5.0,0.0,1.0,1.0,1.0,275.0920071848668,4.0,1.0,phase_1,,,,,,,,,,,,,green,cross
377.0,8.0,4.0,1.0,4.0,4.0,274.2759546381421,4.0,1.0,phase_1,,,,,,,,,,,,,cyan,square
207.0,3.0,2.0,0.0,1.0,1.0,341.9455400435254,4.0,1.0,phase_1,,,,,,,,,,,,,gray,triangle
105.0,2.0,1.0,0.0,1.0,1.0,331.6513527533971,4.0,2.0,phase_1,,,,,,,,,,,,,magenta,circle
94.0,2.0,1.0,0.0,1.0,1.0,332.338169508148,4.0,1.0,phase_1,,,,,,,,,,,,,magenta,circle
115.0,6.0,1.0,1.0,1.0,1.0,277.0003288751468,4.0,1.0,phase_1,,,,,,,,,,,,,blue,flipped triangle
390.0,8.0,4.0,1.0,3.0,3.0,378.7344461889006,4.0,1.0,phase_1,,,,,,,,,,,,,cyan,square
393.0,8.0,4.0,1.0,1.0,1.0,367.1572579187341,4.0,1.0,phase_1,,,,,,,,,,,,,cyan,square
0.0,5.0,0.0,1.0,4.0,4.0,335.6765947537496,4.0,3.0,phase_1,,,,,,,,,,,,,green,cross
198.0,3.0,2.0,0.0,1.0,1.0,403.4250456024892,4.0,1.0,phase_1,,,,,,,,,,,,,gray,triangle
40.0,5.0,0.5,1.0,2.0,2.0,359.3405145220458,4.0,1.0,phase_1,,,,,,,,,,,,,green,cross
193.0,7.0,2.0,1.0,4.0,4.0,406.6873273113742,4.0,2.0,phase_1,,,,,,,,,,,,,yellow,hexagon
215.0,3.0,2.0,0.0,2.0,2.0,373.1730688014067,4.0,1.0,phase_1,,,,,,,,,,,,,gray,triangle
120.0,6.0,1.0,1.0,2.0,2.0,363.177788502071,4.0,1.0,phase_1,,,,,,,,,,,,,blue,flipped triangle
29.0,5.0,0.5,1.0,4.0,4.0,352.092988032382,4.0,1.0,phase_1,,,,,,,,,,,,,green,cross
204.0,7.0,2.0,1.0,1.0,1.0,317.1904558548704,4.0,1.0,phase_1,,,,,,,,,,,,,yellow,hexagon
0.0,3.0,0.0,0.0,4.0,4.0,351.9636306446045,4.0,1.0,phase_1,,,,,,,,,,,,,gray,triangle
102.0,2.0,1.0,0.0,4.0,4.0,364.6870094817132,4.0,1.0,phase_1,,,,,,,,,,,,,magenta,circle
37.0,1.0,0.5,0.0,3.0,3.0,331.609723449219,4.0,1.0,phase_1,,,,,,,,,,,,,white,diamond
421.0,8.0,4.0,1.0,4.0,4.0,330.4026530240662,4.0,1.0,phase_1,,,,,,,,,,,,,cyan,square
0.0,1.0,0.0,0.0,4.0,4.0,354.1089632199146,4.0,1.0,phase_1,,,,,,,,,,,,,white,diamond
0.0,3.0,0.0,0.0,2.0,2.0,422.0504688564688,4.0,1.0,phase_1,,,,,,,,,,,,,gray,triangle
114.0,2.0,1.0,0.0,1.0,1.0,231.7649374599568,4.0,2.0,phase_1,,,,,,,,,,,,,magenta,circle
83.0,2.0,1.0,0.0,1.0,1.0,367.1803561737761,4.0,1.0,phase_1,,,,,,,,,,,,,magenta,circle
0.0,6.0,0.0,1.0,1.0,1.0,300.6748305051587,4.0,1.0,phase_1,,,,,,,,,,,,,blue,flipped triangle
389.0,8.0,4.0,1.0,3.0,3.0,424.2034865892492,4.0,1.0,phase_1,,,,,,,,,,,,,cyan,square
49.0,5.0,0.5,1.0,3.0,3.0,404.7120280447416,4.0,1.0,phase_1,,,,,,,,,,,,,green,cross
0.0,1.0,0.0,0.0,1.0,1.0,336.712404503487,4.0,1.0,phase_1,,,,,,,,,,,,,white,diamond
104.0,2.0,1.0,0.0,4.0,4.0,404.2016748571768,4.0,1.0,phase_1,,,,,,,,,,,,,magenta,circle
0.0,5.0,0.0,1.0,4.0,4.0,349.6161588700488,4.0,1.0,phase_1,,,,,,,,,,,,,green,cross
408.0,8.0,4.0,1.0,4.0,4.0,361.9546797126531,4.0,1.0,phase_1,,,,,,,,,,,,,cyan,square
408.0,8.0,4.0,1.0,4.0,4.0,372.8601174661889,4.0,1.0,phase_1,,,,,,,,,,,,,cyan,square
55.0,1.0,0.5,0.0,3.0,3.0,382.5643887394108,4.0,1.0,phase_1,,,,,,,,,,,,,white,diamond
0.0,4.0,0.0,0.0,1.0,1.0,328.3032336039468,4.0,1.0,phase_1,,,,,,,,,,,,,orange,I
54.0,5.0,0.5,1.0,3.0,3.0,407.0606438326649,4.0,1.0,phase_1,,,,,,,,,,,,,green,cross
180.0,7.0,2.0,1.0,1.0,1.0,341.9121284969151,4.0,1.0,phase_1,,,,,,,,,,,,,yellow,hexagon
0.0,5.0,0.0,1.0,1.0,1.0,353.2568719238043,4.0,2.0,phase_1,,,,,,,,,,,,,green,cross
26.0,5.0,0.5,1.0,4.0,4.0,399.7053446946665,4.0,2.0,phase_1,,,,,,,,,,,,,green,cross
67.0,1.0,0.5,0.0,2.0,2.0,400.7502199383452,4.0,2.0,phase_1,,,,,,,,,,,,,white,diamond
404.0,4.0,4.0,0.0,3.0,3.0,412.1220396482385,4.0,1.0,phase_1,,,,,,,,,,,,,orange,I
378.0,8.0,4.0,1.0,1.0,1.0,389.5789984962903,4.0,1.0,phase_1,,,,,,,,,,,,,cyan,square
213.0,3.0,2.0,0.0,1.0,1.0,356.2691842089407,4.0,1.0,phase_1,,,,,,,,,,,,,gray,triangle
0.0,6.0,0.0,1.0,1.0,1.0,334.9332527141087,4.0,1.0,phase_1,,,,,,,,,,,,,blue,flipped triangle
64.0,1.0,0.5,0.0,2.0,2.0,369.4656229927204,4.0,1.0,phase_1,,,,,,,,,,,,,white,diamond
209.0,3.0,2.0,0.0,4.0,4.0,469.8003341909498,4.0,1.0,phase_1,,,,,,,,,,,,,gray,triangle
104.0,6.0,1.0,1.0,1.0,1.0,348.878379620146,4.0,1.0,phase_1,,,,,,,,,,,,,blue,flipped triangle
64.0,1.0,0.5,0.0,2.0,2.0,370.7023144816048,4.0,1.0,phase_1,,,,,,,,,,,,,white,diamond
37.0,5.0,0.5,1.0,1.0,1.0,371.9369664904661,4.0,1.0,phase_1,,,,,,,,,,,,,green,cross
28.0,1.0,0.5,0.0,4.0,4.0,326.8462789128534,4.0,1.0,phase_1,,,,,,,,,,,,,white,diamond
105.0,6.0,1.0,1.0,2.0,2.0,361.3244644948281,4.0,1.0,phase_1,,,,,,,,,,,,,blue,flipped triangle
221.0,3.0,2.0,0.0,3.0,3.0,451.4932195306755,4.0,1.0,phase_1,,,,,,,,,,,,,gray,triangle
52.0,5.0,0.5,1.0,1.0,1.0,350.5272679030895,4.0,1.0,phase_1,,,,,,,,,,,,,green,cross
79.0,6.0,1.0,1.0,3.0,3.0,362.0445028645918,4.0,1.0,phase_1,,,,,,,,,,,,,blue,flipped triangle
400.0,8.0,4.0,1.0,3.0,3.0,328.3340558991767,4.0,1.0,phase_1,,,,,,,,,,,,,cyan,square
34.0,5.0,0.5,1.0,3.0,3.0,373.9028242998756,4.0,1.0,phase_1,,,,,,,,,,,,,green,cross
0.0,3.0,0.0,0.0,4.0,4.0,353.4833288867958,4.0,1.0,phase_1,,,,,,,,,,,,,gray,triangle
391.0,4.0,4.0,0.0,1.0,1.0,386.9970212690532,4.0,1.0,phase_1,,,,,,,,,,,,,orange,I
97.0,2.0,1.0,0.0,1.0,1.0,399.2120786570012,4.0,1.0,phase_1,,,,,,,,,,,,,magenta,circle
0.0,2.0,0.0,0.0,3.0,3.0,355.7981086196378,4.0,1.0,phase_1,,,,,,,,,,,,,magenta,circle
220.0,3.0,2.0,0.0,1.0,1.0,368.0507477256469,4.0,1.0,phase_1,,,,,,,,,,,,,gray,triangle
0.0,7.0,0.0,1.0,1.0,1.0,345.4513069009408,4.0,2.0,phase_1,,,,,,,,,,,,,yellow,hexagon
112.0,6.0,1.0,1.0,4.0,4.0,368.5640977346338,4.0,1.0,phase_1,,,,,,,,,,,,,blue,flipped triangle
420.0,4.0,4.0,0.0,4.0,4.0,311.552487721201,4.0,1.0,phase_1,,,,,,,,,,,,,orange,I
400.0,4.0,4.0,0.0,1.0,1.0,460.442439711187,4.0,1.0,phase_1,,,,,,,,,,,,,orange,I
201.0,7.0,2.0,1.0,2.0,2.0,358.8259047246538,4.0,1.0,phase_1,,,,,,,,,,,,,yellow,hexagon
112.0,2.0,1.0,0.0,1.0,1.0,358.9486533310264,4.0,1.0,phase_1,,,,,,,,,,,,,magenta,circle
0.0,4.0,0.0,0.0,3.0,3.0,553.2130387146026,4.0,2.0,phase_1,,,,,,,,,,,,,orange,I
398.0,8.0,4.0,1.0,1.0,1.0,609.525376057718,4.0,1.0,phase_1,,,,,,,,,,,,,cyan,square
0.0,5.0,0.0,1.0,4.0,4.0,452.7027814183384,4.0,2.0,phase_1,,,,,,,,,,,,,green,cross
63.0,1.0,0.5,0.0,3.0,3.0,362.6821449724957,4.0,1.0,phase_1,,,,,,,,,,,,,white,diamond
216.0,7.0,2.0,1.0,3.0,3.0,430.4941054433584,4.0,1.0,phase_1,,,,,,,,,,,,,yellow,hexagon
0.0,7.0,2.0,1.0,5.0,0.0,0.0,1.0,1.0,phase_2,stop,250.0,250.0,4.0,,,,,,,,,yellow,hexagon
0.0,5.0,0.5,1.0,5.0,5.0,636.5131182246841,1.0,1.0,phase_2,go,300.0,250.0,1.0,,,,,,,,,green,cross
0.0,1.0,0.5,0.0,6.0,6.0,548.8940226496197,1.0,1.0,phase_2,go,300.0,250.0,1.0,,,,,,,,,white,diamond
0.0,1.0,0.5,0.0,6.0,6.0,707.2024188237265,1.0,1.0,phase_2,go,300.0,250.0,1.0,,,,,,,,,white,diamond
0.0,2.0,1.0,0.0,5.0,5.0,470.7099900697358,1.0,1.0,phase_2,go,300.0,250.0,1.0,,,,,,,,,magenta,circle
0.0,1.0,0.5,0.0,5.0,5.0,663.9404681627639,1.0,1.0,phase_2,go,300.0,250.0,1.0,,,,,,,,,white,diamond
0.0,4.0,4.0,0.0,5.0,5.0,741.8941932264715,1.0,1.0,phase_2,go,300.0,250.0,1.0,,,,,,,,,orange,I
0.0,8.0,4.0,1.0,6.0,6.0,405.3584364010021,1.0,1.0,phase_2,stop,300.0,250.0,3.0,,,,,,,,,cyan,square
0.0,4.0,4.0,0.0,6.0,6.0,688.9019436202943,1.0,1.0,phase_2,go,300.0,200.0,1.0,,,,,,,,,orange,I
0.0,8.0,4.0,1.0,5.0,0.0,0.0,1.0,1.0,phase_2,stop,300.0,200.0,4.0,,,,,,,,,cyan,square
0.0,1.0,0.5,0.0,6.0,6.0,373.7967860070057,1.0,1.0,phase_2,go,350.0,200.0,1.0,,,,,,,,,white,diamond
0.0,7.0,2.0,1.0,6.0,0.0,0.0,1.0,1.0,phase_2,stop,350.0,200.0,4.0,,,,,,,,,yellow,hexagon
0.0,5.0,0.5,1.0,6.0,0.0,0.0,1.0,1.0,phase_2,stop,350.0,250.0,4.0,,,,,,,,,green,cross
0.0,6.0,1.0,1.0,5.0,5.0,758.6178267956711,1.0,1.0,phase_2,go,350.0,300.0,1.0,,,,,,,,,blue,flipped triangle
0.0,1.0,0.5,0.0,5.0,5.0,727.386869431939,1.0,1.0,phase_2,go,350.0,300.0,1.0,,,,,,,,,white,diamond
0.0,2.0,1.0,0.0,5.0,5.0,739.3430002266541,1.0,1.0,phase_2,go,350.0,300.0,1.0,,,,,,,,,magenta,circle
0.0,5.0,0.5,1.0,5.0,5.0,380.8297803625464,1.0,1.0,phase_2,stop,350.0,300.0,3.0,,,,,,,,,green,cross
0.0,2.0,1.0,0.0,5.0,5.0,898.281623609364,1.0,1.0,phase_2,go,300.0,300.0,1.0,,,,,,,,,magenta,circle
0.0,5.0,0.5,1.0,5.0,0.0,0.0,1.0,1.0,phase_2,stop,300.0,300.0,4.0,,,,,,,,,green,cross
0.0,2.0,1.0,0.0,6.0,6.0,821.5253553935327,1.0,1.0,phase_2,go,350.0,300.0,1.0,,,,,,,,,magenta,circle
0.0,2.0,1.0,0.0,6.0,6.0,742.8806106327102,1.0,1.0,phase_2,go,350.0,300.0,1.0,,,,,,,,,magenta,circle
0.0,7.0,2.0,1.0,6.0,0.0,0.0,1.0,1.0,phase_2,stop,350.0,300.0,4.0,,,,,,,,,yellow,hexagon
0.0,5.0,0.5,1.0,6.0,0.0,0.0,1.0,1.0,phase_2,stop,350.0,350.0,4.0,,,,,,,,,green,cross
0.0,1.0,0.5,0.0,5.0,5.0,485.5957580148242,1.0,1.0,phase_2,go,350.0,400.0,1.0,,,,,,,,,white,diamond
0.0,3.0,2.0,0.0,5.0,5.0,633.570853213314,1.0,1.0,phase_2,go,350.0,400.0,1.0,,,,,,,,,gray,triangle
0.0,1.0,0.5,0.0,5.0,5.0,600.145994045306,1.0,1.0,phase_2,go,350.0,400.0,1.0,,,,,,,,,white,diamond
0.0,8.0,4.0,1.0,5.0,0.0,0.0,1.0,1.0,phase_2,stop,350.0,400.0,4.0,,,,,,,,,cyan,square
0.0,3.0,2.0,0.0,5.0,5.0,648.2124998001382,1.0,1.0,phase_2,go,400.0,400.0,1.0,,,,,,,,,gray,triangle
0.0,5.0,0.5,1.0,6.0,0.0,0.0,1.0,1.0,phase_2,stop,400.0,400.0,4.0,,,,,,,,,green,cross
0.0,6.0,1.0,1.0,6.0,6.0,515.2683272026479,1.0,1.0,phase_2,stop,400.0,450.0,3.0,,,,,,,,,blue,flipped triangle
0.0,5.0,0.5,1.0,6.0,6.0,806.7890293896198,1.0,1.0,phase_2,go,400.0,400.0,1.0,,,,,,,,,green,cross
0.0,6.0,1.0,1.0,5.0,5.0,572.8540564305149,1.0,1.0,phase_2,go,400.0,400.0,1.0,,,,,,,,,blue,flipped triangle
0.0,2.0,1.0,0.0,5.0,5.0,629.9674679758027,1.0,1.0,phase_2,go,400.0,400.0,1.0,,,,,,,,,magenta,circle
0.0,7.0,2.0,1.0,6.0,0.0,0.0,1.0,1.0,phase_2,stop,400.0,400.0,4.0,,,,,,,,,yellow,hexagon
0.0,6.0,1.0,1.0,5.0,5.0,675.1521206460893,1.0,1.0,phase_2,go,400.0,450.0,1.0,,,,,,,,,blue,flipped triangle
0.0,1.0,0.5,0.0,6.0,6.0,665.2974730241112,1.0,1.0,phase_2,go,400.0,450.0,1.0,,,,,,,,,white,diamond
0.0,3.0,2.0,0.0,6.0,6.0,666.1336414399557,2.0,1.0,phase_2,go,400.0,450.0,1.0,,,,,,,,,gray,triangle
0.0,2.0,1.0,0.0,5.0,5.0,339.2209978192113,2.0,1.0,phase_2,go,400.0,450.0,1.0,,,,,,,,,magenta,circle
0.0,3.0,2.0,0.0,6.0,6.0,520.6459729815833,2.0,1.0,phase_2,go,400.0,450.0,1.0,,,,,,,,,gray,triangle
0.0,5.0,0.5,1.0,5.0,5.0,478.1569498591125,2.0,1.0,phase_2,go,400.0,450.0,1.0,,,,,,,,,green,cross
0.0,8.0,4.0,1.0,6.0,6.0,409.7367725917138,2.0,1.0,phase_2,go,400.0,450.0,1.0,,,,,,,,,cyan,square
0.0,7.0,2.0,1.0,5.0,5.0,522.8643183945678,2.0,1.0,phase_2,stop,400.0,450.0,3.0,,,,,,,,,yellow,hexagon
0.0,3.0,2.0,0.0,5.0,5.0,649.2509704548866,2.0,1.0,phase_2,go,350.0,450.0,1.0,,,,,,,,,gray,triangle
0.0,6.0,1.0,1.0,5.0,0.0,0.0,2.0,1.0,phase_2,stop,350.0,450.0,4.0,,,,,,,,,blue,flipped triangle
0.0,1.0,0.5,0.0,5.0,5.0,693.7260964186862,2.0,1.0,phase_2,go,400.0,450.0,1.0,,,,,,,,,white,diamond
0.0,5.0,0.5,1.0,6.0,6.0,391.746525419876,2.0,1.0,phase_2,go,400.0,450.0,1.0,,,,,,,,,green,cross
0.0,3.0,2.0,0.0,5.0,5.0,346.8885458423756,2.0,1.0,phase_2,go,400.0,450.0,1.0,,,,,,,,,gray,triangle
0.0,8.0,4.0,1.0,5.0,5.0,562.6888718106784,2.0,1.0,phase_2,stop,400.0,450.0,3.0,,,,,,,,,cyan,square
0.0,2.0,1.0,0.0,6.0,6.0,731.1585918068886,2.0,1.0,phase_2,go,350.0,450.0,1.0,,,,,,,,,magenta,circle
0.0,4.0,4.0,0.0,5.0,5.0,529.4501702301204,2.0,1.0,phase_2,go,350.0,450.0,1.0,,,,,,,,,orange,I
0.0,2.0,1.0,0.0,6.0,6.0,474.8880779952742,2.0,1.0,phase_2,go,350.0,450.0,1.0,,,,,,,,,magenta,circle
0.0,6.0,1.0,1.0,5.0,5.0,508.9786656317301,2.0,1.0,phase_2,stop,350.0,450.0,3.0,,,,,,,,,blue,flipped triangle
0.0,1.0,0.5,0.0,6.0,6.0,736.1123090377077,2.0,1.0,phase_2,go,300.0,450.0,1.0,,,,,,,,,white,diamond
0.0,2.0,1.0,0.0,5.0,5.0,690.7363928039558,2.0,1.0,phase_2,go,300.0,450.0,1.0,,,,,,,,,magenta,circle
0.0,8.0,4.0,1.0,6.0,0.0,0.0,2.0,1.0,phase_2,stop,300.0,450.0,4.0,,,,,,,,,cyan,square
0.0,8.0,4.0,1.0,5.0,5.0,298.7885460024699,2.0,1.0,phase_2,stop,300.0,500.0,3.0,,,,,,,,,cyan,square
0.0,1.0,0.5,0.0,6.0,6.0,614.4808584358543,2.0,1.0,phase_2,go,250.0,500.0,1.0,,,,,,,,,white,diamond
0.0,8.0,4.0,1.0,5.0,5.0,841.3374845986255,2.0,1.0,phase_2,go,250.0,500.0,1.0,,,,,,,,,cyan,square
0.0,7.0,2.0,1.0,5.0,5.0,718.4126522042789,2.0,1.0,phase_2,go,250.0,500.0,1.0,,,,,,,,,yellow,hexagon
0.0,6.0,1.0,1.0,6.0,6.0,537.6639277674258,2.0,1.0,phase_2,go,250.0,500.0,1.0,,,,,,,,,blue,flipped triangle
0.0,7.0,2.0,1.0,5.0,0.0,0.0,2.0,1.0,phase_2,stop,250.0,500.0,4.0,,,,,,,,,yellow,hexagon
0.0,7.0,2.0,1.0,5.0,0.0,0.0,2.0,1.0,phase_2,stop,300.0,500.0,4.0,,,,,,,,,yellow,hexagon
0.0,7.0,2.0,1.0,6.0,6.0,618.8885658048093,2.0,1.0,phase_2,stop,350.0,500.0,3.0,,,,,,,,,yellow,hexagon
0.0,1.0,0.5,0.0,6.0,6.0,789.1798515920527,2.0,1.0,phase_2,go,350.0,450.0,1.0,,,,,,,,,white,diamond
0.0,6.0,1.0,1.0,6.0,0.0,0.0,2.0,1.0,phase_2,stop,350.0,450.0,4.0,,,,,,,,,blue,flipped triangle
0.0,7.0,2.0,1.0,6.0,0.0,0.0,2.0,1.0,phase_2,stop,350.0,500.0,4.0,,,,,,,,,yellow,hexagon
0.0,2.0,1.0,0.0,5.0,5.0,555.4378047818318,2.0,1.0,phase_2,go,350.0,550.0,1.0,,,,,,,,,magenta,circle
0.0,2.0,1.0,0.0,6.0,6.0,522.4999135825783,2.0,1.0,phase_2,go,350.0,550.0,1.0,,,,,,,,,magenta,circle
0.0,1.0,0.5,0.0,6.0,6.0,736.493527831044,2.0,1.0,phase_2,go,350.0,550.0,1.0,,,,,,,,,white,diamond
0.0,5.0,0.5,1.0,5.0,0.0,0.0,2.0,1.0,phase_2,stop,350.0,550.0,4.0,,,,,,,,,green,cross
0.0,3.0,2.0,0.0,6.0,6.0,580.8220590115525,2.0,1.0,phase_2,go,400.0,550.0,1.0,,,,,,,,,gray,triangle
0.0,1.0,0.5,0.0,5.0,5.0,727.5317234452814,2.0,1.0,phase_2,go,400.0,550.0,1.0,,,,,,,,,white,diamond
0.0,7.0,2.0,1.0,6.0,6.0,802.6255664299242,3.0,1.0,phase_2,stop,400.0,550.0,3.0,,,,,,,,,yellow,hexagon
0.0,5.0,0.5,1.0,6.0,0.0,0.0,3.0,1.0,phase_2,stop,400.0,500.0,4.0,,,,,,,,,green,cross
0.0,3.0,2.0,0.0,5.0,5.0,682.0432764361612,3.0,1.0,phase_2,go,400.0,550.0,1.0,,,,,,,,,gray,triangle
0.0,7.0,2.0,1.0,6.0,6.0,602.7353330282494,3.0,1.0,phase_2,stop,400.0,550.0,3.0,,,,,,,,,yellow,hexagon
0.0,7.0,2.0,1.0,6.0,6.0,840.9185956115834,3.0,1.0,phase_2,go,400.0,500.0,1.0,,,,,,,,,yellow,hexagon
0.0,5.0,0.5,1.0,5.0,0.0,0.0,3.0,1.0,phase_2,stop,400.0,500.0,4.0,,,,,,,,,green,cross
0.0,8.0,4.0,1.0,5.0,0.0,0.0,3.0,1.0,phase_2,stop,450.0,500.0,4.0,,,,,,,,,cyan,square
0.0,8.0,4.0,1.0,6.0,6.0,819.3860002211295,3.0,1.0,phase_2,go,500.0,500.0,1.0,,,,,,,,,cyan,square
0.0,6.0,1.0,1.0,6.0,6.0,741.8489461997524,3.0,1.0,phase_2,go,500.0,500.0,1.0,,,,,,,,,blue,flipped triangle
0.0,2.0,1.0,0.0,6.0,6.0,743.3528282563202,3.0,1.0,phase_2,go,500.0,500.0,1.0,,,,,,,,,magenta,circle
0.0,3.0,2.0,0.0,6.0,6.0,733.5371621884406,3.0,1.0,phase_2,go,500.0,500.0,1.0,,,,,,,,,gray,triangle
0.0,3.0,2.0,0.0,5.0,5.0,935.9552596579306,3.0,1.0,phase_2,go,500.0,500.0,1.0,,,,,,,,,gray,triangle
0.0,8.0,4.0,1.0,6.0,6.0,554.15849579731,3.0,1.0,phase_2,stop,500.0,500.0,3.0,,,,,,,,,cyan,square
0.0,8.0,4.0,1.0,5.0,0.0,0.0,3.0,1.0,phase_2,stop,500.0,450.0,4.0,,,,,,,,,cyan,square
0.0,5.0,0.5,1.0,5.0,5.0,612.1382659766823,3.0,1.0,phase_2,go,550.0,450.0,1.0,,,,,,,,,green,cross
0.0,1.0,0.5,0.0,6.0,6.0,636.4054115838371,3.0,1.0,phase_2,go,550.0,450.0,1.0,,,,,,,,,white,diamond
0.0,3.0,2.0,0.0,5.0,5.0,636.0329663730226,3.0,1.0,phase_2,go,550.0,450.0,1.0,,,,,,,,,gray,triangle
0.0,4.0,4.0,0.0,6.0,6.0,411.5916477749124,3.0,1.0,phase_2,go,550.0,450.0,1.0,,,,,,,,,orange,I
0.0,2.0,1.0,0.0,6.0,6.0,727.9121744213626,3.0,1.0,phase_2,go,550.0,450.0,1.0,,,,,,,,,magenta,circle
0.0,7.0,2.0,1.0,5.0,5.0,480.9548782068304,3.0,1.0,phase_2,stop,550.0,450.0,3.0,,,,,,,,,yellow,hexagon
0.0,6.0,1.0,1.0,5.0,0.0,0.0,3.0,1.0,phase_2,stop,500.0,450.0,4.0,,,,,,,,,blue,flipped triangle
0.0,7.0,2.0,1.0,5.0,5.0,752.2317981929518,3.0,1.0,phase_2,go,550.0,450.0,1.0,,,,,,,,,yellow,hexagon
0.0,7.0,2.0,1.0,6.0,0.0,0.0,3.0,1.0,phase_2,stop,550.0,450.0,4.0,,,,,,,,,yellow,hexagon
0.0,2.0,1.0,0.0,5.0,5.0,665.0331835844554,3.0,1.0,phase_2,go,550.0,500.0,1.0,,,,,,,,,magenta,circle
0.0,1.0,0.5,0.0,5.0,5.0,463.1734534050338,3.0,1.0,phase_2,go,550.0,500.0,1.0,,,,,,,,,white,diamond
0.0,7.0,2.0,1.0,5.0,0.0,0.0,3.0,1.0,phase_2,stop,550.0,500.0,4.0,,,,,,,,,yellow,hexagon
0.0,1.0,0.5,0.0,5.0,5.0,679.424200206995,3.0,1.0,phase_2,go,600.0,500.0,1.0,,,,,,,,,white,diamond
0.0,1.0,0.5,0.0,5.0,5.0,633.3866775967181,3.0,1.0,phase_2,go,600.0,500.0,1.0,,,,,,,,,white,diamond
0.0,5.0,0.5,1.0,5.0,5.0,613.469275587704,3.0,1.0,phase_2,stop,600.0,500.0,3.0,,,,,,,,,green,cross
0.0,7.0,2.0,1.0,6.0,6.0,1029.5257639954798,3.0,1.0,phase_2,go,550.0,500.0,1.0,,,,,,,,,yellow,hexagon
0.0,3.0,2.0,0.0,6.0,6.0,726.0025370051153,3.0,1.0,phase_2,go,550.0,500.0,1.0,,,,,,,,,gray,triangle
0.0,8.0,4.0,1.0,6.0,6.0,636.500952008646,3.0,1.0,phase_2,stop,550.0,500.0,3.0,,,,,,,,,cyan,square
0.0,7.0,2.0,1.0,5.0,5.0,806.0154234408401,3.0,1.0,phase_2,go,550.0,450.0,1.0,,,,,,,,,yellow,hexagon
0.0,6.0,1.0,1.0,6.0,0.0,0.0,3.0,1.0,phase_2,stop,550.0,450.0,4.0,,,,,,,,,blue,flipped triangle
0.0,6.0,1.0,1.0,6.0,6.0,909.9903164315036,3.0,1.0,phase_2,go,550.0,500.0,1.0,,,,,,,,,blue,flipped triangle
0.0,1.0,0.5,0.0,5.0,5.0,763.6927308049053,3.0,1.0,phase_2,go,550.0,500.0,1.0,,,,,,,,,white,diamond
0.0,4.0,4.0,0.0,5.0,5.0,422.11507022148,4.0,1.0,phase_2,go,550.0,500.0,1.0,,,,,,,,,orange,I
0.0,5.0,0.5,1.0,5.0,5.0,546.8452423810959,4.0,1.0,phase_2,go,550.0,500.0,1.0,,,,,,,,,green,cross
0.0,1.0,0.5,0.0,6.0,6.0,367.035707400646,4.0,1.0,phase_2,go,550.0,500.0,1.0,,,,,,,,,white,diamond
0.0,3.0,2.0,0.0,5.0,5.0,728.9213916519657,4.0,1.0,phase_2,go,550.0,500.0,1.0,,,,,,,,,gray,triangle
0.0,7.0,2.0,1.0,6.0,0.0,0.0,4.0,1.0,phase_2,stop,550.0,500.0,4.0,,,,,,,,,yellow,hexagon
0.0,4.0,4.0,0.0,5.0,5.0,561.6017209831625,4.0,1.0,phase_2,go,550.0,550.0,1.0,,,,,,,,,orange,I
0.0,2.0,1.0,0.0,6.0,6.0,617.0718254288658,4.0,1.0,phase_2,go,550.0,550.0,1.0,,,,,,,,,magenta,circle
0.0,6.0,1.0,1.0,6.0,6.0,685.8862763619982,4.0,1.0,phase_2,stop,550.0,550.0,3.0,,,,,,,,,blue,flipped triangle
0.0,8.0,4.0,1.0,6.0,6.0,629.9096688162535,4.0,1.0,phase_2,go,550.0,500.0,1.0,,,,,,,,,cyan,square
0.0,8.0,4.0,1.0,6.0,6.0,665.5836980207823,4.0,1.0,phase_2,stop,550.0,500.0,3.0,,,,,,,,,cyan,square
0.0,8.0,4.0,1.0,5.0,5.0,621.6059087892063,4.0,1.0,phase_2,stop,550.0,450.0,3.0,,,,,,,,,cyan,square
0.0,6.0,1.0,1.0,5.0,0.0,0.0,4.0,1.0,phase_2,stop,500.0,450.0,4.0,,,,,,,,,blue,flipped triangle
0.0,2.0,1.0,0.0,5.0,5.0,622.1114885993302,4.0,1.0,phase_2,go,550.0,450.0,1.0,,,,,,,,,magenta,circle
0.0,4.0,4.0,0.0,6.0,6.0,791.8260139995255,4.0,1.0,phase_2,go,550.0,450.0,1.0,,,,,,,,,orange,I
0.0,2.0,1.0,0.0,6.0,6.0,580.3475625580177,4.0,1.0,phase_2,go,550.0,450.0,1.0,,,,,,,,,magenta,circle
0.0,2.0,1.0,0.0,5.0,5.0,714.091484551318,4.0,1.0,phase_2,go,550.0,450.0,1.0,,,,,,,,,magenta,circle
0.0,3.0,2.0,0.0,6.0,6.0,411.4083009772002,4.0,1.0,phase_2,go,550.0,450.0,1.0,,,,,,,,,gray,triangle
0.0,4.0,4.0,0.0,5.0,5.0,468.5082107898779,4.0,1.0,phase_2,go,550.0,450.0,1.0,,,,,,,,,orange,I
0.0,8.0,4.0,1.0,6.0,6.0,347.3062720149755,4.0,1.0,phase_2,stop,550.0,450.0,3.0,,,,,,,,,cyan,square
0.0,6.0,1.0,1.0,5.0,5.0,706.480959430337,4.0,1.0,phase_2,stop,550.0,400.0,3.0,,,,,,,,,blue,flipped triangle
0.0,4.0,4.0,0.0,6.0,6.0,786.434221023228,4.0,1.0,phase_2,go,500.0,400.0,1.0,,,,,,,,,orange,I
0.0,3.0,2.0,0.0,6.0,6.0,607.874387409538,4.0,1.0,phase_2,go,500.0,400.0,1.0,,,,,,,,,gray,triangle
0.0,1.0,0.5,0.0,5.0,5.0,418.2711018365808,4.0,1.0,phase_2,go,500.0,400.0,1.0,,,,,,,,,white,diamond
0.0,6.0,1.0,1.0,6.0,0.0,0.0,4.0,1.0,phase_2,stop,500.0,400.0,4.0,,,,,,,,,blue,flipped triangle
0.0,7.0,2.0,1.0,6.0,6.0,745.0195522396825,4.0,1.0,phase_2,go,500.0,450.0,1.0,,,,,,,,,yellow,hexagon
0.0,5.0,0.5,1.0,5.0,5.0,329.6300899819471,4.0,1.0,phase_2,stop,500.0,450.0,3.0,,,,,,,,,green,cross
0.0,3.0,2.0,0.0,6.0,6.0,725.537050573621,4.0,1.0,phase_2,go,450.0,450.0,1.0,,,,,,,,,gray,triangle
0.0,6.0,1.0,1.0,6.0,0.0,0.0,4.0,1.0,phase_2,stop,450.0,450.0,4.0,,,,,,,,,blue,flipped triangle
0.0,7.0,2.0,1.0,5.0,5.0,680.3386998362839,4.0,1.0,phase_2,stop,450.0,500.0,3.0,,,,,,,,,yellow,hexagon
0.0,3.0,2.0,0.0,5.0,5.0,602.0048084319569,4.0,1.0,phase_2,go,400.0,500.0,1.0,,,,,,,,,gray,triangle
0.0,8.0,4.0,1.0,6.0,0.0,0.0,4.0,1.0,phase_2,stop,400.0,500.0,4.0,,,,,,,,,cyan,square
0.0,6.0,1.0,1.0,6.0,0.0,0.0,4.0,1.0,phase_2,stop,400.0,550.0,4.0,,,,,,,,,blue,flipped triangle
0.0,4.0,4.0,0.0,5.0,5.0,638.4401667746715,4.0,1.0,phase_2,go,400.0,600.0,1.0,,,,,,,,,orange,I
0.0,4.0,4.0,0.0,5.0,5.0,618.1343314237893,4.0,1.0,phase_2,go,400.0,600.0,1.0,,,,,,,,,orange,I
0.0,8.0,4.0,1.0,6.0,6.0,685.361867013853,4.0,1.0,phase_2,go,400.0,600.0,1.0,,,,,,,,,cyan,square
0.0,8.0,4.0,1.0,5.0,0.0,0.0,4.0,1.0,phase_2,stop,400.0,600.0,4.0,,,,,,,,,cyan,square
0.0,6.0,1.0,1.0,6.0,6.0,531.2515101977624,5.0,1.0,phase_2,stop,450.0,600.0,3.0,,,,,,,,,blue,flipped triangle
0.0,2.0,1.0,0.0,5.0,5.0,531.095017620828,5.0,1.0,phase_2,go,450.0,550.0,1.0,,,,,,,,,magenta,circle
0.0,2.0,1.0,0.0,6.0,6.0,644.5592269883491,5.0,1.0,phase_2,go,450.0,550.0,1.0,,,,,,,,,magenta,circle
0.0,3.0,2.0,0.0,5.0,5.0,759.1059554251842,5.0,1.0,phase_2,go,450.0,550.0,1.0,,,,,,,,,gray,triangle
0.0,4.0,4.0,0.0,5.0,5.0,759.7048559691757,5.0,1.0,phase_2,go,450.0,550.0,1.0,,,,,,,,,orange,I
0.0,2.0,1.0,0.0,6.0,6.0,749.1654402110726,5.0,1.0,phase_2,go,450.0,550.0,1.0,,,,,,,,,magenta,circle
0.0,8.0,4.0,1.0,5.0,0.0,0.0,5.0,1.0,phase_2,stop,450.0,550.0,4.0,,,,,,,,,cyan,square
0.0,5.0,0.5,1.0,5.0,5.0,627.628734218888,5.0,1.0,phase_2,stop,500.0,550.0,3.0,,,,,,,,,green,cross
0.0,5.0,0.5,1.0,6.0,6.0,671.6215526685119,5.0,1.0,phase_2,go,450.0,550.0,1.0,,,,,,,,,green,cross
0.0,4.0,4.0,0.0,6.0,6.0,706.1140706646256,5.0,1.0,phase_2,go,450.0,550.0,1.0,,,,,,,,,orange,I
0.0,4.0,4.0,0.0,6.0,6.0,628.9427786250599,5.0,1.0,phase_2,go,450.0,550.0,1.0,,,,,,,,,orange,I
0.0,8.0,4.0,1.0,6.0,0.0,0.0,5.0,1.0,phase_2,stop,450.0,550.0,4.0,,,,,,,,,cyan,square
0.0,7.0,2.0,1.0,5.0,5.0,371.14769726758817,5.0,1.0,phase_2,stop,450.0,600.0,3.0,,,,,,,,,yellow,hexagon
0.0,2.0,1.0,0.0,6.0,6.0,641.8156536528841,5.0,1.0,phase_2,go,400.0,600.0,1.0,,,,,,,,,magenta,circle
0.0,2.0,1.0,0.0,6.0,6.0,789.2115162103437,5.0,1.0,phase_2,go,400.0,600.0,1.0,,,,,,,,,magenta,circle
0.0,1.0,0.5,0.0,5.0,5.0,643.6412076000124,5.0,1.0,phase_2,go,400.0,600.0,1.0,,,,,,,,,white,diamond
0.0,6.0,1.0,1.0,5.0,0.0,0.0,5.0,1.0,phase_2,stop,400.0,600.0,4.0,,,,,,,,,blue,flipped triangle
0.0,6.0,1.0,1.0,6.0,6.0,1018.4289044118486,5.0,1.0,phase_2,stop,450.0,600.0,3.0,,,,,,,,,blue,flipped triangle
0.0,5.0,0.5,1.0,5.0,0.0,0.0,5.0,1.0,phase_2,stop,450.0,550.0,4.0,,,,,,,,,green,cross
0.0,2.0,1.0,0.0,6.0,6.0,884.9545392440632,5.0,1.0,phase_2,go,500.0,550.0,1.0,,,,,,,,,magenta,circle
0.0,7.0,2.0,1.0,6.0,0.0,0.0,5.0,1.0,phase_2,stop,500.0,550.0,4.0,,,,,,,,,yellow,hexagon
0.0,7.0,2.0,1.0,6.0,0.0,0.0,5.0,1.0,phase_2,stop,500.0,600.0,4.0,,,,,,,,,yellow,hexagon
0.0,4.0,4.0,0.0,6.0,6.0,447.5389717845246,5.0,1.0,phase_2,go,500.0,650.0,1.0,,,,,,,,,orange,I
0.0,6.0,1.0,1.0,6.0,0.0,0.0,5.0,1.0,phase_2,stop,500.0,650.0,4.0,,,,,,,,,blue,flipped triangle
0.0,3.0,2.0,0.0,6.0,6.0,708.1265177694149,5.0,1.0,phase_2,go,500.0,700.0,1.0,,,,,,,,,gray,triangle
0.0,6.0,1.0,1.0,5.0,0.0,0.0,5.0,1.0,phase_2,stop,500.0,700.0,4.0,,,,,,,,,blue,flipped triangle
0.0,5.0,0.5,1.0,5.0,0.0,0.0,5.0,1.0,phase_2,stop,550.0,700.0,4.0,,,,,,,,,green,cross
0.0,4.0,4.0,0.0,6.0,6.0,664.6926731918938,5.0,1.0,phase_2,go,600.0,700.0,1.0,,,,,,,,,orange,I
0.0,3.0,2.0,0.0,6.0,6.0,643.445374967996,5.0,1.0,phase_2,go,600.0,700.0,1.0,,,,,,,,,gray,triangle
0.0,4.0,4.0,0.0,6.0,6.0,634.6364546334371,5.0,1.0,phase_2,go,600.0,700.0,1.0,,,,,,,,,orange,I
0.0,3.0,2.0,0.0,5.0,5.0,577.4887099978514,5.0,1.0,phase_2,go,600.0,700.0,1.0,,,,,,,,,gray,triangle
0.0,5.0,0.5,1.0,6.0,0.0,0.0,5.0,1.0,phase_2,stop,600.0,700.0,4.0,,,,,,,,,green,cross
0.0,1.0,0.5,0.0,6.0,6.0,738.2069290033542,5.0,1.0,phase_2,go,600.0,750.0,1.0,,,,,,,,,white,diamond
0.0,6.0,1.0,1.0,5.0,5.0,1109.418575419113,5.0,1.0,phase_2,go,600.0,750.0,1.0,,,,,,,,,blue,flipped triangle
0.0,8.0,4.0,1.0,6.0,6.0,874.8201620182954,5.0,1.0,phase_2,stop,600.0,750.0,3.0,,,,,,,,,cyan,square
0.0,3.0,2.0,0.0,5.0,5.0,684.106296801474,5.0,1.0,phase_2,go,600.0,700.0,1.0,,,,,,,,,gray,triangle
0.0,4.0,4.0,0.0,5.0,5.0,362.1719118091278,6.0,1.0,phase_2,go,600.0,700.0,1.0,,,,,,,,,orange,I
0.0,2.0,1.0,0.0,5.0,5.0,689.1377597930841,6.0,1.0,phase_2,go,600.0,700.0,1.0,,,,,,,,,magenta,circle
0.0,8.0,4.0,1.0,5.0,5.0,758.2948706112802,6.0,1.0,phase_2,stop,600.0,700.0,3.0,,,,,,,,,cyan,square
0.0,2.0,1.0,0.0,5.0,5.0,893.9406971912831,6.0,1.0,phase_2,go,550.0,700.0,1.0,,,,,,,,,magenta,circle
0.0,2.0,1.0,0.0,5.0,5.0,645.1135234092362,6.0,1.0,phase_2,go,550.0,700.0,1.0,,,,,,,,,magenta,circle
0.0,3.0,2.0,0.0,6.0,6.0,579.5121150440536,6.0,1.0,phase_2,go,550.0,700.0,1.0,,,,,,,,,gray,triangle
0.0,8.0,4.0,1.0,5.0,0.0,0.0,6.0,1.0,phase_2,stop,550.0,700.0,4.0,,,,,,,,,cyan,square
0.0,4.0,4.0,0.0,5.0,5.0,592.3802004544996,6.0,1.0,phase_2,go,600.0,700.0,1.0,,,,,,,,,orange,I
0.0,2.0,1.0,0.0,5.0,5.0,468.8303025905043,6.0,1.0,phase_2,go,600.0,700.0,1.0,,,,,,,,,magenta,circle
0.0,4.0,4.0,0.0,5.0,5.0,615.554126619827,6.0,1.0,phase_2,go,600.0,700.0,1.0,,,,,,,,,orange,I
0.0,8.0,4.0,1.0,6.0,6.0,639.3536948016845,6.0,1.0,phase_2,stop,600.0,700.0,3.0,,,,,,,,,cyan,square
0.0,1.0,0.5,0.0,5.0,5.0,898.7992579932325,6.0,1.0,phase_2,go,600.0,650.0,1.0,,,,,,,,,white,diamond
0.0,5.0,0.5,1.0,6.0,6.0,708.8643704191782,6.0,1.0,phase_2,stop,600.0,650.0,3.0,,,,,,,,,green,cross
0.0,5.0,0.5,1.0,6.0,6.0,777.3300479748286,6.0,1.0,phase_2,stop,600.0,600.0,3.0,,,,,,,,,green,cross
0.0,6.0,1.0,1.0,5.0,0.0,0.0,6.0,1.0,phase_2,stop,600.0,550.0,4.0,,,,,,,,,blue,flipped triangle
0.0,1.0,0.5,0.0,5.0,5.0,701.5344640240073,6.0,1.0,phase_2,go,650.0,550.0,1.0,,,,,,,,,white,diamond
0.0,5.0,0.5,1.0,6.0,0.0,0.0,6.0,1.0,phase_2,stop,650.0,550.0,4.0,,,,,,,,,green,cross
0.0,7.0,2.0,1.0,6.0,0.0,0.0,6.0,1.0,phase_2,stop,650.0,600.0,4.0,,,,,,,,,yellow,hexagon
0.0,5.0,0.5,1.0,6.0,0.0,0.0,6.0,1.0,phase_2,stop,650.0,650.0,4.0,,,,,,,,,green,cross
0.0,1.0,0.5,0.0,6.0,6.0,444.0165286068804,6.0,1.0,phase_2,go,650.0,700.0,1.0,,,,,,,,,white,diamond
0.0,7.0,2.0,1.0,5.0,0.0,0.0,6.0,1.0,phase_2,stop,650.0,700.0,4.0,,,,,,,,,yellow,hexagon
0.0,5.0,0.5,1.0,6.0,6.0,1120.9294956061058,6.0,1.0,phase_2,go,700.0,700.0,1.0,,,,,,,,,green,cross
0.0,3.0,2.0,0.0,6.0,6.0,481.8536203820258,6.0,1.0,phase_2,go,700.0,700.0,1.0,,,,,,,,,gray,triangle
0.0,4.0,4.0,0.0,6.0,6.0,560.2742718765512,6.0,1.0,phase_2,go,700.0,700.0,1.0,,,,,,,,,orange,I
0.0,1.0,0.5,0.0,6.0,6.0,483.928618603386,6.0,1.0,phase_2,go,700.0,700.0,1.0,,,,,,,,,white,diamond
0.0,7.0,2.0,1.0,6.0,6.0,1057.4031681753695,6.0,1.0,phase_2,go,700.0,700.0,1.0,,,,,,,,,yellow,hexagon
0.0,2.0,1.0,0.0,5.0,5.0,731.1682956060395,6.0,1.0,phase_2,go,700.0,700.0,1.0,,,,,,,,,magenta,circle
0.0,2.0,1.0,0.0,6.0,6.0,486.0359668382443,6.0,1.0,phase_2,go,700.0,700.0,1.0,,,,,,,,,magenta,circle
0.0,4.0,4.0,0.0,6.0,6.0,452.8978776070289,6.0,1.0,phase_2,go,700.0,700.0,1.0,,,,,,,,,orange,I
0.0,8.0,4.0,1.0,5.0,0.0,0.0,6.0,1.0,phase_2,stop,700.0,700.0,4.0,,,,,,,,,cyan,square
0.0,1.0,0.5,0.0,5.0,5.0,712.4189260066487,6.0,1.0,phase_2,go,750.0,700.0,1.0,,,,,,,,,white,diamond
0.0,6.0,1.0,1.0,5.0,0.0,0.0,6.0,1.0,phase_2,stop,750.0,700.0,4.0,,,,,,,,,blue,flipped triangle
0.0,3.0,2.0,0.0,5.0,5.0,691.467302152887,6.0,1.0,phase_2,go,800.0,700.0,1.0,,,,,,,,,gray,triangle
0.0,3.0,2.0,0.0,6.0,6.0,725.4817388020456,6.0,1.0,phase_2,go,800.0,700.0,1.0,,,,,,,,,gray,triangle
0.0,7.0,2.0,1.0,6.0,0.0,0.0,6.0,1.0,phase_2,stop,800.0,700.0,4.0,,,,,,,,,yellow,hexagon
0.0,6.0,1.0,1.0,5.0,0.0,0.0,6.0,1.0,phase_2,stop,800.0,750.0,4.0,,,,,,,,,blue,flipped triangle
0.0,5.0,0.5,1.0,6.0,6.0,345.0217312201857,7.0,1.0,phase_2,stop,850.0,750.0,3.0,,,,,,,,,green,cross
0.0,1.0,0.5,0.0,6.0,6.0,727.2836768534034,7.0,1.0,phase_2,go,850.0,700.0,1.0,,,,,,,,,white,diamond
0.0,6.0,1.0,1.0,6.0,0.0,0.0,7.0,1.0,phase_2,stop,850.0,700.0,4.0,,,,,,,,,blue,flipped triangle
0.0,5.0,0.5,1.0,5.0,0.0,0.0,7.0,1.0,phase_2,stop,850.0,750.0,4.0,,,,,,,,,green,cross
0.0,5.0,0.5,1.0,5.0,5.0,821.2270628428087,7.0,1.0,phase_2,stop,900.0,750.0,3.0,,,,,,,,,green,cross
0.0,5.0,0.5,1.0,5.0,5.0,910.8009560150094,7.0,1.0,phase_2,go,850.0,750.0,1.0,,,,,,,,,green,cross
0.0,1.0,0.5,0.0,6.0,6.0,664.6375569980592,7.0,1.0,phase_2,go,850.0,750.0,1.0,,,,,,,,,white,diamond
0.0,4.0,4.0,0.0,6.0,6.0,518.243020225782,7.0,1.0,phase_2,go,850.0,750.0,1.0,,,,,,,,,orange,I
0.0,6.0,1.0,1.0,6.0,0.0,0.0,7.0,1.0,phase_2,stop,850.0,750.0,4.0,,,,,,,,,blue,flipped triangle
0.0,8.0,4.0,1.0,6.0,0.0,0.0,7.0,1.0,phase_2,stop,850.0,800.0,4.0,,,,,,,,,cyan,square
0.0,4.0,4.0,0.0,6.0,6.0,566.9758747681044,7.0,1.0,phase_2,go,850.0,850.0,1.0,,,,,,,,,orange,I
0.0,1.0,0.5,0.0,6.0,6.0,610.9492138493806,7.0,1.0,phase_2,go,850.0,850.0,1.0,,,,,,,,,white,diamond
0.0,2.0,1.0,0.0,5.0,5.0,455.6021032040007,7.0,1.0,phase_2,go,850.0,850.0,1.0,,,,,,,,,magenta,circle
0.0,8.0,4.0,1.0,6.0,6.0,343.6354752047919,7.0,1.0,phase_2,stop,850.0,850.0,3.0,,,,,,,,,cyan,square
0.0,3.0,2.0,0.0,5.0,5.0,592.6630668109283,7.0,1.0,phase_2,go,850.0,800.0,1.0,,,,,,,,,gray,triangle
0.0,4.0,4.0,0.0,6.0,6.0,524.1540616261773,7.0,1.0,phase_2,go,850.0,800.0,1.0,,,,,,,,,orange,I
0.0,8.0,4.0,1.0,5.0,0.0,0.0,7.0,1.0,phase_2,stop,850.0,800.0,4.0,,,,,,,,,cyan,square
0.0,7.0,2.0,1.0,6.0,0.0,0.0,7.0,1.0,phase_2,stop,900.0,800.0,4.0,,,,,,,,,yellow,hexagon
0.0,4.0,4.0,0.0,5.0,5.0,605.6377558270469,7.0,1.0,phase_2,go,900.0,850.0,1.0,,,,,,,,,orange,I
0.0,3.0,2.0,0.0,5.0,5.0,619.3757220171392,7.0,1.0,phase_2,go,900.0,850.0,1.0,,,,,,,,,gray,triangle
0.0,4.0,4.0,0.0,5.0,5.0,540.2001145994291,7.0,1.0,phase_2,go,900.0,850.0,1.0,,,,,,,,,orange,I
0.0,5.0,0.5,1.0,5.0,5.0,507.6471292413771,7.0,1.0,phase_2,stop,900.0,850.0,3.0,,,,,,,,,green,cross
0.0,3.0,2.0,0.0,6.0,6.0,620.5254796659574,7.0,1.0,phase_2,go,850.0,850.0,1.0,,,,,,,,,gray,triangle
0.0,7.0,2.0,1.0,5.0,5.0,1230.469559435733,7.0,1.0,phase_2,go,850.0,850.0,1.0,,,,,,,,,yellow,hexagon
0.0,6.0,1.0,1.0,6.0,0.0,0.0,7.0,1.0,phase_2,stop,850.0,850.0,4.0,,,,,,,,,blue,flipped triangle
0.0,2.0,1.0,0.0,5.0,5.0,545.431075966917,7.0,1.0,phase_2,go,850.0,900.0,1.0,,,,,,,,,magenta,circle
0.0,4.0,4.0,0.0,6.0,6.0,499.7036380227655,7.0,1.0,phase_2,go,850.0,900.0,1.0,,,,,,,,,orange,I
0.0,5.0,0.5,1.0,6.0,6.0,500.73969922959805,7.0,1.0,phase_2,stop,850.0,900.0,3.0,,,,,,,,,green,cross
0.0,5.0,0.5,1.0,6.0,0.0,0.0,7.0,1.0,phase_2,stop,850.0,850.0,4.0,,,,,,,,,green,cross
0.0,8.0,4.0,1.0,5.0,0.0,0.0,7.0,1.0,phase_2,stop,850.0,900.0,4.0,,,,,,,,,cyan,square
0.0,4.0,4.0,0.0,5.0,5.0,437.4768676352687,7.0,1.0,phase_2,go,900.0,900.0,1.0,,,,,,,,,orange,I
0.0,4.0,4.0,0.0,5.0,5.0,549.5371302240528,7.0,1.0,phase_2,go,900.0,900.0,1.0,,,,,,,,,orange,I
0.0,1.0,0.5,0.0,5.0,5.0,448.7066832371056,7.0,1.0,phase_2,go,900.0,900.0,1.0,,,,,,,,,white,diamond
0.0,1.0,0.5,0.0,6.0,6.0,438.9126764144748,7.0,1.0,phase_2,go,900.0,900.0,1.0,,,,,,,,,white,diamond
0.0,1.0,0.5,0.0,5.0,5.0,519.4361167959869,7.0,1.0,phase_2,go,900.0,900.0,1.0,,,,,,,,,white,diamond
0.0,6.0,1.0,1.0,6.0,0.0,0.0,7.0,1.0,phase_2,stop,900.0,900.0,4.0,,,,,,,,,blue,flipped triangle
0.0,6.0,1.0,1.0,5.0,5.0,701.3310830225237,8.0,1.0,phase_2,go,900.0,950.0,1.0,,,,,,,,,blue,flipped triangle
0.0,7.0,2.0,1.0,5.0,5.0,973.633282177616,8.0,1.0,phase_2,stop,900.0,950.0,3.0,,,,,,,,,yellow,hexagon
0.0,6.0,1.0,1.0,5.0,0.0,0.0,8.0,1.0,phase_2,stop,850.0,950.0,4.0,,,,,,,,,blue,flipped triangle
0.0,1.0,0.5,0.0,6.0,6.0,570.3431502333842,8.0,1.0,phase_2,go,900.0,950.0,1.0,,,,,,,,,white,diamond
0.0,4.0,4.0,0.0,6.0,6.0,523.922250024043,8.0,1.0,phase_2,go,900.0,950.0,1.0,,,,,,,,,orange,I
0.0,7.0,2.0,1.0,5.0,5.0,975.0715036061592,8.0,1.0,phase_2,stop,900.0,950.0,3.0,,,,,,,,,yellow,hexagon
0.0,5.0,0.5,1.0,6.0,0.0,0.0,8.0,1.0,phase_2,stop,850.0,950.0,4.0,,,,,,,,,green,cross
0.0,8.0,4.0,1.0,6.0,6.0,1405.2734154392963,8.0,1.0,phase_2,go,850.0,1000.0,1.0,,,,,,,,,cyan,square
0.0,5.0,0.5,1.0,6.0,6.0,855.4074743879028,8.0,1.0,phase_2,stop,850.0,1000.0,3.0,,,,,,,,,green,cross
0.0,2.0,1.0,0.0,6.0,6.0,597.3620836157352,8.0,1.0,phase_2,go,850.0,950.0,1.0,,,,,,,,,magenta,circle
0.0,3.0,2.0,0.0,5.0,5.0,642.394790018443,8.0,1.0,phase_2,go,850.0,950.0,1.0,,,,,,,,,gray,triangle
0.0,4.0,4.0,0.0,5.0,5.0,552.1665216074325,8.0,1.0,phase_2,go,850.0,950.0,1.0,,,,,,,,,orange,I
0.0,3.0,2.0,0.0,6.0,6.0,656.3417494180612,8.0,1.0,phase_2,go,850.0,950.0,1.0,,,,,,,,,gray,triangle
0.0,7.0,2.0,1.0,5.0,5.0,1195.767328608781,8.0,1.0,phase_2,go,850.0,950.0,1.0,,,,,,,,,yellow,hexagon
0.0,2.0,1.0,0.0,6.0,6.0,533.5122300311923,8.0,1.0,phase_2,go,850.0,950.0,1.0,,,,,,,,,magenta,circle
0.0,3.0,2.0,0.0,6.0,6.0,512.5366320135072,8.0,1.0,phase_2,go,850.0,950.0,1.0,,,,,,,,,gray,triangle
0.0,1.0,0.5,0.0,5.0,5.0,523.86915020179,8.0,1.0,phase_2,go,850.0,950.0,1.0,,,,,,,,,white,diamond
0.0,7.0,2.0,1.0,5.0,5.0,446.4818596024997,8.0,1.0,phase_2,stop,850.0,950.0,3.0,,,,,,,,,yellow,hexagon
0.0,6.0,1.0,1.0,5.0,0.0,0.0,8.0,1.0,phase_2,stop,800.0,950.0,4.0,,,,,,,,,blue,flipped triangle
0.0,6.0,1.0,1.0,5.0,0.0,0.0,8.0,1.0,phase_2,go,850.0,950.0,5.0,,,,,,,,,blue,flipped triangle
0.0,5.0,0.5,1.0,5.0,0.0,0.0,8.0,1.0,phase_2,stop,850.0,950.0,4.0,,,,,,,,,green,cross
0.0,3.0,2.0,0.0,5.0,5.0,629.8162282328121,8.0,1.0,phase_2,go,900.0,950.0,1.0,,,,,,,,,gray,triangle
0.0,8.0,4.0,1.0,5.0,5.0,527.982480591163,8.0,1.0,phase_2,go,900.0,950.0,1.0,,,,,,,,,cyan,square
0.0,6.0,1.0,1.0,6.0,0.0,0.0,8.0,1.0,phase_2,stop,900.0,950.0,4.0,,,,,,,,,blue,flipped triangle
0.0,3.0,2.0,0.0,6.0,6.0,630.9599300147966,8.0,1.0,phase_2,go,900.0,1000.0,1.0,,,,,,,,,gray,triangle
0.0,3.0,2.0,0.0,6.0,6.0,508.108975016512,8.0,1.0,phase_2,go,900.0,1000.0,1.0,,,,,,,,,gray,triangle
0.0,8.0,4.0,1.0,5.0,5.0,1048.6305632512083,8.0,1.0,phase_2,stop,900.0,1000.0,3.0,,,,,,,,,cyan,square
0.0,8.0,4.0,1.0,6.0,6.0,961.08650858514,8.0,1.0,phase_2,go,850.0,1000.0,1.0,,,,,,,,,cyan,square
0.0,4.0,4.0,0.0,6.0,6.0,545.0535528361797,8.0,1.0,phase_2,go,850.0,1000.0,1.0,,,,,,,,,orange,I
0.0,8.0,4.0,1.0,5.0,5.0,1379.3770667980425,8.0,1.0,phase_2,go,850.0,1000.0,1.0,,,,,,,,,cyan,square
0.0,3.0,2.0,0.0,5.0,5.0,580.1903188112192,8.0,1.0,phase_2,go,850.0,1000.0,1.0,,,,,,,,,gray,triangle
0.0,4.0,4.0,0.0,6.0,6.0,546.6828714124858,8.0,1.0,phase_2,go,850.0,1000.0,1.0,,,,,,,,,orange,I
0.0,4.0,4.0,0.0,5.0,5.0,378.7688284064643,8.0,1.0,phase_2,go,850.0,1000.0,1.0,,,,,,,,,orange,I
0.0,2.0,1.0,0.0,6.0,6.0,515.5261771869846,8.0,1.0,phase_2,go,850.0,1000.0,1.0,,,,,,,,,magenta,circle
0.0,7.0,2.0,1.0,5.0,0.0,0.0,8.0,1.0,phase_2,stop,850.0,1000.0,4.0,,,,,,,,,yellow,hexagon
0.0,4.0,4.0,0.0,5.0,5.0,573.8759174128063,8.0,1.0,phase_2,go,900.0,1000.0,1.0,,,,,,,,,orange,I
0.0,1.0,0.5,0.0,7.0,1.0,4655.783273163252,1.0,1.0,phase_3,,,,,88.0,2.0,88.0,44.0,132.0,176.0,220.0,264.0,white,diamond
0.0,8.0,4.0,1.0,7.0,3.0,2566.0397364990786,1.0,1.0,phase_3,,,,,216.0,4.0,324.0,270.0,216.0,162.0,108.0,54.0,cyan,square
0.0,4.0,4.0,0.0,7.0,4.0,2039.450233161915,1.0,1.0,phase_3,,,,,195.0,5.0,156.0,78.0,117.0,195.0,39.0,234.0,orange,I
0.0,5.0,0.5,1.0,7.0,5.0,1904.7684696270155,1.0,1.0,phase_3,,,,,204.0,6.0,34.0,102.0,68.0,170.0,204.0,136.0,green,cross
0.0,6.0,1.0,1.0,7.0,1.0,1579.8011212609708,1.0,1.0,phase_3,,,,,204.0,6.0,204.0,102.0,170.0,68.0,34.0,136.0,blue,flipped triangle
0.0,6.0,1.0,1.0,7.0,3.0,2604.486758587882,1.0,1.0,phase_3,,,,,270.0,5.0,54.0,324.0,270.0,108.0,216.0,162.0,blue,flipped triangle
0.0,3.0,2.0,0.0,7.0,5.0,2324.078840902075,1.0,1.0,phase_3,,,,,54.0,1.0,270.0,108.0,162.0,324.0,54.0,216.0,gray,triangle
0.0,2.0,1.0,0.0,7.0,5.0,2506.440443568863,1.0,1.0,phase_3,,,,,108.0,2.0,216.0,324.0,162.0,270.0,108.0,54.0,magenta,circle
0.0,8.0,4.0,1.0,7.0,3.0,2563.851767743472,1.0,1.0,phase_3,,,,,220.0,5.0,176.0,44.0,220.0,132.0,264.0,88.0,cyan,square
0.0,6.0,1.0,1.0,7.0,2.0,2599.1746073123068,1.0,1.0,phase_3,,,,,245.0,5.0,98.0,245.0,49.0,294.0,147.0,196.0,blue,flipped triangle
0.0,1.0,0.5,0.0,7.0,3.0,1628.130191937089,1.0,2.0,phase_3,,,,,162.0,3.0,54.0,216.0,162.0,270.0,324.0,108.0,white,diamond
0.0,2.0,1.0,0.0,7.0,3.0,1909.7139255609363,1.0,1.0,phase_3,,,,,176.0,4.0,44.0,88.0,176.0,264.0,220.0,132.0,magenta,circle
0.0,2.0,1.0,0.0,7.0,3.0,1472.4945868947543,1.0,1.0,phase_3,,,,,102.0,3.0,170.0,204.0,102.0,136.0,68.0,34.0,magenta,circle
0.0,7.0,2.0,1.0,7.0,3.0,2238.2726528448984,1.0,1.0,phase_3,,,,,204.0,6.0,34.0,170.0,204.0,68.0,136.0,102.0,yellow,hexagon
0.0,3.0,2.0,0.0,7.0,3.0,1418.3017101604491,1.0,1.0,phase_3,,,,,54.0,1.0,324.0,270.0,54.0,108.0,162.0,216.0,gray,triangle
0.0,7.0,2.0,1.0,7.0,2.0,1824.112791684456,1.0,1.0,phase_3,,,,,220.0,5.0,264.0,220.0,176.0,44.0,88.0,132.0,yellow,hexagon
0.0,8.0,4.0,1.0,7.0,5.0,1623.5146611579694,1.0,1.0,phase_3,,,,,245.0,5.0,147.0,98.0,294.0,49.0,245.0,196.0,cyan,square
0.0,5.0,0.5,1.0,7.0,5.0,1963.0636359215716,1.0,1.0,phase_3,,,,,270.0,5.0,108.0,216.0,324.0,54.0,270.0,162.0,green,cross
0.0,1.0,0.5,0.0,7.0,1.0,1682.5558439013548,1.0,1.0,phase_3,,,,,68.0,2.0,68.0,34.0,136.0,102.0,204.0,170.0,white,diamond
0.0,1.0,0.5,0.0,7.0,2.0,1581.42343419604,1.0,1.0,phase_3,,,,,98.0,2.0,196.0,98.0,49.0,294.0,147.0,245.0,white,diamond
0.0,1.0,0.5,0.0,7.0,3.0,1413.0438444553874,2.0,1.0,phase_3,,,,,176.0,4.0,264.0,132.0,176.0,44.0,220.0,88.0,white,diamond
0.0,3.0,2.0,0.0,7.0,2.0,1413.1124471896328,2.0,1.0,phase_3,,,,,156.0,4.0,195.0,156.0,39.0,78.0,234.0,117.0,gray,triangle
0.0,7.0,2.0,1.0,7.0,3.0,1752.117611875292,2.0,1.0,phase_3,,,,,98.0,2.0,245.0,147.0,98.0,294.0,49.0,196.0,yellow,hexagon
0.0,8.0,4.0,1.0,7.0,3.0,1462.0238521602005,2.0,1.0,phase_3,,,,,234.0,6.0,117.0,156.0,234.0,39.0,195.0,78.0,cyan,square
0.0,5.0,0.5,1.0,7.0,6.0,1832.485699618701,2.0,1.0,phase_3,,,,,245.0,5.0,98.0,49.0,147.0,294.0,196.0,245.0,green,cross
0.0,7.0,2.0,1.0,7.0,2.0,1924.5503469137475,2.0,1.0,phase_3,,,,,170.0,5.0,136.0,170.0,204.0,102.0,34.0,68.0,yellow,hexagon
0.0,2.0,1.0,0.0,7.0,5.0,1351.593031315133,2.0,1.0,phase_3,,,,,98.0,2.0,147.0,196.0,49.0,294.0,98.0,245.0,magenta,circle
0.0,1.0,0.5,0.0,7.0,3.0,1657.824355585035,2.0,1.0,phase_3,,,,,108.0,2.0,270.0,216.0,108.0,162.0,324.0,54.0,white,diamond
0.0,3.0,2.0,0.0,7.0,4.0,1725.6621276028454,2.0,1.0,phase_3,,,,,98.0,2.0,245.0,147.0,294.0,98.0,196.0,49.0,gray,triangle
0.0,3.0,2.0,0.0,7.0,5.0,1613.5781914927063,2.0,1.0,phase_3,,,,,102.0,3.0,34.0,170.0,136.0,204.0,102.0,68.0,gray,triangle
0.0,6.0,1.0,1.0,7.0,1.0,2222.1486608032137,2.0,1.0,phase_3,,,,,170.0,5.0,170.0,102.0,68.0,34.0,204.0,136.0,blue,flipped triangle
0.0,8.0,4.0,1.0,7.0,1.0,1559.8486501839943,2.0,1.0,phase_3,,,,,324.0,6.0,324.0,108.0,216.0,54.0,270.0,162.0,cyan,square
0.0,7.0,2.0,1.0,7.0,3.0,2349.8617046279837,2.0,1.0,phase_3,,,,,220.0,5.0,44.0,176.0,220.0,132.0,88.0,264.0,yellow,hexagon
0.0,7.0,2.0,1.0,7.0,3.0,1855.7217553025112,2.0,1.0,phase_3,,,,,270.0,5.0,162.0,324.0,270.0,54.0,216.0,108.0,yellow,hexagon
0.0,2.0,1.0,0.0,7.0,5.0,1180.2749093039893,2.0,1.0,phase_3,,,,,39.0,1.0,234.0,156.0,195.0,78.0,39.0,117.0,magenta,circle
0.0,6.0,1.0,1.0,7.0,4.0,1812.11228488246,2.0,1.0,phase_3,,,,,270.0,5.0,324.0,108.0,162.0,270.0,54.0,216.0,blue,flipped triangle
0.0,8.0,4.0,1.0,7.0,6.0,1464.4594438723288,2.0,1.0,phase_3,,,,,204.0,6.0,136.0,170.0,102.0,34.0,68.0,204.0,cyan,square
0.0,5.0,0.5,1.0,7.0,4.0,1600.2970911795271,2.0,1.0,phase_3,,,,,156.0,4.0,234.0,117.0,39.0,156.0,78.0,195.0,green,cross
0.0,4.0,4.0,0.0,7.0,1.0,1579.513499920722,2.0,1.0,phase_3,,,,,264.0,6.0,264.0,176.0,220.0,132.0,88.0,44.0,orange,I
0.0,3.0,2.0,0.0,7.0,1.0,1354.2236890061758,2.0,1.0,phase_3,,,,,39.0,1.0,39.0,117.0,78.0,234.0,156.0,195.0,gray,triangle
0.0,7.0,2.0,1.0,7.0,4.0,1387.7249748911709,3.0,1.0,phase_3,,,,,234.0,6.0,195.0,156.0,117.0,234.0,78.0,39.0,yellow,hexagon
0.0,4.0,4.0,0.0,7.0,6.0,1669.8931467835791,3.0,1.0,phase_3,,,,,234.0,6.0,117.0,156.0,39.0,195.0,78.0,234.0,orange,I
0.0,8.0,4.0,1.0,7.0,1.0,1503.6732836160809,3.0,1.0,phase_3,,,,,264.0,6.0,264.0,132.0,220.0,44.0,176.0,88.0,cyan,square
0.0,6.0,1.0,1.0,7.0,4.0,1369.454507017508,3.0,1.0,phase_3,,,,,294.0,6.0,49.0,196.0,245.0,294.0,98.0,147.0,blue,flipped triangle
0.0,5.0,0.5,1.0,7.0,1.0,1538.123803853523,3.0,1.0,phase_3,,,,,170.0,5.0,170.0,68.0,136.0,102.0,34.0,204.0,green,cross
0.0,8.0,4.0,1.0,7.0,4.0,1753.469554882031,3.0,1.0,phase_3,,,,,195.0,5.0,156.0,78.0,117.0,195.0,234.0,39.0,cyan,square
0.0,3.0,2.0,0.0,7.0,4.0,977.6186392991804,3.0,1.0,phase_3,,,,,44.0,1.0,176.0,132.0,220.0,44.0,264.0,88.0,gray,triangle
0.0,4.0,4.0,0.0,7.0,1.0,2092.690582270734,3.0,1.0,phase_3,,,,,245.0,5.0,245.0,49.0,98.0,196.0,294.0,147.0,orange,I
0.0,5.0,0.5,1.0,7.0,4.0,947.2297956235708,3.0,1.0,phase_3,,,,,156.0,4.0,39.0,117.0,234.0,156.0,78.0,195.0,green,cross
0.0,1.0,0.5,0.0,7.0,3.0,2195.56955981534,3.0,1.0,phase_3,,,,,117.0,3.0,195.0,78.0,117.0,234.0,39.0,156.0,white,diamond
0.0,7.0,2.0,1.0,7.0,3.0,1658.8421851629391,3.0,1.0,phase_3,,,,,270.0,5.0,324.0,216.0,270.0,162.0,54.0,108.0,yellow,hexagon
0.0,4.0,4.0,0.0,7.0,6.0,2288.785990618635,3.0,1.0,phase_3,,,,,204.0,6.0,170.0,68.0,34.0,136.0,102.0,204.0,orange,I
0.0,5.0,0.5,1.0,7.0,2.0,1469.0338295185938,3.0,1.0,phase_3,,,,,176.0,4.0,132.0,176.0,220.0,88.0,44.0,264.0,green,cross
0.0,5.0,0.5,1.0,7.0,5.0,1998.6651110230011,3.0,1.0,phase_3,,,,,216.0,4.0,108.0,54.0,270.0,162.0,216.0,324.0,green,cross
0.0,6.0,1.0,1.0,7.0,2.0,1413.5245539946482,3.0,1.0,phase_3,,,,,264.0,6.0,176.0,264.0,220.0,132.0,44.0,88.0,blue,flipped triangle
0.0,2.0,1.0,0.0,7.0,1.0,1876.5705556143075,3.0,1.0,phase_3,,,,,102.0,3.0,102.0,68.0,204.0,136.0,34.0,170.0,magenta,circle
0.0,2.0,1.0,0.0,7.0,5.0,1438.715837954078,3.0,1.0,phase_3,,,,,108.0,2.0,270.0,54.0,324.0,216.0,108.0,162.0,magenta,circle
0.0,4.0,4.0,0.0,7.0,2.0,2159.7287146141757,3.0,1.0,phase_3,,,,,216.0,4.0,54.0,216.0,108.0,324.0,270.0,162.0,orange,I
0.0,8.0,4.0,1.0,7.0,4.0,1778.2098252209837,3.0,1.0,phase_3,,,,,294.0,6.0,196.0,147.0,245.0,294.0,98.0,49.0,cyan,square
0.0,7.0,2.0,1.0,7.0,4.0,1229.6372806304134,3.0,1.0,phase_3,,,,,245.0,5.0,98.0,147.0,294.0,245.0,196.0,49.0,yellow,hexagon
0.0,2.0,1.0,0.0,7.0,3.0,1398.94487260608,4.0,1.0,phase_3,,,,,98.0,2.0,294.0,49.0,98.0,196.0,147.0,245.0,magenta,circle
0.0,5.0,0.5,1.0,7.0,2.0,1738.10872156173,4.0,1.0,phase_3,,,,,132.0,3.0,220.0,132.0,264.0,44.0,88.0,176.0,green,cross
0.0,6.0,1.0,1.0,7.0,5.0,1851.4317916124128,4.0,1.0,phase_3,,,,,234.0,6.0,156.0,78.0,39.0,117.0,234.0,195.0,blue,flipped triangle
0.0,2.0,1.0,0.0,7.0,5.0,2122.4597503314726,4.0,1.0,phase_3,,,,,156.0,4.0,234.0,78.0,39.0,117.0,156.0,195.0,magenta,circle
0.0,7.0,2.0,1.0,7.0,2.0,1572.7918692864478,4.0,1.0,phase_3,,,,,234.0,6.0,195.0,234.0,39.0,156.0,78.0,117.0,yellow,hexagon
0.0,4.0,4.0,0.0,7.0,5.0,1742.4440309987403,4.0,1.0,phase_3,,,,,294.0,6.0,49.0,98.0,196.0,147.0,294.0,245.0,orange,I
0.0,3.0,2.0,0.0,7.0,1.0,1190.5835890211165,4.0,1.0,phase_3,,,,,49.0,1.0,49.0,147.0,245.0,98.0,294.0,196.0,gray,triangle
0.0,1.0,0.5,0.0,7.0,6.0,1799.1018035681918,4.0,1.0,phase_3,,,,,102.0,3.0,68.0,136.0,170.0,204.0,34.0,102.0,white,diamond
0.0,4.0,4.0,0.0,7.0,3.0,2352.9670634889044,4.0,1.0,phase_3,,,,,220.0,5.0,88.0,44.0,220.0,132.0,176.0,264.0,orange,I
0.0,1.0,0.5,0.0,7.0,6.0,1757.3765054694377,4.0,1.0,phase_3,,,,,98.0,2.0,49.0,294.0,196.0,147.0,245.0,98.0,white,diamond
0.0,4.0,4.0,0.0,7.0,2.0,1387.874991283752,4.0,1.0,phase_3,,,,,204.0,6.0,170.0,204.0,68.0,102.0,34.0,136.0,orange,I
0.0,1.0,0.5,0.0,7.0,5.0,2096.439046319574,4.0,1.0,phase_3,,,,,117.0,3.0,156.0,195.0,234.0,39.0,117.0,78.0,white,diamond
0.0,3.0,2.0,0.0,7.0,6.0,1456.0702929156832,4.0,1.0,phase_3,,,,,44.0,1.0,220.0,176.0,88.0,132.0,264.0,44.0,gray,triangle
0.0,5.0,0.5,1.0,7.0,2.0,1694.8816257645376,4.0,1.0,phase_3,,,,,196.0,4.0,147.0,196.0,49.0,245.0,98.0,294.0,green,cross
0.0,8.0,4.0,1.0,7.0,6.0,1616.7867705225945,4.0,1.0,phase_3,,,,,204.0,6.0,136.0,34.0,68.0,102.0,170.0,204.0,cyan,square
0.0,3.0,2.0,0.0,7.0,6.0,1459.5015432569198,4.0,1.0,phase_3,,,,,34.0,1.0,102.0,170.0,136.0,204.0,68.0,34.0,gray,triangle
0.0,6.0,1.0,1.0,7.0,1.0,2091.526606294792,4.0,1.0,phase_3,,,,,264.0,6.0,264.0,88.0,132.0,176.0,44.0,220.0,blue,flipped triangle
0.0,2.0,1.0,0.0,7.0,5.0,2181.6066492465325,4.0,1.0,phase_3,,,,,132.0,3.0,220.0,176.0,264.0,88.0,132.0,44.0,magenta,circle
0.0,4.0,4.0,0.0,7.0,5.0,2375.6965176435187,4.0,1.0,phase_3,,,,,216.0,4.0,162.0,324.0,54.0,270.0,216.0,108.0,orange,I
0.0,6.0,1.0,1.0,7.0,4.0,2408.581684634555,4.0,1.0,phase_3,,,,,234.0,6.0,195.0,78.0,156.0,234.0,39.0,117.0,blue,flipped triangle
