raw_reward_magnitude,stim_reward,stepwise_reward_magnitude,paired_with_stopping,stim_location,response,reaction_time,block,num_trial_presentations,which_phase,stop_signal_trial_type,left_SSD,right_SSD,accuracy,chosen_bidding_amount,chosen_bidding_level,possible_bid_1,possible_bid_2,possible_bid_3,possible_bid_4,possible_bid_5,possible_bid_6,color_text,shape_text
63.0,5.0,0.5,1.0,2.0,2.0,571.0048663895577,1.0,1.0,phase_1,,,,,,,,,,,,,white,I
0.0,5.0,0.0,1.0,2.0,2.0,381.5056695020757,1.0,1.0,phase_1,,,,,,,,,,,,,white,I
0.0,3.0,0.0,0.0,3.0,3.0,368.2581319590099,1.0,1.0,phase_1,,,,,,,,,,,,,yellow,square
0.0,2.0,0.0,0.0,2.0,2.0,325.0885992893018,1.0,1.0,phase_1,,,,,,,,,,,,,green,triangle
111.0,6.0,1.0,1.0,4.0,4.0,370.2861772035248,1.0,1.0,phase_1,,,,,,,,,,,,,magenta,cross
177.0,3.0,2.0,0.0,3.0,3.0,348.9217867609113,1.0,1.0,phase_1,,,,,,,,,,,,,yellow,square
33.0,1.0,0.5,0.0,3.0,3.0,384.0072904131375,1.0,1.0,phase_1,,,,,,,,,,,,,cyan,diamond
180.0,3.0,2.0,0.0,4.0,4.0,293.0493633029982,1.0,1.0,phase_1,,,,,,,,,,,,,yellow,square
177.0,7.0,2.0,1.0,2.0,2.0,316.7696091695688,1.0,1.0,phase_1,,,,,,,,,,,,,orange,circle
0.0,6.0,0.0,1.0,2.0,2.0,451.8145975307561,1.0,1.0,phase_1,,,,,,,,,,,,,magenta,cross
109.0,2.0,1.0,0.0,1.0,1.0,340.5030547874048,1.0,1.0,phase_1,,,,,,,,,,,,,green,triangle
0.0,8.0,0.0,1.0,3.0,3.0,318.2816719636321,1.0,1.0,phase_1,,,,,,,,,,,,,blue,hexagon
37.0,5.0,0.5,1.0,3.0,3.0,351.6345259267837,1.0,1.0,phase_1,,,,,,,,,,,,,white,I
378.0,4.0,4.0,0.0,2.0,2.0,341.5222714538686,1.0,1.0,phase_1,,,,,,,,,,,,,gray,flipped triangle
390.0,4.0,4.0,0.0,3.0,3.0,320.9871262661181,1.0,1.0,phase_1,,,,,,,,,,,,,gray,flipped triangle
49.0,1.0,0.5,0.0,2.0,2.0,264.0826589777134,1.0,1.0,phase_1,,,,,,,,,,,,,cyan,diamond
47.0,5.0,0.5,1.0,2.0,2.0,356.1632962082512,1.0,1.0,phase_1,,,,,,,,,,,,,white,I
68.0,1.0,0.5,0.0,1.0,1.0,333.0188296386041,1.0,2.0,phase_1,,,,,,,,,,,,,cyan,diamond
0.0,8.0,0.0,1.0,4.0,4.0,368.7662169104442,1.0,1.0,phase_1,,,,,,,,,,,,,blue,hexagon
49.0,5.0,0.5,1.0,3.0,3.0,345.3498329035938,1.0,1.0,phase_1,,,,,,,,,,,,,white,I
399.0,8.0,4.0,1.0,3.0,3.0,346.9734319369308,1.0,2.0,phase_1,,,,,,,,,,,,,blue,hexagon
420.0,4.0,4.0,0.0,3.0,3.0,304.1310312692076,1.0,1.0,phase_1,,,,,,,,,,,,,gray,flipped triangle
223.0,7.0,2.0,1.0,4.0,4.0,336.4835297106765,1.0,1.0,phase_1,,,,,,,,,,,,,orange,circle
0.0,6.0,0.0,1.0,2.0,2.0,303.2920115510933,1.0,1.0,phase_1,,,,,,,,,,,,,magenta,cross
421.0,4.0,4.0,0.0,1.0,1.0,361.8946730275638,1.0,1.0,phase_1,,,,,,,,,,,,,gray,flipped triangle
380.0,8.0,4.0,1.0,3.0,3.0,337.6390439225361,1.0,2.0,phase_1,,,,,,,,,,,,,blue,hexagon
91.0,2.0,1.0,0.0,2.0,2.0,329.3510576477274,1.0,1.0,phase_1,,,,,,,,,,,,,green,triangle
41.0,5.0,0.5,1.0,1.0,1.0,318.5870132874697,1.0,1.0,phase_1,,,,,,,,,,,,,white,I
378.0,4.0,4.0,0.0,4.0,4.0,317.4364787410013,1.0,1.0,phase_1,,,,,,,,,,,,,gray,flipped triangle
190.0,3.0,2.0,0.0,2.0,2.0,385.4345787549391,1.0,1.0,phase_1,,,,,,,,,,,,,yellow,square
0.0,7.0,0.0,1.0,3.0,3.0,329.3867249158211,1.0,1.0,phase_1,,,,,,,,,,,,,orange,circle
52.0,1.0,0.5,0.0,1.0,1.0,308.6272301734425,1.0,1.0,phase_1,,,,,,,,,,,,,cyan,diamond
25.0,1.0,0.5,0.0,1.0,1.0,331.6357954754494,1.0,1.0,phase_1,,,,,,,,,,,,,cyan,diamond
124.0,2.0,1.0,0.0,4.0,4.0,343.4355501667596,1.0,1.0,phase_1,,,,,,,,,,,,,green,triangle
206.0,3.0,2.0,0.0,2.0,2.0,320.7151816459372,1.0,1.0,phase_1,,,,,,,,,,,,,yellow,square
36.0,5.0,0.5,1.0,3.0,3.0,421.8143674661405,1.0,1.0,phase_1,,,,,,,,,,,,,white,I
33.0,5.0,0.5,1.0,4.0,4.0,310.5298068840056,1.0,1.0,phase_1,,,,,,,,,,,,,white,I
0.0,5.0,0.0,1.0,2.0,2.0,367.2221339656971,1.0,1.0,phase_1,,,,,,,,,,,,,white,I
52.0,5.0,0.5,1.0,2.0,2.0,300.307395926211,1.0,1.0,phase_1,,,,,,,,,,,,,white,I
41.0,1.0,0.5,0.0,3.0,3.0,334.7335458965972,1.0,1.0,phase_1,,,,,,,,,,,,,cyan,diamond
399.0,8.0,4.0,1.0,1.0,1.0,481.7552629392594,1.0,1.0,phase_1,,,,,,,,,,,,,blue,hexagon
413.0,8.0,4.0,1.0,2.0,2.0,369.646982755512,1.0,1.0,phase_1,,,,,,,,,,,,,blue,hexagon
398.0,4.0,4.0,0.0,2.0,2.0,381.3483029371127,1.0,1.0,phase_1,,,,,,,,,,,,,gray,flipped triangle
106.0,6.0,1.0,1.0,3.0,3.0,303.1232936773449,1.0,1.0,phase_1,,,,,,,,,,,,,magenta,cross
199.0,7.0,2.0,1.0,1.0,1.0,317.0277402969077,1.0,1.0,phase_1,,,,,,,,,,,,,orange,circle
0.0,2.0,0.0,0.0,3.0,3.0,316.3756083231419,1.0,1.0,phase_1,,,,,,,,,,,,,green,triangle
183.0,7.0,2.0,1.0,1.0,1.0,316.0709662479348,1.0,1.0,phase_1,,,,,,,,,,,,,orange,circle
107.0,6.0,1.0,1.0,1.0,1.0,283.1040839082561,1.0,1.0,phase_1,,,,,,,,,,,,,magenta,cross
0.0,4.0,0.0,0.0,4.0,4.0,306.4650545129552,1.0,1.0,phase_1,,,,,,,,,,,,,gray,flipped triangle
89.0,2.0,1.0,0.0,3.0,3.0,284.0254759648815,1.0,1.0,phase_1,,,,,,,,,,,,,green,triangle
376.0,4.0,4.0,0.0,4.0,4.0,295.8033066242933,1.0,1.0,phase_1,,,,,,,,,,,,,gray,flipped triangle
0.0,1.0,0.0,0.0,1.0,1.0,297.6453402079642,1.0,1.0,phase_1,,,,,,,,,,,,,cyan,diamond
55.0,1.0,0.5,0.0,3.0,3.0,285.348805016838,1.0,1.0,phase_1,,,,,,,,,,,,,cyan,diamond
397.0,4.0,4.0,0.0,2.0,2.0,321.3134192628786,1.0,1.0,phase_1,,,,,,,,,,,,,gray,flipped triangle
121.0,6.0,1.0,1.0,1.0,1.0,264.8701700381934,1.0,1.0,phase_1,,,,,,,,,,,,,magenta,cross
107.0,6.0,1.0,1.0,4.0,4.0,254.1813885327428,1.0,2.0,phase_1,,,,,,,,,,,,,magenta,cross
99.0,2.0,1.0,0.0,2.0,2.0,322.3868762142956,1.0,1.0,phase_1,,,,,,,,,,,,,green,triangle
185.0,7.0,2.0,1.0,2.0,2.0,392.3426972469315,1.0,1.0,phase_1,,,,,,,,,,,,,orange,circle
200.0,7.0,2.0,1.0,4.0,4.0,323.4696095460094,1.0,1.0,phase_1,,,,,,,,,,,,,orange,circle
208.0,7.0,2.0,1.0,1.0,1.0,301.2505774386227,1.0,1.0,phase_1,,,,,,,,,,,,,orange,circle
0.0,5.0,0.0,1.0,3.0,3.0,278.7878719973378,1.0,1.0,phase_1,,,,,,,,,,,,,white,I
25.0,5.0,0.5,1.0,3.0,3.0,336.8129121954553,1.0,1.0,phase_1,,,,,,,,,,,,,white,I
74.0,5.0,0.5,1.0,3.0,3.0,348.5634587705135,1.0,1.0,phase_1,,,,,,,,,,,,,white,I
28.0,1.0,0.5,0.0,3.0,3.0,303.6996579030528,1.0,1.0,phase_1,,,,,,,,,,,,,cyan,diamond
400.0,8.0,4.0,1.0,2.0,2.0,304.0194321656599,1.0,1.0,phase_1,,,,,,,,,,,,,blue,hexagon
60.0,1.0,0.5,0.0,1.0,1.0,295.2361520146951,1.0,1.0,phase_1,,,,,,,,,,,,,cyan,diamond
97.0,2.0,1.0,0.0,3.0,3.0,260.9322179341689,1.0,1.0,phase_1,,,,,,,,,,,,,green,triangle
378.0,8.0,4.0,1.0,4.0,4.0,284.6072762040421,1.0,1.0,phase_1,,,,,,,,,,,,,blue,hexagon
65.0,5.0,0.5,1.0,2.0,2.0,295.2736885636113,1.0,1.0,phase_1,,,,,,,,,,,,,white,I
55.0,1.0,0.5,0.0,4.0,4.0,306.7111304262653,1.0,1.0,phase_1,,,,,,,,,,,,,cyan,diamond
389.0,4.0,4.0,0.0,4.0,4.0,318.9170872792601,1.0,1.0,phase_1,,,,,,,,,,,,,gray,flipped triangle
0.0,8.0,0.0,1.0,2.0,2.0,307.762625045143,1.0,1.0,phase_1,,,,,,,,,,,,,blue,hexagon
125.0,6.0,1.0,1.0,3.0,3.0,286.559848987963,1.0,1.0,phase_1,,,,,,,,,,,,,magenta,cross
0.0,4.0,0.0,0.0,2.0,2.0,309.7231477149762,1.0,1.0,phase_1,,,,,,,,,,,,,gray,flipped triangle
405.0,4.0,4.0,0.0,3.0,3.0,344.0690201823599,1.0,1.0,phase_1,,,,,,,,,,,,,gray,flipped triangle
185.0,3.0,2.0,0.0,2.0,2.0,332.5111622107215,1.0,1.0,phase_1,,,,,,,,,,,,,yellow,square
0.0,7.0,0.0,1.0,4.0,4.0,323.2761267572641,1.0,1.0,phase_1,,,,,,,,,,,,,orange,circle
0.0,8.0,0.0,1.0,2.0,2.0,312.4690725235268,1.0,1.0,phase_1,,,,,,,,,,,,,blue,hexagon
381.0,8.0,4.0,1.0,1.0,1.0,278.3966826391406,1.0,1.0,phase_1,,,,,,,,,,,,,blue,hexagon
378.0,4.0,4.0,0.0,1.0,1.0,347.7412175270729,1.0,1.0,phase_1,,,,,,,,,,,,,gray,flipped triangle
98.0,2.0,1.0,0.0,1.0,1.0,335.1590322563424,1.0,1.0,phase_1,,,,,,,,,,,,,green,triangle
216.0,3.0,2.0,0.0,3.0,3.0,381.661135063041,1.0,1.0,phase_1,,,,,,,,,,,,,yellow,square
104.0,6.0,1.0,1.0,1.0,1.0,293.1555372197181,1.0,1.0,phase_1,,,,,,,,,,,,,magenta,cross
0.0,6.0,0.0,1.0,4.0,4.0,393.9149979851208,1.0,2.0,phase_1,,,,,,,,,,,,,magenta,cross
47.0,1.0,0.5,0.0,3.0,3.0,327.0283227902837,1.0,1.0,phase_1,,,,,,,,,,,,,cyan,diamond
223.0,7.0,2.0,1.0,2.0,2.0,328.8250172627158,1.0,1.0,phase_1,,,,,,,,,,,,,orange,circle
42.0,5.0,0.5,1.0,3.0,3.0,339.9240529979579,1.0,1.0,phase_1,,,,,,,,,,,,,white,I
68.0,5.0,0.5,1.0,4.0,4.0,363.9364784467034,1.0,1.0,phase_1,,,,,,,,,,,,,white,I
402.0,8.0,4.0,1.0,2.0,2.0,274.7002175310626,1.0,1.0,phase_1,,,,,,,,,,,,,blue,hexagon
216.0,3.0,2.0,0.0,1.0,1.0,318.0300787789747,1.0,1.0,phase_1,,,,,,,,,,,,,yellow,square
398.0,8.0,4.0,1.0,1.0,1.0,408.9259926695376,1.0,1.0,phase_1,,,,,,,,,,,,,blue,hexagon
405.0,8.0,4.0,1.0,1.0,1.0,0.1519849174655,1.0,1.0,phase_1,,,,,,,,,,,,,blue,hexagon
61.0,5.0,0.5,1.0,1.0,1.0,444.5514064282179,1.0,1.0,phase_1,,,,,,,,,,,,,white,I
63.0,1.0,0.5,0.0,2.0,2.0,345.0723160640336,1.0,1.0,phase_1,,,,,,,,,,,,,cyan,diamond
62.0,5.0,0.5,1.0,4.0,4.0,298.1379659031518,1.0,1.0,phase_1,,,,,,,,,,,,,white,I
0.0,1.0,0.0,0.0,4.0,4.0,344.4605491822585,1.0,1.0,phase_1,,,,,,,,,,,,,cyan,diamond
376.0,8.0,4.0,1.0,1.0,1.0,333.5231097298674,1.0,1.0,phase_1,,,,,,,,,,,,,blue,hexagon
386.0,8.0,4.0,1.0,2.0,2.0,322.5518656545318,1.0,1.0,phase_1,,,,,,,,,,,,,blue,hexagon
217.0,7.0,2.0,1.0,4.0,4.0,346.158423286397,1.0,1.0,phase_1,,,,,,,,,,,,,orange,circle
0.0,8.0,0.0,1.0,3.0,3.0,290.9636889235116,1.0,2.0,phase_1,,,,,,,,,,,,,blue,hexagon
98.0,6.0,1.0,1.0,3.0,3.0,337.7843158086762,2.0,1.0,phase_1,,,,,,,,,,,,,magenta,cross
402.0,8.0,4.0,1.0,4.0,4.0,373.9528596634045,2.0,1.0,phase_1,,,,,,,,,,,,,blue,hexagon
27.0,1.0,0.5,0.0,4.0,4.0,363.0725138937123,2.0,1.0,phase_1,,,,,,,,,,,,,cyan,diamond
77.0,2.0,1.0,0.0,2.0,2.0,284.6877782139927,2.0,1.0,phase_1,,,,,,,,,,,,,green,triangle
396.0,8.0,4.0,1.0,4.0,4.0,264.1634694300592,2.0,1.0,phase_1,,,,,,,,,,,,,blue,hexagon
103.0,2.0,1.0,0.0,1.0,1.0,296.6671114554629,2.0,1.0,phase_1,,,,,,,,,,,,,green,triangle
0.0,6.0,0.0,1.0,3.0,3.0,286.3995406660251,2.0,1.0,phase_1,,,,,,,,,,,,,magenta,cross
113.0,2.0,1.0,0.0,2.0,2.0,288.0015530390665,2.0,1.0,phase_1,,,,,,,,,,,,,green,triangle
178.0,3.0,2.0,0.0,4.0,4.0,298.3836576458998,2.0,1.0,phase_1,,,,,,,,,,,,,yellow,square
185.0,3.0,2.0,0.0,3.0,3.0,288.1880965433083,2.0,1.0,phase_1,,,,,,,,,,,,,yellow,square
212.0,7.0,2.0,1.0,2.0,2.0,277.8793578036129,2.0,1.0,phase_1,,,,,,,,,,,,,orange,circle
97.0,6.0,1.0,1.0,4.0,4.0,300.9005911881104,2.0,1.0,phase_1,,,,,,,,,,,,,magenta,cross
97.0,2.0,1.0,0.0,1.0,1.0,290.2388153015636,2.0,1.0,phase_1,,,,,,,,,,,,,green,triangle
195.0,3.0,2.0,0.0,4.0,4.0,313.3428454748355,2.0,1.0,phase_1,,,,,,,,,,,,,yellow,square
87.0,6.0,1.0,1.0,3.0,3.0,289.5811618072912,2.0,1.0,phase_1,,,,,,,,,,,,,magenta,cross
93.0,6.0,1.0,1.0,3.0,3.0,301.7913624062203,2.0,1.0,phase_1,,,,,,,,,,,,,magenta,cross
0.0,2.0,0.0,0.0,4.0,4.0,291.3088622735813,2.0,1.0,phase_1,,,,,,,,,,,,,green,triangle
0.0,7.0,0.0,1.0,2.0,2.0,325.2630645292811,2.0,1.0,phase_1,,,,,,,,,,,,,orange,circle
0.0,3.0,0.0,0.0,2.0,2.0,316.4798710495233,2.0,1.0,phase_1,,,,,,,,,,,,,yellow,square
116.0,6.0,1.0,1.0,2.0,2.0,303.9052881649695,2.0,1.0,phase_1,,,,,,,,,,,,,magenta,cross
60.0,1.0,0.5,0.0,4.0,4.0,282.2941687772982,2.0,1.0,phase_1,,,,,,,,,,,,,cyan,diamond
27.0,5.0,0.5,1.0,4.0,4.0,294.50191691285,2.0,1.0,phase_1,,,,,,,,,,,,,white,I
386.0,4.0,4.0,0.0,4.0,4.0,294.5499694906175,2.0,1.0,phase_1,,,,,,,,,,,,,gray,flipped triangle
181.0,7.0,2.0,1.0,2.0,2.0,284.2305134399794,2.0,1.0,phase_1,,,,,,,,,,,,,orange,circle
219.0,3.0,2.0,0.0,3.0,3.0,331.0304639744572,2.0,2.0,phase_1,,,,,,,,,,,,,yellow,square
0.0,1.0,0.0,0.0,2.0,2.0,341.9570202822797,2.0,1.0,phase_1,,,,,,,,,,,,,cyan,diamond
0.0,5.0,0.0,1.0,1.0,1.0,376.2527267099358,2.0,2.0,phase_1,,,,,,,,,,,,,white,I
181.0,3.0,2.0,0.0,2.0,2.0,411.9803117355332,2.0,1.0,phase_1,,,,,,,,,,,,,yellow,square
208.0,3.0,2.0,0.0,4.0,4.0,309.6059808740392,2.0,1.0,phase_1,,,,,,,,,,,,,yellow,square
62.0,5.0,0.5,1.0,1.0,1.0,333.7053927243687,2.0,1.0,phase_1,,,,,,,,,,,,,white,I
91.0,2.0,1.0,0.0,2.0,2.0,277.6653979090042,2.0,1.0,phase_1,,,,,,,,,,,,,green,triangle
47.0,5.0,0.5,1.0,2.0,2.0,324.6774162398651,2.0,1.0,phase_1,,,,,,,,,,,,,white,I
117.0,2.0,1.0,0.0,4.0,4.0,312.3700522701256,2.0,1.0,phase_1,,,,,,,,,,,,,green,triangle
60.0,5.0,0.5,1.0,1.0,1.0,325.6232361891307,2.0,1.0,phase_1,,,,,,,,,,,,,white,I
116.0,2.0,1.0,0.0,4.0,4.0,314.7312219953164,2.0,1.0,phase_1,,,,,,,,,,,,,green,triangle
0.0,2.0,0.0,0.0,4.0,4.0,358.5748914047144,2.0,1.0,phase_1,,,,,,,,,,,,,green,triangle
402.0,4.0,4.0,0.0,4.0,4.0,349.631865741685,2.0,1.0,phase_1,,,,,,,,,,,,,gray,flipped triangle
87.0,2.0,1.0,0.0,3.0,3.0,336.6673292475752,2.0,1.0,phase_1,,,,,,,,,,,,,green,triangle
0.0,2.0,0.0,0.0,1.0,1.0,271.2859562016092,2.0,1.0,phase_1,,,,,,,,,,,,,green,triangle
52.0,1.0,0.5,0.0,1.0,1.0,328.2586808782071,2.0,1.0,phase_1,,,,,,,,,,,,,cyan,diamond
0.0,5.0,0.0,1.0,3.0,3.0,350.3970157471485,2.0,1.0,phase_1,,,,,,,,,,,,,white,I
400.0,4.0,4.0,0.0,4.0,4.0,317.0122856972739,2.0,1.0,phase_1,,,,,,,,,,,,,gray,flipped triangle
415.0,8.0,4.0,1.0,3.0,3.0,362.8696833038702,2.0,1.0,phase_1,,,,,,,,,,,,,blue,hexagon
36.0,1.0,0.5,0.0,2.0,2.0,318.6092541436665,2.0,1.0,phase_1,,,,,,,,,,,,,cyan,diamond
205.0,3.0,2.0,0.0,3.0,3.0,297.2228839644231,2.0,1.0,phase_1,,,,,,,,,,,,,yellow,square
0.0,3.0,0.0,0.0,4.0,4.0,285.87692551082,2.0,1.0,phase_1,,,,,,,,,,,,,yellow,square
47.0,1.0,0.5,0.0,3.0,3.0,287.1607816778123,2.0,1.0,phase_1,,,,,,,,,,,,,cyan,diamond
97.0,6.0,1.0,1.0,1.0,1.0,321.0179274319671,2.0,1.0,phase_1,,,,,,,,,,,,,magenta,cross
212.0,3.0,2.0,0.0,2.0,2.0,309.6343236393295,2.0,1.0,phase_1,,,,,,,,,,,,,yellow,square
52.0,5.0,0.5,1.0,3.0,3.0,300.3666347940452,2.0,1.0,phase_1,,,,,,,,,,,,,white,I
92.0,2.0,1.0,0.0,3.0,3.0,345.3879132866859,2.0,1.0,phase_1,,,,,,,,,,,,,green,triangle
80.0,2.0,1.0,0.0,2.0,2.0,288.4799448656849,2.0,1.0,phase_1,,,,,,,,,,,,,green,triangle
0.0,5.0,0.0,1.0,4.0,4.0,278.7058665417135,2.0,1.0,phase_1,,,,,,,,,,,,,white,I
0.0,7.0,0.0,1.0,2.0,2.0,279.3630438973196,2.0,1.0,phase_1,,,,,,,,,,,,,orange,circle
0.0,1.0,0.0,0.0,4.0,4.0,292.1422227518633,2.0,1.0,phase_1,,,,,,,,,,,,,cyan,diamond
47.0,1.0,0.5,0.0,2.0,2.0,291.5434042806737,2.0,1.0,phase_1,,,,,,,,,,,,,cyan,diamond
36.0,5.0,0.5,1.0,1.0,1.0,293.1498199468478,2.0,1.0,phase_1,,,,,,,,,,,,,white,I
109.0,6.0,1.0,1.0,2.0,2.0,326.9790154881775,2.0,1.0,phase_1,,,,,,,,,,,,,magenta,cross
205.0,7.0,2.0,1.0,4.0,4.0,393.9448070013895,2.0,1.0,phase_1,,,,,,,,,,,,,orange,circle
0.0,7.0,0.0,1.0,2.0,2.0,270.7623139140196,2.0,1.0,phase_1,,,,,,,,,,,,,orange,circle
408.0,4.0,4.0,0.0,4.0,4.0,317.3701630439609,2.0,1.0,phase_1,,,,,,,,,,,,,gray,flipped triangle
183.0,3.0,2.0,0.0,1.0,1.0,272.3023977596313,2.0,1.0,phase_1,,,,,,,,,,,,,yellow,square
92.0,6.0,1.0,1.0,2.0,2.0,317.1438812278211,2.0,1.0,phase_1,,,,,,,,,,,,,magenta,cross
216.0,7.0,2.0,1.0,2.0,2.0,329.8891615122556,2.0,1.0,phase_1,,,,,,,,,,,,,orange,circle
402.0,4.0,4.0,0.0,2.0,2.0,296.3732546777464,2.0,1.0,phase_1,,,,,,,,,,,,,gray,flipped triangle
30.0,1.0,0.5,0.0,2.0,2.0,296.3605962577276,2.0,1.0,phase_1,,,,,,,,,,,,,cyan,diamond
107.0,2.0,1.0,0.0,4.0,4.0,307.9308575252071,2.0,1.0,phase_1,,,,,,,,,,,,,green,triangle
70.0,5.0,0.5,1.0,1.0,1.0,309.2586589627899,2.0,1.0,phase_1,,,,,,,,,,,,,white,I
0.0,3.0,0.0,0.0,3.0,3.0,321.3777018827386,2.0,1.0,phase_1,,,,,,,,,,,,,yellow,square
0.0,8.0,0.0,1.0,3.0,3.0,320.8475747960619,2.0,1.0,phase_1,,,,,,,,,,,,,blue,hexagon
422.0,8.0,4.0,1.0,4.0,4.0,276.5989665058441,2.0,1.0,phase_1,,,,,,,,,,,,,blue,hexagon
405.0,4.0,4.0,0.0,3.0,3.0,321.8633984797634,2.0,1.0,phase_1,,,,,,,,,,,,,gray,flipped triangle
420.0,8.0,4.0,1.0,1.0,1.0,289.937513647601,2.0,2.0,phase_1,,,,,,,,,,,,,blue,hexagon
121.0,6.0,1.0,1.0,4.0,4.0,393.5849539120681,2.0,1.0,phase_1,,,,,,,,,,,,,magenta,cross
0.0,5.0,0.0,1.0,2.0,2.0,381.4595717121847,2.0,1.0,phase_1,,,,,,,,,,,,,white,I
194.0,7.0,2.0,1.0,4.0,4.0,259.3841216294095,2.0,1.0,phase_1,,,,,,,,,,,,,orange,circle
415.0,4.0,4.0,0.0,4.0,4.0,349.3716879165731,2.0,1.0,phase_1,,,,,,,,,,,,,gray,flipped triangle
0.0,3.0,0.0,0.0,4.0,4.0,360.2024916908704,2.0,1.0,phase_1,,,,,,,,,,,,,yellow,square
397.0,8.0,4.0,1.0,3.0,3.0,337.8005170379765,2.0,1.0,phase_1,,,,,,,,,,,,,blue,hexagon
0.0,1.0,0.0,0.0,4.0,4.0,576.5172344399616,2.0,1.0,phase_1,,,,,,,,,,,,,cyan,diamond
424.0,8.0,4.0,1.0,4.0,4.0,406.8240709020756,2.0,2.0,phase_1,,,,,,,,,,,,,blue,hexagon
398.0,4.0,4.0,0.0,1.0,1.0,364.6600568899885,2.0,1.0,phase_1,,,,,,,,,,,,,gray,flipped triangle
107.0,6.0,1.0,1.0,2.0,2.0,476.5563554828986,2.0,1.0,phase_1,,,,,,,,,,,,,magenta,cross
214.0,3.0,2.0,0.0,2.0,2.0,354.2445572675206,2.0,1.0,phase_1,,,,,,,,,,,,,yellow,square
31.0,1.0,0.5,0.0,4.0,4.0,353.9891412947327,2.0,1.0,phase_1,,,,,,,,,,,,,cyan,diamond
124.0,6.0,1.0,1.0,2.0,2.0,364.6489447564818,2.0,1.0,phase_1,,,,,,,,,,,,,magenta,cross
0.0,6.0,0.0,1.0,2.0,2.0,399.5178807526827,2.0,1.0,phase_1,,,,,,,,,,,,,magenta,cross
409.0,4.0,4.0,0.0,1.0,1.0,334.6056400914676,2.0,2.0,phase_1,,,,,,,,,,,,,gray,flipped triangle
185.0,7.0,2.0,1.0,3.0,3.0,355.9198090224527,2.0,1.0,phase_1,,,,,,,,,,,,,orange,circle
410.0,8.0,4.0,1.0,4.0,4.0,389.7665169206448,2.0,1.0,phase_1,,,,,,,,,,,,,blue,hexagon
381.0,4.0,4.0,0.0,2.0,2.0,357.1888036676682,2.0,1.0,phase_1,,,,,,,,,,,,,gray,flipped triangle
206.0,7.0,2.0,1.0,1.0,1.0,357.8949859365821,2.0,1.0,phase_1,,,,,,,,,,,,,orange,circle
422.0,4.0,4.0,0.0,4.0,4.0,290.9645577310584,2.0,1.0,phase_1,,,,,,,,,,,,,gray,flipped triangle
380.0,4.0,4.0,0.0,1.0,1.0,291.4282777928747,2.0,1.0,phase_1,,,,,,,,,,,,,gray,flipped triangle
0.0,8.0,0.0,1.0,1.0,1.0,303.5933167557232,2.0,1.0,phase_1,,,,,,,,,,,,,blue,hexagon
419.0,8.0,4.0,1.0,2.0,2.0,370.8396746660582,2.0,1.0,phase_1,,,,,,,,,,,,,blue,hexagon
0.0,7.0,0.0,1.0,2.0,2.0,315.6115394085645,2.0,1.0,phase_1,,,,,,,,,,,,,orange,circle
187.0,7.0,2.0,1.0,1.0,1.0,260.4889004142023,2.0,1.0,phase_1,,,,,,,,,,,,,orange,circle
0.0,4.0,0.0,0.0,1.0,1.0,295.8168459590524,2.0,1.0,phase_1,,,,,,,,,,,,,gray,flipped triangle
78.0,6.0,1.0,1.0,1.0,1.0,283.0913766520098,2.0,1.0,phase_1,,,,,,,,,,,,,magenta,cross
117.0,6.0,1.0,1.0,4.0,4.0,376.3053031871095,3.0,1.0,phase_1,,,,,,,,,,,,,magenta,cross
69.0,1.0,0.5,0.0,1.0,1.0,276.0360059328377,3.0,1.0,phase_1,,,,,,,,,,,,,cyan,diamond
390.0,8.0,4.0,1.0,1.0,1.0,321.1068089003674,3.0,1.0,phase_1,,,,,,,,,,,,,blue,hexagon
378.0,8.0,4.0,1.0,4.0,4.0,323.4320536721498,3.0,1.0,phase_1,,,,,,,,,,,,,blue,hexagon
0.0,1.0,0.0,0.0,3.0,3.0,345.069000555668,3.0,1.0,phase_1,,,,,,,,,,,,,cyan,diamond
121.0,2.0,1.0,0.0,4.0,4.0,369.3446972756646,3.0,1.0,phase_1,,,,,,,,,,,,,green,triangle
44.0,5.0,0.5,1.0,1.0,1.0,347.9109690524637,3.0,1.0,phase_1,,,,,,,,,,,,,white,I
0.0,3.0,0.0,0.0,4.0,4.0,347.0276915468275,3.0,1.0,phase_1,,,,,,,,,,,,,yellow,square
418.0,8.0,4.0,1.0,2.0,2.0,292.726666375529,3.0,1.0,phase_1,,,,,,,,,,,,,blue,hexagon
66.0,1.0,0.5,0.0,2.0,2.0,303.5036017536185,3.0,1.0,phase_1,,,,,,,,,,,,,cyan,diamond
189.0,7.0,2.0,1.0,4.0,4.0,372.1061573014594,3.0,1.0,phase_1,,,,,,,,,,,,,orange,circle
90.0,6.0,1.0,1.0,2.0,2.0,349.5729514979757,3.0,1.0,phase_1,,,,,,,,,,,,,magenta,cross
379.0,8.0,4.0,1.0,3.0,3.0,338.7768479296937,3.0,1.0,phase_1,,,,,,,,,,,,,blue,hexagon
44.0,1.0,0.5,0.0,1.0,1.0,295.5512892222032,3.0,1.0,phase_1,,,,,,,,,,,,,cyan,diamond
75.0,6.0,1.0,1.0,3.0,3.0,338.6590941809118,3.0,1.0,phase_1,,,,,,,,,,,,,magenta,cross
204.0,7.0,2.0,1.0,3.0,3.0,384.367122547701,3.0,1.0,phase_1,,,,,,,,,,,,,orange,circle
421.0,4.0,4.0,0.0,3.0,3.0,430.8898206218146,3.0,1.0,phase_1,,,,,,,,,,,,,gray,flipped triangle
91.0,6.0,1.0,1.0,1.0,1.0,399.0634834626689,3.0,1.0,phase_1,,,,,,,,,,,,,magenta,cross
0.0,1.0,0.0,0.0,2.0,2.0,377.0535091753118,3.0,1.0,phase_1,,,,,,,,,,,,,cyan,diamond
175.0,3.0,2.0,0.0,2.0,2.0,377.5020576431416,3.0,1.0,phase_1,,,,,,,,,,,,,yellow,square
0.0,3.0,0.0,0.0,2.0,2.0,355.2294652326964,3.0,1.0,phase_1,,,,,,,,,,,,,yellow,square
36.0,5.0,0.5,1.0,2.0,2.0,400.5529336864128,3.0,1.0,phase_1,,,,,,,,,,,,,white,I
193.0,3.0,2.0,0.0,3.0,3.0,435.0522850872949,3.0,1.0,phase_1,,,,,,,,,,,,,yellow,square
0.0,7.0,0.0,1.0,2.0,2.0,333.4723017178476,3.0,1.0,phase_1,,,,,,,,,,,,,orange,circle
413.0,4.0,4.0,0.0,3.0,3.0,513.4705886011943,3.0,1.0,phase_1,,,,,,,,,,,,,gray,flipped triangle
66.0,5.0,0.5,1.0,2.0,2.0,423.8239073893055,3.0,1.0,phase_1,,,,,,,,,,,,,white,I
61.0,1.0,0.5,0.0,2.0,2.0,379.6365386224352,3.0,1.0,phase_1,,,,,,,,,,,,,cyan,diamond
61.0,1.0,0.5,0.0,4.0,4.0,312.1376726776361,3.0,1.0,phase_1,,,,,,,,,,,,,cyan,diamond
410.0,4.0,4.0,0.0,3.0,3.0,301.2743904837407,3.0,1.0,phase_1,,,,,,,,,,,,,gray,flipped triangle
85.0,6.0,1.0,1.0,1.0,1.0,291.55143804382527,3.0,1.0,phase_1,,,,,,,,,,,,,magenta,cross
405.0,8.0,4.0,1.0,4.0,4.0,303.9630290586501,3.0,1.0,phase_1,,,,,,,,,,,,,blue,hexagon
107.0,2.0,1.0,0.0,2.0,2.0,315.0134434690699,3.0,1.0,phase_1,,,,,,,,,,,,,green,triangle
0.0,6.0,0.0,1.0,3.0,3.0,305.527162796352,3.0,1.0,phase_1,,,,,,,,,,,,,magenta,cross
380.0,4.0,4.0,0.0,2.0,2.0,315.7740096794441,3.0,1.0,phase_1,,,,,,,,,,,,,gray,flipped triangle
62.0,1.0,0.5,0.0,2.0,2.0,306.4025956555269,3.0,1.0,phase_1,,,,,,,,,,,,,cyan,diamond
0.0,4.0,0.0,0.0,2.0,2.0,330.2149028750136,3.0,1.0,phase_1,,,,,,,,,,,,,gray,flipped triangle
380.0,8.0,4.0,1.0,3.0,3.0,431.5854848828167,3.0,1.0,phase_1,,,,,,,,,,,,,blue,hexagon
113.0,6.0,1.0,1.0,1.0,1.0,308.1419490044936,3.0,1.0,phase_1,,,,,,,,,,,,,magenta,cross
410.0,4.0,4.0,0.0,2.0,2.0,296.444213076029,3.0,1.0,phase_1,,,,,,,,,,,,,gray,flipped triangle
36.0,1.0,0.5,0.0,4.0,4.0,319.6718480321578,3.0,1.0,phase_1,,,,,,,,,,,,,cyan,diamond
85.0,2.0,1.0,0.0,3.0,3.0,342.2230249852873,3.0,1.0,phase_1,,,,,,,,,,,,,green,triangle
103.0,6.0,1.0,1.0,2.0,2.0,331.3082120148465,3.0,1.0,phase_1,,,,,,,,,,,,,magenta,cross
121.0,2.0,1.0,0.0,1.0,1.0,287.6330952858552,3.0,1.0,phase_1,,,,,,,,,,,,,green,triangle
85.0,2.0,1.0,0.0,3.0,3.0,298.5957982600666,3.0,1.0,phase_1,,,,,,,,,,,,,green,triangle
0.0,4.0,0.0,0.0,1.0,1.0,233.2740824786014,3.0,1.0,phase_1,,,,,,,,,,,,,gray,flipped triangle
0.0,5.0,0.0,1.0,1.0,1.0,279.5521101797931,3.0,1.0,phase_1,,,,,,,,,,,,,white,I
0.0,8.0,0.0,1.0,3.0,3.0,380.3922897786833,3.0,1.0,phase_1,,,,,,,,,,,,,blue,hexagon
0.0,7.0,0.0,1.0,3.0,3.0,391.7121642734855,3.0,1.0,phase_1,,,,,,,,,,,,,orange,circle
0.0,3.0,0.0,0.0,4.0,4.0,325.4031217657029,3.0,1.0,phase_1,,,,,,,,,,,,,yellow,square
197.0,7.0,2.0,1.0,1.0,1.0,281.2947372440249,3.0,1.0,phase_1,,,,,,,,,,,,,orange,circle
52.0,1.0,0.5,0.0,3.0,3.0,313.9883687254041,3.0,1.0,phase_1,,,,,,,,,,,,,cyan,diamond
203.0,7.0,2.0,1.0,3.0,3.0,314.6867298637517,3.0,1.0,phase_1,,,,,,,,,,,,,orange,circle
188.0,3.0,2.0,0.0,4.0,4.0,280.8264597551897,3.0,1.0,phase_1,,,,,,,,,,,,,yellow,square
114.0,6.0,1.0,1.0,4.0,4.0,270.0380407040939,3.0,1.0,phase_1,,,,,,,,,,,,,magenta,cross
77.0,6.0,1.0,1.0,2.0,2.0,296.2064719176851,3.0,2.0,phase_1,,,,,,,,,,,,,magenta,cross
28.0,5.0,0.5,1.0,2.0,2.0,317.6347685512155,3.0,1.0,phase_1,,,,,,,,,,,,,white,I
0.0,4.0,0.0,0.0,3.0,3.0,318.5021852841601,3.0,1.0,phase_1,,,,,,,,,,,,,gray,flipped triangle
212.0,3.0,2.0,0.0,2.0,2.0,296.462845231872,3.0,1.0,phase_1,,,,,,,,,,,,,yellow,square
30.0,1.0,0.5,0.0,2.0,2.0,253.00250301370392,3.0,1.0,phase_1,,,,,,,,,,,,,cyan,diamond
421.0,8.0,4.0,1.0,3.0,3.0,286.915555014275,3.0,1.0,phase_1,,,,,,,,,,,,,blue,hexagon
413.0,4.0,4.0,0.0,1.0,1.0,331.9951944286003,3.0,1.0,phase_1,,,,,,,,,,,,,gray,flipped triangle
91.0,6.0,1.0,1.0,3.0,3.0,298.6699279281311,3.0,1.0,phase_1,,,,,,,,,,,,,magenta,cross
37.0,1.0,0.5,0.0,3.0,3.0,309.27055230131367,3.0,1.0,phase_1,,,,,,,,,,,,,cyan,diamond
223.0,7.0,2.0,1.0,2.0,2.0,333.7727436446585,3.0,1.0,phase_1,,,,,,,,,,,,,orange,circle
195.0,7.0,2.0,1.0,4.0,4.0,324.5082772918977,3.0,2.0,phase_1,,,,,,,,,,,,,orange,circle
77.0,6.0,1.0,1.0,4.0,4.0,267.7989855292253,3.0,1.0,phase_1,,,,,,,,,,,,,magenta,cross
398.0,8.0,4.0,1.0,3.0,3.0,414.5545422798022,3.0,1.0,phase_1,,,,,,,,,,,,,blue,hexagon
203.0,3.0,2.0,0.0,3.0,3.0,335.9670332865789,3.0,1.0,phase_1,,,,,,,,,,,,,yellow,square
199.0,3.0,2.0,0.0,4.0,4.0,348.898527037818,3.0,1.0,phase_1,,,,,,,,,,,,,yellow,square
113.0,6.0,1.0,1.0,4.0,4.0,314.6407639724202,3.0,2.0,phase_1,,,,,,,,,,,,,magenta,cross
72.0,1.0,0.5,0.0,3.0,3.0,338.5119989397935,3.0,1.0,phase_1,,,,,,,,,,,,,cyan,diamond
189.0,3.0,2.0,0.0,1.0,1.0,361.6976347402669,3.0,2.0,phase_1,,,,,,,,,,,,,yellow,square
0.0,2.0,0.0,0.0,4.0,4.0,328.4697001799941,3.0,1.0,phase_1,,,,,,,,,,,,,green,triangle
0.0,1.0,0.0,0.0,2.0,2.0,329.9687840044498,3.0,1.0,phase_1,,,,,,,,,,,,,cyan,diamond
190.0,7.0,2.0,1.0,1.0,1.0,340.5377998715266,3.0,1.0,phase_1,,,,,,,,,,,,,orange,circle
0.0,6.0,0.0,1.0,2.0,2.0,409.1570629389025,3.0,1.0,phase_1,,,,,,,,,,,,,magenta,cross
30.0,5.0,0.5,1.0,4.0,4.0,307.4069742579013,3.0,1.0,phase_1,,,,,,,,,,,,,white,I
99.0,6.0,1.0,1.0,1.0,1.0,342.170005722437,3.0,1.0,phase_1,,,,,,,,,,,,,magenta,cross
0.0,6.0,0.0,1.0,1.0,1.0,343.3533041970804,3.0,1.0,phase_1,,,,,,,,,,,,,magenta,cross
65.0,1.0,0.5,0.0,3.0,3.0,354.53362489352,3.0,1.0,phase_1,,,,,,,,,,,,,cyan,diamond
222.0,7.0,2.0,1.0,3.0,3.0,366.9377076439559,3.0,1.0,phase_1,,,,,,,,,,,,,orange,circle
421.0,8.0,4.0,1.0,2.0,2.0,322.3996473825536,3.0,1.0,phase_1,,,,,,,,,,,,,blue,hexagon
125.0,2.0,1.0,0.0,1.0,1.0,368.9215741469525,3.0,1.0,phase_1,,,,,,,,,,,,,green,triangle
0.0,5.0,0.0,1.0,2.0,2.0,336.3891817280091,3.0,1.0,phase_1,,,,,,,,,,,,,white,I
207.0,7.0,2.0,1.0,2.0,2.0,302.7813758817501,3.0,1.0,phase_1,,,,,,,,,,,,,orange,circle
114.0,2.0,1.0,0.0,3.0,3.0,313.6138545232825,3.0,1.0,phase_1,,,,,,,,,,,,,green,triangle
75.0,6.0,1.0,1.0,1.0,1.0,370.0612877146341,3.0,1.0,phase_1,,,,,,,,,,,,,magenta,cross
189.0,3.0,2.0,0.0,4.0,4.0,313.8295001699589,3.0,1.0,phase_1,,,,,,,,,,,,,yellow,square
75.0,2.0,1.0,0.0,1.0,1.0,303.8375789183192,3.0,1.0,phase_1,,,,,,,,,,,,,green,triangle
0.0,3.0,0.0,0.0,2.0,2.0,282.438569527585,3.0,1.0,phase_1,,,,,,,,,,,,,yellow,square
113.0,2.0,1.0,0.0,4.0,4.0,294.1111900145188,3.0,1.0,phase_1,,,,,,,,,,,,,green,triangle
193.0,7.0,2.0,1.0,3.0,3.0,451.9806177122518,3.0,1.0,phase_1,,,,,,,,,,,,,orange,circle
398.0,4.0,4.0,0.0,1.0,1.0,440.6673354678787,3.0,1.0,phase_1,,,,,,,,,,,,,gray,flipped triangle
69.0,5.0,0.5,1.0,4.0,4.0,328.9753766730428,3.0,1.0,phase_1,,,,,,,,,,,,,white,I
408.0,8.0,4.0,1.0,4.0,4.0,329.7728885081596,3.0,1.0,phase_1,,,,,,,,,,,,,blue,hexagon
418.0,4.0,4.0,0.0,2.0,2.0,376.24239170691,3.0,1.0,phase_1,,,,,,,,,,,,,gray,flipped triangle
104.0,2.0,1.0,0.0,3.0,3.0,330.2505472674966,3.0,1.0,phase_1,,,,,,,,,,,,,green,triangle
0.0,2.0,0.0,0.0,3.0,3.0,307.8743824153207,3.0,1.0,phase_1,,,,,,,,,,,,,green,triangle
0.0,3.0,0.0,0.0,1.0,1.0,354.1336887865327,3.0,1.0,phase_1,,,,,,,,,,,,,yellow,square
0.0,7.0,0.0,1.0,2.0,2.0,309.0217646677047,3.0,1.0,phase_1,,,,,,,,,,,,,orange,circle
63.0,1.0,0.5,0.0,2.0,2.0,399.3744355393573,4.0,1.0,phase_1,,,,,,,,,,,,,cyan,diamond
222.0,3.0,2.0,0.0,4.0,4.0,344.2560108378529,4.0,1.0,phase_1,,,,,,,,,,,,,yellow,square
0.0,1.0,0.0,0.0,3.0,3.0,333.8548467145301,4.0,1.0,phase_1,,,,,,,,,,,,,cyan,diamond
74.0,1.0,0.5,0.0,4.0,4.0,357.0437324233353,4.0,1.0,phase_1,,,,,,,,,,,,,cyan,diamond
190.0,3.0,2.0,0.0,1.0,1.0,358.0787784303538,4.0,1.0,phase_1,,,,,,,,,,,,,yellow,square
118.0,6.0,1.0,1.0,3.0,3.0,311.8462617276236,4.0,1.0,phase_1,,,,,,,,,,,,,magenta,cross
386.0,8.0,4.0,1.0,2.0,2.0,358.7625796790235,4.0,1.0,phase_1,,,,,,,,,,,,,blue,hexagon
0.0,6.0,0.0,1.0,1.0,1.0,336.9473782950081,4.0,1.0,phase_1,,,,,,,,,,,,,magenta,cross
193.0,7.0,2.0,1.0,3.0,3.0,371.2937009404413,4.0,1.0,phase_1,,,,,,,,,,,,,orange,circle
0.0,2.0,0.0,0.0,2.0,2.0,327.2932794643566,4.0,1.0,phase_1,,,,,,,,,,,,,green,triangle
0.0,8.0,0.0,1.0,1.0,1.0,372.0333390519954,4.0,1.0,phase_1,,,,,,,,,,,,,blue,hexagon
175.0,7.0,2.0,1.0,4.0,4.0,382.9232142888941,4.0,1.0,phase_1,,,,,,,,,,,,,orange,circle
0.0,7.0,0.0,1.0,1.0,1.0,349.4903337559663,4.0,1.0,phase_1,,,,,,,,,,,,,orange,circle
55.0,5.0,0.5,1.0,4.0,4.0,384.8232922609895,4.0,1.0,phase_1,,,,,,,,,,,,,white,I
223.0,3.0,2.0,0.0,1.0,1.0,350.3536150092259,4.0,1.0,phase_1,,,,,,,,,,,,,yellow,square
107.0,2.0,1.0,0.0,2.0,2.0,340.6033107894473,4.0,1.0,phase_1,,,,,,,,,,,,,green,triangle
223.0,3.0,2.0,0.0,2.0,2.0,351.6444716369733,4.0,1.0,phase_1,,,,,,,,,,,,,yellow,square
196.0,7.0,2.0,1.0,3.0,3.0,511.0655319876969,4.0,1.0,phase_1,,,,,,,,,,,,,orange,circle
70.0,1.0,0.5,0.0,1.0,1.0,264.07291716896,4.0,1.0,phase_1,,,,,,,,,,,,,cyan,diamond
96.0,2.0,1.0,0.0,4.0,4.0,309.1344221611507,4.0,1.0,phase_1,,,,,,,,,,,,,green,triangle
85.0,6.0,1.0,1.0,3.0,3.0,320.4274963936768,4.0,1.0,phase_1,,,,,,,,,,,,,magenta,cross
0.0,4.0,0.0,0.0,2.0,2.0,332.1512059192173,4.0,1.0,phase_1,,,,,,,,,,,,,gray,flipped triangle
396.0,4.0,4.0,0.0,3.0,3.0,322.6369664771482,4.0,1.0,phase_1,,,,,,,,,,,,,gray,flipped triangle
62.0,1.0,0.5,0.0,4.0,4.0,299.3918057763949,4.0,1.0,phase_1,,,,,,,,,,,,,cyan,diamond
96.0,6.0,1.0,1.0,2.0,2.0,346.8203003867529,4.0,1.0,phase_1,,,,,,,,,,,,,magenta,cross
378.0,8.0,4.0,1.0,1.0,1.0,302.5027854018844,4.0,1.0,phase_1,,,,,,,,,,,,,blue,hexagon
180.0,7.0,2.0,1.0,2.0,2.0,312.9185215220786,4.0,1.0,phase_1,,,,,,,,,,,,,orange,circle
90.0,2.0,1.0,0.0,3.0,3.0,325.3925680764951,4.0,1.0,phase_1,,,,,,,,,,,,,green,triangle
188.0,7.0,2.0,1.0,1.0,1.0,302.7669854345731,4.0,1.0,phase_1,,,,,,,,,,,,,orange,circle
207.0,3.0,2.0,0.0,1.0,1.0,382.2312646661885,4.0,1.0,phase_1,,,,,,,,,,,,,yellow,square
0.0,4.0,0.0,0.0,4.0,4.0,325.0436660018749,4.0,1.0,phase_1,,,,,,,,,,,,,gray,flipped triangle
417.0,4.0,4.0,0.0,1.0,1.0,326.1213205405511,4.0,1.0,phase_1,,,,,,,,,,,,,gray,flipped triangle
399.0,4.0,4.0,0.0,3.0,3.0,359.8992721526883,4.0,1.0,phase_1,,,,,,,,,,,,,gray,flipped triangle
43.0,5.0,0.5,1.0,4.0,4.0,372.5741888047196,4.0,1.0,phase_1,,,,,,,,,,,,,white,I
417.0,8.0,4.0,1.0,4.0,4.0,316.0950491437688,4.0,1.0,phase_1,,,,,,,,,,,,,blue,hexagon
204.0,3.0,2.0,0.0,1.0,1.0,363.3494005189277,4.0,1.0,phase_1,,,,,,,,,,,,,yellow,square
216.0,7.0,2.0,1.0,1.0,1.0,330.4155346704647,4.0,1.0,phase_1,,,,,,,,,,,,,orange,circle
55.0,1.0,0.5,0.0,1.0,1.0,318.5927824815735,4.0,1.0,phase_1,,,,,,,,,,,,,cyan,diamond
106.0,2.0,1.0,0.0,2.0,2.0,318.6844017473049,4.0,1.0,phase_1,,,,,,,,,,,,,green,triangle
89.0,6.0,1.0,1.0,4.0,4.0,319.796445663087,4.0,1.0,phase_1,,,,,,,,,,,,,magenta,cross
52.0,5.0,0.5,1.0,3.0,3.0,331.7760715144686,4.0,1.0,phase_1,,,,,,,,,,,,,white,I
124.0,2.0,1.0,0.0,4.0,4.0,332.223117002286,4.0,1.0,phase_1,,,,,,,,,,,,,green,triangle
398.0,8.0,4.0,1.0,3.0,3.0,287.4015767592937,4.0,1.0,phase_1,,,,,,,,,,,,,blue,hexagon
193.0,3.0,2.0,0.0,3.0,3.0,311.4811687264591,4.0,1.0,phase_1,,,,,,,,,,,,,yellow,square
189.0,7.0,2.0,1.0,3.0,3.0,343.9584611915052,4.0,1.0,phase_1,,,,,,,,,,,,,orange,circle
97.0,6.0,1.0,1.0,2.0,2.0,525.3418407519348,4.0,1.0,phase_1,,,,,,,,,,,,,magenta,cross
223.0,3.0,2.0,0.0,1.0,1.0,301.8205479020253,4.0,1.0,phase_1,,,,,,,,,,,,,yellow,square
212.0,7.0,2.0,1.0,4.0,4.0,380.5653199087828,4.0,1.0,phase_1,,,,,,,,,,,,,orange,circle
389.0,8.0,4.0,1.0,1.0,1.0,358.0750559340231,4.0,1.0,phase_1,,,,,,,,,,,,,blue,hexagon
0.0,1.0,0.0,0.0,3.0,3.0,336.1410633078776,4.0,1.0,phase_1,,,,,,,,,,,,,cyan,diamond
30.0,5.0,0.5,1.0,1.0,1.0,327.1320000640116,4.0,1.0,phase_1,,,,,,,,,,,,,white,I
392.0,4.0,4.0,0.0,4.0,4.0,383.8504240848124,4.0,1.0,phase_1,,,,,,,,,,,,,gray,flipped triangle
80.0,6.0,1.0,1.0,3.0,3.0,371.3960752938874,4.0,1.0,phase_1,,,,,,,,,,,,,magenta,cross
0.0,2.0,0.0,0.0,4.0,4.0,417.7499827346764,4.0,1.0,phase_1,,,,,,,,,,,,,green,triangle
219.0,7.0,2.0,1.0,1.0,1.0,363.1322933943011,4.0,2.0,phase_1,,,,,,,,,,,,,orange,circle
379.0,4.0,4.0,0.0,3.0,3.0,340.40345100220287,4.0,1.0,phase_1,,,,,,,,,,,,,gray,flipped triangle
63.0,5.0,0.5,1.0,3.0,3.0,373.9348527160473,4.0,1.0,phase_1,,,,,,,,,,,,,white,I
392.0,8.0,4.0,1.0,2.0,2.0,363.610076950863,4.0,1.0,phase_1,,,,,,,,,,,,,blue,hexagon
47.0,5.0,0.5,1.0,4.0,4.0,365.8748635207303,4.0,1.0,phase_1,,,,,,,,,,,,,white,I
0.0,6.0,0.0,1.0,3.0,3.0,297.7804844267666,4.0,1.0,phase_1,,,,,,,,,,,,,magenta,cross
187.0,3.0,2.0,0.0,4.0,4.0,343.9555176883004,4.0,1.0,phase_1,,,,,,,,,,,,,yellow,square
386.0,4.0,4.0,0.0,2.0,2.0,390.2786308899522,4.0,1.0,phase_1,,,,,,,,,,,,,gray,flipped triangle
196.0,3.0,2.0,0.0,2.0,2.0,298.4410206554457,4.0,1.0,phase_1,,,,,,,,,,,,,yellow,square
61.0,5.0,0.5,1.0,4.0,4.0,334.171162743587,4.0,1.0,phase_1,,,,,,,,,,,,,white,I
43.0,1.0,0.5,0.0,4.0,4.0,323.0700136628002,4.0,1.0,phase_1,,,,,,,,,,,,,cyan,diamond
42.0,1.0,0.5,0.0,1.0,1.0,447.3758253152482,4.0,1.0,phase_1,,,,,,,,,,,,,cyan,diamond
190.0,7.0,2.0,1.0,3.0,3.0,312.8910711966455,4.0,1.0,phase_1,,,,,,,,,,,,,orange,circle
31.0,5.0,0.5,1.0,1.0,1.0,370.3899412648752,4.0,1.0,phase_1,,,,,,,,,,,,,white,I
55.0,5.0,0.5,1.0,2.0,2.0,437.2139707556925,4.0,1.0,phase_1,,,,,,,,,,,,,white,I
197.0,3.0,2.0,0.0,3.0,3.0,483.314914861694,4.0,1.0,phase_1,,,,,,,,,,,,,yellow,square
36.0,1.0,0.5,0.0,4.0,4.0,382.959354785271,4.0,1.0,phase_1,,,,,,,,,,,,,cyan,diamond
194.0,3.0,2.0,0.0,4.0,4.0,370.7385357702151,4.0,1.0,phase_1,,,,,,,,,,,,,yellow,square
77.0,2.0,1.0,0.0,2.0,2.0,338.3657863014377,4.0,1.0,phase_1,,,,,,,,,,,,,green,triangle
0.0,5.0,0.0,1.0,4.0,4.0,338.1255359272472,4.0,1.0,phase_1,,,,,,,,,,,,,white,I
410.0,8.0,4.0,1.0,3.0,3.0,395.501506049186,4.0,1.0,phase_1,,,,,,,,,,,,,blue,hexagon
75.0,2.0,1.0,0.0,1.0,1.0,373.7417234224267,4.0,1.0,phase_1,,,,,,,,,,,,,green,triangle
55.0,5.0,0.5,1.0,1.0,1.0,340.7225866685621,4.0,1.0,phase_1,,,,,,,,,,,,,white,I
0.0,4.0,0.0,0.0,4.0,4.0,351.4034420950338,4.0,1.0,phase_1,,,,,,,,,,,,,gray,flipped triangle
424.0,4.0,4.0,0.0,1.0,1.0,398.3065006905235,4.0,1.0,phase_1,,,,,,,,,,,,,gray,flipped triangle
223.0,7.0,2.0,1.0,2.0,2.0,376.2639581691474,4.0,1.0,phase_1,,,,,,,,,,,,,orange,circle
124.0,6.0,1.0,1.0,4.0,4.0,386.7793009849265,4.0,1.0,phase_1,,,,,,,,,,,,,magenta,cross
399.0,4.0,4.0,0.0,2.0,2.0,400.4658798803575,4.0,1.0,phase_1,,,,,,,,,,,,,gray,flipped triangle
111.0,2.0,1.0,0.0,1.0,1.0,377.9459139332175,4.0,1.0,phase_1,,,,,,,,,,,,,green,triangle
413.0,8.0,4.0,1.0,2.0,2.0,344.082604162395,4.0,1.0,phase_1,,,,,,,,,,,,,blue,hexagon
409.0,8.0,4.0,1.0,1.0,1.0,368.6129857669584,4.0,1.0,phase_1,,,,,,,,,,,,,blue,hexagon
78.0,2.0,1.0,0.0,3.0,3.0,380.0202279235236,4.0,1.0,phase_1,,,,,,,,,,,,,green,triangle
214.0,7.0,2.0,1.0,3.0,3.0,435.7953543076291,4.0,1.0,phase_1,,,,,,,,,,,,,orange,circle
72.0,5.0,0.5,1.0,2.0,2.0,393.209729285445,4.0,1.0,phase_1,,,,,,,,,,,,,white,I
419.0,4.0,4.0,0.0,1.0,1.0,459.628835262265,4.0,1.0,phase_1,,,,,,,,,,,,,gray,flipped triangle
0.0,4.0,0.0,0.0,4.0,4.0,370.2419344335794,4.0,1.0,phase_1,,,,,,,,,,,,,gray,flipped triangle
223.0,3.0,2.0,0.0,3.0,3.0,359.5839587505907,4.0,1.0,phase_1,,,,,,,,,,,,,yellow,square
93.0,2.0,1.0,0.0,1.0,1.0,349.2106149205938,4.0,1.0,phase_1,,,,,,,,,,,,,green,triangle
97.0,2.0,1.0,0.0,4.0,4.0,305.4919569403864,4.0,1.0,phase_1,,,,,,,,,,,,,green,triangle
217.0,3.0,2.0,0.0,1.0,1.0,338.75213842839,4.0,1.0,phase_1,,,,,,,,,,,,,yellow,square
200.0,3.0,2.0,0.0,1.0,1.0,282.9595875227824,4.0,1.0,phase_1,,,,,,,,,,,,,yellow,square
0.0,2.0,0.0,0.0,1.0,1.0,307.6067000511102,4.0,1.0,phase_1,,,,,,,,,,,,,green,triangle
178.0,7.0,2.0,1.0,4.0,4.0,363.0978566943668,4.0,1.0,phase_1,,,,,,,,,,,,,orange,circle
118.0,2.0,1.0,0.0,4.0,4.0,385.7901602750644,4.0,1.0,phase_1,,,,,,,,,,,,,green,triangle
60.0,5.0,0.5,1.0,3.0,3.0,374.0332580637187,4.0,1.0,phase_1,,,,,,,,,,,,,white,I
0.0,8.0,0.0,1.0,3.0,3.0,376.505532010924,4.0,1.0,phase_1,,,,,,,,,,,,,blue,hexagon
0.0,7.0,2.0,1.0,5.0,5.0,576.2018659734167,1.0,1.0,phase_2,stop,250.0,250.0,3.0,,,,,,,,,orange,circle
0.0,2.0,1.0,0.0,5.0,5.0,805.6268360815011,1.0,1.0,phase_2,go,200.0,250.0,1.0,,,,,,,,,green,triangle
0.0,5.0,0.5,1.0,6.0,6.0,638.9864159282297,1.0,1.0,phase_2,go,200.0,250.0,1.0,,,,,,,,,white,I
0.0,8.0,4.0,1.0,6.0,0.0,0.0,1.0,1.0,phase_2,stop,200.0,250.0,4.0,,,,,,,,,blue,hexagon
0.0,2.0,1.0,0.0,5.0,5.0,820.0442049419507,1.0,1.0,phase_2,go,200.0,300.0,1.0,,,,,,,,,green,triangle
0.0,7.0,2.0,1.0,6.0,0.0,0.0,1.0,1.0,phase_2,stop,200.0,300.0,4.0,,,,,,,,,orange,circle
0.0,6.0,1.0,1.0,5.0,0.0,0.0,1.0,1.0,phase_2,stop,200.0,350.0,4.0,,,,,,,,,magenta,cross
0.0,4.0,4.0,0.0,5.0,5.0,405.8045238489285,1.0,1.0,phase_2,go,250.0,350.0,1.0,,,,,,,,,gray,flipped triangle
0.0,6.0,1.0,1.0,5.0,5.0,957.7299038646744,1.0,1.0,phase_2,go,250.0,350.0,1.0,,,,,,,,,magenta,cross
0.0,8.0,4.0,1.0,6.0,0.0,0.0,1.0,1.0,phase_2,stop,250.0,350.0,4.0,,,,,,,,,blue,hexagon
0.0,8.0,4.0,1.0,5.0,0.0,0.0,1.0,1.0,phase_2,stop,250.0,400.0,4.0,,,,,,,,,blue,hexagon
0.0,6.0,1.0,1.0,6.0,6.0,432.7805115608498,1.0,1.0,phase_2,stop,300.0,400.0,3.0,,,,,,,,,magenta,cross
0.0,5.0,0.5,1.0,6.0,6.0,645.6313749658875,1.0,1.0,phase_2,go,300.0,350.0,1.0,,,,,,,,,white,I
0.0,1.0,0.5,0.0,6.0,6.0,624.6109599014744,1.0,1.0,phase_2,go,300.0,350.0,1.0,,,,,,,,,cyan,diamond
0.0,5.0,0.5,1.0,5.0,0.0,0.0,1.0,1.0,phase_2,stop,300.0,350.0,4.0,,,,,,,,,white,I
0.0,7.0,2.0,1.0,5.0,0.0,0.0,1.0,1.0,phase_2,stop,350.0,350.0,4.0,,,,,,,,,orange,circle
0.0,5.0,0.5,1.0,5.0,0.0,0.0,1.0,1.0,phase_2,stop,400.0,350.0,4.0,,,,,,,,,white,I
0.0,4.0,4.0,0.0,5.0,5.0,707.5950750731863,1.0,1.0,phase_2,go,450.0,350.0,1.0,,,,,,,,,gray,flipped triangle
0.0,8.0,4.0,1.0,5.0,5.0,640.1735339313745,1.0,1.0,phase_2,go,450.0,350.0,1.0,,,,,,,,,blue,hexagon
0.0,5.0,0.5,1.0,6.0,6.0,731.7269769264385,1.0,1.0,phase_2,go,450.0,350.0,1.0,,,,,,,,,white,I
0.0,6.0,1.0,1.0,5.0,0.0,0.0,1.0,1.0,phase_2,stop,450.0,350.0,4.0,,,,,,,,,magenta,cross
0.0,6.0,1.0,1.0,5.0,5.0,698.6473448923789,1.0,1.0,phase_2,go,500.0,350.0,1.0,,,,,,,,,magenta,cross
0.0,1.0,0.5,0.0,5.0,5.0,766.4246289641596,1.0,1.0,phase_2,go,500.0,350.0,1.0,,,,,,,,,cyan,diamond
0.0,8.0,4.0,1.0,6.0,0.0,0.0,1.0,1.0,phase_2,stop,500.0,350.0,4.0,,,,,,,,,blue,hexagon
0.0,6.0,1.0,1.0,5.0,5.0,522.8227858315222,1.0,1.0,phase_2,stop,500.0,400.0,3.0,,,,,,,,,magenta,cross
0.0,1.0,0.5,0.0,6.0,6.0,781.8914269446395,1.0,1.0,phase_2,go,450.0,400.0,1.0,,,,,,,,,cyan,diamond
0.0,3.0,2.0,0.0,5.0,5.0,680.4052618099377,1.0,1.0,phase_2,go,450.0,400.0,1.0,,,,,,,,,yellow,square
0.0,2.0,1.0,0.0,5.0,5.0,749.9284468358383,1.0,1.0,phase_2,go,450.0,400.0,1.0,,,,,,,,,green,triangle
0.0,3.0,2.0,0.0,5.0,5.0,716.7041810462251,1.0,1.0,phase_2,go,450.0,400.0,1.0,,,,,,,,,yellow,square
0.0,7.0,2.0,1.0,5.0,5.0,582.5250509078614,1.0,1.0,phase_2,stop,450.0,400.0,3.0,,,,,,,,,orange,circle
0.0,3.0,2.0,0.0,5.0,5.0,662.0267750695348,1.0,1.0,phase_2,go,400.0,400.0,1.0,,,,,,,,,yellow,square
0.0,8.0,4.0,1.0,6.0,6.0,696.7726509901695,1.0,1.0,phase_2,go,400.0,400.0,1.0,,,,,,,,,blue,hexagon
0.0,4.0,4.0,0.0,6.0,6.0,909.7871370031498,1.0,1.0,phase_2,go,400.0,400.0,1.0,,,,,,,,,gray,flipped triangle
0.0,4.0,4.0,0.0,5.0,5.0,753.5758868907578,1.0,1.0,phase_2,go,400.0,400.0,1.0,,,,,,,,,gray,flipped triangle
0.0,4.0,4.0,0.0,6.0,6.0,731.7886689561419,1.0,1.0,phase_2,go,400.0,400.0,1.0,,,,,,,,,gray,flipped triangle
0.0,7.0,2.0,1.0,5.0,5.0,711.4978338941,1.0,1.0,phase_2,go,400.0,400.0,1.0,,,,,,,,,orange,circle
0.0,6.0,1.0,1.0,6.0,0.0,0.0,2.0,1.0,phase_2,stop,400.0,400.0,4.0,,,,,,,,,magenta,cross
0.0,6.0,1.0,1.0,6.0,6.0,374.4457279681228,2.0,1.0,phase_2,stop,400.0,450.0,3.0,,,,,,,,,magenta,cross
0.0,3.0,2.0,0.0,6.0,6.0,363.3281009388156,2.0,1.0,phase_2,go,400.0,400.0,1.0,,,,,,,,,yellow,square
0.0,8.0,4.0,1.0,6.0,6.0,443.6897409614175,2.0,1.0,phase_2,go,400.0,400.0,1.0,,,,,,,,,blue,hexagon
0.0,6.0,1.0,1.0,5.0,5.0,521.7107739299536,2.0,1.0,phase_2,stop,400.0,400.0,3.0,,,,,,,,,magenta,cross
0.0,6.0,1.0,1.0,5.0,0.0,0.0,2.0,1.0,phase_2,stop,350.0,400.0,4.0,,,,,,,,,magenta,cross
0.0,3.0,2.0,0.0,6.0,6.0,636.7135278997011,2.0,1.0,phase_2,go,400.0,400.0,1.0,,,,,,,,,yellow,square
0.0,5.0,0.5,1.0,5.0,0.0,0.0,2.0,1.0,phase_2,stop,400.0,400.0,4.0,,,,,,,,,white,I
0.0,8.0,4.0,1.0,5.0,0.0,0.0,2.0,1.0,phase_2,stop,450.0,400.0,4.0,,,,,,,,,blue,hexagon
0.0,1.0,0.5,0.0,6.0,6.0,627.8941617929377,2.0,1.0,phase_2,go,500.0,400.0,1.0,,,,,,,,,cyan,diamond
0.0,4.0,4.0,0.0,5.0,5.0,618.3860148885287,2.0,1.0,phase_2,go,500.0,400.0,1.0,,,,,,,,,gray,flipped triangle
0.0,7.0,2.0,1.0,5.0,0.0,0.0,2.0,1.0,phase_2,stop,500.0,400.0,4.0,,,,,,,,,orange,circle
0.0,2.0,1.0,0.0,6.0,6.0,710.5555209564045,2.0,1.0,phase_2,go,550.0,400.0,1.0,,,,,,,,,green,triangle
0.0,4.0,4.0,0.0,5.0,5.0,731.5147878834978,2.0,1.0,phase_2,go,550.0,400.0,1.0,,,,,,,,,gray,flipped triangle
0.0,1.0,0.5,0.0,5.0,5.0,644.5878908853047,2.0,1.0,phase_2,go,550.0,400.0,1.0,,,,,,,,,cyan,diamond
0.0,8.0,4.0,1.0,5.0,5.0,509.8545530345291,2.0,1.0,phase_2,stop,550.0,400.0,3.0,,,,,,,,,blue,hexagon
0.0,8.0,4.0,1.0,6.0,6.0,700.3887698519975,2.0,1.0,phase_2,go,500.0,400.0,1.0,,,,,,,,,blue,hexagon
0.0,8.0,4.0,1.0,6.0,6.0,488.8718828442506,2.0,1.0,phase_2,stop,500.0,400.0,3.0,,,,,,,,,blue,hexagon
0.0,6.0,1.0,1.0,5.0,5.0,658.7199498899281,2.0,1.0,phase_2,stop,500.0,350.0,3.0,,,,,,,,,magenta,cross
0.0,3.0,2.0,0.0,5.0,5.0,681.3671248382889,2.0,1.0,phase_2,go,450.0,350.0,1.0,,,,,,,,,yellow,square
0.0,1.0,0.5,0.0,5.0,5.0,964.159132912755,2.0,1.0,phase_2,go,450.0,350.0,1.0,,,,,,,,,cyan,diamond
0.0,7.0,2.0,1.0,6.0,0.0,0.0,2.0,1.0,phase_2,stop,450.0,350.0,4.0,,,,,,,,,orange,circle
0.0,3.0,2.0,0.0,5.0,5.0,368.3108469122089,2.0,1.0,phase_2,go,450.0,400.0,1.0,,,,,,,,,yellow,square
0.0,1.0,0.5,0.0,6.0,6.0,865.853541821707,2.0,1.0,phase_2,go,450.0,400.0,1.0,,,,,,,,,cyan,diamond
0.0,2.0,1.0,0.0,6.0,6.0,574.2989368736744,2.0,1.0,phase_2,go,450.0,400.0,1.0,,,,,,,,,green,triangle
0.0,1.0,0.5,0.0,5.0,5.0,505.88542298646644,2.0,1.0,phase_2,go,450.0,400.0,1.0,,,,,,,,,cyan,diamond
0.0,3.0,2.0,0.0,6.0,6.0,416.7701770202257,2.0,1.0,phase_2,go,450.0,400.0,1.0,,,,,,,,,yellow,square
0.0,8.0,4.0,1.0,5.0,5.0,429.4281789334491,2.0,1.0,phase_2,stop,450.0,400.0,3.0,,,,,,,,,blue,hexagon
0.0,5.0,0.5,1.0,6.0,0.0,0.0,2.0,1.0,phase_2,stop,400.0,400.0,4.0,,,,,,,,,white,I
0.0,1.0,0.5,0.0,6.0,6.0,430.5155139300041,2.0,1.0,phase_2,go,400.0,450.0,1.0,,,,,,,,,cyan,diamond
0.0,7.0,2.0,1.0,6.0,6.0,612.4808249878697,2.0,1.0,phase_2,stop,400.0,450.0,3.0,,,,,,,,,orange,circle
0.0,2.0,1.0,0.0,6.0,6.0,488.7611158192158,2.0,1.0,phase_2,go,400.0,400.0,1.0,,,,,,,,,green,triangle
0.0,5.0,0.5,1.0,6.0,0.0,0.0,2.0,1.0,phase_2,stop,400.0,400.0,4.0,,,,,,,,,white,I
0.0,5.0,0.5,1.0,6.0,6.0,355.1601698854938,2.0,1.0,phase_2,stop,400.0,450.0,3.0,,,,,,,,,white,I
0.0,3.0,2.0,0.0,5.0,5.0,704.9485829193145,2.0,1.0,phase_2,go,400.0,400.0,1.0,,,,,,,,,yellow,square
0.0,2.0,1.0,0.0,5.0,5.0,492.1225818688981,2.0,1.0,phase_2,go,400.0,400.0,1.0,,,,,,,,,green,triangle
0.0,6.0,1.0,1.0,6.0,0.0,0.0,3.0,1.0,phase_2,stop,400.0,400.0,4.0,,,,,,,,,magenta,cross
0.0,8.0,4.0,1.0,5.0,5.0,367.45699599850917,3.0,1.0,phase_2,go,400.0,450.0,1.0,,,,,,,,,blue,hexagon
0.0,8.0,4.0,1.0,6.0,6.0,639.1125529771671,3.0,1.0,phase_2,stop,400.0,450.0,3.0,,,,,,,,,blue,hexagon
0.0,1.0,0.5,0.0,6.0,6.0,571.9617909635417,3.0,1.0,phase_2,go,400.0,400.0,1.0,,,,,,,,,cyan,diamond
0.0,7.0,2.0,1.0,5.0,5.0,584.2782679828815,3.0,1.0,phase_2,stop,400.0,400.0,3.0,,,,,,,,,orange,circle
0.0,3.0,2.0,0.0,5.0,5.0,595.8435868960805,3.0,1.0,phase_2,go,350.0,400.0,1.0,,,,,,,,,yellow,square
0.0,6.0,1.0,1.0,6.0,0.0,0.0,3.0,1.0,phase_2,stop,350.0,400.0,4.0,,,,,,,,,magenta,cross
0.0,7.0,2.0,1.0,5.0,0.0,0.0,3.0,1.0,phase_2,stop,350.0,450.0,4.0,,,,,,,,,orange,circle
0.0,6.0,1.0,1.0,5.0,5.0,397.1321269636974,3.0,1.0,phase_2,go,400.0,450.0,1.0,,,,,,,,,magenta,cross
0.0,7.0,2.0,1.0,5.0,5.0,960.4147849604489,3.0,1.0,phase_2,go,400.0,450.0,1.0,,,,,,,,,orange,circle
0.0,1.0,0.5,0.0,5.0,5.0,768.9809058210813,3.0,1.0,phase_2,go,400.0,450.0,1.0,,,,,,,,,cyan,diamond
0.0,8.0,4.0,1.0,5.0,0.0,0.0,3.0,1.0,phase_2,stop,400.0,450.0,4.0,,,,,,,,,blue,hexagon
0.0,4.0,4.0,0.0,6.0,6.0,624.6342900558375,3.0,1.0,phase_2,go,450.0,450.0,1.0,,,,,,,,,gray,flipped triangle
0.0,1.0,0.5,0.0,5.0,5.0,390.3412209474481,3.0,1.0,phase_2,go,450.0,450.0,1.0,,,,,,,,,cyan,diamond
0.0,2.0,1.0,0.0,5.0,5.0,378.4883258631453,3.0,1.0,phase_2,go,450.0,450.0,1.0,,,,,,,,,green,triangle
0.0,8.0,4.0,1.0,5.0,5.0,436.2547419732436,3.0,1.0,phase_2,go,450.0,450.0,1.0,,,,,,,,,blue,hexagon
0.0,4.0,4.0,0.0,5.0,5.0,313.58533189632,3.0,1.0,phase_2,go,450.0,450.0,1.0,,,,,,,,,gray,flipped triangle
0.0,1.0,0.5,0.0,5.0,5.0,359.7984519437887,3.0,1.0,phase_2,go,450.0,450.0,1.0,,,,,,,,,cyan,diamond
0.0,3.0,2.0,0.0,6.0,6.0,392.8445078199729,3.0,1.0,phase_2,go,450.0,450.0,1.0,,,,,,,,,yellow,square
0.0,4.0,4.0,0.0,5.0,5.0,552.2937850328162,3.0,1.0,phase_2,go,450.0,450.0,1.0,,,,,,,,,gray,flipped triangle
0.0,6.0,1.0,1.0,5.0,5.0,620.7449110224843,3.0,1.0,phase_2,go,450.0,450.0,1.0,,,,,,,,,magenta,cross
0.0,8.0,4.0,1.0,5.0,0.0,0.0,3.0,1.0,phase_2,stop,450.0,450.0,4.0,,,,,,,,,blue,hexagon
0.0,4.0,4.0,0.0,6.0,6.0,531.4912449684925,3.0,1.0,phase_2,go,500.0,450.0,1.0,,,,,,,,,gray,flipped triangle
0.0,1.0,0.5,0.0,5.0,5.0,364.393689960707,3.0,1.0,phase_2,go,500.0,450.0,1.0,,,,,,,,,cyan,diamond
0.0,1.0,0.5,0.0,6.0,6.0,341.2467919406481,3.0,1.0,phase_2,go,500.0,450.0,1.0,,,,,,,,,cyan,diamond
0.0,5.0,0.5,1.0,5.0,5.0,308.8758359663188,3.0,1.0,phase_2,go,500.0,450.0,1.0,,,,,,,,,white,I
0.0,6.0,1.0,1.0,6.0,6.0,322.3615369643084,3.0,1.0,phase_2,go,500.0,450.0,1.0,,,,,,,,,magenta,cross
0.0,8.0,4.0,1.0,6.0,6.0,379.1895938338712,3.0,1.0,phase_2,go,500.0,450.0,1.0,,,,,,,,,blue,hexagon
0.0,3.0,2.0,0.0,5.0,5.0,446.2420730269514,3.0,1.0,phase_2,go,500.0,450.0,1.0,,,,,,,,,yellow,square
0.0,5.0,0.5,1.0,5.0,5.0,402.9887298238463,3.0,1.0,phase_2,stop,500.0,450.0,3.0,,,,,,,,,white,I
0.0,3.0,2.0,0.0,5.0,5.0,368.5661808704026,3.0,1.0,phase_2,go,450.0,450.0,1.0,,,,,,,,,yellow,square
0.0,3.0,2.0,0.0,6.0,6.0,493.603371840436,3.0,1.0,phase_2,go,450.0,450.0,1.0,,,,,,,,,yellow,square
0.0,4.0,4.0,0.0,6.0,6.0,382.1159467916004,3.0,1.0,phase_2,go,450.0,450.0,1.0,,,,,,,,,gray,flipped triangle
0.0,7.0,2.0,1.0,5.0,5.0,405.4826978244819,3.0,1.0,phase_2,stop,450.0,450.0,3.0,,,,,,,,,orange,circle
0.0,5.0,0.5,1.0,6.0,6.0,349.9857688439078,3.0,1.0,phase_2,go,400.0,450.0,1.0,,,,,,,,,white,I
0.0,4.0,4.0,0.0,6.0,6.0,464.1845069127157,3.0,1.0,phase_2,go,400.0,450.0,1.0,,,,,,,,,gray,flipped triangle
0.0,3.0,2.0,0.0,6.0,6.0,736.0398368909955,4.0,1.0,phase_2,go,400.0,450.0,1.0,,,,,,,,,yellow,square
0.0,5.0,0.5,1.0,6.0,0.0,0.0,4.0,1.0,phase_2,stop,400.0,450.0,4.0,,,,,,,,,white,I
0.0,4.0,4.0,0.0,6.0,6.0,702.7577969129197,4.0,1.0,phase_2,go,400.0,500.0,1.0,,,,,,,,,gray,flipped triangle
0.0,1.0,0.5,0.0,6.0,6.0,568.4152249014005,4.0,1.0,phase_2,go,400.0,500.0,1.0,,,,,,,,,cyan,diamond
0.0,2.0,1.0,0.0,6.0,6.0,412.7852329984307,4.0,1.0,phase_2,go,400.0,500.0,1.0,,,,,,,,,green,triangle
0.0,3.0,2.0,0.0,6.0,6.0,344.7381188743748,4.0,1.0,phase_2,go,400.0,500.0,1.0,,,,,,,,,yellow,square
0.0,4.0,4.0,0.0,6.0,6.0,526.0141719481908,4.0,1.0,phase_2,go,400.0,500.0,1.0,,,,,,,,,gray,flipped triangle
0.0,2.0,1.0,0.0,6.0,6.0,358.9375428855419,4.0,1.0,phase_2,go,400.0,500.0,1.0,,,,,,,,,green,triangle
0.0,8.0,4.0,1.0,6.0,6.0,509.7479809192009,4.0,1.0,phase_2,stop,400.0,500.0,3.0,,,,,,,,,blue,hexagon
0.0,2.0,1.0,0.0,5.0,5.0,529.0632258402184,4.0,1.0,phase_2,go,400.0,450.0,1.0,,,,,,,,,green,triangle
0.0,5.0,0.5,1.0,5.0,5.0,394.6476199780591,4.0,1.0,phase_2,stop,400.0,450.0,3.0,,,,,,,,,white,I
0.0,2.0,1.0,0.0,6.0,6.0,372.8640069602988,4.0,1.0,phase_2,go,350.0,450.0,1.0,,,,,,,,,green,triangle
0.0,8.0,4.0,1.0,6.0,6.0,385.8923468505963,4.0,1.0,phase_2,go,350.0,450.0,1.0,,,,,,,,,blue,hexagon
0.0,4.0,4.0,0.0,6.0,6.0,609.9971329676919,4.0,1.0,phase_2,go,350.0,450.0,1.0,,,,,,,,,gray,flipped triangle
0.0,8.0,4.0,1.0,6.0,6.0,509.4459049869329,4.0,1.0,phase_2,stop,350.0,450.0,3.0,,,,,,,,,blue,hexagon
0.0,2.0,1.0,0.0,6.0,6.0,679.1563398437575,4.0,1.0,phase_2,go,350.0,400.0,1.0,,,,,,,,,green,triangle
0.0,7.0,2.0,1.0,6.0,6.0,467.5758389639668,4.0,1.0,phase_2,stop,350.0,400.0,3.0,,,,,,,,,orange,circle
0.0,1.0,0.5,0.0,5.0,5.0,659.8334899754263,4.0,1.0,phase_2,go,350.0,350.0,1.0,,,,,,,,,cyan,diamond
0.0,6.0,1.0,1.0,6.0,0.0,0.0,4.0,1.0,phase_2,stop,350.0,350.0,4.0,,,,,,,,,magenta,cross
0.0,6.0,1.0,1.0,6.0,0.0,0.0,4.0,1.0,phase_2,stop,350.0,400.0,4.0,,,,,,,,,magenta,cross
0.0,2.0,1.0,0.0,5.0,5.0,650.4129719105549,4.0,1.0,phase_2,go,350.0,450.0,1.0,,,,,,,,,green,triangle
0.0,4.0,4.0,0.0,5.0,5.0,898.5089919879101,4.0,1.0,phase_2,go,350.0,450.0,1.0,,,,,,,,,gray,flipped triangle
0.0,7.0,2.0,1.0,5.0,0.0,0.0,4.0,1.0,phase_2,stop,350.0,450.0,4.0,,,,,,,,,orange,circle
0.0,2.0,1.0,0.0,5.0,5.0,753.1144569511525,4.0,1.0,phase_2,go,400.0,450.0,1.0,,,,,,,,,green,triangle
0.0,2.0,1.0,0.0,6.0,6.0,405.3567229420878,4.0,1.0,phase_2,go,400.0,450.0,1.0,,,,,,,,,green,triangle
0.0,5.0,0.5,1.0,6.0,6.0,362.0217797579244,4.0,1.0,phase_2,go,400.0,450.0,1.0,,,,,,,,,white,I
0.0,3.0,2.0,0.0,6.0,0.0,0.0,4.0,1.0,phase_2,go,400.0,450.0,5.0,,,,,,,,,yellow,square
0.0,4.0,4.0,0.0,6.0,6.0,611.3452599383891,4.0,1.0,phase_2,go,400.0,450.0,1.0,,,,,,,,,gray,flipped triangle
0.0,3.0,2.0,0.0,5.0,5.0,701.604934874922,4.0,1.0,phase_2,go,400.0,450.0,1.0,,,,,,,,,yellow,square
0.0,4.0,4.0,0.0,5.0,5.0,342.772485804744,4.0,1.0,phase_2,go,400.0,450.0,1.0,,,,,,,,,gray,flipped triangle
0.0,6.0,1.0,1.0,5.0,0.0,0.0,4.0,1.0,phase_2,stop,400.0,450.0,4.0,,,,,,,,,magenta,cross
0.0,1.0,0.5,0.0,5.0,5.0,400.4300009110011,4.0,1.0,phase_2,go,450.0,450.0,1.0,,,,,,,,,cyan,diamond
0.0,8.0,4.0,1.0,6.0,6.0,558.9193577761762,4.0,1.0,phase_2,stop,450.0,450.0,3.0,,,,,,,,,blue,hexagon
0.0,1.0,0.5,0.0,5.0,5.0,311.4591077901423,4.0,1.0,phase_2,go,450.0,400.0,1.0,,,,,,,,,cyan,diamond
0.0,7.0,2.0,1.0,6.0,0.0,0.0,4.0,1.0,phase_2,stop,450.0,400.0,4.0,,,,,,,,,orange,circle
0.0,5.0,0.5,1.0,5.0,5.0,1057.066248904448,4.0,1.0,phase_2,go,450.0,450.0,1.0,,,,,,,,,white,I
0.0,7.0,2.0,1.0,6.0,6.0,405.9423819417134,5.0,1.0,phase_2,stop,450.0,450.0,3.0,,,,,,,,,orange,circle
0.0,5.0,0.5,1.0,6.0,6.0,574.843403941486,5.0,1.0,phase_2,go,450.0,400.0,1.0,,,,,,,,,white,I
0.0,2.0,1.0,0.0,5.0,5.0,597.0199189032428,5.0,1.0,phase_2,go,450.0,400.0,1.0,,,,,,,,,green,triangle
0.0,7.0,2.0,1.0,5.0,5.0,362.8715270315297,5.0,1.0,phase_2,stop,450.0,400.0,3.0,,,,,,,,,orange,circle
0.0,6.0,1.0,1.0,6.0,0.0,0.0,5.0,1.0,phase_2,stop,400.0,400.0,4.0,,,,,,,,,magenta,cross
0.0,6.0,1.0,1.0,5.0,5.0,398.7770979292691,5.0,1.0,phase_2,stop,400.0,450.0,3.0,,,,,,,,,magenta,cross
0.0,1.0,0.5,0.0,6.0,6.0,353.1155428499914,5.0,1.0,phase_2,go,350.0,450.0,1.0,,,,,,,,,cyan,diamond
0.0,4.0,4.0,0.0,5.0,5.0,613.0573279806413,5.0,1.0,phase_2,go,350.0,450.0,1.0,,,,,,,,,gray,flipped triangle
0.0,4.0,4.0,0.0,6.0,6.0,400.7780699757859,5.0,1.0,phase_2,go,350.0,450.0,1.0,,,,,,,,,gray,flipped triangle
0.0,7.0,2.0,1.0,5.0,5.0,681.3958928687498,5.0,1.0,phase_2,go,350.0,450.0,1.0,,,,,,,,,orange,circle
0.0,6.0,1.0,1.0,6.0,0.0,0.0,5.0,1.0,phase_2,stop,350.0,450.0,4.0,,,,,,,,,magenta,cross
0.0,3.0,2.0,0.0,6.0,6.0,571.9347448321059,5.0,1.0,phase_2,go,350.0,500.0,1.0,,,,,,,,,yellow,square
0.0,1.0,0.5,0.0,6.0,6.0,527.9522528871894,5.0,1.0,phase_2,go,350.0,500.0,1.0,,,,,,,,,cyan,diamond
0.0,5.0,0.5,1.0,6.0,6.0,348.1920249760151,5.0,1.0,phase_2,stop,350.0,500.0,3.0,,,,,,,,,white,I
0.0,3.0,2.0,0.0,5.0,5.0,395.093718834687,5.0,1.0,phase_2,go,350.0,450.0,1.0,,,,,,,,,yellow,square
0.0,4.0,4.0,0.0,5.0,5.0,585.650660970714,5.0,1.0,phase_2,go,350.0,450.0,1.0,,,,,,,,,gray,flipped triangle
0.0,5.0,0.5,1.0,5.0,0.0,0.0,5.0,1.0,phase_2,stop,350.0,450.0,4.0,,,,,,,,,white,I
0.0,7.0,2.0,1.0,6.0,6.0,622.0120618236251,5.0,1.0,phase_2,go,400.0,450.0,1.0,,,,,,,,,orange,circle
0.0,8.0,4.0,1.0,6.0,6.0,555.2004079218023,5.0,1.0,phase_2,stop,400.0,450.0,3.0,,,,,,,,,blue,hexagon
0.0,1.0,0.5,0.0,6.0,6.0,364.4089220324531,5.0,1.0,phase_2,go,400.0,400.0,1.0,,,,,,,,,cyan,diamond
0.0,5.0,0.5,1.0,5.0,5.0,398.4199829865247,5.0,1.0,phase_2,stop,400.0,400.0,3.0,,,,,,,,,white,I
0.0,5.0,0.5,1.0,5.0,0.0,0.0,5.0,1.0,phase_2,stop,350.0,400.0,4.0,,,,,,,,,white,I
0.0,5.0,0.5,1.0,6.0,6.0,343.6933329212479,5.0,1.0,phase_2,stop,400.0,400.0,3.0,,,,,,,,,white,I
0.0,3.0,2.0,0.0,6.0,6.0,706.3264679163694,5.0,1.0,phase_2,go,400.0,350.0,1.0,,,,,,,,,yellow,square
0.0,3.0,2.0,0.0,6.0,6.0,661.8509308318608,5.0,1.0,phase_2,go,400.0,350.0,1.0,,,,,,,,,yellow,square
0.0,2.0,1.0,0.0,5.0,5.0,649.7138475533575,5.0,1.0,phase_2,go,400.0,350.0,1.0,,,,,,,,,green,triangle
0.0,3.0,2.0,0.0,6.0,6.0,302.6800638763234,5.0,1.0,phase_2,go,400.0,350.0,1.0,,,,,,,,,yellow,square
0.0,8.0,4.0,1.0,5.0,0.0,0.0,5.0,1.0,phase_2,stop,400.0,350.0,4.0,,,,,,,,,blue,hexagon
0.0,4.0,4.0,0.0,5.0,5.0,631.6039008670487,5.0,1.0,phase_2,go,450.0,350.0,1.0,,,,,,,,,gray,flipped triangle
0.0,1.0,0.5,0.0,6.0,6.0,383.187623869162,5.0,1.0,phase_2,go,450.0,350.0,1.0,,,,,,,,,cyan,diamond
0.0,7.0,2.0,1.0,6.0,0.0,0.0,5.0,1.0,phase_2,stop,450.0,350.0,4.0,,,,,,,,,orange,circle
0.0,4.0,4.0,0.0,6.0,6.0,441.0121099790558,5.0,1.0,phase_2,go,450.0,400.0,1.0,,,,,,,,,gray,flipped triangle
0.0,7.0,2.0,1.0,5.0,5.0,386.0185379744507,5.0,1.0,phase_2,go,450.0,400.0,1.0,,,,,,,,,orange,circle
0.0,6.0,1.0,1.0,5.0,5.0,657.313295872882,5.0,1.0,phase_2,go,450.0,400.0,1.0,,,,,,,,,magenta,cross
0.0,6.0,1.0,1.0,5.0,5.0,398.3809749479405,5.0,1.0,phase_2,stop,450.0,400.0,3.0,,,,,,,,,magenta,cross
0.0,2.0,1.0,0.0,5.0,5.0,647.8179310215637,5.0,1.0,phase_2,go,400.0,400.0,1.0,,,,,,,,,green,triangle
0.0,1.0,0.5,0.0,5.0,5.0,450.0472730724141,6.0,1.0,phase_2,go,400.0,400.0,1.0,,,,,,,,,cyan,diamond
0.0,2.0,1.0,0.0,6.0,6.0,711.064496950712,6.0,1.0,phase_2,go,400.0,400.0,1.0,,,,,,,,,green,triangle
0.0,1.0,0.5,0.0,5.0,5.0,597.8799649747089,6.0,1.0,phase_2,go,400.0,400.0,1.0,,,,,,,,,cyan,diamond
0.0,2.0,1.0,0.0,5.0,5.0,441.4582108147442,6.0,1.0,phase_2,go,400.0,400.0,1.0,,,,,,,,,green,triangle
0.0,6.0,1.0,1.0,6.0,6.0,432.4164449353702,6.0,1.0,phase_2,go,400.0,400.0,1.0,,,,,,,,,magenta,cross
0.0,7.0,2.0,1.0,6.0,0.0,0.0,6.0,1.0,phase_2,stop,400.0,400.0,4.0,,,,,,,,,orange,circle
0.0,1.0,0.5,0.0,5.0,5.0,556.5401598578319,6.0,1.0,phase_2,go,400.0,450.0,1.0,,,,,,,,,cyan,diamond
0.0,4.0,4.0,0.0,5.0,5.0,568.8067119917832,6.0,1.0,phase_2,go,400.0,450.0,1.0,,,,,,,,,gray,flipped triangle
0.0,6.0,1.0,1.0,6.0,6.0,648.7517639179714,6.0,1.0,phase_2,go,400.0,450.0,1.0,,,,,,,,,magenta,cross
0.0,4.0,4.0,0.0,5.0,5.0,480.0341398804448,6.0,1.0,phase_2,go,400.0,450.0,1.0,,,,,,,,,gray,flipped triangle
0.0,8.0,4.0,1.0,6.0,6.0,401.9488819176331,6.0,1.0,phase_2,stop,400.0,450.0,3.0,,,,,,,,,blue,hexagon
0.0,1.0,0.5,0.0,5.0,5.0,470.4802419873886,6.0,1.0,phase_2,go,400.0,400.0,1.0,,,,,,,,,cyan,diamond
0.0,2.0,1.0,0.0,6.0,6.0,539.9931559804827,6.0,1.0,phase_2,go,400.0,400.0,1.0,,,,,,,,,green,triangle
0.0,1.0,0.5,0.0,6.0,6.0,437.801330932416,6.0,1.0,phase_2,go,400.0,400.0,1.0,,,,,,,,,cyan,diamond
0.0,5.0,0.5,1.0,6.0,6.0,362.2896249289624,6.0,1.0,phase_2,stop,400.0,400.0,3.0,,,,,,,,,white,I
0.0,3.0,2.0,0.0,5.0,5.0,328.0020549427718,6.0,1.0,phase_2,go,400.0,350.0,1.0,,,,,,,,,yellow,square
0.0,1.0,0.5,0.0,6.0,6.0,733.0100850085728,6.0,1.0,phase_2,go,400.0,350.0,1.0,,,,,,,,,cyan,diamond
0.0,2.0,1.0,0.0,6.0,6.0,486.3920468487777,6.0,1.0,phase_2,go,400.0,350.0,1.0,,,,,,,,,green,triangle
0.0,7.0,2.0,1.0,5.0,5.0,431.7546429811045,6.0,1.0,phase_2,go,400.0,350.0,1.0,,,,,,,,,orange,circle
0.0,1.0,0.5,0.0,5.0,5.0,465.7021668390371,6.0,1.0,phase_2,go,400.0,350.0,1.0,,,,,,,,,cyan,diamond
0.0,4.0,4.0,0.0,6.0,6.0,591.7014249134809,6.0,1.0,phase_2,go,400.0,350.0,1.0,,,,,,,,,gray,flipped triangle
0.0,5.0,0.5,1.0,6.0,0.0,0.0,6.0,1.0,phase_2,stop,400.0,350.0,4.0,,,,,,,,,white,I
0.0,7.0,2.0,1.0,5.0,5.0,434.088992071338,6.0,1.0,phase_2,go,400.0,400.0,1.0,,,,,,,,,orange,circle
0.0,5.0,0.5,1.0,5.0,5.0,458.9215358719229,6.0,1.0,phase_2,stop,400.0,400.0,3.0,,,,,,,,,white,I
0.0,4.0,4.0,0.0,5.0,5.0,673.6283780192025,6.0,1.0,phase_2,go,350.0,400.0,1.0,,,,,,,,,gray,flipped triangle
0.0,8.0,4.0,1.0,5.0,0.0,0.0,6.0,1.0,phase_2,stop,350.0,400.0,4.0,,,,,,,,,blue,hexagon
0.0,4.0,4.0,0.0,6.0,6.0,404.0090389316901,6.0,1.0,phase_2,go,400.0,400.0,1.0,,,,,,,,,gray,flipped triangle
0.0,2.0,1.0,0.0,6.0,6.0,541.2326160003431,6.0,1.0,phase_2,go,400.0,400.0,1.0,,,,,,,,,green,triangle
0.0,8.0,4.0,1.0,5.0,5.0,630.6978838983923,6.0,1.0,phase_2,go,400.0,400.0,1.0,,,,,,,,,blue,hexagon
0.0,5.0,0.5,1.0,5.0,5.0,396.7808460001834,6.0,1.0,phase_2,stop,400.0,400.0,3.0,,,,,,,,,white,I
0.0,1.0,0.5,0.0,6.0,6.0,452.9745508916676,6.0,1.0,phase_2,go,350.0,400.0,1.0,,,,,,,,,cyan,diamond
0.0,4.0,4.0,0.0,6.0,6.0,554.6461758785881,6.0,1.0,phase_2,go,350.0,400.0,1.0,,,,,,,,,gray,flipped triangle
0.0,5.0,0.5,1.0,5.0,0.0,0.0,6.0,1.0,phase_2,stop,350.0,400.0,4.0,,,,,,,,,white,I
0.0,7.0,2.0,1.0,6.0,6.0,557.9464389011264,6.0,1.0,phase_2,stop,400.0,400.0,3.0,,,,,,,,,orange,circle
0.0,7.0,2.0,1.0,6.0,6.0,478.3372119418345,6.0,1.0,phase_2,stop,400.0,350.0,3.0,,,,,,,,,orange,circle
0.0,3.0,2.0,0.0,5.0,5.0,739.5571258384734,6.0,1.0,phase_2,go,400.0,300.0,1.0,,,,,,,,,yellow,square
0.0,5.0,0.5,1.0,5.0,5.0,1387.7545928698964,7.0,1.0,phase_2,stop,400.0,300.0,3.0,,,,,,,,,white,I
0.0,3.0,2.0,0.0,5.0,5.0,713.1973979412578,7.0,1.0,phase_2,go,350.0,300.0,1.0,,,,,,,,,yellow,square
0.0,3.0,2.0,0.0,6.0,6.0,658.3023848361336,7.0,1.0,phase_2,go,350.0,300.0,1.0,,,,,,,,,yellow,square
0.0,6.0,1.0,1.0,5.0,0.0,0.0,7.0,1.0,phase_2,stop,350.0,300.0,4.0,,,,,,,,,magenta,cross
0.0,6.0,1.0,1.0,6.0,0.0,0.0,7.0,1.0,phase_2,stop,400.0,300.0,4.0,,,,,,,,,magenta,cross
0.0,4.0,4.0,0.0,5.0,5.0,582.3807768174447,7.0,1.0,phase_2,go,400.0,350.0,1.0,,,,,,,,,gray,flipped triangle
0.0,6.0,1.0,1.0,5.0,0.0,0.0,7.0,1.0,phase_2,stop,400.0,350.0,4.0,,,,,,,,,magenta,cross
0.0,7.0,2.0,1.0,5.0,5.0,515.5956667731516,7.0,1.0,phase_2,stop,450.0,350.0,3.0,,,,,,,,,orange,circle
0.0,1.0,0.5,0.0,6.0,6.0,484.109463810455,7.0,1.0,phase_2,go,400.0,350.0,1.0,,,,,,,,,cyan,diamond
0.0,8.0,4.0,1.0,5.0,0.0,0.0,7.0,1.0,phase_2,stop,400.0,350.0,4.0,,,,,,,,,blue,hexagon
0.0,4.0,4.0,0.0,6.0,6.0,688.1213570595719,7.0,1.0,phase_2,go,450.0,350.0,1.0,,,,,,,,,gray,flipped triangle
0.0,5.0,0.5,1.0,6.0,0.0,0.0,7.0,1.0,phase_2,stop,450.0,350.0,4.0,,,,,,,,,white,I
0.0,6.0,1.0,1.0,6.0,0.0,0.0,7.0,1.0,phase_2,stop,450.0,400.0,4.0,,,,,,,,,magenta,cross
0.0,8.0,4.0,1.0,6.0,6.0,511.0143678612076,7.0,1.0,phase_2,stop,450.0,450.0,3.0,,,,,,,,,blue,hexagon
0.0,2.0,1.0,0.0,6.0,6.0,724.1907819989137,7.0,1.0,phase_2,go,450.0,400.0,1.0,,,,,,,,,green,triangle
0.0,8.0,4.0,1.0,5.0,0.0,0.0,7.0,1.0,phase_2,stop,450.0,400.0,4.0,,,,,,,,,blue,hexagon
0.0,4.0,4.0,0.0,6.0,6.0,612.8973858430982,7.0,1.0,phase_2,go,500.0,400.0,1.0,,,,,,,,,gray,flipped triangle
0.0,2.0,1.0,0.0,6.0,6.0,671.7871759319678,7.0,1.0,phase_2,go,500.0,400.0,1.0,,,,,,,,,green,triangle
0.0,7.0,2.0,1.0,6.0,6.0,582.2070328867994,7.0,1.0,phase_2,go,500.0,400.0,1.0,,,,,,,,,orange,circle
0.0,6.0,1.0,1.0,5.0,5.0,378.9215039578266,7.0,1.0,phase_2,stop,500.0,400.0,3.0,,,,,,,,,magenta,cross
0.0,1.0,0.5,0.0,5.0,5.0,436.0249468008987,7.0,1.0,phase_2,go,450.0,400.0,1.0,,,,,,,,,cyan,diamond
0.0,3.0,2.0,0.0,5.0,5.0,448.37494188686827,7.0,1.0,phase_2,go,450.0,400.0,1.0,,,,,,,,,yellow,square
0.0,6.0,1.0,1.0,6.0,6.0,495.1995357987471,7.0,1.0,phase_2,stop,450.0,400.0,3.0,,,,,,,,,magenta,cross
0.0,3.0,2.0,0.0,5.0,5.0,607.5936309644021,7.0,1.0,phase_2,go,450.0,350.0,1.0,,,,,,,,,yellow,square
0.0,3.0,2.0,0.0,6.0,6.0,395.5989629612304,7.0,1.0,phase_2,go,450.0,350.0,1.0,,,,,,,,,yellow,square
0.0,8.0,4.0,1.0,5.0,0.0,0.0,7.0,1.0,phase_2,stop,450.0,350.0,4.0,,,,,,,,,blue,hexagon
0.0,6.0,1.0,1.0,5.0,5.0,690.5998938600533,7.0,1.0,phase_2,stop,500.0,350.0,3.0,,,,,,,,,magenta,cross
0.0,7.0,2.0,1.0,6.0,0.0,0.0,7.0,1.0,phase_2,stop,450.0,350.0,4.0,,,,,,,,,orange,circle
0.0,2.0,1.0,0.0,5.0,5.0,691.8872489477508,7.0,1.0,phase_2,go,450.0,400.0,1.0,,,,,,,,,green,triangle
0.0,5.0,0.5,1.0,5.0,0.0,0.0,7.0,1.0,phase_2,stop,450.0,400.0,4.0,,,,,,,,,white,I
0.0,7.0,2.0,1.0,6.0,0.0,0.0,7.0,1.0,phase_2,stop,500.0,400.0,4.0,,,,,,,,,orange,circle
0.0,2.0,1.0,0.0,5.0,5.0,962.5475278589876,7.0,1.0,phase_2,go,500.0,450.0,1.0,,,,,,,,,green,triangle
0.0,6.0,1.0,1.0,6.0,6.0,446.7497218865901,7.0,1.0,phase_2,go,500.0,450.0,1.0,,,,,,,,,magenta,cross
0.0,7.0,2.0,1.0,6.0,0.0,0.0,7.0,1.0,phase_2,stop,500.0,450.0,4.0,,,,,,,,,orange,circle
0.0,4.0,4.0,0.0,6.0,6.0,764.684569905512,7.0,1.0,phase_2,go,500.0,500.0,1.0,,,,,,,,,gray,flipped triangle
0.0,6.0,1.0,1.0,6.0,0.0,0.0,7.0,1.0,phase_2,stop,500.0,500.0,4.0,,,,,,,,,magenta,cross
0.0,4.0,4.0,0.0,5.0,5.0,472.8584918775596,8.0,1.0,phase_2,go,500.0,550.0,1.0,,,,,,,,,gray,flipped triangle
0.0,7.0,2.0,1.0,6.0,6.0,531.4981729607098,8.0,1.0,phase_2,stop,500.0,550.0,3.0,,,,,,,,,orange,circle
0.0,5.0,0.5,1.0,6.0,6.0,609.8730328958482,8.0,1.0,phase_2,stop,500.0,500.0,3.0,,,,,,,,,white,I
0.0,2.0,1.0,0.0,5.0,5.0,553.9465618785471,8.0,1.0,phase_2,go,500.0,450.0,1.0,,,,,,,,,green,triangle
0.0,4.0,4.0,0.0,5.0,5.0,657.556356920395,8.0,1.0,phase_2,go,500.0,450.0,1.0,,,,,,,,,gray,flipped triangle
0.0,2.0,1.0,0.0,5.0,5.0,701.8806839478202,8.0,1.0,phase_2,go,500.0,450.0,1.0,,,,,,,,,green,triangle
0.0,7.0,2.0,1.0,6.0,0.0,0.0,8.0,1.0,phase_2,stop,500.0,450.0,4.0,,,,,,,,,orange,circle
0.0,1.0,0.5,0.0,6.0,6.0,671.3650348829105,8.0,1.0,phase_2,go,500.0,500.0,1.0,,,,,,,,,cyan,diamond
0.0,5.0,0.5,1.0,5.0,5.0,672.2605449031107,8.0,1.0,phase_2,stop,500.0,500.0,3.0,,,,,,,,,white,I
0.0,3.0,2.0,0.0,5.0,5.0,593.3931519975886,8.0,1.0,phase_2,go,450.0,500.0,1.0,,,,,,,,,yellow,square
0.0,8.0,4.0,1.0,5.0,5.0,447.8943049325607,8.0,1.0,phase_2,stop,450.0,500.0,3.0,,,,,,,,,blue,hexagon
0.0,8.0,4.0,1.0,5.0,0.0,0.0,8.0,1.0,phase_2,stop,400.0,500.0,4.0,,,,,,,,,blue,hexagon
0.0,3.0,2.0,0.0,6.0,6.0,562.9864518996328,8.0,1.0,phase_2,go,450.0,500.0,1.0,,,,,,,,,yellow,square
0.0,1.0,0.5,0.0,6.0,6.0,653.5659679211676,8.0,1.0,phase_2,go,450.0,500.0,1.0,,,,,,,,,cyan,diamond
0.0,7.0,2.0,1.0,6.0,0.0,0.0,8.0,1.0,phase_2,stop,450.0,500.0,4.0,,,,,,,,,orange,circle
0.0,2.0,1.0,0.0,5.0,5.0,621.1750319343992,8.0,1.0,phase_2,go,450.0,550.0,1.0,,,,,,,,,green,triangle
0.0,3.0,2.0,0.0,6.0,6.0,689.1301778960042,8.0,1.0,phase_2,go,450.0,550.0,1.0,,,,,,,,,yellow,square
0.0,2.0,1.0,0.0,6.0,6.0,656.6012487746775,8.0,1.0,phase_2,go,450.0,550.0,1.0,,,,,,,,,green,triangle
0.0,3.0,2.0,0.0,5.0,5.0,578.6994269001298,8.0,1.0,phase_2,go,450.0,550.0,1.0,,,,,,,,,yellow,square
0.0,2.0,1.0,0.0,6.0,6.0,410.5102019384503,8.0,1.0,phase_2,go,450.0,550.0,1.0,,,,,,,,,green,triangle
0.0,1.0,0.5,0.0,5.0,5.0,557.7463057707064,8.0,1.0,phase_2,go,450.0,550.0,1.0,,,,,,,,,cyan,diamond
0.0,5.0,0.5,1.0,5.0,0.0,0.0,8.0,1.0,phase_2,stop,450.0,550.0,4.0,,,,,,,,,white,I
0.0,5.0,0.5,1.0,6.0,6.0,638.4058658732101,8.0,1.0,phase_2,stop,500.0,550.0,3.0,,,,,,,,,white,I
0.0,7.0,2.0,1.0,5.0,5.0,616.3352148723789,8.0,1.0,phase_2,stop,500.0,500.0,3.0,,,,,,,,,orange,circle
0.0,2.0,1.0,0.0,6.0,6.0,493.9216339844279,8.0,1.0,phase_2,go,450.0,500.0,1.0,,,,,,,,,green,triangle
0.0,6.0,1.0,1.0,6.0,6.0,684.7193919238634,8.0,1.0,phase_2,stop,450.0,500.0,3.0,,,,,,,,,magenta,cross
0.0,2.0,1.0,0.0,6.0,6.0,741.8836786528118,8.0,1.0,phase_2,go,450.0,450.0,1.0,,,,,,,,,green,triangle
0.0,8.0,4.0,1.0,5.0,0.0,0.0,8.0,1.0,phase_2,stop,450.0,450.0,4.0,,,,,,,,,blue,hexagon
0.0,3.0,2.0,0.0,6.0,6.0,903.3495549228974,8.0,1.0,phase_2,go,500.0,450.0,1.0,,,,,,,,,yellow,square
0.0,3.0,2.0,0.0,6.0,6.0,633.7165088625625,8.0,1.0,phase_2,go,500.0,450.0,1.0,,,,,,,,,yellow,square
0.0,8.0,4.0,1.0,6.0,0.0,0.0,8.0,1.0,phase_2,stop,500.0,450.0,4.0,,,,,,,,,blue,hexagon
0.0,2.0,1.0,0.0,5.0,5.0,600.3444609814323,8.0,1.0,phase_2,go,500.0,500.0,1.0,,,,,,,,,green,triangle
0.0,5.0,0.5,1.0,5.0,0.0,0.0,8.0,1.0,phase_2,stop,500.0,500.0,4.0,,,,,,,,,white,I
0.0,5.0,0.5,1.0,6.0,6.0,1074.5724820299074,8.0,1.0,phase_2,go,550.0,500.0,1.0,,,,,,,,,white,I
0.0,7.0,2.0,1.0,5.0,5.0,917.9497419390829,8.0,1.0,phase_2,go,550.0,500.0,1.0,,,,,,,,,orange,circle
0.0,8.0,4.0,1.0,6.0,6.0,660.8554979320616,8.0,1.0,phase_2,stop,550.0,500.0,3.0,,,,,,,,,blue,hexagon
0.0,5.0,0.5,1.0,7.0,3.0,2114.560565911233,1.0,2.0,phase_3,,,,,136.0,4.0,34.0,68.0,136.0,102.0,170.0,204.0,white,I
0.0,4.0,4.0,0.0,7.0,5.0,3624.717731785495,1.0,1.0,phase_3,,,,,162.0,3.0,108.0,54.0,270.0,216.0,162.0,324.0,gray,flipped triangle
0.0,1.0,0.5,0.0,7.0,3.0,3907.018323545344,1.0,1.0,phase_3,,,,,324.0,6.0,54.0,108.0,324.0,216.0,162.0,270.0,cyan,diamond
0.0,8.0,4.0,1.0,7.0,1.0,3817.96043086797,1.0,1.0,phase_3,,,,,98.0,2.0,98.0,49.0,196.0,294.0,245.0,147.0,blue,hexagon
0.0,3.0,2.0,0.0,7.0,3.0,3020.51122719422,1.0,1.0,phase_3,,,,,220.0,5.0,176.0,88.0,220.0,132.0,264.0,44.0,yellow,square
0.0,6.0,1.0,1.0,7.0,5.0,2975.629536784254,1.0,1.0,phase_3,,,,,216.0,4.0,54.0,108.0,324.0,162.0,216.0,270.0,magenta,cross
0.0,1.0,0.5,0.0,7.0,2.0,3325.6711799185723,1.0,1.0,phase_3,,,,,156.0,4.0,39.0,156.0,195.0,78.0,117.0,234.0,cyan,diamond
0.0,2.0,1.0,0.0,7.0,2.0,2639.9271706468426,1.0,1.0,phase_3,,,,,294.0,6.0,245.0,294.0,147.0,196.0,49.0,98.0,green,triangle
0.0,2.0,1.0,0.0,7.0,5.0,1796.9288155436516,1.0,1.0,phase_3,,,,,204.0,6.0,136.0,34.0,102.0,68.0,204.0,170.0,green,triangle
0.0,7.0,2.0,1.0,7.0,4.0,1549.8138417606242,1.0,1.0,phase_3,,,,,162.0,3.0,324.0,108.0,270.0,162.0,216.0,54.0,orange,circle
0.0,3.0,2.0,0.0,7.0,6.0,2407.000628707465,1.0,1.0,phase_3,,,,,245.0,5.0,49.0,98.0,294.0,147.0,196.0,245.0,yellow,square
0.0,3.0,2.0,0.0,7.0,2.0,2678.9176197489724,1.0,1.0,phase_3,,,,,39.0,1.0,156.0,39.0,234.0,117.0,195.0,78.0,yellow,square
0.0,6.0,1.0,1.0,7.0,4.0,1902.549934515264,1.0,1.0,phase_3,,,,,108.0,2.0,324.0,54.0,216.0,108.0,270.0,162.0,magenta,cross
0.0,6.0,1.0,1.0,7.0,3.0,1565.4914408223704,1.0,1.0,phase_3,,,,,294.0,6.0,245.0,147.0,294.0,196.0,49.0,98.0,magenta,cross
0.0,1.0,0.5,0.0,7.0,4.0,2030.2315608714707,1.0,1.0,phase_3,,,,,170.0,5.0,102.0,136.0,34.0,170.0,204.0,68.0,cyan,diamond
0.0,2.0,1.0,0.0,7.0,6.0,949.0798845072276,1.0,1.0,phase_3,,,,,156.0,4.0,234.0,117.0,195.0,39.0,78.0,156.0,green,triangle
0.0,5.0,0.5,1.0,7.0,1.0,1446.025606652256,1.0,1.0,phase_3,,,,,44.0,1.0,44.0,176.0,264.0,132.0,220.0,88.0,white,I
0.0,1.0,0.5,0.0,7.0,3.0,2313.906742376276,1.0,1.0,phase_3,,,,,44.0,1.0,176.0,88.0,44.0,220.0,132.0,264.0,cyan,diamond
0.0,8.0,4.0,1.0,7.0,6.0,2111.1052877968177,1.0,1.0,phase_3,,,,,294.0,6.0,98.0,196.0,147.0,245.0,49.0,294.0,blue,hexagon
0.0,6.0,1.0,1.0,7.0,1.0,1990.3224366134964,1.0,1.0,phase_3,,,,,78.0,2.0,78.0,234.0,195.0,39.0,156.0,117.0,magenta,cross
0.0,1.0,0.5,0.0,7.0,3.0,1465.491343755275,2.0,1.0,phase_3,,,,,245.0,5.0,98.0,196.0,245.0,49.0,147.0,294.0,cyan,diamond
0.0,5.0,0.5,1.0,7.0,4.0,1107.801237842068,2.0,1.0,phase_3,,,,,324.0,6.0,54.0,216.0,162.0,324.0,270.0,108.0,white,I
0.0,7.0,2.0,1.0,7.0,1.0,1829.267261782661,2.0,1.0,phase_3,,,,,88.0,2.0,88.0,220.0,176.0,44.0,132.0,264.0,orange,circle
0.0,3.0,2.0,0.0,7.0,2.0,2573.261401674245,2.0,1.0,phase_3,,,,,98.0,2.0,49.0,98.0,245.0,196.0,147.0,294.0,yellow,square
0.0,1.0,0.5,0.0,7.0,3.0,2842.2005007741973,2.0,1.0,phase_3,,,,,147.0,3.0,196.0,245.0,147.0,98.0,294.0,49.0,cyan,diamond
0.0,4.0,4.0,0.0,7.0,3.0,1707.1935697458684,2.0,1.0,phase_3,,,,,176.0,4.0,88.0,44.0,176.0,220.0,264.0,132.0,gray,flipped triangle
0.0,4.0,4.0,0.0,7.0,5.0,1528.9026457467116,2.0,1.0,phase_3,,,,,234.0,6.0,78.0,156.0,195.0,117.0,234.0,39.0,gray,flipped triangle
0.0,7.0,2.0,1.0,7.0,5.0,2183.70158248581,2.0,1.0,phase_3,,,,,162.0,3.0,216.0,108.0,270.0,324.0,162.0,54.0,orange,circle
0.0,8.0,4.0,1.0,7.0,2.0,1339.9275186820887,2.0,1.0,phase_3,,,,,108.0,2.0,162.0,108.0,54.0,216.0,324.0,270.0,blue,hexagon
0.0,6.0,1.0,1.0,7.0,6.0,1690.0295126251876,2.0,1.0,phase_3,,,,,234.0,6.0,117.0,78.0,156.0,39.0,195.0,234.0,magenta,cross
0.0,8.0,4.0,1.0,7.0,3.0,1689.8290134849958,2.0,1.0,phase_3,,,,,136.0,4.0,170.0,68.0,136.0,102.0,204.0,34.0,blue,hexagon
0.0,6.0,1.0,1.0,7.0,1.0,1972.7662835503,2.0,1.0,phase_3,,,,,88.0,2.0,88.0,176.0,220.0,132.0,264.0,44.0,magenta,cross
0.0,4.0,4.0,0.0,7.0,2.0,1289.1508439206518,2.0,1.0,phase_3,,,,,147.0,3.0,98.0,147.0,49.0,245.0,294.0,196.0,gray,flipped triangle
0.0,5.0,0.5,1.0,7.0,6.0,1975.4132644156923,2.0,1.0,phase_3,,,,,270.0,5.0,54.0,162.0,216.0,324.0,108.0,270.0,white,I
0.0,8.0,4.0,1.0,7.0,2.0,1436.6143148508854,2.0,1.0,phase_3,,,,,117.0,3.0,39.0,117.0,234.0,195.0,156.0,78.0,blue,hexagon
0.0,1.0,0.5,0.0,7.0,6.0,1718.807986646425,2.0,1.0,phase_3,,,,,44.0,1.0,264.0,88.0,132.0,220.0,176.0,44.0,cyan,diamond
0.0,3.0,2.0,0.0,7.0,1.0,1247.926227748394,2.0,1.0,phase_3,,,,,132.0,3.0,132.0,220.0,264.0,88.0,176.0,44.0,yellow,square
0.0,3.0,2.0,0.0,7.0,6.0,1349.224014673382,2.0,1.0,phase_3,,,,,54.0,1.0,216.0,162.0,108.0,324.0,270.0,54.0,yellow,square
0.0,4.0,4.0,0.0,7.0,3.0,1879.672982788179,2.0,1.0,phase_3,,,,,195.0,5.0,234.0,39.0,195.0,117.0,78.0,156.0,gray,flipped triangle
0.0,4.0,4.0,0.0,7.0,5.0,1678.9932888932526,2.0,1.0,phase_3,,,,,204.0,6.0,136.0,102.0,68.0,34.0,204.0,170.0,gray,flipped triangle
0.0,7.0,2.0,1.0,7.0,6.0,1609.8731707315892,3.0,1.0,phase_3,,,,,102.0,3.0,34.0,68.0,136.0,204.0,170.0,102.0,orange,circle
0.0,2.0,1.0,0.0,7.0,5.0,91.6672447347082,3.0,1.0,phase_3,,,,,270.0,5.0,162.0,216.0,54.0,324.0,270.0,108.0,green,triangle
0.0,1.0,0.5,0.0,7.0,2.0,1408.7343478458934,3.0,1.0,phase_3,,,,,170.0,5.0,204.0,170.0,34.0,136.0,68.0,102.0,cyan,diamond
0.0,5.0,0.5,1.0,7.0,1.0,927.5022615329362,3.0,1.0,phase_3,,,,,68.0,2.0,68.0,136.0,34.0,170.0,102.0,204.0,white,I
0.0,2.0,1.0,0.0,7.0,5.0,985.2520735003054,3.0,1.0,phase_3,,,,,44.0,1.0,264.0,176.0,132.0,220.0,44.0,88.0,green,triangle
0.0,5.0,0.5,1.0,7.0,4.0,1029.6213066321798,3.0,1.0,phase_3,,,,,220.0,5.0,132.0,44.0,176.0,220.0,88.0,264.0,white,I
0.0,3.0,2.0,0.0,7.0,2.0,1312.2243662946858,3.0,1.0,phase_3,,,,,68.0,2.0,170.0,68.0,136.0,204.0,34.0,102.0,yellow,square
0.0,2.0,1.0,0.0,7.0,5.0,1168.585494859144,3.0,1.0,phase_3,,,,,234.0,6.0,195.0,39.0,117.0,78.0,234.0,156.0,green,triangle
0.0,7.0,2.0,1.0,7.0,2.0,1102.0380055415444,3.0,1.0,phase_3,,,,,98.0,2.0,147.0,98.0,294.0,49.0,196.0,245.0,orange,circle
0.0,2.0,1.0,0.0,7.0,2.0,1833.1201124819927,3.0,1.0,phase_3,,,,,98.0,2.0,49.0,98.0,294.0,196.0,147.0,245.0,green,triangle
0.0,6.0,1.0,1.0,7.0,1.0,1925.029803882353,3.0,1.0,phase_3,,,,,98.0,2.0,98.0,49.0,245.0,294.0,196.0,147.0,magenta,cross
0.0,3.0,2.0,0.0,7.0,6.0,2612.2990949079394,3.0,1.0,phase_3,,,,,78.0,2.0,117.0,234.0,195.0,39.0,156.0,78.0,yellow,square
0.0,6.0,1.0,1.0,7.0,5.0,2398.825749522075,3.0,1.0,phase_3,,,,,132.0,3.0,220.0,264.0,44.0,88.0,132.0,176.0,magenta,cross
0.0,4.0,4.0,0.0,7.0,3.0,2772.7355695096776,3.0,1.0,phase_3,,,,,196.0,4.0,245.0,49.0,196.0,147.0,294.0,98.0,gray,flipped triangle
0.0,5.0,0.5,1.0,7.0,4.0,3019.9224037351087,3.0,1.0,phase_3,,,,,234.0,6.0,195.0,78.0,39.0,234.0,117.0,156.0,white,I
0.0,4.0,4.0,0.0,7.0,5.0,1434.8650555475615,3.0,1.0,phase_3,,,,,34.0,1.0,68.0,204.0,170.0,102.0,34.0,136.0,gray,flipped triangle
0.0,7.0,2.0,1.0,7.0,2.0,1514.649081742391,3.0,1.0,phase_3,,,,,147.0,3.0,49.0,147.0,294.0,196.0,98.0,245.0,orange,circle
0.0,1.0,0.5,0.0,7.0,5.0,1380.723472626414,3.0,1.0,phase_3,,,,,195.0,5.0,234.0,117.0,78.0,39.0,195.0,156.0,cyan,diamond
0.0,3.0,2.0,0.0,7.0,1.0,1416.3056308752855,3.0,1.0,phase_3,,,,,102.0,3.0,102.0,204.0,136.0,34.0,170.0,68.0,yellow,square
0.0,7.0,2.0,1.0,7.0,4.0,1900.248481775634,3.0,1.0,phase_3,,,,,264.0,6.0,88.0,132.0,44.0,264.0,220.0,176.0,orange,circle
0.0,4.0,4.0,0.0,7.0,4.0,1180.734666530043,4.0,1.0,phase_3,,,,,270.0,5.0,54.0,108.0,324.0,270.0,162.0,216.0,gray,flipped triangle
0.0,2.0,1.0,0.0,7.0,4.0,1149.070269719232,4.0,1.0,phase_3,,,,,204.0,6.0,102.0,170.0,34.0,204.0,136.0,68.0,green,triangle
0.0,8.0,4.0,1.0,7.0,5.0,1385.811579879373,4.0,1.0,phase_3,,,,,176.0,4.0,132.0,220.0,88.0,264.0,176.0,44.0,blue,hexagon
0.0,7.0,2.0,1.0,7.0,2.0,970.3916168655268,4.0,1.0,phase_3,,,,,117.0,3.0,39.0,117.0,78.0,234.0,156.0,195.0,orange,circle
0.0,3.0,2.0,0.0,7.0,3.0,1060.9730777796358,4.0,1.0,phase_3,,,,,162.0,3.0,324.0,108.0,162.0,216.0,54.0,270.0,yellow,square
0.0,7.0,2.0,1.0,7.0,4.0,905.0615687738172,4.0,1.0,phase_3,,,,,156.0,4.0,195.0,78.0,117.0,156.0,39.0,234.0,orange,circle
0.0,2.0,1.0,0.0,7.0,2.0,1546.8580957385711,4.0,1.0,phase_3,,,,,132.0,3.0,264.0,132.0,88.0,220.0,176.0,44.0,green,triangle
0.0,8.0,4.0,1.0,7.0,2.0,1829.217435908504,4.0,1.0,phase_3,,,,,264.0,6.0,176.0,264.0,220.0,132.0,88.0,44.0,blue,hexagon
0.0,5.0,0.5,1.0,7.0,4.0,1347.3828097921796,4.0,1.0,phase_3,,,,,245.0,5.0,196.0,147.0,98.0,245.0,49.0,294.0,white,I
0.0,1.0,0.5,0.0,7.0,4.0,1450.3560845041648,4.0,1.0,phase_3,,,,,324.0,6.0,54.0,162.0,270.0,324.0,216.0,108.0,cyan,diamond
0.0,5.0,0.5,1.0,7.0,4.0,910.2301448583604,4.0,1.0,phase_3,,,,,195.0,5.0,234.0,156.0,78.0,195.0,117.0,39.0,white,I
0.0,4.0,4.0,0.0,7.0,5.0,2183.2128385431133,4.0,1.0,phase_3,,,,,264.0,6.0,176.0,88.0,44.0,132.0,264.0,220.0,gray,flipped triangle
0.0,8.0,4.0,1.0,7.0,6.0,1104.3407345423475,4.0,1.0,phase_3,,,,,204.0,6.0,68.0,34.0,136.0,102.0,170.0,204.0,blue,hexagon
0.0,5.0,0.5,1.0,7.0,2.0,2399.315624788869,4.0,1.0,phase_3,,,,,98.0,2.0,147.0,98.0,245.0,49.0,196.0,294.0,white,I
0.0,2.0,1.0,0.0,7.0,2.0,1038.366589928046,4.0,1.0,phase_3,,,,,54.0,1.0,270.0,54.0,108.0,216.0,162.0,324.0,green,triangle
0.0,8.0,4.0,1.0,7.0,3.0,1456.9313084357418,4.0,1.0,phase_3,,,,,270.0,5.0,324.0,162.0,270.0,54.0,216.0,108.0,blue,hexagon
0.0,6.0,1.0,1.0,7.0,3.0,827.9825637000613,4.0,1.0,phase_3,,,,,170.0,5.0,204.0,136.0,170.0,34.0,102.0,68.0,magenta,cross
0.0,8.0,4.0,1.0,7.0,3.0,929.1872705798596,4.0,1.0,phase_3,,,,,195.0,5.0,78.0,234.0,195.0,39.0,156.0,117.0,blue,hexagon
0.0,7.0,2.0,1.0,7.0,4.0,1830.71467874106,4.0,1.0,phase_3,,,,,102.0,3.0,170.0,204.0,68.0,102.0,34.0,136.0,orange,circle
0.0,6.0,1.0,1.0,7.0,3.0,1652.6447648648173,4.0,1.0,phase_3,,,,,136.0,4.0,204.0,102.0,136.0,170.0,68.0,34.0,magenta,cross
