raw_reward_magnitude,stim_reward,stepwise_reward_magnitude,paired_with_stopping,quadrant,response,reaction_time,block,num_trial_presentations,which_part,stop_signal_trial_type,left_SSD,right_SSD,accuracy,chosen_bidding_amount,chosen_bidding_level,possible_bid_1,possible_bid_2,possible_bid_3,possible_bid_4,possible_bid_5,possible_bid_6,color_text,shape_text
41.0,1.0,1.0,0.0,4.0,4.0,494.5314206415787,1.0,1.0,part_1,,,,,,,,,,,,,gray,diamond
0.0,4.0,0.0,0.0,2.0,2.0,418.2185774552636,1.0,1.0,part_1,,,,,,,,,,,,,blue,hexagon
414.0,4.0,4.0,0.0,4.0,4.0,395.0000614859164,1.0,1.0,part_1,,,,,,,,,,,,,blue,hexagon
0.0,3.0,0.0,0.0,2.0,2.0,340.666405914817,1.0,1.0,part_1,,,,,,,,,,,,,orange,cross
118.0,2.0,2.0,0.0,3.0,3.0,383.7811674457043,1.0,1.0,part_1,,,,,,,,,,,,,green,I
215.0,7.0,3.0,1.0,3.0,3.0,362.1343895210884,1.0,1.0,part_1,,,,,,,,,,,,,cyan,triangle
402.0,4.0,4.0,0.0,4.0,4.0,352.7637106599286,1.0,1.0,part_1,,,,,,,,,,,,,blue,hexagon
57.0,5.0,1.0,1.0,3.0,3.0,340.822237485554,1.0,1.0,part_1,,,,,,,,,,,,,magenta,flipped triangle
56.0,1.0,1.0,0.0,3.0,3.0,364.9774311925284,1.0,1.0,part_1,,,,,,,,,,,,,gray,diamond
117.0,6.0,2.0,1.0,4.0,4.0,433.0378444865346,1.0,1.0,part_1,,,,,,,,,,,,,white,square
178.0,7.0,3.0,1.0,4.0,4.0,354.1216949233785,1.0,1.0,part_1,,,,,,,,,,,,,cyan,triangle
414.0,8.0,4.0,1.0,3.0,3.0,310.4535950697027,1.0,1.0,part_1,,,,,,,,,,,,,yellow,circle
0.0,3.0,0.0,0.0,4.0,4.0,321.015887777321,1.0,1.0,part_1,,,,,,,,,,,,,orange,cross
0.0,3.0,0.0,0.0,2.0,2.0,345.1493608299643,1.0,1.0,part_1,,,,,,,,,,,,,orange,cross
402.0,4.0,4.0,0.0,3.0,3.0,344.8774332064204,1.0,1.0,part_1,,,,,,,,,,,,,blue,hexagon
407.0,8.0,4.0,1.0,2.0,2.0,381.5118134371005,1.0,1.0,part_1,,,,,,,,,,,,,yellow,circle
0.0,3.0,0.0,0.0,1.0,1.0,359.1361034777947,1.0,1.0,part_1,,,,,,,,,,,,,orange,cross
0.0,4.0,0.0,0.0,4.0,4.0,336.0151763772592,1.0,1.0,part_1,,,,,,,,,,,,,blue,hexagon
193.0,3.0,3.0,0.0,4.0,4.0,337.134244677145,1.0,1.0,part_1,,,,,,,,,,,,,orange,cross
74.0,5.0,1.0,1.0,2.0,2.0,359.5881859073415,1.0,1.0,part_1,,,,,,,,,,,,,magenta,flipped triangle
86.0,6.0,2.0,1.0,3.0,3.0,337.9332043696195,1.0,1.0,part_1,,,,,,,,,,,,,white,square
194.0,7.0,3.0,1.0,3.0,3.0,350.2420741715468,1.0,1.0,part_1,,,,,,,,,,,,,cyan,triangle
86.0,2.0,2.0,0.0,3.0,3.0,361.4512074855156,1.0,1.0,part_1,,,,,,,,,,,,,green,I
198.0,7.0,3.0,1.0,4.0,4.0,306.1480129836127,1.0,1.0,part_1,,,,,,,,,,,,,cyan,triangle
0.0,1.0,0.0,0.0,4.0,4.0,384.4378814683296,1.0,1.0,part_1,,,,,,,,,,,,,gray,diamond
30.0,5.0,1.0,1.0,1.0,1.0,317.2079081996344,1.0,1.0,part_1,,,,,,,,,,,,,magenta,flipped triangle
41.0,5.0,1.0,1.0,2.0,2.0,364.3785737804137,1.0,1.0,part_1,,,,,,,,,,,,,magenta,flipped triangle
0.0,5.0,0.0,1.0,4.0,4.0,341.1392290727235,1.0,1.0,part_1,,,,,,,,,,,,,magenta,flipped triangle
0.0,7.0,0.0,1.0,3.0,3.0,354.2035907157697,1.0,1.0,part_1,,,,,,,,,,,,,cyan,triangle
200.0,7.0,3.0,1.0,4.0,4.0,331.3491076696664,1.0,1.0,part_1,,,,,,,,,,,,,cyan,triangle
384.0,4.0,4.0,0.0,1.0,1.0,321.4252612087875,1.0,1.0,part_1,,,,,,,,,,,,,blue,hexagon
108.0,2.0,2.0,0.0,1.0,1.0,356.3903039321303,1.0,1.0,part_1,,,,,,,,,,,,,green,I
121.0,2.0,2.0,0.0,1.0,1.0,343.9811179414391,1.0,1.0,part_1,,,,,,,,,,,,,green,I
378.0,8.0,4.0,1.0,3.0,3.0,378.3351307502016,1.0,1.0,part_1,,,,,,,,,,,,,yellow,circle
69.0,1.0,1.0,0.0,4.0,4.0,380.6220215046778,1.0,1.0,part_1,,,,,,,,,,,,,gray,diamond
182.0,3.0,3.0,0.0,2.0,2.0,392.2987988917157,1.0,1.0,part_1,,,,,,,,,,,,,orange,cross
402.0,8.0,4.0,1.0,3.0,3.0,335.5180547223426,1.0,1.0,part_1,,,,,,,,,,,,,yellow,circle
108.0,6.0,2.0,1.0,4.0,4.0,313.430997019168,1.0,1.0,part_1,,,,,,,,,,,,,white,square
414.0,4.0,4.0,0.0,1.0,1.0,292.7388558164239,1.0,1.0,part_1,,,,,,,,,,,,,blue,hexagon
419.0,8.0,4.0,1.0,4.0,4.0,314.8948728339746,1.0,1.0,part_1,,,,,,,,,,,,,yellow,circle
385.0,4.0,4.0,0.0,1.0,1.0,314.8320588516071,1.0,1.0,part_1,,,,,,,,,,,,,blue,hexagon
425.0,4.0,4.0,0.0,4.0,4.0,303.2747067627497,1.0,1.0,part_1,,,,,,,,,,,,,blue,hexagon
197.0,7.0,3.0,1.0,2.0,2.0,304.6545919496566,1.0,1.0,part_1,,,,,,,,,,,,,cyan,triangle
211.0,3.0,3.0,0.0,3.0,3.0,294.114179094322,1.0,1.0,part_1,,,,,,,,,,,,,orange,cross
53.0,1.0,1.0,0.0,4.0,4.0,362.301146495156,1.0,1.0,part_1,,,,,,,,,,,,,gray,diamond
47.0,5.0,1.0,1.0,2.0,2.0,396.7622884083539,1.0,1.0,part_1,,,,,,,,,,,,,magenta,flipped triangle
125.0,6.0,2.0,1.0,2.0,2.0,353.3829884254373,1.0,1.0,part_1,,,,,,,,,,,,,white,square
65.0,1.0,1.0,0.0,4.0,4.0,342.2359768301248,1.0,1.0,part_1,,,,,,,,,,,,,gray,diamond
0.0,1.0,0.0,0.0,3.0,3.0,376.2301008100621,1.0,1.0,part_1,,,,,,,,,,,,,gray,diamond
120.0,2.0,2.0,0.0,2.0,2.0,308.3051037392579,1.0,1.0,part_1,,,,,,,,,,,,,green,I
99.0,2.0,2.0,0.0,4.0,4.0,354.3291980749927,1.0,1.0,part_1,,,,,,,,,,,,,green,I
414.0,4.0,4.0,0.0,3.0,3.0,399.2723128176294,1.0,1.0,part_1,,,,,,,,,,,,,blue,hexagon
209.0,7.0,3.0,1.0,3.0,3.0,366.073721437715,1.0,1.0,part_1,,,,,,,,,,,,,cyan,triangle
178.0,7.0,3.0,1.0,2.0,2.0,379.6766449231654,1.0,1.0,part_1,,,,,,,,,,,,,cyan,triangle
204.0,3.0,3.0,0.0,1.0,1.0,380.3647834574803,1.0,1.0,part_1,,,,,,,,,,,,,orange,cross
120.0,2.0,2.0,0.0,4.0,4.0,391.5618204628117,1.0,1.0,part_1,,,,,,,,,,,,,green,I
64.0,5.0,1.0,1.0,3.0,3.0,346.3727597845718,1.0,1.0,part_1,,,,,,,,,,,,,magenta,flipped triangle
114.0,2.0,2.0,0.0,2.0,2.0,348.3949443907477,1.0,1.0,part_1,,,,,,,,,,,,,green,I
384.0,8.0,4.0,1.0,4.0,4.0,380.691242753528,1.0,2.0,part_1,,,,,,,,,,,,,yellow,circle
0.0,1.0,0.0,0.0,1.0,1.0,392.7792739705182,1.0,1.0,part_1,,,,,,,,,,,,,gray,diamond
191.0,3.0,3.0,0.0,1.0,1.0,427.3516646353528,1.0,1.0,part_1,,,,,,,,,,,,,orange,cross
101.0,6.0,2.0,1.0,2.0,2.0,327.3170927423052,1.0,1.0,part_1,,,,,,,,,,,,,white,square
219.0,3.0,3.0,0.0,2.0,2.0,417.325321235694,1.0,1.0,part_1,,,,,,,,,,,,,orange,cross
414.0,8.0,4.0,1.0,4.0,4.0,541.5436224429868,1.0,1.0,part_1,,,,,,,,,,,,,yellow,circle
407.0,4.0,4.0,0.0,2.0,2.0,474.3633859907277,1.0,1.0,part_1,,,,,,,,,,,,,blue,hexagon
82.0,6.0,2.0,1.0,1.0,1.0,363.2856869371608,1.0,1.0,part_1,,,,,,,,,,,,,white,square
381.0,8.0,4.0,1.0,1.0,1.0,408.5538166691549,1.0,1.0,part_1,,,,,,,,,,,,,yellow,circle
199.0,3.0,3.0,0.0,4.0,4.0,408.6647582589648,1.0,1.0,part_1,,,,,,,,,,,,,orange,cross
382.0,8.0,4.0,1.0,1.0,1.0,330.9079225873574,1.0,1.0,part_1,,,,,,,,,,,,,yellow,circle
381.0,8.0,4.0,1.0,1.0,1.0,377.8477996820584,1.0,1.0,part_1,,,,,,,,,,,,,yellow,circle
414.0,8.0,4.0,1.0,1.0,1.0,310.3030427009798,1.0,1.0,part_1,,,,,,,,,,,,,yellow,circle
99.0,6.0,2.0,1.0,1.0,1.0,479.3271786766127,1.0,1.0,part_1,,,,,,,,,,,,,white,square
396.0,4.0,4.0,0.0,2.0,2.0,400.9931549080647,1.0,1.0,part_1,,,,,,,,,,,,,blue,hexagon
0.0,2.0,0.0,0.0,3.0,3.0,333.4388906951062,1.0,1.0,part_1,,,,,,,,,,,,,green,I
0.0,7.0,0.0,1.0,3.0,3.0,446.3441609404981,1.0,1.0,part_1,,,,,,,,,,,,,cyan,triangle
0.0,3.0,0.0,0.0,1.0,1.0,391.7868419084698,1.0,1.0,part_1,,,,,,,,,,,,,orange,cross
117.0,2.0,2.0,0.0,2.0,2.0,335.3131789481267,1.0,1.0,part_1,,,,,,,,,,,,,green,I
377.0,4.0,4.0,0.0,3.0,3.0,413.6122221825644,1.0,1.0,part_1,,,,,,,,,,,,,blue,hexagon
0.0,6.0,0.0,1.0,2.0,2.0,326.0054999263957,1.0,1.0,part_1,,,,,,,,,,,,,white,square
424.0,8.0,4.0,1.0,2.0,2.0,315.1589641929604,1.0,1.0,part_1,,,,,,,,,,,,,yellow,circle
0.0,2.0,0.0,0.0,3.0,3.0,438.283771451097,1.0,1.0,part_1,,,,,,,,,,,,,green,I
105.0,2.0,2.0,0.0,1.0,1.0,349.2075236863456,1.0,1.0,part_1,,,,,,,,,,,,,green,I
397.0,8.0,4.0,1.0,2.0,2.0,362.364214437548,1.0,1.0,part_1,,,,,,,,,,,,,yellow,circle
0.0,6.0,0.0,1.0,3.0,3.0,339.0378234325908,1.0,1.0,part_1,,,,,,,,,,,,,white,square
105.0,6.0,2.0,1.0,3.0,3.0,373.1584642082453,1.0,1.0,part_1,,,,,,,,,,,,,white,square
0.0,7.0,0.0,1.0,2.0,2.0,330.6432520621456,1.0,1.0,part_1,,,,,,,,,,,,,cyan,triangle
32.0,5.0,1.0,1.0,3.0,3.0,385.665065201465,1.0,1.0,part_1,,,,,,,,,,,,,magenta,flipped triangle
179.0,3.0,3.0,0.0,2.0,2.0,330.8979654102586,1.0,1.0,part_1,,,,,,,,,,,,,orange,cross
419.0,4.0,4.0,0.0,3.0,3.0,476.6460586688481,1.0,1.0,part_1,,,,,,,,,,,,,blue,hexagon
219.0,7.0,3.0,1.0,4.0,4.0,377.2851866669953,1.0,1.0,part_1,,,,,,,,,,,,,cyan,triangle
188.0,7.0,3.0,1.0,4.0,4.0,398.3633274910971,1.0,1.0,part_1,,,,,,,,,,,,,cyan,triangle
44.0,1.0,1.0,0.0,1.0,1.0,489.7478837519884,1.0,1.0,part_1,,,,,,,,,,,,,gray,diamond
72.0,5.0,1.0,1.0,4.0,4.0,502.03532428713515,1.0,1.0,part_1,,,,,,,,,,,,,magenta,flipped triangle
214.0,3.0,3.0,0.0,2.0,2.0,334.8140754387714,1.0,1.0,part_1,,,,,,,,,,,,,orange,cross
29.0,5.0,1.0,1.0,1.0,1.0,423.9159485441632,1.0,1.0,part_1,,,,,,,,,,,,,magenta,flipped triangle
211.0,3.0,3.0,0.0,4.0,4.0,401.6262340010144,1.0,1.0,part_1,,,,,,,,,,,,,orange,cross
29.0,1.0,1.0,0.0,4.0,4.0,379.6804508892819,1.0,1.0,part_1,,,,,,,,,,,,,gray,diamond
86.0,6.0,2.0,1.0,3.0,3.0,425.7887456915341,1.0,1.0,part_1,,,,,,,,,,,,,white,square
386.0,4.0,4.0,0.0,4.0,4.0,448.0217360542156,1.0,1.0,part_1,,,,,,,,,,,,,blue,hexagon
36.0,5.0,1.0,1.0,4.0,4.0,380.8454747195355,1.0,1.0,part_1,,,,,,,,,,,,,magenta,flipped triangle
0.0,2.0,0.0,0.0,2.0,2.0,410.7978096581064,2.0,1.0,part_1,,,,,,,,,,,,,green,I
32.0,1.0,1.0,0.0,1.0,1.0,376.5680876676924,2.0,1.0,part_1,,,,,,,,,,,,,gray,diamond
0.0,5.0,0.0,1.0,4.0,4.0,366.826728451997,2.0,1.0,part_1,,,,,,,,,,,,,magenta,flipped triangle
81.0,6.0,2.0,1.0,4.0,4.0,355.0271332496777,2.0,1.0,part_1,,,,,,,,,,,,,white,square
424.0,8.0,4.0,1.0,3.0,3.0,342.885211808607,2.0,1.0,part_1,,,,,,,,,,,,,yellow,circle
0.0,8.0,0.0,1.0,4.0,4.0,333.3700198563747,2.0,1.0,part_1,,,,,,,,,,,,,yellow,circle
76.0,6.0,2.0,1.0,1.0,1.0,357.2449990897439,2.0,1.0,part_1,,,,,,,,,,,,,white,square
209.0,3.0,3.0,0.0,3.0,3.0,356.7603710107505,2.0,1.0,part_1,,,,,,,,,,,,,orange,cross
124.0,2.0,2.0,0.0,2.0,2.0,414.7800874779932,2.0,1.0,part_1,,,,,,,,,,,,,green,I
84.0,2.0,2.0,0.0,4.0,4.0,380.1730668055825,2.0,1.0,part_1,,,,,,,,,,,,,green,I
57.0,1.0,1.0,0.0,3.0,3.0,346.4477686793543,2.0,1.0,part_1,,,,,,,,,,,,,gray,diamond
43.0,5.0,1.0,1.0,4.0,4.0,370.0350355356931,2.0,1.0,part_1,,,,,,,,,,,,,magenta,flipped triangle
0.0,3.0,0.0,0.0,3.0,3.0,371.2155610555783,2.0,1.0,part_1,,,,,,,,,,,,,orange,cross
101.0,2.0,2.0,0.0,2.0,2.0,348.9542392198927,2.0,1.0,part_1,,,,,,,,,,,,,green,I
86.0,6.0,2.0,1.0,4.0,4.0,361.602051067166,2.0,1.0,part_1,,,,,,,,,,,,,white,square
0.0,3.0,0.0,0.0,4.0,4.0,360.8487747260369,2.0,1.0,part_1,,,,,,,,,,,,,orange,cross
55.0,5.0,1.0,1.0,3.0,3.0,361.4820032380521,2.0,1.0,part_1,,,,,,,,,,,,,magenta,flipped triangle
0.0,6.0,0.0,1.0,2.0,2.0,351.8588005099445,2.0,1.0,part_1,,,,,,,,,,,,,white,square
67.0,5.0,1.0,1.0,2.0,2.0,329.0752170723863,2.0,1.0,part_1,,,,,,,,,,,,,magenta,flipped triangle
86.0,2.0,2.0,0.0,3.0,3.0,386.9928307831287,2.0,1.0,part_1,,,,,,,,,,,,,green,I
200.0,7.0,3.0,1.0,4.0,4.0,354.1331460583024,2.0,1.0,part_1,,,,,,,,,,,,,cyan,triangle
121.0,6.0,2.0,1.0,3.0,3.0,364.3680329550989,2.0,1.0,part_1,,,,,,,,,,,,,white,square
394.0,8.0,4.0,1.0,4.0,4.0,365.6256329268217,2.0,1.0,part_1,,,,,,,,,,,,,yellow,circle
90.0,2.0,2.0,0.0,1.0,1.0,399.2190697463229,2.0,1.0,part_1,,,,,,,,,,,,,green,I
389.0,4.0,4.0,0.0,3.0,3.0,389.1467596986331,2.0,1.0,part_1,,,,,,,,,,,,,blue,hexagon
97.0,6.0,2.0,1.0,2.0,2.0,344.2798245232552,2.0,1.0,part_1,,,,,,,,,,,,,white,square
193.0,7.0,3.0,1.0,3.0,3.0,422.5247476715594,2.0,1.0,part_1,,,,,,,,,,,,,cyan,triangle
0.0,7.0,0.0,1.0,1.0,1.0,390.0252747698687,2.0,1.0,part_1,,,,,,,,,,,,,cyan,triangle
0.0,6.0,0.0,1.0,2.0,2.0,313.0063490825705,2.0,1.0,part_1,,,,,,,,,,,,,white,square
0.0,1.0,0.0,0.0,2.0,2.0,359.4302642159164,2.0,1.0,part_1,,,,,,,,,,,,,gray,diamond
47.0,1.0,1.0,0.0,1.0,1.0,360.1175576332025,2.0,1.0,part_1,,,,,,,,,,,,,gray,diamond
381.0,4.0,4.0,0.0,2.0,2.0,302.4369617342017,2.0,1.0,part_1,,,,,,,,,,,,,blue,hexagon
389.0,8.0,4.0,1.0,2.0,2.0,348.148894670885,2.0,1.0,part_1,,,,,,,,,,,,,yellow,circle
209.0,7.0,3.0,1.0,4.0,4.0,618.6729116598144,2.0,1.0,part_1,,,,,,,,,,,,,cyan,triangle
198.0,3.0,3.0,0.0,2.0,2.0,373.0673270765692,2.0,1.0,part_1,,,,,,,,,,,,,orange,cross
187.0,7.0,3.0,1.0,4.0,4.0,540.8921682392247,2.0,1.0,part_1,,,,,,,,,,,,,cyan,triangle
381.0,4.0,4.0,0.0,2.0,2.0,352.1179697709158,2.0,1.0,part_1,,,,,,,,,,,,,blue,hexagon
179.0,7.0,3.0,1.0,2.0,2.0,397.0242179348133,2.0,1.0,part_1,,,,,,,,,,,,,cyan,triangle
0.0,8.0,0.0,1.0,2.0,2.0,544.2444817745127,2.0,1.0,part_1,,,,,,,,,,,,,yellow,circle
72.0,5.0,1.0,1.0,4.0,4.0,362.9349719267338,2.0,1.0,part_1,,,,,,,,,,,,,magenta,flipped triangle
65.0,5.0,1.0,1.0,4.0,4.0,352.3823267314583,2.0,1.0,part_1,,,,,,,,,,,,,magenta,flipped triangle
56.0,5.0,1.0,1.0,1.0,1.0,354.3579601100646,2.0,1.0,part_1,,,,,,,,,,,,,magenta,flipped triangle
218.0,3.0,3.0,0.0,1.0,1.0,410.75791680486867,2.0,1.0,part_1,,,,,,,,,,,,,orange,cross
26.0,5.0,1.0,1.0,2.0,2.0,355.8693716768175,2.0,1.0,part_1,,,,,,,,,,,,,magenta,flipped triangle
185.0,3.0,3.0,0.0,3.0,3.0,398.8362466916442,2.0,1.0,part_1,,,,,,,,,,,,,orange,cross
414.0,8.0,4.0,1.0,3.0,3.0,355.2368112141266,2.0,1.0,part_1,,,,,,,,,,,,,yellow,circle
0.0,7.0,0.0,1.0,4.0,4.0,389.3623742042109,2.0,1.0,part_1,,,,,,,,,,,,,cyan,triangle
0.0,8.0,0.0,1.0,4.0,4.0,401.4157283818349,2.0,1.0,part_1,,,,,,,,,,,,,yellow,circle
0.0,7.0,0.0,1.0,2.0,2.0,369.1380074014887,2.0,1.0,part_1,,,,,,,,,,,,,cyan,triangle
408.0,4.0,4.0,0.0,4.0,4.0,436.2728181877173,2.0,1.0,part_1,,,,,,,,,,,,,blue,hexagon
209.0,3.0,3.0,0.0,3.0,3.0,345.9894189145416,2.0,1.0,part_1,,,,,,,,,,,,,orange,cross
99.0,2.0,2.0,0.0,3.0,3.0,414.9192054173909,2.0,1.0,part_1,,,,,,,,,,,,,green,I
418.0,4.0,4.0,0.0,4.0,4.0,427.7487241197377,2.0,1.0,part_1,,,,,,,,,,,,,blue,hexagon
86.0,2.0,2.0,0.0,4.0,4.0,450.9741537040099,2.0,1.0,part_1,,,,,,,,,,,,,green,I
215.0,3.0,3.0,0.0,1.0,1.0,462.6347367302514,2.0,1.0,part_1,,,,,,,,,,,,,orange,cross
72.0,1.0,1.0,0.0,2.0,2.0,407.1154561825096,2.0,1.0,part_1,,,,,,,,,,,,,gray,diamond
87.0,2.0,2.0,0.0,2.0,2.0,407.5593299348838,2.0,1.0,part_1,,,,,,,,,,,,,green,I
192.0,3.0,3.0,0.0,4.0,4.0,395.5300734378397,2.0,1.0,part_1,,,,,,,,,,,,,orange,cross
81.0,2.0,2.0,0.0,3.0,3.0,621.3333024643362,2.0,1.0,part_1,,,,,,,,,,,,,green,I
88.0,6.0,2.0,1.0,4.0,4.0,396.4315767516382,2.0,1.0,part_1,,,,,,,,,,,,,white,square
415.0,8.0,4.0,1.0,1.0,1.0,566.5552179561928,2.0,1.0,part_1,,,,,,,,,,,,,yellow,circle
419.0,8.0,4.0,1.0,4.0,4.0,421.4696104754694,2.0,1.0,part_1,,,,,,,,,,,,,yellow,circle
35.0,1.0,1.0,0.0,2.0,2.0,377.5639736559242,2.0,1.0,part_1,,,,,,,,,,,,,gray,diamond
0.0,7.0,0.0,1.0,3.0,3.0,376.7918609664775,2.0,1.0,part_1,,,,,,,,,,,,,cyan,triangle
0.0,2.0,0.0,0.0,4.0,4.0,409.9779827520251,2.0,1.0,part_1,,,,,,,,,,,,,green,I
76.0,2.0,2.0,0.0,4.0,4.0,389.6304764784872,2.0,1.0,part_1,,,,,,,,,,,,,green,I
0.0,8.0,0.0,1.0,1.0,1.0,467.8582868655212,2.0,1.0,part_1,,,,,,,,,,,,,yellow,circle
188.0,7.0,3.0,1.0,2.0,2.0,367.8276884020306,2.0,1.0,part_1,,,,,,,,,,,,,cyan,triangle
0.0,7.0,0.0,1.0,4.0,4.0,626.4792021829635,2.0,1.0,part_1,,,,,,,,,,,,,cyan,triangle
0.0,6.0,0.0,1.0,1.0,1.0,447.0028348150663,2.0,1.0,part_1,,,,,,,,,,,,,white,square
386.0,4.0,4.0,0.0,4.0,4.0,424.878420017194,2.0,1.0,part_1,,,,,,,,,,,,,blue,hexagon
108.0,6.0,2.0,1.0,4.0,4.0,370.6835936754942,2.0,1.0,part_1,,,,,,,,,,,,,white,square
0.0,2.0,0.0,0.0,4.0,4.0,359.4354222295806,2.0,1.0,part_1,,,,,,,,,,,,,green,I
0.0,5.0,0.0,1.0,3.0,3.0,529.0068825124763,2.0,1.0,part_1,,,,,,,,,,,,,magenta,flipped triangle
182.0,7.0,3.0,1.0,1.0,1.0,506.48103369167075,2.0,1.0,part_1,,,,,,,,,,,,,cyan,triangle
0.0,2.0,0.0,0.0,2.0,2.0,395.4590677749365,2.0,1.0,part_1,,,,,,,,,,,,,green,I
0.0,2.0,0.0,0.0,2.0,2.0,405.7232546620071,2.0,1.0,part_1,,,,,,,,,,,,,green,I
0.0,4.0,0.0,0.0,1.0,1.0,553.724623459857,2.0,1.0,part_1,,,,,,,,,,,,,blue,hexagon
189.0,3.0,3.0,0.0,2.0,2.0,396.8381927115842,2.0,1.0,part_1,,,,,,,,,,,,,orange,cross
402.0,8.0,4.0,1.0,4.0,4.0,407.7179838204756,2.0,1.0,part_1,,,,,,,,,,,,,yellow,circle
31.0,5.0,1.0,1.0,2.0,2.0,363.4185876580886,2.0,1.0,part_1,,,,,,,,,,,,,magenta,flipped triangle
402.0,4.0,4.0,0.0,3.0,3.0,386.8137564277276,2.0,1.0,part_1,,,,,,,,,,,,,blue,hexagon
92.0,2.0,2.0,0.0,2.0,2.0,454.0847913594916,2.0,1.0,part_1,,,,,,,,,,,,,green,I
405.0,4.0,4.0,0.0,1.0,1.0,365.8701527747325,2.0,1.0,part_1,,,,,,,,,,,,,blue,hexagon
38.0,5.0,1.0,1.0,3.0,3.0,431.9464522413909,2.0,1.0,part_1,,,,,,,,,,,,,magenta,flipped triangle
208.0,7.0,3.0,1.0,4.0,4.0,433.7850961019285,2.0,1.0,part_1,,,,,,,,,,,,,cyan,triangle
105.0,6.0,2.0,1.0,4.0,4.0,467.2441174043342,2.0,1.0,part_1,,,,,,,,,,,,,white,square
388.0,8.0,4.0,1.0,2.0,2.0,356.8764101946726,2.0,1.0,part_1,,,,,,,,,,,,,yellow,circle
406.0,8.0,4.0,1.0,3.0,3.0,468.1303467950783,2.0,1.0,part_1,,,,,,,,,,,,,yellow,circle
61.0,5.0,1.0,1.0,3.0,3.0,502.20572523539886,2.0,1.0,part_1,,,,,,,,,,,,,magenta,flipped triangle
423.0,4.0,4.0,0.0,3.0,3.0,514.2424749210477,2.0,1.0,part_1,,,,,,,,,,,,,blue,hexagon
402.0,8.0,4.0,1.0,2.0,2.0,425.9610824519768,2.0,1.0,part_1,,,,,,,,,,,,,yellow,circle
120.0,6.0,2.0,1.0,1.0,1.0,414.7263034828938,2.0,1.0,part_1,,,,,,,,,,,,,white,square
0.0,1.0,0.0,0.0,2.0,2.0,372.3695011576637,2.0,1.0,part_1,,,,,,,,,,,,,gray,diamond
0.0,5.0,0.0,1.0,3.0,3.0,426.5308288158849,2.0,1.0,part_1,,,,,,,,,,,,,magenta,flipped triangle
399.0,4.0,4.0,0.0,2.0,2.0,373.202372866217,2.0,1.0,part_1,,,,,,,,,,,,,blue,hexagon
50.0,1.0,1.0,0.0,3.0,3.0,372.5615445291623,2.0,1.0,part_1,,,,,,,,,,,,,gray,diamond
217.0,7.0,3.0,1.0,2.0,2.0,384.186792478431,2.0,1.0,part_1,,,,,,,,,,,,,cyan,triangle
26.0,1.0,1.0,0.0,1.0,1.0,430.0101944827474,2.0,1.0,part_1,,,,,,,,,,,,,gray,diamond
402.0,8.0,4.0,1.0,3.0,3.0,373.1771496823057,2.0,1.0,part_1,,,,,,,,,,,,,yellow,circle
396.0,8.0,4.0,1.0,4.0,4.0,379.3473219266161,3.0,1.0,part_1,,,,,,,,,,,,,yellow,circle
378.0,4.0,4.0,0.0,2.0,2.0,413.2566779735498,3.0,1.0,part_1,,,,,,,,,,,,,blue,hexagon
0.0,8.0,0.0,1.0,4.0,4.0,356.1890627024695,3.0,1.0,part_1,,,,,,,,,,,,,yellow,circle
26.0,1.0,1.0,0.0,2.0,2.0,481.8022734252736,3.0,1.0,part_1,,,,,,,,,,,,,gray,diamond
122.0,6.0,2.0,1.0,4.0,4.0,324.0638484130613,3.0,1.0,part_1,,,,,,,,,,,,,white,square
63.0,5.0,1.0,1.0,3.0,3.0,358.6073578917421,3.0,1.0,part_1,,,,,,,,,,,,,magenta,flipped triangle
116.0,2.0,2.0,0.0,2.0,2.0,383.2336876657791,3.0,1.0,part_1,,,,,,,,,,,,,green,I
73.0,1.0,1.0,0.0,2.0,2.0,426.799887791276,3.0,1.0,part_1,,,,,,,,,,,,,gray,diamond
199.0,3.0,3.0,0.0,1.0,1.0,439.1144414548762,3.0,1.0,part_1,,,,,,,,,,,,,orange,cross
191.0,7.0,3.0,1.0,3.0,3.0,383.301401976496,3.0,1.0,part_1,,,,,,,,,,,,,cyan,triangle
220.0,7.0,3.0,1.0,1.0,1.0,351.5647776657715,3.0,1.0,part_1,,,,,,,,,,,,,cyan,triangle
0.0,6.0,0.0,1.0,1.0,1.0,384.0080294176005,3.0,1.0,part_1,,,,,,,,,,,,,white,square
46.0,5.0,1.0,1.0,4.0,4.0,395.0522431987338,3.0,1.0,part_1,,,,,,,,,,,,,magenta,flipped triangle
89.0,6.0,2.0,1.0,1.0,1.0,351.3452862389385,3.0,1.0,part_1,,,,,,,,,,,,,white,square
199.0,7.0,3.0,1.0,3.0,3.0,363.5023594251834,3.0,1.0,part_1,,,,,,,,,,,,,cyan,triangle
419.0,4.0,4.0,0.0,1.0,1.0,343.1591259432025,3.0,1.0,part_1,,,,,,,,,,,,,blue,hexagon
84.0,6.0,2.0,1.0,3.0,3.0,409.3621933716349,3.0,1.0,part_1,,,,,,,,,,,,,white,square
418.0,8.0,4.0,1.0,1.0,1.0,500.4903406952508,3.0,1.0,part_1,,,,,,,,,,,,,yellow,circle
0.0,2.0,0.0,0.0,2.0,2.0,344.2403731751255,3.0,1.0,part_1,,,,,,,,,,,,,green,I
124.0,6.0,2.0,1.0,3.0,3.0,365.1210936950519,3.0,1.0,part_1,,,,,,,,,,,,,white,square
105.0,2.0,2.0,0.0,3.0,3.0,535.1638442371041,3.0,1.0,part_1,,,,,,,,,,,,,green,I
39.0,5.0,1.0,1.0,3.0,3.0,367.0173336868174,3.0,1.0,part_1,,,,,,,,,,,,,magenta,flipped triangle
209.0,7.0,3.0,1.0,2.0,2.0,368.2634272263385,3.0,1.0,part_1,,,,,,,,,,,,,cyan,triangle
218.0,3.0,3.0,0.0,1.0,1.0,356.7811586544849,3.0,1.0,part_1,,,,,,,,,,,,,orange,cross
104.0,2.0,2.0,0.0,4.0,4.0,390.8673237310722,3.0,1.0,part_1,,,,,,,,,,,,,green,I
78.0,2.0,2.0,0.0,4.0,4.0,481.4362010802142,3.0,1.0,part_1,,,,,,,,,,,,,green,I
52.0,5.0,1.0,1.0,2.0,2.0,348.4939009649679,3.0,1.0,part_1,,,,,,,,,,,,,magenta,flipped triangle
56.0,5.0,1.0,1.0,1.0,1.0,359.807618195191,3.0,1.0,part_1,,,,,,,,,,,,,magenta,flipped triangle
393.0,8.0,4.0,1.0,1.0,1.0,384.0215797536075,3.0,1.0,part_1,,,,,,,,,,,,,yellow,circle
25.0,1.0,1.0,0.0,3.0,3.0,416.6306135011837,3.0,1.0,part_1,,,,,,,,,,,,,gray,diamond
42.0,1.0,1.0,0.0,3.0,3.0,338.8942123856395,3.0,1.0,part_1,,,,,,,,,,,,,gray,diamond
97.0,2.0,2.0,0.0,1.0,1.0,374.4236264610663,3.0,1.0,part_1,,,,,,,,,,,,,green,I
108.0,2.0,2.0,0.0,4.0,4.0,373.036649718415,3.0,1.0,part_1,,,,,,,,,,,,,green,I
45.0,1.0,1.0,0.0,2.0,2.0,328.9297709707171,3.0,1.0,part_1,,,,,,,,,,,,,gray,diamond
0.0,2.0,0.0,0.0,3.0,3.0,351.9735739682801,3.0,1.0,part_1,,,,,,,,,,,,,green,I
56.0,1.0,1.0,0.0,1.0,1.0,354.0613580844365,3.0,1.0,part_1,,,,,,,,,,,,,gray,diamond
83.0,2.0,2.0,0.0,1.0,1.0,409.4888241961598,3.0,1.0,part_1,,,,,,,,,,,,,green,I
38.0,1.0,1.0,0.0,2.0,2.0,353.9905399084091,3.0,1.0,part_1,,,,,,,,,,,,,gray,diamond
0.0,5.0,0.0,1.0,4.0,4.0,376.8728576833382,3.0,1.0,part_1,,,,,,,,,,,,,magenta,flipped triangle
44.0,1.0,1.0,0.0,1.0,1.0,356.0146276722662,3.0,1.0,part_1,,,,,,,,,,,,,gray,diamond
42.0,5.0,1.0,1.0,2.0,2.0,332.619808439631,3.0,1.0,part_1,,,,,,,,,,,,,magenta,flipped triangle
96.0,2.0,2.0,0.0,2.0,2.0,310.4692624183371,3.0,1.0,part_1,,,,,,,,,,,,,green,I
87.0,6.0,2.0,1.0,2.0,2.0,288.859645195771,3.0,1.0,part_1,,,,,,,,,,,,,white,square
388.0,4.0,4.0,0.0,4.0,4.0,458.2386139081791,3.0,1.0,part_1,,,,,,,,,,,,,blue,hexagon
114.0,6.0,2.0,1.0,4.0,4.0,379.2124609462917,3.0,1.0,part_1,,,,,,,,,,,,,white,square
94.0,2.0,2.0,0.0,1.0,1.0,391.8450117926113,3.0,1.0,part_1,,,,,,,,,,,,,green,I
397.0,4.0,4.0,0.0,1.0,1.0,403.7624644697644,3.0,1.0,part_1,,,,,,,,,,,,,blue,hexagon
121.0,2.0,2.0,0.0,1.0,1.0,370.7939442247152,3.0,1.0,part_1,,,,,,,,,,,,,green,I
222.0,7.0,3.0,1.0,1.0,1.0,313.9944117283448,3.0,1.0,part_1,,,,,,,,,,,,,cyan,triangle
424.0,4.0,4.0,0.0,3.0,3.0,382.5766304507851,3.0,1.0,part_1,,,,,,,,,,,,,blue,hexagon
56.0,5.0,1.0,1.0,1.0,1.0,440.9567232360132,3.0,1.0,part_1,,,,,,,,,,,,,magenta,flipped triangle
0.0,7.0,0.0,1.0,2.0,2.0,338.4334845468402,3.0,1.0,part_1,,,,,,,,,,,,,cyan,triangle
394.0,8.0,4.0,1.0,4.0,4.0,507.88427982479334,3.0,1.0,part_1,,,,,,,,,,,,,yellow,circle
75.0,6.0,2.0,1.0,3.0,3.0,328.9930587052367,3.0,1.0,part_1,,,,,,,,,,,,,white,square
378.0,8.0,4.0,1.0,2.0,2.0,329.1371847735718,3.0,1.0,part_1,,,,,,,,,,,,,yellow,circle
218.0,7.0,3.0,1.0,1.0,1.0,409.8058137460612,3.0,1.0,part_1,,,,,,,,,,,,,cyan,triangle
56.0,1.0,1.0,0.0,2.0,2.0,341.1984794656746,3.0,1.0,part_1,,,,,,,,,,,,,gray,diamond
180.0,3.0,3.0,0.0,4.0,4.0,387.4802854843437,3.0,1.0,part_1,,,,,,,,,,,,,orange,cross
83.0,6.0,2.0,1.0,3.0,3.0,409.5046449219808,3.0,1.0,part_1,,,,,,,,,,,,,white,square
207.0,7.0,3.0,1.0,3.0,3.0,365.9792614053003,3.0,1.0,part_1,,,,,,,,,,,,,cyan,triangle
378.0,4.0,4.0,0.0,1.0,1.0,367.9846795275807,3.0,1.0,part_1,,,,,,,,,,,,,blue,hexagon
218.0,7.0,3.0,1.0,3.0,3.0,344.2498908261768,3.0,1.0,part_1,,,,,,,,,,,,,cyan,triangle
83.0,6.0,2.0,1.0,2.0,2.0,356.5278459573164,3.0,1.0,part_1,,,,,,,,,,,,,white,square
200.0,3.0,3.0,0.0,3.0,3.0,345.3940959298052,3.0,1.0,part_1,,,,,,,,,,,,,orange,cross
211.0,7.0,3.0,1.0,1.0,1.0,381.1899932334199,3.0,1.0,part_1,,,,,,,,,,,,,cyan,triangle
73.0,5.0,1.0,1.0,4.0,4.0,413.556640909519,3.0,1.0,part_1,,,,,,,,,,,,,magenta,flipped triangle
187.0,7.0,3.0,1.0,3.0,3.0,357.5113574624993,3.0,1.0,part_1,,,,,,,,,,,,,cyan,triangle
53.0,5.0,1.0,1.0,4.0,4.0,472.1594579750672,3.0,1.0,part_1,,,,,,,,,,,,,magenta,flipped triangle
55.0,1.0,1.0,0.0,1.0,1.0,539.4284463836811,3.0,1.0,part_1,,,,,,,,,,,,,gray,diamond
0.0,5.0,0.0,1.0,4.0,4.0,393.5599070391617,3.0,1.0,part_1,,,,,,,,,,,,,magenta,flipped triangle
220.0,3.0,3.0,0.0,3.0,3.0,360.6651246664114,3.0,1.0,part_1,,,,,,,,,,,,,orange,cross
73.0,1.0,1.0,0.0,3.0,3.0,462.1726508485153,3.0,1.0,part_1,,,,,,,,,,,,,gray,diamond
0.0,1.0,0.0,0.0,4.0,4.0,496.440983377397,3.0,1.0,part_1,,,,,,,,,,,,,gray,diamond
78.0,6.0,2.0,1.0,2.0,2.0,373.5109085682779,3.0,1.0,part_1,,,,,,,,,,,,,white,square
30.0,1.0,1.0,0.0,1.0,1.0,396.7594474670477,3.0,1.0,part_1,,,,,,,,,,,,,gray,diamond
50.0,5.0,1.0,1.0,1.0,1.0,418.9747360651381,3.0,1.0,part_1,,,,,,,,,,,,,magenta,flipped triangle
83.0,2.0,2.0,0.0,3.0,3.0,398.3537099556997,3.0,1.0,part_1,,,,,,,,,,,,,green,I
25.0,5.0,1.0,1.0,2.0,2.0,354.3215454556048,3.0,1.0,part_1,,,,,,,,,,,,,magenta,flipped triangle
111.0,2.0,2.0,0.0,1.0,1.0,365.2968432288617,3.0,1.0,part_1,,,,,,,,,,,,,green,I
386.0,8.0,4.0,1.0,2.0,2.0,344.2109008901752,3.0,1.0,part_1,,,,,,,,,,,,,yellow,circle
90.0,6.0,2.0,1.0,2.0,2.0,389.8883484653197,3.0,1.0,part_1,,,,,,,,,,,,,white,square
0.0,3.0,0.0,0.0,2.0,2.0,366.9478496885858,3.0,1.0,part_1,,,,,,,,,,,,,orange,cross
0.0,4.0,0.0,0.0,2.0,2.0,344.581858953461,3.0,1.0,part_1,,,,,,,,,,,,,blue,hexagon
423.0,8.0,4.0,1.0,1.0,1.0,380.4725921945646,3.0,1.0,part_1,,,,,,,,,,,,,yellow,circle
388.0,8.0,4.0,1.0,4.0,4.0,358.0871989252046,3.0,1.0,part_1,,,,,,,,,,,,,yellow,circle
185.0,7.0,3.0,1.0,1.0,1.0,335.4807166615501,3.0,1.0,part_1,,,,,,,,,,,,,cyan,triangle
93.0,2.0,2.0,0.0,3.0,3.0,415.1454744278453,3.0,1.0,part_1,,,,,,,,,,,,,green,I
52.0,1.0,1.0,0.0,2.0,2.0,359.4263229169883,3.0,1.0,part_1,,,,,,,,,,,,,gray,diamond
94.0,6.0,2.0,1.0,4.0,4.0,494.8427111958153,3.0,1.0,part_1,,,,,,,,,,,,,white,square
35.0,5.0,1.0,1.0,4.0,4.0,360.4457307374105,3.0,1.0,part_1,,,,,,,,,,,,,magenta,flipped triangle
399.0,8.0,4.0,1.0,2.0,2.0,428.1185736181214,3.0,1.0,part_1,,,,,,,,,,,,,yellow,circle
188.0,3.0,3.0,0.0,4.0,4.0,450.3153936238959,3.0,1.0,part_1,,,,,,,,,,,,,orange,cross
213.0,7.0,3.0,1.0,2.0,2.0,576.4269221108407,3.0,1.0,part_1,,,,,,,,,,,,,cyan,triangle
200.0,3.0,3.0,0.0,1.0,1.0,542.4508009455167,3.0,1.0,part_1,,,,,,,,,,,,,orange,cross
393.0,4.0,4.0,0.0,3.0,3.0,386.0855446546338,3.0,1.0,part_1,,,,,,,,,,,,,blue,hexagon
92.0,6.0,2.0,1.0,1.0,1.0,476.1856595869176,3.0,1.0,part_1,,,,,,,,,,,,,white,square
424.0,4.0,4.0,0.0,1.0,1.0,397.3506149486638,3.0,1.0,part_1,,,,,,,,,,,,,blue,hexagon
388.0,4.0,4.0,0.0,2.0,2.0,330.7962393737398,3.0,1.0,part_1,,,,,,,,,,,,,blue,hexagon
199.0,7.0,3.0,1.0,3.0,3.0,409.8467731964774,3.0,1.0,part_1,,,,,,,,,,,,,cyan,triangle
99.0,6.0,2.0,1.0,2.0,2.0,354.9548487644642,3.0,1.0,part_1,,,,,,,,,,,,,white,square
222.0,3.0,3.0,0.0,3.0,3.0,408.9598996797576,4.0,1.0,part_1,,,,,,,,,,,,,orange,cross
0.0,1.0,0.0,0.0,1.0,1.0,354.3137059314176,4.0,1.0,part_1,,,,,,,,,,,,,gray,diamond
198.0,3.0,3.0,0.0,4.0,4.0,332.3025656864047,4.0,1.0,part_1,,,,,,,,,,,,,orange,cross
211.0,7.0,3.0,1.0,2.0,2.0,333.2739807083271,4.0,1.0,part_1,,,,,,,,,,,,,cyan,triangle
0.0,1.0,0.0,0.0,1.0,1.0,300.0029340037144,4.0,1.0,part_1,,,,,,,,,,,,,gray,diamond
178.0,3.0,3.0,0.0,4.0,4.0,354.4860114925541,4.0,1.0,part_1,,,,,,,,,,,,,orange,cross
217.0,3.0,3.0,0.0,1.0,1.0,312.3059766367078,4.0,1.0,part_1,,,,,,,,,,,,,orange,cross
73.0,5.0,1.0,1.0,1.0,1.0,323.5421479330398,4.0,1.0,part_1,,,,,,,,,,,,,magenta,flipped triangle
88.0,2.0,2.0,0.0,4.0,4.0,290.4595844447613,4.0,1.0,part_1,,,,,,,,,,,,,green,I
0.0,8.0,0.0,1.0,1.0,1.0,347.6217521820217,4.0,1.0,part_1,,,,,,,,,,,,,yellow,circle
187.0,3.0,3.0,0.0,4.0,4.0,312.5356789096258,4.0,1.0,part_1,,,,,,,,,,,,,orange,cross
394.0,4.0,4.0,0.0,2.0,2.0,392.1569586964324,4.0,1.0,part_1,,,,,,,,,,,,,blue,hexagon
0.0,6.0,0.0,1.0,4.0,4.0,337.5654910923913,4.0,1.0,part_1,,,,,,,,,,,,,white,square
39.0,1.0,1.0,0.0,3.0,3.0,393.3396339416504,4.0,1.0,part_1,,,,,,,,,,,,,gray,diamond
0.0,5.0,0.0,1.0,2.0,2.0,350.2095771837048,4.0,1.0,part_1,,,,,,,,,,,,,magenta,flipped triangle
180.0,7.0,3.0,1.0,2.0,2.0,316.1184099153615,4.0,1.0,part_1,,,,,,,,,,,,,cyan,triangle
47.0,5.0,1.0,1.0,3.0,3.0,395.4645068151876,4.0,1.0,part_1,,,,,,,,,,,,,magenta,flipped triangle
96.0,6.0,2.0,1.0,1.0,1.0,384.5163403893821,4.0,1.0,part_1,,,,,,,,,,,,,white,square
0.0,4.0,0.0,0.0,1.0,1.0,420.0554682174697,4.0,1.0,part_1,,,,,,,,,,,,,blue,hexagon
125.0,2.0,2.0,0.0,1.0,1.0,384.7703749779612,4.0,1.0,part_1,,,,,,,,,,,,,green,I
414.0,4.0,4.0,0.0,1.0,1.0,352.2585614118725,4.0,1.0,part_1,,,,,,,,,,,,,blue,hexagon
53.0,1.0,1.0,0.0,3.0,3.0,475.2706504659727,4.0,1.0,part_1,,,,,,,,,,,,,gray,diamond
0.0,3.0,0.0,0.0,2.0,2.0,352.9823081917129,4.0,1.0,part_1,,,,,,,,,,,,,orange,cross
0.0,5.0,0.0,1.0,1.0,1.0,319.9902070919052,4.0,1.0,part_1,,,,,,,,,,,,,magenta,flipped triangle
402.0,4.0,4.0,0.0,2.0,2.0,333.2140051061287,4.0,1.0,part_1,,,,,,,,,,,,,blue,hexagon
118.0,6.0,2.0,1.0,3.0,3.0,376.5839617699384,4.0,1.0,part_1,,,,,,,,,,,,,white,square
0.0,2.0,0.0,0.0,2.0,2.0,367.5482312100939,4.0,1.0,part_1,,,,,,,,,,,,,green,I
0.0,4.0,0.0,0.0,3.0,3.0,354.8218889627605,4.0,1.0,part_1,,,,,,,,,,,,,blue,hexagon
74.0,1.0,1.0,0.0,3.0,3.0,355.9361089137383,4.0,1.0,part_1,,,,,,,,,,,,,gray,diamond
183.0,7.0,3.0,1.0,1.0,1.0,369.6294937399216,4.0,1.0,part_1,,,,,,,,,,,,,cyan,triangle
198.0,7.0,3.0,1.0,1.0,1.0,370.2016441966407,4.0,1.0,part_1,,,,,,,,,,,,,cyan,triangle
385.0,8.0,4.0,1.0,3.0,3.0,481.5162247396074,4.0,1.0,part_1,,,,,,,,,,,,,yellow,circle
408.0,8.0,4.0,1.0,3.0,3.0,470.5306842224672,4.0,1.0,part_1,,,,,,,,,,,,,yellow,circle
209.0,3.0,3.0,0.0,3.0,3.0,369.6281526354141,4.0,1.0,part_1,,,,,,,,,,,,,orange,cross
406.0,4.0,4.0,0.0,2.0,2.0,405.4364584153518,4.0,1.0,part_1,,,,,,,,,,,,,blue,hexagon
0.0,6.0,0.0,1.0,4.0,4.0,439.5034000044688,4.0,1.0,part_1,,,,,,,,,,,,,white,square
0.0,4.0,0.0,0.0,2.0,2.0,439.6584325586445,4.0,1.0,part_1,,,,,,,,,,,,,blue,hexagon
67.0,1.0,1.0,0.0,4.0,4.0,383.0757532268762,4.0,1.0,part_1,,,,,,,,,,,,,gray,diamond
0.0,4.0,0.0,0.0,4.0,4.0,372.6307054748758,4.0,1.0,part_1,,,,,,,,,,,,,blue,hexagon
0.0,5.0,0.0,1.0,2.0,2.0,654.4957214500755,4.0,1.0,part_1,,,,,,,,,,,,,magenta,flipped triangle
178.0,3.0,3.0,0.0,2.0,2.0,318.4973321622237,4.0,1.0,part_1,,,,,,,,,,,,,orange,cross
0.0,6.0,0.0,1.0,3.0,3.0,375.1869995612651,4.0,1.0,part_1,,,,,,,,,,,,,white,square
64.0,1.0,1.0,0.0,3.0,3.0,477.259547507856,4.0,1.0,part_1,,,,,,,,,,,,,gray,diamond
197.0,3.0,3.0,0.0,3.0,3.0,342.3251309432089,4.0,1.0,part_1,,,,,,,,,,,,,orange,cross
207.0,3.0,3.0,0.0,1.0,1.0,342.5955767161213,4.0,1.0,part_1,,,,,,,,,,,,,orange,cross
394.0,4.0,4.0,0.0,3.0,3.0,331.6798344021663,4.0,1.0,part_1,,,,,,,,,,,,,blue,hexagon
75.0,2.0,2.0,0.0,2.0,2.0,423.7797467503696,4.0,1.0,part_1,,,,,,,,,,,,,green,I
187.0,3.0,3.0,0.0,2.0,2.0,379.8798244679346,4.0,1.0,part_1,,,,,,,,,,,,,orange,cross
0.0,8.0,0.0,1.0,2.0,2.0,356.8202619208023,4.0,1.0,part_1,,,,,,,,,,,,,yellow,circle
43.0,1.0,1.0,0.0,2.0,2.0,390.5677908333018,4.0,1.0,part_1,,,,,,,,,,,,,gray,diamond
36.0,1.0,1.0,0.0,4.0,4.0,459.7741849720478,4.0,1.0,part_1,,,,,,,,,,,,,gray,diamond
44.0,5.0,1.0,1.0,4.0,4.0,380.4664114722982,4.0,1.0,part_1,,,,,,,,,,,,,magenta,flipped triangle
63.0,1.0,1.0,0.0,1.0,1.0,325.5730061791837,4.0,1.0,part_1,,,,,,,,,,,,,gray,diamond
0.0,4.0,0.0,0.0,4.0,4.0,370.3753988374956,4.0,1.0,part_1,,,,,,,,,,,,,blue,hexagon
0.0,3.0,0.0,0.0,1.0,1.0,315.902553149499,4.0,1.0,part_1,,,,,,,,,,,,,orange,cross
26.0,5.0,1.0,1.0,3.0,3.0,382.2204359457828,4.0,1.0,part_1,,,,,,,,,,,,,magenta,flipped triangle
213.0,3.0,3.0,0.0,4.0,4.0,360.2305926615372,4.0,1.0,part_1,,,,,,,,,,,,,orange,cross
69.0,5.0,1.0,1.0,2.0,2.0,361.0665339510888,4.0,1.0,part_1,,,,,,,,,,,,,magenta,flipped triangle
405.0,8.0,4.0,1.0,2.0,2.0,384.8715021740645,4.0,1.0,part_1,,,,,,,,,,,,,yellow,circle
46.0,1.0,1.0,0.0,4.0,4.0,361.6635096841492,4.0,1.0,part_1,,,,,,,,,,,,,gray,diamond
82.0,2.0,2.0,0.0,3.0,3.0,509.83106769854203,4.0,1.0,part_1,,,,,,,,,,,,,green,I
0.0,8.0,0.0,1.0,3.0,3.0,352.1453198045492,4.0,1.0,part_1,,,,,,,,,,,,,yellow,circle
121.0,6.0,2.0,1.0,2.0,2.0,421.5095737017691,4.0,1.0,part_1,,,,,,,,,,,,,white,square
47.0,1.0,1.0,0.0,1.0,1.0,388.6193464277312,4.0,1.0,part_1,,,,,,,,,,,,,gray,diamond
120.0,6.0,2.0,1.0,3.0,3.0,342.0959667419083,4.0,1.0,part_1,,,,,,,,,,,,,white,square
0.0,5.0,0.0,1.0,3.0,3.0,332.2878990438767,4.0,1.0,part_1,,,,,,,,,,,,,magenta,flipped triangle
45.0,5.0,1.0,1.0,1.0,1.0,321.7027774080634,4.0,1.0,part_1,,,,,,,,,,,,,magenta,flipped triangle
183.0,3.0,3.0,0.0,1.0,1.0,727.2940606344491,4.0,1.0,part_1,,,,,,,,,,,,,orange,cross
192.0,7.0,3.0,1.0,2.0,2.0,311.0965325031429,4.0,1.0,part_1,,,,,,,,,,,,,cyan,triangle
89.0,2.0,2.0,0.0,3.0,3.0,312.3215906671248,4.0,1.0,part_1,,,,,,,,,,,,,green,I
61.0,1.0,1.0,0.0,4.0,4.0,390.1694607338868,4.0,1.0,part_1,,,,,,,,,,,,,gray,diamond
116.0,6.0,2.0,1.0,1.0,1.0,302.5273310486227,4.0,1.0,part_1,,,,,,,,,,,,,white,square
377.0,8.0,4.0,1.0,3.0,3.0,302.0610334933735,4.0,1.0,part_1,,,,,,,,,,,,,yellow,circle
415.0,4.0,4.0,0.0,1.0,1.0,326.0159459314309,4.0,1.0,part_1,,,,,,,,,,,,,blue,hexagon
189.0,7.0,3.0,1.0,4.0,4.0,370.473385672085,4.0,1.0,part_1,,,,,,,,,,,,,cyan,triangle
188.0,3.0,3.0,0.0,3.0,3.0,359.2021450749598,4.0,1.0,part_1,,,,,,,,,,,,,orange,cross
111.0,6.0,2.0,1.0,2.0,2.0,540.394188661594,4.0,1.0,part_1,,,,,,,,,,,,,white,square
204.0,7.0,3.0,1.0,1.0,1.0,317.504851904232,4.0,1.0,part_1,,,,,,,,,,,,,cyan,triangle
122.0,2.0,2.0,0.0,4.0,4.0,384.4864334096201,4.0,1.0,part_1,,,,,,,,,,,,,green,I
378.0,8.0,4.0,1.0,4.0,4.0,417.8924185107462,4.0,1.0,part_1,,,,,,,,,,,,,yellow,circle
382.0,4.0,4.0,0.0,4.0,4.0,430.2081388887018,4.0,1.0,part_1,,,,,,,,,,,,,blue,hexagon
194.0,3.0,3.0,0.0,2.0,2.0,396.5045327204279,4.0,1.0,part_1,,,,,,,,,,,,,orange,cross
0.0,7.0,0.0,1.0,2.0,2.0,342.3161560785956,4.0,1.0,part_1,,,,,,,,,,,,,cyan,triangle
72.0,1.0,1.0,0.0,2.0,2.0,544.4555645226501,4.0,1.0,part_1,,,,,,,,,,,,,gray,diamond
53.0,5.0,1.0,1.0,1.0,1.0,331.2958473688923,4.0,1.0,part_1,,,,,,,,,,,,,magenta,flipped triangle
0.0,1.0,0.0,0.0,4.0,4.0,456.2216037302278,4.0,1.0,part_1,,,,,,,,,,,,,gray,diamond
386.0,8.0,4.0,1.0,1.0,1.0,390.2567691984586,4.0,1.0,part_1,,,,,,,,,,,,,yellow,circle
0.0,1.0,0.0,0.0,4.0,4.0,379.2477314709686,4.0,1.0,part_1,,,,,,,,,,,,,gray,diamond
208.0,3.0,3.0,0.0,2.0,2.0,380.0141619867645,4.0,1.0,part_1,,,,,,,,,,,,,orange,cross
93.0,6.0,2.0,1.0,1.0,1.0,322.5650024251081,4.0,1.0,part_1,,,,,,,,,,,,,white,square
0.0,8.0,0.0,1.0,3.0,3.0,447.1718451241031,4.0,1.0,part_1,,,,,,,,,,,,,yellow,circle
214.0,7.0,3.0,1.0,1.0,1.0,347.4153712159022,4.0,1.0,part_1,,,,,,,,,,,,,cyan,triangle
425.0,8.0,4.0,1.0,1.0,1.0,323.8994619459845,4.0,1.0,part_1,,,,,,,,,,,,,yellow,circle
31.0,1.0,1.0,0.0,4.0,4.0,393.2640464627184,4.0,1.0,part_1,,,,,,,,,,,,,gray,diamond
378.0,4.0,4.0,0.0,4.0,4.0,360.1016867905855,4.0,1.0,part_1,,,,,,,,,,,,,blue,hexagon
104.0,6.0,2.0,1.0,1.0,1.0,381.5951247233897,4.0,1.0,part_1,,,,,,,,,,,,,white,square
0.0,8.0,0.0,1.0,1.0,1.0,382.488987990655,4.0,1.0,part_1,,,,,,,,,,,,,yellow,circle
44.0,5.0,1.0,1.0,1.0,1.0,328.3776034368202,4.0,1.0,part_1,,,,,,,,,,,,,magenta,flipped triangle
0.0,6.0,0.0,1.0,4.0,4.0,361.2214654567651,4.0,1.0,part_1,,,,,,,,,,,,,white,square
0.0,4.0,0.0,0.0,1.0,1.0,361.8949351948686,4.0,1.0,part_1,,,,,,,,,,,,,blue,hexagon
0.0,3.0,3.0,0.0,5.0,5.0,578.9459670777433,1.0,0.0,part_2,go,250.0,250.0,1.0,,,,,,,,,orange,cross
0.0,2.0,2.0,0.0,6.0,6.0,938.3501640404576,1.0,0.0,part_2,go,250.0,250.0,1.0,,,,,,,,,green,I
0.0,4.0,4.0,0.0,6.0,6.0,862.0003634132445,1.0,0.0,part_2,go,250.0,250.0,1.0,,,,,,,,,blue,hexagon
0.0,8.0,4.0,1.0,6.0,0.0,0.0,1.0,0.0,part_2,stop,250.0,250.0,4.0,,,,,,,,,yellow,circle
0.0,2.0,2.0,0.0,5.0,5.0,783.6719943443313,1.0,0.0,part_2,go,250.0,300.0,1.0,,,,,,,,,green,I
0.0,1.0,1.0,0.0,6.0,6.0,953.5697536775842,1.0,0.0,part_2,go,250.0,300.0,1.0,,,,,,,,,gray,diamond
0.0,4.0,4.0,0.0,5.0,5.0,1010.1254944456739,1.0,0.0,part_2,go,250.0,300.0,1.0,,,,,,,,,blue,hexagon
0.0,7.0,3.0,1.0,6.0,0.0,0.0,1.0,0.0,part_2,stop,250.0,300.0,4.0,,,,,,,,,cyan,triangle
0.0,7.0,3.0,1.0,5.0,0.0,0.0,1.0,0.0,part_2,stop,250.0,350.0,4.0,,,,,,,,,cyan,triangle
0.0,4.0,4.0,0.0,5.0,5.0,709.8734873579815,1.0,0.0,part_2,go,300.0,350.0,1.0,,,,,,,,,blue,hexagon
0.0,5.0,1.0,1.0,5.0,0.0,0.0,1.0,0.0,part_2,stop,300.0,350.0,4.0,,,,,,,,,magenta,flipped triangle
0.0,7.0,3.0,1.0,5.0,5.0,745.0866173603572,1.0,0.0,part_2,go,350.0,350.0,1.0,,,,,,,,,cyan,triangle
0.0,1.0,1.0,0.0,5.0,5.0,858.8085630908608,1.0,0.0,part_2,go,350.0,350.0,1.0,,,,,,,,,gray,diamond
0.0,3.0,3.0,0.0,6.0,6.0,780.3375876974314,1.0,0.0,part_2,go,350.0,350.0,1.0,,,,,,,,,orange,cross
0.0,7.0,3.0,1.0,6.0,0.0,0.0,1.0,0.0,part_2,stop,350.0,350.0,4.0,,,,,,,,,cyan,triangle
0.0,4.0,4.0,0.0,6.0,6.0,769.5678530726582,1.0,0.0,part_2,go,350.0,400.0,1.0,,,,,,,,,blue,hexagon
0.0,3.0,3.0,0.0,5.0,5.0,771.188912098296,1.0,0.0,part_2,go,350.0,400.0,1.0,,,,,,,,,orange,cross
0.0,3.0,3.0,0.0,5.0,5.0,750.4146680585109,1.0,0.0,part_2,go,350.0,400.0,1.0,,,,,,,,,orange,cross
0.0,6.0,2.0,1.0,5.0,0.0,0.0,1.0,0.0,part_2,stop,350.0,400.0,4.0,,,,,,,,,white,square
0.0,6.0,2.0,1.0,5.0,0.0,0.0,1.0,0.0,part_2,stop,400.0,400.0,4.0,,,,,,,,,white,square
0.0,2.0,2.0,0.0,6.0,6.0,695.0741280452348,1.0,0.0,part_2,go,450.0,400.0,1.0,,,,,,,,,green,I
0.0,6.0,2.0,1.0,6.0,0.0,0.0,1.0,0.0,part_2,stop,450.0,400.0,4.0,,,,,,,,,white,square
0.0,2.0,2.0,0.0,5.0,5.0,630.1316323806532,1.0,0.0,part_2,go,450.0,450.0,1.0,,,,,,,,,green,I
0.0,1.0,1.0,0.0,6.0,6.0,766.6801456944086,1.0,0.0,part_2,go,450.0,450.0,1.0,,,,,,,,,gray,diamond
0.0,8.0,4.0,1.0,6.0,6.0,643.2673263479955,1.0,0.0,part_2,go,450.0,450.0,1.0,,,,,,,,,yellow,circle
0.0,3.0,3.0,0.0,6.0,6.0,901.701038063038,1.0,0.0,part_2,go,450.0,450.0,1.0,,,,,,,,,orange,cross
0.0,8.0,4.0,1.0,5.0,0.0,0.0,1.0,0.0,part_2,stop,450.0,450.0,4.0,,,,,,,,,yellow,circle
0.0,8.0,4.0,1.0,6.0,0.0,0.0,1.0,0.0,part_2,stop,500.0,450.0,4.0,,,,,,,,,yellow,circle
0.0,5.0,1.0,1.0,5.0,0.0,0.0,1.0,0.0,part_2,stop,500.0,500.0,4.0,,,,,,,,,magenta,flipped triangle
0.0,4.0,4.0,0.0,5.0,5.0,782.9148003947921,1.0,0.0,part_2,go,550.0,500.0,1.0,,,,,,,,,blue,hexagon
0.0,6.0,2.0,1.0,6.0,0.0,0.0,1.0,0.0,part_2,stop,550.0,500.0,4.0,,,,,,,,,white,square
0.0,7.0,3.0,1.0,5.0,5.0,728.4657373675145,1.0,0.0,part_2,go,550.0,550.0,1.0,,,,,,,,,cyan,triangle
0.0,8.0,4.0,1.0,6.0,6.0,829.9014759832062,1.0,0.0,part_2,go,550.0,550.0,1.0,,,,,,,,,yellow,circle
0.0,2.0,2.0,0.0,5.0,5.0,775.1361447153613,1.0,0.0,part_2,go,550.0,550.0,1.0,,,,,,,,,green,I
0.0,5.0,1.0,1.0,6.0,0.0,0.0,1.0,0.0,part_2,stop,550.0,550.0,4.0,,,,,,,,,magenta,flipped triangle
0.0,6.0,2.0,1.0,5.0,5.0,754.2441110126674,1.0,0.0,part_2,go,550.0,600.0,1.0,,,,,,,,,white,square
0.0,3.0,3.0,0.0,6.0,6.0,302.8364403871819,2.0,0.0,part_2,go,550.0,600.0,1.0,,,,,,,,,orange,cross
0.0,1.0,1.0,0.0,5.0,5.0,270.1012316392734,2.0,0.0,part_2,go,550.0,600.0,1.0,,,,,,,,,gray,diamond
0.0,7.0,3.0,1.0,6.0,6.0,281.5097596612759,2.0,0.0,part_2,stop,550.0,600.0,3.0,,,,,,,,,cyan,triangle
0.0,1.0,1.0,0.0,5.0,5.0,271.6053260373883,2.0,0.0,part_2,go,550.0,550.0,1.0,,,,,,,,,gray,diamond
0.0,6.0,2.0,1.0,6.0,6.0,260.366826376412,2.0,0.0,part_2,stop,550.0,550.0,3.0,,,,,,,,,white,square
0.0,1.0,1.0,0.0,5.0,5.0,206.0770873213186,2.0,0.0,part_2,go,550.0,500.0,1.0,,,,,,,,,gray,diamond
0.0,8.0,4.0,1.0,5.0,5.0,296.892904676497,2.0,0.0,part_2,stop,550.0,500.0,3.0,,,,,,,,,yellow,circle
0.0,1.0,1.0,0.0,6.0,6.0,274.4332570582628,2.0,0.0,part_2,go,500.0,500.0,1.0,,,,,,,,,gray,diamond
0.0,2.0,2.0,0.0,6.0,6.0,309.5778486458584,2.0,0.0,part_2,go,500.0,500.0,1.0,,,,,,,,,green,I
0.0,5.0,1.0,1.0,5.0,5.0,208.1404226482845,2.0,0.0,part_2,stop,500.0,500.0,3.0,,,,,,,,,magenta,flipped triangle
0.0,8.0,4.0,1.0,5.0,5.0,299.3388323229737,2.0,0.0,part_2,stop,450.0,500.0,3.0,,,,,,,,,yellow,circle
0.0,8.0,4.0,1.0,6.0,6.0,255.40783040923998,2.0,0.0,part_2,stop,400.0,500.0,3.0,,,,,,,,,yellow,circle
0.0,4.0,4.0,0.0,6.0,6.0,470.12530511710787,2.0,0.0,part_2,go,400.0,450.0,1.0,,,,,,,,,blue,hexagon
0.0,8.0,4.0,1.0,5.0,5.0,244.806864997372,2.0,0.0,part_2,stop,400.0,450.0,3.0,,,,,,,,,yellow,circle
0.0,3.0,3.0,0.0,5.0,5.0,269.6242406964302,2.0,0.0,part_2,go,350.0,450.0,1.0,,,,,,,,,orange,cross
0.0,7.0,3.0,1.0,5.0,5.0,270.7067453302443,2.0,0.0,part_2,stop,350.0,450.0,3.0,,,,,,,,,cyan,triangle
0.0,5.0,1.0,1.0,5.0,5.0,281.5458007389679,2.0,0.0,part_2,stop,300.0,450.0,3.0,,,,,,,,,magenta,flipped triangle
0.0,4.0,4.0,0.0,5.0,5.0,295.2398057095706,2.0,0.0,part_2,go,250.0,450.0,1.0,,,,,,,,,blue,hexagon
0.0,2.0,2.0,0.0,5.0,5.0,282.8024117043242,2.0,0.0,part_2,go,250.0,450.0,1.0,,,,,,,,,green,I
0.0,7.0,3.0,1.0,6.0,6.0,273.5547350021079,2.0,0.0,part_2,go,250.0,450.0,1.0,,,,,,,,,cyan,triangle
0.0,2.0,2.0,0.0,6.0,6.0,307.5414426857605,2.0,0.0,part_2,go,250.0,450.0,1.0,,,,,,,,,green,I
0.0,7.0,3.0,1.0,6.0,6.0,285.2557293372229,2.0,0.0,part_2,stop,250.0,450.0,3.0,,,,,,,,,cyan,triangle
0.0,3.0,3.0,0.0,5.0,5.0,253.2830013660714,2.0,0.0,part_2,go,250.0,400.0,1.0,,,,,,,,,orange,cross
0.0,5.0,1.0,1.0,5.0,5.0,332.78648002306,2.0,0.0,part_2,stop,250.0,400.0,3.0,,,,,,,,,magenta,flipped triangle
0.0,6.0,2.0,1.0,5.0,5.0,254.97775303665549,2.0,0.0,part_2,go,200.0,400.0,1.0,,,,,,,,,white,square
0.0,3.0,3.0,0.0,6.0,6.0,256.8358237040229,2.0,0.0,part_2,go,200.0,400.0,1.0,,,,,,,,,orange,cross
0.0,3.0,3.0,0.0,5.0,5.0,268.8173876958899,2.0,0.0,part_2,go,200.0,400.0,1.0,,,,,,,,,orange,cross
0.0,8.0,4.0,1.0,5.0,5.0,279.5795510173775,2.0,0.0,part_2,stop,200.0,400.0,3.0,,,,,,,,,yellow,circle
0.0,5.0,1.0,1.0,5.0,5.0,270.3681266284548,2.0,0.0,part_2,go,150.0,400.0,1.0,,,,,,,,,magenta,flipped triangle
0.0,3.0,3.0,0.0,6.0,6.0,293.1959636625834,2.0,0.0,part_2,go,150.0,400.0,1.0,,,,,,,,,orange,cross
0.0,3.0,3.0,0.0,6.0,6.0,283.5036989999935,2.0,0.0,part_2,go,150.0,400.0,1.0,,,,,,,,,orange,cross
0.0,1.0,1.0,0.0,6.0,6.0,305.7165890932083,2.0,0.0,part_2,go,150.0,400.0,1.0,,,,,,,,,gray,diamond
0.0,8.0,4.0,1.0,5.0,5.0,284.8141203285195,2.0,0.0,part_2,stop,150.0,400.0,3.0,,,,,,,,,yellow,circle
0.0,7.0,3.0,1.0,6.0,6.0,216.9725953135639,2.0,0.0,part_2,stop,100.0,400.0,3.0,,,,,,,,,cyan,triangle
0.0,2.0,2.0,0.0,6.0,6.0,309.3596103717573,2.0,0.0,part_2,go,100.0,350.0,1.0,,,,,,,,,green,I
0.0,6.0,2.0,1.0,5.0,5.0,231.6328257438726,2.0,0.0,part_2,stop,100.0,350.0,3.0,,,,,,,,,white,square
0.0,7.0,3.0,1.0,6.0,6.0,453.7055700202472,3.0,0.0,part_2,stop,50.0,350.0,3.0,,,,,,,,,cyan,triangle
0.0,2.0,2.0,0.0,6.0,6.0,320.1156943687238,3.0,0.0,part_2,go,50.0,300.0,1.0,,,,,,,,,green,I
0.0,6.0,2.0,1.0,5.0,0.0,0.0,3.0,0.0,part_2,stop,50.0,300.0,4.0,,,,,,,,,white,square
0.0,8.0,4.0,1.0,6.0,6.0,277.0690630422905,3.0,0.0,part_2,stop,100.0,300.0,3.0,,,,,,,,,yellow,circle
0.0,3.0,3.0,0.0,6.0,6.0,480.628585384693,3.0,0.0,part_2,go,100.0,250.0,1.0,,,,,,,,,orange,cross
0.0,1.0,1.0,0.0,6.0,6.0,570.6052273744717,3.0,0.0,part_2,go,100.0,250.0,1.0,,,,,,,,,gray,diamond
0.0,4.0,4.0,0.0,5.0,5.0,471.3574927300215,3.0,0.0,part_2,go,100.0,250.0,1.0,,,,,,,,,blue,hexagon
0.0,8.0,4.0,1.0,6.0,6.0,245.4508949886076,3.0,0.0,part_2,stop,100.0,250.0,3.0,,,,,,,,,yellow,circle
0.0,6.0,2.0,1.0,6.0,0.0,0.0,3.0,0.0,part_2,stop,100.0,200.0,4.0,,,,,,,,,white,square
0.0,3.0,3.0,0.0,5.0,5.0,494.6692769881338,3.0,0.0,part_2,go,100.0,250.0,1.0,,,,,,,,,orange,cross
0.0,1.0,1.0,0.0,6.0,6.0,608.2180304219946,3.0,0.0,part_2,go,100.0,250.0,1.0,,,,,,,,,gray,diamond
0.0,7.0,3.0,1.0,6.0,0.0,0.0,3.0,0.0,part_2,stop,100.0,250.0,4.0,,,,,,,,,cyan,triangle
0.0,5.0,1.0,1.0,6.0,0.0,0.0,3.0,0.0,part_2,stop,100.0,300.0,4.0,,,,,,,,,magenta,flipped triangle
0.0,4.0,4.0,0.0,6.0,6.0,632.9673050204292,3.0,0.0,part_2,go,100.0,350.0,1.0,,,,,,,,,blue,hexagon
0.0,8.0,4.0,1.0,5.0,0.0,0.0,3.0,0.0,part_2,stop,100.0,350.0,4.0,,,,,,,,,yellow,circle
0.0,5.0,1.0,1.0,5.0,5.0,454.5171183417551,3.0,0.0,part_2,go,150.0,350.0,1.0,,,,,,,,,magenta,flipped triangle
0.0,7.0,3.0,1.0,5.0,0.0,0.0,3.0,0.0,part_2,stop,150.0,350.0,4.0,,,,,,,,,cyan,triangle
0.0,5.0,1.0,1.0,6.0,0.0,0.0,3.0,0.0,part_2,stop,200.0,350.0,4.0,,,,,,,,,magenta,flipped triangle
0.0,1.0,1.0,0.0,6.0,6.0,458.0308123258874,3.0,0.0,part_2,go,200.0,400.0,1.0,,,,,,,,,gray,diamond
0.0,8.0,4.0,1.0,5.0,5.0,639.7042903699912,3.0,0.0,part_2,go,200.0,400.0,1.0,,,,,,,,,yellow,circle
0.0,5.0,1.0,1.0,6.0,6.0,537.9270756966434,3.0,0.0,part_2,stop,200.0,400.0,3.0,,,,,,,,,magenta,flipped triangle
0.0,8.0,4.0,1.0,6.0,0.0,0.0,3.0,0.0,part_2,stop,200.0,350.0,4.0,,,,,,,,,yellow,circle
0.0,5.0,1.0,1.0,6.0,0.0,0.0,3.0,0.0,part_2,stop,200.0,400.0,4.0,,,,,,,,,magenta,flipped triangle
0.0,1.0,1.0,0.0,5.0,5.0,922.1817576908506,3.0,0.0,part_2,go,200.0,450.0,1.0,,,,,,,,,gray,diamond
0.0,2.0,2.0,0.0,5.0,5.0,833.8452996686101,3.0,0.0,part_2,go,200.0,450.0,1.0,,,,,,,,,green,I
0.0,2.0,2.0,0.0,6.0,6.0,620.5797880538739,3.0,0.0,part_2,go,200.0,450.0,1.0,,,,,,,,,green,I
0.0,3.0,3.0,0.0,5.0,5.0,622.9484630166553,3.0,0.0,part_2,go,200.0,450.0,1.0,,,,,,,,,orange,cross
0.0,2.0,2.0,0.0,5.0,5.0,588.8406897429377,3.0,0.0,part_2,go,200.0,450.0,1.0,,,,,,,,,green,I
0.0,4.0,4.0,0.0,6.0,6.0,588.9872693805955,3.0,0.0,part_2,go,200.0,450.0,1.0,,,,,,,,,blue,hexagon
0.0,5.0,1.0,1.0,6.0,6.0,614.3843660247512,3.0,0.0,part_2,stop,200.0,450.0,3.0,,,,,,,,,magenta,flipped triangle
0.0,1.0,1.0,0.0,6.0,6.0,557.7156523941085,3.0,0.0,part_2,go,200.0,400.0,1.0,,,,,,,,,gray,diamond
0.0,3.0,3.0,0.0,6.0,6.0,704.3862076825462,3.0,0.0,part_2,go,200.0,400.0,1.0,,,,,,,,,orange,cross
0.0,6.0,2.0,1.0,5.0,0.0,0.0,3.0,0.0,part_2,stop,200.0,400.0,4.0,,,,,,,,,white,square
0.0,2.0,2.0,0.0,5.0,5.0,696.3698134059086,3.0,0.0,part_2,go,250.0,400.0,1.0,,,,,,,,,green,I
0.0,2.0,2.0,0.0,6.0,6.0,346.7534113442525,3.0,0.0,part_2,go,250.0,400.0,1.0,,,,,,,,,green,I
0.0,1.0,1.0,0.0,5.0,5.0,618.7339807511307,3.0,0.0,part_2,go,250.0,400.0,1.0,,,,,,,,,gray,diamond
0.0,3.0,3.0,0.0,5.0,5.0,384.3164216959849,4.0,0.0,part_2,go,250.0,400.0,1.0,,,,,,,,,orange,cross
0.0,4.0,4.0,0.0,6.0,6.0,353.0086973914876,4.0,0.0,part_2,go,250.0,400.0,1.0,,,,,,,,,blue,hexagon
0.0,4.0,4.0,0.0,6.0,6.0,363.8755943975411,4.0,0.0,part_2,go,250.0,400.0,1.0,,,,,,,,,blue,hexagon
0.0,5.0,1.0,1.0,5.0,0.0,0.0,4.0,0.0,part_2,stop,250.0,400.0,4.0,,,,,,,,,magenta,flipped triangle
0.0,4.0,4.0,0.0,6.0,6.0,444.3113050074316,4.0,0.0,part_2,go,300.0,400.0,1.0,,,,,,,,,blue,hexagon
0.0,5.0,1.0,1.0,5.0,0.0,0.0,4.0,0.0,part_2,stop,300.0,400.0,4.0,,,,,,,,,magenta,flipped triangle
0.0,3.0,3.0,0.0,6.0,6.0,458.5517813684419,4.0,0.0,part_2,go,350.0,400.0,1.0,,,,,,,,,orange,cross
0.0,6.0,2.0,1.0,5.0,5.0,538.7603179551661,4.0,0.0,part_2,go,350.0,400.0,1.0,,,,,,,,,white,square
0.0,3.0,3.0,0.0,6.0,6.0,661.3322020857595,4.0,0.0,part_2,go,350.0,400.0,1.0,,,,,,,,,orange,cross
0.0,3.0,3.0,0.0,5.0,5.0,504.5865190331824,4.0,0.0,part_2,go,350.0,400.0,1.0,,,,,,,,,orange,cross
0.0,1.0,1.0,0.0,5.0,5.0,583.9288080460392,4.0,0.0,part_2,go,350.0,400.0,1.0,,,,,,,,,gray,diamond
0.0,5.0,1.0,1.0,6.0,6.0,506.6020790254697,4.0,0.0,part_2,stop,350.0,400.0,3.0,,,,,,,,,magenta,flipped triangle
0.0,6.0,2.0,1.0,6.0,0.0,0.0,4.0,0.0,part_2,stop,350.0,350.0,4.0,,,,,,,,,white,square
0.0,2.0,2.0,0.0,5.0,5.0,531.0244361171499,4.0,0.0,part_2,go,350.0,400.0,1.0,,,,,,,,,green,I
0.0,2.0,2.0,0.0,5.0,5.0,385.3463499690406,4.0,0.0,part_2,go,350.0,400.0,1.0,,,,,,,,,green,I
0.0,6.0,2.0,1.0,6.0,6.0,354.091284039896,4.0,0.0,part_2,stop,350.0,400.0,3.0,,,,,,,,,white,square
0.0,7.0,3.0,1.0,5.0,0.0,0.0,4.0,0.0,part_2,stop,350.0,350.0,4.0,,,,,,,,,cyan,triangle
0.0,4.0,4.0,0.0,5.0,5.0,534.5910823089071,4.0,0.0,part_2,go,400.0,350.0,1.0,,,,,,,,,blue,hexagon
0.0,5.0,1.0,1.0,6.0,6.0,614.4941616803408,4.0,0.0,part_2,go,400.0,350.0,1.0,,,,,,,,,magenta,flipped triangle
0.0,8.0,4.0,1.0,6.0,0.0,0.0,4.0,0.0,part_2,stop,400.0,350.0,4.0,,,,,,,,,yellow,circle
0.0,2.0,2.0,0.0,5.0,5.0,660.9159180661663,4.0,0.0,part_2,go,400.0,400.0,1.0,,,,,,,,,green,I
0.0,1.0,1.0,0.0,5.0,5.0,628.2652457011864,4.0,0.0,part_2,go,400.0,400.0,1.0,,,,,,,,,gray,diamond
0.0,8.0,4.0,1.0,6.0,0.0,0.0,4.0,0.0,part_2,stop,400.0,400.0,4.0,,,,,,,,,yellow,circle
0.0,4.0,4.0,0.0,5.0,5.0,629.0376773686148,4.0,0.0,part_2,go,400.0,450.0,1.0,,,,,,,,,blue,hexagon
0.0,4.0,4.0,0.0,5.0,5.0,552.4047343060374,4.0,0.0,part_2,go,400.0,450.0,1.0,,,,,,,,,blue,hexagon
0.0,3.0,3.0,0.0,5.0,5.0,630.7453983463347,4.0,0.0,part_2,go,400.0,450.0,1.0,,,,,,,,,orange,cross
0.0,5.0,1.0,1.0,5.0,0.0,0.0,4.0,0.0,part_2,stop,400.0,450.0,4.0,,,,,,,,,magenta,flipped triangle
0.0,2.0,2.0,0.0,5.0,5.0,464.6415830357,4.0,0.0,part_2,go,450.0,450.0,1.0,,,,,,,,,green,I
0.0,8.0,4.0,1.0,6.0,6.0,702.5172931025736,4.0,0.0,part_2,go,450.0,450.0,1.0,,,,,,,,,yellow,circle
0.0,3.0,3.0,0.0,5.0,5.0,678.4893006552011,4.0,0.0,part_2,go,450.0,450.0,1.0,,,,,,,,,orange,cross
0.0,4.0,4.0,0.0,5.0,5.0,545.3099512960762,4.0,0.0,part_2,go,450.0,450.0,1.0,,,,,,,,,blue,hexagon
0.0,8.0,4.0,1.0,5.0,5.0,703.2516589970328,4.0,0.0,part_2,go,450.0,450.0,1.0,,,,,,,,,yellow,circle
0.0,5.0,1.0,1.0,6.0,6.0,624.7049820958637,4.0,0.0,part_2,stop,450.0,450.0,3.0,,,,,,,,,magenta,flipped triangle
0.0,4.0,4.0,0.0,5.0,5.0,559.9680166924372,4.0,0.0,part_2,go,450.0,400.0,1.0,,,,,,,,,blue,hexagon
0.0,8.0,4.0,1.0,5.0,0.0,0.0,4.0,0.0,part_2,stop,450.0,400.0,4.0,,,,,,,,,yellow,circle
0.0,3.0,3.0,0.0,6.0,6.0,650.6289460230619,4.0,0.0,part_2,go,500.0,400.0,1.0,,,,,,,,,orange,cross
0.0,4.0,4.0,0.0,5.0,0.0,0.0,5.0,0.0,part_2,go,500.0,400.0,5.0,,,,,,,,,blue,hexagon
0.0,8.0,4.0,1.0,6.0,0.0,0.0,5.0,0.0,part_2,stop,500.0,400.0,4.0,,,,,,,,,yellow,circle
0.0,7.0,3.0,1.0,6.0,6.0,640.8643550239503,5.0,0.0,part_2,stop,500.0,450.0,3.0,,,,,,,,,cyan,triangle
0.0,6.0,2.0,1.0,6.0,0.0,0.0,5.0,0.0,part_2,stop,500.0,400.0,4.0,,,,,,,,,white,square
0.0,2.0,2.0,0.0,5.0,5.0,371.9810173497535,5.0,0.0,part_2,go,500.0,450.0,1.0,,,,,,,,,green,I
0.0,7.0,3.0,1.0,5.0,5.0,407.0424830424599,5.0,0.0,part_2,stop,500.0,450.0,3.0,,,,,,,,,cyan,triangle
0.0,2.0,2.0,0.0,5.0,5.0,676.8159573548473,5.0,0.0,part_2,go,450.0,450.0,1.0,,,,,,,,,green,I
0.0,1.0,1.0,0.0,5.0,5.0,587.9497383721173,5.0,0.0,part_2,go,450.0,450.0,1.0,,,,,,,,,gray,diamond
0.0,2.0,2.0,0.0,6.0,6.0,284.9043217138387,5.0,0.0,part_2,go,450.0,450.0,1.0,,,,,,,,,green,I
0.0,1.0,1.0,0.0,6.0,6.0,611.5556237054989,5.0,0.0,part_2,go,450.0,450.0,1.0,,,,,,,,,gray,diamond
0.0,8.0,4.0,1.0,5.0,0.0,0.0,5.0,0.0,part_2,stop,450.0,450.0,4.0,,,,,,,,,yellow,circle
0.0,3.0,3.0,0.0,5.0,5.0,579.5374736771919,5.0,0.0,part_2,go,500.0,450.0,1.0,,,,,,,,,orange,cross
0.0,4.0,4.0,0.0,6.0,6.0,715.9777923370712,5.0,0.0,part_2,go,500.0,450.0,1.0,,,,,,,,,blue,hexagon
0.0,6.0,2.0,1.0,6.0,0.0,0.0,5.0,0.0,part_2,stop,500.0,450.0,4.0,,,,,,,,,white,square
0.0,2.0,2.0,0.0,5.0,5.0,898.3825063914992,5.0,0.0,part_2,go,500.0,500.0,1.0,,,,,,,,,green,I
0.0,4.0,4.0,0.0,6.0,6.0,931.4548670081422,5.0,0.0,part_2,go,500.0,500.0,1.0,,,,,,,,,blue,hexagon
0.0,2.0,2.0,0.0,6.0,6.0,909.6849320922048,5.0,0.0,part_2,go,500.0,500.0,1.0,,,,,,,,,green,I
0.0,3.0,3.0,0.0,5.0,5.0,707.8255286905915,5.0,0.0,part_2,go,500.0,500.0,1.0,,,,,,,,,orange,cross
0.0,6.0,2.0,1.0,5.0,5.0,799.6387276798487,5.0,0.0,part_2,go,500.0,500.0,1.0,,,,,,,,,white,square
0.0,7.0,3.0,1.0,5.0,0.0,0.0,5.0,0.0,part_2,stop,500.0,500.0,4.0,,,,,,,,,cyan,triangle
0.0,1.0,1.0,0.0,5.0,5.0,678.2094796653837,5.0,0.0,part_2,go,550.0,500.0,1.0,,,,,,,,,gray,diamond
0.0,1.0,1.0,0.0,6.0,6.0,666.3990583037958,5.0,0.0,part_2,go,550.0,500.0,1.0,,,,,,,,,gray,diamond
0.0,1.0,1.0,0.0,6.0,6.0,824.5312063372694,5.0,0.0,part_2,go,550.0,500.0,1.0,,,,,,,,,gray,diamond
0.0,3.0,3.0,0.0,6.0,6.0,927.2169963805936,5.0,0.0,part_2,go,550.0,500.0,1.0,,,,,,,,,orange,cross
0.0,1.0,1.0,0.0,6.0,6.0,725.2632513991557,5.0,0.0,part_2,go,550.0,500.0,1.0,,,,,,,,,gray,diamond
0.0,8.0,4.0,1.0,5.0,0.0,0.0,5.0,0.0,part_2,stop,550.0,500.0,4.0,,,,,,,,,yellow,circle
0.0,1.0,1.0,0.0,5.0,5.0,704.1394186671823,5.0,0.0,part_2,go,600.0,500.0,1.0,,,,,,,,,gray,diamond
0.0,2.0,2.0,0.0,6.0,6.0,458.0044624162838,5.0,0.0,part_2,go,600.0,500.0,1.0,,,,,,,,,green,I
0.0,2.0,2.0,0.0,5.0,5.0,673.2917963527143,5.0,0.0,part_2,go,600.0,500.0,1.0,,,,,,,,,green,I
0.0,6.0,2.0,1.0,6.0,6.0,514.2360007157549,5.0,0.0,part_2,stop,600.0,500.0,3.0,,,,,,,,,white,square
0.0,4.0,4.0,0.0,6.0,6.0,673.8015603623353,5.0,0.0,part_2,go,600.0,450.0,1.0,,,,,,,,,blue,hexagon
0.0,7.0,3.0,1.0,5.0,5.0,416.5596773382276,5.0,0.0,part_2,go,600.0,450.0,1.0,,,,,,,,,cyan,triangle
0.0,5.0,1.0,1.0,5.0,6.0,405.4734536912292,5.0,0.0,part_2,go,600.0,450.0,2.0,,,,,,,,,magenta,flipped triangle
0.0,3.0,3.0,0.0,5.0,5.0,519.0901610185392,5.0,0.0,part_2,go,600.0,450.0,1.0,,,,,,,,,orange,cross
0.0,1.0,1.0,0.0,5.0,5.0,552.885448327288,5.0,0.0,part_2,go,600.0,450.0,1.0,,,,,,,,,gray,diamond
0.0,7.0,3.0,1.0,6.0,6.0,599.7057004133239,5.0,0.0,part_2,go,600.0,450.0,1.0,,,,,,,,,cyan,triangle
0.0,3.0,3.0,0.0,5.0,5.0,457.7443920425139,6.0,0.0,part_2,go,600.0,450.0,1.0,,,,,,,,,orange,cross
0.0,4.0,4.0,0.0,6.0,6.0,357.5975433923304,6.0,0.0,part_2,go,600.0,450.0,1.0,,,,,,,,,blue,hexagon
0.0,5.0,1.0,1.0,5.0,5.0,514.9738229811192,6.0,0.0,part_2,stop,600.0,450.0,3.0,,,,,,,,,magenta,flipped triangle
0.0,7.0,3.0,1.0,5.0,5.0,606.7954900208861,6.0,0.0,part_2,stop,550.0,450.0,3.0,,,,,,,,,cyan,triangle
0.0,1.0,1.0,0.0,5.0,5.0,617.8608262562193,6.0,0.0,part_2,go,500.0,450.0,1.0,,,,,,,,,gray,diamond
0.0,6.0,2.0,1.0,5.0,5.0,642.6478276844136,6.0,0.0,part_2,stop,500.0,450.0,3.0,,,,,,,,,white,square
0.0,7.0,3.0,1.0,6.0,0.0,0.0,6.0,0.0,part_2,stop,450.0,450.0,4.0,,,,,,,,,cyan,triangle
0.0,8.0,4.0,1.0,6.0,0.0,0.0,6.0,0.0,part_2,stop,450.0,500.0,4.0,,,,,,,,,yellow,circle
0.0,3.0,3.0,0.0,6.0,6.0,688.6708780075423,6.0,0.0,part_2,go,450.0,550.0,1.0,,,,,,,,,orange,cross
0.0,4.0,4.0,0.0,5.0,5.0,735.2771447040141,6.0,0.0,part_2,go,450.0,550.0,1.0,,,,,,,,,blue,hexagon
0.0,2.0,2.0,0.0,5.0,5.0,670.0549726956524,6.0,0.0,part_2,go,450.0,550.0,1.0,,,,,,,,,green,I
0.0,1.0,1.0,0.0,5.0,5.0,624.612680694554,6.0,0.0,part_2,go,450.0,550.0,1.0,,,,,,,,,gray,diamond
0.0,6.0,2.0,1.0,6.0,0.0,0.0,6.0,0.0,part_2,stop,450.0,550.0,4.0,,,,,,,,,white,square
0.0,1.0,1.0,0.0,6.0,6.0,546.7442853841931,6.0,0.0,part_2,go,450.0,600.0,1.0,,,,,,,,,gray,diamond
0.0,6.0,2.0,1.0,6.0,6.0,728.4650224028155,6.0,0.0,part_2,go,450.0,600.0,1.0,,,,,,,,,white,square
0.0,6.0,2.0,1.0,6.0,0.0,0.0,6.0,0.0,part_2,stop,450.0,600.0,4.0,,,,,,,,,white,square
0.0,4.0,4.0,0.0,6.0,6.0,854.3980116955936,6.0,0.0,part_2,go,450.0,650.0,1.0,,,,,,,,,blue,hexagon
0.0,6.0,2.0,1.0,5.0,5.0,595.0882750330493,6.0,0.0,part_2,stop,450.0,650.0,3.0,,,,,,,,,white,square
0.0,7.0,3.0,1.0,6.0,6.0,844.6117703570053,6.0,0.0,part_2,stop,400.0,650.0,3.0,,,,,,,,,cyan,triangle
0.0,8.0,4.0,1.0,5.0,0.0,0.0,6.0,0.0,part_2,stop,400.0,600.0,4.0,,,,,,,,,yellow,circle
0.0,4.0,4.0,0.0,6.0,6.0,723.0587626690976,6.0,0.0,part_2,go,450.0,600.0,1.0,,,,,,,,,blue,hexagon
0.0,5.0,1.0,1.0,6.0,0.0,0.0,6.0,0.0,part_2,stop,450.0,600.0,4.0,,,,,,,,,magenta,flipped triangle
0.0,6.0,2.0,1.0,5.0,0.0,0.0,6.0,0.0,part_2,stop,450.0,650.0,4.0,,,,,,,,,white,square
0.0,7.0,3.0,1.0,5.0,0.0,0.0,6.0,0.0,part_2,stop,500.0,650.0,4.0,,,,,,,,,cyan,triangle
0.0,2.0,2.0,0.0,6.0,6.0,634.8264943226241,6.0,0.0,part_2,go,550.0,650.0,1.0,,,,,,,,,green,I
0.0,5.0,1.0,1.0,5.0,5.0,760.7866906910203,6.0,0.0,part_2,go,550.0,650.0,1.0,,,,,,,,,magenta,flipped triangle
0.0,2.0,2.0,0.0,6.0,6.0,851.6972570796497,6.0,0.0,part_2,go,550.0,650.0,1.0,,,,,,,,,green,I
0.0,2.0,2.0,0.0,6.0,6.0,751.3201867113821,6.0,0.0,part_2,go,550.0,650.0,1.0,,,,,,,,,green,I
0.0,3.0,3.0,0.0,6.0,6.0,840.4532726854086,6.0,0.0,part_2,go,550.0,650.0,1.0,,,,,,,,,orange,cross
0.0,8.0,4.0,1.0,5.0,0.0,0.0,6.0,0.0,part_2,stop,550.0,650.0,4.0,,,,,,,,,yellow,circle
0.0,2.0,2.0,0.0,6.0,6.0,775.9255536948331,6.0,0.0,part_2,go,600.0,650.0,1.0,,,,,,,,,green,I
0.0,4.0,4.0,0.0,5.0,5.0,1103.5416279919446,6.0,0.0,part_2,go,600.0,650.0,1.0,,,,,,,,,blue,hexagon
0.0,3.0,3.0,0.0,5.0,5.0,992.1782853780314,6.0,0.0,part_2,go,600.0,650.0,1.0,,,,,,,,,orange,cross
0.0,1.0,1.0,0.0,6.0,6.0,935.5034776963294,6.0,0.0,part_2,go,600.0,650.0,1.0,,,,,,,,,gray,diamond
0.0,6.0,2.0,1.0,5.0,5.0,890.380940400064,6.0,0.0,part_2,go,600.0,650.0,1.0,,,,,,,,,white,square
0.0,7.0,3.0,1.0,5.0,5.0,780.2541630226187,6.0,0.0,part_2,go,600.0,650.0,1.0,,,,,,,,,cyan,triangle
0.0,6.0,2.0,1.0,5.0,5.0,331.4946690225042,7.0,0.0,part_2,stop,600.0,650.0,3.0,,,,,,,,,white,square
0.0,5.0,1.0,1.0,6.0,6.0,421.8426896841265,7.0,0.0,part_2,stop,550.0,650.0,3.0,,,,,,,,,magenta,flipped triangle
0.0,5.0,1.0,1.0,6.0,6.0,545.8038469660096,7.0,0.0,part_2,go,550.0,600.0,1.0,,,,,,,,,magenta,flipped triangle
0.0,6.0,2.0,1.0,6.0,6.0,593.2415936840698,7.0,0.0,part_2,stop,550.0,600.0,3.0,,,,,,,,,white,square
0.0,6.0,2.0,1.0,6.0,6.0,682.4481040821411,7.0,0.0,part_2,go,550.0,550.0,1.0,,,,,,,,,white,square
0.0,5.0,1.0,1.0,5.0,5.0,605.6933730724268,7.0,0.0,part_2,stop,550.0,550.0,3.0,,,,,,,,,magenta,flipped triangle
0.0,6.0,2.0,1.0,6.0,0.0,0.0,7.0,0.0,part_2,stop,500.0,550.0,4.0,,,,,,,,,white,square
0.0,2.0,2.0,0.0,6.0,6.0,685.7079956680536,7.0,0.0,part_2,go,500.0,600.0,1.0,,,,,,,,,green,I
0.0,6.0,2.0,1.0,5.0,5.0,617.8795240120962,7.0,0.0,part_2,go,500.0,600.0,1.0,,,,,,,,,white,square
0.0,7.0,3.0,1.0,6.0,6.0,641.4798683254048,7.0,0.0,part_2,stop,500.0,600.0,3.0,,,,,,,,,cyan,triangle
0.0,7.0,3.0,1.0,6.0,0.0,0.0,7.0,0.0,part_2,stop,500.0,550.0,4.0,,,,,,,,,cyan,triangle
0.0,8.0,4.0,1.0,5.0,5.0,677.5807390804403,7.0,0.0,part_2,go,500.0,600.0,1.0,,,,,,,,,yellow,circle
0.0,4.0,4.0,0.0,5.0,5.0,735.2849617018364,7.0,0.0,part_2,go,500.0,600.0,1.0,,,,,,,,,blue,hexagon
0.0,1.0,1.0,0.0,5.0,5.0,1004.8180309822785,7.0,0.0,part_2,go,500.0,600.0,1.0,,,,,,,,,gray,diamond
0.0,6.0,2.0,1.0,5.0,0.0,0.0,7.0,0.0,part_2,stop,500.0,600.0,4.0,,,,,,,,,white,square
0.0,6.0,2.0,1.0,5.0,5.0,366.4845043094829,7.0,0.0,part_2,go,550.0,600.0,1.0,,,,,,,,,white,square
0.0,5.0,1.0,1.0,6.0,6.0,648.6208272981457,7.0,0.0,part_2,go,550.0,600.0,1.0,,,,,,,,,magenta,flipped triangle
0.0,1.0,1.0,0.0,6.0,6.0,705.4034596658312,7.0,0.0,part_2,go,550.0,600.0,1.0,,,,,,,,,gray,diamond
0.0,5.0,1.0,1.0,6.0,6.0,604.7724576783367,7.0,0.0,part_2,go,550.0,600.0,1.0,,,,,,,,,magenta,flipped triangle
0.0,4.0,4.0,0.0,5.0,5.0,808.5746797150932,7.0,0.0,part_2,go,550.0,600.0,1.0,,,,,,,,,blue,hexagon
0.0,4.0,4.0,0.0,6.0,6.0,886.620536679402,7.0,0.0,part_2,go,550.0,600.0,1.0,,,,,,,,,blue,hexagon
0.0,8.0,4.0,1.0,5.0,0.0,0.0,7.0,0.0,part_2,stop,550.0,600.0,4.0,,,,,,,,,yellow,circle
0.0,7.0,3.0,1.0,5.0,0.0,0.0,7.0,0.0,part_2,stop,600.0,600.0,4.0,,,,,,,,,cyan,triangle
0.0,5.0,1.0,1.0,6.0,6.0,767.1292506274767,7.0,0.0,part_2,go,650.0,600.0,1.0,,,,,,,,,magenta,flipped triangle
0.0,6.0,2.0,1.0,5.0,5.0,658.7127626989968,7.0,0.0,part_2,stop,650.0,600.0,3.0,,,,,,,,,white,square
0.0,1.0,1.0,0.0,5.0,5.0,690.107895003166,7.0,0.0,part_2,go,600.0,600.0,1.0,,,,,,,,,gray,diamond
0.0,3.0,3.0,0.0,6.0,6.0,735.3053826955147,7.0,0.0,part_2,go,600.0,600.0,1.0,,,,,,,,,orange,cross
0.0,5.0,1.0,1.0,5.0,0.0,0.0,7.0,0.0,part_2,stop,600.0,600.0,4.0,,,,,,,,,magenta,flipped triangle
0.0,1.0,1.0,0.0,5.0,5.0,670.4157760250382,7.0,0.0,part_2,go,650.0,600.0,1.0,,,,,,,,,gray,diamond
0.0,6.0,2.0,1.0,6.0,6.0,737.5305510358885,7.0,0.0,part_2,stop,650.0,600.0,3.0,,,,,,,,,white,square
0.0,3.0,3.0,0.0,5.0,5.0,896.9482636894099,7.0,0.0,part_2,go,650.0,550.0,1.0,,,,,,,,,orange,cross
0.0,7.0,3.0,1.0,6.0,6.0,650.2491116989404,7.0,0.0,part_2,stop,650.0,550.0,3.0,,,,,,,,,cyan,triangle
0.0,3.0,3.0,0.0,6.0,6.0,1033.5133756743744,7.0,0.0,part_2,go,650.0,500.0,1.0,,,,,,,,,orange,cross
0.0,3.0,3.0,0.0,6.0,6.0,370.2526476699859,7.0,0.0,part_2,go,650.0,500.0,1.0,,,,,,,,,orange,cross
0.0,5.0,1.0,1.0,6.0,0.0,0.0,7.0,0.0,part_2,stop,650.0,500.0,4.0,,,,,,,,,magenta,flipped triangle
0.0,4.0,4.0,0.0,6.0,6.0,640.6486480263993,7.0,0.0,part_2,go,650.0,550.0,1.0,,,,,,,,,blue,hexagon
0.0,3.0,3.0,0.0,6.0,6.0,267.6884646643884,8.0,0.0,part_2,go,650.0,550.0,1.0,,,,,,,,,orange,cross
0.0,5.0,1.0,1.0,6.0,6.0,280.4431187105365,8.0,0.0,part_2,stop,650.0,550.0,3.0,,,,,,,,,magenta,flipped triangle
0.0,8.0,4.0,1.0,6.0,6.0,304.0923640364781,8.0,0.0,part_2,go,650.0,500.0,1.0,,,,,,,,,yellow,circle
0.0,5.0,1.0,1.0,6.0,6.0,258.8625206844881,8.0,0.0,part_2,stop,650.0,500.0,3.0,,,,,,,,,magenta,flipped triangle
0.0,7.0,3.0,1.0,5.0,5.0,248.9152764319442,8.0,0.0,part_2,go,650.0,450.0,1.0,,,,,,,,,cyan,triangle
0.0,8.0,4.0,1.0,5.0,5.0,306.7479243618436,8.0,0.0,part_2,go,650.0,450.0,1.0,,,,,,,,,yellow,circle
0.0,7.0,3.0,1.0,6.0,6.0,273.5652640694752,8.0,0.0,part_2,stop,650.0,450.0,3.0,,,,,,,,,cyan,triangle
0.0,8.0,4.0,1.0,6.0,6.0,307.5347931007854,8.0,0.0,part_2,go,650.0,400.0,1.0,,,,,,,,,yellow,circle
0.0,4.0,4.0,0.0,6.0,6.0,264.9603570462204,8.0,0.0,part_2,go,650.0,400.0,1.0,,,,,,,,,blue,hexagon
0.0,1.0,1.0,0.0,6.0,6.0,264.5072267041541,8.0,0.0,part_2,go,650.0,400.0,1.0,,,,,,,,,gray,diamond
0.0,1.0,1.0,0.0,5.0,5.0,288.6198887135833,8.0,0.0,part_2,go,650.0,400.0,1.0,,,,,,,,,gray,diamond
0.0,6.0,2.0,1.0,6.0,6.0,232.8046980546787,8.0,0.0,part_2,stop,650.0,400.0,3.0,,,,,,,,,white,square
0.0,4.0,4.0,0.0,6.0,6.0,313.0594933172688,8.0,0.0,part_2,go,650.0,350.0,1.0,,,,,,,,,blue,hexagon
0.0,7.0,3.0,1.0,6.0,6.0,279.2303013266064,8.0,0.0,part_2,stop,650.0,350.0,3.0,,,,,,,,,cyan,triangle
0.0,7.0,3.0,1.0,5.0,5.0,257.6934606768191,8.0,0.0,part_2,stop,650.0,300.0,3.0,,,,,,,,,cyan,triangle
0.0,1.0,1.0,0.0,6.0,6.0,326.4971870230511,8.0,0.0,part_2,go,600.0,300.0,1.0,,,,,,,,,gray,diamond
0.0,8.0,4.0,1.0,5.0,5.0,326.4770850655623,8.0,0.0,part_2,stop,600.0,300.0,3.0,,,,,,,,,yellow,circle
0.0,5.0,1.0,1.0,5.0,5.0,328.976800374221,8.0,0.0,part_2,stop,550.0,300.0,3.0,,,,,,,,,magenta,flipped triangle
0.0,4.0,4.0,0.0,5.0,5.0,417.9122556233778,8.0,0.0,part_2,go,500.0,300.0,1.0,,,,,,,,,blue,hexagon
0.0,1.0,1.0,0.0,6.0,6.0,397.4077370367013,8.0,0.0,part_2,go,500.0,300.0,1.0,,,,,,,,,gray,diamond
0.0,2.0,2.0,0.0,5.0,5.0,295.8271440584212,8.0,0.0,part_2,go,500.0,300.0,1.0,,,,,,,,,green,I
0.0,8.0,4.0,1.0,6.0,6.0,253.4159807255491,8.0,0.0,part_2,stop,500.0,300.0,3.0,,,,,,,,,yellow,circle
0.0,8.0,4.0,1.0,6.0,0.0,0.0,8.0,0.0,part_2,stop,500.0,250.0,4.0,,,,,,,,,yellow,circle
0.0,5.0,1.0,1.0,5.0,5.0,354.6813407447189,8.0,0.0,part_2,stop,500.0,300.0,3.0,,,,,,,,,magenta,flipped triangle
0.0,2.0,2.0,0.0,5.0,5.0,581.0806046938524,8.0,0.0,part_2,go,450.0,300.0,1.0,,,,,,,,,green,I
0.0,2.0,2.0,0.0,6.0,6.0,311.8061167187989,8.0,0.0,part_2,go,450.0,300.0,1.0,,,,,,,,,green,I
0.0,7.0,3.0,1.0,5.0,5.0,514.9858532822691,8.0,0.0,part_2,go,450.0,300.0,1.0,,,,,,,,,cyan,triangle
0.0,7.0,3.0,1.0,6.0,0.0,0.0,8.0,0.0,part_2,stop,450.0,300.0,4.0,,,,,,,,,cyan,triangle
0.0,6.0,2.0,1.0,6.0,0.0,0.0,8.0,0.0,part_2,stop,450.0,350.0,4.0,,,,,,,,,white,square
0.0,7.0,3.0,1.0,5.0,5.0,462.5121846911497,8.0,0.0,part_2,stop,450.0,400.0,3.0,,,,,,,,,cyan,triangle
0.0,7.0,3.0,1.0,5.0,5.0,630.4079433321021,8.0,0.0,part_2,go,400.0,400.0,1.0,,,,,,,,,cyan,triangle
0.0,2.0,2.0,0.0,6.0,6.0,542.9119049804285,8.0,0.0,part_2,go,400.0,400.0,1.0,,,,,,,,,green,I
0.0,4.0,4.0,0.0,5.0,5.0,463.5331387398764,8.0,0.0,part_2,go,400.0,400.0,1.0,,,,,,,,,blue,hexagon
0.0,5.0,1.0,1.0,5.0,0.0,0.0,8.0,0.0,part_2,stop,400.0,400.0,4.0,,,,,,,,,magenta,flipped triangle
0.0,8.0,4.0,1.0,6.0,6.0,432.837747677695,8.0,0.0,part_2,stop,450.0,400.0,3.0,,,,,,,,,yellow,circle
0.0,4.0,4.0,0.0,5.0,5.0,445.3844363451935,8.0,0.0,part_2,go,450.0,350.0,1.0,,,,,,,,,blue,hexagon
0.0,2.0,2.0,0.0,7.0,6.0,4044.540115282871,1.0,1.0,part_3,go,0.0,0.0,0.0,204.0,6.0,34.0,102.0,136.0,170.0,68.0,204.0,green,I
0.0,1.0,1.0,0.0,7.0,1.0,2808.903857541736,1.0,1.0,part_3,go,0.0,0.0,0.0,170.0,5.0,170.0,68.0,34.0,136.0,102.0,204.0,gray,diamond
0.0,8.0,4.0,1.0,7.0,3.0,1912.0848490856588,1.0,1.0,part_3,go,0.0,0.0,0.0,44.0,1.0,88.0,264.0,44.0,220.0,176.0,132.0,yellow,circle
0.0,1.0,1.0,0.0,7.0,6.0,2710.289093258325,1.0,1.0,part_3,go,0.0,0.0,0.0,147.0,3.0,98.0,49.0,196.0,294.0,245.0,147.0,gray,diamond
0.0,6.0,2.0,1.0,7.0,4.0,2037.3537495033816,1.0,1.0,part_3,go,0.0,0.0,0.0,245.0,5.0,49.0,196.0,147.0,245.0,98.0,294.0,white,square
0.0,4.0,4.0,0.0,7.0,1.0,2005.0213453941979,1.0,1.0,part_3,go,0.0,0.0,0.0,324.0,6.0,324.0,162.0,54.0,108.0,216.0,270.0,blue,hexagon
0.0,5.0,1.0,1.0,7.0,2.0,1971.1721481871791,1.0,1.0,part_3,go,0.0,0.0,0.0,270.0,5.0,162.0,270.0,54.0,324.0,108.0,216.0,magenta,flipped triangle
0.0,8.0,4.0,1.0,7.0,3.0,2512.427461508196,1.0,1.0,part_3,go,0.0,0.0,0.0,245.0,5.0,294.0,98.0,245.0,196.0,147.0,49.0,yellow,circle
0.0,5.0,1.0,1.0,7.0,3.0,2243.6904810601845,1.0,1.0,part_3,go,0.0,0.0,0.0,234.0,6.0,156.0,117.0,234.0,78.0,39.0,195.0,magenta,flipped triangle
0.0,6.0,2.0,1.0,7.0,3.0,3302.028839418199,1.0,1.0,part_3,go,0.0,0.0,0.0,39.0,1.0,195.0,117.0,39.0,78.0,156.0,234.0,white,square
0.0,4.0,4.0,0.0,7.0,1.0,2787.3842921690084,1.0,1.0,part_3,go,0.0,0.0,0.0,204.0,6.0,204.0,68.0,136.0,170.0,102.0,34.0,blue,hexagon
0.0,1.0,1.0,0.0,7.0,5.0,1999.7970615513625,1.0,1.0,part_3,go,0.0,0.0,0.0,324.0,6.0,108.0,162.0,270.0,216.0,324.0,54.0,gray,diamond
0.0,4.0,4.0,0.0,7.0,1.0,1843.7265757238492,1.0,1.0,part_3,go,0.0,0.0,0.0,176.0,4.0,176.0,132.0,220.0,44.0,88.0,264.0,blue,hexagon
0.0,3.0,3.0,0.0,7.0,6.0,1597.3741924390197,1.0,1.0,part_3,go,0.0,0.0,0.0,234.0,6.0,39.0,117.0,156.0,78.0,195.0,234.0,orange,cross
0.0,4.0,4.0,0.0,7.0,3.0,2937.984612537548,1.0,1.0,part_3,go,0.0,0.0,0.0,234.0,6.0,78.0,195.0,234.0,39.0,156.0,117.0,blue,hexagon
0.0,7.0,3.0,1.0,7.0,5.0,2229.2353535303846,1.0,1.0,part_3,go,0.0,0.0,0.0,324.0,6.0,54.0,108.0,216.0,270.0,324.0,162.0,cyan,triangle
0.0,2.0,2.0,0.0,7.0,1.0,2331.072263768874,1.0,1.0,part_3,go,0.0,0.0,0.0,147.0,3.0,147.0,294.0,49.0,98.0,245.0,196.0,green,I
0.0,1.0,1.0,0.0,7.0,2.0,1803.7454687291756,1.0,1.0,part_3,go,0.0,0.0,0.0,39.0,1.0,234.0,39.0,78.0,117.0,156.0,195.0,gray,diamond
0.0,6.0,2.0,1.0,7.0,6.0,2546.7336698784493,1.0,1.0,part_3,go,0.0,0.0,0.0,44.0,1.0,88.0,176.0,264.0,132.0,220.0,44.0,white,square
0.0,7.0,3.0,1.0,7.0,5.0,1547.1829096786678,1.0,1.0,part_3,go,0.0,0.0,0.0,234.0,6.0,195.0,117.0,78.0,156.0,234.0,39.0,cyan,triangle
0.0,5.0,1.0,1.0,7.0,1.0,2063.255291723181,2.0,1.0,part_3,go,0.0,0.0,0.0,156.0,4.0,156.0,195.0,117.0,234.0,39.0,78.0,magenta,flipped triangle
0.0,3.0,3.0,0.0,7.0,6.0,1615.3706184704788,2.0,1.0,part_3,go,0.0,0.0,0.0,294.0,6.0,98.0,49.0,196.0,245.0,147.0,294.0,orange,cross
0.0,1.0,1.0,0.0,7.0,6.0,2382.1490688133053,2.0,1.0,part_3,go,0.0,0.0,0.0,132.0,3.0,220.0,88.0,176.0,264.0,44.0,132.0,gray,diamond
0.0,3.0,3.0,0.0,7.0,2.0,2270.1308177784085,2.0,1.0,part_3,go,0.0,0.0,0.0,264.0,6.0,44.0,264.0,88.0,132.0,176.0,220.0,orange,cross
0.0,6.0,2.0,1.0,7.0,4.0,1347.5808511138894,2.0,1.0,part_3,go,0.0,0.0,0.0,170.0,5.0,136.0,68.0,34.0,170.0,204.0,102.0,white,square
0.0,3.0,3.0,0.0,7.0,1.0,1832.3119622073136,2.0,1.0,part_3,go,0.0,0.0,0.0,54.0,1.0,54.0,270.0,324.0,216.0,162.0,108.0,orange,cross
0.0,4.0,4.0,0.0,7.0,6.0,3286.292145436164,2.0,1.0,part_3,go,0.0,0.0,0.0,196.0,4.0,294.0,49.0,147.0,98.0,245.0,196.0,blue,hexagon
0.0,8.0,4.0,1.0,7.0,1.0,2262.146145105362,2.0,1.0,part_3,go,0.0,0.0,0.0,234.0,6.0,234.0,117.0,78.0,195.0,39.0,156.0,yellow,circle
0.0,7.0,3.0,1.0,7.0,4.0,2343.8276991364546,2.0,1.0,part_3,go,0.0,0.0,0.0,34.0,1.0,170.0,204.0,136.0,34.0,68.0,102.0,cyan,triangle
0.0,1.0,1.0,0.0,7.0,1.0,3176.163584808819,2.0,1.0,part_3,go,0.0,0.0,0.0,294.0,6.0,294.0,98.0,245.0,49.0,147.0,196.0,gray,diamond
0.0,8.0,4.0,1.0,7.0,2.0,2829.5917285140604,2.0,1.0,part_3,go,0.0,0.0,0.0,102.0,3.0,204.0,102.0,136.0,34.0,170.0,68.0,yellow,circle
0.0,4.0,4.0,0.0,7.0,5.0,3224.737388838548,2.0,1.0,part_3,go,0.0,0.0,0.0,156.0,4.0,195.0,234.0,117.0,78.0,156.0,39.0,blue,hexagon
0.0,2.0,2.0,0.0,7.0,4.0,1817.532830638811,2.0,1.0,part_3,go,0.0,0.0,0.0,264.0,6.0,88.0,132.0,44.0,264.0,176.0,220.0,green,I
0.0,6.0,2.0,1.0,7.0,1.0,1773.953088792041,2.0,1.0,part_3,go,0.0,0.0,0.0,294.0,6.0,294.0,245.0,98.0,49.0,147.0,196.0,white,square
0.0,4.0,4.0,0.0,7.0,5.0,3340.8047817647457,2.0,1.0,part_3,go,0.0,0.0,0.0,44.0,1.0,264.0,88.0,220.0,176.0,44.0,132.0,blue,hexagon
0.0,8.0,4.0,1.0,7.0,6.0,1395.1334354933351,2.0,1.0,part_3,go,0.0,0.0,0.0,68.0,2.0,102.0,204.0,170.0,34.0,136.0,68.0,yellow,circle
0.0,1.0,1.0,0.0,7.0,2.0,2508.494219800923,2.0,1.0,part_3,go,0.0,0.0,0.0,34.0,1.0,136.0,34.0,170.0,204.0,102.0,68.0,gray,diamond
0.0,5.0,1.0,1.0,7.0,3.0,2475.373584078625,2.0,1.0,part_3,go,0.0,0.0,0.0,294.0,6.0,196.0,147.0,294.0,98.0,49.0,245.0,magenta,flipped triangle
0.0,8.0,4.0,1.0,7.0,5.0,2015.6047553173262,2.0,1.0,part_3,go,0.0,0.0,0.0,264.0,6.0,44.0,132.0,176.0,220.0,264.0,88.0,yellow,circle
0.0,5.0,1.0,1.0,7.0,3.0,2175.263795477804,2.0,1.0,part_3,go,0.0,0.0,0.0,324.0,6.0,54.0,108.0,324.0,216.0,162.0,270.0,magenta,flipped triangle
0.0,1.0,1.0,0.0,7.0,3.0,2781.483680009842,3.0,1.0,part_3,go,0.0,0.0,0.0,44.0,1.0,132.0,220.0,44.0,88.0,264.0,176.0,gray,diamond
0.0,3.0,3.0,0.0,7.0,4.0,2153.5187490517274,3.0,1.0,part_3,go,0.0,0.0,0.0,234.0,6.0,39.0,195.0,156.0,234.0,117.0,78.0,orange,cross
0.0,5.0,1.0,1.0,7.0,3.0,2842.278706957586,3.0,1.0,part_3,go,0.0,0.0,0.0,34.0,1.0,170.0,204.0,34.0,68.0,102.0,136.0,magenta,flipped triangle
0.0,2.0,2.0,0.0,7.0,1.0,2065.819466486573,3.0,1.0,part_3,go,0.0,0.0,0.0,34.0,1.0,34.0,204.0,170.0,136.0,68.0,102.0,green,I
0.0,2.0,2.0,0.0,7.0,3.0,3046.3655498460867,3.0,1.0,part_3,go,0.0,0.0,0.0,294.0,6.0,147.0,98.0,294.0,196.0,245.0,49.0,green,I
0.0,7.0,3.0,1.0,7.0,2.0,1538.5700911283493,3.0,1.0,part_3,go,0.0,0.0,0.0,294.0,6.0,49.0,294.0,98.0,245.0,196.0,147.0,cyan,triangle
0.0,7.0,3.0,1.0,7.0,1.0,2034.9955044221133,3.0,1.0,part_3,go,0.0,0.0,0.0,234.0,6.0,234.0,117.0,78.0,156.0,195.0,39.0,cyan,triangle
0.0,3.0,3.0,0.0,7.0,4.0,2272.3653787979856,3.0,1.0,part_3,go,0.0,0.0,0.0,176.0,4.0,220.0,88.0,132.0,176.0,264.0,44.0,orange,cross
0.0,8.0,4.0,1.0,7.0,1.0,2373.988286126405,3.0,1.0,part_3,go,0.0,0.0,0.0,108.0,2.0,108.0,324.0,54.0,216.0,162.0,270.0,yellow,circle
0.0,4.0,4.0,0.0,7.0,6.0,2094.1758967819624,3.0,1.0,part_3,go,0.0,0.0,0.0,102.0,3.0,204.0,34.0,136.0,170.0,68.0,102.0,blue,hexagon
0.0,7.0,3.0,1.0,7.0,5.0,2738.3136236458085,3.0,1.0,part_3,go,0.0,0.0,0.0,44.0,1.0,88.0,132.0,220.0,264.0,44.0,176.0,cyan,triangle
0.0,2.0,2.0,0.0,7.0,4.0,2737.504863238428,3.0,1.0,part_3,go,0.0,0.0,0.0,216.0,4.0,162.0,108.0,270.0,216.0,54.0,324.0,green,I
0.0,7.0,3.0,1.0,7.0,5.0,1772.4750695633702,3.0,1.0,part_3,go,0.0,0.0,0.0,294.0,6.0,49.0,196.0,245.0,147.0,294.0,98.0,cyan,triangle
0.0,3.0,3.0,0.0,7.0,2.0,1605.1035526907071,3.0,1.0,part_3,go,0.0,0.0,0.0,34.0,1.0,68.0,34.0,102.0,170.0,136.0,204.0,orange,cross
0.0,1.0,1.0,0.0,7.0,5.0,2044.2253769142553,3.0,1.0,part_3,go,0.0,0.0,0.0,162.0,3.0,216.0,108.0,324.0,54.0,162.0,270.0,gray,diamond
0.0,8.0,4.0,1.0,7.0,1.0,1729.7128901118413,3.0,1.0,part_3,go,0.0,0.0,0.0,156.0,4.0,156.0,78.0,39.0,234.0,117.0,195.0,yellow,circle
0.0,6.0,2.0,1.0,7.0,4.0,1719.4096891325898,3.0,1.0,part_3,go,0.0,0.0,0.0,324.0,6.0,270.0,108.0,162.0,324.0,54.0,216.0,white,square
0.0,7.0,3.0,1.0,7.0,2.0,2069.895103399176,3.0,1.0,part_3,go,0.0,0.0,0.0,132.0,3.0,264.0,132.0,44.0,176.0,88.0,220.0,cyan,triangle
0.0,6.0,2.0,1.0,7.0,6.0,2047.6623042486608,3.0,1.0,part_3,go,0.0,0.0,0.0,176.0,4.0,88.0,44.0,132.0,220.0,264.0,176.0,white,square
0.0,8.0,4.0,1.0,7.0,3.0,2748.294234101195,3.0,1.0,part_3,go,0.0,0.0,0.0,324.0,6.0,54.0,162.0,324.0,216.0,270.0,108.0,yellow,circle
0.0,7.0,3.0,1.0,7.0,3.0,1760.6297564925626,4.0,1.0,part_3,go,0.0,0.0,0.0,270.0,5.0,108.0,324.0,270.0,216.0,54.0,162.0,cyan,triangle
0.0,6.0,2.0,1.0,7.0,6.0,1437.094066524878,4.0,1.0,part_3,go,0.0,0.0,0.0,204.0,6.0,34.0,68.0,136.0,170.0,102.0,204.0,white,square
0.0,3.0,3.0,0.0,7.0,5.0,1313.1280103698373,4.0,1.0,part_3,go,0.0,0.0,0.0,294.0,6.0,98.0,196.0,245.0,147.0,294.0,49.0,orange,cross
0.0,2.0,2.0,0.0,7.0,2.0,2643.1102449423634,4.0,1.0,part_3,go,0.0,0.0,0.0,88.0,2.0,176.0,88.0,44.0,220.0,132.0,264.0,green,I
0.0,2.0,2.0,0.0,7.0,1.0,2507.8213970991783,4.0,1.0,part_3,go,0.0,0.0,0.0,108.0,2.0,108.0,216.0,324.0,270.0,54.0,162.0,green,I
0.0,4.0,4.0,0.0,7.0,2.0,2971.730016113725,4.0,1.0,part_3,go,0.0,0.0,0.0,270.0,5.0,162.0,270.0,54.0,108.0,216.0,324.0,blue,hexagon
0.0,3.0,3.0,0.0,7.0,5.0,1373.616447148379,4.0,1.0,part_3,go,0.0,0.0,0.0,136.0,4.0,170.0,34.0,102.0,68.0,136.0,204.0,orange,cross
0.0,1.0,1.0,0.0,7.0,6.0,2028.6044293898162,4.0,1.0,part_3,go,0.0,0.0,0.0,195.0,5.0,117.0,39.0,234.0,156.0,78.0,195.0,gray,diamond
0.0,3.0,3.0,0.0,7.0,5.0,2580.6868378422223,4.0,1.0,part_3,go,0.0,0.0,0.0,324.0,6.0,54.0,270.0,162.0,216.0,324.0,108.0,orange,cross
0.0,4.0,4.0,0.0,7.0,1.0,2377.6448755525053,4.0,1.0,part_3,go,0.0,0.0,0.0,98.0,2.0,98.0,49.0,147.0,196.0,245.0,294.0,blue,hexagon
0.0,5.0,1.0,1.0,7.0,6.0,2864.140044373926,4.0,1.0,part_3,go,0.0,0.0,0.0,132.0,3.0,176.0,88.0,220.0,264.0,44.0,132.0,magenta,flipped triangle
0.0,5.0,1.0,1.0,7.0,3.0,2211.9966982281767,4.0,1.0,part_3,go,0.0,0.0,0.0,102.0,3.0,34.0,68.0,102.0,136.0,170.0,204.0,magenta,flipped triangle
0.0,6.0,2.0,1.0,7.0,4.0,3418.32331410842,4.0,1.0,part_3,go,0.0,0.0,0.0,39.0,1.0,78.0,234.0,117.0,39.0,156.0,195.0,white,square
0.0,5.0,1.0,1.0,7.0,3.0,4036.919144098647,4.0,1.0,part_3,go,0.0,0.0,0.0,264.0,6.0,88.0,132.0,264.0,176.0,220.0,44.0,magenta,flipped triangle
0.0,2.0,2.0,0.0,7.0,4.0,2429.696101404261,4.0,1.0,part_3,go,0.0,0.0,0.0,195.0,5.0,117.0,156.0,234.0,195.0,39.0,78.0,green,I
0.0,2.0,2.0,0.0,7.0,3.0,2498.174963402562,4.0,1.0,part_3,go,0.0,0.0,0.0,234.0,6.0,117.0,156.0,234.0,78.0,195.0,39.0,green,I
0.0,7.0,3.0,1.0,7.0,6.0,2905.0872197840363,4.0,1.0,part_3,go,0.0,0.0,0.0,68.0,2.0,136.0,102.0,170.0,204.0,34.0,68.0,cyan,triangle
0.0,5.0,1.0,1.0,7.0,3.0,4391.8301544035785,4.0,1.0,part_3,go,0.0,0.0,0.0,196.0,4.0,294.0,147.0,196.0,245.0,98.0,49.0,magenta,flipped triangle
0.0,6.0,2.0,1.0,7.0,3.0,2457.6515390654095,4.0,1.0,part_3,go,0.0,0.0,0.0,324.0,6.0,54.0,162.0,324.0,270.0,108.0,216.0,white,square
0.0,8.0,4.0,1.0,7.0,5.0,2829.412821389269,4.0,1.0,part_3,go,0.0,0.0,0.0,98.0,2.0,49.0,196.0,294.0,245.0,98.0,147.0,yellow,circle
