raw_reward_magnitude,stim_reward,stepwise_reward_magnitude,paired_with_stopping,quadrant,response,reaction_time,block,num_trial_presentations,which_part,stop_signal_trial_type,left_SSD,right_SSD,accuracy,chosen_bidding_amount,chosen_bidding_level,possible_bid_1,possible_bid_2,possible_bid_3,possible_bid_4,possible_bid_5,possible_bid_6,color_text,shape_text
421.0,4.0,4.0,0.0,4.0,4.0,422.1788586582988,1.0,1.0,part_1,,,,,,,,,,,,,yellow,hexagon
0.0,8.0,0.0,1.0,4.0,4.0,490.1166243944317,1.0,1.0,part_1,,,,,,,,,,,,,blue,I
99.0,2.0,2.0,0.0,2.0,2.0,412.1200940571725,1.0,1.0,part_1,,,,,,,,,,,,,white,cross
117.0,2.0,2.0,0.0,1.0,1.0,345.4640475101769,1.0,1.0,part_1,,,,,,,,,,,,,white,cross
420.0,8.0,4.0,1.0,1.0,1.0,334.5654145814478,1.0,1.0,part_1,,,,,,,,,,,,,blue,I
381.0,4.0,4.0,0.0,2.0,2.0,324.3077339138835,1.0,1.0,part_1,,,,,,,,,,,,,yellow,hexagon
208.0,7.0,3.0,1.0,2.0,2.0,301.2375549878925,1.0,1.0,part_1,,,,,,,,,,,,,green,circle
82.0,2.0,2.0,0.0,3.0,3.0,268.3513299562037,1.0,1.0,part_1,,,,,,,,,,,,,white,cross
56.0,5.0,1.0,1.0,3.0,3.0,313.5620774701237,1.0,1.0,part_1,,,,,,,,,,,,,gray,triangle
189.0,7.0,3.0,1.0,1.0,1.0,315.5769663862884,1.0,1.0,part_1,,,,,,,,,,,,,green,circle
208.0,3.0,3.0,0.0,3.0,3.0,302.9507335741073,1.0,1.0,part_1,,,,,,,,,,,,,orange,diamond
389.0,4.0,4.0,0.0,1.0,1.0,293.6978740617633,1.0,1.0,part_1,,,,,,,,,,,,,yellow,hexagon
114.0,2.0,2.0,0.0,2.0,2.0,328.6804414819926,1.0,1.0,part_1,,,,,,,,,,,,,white,cross
52.0,1.0,1.0,0.0,2.0,2.0,317.3578295391053,1.0,1.0,part_1,,,,,,,,,,,,,magenta,square
101.0,2.0,2.0,0.0,3.0,3.0,272.8767704684287,1.0,1.0,part_1,,,,,,,,,,,,,white,cross
199.0,3.0,3.0,0.0,1.0,1.0,297.1693484578281,1.0,1.0,part_1,,,,,,,,,,,,,orange,diamond
81.0,6.0,2.0,1.0,2.0,2.0,262.2663730289787,1.0,1.0,part_1,,,,,,,,,,,,,cyan,flipped triangle
68.0,5.0,1.0,1.0,1.0,1.0,332.0170931983739,1.0,1.0,part_1,,,,,,,,,,,,,gray,triangle
0.0,8.0,0.0,1.0,3.0,3.0,297.0224900636822,1.0,1.0,part_1,,,,,,,,,,,,,blue,I
386.0,4.0,4.0,0.0,1.0,1.0,343.5522229410708,1.0,1.0,part_1,,,,,,,,,,,,,yellow,hexagon
403.0,4.0,4.0,0.0,3.0,3.0,321.9508046749979,1.0,1.0,part_1,,,,,,,,,,,,,yellow,hexagon
0.0,8.0,0.0,1.0,4.0,4.0,411.5907547529787,1.0,1.0,part_1,,,,,,,,,,,,,blue,I
379.0,4.0,4.0,0.0,3.0,3.0,289.0373065602034,1.0,1.0,part_1,,,,,,,,,,,,,yellow,hexagon
382.0,8.0,4.0,1.0,3.0,3.0,300.7476080674678,1.0,1.0,part_1,,,,,,,,,,,,,blue,I
382.0,8.0,4.0,1.0,2.0,2.0,311.8042154237628,1.0,1.0,part_1,,,,,,,,,,,,,blue,I
105.0,2.0,2.0,0.0,4.0,4.0,323.2229850254953,1.0,1.0,part_1,,,,,,,,,,,,,white,cross
96.0,6.0,2.0,1.0,1.0,1.0,312.4790510628372,1.0,1.0,part_1,,,,,,,,,,,,,cyan,flipped triangle
425.0,4.0,4.0,0.0,4.0,4.0,335.9391926787793,1.0,1.0,part_1,,,,,,,,,,,,,yellow,hexagon
34.0,5.0,1.0,1.0,2.0,2.0,324.6137031819671,1.0,1.0,part_1,,,,,,,,,,,,,gray,triangle
117.0,2.0,2.0,0.0,4.0,4.0,292.700350517407,1.0,1.0,part_1,,,,,,,,,,,,,white,cross
186.0,3.0,3.0,0.0,3.0,3.0,292.2518281266093,1.0,1.0,part_1,,,,,,,,,,,,,orange,diamond
80.0,2.0,2.0,0.0,4.0,4.0,283.2644374575466,1.0,1.0,part_1,,,,,,,,,,,,,white,cross
414.0,8.0,4.0,1.0,3.0,3.0,305.0295519642532,1.0,1.0,part_1,,,,,,,,,,,,,blue,I
0.0,5.0,0.0,1.0,2.0,2.0,316.2112149875611,1.0,1.0,part_1,,,,,,,,,,,,,gray,triangle
201.0,7.0,3.0,1.0,4.0,4.0,327.8062702156603,1.0,1.0,part_1,,,,,,,,,,,,,green,circle
124.0,6.0,2.0,1.0,4.0,4.0,341.1959740333259,1.0,1.0,part_1,,,,,,,,,,,,,cyan,flipped triangle
388.0,8.0,4.0,1.0,1.0,1.0,319.4429920986295,1.0,1.0,part_1,,,,,,,,,,,,,blue,I
59.0,1.0,1.0,0.0,1.0,1.0,296.8514394015074,1.0,1.0,part_1,,,,,,,,,,,,,magenta,square
0.0,8.0,0.0,1.0,1.0,1.0,308.311621658504,1.0,1.0,part_1,,,,,,,,,,,,,blue,I
199.0,7.0,3.0,1.0,3.0,3.0,341.4492136798799,1.0,1.0,part_1,,,,,,,,,,,,,green,circle
396.0,4.0,4.0,0.0,4.0,4.0,297.8660997468978,1.0,1.0,part_1,,,,,,,,,,,,,yellow,hexagon
414.0,4.0,4.0,0.0,1.0,1.0,287.3369685839861,1.0,1.0,part_1,,,,,,,,,,,,,yellow,hexagon
116.0,6.0,2.0,1.0,2.0,2.0,287.2822091449052,1.0,1.0,part_1,,,,,,,,,,,,,cyan,flipped triangle
76.0,2.0,2.0,0.0,2.0,2.0,300.5194761790335,1.0,1.0,part_1,,,,,,,,,,,,,white,cross
55.0,1.0,1.0,0.0,2.0,2.0,300.8390157483518,1.0,1.0,part_1,,,,,,,,,,,,,magenta,square
0.0,7.0,0.0,1.0,1.0,1.0,300.5139871966094,1.0,1.0,part_1,,,,,,,,,,,,,green,circle
193.0,3.0,3.0,0.0,2.0,2.0,302.5686505716294,1.0,1.0,part_1,,,,,,,,,,,,,orange,diamond
401.0,4.0,4.0,0.0,3.0,3.0,301.8965155351907,1.0,1.0,part_1,,,,,,,,,,,,,yellow,hexagon
380.0,8.0,4.0,1.0,2.0,2.0,315.4388281982392,1.0,1.0,part_1,,,,,,,,,,,,,blue,I
418.0,8.0,4.0,1.0,1.0,1.0,292.2363288234919,1.0,1.0,part_1,,,,,,,,,,,,,blue,I
63.0,5.0,1.0,1.0,4.0,4.0,291.5507315192371,1.0,1.0,part_1,,,,,,,,,,,,,gray,triangle
62.0,5.0,1.0,1.0,3.0,3.0,259.106571553275,1.0,1.0,part_1,,,,,,,,,,,,,gray,triangle
179.0,7.0,3.0,1.0,2.0,2.0,248.3153122011572,1.0,1.0,part_1,,,,,,,,,,,,,green,circle
418.0,4.0,4.0,0.0,2.0,2.0,271.4830702170729,1.0,1.0,part_1,,,,,,,,,,,,,yellow,hexagon
25.0,5.0,1.0,1.0,1.0,1.0,273.5819651279598,1.0,1.0,part_1,,,,,,,,,,,,,gray,triangle
29.0,1.0,1.0,0.0,2.0,2.0,272.5299538578838,1.0,1.0,part_1,,,,,,,,,,,,,magenta,square
417.0,8.0,4.0,1.0,2.0,2.0,286.1050229985267,1.0,1.0,part_1,,,,,,,,,,,,,blue,I
124.0,6.0,2.0,1.0,3.0,3.0,284.685187973082,1.0,1.0,part_1,,,,,,,,,,,,,cyan,flipped triangle
210.0,3.0,3.0,0.0,3.0,3.0,263.7302582152188,1.0,1.0,part_1,,,,,,,,,,,,,orange,diamond
106.0,6.0,2.0,1.0,4.0,4.0,330.3807831835001,1.0,1.0,part_1,,,,,,,,,,,,,cyan,flipped triangle
409.0,4.0,4.0,0.0,3.0,3.0,263.0001520738005,1.0,1.0,part_1,,,,,,,,,,,,,yellow,hexagon
97.0,2.0,2.0,0.0,3.0,3.0,286.7781040258705,1.0,1.0,part_1,,,,,,,,,,,,,white,cross
110.0,2.0,2.0,0.0,3.0,3.0,241.8547300621867,1.0,1.0,part_1,,,,,,,,,,,,,white,cross
50.0,1.0,1.0,0.0,2.0,2.0,300.0305560417473,1.0,1.0,part_1,,,,,,,,,,,,,magenta,square
205.0,3.0,3.0,0.0,2.0,2.0,289.6767556667328,1.0,1.0,part_1,,,,,,,,,,,,,orange,diamond
177.0,7.0,3.0,1.0,1.0,1.0,323.4910350292921,1.0,1.0,part_1,,,,,,,,,,,,,green,circle
79.0,6.0,2.0,1.0,1.0,1.0,269.0019900910556,1.0,1.0,part_1,,,,,,,,,,,,,cyan,flipped triangle
29.0,5.0,1.0,1.0,2.0,2.0,279.5023811049759,1.0,1.0,part_1,,,,,,,,,,,,,gray,triangle
40.0,1.0,1.0,0.0,2.0,2.0,279.2525130789727,1.0,1.0,part_1,,,,,,,,,,,,,magenta,square
186.0,3.0,3.0,0.0,2.0,2.0,291.6817613877356,1.0,1.0,part_1,,,,,,,,,,,,,orange,diamond
175.0,7.0,3.0,1.0,3.0,3.0,269.5419453084469,1.0,1.0,part_1,,,,,,,,,,,,,green,circle
25.0,5.0,1.0,1.0,3.0,3.0,281.0119276400655,1.0,1.0,part_1,,,,,,,,,,,,,gray,triangle
212.0,3.0,3.0,0.0,1.0,1.0,327.0345232449472,1.0,1.0,part_1,,,,,,,,,,,,,orange,diamond
417.0,4.0,4.0,0.0,4.0,4.0,304.3138678185642,1.0,1.0,part_1,,,,,,,,,,,,,yellow,hexagon
119.0,2.0,2.0,0.0,3.0,3.0,294.5591451134532,1.0,1.0,part_1,,,,,,,,,,,,,white,cross
105.0,6.0,2.0,1.0,3.0,3.0,273.2304942328483,1.0,1.0,part_1,,,,,,,,,,,,,cyan,flipped triangle
196.0,7.0,3.0,1.0,3.0,3.0,272.7958911564201,1.0,1.0,part_1,,,,,,,,,,,,,green,circle
401.0,8.0,4.0,1.0,4.0,4.0,340.6849470920861,1.0,1.0,part_1,,,,,,,,,,,,,blue,I
99.0,6.0,2.0,1.0,4.0,4.0,308.7012246251106,1.0,1.0,part_1,,,,,,,,,,,,,cyan,flipped triangle
382.0,4.0,4.0,0.0,1.0,1.0,330.4776134900749,1.0,1.0,part_1,,,,,,,,,,,,,yellow,hexagon
0.0,6.0,0.0,1.0,2.0,2.0,342.3440107144415,1.0,1.0,part_1,,,,,,,,,,,,,cyan,flipped triangle
0.0,5.0,0.0,1.0,2.0,2.0,299.9447155743837,1.0,1.0,part_1,,,,,,,,,,,,,gray,triangle
0.0,3.0,0.0,0.0,1.0,1.0,321.5699340216815,1.0,1.0,part_1,,,,,,,,,,,,,orange,diamond
0.0,2.0,0.0,0.0,2.0,2.0,310.6440689880401,1.0,1.0,part_1,,,,,,,,,,,,,white,cross
0.0,2.0,0.0,0.0,2.0,2.0,334.0914235450327,1.0,1.0,part_1,,,,,,,,,,,,,white,cross
70.0,1.0,1.0,0.0,4.0,4.0,333.8077154476195,1.0,1.0,part_1,,,,,,,,,,,,,magenta,square
0.0,6.0,0.0,1.0,3.0,3.0,312.6645311713218,1.0,1.0,part_1,,,,,,,,,,,,,cyan,flipped triangle
117.0,6.0,2.0,1.0,4.0,4.0,301.5162276569754,1.0,1.0,part_1,,,,,,,,,,,,,cyan,flipped triangle
33.0,5.0,1.0,1.0,4.0,4.0,290.0533201172948,1.0,1.0,part_1,,,,,,,,,,,,,gray,triangle
400.0,8.0,4.0,1.0,2.0,2.0,337.5802601221949,1.0,1.0,part_1,,,,,,,,,,,,,blue,I
77.0,2.0,2.0,0.0,3.0,3.0,326.024730456993,1.0,1.0,part_1,,,,,,,,,,,,,white,cross
0.0,2.0,0.0,0.0,4.0,4.0,281.652218196541,1.0,1.0,part_1,,,,,,,,,,,,,white,cross
77.0,6.0,2.0,1.0,2.0,2.0,293.9833120908588,1.0,1.0,part_1,,,,,,,,,,,,,cyan,flipped triangle
411.0,4.0,4.0,0.0,3.0,3.0,339.5970100536942,1.0,1.0,part_1,,,,,,,,,,,,,yellow,hexagon
201.0,3.0,3.0,0.0,2.0,2.0,305.5904142092913,1.0,1.0,part_1,,,,,,,,,,,,,orange,diamond
0.0,4.0,0.0,0.0,3.0,3.0,294.1894810646772,1.0,1.0,part_1,,,,,,,,,,,,,yellow,hexagon
378.0,4.0,4.0,0.0,3.0,3.0,305.6154521182179,1.0,1.0,part_1,,,,,,,,,,,,,yellow,hexagon
0.0,6.0,0.0,1.0,2.0,2.0,262.1215335093438,1.0,1.0,part_1,,,,,,,,,,,,,cyan,flipped triangle
0.0,6.0,0.0,1.0,4.0,4.0,307.2579461149871,1.0,1.0,part_1,,,,,,,,,,,,,cyan,flipped triangle
50.0,5.0,1.0,1.0,2.0,2.0,275.3936941735446,1.0,1.0,part_1,,,,,,,,,,,,,gray,triangle
61.0,1.0,1.0,0.0,1.0,1.0,330.1713105756789,2.0,1.0,part_1,,,,,,,,,,,,,magenta,square
408.0,8.0,4.0,1.0,2.0,2.0,307.7739374712109,2.0,1.0,part_1,,,,,,,,,,,,,blue,I
424.0,4.0,4.0,0.0,2.0,2.0,320.5658141523599,2.0,1.0,part_1,,,,,,,,,,,,,yellow,hexagon
0.0,8.0,0.0,1.0,1.0,1.0,309.4195141457021,2.0,1.0,part_1,,,,,,,,,,,,,blue,I
196.0,3.0,3.0,0.0,4.0,4.0,274.9730190262198,2.0,1.0,part_1,,,,,,,,,,,,,orange,diamond
122.0,6.0,2.0,1.0,4.0,4.0,277.1398040931672,2.0,1.0,part_1,,,,,,,,,,,,,cyan,flipped triangle
54.0,1.0,1.0,0.0,1.0,1.0,265.9344053827226,2.0,1.0,part_1,,,,,,,,,,,,,magenta,square
106.0,2.0,2.0,0.0,2.0,2.0,267.306434456259,2.0,1.0,part_1,,,,,,,,,,,,,white,cross
76.0,2.0,2.0,0.0,1.0,1.0,268.3423827402293,2.0,1.0,part_1,,,,,,,,,,,,,white,cross
0.0,6.0,0.0,1.0,3.0,3.0,255.51192881539458,2.0,1.0,part_1,,,,,,,,,,,,,cyan,flipped triangle
61.0,1.0,1.0,0.0,2.0,2.0,235.5541021097451,2.0,1.0,part_1,,,,,,,,,,,,,magenta,square
0.0,4.0,0.0,0.0,2.0,2.0,258.6550421547144,2.0,1.0,part_1,,,,,,,,,,,,,yellow,hexagon
81.0,2.0,2.0,0.0,2.0,2.0,257.2875232435763,2.0,1.0,part_1,,,,,,,,,,,,,white,cross
195.0,3.0,3.0,0.0,4.0,4.0,281.0136380139738,2.0,1.0,part_1,,,,,,,,,,,,,orange,diamond
105.0,6.0,2.0,1.0,2.0,2.0,271.4501300361007,2.0,1.0,part_1,,,,,,,,,,,,,cyan,flipped triangle
35.0,5.0,1.0,1.0,1.0,1.0,315.9080781042576,2.0,1.0,part_1,,,,,,,,,,,,,gray,triangle
180.0,7.0,3.0,1.0,3.0,3.0,248.9164262078702,2.0,1.0,part_1,,,,,,,,,,,,,green,circle
0.0,1.0,0.0,0.0,1.0,1.0,317.5190482288599,2.0,2.0,part_1,,,,,,,,,,,,,magenta,square
0.0,1.0,0.0,0.0,2.0,2.0,318.1101602967828,2.0,1.0,part_1,,,,,,,,,,,,,magenta,square
196.0,7.0,3.0,1.0,2.0,2.0,307.5824431143701,2.0,1.0,part_1,,,,,,,,,,,,,green,circle
0.0,6.0,0.0,1.0,3.0,3.0,318.3172587305307,2.0,1.0,part_1,,,,,,,,,,,,,cyan,flipped triangle
52.0,5.0,1.0,1.0,1.0,1.0,341.6715699713677,2.0,1.0,part_1,,,,,,,,,,,,,gray,triangle
0.0,5.0,0.0,1.0,1.0,1.0,297.4938636180013,2.0,1.0,part_1,,,,,,,,,,,,,gray,triangle
0.0,1.0,0.0,0.0,3.0,3.0,309.7174172289669,2.0,1.0,part_1,,,,,,,,,,,,,magenta,square
0.0,4.0,0.0,0.0,3.0,3.0,343.7387244775891,2.0,1.0,part_1,,,,,,,,,,,,,yellow,hexagon
89.0,6.0,2.0,1.0,1.0,1.0,321.8211671337485,2.0,1.0,part_1,,,,,,,,,,,,,cyan,flipped triangle
219.0,7.0,3.0,1.0,1.0,1.0,333.0444183666259,2.0,1.0,part_1,,,,,,,,,,,,,green,circle
119.0,6.0,2.0,1.0,2.0,2.0,345.030014635995,2.0,1.0,part_1,,,,,,,,,,,,,cyan,flipped triangle
104.0,2.0,2.0,0.0,2.0,2.0,345.3948374371975,2.0,1.0,part_1,,,,,,,,,,,,,white,cross
0.0,5.0,0.0,1.0,4.0,4.0,345.9623015951365,2.0,1.0,part_1,,,,,,,,,,,,,gray,triangle
221.0,7.0,3.0,1.0,2.0,2.0,324.8184740077704,2.0,1.0,part_1,,,,,,,,,,,,,green,circle
202.0,7.0,3.0,1.0,2.0,2.0,336.3226486835629,2.0,1.0,part_1,,,,,,,,,,,,,green,circle
208.0,3.0,3.0,0.0,1.0,1.0,325.7939675822854,2.0,1.0,part_1,,,,,,,,,,,,,orange,diamond
100.0,2.0,2.0,0.0,2.0,2.0,303.2982556615025,2.0,1.0,part_1,,,,,,,,,,,,,white,cross
0.0,8.0,0.0,1.0,3.0,3.0,292.8685999941081,2.0,1.0,part_1,,,,,,,,,,,,,blue,I
0.0,2.0,0.0,0.0,4.0,4.0,305.6343840435147,2.0,1.0,part_1,,,,,,,,,,,,,white,cross
422.0,4.0,4.0,0.0,2.0,2.0,271.6479515656829,2.0,1.0,part_1,,,,,,,,,,,,,yellow,hexagon
210.0,7.0,3.0,1.0,3.0,3.0,350.8829784113914,2.0,1.0,part_1,,,,,,,,,,,,,green,circle
406.0,4.0,4.0,0.0,4.0,4.0,327.887391205877,2.0,1.0,part_1,,,,,,,,,,,,,yellow,hexagon
381.0,8.0,4.0,1.0,1.0,1.0,319.6446443907916,2.0,1.0,part_1,,,,,,,,,,,,,blue,I
194.0,3.0,3.0,0.0,1.0,1.0,409.7089651040733,2.0,1.0,part_1,,,,,,,,,,,,,orange,diamond
76.0,6.0,2.0,1.0,4.0,4.0,330.8436390943825,2.0,1.0,part_1,,,,,,,,,,,,,cyan,flipped triangle
62.0,1.0,1.0,0.0,2.0,2.0,319.7420639917254,2.0,1.0,part_1,,,,,,,,,,,,,magenta,square
377.0,8.0,4.0,1.0,4.0,4.0,330.7594496291131,2.0,1.0,part_1,,,,,,,,,,,,,blue,I
101.0,6.0,2.0,1.0,3.0,3.0,343.6248002108186,2.0,1.0,part_1,,,,,,,,,,,,,cyan,flipped triangle
210.0,3.0,3.0,0.0,4.0,4.0,321.7385376337915,2.0,1.0,part_1,,,,,,,,,,,,,orange,diamond
224.0,7.0,3.0,1.0,3.0,3.0,343.3542142156511,2.0,1.0,part_1,,,,,,,,,,,,,green,circle
0.0,3.0,0.0,0.0,1.0,1.0,323.0159012600779,2.0,1.0,part_1,,,,,,,,,,,,,orange,diamond
0.0,4.0,0.0,0.0,4.0,4.0,323.3955840114504,2.0,1.0,part_1,,,,,,,,,,,,,yellow,hexagon
0.0,5.0,0.0,1.0,4.0,4.0,345.9513625130057,2.0,1.0,part_1,,,,,,,,,,,,,gray,triangle
179.0,3.0,3.0,0.0,2.0,2.0,335.7604348566383,2.0,1.0,part_1,,,,,,,,,,,,,orange,diamond
424.0,8.0,4.0,1.0,3.0,3.0,347.1411964856088,2.0,1.0,part_1,,,,,,,,,,,,,blue,I
0.0,4.0,0.0,0.0,3.0,3.0,335.3040660731494,2.0,1.0,part_1,,,,,,,,,,,,,yellow,hexagon
395.0,4.0,4.0,0.0,4.0,4.0,337.017297744751,2.0,1.0,part_1,,,,,,,,,,,,,yellow,hexagon
390.0,8.0,4.0,1.0,1.0,1.0,294.0612630918622,2.0,1.0,part_1,,,,,,,,,,,,,blue,I
63.0,1.0,1.0,0.0,4.0,4.0,303.6637976765632,2.0,1.0,part_1,,,,,,,,,,,,,magenta,square
44.0,5.0,1.0,1.0,3.0,3.0,293.0129796732217,2.0,1.0,part_1,,,,,,,,,,,,,gray,triangle
100.0,2.0,2.0,0.0,1.0,1.0,305.3755310829729,2.0,1.0,part_1,,,,,,,,,,,,,white,cross
77.0,6.0,2.0,1.0,1.0,1.0,317.4072196707129,2.0,1.0,part_1,,,,,,,,,,,,,cyan,flipped triangle
0.0,7.0,0.0,1.0,1.0,1.0,329.9455260857939,2.0,1.0,part_1,,,,,,,,,,,,,green,circle
0.0,5.0,0.0,1.0,4.0,4.0,329.6100171282887,2.0,1.0,part_1,,,,,,,,,,,,,gray,triangle
61.0,5.0,1.0,1.0,3.0,3.0,318.5803659725934,2.0,1.0,part_1,,,,,,,,,,,,,gray,triangle
0.0,7.0,0.0,1.0,2.0,2.0,308.3770030643791,2.0,1.0,part_1,,,,,,,,,,,,,green,circle
412.0,4.0,4.0,0.0,3.0,3.0,296.8011577613652,2.0,1.0,part_1,,,,,,,,,,,,,yellow,hexagon
0.0,1.0,0.0,0.0,3.0,3.0,308.6856685113162,2.0,1.0,part_1,,,,,,,,,,,,,magenta,square
42.0,5.0,1.0,1.0,1.0,1.0,309.7865141462534,2.0,1.0,part_1,,,,,,,,,,,,,gray,triangle
0.0,2.0,0.0,0.0,3.0,3.0,310.3999206796288,2.0,1.0,part_1,,,,,,,,,,,,,white,cross
56.0,1.0,1.0,0.0,2.0,2.0,312.342919409275,2.0,1.0,part_1,,,,,,,,,,,,,magenta,square
76.0,6.0,2.0,1.0,2.0,2.0,301.6067140270024,2.0,1.0,part_1,,,,,,,,,,,,,cyan,flipped triangle
191.0,3.0,3.0,0.0,3.0,3.0,301.7201779875904,2.0,1.0,part_1,,,,,,,,,,,,,orange,diamond
100.0,6.0,2.0,1.0,3.0,3.0,322.9413516819477,2.0,1.0,part_1,,,,,,,,,,,,,cyan,flipped triangle
110.0,6.0,2.0,1.0,1.0,1.0,324.5990045834332,2.0,1.0,part_1,,,,,,,,,,,,,cyan,flipped triangle
43.0,5.0,1.0,1.0,4.0,4.0,302.72106151096517,2.0,1.0,part_1,,,,,,,,,,,,,gray,triangle
182.0,3.0,3.0,0.0,3.0,3.0,304.0943306405097,2.0,1.0,part_1,,,,,,,,,,,,,orange,diamond
0.0,1.0,0.0,0.0,1.0,1.0,304.0100436192006,2.0,1.0,part_1,,,,,,,,,,,,,magenta,square
34.0,1.0,1.0,0.0,3.0,3.0,326.4482566155493,2.0,1.0,part_1,,,,,,,,,,,,,magenta,square
398.0,8.0,4.0,1.0,1.0,1.0,283.1975715234875,2.0,1.0,part_1,,,,,,,,,,,,,blue,I
180.0,3.0,3.0,0.0,4.0,4.0,326.9263519905507,2.0,1.0,part_1,,,,,,,,,,,,,orange,diamond
382.0,8.0,4.0,1.0,4.0,4.0,350.1689375843853,2.0,1.0,part_1,,,,,,,,,,,,,blue,I
68.0,1.0,1.0,0.0,3.0,3.0,294.3036477081477,2.0,1.0,part_1,,,,,,,,,,,,,magenta,square
0.0,1.0,0.0,0.0,4.0,4.0,306.8552394397557,2.0,1.0,part_1,,,,,,,,,,,,,magenta,square
70.0,1.0,1.0,0.0,4.0,4.0,273.2598097063601,2.0,1.0,part_1,,,,,,,,,,,,,magenta,square
116.0,2.0,2.0,0.0,2.0,2.0,319.6753761731088,2.0,1.0,part_1,,,,,,,,,,,,,white,cross
0.0,7.0,0.0,1.0,2.0,2.0,286.1556014977395,2.0,1.0,part_1,,,,,,,,,,,,,green,circle
0.0,6.0,0.0,1.0,2.0,2.0,319.80552803725,2.0,1.0,part_1,,,,,,,,,,,,,cyan,flipped triangle
197.0,3.0,3.0,0.0,3.0,3.0,388.450144091621,2.0,1.0,part_1,,,,,,,,,,,,,orange,diamond
70.0,5.0,1.0,1.0,2.0,2.0,323.0854496359825,2.0,1.0,part_1,,,,,,,,,,,,,gray,triangle
378.0,8.0,4.0,1.0,2.0,2.0,301.3221768196672,2.0,1.0,part_1,,,,,,,,,,,,,blue,I
35.0,1.0,1.0,0.0,4.0,4.0,300.725755514577,2.0,1.0,part_1,,,,,,,,,,,,,magenta,square
89.0,2.0,2.0,0.0,3.0,3.0,322.3636536858976,2.0,1.0,part_1,,,,,,,,,,,,,white,cross
186.0,7.0,3.0,1.0,3.0,3.0,324.0643106400966,2.0,1.0,part_1,,,,,,,,,,,,,green,circle
0.0,6.0,0.0,1.0,3.0,3.0,312.2059600427747,2.0,1.0,part_1,,,,,,,,,,,,,cyan,flipped triangle
186.0,7.0,3.0,1.0,2.0,2.0,313.9964991714805,2.0,1.0,part_1,,,,,,,,,,,,,green,circle
0.0,8.0,0.0,1.0,4.0,4.0,315.2468267362565,2.0,1.0,part_1,,,,,,,,,,,,,blue,I
415.0,4.0,4.0,0.0,3.0,3.0,246.770336292684,2.0,1.0,part_1,,,,,,,,,,,,,yellow,hexagon
403.0,8.0,4.0,1.0,4.0,4.0,361.3074901513755,2.0,1.0,part_1,,,,,,,,,,,,,blue,I
177.0,3.0,3.0,0.0,3.0,3.0,303.6752205807715,2.0,1.0,part_1,,,,,,,,,,,,,orange,diamond
25.0,1.0,1.0,0.0,1.0,1.0,284.261800115928,2.0,1.0,part_1,,,,,,,,,,,,,magenta,square
384.0,8.0,4.0,1.0,2.0,2.0,373.984009725973,2.0,1.0,part_1,,,,,,,,,,,,,blue,I
389.0,8.0,4.0,1.0,4.0,4.0,294.0479430835694,2.0,1.0,part_1,,,,,,,,,,,,,blue,I
210.0,7.0,3.0,1.0,2.0,2.0,292.775641195476,3.0,1.0,part_1,,,,,,,,,,,,,green,circle
94.0,6.0,2.0,1.0,3.0,3.0,303.4066020045429,3.0,1.0,part_1,,,,,,,,,,,,,cyan,flipped triangle
403.0,4.0,4.0,0.0,1.0,1.0,292.2615092247724,3.0,1.0,part_1,,,,,,,,,,,,,yellow,hexagon
106.0,6.0,2.0,1.0,3.0,3.0,359.4263037666678,3.0,1.0,part_1,,,,,,,,,,,,,cyan,flipped triangle
80.0,6.0,2.0,1.0,1.0,1.0,293.1258932221681,3.0,1.0,part_1,,,,,,,,,,,,,cyan,flipped triangle
186.0,3.0,3.0,0.0,3.0,3.0,315.6668941956013,3.0,1.0,part_1,,,,,,,,,,,,,orange,diamond
411.0,8.0,4.0,1.0,2.0,2.0,316.6868847329169,3.0,1.0,part_1,,,,,,,,,,,,,blue,I
208.0,7.0,3.0,1.0,3.0,3.0,306.5705010667443,3.0,1.0,part_1,,,,,,,,,,,,,green,circle
35.0,5.0,1.0,1.0,2.0,2.0,295.6931230146438,3.0,1.0,part_1,,,,,,,,,,,,,gray,triangle
396.0,8.0,4.0,1.0,3.0,3.0,295.6044767051935,3.0,1.0,part_1,,,,,,,,,,,,,blue,I
210.0,7.0,3.0,1.0,1.0,1.0,275.8470112457871,3.0,1.0,part_1,,,,,,,,,,,,,green,circle
203.0,3.0,3.0,0.0,1.0,1.0,286.2210830207914,3.0,1.0,part_1,,,,,,,,,,,,,orange,diamond
68.0,1.0,1.0,0.0,1.0,1.0,298.6965710297227,3.0,1.0,part_1,,,,,,,,,,,,,magenta,square
214.0,3.0,3.0,0.0,2.0,2.0,286.9930469896644,3.0,1.0,part_1,,,,,,,,,,,,,orange,diamond
412.0,8.0,4.0,1.0,4.0,4.0,322.0865225885063,3.0,2.0,part_1,,,,,,,,,,,,,blue,I
25.0,1.0,1.0,0.0,4.0,4.0,356.53035226278,3.0,1.0,part_1,,,,,,,,,,,,,magenta,square
88.0,6.0,2.0,1.0,1.0,1.0,323.2876418624073,3.0,1.0,part_1,,,,,,,,,,,,,cyan,flipped triangle
196.0,3.0,3.0,0.0,4.0,4.0,335.183784365654,3.0,1.0,part_1,,,,,,,,,,,,,orange,diamond
195.0,7.0,3.0,1.0,3.0,3.0,345.501905772835,3.0,1.0,part_1,,,,,,,,,,,,,green,circle
25.0,1.0,1.0,0.0,1.0,1.0,292.2545145265758,3.0,1.0,part_1,,,,,,,,,,,,,magenta,square
0.0,6.0,0.0,1.0,3.0,3.0,336.1953243147582,3.0,1.0,part_1,,,,,,,,,,,,,cyan,flipped triangle
386.0,8.0,4.0,1.0,3.0,3.0,336.2433442380279,3.0,1.0,part_1,,,,,,,,,,,,,blue,I
415.0,8.0,4.0,1.0,1.0,1.0,315.109652467072,3.0,1.0,part_1,,,,,,,,,,,,,blue,I
409.0,8.0,4.0,1.0,4.0,4.0,350.2359467092901,3.0,1.0,part_1,,,,,,,,,,,,,blue,I
106.0,2.0,2.0,0.0,1.0,1.0,328.3978281542659,3.0,1.0,part_1,,,,,,,,,,,,,white,cross
211.0,3.0,3.0,0.0,4.0,4.0,317.0131200458854,3.0,1.0,part_1,,,,,,,,,,,,,orange,diamond
406.0,8.0,4.0,1.0,3.0,3.0,351.5508831478655,3.0,1.0,part_1,,,,,,,,,,,,,blue,I
175.0,3.0,3.0,0.0,1.0,1.0,295.9114876575768,3.0,1.0,part_1,,,,,,,,,,,,,orange,diamond
117.0,6.0,2.0,1.0,2.0,2.0,341.2651494145393,3.0,1.0,part_1,,,,,,,,,,,,,cyan,flipped triangle
377.0,4.0,4.0,0.0,4.0,4.0,295.4295210074633,3.0,1.0,part_1,,,,,,,,,,,,,yellow,hexagon
59.0,5.0,1.0,1.0,1.0,1.0,354.2407259810716,3.0,1.0,part_1,,,,,,,,,,,,,gray,triangle
390.0,4.0,4.0,0.0,1.0,1.0,299.2862935643643,3.0,1.0,part_1,,,,,,,,,,,,,yellow,hexagon
123.0,6.0,2.0,1.0,3.0,3.0,342.5188839901238,3.0,1.0,part_1,,,,,,,,,,,,,cyan,flipped triangle
0.0,3.0,0.0,0.0,3.0,3.0,331.3359036110341,3.0,1.0,part_1,,,,,,,,,,,,,orange,diamond
210.0,3.0,3.0,0.0,1.0,1.0,309.7982686012983,3.0,1.0,part_1,,,,,,,,,,,,,orange,diamond
69.0,5.0,1.0,1.0,3.0,3.0,332.4887545313686,3.0,1.0,part_1,,,,,,,,,,,,,gray,triangle
65.0,1.0,1.0,0.0,1.0,1.0,424.5772606227547,3.0,1.0,part_1,,,,,,,,,,,,,magenta,square
214.0,7.0,3.0,1.0,3.0,3.0,345.5586191266775,3.0,1.0,part_1,,,,,,,,,,,,,green,circle
408.0,4.0,4.0,0.0,1.0,1.0,335.669350111857,3.0,1.0,part_1,,,,,,,,,,,,,yellow,hexagon
33.0,1.0,1.0,0.0,3.0,3.0,312.6408285461366,3.0,1.0,part_1,,,,,,,,,,,,,magenta,square
0.0,7.0,0.0,1.0,1.0,1.0,314.6686991676688,3.0,1.0,part_1,,,,,,,,,,,,,green,circle
123.0,2.0,2.0,0.0,1.0,1.0,314.0283646062016,3.0,1.0,part_1,,,,,,,,,,,,,white,cross
35.0,1.0,1.0,0.0,4.0,4.0,325.7188550196588,3.0,1.0,part_1,,,,,,,,,,,,,magenta,square
48.0,1.0,1.0,0.0,3.0,3.0,326.8345093820244,3.0,1.0,part_1,,,,,,,,,,,,,magenta,square
57.0,1.0,1.0,0.0,1.0,1.0,293.3914177119732,3.0,1.0,part_1,,,,,,,,,,,,,magenta,square
0.0,8.0,0.0,1.0,4.0,4.0,339.0030460432172,3.0,1.0,part_1,,,,,,,,,,,,,blue,I
182.0,7.0,3.0,1.0,4.0,4.0,352.0780445542186,3.0,1.0,part_1,,,,,,,,,,,,,green,circle
61.0,5.0,1.0,1.0,4.0,4.0,329.0068081114441,3.0,1.0,part_1,,,,,,,,,,,,,gray,triangle
0.0,3.0,0.0,0.0,4.0,4.0,306.542974198237,3.0,1.0,part_1,,,,,,,,,,,,,orange,diamond
375.0,8.0,4.0,1.0,4.0,4.0,307.9259439837187,3.0,1.0,part_1,,,,,,,,,,,,,blue,I
36.0,1.0,1.0,0.0,3.0,3.0,286.6886830888688,3.0,1.0,part_1,,,,,,,,,,,,,magenta,square
0.0,2.0,0.0,0.0,2.0,2.0,319.6412476245314,3.0,1.0,part_1,,,,,,,,,,,,,white,cross
77.0,2.0,2.0,0.0,4.0,4.0,343.7624939251691,3.0,1.0,part_1,,,,,,,,,,,,,white,cross
202.0,7.0,3.0,1.0,4.0,4.0,331.3008127734065,3.0,1.0,part_1,,,,,,,,,,,,,green,circle
400.0,4.0,4.0,0.0,4.0,4.0,331.8093565758317,3.0,1.0,part_1,,,,,,,,,,,,,yellow,hexagon
57.0,5.0,1.0,1.0,1.0,1.0,300.5689822603017,3.0,1.0,part_1,,,,,,,,,,,,,gray,triangle
122.0,2.0,2.0,0.0,2.0,2.0,300.0963786616921,3.0,1.0,part_1,,,,,,,,,,,,,white,cross
81.0,2.0,2.0,0.0,4.0,4.0,379.0212215390056,3.0,1.0,part_1,,,,,,,,,,,,,white,cross
375.0,4.0,4.0,0.0,4.0,4.0,368.2480305433273,3.0,1.0,part_1,,,,,,,,,,,,,yellow,hexagon
0.0,3.0,0.0,0.0,3.0,3.0,346.5460427105427,3.0,1.0,part_1,,,,,,,,,,,,,orange,diamond
0.0,3.0,0.0,0.0,3.0,3.0,357.7851299196481,3.0,1.0,part_1,,,,,,,,,,,,,orange,diamond
202.0,3.0,3.0,0.0,3.0,3.0,324.6011256705969,3.0,1.0,part_1,,,,,,,,,,,,,orange,diamond
88.0,2.0,2.0,0.0,1.0,1.0,336.9468846358359,3.0,1.0,part_1,,,,,,,,,,,,,white,cross
79.0,2.0,2.0,0.0,4.0,4.0,350.02338280901307,3.0,1.0,part_1,,,,,,,,,,,,,white,cross
37.0,5.0,1.0,1.0,4.0,4.0,361.9894431903958,3.0,1.0,part_1,,,,,,,,,,,,,gray,triangle
0.0,8.0,0.0,1.0,2.0,2.0,338.3087781257927,3.0,1.0,part_1,,,,,,,,,,,,,blue,I
420.0,4.0,4.0,0.0,2.0,2.0,328.2778724096715,3.0,1.0,part_1,,,,,,,,,,,,,yellow,hexagon
107.0,2.0,2.0,0.0,1.0,1.0,328.3287170343101,3.0,1.0,part_1,,,,,,,,,,,,,white,cross
124.0,2.0,2.0,0.0,4.0,4.0,306.3514931127429,3.0,1.0,part_1,,,,,,,,,,,,,white,cross
382.0,4.0,4.0,0.0,2.0,2.0,319.9913175776601,3.0,1.0,part_1,,,,,,,,,,,,,yellow,hexagon
64.0,1.0,1.0,0.0,4.0,4.0,308.1454827915877,3.0,1.0,part_1,,,,,,,,,,,,,magenta,square
0.0,3.0,0.0,0.0,2.0,2.0,341.9335230719298,3.0,1.0,part_1,,,,,,,,,,,,,orange,diamond
185.0,7.0,3.0,1.0,2.0,2.0,342.2957228031009,3.0,1.0,part_1,,,,,,,,,,,,,green,circle
197.0,7.0,3.0,1.0,4.0,4.0,342.1716233715415,3.0,1.0,part_1,,,,,,,,,,,,,green,circle
0.0,7.0,0.0,1.0,2.0,2.0,311.5969356149435,3.0,1.0,part_1,,,,,,,,,,,,,green,circle
215.0,3.0,3.0,0.0,4.0,4.0,355.3349943831563,3.0,1.0,part_1,,,,,,,,,,,,,orange,diamond
0.0,1.0,0.0,0.0,1.0,1.0,333.0018194392323,3.0,1.0,part_1,,,,,,,,,,,,,magenta,square
122.0,6.0,2.0,1.0,1.0,1.0,334.9939710460603,3.0,1.0,part_1,,,,,,,,,,,,,cyan,flipped triangle
82.0,6.0,2.0,1.0,1.0,1.0,267.2924753278494,3.0,1.0,part_1,,,,,,,,,,,,,cyan,flipped triangle
422.0,8.0,4.0,1.0,4.0,4.0,324.0782439243048,3.0,1.0,part_1,,,,,,,,,,,,,blue,I
224.0,3.0,3.0,0.0,2.0,2.0,313.688576221466,3.0,1.0,part_1,,,,,,,,,,,,,orange,diamond
425.0,8.0,4.0,1.0,3.0,3.0,313.7821315322071,3.0,1.0,part_1,,,,,,,,,,,,,blue,I
221.0,3.0,3.0,0.0,2.0,2.0,293.3849517721683,3.0,1.0,part_1,,,,,,,,,,,,,orange,diamond
216.0,3.0,3.0,0.0,4.0,4.0,315.0244462303817,3.0,1.0,part_1,,,,,,,,,,,,,orange,diamond
215.0,7.0,3.0,1.0,4.0,4.0,382.3048823978752,3.0,1.0,part_1,,,,,,,,,,,,,green,circle
380.0,4.0,4.0,0.0,1.0,1.0,306.121104164049,3.0,1.0,part_1,,,,,,,,,,,,,yellow,hexagon
40.0,5.0,1.0,1.0,1.0,1.0,306.1987101100385,3.0,1.0,part_1,,,,,,,,,,,,,gray,triangle
70.0,1.0,1.0,0.0,4.0,4.0,306.2597720418125,3.0,1.0,part_1,,,,,,,,,,,,,magenta,square
94.0,2.0,2.0,0.0,1.0,1.0,307.9335950314998,3.0,1.0,part_1,,,,,,,,,,,,,white,cross
44.0,1.0,1.0,0.0,4.0,4.0,317.2799914609641,3.0,1.0,part_1,,,,,,,,,,,,,magenta,square
107.0,6.0,2.0,1.0,2.0,2.0,342.5281555391848,3.0,1.0,part_1,,,,,,,,,,,,,cyan,flipped triangle
0.0,1.0,0.0,0.0,4.0,4.0,320.6665276084095,3.0,1.0,part_1,,,,,,,,,,,,,magenta,square
0.0,2.0,0.0,0.0,1.0,1.0,264.7078901063651,3.0,1.0,part_1,,,,,,,,,,,,,white,cross
34.0,1.0,1.0,0.0,3.0,3.0,320.1932276133448,3.0,1.0,part_1,,,,,,,,,,,,,magenta,square
95.0,6.0,2.0,1.0,2.0,2.0,299.7028275858611,3.0,1.0,part_1,,,,,,,,,,,,,cyan,flipped triangle
0.0,4.0,0.0,0.0,3.0,3.0,354.8054057173431,3.0,1.0,part_1,,,,,,,,,,,,,yellow,hexagon
36.0,5.0,1.0,1.0,2.0,2.0,357.4867900460958,3.0,1.0,part_1,,,,,,,,,,,,,gray,triangle
397.0,8.0,4.0,1.0,3.0,3.0,276.6493295785039,3.0,1.0,part_1,,,,,,,,,,,,,blue,I
35.0,5.0,1.0,1.0,4.0,4.0,356.4065527170896,3.0,1.0,part_1,,,,,,,,,,,,,gray,triangle
69.0,1.0,1.0,0.0,3.0,3.0,323.810621863231,3.0,1.0,part_1,,,,,,,,,,,,,magenta,square
97.0,6.0,2.0,1.0,4.0,4.0,327.0123931579292,4.0,1.0,part_1,,,,,,,,,,,,,cyan,flipped triangle
0.0,7.0,0.0,1.0,1.0,1.0,327.6895256713033,4.0,1.0,part_1,,,,,,,,,,,,,green,circle
70.0,5.0,1.0,1.0,2.0,2.0,317.0519338455051,4.0,1.0,part_1,,,,,,,,,,,,,gray,triangle
189.0,3.0,3.0,0.0,3.0,3.0,284.62655399926,4.0,1.0,part_1,,,,,,,,,,,,,orange,diamond
408.0,4.0,4.0,0.0,2.0,2.0,273.0394385289401,4.0,1.0,part_1,,,,,,,,,,,,,yellow,hexagon
0.0,2.0,0.0,0.0,4.0,4.0,329.2261066380888,4.0,1.0,part_1,,,,,,,,,,,,,white,cross
384.0,4.0,4.0,0.0,1.0,1.0,284.5891916658729,4.0,1.0,part_1,,,,,,,,,,,,,yellow,hexagon
105.0,2.0,2.0,0.0,4.0,4.0,331.7971690557897,4.0,1.0,part_1,,,,,,,,,,,,,white,cross
0.0,5.0,0.0,1.0,4.0,4.0,354.6344435308128,4.0,1.0,part_1,,,,,,,,,,,,,gray,triangle
199.0,3.0,3.0,0.0,2.0,2.0,344.203318702057,4.0,1.0,part_1,,,,,,,,,,,,,orange,diamond
396.0,8.0,4.0,1.0,3.0,3.0,321.7395723331719,4.0,1.0,part_1,,,,,,,,,,,,,blue,I
122.0,2.0,2.0,0.0,4.0,4.0,311.3612607121467,4.0,1.0,part_1,,,,,,,,,,,,,white,cross
379.0,8.0,4.0,1.0,1.0,1.0,310.8780230395496,4.0,1.0,part_1,,,,,,,,,,,,,blue,I
95.0,2.0,2.0,0.0,3.0,3.0,290.0138976983726,4.0,1.0,part_1,,,,,,,,,,,,,white,cross
59.0,1.0,1.0,0.0,1.0,1.0,323.6407290678471,4.0,1.0,part_1,,,,,,,,,,,,,magenta,square
35.0,1.0,1.0,0.0,1.0,1.0,312.990176025778,4.0,1.0,part_1,,,,,,,,,,,,,magenta,square
30.0,1.0,1.0,0.0,4.0,4.0,358.4592491388321,4.0,1.0,part_1,,,,,,,,,,,,,magenta,square
182.0,7.0,3.0,1.0,1.0,1.0,281.266217585653,4.0,1.0,part_1,,,,,,,,,,,,,green,circle
204.0,7.0,3.0,1.0,1.0,1.0,291.9656876474619,4.0,1.0,part_1,,,,,,,,,,,,,green,circle
199.0,7.0,3.0,1.0,1.0,1.0,326.0439455043524,4.0,1.0,part_1,,,,,,,,,,,,,green,circle
205.0,7.0,3.0,1.0,1.0,1.0,304.1591802611947,4.0,1.0,part_1,,,,,,,,,,,,,green,circle
397.0,4.0,4.0,0.0,3.0,3.0,293.7589576467871,4.0,1.0,part_1,,,,,,,,,,,,,yellow,hexagon
186.0,7.0,3.0,1.0,4.0,4.0,317.1755271032452,4.0,1.0,part_1,,,,,,,,,,,,,green,circle
0.0,4.0,0.0,0.0,1.0,1.0,329.9511382356286,4.0,1.0,part_1,,,,,,,,,,,,,yellow,hexagon
100.0,6.0,2.0,1.0,2.0,2.0,317.9250773973763,4.0,1.0,part_1,,,,,,,,,,,,,cyan,flipped triangle
0.0,1.0,0.0,0.0,1.0,1.0,273.0637246277183,4.0,1.0,part_1,,,,,,,,,,,,,magenta,square
212.0,7.0,3.0,1.0,4.0,4.0,319.0248205792159,4.0,1.0,part_1,,,,,,,,,,,,,green,circle
81.0,6.0,2.0,1.0,4.0,4.0,296.4545795693993,4.0,1.0,part_1,,,,,,,,,,,,,cyan,flipped triangle
225.0,7.0,3.0,1.0,2.0,2.0,296.9461395405233,4.0,1.0,part_1,,,,,,,,,,,,,green,circle
59.0,5.0,1.0,1.0,1.0,1.0,310.2213037200272,4.0,1.0,part_1,,,,,,,,,,,,,gray,triangle
54.0,5.0,1.0,1.0,2.0,2.0,310.5383815709501,4.0,1.0,part_1,,,,,,,,,,,,,gray,triangle
114.0,6.0,2.0,1.0,4.0,4.0,321.7480781022459,4.0,1.0,part_1,,,,,,,,,,,,,cyan,flipped triangle
55.0,5.0,1.0,1.0,4.0,4.0,343.8125385437161,4.0,1.0,part_1,,,,,,,,,,,,,gray,triangle
0.0,3.0,0.0,0.0,3.0,3.0,322.3589840345084,4.0,1.0,part_1,,,,,,,,,,,,,orange,diamond
211.0,7.0,3.0,1.0,2.0,2.0,291.0175980068743,4.0,1.0,part_1,,,,,,,,,,,,,green,circle
401.0,8.0,4.0,1.0,1.0,1.0,302.7337514795363,4.0,1.0,part_1,,,,,,,,,,,,,blue,I
219.0,3.0,3.0,0.0,2.0,2.0,302.0359799265861,4.0,1.0,part_1,,,,,,,,,,,,,orange,diamond
203.0,7.0,3.0,1.0,4.0,4.0,324.1172123234719,4.0,1.0,part_1,,,,,,,,,,,,,green,circle
0.0,4.0,0.0,0.0,2.0,2.0,292.1882891096174,4.0,1.0,part_1,,,,,,,,,,,,,yellow,hexagon
64.0,5.0,1.0,1.0,2.0,2.0,303.4502554219216,4.0,1.0,part_1,,,,,,,,,,,,,gray,triangle
403.0,8.0,4.0,1.0,2.0,2.0,304.7115025110543,4.0,1.0,part_1,,,,,,,,,,,,,blue,I
104.0,6.0,2.0,1.0,3.0,3.0,314.8417035117745,4.0,1.0,part_1,,,,,,,,,,,,,cyan,flipped triangle
113.0,6.0,2.0,1.0,4.0,4.0,372.4018957000226,4.0,1.0,part_1,,,,,,,,,,,,,cyan,flipped triangle
84.0,2.0,2.0,0.0,2.0,2.0,272.65409915708,4.0,1.0,part_1,,,,,,,,,,,,,white,cross
48.0,5.0,1.0,1.0,3.0,3.0,306.1397431883961,4.0,1.0,part_1,,,,,,,,,,,,,gray,triangle
54.0,5.0,1.0,1.0,3.0,3.0,284.5205767080188,4.0,1.0,part_1,,,,,,,,,,,,,gray,triangle
191.0,7.0,3.0,1.0,1.0,1.0,261.9485296308994,4.0,1.0,part_1,,,,,,,,,,,,,green,circle
0.0,1.0,0.0,0.0,2.0,2.0,319.0490615088492,4.0,1.0,part_1,,,,,,,,,,,,,magenta,square
398.0,4.0,4.0,0.0,2.0,2.0,297.2047820221632,4.0,1.0,part_1,,,,,,,,,,,,,yellow,hexagon
25.0,5.0,1.0,1.0,4.0,4.0,319.9206134304404,4.0,1.0,part_1,,,,,,,,,,,,,gray,triangle
0.0,5.0,0.0,1.0,2.0,2.0,274.9896217137575,4.0,1.0,part_1,,,,,,,,,,,,,gray,triangle
87.0,6.0,2.0,1.0,3.0,3.0,275.2800991293043,4.0,1.0,part_1,,,,,,,,,,,,,cyan,flipped triangle
204.0,3.0,3.0,0.0,1.0,1.0,277.0913790445775,4.0,1.0,part_1,,,,,,,,,,,,,orange,diamond
104.0,6.0,2.0,1.0,1.0,1.0,299.8614117968827,4.0,1.0,part_1,,,,,,,,,,,,,cyan,flipped triangle
113.0,2.0,2.0,0.0,1.0,1.0,311.6052038967609,4.0,1.0,part_1,,,,,,,,,,,,,white,cross
388.0,4.0,4.0,0.0,2.0,2.0,300.7655947003513,4.0,1.0,part_1,,,,,,,,,,,,,yellow,hexagon
412.0,4.0,4.0,0.0,3.0,3.0,312.7718800678849,4.0,1.0,part_1,,,,,,,,,,,,,yellow,hexagon
193.0,7.0,3.0,1.0,1.0,1.0,269.9501814786345,4.0,1.0,part_1,,,,,,,,,,,,,green,circle
202.0,3.0,3.0,0.0,1.0,1.0,337.816686136648,4.0,1.0,part_1,,,,,,,,,,,,,orange,diamond
194.0,7.0,3.0,1.0,4.0,4.0,359.3604331836104,4.0,1.0,part_1,,,,,,,,,,,,,green,circle
401.0,4.0,4.0,0.0,1.0,1.0,303.8165136240423,4.0,1.0,part_1,,,,,,,,,,,,,yellow,hexagon
68.0,5.0,1.0,1.0,2.0,2.0,349.0140971262008,4.0,1.0,part_1,,,,,,,,,,,,,gray,triangle
70.0,5.0,1.0,1.0,3.0,3.0,305.4373641498387,4.0,1.0,part_1,,,,,,,,,,,,,gray,triangle
34.0,5.0,1.0,1.0,4.0,4.0,362.5424080528319,4.0,1.0,part_1,,,,,,,,,,,,,gray,triangle
408.0,8.0,4.0,1.0,4.0,4.0,372.7841000072658,4.0,1.0,part_1,,,,,,,,,,,,,blue,I
72.0,1.0,1.0,0.0,3.0,3.0,272.1149732824415,4.0,1.0,part_1,,,,,,,,,,,,,magenta,square
37.0,1.0,1.0,0.0,3.0,3.0,341.6090861428529,4.0,1.0,part_1,,,,,,,,,,,,,magenta,square
0.0,5.0,0.0,1.0,4.0,4.0,340.6302351504564,4.0,1.0,part_1,,,,,,,,,,,,,gray,triangle
42.0,1.0,1.0,0.0,3.0,3.0,285.5847075115889,4.0,1.0,part_1,,,,,,,,,,,,,magenta,square
0.0,7.0,0.0,1.0,3.0,3.0,286.4255167078227,4.0,1.0,part_1,,,,,,,,,,,,,green,circle
0.0,6.0,0.0,1.0,3.0,3.0,309.2350710649043,4.0,1.0,part_1,,,,,,,,,,,,,cyan,flipped triangle
43.0,1.0,1.0,0.0,2.0,2.0,287.0213335845619,4.0,1.0,part_1,,,,,,,,,,,,,magenta,square
84.0,6.0,2.0,1.0,3.0,3.0,333.4132395684719,4.0,1.0,part_1,,,,,,,,,,,,,cyan,flipped triangle
0.0,3.0,0.0,0.0,3.0,3.0,254.3313272763043,4.0,1.0,part_1,,,,,,,,,,,,,orange,diamond
216.0,7.0,3.0,1.0,4.0,4.0,378.6274760495871,4.0,1.0,part_1,,,,,,,,,,,,,green,circle
54.0,1.0,1.0,0.0,2.0,2.0,322.6976511068642,4.0,1.0,part_1,,,,,,,,,,,,,magenta,square
0.0,2.0,0.0,0.0,3.0,3.0,256.4698357600719,4.0,1.0,part_1,,,,,,,,,,,,,white,cross
182.0,3.0,3.0,0.0,4.0,4.0,291.5480595547706,4.0,1.0,part_1,,,,,,,,,,,,,orange,diamond
0.0,7.0,0.0,1.0,1.0,1.0,292.7138390950858,4.0,1.0,part_1,,,,,,,,,,,,,green,circle
0.0,5.0,0.0,1.0,2.0,2.0,246.2330076377838,4.0,1.0,part_1,,,,,,,,,,,,,gray,triangle
185.0,3.0,3.0,0.0,1.0,1.0,293.7750206328928,4.0,1.0,part_1,,,,,,,,,,,,,orange,diamond
0.0,7.0,0.0,1.0,3.0,3.0,292.8909307811409,4.0,1.0,part_1,,,,,,,,,,,,,green,circle
395.0,8.0,4.0,1.0,3.0,3.0,338.3285084273666,4.0,1.0,part_1,,,,,,,,,,,,,blue,I
104.0,2.0,2.0,0.0,4.0,4.0,295.0103394687176,4.0,1.0,part_1,,,,,,,,,,,,,white,cross
0.0,3.0,0.0,0.0,1.0,1.0,294.023065129295,4.0,1.0,part_1,,,,,,,,,,,,,orange,diamond
87.0,2.0,2.0,0.0,3.0,3.0,306.4403731841594,4.0,1.0,part_1,,,,,,,,,,,,,white,cross
225.0,3.0,3.0,0.0,4.0,4.0,318.3793991338461,4.0,1.0,part_1,,,,,,,,,,,,,orange,diamond
382.0,4.0,4.0,0.0,4.0,4.0,307.0544970687479,4.0,1.0,part_1,,,,,,,,,,,,,yellow,hexagon
421.0,8.0,4.0,1.0,2.0,2.0,307.9039205331355,4.0,1.0,part_1,,,,,,,,,,,,,blue,I
30.0,5.0,1.0,1.0,4.0,4.0,341.4358282461762,4.0,1.0,part_1,,,,,,,,,,,,,gray,triangle
0.0,8.0,0.0,1.0,1.0,1.0,309.1177842579782,4.0,1.0,part_1,,,,,,,,,,,,,blue,I
412.0,8.0,4.0,1.0,1.0,1.0,309.5163179095834,4.0,1.0,part_1,,,,,,,,,,,,,blue,I
396.0,4.0,4.0,0.0,2.0,2.0,321.4778965339064,4.0,1.0,part_1,,,,,,,,,,,,,yellow,hexagon
0.0,2.0,0.0,0.0,2.0,2.0,277.0662014372647,4.0,1.0,part_1,,,,,,,,,,,,,white,cross
72.0,5.0,1.0,1.0,1.0,1.0,265.9575471188873,4.0,1.0,part_1,,,,,,,,,,,,,gray,triangle
124.0,2.0,2.0,0.0,1.0,1.0,302.0639806054532,4.0,1.0,part_1,,,,,,,,,,,,,white,cross
65.0,5.0,1.0,1.0,3.0,3.0,289.7456716746092,4.0,1.0,part_1,,,,,,,,,,,,,gray,triangle
0.0,4.0,0.0,0.0,1.0,1.0,301.6029661521315,4.0,1.0,part_1,,,,,,,,,,,,,yellow,hexagon
96.0,2.0,2.0,0.0,3.0,3.0,301.5590400900692,4.0,1.0,part_1,,,,,,,,,,,,,white,cross
0.0,4.0,0.0,0.0,3.0,3.0,291.148838121444,4.0,1.0,part_1,,,,,,,,,,,,,yellow,hexagon
0.0,5.0,1.0,1.0,6.0,0.0,0.0,1.0,0.0,part_2,stop,250.0,250.0,4.0,,,,,,,,,gray,triangle
0.0,6.0,2.0,1.0,5.0,5.0,700.3124016337097,1.0,0.0,part_2,go,250.0,300.0,1.0,,,,,,,,,cyan,flipped triangle
0.0,2.0,2.0,0.0,6.0,6.0,339.0948476735502,1.0,0.0,part_2,go,250.0,300.0,1.0,,,,,,,,,white,cross
0.0,2.0,2.0,0.0,5.0,5.0,632.4522525537759,1.0,0.0,part_2,go,250.0,300.0,1.0,,,,,,,,,white,cross
0.0,8.0,4.0,1.0,5.0,0.0,0.0,1.0,0.0,part_2,stop,250.0,300.0,4.0,,,,,,,,,blue,I
0.0,5.0,1.0,1.0,6.0,0.0,0.0,1.0,0.0,part_2,stop,300.0,300.0,4.0,,,,,,,,,gray,triangle
0.0,7.0,3.0,1.0,5.0,0.0,0.0,1.0,0.0,part_2,stop,300.0,350.0,4.0,,,,,,,,,green,circle
0.0,3.0,3.0,0.0,6.0,6.0,433.9944219682365,1.0,0.0,part_2,go,350.0,350.0,1.0,,,,,,,,,orange,diamond
0.0,2.0,2.0,0.0,6.0,6.0,670.5228216014802,1.0,0.0,part_2,go,350.0,350.0,1.0,,,,,,,,,white,cross
0.0,8.0,4.0,1.0,5.0,0.0,0.0,1.0,0.0,part_2,stop,350.0,350.0,4.0,,,,,,,,,blue,I
0.0,5.0,1.0,1.0,5.0,0.0,0.0,1.0,0.0,part_2,stop,400.0,350.0,4.0,,,,,,,,,gray,triangle
0.0,7.0,3.0,1.0,5.0,0.0,0.0,1.0,0.0,part_2,stop,450.0,350.0,4.0,,,,,,,,,green,circle
0.0,3.0,3.0,0.0,5.0,5.0,810.3276691399515,1.0,0.0,part_2,go,500.0,350.0,1.0,,,,,,,,,orange,diamond
0.0,6.0,2.0,1.0,5.0,5.0,663.2374762557447,1.0,0.0,part_2,stop,500.0,350.0,3.0,,,,,,,,,cyan,flipped triangle
0.0,7.0,3.0,1.0,6.0,6.0,833.9972510002553,1.0,0.0,part_2,go,450.0,350.0,1.0,,,,,,,,,green,circle
0.0,6.0,2.0,1.0,6.0,0.0,0.0,1.0,0.0,part_2,stop,450.0,350.0,4.0,,,,,,,,,cyan,flipped triangle
0.0,2.0,2.0,0.0,5.0,5.0,846.991243539378,1.0,0.0,part_2,go,450.0,400.0,1.0,,,,,,,,,white,cross
0.0,3.0,3.0,0.0,5.0,5.0,747.2057796549052,1.0,0.0,part_2,go,450.0,400.0,1.0,,,,,,,,,orange,diamond
0.0,5.0,1.0,1.0,6.0,6.0,634.4945831224322,1.0,0.0,part_2,go,450.0,400.0,1.0,,,,,,,,,gray,triangle
0.0,2.0,2.0,0.0,6.0,6.0,602.2713826969266,1.0,0.0,part_2,go,450.0,400.0,1.0,,,,,,,,,white,cross
0.0,2.0,2.0,0.0,5.0,5.0,636.0950972884893,1.0,0.0,part_2,go,450.0,400.0,1.0,,,,,,,,,white,cross
0.0,7.0,3.0,1.0,5.0,0.0,0.0,1.0,0.0,part_2,stop,450.0,400.0,4.0,,,,,,,,,green,circle
0.0,8.0,4.0,1.0,5.0,5.0,636.9969225488603,1.0,0.0,part_2,go,500.0,400.0,1.0,,,,,,,,,blue,I
0.0,6.0,2.0,1.0,5.0,5.0,696.3203370105475,1.0,0.0,part_2,go,500.0,400.0,1.0,,,,,,,,,cyan,flipped triangle
0.0,8.0,4.0,1.0,5.0,0.0,0.0,1.0,0.0,part_2,stop,500.0,400.0,4.0,,,,,,,,,blue,I
0.0,3.0,3.0,0.0,6.0,6.0,799.0634746383876,1.0,0.0,part_2,go,550.0,400.0,1.0,,,,,,,,,orange,diamond
0.0,2.0,2.0,0.0,5.0,5.0,775.8725984022021,1.0,0.0,part_2,go,550.0,400.0,1.0,,,,,,,,,white,cross
0.0,8.0,4.0,1.0,5.0,0.0,0.0,1.0,0.0,part_2,stop,550.0,400.0,4.0,,,,,,,,,blue,I
0.0,6.0,2.0,1.0,5.0,5.0,687.8185451496392,1.0,0.0,part_2,stop,600.0,400.0,3.0,,,,,,,,,cyan,flipped triangle
0.0,8.0,4.0,1.0,6.0,0.0,0.0,1.0,0.0,part_2,stop,550.0,400.0,4.0,,,,,,,,,blue,I
0.0,2.0,2.0,0.0,5.0,5.0,812.3420353513211,1.0,0.0,part_2,go,550.0,450.0,1.0,,,,,,,,,white,cross
0.0,5.0,1.0,1.0,5.0,0.0,0.0,1.0,0.0,part_2,stop,550.0,450.0,4.0,,,,,,,,,gray,triangle
0.0,2.0,2.0,0.0,5.0,5.0,1084.1697270516306,1.0,0.0,part_2,go,600.0,450.0,1.0,,,,,,,,,white,cross
0.0,5.0,1.0,1.0,5.0,0.0,0.0,1.0,0.0,part_2,stop,600.0,450.0,4.0,,,,,,,,,gray,triangle
0.0,3.0,3.0,0.0,6.0,6.0,963.8467789627612,1.0,0.0,part_2,go,650.0,450.0,1.0,,,,,,,,,orange,diamond
0.0,3.0,3.0,0.0,5.0,5.0,1076.7988462466749,1.0,0.0,part_2,go,650.0,450.0,1.0,,,,,,,,,orange,diamond
0.0,1.0,1.0,0.0,5.0,5.0,666.4877834264189,2.0,0.0,part_2,go,650.0,450.0,1.0,,,,,,,,,magenta,square
0.0,4.0,4.0,0.0,6.0,6.0,316.390891559422,2.0,0.0,part_2,go,650.0,450.0,1.0,,,,,,,,,yellow,hexagon
0.0,4.0,4.0,0.0,5.0,5.0,531.2870375346392,2.0,0.0,part_2,go,650.0,450.0,1.0,,,,,,,,,yellow,hexagon
0.0,4.0,4.0,0.0,5.0,5.0,554.6607363503426,2.0,0.0,part_2,go,650.0,450.0,1.0,,,,,,,,,yellow,hexagon
0.0,8.0,4.0,1.0,5.0,5.0,521.6591921634972,2.0,0.0,part_2,stop,650.0,450.0,3.0,,,,,,,,,blue,I
0.0,3.0,3.0,0.0,5.0,5.0,703.2294860109687,2.0,0.0,part_2,go,600.0,450.0,1.0,,,,,,,,,orange,diamond
0.0,8.0,4.0,1.0,5.0,0.0,0.0,2.0,0.0,part_2,stop,600.0,450.0,4.0,,,,,,,,,blue,I
0.0,8.0,4.0,1.0,6.0,6.0,580.3334650117904,2.0,0.0,part_2,stop,650.0,450.0,3.0,,,,,,,,,blue,I
0.0,5.0,1.0,1.0,5.0,0.0,0.0,2.0,0.0,part_2,stop,650.0,400.0,4.0,,,,,,,,,gray,triangle
0.0,4.0,4.0,0.0,6.0,6.0,851.8014985602349,2.0,0.0,part_2,go,700.0,400.0,1.0,,,,,,,,,yellow,hexagon
0.0,2.0,2.0,0.0,5.0,5.0,1090.4060252942145,2.0,0.0,part_2,go,700.0,400.0,1.0,,,,,,,,,white,cross
0.0,3.0,3.0,0.0,5.0,5.0,887.8707061521709,2.0,0.0,part_2,go,700.0,400.0,1.0,,,,,,,,,orange,diamond
0.0,4.0,4.0,0.0,5.0,5.0,955.489479470998,2.0,0.0,part_2,go,700.0,400.0,1.0,,,,,,,,,yellow,hexagon
0.0,4.0,4.0,0.0,5.0,5.0,765.8697224687785,2.0,0.0,part_2,go,700.0,400.0,1.0,,,,,,,,,yellow,hexagon
0.0,2.0,2.0,0.0,5.0,5.0,473.6755474004894,2.0,0.0,part_2,go,700.0,400.0,1.0,,,,,,,,,white,cross
0.0,5.0,1.0,1.0,6.0,6.0,868.6659403610975,2.0,0.0,part_2,go,700.0,400.0,1.0,,,,,,,,,gray,triangle
0.0,5.0,1.0,1.0,6.0,0.0,0.0,2.0,0.0,part_2,stop,700.0,400.0,4.0,,,,,,,,,gray,triangle
0.0,6.0,2.0,1.0,6.0,6.0,589.1625506337732,2.0,0.0,part_2,go,700.0,450.0,1.0,,,,,,,,,cyan,flipped triangle
0.0,1.0,1.0,0.0,6.0,6.0,646.040860330686,2.0,0.0,part_2,go,700.0,450.0,1.0,,,,,,,,,magenta,square
0.0,8.0,4.0,1.0,6.0,0.0,0.0,2.0,0.0,part_2,stop,700.0,450.0,4.0,,,,,,,,,blue,I
0.0,3.0,3.0,0.0,6.0,6.0,795.0258150231093,2.0,0.0,part_2,go,700.0,500.0,1.0,,,,,,,,,orange,diamond
0.0,7.0,3.0,1.0,6.0,0.0,0.0,2.0,0.0,part_2,stop,700.0,500.0,4.0,,,,,,,,,green,circle
0.0,1.0,1.0,0.0,5.0,5.0,683.529446600005,2.0,0.0,part_2,go,700.0,550.0,1.0,,,,,,,,,magenta,square
0.0,7.0,3.0,1.0,5.0,5.0,863.4069913532585,2.0,0.0,part_2,stop,700.0,550.0,3.0,,,,,,,,,green,circle
0.0,6.0,2.0,1.0,6.0,6.0,898.5856347717345,2.0,0.0,part_2,go,650.0,550.0,1.0,,,,,,,,,cyan,flipped triangle
0.0,4.0,4.0,0.0,6.0,6.0,787.0051770005375,2.0,0.0,part_2,go,650.0,550.0,1.0,,,,,,,,,yellow,hexagon
0.0,2.0,2.0,0.0,5.0,5.0,765.8244203776121,2.0,0.0,part_2,go,650.0,550.0,1.0,,,,,,,,,white,cross
0.0,4.0,4.0,0.0,5.0,5.0,788.326540729031,2.0,0.0,part_2,go,650.0,550.0,1.0,,,,,,,,,yellow,hexagon
0.0,7.0,3.0,1.0,5.0,5.0,734.2908871360123,2.0,0.0,part_2,stop,650.0,550.0,3.0,,,,,,,,,green,circle
0.0,7.0,3.0,1.0,5.0,5.0,677.699122345075,2.0,0.0,part_2,go,600.0,550.0,1.0,,,,,,,,,green,circle
0.0,1.0,1.0,0.0,6.0,6.0,712.9674945026636,2.0,0.0,part_2,go,600.0,550.0,1.0,,,,,,,,,magenta,square
0.0,3.0,3.0,0.0,5.0,5.0,825.7039480376989,2.0,0.0,part_2,go,600.0,550.0,1.0,,,,,,,,,orange,diamond
0.0,6.0,2.0,1.0,5.0,5.0,410.7023028191179,2.0,0.0,part_2,go,600.0,550.0,1.0,,,,,,,,,cyan,flipped triangle
0.0,8.0,4.0,1.0,6.0,6.0,513.6585782747716,2.0,0.0,part_2,stop,600.0,550.0,3.0,,,,,,,,,blue,I
0.0,2.0,2.0,0.0,6.0,6.0,897.1625952981412,2.0,0.0,part_2,go,600.0,500.0,1.0,,,,,,,,,white,cross
0.0,3.0,3.0,0.0,6.0,6.0,774.0359622985125,2.0,0.0,part_2,go,600.0,500.0,1.0,,,,,,,,,orange,diamond
0.0,6.0,2.0,1.0,6.0,6.0,359.248251421377,3.0,0.0,part_2,stop,600.0,500.0,3.0,,,,,,,,,cyan,flipped triangle
0.0,1.0,1.0,0.0,6.0,6.0,583.2203640602529,3.0,0.0,part_2,go,600.0,450.0,1.0,,,,,,,,,magenta,square
0.0,7.0,3.0,1.0,5.0,5.0,314.7644968703389,3.0,0.0,part_2,stop,600.0,450.0,3.0,,,,,,,,,green,circle
0.0,4.0,4.0,0.0,6.0,6.0,607.0558072533458,3.0,0.0,part_2,go,550.0,450.0,1.0,,,,,,,,,yellow,hexagon
0.0,3.0,3.0,0.0,5.0,5.0,530.1205343566835,3.0,0.0,part_2,go,550.0,450.0,1.0,,,,,,,,,orange,diamond
0.0,5.0,1.0,1.0,5.0,5.0,599.4783558417112,3.0,0.0,part_2,stop,550.0,450.0,3.0,,,,,,,,,gray,triangle
0.0,8.0,4.0,1.0,6.0,0.0,0.0,3.0,0.0,part_2,stop,500.0,450.0,4.0,,,,,,,,,blue,I
0.0,1.0,1.0,0.0,5.0,5.0,803.3449237700552,3.0,0.0,part_2,go,500.0,500.0,1.0,,,,,,,,,magenta,square
0.0,5.0,1.0,1.0,6.0,6.0,646.7522541061044,3.0,0.0,part_2,go,500.0,500.0,1.0,,,,,,,,,gray,triangle
0.0,1.0,1.0,0.0,6.0,6.0,625.4415872972459,3.0,0.0,part_2,go,500.0,500.0,1.0,,,,,,,,,magenta,square
0.0,6.0,2.0,1.0,6.0,0.0,0.0,3.0,0.0,part_2,stop,500.0,500.0,4.0,,,,,,,,,cyan,flipped triangle
0.0,6.0,2.0,1.0,6.0,6.0,569.5702624507248,3.0,0.0,part_2,stop,500.0,550.0,3.0,,,,,,,,,cyan,flipped triangle
0.0,4.0,4.0,0.0,5.0,5.0,626.4754952862859,3.0,0.0,part_2,go,500.0,500.0,1.0,,,,,,,,,yellow,hexagon
0.0,3.0,3.0,0.0,6.0,6.0,356.7096891347319,3.0,0.0,part_2,go,500.0,500.0,1.0,,,,,,,,,orange,diamond
0.0,1.0,1.0,0.0,5.0,5.0,672.7854234632105,3.0,0.0,part_2,go,500.0,500.0,1.0,,,,,,,,,magenta,square
0.0,5.0,1.0,1.0,5.0,5.0,416.6685903910547,3.0,0.0,part_2,stop,500.0,500.0,3.0,,,,,,,,,gray,triangle
0.0,1.0,1.0,0.0,5.0,5.0,619.1535766702145,3.0,0.0,part_2,go,450.0,500.0,1.0,,,,,,,,,magenta,square
0.0,3.0,3.0,0.0,6.0,6.0,317.2598455566913,3.0,0.0,part_2,go,450.0,500.0,1.0,,,,,,,,,orange,diamond
0.0,5.0,1.0,1.0,6.0,0.0,0.0,3.0,0.0,part_2,stop,450.0,500.0,4.0,,,,,,,,,gray,triangle
0.0,8.0,4.0,1.0,6.0,0.0,0.0,3.0,0.0,part_2,stop,450.0,550.0,4.0,,,,,,,,,blue,I
0.0,1.0,1.0,0.0,6.0,6.0,724.6765543241054,3.0,0.0,part_2,go,450.0,600.0,1.0,,,,,,,,,magenta,square
0.0,4.0,4.0,0.0,6.0,6.0,555.1346959546208,3.0,0.0,part_2,go,450.0,600.0,1.0,,,,,,,,,yellow,hexagon
0.0,5.0,1.0,1.0,5.0,5.0,487.9647500347346,3.0,0.0,part_2,stop,450.0,600.0,3.0,,,,,,,,,gray,triangle
0.0,6.0,2.0,1.0,6.0,6.0,579.2420438956469,3.0,0.0,part_2,stop,400.0,600.0,3.0,,,,,,,,,cyan,flipped triangle
0.0,8.0,4.0,1.0,5.0,0.0,0.0,3.0,0.0,part_2,stop,400.0,550.0,4.0,,,,,,,,,blue,I
0.0,8.0,4.0,1.0,6.0,6.0,648.8834389019758,3.0,0.0,part_2,go,450.0,550.0,1.0,,,,,,,,,blue,I
0.0,3.0,3.0,0.0,6.0,6.0,582.0108482148498,3.0,0.0,part_2,go,450.0,550.0,1.0,,,,,,,,,orange,diamond
0.0,5.0,1.0,1.0,6.0,0.0,0.0,3.0,0.0,part_2,stop,450.0,550.0,4.0,,,,,,,,,gray,triangle
0.0,1.0,1.0,0.0,5.0,5.0,505.1607189234346,3.0,0.0,part_2,go,450.0,600.0,1.0,,,,,,,,,magenta,square
0.0,1.0,1.0,0.0,5.0,5.0,685.9761190135032,3.0,0.0,part_2,go,450.0,600.0,1.0,,,,,,,,,magenta,square
0.0,4.0,4.0,0.0,6.0,6.0,395.3729814384132,3.0,0.0,part_2,go,450.0,600.0,1.0,,,,,,,,,yellow,hexagon
0.0,2.0,2.0,0.0,6.0,6.0,664.837988326326,3.0,0.0,part_2,go,450.0,600.0,1.0,,,,,,,,,white,cross
0.0,8.0,4.0,1.0,6.0,6.0,463.4391728322953,3.0,0.0,part_2,stop,450.0,600.0,3.0,,,,,,,,,blue,I
0.0,7.0,3.0,1.0,5.0,5.0,374.1683680564165,3.0,0.0,part_2,stop,450.0,550.0,3.0,,,,,,,,,green,circle
0.0,7.0,3.0,1.0,6.0,6.0,600.1012362539768,3.0,0.0,part_2,stop,400.0,550.0,3.0,,,,,,,,,green,circle
0.0,3.0,3.0,0.0,5.0,5.0,602.2166511975229,3.0,0.0,part_2,go,400.0,500.0,1.0,,,,,,,,,orange,diamond
0.0,1.0,1.0,0.0,5.0,5.0,388.1450199987739,4.0,0.0,part_2,go,400.0,500.0,1.0,,,,,,,,,magenta,square
0.0,2.0,2.0,0.0,6.0,6.0,388.5573444422334,4.0,0.0,part_2,go,400.0,500.0,1.0,,,,,,,,,white,cross
0.0,3.0,3.0,0.0,5.0,5.0,479.9438645131886,4.0,0.0,part_2,go,400.0,500.0,1.0,,,,,,,,,orange,diamond
0.0,3.0,3.0,0.0,5.0,5.0,357.5772235635668,4.0,0.0,part_2,go,400.0,500.0,1.0,,,,,,,,,orange,diamond
0.0,8.0,4.0,1.0,6.0,6.0,403.5827694460749,4.0,0.0,part_2,stop,400.0,500.0,3.0,,,,,,,,,blue,I
0.0,8.0,4.0,1.0,5.0,0.0,0.0,4.0,0.0,part_2,stop,400.0,450.0,4.0,,,,,,,,,blue,I
0.0,4.0,4.0,0.0,6.0,6.0,573.6581543460488,4.0,0.0,part_2,go,450.0,450.0,1.0,,,,,,,,,yellow,hexagon
0.0,6.0,2.0,1.0,6.0,0.0,0.0,4.0,0.0,part_2,stop,450.0,450.0,4.0,,,,,,,,,cyan,flipped triangle
0.0,7.0,3.0,1.0,5.0,0.0,0.0,4.0,0.0,part_2,stop,450.0,500.0,4.0,,,,,,,,,green,circle
0.0,1.0,1.0,0.0,5.0,5.0,395.7443630788475,4.0,0.0,part_2,go,500.0,500.0,1.0,,,,,,,,,magenta,square
0.0,5.0,1.0,1.0,5.0,0.0,0.0,4.0,0.0,part_2,stop,500.0,500.0,4.0,,,,,,,,,gray,triangle
0.0,1.0,1.0,0.0,5.0,5.0,679.2038972489536,4.0,0.0,part_2,go,550.0,500.0,1.0,,,,,,,,,magenta,square
0.0,1.0,1.0,0.0,6.0,6.0,746.7668578028679,4.0,0.0,part_2,go,550.0,500.0,1.0,,,,,,,,,magenta,square
0.0,1.0,1.0,0.0,6.0,6.0,557.2768351994455,4.0,0.0,part_2,go,550.0,500.0,1.0,,,,,,,,,magenta,square
0.0,5.0,1.0,1.0,5.0,5.0,322.323061292991,4.0,0.0,part_2,go,550.0,500.0,1.0,,,,,,,,,gray,triangle
0.0,4.0,4.0,0.0,5.0,5.0,569.5973488036543,4.0,0.0,part_2,go,550.0,500.0,1.0,,,,,,,,,yellow,hexagon
0.0,1.0,1.0,0.0,5.0,5.0,345.6683119293302,4.0,0.0,part_2,go,550.0,500.0,1.0,,,,,,,,,magenta,square
0.0,6.0,2.0,1.0,6.0,6.0,335.9617760870605,4.0,0.0,part_2,stop,550.0,500.0,3.0,,,,,,,,,cyan,flipped triangle
0.0,6.0,2.0,1.0,6.0,6.0,436.6651100572198,4.0,0.0,part_2,stop,550.0,450.0,3.0,,,,,,,,,cyan,flipped triangle
0.0,1.0,1.0,0.0,5.0,5.0,684.7487387713045,4.0,0.0,part_2,go,550.0,400.0,1.0,,,,,,,,,magenta,square
0.0,7.0,3.0,1.0,5.0,5.0,697.4564082920551,4.0,0.0,part_2,go,550.0,400.0,1.0,,,,,,,,,green,circle
0.0,7.0,3.0,1.0,5.0,5.0,495.2570567838847,4.0,0.0,part_2,stop,550.0,400.0,3.0,,,,,,,,,green,circle
0.0,8.0,4.0,1.0,5.0,5.0,621.1427531670779,4.0,0.0,part_2,go,500.0,400.0,1.0,,,,,,,,,blue,I
0.0,5.0,1.0,1.0,6.0,6.0,429.2967049404979,4.0,0.0,part_2,go,500.0,400.0,1.0,,,,,,,,,gray,triangle
0.0,1.0,1.0,0.0,6.0,6.0,454.257667530328,4.0,0.0,part_2,go,500.0,400.0,1.0,,,,,,,,,magenta,square
0.0,7.0,3.0,1.0,6.0,6.0,543.6756785493344,4.0,0.0,part_2,stop,500.0,400.0,3.0,,,,,,,,,green,circle
0.0,1.0,1.0,0.0,6.0,6.0,657.8717501834035,4.0,0.0,part_2,go,500.0,350.0,1.0,,,,,,,,,magenta,square
0.0,4.0,4.0,0.0,6.0,6.0,332.0042788982391,4.0,0.0,part_2,go,500.0,350.0,1.0,,,,,,,,,yellow,hexagon
0.0,6.0,2.0,1.0,6.0,0.0,0.0,4.0,0.0,part_2,stop,500.0,350.0,4.0,,,,,,,,,cyan,flipped triangle
0.0,5.0,1.0,1.0,5.0,0.0,0.0,4.0,0.0,part_2,stop,500.0,400.0,4.0,,,,,,,,,gray,triangle
0.0,4.0,4.0,0.0,5.0,5.0,729.0550156030804,4.0,0.0,part_2,go,550.0,400.0,1.0,,,,,,,,,yellow,hexagon
0.0,7.0,3.0,1.0,6.0,0.0,0.0,4.0,0.0,part_2,stop,550.0,400.0,4.0,,,,,,,,,green,circle
0.0,3.0,3.0,0.0,6.0,6.0,561.432943912223,4.0,0.0,part_2,go,550.0,450.0,1.0,,,,,,,,,orange,diamond
0.0,8.0,4.0,1.0,5.0,0.0,0.0,4.0,0.0,part_2,stop,550.0,450.0,4.0,,,,,,,,,blue,I
0.0,4.0,4.0,0.0,6.0,6.0,348.6542331520468,4.0,0.0,part_2,go,600.0,450.0,1.0,,,,,,,,,yellow,hexagon
0.0,5.0,1.0,1.0,5.0,0.0,0.0,4.0,0.0,part_2,stop,600.0,450.0,4.0,,,,,,,,,gray,triangle
0.0,6.0,2.0,1.0,5.0,5.0,604.9452675506473,5.0,0.0,part_2,stop,650.0,450.0,3.0,,,,,,,,,cyan,flipped triangle
0.0,4.0,4.0,0.0,5.0,5.0,605.5630664341152,5.0,0.0,part_2,go,600.0,450.0,1.0,,,,,,,,,yellow,hexagon
0.0,5.0,1.0,1.0,6.0,6.0,640.9562237095088,5.0,0.0,part_2,go,600.0,450.0,1.0,,,,,,,,,gray,triangle
0.0,1.0,1.0,0.0,6.0,6.0,687.1537312399596,5.0,0.0,part_2,go,600.0,450.0,1.0,,,,,,,,,magenta,square
0.0,8.0,4.0,1.0,6.0,6.0,722.5056411698461,5.0,0.0,part_2,go,600.0,450.0,1.0,,,,,,,,,blue,I
0.0,7.0,3.0,1.0,6.0,6.0,655.7610030286014,5.0,0.0,part_2,go,600.0,450.0,1.0,,,,,,,,,green,circle
0.0,3.0,3.0,0.0,5.0,5.0,611.0879858024418,5.0,0.0,part_2,go,600.0,450.0,1.0,,,,,,,,,orange,diamond
0.0,2.0,2.0,0.0,6.0,6.0,464.6529671736061,5.0,0.0,part_2,go,600.0,450.0,1.0,,,,,,,,,white,cross
0.0,3.0,3.0,0.0,6.0,6.0,489.2456701491028,5.0,0.0,part_2,go,600.0,450.0,1.0,,,,,,,,,orange,diamond
0.0,8.0,4.0,1.0,5.0,5.0,680.5687234736979,5.0,0.0,part_2,go,600.0,450.0,1.0,,,,,,,,,blue,I
0.0,5.0,1.0,1.0,6.0,0.0,0.0,5.0,0.0,part_2,stop,600.0,450.0,4.0,,,,,,,,,gray,triangle
0.0,8.0,4.0,1.0,6.0,6.0,749.4373982772231,5.0,0.0,part_2,stop,600.0,500.0,3.0,,,,,,,,,blue,I
0.0,2.0,2.0,0.0,5.0,5.0,738.8994905631989,5.0,0.0,part_2,go,600.0,450.0,1.0,,,,,,,,,white,cross
0.0,8.0,4.0,1.0,5.0,5.0,717.5660277716815,5.0,0.0,part_2,go,600.0,450.0,1.0,,,,,,,,,blue,I
0.0,4.0,4.0,0.0,5.0,5.0,683.9228251483291,5.0,0.0,part_2,go,600.0,450.0,1.0,,,,,,,,,yellow,hexagon
0.0,8.0,4.0,1.0,6.0,0.0,0.0,5.0,0.0,part_2,stop,600.0,450.0,4.0,,,,,,,,,blue,I
0.0,5.0,1.0,1.0,5.0,0.0,0.0,5.0,0.0,part_2,stop,600.0,500.0,4.0,,,,,,,,,gray,triangle
0.0,2.0,2.0,0.0,5.0,5.0,698.9471013657749,5.0,0.0,part_2,go,650.0,500.0,1.0,,,,,,,,,white,cross
0.0,6.0,2.0,1.0,5.0,5.0,687.0865242090076,5.0,0.0,part_2,stop,650.0,500.0,3.0,,,,,,,,,cyan,flipped triangle
0.0,1.0,1.0,0.0,5.0,5.0,688.9416098129004,5.0,0.0,part_2,go,600.0,500.0,1.0,,,,,,,,,magenta,square
0.0,3.0,3.0,0.0,5.0,5.0,712.5878746155649,5.0,0.0,part_2,go,600.0,500.0,1.0,,,,,,,,,orange,diamond
0.0,7.0,3.0,1.0,6.0,6.0,734.5561177935451,5.0,0.0,part_2,go,600.0,500.0,1.0,,,,,,,,,green,circle
0.0,5.0,1.0,1.0,5.0,5.0,702.2451704833657,5.0,0.0,part_2,stop,600.0,500.0,3.0,,,,,,,,,gray,triangle
0.0,4.0,4.0,0.0,6.0,6.0,716.0121107008308,5.0,0.0,part_2,go,550.0,500.0,1.0,,,,,,,,,yellow,hexagon
0.0,8.0,4.0,1.0,6.0,6.0,669.8614379856735,5.0,0.0,part_2,go,550.0,500.0,1.0,,,,,,,,,blue,I
0.0,8.0,4.0,1.0,5.0,5.0,659.5087298192084,5.0,0.0,part_2,stop,550.0,500.0,3.0,,,,,,,,,blue,I
0.0,3.0,3.0,0.0,6.0,6.0,650.0670392997563,5.0,0.0,part_2,go,500.0,500.0,1.0,,,,,,,,,orange,diamond
0.0,6.0,2.0,1.0,6.0,0.0,0.0,5.0,0.0,part_2,stop,500.0,500.0,4.0,,,,,,,,,cyan,flipped triangle
0.0,5.0,1.0,1.0,6.0,0.0,0.0,5.0,0.0,part_2,stop,500.0,550.0,4.0,,,,,,,,,gray,triangle
0.0,2.0,2.0,0.0,5.0,5.0,505.04129799082875,5.0,0.0,part_2,go,500.0,600.0,1.0,,,,,,,,,white,cross
0.0,3.0,3.0,0.0,5.0,5.0,776.5860713552684,5.0,0.0,part_2,go,500.0,600.0,1.0,,,,,,,,,orange,diamond
0.0,7.0,3.0,1.0,6.0,6.0,653.5417640116066,5.0,0.0,part_2,stop,500.0,600.0,3.0,,,,,,,,,green,circle
0.0,6.0,2.0,1.0,5.0,0.0,0.0,5.0,0.0,part_2,stop,500.0,550.0,4.0,,,,,,,,,cyan,flipped triangle
0.0,2.0,2.0,0.0,6.0,6.0,610.6636552140117,5.0,0.0,part_2,go,550.0,550.0,1.0,,,,,,,,,white,cross
0.0,4.0,4.0,0.0,6.0,6.0,476.7429274506867,5.0,0.0,part_2,go,550.0,550.0,1.0,,,,,,,,,yellow,hexagon
0.0,3.0,3.0,0.0,6.0,6.0,510.1891830563545,5.0,0.0,part_2,go,550.0,550.0,1.0,,,,,,,,,orange,diamond
0.0,4.0,4.0,0.0,5.0,5.0,400.2872558776289,6.0,0.0,part_2,go,550.0,550.0,1.0,,,,,,,,,yellow,hexagon
0.0,7.0,3.0,1.0,6.0,6.0,368.5961186420172,6.0,0.0,part_2,go,550.0,550.0,1.0,,,,,,,,,green,circle
0.0,2.0,2.0,0.0,6.0,6.0,481.5698734018951,6.0,0.0,part_2,go,550.0,550.0,1.0,,,,,,,,,white,cross
0.0,7.0,3.0,1.0,6.0,6.0,549.9697143677622,6.0,0.0,part_2,stop,550.0,550.0,3.0,,,,,,,,,green,circle
0.0,4.0,4.0,0.0,6.0,6.0,493.9300655387342,6.0,0.0,part_2,go,550.0,500.0,1.0,,,,,,,,,yellow,hexagon
0.0,2.0,2.0,0.0,6.0,6.0,641.0322543233633,6.0,0.0,part_2,go,550.0,500.0,1.0,,,,,,,,,white,cross
0.0,6.0,2.0,1.0,6.0,6.0,463.2943270262331,6.0,0.0,part_2,stop,550.0,500.0,3.0,,,,,,,,,cyan,flipped triangle
0.0,7.0,3.0,1.0,6.0,0.0,0.0,6.0,0.0,part_2,stop,550.0,450.0,4.0,,,,,,,,,green,circle
0.0,7.0,3.0,1.0,6.0,6.0,384.9644274450838,6.0,0.0,part_2,stop,550.0,500.0,3.0,,,,,,,,,green,circle
0.0,3.0,3.0,0.0,6.0,6.0,734.3397801741958,6.0,0.0,part_2,go,550.0,450.0,1.0,,,,,,,,,orange,diamond
0.0,6.0,2.0,1.0,5.0,5.0,826.3255413621664,6.0,0.0,part_2,go,550.0,450.0,1.0,,,,,,,,,cyan,flipped triangle
0.0,4.0,4.0,0.0,6.0,6.0,297.6161397527903,6.0,0.0,part_2,go,550.0,450.0,1.0,,,,,,,,,yellow,hexagon
0.0,1.0,1.0,0.0,5.0,5.0,592.1566539909691,6.0,0.0,part_2,go,550.0,450.0,1.0,,,,,,,,,magenta,square
0.0,3.0,3.0,0.0,6.0,6.0,400.2174700144678,6.0,0.0,part_2,go,550.0,450.0,1.0,,,,,,,,,orange,diamond
0.0,1.0,1.0,0.0,6.0,6.0,480.5130008608103,6.0,0.0,part_2,go,550.0,450.0,1.0,,,,,,,,,magenta,square
0.0,8.0,4.0,1.0,6.0,0.0,0.0,6.0,0.0,part_2,stop,550.0,450.0,4.0,,,,,,,,,blue,I
0.0,4.0,4.0,0.0,6.0,6.0,650.9035998024046,6.0,0.0,part_2,go,550.0,500.0,1.0,,,,,,,,,yellow,hexagon
0.0,2.0,2.0,0.0,6.0,6.0,348.789477488026,6.0,0.0,part_2,go,550.0,500.0,1.0,,,,,,,,,white,cross
0.0,1.0,1.0,0.0,6.0,6.0,777.2347654681653,6.0,0.0,part_2,go,550.0,500.0,1.0,,,,,,,,,magenta,square
0.0,2.0,2.0,0.0,6.0,6.0,496.1656359955668,6.0,0.0,part_2,go,550.0,500.0,1.0,,,,,,,,,white,cross
0.0,6.0,2.0,1.0,5.0,5.0,620.3076499514282,6.0,0.0,part_2,stop,550.0,500.0,3.0,,,,,,,,,cyan,flipped triangle
0.0,2.0,2.0,0.0,5.0,5.0,609.2506614513695,6.0,0.0,part_2,go,500.0,500.0,1.0,,,,,,,,,white,cross
0.0,4.0,4.0,0.0,5.0,5.0,677.3887102026492,6.0,0.0,part_2,go,500.0,500.0,1.0,,,,,,,,,yellow,hexagon
0.0,1.0,1.0,0.0,6.0,6.0,668.0321185849607,6.0,0.0,part_2,go,500.0,500.0,1.0,,,,,,,,,magenta,square
0.0,5.0,1.0,1.0,5.0,0.0,0.0,6.0,0.0,part_2,stop,500.0,500.0,4.0,,,,,,,,,gray,triangle
0.0,4.0,4.0,0.0,5.0,5.0,713.7666358612478,6.0,0.0,part_2,go,550.0,500.0,1.0,,,,,,,,,yellow,hexagon
0.0,7.0,3.0,1.0,5.0,5.0,805.6099840905517,6.0,0.0,part_2,go,550.0,500.0,1.0,,,,,,,,,green,circle
0.0,2.0,2.0,0.0,5.0,5.0,356.4074439927935,6.0,0.0,part_2,go,550.0,500.0,1.0,,,,,,,,,white,cross
0.0,3.0,3.0,0.0,5.0,5.0,378.8582445122301,6.0,0.0,part_2,go,550.0,500.0,1.0,,,,,,,,,orange,diamond
0.0,6.0,2.0,1.0,5.0,5.0,446.6914811637252,6.0,0.0,part_2,stop,550.0,500.0,3.0,,,,,,,,,cyan,flipped triangle
0.0,7.0,3.0,1.0,6.0,6.0,359.0160328894853,6.0,0.0,part_2,stop,500.0,500.0,3.0,,,,,,,,,green,circle
0.0,4.0,4.0,0.0,5.0,5.0,618.7701909802854,6.0,0.0,part_2,go,500.0,450.0,1.0,,,,,,,,,yellow,hexagon
0.0,8.0,4.0,1.0,5.0,0.0,0.0,6.0,0.0,part_2,stop,500.0,450.0,4.0,,,,,,,,,blue,I
0.0,4.0,4.0,0.0,6.0,6.0,720.8492283243686,6.0,0.0,part_2,go,550.0,450.0,1.0,,,,,,,,,yellow,hexagon
0.0,4.0,4.0,0.0,5.0,5.0,350.5853943061083,6.0,0.0,part_2,go,550.0,450.0,1.0,,,,,,,,,yellow,hexagon
0.0,2.0,2.0,0.0,5.0,5.0,351.6399778891355,6.0,0.0,part_2,go,550.0,450.0,1.0,,,,,,,,,white,cross
0.0,5.0,1.0,1.0,6.0,6.0,440.6417321879416,7.0,0.0,part_2,go,550.0,450.0,1.0,,,,,,,,,gray,triangle
0.0,4.0,4.0,0.0,5.0,5.0,576.5409702435136,7.0,0.0,part_2,go,550.0,450.0,1.0,,,,,,,,,yellow,hexagon
0.0,7.0,3.0,1.0,6.0,6.0,320.6769351381808,7.0,0.0,part_2,stop,550.0,450.0,3.0,,,,,,,,,green,circle
0.0,5.0,1.0,1.0,6.0,6.0,330.4599178954959,7.0,0.0,part_2,stop,550.0,400.0,3.0,,,,,,,,,gray,triangle
0.0,2.0,2.0,0.0,6.0,6.0,568.5222104657441,7.0,0.0,part_2,go,550.0,350.0,1.0,,,,,,,,,white,cross
0.0,2.0,2.0,0.0,5.0,5.0,581.7233794368804,7.0,0.0,part_2,go,550.0,350.0,1.0,,,,,,,,,white,cross
0.0,6.0,2.0,1.0,5.0,5.0,547.7601340971887,7.0,0.0,part_2,stop,550.0,350.0,3.0,,,,,,,,,cyan,flipped triangle
0.0,5.0,1.0,1.0,6.0,6.0,492.3651490826159,7.0,0.0,part_2,stop,500.0,350.0,3.0,,,,,,,,,gray,triangle
0.0,1.0,1.0,0.0,6.0,6.0,481.0983983334154,7.0,0.0,part_2,go,500.0,300.0,1.0,,,,,,,,,magenta,square
0.0,6.0,2.0,1.0,5.0,0.0,0.0,7.0,0.0,part_2,stop,500.0,300.0,4.0,,,,,,,,,cyan,flipped triangle
0.0,1.0,1.0,0.0,6.0,6.0,336.615142179653,7.0,0.0,part_2,go,550.0,300.0,1.0,,,,,,,,,magenta,square
0.0,7.0,3.0,1.0,5.0,5.0,652.8992971871048,7.0,0.0,part_2,stop,550.0,300.0,3.0,,,,,,,,,green,circle
0.0,6.0,2.0,1.0,6.0,0.0,0.0,7.0,0.0,part_2,stop,500.0,300.0,4.0,,,,,,,,,cyan,flipped triangle
0.0,3.0,3.0,0.0,5.0,5.0,306.0875786468386,7.0,0.0,part_2,go,500.0,350.0,1.0,,,,,,,,,orange,diamond
0.0,5.0,1.0,1.0,6.0,6.0,756.598835811019,7.0,0.0,part_2,go,500.0,350.0,1.0,,,,,,,,,gray,triangle
0.0,5.0,1.0,1.0,6.0,6.0,466.2408034782856,7.0,0.0,part_2,go,500.0,350.0,1.0,,,,,,,,,gray,triangle
0.0,2.0,2.0,0.0,6.0,6.0,386.502094566822,7.0,0.0,part_2,go,500.0,350.0,1.0,,,,,,,,,white,cross
0.0,7.0,3.0,1.0,6.0,0.0,0.0,7.0,0.0,part_2,stop,500.0,350.0,4.0,,,,,,,,,green,circle
0.0,6.0,2.0,1.0,5.0,5.0,389.2158593516797,7.0,0.0,part_2,go,500.0,400.0,1.0,,,,,,,,,cyan,flipped triangle
0.0,4.0,4.0,0.0,5.0,5.0,805.9846244286746,7.0,0.0,part_2,go,500.0,400.0,1.0,,,,,,,,,yellow,hexagon
0.0,7.0,3.0,1.0,5.0,5.0,333.3833385258913,7.0,0.0,part_2,go,500.0,400.0,1.0,,,,,,,,,green,circle
0.0,7.0,3.0,1.0,5.0,5.0,368.1790654081851,7.0,0.0,part_2,stop,500.0,400.0,3.0,,,,,,,,,green,circle
0.0,3.0,3.0,0.0,6.0,6.0,369.3368171807378,7.0,0.0,part_2,go,450.0,400.0,1.0,,,,,,,,,orange,diamond
0.0,7.0,3.0,1.0,5.0,0.0,0.0,7.0,0.0,part_2,stop,450.0,400.0,4.0,,,,,,,,,green,circle
0.0,3.0,3.0,0.0,6.0,6.0,505.493086297065,7.0,0.0,part_2,go,500.0,400.0,1.0,,,,,,,,,orange,diamond
0.0,5.0,1.0,1.0,6.0,0.0,0.0,7.0,0.0,part_2,stop,500.0,400.0,4.0,,,,,,,,,gray,triangle
0.0,6.0,2.0,1.0,5.0,5.0,327.331559965387,7.0,0.0,part_2,stop,500.0,450.0,3.0,,,,,,,,,cyan,flipped triangle
0.0,3.0,3.0,0.0,5.0,5.0,632.8683164902031,7.0,0.0,part_2,go,450.0,450.0,1.0,,,,,,,,,orange,diamond
0.0,8.0,4.0,1.0,6.0,6.0,306.3378154765814,7.0,0.0,part_2,stop,450.0,450.0,3.0,,,,,,,,,blue,I
0.0,7.0,3.0,1.0,6.0,6.0,566.9115574564785,7.0,0.0,part_2,stop,450.0,400.0,3.0,,,,,,,,,green,circle
0.0,8.0,4.0,1.0,6.0,0.0,0.0,7.0,0.0,part_2,stop,450.0,350.0,4.0,,,,,,,,,blue,I
0.0,3.0,3.0,0.0,5.0,5.0,545.9286125842482,7.0,0.0,part_2,go,450.0,400.0,1.0,,,,,,,,,orange,diamond
0.0,3.0,3.0,0.0,6.0,6.0,861.1829723231494,7.0,0.0,part_2,go,450.0,400.0,1.0,,,,,,,,,orange,diamond
0.0,7.0,3.0,1.0,5.0,0.0,0.0,7.0,0.0,part_2,stop,450.0,400.0,4.0,,,,,,,,,green,circle
0.0,8.0,4.0,1.0,6.0,6.0,346.3374383281916,7.0,0.0,part_2,go,500.0,400.0,1.0,,,,,,,,,blue,I
0.0,1.0,1.0,0.0,6.0,6.0,627.6005173567683,7.0,0.0,part_2,go,500.0,400.0,1.0,,,,,,,,,magenta,square
0.0,7.0,3.0,1.0,6.0,6.0,330.2510185167193,8.0,0.0,part_2,stop,500.0,400.0,3.0,,,,,,,,,green,circle
0.0,8.0,4.0,1.0,6.0,6.0,365.5582510400563,8.0,0.0,part_2,stop,500.0,350.0,3.0,,,,,,,,,blue,I
0.0,5.0,1.0,1.0,5.0,5.0,288.0327187012881,8.0,0.0,part_2,stop,500.0,300.0,3.0,,,,,,,,,gray,triangle
0.0,1.0,1.0,0.0,6.0,6.0,659.1519224457443,8.0,0.0,part_2,go,450.0,300.0,1.0,,,,,,,,,magenta,square
0.0,6.0,2.0,1.0,6.0,0.0,0.0,8.0,0.0,part_2,stop,450.0,300.0,4.0,,,,,,,,,cyan,flipped triangle
0.0,8.0,4.0,1.0,5.0,5.0,525.8385795168579,8.0,0.0,part_2,stop,450.0,350.0,3.0,,,,,,,,,blue,I
0.0,2.0,2.0,0.0,6.0,6.0,267.8613536991179,8.0,0.0,part_2,go,400.0,350.0,1.0,,,,,,,,,white,cross
0.0,2.0,2.0,0.0,6.0,6.0,685.30852207914,8.0,0.0,part_2,go,400.0,350.0,1.0,,,,,,,,,white,cross
0.0,6.0,2.0,1.0,5.0,5.0,349.2331781890243,8.0,0.0,part_2,stop,400.0,350.0,3.0,,,,,,,,,cyan,flipped triangle
0.0,6.0,2.0,1.0,5.0,0.0,0.0,8.0,0.0,part_2,stop,350.0,350.0,4.0,,,,,,,,,cyan,flipped triangle
0.0,1.0,1.0,0.0,5.0,5.0,452.1551264915615,8.0,0.0,part_2,go,400.0,350.0,1.0,,,,,,,,,magenta,square
0.0,3.0,3.0,0.0,5.0,5.0,587.3424680903554,8.0,0.0,part_2,go,400.0,350.0,1.0,,,,,,,,,orange,diamond
0.0,7.0,3.0,1.0,5.0,5.0,599.4409893173724,8.0,0.0,part_2,go,400.0,350.0,1.0,,,,,,,,,green,circle
0.0,4.0,4.0,0.0,6.0,6.0,386.5751754492521,8.0,0.0,part_2,go,400.0,350.0,1.0,,,,,,,,,yellow,hexagon
0.0,1.0,1.0,0.0,5.0,5.0,410.4921363759786,8.0,0.0,part_2,go,400.0,350.0,1.0,,,,,,,,,magenta,square
0.0,8.0,4.0,1.0,5.0,5.0,333.2106182351708,8.0,0.0,part_2,stop,400.0,350.0,3.0,,,,,,,,,blue,I
0.0,2.0,2.0,0.0,5.0,5.0,378.1835786066949,8.0,0.0,part_2,go,350.0,350.0,1.0,,,,,,,,,white,cross
0.0,4.0,4.0,0.0,6.0,6.0,322.983686812222,8.0,0.0,part_2,go,350.0,350.0,1.0,,,,,,,,,yellow,hexagon
0.0,6.0,2.0,1.0,5.0,5.0,333.6945949122309,8.0,0.0,part_2,go,350.0,350.0,1.0,,,,,,,,,cyan,flipped triangle
0.0,3.0,3.0,0.0,6.0,6.0,324.6131911873817,8.0,0.0,part_2,go,350.0,350.0,1.0,,,,,,,,,orange,diamond
0.0,6.0,2.0,1.0,6.0,0.0,0.0,8.0,0.0,part_2,stop,350.0,350.0,4.0,,,,,,,,,cyan,flipped triangle
0.0,6.0,2.0,1.0,6.0,0.0,0.0,8.0,0.0,part_2,stop,350.0,400.0,4.0,,,,,,,,,cyan,flipped triangle
0.0,2.0,2.0,0.0,6.0,6.0,472.7822230197489,8.0,0.0,part_2,go,350.0,450.0,1.0,,,,,,,,,white,cross
0.0,1.0,1.0,0.0,6.0,6.0,587.010157527402,8.0,0.0,part_2,go,350.0,450.0,1.0,,,,,,,,,magenta,square
0.0,1.0,1.0,0.0,5.0,5.0,349.8455574735999,8.0,0.0,part_2,go,350.0,450.0,1.0,,,,,,,,,magenta,square
0.0,5.0,1.0,1.0,5.0,0.0,0.0,8.0,0.0,part_2,stop,350.0,450.0,4.0,,,,,,,,,gray,triangle
0.0,2.0,2.0,0.0,6.0,6.0,418.8262023963034,8.0,0.0,part_2,go,400.0,450.0,1.0,,,,,,,,,white,cross
0.0,6.0,2.0,1.0,6.0,6.0,421.1759916506707,8.0,0.0,part_2,go,400.0,450.0,1.0,,,,,,,,,cyan,flipped triangle
0.0,4.0,4.0,0.0,6.0,6.0,467.0615037903189,8.0,0.0,part_2,go,400.0,450.0,1.0,,,,,,,,,yellow,hexagon
0.0,5.0,1.0,1.0,5.0,5.0,311.0927133820951,8.0,0.0,part_2,stop,400.0,450.0,3.0,,,,,,,,,gray,triangle
0.0,2.0,2.0,0.0,5.0,5.0,557.509328937158,8.0,0.0,part_2,go,350.0,450.0,1.0,,,,,,,,,white,cross
0.0,7.0,3.0,1.0,6.0,6.0,310.5072386097163,8.0,0.0,part_2,stop,350.0,450.0,3.0,,,,,,,,,green,circle
0.0,1.0,1.0,0.0,5.0,5.0,358.1275236792862,8.0,0.0,part_2,go,350.0,400.0,1.0,,,,,,,,,magenta,square
0.0,4.0,4.0,0.0,5.0,5.0,426.6928841825574,8.0,0.0,part_2,go,350.0,400.0,1.0,,,,,,,,,yellow,hexagon
0.0,5.0,1.0,1.0,5.0,0.0,0.0,8.0,0.0,part_2,stop,350.0,400.0,4.0,,,,,,,,,gray,triangle
0.0,8.0,4.0,1.0,5.0,5.0,383.3430376835167,8.0,0.0,part_2,go,400.0,400.0,1.0,,,,,,,,,blue,I
0.0,6.0,2.0,1.0,7.0,4.0,4834.685723064467,1.0,1.0,part_3,go,0.0,0.0,0.0,132.0,3.0,176.0,88.0,44.0,132.0,220.0,264.0,cyan,flipped triangle
0.0,1.0,1.0,0.0,7.0,5.0,1382.143683033064,1.0,2.0,part_3,go,0.0,0.0,0.0,176.0,4.0,88.0,132.0,44.0,264.0,176.0,220.0,magenta,square
0.0,3.0,3.0,0.0,7.0,5.0,2339.4056679680943,1.0,1.0,part_3,go,0.0,0.0,0.0,136.0,4.0,34.0,170.0,68.0,204.0,136.0,102.0,orange,diamond
0.0,2.0,2.0,0.0,7.0,6.0,2499.3380908854306,1.0,1.0,part_3,go,0.0,0.0,0.0,147.0,3.0,294.0,49.0,98.0,196.0,245.0,147.0,white,cross
0.0,7.0,3.0,1.0,7.0,4.0,3187.3156339861453,1.0,1.0,part_3,go,0.0,0.0,0.0,98.0,2.0,49.0,245.0,196.0,98.0,294.0,147.0,green,circle
0.0,1.0,1.0,0.0,7.0,2.0,1770.5555679276586,1.0,1.0,part_3,go,0.0,0.0,0.0,108.0,2.0,162.0,108.0,324.0,216.0,54.0,270.0,magenta,square
0.0,5.0,1.0,1.0,7.0,3.0,2604.3355148285627,1.0,1.0,part_3,go,0.0,0.0,0.0,136.0,4.0,170.0,68.0,136.0,34.0,102.0,204.0,gray,triangle
0.0,3.0,3.0,0.0,7.0,3.0,1333.3347048610449,1.0,1.0,part_3,go,0.0,0.0,0.0,176.0,4.0,220.0,264.0,176.0,44.0,132.0,88.0,orange,diamond
0.0,4.0,4.0,0.0,7.0,2.0,1592.5983481574804,1.0,1.0,part_3,go,0.0,0.0,0.0,162.0,3.0,324.0,162.0,108.0,54.0,216.0,270.0,yellow,hexagon
0.0,5.0,1.0,1.0,7.0,2.0,1367.8758847527206,1.0,1.0,part_3,go,0.0,0.0,0.0,147.0,3.0,49.0,147.0,245.0,98.0,294.0,196.0,gray,triangle
0.0,4.0,4.0,0.0,7.0,2.0,3181.2399169430137,1.0,1.0,part_3,go,0.0,0.0,0.0,170.0,5.0,204.0,170.0,34.0,136.0,68.0,102.0,yellow,hexagon
0.0,3.0,3.0,0.0,7.0,6.0,2607.990249991417,1.0,1.0,part_3,go,0.0,0.0,0.0,216.0,4.0,270.0,54.0,162.0,108.0,324.0,216.0,orange,diamond
0.0,3.0,3.0,0.0,7.0,3.0,2193.0751588661224,1.0,1.0,part_3,go,0.0,0.0,0.0,176.0,4.0,44.0,88.0,176.0,220.0,264.0,132.0,orange,diamond
0.0,7.0,3.0,1.0,7.0,4.0,1620.4612329602242,1.0,1.0,part_3,go,0.0,0.0,0.0,170.0,5.0,34.0,204.0,136.0,170.0,68.0,102.0,green,circle
0.0,2.0,2.0,0.0,7.0,6.0,1936.6033459082248,1.0,1.0,part_3,go,0.0,0.0,0.0,136.0,4.0,170.0,204.0,102.0,68.0,34.0,136.0,white,cross
0.0,5.0,1.0,1.0,7.0,3.0,2782.9205088783056,1.0,1.0,part_3,go,0.0,0.0,0.0,117.0,3.0,156.0,39.0,117.0,234.0,195.0,78.0,gray,triangle
0.0,3.0,3.0,0.0,7.0,5.0,2232.049560872838,1.0,1.0,part_3,go,0.0,0.0,0.0,156.0,4.0,78.0,117.0,195.0,234.0,156.0,39.0,orange,diamond
0.0,2.0,2.0,0.0,7.0,2.0,2312.5367779284716,1.0,1.0,part_3,go,0.0,0.0,0.0,156.0,4.0,195.0,156.0,117.0,234.0,78.0,39.0,white,cross
0.0,1.0,1.0,0.0,7.0,2.0,2008.3398579154164,1.0,1.0,part_3,go,0.0,0.0,0.0,132.0,3.0,44.0,132.0,220.0,176.0,264.0,88.0,magenta,square
0.0,6.0,2.0,1.0,7.0,5.0,2055.722356075421,1.0,1.0,part_3,go,0.0,0.0,0.0,117.0,3.0,39.0,78.0,234.0,195.0,117.0,156.0,cyan,flipped triangle
0.0,1.0,1.0,0.0,7.0,5.0,807.4005220551044,2.0,1.0,part_3,go,0.0,0.0,0.0,170.0,5.0,204.0,68.0,102.0,34.0,170.0,136.0,magenta,square
0.0,8.0,4.0,1.0,7.0,6.0,1583.791006822139,2.0,1.0,part_3,go,0.0,0.0,0.0,195.0,5.0,78.0,234.0,117.0,156.0,39.0,195.0,blue,I
0.0,8.0,4.0,1.0,7.0,5.0,1978.136258898303,2.0,1.0,part_3,go,0.0,0.0,0.0,147.0,3.0,98.0,196.0,49.0,294.0,147.0,245.0,blue,I
0.0,4.0,4.0,0.0,7.0,3.0,1767.4519747961313,2.0,1.0,part_3,go,0.0,0.0,0.0,195.0,5.0,78.0,156.0,195.0,117.0,234.0,39.0,yellow,hexagon
0.0,6.0,2.0,1.0,7.0,2.0,1531.0702149290591,2.0,1.0,part_3,go,0.0,0.0,0.0,147.0,3.0,196.0,147.0,245.0,294.0,98.0,49.0,cyan,flipped triangle
0.0,6.0,2.0,1.0,7.0,6.0,1711.7649880237875,2.0,1.0,part_3,go,0.0,0.0,0.0,132.0,3.0,88.0,220.0,264.0,176.0,44.0,132.0,cyan,flipped triangle
0.0,3.0,3.0,0.0,7.0,3.0,1532.6978648081422,2.0,1.0,part_3,go,0.0,0.0,0.0,147.0,3.0,245.0,196.0,147.0,49.0,294.0,98.0,orange,diamond
0.0,3.0,3.0,0.0,7.0,4.0,802.0776170305908,2.0,1.0,part_3,go,0.0,0.0,0.0,136.0,4.0,68.0,204.0,170.0,136.0,102.0,34.0,orange,diamond
0.0,7.0,3.0,1.0,7.0,3.0,1535.5624870862812,2.0,1.0,part_3,go,0.0,0.0,0.0,132.0,3.0,88.0,44.0,132.0,220.0,176.0,264.0,green,circle
0.0,4.0,4.0,0.0,7.0,5.0,1636.8364177178591,2.0,1.0,part_3,go,0.0,0.0,0.0,102.0,3.0,136.0,204.0,68.0,34.0,102.0,170.0,yellow,hexagon
0.0,8.0,4.0,1.0,7.0,2.0,1538.7556010391563,2.0,1.0,part_3,go,0.0,0.0,0.0,132.0,3.0,44.0,132.0,176.0,220.0,88.0,264.0,blue,I
0.0,8.0,4.0,1.0,7.0,1.0,2055.974641814828,2.0,1.0,part_3,go,0.0,0.0,0.0,132.0,3.0,132.0,264.0,176.0,44.0,220.0,88.0,blue,I
0.0,4.0,4.0,0.0,7.0,2.0,2968.5070898849517,2.0,1.0,part_3,go,0.0,0.0,0.0,176.0,4.0,220.0,176.0,88.0,264.0,132.0,44.0,yellow,hexagon
0.0,3.0,3.0,0.0,7.0,5.0,2205.1592930220068,2.0,1.0,part_3,go,0.0,0.0,0.0,147.0,3.0,98.0,245.0,294.0,49.0,147.0,196.0,orange,diamond
0.0,1.0,1.0,0.0,7.0,3.0,3354.710226878524,2.0,1.0,part_3,go,0.0,0.0,0.0,294.0,6.0,98.0,245.0,294.0,196.0,49.0,147.0,magenta,square
0.0,6.0,2.0,1.0,7.0,2.0,2443.9725179690868,2.0,1.0,part_3,go,0.0,0.0,0.0,162.0,3.0,54.0,162.0,324.0,270.0,108.0,216.0,cyan,flipped triangle
0.0,1.0,1.0,0.0,7.0,4.0,1825.049964012578,2.0,1.0,part_3,go,0.0,0.0,0.0,156.0,4.0,195.0,39.0,117.0,156.0,78.0,234.0,magenta,square
0.0,5.0,1.0,1.0,7.0,6.0,1781.3426409848034,2.0,1.0,part_3,go,0.0,0.0,0.0,132.0,3.0,220.0,264.0,44.0,176.0,88.0,132.0,gray,triangle
0.0,6.0,2.0,1.0,7.0,1.0,2119.715663138777,2.0,1.0,part_3,go,0.0,0.0,0.0,156.0,4.0,156.0,78.0,234.0,195.0,39.0,117.0,cyan,flipped triangle
0.0,2.0,2.0,0.0,7.0,5.0,1952.5312969926745,2.0,1.0,part_3,go,0.0,0.0,0.0,147.0,3.0,49.0,294.0,196.0,245.0,147.0,98.0,white,cross
0.0,8.0,4.0,1.0,7.0,2.0,2963.0555890034884,3.0,1.0,part_3,go,0.0,0.0,0.0,216.0,4.0,324.0,216.0,54.0,270.0,108.0,162.0,blue,I
0.0,7.0,3.0,1.0,7.0,1.0,1174.1156100761143,3.0,1.0,part_3,go,0.0,0.0,0.0,147.0,3.0,147.0,196.0,245.0,294.0,49.0,98.0,green,circle
0.0,8.0,4.0,1.0,7.0,2.0,1649.0482308436183,3.0,1.0,part_3,go,0.0,0.0,0.0,156.0,4.0,195.0,156.0,78.0,234.0,117.0,39.0,blue,I
0.0,2.0,2.0,0.0,7.0,5.0,1884.5962760969996,3.0,1.0,part_3,go,0.0,0.0,0.0,176.0,4.0,44.0,88.0,220.0,264.0,176.0,132.0,white,cross
0.0,6.0,2.0,1.0,7.0,3.0,2482.0628699380904,3.0,1.0,part_3,go,0.0,0.0,0.0,147.0,3.0,294.0,245.0,147.0,196.0,49.0,98.0,cyan,flipped triangle
0.0,5.0,1.0,1.0,7.0,4.0,2372.327663935721,3.0,1.0,part_3,go,0.0,0.0,0.0,132.0,3.0,220.0,44.0,88.0,132.0,264.0,176.0,gray,triangle
0.0,7.0,3.0,1.0,7.0,5.0,1281.4154149964452,3.0,1.0,part_3,go,0.0,0.0,0.0,102.0,3.0,170.0,34.0,204.0,68.0,102.0,136.0,green,circle
0.0,5.0,1.0,1.0,7.0,1.0,1407.253328943625,3.0,1.0,part_3,go,0.0,0.0,0.0,136.0,4.0,136.0,34.0,170.0,68.0,204.0,102.0,gray,triangle
0.0,6.0,2.0,1.0,7.0,2.0,1362.7813409548253,3.0,1.0,part_3,go,0.0,0.0,0.0,102.0,3.0,204.0,102.0,170.0,136.0,34.0,68.0,cyan,flipped triangle
0.0,1.0,1.0,0.0,7.0,3.0,2127.853346057236,3.0,1.0,part_3,go,0.0,0.0,0.0,98.0,2.0,196.0,147.0,98.0,49.0,294.0,245.0,magenta,square
0.0,1.0,1.0,0.0,7.0,2.0,1365.3557400684804,3.0,1.0,part_3,go,0.0,0.0,0.0,162.0,3.0,216.0,162.0,54.0,324.0,270.0,108.0,magenta,square
0.0,3.0,3.0,0.0,7.0,6.0,2399.7252210974693,3.0,1.0,part_3,go,0.0,0.0,0.0,195.0,5.0,78.0,39.0,156.0,234.0,117.0,195.0,orange,diamond
0.0,1.0,1.0,0.0,7.0,2.0,848.4331120271236,3.0,1.0,part_3,go,0.0,0.0,0.0,117.0,3.0,156.0,117.0,195.0,39.0,234.0,78.0,magenta,square
0.0,7.0,3.0,1.0,7.0,2.0,1357.5958290603012,3.0,1.0,part_3,go,0.0,0.0,0.0,162.0,3.0,54.0,162.0,216.0,324.0,108.0,270.0,green,circle
0.0,4.0,4.0,0.0,7.0,3.0,2145.639762748033,3.0,1.0,part_3,go,0.0,0.0,0.0,195.0,5.0,39.0,156.0,195.0,234.0,78.0,117.0,yellow,hexagon
0.0,8.0,4.0,1.0,7.0,1.0,1797.1561669837683,3.0,1.0,part_3,go,0.0,0.0,0.0,170.0,5.0,170.0,102.0,204.0,136.0,68.0,34.0,blue,I
0.0,2.0,2.0,0.0,7.0,2.0,3293.809653026983,3.0,1.0,part_3,go,0.0,0.0,0.0,216.0,4.0,270.0,216.0,54.0,324.0,162.0,108.0,white,cross
0.0,7.0,3.0,1.0,7.0,6.0,1249.11720585078,3.0,1.0,part_3,go,0.0,0.0,0.0,156.0,4.0,39.0,78.0,234.0,195.0,117.0,156.0,green,circle
0.0,4.0,4.0,0.0,7.0,5.0,1575.1668401062489,3.0,1.0,part_3,go,0.0,0.0,0.0,220.0,5.0,44.0,264.0,88.0,176.0,220.0,132.0,yellow,hexagon
0.0,8.0,4.0,1.0,7.0,2.0,1351.073957979679,3.0,1.0,part_3,go,0.0,0.0,0.0,162.0,3.0,54.0,162.0,216.0,108.0,270.0,324.0,blue,I
0.0,2.0,2.0,0.0,7.0,2.0,1387.2965509071946,4.0,1.0,part_3,go,0.0,0.0,0.0,162.0,3.0,54.0,162.0,270.0,216.0,324.0,108.0,white,cross
0.0,7.0,3.0,1.0,7.0,6.0,1207.904244074598,4.0,1.0,part_3,go,0.0,0.0,0.0,132.0,3.0,88.0,264.0,176.0,44.0,220.0,132.0,green,circle
0.0,7.0,3.0,1.0,7.0,1.0,871.5634718537331,4.0,1.0,part_3,go,0.0,0.0,0.0,117.0,3.0,117.0,195.0,39.0,156.0,234.0,78.0,green,circle
0.0,4.0,4.0,0.0,7.0,3.0,1378.2692539971322,4.0,1.0,part_3,go,0.0,0.0,0.0,196.0,4.0,294.0,98.0,196.0,147.0,49.0,245.0,yellow,hexagon
0.0,4.0,4.0,0.0,7.0,2.0,1267.1958319842815,4.0,1.0,part_3,go,0.0,0.0,0.0,245.0,5.0,49.0,245.0,147.0,196.0,98.0,294.0,yellow,hexagon
0.0,5.0,1.0,1.0,7.0,1.0,1943.2665810454637,4.0,1.0,part_3,go,0.0,0.0,0.0,156.0,4.0,156.0,117.0,78.0,234.0,195.0,39.0,gray,triangle
0.0,2.0,2.0,0.0,7.0,6.0,1403.140587033704,4.0,1.0,part_3,go,0.0,0.0,0.0,132.0,3.0,176.0,264.0,88.0,44.0,220.0,132.0,white,cross
0.0,2.0,2.0,0.0,7.0,6.0,1743.561872979626,4.0,1.0,part_3,go,0.0,0.0,0.0,136.0,4.0,68.0,34.0,204.0,170.0,102.0,136.0,white,cross
0.0,1.0,1.0,0.0,7.0,1.0,1530.4263290017843,4.0,1.0,part_3,go,0.0,0.0,0.0,102.0,3.0,102.0,204.0,136.0,34.0,170.0,68.0,magenta,square
0.0,7.0,3.0,1.0,7.0,2.0,1149.1431349422785,4.0,1.0,part_3,go,0.0,0.0,0.0,162.0,3.0,108.0,162.0,270.0,216.0,54.0,324.0,green,circle
0.0,8.0,4.0,1.0,7.0,2.0,1689.632561057806,4.0,1.0,part_3,go,0.0,0.0,0.0,196.0,4.0,49.0,196.0,294.0,245.0,98.0,147.0,blue,I
0.0,8.0,4.0,1.0,7.0,5.0,3075.6883649155498,4.0,1.0,part_3,go,0.0,0.0,0.0,170.0,5.0,102.0,68.0,204.0,34.0,170.0,136.0,blue,I
0.0,5.0,1.0,1.0,7.0,5.0,1601.87089885585,4.0,1.0,part_3,go,0.0,0.0,0.0,147.0,3.0,294.0,49.0,98.0,196.0,147.0,245.0,gray,triangle
0.0,4.0,4.0,0.0,7.0,5.0,1602.049375884235,4.0,1.0,part_3,go,0.0,0.0,0.0,216.0,4.0,270.0,54.0,324.0,162.0,216.0,108.0,yellow,hexagon
0.0,3.0,3.0,0.0,7.0,5.0,3055.142380995676,4.0,1.0,part_3,go,0.0,0.0,0.0,162.0,3.0,108.0,324.0,54.0,216.0,162.0,270.0,orange,diamond
0.0,6.0,2.0,1.0,7.0,4.0,2110.818174900487,4.0,1.0,part_3,go,0.0,0.0,0.0,216.0,4.0,162.0,270.0,54.0,216.0,324.0,108.0,cyan,flipped triangle
0.0,6.0,2.0,1.0,7.0,2.0,1943.4101150836796,4.0,1.0,part_3,go,0.0,0.0,0.0,204.0,6.0,102.0,204.0,136.0,170.0,68.0,34.0,cyan,flipped triangle
0.0,5.0,1.0,1.0,7.0,1.0,1810.0888379849496,4.0,1.0,part_3,go,0.0,0.0,0.0,216.0,4.0,216.0,162.0,324.0,108.0,54.0,270.0,gray,triangle
0.0,2.0,2.0,0.0,7.0,1.0,1090.6493249349296,4.0,1.0,part_3,go,0.0,0.0,0.0,156.0,4.0,156.0,78.0,39.0,117.0,234.0,195.0,white,cross
0.0,5.0,1.0,1.0,7.0,3.0,2027.1837278269231,4.0,1.0,part_3,go,0.0,0.0,0.0,162.0,3.0,54.0,270.0,162.0,108.0,324.0,216.0,gray,triangle
