raw_reward_magnitude,stim_reward,stepwise_reward_magnitude,paired_with_stopping,quadrant,response,reaction_time,block,num_trial_presentations,which_part,stop_signal_trial_type,left_SSD,right_SSD,accuracy,chosen_bidding_amount,chosen_bidding_level,possible_bid_1,possible_bid_2,possible_bid_3,possible_bid_4,possible_bid_5,possible_bid_6,color_text,shape_text
0.0,2.0,0.0,0.0,1.0,1.0,407.1685555391013,1.0,1.0,part_1,,,,,,,,,,,,,yellow,hexagon
223.0,7.0,3.0,1.0,4.0,4.0,452.0504928659647,1.0,1.0,part_1,,,,,,,,,,,,,orange,diamond
420.0,4.0,4.0,0.0,3.0,3.0,398.1305509805679,1.0,1.0,part_1,,,,,,,,,,,,,gray,flipped triangle
421.0,8.0,4.0,1.0,2.0,2.0,353.0326869804412,1.0,1.0,part_1,,,,,,,,,,,,,cyan,circle
46.0,5.0,1.0,1.0,1.0,1.0,420.175865991041,1.0,1.0,part_1,,,,,,,,,,,,,white,cross
0.0,3.0,0.0,0.0,3.0,3.0,387.4206943437457,1.0,1.0,part_1,,,,,,,,,,,,,magenta,square
398.0,4.0,4.0,0.0,1.0,1.0,377.0278501324355,1.0,1.0,part_1,,,,,,,,,,,,,gray,flipped triangle
0.0,4.0,0.0,0.0,2.0,2.0,355.7591622229665,1.0,1.0,part_1,,,,,,,,,,,,,gray,flipped triangle
398.0,8.0,4.0,1.0,4.0,4.0,334.0305113233626,1.0,1.0,part_1,,,,,,,,,,,,,cyan,circle
213.0,7.0,3.0,1.0,2.0,2.0,379.3319601099938,1.0,1.0,part_1,,,,,,,,,,,,,orange,diamond
0.0,5.0,0.0,1.0,1.0,1.0,345.3891952522099,1.0,1.0,part_1,,,,,,,,,,,,,white,cross
215.0,3.0,3.0,0.0,4.0,4.0,300.3988629207015,1.0,1.0,part_1,,,,,,,,,,,,,magenta,square
0.0,7.0,0.0,1.0,4.0,4.0,393.1522089987993,1.0,1.0,part_1,,,,,,,,,,,,,orange,diamond
180.0,3.0,3.0,0.0,1.0,1.0,312.8849400673061,1.0,1.0,part_1,,,,,,,,,,,,,magenta,square
0.0,6.0,0.0,1.0,3.0,3.0,336.068878415972,1.0,1.0,part_1,,,,,,,,,,,,,blue,I
0.0,4.0,0.0,0.0,4.0,4.0,371.3715528137982,1.0,1.0,part_1,,,,,,,,,,,,,gray,flipped triangle
35.0,1.0,1.0,0.0,1.0,1.0,316.4826876018196,1.0,1.0,part_1,,,,,,,,,,,,,green,triangle
197.0,7.0,3.0,1.0,3.0,3.0,325.4887093789875,1.0,1.0,part_1,,,,,,,,,,,,,orange,diamond
215.0,3.0,3.0,0.0,2.0,2.0,315.4353208374232,1.0,1.0,part_1,,,,,,,,,,,,,magenta,square
42.0,5.0,1.0,1.0,2.0,2.0,361.1526284366846,1.0,1.0,part_1,,,,,,,,,,,,,white,cross
0.0,4.0,0.0,0.0,1.0,1.0,417.9490697570145,1.0,1.0,part_1,,,,,,,,,,,,,gray,flipped triangle
0.0,5.0,0.0,1.0,2.0,2.0,295.2160919085145,1.0,1.0,part_1,,,,,,,,,,,,,white,cross
110.0,2.0,2.0,0.0,4.0,4.0,329.2697803117335,1.0,1.0,part_1,,,,,,,,,,,,,yellow,hexagon
112.0,2.0,2.0,0.0,2.0,2.0,826.3548095710576,1.0,1.0,part_1,,,,,,,,,,,,,yellow,hexagon
38.0,1.0,1.0,0.0,2.0,2.0,353.4412861336022,1.0,1.0,part_1,,,,,,,,,,,,,green,triangle
0.0,7.0,0.0,1.0,3.0,3.0,341.9075084384531,1.0,1.0,part_1,,,,,,,,,,,,,orange,diamond
417.0,4.0,4.0,0.0,3.0,3.0,332.239881856367,1.0,1.0,part_1,,,,,,,,,,,,,gray,flipped triangle
0.0,8.0,0.0,1.0,1.0,1.0,298.3399403747171,1.0,1.0,part_1,,,,,,,,,,,,,cyan,circle
0.0,2.0,0.0,0.0,3.0,3.0,343.762069940567,1.0,1.0,part_1,,,,,,,,,,,,,yellow,hexagon
95.0,2.0,2.0,0.0,1.0,1.0,299.2034289054572,1.0,1.0,part_1,,,,,,,,,,,,,yellow,hexagon
179.0,7.0,3.0,1.0,1.0,1.0,346.0955354385078,1.0,1.0,part_1,,,,,,,,,,,,,orange,diamond
0.0,7.0,0.0,1.0,3.0,3.0,334.9344113375991,1.0,1.0,part_1,,,,,,,,,,,,,orange,diamond
204.0,7.0,3.0,1.0,4.0,4.0,356.6018368583172,1.0,1.0,part_1,,,,,,,,,,,,,orange,diamond
0.0,1.0,0.0,0.0,4.0,4.0,357.2819461114704,1.0,1.0,part_1,,,,,,,,,,,,,green,triangle
109.0,2.0,2.0,0.0,3.0,3.0,336.2329669762403,1.0,1.0,part_1,,,,,,,,,,,,,yellow,hexagon
101.0,2.0,2.0,0.0,1.0,1.0,280.6656190659851,1.0,1.0,part_1,,,,,,,,,,,,,yellow,hexagon
95.0,6.0,2.0,1.0,2.0,2.0,293.4944406151771,1.0,1.0,part_1,,,,,,,,,,,,,blue,I
113.0,6.0,2.0,1.0,3.0,3.0,303.6108878441155,1.0,1.0,part_1,,,,,,,,,,,,,blue,I
47.0,5.0,1.0,1.0,2.0,2.0,317.3509580083191,1.0,1.0,part_1,,,,,,,,,,,,,white,cross
400.0,4.0,4.0,0.0,3.0,3.0,350.1327070407569,1.0,1.0,part_1,,,,,,,,,,,,,gray,flipped triangle
176.0,7.0,3.0,1.0,4.0,4.0,329.7973009757697,1.0,1.0,part_1,,,,,,,,,,,,,orange,diamond
0.0,1.0,0.0,0.0,3.0,3.0,350.0246228650212,1.0,1.0,part_1,,,,,,,,,,,,,green,triangle
418.0,8.0,4.0,1.0,2.0,2.0,340.8013537991792,1.0,1.0,part_1,,,,,,,,,,,,,cyan,circle
97.0,6.0,2.0,1.0,1.0,1.0,296.0367139894515,1.0,1.0,part_1,,,,,,,,,,,,,blue,I
34.0,1.0,1.0,0.0,4.0,4.0,398.3570183627307,1.0,1.0,part_1,,,,,,,,,,,,,green,triangle
28.0,5.0,1.0,1.0,2.0,2.0,354.7848060261458,1.0,1.0,part_1,,,,,,,,,,,,,white,cross
395.0,4.0,4.0,0.0,4.0,4.0,352.8091683983803,1.0,1.0,part_1,,,,,,,,,,,,,gray,flipped triangle
0.0,1.0,0.0,0.0,4.0,4.0,354.6353681012988,1.0,1.0,part_1,,,,,,,,,,,,,green,triangle
60.0,1.0,1.0,0.0,1.0,1.0,367.1363366302103,1.0,1.0,part_1,,,,,,,,,,,,,green,triangle
44.0,5.0,1.0,1.0,4.0,4.0,356.7786398343742,1.0,1.0,part_1,,,,,,,,,,,,,white,cross
215.0,7.0,3.0,1.0,3.0,3.0,321.1830414365977,1.0,1.0,part_1,,,,,,,,,,,,,orange,diamond
381.0,8.0,4.0,1.0,3.0,3.0,322.482825955376,1.0,1.0,part_1,,,,,,,,,,,,,cyan,circle
109.0,2.0,2.0,0.0,1.0,1.0,300.6963685620576,1.0,1.0,part_1,,,,,,,,,,,,,yellow,hexagon
71.0,5.0,1.0,1.0,1.0,1.0,336.6067549213767,1.0,1.0,part_1,,,,,,,,,,,,,white,cross
60.0,5.0,1.0,1.0,3.0,3.0,313.4532819967717,1.0,1.0,part_1,,,,,,,,,,,,,white,cross
205.0,7.0,3.0,1.0,2.0,2.0,347.7728117723018,1.0,1.0,part_1,,,,,,,,,,,,,orange,diamond
0.0,6.0,0.0,1.0,4.0,4.0,348.96636405028397,1.0,1.0,part_1,,,,,,,,,,,,,blue,I
180.0,7.0,3.0,1.0,1.0,1.0,303.2948912587017,1.0,1.0,part_1,,,,,,,,,,,,,orange,diamond
201.0,7.0,3.0,1.0,1.0,1.0,360.517862252891,1.0,1.0,part_1,,,,,,,,,,,,,orange,diamond
0.0,1.0,0.0,0.0,4.0,4.0,328.3129229675978,1.0,1.0,part_1,,,,,,,,,,,,,green,triangle
394.0,4.0,4.0,0.0,4.0,4.0,350.3397624008357,1.0,1.0,part_1,,,,,,,,,,,,,gray,flipped triangle
52.0,5.0,1.0,1.0,1.0,1.0,307.3543813079595,1.0,1.0,part_1,,,,,,,,,,,,,white,cross
400.0,8.0,4.0,1.0,3.0,3.0,294.6269346866756,1.0,1.0,part_1,,,,,,,,,,,,,cyan,circle
180.0,7.0,3.0,1.0,1.0,1.0,274.5417049154639,1.0,1.0,part_1,,,,,,,,,,,,,orange,diamond
424.0,4.0,4.0,0.0,3.0,3.0,297.0230176579207,1.0,1.0,part_1,,,,,,,,,,,,,gray,flipped triangle
199.0,7.0,3.0,1.0,3.0,3.0,307.5948865152895,1.0,1.0,part_1,,,,,,,,,,,,,orange,diamond
0.0,7.0,0.0,1.0,4.0,4.0,298.0733818840235,1.0,1.0,part_1,,,,,,,,,,,,,orange,diamond
121.0,6.0,2.0,1.0,1.0,1.0,321.6705154627561,1.0,1.0,part_1,,,,,,,,,,,,,blue,I
59.0,1.0,1.0,0.0,4.0,4.0,343.3750045951456,1.0,1.0,part_1,,,,,,,,,,,,,green,triangle
418.0,8.0,4.0,1.0,2.0,2.0,390.8051287289709,1.0,2.0,part_1,,,,,,,,,,,,,cyan,circle
392.0,4.0,4.0,0.0,3.0,3.0,379.6069270465523,1.0,1.0,part_1,,,,,,,,,,,,,gray,flipped triangle
192.0,3.0,3.0,0.0,1.0,1.0,312.2254202608019,1.0,1.0,part_1,,,,,,,,,,,,,magenta,square
59.0,1.0,1.0,0.0,4.0,4.0,379.4859927147627,1.0,1.0,part_1,,,,,,,,,,,,,green,triangle
392.0,8.0,4.0,1.0,3.0,3.0,368.1429165881127,1.0,1.0,part_1,,,,,,,,,,,,,cyan,circle
78.0,6.0,2.0,1.0,4.0,4.0,448.1855914928019,1.0,1.0,part_1,,,,,,,,,,,,,blue,I
414.0,4.0,4.0,0.0,2.0,2.0,325.7886217907071,1.0,1.0,part_1,,,,,,,,,,,,,gray,flipped triangle
411.0,4.0,4.0,0.0,2.0,2.0,427.9543512966484,1.0,1.0,part_1,,,,,,,,,,,,,gray,flipped triangle
414.0,4.0,4.0,0.0,4.0,4.0,529.5979690272361,1.0,1.0,part_1,,,,,,,,,,,,,gray,flipped triangle
0.0,5.0,0.0,1.0,3.0,3.0,361.8647814728319,1.0,1.0,part_1,,,,,,,,,,,,,white,cross
206.0,3.0,3.0,0.0,2.0,2.0,395.8807208109647,1.0,1.0,part_1,,,,,,,,,,,,,magenta,square
51.0,1.0,1.0,0.0,2.0,2.0,361.083619762212,1.0,1.0,part_1,,,,,,,,,,,,,green,triangle
82.0,2.0,2.0,0.0,4.0,4.0,463.2528936490416,1.0,1.0,part_1,,,,,,,,,,,,,yellow,hexagon
403.0,8.0,4.0,1.0,2.0,2.0,373.674183152616,1.0,1.0,part_1,,,,,,,,,,,,,cyan,circle
0.0,1.0,0.0,0.0,1.0,1.0,353.8208350073546,1.0,1.0,part_1,,,,,,,,,,,,,green,triangle
0.0,1.0,0.0,0.0,4.0,4.0,476.6267749946564,1.0,1.0,part_1,,,,,,,,,,,,,green,triangle
121.0,2.0,2.0,0.0,4.0,4.0,556.2080945819616,1.0,1.0,part_1,,,,,,,,,,,,,yellow,hexagon
123.0,2.0,2.0,0.0,4.0,4.0,398.7043367233127,1.0,1.0,part_1,,,,,,,,,,,,,yellow,hexagon
421.0,4.0,4.0,0.0,4.0,4.0,398.5625749919563,1.0,1.0,part_1,,,,,,,,,,,,,gray,flipped triangle
0.0,1.0,0.0,0.0,4.0,4.0,412.2537414077669,1.0,1.0,part_1,,,,,,,,,,,,,green,triangle
39.0,1.0,1.0,0.0,4.0,4.0,411.8242226541042,1.0,1.0,part_1,,,,,,,,,,,,,green,triangle
394.0,8.0,4.0,1.0,3.0,3.0,400.6667935755104,1.0,1.0,part_1,,,,,,,,,,,,,cyan,circle
379.0,8.0,4.0,1.0,4.0,4.0,413.8830127194524,1.0,1.0,part_1,,,,,,,,,,,,,cyan,circle
218.0,3.0,3.0,0.0,3.0,3.0,378.638980910182,1.0,1.0,part_1,,,,,,,,,,,,,magenta,square
179.0,3.0,3.0,0.0,2.0,2.0,379.8702545464039,1.0,1.0,part_1,,,,,,,,,,,,,magenta,square
385.0,8.0,4.0,1.0,1.0,1.0,358.8104555383324,1.0,1.0,part_1,,,,,,,,,,,,,cyan,circle
74.0,5.0,1.0,1.0,3.0,3.0,358.4848374594003,1.0,1.0,part_1,,,,,,,,,,,,,white,cross
34.0,5.0,1.0,1.0,3.0,3.0,358.9093664195388,1.0,1.0,part_1,,,,,,,,,,,,,white,cross
0.0,6.0,0.0,1.0,3.0,3.0,415.6396074686199,1.0,1.0,part_1,,,,,,,,,,,,,blue,I
0.0,6.0,0.0,1.0,1.0,1.0,361.3403518684208,1.0,1.0,part_1,,,,,,,,,,,,,blue,I
402.0,8.0,4.0,1.0,3.0,3.0,350.1822906546294,1.0,1.0,part_1,,,,,,,,,,,,,cyan,circle
176.0,3.0,3.0,0.0,4.0,4.0,399.1476404480636,2.0,1.0,part_1,,,,,,,,,,,,,magenta,square
192.0,7.0,3.0,1.0,3.0,3.0,320.4783087130636,2.0,1.0,part_1,,,,,,,,,,,,,orange,diamond
83.0,6.0,2.0,1.0,2.0,2.0,334.8672667052597,2.0,1.0,part_1,,,,,,,,,,,,,blue,I
60.0,5.0,1.0,1.0,3.0,3.0,356.3465480692684,2.0,1.0,part_1,,,,,,,,,,,,,white,cross
214.0,3.0,3.0,0.0,3.0,3.0,368.1259043514728,2.0,1.0,part_1,,,,,,,,,,,,,magenta,square
197.0,3.0,3.0,0.0,3.0,3.0,391.2103101611137,2.0,2.0,part_1,,,,,,,,,,,,,magenta,square
376.0,8.0,4.0,1.0,3.0,3.0,391.3662191480398,2.0,1.0,part_1,,,,,,,,,,,,,cyan,circle
393.0,4.0,4.0,0.0,1.0,1.0,473.2997440733015,2.0,1.0,part_1,,,,,,,,,,,,,gray,flipped triangle
193.0,3.0,3.0,0.0,4.0,4.0,428.3580225892365,2.0,1.0,part_1,,,,,,,,,,,,,magenta,square
206.0,7.0,3.0,1.0,4.0,4.0,573.2019194401801,2.0,1.0,part_1,,,,,,,,,,,,,orange,diamond
74.0,1.0,1.0,0.0,3.0,3.0,416.3568641524762,2.0,1.0,part_1,,,,,,,,,,,,,green,triangle
222.0,7.0,3.0,1.0,1.0,1.0,507.87941133603454,2.0,1.0,part_1,,,,,,,,,,,,,orange,diamond
0.0,5.0,0.0,1.0,4.0,4.0,395.9523669909686,2.0,1.0,part_1,,,,,,,,,,,,,white,cross
85.0,2.0,2.0,0.0,4.0,4.0,418.7622149474919,2.0,1.0,part_1,,,,,,,,,,,,,yellow,hexagon
39.0,5.0,1.0,1.0,1.0,1.0,453.0186776537448,2.0,1.0,part_1,,,,,,,,,,,,,white,cross
418.0,4.0,4.0,0.0,2.0,2.0,341.2058399990201,2.0,1.0,part_1,,,,,,,,,,,,,gray,flipped triangle
0.0,5.0,0.0,1.0,3.0,3.0,432.0963006466627,2.0,1.0,part_1,,,,,,,,,,,,,white,cross
70.0,1.0,1.0,0.0,4.0,4.0,556.3363959081471,2.0,1.0,part_1,,,,,,,,,,,,,green,triangle
223.0,3.0,3.0,0.0,4.0,4.0,578.0179565772414,2.0,1.0,part_1,,,,,,,,,,,,,magenta,square
109.0,6.0,2.0,1.0,1.0,1.0,411.9025289546698,2.0,1.0,part_1,,,,,,,,,,,,,blue,I
0.0,2.0,0.0,0.0,4.0,4.0,446.011365391314,2.0,1.0,part_1,,,,,,,,,,,,,yellow,hexagon
417.0,8.0,4.0,1.0,3.0,3.0,491.6207520291209,2.0,1.0,part_1,,,,,,,,,,,,,cyan,circle
103.0,6.0,2.0,1.0,2.0,2.0,425.389050040394,2.0,1.0,part_1,,,,,,,,,,,,,blue,I
404.0,8.0,4.0,1.0,1.0,1.0,435.7361113652587,2.0,1.0,part_1,,,,,,,,,,,,,cyan,circle
39.0,1.0,1.0,0.0,2.0,2.0,424.8120351694524,2.0,1.0,part_1,,,,,,,,,,,,,green,triangle
96.0,6.0,2.0,1.0,3.0,3.0,437.6366822980344,2.0,1.0,part_1,,,,,,,,,,,,,blue,I
123.0,6.0,2.0,1.0,2.0,2.0,449.5615744963288,2.0,1.0,part_1,,,,,,,,,,,,,blue,I
108.0,6.0,2.0,1.0,2.0,2.0,415.5028713867068,2.0,1.0,part_1,,,,,,,,,,,,,blue,I
0.0,4.0,0.0,0.0,3.0,3.0,382.1349749341607,2.0,1.0,part_1,,,,,,,,,,,,,gray,flipped triangle
75.0,1.0,1.0,0.0,2.0,2.0,405.8428916614502,2.0,1.0,part_1,,,,,,,,,,,,,green,triangle
74.0,1.0,1.0,0.0,1.0,1.0,427.7898729778826,2.0,1.0,part_1,,,,,,,,,,,,,green,triangle
220.0,7.0,3.0,1.0,4.0,4.0,418.3143838308751,2.0,1.0,part_1,,,,,,,,,,,,,orange,diamond
31.0,1.0,1.0,0.0,2.0,2.0,361.7800639476627,2.0,1.0,part_1,,,,,,,,,,,,,green,triangle
414.0,8.0,4.0,1.0,4.0,4.0,397.0735878683626,2.0,1.0,part_1,,,,,,,,,,,,,cyan,circle
207.0,3.0,3.0,0.0,1.0,1.0,531.5839143004268,2.0,1.0,part_1,,,,,,,,,,,,,magenta,square
70.0,5.0,1.0,1.0,4.0,4.0,745.6252363044769,2.0,1.0,part_1,,,,,,,,,,,,,white,cross
44.0,1.0,1.0,0.0,4.0,4.0,644.8682791087776,2.0,1.0,part_1,,,,,,,,,,,,,green,triangle
84.0,2.0,2.0,0.0,3.0,3.0,588.287360034883,2.0,1.0,part_1,,,,,,,,,,,,,yellow,hexagon
378.0,4.0,4.0,0.0,4.0,4.0,510.2687431499362,2.0,1.0,part_1,,,,,,,,,,,,,gray,flipped triangle
0.0,8.0,0.0,1.0,3.0,3.0,420.8928700536489,2.0,1.0,part_1,,,,,,,,,,,,,cyan,circle
214.0,7.0,3.0,1.0,3.0,3.0,410.9962116926908,2.0,1.0,part_1,,,,,,,,,,,,,orange,diamond
0.0,2.0,0.0,0.0,3.0,3.0,388.131407322362,2.0,1.0,part_1,,,,,,,,,,,,,yellow,hexagon
101.0,6.0,2.0,1.0,3.0,3.0,401.3353786431253,2.0,1.0,part_1,,,,,,,,,,,,,blue,I
109.0,6.0,2.0,1.0,2.0,2.0,379.2791019659489,2.0,1.0,part_1,,,,,,,,,,,,,blue,I
0.0,8.0,0.0,1.0,1.0,1.0,379.8892479389906,2.0,1.0,part_1,,,,,,,,,,,,,cyan,circle
186.0,7.0,3.0,1.0,2.0,2.0,403.8484168704599,2.0,1.0,part_1,,,,,,,,,,,,,orange,diamond
0.0,8.0,0.0,1.0,1.0,1.0,448.4699864406138,2.0,1.0,part_1,,,,,,,,,,,,,cyan,circle
57.0,5.0,1.0,1.0,1.0,1.0,517.4549417570233,2.0,1.0,part_1,,,,,,,,,,,,,white,cross
82.0,6.0,2.0,1.0,1.0,1.0,439.0356163494289,2.0,1.0,part_1,,,,,,,,,,,,,blue,I
0.0,4.0,0.0,0.0,4.0,4.0,427.9644081834703,2.0,1.0,part_1,,,,,,,,,,,,,gray,flipped triangle
0.0,4.0,0.0,0.0,3.0,3.0,439.1685717273503,2.0,1.0,part_1,,,,,,,,,,,,,gray,flipped triangle
121.0,6.0,2.0,1.0,2.0,2.0,418.7449007295072,2.0,1.0,part_1,,,,,,,,,,,,,blue,I
41.0,1.0,1.0,0.0,3.0,3.0,361.2721778918057,2.0,1.0,part_1,,,,,,,,,,,,,green,triangle
92.0,2.0,2.0,0.0,2.0,2.0,407.8357983380556,2.0,1.0,part_1,,,,,,,,,,,,,yellow,hexagon
42.0,1.0,1.0,0.0,3.0,3.0,429.6992577146739,2.0,1.0,part_1,,,,,,,,,,,,,green,triangle
220.0,3.0,3.0,0.0,2.0,2.0,398.6856685951352,2.0,1.0,part_1,,,,,,,,,,,,,magenta,square
0.0,1.0,0.0,0.0,1.0,1.0,318.4723199810833,2.0,1.0,part_1,,,,,,,,,,,,,green,triangle
0.0,7.0,0.0,1.0,3.0,3.0,487.6422306988388,2.0,1.0,part_1,,,,,,,,,,,,,orange,diamond
198.0,3.0,3.0,0.0,2.0,2.0,409.4736010301858,2.0,1.0,part_1,,,,,,,,,,,,,magenta,square
57.0,5.0,1.0,1.0,4.0,4.0,556.7104606889188,2.0,1.0,part_1,,,,,,,,,,,,,white,cross
92.0,6.0,2.0,1.0,3.0,3.0,399.2520910687744,2.0,1.0,part_1,,,,,,,,,,,,,blue,I
108.0,2.0,2.0,0.0,3.0,3.0,388.8654189649969,2.0,1.0,part_1,,,,,,,,,,,,,yellow,hexagon
46.0,1.0,1.0,0.0,1.0,1.0,323.7425237894058,2.0,1.0,part_1,,,,,,,,,,,,,green,triangle
0.0,3.0,0.0,0.0,1.0,1.0,402.7920654043555,2.0,1.0,part_1,,,,,,,,,,,,,magenta,square
84.0,6.0,2.0,1.0,3.0,3.0,357.5072351377457,2.0,1.0,part_1,,,,,,,,,,,,,blue,I
0.0,4.0,0.0,0.0,1.0,1.0,392.2403394244611,2.0,1.0,part_1,,,,,,,,,,,,,gray,flipped triangle
111.0,6.0,2.0,1.0,2.0,2.0,391.5406800806522,2.0,1.0,part_1,,,,,,,,,,,,,blue,I
418.0,4.0,4.0,0.0,2.0,2.0,393.7514736317098,2.0,1.0,part_1,,,,,,,,,,,,,gray,flipped triangle
96.0,2.0,2.0,0.0,2.0,2.0,326.0142845101654,2.0,1.0,part_1,,,,,,,,,,,,,yellow,hexagon
60.0,1.0,1.0,0.0,1.0,1.0,404.6221747994423,2.0,1.0,part_1,,,,,,,,,,,,,green,triangle
222.0,7.0,3.0,1.0,4.0,4.0,405.1240379922092,2.0,1.0,part_1,,,,,,,,,,,,,orange,diamond
0.0,3.0,0.0,0.0,2.0,2.0,328.0345846433192,2.0,1.0,part_1,,,,,,,,,,,,,magenta,square
0.0,2.0,0.0,0.0,1.0,1.0,305.0379627384245,2.0,1.0,part_1,,,,,,,,,,,,,yellow,hexagon
0.0,7.0,0.0,1.0,2.0,2.0,338.5224549565464,2.0,1.0,part_1,,,,,,,,,,,,,orange,diamond
213.0,3.0,3.0,0.0,1.0,1.0,351.3874406926334,2.0,1.0,part_1,,,,,,,,,,,,,magenta,square
392.0,4.0,4.0,0.0,3.0,3.0,396.6296198777854,2.0,1.0,part_1,,,,,,,,,,,,,gray,flipped triangle
189.0,3.0,3.0,0.0,1.0,1.0,329.5820369385183,2.0,1.0,part_1,,,,,,,,,,,,,magenta,square
108.0,2.0,2.0,0.0,4.0,4.0,475.6801889743656,2.0,1.0,part_1,,,,,,,,,,,,,yellow,hexagon
201.0,3.0,3.0,0.0,4.0,4.0,409.867082722485,2.0,1.0,part_1,,,,,,,,,,,,,magenta,square
30.0,5.0,1.0,1.0,2.0,2.0,375.9915803093463,2.0,1.0,part_1,,,,,,,,,,,,,white,cross
74.0,5.0,1.0,1.0,2.0,2.0,389.7963070776313,2.0,1.0,part_1,,,,,,,,,,,,,white,cross
210.0,3.0,3.0,0.0,4.0,4.0,457.2651828639209,2.0,1.0,part_1,,,,,,,,,,,,,magenta,square
376.0,4.0,4.0,0.0,1.0,1.0,355.0639450550079,2.0,1.0,part_1,,,,,,,,,,,,,gray,flipped triangle
96.0,2.0,2.0,0.0,4.0,4.0,412.0648400858044,2.0,1.0,part_1,,,,,,,,,,,,,yellow,hexagon
0.0,7.0,0.0,1.0,4.0,4.0,458.9393779169768,2.0,1.0,part_1,,,,,,,,,,,,,orange,diamond
86.0,2.0,2.0,0.0,2.0,2.0,661.1755043268204,2.0,1.0,part_1,,,,,,,,,,,,,yellow,hexagon
179.0,7.0,3.0,1.0,1.0,1.0,359.2783189378679,2.0,1.0,part_1,,,,,,,,,,,,,orange,diamond
108.0,6.0,2.0,1.0,1.0,1.0,459.8050212953239,2.0,1.0,part_1,,,,,,,,,,,,,blue,I
424.0,4.0,4.0,0.0,1.0,1.0,471.3634918443858,2.0,1.0,part_1,,,,,,,,,,,,,gray,flipped triangle
85.0,6.0,2.0,1.0,3.0,3.0,381.4107163343578,2.0,1.0,part_1,,,,,,,,,,,,,blue,I
51.0,5.0,1.0,1.0,2.0,2.0,382.0026954635978,2.0,1.0,part_1,,,,,,,,,,,,,white,cross
421.0,4.0,4.0,0.0,1.0,1.0,585.0861519575119,2.0,1.0,part_1,,,,,,,,,,,,,gray,flipped triangle
0.0,5.0,0.0,1.0,3.0,3.0,451.5968598425388,2.0,1.0,part_1,,,,,,,,,,,,,white,cross
111.0,2.0,2.0,0.0,1.0,1.0,417.9140774067491,2.0,1.0,part_1,,,,,,,,,,,,,yellow,hexagon
0.0,1.0,0.0,0.0,2.0,2.0,373.8914099521935,2.0,1.0,part_1,,,,,,,,,,,,,green,triangle
225.0,3.0,3.0,0.0,3.0,3.0,386.9317518547177,2.0,1.0,part_1,,,,,,,,,,,,,magenta,square
67.0,5.0,1.0,1.0,3.0,3.0,419.0866609569639,2.0,1.0,part_1,,,,,,,,,,,,,white,cross
79.0,6.0,2.0,1.0,1.0,1.0,420.7470619585365,2.0,1.0,part_1,,,,,,,,,,,,,blue,I
402.0,4.0,4.0,0.0,2.0,2.0,421.7279460281133,2.0,1.0,part_1,,,,,,,,,,,,,gray,flipped triangle
0.0,6.0,0.0,1.0,1.0,1.0,488.8722475152462,2.0,1.0,part_1,,,,,,,,,,,,,blue,I
57.0,1.0,1.0,0.0,2.0,2.0,467.6600194070488,3.0,1.0,part_1,,,,,,,,,,,,,green,triangle
0.0,7.0,0.0,1.0,1.0,1.0,479.2669867165386,3.0,1.0,part_1,,,,,,,,,,,,,orange,diamond
115.0,2.0,2.0,0.0,4.0,4.0,413.0465493071824,3.0,1.0,part_1,,,,,,,,,,,,,yellow,hexagon
199.0,3.0,3.0,0.0,4.0,4.0,391.3435216527432,3.0,1.0,part_1,,,,,,,,,,,,,magenta,square
114.0,2.0,2.0,0.0,2.0,2.0,369.9630214832723,3.0,1.0,part_1,,,,,,,,,,,,,yellow,hexagon
392.0,8.0,4.0,1.0,1.0,1.0,461.2167512532323,3.0,1.0,part_1,,,,,,,,,,,,,cyan,circle
179.0,3.0,3.0,0.0,3.0,3.0,325.0991040840745,3.0,1.0,part_1,,,,,,,,,,,,,magenta,square
201.0,3.0,3.0,0.0,1.0,1.0,348.5614946112036,3.0,1.0,part_1,,,,,,,,,,,,,magenta,square
108.0,2.0,2.0,0.0,3.0,3.0,370.983648346737,3.0,1.0,part_1,,,,,,,,,,,,,yellow,hexagon
31.0,1.0,1.0,0.0,4.0,4.0,418.1619919836521,3.0,1.0,part_1,,,,,,,,,,,,,green,triangle
113.0,2.0,2.0,0.0,2.0,2.0,383.594152983278,3.0,1.0,part_1,,,,,,,,,,,,,yellow,hexagon
408.0,8.0,4.0,1.0,4.0,4.0,441.599560668692,3.0,1.0,part_1,,,,,,,,,,,,,cyan,circle
424.0,8.0,4.0,1.0,2.0,2.0,576.1360882315785,3.0,1.0,part_1,,,,,,,,,,,,,cyan,circle
79.0,2.0,2.0,0.0,2.0,2.0,508.85737454518676,3.0,1.0,part_1,,,,,,,,,,,,,yellow,hexagon
205.0,3.0,3.0,0.0,3.0,3.0,387.5298486091196,3.0,1.0,part_1,,,,,,,,,,,,,magenta,square
392.0,8.0,4.0,1.0,1.0,1.0,443.6043505556881,3.0,1.0,part_1,,,,,,,,,,,,,cyan,circle
110.0,6.0,2.0,1.0,1.0,1.0,512.2316961642355,3.0,1.0,part_1,,,,,,,,,,,,,blue,I
29.0,5.0,1.0,1.0,3.0,3.0,397.5570986513048,3.0,1.0,part_1,,,,,,,,,,,,,white,cross
114.0,6.0,2.0,1.0,4.0,4.0,421.9678747467696,3.0,1.0,part_1,,,,,,,,,,,,,blue,I
31.0,5.0,1.0,1.0,4.0,4.0,398.9437683485448,3.0,1.0,part_1,,,,,,,,,,,,,white,cross
186.0,3.0,3.0,0.0,4.0,4.0,445.5244815908372,3.0,1.0,part_1,,,,,,,,,,,,,magenta,square
0.0,2.0,0.0,0.0,4.0,4.0,402.1205292083323,3.0,1.0,part_1,,,,,,,,,,,,,yellow,hexagon
31.0,5.0,1.0,1.0,1.0,1.0,459.1640171129256,3.0,1.0,part_1,,,,,,,,,,,,,white,cross
0.0,3.0,0.0,0.0,3.0,3.0,379.9532211851328,3.0,1.0,part_1,,,,,,,,,,,,,magenta,square
114.0,6.0,2.0,1.0,4.0,4.0,414.5018204580992,3.0,1.0,part_1,,,,,,,,,,,,,blue,I
0.0,1.0,0.0,0.0,1.0,1.0,415.825116680935,3.0,1.0,part_1,,,,,,,,,,,,,green,triangle
176.0,3.0,3.0,0.0,1.0,1.0,416.5468420833349,3.0,1.0,part_1,,,,,,,,,,,,,magenta,square
415.0,4.0,4.0,0.0,4.0,4.0,427.4720007088035,3.0,1.0,part_1,,,,,,,,,,,,,gray,flipped triangle
176.0,7.0,3.0,1.0,2.0,2.0,416.5104636922478,3.0,1.0,part_1,,,,,,,,,,,,,orange,diamond
0.0,5.0,0.0,1.0,4.0,4.0,359.921958995983,3.0,1.0,part_1,,,,,,,,,,,,,white,cross
0.0,2.0,0.0,0.0,2.0,2.0,418.7478846870363,3.0,1.0,part_1,,,,,,,,,,,,,yellow,hexagon
57.0,1.0,1.0,0.0,3.0,3.0,396.1215273011476,3.0,1.0,part_1,,,,,,,,,,,,,green,triangle
187.0,3.0,3.0,0.0,4.0,4.0,521.2514351587743,3.0,1.0,part_1,,,,,,,,,,,,,magenta,square
378.0,4.0,4.0,0.0,3.0,3.0,385.5057042092085,3.0,1.0,part_1,,,,,,,,,,,,,gray,flipped triangle
34.0,1.0,1.0,0.0,3.0,3.0,363.30730561167,3.0,1.0,part_1,,,,,,,,,,,,,green,triangle
0.0,4.0,0.0,0.0,3.0,3.0,374.7866416815668,3.0,1.0,part_1,,,,,,,,,,,,,gray,flipped triangle
29.0,1.0,1.0,0.0,1.0,1.0,375.3582860808819,3.0,1.0,part_1,,,,,,,,,,,,,green,triangle
44.0,5.0,1.0,1.0,3.0,3.0,388.2471674587577,3.0,1.0,part_1,,,,,,,,,,,,,white,cross
60.0,5.0,1.0,1.0,4.0,4.0,387.620473280549,3.0,1.0,part_1,,,,,,,,,,,,,white,cross
59.0,5.0,1.0,1.0,1.0,1.0,478.3150781877339,3.0,1.0,part_1,,,,,,,,,,,,,white,cross
0.0,2.0,0.0,0.0,3.0,3.0,377.6297078002244,3.0,1.0,part_1,,,,,,,,,,,,,yellow,hexagon
114.0,2.0,2.0,0.0,4.0,4.0,514.2762940376997,3.0,1.0,part_1,,,,,,,,,,,,,yellow,hexagon
386.0,4.0,4.0,0.0,1.0,1.0,401.5909796580672,3.0,1.0,part_1,,,,,,,,,,,,,gray,flipped triangle
39.0,5.0,1.0,1.0,4.0,4.0,412.0840120594948,3.0,1.0,part_1,,,,,,,,,,,,,white,cross
95.0,2.0,2.0,0.0,2.0,2.0,425.824026344344,3.0,1.0,part_1,,,,,,,,,,,,,yellow,hexagon
379.0,4.0,4.0,0.0,4.0,4.0,391.8556161224842,3.0,1.0,part_1,,,,,,,,,,,,,gray,flipped triangle
44.0,1.0,1.0,0.0,1.0,1.0,403.4033489879221,3.0,1.0,part_1,,,,,,,,,,,,,green,triangle
123.0,6.0,2.0,1.0,1.0,1.0,437.0368476957083,3.0,1.0,part_1,,,,,,,,,,,,,blue,I
35.0,5.0,1.0,1.0,3.0,3.0,427.6131740771234,3.0,1.0,part_1,,,,,,,,,,,,,white,cross
408.0,4.0,4.0,0.0,1.0,1.0,461.6585574112832,3.0,1.0,part_1,,,,,,,,,,,,,gray,flipped triangle
0.0,8.0,0.0,1.0,4.0,4.0,438.725738087669,3.0,1.0,part_1,,,,,,,,,,,,,cyan,circle
0.0,8.0,0.0,1.0,4.0,4.0,383.4248629864305,3.0,1.0,part_1,,,,,,,,,,,,,cyan,circle
186.0,7.0,3.0,1.0,3.0,3.0,395.6731487996876,3.0,1.0,part_1,,,,,,,,,,,,,orange,diamond
218.0,7.0,3.0,1.0,4.0,4.0,429.2118714656681,3.0,1.0,part_1,,,,,,,,,,,,,orange,diamond
53.0,5.0,1.0,1.0,4.0,4.0,328.1606880482286,3.0,1.0,part_1,,,,,,,,,,,,,white,cross
97.0,2.0,2.0,0.0,1.0,1.0,341.1224852316081,3.0,1.0,part_1,,,,,,,,,,,,,yellow,hexagon
94.0,6.0,2.0,1.0,1.0,1.0,399.3359769228846,3.0,1.0,part_1,,,,,,,,,,,,,blue,I
95.0,6.0,2.0,1.0,3.0,3.0,341.8126970063895,3.0,1.0,part_1,,,,,,,,,,,,,blue,I
204.0,3.0,3.0,0.0,3.0,3.0,365.2159299235791,3.0,1.0,part_1,,,,,,,,,,,,,magenta,square
383.0,4.0,4.0,0.0,2.0,2.0,477.6662616059184,3.0,1.0,part_1,,,,,,,,,,,,,gray,flipped triangle
204.0,7.0,3.0,1.0,2.0,2.0,388.3315518032759,3.0,1.0,part_1,,,,,,,,,,,,,orange,diamond
94.0,2.0,2.0,0.0,1.0,1.0,345.731986919418,3.0,1.0,part_1,,,,,,,,,,,,,yellow,hexagon
0.0,5.0,0.0,1.0,1.0,1.0,412.0935997925699,3.0,1.0,part_1,,,,,,,,,,,,,white,cross
0.0,4.0,0.0,0.0,3.0,3.0,389.7943533957004,3.0,1.0,part_1,,,,,,,,,,,,,gray,flipped triangle
421.0,8.0,4.0,1.0,1.0,1.0,345.4662400763482,3.0,1.0,part_1,,,,,,,,,,,,,cyan,circle
95.0,2.0,2.0,0.0,1.0,1.0,391.683192923665,3.0,1.0,part_1,,,,,,,,,,,,,yellow,hexagon
123.0,2.0,2.0,0.0,3.0,3.0,404.3109228368848,3.0,1.0,part_1,,,,,,,,,,,,,yellow,hexagon
70.0,5.0,1.0,1.0,2.0,2.0,415.8545029349625,3.0,1.0,part_1,,,,,,,,,,,,,white,cross
378.0,8.0,4.0,1.0,1.0,1.0,438.9525156002491,3.0,1.0,part_1,,,,,,,,,,,,,cyan,circle
181.0,3.0,3.0,0.0,2.0,2.0,473.825671011582,3.0,1.0,part_1,,,,,,,,,,,,,magenta,square
380.0,8.0,4.0,1.0,3.0,3.0,810.0967409554869,3.0,1.0,part_1,,,,,,,,,,,,,cyan,circle
210.0,7.0,3.0,1.0,2.0,2.0,440.5502318404615,3.0,1.0,part_1,,,,,,,,,,,,,orange,diamond
53.0,1.0,1.0,0.0,4.0,4.0,384.3188986647874,3.0,1.0,part_1,,,,,,,,,,,,,green,triangle
115.0,6.0,2.0,1.0,4.0,4.0,383.8320199865848,3.0,1.0,part_1,,,,,,,,,,,,,blue,I
60.0,1.0,1.0,0.0,3.0,3.0,508.3337596151978,3.0,1.0,part_1,,,,,,,,,,,,,green,triangle
50.0,5.0,1.0,1.0,2.0,2.0,487.5209510792047,3.0,1.0,part_1,,,,,,,,,,,,,white,cross
192.0,3.0,3.0,0.0,3.0,3.0,420.5075653735548,3.0,1.0,part_1,,,,,,,,,,,,,magenta,square
198.0,7.0,3.0,1.0,3.0,3.0,375.0406703911721,3.0,1.0,part_1,,,,,,,,,,,,,orange,diamond
37.0,5.0,1.0,1.0,1.0,1.0,387.5298660714179,3.0,1.0,part_1,,,,,,,,,,,,,white,cross
395.0,8.0,4.0,1.0,2.0,2.0,410.8039310667664,3.0,1.0,part_1,,,,,,,,,,,,,cyan,circle
30.0,1.0,1.0,0.0,3.0,3.0,410.0717732217163,3.0,1.0,part_1,,,,,,,,,,,,,green,triangle
59.0,5.0,1.0,1.0,4.0,4.0,412.3475290834903,3.0,1.0,part_1,,,,,,,,,,,,,white,cross
200.0,7.0,3.0,1.0,1.0,1.0,524.2555600125343,3.0,1.0,part_1,,,,,,,,,,,,,orange,diamond
186.0,3.0,3.0,0.0,1.0,1.0,379.7890329733491,3.0,1.0,part_1,,,,,,,,,,,,,magenta,square
411.0,8.0,4.0,1.0,1.0,1.0,378.983877133578,3.0,1.0,part_1,,,,,,,,,,,,,cyan,circle
67.0,1.0,1.0,0.0,3.0,3.0,367.5306569784879,3.0,1.0,part_1,,,,,,,,,,,,,green,triangle
34.0,5.0,1.0,1.0,2.0,2.0,414.2467733472585,3.0,1.0,part_1,,,,,,,,,,,,,white,cross
86.0,6.0,2.0,1.0,2.0,2.0,413.9866752084344,3.0,1.0,part_1,,,,,,,,,,,,,blue,I
0.0,3.0,0.0,0.0,1.0,1.0,416.0574576817453,3.0,1.0,part_1,,,,,,,,,,,,,magenta,square
381.0,4.0,4.0,0.0,3.0,3.0,561.9760104455054,3.0,1.0,part_1,,,,,,,,,,,,,gray,flipped triangle
0.0,3.0,0.0,0.0,3.0,3.0,404.8318422865122,3.0,1.0,part_1,,,,,,,,,,,,,magenta,square
393.0,8.0,4.0,1.0,4.0,4.0,517.8406327031553,3.0,1.0,part_1,,,,,,,,,,,,,cyan,circle
37.0,1.0,1.0,0.0,2.0,2.0,395.8380322437733,3.0,1.0,part_1,,,,,,,,,,,,,green,triangle
189.0,7.0,3.0,1.0,2.0,2.0,428.8919689133763,3.0,1.0,part_1,,,,,,,,,,,,,orange,diamond
38.0,5.0,1.0,1.0,1.0,1.0,385.4225093964487,3.0,1.0,part_1,,,,,,,,,,,,,white,cross
380.0,4.0,4.0,0.0,2.0,2.0,442.0561450533569,3.0,1.0,part_1,,,,,,,,,,,,,gray,flipped triangle
192.0,7.0,3.0,1.0,3.0,3.0,363.5752005502581,3.0,1.0,part_1,,,,,,,,,,,,,orange,diamond
423.0,4.0,4.0,0.0,1.0,1.0,330.5026632733643,3.0,1.0,part_1,,,,,,,,,,,,,gray,flipped triangle
125.0,6.0,2.0,1.0,3.0,3.0,410.5936910491436,3.0,1.0,part_1,,,,,,,,,,,,,blue,I
86.0,6.0,2.0,1.0,4.0,4.0,387.148821959272,3.0,1.0,part_1,,,,,,,,,,,,,blue,I
0.0,7.0,0.0,1.0,3.0,3.0,410.3954506572336,4.0,1.0,part_1,,,,,,,,,,,,,orange,diamond
0.0,3.0,0.0,0.0,1.0,1.0,411.8646779097616,4.0,1.0,part_1,,,,,,,,,,,,,magenta,square
218.0,3.0,3.0,0.0,4.0,4.0,604.1343261022121,4.0,1.0,part_1,,,,,,,,,,,,,magenta,square
75.0,5.0,1.0,1.0,1.0,1.0,492.5577098038047,4.0,1.0,part_1,,,,,,,,,,,,,white,cross
82.0,2.0,2.0,0.0,2.0,2.0,425.8180449251085,4.0,1.0,part_1,,,,,,,,,,,,,yellow,hexagon
420.0,8.0,4.0,1.0,3.0,3.0,358.1724183168262,4.0,1.0,part_1,,,,,,,,,,,,,cyan,circle
0.0,3.0,0.0,0.0,1.0,1.0,359.2009607236832,4.0,1.0,part_1,,,,,,,,,,,,,magenta,square
108.0,6.0,2.0,1.0,3.0,3.0,448.3986622653901,4.0,1.0,part_1,,,,,,,,,,,,,blue,I
46.0,5.0,1.0,1.0,2.0,2.0,348.0687958654016,4.0,1.0,part_1,,,,,,,,,,,,,white,cross
77.0,6.0,2.0,1.0,2.0,2.0,382.0464420132339,4.0,1.0,part_1,,,,,,,,,,,,,blue,I
77.0,2.0,2.0,0.0,3.0,3.0,405.6506466586143,4.0,1.0,part_1,,,,,,,,,,,,,yellow,hexagon
395.0,8.0,4.0,1.0,3.0,3.0,461.9584120810032,4.0,1.0,part_1,,,,,,,,,,,,,cyan,circle
218.0,7.0,3.0,1.0,1.0,1.0,339.0794068109244,4.0,1.0,part_1,,,,,,,,,,,,,orange,diamond
0.0,2.0,0.0,0.0,3.0,3.0,361.4248621743172,4.0,1.0,part_1,,,,,,,,,,,,,yellow,hexagon
0.0,6.0,0.0,1.0,2.0,2.0,452.0631129853427,4.0,1.0,part_1,,,,,,,,,,,,,blue,I
225.0,7.0,3.0,1.0,1.0,1.0,352.8665399644524,4.0,1.0,part_1,,,,,,,,,,,,,orange,diamond
404.0,4.0,4.0,0.0,3.0,3.0,420.1348912902176,4.0,1.0,part_1,,,,,,,,,,,,,gray,flipped triangle
377.0,4.0,4.0,0.0,1.0,1.0,545.0546867214143,4.0,1.0,part_1,,,,,,,,,,,,,gray,flipped triangle
202.0,7.0,3.0,1.0,3.0,3.0,419.9136819224804,4.0,1.0,part_1,,,,,,,,,,,,,orange,diamond
387.0,4.0,4.0,0.0,4.0,4.0,421.0561958607286,4.0,1.0,part_1,,,,,,,,,,,,,gray,flipped triangle
193.0,7.0,3.0,1.0,1.0,1.0,377.4119997397065,4.0,1.0,part_1,,,,,,,,,,,,,orange,diamond
395.0,4.0,4.0,0.0,4.0,4.0,411.6672200616449,4.0,1.0,part_1,,,,,,,,,,,,,gray,flipped triangle
93.0,6.0,2.0,1.0,4.0,4.0,446.3155230041593,4.0,1.0,part_1,,,,,,,,,,,,,blue,I
180.0,3.0,3.0,0.0,2.0,2.0,412.1513094287365,4.0,1.0,part_1,,,,,,,,,,,,,magenta,square
387.0,8.0,4.0,1.0,4.0,4.0,390.3249073773622,4.0,1.0,part_1,,,,,,,,,,,,,cyan,circle
112.0,6.0,2.0,1.0,4.0,4.0,356.8178338464349,4.0,1.0,part_1,,,,,,,,,,,,,blue,I
77.0,6.0,2.0,1.0,4.0,4.0,639.104386093095,4.0,1.0,part_1,,,,,,,,,,,,,blue,I
0.0,3.0,0.0,0.0,1.0,1.0,392.0480359811336,4.0,1.0,part_1,,,,,,,,,,,,,magenta,square
395.0,4.0,4.0,0.0,2.0,2.0,416.7195202317089,4.0,1.0,part_1,,,,,,,,,,,,,gray,flipped triangle
215.0,7.0,3.0,1.0,4.0,4.0,381.476623006165,4.0,1.0,part_1,,,,,,,,,,,,,orange,diamond
52.0,1.0,1.0,0.0,1.0,1.0,474.2186516523361,4.0,1.0,part_1,,,,,,,,,,,,,green,triangle
181.0,7.0,3.0,1.0,3.0,3.0,350.2239536028355,4.0,1.0,part_1,,,,,,,,,,,,,orange,diamond
0.0,8.0,0.0,1.0,2.0,2.0,372.3249540198594,4.0,1.0,part_1,,,,,,,,,,,,,cyan,circle
415.0,8.0,4.0,1.0,4.0,4.0,360.8295265585184,4.0,1.0,part_1,,,,,,,,,,,,,cyan,circle
60.0,1.0,1.0,0.0,1.0,1.0,317.0294922310859,4.0,1.0,part_1,,,,,,,,,,,,,green,triangle
44.0,1.0,1.0,0.0,4.0,4.0,408.8633006904274,4.0,1.0,part_1,,,,,,,,,,,,,green,triangle
222.0,3.0,3.0,0.0,1.0,1.0,408.7944959755987,4.0,1.0,part_1,,,,,,,,,,,,,magenta,square
187.0,7.0,3.0,1.0,2.0,2.0,375.1955763436854,4.0,1.0,part_1,,,,,,,,,,,,,orange,diamond
206.0,3.0,3.0,0.0,2.0,2.0,377.1295540500432,4.0,1.0,part_1,,,,,,,,,,,,,magenta,square
185.0,3.0,3.0,0.0,3.0,3.0,342.8555368445813,4.0,1.0,part_1,,,,,,,,,,,,,magenta,square
400.0,8.0,4.0,1.0,2.0,2.0,410.0998635403812,4.0,1.0,part_1,,,,,,,,,,,,,cyan,circle
0.0,7.0,0.0,1.0,1.0,1.0,377.0346194505691,4.0,1.0,part_1,,,,,,,,,,,,,orange,diamond
121.0,2.0,2.0,0.0,3.0,3.0,355.1945178769529,4.0,1.0,part_1,,,,,,,,,,,,,yellow,hexagon
400.0,4.0,4.0,0.0,2.0,2.0,434.1064041946083,4.0,1.0,part_1,,,,,,,,,,,,,gray,flipped triangle
423.0,8.0,4.0,1.0,1.0,1.0,413.4139122907072,4.0,1.0,part_1,,,,,,,,,,,,,cyan,circle
78.0,2.0,2.0,0.0,3.0,3.0,389.7584951482713,4.0,1.0,part_1,,,,,,,,,,,,,yellow,hexagon
77.0,2.0,2.0,0.0,4.0,4.0,370.1612732838839,4.0,1.0,part_1,,,,,,,,,,,,,yellow,hexagon
403.0,4.0,4.0,0.0,4.0,4.0,403.8547747768461,4.0,1.0,part_1,,,,,,,,,,,,,gray,flipped triangle
395.0,8.0,4.0,1.0,4.0,4.0,393.1612588930875,4.0,1.0,part_1,,,,,,,,,,,,,cyan,circle
378.0,8.0,4.0,1.0,4.0,4.0,336.7105955258012,4.0,1.0,part_1,,,,,,,,,,,,,cyan,circle
95.0,6.0,2.0,1.0,4.0,4.0,449.3051895406097,4.0,1.0,part_1,,,,,,,,,,,,,blue,I
96.0,6.0,2.0,1.0,4.0,4.0,359.5633315853774,4.0,1.0,part_1,,,,,,,,,,,,,blue,I
103.0,2.0,2.0,0.0,3.0,3.0,551.9051197916269,4.0,1.0,part_1,,,,,,,,,,,,,yellow,hexagon
206.0,7.0,3.0,1.0,2.0,2.0,429.7119525726884,4.0,1.0,part_1,,,,,,,,,,,,,orange,diamond
50.0,1.0,1.0,0.0,3.0,3.0,417.0486733783036,4.0,1.0,part_1,,,,,,,,,,,,,green,triangle
115.0,2.0,2.0,0.0,1.0,1.0,294.9376704636961,4.0,1.0,part_1,,,,,,,,,,,,,yellow,hexagon
125.0,2.0,2.0,0.0,1.0,1.0,442.7156730089336,4.0,1.0,part_1,,,,,,,,,,,,,yellow,hexagon
47.0,1.0,1.0,0.0,2.0,2.0,432.5750090647489,4.0,1.0,part_1,,,,,,,,,,,,,green,triangle
115.0,6.0,2.0,1.0,1.0,1.0,353.1864217948168,4.0,1.0,part_1,,,,,,,,,,,,,blue,I
185.0,7.0,3.0,1.0,4.0,4.0,410.0391746032983,4.0,1.0,part_1,,,,,,,,,,,,,orange,diamond
82.0,6.0,2.0,1.0,3.0,3.0,409.2934159561991,4.0,1.0,part_1,,,,,,,,,,,,,blue,I
0.0,6.0,0.0,1.0,3.0,3.0,421.087849419564,4.0,1.0,part_1,,,,,,,,,,,,,blue,I
71.0,1.0,1.0,0.0,2.0,2.0,399.7783090453595,4.0,1.0,part_1,,,,,,,,,,,,,green,triangle
386.0,8.0,4.0,1.0,2.0,2.0,400.5197985097766,4.0,1.0,part_1,,,,,,,,,,,,,cyan,circle
83.0,2.0,2.0,0.0,1.0,1.0,390.8626539632678,4.0,1.0,part_1,,,,,,,,,,,,,yellow,hexagon
28.0,1.0,1.0,0.0,2.0,2.0,401.6964100301265,4.0,1.0,part_1,,,,,,,,,,,,,green,triangle
207.0,7.0,3.0,1.0,2.0,2.0,446.9587116036564,4.0,1.0,part_1,,,,,,,,,,,,,orange,diamond
69.0,1.0,1.0,0.0,4.0,4.0,414.3528204876929,4.0,1.0,part_1,,,,,,,,,,,,,green,triangle
204.0,3.0,3.0,0.0,1.0,1.0,358.14836085774,4.0,1.0,part_1,,,,,,,,,,,,,magenta,square
70.0,1.0,1.0,0.0,1.0,1.0,550.3592879977077,4.0,1.0,part_1,,,,,,,,,,,,,green,triangle
60.0,5.0,1.0,1.0,4.0,4.0,450.4493796266615,4.0,1.0,part_1,,,,,,,,,,,,,white,cross
200.0,3.0,3.0,0.0,2.0,2.0,528.4571703523397,4.0,1.0,part_1,,,,,,,,,,,,,magenta,square
0.0,6.0,0.0,1.0,3.0,3.0,472.2390458919108,4.0,1.0,part_1,,,,,,,,,,,,,blue,I
0.0,8.0,0.0,1.0,4.0,4.0,372.2322324756533,4.0,1.0,part_1,,,,,,,,,,,,,cyan,circle
0.0,3.0,0.0,0.0,2.0,2.0,462.7198132220655,4.0,1.0,part_1,,,,,,,,,,,,,magenta,square
222.0,3.0,3.0,0.0,3.0,3.0,439.9169767275452,4.0,1.0,part_1,,,,,,,,,,,,,magenta,square
413.0,4.0,4.0,0.0,3.0,3.0,474.5331383310258,4.0,1.0,part_1,,,,,,,,,,,,,gray,flipped triangle
424.0,8.0,4.0,1.0,4.0,4.0,431.9888052996248,4.0,1.0,part_1,,,,,,,,,,,,,cyan,circle
41.0,5.0,1.0,1.0,3.0,3.0,443.433606531471,4.0,1.0,part_1,,,,,,,,,,,,,white,cross
69.0,5.0,1.0,1.0,3.0,3.0,622.8221438359469,4.0,1.0,part_1,,,,,,,,,,,,,white,cross
392.0,4.0,4.0,0.0,1.0,1.0,625.4025821108371,4.0,1.0,part_1,,,,,,,,,,,,,gray,flipped triangle
0.0,5.0,0.0,1.0,2.0,2.0,490.9946387633681,4.0,1.0,part_1,,,,,,,,,,,,,white,cross
413.0,8.0,4.0,1.0,2.0,2.0,907.7866668812932,4.0,1.0,part_1,,,,,,,,,,,,,cyan,circle
0.0,6.0,0.0,1.0,1.0,1.0,693.6842710711062,4.0,1.0,part_1,,,,,,,,,,,,,blue,I
385.0,4.0,4.0,0.0,2.0,2.0,570.9202270954847,4.0,1.0,part_1,,,,,,,,,,,,,gray,flipped triangle
201.0,7.0,3.0,1.0,4.0,4.0,356.8734277505427,4.0,1.0,part_1,,,,,,,,,,,,,orange,diamond
93.0,2.0,2.0,0.0,3.0,3.0,583.2025953568518,4.0,1.0,part_1,,,,,,,,,,,,,yellow,hexagon
202.0,3.0,3.0,0.0,2.0,2.0,436.6905225906521,4.0,1.0,part_1,,,,,,,,,,,,,magenta,square
414.0,8.0,4.0,1.0,2.0,2.0,357.9307480249554,4.0,1.0,part_1,,,,,,,,,,,,,cyan,circle
0.0,8.0,0.0,1.0,1.0,1.0,302.28514643386,4.0,1.0,part_1,,,,,,,,,,,,,cyan,circle
0.0,2.0,0.0,0.0,2.0,2.0,405.493828933686,4.0,1.0,part_1,,,,,,,,,,,,,yellow,hexagon
0.0,6.0,0.0,1.0,1.0,1.0,371.3660957291722,4.0,1.0,part_1,,,,,,,,,,,,,blue,I
0.0,8.0,0.0,1.0,4.0,4.0,371.8009528238326,4.0,1.0,part_1,,,,,,,,,,,,,cyan,circle
46.0,1.0,1.0,0.0,3.0,3.0,439.3602525815367,4.0,1.0,part_1,,,,,,,,,,,,,green,triangle
0.0,4.0,0.0,0.0,2.0,2.0,394.5535644888878,4.0,1.0,part_1,,,,,,,,,,,,,gray,flipped triangle
44.0,5.0,1.0,1.0,4.0,4.0,531.0564949177206,4.0,1.0,part_1,,,,,,,,,,,,,white,cross
86.0,2.0,2.0,0.0,2.0,2.0,634.0386623051018,4.0,1.0,part_1,,,,,,,,,,,,,yellow,hexagon
377.0,8.0,4.0,1.0,1.0,1.0,419.6506813168525,4.0,1.0,part_1,,,,,,,,,,,,,cyan,circle
0.0,5.0,0.0,1.0,2.0,2.0,421.5908439364284,4.0,1.0,part_1,,,,,,,,,,,,,white,cross
383.0,8.0,4.0,1.0,1.0,1.0,375.0564632937312,4.0,1.0,part_1,,,,,,,,,,,,,cyan,circle
0.0,2.0,2.0,0.0,6.0,6.0,578.7832352798432,1.0,0.0,part_2,go,250.0,250.0,1.0,,,,,,,,,yellow,hexagon
0.0,7.0,3.0,1.0,5.0,5.0,569.0157182980329,1.0,0.0,part_2,go,250.0,250.0,1.0,,,,,,,,,orange,diamond
0.0,3.0,3.0,0.0,6.0,6.0,557.428689673543,1.0,0.0,part_2,go,250.0,250.0,1.0,,,,,,,,,magenta,square
0.0,5.0,1.0,1.0,6.0,6.0,639.5253883674741,1.0,0.0,part_2,stop,250.0,250.0,3.0,,,,,,,,,white,cross
0.0,5.0,1.0,1.0,6.0,6.0,706.3583973795176,1.0,0.0,part_2,go,250.0,200.0,1.0,,,,,,,,,white,cross
0.0,1.0,1.0,0.0,5.0,5.0,403.4715068992227,1.0,0.0,part_2,go,250.0,200.0,1.0,,,,,,,,,green,triangle
0.0,7.0,3.0,1.0,6.0,6.0,347.3337129689753,1.0,0.0,part_2,stop,250.0,200.0,3.0,,,,,,,,,orange,diamond
0.0,1.0,1.0,0.0,5.0,5.0,338.3548115380108,1.0,0.0,part_2,go,250.0,150.0,1.0,,,,,,,,,green,triangle
0.0,1.0,1.0,0.0,5.0,5.0,575.5322107579559,1.0,0.0,part_2,go,250.0,150.0,1.0,,,,,,,,,green,triangle
0.0,1.0,1.0,0.0,5.0,5.0,610.2658265735954,1.0,0.0,part_2,go,250.0,150.0,1.0,,,,,,,,,green,triangle
0.0,7.0,3.0,1.0,5.0,5.0,553.598289610818,1.0,0.0,part_2,go,250.0,150.0,1.0,,,,,,,,,orange,diamond
0.0,4.0,4.0,0.0,6.0,6.0,464.6547718439251,1.0,0.0,part_2,go,250.0,150.0,1.0,,,,,,,,,gray,flipped triangle
0.0,2.0,2.0,0.0,5.0,5.0,352.8657215647399,1.0,0.0,part_2,go,250.0,150.0,1.0,,,,,,,,,yellow,hexagon
0.0,3.0,3.0,0.0,5.0,5.0,645.3242774587125,1.0,0.0,part_2,go,250.0,150.0,1.0,,,,,,,,,magenta,square
0.0,3.0,3.0,0.0,5.0,5.0,534.4788427464664,1.0,0.0,part_2,go,250.0,150.0,1.0,,,,,,,,,magenta,square
0.0,6.0,2.0,1.0,6.0,0.0,0.0,1.0,0.0,part_2,stop,250.0,150.0,4.0,,,,,,,,,blue,I
0.0,8.0,4.0,1.0,5.0,5.0,446.3661443442106,1.0,0.0,part_2,go,250.0,200.0,1.0,,,,,,,,,cyan,circle
0.0,3.0,3.0,0.0,6.0,6.0,560.5815267190337,1.0,0.0,part_2,go,250.0,200.0,1.0,,,,,,,,,magenta,square
0.0,6.0,2.0,1.0,6.0,6.0,571.4222830720246,1.0,0.0,part_2,go,250.0,200.0,1.0,,,,,,,,,blue,I
0.0,8.0,4.0,1.0,5.0,5.0,506.19304296560585,1.0,0.0,part_2,go,250.0,200.0,1.0,,,,,,,,,cyan,circle
0.0,7.0,3.0,1.0,6.0,6.0,381.5477965399623,1.0,0.0,part_2,stop,250.0,200.0,3.0,,,,,,,,,orange,diamond
0.0,6.0,2.0,1.0,5.0,0.0,0.0,1.0,0.0,part_2,stop,250.0,150.0,4.0,,,,,,,,,blue,I
0.0,8.0,4.0,1.0,6.0,0.0,0.0,1.0,0.0,part_2,stop,300.0,150.0,4.0,,,,,,,,,cyan,circle
0.0,3.0,3.0,0.0,6.0,6.0,374.6076633688062,1.0,0.0,part_2,go,300.0,200.0,1.0,,,,,,,,,magenta,square
0.0,6.0,2.0,1.0,5.0,5.0,474.6982627548277,1.0,0.0,part_2,go,300.0,200.0,1.0,,,,,,,,,blue,I
0.0,6.0,2.0,1.0,6.0,6.0,522.0084127504379,1.0,0.0,part_2,go,300.0,200.0,1.0,,,,,,,,,blue,I
0.0,1.0,1.0,0.0,6.0,6.0,534.6520966850221,1.0,0.0,part_2,go,300.0,200.0,1.0,,,,,,,,,green,triangle
0.0,2.0,2.0,0.0,5.0,5.0,433.908212929964,1.0,0.0,part_2,go,300.0,200.0,1.0,,,,,,,,,yellow,hexagon
0.0,2.0,2.0,0.0,5.0,5.0,400.6996545940637,1.0,0.0,part_2,go,300.0,200.0,1.0,,,,,,,,,yellow,hexagon
0.0,4.0,4.0,0.0,5.0,5.0,479.4143543113023,1.0,0.0,part_2,go,300.0,200.0,1.0,,,,,,,,,gray,flipped triangle
0.0,7.0,3.0,1.0,6.0,0.0,0.0,1.0,0.0,part_2,stop,300.0,200.0,4.0,,,,,,,,,orange,diamond
0.0,3.0,3.0,0.0,6.0,6.0,515.5934409704059,1.0,0.0,part_2,go,300.0,250.0,1.0,,,,,,,,,magenta,square
0.0,1.0,1.0,0.0,5.0,5.0,402.844597119838,1.0,0.0,part_2,go,300.0,250.0,1.0,,,,,,,,,green,triangle
0.0,4.0,4.0,0.0,6.0,6.0,381.7230225540697,1.0,0.0,part_2,go,300.0,250.0,1.0,,,,,,,,,gray,flipped triangle
0.0,5.0,1.0,1.0,5.0,5.0,449.8409535735845,1.0,0.0,part_2,stop,300.0,250.0,3.0,,,,,,,,,white,cross
0.0,5.0,1.0,1.0,6.0,0.0,0.0,1.0,0.0,part_2,stop,250.0,250.0,4.0,,,,,,,,,white,cross
0.0,8.0,4.0,1.0,6.0,6.0,601.7108834348619,2.0,0.0,part_2,stop,250.0,300.0,3.0,,,,,,,,,cyan,circle
0.0,2.0,2.0,0.0,6.0,6.0,523.5117543488741,2.0,0.0,part_2,go,250.0,250.0,1.0,,,,,,,,,yellow,hexagon
0.0,6.0,2.0,1.0,5.0,5.0,376.815385883674,2.0,0.0,part_2,stop,250.0,250.0,3.0,,,,,,,,,blue,I
0.0,2.0,2.0,0.0,5.0,5.0,593.4364779386669,2.0,0.0,part_2,go,200.0,250.0,1.0,,,,,,,,,yellow,hexagon
0.0,6.0,2.0,1.0,6.0,0.0,0.0,2.0,0.0,part_2,stop,200.0,250.0,4.0,,,,,,,,,blue,I
0.0,1.0,1.0,0.0,5.0,5.0,593.6130625195801,2.0,0.0,part_2,go,200.0,300.0,1.0,,,,,,,,,green,triangle
0.0,8.0,4.0,1.0,5.0,5.0,572.2764846868813,2.0,0.0,part_2,go,200.0,300.0,1.0,,,,,,,,,cyan,circle
0.0,3.0,3.0,0.0,5.0,5.0,370.5069532152265,2.0,0.0,part_2,go,200.0,300.0,1.0,,,,,,,,,magenta,square
0.0,2.0,2.0,0.0,6.0,6.0,416.3681427016854,2.0,0.0,part_2,go,200.0,300.0,1.0,,,,,,,,,yellow,hexagon
0.0,7.0,3.0,1.0,5.0,0.0,0.0,2.0,0.0,part_2,stop,200.0,300.0,4.0,,,,,,,,,orange,diamond
0.0,7.0,3.0,1.0,5.0,5.0,428.2775076571852,2.0,0.0,part_2,stop,250.0,300.0,3.0,,,,,,,,,orange,diamond
0.0,2.0,2.0,0.0,6.0,6.0,508.4956339560449,2.0,0.0,part_2,go,200.0,300.0,1.0,,,,,,,,,yellow,hexagon
0.0,6.0,2.0,1.0,6.0,0.0,0.0,2.0,0.0,part_2,stop,200.0,300.0,4.0,,,,,,,,,blue,I
0.0,8.0,4.0,1.0,5.0,0.0,0.0,2.0,0.0,part_2,stop,200.0,350.0,4.0,,,,,,,,,cyan,circle
0.0,4.0,4.0,0.0,5.0,5.0,388.5770216584205,2.0,0.0,part_2,go,250.0,350.0,1.0,,,,,,,,,gray,flipped triangle
0.0,5.0,1.0,1.0,6.0,6.0,365.202457178384,2.0,0.0,part_2,stop,250.0,350.0,3.0,,,,,,,,,white,cross
0.0,4.0,4.0,0.0,5.0,5.0,592.5300989765674,2.0,0.0,part_2,go,250.0,300.0,1.0,,,,,,,,,gray,flipped triangle
0.0,3.0,3.0,0.0,6.0,6.0,378.7104454822838,2.0,0.0,part_2,go,250.0,300.0,1.0,,,,,,,,,magenta,square
0.0,4.0,4.0,0.0,5.0,5.0,448.3390734530985,2.0,0.0,part_2,go,250.0,300.0,1.0,,,,,,,,,gray,flipped triangle
0.0,4.0,4.0,0.0,6.0,6.0,323.2492834795266,2.0,0.0,part_2,go,250.0,300.0,1.0,,,,,,,,,gray,flipped triangle
0.0,2.0,2.0,0.0,5.0,5.0,324.780422495678,2.0,0.0,part_2,go,250.0,300.0,1.0,,,,,,,,,yellow,hexagon
0.0,5.0,1.0,1.0,6.0,0.0,0.0,2.0,0.0,part_2,stop,250.0,300.0,4.0,,,,,,,,,white,cross
0.0,7.0,3.0,1.0,6.0,0.0,0.0,2.0,0.0,part_2,stop,250.0,350.0,4.0,,,,,,,,,orange,diamond
0.0,3.0,3.0,0.0,5.0,5.0,361.7948461323976,2.0,0.0,part_2,go,250.0,400.0,1.0,,,,,,,,,magenta,square
0.0,6.0,2.0,1.0,6.0,0.0,0.0,2.0,0.0,part_2,stop,250.0,400.0,4.0,,,,,,,,,blue,I
0.0,8.0,4.0,1.0,5.0,5.0,542.2803331166506,2.0,0.0,part_2,go,250.0,450.0,1.0,,,,,,,,,cyan,circle
0.0,6.0,2.0,1.0,6.0,6.0,419.7781360708177,2.0,0.0,part_2,stop,250.0,450.0,3.0,,,,,,,,,blue,I
0.0,2.0,2.0,0.0,6.0,6.0,566.6017767507583,2.0,0.0,part_2,go,250.0,400.0,1.0,,,,,,,,,yellow,hexagon
0.0,7.0,3.0,1.0,5.0,0.0,0.0,2.0,0.0,part_2,stop,250.0,400.0,4.0,,,,,,,,,orange,diamond
0.0,8.0,4.0,1.0,5.0,0.0,0.0,2.0,0.0,part_2,stop,300.0,400.0,4.0,,,,,,,,,cyan,circle
0.0,4.0,4.0,0.0,6.0,6.0,422.9749364312738,2.0,0.0,part_2,go,350.0,400.0,1.0,,,,,,,,,gray,flipped triangle
0.0,1.0,1.0,0.0,5.0,5.0,480.6736274622381,2.0,0.0,part_2,go,350.0,400.0,1.0,,,,,,,,,green,triangle
0.0,5.0,1.0,1.0,5.0,0.0,0.0,2.0,0.0,part_2,stop,350.0,400.0,4.0,,,,,,,,,white,cross
0.0,8.0,4.0,1.0,6.0,6.0,616.3029316812754,2.0,0.0,part_2,go,400.0,400.0,1.0,,,,,,,,,cyan,circle
0.0,1.0,1.0,0.0,6.0,6.0,449.3819265626371,2.0,0.0,part_2,go,400.0,400.0,1.0,,,,,,,,,green,triangle
0.0,1.0,1.0,0.0,6.0,6.0,405.3526907227933,2.0,0.0,part_2,go,400.0,400.0,1.0,,,,,,,,,green,triangle
0.0,8.0,4.0,1.0,5.0,0.0,0.0,3.0,0.0,part_2,stop,400.0,400.0,4.0,,,,,,,,,cyan,circle
0.0,7.0,3.0,1.0,5.0,5.0,533.701179549098,3.0,0.0,part_2,stop,450.0,400.0,3.0,,,,,,,,,orange,diamond
0.0,1.0,1.0,0.0,6.0,6.0,420.514796860516,3.0,0.0,part_2,go,400.0,400.0,1.0,,,,,,,,,green,triangle
0.0,2.0,2.0,0.0,6.0,6.0,421.702284598723,3.0,0.0,part_2,go,400.0,400.0,1.0,,,,,,,,,yellow,hexagon
0.0,7.0,3.0,1.0,6.0,6.0,421.9351136125624,3.0,0.0,part_2,stop,400.0,400.0,3.0,,,,,,,,,orange,diamond
0.0,8.0,4.0,1.0,5.0,5.0,412.7191237639636,3.0,0.0,part_2,go,400.0,350.0,1.0,,,,,,,,,cyan,circle
0.0,8.0,4.0,1.0,6.0,6.0,481.5894949715584,3.0,0.0,part_2,stop,400.0,350.0,3.0,,,,,,,,,cyan,circle
0.0,7.0,3.0,1.0,6.0,0.0,0.0,3.0,0.0,part_2,stop,400.0,300.0,4.0,,,,,,,,,orange,diamond
0.0,2.0,2.0,0.0,5.0,5.0,391.7217813432216,3.0,0.0,part_2,go,400.0,350.0,1.0,,,,,,,,,yellow,hexagon
0.0,4.0,4.0,0.0,5.0,5.0,403.6289236973971,3.0,0.0,part_2,go,400.0,350.0,1.0,,,,,,,,,gray,flipped triangle
0.0,5.0,1.0,1.0,5.0,5.0,462.2994179371744,3.0,0.0,part_2,stop,400.0,350.0,3.0,,,,,,,,,white,cross
0.0,8.0,4.0,1.0,5.0,0.0,0.0,3.0,0.0,part_2,stop,350.0,350.0,4.0,,,,,,,,,cyan,circle
0.0,2.0,2.0,0.0,6.0,6.0,395.0598044320941,3.0,0.0,part_2,go,400.0,350.0,1.0,,,,,,,,,yellow,hexagon
0.0,1.0,1.0,0.0,6.0,6.0,451.8588928040117,3.0,0.0,part_2,go,400.0,350.0,1.0,,,,,,,,,green,triangle
0.0,7.0,3.0,1.0,5.0,5.0,543.7907483428717,3.0,0.0,part_2,stop,400.0,350.0,3.0,,,,,,,,,orange,diamond
0.0,2.0,2.0,0.0,6.0,6.0,464.8296961095184,3.0,0.0,part_2,go,350.0,350.0,1.0,,,,,,,,,yellow,hexagon
0.0,4.0,4.0,0.0,6.0,6.0,782.1806503925472,3.0,0.0,part_2,go,350.0,350.0,1.0,,,,,,,,,gray,flipped triangle
0.0,3.0,3.0,0.0,6.0,6.0,387.6086245290935,3.0,0.0,part_2,go,350.0,350.0,1.0,,,,,,,,,magenta,square
0.0,2.0,2.0,0.0,5.0,5.0,456.7158026620745,3.0,0.0,part_2,go,350.0,350.0,1.0,,,,,,,,,yellow,hexagon
0.0,6.0,2.0,1.0,6.0,0.0,0.0,3.0,0.0,part_2,stop,350.0,350.0,4.0,,,,,,,,,blue,I
0.0,3.0,3.0,0.0,6.0,6.0,660.449902061373,3.0,0.0,part_2,go,350.0,400.0,1.0,,,,,,,,,magenta,square
0.0,2.0,2.0,0.0,6.0,6.0,593.7952895183116,3.0,0.0,part_2,go,350.0,400.0,1.0,,,,,,,,,yellow,hexagon
0.0,7.0,3.0,1.0,6.0,6.0,438.1841078866273,3.0,0.0,part_2,stop,350.0,400.0,3.0,,,,,,,,,orange,diamond
0.0,6.0,2.0,1.0,5.0,5.0,404.5829314272851,3.0,0.0,part_2,stop,350.0,350.0,3.0,,,,,,,,,blue,I
0.0,5.0,1.0,1.0,5.0,5.0,564.0255827456713,3.0,0.0,part_2,go,300.0,350.0,1.0,,,,,,,,,white,cross
0.0,7.0,3.0,1.0,6.0,6.0,338.1403936073184,3.0,0.0,part_2,go,300.0,350.0,1.0,,,,,,,,,orange,diamond
0.0,4.0,4.0,0.0,6.0,6.0,430.3822126239538,3.0,0.0,part_2,go,300.0,350.0,1.0,,,,,,,,,gray,flipped triangle
0.0,2.0,2.0,0.0,5.0,5.0,519.6956756990403,3.0,0.0,part_2,go,300.0,350.0,1.0,,,,,,,,,yellow,hexagon
0.0,3.0,3.0,0.0,5.0,5.0,510.098118102178,3.0,0.0,part_2,go,300.0,350.0,1.0,,,,,,,,,magenta,square
0.0,8.0,4.0,1.0,5.0,5.0,444.1460275556892,3.0,0.0,part_2,stop,300.0,350.0,3.0,,,,,,,,,cyan,circle
0.0,5.0,1.0,1.0,5.0,5.0,499.9485386069864,3.0,0.0,part_2,go,250.0,350.0,1.0,,,,,,,,,white,cross
0.0,3.0,3.0,0.0,5.0,5.0,467.4970107153058,3.0,0.0,part_2,go,250.0,350.0,1.0,,,,,,,,,magenta,square
0.0,4.0,4.0,0.0,5.0,5.0,524.1768897976726,3.0,0.0,part_2,go,250.0,350.0,1.0,,,,,,,,,gray,flipped triangle
0.0,3.0,3.0,0.0,6.0,6.0,716.8767859693617,3.0,0.0,part_2,go,250.0,350.0,1.0,,,,,,,,,magenta,square
0.0,4.0,4.0,0.0,5.0,5.0,718.7858996912837,3.0,0.0,part_2,go,250.0,350.0,1.0,,,,,,,,,gray,flipped triangle
0.0,1.0,1.0,0.0,5.0,5.0,447.8479565586895,3.0,0.0,part_2,go,250.0,350.0,1.0,,,,,,,,,green,triangle
0.0,2.0,2.0,0.0,5.0,5.0,407.7709966804832,4.0,0.0,part_2,go,250.0,350.0,1.0,,,,,,,,,yellow,hexagon
0.0,4.0,4.0,0.0,5.0,5.0,440.1777344755828,4.0,0.0,part_2,go,250.0,350.0,1.0,,,,,,,,,gray,flipped triangle
0.0,6.0,2.0,1.0,5.0,5.0,362.2932774014771,4.0,0.0,part_2,stop,250.0,350.0,3.0,,,,,,,,,blue,I
0.0,1.0,1.0,0.0,6.0,6.0,342.3285454045981,4.0,0.0,part_2,go,200.0,350.0,1.0,,,,,,,,,green,triangle
0.0,7.0,3.0,1.0,5.0,0.0,0.0,4.0,0.0,part_2,stop,200.0,350.0,4.0,,,,,,,,,orange,diamond
0.0,7.0,3.0,1.0,6.0,6.0,545.0338108930737,4.0,0.0,part_2,stop,250.0,350.0,3.0,,,,,,,,,orange,diamond
0.0,7.0,3.0,1.0,5.0,5.0,592.6382183097303,4.0,0.0,part_2,go,250.0,300.0,1.0,,,,,,,,,orange,diamond
0.0,5.0,1.0,1.0,6.0,6.0,402.4849436245858,4.0,0.0,part_2,stop,250.0,300.0,3.0,,,,,,,,,white,cross
0.0,7.0,3.0,1.0,5.0,5.0,369.3435885943472,4.0,0.0,part_2,stop,250.0,250.0,3.0,,,,,,,,,orange,diamond
0.0,6.0,2.0,1.0,6.0,0.0,0.0,4.0,0.0,part_2,stop,200.0,250.0,4.0,,,,,,,,,blue,I
0.0,4.0,4.0,0.0,6.0,6.0,392.2355442773551,4.0,0.0,part_2,go,200.0,300.0,1.0,,,,,,,,,gray,flipped triangle
0.0,2.0,2.0,0.0,6.0,6.0,415.5312683433294,4.0,0.0,part_2,go,200.0,300.0,1.0,,,,,,,,,yellow,hexagon
0.0,4.0,4.0,0.0,5.0,5.0,372.1329963300377,4.0,0.0,part_2,go,200.0,300.0,1.0,,,,,,,,,gray,flipped triangle
0.0,4.0,4.0,0.0,5.0,5.0,439.6151110995561,4.0,0.0,part_2,go,200.0,300.0,1.0,,,,,,,,,gray,flipped triangle
0.0,4.0,4.0,0.0,6.0,6.0,452.0040198694914,4.0,0.0,part_2,go,200.0,300.0,1.0,,,,,,,,,gray,flipped triangle
0.0,7.0,3.0,1.0,6.0,0.0,0.0,4.0,0.0,part_2,stop,200.0,300.0,4.0,,,,,,,,,orange,diamond
0.0,4.0,4.0,0.0,6.0,6.0,476.9533497747034,4.0,0.0,part_2,go,200.0,350.0,1.0,,,,,,,,,gray,flipped triangle
0.0,3.0,3.0,0.0,6.0,6.0,386.5177126135677,4.0,0.0,part_2,go,200.0,350.0,1.0,,,,,,,,,magenta,square
0.0,8.0,4.0,1.0,6.0,6.0,422.8835951071232,4.0,0.0,part_2,stop,200.0,350.0,3.0,,,,,,,,,cyan,circle
0.0,2.0,2.0,0.0,5.0,5.0,376.5284065157175,4.0,0.0,part_2,go,200.0,300.0,1.0,,,,,,,,,yellow,hexagon
0.0,2.0,2.0,0.0,5.0,5.0,445.1180356554687,4.0,0.0,part_2,go,200.0,300.0,1.0,,,,,,,,,yellow,hexagon
0.0,2.0,2.0,0.0,6.0,6.0,492.6820220425725,4.0,0.0,part_2,go,200.0,300.0,1.0,,,,,,,,,yellow,hexagon
0.0,3.0,3.0,0.0,5.0,5.0,660.5670617427677,4.0,0.0,part_2,go,200.0,300.0,1.0,,,,,,,,,magenta,square
0.0,1.0,1.0,0.0,5.0,5.0,381.250882986933,4.0,0.0,part_2,go,200.0,300.0,1.0,,,,,,,,,green,triangle
0.0,3.0,3.0,0.0,5.0,5.0,359.249485656619,4.0,0.0,part_2,go,200.0,300.0,1.0,,,,,,,,,magenta,square
0.0,5.0,1.0,1.0,5.0,0.0,0.0,4.0,0.0,part_2,stop,200.0,300.0,4.0,,,,,,,,,white,cross
0.0,3.0,3.0,0.0,6.0,6.0,360.7700497377664,4.0,0.0,part_2,go,250.0,300.0,1.0,,,,,,,,,magenta,square
0.0,5.0,1.0,1.0,5.0,5.0,384.7811236046254,4.0,0.0,part_2,go,250.0,300.0,1.0,,,,,,,,,white,cross
0.0,5.0,1.0,1.0,5.0,5.0,419.6531197521835,4.0,0.0,part_2,stop,250.0,300.0,3.0,,,,,,,,,white,cross
0.0,6.0,2.0,1.0,5.0,0.0,0.0,4.0,0.0,part_2,stop,200.0,300.0,4.0,,,,,,,,,blue,I
0.0,7.0,3.0,1.0,5.0,5.0,667.7766228094697,4.0,0.0,part_2,go,250.0,300.0,1.0,,,,,,,,,orange,diamond
0.0,5.0,1.0,1.0,5.0,0.0,0.0,4.0,0.0,part_2,stop,250.0,300.0,4.0,,,,,,,,,white,cross
0.0,6.0,2.0,1.0,5.0,5.0,522.7107664104551,4.0,0.0,part_2,go,300.0,300.0,1.0,,,,,,,,,blue,I
0.0,3.0,3.0,0.0,5.0,5.0,388.2129488047212,4.0,0.0,part_2,go,300.0,300.0,1.0,,,,,,,,,magenta,square
0.0,2.0,2.0,0.0,5.0,5.0,377.87766312249,4.0,0.0,part_2,go,300.0,300.0,1.0,,,,,,,,,yellow,hexagon
0.0,5.0,1.0,1.0,6.0,6.0,346.4068190660327,4.0,0.0,part_2,stop,300.0,300.0,3.0,,,,,,,,,white,cross
0.0,8.0,4.0,1.0,5.0,5.0,396.670012967661,5.0,0.0,part_2,go,300.0,250.0,1.0,,,,,,,,,cyan,circle
0.0,3.0,3.0,0.0,5.0,5.0,408.6287855170667,5.0,0.0,part_2,go,300.0,250.0,1.0,,,,,,,,,magenta,square
0.0,4.0,4.0,0.0,5.0,5.0,351.9037954974919,5.0,0.0,part_2,go,300.0,250.0,1.0,,,,,,,,,gray,flipped triangle
0.0,6.0,2.0,1.0,5.0,5.0,331.3165579456836,5.0,0.0,part_2,go,300.0,250.0,1.0,,,,,,,,,blue,I
0.0,8.0,4.0,1.0,6.0,6.0,422.142683295533,5.0,0.0,part_2,stop,300.0,250.0,3.0,,,,,,,,,cyan,circle
0.0,7.0,3.0,1.0,6.0,6.0,490.2281607501209,5.0,0.0,part_2,go,300.0,200.0,1.0,,,,,,,,,orange,diamond
0.0,8.0,4.0,1.0,6.0,0.0,0.0,5.0,0.0,part_2,stop,300.0,200.0,4.0,,,,,,,,,cyan,circle
0.0,1.0,1.0,0.0,5.0,5.0,366.9546875171363,5.0,0.0,part_2,go,300.0,250.0,1.0,,,,,,,,,green,triangle
0.0,3.0,3.0,0.0,6.0,6.0,435.7289022300392,5.0,0.0,part_2,go,300.0,250.0,1.0,,,,,,,,,magenta,square
0.0,4.0,4.0,0.0,6.0,6.0,469.8981230612844,5.0,0.0,part_2,go,300.0,250.0,1.0,,,,,,,,,gray,flipped triangle
0.0,8.0,4.0,1.0,6.0,0.0,0.0,5.0,0.0,part_2,stop,300.0,250.0,4.0,,,,,,,,,cyan,circle
0.0,4.0,4.0,0.0,5.0,5.0,483.7808485608548,5.0,0.0,part_2,go,300.0,300.0,1.0,,,,,,,,,gray,flipped triangle
0.0,1.0,1.0,0.0,6.0,6.0,552.6997307315469,5.0,0.0,part_2,go,300.0,300.0,1.0,,,,,,,,,green,triangle
0.0,4.0,4.0,0.0,6.0,6.0,452.225404093042,5.0,0.0,part_2,go,300.0,300.0,1.0,,,,,,,,,gray,flipped triangle
0.0,1.0,1.0,0.0,6.0,6.0,406.3554350286722,5.0,0.0,part_2,go,300.0,300.0,1.0,,,,,,,,,green,triangle
0.0,2.0,2.0,0.0,5.0,5.0,463.909137295559,5.0,0.0,part_2,go,300.0,300.0,1.0,,,,,,,,,yellow,hexagon
0.0,6.0,2.0,1.0,6.0,6.0,419.6593158412725,5.0,0.0,part_2,go,300.0,300.0,1.0,,,,,,,,,blue,I
0.0,6.0,2.0,1.0,6.0,6.0,455.389421666041,5.0,0.0,part_2,stop,300.0,300.0,3.0,,,,,,,,,blue,I
0.0,2.0,2.0,0.0,5.0,5.0,590.1255300268531,5.0,0.0,part_2,go,300.0,250.0,1.0,,,,,,,,,yellow,hexagon
0.0,4.0,4.0,0.0,6.0,6.0,478.8273849990219,5.0,0.0,part_2,go,300.0,250.0,1.0,,,,,,,,,gray,flipped triangle
0.0,8.0,4.0,1.0,5.0,0.0,0.0,5.0,0.0,part_2,stop,300.0,250.0,4.0,,,,,,,,,cyan,circle
0.0,1.0,1.0,0.0,6.0,6.0,458.5312507115304,5.0,0.0,part_2,go,350.0,250.0,1.0,,,,,,,,,green,triangle
0.0,5.0,1.0,1.0,6.0,6.0,480.6029889732599,5.0,0.0,part_2,go,350.0,250.0,1.0,,,,,,,,,white,cross
0.0,7.0,3.0,1.0,6.0,0.0,0.0,5.0,0.0,part_2,stop,350.0,250.0,4.0,,,,,,,,,orange,diamond
0.0,7.0,3.0,1.0,6.0,6.0,651.6417262610048,5.0,0.0,part_2,go,350.0,300.0,1.0,,,,,,,,,orange,diamond
0.0,3.0,3.0,0.0,5.0,5.0,417.2613527625799,5.0,0.0,part_2,go,350.0,300.0,1.0,,,,,,,,,magenta,square
0.0,8.0,4.0,1.0,6.0,0.0,0.0,5.0,0.0,part_2,stop,350.0,300.0,4.0,,,,,,,,,cyan,circle
0.0,5.0,1.0,1.0,6.0,0.0,0.0,5.0,0.0,part_2,stop,350.0,350.0,4.0,,,,,,,,,white,cross
0.0,7.0,3.0,1.0,5.0,5.0,441.2952761631459,5.0,0.0,part_2,go,350.0,400.0,1.0,,,,,,,,,orange,diamond
0.0,3.0,3.0,0.0,6.0,6.0,408.5206594318151,5.0,0.0,part_2,go,350.0,400.0,1.0,,,,,,,,,magenta,square
0.0,6.0,2.0,1.0,6.0,6.0,414.5500618033111,5.0,0.0,part_2,stop,350.0,400.0,3.0,,,,,,,,,blue,I
0.0,6.0,2.0,1.0,6.0,6.0,623.0439969804138,5.0,0.0,part_2,go,350.0,350.0,1.0,,,,,,,,,blue,I
0.0,3.0,3.0,0.0,6.0,6.0,365.474299993366,5.0,0.0,part_2,go,350.0,350.0,1.0,,,,,,,,,magenta,square
0.0,2.0,2.0,0.0,6.0,6.0,343.6299057211727,5.0,0.0,part_2,go,350.0,350.0,1.0,,,,,,,,,yellow,hexagon
0.0,5.0,1.0,1.0,5.0,5.0,413.1071027368307,5.0,0.0,part_2,stop,350.0,350.0,3.0,,,,,,,,,white,cross
0.0,6.0,2.0,1.0,5.0,5.0,425.4934035707265,5.0,0.0,part_2,stop,300.0,350.0,3.0,,,,,,,,,blue,I
0.0,6.0,2.0,1.0,5.0,0.0,0.0,6.0,0.0,part_2,stop,250.0,350.0,4.0,,,,,,,,,blue,I
0.0,1.0,1.0,0.0,6.0,6.0,501.73814059235156,6.0,0.0,part_2,go,300.0,350.0,1.0,,,,,,,,,green,triangle
0.0,1.0,1.0,0.0,6.0,6.0,331.747971009463,6.0,0.0,part_2,go,300.0,350.0,1.0,,,,,,,,,green,triangle
0.0,5.0,1.0,1.0,6.0,6.0,377.7192353736609,6.0,0.0,part_2,stop,300.0,350.0,3.0,,,,,,,,,white,cross
0.0,4.0,4.0,0.0,6.0,6.0,425.2517076674849,6.0,0.0,part_2,go,300.0,300.0,1.0,,,,,,,,,gray,flipped triangle
0.0,3.0,3.0,0.0,5.0,5.0,402.0381935406476,6.0,0.0,part_2,go,300.0,300.0,1.0,,,,,,,,,magenta,square
0.0,1.0,1.0,0.0,5.0,5.0,404.4412607327103,6.0,0.0,part_2,go,300.0,300.0,1.0,,,,,,,,,green,triangle
0.0,4.0,4.0,0.0,6.0,6.0,450.0657385215163,6.0,0.0,part_2,go,300.0,300.0,1.0,,,,,,,,,gray,flipped triangle
0.0,5.0,1.0,1.0,5.0,0.0,0.0,6.0,0.0,part_2,stop,300.0,300.0,4.0,,,,,,,,,white,cross
0.0,8.0,4.0,1.0,6.0,6.0,508.21926118806005,6.0,0.0,part_2,go,350.0,300.0,1.0,,,,,,,,,cyan,circle
0.0,7.0,3.0,1.0,5.0,5.0,408.0369081348181,6.0,0.0,part_2,stop,350.0,300.0,3.0,,,,,,,,,orange,diamond
0.0,7.0,3.0,1.0,6.0,6.0,363.7464258354157,6.0,0.0,part_2,stop,300.0,300.0,3.0,,,,,,,,,orange,diamond
0.0,5.0,1.0,1.0,6.0,6.0,520.4419561196119,6.0,0.0,part_2,go,300.0,250.0,1.0,,,,,,,,,white,cross
0.0,1.0,1.0,0.0,5.0,5.0,318.6345375142991,6.0,0.0,part_2,go,300.0,250.0,1.0,,,,,,,,,green,triangle
0.0,5.0,1.0,1.0,5.0,5.0,398.3054880518466,6.0,0.0,part_2,stop,300.0,250.0,3.0,,,,,,,,,white,cross
0.0,2.0,2.0,0.0,6.0,6.0,467.0495528262108,6.0,0.0,part_2,go,250.0,250.0,1.0,,,,,,,,,yellow,hexagon
0.0,5.0,1.0,1.0,6.0,0.0,0.0,6.0,0.0,part_2,stop,250.0,250.0,4.0,,,,,,,,,white,cross
0.0,1.0,1.0,0.0,6.0,6.0,479.5524273067713,6.0,0.0,part_2,go,250.0,300.0,1.0,,,,,,,,,green,triangle
0.0,8.0,4.0,1.0,6.0,0.0,0.0,6.0,0.0,part_2,stop,250.0,300.0,4.0,,,,,,,,,cyan,circle
0.0,3.0,3.0,0.0,6.0,6.0,413.50436815992,6.0,0.0,part_2,go,250.0,350.0,1.0,,,,,,,,,magenta,square
0.0,1.0,1.0,0.0,5.0,5.0,494.17944601736957,6.0,0.0,part_2,go,250.0,350.0,1.0,,,,,,,,,green,triangle
0.0,1.0,1.0,0.0,5.0,5.0,347.8740628343075,6.0,0.0,part_2,go,250.0,350.0,1.0,,,,,,,,,green,triangle
0.0,7.0,3.0,1.0,6.0,6.0,360.472711501643,6.0,0.0,part_2,stop,250.0,350.0,3.0,,,,,,,,,orange,diamond
0.0,5.0,1.0,1.0,5.0,5.0,328.2279602717608,6.0,0.0,part_2,go,250.0,300.0,1.0,,,,,,,,,white,cross
0.0,1.0,1.0,0.0,6.0,6.0,350.5085897631943,6.0,0.0,part_2,go,250.0,300.0,1.0,,,,,,,,,green,triangle
0.0,6.0,2.0,1.0,5.0,5.0,329.8224066384136,6.0,0.0,part_2,stop,250.0,300.0,3.0,,,,,,,,,blue,I
0.0,5.0,1.0,1.0,6.0,6.0,376.1693835258484,6.0,0.0,part_2,go,200.0,300.0,1.0,,,,,,,,,white,cross
0.0,3.0,3.0,0.0,6.0,6.0,410.3150258306414,6.0,0.0,part_2,go,200.0,300.0,1.0,,,,,,,,,magenta,square
0.0,4.0,4.0,0.0,5.0,5.0,434.1214457526803,6.0,0.0,part_2,go,200.0,300.0,1.0,,,,,,,,,gray,flipped triangle
0.0,4.0,4.0,0.0,5.0,5.0,423.3003803528845,6.0,0.0,part_2,go,200.0,300.0,1.0,,,,,,,,,gray,flipped triangle
0.0,8.0,4.0,1.0,6.0,6.0,400.3928517922759,6.0,0.0,part_2,stop,200.0,300.0,3.0,,,,,,,,,cyan,circle
0.0,2.0,2.0,0.0,6.0,6.0,445.6193803343922,6.0,0.0,part_2,go,200.0,250.0,1.0,,,,,,,,,yellow,hexagon
0.0,5.0,1.0,1.0,5.0,0.0,0.0,6.0,0.0,part_2,stop,200.0,250.0,4.0,,,,,,,,,white,cross
0.0,6.0,2.0,1.0,5.0,0.0,0.0,6.0,0.0,part_2,stop,250.0,250.0,4.0,,,,,,,,,blue,I
0.0,3.0,3.0,0.0,5.0,5.0,381.2213425990194,6.0,0.0,part_2,go,300.0,250.0,1.0,,,,,,,,,magenta,square
0.0,5.0,1.0,1.0,5.0,5.0,382.3312597814947,6.0,0.0,part_2,stop,300.0,250.0,3.0,,,,,,,,,white,cross
0.0,3.0,3.0,0.0,5.0,5.0,414.9964482057839,7.0,0.0,part_2,go,250.0,250.0,1.0,,,,,,,,,magenta,square
0.0,8.0,4.0,1.0,6.0,0.0,0.0,7.0,0.0,part_2,stop,250.0,250.0,4.0,,,,,,,,,cyan,circle
0.0,6.0,2.0,1.0,5.0,5.0,405.9908397030085,7.0,0.0,part_2,go,250.0,300.0,1.0,,,,,,,,,blue,I
0.0,5.0,1.0,1.0,5.0,0.0,0.0,7.0,0.0,part_2,stop,250.0,300.0,4.0,,,,,,,,,white,cross
0.0,7.0,3.0,1.0,5.0,0.0,0.0,7.0,0.0,part_2,stop,300.0,300.0,4.0,,,,,,,,,orange,diamond
0.0,5.0,1.0,1.0,6.0,0.0,0.0,7.0,0.0,part_2,stop,350.0,300.0,4.0,,,,,,,,,white,cross
0.0,1.0,1.0,0.0,6.0,6.0,353.3355526160449,7.0,0.0,part_2,go,350.0,350.0,1.0,,,,,,,,,green,triangle
0.0,8.0,4.0,1.0,5.0,5.0,420.2795026358217,7.0,0.0,part_2,stop,350.0,350.0,3.0,,,,,,,,,cyan,circle
0.0,7.0,3.0,1.0,5.0,5.0,387.6994857564568,7.0,0.0,part_2,go,300.0,350.0,1.0,,,,,,,,,orange,diamond
0.0,8.0,4.0,1.0,5.0,0.0,0.0,7.0,0.0,part_2,stop,300.0,350.0,4.0,,,,,,,,,cyan,circle
0.0,6.0,2.0,1.0,6.0,6.0,468.3901567477733,7.0,0.0,part_2,stop,350.0,350.0,3.0,,,,,,,,,blue,I
0.0,5.0,1.0,1.0,6.0,0.0,0.0,7.0,0.0,part_2,stop,350.0,300.0,4.0,,,,,,,,,white,cross
0.0,1.0,1.0,0.0,5.0,5.0,381.1063824687153,7.0,0.0,part_2,go,350.0,350.0,1.0,,,,,,,,,green,triangle
0.0,8.0,4.0,1.0,6.0,6.0,426.7289994750172,7.0,0.0,part_2,stop,350.0,350.0,3.0,,,,,,,,,cyan,circle
0.0,3.0,3.0,0.0,5.0,5.0,348.9852007478475,7.0,0.0,part_2,go,350.0,300.0,1.0,,,,,,,,,magenta,square
0.0,6.0,2.0,1.0,6.0,6.0,473.4351052902639,7.0,0.0,part_2,stop,350.0,300.0,3.0,,,,,,,,,blue,I
0.0,6.0,2.0,1.0,6.0,0.0,0.0,7.0,0.0,part_2,stop,350.0,250.0,4.0,,,,,,,,,blue,I
0.0,2.0,2.0,0.0,5.0,5.0,406.6017866134643,7.0,0.0,part_2,go,350.0,300.0,1.0,,,,,,,,,yellow,hexagon
0.0,8.0,4.0,1.0,5.0,5.0,464.2391239758581,7.0,0.0,part_2,stop,350.0,300.0,3.0,,,,,,,,,cyan,circle
0.0,3.0,3.0,0.0,5.0,5.0,634.1877074446529,7.0,0.0,part_2,go,300.0,300.0,1.0,,,,,,,,,magenta,square
0.0,4.0,4.0,0.0,6.0,6.0,498.9160348195582,7.0,0.0,part_2,go,300.0,300.0,1.0,,,,,,,,,gray,flipped triangle
0.0,8.0,4.0,1.0,6.0,0.0,0.0,7.0,0.0,part_2,stop,300.0,300.0,4.0,,,,,,,,,cyan,circle
0.0,8.0,4.0,1.0,5.0,0.0,0.0,7.0,0.0,part_2,stop,300.0,350.0,4.0,,,,,,,,,cyan,circle
0.0,2.0,2.0,0.0,6.0,6.0,344.271992566064,7.0,0.0,part_2,go,350.0,350.0,1.0,,,,,,,,,yellow,hexagon
0.0,1.0,1.0,0.0,6.0,6.0,356.2011218164116,7.0,0.0,part_2,go,350.0,350.0,1.0,,,,,,,,,green,triangle
0.0,4.0,4.0,0.0,5.0,5.0,391.2015038076788,7.0,0.0,part_2,go,350.0,350.0,1.0,,,,,,,,,gray,flipped triangle
0.0,4.0,4.0,0.0,6.0,6.0,381.1135471332818,7.0,0.0,part_2,go,350.0,350.0,1.0,,,,,,,,,gray,flipped triangle
0.0,2.0,2.0,0.0,5.0,5.0,348.9472575020045,7.0,0.0,part_2,go,350.0,350.0,1.0,,,,,,,,,yellow,hexagon
0.0,7.0,3.0,1.0,5.0,5.0,404.6036540530622,7.0,0.0,part_2,stop,350.0,350.0,3.0,,,,,,,,,orange,diamond
0.0,8.0,4.0,1.0,6.0,6.0,474.379887804389,7.0,0.0,part_2,stop,300.0,350.0,3.0,,,,,,,,,cyan,circle
0.0,6.0,2.0,1.0,5.0,0.0,0.0,7.0,0.0,part_2,stop,300.0,300.0,4.0,,,,,,,,,blue,I
0.0,8.0,4.0,1.0,5.0,5.0,554.0847762022167,7.0,0.0,part_2,go,350.0,300.0,1.0,,,,,,,,,cyan,circle
0.0,1.0,1.0,0.0,5.0,5.0,351.7921946477145,7.0,0.0,part_2,go,350.0,300.0,1.0,,,,,,,,,green,triangle
0.0,4.0,4.0,0.0,5.0,5.0,374.3845249991864,7.0,0.0,part_2,go,350.0,300.0,1.0,,,,,,,,,gray,flipped triangle
0.0,8.0,4.0,1.0,5.0,0.0,0.0,7.0,0.0,part_2,stop,350.0,300.0,4.0,,,,,,,,,cyan,circle
0.0,2.0,2.0,0.0,5.0,5.0,387.8332730382681,7.0,0.0,part_2,go,400.0,300.0,1.0,,,,,,,,,yellow,hexagon
0.0,1.0,1.0,0.0,6.0,6.0,401.8556347582489,8.0,0.0,part_2,go,400.0,300.0,1.0,,,,,,,,,green,triangle
0.0,2.0,2.0,0.0,6.0,6.0,346.4436952490359,8.0,0.0,part_2,go,400.0,300.0,1.0,,,,,,,,,yellow,hexagon
0.0,7.0,3.0,1.0,5.0,5.0,335.0078717339784,8.0,0.0,part_2,stop,400.0,300.0,3.0,,,,,,,,,orange,diamond
0.0,8.0,4.0,1.0,6.0,0.0,0.0,8.0,0.0,part_2,stop,350.0,300.0,4.0,,,,,,,,,cyan,circle
0.0,3.0,3.0,0.0,6.0,6.0,415.1687137782573,8.0,0.0,part_2,go,350.0,350.0,1.0,,,,,,,,,magenta,square
0.0,4.0,4.0,0.0,5.0,5.0,506.4891944639385,8.0,0.0,part_2,go,350.0,350.0,1.0,,,,,,,,,gray,flipped triangle
0.0,4.0,4.0,0.0,5.0,5.0,361.4625460468232,8.0,0.0,part_2,go,350.0,350.0,1.0,,,,,,,,,gray,flipped triangle
0.0,7.0,3.0,1.0,6.0,6.0,339.9609997868538,8.0,0.0,part_2,stop,350.0,350.0,3.0,,,,,,,,,orange,diamond
0.0,1.0,1.0,0.0,6.0,6.0,408.8280599098652,8.0,0.0,part_2,go,350.0,300.0,1.0,,,,,,,,,green,triangle
0.0,5.0,1.0,1.0,6.0,6.0,420.2378436457366,8.0,0.0,part_2,stop,350.0,300.0,3.0,,,,,,,,,white,cross
0.0,7.0,3.0,1.0,6.0,0.0,0.0,8.0,0.0,part_2,stop,350.0,250.0,4.0,,,,,,,,,orange,diamond
0.0,7.0,3.0,1.0,6.0,0.0,0.0,8.0,0.0,part_2,stop,350.0,300.0,4.0,,,,,,,,,orange,diamond
0.0,3.0,3.0,0.0,5.0,5.0,445.3430725261569,8.0,0.0,part_2,go,350.0,350.0,1.0,,,,,,,,,magenta,square
0.0,4.0,4.0,0.0,6.0,6.0,591.8588717468083,8.0,0.0,part_2,go,350.0,350.0,1.0,,,,,,,,,gray,flipped triangle
0.0,6.0,2.0,1.0,5.0,5.0,413.6810037307441,8.0,0.0,part_2,stop,350.0,350.0,3.0,,,,,,,,,blue,I
0.0,6.0,2.0,1.0,5.0,5.0,436.8730173446238,8.0,0.0,part_2,go,300.0,350.0,1.0,,,,,,,,,blue,I
0.0,2.0,2.0,0.0,6.0,6.0,559.8025594372302,8.0,0.0,part_2,go,300.0,350.0,1.0,,,,,,,,,yellow,hexagon
0.0,2.0,2.0,0.0,5.0,5.0,427.1863775793463,8.0,0.0,part_2,go,300.0,350.0,1.0,,,,,,,,,yellow,hexagon
0.0,5.0,1.0,1.0,5.0,0.0,0.0,8.0,0.0,part_2,stop,300.0,350.0,4.0,,,,,,,,,white,cross
0.0,1.0,1.0,0.0,6.0,6.0,485.3646364063024,8.0,0.0,part_2,go,350.0,350.0,1.0,,,,,,,,,green,triangle
0.0,8.0,4.0,1.0,6.0,0.0,0.0,8.0,0.0,part_2,stop,350.0,350.0,4.0,,,,,,,,,cyan,circle
0.0,6.0,2.0,1.0,5.0,0.0,0.0,8.0,0.0,part_2,stop,350.0,400.0,4.0,,,,,,,,,blue,I
0.0,1.0,1.0,0.0,5.0,5.0,474.7354907449335,8.0,0.0,part_2,go,400.0,400.0,1.0,,,,,,,,,green,triangle
0.0,5.0,1.0,1.0,5.0,5.0,477.7900606859475,8.0,0.0,part_2,stop,400.0,400.0,3.0,,,,,,,,,white,cross
0.0,6.0,2.0,1.0,6.0,6.0,387.9498043097555,8.0,0.0,part_2,stop,350.0,400.0,3.0,,,,,,,,,blue,I
0.0,2.0,2.0,0.0,6.0,6.0,432.3770734481513,8.0,0.0,part_2,go,350.0,350.0,1.0,,,,,,,,,yellow,hexagon
0.0,6.0,2.0,1.0,6.0,6.0,362.24518972449,8.0,0.0,part_2,stop,350.0,350.0,3.0,,,,,,,,,blue,I
0.0,4.0,4.0,0.0,6.0,6.0,570.6302914768457,8.0,0.0,part_2,go,350.0,300.0,1.0,,,,,,,,,gray,flipped triangle
0.0,3.0,3.0,0.0,6.0,6.0,515.013336436823,8.0,0.0,part_2,go,350.0,300.0,1.0,,,,,,,,,magenta,square
0.0,3.0,3.0,0.0,5.0,5.0,480.8917394839227,8.0,0.0,part_2,go,350.0,300.0,1.0,,,,,,,,,magenta,square
0.0,5.0,1.0,1.0,6.0,6.0,414.4924478605389,8.0,0.0,part_2,stop,350.0,300.0,3.0,,,,,,,,,white,cross
0.0,6.0,2.0,1.0,5.0,0.0,0.0,8.0,0.0,part_2,stop,350.0,250.0,4.0,,,,,,,,,blue,I
0.0,3.0,3.0,0.0,6.0,6.0,472.2435434814542,8.0,0.0,part_2,go,400.0,250.0,1.0,,,,,,,,,magenta,square
0.0,7.0,3.0,1.0,5.0,5.0,439.0455824322998,8.0,0.0,part_2,stop,400.0,250.0,3.0,,,,,,,,,orange,diamond
0.0,5.0,1.0,1.0,6.0,6.0,586.2243515439332,8.0,0.0,part_2,go,350.0,250.0,1.0,,,,,,,,,white,cross
0.0,1.0,1.0,0.0,5.0,5.0,555.1542285829782,8.0,0.0,part_2,go,350.0,250.0,1.0,,,,,,,,,green,triangle
0.0,5.0,1.0,1.0,7.0,2.0,4767.164593329653,1.0,1.0,part_3,go,0.0,0.0,0.0,39.0,1.0,156.0,39.0,117.0,78.0,195.0,234.0,white,cross
0.0,1.0,1.0,0.0,7.0,1.0,1251.778922742233,1.0,2.0,part_3,go,0.0,0.0,0.0,216.0,4.0,216.0,270.0,108.0,54.0,324.0,162.0,green,triangle
0.0,7.0,3.0,1.0,7.0,3.0,1986.02831736207,1.0,1.0,part_3,go,0.0,0.0,0.0,54.0,1.0,108.0,162.0,54.0,216.0,324.0,270.0,orange,diamond
0.0,4.0,4.0,0.0,7.0,2.0,2144.86406580545,1.0,1.0,part_3,go,0.0,0.0,0.0,324.0,6.0,162.0,324.0,54.0,108.0,216.0,270.0,gray,flipped triangle
0.0,3.0,3.0,0.0,7.0,5.0,2797.4765272811055,1.0,1.0,part_3,go,0.0,0.0,0.0,270.0,5.0,54.0,324.0,216.0,108.0,270.0,162.0,magenta,square
0.0,2.0,2.0,0.0,7.0,2.0,2135.4713996406645,1.0,1.0,part_3,go,0.0,0.0,0.0,162.0,3.0,54.0,162.0,270.0,216.0,324.0,108.0,yellow,hexagon
0.0,6.0,2.0,1.0,7.0,3.0,1932.3658966459336,1.0,1.0,part_3,go,0.0,0.0,0.0,78.0,2.0,156.0,39.0,78.0,117.0,195.0,234.0,blue,I
0.0,6.0,2.0,1.0,7.0,4.0,2192.6400226075198,1.0,1.0,part_3,go,0.0,0.0,0.0,132.0,3.0,264.0,176.0,220.0,132.0,44.0,88.0,blue,I
0.0,1.0,1.0,0.0,7.0,4.0,1350.2232572063804,1.0,1.0,part_3,go,0.0,0.0,0.0,147.0,3.0,98.0,49.0,294.0,147.0,245.0,196.0,green,triangle
0.0,7.0,3.0,1.0,7.0,2.0,2351.8496158067137,1.0,1.0,part_3,go,0.0,0.0,0.0,102.0,3.0,34.0,102.0,68.0,170.0,136.0,204.0,orange,diamond
0.0,4.0,4.0,0.0,7.0,5.0,2197.5693001877517,1.0,1.0,part_3,go,0.0,0.0,0.0,220.0,5.0,176.0,132.0,264.0,88.0,220.0,44.0,gray,flipped triangle
0.0,2.0,2.0,0.0,7.0,4.0,1995.4581332858652,1.0,1.0,part_3,go,0.0,0.0,0.0,156.0,4.0,117.0,39.0,195.0,156.0,78.0,234.0,yellow,hexagon
0.0,6.0,2.0,1.0,7.0,3.0,2467.635167995468,1.0,1.0,part_3,go,0.0,0.0,0.0,102.0,3.0,136.0,34.0,102.0,204.0,170.0,68.0,blue,I
0.0,3.0,3.0,0.0,7.0,4.0,2762.7234454266727,1.0,1.0,part_3,go,0.0,0.0,0.0,195.0,5.0,117.0,78.0,234.0,195.0,39.0,156.0,magenta,square
0.0,3.0,3.0,0.0,7.0,2.0,3246.3026598561555,1.0,1.0,part_3,go,0.0,0.0,0.0,147.0,3.0,196.0,147.0,49.0,294.0,245.0,98.0,magenta,square
0.0,5.0,1.0,1.0,7.0,4.0,1797.745636664331,1.0,1.0,part_3,go,0.0,0.0,0.0,49.0,1.0,98.0,294.0,196.0,49.0,147.0,245.0,white,cross
0.0,2.0,2.0,0.0,7.0,1.0,2856.116717448458,1.0,1.0,part_3,go,0.0,0.0,0.0,147.0,3.0,147.0,196.0,49.0,294.0,245.0,98.0,yellow,hexagon
0.0,4.0,4.0,0.0,7.0,4.0,2271.364000858739,1.0,1.0,part_3,go,0.0,0.0,0.0,204.0,6.0,102.0,34.0,136.0,204.0,170.0,68.0,gray,flipped triangle
0.0,2.0,2.0,0.0,7.0,4.0,2463.0859196186066,1.0,1.0,part_3,go,0.0,0.0,0.0,102.0,3.0,68.0,204.0,34.0,102.0,170.0,136.0,yellow,hexagon
0.0,8.0,4.0,1.0,7.0,5.0,2385.1057388819754,1.0,1.0,part_3,go,0.0,0.0,0.0,324.0,6.0,108.0,216.0,162.0,54.0,324.0,270.0,cyan,circle
0.0,1.0,1.0,0.0,7.0,5.0,2678.6833277437836,2.0,1.0,part_3,go,0.0,0.0,0.0,136.0,4.0,102.0,170.0,204.0,68.0,136.0,34.0,green,triangle
0.0,6.0,2.0,1.0,7.0,6.0,2487.7401588018984,2.0,1.0,part_3,go,0.0,0.0,0.0,162.0,3.0,324.0,270.0,216.0,108.0,54.0,162.0,blue,I
0.0,7.0,3.0,1.0,7.0,3.0,2128.153584897518,2.0,1.0,part_3,go,0.0,0.0,0.0,156.0,4.0,39.0,78.0,156.0,234.0,195.0,117.0,orange,diamond
0.0,1.0,1.0,0.0,7.0,4.0,1658.1755275838077,2.0,1.0,part_3,go,0.0,0.0,0.0,117.0,3.0,78.0,234.0,39.0,117.0,156.0,195.0,green,triangle
0.0,2.0,2.0,0.0,7.0,4.0,1095.192489447072,2.0,1.0,part_3,go,0.0,0.0,0.0,170.0,5.0,68.0,204.0,102.0,170.0,34.0,136.0,yellow,hexagon
0.0,2.0,2.0,0.0,7.0,5.0,1648.727675434202,2.0,1.0,part_3,go,0.0,0.0,0.0,156.0,4.0,39.0,234.0,117.0,195.0,156.0,78.0,yellow,hexagon
0.0,6.0,2.0,1.0,7.0,6.0,2436.4241112489253,2.0,1.0,part_3,go,0.0,0.0,0.0,98.0,2.0,294.0,147.0,245.0,49.0,196.0,98.0,blue,I
0.0,8.0,4.0,1.0,7.0,2.0,2291.006711544469,2.0,1.0,part_3,go,0.0,0.0,0.0,294.0,6.0,147.0,294.0,49.0,98.0,245.0,196.0,cyan,circle
0.0,1.0,1.0,0.0,7.0,3.0,1864.416046999395,2.0,1.0,part_3,go,0.0,0.0,0.0,132.0,3.0,220.0,264.0,132.0,88.0,44.0,176.0,green,triangle
0.0,8.0,4.0,1.0,7.0,1.0,1922.7146215271205,2.0,1.0,part_3,go,0.0,0.0,0.0,204.0,6.0,204.0,170.0,102.0,68.0,136.0,34.0,cyan,circle
0.0,5.0,1.0,1.0,7.0,3.0,2520.874024834484,2.0,1.0,part_3,go,0.0,0.0,0.0,34.0,1.0,136.0,68.0,34.0,170.0,204.0,102.0,white,cross
0.0,6.0,2.0,1.0,7.0,2.0,3388.7524413876235,2.0,1.0,part_3,go,0.0,0.0,0.0,176.0,4.0,220.0,176.0,88.0,264.0,132.0,44.0,blue,I
0.0,6.0,2.0,1.0,7.0,2.0,3006.643578177318,2.0,1.0,part_3,go,0.0,0.0,0.0,147.0,3.0,98.0,147.0,294.0,196.0,245.0,49.0,blue,I
0.0,1.0,1.0,0.0,7.0,3.0,2466.336701530963,2.0,1.0,part_3,go,0.0,0.0,0.0,102.0,3.0,68.0,170.0,102.0,204.0,136.0,34.0,green,triangle
0.0,7.0,3.0,1.0,7.0,3.0,2501.0627296287566,2.0,1.0,part_3,go,0.0,0.0,0.0,132.0,3.0,176.0,264.0,132.0,44.0,220.0,88.0,orange,diamond
0.0,6.0,2.0,1.0,7.0,2.0,1973.3464114833623,2.0,1.0,part_3,go,0.0,0.0,0.0,68.0,2.0,102.0,68.0,170.0,34.0,204.0,136.0,blue,I
0.0,8.0,4.0,1.0,7.0,4.0,3315.499284071848,2.0,1.0,part_3,go,0.0,0.0,0.0,270.0,5.0,162.0,216.0,324.0,270.0,54.0,108.0,cyan,circle
0.0,6.0,2.0,1.0,7.0,6.0,4394.960106816143,2.0,1.0,part_3,go,0.0,0.0,0.0,162.0,3.0,324.0,216.0,270.0,108.0,54.0,162.0,blue,I
0.0,3.0,3.0,0.0,7.0,3.0,2493.8903970178217,2.0,1.0,part_3,go,0.0,0.0,0.0,108.0,2.0,216.0,324.0,108.0,162.0,270.0,54.0,magenta,square
0.0,8.0,4.0,1.0,7.0,1.0,2238.106059608981,2.0,1.0,part_3,go,0.0,0.0,0.0,204.0,6.0,204.0,102.0,170.0,68.0,34.0,136.0,cyan,circle
0.0,3.0,3.0,0.0,7.0,1.0,2614.9211265146732,3.0,1.0,part_3,go,0.0,0.0,0.0,132.0,3.0,132.0,44.0,176.0,88.0,220.0,264.0,magenta,square
0.0,6.0,2.0,1.0,7.0,4.0,2853.568328078836,3.0,1.0,part_3,go,0.0,0.0,0.0,117.0,3.0,234.0,156.0,39.0,117.0,78.0,195.0,blue,I
0.0,2.0,2.0,0.0,7.0,1.0,3157.0108116138726,3.0,1.0,part_3,go,0.0,0.0,0.0,176.0,4.0,176.0,44.0,132.0,220.0,264.0,88.0,yellow,hexagon
0.0,2.0,2.0,0.0,7.0,1.0,2032.481296453625,3.0,1.0,part_3,go,0.0,0.0,0.0,176.0,4.0,176.0,44.0,220.0,264.0,88.0,132.0,yellow,hexagon
0.0,4.0,4.0,0.0,7.0,4.0,2091.3455116096884,3.0,1.0,part_3,go,0.0,0.0,0.0,204.0,6.0,34.0,68.0,170.0,204.0,102.0,136.0,gray,flipped triangle
0.0,4.0,4.0,0.0,7.0,3.0,2777.8708443511277,3.0,1.0,part_3,go,0.0,0.0,0.0,220.0,5.0,132.0,176.0,220.0,88.0,264.0,44.0,gray,flipped triangle
0.0,7.0,3.0,1.0,7.0,5.0,2982.2565934155136,3.0,1.0,part_3,go,0.0,0.0,0.0,147.0,3.0,196.0,245.0,98.0,294.0,147.0,49.0,orange,diamond
0.0,5.0,1.0,1.0,7.0,2.0,2183.813971467316,3.0,1.0,part_3,go,0.0,0.0,0.0,39.0,1.0,195.0,39.0,234.0,117.0,78.0,156.0,white,cross
0.0,8.0,4.0,1.0,7.0,1.0,2488.403836498037,3.0,1.0,part_3,go,0.0,0.0,0.0,264.0,6.0,264.0,176.0,44.0,88.0,220.0,132.0,cyan,circle
0.0,4.0,4.0,0.0,7.0,4.0,2174.2093104403466,3.0,1.0,part_3,go,0.0,0.0,0.0,294.0,6.0,196.0,49.0,147.0,294.0,245.0,98.0,gray,flipped triangle
0.0,4.0,4.0,0.0,7.0,6.0,2165.6264506746083,3.0,1.0,part_3,go,0.0,0.0,0.0,234.0,6.0,39.0,78.0,117.0,156.0,195.0,234.0,gray,flipped triangle
0.0,7.0,3.0,1.0,7.0,6.0,3042.6448576617986,3.0,1.0,part_3,go,0.0,0.0,0.0,98.0,2.0,196.0,147.0,294.0,49.0,245.0,98.0,orange,diamond
0.0,8.0,4.0,1.0,7.0,3.0,3077.940828865394,3.0,1.0,part_3,go,0.0,0.0,0.0,234.0,6.0,117.0,156.0,234.0,78.0,39.0,195.0,cyan,circle
0.0,8.0,4.0,1.0,7.0,5.0,2112.2499592602253,3.0,1.0,part_3,go,0.0,0.0,0.0,264.0,6.0,176.0,44.0,132.0,88.0,264.0,220.0,cyan,circle
0.0,7.0,3.0,1.0,7.0,3.0,3125.022173160687,3.0,1.0,part_3,go,0.0,0.0,0.0,88.0,2.0,132.0,264.0,88.0,220.0,44.0,176.0,orange,diamond
0.0,5.0,1.0,1.0,7.0,6.0,1696.558179799467,3.0,1.0,part_3,go,0.0,0.0,0.0,54.0,1.0,324.0,216.0,162.0,270.0,108.0,54.0,white,cross
0.0,1.0,1.0,0.0,7.0,1.0,2015.1188105810434,3.0,1.0,part_3,go,0.0,0.0,0.0,147.0,3.0,147.0,245.0,98.0,196.0,294.0,49.0,green,triangle
0.0,2.0,2.0,0.0,7.0,3.0,3601.6841772943735,3.0,1.0,part_3,go,0.0,0.0,0.0,147.0,3.0,98.0,196.0,147.0,245.0,49.0,294.0,yellow,hexagon
0.0,2.0,2.0,0.0,7.0,2.0,2028.3820643089712,3.0,1.0,part_3,go,0.0,0.0,0.0,162.0,3.0,216.0,162.0,54.0,108.0,324.0,270.0,yellow,hexagon
0.0,8.0,4.0,1.0,7.0,5.0,3647.386135533452,3.0,1.0,part_3,go,0.0,0.0,0.0,294.0,6.0,245.0,49.0,147.0,196.0,294.0,98.0,cyan,circle
0.0,3.0,3.0,0.0,7.0,6.0,2341.5973293595016,4.0,1.0,part_3,go,0.0,0.0,0.0,170.0,5.0,136.0,204.0,68.0,102.0,34.0,170.0,magenta,square
0.0,3.0,3.0,0.0,7.0,3.0,1712.2120643034575,4.0,1.0,part_3,go,0.0,0.0,0.0,132.0,3.0,264.0,176.0,132.0,88.0,44.0,220.0,magenta,square
0.0,5.0,1.0,1.0,7.0,2.0,1735.8760978095231,4.0,1.0,part_3,go,0.0,0.0,0.0,44.0,1.0,176.0,44.0,132.0,220.0,88.0,264.0,white,cross
0.0,4.0,4.0,0.0,7.0,5.0,1861.4777675829828,4.0,1.0,part_3,go,0.0,0.0,0.0,324.0,6.0,270.0,162.0,108.0,54.0,324.0,216.0,gray,flipped triangle
0.0,1.0,1.0,0.0,7.0,3.0,3493.900967761874,4.0,1.0,part_3,go,0.0,0.0,0.0,176.0,4.0,88.0,132.0,176.0,220.0,44.0,264.0,green,triangle
0.0,7.0,3.0,1.0,7.0,4.0,2616.8472822755575,4.0,1.0,part_3,go,0.0,0.0,0.0,162.0,3.0,216.0,324.0,54.0,162.0,108.0,270.0,orange,diamond
0.0,1.0,1.0,0.0,7.0,6.0,2213.1610894575715,4.0,1.0,part_3,go,0.0,0.0,0.0,117.0,3.0,156.0,78.0,195.0,39.0,234.0,117.0,green,triangle
0.0,5.0,1.0,1.0,7.0,5.0,1359.5685076434163,4.0,1.0,part_3,go,0.0,0.0,0.0,54.0,1.0,270.0,216.0,324.0,162.0,54.0,108.0,white,cross
0.0,4.0,4.0,0.0,7.0,6.0,2880.317562026903,4.0,1.0,part_3,go,0.0,0.0,0.0,234.0,6.0,39.0,195.0,156.0,78.0,117.0,234.0,gray,flipped triangle
0.0,5.0,1.0,1.0,7.0,6.0,1552.7581230271608,4.0,1.0,part_3,go,0.0,0.0,0.0,44.0,1.0,220.0,132.0,88.0,264.0,176.0,44.0,white,cross
0.0,5.0,1.0,1.0,7.0,5.0,1801.6604618169367,4.0,1.0,part_3,go,0.0,0.0,0.0,49.0,1.0,98.0,294.0,245.0,196.0,49.0,147.0,white,cross
0.0,7.0,3.0,1.0,7.0,2.0,2421.9907340593636,4.0,1.0,part_3,go,0.0,0.0,0.0,136.0,4.0,170.0,136.0,34.0,204.0,102.0,68.0,orange,diamond
0.0,8.0,4.0,1.0,7.0,5.0,3456.701738294214,4.0,1.0,part_3,go,0.0,0.0,0.0,234.0,6.0,156.0,195.0,39.0,78.0,234.0,117.0,cyan,circle
0.0,3.0,3.0,0.0,7.0,6.0,2625.3643876407295,4.0,1.0,part_3,go,0.0,0.0,0.0,147.0,3.0,98.0,294.0,196.0,49.0,245.0,147.0,magenta,square
0.0,1.0,1.0,0.0,7.0,4.0,3314.2920341342688,4.0,1.0,part_3,go,0.0,0.0,0.0,162.0,3.0,54.0,216.0,270.0,162.0,324.0,108.0,green,triangle
0.0,4.0,4.0,0.0,7.0,6.0,2098.932883469388,4.0,1.0,part_3,go,0.0,0.0,0.0,245.0,5.0,49.0,196.0,98.0,147.0,294.0,245.0,gray,flipped triangle
0.0,5.0,1.0,1.0,7.0,5.0,1233.545480761677,4.0,1.0,part_3,go,0.0,0.0,0.0,34.0,1.0,136.0,68.0,170.0,204.0,34.0,102.0,white,cross
0.0,7.0,3.0,1.0,7.0,1.0,3047.2876178100705,4.0,1.0,part_3,go,0.0,0.0,0.0,156.0,4.0,156.0,234.0,117.0,39.0,78.0,195.0,orange,diamond
0.0,3.0,3.0,0.0,7.0,3.0,2585.963504621759,4.0,1.0,part_3,go,0.0,0.0,0.0,156.0,4.0,117.0,78.0,156.0,195.0,39.0,234.0,magenta,square
0.0,3.0,3.0,0.0,7.0,1.0,2959.0640226379037,4.0,1.0,part_3,go,0.0,0.0,0.0,170.0,5.0,170.0,204.0,136.0,102.0,34.0,68.0,magenta,square
