raw_reward_magnitude,stim_reward,stepwise_reward_magnitude,paired_with_stopping,quadrant,response,reaction_time,block,num_trial_presentations,which_part,stop_signal_trial_type,left_SSD,right_SSD,accuracy,chosen_bidding_amount,chosen_bidding_level,possible_bid_1,possible_bid_2,possible_bid_3,possible_bid_4,possible_bid_5,possible_bid_6,color_text,shape_text
75.0,5.0,1.0,1.0,1.0,1.0,478.4469937440008,1.0,1.0,part_1,,,,,,,,,,,,,green,I
188.0,3.0,3.0,0.0,2.0,2.0,433.2960417959839,1.0,1.0,part_1,,,,,,,,,,,,,orange,circle
178.0,3.0,3.0,0.0,3.0,3.0,344.3552171811461,1.0,1.0,part_1,,,,,,,,,,,,,orange,circle
78.0,2.0,2.0,0.0,4.0,4.0,288.7842992786318,1.0,1.0,part_1,,,,,,,,,,,,,yellow,triangle
118.0,6.0,2.0,1.0,2.0,2.0,311.6261539980769,1.0,1.0,part_1,,,,,,,,,,,,,magenta,diamond
399.0,8.0,4.0,1.0,4.0,4.0,300.7831757422536,1.0,1.0,part_1,,,,,,,,,,,,,blue,square
86.0,6.0,2.0,1.0,1.0,1.0,302.1883238106966,1.0,1.0,part_1,,,,,,,,,,,,,magenta,diamond
0.0,5.0,0.0,1.0,3.0,3.0,312.2820353601128,1.0,1.0,part_1,,,,,,,,,,,,,green,I
0.0,8.0,0.0,1.0,2.0,2.0,347.6767954416573,1.0,1.0,part_1,,,,,,,,,,,,,blue,square
0.0,2.0,0.0,0.0,1.0,1.0,324.6740743052214,1.0,1.0,part_1,,,,,,,,,,,,,yellow,triangle
52.0,1.0,1.0,0.0,2.0,2.0,349.9541222117841,1.0,1.0,part_1,,,,,,,,,,,,,cyan,flipped triangle
0.0,4.0,0.0,0.0,2.0,2.0,338.7923049740493,1.0,1.0,part_1,,,,,,,,,,,,,gray,hexagon
419.0,4.0,4.0,0.0,3.0,3.0,327.3551943711936,1.0,1.0,part_1,,,,,,,,,,,,,gray,hexagon
125.0,2.0,2.0,0.0,3.0,3.0,351.118047721684,1.0,1.0,part_1,,,,,,,,,,,,,yellow,triangle
51.0,5.0,1.0,1.0,3.0,3.0,350.9790229145437,1.0,1.0,part_1,,,,,,,,,,,,,green,I
58.0,5.0,1.0,1.0,4.0,4.0,305.2727207541466,1.0,1.0,part_1,,,,,,,,,,,,,green,I
214.0,3.0,3.0,0.0,1.0,1.0,352.7728400658816,1.0,2.0,part_1,,,,,,,,,,,,,orange,circle
63.0,1.0,1.0,0.0,2.0,2.0,341.8693128041923,1.0,1.0,part_1,,,,,,,,,,,,,cyan,flipped triangle
58.0,5.0,1.0,1.0,3.0,3.0,329.9513629171997,1.0,1.0,part_1,,,,,,,,,,,,,green,I
124.0,2.0,2.0,0.0,2.0,2.0,377.591700758785,1.0,1.0,part_1,,,,,,,,,,,,,yellow,triangle
82.0,6.0,2.0,1.0,3.0,3.0,366.0202734172344,1.0,1.0,part_1,,,,,,,,,,,,,magenta,diamond
30.0,5.0,1.0,1.0,2.0,2.0,365.8853492233902,1.0,1.0,part_1,,,,,,,,,,,,,green,I
379.0,4.0,4.0,0.0,1.0,1.0,345.2243490610271,1.0,1.0,part_1,,,,,,,,,,,,,gray,hexagon
100.0,6.0,2.0,1.0,4.0,4.0,299.8675829730928,1.0,1.0,part_1,,,,,,,,,,,,,magenta,diamond
33.0,5.0,1.0,1.0,1.0,1.0,300.8209683466702,1.0,1.0,part_1,,,,,,,,,,,,,green,I
45.0,1.0,1.0,0.0,3.0,3.0,299.8040872626006,1.0,1.0,part_1,,,,,,,,,,,,,cyan,flipped triangle
423.0,8.0,4.0,1.0,3.0,3.0,368.6832063831389,1.0,1.0,part_1,,,,,,,,,,,,,blue,square
396.0,4.0,4.0,0.0,1.0,1.0,381.3064466230571,1.0,1.0,part_1,,,,,,,,,,,,,gray,hexagon
0.0,6.0,0.0,1.0,4.0,4.0,292.4160752445459,1.0,1.0,part_1,,,,,,,,,,,,,magenta,diamond
61.0,1.0,1.0,0.0,2.0,2.0,439.2252145335078,1.0,1.0,part_1,,,,,,,,,,,,,cyan,flipped triangle
384.0,8.0,4.0,1.0,2.0,2.0,326.2163470499217,1.0,1.0,part_1,,,,,,,,,,,,,blue,square
0.0,7.0,0.0,1.0,3.0,3.0,393.8525298144668,1.0,1.0,part_1,,,,,,,,,,,,,white,cross
402.0,8.0,4.0,1.0,2.0,2.0,316.4247651584446,1.0,1.0,part_1,,,,,,,,,,,,,blue,square
105.0,6.0,2.0,1.0,2.0,2.0,327.5744465645402,1.0,1.0,part_1,,,,,,,,,,,,,magenta,diamond
194.0,3.0,3.0,0.0,4.0,4.0,261.2041630782187,1.0,1.0,part_1,,,,,,,,,,,,,orange,circle
38.0,1.0,1.0,0.0,4.0,4.0,296.0514142177999,1.0,1.0,part_1,,,,,,,,,,,,,cyan,flipped triangle
0.0,1.0,0.0,0.0,2.0,2.0,363.3638750761747,1.0,1.0,part_1,,,,,,,,,,,,,cyan,flipped triangle
191.0,7.0,3.0,1.0,4.0,4.0,273.4207205940038,1.0,1.0,part_1,,,,,,,,,,,,,white,cross
220.0,3.0,3.0,0.0,4.0,4.0,307.5495075900107,1.0,1.0,part_1,,,,,,,,,,,,,orange,circle
202.0,7.0,3.0,1.0,2.0,2.0,319.7992732748389,1.0,1.0,part_1,,,,,,,,,,,,,white,cross
0.0,2.0,0.0,0.0,1.0,1.0,400.6446083076298,1.0,1.0,part_1,,,,,,,,,,,,,yellow,triangle
0.0,4.0,0.0,0.0,4.0,4.0,333.9893806260079,1.0,1.0,part_1,,,,,,,,,,,,,gray,hexagon
45.0,5.0,1.0,1.0,2.0,2.0,356.2594663817435,1.0,2.0,part_1,,,,,,,,,,,,,green,I
0.0,6.0,0.0,1.0,1.0,1.0,323.0585271958262,1.0,1.0,part_1,,,,,,,,,,,,,magenta,diamond
390.0,4.0,4.0,0.0,4.0,4.0,403.3407315146178,1.0,1.0,part_1,,,,,,,,,,,,,gray,hexagon
187.0,3.0,3.0,0.0,4.0,4.0,346.1469891481101,1.0,1.0,part_1,,,,,,,,,,,,,orange,circle
188.0,3.0,3.0,0.0,1.0,1.0,280.2962136920541,1.0,1.0,part_1,,,,,,,,,,,,,orange,circle
38.0,5.0,1.0,1.0,3.0,3.0,291.6969645302742,1.0,1.0,part_1,,,,,,,,,,,,,green,I
69.0,1.0,1.0,0.0,3.0,3.0,336.5909594576806,1.0,1.0,part_1,,,,,,,,,,,,,cyan,flipped triangle
82.0,2.0,2.0,0.0,2.0,2.0,315.5895886011421,1.0,1.0,part_1,,,,,,,,,,,,,yellow,triangle
191.0,3.0,3.0,0.0,4.0,4.0,450.5503226537257,1.0,1.0,part_1,,,,,,,,,,,,,orange,circle
0.0,5.0,0.0,1.0,3.0,3.0,393.8685082830488,1.0,1.0,part_1,,,,,,,,,,,,,green,I
103.0,2.0,2.0,0.0,4.0,4.0,304.8891159705817,1.0,1.0,part_1,,,,,,,,,,,,,yellow,triangle
78.0,2.0,2.0,0.0,4.0,4.0,406.9008117076009,1.0,1.0,part_1,,,,,,,,,,,,,yellow,triangle
33.0,5.0,1.0,1.0,1.0,1.0,329.1061262134462,1.0,1.0,part_1,,,,,,,,,,,,,green,I
0.0,7.0,0.0,1.0,2.0,2.0,341.6728402953595,1.0,1.0,part_1,,,,,,,,,,,,,white,cross
195.0,3.0,3.0,0.0,1.0,1.0,308.8859810959548,1.0,1.0,part_1,,,,,,,,,,,,,orange,circle
178.0,7.0,3.0,1.0,2.0,2.0,309.6554593648761,1.0,2.0,part_1,,,,,,,,,,,,,white,cross
0.0,7.0,0.0,1.0,1.0,1.0,275.2116536721587,1.0,1.0,part_1,,,,,,,,,,,,,white,cross
0.0,2.0,0.0,0.0,1.0,1.0,297.9266652837395,1.0,1.0,part_1,,,,,,,,,,,,,yellow,triangle
188.0,7.0,3.0,1.0,3.0,3.0,387.6994280144572,1.0,1.0,part_1,,,,,,,,,,,,,white,cross
109.0,2.0,2.0,0.0,2.0,2.0,298.8555850461125,1.0,1.0,part_1,,,,,,,,,,,,,yellow,triangle
0.0,7.0,0.0,1.0,3.0,3.0,367.1934322919696,1.0,1.0,part_1,,,,,,,,,,,,,white,cross
208.0,7.0,3.0,1.0,2.0,2.0,457.7978863380849,1.0,1.0,part_1,,,,,,,,,,,,,white,cross
223.0,7.0,3.0,1.0,1.0,1.0,268.3280298952013,1.0,1.0,part_1,,,,,,,,,,,,,white,cross
0.0,4.0,0.0,0.0,2.0,2.0,302.0455783698708,1.0,1.0,part_1,,,,,,,,,,,,,gray,hexagon
0.0,6.0,0.0,1.0,2.0,2.0,347.2274888772517,1.0,1.0,part_1,,,,,,,,,,,,,magenta,diamond
0.0,6.0,0.0,1.0,4.0,4.0,516.990096308291,1.0,2.0,part_1,,,,,,,,,,,,,magenta,diamond
44.0,1.0,1.0,0.0,4.0,4.0,360.1867123506963,1.0,1.0,part_1,,,,,,,,,,,,,cyan,flipped triangle
124.0,6.0,2.0,1.0,1.0,1.0,338.0726515315473,1.0,1.0,part_1,,,,,,,,,,,,,magenta,diamond
90.0,6.0,2.0,1.0,1.0,1.0,373.9071940071881,1.0,1.0,part_1,,,,,,,,,,,,,magenta,diamond
50.0,1.0,1.0,0.0,3.0,3.0,316.0000292118639,1.0,1.0,part_1,,,,,,,,,,,,,cyan,flipped triangle
124.0,6.0,2.0,1.0,4.0,4.0,226.3773400336504,1.0,1.0,part_1,,,,,,,,,,,,,magenta,diamond
100.0,2.0,2.0,0.0,1.0,1.0,274.219183018431,1.0,1.0,part_1,,,,,,,,,,,,,yellow,triangle
28.0,5.0,1.0,1.0,4.0,4.0,285.1944658905267,1.0,1.0,part_1,,,,,,,,,,,,,green,I
396.0,8.0,4.0,1.0,4.0,4.0,284.982596989721,1.0,1.0,part_1,,,,,,,,,,,,,blue,square
0.0,7.0,0.0,1.0,4.0,4.0,319.7112034540623,1.0,1.0,part_1,,,,,,,,,,,,,white,cross
124.0,2.0,2.0,0.0,3.0,3.0,263.1773985922336,1.0,1.0,part_1,,,,,,,,,,,,,yellow,triangle
103.0,6.0,2.0,1.0,1.0,1.0,354.424056597054,1.0,1.0,part_1,,,,,,,,,,,,,magenta,diamond
34.0,5.0,1.0,1.0,2.0,2.0,298.9135636016726,1.0,1.0,part_1,,,,,,,,,,,,,green,I
383.0,4.0,4.0,0.0,4.0,4.0,253.2607838511467,1.0,1.0,part_1,,,,,,,,,,,,,gray,hexagon
178.0,3.0,3.0,0.0,2.0,2.0,311.0616360791027,1.0,1.0,part_1,,,,,,,,,,,,,orange,circle
0.0,3.0,0.0,0.0,3.0,3.0,312.0183665305376,1.0,1.0,part_1,,,,,,,,,,,,,orange,circle
0.0,3.0,0.0,0.0,1.0,1.0,312.2496472205966,1.0,1.0,part_1,,,,,,,,,,,,,orange,circle
61.0,5.0,1.0,1.0,2.0,2.0,336.2979772500694,1.0,1.0,part_1,,,,,,,,,,,,,green,I
406.0,8.0,4.0,1.0,4.0,4.0,256.8125219549984,1.0,1.0,part_1,,,,,,,,,,,,,blue,square
377.0,4.0,4.0,0.0,4.0,4.0,279.12335889413947,1.0,1.0,part_1,,,,,,,,,,,,,gray,hexagon
187.0,7.0,3.0,1.0,4.0,4.0,358.6275014095008,1.0,1.0,part_1,,,,,,,,,,,,,white,cross
0.0,7.0,0.0,1.0,4.0,4.0,258.9606670662761,1.0,1.0,part_1,,,,,,,,,,,,,white,cross
189.0,3.0,3.0,0.0,1.0,1.0,384.2020025476813,1.0,1.0,part_1,,,,,,,,,,,,,orange,circle
80.0,6.0,2.0,1.0,4.0,4.0,271.4779179077595,1.0,1.0,part_1,,,,,,,,,,,,,magenta,diamond
63.0,5.0,1.0,1.0,4.0,4.0,305.5593341123312,1.0,1.0,part_1,,,,,,,,,,,,,green,I
89.0,6.0,2.0,1.0,3.0,3.0,295.9592614788562,1.0,2.0,part_1,,,,,,,,,,,,,magenta,diamond
48.0,1.0,1.0,0.0,1.0,1.0,307.2902190033346,1.0,1.0,part_1,,,,,,,,,,,,,cyan,flipped triangle
106.0,6.0,2.0,1.0,3.0,3.0,274.7129101771861,1.0,1.0,part_1,,,,,,,,,,,,,magenta,diamond
392.0,8.0,4.0,1.0,3.0,3.0,296.5285701211542,1.0,1.0,part_1,,,,,,,,,,,,,blue,square
86.0,2.0,2.0,0.0,3.0,3.0,331.9307502824813,1.0,1.0,part_1,,,,,,,,,,,,,yellow,triangle
188.0,7.0,3.0,1.0,1.0,1.0,298.8435188308358,1.0,1.0,part_1,,,,,,,,,,,,,white,cross
59.0,1.0,1.0,0.0,1.0,1.0,322.2167138010263,1.0,1.0,part_1,,,,,,,,,,,,,cyan,flipped triangle
99.0,6.0,2.0,1.0,3.0,3.0,344.8487697169184,1.0,1.0,part_1,,,,,,,,,,,,,magenta,diamond
78.0,6.0,2.0,1.0,1.0,1.0,410.8670798595994,2.0,1.0,part_1,,,,,,,,,,,,,magenta,diamond
418.0,8.0,4.0,1.0,3.0,3.0,274.9328950885683,2.0,1.0,part_1,,,,,,,,,,,,,blue,square
395.0,8.0,4.0,1.0,4.0,4.0,276.9601005129516,2.0,1.0,part_1,,,,,,,,,,,,,blue,square
0.0,4.0,0.0,0.0,1.0,1.0,288.5280237533152,2.0,2.0,part_1,,,,,,,,,,,,,gray,hexagon
213.0,3.0,3.0,0.0,3.0,3.0,300.9646008722484,2.0,1.0,part_1,,,,,,,,,,,,,orange,circle
0.0,6.0,0.0,1.0,4.0,4.0,289.1744202934205,2.0,1.0,part_1,,,,,,,,,,,,,magenta,diamond
423.0,4.0,4.0,0.0,3.0,3.0,290.2659978717565,2.0,1.0,part_1,,,,,,,,,,,,,gray,hexagon
182.0,3.0,3.0,0.0,1.0,1.0,292.1834297012537,2.0,1.0,part_1,,,,,,,,,,,,,orange,circle
183.0,7.0,3.0,1.0,3.0,3.0,257.3488296475261,2.0,1.0,part_1,,,,,,,,,,,,,white,cross
99.0,2.0,2.0,0.0,4.0,4.0,235.1710859220475,2.0,1.0,part_1,,,,,,,,,,,,,yellow,triangle
42.0,5.0,1.0,1.0,4.0,4.0,316.2336947862059,2.0,1.0,part_1,,,,,,,,,,,,,green,I
218.0,7.0,3.0,1.0,2.0,2.0,315.2707796543836,2.0,1.0,part_1,,,,,,,,,,,,,white,cross
184.0,7.0,3.0,1.0,3.0,3.0,407.1238175965845,2.0,2.0,part_1,,,,,,,,,,,,,white,cross
87.0,2.0,2.0,0.0,3.0,3.0,316.5663746185601,2.0,1.0,part_1,,,,,,,,,,,,,yellow,triangle
28.0,1.0,1.0,0.0,3.0,3.0,339.9792911950499,2.0,1.0,part_1,,,,,,,,,,,,,cyan,flipped triangle
116.0,6.0,2.0,1.0,4.0,4.0,273.0384920723736,2.0,1.0,part_1,,,,,,,,,,,,,magenta,diamond
59.0,5.0,1.0,1.0,4.0,4.0,408.8463697116822,2.0,1.0,part_1,,,,,,,,,,,,,green,I
203.0,7.0,3.0,1.0,2.0,2.0,308.5301402024925,2.0,1.0,part_1,,,,,,,,,,,,,white,cross
92.0,6.0,2.0,1.0,3.0,3.0,309.2758555430919,2.0,1.0,part_1,,,,,,,,,,,,,magenta,diamond
114.0,6.0,2.0,1.0,1.0,1.0,478.1856478657573,2.0,1.0,part_1,,,,,,,,,,,,,magenta,diamond
383.0,4.0,4.0,0.0,2.0,2.0,388.5014657862484,2.0,1.0,part_1,,,,,,,,,,,,,gray,hexagon
194.0,7.0,3.0,1.0,4.0,4.0,309.6855466719717,2.0,1.0,part_1,,,,,,,,,,,,,white,cross
0.0,5.0,0.0,1.0,2.0,2.0,335.016363998875,2.0,1.0,part_1,,,,,,,,,,,,,green,I
34.0,1.0,1.0,0.0,1.0,1.0,324.1105938795954,2.0,1.0,part_1,,,,,,,,,,,,,cyan,flipped triangle
418.0,4.0,4.0,0.0,2.0,2.0,425.9510042611509,2.0,1.0,part_1,,,,,,,,,,,,,gray,hexagon
383.0,8.0,4.0,1.0,3.0,3.0,346.9367825891822,2.0,1.0,part_1,,,,,,,,,,,,,blue,square
176.0,7.0,3.0,1.0,2.0,2.0,359.8135893698782,2.0,1.0,part_1,,,,,,,,,,,,,white,cross
70.0,5.0,1.0,1.0,4.0,4.0,336.1887212377041,2.0,1.0,part_1,,,,,,,,,,,,,green,I
202.0,7.0,3.0,1.0,1.0,1.0,405.8451435994357,2.0,1.0,part_1,,,,,,,,,,,,,white,cross
406.0,4.0,4.0,0.0,3.0,3.0,325.1455056015402,2.0,1.0,part_1,,,,,,,,,,,,,gray,hexagon
207.0,3.0,3.0,0.0,4.0,4.0,327.219424303621,2.0,1.0,part_1,,,,,,,,,,,,,orange,circle
424.0,4.0,4.0,0.0,1.0,1.0,327.0589266903698,2.0,1.0,part_1,,,,,,,,,,,,,gray,hexagon
0.0,2.0,0.0,0.0,2.0,2.0,384.5995485316962,2.0,1.0,part_1,,,,,,,,,,,,,yellow,triangle
30.0,1.0,1.0,0.0,4.0,4.0,316.6732252575457,2.0,1.0,part_1,,,,,,,,,,,,,cyan,flipped triangle
206.0,7.0,3.0,1.0,2.0,2.0,374.9005612917244,2.0,1.0,part_1,,,,,,,,,,,,,white,cross
0.0,8.0,0.0,1.0,1.0,1.0,329.583179904148,2.0,1.0,part_1,,,,,,,,,,,,,blue,square
117.0,2.0,2.0,0.0,2.0,2.0,352.2535534575581,2.0,1.0,part_1,,,,,,,,,,,,,yellow,triangle
0.0,2.0,0.0,0.0,3.0,3.0,533.360700821504,2.0,1.0,part_1,,,,,,,,,,,,,yellow,triangle
392.0,8.0,4.0,1.0,1.0,1.0,331.6816498991102,2.0,1.0,part_1,,,,,,,,,,,,,blue,square
221.0,3.0,3.0,0.0,4.0,4.0,578.4915965050459,2.0,1.0,part_1,,,,,,,,,,,,,orange,circle
45.0,5.0,1.0,1.0,4.0,4.0,389.2630455084145,2.0,1.0,part_1,,,,,,,,,,,,,green,I
55.0,1.0,1.0,0.0,2.0,2.0,356.2897320371121,2.0,1.0,part_1,,,,,,,,,,,,,cyan,flipped triangle
62.0,5.0,1.0,1.0,1.0,1.0,312.4638176523149,2.0,1.0,part_1,,,,,,,,,,,,,green,I
195.0,7.0,3.0,1.0,4.0,4.0,333.7660413235426,2.0,1.0,part_1,,,,,,,,,,,,,white,cross
219.0,3.0,3.0,0.0,3.0,3.0,401.7354915849864,2.0,1.0,part_1,,,,,,,,,,,,,orange,circle
0.0,5.0,0.0,1.0,2.0,2.0,324.1948240902275,2.0,1.0,part_1,,,,,,,,,,,,,green,I
0.0,3.0,0.0,0.0,1.0,1.0,347.0115759409964,2.0,1.0,part_1,,,,,,,,,,,,,orange,circle
379.0,8.0,4.0,1.0,3.0,3.0,357.8487758059054,2.0,1.0,part_1,,,,,,,,,,,,,blue,square
78.0,2.0,2.0,0.0,3.0,3.0,370.9276432637125,2.0,1.0,part_1,,,,,,,,,,,,,yellow,triangle
0.0,1.0,0.0,0.0,1.0,1.0,381.7342668771744,2.0,1.0,part_1,,,,,,,,,,,,,cyan,flipped triangle
69.0,5.0,1.0,1.0,3.0,3.0,405.766031704843,2.0,1.0,part_1,,,,,,,,,,,,,green,I
93.0,6.0,2.0,1.0,4.0,4.0,327.1703468635678,2.0,1.0,part_1,,,,,,,,,,,,,magenta,diamond
85.0,6.0,2.0,1.0,2.0,2.0,316.4333312306553,2.0,1.0,part_1,,,,,,,,,,,,,magenta,diamond
419.0,8.0,4.0,1.0,2.0,2.0,340.8929219003767,2.0,1.0,part_1,,,,,,,,,,,,,blue,square
202.0,3.0,3.0,0.0,2.0,2.0,364.1841739881784,2.0,1.0,part_1,,,,,,,,,,,,,orange,circle
111.0,6.0,2.0,1.0,2.0,2.0,329.0144901257008,2.0,1.0,part_1,,,,,,,,,,,,,magenta,diamond
214.0,7.0,3.0,1.0,4.0,4.0,296.347425552085,2.0,1.0,part_1,,,,,,,,,,,,,white,cross
414.0,4.0,4.0,0.0,4.0,4.0,385.8776716515422,2.0,1.0,part_1,,,,,,,,,,,,,gray,hexagon
423.0,4.0,4.0,0.0,3.0,3.0,309.5744166057557,2.0,1.0,part_1,,,,,,,,,,,,,gray,hexagon
106.0,6.0,2.0,1.0,2.0,2.0,332.5374249834567,2.0,1.0,part_1,,,,,,,,,,,,,magenta,diamond
392.0,8.0,4.0,1.0,2.0,2.0,343.536329921335,2.0,1.0,part_1,,,,,,,,,,,,,blue,square
423.0,8.0,4.0,1.0,4.0,4.0,378.2913244795054,2.0,1.0,part_1,,,,,,,,,,,,,blue,square
377.0,8.0,4.0,1.0,1.0,1.0,366.9801417272538,2.0,1.0,part_1,,,,,,,,,,,,,blue,square
0.0,1.0,0.0,0.0,4.0,4.0,299.6334091294557,2.0,1.0,part_1,,,,,,,,,,,,,cyan,flipped triangle
0.0,8.0,0.0,1.0,4.0,4.0,446.2709832005203,2.0,1.0,part_1,,,,,,,,,,,,,blue,square
195.0,3.0,3.0,0.0,1.0,1.0,323.1259642634541,2.0,1.0,part_1,,,,,,,,,,,,,orange,circle
118.0,2.0,2.0,0.0,1.0,1.0,370.8127136342227,2.0,1.0,part_1,,,,,,,,,,,,,yellow,triangle
0.0,6.0,0.0,1.0,3.0,3.0,290.0141265708953,2.0,1.0,part_1,,,,,,,,,,,,,magenta,diamond
183.0,3.0,3.0,0.0,2.0,2.0,371.5407098643482,2.0,1.0,part_1,,,,,,,,,,,,,orange,circle
0.0,5.0,0.0,1.0,4.0,4.0,349.2798912338912,2.0,1.0,part_1,,,,,,,,,,,,,green,I
0.0,2.0,0.0,0.0,1.0,1.0,348.9065223839134,2.0,1.0,part_1,,,,,,,,,,,,,yellow,triangle
104.0,2.0,2.0,0.0,1.0,1.0,856.1334086116403,2.0,1.0,part_1,,,,,,,,,,,,,yellow,triangle
71.0,1.0,1.0,0.0,3.0,3.0,462.2188389766961,2.0,1.0,part_1,,,,,,,,,,,,,cyan,flipped triangle
418.0,8.0,4.0,1.0,4.0,4.0,453.2532102894038,2.0,1.0,part_1,,,,,,,,,,,,,blue,square
220.0,7.0,3.0,1.0,2.0,2.0,474.6574375312775,2.0,1.0,part_1,,,,,,,,,,,,,white,cross
418.0,8.0,4.0,1.0,2.0,2.0,340.610533952713,2.0,1.0,part_1,,,,,,,,,,,,,blue,square
424.0,4.0,4.0,0.0,3.0,3.0,374.9874390196055,2.0,1.0,part_1,,,,,,,,,,,,,gray,hexagon
395.0,8.0,4.0,1.0,4.0,4.0,340.7194865867495,2.0,1.0,part_1,,,,,,,,,,,,,blue,square
106.0,6.0,2.0,1.0,4.0,4.0,285.0570932496339,2.0,1.0,part_1,,,,,,,,,,,,,magenta,diamond
117.0,6.0,2.0,1.0,1.0,1.0,298.0383704416454,2.0,1.0,part_1,,,,,,,,,,,,,magenta,diamond
99.0,6.0,2.0,1.0,1.0,1.0,297.9456747416407,2.0,1.0,part_1,,,,,,,,,,,,,magenta,diamond
183.0,7.0,3.0,1.0,1.0,1.0,500.8063707500696,2.0,1.0,part_1,,,,,,,,,,,,,white,cross
118.0,6.0,2.0,1.0,2.0,2.0,378.1388029456138,2.0,1.0,part_1,,,,,,,,,,,,,magenta,diamond
215.0,7.0,3.0,1.0,3.0,3.0,288.5281518101692,2.0,1.0,part_1,,,,,,,,,,,,,white,cross
45.0,1.0,1.0,0.0,2.0,2.0,335.4321937076747,2.0,1.0,part_1,,,,,,,,,,,,,cyan,flipped triangle
0.0,3.0,0.0,0.0,3.0,3.0,492.4596326891333,2.0,1.0,part_1,,,,,,,,,,,,,orange,circle
211.0,3.0,3.0,0.0,2.0,2.0,347.5789555814117,2.0,1.0,part_1,,,,,,,,,,,,,orange,circle
0.0,8.0,0.0,1.0,1.0,1.0,382.5240149162709,2.0,1.0,part_1,,,,,,,,,,,,,blue,square
59.0,5.0,1.0,1.0,3.0,3.0,324.1767429281026,2.0,1.0,part_1,,,,,,,,,,,,,green,I
400.0,4.0,4.0,0.0,2.0,2.0,360.49814382568,2.0,1.0,part_1,,,,,,,,,,,,,gray,hexagon
392.0,4.0,4.0,0.0,1.0,1.0,350.4227362573147,2.0,1.0,part_1,,,,,,,,,,,,,gray,hexagon
89.0,2.0,2.0,0.0,4.0,4.0,315.1282232720405,2.0,1.0,part_1,,,,,,,,,,,,,yellow,triangle
0.0,5.0,0.0,1.0,1.0,1.0,328.2122812233865,2.0,1.0,part_1,,,,,,,,,,,,,green,I
406.0,8.0,4.0,1.0,2.0,2.0,329.2782001662999,2.0,1.0,part_1,,,,,,,,,,,,,blue,square
60.0,5.0,1.0,1.0,2.0,2.0,316.9550276361406,2.0,1.0,part_1,,,,,,,,,,,,,green,I
38.0,1.0,1.0,0.0,3.0,3.0,441.1848373711109,2.0,1.0,part_1,,,,,,,,,,,,,cyan,flipped triangle
380.0,4.0,4.0,0.0,3.0,3.0,408.2138000521809,2.0,1.0,part_1,,,,,,,,,,,,,gray,hexagon
0.0,8.0,0.0,1.0,2.0,2.0,352.0133465062827,2.0,1.0,part_1,,,,,,,,,,,,,blue,square
99.0,2.0,2.0,0.0,2.0,2.0,354.0908771101385,2.0,1.0,part_1,,,,,,,,,,,,,yellow,triangle
114.0,2.0,2.0,0.0,1.0,1.0,365.7043925486505,2.0,2.0,part_1,,,,,,,,,,,,,yellow,triangle
36.0,1.0,1.0,0.0,2.0,2.0,709.7941520623863,3.0,1.0,part_1,,,,,,,,,,,,,cyan,flipped triangle
379.0,4.0,4.0,0.0,3.0,3.0,326.7937279306352,3.0,1.0,part_1,,,,,,,,,,,,,gray,hexagon
27.0,5.0,1.0,1.0,1.0,1.0,283.732711803168,3.0,1.0,part_1,,,,,,,,,,,,,green,I
423.0,8.0,4.0,1.0,1.0,1.0,305.6601758580655,3.0,1.0,part_1,,,,,,,,,,,,,blue,square
0.0,5.0,0.0,1.0,2.0,2.0,385.1908158976584,3.0,1.0,part_1,,,,,,,,,,,,,green,I
414.0,8.0,4.0,1.0,4.0,4.0,419.993533520028,3.0,1.0,part_1,,,,,,,,,,,,,blue,square
27.0,1.0,1.0,0.0,1.0,1.0,421.0586766712367,3.0,1.0,part_1,,,,,,,,,,,,,cyan,flipped triangle
60.0,1.0,1.0,0.0,1.0,1.0,263.2740272674709,3.0,1.0,part_1,,,,,,,,,,,,,cyan,flipped triangle
111.0,2.0,2.0,0.0,3.0,3.0,365.6440472695976,3.0,1.0,part_1,,,,,,,,,,,,,yellow,triangle
58.0,1.0,1.0,0.0,1.0,1.0,341.9823565054685,3.0,1.0,part_1,,,,,,,,,,,,,cyan,flipped triangle
412.0,4.0,4.0,0.0,4.0,4.0,274.8532623518258,3.0,1.0,part_1,,,,,,,,,,,,,gray,hexagon
0.0,3.0,0.0,0.0,2.0,2.0,309.6266090869903,3.0,1.0,part_1,,,,,,,,,,,,,orange,circle
0.0,2.0,0.0,0.0,1.0,1.0,390.3018811251968,3.0,1.0,part_1,,,,,,,,,,,,,yellow,triangle
0.0,8.0,0.0,1.0,1.0,1.0,413.4578960947692,3.0,1.0,part_1,,,,,,,,,,,,,blue,square
40.0,1.0,1.0,0.0,1.0,1.0,356.8245694041252,3.0,1.0,part_1,,,,,,,,,,,,,cyan,flipped triangle
0.0,4.0,0.0,0.0,2.0,2.0,369.2489385139197,3.0,2.0,part_1,,,,,,,,,,,,,gray,hexagon
124.0,2.0,2.0,0.0,4.0,4.0,347.2843195777386,3.0,1.0,part_1,,,,,,,,,,,,,yellow,triangle
204.0,3.0,3.0,0.0,2.0,2.0,370.7944548223167,3.0,1.0,part_1,,,,,,,,,,,,,orange,circle
400.0,8.0,4.0,1.0,2.0,2.0,394.037535879761,3.0,1.0,part_1,,,,,,,,,,,,,blue,square
85.0,2.0,2.0,0.0,2.0,2.0,338.4511820040643,3.0,1.0,part_1,,,,,,,,,,,,,yellow,triangle
52.0,5.0,1.0,1.0,1.0,1.0,350.8942467160523,3.0,1.0,part_1,,,,,,,,,,,,,green,I
402.0,4.0,4.0,0.0,2.0,2.0,373.0270431842655,3.0,1.0,part_1,,,,,,,,,,,,,gray,hexagon
195.0,7.0,3.0,1.0,3.0,3.0,371.7435982543975,3.0,1.0,part_1,,,,,,,,,,,,,white,cross
203.0,3.0,3.0,0.0,3.0,3.0,565.0763895828277,3.0,1.0,part_1,,,,,,,,,,,,,orange,circle
106.0,2.0,2.0,0.0,2.0,2.0,362.9334629513323,3.0,1.0,part_1,,,,,,,,,,,,,yellow,triangle
418.0,8.0,4.0,1.0,3.0,3.0,431.0151888057589,3.0,1.0,part_1,,,,,,,,,,,,,blue,square
0.0,3.0,0.0,0.0,1.0,1.0,375.2625151537359,3.0,1.0,part_1,,,,,,,,,,,,,orange,circle
109.0,6.0,2.0,1.0,2.0,2.0,331.632794579491,3.0,1.0,part_1,,,,,,,,,,,,,magenta,diamond
87.0,6.0,2.0,1.0,4.0,4.0,375.7633303757757,3.0,1.0,part_1,,,,,,,,,,,,,magenta,diamond
105.0,2.0,2.0,0.0,4.0,4.0,331.6674956586212,3.0,1.0,part_1,,,,,,,,,,,,,yellow,triangle
55.0,5.0,1.0,1.0,3.0,3.0,478.7277097348124,3.0,1.0,part_1,,,,,,,,,,,,,green,I
42.0,5.0,1.0,1.0,4.0,4.0,445.9563912823796,3.0,1.0,part_1,,,,,,,,,,,,,green,I
101.0,2.0,2.0,0.0,1.0,1.0,323.2858525589108,3.0,1.0,part_1,,,,,,,,,,,,,yellow,triangle
101.0,6.0,2.0,1.0,1.0,1.0,322.7146544959396,3.0,1.0,part_1,,,,,,,,,,,,,magenta,diamond
0.0,6.0,0.0,1.0,2.0,2.0,356.7283840384334,3.0,1.0,part_1,,,,,,,,,,,,,magenta,diamond
0.0,8.0,0.0,1.0,1.0,1.0,413.894034223631,3.0,1.0,part_1,,,,,,,,,,,,,blue,square
58.0,1.0,1.0,0.0,4.0,4.0,651.2851074803621,3.0,1.0,part_1,,,,,,,,,,,,,cyan,flipped triangle
0.0,2.0,0.0,0.0,1.0,1.0,505.1176669076085,3.0,1.0,part_1,,,,,,,,,,,,,yellow,triangle
78.0,6.0,2.0,1.0,4.0,4.0,786.5277652163059,3.0,1.0,part_1,,,,,,,,,,,,,magenta,diamond
0.0,1.0,0.0,0.0,2.0,2.0,438.0022592376917,3.0,1.0,part_1,,,,,,,,,,,,,cyan,flipped triangle
70.0,1.0,1.0,0.0,3.0,3.0,393.9880135003477,3.0,1.0,part_1,,,,,,,,,,,,,cyan,flipped triangle
118.0,2.0,2.0,0.0,4.0,4.0,619.8987257666886,3.0,1.0,part_1,,,,,,,,,,,,,yellow,triangle
213.0,7.0,3.0,1.0,3.0,3.0,360.958666075021,3.0,1.0,part_1,,,,,,,,,,,,,white,cross
221.0,7.0,3.0,1.0,4.0,4.0,315.9919988829642,3.0,1.0,part_1,,,,,,,,,,,,,white,cross
390.0,8.0,4.0,1.0,3.0,3.0,362.1757463552058,3.0,1.0,part_1,,,,,,,,,,,,,blue,square
382.0,4.0,4.0,0.0,4.0,4.0,306.0300529468804,3.0,1.0,part_1,,,,,,,,,,,,,gray,hexagon
191.0,3.0,3.0,0.0,2.0,2.0,565.9423070028424,3.0,1.0,part_1,,,,,,,,,,,,,orange,circle
183.0,3.0,3.0,0.0,3.0,3.0,453.5172225441783,3.0,1.0,part_1,,,,,,,,,,,,,orange,circle
221.0,7.0,3.0,1.0,1.0,1.0,365.48123322427267,3.0,1.0,part_1,,,,,,,,,,,,,white,cross
208.0,3.0,3.0,0.0,3.0,3.0,342.9503804072737,3.0,1.0,part_1,,,,,,,,,,,,,orange,circle
389.0,4.0,4.0,0.0,1.0,1.0,354.1441599372774,3.0,1.0,part_1,,,,,,,,,,,,,gray,hexagon
106.0,2.0,2.0,0.0,1.0,1.0,345.3597635962069,3.0,1.0,part_1,,,,,,,,,,,,,yellow,triangle
0.0,7.0,0.0,1.0,4.0,4.0,467.2004682943225,3.0,1.0,part_1,,,,,,,,,,,,,white,cross
0.0,3.0,0.0,0.0,4.0,4.0,356.0351526830345,3.0,1.0,part_1,,,,,,,,,,,,,orange,circle
424.0,8.0,4.0,1.0,4.0,4.0,310.6719763018191,3.0,1.0,part_1,,,,,,,,,,,,,blue,square
182.0,3.0,3.0,0.0,4.0,4.0,480.241219047457,3.0,1.0,part_1,,,,,,,,,,,,,orange,circle
410.0,4.0,4.0,0.0,4.0,4.0,356.8628241773695,3.0,1.0,part_1,,,,,,,,,,,,,gray,hexagon
80.0,2.0,2.0,0.0,3.0,3.0,369.5003483444452,3.0,1.0,part_1,,,,,,,,,,,,,yellow,triangle
219.0,7.0,3.0,1.0,3.0,3.0,438.1982744671404,3.0,1.0,part_1,,,,,,,,,,,,,white,cross
224.0,3.0,3.0,0.0,2.0,2.0,371.3331918697804,3.0,1.0,part_1,,,,,,,,,,,,,orange,circle
218.0,3.0,3.0,0.0,1.0,1.0,303.5988076590001,3.0,1.0,part_1,,,,,,,,,,,,,orange,circle
389.0,8.0,4.0,1.0,1.0,1.0,372.5979379378259,3.0,1.0,part_1,,,,,,,,,,,,,blue,square
0.0,5.0,0.0,1.0,2.0,2.0,484.8471956793219,3.0,1.0,part_1,,,,,,,,,,,,,green,I
193.0,3.0,3.0,0.0,2.0,2.0,361.8897625710815,3.0,1.0,part_1,,,,,,,,,,,,,orange,circle
0.0,4.0,0.0,0.0,1.0,1.0,373.1930104549974,3.0,1.0,part_1,,,,,,,,,,,,,gray,hexagon
392.0,4.0,4.0,0.0,2.0,2.0,508.7334669660777,3.0,1.0,part_1,,,,,,,,,,,,,gray,hexagon
57.0,1.0,1.0,0.0,3.0,3.0,713.8455915264785,3.0,1.0,part_1,,,,,,,,,,,,,cyan,flipped triangle
223.0,3.0,3.0,0.0,4.0,4.0,588.7859272770584,3.0,1.0,part_1,,,,,,,,,,,,,orange,circle
116.0,2.0,2.0,0.0,3.0,3.0,464.8703143466264,3.0,1.0,part_1,,,,,,,,,,,,,yellow,triangle
0.0,2.0,0.0,0.0,2.0,2.0,332.6303549110889,3.0,1.0,part_1,,,,,,,,,,,,,yellow,triangle
0.0,1.0,0.0,0.0,3.0,3.0,320.5851481761783,3.0,1.0,part_1,,,,,,,,,,,,,cyan,flipped triangle
87.0,2.0,2.0,0.0,1.0,1.0,355.9027696028352,3.0,1.0,part_1,,,,,,,,,,,,,yellow,triangle
0.0,4.0,0.0,0.0,1.0,1.0,309.9382126238197,3.0,1.0,part_1,,,,,,,,,,,,,gray,hexagon
106.0,2.0,2.0,0.0,3.0,3.0,276.0067628696561,3.0,1.0,part_1,,,,,,,,,,,,,yellow,triangle
0.0,5.0,0.0,1.0,1.0,1.0,299.5127344038337,3.0,1.0,part_1,,,,,,,,,,,,,green,I
424.0,8.0,4.0,1.0,3.0,3.0,334.8063253797591,3.0,1.0,part_1,,,,,,,,,,,,,blue,square
44.0,5.0,1.0,1.0,3.0,3.0,358.5867877118289,3.0,1.0,part_1,,,,,,,,,,,,,green,I
69.0,5.0,1.0,1.0,4.0,4.0,279.7273704782128,3.0,1.0,part_1,,,,,,,,,,,,,green,I
44.0,1.0,1.0,0.0,4.0,4.0,315.01738820225,3.0,1.0,part_1,,,,,,,,,,,,,cyan,flipped triangle
40.0,5.0,1.0,1.0,2.0,2.0,392.8949194960296,3.0,1.0,part_1,,,,,,,,,,,,,green,I
71.0,5.0,1.0,1.0,1.0,1.0,338.2731815800071,3.0,1.0,part_1,,,,,,,,,,,,,green,I
176.0,3.0,3.0,0.0,4.0,4.0,472.6623594760895,3.0,1.0,part_1,,,,,,,,,,,,,orange,circle
90.0,2.0,2.0,0.0,1.0,1.0,371.9576552975923,3.0,1.0,part_1,,,,,,,,,,,,,yellow,triangle
379.0,8.0,4.0,1.0,4.0,4.0,428.7591048050672,3.0,1.0,part_1,,,,,,,,,,,,,blue,square
0.0,7.0,0.0,1.0,4.0,4.0,317.9771639406681,3.0,1.0,part_1,,,,,,,,,,,,,white,cross
395.0,4.0,4.0,0.0,1.0,1.0,431.6495133098215,3.0,1.0,part_1,,,,,,,,,,,,,gray,hexagon
57.0,5.0,1.0,1.0,1.0,1.0,362.3529085889458,3.0,1.0,part_1,,,,,,,,,,,,,green,I
114.0,6.0,2.0,1.0,3.0,3.0,363.5291513055563,3.0,1.0,part_1,,,,,,,,,,,,,magenta,diamond
401.0,4.0,4.0,0.0,1.0,1.0,354.1583179030567,3.0,1.0,part_1,,,,,,,,,,,,,gray,hexagon
69.0,5.0,1.0,1.0,3.0,3.0,421.641276916489,3.0,1.0,part_1,,,,,,,,,,,,,green,I
399.0,4.0,4.0,0.0,4.0,4.0,410.9634067863226,3.0,1.0,part_1,,,,,,,,,,,,,gray,hexagon
0.0,6.0,0.0,1.0,4.0,4.0,410.2592542767524,3.0,1.0,part_1,,,,,,,,,,,,,magenta,diamond
0.0,2.0,0.0,0.0,3.0,3.0,343.2982456870377,3.0,2.0,part_1,,,,,,,,,,,,,yellow,triangle
50.0,5.0,1.0,1.0,2.0,2.0,414.0256561804563,3.0,1.0,part_1,,,,,,,,,,,,,green,I
111.0,6.0,2.0,1.0,3.0,3.0,649.3302865419537,3.0,1.0,part_1,,,,,,,,,,,,,magenta,diamond
382.0,8.0,4.0,1.0,1.0,1.0,560.2527817245573,3.0,1.0,part_1,,,,,,,,,,,,,blue,square
202.0,3.0,3.0,0.0,3.0,3.0,514.3448561429977,3.0,1.0,part_1,,,,,,,,,,,,,orange,circle
0.0,8.0,0.0,1.0,4.0,4.0,335.6984888669103,3.0,1.0,part_1,,,,,,,,,,,,,blue,square
69.0,1.0,1.0,0.0,4.0,4.0,336.5921082440763,3.0,1.0,part_1,,,,,,,,,,,,,cyan,flipped triangle
0.0,5.0,0.0,1.0,4.0,4.0,303.2259037718177,3.0,1.0,part_1,,,,,,,,,,,,,green,I
423.0,4.0,4.0,0.0,3.0,3.0,467.7662178874016,4.0,1.0,part_1,,,,,,,,,,,,,gray,hexagon
0.0,8.0,0.0,1.0,1.0,1.0,309.8960919305682,4.0,1.0,part_1,,,,,,,,,,,,,blue,square
94.0,2.0,2.0,0.0,1.0,1.0,287.5809639226645,4.0,1.0,part_1,,,,,,,,,,,,,yellow,triangle
38.0,5.0,1.0,1.0,3.0,3.0,276.6559442970902,4.0,1.0,part_1,,,,,,,,,,,,,green,I
44.0,5.0,1.0,1.0,3.0,3.0,366.6382078081369,4.0,1.0,part_1,,,,,,,,,,,,,green,I
125.0,6.0,2.0,1.0,3.0,3.0,356.0883526224643,4.0,1.0,part_1,,,,,,,,,,,,,magenta,diamond
80.0,2.0,2.0,0.0,1.0,1.0,300.8251113351434,4.0,1.0,part_1,,,,,,,,,,,,,yellow,triangle
191.0,7.0,3.0,1.0,1.0,1.0,301.9556144718081,4.0,1.0,part_1,,,,,,,,,,,,,white,cross
124.0,6.0,2.0,1.0,3.0,3.0,267.8952419664711,4.0,1.0,part_1,,,,,,,,,,,,,magenta,diamond
0.0,7.0,0.0,1.0,1.0,1.0,303.1342490576207,4.0,1.0,part_1,,,,,,,,,,,,,white,cross
401.0,8.0,4.0,1.0,3.0,3.0,292.0912522822618,4.0,1.0,part_1,,,,,,,,,,,,,blue,square
80.0,6.0,2.0,1.0,1.0,1.0,281.1055509373545,4.0,1.0,part_1,,,,,,,,,,,,,magenta,diamond
390.0,8.0,4.0,1.0,1.0,1.0,316.6108685545623,4.0,2.0,part_1,,,,,,,,,,,,,blue,square
189.0,7.0,3.0,1.0,1.0,1.0,317.9779765196144,4.0,1.0,part_1,,,,,,,,,,,,,white,cross
384.0,4.0,4.0,0.0,1.0,1.0,250.13088691048318,4.0,1.0,part_1,,,,,,,,,,,,,gray,hexagon
221.0,3.0,3.0,0.0,2.0,2.0,386.8415681645274,4.0,1.0,part_1,,,,,,,,,,,,,orange,circle
75.0,1.0,1.0,0.0,3.0,3.0,329.1997150518,4.0,1.0,part_1,,,,,,,,,,,,,cyan,flipped triangle
114.0,2.0,2.0,0.0,4.0,4.0,297.0978734083473,4.0,1.0,part_1,,,,,,,,,,,,,yellow,triangle
183.0,7.0,3.0,1.0,3.0,3.0,275.1027613412589,4.0,1.0,part_1,,,,,,,,,,,,,white,cross
78.0,2.0,2.0,0.0,2.0,2.0,309.013037243858,4.0,1.0,part_1,,,,,,,,,,,,,yellow,triangle
202.0,3.0,3.0,0.0,3.0,3.0,320.9573898930102,4.0,1.0,part_1,,,,,,,,,,,,,orange,circle
93.0,2.0,2.0,0.0,2.0,2.0,355.3593487013131,4.0,1.0,part_1,,,,,,,,,,,,,yellow,triangle
183.0,3.0,3.0,0.0,3.0,3.0,277.0041350740939,4.0,1.0,part_1,,,,,,,,,,,,,orange,circle
390.0,4.0,4.0,0.0,3.0,3.0,298.9319982007146,4.0,1.0,part_1,,,,,,,,,,,,,gray,hexagon
42.0,1.0,1.0,0.0,3.0,3.0,446.81350979954,4.0,1.0,part_1,,,,,,,,,,,,,cyan,flipped triangle
412.0,8.0,4.0,1.0,2.0,2.0,392.7713986486196,4.0,1.0,part_1,,,,,,,,,,,,,blue,square
224.0,7.0,3.0,1.0,4.0,4.0,314.2580222338438,4.0,1.0,part_1,,,,,,,,,,,,,white,cross
74.0,1.0,1.0,0.0,2.0,2.0,539.3171922769397,4.0,1.0,part_1,,,,,,,,,,,,,cyan,flipped triangle
392.0,4.0,4.0,0.0,2.0,2.0,371.9098684377968,4.0,1.0,part_1,,,,,,,,,,,,,gray,hexagon
39.0,5.0,1.0,1.0,2.0,2.0,348.7787956837564,4.0,1.0,part_1,,,,,,,,,,,,,green,I
0.0,1.0,0.0,0.0,1.0,1.0,348.977762972936,4.0,1.0,part_1,,,,,,,,,,,,,cyan,flipped triangle
388.0,8.0,4.0,1.0,1.0,1.0,371.5000208467245,4.0,1.0,part_1,,,,,,,,,,,,,blue,square
0.0,1.0,0.0,0.0,1.0,1.0,417.4055061303079,4.0,1.0,part_1,,,,,,,,,,,,,cyan,flipped triangle
206.0,3.0,3.0,0.0,3.0,3.0,349.5299159549176,4.0,1.0,part_1,,,,,,,,,,,,,orange,circle
0.0,4.0,0.0,0.0,1.0,1.0,384.7913814242929,4.0,1.0,part_1,,,,,,,,,,,,,gray,hexagon
33.0,1.0,1.0,0.0,4.0,4.0,272.2210842184722,4.0,1.0,part_1,,,,,,,,,,,,,cyan,flipped triangle
0.0,3.0,0.0,0.0,4.0,4.0,307.1447839029133,4.0,1.0,part_1,,,,,,,,,,,,,orange,circle
207.0,7.0,3.0,1.0,3.0,3.0,319.4706796202808,4.0,1.0,part_1,,,,,,,,,,,,,white,cross
48.0,5.0,1.0,1.0,2.0,2.0,332.3904408607632,4.0,1.0,part_1,,,,,,,,,,,,,green,I
0.0,1.0,0.0,0.0,2.0,2.0,389.2823113128543,4.0,1.0,part_1,,,,,,,,,,,,,cyan,flipped triangle
189.0,3.0,3.0,0.0,4.0,4.0,276.9388686865568,4.0,1.0,part_1,,,,,,,,,,,,,orange,circle
178.0,7.0,3.0,1.0,1.0,1.0,278.1947636976838,4.0,2.0,part_1,,,,,,,,,,,,,white,cross
62.0,1.0,1.0,0.0,4.0,4.0,333.4890571422875,4.0,1.0,part_1,,,,,,,,,,,,,cyan,flipped triangle
0.0,1.0,0.0,0.0,3.0,3.0,311.8324356619268,4.0,1.0,part_1,,,,,,,,,,,,,cyan,flipped triangle
410.0,8.0,4.0,1.0,1.0,1.0,413.2994038518518,4.0,1.0,part_1,,,,,,,,,,,,,blue,square
204.0,7.0,3.0,1.0,4.0,4.0,325.1034419517964,4.0,1.0,part_1,,,,,,,,,,,,,white,cross
111.0,2.0,2.0,0.0,3.0,3.0,268.5535459313541,4.0,1.0,part_1,,,,,,,,,,,,,yellow,triangle
104.0,6.0,2.0,1.0,2.0,2.0,293.0327898357063,4.0,1.0,part_1,,,,,,,,,,,,,magenta,diamond
418.0,4.0,4.0,0.0,2.0,2.0,268.6841033864766,4.0,1.0,part_1,,,,,,,,,,,,,gray,hexagon
74.0,5.0,1.0,1.0,4.0,4.0,259.6706536132842,4.0,1.0,part_1,,,,,,,,,,,,,green,I
0.0,7.0,0.0,1.0,1.0,1.0,360.2788492571562,4.0,1.0,part_1,,,,,,,,,,,,,white,cross
0.0,3.0,0.0,0.0,3.0,3.0,248.199155787006,4.0,1.0,part_1,,,,,,,,,,,,,orange,circle
202.0,7.0,3.0,1.0,2.0,2.0,350.68299761042,4.0,1.0,part_1,,,,,,,,,,,,,white,cross
101.0,6.0,2.0,1.0,2.0,2.0,305.5964263621717,4.0,1.0,part_1,,,,,,,,,,,,,magenta,diamond
78.0,6.0,2.0,1.0,4.0,4.0,317.9527947213501,4.0,1.0,part_1,,,,,,,,,,,,,magenta,diamond
39.0,1.0,1.0,0.0,2.0,2.0,351.6326546669006,4.0,1.0,part_1,,,,,,,,,,,,,cyan,flipped triangle
87.0,6.0,2.0,1.0,3.0,3.0,351.6496082302183,4.0,1.0,part_1,,,,,,,,,,,,,magenta,diamond
0.0,3.0,0.0,0.0,3.0,3.0,365.0200045667588,4.0,1.0,part_1,,,,,,,,,,,,,orange,circle
406.0,4.0,4.0,0.0,1.0,1.0,501.3901460915804,4.0,1.0,part_1,,,,,,,,,,,,,gray,hexagon
33.0,1.0,1.0,0.0,1.0,1.0,331.735857296735,4.0,1.0,part_1,,,,,,,,,,,,,cyan,flipped triangle
221.0,3.0,3.0,0.0,1.0,1.0,377.7797715738415,4.0,1.0,part_1,,,,,,,,,,,,,orange,circle
0.0,8.0,0.0,1.0,4.0,4.0,310.287635307759,4.0,1.0,part_1,,,,,,,,,,,,,blue,square
78.0,6.0,2.0,1.0,4.0,4.0,345.8682305645197,4.0,1.0,part_1,,,,,,,,,,,,,magenta,diamond
0.0,6.0,0.0,1.0,4.0,4.0,267.5662916153669,4.0,1.0,part_1,,,,,,,,,,,,,magenta,diamond
36.0,5.0,1.0,1.0,2.0,2.0,345.1071977615356,4.0,1.0,part_1,,,,,,,,,,,,,green,I
33.0,5.0,1.0,1.0,1.0,1.0,325.0133283436298,4.0,1.0,part_1,,,,,,,,,,,,,green,I
399.0,4.0,4.0,0.0,4.0,4.0,336.6629818920046,4.0,1.0,part_1,,,,,,,,,,,,,gray,hexagon
418.0,4.0,4.0,0.0,2.0,2.0,416.4684538263827,4.0,1.0,part_1,,,,,,,,,,,,,gray,hexagon
383.0,8.0,4.0,1.0,1.0,1.0,336.5809416864067,4.0,1.0,part_1,,,,,,,,,,,,,blue,square
221.0,7.0,3.0,1.0,4.0,4.0,404.3910491745919,4.0,1.0,part_1,,,,,,,,,,,,,white,cross
51.0,1.0,1.0,0.0,2.0,2.0,325.9472800418734,4.0,1.0,part_1,,,,,,,,,,,,,cyan,flipped triangle
0.0,6.0,0.0,1.0,2.0,2.0,281.3383375760168,4.0,1.0,part_1,,,,,,,,,,,,,magenta,diamond
384.0,4.0,4.0,0.0,2.0,2.0,283.5231753997504,4.0,1.0,part_1,,,,,,,,,,,,,gray,hexagon
184.0,3.0,3.0,0.0,1.0,1.0,328.4898274578154,4.0,1.0,part_1,,,,,,,,,,,,,orange,circle
182.0,7.0,3.0,1.0,4.0,4.0,362.1754902414977,4.0,1.0,part_1,,,,,,,,,,,,,white,cross
215.0,3.0,3.0,0.0,1.0,1.0,486.0730634536594,4.0,1.0,part_1,,,,,,,,,,,,,orange,circle
33.0,1.0,1.0,0.0,4.0,4.0,329.787571914494,4.0,1.0,part_1,,,,,,,,,,,,,cyan,flipped triangle
69.0,1.0,1.0,0.0,2.0,2.0,431.0972117818892,4.0,1.0,part_1,,,,,,,,,,,,,cyan,flipped triangle
406.0,8.0,4.0,1.0,2.0,2.0,376.1021003592759,4.0,1.0,part_1,,,,,,,,,,,,,blue,square
59.0,1.0,1.0,0.0,1.0,1.0,366.8762005399912,4.0,1.0,part_1,,,,,,,,,,,,,cyan,flipped triangle
380.0,8.0,4.0,1.0,3.0,3.0,354.2284013237804,4.0,1.0,part_1,,,,,,,,,,,,,blue,square
193.0,7.0,3.0,1.0,1.0,1.0,276.6291531734168,4.0,1.0,part_1,,,,,,,,,,,,,white,cross
0.0,4.0,0.0,0.0,3.0,3.0,334.2644006479531,4.0,1.0,part_1,,,,,,,,,,,,,gray,hexagon
388.0,4.0,4.0,0.0,2.0,2.0,323.1244161725044,4.0,2.0,part_1,,,,,,,,,,,,,gray,hexagon
101.0,2.0,2.0,0.0,2.0,2.0,322.8941957931965,4.0,1.0,part_1,,,,,,,,,,,,,yellow,triangle
40.0,1.0,1.0,0.0,1.0,1.0,291.3950353395194,4.0,1.0,part_1,,,,,,,,,,,,,cyan,flipped triangle
211.0,7.0,3.0,1.0,2.0,2.0,325.4943233914673,4.0,1.0,part_1,,,,,,,,,,,,,white,cross
384.0,8.0,4.0,1.0,1.0,1.0,292.2234106808901,4.0,1.0,part_1,,,,,,,,,,,,,blue,square
406.0,4.0,4.0,0.0,4.0,4.0,338.1874435581267,4.0,1.0,part_1,,,,,,,,,,,,,gray,hexagon
399.0,8.0,4.0,1.0,2.0,2.0,327.4347910191864,4.0,1.0,part_1,,,,,,,,,,,,,blue,square
395.0,4.0,4.0,0.0,3.0,3.0,383.2664482761174,4.0,1.0,part_1,,,,,,,,,,,,,gray,hexagon
92.0,2.0,2.0,0.0,4.0,4.0,294.5944753009826,4.0,1.0,part_1,,,,,,,,,,,,,yellow,triangle
0.0,1.0,0.0,0.0,2.0,2.0,318.2865448761731,4.0,1.0,part_1,,,,,,,,,,,,,cyan,flipped triangle
42.0,1.0,1.0,0.0,4.0,4.0,339.5532798022032,4.0,1.0,part_1,,,,,,,,,,,,,cyan,flipped triangle
0.0,4.0,0.0,0.0,4.0,4.0,351.8866668455302,4.0,1.0,part_1,,,,,,,,,,,,,gray,hexagon
418.0,4.0,4.0,0.0,1.0,1.0,385.8840845059603,4.0,1.0,part_1,,,,,,,,,,,,,gray,hexagon
182.0,7.0,3.0,1.0,1.0,1.0,286.8558755144477,4.0,1.0,part_1,,,,,,,,,,,,,white,cross
189.0,7.0,3.0,1.0,3.0,3.0,330.9097967576235,4.0,1.0,part_1,,,,,,,,,,,,,white,cross
94.0,6.0,2.0,1.0,2.0,2.0,433.7449688464403,4.0,1.0,part_1,,,,,,,,,,,,,magenta,diamond
40.0,5.0,1.0,1.0,1.0,1.0,288.3213106542825,4.0,1.0,part_1,,,,,,,,,,,,,green,I
0.0,4.0,4.0,0.0,6.0,6.0,453.3677101135254,1.0,0.0,part_2,go,250.0,250.0,1.0,,,,,,,,,gray,hexagon
0.0,4.0,4.0,0.0,5.0,5.0,353.4221053123474,1.0,0.0,part_2,go,250.0,250.0,1.0,,,,,,,,,gray,hexagon
0.0,8.0,4.0,1.0,5.0,0.0,0.0,1.0,0.0,part_2,stop,250.0,250.0,4.0,,,,,,,,,blue,square
0.0,6.0,2.0,1.0,5.0,0.0,0.0,1.0,0.0,part_2,stop,300.0,250.0,4.0,,,,,,,,,magenta,diamond
0.0,8.0,4.0,1.0,5.0,0.0,0.0,1.0,0.0,part_2,stop,350.0,250.0,4.0,,,,,,,,,blue,square
0.0,3.0,3.0,0.0,5.0,5.0,582.9399970825762,1.0,0.0,part_2,go,400.0,250.0,1.0,,,,,,,,,orange,circle
0.0,6.0,2.0,1.0,6.0,0.0,0.0,1.0,0.0,part_2,stop,400.0,250.0,4.0,,,,,,,,,magenta,diamond
0.0,7.0,3.0,1.0,6.0,0.0,0.0,1.0,0.0,part_2,stop,400.0,300.0,4.0,,,,,,,,,white,cross
0.0,4.0,4.0,0.0,6.0,6.0,753.2853661105037,1.0,0.0,part_2,go,400.0,350.0,1.0,,,,,,,,,gray,hexagon
0.0,7.0,3.0,1.0,5.0,0.0,0.0,1.0,0.0,part_2,stop,400.0,350.0,4.0,,,,,,,,,white,cross
0.0,1.0,1.0,0.0,6.0,6.0,900.9285201318562,1.0,0.0,part_2,go,450.0,350.0,1.0,,,,,,,,,cyan,flipped triangle
0.0,6.0,2.0,1.0,6.0,0.0,0.0,1.0,0.0,part_2,stop,450.0,350.0,4.0,,,,,,,,,magenta,diamond
0.0,4.0,4.0,0.0,6.0,6.0,633.3403352182359,1.0,0.0,part_2,go,450.0,400.0,1.0,,,,,,,,,gray,hexagon
0.0,5.0,1.0,1.0,5.0,5.0,308.1224584020674,1.0,0.0,part_2,stop,450.0,400.0,3.0,,,,,,,,,green,I
0.0,8.0,4.0,1.0,5.0,0.0,0.0,1.0,0.0,part_2,stop,400.0,400.0,4.0,,,,,,,,,blue,square
0.0,3.0,3.0,0.0,6.0,6.0,376.5629418194294,1.0,0.0,part_2,go,450.0,400.0,1.0,,,,,,,,,orange,circle
0.0,7.0,3.0,1.0,6.0,0.0,0.0,1.0,0.0,part_2,stop,450.0,400.0,4.0,,,,,,,,,white,cross
0.0,2.0,2.0,0.0,6.0,6.0,445.7602174952626,1.0,0.0,part_2,go,450.0,450.0,1.0,,,,,,,,,yellow,triangle
0.0,2.0,2.0,0.0,6.0,6.0,593.1398493703455,1.0,0.0,part_2,go,450.0,450.0,1.0,,,,,,,,,yellow,triangle
0.0,8.0,4.0,1.0,5.0,5.0,356.9894090760499,1.0,0.0,part_2,stop,450.0,450.0,3.0,,,,,,,,,blue,square
0.0,2.0,2.0,0.0,6.0,6.0,560.0627493113279,1.0,0.0,part_2,go,400.0,450.0,1.0,,,,,,,,,yellow,triangle
0.0,7.0,3.0,1.0,5.0,0.0,0.0,1.0,0.0,part_2,stop,400.0,450.0,4.0,,,,,,,,,white,cross
0.0,5.0,1.0,1.0,5.0,0.0,0.0,1.0,0.0,part_2,stop,450.0,450.0,4.0,,,,,,,,,green,I
0.0,4.0,4.0,0.0,6.0,6.0,697.8781162761152,1.0,0.0,part_2,go,500.0,450.0,1.0,,,,,,,,,gray,hexagon
0.0,4.0,4.0,0.0,5.0,5.0,351.0778190102428,1.0,0.0,part_2,go,500.0,450.0,1.0,,,,,,,,,gray,hexagon
0.0,8.0,4.0,1.0,5.0,0.0,0.0,1.0,0.0,part_2,stop,500.0,450.0,4.0,,,,,,,,,blue,square
0.0,1.0,1.0,0.0,6.0,6.0,758.4531670436263,1.0,0.0,part_2,go,550.0,450.0,1.0,,,,,,,,,cyan,flipped triangle
0.0,5.0,1.0,1.0,6.0,6.0,307.6251193415373,1.0,0.0,part_2,stop,550.0,450.0,3.0,,,,,,,,,green,I
0.0,3.0,3.0,0.0,6.0,6.0,769.9242343660444,1.0,0.0,part_2,go,550.0,400.0,1.0,,,,,,,,,orange,circle
0.0,8.0,4.0,1.0,6.0,0.0,0.0,1.0,0.0,part_2,stop,550.0,400.0,4.0,,,,,,,,,blue,square
0.0,6.0,2.0,1.0,6.0,0.0,0.0,1.0,0.0,part_2,stop,550.0,450.0,4.0,,,,,,,,,magenta,diamond
0.0,6.0,2.0,1.0,6.0,6.0,638.6783982161433,1.0,0.0,part_2,go,550.0,500.0,1.0,,,,,,,,,magenta,diamond
0.0,1.0,1.0,0.0,5.0,5.0,627.9831051360816,1.0,0.0,part_2,go,550.0,500.0,1.0,,,,,,,,,cyan,flipped triangle
0.0,3.0,3.0,0.0,6.0,6.0,571.629875106737,1.0,0.0,part_2,go,550.0,500.0,1.0,,,,,,,,,orange,circle
0.0,6.0,2.0,1.0,5.0,5.0,347.0995638053864,1.0,0.0,part_2,stop,550.0,500.0,3.0,,,,,,,,,magenta,diamond
0.0,5.0,1.0,1.0,6.0,6.0,597.3993164952844,1.0,0.0,part_2,stop,500.0,500.0,3.0,,,,,,,,,green,I
0.0,4.0,4.0,0.0,6.0,6.0,1169.6071263868362,2.0,0.0,part_2,go,500.0,450.0,1.0,,,,,,,,,gray,hexagon
0.0,6.0,2.0,1.0,5.0,5.0,328.042397974059,2.0,0.0,part_2,stop,500.0,450.0,3.0,,,,,,,,,magenta,diamond
0.0,6.0,2.0,1.0,6.0,0.0,0.0,2.0,0.0,part_2,stop,450.0,450.0,4.0,,,,,,,,,magenta,diamond
0.0,7.0,3.0,1.0,5.0,5.0,240.190630313009,2.0,0.0,part_2,stop,450.0,500.0,3.0,,,,,,,,,white,cross
0.0,4.0,4.0,0.0,6.0,6.0,250.818254193291,2.0,0.0,part_2,go,400.0,500.0,1.0,,,,,,,,,gray,hexagon
0.0,6.0,2.0,1.0,6.0,0.0,0.0,2.0,0.0,part_2,stop,400.0,500.0,4.0,,,,,,,,,magenta,diamond
0.0,7.0,3.0,1.0,5.0,0.0,0.0,2.0,0.0,part_2,stop,400.0,550.0,4.0,,,,,,,,,white,cross
0.0,1.0,1.0,0.0,6.0,6.0,398.7159309908747,2.0,0.0,part_2,go,450.0,550.0,1.0,,,,,,,,,cyan,flipped triangle
0.0,7.0,3.0,1.0,6.0,6.0,669.9432611931115,2.0,0.0,part_2,go,450.0,550.0,1.0,,,,,,,,,white,cross
0.0,8.0,4.0,1.0,6.0,6.0,626.3270464260131,2.0,0.0,part_2,stop,450.0,550.0,3.0,,,,,,,,,blue,square
0.0,2.0,2.0,0.0,6.0,6.0,772.7720693219453,2.0,0.0,part_2,go,450.0,500.0,1.0,,,,,,,,,yellow,triangle
0.0,3.0,3.0,0.0,6.0,6.0,584.3432792462409,2.0,0.0,part_2,go,450.0,500.0,1.0,,,,,,,,,orange,circle
0.0,3.0,3.0,0.0,6.0,6.0,325.0701150391251,2.0,0.0,part_2,go,450.0,500.0,1.0,,,,,,,,,orange,circle
0.0,8.0,4.0,1.0,6.0,6.0,348.4468462411314,2.0,0.0,part_2,go,450.0,500.0,1.0,,,,,,,,,blue,square
0.0,3.0,3.0,0.0,5.0,5.0,360.500946175307,2.0,0.0,part_2,go,450.0,500.0,1.0,,,,,,,,,orange,circle
0.0,5.0,1.0,1.0,5.0,0.0,0.0,2.0,0.0,part_2,stop,450.0,500.0,4.0,,,,,,,,,green,I
0.0,1.0,1.0,0.0,5.0,5.0,665.4245899990201,2.0,0.0,part_2,go,500.0,500.0,1.0,,,,,,,,,cyan,flipped triangle
0.0,2.0,2.0,0.0,6.0,6.0,644.6269382722676,2.0,0.0,part_2,go,500.0,500.0,1.0,,,,,,,,,yellow,triangle
0.0,4.0,4.0,0.0,6.0,6.0,308.6452709976583,2.0,0.0,part_2,go,500.0,500.0,1.0,,,,,,,,,gray,hexagon
0.0,6.0,2.0,1.0,6.0,6.0,443.1402939371764,2.0,0.0,part_2,stop,500.0,500.0,3.0,,,,,,,,,magenta,diamond
0.0,3.0,3.0,0.0,6.0,6.0,814.7958230692893,2.0,0.0,part_2,go,500.0,450.0,1.0,,,,,,,,,orange,circle
0.0,1.0,1.0,0.0,5.0,5.0,333.3711070008576,2.0,0.0,part_2,go,500.0,450.0,1.0,,,,,,,,,cyan,flipped triangle
0.0,3.0,3.0,0.0,5.0,5.0,366.992951137945,2.0,0.0,part_2,go,500.0,450.0,1.0,,,,,,,,,orange,circle
0.0,5.0,1.0,1.0,5.0,0.0,0.0,2.0,0.0,part_2,stop,500.0,450.0,4.0,,,,,,,,,green,I
0.0,1.0,1.0,0.0,6.0,6.0,424.1592024918645,2.0,0.0,part_2,go,550.0,450.0,1.0,,,,,,,,,cyan,flipped triangle
0.0,5.0,1.0,1.0,5.0,5.0,797.2081261686981,2.0,0.0,part_2,go,550.0,450.0,1.0,,,,,,,,,green,I
0.0,5.0,1.0,1.0,6.0,6.0,966.7948421556504,2.0,0.0,part_2,stop,550.0,450.0,3.0,,,,,,,,,green,I
0.0,1.0,1.0,0.0,6.0,6.0,730.4611932486296,2.0,0.0,part_2,go,550.0,400.0,1.0,,,,,,,,,cyan,flipped triangle
0.0,8.0,4.0,1.0,6.0,6.0,1013.3092633914202,2.0,0.0,part_2,go,550.0,400.0,1.0,,,,,,,,,blue,square
0.0,4.0,4.0,0.0,6.0,6.0,507.2795532178134,2.0,0.0,part_2,go,550.0,400.0,1.0,,,,,,,,,gray,hexagon
0.0,2.0,2.0,0.0,6.0,6.0,485.8758763875812,2.0,0.0,part_2,go,550.0,400.0,1.0,,,,,,,,,yellow,triangle
0.0,5.0,1.0,1.0,5.0,0.0,0.0,2.0,0.0,part_2,stop,550.0,400.0,4.0,,,,,,,,,green,I
0.0,6.0,2.0,1.0,5.0,5.0,736.1098250839859,2.0,0.0,part_2,go,600.0,400.0,1.0,,,,,,,,,magenta,diamond
0.0,1.0,1.0,0.0,5.0,5.0,343.7003623694181,2.0,0.0,part_2,go,600.0,400.0,1.0,,,,,,,,,cyan,flipped triangle
0.0,7.0,3.0,1.0,6.0,6.0,478.8821111433208,2.0,0.0,part_2,stop,600.0,400.0,3.0,,,,,,,,,white,cross
0.0,8.0,4.0,1.0,6.0,0.0,0.0,2.0,0.0,part_2,stop,600.0,350.0,4.0,,,,,,,,,blue,square
0.0,7.0,3.0,1.0,6.0,6.0,484.8728240467608,3.0,0.0,part_2,go,600.0,400.0,1.0,,,,,,,,,white,cross
0.0,5.0,1.0,1.0,5.0,5.0,565.5348801519722,3.0,0.0,part_2,stop,600.0,400.0,3.0,,,,,,,,,green,I
0.0,1.0,1.0,0.0,6.0,6.0,913.7208091560752,3.0,0.0,part_2,go,550.0,400.0,1.0,,,,,,,,,cyan,flipped triangle
0.0,7.0,3.0,1.0,5.0,5.0,644.9102812912315,3.0,0.0,part_2,go,550.0,400.0,1.0,,,,,,,,,white,cross
0.0,8.0,4.0,1.0,5.0,5.0,343.0806649848819,3.0,0.0,part_2,stop,550.0,400.0,3.0,,,,,,,,,blue,square
0.0,6.0,2.0,1.0,5.0,0.0,0.0,3.0,0.0,part_2,stop,500.0,400.0,4.0,,,,,,,,,magenta,diamond
0.0,1.0,1.0,0.0,5.0,5.0,771.6103200800717,3.0,0.0,part_2,go,550.0,400.0,1.0,,,,,,,,,cyan,flipped triangle
0.0,6.0,2.0,1.0,5.0,5.0,728.4516973886639,3.0,0.0,part_2,stop,550.0,400.0,3.0,,,,,,,,,magenta,diamond
0.0,1.0,1.0,0.0,6.0,6.0,424.8488864395767,3.0,0.0,part_2,go,500.0,400.0,1.0,,,,,,,,,cyan,flipped triangle
0.0,8.0,4.0,1.0,6.0,0.0,0.0,3.0,0.0,part_2,stop,500.0,400.0,4.0,,,,,,,,,blue,square
0.0,2.0,2.0,0.0,5.0,5.0,684.6969698090106,3.0,0.0,part_2,go,500.0,450.0,1.0,,,,,,,,,yellow,triangle
0.0,1.0,1.0,0.0,5.0,5.0,731.7563851829618,3.0,0.0,part_2,go,500.0,450.0,1.0,,,,,,,,,cyan,flipped triangle
0.0,5.0,1.0,1.0,5.0,5.0,314.4986140541732,3.0,0.0,part_2,go,500.0,450.0,1.0,,,,,,,,,green,I
0.0,2.0,2.0,0.0,5.0,5.0,844.315460184589,3.0,0.0,part_2,go,500.0,450.0,1.0,,,,,,,,,yellow,triangle
0.0,5.0,1.0,1.0,6.0,6.0,384.2932824045419,3.0,0.0,part_2,stop,500.0,450.0,3.0,,,,,,,,,green,I
0.0,2.0,2.0,0.0,6.0,6.0,711.2732771784067,3.0,0.0,part_2,go,500.0,400.0,1.0,,,,,,,,,yellow,triangle
0.0,1.0,1.0,0.0,6.0,6.0,374.3949823547154,3.0,0.0,part_2,go,500.0,400.0,1.0,,,,,,,,,cyan,flipped triangle
0.0,2.0,2.0,0.0,5.0,5.0,296.3029302190989,3.0,0.0,part_2,go,500.0,400.0,1.0,,,,,,,,,yellow,triangle
0.0,8.0,4.0,1.0,6.0,6.0,331.6769949160516,3.0,0.0,part_2,stop,500.0,400.0,3.0,,,,,,,,,blue,square
0.0,1.0,1.0,0.0,6.0,6.0,682.346384273842,3.0,0.0,part_2,go,500.0,350.0,1.0,,,,,,,,,cyan,flipped triangle
0.0,5.0,1.0,1.0,5.0,5.0,726.8224400468171,3.0,0.0,part_2,go,500.0,350.0,1.0,,,,,,,,,green,I
0.0,3.0,3.0,0.0,5.0,5.0,457.7767292503267,3.0,0.0,part_2,go,500.0,350.0,1.0,,,,,,,,,orange,circle
0.0,8.0,4.0,1.0,6.0,6.0,358.1339898519218,3.0,0.0,part_2,go,500.0,350.0,1.0,,,,,,,,,blue,square
0.0,1.0,1.0,0.0,6.0,6.0,346.9827328808605,3.0,0.0,part_2,go,500.0,350.0,1.0,,,,,,,,,cyan,flipped triangle
0.0,1.0,1.0,0.0,5.0,5.0,291.160189313814,3.0,0.0,part_2,go,500.0,350.0,1.0,,,,,,,,,cyan,flipped triangle
0.0,5.0,1.0,1.0,6.0,6.0,293.590399203822,3.0,0.0,part_2,go,500.0,350.0,1.0,,,,,,,,,green,I
0.0,2.0,2.0,0.0,6.0,6.0,619.6497159544379,3.0,0.0,part_2,go,500.0,350.0,1.0,,,,,,,,,yellow,triangle
0.0,5.0,1.0,1.0,6.0,6.0,450.6301882211119,3.0,0.0,part_2,stop,500.0,350.0,3.0,,,,,,,,,green,I
0.0,1.0,1.0,0.0,5.0,5.0,339.2457549925893,3.0,0.0,part_2,go,500.0,300.0,1.0,,,,,,,,,cyan,flipped triangle
0.0,1.0,1.0,0.0,5.0,5.0,431.6928654443472,3.0,0.0,part_2,go,500.0,300.0,1.0,,,,,,,,,cyan,flipped triangle
0.0,8.0,4.0,1.0,6.0,6.0,566.2854823749512,3.0,0.0,part_2,go,500.0,300.0,1.0,,,,,,,,,blue,square
0.0,4.0,4.0,0.0,5.0,5.0,365.9904012456536,3.0,0.0,part_2,go,500.0,300.0,1.0,,,,,,,,,gray,hexagon
0.0,5.0,1.0,1.0,6.0,6.0,411.9492061436176,3.0,0.0,part_2,stop,500.0,300.0,3.0,,,,,,,,,green,I
0.0,5.0,1.0,1.0,6.0,0.0,0.0,3.0,0.0,part_2,stop,500.0,250.0,4.0,,,,,,,,,green,I
0.0,1.0,1.0,0.0,5.0,5.0,525.9609092026949,3.0,0.0,part_2,go,500.0,300.0,1.0,,,,,,,,,cyan,flipped triangle
0.0,4.0,4.0,0.0,5.0,5.0,492.7721791900694,3.0,0.0,part_2,go,500.0,300.0,1.0,,,,,,,,,gray,hexagon
0.0,3.0,3.0,0.0,6.0,6.0,1009.2006954364481,4.0,0.0,part_2,go,500.0,300.0,1.0,,,,,,,,,orange,circle
0.0,7.0,3.0,1.0,5.0,5.0,210.2854819968342,4.0,0.0,part_2,go,500.0,300.0,1.0,,,,,,,,,white,cross
0.0,5.0,1.0,1.0,5.0,5.0,359.0967499185353,4.0,0.0,part_2,go,500.0,300.0,1.0,,,,,,,,,green,I
0.0,7.0,3.0,1.0,6.0,6.0,280.0563352648169,4.0,0.0,part_2,stop,500.0,300.0,3.0,,,,,,,,,white,cross
0.0,4.0,4.0,0.0,5.0,5.0,495.4110488761216,4.0,0.0,part_2,go,500.0,250.0,1.0,,,,,,,,,gray,hexagon
0.0,1.0,1.0,0.0,5.0,5.0,381.981935352087,4.0,0.0,part_2,go,500.0,250.0,1.0,,,,,,,,,cyan,flipped triangle
0.0,4.0,4.0,0.0,6.0,6.0,271.7503882013261,4.0,0.0,part_2,go,500.0,250.0,1.0,,,,,,,,,gray,hexagon
0.0,8.0,4.0,1.0,5.0,5.0,316.9898772612214,4.0,0.0,part_2,stop,500.0,250.0,3.0,,,,,,,,,blue,square
0.0,2.0,2.0,0.0,5.0,5.0,981.0182210057974,4.0,0.0,part_2,go,450.0,250.0,1.0,,,,,,,,,yellow,triangle
0.0,7.0,3.0,1.0,5.0,5.0,408.7599352933466,4.0,0.0,part_2,stop,450.0,250.0,3.0,,,,,,,,,white,cross
0.0,4.0,4.0,0.0,5.0,5.0,499.4918524753302,4.0,0.0,part_2,go,400.0,250.0,1.0,,,,,,,,,gray,hexagon
0.0,6.0,2.0,1.0,6.0,6.0,624.4270501192659,4.0,0.0,part_2,go,400.0,250.0,1.0,,,,,,,,,magenta,diamond
0.0,6.0,2.0,1.0,6.0,0.0,0.0,4.0,0.0,part_2,stop,400.0,250.0,4.0,,,,,,,,,magenta,diamond
0.0,3.0,3.0,0.0,6.0,6.0,423.99302823469037,4.0,0.0,part_2,go,400.0,300.0,1.0,,,,,,,,,orange,circle
0.0,2.0,2.0,0.0,6.0,6.0,593.5211724136025,4.0,0.0,part_2,go,400.0,300.0,1.0,,,,,,,,,yellow,triangle
0.0,8.0,4.0,1.0,6.0,6.0,628.6061080172658,4.0,0.0,part_2,go,400.0,300.0,1.0,,,,,,,,,blue,square
0.0,3.0,3.0,0.0,5.0,5.0,415.430987952277,4.0,0.0,part_2,go,400.0,300.0,1.0,,,,,,,,,orange,circle
0.0,6.0,2.0,1.0,5.0,5.0,380.7106881868094,4.0,0.0,part_2,stop,400.0,300.0,3.0,,,,,,,,,magenta,diamond
0.0,4.0,4.0,0.0,5.0,5.0,325.7595892064273,4.0,0.0,part_2,go,350.0,300.0,1.0,,,,,,,,,gray,hexagon
0.0,7.0,3.0,1.0,6.0,0.0,0.0,4.0,0.0,part_2,stop,350.0,300.0,4.0,,,,,,,,,white,cross
0.0,6.0,2.0,1.0,5.0,5.0,979.488278971985,4.0,0.0,part_2,go,350.0,350.0,1.0,,,,,,,,,magenta,diamond
0.0,8.0,4.0,1.0,5.0,0.0,0.0,4.0,0.0,part_2,stop,350.0,350.0,4.0,,,,,,,,,blue,square
0.0,7.0,3.0,1.0,5.0,5.0,768.8928311690688,4.0,0.0,part_2,go,400.0,350.0,1.0,,,,,,,,,white,cross
0.0,8.0,4.0,1.0,5.0,0.0,0.0,4.0,0.0,part_2,stop,400.0,350.0,4.0,,,,,,,,,blue,square
0.0,5.0,1.0,1.0,6.0,0.0,0.0,4.0,0.0,part_2,stop,450.0,350.0,4.0,,,,,,,,,green,I
0.0,7.0,3.0,1.0,5.0,0.0,0.0,4.0,0.0,part_2,stop,450.0,400.0,4.0,,,,,,,,,white,cross
0.0,4.0,4.0,0.0,6.0,6.0,523.1185294687748,4.0,0.0,part_2,go,500.0,400.0,1.0,,,,,,,,,gray,hexagon
0.0,1.0,1.0,0.0,5.0,5.0,806.9060849957168,4.0,0.0,part_2,go,500.0,400.0,1.0,,,,,,,,,cyan,flipped triangle
0.0,7.0,3.0,1.0,6.0,0.0,0.0,4.0,0.0,part_2,stop,500.0,400.0,4.0,,,,,,,,,white,cross
0.0,5.0,1.0,1.0,5.0,0.0,0.0,4.0,0.0,part_2,stop,500.0,450.0,4.0,,,,,,,,,green,I
0.0,1.0,1.0,0.0,6.0,6.0,617.0215245801955,4.0,0.0,part_2,go,550.0,450.0,1.0,,,,,,,,,cyan,flipped triangle
0.0,8.0,4.0,1.0,6.0,0.0,0.0,4.0,0.0,part_2,stop,550.0,450.0,4.0,,,,,,,,,blue,square
0.0,2.0,2.0,0.0,5.0,5.0,720.3738181851804,4.0,0.0,part_2,go,550.0,500.0,1.0,,,,,,,,,yellow,triangle
0.0,7.0,3.0,1.0,6.0,0.0,0.0,4.0,0.0,part_2,stop,550.0,500.0,4.0,,,,,,,,,white,cross
0.0,7.0,3.0,1.0,6.0,0.0,0.0,4.0,0.0,part_2,stop,550.0,550.0,4.0,,,,,,,,,white,cross
0.0,8.0,4.0,1.0,6.0,6.0,612.0439192745835,4.0,0.0,part_2,stop,550.0,600.0,3.0,,,,,,,,,blue,square
0.0,1.0,1.0,0.0,5.0,5.0,547.6129942107946,5.0,0.0,part_2,go,550.0,550.0,1.0,,,,,,,,,cyan,flipped triangle
0.0,8.0,4.0,1.0,6.0,6.0,570.7716371398419,5.0,0.0,part_2,stop,550.0,550.0,3.0,,,,,,,,,blue,square
0.0,6.0,2.0,1.0,5.0,5.0,382.0750510785728,5.0,0.0,part_2,stop,550.0,500.0,3.0,,,,,,,,,magenta,diamond
0.0,3.0,3.0,0.0,5.0,5.0,473.4551103319973,5.0,0.0,part_2,go,500.0,500.0,1.0,,,,,,,,,orange,circle
0.0,7.0,3.0,1.0,5.0,0.0,0.0,5.0,0.0,part_2,stop,500.0,500.0,4.0,,,,,,,,,white,cross
0.0,1.0,1.0,0.0,5.0,5.0,620.0891269836575,5.0,0.0,part_2,go,550.0,500.0,1.0,,,,,,,,,cyan,flipped triangle
0.0,6.0,2.0,1.0,6.0,6.0,473.7491721753031,5.0,0.0,part_2,stop,550.0,500.0,3.0,,,,,,,,,magenta,diamond
0.0,3.0,3.0,0.0,6.0,6.0,779.7498151194304,5.0,0.0,part_2,go,550.0,450.0,1.0,,,,,,,,,orange,circle
0.0,2.0,2.0,0.0,6.0,6.0,634.3921814113855,5.0,0.0,part_2,go,550.0,450.0,1.0,,,,,,,,,yellow,triangle
0.0,6.0,2.0,1.0,5.0,5.0,375.2749331761151,5.0,0.0,part_2,stop,550.0,450.0,3.0,,,,,,,,,magenta,diamond
0.0,3.0,3.0,0.0,5.0,5.0,297.8939788881689,5.0,0.0,part_2,go,500.0,450.0,1.0,,,,,,,,,orange,circle
0.0,2.0,2.0,0.0,6.0,6.0,354.9282753374427,5.0,0.0,part_2,go,500.0,450.0,1.0,,,,,,,,,yellow,triangle
0.0,2.0,2.0,0.0,5.0,5.0,321.3340828660875,5.0,0.0,part_2,go,500.0,450.0,1.0,,,,,,,,,yellow,triangle
0.0,7.0,3.0,1.0,6.0,6.0,277.2473541554063,5.0,0.0,part_2,go,500.0,450.0,1.0,,,,,,,,,white,cross
0.0,7.0,3.0,1.0,5.0,5.0,459.9119201302528,5.0,0.0,part_2,stop,500.0,450.0,3.0,,,,,,,,,white,cross
0.0,4.0,4.0,0.0,5.0,5.0,526.4450353570282,5.0,0.0,part_2,go,450.0,450.0,1.0,,,,,,,,,gray,hexagon
0.0,5.0,1.0,1.0,5.0,5.0,551.5579332131892,5.0,0.0,part_2,stop,450.0,450.0,3.0,,,,,,,,,green,I
0.0,8.0,4.0,1.0,5.0,0.0,0.0,5.0,0.0,part_2,stop,400.0,450.0,4.0,,,,,,,,,blue,square
0.0,7.0,3.0,1.0,6.0,0.0,0.0,5.0,0.0,part_2,stop,450.0,450.0,4.0,,,,,,,,,white,cross
0.0,3.0,3.0,0.0,6.0,6.0,475.4436861258,5.0,0.0,part_2,go,450.0,500.0,1.0,,,,,,,,,orange,circle
0.0,2.0,2.0,0.0,5.0,5.0,768.9386140555143,5.0,0.0,part_2,go,450.0,500.0,1.0,,,,,,,,,yellow,triangle
0.0,4.0,4.0,0.0,6.0,6.0,904.255046043545,5.0,0.0,part_2,go,450.0,500.0,1.0,,,,,,,,,gray,hexagon
0.0,1.0,1.0,0.0,6.0,6.0,498.4654090367257,5.0,0.0,part_2,go,450.0,500.0,1.0,,,,,,,,,cyan,flipped triangle
0.0,5.0,1.0,1.0,6.0,6.0,522.5085162092,5.0,0.0,part_2,go,450.0,500.0,1.0,,,,,,,,,green,I
0.0,2.0,2.0,0.0,6.0,6.0,623.5652761533856,5.0,0.0,part_2,go,450.0,500.0,1.0,,,,,,,,,yellow,triangle
0.0,7.0,3.0,1.0,5.0,0.0,0.0,5.0,0.0,part_2,stop,450.0,500.0,4.0,,,,,,,,,white,cross
0.0,3.0,3.0,0.0,5.0,5.0,705.206987215206,5.0,0.0,part_2,go,500.0,500.0,1.0,,,,,,,,,orange,circle
0.0,5.0,1.0,1.0,6.0,0.0,0.0,5.0,0.0,part_2,stop,500.0,500.0,4.0,,,,,,,,,green,I
0.0,2.0,2.0,0.0,5.0,5.0,615.9749953076243,5.0,0.0,part_2,go,500.0,550.0,1.0,,,,,,,,,yellow,triangle
0.0,7.0,3.0,1.0,6.0,6.0,629.9375644885004,5.0,0.0,part_2,stop,500.0,550.0,3.0,,,,,,,,,white,cross
0.0,5.0,1.0,1.0,5.0,0.0,0.0,5.0,0.0,part_2,stop,500.0,500.0,4.0,,,,,,,,,green,I
0.0,4.0,4.0,0.0,5.0,5.0,968.420286430046,5.0,0.0,part_2,go,550.0,500.0,1.0,,,,,,,,,gray,hexagon
0.0,6.0,2.0,1.0,6.0,0.0,0.0,5.0,0.0,part_2,stop,550.0,500.0,4.0,,,,,,,,,magenta,diamond
0.0,4.0,4.0,0.0,5.0,5.0,801.2568969279528,5.0,0.0,part_2,go,550.0,550.0,1.0,,,,,,,,,gray,hexagon
0.0,4.0,4.0,0.0,5.0,5.0,678.0914484988898,5.0,0.0,part_2,go,550.0,550.0,1.0,,,,,,,,,gray,hexagon
0.0,7.0,3.0,1.0,6.0,6.0,342.3648753669113,5.0,0.0,part_2,go,550.0,550.0,1.0,,,,,,,,,white,cross
0.0,6.0,2.0,1.0,5.0,5.0,657.0602452848107,6.0,0.0,part_2,go,550.0,550.0,1.0,,,,,,,,,magenta,diamond
0.0,7.0,3.0,1.0,5.0,5.0,329.5930693857372,6.0,0.0,part_2,stop,550.0,550.0,3.0,,,,,,,,,white,cross
0.0,3.0,3.0,0.0,6.0,6.0,365.8174818847328,6.0,0.0,part_2,go,500.0,550.0,1.0,,,,,,,,,orange,circle
0.0,1.0,1.0,0.0,6.0,6.0,544.805794255808,6.0,0.0,part_2,go,500.0,550.0,1.0,,,,,,,,,cyan,flipped triangle
0.0,1.0,1.0,0.0,5.0,5.0,614.7463074885309,6.0,0.0,part_2,go,500.0,550.0,1.0,,,,,,,,,cyan,flipped triangle
0.0,1.0,1.0,0.0,6.0,6.0,525.7008464541286,6.0,0.0,part_2,go,500.0,550.0,1.0,,,,,,,,,cyan,flipped triangle
0.0,2.0,2.0,0.0,5.0,5.0,593.9569484908134,6.0,0.0,part_2,go,500.0,550.0,1.0,,,,,,,,,yellow,triangle
0.0,7.0,3.0,1.0,6.0,6.0,480.7409441564232,6.0,0.0,part_2,stop,500.0,550.0,3.0,,,,,,,,,white,cross
0.0,4.0,4.0,0.0,5.0,5.0,663.0619741044939,6.0,0.0,part_2,go,500.0,500.0,1.0,,,,,,,,,gray,hexagon
0.0,6.0,2.0,1.0,5.0,0.0,0.0,6.0,0.0,part_2,stop,500.0,500.0,4.0,,,,,,,,,magenta,diamond
0.0,1.0,1.0,0.0,5.0,5.0,731.4127290155739,6.0,0.0,part_2,go,550.0,500.0,1.0,,,,,,,,,cyan,flipped triangle
0.0,5.0,1.0,1.0,6.0,6.0,677.0315992180258,6.0,0.0,part_2,go,550.0,500.0,1.0,,,,,,,,,green,I
0.0,4.0,4.0,0.0,6.0,6.0,1026.0301751550287,6.0,0.0,part_2,go,550.0,500.0,1.0,,,,,,,,,gray,hexagon
0.0,4.0,4.0,0.0,5.0,5.0,555.1088384818286,6.0,0.0,part_2,go,550.0,500.0,1.0,,,,,,,,,gray,hexagon
0.0,4.0,4.0,0.0,5.0,5.0,1139.7234573960304,6.0,0.0,part_2,go,550.0,500.0,1.0,,,,,,,,,gray,hexagon
0.0,2.0,2.0,0.0,5.0,5.0,341.4086261764169,6.0,0.0,part_2,go,550.0,500.0,1.0,,,,,,,,,yellow,triangle
0.0,5.0,1.0,1.0,5.0,5.0,634.7881862893701,6.0,0.0,part_2,stop,550.0,500.0,3.0,,,,,,,,,green,I
0.0,2.0,2.0,0.0,5.0,5.0,444.7906801942736,6.0,0.0,part_2,go,500.0,500.0,1.0,,,,,,,,,yellow,triangle
0.0,2.0,2.0,0.0,5.0,5.0,333.004284882918,6.0,0.0,part_2,go,500.0,500.0,1.0,,,,,,,,,yellow,triangle
0.0,5.0,1.0,1.0,5.0,5.0,468.8696202356368,6.0,0.0,part_2,go,500.0,500.0,1.0,,,,,,,,,green,I
0.0,4.0,4.0,0.0,6.0,6.0,582.2532221209258,6.0,0.0,part_2,go,500.0,500.0,1.0,,,,,,,,,gray,hexagon
0.0,8.0,4.0,1.0,5.0,5.0,291.7406111955642,6.0,0.0,part_2,stop,500.0,500.0,3.0,,,,,,,,,blue,square
0.0,3.0,3.0,0.0,6.0,6.0,281.2500551808625,6.0,0.0,part_2,go,450.0,500.0,1.0,,,,,,,,,orange,circle
0.0,7.0,3.0,1.0,5.0,5.0,349.303524242714,6.0,0.0,part_2,stop,450.0,500.0,3.0,,,,,,,,,white,cross
0.0,1.0,1.0,0.0,5.0,5.0,484.0693611185998,6.0,0.0,part_2,go,400.0,500.0,1.0,,,,,,,,,cyan,flipped triangle
0.0,6.0,2.0,1.0,6.0,6.0,328.4913571551442,6.0,0.0,part_2,stop,400.0,500.0,3.0,,,,,,,,,magenta,diamond
0.0,6.0,2.0,1.0,5.0,5.0,385.6241062749177,6.0,0.0,part_2,stop,400.0,450.0,3.0,,,,,,,,,magenta,diamond
0.0,4.0,4.0,0.0,6.0,6.0,352.646698243916,6.0,0.0,part_2,go,350.0,450.0,1.0,,,,,,,,,gray,hexagon
0.0,8.0,4.0,1.0,5.0,0.0,0.0,6.0,0.0,part_2,stop,350.0,450.0,4.0,,,,,,,,,blue,square
0.0,2.0,2.0,0.0,5.0,5.0,342.2072490211576,6.0,0.0,part_2,go,400.0,450.0,1.0,,,,,,,,,yellow,triangle
0.0,8.0,4.0,1.0,6.0,6.0,375.8048103190958,6.0,0.0,part_2,stop,400.0,450.0,3.0,,,,,,,,,blue,square
0.0,5.0,1.0,1.0,5.0,0.0,0.0,6.0,0.0,part_2,stop,400.0,400.0,4.0,,,,,,,,,green,I
0.0,4.0,4.0,0.0,5.0,5.0,593.5476911254227,6.0,0.0,part_2,go,450.0,400.0,1.0,,,,,,,,,gray,hexagon
0.0,6.0,2.0,1.0,5.0,5.0,605.1807459443808,6.0,0.0,part_2,stop,450.0,400.0,3.0,,,,,,,,,magenta,diamond
0.0,3.0,3.0,0.0,5.0,5.0,661.1084858886898,6.0,0.0,part_2,go,400.0,400.0,1.0,,,,,,,,,orange,circle
0.0,3.0,3.0,0.0,5.0,5.0,515.4506789986044,6.0,0.0,part_2,go,400.0,400.0,1.0,,,,,,,,,orange,circle
0.0,7.0,3.0,1.0,5.0,5.0,690.1220269501209,7.0,0.0,part_2,stop,400.0,400.0,3.0,,,,,,,,,white,cross
0.0,3.0,3.0,0.0,5.0,5.0,319.8688239790499,7.0,0.0,part_2,go,350.0,400.0,1.0,,,,,,,,,orange,circle
0.0,8.0,4.0,1.0,5.0,5.0,490.2502771001309,7.0,0.0,part_2,stop,350.0,400.0,3.0,,,,,,,,,blue,square
0.0,3.0,3.0,0.0,5.0,5.0,501.9810909871012,7.0,0.0,part_2,go,300.0,400.0,1.0,,,,,,,,,orange,circle
0.0,7.0,3.0,1.0,5.0,5.0,389.6785583347082,7.0,0.0,part_2,go,300.0,400.0,1.0,,,,,,,,,white,cross
0.0,5.0,1.0,1.0,6.0,0.0,0.0,7.0,0.0,part_2,stop,300.0,400.0,4.0,,,,,,,,,green,I
0.0,1.0,1.0,0.0,6.0,6.0,673.2191471382976,7.0,0.0,part_2,go,300.0,450.0,1.0,,,,,,,,,cyan,flipped triangle
0.0,5.0,1.0,1.0,6.0,6.0,707.625912502408,7.0,0.0,part_2,go,300.0,450.0,1.0,,,,,,,,,green,I
0.0,8.0,4.0,1.0,5.0,5.0,338.4606631007045,7.0,0.0,part_2,stop,300.0,450.0,3.0,,,,,,,,,blue,square
0.0,7.0,3.0,1.0,6.0,6.0,574.4299893267453,7.0,0.0,part_2,stop,250.0,450.0,3.0,,,,,,,,,white,cross
0.0,6.0,2.0,1.0,6.0,6.0,675.7992210332304,7.0,0.0,part_2,go,250.0,400.0,1.0,,,,,,,,,magenta,diamond
0.0,4.0,4.0,0.0,6.0,6.0,1137.6461684703827,7.0,0.0,part_2,go,250.0,400.0,1.0,,,,,,,,,gray,hexagon
0.0,2.0,2.0,0.0,6.0,6.0,778.9219787809998,7.0,0.0,part_2,go,250.0,400.0,1.0,,,,,,,,,yellow,triangle
0.0,6.0,2.0,1.0,5.0,5.0,340.5163432471454,7.0,0.0,part_2,stop,250.0,400.0,3.0,,,,,,,,,magenta,diamond
0.0,6.0,2.0,1.0,5.0,5.0,420.367909129709,7.0,0.0,part_2,go,200.0,400.0,1.0,,,,,,,,,magenta,diamond
0.0,6.0,2.0,1.0,6.0,6.0,389.5091309677809,7.0,0.0,part_2,stop,200.0,400.0,3.0,,,,,,,,,magenta,diamond
0.0,2.0,2.0,0.0,6.0,6.0,647.0613845158368,7.0,0.0,part_2,go,200.0,350.0,1.0,,,,,,,,,yellow,triangle
0.0,2.0,2.0,0.0,5.0,5.0,670.7892070990056,7.0,0.0,part_2,go,200.0,350.0,1.0,,,,,,,,,yellow,triangle
0.0,2.0,2.0,0.0,5.0,5.0,323.1398300267756,7.0,0.0,part_2,go,200.0,350.0,1.0,,,,,,,,,yellow,triangle
0.0,4.0,4.0,0.0,6.0,6.0,482.6748601626605,7.0,0.0,part_2,go,200.0,350.0,1.0,,,,,,,,,gray,hexagon
0.0,8.0,4.0,1.0,5.0,0.0,0.0,7.0,0.0,part_2,stop,200.0,350.0,4.0,,,,,,,,,blue,square
0.0,1.0,1.0,0.0,6.0,6.0,471.0229090414941,7.0,0.0,part_2,go,250.0,350.0,1.0,,,,,,,,,cyan,flipped triangle
0.0,5.0,1.0,1.0,6.0,0.0,0.0,7.0,0.0,part_2,stop,250.0,350.0,4.0,,,,,,,,,green,I
0.0,4.0,4.0,0.0,6.0,6.0,720.387016190216,7.0,0.0,part_2,go,250.0,400.0,1.0,,,,,,,,,gray,hexagon
0.0,2.0,2.0,0.0,5.0,5.0,665.6830324791372,7.0,0.0,part_2,go,250.0,400.0,1.0,,,,,,,,,yellow,triangle
0.0,5.0,1.0,1.0,6.0,0.0,0.0,7.0,0.0,part_2,stop,250.0,400.0,4.0,,,,,,,,,green,I
0.0,4.0,4.0,0.0,5.0,5.0,499.7632212471217,7.0,0.0,part_2,go,250.0,450.0,1.0,,,,,,,,,gray,hexagon
0.0,8.0,4.0,1.0,6.0,0.0,0.0,7.0,0.0,part_2,stop,250.0,450.0,4.0,,,,,,,,,blue,square
0.0,3.0,3.0,0.0,6.0,6.0,443.6310031451285,7.0,0.0,part_2,go,250.0,500.0,1.0,,,,,,,,,orange,circle
0.0,5.0,1.0,1.0,5.0,0.0,0.0,7.0,0.0,part_2,stop,250.0,500.0,4.0,,,,,,,,,green,I
0.0,8.0,4.0,1.0,6.0,6.0,478.6218290682882,7.0,0.0,part_2,go,300.0,500.0,1.0,,,,,,,,,blue,square
0.0,8.0,4.0,1.0,5.0,0.0,0.0,7.0,0.0,part_2,stop,300.0,500.0,4.0,,,,,,,,,blue,square
0.0,5.0,1.0,1.0,5.0,5.0,469.8961193207651,7.0,0.0,part_2,stop,350.0,500.0,3.0,,,,,,,,,green,I
0.0,3.0,3.0,0.0,5.0,5.0,336.9391623418778,7.0,0.0,part_2,go,300.0,500.0,1.0,,,,,,,,,orange,circle
0.0,2.0,2.0,0.0,6.0,6.0,415.6566183082759,7.0,0.0,part_2,go,300.0,500.0,1.0,,,,,,,,,yellow,triangle
0.0,8.0,4.0,1.0,5.0,5.0,595.0750212650746,7.0,0.0,part_2,go,300.0,500.0,1.0,,,,,,,,,blue,square
0.0,3.0,3.0,0.0,6.0,6.0,586.5887792315334,8.0,0.0,part_2,go,300.0,500.0,1.0,,,,,,,,,orange,circle
0.0,3.0,3.0,0.0,5.0,5.0,238.8960781972855,8.0,0.0,part_2,go,300.0,500.0,1.0,,,,,,,,,orange,circle
0.0,6.0,2.0,1.0,6.0,6.0,341.0415491089225,8.0,0.0,part_2,stop,300.0,500.0,3.0,,,,,,,,,magenta,diamond
0.0,3.0,3.0,0.0,5.0,5.0,399.4628419168293,8.0,0.0,part_2,go,300.0,450.0,1.0,,,,,,,,,orange,circle
0.0,4.0,4.0,0.0,5.0,5.0,365.787279093638,8.0,0.0,part_2,go,300.0,450.0,1.0,,,,,,,,,gray,hexagon
0.0,3.0,3.0,0.0,6.0,6.0,647.2419460769743,8.0,0.0,part_2,go,300.0,450.0,1.0,,,,,,,,,orange,circle
0.0,2.0,2.0,0.0,6.0,6.0,591.5934601798654,8.0,0.0,part_2,go,300.0,450.0,1.0,,,,,,,,,yellow,triangle
0.0,3.0,3.0,0.0,6.0,6.0,594.6031981147826,8.0,0.0,part_2,go,300.0,450.0,1.0,,,,,,,,,orange,circle
0.0,4.0,4.0,0.0,5.0,5.0,571.8371067196131,8.0,0.0,part_2,go,300.0,450.0,1.0,,,,,,,,,gray,hexagon
0.0,1.0,1.0,0.0,5.0,5.0,583.6790928151459,8.0,0.0,part_2,go,300.0,450.0,1.0,,,,,,,,,cyan,flipped triangle
0.0,6.0,2.0,1.0,6.0,6.0,630.8683850802481,8.0,0.0,part_2,stop,300.0,450.0,3.0,,,,,,,,,magenta,diamond
0.0,6.0,2.0,1.0,5.0,5.0,541.38885717839,8.0,0.0,part_2,go,300.0,400.0,1.0,,,,,,,,,magenta,diamond
0.0,2.0,2.0,0.0,6.0,6.0,597.6582404691726,8.0,0.0,part_2,go,300.0,400.0,1.0,,,,,,,,,yellow,triangle
0.0,3.0,3.0,0.0,5.0,5.0,599.288368364796,8.0,0.0,part_2,go,300.0,400.0,1.0,,,,,,,,,orange,circle
0.0,7.0,3.0,1.0,6.0,0.0,0.0,8.0,0.0,part_2,stop,300.0,400.0,4.0,,,,,,,,,white,cross
0.0,8.0,4.0,1.0,5.0,5.0,587.7455880399793,8.0,0.0,part_2,go,300.0,450.0,1.0,,,,,,,,,blue,square
0.0,8.0,4.0,1.0,6.0,6.0,769.318301230669,8.0,0.0,part_2,go,300.0,450.0,1.0,,,,,,,,,blue,square
0.0,6.0,2.0,1.0,6.0,6.0,544.371850322932,8.0,0.0,part_2,go,300.0,450.0,1.0,,,,,,,,,magenta,diamond
0.0,6.0,2.0,1.0,6.0,0.0,0.0,8.0,0.0,part_2,stop,300.0,450.0,4.0,,,,,,,,,magenta,diamond
0.0,3.0,3.0,0.0,6.0,6.0,389.5411440171301,8.0,0.0,part_2,go,300.0,500.0,1.0,,,,,,,,,orange,circle
0.0,3.0,3.0,0.0,6.0,6.0,378.9065682794899,8.0,0.0,part_2,go,300.0,500.0,1.0,,,,,,,,,orange,circle
0.0,1.0,1.0,0.0,6.0,6.0,324.0585420280695,8.0,0.0,part_2,go,300.0,500.0,1.0,,,,,,,,,cyan,flipped triangle
0.0,7.0,3.0,1.0,5.0,5.0,438.2282951846719,8.0,0.0,part_2,go,300.0,500.0,1.0,,,,,,,,,white,cross
0.0,5.0,1.0,1.0,6.0,6.0,493.6006059870124,8.0,0.0,part_2,stop,300.0,500.0,3.0,,,,,,,,,green,I
0.0,7.0,3.0,1.0,6.0,0.0,0.0,8.0,0.0,part_2,stop,300.0,450.0,4.0,,,,,,,,,white,cross
0.0,7.0,3.0,1.0,5.0,5.0,348.7047168891877,8.0,0.0,part_2,stop,300.0,500.0,3.0,,,,,,,,,white,cross
0.0,4.0,4.0,0.0,6.0,6.0,610.3959660977125,8.0,0.0,part_2,go,250.0,500.0,1.0,,,,,,,,,gray,hexagon
0.0,8.0,4.0,1.0,6.0,0.0,0.0,8.0,0.0,part_2,stop,250.0,500.0,4.0,,,,,,,,,blue,square
0.0,3.0,3.0,0.0,5.0,5.0,419.7534939739853,8.0,0.0,part_2,go,250.0,550.0,1.0,,,,,,,,,orange,circle
0.0,1.0,1.0,0.0,6.0,6.0,655.7426489889622,8.0,0.0,part_2,go,250.0,550.0,1.0,,,,,,,,,cyan,flipped triangle
0.0,6.0,2.0,1.0,5.0,0.0,0.0,8.0,0.0,part_2,stop,250.0,550.0,4.0,,,,,,,,,magenta,diamond
0.0,2.0,2.0,0.0,5.0,5.0,714.7751590237021,8.0,0.0,part_2,go,300.0,550.0,1.0,,,,,,,,,yellow,triangle
0.0,5.0,1.0,1.0,6.0,6.0,725.8619561325759,8.0,0.0,part_2,stop,300.0,550.0,3.0,,,,,,,,,green,I
0.0,2.0,2.0,0.0,6.0,6.0,581.4330182038248,8.0,0.0,part_2,go,300.0,500.0,1.0,,,,,,,,,yellow,triangle
0.0,3.0,3.0,0.0,5.0,5.0,503.1768672633916,8.0,0.0,part_2,go,300.0,500.0,1.0,,,,,,,,,orange,circle
0.0,2.0,2.0,0.0,5.0,5.0,357.2988691739738,8.0,0.0,part_2,go,300.0,500.0,1.0,,,,,,,,,yellow,triangle
0.0,1.0,1.0,0.0,7.0,2.0,4298.3622185420245,1.0,1.0,part_3,go,0.0,0.0,0.0,108.0,2.0,216.0,108.0,162.0,270.0,324.0,54.0,cyan,flipped triangle
0.0,8.0,4.0,1.0,7.0,3.0,3943.990112282336,1.0,1.0,part_3,go,0.0,0.0,0.0,216.0,4.0,324.0,270.0,216.0,108.0,54.0,162.0,blue,square
0.0,1.0,1.0,0.0,7.0,5.0,3045.8600651472807,1.0,1.0,part_3,go,0.0,0.0,0.0,54.0,1.0,108.0,270.0,162.0,324.0,54.0,216.0,cyan,flipped triangle
0.0,3.0,3.0,0.0,7.0,4.0,2203.4093232359737,1.0,1.0,part_3,go,0.0,0.0,0.0,162.0,3.0,270.0,216.0,54.0,162.0,324.0,108.0,orange,circle
0.0,3.0,3.0,0.0,7.0,3.0,1867.1467076055703,1.0,1.0,part_3,go,0.0,0.0,0.0,68.0,2.0,170.0,204.0,68.0,102.0,34.0,136.0,orange,circle
0.0,6.0,2.0,1.0,7.0,5.0,2902.1212065126747,1.0,1.0,part_3,go,0.0,0.0,0.0,245.0,5.0,98.0,294.0,147.0,196.0,245.0,49.0,magenta,diamond
0.0,2.0,2.0,0.0,7.0,3.0,1070.109766675159,1.0,1.0,part_3,go,0.0,0.0,0.0,49.0,1.0,294.0,245.0,49.0,196.0,147.0,98.0,yellow,triangle
0.0,1.0,1.0,0.0,7.0,4.0,2139.023621333763,1.0,1.0,part_3,go,0.0,0.0,0.0,136.0,4.0,102.0,170.0,68.0,136.0,204.0,34.0,cyan,flipped triangle
0.0,6.0,2.0,1.0,7.0,2.0,3568.651433335617,1.0,1.0,part_3,go,0.0,0.0,0.0,216.0,4.0,108.0,216.0,162.0,324.0,270.0,54.0,magenta,diamond
0.0,3.0,3.0,0.0,7.0,2.0,1489.646561909467,1.0,1.0,part_3,go,0.0,0.0,0.0,44.0,1.0,132.0,44.0,220.0,264.0,88.0,176.0,orange,circle
0.0,7.0,3.0,1.0,7.0,2.0,4079.0282774250954,1.0,1.0,part_3,go,0.0,0.0,0.0,68.0,2.0,102.0,68.0,34.0,136.0,204.0,170.0,white,cross
0.0,1.0,1.0,0.0,7.0,2.0,2954.9441398121417,1.0,1.0,part_3,go,0.0,0.0,0.0,102.0,3.0,170.0,102.0,68.0,34.0,136.0,204.0,cyan,flipped triangle
0.0,6.0,2.0,1.0,7.0,5.0,2292.5376556813717,1.0,1.0,part_3,go,0.0,0.0,0.0,204.0,6.0,34.0,68.0,102.0,170.0,204.0,136.0,magenta,diamond
0.0,4.0,4.0,0.0,7.0,6.0,1956.0882688965648,1.0,1.0,part_3,go,0.0,0.0,0.0,54.0,1.0,108.0,216.0,162.0,270.0,324.0,54.0,gray,hexagon
0.0,8.0,4.0,1.0,7.0,3.0,1000.9854538366201,1.0,1.0,part_3,go,0.0,0.0,0.0,117.0,3.0,78.0,234.0,117.0,39.0,156.0,195.0,blue,square
0.0,3.0,3.0,0.0,7.0,3.0,1125.4790446255356,1.0,1.0,part_3,go,0.0,0.0,0.0,78.0,2.0,195.0,156.0,78.0,117.0,39.0,234.0,orange,circle
0.0,2.0,2.0,0.0,7.0,4.0,1768.5613809153438,1.0,1.0,part_3,go,0.0,0.0,0.0,132.0,3.0,264.0,44.0,88.0,132.0,176.0,220.0,yellow,triangle
0.0,5.0,1.0,1.0,7.0,1.0,2128.797907149419,1.0,1.0,part_3,go,0.0,0.0,0.0,170.0,5.0,170.0,204.0,68.0,136.0,102.0,34.0,green,I
0.0,8.0,4.0,1.0,7.0,6.0,1623.771505896002,1.0,1.0,part_3,go,0.0,0.0,0.0,98.0,2.0,294.0,147.0,245.0,196.0,49.0,98.0,blue,square
0.0,5.0,1.0,1.0,7.0,5.0,1264.7868792992083,1.0,1.0,part_3,go,0.0,0.0,0.0,108.0,2.0,270.0,54.0,162.0,216.0,108.0,324.0,green,I
0.0,1.0,1.0,0.0,7.0,1.0,2593.9315278083086,2.0,1.0,part_3,go,0.0,0.0,0.0,176.0,4.0,176.0,220.0,88.0,132.0,44.0,264.0,cyan,flipped triangle
0.0,2.0,2.0,0.0,7.0,1.0,1807.2830068413168,2.0,1.0,part_3,go,0.0,0.0,0.0,117.0,3.0,117.0,234.0,78.0,195.0,156.0,39.0,yellow,triangle
0.0,5.0,1.0,1.0,7.0,3.0,2796.8857486266643,2.0,1.0,part_3,go,0.0,0.0,0.0,132.0,3.0,176.0,88.0,132.0,220.0,44.0,264.0,green,I
0.0,3.0,3.0,0.0,7.0,1.0,1144.368784269318,2.0,1.0,part_3,go,0.0,0.0,0.0,34.0,1.0,34.0,68.0,136.0,102.0,170.0,204.0,orange,circle
0.0,4.0,4.0,0.0,7.0,3.0,1033.560157287866,2.0,1.0,part_3,go,0.0,0.0,0.0,156.0,4.0,234.0,39.0,156.0,78.0,117.0,195.0,gray,hexagon
0.0,7.0,3.0,1.0,7.0,1.0,1597.5271894130856,2.0,1.0,part_3,go,0.0,0.0,0.0,196.0,4.0,196.0,98.0,147.0,49.0,294.0,245.0,white,cross
0.0,1.0,1.0,0.0,7.0,4.0,2105.4511207621545,2.0,1.0,part_3,go,0.0,0.0,0.0,117.0,3.0,195.0,78.0,234.0,117.0,39.0,156.0,cyan,flipped triangle
0.0,8.0,4.0,1.0,7.0,6.0,1745.3193357214332,2.0,1.0,part_3,go,0.0,0.0,0.0,78.0,2.0,117.0,234.0,156.0,39.0,195.0,78.0,blue,square
0.0,2.0,2.0,0.0,7.0,3.0,3749.6320633217697,2.0,1.0,part_3,go,0.0,0.0,0.0,78.0,2.0,117.0,234.0,78.0,39.0,195.0,156.0,yellow,triangle
0.0,4.0,4.0,0.0,7.0,4.0,4256.557966582477,2.0,1.0,part_3,go,0.0,0.0,0.0,234.0,6.0,117.0,195.0,156.0,234.0,78.0,39.0,gray,hexagon
0.0,5.0,1.0,1.0,7.0,4.0,1948.6971492879093,2.0,1.0,part_3,go,0.0,0.0,0.0,195.0,5.0,156.0,117.0,39.0,195.0,78.0,234.0,green,I
0.0,6.0,2.0,1.0,7.0,3.0,1905.3497100248933,2.0,1.0,part_3,go,0.0,0.0,0.0,234.0,6.0,117.0,39.0,234.0,156.0,78.0,195.0,magenta,diamond
0.0,5.0,1.0,1.0,7.0,3.0,1536.5010392852128,2.0,1.0,part_3,go,0.0,0.0,0.0,117.0,3.0,39.0,234.0,117.0,195.0,156.0,78.0,green,I
0.0,7.0,3.0,1.0,7.0,2.0,2099.3608001153916,2.0,1.0,part_3,go,0.0,0.0,0.0,156.0,4.0,234.0,156.0,195.0,117.0,78.0,39.0,white,cross
0.0,4.0,4.0,0.0,7.0,3.0,1154.2568285949528,2.0,1.0,part_3,go,0.0,0.0,0.0,170.0,5.0,204.0,102.0,170.0,34.0,136.0,68.0,gray,hexagon
0.0,3.0,3.0,0.0,7.0,5.0,986.5105093922466,2.0,1.0,part_3,go,0.0,0.0,0.0,49.0,1.0,294.0,245.0,98.0,147.0,49.0,196.0,orange,circle
0.0,7.0,3.0,1.0,7.0,3.0,955.8637451846153,2.0,1.0,part_3,go,0.0,0.0,0.0,162.0,3.0,324.0,270.0,162.0,54.0,216.0,108.0,white,cross
0.0,7.0,3.0,1.0,7.0,2.0,2620.798636460677,2.0,1.0,part_3,go,0.0,0.0,0.0,176.0,4.0,88.0,176.0,132.0,44.0,264.0,220.0,white,cross
0.0,4.0,4.0,0.0,7.0,1.0,2115.470805671066,2.0,1.0,part_3,go,0.0,0.0,0.0,147.0,3.0,147.0,49.0,294.0,196.0,98.0,245.0,gray,hexagon
0.0,4.0,4.0,0.0,7.0,4.0,3905.113325919956,2.0,1.0,part_3,go,0.0,0.0,0.0,162.0,3.0,108.0,216.0,270.0,162.0,54.0,324.0,gray,hexagon
0.0,6.0,2.0,1.0,7.0,5.0,1774.3533495813608,3.0,1.0,part_3,go,0.0,0.0,0.0,220.0,5.0,44.0,88.0,132.0,264.0,220.0,176.0,magenta,diamond
0.0,6.0,2.0,1.0,7.0,2.0,1775.0850117299706,3.0,1.0,part_3,go,0.0,0.0,0.0,204.0,6.0,170.0,204.0,102.0,34.0,136.0,68.0,magenta,diamond
0.0,4.0,4.0,0.0,7.0,3.0,4813.551530009136,3.0,1.0,part_3,go,0.0,0.0,0.0,132.0,3.0,264.0,220.0,132.0,176.0,44.0,88.0,gray,hexagon
0.0,2.0,2.0,0.0,7.0,1.0,2384.3907956033945,3.0,1.0,part_3,go,0.0,0.0,0.0,102.0,3.0,102.0,68.0,34.0,204.0,170.0,136.0,yellow,triangle
0.0,2.0,2.0,0.0,7.0,4.0,2058.634289773181,3.0,1.0,part_3,go,0.0,0.0,0.0,108.0,2.0,216.0,54.0,324.0,108.0,162.0,270.0,yellow,triangle
0.0,1.0,1.0,0.0,7.0,4.0,1350.192079087719,3.0,1.0,part_3,go,0.0,0.0,0.0,117.0,3.0,195.0,234.0,39.0,117.0,156.0,78.0,cyan,flipped triangle
0.0,7.0,3.0,1.0,7.0,6.0,1679.0680412668737,3.0,1.0,part_3,go,0.0,0.0,0.0,176.0,4.0,44.0,132.0,220.0,264.0,88.0,176.0,white,cross
0.0,6.0,2.0,1.0,7.0,1.0,2567.229545675218,3.0,1.0,part_3,go,0.0,0.0,0.0,196.0,4.0,196.0,49.0,98.0,147.0,245.0,294.0,magenta,diamond
0.0,2.0,2.0,0.0,7.0,1.0,3761.509782867506,3.0,1.0,part_3,go,0.0,0.0,0.0,88.0,2.0,88.0,264.0,132.0,176.0,44.0,220.0,yellow,triangle
0.0,3.0,3.0,0.0,7.0,1.0,1254.276662832126,3.0,1.0,part_3,go,0.0,0.0,0.0,49.0,1.0,49.0,245.0,98.0,294.0,147.0,196.0,orange,circle
0.0,7.0,3.0,1.0,7.0,2.0,4180.401752702892,3.0,1.0,part_3,go,0.0,0.0,0.0,108.0,2.0,54.0,108.0,162.0,324.0,216.0,270.0,white,cross
0.0,8.0,4.0,1.0,7.0,1.0,2046.7668727505952,3.0,1.0,part_3,go,0.0,0.0,0.0,54.0,1.0,54.0,324.0,162.0,216.0,108.0,270.0,blue,square
0.0,1.0,1.0,0.0,7.0,6.0,3679.3669869657606,3.0,1.0,part_3,go,0.0,0.0,0.0,147.0,3.0,49.0,196.0,245.0,294.0,98.0,147.0,cyan,flipped triangle
0.0,8.0,4.0,1.0,7.0,5.0,2486.7293597199023,3.0,1.0,part_3,go,0.0,0.0,0.0,88.0,2.0,132.0,264.0,176.0,44.0,88.0,220.0,blue,square
0.0,4.0,4.0,0.0,7.0,5.0,2658.825297607109,3.0,1.0,part_3,go,0.0,0.0,0.0,132.0,3.0,44.0,88.0,176.0,264.0,132.0,220.0,gray,hexagon
0.0,3.0,3.0,0.0,7.0,4.0,2838.122710119933,3.0,1.0,part_3,go,0.0,0.0,0.0,39.0,1.0,195.0,117.0,234.0,39.0,78.0,156.0,orange,circle
0.0,7.0,3.0,1.0,7.0,3.0,1772.0925447065383,3.0,1.0,part_3,go,0.0,0.0,0.0,78.0,2.0,39.0,195.0,78.0,156.0,117.0,234.0,white,cross
0.0,8.0,4.0,1.0,7.0,3.0,1400.048095965758,3.0,1.0,part_3,go,0.0,0.0,0.0,88.0,2.0,132.0,44.0,88.0,176.0,220.0,264.0,blue,square
0.0,5.0,1.0,1.0,7.0,4.0,1715.9208371303976,3.0,1.0,part_3,go,0.0,0.0,0.0,147.0,3.0,98.0,49.0,294.0,147.0,245.0,196.0,green,I
0.0,8.0,4.0,1.0,7.0,1.0,1356.7925856914371,3.0,1.0,part_3,go,0.0,0.0,0.0,68.0,2.0,68.0,136.0,170.0,102.0,34.0,204.0,blue,square
0.0,1.0,1.0,0.0,7.0,4.0,2158.8558855000883,4.0,1.0,part_3,go,0.0,0.0,0.0,196.0,4.0,98.0,294.0,49.0,196.0,245.0,147.0,cyan,flipped triangle
0.0,3.0,3.0,0.0,7.0,1.0,1158.7878910358995,4.0,1.0,part_3,go,0.0,0.0,0.0,88.0,2.0,88.0,176.0,264.0,220.0,132.0,44.0,orange,circle
0.0,8.0,4.0,1.0,7.0,1.0,3914.580088108778,4.0,1.0,part_3,go,0.0,0.0,0.0,147.0,3.0,147.0,98.0,294.0,196.0,49.0,245.0,blue,square
0.0,5.0,1.0,1.0,7.0,5.0,1654.019386973232,4.0,1.0,part_3,go,0.0,0.0,0.0,170.0,5.0,102.0,34.0,68.0,204.0,170.0,136.0,green,I
0.0,4.0,4.0,0.0,7.0,5.0,1689.4139726646245,4.0,1.0,part_3,go,0.0,0.0,0.0,147.0,3.0,98.0,245.0,294.0,49.0,147.0,196.0,gray,hexagon
0.0,4.0,4.0,0.0,7.0,3.0,2186.99102755636,4.0,1.0,part_3,go,0.0,0.0,0.0,136.0,4.0,68.0,170.0,136.0,102.0,34.0,204.0,gray,hexagon
0.0,7.0,3.0,1.0,7.0,3.0,1387.130904244259,4.0,1.0,part_3,go,0.0,0.0,0.0,136.0,4.0,204.0,170.0,136.0,102.0,68.0,34.0,white,cross
0.0,7.0,3.0,1.0,7.0,4.0,1320.8534724544734,4.0,1.0,part_3,go,0.0,0.0,0.0,147.0,3.0,98.0,294.0,49.0,147.0,245.0,196.0,white,cross
0.0,1.0,1.0,0.0,7.0,6.0,3865.9386087674648,4.0,1.0,part_3,go,0.0,0.0,0.0,132.0,3.0,44.0,220.0,88.0,176.0,264.0,132.0,cyan,flipped triangle
0.0,2.0,2.0,0.0,7.0,6.0,3450.8569799363613,4.0,1.0,part_3,go,0.0,0.0,0.0,98.0,2.0,147.0,196.0,294.0,245.0,49.0,98.0,yellow,triangle
0.0,6.0,2.0,1.0,7.0,2.0,1187.5392771326003,4.0,2.0,part_3,go,0.0,0.0,0.0,216.0,4.0,108.0,216.0,162.0,54.0,324.0,270.0,magenta,diamond
0.0,6.0,2.0,1.0,7.0,6.0,2121.7738557606936,4.0,1.0,part_3,go,0.0,0.0,0.0,264.0,6.0,176.0,132.0,88.0,220.0,44.0,264.0,magenta,diamond
0.0,3.0,3.0,0.0,7.0,1.0,1549.631188157946,4.0,1.0,part_3,go,0.0,0.0,0.0,54.0,1.0,54.0,270.0,108.0,324.0,162.0,216.0,orange,circle
0.0,5.0,1.0,1.0,7.0,2.0,1841.6609675623477,4.0,1.0,part_3,go,0.0,0.0,0.0,147.0,3.0,294.0,147.0,49.0,245.0,196.0,98.0,green,I
0.0,6.0,2.0,1.0,7.0,2.0,1248.185409931466,4.0,1.0,part_3,go,0.0,0.0,0.0,156.0,4.0,234.0,156.0,78.0,39.0,117.0,195.0,magenta,diamond
0.0,2.0,2.0,0.0,7.0,2.0,3328.9749696850777,4.0,1.0,part_3,go,0.0,0.0,0.0,136.0,4.0,34.0,136.0,68.0,170.0,102.0,204.0,yellow,triangle
0.0,5.0,1.0,1.0,7.0,2.0,2397.3506728652865,4.0,1.0,part_3,go,0.0,0.0,0.0,176.0,4.0,132.0,176.0,88.0,264.0,44.0,220.0,green,I
0.0,5.0,1.0,1.0,7.0,3.0,3534.518632804975,4.0,1.0,part_3,go,0.0,0.0,0.0,162.0,3.0,270.0,108.0,162.0,324.0,54.0,216.0,green,I
0.0,8.0,4.0,1.0,7.0,2.0,1599.7085724957287,4.0,1.0,part_3,go,0.0,0.0,0.0,68.0,2.0,204.0,68.0,136.0,34.0,170.0,102.0,blue,square
0.0,2.0,2.0,0.0,7.0,6.0,2007.299393415451,4.0,1.0,part_3,go,0.0,0.0,0.0,54.0,1.0,324.0,216.0,270.0,108.0,162.0,54.0,yellow,triangle
