raw_reward_magnitude,stim_reward,stepwise_reward_magnitude,paired_with_stopping,quadrant,response,reaction_time,block,num_trial_presentations,which_part,stop_signal_trial_type,left_SSD,right_SSD,accuracy,chosen_bidding_amount,chosen_bidding_level,possible_bid_1,possible_bid_2,possible_bid_3,possible_bid_4,possible_bid_5,possible_bid_6,color_text,shape_text
0.0,8.0,0.0,1.0,3.0,3.0,707.880278583616,1.0,1.0,part_1,,,,,,,,,,,,,white,flipped triangle
94.0,6.0,2.0,1.0,4.0,4.0,429.36268937774,1.0,1.0,part_1,,,,,,,,,,,,,cyan,circle
376.0,8.0,4.0,1.0,2.0,2.0,371.618254808709,1.0,1.0,part_1,,,,,,,,,,,,,white,flipped triangle
82.0,2.0,2.0,0.0,4.0,4.0,372.7844357490539,1.0,1.0,part_1,,,,,,,,,,,,,blue,triangle
210.0,7.0,3.0,1.0,4.0,4.0,407.307059969753,1.0,1.0,part_1,,,,,,,,,,,,,gray,I
377.0,8.0,4.0,1.0,3.0,3.0,306.2413467559963,1.0,1.0,part_1,,,,,,,,,,,,,white,flipped triangle
0.0,5.0,0.0,1.0,2.0,2.0,351.7173200380057,1.0,1.0,part_1,,,,,,,,,,,,,yellow,diamond
0.0,8.0,0.0,1.0,4.0,4.0,307.859280379489,1.0,1.0,part_1,,,,,,,,,,,,,white,flipped triangle
195.0,3.0,3.0,0.0,3.0,3.0,374.8199476394802,1.0,1.0,part_1,,,,,,,,,,,,,orange,hexagon
87.0,2.0,2.0,0.0,1.0,1.0,308.8849666528404,1.0,1.0,part_1,,,,,,,,,,,,,blue,triangle
0.0,6.0,0.0,1.0,2.0,2.0,297.5103210192173,1.0,1.0,part_1,,,,,,,,,,,,,cyan,circle
111.0,6.0,2.0,1.0,4.0,4.0,286.7772248573601,1.0,1.0,part_1,,,,,,,,,,,,,cyan,circle
382.0,8.0,4.0,1.0,1.0,1.0,334.8199625033885,1.0,2.0,part_1,,,,,,,,,,,,,white,flipped triangle
73.0,1.0,1.0,0.0,1.0,1.0,335.9579395037144,1.0,1.0,part_1,,,,,,,,,,,,,magenta,square
46.0,1.0,1.0,0.0,2.0,2.0,346.9141095411032,1.0,1.0,part_1,,,,,,,,,,,,,magenta,square
202.0,3.0,3.0,0.0,3.0,3.0,311.7046854458749,1.0,1.0,part_1,,,,,,,,,,,,,orange,hexagon
416.0,8.0,4.0,1.0,3.0,3.0,391.0443007480353,1.0,1.0,part_1,,,,,,,,,,,,,white,flipped triangle
184.0,7.0,3.0,1.0,4.0,4.0,302.1942267660051,1.0,1.0,part_1,,,,,,,,,,,,,gray,I
40.0,1.0,1.0,0.0,4.0,4.0,315.5860439874232,1.0,2.0,part_1,,,,,,,,,,,,,magenta,square
419.0,8.0,4.0,1.0,2.0,2.0,449.747618753463,1.0,1.0,part_1,,,,,,,,,,,,,white,flipped triangle
415.0,4.0,4.0,0.0,2.0,2.0,360.580230364576,1.0,1.0,part_1,,,,,,,,,,,,,green,cross
62.0,5.0,1.0,1.0,4.0,4.0,315.4023173265159,1.0,1.0,part_1,,,,,,,,,,,,,yellow,diamond
421.0,4.0,4.0,0.0,1.0,1.0,271.7365040443837,1.0,1.0,part_1,,,,,,,,,,,,,green,cross
0.0,5.0,0.0,1.0,4.0,4.0,329.6823599375784,1.0,1.0,part_1,,,,,,,,,,,,,yellow,diamond
379.0,4.0,4.0,0.0,1.0,1.0,317.8193625062704,1.0,1.0,part_1,,,,,,,,,,,,,green,cross
72.0,1.0,1.0,0.0,4.0,4.0,328.8960475474596,1.0,1.0,part_1,,,,,,,,,,,,,magenta,square
0.0,6.0,0.0,1.0,4.0,4.0,353.7224309984594,1.0,1.0,part_1,,,,,,,,,,,,,cyan,circle
0.0,2.0,0.0,0.0,2.0,2.0,353.5423194989562,1.0,1.0,part_1,,,,,,,,,,,,,blue,triangle
116.0,2.0,2.0,0.0,4.0,4.0,297.9871309362352,1.0,1.0,part_1,,,,,,,,,,,,,blue,triangle
101.0,2.0,2.0,0.0,1.0,1.0,321.9775489997118,1.0,1.0,part_1,,,,,,,,,,,,,blue,triangle
376.0,4.0,4.0,0.0,2.0,2.0,344.7071225382387,1.0,1.0,part_1,,,,,,,,,,,,,green,cross
0.0,3.0,0.0,0.0,4.0,4.0,333.687259349972,1.0,1.0,part_1,,,,,,,,,,,,,orange,hexagon
202.0,7.0,3.0,1.0,3.0,3.0,355.2594920620322,1.0,1.0,part_1,,,,,,,,,,,,,gray,I
210.0,7.0,3.0,1.0,2.0,2.0,333.7960634380579,1.0,1.0,part_1,,,,,,,,,,,,,gray,I
111.0,6.0,2.0,1.0,1.0,1.0,548.5719728749245,1.0,1.0,part_1,,,,,,,,,,,,,cyan,circle
177.0,3.0,3.0,0.0,3.0,3.0,380.2738550584763,1.0,1.0,part_1,,,,,,,,,,,,,orange,hexagon
0.0,1.0,0.0,0.0,1.0,1.0,267.7150210365653,1.0,1.0,part_1,,,,,,,,,,,,,magenta,square
195.0,3.0,3.0,0.0,3.0,3.0,414.9175160564482,1.0,1.0,part_1,,,,,,,,,,,,,orange,hexagon
402.0,4.0,4.0,0.0,4.0,4.0,280.929172411561,1.0,1.0,part_1,,,,,,,,,,,,,green,cross
103.0,6.0,2.0,1.0,1.0,1.0,530.2998009137809,1.0,1.0,part_1,,,,,,,,,,,,,cyan,circle
0.0,1.0,0.0,0.0,3.0,3.0,359.4783653970808,1.0,1.0,part_1,,,,,,,,,,,,,magenta,square
179.0,3.0,3.0,0.0,2.0,2.0,304.7567834146321,1.0,1.0,part_1,,,,,,,,,,,,,orange,hexagon
182.0,7.0,3.0,1.0,3.0,3.0,304.9812810495496,1.0,1.0,part_1,,,,,,,,,,,,,gray,I
29.0,5.0,1.0,1.0,4.0,4.0,407.3971707839519,1.0,2.0,part_1,,,,,,,,,,,,,yellow,diamond
122.0,6.0,2.0,1.0,4.0,4.0,374.9870725441724,1.0,1.0,part_1,,,,,,,,,,,,,cyan,circle
202.0,7.0,3.0,1.0,1.0,1.0,397.4567367695272,1.0,1.0,part_1,,,,,,,,,,,,,gray,I
77.0,2.0,2.0,0.0,3.0,3.0,331.3710342627018,1.0,1.0,part_1,,,,,,,,,,,,,blue,triangle
40.0,5.0,1.0,1.0,3.0,3.0,353.3959344495088,1.0,1.0,part_1,,,,,,,,,,,,,yellow,diamond
39.0,5.0,1.0,1.0,3.0,3.0,331.3016793690622,1.0,1.0,part_1,,,,,,,,,,,,,yellow,diamond
123.0,6.0,2.0,1.0,1.0,1.0,298.1602584477514,1.0,1.0,part_1,,,,,,,,,,,,,cyan,circle
105.0,6.0,2.0,1.0,2.0,2.0,559.2429011594504,1.0,1.0,part_1,,,,,,,,,,,,,cyan,circle
179.0,7.0,3.0,1.0,3.0,3.0,344.6681895293295,1.0,1.0,part_1,,,,,,,,,,,,,gray,I
0.0,5.0,0.0,1.0,1.0,1.0,424.75579935126,1.0,1.0,part_1,,,,,,,,,,,,,yellow,diamond
0.0,5.0,0.0,1.0,2.0,2.0,345.4389243852347,1.0,1.0,part_1,,,,,,,,,,,,,yellow,diamond
55.0,1.0,1.0,0.0,3.0,3.0,513.9324180781841,1.0,1.0,part_1,,,,,,,,,,,,,magenta,square
118.0,6.0,2.0,1.0,3.0,3.0,402.6607035193592,1.0,1.0,part_1,,,,,,,,,,,,,cyan,circle
50.0,5.0,1.0,1.0,2.0,2.0,370.3080154955387,1.0,1.0,part_1,,,,,,,,,,,,,yellow,diamond
0.0,7.0,0.0,1.0,4.0,4.0,302.2234635427594,1.0,1.0,part_1,,,,,,,,,,,,,gray,I
0.0,7.0,0.0,1.0,4.0,4.0,573.6902663484216,1.0,1.0,part_1,,,,,,,,,,,,,gray,I
401.0,8.0,4.0,1.0,1.0,1.0,449.5353754609823,1.0,1.0,part_1,,,,,,,,,,,,,white,flipped triangle
82.0,2.0,2.0,0.0,2.0,2.0,450.4747048486024,1.0,1.0,part_1,,,,,,,,,,,,,blue,triangle
0.0,4.0,0.0,0.0,1.0,1.0,405.8516283985227,1.0,1.0,part_1,,,,,,,,,,,,,green,cross
0.0,6.0,0.0,1.0,1.0,1.0,396.0067930165678,1.0,1.0,part_1,,,,,,,,,,,,,cyan,circle
111.0,2.0,2.0,0.0,2.0,2.0,384.1791609302163,1.0,1.0,part_1,,,,,,,,,,,,,blue,triangle
182.0,7.0,3.0,1.0,3.0,3.0,452.1398132201284,1.0,1.0,part_1,,,,,,,,,,,,,gray,I
417.0,4.0,4.0,0.0,4.0,4.0,386.2610545475036,1.0,1.0,part_1,,,,,,,,,,,,,green,cross
217.0,3.0,3.0,0.0,3.0,3.0,476.3787784613669,1.0,1.0,part_1,,,,,,,,,,,,,orange,hexagon
115.0,2.0,2.0,0.0,2.0,2.0,454.0867335163057,1.0,1.0,part_1,,,,,,,,,,,,,blue,triangle
199.0,7.0,3.0,1.0,2.0,2.0,534.1994429472834,1.0,1.0,part_1,,,,,,,,,,,,,gray,I
104.0,2.0,2.0,0.0,4.0,4.0,433.1082149874419,1.0,1.0,part_1,,,,,,,,,,,,,blue,triangle
183.0,3.0,3.0,0.0,1.0,1.0,423.6213420517742,1.0,1.0,part_1,,,,,,,,,,,,,orange,hexagon
48.0,1.0,1.0,0.0,4.0,4.0,412.8914379980415,1.0,1.0,part_1,,,,,,,,,,,,,magenta,square
86.0,6.0,2.0,1.0,4.0,4.0,615.851606009528,1.0,1.0,part_1,,,,,,,,,,,,,cyan,circle
206.0,3.0,3.0,0.0,1.0,1.0,311.4987558219582,1.0,1.0,part_1,,,,,,,,,,,,,orange,hexagon
193.0,7.0,3.0,1.0,2.0,2.0,336.1661660019308,1.0,1.0,part_1,,,,,,,,,,,,,gray,I
0.0,4.0,0.0,0.0,2.0,2.0,324.4246726389974,1.0,1.0,part_1,,,,,,,,,,,,,green,cross
26.0,1.0,1.0,0.0,2.0,2.0,953.9418192580342,1.0,1.0,part_1,,,,,,,,,,,,,magenta,square
0.0,4.0,0.0,0.0,3.0,3.0,402.9328681062907,1.0,1.0,part_1,,,,,,,,,,,,,green,cross
382.0,4.0,4.0,0.0,1.0,1.0,686.1495207995176,1.0,1.0,part_1,,,,,,,,,,,,,green,cross
0.0,7.0,0.0,1.0,4.0,4.0,350.2108394168317,1.0,1.0,part_1,,,,,,,,,,,,,gray,I
54.0,1.0,1.0,0.0,1.0,1.0,247.3709727637469,1.0,1.0,part_1,,,,,,,,,,,,,magenta,square
108.0,2.0,2.0,0.0,3.0,3.0,304.4490979518741,1.0,1.0,part_1,,,,,,,,,,,,,blue,triangle
395.0,4.0,4.0,0.0,4.0,4.0,767.1043334994465,1.0,2.0,part_1,,,,,,,,,,,,,green,cross
55.0,1.0,1.0,0.0,4.0,4.0,980.5369381792844,1.0,1.0,part_1,,,,,,,,,,,,,magenta,square
406.0,4.0,4.0,0.0,3.0,3.0,386.5584647282958,1.0,1.0,part_1,,,,,,,,,,,,,green,cross
403.0,8.0,4.0,1.0,2.0,2.0,443.9646594692021,1.0,1.0,part_1,,,,,,,,,,,,,white,flipped triangle
415.0,4.0,4.0,0.0,1.0,1.0,342.3783204052597,1.0,1.0,part_1,,,,,,,,,,,,,green,cross
217.0,7.0,3.0,1.0,1.0,1.0,400.025348411873,1.0,1.0,part_1,,,,,,,,,,,,,gray,I
0.0,3.0,0.0,0.0,2.0,2.0,331.6551358439028,1.0,1.0,part_1,,,,,,,,,,,,,orange,hexagon
93.0,2.0,2.0,0.0,3.0,3.0,432.9935119021684,1.0,1.0,part_1,,,,,,,,,,,,,blue,triangle
202.0,3.0,3.0,0.0,4.0,4.0,310.8513834886253,1.0,1.0,part_1,,,,,,,,,,,,,orange,hexagon
216.0,3.0,3.0,0.0,3.0,3.0,412.9087189212441,1.0,1.0,part_1,,,,,,,,,,,,,orange,hexagon
391.0,8.0,4.0,1.0,2.0,2.0,389.9434932973236,1.0,1.0,part_1,,,,,,,,,,,,,white,flipped triangle
0.0,4.0,0.0,0.0,1.0,1.0,357.6204150449484,1.0,2.0,part_1,,,,,,,,,,,,,green,cross
195.0,7.0,3.0,1.0,2.0,2.0,346.9365278724581,1.0,1.0,part_1,,,,,,,,,,,,,gray,I
29.0,1.0,1.0,0.0,1.0,1.0,515.8243123441935,1.0,1.0,part_1,,,,,,,,,,,,,magenta,square
377.0,4.0,4.0,0.0,2.0,2.0,381.7722999956459,1.0,1.0,part_1,,,,,,,,,,,,,green,cross
398.0,4.0,4.0,0.0,4.0,4.0,293.2687883730978,1.0,1.0,part_1,,,,,,,,,,,,,green,cross
99.0,6.0,2.0,1.0,1.0,1.0,597.3135977983475,1.0,1.0,part_1,,,,,,,,,,,,,cyan,circle
191.0,3.0,3.0,0.0,4.0,4.0,328.2644534483552,1.0,2.0,part_1,,,,,,,,,,,,,orange,hexagon
222.0,7.0,3.0,1.0,1.0,1.0,601.8325418699533,2.0,1.0,part_1,,,,,,,,,,,,,gray,I
0.0,1.0,0.0,0.0,4.0,4.0,331.5793168731034,2.0,1.0,part_1,,,,,,,,,,,,,magenta,square
398.0,8.0,4.0,1.0,3.0,3.0,345.1403183862567,2.0,1.0,part_1,,,,,,,,,,,,,white,flipped triangle
119.0,6.0,2.0,1.0,4.0,4.0,366.9556097593158,2.0,2.0,part_1,,,,,,,,,,,,,cyan,circle
384.0,8.0,4.0,1.0,3.0,3.0,357.0554892066866,2.0,1.0,part_1,,,,,,,,,,,,,white,flipped triangle
55.0,5.0,1.0,1.0,3.0,3.0,425.2846066374331,2.0,1.0,part_1,,,,,,,,,,,,,yellow,diamond
421.0,8.0,4.0,1.0,1.0,1.0,381.0738027095794,2.0,2.0,part_1,,,,,,,,,,,,,white,flipped triangle
86.0,2.0,2.0,0.0,1.0,1.0,370.5278609413653,2.0,1.0,part_1,,,,,,,,,,,,,blue,triangle
377.0,8.0,4.0,1.0,4.0,4.0,394.7787005454302,2.0,1.0,part_1,,,,,,,,,,,,,white,flipped triangle
25.0,1.0,1.0,0.0,3.0,3.0,788.9239373616874,2.0,1.0,part_1,,,,,,,,,,,,,magenta,square
29.0,1.0,1.0,0.0,2.0,2.0,439.7550409194082,2.0,1.0,part_1,,,,,,,,,,,,,magenta,square
0.0,5.0,0.0,1.0,4.0,4.0,451.1931233573705,2.0,1.0,part_1,,,,,,,,,,,,,yellow,diamond
405.0,4.0,4.0,0.0,3.0,3.0,373.8312339410186,2.0,1.0,part_1,,,,,,,,,,,,,green,cross
120.0,6.0,2.0,1.0,3.0,3.0,531.0963215306401,2.0,1.0,part_1,,,,,,,,,,,,,cyan,circle
194.0,7.0,3.0,1.0,3.0,3.0,544.9035477358848,2.0,1.0,part_1,,,,,,,,,,,,,gray,I
0.0,2.0,0.0,0.0,2.0,2.0,387.0697219390422,2.0,2.0,part_1,,,,,,,,,,,,,blue,triangle
220.0,7.0,3.0,1.0,3.0,3.0,432.2519735433161,2.0,1.0,part_1,,,,,,,,,,,,,gray,I
388.0,4.0,4.0,0.0,3.0,3.0,433.4079774562269,2.0,1.0,part_1,,,,,,,,,,,,,green,cross
401.0,8.0,4.0,1.0,2.0,2.0,534.5087167806923,2.0,1.0,part_1,,,,,,,,,,,,,white,flipped triangle
217.0,7.0,3.0,1.0,2.0,2.0,478.4265840426087,2.0,1.0,part_1,,,,,,,,,,,,,gray,I
72.0,5.0,1.0,1.0,2.0,2.0,367.7793829701841,2.0,1.0,part_1,,,,,,,,,,,,,yellow,diamond
185.0,3.0,3.0,0.0,3.0,3.0,526.2767488602549,2.0,1.0,part_1,,,,,,,,,,,,,orange,hexagon
0.0,4.0,0.0,0.0,2.0,2.0,649.346953490749,2.0,1.0,part_1,,,,,,,,,,,,,green,cross
0.0,1.0,0.0,0.0,3.0,3.0,436.5196854341775,2.0,1.0,part_1,,,,,,,,,,,,,magenta,square
36.0,5.0,1.0,1.0,2.0,2.0,391.7619364801794,2.0,1.0,part_1,,,,,,,,,,,,,yellow,diamond
190.0,3.0,3.0,0.0,1.0,1.0,427.2943965625018,2.0,1.0,part_1,,,,,,,,,,,,,orange,hexagon
211.0,7.0,3.0,1.0,1.0,1.0,392.7637399174273,2.0,1.0,part_1,,,,,,,,,,,,,gray,I
202.0,3.0,3.0,0.0,1.0,1.0,416.9671270065009,2.0,1.0,part_1,,,,,,,,,,,,,orange,hexagon
422.0,4.0,4.0,0.0,1.0,1.0,326.289664953947,2.0,1.0,part_1,,,,,,,,,,,,,green,cross
407.0,8.0,4.0,1.0,1.0,1.0,294.07564038410777,2.0,1.0,part_1,,,,,,,,,,,,,white,flipped triangle
111.0,2.0,2.0,0.0,2.0,2.0,385.5058122426271,2.0,1.0,part_1,,,,,,,,,,,,,blue,triangle
207.0,7.0,3.0,1.0,2.0,2.0,384.0558994561434,2.0,1.0,part_1,,,,,,,,,,,,,gray,I
116.0,6.0,2.0,1.0,3.0,3.0,396.97269373573357,2.0,1.0,part_1,,,,,,,,,,,,,cyan,circle
0.0,3.0,0.0,0.0,1.0,1.0,342.0838413294405,2.0,1.0,part_1,,,,,,,,,,,,,orange,hexagon
47.0,5.0,1.0,1.0,1.0,1.0,565.769103821367,2.0,1.0,part_1,,,,,,,,,,,,,yellow,diamond
0.0,2.0,0.0,0.0,4.0,4.0,487.8214369527995,2.0,1.0,part_1,,,,,,,,,,,,,blue,triangle
63.0,5.0,1.0,1.0,1.0,1.0,612.0487358421087,2.0,1.0,part_1,,,,,,,,,,,,,yellow,diamond
395.0,8.0,4.0,1.0,1.0,1.0,366.1731628235429,2.0,1.0,part_1,,,,,,,,,,,,,white,flipped triangle
113.0,6.0,2.0,1.0,2.0,2.0,423.2436879537999,2.0,1.0,part_1,,,,,,,,,,,,,cyan,circle
55.0,5.0,1.0,1.0,4.0,4.0,333.7414530105889,2.0,1.0,part_1,,,,,,,,,,,,,yellow,diamond
211.0,3.0,3.0,0.0,2.0,2.0,411.8424721527844,2.0,1.0,part_1,,,,,,,,,,,,,orange,hexagon
107.0,6.0,2.0,1.0,1.0,1.0,389.6252233535051,2.0,1.0,part_1,,,,,,,,,,,,,cyan,circle
401.0,4.0,4.0,0.0,4.0,4.0,738.9621143229306,2.0,1.0,part_1,,,,,,,,,,,,,green,cross
0.0,8.0,0.0,1.0,1.0,1.0,786.3925360143185,2.0,1.0,part_1,,,,,,,,,,,,,white,flipped triangle
422.0,8.0,4.0,1.0,4.0,4.0,471.3297383859753,2.0,1.0,part_1,,,,,,,,,,,,,white,flipped triangle
99.0,2.0,2.0,0.0,1.0,1.0,459.9106323439628,2.0,1.0,part_1,,,,,,,,,,,,,blue,triangle
0.0,6.0,0.0,1.0,3.0,3.0,470.8153170067817,2.0,1.0,part_1,,,,,,,,,,,,,cyan,circle
55.0,5.0,1.0,1.0,3.0,3.0,652.1475850604475,2.0,1.0,part_1,,,,,,,,,,,,,yellow,diamond
68.0,5.0,1.0,1.0,1.0,1.0,900.4439949057996,2.0,1.0,part_1,,,,,,,,,,,,,yellow,diamond
398.0,8.0,4.0,1.0,4.0,4.0,585.1040233392268,2.0,1.0,part_1,,,,,,,,,,,,,white,flipped triangle
94.0,2.0,2.0,0.0,1.0,1.0,417.6159088965505,2.0,1.0,part_1,,,,,,,,,,,,,blue,triangle
88.0,2.0,2.0,0.0,2.0,2.0,509.4199343584478,2.0,1.0,part_1,,,,,,,,,,,,,blue,triangle
121.0,2.0,2.0,0.0,3.0,3.0,475.2387905027717,2.0,1.0,part_1,,,,,,,,,,,,,blue,triangle
207.0,3.0,3.0,0.0,1.0,1.0,452.8635153546929,2.0,1.0,part_1,,,,,,,,,,,,,orange,hexagon
33.0,5.0,1.0,1.0,3.0,3.0,554.4667481444776,2.0,1.0,part_1,,,,,,,,,,,,,yellow,diamond
82.0,6.0,2.0,1.0,4.0,4.0,677.9533559456468,2.0,1.0,part_1,,,,,,,,,,,,,cyan,circle
199.0,3.0,3.0,0.0,2.0,2.0,499.7830220963806,2.0,1.0,part_1,,,,,,,,,,,,,orange,hexagon
183.0,7.0,3.0,1.0,1.0,1.0,634.7977614495903,2.0,1.0,part_1,,,,,,,,,,,,,gray,I
222.0,3.0,3.0,0.0,2.0,2.0,534.965593367815,2.0,1.0,part_1,,,,,,,,,,,,,orange,hexagon
0.0,4.0,0.0,0.0,4.0,4.0,467.1192187815904,2.0,1.0,part_1,,,,,,,,,,,,,green,cross
36.0,1.0,1.0,0.0,1.0,1.0,332.6332974247634,2.0,1.0,part_1,,,,,,,,,,,,,magenta,square
94.0,2.0,2.0,0.0,2.0,2.0,389.5224437583238,2.0,1.0,part_1,,,,,,,,,,,,,blue,triangle
70.0,5.0,1.0,1.0,3.0,3.0,401.6681490465998,2.0,1.0,part_1,,,,,,,,,,,,,yellow,diamond
0.0,1.0,0.0,0.0,1.0,1.0,414.3720238935202,2.0,1.0,part_1,,,,,,,,,,,,,magenta,square
183.0,3.0,3.0,0.0,4.0,4.0,267.6713415421545,2.0,1.0,part_1,,,,,,,,,,,,,orange,hexagon
414.0,4.0,4.0,0.0,2.0,2.0,258.2482930738479,2.0,1.0,part_1,,,,,,,,,,,,,green,cross
73.0,5.0,1.0,1.0,1.0,1.0,268.337182002142,2.0,2.0,part_1,,,,,,,,,,,,,yellow,diamond
0.0,1.0,0.0,0.0,3.0,3.0,359.7501618787646,2.0,1.0,part_1,,,,,,,,,,,,,magenta,square
82.0,2.0,2.0,0.0,2.0,2.0,370.8715578541159,2.0,1.0,part_1,,,,,,,,,,,,,blue,triangle
208.0,3.0,3.0,0.0,4.0,4.0,383.4699068684131,2.0,1.0,part_1,,,,,,,,,,,,,orange,hexagon
210.0,3.0,3.0,0.0,2.0,2.0,396.1248428095132,2.0,1.0,part_1,,,,,,,,,,,,,orange,hexagon
44.0,5.0,1.0,1.0,4.0,4.0,407.8851053491235,2.0,1.0,part_1,,,,,,,,,,,,,yellow,diamond
89.0,6.0,2.0,1.0,4.0,4.0,329.4446843210608,2.0,1.0,part_1,,,,,,,,,,,,,cyan,circle
76.0,2.0,2.0,0.0,3.0,3.0,407.5163130182773,2.0,1.0,part_1,,,,,,,,,,,,,blue,triangle
176.0,7.0,3.0,1.0,1.0,1.0,408.7352228816598,2.0,1.0,part_1,,,,,,,,,,,,,gray,I
71.0,5.0,1.0,1.0,2.0,2.0,331.3399429898709,2.0,1.0,part_1,,,,,,,,,,,,,yellow,diamond
113.0,2.0,2.0,0.0,4.0,4.0,274.7397730126977,2.0,1.0,part_1,,,,,,,,,,,,,blue,triangle
0.0,7.0,0.0,1.0,1.0,1.0,308.9588533621281,2.0,1.0,part_1,,,,,,,,,,,,,gray,I
190.0,7.0,3.0,1.0,4.0,4.0,331.4568388741463,2.0,1.0,part_1,,,,,,,,,,,,,gray,I
222.0,7.0,3.0,1.0,3.0,3.0,456.5350927878171,2.0,1.0,part_1,,,,,,,,,,,,,gray,I
419.0,4.0,4.0,0.0,2.0,2.0,300.3134801983833,2.0,1.0,part_1,,,,,,,,,,,,,green,cross
176.0,3.0,3.0,0.0,2.0,2.0,333.4877879824489,2.0,1.0,part_1,,,,,,,,,,,,,orange,hexagon
98.0,2.0,2.0,0.0,3.0,3.0,380.0755375996232,2.0,1.0,part_1,,,,,,,,,,,,,blue,triangle
0.0,6.0,0.0,1.0,4.0,4.0,346.5883808676153,2.0,1.0,part_1,,,,,,,,,,,,,cyan,circle
25.0,5.0,1.0,1.0,2.0,2.0,290.4450024943799,2.0,1.0,part_1,,,,,,,,,,,,,yellow,diamond
99.0,6.0,2.0,1.0,3.0,3.0,336.0011302866041,2.0,1.0,part_1,,,,,,,,,,,,,cyan,circle
220.0,7.0,3.0,1.0,4.0,4.0,301.5955009032041,2.0,1.0,part_1,,,,,,,,,,,,,gray,I
0.0,6.0,0.0,1.0,3.0,3.0,347.2390950191766,2.0,1.0,part_1,,,,,,,,,,,,,cyan,circle
0.0,6.0,0.0,1.0,2.0,2.0,494.8169779963791,2.0,1.0,part_1,,,,,,,,,,,,,cyan,circle
177.0,7.0,3.0,1.0,3.0,3.0,472.8804363403469,2.0,1.0,part_1,,,,,,,,,,,,,gray,I
376.0,4.0,4.0,0.0,3.0,3.0,292.4352227710187,2.0,1.0,part_1,,,,,,,,,,,,,green,cross
206.0,7.0,3.0,1.0,4.0,4.0,283.030662452802,2.0,1.0,part_1,,,,,,,,,,,,,gray,I
0.0,1.0,0.0,0.0,1.0,1.0,306.2026309780776,2.0,1.0,part_1,,,,,,,,,,,,,magenta,square
184.0,3.0,3.0,0.0,2.0,2.0,305.5193480104208,2.0,1.0,part_1,,,,,,,,,,,,,orange,hexagon
415.0,8.0,4.0,1.0,3.0,3.0,296.5171074029058,2.0,1.0,part_1,,,,,,,,,,,,,white,flipped triangle
120.0,2.0,2.0,0.0,4.0,4.0,353.2917704433203,2.0,1.0,part_1,,,,,,,,,,,,,blue,triangle
424.0,4.0,4.0,0.0,2.0,2.0,353.0624264385551,2.0,1.0,part_1,,,,,,,,,,,,,green,cross
119.0,2.0,2.0,0.0,1.0,1.0,263.4188570082187,2.0,1.0,part_1,,,,,,,,,,,,,blue,triangle
0.0,7.0,0.0,1.0,3.0,3.0,286.3049269653857,2.0,1.0,part_1,,,,,,,,,,,,,gray,I
415.0,8.0,4.0,1.0,1.0,1.0,288.7313838582486,2.0,1.0,part_1,,,,,,,,,,,,,white,flipped triangle
54.0,5.0,1.0,1.0,1.0,1.0,309.3701831530779,3.0,1.0,part_1,,,,,,,,,,,,,yellow,diamond
101.0,6.0,2.0,1.0,2.0,2.0,331.4402948599309,3.0,1.0,part_1,,,,,,,,,,,,,cyan,circle
49.0,5.0,1.0,1.0,4.0,4.0,263.657237868756,3.0,1.0,part_1,,,,,,,,,,,,,yellow,diamond
415.0,4.0,4.0,0.0,1.0,1.0,344.3217808380723,3.0,1.0,part_1,,,,,,,,,,,,,green,cross
51.0,1.0,1.0,0.0,3.0,3.0,332.7344330027699,3.0,1.0,part_1,,,,,,,,,,,,,magenta,square
0.0,2.0,0.0,0.0,2.0,2.0,278.715802822262,3.0,1.0,part_1,,,,,,,,,,,,,blue,triangle
216.0,7.0,3.0,1.0,1.0,1.0,324.979116441682,3.0,2.0,part_1,,,,,,,,,,,,,gray,I
102.0,6.0,2.0,1.0,3.0,3.0,402.5802409742027,3.0,1.0,part_1,,,,,,,,,,,,,cyan,circle
176.0,3.0,3.0,0.0,1.0,1.0,324.9626788310706,3.0,1.0,part_1,,,,,,,,,,,,,orange,hexagon
416.0,4.0,4.0,0.0,3.0,3.0,381.4052201341837,3.0,1.0,part_1,,,,,,,,,,,,,green,cross
405.0,8.0,4.0,1.0,4.0,4.0,449.4560847524553,3.0,1.0,part_1,,,,,,,,,,,,,white,flipped triangle
65.0,5.0,1.0,1.0,4.0,4.0,370.7989698741585,3.0,1.0,part_1,,,,,,,,,,,,,yellow,diamond
0.0,8.0,0.0,1.0,3.0,3.0,372.5909003987908,3.0,1.0,part_1,,,,,,,,,,,,,white,flipped triangle
0.0,8.0,0.0,1.0,1.0,1.0,442.1126928646117,3.0,2.0,part_1,,,,,,,,,,,,,white,flipped triangle
107.0,2.0,2.0,0.0,1.0,1.0,307.4739666189998,3.0,1.0,part_1,,,,,,,,,,,,,blue,triangle
412.0,4.0,4.0,0.0,1.0,1.0,441.3941036909818,3.0,1.0,part_1,,,,,,,,,,,,,green,cross
0.0,7.0,0.0,1.0,2.0,2.0,329.3690818827599,3.0,1.0,part_1,,,,,,,,,,,,,gray,I
0.0,7.0,0.0,1.0,2.0,2.0,375.4571676254272,3.0,1.0,part_1,,,,,,,,,,,,,gray,I
0.0,2.0,0.0,0.0,2.0,2.0,431.7872778046876,3.0,1.0,part_1,,,,,,,,,,,,,blue,triangle
0.0,3.0,0.0,0.0,4.0,4.0,398.8485685549676,3.0,1.0,part_1,,,,,,,,,,,,,orange,hexagon
0.0,3.0,0.0,0.0,3.0,3.0,421.8749233987182,3.0,1.0,part_1,,,,,,,,,,,,,orange,hexagon
195.0,7.0,3.0,1.0,2.0,2.0,512.717044679448,3.0,1.0,part_1,,,,,,,,,,,,,gray,I
26.0,5.0,1.0,1.0,2.0,2.0,400.6545059382915,3.0,1.0,part_1,,,,,,,,,,,,,yellow,diamond
105.0,2.0,2.0,0.0,4.0,4.0,581.5827078185976,3.0,1.0,part_1,,,,,,,,,,,,,blue,triangle
94.0,6.0,2.0,1.0,3.0,3.0,366.6648087091744,3.0,1.0,part_1,,,,,,,,,,,,,cyan,circle
391.0,4.0,4.0,0.0,3.0,3.0,367.8108907770365,3.0,1.0,part_1,,,,,,,,,,,,,green,cross
183.0,7.0,3.0,1.0,2.0,2.0,492.95448907651,3.0,1.0,part_1,,,,,,,,,,,,,gray,I
402.0,8.0,4.0,1.0,1.0,1.0,526.598442113027,3.0,1.0,part_1,,,,,,,,,,,,,white,flipped triangle
390.0,4.0,4.0,0.0,1.0,1.0,371.0359039250761,3.0,1.0,part_1,,,,,,,,,,,,,green,cross
407.0,4.0,4.0,0.0,4.0,4.0,324.7639569453895,3.0,1.0,part_1,,,,,,,,,,,,,green,cross
398.0,4.0,4.0,0.0,4.0,4.0,314.2948127351701,3.0,1.0,part_1,,,,,,,,,,,,,green,cross
68.0,5.0,1.0,1.0,3.0,3.0,416.3007359020412,3.0,3.0,part_1,,,,,,,,,,,,,yellow,diamond
44.0,1.0,1.0,0.0,3.0,3.0,429.689401993528,3.0,1.0,part_1,,,,,,,,,,,,,magenta,square
37.0,1.0,1.0,0.0,1.0,1.0,317.3846343997866,3.0,1.0,part_1,,,,,,,,,,,,,magenta,square
185.0,7.0,3.0,1.0,4.0,4.0,306.9594809785485,3.0,1.0,part_1,,,,,,,,,,,,,gray,I
0.0,8.0,0.0,1.0,2.0,2.0,286.367961904034,3.0,1.0,part_1,,,,,,,,,,,,,white,flipped triangle
382.0,4.0,4.0,0.0,3.0,3.0,353.7780337501317,3.0,1.0,part_1,,,,,,,,,,,,,green,cross
388.0,8.0,4.0,1.0,4.0,4.0,264.3996807746589,3.0,1.0,part_1,,,,,,,,,,,,,white,flipped triangle
208.0,7.0,3.0,1.0,2.0,2.0,331.4059155527502,3.0,1.0,part_1,,,,,,,,,,,,,gray,I
51.0,5.0,1.0,1.0,1.0,1.0,355.8167100418359,3.0,1.0,part_1,,,,,,,,,,,,,yellow,diamond
216.0,7.0,3.0,1.0,4.0,4.0,276.3498588465154,3.0,1.0,part_1,,,,,,,,,,,,,gray,I
110.0,6.0,2.0,1.0,2.0,2.0,513.2592776790261,3.0,1.0,part_1,,,,,,,,,,,,,cyan,circle
185.0,3.0,3.0,0.0,3.0,3.0,501.4619114808738,3.0,1.0,part_1,,,,,,,,,,,,,orange,hexagon
401.0,4.0,4.0,0.0,2.0,2.0,524.7430938761681,3.0,1.0,part_1,,,,,,,,,,,,,green,cross
0.0,1.0,0.0,0.0,1.0,1.0,278.7032749038189,3.0,1.0,part_1,,,,,,,,,,,,,magenta,square
376.0,8.0,4.0,1.0,4.0,4.0,379.7287973575294,3.0,1.0,part_1,,,,,,,,,,,,,white,flipped triangle
414.0,8.0,4.0,1.0,2.0,2.0,313.8447029050439,3.0,1.0,part_1,,,,,,,,,,,,,white,flipped triangle
93.0,6.0,2.0,1.0,1.0,1.0,371.0596289020031,3.0,1.0,part_1,,,,,,,,,,,,,cyan,circle
0.0,5.0,0.0,1.0,2.0,2.0,438.4690318256616,3.0,1.0,part_1,,,,,,,,,,,,,yellow,diamond
0.0,5.0,0.0,1.0,1.0,1.0,405.6902746669948,3.0,1.0,part_1,,,,,,,,,,,,,yellow,diamond
389.0,4.0,4.0,0.0,1.0,1.0,360.2773549500853,3.0,1.0,part_1,,,,,,,,,,,,,green,cross
415.0,8.0,4.0,1.0,4.0,4.0,351.0992473457008,3.0,1.0,part_1,,,,,,,,,,,,,white,flipped triangle
64.0,5.0,1.0,1.0,4.0,4.0,340.1622781530022,3.0,1.0,part_1,,,,,,,,,,,,,yellow,diamond
52.0,5.0,1.0,1.0,3.0,3.0,349.8623247724026,3.0,1.0,part_1,,,,,,,,,,,,,yellow,diamond
68.0,1.0,1.0,0.0,3.0,3.0,485.4811544064432,3.0,1.0,part_1,,,,,,,,,,,,,magenta,square
220.0,7.0,3.0,1.0,1.0,1.0,397.254548035562,3.0,1.0,part_1,,,,,,,,,,,,,gray,I
65.0,1.0,1.0,0.0,1.0,1.0,443.9690879080444,3.0,1.0,part_1,,,,,,,,,,,,,magenta,square
110.0,2.0,2.0,0.0,3.0,3.0,645.0742343440652,3.0,1.0,part_1,,,,,,,,,,,,,blue,triangle
390.0,8.0,4.0,1.0,4.0,4.0,353.7525390274822,3.0,1.0,part_1,,,,,,,,,,,,,white,flipped triangle
36.0,5.0,1.0,1.0,2.0,2.0,567.6540965214372,3.0,1.0,part_1,,,,,,,,,,,,,yellow,diamond
0.0,8.0,0.0,1.0,3.0,3.0,511.5402287337929,3.0,1.0,part_1,,,,,,,,,,,,,white,flipped triangle
0.0,3.0,0.0,0.0,4.0,4.0,872.5576344877481,3.0,1.0,part_1,,,,,,,,,,,,,orange,hexagon
104.0,6.0,2.0,1.0,3.0,3.0,446.679611923173,3.0,1.0,part_1,,,,,,,,,,,,,cyan,circle
176.0,7.0,3.0,1.0,2.0,2.0,547.1649058163166,3.0,1.0,part_1,,,,,,,,,,,,,gray,I
217.0,3.0,3.0,0.0,4.0,4.0,322.5517214741558,3.0,1.0,part_1,,,,,,,,,,,,,orange,hexagon
88.0,6.0,2.0,1.0,2.0,2.0,391.4806959219277,3.0,1.0,part_1,,,,,,,,,,,,,cyan,circle
47.0,1.0,1.0,0.0,3.0,3.0,335.7358896173537,3.0,1.0,part_1,,,,,,,,,,,,,magenta,square
60.0,1.0,1.0,0.0,3.0,3.0,346.7490675393492,3.0,1.0,part_1,,,,,,,,,,,,,magenta,square
220.0,3.0,3.0,0.0,1.0,1.0,314.958386356011,3.0,1.0,part_1,,,,,,,,,,,,,orange,hexagon
213.0,7.0,3.0,1.0,4.0,4.0,236.5984939970076,3.0,2.0,part_1,,,,,,,,,,,,,gray,I
38.0,5.0,1.0,1.0,2.0,2.0,305.429593892768,3.0,2.0,part_1,,,,,,,,,,,,,yellow,diamond
213.0,3.0,3.0,0.0,4.0,4.0,385.278097121045,3.0,1.0,part_1,,,,,,,,,,,,,orange,hexagon
54.0,5.0,1.0,1.0,1.0,1.0,351.7380054108798,3.0,1.0,part_1,,,,,,,,,,,,,yellow,diamond
384.0,4.0,4.0,0.0,3.0,3.0,610.0133296567947,3.0,1.0,part_1,,,,,,,,,,,,,green,cross
182.0,3.0,3.0,0.0,3.0,3.0,352.1776569541543,3.0,1.0,part_1,,,,,,,,,,,,,orange,hexagon
218.0,3.0,3.0,0.0,4.0,4.0,374.4978853501379,3.0,1.0,part_1,,,,,,,,,,,,,orange,hexagon
62.0,1.0,1.0,0.0,1.0,1.0,397.7059812750667,3.0,1.0,part_1,,,,,,,,,,,,,magenta,square
194.0,3.0,3.0,0.0,3.0,3.0,500.923810293898,3.0,1.0,part_1,,,,,,,,,,,,,orange,hexagon
76.0,6.0,2.0,1.0,3.0,3.0,342.1847301069647,3.0,1.0,part_1,,,,,,,,,,,,,cyan,circle
102.0,2.0,2.0,0.0,4.0,4.0,410.6570610310882,3.0,1.0,part_1,,,,,,,,,,,,,blue,triangle
381.0,4.0,4.0,0.0,4.0,4.0,467.6503846421838,3.0,1.0,part_1,,,,,,,,,,,,,green,cross
113.0,6.0,2.0,1.0,1.0,1.0,355.8691523503512,3.0,1.0,part_1,,,,,,,,,,,,,cyan,circle
0.0,5.0,0.0,1.0,2.0,2.0,311.6548391990363,3.0,1.0,part_1,,,,,,,,,,,,,yellow,diamond
99.0,2.0,2.0,0.0,4.0,4.0,301.8740029074251,3.0,1.0,part_1,,,,,,,,,,,,,blue,triangle
0.0,8.0,0.0,1.0,3.0,3.0,312.1378167998045,3.0,1.0,part_1,,,,,,,,,,,,,white,flipped triangle
389.0,8.0,4.0,1.0,3.0,3.0,335.9846575185656,3.0,1.0,part_1,,,,,,,,,,,,,white,flipped triangle
0.0,2.0,0.0,0.0,4.0,4.0,278.985396027565,3.0,1.0,part_1,,,,,,,,,,,,,blue,triangle
87.0,2.0,2.0,0.0,3.0,3.0,360.0586948450655,3.0,1.0,part_1,,,,,,,,,,,,,blue,triangle
0.0,7.0,0.0,1.0,1.0,1.0,393.2409633416682,3.0,1.0,part_1,,,,,,,,,,,,,gray,I
64.0,1.0,1.0,0.0,2.0,2.0,348.9352206233889,3.0,1.0,part_1,,,,,,,,,,,,,magenta,square
77.0,6.0,2.0,1.0,3.0,3.0,496.2786843534559,3.0,1.0,part_1,,,,,,,,,,,,,cyan,circle
0.0,1.0,0.0,0.0,4.0,4.0,316.1992884706706,3.0,1.0,part_1,,,,,,,,,,,,,magenta,square
38.0,1.0,1.0,0.0,3.0,3.0,349.513232242316,3.0,1.0,part_1,,,,,,,,,,,,,magenta,square
0.0,4.0,0.0,0.0,3.0,3.0,362.3301279731095,3.0,1.0,part_1,,,,,,,,,,,,,green,cross
414.0,8.0,4.0,1.0,1.0,1.0,566.4103550370783,3.0,1.0,part_1,,,,,,,,,,,,,white,flipped triangle
191.0,7.0,3.0,1.0,3.0,3.0,565.0049983523786,3.0,1.0,part_1,,,,,,,,,,,,,gray,I
0.0,3.0,0.0,0.0,4.0,4.0,308.7681198958307,3.0,1.0,part_1,,,,,,,,,,,,,orange,hexagon
417.0,4.0,4.0,0.0,3.0,3.0,341.1153766792267,3.0,1.0,part_1,,,,,,,,,,,,,green,cross
0.0,6.0,0.0,1.0,1.0,1.0,309.3444590922445,3.0,1.0,part_1,,,,,,,,,,,,,cyan,circle
87.0,6.0,2.0,1.0,4.0,4.0,331.7451043985784,3.0,1.0,part_1,,,,,,,,,,,,,cyan,circle
183.0,7.0,3.0,1.0,1.0,1.0,341.4640889968723,4.0,2.0,part_1,,,,,,,,,,,,,gray,I
417.0,8.0,4.0,1.0,2.0,2.0,287.7113064751029,4.0,1.0,part_1,,,,,,,,,,,,,white,flipped triangle
87.0,6.0,2.0,1.0,3.0,3.0,421.2208169046789,4.0,1.0,part_1,,,,,,,,,,,,,cyan,circle
398.0,4.0,4.0,0.0,2.0,2.0,456.2797546386719,4.0,1.0,part_1,,,,,,,,,,,,,green,cross
36.0,1.0,1.0,0.0,2.0,2.0,287.6146365888417,4.0,1.0,part_1,,,,,,,,,,,,,magenta,square
0.0,7.0,0.0,1.0,4.0,4.0,322.4378814920783,4.0,1.0,part_1,,,,,,,,,,,,,gray,I
0.0,8.0,0.0,1.0,3.0,3.0,356.0982274357229,4.0,1.0,part_1,,,,,,,,,,,,,white,flipped triangle
108.0,6.0,2.0,1.0,2.0,2.0,336.1543074715882,4.0,1.0,part_1,,,,,,,,,,,,,cyan,circle
82.0,6.0,2.0,1.0,1.0,1.0,323.8664753735065,4.0,1.0,part_1,,,,,,,,,,,,,cyan,circle
0.0,5.0,0.0,1.0,4.0,4.0,324.6485483832657,4.0,1.0,part_1,,,,,,,,,,,,,yellow,diamond
406.0,8.0,4.0,1.0,2.0,2.0,291.5542505215853,4.0,1.0,part_1,,,,,,,,,,,,,white,flipped triangle
56.0,5.0,1.0,1.0,1.0,1.0,280.732657527551,4.0,1.0,part_1,,,,,,,,,,,,,yellow,diamond
222.0,3.0,3.0,0.0,4.0,4.0,302.9067669995129,4.0,1.0,part_1,,,,,,,,,,,,,orange,hexagon
53.0,1.0,1.0,0.0,2.0,2.0,270.8902577869594,4.0,1.0,part_1,,,,,,,,,,,,,magenta,square
0.0,1.0,0.0,0.0,2.0,2.0,339.2055260483175,4.0,1.0,part_1,,,,,,,,,,,,,magenta,square
54.0,1.0,1.0,0.0,1.0,1.0,282.8152980655432,4.0,1.0,part_1,,,,,,,,,,,,,magenta,square
382.0,8.0,4.0,1.0,1.0,1.0,631.7636610474437,4.0,1.0,part_1,,,,,,,,,,,,,white,flipped triangle
25.0,1.0,1.0,0.0,4.0,4.0,496.6564814094454,4.0,1.0,part_1,,,,,,,,,,,,,magenta,square
0.0,4.0,0.0,0.0,1.0,1.0,318.2326050009578,4.0,1.0,part_1,,,,,,,,,,,,,green,cross
90.0,6.0,2.0,1.0,2.0,2.0,443.5978289693594,4.0,1.0,part_1,,,,,,,,,,,,,cyan,circle
217.0,3.0,3.0,0.0,1.0,1.0,353.0018040910363,4.0,1.0,part_1,,,,,,,,,,,,,orange,hexagon
0.0,3.0,0.0,0.0,3.0,3.0,465.626805787906,4.0,1.0,part_1,,,,,,,,,,,,,orange,hexagon
103.0,2.0,2.0,0.0,2.0,2.0,319.5280036889016,4.0,1.0,part_1,,,,,,,,,,,,,blue,triangle
0.0,2.0,0.0,0.0,4.0,4.0,759.5001724548638,4.0,1.0,part_1,,,,,,,,,,,,,blue,triangle
122.0,2.0,2.0,0.0,3.0,3.0,410.7458509970456,4.0,1.0,part_1,,,,,,,,,,,,,blue,triangle
398.0,8.0,4.0,1.0,2.0,2.0,321.953532518819,4.0,1.0,part_1,,,,,,,,,,,,,white,flipped triangle
0.0,2.0,0.0,0.0,3.0,3.0,401.4548941049725,4.0,1.0,part_1,,,,,,,,,,,,,blue,triangle
63.0,1.0,1.0,0.0,1.0,1.0,358.1531278323382,4.0,1.0,part_1,,,,,,,,,,,,,magenta,square
71.0,1.0,1.0,0.0,1.0,1.0,357.2421446442604,4.0,1.0,part_1,,,,,,,,,,,,,magenta,square
216.0,3.0,3.0,0.0,1.0,1.0,403.193247737363,4.0,1.0,part_1,,,,,,,,,,,,,orange,hexagon
182.0,3.0,3.0,0.0,2.0,2.0,359.1708708554506,4.0,1.0,part_1,,,,,,,,,,,,,orange,hexagon
55.0,5.0,1.0,1.0,3.0,3.0,415.3950891923159,4.0,1.0,part_1,,,,,,,,,,,,,yellow,diamond
87.0,2.0,2.0,0.0,2.0,2.0,381.7339648958295,4.0,1.0,part_1,,,,,,,,,,,,,blue,triangle
193.0,3.0,3.0,0.0,1.0,1.0,439.93402691558,4.0,1.0,part_1,,,,,,,,,,,,,orange,hexagon
66.0,1.0,1.0,0.0,4.0,4.0,337.1988884173333,4.0,1.0,part_1,,,,,,,,,,,,,magenta,square
46.0,5.0,1.0,1.0,4.0,4.0,697.6837464608252,4.0,1.0,part_1,,,,,,,,,,,,,yellow,diamond
52.0,1.0,1.0,0.0,2.0,2.0,418.1073328945786,4.0,1.0,part_1,,,,,,,,,,,,,magenta,square
48.0,5.0,1.0,1.0,2.0,2.0,350.9135881904512,4.0,1.0,part_1,,,,,,,,,,,,,yellow,diamond
33.0,1.0,1.0,0.0,3.0,3.0,734.5712934620678,4.0,1.0,part_1,,,,,,,,,,,,,magenta,square
0.0,3.0,0.0,0.0,3.0,3.0,353.1471583992243,4.0,1.0,part_1,,,,,,,,,,,,,orange,hexagon
185.0,7.0,3.0,1.0,4.0,4.0,397.2034794278443,4.0,1.0,part_1,,,,,,,,,,,,,gray,I
29.0,5.0,1.0,1.0,3.0,3.0,432.2662777267396,4.0,2.0,part_1,,,,,,,,,,,,,yellow,diamond
0.0,6.0,0.0,1.0,3.0,3.0,388.3852330036461,4.0,1.0,part_1,,,,,,,,,,,,,cyan,circle
68.0,1.0,1.0,0.0,4.0,4.0,332.8867165837437,4.0,1.0,part_1,,,,,,,,,,,,,magenta,square
87.0,6.0,2.0,1.0,1.0,1.0,547.37619147636,4.0,1.0,part_1,,,,,,,,,,,,,cyan,circle
49.0,1.0,1.0,0.0,4.0,4.0,343.858748441562,4.0,1.0,part_1,,,,,,,,,,,,,magenta,square
392.0,4.0,4.0,0.0,3.0,3.0,366.4325084537267,4.0,1.0,part_1,,,,,,,,,,,,,green,cross
87.0,6.0,2.0,1.0,2.0,2.0,503.4453442785889,4.0,1.0,part_1,,,,,,,,,,,,,cyan,circle
90.0,2.0,2.0,0.0,3.0,3.0,538.4627755265683,4.0,1.0,part_1,,,,,,,,,,,,,blue,triangle
87.0,2.0,2.0,0.0,4.0,4.0,458.3412844222039,4.0,1.0,part_1,,,,,,,,,,,,,blue,triangle
115.0,6.0,2.0,1.0,1.0,1.0,774.7798247728497,4.0,1.0,part_1,,,,,,,,,,,,,cyan,circle
202.0,7.0,3.0,1.0,4.0,4.0,392.7643629722297,4.0,1.0,part_1,,,,,,,,,,,,,gray,I
82.0,6.0,2.0,1.0,4.0,4.0,495.1985841616988,4.0,1.0,part_1,,,,,,,,,,,,,cyan,circle
0.0,4.0,0.0,0.0,3.0,3.0,449.9850005377084,4.0,1.0,part_1,,,,,,,,,,,,,green,cross
396.0,4.0,4.0,0.0,1.0,1.0,326.2620361056179,4.0,1.0,part_1,,,,,,,,,,,,,green,cross
220.0,3.0,3.0,0.0,2.0,2.0,340.3324424289167,4.0,1.0,part_1,,,,,,,,,,,,,orange,hexagon
403.0,4.0,4.0,0.0,4.0,4.0,327.889543492347,4.0,1.0,part_1,,,,,,,,,,,,,green,cross
55.0,1.0,1.0,0.0,2.0,2.0,408.9763932861388,4.0,1.0,part_1,,,,,,,,,,,,,magenta,square
220.0,3.0,3.0,0.0,4.0,4.0,283.7125496007502,4.0,1.0,part_1,,,,,,,,,,,,,orange,hexagon
414.0,4.0,4.0,0.0,2.0,2.0,386.3132349215448,4.0,1.0,part_1,,,,,,,,,,,,,green,cross
37.0,5.0,1.0,1.0,4.0,4.0,353.6041276529431,4.0,1.0,part_1,,,,,,,,,,,,,yellow,diamond
389.0,8.0,4.0,1.0,3.0,3.0,399.1321239154786,4.0,2.0,part_1,,,,,,,,,,,,,white,flipped triangle
210.0,3.0,3.0,0.0,2.0,2.0,513.3913995232433,4.0,1.0,part_1,,,,,,,,,,,,,orange,hexagon
66.0,5.0,1.0,1.0,1.0,1.0,377.5144580285996,4.0,1.0,part_1,,,,,,,,,,,,,yellow,diamond
0.0,4.0,0.0,0.0,4.0,4.0,378.5371389240026,4.0,1.0,part_1,,,,,,,,,,,,,green,cross
70.0,1.0,1.0,0.0,2.0,2.0,413.2778735365718,4.0,1.0,part_1,,,,,,,,,,,,,magenta,square
0.0,6.0,0.0,1.0,2.0,2.0,727.4588674772531,4.0,1.0,part_1,,,,,,,,,,,,,cyan,circle
377.0,4.0,4.0,0.0,4.0,4.0,391.8500293511897,4.0,1.0,part_1,,,,,,,,,,,,,green,cross
83.0,2.0,2.0,0.0,1.0,1.0,345.6310592591762,4.0,1.0,part_1,,,,,,,,,,,,,blue,triangle
183.0,3.0,3.0,0.0,4.0,4.0,335.5094126891345,4.0,1.0,part_1,,,,,,,,,,,,,orange,hexagon
389.0,4.0,4.0,0.0,2.0,2.0,349.1639697458595,4.0,1.0,part_1,,,,,,,,,,,,,green,cross
83.0,6.0,2.0,1.0,2.0,2.0,336.0224268399179,4.0,1.0,part_1,,,,,,,,,,,,,cyan,circle
381.0,8.0,4.0,1.0,3.0,3.0,437.5696540810168,4.0,1.0,part_1,,,,,,,,,,,,,white,flipped triangle
0.0,5.0,0.0,1.0,1.0,1.0,620.3938000835478,4.0,1.0,part_1,,,,,,,,,,,,,yellow,diamond
113.0,2.0,2.0,0.0,1.0,1.0,496.2216189596802,4.0,1.0,part_1,,,,,,,,,,,,,blue,triangle
217.0,7.0,3.0,1.0,3.0,3.0,495.6504222936928,4.0,1.0,part_1,,,,,,,,,,,,,gray,I
424.0,8.0,4.0,1.0,2.0,2.0,328.121738974005,4.0,1.0,part_1,,,,,,,,,,,,,white,flipped triangle
412.0,8.0,4.0,1.0,1.0,1.0,352.2500260733068,4.0,1.0,part_1,,,,,,,,,,,,,white,flipped triangle
0.0,3.0,0.0,0.0,2.0,2.0,306.8392158020288,4.0,1.0,part_1,,,,,,,,,,,,,orange,hexagon
218.0,7.0,3.0,1.0,1.0,1.0,296.0370604414493,4.0,1.0,part_1,,,,,,,,,,,,,gray,I
39.0,1.0,1.0,0.0,4.0,4.0,341.3214278407395,4.0,1.0,part_1,,,,,,,,,,,,,magenta,square
50.0,1.0,1.0,0.0,4.0,4.0,352.6059812866151,4.0,1.0,part_1,,,,,,,,,,,,,magenta,square
55.0,1.0,1.0,0.0,2.0,2.0,478.8158498704433,4.0,1.0,part_1,,,,,,,,,,,,,magenta,square
0.0,2.0,0.0,0.0,2.0,2.0,366.7084467597306,4.0,1.0,part_1,,,,,,,,,,,,,blue,triangle
0.0,7.0,0.0,1.0,2.0,2.0,321.610854472965,4.0,1.0,part_1,,,,,,,,,,,,,gray,I
56.0,1.0,1.0,0.0,3.0,3.0,367.6103074103594,4.0,2.0,part_1,,,,,,,,,,,,,magenta,square
118.0,2.0,2.0,0.0,2.0,2.0,412.6972700469196,4.0,1.0,part_1,,,,,,,,,,,,,blue,triangle
60.0,5.0,1.0,1.0,4.0,4.0,333.8973447680473,4.0,1.0,part_1,,,,,,,,,,,,,yellow,diamond
89.0,2.0,2.0,0.0,4.0,4.0,368.6680218670517,4.0,1.0,part_1,,,,,,,,,,,,,blue,triangle
379.0,8.0,4.0,1.0,3.0,3.0,403.471261030063,4.0,1.0,part_1,,,,,,,,,,,,,white,flipped triangle
98.0,6.0,2.0,1.0,2.0,2.0,404.0914429351687,4.0,1.0,part_1,,,,,,,,,,,,,cyan,circle
0.0,2.0,0.0,0.0,2.0,2.0,417.0772202778607,4.0,1.0,part_1,,,,,,,,,,,,,blue,triangle
392.0,8.0,4.0,1.0,4.0,4.0,316.1769730504602,4.0,1.0,part_1,,,,,,,,,,,,,white,flipped triangle
53.0,5.0,1.0,1.0,2.0,2.0,440.9601062070578,4.0,1.0,part_1,,,,,,,,,,,,,yellow,diamond
121.0,6.0,2.0,1.0,4.0,4.0,687.7752009313554,4.0,1.0,part_1,,,,,,,,,,,,,cyan,circle
123.0,2.0,2.0,0.0,1.0,1.0,453.0563328880816,4.0,1.0,part_1,,,,,,,,,,,,,blue,triangle
0.0,8.0,0.0,1.0,2.0,2.0,362.0615100953728,4.0,1.0,part_1,,,,,,,,,,,,,white,flipped triangle
396.0,8.0,4.0,1.0,3.0,3.0,385.997605510056,4.0,1.0,part_1,,,,,,,,,,,,,white,flipped triangle
417.0,8.0,4.0,1.0,4.0,4.0,351.2188384775072,4.0,1.0,part_1,,,,,,,,,,,,,white,flipped triangle
25.0,5.0,1.0,1.0,1.0,1.0,329.7122963704169,4.0,1.0,part_1,,,,,,,,,,,,,yellow,diamond
0.0,1.0,1.0,0.0,5.0,5.0,324.329768307507,1.0,0.0,part_2,go,250.0,250.0,1.0,,,,,,,,,magenta,square
0.0,4.0,4.0,0.0,5.0,5.0,584.20175104402,1.0,0.0,part_2,go,250.0,250.0,1.0,,,,,,,,,green,cross
0.0,4.0,4.0,0.0,5.0,5.0,325.795513112098,1.0,0.0,part_2,go,250.0,250.0,1.0,,,,,,,,,green,cross
0.0,4.0,4.0,0.0,6.0,6.0,585.2230796590447,1.0,0.0,part_2,go,250.0,250.0,1.0,,,,,,,,,green,cross
0.0,2.0,2.0,0.0,6.0,6.0,374.3911648634821,1.0,0.0,part_2,go,250.0,250.0,1.0,,,,,,,,,blue,triangle
0.0,2.0,2.0,0.0,5.0,5.0,362.9895588383078,1.0,0.0,part_2,go,250.0,250.0,1.0,,,,,,,,,blue,triangle
0.0,8.0,4.0,1.0,6.0,0.0,0.0,1.0,0.0,part_2,stop,250.0,250.0,4.0,,,,,,,,,white,flipped triangle
0.0,7.0,3.0,1.0,5.0,0.0,0.0,1.0,0.0,part_2,stop,250.0,300.0,4.0,,,,,,,,,gray,I
0.0,1.0,1.0,0.0,6.0,6.0,375.9431147482246,1.0,0.0,part_2,go,300.0,300.0,1.0,,,,,,,,,magenta,square
0.0,7.0,3.0,1.0,6.0,6.0,353.7287798244506,1.0,0.0,part_2,stop,300.0,300.0,3.0,,,,,,,,,gray,I
0.0,7.0,3.0,1.0,6.0,0.0,0.0,1.0,0.0,part_2,stop,300.0,250.0,4.0,,,,,,,,,gray,I
0.0,5.0,1.0,1.0,6.0,6.0,379.3248867150396,1.0,0.0,part_2,stop,300.0,300.0,3.0,,,,,,,,,yellow,diamond
0.0,4.0,4.0,0.0,5.0,5.0,592.4551466014236,1.0,0.0,part_2,go,300.0,250.0,1.0,,,,,,,,,green,cross
0.0,8.0,4.0,1.0,5.0,5.0,392.4390424508601,1.0,0.0,part_2,go,300.0,250.0,1.0,,,,,,,,,white,flipped triangle
0.0,6.0,2.0,1.0,5.0,0.0,0.0,1.0,0.0,part_2,stop,300.0,250.0,4.0,,,,,,,,,cyan,circle
0.0,1.0,1.0,0.0,6.0,6.0,471.8993748538196,1.0,0.0,part_2,go,350.0,250.0,1.0,,,,,,,,,magenta,square
0.0,2.0,2.0,0.0,6.0,6.0,348.7705867737531,1.0,0.0,part_2,go,350.0,250.0,1.0,,,,,,,,,blue,triangle
0.0,1.0,1.0,0.0,5.0,5.0,441.3423354271799,1.0,0.0,part_2,go,350.0,250.0,1.0,,,,,,,,,magenta,square
0.0,3.0,3.0,0.0,5.0,5.0,440.2790470048785,1.0,0.0,part_2,go,350.0,250.0,1.0,,,,,,,,,orange,hexagon
0.0,6.0,2.0,1.0,5.0,5.0,306.328333215788,1.0,0.0,part_2,stop,350.0,250.0,3.0,,,,,,,,,cyan,circle
0.0,5.0,1.0,1.0,5.0,0.0,0.0,1.0,0.0,part_2,stop,300.0,250.0,4.0,,,,,,,,,yellow,diamond
0.0,8.0,4.0,1.0,6.0,0.0,0.0,1.0,0.0,part_2,stop,350.0,250.0,4.0,,,,,,,,,white,flipped triangle
0.0,4.0,4.0,0.0,6.0,6.0,578.188713407144,1.0,0.0,part_2,go,350.0,300.0,1.0,,,,,,,,,green,cross
0.0,8.0,4.0,1.0,6.0,0.0,0.0,1.0,0.0,part_2,stop,350.0,300.0,4.0,,,,,,,,,white,flipped triangle
0.0,5.0,1.0,1.0,5.0,5.0,423.3196349814534,1.0,0.0,part_2,stop,350.0,350.0,3.0,,,,,,,,,yellow,diamond
0.0,1.0,1.0,0.0,6.0,6.0,828.4669569693506,1.0,0.0,part_2,go,300.0,350.0,1.0,,,,,,,,,magenta,square
0.0,5.0,1.0,1.0,5.0,5.0,335.612635826692,1.0,0.0,part_2,stop,300.0,350.0,3.0,,,,,,,,,yellow,diamond
0.0,4.0,4.0,0.0,6.0,6.0,888.3918519131839,1.0,0.0,part_2,go,250.0,350.0,1.0,,,,,,,,,green,cross
0.0,1.0,1.0,0.0,5.0,5.0,585.2724409196526,1.0,0.0,part_2,go,250.0,350.0,1.0,,,,,,,,,magenta,square
0.0,3.0,3.0,0.0,6.0,6.0,529.9879496451467,1.0,0.0,part_2,go,250.0,350.0,1.0,,,,,,,,,orange,hexagon
0.0,5.0,1.0,1.0,6.0,6.0,383.7491637095809,1.0,0.0,part_2,stop,250.0,350.0,3.0,,,,,,,,,yellow,diamond
0.0,6.0,2.0,1.0,5.0,0.0,0.0,1.0,0.0,part_2,stop,250.0,300.0,4.0,,,,,,,,,cyan,circle
0.0,2.0,2.0,0.0,5.0,5.0,507.7064561191946,1.0,0.0,part_2,go,300.0,300.0,1.0,,,,,,,,,blue,triangle
0.0,2.0,2.0,0.0,6.0,6.0,328.8735735695809,1.0,0.0,part_2,go,300.0,300.0,1.0,,,,,,,,,blue,triangle
0.0,8.0,4.0,1.0,5.0,0.0,0.0,1.0,0.0,part_2,stop,300.0,300.0,4.0,,,,,,,,,white,flipped triangle
0.0,7.0,3.0,1.0,5.0,5.0,410.8509663492441,1.0,0.0,part_2,stop,350.0,300.0,3.0,,,,,,,,,gray,I
0.0,3.0,3.0,0.0,6.0,6.0,451.0607365518808,2.0,0.0,part_2,go,300.0,300.0,1.0,,,,,,,,,orange,hexagon
0.0,7.0,3.0,1.0,6.0,0.0,0.0,2.0,0.0,part_2,stop,300.0,300.0,4.0,,,,,,,,,gray,I
0.0,1.0,1.0,0.0,6.0,6.0,362.5788132194429,2.0,0.0,part_2,go,300.0,350.0,1.0,,,,,,,,,magenta,square
0.0,4.0,4.0,0.0,6.0,6.0,454.0526934433728,2.0,0.0,part_2,go,300.0,350.0,1.0,,,,,,,,,green,cross
0.0,2.0,2.0,0.0,5.0,5.0,319.6151168085634,2.0,0.0,part_2,go,300.0,350.0,1.0,,,,,,,,,blue,triangle
0.0,6.0,2.0,1.0,6.0,6.0,310.8978536911309,2.0,0.0,part_2,stop,300.0,350.0,3.0,,,,,,,,,cyan,circle
0.0,3.0,3.0,0.0,6.0,6.0,580.5502622388303,2.0,0.0,part_2,go,300.0,300.0,1.0,,,,,,,,,orange,hexagon
0.0,1.0,1.0,0.0,5.0,5.0,559.166963910684,2.0,0.0,part_2,go,300.0,300.0,1.0,,,,,,,,,magenta,square
0.0,7.0,3.0,1.0,6.0,6.0,356.4957550261169,2.0,0.0,part_2,stop,300.0,300.0,3.0,,,,,,,,,gray,I
0.0,3.0,3.0,0.0,5.0,5.0,505.6100399233401,2.0,0.0,part_2,go,300.0,250.0,1.0,,,,,,,,,orange,hexagon
0.0,7.0,3.0,1.0,6.0,6.0,618.1825513485819,2.0,0.0,part_2,go,300.0,250.0,1.0,,,,,,,,,gray,I
0.0,7.0,3.0,1.0,5.0,5.0,372.2788288723677,2.0,0.0,part_2,go,300.0,250.0,1.0,,,,,,,,,gray,I
0.0,7.0,3.0,1.0,5.0,5.0,394.8074320796877,2.0,0.0,part_2,stop,300.0,250.0,3.0,,,,,,,,,gray,I
0.0,1.0,1.0,0.0,6.0,6.0,574.732527602464,2.0,0.0,part_2,go,250.0,250.0,1.0,,,,,,,,,magenta,square
0.0,2.0,2.0,0.0,6.0,6.0,475.1504920423031,2.0,0.0,part_2,go,250.0,250.0,1.0,,,,,,,,,blue,triangle
0.0,1.0,1.0,0.0,5.0,5.0,531.0377683490515,2.0,0.0,part_2,go,250.0,250.0,1.0,,,,,,,,,magenta,square
0.0,7.0,3.0,1.0,5.0,0.0,0.0,2.0,0.0,part_2,stop,250.0,250.0,4.0,,,,,,,,,gray,I
0.0,6.0,2.0,1.0,5.0,5.0,432.8703985083848,2.0,0.0,part_2,stop,300.0,250.0,3.0,,,,,,,,,cyan,circle
0.0,4.0,4.0,0.0,6.0,6.0,455.2646570373326,2.0,0.0,part_2,go,250.0,250.0,1.0,,,,,,,,,green,cross
0.0,6.0,2.0,1.0,6.0,0.0,0.0,2.0,0.0,part_2,stop,250.0,250.0,4.0,,,,,,,,,cyan,circle
0.0,7.0,3.0,1.0,5.0,5.0,805.8439597953111,2.0,0.0,part_2,go,250.0,300.0,1.0,,,,,,,,,gray,I
0.0,8.0,4.0,1.0,6.0,0.0,0.0,2.0,0.0,part_2,stop,250.0,300.0,4.0,,,,,,,,,white,flipped triangle
0.0,1.0,1.0,0.0,5.0,5.0,448.5185015946626,2.0,0.0,part_2,go,250.0,350.0,1.0,,,,,,,,,magenta,square
0.0,4.0,4.0,0.0,5.0,5.0,706.3467467669398,2.0,0.0,part_2,go,250.0,350.0,1.0,,,,,,,,,green,cross
0.0,8.0,4.0,1.0,6.0,0.0,0.0,2.0,0.0,part_2,stop,250.0,350.0,4.0,,,,,,,,,white,flipped triangle
0.0,6.0,2.0,1.0,6.0,6.0,674.7871995903552,2.0,0.0,part_2,go,250.0,400.0,1.0,,,,,,,,,cyan,circle
0.0,3.0,3.0,0.0,6.0,6.0,406.4068666193634,2.0,0.0,part_2,go,250.0,400.0,1.0,,,,,,,,,orange,hexagon
0.0,8.0,4.0,1.0,6.0,6.0,676.1715754400939,2.0,0.0,part_2,go,250.0,400.0,1.0,,,,,,,,,white,flipped triangle
0.0,5.0,1.0,1.0,6.0,6.0,395.9873905405402,2.0,0.0,part_2,stop,250.0,400.0,3.0,,,,,,,,,yellow,diamond
0.0,4.0,4.0,0.0,6.0,6.0,409.4572791364044,2.0,0.0,part_2,go,250.0,350.0,1.0,,,,,,,,,green,cross
0.0,5.0,1.0,1.0,6.0,0.0,0.0,2.0,0.0,part_2,stop,250.0,350.0,4.0,,,,,,,,,yellow,diamond
0.0,2.0,2.0,0.0,6.0,6.0,568.9149515237659,2.0,0.0,part_2,go,250.0,400.0,1.0,,,,,,,,,blue,triangle
0.0,7.0,3.0,1.0,6.0,0.0,0.0,2.0,0.0,part_2,stop,250.0,400.0,4.0,,,,,,,,,gray,I
0.0,7.0,3.0,1.0,5.0,5.0,390.1933336164802,2.0,0.0,part_2,stop,250.0,450.0,3.0,,,,,,,,,gray,I
0.0,3.0,3.0,0.0,6.0,6.0,637.8791267052293,2.0,0.0,part_2,go,200.0,450.0,1.0,,,,,,,,,orange,hexagon
0.0,2.0,2.0,0.0,6.0,6.0,605.3841365501285,2.0,0.0,part_2,go,200.0,450.0,1.0,,,,,,,,,blue,triangle
0.0,7.0,3.0,1.0,5.0,5.0,562.6295958645642,3.0,0.0,part_2,stop,200.0,450.0,3.0,,,,,,,,,gray,I
0.0,6.0,2.0,1.0,6.0,6.0,609.0858296956867,3.0,0.0,part_2,go,150.0,450.0,1.0,,,,,,,,,cyan,circle
0.0,6.0,2.0,1.0,6.0,6.0,540.3530322946608,3.0,0.0,part_2,stop,150.0,450.0,3.0,,,,,,,,,cyan,circle
0.0,1.0,1.0,0.0,5.0,5.0,689.242307562381,3.0,0.0,part_2,go,150.0,400.0,1.0,,,,,,,,,magenta,square
0.0,5.0,1.0,1.0,5.0,5.0,644.6508006192744,3.0,0.0,part_2,go,150.0,400.0,1.0,,,,,,,,,yellow,diamond
0.0,2.0,2.0,0.0,5.0,5.0,590.0607861112803,3.0,0.0,part_2,go,150.0,400.0,1.0,,,,,,,,,blue,triangle
0.0,1.0,1.0,0.0,6.0,6.0,487.3996679671109,3.0,0.0,part_2,go,150.0,400.0,1.0,,,,,,,,,magenta,square
0.0,8.0,4.0,1.0,5.0,0.0,0.0,3.0,0.0,part_2,stop,150.0,400.0,4.0,,,,,,,,,white,flipped triangle
0.0,7.0,3.0,1.0,6.0,6.0,524.040806107223,3.0,0.0,part_2,stop,200.0,400.0,3.0,,,,,,,,,gray,I
0.0,7.0,3.0,1.0,5.0,0.0,0.0,3.0,0.0,part_2,stop,200.0,350.0,4.0,,,,,,,,,gray,I
0.0,1.0,1.0,0.0,6.0,6.0,424.9541058670729,3.0,0.0,part_2,go,250.0,350.0,1.0,,,,,,,,,magenta,square
0.0,2.0,2.0,0.0,5.0,5.0,581.9399848114699,3.0,0.0,part_2,go,250.0,350.0,1.0,,,,,,,,,blue,triangle
0.0,3.0,3.0,0.0,5.0,5.0,402.2575756534934,3.0,0.0,part_2,go,250.0,350.0,1.0,,,,,,,,,orange,hexagon
0.0,6.0,2.0,1.0,6.0,6.0,279.6953024808317,3.0,0.0,part_2,stop,250.0,350.0,3.0,,,,,,,,,cyan,circle
0.0,2.0,2.0,0.0,6.0,6.0,629.8995988909155,3.0,0.0,part_2,go,250.0,300.0,1.0,,,,,,,,,blue,triangle
0.0,6.0,2.0,1.0,5.0,0.0,0.0,3.0,0.0,part_2,stop,250.0,300.0,4.0,,,,,,,,,cyan,circle
0.0,7.0,3.0,1.0,6.0,6.0,249.7336775995791,3.0,0.0,part_2,stop,300.0,300.0,3.0,,,,,,,,,gray,I
0.0,7.0,3.0,1.0,5.0,5.0,666.2219630088657,3.0,0.0,part_2,go,300.0,250.0,1.0,,,,,,,,,gray,I
0.0,1.0,1.0,0.0,6.0,6.0,519.7023628279567,3.0,0.0,part_2,go,300.0,250.0,1.0,,,,,,,,,magenta,square
0.0,6.0,2.0,1.0,5.0,5.0,387.2786157298833,3.0,0.0,part_2,go,300.0,250.0,1.0,,,,,,,,,cyan,circle
0.0,5.0,1.0,1.0,5.0,5.0,443.3691676240414,3.0,0.0,part_2,stop,300.0,250.0,3.0,,,,,,,,,yellow,diamond
0.0,5.0,1.0,1.0,6.0,0.0,0.0,3.0,0.0,part_2,stop,250.0,250.0,4.0,,,,,,,,,yellow,diamond
0.0,2.0,2.0,0.0,5.0,5.0,457.2587558068335,3.0,0.0,part_2,go,250.0,300.0,1.0,,,,,,,,,blue,triangle
0.0,6.0,2.0,1.0,6.0,0.0,0.0,3.0,0.0,part_2,stop,250.0,300.0,4.0,,,,,,,,,cyan,circle
0.0,4.0,4.0,0.0,5.0,5.0,571.4818346314132,3.0,0.0,part_2,go,250.0,350.0,1.0,,,,,,,,,green,cross
0.0,5.0,1.0,1.0,6.0,6.0,571.3799148797989,3.0,0.0,part_2,go,250.0,350.0,1.0,,,,,,,,,yellow,diamond
0.0,2.0,2.0,0.0,6.0,6.0,403.1800739467144,3.0,0.0,part_2,go,250.0,350.0,1.0,,,,,,,,,blue,triangle
0.0,4.0,4.0,0.0,5.0,5.0,404.596502892673,3.0,0.0,part_2,go,250.0,350.0,1.0,,,,,,,,,green,cross
0.0,1.0,1.0,0.0,5.0,5.0,641.6392736136913,3.0,0.0,part_2,go,250.0,350.0,1.0,,,,,,,,,magenta,square
0.0,8.0,4.0,1.0,5.0,0.0,0.0,3.0,0.0,part_2,stop,250.0,350.0,4.0,,,,,,,,,white,flipped triangle
0.0,6.0,2.0,1.0,5.0,0.0,0.0,3.0,0.0,part_2,stop,300.0,350.0,4.0,,,,,,,,,cyan,circle
0.0,4.0,4.0,0.0,6.0,6.0,576.2014808133245,3.0,0.0,part_2,go,350.0,350.0,1.0,,,,,,,,,green,cross
0.0,8.0,4.0,1.0,6.0,0.0,0.0,3.0,0.0,part_2,stop,350.0,350.0,4.0,,,,,,,,,white,flipped triangle
0.0,2.0,2.0,0.0,5.0,5.0,612.7523377072066,3.0,0.0,part_2,go,350.0,400.0,1.0,,,,,,,,,blue,triangle
0.0,7.0,3.0,1.0,5.0,5.0,704.0895638056099,3.0,0.0,part_2,go,350.0,400.0,1.0,,,,,,,,,gray,I
0.0,2.0,2.0,0.0,6.0,6.0,365.3554264456033,3.0,0.0,part_2,go,350.0,400.0,1.0,,,,,,,,,blue,triangle
0.0,3.0,3.0,0.0,5.0,5.0,400.5572125315666,4.0,0.0,part_2,go,350.0,400.0,1.0,,,,,,,,,orange,hexagon
0.0,5.0,1.0,1.0,6.0,6.0,377.0734509453177,4.0,0.0,part_2,go,350.0,400.0,1.0,,,,,,,,,yellow,diamond
0.0,2.0,2.0,0.0,6.0,6.0,378.5411729477346,4.0,0.0,part_2,go,350.0,400.0,1.0,,,,,,,,,blue,triangle
0.0,5.0,1.0,1.0,6.0,6.0,368.0786695331335,4.0,0.0,part_2,go,350.0,400.0,1.0,,,,,,,,,yellow,diamond
0.0,8.0,4.0,1.0,5.0,0.0,0.0,4.0,0.0,part_2,stop,350.0,400.0,4.0,,,,,,,,,white,flipped triangle
0.0,3.0,3.0,0.0,6.0,6.0,414.4687443040311,4.0,0.0,part_2,go,400.0,400.0,1.0,,,,,,,,,orange,hexagon
0.0,2.0,2.0,0.0,6.0,6.0,584.0708410833031,4.0,0.0,part_2,go,400.0,400.0,1.0,,,,,,,,,blue,triangle
0.0,5.0,1.0,1.0,6.0,6.0,348.1053658761084,4.0,0.0,part_2,stop,400.0,400.0,3.0,,,,,,,,,yellow,diamond
0.0,5.0,1.0,1.0,5.0,5.0,597.2697848919779,4.0,0.0,part_2,go,400.0,350.0,1.0,,,,,,,,,yellow,diamond
0.0,5.0,1.0,1.0,6.0,0.0,0.0,4.0,0.0,part_2,stop,400.0,350.0,4.0,,,,,,,,,yellow,diamond
0.0,8.0,4.0,1.0,6.0,6.0,410.7182386796921,4.0,0.0,part_2,stop,400.0,400.0,3.0,,,,,,,,,white,flipped triangle
0.0,3.0,3.0,0.0,6.0,6.0,476.8797047436237,4.0,0.0,part_2,go,400.0,350.0,1.0,,,,,,,,,orange,hexagon
0.0,4.0,4.0,0.0,6.0,6.0,577.8749526944011,4.0,0.0,part_2,go,400.0,350.0,1.0,,,,,,,,,green,cross
0.0,3.0,3.0,0.0,5.0,5.0,388.6541966348886,4.0,0.0,part_2,go,400.0,350.0,1.0,,,,,,,,,orange,hexagon
0.0,4.0,4.0,0.0,5.0,5.0,522.8954514022917,4.0,0.0,part_2,go,400.0,350.0,1.0,,,,,,,,,green,cross
0.0,4.0,4.0,0.0,6.0,6.0,411.7643509525805,4.0,0.0,part_2,go,400.0,350.0,1.0,,,,,,,,,green,cross
0.0,8.0,4.0,1.0,6.0,0.0,0.0,4.0,0.0,part_2,stop,400.0,350.0,4.0,,,,,,,,,white,flipped triangle
0.0,7.0,3.0,1.0,6.0,0.0,0.0,4.0,0.0,part_2,stop,400.0,400.0,4.0,,,,,,,,,gray,I
0.0,8.0,4.0,1.0,6.0,6.0,593.6556688975543,4.0,0.0,part_2,stop,400.0,450.0,3.0,,,,,,,,,white,flipped triangle
0.0,3.0,3.0,0.0,5.0,5.0,538.6552917771041,4.0,0.0,part_2,go,400.0,400.0,1.0,,,,,,,,,orange,hexagon
0.0,2.0,2.0,0.0,6.0,6.0,303.5135816317051,4.0,0.0,part_2,go,400.0,400.0,1.0,,,,,,,,,blue,triangle
0.0,6.0,2.0,1.0,6.0,6.0,742.1417164150625,4.0,0.0,part_2,go,400.0,400.0,1.0,,,,,,,,,cyan,circle
0.0,8.0,4.0,1.0,5.0,0.0,0.0,4.0,0.0,part_2,stop,400.0,400.0,4.0,,,,,,,,,white,flipped triangle
0.0,1.0,1.0,0.0,6.0,6.0,518.8580341637135,4.0,0.0,part_2,go,450.0,400.0,1.0,,,,,,,,,magenta,square
0.0,1.0,1.0,0.0,6.0,6.0,431.7760346457362,4.0,0.0,part_2,go,450.0,400.0,1.0,,,,,,,,,magenta,square
0.0,6.0,2.0,1.0,5.0,5.0,601.1355188675225,4.0,0.0,part_2,stop,450.0,400.0,3.0,,,,,,,,,cyan,circle
0.0,7.0,3.0,1.0,5.0,0.0,0.0,4.0,0.0,part_2,stop,400.0,400.0,4.0,,,,,,,,,gray,I
0.0,6.0,2.0,1.0,5.0,5.0,770.3517116606236,4.0,0.0,part_2,go,450.0,400.0,1.0,,,,,,,,,cyan,circle
0.0,8.0,4.0,1.0,6.0,0.0,0.0,4.0,0.0,part_2,stop,450.0,400.0,4.0,,,,,,,,,white,flipped triangle
0.0,1.0,1.0,0.0,6.0,6.0,514.3516974058002,4.0,0.0,part_2,go,450.0,450.0,1.0,,,,,,,,,magenta,square
0.0,5.0,1.0,1.0,6.0,6.0,569.5091055240482,4.0,0.0,part_2,go,450.0,450.0,1.0,,,,,,,,,yellow,diamond
0.0,1.0,1.0,0.0,5.0,5.0,538.3299707900733,4.0,0.0,part_2,go,450.0,450.0,1.0,,,,,,,,,magenta,square
0.0,3.0,3.0,0.0,6.0,6.0,538.697560550645,4.0,0.0,part_2,go,450.0,450.0,1.0,,,,,,,,,orange,hexagon
0.0,3.0,3.0,0.0,6.0,6.0,483.7726450059563,4.0,0.0,part_2,go,450.0,450.0,1.0,,,,,,,,,orange,hexagon
0.0,5.0,1.0,1.0,5.0,5.0,383.495092857629,4.0,0.0,part_2,stop,450.0,450.0,3.0,,,,,,,,,yellow,diamond
0.0,8.0,4.0,1.0,5.0,0.0,0.0,4.0,0.0,part_2,stop,400.0,450.0,4.0,,,,,,,,,white,flipped triangle
0.0,6.0,2.0,1.0,5.0,5.0,427.6861837133765,5.0,0.0,part_2,stop,450.0,450.0,3.0,,,,,,,,,cyan,circle
0.0,1.0,1.0,0.0,6.0,6.0,483.8611907325685,5.0,0.0,part_2,go,400.0,450.0,1.0,,,,,,,,,magenta,square
0.0,3.0,3.0,0.0,5.0,5.0,394.7172269690782,5.0,0.0,part_2,go,400.0,450.0,1.0,,,,,,,,,orange,hexagon
0.0,7.0,3.0,1.0,6.0,0.0,0.0,5.0,0.0,part_2,stop,400.0,450.0,4.0,,,,,,,,,gray,I
0.0,5.0,1.0,1.0,5.0,0.0,0.0,5.0,0.0,part_2,stop,400.0,500.0,4.0,,,,,,,,,yellow,diamond
0.0,4.0,4.0,0.0,5.0,5.0,465.1493546552956,5.0,0.0,part_2,go,450.0,500.0,1.0,,,,,,,,,green,cross
0.0,2.0,2.0,0.0,5.0,5.0,612.1701505035162,5.0,0.0,part_2,go,450.0,500.0,1.0,,,,,,,,,blue,triangle
0.0,8.0,4.0,1.0,6.0,0.0,0.0,5.0,0.0,part_2,stop,450.0,500.0,4.0,,,,,,,,,white,flipped triangle
0.0,4.0,4.0,0.0,6.0,6.0,354.9752489197999,5.0,0.0,part_2,go,450.0,550.0,1.0,,,,,,,,,green,cross
0.0,6.0,2.0,1.0,5.0,5.0,996.7628722079098,5.0,0.0,part_2,go,450.0,550.0,1.0,,,,,,,,,cyan,circle
0.0,5.0,1.0,1.0,5.0,0.0,0.0,5.0,0.0,part_2,stop,450.0,550.0,4.0,,,,,,,,,yellow,diamond
0.0,5.0,1.0,1.0,5.0,5.0,425.958564504981,5.0,0.0,part_2,stop,500.0,550.0,3.0,,,,,,,,,yellow,diamond
0.0,2.0,2.0,0.0,5.0,5.0,471.7588629573583,5.0,0.0,part_2,go,450.0,550.0,1.0,,,,,,,,,blue,triangle
0.0,3.0,3.0,0.0,6.0,6.0,562.9885799717158,5.0,0.0,part_2,go,450.0,550.0,1.0,,,,,,,,,orange,hexagon
0.0,2.0,2.0,0.0,6.0,6.0,664.1669098753482,5.0,0.0,part_2,go,450.0,550.0,1.0,,,,,,,,,blue,triangle
0.0,3.0,3.0,0.0,5.0,5.0,461.8577337823808,5.0,0.0,part_2,go,450.0,550.0,1.0,,,,,,,,,orange,hexagon
0.0,4.0,4.0,0.0,6.0,6.0,620.6596249248832,5.0,0.0,part_2,go,450.0,550.0,1.0,,,,,,,,,green,cross
0.0,4.0,4.0,0.0,6.0,6.0,543.5061606112868,5.0,0.0,part_2,go,450.0,550.0,1.0,,,,,,,,,green,cross
0.0,1.0,1.0,0.0,6.0,6.0,487.2025311924517,5.0,0.0,part_2,go,450.0,550.0,1.0,,,,,,,,,magenta,square
0.0,5.0,1.0,1.0,6.0,0.0,0.0,5.0,0.0,part_2,stop,450.0,550.0,4.0,,,,,,,,,yellow,diamond
0.0,8.0,4.0,1.0,5.0,0.0,0.0,5.0,0.0,part_2,stop,450.0,600.0,4.0,,,,,,,,,white,flipped triangle
0.0,1.0,1.0,0.0,5.0,5.0,412.1450306847691,5.0,0.0,part_2,go,500.0,600.0,1.0,,,,,,,,,magenta,square
0.0,5.0,1.0,1.0,5.0,0.0,0.0,5.0,0.0,part_2,stop,500.0,600.0,4.0,,,,,,,,,yellow,diamond
0.0,8.0,4.0,1.0,6.0,6.0,683.492858428508,5.0,0.0,part_2,stop,550.0,600.0,3.0,,,,,,,,,white,flipped triangle
0.0,2.0,2.0,0.0,5.0,5.0,626.9852411933243,5.0,0.0,part_2,go,550.0,550.0,1.0,,,,,,,,,blue,triangle
0.0,4.0,4.0,0.0,6.0,6.0,740.6831721309572,5.0,0.0,part_2,go,550.0,550.0,1.0,,,,,,,,,green,cross
0.0,1.0,1.0,0.0,5.0,5.0,696.2744207121432,5.0,0.0,part_2,go,550.0,550.0,1.0,,,,,,,,,magenta,square
0.0,2.0,2.0,0.0,5.0,5.0,403.8871764205396,5.0,0.0,part_2,go,550.0,550.0,1.0,,,,,,,,,blue,triangle
0.0,6.0,2.0,1.0,5.0,0.0,0.0,5.0,0.0,part_2,stop,550.0,550.0,4.0,,,,,,,,,cyan,circle
0.0,6.0,2.0,1.0,5.0,5.0,698.345800396055,5.0,0.0,part_2,stop,600.0,550.0,3.0,,,,,,,,,cyan,circle
0.0,3.0,3.0,0.0,6.0,6.0,451.7272592056542,5.0,0.0,part_2,go,550.0,550.0,1.0,,,,,,,,,orange,hexagon
0.0,4.0,4.0,0.0,5.0,5.0,364.330145297572,5.0,0.0,part_2,go,550.0,550.0,1.0,,,,,,,,,green,cross
0.0,5.0,1.0,1.0,6.0,6.0,342.7002308890223,5.0,0.0,part_2,stop,550.0,550.0,3.0,,,,,,,,,yellow,diamond
0.0,2.0,2.0,0.0,6.0,6.0,556.5205970779061,5.0,0.0,part_2,go,550.0,500.0,1.0,,,,,,,,,blue,triangle
0.0,5.0,1.0,1.0,6.0,0.0,0.0,5.0,0.0,part_2,stop,550.0,500.0,4.0,,,,,,,,,yellow,diamond
0.0,8.0,4.0,1.0,5.0,5.0,907.5044733472168,5.0,0.0,part_2,go,550.0,550.0,1.0,,,,,,,,,white,flipped triangle
0.0,5.0,1.0,1.0,5.0,5.0,308.4279249887913,6.0,0.0,part_2,stop,550.0,550.0,3.0,,,,,,,,,yellow,diamond
0.0,6.0,2.0,1.0,6.0,0.0,0.0,6.0,0.0,part_2,stop,500.0,550.0,4.0,,,,,,,,,cyan,circle
0.0,3.0,3.0,0.0,5.0,5.0,433.0981280654669,6.0,0.0,part_2,go,500.0,600.0,1.0,,,,,,,,,orange,hexagon
0.0,2.0,2.0,0.0,6.0,6.0,727.2411293815821,6.0,0.0,part_2,go,500.0,600.0,1.0,,,,,,,,,blue,triangle
0.0,5.0,1.0,1.0,5.0,0.0,0.0,6.0,0.0,part_2,stop,500.0,600.0,4.0,,,,,,,,,yellow,diamond
0.0,1.0,1.0,0.0,6.0,6.0,682.8982958104461,6.0,0.0,part_2,go,550.0,600.0,1.0,,,,,,,,,magenta,square
0.0,7.0,3.0,1.0,5.0,0.0,0.0,6.0,0.0,part_2,stop,550.0,600.0,4.0,,,,,,,,,gray,I
0.0,4.0,4.0,0.0,6.0,6.0,651.525448076427,6.0,0.0,part_2,go,600.0,600.0,1.0,,,,,,,,,green,cross
0.0,1.0,1.0,0.0,5.0,5.0,438.0318056792021,6.0,0.0,part_2,go,600.0,600.0,1.0,,,,,,,,,magenta,square
0.0,1.0,1.0,0.0,5.0,5.0,394.4432644639164,6.0,0.0,part_2,go,600.0,600.0,1.0,,,,,,,,,magenta,square
0.0,2.0,2.0,0.0,5.0,5.0,562.7893097698689,6.0,0.0,part_2,go,600.0,600.0,1.0,,,,,,,,,blue,triangle
0.0,5.0,1.0,1.0,5.0,5.0,801.0008928831667,6.0,0.0,part_2,go,600.0,600.0,1.0,,,,,,,,,yellow,diamond
0.0,6.0,2.0,1.0,5.0,0.0,0.0,6.0,0.0,part_2,stop,600.0,600.0,4.0,,,,,,,,,cyan,circle
0.0,6.0,2.0,1.0,6.0,0.0,0.0,6.0,0.0,part_2,stop,650.0,600.0,4.0,,,,,,,,,cyan,circle
0.0,3.0,3.0,0.0,6.0,6.0,532.0041319355369,6.0,0.0,part_2,go,650.0,650.0,1.0,,,,,,,,,orange,hexagon
0.0,5.0,1.0,1.0,6.0,6.0,410.7622550800442,6.0,0.0,part_2,stop,650.0,650.0,3.0,,,,,,,,,yellow,diamond
0.0,2.0,2.0,0.0,5.0,5.0,646.2647994048893,6.0,0.0,part_2,go,650.0,600.0,1.0,,,,,,,,,blue,triangle
0.0,8.0,4.0,1.0,5.0,0.0,0.0,6.0,0.0,part_2,stop,650.0,600.0,4.0,,,,,,,,,white,flipped triangle
0.0,7.0,3.0,1.0,6.0,6.0,1030.1329877693206,6.0,0.0,part_2,go,700.0,600.0,1.0,,,,,,,,,gray,I
0.0,8.0,4.0,1.0,5.0,0.0,0.0,6.0,0.0,part_2,stop,700.0,600.0,4.0,,,,,,,,,white,flipped triangle
0.0,2.0,2.0,0.0,6.0,6.0,795.9372103214264,6.0,0.0,part_2,go,750.0,600.0,1.0,,,,,,,,,blue,triangle
0.0,3.0,3.0,0.0,6.0,6.0,414.2804769799113,6.0,0.0,part_2,go,750.0,600.0,1.0,,,,,,,,,orange,hexagon
0.0,6.0,2.0,1.0,5.0,5.0,979.2273498605936,6.0,0.0,part_2,stop,750.0,600.0,3.0,,,,,,,,,cyan,circle
0.0,3.0,3.0,0.0,5.0,5.0,483.3669050130993,6.0,0.0,part_2,go,700.0,600.0,1.0,,,,,,,,,orange,hexagon
0.0,4.0,4.0,0.0,5.0,5.0,428.6116047296673,6.0,0.0,part_2,go,700.0,600.0,1.0,,,,,,,,,green,cross
0.0,3.0,3.0,0.0,5.0,5.0,495.8946336992085,6.0,0.0,part_2,go,700.0,600.0,1.0,,,,,,,,,orange,hexagon
0.0,3.0,3.0,0.0,5.0,5.0,521.0587591864169,6.0,0.0,part_2,go,700.0,600.0,1.0,,,,,,,,,orange,hexagon
0.0,4.0,4.0,0.0,5.0,5.0,487.2229308821261,6.0,0.0,part_2,go,700.0,600.0,1.0,,,,,,,,,green,cross
0.0,8.0,4.0,1.0,5.0,0.0,0.0,6.0,0.0,part_2,stop,700.0,600.0,4.0,,,,,,,,,white,flipped triangle
0.0,1.0,1.0,0.0,5.0,5.0,591.0637932829559,6.0,0.0,part_2,go,750.0,600.0,1.0,,,,,,,,,magenta,square
0.0,4.0,4.0,0.0,5.0,5.0,523.7340214662254,6.0,0.0,part_2,go,750.0,600.0,1.0,,,,,,,,,green,cross
0.0,2.0,2.0,0.0,6.0,6.0,557.6040279120207,6.0,0.0,part_2,go,750.0,600.0,1.0,,,,,,,,,blue,triangle
0.0,5.0,1.0,1.0,5.0,5.0,436.4366717636585,6.0,0.0,part_2,go,750.0,600.0,1.0,,,,,,,,,yellow,diamond
0.0,1.0,1.0,0.0,6.0,6.0,480.9492856729775,6.0,0.0,part_2,go,750.0,600.0,1.0,,,,,,,,,magenta,square
0.0,1.0,1.0,0.0,5.0,5.0,458.9465330354869,6.0,0.0,part_2,go,750.0,600.0,1.0,,,,,,,,,magenta,square
0.0,3.0,3.0,0.0,6.0,6.0,538.1220555864275,6.0,0.0,part_2,go,750.0,600.0,1.0,,,,,,,,,orange,hexagon
0.0,5.0,1.0,1.0,5.0,5.0,780.6321107782423,7.0,0.0,part_2,stop,750.0,600.0,3.0,,,,,,,,,yellow,diamond
0.0,3.0,3.0,0.0,6.0,6.0,511.18736481294036,7.0,0.0,part_2,go,700.0,600.0,1.0,,,,,,,,,orange,hexagon
0.0,4.0,4.0,0.0,5.0,5.0,557.2039186954498,7.0,0.0,part_2,go,700.0,600.0,1.0,,,,,,,,,green,cross
0.0,7.0,3.0,1.0,5.0,5.0,1064.2607477493584,7.0,0.0,part_2,go,700.0,600.0,1.0,,,,,,,,,gray,I
0.0,2.0,2.0,0.0,5.0,5.0,559.0950658079237,7.0,0.0,part_2,go,700.0,600.0,1.0,,,,,,,,,blue,triangle
0.0,1.0,1.0,0.0,6.0,6.0,403.8800054695457,7.0,0.0,part_2,go,700.0,600.0,1.0,,,,,,,,,magenta,square
0.0,6.0,2.0,1.0,6.0,6.0,346.1729360278696,7.0,0.0,part_2,stop,700.0,600.0,3.0,,,,,,,,,cyan,circle
0.0,5.0,1.0,1.0,6.0,0.0,0.0,7.0,0.0,part_2,stop,700.0,550.0,4.0,,,,,,,,,yellow,diamond
0.0,1.0,1.0,0.0,6.0,6.0,641.2032784428447,7.0,0.0,part_2,go,700.0,600.0,1.0,,,,,,,,,magenta,square
0.0,8.0,4.0,1.0,6.0,6.0,1115.115830907598,7.0,0.0,part_2,go,700.0,600.0,1.0,,,,,,,,,white,flipped triangle
0.0,4.0,4.0,0.0,5.0,5.0,642.8612424060702,7.0,0.0,part_2,go,700.0,600.0,1.0,,,,,,,,,green,cross
0.0,1.0,1.0,0.0,5.0,5.0,441.2138059269637,7.0,0.0,part_2,go,700.0,600.0,1.0,,,,,,,,,magenta,square
0.0,4.0,4.0,0.0,6.0,6.0,531.8784166593105,7.0,0.0,part_2,go,700.0,600.0,1.0,,,,,,,,,green,cross
0.0,8.0,4.0,1.0,6.0,6.0,971.323176054284,7.0,0.0,part_2,go,700.0,600.0,1.0,,,,,,,,,white,flipped triangle
0.0,5.0,1.0,1.0,5.0,5.0,836.5854655858129,7.0,0.0,part_2,stop,700.0,600.0,3.0,,,,,,,,,yellow,diamond
0.0,7.0,3.0,1.0,6.0,6.0,1130.3214726503938,7.0,0.0,part_2,go,650.0,600.0,1.0,,,,,,,,,gray,I
0.0,6.0,2.0,1.0,5.0,5.0,1076.1049676220864,7.0,0.0,part_2,go,650.0,600.0,1.0,,,,,,,,,cyan,circle
0.0,3.0,3.0,0.0,6.0,6.0,536.8578480556607,7.0,0.0,part_2,go,650.0,600.0,1.0,,,,,,,,,orange,hexagon
0.0,8.0,4.0,1.0,6.0,6.0,784.2672923579812,7.0,0.0,part_2,stop,650.0,600.0,3.0,,,,,,,,,white,flipped triangle
0.0,6.0,2.0,1.0,6.0,0.0,0.0,7.0,0.0,part_2,stop,650.0,550.0,4.0,,,,,,,,,cyan,circle
0.0,7.0,3.0,1.0,5.0,0.0,0.0,7.0,0.0,part_2,stop,650.0,600.0,4.0,,,,,,,,,gray,I
0.0,3.0,3.0,0.0,5.0,5.0,955.9422770980746,7.0,0.0,part_2,go,700.0,600.0,1.0,,,,,,,,,orange,hexagon
0.0,4.0,4.0,0.0,5.0,5.0,462.6567319501191,7.0,0.0,part_2,go,700.0,600.0,1.0,,,,,,,,,green,cross
0.0,1.0,1.0,0.0,5.0,5.0,507.2300161700696,7.0,0.0,part_2,go,700.0,600.0,1.0,,,,,,,,,magenta,square
0.0,2.0,2.0,0.0,5.0,5.0,485.3175894822925,7.0,0.0,part_2,go,700.0,600.0,1.0,,,,,,,,,blue,triangle
0.0,8.0,4.0,1.0,5.0,5.0,948.5995636787266,7.0,0.0,part_2,go,700.0,600.0,1.0,,,,,,,,,white,flipped triangle
0.0,3.0,3.0,0.0,6.0,6.0,522.495165001601,7.0,0.0,part_2,go,700.0,600.0,1.0,,,,,,,,,orange,hexagon
0.0,6.0,2.0,1.0,6.0,0.0,0.0,7.0,0.0,part_2,stop,700.0,600.0,4.0,,,,,,,,,cyan,circle
0.0,1.0,1.0,0.0,5.0,5.0,557.2213556151837,7.0,0.0,part_2,go,700.0,650.0,1.0,,,,,,,,,magenta,square
0.0,2.0,2.0,0.0,6.0,6.0,389.28765361197287,7.0,0.0,part_2,go,700.0,650.0,1.0,,,,,,,,,blue,triangle
0.0,8.0,4.0,1.0,5.0,5.0,1053.5205008927733,7.0,0.0,part_2,go,700.0,650.0,1.0,,,,,,,,,white,flipped triangle
0.0,7.0,3.0,1.0,5.0,0.0,0.0,7.0,0.0,part_2,stop,700.0,650.0,4.0,,,,,,,,,gray,I
0.0,7.0,3.0,1.0,5.0,5.0,885.9441194217652,7.0,0.0,part_2,stop,750.0,650.0,3.0,,,,,,,,,gray,I
0.0,8.0,4.0,1.0,5.0,0.0,0.0,7.0,0.0,part_2,stop,700.0,650.0,4.0,,,,,,,,,white,flipped triangle
0.0,1.0,1.0,0.0,6.0,6.0,538.796026725322,7.0,0.0,part_2,go,750.0,650.0,1.0,,,,,,,,,magenta,square
0.0,4.0,4.0,0.0,5.0,5.0,337.4893863219768,7.0,0.0,part_2,go,750.0,650.0,1.0,,,,,,,,,green,cross
0.0,7.0,3.0,1.0,6.0,6.0,861.1119545530528,8.0,0.0,part_2,stop,750.0,650.0,3.0,,,,,,,,,gray,I
0.0,6.0,2.0,1.0,6.0,6.0,660.0537972990423,8.0,0.0,part_2,stop,750.0,600.0,3.0,,,,,,,,,cyan,circle
0.0,8.0,4.0,1.0,6.0,0.0,0.0,8.0,0.0,part_2,stop,750.0,550.0,4.0,,,,,,,,,white,flipped triangle
0.0,3.0,3.0,0.0,5.0,5.0,311.8183580227196,8.0,0.0,part_2,go,750.0,600.0,1.0,,,,,,,,,orange,hexagon
0.0,6.0,2.0,1.0,6.0,6.0,482.9458729363978,8.0,0.0,part_2,go,750.0,600.0,1.0,,,,,,,,,cyan,circle
0.0,7.0,3.0,1.0,6.0,0.0,0.0,8.0,0.0,part_2,stop,750.0,600.0,4.0,,,,,,,,,gray,I
0.0,7.0,3.0,1.0,6.0,6.0,911.7681719362736,8.0,0.0,part_2,stop,750.0,650.0,3.0,,,,,,,,,gray,I
0.0,6.0,2.0,1.0,5.0,5.0,395.2045766636729,8.0,0.0,part_2,stop,750.0,600.0,3.0,,,,,,,,,cyan,circle
0.0,3.0,3.0,0.0,5.0,5.0,787.9370702430606,8.0,0.0,part_2,go,700.0,600.0,1.0,,,,,,,,,orange,hexagon
0.0,4.0,4.0,0.0,5.0,5.0,485.6555254664272,8.0,0.0,part_2,go,700.0,600.0,1.0,,,,,,,,,green,cross
0.0,8.0,4.0,1.0,5.0,5.0,543.4212516993284,8.0,0.0,part_2,go,700.0,600.0,1.0,,,,,,,,,white,flipped triangle
0.0,6.0,2.0,1.0,6.0,6.0,915.469299769029,8.0,0.0,part_2,go,700.0,600.0,1.0,,,,,,,,,cyan,circle
0.0,6.0,2.0,1.0,6.0,6.0,420.6762618850916,8.0,0.0,part_2,stop,700.0,600.0,3.0,,,,,,,,,cyan,circle
0.0,3.0,3.0,0.0,5.0,5.0,465.7965484075248,8.0,0.0,part_2,go,700.0,550.0,1.0,,,,,,,,,orange,hexagon
0.0,4.0,4.0,0.0,5.0,5.0,378.0868577305227,8.0,0.0,part_2,go,700.0,550.0,1.0,,,,,,,,,green,cross
0.0,3.0,3.0,0.0,6.0,6.0,456.5620694775134,8.0,0.0,part_2,go,700.0,550.0,1.0,,,,,,,,,orange,hexagon
0.0,4.0,4.0,0.0,6.0,6.0,333.3974236156791,8.0,0.0,part_2,go,700.0,550.0,1.0,,,,,,,,,green,cross
0.0,2.0,2.0,0.0,5.0,5.0,548.0984223540872,8.0,0.0,part_2,go,700.0,550.0,1.0,,,,,,,,,blue,triangle
0.0,5.0,1.0,1.0,6.0,6.0,426.3785327784717,8.0,0.0,part_2,stop,700.0,550.0,3.0,,,,,,,,,yellow,diamond
0.0,7.0,3.0,1.0,6.0,0.0,0.0,8.0,0.0,part_2,stop,700.0,500.0,4.0,,,,,,,,,gray,I
0.0,5.0,1.0,1.0,5.0,5.0,494.4074207451194,8.0,0.0,part_2,stop,700.0,550.0,3.0,,,,,,,,,yellow,diamond
0.0,3.0,3.0,0.0,5.0,5.0,574.646612862125,8.0,0.0,part_2,go,650.0,550.0,1.0,,,,,,,,,orange,hexagon
0.0,8.0,4.0,1.0,5.0,5.0,660.4974828660488,8.0,0.0,part_2,stop,650.0,550.0,3.0,,,,,,,,,white,flipped triangle
0.0,8.0,4.0,1.0,6.0,6.0,901.5794389415532,8.0,0.0,part_2,go,600.0,550.0,1.0,,,,,,,,,white,flipped triangle
0.0,3.0,3.0,0.0,5.0,5.0,476.5355461277067,8.0,0.0,part_2,go,600.0,550.0,1.0,,,,,,,,,orange,hexagon
0.0,4.0,4.0,0.0,6.0,6.0,341.3079534657299,8.0,0.0,part_2,go,600.0,550.0,1.0,,,,,,,,,green,cross
0.0,7.0,3.0,1.0,5.0,0.0,0.0,8.0,0.0,part_2,stop,600.0,550.0,4.0,,,,,,,,,gray,I
0.0,7.0,3.0,1.0,6.0,0.0,0.0,8.0,0.0,part_2,stop,650.0,550.0,4.0,,,,,,,,,gray,I
0.0,8.0,4.0,1.0,5.0,5.0,726.4438115525991,8.0,0.0,part_2,stop,650.0,600.0,3.0,,,,,,,,,white,flipped triangle
0.0,4.0,4.0,0.0,6.0,6.0,536.2024686764926,8.0,0.0,part_2,go,600.0,600.0,1.0,,,,,,,,,green,cross
0.0,6.0,2.0,1.0,6.0,0.0,0.0,8.0,0.0,part_2,stop,600.0,600.0,4.0,,,,,,,,,cyan,circle
0.0,6.0,2.0,1.0,5.0,0.0,0.0,8.0,0.0,part_2,stop,600.0,650.0,4.0,,,,,,,,,cyan,circle
0.0,2.0,2.0,0.0,5.0,5.0,718.7218177132308,8.0,0.0,part_2,go,650.0,650.0,1.0,,,,,,,,,blue,triangle
0.0,7.0,3.0,1.0,6.0,6.0,315.4024688992649,8.0,0.0,part_2,go,650.0,650.0,1.0,,,,,,,,,gray,I
0.0,2.0,2.0,0.0,5.0,5.0,483.1905183382332,8.0,0.0,part_2,go,650.0,650.0,1.0,,,,,,,,,blue,triangle
0.0,5.0,1.0,1.0,6.0,6.0,384.8241476807743,8.0,0.0,part_2,go,650.0,650.0,1.0,,,,,,,,,yellow,diamond
0.0,5.0,1.0,1.0,7.0,4.0,2836.800442542881,1.0,2.0,part_3,go,0.0,0.0,0.0,132.0,3.0,220.0,176.0,264.0,132.0,44.0,88.0,yellow,diamond
0.0,5.0,1.0,1.0,7.0,2.0,2405.2745674271137,1.0,1.0,part_3,go,0.0,0.0,0.0,108.0,2.0,54.0,108.0,324.0,270.0,162.0,216.0,yellow,diamond
0.0,3.0,3.0,0.0,7.0,1.0,1286.3946687430143,1.0,1.0,part_3,go,0.0,0.0,0.0,324.0,6.0,324.0,162.0,270.0,108.0,216.0,54.0,orange,hexagon
0.0,7.0,3.0,1.0,7.0,5.0,1142.7469144109637,1.0,1.0,part_3,go,0.0,0.0,0.0,162.0,3.0,216.0,108.0,270.0,54.0,162.0,324.0,gray,I
0.0,8.0,4.0,1.0,7.0,4.0,1485.746858874336,1.0,1.0,part_3,go,0.0,0.0,0.0,136.0,4.0,34.0,102.0,68.0,136.0,170.0,204.0,white,flipped triangle
0.0,1.0,1.0,0.0,7.0,6.0,1668.4895476792008,1.0,1.0,part_3,go,0.0,0.0,0.0,102.0,3.0,204.0,136.0,170.0,68.0,34.0,102.0,magenta,square
0.0,5.0,1.0,1.0,7.0,3.0,1585.2780390996486,1.0,1.0,part_3,go,0.0,0.0,0.0,117.0,3.0,195.0,78.0,117.0,39.0,234.0,156.0,yellow,diamond
0.0,5.0,1.0,1.0,7.0,3.0,2004.186634439975,1.0,1.0,part_3,go,0.0,0.0,0.0,156.0,4.0,78.0,117.0,156.0,195.0,234.0,39.0,yellow,diamond
0.0,4.0,4.0,0.0,7.0,4.0,2372.226763051003,1.0,1.0,part_3,go,0.0,0.0,0.0,264.0,6.0,44.0,176.0,88.0,264.0,132.0,220.0,green,cross
0.0,5.0,1.0,1.0,7.0,1.0,1930.041948799044,1.0,1.0,part_3,go,0.0,0.0,0.0,162.0,3.0,162.0,216.0,270.0,54.0,108.0,324.0,yellow,diamond
0.0,1.0,1.0,0.0,7.0,5.0,2286.072942893952,1.0,1.0,part_3,go,0.0,0.0,0.0,220.0,5.0,132.0,176.0,88.0,44.0,220.0,264.0,magenta,square
0.0,4.0,4.0,0.0,7.0,3.0,1191.4875989314169,1.0,1.0,part_3,go,0.0,0.0,0.0,136.0,4.0,170.0,102.0,136.0,204.0,68.0,34.0,green,cross
0.0,8.0,4.0,1.0,7.0,2.0,1597.3701672628522,1.0,1.0,part_3,go,0.0,0.0,0.0,44.0,1.0,264.0,44.0,132.0,176.0,220.0,88.0,white,flipped triangle
0.0,5.0,1.0,1.0,7.0,1.0,2255.026248982176,1.0,1.0,part_3,go,0.0,0.0,0.0,136.0,4.0,136.0,34.0,68.0,102.0,204.0,170.0,yellow,diamond
0.0,1.0,1.0,0.0,7.0,3.0,2334.215759532526,1.0,1.0,part_3,go,0.0,0.0,0.0,245.0,5.0,294.0,49.0,245.0,98.0,147.0,196.0,magenta,square
0.0,7.0,3.0,1.0,7.0,4.0,1403.0184773728251,1.0,1.0,part_3,go,0.0,0.0,0.0,68.0,2.0,170.0,136.0,102.0,68.0,34.0,204.0,gray,I
0.0,3.0,3.0,0.0,7.0,2.0,2546.2224546354264,1.0,1.0,part_3,go,0.0,0.0,0.0,204.0,6.0,170.0,204.0,102.0,136.0,68.0,34.0,orange,hexagon
0.0,2.0,2.0,0.0,7.0,5.0,1503.6830801982433,1.0,1.0,part_3,go,0.0,0.0,0.0,195.0,5.0,117.0,234.0,156.0,39.0,195.0,78.0,blue,triangle
0.0,6.0,2.0,1.0,7.0,1.0,1809.6607974730432,1.0,1.0,part_3,go,0.0,0.0,0.0,78.0,2.0,78.0,156.0,117.0,39.0,234.0,195.0,cyan,circle
0.0,6.0,2.0,1.0,7.0,3.0,1904.0309018455448,1.0,1.0,part_3,go,0.0,0.0,0.0,68.0,2.0,170.0,204.0,68.0,102.0,136.0,34.0,cyan,circle
0.0,8.0,4.0,1.0,7.0,3.0,1406.7603121511638,2.0,1.0,part_3,go,0.0,0.0,0.0,68.0,2.0,136.0,34.0,68.0,204.0,170.0,102.0,white,flipped triangle
0.0,3.0,3.0,0.0,7.0,5.0,1824.779434129596,2.0,1.0,part_3,go,0.0,0.0,0.0,234.0,6.0,117.0,156.0,39.0,195.0,234.0,78.0,orange,hexagon
0.0,2.0,2.0,0.0,7.0,6.0,2367.4627819564193,2.0,1.0,part_3,go,0.0,0.0,0.0,176.0,4.0,264.0,220.0,132.0,44.0,88.0,176.0,blue,triangle
0.0,3.0,3.0,0.0,7.0,2.0,1437.044869409874,2.0,1.0,part_3,go,0.0,0.0,0.0,234.0,6.0,156.0,234.0,78.0,39.0,195.0,117.0,orange,hexagon
0.0,8.0,4.0,1.0,7.0,3.0,1292.1387869864702,2.0,1.0,part_3,go,0.0,0.0,0.0,98.0,2.0,294.0,49.0,98.0,196.0,245.0,147.0,white,flipped triangle
0.0,3.0,3.0,0.0,7.0,3.0,1885.9955414664,2.0,1.0,part_3,go,0.0,0.0,0.0,294.0,6.0,98.0,245.0,294.0,49.0,196.0,147.0,orange,hexagon
0.0,1.0,1.0,0.0,7.0,4.0,1892.808963311836,2.0,1.0,part_3,go,0.0,0.0,0.0,117.0,3.0,78.0,156.0,195.0,117.0,39.0,234.0,magenta,square
0.0,2.0,2.0,0.0,7.0,2.0,1472.8524459060282,2.0,1.0,part_3,go,0.0,0.0,0.0,162.0,3.0,54.0,162.0,216.0,270.0,108.0,324.0,blue,triangle
0.0,6.0,2.0,1.0,7.0,3.0,1653.7484205327928,2.0,1.0,part_3,go,0.0,0.0,0.0,88.0,2.0,220.0,44.0,88.0,264.0,132.0,176.0,cyan,circle
0.0,4.0,4.0,0.0,7.0,3.0,1023.9027526695279,2.0,1.0,part_3,go,0.0,0.0,0.0,234.0,6.0,78.0,39.0,234.0,195.0,156.0,117.0,green,cross
0.0,6.0,2.0,1.0,7.0,3.0,840.439876075834,2.0,1.0,part_3,go,0.0,0.0,0.0,88.0,2.0,220.0,44.0,88.0,264.0,132.0,176.0,cyan,circle
0.0,6.0,2.0,1.0,7.0,3.0,1361.3115260377526,2.0,1.0,part_3,go,0.0,0.0,0.0,49.0,1.0,294.0,196.0,49.0,147.0,98.0,245.0,cyan,circle
0.0,5.0,1.0,1.0,7.0,4.0,2153.852144954726,2.0,1.0,part_3,go,0.0,0.0,0.0,176.0,4.0,264.0,88.0,132.0,176.0,44.0,220.0,yellow,diamond
0.0,2.0,2.0,0.0,7.0,5.0,1484.2511683236808,2.0,1.0,part_3,go,0.0,0.0,0.0,170.0,5.0,136.0,204.0,68.0,34.0,170.0,102.0,blue,triangle
0.0,2.0,2.0,0.0,7.0,5.0,715.5081504024565,2.0,1.0,part_3,go,0.0,0.0,0.0,102.0,3.0,68.0,204.0,34.0,170.0,102.0,136.0,blue,triangle
0.0,4.0,4.0,0.0,7.0,6.0,1746.094208676368,2.0,1.0,part_3,go,0.0,0.0,0.0,294.0,6.0,196.0,245.0,147.0,98.0,49.0,294.0,green,cross
0.0,8.0,4.0,1.0,7.0,2.0,1716.6059350129217,2.0,1.0,part_3,go,0.0,0.0,0.0,54.0,1.0,108.0,54.0,216.0,324.0,270.0,162.0,white,flipped triangle
0.0,6.0,2.0,1.0,7.0,5.0,2522.641485091299,2.0,1.0,part_3,go,0.0,0.0,0.0,108.0,2.0,54.0,270.0,216.0,324.0,108.0,162.0,cyan,circle
0.0,7.0,3.0,1.0,7.0,4.0,1314.7229936439544,2.0,1.0,part_3,go,0.0,0.0,0.0,44.0,1.0,88.0,220.0,176.0,44.0,132.0,264.0,gray,I
0.0,1.0,1.0,0.0,7.0,4.0,1396.4653613511473,2.0,1.0,part_3,go,0.0,0.0,0.0,147.0,3.0,294.0,245.0,49.0,147.0,196.0,98.0,magenta,square
0.0,4.0,4.0,0.0,7.0,4.0,1324.7272123117,3.0,1.0,part_3,go,0.0,0.0,0.0,245.0,5.0,294.0,196.0,147.0,245.0,98.0,49.0,green,cross
0.0,3.0,3.0,0.0,7.0,3.0,1545.1916109304875,3.0,1.0,part_3,go,0.0,0.0,0.0,264.0,6.0,44.0,176.0,264.0,132.0,88.0,220.0,orange,hexagon
0.0,1.0,1.0,0.0,7.0,5.0,1662.4610738363117,3.0,1.0,part_3,go,0.0,0.0,0.0,162.0,3.0,270.0,108.0,324.0,54.0,162.0,216.0,magenta,square
0.0,2.0,2.0,0.0,7.0,1.0,1931.3652557320893,3.0,1.0,part_3,go,0.0,0.0,0.0,196.0,4.0,196.0,245.0,49.0,294.0,98.0,147.0,blue,triangle
0.0,5.0,1.0,1.0,7.0,3.0,2001.1173582170159,3.0,1.0,part_3,go,0.0,0.0,0.0,170.0,5.0,136.0,204.0,170.0,68.0,102.0,34.0,yellow,diamond
0.0,3.0,3.0,0.0,7.0,6.0,1680.4238492622972,3.0,1.0,part_3,go,0.0,0.0,0.0,264.0,6.0,44.0,88.0,220.0,176.0,132.0,264.0,orange,hexagon
0.0,5.0,1.0,1.0,7.0,5.0,1187.2578468173742,3.0,1.0,part_3,go,0.0,0.0,0.0,196.0,4.0,49.0,245.0,294.0,98.0,196.0,147.0,yellow,diamond
0.0,7.0,3.0,1.0,7.0,2.0,1356.6686604171991,3.0,1.0,part_3,go,0.0,0.0,0.0,54.0,1.0,108.0,54.0,162.0,216.0,270.0,324.0,gray,I
0.0,6.0,2.0,1.0,7.0,5.0,798.6383882816881,3.0,1.0,part_3,go,0.0,0.0,0.0,294.0,6.0,196.0,245.0,147.0,98.0,294.0,49.0,cyan,circle
0.0,4.0,4.0,0.0,7.0,4.0,1506.4824046567082,3.0,1.0,part_3,go,0.0,0.0,0.0,324.0,6.0,54.0,108.0,162.0,324.0,216.0,270.0,green,cross
0.0,2.0,2.0,0.0,7.0,2.0,2198.482947656885,3.0,1.0,part_3,go,0.0,0.0,0.0,108.0,2.0,324.0,108.0,54.0,216.0,270.0,162.0,blue,triangle
0.0,4.0,4.0,0.0,7.0,1.0,1693.6344797722995,3.0,1.0,part_3,go,0.0,0.0,0.0,324.0,6.0,324.0,162.0,54.0,216.0,270.0,108.0,green,cross
0.0,7.0,3.0,1.0,7.0,5.0,1373.8177986815572,3.0,1.0,part_3,go,0.0,0.0,0.0,39.0,1.0,78.0,195.0,156.0,234.0,39.0,117.0,gray,I
0.0,8.0,4.0,1.0,7.0,3.0,1016.4875062182546,3.0,1.0,part_3,go,0.0,0.0,0.0,108.0,2.0,54.0,270.0,108.0,162.0,216.0,324.0,white,flipped triangle
0.0,7.0,3.0,1.0,7.0,3.0,1847.4387698806825,3.0,1.0,part_3,go,0.0,0.0,0.0,132.0,3.0,176.0,220.0,132.0,88.0,44.0,264.0,gray,I
0.0,1.0,1.0,0.0,7.0,4.0,1541.3159942254424,3.0,1.0,part_3,go,0.0,0.0,0.0,234.0,6.0,39.0,195.0,78.0,234.0,156.0,117.0,magenta,square
0.0,4.0,4.0,0.0,7.0,4.0,1385.536648100242,3.0,1.0,part_3,go,0.0,0.0,0.0,234.0,6.0,156.0,39.0,78.0,234.0,195.0,117.0,green,cross
0.0,8.0,4.0,1.0,7.0,3.0,1442.219174001366,3.0,1.0,part_3,go,0.0,0.0,0.0,117.0,3.0,234.0,39.0,117.0,78.0,195.0,156.0,white,flipped triangle
0.0,2.0,2.0,0.0,7.0,3.0,1097.8837173897773,3.0,1.0,part_3,go,0.0,0.0,0.0,132.0,3.0,264.0,88.0,132.0,220.0,44.0,176.0,blue,triangle
0.0,7.0,3.0,1.0,7.0,3.0,1065.8441162668169,3.0,1.0,part_3,go,0.0,0.0,0.0,49.0,1.0,245.0,147.0,49.0,98.0,196.0,294.0,gray,I
0.0,4.0,4.0,0.0,7.0,1.0,1685.3247655089945,4.0,1.0,part_3,go,0.0,0.0,0.0,264.0,6.0,264.0,88.0,176.0,220.0,132.0,44.0,green,cross
0.0,2.0,2.0,0.0,7.0,6.0,1690.515965456143,4.0,1.0,part_3,go,0.0,0.0,0.0,195.0,5.0,156.0,117.0,78.0,234.0,39.0,195.0,blue,triangle
0.0,3.0,3.0,0.0,7.0,6.0,1621.621709316969,4.0,1.0,part_3,go,0.0,0.0,0.0,204.0,6.0,34.0,136.0,102.0,170.0,68.0,204.0,orange,hexagon
0.0,7.0,3.0,1.0,7.0,5.0,1165.1845078449696,4.0,1.0,part_3,go,0.0,0.0,0.0,49.0,1.0,98.0,294.0,147.0,196.0,49.0,245.0,gray,I
0.0,2.0,2.0,0.0,7.0,5.0,1284.2582017183304,4.0,1.0,part_3,go,0.0,0.0,0.0,196.0,4.0,147.0,49.0,245.0,98.0,196.0,294.0,blue,triangle
0.0,6.0,2.0,1.0,7.0,4.0,1939.8602484725416,4.0,1.0,part_3,go,0.0,0.0,0.0,117.0,3.0,234.0,195.0,156.0,117.0,78.0,39.0,cyan,circle
0.0,6.0,2.0,1.0,7.0,3.0,1057.838845765218,4.0,1.0,part_3,go,0.0,0.0,0.0,54.0,1.0,270.0,108.0,54.0,162.0,216.0,324.0,cyan,circle
0.0,7.0,3.0,1.0,7.0,5.0,1040.688413195312,4.0,1.0,part_3,go,0.0,0.0,0.0,68.0,2.0,204.0,136.0,102.0,170.0,68.0,34.0,gray,I
0.0,5.0,1.0,1.0,7.0,4.0,1397.2696468699723,4.0,1.0,part_3,go,0.0,0.0,0.0,196.0,4.0,98.0,49.0,245.0,196.0,294.0,147.0,yellow,diamond
0.0,8.0,4.0,1.0,7.0,4.0,1090.3944205492735,4.0,1.0,part_3,go,0.0,0.0,0.0,132.0,3.0,264.0,220.0,44.0,132.0,88.0,176.0,white,flipped triangle
0.0,8.0,4.0,1.0,7.0,6.0,1583.3188018295914,4.0,1.0,part_3,go,0.0,0.0,0.0,117.0,3.0,156.0,39.0,234.0,195.0,78.0,117.0,white,flipped triangle
0.0,7.0,3.0,1.0,7.0,4.0,2551.9213734660298,4.0,1.0,part_3,go,0.0,0.0,0.0,39.0,1.0,78.0,117.0,195.0,39.0,234.0,156.0,gray,I
0.0,1.0,1.0,0.0,7.0,4.0,3144.8204908519983,4.0,1.0,part_3,go,0.0,0.0,0.0,270.0,5.0,162.0,54.0,108.0,270.0,324.0,216.0,magenta,square
0.0,1.0,1.0,0.0,7.0,6.0,2013.5940951295197,4.0,1.0,part_3,go,0.0,0.0,0.0,204.0,6.0,136.0,68.0,170.0,102.0,34.0,204.0,magenta,square
0.0,1.0,1.0,0.0,7.0,3.0,1321.3461288250985,4.0,1.0,part_3,go,0.0,0.0,0.0,220.0,5.0,88.0,176.0,220.0,44.0,132.0,264.0,magenta,square
0.0,8.0,4.0,1.0,7.0,4.0,1152.154334820807,4.0,1.0,part_3,go,0.0,0.0,0.0,147.0,3.0,245.0,49.0,98.0,147.0,294.0,196.0,white,flipped triangle
0.0,6.0,2.0,1.0,7.0,5.0,1544.7479044087231,4.0,1.0,part_3,go,0.0,0.0,0.0,68.0,2.0,102.0,34.0,170.0,136.0,68.0,204.0,cyan,circle
0.0,4.0,4.0,0.0,7.0,5.0,1687.8188892733306,4.0,1.0,part_3,go,0.0,0.0,0.0,204.0,6.0,102.0,136.0,170.0,68.0,204.0,34.0,green,cross
0.0,3.0,3.0,0.0,7.0,3.0,1270.2295447234064,4.0,1.0,part_3,go,0.0,0.0,0.0,294.0,6.0,49.0,245.0,294.0,147.0,98.0,196.0,orange,hexagon
0.0,3.0,3.0,0.0,7.0,4.0,2424.7028252575547,4.0,1.0,part_3,go,0.0,0.0,0.0,270.0,5.0,108.0,162.0,216.0,270.0,54.0,324.0,orange,hexagon
