raw_reward_magnitude,stim_reward,stepwise_reward_magnitude,paired_with_stopping,stim_location,response,reaction_time,block,num_trial_presentations,which_phase,stop_signal_trial_type,left_SSD,right_SSD,accuracy,chosen_bidding_amount,chosen_bidding_level,possible_bid_1,possible_bid_2,possible_bid_3,possible_bid_4,possible_bid_5,possible_bid_6,color_text,shape_text
50.0,5.0,1.0,1.0,4.0,4.0,333.4939207416028,1.0,1.0,phase_1,,,,,,,,,,,,,orange,square
106.0,2.0,2.0,0.0,1.0,1.0,389.8417872842401,1.0,1.0,phase_1,,,,,,,,,,,,,blue,diamond
25.0,5.0,1.0,1.0,3.0,3.0,333.7179413065314,1.0,1.0,phase_1,,,,,,,,,,,,,orange,square
191.0,7.0,3.0,1.0,2.0,2.0,335.2211888413876,1.0,1.0,phase_1,,,,,,,,,,,,,cyan,I
0.0,2.0,0.0,0.0,2.0,2.0,336.636422900483,1.0,1.0,phase_1,,,,,,,,,,,,,blue,diamond
111.0,6.0,2.0,1.0,3.0,3.0,447.4032639991492,1.0,1.0,phase_1,,,,,,,,,,,,,gray,hexagon
376.0,8.0,4.0,1.0,1.0,1.0,415.9378434997052,1.0,1.0,phase_1,,,,,,,,,,,,,yellow,flipped triangle
110.0,2.0,2.0,0.0,3.0,3.0,370.5807502847165,1.0,1.0,phase_1,,,,,,,,,,,,,blue,diamond
196.0,7.0,3.0,1.0,2.0,2.0,325.9544288739562,1.0,1.0,phase_1,,,,,,,,,,,,,cyan,I
122.0,6.0,2.0,1.0,1.0,1.0,304.3223414570093,1.0,1.0,phase_1,,,,,,,,,,,,,gray,hexagon
98.0,6.0,2.0,1.0,2.0,2.0,283.92896335572,1.0,1.0,phase_1,,,,,,,,,,,,,gray,hexagon
50.0,1.0,1.0,0.0,2.0,2.0,248.9250304643064,1.0,1.0,phase_1,,,,,,,,,,,,,green,triangle
0.0,3.0,0.0,0.0,4.0,4.0,295.1776664704084,1.0,1.0,phase_1,,,,,,,,,,,,,magenta,circle
108.0,2.0,2.0,0.0,3.0,3.0,350.448876619339,1.0,1.0,phase_1,,,,,,,,,,,,,blue,diamond
410.0,8.0,4.0,1.0,1.0,1.0,286.1497246194631,1.0,1.0,phase_1,,,,,,,,,,,,,yellow,flipped triangle
0.0,1.0,0.0,0.0,2.0,2.0,352.588752284646,1.0,1.0,phase_1,,,,,,,,,,,,,green,triangle
110.0,6.0,2.0,1.0,3.0,3.0,330.1253602840006,1.0,1.0,phase_1,,,,,,,,,,,,,gray,hexagon
205.0,7.0,3.0,1.0,2.0,2.0,308.7769043631851,1.0,1.0,phase_1,,,,,,,,,,,,,cyan,I
69.0,5.0,1.0,1.0,1.0,1.0,344.840524950996,1.0,1.0,phase_1,,,,,,,,,,,,,orange,square
101.0,2.0,2.0,0.0,3.0,3.0,321.4304624125361,1.0,1.0,phase_1,,,,,,,,,,,,,blue,diamond
26.0,1.0,1.0,0.0,1.0,1.0,332.6775855384767,1.0,1.0,phase_1,,,,,,,,,,,,,green,triangle
0.0,8.0,0.0,1.0,3.0,3.0,356.8952379282564,1.0,1.0,phase_1,,,,,,,,,,,,,yellow,flipped triangle
384.0,4.0,4.0,0.0,1.0,1.0,436.6086274385452,1.0,1.0,phase_1,,,,,,,,,,,,,white,cross
0.0,2.0,0.0,0.0,1.0,1.0,413.070464739576,1.0,1.0,phase_1,,,,,,,,,,,,,blue,diamond
67.0,1.0,1.0,0.0,4.0,4.0,380.3731361404061,1.0,1.0,phase_1,,,,,,,,,,,,,green,triangle
91.0,6.0,2.0,1.0,4.0,4.0,334.8530568182468,1.0,1.0,phase_1,,,,,,,,,,,,,gray,hexagon
87.0,6.0,2.0,1.0,4.0,4.0,438.5080102365464,1.0,1.0,phase_1,,,,,,,,,,,,,gray,hexagon
0.0,4.0,0.0,0.0,3.0,3.0,290.913536446169,1.0,1.0,phase_1,,,,,,,,,,,,,white,cross
0.0,8.0,0.0,1.0,4.0,4.0,417.1416785102337,1.0,1.0,phase_1,,,,,,,,,,,,,yellow,flipped triangle
0.0,5.0,0.0,1.0,2.0,2.0,372.9170607402921,1.0,1.0,phase_1,,,,,,,,,,,,,orange,square
99.0,2.0,2.0,0.0,2.0,2.0,339.6697789430618,1.0,1.0,phase_1,,,,,,,,,,,,,blue,diamond
198.0,7.0,3.0,1.0,3.0,3.0,361.3031264394521,1.0,1.0,phase_1,,,,,,,,,,,,,cyan,I
0.0,3.0,0.0,0.0,3.0,3.0,429.6681354753673,1.0,1.0,phase_1,,,,,,,,,,,,,magenta,circle
186.0,7.0,3.0,1.0,4.0,4.0,419.9346462264657,1.0,1.0,phase_1,,,,,,,,,,,,,cyan,I
113.0,6.0,2.0,1.0,3.0,3.0,341.6661715600639,1.0,2.0,phase_1,,,,,,,,,,,,,gray,hexagon
102.0,2.0,2.0,0.0,2.0,2.0,375.6696693599224,1.0,1.0,phase_1,,,,,,,,,,,,,blue,diamond
76.0,6.0,2.0,1.0,3.0,3.0,330.4055344779044,1.0,1.0,phase_1,,,,,,,,,,,,,gray,hexagon
98.0,2.0,2.0,0.0,4.0,4.0,332.4919925071299,1.0,1.0,phase_1,,,,,,,,,,,,,blue,diamond
0.0,6.0,0.0,1.0,3.0,3.0,342.6541907247156,1.0,1.0,phase_1,,,,,,,,,,,,,gray,hexagon
0.0,1.0,0.0,0.0,3.0,3.0,321.461834013462,1.0,1.0,phase_1,,,,,,,,,,,,,green,triangle
76.0,6.0,2.0,1.0,1.0,1.0,356.0291293542832,1.0,1.0,phase_1,,,,,,,,,,,,,gray,hexagon
76.0,2.0,2.0,0.0,4.0,4.0,356.9222292862832,1.0,1.0,phase_1,,,,,,,,,,,,,blue,diamond
47.0,5.0,1.0,1.0,4.0,4.0,434.9104654975235,1.0,1.0,phase_1,,,,,,,,,,,,,orange,square
0.0,4.0,0.0,0.0,2.0,2.0,334.7924584522843,1.0,1.0,phase_1,,,,,,,,,,,,,white,cross
78.0,2.0,2.0,0.0,1.0,1.0,413.9177708420902,1.0,1.0,phase_1,,,,,,,,,,,,,blue,diamond
179.0,7.0,3.0,1.0,1.0,1.0,347.7476686239242,1.0,2.0,phase_1,,,,,,,,,,,,,cyan,I
96.0,6.0,2.0,1.0,2.0,2.0,393.826904008165,1.0,1.0,phase_1,,,,,,,,,,,,,gray,hexagon
51.0,5.0,1.0,1.0,2.0,2.0,438.9954609796405,1.0,1.0,phase_1,,,,,,,,,,,,,orange,square
414.0,4.0,4.0,0.0,1.0,1.0,485.6320079416036,1.0,1.0,phase_1,,,,,,,,,,,,,white,cross
199.0,7.0,3.0,1.0,1.0,1.0,362.3073818162083,1.0,1.0,phase_1,,,,,,,,,,,,,cyan,I
391.0,4.0,4.0,0.0,3.0,3.0,496.4189701713621,1.0,1.0,phase_1,,,,,,,,,,,,,white,cross
72.0,5.0,1.0,1.0,4.0,4.0,440.8130228985101,1.0,1.0,phase_1,,,,,,,,,,,,,orange,square
400.0,4.0,4.0,0.0,3.0,3.0,406.9251243490726,1.0,1.0,phase_1,,,,,,,,,,,,,white,cross
198.0,7.0,3.0,1.0,4.0,4.0,341.4293141104281,1.0,1.0,phase_1,,,,,,,,,,,,,cyan,I
74.0,1.0,1.0,0.0,2.0,2.0,432.7825345098972,1.0,1.0,phase_1,,,,,,,,,,,,,green,triangle
124.0,6.0,2.0,1.0,4.0,4.0,431.386636570096,1.0,1.0,phase_1,,,,,,,,,,,,,gray,hexagon
28.0,1.0,1.0,0.0,2.0,2.0,409.962635487318,1.0,1.0,phase_1,,,,,,,,,,,,,green,triangle
40.0,1.0,1.0,0.0,3.0,3.0,387.6956161111593,1.0,1.0,phase_1,,,,,,,,,,,,,green,triangle
0.0,8.0,0.0,1.0,4.0,4.0,321.4498800225556,1.0,1.0,phase_1,,,,,,,,,,,,,yellow,flipped triangle
119.0,2.0,2.0,0.0,4.0,4.0,400.547090684995,1.0,1.0,phase_1,,,,,,,,,,,,,blue,diamond
392.0,8.0,4.0,1.0,3.0,3.0,377.6986384764313,1.0,1.0,phase_1,,,,,,,,,,,,,yellow,flipped triangle
122.0,2.0,2.0,0.0,4.0,4.0,390.2529662009328,1.0,1.0,phase_1,,,,,,,,,,,,,blue,diamond
191.0,3.0,3.0,0.0,1.0,1.0,526.2618924025446,1.0,1.0,phase_1,,,,,,,,,,,,,magenta,circle
0.0,3.0,0.0,0.0,2.0,2.0,368.7872297596186,1.0,1.0,phase_1,,,,,,,,,,,,,magenta,circle
99.0,6.0,2.0,1.0,3.0,3.0,359.4201698433608,1.0,1.0,phase_1,,,,,,,,,,,,,gray,hexagon
405.0,8.0,4.0,1.0,2.0,2.0,359.3024597503245,1.0,1.0,phase_1,,,,,,,,,,,,,yellow,flipped triangle
215.0,7.0,3.0,1.0,3.0,3.0,326.0627964045852,1.0,1.0,phase_1,,,,,,,,,,,,,cyan,I
52.0,1.0,1.0,0.0,3.0,3.0,383.7278827559203,1.0,1.0,phase_1,,,,,,,,,,,,,green,triangle
50.0,1.0,1.0,0.0,3.0,3.0,360.8594296965748,1.0,1.0,phase_1,,,,,,,,,,,,,green,triangle
81.0,6.0,2.0,1.0,2.0,2.0,509.0068308636546,1.0,1.0,phase_1,,,,,,,,,,,,,gray,hexagon
0.0,2.0,0.0,0.0,3.0,3.0,283.2155167125165,1.0,1.0,phase_1,,,,,,,,,,,,,blue,diamond
0.0,8.0,0.0,1.0,3.0,3.0,373.4538175631314,1.0,1.0,phase_1,,,,,,,,,,,,,yellow,flipped triangle
111.0,2.0,2.0,0.0,3.0,3.0,419.3975022062659,1.0,1.0,phase_1,,,,,,,,,,,,,blue,diamond
57.0,5.0,1.0,1.0,1.0,1.0,396.9989228062331,1.0,1.0,phase_1,,,,,,,,,,,,,orange,square
115.0,2.0,2.0,0.0,3.0,3.0,476.4996282756328,1.0,1.0,phase_1,,,,,,,,,,,,,blue,diamond
225.0,7.0,3.0,1.0,4.0,4.0,353.145447326824,1.0,1.0,phase_1,,,,,,,,,,,,,cyan,I
64.0,1.0,1.0,0.0,4.0,4.0,354.1149054653942,1.0,1.0,phase_1,,,,,,,,,,,,,green,triangle
397.0,4.0,4.0,0.0,4.0,4.0,387.864202959463,1.0,1.0,phase_1,,,,,,,,,,,,,white,cross
380.0,4.0,4.0,0.0,4.0,4.0,433.4013948682695,1.0,1.0,phase_1,,,,,,,,,,,,,white,cross
190.0,7.0,3.0,1.0,3.0,3.0,400.4898110870272,1.0,1.0,phase_1,,,,,,,,,,,,,cyan,I
45.0,5.0,1.0,1.0,3.0,3.0,411.8970124982297,1.0,1.0,phase_1,,,,,,,,,,,,,orange,square
0.0,6.0,0.0,1.0,4.0,4.0,390.0818277616054,1.0,1.0,phase_1,,,,,,,,,,,,,gray,hexagon
406.0,4.0,4.0,0.0,2.0,2.0,481.1914924066514,1.0,1.0,phase_1,,,,,,,,,,,,,white,cross
215.0,3.0,3.0,0.0,1.0,1.0,482.3678892571479,1.0,1.0,phase_1,,,,,,,,,,,,,magenta,circle
0.0,8.0,0.0,1.0,2.0,2.0,506.18989509530365,1.0,1.0,phase_1,,,,,,,,,,,,,yellow,flipped triangle
112.0,2.0,2.0,0.0,2.0,2.0,403.4483914729208,1.0,1.0,phase_1,,,,,,,,,,,,,blue,diamond
35.0,5.0,1.0,1.0,3.0,3.0,482.9141271766275,1.0,1.0,phase_1,,,,,,,,,,,,,orange,square
0.0,7.0,0.0,1.0,2.0,2.0,415.9880203660577,1.0,1.0,phase_1,,,,,,,,,,,,,cyan,I
424.0,4.0,4.0,0.0,2.0,2.0,416.5680787991732,1.0,1.0,phase_1,,,,,,,,,,,,,white,cross
193.0,7.0,3.0,1.0,2.0,2.0,440.9204991534352,1.0,1.0,phase_1,,,,,,,,,,,,,cyan,I
73.0,1.0,1.0,0.0,1.0,1.0,373.1837102677673,1.0,1.0,phase_1,,,,,,,,,,,,,green,triangle
379.0,8.0,4.0,1.0,4.0,4.0,352.0029396750033,1.0,1.0,phase_1,,,,,,,,,,,,,yellow,flipped triangle
0.0,1.0,0.0,0.0,2.0,2.0,374.9094775412231,1.0,1.0,phase_1,,,,,,,,,,,,,green,triangle
87.0,2.0,2.0,0.0,2.0,2.0,475.6094354670495,1.0,1.0,phase_1,,,,,,,,,,,,,blue,diamond
90.0,6.0,2.0,1.0,2.0,2.0,374.5579072274267,1.0,1.0,phase_1,,,,,,,,,,,,,gray,hexagon
99.0,2.0,2.0,0.0,3.0,3.0,375.1432339195162,1.0,1.0,phase_1,,,,,,,,,,,,,blue,diamond
417.0,4.0,4.0,0.0,2.0,2.0,375.9796959348023,1.0,1.0,phase_1,,,,,,,,,,,,,white,cross
0.0,1.0,0.0,0.0,2.0,2.0,376.2369672767818,1.0,1.0,phase_1,,,,,,,,,,,,,green,triangle
91.0,2.0,2.0,0.0,1.0,1.0,388.3519452065229,1.0,1.0,phase_1,,,,,,,,,,,,,blue,diamond
208.0,3.0,3.0,0.0,1.0,1.0,502.8628984000534,1.0,1.0,phase_1,,,,,,,,,,,,,magenta,circle
0.0,7.0,0.0,1.0,2.0,2.0,362.9698106087744,2.0,1.0,phase_1,,,,,,,,,,,,,cyan,I
411.0,8.0,4.0,1.0,1.0,1.0,386.022062273696,2.0,1.0,phase_1,,,,,,,,,,,,,yellow,flipped triangle
58.0,5.0,1.0,1.0,2.0,2.0,442.6233819685876,2.0,1.0,phase_1,,,,,,,,,,,,,orange,square
0.0,7.0,0.0,1.0,2.0,2.0,376.4667632058263,2.0,1.0,phase_1,,,,,,,,,,,,,cyan,I
57.0,5.0,1.0,1.0,3.0,3.0,398.9182244986295,2.0,1.0,phase_1,,,,,,,,,,,,,orange,square
205.0,3.0,3.0,0.0,3.0,3.0,355.2748758811503,2.0,1.0,phase_1,,,,,,,,,,,,,magenta,circle
383.0,8.0,4.0,1.0,1.0,1.0,354.85557606443757,2.0,1.0,phase_1,,,,,,,,,,,,,yellow,flipped triangle
419.0,4.0,4.0,0.0,4.0,4.0,321.6703836806118,2.0,1.0,phase_1,,,,,,,,,,,,,white,cross
0.0,1.0,0.0,0.0,4.0,4.0,346.001383382827,2.0,1.0,phase_1,,,,,,,,,,,,,green,triangle
69.0,1.0,1.0,0.0,4.0,4.0,402.7504895348102,2.0,1.0,phase_1,,,,,,,,,,,,,green,triangle
181.0,3.0,3.0,0.0,4.0,4.0,380.9261871501803,2.0,1.0,phase_1,,,,,,,,,,,,,magenta,circle
401.0,8.0,4.0,1.0,4.0,4.0,503.2481225207448,2.0,1.0,phase_1,,,,,,,,,,,,,yellow,flipped triangle
215.0,7.0,3.0,1.0,2.0,2.0,370.1184510719031,2.0,1.0,phase_1,,,,,,,,,,,,,cyan,I
202.0,3.0,3.0,0.0,1.0,1.0,505.62649918720126,2.0,1.0,phase_1,,,,,,,,,,,,,magenta,circle
0.0,1.0,0.0,0.0,4.0,4.0,313.7167075183242,2.0,1.0,phase_1,,,,,,,,,,,,,green,triangle
186.0,3.0,3.0,0.0,2.0,2.0,428.6332889460027,2.0,1.0,phase_1,,,,,,,,,,,,,magenta,circle
423.0,8.0,4.0,1.0,3.0,3.0,427.9004032723605,2.0,1.0,phase_1,,,,,,,,,,,,,yellow,flipped triangle
67.0,1.0,1.0,0.0,1.0,1.0,451.0661337990314,2.0,1.0,phase_1,,,,,,,,,,,,,green,triangle
0.0,3.0,0.0,0.0,4.0,4.0,406.7978775128722,2.0,1.0,phase_1,,,,,,,,,,,,,magenta,circle
63.0,1.0,1.0,0.0,3.0,3.0,451.7552540637553,2.0,1.0,phase_1,,,,,,,,,,,,,green,triangle
80.0,6.0,2.0,1.0,2.0,2.0,397.7025288622826,2.0,1.0,phase_1,,,,,,,,,,,,,gray,hexagon
0.0,5.0,0.0,1.0,2.0,2.0,486.5215437021106,2.0,1.0,phase_1,,,,,,,,,,,,,orange,square
375.0,8.0,4.0,1.0,4.0,4.0,488.9347257558256,2.0,1.0,phase_1,,,,,,,,,,,,,yellow,flipped triangle
46.0,5.0,1.0,1.0,1.0,1.0,355.5918808560818,2.0,2.0,phase_1,,,,,,,,,,,,,orange,square
31.0,5.0,1.0,1.0,4.0,4.0,344.5970814209431,2.0,1.0,phase_1,,,,,,,,,,,,,orange,square
424.0,8.0,4.0,1.0,4.0,4.0,389.3842555116862,2.0,1.0,phase_1,,,,,,,,,,,,,yellow,flipped triangle
204.0,7.0,3.0,1.0,4.0,4.0,367.284995270893,2.0,1.0,phase_1,,,,,,,,,,,,,cyan,I
417.0,8.0,4.0,1.0,4.0,4.0,401.3605092186481,2.0,1.0,phase_1,,,,,,,,,,,,,yellow,flipped triangle
0.0,7.0,0.0,1.0,3.0,3.0,411.7662357166409,2.0,1.0,phase_1,,,,,,,,,,,,,cyan,I
85.0,6.0,2.0,1.0,1.0,1.0,358.5410711821168,2.0,1.0,phase_1,,,,,,,,,,,,,gray,hexagon
63.0,1.0,1.0,0.0,1.0,1.0,447.4825274664908,2.0,1.0,phase_1,,,,,,,,,,,,,green,triangle
199.0,7.0,3.0,1.0,1.0,1.0,414.5145863294601,2.0,1.0,phase_1,,,,,,,,,,,,,cyan,I
68.0,5.0,1.0,1.0,1.0,1.0,392.2479324974119,2.0,1.0,phase_1,,,,,,,,,,,,,orange,square
409.0,8.0,4.0,1.0,2.0,2.0,370.3825629781931,2.0,1.0,phase_1,,,,,,,,,,,,,yellow,flipped triangle
415.0,4.0,4.0,0.0,1.0,1.0,371.2377552874386,2.0,1.0,phase_1,,,,,,,,,,,,,white,cross
0.0,3.0,0.0,0.0,1.0,1.0,507.9043162986636,2.0,1.0,phase_1,,,,,,,,,,,,,magenta,circle
96.0,2.0,2.0,0.0,1.0,1.0,575.894865905866,2.0,1.0,phase_1,,,,,,,,,,,,,blue,diamond
195.0,7.0,3.0,1.0,2.0,2.0,396.4227943215519,2.0,1.0,phase_1,,,,,,,,,,,,,cyan,I
0.0,1.0,0.0,0.0,3.0,3.0,463.4993982035666,2.0,1.0,phase_1,,,,,,,,,,,,,green,triangle
195.0,3.0,3.0,0.0,3.0,3.0,328.6032727919519,2.0,2.0,phase_1,,,,,,,,,,,,,magenta,circle
0.0,8.0,0.0,1.0,3.0,3.0,352.2363733500242,2.0,1.0,phase_1,,,,,,,,,,,,,yellow,flipped triangle
213.0,7.0,3.0,1.0,1.0,1.0,454.9131970852613,2.0,1.0,phase_1,,,,,,,,,,,,,cyan,I
411.0,8.0,4.0,1.0,3.0,3.0,465.9399488009512,2.0,1.0,phase_1,,,,,,,,,,,,,yellow,flipped triangle
93.0,6.0,2.0,1.0,2.0,2.0,522.4367917980999,2.0,1.0,phase_1,,,,,,,,,,,,,gray,hexagon
419.0,8.0,4.0,1.0,4.0,4.0,367.3093346878886,2.0,2.0,phase_1,,,,,,,,,,,,,yellow,flipped triangle
400.0,8.0,4.0,1.0,4.0,4.0,389.3146307673305,2.0,1.0,phase_1,,,,,,,,,,,,,yellow,flipped triangle
424.0,4.0,4.0,0.0,2.0,2.0,335.3518960066139,2.0,1.0,phase_1,,,,,,,,,,,,,white,cross
209.0,3.0,3.0,0.0,4.0,4.0,479.9601749982685,2.0,1.0,phase_1,,,,,,,,,,,,,magenta,circle
28.0,5.0,1.0,1.0,3.0,3.0,425.7329299580306,2.0,1.0,phase_1,,,,,,,,,,,,,orange,square
176.0,7.0,3.0,1.0,3.0,3.0,402.3315969388932,2.0,1.0,phase_1,,,,,,,,,,,,,cyan,I
181.0,3.0,3.0,0.0,1.0,1.0,484.0406412258744,2.0,1.0,phase_1,,,,,,,,,,,,,magenta,circle
0.0,6.0,0.0,1.0,1.0,1.0,595.6474053673446,2.0,1.0,phase_1,,,,,,,,,,,,,gray,hexagon
0.0,8.0,0.0,1.0,2.0,2.0,552.3353065364063,2.0,1.0,phase_1,,,,,,,,,,,,,yellow,flipped triangle
190.0,3.0,3.0,0.0,2.0,2.0,495.7617996260524,2.0,1.0,phase_1,,,,,,,,,,,,,magenta,circle
193.0,3.0,3.0,0.0,2.0,2.0,417.3339498229325,2.0,1.0,phase_1,,,,,,,,,,,,,magenta,circle
378.0,4.0,4.0,0.0,1.0,1.0,462.2247787192464,2.0,1.0,phase_1,,,,,,,,,,,,,white,cross
181.0,7.0,3.0,1.0,2.0,2.0,452.1946483291685,2.0,1.0,phase_1,,,,,,,,,,,,,cyan,I
40.0,5.0,1.0,1.0,1.0,1.0,452.1851290483027,2.0,1.0,phase_1,,,,,,,,,,,,,orange,square
108.0,6.0,2.0,1.0,1.0,1.0,431.7884601186961,2.0,1.0,phase_1,,,,,,,,,,,,,gray,hexagon
385.0,4.0,4.0,0.0,4.0,4.0,509.7634627018124,2.0,1.0,phase_1,,,,,,,,,,,,,white,cross
415.0,8.0,4.0,1.0,1.0,1.0,602.0495395641774,2.0,1.0,phase_1,,,,,,,,,,,,,yellow,flipped triangle
0.0,8.0,0.0,1.0,1.0,1.0,443.1390340905636,2.0,1.0,phase_1,,,,,,,,,,,,,yellow,flipped triangle
0.0,2.0,0.0,0.0,1.0,1.0,399.6701769065112,2.0,1.0,phase_1,,,,,,,,,,,,,blue,diamond
121.0,2.0,2.0,0.0,1.0,1.0,400.6014268379658,2.0,1.0,phase_1,,,,,,,,,,,,,blue,diamond
76.0,2.0,2.0,0.0,3.0,3.0,423.63126645796,2.0,2.0,phase_1,,,,,,,,,,,,,blue,diamond
38.0,1.0,1.0,0.0,1.0,1.0,435.9070265199989,2.0,1.0,phase_1,,,,,,,,,,,,,green,triangle
223.0,3.0,3.0,0.0,3.0,3.0,367.9146221838891,2.0,1.0,phase_1,,,,,,,,,,,,,magenta,circle
115.0,6.0,2.0,1.0,3.0,3.0,412.3889240436256,2.0,1.0,phase_1,,,,,,,,,,,,,gray,hexagon
397.0,8.0,4.0,1.0,1.0,1.0,370.0958420522511,2.0,1.0,phase_1,,,,,,,,,,,,,yellow,flipped triangle
0.0,5.0,0.0,1.0,1.0,1.0,392.1369153540581,2.0,1.0,phase_1,,,,,,,,,,,,,orange,square
376.0,4.0,4.0,0.0,3.0,3.0,403.5116347949952,2.0,1.0,phase_1,,,,,,,,,,,,,white,cross
82.0,6.0,2.0,1.0,4.0,4.0,381.4206412062049,2.0,1.0,phase_1,,,,,,,,,,,,,gray,hexagon
58.0,1.0,1.0,0.0,4.0,4.0,416.3390926551074,2.0,1.0,phase_1,,,,,,,,,,,,,green,triangle
384.0,8.0,4.0,1.0,1.0,1.0,416.5212379302829,2.0,1.0,phase_1,,,,,,,,,,,,,yellow,flipped triangle
392.0,4.0,4.0,0.0,1.0,1.0,407.0156558882445,2.0,1.0,phase_1,,,,,,,,,,,,,white,cross
68.0,1.0,1.0,0.0,1.0,1.0,362.8987055271864,2.0,1.0,phase_1,,,,,,,,,,,,,green,triangle
392.0,8.0,4.0,1.0,3.0,3.0,406.8324356339872,2.0,1.0,phase_1,,,,,,,,,,,,,yellow,flipped triangle
85.0,6.0,2.0,1.0,1.0,1.0,407.3415538296103,2.0,1.0,phase_1,,,,,,,,,,,,,gray,hexagon
93.0,2.0,2.0,0.0,1.0,1.0,374.7245287522673,2.0,1.0,phase_1,,,,,,,,,,,,,blue,diamond
225.0,3.0,3.0,0.0,4.0,4.0,410.0804533809423,2.0,1.0,phase_1,,,,,,,,,,,,,magenta,circle
113.0,2.0,2.0,0.0,3.0,3.0,454.2496260255575,2.0,1.0,phase_1,,,,,,,,,,,,,blue,diamond
406.0,8.0,4.0,1.0,3.0,3.0,421.8881162814796,2.0,1.0,phase_1,,,,,,,,,,,,,yellow,flipped triangle
182.0,3.0,3.0,0.0,3.0,3.0,353.6303155124187,2.0,1.0,phase_1,,,,,,,,,,,,,magenta,circle
409.0,8.0,4.0,1.0,2.0,2.0,377.1238238550722,2.0,1.0,phase_1,,,,,,,,,,,,,yellow,flipped triangle
198.0,3.0,3.0,0.0,4.0,4.0,457.312019309029,2.0,1.0,phase_1,,,,,,,,,,,,,magenta,circle
103.0,6.0,2.0,1.0,2.0,2.0,468.8121920917183,2.0,1.0,phase_1,,,,,,,,,,,,,gray,hexagon
54.0,5.0,1.0,1.0,4.0,4.0,345.1073714531958,2.0,1.0,phase_1,,,,,,,,,,,,,orange,square
56.0,1.0,1.0,0.0,4.0,4.0,402.8195308055728,2.0,1.0,phase_1,,,,,,,,,,,,,green,triangle
192.0,3.0,3.0,0.0,2.0,2.0,391.0792989190668,2.0,1.0,phase_1,,,,,,,,,,,,,magenta,circle
216.0,7.0,3.0,1.0,4.0,4.0,325.0393613707274,2.0,1.0,phase_1,,,,,,,,,,,,,cyan,I
199.0,3.0,3.0,0.0,4.0,4.0,335.8766403980553,2.0,1.0,phase_1,,,,,,,,,,,,,magenta,circle
213.0,3.0,3.0,0.0,4.0,4.0,359.0670153498649,2.0,1.0,phase_1,,,,,,,,,,,,,magenta,circle
72.0,1.0,1.0,0.0,4.0,4.0,822.2847739234567,2.0,1.0,phase_1,,,,,,,,,,,,,green,triangle
0.0,7.0,0.0,1.0,3.0,3.0,471.9738350249827,2.0,1.0,phase_1,,,,,,,,,,,,,cyan,I
67.0,5.0,1.0,1.0,2.0,2.0,496.1017274763435,2.0,1.0,phase_1,,,,,,,,,,,,,orange,square
0.0,4.0,0.0,0.0,3.0,3.0,407.210589852184,2.0,1.0,phase_1,,,,,,,,,,,,,white,cross
82.0,2.0,2.0,0.0,2.0,2.0,406.883514020592,2.0,1.0,phase_1,,,,,,,,,,,,,blue,diamond
0.0,4.0,0.0,0.0,2.0,2.0,407.2752834763378,2.0,1.0,phase_1,,,,,,,,,,,,,white,cross
223.0,3.0,3.0,0.0,1.0,1.0,374.0882708225399,2.0,1.0,phase_1,,,,,,,,,,,,,magenta,circle
0.0,4.0,0.0,0.0,2.0,2.0,352.3200824856758,2.0,1.0,phase_1,,,,,,,,,,,,,white,cross
28.0,1.0,1.0,0.0,4.0,4.0,347.6040908135474,3.0,1.0,phase_1,,,,,,,,,,,,,green,triangle
216.0,3.0,3.0,0.0,4.0,4.0,438.8783378526568,3.0,1.0,phase_1,,,,,,,,,,,,,magenta,circle
423.0,4.0,4.0,0.0,4.0,4.0,326.7264547757804,3.0,1.0,phase_1,,,,,,,,,,,,,white,cross
193.0,3.0,3.0,0.0,3.0,3.0,316.4444344583899,3.0,1.0,phase_1,,,,,,,,,,,,,magenta,circle
422.0,4.0,4.0,0.0,1.0,1.0,294.5020226761699,3.0,1.0,phase_1,,,,,,,,,,,,,white,cross
47.0,1.0,1.0,0.0,2.0,2.0,273.5409650485962,3.0,1.0,phase_1,,,,,,,,,,,,,green,triangle
405.0,4.0,4.0,0.0,3.0,3.0,396.9540342222899,3.0,1.0,phase_1,,,,,,,,,,,,,white,cross
192.0,7.0,3.0,1.0,4.0,4.0,363.416212843731,3.0,1.0,phase_1,,,,,,,,,,,,,cyan,I
401.0,4.0,4.0,0.0,2.0,2.0,251.0443669743836,3.0,1.0,phase_1,,,,,,,,,,,,,white,cross
30.0,5.0,1.0,1.0,1.0,1.0,263.4260472841561,3.0,1.0,phase_1,,,,,,,,,,,,,orange,square
203.0,3.0,3.0,0.0,4.0,4.0,286.3259019795805,3.0,1.0,phase_1,,,,,,,,,,,,,magenta,circle
198.0,3.0,3.0,0.0,1.0,1.0,310.93449820764357,3.0,1.0,phase_1,,,,,,,,,,,,,magenta,circle
395.0,8.0,4.0,1.0,2.0,2.0,377.2674466017633,3.0,1.0,phase_1,,,,,,,,,,,,,yellow,flipped triangle
122.0,2.0,2.0,0.0,2.0,2.0,681.9558716379106,3.0,1.0,phase_1,,,,,,,,,,,,,blue,diamond
103.0,2.0,2.0,0.0,1.0,1.0,322.189771104604,3.0,1.0,phase_1,,,,,,,,,,,,,blue,diamond
405.0,4.0,4.0,0.0,4.0,4.0,301.3820722699165,3.0,1.0,phase_1,,,,,,,,,,,,,white,cross
0.0,2.0,0.0,0.0,2.0,2.0,347.7325688581913,3.0,1.0,phase_1,,,,,,,,,,,,,blue,diamond
0.0,3.0,0.0,0.0,1.0,1.0,324.0237673744559,3.0,1.0,phase_1,,,,,,,,,,,,,magenta,circle
28.0,1.0,1.0,0.0,1.0,1.0,323.9702482242137,3.0,1.0,phase_1,,,,,,,,,,,,,green,triangle
223.0,7.0,3.0,1.0,4.0,4.0,381.8753336090594,3.0,1.0,phase_1,,,,,,,,,,,,,cyan,I
213.0,7.0,3.0,1.0,3.0,3.0,438.5771949309855,3.0,1.0,phase_1,,,,,,,,,,,,,cyan,I
100.0,6.0,2.0,1.0,4.0,4.0,359.3438013922423,3.0,1.0,phase_1,,,,,,,,,,,,,gray,hexagon
97.0,2.0,2.0,0.0,4.0,4.0,281.115201767534,3.0,1.0,phase_1,,,,,,,,,,,,,blue,diamond
203.0,7.0,3.0,1.0,2.0,2.0,394.7721188887954,3.0,1.0,phase_1,,,,,,,,,,,,,cyan,I
121.0,6.0,2.0,1.0,4.0,4.0,395.1325458474457,3.0,1.0,phase_1,,,,,,,,,,,,,gray,hexagon
407.0,4.0,4.0,0.0,4.0,4.0,397.085407981649,3.0,1.0,phase_1,,,,,,,,,,,,,white,cross
0.0,6.0,0.0,1.0,2.0,2.0,420.2334864530712,3.0,1.0,phase_1,,,,,,,,,,,,,gray,hexagon
100.0,2.0,2.0,0.0,2.0,2.0,408.8838738389313,3.0,1.0,phase_1,,,,,,,,,,,,,blue,diamond
182.0,7.0,3.0,1.0,4.0,4.0,477.6482433080673,3.0,1.0,phase_1,,,,,,,,,,,,,cyan,I
223.0,7.0,3.0,1.0,1.0,1.0,365.7826450653374,3.0,1.0,phase_1,,,,,,,,,,,,,cyan,I
106.0,6.0,2.0,1.0,1.0,1.0,467.8302479442209,3.0,1.0,phase_1,,,,,,,,,,,,,gray,hexagon
119.0,6.0,2.0,1.0,4.0,4.0,376.6291574575007,3.0,1.0,phase_1,,,,,,,,,,,,,gray,hexagon
403.0,4.0,4.0,0.0,2.0,2.0,411.0718343872577,3.0,1.0,phase_1,,,,,,,,,,,,,white,cross
122.0,6.0,2.0,1.0,1.0,1.0,546.9380901195109,3.0,1.0,phase_1,,,,,,,,,,,,,gray,hexagon
99.0,6.0,2.0,1.0,1.0,1.0,357.7462527900934,3.0,1.0,phase_1,,,,,,,,,,,,,gray,hexagon
74.0,5.0,1.0,1.0,3.0,3.0,445.675442693755,3.0,1.0,phase_1,,,,,,,,,,,,,orange,square
378.0,8.0,4.0,1.0,2.0,2.0,426.1856970842927,3.0,1.0,phase_1,,,,,,,,,,,,,yellow,flipped triangle
385.0,8.0,4.0,1.0,4.0,4.0,628.6196277942508,3.0,1.0,phase_1,,,,,,,,,,,,,yellow,flipped triangle
0.0,6.0,0.0,1.0,2.0,2.0,425.6402815226465,3.0,1.0,phase_1,,,,,,,,,,,,,gray,hexagon
391.0,8.0,4.0,1.0,3.0,3.0,436.6289630997926,3.0,1.0,phase_1,,,,,,,,,,,,,yellow,flipped triangle
179.0,3.0,3.0,0.0,1.0,1.0,483.1483163870871,3.0,1.0,phase_1,,,,,,,,,,,,,magenta,circle
0.0,3.0,0.0,0.0,2.0,2.0,517.4906523898244,3.0,1.0,phase_1,,,,,,,,,,,,,magenta,circle
78.0,6.0,2.0,1.0,3.0,3.0,405.0689954310655,3.0,1.0,phase_1,,,,,,,,,,,,,gray,hexagon
26.0,5.0,1.0,1.0,1.0,1.0,474.1231063380837,3.0,1.0,phase_1,,,,,,,,,,,,,orange,square
0.0,8.0,0.0,1.0,4.0,4.0,395.5650385469198,3.0,1.0,phase_1,,,,,,,,,,,,,yellow,flipped triangle
424.0,8.0,4.0,1.0,2.0,2.0,395.8061663433909,3.0,1.0,phase_1,,,,,,,,,,,,,yellow,flipped triangle
51.0,1.0,1.0,0.0,1.0,1.0,374.7212586458772,3.0,1.0,phase_1,,,,,,,,,,,,,green,triangle
34.0,5.0,1.0,1.0,2.0,2.0,463.6905288789421,3.0,1.0,phase_1,,,,,,,,,,,,,orange,square
115.0,2.0,2.0,0.0,3.0,3.0,374.7958755120635,3.0,1.0,phase_1,,,,,,,,,,,,,blue,diamond
80.0,2.0,2.0,0.0,1.0,1.0,477.0995364524424,3.0,1.0,phase_1,,,,,,,,,,,,,blue,diamond
28.0,5.0,1.0,1.0,1.0,1.0,478.343928232789,3.0,1.0,phase_1,,,,,,,,,,,,,orange,square
0.0,6.0,0.0,1.0,1.0,1.0,398.8021849654615,3.0,1.0,phase_1,,,,,,,,,,,,,gray,hexagon
176.0,3.0,3.0,0.0,1.0,1.0,422.1308857668191,3.0,1.0,phase_1,,,,,,,,,,,,,magenta,circle
196.0,3.0,3.0,0.0,4.0,4.0,636.0455693211406,3.0,1.0,phase_1,,,,,,,,,,,,,magenta,circle
83.0,2.0,2.0,0.0,4.0,4.0,547.8880954906344,3.0,1.0,phase_1,,,,,,,,,,,,,blue,diamond
0.0,7.0,0.0,1.0,2.0,2.0,390.3400537092238,3.0,1.0,phase_1,,,,,,,,,,,,,cyan,I
0.0,2.0,0.0,0.0,2.0,2.0,390.4390907846391,3.0,1.0,phase_1,,,,,,,,,,,,,blue,diamond
47.0,1.0,1.0,0.0,3.0,3.0,594.6195654105395,3.0,1.0,phase_1,,,,,,,,,,,,,green,triangle
0.0,1.0,0.0,0.0,3.0,3.0,413.9751847833395,3.0,1.0,phase_1,,,,,,,,,,,,,green,triangle
63.0,5.0,1.0,1.0,3.0,3.0,381.2021964695304,3.0,1.0,phase_1,,,,,,,,,,,,,orange,square
0.0,7.0,0.0,1.0,2.0,2.0,516.255323542282,3.0,1.0,phase_1,,,,,,,,,,,,,cyan,I
0.0,5.0,0.0,1.0,1.0,1.0,415.8576671034097,3.0,1.0,phase_1,,,,,,,,,,,,,orange,square
218.0,3.0,3.0,0.0,2.0,2.0,405.1036539021879,3.0,1.0,phase_1,,,,,,,,,,,,,magenta,circle
118.0,6.0,2.0,1.0,1.0,1.0,418.3999586384743,3.0,1.0,phase_1,,,,,,,,,,,,,gray,hexagon
0.0,7.0,0.0,1.0,2.0,2.0,372.7326339576393,3.0,1.0,phase_1,,,,,,,,,,,,,cyan,I
389.0,4.0,4.0,0.0,3.0,3.0,361.2813740037381,3.0,1.0,phase_1,,,,,,,,,,,,,white,cross
46.0,1.0,1.0,0.0,2.0,2.0,374.6587184723466,3.0,1.0,phase_1,,,,,,,,,,,,,green,triangle
409.0,4.0,4.0,0.0,1.0,1.0,385.7270064763725,3.0,1.0,phase_1,,,,,,,,,,,,,white,cross
376.0,8.0,4.0,1.0,1.0,1.0,364.343995694071,3.0,1.0,phase_1,,,,,,,,,,,,,yellow,flipped triangle
213.0,3.0,3.0,0.0,1.0,1.0,376.9211482722312,3.0,1.0,phase_1,,,,,,,,,,,,,magenta,circle
107.0,2.0,2.0,0.0,2.0,2.0,387.3990618158132,3.0,1.0,phase_1,,,,,,,,,,,,,blue,diamond
0.0,4.0,0.0,0.0,4.0,4.0,421.4928084984422,3.0,1.0,phase_1,,,,,,,,,,,,,white,cross
410.0,4.0,4.0,0.0,2.0,2.0,399.6668453328311,3.0,1.0,phase_1,,,,,,,,,,,,,white,cross
0.0,1.0,0.0,0.0,3.0,3.0,456.5811455249786,3.0,1.0,phase_1,,,,,,,,,,,,,green,triangle
403.0,8.0,4.0,1.0,1.0,1.0,490.2937754523009,3.0,1.0,phase_1,,,,,,,,,,,,,yellow,flipped triangle
391.0,4.0,4.0,0.0,2.0,2.0,401.2235659174621,3.0,1.0,phase_1,,,,,,,,,,,,,white,cross
422.0,8.0,4.0,1.0,1.0,1.0,389.9525904562324,3.0,1.0,phase_1,,,,,,,,,,,,,yellow,flipped triangle
0.0,6.0,0.0,1.0,2.0,2.0,347.3721707705408,3.0,1.0,phase_1,,,,,,,,,,,,,gray,hexagon
405.0,4.0,4.0,0.0,2.0,2.0,437.4708372633904,3.0,1.0,phase_1,,,,,,,,,,,,,white,cross
57.0,1.0,1.0,0.0,2.0,2.0,504.45383600890636,3.0,1.0,phase_1,,,,,,,,,,,,,green,triangle
41.0,5.0,1.0,1.0,1.0,1.0,380.6679572444409,3.0,1.0,phase_1,,,,,,,,,,,,,orange,square
58.0,5.0,1.0,1.0,3.0,3.0,426.6237078700214,3.0,1.0,phase_1,,,,,,,,,,,,,orange,square
392.0,4.0,4.0,0.0,3.0,3.0,416.551458183676,3.0,1.0,phase_1,,,,,,,,,,,,,white,cross
421.0,8.0,4.0,1.0,4.0,4.0,338.7028898578137,3.0,1.0,phase_1,,,,,,,,,,,,,yellow,flipped triangle
215.0,3.0,3.0,0.0,4.0,4.0,339.770317543298,3.0,1.0,phase_1,,,,,,,,,,,,,magenta,circle
411.0,4.0,4.0,0.0,4.0,4.0,361.4116674289107,3.0,1.0,phase_1,,,,,,,,,,,,,white,cross
0.0,6.0,0.0,1.0,3.0,3.0,496.6642174404114,3.0,1.0,phase_1,,,,,,,,,,,,,gray,hexagon
101.0,6.0,2.0,1.0,1.0,1.0,353.0950814019888,3.0,1.0,phase_1,,,,,,,,,,,,,gray,hexagon
67.0,5.0,1.0,1.0,1.0,1.0,341.2794223986566,3.0,2.0,phase_1,,,,,,,,,,,,,orange,square
180.0,3.0,3.0,0.0,3.0,3.0,363.4249137248844,3.0,1.0,phase_1,,,,,,,,,,,,,magenta,circle
208.0,7.0,3.0,1.0,3.0,3.0,354.2132405564189,3.0,1.0,phase_1,,,,,,,,,,,,,cyan,I
0.0,5.0,0.0,1.0,2.0,2.0,299.4266492314636,3.0,1.0,phase_1,,,,,,,,,,,,,orange,square
380.0,4.0,4.0,0.0,1.0,1.0,345.0343103613704,3.0,1.0,phase_1,,,,,,,,,,,,,white,cross
0.0,4.0,0.0,0.0,4.0,4.0,614.0790528152138,3.0,1.0,phase_1,,,,,,,,,,,,,white,cross
180.0,7.0,3.0,1.0,2.0,2.0,436.2637388985604,3.0,1.0,phase_1,,,,,,,,,,,,,cyan,I
0.0,5.0,0.0,1.0,2.0,2.0,402.0263734273612,3.0,1.0,phase_1,,,,,,,,,,,,,orange,square
204.0,3.0,3.0,0.0,2.0,2.0,424.2658475413918,3.0,1.0,phase_1,,,,,,,,,,,,,magenta,circle
383.0,4.0,4.0,0.0,3.0,3.0,457.6183061581105,3.0,1.0,phase_1,,,,,,,,,,,,,white,cross
64.0,5.0,1.0,1.0,2.0,2.0,425.5180191248655,3.0,1.0,phase_1,,,,,,,,,,,,,orange,square
0.0,5.0,0.0,1.0,3.0,3.0,358.2436740398407,3.0,1.0,phase_1,,,,,,,,,,,,,orange,square
199.0,3.0,3.0,0.0,2.0,2.0,378.3295373432338,4.0,1.0,phase_1,,,,,,,,,,,,,magenta,circle
411.0,4.0,4.0,0.0,1.0,1.0,469.7004414629191,4.0,1.0,phase_1,,,,,,,,,,,,,white,cross
399.0,8.0,4.0,1.0,2.0,2.0,378.0702273361385,4.0,1.0,phase_1,,,,,,,,,,,,,yellow,flipped triangle
0.0,3.0,0.0,0.0,3.0,3.0,380.1086451858282,4.0,1.0,phase_1,,,,,,,,,,,,,magenta,circle
395.0,4.0,4.0,0.0,4.0,4.0,346.0993634071201,4.0,1.0,phase_1,,,,,,,,,,,,,white,cross
118.0,2.0,2.0,0.0,4.0,4.0,391.5357291698456,4.0,1.0,phase_1,,,,,,,,,,,,,blue,diamond
409.0,4.0,4.0,0.0,1.0,1.0,381.06754142791027,4.0,1.0,phase_1,,,,,,,,,,,,,white,cross
73.0,5.0,1.0,1.0,2.0,2.0,460.1445014122873,4.0,1.0,phase_1,,,,,,,,,,,,,orange,square
405.0,8.0,4.0,1.0,3.0,3.0,381.74434704706067,4.0,1.0,phase_1,,,,,,,,,,,,,yellow,flipped triangle
31.0,1.0,1.0,0.0,1.0,1.0,394.8127112817019,4.0,1.0,phase_1,,,,,,,,,,,,,green,triangle
47.0,5.0,1.0,1.0,2.0,2.0,473.7185463309288,4.0,1.0,phase_1,,,,,,,,,,,,,orange,square
421.0,4.0,4.0,0.0,3.0,3.0,497.1257059369236,4.0,1.0,phase_1,,,,,,,,,,,,,white,cross
75.0,6.0,2.0,1.0,3.0,3.0,394.4530612789094,4.0,1.0,phase_1,,,,,,,,,,,,,gray,hexagon
0.0,2.0,0.0,0.0,2.0,2.0,430.3353468421846,4.0,1.0,phase_1,,,,,,,,,,,,,blue,diamond
407.0,8.0,4.0,1.0,3.0,3.0,396.5599637012929,4.0,1.0,phase_1,,,,,,,,,,,,,yellow,flipped triangle
199.0,7.0,3.0,1.0,3.0,3.0,396.1492364760488,4.0,1.0,phase_1,,,,,,,,,,,,,cyan,I
0.0,3.0,0.0,0.0,3.0,3.0,486.9654111098498,4.0,1.0,phase_1,,,,,,,,,,,,,magenta,circle
205.0,3.0,3.0,0.0,3.0,3.0,443.994058528915,4.0,1.0,phase_1,,,,,,,,,,,,,magenta,circle
202.0,7.0,3.0,1.0,1.0,1.0,557.9394327942282,4.0,1.0,phase_1,,,,,,,,,,,,,cyan,I
90.0,2.0,2.0,0.0,2.0,2.0,421.1665173061192,4.0,1.0,phase_1,,,,,,,,,,,,,blue,diamond
223.0,3.0,3.0,0.0,2.0,2.0,366.0351424477994,4.0,1.0,phase_1,,,,,,,,,,,,,magenta,circle
405.0,8.0,4.0,1.0,2.0,2.0,401.318147778511,4.0,1.0,phase_1,,,,,,,,,,,,,yellow,flipped triangle
380.0,8.0,4.0,1.0,4.0,4.0,411.8669114541262,4.0,1.0,phase_1,,,,,,,,,,,,,yellow,flipped triangle
414.0,8.0,4.0,1.0,2.0,2.0,401.4185848645866,4.0,2.0,phase_1,,,,,,,,,,,,,yellow,flipped triangle
66.0,5.0,1.0,1.0,2.0,2.0,380.4984439630061,4.0,1.0,phase_1,,,,,,,,,,,,,orange,square
83.0,6.0,2.0,1.0,3.0,3.0,448.2725695706904,4.0,1.0,phase_1,,,,,,,,,,,,,gray,hexagon
25.0,1.0,1.0,0.0,3.0,3.0,436.6641161032021,4.0,1.0,phase_1,,,,,,,,,,,,,green,triangle
175.0,3.0,3.0,0.0,3.0,3.0,414.754960918799,4.0,1.0,phase_1,,,,,,,,,,,,,magenta,circle
205.0,7.0,3.0,1.0,4.0,4.0,426.3468696735799,4.0,1.0,phase_1,,,,,,,,,,,,,cyan,I
0.0,8.0,0.0,1.0,3.0,3.0,461.1553999129683,4.0,1.0,phase_1,,,,,,,,,,,,,yellow,flipped triangle
379.0,4.0,4.0,0.0,3.0,3.0,394.6004549507051,4.0,1.0,phase_1,,,,,,,,,,,,,white,cross
56.0,5.0,1.0,1.0,4.0,4.0,485.5501935817301,4.0,1.0,phase_1,,,,,,,,,,,,,orange,square
186.0,3.0,3.0,0.0,3.0,3.0,384.5735208597034,4.0,1.0,phase_1,,,,,,,,,,,,,magenta,circle
52.0,5.0,1.0,1.0,3.0,3.0,440.9632729366421,4.0,1.0,phase_1,,,,,,,,,,,,,orange,square
399.0,4.0,4.0,0.0,3.0,3.0,329.3740125373006,4.0,1.0,phase_1,,,,,,,,,,,,,white,cross
35.0,1.0,1.0,0.0,3.0,3.0,419.7047313209623,4.0,1.0,phase_1,,,,,,,,,,,,,green,triangle
0.0,4.0,0.0,0.0,2.0,2.0,512.1258865110576,4.0,1.0,phase_1,,,,,,,,,,,,,white,cross
376.0,4.0,4.0,0.0,4.0,4.0,420.147716300562,4.0,1.0,phase_1,,,,,,,,,,,,,white,cross
97.0,6.0,2.0,1.0,3.0,3.0,365.2466600760817,4.0,1.0,phase_1,,,,,,,,,,,,,gray,hexagon
47.0,5.0,1.0,1.0,4.0,4.0,388.2292655762285,4.0,1.0,phase_1,,,,,,,,,,,,,orange,square
202.0,3.0,3.0,0.0,2.0,2.0,444.7188368067145,4.0,1.0,phase_1,,,,,,,,,,,,,magenta,circle
0.0,5.0,0.0,1.0,1.0,1.0,391.2898583803326,4.0,2.0,phase_1,,,,,,,,,,,,,orange,square
107.0,6.0,2.0,1.0,2.0,2.0,694.586151978001,4.0,1.0,phase_1,,,,,,,,,,,,,gray,hexagon
38.0,5.0,1.0,1.0,2.0,2.0,852.415936999023,4.0,1.0,phase_1,,,,,,,,,,,,,orange,square
204.0,3.0,3.0,0.0,2.0,2.0,795.9895390085876,4.0,1.0,phase_1,,,,,,,,,,,,,magenta,circle
30.0,1.0,1.0,0.0,3.0,3.0,402.8226493392139,4.0,2.0,phase_1,,,,,,,,,,,,,green,triangle
193.0,7.0,3.0,1.0,2.0,2.0,449.9070951715112,4.0,1.0,phase_1,,,,,,,,,,,,,cyan,I
28.0,5.0,1.0,1.0,2.0,2.0,438.990309368819,4.0,1.0,phase_1,,,,,,,,,,,,,orange,square
112.0,6.0,2.0,1.0,4.0,4.0,417.1875552274287,4.0,1.0,phase_1,,,,,,,,,,,,,gray,hexagon
0.0,4.0,0.0,0.0,2.0,2.0,428.6477444693446,4.0,1.0,phase_1,,,,,,,,,,,,,white,cross
0.0,5.0,0.0,1.0,2.0,2.0,417.8409643936902,4.0,1.0,phase_1,,,,,,,,,,,,,orange,square
218.0,7.0,3.0,1.0,1.0,1.0,508.8997073471546,4.0,1.0,phase_1,,,,,,,,,,,,,cyan,I
0.0,6.0,0.0,1.0,1.0,1.0,381.3858078792691,4.0,1.0,phase_1,,,,,,,,,,,,,gray,hexagon
0.0,2.0,0.0,0.0,3.0,3.0,622.4657001439482,4.0,1.0,phase_1,,,,,,,,,,,,,blue,diamond
41.0,1.0,1.0,0.0,4.0,4.0,442.9156084079295,4.0,1.0,phase_1,,,,,,,,,,,,,green,triangle
0.0,5.0,0.0,1.0,4.0,4.0,409.0356284286827,4.0,1.0,phase_1,,,,,,,,,,,,,orange,square
199.0,3.0,3.0,0.0,3.0,3.0,398.9460505545139,4.0,1.0,phase_1,,,,,,,,,,,,,magenta,circle
0.0,3.0,0.0,0.0,3.0,3.0,399.0633869543671,4.0,1.0,phase_1,,,,,,,,,,,,,magenta,circle
202.0,7.0,3.0,1.0,3.0,3.0,422.0716275740415,4.0,1.0,phase_1,,,,,,,,,,,,,cyan,I
94.0,6.0,2.0,1.0,2.0,2.0,503.3855000510812,4.0,1.0,phase_1,,,,,,,,,,,,,gray,hexagon
50.0,5.0,1.0,1.0,4.0,4.0,468.2977122720331,4.0,1.0,phase_1,,,,,,,,,,,,,orange,square
85.0,2.0,2.0,0.0,4.0,4.0,457.5768867507577,4.0,1.0,phase_1,,,,,,,,,,,,,blue,diamond
175.0,7.0,3.0,1.0,1.0,1.0,492.5043482799083,4.0,1.0,phase_1,,,,,,,,,,,,,cyan,I
209.0,7.0,3.0,1.0,1.0,1.0,459.6884537022561,4.0,1.0,phase_1,,,,,,,,,,,,,cyan,I
223.0,7.0,3.0,1.0,3.0,3.0,505.10276784189045,4.0,1.0,phase_1,,,,,,,,,,,,,cyan,I
0.0,7.0,0.0,1.0,2.0,2.0,516.5706193074584,4.0,1.0,phase_1,,,,,,,,,,,,,cyan,I
47.0,1.0,1.0,0.0,2.0,2.0,460.7557749841362,4.0,1.0,phase_1,,,,,,,,,,,,,green,triangle
94.0,2.0,2.0,0.0,1.0,1.0,428.0985172372311,4.0,1.0,phase_1,,,,,,,,,,,,,blue,diamond
106.0,2.0,2.0,0.0,4.0,4.0,428.1275186222046,4.0,1.0,phase_1,,,,,,,,,,,,,blue,diamond
186.0,7.0,3.0,1.0,1.0,1.0,452.9150240123272,4.0,1.0,phase_1,,,,,,,,,,,,,cyan,I
63.0,5.0,1.0,1.0,3.0,3.0,452.2226785775274,4.0,1.0,phase_1,,,,,,,,,,,,,orange,square
57.0,1.0,1.0,0.0,4.0,4.0,396.2970895227045,4.0,1.0,phase_1,,,,,,,,,,,,,green,triangle
45.0,1.0,1.0,0.0,3.0,3.0,520.2010672073811,4.0,1.0,phase_1,,,,,,,,,,,,,green,triangle
41.0,1.0,1.0,0.0,4.0,4.0,364.7969679441303,4.0,1.0,phase_1,,,,,,,,,,,,,green,triangle
0.0,1.0,0.0,0.0,4.0,4.0,408.0783468671143,4.0,1.0,phase_1,,,,,,,,,,,,,green,triangle
68.0,5.0,1.0,1.0,4.0,4.0,353.2308225985616,4.0,1.0,phase_1,,,,,,,,,,,,,orange,square
0.0,7.0,0.0,1.0,2.0,2.0,513.0057900678366,4.0,1.0,phase_1,,,,,,,,,,,,,cyan,I
375.0,4.0,4.0,0.0,2.0,2.0,410.5116014834493,4.0,1.0,phase_1,,,,,,,,,,,,,white,cross
75.0,2.0,2.0,0.0,2.0,2.0,399.9861858319491,4.0,1.0,phase_1,,,,,,,,,,,,,blue,diamond
68.0,1.0,1.0,0.0,2.0,2.0,400.6918924860656,4.0,1.0,phase_1,,,,,,,,,,,,,green,triangle
0.0,2.0,0.0,0.0,1.0,1.0,537.0328158605844,4.0,1.0,phase_1,,,,,,,,,,,,,blue,diamond
41.0,5.0,1.0,1.0,4.0,4.0,549.342397833243,4.0,1.0,phase_1,,,,,,,,,,,,,orange,square
204.0,7.0,3.0,1.0,3.0,3.0,381.430757464841,4.0,1.0,phase_1,,,,,,,,,,,,,cyan,I
106.0,6.0,2.0,1.0,4.0,4.0,323.7382739316672,4.0,1.0,phase_1,,,,,,,,,,,,,gray,hexagon
389.0,8.0,4.0,1.0,3.0,3.0,379.9464262556284,4.0,1.0,phase_1,,,,,,,,,,,,,yellow,flipped triangle
0.0,4.0,0.0,0.0,3.0,3.0,414.9976202752441,4.0,1.0,phase_1,,,,,,,,,,,,,white,cross
66.0,1.0,1.0,0.0,3.0,3.0,381.1647137627005,4.0,1.0,phase_1,,,,,,,,,,,,,green,triangle
0.0,2.0,0.0,0.0,2.0,2.0,439.7270563058555,4.0,1.0,phase_1,,,,,,,,,,,,,blue,diamond
34.0,1.0,1.0,0.0,2.0,2.0,439.6610788535326,4.0,1.0,phase_1,,,,,,,,,,,,,green,triangle
124.0,2.0,2.0,0.0,1.0,1.0,418.8386513851583,4.0,1.0,phase_1,,,,,,,,,,,,,blue,diamond
391.0,8.0,4.0,1.0,2.0,2.0,496.6983259655535,4.0,1.0,phase_1,,,,,,,,,,,,,yellow,flipped triangle
0.0,6.0,0.0,1.0,3.0,3.0,497.5883276201784,4.0,1.0,phase_1,,,,,,,,,,,,,gray,hexagon
115.0,6.0,2.0,1.0,2.0,2.0,397.4937067832798,4.0,1.0,phase_1,,,,,,,,,,,,,gray,hexagon
81.0,2.0,2.0,0.0,3.0,3.0,385.9658907167613,4.0,1.0,phase_1,,,,,,,,,,,,,blue,diamond
380.0,8.0,4.0,1.0,3.0,3.0,397.4614215549081,4.0,1.0,phase_1,,,,,,,,,,,,,yellow,flipped triangle
181.0,7.0,3.0,1.0,4.0,4.0,453.4926633350551,4.0,1.0,phase_1,,,,,,,,,,,,,cyan,I
54.0,1.0,1.0,0.0,2.0,2.0,319.9589354917407,4.0,1.0,phase_1,,,,,,,,,,,,,green,triangle
102.0,6.0,2.0,1.0,4.0,4.0,467.0824939385056,4.0,1.0,phase_1,,,,,,,,,,,,,gray,hexagon
85.0,2.0,2.0,0.0,4.0,4.0,365.1126970071345,4.0,1.0,phase_1,,,,,,,,,,,,,blue,diamond
58.0,1.0,1.0,0.0,1.0,1.0,636.949120555073,4.0,1.0,phase_1,,,,,,,,,,,,,green,triangle
0.0,2.0,2.0,0.0,6.0,6.0,406.0943815857172,1.0,1.0,phase_2,go,250.0,250.0,1.0,,,,,,,,,blue,diamond
0.0,8.0,4.0,1.0,5.0,0.0,0.0,1.0,1.0,phase_2,stop,250.0,250.0,4.0,,,,,,,,,yellow,flipped triangle
0.0,1.0,1.0,0.0,6.0,6.0,508.941792184487,1.0,1.0,phase_2,go,300.0,250.0,1.0,,,,,,,,,green,triangle
0.0,6.0,2.0,1.0,6.0,0.0,0.0,1.0,1.0,phase_2,stop,300.0,250.0,4.0,,,,,,,,,gray,hexagon
0.0,4.0,4.0,0.0,5.0,5.0,521.6380681376904,1.0,1.0,phase_2,go,300.0,300.0,1.0,,,,,,,,,white,cross
0.0,3.0,3.0,0.0,6.0,6.0,591.0942459013313,1.0,1.0,phase_2,go,300.0,300.0,1.0,,,,,,,,,magenta,circle
0.0,6.0,2.0,1.0,6.0,0.0,0.0,1.0,1.0,phase_2,stop,300.0,300.0,4.0,,,,,,,,,gray,hexagon
0.0,1.0,1.0,0.0,5.0,5.0,953.0773672740906,1.0,1.0,phase_2,go,300.0,350.0,1.0,,,,,,,,,green,triangle
0.0,8.0,4.0,1.0,6.0,0.0,0.0,1.0,1.0,phase_2,stop,300.0,350.0,4.0,,,,,,,,,yellow,flipped triangle
0.0,2.0,2.0,0.0,5.0,5.0,752.1980514284223,1.0,1.0,phase_2,go,300.0,400.0,1.0,,,,,,,,,blue,diamond
0.0,1.0,1.0,0.0,5.0,5.0,481.5232257824391,1.0,1.0,phase_2,go,300.0,400.0,1.0,,,,,,,,,green,triangle
0.0,4.0,4.0,0.0,6.0,6.0,538.2521999999881,1.0,1.0,phase_2,go,300.0,400.0,1.0,,,,,,,,,white,cross
0.0,6.0,2.0,1.0,5.0,0.0,0.0,1.0,1.0,phase_2,stop,300.0,400.0,4.0,,,,,,,,,gray,hexagon
0.0,7.0,3.0,1.0,5.0,5.0,798.7285908311605,1.0,1.0,phase_2,go,350.0,400.0,1.0,,,,,,,,,cyan,I
0.0,4.0,4.0,0.0,5.0,5.0,439.7780972067266,1.0,1.0,phase_2,go,350.0,400.0,1.0,,,,,,,,,white,cross
0.0,4.0,4.0,0.0,6.0,6.0,835.0259868893772,1.0,1.0,phase_2,go,350.0,400.0,1.0,,,,,,,,,white,cross
0.0,7.0,3.0,1.0,5.0,0.0,0.0,1.0,1.0,phase_2,stop,350.0,400.0,4.0,,,,,,,,,cyan,I
0.0,6.0,2.0,1.0,5.0,0.0,0.0,1.0,1.0,phase_2,stop,400.0,400.0,4.0,,,,,,,,,gray,hexagon
0.0,8.0,4.0,1.0,6.0,6.0,309.2456688173115,1.0,1.0,phase_2,stop,450.0,400.0,3.0,,,,,,,,,yellow,flipped triangle
0.0,7.0,3.0,1.0,5.0,5.0,1040.1821003761142,1.0,1.0,phase_2,go,450.0,350.0,1.0,,,,,,,,,cyan,I
0.0,8.0,4.0,1.0,6.0,0.0,0.0,1.0,1.0,phase_2,stop,450.0,350.0,4.0,,,,,,,,,yellow,flipped triangle
0.0,6.0,2.0,1.0,5.0,0.0,0.0,1.0,1.0,phase_2,stop,450.0,400.0,4.0,,,,,,,,,gray,hexagon
0.0,2.0,2.0,0.0,5.0,5.0,729.1748709976673,1.0,1.0,phase_2,go,500.0,400.0,1.0,,,,,,,,,blue,diamond
0.0,7.0,3.0,1.0,6.0,0.0,0.0,1.0,1.0,phase_2,stop,500.0,400.0,4.0,,,,,,,,,cyan,I
0.0,8.0,4.0,1.0,5.0,0.0,0.0,1.0,1.0,phase_2,stop,500.0,450.0,4.0,,,,,,,,,yellow,flipped triangle
0.0,6.0,2.0,1.0,5.0,0.0,0.0,1.0,1.0,phase_2,stop,550.0,450.0,4.0,,,,,,,,,gray,hexagon
0.0,3.0,3.0,0.0,5.0,5.0,1091.669910820201,1.0,1.0,phase_2,go,600.0,450.0,1.0,,,,,,,,,magenta,circle
0.0,8.0,4.0,1.0,6.0,0.0,0.0,1.0,1.0,phase_2,stop,600.0,450.0,4.0,,,,,,,,,yellow,flipped triangle
0.0,7.0,3.0,1.0,5.0,0.0,0.0,1.0,1.0,phase_2,stop,600.0,500.0,4.0,,,,,,,,,cyan,I
0.0,2.0,2.0,0.0,6.0,6.0,824.8072392307222,1.0,1.0,phase_2,go,650.0,500.0,1.0,,,,,,,,,blue,diamond
0.0,1.0,1.0,0.0,6.0,6.0,972.3472371697426,1.0,1.0,phase_2,go,650.0,500.0,1.0,,,,,,,,,green,triangle
0.0,2.0,2.0,0.0,5.0,5.0,758.88502295129,1.0,1.0,phase_2,go,650.0,500.0,1.0,,,,,,,,,blue,diamond
0.0,3.0,3.0,0.0,6.0,6.0,781.8607790395617,1.0,1.0,phase_2,go,650.0,500.0,1.0,,,,,,,,,magenta,circle
0.0,8.0,4.0,1.0,6.0,6.0,603.5541077144444,1.0,1.0,phase_2,stop,650.0,500.0,3.0,,,,,,,,,yellow,flipped triangle
0.0,8.0,4.0,1.0,6.0,6.0,884.4479685649276,1.0,1.0,phase_2,go,650.0,450.0,1.0,,,,,,,,,yellow,flipped triangle
0.0,8.0,4.0,1.0,6.0,6.0,840.0022853165865,1.0,1.0,phase_2,go,650.0,450.0,1.0,,,,,,,,,yellow,flipped triangle
0.0,1.0,1.0,0.0,5.0,5.0,451.6805182211101,2.0,1.0,phase_2,go,650.0,450.0,1.0,,,,,,,,,green,triangle
0.0,3.0,3.0,0.0,6.0,6.0,452.5993911083787,2.0,1.0,phase_2,go,650.0,450.0,1.0,,,,,,,,,magenta,circle
0.0,5.0,1.0,1.0,5.0,5.0,430.7178254239261,2.0,1.0,phase_2,stop,650.0,450.0,3.0,,,,,,,,,orange,square
0.0,6.0,2.0,1.0,6.0,6.0,747.2091880626976,2.0,1.0,phase_2,stop,600.0,450.0,3.0,,,,,,,,,gray,hexagon
0.0,2.0,2.0,0.0,5.0,5.0,691.3242423906922,2.0,1.0,phase_2,go,600.0,400.0,1.0,,,,,,,,,blue,diamond
0.0,2.0,2.0,0.0,5.0,5.0,692.031498067081,2.0,1.0,phase_2,go,600.0,400.0,1.0,,,,,,,,,blue,diamond
0.0,6.0,2.0,1.0,6.0,6.0,456.6481313668191,2.0,1.0,phase_2,go,600.0,400.0,1.0,,,,,,,,,gray,hexagon
0.0,1.0,1.0,0.0,6.0,6.0,491.4161751512438,2.0,1.0,phase_2,go,600.0,400.0,1.0,,,,,,,,,green,triangle
0.0,2.0,2.0,0.0,6.0,6.0,863.7651316821575,2.0,1.0,phase_2,go,600.0,400.0,1.0,,,,,,,,,blue,diamond
0.0,5.0,1.0,1.0,5.0,5.0,448.404774069786,2.0,1.0,phase_2,stop,600.0,400.0,3.0,,,,,,,,,orange,square
0.0,3.0,3.0,0.0,5.0,5.0,798.9340936765075,2.0,1.0,phase_2,go,550.0,400.0,1.0,,,,,,,,,magenta,circle
0.0,7.0,3.0,1.0,6.0,0.0,0.0,2.0,1.0,phase_2,stop,550.0,400.0,4.0,,,,,,,,,cyan,I
0.0,7.0,3.0,1.0,5.0,0.0,0.0,2.0,1.0,phase_2,stop,550.0,450.0,4.0,,,,,,,,,cyan,I
0.0,7.0,3.0,1.0,6.0,6.0,541.0370780155063,2.0,1.0,phase_2,stop,600.0,450.0,3.0,,,,,,,,,cyan,I
0.0,3.0,3.0,0.0,6.0,6.0,678.1775096897036,2.0,1.0,phase_2,go,600.0,400.0,1.0,,,,,,,,,magenta,circle
0.0,5.0,1.0,1.0,6.0,0.0,0.0,2.0,1.0,phase_2,stop,600.0,400.0,4.0,,,,,,,,,orange,square
0.0,2.0,2.0,0.0,5.0,5.0,1050.4370490089061,2.0,1.0,phase_2,go,600.0,450.0,1.0,,,,,,,,,blue,diamond
0.0,4.0,4.0,0.0,6.0,6.0,939.3308323342352,2.0,1.0,phase_2,go,600.0,450.0,1.0,,,,,,,,,white,cross
0.0,4.0,4.0,0.0,5.0,5.0,883.0611906014383,2.0,1.0,phase_2,go,600.0,450.0,1.0,,,,,,,,,white,cross
0.0,4.0,4.0,0.0,6.0,6.0,727.1685858722776,2.0,1.0,phase_2,go,600.0,450.0,1.0,,,,,,,,,white,cross
0.0,1.0,1.0,0.0,6.0,6.0,771.6617998667061,2.0,1.0,phase_2,go,600.0,450.0,1.0,,,,,,,,,green,triangle
0.0,8.0,4.0,1.0,6.0,6.0,616.1899950820953,2.0,1.0,phase_2,go,600.0,450.0,1.0,,,,,,,,,yellow,flipped triangle
0.0,4.0,4.0,0.0,5.0,5.0,628.9884930010885,2.0,1.0,phase_2,go,600.0,450.0,1.0,,,,,,,,,white,cross
0.0,6.0,2.0,1.0,6.0,0.0,0.0,2.0,1.0,phase_2,stop,600.0,450.0,4.0,,,,,,,,,gray,hexagon
0.0,3.0,3.0,0.0,5.0,5.0,912.0346361305564,2.0,1.0,phase_2,go,600.0,500.0,1.0,,,,,,,,,magenta,circle
0.0,1.0,1.0,0.0,6.0,6.0,933.5519149899484,2.0,1.0,phase_2,go,600.0,500.0,1.0,,,,,,,,,green,triangle
0.0,7.0,3.0,1.0,6.0,0.0,0.0,2.0,1.0,phase_2,stop,600.0,500.0,4.0,,,,,,,,,cyan,I
0.0,5.0,1.0,1.0,6.0,0.0,0.0,2.0,1.0,phase_2,stop,600.0,550.0,4.0,,,,,,,,,orange,square
0.0,1.0,1.0,0.0,6.0,6.0,893.0651599075645,2.0,1.0,phase_2,go,600.0,600.0,1.0,,,,,,,,,green,triangle
0.0,5.0,1.0,1.0,5.0,0.0,0.0,2.0,1.0,phase_2,stop,600.0,600.0,4.0,,,,,,,,,orange,square
0.0,8.0,4.0,1.0,5.0,5.0,1095.1695430558177,2.0,1.0,phase_2,go,650.0,600.0,1.0,,,,,,,,,yellow,flipped triangle
0.0,2.0,2.0,0.0,5.0,5.0,872.1298750024289,2.0,1.0,phase_2,go,650.0,600.0,1.0,,,,,,,,,blue,diamond
0.0,2.0,2.0,0.0,6.0,6.0,478.0075664166361,2.0,1.0,phase_2,go,650.0,600.0,1.0,,,,,,,,,blue,diamond
0.0,6.0,2.0,1.0,6.0,0.0,0.0,2.0,1.0,phase_2,stop,650.0,600.0,4.0,,,,,,,,,gray,hexagon
0.0,3.0,3.0,0.0,6.0,6.0,818.6116314027458,2.0,1.0,phase_2,go,650.0,650.0,1.0,,,,,,,,,magenta,circle
0.0,3.0,3.0,0.0,6.0,6.0,525.2227114979178,2.0,1.0,phase_2,go,650.0,650.0,1.0,,,,,,,,,magenta,circle
0.0,2.0,2.0,0.0,6.0,6.0,371.7028645332902,3.0,1.0,phase_2,go,650.0,650.0,1.0,,,,,,,,,blue,diamond
0.0,3.0,3.0,0.0,6.0,6.0,349.5904519222677,3.0,1.0,phase_2,go,650.0,650.0,1.0,,,,,,,,,magenta,circle
0.0,1.0,1.0,0.0,5.0,5.0,711.1555135343224,3.0,1.0,phase_2,go,650.0,650.0,1.0,,,,,,,,,green,triangle
0.0,8.0,4.0,1.0,5.0,0.0,0.0,3.0,1.0,phase_2,stop,650.0,650.0,4.0,,,,,,,,,yellow,flipped triangle
0.0,3.0,3.0,0.0,5.0,5.0,645.1185853220522,3.0,1.0,phase_2,go,700.0,650.0,1.0,,,,,,,,,magenta,circle
0.0,6.0,2.0,1.0,6.0,6.0,661.384864943102,3.0,1.0,phase_2,stop,700.0,650.0,3.0,,,,,,,,,gray,hexagon
0.0,7.0,3.0,1.0,5.0,5.0,805.9860507491976,3.0,1.0,phase_2,stop,700.0,600.0,3.0,,,,,,,,,cyan,I
0.0,1.0,1.0,0.0,5.0,5.0,1087.737824767828,3.0,1.0,phase_2,go,650.0,600.0,1.0,,,,,,,,,green,triangle
0.0,1.0,1.0,0.0,6.0,6.0,356.8937282543629,3.0,1.0,phase_2,go,650.0,600.0,1.0,,,,,,,,,green,triangle
0.0,5.0,1.0,1.0,6.0,6.0,514.0473428182304,3.0,1.0,phase_2,go,650.0,600.0,1.0,,,,,,,,,orange,square
0.0,5.0,1.0,1.0,5.0,5.0,695.0060797389597,3.0,1.0,phase_2,stop,650.0,600.0,3.0,,,,,,,,,orange,square
0.0,8.0,4.0,1.0,6.0,0.0,0.0,3.0,1.0,phase_2,stop,600.0,600.0,4.0,,,,,,,,,yellow,flipped triangle
0.0,8.0,4.0,1.0,5.0,5.0,764.149994822219,3.0,1.0,phase_2,go,600.0,650.0,1.0,,,,,,,,,yellow,flipped triangle
0.0,1.0,1.0,0.0,5.0,5.0,496.5463543776423,3.0,1.0,phase_2,go,600.0,650.0,1.0,,,,,,,,,green,triangle
0.0,4.0,4.0,0.0,6.0,6.0,351.0429090820253,3.0,1.0,phase_2,go,600.0,650.0,1.0,,,,,,,,,white,cross
0.0,4.0,4.0,0.0,6.0,6.0,632.4035320430994,3.0,1.0,phase_2,go,600.0,650.0,1.0,,,,,,,,,white,cross
0.0,6.0,2.0,1.0,5.0,5.0,307.3644670657813,3.0,1.0,phase_2,stop,600.0,650.0,3.0,,,,,,,,,gray,hexagon
0.0,1.0,1.0,0.0,5.0,5.0,363.115296466276,3.0,1.0,phase_2,go,550.0,650.0,1.0,,,,,,,,,green,triangle
0.0,1.0,1.0,0.0,5.0,5.0,703.6098695825785,3.0,1.0,phase_2,go,550.0,650.0,1.0,,,,,,,,,green,triangle
0.0,4.0,4.0,0.0,5.0,5.0,308.37430711835617,3.0,1.0,phase_2,go,550.0,650.0,1.0,,,,,,,,,white,cross
0.0,7.0,3.0,1.0,5.0,5.0,400.833353633061,3.0,1.0,phase_2,stop,550.0,650.0,3.0,,,,,,,,,cyan,I
0.0,4.0,4.0,0.0,6.0,6.0,872.7736598812044,3.0,1.0,phase_2,go,500.0,650.0,1.0,,,,,,,,,white,cross
0.0,4.0,4.0,0.0,6.0,6.0,706.33605401963,3.0,1.0,phase_2,go,500.0,650.0,1.0,,,,,,,,,white,cross
0.0,3.0,3.0,0.0,5.0,5.0,773.6163081135601,3.0,1.0,phase_2,go,500.0,650.0,1.0,,,,,,,,,magenta,circle
0.0,2.0,2.0,0.0,5.0,5.0,437.9810215905309,3.0,1.0,phase_2,go,500.0,650.0,1.0,,,,,,,,,blue,diamond
0.0,8.0,4.0,1.0,5.0,5.0,494.3933808244765,3.0,1.0,phase_2,stop,500.0,650.0,3.0,,,,,,,,,yellow,flipped triangle
0.0,2.0,2.0,0.0,5.0,5.0,719.7225522249937,3.0,1.0,phase_2,go,450.0,650.0,1.0,,,,,,,,,blue,diamond
0.0,5.0,1.0,1.0,6.0,6.0,587.1970702428371,3.0,1.0,phase_2,stop,450.0,650.0,3.0,,,,,,,,,orange,square
0.0,2.0,2.0,0.0,6.0,6.0,1060.6554746627808,3.0,1.0,phase_2,go,450.0,600.0,1.0,,,,,,,,,blue,diamond
0.0,7.0,3.0,1.0,5.0,0.0,0.0,3.0,1.0,phase_2,stop,450.0,600.0,4.0,,,,,,,,,cyan,I
0.0,5.0,1.0,1.0,6.0,6.0,689.3964253831655,3.0,1.0,phase_2,stop,500.0,600.0,3.0,,,,,,,,,orange,square
0.0,4.0,4.0,0.0,6.0,6.0,758.9341434650123,3.0,1.0,phase_2,go,500.0,550.0,1.0,,,,,,,,,white,cross
0.0,3.0,3.0,0.0,5.0,5.0,771.434381371364,3.0,1.0,phase_2,go,500.0,550.0,1.0,,,,,,,,,magenta,circle
0.0,2.0,2.0,0.0,5.0,5.0,995.2192213386296,3.0,1.0,phase_2,go,500.0,550.0,1.0,,,,,,,,,blue,diamond
0.0,7.0,3.0,1.0,6.0,6.0,647.0729655120522,3.0,1.0,phase_2,go,500.0,550.0,1.0,,,,,,,,,cyan,I
0.0,6.0,2.0,1.0,5.0,5.0,1188.3074606303126,3.0,1.0,phase_2,stop,500.0,550.0,3.0,,,,,,,,,gray,hexagon
0.0,2.0,2.0,0.0,5.0,5.0,362.5468800310045,4.0,1.0,phase_2,go,450.0,550.0,1.0,,,,,,,,,blue,diamond
0.0,6.0,2.0,1.0,5.0,5.0,373.9350230898708,4.0,1.0,phase_2,stop,450.0,550.0,3.0,,,,,,,,,gray,hexagon
0.0,7.0,3.0,1.0,5.0,0.0,0.0,4.0,1.0,phase_2,stop,400.0,550.0,4.0,,,,,,,,,cyan,I
0.0,3.0,3.0,0.0,5.0,5.0,330.3288926836103,4.0,1.0,phase_2,go,450.0,550.0,1.0,,,,,,,,,magenta,circle
0.0,4.0,4.0,0.0,5.0,5.0,342.6551502197981,4.0,1.0,phase_2,go,450.0,550.0,1.0,,,,,,,,,white,cross
0.0,6.0,2.0,1.0,6.0,6.0,331.955021712929,4.0,1.0,phase_2,stop,450.0,550.0,3.0,,,,,,,,,gray,hexagon
0.0,1.0,1.0,0.0,5.0,5.0,298.9181352313608,4.0,1.0,phase_2,go,450.0,500.0,1.0,,,,,,,,,green,triangle
0.0,6.0,2.0,1.0,5.0,0.0,0.0,4.0,1.0,phase_2,stop,450.0,500.0,4.0,,,,,,,,,gray,hexagon
0.0,4.0,4.0,0.0,6.0,6.0,761.5931862965226,4.0,1.0,phase_2,go,500.0,500.0,1.0,,,,,,,,,white,cross
0.0,4.0,4.0,0.0,6.0,6.0,605.4477877914906,4.0,1.0,phase_2,go,500.0,500.0,1.0,,,,,,,,,white,cross
0.0,8.0,4.0,1.0,5.0,5.0,281.5650997217744,4.0,1.0,phase_2,stop,500.0,500.0,3.0,,,,,,,,,yellow,flipped triangle
0.0,4.0,4.0,0.0,5.0,5.0,752.8298301622272,4.0,1.0,phase_2,go,450.0,500.0,1.0,,,,,,,,,white,cross
0.0,1.0,1.0,0.0,5.0,5.0,361.1666797660291,4.0,1.0,phase_2,go,450.0,500.0,1.0,,,,,,,,,green,triangle
0.0,6.0,2.0,1.0,6.0,6.0,316.732166102156,4.0,1.0,phase_2,stop,450.0,500.0,3.0,,,,,,,,,gray,hexagon
0.0,5.0,1.0,1.0,5.0,5.0,385.9782901126891,4.0,1.0,phase_2,stop,450.0,450.0,3.0,,,,,,,,,orange,square
0.0,8.0,4.0,1.0,5.0,5.0,352.7674979995936,4.0,1.0,phase_2,go,400.0,450.0,1.0,,,,,,,,,yellow,flipped triangle
0.0,5.0,1.0,1.0,6.0,6.0,397.1405071206391,4.0,1.0,phase_2,go,400.0,450.0,1.0,,,,,,,,,orange,square
0.0,3.0,3.0,0.0,6.0,6.0,443.9007055480033,4.0,1.0,phase_2,go,400.0,450.0,1.0,,,,,,,,,magenta,circle
0.0,3.0,3.0,0.0,5.0,5.0,623.7085512839258,4.0,1.0,phase_2,go,400.0,450.0,1.0,,,,,,,,,magenta,circle
0.0,1.0,1.0,0.0,6.0,6.0,322.187301935628,4.0,1.0,phase_2,go,400.0,450.0,1.0,,,,,,,,,green,triangle
0.0,3.0,3.0,0.0,6.0,6.0,400.59335087426,4.0,1.0,phase_2,go,400.0,450.0,1.0,,,,,,,,,magenta,circle
0.0,4.0,4.0,0.0,5.0,5.0,356.4900676719844,4.0,1.0,phase_2,go,400.0,450.0,1.0,,,,,,,,,white,cross
0.0,5.0,1.0,1.0,6.0,6.0,514.9724944494665,4.0,1.0,phase_2,stop,400.0,450.0,3.0,,,,,,,,,orange,square
0.0,4.0,4.0,0.0,5.0,5.0,538.9777468517423,4.0,1.0,phase_2,go,400.0,400.0,1.0,,,,,,,,,white,cross
0.0,4.0,4.0,0.0,5.0,5.0,550.3700734116137,4.0,1.0,phase_2,go,400.0,400.0,1.0,,,,,,,,,white,cross
0.0,8.0,4.0,1.0,5.0,5.0,361.1475441139191,4.0,1.0,phase_2,stop,400.0,400.0,3.0,,,,,,,,,yellow,flipped triangle
0.0,2.0,2.0,0.0,6.0,6.0,350.6493063177913,4.0,1.0,phase_2,go,350.0,400.0,1.0,,,,,,,,,blue,diamond
0.0,7.0,3.0,1.0,6.0,0.0,0.0,4.0,1.0,phase_2,stop,350.0,400.0,4.0,,,,,,,,,cyan,I
0.0,4.0,4.0,0.0,6.0,6.0,575.8462925441563,4.0,1.0,phase_2,go,350.0,450.0,1.0,,,,,,,,,white,cross
0.0,5.0,1.0,1.0,5.0,5.0,443.2789881248027,4.0,1.0,phase_2,stop,350.0,450.0,3.0,,,,,,,,,orange,square
0.0,7.0,3.0,1.0,5.0,5.0,658.3602882456034,4.0,1.0,phase_2,go,300.0,450.0,1.0,,,,,,,,,cyan,I
0.0,6.0,2.0,1.0,6.0,6.0,365.5123992357403,4.0,1.0,phase_2,stop,300.0,450.0,3.0,,,,,,,,,gray,hexagon
0.0,4.0,4.0,0.0,5.0,5.0,828.4098273143172,4.0,1.0,phase_2,go,300.0,400.0,1.0,,,,,,,,,white,cross
0.0,7.0,3.0,1.0,6.0,6.0,434.2577089555561,4.0,1.0,phase_2,go,300.0,400.0,1.0,,,,,,,,,cyan,I
0.0,3.0,3.0,0.0,6.0,6.0,535.8424733858556,4.0,1.0,phase_2,go,300.0,400.0,1.0,,,,,,,,,magenta,circle
0.0,8.0,4.0,1.0,5.0,5.0,458.1482473295182,4.0,1.0,phase_2,stop,300.0,400.0,3.0,,,,,,,,,yellow,flipped triangle
0.0,6.0,2.0,1.0,5.0,5.0,361.2944325432181,5.0,1.0,phase_2,stop,250.0,400.0,3.0,,,,,,,,,gray,hexagon
0.0,1.0,1.0,0.0,6.0,6.0,620.9242548793554,5.0,1.0,phase_2,go,200.0,400.0,1.0,,,,,,,,,green,triangle
0.0,1.0,1.0,0.0,6.0,6.0,499.0234859287739,5.0,1.0,phase_2,go,200.0,400.0,1.0,,,,,,,,,green,triangle
0.0,7.0,3.0,1.0,6.0,0.0,0.0,5.0,1.0,phase_2,stop,200.0,400.0,4.0,,,,,,,,,cyan,I
0.0,3.0,3.0,0.0,6.0,6.0,915.051308227703,5.0,1.0,phase_2,go,200.0,450.0,1.0,,,,,,,,,magenta,circle
0.0,5.0,1.0,1.0,6.0,0.0,0.0,5.0,1.0,phase_2,stop,200.0,450.0,4.0,,,,,,,,,orange,square
0.0,3.0,3.0,0.0,5.0,5.0,658.6841433309019,5.0,1.0,phase_2,go,200.0,500.0,1.0,,,,,,,,,magenta,circle
0.0,8.0,4.0,1.0,6.0,0.0,0.0,5.0,1.0,phase_2,stop,200.0,500.0,4.0,,,,,,,,,yellow,flipped triangle
0.0,5.0,1.0,1.0,5.0,0.0,0.0,5.0,1.0,phase_2,stop,200.0,550.0,4.0,,,,,,,,,orange,square
0.0,3.0,3.0,0.0,5.0,5.0,741.1044423934072,5.0,1.0,phase_2,go,250.0,550.0,1.0,,,,,,,,,magenta,circle
0.0,4.0,4.0,0.0,5.0,5.0,661.4485029131174,5.0,1.0,phase_2,go,250.0,550.0,1.0,,,,,,,,,white,cross
0.0,2.0,2.0,0.0,6.0,6.0,707.2992045432329,5.0,1.0,phase_2,go,250.0,550.0,1.0,,,,,,,,,blue,diamond
0.0,2.0,2.0,0.0,6.0,6.0,427.3617330472916,5.0,1.0,phase_2,go,250.0,550.0,1.0,,,,,,,,,blue,diamond
0.0,5.0,1.0,1.0,6.0,6.0,608.1851932685822,5.0,1.0,phase_2,stop,250.0,550.0,3.0,,,,,,,,,orange,square
0.0,5.0,1.0,1.0,5.0,0.0,0.0,5.0,1.0,phase_2,stop,250.0,500.0,4.0,,,,,,,,,orange,square
0.0,8.0,4.0,1.0,6.0,6.0,475.6868404801935,5.0,1.0,phase_2,stop,300.0,500.0,3.0,,,,,,,,,yellow,flipped triangle
0.0,4.0,4.0,0.0,6.0,6.0,802.8286579065025,5.0,1.0,phase_2,go,300.0,450.0,1.0,,,,,,,,,white,cross
0.0,5.0,1.0,1.0,5.0,5.0,734.5163305290043,5.0,1.0,phase_2,go,300.0,450.0,1.0,,,,,,,,,orange,square
0.0,8.0,4.0,1.0,6.0,0.0,0.0,5.0,1.0,phase_2,stop,300.0,450.0,4.0,,,,,,,,,yellow,flipped triangle
0.0,2.0,2.0,0.0,5.0,5.0,905.8357533067464,5.0,1.0,phase_2,go,300.0,500.0,1.0,,,,,,,,,blue,diamond
0.0,7.0,3.0,1.0,5.0,5.0,579.638970317319,5.0,1.0,phase_2,stop,300.0,500.0,3.0,,,,,,,,,cyan,I
0.0,2.0,2.0,0.0,5.0,5.0,627.2973231971264,5.0,1.0,phase_2,go,250.0,500.0,1.0,,,,,,,,,blue,diamond
0.0,8.0,4.0,1.0,5.0,5.0,751.3055829331279,5.0,1.0,phase_2,stop,250.0,500.0,3.0,,,,,,,,,yellow,flipped triangle
0.0,2.0,2.0,0.0,6.0,6.0,425.8638576138764,5.0,1.0,phase_2,go,200.0,500.0,1.0,,,,,,,,,blue,diamond
0.0,1.0,1.0,0.0,5.0,5.0,438.6231997050345,5.0,1.0,phase_2,go,200.0,500.0,1.0,,,,,,,,,green,triangle
0.0,4.0,4.0,0.0,5.0,5.0,450.5000801291317,5.0,1.0,phase_2,go,200.0,500.0,1.0,,,,,,,,,white,cross
0.0,8.0,4.0,1.0,5.0,0.0,0.0,5.0,1.0,phase_2,stop,200.0,500.0,4.0,,,,,,,,,yellow,flipped triangle
0.0,5.0,1.0,1.0,5.0,0.0,0.0,5.0,1.0,phase_2,stop,250.0,500.0,4.0,,,,,,,,,orange,square
0.0,3.0,3.0,0.0,5.0,5.0,496.9749297015369,5.0,1.0,phase_2,go,300.0,500.0,1.0,,,,,,,,,magenta,circle
0.0,8.0,4.0,1.0,5.0,0.0,0.0,5.0,1.0,phase_2,stop,300.0,500.0,4.0,,,,,,,,,yellow,flipped triangle
0.0,6.0,2.0,1.0,5.0,0.0,0.0,5.0,1.0,phase_2,stop,350.0,500.0,4.0,,,,,,,,,gray,hexagon
0.0,2.0,2.0,0.0,6.0,6.0,601.4378808904439,5.0,1.0,phase_2,go,400.0,500.0,1.0,,,,,,,,,blue,diamond
0.0,2.0,2.0,0.0,5.0,5.0,668.3164848946035,5.0,1.0,phase_2,go,400.0,500.0,1.0,,,,,,,,,blue,diamond
0.0,3.0,3.0,0.0,5.0,5.0,388.5889127850532,5.0,1.0,phase_2,go,400.0,500.0,1.0,,,,,,,,,magenta,circle
0.0,4.0,4.0,0.0,5.0,5.0,435.473641147837,5.0,1.0,phase_2,go,400.0,500.0,1.0,,,,,,,,,white,cross
0.0,2.0,2.0,0.0,6.0,6.0,345.6720584072172,5.0,1.0,phase_2,go,400.0,500.0,1.0,,,,,,,,,blue,diamond
0.0,4.0,4.0,0.0,6.0,6.0,528.6406122613698,6.0,1.0,phase_2,go,400.0,500.0,1.0,,,,,,,,,white,cross
0.0,7.0,3.0,1.0,6.0,6.0,583.9410852640867,6.0,1.0,phase_2,stop,400.0,500.0,3.0,,,,,,,,,cyan,I
0.0,1.0,1.0,0.0,5.0,5.0,461.381543893367,6.0,1.0,phase_2,go,400.0,450.0,1.0,,,,,,,,,green,triangle
0.0,7.0,3.0,1.0,5.0,5.0,643.102448200807,6.0,1.0,phase_2,go,400.0,450.0,1.0,,,,,,,,,cyan,I
0.0,1.0,1.0,0.0,6.0,6.0,363.1463365163654,6.0,1.0,phase_2,go,400.0,450.0,1.0,,,,,,,,,green,triangle
0.0,3.0,3.0,0.0,6.0,6.0,363.6817061342299,6.0,1.0,phase_2,go,400.0,450.0,1.0,,,,,,,,,magenta,circle
0.0,5.0,1.0,1.0,5.0,5.0,398.328771116212,6.0,1.0,phase_2,stop,400.0,450.0,3.0,,,,,,,,,orange,square
0.0,2.0,2.0,0.0,5.0,5.0,601.0509813204408,6.0,1.0,phase_2,go,350.0,450.0,1.0,,,,,,,,,blue,diamond
0.0,6.0,2.0,1.0,5.0,5.0,488.960606046021,6.0,1.0,phase_2,stop,350.0,450.0,3.0,,,,,,,,,gray,hexagon
0.0,1.0,1.0,0.0,6.0,6.0,399.4830066803843,6.0,1.0,phase_2,go,300.0,450.0,1.0,,,,,,,,,green,triangle
0.0,6.0,2.0,1.0,5.0,5.0,456.6455848980695,6.0,1.0,phase_2,go,300.0,450.0,1.0,,,,,,,,,gray,hexagon
0.0,4.0,4.0,0.0,5.0,5.0,346.4598793070763,6.0,1.0,phase_2,go,300.0,450.0,1.0,,,,,,,,,white,cross
0.0,5.0,1.0,1.0,6.0,6.0,380.0233835354447,6.0,1.0,phase_2,stop,300.0,450.0,3.0,,,,,,,,,orange,square
0.0,8.0,4.0,1.0,5.0,5.0,357.9984782263636,6.0,1.0,phase_2,stop,300.0,400.0,3.0,,,,,,,,,yellow,flipped triangle
0.0,1.0,1.0,0.0,6.0,6.0,719.6107693016529,6.0,1.0,phase_2,go,250.0,400.0,1.0,,,,,,,,,green,triangle
0.0,3.0,3.0,0.0,5.0,5.0,596.2639125064015,6.0,1.0,phase_2,go,250.0,400.0,1.0,,,,,,,,,magenta,circle
0.0,3.0,3.0,0.0,6.0,6.0,507.09292641840875,6.0,1.0,phase_2,go,250.0,400.0,1.0,,,,,,,,,magenta,circle
0.0,6.0,2.0,1.0,6.0,6.0,406.1443479731679,6.0,1.0,phase_2,go,250.0,400.0,1.0,,,,,,,,,gray,hexagon
0.0,6.0,2.0,1.0,5.0,5.0,328.6248759832233,6.0,1.0,phase_2,stop,250.0,400.0,3.0,,,,,,,,,gray,hexagon
0.0,3.0,3.0,0.0,5.0,5.0,599.4756538420916,6.0,1.0,phase_2,go,200.0,400.0,1.0,,,,,,,,,magenta,circle
0.0,6.0,2.0,1.0,6.0,6.0,600.4173641558737,6.0,1.0,phase_2,go,200.0,400.0,1.0,,,,,,,,,gray,hexagon
0.0,7.0,3.0,1.0,6.0,0.0,0.0,6.0,1.0,phase_2,stop,200.0,400.0,4.0,,,,,,,,,cyan,I
0.0,6.0,2.0,1.0,5.0,5.0,400.2712741494179,6.0,1.0,phase_2,stop,200.0,450.0,3.0,,,,,,,,,gray,hexagon
0.0,2.0,2.0,0.0,6.0,6.0,332.0082523860037,6.0,1.0,phase_2,go,150.0,450.0,1.0,,,,,,,,,blue,diamond
0.0,6.0,2.0,1.0,6.0,6.0,402.3500576149672,6.0,1.0,phase_2,stop,150.0,450.0,3.0,,,,,,,,,gray,hexagon
0.0,7.0,3.0,1.0,5.0,5.0,312.9122308455407,6.0,1.0,phase_2,stop,150.0,400.0,3.0,,,,,,,,,cyan,I
0.0,3.0,3.0,0.0,6.0,6.0,324.4962913449853,6.0,1.0,phase_2,go,100.0,400.0,1.0,,,,,,,,,magenta,circle
0.0,7.0,3.0,1.0,6.0,6.0,411.1629703547805,6.0,1.0,phase_2,stop,100.0,400.0,3.0,,,,,,,,,cyan,I
0.0,4.0,4.0,0.0,6.0,6.0,371.3512697722763,6.0,1.0,phase_2,go,100.0,350.0,1.0,,,,,,,,,white,cross
0.0,8.0,4.0,1.0,6.0,0.0,0.0,6.0,1.0,phase_2,stop,100.0,350.0,4.0,,,,,,,,,yellow,flipped triangle
0.0,7.0,3.0,1.0,6.0,0.0,0.0,6.0,1.0,phase_2,stop,100.0,400.0,4.0,,,,,,,,,cyan,I
0.0,7.0,3.0,1.0,6.0,0.0,0.0,6.0,1.0,phase_2,stop,100.0,450.0,4.0,,,,,,,,,cyan,I
0.0,4.0,4.0,0.0,5.0,5.0,756.3240388408303,6.0,1.0,phase_2,go,100.0,500.0,1.0,,,,,,,,,white,cross
0.0,5.0,1.0,1.0,5.0,0.0,0.0,6.0,1.0,phase_2,stop,100.0,500.0,4.0,,,,,,,,,orange,square
0.0,5.0,1.0,1.0,6.0,0.0,0.0,6.0,1.0,phase_2,stop,150.0,500.0,4.0,,,,,,,,,orange,square
0.0,5.0,1.0,1.0,6.0,6.0,759.7382816020399,6.0,1.0,phase_2,go,150.0,550.0,1.0,,,,,,,,,orange,square
0.0,7.0,3.0,1.0,5.0,0.0,0.0,7.0,1.0,phase_2,stop,150.0,550.0,4.0,,,,,,,,,cyan,I
0.0,5.0,1.0,1.0,6.0,6.0,458.4503348451108,7.0,1.0,phase_2,stop,200.0,550.0,3.0,,,,,,,,,orange,square
0.0,6.0,2.0,1.0,6.0,6.0,561.3965666852891,7.0,1.0,phase_2,go,200.0,500.0,1.0,,,,,,,,,gray,hexagon
0.0,7.0,3.0,1.0,5.0,5.0,426.0942132677883,7.0,1.0,phase_2,go,200.0,500.0,1.0,,,,,,,,,cyan,I
0.0,5.0,1.0,1.0,6.0,6.0,697.1506923437119,7.0,1.0,phase_2,go,200.0,500.0,1.0,,,,,,,,,orange,square
0.0,5.0,1.0,1.0,5.0,5.0,372.2604436334222,7.0,1.0,phase_2,stop,200.0,500.0,3.0,,,,,,,,,orange,square
0.0,6.0,2.0,1.0,6.0,6.0,644.0263330005109,7.0,1.0,phase_2,stop,150.0,500.0,3.0,,,,,,,,,gray,hexagon
0.0,3.0,3.0,0.0,5.0,5.0,755.2619015332311,7.0,1.0,phase_2,go,150.0,450.0,1.0,,,,,,,,,magenta,circle
0.0,1.0,1.0,0.0,5.0,5.0,464.0948888845742,7.0,1.0,phase_2,go,150.0,450.0,1.0,,,,,,,,,green,triangle
0.0,4.0,4.0,0.0,6.0,6.0,441.6475880425423,7.0,1.0,phase_2,go,150.0,450.0,1.0,,,,,,,,,white,cross
0.0,3.0,3.0,0.0,5.0,5.0,476.8410502001643,7.0,1.0,phase_2,go,150.0,450.0,1.0,,,,,,,,,magenta,circle
0.0,7.0,3.0,1.0,5.0,5.0,546.5222070924938,7.0,1.0,phase_2,go,150.0,450.0,1.0,,,,,,,,,cyan,I
0.0,3.0,3.0,0.0,6.0,6.0,388.8658711221069,7.0,1.0,phase_2,go,150.0,450.0,1.0,,,,,,,,,magenta,circle
0.0,5.0,1.0,1.0,6.0,6.0,355.273301480338,7.0,1.0,phase_2,stop,150.0,450.0,3.0,,,,,,,,,orange,square
0.0,5.0,1.0,1.0,6.0,6.0,458.6675579193979,7.0,1.0,phase_2,go,150.0,400.0,1.0,,,,,,,,,orange,square
0.0,3.0,3.0,0.0,5.0,5.0,831.2548000831157,7.0,1.0,phase_2,go,150.0,400.0,1.0,,,,,,,,,magenta,circle
0.0,1.0,1.0,0.0,6.0,6.0,639.0870853792876,7.0,1.0,phase_2,go,150.0,400.0,1.0,,,,,,,,,green,triangle
0.0,8.0,4.0,1.0,5.0,5.0,516.0613148473203,7.0,1.0,phase_2,go,150.0,400.0,1.0,,,,,,,,,yellow,flipped triangle
0.0,8.0,4.0,1.0,5.0,0.0,0.0,7.0,1.0,phase_2,stop,150.0,400.0,4.0,,,,,,,,,yellow,flipped triangle
0.0,7.0,3.0,1.0,6.0,6.0,439.2445266712457,7.0,1.0,phase_2,stop,200.0,400.0,3.0,,,,,,,,,cyan,I
0.0,7.0,3.0,1.0,5.0,0.0,0.0,7.0,1.0,phase_2,stop,200.0,350.0,4.0,,,,,,,,,cyan,I
0.0,4.0,4.0,0.0,6.0,6.0,386.202682973817,7.0,1.0,phase_2,go,250.0,350.0,1.0,,,,,,,,,white,cross
0.0,6.0,2.0,1.0,5.0,5.0,734.1640777885914,7.0,1.0,phase_2,go,250.0,350.0,1.0,,,,,,,,,gray,hexagon
0.0,8.0,4.0,1.0,6.0,0.0,0.0,7.0,1.0,phase_2,stop,250.0,350.0,4.0,,,,,,,,,yellow,flipped triangle
0.0,7.0,3.0,1.0,6.0,6.0,386.8606821633875,7.0,1.0,phase_2,stop,250.0,400.0,3.0,,,,,,,,,cyan,I
0.0,1.0,1.0,0.0,5.0,5.0,445.3016540501266,7.0,1.0,phase_2,go,250.0,350.0,1.0,,,,,,,,,green,triangle
0.0,8.0,4.0,1.0,6.0,6.0,535.6240265537053,7.0,1.0,phase_2,go,250.0,350.0,1.0,,,,,,,,,yellow,flipped triangle
0.0,8.0,4.0,1.0,6.0,0.0,0.0,7.0,1.0,phase_2,stop,250.0,350.0,4.0,,,,,,,,,yellow,flipped triangle
0.0,1.0,1.0,0.0,5.0,5.0,615.2510500978678,7.0,1.0,phase_2,go,250.0,400.0,1.0,,,,,,,,,green,triangle
0.0,8.0,4.0,1.0,6.0,6.0,628.3371346071362,7.0,1.0,phase_2,go,250.0,400.0,1.0,,,,,,,,,yellow,flipped triangle
0.0,7.0,3.0,1.0,5.0,0.0,0.0,7.0,1.0,phase_2,stop,250.0,400.0,4.0,,,,,,,,,cyan,I
0.0,1.0,1.0,0.0,6.0,6.0,551.7986493650824,7.0,1.0,phase_2,go,300.0,400.0,1.0,,,,,,,,,green,triangle
0.0,8.0,4.0,1.0,6.0,0.0,0.0,7.0,1.0,phase_2,stop,300.0,400.0,4.0,,,,,,,,,yellow,flipped triangle
0.0,2.0,2.0,0.0,6.0,6.0,586.6620822343975,7.0,1.0,phase_2,go,300.0,450.0,1.0,,,,,,,,,blue,diamond
0.0,8.0,4.0,1.0,5.0,0.0,0.0,7.0,1.0,phase_2,stop,300.0,450.0,4.0,,,,,,,,,yellow,flipped triangle
0.0,5.0,1.0,1.0,5.0,5.0,643.6795615591109,7.0,1.0,phase_2,go,350.0,450.0,1.0,,,,,,,,,orange,square
0.0,3.0,3.0,0.0,6.0,6.0,476.7259387299418,8.0,1.0,phase_2,go,350.0,450.0,1.0,,,,,,,,,magenta,circle
0.0,8.0,4.0,1.0,5.0,0.0,0.0,8.0,1.0,phase_2,stop,350.0,450.0,4.0,,,,,,,,,yellow,flipped triangle
0.0,1.0,1.0,0.0,5.0,5.0,647.2025387920439,8.0,1.0,phase_2,go,400.0,450.0,1.0,,,,,,,,,green,triangle
0.0,6.0,2.0,1.0,5.0,5.0,424.0450784564018,8.0,1.0,phase_2,stop,400.0,450.0,3.0,,,,,,,,,gray,hexagon
0.0,5.0,1.0,1.0,6.0,6.0,605.6339859496802,8.0,1.0,phase_2,stop,350.0,450.0,3.0,,,,,,,,,orange,square
0.0,2.0,2.0,0.0,5.0,5.0,661.6919706575572,8.0,1.0,phase_2,go,350.0,400.0,1.0,,,,,,,,,blue,diamond
0.0,7.0,3.0,1.0,6.0,0.0,0.0,8.0,1.0,phase_2,stop,350.0,400.0,4.0,,,,,,,,,cyan,I
0.0,6.0,2.0,1.0,5.0,5.0,696.8171319458634,8.0,1.0,phase_2,go,350.0,450.0,1.0,,,,,,,,,gray,hexagon
0.0,4.0,4.0,0.0,5.0,5.0,652.8547895140946,8.0,1.0,phase_2,go,350.0,450.0,1.0,,,,,,,,,white,cross
0.0,2.0,2.0,0.0,5.0,5.0,609.3668169341981,8.0,1.0,phase_2,go,350.0,450.0,1.0,,,,,,,,,blue,diamond
0.0,5.0,1.0,1.0,6.0,6.0,497.2129184752702,8.0,1.0,phase_2,go,350.0,450.0,1.0,,,,,,,,,orange,square
0.0,7.0,3.0,1.0,6.0,6.0,520.2648811973631,8.0,1.0,phase_2,go,350.0,450.0,1.0,,,,,,,,,cyan,I
0.0,2.0,2.0,0.0,6.0,6.0,465.6324838288128,8.0,1.0,phase_2,go,350.0,450.0,1.0,,,,,,,,,blue,diamond
0.0,5.0,1.0,1.0,5.0,0.0,0.0,8.0,1.0,phase_2,stop,350.0,450.0,4.0,,,,,,,,,orange,square
0.0,2.0,2.0,0.0,5.0,5.0,770.3786487691104,8.0,1.0,phase_2,go,400.0,450.0,1.0,,,,,,,,,blue,diamond
0.0,1.0,1.0,0.0,6.0,6.0,624.3248949758708,8.0,1.0,phase_2,go,400.0,450.0,1.0,,,,,,,,,green,triangle
0.0,2.0,2.0,0.0,6.0,6.0,435.8118744567036,8.0,1.0,phase_2,go,400.0,450.0,1.0,,,,,,,,,blue,diamond
0.0,1.0,1.0,0.0,5.0,5.0,367.5083613488823,8.0,1.0,phase_2,go,400.0,450.0,1.0,,,,,,,,,green,triangle
0.0,6.0,2.0,1.0,6.0,6.0,336.2025576643646,8.0,1.0,phase_2,go,400.0,450.0,1.0,,,,,,,,,gray,hexagon
0.0,2.0,2.0,0.0,6.0,6.0,449.3836513720453,8.0,1.0,phase_2,go,400.0,450.0,1.0,,,,,,,,,blue,diamond
0.0,5.0,1.0,1.0,5.0,5.0,348.0197319295257,8.0,1.0,phase_2,stop,400.0,450.0,3.0,,,,,,,,,orange,square
0.0,4.0,4.0,0.0,6.0,6.0,675.3822264727205,8.0,1.0,phase_2,go,350.0,450.0,1.0,,,,,,,,,white,cross
0.0,5.0,1.0,1.0,5.0,5.0,664.360832888633,8.0,1.0,phase_2,go,350.0,450.0,1.0,,,,,,,,,orange,square
0.0,1.0,1.0,0.0,6.0,6.0,509.24436864443123,8.0,1.0,phase_2,go,350.0,450.0,1.0,,,,,,,,,green,triangle
0.0,1.0,1.0,0.0,6.0,6.0,396.7086230404675,8.0,1.0,phase_2,go,350.0,450.0,1.0,,,,,,,,,green,triangle
0.0,3.0,3.0,0.0,6.0,6.0,542.6934745628387,8.0,1.0,phase_2,go,350.0,450.0,1.0,,,,,,,,,magenta,circle
0.0,5.0,1.0,1.0,5.0,5.0,487.797015113756,8.0,1.0,phase_2,stop,350.0,450.0,3.0,,,,,,,,,orange,square
0.0,7.0,3.0,1.0,6.0,6.0,296.5868930332362,8.0,1.0,phase_2,stop,300.0,450.0,3.0,,,,,,,,,cyan,I
0.0,4.0,4.0,0.0,5.0,5.0,670.0720656663179,8.0,1.0,phase_2,go,300.0,400.0,1.0,,,,,,,,,white,cross
0.0,3.0,3.0,0.0,5.0,5.0,739.3995907623321,8.0,1.0,phase_2,go,300.0,400.0,1.0,,,,,,,,,magenta,circle
0.0,1.0,1.0,0.0,5.0,5.0,492.3780488315969,8.0,1.0,phase_2,go,300.0,400.0,1.0,,,,,,,,,green,triangle
0.0,6.0,2.0,1.0,6.0,6.0,795.1335043180734,8.0,1.0,phase_2,go,300.0,400.0,1.0,,,,,,,,,gray,hexagon
0.0,6.0,2.0,1.0,5.0,0.0,0.0,8.0,1.0,phase_2,stop,300.0,400.0,4.0,,,,,,,,,gray,hexagon
0.0,2.0,2.0,0.0,6.0,6.0,437.9611655604094,8.0,1.0,phase_2,go,350.0,400.0,1.0,,,,,,,,,blue,diamond
0.0,6.0,2.0,1.0,6.0,0.0,0.0,8.0,1.0,phase_2,stop,350.0,400.0,4.0,,,,,,,,,gray,hexagon
0.0,3.0,3.0,0.0,6.0,6.0,742.6315124612302,8.0,1.0,phase_2,go,350.0,450.0,1.0,,,,,,,,,magenta,circle
0.0,6.0,2.0,1.0,7.0,2.0,4573.00884462893,1.0,1.0,phase_3,,,,,102.0,3.0,170.0,102.0,204.0,136.0,68.0,34.0,gray,hexagon
0.0,2.0,2.0,0.0,7.0,5.0,2180.825428571552,1.0,1.0,phase_3,,,,,204.0,6.0,68.0,102.0,136.0,170.0,204.0,34.0,blue,diamond
0.0,4.0,4.0,0.0,7.0,5.0,2461.94856078364,1.0,1.0,phase_3,,,,,324.0,6.0,54.0,162.0,216.0,108.0,324.0,270.0,white,cross
0.0,6.0,2.0,1.0,7.0,5.0,2046.8830838799481,1.0,1.0,phase_3,,,,,78.0,2.0,156.0,117.0,195.0,39.0,78.0,234.0,gray,hexagon
0.0,7.0,3.0,1.0,7.0,2.0,1991.6171319782732,1.0,1.0,phase_3,,,,,98.0,2.0,147.0,98.0,294.0,49.0,196.0,245.0,cyan,I
0.0,8.0,4.0,1.0,7.0,3.0,2590.5238937120885,1.0,1.0,phase_3,,,,,204.0,6.0,170.0,136.0,204.0,34.0,68.0,102.0,yellow,flipped triangle
0.0,5.0,1.0,1.0,7.0,2.0,1241.135361371562,1.0,1.0,phase_3,,,,,34.0,1.0,68.0,34.0,170.0,204.0,102.0,136.0,orange,square
0.0,4.0,4.0,0.0,7.0,5.0,2479.341534199193,1.0,1.0,phase_3,,,,,204.0,6.0,102.0,34.0,170.0,136.0,204.0,68.0,white,cross
0.0,1.0,1.0,0.0,7.0,1.0,3909.204184310511,1.0,1.0,phase_3,,,,,156.0,4.0,156.0,78.0,117.0,39.0,234.0,195.0,green,triangle
0.0,7.0,3.0,1.0,7.0,6.0,2491.9655066914856,1.0,1.0,phase_3,,,,,117.0,3.0,39.0,195.0,156.0,78.0,234.0,117.0,cyan,I
0.0,3.0,3.0,0.0,7.0,2.0,3224.229038693011,1.0,1.0,phase_3,,,,,108.0,2.0,216.0,108.0,54.0,270.0,324.0,162.0,magenta,circle
0.0,7.0,3.0,1.0,7.0,2.0,2280.529869021848,1.0,1.0,phase_3,,,,,162.0,3.0,108.0,162.0,216.0,270.0,324.0,54.0,cyan,I
0.0,2.0,2.0,0.0,7.0,3.0,1561.2289907876402,1.0,1.0,phase_3,,,,,156.0,4.0,234.0,117.0,156.0,195.0,39.0,78.0,blue,diamond
0.0,6.0,2.0,1.0,7.0,2.0,1191.2587953265756,1.0,1.0,phase_3,,,,,54.0,1.0,270.0,54.0,162.0,324.0,216.0,108.0,gray,hexagon
0.0,2.0,2.0,0.0,7.0,2.0,617.2117528039962,1.0,2.0,phase_3,,,,,162.0,3.0,270.0,162.0,324.0,108.0,216.0,54.0,blue,diamond
0.0,5.0,1.0,1.0,7.0,2.0,2089.9167242459957,1.0,1.0,phase_3,,,,,88.0,2.0,132.0,88.0,220.0,264.0,44.0,176.0,orange,square
0.0,4.0,4.0,0.0,7.0,1.0,2283.780068391934,1.0,1.0,phase_3,,,,,234.0,6.0,234.0,39.0,117.0,195.0,78.0,156.0,white,cross
0.0,7.0,3.0,1.0,7.0,4.0,2093.095120275393,1.0,1.0,phase_3,,,,,102.0,3.0,204.0,170.0,34.0,102.0,68.0,136.0,cyan,I
0.0,4.0,4.0,0.0,7.0,6.0,2049.0969789680094,1.0,1.0,phase_3,,,,,294.0,6.0,98.0,245.0,196.0,49.0,147.0,294.0,white,cross
0.0,3.0,3.0,0.0,7.0,5.0,1677.99567617476,1.0,1.0,phase_3,,,,,98.0,2.0,294.0,49.0,196.0,147.0,98.0,245.0,magenta,circle
0.0,1.0,1.0,0.0,7.0,1.0,2258.4962882101536,2.0,1.0,phase_3,,,,,220.0,5.0,220.0,88.0,44.0,176.0,264.0,132.0,green,triangle
0.0,8.0,4.0,1.0,7.0,5.0,2348.236674675718,2.0,1.0,phase_3,,,,,220.0,5.0,88.0,132.0,264.0,176.0,220.0,44.0,yellow,flipped triangle
0.0,5.0,1.0,1.0,7.0,6.0,2507.6831041369587,2.0,1.0,phase_3,,,,,34.0,1.0,102.0,68.0,136.0,204.0,170.0,34.0,orange,square
0.0,6.0,2.0,1.0,7.0,5.0,2205.408640904352,2.0,1.0,phase_3,,,,,98.0,2.0,245.0,147.0,196.0,294.0,98.0,49.0,gray,hexagon
0.0,2.0,2.0,0.0,7.0,3.0,1440.025765681639,2.0,1.0,phase_3,,,,,88.0,2.0,132.0,44.0,88.0,176.0,220.0,264.0,blue,diamond
0.0,8.0,4.0,1.0,7.0,2.0,3130.3859057370573,2.0,1.0,phase_3,,,,,234.0,6.0,39.0,234.0,156.0,117.0,195.0,78.0,yellow,flipped triangle
0.0,2.0,2.0,0.0,7.0,4.0,2141.3699176628143,2.0,1.0,phase_3,,,,,234.0,6.0,78.0,156.0,117.0,234.0,39.0,195.0,blue,diamond
0.0,1.0,1.0,0.0,7.0,5.0,1510.529477149248,2.0,1.0,phase_3,,,,,170.0,5.0,68.0,204.0,136.0,102.0,170.0,34.0,green,triangle
0.0,6.0,2.0,1.0,7.0,2.0,2154.5254341326654,2.0,1.0,phase_3,,,,,34.0,1.0,136.0,34.0,102.0,170.0,68.0,204.0,gray,hexagon
0.0,1.0,1.0,0.0,7.0,5.0,1108.4425812587142,2.0,1.0,phase_3,,,,,117.0,3.0,234.0,156.0,195.0,39.0,117.0,78.0,green,triangle
0.0,1.0,1.0,0.0,7.0,1.0,1558.9929383713752,2.0,1.0,phase_3,,,,,324.0,6.0,324.0,108.0,54.0,270.0,216.0,162.0,green,triangle
0.0,6.0,2.0,1.0,7.0,6.0,1357.4451496824622,2.0,1.0,phase_3,,,,,216.0,4.0,108.0,162.0,324.0,54.0,270.0,216.0,gray,hexagon
0.0,4.0,4.0,0.0,7.0,2.0,2010.9548987820745,2.0,1.0,phase_3,,,,,204.0,6.0,170.0,204.0,34.0,102.0,68.0,136.0,white,cross
0.0,5.0,1.0,1.0,7.0,2.0,1271.7162605840713,2.0,1.0,phase_3,,,,,54.0,1.0,270.0,54.0,108.0,324.0,216.0,162.0,orange,square
0.0,2.0,2.0,0.0,7.0,4.0,2035.9349919017404,2.0,1.0,phase_3,,,,,108.0,2.0,162.0,216.0,324.0,108.0,54.0,270.0,blue,diamond
0.0,8.0,4.0,1.0,7.0,3.0,1588.029732229188,2.0,1.0,phase_3,,,,,88.0,2.0,220.0,176.0,88.0,264.0,132.0,44.0,yellow,flipped triangle
0.0,4.0,4.0,0.0,7.0,5.0,1520.7817293703556,2.0,1.0,phase_3,,,,,98.0,2.0,196.0,49.0,147.0,245.0,98.0,294.0,white,cross
0.0,7.0,3.0,1.0,7.0,5.0,1737.443508580327,2.0,1.0,phase_3,,,,,98.0,2.0,245.0,196.0,147.0,294.0,98.0,49.0,cyan,I
0.0,2.0,2.0,0.0,7.0,4.0,3098.596030846238,2.0,1.0,phase_3,,,,,44.0,1.0,264.0,220.0,132.0,44.0,88.0,176.0,blue,diamond
0.0,3.0,3.0,0.0,7.0,1.0,1884.6838267054409,2.0,1.0,phase_3,,,,,78.0,2.0,78.0,156.0,39.0,195.0,117.0,234.0,magenta,circle
0.0,4.0,4.0,0.0,7.0,6.0,1806.696936488152,3.0,1.0,phase_3,,,,,264.0,6.0,88.0,132.0,44.0,220.0,176.0,264.0,white,cross
0.0,7.0,3.0,1.0,7.0,5.0,796.333790756762,3.0,1.0,phase_3,,,,,68.0,2.0,102.0,34.0,136.0,170.0,68.0,204.0,cyan,I
0.0,4.0,4.0,0.0,7.0,4.0,1854.4894855003804,3.0,1.0,phase_3,,,,,234.0,6.0,117.0,78.0,156.0,234.0,39.0,195.0,white,cross
0.0,5.0,1.0,1.0,7.0,3.0,1449.343022191897,3.0,1.0,phase_3,,,,,49.0,1.0,245.0,196.0,49.0,98.0,147.0,294.0,orange,square
0.0,5.0,1.0,1.0,7.0,1.0,1889.3551798537371,3.0,1.0,phase_3,,,,,54.0,1.0,54.0,324.0,108.0,270.0,216.0,162.0,orange,square
0.0,3.0,3.0,0.0,7.0,4.0,2206.916953669861,3.0,1.0,phase_3,,,,,68.0,2.0,102.0,170.0,204.0,68.0,136.0,34.0,magenta,circle
0.0,6.0,2.0,1.0,7.0,1.0,1554.9450754188,3.0,1.0,phase_3,,,,,44.0,1.0,44.0,132.0,220.0,264.0,176.0,88.0,gray,hexagon
0.0,4.0,4.0,0.0,7.0,2.0,2726.473980816081,3.0,1.0,phase_3,,,,,264.0,6.0,132.0,264.0,220.0,176.0,44.0,88.0,white,cross
0.0,3.0,3.0,0.0,7.0,2.0,2569.1609433852136,3.0,1.0,phase_3,,,,,270.0,5.0,54.0,270.0,108.0,324.0,162.0,216.0,magenta,circle
0.0,1.0,1.0,0.0,7.0,5.0,4393.565769540146,3.0,1.0,phase_3,,,,,54.0,1.0,324.0,108.0,270.0,162.0,54.0,216.0,green,triangle
0.0,5.0,1.0,1.0,7.0,3.0,1952.7229669038209,3.0,1.0,phase_3,,,,,39.0,1.0,117.0,234.0,39.0,78.0,156.0,195.0,orange,square
0.0,2.0,2.0,0.0,7.0,5.0,1896.71073644422,3.0,1.0,phase_3,,,,,98.0,2.0,147.0,196.0,245.0,294.0,98.0,49.0,blue,diamond
0.0,5.0,1.0,1.0,7.0,3.0,2281.489136861637,3.0,1.0,phase_3,,,,,294.0,6.0,245.0,98.0,294.0,196.0,147.0,49.0,orange,square
0.0,8.0,4.0,1.0,7.0,3.0,2271.9274300616235,3.0,1.0,phase_3,,,,,245.0,5.0,98.0,49.0,245.0,294.0,147.0,196.0,yellow,flipped triangle
0.0,3.0,3.0,0.0,7.0,5.0,1653.3044893294573,3.0,1.0,phase_3,,,,,117.0,3.0,195.0,234.0,156.0,78.0,117.0,39.0,magenta,circle
0.0,3.0,3.0,0.0,7.0,2.0,2442.248013103381,3.0,1.0,phase_3,,,,,147.0,3.0,98.0,147.0,49.0,294.0,196.0,245.0,magenta,circle
0.0,5.0,1.0,1.0,7.0,6.0,2554.82287844643,3.0,1.0,phase_3,,,,,78.0,2.0,156.0,234.0,117.0,195.0,39.0,78.0,orange,square
0.0,7.0,3.0,1.0,7.0,4.0,1375.872866017744,3.0,1.0,phase_3,,,,,88.0,2.0,44.0,264.0,132.0,88.0,176.0,220.0,cyan,I
0.0,3.0,3.0,0.0,7.0,4.0,1184.9752359557897,3.0,1.0,phase_3,,,,,44.0,1.0,220.0,176.0,132.0,44.0,264.0,88.0,magenta,circle
0.0,3.0,3.0,0.0,7.0,4.0,938.0726427771152,3.0,1.0,phase_3,,,,,176.0,4.0,44.0,264.0,88.0,176.0,132.0,220.0,magenta,circle
0.0,6.0,2.0,1.0,7.0,6.0,1468.339395010844,4.0,1.0,phase_3,,,,,98.0,2.0,294.0,245.0,196.0,147.0,49.0,98.0,gray,hexagon
0.0,7.0,3.0,1.0,7.0,1.0,1862.6508975867184,4.0,1.0,phase_3,,,,,88.0,2.0,88.0,176.0,264.0,132.0,220.0,44.0,cyan,I
0.0,8.0,4.0,1.0,7.0,2.0,2652.9904664494097,4.0,1.0,phase_3,,,,,294.0,6.0,196.0,294.0,98.0,245.0,147.0,49.0,yellow,flipped triangle
0.0,7.0,3.0,1.0,7.0,4.0,1730.1913821138442,4.0,1.0,phase_3,,,,,117.0,3.0,195.0,39.0,234.0,117.0,78.0,156.0,cyan,I
0.0,8.0,4.0,1.0,7.0,6.0,2272.475002333522,4.0,1.0,phase_3,,,,,234.0,6.0,156.0,39.0,117.0,78.0,195.0,234.0,yellow,flipped triangle
0.0,3.0,3.0,0.0,7.0,2.0,2093.3369882404804,4.0,1.0,phase_3,,,,,102.0,3.0,136.0,102.0,34.0,204.0,170.0,68.0,magenta,circle
0.0,5.0,1.0,1.0,7.0,1.0,1732.8377442900091,4.0,1.0,phase_3,,,,,132.0,3.0,132.0,220.0,88.0,44.0,176.0,264.0,orange,square
0.0,6.0,2.0,1.0,7.0,6.0,1859.9605152849108,4.0,1.0,phase_3,,,,,44.0,1.0,132.0,176.0,264.0,220.0,88.0,44.0,gray,hexagon
0.0,1.0,1.0,0.0,7.0,4.0,1555.7934746611863,4.0,1.0,phase_3,,,,,102.0,3.0,68.0,136.0,204.0,102.0,34.0,170.0,green,triangle
0.0,4.0,4.0,0.0,7.0,6.0,1928.3982352353632,4.0,1.0,phase_3,,,,,324.0,6.0,162.0,54.0,270.0,108.0,216.0,324.0,white,cross
0.0,6.0,2.0,1.0,7.0,3.0,2254.8748964909464,4.0,1.0,phase_3,,,,,78.0,2.0,195.0,117.0,78.0,39.0,234.0,156.0,gray,hexagon
0.0,1.0,1.0,0.0,7.0,1.0,1638.5733424685895,4.0,1.0,phase_3,,,,,49.0,1.0,49.0,196.0,294.0,147.0,245.0,98.0,green,triangle
0.0,2.0,2.0,0.0,7.0,3.0,1796.4426113758236,4.0,1.0,phase_3,,,,,136.0,4.0,102.0,68.0,136.0,34.0,170.0,204.0,blue,diamond
0.0,1.0,1.0,0.0,7.0,6.0,2856.207297183573,4.0,1.0,phase_3,,,,,44.0,1.0,88.0,264.0,132.0,176.0,220.0,44.0,green,triangle
0.0,2.0,2.0,0.0,7.0,3.0,1100.3176395315677,4.0,1.0,phase_3,,,,,98.0,2.0,245.0,294.0,98.0,49.0,147.0,196.0,blue,diamond
0.0,8.0,4.0,1.0,7.0,5.0,1371.537424158305,4.0,1.0,phase_3,,,,,270.0,5.0,108.0,324.0,54.0,216.0,270.0,162.0,yellow,flipped triangle
0.0,8.0,4.0,1.0,7.0,4.0,1531.738106859848,4.0,1.0,phase_3,,,,,324.0,6.0,54.0,162.0,108.0,324.0,270.0,216.0,yellow,flipped triangle
0.0,8.0,4.0,1.0,7.0,6.0,1812.3673282098025,4.0,1.0,phase_3,,,,,204.0,6.0,136.0,170.0,102.0,34.0,68.0,204.0,yellow,flipped triangle
0.0,7.0,3.0,1.0,7.0,3.0,2871.222989168018,4.0,1.0,phase_3,,,,,54.0,1.0,108.0,324.0,54.0,162.0,216.0,270.0,cyan,I
0.0,1.0,1.0,0.0,7.0,2.0,2367.6697437185794,4.0,1.0,phase_3,,,,,98.0,2.0,245.0,98.0,196.0,49.0,294.0,147.0,green,triangle
