raw_reward_magnitude,stim_reward,stepwise_reward_magnitude,paired_with_stopping,stim_location,response,reaction_time,block,num_trial_presentations,which_phase,stop_signal_trial_type,left_SSD,right_SSD,accuracy,chosen_bidding_amount,chosen_bidding_level,possible_bid_1,possible_bid_2,possible_bid_3,possible_bid_4,possible_bid_5,possible_bid_6,color_text,shape_text
205.0,3.0,3.0,0.0,3.0,3.0,326.8069107289193,1.0,1.0,phase_1,,,,,,,,,,,,,magenta,I
51.0,5.0,1.0,1.0,4.0,4.0,293.3438454347197,1.0,1.0,phase_1,,,,,,,,,,,,,cyan,circle
0.0,8.0,0.0,1.0,1.0,1.0,329.756649225601,1.0,2.0,phase_1,,,,,,,,,,,,,gray,hexagon
380.0,4.0,4.0,0.0,2.0,2.0,385.7731454918394,1.0,2.0,phase_1,,,,,,,,,,,,,blue,cross
201.0,7.0,3.0,1.0,3.0,3.0,420.5177681506029,1.0,1.0,phase_1,,,,,,,,,,,,,green,triangle
0.0,2.0,0.0,0.0,4.0,4.0,354.0402024373179,1.0,1.0,phase_1,,,,,,,,,,,,,white,flipped triangle
69.0,5.0,1.0,1.0,2.0,2.0,431.9420832907781,1.0,1.0,phase_1,,,,,,,,,,,,,cyan,circle
77.0,2.0,2.0,0.0,1.0,1.0,378.1998864360503,1.0,1.0,phase_1,,,,,,,,,,,,,white,flipped triangle
0.0,4.0,0.0,0.0,1.0,1.0,331.9813288544537,1.0,1.0,phase_1,,,,,,,,,,,,,blue,cross
124.0,2.0,2.0,0.0,2.0,2.0,287.3815717321122,1.0,1.0,phase_1,,,,,,,,,,,,,white,flipped triangle
57.0,1.0,1.0,0.0,1.0,1.0,356.1674248849158,1.0,1.0,phase_1,,,,,,,,,,,,,yellow,diamond
191.0,7.0,3.0,1.0,2.0,2.0,279.3144292954821,1.0,1.0,phase_1,,,,,,,,,,,,,green,triangle
176.0,7.0,3.0,1.0,4.0,4.0,582.0646212960128,1.0,1.0,phase_1,,,,,,,,,,,,,green,triangle
415.0,4.0,4.0,0.0,4.0,4.0,346.8274591796216,1.0,1.0,phase_1,,,,,,,,,,,,,blue,cross
0.0,3.0,0.0,0.0,1.0,1.0,256.6631058798521,1.0,1.0,phase_1,,,,,,,,,,,,,magenta,I
424.0,4.0,4.0,0.0,3.0,3.0,505.73132858698955,1.0,3.0,phase_1,,,,,,,,,,,,,blue,cross
206.0,3.0,3.0,0.0,3.0,3.0,449.902935004502,1.0,1.0,phase_1,,,,,,,,,,,,,magenta,I
113.0,6.0,2.0,1.0,4.0,4.0,361.9643471756717,1.0,1.0,phase_1,,,,,,,,,,,,,orange,square
0.0,7.0,0.0,1.0,2.0,2.0,372.6029558820301,1.0,1.0,phase_1,,,,,,,,,,,,,green,triangle
33.0,1.0,1.0,0.0,4.0,4.0,385.1679621802759,1.0,1.0,phase_1,,,,,,,,,,,,,yellow,diamond
31.0,5.0,1.0,1.0,4.0,4.0,329.0820838810759,1.0,1.0,phase_1,,,,,,,,,,,,,cyan,circle
77.0,6.0,2.0,1.0,1.0,1.0,510.1233578825486,1.0,2.0,phase_1,,,,,,,,,,,,,orange,square
218.0,7.0,3.0,1.0,4.0,4.0,399.0127483193646,1.0,1.0,phase_1,,,,,,,,,,,,,green,triangle
416.0,8.0,4.0,1.0,3.0,3.0,399.4793340316391,1.0,1.0,phase_1,,,,,,,,,,,,,gray,hexagon
399.0,8.0,4.0,1.0,2.0,2.0,332.3597463167971,1.0,1.0,phase_1,,,,,,,,,,,,,gray,hexagon
80.0,2.0,2.0,0.0,1.0,1.0,311.1929051738116,1.0,1.0,phase_1,,,,,,,,,,,,,white,flipped triangle
94.0,2.0,2.0,0.0,1.0,1.0,366.0858054427081,1.0,1.0,phase_1,,,,,,,,,,,,,white,flipped triangle
92.0,2.0,2.0,0.0,1.0,1.0,310.4875941498903,1.0,1.0,phase_1,,,,,,,,,,,,,white,flipped triangle
0.0,1.0,0.0,0.0,1.0,1.0,299.7878174355719,1.0,1.0,phase_1,,,,,,,,,,,,,yellow,diamond
185.0,3.0,3.0,0.0,3.0,3.0,344.7196302950033,1.0,1.0,phase_1,,,,,,,,,,,,,magenta,I
0.0,5.0,0.0,1.0,4.0,4.0,391.036487177189,1.0,1.0,phase_1,,,,,,,,,,,,,cyan,circle
61.0,1.0,1.0,0.0,1.0,1.0,290.5810711745289,1.0,1.0,phase_1,,,,,,,,,,,,,yellow,diamond
184.0,3.0,3.0,0.0,1.0,1.0,303.757285582833,1.0,1.0,phase_1,,,,,,,,,,,,,magenta,I
0.0,8.0,0.0,1.0,2.0,2.0,381.2418601446552,1.0,1.0,phase_1,,,,,,,,,,,,,gray,hexagon
415.0,4.0,4.0,0.0,1.0,1.0,461.4021947345463,1.0,1.0,phase_1,,,,,,,,,,,,,blue,cross
0.0,6.0,0.0,1.0,2.0,2.0,293.0793462946894,1.0,1.0,phase_1,,,,,,,,,,,,,orange,square
36.0,1.0,1.0,0.0,3.0,3.0,372.9225100032636,1.0,1.0,phase_1,,,,,,,,,,,,,yellow,diamond
0.0,4.0,0.0,0.0,4.0,4.0,339.7296921466477,1.0,1.0,phase_1,,,,,,,,,,,,,blue,cross
394.0,4.0,4.0,0.0,4.0,4.0,383.5417512964341,1.0,1.0,phase_1,,,,,,,,,,,,,blue,cross
220.0,3.0,3.0,0.0,4.0,4.0,305.1695861722692,1.0,1.0,phase_1,,,,,,,,,,,,,magenta,I
220.0,7.0,3.0,1.0,3.0,3.0,352.0248904387699,1.0,1.0,phase_1,,,,,,,,,,,,,green,triangle
198.0,3.0,3.0,0.0,3.0,3.0,318.9045095787151,1.0,1.0,phase_1,,,,,,,,,,,,,magenta,I
207.0,3.0,3.0,0.0,2.0,2.0,352.5621004373533,1.0,1.0,phase_1,,,,,,,,,,,,,magenta,I
378.0,4.0,4.0,0.0,2.0,2.0,410.2640411801985,1.0,1.0,phase_1,,,,,,,,,,,,,blue,cross
96.0,6.0,2.0,1.0,4.0,4.0,522.766118432628,1.0,1.0,phase_1,,,,,,,,,,,,,orange,square
100.0,2.0,2.0,0.0,3.0,3.0,354.7265043016523,1.0,1.0,phase_1,,,,,,,,,,,,,white,flipped triangle
47.0,5.0,1.0,1.0,4.0,4.0,298.1581898784498,1.0,1.0,phase_1,,,,,,,,,,,,,cyan,circle
104.0,6.0,2.0,1.0,1.0,1.0,368.3610607331502,1.0,1.0,phase_1,,,,,,,,,,,,,orange,square
96.0,2.0,2.0,0.0,2.0,2.0,288.8126291509252,1.0,1.0,phase_1,,,,,,,,,,,,,white,flipped triangle
0.0,2.0,0.0,0.0,1.0,1.0,313.308084885648,1.0,2.0,phase_1,,,,,,,,,,,,,white,flipped triangle
200.0,3.0,3.0,0.0,2.0,2.0,335.0141722985427,1.0,1.0,phase_1,,,,,,,,,,,,,magenta,I
0.0,5.0,0.0,1.0,1.0,1.0,403.1663578789448,1.0,1.0,phase_1,,,,,,,,,,,,,cyan,circle
409.0,4.0,4.0,0.0,1.0,1.0,336.2743925827089,1.0,1.0,phase_1,,,,,,,,,,,,,blue,cross
59.0,1.0,1.0,0.0,1.0,1.0,292.1823862925521,1.0,1.0,phase_1,,,,,,,,,,,,,yellow,diamond
0.0,3.0,0.0,0.0,4.0,4.0,292.0958487302414,1.0,2.0,phase_1,,,,,,,,,,,,,magenta,I
223.0,3.0,3.0,0.0,4.0,4.0,282.7032862987835,1.0,1.0,phase_1,,,,,,,,,,,,,magenta,I
0.0,8.0,0.0,1.0,4.0,4.0,361.253649876744,1.0,1.0,phase_1,,,,,,,,,,,,,gray,hexagon
61.0,5.0,1.0,1.0,1.0,1.0,520.1020552995033,1.0,1.0,phase_1,,,,,,,,,,,,,cyan,circle
187.0,3.0,3.0,0.0,1.0,1.0,463.4937914306647,1.0,1.0,phase_1,,,,,,,,,,,,,magenta,I
221.0,3.0,3.0,0.0,1.0,1.0,375.7187008814071,1.0,1.0,phase_1,,,,,,,,,,,,,magenta,I
207.0,7.0,3.0,1.0,1.0,1.0,466.13101814728,1.0,1.0,phase_1,,,,,,,,,,,,,green,triangle
65.0,1.0,1.0,0.0,3.0,3.0,421.0479510002187,1.0,1.0,phase_1,,,,,,,,,,,,,yellow,diamond
424.0,8.0,4.0,1.0,1.0,1.0,411.3943415795802,1.0,1.0,phase_1,,,,,,,,,,,,,gray,hexagon
0.0,5.0,0.0,1.0,3.0,3.0,400.3733155841473,1.0,1.0,phase_1,,,,,,,,,,,,,cyan,circle
29.0,1.0,1.0,0.0,4.0,4.0,343.4475030007888,1.0,1.0,phase_1,,,,,,,,,,,,,yellow,diamond
0.0,6.0,0.0,1.0,4.0,4.0,354.3461938825203,1.0,1.0,phase_1,,,,,,,,,,,,,orange,square
0.0,2.0,0.0,0.0,2.0,2.0,591.5036812948529,1.0,1.0,phase_1,,,,,,,,,,,,,white,flipped triangle
0.0,1.0,0.0,0.0,2.0,2.0,413.9573248830857,1.0,1.0,phase_1,,,,,,,,,,,,,yellow,diamond
0.0,4.0,0.0,0.0,3.0,3.0,367.9202102939598,1.0,1.0,phase_1,,,,,,,,,,,,,blue,cross
104.0,6.0,2.0,1.0,4.0,4.0,380.326872880687,1.0,1.0,phase_1,,,,,,,,,,,,,orange,square
120.0,6.0,2.0,1.0,2.0,2.0,312.9423098798725,1.0,1.0,phase_1,,,,,,,,,,,,,orange,square
117.0,2.0,2.0,0.0,4.0,4.0,437.4959270280669,1.0,1.0,phase_1,,,,,,,,,,,,,white,flipped triangle
0.0,5.0,0.0,1.0,3.0,3.0,371.5891294414177,1.0,1.0,phase_1,,,,,,,,,,,,,cyan,circle
57.0,5.0,1.0,1.0,1.0,1.0,327.7189361469936,1.0,1.0,phase_1,,,,,,,,,,,,,cyan,circle
0.0,1.0,0.0,0.0,3.0,3.0,280.8818585835979,1.0,1.0,phase_1,,,,,,,,,,,,,yellow,diamond
178.0,7.0,3.0,1.0,4.0,4.0,271.2233784404816,1.0,1.0,phase_1,,,,,,,,,,,,,green,triangle
71.0,1.0,1.0,0.0,2.0,2.0,306.5845447345054,1.0,1.0,phase_1,,,,,,,,,,,,,yellow,diamond
214.0,3.0,3.0,0.0,2.0,2.0,328.7566207363852,1.0,1.0,phase_1,,,,,,,,,,,,,magenta,I
422.0,4.0,4.0,0.0,1.0,1.0,374.6711617350229,1.0,1.0,phase_1,,,,,,,,,,,,,blue,cross
408.0,4.0,4.0,0.0,2.0,2.0,295.109980586858,1.0,1.0,phase_1,,,,,,,,,,,,,blue,cross
194.0,3.0,3.0,0.0,2.0,2.0,320.1286401526886,1.0,1.0,phase_1,,,,,,,,,,,,,magenta,I
397.0,8.0,4.0,1.0,3.0,3.0,284.3175128800794,1.0,1.0,phase_1,,,,,,,,,,,,,gray,hexagon
198.0,7.0,3.0,1.0,1.0,1.0,410.247561027063,1.0,1.0,phase_1,,,,,,,,,,,,,green,triangle
185.0,7.0,3.0,1.0,3.0,3.0,365.5553665885236,1.0,1.0,phase_1,,,,,,,,,,,,,green,triangle
187.0,7.0,3.0,1.0,3.0,3.0,331.3070522999624,1.0,1.0,phase_1,,,,,,,,,,,,,green,triangle
184.0,7.0,3.0,1.0,1.0,1.0,378.9439918764401,1.0,1.0,phase_1,,,,,,,,,,,,,green,triangle
36.0,5.0,1.0,1.0,3.0,3.0,266.0312287334818,1.0,1.0,phase_1,,,,,,,,,,,,,cyan,circle
182.0,7.0,3.0,1.0,3.0,3.0,334.5283905873657,1.0,1.0,phase_1,,,,,,,,,,,,,green,triangle
197.0,3.0,3.0,0.0,4.0,4.0,334.4425220275298,1.0,1.0,phase_1,,,,,,,,,,,,,magenta,I
392.0,8.0,4.0,1.0,2.0,2.0,311.8404652923345,1.0,1.0,phase_1,,,,,,,,,,,,,gray,hexagon
115.0,2.0,2.0,0.0,1.0,1.0,303.3018403148162,1.0,1.0,phase_1,,,,,,,,,,,,,white,flipped triangle
0.0,3.0,0.0,0.0,1.0,1.0,371.1074481761898,1.0,1.0,phase_1,,,,,,,,,,,,,magenta,I
0.0,6.0,0.0,1.0,4.0,4.0,268.3620668758522,1.0,1.0,phase_1,,,,,,,,,,,,,orange,square
121.0,2.0,2.0,0.0,2.0,2.0,280.9662104336894,1.0,1.0,phase_1,,,,,,,,,,,,,white,flipped triangle
412.0,8.0,4.0,1.0,1.0,1.0,271.3602418807568,1.0,1.0,phase_1,,,,,,,,,,,,,gray,hexagon
219.0,7.0,3.0,1.0,4.0,4.0,349.3814165849471,1.0,2.0,phase_1,,,,,,,,,,,,,green,triangle
65.0,5.0,1.0,1.0,1.0,1.0,385.8592555843643,1.0,1.0,phase_1,,,,,,,,,,,,,cyan,circle
27.0,1.0,1.0,0.0,2.0,2.0,318.9738991495687,1.0,1.0,phase_1,,,,,,,,,,,,,yellow,diamond
397.0,4.0,4.0,0.0,2.0,2.0,431.7544317382271,1.0,1.0,phase_1,,,,,,,,,,,,,blue,cross
410.0,8.0,4.0,1.0,2.0,2.0,443.7788151481072,1.0,1.0,phase_1,,,,,,,,,,,,,gray,hexagon
103.0,2.0,2.0,0.0,3.0,3.0,369.1785351766157,2.0,1.0,phase_1,,,,,,,,,,,,,white,flipped triangle
0.0,4.0,0.0,0.0,3.0,3.0,370.2504024331574,2.0,2.0,phase_1,,,,,,,,,,,,,blue,cross
0.0,7.0,0.0,1.0,2.0,2.0,269.4197790333419,2.0,1.0,phase_1,,,,,,,,,,,,,green,triangle
405.0,4.0,4.0,0.0,4.0,4.0,439.2329018810414,2.0,2.0,phase_1,,,,,,,,,,,,,blue,cross
379.0,4.0,4.0,0.0,2.0,2.0,294.6738983009709,2.0,1.0,phase_1,,,,,,,,,,,,,blue,cross
205.0,7.0,3.0,1.0,2.0,2.0,271.0721933181048,2.0,1.0,phase_1,,,,,,,,,,,,,green,triangle
220.0,3.0,3.0,0.0,4.0,4.0,305.9548964374698,2.0,1.0,phase_1,,,,,,,,,,,,,magenta,I
104.0,2.0,2.0,0.0,3.0,3.0,294.9449295920203,2.0,2.0,phase_1,,,,,,,,,,,,,white,flipped triangle
32.0,5.0,1.0,1.0,4.0,4.0,352.6798001548741,2.0,1.0,phase_1,,,,,,,,,,,,,cyan,circle
96.0,2.0,2.0,0.0,1.0,1.0,308.2445751788327,2.0,1.0,phase_1,,,,,,,,,,,,,white,flipped triangle
117.0,6.0,2.0,1.0,1.0,1.0,365.1983945819665,2.0,1.0,phase_1,,,,,,,,,,,,,orange,square
96.0,6.0,2.0,1.0,4.0,4.0,331.5624911774648,2.0,1.0,phase_1,,,,,,,,,,,,,orange,square
125.0,2.0,2.0,0.0,2.0,2.0,321.1586275865556,2.0,1.0,phase_1,,,,,,,,,,,,,white,flipped triangle
64.0,5.0,1.0,1.0,2.0,2.0,478.4762311755912,2.0,1.0,phase_1,,,,,,,,,,,,,cyan,circle
124.0,6.0,2.0,1.0,1.0,1.0,321.87994573178,2.0,1.0,phase_1,,,,,,,,,,,,,orange,square
95.0,2.0,2.0,0.0,2.0,2.0,322.391629582853,2.0,1.0,phase_1,,,,,,,,,,,,,white,flipped triangle
94.0,2.0,2.0,0.0,1.0,1.0,301.7771612940123,2.0,1.0,phase_1,,,,,,,,,,,,,white,flipped triangle
0.0,8.0,0.0,1.0,3.0,3.0,357.1696959988912,2.0,1.0,phase_1,,,,,,,,,,,,,gray,hexagon
398.0,8.0,4.0,1.0,2.0,2.0,334.9349807322141,2.0,1.0,phase_1,,,,,,,,,,,,,gray,hexagon
0.0,7.0,0.0,1.0,4.0,4.0,313.8586048808065,2.0,1.0,phase_1,,,,,,,,,,,,,green,triangle
404.0,8.0,4.0,1.0,3.0,3.0,358.8225745843374,2.0,1.0,phase_1,,,,,,,,,,,,,gray,hexagon
0.0,5.0,0.0,1.0,4.0,4.0,438.4439458808629,2.0,1.0,phase_1,,,,,,,,,,,,,cyan,circle
115.0,2.0,2.0,0.0,2.0,2.0,303.802077731234,2.0,1.0,phase_1,,,,,,,,,,,,,white,flipped triangle
376.0,4.0,4.0,0.0,3.0,3.0,338.162519299658,2.0,1.0,phase_1,,,,,,,,,,,,,blue,cross
398.0,4.0,4.0,0.0,1.0,1.0,361.291790875839,2.0,1.0,phase_1,,,,,,,,,,,,,blue,cross
69.0,1.0,1.0,0.0,1.0,1.0,306.4731241465779,2.0,1.0,phase_1,,,,,,,,,,,,,yellow,diamond
382.0,8.0,4.0,1.0,4.0,4.0,316.9708025816362,2.0,1.0,phase_1,,,,,,,,,,,,,gray,hexagon
57.0,1.0,1.0,0.0,1.0,1.0,340.2685341789038,2.0,1.0,phase_1,,,,,,,,,,,,,yellow,diamond
208.0,7.0,3.0,1.0,2.0,2.0,262.2148428854416,2.0,1.0,phase_1,,,,,,,,,,,,,green,triangle
80.0,6.0,2.0,1.0,2.0,2.0,341.6421450019697,2.0,2.0,phase_1,,,,,,,,,,,,,orange,square
67.0,5.0,1.0,1.0,1.0,1.0,319.8226484382758,2.0,1.0,phase_1,,,,,,,,,,,,,cyan,circle
391.0,4.0,4.0,0.0,1.0,1.0,241.4472087330068,2.0,1.0,phase_1,,,,,,,,,,,,,blue,cross
421.0,8.0,4.0,1.0,1.0,1.0,310.3627293166937,2.0,1.0,phase_1,,,,,,,,,,,,,gray,hexagon
67.0,1.0,1.0,0.0,3.0,3.0,422.6720228834892,2.0,1.0,phase_1,,,,,,,,,,,,,yellow,diamond
0.0,7.0,0.0,1.0,1.0,1.0,300.9610703011276,2.0,1.0,phase_1,,,,,,,,,,,,,green,triangle
205.0,3.0,3.0,0.0,1.0,1.0,345.8447313241777,2.0,1.0,phase_1,,,,,,,,,,,,,magenta,I
206.0,3.0,3.0,0.0,4.0,4.0,357.8590105826151,2.0,1.0,phase_1,,,,,,,,,,,,,magenta,I
0.0,5.0,0.0,1.0,1.0,1.0,312.7061804407276,2.0,1.0,phase_1,,,,,,,,,,,,,cyan,circle
418.0,4.0,4.0,0.0,1.0,1.0,246.1461971470271,2.0,1.0,phase_1,,,,,,,,,,,,,blue,cross
76.0,6.0,2.0,1.0,3.0,3.0,370.2648651815252,2.0,1.0,phase_1,,,,,,,,,,,,,orange,square
197.0,7.0,3.0,1.0,3.0,3.0,370.4005514373421,2.0,1.0,phase_1,,,,,,,,,,,,,green,triangle
107.0,2.0,2.0,0.0,4.0,4.0,361.2460205840762,2.0,1.0,phase_1,,,,,,,,,,,,,white,flipped triangle
36.0,1.0,1.0,0.0,4.0,4.0,372.4016712949378,2.0,1.0,phase_1,,,,,,,,,,,,,yellow,diamond
105.0,6.0,2.0,1.0,1.0,1.0,416.5679241486941,2.0,1.0,phase_1,,,,,,,,,,,,,orange,square
211.0,3.0,3.0,0.0,1.0,1.0,305.2328478806885,2.0,1.0,phase_1,,,,,,,,,,,,,magenta,I
112.0,6.0,2.0,1.0,1.0,1.0,327.9369613155722,2.0,1.0,phase_1,,,,,,,,,,,,,orange,square
391.0,8.0,4.0,1.0,2.0,2.0,352.7895991501282,2.0,1.0,phase_1,,,,,,,,,,,,,gray,hexagon
182.0,7.0,3.0,1.0,1.0,1.0,330.6898528826423,2.0,1.0,phase_1,,,,,,,,,,,,,green,triangle
221.0,7.0,3.0,1.0,3.0,3.0,319.7169481791206,2.0,1.0,phase_1,,,,,,,,,,,,,green,triangle
378.0,8.0,4.0,1.0,2.0,2.0,296.8944210297195,2.0,1.0,phase_1,,,,,,,,,,,,,gray,hexagon
0.0,4.0,0.0,0.0,3.0,3.0,364.2294228848186,2.0,1.0,phase_1,,,,,,,,,,,,,blue,cross
80.0,2.0,2.0,0.0,3.0,3.0,331.5808148836368,2.0,1.0,phase_1,,,,,,,,,,,,,white,flipped triangle
401.0,8.0,4.0,1.0,4.0,4.0,466.279529435269,2.0,1.0,phase_1,,,,,,,,,,,,,gray,hexagon
29.0,5.0,1.0,1.0,3.0,3.0,276.3679473137017,2.0,2.0,phase_1,,,,,,,,,,,,,cyan,circle
62.0,5.0,1.0,1.0,3.0,3.0,357.3662200287799,2.0,1.0,phase_1,,,,,,,,,,,,,cyan,circle
402.0,4.0,4.0,0.0,1.0,1.0,480.9411108508357,2.0,1.0,phase_1,,,,,,,,,,,,,blue,cross
41.0,1.0,1.0,0.0,2.0,2.0,381.5995341501548,2.0,1.0,phase_1,,,,,,,,,,,,,yellow,diamond
69.0,1.0,1.0,0.0,2.0,2.0,291.175506732543,2.0,2.0,phase_1,,,,,,,,,,,,,yellow,diamond
381.0,4.0,4.0,0.0,3.0,3.0,314.7106234318926,2.0,1.0,phase_1,,,,,,,,,,,,,blue,cross
0.0,7.0,0.0,1.0,1.0,1.0,326.1213035875698,2.0,1.0,phase_1,,,,,,,,,,,,,green,triangle
79.0,2.0,2.0,0.0,2.0,2.0,337.2214107293985,2.0,1.0,phase_1,,,,,,,,,,,,,white,flipped triangle
0.0,4.0,0.0,0.0,2.0,2.0,361.6805431447574,2.0,1.0,phase_1,,,,,,,,,,,,,blue,cross
115.0,6.0,2.0,1.0,3.0,3.0,406.653499994718,2.0,1.0,phase_1,,,,,,,,,,,,,orange,square
0.0,5.0,0.0,1.0,3.0,3.0,361.1715807346627,2.0,1.0,phase_1,,,,,,,,,,,,,cyan,circle
100.0,2.0,2.0,0.0,4.0,4.0,339.9479378858814,2.0,1.0,phase_1,,,,,,,,,,,,,white,flipped triangle
205.0,7.0,3.0,1.0,4.0,4.0,317.2706568802823,2.0,1.0,phase_1,,,,,,,,,,,,,green,triangle
222.0,7.0,3.0,1.0,4.0,4.0,330.6524244399043,2.0,1.0,phase_1,,,,,,,,,,,,,green,triangle
39.0,1.0,1.0,0.0,1.0,1.0,354.4613370249863,2.0,1.0,phase_1,,,,,,,,,,,,,yellow,diamond
41.0,5.0,1.0,1.0,2.0,2.0,308.7715921792551,2.0,2.0,phase_1,,,,,,,,,,,,,cyan,circle
32.0,5.0,1.0,1.0,1.0,1.0,320.7354611440678,2.0,2.0,phase_1,,,,,,,,,,,,,cyan,circle
48.0,1.0,1.0,0.0,2.0,2.0,299.4207842930336,2.0,1.0,phase_1,,,,,,,,,,,,,yellow,diamond
388.0,4.0,4.0,0.0,1.0,1.0,300.9865675849141,2.0,1.0,phase_1,,,,,,,,,,,,,blue,cross
388.0,8.0,4.0,1.0,1.0,1.0,344.8203622974688,2.0,1.0,phase_1,,,,,,,,,,,,,gray,hexagon
40.0,1.0,1.0,0.0,2.0,2.0,312.1821245804312,2.0,1.0,phase_1,,,,,,,,,,,,,yellow,diamond
82.0,2.0,2.0,0.0,4.0,4.0,324.0379741764627,2.0,2.0,phase_1,,,,,,,,,,,,,white,flipped triangle
94.0,2.0,2.0,0.0,1.0,1.0,302.4400685826549,2.0,1.0,phase_1,,,,,,,,,,,,,white,flipped triangle
376.0,8.0,4.0,1.0,1.0,1.0,349.6959662952577,2.0,1.0,phase_1,,,,,,,,,,,,,gray,hexagon
106.0,6.0,2.0,1.0,2.0,2.0,280.4872501728823,2.0,1.0,phase_1,,,,,,,,,,,,,orange,square
62.0,1.0,1.0,0.0,3.0,3.0,315.3240655883564,2.0,1.0,phase_1,,,,,,,,,,,,,yellow,diamond
405.0,8.0,4.0,1.0,4.0,4.0,429.4527827296406,2.0,1.0,phase_1,,,,,,,,,,,,,gray,hexagon
0.0,3.0,0.0,0.0,4.0,4.0,384.0500934384181,2.0,1.0,phase_1,,,,,,,,,,,,,magenta,I
191.0,3.0,3.0,0.0,4.0,4.0,339.5344790260424,2.0,1.0,phase_1,,,,,,,,,,,,,magenta,I
0.0,8.0,0.0,1.0,4.0,4.0,273.0310421538888,2.0,1.0,phase_1,,,,,,,,,,,,,gray,hexagon
48.0,5.0,1.0,1.0,4.0,4.0,363.3125678825308,2.0,1.0,phase_1,,,,,,,,,,,,,cyan,circle
385.0,8.0,4.0,1.0,3.0,3.0,374.4284592903568,2.0,1.0,phase_1,,,,,,,,,,,,,gray,hexagon
0.0,3.0,0.0,0.0,1.0,1.0,307.9686747369123,2.0,1.0,phase_1,,,,,,,,,,,,,magenta,I
106.0,2.0,2.0,0.0,2.0,2.0,342.6062180296867,2.0,1.0,phase_1,,,,,,,,,,,,,white,flipped triangle
177.0,3.0,3.0,0.0,2.0,2.0,308.7255754362559,2.0,1.0,phase_1,,,,,,,,,,,,,magenta,I
190.0,7.0,3.0,1.0,1.0,1.0,354.5561850260128,2.0,1.0,phase_1,,,,,,,,,,,,,green,triangle
50.0,1.0,1.0,0.0,1.0,1.0,321.0243207358871,2.0,1.0,phase_1,,,,,,,,,,,,,yellow,diamond
116.0,6.0,2.0,1.0,2.0,2.0,299.35750403092237,2.0,1.0,phase_1,,,,,,,,,,,,,orange,square
216.0,3.0,3.0,0.0,4.0,4.0,333.8423325840267,2.0,1.0,phase_1,,,,,,,,,,,,,magenta,I
0.0,4.0,0.0,0.0,1.0,1.0,267.3842285803403,2.0,2.0,phase_1,,,,,,,,,,,,,blue,cross
182.0,3.0,3.0,0.0,1.0,1.0,290.8230257307878,2.0,1.0,phase_1,,,,,,,,,,,,,magenta,I
187.0,3.0,3.0,0.0,1.0,1.0,302.9167082931963,2.0,1.0,phase_1,,,,,,,,,,,,,magenta,I
0.0,5.0,0.0,1.0,4.0,4.0,426.1315867333906,2.0,1.0,phase_1,,,,,,,,,,,,,cyan,circle
45.0,5.0,1.0,1.0,1.0,1.0,292.786928883288,2.0,1.0,phase_1,,,,,,,,,,,,,cyan,circle
55.0,5.0,1.0,1.0,2.0,2.0,349.5415205907193,2.0,1.0,phase_1,,,,,,,,,,,,,cyan,circle
194.0,7.0,3.0,1.0,2.0,2.0,338.384744587529,2.0,1.0,phase_1,,,,,,,,,,,,,green,triangle
221.0,3.0,3.0,0.0,4.0,4.0,363.2094315835275,2.0,2.0,phase_1,,,,,,,,,,,,,magenta,I
92.0,6.0,2.0,1.0,3.0,3.0,352.2342865835526,3.0,1.0,phase_1,,,,,,,,,,,,,orange,square
386.0,8.0,4.0,1.0,4.0,4.0,363.8154108848539,3.0,1.0,phase_1,,,,,,,,,,,,,gray,hexagon
0.0,1.0,0.0,0.0,4.0,4.0,352.050917885208,3.0,1.0,phase_1,,,,,,,,,,,,,yellow,diamond
0.0,3.0,0.0,0.0,3.0,3.0,330.1804710281431,3.0,1.0,phase_1,,,,,,,,,,,,,magenta,I
206.0,7.0,3.0,1.0,3.0,3.0,353.5431782947853,3.0,1.0,phase_1,,,,,,,,,,,,,green,triangle
382.0,4.0,4.0,0.0,2.0,2.0,253.003449885,3.0,1.0,phase_1,,,,,,,,,,,,,blue,cross
0.0,6.0,0.0,1.0,4.0,4.0,321.5377964370418,3.0,1.0,phase_1,,,,,,,,,,,,,orange,square
221.0,7.0,3.0,1.0,2.0,2.0,298.7115841824561,3.0,1.0,phase_1,,,,,,,,,,,,,green,triangle
0.0,2.0,0.0,0.0,2.0,2.0,378.8973520058789,3.0,1.0,phase_1,,,,,,,,,,,,,white,flipped triangle
422.0,8.0,4.0,1.0,4.0,4.0,391.7420597354066,3.0,1.0,phase_1,,,,,,,,,,,,,gray,hexagon
190.0,3.0,3.0,0.0,4.0,4.0,324.2638023002655,3.0,1.0,phase_1,,,,,,,,,,,,,magenta,I
92.0,2.0,2.0,0.0,2.0,2.0,358.0979184334865,3.0,1.0,phase_1,,,,,,,,,,,,,white,flipped triangle
0.0,7.0,0.0,1.0,3.0,3.0,291.4766174435499,3.0,1.0,phase_1,,,,,,,,,,,,,green,triangle
125.0,6.0,2.0,1.0,1.0,1.0,427.9189670269261,3.0,1.0,phase_1,,,,,,,,,,,,,orange,square
0.0,3.0,0.0,0.0,2.0,2.0,382.0844639994902,3.0,1.0,phase_1,,,,,,,,,,,,,magenta,I
98.0,6.0,2.0,1.0,4.0,4.0,383.2936331527889,3.0,1.0,phase_1,,,,,,,,,,,,,orange,square
112.0,2.0,2.0,0.0,4.0,4.0,293.2244725889177,3.0,1.0,phase_1,,,,,,,,,,,,,white,flipped triangle
80.0,2.0,2.0,0.0,2.0,2.0,304.2762274344568,3.0,1.0,phase_1,,,,,,,,,,,,,white,flipped triangle
407.0,8.0,4.0,1.0,4.0,4.0,304.6700747290742,3.0,1.0,phase_1,,,,,,,,,,,,,gray,hexagon
36.0,1.0,1.0,0.0,4.0,4.0,372.6927942916518,3.0,1.0,phase_1,,,,,,,,,,,,,yellow,diamond
64.0,1.0,1.0,0.0,4.0,4.0,328.5205231732107,3.0,1.0,phase_1,,,,,,,,,,,,,yellow,diamond
124.0,6.0,2.0,1.0,3.0,3.0,352.2977813117904,3.0,1.0,phase_1,,,,,,,,,,,,,orange,square
385.0,4.0,4.0,0.0,3.0,3.0,373.8035030037281,3.0,1.0,phase_1,,,,,,,,,,,,,blue,cross
0.0,2.0,0.0,0.0,4.0,4.0,420.3909637362812,3.0,1.0,phase_1,,,,,,,,,,,,,white,flipped triangle
392.0,4.0,4.0,0.0,1.0,1.0,433.0778652947629,3.0,1.0,phase_1,,,,,,,,,,,,,blue,cross
176.0,3.0,3.0,0.0,4.0,4.0,465.7117981478222,3.0,1.0,phase_1,,,,,,,,,,,,,magenta,I
0.0,3.0,0.0,0.0,4.0,4.0,366.0335580279934,3.0,1.0,phase_1,,,,,,,,,,,,,magenta,I
421.0,4.0,4.0,0.0,4.0,4.0,286.715614995046,3.0,1.0,phase_1,,,,,,,,,,,,,blue,cross
397.0,8.0,4.0,1.0,4.0,4.0,276.8095271749189,3.0,1.0,phase_1,,,,,,,,,,,,,gray,hexagon
32.0,1.0,1.0,0.0,2.0,2.0,357.422875436896,3.0,1.0,phase_1,,,,,,,,,,,,,yellow,diamond
402.0,8.0,4.0,1.0,2.0,2.0,302.3069235860021,3.0,1.0,phase_1,,,,,,,,,,,,,gray,hexagon
0.0,2.0,0.0,0.0,3.0,3.0,288.9659665888757,3.0,1.0,phase_1,,,,,,,,,,,,,white,flipped triangle
0.0,7.0,0.0,1.0,4.0,4.0,312.0513188841869,3.0,1.0,phase_1,,,,,,,,,,,,,green,triangle
0.0,3.0,0.0,0.0,4.0,4.0,447.6994315846241,3.0,1.0,phase_1,,,,,,,,,,,,,magenta,I
404.0,4.0,4.0,0.0,2.0,2.0,359.0988492942415,3.0,1.0,phase_1,,,,,,,,,,,,,blue,cross
401.0,8.0,4.0,1.0,3.0,3.0,280.0449824426323,3.0,1.0,phase_1,,,,,,,,,,,,,gray,hexagon
220.0,7.0,3.0,1.0,4.0,4.0,382.7045804355293,3.0,1.0,phase_1,,,,,,,,,,,,,green,triangle
401.0,4.0,4.0,0.0,4.0,4.0,349.8756342960405,3.0,1.0,phase_1,,,,,,,,,,,,,blue,cross
120.0,2.0,2.0,0.0,4.0,4.0,293.0409654363757,3.0,1.0,phase_1,,,,,,,,,,,,,white,flipped triangle
71.0,1.0,1.0,0.0,1.0,1.0,306.0860305849928,3.0,2.0,phase_1,,,,,,,,,,,,,yellow,diamond
418.0,8.0,4.0,1.0,3.0,3.0,374.0946462930878,3.0,1.0,phase_1,,,,,,,,,,,,,gray,hexagon
94.0,6.0,2.0,1.0,4.0,4.0,375.1210722039104,3.0,1.0,phase_1,,,,,,,,,,,,,orange,square
185.0,3.0,3.0,0.0,1.0,1.0,296.2369758824934,3.0,1.0,phase_1,,,,,,,,,,,,,magenta,I
219.0,3.0,3.0,0.0,3.0,3.0,262.8781897947192,3.0,1.0,phase_1,,,,,,,,,,,,,magenta,I
107.0,6.0,2.0,1.0,2.0,2.0,264.0348662971519,3.0,1.0,phase_1,,,,,,,,,,,,,orange,square
76.0,2.0,2.0,0.0,3.0,3.0,275.3075262953643,3.0,1.0,phase_1,,,,,,,,,,,,,white,flipped triangle
379.0,8.0,4.0,1.0,1.0,1.0,322.9427294427296,3.0,1.0,phase_1,,,,,,,,,,,,,gray,hexagon
0.0,1.0,0.0,0.0,1.0,1.0,322.193534586404,3.0,1.0,phase_1,,,,,,,,,,,,,yellow,diamond
208.0,3.0,3.0,0.0,2.0,2.0,288.4644178775488,3.0,1.0,phase_1,,,,,,,,,,,,,magenta,I
416.0,4.0,4.0,0.0,1.0,1.0,300.8414128780714,3.0,1.0,phase_1,,,,,,,,,,,,,blue,cross
218.0,3.0,3.0,0.0,3.0,3.0,401.4688967290567,3.0,1.0,phase_1,,,,,,,,,,,,,magenta,I
397.0,4.0,4.0,0.0,3.0,3.0,425.3152017336106,3.0,1.0,phase_1,,,,,,,,,,,,,blue,cross
386.0,4.0,4.0,0.0,3.0,3.0,402.5274841478676,3.0,1.0,phase_1,,,,,,,,,,,,,blue,cross
75.0,6.0,2.0,1.0,2.0,2.0,348.6685150273843,3.0,1.0,phase_1,,,,,,,,,,,,,orange,square
0.0,1.0,0.0,0.0,3.0,3.0,336.8382735861814,3.0,1.0,phase_1,,,,,,,,,,,,,yellow,diamond
177.0,7.0,3.0,1.0,2.0,2.0,269.3488245859043,3.0,1.0,phase_1,,,,,,,,,,,,,green,triangle
91.0,2.0,2.0,0.0,4.0,4.0,270.4042171753826,3.0,1.0,phase_1,,,,,,,,,,,,,white,flipped triangle
381.0,8.0,4.0,1.0,1.0,1.0,271.0079728785786,3.0,1.0,phase_1,,,,,,,,,,,,,gray,hexagon
87.0,2.0,2.0,0.0,1.0,1.0,272.4359891508356,3.0,1.0,phase_1,,,,,,,,,,,,,white,flipped triangle
0.0,1.0,0.0,0.0,1.0,1.0,418.1827771462849,3.0,1.0,phase_1,,,,,,,,,,,,,yellow,diamond
0.0,6.0,0.0,1.0,4.0,4.0,451.7930455840542,3.0,1.0,phase_1,,,,,,,,,,,,,orange,square
79.0,6.0,2.0,1.0,2.0,2.0,251.75675687933108,3.0,1.0,phase_1,,,,,,,,,,,,,orange,square
395.0,4.0,4.0,0.0,4.0,4.0,409.9775581780704,3.0,2.0,phase_1,,,,,,,,,,,,,blue,cross
32.0,1.0,1.0,0.0,4.0,4.0,442.8106520281289,3.0,1.0,phase_1,,,,,,,,,,,,,yellow,diamond
200.0,3.0,3.0,0.0,2.0,2.0,266.2458802951732,3.0,2.0,phase_1,,,,,,,,,,,,,magenta,I
0.0,2.0,0.0,0.0,3.0,3.0,422.5305863146786,3.0,1.0,phase_1,,,,,,,,,,,,,white,flipped triangle
69.0,1.0,1.0,0.0,3.0,3.0,343.8506332895485,3.0,1.0,phase_1,,,,,,,,,,,,,yellow,diamond
384.0,8.0,4.0,1.0,2.0,2.0,299.5726622903021,3.0,1.0,phase_1,,,,,,,,,,,,,gray,hexagon
399.0,4.0,4.0,0.0,4.0,4.0,412.8187640308169,3.0,1.0,phase_1,,,,,,,,,,,,,blue,cross
40.0,1.0,1.0,0.0,4.0,4.0,312.4018208764028,3.0,2.0,phase_1,,,,,,,,,,,,,yellow,diamond
108.0,2.0,2.0,0.0,4.0,4.0,324.0774667356163,3.0,1.0,phase_1,,,,,,,,,,,,,white,flipped triangle
40.0,5.0,1.0,1.0,3.0,3.0,314.8284074341063,3.0,1.0,phase_1,,,,,,,,,,,,,cyan,circle
394.0,8.0,4.0,1.0,4.0,4.0,349.7994101489894,3.0,1.0,phase_1,,,,,,,,,,,,,gray,hexagon
0.0,7.0,0.0,1.0,3.0,3.0,293.164245733351,3.0,1.0,phase_1,,,,,,,,,,,,,green,triangle
116.0,2.0,2.0,0.0,3.0,3.0,394.885360437911,3.0,1.0,phase_1,,,,,,,,,,,,,white,flipped triangle
43.0,5.0,1.0,1.0,2.0,2.0,407.4057062971405,3.0,1.0,phase_1,,,,,,,,,,,,,cyan,circle
0.0,8.0,0.0,1.0,2.0,2.0,362.2033878782531,3.0,1.0,phase_1,,,,,,,,,,,,,gray,hexagon
0.0,7.0,0.0,1.0,1.0,1.0,351.5851245829253,3.0,1.0,phase_1,,,,,,,,,,,,,green,triangle
401.0,8.0,4.0,1.0,1.0,1.0,272.9717408801662,3.0,1.0,phase_1,,,,,,,,,,,,,gray,hexagon
121.0,6.0,2.0,1.0,4.0,4.0,374.0323790261755,3.0,1.0,phase_1,,,,,,,,,,,,,orange,square
39.0,5.0,1.0,1.0,1.0,1.0,341.3974262948613,3.0,1.0,phase_1,,,,,,,,,,,,,cyan,circle
115.0,6.0,2.0,1.0,2.0,2.0,319.5150128813111,3.0,1.0,phase_1,,,,,,,,,,,,,orange,square
124.0,2.0,2.0,0.0,3.0,3.0,365.4028851742623,3.0,1.0,phase_1,,,,,,,,,,,,,white,flipped triangle
112.0,6.0,2.0,1.0,4.0,4.0,344.1512902354589,3.0,1.0,phase_1,,,,,,,,,,,,,orange,square
45.0,5.0,1.0,1.0,3.0,3.0,388.1965555847273,3.0,1.0,phase_1,,,,,,,,,,,,,cyan,circle
388.0,8.0,4.0,1.0,2.0,2.0,334.8346675848006,3.0,1.0,phase_1,,,,,,,,,,,,,gray,hexagon
214.0,7.0,3.0,1.0,1.0,1.0,312.8368182951817,3.0,1.0,phase_1,,,,,,,,,,,,,green,triangle
29.0,1.0,1.0,0.0,4.0,4.0,346.9280381759745,3.0,1.0,phase_1,,,,,,,,,,,,,yellow,diamond
73.0,1.0,1.0,0.0,3.0,3.0,300.6194387344294,3.0,1.0,phase_1,,,,,,,,,,,,,yellow,diamond
62.0,5.0,1.0,1.0,4.0,4.0,323.9484341465868,3.0,1.0,phase_1,,,,,,,,,,,,,cyan,circle
61.0,1.0,1.0,0.0,3.0,3.0,358.9086432912154,3.0,1.0,phase_1,,,,,,,,,,,,,yellow,diamond
47.0,1.0,1.0,0.0,2.0,2.0,382.3741017040447,3.0,1.0,phase_1,,,,,,,,,,,,,yellow,diamond
412.0,4.0,4.0,0.0,4.0,4.0,315.4120588806108,3.0,1.0,phase_1,,,,,,,,,,,,,blue,cross
185.0,7.0,3.0,1.0,3.0,3.0,336.7579512996599,3.0,1.0,phase_1,,,,,,,,,,,,,green,triangle
380.0,8.0,4.0,1.0,2.0,2.0,371.9947558856802,3.0,1.0,phase_1,,,,,,,,,,,,,gray,hexagon
178.0,3.0,3.0,0.0,2.0,2.0,349.9827188788913,3.0,1.0,phase_1,,,,,,,,,,,,,magenta,I
188.0,7.0,3.0,1.0,4.0,4.0,339.1473487354233,3.0,1.0,phase_1,,,,,,,,,,,,,green,triangle
57.0,5.0,1.0,1.0,2.0,2.0,316.8338714385754,3.0,1.0,phase_1,,,,,,,,,,,,,cyan,circle
415.0,8.0,4.0,1.0,3.0,3.0,272.5414941451163,3.0,1.0,phase_1,,,,,,,,,,,,,gray,hexagon
112.0,2.0,2.0,0.0,1.0,1.0,420.010735586402,3.0,1.0,phase_1,,,,,,,,,,,,,white,flipped triangle
0.0,6.0,0.0,1.0,4.0,4.0,343.661950151727,4.0,1.0,phase_1,,,,,,,,,,,,,orange,square
66.0,1.0,1.0,0.0,2.0,2.0,355.7266214265837,4.0,1.0,phase_1,,,,,,,,,,,,,yellow,diamond
113.0,2.0,2.0,0.0,3.0,3.0,344.9092288792599,4.0,2.0,phase_1,,,,,,,,,,,,,white,flipped triangle
59.0,5.0,1.0,1.0,3.0,3.0,302.0568228821503,4.0,1.0,phase_1,,,,,,,,,,,,,cyan,circle
0.0,4.0,0.0,0.0,4.0,4.0,402.7613681537332,4.0,2.0,phase_1,,,,,,,,,,,,,blue,cross
104.0,2.0,2.0,0.0,4.0,4.0,381.11281344026787,4.0,1.0,phase_1,,,,,,,,,,,,,white,flipped triangle
210.0,7.0,3.0,1.0,4.0,4.0,347.7673780289478,4.0,1.0,phase_1,,,,,,,,,,,,,green,triangle
206.0,7.0,3.0,1.0,4.0,4.0,304.2126331783947,4.0,2.0,phase_1,,,,,,,,,,,,,green,triangle
80.0,6.0,2.0,1.0,4.0,4.0,373.6044000324909,4.0,1.0,phase_1,,,,,,,,,,,,,orange,square
388.0,4.0,4.0,0.0,3.0,3.0,327.8069601437892,4.0,1.0,phase_1,,,,,,,,,,,,,blue,cross
177.0,3.0,3.0,0.0,3.0,3.0,306.0103092939243,4.0,1.0,phase_1,,,,,,,,,,,,,magenta,I
29.0,5.0,1.0,1.0,3.0,3.0,363.1642151522101,4.0,1.0,phase_1,,,,,,,,,,,,,cyan,circle
0.0,8.0,0.0,1.0,3.0,3.0,329.8040284353192,4.0,1.0,phase_1,,,,,,,,,,,,,gray,hexagon
55.0,1.0,1.0,0.0,4.0,4.0,363.2329640022362,4.0,1.0,phase_1,,,,,,,,,,,,,yellow,diamond
105.0,2.0,2.0,0.0,4.0,4.0,332.2873748838901,4.0,1.0,phase_1,,,,,,,,,,,,,white,flipped triangle
210.0,3.0,3.0,0.0,3.0,3.0,332.1597114336327,4.0,1.0,phase_1,,,,,,,,,,,,,magenta,I
91.0,6.0,2.0,1.0,1.0,1.0,378.9784455875633,4.0,2.0,phase_1,,,,,,,,,,,,,orange,square
395.0,8.0,4.0,1.0,3.0,3.0,401.1516187310917,4.0,1.0,phase_1,,,,,,,,,,,,,gray,hexagon
0.0,8.0,0.0,1.0,4.0,4.0,310.476985439891,4.0,1.0,phase_1,,,,,,,,,,,,,gray,hexagon
0.0,2.0,0.0,0.0,2.0,2.0,255.1572822703747,4.0,1.0,phase_1,,,,,,,,,,,,,white,flipped triangle
0.0,6.0,0.0,1.0,3.0,3.0,335.9589628817048,4.0,1.0,phase_1,,,,,,,,,,,,,orange,square
192.0,3.0,3.0,0.0,3.0,3.0,255.8383474315633,4.0,1.0,phase_1,,,,,,,,,,,,,magenta,I
0.0,4.0,0.0,0.0,4.0,4.0,438.4899220312945,4.0,1.0,phase_1,,,,,,,,,,,,,blue,cross
0.0,3.0,0.0,0.0,4.0,4.0,336.2989490342443,4.0,1.0,phase_1,,,,,,,,,,,,,magenta,I
412.0,4.0,4.0,0.0,4.0,4.0,315.7557248778175,4.0,1.0,phase_1,,,,,,,,,,,,,blue,cross
0.0,5.0,0.0,1.0,3.0,3.0,338.2240052960696,4.0,1.0,phase_1,,,,,,,,,,,,,cyan,circle
36.0,5.0,1.0,1.0,3.0,3.0,281.5365585847758,4.0,1.0,phase_1,,,,,,,,,,,,,cyan,circle
32.0,1.0,1.0,0.0,4.0,4.0,271.4353252958972,4.0,1.0,phase_1,,,,,,,,,,,,,yellow,diamond
71.0,5.0,1.0,1.0,3.0,3.0,283.2860423150123,4.0,1.0,phase_1,,,,,,,,,,,,,cyan,circle
108.0,6.0,2.0,1.0,3.0,3.0,271.3710038806312,4.0,1.0,phase_1,,,,,,,,,,,,,orange,square
0.0,8.0,0.0,1.0,2.0,2.0,374.5599354369915,4.0,1.0,phase_1,,,,,,,,,,,,,gray,hexagon
43.0,1.0,1.0,0.0,1.0,1.0,342.3938647320028,4.0,1.0,phase_1,,,,,,,,,,,,,yellow,diamond
40.0,5.0,1.0,1.0,4.0,4.0,318.5145925890538,4.0,1.0,phase_1,,,,,,,,,,,,,cyan,circle
31.0,1.0,1.0,0.0,3.0,3.0,329.552181152394,4.0,1.0,phase_1,,,,,,,,,,,,,yellow,diamond
0.0,6.0,0.0,1.0,4.0,4.0,387.4259572985465,4.0,1.0,phase_1,,,,,,,,,,,,,orange,square
100.0,6.0,2.0,1.0,3.0,3.0,342.8505127303651,4.0,1.0,phase_1,,,,,,,,,,,,,orange,square
0.0,1.0,0.0,0.0,3.0,3.0,288.3543278876459,4.0,1.0,phase_1,,,,,,,,,,,,,yellow,diamond
94.0,6.0,2.0,1.0,3.0,3.0,264.7077587389503,4.0,1.0,phase_1,,,,,,,,,,,,,orange,square
87.0,6.0,2.0,1.0,1.0,1.0,357.0582301763352,4.0,1.0,phase_1,,,,,,,,,,,,,orange,square
211.0,7.0,3.0,1.0,2.0,2.0,311.6564837328042,4.0,1.0,phase_1,,,,,,,,,,,,,green,triangle
200.0,3.0,3.0,0.0,1.0,1.0,369.9697937336168,4.0,1.0,phase_1,,,,,,,,,,,,,magenta,I
98.0,2.0,2.0,0.0,3.0,3.0,288.940420585277,4.0,1.0,phase_1,,,,,,,,,,,,,white,flipped triangle
188.0,3.0,3.0,0.0,2.0,2.0,234.1273537967936,4.0,1.0,phase_1,,,,,,,,,,,,,magenta,I
0.0,6.0,0.0,1.0,1.0,1.0,325.1043862910592,4.0,1.0,phase_1,,,,,,,,,,,,,orange,square
0.0,2.0,0.0,0.0,1.0,1.0,303.3251871747779,4.0,1.0,phase_1,,,,,,,,,,,,,white,flipped triangle
27.0,5.0,1.0,1.0,2.0,2.0,293.1728837356786,4.0,1.0,phase_1,,,,,,,,,,,,,cyan,circle
0.0,7.0,0.0,1.0,4.0,4.0,359.7521025803871,4.0,1.0,phase_1,,,,,,,,,,,,,green,triangle
62.0,1.0,1.0,0.0,3.0,3.0,349.5841968833701,4.0,2.0,phase_1,,,,,,,,,,,,,yellow,diamond
32.0,5.0,1.0,1.0,4.0,4.0,306.1621024389751,4.0,1.0,phase_1,,,,,,,,,,,,,cyan,circle
103.0,6.0,2.0,1.0,4.0,4.0,296.1696824349928,4.0,1.0,phase_1,,,,,,,,,,,,,orange,square
0.0,1.0,0.0,0.0,3.0,3.0,441.0102105903206,4.0,1.0,phase_1,,,,,,,,,,,,,yellow,diamond
410.0,4.0,4.0,0.0,3.0,3.0,240.1634412963176,4.0,1.0,phase_1,,,,,,,,,,,,,blue,cross
216.0,7.0,3.0,1.0,3.0,3.0,251.56479443830898,4.0,1.0,phase_1,,,,,,,,,,,,,green,triangle
50.0,5.0,1.0,1.0,1.0,1.0,364.1983304405585,4.0,1.0,phase_1,,,,,,,,,,,,,cyan,circle
187.0,7.0,3.0,1.0,1.0,1.0,409.904040148831,4.0,1.0,phase_1,,,,,,,,,,,,,green,triangle
66.0,5.0,1.0,1.0,2.0,2.0,354.0265722986078,4.0,1.0,phase_1,,,,,,,,,,,,,cyan,circle
45.0,1.0,1.0,0.0,3.0,3.0,321.6666467342293,4.0,1.0,phase_1,,,,,,,,,,,,,yellow,diamond
100.0,6.0,2.0,1.0,3.0,3.0,231.7501644356525,4.0,1.0,phase_1,,,,,,,,,,,,,orange,square
401.0,4.0,4.0,0.0,3.0,3.0,334.5617192971986,4.0,1.0,phase_1,,,,,,,,,,,,,blue,cross
82.0,6.0,2.0,1.0,3.0,3.0,278.5468027359457,4.0,1.0,phase_1,,,,,,,,,,,,,orange,square
61.0,5.0,1.0,1.0,2.0,2.0,289.1680212997016,4.0,1.0,phase_1,,,,,,,,,,,,,cyan,circle
0.0,1.0,0.0,0.0,4.0,4.0,448.2590317347785,4.0,1.0,phase_1,,,,,,,,,,,,,yellow,diamond
177.0,7.0,3.0,1.0,1.0,1.0,370.7985084402025,4.0,1.0,phase_1,,,,,,,,,,,,,green,triangle
36.0,5.0,1.0,1.0,2.0,2.0,348.8183738809312,4.0,1.0,phase_1,,,,,,,,,,,,,cyan,circle
0.0,2.0,0.0,0.0,4.0,4.0,314.7054421497159,4.0,1.0,phase_1,,,,,,,,,,,,,white,flipped triangle
200.0,7.0,3.0,1.0,2.0,2.0,281.0310820277664,4.0,1.0,phase_1,,,,,,,,,,,,,green,triangle
223.0,7.0,3.0,1.0,2.0,2.0,304.2363978820503,4.0,1.0,phase_1,,,,,,,,,,,,,green,triangle
69.0,5.0,1.0,1.0,1.0,1.0,328.7554974376689,4.0,1.0,phase_1,,,,,,,,,,,,,cyan,circle
92.0,6.0,2.0,1.0,2.0,2.0,271.6011912925751,4.0,1.0,phase_1,,,,,,,,,,,,,orange,square
412.0,8.0,4.0,1.0,1.0,1.0,295.3658543192432,4.0,1.0,phase_1,,,,,,,,,,,,,gray,hexagon
0.0,6.0,0.0,1.0,3.0,3.0,306.2289594381582,4.0,2.0,phase_1,,,,,,,,,,,,,orange,square
182.0,3.0,3.0,0.0,1.0,1.0,239.8366842971881,4.0,1.0,phase_1,,,,,,,,,,,,,magenta,I
80.0,6.0,2.0,1.0,1.0,1.0,331.1927991526318,4.0,1.0,phase_1,,,,,,,,,,,,,orange,square
33.0,5.0,1.0,1.0,4.0,4.0,342.8500407462707,4.0,1.0,phase_1,,,,,,,,,,,,,cyan,circle
409.0,8.0,4.0,1.0,3.0,3.0,319.7252972968272,4.0,1.0,phase_1,,,,,,,,,,,,,gray,hexagon
69.0,5.0,1.0,1.0,1.0,1.0,254.5787012932123,4.0,1.0,phase_1,,,,,,,,,,,,,cyan,circle
75.0,2.0,2.0,0.0,3.0,3.0,310.5834151792805,4.0,1.0,phase_1,,,,,,,,,,,,,white,flipped triangle
415.0,8.0,4.0,1.0,3.0,3.0,288.8848218863131,4.0,1.0,phase_1,,,,,,,,,,,,,gray,hexagon
95.0,6.0,2.0,1.0,2.0,2.0,245.2883450314402,4.0,1.0,phase_1,,,,,,,,,,,,,orange,square
45.0,1.0,1.0,0.0,2.0,2.0,278.0221748835174,4.0,1.0,phase_1,,,,,,,,,,,,,yellow,diamond
0.0,8.0,0.0,1.0,4.0,4.0,322.9855202953331,4.0,1.0,phase_1,,,,,,,,,,,,,gray,hexagon
408.0,8.0,4.0,1.0,1.0,1.0,313.6079954347224,4.0,1.0,phase_1,,,,,,,,,,,,,gray,hexagon
420.0,8.0,4.0,1.0,4.0,4.0,337.1189281533588,4.0,1.0,phase_1,,,,,,,,,,,,,gray,hexagon
192.0,7.0,3.0,1.0,1.0,1.0,337.7510664358851,4.0,1.0,phase_1,,,,,,,,,,,,,green,triangle
200.0,7.0,3.0,1.0,2.0,2.0,246.9568744418211,4.0,1.0,phase_1,,,,,,,,,,,,,green,triangle
73.0,5.0,1.0,1.0,4.0,4.0,303.7504382955376,4.0,1.0,phase_1,,,,,,,,,,,,,cyan,circle
201.0,3.0,3.0,0.0,3.0,3.0,328.0998392947367,4.0,2.0,phase_1,,,,,,,,,,,,,magenta,I
399.0,8.0,4.0,1.0,4.0,4.0,362.4720075822552,4.0,1.0,phase_1,,,,,,,,,,,,,gray,hexagon
200.0,7.0,3.0,1.0,1.0,1.0,251.5214328814181,4.0,1.0,phase_1,,,,,,,,,,,,,green,triangle
71.0,5.0,1.0,1.0,3.0,3.0,227.372088440461,4.0,1.0,phase_1,,,,,,,,,,,,,cyan,circle
0.0,4.0,0.0,0.0,1.0,1.0,262.883170886198,4.0,1.0,phase_1,,,,,,,,,,,,,blue,cross
222.0,3.0,3.0,0.0,2.0,2.0,307.4483489981503,4.0,1.0,phase_1,,,,,,,,,,,,,magenta,I
399.0,4.0,4.0,0.0,2.0,2.0,308.1457727312227,4.0,1.0,phase_1,,,,,,,,,,,,,blue,cross
384.0,4.0,4.0,0.0,4.0,4.0,377.3088051530067,4.0,1.0,phase_1,,,,,,,,,,,,,blue,cross
0.0,5.0,0.0,1.0,2.0,2.0,343.2699957338627,4.0,1.0,phase_1,,,,,,,,,,,,,cyan,circle
420.0,4.0,4.0,0.0,2.0,2.0,333.1312932932633,4.0,1.0,phase_1,,,,,,,,,,,,,blue,cross
94.0,6.0,2.0,1.0,3.0,3.0,367.0282251478056,4.0,1.0,phase_1,,,,,,,,,,,,,orange,square
401.0,4.0,4.0,0.0,2.0,2.0,277.7300858797389,4.0,1.0,phase_1,,,,,,,,,,,,,blue,cross
407.0,4.0,4.0,0.0,3.0,3.0,266.5917705817264,4.0,2.0,phase_1,,,,,,,,,,,,,blue,cross
51.0,1.0,1.0,0.0,1.0,1.0,415.6429518479854,4.0,1.0,phase_1,,,,,,,,,,,,,yellow,diamond
0.0,8.0,4.0,1.0,6.0,6.0,396.3934176572365,1.0,1.0,phase_2,go,250.0,250.0,1.0,,,,,,,,,gray,hexagon
0.0,3.0,3.0,0.0,6.0,6.0,397.2518957307329,1.0,1.0,phase_2,go,250.0,250.0,1.0,,,,,,,,,magenta,I
0.0,4.0,4.0,0.0,6.0,6.0,285.4700636598863,1.0,1.0,phase_2,go,250.0,250.0,1.0,,,,,,,,,blue,cross
0.0,5.0,1.0,1.0,6.0,6.0,296.6768684782437,1.0,1.0,phase_2,go,250.0,250.0,1.0,,,,,,,,,cyan,circle
0.0,1.0,1.0,0.0,6.0,6.0,252.28475817129947,1.0,1.0,phase_2,go,250.0,250.0,1.0,,,,,,,,,yellow,diamond
0.0,1.0,1.0,0.0,5.0,5.0,275.3871482200338,1.0,1.0,phase_2,go,250.0,250.0,1.0,,,,,,,,,yellow,diamond
0.0,2.0,2.0,0.0,6.0,6.0,254.66066543594928,1.0,1.0,phase_2,go,250.0,250.0,1.0,,,,,,,,,white,flipped triangle
0.0,5.0,1.0,1.0,5.0,0.0,0.0,1.0,1.0,phase_2,stop,250.0,250.0,4.0,,,,,,,,,cyan,circle
0.0,5.0,1.0,1.0,6.0,6.0,267.1723254825338,1.0,1.0,phase_2,go,300.0,250.0,1.0,,,,,,,,,cyan,circle
0.0,8.0,4.0,1.0,6.0,6.0,279.0086142194923,1.0,1.0,phase_2,go,300.0,250.0,1.0,,,,,,,,,gray,hexagon
0.0,1.0,1.0,0.0,5.0,5.0,258.4264966571936,1.0,1.0,phase_2,go,300.0,250.0,1.0,,,,,,,,,yellow,diamond
0.0,1.0,1.0,0.0,6.0,6.0,381.7396364829619,1.0,1.0,phase_2,go,300.0,250.0,1.0,,,,,,,,,yellow,diamond
0.0,3.0,3.0,0.0,6.0,6.0,271.2320374776027,1.0,1.0,phase_2,go,300.0,250.0,1.0,,,,,,,,,magenta,I
0.0,2.0,2.0,0.0,6.0,6.0,261.1259365148726,1.0,1.0,phase_2,go,300.0,250.0,1.0,,,,,,,,,white,flipped triangle
0.0,1.0,1.0,0.0,6.0,6.0,284.4763577377307,1.0,1.0,phase_2,go,300.0,250.0,1.0,,,,,,,,,yellow,diamond
0.0,8.0,4.0,1.0,6.0,6.0,295.1265324372798,1.0,1.0,phase_2,stop,300.0,250.0,3.0,,,,,,,,,gray,hexagon
0.0,7.0,3.0,1.0,5.0,5.0,352.1517314802622,1.0,1.0,phase_2,stop,300.0,200.0,3.0,,,,,,,,,green,triangle
0.0,1.0,1.0,0.0,5.0,5.0,352.8723136987537,1.0,1.0,phase_2,go,250.0,200.0,1.0,,,,,,,,,yellow,diamond
0.0,4.0,4.0,0.0,6.0,6.0,331.0331969551043,1.0,1.0,phase_2,go,250.0,200.0,1.0,,,,,,,,,blue,cross
0.0,6.0,2.0,1.0,5.0,5.0,355.6106349569745,1.0,1.0,phase_2,stop,250.0,200.0,3.0,,,,,,,,,orange,square
0.0,7.0,3.0,1.0,5.0,0.0,0.0,1.0,1.0,phase_2,stop,200.0,200.0,4.0,,,,,,,,,green,triangle
0.0,5.0,1.0,1.0,5.0,0.0,0.0,1.0,1.0,phase_2,stop,250.0,200.0,4.0,,,,,,,,,cyan,circle
0.0,6.0,2.0,1.0,5.0,5.0,775.1231216607266,1.0,1.0,phase_2,go,300.0,200.0,1.0,,,,,,,,,orange,square
0.0,2.0,2.0,0.0,5.0,5.0,379.9233774334425,1.0,1.0,phase_2,go,300.0,200.0,1.0,,,,,,,,,white,flipped triangle
0.0,6.0,2.0,1.0,6.0,6.0,370.437533740187,1.0,1.0,phase_2,stop,300.0,200.0,3.0,,,,,,,,,orange,square
0.0,7.0,3.0,1.0,6.0,0.0,0.0,1.0,1.0,phase_2,stop,300.0,150.0,4.0,,,,,,,,,green,triangle
0.0,1.0,1.0,0.0,6.0,6.0,665.4319799563382,1.0,1.0,phase_2,go,300.0,200.0,1.0,,,,,,,,,yellow,diamond
0.0,4.0,4.0,0.0,5.0,5.0,733.8044680000166,1.0,1.0,phase_2,go,300.0,200.0,1.0,,,,,,,,,blue,cross
0.0,5.0,1.0,1.0,5.0,0.0,0.0,1.0,1.0,phase_2,stop,300.0,200.0,4.0,,,,,,,,,cyan,circle
0.0,6.0,2.0,1.0,6.0,6.0,363.3077669583144,1.0,1.0,phase_2,stop,350.0,200.0,3.0,,,,,,,,,orange,square
0.0,3.0,3.0,0.0,5.0,5.0,1207.1339779577102,1.0,1.0,phase_2,go,350.0,150.0,1.0,,,,,,,,,magenta,I
0.0,2.0,2.0,0.0,6.0,6.0,353.7041379095171,1.0,1.0,phase_2,go,350.0,150.0,1.0,,,,,,,,,white,flipped triangle
0.0,8.0,4.0,1.0,6.0,0.0,0.0,1.0,1.0,phase_2,stop,350.0,150.0,4.0,,,,,,,,,gray,hexagon
0.0,4.0,4.0,0.0,6.0,6.0,603.1053109109052,1.0,1.0,phase_2,go,350.0,200.0,1.0,,,,,,,,,blue,cross
0.0,1.0,1.0,0.0,6.0,6.0,637.2953031750512,1.0,1.0,phase_2,go,350.0,200.0,1.0,,,,,,,,,yellow,diamond
0.0,1.0,1.0,0.0,6.0,6.0,908.179831218149,1.0,1.0,phase_2,go,350.0,200.0,1.0,,,,,,,,,yellow,diamond
0.0,5.0,1.0,1.0,5.0,5.0,474.5870604820084,2.0,1.0,phase_2,go,350.0,200.0,1.0,,,,,,,,,cyan,circle
0.0,7.0,3.0,1.0,5.0,5.0,396.5504172156215,2.0,1.0,phase_2,stop,350.0,200.0,3.0,,,,,,,,,green,triangle
0.0,7.0,3.0,1.0,6.0,0.0,0.0,2.0,1.0,phase_2,stop,300.0,200.0,4.0,,,,,,,,,green,triangle
0.0,2.0,2.0,0.0,5.0,5.0,688.8100296928314,2.0,1.0,phase_2,go,300.0,250.0,1.0,,,,,,,,,white,flipped triangle
0.0,5.0,1.0,1.0,5.0,5.0,364.8748974446789,2.0,1.0,phase_2,stop,300.0,250.0,3.0,,,,,,,,,cyan,circle
0.0,4.0,4.0,0.0,5.0,5.0,702.1324182205717,2.0,1.0,phase_2,go,250.0,250.0,1.0,,,,,,,,,blue,cross
0.0,4.0,4.0,0.0,6.0,6.0,781.664017442381,2.0,1.0,phase_2,go,250.0,250.0,1.0,,,,,,,,,blue,cross
0.0,4.0,4.0,0.0,5.0,5.0,388.4235157893272,2.0,1.0,phase_2,go,250.0,250.0,1.0,,,,,,,,,blue,cross
0.0,2.0,2.0,0.0,5.0,5.0,672.422607698536,2.0,1.0,phase_2,go,250.0,250.0,1.0,,,,,,,,,white,flipped triangle
0.0,7.0,3.0,1.0,6.0,0.0,0.0,2.0,1.0,phase_2,stop,250.0,250.0,4.0,,,,,,,,,green,triangle
0.0,2.0,2.0,0.0,6.0,6.0,706.0595969596761,2.0,1.0,phase_2,go,250.0,300.0,1.0,,,,,,,,,white,flipped triangle
0.0,1.0,1.0,0.0,6.0,6.0,606.0731847392162,2.0,1.0,phase_2,go,250.0,300.0,1.0,,,,,,,,,yellow,diamond
0.0,4.0,4.0,0.0,6.0,6.0,641.6768232156755,2.0,1.0,phase_2,go,250.0,300.0,1.0,,,,,,,,,blue,cross
0.0,8.0,4.0,1.0,5.0,5.0,450.3713007361511,2.0,1.0,phase_2,stop,250.0,300.0,3.0,,,,,,,,,gray,hexagon
0.0,7.0,3.0,1.0,5.0,5.0,675.4328371753218,2.0,1.0,phase_2,go,200.0,300.0,1.0,,,,,,,,,green,triangle
0.0,3.0,3.0,0.0,6.0,6.0,700.8772644767305,2.0,1.0,phase_2,go,200.0,300.0,1.0,,,,,,,,,magenta,I
0.0,8.0,4.0,1.0,5.0,5.0,384.8312562186038,2.0,1.0,phase_2,stop,200.0,300.0,3.0,,,,,,,,,gray,hexagon
0.0,8.0,4.0,1.0,5.0,0.0,0.0,2.0,1.0,phase_2,stop,150.0,300.0,4.0,,,,,,,,,gray,hexagon
0.0,3.0,3.0,0.0,5.0,5.0,780.7760652140132,2.0,1.0,phase_2,go,200.0,300.0,1.0,,,,,,,,,magenta,I
0.0,5.0,1.0,1.0,6.0,0.0,0.0,2.0,1.0,phase_2,stop,200.0,300.0,4.0,,,,,,,,,cyan,circle
0.0,3.0,3.0,0.0,6.0,6.0,759.4736089522485,2.0,1.0,phase_2,go,200.0,350.0,1.0,,,,,,,,,magenta,I
0.0,5.0,1.0,1.0,6.0,0.0,0.0,2.0,1.0,phase_2,stop,200.0,350.0,4.0,,,,,,,,,cyan,circle
0.0,7.0,3.0,1.0,5.0,0.0,0.0,2.0,1.0,phase_2,stop,200.0,400.0,4.0,,,,,,,,,green,triangle
0.0,3.0,3.0,0.0,5.0,5.0,683.1767984331236,2.0,1.0,phase_2,go,250.0,400.0,1.0,,,,,,,,,magenta,I
0.0,8.0,4.0,1.0,5.0,0.0,0.0,2.0,1.0,phase_2,stop,250.0,400.0,4.0,,,,,,,,,gray,hexagon
0.0,7.0,3.0,1.0,5.0,5.0,719.8221161743277,2.0,1.0,phase_2,go,300.0,400.0,1.0,,,,,,,,,green,triangle
0.0,1.0,1.0,0.0,5.0,5.0,731.6756171785528,2.0,1.0,phase_2,go,300.0,400.0,1.0,,,,,,,,,yellow,diamond
0.0,3.0,3.0,0.0,5.0,5.0,384.5396162214456,2.0,1.0,phase_2,go,300.0,400.0,1.0,,,,,,,,,magenta,I
0.0,2.0,2.0,0.0,5.0,5.0,430.3296699581551,2.0,1.0,phase_2,go,300.0,400.0,1.0,,,,,,,,,white,flipped triangle
0.0,5.0,1.0,1.0,6.0,6.0,384.4831499154679,2.0,1.0,phase_2,stop,300.0,400.0,3.0,,,,,,,,,cyan,circle
0.0,3.0,3.0,0.0,5.0,5.0,678.4093944443157,2.0,1.0,phase_2,go,300.0,350.0,1.0,,,,,,,,,magenta,I
0.0,2.0,2.0,0.0,5.0,5.0,746.1478634868399,2.0,1.0,phase_2,go,300.0,350.0,1.0,,,,,,,,,white,flipped triangle
0.0,1.0,1.0,0.0,6.0,6.0,679.4035684361006,2.0,1.0,phase_2,go,300.0,350.0,1.0,,,,,,,,,yellow,diamond
0.0,2.0,2.0,0.0,6.0,6.0,848.8961407347233,2.0,1.0,phase_2,go,300.0,350.0,1.0,,,,,,,,,white,flipped triangle
0.0,6.0,2.0,1.0,5.0,5.0,736.9738926572609,2.0,1.0,phase_2,go,300.0,350.0,1.0,,,,,,,,,orange,square
0.0,3.0,3.0,0.0,5.0,5.0,795.597407479363,2.0,1.0,phase_2,go,300.0,350.0,1.0,,,,,,,,,magenta,I
0.0,5.0,1.0,1.0,6.0,0.0,0.0,3.0,1.0,phase_2,stop,300.0,350.0,4.0,,,,,,,,,cyan,circle
0.0,5.0,1.0,1.0,5.0,5.0,485.5354314422584,3.0,1.0,phase_2,stop,300.0,400.0,3.0,,,,,,,,,cyan,circle
0.0,8.0,4.0,1.0,6.0,6.0,564.5554421789711,3.0,1.0,phase_2,stop,250.0,400.0,3.0,,,,,,,,,gray,hexagon
0.0,6.0,2.0,1.0,5.0,5.0,497.8979189108941,3.0,1.0,phase_2,go,250.0,350.0,1.0,,,,,,,,,orange,square
0.0,4.0,4.0,0.0,6.0,6.0,351.2686062240391,3.0,1.0,phase_2,go,250.0,350.0,1.0,,,,,,,,,blue,cross
0.0,8.0,4.0,1.0,5.0,5.0,453.5306787365698,3.0,1.0,phase_2,go,250.0,350.0,1.0,,,,,,,,,gray,hexagon
0.0,4.0,4.0,0.0,6.0,6.0,590.1720741749159,3.0,1.0,phase_2,go,250.0,350.0,1.0,,,,,,,,,blue,cross
0.0,5.0,1.0,1.0,5.0,5.0,343.5243454368901,3.0,1.0,phase_2,stop,250.0,350.0,3.0,,,,,,,,,cyan,circle
0.0,8.0,4.0,1.0,5.0,0.0,0.0,3.0,1.0,phase_2,stop,200.0,350.0,4.0,,,,,,,,,gray,hexagon
0.0,2.0,2.0,0.0,6.0,6.0,356.57824773079477,3.0,1.0,phase_2,go,250.0,350.0,1.0,,,,,,,,,white,flipped triangle
0.0,3.0,3.0,0.0,5.0,5.0,379.7239735213225,3.0,1.0,phase_2,go,250.0,350.0,1.0,,,,,,,,,magenta,I
0.0,3.0,3.0,0.0,6.0,6.0,561.8347747367807,3.0,1.0,phase_2,go,250.0,350.0,1.0,,,,,,,,,magenta,I
0.0,1.0,1.0,0.0,6.0,6.0,583.4333915772731,3.0,1.0,phase_2,go,250.0,350.0,1.0,,,,,,,,,yellow,diamond
0.0,5.0,1.0,1.0,5.0,5.0,438.5630426913849,3.0,1.0,phase_2,stop,250.0,350.0,3.0,,,,,,,,,cyan,circle
0.0,5.0,1.0,1.0,6.0,6.0,495.2175109574455,3.0,1.0,phase_2,stop,200.0,350.0,3.0,,,,,,,,,cyan,circle
0.0,3.0,3.0,0.0,6.0,6.0,687.2475584386848,3.0,1.0,phase_2,go,200.0,300.0,1.0,,,,,,,,,magenta,I
0.0,6.0,2.0,1.0,5.0,0.0,0.0,3.0,1.0,phase_2,stop,200.0,300.0,4.0,,,,,,,,,orange,square
0.0,5.0,1.0,1.0,6.0,6.0,309.9518282178906,3.0,1.0,phase_2,stop,250.0,300.0,3.0,,,,,,,,,cyan,circle
0.0,2.0,2.0,0.0,5.0,5.0,419.9885719499434,3.0,1.0,phase_2,go,250.0,250.0,1.0,,,,,,,,,white,flipped triangle
0.0,4.0,4.0,0.0,5.0,5.0,546.0706217418192,3.0,1.0,phase_2,go,250.0,250.0,1.0,,,,,,,,,blue,cross
0.0,8.0,4.0,1.0,5.0,5.0,332.5502907318878,3.0,1.0,phase_2,stop,250.0,250.0,3.0,,,,,,,,,gray,hexagon
0.0,3.0,3.0,0.0,6.0,6.0,332.0843874389538,3.0,1.0,phase_2,go,200.0,250.0,1.0,,,,,,,,,magenta,I
0.0,7.0,3.0,1.0,5.0,0.0,0.0,3.0,1.0,phase_2,stop,200.0,250.0,4.0,,,,,,,,,green,triangle
0.0,4.0,4.0,0.0,5.0,5.0,525.7348909144639,3.0,1.0,phase_2,go,250.0,250.0,1.0,,,,,,,,,blue,cross
0.0,2.0,2.0,0.0,5.0,5.0,336.1428269126918,3.0,1.0,phase_2,go,250.0,250.0,1.0,,,,,,,,,white,flipped triangle
0.0,8.0,4.0,1.0,6.0,6.0,549.7417707374552,3.0,1.0,phase_2,go,250.0,250.0,1.0,,,,,,,,,gray,hexagon
0.0,5.0,1.0,1.0,5.0,5.0,461.7284532214398,3.0,1.0,phase_2,stop,250.0,250.0,3.0,,,,,,,,,cyan,circle
0.0,7.0,3.0,1.0,5.0,0.0,0.0,3.0,1.0,phase_2,stop,200.0,250.0,4.0,,,,,,,,,green,triangle
0.0,6.0,2.0,1.0,5.0,0.0,0.0,3.0,1.0,phase_2,stop,250.0,250.0,4.0,,,,,,,,,orange,square
0.0,3.0,3.0,0.0,6.0,6.0,406.5741466911277,3.0,1.0,phase_2,go,300.0,250.0,1.0,,,,,,,,,magenta,I
0.0,1.0,1.0,0.0,5.0,5.0,620.4724837371032,3.0,1.0,phase_2,go,300.0,250.0,1.0,,,,,,,,,yellow,diamond
0.0,3.0,3.0,0.0,6.0,6.0,307.2136427363148,3.0,1.0,phase_2,go,300.0,250.0,1.0,,,,,,,,,magenta,I
0.0,4.0,4.0,0.0,6.0,6.0,341.1424556979909,3.0,1.0,phase_2,go,300.0,250.0,1.0,,,,,,,,,blue,cross
0.0,8.0,4.0,1.0,6.0,6.0,421.405911736656,3.0,1.0,phase_2,stop,300.0,250.0,3.0,,,,,,,,,gray,hexagon
0.0,3.0,3.0,0.0,6.0,6.0,467.1362074441276,3.0,1.0,phase_2,go,300.0,200.0,1.0,,,,,,,,,magenta,I
0.0,4.0,4.0,0.0,5.0,5.0,523.7637119571446,3.0,1.0,phase_2,go,300.0,200.0,1.0,,,,,,,,,blue,cross
0.0,2.0,2.0,0.0,5.0,5.0,693.6344259156613,4.0,1.0,phase_2,go,300.0,200.0,1.0,,,,,,,,,white,flipped triangle
0.0,5.0,1.0,1.0,6.0,6.0,289.791884002625,4.0,1.0,phase_2,stop,300.0,200.0,3.0,,,,,,,,,cyan,circle
0.0,4.0,4.0,0.0,5.0,5.0,470.815565000521,4.0,1.0,phase_2,go,300.0,150.0,1.0,,,,,,,,,blue,cross
0.0,4.0,4.0,0.0,5.0,5.0,337.8496804798487,4.0,1.0,phase_2,go,300.0,150.0,1.0,,,,,,,,,blue,cross
0.0,6.0,2.0,1.0,6.0,6.0,259.1917337413179,4.0,1.0,phase_2,stop,300.0,150.0,3.0,,,,,,,,,orange,square
0.0,6.0,2.0,1.0,6.0,6.0,573.5372524359263,4.0,1.0,phase_2,go,300.0,100.0,1.0,,,,,,,,,orange,square
0.0,3.0,3.0,0.0,6.0,6.0,304.6479057375109,4.0,1.0,phase_2,go,300.0,100.0,1.0,,,,,,,,,magenta,I
0.0,1.0,1.0,0.0,6.0,6.0,284.783096954925,4.0,1.0,phase_2,go,300.0,100.0,1.0,,,,,,,,,yellow,diamond
0.0,8.0,4.0,1.0,6.0,0.0,0.0,4.0,1.0,phase_2,stop,300.0,100.0,4.0,,,,,,,,,gray,hexagon
0.0,8.0,4.0,1.0,6.0,6.0,274.7719397375476,4.0,1.0,phase_2,stop,300.0,150.0,3.0,,,,,,,,,gray,hexagon
0.0,2.0,2.0,0.0,6.0,6.0,522.376612694643,4.0,1.0,phase_2,go,300.0,100.0,1.0,,,,,,,,,white,flipped triangle
0.0,2.0,2.0,0.0,5.0,5.0,410.6784214818617,4.0,1.0,phase_2,go,300.0,100.0,1.0,,,,,,,,,white,flipped triangle
0.0,2.0,2.0,0.0,6.0,6.0,320.7260862618568,4.0,1.0,phase_2,go,300.0,100.0,1.0,,,,,,,,,white,flipped triangle
0.0,3.0,3.0,0.0,5.0,5.0,422.6037504777196,4.0,1.0,phase_2,go,300.0,100.0,1.0,,,,,,,,,magenta,I
0.0,2.0,2.0,0.0,5.0,5.0,356.9432321819477,4.0,1.0,phase_2,go,300.0,100.0,1.0,,,,,,,,,white,flipped triangle
0.0,5.0,1.0,1.0,5.0,5.0,334.3997479096288,4.0,1.0,phase_2,go,300.0,100.0,1.0,,,,,,,,,cyan,circle
0.0,8.0,4.0,1.0,6.0,0.0,0.0,4.0,1.0,phase_2,stop,300.0,100.0,4.0,,,,,,,,,gray,hexagon
0.0,7.0,3.0,1.0,6.0,0.0,0.0,4.0,1.0,phase_2,stop,300.0,150.0,4.0,,,,,,,,,green,triangle
0.0,3.0,3.0,0.0,5.0,5.0,483.9069782174192,4.0,1.0,phase_2,go,300.0,200.0,1.0,,,,,,,,,magenta,I
0.0,6.0,2.0,1.0,5.0,5.0,474.4143360003363,4.0,1.0,phase_2,go,300.0,200.0,1.0,,,,,,,,,orange,square
0.0,8.0,4.0,1.0,6.0,6.0,349.7241846926044,4.0,1.0,phase_2,go,300.0,200.0,1.0,,,,,,,,,gray,hexagon
0.0,1.0,1.0,0.0,5.0,5.0,272.1845414416748,4.0,1.0,phase_2,go,300.0,200.0,1.0,,,,,,,,,yellow,diamond
0.0,6.0,2.0,1.0,6.0,0.0,0.0,4.0,1.0,phase_2,stop,300.0,200.0,4.0,,,,,,,,,orange,square
0.0,8.0,4.0,1.0,6.0,0.0,0.0,4.0,1.0,phase_2,stop,300.0,250.0,4.0,,,,,,,,,gray,hexagon
0.0,1.0,1.0,0.0,6.0,6.0,478.734853953938,4.0,1.0,phase_2,go,300.0,300.0,1.0,,,,,,,,,yellow,diamond
0.0,4.0,4.0,0.0,6.0,6.0,320.843751222128,4.0,1.0,phase_2,go,300.0,300.0,1.0,,,,,,,,,blue,cross
0.0,7.0,3.0,1.0,5.0,5.0,446.6544956958387,4.0,1.0,phase_2,stop,300.0,300.0,3.0,,,,,,,,,green,triangle
0.0,6.0,2.0,1.0,6.0,6.0,457.6926046938752,4.0,1.0,phase_2,stop,250.0,300.0,3.0,,,,,,,,,orange,square
0.0,2.0,2.0,0.0,5.0,5.0,582.8527679987019,4.0,1.0,phase_2,go,250.0,250.0,1.0,,,,,,,,,white,flipped triangle
0.0,5.0,1.0,1.0,6.0,6.0,426.9098494332866,4.0,1.0,phase_2,stop,250.0,250.0,3.0,,,,,,,,,cyan,circle
0.0,6.0,2.0,1.0,6.0,0.0,0.0,4.0,1.0,phase_2,stop,250.0,200.0,4.0,,,,,,,,,orange,square
0.0,2.0,2.0,0.0,6.0,6.0,551.6550410466152,4.0,1.0,phase_2,go,250.0,250.0,1.0,,,,,,,,,white,flipped triangle
0.0,6.0,2.0,1.0,6.0,6.0,294.1744546988047,4.0,1.0,phase_2,go,250.0,250.0,1.0,,,,,,,,,orange,square
0.0,7.0,3.0,1.0,6.0,6.0,362.7823356946464,4.0,1.0,phase_2,stop,250.0,250.0,3.0,,,,,,,,,green,triangle
0.0,2.0,2.0,0.0,6.0,6.0,665.9159604460001,4.0,1.0,phase_2,go,250.0,200.0,1.0,,,,,,,,,white,flipped triangle
0.0,1.0,1.0,0.0,5.0,5.0,555.731726482918,4.0,1.0,phase_2,go,250.0,200.0,1.0,,,,,,,,,yellow,diamond
0.0,2.0,2.0,0.0,6.0,6.0,1146.5803106912065,5.0,1.0,phase_2,go,250.0,200.0,1.0,,,,,,,,,white,flipped triangle
0.0,3.0,3.0,0.0,5.0,5.0,315.6184511753963,5.0,1.0,phase_2,go,250.0,200.0,1.0,,,,,,,,,magenta,I
0.0,7.0,3.0,1.0,6.0,6.0,258.9787540055113,5.0,1.0,phase_2,go,250.0,200.0,1.0,,,,,,,,,green,triangle
0.0,7.0,3.0,1.0,5.0,5.0,384.4956076936796,5.0,1.0,phase_2,stop,250.0,200.0,3.0,,,,,,,,,green,triangle
0.0,6.0,2.0,1.0,5.0,0.0,0.0,5.0,1.0,phase_2,stop,200.0,200.0,4.0,,,,,,,,,orange,square
0.0,6.0,2.0,1.0,6.0,0.0,0.0,5.0,1.0,phase_2,stop,250.0,200.0,4.0,,,,,,,,,orange,square
0.0,2.0,2.0,0.0,5.0,5.0,408.48786944116,5.0,1.0,phase_2,go,250.0,250.0,1.0,,,,,,,,,white,flipped triangle
0.0,8.0,4.0,1.0,5.0,0.0,0.0,5.0,1.0,phase_2,stop,250.0,250.0,4.0,,,,,,,,,gray,hexagon
0.0,5.0,1.0,1.0,6.0,6.0,702.7908664822462,5.0,1.0,phase_2,go,300.0,250.0,1.0,,,,,,,,,cyan,circle
0.0,7.0,3.0,1.0,5.0,0.0,0.0,5.0,1.0,phase_2,stop,300.0,250.0,4.0,,,,,,,,,green,triangle
0.0,7.0,3.0,1.0,6.0,6.0,322.5196431812946,5.0,1.0,phase_2,stop,350.0,250.0,3.0,,,,,,,,,green,triangle
0.0,6.0,2.0,1.0,6.0,0.0,0.0,5.0,1.0,phase_2,stop,350.0,200.0,4.0,,,,,,,,,orange,square
0.0,4.0,4.0,0.0,6.0,6.0,548.2911356593831,5.0,1.0,phase_2,go,350.0,250.0,1.0,,,,,,,,,blue,cross
0.0,6.0,2.0,1.0,5.0,5.0,448.177030259103,5.0,1.0,phase_2,go,350.0,250.0,1.0,,,,,,,,,orange,square
0.0,4.0,4.0,0.0,5.0,5.0,335.7740089559229,5.0,1.0,phase_2,go,350.0,250.0,1.0,,,,,,,,,blue,cross
0.0,2.0,2.0,0.0,5.0,5.0,314.6734049587394,5.0,1.0,phase_2,go,350.0,250.0,1.0,,,,,,,,,white,flipped triangle
0.0,2.0,2.0,0.0,5.0,5.0,393.8572524421033,5.0,1.0,phase_2,go,350.0,250.0,1.0,,,,,,,,,white,flipped triangle
0.0,7.0,3.0,1.0,6.0,6.0,383.9606882611406,5.0,1.0,phase_2,stop,350.0,250.0,3.0,,,,,,,,,green,triangle
0.0,8.0,4.0,1.0,5.0,5.0,542.1642192231957,5.0,1.0,phase_2,stop,350.0,200.0,3.0,,,,,,,,,gray,hexagon
0.0,1.0,1.0,0.0,6.0,6.0,644.2593089086586,5.0,1.0,phase_2,go,300.0,200.0,1.0,,,,,,,,,yellow,diamond
0.0,4.0,4.0,0.0,5.0,5.0,555.9121604383108,5.0,1.0,phase_2,go,300.0,200.0,1.0,,,,,,,,,blue,cross
0.0,4.0,4.0,0.0,6.0,6.0,319.9174009569105,5.0,1.0,phase_2,go,300.0,200.0,1.0,,,,,,,,,blue,cross
0.0,5.0,1.0,1.0,6.0,6.0,601.8471123024938,5.0,1.0,phase_2,go,300.0,200.0,1.0,,,,,,,,,cyan,circle
0.0,1.0,1.0,0.0,5.0,5.0,355.8395132204168,5.0,1.0,phase_2,go,300.0,200.0,1.0,,,,,,,,,yellow,diamond
0.0,3.0,3.0,0.0,5.0,5.0,323.4046386933187,5.0,1.0,phase_2,go,300.0,200.0,1.0,,,,,,,,,magenta,I
0.0,7.0,3.0,1.0,6.0,6.0,322.6209302156348,5.0,1.0,phase_2,stop,300.0,200.0,3.0,,,,,,,,,green,triangle
0.0,3.0,3.0,0.0,5.0,5.0,493.7214540041168,5.0,1.0,phase_2,go,300.0,150.0,1.0,,,,,,,,,magenta,I
0.0,4.0,4.0,0.0,6.0,6.0,515.6269464860088,5.0,1.0,phase_2,go,300.0,150.0,1.0,,,,,,,,,blue,cross
0.0,5.0,1.0,1.0,6.0,6.0,304.0347837813897,5.0,1.0,phase_2,stop,300.0,150.0,3.0,,,,,,,,,cyan,circle
0.0,5.0,1.0,1.0,5.0,0.0,0.0,5.0,1.0,phase_2,stop,300.0,100.0,4.0,,,,,,,,,cyan,circle
0.0,3.0,3.0,0.0,6.0,6.0,518.13055943785,5.0,1.0,phase_2,go,350.0,100.0,1.0,,,,,,,,,magenta,I
0.0,8.0,4.0,1.0,5.0,5.0,541.3623844870017,5.0,1.0,phase_2,stop,350.0,100.0,3.0,,,,,,,,,gray,hexagon
0.0,6.0,2.0,1.0,5.0,0.0,0.0,5.0,1.0,phase_2,stop,300.0,100.0,4.0,,,,,,,,,orange,square
0.0,3.0,3.0,0.0,5.0,5.0,555.4246754400083,5.0,1.0,phase_2,go,350.0,100.0,1.0,,,,,,,,,magenta,I
0.0,1.0,1.0,0.0,5.0,5.0,578.0587084809667,5.0,1.0,phase_2,go,350.0,100.0,1.0,,,,,,,,,yellow,diamond
0.0,1.0,1.0,0.0,5.0,5.0,556.4560754864942,5.0,1.0,phase_2,go,350.0,100.0,1.0,,,,,,,,,yellow,diamond
0.0,8.0,4.0,1.0,6.0,0.0,0.0,6.0,1.0,phase_2,stop,350.0,100.0,4.0,,,,,,,,,gray,hexagon
0.0,5.0,1.0,1.0,5.0,0.0,0.0,6.0,1.0,phase_2,stop,350.0,150.0,4.0,,,,,,,,,cyan,circle
0.0,6.0,2.0,1.0,5.0,0.0,0.0,6.0,1.0,phase_2,stop,400.0,150.0,4.0,,,,,,,,,orange,square
0.0,3.0,3.0,0.0,6.0,6.0,619.8978054380859,6.0,1.0,phase_2,go,450.0,150.0,1.0,,,,,,,,,magenta,I
0.0,4.0,4.0,0.0,5.0,5.0,349.4014787356718,6.0,1.0,phase_2,go,450.0,150.0,1.0,,,,,,,,,blue,cross
0.0,7.0,3.0,1.0,6.0,0.0,0.0,6.0,1.0,phase_2,stop,450.0,150.0,4.0,,,,,,,,,green,triangle
0.0,8.0,4.0,1.0,5.0,5.0,519.5427569633466,6.0,1.0,phase_2,go,450.0,200.0,1.0,,,,,,,,,gray,hexagon
0.0,7.0,3.0,1.0,6.0,6.0,578.1722834362881,6.0,1.0,phase_2,go,450.0,200.0,1.0,,,,,,,,,green,triangle
0.0,2.0,2.0,0.0,6.0,6.0,263.1200504765729,6.0,1.0,phase_2,go,450.0,200.0,1.0,,,,,,,,,white,flipped triangle
0.0,5.0,1.0,1.0,5.0,5.0,625.104018690763,6.0,1.0,phase_2,stop,450.0,200.0,3.0,,,,,,,,,cyan,circle
0.0,7.0,3.0,1.0,6.0,0.0,0.0,6.0,1.0,phase_2,stop,400.0,200.0,4.0,,,,,,,,,green,triangle
0.0,4.0,4.0,0.0,5.0,5.0,670.3271074875374,6.0,1.0,phase_2,go,400.0,250.0,1.0,,,,,,,,,blue,cross
0.0,8.0,4.0,1.0,5.0,5.0,380.1062066995655,6.0,1.0,phase_2,stop,400.0,250.0,3.0,,,,,,,,,gray,hexagon
0.0,6.0,2.0,1.0,5.0,0.0,0.0,6.0,1.0,phase_2,stop,350.0,250.0,4.0,,,,,,,,,orange,square
0.0,5.0,1.0,1.0,6.0,6.0,291.7582632580888,6.0,1.0,phase_2,go,400.0,250.0,1.0,,,,,,,,,cyan,circle
0.0,7.0,3.0,1.0,6.0,0.0,0.0,6.0,1.0,phase_2,stop,400.0,250.0,4.0,,,,,,,,,green,triangle
0.0,1.0,1.0,0.0,6.0,6.0,538.8938256946858,6.0,1.0,phase_2,go,400.0,300.0,1.0,,,,,,,,,yellow,diamond
0.0,6.0,2.0,1.0,6.0,6.0,382.9455166924163,6.0,1.0,phase_2,go,400.0,300.0,1.0,,,,,,,,,orange,square
0.0,8.0,4.0,1.0,5.0,0.0,0.0,6.0,1.0,phase_2,stop,400.0,300.0,4.0,,,,,,,,,gray,hexagon
0.0,5.0,1.0,1.0,6.0,6.0,406.4725219504908,6.0,1.0,phase_2,stop,450.0,300.0,3.0,,,,,,,,,cyan,circle
0.0,7.0,3.0,1.0,5.0,5.0,522.0312096935231,6.0,1.0,phase_2,stop,450.0,250.0,3.0,,,,,,,,,green,triangle
0.0,1.0,1.0,0.0,5.0,5.0,612.5218777378905,6.0,1.0,phase_2,go,400.0,250.0,1.0,,,,,,,,,yellow,diamond
0.0,6.0,2.0,1.0,5.0,5.0,332.2596674406668,6.0,1.0,phase_2,stop,400.0,250.0,3.0,,,,,,,,,orange,square
0.0,5.0,1.0,1.0,5.0,0.0,0.0,6.0,1.0,phase_2,stop,350.0,250.0,4.0,,,,,,,,,cyan,circle
0.0,2.0,2.0,0.0,5.0,5.0,793.5536572185811,6.0,1.0,phase_2,go,400.0,250.0,1.0,,,,,,,,,white,flipped triangle
0.0,3.0,3.0,0.0,6.0,6.0,311.5992819948587,6.0,1.0,phase_2,go,400.0,250.0,1.0,,,,,,,,,magenta,I
0.0,2.0,2.0,0.0,5.0,5.0,695.0315432186471,6.0,1.0,phase_2,go,400.0,250.0,1.0,,,,,,,,,white,flipped triangle
0.0,2.0,2.0,0.0,5.0,5.0,526.0801960030221,6.0,1.0,phase_2,go,400.0,250.0,1.0,,,,,,,,,white,flipped triangle
0.0,5.0,1.0,1.0,6.0,6.0,312.5871304873726,6.0,1.0,phase_2,stop,400.0,250.0,3.0,,,,,,,,,cyan,circle
0.0,1.0,1.0,0.0,6.0,6.0,707.3340290007764,6.0,1.0,phase_2,go,400.0,200.0,1.0,,,,,,,,,yellow,diamond
0.0,3.0,3.0,0.0,5.0,5.0,393.5375984437996,6.0,1.0,phase_2,go,400.0,200.0,1.0,,,,,,,,,magenta,I
0.0,6.0,2.0,1.0,6.0,6.0,361.1589354404714,6.0,1.0,phase_2,stop,400.0,200.0,3.0,,,,,,,,,orange,square
0.0,8.0,4.0,1.0,5.0,0.0,0.0,6.0,1.0,phase_2,stop,400.0,150.0,4.0,,,,,,,,,gray,hexagon
0.0,2.0,2.0,0.0,6.0,6.0,598.4305717429379,6.0,1.0,phase_2,go,450.0,150.0,1.0,,,,,,,,,white,flipped triangle
0.0,3.0,3.0,0.0,6.0,6.0,452.8616492680157,6.0,1.0,phase_2,go,450.0,150.0,1.0,,,,,,,,,magenta,I
0.0,1.0,1.0,0.0,5.0,5.0,588.888342732389,6.0,1.0,phase_2,go,450.0,150.0,1.0,,,,,,,,,yellow,diamond
0.0,7.0,3.0,1.0,6.0,6.0,426.3996591762407,7.0,1.0,phase_2,go,450.0,150.0,1.0,,,,,,,,,green,triangle
0.0,7.0,3.0,1.0,5.0,5.0,267.6562846972956,7.0,1.0,phase_2,stop,450.0,150.0,3.0,,,,,,,,,green,triangle
0.0,3.0,3.0,0.0,6.0,6.0,347.9903672196087,7.0,1.0,phase_2,go,400.0,150.0,1.0,,,,,,,,,magenta,I
0.0,6.0,2.0,1.0,5.0,5.0,506.5617572181509,7.0,1.0,phase_2,stop,400.0,150.0,3.0,,,,,,,,,orange,square
0.0,2.0,2.0,0.0,5.0,5.0,506.86674448661506,7.0,1.0,phase_2,go,350.0,150.0,1.0,,,,,,,,,white,flipped triangle
0.0,1.0,1.0,0.0,5.0,5.0,395.841765741352,7.0,1.0,phase_2,go,350.0,150.0,1.0,,,,,,,,,yellow,diamond
0.0,8.0,4.0,1.0,5.0,5.0,372.94926095637487,7.0,1.0,phase_2,stop,350.0,150.0,3.0,,,,,,,,,gray,hexagon
0.0,2.0,2.0,0.0,6.0,6.0,284.4094962201779,7.0,1.0,phase_2,go,300.0,150.0,1.0,,,,,,,,,white,flipped triangle
0.0,1.0,1.0,0.0,6.0,6.0,500.07883648504503,7.0,1.0,phase_2,go,300.0,150.0,1.0,,,,,,,,,yellow,diamond
0.0,6.0,2.0,1.0,5.0,0.0,0.0,7.0,1.0,phase_2,stop,300.0,150.0,4.0,,,,,,,,,orange,square
0.0,8.0,4.0,1.0,6.0,6.0,320.3948342197691,7.0,1.0,phase_2,go,350.0,150.0,1.0,,,,,,,,,gray,hexagon
0.0,8.0,4.0,1.0,5.0,5.0,874.3513876979705,7.0,1.0,phase_2,go,350.0,150.0,1.0,,,,,,,,,gray,hexagon
0.0,1.0,1.0,0.0,5.0,5.0,436.2224379583495,7.0,1.0,phase_2,go,350.0,150.0,1.0,,,,,,,,,yellow,diamond
0.0,7.0,3.0,1.0,6.0,6.0,311.7883341765264,7.0,1.0,phase_2,go,350.0,150.0,1.0,,,,,,,,,green,triangle
0.0,2.0,2.0,0.0,6.0,6.0,436.1312552646268,7.0,1.0,phase_2,go,350.0,150.0,1.0,,,,,,,,,white,flipped triangle
0.0,7.0,3.0,1.0,5.0,0.0,0.0,7.0,1.0,phase_2,stop,350.0,150.0,4.0,,,,,,,,,green,triangle
0.0,5.0,1.0,1.0,5.0,0.0,0.0,7.0,1.0,phase_2,stop,400.0,150.0,4.0,,,,,,,,,cyan,circle
0.0,3.0,3.0,0.0,5.0,5.0,652.4987136945128,7.0,1.0,phase_2,go,450.0,150.0,1.0,,,,,,,,,magenta,I
0.0,5.0,1.0,1.0,5.0,5.0,957.3266494408016,7.0,1.0,phase_2,go,450.0,150.0,1.0,,,,,,,,,cyan,circle
0.0,4.0,4.0,0.0,5.0,5.0,632.9037266987143,7.0,1.0,phase_2,go,450.0,150.0,1.0,,,,,,,,,blue,cross
0.0,2.0,2.0,0.0,6.0,6.0,533.1522746564588,7.0,1.0,phase_2,go,450.0,150.0,1.0,,,,,,,,,white,flipped triangle
0.0,6.0,2.0,1.0,6.0,6.0,329.2264314368367,7.0,1.0,phase_2,stop,450.0,150.0,3.0,,,,,,,,,orange,square
0.0,7.0,3.0,1.0,5.0,5.0,319.2531977329054,7.0,1.0,phase_2,stop,450.0,100.0,3.0,,,,,,,,,green,triangle
0.0,5.0,1.0,1.0,6.0,0.0,0.0,7.0,1.0,phase_2,stop,400.0,100.0,4.0,,,,,,,,,cyan,circle
0.0,4.0,4.0,0.0,6.0,6.0,545.807466172846,7.0,1.0,phase_2,go,400.0,150.0,1.0,,,,,,,,,blue,cross
0.0,1.0,1.0,0.0,5.0,5.0,581.1472037385101,7.0,1.0,phase_2,go,400.0,150.0,1.0,,,,,,,,,yellow,diamond
0.0,7.0,3.0,1.0,6.0,6.0,762.460583486245,7.0,1.0,phase_2,go,400.0,150.0,1.0,,,,,,,,,green,triangle
0.0,4.0,4.0,0.0,5.0,5.0,514.9624421756016,7.0,1.0,phase_2,go,400.0,150.0,1.0,,,,,,,,,blue,cross
0.0,2.0,2.0,0.0,6.0,6.0,583.5124299119343,7.0,1.0,phase_2,go,400.0,150.0,1.0,,,,,,,,,white,flipped triangle
0.0,8.0,4.0,1.0,5.0,5.0,393.0442156924982,7.0,1.0,phase_2,stop,400.0,150.0,3.0,,,,,,,,,gray,hexagon
0.0,3.0,3.0,0.0,5.0,5.0,519.0521572585567,7.0,1.0,phase_2,go,350.0,150.0,1.0,,,,,,,,,magenta,I
0.0,7.0,3.0,1.0,6.0,0.0,0.0,7.0,1.0,phase_2,stop,350.0,150.0,4.0,,,,,,,,,green,triangle
0.0,1.0,1.0,0.0,5.0,5.0,350.6224256925634,7.0,1.0,phase_2,go,350.0,200.0,1.0,,,,,,,,,yellow,diamond
0.0,1.0,1.0,0.0,5.0,5.0,632.4171285159537,7.0,1.0,phase_2,go,350.0,200.0,1.0,,,,,,,,,yellow,diamond
0.0,8.0,4.0,1.0,6.0,0.0,0.0,7.0,1.0,phase_2,stop,350.0,200.0,4.0,,,,,,,,,gray,hexagon
0.0,4.0,4.0,0.0,5.0,5.0,454.2796365130925,7.0,1.0,phase_2,go,350.0,250.0,1.0,,,,,,,,,blue,cross
0.0,4.0,4.0,0.0,6.0,6.0,621.3528129956103,8.0,1.0,phase_2,go,350.0,250.0,1.0,,,,,,,,,blue,cross
0.0,4.0,4.0,0.0,6.0,6.0,328.1884252210147,8.0,1.0,phase_2,go,350.0,250.0,1.0,,,,,,,,,blue,cross
0.0,6.0,2.0,1.0,5.0,5.0,328.1346264411695,8.0,1.0,phase_2,stop,350.0,250.0,3.0,,,,,,,,,orange,square
0.0,7.0,3.0,1.0,6.0,6.0,712.6929001751705,8.0,1.0,phase_2,go,300.0,250.0,1.0,,,,,,,,,green,triangle
0.0,4.0,4.0,0.0,5.0,5.0,297.8131292184116,8.0,1.0,phase_2,go,300.0,250.0,1.0,,,,,,,,,blue,cross
0.0,6.0,2.0,1.0,6.0,0.0,0.0,8.0,1.0,phase_2,stop,300.0,250.0,4.0,,,,,,,,,orange,square
0.0,6.0,2.0,1.0,6.0,0.0,0.0,8.0,1.0,phase_2,stop,300.0,300.0,4.0,,,,,,,,,orange,square
0.0,1.0,1.0,0.0,5.0,5.0,366.7653382653952,8.0,1.0,phase_2,go,300.0,350.0,1.0,,,,,,,,,yellow,diamond
0.0,5.0,1.0,1.0,6.0,6.0,783.7043024774175,8.0,1.0,phase_2,go,300.0,350.0,1.0,,,,,,,,,cyan,circle
0.0,4.0,4.0,0.0,6.0,6.0,503.76223873900017,8.0,1.0,phase_2,go,300.0,350.0,1.0,,,,,,,,,blue,cross
0.0,7.0,3.0,1.0,5.0,5.0,311.375964731269,8.0,1.0,phase_2,stop,300.0,350.0,3.0,,,,,,,,,green,triangle
0.0,4.0,4.0,0.0,5.0,5.0,471.1647582225851,8.0,1.0,phase_2,go,250.0,350.0,1.0,,,,,,,,,blue,cross
0.0,1.0,1.0,0.0,6.0,6.0,325.4608969582477,8.0,1.0,phase_2,go,250.0,350.0,1.0,,,,,,,,,yellow,diamond
0.0,5.0,1.0,1.0,5.0,5.0,315.8019659531419,8.0,1.0,phase_2,stop,250.0,350.0,3.0,,,,,,,,,cyan,circle
0.0,7.0,3.0,1.0,5.0,0.0,0.0,8.0,1.0,phase_2,stop,200.0,350.0,4.0,,,,,,,,,green,triangle
0.0,5.0,1.0,1.0,5.0,0.0,0.0,8.0,1.0,phase_2,stop,250.0,350.0,4.0,,,,,,,,,cyan,circle
0.0,4.0,4.0,0.0,5.0,5.0,555.3577469618176,8.0,1.0,phase_2,go,300.0,350.0,1.0,,,,,,,,,blue,cross
0.0,1.0,1.0,0.0,6.0,6.0,375.0094117349363,8.0,1.0,phase_2,go,300.0,350.0,1.0,,,,,,,,,yellow,diamond
0.0,7.0,3.0,1.0,5.0,5.0,624.4641054436215,8.0,1.0,phase_2,go,300.0,350.0,1.0,,,,,,,,,green,triangle
0.0,8.0,4.0,1.0,6.0,6.0,668.7157994383597,8.0,1.0,phase_2,go,300.0,350.0,1.0,,,,,,,,,gray,hexagon
0.0,2.0,2.0,0.0,6.0,6.0,467.0449734840076,8.0,1.0,phase_2,go,300.0,350.0,1.0,,,,,,,,,white,flipped triangle
0.0,6.0,2.0,1.0,6.0,6.0,289.0168732192251,8.0,1.0,phase_2,go,300.0,350.0,1.0,,,,,,,,,orange,square
0.0,6.0,2.0,1.0,6.0,0.0,0.0,8.0,1.0,phase_2,stop,300.0,350.0,4.0,,,,,,,,,orange,square
0.0,3.0,3.0,0.0,6.0,6.0,481.5683994820574,8.0,1.0,phase_2,go,300.0,400.0,1.0,,,,,,,,,magenta,I
0.0,6.0,2.0,1.0,6.0,6.0,348.2400891734869,8.0,1.0,phase_2,stop,300.0,400.0,3.0,,,,,,,,,orange,square
0.0,1.0,1.0,0.0,6.0,6.0,539.9776581762126,8.0,1.0,phase_2,go,300.0,350.0,1.0,,,,,,,,,yellow,diamond
0.0,8.0,4.0,1.0,5.0,0.0,0.0,8.0,1.0,phase_2,stop,300.0,350.0,4.0,,,,,,,,,gray,hexagon
0.0,6.0,2.0,1.0,5.0,0.0,0.0,8.0,1.0,phase_2,stop,350.0,350.0,4.0,,,,,,,,,orange,square
0.0,8.0,4.0,1.0,6.0,0.0,0.0,8.0,1.0,phase_2,stop,400.0,350.0,4.0,,,,,,,,,gray,hexagon
0.0,4.0,4.0,0.0,6.0,6.0,520.8005754393525,8.0,1.0,phase_2,go,400.0,400.0,1.0,,,,,,,,,blue,cross
0.0,3.0,3.0,0.0,5.0,5.0,319.6211194808711,8.0,1.0,phase_2,go,400.0,400.0,1.0,,,,,,,,,magenta,I
0.0,8.0,4.0,1.0,6.0,6.0,286.7609234381234,8.0,1.0,phase_2,stop,400.0,400.0,3.0,,,,,,,,,gray,hexagon
0.0,4.0,4.0,0.0,6.0,6.0,432.1880051720654,8.0,1.0,phase_2,go,400.0,350.0,1.0,,,,,,,,,blue,cross
0.0,3.0,3.0,0.0,5.0,5.0,343.688452434435,8.0,1.0,phase_2,go,400.0,350.0,1.0,,,,,,,,,magenta,I
0.0,3.0,3.0,0.0,6.0,6.0,276.4620710004237,8.0,1.0,phase_2,go,400.0,350.0,1.0,,,,,,,,,magenta,I
0.0,6.0,2.0,1.0,5.0,5.0,277.5616256622015,8.0,1.0,phase_2,stop,400.0,350.0,3.0,,,,,,,,,orange,square
0.0,4.0,4.0,0.0,7.0,5.0,18.9565356267849,1.0,2.0,phase_3,,,,,294.0,6.0,147.0,245.0,196.0,98.0,294.0,49.0,blue,cross
0.0,2.0,2.0,0.0,7.0,2.0,3046.5937928966014,1.0,1.0,phase_3,,,,,216.0,4.0,54.0,216.0,324.0,108.0,162.0,270.0,white,flipped triangle
0.0,6.0,2.0,1.0,7.0,1.0,2014.3743575827102,1.0,1.0,phase_3,,,,,34.0,1.0,34.0,170.0,204.0,68.0,136.0,102.0,orange,square
0.0,5.0,1.0,1.0,7.0,6.0,2025.2953063172754,1.0,1.0,phase_3,,,,,68.0,2.0,170.0,34.0,204.0,136.0,102.0,68.0,cyan,circle
0.0,2.0,2.0,0.0,7.0,5.0,1555.458079899836,1.0,1.0,phase_3,,,,,162.0,3.0,324.0,108.0,54.0,270.0,162.0,216.0,white,flipped triangle
0.0,3.0,3.0,0.0,7.0,4.0,2782.2007038994343,1.0,1.0,phase_3,,,,,170.0,5.0,102.0,34.0,204.0,170.0,136.0,68.0,magenta,I
0.0,7.0,3.0,1.0,7.0,1.0,3323.455114266835,1.0,1.0,phase_3,,,,,108.0,2.0,108.0,270.0,324.0,54.0,216.0,162.0,green,triangle
0.0,1.0,1.0,0.0,7.0,1.0,2727.369881948107,1.0,1.0,phase_3,,,,,78.0,2.0,78.0,195.0,117.0,156.0,234.0,39.0,yellow,diamond
0.0,4.0,4.0,0.0,7.0,5.0,1941.4533658564324,1.0,1.0,phase_3,,,,,264.0,6.0,44.0,88.0,132.0,220.0,264.0,176.0,blue,cross
0.0,8.0,4.0,1.0,7.0,5.0,2471.206372581946,1.0,1.0,phase_3,,,,,117.0,3.0,156.0,39.0,195.0,78.0,117.0,234.0,gray,hexagon
0.0,5.0,1.0,1.0,7.0,6.0,3001.5812339479453,1.0,1.0,phase_3,,,,,108.0,2.0,324.0,54.0,216.0,270.0,162.0,108.0,cyan,circle
0.0,3.0,3.0,0.0,7.0,6.0,2542.15724090318,1.0,1.0,phase_3,,,,,220.0,5.0,44.0,132.0,88.0,264.0,176.0,220.0,magenta,I
0.0,1.0,1.0,0.0,7.0,4.0,3194.00801431766,1.0,1.0,phase_3,,,,,117.0,3.0,78.0,156.0,39.0,117.0,195.0,234.0,yellow,diamond
0.0,6.0,2.0,1.0,7.0,5.0,1797.6457162658337,1.0,2.0,phase_3,,,,,54.0,1.0,270.0,108.0,324.0,162.0,54.0,216.0,orange,square
0.0,4.0,4.0,0.0,7.0,2.0,2438.6252352123847,1.0,1.0,phase_3,,,,,117.0,3.0,156.0,117.0,195.0,39.0,234.0,78.0,blue,cross
0.0,3.0,3.0,0.0,7.0,2.0,3655.132510633848,1.0,1.0,phase_3,,,,,156.0,4.0,234.0,156.0,195.0,78.0,117.0,39.0,magenta,I
0.0,2.0,2.0,0.0,7.0,4.0,1999.6784606337317,1.0,2.0,phase_3,,,,,196.0,4.0,294.0,245.0,98.0,196.0,147.0,49.0,white,flipped triangle
0.0,3.0,3.0,0.0,7.0,6.0,3464.284430949192,1.0,1.0,phase_3,,,,,220.0,5.0,44.0,176.0,264.0,132.0,88.0,220.0,magenta,I
0.0,2.0,2.0,0.0,7.0,3.0,1344.930998631753,1.0,2.0,phase_3,,,,,132.0,3.0,220.0,88.0,132.0,44.0,264.0,176.0,white,flipped triangle
0.0,3.0,3.0,0.0,7.0,4.0,3449.969746543502,1.0,1.0,phase_3,,,,,216.0,4.0,108.0,162.0,54.0,216.0,270.0,324.0,magenta,I
0.0,4.0,4.0,0.0,7.0,4.0,2529.962070584588,2.0,1.0,phase_3,,,,,195.0,5.0,117.0,156.0,234.0,195.0,78.0,39.0,blue,cross
0.0,6.0,2.0,1.0,7.0,3.0,2768.624822216225,2.0,1.0,phase_3,,,,,78.0,2.0,195.0,156.0,78.0,234.0,117.0,39.0,orange,square
0.0,4.0,4.0,0.0,7.0,1.0,2532.2251929537742,2.0,1.0,phase_3,,,,,220.0,5.0,220.0,44.0,132.0,88.0,264.0,176.0,blue,cross
0.0,7.0,3.0,1.0,7.0,5.0,2082.665470588836,2.0,1.0,phase_3,,,,,170.0,5.0,136.0,102.0,68.0,34.0,170.0,204.0,green,triangle
0.0,3.0,3.0,0.0,7.0,5.0,3704.518937003741,2.0,1.0,phase_3,,,,,270.0,5.0,108.0,54.0,216.0,324.0,270.0,162.0,magenta,I
0.0,1.0,1.0,0.0,7.0,6.0,2962.62594289874,2.0,1.0,phase_3,,,,,108.0,2.0,324.0,270.0,162.0,54.0,216.0,108.0,yellow,diamond
0.0,1.0,1.0,0.0,7.0,1.0,4910.583913311712,2.0,1.0,phase_3,,,,,98.0,2.0,98.0,49.0,294.0,245.0,147.0,196.0,yellow,diamond
0.0,7.0,3.0,1.0,7.0,5.0,4697.836723898945,2.0,1.0,phase_3,,,,,98.0,2.0,49.0,294.0,245.0,196.0,98.0,147.0,green,triangle
0.0,4.0,4.0,0.0,7.0,3.0,3498.177192217554,2.0,1.0,phase_3,,,,,204.0,6.0,170.0,136.0,204.0,102.0,68.0,34.0,blue,cross
0.0,5.0,1.0,1.0,7.0,1.0,3116.164690902224,2.0,1.0,phase_3,,,,,98.0,2.0,98.0,147.0,49.0,245.0,294.0,196.0,cyan,circle
0.0,1.0,1.0,0.0,7.0,2.0,3387.177036587673,2.0,1.0,phase_3,,,,,102.0,3.0,34.0,102.0,136.0,204.0,68.0,170.0,yellow,diamond
0.0,3.0,3.0,0.0,7.0,4.0,2343.9503105400945,2.0,1.0,phase_3,,,,,196.0,4.0,98.0,294.0,147.0,196.0,245.0,49.0,magenta,I
0.0,7.0,3.0,1.0,7.0,2.0,3537.1654765403946,2.0,1.0,phase_3,,,,,98.0,2.0,196.0,98.0,245.0,294.0,49.0,147.0,green,triangle
0.0,8.0,4.0,1.0,7.0,5.0,4155.504942267726,2.0,1.0,phase_3,,,,,176.0,4.0,44.0,220.0,132.0,88.0,176.0,264.0,gray,hexagon
0.0,3.0,3.0,0.0,7.0,4.0,2872.5941535885795,2.0,1.0,phase_3,,,,,245.0,5.0,294.0,98.0,49.0,245.0,147.0,196.0,magenta,I
0.0,8.0,4.0,1.0,7.0,5.0,2716.222201634082,2.0,1.0,phase_3,,,,,102.0,3.0,34.0,136.0,68.0,170.0,102.0,204.0,gray,hexagon
0.0,2.0,2.0,0.0,7.0,4.0,2334.6760980057297,2.0,1.0,phase_3,,,,,147.0,3.0,49.0,196.0,98.0,147.0,294.0,245.0,white,flipped triangle
0.0,4.0,4.0,0.0,7.0,1.0,4676.091865905619,2.0,1.0,phase_3,,,,,270.0,5.0,270.0,54.0,108.0,162.0,216.0,324.0,blue,cross
0.0,7.0,3.0,1.0,7.0,6.0,4437.656932270329,2.0,1.0,phase_3,,,,,117.0,3.0,78.0,156.0,234.0,39.0,195.0,117.0,green,triangle
0.0,2.0,2.0,0.0,7.0,1.0,4668.568677538133,2.0,1.0,phase_3,,,,,176.0,4.0,176.0,264.0,44.0,220.0,88.0,132.0,white,flipped triangle
0.0,5.0,1.0,1.0,7.0,5.0,1807.5020003161624,3.0,1.0,phase_3,,,,,98.0,2.0,147.0,49.0,245.0,196.0,98.0,294.0,cyan,circle
0.0,8.0,4.0,1.0,7.0,2.0,2968.421066856536,3.0,1.0,phase_3,,,,,108.0,2.0,270.0,108.0,216.0,162.0,54.0,324.0,gray,hexagon
0.0,6.0,2.0,1.0,7.0,2.0,2711.537505994784,3.0,1.0,phase_3,,,,,88.0,2.0,176.0,88.0,132.0,44.0,220.0,264.0,orange,square
0.0,8.0,4.0,1.0,7.0,3.0,4422.564044267347,3.0,1.0,phase_3,,,,,98.0,2.0,49.0,245.0,98.0,196.0,294.0,147.0,gray,hexagon
0.0,1.0,1.0,0.0,7.0,1.0,2297.2182149533182,3.0,1.0,phase_3,,,,,147.0,3.0,147.0,196.0,294.0,98.0,245.0,49.0,yellow,diamond
0.0,7.0,3.0,1.0,7.0,2.0,3952.2219008940738,3.0,1.0,phase_3,,,,,156.0,4.0,78.0,156.0,234.0,117.0,39.0,195.0,green,triangle
0.0,8.0,4.0,1.0,7.0,2.0,3417.797792957572,3.0,1.0,phase_3,,,,,98.0,2.0,245.0,98.0,196.0,49.0,147.0,294.0,gray,hexagon
0.0,4.0,4.0,0.0,7.0,2.0,3587.8127725809463,3.0,1.0,phase_3,,,,,245.0,5.0,196.0,245.0,49.0,98.0,294.0,147.0,blue,cross
0.0,5.0,1.0,1.0,7.0,1.0,3340.7950668988638,3.0,1.0,phase_3,,,,,88.0,2.0,88.0,176.0,220.0,132.0,264.0,44.0,cyan,circle
0.0,5.0,1.0,1.0,7.0,1.0,2206.1358365390333,3.0,1.0,phase_3,,,,,78.0,2.0,78.0,195.0,234.0,156.0,39.0,117.0,cyan,circle
0.0,7.0,3.0,1.0,7.0,3.0,2218.2783502648817,3.0,1.0,phase_3,,,,,102.0,3.0,68.0,34.0,102.0,170.0,204.0,136.0,green,triangle
0.0,4.0,4.0,0.0,7.0,6.0,2535.489495217917,3.0,1.0,phase_3,,,,,204.0,6.0,102.0,68.0,170.0,34.0,136.0,204.0,blue,cross
0.0,5.0,1.0,1.0,7.0,1.0,3300.488527631387,3.0,1.0,phase_3,,,,,68.0,2.0,68.0,136.0,170.0,204.0,34.0,102.0,cyan,circle
0.0,2.0,2.0,0.0,7.0,4.0,2953.754223271972,3.0,1.0,phase_3,,,,,136.0,4.0,204.0,68.0,102.0,136.0,170.0,34.0,white,flipped triangle
0.0,6.0,2.0,1.0,7.0,5.0,4135.128645000805,3.0,1.0,phase_3,,,,,108.0,2.0,324.0,54.0,162.0,270.0,108.0,216.0,orange,square
0.0,3.0,3.0,0.0,7.0,5.0,4196.484744854388,3.0,1.0,phase_3,,,,,204.0,6.0,170.0,68.0,136.0,102.0,204.0,34.0,magenta,I
0.0,6.0,2.0,1.0,7.0,2.0,3800.1578485345817,3.0,1.0,phase_3,,,,,78.0,2.0,234.0,78.0,39.0,195.0,156.0,117.0,orange,square
0.0,1.0,1.0,0.0,7.0,6.0,4679.3897449970245,3.0,1.0,phase_3,,,,,132.0,3.0,176.0,264.0,220.0,88.0,44.0,132.0,yellow,diamond
0.0,7.0,3.0,1.0,7.0,4.0,3461.5514118995634,3.0,1.0,phase_3,,,,,108.0,2.0,270.0,216.0,324.0,108.0,54.0,162.0,green,triangle
0.0,2.0,2.0,0.0,7.0,2.0,3720.3917415317846,3.0,1.0,phase_3,,,,,117.0,3.0,156.0,117.0,78.0,39.0,234.0,195.0,white,flipped triangle
0.0,5.0,1.0,1.0,7.0,5.0,4505.948894315225,4.0,1.0,phase_3,,,,,108.0,2.0,324.0,54.0,270.0,162.0,108.0,216.0,cyan,circle
0.0,8.0,4.0,1.0,7.0,1.0,4975.202466266637,4.0,1.0,phase_3,,,,,132.0,3.0,132.0,220.0,44.0,88.0,264.0,176.0,gray,hexagon
0.0,8.0,4.0,1.0,7.0,6.0,4550.573403314047,4.0,1.0,phase_3,,,,,117.0,3.0,78.0,234.0,156.0,39.0,195.0,117.0,gray,hexagon
0.0,2.0,2.0,0.0,7.0,3.0,4749.304367898731,4.0,1.0,phase_3,,,,,156.0,4.0,78.0,234.0,156.0,195.0,117.0,39.0,white,flipped triangle
0.0,1.0,1.0,0.0,7.0,4.0,3387.9559705383144,4.0,1.0,phase_3,,,,,108.0,2.0,216.0,162.0,54.0,108.0,270.0,324.0,yellow,diamond
0.0,6.0,2.0,1.0,7.0,1.0,2689.9475002719555,4.0,1.0,phase_3,,,,,68.0,2.0,68.0,136.0,170.0,102.0,204.0,34.0,orange,square
0.0,4.0,4.0,0.0,7.0,3.0,4436.39087631891,4.0,1.0,phase_3,,,,,216.0,4.0,108.0,54.0,216.0,162.0,324.0,270.0,blue,cross
0.0,8.0,4.0,1.0,7.0,4.0,3508.1716988497647,4.0,1.0,phase_3,,,,,108.0,2.0,54.0,324.0,270.0,108.0,216.0,162.0,gray,hexagon
0.0,3.0,3.0,0.0,7.0,4.0,2642.983066951274,4.0,1.0,phase_3,,,,,234.0,6.0,39.0,78.0,117.0,234.0,195.0,156.0,magenta,I
0.0,6.0,2.0,1.0,7.0,6.0,2509.67187826609,4.0,1.0,phase_3,,,,,88.0,2.0,132.0,264.0,220.0,44.0,176.0,88.0,orange,square
0.0,1.0,1.0,0.0,7.0,3.0,1561.800750947441,4.0,2.0,phase_3,,,,,136.0,4.0,102.0,204.0,136.0,68.0,34.0,170.0,yellow,diamond
0.0,2.0,2.0,0.0,7.0,2.0,3092.8226899486617,4.0,1.0,phase_3,,,,,170.0,5.0,68.0,170.0,136.0,102.0,34.0,204.0,white,flipped triangle
0.0,5.0,1.0,1.0,7.0,5.0,2778.756359271938,4.0,1.0,phase_3,,,,,78.0,2.0,156.0,195.0,234.0,117.0,78.0,39.0,cyan,circle
0.0,7.0,3.0,1.0,7.0,5.0,323.2751912655658,4.0,2.0,phase_3,,,,,88.0,2.0,44.0,132.0,176.0,220.0,88.0,264.0,green,triangle
0.0,1.0,1.0,0.0,7.0,5.0,3463.5998185840435,4.0,1.0,phase_3,,,,,132.0,3.0,264.0,220.0,44.0,176.0,132.0,88.0,yellow,diamond
0.0,5.0,1.0,1.0,7.0,2.0,2001.877088630863,4.0,1.0,phase_3,,,,,88.0,2.0,44.0,88.0,176.0,132.0,220.0,264.0,cyan,circle
0.0,7.0,3.0,1.0,7.0,1.0,3140.503279209952,4.0,1.0,phase_3,,,,,88.0,2.0,88.0,132.0,44.0,176.0,220.0,264.0,green,triangle
0.0,8.0,4.0,1.0,7.0,6.0,3793.5403536321246,4.0,1.0,phase_3,,,,,102.0,3.0,68.0,204.0,170.0,136.0,34.0,102.0,gray,hexagon
0.0,6.0,2.0,1.0,7.0,4.0,3525.09496431594,4.0,1.0,phase_3,,,,,98.0,2.0,49.0,294.0,147.0,98.0,196.0,245.0,orange,square
0.0,6.0,2.0,1.0,7.0,6.0,3549.195588217117,4.0,1.0,phase_3,,,,,98.0,2.0,294.0,147.0,245.0,196.0,49.0,98.0,orange,square
