raw_reward_magnitude,stim_reward,stepwise_reward_magnitude,paired_with_stopping,quadrant,response,reaction_time,block,num_trial_presentations,which_part,stop_signal_trial_type,left_SSD,right_SSD,accuracy,chosen_bidding_amount,chosen_bidding_level,possible_bid_1,possible_bid_2,possible_bid_3,possible_bid_4,possible_bid_5,possible_bid_6,color_text,shape_text
210.0,7.0,3.0,1.0,3.0,3.0,355.0590184677276,1.0,1.0,part_1,,,,,,,,,,,,,green,diamond
0.0,7.0,0.0,1.0,3.0,3.0,333.9404984653811,1.0,1.0,part_1,,,,,,,,,,,,,green,diamond
113.0,2.0,2.0,0.0,2.0,2.0,367.8291571268346,1.0,1.0,part_1,,,,,,,,,,,,,white,triangle
214.0,7.0,3.0,1.0,1.0,1.0,334.5095721961115,1.0,1.0,part_1,,,,,,,,,,,,,green,diamond
211.0,7.0,3.0,1.0,3.0,3.0,345.23151366011,1.0,1.0,part_1,,,,,,,,,,,,,green,diamond
416.0,8.0,4.0,1.0,2.0,2.0,358.7969803993474,1.0,1.0,part_1,,,,,,,,,,,,,cyan,flipped triangle
98.0,2.0,2.0,0.0,1.0,1.0,337.762802002544,1.0,1.0,part_1,,,,,,,,,,,,,white,triangle
382.0,8.0,4.0,1.0,4.0,4.0,313.0639503942802,1.0,1.0,part_1,,,,,,,,,,,,,cyan,flipped triangle
34.0,5.0,1.0,1.0,3.0,3.0,348.4767261979868,1.0,1.0,part_1,,,,,,,,,,,,,orange,I
179.0,7.0,3.0,1.0,1.0,1.0,394.9595025987946,1.0,1.0,part_1,,,,,,,,,,,,,green,diamond
111.0,2.0,2.0,0.0,3.0,3.0,337.6524258637801,1.0,1.0,part_1,,,,,,,,,,,,,white,triangle
35.0,5.0,1.0,1.0,4.0,4.0,293.31654766428977,1.0,1.0,part_1,,,,,,,,,,,,,orange,I
423.0,8.0,4.0,1.0,2.0,2.0,329.4934814621229,1.0,1.0,part_1,,,,,,,,,,,,,cyan,flipped triangle
393.0,8.0,4.0,1.0,3.0,3.0,328.541747861891,1.0,1.0,part_1,,,,,,,,,,,,,cyan,flipped triangle
405.0,8.0,4.0,1.0,2.0,2.0,341.7571569225401,1.0,2.0,part_1,,,,,,,,,,,,,cyan,flipped triangle
47.0,5.0,1.0,1.0,4.0,4.0,374.3261561976396,1.0,1.0,part_1,,,,,,,,,,,,,orange,I
64.0,1.0,1.0,0.0,3.0,3.0,387.3676417279057,1.0,1.0,part_1,,,,,,,,,,,,,gray,square
0.0,8.0,0.0,1.0,2.0,2.0,344.0498942654812,1.0,1.0,part_1,,,,,,,,,,,,,cyan,flipped triangle
96.0,6.0,2.0,1.0,1.0,1.0,355.2202699211193,1.0,1.0,part_1,,,,,,,,,,,,,magenta,cross
413.0,4.0,4.0,0.0,1.0,1.0,399.5983566637733,1.0,1.0,part_1,,,,,,,,,,,,,blue,circle
109.0,6.0,2.0,1.0,3.0,3.0,332.1367149983416,1.0,1.0,part_1,,,,,,,,,,,,,magenta,cross
46.0,5.0,1.0,1.0,1.0,1.0,346.0095474656555,1.0,1.0,part_1,,,,,,,,,,,,,orange,I
182.0,7.0,3.0,1.0,2.0,2.0,379.2539179266896,1.0,1.0,part_1,,,,,,,,,,,,,green,diamond
0.0,3.0,0.0,0.0,1.0,1.0,289.7431049277656,1.0,1.0,part_1,,,,,,,,,,,,,yellow,hexagon
400.0,4.0,4.0,0.0,2.0,2.0,348.1051856651902,1.0,1.0,part_1,,,,,,,,,,,,,blue,circle
420.0,8.0,4.0,1.0,3.0,3.0,437.3627661989303,1.0,1.0,part_1,,,,,,,,,,,,,cyan,flipped triangle
189.0,7.0,3.0,1.0,2.0,2.0,313.2734859973425,1.0,1.0,part_1,,,,,,,,,,,,,green,diamond
200.0,7.0,3.0,1.0,2.0,2.0,371.7152434692252,1.0,1.0,part_1,,,,,,,,,,,,,green,diamond
71.0,5.0,1.0,1.0,2.0,2.0,394.692501926329,1.0,1.0,part_1,,,,,,,,,,,,,orange,I
419.0,4.0,4.0,0.0,1.0,1.0,361.8422963991179,1.0,1.0,part_1,,,,,,,,,,,,,blue,circle
0.0,3.0,0.0,0.0,4.0,4.0,361.2273789258324,1.0,1.0,part_1,,,,,,,,,,,,,yellow,hexagon
61.0,5.0,1.0,1.0,2.0,2.0,282.9302113968879,1.0,1.0,part_1,,,,,,,,,,,,,orange,I
0.0,4.0,0.0,0.0,3.0,3.0,282.2574884703499,1.0,1.0,part_1,,,,,,,,,,,,,blue,circle
0.0,4.0,0.0,0.0,3.0,3.0,395.8071294691763,1.0,1.0,part_1,,,,,,,,,,,,,blue,circle
39.0,5.0,1.0,1.0,3.0,3.0,375.2327933980268,1.0,1.0,part_1,,,,,,,,,,,,,orange,I
92.0,2.0,2.0,0.0,4.0,4.0,419.749787200999,1.0,1.0,part_1,,,,,,,,,,,,,white,triangle
179.0,3.0,3.0,0.0,4.0,4.0,341.4734486650559,1.0,1.0,part_1,,,,,,,,,,,,,yellow,hexagon
389.0,4.0,4.0,0.0,1.0,1.0,343.2739013951504,1.0,1.0,part_1,,,,,,,,,,,,,blue,circle
0.0,3.0,0.0,0.0,4.0,4.0,319.3132264641463,1.0,1.0,part_1,,,,,,,,,,,,,yellow,hexagon
400.0,4.0,4.0,0.0,3.0,3.0,367.6085698607494,1.0,1.0,part_1,,,,,,,,,,,,,blue,circle
60.0,1.0,1.0,0.0,3.0,3.0,366.4397263928549,1.0,1.0,part_1,,,,,,,,,,,,,gray,square
215.0,7.0,3.0,1.0,3.0,3.0,299.1542449963162,1.0,1.0,part_1,,,,,,,,,,,,,green,diamond
417.0,4.0,4.0,0.0,3.0,3.0,356.4244954686728,1.0,1.0,part_1,,,,,,,,,,,,,blue,circle
399.0,4.0,4.0,0.0,3.0,3.0,344.5880419312743,1.0,1.0,part_1,,,,,,,,,,,,,blue,circle
217.0,3.0,3.0,0.0,2.0,2.0,390.4369951269473,1.0,1.0,part_1,,,,,,,,,,,,,yellow,hexagon
75.0,5.0,1.0,1.0,2.0,2.0,393.0417668598238,1.0,1.0,part_1,,,,,,,,,,,,,orange,I
421.0,8.0,4.0,1.0,1.0,1.0,640.2458306693006,1.0,2.0,part_1,,,,,,,,,,,,,cyan,flipped triangle
0.0,3.0,0.0,0.0,2.0,2.0,540.763168464764,1.0,1.0,part_1,,,,,,,,,,,,,yellow,hexagon
210.0,3.0,3.0,0.0,4.0,4.0,348.2251091991202,1.0,1.0,part_1,,,,,,,,,,,,,yellow,hexagon
0.0,1.0,0.0,0.0,3.0,3.0,349.6273142009158,1.0,1.0,part_1,,,,,,,,,,,,,gray,square
0.0,4.0,0.0,0.0,3.0,3.0,405.9216379246209,1.0,1.0,part_1,,,,,,,,,,,,,blue,circle
96.0,2.0,2.0,0.0,4.0,4.0,395.7079069296014,1.0,1.0,part_1,,,,,,,,,,,,,white,triangle
0.0,3.0,0.0,0.0,1.0,1.0,328.7353641935624,1.0,1.0,part_1,,,,,,,,,,,,,yellow,hexagon
214.0,7.0,3.0,1.0,4.0,4.0,385.0949344632681,1.0,1.0,part_1,,,,,,,,,,,,,green,diamond
0.0,8.0,0.0,1.0,4.0,4.0,375.825803464977,1.0,1.0,part_1,,,,,,,,,,,,,cyan,flipped triangle
377.0,8.0,4.0,1.0,1.0,1.0,386.4379421283956,1.0,1.0,part_1,,,,,,,,,,,,,cyan,flipped triangle
41.0,5.0,1.0,1.0,1.0,1.0,365.1217359220027,1.0,1.0,part_1,,,,,,,,,,,,,orange,I
51.0,5.0,1.0,1.0,1.0,1.0,353.6308893890236,1.0,1.0,part_1,,,,,,,,,,,,,orange,I
209.0,7.0,3.0,1.0,4.0,4.0,354.0653243981069,1.0,1.0,part_1,,,,,,,,,,,,,green,diamond
42.0,1.0,1.0,0.0,2.0,2.0,390.2101668645628,1.0,1.0,part_1,,,,,,,,,,,,,gray,square
388.0,4.0,4.0,0.0,3.0,3.0,401.0967653957777,1.0,1.0,part_1,,,,,,,,,,,,,blue,circle
406.0,8.0,4.0,1.0,2.0,2.0,322.1381126641063,1.0,1.0,part_1,,,,,,,,,,,,,cyan,flipped triangle
178.0,3.0,3.0,0.0,4.0,4.0,412.2931380043155,1.0,1.0,part_1,,,,,,,,,,,,,yellow,hexagon
109.0,2.0,2.0,0.0,2.0,2.0,369.9244327362976,1.0,1.0,part_1,,,,,,,,,,,,,white,triangle
41.0,1.0,1.0,0.0,4.0,4.0,347.4713776668068,1.0,1.0,part_1,,,,,,,,,,,,,gray,square
72.0,1.0,1.0,0.0,1.0,1.0,335.9213321964489,1.0,1.0,part_1,,,,,,,,,,,,,gray,square
0.0,6.0,0.0,1.0,4.0,4.0,359.5454241221887,1.0,1.0,part_1,,,,,,,,,,,,,magenta,cross
123.0,6.0,2.0,1.0,3.0,3.0,383.1217941260547,1.0,1.0,part_1,,,,,,,,,,,,,magenta,cross
222.0,7.0,3.0,1.0,1.0,1.0,326.007365125406,1.0,1.0,part_1,,,,,,,,,,,,,green,diamond
84.0,6.0,2.0,1.0,2.0,2.0,338.0993637256324,1.0,1.0,part_1,,,,,,,,,,,,,magenta,cross
393.0,4.0,4.0,0.0,2.0,2.0,373.2412511308212,1.0,1.0,part_1,,,,,,,,,,,,,blue,circle
412.0,4.0,4.0,0.0,1.0,1.0,282.0980388642056,1.0,1.0,part_1,,,,,,,,,,,,,blue,circle
0.0,4.0,0.0,0.0,2.0,2.0,408.516561401484,1.0,1.0,part_1,,,,,,,,,,,,,blue,circle
47.0,1.0,1.0,0.0,2.0,2.0,330.4593131251749,1.0,1.0,part_1,,,,,,,,,,,,,gray,square
65.0,1.0,1.0,0.0,1.0,1.0,295.4273064679,1.0,1.0,part_1,,,,,,,,,,,,,gray,square
77.0,2.0,2.0,0.0,3.0,3.0,385.2914117305772,1.0,1.0,part_1,,,,,,,,,,,,,white,triangle
0.0,2.0,0.0,0.0,1.0,1.0,365.4429277303279,1.0,1.0,part_1,,,,,,,,,,,,,white,triangle
0.0,6.0,0.0,1.0,4.0,4.0,297.6668634728412,1.0,1.0,part_1,,,,,,,,,,,,,magenta,cross
0.0,5.0,0.0,1.0,2.0,2.0,321.0311577349785,1.0,1.0,part_1,,,,,,,,,,,,,orange,I
80.0,6.0,2.0,1.0,3.0,3.0,378.0008987305336,1.0,1.0,part_1,,,,,,,,,,,,,magenta,cross
376.0,4.0,4.0,0.0,4.0,4.0,422.359562398924,1.0,1.0,part_1,,,,,,,,,,,,,blue,circle
182.0,3.0,3.0,0.0,3.0,3.0,614.3522679267335,1.0,1.0,part_1,,,,,,,,,,,,,yellow,hexagon
47.0,5.0,1.0,1.0,2.0,2.0,335.1793547335546,1.0,1.0,part_1,,,,,,,,,,,,,orange,I
56.0,1.0,1.0,0.0,3.0,3.0,323.1799616696662,1.0,1.0,part_1,,,,,,,,,,,,,gray,square
86.0,6.0,2.0,1.0,3.0,3.0,380.5718014700687,1.0,1.0,part_1,,,,,,,,,,,,,magenta,cross
40.0,5.0,1.0,1.0,3.0,3.0,301.1227061215322,1.0,1.0,part_1,,,,,,,,,,,,,orange,I
116.0,2.0,2.0,0.0,2.0,2.0,414.4720877302461,1.0,1.0,part_1,,,,,,,,,,,,,white,triangle
0.0,8.0,0.0,1.0,2.0,2.0,359.2665236647008,1.0,1.0,part_1,,,,,,,,,,,,,cyan,flipped triangle
61.0,1.0,1.0,0.0,4.0,4.0,372.3822914689663,1.0,1.0,part_1,,,,,,,,,,,,,gray,square
381.0,4.0,4.0,0.0,4.0,4.0,405.3526274656178,1.0,1.0,part_1,,,,,,,,,,,,,blue,circle
69.0,1.0,1.0,0.0,3.0,3.0,394.2443662017467,1.0,1.0,part_1,,,,,,,,,,,,,gray,square
224.0,3.0,3.0,0.0,4.0,4.0,452.193059194542,1.0,2.0,part_1,,,,,,,,,,,,,yellow,hexagon
393.0,4.0,4.0,0.0,1.0,1.0,341.2584516627248,1.0,1.0,part_1,,,,,,,,,,,,,blue,circle
98.0,2.0,2.0,0.0,2.0,2.0,340.47066412313137,1.0,1.0,part_1,,,,,,,,,,,,,white,triangle
40.0,1.0,1.0,0.0,1.0,1.0,408.2383499262505,1.0,1.0,part_1,,,,,,,,,,,,,gray,square
399.0,8.0,4.0,1.0,3.0,3.0,385.4653920061537,1.0,1.0,part_1,,,,,,,,,,,,,cyan,flipped triangle
393.0,4.0,4.0,0.0,4.0,4.0,431.6186793948873,1.0,1.0,part_1,,,,,,,,,,,,,blue,circle
72.0,5.0,1.0,1.0,3.0,3.0,398.2489089321461,1.0,1.0,part_1,,,,,,,,,,,,,orange,I
0.0,2.0,0.0,0.0,3.0,3.0,533.8720398649457,1.0,1.0,part_1,,,,,,,,,,,,,white,triangle
0.0,1.0,0.0,0.0,3.0,3.0,398.9241826639045,1.0,1.0,part_1,,,,,,,,,,,,,gray,square
392.0,8.0,4.0,1.0,4.0,4.0,329.8824118683114,2.0,1.0,part_1,,,,,,,,,,,,,cyan,flipped triangle
0.0,8.0,0.0,1.0,1.0,1.0,319.0043477297877,2.0,1.0,part_1,,,,,,,,,,,,,cyan,flipped triangle
212.0,3.0,3.0,0.0,3.0,3.0,308.5062053942238,2.0,1.0,part_1,,,,,,,,,,,,,yellow,hexagon
66.0,1.0,1.0,0.0,2.0,2.0,275.2128686624928,2.0,1.0,part_1,,,,,,,,,,,,,gray,square
33.0,1.0,1.0,0.0,1.0,1.0,322.5795501930406,2.0,1.0,part_1,,,,,,,,,,,,,gray,square
178.0,7.0,3.0,1.0,2.0,2.0,332.9005156629137,2.0,1.0,part_1,,,,,,,,,,,,,green,diamond
192.0,7.0,3.0,1.0,4.0,4.0,355.1151964638848,2.0,1.0,part_1,,,,,,,,,,,,,green,diamond
412.0,8.0,4.0,1.0,1.0,1.0,323.0715789322858,2.0,1.0,part_1,,,,,,,,,,,,,cyan,flipped triangle
84.0,2.0,2.0,0.0,3.0,3.0,333.2280064641963,2.0,1.0,part_1,,,,,,,,,,,,,white,triangle
201.0,7.0,3.0,1.0,4.0,4.0,323.498913392541,2.0,1.0,part_1,,,,,,,,,,,,,green,diamond
46.0,1.0,1.0,0.0,2.0,2.0,279.5432865896146,2.0,1.0,part_1,,,,,,,,,,,,,gray,square
0.0,8.0,0.0,1.0,2.0,2.0,313.3869361990946,2.0,1.0,part_1,,,,,,,,,,,,,cyan,flipped triangle
389.0,8.0,4.0,1.0,3.0,3.0,381.4773818594403,2.0,1.0,part_1,,,,,,,,,,,,,cyan,flipped triangle
0.0,7.0,0.0,1.0,4.0,4.0,415.8427934817155,2.0,1.0,part_1,,,,,,,,,,,,,green,diamond
196.0,3.0,3.0,0.0,3.0,3.0,359.2221116632572,2.0,1.0,part_1,,,,,,,,,,,,,yellow,hexagon
200.0,3.0,3.0,0.0,1.0,1.0,292.8924071966321,2.0,1.0,part_1,,,,,,,,,,,,,yellow,hexagon
401.0,4.0,4.0,0.0,1.0,1.0,474.0600329314475,2.0,1.0,part_1,,,,,,,,,,,,,blue,circle
225.0,7.0,3.0,1.0,4.0,4.0,339.1229886692599,2.0,1.0,part_1,,,,,,,,,,,,,green,diamond
116.0,2.0,2.0,0.0,2.0,2.0,295.1688519970048,2.0,1.0,part_1,,,,,,,,,,,,,white,triangle
88.0,2.0,2.0,0.0,4.0,4.0,418.8569676625775,2.0,1.0,part_1,,,,,,,,,,,,,white,triangle
0.0,6.0,0.0,1.0,1.0,1.0,543.4829603982507,2.0,1.0,part_1,,,,,,,,,,,,,magenta,cross
215.0,3.0,3.0,0.0,2.0,2.0,420.1463593926746,2.0,1.0,part_1,,,,,,,,,,,,,yellow,hexagon
196.0,7.0,3.0,1.0,1.0,1.0,330.4712058597943,2.0,1.0,part_1,,,,,,,,,,,,,green,diamond
53.0,5.0,1.0,1.0,3.0,3.0,342.0752518650261,2.0,1.0,part_1,,,,,,,,,,,,,orange,I
403.0,8.0,4.0,1.0,1.0,1.0,275.8481116616167,2.0,1.0,part_1,,,,,,,,,,,,,cyan,flipped triangle
37.0,5.0,1.0,1.0,3.0,3.0,771.3021234012558,2.0,1.0,part_1,,,,,,,,,,,,,orange,I
178.0,7.0,3.0,1.0,2.0,2.0,298.9654489283566,2.0,1.0,part_1,,,,,,,,,,,,,green,diamond
58.0,1.0,1.0,0.0,1.0,1.0,288.9869804639602,2.0,1.0,part_1,,,,,,,,,,,,,gray,square
27.0,1.0,1.0,0.0,2.0,2.0,323.1519398614182,2.0,1.0,part_1,,,,,,,,,,,,,gray,square
195.0,3.0,3.0,0.0,2.0,2.0,302.0195431236061,2.0,1.0,part_1,,,,,,,,,,,,,yellow,hexagon
390.0,4.0,4.0,0.0,3.0,3.0,391.9973323936574,2.0,1.0,part_1,,,,,,,,,,,,,blue,circle
416.0,4.0,4.0,0.0,2.0,2.0,291.3012112694559,2.0,1.0,part_1,,,,,,,,,,,,,blue,circle
405.0,4.0,4.0,0.0,4.0,4.0,336.6686856679735,2.0,1.0,part_1,,,,,,,,,,,,,blue,circle
183.0,7.0,3.0,1.0,2.0,2.0,280.8401921283803,2.0,1.0,part_1,,,,,,,,,,,,,green,diamond
420.0,4.0,4.0,0.0,3.0,3.0,348.4818174692918,2.0,1.0,part_1,,,,,,,,,,,,,blue,circle
58.0,5.0,1.0,1.0,4.0,4.0,416.8578066673944,2.0,2.0,part_1,,,,,,,,,,,,,orange,I
0.0,5.0,0.0,1.0,2.0,2.0,316.4299976633629,2.0,1.0,part_1,,,,,,,,,,,,,orange,I
200.0,7.0,3.0,1.0,4.0,4.0,339.0173211955698,2.0,1.0,part_1,,,,,,,,,,,,,green,diamond
71.0,1.0,1.0,0.0,3.0,3.0,339.780743663141,2.0,1.0,part_1,,,,,,,,,,,,,gray,square
399.0,4.0,4.0,0.0,2.0,2.0,318.6446609252016,2.0,1.0,part_1,,,,,,,,,,,,,blue,circle
401.0,8.0,4.0,1.0,3.0,3.0,420.2503490014351,2.0,1.0,part_1,,,,,,,,,,,,,cyan,flipped triangle
50.0,5.0,1.0,1.0,2.0,2.0,420.710274396697,2.0,2.0,part_1,,,,,,,,,,,,,orange,I
83.0,2.0,2.0,0.0,4.0,4.0,376.1640381999314,2.0,1.0,part_1,,,,,,,,,,,,,white,triangle
201.0,7.0,3.0,1.0,1.0,1.0,355.0113129313104,2.0,1.0,part_1,,,,,,,,,,,,,green,diamond
0.0,6.0,0.0,1.0,2.0,2.0,400.041935929039,2.0,1.0,part_1,,,,,,,,,,,,,magenta,cross
54.0,5.0,1.0,1.0,3.0,3.0,478.620507659798,2.0,1.0,part_1,,,,,,,,,,,,,orange,I
125.0,6.0,2.0,1.0,4.0,4.0,457.9942354685045,2.0,1.0,part_1,,,,,,,,,,,,,magenta,cross
0.0,5.0,0.0,1.0,4.0,4.0,504.3662576645147,2.0,1.0,part_1,,,,,,,,,,,,,orange,I
378.0,8.0,4.0,1.0,4.0,4.0,436.4681478618877,2.0,1.0,part_1,,,,,,,,,,,,,cyan,flipped triangle
0.0,5.0,0.0,1.0,4.0,4.0,401.9352182003786,2.0,1.0,part_1,,,,,,,,,,,,,orange,I
377.0,4.0,4.0,0.0,2.0,2.0,370.1578772015637,2.0,1.0,part_1,,,,,,,,,,,,,blue,circle
98.0,6.0,2.0,1.0,1.0,1.0,392.7311937295599,2.0,1.0,part_1,,,,,,,,,,,,,magenta,cross
214.0,3.0,3.0,0.0,3.0,3.0,403.5451481249765,2.0,1.0,part_1,,,,,,,,,,,,,yellow,hexagon
83.0,6.0,2.0,1.0,3.0,3.0,471.759228472365,2.0,1.0,part_1,,,,,,,,,,,,,magenta,cross
215.0,3.0,3.0,0.0,1.0,1.0,315.3920964687131,2.0,1.0,part_1,,,,,,,,,,,,,yellow,hexagon
0.0,4.0,0.0,0.0,1.0,1.0,396.2644924686174,2.0,1.0,part_1,,,,,,,,,,,,,blue,circle
78.0,6.0,2.0,1.0,3.0,3.0,361.548288470658,2.0,1.0,part_1,,,,,,,,,,,,,magenta,cross
179.0,3.0,3.0,0.0,1.0,1.0,453.9857776326244,2.0,1.0,part_1,,,,,,,,,,,,,yellow,hexagon
0.0,3.0,0.0,0.0,4.0,4.0,363.0204517248785,2.0,1.0,part_1,,,,,,,,,,,,,yellow,hexagon
97.0,6.0,2.0,1.0,2.0,2.0,307.5014014684711,2.0,1.0,part_1,,,,,,,,,,,,,magenta,cross
381.0,8.0,4.0,1.0,4.0,4.0,398.221022929647,2.0,1.0,part_1,,,,,,,,,,,,,cyan,flipped triangle
203.0,7.0,3.0,1.0,1.0,1.0,298.0123693923815,2.0,1.0,part_1,,,,,,,,,,,,,green,diamond
61.0,5.0,1.0,1.0,4.0,4.0,341.5508653997676,2.0,1.0,part_1,,,,,,,,,,,,,orange,I
122.0,6.0,2.0,1.0,1.0,1.0,387.7916394631029,2.0,1.0,part_1,,,,,,,,,,,,,magenta,cross
0.0,8.0,0.0,1.0,3.0,3.0,365.2225087280385,2.0,1.0,part_1,,,,,,,,,,,,,cyan,flipped triangle
0.0,1.0,0.0,0.0,3.0,3.0,388.2624017278431,2.0,1.0,part_1,,,,,,,,,,,,,gray,square
46.0,5.0,1.0,1.0,3.0,3.0,423.448962130351,2.0,1.0,part_1,,,,,,,,,,,,,orange,I
0.0,4.0,0.0,0.0,4.0,4.0,379.1221607316402,2.0,1.0,part_1,,,,,,,,,,,,,blue,circle
113.0,6.0,2.0,1.0,1.0,1.0,358.8032677289448,2.0,1.0,part_1,,,,,,,,,,,,,magenta,cross
175.0,3.0,3.0,0.0,4.0,4.0,335.7414311976754,2.0,1.0,part_1,,,,,,,,,,,,,yellow,hexagon
0.0,8.0,0.0,1.0,3.0,3.0,358.0750616602017,2.0,1.0,part_1,,,,,,,,,,,,,cyan,flipped triangle
179.0,7.0,3.0,1.0,3.0,3.0,381.7428211987135,2.0,1.0,part_1,,,,,,,,,,,,,green,diamond
33.0,5.0,1.0,1.0,4.0,4.0,370.1485704659717,2.0,1.0,part_1,,,,,,,,,,,,,orange,I
30.0,5.0,1.0,1.0,4.0,4.0,394.2010719256359,2.0,1.0,part_1,,,,,,,,,,,,,orange,I
0.0,1.0,0.0,0.0,3.0,3.0,428.1809464664547,2.0,1.0,part_1,,,,,,,,,,,,,gray,square
47.0,1.0,1.0,0.0,4.0,4.0,449.9774882933707,2.0,1.0,part_1,,,,,,,,,,,,,gray,square
86.0,2.0,2.0,0.0,2.0,2.0,372.7081903925864,2.0,1.0,part_1,,,,,,,,,,,,,white,triangle
187.0,3.0,3.0,0.0,3.0,3.0,328.1043293973198,2.0,1.0,part_1,,,,,,,,,,,,,yellow,hexagon
108.0,6.0,2.0,1.0,2.0,2.0,339.8884201233159,2.0,1.0,part_1,,,,,,,,,,,,,magenta,cross
0.0,7.0,0.0,1.0,1.0,1.0,341.8992554652504,2.0,1.0,part_1,,,,,,,,,,,,,green,diamond
93.0,2.0,2.0,0.0,2.0,2.0,330.8551769296173,2.0,1.0,part_1,,,,,,,,,,,,,white,triangle
0.0,5.0,0.0,1.0,1.0,1.0,578.1125339271966,2.0,1.0,part_1,,,,,,,,,,,,,orange,I
200.0,3.0,3.0,0.0,1.0,1.0,444.9219537345925,2.0,1.0,part_1,,,,,,,,,,,,,yellow,hexagon
211.0,3.0,3.0,0.0,2.0,2.0,365.6647448588046,2.0,1.0,part_1,,,,,,,,,,,,,yellow,hexagon
56.0,5.0,1.0,1.0,2.0,2.0,354.1183574707247,2.0,1.0,part_1,,,,,,,,,,,,,orange,I
118.0,6.0,2.0,1.0,2.0,2.0,412.2463869280182,2.0,1.0,part_1,,,,,,,,,,,,,magenta,cross
69.0,5.0,1.0,1.0,1.0,1.0,333.760969726427,2.0,1.0,part_1,,,,,,,,,,,,,orange,I
0.0,6.0,0.0,1.0,4.0,4.0,400.9786183960386,2.0,1.0,part_1,,,,,,,,,,,,,magenta,cross
212.0,7.0,3.0,1.0,3.0,3.0,402.2041979260393,2.0,2.0,part_1,,,,,,,,,,,,,green,diamond
0.0,6.0,0.0,1.0,3.0,3.0,449.0806171961594,2.0,1.0,part_1,,,,,,,,,,,,,magenta,cross
0.0,6.0,0.0,1.0,3.0,3.0,347.3100967312348,2.0,1.0,part_1,,,,,,,,,,,,,magenta,cross
118.0,2.0,2.0,0.0,3.0,3.0,426.7914172014571,2.0,1.0,part_1,,,,,,,,,,,,,white,triangle
100.0,2.0,2.0,0.0,4.0,4.0,472.1816671954002,2.0,1.0,part_1,,,,,,,,,,,,,white,triangle
29.0,1.0,1.0,0.0,4.0,4.0,460.4592039322597,2.0,1.0,part_1,,,,,,,,,,,,,gray,square
412.0,8.0,4.0,1.0,1.0,1.0,418.3853979993728,2.0,1.0,part_1,,,,,,,,,,,,,cyan,flipped triangle
58.0,5.0,1.0,1.0,2.0,2.0,328.4106477294699,2.0,1.0,part_1,,,,,,,,,,,,,orange,I
0.0,6.0,0.0,1.0,4.0,4.0,349.5642799243796,2.0,1.0,part_1,,,,,,,,,,,,,magenta,cross
0.0,5.0,0.0,1.0,2.0,2.0,329.6614521968877,2.0,1.0,part_1,,,,,,,,,,,,,orange,I
0.0,1.0,0.0,0.0,1.0,1.0,364.1649484634399,2.0,1.0,part_1,,,,,,,,,,,,,gray,square
185.0,7.0,3.0,1.0,1.0,1.0,363.2502095933887,2.0,1.0,part_1,,,,,,,,,,,,,green,diamond
393.0,8.0,4.0,1.0,2.0,2.0,361.6001241316553,3.0,1.0,part_1,,,,,,,,,,,,,cyan,flipped triangle
0.0,6.0,0.0,1.0,2.0,2.0,431.44710593333,3.0,1.0,part_1,,,,,,,,,,,,,magenta,cross
194.0,3.0,3.0,0.0,4.0,4.0,363.1072991920518,3.0,1.0,part_1,,,,,,,,,,,,,yellow,hexagon
224.0,7.0,3.0,1.0,2.0,2.0,308.5122303964454,3.0,1.0,part_1,,,,,,,,,,,,,green,diamond
406.0,4.0,4.0,0.0,1.0,1.0,331.8184534000465,3.0,1.0,part_1,,,,,,,,,,,,,blue,circle
413.0,8.0,4.0,1.0,4.0,4.0,375.5184191322769,3.0,1.0,part_1,,,,,,,,,,,,,cyan,flipped triangle
187.0,7.0,3.0,1.0,3.0,3.0,364.0665353959775,3.0,1.0,part_1,,,,,,,,,,,,,green,diamond
209.0,7.0,3.0,1.0,4.0,4.0,387.1028109206236,3.0,1.0,part_1,,,,,,,,,,,,,green,diamond
201.0,3.0,3.0,0.0,1.0,1.0,309.4178644678322,3.0,1.0,part_1,,,,,,,,,,,,,yellow,hexagon
91.0,6.0,2.0,1.0,3.0,3.0,444.7886561974883,3.0,1.0,part_1,,,,,,,,,,,,,magenta,cross
0.0,1.0,0.0,0.0,4.0,4.0,435.2040203957585,3.0,1.0,part_1,,,,,,,,,,,,,gray,square
0.0,2.0,0.0,0.0,2.0,2.0,324.103163467953,3.0,1.0,part_1,,,,,,,,,,,,,white,triangle
197.0,7.0,3.0,1.0,4.0,4.0,368.7192327342927,3.0,1.0,part_1,,,,,,,,,,,,,green,diamond
0.0,3.0,0.0,0.0,2.0,2.0,369.2044875933788,3.0,1.0,part_1,,,,,,,,,,,,,yellow,hexagon
224.0,7.0,3.0,1.0,4.0,4.0,345.9110741969198,3.0,1.0,part_1,,,,,,,,,,,,,green,diamond
0.0,6.0,0.0,1.0,4.0,4.0,471.9236183955217,3.0,1.0,part_1,,,,,,,,,,,,,magenta,cross
39.0,5.0,1.0,1.0,2.0,2.0,314.1499957346241,3.0,1.0,part_1,,,,,,,,,,,,,orange,I
30.0,1.0,1.0,0.0,2.0,2.0,404.7799851978197,3.0,1.0,part_1,,,,,,,,,,,,,gray,square
407.0,8.0,4.0,1.0,4.0,4.0,348.5467616701498,3.0,1.0,part_1,,,,,,,,,,,,,cyan,flipped triangle
0.0,2.0,0.0,0.0,3.0,3.0,315.0236733999918,3.0,1.0,part_1,,,,,,,,,,,,,white,triangle
0.0,4.0,0.0,0.0,3.0,3.0,417.2066963947145,3.0,1.0,part_1,,,,,,,,,,,,,blue,circle
420.0,8.0,4.0,1.0,4.0,4.0,340.5407283935346,3.0,1.0,part_1,,,,,,,,,,,,,cyan,flipped triangle
389.0,8.0,4.0,1.0,4.0,4.0,407.6552238620934,3.0,1.0,part_1,,,,,,,,,,,,,cyan,flipped triangle
393.0,8.0,4.0,1.0,1.0,1.0,599.4969691237202,3.0,1.0,part_1,,,,,,,,,,,,,cyan,flipped triangle
0.0,5.0,0.0,1.0,3.0,3.0,362.8812251990894,3.0,1.0,part_1,,,,,,,,,,,,,orange,I
183.0,3.0,3.0,0.0,3.0,3.0,431.3472801950411,3.0,1.0,part_1,,,,,,,,,,,,,yellow,hexagon
400.0,8.0,4.0,1.0,2.0,2.0,353.9611966625671,3.0,1.0,part_1,,,,,,,,,,,,,cyan,flipped triangle
51.0,1.0,1.0,0.0,3.0,3.0,420.6152031256351,3.0,1.0,part_1,,,,,,,,,,,,,gray,square
192.0,7.0,3.0,1.0,3.0,3.0,387.2190243928344,3.0,1.0,part_1,,,,,,,,,,,,,green,diamond
124.0,2.0,2.0,0.0,1.0,1.0,356.7891579295974,3.0,1.0,part_1,,,,,,,,,,,,,white,triangle
46.0,1.0,1.0,0.0,3.0,3.0,355.8078693968127,3.0,1.0,part_1,,,,,,,,,,,,,gray,square
81.0,6.0,2.0,1.0,2.0,2.0,310.9542773963767,3.0,1.0,part_1,,,,,,,,,,,,,magenta,cross
108.0,2.0,2.0,0.0,3.0,3.0,424.3059398650075,3.0,1.0,part_1,,,,,,,,,,,,,white,triangle
0.0,1.0,0.0,0.0,4.0,4.0,402.2816204669652,3.0,1.0,part_1,,,,,,,,,,,,,gray,square
224.0,7.0,3.0,1.0,3.0,3.0,357.7079932001652,3.0,1.0,part_1,,,,,,,,,,,,,green,diamond
39.0,1.0,1.0,0.0,4.0,4.0,514.9763546651229,3.0,1.0,part_1,,,,,,,,,,,,,gray,square
400.0,8.0,4.0,1.0,2.0,2.0,336.7985809236415,3.0,1.0,part_1,,,,,,,,,,,,,cyan,flipped triangle
92.0,6.0,2.0,1.0,4.0,4.0,427.142373730021,3.0,1.0,part_1,,,,,,,,,,,,,magenta,cross
194.0,7.0,3.0,1.0,2.0,2.0,327.5219291972462,3.0,1.0,part_1,,,,,,,,,,,,,green,diamond
0.0,7.0,0.0,1.0,3.0,3.0,393.3322051234427,3.0,1.0,part_1,,,,,,,,,,,,,green,diamond
96.0,2.0,2.0,0.0,4.0,4.0,395.2869782006019,3.0,1.0,part_1,,,,,,,,,,,,,white,triangle
0.0,2.0,0.0,0.0,1.0,1.0,429.3433676648419,3.0,2.0,part_1,,,,,,,,,,,,,white,triangle
420.0,4.0,4.0,0.0,2.0,2.0,329.5307311273063,3.0,1.0,part_1,,,,,,,,,,,,,blue,circle
403.0,4.0,4.0,0.0,2.0,2.0,352.4231569244875,3.0,1.0,part_1,,,,,,,,,,,,,blue,circle
91.0,6.0,2.0,1.0,1.0,1.0,511.69128020410426,3.0,1.0,part_1,,,,,,,,,,,,,magenta,cross
192.0,3.0,3.0,0.0,3.0,3.0,340.9496261228923,3.0,1.0,part_1,,,,,,,,,,,,,yellow,hexagon
225.0,3.0,3.0,0.0,2.0,2.0,353.4356611926341,3.0,1.0,part_1,,,,,,,,,,,,,yellow,hexagon
399.0,4.0,4.0,0.0,3.0,3.0,387.4333297353587,3.0,1.0,part_1,,,,,,,,,,,,,blue,circle
124.0,6.0,2.0,1.0,4.0,4.0,322.272469595191,3.0,1.0,part_1,,,,,,,,,,,,,magenta,cross
53.0,1.0,1.0,0.0,2.0,2.0,310.4727675963659,3.0,1.0,part_1,,,,,,,,,,,,,gray,square
93.0,6.0,2.0,1.0,4.0,4.0,413.3181797296856,3.0,1.0,part_1,,,,,,,,,,,,,magenta,cross
0.0,1.0,0.0,0.0,2.0,2.0,391.3496509267133,3.0,1.0,part_1,,,,,,,,,,,,,gray,square
0.0,1.0,0.0,0.0,3.0,3.0,378.6901898638461,3.0,1.0,part_1,,,,,,,,,,,,,gray,square
415.0,4.0,4.0,0.0,1.0,1.0,435.8302939945133,3.0,1.0,part_1,,,,,,,,,,,,,blue,circle
97.0,2.0,2.0,0.0,3.0,3.0,392.9620154012809,3.0,1.0,part_1,,,,,,,,,,,,,white,triangle
81.0,2.0,2.0,0.0,2.0,2.0,336.1211381998146,3.0,1.0,part_1,,,,,,,,,,,,,white,triangle
0.0,2.0,0.0,0.0,2.0,2.0,326.9386514657526,3.0,1.0,part_1,,,,,,,,,,,,,white,triangle
47.0,5.0,1.0,1.0,1.0,1.0,438.3378594720852,3.0,1.0,part_1,,,,,,,,,,,,,orange,I
0.0,1.0,0.0,0.0,1.0,1.0,461.6312048674444,3.0,1.0,part_1,,,,,,,,,,,,,gray,square
224.0,3.0,3.0,0.0,3.0,3.0,327.3884159279987,3.0,1.0,part_1,,,,,,,,,,,,,yellow,hexagon
217.0,7.0,3.0,1.0,1.0,1.0,440.0308363910881,3.0,1.0,part_1,,,,,,,,,,,,,green,diamond
105.0,6.0,2.0,1.0,2.0,2.0,385.3521027267561,3.0,1.0,part_1,,,,,,,,,,,,,magenta,cross
103.0,6.0,2.0,1.0,4.0,4.0,374.4599811980151,3.0,1.0,part_1,,,,,,,,,,,,,magenta,cross
0.0,7.0,0.0,1.0,2.0,2.0,342.1258641974418,3.0,1.0,part_1,,,,,,,,,,,,,green,diamond
0.0,3.0,0.0,0.0,3.0,3.0,283.8828476669732,3.0,1.0,part_1,,,,,,,,,,,,,yellow,hexagon
0.0,4.0,0.0,0.0,2.0,2.0,343.0660227313638,3.0,1.0,part_1,,,,,,,,,,,,,blue,circle
0.0,2.0,0.0,0.0,2.0,2.0,332.454437862907,3.0,1.0,part_1,,,,,,,,,,,,,white,triangle
399.0,8.0,4.0,1.0,1.0,1.0,344.3188059682143,3.0,1.0,part_1,,,,,,,,,,,,,cyan,flipped triangle
0.0,5.0,0.0,1.0,2.0,2.0,378.2303957268595,3.0,1.0,part_1,,,,,,,,,,,,,orange,I
178.0,3.0,3.0,0.0,1.0,1.0,422.4340998625848,3.0,1.0,part_1,,,,,,,,,,,,,yellow,hexagon
113.0,6.0,2.0,1.0,3.0,3.0,322.6082677283557,3.0,1.0,part_1,,,,,,,,,,,,,magenta,cross
35.0,1.0,1.0,0.0,1.0,1.0,447.3155003943247,3.0,1.0,part_1,,,,,,,,,,,,,gray,square
108.0,6.0,2.0,1.0,1.0,1.0,390.469840123842,3.0,1.0,part_1,,,,,,,,,,,,,magenta,cross
381.0,8.0,4.0,1.0,3.0,3.0,368.3013108602608,3.0,1.0,part_1,,,,,,,,,,,,,cyan,flipped triangle
378.0,4.0,4.0,0.0,1.0,1.0,447.5270359253045,3.0,1.0,part_1,,,,,,,,,,,,,blue,circle
51.0,5.0,1.0,1.0,1.0,1.0,405.0566516598337,3.0,1.0,part_1,,,,,,,,,,,,,orange,I
49.0,5.0,1.0,1.0,1.0,1.0,416.4196275960421,3.0,1.0,part_1,,,,,,,,,,,,,orange,I
51.0,1.0,1.0,0.0,1.0,1.0,338.3333511956152,3.0,1.0,part_1,,,,,,,,,,,,,gray,square
0.0,7.0,0.0,1.0,3.0,3.0,437.775559927104,3.0,1.0,part_1,,,,,,,,,,,,,green,diamond
185.0,3.0,3.0,0.0,2.0,2.0,507.41593247221317,3.0,1.0,part_1,,,,,,,,,,,,,yellow,hexagon
66.0,5.0,1.0,1.0,4.0,4.0,428.572797391098,3.0,1.0,part_1,,,,,,,,,,,,,orange,I
201.0,3.0,3.0,0.0,1.0,1.0,329.122222661681,3.0,1.0,part_1,,,,,,,,,,,,,yellow,hexagon
88.0,6.0,2.0,1.0,4.0,4.0,396.0295779252192,3.0,1.0,part_1,,,,,,,,,,,,,magenta,cross
399.0,8.0,4.0,1.0,1.0,1.0,362.9615857280441,3.0,1.0,part_1,,,,,,,,,,,,,cyan,flipped triangle
0.0,2.0,0.0,0.0,4.0,4.0,409.5920858671888,3.0,1.0,part_1,,,,,,,,,,,,,white,triangle
0.0,5.0,0.0,1.0,1.0,1.0,566.2385132018244,3.0,1.0,part_1,,,,,,,,,,,,,orange,I
88.0,6.0,2.0,1.0,2.0,2.0,364.8133501264965,3.0,1.0,part_1,,,,,,,,,,,,,magenta,cross
34.0,5.0,1.0,1.0,2.0,2.0,411.38764446805,3.0,1.0,part_1,,,,,,,,,,,,,orange,I
0.0,2.0,0.0,0.0,2.0,2.0,399.3949226714903,3.0,1.0,part_1,,,,,,,,,,,,,white,triangle
192.0,3.0,3.0,0.0,2.0,2.0,367.7705697336932,3.0,1.0,part_1,,,,,,,,,,,,,yellow,hexagon
393.0,4.0,4.0,0.0,2.0,2.0,332.9569859997718,3.0,1.0,part_1,,,,,,,,,,,,,blue,circle
69.0,5.0,1.0,1.0,2.0,2.0,400.6582261936273,3.0,1.0,part_1,,,,,,,,,,,,,orange,I
88.0,2.0,2.0,0.0,2.0,2.0,367.6815234648529,3.0,1.0,part_1,,,,,,,,,,,,,white,triangle
0.0,3.0,0.0,0.0,1.0,1.0,335.4248911273316,3.0,1.0,part_1,,,,,,,,,,,,,yellow,hexagon
39.0,1.0,1.0,0.0,1.0,1.0,483.0119087273488,3.0,1.0,part_1,,,,,,,,,,,,,gray,square
119.0,6.0,2.0,1.0,4.0,4.0,402.7866413962329,3.0,1.0,part_1,,,,,,,,,,,,,magenta,cross
185.0,3.0,3.0,0.0,2.0,2.0,291.3855610022438,3.0,1.0,part_1,,,,,,,,,,,,,yellow,hexagon
113.0,2.0,2.0,0.0,3.0,3.0,325.2083069237415,3.0,1.0,part_1,,,,,,,,,,,,,white,triangle
0.0,8.0,0.0,1.0,1.0,1.0,326.3953556670458,3.0,1.0,part_1,,,,,,,,,,,,,cyan,flipped triangle
100.0,6.0,2.0,1.0,1.0,1.0,382.8902606692281,3.0,1.0,part_1,,,,,,,,,,,,,magenta,cross
39.0,1.0,1.0,0.0,2.0,2.0,286.4741711309762,4.0,1.0,part_1,,,,,,,,,,,,,gray,square
388.0,8.0,4.0,1.0,1.0,1.0,355.0361071975203,4.0,1.0,part_1,,,,,,,,,,,,,cyan,flipped triangle
65.0,5.0,1.0,1.0,1.0,1.0,344.0341678651748,4.0,1.0,part_1,,,,,,,,,,,,,orange,I
412.0,4.0,4.0,0.0,4.0,4.0,423.03485519369127,4.0,1.0,part_1,,,,,,,,,,,,,blue,circle
29.0,5.0,1.0,1.0,4.0,4.0,447.6085268615861,4.0,1.0,part_1,,,,,,,,,,,,,orange,I
209.0,3.0,3.0,0.0,1.0,1.0,334.3779769274988,4.0,1.0,part_1,,,,,,,,,,,,,yellow,hexagon
0.0,4.0,0.0,0.0,3.0,3.0,323.15753086732,4.0,1.0,part_1,,,,,,,,,,,,,blue,circle
116.0,6.0,2.0,1.0,1.0,1.0,313.2616513976245,4.0,1.0,part_1,,,,,,,,,,,,,magenta,cross
203.0,3.0,3.0,0.0,1.0,1.0,372.0623501940281,4.0,2.0,part_1,,,,,,,,,,,,,yellow,hexagon
37.0,1.0,1.0,0.0,3.0,3.0,359.3579939260962,4.0,1.0,part_1,,,,,,,,,,,,,gray,square
197.0,3.0,3.0,0.0,4.0,4.0,349.1881479276344,4.0,1.0,part_1,,,,,,,,,,,,,yellow,hexagon
39.0,5.0,1.0,1.0,1.0,1.0,339.8591544682858,4.0,1.0,part_1,,,,,,,,,,,,,orange,I
381.0,4.0,4.0,0.0,1.0,1.0,440.6353372032754,4.0,1.0,part_1,,,,,,,,,,,,,blue,circle
417.0,8.0,4.0,1.0,4.0,4.0,317.2326777275884,4.0,1.0,part_1,,,,,,,,,,,,,cyan,flipped triangle
195.0,7.0,3.0,1.0,3.0,3.0,419.2302158626262,4.0,2.0,part_1,,,,,,,,,,,,,green,diamond
42.0,5.0,1.0,1.0,3.0,3.0,396.4234543891507,4.0,1.0,part_1,,,,,,,,,,,,,orange,I
396.0,4.0,4.0,0.0,2.0,2.0,330.9830016660271,4.0,1.0,part_1,,,,,,,,,,,,,blue,circle
69.0,1.0,1.0,0.0,1.0,1.0,388.8465913914842,4.0,1.0,part_1,,,,,,,,,,,,,gray,square
96.0,6.0,2.0,1.0,2.0,2.0,389.0179041263764,4.0,1.0,part_1,,,,,,,,,,,,,magenta,cross
79.0,6.0,2.0,1.0,2.0,2.0,410.7371439313283,4.0,1.0,part_1,,,,,,,,,,,,,magenta,cross
0.0,7.0,0.0,1.0,2.0,2.0,401.7208713921718,4.0,1.0,part_1,,,,,,,,,,,,,green,diamond
103.0,2.0,2.0,0.0,3.0,3.0,512.1819739288185,4.0,1.0,part_1,,,,,,,,,,,,,white,triangle
105.0,2.0,2.0,0.0,4.0,4.0,434.3211321247509,4.0,1.0,part_1,,,,,,,,,,,,,white,triangle
80.0,6.0,2.0,1.0,1.0,1.0,335.5013278633123,4.0,1.0,part_1,,,,,,,,,,,,,magenta,cross
421.0,4.0,4.0,0.0,3.0,3.0,447.8849080041982,4.0,1.0,part_1,,,,,,,,,,,,,blue,circle
380.0,8.0,4.0,1.0,2.0,2.0,301.901300859754,4.0,1.0,part_1,,,,,,,,,,,,,cyan,flipped triangle
0.0,4.0,0.0,0.0,1.0,1.0,369.5793017323012,4.0,1.0,part_1,,,,,,,,,,,,,blue,circle
392.0,4.0,4.0,0.0,4.0,4.0,348.4080281195929,4.0,1.0,part_1,,,,,,,,,,,,,blue,circle
0.0,8.0,0.0,1.0,4.0,4.0,359.7917626611888,4.0,1.0,part_1,,,,,,,,,,,,,cyan,flipped triangle
187.0,3.0,3.0,0.0,2.0,2.0,382.5777396632475,4.0,1.0,part_1,,,,,,,,,,,,,yellow,hexagon
91.0,2.0,2.0,0.0,1.0,1.0,395.9560061921365,4.0,1.0,part_1,,,,,,,,,,,,,white,triangle
80.0,2.0,2.0,0.0,1.0,1.0,394.7956207266543,4.0,1.0,part_1,,,,,,,,,,,,,white,triangle
404.0,4.0,4.0,0.0,3.0,3.0,474.3920924665872,4.0,1.0,part_1,,,,,,,,,,,,,blue,circle
113.0,6.0,2.0,1.0,4.0,4.0,384.071276661416,4.0,1.0,part_1,,,,,,,,,,,,,magenta,cross
119.0,2.0,2.0,0.0,3.0,3.0,508.1085521233035,4.0,1.0,part_1,,,,,,,,,,,,,white,triangle
111.0,6.0,2.0,1.0,3.0,3.0,407.7037031238433,4.0,1.0,part_1,,,,,,,,,,,,,magenta,cross
75.0,1.0,1.0,0.0,4.0,4.0,410.2767984659294,4.0,1.0,part_1,,,,,,,,,,,,,gray,square
390.0,8.0,4.0,1.0,2.0,2.0,309.998761928,4.0,1.0,part_1,,,,,,,,,,,,,cyan,flipped triangle
0.0,7.0,0.0,1.0,4.0,4.0,388.7480107296142,4.0,1.0,part_1,,,,,,,,,,,,,green,diamond
125.0,2.0,2.0,0.0,1.0,1.0,308.9997192000737,4.0,1.0,part_1,,,,,,,,,,,,,white,triangle
419.0,8.0,4.0,1.0,4.0,4.0,377.1127779982635,4.0,1.0,part_1,,,,,,,,,,,,,cyan,flipped triangle
175.0,7.0,3.0,1.0,1.0,1.0,355.2713608660269,4.0,1.0,part_1,,,,,,,,,,,,,green,diamond
61.0,1.0,1.0,0.0,4.0,4.0,322.3889798609889,4.0,1.0,part_1,,,,,,,,,,,,,gray,square
224.0,3.0,3.0,0.0,3.0,3.0,389.4161067291861,4.0,1.0,part_1,,,,,,,,,,,,,yellow,hexagon
27.0,5.0,1.0,1.0,4.0,4.0,368.2424728685873,4.0,1.0,part_1,,,,,,,,,,,,,orange,I
215.0,7.0,3.0,1.0,1.0,1.0,381.4079216681421,4.0,1.0,part_1,,,,,,,,,,,,,green,diamond
416.0,4.0,4.0,0.0,2.0,2.0,324.6973942004842,4.0,1.0,part_1,,,,,,,,,,,,,blue,circle
58.0,1.0,1.0,0.0,4.0,4.0,348.5364754669717,4.0,1.0,part_1,,,,,,,,,,,,,gray,square
0.0,3.0,0.0,0.0,3.0,3.0,314.822064465261,4.0,1.0,part_1,,,,,,,,,,,,,yellow,hexagon
187.0,7.0,3.0,1.0,2.0,2.0,292.9284064666717,4.0,1.0,part_1,,,,,,,,,,,,,green,diamond
80.0,2.0,2.0,0.0,4.0,4.0,438.83041992376087,4.0,1.0,part_1,,,,,,,,,,,,,white,triangle
190.0,3.0,3.0,0.0,3.0,3.0,360.8511287311557,4.0,1.0,part_1,,,,,,,,,,,,,yellow,hexagon
393.0,8.0,4.0,1.0,1.0,1.0,317.6797919295495,4.0,1.0,part_1,,,,,,,,,,,,,cyan,flipped triangle
416.0,8.0,4.0,1.0,3.0,3.0,305.7626009322121,4.0,1.0,part_1,,,,,,,,,,,,,cyan,flipped triangle
0.0,7.0,0.0,1.0,4.0,4.0,463.5548731312156,4.0,1.0,part_1,,,,,,,,,,,,,green,diamond
396.0,8.0,4.0,1.0,2.0,2.0,364.7510448645334,4.0,1.0,part_1,,,,,,,,,,,,,cyan,flipped triangle
59.0,5.0,1.0,1.0,3.0,3.0,351.7027414636686,4.0,1.0,part_1,,,,,,,,,,,,,orange,I
214.0,3.0,3.0,0.0,4.0,4.0,374.7300961986184,4.0,1.0,part_1,,,,,,,,,,,,,yellow,hexagon
49.0,1.0,1.0,0.0,3.0,3.0,353.7044132026494,4.0,1.0,part_1,,,,,,,,,,,,,gray,square
34.0,1.0,1.0,0.0,3.0,3.0,421.4654784736922,4.0,1.0,part_1,,,,,,,,,,,,,gray,square
78.0,2.0,2.0,0.0,1.0,1.0,343.2331643925863,4.0,1.0,part_1,,,,,,,,,,,,,white,triangle
0.0,2.0,0.0,0.0,1.0,1.0,366.3204395998036,4.0,1.0,part_1,,,,,,,,,,,,,white,triangle
123.0,6.0,2.0,1.0,4.0,4.0,344.1348339256365,4.0,1.0,part_1,,,,,,,,,,,,,magenta,cross
50.0,1.0,1.0,0.0,1.0,1.0,412.8317569338833,4.0,1.0,part_1,,,,,,,,,,,,,gray,square
77.0,6.0,2.0,1.0,1.0,1.0,334.9167357300757,4.0,1.0,part_1,,,,,,,,,,,,,magenta,cross
389.0,4.0,4.0,0.0,4.0,4.0,380.101326663862,4.0,1.0,part_1,,,,,,,,,,,,,blue,circle
224.0,3.0,3.0,0.0,4.0,4.0,392.7992404715041,4.0,1.0,part_1,,,,,,,,,,,,,yellow,hexagon
224.0,7.0,3.0,1.0,3.0,3.0,459.5922694643377,4.0,1.0,part_1,,,,,,,,,,,,,green,diamond
423.0,4.0,4.0,0.0,4.0,4.0,370.483030397736,4.0,1.0,part_1,,,,,,,,,,,,,blue,circle
404.0,8.0,4.0,1.0,3.0,3.0,338.009423125186,4.0,1.0,part_1,,,,,,,,,,,,,cyan,flipped triangle
34.0,1.0,1.0,0.0,2.0,2.0,361.8220443968312,4.0,1.0,part_1,,,,,,,,,,,,,gray,square
415.0,8.0,4.0,1.0,3.0,3.0,327.2557606615009,4.0,1.0,part_1,,,,,,,,,,,,,cyan,flipped triangle
185.0,7.0,3.0,1.0,4.0,4.0,361.9118697242811,4.0,1.0,part_1,,,,,,,,,,,,,green,diamond
382.0,4.0,4.0,0.0,4.0,4.0,384.4783426684444,4.0,1.0,part_1,,,,,,,,,,,,,blue,circle
0.0,5.0,0.0,1.0,2.0,2.0,341.30014119728,4.0,1.0,part_1,,,,,,,,,,,,,orange,I
91.0,2.0,2.0,0.0,4.0,4.0,340.8784699277021,4.0,1.0,part_1,,,,,,,,,,,,,white,triangle
0.0,7.0,0.0,1.0,2.0,2.0,341.4102115930291,4.0,1.0,part_1,,,,,,,,,,,,,green,diamond
209.0,3.0,3.0,0.0,1.0,1.0,363.863269725698,4.0,1.0,part_1,,,,,,,,,,,,,yellow,hexagon
59.0,1.0,1.0,0.0,4.0,4.0,410.906759192585,4.0,1.0,part_1,,,,,,,,,,,,,gray,square
113.0,2.0,2.0,0.0,1.0,1.0,399.8412185173947,4.0,2.0,part_1,,,,,,,,,,,,,white,triangle
54.0,1.0,1.0,0.0,2.0,2.0,332.6528919278644,4.0,1.0,part_1,,,,,,,,,,,,,gray,square
116.0,6.0,2.0,1.0,2.0,2.0,424.4007487286581,4.0,1.0,part_1,,,,,,,,,,,,,magenta,cross
190.0,7.0,3.0,1.0,2.0,2.0,299.6328191948123,4.0,1.0,part_1,,,,,,,,,,,,,green,diamond
222.0,3.0,3.0,0.0,2.0,2.0,333.7825691996841,4.0,1.0,part_1,,,,,,,,,,,,,yellow,hexagon
189.0,3.0,3.0,0.0,4.0,4.0,436.0746917300275,4.0,1.0,part_1,,,,,,,,,,,,,yellow,hexagon
123.0,2.0,2.0,0.0,3.0,3.0,627.2958103945712,4.0,1.0,part_1,,,,,,,,,,,,,white,triangle
91.0,6.0,2.0,1.0,3.0,3.0,358.4253294611699,4.0,1.0,part_1,,,,,,,,,,,,,magenta,cross
47.0,1.0,1.0,0.0,4.0,4.0,404.4110227259807,4.0,2.0,part_1,,,,,,,,,,,,,gray,square
0.0,8.0,0.0,1.0,2.0,2.0,371.8319961917586,4.0,1.0,part_1,,,,,,,,,,,,,cyan,flipped triangle
108.0,2.0,2.0,0.0,2.0,2.0,428.2739514674176,4.0,1.0,part_1,,,,,,,,,,,,,white,triangle
79.0,2.0,2.0,0.0,1.0,1.0,485.2415407294757,4.0,1.0,part_1,,,,,,,,,,,,,white,triangle
376.0,8.0,4.0,1.0,3.0,3.0,317.4348304673913,4.0,1.0,part_1,,,,,,,,,,,,,cyan,flipped triangle
60.0,5.0,1.0,1.0,4.0,4.0,440.3393194006639,4.0,1.0,part_1,,,,,,,,,,,,,orange,I
98.0,6.0,2.0,1.0,4.0,4.0,351.4845829267869,4.0,1.0,part_1,,,,,,,,,,,,,magenta,cross
91.0,2.0,2.0,0.0,1.0,1.0,498.4072291990742,4.0,1.0,part_1,,,,,,,,,,,,,white,triangle
407.0,4.0,4.0,0.0,4.0,4.0,374.8196187298163,4.0,1.0,part_1,,,,,,,,,,,,,blue,circle
380.0,4.0,4.0,0.0,3.0,3.0,454.3937269991147,4.0,1.0,part_1,,,,,,,,,,,,,blue,circle
123.0,2.0,2.0,0.0,1.0,1.0,332.3068031240836,4.0,1.0,part_1,,,,,,,,,,,,,white,triangle
64.0,5.0,1.0,1.0,1.0,1.0,433.9197121225879,4.0,1.0,part_1,,,,,,,,,,,,,orange,I
122.0,2.0,2.0,0.0,4.0,4.0,387.6492268609581,4.0,1.0,part_1,,,,,,,,,,,,,white,triangle
0.0,7.0,3.0,1.0,6.0,0.0,0.0,1.0,0.0,part_2,stop,250.0,250.0,4.0,,,,,,,,,green,diamond
0.0,2.0,2.0,0.0,5.0,5.0,547.4942898945301,1.0,0.0,part_2,go,250.0,300.0,1.0,,,,,,,,,white,triangle
0.0,4.0,4.0,0.0,5.0,5.0,673.7036131089553,1.0,0.0,part_2,go,250.0,300.0,1.0,,,,,,,,,blue,circle
0.0,1.0,1.0,0.0,6.0,6.0,504.77603615581756,1.0,0.0,part_2,go,250.0,300.0,1.0,,,,,,,,,gray,square
0.0,6.0,2.0,1.0,5.0,0.0,0.0,1.0,0.0,part_2,stop,250.0,300.0,4.0,,,,,,,,,magenta,cross
0.0,3.0,3.0,0.0,6.0,6.0,651.8334262582357,1.0,0.0,part_2,go,300.0,300.0,1.0,,,,,,,,,yellow,hexagon
0.0,7.0,3.0,1.0,6.0,6.0,731.5081722117611,1.0,0.0,part_2,go,300.0,300.0,1.0,,,,,,,,,green,diamond
0.0,7.0,3.0,1.0,5.0,0.0,0.0,1.0,0.0,part_2,stop,300.0,300.0,4.0,,,,,,,,,green,diamond
0.0,7.0,3.0,1.0,5.0,5.0,802.7650833682856,1.0,0.0,part_2,go,350.0,300.0,1.0,,,,,,,,,green,diamond
0.0,1.0,1.0,0.0,5.0,5.0,722.8559468931053,1.0,0.0,part_2,go,350.0,300.0,1.0,,,,,,,,,gray,square
0.0,6.0,2.0,1.0,6.0,0.0,0.0,1.0,0.0,part_2,stop,350.0,300.0,4.0,,,,,,,,,magenta,cross
0.0,4.0,4.0,0.0,6.0,6.0,771.5465872606728,1.0,0.0,part_2,go,350.0,350.0,1.0,,,,,,,,,blue,circle
0.0,1.0,1.0,0.0,6.0,6.0,1008.5035201555002,1.0,0.0,part_2,go,350.0,350.0,1.0,,,,,,,,,gray,square
0.0,7.0,3.0,1.0,5.0,0.0,0.0,1.0,0.0,part_2,stop,350.0,350.0,4.0,,,,,,,,,green,diamond
0.0,7.0,3.0,1.0,5.0,0.0,0.0,1.0,0.0,part_2,stop,400.0,350.0,4.0,,,,,,,,,green,diamond
0.0,8.0,4.0,1.0,6.0,0.0,0.0,1.0,0.0,part_2,stop,450.0,350.0,4.0,,,,,,,,,cyan,flipped triangle
0.0,2.0,2.0,0.0,6.0,6.0,831.1493891087594,1.0,0.0,part_2,go,450.0,400.0,1.0,,,,,,,,,white,triangle
0.0,1.0,1.0,0.0,5.0,5.0,775.8326694165589,1.0,0.0,part_2,go,450.0,400.0,1.0,,,,,,,,,gray,square
0.0,5.0,1.0,1.0,5.0,5.0,651.8163780565374,1.0,0.0,part_2,stop,450.0,400.0,3.0,,,,,,,,,orange,I
0.0,4.0,4.0,0.0,6.0,6.0,822.4351112075965,1.0,0.0,part_2,go,400.0,400.0,1.0,,,,,,,,,blue,circle
0.0,8.0,4.0,1.0,6.0,0.0,0.0,1.0,0.0,part_2,stop,400.0,400.0,4.0,,,,,,,,,cyan,flipped triangle
0.0,7.0,3.0,1.0,5.0,0.0,0.0,1.0,0.0,part_2,stop,400.0,450.0,4.0,,,,,,,,,green,diamond
0.0,2.0,2.0,0.0,5.0,5.0,645.0358949514339,1.0,0.0,part_2,go,450.0,450.0,1.0,,,,,,,,,white,triangle
0.0,6.0,2.0,1.0,5.0,0.0,0.0,1.0,0.0,part_2,stop,450.0,450.0,4.0,,,,,,,,,magenta,cross
0.0,3.0,3.0,0.0,5.0,5.0,893.4390744179836,1.0,0.0,part_2,go,500.0,450.0,1.0,,,,,,,,,yellow,hexagon
0.0,5.0,1.0,1.0,6.0,6.0,815.5046562096686,1.0,0.0,part_2,go,500.0,450.0,1.0,,,,,,,,,orange,I
0.0,8.0,4.0,1.0,5.0,0.0,0.0,1.0,0.0,part_2,stop,500.0,450.0,4.0,,,,,,,,,cyan,flipped triangle
0.0,1.0,1.0,0.0,6.0,6.0,863.4151793667115,1.0,0.0,part_2,go,550.0,450.0,1.0,,,,,,,,,gray,square
0.0,5.0,1.0,1.0,6.0,6.0,1066.1267679461162,1.0,0.0,part_2,go,550.0,450.0,1.0,,,,,,,,,orange,I
0.0,8.0,4.0,1.0,6.0,0.0,0.0,1.0,0.0,part_2,stop,550.0,450.0,4.0,,,,,,,,,cyan,flipped triangle
0.0,5.0,1.0,1.0,6.0,6.0,762.7763101554592,1.0,0.0,part_2,stop,550.0,500.0,3.0,,,,,,,,,orange,I
0.0,7.0,3.0,1.0,5.0,0.0,0.0,1.0,0.0,part_2,stop,550.0,450.0,4.0,,,,,,,,,green,diamond
0.0,6.0,2.0,1.0,6.0,6.0,766.3646384244203,1.0,0.0,part_2,go,600.0,450.0,1.0,,,,,,,,,magenta,cross
0.0,4.0,4.0,0.0,5.0,5.0,924.1302622031072,1.0,0.0,part_2,go,600.0,450.0,1.0,,,,,,,,,blue,circle
0.0,5.0,1.0,1.0,6.0,0.0,0.0,1.0,0.0,part_2,stop,600.0,450.0,4.0,,,,,,,,,orange,I
0.0,7.0,3.0,1.0,6.0,0.0,0.0,1.0,0.0,part_2,stop,600.0,500.0,4.0,,,,,,,,,green,diamond
0.0,5.0,1.0,1.0,5.0,0.0,0.0,2.0,0.0,part_2,stop,600.0,550.0,4.0,,,,,,,,,orange,I
0.0,7.0,3.0,1.0,5.0,5.0,510.4511601020931,2.0,0.0,part_2,go,650.0,550.0,1.0,,,,,,,,,green,diamond
0.0,2.0,2.0,0.0,6.0,6.0,297.8041180467699,2.0,0.0,part_2,go,650.0,550.0,1.0,,,,,,,,,white,triangle
0.0,1.0,1.0,0.0,6.0,6.0,345.1179432595381,2.0,0.0,part_2,go,650.0,550.0,1.0,,,,,,,,,gray,square
0.0,8.0,4.0,1.0,5.0,5.0,322.1988771110773,2.0,0.0,part_2,go,650.0,550.0,1.0,,,,,,,,,cyan,flipped triangle
0.0,7.0,3.0,1.0,5.0,5.0,592.4644771585008,2.0,0.0,part_2,go,650.0,550.0,1.0,,,,,,,,,green,diamond
0.0,5.0,1.0,1.0,6.0,6.0,334.7808162070578,2.0,0.0,part_2,stop,650.0,550.0,3.0,,,,,,,,,orange,I
0.0,8.0,4.0,1.0,6.0,0.0,0.0,2.0,0.0,part_2,stop,650.0,500.0,4.0,,,,,,,,,cyan,flipped triangle
0.0,4.0,4.0,0.0,6.0,6.0,619.3479242065223,2.0,0.0,part_2,go,650.0,550.0,1.0,,,,,,,,,blue,circle
0.0,4.0,4.0,0.0,6.0,6.0,427.3268584147445,2.0,0.0,part_2,go,650.0,550.0,1.0,,,,,,,,,blue,circle
0.0,7.0,3.0,1.0,5.0,5.0,597.416513315693,2.0,0.0,part_2,stop,650.0,550.0,3.0,,,,,,,,,green,diamond
0.0,7.0,3.0,1.0,5.0,5.0,857.981183056836,2.0,0.0,part_2,go,600.0,550.0,1.0,,,,,,,,,green,diamond
0.0,6.0,2.0,1.0,6.0,6.0,554.0305641115992,2.0,0.0,part_2,go,600.0,550.0,1.0,,,,,,,,,magenta,cross
0.0,8.0,4.0,1.0,6.0,6.0,408.0153833710938,2.0,0.0,part_2,stop,600.0,550.0,3.0,,,,,,,,,cyan,flipped triangle
0.0,1.0,1.0,0.0,5.0,5.0,532.516730891075,2.0,0.0,part_2,go,600.0,500.0,1.0,,,,,,,,,gray,square
0.0,3.0,3.0,0.0,5.0,5.0,634.7276823144057,2.0,0.0,part_2,go,600.0,500.0,1.0,,,,,,,,,yellow,hexagon
0.0,5.0,1.0,1.0,6.0,6.0,455.8381523165735,2.0,0.0,part_2,stop,600.0,500.0,3.0,,,,,,,,,orange,I
0.0,2.0,2.0,0.0,6.0,6.0,602.5033139449079,2.0,0.0,part_2,go,600.0,450.0,1.0,,,,,,,,,white,triangle
0.0,5.0,1.0,1.0,6.0,6.0,716.1534322585794,2.0,0.0,part_2,go,600.0,450.0,1.0,,,,,,,,,orange,I
0.0,5.0,1.0,1.0,5.0,5.0,582.7691181038972,2.0,0.0,part_2,go,600.0,450.0,1.0,,,,,,,,,orange,I
0.0,6.0,2.0,1.0,5.0,5.0,391.594305212493,2.0,0.0,part_2,stop,600.0,450.0,3.0,,,,,,,,,magenta,cross
0.0,7.0,3.0,1.0,6.0,6.0,506.1641750507988,2.0,0.0,part_2,go,550.0,450.0,1.0,,,,,,,,,green,diamond
0.0,6.0,2.0,1.0,5.0,5.0,573.7526470547891,2.0,0.0,part_2,go,550.0,450.0,1.0,,,,,,,,,magenta,cross
0.0,1.0,1.0,0.0,5.0,5.0,371.1122791573871,2.0,0.0,part_2,go,550.0,450.0,1.0,,,,,,,,,gray,square
0.0,7.0,3.0,1.0,6.0,6.0,350.9995639469707,2.0,0.0,part_2,stop,550.0,450.0,3.0,,,,,,,,,green,diamond
0.0,8.0,4.0,1.0,5.0,5.0,677.8175842046039,2.0,0.0,part_2,stop,550.0,400.0,3.0,,,,,,,,,cyan,flipped triangle
0.0,6.0,2.0,1.0,5.0,5.0,655.6394012586679,2.0,0.0,part_2,stop,500.0,400.0,3.0,,,,,,,,,magenta,cross
0.0,2.0,2.0,0.0,6.0,6.0,747.2012870566687,2.0,0.0,part_2,go,450.0,400.0,1.0,,,,,,,,,white,triangle
0.0,4.0,4.0,0.0,6.0,6.0,703.2430342005682,2.0,0.0,part_2,go,450.0,400.0,1.0,,,,,,,,,blue,circle
0.0,1.0,1.0,0.0,6.0,6.0,703.0977820541011,2.0,0.0,part_2,go,450.0,400.0,1.0,,,,,,,,,gray,square
0.0,7.0,3.0,1.0,6.0,6.0,422.2283071649144,2.0,0.0,part_2,stop,450.0,400.0,3.0,,,,,,,,,green,diamond
0.0,3.0,3.0,0.0,6.0,6.0,895.1981119971606,2.0,0.0,part_2,go,450.0,350.0,1.0,,,,,,,,,yellow,hexagon
0.0,7.0,3.0,1.0,6.0,0.0,0.0,2.0,0.0,part_2,stop,450.0,350.0,4.0,,,,,,,,,green,diamond
0.0,3.0,3.0,0.0,6.0,6.0,730.0821494209231,2.0,0.0,part_2,go,450.0,400.0,1.0,,,,,,,,,yellow,hexagon
0.0,1.0,1.0,0.0,5.0,5.0,662.8124171111267,2.0,0.0,part_2,go,450.0,400.0,1.0,,,,,,,,,gray,square
0.0,1.0,1.0,0.0,5.0,5.0,641.2924291580566,2.0,0.0,part_2,go,450.0,400.0,1.0,,,,,,,,,gray,square
0.0,4.0,4.0,0.0,6.0,6.0,505.4128762058099,3.0,0.0,part_2,go,450.0,400.0,1.0,,,,,,,,,blue,circle
0.0,3.0,3.0,0.0,6.0,6.0,575.0661841593683,3.0,0.0,part_2,go,450.0,400.0,1.0,,,,,,,,,yellow,hexagon
0.0,2.0,2.0,0.0,6.0,6.0,405.9993721093633,3.0,0.0,part_2,go,450.0,400.0,1.0,,,,,,,,,white,triangle
0.0,4.0,4.0,0.0,5.0,5.0,530.5173321612529,3.0,0.0,part_2,go,450.0,400.0,1.0,,,,,,,,,blue,circle
0.0,5.0,1.0,1.0,5.0,5.0,553.8128758926177,3.0,0.0,part_2,stop,450.0,400.0,3.0,,,,,,,,,orange,I
0.0,7.0,3.0,1.0,6.0,0.0,0.0,3.0,0.0,part_2,stop,400.0,400.0,4.0,,,,,,,,,green,diamond
0.0,8.0,4.0,1.0,5.0,5.0,487.6318759997957,3.0,0.0,part_2,stop,400.0,450.0,3.0,,,,,,,,,cyan,flipped triangle
0.0,4.0,4.0,0.0,6.0,6.0,443.6531920000561,3.0,0.0,part_2,go,350.0,450.0,1.0,,,,,,,,,blue,circle
0.0,2.0,2.0,0.0,5.0,5.0,759.7055051592179,3.0,0.0,part_2,go,350.0,450.0,1.0,,,,,,,,,white,triangle
0.0,8.0,4.0,1.0,6.0,6.0,885.855551205168,3.0,0.0,part_2,go,350.0,450.0,1.0,,,,,,,,,cyan,flipped triangle
0.0,6.0,2.0,1.0,6.0,6.0,333.756846106553,3.0,0.0,part_2,stop,350.0,450.0,3.0,,,,,,,,,magenta,cross
0.0,3.0,3.0,0.0,5.0,5.0,537.540785051533,3.0,0.0,part_2,go,350.0,400.0,1.0,,,,,,,,,yellow,hexagon
0.0,8.0,4.0,1.0,5.0,5.0,493.2459679985186,3.0,0.0,part_2,stop,350.0,400.0,3.0,,,,,,,,,cyan,flipped triangle
0.0,1.0,1.0,0.0,5.0,5.0,684.8244739958318,3.0,0.0,part_2,go,300.0,400.0,1.0,,,,,,,,,gray,square
0.0,3.0,3.0,0.0,6.0,6.0,697.0324971553055,3.0,0.0,part_2,go,300.0,400.0,1.0,,,,,,,,,yellow,hexagon
0.0,5.0,1.0,1.0,5.0,5.0,562.4356861590059,3.0,0.0,part_2,stop,300.0,400.0,3.0,,,,,,,,,orange,I
0.0,6.0,2.0,1.0,6.0,0.0,0.0,3.0,0.0,part_2,stop,250.0,400.0,4.0,,,,,,,,,magenta,cross
0.0,8.0,4.0,1.0,6.0,6.0,553.714160421805,3.0,0.0,part_2,go,250.0,450.0,1.0,,,,,,,,,cyan,flipped triangle
0.0,3.0,3.0,0.0,6.0,6.0,611.4842281604069,3.0,0.0,part_2,go,250.0,450.0,1.0,,,,,,,,,yellow,hexagon
0.0,6.0,2.0,1.0,6.0,0.0,0.0,3.0,0.0,part_2,stop,250.0,450.0,4.0,,,,,,,,,magenta,cross
0.0,1.0,1.0,0.0,6.0,6.0,849.4419102644315,3.0,0.0,part_2,go,250.0,500.0,1.0,,,,,,,,,gray,square
0.0,4.0,4.0,0.0,5.0,5.0,624.2710840524524,3.0,0.0,part_2,go,250.0,500.0,1.0,,,,,,,,,blue,circle
0.0,3.0,3.0,0.0,6.0,6.0,590.7692794207833,3.0,0.0,part_2,go,250.0,500.0,1.0,,,,,,,,,yellow,hexagon
0.0,7.0,3.0,1.0,6.0,0.0,0.0,3.0,0.0,part_2,stop,250.0,500.0,4.0,,,,,,,,,green,diamond
0.0,4.0,4.0,0.0,5.0,5.0,594.4624793119146,3.0,0.0,part_2,go,250.0,550.0,1.0,,,,,,,,,blue,circle
0.0,6.0,2.0,1.0,5.0,0.0,0.0,3.0,0.0,part_2,stop,250.0,550.0,4.0,,,,,,,,,magenta,cross
0.0,2.0,2.0,0.0,5.0,5.0,391.5383313651546,3.0,0.0,part_2,go,300.0,550.0,1.0,,,,,,,,,white,triangle
0.0,8.0,4.0,1.0,6.0,6.0,381.1542652620119,3.0,0.0,part_2,stop,300.0,550.0,3.0,,,,,,,,,cyan,flipped triangle
0.0,4.0,4.0,0.0,6.0,6.0,574.4437261673738,3.0,0.0,part_2,go,300.0,500.0,1.0,,,,,,,,,blue,circle
0.0,5.0,1.0,1.0,5.0,0.0,0.0,3.0,0.0,part_2,stop,300.0,500.0,4.0,,,,,,,,,orange,I
0.0,4.0,4.0,0.0,6.0,6.0,293.9839062019018,3.0,0.0,part_2,go,350.0,500.0,1.0,,,,,,,,,blue,circle
0.0,2.0,2.0,0.0,6.0,6.0,621.2724521028576,3.0,0.0,part_2,go,350.0,500.0,1.0,,,,,,,,,white,triangle
0.0,5.0,1.0,1.0,5.0,0.0,0.0,3.0,0.0,part_2,stop,350.0,500.0,4.0,,,,,,,,,orange,I
0.0,6.0,2.0,1.0,5.0,0.0,0.0,3.0,0.0,part_2,stop,400.0,500.0,4.0,,,,,,,,,magenta,cross
0.0,1.0,1.0,0.0,6.0,6.0,501.4787673644605,3.0,0.0,part_2,go,450.0,500.0,1.0,,,,,,,,,gray,square
0.0,6.0,2.0,1.0,6.0,0.0,0.0,3.0,0.0,part_2,stop,450.0,500.0,4.0,,,,,,,,,magenta,cross
0.0,6.0,2.0,1.0,5.0,5.0,359.974551894993,4.0,0.0,part_2,stop,450.0,550.0,3.0,,,,,,,,,magenta,cross
0.0,2.0,2.0,0.0,6.0,6.0,317.4321632104693,4.0,0.0,part_2,go,400.0,550.0,1.0,,,,,,,,,white,triangle
0.0,8.0,4.0,1.0,5.0,0.0,0.0,4.0,0.0,part_2,stop,400.0,550.0,4.0,,,,,,,,,cyan,flipped triangle
0.0,1.0,1.0,0.0,6.0,6.0,499.1324038928724,4.0,0.0,part_2,go,450.0,550.0,1.0,,,,,,,,,gray,square
0.0,3.0,3.0,0.0,6.0,6.0,500.4008833129774,4.0,0.0,part_2,go,450.0,550.0,1.0,,,,,,,,,yellow,hexagon
0.0,7.0,3.0,1.0,6.0,6.0,511.26826610561693,4.0,0.0,part_2,stop,450.0,550.0,3.0,,,,,,,,,green,diamond
0.0,8.0,4.0,1.0,5.0,0.0,0.0,4.0,0.0,part_2,stop,450.0,500.0,4.0,,,,,,,,,cyan,flipped triangle
0.0,3.0,3.0,0.0,6.0,6.0,422.2283290509949,4.0,0.0,part_2,go,500.0,500.0,1.0,,,,,,,,,yellow,hexagon
0.0,4.0,4.0,0.0,5.0,5.0,447.4817692607757,4.0,0.0,part_2,go,500.0,500.0,1.0,,,,,,,,,blue,circle
0.0,3.0,3.0,0.0,6.0,6.0,560.6978272044216,4.0,0.0,part_2,go,500.0,500.0,1.0,,,,,,,,,yellow,hexagon
0.0,1.0,1.0,0.0,5.0,5.0,583.3651689463295,4.0,0.0,part_2,go,500.0,500.0,1.0,,,,,,,,,gray,square
0.0,8.0,4.0,1.0,5.0,0.0,0.0,4.0,0.0,part_2,stop,500.0,500.0,4.0,,,,,,,,,cyan,flipped triangle
0.0,8.0,4.0,1.0,5.0,0.0,0.0,4.0,0.0,part_2,stop,550.0,500.0,4.0,,,,,,,,,cyan,flipped triangle
0.0,7.0,3.0,1.0,6.0,6.0,1192.6110261119902,4.0,0.0,part_2,go,600.0,500.0,1.0,,,,,,,,,green,diamond
0.0,7.0,3.0,1.0,6.0,6.0,788.1154634742416,4.0,0.0,part_2,stop,600.0,500.0,3.0,,,,,,,,,green,diamond
0.0,6.0,2.0,1.0,5.0,0.0,0.0,4.0,0.0,part_2,stop,600.0,450.0,4.0,,,,,,,,,magenta,cross
0.0,7.0,3.0,1.0,6.0,0.0,0.0,4.0,0.0,part_2,stop,650.0,450.0,4.0,,,,,,,,,green,diamond
0.0,4.0,4.0,0.0,5.0,5.0,363.1168080537463,4.0,0.0,part_2,go,650.0,500.0,1.0,,,,,,,,,blue,circle
0.0,8.0,4.0,1.0,6.0,0.0,0.0,4.0,0.0,part_2,stop,650.0,500.0,4.0,,,,,,,,,cyan,flipped triangle
0.0,1.0,1.0,0.0,5.0,5.0,579.7044742066646,4.0,0.0,part_2,go,650.0,550.0,1.0,,,,,,,,,gray,square
0.0,2.0,2.0,0.0,6.0,6.0,534.2767681577243,4.0,0.0,part_2,go,650.0,550.0,1.0,,,,,,,,,white,triangle
0.0,3.0,3.0,0.0,6.0,6.0,523.8603893158142,4.0,0.0,part_2,go,650.0,550.0,1.0,,,,,,,,,yellow,hexagon
0.0,5.0,1.0,1.0,5.0,0.0,0.0,4.0,0.0,part_2,stop,650.0,550.0,4.0,,,,,,,,,orange,I
0.0,1.0,1.0,0.0,6.0,6.0,537.0570323138963,4.0,0.0,part_2,go,700.0,550.0,1.0,,,,,,,,,gray,square
0.0,8.0,4.0,1.0,6.0,0.0,0.0,4.0,0.0,part_2,stop,700.0,550.0,4.0,,,,,,,,,cyan,flipped triangle
0.0,4.0,4.0,0.0,6.0,6.0,561.2709903653013,4.0,0.0,part_2,go,700.0,600.0,1.0,,,,,,,,,blue,circle
0.0,2.0,2.0,0.0,5.0,5.0,584.4464232068276,4.0,0.0,part_2,go,700.0,600.0,1.0,,,,,,,,,white,triangle
0.0,4.0,4.0,0.0,6.0,6.0,495.5762881072587,4.0,0.0,part_2,go,700.0,600.0,1.0,,,,,,,,,blue,circle
0.0,1.0,1.0,0.0,6.0,6.0,586.0017581580905,4.0,0.0,part_2,go,700.0,600.0,1.0,,,,,,,,,gray,square
0.0,7.0,3.0,1.0,6.0,0.0,0.0,4.0,0.0,part_2,stop,700.0,600.0,4.0,,,,,,,,,green,diamond
0.0,6.0,2.0,1.0,5.0,0.0,0.0,4.0,0.0,part_2,stop,700.0,650.0,4.0,,,,,,,,,magenta,cross
0.0,8.0,4.0,1.0,5.0,5.0,959.9276310545974,4.0,0.0,part_2,go,750.0,650.0,1.0,,,,,,,,,cyan,flipped triangle
0.0,8.0,4.0,1.0,6.0,6.0,837.1968922074302,4.0,0.0,part_2,go,750.0,650.0,1.0,,,,,,,,,cyan,flipped triangle
0.0,4.0,4.0,0.0,5.0,5.0,500.04758405702887,4.0,0.0,part_2,go,750.0,650.0,1.0,,,,,,,,,blue,circle
0.0,8.0,4.0,1.0,6.0,0.0,0.0,4.0,0.0,part_2,stop,750.0,650.0,4.0,,,,,,,,,cyan,flipped triangle
0.0,1.0,1.0,0.0,6.0,6.0,558.3405020588543,4.0,0.0,part_2,go,750.0,700.0,1.0,,,,,,,,,gray,square
0.0,8.0,4.0,1.0,5.0,0.0,0.0,5.0,0.0,part_2,stop,750.0,700.0,4.0,,,,,,,,,cyan,flipped triangle
0.0,4.0,4.0,0.0,5.0,5.0,359.0623384152422,5.0,0.0,part_2,go,800.0,700.0,1.0,,,,,,,,,blue,circle
0.0,4.0,4.0,0.0,5.0,5.0,369.6578612580197,5.0,0.0,part_2,go,800.0,700.0,1.0,,,,,,,,,blue,circle
0.0,2.0,2.0,0.0,5.0,5.0,359.6694234729511,5.0,0.0,part_2,go,800.0,700.0,1.0,,,,,,,,,white,triangle
0.0,7.0,3.0,1.0,6.0,6.0,687.5550032636966,5.0,0.0,part_2,go,800.0,700.0,1.0,,,,,,,,,green,diamond
0.0,3.0,3.0,0.0,5.0,5.0,484.484287109808,5.0,0.0,part_2,go,800.0,700.0,1.0,,,,,,,,,yellow,hexagon
0.0,7.0,3.0,1.0,5.0,5.0,328.4162080526585,5.0,0.0,part_2,stop,800.0,700.0,3.0,,,,,,,,,green,diamond
0.0,1.0,1.0,0.0,6.0,6.0,633.4021722650505,5.0,0.0,part_2,go,750.0,700.0,1.0,,,,,,,,,gray,square
0.0,5.0,1.0,1.0,6.0,6.0,803.3602363648242,5.0,0.0,part_2,stop,750.0,700.0,3.0,,,,,,,,,orange,I
0.0,1.0,1.0,0.0,5.0,5.0,635.4008452544804,5.0,0.0,part_2,go,750.0,650.0,1.0,,,,,,,,,gray,square
0.0,8.0,4.0,1.0,6.0,6.0,679.7598504199414,5.0,0.0,part_2,stop,750.0,650.0,3.0,,,,,,,,,cyan,flipped triangle
0.0,5.0,1.0,1.0,6.0,0.0,0.0,5.0,0.0,part_2,stop,750.0,600.0,4.0,,,,,,,,,orange,I
0.0,4.0,4.0,0.0,5.0,5.0,411.5336923132418,5.0,0.0,part_2,go,750.0,650.0,1.0,,,,,,,,,blue,circle
0.0,8.0,4.0,1.0,5.0,5.0,941.1945942556486,5.0,0.0,part_2,stop,750.0,650.0,3.0,,,,,,,,,cyan,flipped triangle
0.0,6.0,2.0,1.0,6.0,0.0,0.0,5.0,0.0,part_2,go,700.0,650.0,5.0,,,,,,,,,magenta,cross
0.0,3.0,3.0,0.0,5.0,5.0,617.1206332583097,5.0,0.0,part_2,go,700.0,650.0,1.0,,,,,,,,,yellow,hexagon
0.0,6.0,2.0,1.0,5.0,5.0,674.0161079942482,5.0,0.0,part_2,stop,700.0,650.0,3.0,,,,,,,,,magenta,cross
0.0,5.0,1.0,1.0,6.0,0.0,0.0,5.0,0.0,part_2,stop,650.0,650.0,4.0,,,,,,,,,orange,I
0.0,2.0,2.0,0.0,6.0,6.0,530.6676813124795,5.0,0.0,part_2,go,650.0,700.0,1.0,,,,,,,,,white,triangle
0.0,8.0,4.0,1.0,5.0,0.0,0.0,5.0,0.0,part_2,stop,650.0,700.0,4.0,,,,,,,,,cyan,flipped triangle
0.0,4.0,4.0,0.0,5.0,5.0,519.52532841824,5.0,0.0,part_2,go,700.0,700.0,1.0,,,,,,,,,blue,circle
0.0,1.0,1.0,0.0,6.0,6.0,544.4764653148013,5.0,0.0,part_2,go,700.0,700.0,1.0,,,,,,,,,gray,square
0.0,4.0,4.0,0.0,6.0,6.0,522.3957022608374,5.0,0.0,part_2,go,700.0,700.0,1.0,,,,,,,,,blue,circle
0.0,6.0,2.0,1.0,5.0,0.0,0.0,5.0,0.0,part_2,stop,700.0,700.0,4.0,,,,,,,,,magenta,cross
0.0,5.0,1.0,1.0,6.0,6.0,1030.4904864678974,5.0,0.0,part_2,go,750.0,700.0,1.0,,,,,,,,,orange,I
0.0,2.0,2.0,0.0,6.0,6.0,434.1816963133169,5.0,0.0,part_2,go,750.0,700.0,1.0,,,,,,,,,white,triangle
0.0,2.0,2.0,0.0,6.0,6.0,355.4076651635114,5.0,0.0,part_2,go,750.0,700.0,1.0,,,,,,,,,white,triangle
0.0,2.0,2.0,0.0,5.0,5.0,560.6495784231811,5.0,0.0,part_2,go,750.0,700.0,1.0,,,,,,,,,white,triangle
0.0,6.0,2.0,1.0,6.0,6.0,314.4725914680748,5.0,0.0,part_2,stop,750.0,700.0,3.0,,,,,,,,,magenta,cross
0.0,3.0,3.0,0.0,5.0,5.0,527.3810153667,5.0,0.0,part_2,go,750.0,650.0,1.0,,,,,,,,,yellow,hexagon
0.0,2.0,2.0,0.0,5.0,5.0,483.5217140498571,5.0,0.0,part_2,go,750.0,650.0,1.0,,,,,,,,,white,triangle
0.0,3.0,3.0,0.0,5.0,5.0,439.4930081543862,5.0,0.0,part_2,go,750.0,650.0,1.0,,,,,,,,,yellow,hexagon
0.0,1.0,1.0,0.0,5.0,5.0,383.7411470522056,5.0,0.0,part_2,go,750.0,650.0,1.0,,,,,,,,,gray,square
0.0,5.0,1.0,1.0,6.0,6.0,723.2392610021634,5.0,0.0,part_2,stop,750.0,650.0,3.0,,,,,,,,,orange,I
0.0,1.0,1.0,0.0,6.0,6.0,488.0758154249633,5.0,0.0,part_2,go,750.0,600.0,1.0,,,,,,,,,gray,square
0.0,3.0,3.0,0.0,6.0,6.0,475.9927992636221,5.0,0.0,part_2,go,750.0,600.0,1.0,,,,,,,,,yellow,hexagon
0.0,5.0,1.0,1.0,6.0,6.0,684.4526491622673,6.0,0.0,part_2,stop,750.0,600.0,3.0,,,,,,,,,orange,I
0.0,6.0,2.0,1.0,5.0,5.0,876.6842901604832,6.0,0.0,part_2,go,750.0,550.0,1.0,,,,,,,,,magenta,cross
0.0,4.0,4.0,0.0,5.0,5.0,416.2479110600543,6.0,0.0,part_2,go,750.0,550.0,1.0,,,,,,,,,blue,circle
0.0,7.0,3.0,1.0,5.0,5.0,418.5159384214785,6.0,0.0,part_2,stop,750.0,550.0,3.0,,,,,,,,,green,diamond
0.0,1.0,1.0,0.0,6.0,6.0,407.9611791603383,6.0,0.0,part_2,go,700.0,550.0,1.0,,,,,,,,,gray,square
0.0,4.0,4.0,0.0,5.0,5.0,485.7333020045189,6.0,0.0,part_2,go,700.0,550.0,1.0,,,,,,,,,blue,circle
0.0,8.0,4.0,1.0,5.0,0.0,0.0,6.0,0.0,part_2,stop,700.0,550.0,4.0,,,,,,,,,cyan,flipped triangle
0.0,6.0,2.0,1.0,6.0,6.0,948.8108481018572,6.0,0.0,part_2,go,750.0,550.0,1.0,,,,,,,,,magenta,cross
0.0,2.0,2.0,0.0,5.0,5.0,432.2224768911837,6.0,0.0,part_2,go,750.0,550.0,1.0,,,,,,,,,white,triangle
0.0,5.0,1.0,1.0,5.0,5.0,815.0933263095794,6.0,0.0,part_2,stop,750.0,550.0,3.0,,,,,,,,,orange,I
0.0,3.0,3.0,0.0,5.0,5.0,536.1668701079907,6.0,0.0,part_2,go,700.0,550.0,1.0,,,,,,,,,yellow,hexagon
0.0,5.0,1.0,1.0,5.0,5.0,965.1159860513872,6.0,0.0,part_2,go,700.0,550.0,1.0,,,,,,,,,orange,I
0.0,2.0,2.0,0.0,5.0,5.0,482.1376991021679,6.0,0.0,part_2,go,700.0,550.0,1.0,,,,,,,,,white,triangle
0.0,4.0,4.0,0.0,6.0,6.0,359.3100303114624,6.0,0.0,part_2,go,700.0,550.0,1.0,,,,,,,,,blue,circle
0.0,7.0,3.0,1.0,6.0,6.0,392.3986393128871,6.0,0.0,part_2,stop,700.0,550.0,3.0,,,,,,,,,green,diamond
0.0,8.0,4.0,1.0,6.0,6.0,945.67026731238,6.0,0.0,part_2,go,700.0,500.0,1.0,,,,,,,,,cyan,flipped triangle
0.0,1.0,1.0,0.0,6.0,6.0,551.2107812610338,6.0,0.0,part_2,go,700.0,500.0,1.0,,,,,,,,,gray,square
0.0,2.0,2.0,0.0,6.0,6.0,541.4548152621137,6.0,0.0,part_2,go,700.0,500.0,1.0,,,,,,,,,white,triangle
0.0,7.0,3.0,1.0,6.0,0.0,0.0,6.0,0.0,part_2,stop,700.0,500.0,4.0,,,,,,,,,green,diamond
0.0,3.0,3.0,0.0,5.0,5.0,520.7628053685767,6.0,0.0,part_2,go,700.0,550.0,1.0,,,,,,,,,yellow,hexagon
0.0,4.0,4.0,0.0,6.0,6.0,340.4087801100104,6.0,0.0,part_2,go,700.0,550.0,1.0,,,,,,,,,blue,circle
0.0,3.0,3.0,0.0,5.0,5.0,557.0382733130828,6.0,0.0,part_2,go,700.0,550.0,1.0,,,,,,,,,yellow,hexagon
0.0,5.0,1.0,1.0,6.0,6.0,939.4153841058142,6.0,0.0,part_2,go,700.0,550.0,1.0,,,,,,,,,orange,I
0.0,6.0,2.0,1.0,6.0,6.0,423.2934632091201,6.0,0.0,part_2,go,700.0,550.0,1.0,,,,,,,,,magenta,cross
0.0,2.0,2.0,0.0,5.0,5.0,345.8509504707763,6.0,0.0,part_2,go,700.0,550.0,1.0,,,,,,,,,white,triangle
0.0,5.0,1.0,1.0,5.0,5.0,605.0344524192042,6.0,0.0,part_2,stop,700.0,550.0,3.0,,,,,,,,,orange,I
0.0,5.0,1.0,1.0,6.0,0.0,0.0,6.0,0.0,part_2,stop,650.0,550.0,4.0,,,,,,,,,orange,I
0.0,1.0,1.0,0.0,5.0,5.0,448.4362941075233,6.0,0.0,part_2,go,650.0,600.0,1.0,,,,,,,,,gray,square
0.0,1.0,1.0,0.0,6.0,6.0,359.0652721613878,6.0,0.0,part_2,go,650.0,600.0,1.0,,,,,,,,,gray,square
0.0,4.0,4.0,0.0,6.0,6.0,416.4316670576227,6.0,0.0,part_2,go,650.0,600.0,1.0,,,,,,,,,blue,circle
0.0,6.0,2.0,1.0,5.0,5.0,360.4193733117427,6.0,0.0,part_2,stop,650.0,600.0,3.0,,,,,,,,,magenta,cross
0.0,7.0,3.0,1.0,5.0,0.0,0.0,6.0,0.0,part_2,stop,600.0,600.0,4.0,,,,,,,,,green,diamond
0.0,3.0,3.0,0.0,5.0,5.0,565.0131740549114,6.0,0.0,part_2,go,650.0,600.0,1.0,,,,,,,,,yellow,hexagon
0.0,5.0,1.0,1.0,6.0,6.0,926.6831250497488,6.0,0.0,part_2,go,650.0,600.0,1.0,,,,,,,,,orange,I
0.0,6.0,2.0,1.0,6.0,0.0,0.0,6.0,0.0,part_2,stop,650.0,600.0,4.0,,,,,,,,,magenta,cross
0.0,2.0,2.0,0.0,5.0,5.0,510.8927940527792,6.0,0.0,part_2,go,650.0,650.0,1.0,,,,,,,,,white,triangle
0.0,1.0,1.0,0.0,5.0,5.0,641.0701072090887,7.0,0.0,part_2,go,650.0,650.0,1.0,,,,,,,,,gray,square
0.0,6.0,2.0,1.0,6.0,6.0,552.2001241042744,7.0,0.0,part_2,stop,650.0,650.0,3.0,,,,,,,,,magenta,cross
0.0,2.0,2.0,0.0,5.0,5.0,349.8772832608665,7.0,0.0,part_2,go,650.0,600.0,1.0,,,,,,,,,white,triangle
0.0,2.0,2.0,0.0,5.0,5.0,339.7419028406148,7.0,0.0,part_2,go,650.0,600.0,1.0,,,,,,,,,white,triangle
0.0,8.0,4.0,1.0,5.0,5.0,825.5690204241546,7.0,0.0,part_2,go,650.0,600.0,1.0,,,,,,,,,cyan,flipped triangle
0.0,6.0,2.0,1.0,6.0,6.0,532.6830403719214,7.0,0.0,part_2,stop,650.0,600.0,3.0,,,,,,,,,magenta,cross
0.0,6.0,2.0,1.0,5.0,0.0,0.0,7.0,0.0,part_2,stop,650.0,550.0,4.0,,,,,,,,,magenta,cross
0.0,3.0,3.0,0.0,6.0,6.0,547.1300683639129,7.0,0.0,part_2,go,700.0,550.0,1.0,,,,,,,,,yellow,hexagon
0.0,3.0,3.0,0.0,5.0,5.0,480.3275010563084,7.0,0.0,part_2,go,700.0,550.0,1.0,,,,,,,,,yellow,hexagon
0.0,8.0,4.0,1.0,5.0,5.0,570.7564420008566,7.0,0.0,part_2,go,700.0,550.0,1.0,,,,,,,,,cyan,flipped triangle
0.0,8.0,4.0,1.0,6.0,6.0,583.345701052167,7.0,0.0,part_2,go,700.0,550.0,1.0,,,,,,,,,cyan,flipped triangle
0.0,8.0,4.0,1.0,6.0,6.0,471.8166951060993,7.0,0.0,part_2,stop,700.0,550.0,3.0,,,,,,,,,cyan,flipped triangle
0.0,6.0,2.0,1.0,6.0,0.0,0.0,7.0,0.0,part_2,stop,700.0,500.0,4.0,,,,,,,,,magenta,cross
0.0,2.0,2.0,0.0,6.0,6.0,641.0847154693329,7.0,0.0,part_2,go,700.0,550.0,1.0,,,,,,,,,white,triangle
0.0,5.0,1.0,1.0,5.0,5.0,394.2542464719736,7.0,0.0,part_2,stop,700.0,550.0,3.0,,,,,,,,,orange,I
0.0,3.0,3.0,0.0,5.0,5.0,497.4688711081398,7.0,0.0,part_2,go,650.0,550.0,1.0,,,,,,,,,yellow,hexagon
0.0,6.0,2.0,1.0,5.0,0.0,0.0,7.0,0.0,part_2,stop,650.0,550.0,4.0,,,,,,,,,magenta,cross
0.0,6.0,2.0,1.0,5.0,0.0,0.0,7.0,0.0,part_2,stop,700.0,550.0,4.0,,,,,,,,,magenta,cross
0.0,7.0,3.0,1.0,5.0,5.0,1061.290409314097,7.0,0.0,part_2,go,750.0,550.0,1.0,,,,,,,,,green,diamond
0.0,6.0,2.0,1.0,6.0,6.0,950.73252410657,7.0,0.0,part_2,go,750.0,550.0,1.0,,,,,,,,,magenta,cross
0.0,2.0,2.0,0.0,6.0,6.0,389.2915072065079,7.0,0.0,part_2,go,750.0,550.0,1.0,,,,,,,,,white,triangle
0.0,6.0,2.0,1.0,5.0,5.0,759.2119081091369,7.0,0.0,part_2,stop,750.0,550.0,3.0,,,,,,,,,magenta,cross
0.0,1.0,1.0,0.0,5.0,5.0,400.819621165283,7.0,0.0,part_2,go,700.0,550.0,1.0,,,,,,,,,gray,square
0.0,2.0,2.0,0.0,5.0,5.0,412.1804030583007,7.0,0.0,part_2,go,700.0,550.0,1.0,,,,,,,,,white,triangle
0.0,5.0,1.0,1.0,5.0,5.0,729.7750442085089,7.0,0.0,part_2,stop,700.0,550.0,3.0,,,,,,,,,orange,I
0.0,7.0,3.0,1.0,5.0,5.0,719.363823052845,7.0,0.0,part_2,stop,650.0,550.0,3.0,,,,,,,,,green,diamond
0.0,3.0,3.0,0.0,6.0,6.0,529.1887672574376,7.0,0.0,part_2,go,600.0,550.0,1.0,,,,,,,,,yellow,hexagon
0.0,5.0,1.0,1.0,6.0,0.0,0.0,7.0,0.0,part_2,stop,600.0,550.0,4.0,,,,,,,,,orange,I
0.0,3.0,3.0,0.0,5.0,5.0,496.9332152104471,7.0,0.0,part_2,go,600.0,600.0,1.0,,,,,,,,,yellow,hexagon
0.0,3.0,3.0,0.0,5.0,5.0,453.0320871053845,7.0,0.0,part_2,go,600.0,600.0,1.0,,,,,,,,,yellow,hexagon
0.0,7.0,3.0,1.0,6.0,0.0,0.0,7.0,0.0,part_2,stop,600.0,600.0,4.0,,,,,,,,,green,diamond
0.0,3.0,3.0,0.0,5.0,5.0,531.6500641056336,7.0,0.0,part_2,go,600.0,650.0,1.0,,,,,,,,,yellow,hexagon
0.0,3.0,3.0,0.0,6.0,6.0,397.4116883182432,7.0,0.0,part_2,go,600.0,650.0,1.0,,,,,,,,,yellow,hexagon
0.0,3.0,3.0,0.0,6.0,6.0,354.1955224209232,7.0,0.0,part_2,go,600.0,650.0,1.0,,,,,,,,,yellow,hexagon
0.0,8.0,4.0,1.0,5.0,5.0,398.9524841017555,7.0,0.0,part_2,stop,600.0,650.0,3.0,,,,,,,,,cyan,flipped triangle
0.0,4.0,4.0,0.0,5.0,5.0,366.6899882082362,7.0,0.0,part_2,go,550.0,650.0,1.0,,,,,,,,,blue,circle
0.0,4.0,4.0,0.0,6.0,6.0,553.0439270587522,8.0,0.0,part_2,go,550.0,650.0,1.0,,,,,,,,,blue,circle
0.0,2.0,2.0,0.0,5.0,5.0,462.6970842582523,8.0,0.0,part_2,go,550.0,650.0,1.0,,,,,,,,,white,triangle
0.0,4.0,4.0,0.0,6.0,6.0,306.2438470515189,8.0,0.0,part_2,go,550.0,650.0,1.0,,,,,,,,,blue,circle
0.0,5.0,1.0,1.0,5.0,0.0,0.0,8.0,0.0,part_2,stop,550.0,650.0,4.0,,,,,,,,,orange,I
0.0,6.0,2.0,1.0,6.0,6.0,320.501399161003,8.0,0.0,part_2,stop,600.0,650.0,3.0,,,,,,,,,magenta,cross
0.0,2.0,2.0,0.0,5.0,5.0,320.2192193639348,8.0,0.0,part_2,go,600.0,600.0,1.0,,,,,,,,,white,triangle
0.0,5.0,1.0,1.0,6.0,0.0,0.0,8.0,0.0,part_2,stop,600.0,600.0,4.0,,,,,,,,,orange,I
0.0,4.0,4.0,0.0,6.0,6.0,502.83506404957734,8.0,0.0,part_2,go,600.0,650.0,1.0,,,,,,,,,blue,circle
0.0,5.0,1.0,1.0,5.0,5.0,357.2210132042528,8.0,0.0,part_2,stop,600.0,650.0,3.0,,,,,,,,,orange,I
0.0,7.0,3.0,1.0,5.0,0.0,0.0,8.0,0.0,part_2,stop,550.0,650.0,4.0,,,,,,,,,green,diamond
0.0,4.0,4.0,0.0,5.0,5.0,526.3619343677419,8.0,0.0,part_2,go,600.0,650.0,1.0,,,,,,,,,blue,circle
0.0,2.0,2.0,0.0,6.0,6.0,594.5416831600596,8.0,0.0,part_2,go,600.0,650.0,1.0,,,,,,,,,white,triangle
0.0,7.0,3.0,1.0,5.0,0.0,0.0,8.0,0.0,part_2,stop,600.0,650.0,4.0,,,,,,,,,green,diamond
0.0,8.0,4.0,1.0,6.0,0.0,0.0,8.0,0.0,part_2,stop,650.0,650.0,4.0,,,,,,,,,cyan,flipped triangle
0.0,8.0,4.0,1.0,6.0,6.0,699.6338741082582,8.0,0.0,part_2,stop,650.0,700.0,3.0,,,,,,,,,cyan,flipped triangle
0.0,1.0,1.0,0.0,5.0,5.0,508.85563231713604,8.0,0.0,part_2,go,650.0,650.0,1.0,,,,,,,,,gray,square
0.0,3.0,3.0,0.0,6.0,6.0,464.3218713099486,8.0,0.0,part_2,go,650.0,650.0,1.0,,,,,,,,,yellow,hexagon
0.0,3.0,3.0,0.0,5.0,5.0,308.2979553146288,8.0,0.0,part_2,go,650.0,650.0,1.0,,,,,,,,,yellow,hexagon
0.0,3.0,3.0,0.0,6.0,6.0,308.7257061561104,8.0,0.0,part_2,go,650.0,650.0,1.0,,,,,,,,,yellow,hexagon
0.0,1.0,1.0,0.0,5.0,5.0,511.029280423827,8.0,0.0,part_2,go,650.0,650.0,1.0,,,,,,,,,gray,square
0.0,5.0,1.0,1.0,5.0,5.0,389.5095330008189,8.0,0.0,part_2,stop,650.0,650.0,3.0,,,,,,,,,orange,I
0.0,2.0,2.0,0.0,6.0,6.0,366.1914202093612,8.0,0.0,part_2,go,600.0,650.0,1.0,,,,,,,,,white,triangle
0.0,2.0,2.0,0.0,5.0,5.0,480.3347662600572,8.0,0.0,part_2,go,600.0,650.0,1.0,,,,,,,,,white,triangle
0.0,2.0,2.0,0.0,6.0,6.0,267.2821513697272,8.0,0.0,part_2,go,600.0,650.0,1.0,,,,,,,,,white,triangle
0.0,4.0,4.0,0.0,5.0,5.0,391.243384052359,8.0,0.0,part_2,go,600.0,650.0,1.0,,,,,,,,,blue,circle
0.0,2.0,2.0,0.0,6.0,6.0,291.3150823151227,8.0,0.0,part_2,go,600.0,650.0,1.0,,,,,,,,,white,triangle
0.0,7.0,3.0,1.0,5.0,0.0,0.0,8.0,0.0,part_2,stop,600.0,650.0,4.0,,,,,,,,,green,diamond
0.0,1.0,1.0,0.0,5.0,5.0,361.5133441635407,8.0,0.0,part_2,go,650.0,650.0,1.0,,,,,,,,,gray,square
0.0,8.0,4.0,1.0,5.0,5.0,372.8448622568976,8.0,0.0,part_2,stop,650.0,650.0,3.0,,,,,,,,,cyan,flipped triangle
0.0,6.0,2.0,1.0,6.0,6.0,351.0035943181719,8.0,0.0,part_2,go,600.0,650.0,1.0,,,,,,,,,magenta,cross
0.0,1.0,1.0,0.0,5.0,5.0,375.0507282093167,8.0,0.0,part_2,go,600.0,650.0,1.0,,,,,,,,,gray,square
0.0,5.0,1.0,1.0,5.0,0.0,0.0,8.0,0.0,part_2,stop,600.0,650.0,4.0,,,,,,,,,orange,I
0.0,1.0,1.0,0.0,6.0,6.0,363.8449694190058,8.0,0.0,part_2,go,650.0,650.0,1.0,,,,,,,,,gray,square
0.0,3.0,3.0,0.0,5.0,5.0,308.6442268904648,8.0,0.0,part_2,go,650.0,650.0,1.0,,,,,,,,,yellow,hexagon
0.0,5.0,1.0,1.0,5.0,5.0,388.1724163147737,8.0,0.0,part_2,go,650.0,650.0,1.0,,,,,,,,,orange,I
0.0,4.0,4.0,0.0,5.0,5.0,400.2676161544514,8.0,0.0,part_2,go,650.0,650.0,1.0,,,,,,,,,blue,circle
0.0,6.0,2.0,1.0,7.0,3.0,1809.0664490009656,1.0,2.0,part_3,go,0.0,0.0,0.0,270.0,5.0,108.0,54.0,270.0,324.0,162.0,216.0,magenta,cross
0.0,1.0,1.0,0.0,7.0,4.0,1855.1210622536016,1.0,1.0,part_3,go,0.0,0.0,0.0,162.0,3.0,54.0,108.0,270.0,162.0,216.0,324.0,gray,square
0.0,5.0,1.0,1.0,7.0,1.0,1057.0430892475997,1.0,1.0,part_3,go,0.0,0.0,0.0,162.0,3.0,162.0,108.0,270.0,324.0,216.0,54.0,orange,I
0.0,4.0,4.0,0.0,7.0,1.0,1586.1285987484737,1.0,1.0,part_3,go,0.0,0.0,0.0,245.0,5.0,245.0,98.0,147.0,49.0,294.0,196.0,blue,circle
0.0,7.0,3.0,1.0,7.0,4.0,1969.068375990901,1.0,1.0,part_3,go,0.0,0.0,0.0,195.0,5.0,39.0,234.0,117.0,195.0,156.0,78.0,green,diamond
0.0,1.0,1.0,0.0,7.0,2.0,1262.9720559853013,1.0,1.0,part_3,go,0.0,0.0,0.0,98.0,2.0,49.0,98.0,294.0,196.0,147.0,245.0,gray,square
0.0,1.0,1.0,0.0,7.0,1.0,1668.3217012468958,1.0,1.0,part_3,go,0.0,0.0,0.0,78.0,2.0,78.0,195.0,234.0,39.0,156.0,117.0,gray,square
0.0,7.0,3.0,1.0,7.0,1.0,2422.60777924821,1.0,1.0,part_3,go,0.0,0.0,0.0,156.0,4.0,156.0,117.0,195.0,39.0,234.0,78.0,green,diamond
0.0,5.0,1.0,1.0,7.0,5.0,1726.0346012408263,1.0,1.0,part_3,go,0.0,0.0,0.0,98.0,2.0,49.0,147.0,196.0,294.0,98.0,245.0,orange,I
0.0,4.0,4.0,0.0,7.0,5.0,1873.726487494423,1.0,1.0,part_3,go,0.0,0.0,0.0,34.0,1.0,68.0,102.0,136.0,204.0,34.0,170.0,blue,circle
0.0,5.0,1.0,1.0,7.0,4.0,2111.6007044838625,1.0,1.0,part_3,go,0.0,0.0,0.0,170.0,5.0,136.0,34.0,102.0,170.0,204.0,68.0,orange,I
0.0,6.0,2.0,1.0,7.0,2.0,2169.1635857423535,1.0,1.0,part_3,go,0.0,0.0,0.0,196.0,4.0,49.0,196.0,147.0,294.0,245.0,98.0,magenta,cross
0.0,7.0,3.0,1.0,7.0,4.0,1461.991861993738,1.0,1.0,part_3,go,0.0,0.0,0.0,196.0,4.0,245.0,147.0,294.0,196.0,98.0,49.0,green,diamond
0.0,5.0,1.0,1.0,7.0,6.0,1821.652794489637,1.0,1.0,part_3,go,0.0,0.0,0.0,78.0,2.0,234.0,195.0,39.0,117.0,156.0,78.0,orange,I
0.0,8.0,4.0,1.0,7.0,3.0,1700.0314787437674,1.0,1.0,part_3,go,0.0,0.0,0.0,204.0,6.0,68.0,102.0,204.0,34.0,136.0,170.0,cyan,flipped triangle
0.0,8.0,4.0,1.0,7.0,6.0,2758.022277994314,1.0,1.0,part_3,go,0.0,0.0,0.0,196.0,4.0,49.0,294.0,147.0,245.0,98.0,196.0,cyan,flipped triangle
0.0,4.0,4.0,0.0,7.0,2.0,2466.320226987591,1.0,1.0,part_3,go,0.0,0.0,0.0,204.0,6.0,136.0,204.0,68.0,170.0,34.0,102.0,blue,circle
0.0,1.0,1.0,0.0,7.0,3.0,1939.807121241756,1.0,1.0,part_3,go,0.0,0.0,0.0,102.0,3.0,204.0,68.0,102.0,170.0,34.0,136.0,gray,square
0.0,6.0,2.0,1.0,7.0,4.0,1175.4604437446687,1.0,1.0,part_3,go,0.0,0.0,0.0,78.0,2.0,39.0,234.0,195.0,78.0,117.0,156.0,magenta,cross
0.0,4.0,4.0,0.0,7.0,5.0,1829.959798240452,1.0,1.0,part_3,go,0.0,0.0,0.0,234.0,6.0,156.0,78.0,195.0,39.0,234.0,117.0,blue,circle
0.0,1.0,1.0,0.0,7.0,6.0,2436.217495240271,2.0,1.0,part_3,go,0.0,0.0,0.0,98.0,2.0,245.0,294.0,147.0,49.0,196.0,98.0,gray,square
0.0,3.0,3.0,0.0,7.0,2.0,1726.856962995953,2.0,1.0,part_3,go,0.0,0.0,0.0,147.0,3.0,98.0,147.0,294.0,245.0,49.0,196.0,yellow,hexagon
0.0,2.0,2.0,0.0,7.0,1.0,1547.7736559914774,2.0,1.0,part_3,go,0.0,0.0,0.0,68.0,2.0,68.0,102.0,136.0,170.0,34.0,204.0,white,triangle
0.0,2.0,2.0,0.0,7.0,5.0,1076.7938699937076,2.0,1.0,part_3,go,0.0,0.0,0.0,88.0,2.0,176.0,132.0,44.0,220.0,88.0,264.0,white,triangle
0.0,3.0,3.0,0.0,7.0,1.0,1709.297012494062,2.0,1.0,part_3,go,0.0,0.0,0.0,220.0,5.0,220.0,264.0,132.0,176.0,44.0,88.0,yellow,hexagon
0.0,5.0,1.0,1.0,7.0,2.0,1429.1157654952258,2.0,1.0,part_3,go,0.0,0.0,0.0,88.0,2.0,44.0,88.0,264.0,220.0,176.0,132.0,orange,I
0.0,4.0,4.0,0.0,7.0,4.0,2227.606011489115,2.0,1.0,part_3,go,0.0,0.0,0.0,270.0,5.0,162.0,54.0,216.0,270.0,324.0,108.0,blue,circle
0.0,8.0,4.0,1.0,7.0,3.0,1823.149510753865,2.0,1.0,part_3,go,0.0,0.0,0.0,204.0,6.0,136.0,170.0,204.0,102.0,34.0,68.0,cyan,flipped triangle
0.0,2.0,2.0,0.0,7.0,4.0,1509.424400246644,2.0,1.0,part_3,go,0.0,0.0,0.0,54.0,1.0,270.0,216.0,108.0,54.0,324.0,162.0,white,triangle
0.0,3.0,3.0,0.0,7.0,2.0,1905.8399059867952,2.0,1.0,part_3,go,0.0,0.0,0.0,195.0,5.0,78.0,195.0,156.0,117.0,234.0,39.0,yellow,hexagon
0.0,5.0,1.0,1.0,7.0,4.0,1748.143477991107,2.0,1.0,part_3,go,0.0,0.0,0.0,78.0,2.0,195.0,117.0,39.0,78.0,156.0,234.0,orange,I
0.0,7.0,3.0,1.0,7.0,4.0,1953.033178244368,2.0,1.0,part_3,go,0.0,0.0,0.0,204.0,6.0,68.0,170.0,136.0,204.0,34.0,102.0,green,diamond
0.0,8.0,4.0,1.0,7.0,4.0,1335.6279752406408,2.0,1.0,part_3,go,0.0,0.0,0.0,270.0,5.0,108.0,162.0,216.0,270.0,54.0,324.0,cyan,flipped triangle
0.0,8.0,4.0,1.0,7.0,5.0,1875.840127991978,2.0,1.0,part_3,go,0.0,0.0,0.0,216.0,4.0,108.0,54.0,270.0,162.0,216.0,324.0,cyan,flipped triangle
0.0,2.0,2.0,0.0,7.0,4.0,1370.4557662495065,2.0,1.0,part_3,go,0.0,0.0,0.0,98.0,2.0,49.0,245.0,147.0,98.0,294.0,196.0,white,triangle
0.0,7.0,3.0,1.0,7.0,4.0,2113.6501047512866,2.0,1.0,part_3,go,0.0,0.0,0.0,220.0,5.0,264.0,132.0,44.0,220.0,176.0,88.0,green,diamond
0.0,4.0,4.0,0.0,7.0,1.0,2317.601202237711,2.0,1.0,part_3,go,0.0,0.0,0.0,264.0,6.0,264.0,132.0,88.0,176.0,44.0,220.0,blue,circle
0.0,6.0,2.0,1.0,7.0,5.0,1633.1724484916776,2.0,1.0,part_3,go,0.0,0.0,0.0,147.0,3.0,98.0,294.0,196.0,245.0,147.0,49.0,magenta,cross
0.0,2.0,2.0,0.0,7.0,2.0,1589.1883704825889,2.0,1.0,part_3,go,0.0,0.0,0.0,156.0,4.0,117.0,156.0,78.0,39.0,195.0,234.0,white,triangle
0.0,6.0,2.0,1.0,7.0,2.0,1454.253581490775,2.0,1.0,part_3,go,0.0,0.0,0.0,136.0,4.0,204.0,136.0,102.0,34.0,170.0,68.0,magenta,cross
0.0,2.0,2.0,0.0,7.0,4.0,1151.051041240862,3.0,1.0,part_3,go,0.0,0.0,0.0,68.0,2.0,34.0,136.0,102.0,68.0,170.0,204.0,white,triangle
0.0,8.0,4.0,1.0,7.0,5.0,2447.6358842439367,3.0,1.0,part_3,go,0.0,0.0,0.0,156.0,4.0,234.0,195.0,78.0,39.0,156.0,117.0,cyan,flipped triangle
0.0,1.0,1.0,0.0,7.0,5.0,1525.42605499184,3.0,1.0,part_3,go,0.0,0.0,0.0,44.0,1.0,132.0,176.0,220.0,88.0,44.0,264.0,gray,square
0.0,2.0,2.0,0.0,7.0,1.0,1302.7760204931838,3.0,1.0,part_3,go,0.0,0.0,0.0,78.0,2.0,78.0,234.0,117.0,39.0,195.0,156.0,white,triangle
0.0,6.0,2.0,1.0,7.0,4.0,1055.1290939984028,3.0,1.0,part_3,go,0.0,0.0,0.0,108.0,2.0,54.0,216.0,162.0,108.0,324.0,270.0,magenta,cross
0.0,6.0,2.0,1.0,7.0,2.0,1023.216922993015,3.0,1.0,part_3,go,0.0,0.0,0.0,117.0,3.0,78.0,117.0,234.0,156.0,195.0,39.0,magenta,cross
0.0,3.0,3.0,0.0,7.0,2.0,1158.583189244382,3.0,1.0,part_3,go,0.0,0.0,0.0,170.0,5.0,204.0,170.0,68.0,136.0,34.0,102.0,yellow,hexagon
0.0,5.0,1.0,1.0,7.0,5.0,1892.0257529898663,3.0,1.0,part_3,go,0.0,0.0,0.0,54.0,1.0,108.0,270.0,216.0,162.0,54.0,324.0,orange,I
0.0,3.0,3.0,0.0,7.0,1.0,1915.5880694961525,3.0,1.0,part_3,go,0.0,0.0,0.0,147.0,3.0,147.0,245.0,49.0,294.0,98.0,196.0,yellow,hexagon
0.0,4.0,4.0,0.0,7.0,4.0,1228.2982309843646,3.0,1.0,part_3,go,0.0,0.0,0.0,88.0,2.0,44.0,132.0,264.0,88.0,220.0,176.0,blue,circle
0.0,2.0,2.0,0.0,7.0,3.0,1174.6440184942912,3.0,1.0,part_3,go,0.0,0.0,0.0,54.0,1.0,162.0,324.0,54.0,108.0,270.0,216.0,white,triangle
0.0,7.0,3.0,1.0,7.0,2.0,1512.3169324870105,3.0,1.0,part_3,go,0.0,0.0,0.0,245.0,5.0,98.0,245.0,147.0,196.0,294.0,49.0,green,diamond
0.0,3.0,3.0,0.0,7.0,2.0,1929.8394277502664,3.0,1.0,part_3,go,0.0,0.0,0.0,176.0,4.0,44.0,176.0,88.0,220.0,264.0,132.0,yellow,hexagon
0.0,3.0,3.0,0.0,7.0,5.0,2031.8441237468505,3.0,1.0,part_3,go,0.0,0.0,0.0,162.0,3.0,270.0,108.0,324.0,54.0,162.0,216.0,yellow,hexagon
0.0,1.0,1.0,0.0,7.0,3.0,1098.9657559912305,3.0,1.0,part_3,go,0.0,0.0,0.0,34.0,1.0,136.0,170.0,34.0,68.0,102.0,204.0,gray,square
0.0,1.0,1.0,0.0,7.0,4.0,1460.4380734817823,3.0,1.0,part_3,go,0.0,0.0,0.0,54.0,1.0,270.0,108.0,216.0,54.0,324.0,162.0,gray,square
0.0,7.0,3.0,1.0,7.0,1.0,1698.9633022385533,3.0,1.0,part_3,go,0.0,0.0,0.0,270.0,5.0,270.0,108.0,54.0,216.0,162.0,324.0,green,diamond
0.0,3.0,3.0,0.0,7.0,4.0,1880.447169998661,3.0,1.0,part_3,go,0.0,0.0,0.0,117.0,3.0,78.0,39.0,234.0,117.0,195.0,156.0,yellow,hexagon
0.0,7.0,3.0,1.0,7.0,4.0,2139.9828297435306,3.0,1.0,part_3,go,0.0,0.0,0.0,264.0,6.0,132.0,176.0,88.0,264.0,220.0,44.0,green,diamond
0.0,4.0,4.0,0.0,7.0,1.0,2534.058300749166,3.0,1.0,part_3,go,0.0,0.0,0.0,245.0,5.0,245.0,147.0,294.0,196.0,49.0,98.0,blue,circle
0.0,4.0,4.0,0.0,7.0,5.0,2169.181693236169,4.0,1.0,part_3,go,0.0,0.0,0.0,270.0,5.0,324.0,216.0,54.0,162.0,270.0,108.0,blue,circle
0.0,2.0,2.0,0.0,7.0,3.0,1136.5290844914853,4.0,1.0,part_3,go,0.0,0.0,0.0,44.0,1.0,176.0,132.0,44.0,264.0,220.0,88.0,white,triangle
0.0,2.0,2.0,0.0,7.0,1.0,1237.7101622405462,4.0,1.0,part_3,go,0.0,0.0,0.0,49.0,1.0,49.0,98.0,245.0,147.0,294.0,196.0,white,triangle
0.0,8.0,4.0,1.0,7.0,4.0,1823.3535414838116,4.0,1.0,part_3,go,0.0,0.0,0.0,245.0,5.0,196.0,147.0,49.0,245.0,98.0,294.0,cyan,flipped triangle
0.0,6.0,2.0,1.0,7.0,2.0,1477.1001169938245,4.0,1.0,part_3,go,0.0,0.0,0.0,136.0,4.0,204.0,136.0,68.0,102.0,170.0,34.0,magenta,cross
0.0,1.0,1.0,0.0,7.0,5.0,1331.002222490497,4.0,1.0,part_3,go,0.0,0.0,0.0,117.0,3.0,234.0,195.0,156.0,39.0,117.0,78.0,gray,square
0.0,7.0,3.0,1.0,7.0,5.0,1882.7055099973225,4.0,1.0,part_3,go,0.0,0.0,0.0,270.0,5.0,216.0,108.0,324.0,54.0,270.0,162.0,green,diamond
0.0,6.0,2.0,1.0,7.0,6.0,1344.4651112513384,4.0,1.0,part_3,go,0.0,0.0,0.0,132.0,3.0,88.0,176.0,264.0,44.0,220.0,132.0,magenta,cross
0.0,5.0,1.0,1.0,7.0,4.0,951.1298932484352,4.0,1.0,part_3,go,0.0,0.0,0.0,49.0,1.0,147.0,245.0,98.0,49.0,294.0,196.0,orange,I
0.0,3.0,3.0,0.0,7.0,5.0,1864.9527249945097,4.0,1.0,part_3,go,0.0,0.0,0.0,162.0,3.0,324.0,216.0,270.0,54.0,162.0,108.0,yellow,hexagon
0.0,8.0,4.0,1.0,7.0,6.0,2011.6037004845566,4.0,1.0,part_3,go,0.0,0.0,0.0,220.0,5.0,264.0,88.0,132.0,176.0,44.0,220.0,cyan,flipped triangle
0.0,6.0,2.0,1.0,7.0,2.0,1314.6032729928263,4.0,1.0,part_3,go,0.0,0.0,0.0,132.0,3.0,176.0,132.0,44.0,88.0,220.0,264.0,magenta,cross
0.0,7.0,3.0,1.0,7.0,4.0,1778.4837309882278,4.0,1.0,part_3,go,0.0,0.0,0.0,204.0,6.0,102.0,34.0,68.0,204.0,170.0,136.0,green,diamond
0.0,5.0,1.0,1.0,7.0,5.0,2184.9172534930403,4.0,1.0,part_3,go,0.0,0.0,0.0,44.0,1.0,176.0,88.0,220.0,264.0,44.0,132.0,orange,I
0.0,8.0,4.0,1.0,7.0,3.0,3028.4943907463457,4.0,1.0,part_3,go,0.0,0.0,0.0,195.0,5.0,156.0,117.0,195.0,78.0,39.0,234.0,cyan,flipped triangle
0.0,5.0,1.0,1.0,7.0,1.0,1128.356128494488,4.0,1.0,part_3,go,0.0,0.0,0.0,68.0,2.0,68.0,102.0,170.0,34.0,136.0,204.0,orange,I
0.0,3.0,3.0,0.0,7.0,6.0,1421.825111247017,4.0,1.0,part_3,go,0.0,0.0,0.0,170.0,5.0,204.0,102.0,136.0,68.0,34.0,170.0,yellow,hexagon
0.0,4.0,4.0,0.0,7.0,2.0,2670.931442989968,4.0,1.0,part_3,go,0.0,0.0,0.0,234.0,6.0,39.0,234.0,117.0,78.0,195.0,156.0,blue,circle
0.0,8.0,4.0,1.0,7.0,2.0,1525.374450495292,4.0,1.0,part_3,go,0.0,0.0,0.0,220.0,5.0,88.0,220.0,44.0,264.0,176.0,132.0,cyan,flipped triangle
0.0,1.0,1.0,0.0,7.0,5.0,1954.4575127438293,4.0,1.0,part_3,go,0.0,0.0,0.0,220.0,5.0,264.0,176.0,44.0,132.0,220.0,88.0,gray,square
