raw_reward_magnitude,stim_reward,stepwise_reward_magnitude,paired_with_stopping,quadrant,response,reaction_time,block,num_trial_presentations,which_part,stop_signal_trial_type,left_SSD,right_SSD,accuracy,chosen_bidding_amount,chosen_bidding_level,possible_bid_1,possible_bid_2,possible_bid_3,possible_bid_4,possible_bid_5,possible_bid_6,color_text,shape_text
400.0,4.0,4.0,0.0,4.0,4.0,334.0256621122535,1.0,1.0,part_1,,,,,,,,,,,,,cyan,diamond
0.0,3.0,0.0,0.0,2.0,2.0,288.8463943363604,1.0,1.0,part_1,,,,,,,,,,,,,orange,hexagon
0.0,4.0,0.0,0.0,4.0,4.0,344.6441281121224,1.0,1.0,part_1,,,,,,,,,,,,,cyan,diamond
85.0,6.0,2.0,1.0,4.0,4.0,336.127000408851,1.0,1.0,part_1,,,,,,,,,,,,,green,triangle
77.0,2.0,2.0,0.0,3.0,3.0,301.5321317034249,1.0,1.0,part_1,,,,,,,,,,,,,magenta,square
0.0,5.0,0.0,1.0,4.0,4.0,301.4155599585137,1.0,1.0,part_1,,,,,,,,,,,,,gray,flipped triangle
387.0,4.0,4.0,0.0,4.0,4.0,257.4117732247032,1.0,1.0,part_1,,,,,,,,,,,,,cyan,diamond
387.0,4.0,4.0,0.0,3.0,3.0,270.4677406327391,1.0,1.0,part_1,,,,,,,,,,,,,cyan,diamond
36.0,5.0,1.0,1.0,3.0,3.0,326.0624921122144,1.0,1.0,part_1,,,,,,,,,,,,,gray,flipped triangle
0.0,8.0,0.0,1.0,2.0,2.0,304.9617545202636,1.0,1.0,part_1,,,,,,,,,,,,,yellow,cross
41.0,5.0,1.0,1.0,1.0,1.0,271.0313128163761,1.0,1.0,part_1,,,,,,,,,,,,,gray,flipped triangle
185.0,3.0,3.0,0.0,1.0,1.0,327.8717037037495,1.0,1.0,part_1,,,,,,,,,,,,,orange,hexagon
0.0,3.0,0.0,0.0,3.0,3.0,248.983999928896,1.0,1.0,part_1,,,,,,,,,,,,,orange,hexagon
70.0,5.0,1.0,1.0,3.0,3.0,284.0038292961253,1.0,1.0,part_1,,,,,,,,,,,,,gray,flipped triangle
45.0,1.0,1.0,0.0,1.0,1.0,273.306701704314,1.0,1.0,part_1,,,,,,,,,,,,,white,I
412.0,8.0,4.0,1.0,2.0,2.0,263.9878291129207,1.0,1.0,part_1,,,,,,,,,,,,,yellow,cross
0.0,4.0,0.0,0.0,2.0,2.0,241.370113702942,1.0,1.0,part_1,,,,,,,,,,,,,cyan,diamond
0.0,3.0,0.0,0.0,4.0,4.0,287.2296398163598,1.0,1.0,part_1,,,,,,,,,,,,,orange,hexagon
107.0,2.0,2.0,0.0,2.0,2.0,265.1609305203237,1.0,1.0,part_1,,,,,,,,,,,,,magenta,square
91.0,2.0,2.0,0.0,4.0,4.0,309.1341772242231,1.0,1.0,part_1,,,,,,,,,,,,,magenta,square
122.0,2.0,2.0,0.0,1.0,1.0,368.3868517036899,1.0,1.0,part_1,,,,,,,,,,,,,magenta,square
0.0,3.0,0.0,0.0,1.0,1.0,333.5881179291391,1.0,1.0,part_1,,,,,,,,,,,,,orange,hexagon
404.0,8.0,4.0,1.0,2.0,2.0,255.8155934084425,1.0,1.0,part_1,,,,,,,,,,,,,yellow,cross
186.0,7.0,3.0,1.0,4.0,4.0,277.4321011120264,1.0,1.0,part_1,,,,,,,,,,,,,blue,circle
37.0,5.0,1.0,1.0,3.0,3.0,268.0459205203078,1.0,1.0,part_1,,,,,,,,,,,,,gray,flipped triangle
107.0,6.0,2.0,1.0,4.0,4.0,256.8025524087716,1.0,1.0,part_1,,,,,,,,,,,,,green,triangle
219.0,3.0,3.0,0.0,4.0,4.0,290.4451404083374,1.0,1.0,part_1,,,,,,,,,,,,,orange,hexagon
221.0,3.0,3.0,0.0,4.0,4.0,246.2827989293146,1.0,1.0,part_1,,,,,,,,,,,,,orange,hexagon
224.0,7.0,3.0,1.0,3.0,3.0,291.9775309292163,1.0,1.0,part_1,,,,,,,,,,,,,blue,circle
190.0,3.0,3.0,0.0,3.0,3.0,258.1481844081281,1.0,1.0,part_1,,,,,,,,,,,,,orange,hexagon
52.0,1.0,1.0,0.0,4.0,4.0,281.6805678157834,1.0,1.0,part_1,,,,,,,,,,,,,white,I
225.0,3.0,3.0,0.0,2.0,2.0,283.1567745206484,1.0,1.0,part_1,,,,,,,,,,,,,orange,hexagon
109.0,2.0,2.0,0.0,1.0,1.0,271.8888065210194,1.0,1.0,part_1,,,,,,,,,,,,,magenta,square
0.0,8.0,0.0,1.0,4.0,4.0,249.3916355206238,1.0,1.0,part_1,,,,,,,,,,,,,yellow,cross
407.0,8.0,4.0,1.0,3.0,3.0,363.9864664082779,1.0,1.0,part_1,,,,,,,,,,,,,yellow,cross
211.0,3.0,3.0,0.0,1.0,1.0,274.7616254091554,1.0,1.0,part_1,,,,,,,,,,,,,orange,hexagon
30.0,1.0,1.0,0.0,1.0,1.0,273.7494325201624,1.0,1.0,part_1,,,,,,,,,,,,,white,I
44.0,5.0,1.0,1.0,2.0,2.0,287.8566888157365,1.0,1.0,part_1,,,,,,,,,,,,,gray,flipped triangle
93.0,6.0,2.0,1.0,1.0,1.0,355.3410702243127,1.0,1.0,part_1,,,,,,,,,,,,,green,triangle
402.0,8.0,4.0,1.0,1.0,1.0,309.1289366329874,1.0,1.0,part_1,,,,,,,,,,,,,yellow,cross
0.0,3.0,0.0,0.0,3.0,3.0,288.9097592242251,1.0,1.0,part_1,,,,,,,,,,,,,orange,hexagon
410.0,4.0,4.0,0.0,1.0,1.0,278.6479147043792,1.0,1.0,part_1,,,,,,,,,,,,,cyan,diamond
82.0,2.0,2.0,0.0,3.0,3.0,322.9666838151388,1.0,1.0,part_1,,,,,,,,,,,,,magenta,square
61.0,5.0,1.0,1.0,2.0,2.0,289.9957676327176,1.0,1.0,part_1,,,,,,,,,,,,,gray,flipped triangle
0.0,4.0,0.0,0.0,2.0,2.0,346.5038785207071,1.0,1.0,part_1,,,,,,,,,,,,,cyan,diamond
0.0,8.0,0.0,1.0,1.0,1.0,291.6411895203055,1.0,1.0,part_1,,,,,,,,,,,,,yellow,cross
407.0,4.0,4.0,0.0,4.0,4.0,280.0403632245434,1.0,1.0,part_1,,,,,,,,,,,,,cyan,diamond
213.0,7.0,3.0,1.0,3.0,3.0,280.347133703799,1.0,1.0,part_1,,,,,,,,,,,,,blue,circle
0.0,5.0,0.0,1.0,2.0,2.0,259.86874970385537,1.0,1.0,part_1,,,,,,,,,,,,,gray,flipped triangle
93.0,6.0,2.0,1.0,1.0,1.0,259.1200415208732,1.0,1.0,part_1,,,,,,,,,,,,,green,triangle
78.0,6.0,2.0,1.0,2.0,2.0,315.5037835213079,1.0,1.0,part_1,,,,,,,,,,,,,green,triangle
111.0,2.0,2.0,0.0,2.0,2.0,340.3942366321644,1.0,1.0,part_1,,,,,,,,,,,,,magenta,square
210.0,7.0,3.0,1.0,1.0,1.0,261.8549345206702,1.0,1.0,part_1,,,,,,,,,,,,,blue,circle
119.0,2.0,2.0,0.0,2.0,2.0,250.989498295894,1.0,1.0,part_1,,,,,,,,,,,,,magenta,square
413.0,8.0,4.0,1.0,1.0,1.0,274.0385679999235,1.0,1.0,part_1,,,,,,,,,,,,,yellow,cross
120.0,2.0,2.0,0.0,1.0,1.0,263.3440721128863,1.0,1.0,part_1,,,,,,,,,,,,,magenta,square
0.0,2.0,0.0,0.0,3.0,3.0,375.0495373369631,1.0,1.0,part_1,,,,,,,,,,,,,magenta,square
97.0,2.0,2.0,0.0,4.0,4.0,331.3137457034827,1.0,1.0,part_1,,,,,,,,,,,,,magenta,square
30.0,5.0,1.0,1.0,3.0,3.0,285.9727614086296,1.0,1.0,part_1,,,,,,,,,,,,,gray,flipped triangle
0.0,7.0,0.0,1.0,2.0,2.0,344.3301642237202,1.0,1.0,part_1,,,,,,,,,,,,,blue,circle
376.0,8.0,4.0,1.0,2.0,2.0,254.35506670419272,1.0,1.0,part_1,,,,,,,,,,,,,yellow,cross
0.0,7.0,0.0,1.0,4.0,4.0,253.952740816203,1.0,1.0,part_1,,,,,,,,,,,,,blue,circle
0.0,5.0,0.0,1.0,2.0,2.0,254.7928381127349,1.0,1.0,part_1,,,,,,,,,,,,,gray,flipped triangle
413.0,4.0,4.0,0.0,2.0,2.0,311.9091608159579,1.0,1.0,part_1,,,,,,,,,,,,,cyan,diamond
407.0,8.0,4.0,1.0,4.0,4.0,289.2496275208032,1.0,1.0,part_1,,,,,,,,,,,,,yellow,cross
41.0,5.0,1.0,1.0,4.0,4.0,257.0500224082934,1.0,1.0,part_1,,,,,,,,,,,,,gray,flipped triangle
421.0,8.0,4.0,1.0,2.0,2.0,256.9582645210175,1.0,1.0,part_1,,,,,,,,,,,,,yellow,cross
411.0,8.0,4.0,1.0,1.0,1.0,292.0978322244991,1.0,2.0,part_1,,,,,,,,,,,,,yellow,cross
201.0,3.0,3.0,0.0,2.0,2.0,282.4257954089262,1.0,1.0,part_1,,,,,,,,,,,,,orange,hexagon
213.0,3.0,3.0,0.0,4.0,4.0,305.3034345211927,1.0,1.0,part_1,,,,,,,,,,,,,orange,hexagon
0.0,1.0,0.0,0.0,1.0,1.0,327.909824633025,1.0,1.0,part_1,,,,,,,,,,,,,white,I
125.0,6.0,2.0,1.0,1.0,1.0,317.2681025207566,1.0,1.0,part_1,,,,,,,,,,,,,green,triangle
39.0,5.0,1.0,1.0,1.0,1.0,361.8841181123571,1.0,1.0,part_1,,,,,,,,,,,,,gray,flipped triangle
108.0,6.0,2.0,1.0,4.0,4.0,384.7531285209697,1.0,1.0,part_1,,,,,,,,,,,,,green,triangle
188.0,7.0,3.0,1.0,3.0,3.0,318.539377703928,1.0,1.0,part_1,,,,,,,,,,,,,blue,circle
31.0,5.0,1.0,1.0,2.0,2.0,263.0354254088161,1.0,1.0,part_1,,,,,,,,,,,,,gray,flipped triangle
382.0,8.0,4.0,1.0,3.0,3.0,363.6233315201025,1.0,1.0,part_1,,,,,,,,,,,,,yellow,cross
79.0,6.0,2.0,1.0,3.0,3.0,274.5844738155938,1.0,1.0,part_1,,,,,,,,,,,,,green,triangle
0.0,1.0,0.0,0.0,3.0,3.0,319.7415116328557,1.0,1.0,part_1,,,,,,,,,,,,,white,I
0.0,5.0,0.0,1.0,2.0,2.0,311.2144075203105,1.0,1.0,part_1,,,,,,,,,,,,,gray,flipped triangle
39.0,1.0,1.0,0.0,3.0,3.0,343.9354898155216,1.0,1.0,part_1,,,,,,,,,,,,,white,I
219.0,3.0,3.0,0.0,1.0,1.0,278.3588111124118,1.0,1.0,part_1,,,,,,,,,,,,,orange,hexagon
123.0,6.0,2.0,1.0,4.0,4.0,288.7277624085982,1.0,1.0,part_1,,,,,,,,,,,,,green,triangle
82.0,6.0,2.0,1.0,1.0,1.0,311.433169632437,1.0,1.0,part_1,,,,,,,,,,,,,green,triangle
188.0,3.0,3.0,0.0,2.0,2.0,300.9034751121362,1.0,1.0,part_1,,,,,,,,,,,,,orange,hexagon
376.0,8.0,4.0,1.0,4.0,4.0,257.3130389282596,1.0,1.0,part_1,,,,,,,,,,,,,yellow,cross
108.0,6.0,2.0,1.0,1.0,1.0,268.1523125211242,1.0,1.0,part_1,,,,,,,,,,,,,green,triangle
0.0,2.0,0.0,0.0,4.0,4.0,371.6851288163525,1.0,2.0,part_1,,,,,,,,,,,,,magenta,square
117.0,2.0,2.0,0.0,4.0,4.0,291.9438406333938,1.0,1.0,part_1,,,,,,,,,,,,,magenta,square
64.0,1.0,1.0,0.0,1.0,1.0,338.7310821126448,1.0,1.0,part_1,,,,,,,,,,,,,white,I
221.0,7.0,3.0,1.0,2.0,2.0,283.6332474080336,1.0,1.0,part_1,,,,,,,,,,,,,blue,circle
0.0,5.0,0.0,1.0,1.0,1.0,294.922926408617,1.0,1.0,part_1,,,,,,,,,,,,,gray,flipped triangle
210.0,3.0,3.0,0.0,4.0,4.0,273.6081851126073,1.0,1.0,part_1,,,,,,,,,,,,,orange,hexagon
60.0,5.0,1.0,1.0,4.0,4.0,340.0109308158789,1.0,1.0,part_1,,,,,,,,,,,,,gray,flipped triangle
390.0,8.0,4.0,1.0,4.0,4.0,274.9977049998051,1.0,1.0,part_1,,,,,,,,,,,,,yellow,cross
43.0,1.0,1.0,0.0,1.0,1.0,274.2161471123836,1.0,1.0,part_1,,,,,,,,,,,,,white,I
110.0,2.0,2.0,0.0,3.0,3.0,342.977057815915,1.0,1.0,part_1,,,,,,,,,,,,,magenta,square
217.0,3.0,3.0,0.0,3.0,3.0,297.595231591913,1.0,1.0,part_1,,,,,,,,,,,,,orange,hexagon
196.0,7.0,3.0,1.0,1.0,1.0,297.8870265205842,1.0,1.0,part_1,,,,,,,,,,,,,blue,circle
224.0,3.0,3.0,0.0,4.0,4.0,423.5931744078698,1.0,1.0,part_1,,,,,,,,,,,,,orange,hexagon
422.0,4.0,4.0,0.0,3.0,3.0,284.3818037035817,2.0,1.0,part_1,,,,,,,,,,,,,cyan,diamond
412.0,4.0,4.0,0.0,2.0,2.0,239.8510861121394,2.0,1.0,part_1,,,,,,,,,,,,,cyan,diamond
102.0,6.0,2.0,1.0,2.0,2.0,298.38210651996627,2.0,1.0,part_1,,,,,,,,,,,,,green,triangle
86.0,2.0,2.0,0.0,3.0,3.0,264.5215975207975,2.0,1.0,part_1,,,,,,,,,,,,,magenta,square
412.0,4.0,4.0,0.0,3.0,3.0,286.977514816499,2.0,1.0,part_1,,,,,,,,,,,,,cyan,diamond
44.0,1.0,1.0,0.0,3.0,3.0,299.1538248161305,2.0,1.0,part_1,,,,,,,,,,,,,white,I
198.0,3.0,3.0,0.0,4.0,4.0,232.6884045205588,2.0,1.0,part_1,,,,,,,,,,,,,orange,hexagon
93.0,2.0,2.0,0.0,2.0,2.0,299.9412937042507,2.0,2.0,part_1,,,,,,,,,,,,,magenta,square
31.0,1.0,1.0,0.0,2.0,2.0,279.7978373373553,2.0,1.0,part_1,,,,,,,,,,,,,white,I
391.0,8.0,4.0,1.0,2.0,2.0,312.6489324085924,2.0,1.0,part_1,,,,,,,,,,,,,yellow,cross
190.0,3.0,3.0,0.0,2.0,2.0,278.7600325200401,2.0,1.0,part_1,,,,,,,,,,,,,orange,hexagon
117.0,2.0,2.0,0.0,4.0,4.0,358.9672864081876,2.0,1.0,part_1,,,,,,,,,,,,,magenta,square
409.0,8.0,4.0,1.0,1.0,1.0,269.0467711126985,2.0,1.0,part_1,,,,,,,,,,,,,yellow,cross
66.0,1.0,1.0,0.0,2.0,2.0,247.403902408223,2.0,1.0,part_1,,,,,,,,,,,,,white,I
52.0,5.0,1.0,1.0,1.0,1.0,281.482127408708,2.0,1.0,part_1,,,,,,,,,,,,,gray,flipped triangle
407.0,4.0,4.0,0.0,4.0,4.0,259.6113935205721,2.0,1.0,part_1,,,,,,,,,,,,,cyan,diamond
424.0,8.0,4.0,1.0,3.0,3.0,260.4837778162618,2.0,1.0,part_1,,,,,,,,,,,,,yellow,cross
58.0,5.0,1.0,1.0,1.0,1.0,283.5178729292238,2.0,1.0,part_1,,,,,,,,,,,,,gray,flipped triangle
36.0,1.0,1.0,0.0,4.0,4.0,283.4388692244829,2.0,1.0,part_1,,,,,,,,,,,,,white,I
0.0,6.0,0.0,1.0,3.0,3.0,273.3574179283096,2.0,1.0,part_1,,,,,,,,,,,,,green,triangle
73.0,1.0,1.0,0.0,4.0,4.0,251.22767811262747,2.0,2.0,part_1,,,,,,,,,,,,,white,I
90.0,6.0,2.0,1.0,3.0,3.0,308.8131382846768,2.0,1.0,part_1,,,,,,,,,,,,,green,triangle
52.0,1.0,1.0,0.0,2.0,2.0,275.0830913364552,2.0,1.0,part_1,,,,,,,,,,,,,white,I
223.0,7.0,3.0,1.0,2.0,2.0,286.69882070335,2.0,1.0,part_1,,,,,,,,,,,,,blue,circle
208.0,3.0,3.0,0.0,4.0,4.0,264.3415401116726,2.0,1.0,part_1,,,,,,,,,,,,,orange,hexagon
86.0,6.0,2.0,1.0,3.0,3.0,266.0066675207417,2.0,1.0,part_1,,,,,,,,,,,,,green,triangle
383.0,4.0,4.0,0.0,3.0,3.0,299.7692941125933,2.0,1.0,part_1,,,,,,,,,,,,,cyan,diamond
0.0,7.0,0.0,1.0,2.0,2.0,346.5984247031883,2.0,1.0,part_1,,,,,,,,,,,,,blue,circle
31.0,1.0,1.0,0.0,2.0,2.0,334.7169139296966,2.0,1.0,part_1,,,,,,,,,,,,,white,I
73.0,5.0,1.0,1.0,4.0,4.0,279.1955095208323,2.0,1.0,part_1,,,,,,,,,,,,,gray,flipped triangle
199.0,3.0,3.0,0.0,3.0,3.0,279.0030181122347,2.0,1.0,part_1,,,,,,,,,,,,,orange,hexagon
0.0,2.0,0.0,0.0,2.0,2.0,269.2785117033054,2.0,1.0,part_1,,,,,,,,,,,,,magenta,square
107.0,6.0,2.0,1.0,4.0,4.0,383.3532828166426,2.0,1.0,part_1,,,,,,,,,,,,,green,triangle
34.0,1.0,1.0,0.0,4.0,4.0,280.6124077033018,2.0,1.0,part_1,,,,,,,,,,,,,white,I
179.0,3.0,3.0,0.0,3.0,3.0,271.7113449998578,2.0,1.0,part_1,,,,,,,,,,,,,orange,hexagon
198.0,7.0,3.0,1.0,1.0,1.0,260.929777408819,2.0,1.0,part_1,,,,,,,,,,,,,blue,circle
110.0,6.0,2.0,1.0,3.0,3.0,260.8657293367287,2.0,1.0,part_1,,,,,,,,,,,,,green,triangle
43.0,5.0,1.0,1.0,3.0,3.0,283.9326752246052,2.0,1.0,part_1,,,,,,,,,,,,,gray,flipped triangle
64.0,5.0,1.0,1.0,4.0,4.0,261.9585255206402,2.0,1.0,part_1,,,,,,,,,,,,,gray,flipped triangle
97.0,6.0,2.0,1.0,2.0,2.0,306.7763384078716,2.0,1.0,part_1,,,,,,,,,,,,,green,triangle
63.0,5.0,1.0,1.0,4.0,4.0,252.4097591121972,2.0,1.0,part_1,,,,,,,,,,,,,gray,flipped triangle
411.0,4.0,4.0,0.0,2.0,2.0,263.2060108162477,2.0,1.0,part_1,,,,,,,,,,,,,cyan,diamond
185.0,3.0,3.0,0.0,4.0,4.0,264.5301591128373,2.0,1.0,part_1,,,,,,,,,,,,,orange,hexagon
120.0,2.0,2.0,0.0,3.0,3.0,275.745387223651,2.0,1.0,part_1,,,,,,,,,,,,,magenta,square
111.0,6.0,2.0,1.0,4.0,4.0,309.5665585206006,2.0,1.0,part_1,,,,,,,,,,,,,green,triangle
221.0,7.0,3.0,1.0,4.0,4.0,275.7715417037616,2.0,1.0,part_1,,,,,,,,,,,,,blue,circle
0.0,2.0,0.0,0.0,4.0,4.0,278.2650238159476,2.0,1.0,part_1,,,,,,,,,,,,,magenta,square
29.0,5.0,1.0,1.0,1.0,1.0,367.6125262963978,2.0,1.0,part_1,,,,,,,,,,,,,gray,flipped triangle
201.0,3.0,3.0,0.0,4.0,4.0,222.5337812242287,2.0,1.0,part_1,,,,,,,,,,,,,orange,hexagon
96.0,2.0,2.0,0.0,2.0,2.0,278.5683418160261,2.0,1.0,part_1,,,,,,,,,,,,,magenta,square
0.0,4.0,0.0,0.0,2.0,2.0,303.451207632861,2.0,1.0,part_1,,,,,,,,,,,,,cyan,diamond
107.0,2.0,2.0,0.0,2.0,2.0,279.9151125209391,2.0,1.0,part_1,,,,,,,,,,,,,magenta,square
82.0,6.0,2.0,1.0,2.0,2.0,292.935801112435,2.0,1.0,part_1,,,,,,,,,,,,,green,triangle
223.0,3.0,3.0,0.0,1.0,1.0,280.9987549289872,2.0,1.0,part_1,,,,,,,,,,,,,orange,hexagon
401.0,8.0,4.0,1.0,3.0,3.0,393.4085049286295,2.0,1.0,part_1,,,,,,,,,,,,,yellow,cross
120.0,6.0,2.0,1.0,4.0,4.0,271.6460177034605,2.0,1.0,part_1,,,,,,,,,,,,,green,triangle
37.0,5.0,1.0,1.0,4.0,4.0,396.6140155198445,2.0,1.0,part_1,,,,,,,,,,,,,gray,flipped triangle
25.0,5.0,1.0,1.0,2.0,2.0,350.7830968155758,2.0,1.0,part_1,,,,,,,,,,,,,gray,flipped triangle
0.0,6.0,0.0,1.0,1.0,1.0,274.5993295211519,2.0,2.0,part_1,,,,,,,,,,,,,green,triangle
416.0,8.0,4.0,1.0,2.0,2.0,318.3933714080922,2.0,1.0,part_1,,,,,,,,,,,,,yellow,cross
79.0,2.0,2.0,0.0,2.0,2.0,286.3548197037744,2.0,1.0,part_1,,,,,,,,,,,,,magenta,square
87.0,6.0,2.0,1.0,1.0,1.0,365.5238002247643,2.0,1.0,part_1,,,,,,,,,,,,,green,triangle
122.0,6.0,2.0,1.0,4.0,4.0,263.7733547044263,2.0,1.0,part_1,,,,,,,,,,,,,green,triangle
0.0,7.0,0.0,1.0,1.0,1.0,401.1109211123767,2.0,1.0,part_1,,,,,,,,,,,,,blue,circle
398.0,4.0,4.0,0.0,3.0,3.0,230.7436575210886,2.0,1.0,part_1,,,,,,,,,,,,,cyan,diamond
190.0,7.0,3.0,1.0,1.0,1.0,299.8832676330494,2.0,1.0,part_1,,,,,,,,,,,,,blue,circle
0.0,6.0,0.0,1.0,4.0,4.0,245.1924281122046,2.0,1.0,part_1,,,,,,,,,,,,,green,triangle
41.0,1.0,1.0,0.0,1.0,1.0,232.6956144088399,2.0,1.0,part_1,,,,,,,,,,,,,white,I
204.0,7.0,3.0,1.0,4.0,4.0,245.5840879292736,2.0,1.0,part_1,,,,,,,,,,,,,blue,circle
37.0,1.0,1.0,0.0,4.0,4.0,346.3335536325758,2.0,1.0,part_1,,,,,,,,,,,,,white,I
36.0,1.0,1.0,0.0,3.0,3.0,246.3785248155545,2.0,1.0,part_1,,,,,,,,,,,,,white,I
0.0,8.0,0.0,1.0,1.0,1.0,281.2901656334361,2.0,1.0,part_1,,,,,,,,,,,,,yellow,cross
206.0,7.0,3.0,1.0,4.0,4.0,293.0770849998225,2.0,2.0,part_1,,,,,,,,,,,,,blue,circle
392.0,8.0,4.0,1.0,2.0,2.0,317.2212939289238,2.0,1.0,part_1,,,,,,,,,,,,,yellow,cross
217.0,7.0,3.0,1.0,2.0,2.0,901.5659081123886,2.0,1.0,part_1,,,,,,,,,,,,,blue,circle
208.0,7.0,3.0,1.0,3.0,3.0,407.0128155199199,2.0,1.0,part_1,,,,,,,,,,,,,blue,circle
193.0,3.0,3.0,0.0,2.0,2.0,429.4132779286883,2.0,1.0,part_1,,,,,,,,,,,,,orange,hexagon
117.0,6.0,2.0,1.0,3.0,3.0,294.5521697056392,2.0,1.0,part_1,,,,,,,,,,,,,green,triangle
179.0,3.0,3.0,0.0,2.0,2.0,273.114036222978,2.0,1.0,part_1,,,,,,,,,,,,,orange,hexagon
42.0,5.0,1.0,1.0,4.0,4.0,353.6336107044917,2.0,1.0,part_1,,,,,,,,,,,,,gray,flipped triangle
0.0,5.0,0.0,1.0,1.0,1.0,432.0584140004939,2.0,1.0,part_1,,,,,,,,,,,,,gray,flipped triangle
386.0,4.0,4.0,0.0,3.0,3.0,398.421933336067,2.0,1.0,part_1,,,,,,,,,,,,,cyan,diamond
421.0,4.0,4.0,0.0,1.0,1.0,311.4614852238446,2.0,2.0,part_1,,,,,,,,,,,,,cyan,diamond
180.0,3.0,3.0,0.0,3.0,3.0,276.702303224738,2.0,1.0,part_1,,,,,,,,,,,,,orange,hexagon
179.0,7.0,3.0,1.0,1.0,1.0,367.9092168167699,2.0,2.0,part_1,,,,,,,,,,,,,blue,circle
63.0,1.0,1.0,0.0,3.0,3.0,322.9965501122933,2.0,1.0,part_1,,,,,,,,,,,,,white,I
182.0,3.0,3.0,0.0,3.0,3.0,300.4572256322717,2.0,1.0,part_1,,,,,,,,,,,,,orange,hexagon
179.0,3.0,3.0,0.0,3.0,3.0,346.6743757053336,2.0,1.0,part_1,,,,,,,,,,,,,orange,hexagon
51.0,1.0,1.0,0.0,2.0,2.0,325.2514872256142,2.0,1.0,part_1,,,,,,,,,,,,,white,I
29.0,1.0,1.0,0.0,1.0,1.0,337.4922211114608,2.0,2.0,part_1,,,,,,,,,,,,,white,I
0.0,8.0,0.0,1.0,4.0,4.0,495.9667491111759,2.0,1.0,part_1,,,,,,,,,,,,,yellow,cross
413.0,4.0,4.0,0.0,1.0,1.0,407.2712513370788,2.0,1.0,part_1,,,,,,,,,,,,,cyan,diamond
0.0,1.0,0.0,0.0,4.0,4.0,327.2111661117378,2.0,1.0,part_1,,,,,,,,,,,,,white,I
58.0,1.0,1.0,0.0,3.0,3.0,272.2584774073766,2.0,1.0,part_1,,,,,,,,,,,,,white,I
413.0,8.0,4.0,1.0,3.0,3.0,543.0839021119027,2.0,1.0,part_1,,,,,,,,,,,,,yellow,cross
108.0,2.0,2.0,0.0,4.0,4.0,610.0207556319219,2.0,1.0,part_1,,,,,,,,,,,,,magenta,square
64.0,1.0,1.0,0.0,4.0,4.0,296.3821008179366,2.0,1.0,part_1,,,,,,,,,,,,,white,I
179.0,7.0,3.0,1.0,3.0,3.0,274.4111378160596,2.0,1.0,part_1,,,,,,,,,,,,,blue,circle
182.0,7.0,3.0,1.0,2.0,2.0,308.6300848171959,2.0,1.0,part_1,,,,,,,,,,,,,blue,circle
181.0,7.0,3.0,1.0,4.0,4.0,399.1803749286191,2.0,1.0,part_1,,,,,,,,,,,,,blue,circle
0.0,6.0,0.0,1.0,4.0,4.0,228.4566661110147,3.0,1.0,part_1,,,,,,,,,,,,,green,triangle
32.0,5.0,1.0,1.0,3.0,3.0,263.7572156327223,3.0,1.0,part_1,,,,,,,,,,,,,gray,flipped triangle
0.0,4.0,0.0,0.0,2.0,2.0,263.5161296329897,3.0,1.0,part_1,,,,,,,,,,,,,cyan,diamond
377.0,4.0,4.0,0.0,1.0,1.0,434.3979959994613,3.0,3.0,part_1,,,,,,,,,,,,,cyan,diamond
179.0,7.0,3.0,1.0,3.0,3.0,298.1805091130809,3.0,1.0,part_1,,,,,,,,,,,,,blue,circle
41.0,1.0,1.0,0.0,1.0,1.0,290.5927455194614,3.0,2.0,part_1,,,,,,,,,,,,,white,I
0.0,8.0,0.0,1.0,2.0,2.0,246.2219789304072,3.0,1.0,part_1,,,,,,,,,,,,,yellow,cross
0.0,5.0,0.0,1.0,4.0,4.0,266.7100925209524,3.0,1.0,part_1,,,,,,,,,,,,,gray,flipped triangle
0.0,2.0,0.0,0.0,2.0,2.0,246.0135209294094,3.0,1.0,part_1,,,,,,,,,,,,,magenta,square
96.0,6.0,2.0,1.0,3.0,3.0,335.3702194071957,3.0,1.0,part_1,,,,,,,,,,,,,green,triangle
51.0,5.0,1.0,1.0,2.0,2.0,292.1452537048026,3.0,1.0,part_1,,,,,,,,,,,,,gray,flipped triangle
201.0,7.0,3.0,1.0,2.0,2.0,282.818540928929,3.0,1.0,part_1,,,,,,,,,,,,,blue,circle
381.0,4.0,4.0,0.0,3.0,3.0,258.7907224078662,3.0,1.0,part_1,,,,,,,,,,,,,cyan,diamond
417.0,8.0,4.0,1.0,4.0,4.0,283.3652648168936,3.0,1.0,part_1,,,,,,,,,,,,,yellow,cross
66.0,5.0,1.0,1.0,3.0,3.0,247.9009374073939,3.0,1.0,part_1,,,,,,,,,,,,,gray,flipped triangle
0.0,4.0,0.0,0.0,3.0,3.0,271.5084381106862,3.0,2.0,part_1,,,,,,,,,,,,,cyan,diamond
85.0,2.0,2.0,0.0,4.0,4.0,397.3082021129812,3.0,1.0,part_1,,,,,,,,,,,,,magenta,square
390.0,4.0,4.0,0.0,2.0,2.0,262.740151518301,3.0,1.0,part_1,,,,,,,,,,,,,cyan,diamond
93.0,6.0,2.0,1.0,2.0,2.0,253.41231573474943,3.0,1.0,part_1,,,,,,,,,,,,,green,triangle
180.0,7.0,3.0,1.0,4.0,4.0,320.1142162251926,3.0,1.0,part_1,,,,,,,,,,,,,blue,circle
216.0,7.0,3.0,1.0,1.0,1.0,321.9577902254968,3.0,1.0,part_1,,,,,,,,,,,,,blue,circle
0.0,4.0,0.0,0.0,2.0,2.0,241.9934632234799,3.0,1.0,part_1,,,,,,,,,,,,,cyan,diamond
0.0,7.0,0.0,1.0,2.0,2.0,320.7428385194362,3.0,1.0,part_1,,,,,,,,,,,,,blue,circle
424.0,4.0,4.0,0.0,4.0,4.0,287.9770736308273,3.0,1.0,part_1,,,,,,,,,,,,,cyan,diamond
182.0,3.0,3.0,0.0,4.0,4.0,344.6539287033374,3.0,1.0,part_1,,,,,,,,,,,,,orange,hexagon
117.0,6.0,2.0,1.0,2.0,2.0,299.844331224449,3.0,1.0,part_1,,,,,,,,,,,,,green,triangle
46.0,5.0,1.0,1.0,2.0,2.0,324.2800718162471,3.0,2.0,part_1,,,,,,,,,,,,,gray,flipped triangle
391.0,4.0,4.0,0.0,4.0,4.0,325.0743559292459,3.0,1.0,part_1,,,,,,,,,,,,,cyan,diamond
404.0,4.0,4.0,0.0,4.0,4.0,280.744351704925,3.0,1.0,part_1,,,,,,,,,,,,,cyan,diamond
106.0,6.0,2.0,1.0,4.0,4.0,269.1232474080607,3.0,1.0,part_1,,,,,,,,,,,,,green,triangle
391.0,8.0,4.0,1.0,4.0,4.0,304.0310845190106,3.0,1.0,part_1,,,,,,,,,,,,,yellow,cross
64.0,5.0,1.0,1.0,2.0,2.0,281.7222161120298,3.0,1.0,part_1,,,,,,,,,,,,,gray,flipped triangle
57.0,1.0,1.0,0.0,4.0,4.0,272.1608991123503,3.0,1.0,part_1,,,,,,,,,,,,,white,I
219.0,7.0,3.0,1.0,1.0,1.0,273.4686081112158,3.0,1.0,part_1,,,,,,,,,,,,,blue,circle
421.0,4.0,4.0,0.0,4.0,4.0,294.6684069283947,3.0,1.0,part_1,,,,,,,,,,,,,cyan,diamond
75.0,6.0,2.0,1.0,2.0,2.0,261.6292317052284,3.0,1.0,part_1,,,,,,,,,,,,,green,triangle
201.0,7.0,3.0,1.0,4.0,4.0,272.9986244085012,3.0,1.0,part_1,,,,,,,,,,,,,blue,circle
0.0,6.0,0.0,1.0,2.0,2.0,240.1007448170276,3.0,1.0,part_1,,,,,,,,,,,,,green,triangle
412.0,8.0,4.0,1.0,3.0,3.0,307.6397348177124,3.0,1.0,part_1,,,,,,,,,,,,,yellow,cross
61.0,1.0,1.0,0.0,4.0,4.0,364.7993851118372,3.0,1.0,part_1,,,,,,,,,,,,,white,I
383.0,8.0,4.0,1.0,2.0,2.0,277.1909541334025,3.0,1.0,part_1,,,,,,,,,,,,,yellow,cross
45.0,1.0,1.0,0.0,3.0,3.0,333.270304112375,3.0,1.0,part_1,,,,,,,,,,,,,white,I
409.0,4.0,4.0,0.0,1.0,1.0,287.305852631107,3.0,1.0,part_1,,,,,,,,,,,,,cyan,diamond
31.0,5.0,1.0,1.0,1.0,1.0,256.6206129304191,3.0,2.0,part_1,,,,,,,,,,,,,gray,flipped triangle
0.0,3.0,0.0,0.0,1.0,1.0,255.4451291125588,3.0,1.0,part_1,,,,,,,,,,,,,orange,hexagon
32.0,1.0,1.0,0.0,1.0,1.0,269.2095417041855,3.0,1.0,part_1,,,,,,,,,,,,,white,I
377.0,8.0,4.0,1.0,4.0,4.0,269.7744091128697,3.0,2.0,part_1,,,,,,,,,,,,,yellow,cross
399.0,8.0,4.0,1.0,3.0,3.0,292.219400704198,3.0,1.0,part_1,,,,,,,,,,,,,yellow,cross
0.0,4.0,0.0,0.0,1.0,1.0,269.61049692909,3.0,1.0,part_1,,,,,,,,,,,,,cyan,diamond
67.0,5.0,1.0,1.0,1.0,1.0,315.394347817346,3.0,1.0,part_1,,,,,,,,,,,,,gray,flipped triangle
73.0,5.0,1.0,1.0,3.0,3.0,350.7265199987159,3.0,1.0,part_1,,,,,,,,,,,,,gray,flipped triangle
103.0,2.0,2.0,0.0,3.0,3.0,305.475853225289,3.0,1.0,part_1,,,,,,,,,,,,,magenta,square
93.0,2.0,2.0,0.0,4.0,4.0,282.4773766315047,3.0,1.0,part_1,,,,,,,,,,,,,magenta,square
216.0,3.0,3.0,0.0,3.0,3.0,305.356504928568,3.0,1.0,part_1,,,,,,,,,,,,,orange,hexagon
90.0,2.0,2.0,0.0,3.0,3.0,296.4738726313953,3.0,1.0,part_1,,,,,,,,,,,,,magenta,square
34.0,5.0,1.0,1.0,3.0,3.0,340.5690654089994,3.0,1.0,part_1,,,,,,,,,,,,,gray,flipped triangle
410.0,8.0,4.0,1.0,4.0,4.0,286.5817193378461,3.0,1.0,part_1,,,,,,,,,,,,,yellow,cross
416.0,4.0,4.0,0.0,2.0,2.0,252.4642167045385,3.0,1.0,part_1,,,,,,,,,,,,,cyan,diamond
78.0,2.0,2.0,0.0,1.0,1.0,309.2708421118004,3.0,1.0,part_1,,,,,,,,,,,,,magenta,square
119.0,6.0,2.0,1.0,1.0,1.0,299.3890039288089,3.0,1.0,part_1,,,,,,,,,,,,,green,triangle
399.0,8.0,4.0,1.0,3.0,3.0,231.118958816296,3.0,1.0,part_1,,,,,,,,,,,,,yellow,cross
0.0,4.0,0.0,0.0,4.0,4.0,288.4963891119696,3.0,1.0,part_1,,,,,,,,,,,,,cyan,diamond
108.0,2.0,2.0,0.0,2.0,2.0,301.0154311123187,3.0,1.0,part_1,,,,,,,,,,,,,magenta,square
387.0,8.0,4.0,1.0,4.0,4.0,244.8031897056353,3.0,2.0,part_1,,,,,,,,,,,,,yellow,cross
195.0,7.0,3.0,1.0,2.0,2.0,246.7842132864461,3.0,1.0,part_1,,,,,,,,,,,,,blue,circle
68.0,1.0,1.0,0.0,3.0,3.0,256.9894958178338,3.0,1.0,part_1,,,,,,,,,,,,,white,I
76.0,2.0,2.0,0.0,1.0,1.0,303.7774524073029,3.0,2.0,part_1,,,,,,,,,,,,,magenta,square
399.0,8.0,4.0,1.0,1.0,1.0,316.0808197844744,3.0,2.0,part_1,,,,,,,,,,,,,yellow,cross
96.0,2.0,2.0,0.0,4.0,4.0,406.8944549690059,3.0,1.0,part_1,,,,,,,,,,,,,magenta,square
0.0,2.0,0.0,0.0,1.0,1.0,316.3199189293664,3.0,1.0,part_1,,,,,,,,,,,,,magenta,square
417.0,4.0,4.0,0.0,1.0,1.0,251.0701368173613,3.0,1.0,part_1,,,,,,,,,,,,,cyan,diamond
200.0,7.0,3.0,1.0,2.0,2.0,308.3098526312824,3.0,1.0,part_1,,,,,,,,,,,,,blue,circle
70.0,1.0,1.0,0.0,2.0,2.0,273.9007648178813,3.0,1.0,part_1,,,,,,,,,,,,,white,I
104.0,6.0,2.0,1.0,2.0,2.0,263.8224939291831,3.0,1.0,part_1,,,,,,,,,,,,,green,triangle
0.0,1.0,0.0,0.0,2.0,2.0,274.8510034070932,3.0,1.0,part_1,,,,,,,,,,,,,white,I
58.0,1.0,1.0,0.0,2.0,2.0,252.46044851883198,3.0,1.0,part_1,,,,,,,,,,,,,white,I
81.0,6.0,2.0,1.0,1.0,1.0,286.9622290018014,3.0,1.0,part_1,,,,,,,,,,,,,green,triangle
391.0,4.0,4.0,0.0,4.0,4.0,331.4598744073009,3.0,1.0,part_1,,,,,,,,,,,,,cyan,diamond
57.0,5.0,1.0,1.0,1.0,1.0,322.2354234803788,3.0,1.0,part_1,,,,,,,,,,,,,gray,flipped triangle
0.0,7.0,0.0,1.0,4.0,4.0,322.3689091137203,3.0,1.0,part_1,,,,,,,,,,,,,blue,circle
81.0,2.0,2.0,0.0,1.0,1.0,785.4400849300873,3.0,2.0,part_1,,,,,,,,,,,,,magenta,square
58.0,5.0,1.0,1.0,1.0,1.0,324.3425537039002,3.0,1.0,part_1,,,,,,,,,,,,,gray,flipped triangle
224.0,3.0,3.0,0.0,1.0,1.0,269.483691705318,3.0,1.0,part_1,,,,,,,,,,,,,orange,hexagon
421.0,8.0,4.0,1.0,1.0,1.0,258.2642737052083,3.0,1.0,part_1,,,,,,,,,,,,,yellow,cross
376.0,4.0,4.0,0.0,2.0,2.0,260.3967281120276,3.0,2.0,part_1,,,,,,,,,,,,,cyan,diamond
76.0,6.0,2.0,1.0,1.0,1.0,215.1892356323514,3.0,2.0,part_1,,,,,,,,,,,,,green,triangle
119.0,6.0,2.0,1.0,3.0,3.0,284.0369471123267,3.0,1.0,part_1,,,,,,,,,,,,,green,triangle
221.0,3.0,3.0,0.0,1.0,1.0,295.5777555198438,3.0,1.0,part_1,,,,,,,,,,,,,orange,hexagon
109.0,6.0,2.0,1.0,2.0,2.0,283.8346024072962,3.0,1.0,part_1,,,,,,,,,,,,,green,triangle
211.0,7.0,3.0,1.0,2.0,2.0,296.9611295193317,3.0,1.0,part_1,,,,,,,,,,,,,blue,circle
381.0,8.0,4.0,1.0,2.0,2.0,262.0525838156027,3.0,1.0,part_1,,,,,,,,,,,,,yellow,cross
399.0,4.0,4.0,0.0,3.0,3.0,320.2665235185122,3.0,1.0,part_1,,,,,,,,,,,,,cyan,diamond
200.0,3.0,3.0,0.0,3.0,3.0,308.7149585189763,3.0,1.0,part_1,,,,,,,,,,,,,orange,hexagon
0.0,8.0,0.0,1.0,3.0,3.0,297.3403585201595,3.0,1.0,part_1,,,,,,,,,,,,,yellow,cross
0.0,1.0,0.0,0.0,3.0,3.0,286.4108885205496,3.0,1.0,part_1,,,,,,,,,,,,,white,I
93.0,2.0,2.0,0.0,1.0,1.0,321.326879407934,3.0,1.0,part_1,,,,,,,,,,,,,magenta,square
0.0,7.0,0.0,1.0,2.0,2.0,277.5243754076655,3.0,1.0,part_1,,,,,,,,,,,,,blue,circle
36.0,5.0,1.0,1.0,4.0,4.0,290.1092717056599,3.0,1.0,part_1,,,,,,,,,,,,,gray,flipped triangle
407.0,8.0,4.0,1.0,1.0,1.0,257.2684445203776,3.0,1.0,part_1,,,,,,,,,,,,,yellow,cross
382.0,4.0,4.0,0.0,1.0,1.0,257.174613110692,3.0,1.0,part_1,,,,,,,,,,,,,cyan,diamond
206.0,3.0,3.0,0.0,2.0,2.0,343.2515786316799,4.0,1.0,part_1,,,,,,,,,,,,,orange,hexagon
185.0,7.0,3.0,1.0,3.0,3.0,275.2201772236731,4.0,1.0,part_1,,,,,,,,,,,,,blue,circle
123.0,2.0,2.0,0.0,2.0,2.0,264.7895656318724,4.0,1.0,part_1,,,,,,,,,,,,,magenta,square
0.0,3.0,0.0,0.0,4.0,4.0,333.6875361110287,4.0,1.0,part_1,,,,,,,,,,,,,orange,hexagon
422.0,8.0,4.0,1.0,4.0,4.0,320.9256144073151,4.0,1.0,part_1,,,,,,,,,,,,,yellow,cross
199.0,7.0,3.0,1.0,3.0,3.0,310.6007311125722,4.0,1.0,part_1,,,,,,,,,,,,,blue,circle
120.0,6.0,2.0,1.0,4.0,4.0,277.5630604082835,4.0,1.0,part_1,,,,,,,,,,,,,green,triangle
376.0,4.0,4.0,0.0,1.0,1.0,290.5486669296806,4.0,1.0,part_1,,,,,,,,,,,,,cyan,diamond
102.0,2.0,2.0,0.0,3.0,3.0,235.016734815872,4.0,1.0,part_1,,,,,,,,,,,,,magenta,square
0.0,2.0,0.0,0.0,1.0,1.0,279.4890050008689,4.0,2.0,part_1,,,,,,,,,,,,,magenta,square
0.0,1.0,0.0,0.0,4.0,4.0,359.1482511128561,4.0,1.0,part_1,,,,,,,,,,,,,white,I
0.0,4.0,0.0,0.0,2.0,2.0,271.652236520822,4.0,2.0,part_1,,,,,,,,,,,,,cyan,diamond
0.0,6.0,0.0,1.0,2.0,2.0,293.8582496317394,4.0,1.0,part_1,,,,,,,,,,,,,green,triangle
68.0,5.0,1.0,1.0,4.0,4.0,316.152153929579,4.0,1.0,part_1,,,,,,,,,,,,,gray,flipped triangle
396.0,4.0,4.0,0.0,3.0,3.0,294.4328667035734,4.0,1.0,part_1,,,,,,,,,,,,,cyan,diamond
0.0,5.0,0.0,1.0,4.0,4.0,318.7089556322462,4.0,1.0,part_1,,,,,,,,,,,,,gray,flipped triangle
52.0,5.0,1.0,1.0,1.0,1.0,340.7502116315299,4.0,1.0,part_1,,,,,,,,,,,,,gray,flipped triangle
399.0,4.0,4.0,0.0,1.0,1.0,263.7403878161422,4.0,1.0,part_1,,,,,,,,,,,,,cyan,diamond
403.0,4.0,4.0,0.0,2.0,2.0,262.8260925212089,4.0,1.0,part_1,,,,,,,,,,,,,cyan,diamond
199.0,7.0,3.0,1.0,3.0,3.0,307.44837151905807,4.0,1.0,part_1,,,,,,,,,,,,,blue,circle
67.0,5.0,1.0,1.0,4.0,4.0,253.2870235208975,4.0,1.0,part_1,,,,,,,,,,,,,gray,flipped triangle
67.0,1.0,1.0,0.0,3.0,3.0,333.5017255194543,4.0,1.0,part_1,,,,,,,,,,,,,white,I
396.0,8.0,4.0,1.0,3.0,3.0,355.1319794078154,4.0,1.0,part_1,,,,,,,,,,,,,yellow,cross
0.0,8.0,0.0,1.0,1.0,1.0,266.7403721115988,4.0,1.0,part_1,,,,,,,,,,,,,yellow,cross
386.0,8.0,4.0,1.0,1.0,1.0,255.90228763212508,4.0,1.0,part_1,,,,,,,,,,,,,yellow,cross
185.0,7.0,3.0,1.0,4.0,4.0,256.4942888184305,4.0,1.0,part_1,,,,,,,,,,,,,blue,circle
103.0,6.0,2.0,1.0,3.0,3.0,279.7138426321908,4.0,1.0,part_1,,,,,,,,,,,,,green,triangle
25.0,1.0,1.0,0.0,3.0,3.0,302.0887227048661,4.0,1.0,part_1,,,,,,,,,,,,,white,I
402.0,4.0,4.0,0.0,2.0,2.0,292.8316824072681,4.0,1.0,part_1,,,,,,,,,,,,,cyan,diamond
87.0,2.0,2.0,0.0,3.0,3.0,291.7959295209584,4.0,1.0,part_1,,,,,,,,,,,,,magenta,square
45.0,5.0,1.0,1.0,2.0,2.0,246.6592732234858,4.0,1.0,part_1,,,,,,,,,,,,,gray,flipped triangle
73.0,1.0,1.0,0.0,3.0,3.0,247.8044214058172,4.0,1.0,part_1,,,,,,,,,,,,,white,I
182.0,7.0,3.0,1.0,2.0,2.0,293.1592999284476,4.0,1.0,part_1,,,,,,,,,,,,,blue,circle
0.0,2.0,0.0,0.0,4.0,4.0,305.6709905195021,4.0,2.0,part_1,,,,,,,,,,,,,magenta,square
91.0,6.0,2.0,1.0,3.0,3.0,293.8483999296295,4.0,1.0,part_1,,,,,,,,,,,,,green,triangle
57.0,1.0,1.0,0.0,1.0,1.0,296.83918100090517,4.0,1.0,part_1,,,,,,,,,,,,,white,I
0.0,6.0,0.0,1.0,2.0,2.0,352.283439520761,4.0,1.0,part_1,,,,,,,,,,,,,green,triangle
189.0,3.0,3.0,0.0,1.0,1.0,308.8090144083253,4.0,1.0,part_1,,,,,,,,,,,,,orange,hexagon
204.0,3.0,3.0,0.0,1.0,1.0,287.1835744081181,4.0,1.0,part_1,,,,,,,,,,,,,orange,hexagon
387.0,8.0,4.0,1.0,2.0,2.0,354.9577307039726,4.0,1.0,part_1,,,,,,,,,,,,,yellow,cross
0.0,7.0,0.0,1.0,1.0,1.0,321.1066165185912,4.0,1.0,part_1,,,,,,,,,,,,,blue,circle
407.0,4.0,4.0,0.0,1.0,1.0,264.9781996315141,4.0,1.0,part_1,,,,,,,,,,,,,cyan,diamond
0.0,1.0,0.0,0.0,4.0,4.0,433.978414408557,4.0,1.0,part_1,,,,,,,,,,,,,white,I
106.0,2.0,2.0,0.0,1.0,1.0,278.7124530004803,4.0,1.0,part_1,,,,,,,,,,,,,magenta,square
0.0,3.0,0.0,0.0,3.0,3.0,267.4553506312804,4.0,1.0,part_1,,,,,,,,,,,,,orange,hexagon
225.0,7.0,3.0,1.0,4.0,4.0,289.1593829990597,4.0,1.0,part_1,,,,,,,,,,,,,blue,circle
181.0,3.0,3.0,0.0,2.0,2.0,291.1827425923547,4.0,1.0,part_1,,,,,,,,,,,,,orange,hexagon
0.0,5.0,0.0,1.0,1.0,1.0,302.4013454087253,4.0,1.0,part_1,,,,,,,,,,,,,gray,flipped triangle
125.0,2.0,2.0,0.0,1.0,1.0,325.0540974077012,4.0,1.0,part_1,,,,,,,,,,,,,magenta,square
179.0,7.0,3.0,1.0,1.0,1.0,281.7826347036316,4.0,1.0,part_1,,,,,,,,,,,,,blue,circle
0.0,1.0,0.0,0.0,1.0,1.0,237.3693326317152,4.0,1.0,part_1,,,,,,,,,,,,,white,I
0.0,6.0,0.0,1.0,3.0,3.0,282.090000113385,4.0,2.0,part_1,,,,,,,,,,,,,green,triangle
189.0,7.0,3.0,1.0,1.0,1.0,272.9538004077767,4.0,1.0,part_1,,,,,,,,,,,,,blue,circle
0.0,6.0,0.0,1.0,4.0,4.0,260.0535584078898,4.0,1.0,part_1,,,,,,,,,,,,,green,triangle
193.0,7.0,3.0,1.0,2.0,2.0,295.8596395183122,4.0,1.0,part_1,,,,,,,,,,,,,blue,circle
57.0,5.0,1.0,1.0,3.0,3.0,262.1542309279903,4.0,1.0,part_1,,,,,,,,,,,,,gray,flipped triangle
401.0,4.0,4.0,0.0,3.0,3.0,307.4896631114825,4.0,1.0,part_1,,,,,,,,,,,,,cyan,diamond
0.0,3.0,0.0,0.0,1.0,1.0,285.2478618169698,4.0,1.0,part_1,,,,,,,,,,,,,orange,hexagon
0.0,8.0,0.0,1.0,1.0,1.0,265.251066928613,4.0,1.0,part_1,,,,,,,,,,,,,yellow,cross
0.0,3.0,0.0,0.0,2.0,2.0,355.1208212229539,4.0,1.0,part_1,,,,,,,,,,,,,orange,hexagon
396.0,4.0,4.0,0.0,2.0,2.0,309.4189688181359,4.0,1.0,part_1,,,,,,,,,,,,,cyan,diamond
392.0,4.0,4.0,0.0,2.0,2.0,299.1269324083987,4.0,1.0,part_1,,,,,,,,,,,,,cyan,diamond
75.0,2.0,2.0,0.0,3.0,3.0,321.1124057052075,4.0,1.0,part_1,,,,,,,,,,,,,magenta,square
67.0,5.0,1.0,1.0,2.0,2.0,277.9395174075034,4.0,1.0,part_1,,,,,,,,,,,,,gray,flipped triangle
199.0,3.0,3.0,0.0,3.0,3.0,244.8010551106563,4.0,1.0,part_1,,,,,,,,,,,,,orange,hexagon
400.0,8.0,4.0,1.0,1.0,1.0,290.8201801110408,4.0,1.0,part_1,,,,,,,,,,,,,yellow,cross
190.0,7.0,3.0,1.0,1.0,1.0,280.4779791113105,4.0,1.0,part_1,,,,,,,,,,,,,blue,circle
196.0,3.0,3.0,0.0,2.0,2.0,292.41055051898,4.0,1.0,part_1,,,,,,,,,,,,,orange,hexagon
0.0,8.0,0.0,1.0,3.0,3.0,314.5515409996733,4.0,1.0,part_1,,,,,,,,,,,,,yellow,cross
0.0,2.0,0.0,0.0,4.0,4.0,270.8175719690189,4.0,1.0,part_1,,,,,,,,,,,,,magenta,square
119.0,2.0,2.0,0.0,1.0,1.0,235.9819227058324,4.0,1.0,part_1,,,,,,,,,,,,,magenta,square
0.0,1.0,0.0,0.0,4.0,4.0,282.2369274090306,4.0,1.0,part_1,,,,,,,,,,,,,white,I
186.0,3.0,3.0,0.0,2.0,2.0,328.9309117844823,4.0,1.0,part_1,,,,,,,,,,,,,orange,hexagon
103.0,2.0,2.0,0.0,4.0,4.0,271.7528506309463,4.0,1.0,part_1,,,,,,,,,,,,,magenta,square
219.0,7.0,3.0,1.0,4.0,4.0,284.701756630966,4.0,1.0,part_1,,,,,,,,,,,,,blue,circle
67.0,1.0,1.0,0.0,2.0,2.0,307.2651499987842,4.0,1.0,part_1,,,,,,,,,,,,,white,I
396.0,8.0,4.0,1.0,1.0,1.0,250.86009092956368,4.0,1.0,part_1,,,,,,,,,,,,,yellow,cross
0.0,7.0,0.0,1.0,1.0,1.0,264.0393434066936,4.0,1.0,part_1,,,,,,,,,,,,,blue,circle
96.0,6.0,2.0,1.0,2.0,2.0,308.2397635189409,4.0,1.0,part_1,,,,,,,,,,,,,green,triangle
0.0,2.0,0.0,0.0,4.0,4.0,241.1068198161956,4.0,1.0,part_1,,,,,,,,,,,,,magenta,square
0.0,7.0,0.0,1.0,2.0,2.0,309.6178906325804,4.0,1.0,part_1,,,,,,,,,,,,,blue,circle
60.0,1.0,1.0,0.0,2.0,2.0,321.9255944077304,4.0,1.0,part_1,,,,,,,,,,,,,white,I
399.0,4.0,4.0,0.0,4.0,4.0,254.7495641119894,4.0,1.0,part_1,,,,,,,,,,,,,cyan,diamond
195.0,3.0,3.0,0.0,1.0,1.0,245.4597893374739,4.0,1.0,part_1,,,,,,,,,,,,,orange,hexagon
403.0,8.0,4.0,1.0,3.0,3.0,289.5439535186597,4.0,1.0,part_1,,,,,,,,,,,,,yellow,cross
77.0,6.0,2.0,1.0,1.0,1.0,268.7836805198458,4.0,2.0,part_1,,,,,,,,,,,,,green,triangle
179.0,3.0,3.0,0.0,1.0,1.0,302.2858428175823,4.0,1.0,part_1,,,,,,,,,,,,,orange,hexagon
42.0,1.0,1.0,0.0,4.0,4.0,303.7644159303454,4.0,1.0,part_1,,,,,,,,,,,,,white,I
224.0,7.0,3.0,1.0,3.0,3.0,303.2047474080173,4.0,1.0,part_1,,,,,,,,,,,,,blue,circle
104.0,2.0,2.0,0.0,4.0,4.0,271.4601462248538,4.0,1.0,part_1,,,,,,,,,,,,,magenta,square
67.0,1.0,1.0,0.0,1.0,1.0,258.975691111118,4.0,1.0,part_1,,,,,,,,,,,,,white,I
46.0,1.0,1.0,0.0,2.0,2.0,272.9637627053307,4.0,1.0,part_1,,,,,,,,,,,,,white,I
0.0,5.0,0.0,1.0,3.0,3.0,271.835950705281,4.0,1.0,part_1,,,,,,,,,,,,,gray,flipped triangle
37.0,1.0,1.0,0.0,4.0,4.0,293.9569786321954,4.0,1.0,part_1,,,,,,,,,,,,,white,I
82.0,2.0,2.0,0.0,2.0,2.0,251.75867363032012,4.0,1.0,part_1,,,,,,,,,,,,,magenta,square
45.0,5.0,1.0,1.0,2.0,2.0,296.0247896317014,4.0,1.0,part_1,,,,,,,,,,,,,gray,flipped triangle
398.0,8.0,4.0,1.0,4.0,4.0,263.150777631381,4.0,2.0,part_1,,,,,,,,,,,,,yellow,cross
103.0,6.0,2.0,1.0,3.0,3.0,330.6787139281368,4.0,1.0,part_1,,,,,,,,,,,,,green,triangle
0.0,1.0,0.0,0.0,3.0,3.0,298.080797520015,4.0,1.0,part_1,,,,,,,,,,,,,white,I
0.0,6.0,0.0,1.0,2.0,2.0,276.0625242244714,4.0,1.0,part_1,,,,,,,,,,,,,green,triangle
0.0,5.0,1.0,1.0,6.0,6.0,777.0712000292406,1.0,0.0,part_2,stop,250.0,250.0,3.0,,,,,,,,,gray,flipped triangle
0.0,2.0,2.0,0.0,5.0,5.0,586.8356022729131,1.0,0.0,part_2,go,250.0,200.0,1.0,,,,,,,,,magenta,square
0.0,5.0,1.0,1.0,5.0,5.0,340.0012320289534,1.0,0.0,part_2,stop,250.0,200.0,3.0,,,,,,,,,gray,flipped triangle
0.0,1.0,1.0,0.0,5.0,5.0,678.1840077583183,1.0,0.0,part_2,go,200.0,200.0,1.0,,,,,,,,,white,I
0.0,1.0,1.0,0.0,5.0,5.0,881.2318057571247,1.0,0.0,part_2,go,200.0,200.0,1.0,,,,,,,,,white,I
0.0,2.0,2.0,0.0,5.0,5.0,915.626727815834,1.0,0.0,part_2,go,200.0,200.0,1.0,,,,,,,,,magenta,square
0.0,4.0,4.0,0.0,5.0,5.0,837.7239462715806,1.0,0.0,part_2,go,200.0,200.0,1.0,,,,,,,,,cyan,diamond
0.0,6.0,2.0,1.0,5.0,5.0,332.4780565435503,1.0,0.0,part_2,stop,200.0,200.0,3.0,,,,,,,,,green,triangle
0.0,3.0,3.0,0.0,5.0,5.0,862.4517197586101,1.0,0.0,part_2,go,150.0,200.0,1.0,,,,,,,,,orange,hexagon
0.0,1.0,1.0,0.0,6.0,6.0,784.8749255153962,1.0,0.0,part_2,go,150.0,200.0,1.0,,,,,,,,,white,I
0.0,2.0,2.0,0.0,5.0,5.0,998.618953544792,1.0,0.0,part_2,go,150.0,200.0,1.0,,,,,,,,,magenta,square
0.0,4.0,4.0,0.0,5.0,5.0,1046.5865845144435,1.0,0.0,part_2,go,150.0,200.0,1.0,,,,,,,,,cyan,diamond
0.0,7.0,3.0,1.0,5.0,0.0,0.0,1.0,0.0,part_2,stop,150.0,200.0,4.0,,,,,,,,,blue,circle
0.0,8.0,4.0,1.0,6.0,0.0,0.0,1.0,0.0,part_2,stop,200.0,200.0,4.0,,,,,,,,,yellow,cross
0.0,1.0,1.0,0.0,5.0,5.0,935.3737080582504,1.0,0.0,part_2,go,200.0,250.0,1.0,,,,,,,,,white,I
0.0,7.0,3.0,1.0,6.0,0.0,0.0,1.0,0.0,part_2,stop,200.0,250.0,4.0,,,,,,,,,blue,circle
0.0,6.0,2.0,1.0,5.0,5.0,858.8177267865831,1.0,0.0,part_2,go,200.0,300.0,1.0,,,,,,,,,green,triangle
0.0,5.0,1.0,1.0,6.0,6.0,971.2369315147952,1.0,0.0,part_2,go,200.0,300.0,1.0,,,,,,,,,gray,flipped triangle
0.0,5.0,1.0,1.0,6.0,6.0,926.9383705159272,1.0,0.0,part_2,go,200.0,300.0,1.0,,,,,,,,,gray,flipped triangle
0.0,7.0,3.0,1.0,6.0,0.0,0.0,1.0,0.0,part_2,stop,200.0,300.0,4.0,,,,,,,,,blue,circle
0.0,8.0,4.0,1.0,5.0,0.0,0.0,1.0,0.0,part_2,stop,200.0,350.0,4.0,,,,,,,,,yellow,cross
0.0,1.0,1.0,0.0,5.0,5.0,715.5101967873634,1.0,0.0,part_2,go,250.0,350.0,1.0,,,,,,,,,white,I
0.0,7.0,3.0,1.0,6.0,6.0,773.9494952729729,1.0,0.0,part_2,go,250.0,350.0,1.0,,,,,,,,,blue,circle
0.0,8.0,4.0,1.0,6.0,0.0,0.0,1.0,0.0,part_2,stop,250.0,350.0,4.0,,,,,,,,,yellow,cross
0.0,2.0,2.0,0.0,5.0,5.0,786.0041993026243,1.0,0.0,part_2,go,250.0,400.0,1.0,,,,,,,,,magenta,square
0.0,4.0,4.0,0.0,5.0,0.0,0.0,1.0,0.0,part_2,go,250.0,400.0,5.0,,,,,,,,,cyan,diamond
0.0,7.0,3.0,1.0,6.0,0.0,0.0,1.0,0.0,part_2,stop,250.0,400.0,4.0,,,,,,,,,blue,circle
0.0,7.0,3.0,1.0,6.0,6.0,699.3477628166147,1.0,0.0,part_2,go,250.0,450.0,1.0,,,,,,,,,blue,circle
0.0,2.0,2.0,0.0,5.0,5.0,473.606121058765,1.0,0.0,part_2,go,250.0,450.0,1.0,,,,,,,,,magenta,square
0.0,4.0,4.0,0.0,5.0,5.0,373.7282230013079,1.0,0.0,part_2,go,250.0,450.0,1.0,,,,,,,,,cyan,diamond
0.0,8.0,4.0,1.0,6.0,6.0,565.3832380594395,1.0,0.0,part_2,stop,250.0,450.0,3.0,,,,,,,,,yellow,cross
0.0,4.0,4.0,0.0,6.0,0.0,0.0,1.0,0.0,part_2,go,250.0,400.0,5.0,,,,,,,,,cyan,diamond
0.0,8.0,4.0,1.0,6.0,0.0,0.0,1.0,0.0,part_2,stop,250.0,400.0,4.0,,,,,,,,,yellow,cross
0.0,5.0,1.0,1.0,6.0,6.0,457.1586120000575,1.0,0.0,part_2,go,250.0,450.0,1.0,,,,,,,,,gray,flipped triangle
0.0,5.0,1.0,1.0,5.0,0.0,0.0,1.0,0.0,part_2,stop,250.0,450.0,4.0,,,,,,,,,gray,flipped triangle
0.0,4.0,4.0,0.0,6.0,6.0,334.5940575145505,1.0,0.0,part_2,go,300.0,450.0,1.0,,,,,,,,,cyan,diamond
0.0,6.0,2.0,1.0,6.0,6.0,622.1329492727818,2.0,0.0,part_2,stop,300.0,450.0,3.0,,,,,,,,,green,triangle
0.0,7.0,3.0,1.0,6.0,6.0,545.4414707583055,2.0,0.0,part_2,go,300.0,400.0,1.0,,,,,,,,,blue,circle
0.0,8.0,4.0,1.0,6.0,0.0,0.0,2.0,0.0,part_2,stop,300.0,400.0,4.0,,,,,,,,,yellow,cross
0.0,7.0,3.0,1.0,5.0,0.0,0.0,2.0,0.0,part_2,stop,300.0,450.0,4.0,,,,,,,,,blue,circle
0.0,5.0,1.0,1.0,6.0,6.0,399.7288837872474,2.0,0.0,part_2,go,350.0,450.0,1.0,,,,,,,,,gray,flipped triangle
0.0,8.0,4.0,1.0,5.0,5.0,311.4774212426709,2.0,0.0,part_2,stop,350.0,450.0,3.0,,,,,,,,,yellow,cross
0.0,1.0,1.0,0.0,6.0,6.0,762.8610252413637,2.0,0.0,part_2,go,300.0,450.0,1.0,,,,,,,,,white,I
0.0,2.0,2.0,0.0,6.0,6.0,649.7474999996484,2.0,0.0,part_2,go,300.0,450.0,1.0,,,,,,,,,magenta,square
0.0,8.0,4.0,1.0,5.0,0.0,0.0,2.0,0.0,part_2,stop,300.0,450.0,4.0,,,,,,,,,yellow,cross
0.0,4.0,4.0,0.0,6.0,6.0,549.9868987571972,2.0,0.0,part_2,go,350.0,450.0,1.0,,,,,,,,,cyan,diamond
0.0,1.0,1.0,0.0,6.0,6.0,811.3096820288774,2.0,0.0,part_2,go,350.0,450.0,1.0,,,,,,,,,white,I
0.0,1.0,1.0,0.0,5.0,5.0,630.8247217566532,2.0,0.0,part_2,go,350.0,450.0,1.0,,,,,,,,,white,I
0.0,3.0,3.0,0.0,5.0,5.0,611.0161709057138,2.0,0.0,part_2,go,350.0,450.0,1.0,,,,,,,,,orange,hexagon
0.0,6.0,2.0,1.0,5.0,0.0,0.0,2.0,0.0,part_2,stop,350.0,450.0,4.0,,,,,,,,,green,triangle
0.0,5.0,1.0,1.0,5.0,5.0,566.4286973023991,2.0,0.0,part_2,go,400.0,450.0,1.0,,,,,,,,,gray,flipped triangle
0.0,6.0,2.0,1.0,6.0,6.0,364.3227282718726,2.0,0.0,part_2,stop,400.0,450.0,3.0,,,,,,,,,green,triangle
0.0,7.0,3.0,1.0,6.0,0.0,0.0,2.0,0.0,part_2,stop,400.0,400.0,4.0,,,,,,,,,blue,circle
0.0,3.0,3.0,0.0,6.0,6.0,569.2973027562402,2.0,0.0,part_2,go,400.0,450.0,1.0,,,,,,,,,orange,hexagon
0.0,6.0,2.0,1.0,6.0,6.0,356.5930712720728,2.0,0.0,part_2,stop,400.0,450.0,3.0,,,,,,,,,green,triangle
0.0,3.0,3.0,0.0,6.0,6.0,639.2226653006219,2.0,0.0,part_2,go,400.0,400.0,1.0,,,,,,,,,orange,hexagon
0.0,2.0,2.0,0.0,6.0,6.0,570.7479797874839,2.0,0.0,part_2,go,400.0,400.0,1.0,,,,,,,,,magenta,square
0.0,8.0,4.0,1.0,6.0,0.0,0.0,2.0,0.0,part_2,stop,400.0,400.0,4.0,,,,,,,,,yellow,cross
0.0,5.0,1.0,1.0,6.0,0.0,0.0,2.0,0.0,part_2,stop,400.0,450.0,4.0,,,,,,,,,gray,flipped triangle
0.0,2.0,2.0,0.0,6.0,6.0,517.4053130285756,2.0,0.0,part_2,go,400.0,500.0,1.0,,,,,,,,,magenta,square
0.0,6.0,2.0,1.0,5.0,0.0,0.0,2.0,0.0,part_2,stop,400.0,500.0,4.0,,,,,,,,,green,triangle
0.0,4.0,4.0,0.0,6.0,6.0,632.2906739987957,2.0,0.0,part_2,go,450.0,500.0,1.0,,,,,,,,,cyan,diamond
0.0,6.0,2.0,1.0,6.0,6.0,644.6220935449674,2.0,0.0,part_2,stop,450.0,500.0,3.0,,,,,,,,,green,triangle
0.0,3.0,3.0,0.0,5.0,5.0,634.0504220297589,2.0,0.0,part_2,go,450.0,450.0,1.0,,,,,,,,,orange,hexagon
0.0,3.0,3.0,0.0,6.0,6.0,690.3496995455498,2.0,0.0,part_2,go,450.0,450.0,1.0,,,,,,,,,orange,hexagon
0.0,1.0,1.0,0.0,6.0,6.0,309.3177575137815,2.0,0.0,part_2,go,450.0,450.0,1.0,,,,,,,,,white,I
0.0,8.0,4.0,1.0,5.0,6.0,996.0370452718053,2.0,0.0,part_2,stop,450.0,450.0,3.0,,,,,,,,,yellow,cross
0.0,5.0,1.0,1.0,5.0,0.0,0.0,2.0,0.0,part_2,stop,400.0,450.0,4.0,,,,,,,,,gray,flipped triangle
0.0,1.0,1.0,0.0,5.0,5.0,930.009595271258,2.0,0.0,part_2,go,450.0,450.0,1.0,,,,,,,,,white,I
0.0,8.0,4.0,1.0,6.0,6.0,977.2319037874696,2.0,0.0,part_2,go,450.0,450.0,1.0,,,,,,,,,yellow,cross
0.0,3.0,3.0,0.0,6.0,6.0,548.5378443027003,2.0,0.0,part_2,go,450.0,450.0,1.0,,,,,,,,,orange,hexagon
0.0,4.0,4.0,0.0,6.0,6.0,483.7931205438508,2.0,0.0,part_2,go,450.0,450.0,1.0,,,,,,,,,cyan,diamond
0.0,3.0,3.0,0.0,6.0,6.0,438.14351648507,3.0,0.0,part_2,go,450.0,450.0,1.0,,,,,,,,,orange,hexagon
0.0,8.0,4.0,1.0,5.0,5.0,280.6045215147605,3.0,0.0,part_2,go,450.0,450.0,1.0,,,,,,,,,yellow,cross
0.0,8.0,4.0,1.0,5.0,5.0,462.1852580312406,3.0,0.0,part_2,go,450.0,450.0,1.0,,,,,,,,,yellow,cross
0.0,6.0,2.0,1.0,6.0,6.0,474.3584125135385,3.0,0.0,part_2,stop,450.0,450.0,3.0,,,,,,,,,green,triangle
0.0,8.0,4.0,1.0,6.0,6.0,441.8224570290476,3.0,0.0,part_2,go,450.0,400.0,1.0,,,,,,,,,yellow,cross
0.0,2.0,2.0,0.0,6.0,6.0,318.0792017574276,3.0,0.0,part_2,go,450.0,400.0,1.0,,,,,,,,,magenta,square
0.0,3.0,3.0,0.0,5.0,5.0,511.67249975696905,3.0,0.0,part_2,go,450.0,400.0,1.0,,,,,,,,,orange,hexagon
0.0,5.0,1.0,1.0,5.0,5.0,321.1917080298008,3.0,0.0,part_2,stop,450.0,400.0,3.0,,,,,,,,,gray,flipped triangle
0.0,5.0,1.0,1.0,6.0,6.0,331.577031785855,3.0,0.0,part_2,stop,400.0,400.0,3.0,,,,,,,,,gray,flipped triangle
0.0,1.0,1.0,0.0,6.0,6.0,433.6621153015585,3.0,0.0,part_2,go,400.0,350.0,1.0,,,,,,,,,white,I
0.0,8.0,4.0,1.0,6.0,6.0,299.8557505452481,3.0,0.0,part_2,go,400.0,350.0,1.0,,,,,,,,,yellow,cross
0.0,2.0,2.0,0.0,5.0,5.0,278.1342717571533,3.0,0.0,part_2,go,400.0,350.0,1.0,,,,,,,,,magenta,square
0.0,1.0,1.0,0.0,6.0,6.0,246.2445185137767,3.0,0.0,part_2,go,400.0,350.0,1.0,,,,,,,,,white,I
0.0,4.0,4.0,0.0,5.0,5.0,246.1573825148661,3.0,0.0,part_2,go,400.0,350.0,1.0,,,,,,,,,cyan,diamond
0.0,7.0,3.0,1.0,5.0,5.0,315.0994577572419,3.0,0.0,part_2,stop,400.0,350.0,3.0,,,,,,,,,blue,circle
0.0,3.0,3.0,0.0,5.0,5.0,663.7944457561389,3.0,0.0,part_2,go,350.0,350.0,1.0,,,,,,,,,orange,hexagon
0.0,4.0,4.0,0.0,5.0,5.0,529.564624059276,3.0,0.0,part_2,go,350.0,350.0,1.0,,,,,,,,,cyan,diamond
0.0,7.0,3.0,1.0,6.0,6.0,430.9781827578263,3.0,0.0,part_2,go,350.0,350.0,1.0,,,,,,,,,blue,circle
0.0,6.0,2.0,1.0,5.0,5.0,262.6301137879636,3.0,0.0,part_2,go,350.0,350.0,1.0,,,,,,,,,green,triangle
0.0,5.0,1.0,1.0,6.0,6.0,273.1808242733677,3.0,0.0,part_2,stop,350.0,350.0,3.0,,,,,,,,,gray,flipped triangle
0.0,2.0,2.0,0.0,6.0,6.0,532.7468885443523,3.0,0.0,part_2,go,350.0,300.0,1.0,,,,,,,,,magenta,square
0.0,1.0,1.0,0.0,5.0,5.0,275.040545302545,3.0,0.0,part_2,go,350.0,300.0,1.0,,,,,,,,,white,I
0.0,8.0,4.0,1.0,5.0,5.0,255.2762942705158,3.0,0.0,part_2,go,350.0,300.0,1.0,,,,,,,,,yellow,cross
0.0,7.0,3.0,1.0,5.0,5.0,300.2860984852304,3.0,0.0,part_2,stop,350.0,300.0,3.0,,,,,,,,,blue,circle
0.0,6.0,2.0,1.0,5.0,0.0,0.0,3.0,0.0,part_2,stop,300.0,300.0,4.0,,,,,,,,,green,triangle
0.0,2.0,2.0,0.0,5.0,5.0,311.9930075135926,3.0,0.0,part_2,go,350.0,300.0,1.0,,,,,,,,,magenta,square
0.0,7.0,3.0,1.0,5.0,5.0,290.2714332722098,3.0,0.0,part_2,stop,350.0,300.0,3.0,,,,,,,,,blue,circle
0.0,4.0,4.0,0.0,5.0,5.0,583.5673164838227,3.0,0.0,part_2,go,300.0,300.0,1.0,,,,,,,,,cyan,diamond
0.0,5.0,1.0,1.0,6.0,6.0,292.3663285437214,3.0,0.0,part_2,stop,300.0,300.0,3.0,,,,,,,,,gray,flipped triangle
0.0,1.0,1.0,0.0,5.0,5.0,541.0810295143165,3.0,0.0,part_2,go,300.0,250.0,1.0,,,,,,,,,white,I
0.0,3.0,3.0,0.0,6.0,6.0,327.4823725150781,3.0,0.0,part_2,go,300.0,250.0,1.0,,,,,,,,,orange,hexagon
0.0,3.0,3.0,0.0,5.0,5.0,250.36401627221488,3.0,0.0,part_2,go,300.0,250.0,1.0,,,,,,,,,orange,hexagon
0.0,1.0,1.0,0.0,5.0,5.0,308.0835087585001,3.0,0.0,part_2,go,300.0,250.0,1.0,,,,,,,,,white,I
0.0,6.0,2.0,1.0,5.0,0.0,0.0,3.0,0.0,part_2,stop,300.0,250.0,4.0,,,,,,,,,green,triangle
0.0,6.0,2.0,1.0,6.0,6.0,544.3000962713995,3.0,0.0,part_2,go,350.0,250.0,1.0,,,,,,,,,green,triangle
0.0,3.0,3.0,0.0,5.0,5.0,230.9428050302813,3.0,0.0,part_2,go,350.0,250.0,1.0,,,,,,,,,orange,hexagon
0.0,4.0,4.0,0.0,6.0,6.0,546.1981080588885,4.0,0.0,part_2,go,350.0,250.0,1.0,,,,,,,,,cyan,diamond
0.0,1.0,1.0,0.0,6.0,6.0,512.7269437871291,4.0,0.0,part_2,go,350.0,250.0,1.0,,,,,,,,,white,I
0.0,5.0,1.0,1.0,5.0,0.0,0.0,4.0,0.0,part_2,stop,350.0,250.0,4.0,,,,,,,,,gray,flipped triangle
0.0,4.0,4.0,0.0,5.0,5.0,648.5836790598114,4.0,0.0,part_2,go,400.0,250.0,1.0,,,,,,,,,cyan,diamond
0.0,2.0,2.0,0.0,6.0,6.0,774.8195637868776,4.0,0.0,part_2,go,400.0,250.0,1.0,,,,,,,,,magenta,square
0.0,2.0,2.0,0.0,6.0,6.0,526.7516377571155,4.0,0.0,part_2,go,400.0,250.0,1.0,,,,,,,,,magenta,square
0.0,3.0,3.0,0.0,5.0,5.0,268.5146890598844,4.0,0.0,part_2,go,400.0,250.0,1.0,,,,,,,,,orange,hexagon
0.0,1.0,1.0,0.0,5.0,5.0,584.3059375438315,4.0,0.0,part_2,go,400.0,250.0,1.0,,,,,,,,,white,I
0.0,5.0,1.0,1.0,5.0,5.0,382.8420235149679,4.0,0.0,part_2,stop,400.0,250.0,3.0,,,,,,,,,gray,flipped triangle
0.0,6.0,2.0,1.0,5.0,0.0,0.0,4.0,0.0,part_2,stop,350.0,250.0,4.0,,,,,,,,,green,triangle
0.0,1.0,1.0,0.0,5.0,5.0,452.4298437863763,4.0,0.0,part_2,go,400.0,250.0,1.0,,,,,,,,,white,I
0.0,8.0,4.0,1.0,5.0,5.0,352.7513800290762,4.0,0.0,part_2,stop,400.0,250.0,3.0,,,,,,,,,yellow,cross
0.0,7.0,3.0,1.0,5.0,5.0,284.6874565439066,4.0,0.0,part_2,stop,350.0,250.0,3.0,,,,,,,,,blue,circle
0.0,4.0,4.0,0.0,6.0,6.0,388.7342427278781,4.0,0.0,part_2,go,300.0,250.0,1.0,,,,,,,,,cyan,diamond
0.0,7.0,3.0,1.0,6.0,6.0,287.1947757575981,4.0,0.0,part_2,go,300.0,250.0,1.0,,,,,,,,,blue,circle
0.0,4.0,4.0,0.0,5.0,5.0,253.53406951398938,4.0,0.0,part_2,go,300.0,250.0,1.0,,,,,,,,,cyan,diamond
0.0,4.0,4.0,0.0,6.0,6.0,233.9494295447366,4.0,0.0,part_2,go,300.0,250.0,1.0,,,,,,,,,cyan,diamond
0.0,1.0,1.0,0.0,6.0,6.0,661.8644230002246,4.0,0.0,part_2,go,300.0,250.0,1.0,,,,,,,,,white,I
0.0,1.0,1.0,0.0,6.0,6.0,605.893804513471,4.0,0.0,part_2,go,300.0,250.0,1.0,,,,,,,,,white,I
0.0,6.0,2.0,1.0,5.0,5.0,404.6912495141441,4.0,0.0,part_2,go,300.0,250.0,1.0,,,,,,,,,green,triangle
0.0,8.0,4.0,1.0,5.0,5.0,302.946138786865,4.0,0.0,part_2,go,300.0,250.0,1.0,,,,,,,,,yellow,cross
0.0,2.0,2.0,0.0,6.0,6.0,270.1354929031367,4.0,0.0,part_2,go,300.0,250.0,1.0,,,,,,,,,magenta,square
0.0,7.0,3.0,1.0,5.0,5.0,248.8551745445875,4.0,0.0,part_2,stop,300.0,250.0,3.0,,,,,,,,,blue,circle
0.0,8.0,4.0,1.0,6.0,0.0,0.0,4.0,0.0,part_2,stop,250.0,250.0,4.0,,,,,,,,,yellow,cross
0.0,3.0,3.0,0.0,6.0,6.0,296.2523340302141,4.0,0.0,part_2,go,250.0,300.0,1.0,,,,,,,,,orange,hexagon
0.0,5.0,1.0,1.0,6.0,6.0,296.4933907569502,4.0,0.0,part_2,go,250.0,300.0,1.0,,,,,,,,,gray,flipped triangle
0.0,3.0,3.0,0.0,6.0,6.0,253.3327530600218,4.0,0.0,part_2,go,250.0,300.0,1.0,,,,,,,,,orange,hexagon
0.0,2.0,2.0,0.0,6.0,6.0,286.6276573004143,4.0,0.0,part_2,go,250.0,300.0,1.0,,,,,,,,,magenta,square
0.0,6.0,2.0,1.0,5.0,5.0,320.5661380288802,4.0,0.0,part_2,stop,250.0,300.0,3.0,,,,,,,,,green,triangle
0.0,3.0,3.0,0.0,5.0,5.0,524.8441304865992,4.0,0.0,part_2,go,200.0,300.0,1.0,,,,,,,,,orange,hexagon
0.0,4.0,4.0,0.0,5.0,5.0,694.4928282719047,4.0,0.0,part_2,go,200.0,300.0,1.0,,,,,,,,,cyan,diamond
0.0,6.0,2.0,1.0,5.0,0.0,0.0,4.0,0.0,part_2,stop,200.0,300.0,4.0,,,,,,,,,green,triangle
0.0,5.0,1.0,1.0,6.0,0.0,0.0,4.0,0.0,part_2,stop,250.0,300.0,4.0,,,,,,,,,gray,flipped triangle
0.0,3.0,3.0,0.0,6.0,6.0,326.6792225149402,4.0,0.0,part_2,go,250.0,350.0,1.0,,,,,,,,,orange,hexagon
0.0,6.0,2.0,1.0,5.0,5.0,257.9169112723321,4.0,0.0,part_2,go,250.0,350.0,1.0,,,,,,,,,green,triangle
0.0,7.0,3.0,1.0,6.0,6.0,316.4865787584858,4.0,0.0,part_2,go,250.0,350.0,1.0,,,,,,,,,blue,circle
0.0,3.0,3.0,0.0,5.0,5.0,627.6429527861183,5.0,0.0,part_2,go,250.0,350.0,1.0,,,,,,,,,orange,hexagon
0.0,1.0,1.0,0.0,6.0,6.0,381.6129805145465,5.0,0.0,part_2,go,250.0,350.0,1.0,,,,,,,,,white,I
0.0,6.0,2.0,1.0,6.0,6.0,280.3147280010307,5.0,0.0,part_2,stop,250.0,350.0,3.0,,,,,,,,,green,triangle
0.0,1.0,1.0,0.0,5.0,5.0,507.8655272718606,5.0,0.0,part_2,go,250.0,300.0,1.0,,,,,,,,,white,I
0.0,4.0,4.0,0.0,5.0,5.0,237.2362467867788,5.0,0.0,part_2,go,250.0,300.0,1.0,,,,,,,,,cyan,diamond
0.0,8.0,4.0,1.0,6.0,6.0,260.1494530881609,5.0,0.0,part_2,go,250.0,300.0,1.0,,,,,,,,,yellow,cross
0.0,3.0,3.0,0.0,6.0,6.0,633.5334035447886,5.0,0.0,part_2,go,250.0,300.0,1.0,,,,,,,,,orange,hexagon
0.0,1.0,1.0,0.0,6.0,6.0,286.0913369986519,5.0,0.0,part_2,go,250.0,300.0,1.0,,,,,,,,,white,I
0.0,5.0,1.0,1.0,5.0,5.0,261.3451255438122,5.0,0.0,part_2,stop,250.0,300.0,3.0,,,,,,,,,gray,flipped triangle
0.0,2.0,2.0,0.0,6.0,6.0,556.2369110593863,5.0,0.0,part_2,go,200.0,300.0,1.0,,,,,,,,,magenta,square
0.0,5.0,1.0,1.0,6.0,6.0,254.1665087865112,5.0,0.0,part_2,go,200.0,300.0,1.0,,,,,,,,,gray,flipped triangle
0.0,4.0,4.0,0.0,6.0,6.0,355.8335210600489,5.0,0.0,part_2,go,200.0,300.0,1.0,,,,,,,,,cyan,diamond
0.0,5.0,1.0,1.0,5.0,0.0,0.0,5.0,0.0,part_2,stop,200.0,300.0,4.0,,,,,,,,,gray,flipped triangle
0.0,4.0,4.0,0.0,6.0,6.0,503.6340365149954,5.0,0.0,part_2,go,250.0,300.0,1.0,,,,,,,,,cyan,diamond
0.0,5.0,1.0,1.0,6.0,6.0,308.6099267566169,5.0,0.0,part_2,stop,250.0,300.0,3.0,,,,,,,,,gray,flipped triangle
0.0,3.0,3.0,0.0,5.0,5.0,517.2274420292524,5.0,0.0,part_2,go,250.0,250.0,1.0,,,,,,,,,orange,hexagon
0.0,7.0,3.0,1.0,5.0,5.0,349.4817882437928,5.0,0.0,part_2,stop,250.0,250.0,3.0,,,,,,,,,blue,circle
0.0,8.0,4.0,1.0,6.0,0.0,0.0,5.0,0.0,part_2,stop,200.0,250.0,4.0,,,,,,,,,yellow,cross
0.0,4.0,4.0,0.0,6.0,6.0,270.7020267280313,5.0,0.0,part_2,go,200.0,300.0,1.0,,,,,,,,,cyan,diamond
0.0,6.0,2.0,1.0,6.0,6.0,271.911105757681,5.0,0.0,part_2,stop,200.0,300.0,3.0,,,,,,,,,green,triangle
0.0,4.0,4.0,0.0,6.0,6.0,778.8875777878275,5.0,0.0,part_2,go,200.0,250.0,1.0,,,,,,,,,cyan,diamond
0.0,5.0,1.0,1.0,6.0,0.0,0.0,5.0,0.0,part_2,stop,200.0,250.0,4.0,,,,,,,,,gray,flipped triangle
0.0,2.0,2.0,0.0,5.0,5.0,544.4477043001825,5.0,0.0,part_2,go,200.0,300.0,1.0,,,,,,,,,magenta,square
0.0,8.0,4.0,1.0,6.0,0.0,0.0,5.0,0.0,part_2,stop,200.0,300.0,4.0,,,,,,,,,yellow,cross
0.0,3.0,3.0,0.0,6.0,6.0,255.34062630140397,5.0,0.0,part_2,go,200.0,350.0,1.0,,,,,,,,,orange,hexagon
0.0,7.0,3.0,1.0,5.0,0.0,0.0,5.0,0.0,part_2,stop,200.0,350.0,4.0,,,,,,,,,blue,circle
0.0,3.0,3.0,0.0,6.0,6.0,223.0921705140645,5.0,0.0,part_2,go,250.0,350.0,1.0,,,,,,,,,orange,hexagon
0.0,6.0,2.0,1.0,5.0,0.0,0.0,5.0,0.0,part_2,stop,250.0,350.0,4.0,,,,,,,,,green,triangle
0.0,7.0,3.0,1.0,5.0,5.0,448.7214260589098,5.0,0.0,part_2,stop,300.0,350.0,3.0,,,,,,,,,blue,circle
0.0,7.0,3.0,1.0,5.0,5.0,370.7937588169443,5.0,0.0,part_2,stop,250.0,350.0,3.0,,,,,,,,,blue,circle
0.0,1.0,1.0,0.0,6.0,6.0,438.5431407572469,5.0,0.0,part_2,go,200.0,350.0,1.0,,,,,,,,,white,I
0.0,6.0,2.0,1.0,6.0,0.0,0.0,5.0,0.0,part_2,stop,200.0,350.0,4.0,,,,,,,,,green,triangle
0.0,6.0,2.0,1.0,5.0,0.0,0.0,5.0,0.0,part_2,stop,200.0,400.0,4.0,,,,,,,,,green,triangle
0.0,8.0,4.0,1.0,6.0,6.0,496.9334382731176,5.0,0.0,part_2,stop,250.0,400.0,3.0,,,,,,,,,yellow,cross
0.0,7.0,3.0,1.0,5.0,5.0,892.321643545074,5.0,0.0,part_2,go,250.0,350.0,1.0,,,,,,,,,blue,circle
0.0,7.0,3.0,1.0,6.0,0.0,0.0,5.0,0.0,part_2,stop,250.0,350.0,4.0,,,,,,,,,blue,circle
0.0,4.0,4.0,0.0,5.0,5.0,395.18763175874477,6.0,0.0,part_2,go,250.0,400.0,1.0,,,,,,,,,cyan,diamond
0.0,4.0,4.0,0.0,6.0,6.0,565.0434215440328,6.0,0.0,part_2,go,250.0,400.0,1.0,,,,,,,,,cyan,diamond
0.0,6.0,2.0,1.0,6.0,6.0,430.6707090599957,6.0,0.0,part_2,stop,250.0,400.0,3.0,,,,,,,,,green,triangle
0.0,2.0,2.0,0.0,5.0,5.0,600.6413557879569,6.0,0.0,part_2,go,250.0,350.0,1.0,,,,,,,,,magenta,square
0.0,2.0,2.0,0.0,5.0,5.0,488.50292699899,6.0,0.0,part_2,go,250.0,350.0,1.0,,,,,,,,,magenta,square
0.0,3.0,3.0,0.0,5.0,5.0,590.7725759989262,6.0,0.0,part_2,go,250.0,350.0,1.0,,,,,,,,,orange,hexagon
0.0,5.0,1.0,1.0,5.0,5.0,366.9844903033663,6.0,0.0,part_2,stop,250.0,350.0,3.0,,,,,,,,,gray,flipped triangle
0.0,8.0,4.0,1.0,6.0,6.0,794.7942322734889,6.0,0.0,part_2,go,200.0,350.0,1.0,,,,,,,,,yellow,cross
0.0,6.0,2.0,1.0,5.0,0.0,0.0,6.0,0.0,part_2,stop,200.0,350.0,4.0,,,,,,,,,green,triangle
0.0,1.0,1.0,0.0,6.0,6.0,334.8782883022068,6.0,0.0,part_2,go,250.0,350.0,1.0,,,,,,,,,white,I
0.0,1.0,1.0,0.0,5.0,5.0,314.9868213022273,6.0,0.0,part_2,go,250.0,350.0,1.0,,,,,,,,,white,I
0.0,3.0,3.0,0.0,5.0,5.0,596.211201758706,6.0,0.0,part_2,go,250.0,350.0,1.0,,,,,,,,,orange,hexagon
0.0,2.0,2.0,0.0,6.0,6.0,270.7433042724005,6.0,0.0,part_2,go,250.0,350.0,1.0,,,,,,,,,magenta,square
0.0,4.0,4.0,0.0,6.0,6.0,384.4019722728262,6.0,0.0,part_2,go,250.0,350.0,1.0,,,,,,,,,cyan,diamond
0.0,4.0,4.0,0.0,6.0,6.0,700.5485395147844,6.0,0.0,part_2,go,250.0,350.0,1.0,,,,,,,,,cyan,diamond
0.0,8.0,4.0,1.0,5.0,0.0,0.0,6.0,0.0,part_2,stop,250.0,350.0,4.0,,,,,,,,,yellow,cross
0.0,7.0,3.0,1.0,5.0,0.0,0.0,6.0,0.0,part_2,stop,300.0,350.0,4.0,,,,,,,,,blue,circle
0.0,2.0,2.0,0.0,6.0,6.0,646.9650065428141,6.0,0.0,part_2,go,350.0,350.0,1.0,,,,,,,,,magenta,square
0.0,6.0,2.0,1.0,6.0,6.0,286.6432215141685,6.0,0.0,part_2,go,350.0,350.0,1.0,,,,,,,,,green,triangle
0.0,8.0,4.0,1.0,5.0,5.0,277.0044379994942,6.0,0.0,part_2,stop,350.0,350.0,3.0,,,,,,,,,yellow,cross
0.0,7.0,3.0,1.0,6.0,6.0,457.2538255142717,6.0,0.0,part_2,go,300.0,350.0,1.0,,,,,,,,,blue,circle
0.0,7.0,3.0,1.0,5.0,5.0,536.3315167869587,6.0,0.0,part_2,go,300.0,350.0,1.0,,,,,,,,,blue,circle
0.0,7.0,3.0,1.0,5.0,5.0,336.58162278698,6.0,0.0,part_2,stop,300.0,350.0,3.0,,,,,,,,,blue,circle
0.0,8.0,4.0,1.0,5.0,0.0,0.0,6.0,0.0,part_2,stop,250.0,350.0,4.0,,,,,,,,,yellow,cross
0.0,5.0,1.0,1.0,5.0,0.0,0.0,6.0,0.0,part_2,stop,300.0,350.0,4.0,,,,,,,,,gray,flipped triangle
0.0,2.0,2.0,0.0,6.0,6.0,395.009651514556,6.0,0.0,part_2,go,350.0,350.0,1.0,,,,,,,,,magenta,square
0.0,3.0,3.0,0.0,6.0,6.0,349.5747303004464,6.0,0.0,part_2,go,350.0,350.0,1.0,,,,,,,,,orange,hexagon
0.0,4.0,4.0,0.0,6.0,6.0,316.760870786311,6.0,0.0,part_2,go,350.0,350.0,1.0,,,,,,,,,cyan,diamond
0.0,8.0,4.0,1.0,5.0,0.0,0.0,6.0,0.0,part_2,stop,350.0,350.0,4.0,,,,,,,,,yellow,cross
0.0,1.0,1.0,0.0,6.0,6.0,600.4751822729304,6.0,0.0,part_2,go,400.0,350.0,1.0,,,,,,,,,white,I
0.0,6.0,2.0,1.0,6.0,6.0,409.1612977881596,6.0,0.0,part_2,stop,400.0,350.0,3.0,,,,,,,,,green,triangle
0.0,4.0,4.0,0.0,5.0,5.0,590.6375965441839,6.0,0.0,part_2,go,400.0,300.0,1.0,,,,,,,,,cyan,diamond
0.0,4.0,4.0,0.0,5.0,5.0,590.5455077572697,6.0,0.0,part_2,go,400.0,300.0,1.0,,,,,,,,,cyan,diamond
0.0,4.0,4.0,0.0,5.0,5.0,580.6205447570392,6.0,0.0,part_2,go,400.0,300.0,1.0,,,,,,,,,cyan,diamond
0.0,5.0,1.0,1.0,5.0,0.0,0.0,6.0,0.0,part_2,stop,400.0,300.0,4.0,,,,,,,,,gray,flipped triangle
0.0,2.0,2.0,0.0,6.0,6.0,616.0626547862194,6.0,0.0,part_2,go,450.0,300.0,1.0,,,,,,,,,magenta,square
0.0,2.0,2.0,0.0,5.0,5.0,656.2388757884037,7.0,0.0,part_2,go,450.0,300.0,1.0,,,,,,,,,magenta,square
0.0,6.0,2.0,1.0,5.0,5.0,342.7478925150353,7.0,0.0,part_2,stop,450.0,300.0,3.0,,,,,,,,,green,triangle
0.0,3.0,3.0,0.0,5.0,5.0,769.7261312423507,7.0,0.0,part_2,go,400.0,300.0,1.0,,,,,,,,,orange,hexagon
0.0,6.0,2.0,1.0,6.0,0.0,0.0,7.0,0.0,part_2,stop,400.0,300.0,4.0,,,,,,,,,green,triangle
0.0,8.0,4.0,1.0,6.0,0.0,0.0,7.0,0.0,part_2,stop,400.0,350.0,4.0,,,,,,,,,yellow,cross
0.0,5.0,1.0,1.0,6.0,6.0,548.5731810604193,7.0,0.0,part_2,stop,400.0,400.0,3.0,,,,,,,,,gray,flipped triangle
0.0,3.0,3.0,0.0,6.0,6.0,650.3663000003144,7.0,0.0,part_2,go,400.0,350.0,1.0,,,,,,,,,orange,hexagon
0.0,7.0,3.0,1.0,6.0,0.0,0.0,7.0,0.0,part_2,stop,400.0,350.0,4.0,,,,,,,,,blue,circle
0.0,3.0,3.0,0.0,5.0,5.0,594.423187270877,7.0,0.0,part_2,go,400.0,400.0,1.0,,,,,,,,,orange,hexagon
0.0,5.0,1.0,1.0,6.0,6.0,291.8185330599954,7.0,0.0,part_2,stop,400.0,400.0,3.0,,,,,,,,,gray,flipped triangle
0.0,4.0,4.0,0.0,5.0,5.0,619.0703115153156,7.0,0.0,part_2,go,400.0,350.0,1.0,,,,,,,,,cyan,diamond
0.0,8.0,4.0,1.0,5.0,5.0,438.9773105431231,7.0,0.0,part_2,stop,400.0,350.0,3.0,,,,,,,,,yellow,cross
0.0,7.0,3.0,1.0,6.0,0.0,0.0,7.0,0.0,part_2,stop,350.0,350.0,4.0,,,,,,,,,blue,circle
0.0,7.0,3.0,1.0,5.0,0.0,0.0,7.0,0.0,part_2,stop,350.0,400.0,4.0,,,,,,,,,blue,circle
0.0,3.0,3.0,0.0,5.0,5.0,667.3543334854912,7.0,0.0,part_2,go,400.0,400.0,1.0,,,,,,,,,orange,hexagon
0.0,3.0,3.0,0.0,6.0,6.0,510.3206135445362,7.0,0.0,part_2,go,400.0,400.0,1.0,,,,,,,,,orange,hexagon
0.0,8.0,4.0,1.0,5.0,0.0,0.0,7.0,0.0,part_2,stop,400.0,400.0,4.0,,,,,,,,,yellow,cross
0.0,6.0,2.0,1.0,6.0,6.0,568.0823383008828,7.0,0.0,part_2,go,450.0,400.0,1.0,,,,,,,,,green,triangle
0.0,4.0,4.0,0.0,6.0,6.0,772.5815095145663,7.0,0.0,part_2,go,450.0,400.0,1.0,,,,,,,,,cyan,diamond
0.0,2.0,2.0,0.0,5.0,5.0,502.15309699888167,7.0,0.0,part_2,go,450.0,400.0,1.0,,,,,,,,,magenta,square
0.0,5.0,1.0,1.0,5.0,5.0,300.4964827578078,7.0,0.0,part_2,stop,450.0,400.0,3.0,,,,,,,,,gray,flipped triangle
0.0,3.0,3.0,0.0,6.0,6.0,516.3509127869474,7.0,0.0,part_2,go,400.0,400.0,1.0,,,,,,,,,orange,hexagon
0.0,2.0,2.0,0.0,5.0,5.0,539.043399028742,7.0,0.0,part_2,go,400.0,400.0,1.0,,,,,,,,,magenta,square
0.0,6.0,2.0,1.0,5.0,5.0,471.9471647858881,7.0,0.0,part_2,stop,400.0,400.0,3.0,,,,,,,,,green,triangle
0.0,7.0,3.0,1.0,6.0,0.0,0.0,7.0,0.0,part_2,stop,350.0,400.0,4.0,,,,,,,,,blue,circle
0.0,2.0,2.0,0.0,5.0,5.0,531.2063077872153,7.0,0.0,part_2,go,350.0,450.0,1.0,,,,,,,,,magenta,square
0.0,1.0,1.0,0.0,5.0,5.0,564.7524997875735,7.0,0.0,part_2,go,350.0,450.0,1.0,,,,,,,,,white,I
0.0,2.0,2.0,0.0,5.0,5.0,678.397028515974,7.0,0.0,part_2,go,350.0,450.0,1.0,,,,,,,,,magenta,square
0.0,7.0,3.0,1.0,5.0,5.0,308.782028272617,7.0,0.0,part_2,stop,350.0,450.0,3.0,,,,,,,,,blue,circle
0.0,6.0,2.0,1.0,6.0,6.0,645.5589067882102,7.0,0.0,part_2,go,300.0,450.0,1.0,,,,,,,,,green,triangle
0.0,3.0,3.0,0.0,6.0,6.0,601.2945330585353,7.0,0.0,part_2,go,300.0,450.0,1.0,,,,,,,,,orange,hexagon
0.0,2.0,2.0,0.0,6.0,6.0,490.0244357868359,7.0,0.0,part_2,go,300.0,450.0,1.0,,,,,,,,,magenta,square
0.0,2.0,2.0,0.0,6.0,6.0,333.9058203018794,7.0,0.0,part_2,go,300.0,450.0,1.0,,,,,,,,,magenta,square
0.0,1.0,1.0,0.0,6.0,6.0,492.6316610599315,7.0,0.0,part_2,go,300.0,450.0,1.0,,,,,,,,,white,I
0.0,6.0,2.0,1.0,6.0,6.0,536.8482930298342,7.0,0.0,part_2,go,300.0,450.0,1.0,,,,,,,,,green,triangle
0.0,8.0,4.0,1.0,6.0,6.0,549.8582350301149,7.0,0.0,part_2,stop,300.0,450.0,3.0,,,,,,,,,yellow,cross
0.0,7.0,3.0,1.0,6.0,6.0,527.934138001001,8.0,0.0,part_2,stop,300.0,400.0,3.0,,,,,,,,,blue,circle
0.0,1.0,1.0,0.0,6.0,6.0,350.343007243282,8.0,0.0,part_2,go,300.0,350.0,1.0,,,,,,,,,white,I
0.0,1.0,1.0,0.0,5.0,5.0,586.2654577867943,8.0,0.0,part_2,go,300.0,350.0,1.0,,,,,,,,,white,I
0.0,7.0,3.0,1.0,6.0,6.0,474.4593102732324,8.0,0.0,part_2,stop,300.0,350.0,3.0,,,,,,,,,blue,circle
0.0,5.0,1.0,1.0,5.0,0.0,0.0,8.0,0.0,part_2,stop,300.0,300.0,4.0,,,,,,,,,gray,flipped triangle
0.0,2.0,2.0,0.0,6.0,6.0,610.2190175442956,8.0,0.0,part_2,go,350.0,300.0,1.0,,,,,,,,,magenta,square
0.0,5.0,1.0,1.0,6.0,6.0,420.2076000292436,8.0,0.0,part_2,stop,350.0,300.0,3.0,,,,,,,,,gray,flipped triangle
0.0,7.0,3.0,1.0,6.0,0.0,0.0,8.0,0.0,part_2,stop,350.0,250.0,4.0,,,,,,,,,blue,circle
0.0,8.0,4.0,1.0,5.0,5.0,488.8021804490563,8.0,0.0,part_2,stop,350.0,300.0,3.0,,,,,,,,,yellow,cross
0.0,1.0,1.0,0.0,5.0,5.0,647.5106592715747,8.0,0.0,part_2,go,300.0,300.0,1.0,,,,,,,,,white,I
0.0,4.0,4.0,0.0,5.0,5.0,918.7923535446316,8.0,0.0,part_2,go,300.0,300.0,1.0,,,,,,,,,cyan,diamond
0.0,4.0,4.0,0.0,6.0,6.0,707.0225690004008,8.0,0.0,part_2,go,300.0,300.0,1.0,,,,,,,,,cyan,diamond
0.0,2.0,2.0,0.0,6.0,6.0,391.5204907862062,8.0,0.0,part_2,go,300.0,300.0,1.0,,,,,,,,,magenta,square
0.0,8.0,4.0,1.0,5.0,5.0,223.4428817882872,8.0,0.0,part_2,stop,300.0,300.0,3.0,,,,,,,,,yellow,cross
0.0,5.0,1.0,1.0,6.0,0.0,0.0,8.0,0.0,part_2,stop,250.0,300.0,4.0,,,,,,,,,gray,flipped triangle
0.0,2.0,2.0,0.0,5.0,5.0,652.9473605150997,8.0,0.0,part_2,go,250.0,350.0,1.0,,,,,,,,,magenta,square
0.0,2.0,2.0,0.0,5.0,5.0,609.4007650299318,8.0,0.0,part_2,go,250.0,350.0,1.0,,,,,,,,,magenta,square
0.0,1.0,1.0,0.0,5.0,5.0,452.6315205148421,8.0,0.0,part_2,go,250.0,350.0,1.0,,,,,,,,,white,I
0.0,1.0,1.0,0.0,6.0,6.0,577.5056047568796,8.0,0.0,part_2,go,250.0,350.0,1.0,,,,,,,,,white,I
0.0,3.0,3.0,0.0,6.0,6.0,532.7144837574451,8.0,0.0,part_2,go,250.0,350.0,1.0,,,,,,,,,orange,hexagon
0.0,2.0,2.0,0.0,5.0,5.0,567.9821020003146,8.0,0.0,part_2,go,250.0,350.0,1.0,,,,,,,,,magenta,square
0.0,7.0,3.0,1.0,5.0,0.0,0.0,8.0,0.0,part_2,stop,250.0,350.0,4.0,,,,,,,,,blue,circle
0.0,6.0,2.0,1.0,6.0,0.0,0.0,8.0,0.0,part_2,stop,300.0,350.0,4.0,,,,,,,,,green,triangle
0.0,8.0,4.0,1.0,5.0,0.0,0.0,8.0,0.0,part_2,stop,300.0,400.0,4.0,,,,,,,,,yellow,cross
0.0,4.0,4.0,0.0,5.0,5.0,569.4142602715146,8.0,0.0,part_2,go,350.0,400.0,1.0,,,,,,,,,cyan,diamond
0.0,5.0,1.0,1.0,5.0,5.0,312.081301544822,8.0,0.0,part_2,go,350.0,400.0,1.0,,,,,,,,,gray,flipped triangle
0.0,6.0,2.0,1.0,6.0,6.0,425.5653997570334,8.0,0.0,part_2,stop,350.0,400.0,3.0,,,,,,,,,green,triangle
0.0,8.0,4.0,1.0,6.0,0.0,0.0,8.0,0.0,part_2,stop,350.0,350.0,4.0,,,,,,,,,yellow,cross
0.0,5.0,1.0,1.0,5.0,5.0,518.1969230307004,8.0,0.0,part_2,go,350.0,400.0,1.0,,,,,,,,,gray,flipped triangle
0.0,6.0,2.0,1.0,5.0,0.0,0.0,8.0,0.0,part_2,stop,350.0,400.0,4.0,,,,,,,,,green,triangle
0.0,5.0,1.0,1.0,5.0,0.0,0.0,8.0,0.0,part_2,stop,400.0,400.0,4.0,,,,,,,,,gray,flipped triangle
0.0,5.0,1.0,1.0,5.0,5.0,586.813125786648,8.0,0.0,part_2,stop,450.0,400.0,3.0,,,,,,,,,gray,flipped triangle
0.0,3.0,3.0,0.0,5.0,5.0,475.7056169710267,8.0,0.0,part_2,go,400.0,400.0,1.0,,,,,,,,,orange,hexagon
0.0,3.0,3.0,0.0,5.0,5.0,601.6117020299134,8.0,0.0,part_2,go,400.0,400.0,1.0,,,,,,,,,orange,hexagon
0.0,1.0,1.0,0.0,6.0,6.0,535.1226505445084,8.0,0.0,part_2,go,400.0,400.0,1.0,,,,,,,,,white,I
0.0,1.0,1.0,0.0,5.0,5.0,590.6141682717134,8.0,0.0,part_2,go,400.0,400.0,1.0,,,,,,,,,white,I
0.0,4.0,4.0,0.0,7.0,2.0,3128.5006894886465,1.0,1.0,part_3,go,0.0,0.0,0.0,196.0,4.0,147.0,196.0,245.0,294.0,49.0,98.0,cyan,diamond
0.0,3.0,3.0,0.0,7.0,5.0,1628.9702784870317,1.0,1.0,part_3,go,0.0,0.0,0.0,234.0,6.0,195.0,78.0,117.0,39.0,234.0,156.0,orange,hexagon
0.0,7.0,3.0,1.0,7.0,6.0,1695.9551984873542,1.0,1.0,part_3,go,0.0,0.0,0.0,78.0,2.0,195.0,117.0,156.0,39.0,234.0,78.0,blue,circle
0.0,2.0,2.0,0.0,7.0,1.0,1168.4162899764488,1.0,1.0,part_3,go,0.0,0.0,0.0,294.0,6.0,294.0,245.0,196.0,98.0,49.0,147.0,magenta,square
0.0,8.0,4.0,1.0,7.0,4.0,1080.4124799997226,1.0,1.0,part_3,go,0.0,0.0,0.0,195.0,5.0,78.0,156.0,117.0,195.0,39.0,234.0,yellow,cross
0.0,7.0,3.0,1.0,7.0,6.0,0.18561000069890002,1.0,1.0,part_3,go,0.0,0.0,0.0,98.0,2.0,294.0,245.0,49.0,147.0,196.0,98.0,blue,circle
0.0,2.0,2.0,0.0,7.0,5.0,1082.885827352584,1.0,1.0,part_3,go,0.0,0.0,0.0,78.0,2.0,39.0,156.0,195.0,234.0,78.0,117.0,magenta,square
0.0,3.0,3.0,0.0,7.0,3.0,2952.1730833785114,1.0,1.0,part_3,go,0.0,0.0,0.0,98.0,2.0,294.0,196.0,98.0,49.0,147.0,245.0,orange,hexagon
0.0,3.0,3.0,0.0,7.0,3.0,4042.560936864902,1.0,1.0,part_3,go,0.0,0.0,0.0,108.0,2.0,324.0,54.0,108.0,162.0,270.0,216.0,orange,hexagon
0.0,2.0,2.0,0.0,7.0,2.0,3607.3125246221025,1.0,1.0,part_3,go,0.0,0.0,0.0,78.0,2.0,195.0,78.0,117.0,156.0,39.0,234.0,magenta,square
0.0,1.0,1.0,0.0,7.0,6.0,2054.822971487738,1.0,1.0,part_3,go,0.0,0.0,0.0,147.0,3.0,196.0,98.0,245.0,294.0,49.0,147.0,white,I
0.0,8.0,4.0,1.0,7.0,4.0,920.2717837306408,1.0,1.0,part_3,go,0.0,0.0,0.0,136.0,4.0,68.0,170.0,34.0,136.0,204.0,102.0,yellow,cross
0.0,2.0,2.0,0.0,7.0,2.0,3756.294727731074,1.0,1.0,part_3,go,0.0,0.0,0.0,264.0,6.0,220.0,264.0,88.0,44.0,176.0,132.0,magenta,square
0.0,8.0,4.0,1.0,7.0,2.0,4836.541711243626,1.0,1.0,part_3,go,0.0,0.0,0.0,220.0,5.0,176.0,220.0,132.0,264.0,88.0,44.0,yellow,cross
0.0,2.0,2.0,0.0,7.0,5.0,3139.842640108327,1.0,1.0,part_3,go,0.0,0.0,0.0,68.0,2.0,34.0,170.0,204.0,136.0,68.0,102.0,magenta,square
0.0,8.0,4.0,1.0,7.0,5.0,2768.056864000755,1.0,1.0,part_3,go,0.0,0.0,0.0,204.0,6.0,102.0,170.0,34.0,68.0,204.0,136.0,yellow,cross
0.0,8.0,4.0,1.0,7.0,2.0,2523.3374601084506,1.0,1.0,part_3,go,0.0,0.0,0.0,147.0,3.0,49.0,147.0,294.0,98.0,245.0,196.0,yellow,cross
0.0,5.0,1.0,1.0,7.0,4.0,1113.340498865,1.0,2.0,part_3,go,0.0,0.0,0.0,147.0,3.0,245.0,98.0,196.0,147.0,49.0,294.0,gray,flipped triangle
0.0,1.0,1.0,0.0,7.0,1.0,0.0929824891500175,1.0,1.0,part_3,go,0.0,0.0,0.0,220.0,5.0,220.0,44.0,132.0,176.0,88.0,264.0,white,I
0.0,8.0,4.0,1.0,7.0,6.0,2600.2186151090427,1.0,1.0,part_3,go,0.0,0.0,0.0,324.0,6.0,54.0,216.0,108.0,162.0,270.0,324.0,yellow,cross
0.0,8.0,4.0,1.0,7.0,6.0,2027.8459613546147,2.0,1.0,part_3,go,0.0,0.0,0.0,264.0,6.0,132.0,176.0,44.0,220.0,88.0,264.0,yellow,cross
0.0,8.0,4.0,1.0,7.0,6.0,1310.2811332428246,2.0,1.0,part_3,go,0.0,0.0,0.0,324.0,6.0,162.0,270.0,216.0,108.0,54.0,324.0,yellow,cross
0.0,5.0,1.0,1.0,7.0,2.0,2615.139801378973,2.0,1.0,part_3,go,0.0,0.0,0.0,44.0,1.0,176.0,44.0,220.0,132.0,88.0,264.0,gray,flipped triangle
0.0,5.0,1.0,1.0,7.0,1.0,1706.1190439999336,2.0,1.0,part_3,go,0.0,0.0,0.0,54.0,1.0,54.0,162.0,270.0,216.0,108.0,324.0,gray,flipped triangle
0.0,1.0,1.0,0.0,7.0,4.0,2121.8177311093314,2.0,1.0,part_3,go,0.0,0.0,0.0,117.0,3.0,156.0,78.0,39.0,117.0,195.0,234.0,white,I
0.0,1.0,1.0,0.0,7.0,2.0,2597.0258568668214,2.0,1.0,part_3,go,0.0,0.0,0.0,102.0,3.0,136.0,102.0,68.0,170.0,34.0,204.0,white,I
0.0,5.0,1.0,1.0,7.0,4.0,1528.3426716214308,2.0,1.0,part_3,go,0.0,0.0,0.0,34.0,1.0,68.0,136.0,102.0,34.0,170.0,204.0,gray,flipped triangle
0.0,7.0,3.0,1.0,7.0,2.0,1699.129682619969,2.0,1.0,part_3,go,0.0,0.0,0.0,220.0,5.0,44.0,220.0,132.0,176.0,88.0,264.0,blue,circle
0.0,7.0,3.0,1.0,7.0,2.0,0.01806059663067572,2.0,1.0,part_3,go,0.0,0.0,0.0,162.0,3.0,324.0,162.0,216.0,108.0,54.0,270.0,blue,circle
0.0,2.0,2.0,0.0,7.0,1.0,2904.4287072429142,2.0,1.0,part_3,go,0.0,0.0,0.0,136.0,4.0,136.0,34.0,170.0,204.0,102.0,68.0,magenta,square
0.0,4.0,4.0,0.0,7.0,6.0,4593.189498487845,2.0,1.0,part_3,go,0.0,0.0,0.0,270.0,5.0,324.0,162.0,216.0,108.0,54.0,270.0,cyan,diamond
0.0,3.0,3.0,0.0,7.0,1.0,2907.9683042436955,2.0,1.0,part_3,go,0.0,0.0,0.0,34.0,1.0,34.0,170.0,68.0,204.0,102.0,136.0,orange,hexagon
0.0,2.0,2.0,0.0,7.0,2.0,1660.1364622438268,2.0,1.0,part_3,go,0.0,0.0,0.0,132.0,3.0,264.0,132.0,220.0,176.0,44.0,88.0,magenta,square
0.0,4.0,4.0,0.0,7.0,6.0,1705.8806157310755,2.0,1.0,part_3,go,0.0,0.0,0.0,88.0,2.0,220.0,132.0,264.0,44.0,176.0,88.0,cyan,diamond
0.0,3.0,3.0,0.0,7.0,4.0,1000.138369621709,2.0,1.0,part_3,go,0.0,0.0,0.0,49.0,1.0,245.0,294.0,147.0,49.0,196.0,98.0,orange,hexagon
0.0,1.0,1.0,0.0,7.0,2.0,1720.7881521080708,2.0,1.0,part_3,go,0.0,0.0,0.0,117.0,3.0,78.0,117.0,39.0,234.0,195.0,156.0,white,I
0.0,6.0,2.0,1.0,7.0,3.0,1530.0576548670506,2.0,1.0,part_3,go,0.0,0.0,0.0,324.0,6.0,270.0,54.0,324.0,216.0,162.0,108.0,green,triangle
0.0,7.0,3.0,1.0,7.0,6.0,1890.336774975367,2.0,1.0,part_3,go,0.0,0.0,0.0,78.0,2.0,117.0,39.0,195.0,156.0,234.0,78.0,blue,circle
0.0,6.0,2.0,1.0,7.0,6.0,1700.4771906213136,2.0,1.0,part_3,go,0.0,0.0,0.0,204.0,6.0,136.0,34.0,68.0,102.0,170.0,204.0,green,triangle
0.0,2.0,2.0,0.0,7.0,6.0,2016.6168564865075,2.0,1.0,part_3,go,0.0,0.0,0.0,147.0,3.0,98.0,245.0,196.0,294.0,49.0,147.0,magenta,square
0.0,8.0,4.0,1.0,7.0,2.0,1697.71949610913,3.0,1.0,part_3,go,0.0,0.0,0.0,196.0,4.0,98.0,196.0,245.0,49.0,294.0,147.0,yellow,cross
0.0,6.0,2.0,1.0,7.0,1.0,1742.7847585950076,3.0,1.0,part_3,go,0.0,0.0,0.0,147.0,3.0,147.0,98.0,196.0,294.0,245.0,49.0,green,triangle
0.0,5.0,1.0,1.0,7.0,3.0,1755.650054974467,3.0,1.0,part_3,go,0.0,0.0,0.0,78.0,2.0,156.0,195.0,78.0,117.0,234.0,39.0,gray,flipped triangle
0.0,6.0,2.0,1.0,7.0,5.0,2274.13693397466,3.0,1.0,part_3,go,0.0,0.0,0.0,245.0,5.0,294.0,147.0,49.0,196.0,245.0,98.0,green,triangle
0.0,5.0,1.0,1.0,7.0,1.0,1284.4193636210548,3.0,1.0,part_3,go,0.0,0.0,0.0,88.0,2.0,88.0,44.0,220.0,264.0,176.0,132.0,gray,flipped triangle
0.0,7.0,3.0,1.0,7.0,5.0,1814.1175752425625,3.0,1.0,part_3,go,0.0,0.0,0.0,196.0,4.0,147.0,98.0,245.0,49.0,196.0,294.0,blue,circle
0.0,4.0,4.0,0.0,7.0,4.0,2277.921836999667,3.0,1.0,part_3,go,0.0,0.0,0.0,195.0,5.0,39.0,156.0,78.0,195.0,234.0,117.0,cyan,diamond
0.0,4.0,4.0,0.0,7.0,2.0,1748.76417462292,3.0,1.0,part_3,go,0.0,0.0,0.0,264.0,6.0,220.0,264.0,88.0,132.0,44.0,176.0,cyan,diamond
0.0,4.0,4.0,0.0,7.0,6.0,1841.6749582429477,3.0,1.0,part_3,go,0.0,0.0,0.0,234.0,6.0,117.0,156.0,195.0,78.0,39.0,234.0,cyan,diamond
0.0,1.0,1.0,0.0,7.0,4.0,1773.8278899742,3.0,1.0,part_3,go,0.0,0.0,0.0,294.0,6.0,245.0,98.0,49.0,294.0,196.0,147.0,white,I
0.0,1.0,1.0,0.0,7.0,3.0,1921.9659952432264,3.0,1.0,part_3,go,0.0,0.0,0.0,324.0,6.0,216.0,54.0,324.0,108.0,162.0,270.0,white,I
0.0,4.0,4.0,0.0,7.0,4.0,1978.573132866586,3.0,1.0,part_3,go,0.0,0.0,0.0,204.0,6.0,102.0,170.0,34.0,204.0,136.0,68.0,cyan,diamond
0.0,1.0,1.0,0.0,7.0,3.0,1416.800803865044,3.0,1.0,part_3,go,0.0,0.0,0.0,54.0,1.0,324.0,162.0,54.0,270.0,216.0,108.0,white,I
0.0,3.0,3.0,0.0,7.0,6.0,1722.2999677578628,3.0,1.0,part_3,go,0.0,0.0,0.0,78.0,2.0,156.0,39.0,117.0,195.0,234.0,78.0,orange,hexagon
0.0,1.0,1.0,0.0,7.0,5.0,654.3333307290595,3.0,1.0,part_3,go,0.0,0.0,0.0,68.0,2.0,204.0,34.0,102.0,136.0,68.0,170.0,white,I
0.0,2.0,2.0,0.0,7.0,2.0,1669.1230207306944,3.0,1.0,part_3,go,0.0,0.0,0.0,270.0,5.0,108.0,270.0,324.0,216.0,162.0,54.0,magenta,square
0.0,6.0,2.0,1.0,7.0,4.0,1511.1583684865764,3.0,1.0,part_3,go,0.0,0.0,0.0,264.0,6.0,132.0,220.0,176.0,264.0,44.0,88.0,green,triangle
0.0,6.0,2.0,1.0,7.0,4.0,782.1688418662234,3.0,1.0,part_3,go,0.0,0.0,0.0,195.0,5.0,117.0,78.0,156.0,195.0,39.0,234.0,green,triangle
0.0,4.0,4.0,0.0,7.0,3.0,1344.4487008673605,3.0,1.0,part_3,go,0.0,0.0,0.0,54.0,1.0,270.0,324.0,54.0,162.0,216.0,108.0,cyan,diamond
0.0,7.0,3.0,1.0,7.0,5.0,1492.7007922433404,3.0,1.0,part_3,go,0.0,0.0,0.0,34.0,1.0,102.0,204.0,136.0,170.0,34.0,68.0,blue,circle
0.0,6.0,2.0,1.0,7.0,4.0,1479.446769486458,4.0,1.0,part_3,go,0.0,0.0,0.0,156.0,4.0,195.0,39.0,78.0,156.0,117.0,234.0,green,triangle
0.0,3.0,3.0,0.0,7.0,2.0,1391.1137698669336,4.0,1.0,part_3,go,0.0,0.0,0.0,44.0,1.0,264.0,44.0,132.0,176.0,220.0,88.0,orange,hexagon
0.0,2.0,2.0,0.0,7.0,6.0,875.0202577302844,4.0,1.0,part_3,go,0.0,0.0,0.0,162.0,3.0,54.0,270.0,108.0,216.0,324.0,162.0,magenta,square
0.0,3.0,3.0,0.0,7.0,2.0,1719.6482656217995,4.0,1.0,part_3,go,0.0,0.0,0.0,54.0,1.0,162.0,54.0,324.0,270.0,216.0,108.0,orange,hexagon
0.0,3.0,3.0,0.0,7.0,2.0,1990.2229943527343,4.0,1.0,part_3,go,0.0,0.0,0.0,68.0,2.0,170.0,68.0,34.0,136.0,204.0,102.0,orange,hexagon
0.0,6.0,2.0,1.0,7.0,4.0,383.1518547303858,4.0,1.0,part_3,go,0.0,0.0,0.0,132.0,3.0,220.0,264.0,176.0,132.0,88.0,44.0,green,triangle
0.0,4.0,4.0,0.0,7.0,5.0,1396.867723109608,4.0,1.0,part_3,go,0.0,0.0,0.0,294.0,6.0,196.0,98.0,245.0,147.0,294.0,49.0,cyan,diamond
0.0,7.0,3.0,1.0,7.0,3.0,1645.0215924869551,4.0,1.0,part_3,go,0.0,0.0,0.0,44.0,1.0,176.0,132.0,44.0,220.0,264.0,88.0,blue,circle
0.0,5.0,1.0,1.0,7.0,5.0,779.6714896212507,4.0,1.0,part_3,go,0.0,0.0,0.0,49.0,1.0,147.0,245.0,294.0,98.0,49.0,196.0,gray,flipped triangle
0.0,6.0,2.0,1.0,7.0,1.0,1534.58494548795,4.0,1.0,part_3,go,0.0,0.0,0.0,204.0,6.0,204.0,68.0,170.0,136.0,102.0,34.0,green,triangle
0.0,3.0,3.0,0.0,7.0,4.0,918.828293999468,4.0,1.0,part_3,go,0.0,0.0,0.0,88.0,2.0,132.0,220.0,264.0,88.0,44.0,176.0,orange,hexagon
0.0,5.0,1.0,1.0,7.0,3.0,1414.3034018652545,4.0,1.0,part_3,go,0.0,0.0,0.0,39.0,1.0,117.0,78.0,39.0,195.0,234.0,156.0,gray,flipped triangle
0.0,1.0,1.0,0.0,7.0,6.0,852.0244538649422,4.0,1.0,part_3,go,0.0,0.0,0.0,264.0,6.0,44.0,88.0,220.0,176.0,132.0,264.0,white,I
0.0,4.0,4.0,0.0,7.0,2.0,1416.5997737309226,4.0,1.0,part_3,go,0.0,0.0,0.0,204.0,6.0,102.0,204.0,170.0,136.0,34.0,68.0,cyan,diamond
0.0,5.0,1.0,1.0,7.0,4.0,707.5660259743017,4.0,1.0,part_3,go,0.0,0.0,0.0,68.0,2.0,34.0,136.0,170.0,68.0,102.0,204.0,gray,flipped triangle
0.0,7.0,3.0,1.0,7.0,3.0,1081.5102448668767,4.0,1.0,part_3,go,0.0,0.0,0.0,216.0,4.0,108.0,54.0,216.0,270.0,324.0,162.0,blue,circle
0.0,6.0,2.0,1.0,7.0,4.0,1161.0058192436554,4.0,1.0,part_3,go,0.0,0.0,0.0,324.0,6.0,270.0,54.0,216.0,324.0,162.0,108.0,green,triangle
0.0,7.0,3.0,1.0,7.0,1.0,1060.5635424872162,4.0,1.0,part_3,go,0.0,0.0,0.0,204.0,6.0,204.0,34.0,68.0,136.0,102.0,170.0,blue,circle
0.0,8.0,4.0,1.0,7.0,6.0,1274.8580208663045,4.0,1.0,part_3,go,0.0,0.0,0.0,234.0,6.0,195.0,78.0,39.0,156.0,117.0,234.0,yellow,cross
0.0,5.0,1.0,1.0,7.0,4.0,2255.391043243435,4.0,1.0,part_3,go,0.0,0.0,0.0,324.0,6.0,54.0,216.0,270.0,324.0,162.0,108.0,gray,flipped triangle
