raw_reward_magnitude,stim_reward,stepwise_reward_magnitude,paired_with_stopping,stim_location,response,reaction_time,block,num_trial_presentations,which_phase,stop_signal_trial_type,left_SSD,right_SSD,accuracy,chosen_bidding_amount,chosen_bidding_level,possible_bid_1,possible_bid_2,possible_bid_3,possible_bid_4,possible_bid_5,possible_bid_6,color_text,shape_text
421.0,8.0,4.0,1.0,4.0,4.0,491.2708768970333,1.0,1.0,phase_1,,,,,,,,,,,,,orange,flipped triangle
423.0,4.0,4.0,0.0,2.0,2.0,357.4289030511863,1.0,1.0,phase_1,,,,,,,,,,,,,gray,circle
188.0,3.0,3.0,0.0,3.0,3.0,334.5855254447087,1.0,1.0,phase_1,,,,,,,,,,,,,magenta,hexagon
0.0,7.0,0.0,1.0,4.0,4.0,426.1820779065601,1.0,2.0,phase_1,,,,,,,,,,,,,white,square
118.0,2.0,2.0,0.0,2.0,2.0,303.9628718979656,1.0,1.0,phase_1,,,,,,,,,,,,,green,I
407.0,8.0,4.0,1.0,2.0,2.0,372.2100729937665,1.0,1.0,phase_1,,,,,,,,,,,,,orange,flipped triangle
0.0,3.0,0.0,0.0,4.0,4.0,314.383891003672,1.0,1.0,phase_1,,,,,,,,,,,,,magenta,hexagon
95.0,6.0,2.0,1.0,4.0,4.0,394.2224220372736,1.0,1.0,phase_1,,,,,,,,,,,,,blue,cross
0.0,6.0,0.0,1.0,2.0,2.0,304.8609724501148,1.0,1.0,phase_1,,,,,,,,,,,,,blue,cross
50.0,5.0,1.0,1.0,4.0,4.0,462.2815634938888,1.0,1.0,phase_1,,,,,,,,,,,,,cyan,triangle
79.0,2.0,2.0,0.0,1.0,1.0,364.1891204752028,1.0,5.0,phase_1,,,,,,,,,,,,,green,I
399.0,4.0,4.0,0.0,2.0,2.0,467.6711764768697,1.0,1.0,phase_1,,,,,,,,,,,,,gray,circle
0.0,2.0,0.0,0.0,3.0,3.0,309.3605929752812,1.0,1.0,phase_1,,,,,,,,,,,,,green,I
393.0,8.0,4.0,1.0,2.0,2.0,355.2414574660361,1.0,1.0,phase_1,,,,,,,,,,,,,orange,flipped triangle
26.0,5.0,1.0,1.0,3.0,3.0,366.6222189785912,1.0,1.0,phase_1,,,,,,,,,,,,,cyan,triangle
222.0,7.0,3.0,1.0,4.0,4.0,265.037324395962,1.0,1.0,phase_1,,,,,,,,,,,,,white,square
59.0,1.0,1.0,0.0,4.0,4.0,254.7873464645818,1.0,1.0,phase_1,,,,,,,,,,,,,yellow,diamond
0.0,3.0,0.0,0.0,2.0,2.0,312.8315340145491,1.0,1.0,phase_1,,,,,,,,,,,,,magenta,hexagon
414.0,8.0,4.0,1.0,2.0,2.0,335.5142435175366,1.0,1.0,phase_1,,,,,,,,,,,,,orange,flipped triangle
375.0,8.0,4.0,1.0,1.0,1.0,359.7102669882588,1.0,1.0,phase_1,,,,,,,,,,,,,orange,flipped triangle
0.0,8.0,0.0,1.0,2.0,2.0,371.3013644446619,1.0,1.0,phase_1,,,,,,,,,,,,,orange,flipped triangle
109.0,6.0,2.0,1.0,2.0,2.0,405.3521929308772,1.0,1.0,phase_1,,,,,,,,,,,,,blue,cross
194.0,7.0,3.0,1.0,4.0,4.0,338.763749867212,1.0,1.0,phase_1,,,,,,,,,,,,,white,square
215.0,3.0,3.0,0.0,3.0,3.0,349.4788724929094,1.0,1.0,phase_1,,,,,,,,,,,,,magenta,hexagon
122.0,6.0,2.0,1.0,1.0,1.0,293.11937448801467,1.0,1.0,phase_1,,,,,,,,,,,,,blue,cross
0.0,3.0,0.0,0.0,2.0,2.0,293.7671604449861,1.0,1.0,phase_1,,,,,,,,,,,,,magenta,hexagon
34.0,1.0,1.0,0.0,1.0,1.0,295.762775465846,1.0,1.0,phase_1,,,,,,,,,,,,,yellow,diamond
0.0,6.0,0.0,1.0,4.0,4.0,318.1062884395942,1.0,1.0,phase_1,,,,,,,,,,,,,blue,cross
0.0,5.0,0.0,1.0,2.0,2.0,353.5187234519981,1.0,1.0,phase_1,,,,,,,,,,,,,cyan,triangle
42.0,5.0,1.0,1.0,1.0,1.0,297.544396482408,1.0,1.0,phase_1,,,,,,,,,,,,,cyan,triangle
0.0,7.0,0.0,1.0,3.0,3.0,307.8099109698087,1.0,1.0,phase_1,,,,,,,,,,,,,white,square
0.0,6.0,0.0,1.0,1.0,1.0,331.4752054866403,1.0,1.0,phase_1,,,,,,,,,,,,,blue,cross
0.0,3.0,0.0,0.0,2.0,2.0,276.3722484232858,1.0,1.0,phase_1,,,,,,,,,,,,,magenta,hexagon
69.0,5.0,1.0,1.0,2.0,2.0,377.8070579282939,1.0,1.0,phase_1,,,,,,,,,,,,,cyan,triangle
0.0,5.0,0.0,1.0,1.0,1.0,244.2980844643898,1.0,1.0,phase_1,,,,,,,,,,,,,cyan,triangle
0.0,1.0,0.0,0.0,1.0,1.0,344.1997004556469,1.0,1.0,phase_1,,,,,,,,,,,,,yellow,diamond
122.0,2.0,2.0,0.0,2.0,2.0,300.1624734606594,1.0,1.0,phase_1,,,,,,,,,,,,,green,I
392.0,8.0,4.0,1.0,2.0,2.0,289.7987014730461,1.0,1.0,phase_1,,,,,,,,,,,,,orange,flipped triangle
25.0,1.0,1.0,0.0,1.0,1.0,235.1590954931453,1.0,1.0,phase_1,,,,,,,,,,,,,yellow,diamond
0.0,2.0,0.0,0.0,4.0,4.0,368.6816614936106,1.0,1.0,phase_1,,,,,,,,,,,,,green,I
47.0,5.0,1.0,1.0,3.0,3.0,336.4252814208157,1.0,1.0,phase_1,,,,,,,,,,,,,cyan,triangle
382.0,8.0,4.0,1.0,3.0,3.0,370.7919509615749,1.0,1.0,phase_1,,,,,,,,,,,,,orange,flipped triangle
382.0,8.0,4.0,1.0,1.0,1.0,336.4665444241836,1.0,1.0,phase_1,,,,,,,,,,,,,orange,flipped triangle
0.0,1.0,0.0,0.0,4.0,4.0,360.1632639183663,1.0,1.0,phase_1,,,,,,,,,,,,,yellow,diamond
58.0,1.0,1.0,0.0,1.0,1.0,653.6651114583947,1.0,1.0,phase_1,,,,,,,,,,,,,yellow,diamond
113.0,2.0,2.0,0.0,3.0,3.0,395.3575934865512,1.0,1.0,phase_1,,,,,,,,,,,,,green,I
59.0,5.0,1.0,1.0,3.0,3.0,338.8127589714713,1.0,1.0,phase_1,,,,,,,,,,,,,cyan,triangle
197.0,7.0,3.0,1.0,4.0,4.0,317.6550104399211,1.0,1.0,phase_1,,,,,,,,,,,,,white,square
396.0,4.0,4.0,0.0,3.0,3.0,328.8577374187298,1.0,1.0,phase_1,,,,,,,,,,,,,gray,circle
34.0,5.0,1.0,1.0,2.0,2.0,408.6231739493087,1.0,1.0,phase_1,,,,,,,,,,,,,cyan,triangle
0.0,6.0,0.0,1.0,4.0,4.0,296.8284724047407,1.0,1.0,phase_1,,,,,,,,,,,,,blue,cross
0.0,7.0,0.0,1.0,3.0,3.0,308.3549594157375,1.0,1.0,phase_1,,,,,,,,,,,,,white,square
185.0,3.0,3.0,0.0,1.0,1.0,332.445997511968,1.0,1.0,phase_1,,,,,,,,,,,,,magenta,hexagon
52.0,5.0,1.0,1.0,1.0,1.0,345.3561534988694,1.0,2.0,phase_1,,,,,,,,,,,,,cyan,triangle
394.0,4.0,4.0,0.0,4.0,4.0,309.5544259413145,1.0,1.0,phase_1,,,,,,,,,,,,,gray,circle
40.0,1.0,1.0,0.0,2.0,2.0,412.0898934779688,1.0,1.0,phase_1,,,,,,,,,,,,,yellow,diamond
197.0,3.0,3.0,0.0,2.0,2.0,324.4205234223045,1.0,1.0,phase_1,,,,,,,,,,,,,magenta,hexagon
207.0,3.0,3.0,0.0,1.0,1.0,458.4778964635916,1.0,1.0,phase_1,,,,,,,,,,,,,magenta,hexagon
393.0,8.0,4.0,1.0,3.0,3.0,312.0728109497577,1.0,1.0,phase_1,,,,,,,,,,,,,orange,flipped triangle
388.0,8.0,4.0,1.0,3.0,3.0,391.726920439396,1.0,1.0,phase_1,,,,,,,,,,,,,orange,flipped triangle
405.0,8.0,4.0,1.0,4.0,4.0,314.5783574436791,1.0,1.0,phase_1,,,,,,,,,,,,,orange,flipped triangle
181.0,7.0,3.0,1.0,1.0,1.0,383.0062604974955,1.0,1.0,phase_1,,,,,,,,,,,,,white,square
112.0,6.0,2.0,1.0,4.0,4.0,337.1403785422444,1.0,1.0,phase_1,,,,,,,,,,,,,blue,cross
42.0,1.0,1.0,0.0,4.0,4.0,326.9226299016736,1.0,1.0,phase_1,,,,,,,,,,,,,yellow,diamond
98.0,2.0,2.0,0.0,1.0,1.0,305.8154369355179,1.0,1.0,phase_1,,,,,,,,,,,,,green,I
187.0,7.0,3.0,1.0,3.0,3.0,339.3902869429439,1.0,1.0,phase_1,,,,,,,,,,,,,white,square
86.0,2.0,2.0,0.0,4.0,4.0,340.1355129899457,1.0,1.0,phase_1,,,,,,,,,,,,,green,I
0.0,4.0,0.0,0.0,1.0,1.0,328.8272834033705,1.0,1.0,phase_1,,,,,,,,,,,,,gray,circle
109.0,2.0,2.0,0.0,1.0,1.0,363.0609619431197,1.0,1.0,phase_1,,,,,,,,,,,,,green,I
223.0,3.0,3.0,0.0,1.0,1.0,351.9061789265834,1.0,1.0,phase_1,,,,,,,,,,,,,magenta,hexagon
64.0,5.0,1.0,1.0,3.0,3.0,319.0549749415368,1.0,1.0,phase_1,,,,,,,,,,,,,cyan,triangle
0.0,2.0,0.0,0.0,1.0,1.0,321.0738460184075,1.0,1.0,phase_1,,,,,,,,,,,,,green,I
0.0,8.0,0.0,1.0,1.0,1.0,287.1177324559539,1.0,1.0,phase_1,,,,,,,,,,,,,orange,flipped triangle
209.0,3.0,3.0,0.0,4.0,4.0,355.8993574697524,1.0,1.0,phase_1,,,,,,,,,,,,,magenta,hexagon
392.0,4.0,4.0,0.0,2.0,2.0,435.3198764729313,1.0,1.0,phase_1,,,,,,,,,,,,,gray,circle
64.0,1.0,1.0,0.0,1.0,1.0,389.8049454437569,1.0,1.0,phase_1,,,,,,,,,,,,,yellow,diamond
410.0,8.0,4.0,1.0,4.0,4.0,334.3290729098953,1.0,1.0,phase_1,,,,,,,,,,,,,orange,flipped triangle
215.0,7.0,3.0,1.0,1.0,1.0,369.8183604865335,1.0,1.0,phase_1,,,,,,,,,,,,,white,square
71.0,5.0,1.0,1.0,1.0,1.0,302.074703911785,1.0,1.0,phase_1,,,,,,,,,,,,,cyan,triangle
421.0,4.0,4.0,0.0,1.0,1.0,370.1000934815965,1.0,1.0,phase_1,,,,,,,,,,,,,gray,circle
0.0,4.0,0.0,0.0,4.0,4.0,314.3176595331169,1.0,1.0,phase_1,,,,,,,,,,,,,gray,circle
0.0,1.0,0.0,0.0,3.0,3.0,325.9874834911898,1.0,1.0,phase_1,,,,,,,,,,,,,yellow,diamond
84.0,2.0,2.0,0.0,4.0,4.0,325.0898289843462,1.0,1.0,phase_1,,,,,,,,,,,,,green,I
0.0,8.0,0.0,1.0,2.0,2.0,393.9860254758969,1.0,1.0,phase_1,,,,,,,,,,,,,orange,flipped triangle
0.0,2.0,0.0,0.0,2.0,2.0,326.8683209898881,1.0,1.0,phase_1,,,,,,,,,,,,,green,I
382.0,4.0,4.0,0.0,1.0,1.0,329.1340784053318,1.0,1.0,phase_1,,,,,,,,,,,,,gray,circle
211.0,7.0,3.0,1.0,1.0,1.0,316.9632279896177,1.0,1.0,phase_1,,,,,,,,,,,,,white,square
80.0,6.0,2.0,1.0,3.0,3.0,316.385192447342,1.0,1.0,phase_1,,,,,,,,,,,,,blue,cross
43.0,5.0,1.0,1.0,4.0,4.0,340.6423348933458,1.0,1.0,phase_1,,,,,,,,,,,,,cyan,triangle
122.0,6.0,2.0,1.0,3.0,3.0,318.1573760230094,1.0,1.0,phase_1,,,,,,,,,,,,,blue,cross
74.0,1.0,1.0,0.0,4.0,4.0,307.1327789803035,1.0,1.0,phase_1,,,,,,,,,,,,,yellow,diamond
90.0,2.0,2.0,0.0,3.0,3.0,296.84546997305,1.0,1.0,phase_1,,,,,,,,,,,,,green,I
0.0,2.0,0.0,0.0,3.0,3.0,285.3494184673764,1.0,1.0,phase_1,,,,,,,,,,,,,green,I
178.0,7.0,3.0,1.0,3.0,3.0,264.9320018826984,1.0,1.0,phase_1,,,,,,,,,,,,,white,square
40.0,5.0,1.0,1.0,2.0,2.0,309.9612375954166,1.0,1.0,phase_1,,,,,,,,,,,,,cyan,triangle
193.0,7.0,3.0,1.0,4.0,4.0,332.118468999397,1.0,1.0,phase_1,,,,,,,,,,,,,white,square
84.0,6.0,2.0,1.0,4.0,4.0,322.6599534973502,1.0,1.0,phase_1,,,,,,,,,,,,,blue,cross
72.0,1.0,1.0,0.0,3.0,3.0,312.2627334087156,1.0,1.0,phase_1,,,,,,,,,,,,,yellow,diamond
219.0,7.0,3.0,1.0,4.0,4.0,289.7412818856537,1.0,1.0,phase_1,,,,,,,,,,,,,white,square
72.0,5.0,1.0,1.0,2.0,2.0,334.7721399622969,1.0,1.0,phase_1,,,,,,,,,,,,,cyan,triangle
419.0,4.0,4.0,0.0,2.0,2.0,457.26363704307,2.0,1.0,phase_1,,,,,,,,,,,,,gray,circle
213.0,7.0,3.0,1.0,2.0,2.0,335.5034614214673,2.0,1.0,phase_1,,,,,,,,,,,,,white,square
25.0,5.0,1.0,1.0,2.0,2.0,324.6074694325216,2.0,1.0,phase_1,,,,,,,,,,,,,cyan,triangle
69.0,1.0,1.0,0.0,4.0,4.0,324.2009729146957,2.0,1.0,phase_1,,,,,,,,,,,,,yellow,diamond
0.0,8.0,0.0,1.0,3.0,3.0,380.3498544148169,2.0,1.0,phase_1,,,,,,,,,,,,,orange,flipped triangle
100.0,2.0,2.0,0.0,4.0,4.0,302.3684980580583,2.0,1.0,phase_1,,,,,,,,,,,,,green,I
207.0,7.0,3.0,1.0,1.0,1.0,280.8619218994863,2.0,1.0,phase_1,,,,,,,,,,,,,white,square
0.0,3.0,0.0,0.0,4.0,4.0,303.6334874341264,2.0,1.0,phase_1,,,,,,,,,,,,,magenta,hexagon
0.0,7.0,0.0,1.0,4.0,4.0,269.531128462404,2.0,1.0,phase_1,,,,,,,,,,,,,white,square
184.0,3.0,3.0,0.0,4.0,4.0,283.2640169654041,2.0,1.0,phase_1,,,,,,,,,,,,,magenta,hexagon
28.0,1.0,1.0,0.0,2.0,2.0,340.1247474830597,2.0,1.0,phase_1,,,,,,,,,,,,,yellow,diamond
35.0,5.0,1.0,1.0,2.0,2.0,339.4337265053764,2.0,1.0,phase_1,,,,,,,,,,,,,cyan,triangle
204.0,3.0,3.0,0.0,2.0,2.0,341.1587629234418,2.0,1.0,phase_1,,,,,,,,,,,,,magenta,hexagon
407.0,4.0,4.0,0.0,1.0,1.0,464.851489465218,2.0,1.0,phase_1,,,,,,,,,,,,,gray,circle
407.0,8.0,4.0,1.0,3.0,3.0,420.1456919545308,2.0,1.0,phase_1,,,,,,,,,,,,,orange,flipped triangle
120.0,6.0,2.0,1.0,3.0,3.0,341.420009965077,2.0,1.0,phase_1,,,,,,,,,,,,,blue,cross
41.0,5.0,1.0,1.0,2.0,2.0,353.7304669735022,2.0,1.0,phase_1,,,,,,,,,,,,,cyan,triangle
0.0,4.0,0.0,0.0,1.0,1.0,309.9924079724587,2.0,1.0,phase_1,,,,,,,,,,,,,gray,circle
379.0,4.0,4.0,0.0,2.0,2.0,309.5540920039639,2.0,1.0,phase_1,,,,,,,,,,,,,gray,circle
392.0,8.0,4.0,1.0,4.0,4.0,311.4380619372241,2.0,1.0,phase_1,,,,,,,,,,,,,orange,flipped triangle
185.0,7.0,3.0,1.0,3.0,3.0,332.3086083983071,2.0,1.0,phase_1,,,,,,,,,,,,,white,square
212.0,7.0,3.0,1.0,4.0,4.0,322.334025404416,2.0,1.0,phase_1,,,,,,,,,,,,,white,square
191.0,3.0,3.0,0.0,2.0,2.0,301.3566569425165,2.0,1.0,phase_1,,,,,,,,,,,,,magenta,hexagon
110.0,2.0,2.0,0.0,1.0,1.0,302.7877319836989,2.0,1.0,phase_1,,,,,,,,,,,,,green,I
47.0,1.0,1.0,0.0,4.0,4.0,336.1999840126373,2.0,1.0,phase_1,,,,,,,,,,,,,yellow,diamond
382.0,4.0,4.0,0.0,2.0,2.0,292.5654564751312,2.0,1.0,phase_1,,,,,,,,,,,,,gray,circle
393.0,8.0,4.0,1.0,1.0,1.0,293.0742080206983,2.0,1.0,phase_1,,,,,,,,,,,,,orange,flipped triangle
184.0,7.0,3.0,1.0,2.0,2.0,291.9715514290146,2.0,1.0,phase_1,,,,,,,,,,,,,white,square
0.0,5.0,0.0,1.0,1.0,1.0,269.8981139692478,2.0,1.0,phase_1,,,,,,,,,,,,,cyan,triangle
26.0,1.0,1.0,0.0,2.0,2.0,282.2604829561896,2.0,1.0,phase_1,,,,,,,,,,,,,yellow,diamond
414.0,4.0,4.0,0.0,3.0,3.0,295.0980374589562,2.0,2.0,phase_1,,,,,,,,,,,,,gray,circle
70.0,5.0,1.0,1.0,1.0,1.0,318.9657889888622,2.0,1.0,phase_1,,,,,,,,,,,,,cyan,triangle
0.0,3.0,0.0,0.0,3.0,3.0,283.4640285000205,2.0,1.0,phase_1,,,,,,,,,,,,,magenta,hexagon
401.0,4.0,4.0,0.0,3.0,3.0,296.3577184127643,2.0,1.0,phase_1,,,,,,,,,,,,,gray,circle
28.0,5.0,1.0,1.0,4.0,4.0,329.9460229463875,2.0,1.0,phase_1,,,,,,,,,,,,,cyan,triangle
50.0,5.0,1.0,1.0,1.0,1.0,364.3247650470584,2.0,1.0,phase_1,,,,,,,,,,,,,cyan,triangle
91.0,2.0,2.0,0.0,4.0,4.0,297.2179494681768,2.0,1.0,phase_1,,,,,,,,,,,,,green,I
30.0,1.0,1.0,0.0,4.0,4.0,309.5091839204542,2.0,1.0,phase_1,,,,,,,,,,,,,yellow,diamond
0.0,6.0,0.0,1.0,1.0,1.0,320.8904224447906,2.0,1.0,phase_1,,,,,,,,,,,,,blue,cross
212.0,3.0,3.0,0.0,1.0,1.0,321.3607784709893,2.0,1.0,phase_1,,,,,,,,,,,,,magenta,hexagon
215.0,7.0,3.0,1.0,3.0,3.0,321.1532174027525,2.0,1.0,phase_1,,,,,,,,,,,,,white,square
58.0,5.0,1.0,1.0,3.0,3.0,334.1345260269008,2.0,1.0,phase_1,,,,,,,,,,,,,cyan,triangle
61.0,5.0,1.0,1.0,2.0,2.0,345.1443309313617,2.0,1.0,phase_1,,,,,,,,,,,,,cyan,triangle
217.0,7.0,3.0,1.0,3.0,3.0,335.27113503078,2.0,1.0,phase_1,,,,,,,,,,,,,white,square
396.0,8.0,4.0,1.0,2.0,2.0,337.062005943153,2.0,1.0,phase_1,,,,,,,,,,,,,orange,flipped triangle
415.0,4.0,4.0,0.0,3.0,3.0,357.842305500526,2.0,1.0,phase_1,,,,,,,,,,,,,gray,circle
204.0,7.0,3.0,1.0,4.0,4.0,325.8861694484949,2.0,1.0,phase_1,,,,,,,,,,,,,white,square
222.0,3.0,3.0,0.0,4.0,4.0,326.4126559952274,2.0,1.0,phase_1,,,,,,,,,,,,,magenta,hexagon
393.0,4.0,4.0,0.0,4.0,4.0,337.5011205207556,2.0,1.0,phase_1,,,,,,,,,,,,,gray,circle
0.0,8.0,0.0,1.0,2.0,2.0,305.9367144596763,2.0,1.0,phase_1,,,,,,,,,,,,,orange,flipped triangle
42.0,1.0,1.0,0.0,2.0,2.0,327.4604210164398,2.0,1.0,phase_1,,,,,,,,,,,,,yellow,diamond
377.0,4.0,4.0,0.0,1.0,1.0,430.0100639811717,2.0,1.0,phase_1,,,,,,,,,,,,,gray,circle
193.0,3.0,3.0,0.0,1.0,1.0,339.9664570461027,2.0,1.0,phase_1,,,,,,,,,,,,,magenta,hexagon
0.0,7.0,0.0,1.0,2.0,2.0,307.6095049618743,2.0,1.0,phase_1,,,,,,,,,,,,,white,square
122.0,2.0,2.0,0.0,3.0,3.0,340.6141218729317,2.0,1.0,phase_1,,,,,,,,,,,,,green,I
203.0,7.0,3.0,1.0,3.0,3.0,319.4135939120315,2.0,1.0,phase_1,,,,,,,,,,,,,white,square
0.0,4.0,0.0,0.0,2.0,2.0,432.5239190366119,2.0,1.0,phase_1,,,,,,,,,,,,,gray,circle
393.0,4.0,4.0,0.0,1.0,1.0,308.6886734236032,2.0,1.0,phase_1,,,,,,,,,,,,,gray,circle
0.0,1.0,0.0,0.0,4.0,4.0,331.6257275291718,2.0,1.0,phase_1,,,,,,,,,,,,,yellow,diamond
399.0,8.0,4.0,1.0,2.0,2.0,321.1349805351347,2.0,1.0,phase_1,,,,,,,,,,,,,orange,flipped triangle
384.0,4.0,4.0,0.0,4.0,4.0,356.5205984632484,2.0,1.0,phase_1,,,,,,,,,,,,,gray,circle
213.0,3.0,3.0,0.0,4.0,4.0,333.4714054944925,2.0,1.0,phase_1,,,,,,,,,,,,,magenta,hexagon
211.0,7.0,3.0,1.0,4.0,4.0,356.1880009365268,2.0,1.0,phase_1,,,,,,,,,,,,,white,square
405.0,4.0,4.0,0.0,3.0,3.0,345.0319949188269,2.0,1.0,phase_1,,,,,,,,,,,,,gray,circle
101.0,2.0,2.0,0.0,2.0,2.0,359.2705079354346,2.0,1.0,phase_1,,,,,,,,,,,,,green,I
410.0,4.0,4.0,0.0,3.0,3.0,336.9043564307503,2.0,1.0,phase_1,,,,,,,,,,,,,gray,circle
0.0,7.0,0.0,1.0,1.0,1.0,371.8650074442848,2.0,1.0,phase_1,,,,,,,,,,,,,white,square
0.0,8.0,0.0,1.0,4.0,4.0,326.1785689974203,2.0,1.0,phase_1,,,,,,,,,,,,,orange,flipped triangle
0.0,7.0,0.0,1.0,3.0,3.0,337.2234134585596,2.0,1.0,phase_1,,,,,,,,,,,,,white,square
404.0,4.0,4.0,0.0,2.0,2.0,339.1439795377664,2.0,1.0,phase_1,,,,,,,,,,,,,gray,circle
32.0,5.0,1.0,1.0,2.0,2.0,385.3039694949984,2.0,1.0,phase_1,,,,,,,,,,,,,cyan,triangle
400.0,4.0,4.0,0.0,2.0,2.0,305.4369469755329,2.0,1.0,phase_1,,,,,,,,,,,,,gray,circle
401.0,8.0,4.0,1.0,2.0,2.0,295.7980283536017,2.0,1.0,phase_1,,,,,,,,,,,,,orange,flipped triangle
213.0,3.0,3.0,0.0,2.0,2.0,283.7886764900759,2.0,1.0,phase_1,,,,,,,,,,,,,magenta,hexagon
41.0,1.0,1.0,0.0,3.0,3.0,329.7783490270376,2.0,1.0,phase_1,,,,,,,,,,,,,yellow,diamond
87.0,6.0,2.0,1.0,2.0,2.0,285.1670520030893,2.0,1.0,phase_1,,,,,,,,,,,,,blue,cross
225.0,7.0,3.0,1.0,4.0,4.0,354.5515244477428,2.0,1.0,phase_1,,,,,,,,,,,,,white,square
182.0,7.0,3.0,1.0,1.0,1.0,297.8301779367029,2.0,1.0,phase_1,,,,,,,,,,,,,white,square
0.0,7.0,0.0,1.0,3.0,3.0,332.1577610331587,2.0,1.0,phase_1,,,,,,,,,,,,,white,square
79.0,6.0,2.0,1.0,3.0,3.0,355.4400750435889,2.0,1.0,phase_1,,,,,,,,,,,,,blue,cross
113.0,6.0,2.0,1.0,1.0,1.0,356.4767564530484,2.0,1.0,phase_1,,,,,,,,,,,,,blue,cross
0.0,3.0,0.0,0.0,4.0,4.0,367.6799209788441,2.0,1.0,phase_1,,,,,,,,,,,,,magenta,hexagon
80.0,2.0,2.0,0.0,2.0,2.0,334.0838238946162,2.0,1.0,phase_1,,,,,,,,,,,,,green,I
117.0,2.0,2.0,0.0,4.0,4.0,300.5409323959611,2.0,1.0,phase_1,,,,,,,,,,,,,green,I
198.0,7.0,3.0,1.0,2.0,2.0,346.32463345769787,2.0,1.0,phase_1,,,,,,,,,,,,,white,square
193.0,3.0,3.0,0.0,2.0,2.0,324.8736874083988,2.0,1.0,phase_1,,,,,,,,,,,,,magenta,hexagon
81.0,2.0,2.0,0.0,2.0,2.0,325.0985639751889,2.0,1.0,phase_1,,,,,,,,,,,,,green,I
98.0,6.0,2.0,1.0,3.0,3.0,313.8863614876754,2.0,1.0,phase_1,,,,,,,,,,,,,blue,cross
83.0,2.0,2.0,0.0,4.0,4.0,347.759831987787,2.0,1.0,phase_1,,,,,,,,,,,,,green,I
407.0,4.0,4.0,0.0,1.0,1.0,371.4735469548031,2.0,1.0,phase_1,,,,,,,,,,,,,gray,circle
83.0,6.0,2.0,1.0,2.0,2.0,317.5552780157886,2.0,1.0,phase_1,,,,,,,,,,,,,blue,cross
403.0,4.0,4.0,0.0,4.0,4.0,294.042908004485,2.0,1.0,phase_1,,,,,,,,,,,,,gray,circle
0.0,7.0,0.0,1.0,2.0,2.0,305.7343139080331,2.0,1.0,phase_1,,,,,,,,,,,,,white,square
59.0,5.0,1.0,1.0,4.0,4.0,442.2695889370516,2.0,1.0,phase_1,,,,,,,,,,,,,cyan,triangle
96.0,2.0,2.0,0.0,3.0,3.0,329.7164799878374,2.0,1.0,phase_1,,,,,,,,,,,,,green,I
52.0,1.0,1.0,0.0,3.0,3.0,362.7092870301567,2.0,1.0,phase_1,,,,,,,,,,,,,yellow,diamond
119.0,6.0,2.0,1.0,4.0,4.0,297.1444039721973,2.0,1.0,phase_1,,,,,,,,,,,,,blue,cross
379.0,8.0,4.0,1.0,4.0,4.0,341.6008989443071,2.0,1.0,phase_1,,,,,,,,,,,,,orange,flipped triangle
68.0,5.0,1.0,1.0,3.0,3.0,331.9631030317396,2.0,1.0,phase_1,,,,,,,,,,,,,cyan,triangle
214.0,7.0,3.0,1.0,2.0,2.0,344.1075319424271,2.0,1.0,phase_1,,,,,,,,,,,,,white,square
193.0,7.0,3.0,1.0,3.0,3.0,323.2733948971145,3.0,1.0,phase_1,,,,,,,,,,,,,white,square
0.0,8.0,0.0,1.0,4.0,4.0,290.2679484686814,3.0,1.0,phase_1,,,,,,,,,,,,,orange,flipped triangle
182.0,3.0,3.0,0.0,3.0,3.0,301.7392419278621,3.0,1.0,phase_1,,,,,,,,,,,,,magenta,hexagon
407.0,4.0,4.0,0.0,4.0,4.0,337.4348424258642,3.0,1.0,phase_1,,,,,,,,,,,,,gray,circle
0.0,2.0,0.0,0.0,1.0,1.0,349.5888434699736,3.0,1.0,phase_1,,,,,,,,,,,,,green,I
0.0,5.0,0.0,1.0,4.0,4.0,303.4639514517039,3.0,1.0,phase_1,,,,,,,,,,,,,cyan,triangle
194.0,3.0,3.0,0.0,4.0,4.0,293.2878728606738,3.0,1.0,phase_1,,,,,,,,,,,,,magenta,hexagon
79.0,2.0,2.0,0.0,3.0,3.0,316.7013525380753,3.0,1.0,phase_1,,,,,,,,,,,,,green,I
81.0,6.0,2.0,1.0,2.0,2.0,306.8726410274394,3.0,1.0,phase_1,,,,,,,,,,,,,blue,cross
221.0,3.0,3.0,0.0,4.0,4.0,296.0770719218999,3.0,1.0,phase_1,,,,,,,,,,,,,magenta,hexagon
0.0,1.0,0.0,0.0,2.0,2.0,307.6843614107929,3.0,1.0,phase_1,,,,,,,,,,,,,yellow,diamond
197.0,3.0,3.0,0.0,1.0,1.0,318.4066209360026,3.0,1.0,phase_1,,,,,,,,,,,,,magenta,hexagon
0.0,7.0,0.0,1.0,3.0,3.0,297.014667536132,3.0,1.0,phase_1,,,,,,,,,,,,,white,square
52.0,1.0,1.0,0.0,3.0,3.0,318.8784468802623,3.0,1.0,phase_1,,,,,,,,,,,,,yellow,diamond
95.0,6.0,2.0,1.0,4.0,4.0,309.8987294360995,3.0,1.0,phase_1,,,,,,,,,,,,,blue,cross
215.0,3.0,3.0,0.0,4.0,4.0,287.9928609472699,3.0,1.0,phase_1,,,,,,,,,,,,,magenta,hexagon
26.0,5.0,1.0,1.0,3.0,3.0,299.8187929624691,3.0,1.0,phase_1,,,,,,,,,,,,,cyan,triangle
110.0,2.0,2.0,0.0,1.0,1.0,390.0654959725216,3.0,1.0,phase_1,,,,,,,,,,,,,green,I
413.0,8.0,4.0,1.0,4.0,4.0,312.1627969085239,3.0,1.0,phase_1,,,,,,,,,,,,,orange,flipped triangle
122.0,2.0,2.0,0.0,3.0,3.0,288.0492937983945,3.0,1.0,phase_1,,,,,,,,,,,,,green,I
0.0,4.0,0.0,0.0,3.0,3.0,312.5306189176626,3.0,1.0,phase_1,,,,,,,,,,,,,gray,circle
90.0,6.0,2.0,1.0,3.0,3.0,278.3271100488491,3.0,1.0,phase_1,,,,,,,,,,,,,blue,cross
176.0,7.0,3.0,1.0,2.0,2.0,325.0481590512208,3.0,1.0,phase_1,,,,,,,,,,,,,white,square
377.0,8.0,4.0,1.0,3.0,3.0,291.1499469773844,3.0,1.0,phase_1,,,,,,,,,,,,,orange,flipped triangle
0.0,4.0,0.0,0.0,3.0,3.0,313.4210134157911,3.0,1.0,phase_1,,,,,,,,,,,,,gray,circle
176.0,3.0,3.0,0.0,3.0,3.0,292.4093829351477,3.0,1.0,phase_1,,,,,,,,,,,,,magenta,hexagon
68.0,1.0,1.0,0.0,3.0,3.0,270.2971584512852,3.0,1.0,phase_1,,,,,,,,,,,,,yellow,diamond
59.0,1.0,1.0,0.0,2.0,2.0,294.7549335076473,3.0,1.0,phase_1,,,,,,,,,,,,,yellow,diamond
26.0,1.0,1.0,0.0,4.0,4.0,338.6606274871155,3.0,1.0,phase_1,,,,,,,,,,,,,yellow,diamond
74.0,5.0,1.0,1.0,1.0,1.0,260.3404595283791,3.0,1.0,phase_1,,,,,,,,,,,,,cyan,triangle
91.0,6.0,2.0,1.0,1.0,1.0,284.052355447784,3.0,1.0,phase_1,,,,,,,,,,,,,blue,cross
105.0,2.0,2.0,0.0,3.0,3.0,294.7385894949548,3.0,1.0,phase_1,,,,,,,,,,,,,green,I
105.0,6.0,2.0,1.0,1.0,1.0,296.3521954370662,3.0,1.0,phase_1,,,,,,,,,,,,,blue,cross
388.0,4.0,4.0,0.0,4.0,4.0,330.4116019862704,3.0,1.0,phase_1,,,,,,,,,,,,,gray,circle
61.0,1.0,1.0,0.0,4.0,4.0,343.3414414757862,3.0,1.0,phase_1,,,,,,,,,,,,,yellow,diamond
392.0,4.0,4.0,0.0,4.0,4.0,321.5565264108591,3.0,1.0,phase_1,,,,,,,,,,,,,gray,circle
395.0,8.0,4.0,1.0,4.0,4.0,276.8096359795891,3.0,1.0,phase_1,,,,,,,,,,,,,orange,flipped triangle
30.0,5.0,1.0,1.0,4.0,4.0,378.8237954722717,3.0,1.0,phase_1,,,,,,,,,,,,,cyan,triangle
394.0,8.0,4.0,1.0,3.0,3.0,333.7516754982061,3.0,1.0,phase_1,,,,,,,,,,,,,orange,flipped triangle
404.0,8.0,4.0,1.0,2.0,2.0,323.4655830310657,3.0,1.0,phase_1,,,,,,,,,,,,,orange,flipped triangle
71.0,1.0,1.0,0.0,2.0,2.0,324.560314998962,3.0,1.0,phase_1,,,,,,,,,,,,,yellow,diamond
104.0,2.0,2.0,0.0,2.0,2.0,323.4951380291022,3.0,1.0,phase_1,,,,,,,,,,,,,green,I
403.0,8.0,4.0,1.0,1.0,1.0,325.9801939711906,3.0,1.0,phase_1,,,,,,,,,,,,,orange,flipped triangle
104.0,2.0,2.0,0.0,3.0,3.0,289.9283689912408,3.0,1.0,phase_1,,,,,,,,,,,,,green,I
0.0,8.0,0.0,1.0,1.0,1.0,392.8072829730809,3.0,1.0,phase_1,,,,,,,,,,,,,orange,flipped triangle
96.0,6.0,2.0,1.0,1.0,1.0,337.5000889063813,3.0,1.0,phase_1,,,,,,,,,,,,,blue,cross
71.0,5.0,1.0,1.0,2.0,2.0,292.351713462267,3.0,1.0,phase_1,,,,,,,,,,,,,cyan,triangle
218.0,3.0,3.0,0.0,2.0,2.0,305.6617985130287,3.0,1.0,phase_1,,,,,,,,,,,,,magenta,hexagon
0.0,6.0,0.0,1.0,3.0,3.0,406.4882440143265,3.0,1.0,phase_1,,,,,,,,,,,,,blue,cross
98.0,6.0,2.0,1.0,4.0,4.0,361.9288718909956,3.0,1.0,phase_1,,,,,,,,,,,,,blue,cross
50.0,1.0,1.0,0.0,3.0,3.0,351.2624889845028,3.0,1.0,phase_1,,,,,,,,,,,,,yellow,diamond
115.0,2.0,2.0,0.0,1.0,1.0,330.9197774506174,3.0,1.0,phase_1,,,,,,,,,,,,,green,I
0.0,6.0,0.0,1.0,4.0,4.0,351.3176219421439,3.0,1.0,phase_1,,,,,,,,,,,,,blue,cross
59.0,1.0,1.0,0.0,1.0,1.0,352.2771984571591,3.0,1.0,phase_1,,,,,,,,,,,,,yellow,diamond
71.0,1.0,1.0,0.0,2.0,2.0,308.2912070094608,3.0,1.0,phase_1,,,,,,,,,,,,,yellow,diamond
0.0,5.0,0.0,1.0,3.0,3.0,285.5847899918444,3.0,1.0,phase_1,,,,,,,,,,,,,cyan,triangle
100.0,6.0,2.0,1.0,2.0,2.0,354.18981697876,3.0,1.0,phase_1,,,,,,,,,,,,,blue,cross
403.0,4.0,4.0,0.0,1.0,1.0,321.2912004673853,3.0,1.0,phase_1,,,,,,,,,,,,,gray,circle
386.0,4.0,4.0,0.0,3.0,3.0,322.5683624623343,3.0,1.0,phase_1,,,,,,,,,,,,,gray,circle
187.0,3.0,3.0,0.0,3.0,3.0,322.0945244538598,3.0,1.0,phase_1,,,,,,,,,,,,,magenta,hexagon
98.0,2.0,2.0,0.0,4.0,4.0,322.7739805006422,3.0,1.0,phase_1,,,,,,,,,,,,,green,I
87.0,2.0,2.0,0.0,2.0,2.0,368.1639624992385,3.0,1.0,phase_1,,,,,,,,,,,,,green,I
52.0,5.0,1.0,1.0,4.0,4.0,324.7873004875146,3.0,1.0,phase_1,,,,,,,,,,,,,cyan,triangle
60.0,5.0,1.0,1.0,1.0,1.0,358.6396244354546,3.0,1.0,phase_1,,,,,,,,,,,,,cyan,triangle
110.0,6.0,2.0,1.0,3.0,3.0,313.5511149885133,3.0,1.0,phase_1,,,,,,,,,,,,,blue,cross
104.0,6.0,2.0,1.0,2.0,2.0,270.3658110112883,3.0,1.0,phase_1,,,,,,,,,,,,,blue,cross
384.0,8.0,4.0,1.0,4.0,4.0,338.8378819799982,3.0,1.0,phase_1,,,,,,,,,,,,,orange,flipped triangle
0.0,2.0,0.0,0.0,2.0,2.0,328.1722969259135,3.0,1.0,phase_1,,,,,,,,,,,,,green,I
182.0,7.0,3.0,1.0,1.0,1.0,316.2831920199096,3.0,1.0,phase_1,,,,,,,,,,,,,white,square
217.0,3.0,3.0,0.0,4.0,4.0,304.4152260408737,3.0,1.0,phase_1,,,,,,,,,,,,,magenta,hexagon
419.0,8.0,4.0,1.0,4.0,4.0,316.5650084265508,3.0,1.0,phase_1,,,,,,,,,,,,,orange,flipped triangle
47.0,1.0,1.0,0.0,3.0,3.0,294.3900345126167,3.0,1.0,phase_1,,,,,,,,,,,,,yellow,diamond
424.0,8.0,4.0,1.0,2.0,2.0,306.9838639930822,3.0,1.0,phase_1,,,,,,,,,,,,,orange,flipped triangle
122.0,6.0,2.0,1.0,1.0,1.0,307.6278354274109,3.0,1.0,phase_1,,,,,,,,,,,,,blue,cross
381.0,4.0,4.0,0.0,4.0,4.0,252.7895814855583,3.0,1.0,phase_1,,,,,,,,,,,,,gray,circle
95.0,2.0,2.0,0.0,4.0,4.0,341.5160704753361,3.0,1.0,phase_1,,,,,,,,,,,,,green,I
90.0,2.0,2.0,0.0,2.0,2.0,297.8064609342254,3.0,1.0,phase_1,,,,,,,,,,,,,green,I
47.0,5.0,1.0,1.0,3.0,3.0,310.9629534883424,3.0,1.0,phase_1,,,,,,,,,,,,,cyan,triangle
407.0,8.0,4.0,1.0,4.0,4.0,276.6374889761209,3.0,1.0,phase_1,,,,,,,,,,,,,orange,flipped triangle
203.0,3.0,3.0,0.0,4.0,4.0,288.286097405944,3.0,1.0,phase_1,,,,,,,,,,,,,magenta,hexagon
0.0,3.0,0.0,0.0,1.0,1.0,334.0473904390819,3.0,1.0,phase_1,,,,,,,,,,,,,magenta,hexagon
120.0,2.0,2.0,0.0,1.0,1.0,357.8833399224095,3.0,1.0,phase_1,,,,,,,,,,,,,green,I
197.0,7.0,3.0,1.0,3.0,3.0,301.4689109986648,3.0,1.0,phase_1,,,,,,,,,,,,,white,square
0.0,4.0,0.0,0.0,3.0,3.0,325.0869850162416,3.0,1.0,phase_1,,,,,,,,,,,,,gray,circle
90.0,6.0,2.0,1.0,1.0,1.0,358.3146739401854,3.0,1.0,phase_1,,,,,,,,,,,,,blue,cross
104.0,6.0,2.0,1.0,2.0,2.0,313.8884614454582,3.0,1.0,phase_1,,,,,,,,,,,,,blue,cross
211.0,3.0,3.0,0.0,3.0,3.0,315.7734984415583,3.0,1.0,phase_1,,,,,,,,,,,,,magenta,hexagon
186.0,7.0,3.0,1.0,4.0,4.0,315.2284324751235,3.0,1.0,phase_1,,,,,,,,,,,,,white,square
68.0,1.0,1.0,0.0,3.0,3.0,360.0896459538489,3.0,1.0,phase_1,,,,,,,,,,,,,yellow,diamond
413.0,4.0,4.0,0.0,4.0,4.0,339.5245789433829,3.0,1.0,phase_1,,,,,,,,,,,,,gray,circle
184.0,7.0,3.0,1.0,1.0,1.0,351.8125904374756,3.0,1.0,phase_1,,,,,,,,,,,,,white,square
96.0,2.0,2.0,0.0,4.0,4.0,351.4752615010366,3.0,1.0,phase_1,,,,,,,,,,,,,green,I
34.0,1.0,1.0,0.0,2.0,2.0,363.1119339261204,3.0,1.0,phase_1,,,,,,,,,,,,,yellow,diamond
424.0,4.0,4.0,0.0,3.0,3.0,329.0319734369404,3.0,1.0,phase_1,,,,,,,,,,,,,gray,circle
406.0,4.0,4.0,0.0,2.0,2.0,330.6925184442661,3.0,1.0,phase_1,,,,,,,,,,,,,gray,circle
184.0,3.0,3.0,0.0,2.0,2.0,330.7873049634509,3.0,1.0,phase_1,,,,,,,,,,,,,magenta,hexagon
0.0,8.0,0.0,1.0,1.0,1.0,297.4101584986783,3.0,1.0,phase_1,,,,,,,,,,,,,orange,flipped triangle
87.0,6.0,2.0,1.0,3.0,3.0,297.3121044342406,3.0,1.0,phase_1,,,,,,,,,,,,,blue,cross
0.0,3.0,0.0,0.0,4.0,4.0,321.5377689921297,3.0,1.0,phase_1,,,,,,,,,,,,,magenta,hexagon
191.0,7.0,3.0,1.0,3.0,3.0,310.1090214331634,3.0,1.0,phase_1,,,,,,,,,,,,,white,square
375.0,4.0,4.0,0.0,3.0,3.0,599.8070354689844,4.0,1.0,phase_1,,,,,,,,,,,,,gray,circle
223.0,7.0,3.0,1.0,3.0,3.0,309.2671544291079,4.0,1.0,phase_1,,,,,,,,,,,,,white,square
0.0,4.0,0.0,0.0,3.0,3.0,342.1323640504852,4.0,1.0,phase_1,,,,,,,,,,,,,gray,circle
64.0,1.0,1.0,0.0,3.0,3.0,332.7595294686034,4.0,1.0,phase_1,,,,,,,,,,,,,yellow,diamond
52.0,1.0,1.0,0.0,1.0,1.0,344.126355019398,4.0,1.0,phase_1,,,,,,,,,,,,,yellow,diamond
42.0,5.0,1.0,1.0,3.0,3.0,333.8339324109256,4.0,1.0,phase_1,,,,,,,,,,,,,cyan,triangle
118.0,6.0,2.0,1.0,2.0,2.0,254.5363749377429,4.0,1.0,phase_1,,,,,,,,,,,,,blue,cross
95.0,2.0,2.0,0.0,1.0,1.0,335.3891724837012,4.0,1.0,phase_1,,,,,,,,,,,,,green,I
110.0,6.0,2.0,1.0,2.0,2.0,256.7815214861184,4.0,1.0,phase_1,,,,,,,,,,,,,blue,cross
68.0,5.0,1.0,1.0,1.0,1.0,290.8275159425102,4.0,1.0,phase_1,,,,,,,,,,,,,cyan,triangle
413.0,8.0,4.0,1.0,2.0,2.0,336.9073044159449,4.0,1.0,phase_1,,,,,,,,,,,,,orange,flipped triangle
176.0,3.0,3.0,0.0,1.0,1.0,280.4246894083917,4.0,1.0,phase_1,,,,,,,,,,,,,magenta,hexagon
407.0,8.0,4.0,1.0,1.0,1.0,338.2180994958617,4.0,1.0,phase_1,,,,,,,,,,,,,orange,flipped triangle
34.0,5.0,1.0,1.0,4.0,4.0,338.0654638749547,4.0,1.0,phase_1,,,,,,,,,,,,,cyan,triangle
422.0,8.0,4.0,1.0,3.0,3.0,314.182064961642,4.0,1.0,phase_1,,,,,,,,,,,,,orange,flipped triangle
90.0,6.0,2.0,1.0,3.0,3.0,361.9599695084616,4.0,1.0,phase_1,,,,,,,,,,,,,blue,cross
213.0,7.0,3.0,1.0,2.0,2.0,328.9165769238025,4.0,1.0,phase_1,,,,,,,,,,,,,white,square
115.0,6.0,2.0,1.0,1.0,1.0,284.7499604686163,4.0,1.0,phase_1,,,,,,,,,,,,,blue,cross
26.0,1.0,1.0,0.0,2.0,2.0,261.0160274780355,4.0,1.0,phase_1,,,,,,,,,,,,,yellow,diamond
0.0,6.0,0.0,1.0,3.0,3.0,272.4812144879251,4.0,1.0,phase_1,,,,,,,,,,,,,blue,cross
64.0,5.0,1.0,1.0,1.0,1.0,397.3624654463492,4.0,1.0,phase_1,,,,,,,,,,,,,cyan,triangle
0.0,2.0,0.0,0.0,4.0,4.0,329.7017234726809,4.0,1.0,phase_1,,,,,,,,,,,,,green,I
186.0,3.0,3.0,0.0,2.0,2.0,285.9763979213312,4.0,1.0,phase_1,,,,,,,,,,,,,magenta,hexagon
86.0,6.0,2.0,1.0,1.0,1.0,299.4967664126307,4.0,1.0,phase_1,,,,,,,,,,,,,blue,cross
175.0,3.0,3.0,0.0,3.0,3.0,376.5672669396736,4.0,1.0,phase_1,,,,,,,,,,,,,magenta,hexagon
0.0,5.0,0.0,1.0,2.0,2.0,309.8845424829051,4.0,1.0,phase_1,,,,,,,,,,,,,cyan,triangle
0.0,4.0,0.0,0.0,2.0,2.0,301.1697955080308,4.0,1.0,phase_1,,,,,,,,,,,,,gray,circle
175.0,7.0,3.0,1.0,2.0,2.0,333.9781458489597,4.0,1.0,phase_1,,,,,,,,,,,,,white,square
178.0,3.0,3.0,0.0,1.0,1.0,312.7274289727211,4.0,1.0,phase_1,,,,,,,,,,,,,magenta,hexagon
399.0,8.0,4.0,1.0,1.0,1.0,312.1919154655188,4.0,1.0,phase_1,,,,,,,,,,,,,orange,flipped triangle
0.0,3.0,0.0,0.0,2.0,2.0,303.3281518728472,4.0,1.0,phase_1,,,,,,,,,,,,,magenta,hexagon
47.0,1.0,1.0,0.0,1.0,1.0,259.0841269120574,4.0,1.0,phase_1,,,,,,,,,,,,,yellow,diamond
0.0,5.0,0.0,1.0,3.0,3.0,325.514942931477,4.0,1.0,phase_1,,,,,,,,,,,,,cyan,triangle
399.0,4.0,4.0,0.0,1.0,1.0,382.8776174341328,4.0,1.0,phase_1,,,,,,,,,,,,,gray,circle
381.0,8.0,4.0,1.0,1.0,1.0,327.8052318491973,4.0,1.0,phase_1,,,,,,,,,,,,,orange,flipped triangle
0.0,1.0,0.0,0.0,4.0,4.0,328.691664035432,4.0,2.0,phase_1,,,,,,,,,,,,,yellow,diamond
87.0,2.0,2.0,0.0,1.0,1.0,340.4606679687276,4.0,1.0,phase_1,,,,,,,,,,,,,green,I
386.0,8.0,4.0,1.0,1.0,1.0,306.0132359387353,4.0,1.0,phase_1,,,,,,,,,,,,,orange,flipped triangle
413.0,4.0,4.0,0.0,2.0,2.0,319.5385845028795,4.0,1.0,phase_1,,,,,,,,,,,,,gray,circle
214.0,3.0,3.0,0.0,2.0,2.0,297.232796496246,4.0,1.0,phase_1,,,,,,,,,,,,,magenta,hexagon
0.0,5.0,0.0,1.0,3.0,3.0,319.0086043905467,4.0,1.0,phase_1,,,,,,,,,,,,,cyan,triangle
117.0,6.0,2.0,1.0,3.0,3.0,376.2088380171917,4.0,1.0,phase_1,,,,,,,,,,,,,blue,cross
0.0,5.0,0.0,1.0,4.0,4.0,356.3499989104457,4.0,2.0,phase_1,,,,,,,,,,,,,cyan,triangle
201.0,3.0,3.0,0.0,1.0,1.0,321.0576074197888,4.0,1.0,phase_1,,,,,,,,,,,,,magenta,hexagon
188.0,7.0,3.0,1.0,1.0,1.0,310.3554169647395,4.0,1.0,phase_1,,,,,,,,,,,,,white,square
112.0,6.0,2.0,1.0,4.0,4.0,321.9999044667929,4.0,1.0,phase_1,,,,,,,,,,,,,blue,cross
176.0,7.0,3.0,1.0,1.0,1.0,357.8191664419137,4.0,1.0,phase_1,,,,,,,,,,,,,white,square
423.0,8.0,4.0,1.0,3.0,3.0,367.4323878949508,4.0,1.0,phase_1,,,,,,,,,,,,,orange,flipped triangle
26.0,5.0,1.0,1.0,4.0,4.0,323.1436269707046,4.0,1.0,phase_1,,,,,,,,,,,,,cyan,triangle
0.0,8.0,0.0,1.0,1.0,1.0,335.182438022457,4.0,1.0,phase_1,,,,,,,,,,,,,orange,flipped triangle
0.0,1.0,0.0,0.0,2.0,2.0,291.7347834445536,4.0,1.0,phase_1,,,,,,,,,,,,,yellow,diamond
47.0,5.0,1.0,1.0,3.0,3.0,325.4444749909453,4.0,1.0,phase_1,,,,,,,,,,,,,cyan,triangle
221.0,7.0,3.0,1.0,1.0,1.0,327.8456779080443,4.0,1.0,phase_1,,,,,,,,,,,,,white,square
0.0,6.0,0.0,1.0,4.0,4.0,327.4621144519187,4.0,1.0,phase_1,,,,,,,,,,,,,blue,cross
181.0,3.0,3.0,0.0,3.0,3.0,350.0760724418796,4.0,1.0,phase_1,,,,,,,,,,,,,magenta,hexagon
112.0,2.0,2.0,0.0,1.0,1.0,305.6074604392051,4.0,1.0,phase_1,,,,,,,,,,,,,green,I
44.0,1.0,1.0,0.0,1.0,1.0,362.3075713985599,4.0,1.0,phase_1,,,,,,,,,,,,,yellow,diamond
400.0,8.0,4.0,1.0,1.0,1.0,329.9632764537819,4.0,1.0,phase_1,,,,,,,,,,,,,orange,flipped triangle
0.0,2.0,0.0,0.0,1.0,1.0,341.087675478775,4.0,1.0,phase_1,,,,,,,,,,,,,green,I
201.0,7.0,3.0,1.0,2.0,2.0,329.5011164154857,4.0,1.0,phase_1,,,,,,,,,,,,,white,square
50.0,1.0,1.0,0.0,4.0,4.0,376.2874439707957,4.0,1.0,phase_1,,,,,,,,,,,,,yellow,diamond
182.0,3.0,3.0,0.0,3.0,3.0,353.4173014340922,4.0,1.0,phase_1,,,,,,,,,,,,,magenta,hexagon
0.0,6.0,0.0,1.0,2.0,2.0,344.138377928175,4.0,1.0,phase_1,,,,,,,,,,,,,blue,cross
225.0,3.0,3.0,0.0,2.0,2.0,288.6828274349682,4.0,1.0,phase_1,,,,,,,,,,,,,magenta,hexagon
70.0,1.0,1.0,0.0,2.0,2.0,299.038017517887,4.0,1.0,phase_1,,,,,,,,,,,,,yellow,diamond
0.0,1.0,0.0,0.0,4.0,4.0,322.4939244100824,4.0,1.0,phase_1,,,,,,,,,,,,,yellow,diamond
395.0,4.0,4.0,0.0,3.0,3.0,344.2751209950074,4.0,1.0,phase_1,,,,,,,,,,,,,gray,circle
90.0,2.0,2.0,0.0,3.0,3.0,345.2803443651646,4.0,1.0,phase_1,,,,,,,,,,,,,green,I
0.0,1.0,0.0,0.0,3.0,3.0,333.7869739625603,4.0,1.0,phase_1,,,,,,,,,,,,,yellow,diamond
403.0,8.0,4.0,1.0,3.0,3.0,312.6913814921863,4.0,1.0,phase_1,,,,,,,,,,,,,orange,flipped triangle
219.0,3.0,3.0,0.0,1.0,1.0,303.1905415118672,4.0,1.0,phase_1,,,,,,,,,,,,,magenta,hexagon
198.0,3.0,3.0,0.0,3.0,3.0,347.5828139926307,4.0,1.0,phase_1,,,,,,,,,,,,,magenta,hexagon
79.0,6.0,2.0,1.0,1.0,1.0,303.5024944110773,4.0,1.0,phase_1,,,,,,,,,,,,,blue,cross
393.0,4.0,4.0,0.0,4.0,4.0,337.620721955318,4.0,1.0,phase_1,,,,,,,,,,,,,gray,circle
44.0,5.0,1.0,1.0,1.0,1.0,350.7311804569326,4.0,1.0,phase_1,,,,,,,,,,,,,cyan,triangle
209.0,7.0,3.0,1.0,2.0,2.0,361.7328644613735,4.0,1.0,phase_1,,,,,,,,,,,,,white,square
218.0,7.0,3.0,1.0,2.0,2.0,328.015728504397,4.0,1.0,phase_1,,,,,,,,,,,,,white,square
0.0,4.0,0.0,0.0,2.0,2.0,363.4965584496967,4.0,1.0,phase_1,,,,,,,,,,,,,gray,circle
415.0,8.0,4.0,1.0,3.0,3.0,351.7673529568128,4.0,1.0,phase_1,,,,,,,,,,,,,orange,flipped triangle
407.0,4.0,4.0,0.0,1.0,1.0,330.1175569067709,4.0,1.0,phase_1,,,,,,,,,,,,,gray,circle
87.0,2.0,2.0,0.0,3.0,3.0,352.1973210154101,4.0,1.0,phase_1,,,,,,,,,,,,,green,I
59.0,5.0,1.0,1.0,4.0,4.0,364.5885984878987,4.0,1.0,phase_1,,,,,,,,,,,,,cyan,triangle
0.0,1.0,0.0,0.0,2.0,2.0,321.4546633535065,4.0,1.0,phase_1,,,,,,,,,,,,,yellow,diamond
32.0,1.0,1.0,0.0,1.0,1.0,299.6848518960178,4.0,1.0,phase_1,,,,,,,,,,,,,yellow,diamond
86.0,6.0,2.0,1.0,4.0,4.0,333.8395520113408,4.0,1.0,phase_1,,,,,,,,,,,,,blue,cross
87.0,6.0,2.0,1.0,2.0,2.0,321.5302314492874,4.0,1.0,phase_1,,,,,,,,,,,,,blue,cross
119.0,2.0,2.0,0.0,2.0,2.0,345.7632164354436,4.0,1.0,phase_1,,,,,,,,,,,,,green,I
86.0,2.0,2.0,0.0,2.0,2.0,311.8778720381669,4.0,1.0,phase_1,,,,,,,,,,,,,green,I
43.0,1.0,1.0,0.0,4.0,4.0,357.6969085261225,4.0,1.0,phase_1,,,,,,,,,,,,,yellow,diamond
60.0,1.0,1.0,0.0,1.0,1.0,336.1241894890554,4.0,1.0,phase_1,,,,,,,,,,,,,yellow,diamond
406.0,8.0,4.0,1.0,1.0,1.0,336.1671129823662,4.0,1.0,phase_1,,,,,,,,,,,,,orange,flipped triangle
52.0,5.0,1.0,1.0,4.0,4.0,358.2208664156496,4.0,1.0,phase_1,,,,,,,,,,,,,cyan,triangle
96.0,6.0,2.0,1.0,4.0,4.0,370.4826339380815,4.0,1.0,phase_1,,,,,,,,,,,,,blue,cross
0.0,5.0,0.0,1.0,3.0,3.0,472.712475399021,4.0,1.0,phase_1,,,,,,,,,,,,,cyan,triangle
422.0,4.0,4.0,0.0,1.0,1.0,359.9799909279682,4.0,1.0,phase_1,,,,,,,,,,,,,gray,circle
211.0,3.0,3.0,0.0,4.0,4.0,338.7625580071471,4.0,1.0,phase_1,,,,,,,,,,,,,magenta,hexagon
101.0,6.0,2.0,1.0,4.0,4.0,327.302953985054,4.0,1.0,phase_1,,,,,,,,,,,,,blue,cross
112.0,2.0,2.0,0.0,4.0,4.0,349.9802994192578,4.0,1.0,phase_1,,,,,,,,,,,,,green,I
35.0,1.0,1.0,0.0,3.0,3.0,441.7470264597796,4.0,1.0,phase_1,,,,,,,,,,,,,yellow,diamond
0.0,2.0,0.0,0.0,3.0,3.0,374.1634809994139,4.0,1.0,phase_1,,,,,,,,,,,,,green,I
0.0,3.0,3.0,0.0,6.0,6.0,308.7979184929281,1.0,1.0,phase_2,go,250.0,250.0,1.0,,,,,,,,,magenta,hexagon
0.0,7.0,3.0,1.0,5.0,0.0,0.0,1.0,1.0,phase_2,stop,250.0,250.0,4.0,,,,,,,,,white,square
0.0,6.0,2.0,1.0,6.0,0.0,0.0,1.0,1.0,phase_2,stop,300.0,250.0,4.0,,,,,,,,,blue,cross
0.0,5.0,1.0,1.0,5.0,1.0,344.6933883242309,1.0,1.0,phase_2,stop,300.0,300.0,3.0,,,,,,,,,cyan,triangle
0.0,2.0,2.0,0.0,6.0,6.0,537.4960975605063,1.0,1.0,phase_2,go,250.0,300.0,1.0,,,,,,,,,green,I
0.0,8.0,4.0,1.0,6.0,6.0,424.3518893490545,1.0,1.0,phase_2,stop,250.0,300.0,3.0,,,,,,,,,orange,flipped triangle
0.0,7.0,3.0,1.0,5.0,0.0,0.0,1.0,1.0,phase_2,stop,250.0,250.0,4.0,,,,,,,,,white,square
0.0,8.0,4.0,1.0,5.0,1.0,663.8704485376365,1.0,1.0,phase_2,go,300.0,250.0,2.0,,,,,,,,,orange,flipped triangle
0.0,4.0,4.0,0.0,6.0,6.0,596.120057569351,1.0,1.0,phase_2,go,300.0,250.0,1.0,,,,,,,,,gray,circle
0.0,4.0,4.0,0.0,6.0,6.0,394.1426318488084,1.0,1.0,phase_2,go,300.0,250.0,1.0,,,,,,,,,gray,circle
0.0,4.0,4.0,0.0,5.0,1.0,474.5570354862138,1.0,1.0,phase_2,go,300.0,250.0,2.0,,,,,,,,,gray,circle
0.0,7.0,3.0,1.0,6.0,0.0,0.0,1.0,1.0,phase_2,stop,300.0,250.0,4.0,,,,,,,,,white,square
0.0,1.0,1.0,0.0,5.0,1.0,463.7138852267526,1.0,1.0,phase_2,go,300.0,300.0,2.0,,,,,,,,,yellow,diamond
0.0,5.0,1.0,1.0,6.0,0.0,0.0,1.0,1.0,phase_2,stop,300.0,300.0,4.0,,,,,,,,,cyan,triangle
0.0,3.0,3.0,0.0,5.0,1.0,612.0160138234496,1.0,1.0,phase_2,go,300.0,350.0,2.0,,,,,,,,,magenta,hexagon
0.0,7.0,3.0,1.0,5.0,0.0,0.0,1.0,1.0,phase_2,stop,300.0,350.0,4.0,,,,,,,,,white,square
0.0,4.0,4.0,0.0,5.0,1.0,579.783856344875,1.0,1.0,phase_2,go,350.0,350.0,2.0,,,,,,,,,gray,circle
0.0,3.0,3.0,0.0,5.0,1.0,738.9329042634927,1.0,1.0,phase_2,go,350.0,350.0,2.0,,,,,,,,,magenta,hexagon
0.0,2.0,2.0,0.0,6.0,6.0,738.3544443291612,1.0,1.0,phase_2,go,350.0,350.0,1.0,,,,,,,,,green,I
0.0,5.0,1.0,1.0,6.0,6.0,570.8010762464255,1.0,1.0,phase_2,go,350.0,350.0,1.0,,,,,,,,,cyan,triangle
0.0,2.0,2.0,0.0,6.0,6.0,842.8149746614508,1.0,1.0,phase_2,go,350.0,350.0,1.0,,,,,,,,,green,I
0.0,3.0,3.0,0.0,5.0,1.0,538.7553509208374,1.0,1.0,phase_2,go,350.0,350.0,2.0,,,,,,,,,magenta,hexagon
0.0,8.0,4.0,1.0,5.0,0.0,0.0,1.0,1.0,phase_2,stop,350.0,350.0,4.0,,,,,,,,,orange,flipped triangle
0.0,6.0,2.0,1.0,6.0,0.0,0.0,1.0,1.0,phase_2,stop,400.0,350.0,4.0,,,,,,,,,blue,cross
0.0,2.0,2.0,0.0,6.0,6.0,541.2604045704938,1.0,1.0,phase_2,go,400.0,400.0,1.0,,,,,,,,,green,I
0.0,4.0,4.0,0.0,6.0,6.0,609.463875531219,1.0,1.0,phase_2,go,400.0,400.0,1.0,,,,,,,,,gray,circle
0.0,4.0,4.0,0.0,5.0,1.0,533.0781359807588,1.0,1.0,phase_2,go,400.0,400.0,2.0,,,,,,,,,gray,circle
0.0,1.0,1.0,0.0,6.0,6.0,781.5927976043895,1.0,1.0,phase_2,go,400.0,400.0,1.0,,,,,,,,,yellow,diamond
0.0,5.0,1.0,1.0,5.0,1.0,375.7185324793681,1.0,1.0,phase_2,stop,400.0,400.0,3.0,,,,,,,,,cyan,triangle
0.0,4.0,4.0,0.0,6.0,6.0,691.6095622582361,1.0,1.0,phase_2,go,350.0,400.0,1.0,,,,,,,,,gray,circle
0.0,6.0,2.0,1.0,5.0,0.0,0.0,1.0,1.0,phase_2,stop,350.0,400.0,4.0,,,,,,,,,blue,cross
0.0,2.0,2.0,0.0,5.0,1.0,659.9213617155328,1.0,1.0,phase_2,go,400.0,400.0,2.0,,,,,,,,,green,I
0.0,5.0,1.0,1.0,6.0,0.0,0.0,1.0,1.0,phase_2,stop,400.0,400.0,4.0,,,,,,,,,cyan,triangle
0.0,3.0,3.0,0.0,5.0,1.0,651.791071286425,1.0,1.0,phase_2,go,400.0,450.0,2.0,,,,,,,,,magenta,hexagon
0.0,8.0,4.0,1.0,6.0,0.0,0.0,1.0,1.0,phase_2,stop,400.0,450.0,4.0,,,,,,,,,orange,flipped triangle
0.0,1.0,1.0,0.0,5.0,1.0,810.8029791619629,1.0,1.0,phase_2,go,400.0,500.0,2.0,,,,,,,,,yellow,diamond
0.0,7.0,3.0,1.0,5.0,5.0,413.6256704805419,2.0,1.0,phase_2,stop,400.0,500.0,3.0,,,,,,,,,white,square
0.0,1.0,1.0,0.0,6.0,6.0,626.9972916343249,2.0,1.0,phase_2,go,350.0,500.0,1.0,,,,,,,,,yellow,diamond
0.0,4.0,4.0,0.0,5.0,5.0,459.5751565066166,2.0,1.0,phase_2,go,350.0,500.0,1.0,,,,,,,,,gray,circle
0.0,4.0,4.0,0.0,5.0,5.0,628.7089614779688,2.0,1.0,phase_2,go,350.0,500.0,1.0,,,,,,,,,gray,circle
0.0,7.0,3.0,1.0,5.0,0.0,0.0,2.0,1.0,phase_2,stop,350.0,500.0,4.0,,,,,,,,,white,square
0.0,6.0,2.0,1.0,5.0,5.0,507.0522122550756,2.0,1.0,phase_2,stop,400.0,500.0,3.0,,,,,,,,,blue,cross
0.0,6.0,2.0,1.0,6.0,6.0,576.5415715286508,2.0,1.0,phase_2,go,350.0,500.0,1.0,,,,,,,,,blue,cross
0.0,8.0,4.0,1.0,5.0,5.0,622.0399915473536,2.0,1.0,phase_2,go,350.0,500.0,1.0,,,,,,,,,orange,flipped triangle
0.0,7.0,3.0,1.0,5.0,0.0,0.0,2.0,1.0,phase_2,stop,350.0,500.0,4.0,,,,,,,,,white,square
0.0,1.0,1.0,0.0,5.0,5.0,678.9554174756631,2.0,1.0,phase_2,go,400.0,500.0,1.0,,,,,,,,,yellow,diamond
0.0,2.0,2.0,0.0,6.0,6.0,590.2562284027226,2.0,1.0,phase_2,go,400.0,500.0,1.0,,,,,,,,,green,I
0.0,1.0,1.0,0.0,5.0,5.0,714.8143496597186,2.0,1.0,phase_2,go,400.0,500.0,1.0,,,,,,,,,yellow,diamond
0.0,5.0,1.0,1.0,6.0,6.0,771.4423805009574,2.0,1.0,phase_2,go,400.0,500.0,1.0,,,,,,,,,cyan,triangle
0.0,8.0,4.0,1.0,5.0,5.0,424.8121809214353,2.0,1.0,phase_2,stop,400.0,500.0,3.0,,,,,,,,,orange,flipped triangle
0.0,2.0,2.0,0.0,6.0,6.0,470.3766102902591,2.0,1.0,phase_2,go,350.0,500.0,1.0,,,,,,,,,green,I
0.0,2.0,2.0,0.0,5.0,5.0,784.8537831450813,2.0,1.0,phase_2,go,350.0,500.0,1.0,,,,,,,,,green,I
0.0,8.0,4.0,1.0,5.0,0.0,0.0,2.0,1.0,phase_2,stop,350.0,500.0,4.0,,,,,,,,,orange,flipped triangle
0.0,1.0,1.0,0.0,5.0,5.0,708.7227188749239,2.0,1.0,phase_2,go,400.0,500.0,1.0,,,,,,,,,yellow,diamond
0.0,2.0,2.0,0.0,6.0,6.0,484.0430226759054,2.0,1.0,phase_2,go,400.0,500.0,1.0,,,,,,,,,green,I
0.0,7.0,3.0,1.0,6.0,6.0,518.3722622459754,2.0,1.0,phase_2,stop,400.0,500.0,3.0,,,,,,,,,white,square
0.0,5.0,1.0,1.0,5.0,0.0,0.0,2.0,1.0,phase_2,stop,400.0,450.0,4.0,,,,,,,,,cyan,triangle
0.0,8.0,4.0,1.0,5.0,0.0,0.0,2.0,1.0,phase_2,stop,450.0,450.0,4.0,,,,,,,,,orange,flipped triangle
0.0,3.0,3.0,0.0,5.0,5.0,678.2149010105059,2.0,1.0,phase_2,go,500.0,450.0,1.0,,,,,,,,,magenta,hexagon
0.0,3.0,3.0,0.0,6.0,6.0,703.6898041842505,2.0,1.0,phase_2,go,500.0,450.0,1.0,,,,,,,,,magenta,hexagon
0.0,7.0,3.0,1.0,6.0,6.0,398.5409375745803,2.0,1.0,phase_2,stop,500.0,450.0,3.0,,,,,,,,,white,square
0.0,4.0,4.0,0.0,5.0,5.0,568.8036616193131,2.0,1.0,phase_2,go,500.0,400.0,1.0,,,,,,,,,gray,circle
0.0,6.0,2.0,1.0,5.0,5.0,872.70960630849,2.0,1.0,phase_2,go,500.0,400.0,1.0,,,,,,,,,blue,cross
0.0,7.0,3.0,1.0,5.0,5.0,345.2016866649501,2.0,1.0,phase_2,stop,500.0,400.0,3.0,,,,,,,,,white,square
0.0,7.0,3.0,1.0,5.0,5.0,594.1212776233442,2.0,1.0,phase_2,stop,450.0,400.0,3.0,,,,,,,,,white,square
0.0,5.0,1.0,1.0,6.0,6.0,752.4580616736785,2.0,1.0,phase_2,go,400.0,400.0,1.0,,,,,,,,,cyan,triangle
0.0,5.0,1.0,1.0,5.0,0.0,0.0,2.0,1.0,phase_2,stop,400.0,400.0,4.0,,,,,,,,,cyan,triangle
0.0,2.0,2.0,0.0,5.0,5.0,709.5975042320788,2.0,1.0,phase_2,go,450.0,400.0,1.0,,,,,,,,,green,I
0.0,7.0,3.0,1.0,6.0,6.0,608.3719885209575,2.0,1.0,phase_2,go,450.0,400.0,1.0,,,,,,,,,white,square
0.0,6.0,2.0,1.0,5.0,0.0,0.0,2.0,1.0,phase_2,stop,450.0,400.0,4.0,,,,,,,,,blue,cross
0.0,8.0,4.0,1.0,6.0,0.0,0.0,2.0,1.0,phase_2,stop,500.0,400.0,4.0,,,,,,,,,orange,flipped triangle
0.0,4.0,4.0,0.0,5.0,5.0,611.241381149739,2.0,1.0,phase_2,go,500.0,450.0,1.0,,,,,,,,,gray,circle
0.0,6.0,2.0,1.0,6.0,6.0,554.1333936271258,3.0,1.0,phase_2,stop,500.0,450.0,3.0,,,,,,,,,blue,cross
0.0,4.0,4.0,0.0,5.0,5.0,623.880669940263,3.0,1.0,phase_2,go,500.0,400.0,1.0,,,,,,,,,gray,circle
0.0,2.0,2.0,0.0,5.0,5.0,477.2969268960878,3.0,1.0,phase_2,go,500.0,400.0,1.0,,,,,,,,,green,I
0.0,1.0,1.0,0.0,6.0,6.0,423.0947237228974,3.0,1.0,phase_2,go,500.0,400.0,1.0,,,,,,,,,yellow,diamond
0.0,6.0,2.0,1.0,6.0,6.0,581.0327645158395,3.0,1.0,phase_2,go,500.0,400.0,1.0,,,,,,,,,blue,cross
0.0,7.0,3.0,1.0,6.0,6.0,514.2052355222404,3.0,1.0,phase_2,go,500.0,400.0,1.0,,,,,,,,,white,square
0.0,3.0,3.0,0.0,6.0,6.0,414.5871676155366,3.0,1.0,phase_2,go,500.0,400.0,1.0,,,,,,,,,magenta,hexagon
0.0,2.0,2.0,0.0,6.0,6.0,494.305370899383,3.0,1.0,phase_2,go,500.0,400.0,1.0,,,,,,,,,green,I
0.0,7.0,3.0,1.0,5.0,5.0,437.2068012598902,3.0,1.0,phase_2,go,500.0,400.0,1.0,,,,,,,,,white,square
0.0,3.0,3.0,0.0,6.0,6.0,347.6334259030409,3.0,1.0,phase_2,go,500.0,400.0,1.0,,,,,,,,,magenta,hexagon
0.0,6.0,2.0,1.0,6.0,6.0,417.7238279371522,3.0,1.0,phase_2,stop,500.0,400.0,3.0,,,,,,,,,blue,cross
0.0,8.0,4.0,1.0,6.0,0.0,0.0,3.0,1.0,phase_2,stop,500.0,350.0,4.0,,,,,,,,,orange,flipped triangle
0.0,2.0,2.0,0.0,6.0,6.0,508.0527788377367,3.0,1.0,phase_2,go,500.0,400.0,1.0,,,,,,,,,green,I
0.0,6.0,2.0,1.0,6.0,6.0,420.5698764999397,3.0,1.0,phase_2,stop,500.0,400.0,3.0,,,,,,,,,blue,cross
0.0,6.0,2.0,1.0,5.0,0.0,0.0,3.0,1.0,phase_2,stop,500.0,350.0,4.0,,,,,,,,,blue,cross
0.0,3.0,3.0,0.0,5.0,5.0,646.1384872091003,3.0,1.0,phase_2,go,550.0,350.0,1.0,,,,,,,,,magenta,hexagon
0.0,6.0,2.0,1.0,6.0,0.0,0.0,3.0,1.0,phase_2,stop,550.0,350.0,4.0,,,,,,,,,blue,cross
0.0,3.0,3.0,0.0,5.0,5.0,670.2659585280344,3.0,1.0,phase_2,go,550.0,400.0,1.0,,,,,,,,,magenta,hexagon
0.0,5.0,1.0,1.0,5.0,5.0,402.0979617489502,3.0,1.0,phase_2,stop,550.0,400.0,3.0,,,,,,,,,cyan,triangle
0.0,3.0,3.0,0.0,6.0,6.0,604.0378581383266,3.0,1.0,phase_2,go,500.0,400.0,1.0,,,,,,,,,magenta,hexagon
0.0,1.0,1.0,0.0,5.0,5.0,639.0044271247461,3.0,1.0,phase_2,go,500.0,400.0,1.0,,,,,,,,,yellow,diamond
0.0,6.0,2.0,1.0,6.0,6.0,674.9898875132203,3.0,1.0,phase_2,go,500.0,400.0,1.0,,,,,,,,,blue,cross
0.0,8.0,4.0,1.0,6.0,6.0,776.877709897235,3.0,1.0,phase_2,go,500.0,400.0,1.0,,,,,,,,,orange,flipped triangle
0.0,3.0,3.0,0.0,5.0,5.0,708.981943607796,3.0,1.0,phase_2,go,500.0,400.0,1.0,,,,,,,,,magenta,hexagon
0.0,6.0,2.0,1.0,6.0,6.0,361.0652824863791,3.0,1.0,phase_2,stop,500.0,400.0,3.0,,,,,,,,,blue,cross
0.0,6.0,2.0,1.0,6.0,6.0,565.7581329578534,3.0,1.0,phase_2,go,500.0,350.0,1.0,,,,,,,,,blue,cross
0.0,5.0,1.0,1.0,6.0,0.0,0.0,3.0,1.0,phase_2,stop,500.0,350.0,4.0,,,,,,,,,cyan,triangle
0.0,5.0,1.0,1.0,6.0,0.0,0.0,3.0,1.0,phase_2,stop,500.0,400.0,4.0,,,,,,,,,cyan,triangle
0.0,1.0,1.0,0.0,5.0,5.0,499.288049293682,3.0,1.0,phase_2,go,500.0,450.0,1.0,,,,,,,,,yellow,diamond
0.0,8.0,4.0,1.0,6.0,6.0,535.1210815715604,3.0,1.0,phase_2,stop,500.0,450.0,3.0,,,,,,,,,orange,flipped triangle
0.0,7.0,3.0,1.0,6.0,0.0,0.0,3.0,1.0,phase_2,stop,500.0,400.0,4.0,,,,,,,,,white,square
0.0,8.0,4.0,1.0,6.0,0.0,0.0,3.0,1.0,phase_2,stop,500.0,450.0,4.0,,,,,,,,,orange,flipped triangle
0.0,1.0,1.0,0.0,5.0,5.0,592.7231717505492,3.0,1.0,phase_2,go,500.0,500.0,1.0,,,,,,,,,yellow,diamond
0.0,1.0,1.0,0.0,6.0,6.0,638.1426992593333,3.0,1.0,phase_2,go,500.0,500.0,1.0,,,,,,,,,yellow,diamond
0.0,8.0,4.0,1.0,5.0,5.0,548.6671177204698,3.0,1.0,phase_2,stop,500.0,500.0,3.0,,,,,,,,,orange,flipped triangle
0.0,4.0,4.0,0.0,6.0,6.0,595.6381999421865,3.0,1.0,phase_2,go,450.0,500.0,1.0,,,,,,,,,gray,circle
0.0,6.0,2.0,1.0,6.0,6.0,630.0677065155469,4.0,1.0,phase_2,stop,450.0,500.0,3.0,,,,,,,,,blue,cross
0.0,8.0,4.0,1.0,6.0,6.0,551.8619669601321,4.0,1.0,phase_2,stop,450.0,450.0,3.0,,,,,,,,,orange,flipped triangle
0.0,1.0,1.0,0.0,6.0,6.0,543.1814758921973,4.0,1.0,phase_2,go,450.0,400.0,1.0,,,,,,,,,yellow,diamond
0.0,1.0,1.0,0.0,6.0,6.0,487.0978216058574,4.0,1.0,phase_2,go,450.0,400.0,1.0,,,,,,,,,yellow,diamond
0.0,6.0,2.0,1.0,5.0,5.0,622.2320052329451,4.0,1.0,phase_2,go,450.0,400.0,1.0,,,,,,,,,blue,cross
0.0,8.0,4.0,1.0,5.0,0.0,0.0,4.0,1.0,phase_2,stop,450.0,400.0,4.0,,,,,,,,,orange,flipped triangle
0.0,7.0,3.0,1.0,5.0,0.0,0.0,4.0,1.0,phase_2,stop,500.0,400.0,4.0,,,,,,,,,white,square
0.0,6.0,2.0,1.0,5.0,5.0,568.5813408344984,4.0,1.0,phase_2,stop,550.0,400.0,3.0,,,,,,,,,blue,cross
0.0,1.0,1.0,0.0,6.0,6.0,782.7451313496567,4.0,1.0,phase_2,go,500.0,400.0,1.0,,,,,,,,,yellow,diamond
0.0,8.0,4.0,1.0,6.0,0.0,0.0,4.0,1.0,phase_2,stop,500.0,400.0,4.0,,,,,,,,,orange,flipped triangle
0.0,7.0,3.0,1.0,6.0,0.0,0.0,4.0,1.0,phase_2,stop,500.0,450.0,4.0,,,,,,,,,white,square
0.0,6.0,2.0,1.0,5.0,0.0,0.0,4.0,1.0,phase_2,stop,500.0,500.0,4.0,,,,,,,,,blue,cross
0.0,7.0,3.0,1.0,6.0,6.0,741.9680965249427,4.0,1.0,phase_2,go,550.0,500.0,1.0,,,,,,,,,white,square
0.0,7.0,3.0,1.0,5.0,0.0,0.0,4.0,1.0,phase_2,stop,550.0,500.0,4.0,,,,,,,,,white,square
0.0,6.0,2.0,1.0,5.0,0.0,0.0,4.0,1.0,phase_2,stop,600.0,500.0,4.0,,,,,,,,,blue,cross
0.0,4.0,4.0,0.0,6.0,6.0,665.4583073104732,4.0,1.0,phase_2,go,650.0,500.0,1.0,,,,,,,,,gray,circle
0.0,6.0,2.0,1.0,5.0,5.0,688.1465342594311,4.0,1.0,phase_2,go,650.0,500.0,1.0,,,,,,,,,blue,cross
0.0,8.0,4.0,1.0,5.0,0.0,0.0,4.0,1.0,phase_2,stop,650.0,500.0,4.0,,,,,,,,,orange,flipped triangle
0.0,2.0,2.0,0.0,6.0,6.0,734.8746525822207,4.0,1.0,phase_2,go,700.0,500.0,1.0,,,,,,,,,green,I
0.0,7.0,3.0,1.0,6.0,0.0,0.0,4.0,1.0,phase_2,stop,700.0,500.0,4.0,,,,,,,,,white,square
0.0,4.0,4.0,0.0,5.0,5.0,860.5419748346321,4.0,1.0,phase_2,go,700.0,550.0,1.0,,,,,,,,,gray,circle
0.0,3.0,3.0,0.0,5.0,5.0,871.9659635098651,4.0,1.0,phase_2,go,700.0,550.0,1.0,,,,,,,,,magenta,hexagon
0.0,3.0,3.0,0.0,5.0,5.0,974.4323683553376,4.0,1.0,phase_2,go,700.0,550.0,1.0,,,,,,,,,magenta,hexagon
0.0,2.0,2.0,0.0,5.0,5.0,796.8584885820746,4.0,1.0,phase_2,go,700.0,550.0,1.0,,,,,,,,,green,I
0.0,1.0,1.0,0.0,5.0,5.0,516.5177065064199,4.0,1.0,phase_2,go,700.0,550.0,1.0,,,,,,,,,yellow,diamond
0.0,5.0,1.0,1.0,6.0,6.0,584.3041232437827,4.0,1.0,phase_2,stop,700.0,550.0,3.0,,,,,,,,,cyan,triangle
0.0,4.0,4.0,0.0,5.0,5.0,585.0849119015038,4.0,1.0,phase_2,go,700.0,500.0,1.0,,,,,,,,,gray,circle
0.0,3.0,3.0,0.0,5.0,5.0,742.3478173441254,4.0,1.0,phase_2,go,700.0,500.0,1.0,,,,,,,,,magenta,hexagon
0.0,6.0,2.0,1.0,5.0,5.0,551.4499055570923,4.0,1.0,phase_2,stop,700.0,500.0,3.0,,,,,,,,,blue,cross
0.0,4.0,4.0,0.0,6.0,6.0,520.583632227499,4.0,1.0,phase_2,go,650.0,500.0,1.0,,,,,,,,,gray,circle
0.0,7.0,3.0,1.0,5.0,5.0,723.1827500509098,4.0,1.0,phase_2,go,650.0,500.0,1.0,,,,,,,,,white,square
0.0,5.0,1.0,1.0,5.0,0.0,0.0,4.0,1.0,phase_2,stop,650.0,500.0,4.0,,,,,,,,,cyan,triangle
0.0,5.0,1.0,1.0,5.0,5.0,747.8415843215771,4.0,1.0,phase_2,stop,700.0,500.0,3.0,,,,,,,,,cyan,triangle
0.0,6.0,2.0,1.0,5.0,0.0,0.0,4.0,1.0,phase_2,stop,650.0,500.0,4.0,,,,,,,,,blue,cross
0.0,3.0,3.0,0.0,6.0,6.0,637.6032482949086,4.0,1.0,phase_2,go,700.0,500.0,1.0,,,,,,,,,magenta,hexagon
0.0,8.0,4.0,1.0,5.0,5.0,850.3242255537771,4.0,1.0,phase_2,go,700.0,500.0,1.0,,,,,,,,,orange,flipped triangle
0.0,1.0,1.0,0.0,5.0,5.0,1038.1661595893092,5.0,1.0,phase_2,go,700.0,500.0,1.0,,,,,,,,,yellow,diamond
0.0,6.0,2.0,1.0,6.0,6.0,307.8140593133867,5.0,1.0,phase_2,stop,700.0,500.0,3.0,,,,,,,,,blue,cross
0.0,4.0,4.0,0.0,5.0,5.0,669.2807439249009,5.0,1.0,phase_2,go,700.0,450.0,1.0,,,,,,,,,gray,circle
0.0,7.0,3.0,1.0,5.0,5.0,544.4446953479201,5.0,1.0,phase_2,go,700.0,450.0,1.0,,,,,,,,,white,square
0.0,7.0,3.0,1.0,5.0,5.0,411.4508179482072,5.0,1.0,phase_2,go,700.0,450.0,1.0,,,,,,,,,white,square
0.0,3.0,3.0,0.0,6.0,6.0,434.9087345181033,5.0,1.0,phase_2,go,700.0,450.0,1.0,,,,,,,,,magenta,hexagon
0.0,5.0,1.0,1.0,5.0,5.0,299.130319559481,5.0,1.0,phase_2,go,700.0,450.0,1.0,,,,,,,,,cyan,triangle
0.0,1.0,1.0,0.0,6.0,6.0,324.6096585644409,5.0,1.0,phase_2,go,700.0,450.0,1.0,,,,,,,,,yellow,diamond
0.0,3.0,3.0,0.0,5.0,5.0,504.5512019423768,5.0,1.0,phase_2,go,700.0,450.0,1.0,,,,,,,,,magenta,hexagon
0.0,1.0,1.0,0.0,6.0,6.0,256.8257651291787,5.0,1.0,phase_2,go,700.0,450.0,1.0,,,,,,,,,yellow,diamond
0.0,7.0,3.0,1.0,6.0,6.0,338.2984613417648,5.0,1.0,phase_2,stop,700.0,450.0,3.0,,,,,,,,,white,square
0.0,1.0,1.0,0.0,6.0,6.0,596.0967121645808,5.0,1.0,phase_2,go,700.0,400.0,1.0,,,,,,,,,yellow,diamond
0.0,1.0,1.0,0.0,6.0,6.0,315.9625572734512,5.0,1.0,phase_2,go,700.0,400.0,1.0,,,,,,,,,yellow,diamond
0.0,3.0,3.0,0.0,6.0,6.0,474.308296572417,5.0,1.0,phase_2,go,700.0,400.0,1.0,,,,,,,,,magenta,hexagon
0.0,8.0,4.0,1.0,6.0,6.0,554.7455772175454,5.0,1.0,phase_2,stop,700.0,400.0,3.0,,,,,,,,,orange,flipped triangle
0.0,3.0,3.0,0.0,6.0,6.0,633.8389809825458,5.0,1.0,phase_2,go,700.0,350.0,1.0,,,,,,,,,magenta,hexagon
0.0,8.0,4.0,1.0,6.0,6.0,488.5987406014465,5.0,1.0,phase_2,stop,700.0,350.0,3.0,,,,,,,,,orange,flipped triangle
0.0,2.0,2.0,0.0,5.0,5.0,455.6802216102369,5.0,1.0,phase_2,go,700.0,300.0,1.0,,,,,,,,,green,I
0.0,3.0,3.0,0.0,6.0,6.0,545.7021312322468,5.0,1.0,phase_2,go,700.0,300.0,1.0,,,,,,,,,magenta,hexagon
0.0,7.0,3.0,1.0,5.0,5.0,525.2152398461476,5.0,1.0,phase_2,stop,700.0,300.0,3.0,,,,,,,,,white,square
0.0,2.0,2.0,0.0,5.0,5.0,671.3019098388031,5.0,1.0,phase_2,go,650.0,300.0,1.0,,,,,,,,,green,I
0.0,4.0,4.0,0.0,5.0,5.0,594.7428315412253,5.0,1.0,phase_2,go,650.0,300.0,1.0,,,,,,,,,gray,circle
0.0,2.0,2.0,0.0,6.0,6.0,381.05393294245,5.0,1.0,phase_2,go,650.0,300.0,1.0,,,,,,,,,green,I
0.0,6.0,2.0,1.0,6.0,0.0,0.0,5.0,1.0,phase_2,stop,650.0,300.0,4.0,,,,,,,,,blue,cross
0.0,6.0,2.0,1.0,6.0,0.0,0.0,5.0,1.0,phase_2,stop,650.0,350.0,4.0,,,,,,,,,blue,cross
0.0,7.0,3.0,1.0,6.0,0.0,0.0,5.0,1.0,phase_2,stop,650.0,400.0,4.0,,,,,,,,,white,square
0.0,3.0,3.0,0.0,6.0,6.0,497.8371605393477,5.0,1.0,phase_2,go,650.0,450.0,1.0,,,,,,,,,magenta,hexagon
0.0,4.0,4.0,0.0,6.0,6.0,486.7507002782076,5.0,1.0,phase_2,go,650.0,450.0,1.0,,,,,,,,,gray,circle
0.0,8.0,4.0,1.0,5.0,5.0,373.8822233281098,5.0,1.0,phase_2,go,650.0,450.0,1.0,,,,,,,,,orange,flipped triangle
0.0,2.0,2.0,0.0,6.0,6.0,363.4539325139485,5.0,1.0,phase_2,go,650.0,450.0,1.0,,,,,,,,,green,I
0.0,7.0,3.0,1.0,6.0,6.0,353.0291949864477,5.0,1.0,phase_2,stop,650.0,450.0,3.0,,,,,,,,,white,square
0.0,1.0,1.0,0.0,5.0,5.0,467.8752315812744,5.0,1.0,phase_2,go,650.0,400.0,1.0,,,,,,,,,yellow,diamond
0.0,8.0,4.0,1.0,6.0,0.0,0.0,5.0,1.0,phase_2,stop,650.0,400.0,4.0,,,,,,,,,orange,flipped triangle
0.0,2.0,2.0,0.0,5.0,5.0,525.5890289554372,5.0,1.0,phase_2,go,650.0,450.0,1.0,,,,,,,,,green,I
0.0,4.0,4.0,0.0,6.0,6.0,639.4161428906955,5.0,1.0,phase_2,go,650.0,450.0,1.0,,,,,,,,,gray,circle
0.0,8.0,4.0,1.0,5.0,5.0,604.8662893590517,5.0,1.0,phase_2,go,650.0,450.0,1.0,,,,,,,,,orange,flipped triangle
0.0,8.0,4.0,1.0,5.0,5.0,583.9895149110816,6.0,1.0,phase_2,stop,650.0,450.0,3.0,,,,,,,,,orange,flipped triangle
0.0,2.0,2.0,0.0,5.0,5.0,493.4251339291222,6.0,1.0,phase_2,go,600.0,450.0,1.0,,,,,,,,,green,I
0.0,1.0,1.0,0.0,6.0,6.0,280.5291461991146,6.0,1.0,phase_2,go,600.0,450.0,1.0,,,,,,,,,yellow,diamond
0.0,3.0,3.0,0.0,5.0,5.0,225.0870575080625,6.0,1.0,phase_2,go,600.0,450.0,1.0,,,,,,,,,magenta,hexagon
0.0,3.0,3.0,0.0,5.0,6.0,236.4146873587742,6.0,1.0,phase_2,go,600.0,450.0,2.0,,,,,,,,,magenta,hexagon
0.0,6.0,2.0,1.0,5.0,5.0,272.8651296347379,6.0,1.0,phase_2,stop,600.0,450.0,3.0,,,,,,,,,blue,cross
0.0,1.0,1.0,0.0,6.0,6.0,430.0046659191139,6.0,1.0,phase_2,go,550.0,450.0,1.0,,,,,,,,,yellow,diamond
0.0,2.0,2.0,0.0,5.0,5.0,295.8244804758578,6.0,1.0,phase_2,go,550.0,450.0,1.0,,,,,,,,,green,I
0.0,6.0,2.0,1.0,5.0,5.0,285.8012665528804,6.0,1.0,phase_2,go,550.0,450.0,1.0,,,,,,,,,blue,cross
0.0,2.0,2.0,0.0,6.0,6.0,364.815812325105,6.0,1.0,phase_2,go,550.0,450.0,1.0,,,,,,,,,green,I
0.0,7.0,3.0,1.0,5.0,5.0,253.0760109657421,6.0,1.0,phase_2,stop,550.0,450.0,3.0,,,,,,,,,white,square
0.0,1.0,1.0,0.0,6.0,6.0,513.0802887724712,6.0,1.0,phase_2,go,500.0,450.0,1.0,,,,,,,,,yellow,diamond
0.0,6.0,2.0,1.0,6.0,6.0,435.5145665467717,6.0,1.0,phase_2,stop,500.0,450.0,3.0,,,,,,,,,blue,cross
0.0,6.0,2.0,1.0,6.0,6.0,410.3274123044684,6.0,1.0,phase_2,stop,500.0,400.0,3.0,,,,,,,,,blue,cross
0.0,5.0,1.0,1.0,6.0,6.0,459.490641602315,6.0,1.0,phase_2,go,500.0,350.0,1.0,,,,,,,,,cyan,triangle
0.0,4.0,4.0,0.0,6.0,6.0,470.2535982360132,6.0,1.0,phase_2,go,500.0,350.0,1.0,,,,,,,,,gray,circle
0.0,2.0,2.0,0.0,5.0,5.0,303.4605114953592,6.0,1.0,phase_2,go,500.0,350.0,1.0,,,,,,,,,green,I
0.0,5.0,1.0,1.0,5.0,5.0,338.7121714768,6.0,1.0,phase_2,stop,500.0,350.0,3.0,,,,,,,,,cyan,triangle
0.0,8.0,4.0,1.0,6.0,6.0,473.8107922021299,6.0,1.0,phase_2,stop,450.0,350.0,3.0,,,,,,,,,orange,flipped triangle
0.0,4.0,4.0,0.0,5.0,5.0,575.0986932544038,6.0,1.0,phase_2,go,450.0,300.0,1.0,,,,,,,,,gray,circle
0.0,8.0,4.0,1.0,6.0,0.0,0.0,6.0,1.0,phase_2,stop,450.0,300.0,4.0,,,,,,,,,orange,flipped triangle
0.0,3.0,3.0,0.0,5.0,5.0,532.5775169185363,6.0,1.0,phase_2,go,450.0,350.0,1.0,,,,,,,,,magenta,hexagon
0.0,2.0,2.0,0.0,5.0,5.0,476.4037153217941,6.0,1.0,phase_2,go,450.0,350.0,1.0,,,,,,,,,green,I
0.0,3.0,3.0,0.0,6.0,6.0,567.9597724811174,6.0,1.0,phase_2,go,450.0,350.0,1.0,,,,,,,,,magenta,hexagon
0.0,2.0,2.0,0.0,5.0,5.0,286.8870079400949,6.0,1.0,phase_2,go,450.0,350.0,1.0,,,,,,,,,green,I
0.0,3.0,3.0,0.0,6.0,6.0,502.8843962936662,6.0,1.0,phase_2,go,450.0,350.0,1.0,,,,,,,,,magenta,hexagon
0.0,2.0,2.0,0.0,6.0,6.0,346.2712339241989,6.0,1.0,phase_2,go,450.0,350.0,1.0,,,,,,,,,green,I
0.0,7.0,3.0,1.0,5.0,5.0,266.7814500746317,6.0,1.0,phase_2,stop,450.0,350.0,3.0,,,,,,,,,white,square
0.0,7.0,3.0,1.0,6.0,6.0,449.04037960805,6.0,1.0,phase_2,stop,400.0,350.0,3.0,,,,,,,,,white,square
0.0,4.0,4.0,0.0,5.0,5.0,449.2455933359451,6.0,1.0,phase_2,go,400.0,300.0,1.0,,,,,,,,,gray,circle
0.0,3.0,3.0,0.0,5.0,5.0,415.6992984935641,6.0,1.0,phase_2,go,400.0,300.0,1.0,,,,,,,,,magenta,hexagon
0.0,2.0,2.0,0.0,5.0,5.0,361.5431576035917,6.0,1.0,phase_2,go,400.0,300.0,1.0,,,,,,,,,green,I
0.0,4.0,4.0,0.0,6.0,6.0,406.3701925333589,6.0,1.0,phase_2,go,400.0,300.0,1.0,,,,,,,,,gray,circle
0.0,5.0,1.0,1.0,6.0,0.0,0.0,6.0,1.0,phase_2,stop,400.0,300.0,4.0,,,,,,,,,cyan,triangle
0.0,5.0,1.0,1.0,5.0,5.0,475.6758365547284,6.0,1.0,phase_2,stop,400.0,350.0,3.0,,,,,,,,,cyan,triangle
0.0,3.0,3.0,0.0,6.0,6.0,466.0945493960753,6.0,1.0,phase_2,go,350.0,350.0,1.0,,,,,,,,,magenta,hexagon
0.0,8.0,4.0,1.0,6.0,0.0,0.0,7.0,1.0,phase_2,stop,350.0,350.0,4.0,,,,,,,,,orange,flipped triangle
0.0,3.0,3.0,0.0,6.0,6.0,281.790688924957,7.0,1.0,phase_2,go,350.0,400.0,1.0,,,,,,,,,magenta,hexagon
0.0,5.0,1.0,1.0,5.0,5.0,259.8592138965614,7.0,1.0,phase_2,stop,350.0,400.0,3.0,,,,,,,,,cyan,triangle
0.0,1.0,1.0,0.0,5.0,5.0,497.8725443361327,7.0,1.0,phase_2,go,300.0,400.0,1.0,,,,,,,,,yellow,diamond
0.0,2.0,2.0,0.0,5.0,5.0,340.5501934466883,7.0,1.0,phase_2,go,300.0,400.0,1.0,,,,,,,,,green,I
0.0,7.0,3.0,1.0,6.0,6.0,307.6139583135955,7.0,1.0,phase_2,go,300.0,400.0,1.0,,,,,,,,,white,square
0.0,4.0,4.0,0.0,6.0,6.0,297.6925279945135,7.0,1.0,phase_2,go,300.0,400.0,1.0,,,,,,,,,gray,circle
0.0,8.0,4.0,1.0,6.0,0.0,0.0,7.0,1.0,phase_2,stop,300.0,400.0,4.0,,,,,,,,,orange,flipped triangle
0.0,1.0,1.0,0.0,6.0,6.0,547.0579979009926,7.0,1.0,phase_2,go,300.0,450.0,1.0,,,,,,,,,yellow,diamond
0.0,2.0,2.0,0.0,5.0,5.0,480.986374837812,7.0,1.0,phase_2,go,300.0,450.0,1.0,,,,,,,,,green,I
0.0,4.0,4.0,0.0,6.0,6.0,368.2155375136062,7.0,1.0,phase_2,go,300.0,450.0,1.0,,,,,,,,,gray,circle
0.0,1.0,1.0,0.0,5.0,5.0,255.9989073779434,7.0,1.0,phase_2,go,300.0,450.0,1.0,,,,,,,,,yellow,diamond
0.0,4.0,4.0,0.0,6.0,6.0,369.9199246475473,7.0,1.0,phase_2,go,300.0,450.0,1.0,,,,,,,,,gray,circle
0.0,5.0,1.0,1.0,5.0,5.0,336.712863529101,7.0,1.0,phase_2,stop,300.0,450.0,3.0,,,,,,,,,cyan,triangle
0.0,6.0,2.0,1.0,5.0,5.0,620.0602955068462,7.0,1.0,phase_2,go,250.0,450.0,1.0,,,,,,,,,blue,cross
0.0,4.0,4.0,0.0,5.0,5.0,529.5507020200603,7.0,1.0,phase_2,go,250.0,450.0,1.0,,,,,,,,,gray,circle
0.0,2.0,2.0,0.0,5.0,5.0,418.4670772519894,7.0,1.0,phase_2,go,250.0,450.0,1.0,,,,,,,,,green,I
0.0,8.0,4.0,1.0,6.0,6.0,756.1774252681062,7.0,1.0,phase_2,go,250.0,450.0,1.0,,,,,,,,,orange,flipped triangle
0.0,6.0,2.0,1.0,5.0,0.0,0.0,7.0,1.0,phase_2,stop,250.0,450.0,4.0,,,,,,,,,blue,cross
0.0,2.0,2.0,0.0,6.0,6.0,511.42584439367056,7.0,1.0,phase_2,go,300.0,450.0,1.0,,,,,,,,,green,I
0.0,6.0,2.0,1.0,5.0,5.0,330.8886241866275,7.0,1.0,phase_2,stop,300.0,450.0,3.0,,,,,,,,,blue,cross
0.0,3.0,3.0,0.0,5.0,5.0,490.8311975887045,7.0,1.0,phase_2,go,250.0,450.0,1.0,,,,,,,,,magenta,hexagon
0.0,3.0,3.0,0.0,6.0,6.0,444.9124119710177,7.0,1.0,phase_2,go,250.0,450.0,1.0,,,,,,,,,magenta,hexagon
0.0,5.0,1.0,1.0,6.0,6.0,479.4917071703821,7.0,1.0,phase_2,stop,250.0,450.0,3.0,,,,,,,,,cyan,triangle
0.0,1.0,1.0,0.0,5.0,5.0,616.058713523671,7.0,1.0,phase_2,go,250.0,400.0,1.0,,,,,,,,,yellow,diamond
0.0,8.0,4.0,1.0,5.0,0.0,0.0,7.0,1.0,phase_2,stop,250.0,400.0,4.0,,,,,,,,,orange,flipped triangle
0.0,8.0,4.0,1.0,5.0,5.0,695.7951325457543,7.0,1.0,phase_2,go,300.0,400.0,1.0,,,,,,,,,orange,flipped triangle
0.0,5.0,1.0,1.0,5.0,0.0,0.0,7.0,1.0,phase_2,stop,300.0,400.0,4.0,,,,,,,,,cyan,triangle
0.0,8.0,4.0,1.0,5.0,0.0,0.0,7.0,1.0,phase_2,stop,350.0,400.0,4.0,,,,,,,,,orange,flipped triangle
0.0,1.0,1.0,0.0,6.0,6.0,474.6234659687616,7.0,1.0,phase_2,go,400.0,400.0,1.0,,,,,,,,,yellow,diamond
0.0,3.0,3.0,0.0,5.0,5.0,439.9677824694663,7.0,1.0,phase_2,go,400.0,400.0,1.0,,,,,,,,,magenta,hexagon
0.0,6.0,2.0,1.0,5.0,0.0,0.0,7.0,1.0,phase_2,stop,400.0,400.0,4.0,,,,,,,,,blue,cross
0.0,7.0,3.0,1.0,6.0,6.0,532.2796760010533,7.0,1.0,phase_2,stop,450.0,400.0,3.0,,,,,,,,,white,square
0.0,4.0,4.0,0.0,6.0,6.0,488.1959260092117,7.0,1.0,phase_2,go,450.0,350.0,1.0,,,,,,,,,gray,circle
0.0,4.0,4.0,0.0,5.0,5.0,545.8038419601507,7.0,1.0,phase_2,go,450.0,350.0,1.0,,,,,,,,,gray,circle
0.0,1.0,1.0,0.0,5.0,5.0,680.498797504697,7.0,1.0,phase_2,go,450.0,350.0,1.0,,,,,,,,,yellow,diamond
0.0,8.0,4.0,1.0,6.0,0.0,0.0,8.0,1.0,phase_2,stop,450.0,350.0,4.0,,,,,,,,,orange,flipped triangle
0.0,5.0,1.0,1.0,6.0,6.0,362.2133972821757,8.0,1.0,phase_2,stop,450.0,400.0,3.0,,,,,,,,,cyan,triangle
0.0,4.0,4.0,0.0,5.0,5.0,475.0249949283898,8.0,1.0,phase_2,go,450.0,350.0,1.0,,,,,,,,,gray,circle
0.0,1.0,1.0,0.0,5.0,5.0,362.481809570454,8.0,1.0,phase_2,go,450.0,350.0,1.0,,,,,,,,,yellow,diamond
0.0,5.0,1.0,1.0,5.0,5.0,462.2635205159895,8.0,1.0,phase_2,stop,450.0,350.0,3.0,,,,,,,,,cyan,triangle
0.0,5.0,1.0,1.0,5.0,5.0,736.5096512367018,8.0,1.0,phase_2,go,400.0,350.0,1.0,,,,,,,,,cyan,triangle
0.0,2.0,2.0,0.0,6.0,6.0,467.0829342212528,8.0,1.0,phase_2,go,400.0,350.0,1.0,,,,,,,,,green,I
0.0,1.0,1.0,0.0,6.0,6.0,557.1258859126829,8.0,1.0,phase_2,go,400.0,350.0,1.0,,,,,,,,,yellow,diamond
0.0,2.0,2.0,0.0,6.0,6.0,636.2030883319676,8.0,1.0,phase_2,go,400.0,350.0,1.0,,,,,,,,,green,I
0.0,1.0,1.0,0.0,5.0,5.0,637.6583024393767,8.0,1.0,phase_2,go,400.0,350.0,1.0,,,,,,,,,yellow,diamond
0.0,4.0,4.0,0.0,6.0,6.0,502.6901212404482,8.0,1.0,phase_2,go,400.0,350.0,1.0,,,,,,,,,gray,circle
0.0,3.0,3.0,0.0,6.0,6.0,358.2920131739229,8.0,1.0,phase_2,go,400.0,350.0,1.0,,,,,,,,,magenta,hexagon
0.0,5.0,1.0,1.0,5.0,0.0,0.0,8.0,1.0,phase_2,stop,400.0,350.0,4.0,,,,,,,,,cyan,triangle
0.0,7.0,3.0,1.0,5.0,5.0,675.6110361311585,8.0,1.0,phase_2,go,450.0,350.0,1.0,,,,,,,,,white,square
0.0,5.0,1.0,1.0,6.0,6.0,495.4506218200549,8.0,1.0,phase_2,stop,450.0,350.0,3.0,,,,,,,,,cyan,triangle
0.0,8.0,4.0,1.0,5.0,5.0,642.5217722426169,8.0,1.0,phase_2,go,450.0,300.0,1.0,,,,,,,,,orange,flipped triangle
0.0,5.0,1.0,1.0,5.0,5.0,644.2487257882021,8.0,1.0,phase_2,go,450.0,300.0,1.0,,,,,,,,,cyan,triangle
0.0,7.0,3.0,1.0,6.0,0.0,0.0,8.0,1.0,phase_2,stop,450.0,300.0,4.0,,,,,,,,,white,square
0.0,5.0,1.0,1.0,6.0,0.0,0.0,8.0,1.0,phase_2,stop,450.0,350.0,4.0,,,,,,,,,cyan,triangle
0.0,4.0,4.0,0.0,5.0,5.0,420.2037958311848,8.0,1.0,phase_2,go,450.0,400.0,1.0,,,,,,,,,gray,circle
0.0,5.0,1.0,1.0,6.0,6.0,411.8173378519714,8.0,1.0,phase_2,stop,450.0,400.0,3.0,,,,,,,,,cyan,triangle
0.0,5.0,1.0,1.0,6.0,6.0,320.511054364033,8.0,1.0,phase_2,go,450.0,350.0,1.0,,,,,,,,,cyan,triangle
0.0,1.0,1.0,0.0,6.0,6.0,491.6669366066344,8.0,1.0,phase_2,go,450.0,350.0,1.0,,,,,,,,,yellow,diamond
0.0,7.0,3.0,1.0,6.0,0.0,0.0,8.0,1.0,phase_2,stop,450.0,350.0,4.0,,,,,,,,,white,square
0.0,5.0,1.0,1.0,6.0,6.0,639.1868878272362,8.0,1.0,phase_2,go,450.0,400.0,1.0,,,,,,,,,cyan,triangle
0.0,4.0,4.0,0.0,6.0,6.0,537.8117765067145,8.0,1.0,phase_2,go,450.0,400.0,1.0,,,,,,,,,gray,circle
0.0,3.0,3.0,0.0,6.0,6.0,572.5730715203099,8.0,1.0,phase_2,go,450.0,400.0,1.0,,,,,,,,,magenta,hexagon
0.0,4.0,4.0,0.0,6.0,6.0,462.357651849743,8.0,1.0,phase_2,go,450.0,400.0,1.0,,,,,,,,,gray,circle
0.0,5.0,1.0,1.0,5.0,0.0,0.0,8.0,1.0,phase_2,stop,450.0,400.0,4.0,,,,,,,,,cyan,triangle
0.0,1.0,1.0,0.0,5.0,5.0,620.0842332909815,8.0,1.0,phase_2,go,500.0,400.0,1.0,,,,,,,,,yellow,diamond
0.0,6.0,2.0,1.0,6.0,6.0,497.133562748786,8.0,1.0,phase_2,stop,500.0,400.0,3.0,,,,,,,,,blue,cross
0.0,8.0,4.0,1.0,5.0,5.0,622.0768949133344,8.0,1.0,phase_2,stop,500.0,350.0,3.0,,,,,,,,,orange,flipped triangle
0.0,7.0,3.0,1.0,6.0,0.0,0.0,8.0,1.0,phase_2,stop,450.0,350.0,4.0,,,,,,,,,white,square
0.0,2.0,2.0,0.0,6.0,6.0,612.4533865367994,8.0,1.0,phase_2,go,450.0,400.0,1.0,,,,,,,,,green,I
0.0,5.0,1.0,1.0,6.0,0.0,0.0,8.0,1.0,phase_2,stop,450.0,400.0,4.0,,,,,,,,,cyan,triangle
0.0,2.0,2.0,0.0,5.0,5.0,839.2946776002645,8.0,1.0,phase_2,go,450.0,450.0,1.0,,,,,,,,,green,I
0.0,4.0,4.0,0.0,7.0,5.0,2979.2032201658003,1.0,1.0,phase_3,,,,,324.0,6.0,216.0,270.0,54.0,162.0,324.0,108.0,gray,circle
0.0,2.0,2.0,0.0,7.0,6.0,3812.9848408862017,1.0,1.0,phase_3,,,,,68.0,2.0,204.0,34.0,136.0,102.0,170.0,68.0,green,I
0.0,8.0,4.0,1.0,7.0,2.0,3398.5928190522827,1.0,1.0,phase_3,,,,,234.0,6.0,156.0,234.0,195.0,117.0,78.0,39.0,orange,flipped triangle
0.0,4.0,4.0,0.0,7.0,1.0,4288.868656905834,1.0,1.0,phase_3,,,,,234.0,6.0,234.0,195.0,78.0,39.0,117.0,156.0,gray,circle
0.0,2.0,2.0,0.0,7.0,3.0,728.6967404652387,1.0,2.0,phase_3,,,,,98.0,2.0,196.0,49.0,98.0,245.0,294.0,147.0,green,I
0.0,1.0,1.0,0.0,7.0,5.0,2293.0008005932905,1.0,1.0,phase_3,,,,,78.0,2.0,156.0,234.0,39.0,195.0,78.0,117.0,yellow,diamond
0.0,1.0,1.0,0.0,7.0,6.0,2440.65139774466,1.0,1.0,phase_3,,,,,78.0,2.0,195.0,234.0,117.0,156.0,39.0,78.0,yellow,diamond
0.0,8.0,4.0,1.0,7.0,4.0,2283.5907003027387,1.0,1.0,phase_3,,,,,170.0,5.0,102.0,204.0,34.0,170.0,136.0,68.0,orange,flipped triangle
0.0,7.0,3.0,1.0,7.0,6.0,2408.647224481683,1.0,1.0,phase_3,,,,,88.0,2.0,132.0,220.0,264.0,176.0,44.0,88.0,white,square
0.0,4.0,4.0,0.0,7.0,3.0,2195.722475415096,1.0,1.0,phase_3,,,,,324.0,6.0,54.0,162.0,324.0,216.0,270.0,108.0,gray,circle
0.0,6.0,2.0,1.0,7.0,3.0,2029.045086994301,1.0,1.0,phase_3,,,,,34.0,1.0,102.0,204.0,34.0,136.0,170.0,68.0,blue,cross
0.0,3.0,3.0,0.0,7.0,2.0,2514.577388763428,1.0,1.0,phase_3,,,,,88.0,2.0,264.0,88.0,176.0,132.0,44.0,220.0,magenta,hexagon
0.0,3.0,3.0,0.0,7.0,3.0,2649.850540445186,1.0,1.0,phase_3,,,,,54.0,1.0,162.0,108.0,54.0,216.0,324.0,270.0,magenta,hexagon
0.0,8.0,4.0,1.0,7.0,5.0,3124.9031593906693,1.0,1.0,phase_3,,,,,195.0,5.0,156.0,234.0,117.0,78.0,195.0,39.0,orange,flipped triangle
0.0,5.0,1.0,1.0,7.0,5.0,1976.2878922047091,1.0,1.0,phase_3,,,,,78.0,2.0,234.0,39.0,156.0,195.0,78.0,117.0,cyan,triangle
0.0,6.0,2.0,1.0,7.0,5.0,1618.2599503081292,1.0,1.0,phase_3,,,,,117.0,3.0,195.0,78.0,156.0,234.0,117.0,39.0,blue,cross
0.0,2.0,2.0,0.0,7.0,6.0,2012.659113330301,1.0,1.0,phase_3,,,,,132.0,3.0,220.0,88.0,44.0,264.0,176.0,132.0,green,I
0.0,5.0,1.0,1.0,7.0,5.0,2060.1131326984614,1.0,1.0,phase_3,,,,,88.0,2.0,220.0,132.0,264.0,44.0,88.0,176.0,cyan,triangle
0.0,1.0,1.0,0.0,7.0,6.0,1914.4871025928296,1.0,1.0,phase_3,,,,,88.0,2.0,132.0,220.0,176.0,264.0,44.0,88.0,yellow,diamond
0.0,4.0,4.0,0.0,7.0,3.0,1386.123229691293,1.0,1.0,phase_3,,,,,294.0,6.0,49.0,98.0,294.0,245.0,147.0,196.0,gray,circle
0.0,7.0,3.0,1.0,7.0,5.0,1614.3440473242665,2.0,1.0,phase_3,,,,,68.0,2.0,204.0,102.0,34.0,170.0,68.0,136.0,white,square
0.0,5.0,1.0,1.0,7.0,5.0,2706.6013348521665,2.0,1.0,phase_3,,,,,88.0,2.0,264.0,176.0,44.0,220.0,88.0,132.0,cyan,triangle
0.0,6.0,2.0,1.0,7.0,2.0,1502.2555082687177,2.0,1.0,phase_3,,,,,88.0,2.0,220.0,88.0,176.0,264.0,132.0,44.0,blue,cross
0.0,8.0,4.0,1.0,7.0,4.0,1334.7482341341674,2.0,1.0,phase_3,,,,,245.0,5.0,49.0,196.0,98.0,245.0,294.0,147.0,orange,flipped triangle
0.0,3.0,3.0,0.0,7.0,1.0,2393.827923981007,2.0,1.0,phase_3,,,,,156.0,4.0,156.0,117.0,234.0,78.0,195.0,39.0,magenta,hexagon
0.0,4.0,4.0,0.0,7.0,2.0,1854.7550021321515,2.0,1.0,phase_3,,,,,234.0,6.0,195.0,234.0,117.0,156.0,78.0,39.0,gray,circle
0.0,4.0,4.0,0.0,7.0,3.0,2295.5745008657686,2.0,1.0,phase_3,,,,,264.0,6.0,220.0,44.0,264.0,176.0,88.0,132.0,gray,circle
0.0,7.0,3.0,1.0,7.0,3.0,2970.9891152451746,2.0,1.0,phase_3,,,,,78.0,2.0,117.0,234.0,78.0,39.0,195.0,156.0,white,square
0.0,5.0,1.0,1.0,7.0,1.0,2802.9448241577484,2.0,1.0,phase_3,,,,,68.0,2.0,68.0,204.0,170.0,102.0,136.0,34.0,cyan,triangle
0.0,7.0,3.0,1.0,7.0,3.0,1241.4147960371338,2.0,1.0,phase_3,,,,,49.0,1.0,98.0,245.0,49.0,294.0,196.0,147.0,white,square
0.0,1.0,1.0,0.0,7.0,1.0,2208.627084444742,2.0,1.0,phase_3,,,,,88.0,2.0,88.0,220.0,264.0,176.0,44.0,132.0,yellow,diamond
0.0,1.0,1.0,0.0,7.0,2.0,1185.7796854455955,2.0,1.0,phase_3,,,,,49.0,1.0,98.0,49.0,147.0,294.0,245.0,196.0,yellow,diamond
0.0,3.0,3.0,0.0,7.0,6.0,2008.9146321988665,2.0,1.0,phase_3,,,,,136.0,4.0,170.0,34.0,68.0,204.0,102.0,136.0,magenta,hexagon
0.0,6.0,2.0,1.0,7.0,5.0,1471.126084623393,2.0,1.0,phase_3,,,,,98.0,2.0,294.0,49.0,196.0,245.0,98.0,147.0,blue,cross
0.0,1.0,1.0,0.0,7.0,3.0,1864.4200431881472,2.0,1.0,phase_3,,,,,54.0,1.0,324.0,108.0,54.0,270.0,162.0,216.0,yellow,diamond
0.0,3.0,3.0,0.0,7.0,4.0,1631.0467583243735,2.0,1.0,phase_3,,,,,156.0,4.0,195.0,117.0,39.0,156.0,234.0,78.0,magenta,hexagon
0.0,5.0,1.0,1.0,7.0,4.0,1811.65584246628,2.0,1.0,phase_3,,,,,54.0,1.0,108.0,162.0,216.0,54.0,270.0,324.0,cyan,triangle
0.0,2.0,2.0,0.0,7.0,1.0,1711.0859187087044,2.0,1.0,phase_3,,,,,68.0,2.0,68.0,170.0,34.0,102.0,136.0,204.0,green,I
0.0,6.0,2.0,1.0,7.0,3.0,1824.5026000076905,2.0,1.0,phase_3,,,,,98.0,2.0,245.0,294.0,98.0,49.0,196.0,147.0,blue,cross
0.0,8.0,4.0,1.0,7.0,3.0,1554.9781961599365,2.0,1.0,phase_3,,,,,204.0,6.0,170.0,102.0,204.0,68.0,34.0,136.0,orange,flipped triangle
0.0,6.0,2.0,1.0,7.0,5.0,2393.9831419847906,3.0,1.0,phase_3,,,,,102.0,3.0,34.0,170.0,68.0,204.0,102.0,136.0,blue,cross
0.0,7.0,3.0,1.0,7.0,3.0,1473.2997210230678,3.0,1.0,phase_3,,,,,39.0,1.0,234.0,117.0,39.0,78.0,195.0,156.0,white,square
0.0,8.0,4.0,1.0,7.0,3.0,1607.957586296834,3.0,1.0,phase_3,,,,,245.0,5.0,98.0,196.0,245.0,294.0,147.0,49.0,orange,flipped triangle
0.0,5.0,1.0,1.0,7.0,4.0,1586.4090350805782,3.0,1.0,phase_3,,,,,54.0,1.0,270.0,324.0,108.0,54.0,216.0,162.0,cyan,triangle
0.0,8.0,4.0,1.0,7.0,1.0,2014.5526908454485,3.0,1.0,phase_3,,,,,264.0,6.0,264.0,44.0,132.0,88.0,176.0,220.0,orange,flipped triangle
0.0,4.0,4.0,0.0,7.0,3.0,2071.776517899707,3.0,1.0,phase_3,,,,,204.0,6.0,136.0,34.0,204.0,68.0,170.0,102.0,gray,circle
0.0,2.0,2.0,0.0,7.0,1.0,2592.619957285933,3.0,1.0,phase_3,,,,,78.0,2.0,78.0,234.0,39.0,117.0,195.0,156.0,green,I
0.0,2.0,2.0,0.0,7.0,4.0,2368.3257604716346,3.0,1.0,phase_3,,,,,49.0,1.0,98.0,294.0,245.0,49.0,147.0,196.0,green,I
0.0,7.0,3.0,1.0,7.0,6.0,1883.805224613752,3.0,1.0,phase_3,,,,,44.0,1.0,88.0,264.0,132.0,176.0,220.0,44.0,white,square
0.0,6.0,2.0,1.0,7.0,6.0,2436.472840141505,3.0,1.0,phase_3,,,,,78.0,2.0,39.0,195.0,117.0,234.0,156.0,78.0,blue,cross
0.0,3.0,3.0,0.0,7.0,5.0,2135.770229971968,3.0,1.0,phase_3,,,,,132.0,3.0,176.0,88.0,220.0,44.0,132.0,264.0,magenta,hexagon
0.0,8.0,4.0,1.0,7.0,6.0,2124.2525205598213,3.0,1.0,phase_3,,,,,270.0,5.0,54.0,324.0,216.0,162.0,108.0,270.0,orange,flipped triangle
0.0,8.0,4.0,1.0,7.0,1.0,1855.3062346181832,3.0,1.0,phase_3,,,,,264.0,6.0,264.0,88.0,176.0,220.0,132.0,44.0,orange,flipped triangle
0.0,2.0,2.0,0.0,7.0,3.0,2307.313147583045,3.0,1.0,phase_3,,,,,108.0,2.0,270.0,162.0,108.0,324.0,54.0,216.0,green,I
0.0,7.0,3.0,1.0,7.0,4.0,2262.4251695815474,3.0,1.0,phase_3,,,,,49.0,1.0,245.0,98.0,147.0,49.0,196.0,294.0,white,square
0.0,5.0,1.0,1.0,7.0,6.0,1791.2474962649867,3.0,1.0,phase_3,,,,,39.0,1.0,78.0,117.0,156.0,195.0,234.0,39.0,cyan,triangle
0.0,3.0,3.0,0.0,7.0,4.0,3029.722414794378,3.0,1.0,phase_3,,,,,147.0,3.0,294.0,196.0,245.0,147.0,49.0,98.0,magenta,hexagon
0.0,7.0,3.0,1.0,7.0,4.0,3256.988617999013,3.0,1.0,phase_3,,,,,54.0,1.0,108.0,324.0,162.0,54.0,270.0,216.0,white,square
0.0,7.0,3.0,1.0,7.0,5.0,2053.176535177045,3.0,1.0,phase_3,,,,,54.0,1.0,108.0,270.0,216.0,324.0,54.0,162.0,white,square
0.0,5.0,1.0,1.0,7.0,4.0,1626.1671353131533,3.0,1.0,phase_3,,,,,34.0,1.0,102.0,136.0,68.0,34.0,170.0,204.0,cyan,triangle
0.0,3.0,3.0,0.0,7.0,5.0,2135.912908124737,4.0,1.0,phase_3,,,,,147.0,3.0,245.0,196.0,98.0,49.0,147.0,294.0,magenta,hexagon
0.0,1.0,1.0,0.0,7.0,1.0,1923.432155395858,4.0,1.0,phase_3,,,,,102.0,3.0,102.0,170.0,34.0,204.0,136.0,68.0,yellow,diamond
0.0,6.0,2.0,1.0,7.0,4.0,1880.1543091540225,4.0,1.0,phase_3,,,,,108.0,2.0,324.0,270.0,54.0,108.0,162.0,216.0,blue,cross
0.0,6.0,2.0,1.0,7.0,4.0,1215.318800706882,4.0,1.0,phase_3,,,,,88.0,2.0,264.0,220.0,44.0,88.0,176.0,132.0,blue,cross
0.0,4.0,4.0,0.0,7.0,3.0,1599.246353318449,4.0,1.0,phase_3,,,,,204.0,6.0,170.0,136.0,204.0,102.0,34.0,68.0,gray,circle
0.0,1.0,1.0,0.0,7.0,2.0,1602.3235245374965,4.0,1.0,phase_3,,,,,108.0,2.0,324.0,108.0,270.0,54.0,216.0,162.0,yellow,diamond
0.0,1.0,1.0,0.0,7.0,2.0,1805.678510165308,4.0,1.0,phase_3,,,,,102.0,3.0,136.0,102.0,204.0,170.0,34.0,68.0,yellow,diamond
0.0,5.0,1.0,1.0,7.0,6.0,2099.103046581149,4.0,1.0,phase_3,,,,,49.0,1.0,196.0,245.0,294.0,147.0,98.0,49.0,cyan,triangle
0.0,1.0,1.0,0.0,7.0,4.0,3100.7267985260114,4.0,1.0,phase_3,,,,,49.0,1.0,147.0,98.0,294.0,49.0,196.0,245.0,yellow,diamond
0.0,3.0,3.0,0.0,7.0,1.0,2101.537915354129,4.0,1.0,phase_3,,,,,136.0,4.0,136.0,170.0,34.0,102.0,204.0,68.0,magenta,hexagon
0.0,4.0,4.0,0.0,7.0,3.0,1650.9853507159278,4.0,1.0,phase_3,,,,,220.0,5.0,44.0,88.0,220.0,132.0,264.0,176.0,gray,circle
0.0,5.0,1.0,1.0,7.0,1.0,2159.360960184131,4.0,1.0,phase_3,,,,,49.0,1.0,49.0,147.0,98.0,294.0,196.0,245.0,cyan,triangle
0.0,2.0,2.0,0.0,7.0,3.0,2903.811263618991,4.0,1.0,phase_3,,,,,54.0,1.0,108.0,270.0,54.0,216.0,324.0,162.0,green,I
0.0,6.0,2.0,1.0,7.0,5.0,2465.1514037395827,4.0,1.0,phase_3,,,,,108.0,2.0,216.0,162.0,54.0,324.0,108.0,270.0,blue,cross
0.0,8.0,4.0,1.0,7.0,3.0,1959.707966831047,4.0,1.0,phase_3,,,,,270.0,5.0,216.0,162.0,270.0,324.0,54.0,108.0,orange,flipped triangle
0.0,4.0,4.0,0.0,7.0,1.0,2040.35100270994,4.0,1.0,phase_3,,,,,294.0,6.0,294.0,196.0,245.0,147.0,98.0,49.0,gray,circle
0.0,3.0,3.0,0.0,7.0,2.0,2895.7479418604635,4.0,1.0,phase_3,,,,,108.0,2.0,216.0,108.0,162.0,270.0,324.0,54.0,magenta,hexagon
0.0,2.0,2.0,0.0,7.0,6.0,2153.720767761115,4.0,1.0,phase_3,,,,,78.0,2.0,234.0,39.0,156.0,117.0,195.0,78.0,green,I
0.0,7.0,3.0,1.0,7.0,5.0,1390.8489687019028,4.0,1.0,phase_3,,,,,68.0,2.0,34.0,102.0,204.0,170.0,68.0,136.0,white,square
0.0,2.0,2.0,0.0,7.0,2.0,1919.646215334069,4.0,1.0,phase_3,,,,,88.0,2.0,220.0,88.0,176.0,264.0,44.0,132.0,green,I
