raw_reward_magnitude,stim_reward,stepwise_reward_magnitude,paired_with_stopping,quadrant,response,reaction_time,block,num_trial_presentations,which_part,stop_signal_trial_type,left_SSD,right_SSD,accuracy,chosen_bidding_amount,chosen_bidding_level,possible_bid_1,possible_bid_2,possible_bid_3,possible_bid_4,possible_bid_5,possible_bid_6,color_text,shape_text
197.0,3.0,3.0,0.0,2.0,2.0,428.8813557759567,1.0,1.0,part_1,,,,,,,,,,,,,yellow,diamond
201.0,7.0,3.0,1.0,2.0,2.0,373.8225031556794,1.0,1.0,part_1,,,,,,,,,,,,,gray,square
0.0,8.0,0.0,1.0,1.0,1.0,430.1569691560871,1.0,1.0,part_1,,,,,,,,,,,,,green,triangle
65.0,1.0,1.0,0.0,4.0,4.0,317.3715273105699,1.0,1.0,part_1,,,,,,,,,,,,,orange,flipped triangle
121.0,6.0,2.0,1.0,4.0,4.0,352.1394354647782,1.0,1.0,part_1,,,,,,,,,,,,,magenta,circle
43.0,5.0,1.0,1.0,3.0,3.0,364.7878034653331,1.0,1.0,part_1,,,,,,,,,,,,,cyan,I
391.0,8.0,4.0,1.0,3.0,3.0,353.1919094657496,1.0,1.0,part_1,,,,,,,,,,,,,green,triangle
67.0,1.0,1.0,0.0,1.0,1.0,365.40241162038,1.0,1.0,part_1,,,,,,,,,,,,,orange,flipped triangle
182.0,3.0,3.0,0.0,1.0,1.0,343.3232614652297,1.0,1.0,part_1,,,,,,,,,,,,,yellow,diamond
194.0,7.0,3.0,1.0,2.0,2.0,310.8840761551619,1.0,1.0,part_1,,,,,,,,,,,,,gray,square
0.0,1.0,0.0,0.0,3.0,3.0,231.4719913101726,1.0,1.0,part_1,,,,,,,,,,,,,orange,flipped triangle
381.0,8.0,4.0,1.0,2.0,2.0,357.1257716203035,1.0,1.0,part_1,,,,,,,,,,,,,green,triangle
390.0,8.0,4.0,1.0,2.0,2.0,357.0722901549743,1.0,1.0,part_1,,,,,,,,,,,,,green,triangle
416.0,4.0,4.0,0.0,3.0,3.0,313.181116155647,1.0,1.0,part_1,,,,,,,,,,,,,blue,hexagon
0.0,6.0,0.0,1.0,4.0,4.0,335.1528183102346,1.0,1.0,part_1,,,,,,,,,,,,,magenta,circle
182.0,7.0,3.0,1.0,4.0,4.0,437.6045093104039,1.0,2.0,part_1,,,,,,,,,,,,,gray,square
411.0,4.0,4.0,0.0,1.0,1.0,371.396057241327,1.0,1.0,part_1,,,,,,,,,,,,,blue,hexagon
0.0,8.0,0.0,1.0,3.0,3.0,359.0553986205123,1.0,1.0,part_1,,,,,,,,,,,,,green,triangle
110.0,6.0,2.0,1.0,2.0,2.0,304.482008155901,1.0,1.0,part_1,,,,,,,,,,,,,magenta,circle
424.0,4.0,4.0,0.0,1.0,1.0,440.4301330860107,1.0,1.0,part_1,,,,,,,,,,,,,blue,hexagon
86.0,2.0,2.0,0.0,1.0,1.0,418.7183266203647,1.0,1.0,part_1,,,,,,,,,,,,,white,cross
0.0,7.0,0.0,1.0,4.0,4.0,328.5331454653715,1.0,1.0,part_1,,,,,,,,,,,,,gray,square
106.0,2.0,2.0,0.0,3.0,3.0,396.798467240842,1.0,1.0,part_1,,,,,,,,,,,,,white,cross
95.0,6.0,2.0,1.0,1.0,1.0,284.6216101552272,1.0,1.0,part_1,,,,,,,,,,,,,magenta,circle
0.0,3.0,0.0,0.0,2.0,2.0,307.7071556199371,1.0,1.0,part_1,,,,,,,,,,,,,yellow,diamond
78.0,2.0,2.0,0.0,3.0,3.0,489.340882464603,1.0,1.0,part_1,,,,,,,,,,,,,white,cross
179.0,7.0,3.0,1.0,4.0,4.0,353.6929291558408,1.0,1.0,part_1,,,,,,,,,,,,,gray,square
47.0,5.0,1.0,1.0,3.0,3.0,332.7983633107578,1.0,1.0,part_1,,,,,,,,,,,,,cyan,I
54.0,5.0,1.0,1.0,2.0,2.0,311.1952319304691,1.0,1.0,part_1,,,,,,,,,,,,,cyan,I
116.0,2.0,2.0,0.0,4.0,4.0,389.4166854652212,1.0,1.0,part_1,,,,,,,,,,,,,white,cross
189.0,7.0,3.0,1.0,4.0,4.0,479.3110923101267,1.0,1.0,part_1,,,,,,,,,,,,,gray,square
99.0,2.0,2.0,0.0,4.0,4.0,458.7555451553271,1.0,1.0,part_1,,,,,,,,,,,,,white,cross
383.0,8.0,4.0,1.0,1.0,1.0,527.1537749995332,1.0,1.0,part_1,,,,,,,,,,,,,green,triangle
390.0,4.0,4.0,0.0,4.0,4.0,684.319788085304,1.0,1.0,part_1,,,,,,,,,,,,,blue,hexagon
0.0,1.0,0.0,0.0,4.0,4.0,628.4341234650128,1.0,1.0,part_1,,,,,,,,,,,,,orange,flipped triangle
31.0,1.0,1.0,0.0,4.0,4.0,404.1708927752552,1.0,1.0,part_1,,,,,,,,,,,,,orange,flipped triangle
376.0,8.0,4.0,1.0,2.0,2.0,416.6981579310231,1.0,1.0,part_1,,,,,,,,,,,,,green,triangle
43.0,1.0,1.0,0.0,3.0,3.0,268.8243794646041,1.0,1.0,part_1,,,,,,,,,,,,,orange,flipped triangle
386.0,8.0,4.0,1.0,1.0,1.0,361.5679221547907,1.0,1.0,part_1,,,,,,,,,,,,,green,triangle
45.0,5.0,1.0,1.0,3.0,3.0,304.4636994645771,1.0,1.0,part_1,,,,,,,,,,,,,cyan,I
196.0,7.0,3.0,1.0,1.0,1.0,363.0193520857574,1.0,1.0,part_1,,,,,,,,,,,,,gray,square
110.0,2.0,2.0,0.0,3.0,3.0,328.0641839319287,1.0,1.0,part_1,,,,,,,,,,,,,white,cross
32.0,5.0,1.0,1.0,1.0,1.0,284.3849271557701,1.0,1.0,part_1,,,,,,,,,,,,,cyan,I
79.0,2.0,2.0,0.0,1.0,1.0,273.1844281552185,1.0,1.0,part_1,,,,,,,,,,,,,white,cross
31.0,5.0,1.0,1.0,4.0,4.0,340.7173524647078,1.0,1.0,part_1,,,,,,,,,,,,,cyan,I
403.0,8.0,4.0,1.0,2.0,2.0,410.2892809314653,1.0,1.0,part_1,,,,,,,,,,,,,green,triangle
189.0,7.0,3.0,1.0,3.0,3.0,319.7684087763264,1.0,1.0,part_1,,,,,,,,,,,,,gray,square
80.0,6.0,2.0,1.0,1.0,1.0,333.1429760855826,1.0,1.0,part_1,,,,,,,,,,,,,magenta,circle
176.0,3.0,3.0,0.0,2.0,2.0,377.0803871548196,1.0,1.0,part_1,,,,,,,,,,,,,yellow,diamond
391.0,8.0,4.0,1.0,3.0,3.0,321.1482573105968,1.0,1.0,part_1,,,,,,,,,,,,,green,triangle
384.0,4.0,4.0,0.0,2.0,2.0,333.6979096202412,1.0,1.0,part_1,,,,,,,,,,,,,blue,hexagon
414.0,8.0,4.0,1.0,4.0,4.0,390.9626026206751,1.0,1.0,part_1,,,,,,,,,,,,,green,triangle
27.0,1.0,1.0,0.0,3.0,3.0,368.311103619817,1.0,1.0,part_1,,,,,,,,,,,,,orange,flipped triangle
115.0,6.0,2.0,1.0,1.0,1.0,503.6539082402669,1.0,1.0,part_1,,,,,,,,,,,,,magenta,circle
113.0,6.0,2.0,1.0,3.0,3.0,380.1266029304315,1.0,1.0,part_1,,,,,,,,,,,,,magenta,circle
381.0,4.0,4.0,0.0,4.0,4.0,369.886446154851,1.0,1.0,part_1,,,,,,,,,,,,,blue,hexagon
211.0,7.0,3.0,1.0,2.0,2.0,370.668667085738,1.0,1.0,part_1,,,,,,,,,,,,,gray,square
215.0,7.0,3.0,1.0,4.0,4.0,325.0352039312929,1.0,1.0,part_1,,,,,,,,,,,,,gray,square
119.0,2.0,2.0,0.0,2.0,2.0,338.9341733109177,1.0,1.0,part_1,,,,,,,,,,,,,white,cross
412.0,8.0,4.0,1.0,2.0,2.0,338.5480186198037,1.0,1.0,part_1,,,,,,,,,,,,,green,triangle
0.0,8.0,0.0,1.0,1.0,1.0,495.8952808447066,1.0,1.0,part_1,,,,,,,,,,,,,green,triangle
96.0,2.0,2.0,0.0,3.0,3.0,407.4733324650879,1.0,1.0,part_1,,,,,,,,,,,,,white,cross
36.0,1.0,1.0,0.0,2.0,2.0,295.2722186209939,1.0,1.0,part_1,,,,,,,,,,,,,orange,flipped triangle
201.0,7.0,3.0,1.0,4.0,4.0,487.3905346203173,1.0,1.0,part_1,,,,,,,,,,,,,gray,square
41.0,1.0,1.0,0.0,3.0,3.0,363.5474547754711,1.0,1.0,part_1,,,,,,,,,,,,,orange,flipped triangle
204.0,3.0,3.0,0.0,3.0,3.0,386.8162346198005,1.0,1.0,part_1,,,,,,,,,,,,,yellow,diamond
0.0,2.0,0.0,0.0,2.0,2.0,332.10004762077,1.0,1.0,part_1,,,,,,,,,,,,,white,cross
80.0,6.0,2.0,1.0,4.0,4.0,444.6144211551655,1.0,1.0,part_1,,,,,,,,,,,,,magenta,circle
121.0,2.0,2.0,0.0,4.0,4.0,422.5110820852933,1.0,1.0,part_1,,,,,,,,,,,,,white,cross
0.0,4.0,0.0,0.0,2.0,2.0,343.822651310802,1.0,1.0,part_1,,,,,,,,,,,,,blue,hexagon
118.0,6.0,2.0,1.0,4.0,4.0,333.0362707756649,1.0,1.0,part_1,,,,,,,,,,,,,magenta,circle
404.0,4.0,4.0,0.0,4.0,4.0,445.9482079309964,1.0,1.0,part_1,,,,,,,,,,,,,blue,hexagon
82.0,6.0,2.0,1.0,4.0,4.0,435.681937240588,1.0,2.0,part_1,,,,,,,,,,,,,magenta,circle
0.0,4.0,0.0,0.0,3.0,3.0,425.8153474656865,1.0,1.0,part_1,,,,,,,,,,,,,blue,hexagon
0.0,3.0,0.0,0.0,4.0,4.0,335.554877310642,1.0,1.0,part_1,,,,,,,,,,,,,yellow,diamond
64.0,5.0,1.0,1.0,3.0,3.0,302.4038201556323,1.0,1.0,part_1,,,,,,,,,,,,,cyan,I
67.0,5.0,1.0,1.0,4.0,4.0,279.8908742406638,1.0,1.0,part_1,,,,,,,,,,,,,cyan,I
78.0,6.0,2.0,1.0,4.0,4.0,404.2825703963899,1.0,1.0,part_1,,,,,,,,,,,,,magenta,circle
0.0,3.0,0.0,0.0,2.0,2.0,438.7707014648185,1.0,1.0,part_1,,,,,,,,,,,,,yellow,diamond
0.0,3.0,0.0,0.0,3.0,3.0,406.1109029316867,1.0,1.0,part_1,,,,,,,,,,,,,yellow,diamond
51.0,5.0,1.0,1.0,2.0,2.0,329.4181423107147,1.0,1.0,part_1,,,,,,,,,,,,,cyan,I
74.0,5.0,1.0,1.0,4.0,4.0,295.9160716200131,1.0,1.0,part_1,,,,,,,,,,,,,cyan,I
82.0,2.0,2.0,0.0,2.0,2.0,397.4221541557199,1.0,1.0,part_1,,,,,,,,,,,,,white,cross
0.0,7.0,0.0,1.0,1.0,1.0,509.45215093179286,1.0,1.0,part_1,,,,,,,,,,,,,gray,square
403.0,4.0,4.0,0.0,1.0,1.0,499.8630936206609,1.0,1.0,part_1,,,,,,,,,,,,,blue,hexagon
397.0,4.0,4.0,0.0,4.0,4.0,375.8431547757936,1.0,1.0,part_1,,,,,,,,,,,,,blue,hexagon
85.0,6.0,2.0,1.0,4.0,4.0,365.8722729305736,1.0,1.0,part_1,,,,,,,,,,,,,magenta,circle
379.0,4.0,4.0,0.0,3.0,3.0,399.6697937764111,1.0,1.0,part_1,,,,,,,,,,,,,blue,hexagon
196.0,3.0,3.0,0.0,1.0,1.0,501.7876876208902,1.0,1.0,part_1,,,,,,,,,,,,,yellow,diamond
214.0,3.0,3.0,0.0,2.0,2.0,334.1284536199964,1.0,1.0,part_1,,,,,,,,,,,,,yellow,diamond
199.0,3.0,3.0,0.0,4.0,4.0,357.3745679314015,1.0,1.0,part_1,,,,,,,,,,,,,yellow,diamond
222.0,7.0,3.0,1.0,4.0,4.0,559.8366429303496,1.0,1.0,part_1,,,,,,,,,,,,,gray,square
384.0,8.0,4.0,1.0,1.0,1.0,559.7944697756247,1.0,1.0,part_1,,,,,,,,,,,,,green,triangle
211.0,3.0,3.0,0.0,1.0,1.0,459.7721610862209,1.0,1.0,part_1,,,,,,,,,,,,,yellow,diamond
27.0,5.0,1.0,1.0,1.0,1.0,447.5991177750984,1.0,1.0,part_1,,,,,,,,,,,,,cyan,I
33.0,5.0,1.0,1.0,3.0,3.0,469.7769690856148,1.0,1.0,part_1,,,,,,,,,,,,,cyan,I
379.0,8.0,4.0,1.0,3.0,3.0,504.51013815472834,1.0,1.0,part_1,,,,,,,,,,,,,green,triangle
190.0,7.0,3.0,1.0,3.0,3.0,449.0824024651374,1.0,1.0,part_1,,,,,,,,,,,,,gray,square
0.0,1.0,0.0,0.0,4.0,4.0,382.1893980848472,1.0,1.0,part_1,,,,,,,,,,,,,orange,flipped triangle
55.0,5.0,1.0,1.0,2.0,2.0,315.2628957750494,1.0,1.0,part_1,,,,,,,,,,,,,cyan,I
0.0,1.0,0.0,0.0,4.0,4.0,364.1892093100978,2.0,1.0,part_1,,,,,,,,,,,,,orange,flipped triangle
398.0,4.0,4.0,0.0,4.0,4.0,318.8838379310255,2.0,1.0,part_1,,,,,,,,,,,,,blue,hexagon
0.0,5.0,0.0,1.0,3.0,3.0,320.534868620598,2.0,1.0,part_1,,,,,,,,,,,,,cyan,I
0.0,6.0,0.0,1.0,4.0,4.0,264.5805816200663,2.0,1.0,part_1,,,,,,,,,,,,,magenta,circle
211.0,3.0,3.0,0.0,3.0,3.0,264.7480527757579,2.0,1.0,part_1,,,,,,,,,,,,,yellow,diamond
380.0,8.0,4.0,1.0,4.0,4.0,219.6241399315113,2.0,1.0,part_1,,,,,,,,,,,,,green,triangle
391.0,4.0,4.0,0.0,3.0,3.0,310.1474848454018,2.0,1.0,part_1,,,,,,,,,,,,,blue,hexagon
101.0,2.0,2.0,0.0,4.0,4.0,356.2456790004944,2.0,1.0,part_1,,,,,,,,,,,,,white,cross
114.0,2.0,2.0,0.0,4.0,4.0,313.4728383110996,2.0,1.0,part_1,,,,,,,,,,,,,white,cross
378.0,4.0,4.0,0.0,2.0,2.0,347.091153465044,2.0,2.0,part_1,,,,,,,,,,,,,blue,hexagon
0.0,5.0,0.0,1.0,2.0,2.0,337.6311260853981,2.0,1.0,part_1,,,,,,,,,,,,,cyan,I
82.0,2.0,2.0,0.0,1.0,1.0,257.8696000755371,2.0,1.0,part_1,,,,,,,,,,,,,white,cross
46.0,1.0,1.0,0.0,2.0,2.0,337.6245281560841,2.0,1.0,part_1,,,,,,,,,,,,,orange,flipped triangle
47.0,1.0,1.0,0.0,3.0,3.0,314.2940997759069,2.0,1.0,part_1,,,,,,,,,,,,,orange,flipped triangle
390.0,4.0,4.0,0.0,3.0,3.0,361.3452924655576,2.0,1.0,part_1,,,,,,,,,,,,,blue,hexagon
398.0,8.0,4.0,1.0,3.0,3.0,507.7298003106989,2.0,1.0,part_1,,,,,,,,,,,,,green,triangle
221.0,7.0,3.0,1.0,2.0,2.0,542.0249024646182,2.0,1.0,part_1,,,,,,,,,,,,,gray,square
421.0,4.0,4.0,0.0,2.0,2.0,419.4297943104175,2.0,1.0,part_1,,,,,,,,,,,,,blue,hexagon
0.0,5.0,0.0,1.0,4.0,4.0,475.1201704648338,2.0,1.0,part_1,,,,,,,,,,,,,cyan,I
0.0,8.0,0.0,1.0,3.0,3.0,431.2550119311709,2.0,1.0,part_1,,,,,,,,,,,,,green,triangle
31.0,5.0,1.0,1.0,2.0,2.0,320.8855001548727,2.0,1.0,part_1,,,,,,,,,,,,,cyan,I
63.0,5.0,1.0,1.0,2.0,2.0,422.113601311139,2.0,1.0,part_1,,,,,,,,,,,,,cyan,I
222.0,3.0,3.0,0.0,1.0,1.0,399.9157421549171,2.0,1.0,part_1,,,,,,,,,,,,,yellow,diamond
66.0,1.0,1.0,0.0,2.0,2.0,410.3724037759093,2.0,1.0,part_1,,,,,,,,,,,,,orange,flipped triangle
411.0,8.0,4.0,1.0,4.0,4.0,377.4365801555177,2.0,1.0,part_1,,,,,,,,,,,,,green,triangle
190.0,3.0,3.0,0.0,3.0,3.0,478.4923797760712,2.0,1.0,part_1,,,,,,,,,,,,,yellow,diamond
115.0,6.0,2.0,1.0,2.0,2.0,334.5904904654162,2.0,1.0,part_1,,,,,,,,,,,,,magenta,circle
0.0,3.0,0.0,0.0,1.0,1.0,491.4067824647645,2.0,1.0,part_1,,,,,,,,,,,,,yellow,diamond
211.0,7.0,3.0,1.0,3.0,3.0,367.6497283104254,2.0,1.0,part_1,,,,,,,,,,,,,gray,square
65.0,5.0,1.0,1.0,4.0,4.0,403.1894994650429,2.0,1.0,part_1,,,,,,,,,,,,,cyan,I
211.0,7.0,3.0,1.0,1.0,1.0,427.0669233110311,2.0,1.0,part_1,,,,,,,,,,,,,gray,square
201.0,3.0,3.0,0.0,2.0,2.0,403.5819641549096,2.0,1.0,part_1,,,,,,,,,,,,,yellow,diamond
31.0,1.0,1.0,0.0,1.0,1.0,473.1520883105986,2.0,1.0,part_1,,,,,,,,,,,,,orange,flipped triangle
384.0,4.0,4.0,0.0,2.0,2.0,337.8302274650195,2.0,1.0,part_1,,,,,,,,,,,,,blue,hexagon
0.0,6.0,0.0,1.0,1.0,1.0,484.6347679476821,2.0,1.0,part_1,,,,,,,,,,,,,magenta,circle
115.0,2.0,2.0,0.0,2.0,2.0,305.9339213104977,2.0,1.0,part_1,,,,,,,,,,,,,white,cross
0.0,2.0,0.0,0.0,4.0,4.0,396.1690275509681,2.0,1.0,part_1,,,,,,,,,,,,,white,cross
179.0,7.0,3.0,1.0,4.0,4.0,385.9680534815197,2.0,1.0,part_1,,,,,,,,,,,,,gray,square
63.0,5.0,1.0,1.0,3.0,3.0,442.1802449478491,2.0,1.0,part_1,,,,,,,,,,,,,cyan,I
0.0,4.0,0.0,0.0,1.0,1.0,487.5020207946363,2.0,1.0,part_1,,,,,,,,,,,,,blue,hexagon
422.0,4.0,4.0,0.0,2.0,2.0,444.3634816198027,2.0,1.0,part_1,,,,,,,,,,,,,blue,hexagon
187.0,3.0,3.0,0.0,1.0,1.0,544.293333465248,2.0,1.0,part_1,,,,,,,,,,,,,yellow,diamond
200.0,7.0,3.0,1.0,2.0,2.0,488.352748609941,2.0,1.0,part_1,,,,,,,,,,,,,gray,square
63.0,1.0,1.0,0.0,2.0,2.0,466.2621489314915,2.0,1.0,part_1,,,,,,,,,,,,,orange,flipped triangle
55.0,1.0,1.0,0.0,1.0,1.0,422.2565311556536,2.0,1.0,part_1,,,,,,,,,,,,,orange,flipped triangle
103.0,2.0,2.0,0.0,1.0,1.0,467.5859144654168,2.0,1.0,part_1,,,,,,,,,,,,,white,cross
0.0,8.0,0.0,1.0,3.0,3.0,424.2728324643394,2.0,1.0,part_1,,,,,,,,,,,,,green,triangle
221.0,3.0,3.0,0.0,3.0,3.0,456.7119329312845,2.0,1.0,part_1,,,,,,,,,,,,,yellow,diamond
221.0,3.0,3.0,0.0,4.0,4.0,413.5080296200613,2.0,1.0,part_1,,,,,,,,,,,,,yellow,diamond
0.0,2.0,0.0,0.0,4.0,4.0,414.6758559309091,2.0,1.0,part_1,,,,,,,,,,,,,white,cross
390.0,8.0,4.0,1.0,1.0,1.0,515.3789487758331,2.0,1.0,part_1,,,,,,,,,,,,,green,triangle
392.0,4.0,4.0,0.0,3.0,3.0,493.3437707759367,2.0,1.0,part_1,,,,,,,,,,,,,blue,hexagon
96.0,6.0,2.0,1.0,2.0,2.0,482.3670481555382,2.0,1.0,part_1,,,,,,,,,,,,,magenta,circle
201.0,3.0,3.0,0.0,3.0,3.0,505.829044620441,2.0,1.0,part_1,,,,,,,,,,,,,yellow,diamond
33.0,1.0,1.0,0.0,2.0,2.0,304.3400951555668,2.0,1.0,part_1,,,,,,,,,,,,,orange,flipped triangle
73.0,1.0,1.0,0.0,2.0,2.0,282.4799737754802,2.0,1.0,part_1,,,,,,,,,,,,,orange,flipped triangle
179.0,3.0,3.0,0.0,4.0,4.0,328.9402468444677,2.0,1.0,part_1,,,,,,,,,,,,,yellow,diamond
215.0,3.0,3.0,0.0,2.0,2.0,305.1318721554708,2.0,1.0,part_1,,,,,,,,,,,,,yellow,diamond
0.0,1.0,0.0,0.0,4.0,4.0,317.3387823962912,2.0,1.0,part_1,,,,,,,,,,,,,orange,flipped triangle
211.0,3.0,3.0,0.0,2.0,2.0,306.5577243960433,2.0,1.0,part_1,,,,,,,,,,,,,yellow,diamond
114.0,6.0,2.0,1.0,1.0,1.0,274.1166681553295,2.0,1.0,part_1,,,,,,,,,,,,,magenta,circle
398.0,8.0,4.0,1.0,3.0,3.0,331.4220102411127,2.0,1.0,part_1,,,,,,,,,,,,,green,triangle
182.0,3.0,3.0,0.0,4.0,4.0,297.6401672412976,2.0,1.0,part_1,,,,,,,,,,,,,yellow,diamond
57.0,5.0,1.0,1.0,4.0,4.0,366.301058240424,2.0,1.0,part_1,,,,,,,,,,,,,cyan,I
421.0,4.0,4.0,0.0,1.0,1.0,343.702744775328,2.0,1.0,part_1,,,,,,,,,,,,,blue,hexagon
69.0,1.0,1.0,0.0,2.0,2.0,401.2372113102174,2.0,1.0,part_1,,,,,,,,,,,,,orange,flipped triangle
0.0,7.0,0.0,1.0,2.0,2.0,467.7325283100799,2.0,1.0,part_1,,,,,,,,,,,,,gray,square
82.0,6.0,2.0,1.0,3.0,3.0,490.6348891554444,2.0,1.0,part_1,,,,,,,,,,,,,magenta,circle
60.0,1.0,1.0,0.0,1.0,1.0,267.6799470855258,2.0,1.0,part_1,,,,,,,,,,,,,orange,flipped triangle
424.0,8.0,4.0,1.0,1.0,1.0,401.8242724650918,2.0,1.0,part_1,,,,,,,,,,,,,green,triangle
125.0,6.0,2.0,1.0,4.0,4.0,334.5285014647743,2.0,1.0,part_1,,,,,,,,,,,,,magenta,circle
176.0,7.0,3.0,1.0,4.0,4.0,382.1517411552122,2.0,1.0,part_1,,,,,,,,,,,,,gray,square
424.0,8.0,4.0,1.0,4.0,4.0,359.224081931643,2.0,1.0,part_1,,,,,,,,,,,,,green,triangle
97.0,6.0,2.0,1.0,2.0,2.0,370.2658263109697,2.0,1.0,part_1,,,,,,,,,,,,,magenta,circle
412.0,4.0,4.0,0.0,2.0,2.0,405.4001843114747,2.0,1.0,part_1,,,,,,,,,,,,,blue,hexagon
52.0,5.0,1.0,1.0,2.0,2.0,339.1540917764359,2.0,1.0,part_1,,,,,,,,,,,,,cyan,I
211.0,7.0,3.0,1.0,4.0,4.0,495.9725327762498,2.0,1.0,part_1,,,,,,,,,,,,,gray,square
424.0,4.0,4.0,0.0,4.0,4.0,315.7182230852413,2.0,1.0,part_1,,,,,,,,,,,,,blue,hexagon
407.0,8.0,4.0,1.0,2.0,2.0,361.5792822411094,2.0,1.0,part_1,,,,,,,,,,,,,green,triangle
0.0,6.0,0.0,1.0,1.0,1.0,385.3573863107158,2.0,1.0,part_1,,,,,,,,,,,,,magenta,circle
219.0,7.0,3.0,1.0,3.0,3.0,353.1520713104328,2.0,1.0,part_1,,,,,,,,,,,,,gray,square
99.0,6.0,2.0,1.0,3.0,3.0,396.7584260853982,2.0,1.0,part_1,,,,,,,,,,,,,magenta,circle
0.0,8.0,0.0,1.0,1.0,1.0,477.6371280859166,2.0,1.0,part_1,,,,,,,,,,,,,green,triangle
419.0,4.0,4.0,0.0,1.0,1.0,444.240256240846,2.0,1.0,part_1,,,,,,,,,,,,,blue,hexagon
37.0,5.0,1.0,1.0,1.0,1.0,376.8528594655436,2.0,1.0,part_1,,,,,,,,,,,,,cyan,I
379.0,8.0,4.0,1.0,1.0,1.0,478.6984584643505,2.0,1.0,part_1,,,,,,,,,,,,,green,triangle
52.0,1.0,1.0,0.0,4.0,4.0,367.8601917763444,2.0,1.0,part_1,,,,,,,,,,,,,orange,flipped triangle
0.0,6.0,0.0,1.0,1.0,1.0,412.463335310349,2.0,1.0,part_1,,,,,,,,,,,,,magenta,circle
419.0,8.0,4.0,1.0,2.0,2.0,367.9896593112062,2.0,1.0,part_1,,,,,,,,,,,,,green,triangle
209.0,7.0,3.0,1.0,1.0,1.0,436.3910197735094,2.0,1.0,part_1,,,,,,,,,,,,,gray,square
0.0,3.0,0.0,0.0,1.0,1.0,379.3528704663913,2.0,1.0,part_1,,,,,,,,,,,,,yellow,diamond
187.0,7.0,3.0,1.0,3.0,3.0,581.9312830844865,2.0,1.0,part_1,,,,,,,,,,,,,gray,square
45.0,1.0,1.0,0.0,4.0,4.0,416.5872433113691,2.0,1.0,part_1,,,,,,,,,,,,,orange,flipped triangle
74.0,1.0,1.0,0.0,3.0,3.0,370.4652960859675,2.0,1.0,part_1,,,,,,,,,,,,,orange,flipped triangle
86.0,2.0,2.0,0.0,2.0,2.0,325.8260416223493,2.0,1.0,part_1,,,,,,,,,,,,,white,cross
414.0,4.0,4.0,0.0,3.0,3.0,347.8594214666373,2.0,1.0,part_1,,,,,,,,,,,,,blue,hexagon
0.0,4.0,0.0,0.0,3.0,3.0,383.5614057752536,2.0,1.0,part_1,,,,,,,,,,,,,blue,hexagon
379.0,4.0,4.0,0.0,4.0,4.0,249.230767311019,2.0,1.0,part_1,,,,,,,,,,,,,blue,hexagon
92.0,6.0,2.0,1.0,1.0,1.0,339.9932259999332,2.0,1.0,part_1,,,,,,,,,,,,,magenta,circle
406.0,4.0,4.0,0.0,2.0,2.0,318.6034843092784,2.0,1.0,part_1,,,,,,,,,,,,,blue,hexagon
72.0,1.0,1.0,0.0,3.0,3.0,519.4996104655729,3.0,1.0,part_1,,,,,,,,,,,,,orange,flipped triangle
0.0,7.0,0.0,1.0,1.0,1.0,418.6777943104971,3.0,1.0,part_1,,,,,,,,,,,,,gray,square
386.0,4.0,4.0,0.0,1.0,1.0,442.2399824670719,3.0,1.0,part_1,,,,,,,,,,,,,blue,hexagon
114.0,6.0,2.0,1.0,1.0,1.0,431.5606614673015,3.0,1.0,part_1,,,,,,,,,,,,,magenta,circle
211.0,3.0,3.0,0.0,2.0,2.0,263.4369217757921,3.0,1.0,part_1,,,,,,,,,,,,,yellow,diamond
0.0,7.0,0.0,1.0,4.0,4.0,421.1576007073745,3.0,1.0,part_1,,,,,,,,,,,,,gray,square
200.0,3.0,3.0,0.0,3.0,3.0,355.1492453098035,3.0,1.0,part_1,,,,,,,,,,,,,yellow,diamond
0.0,4.0,0.0,0.0,1.0,1.0,286.9666409296769,3.0,1.0,part_1,,,,,,,,,,,,,blue,hexagon
53.0,5.0,1.0,1.0,4.0,4.0,287.5148790844832,3.0,1.0,part_1,,,,,,,,,,,,,cyan,I
0.0,3.0,0.0,0.0,4.0,4.0,298.7645974662882,3.0,1.0,part_1,,,,,,,,,,,,,yellow,diamond
0.0,7.0,0.0,1.0,2.0,2.0,279.2741533958178,3.0,1.0,part_1,,,,,,,,,,,,,gray,square
107.0,2.0,2.0,0.0,4.0,4.0,243.6067493108566,3.0,1.0,part_1,,,,,,,,,,,,,white,cross
380.0,4.0,4.0,0.0,4.0,4.0,323.9083047737949,3.0,1.0,part_1,,,,,,,,,,,,,blue,hexagon
404.0,4.0,4.0,0.0,1.0,1.0,312.9100524656678,3.0,1.0,part_1,,,,,,,,,,,,,blue,hexagon
85.0,2.0,2.0,0.0,1.0,1.0,326.0170769317483,3.0,1.0,part_1,,,,,,,,,,,,,white,cross
86.0,6.0,2.0,1.0,1.0,1.0,279.8358601557993,3.0,1.0,part_1,,,,,,,,,,,,,magenta,circle
73.0,5.0,1.0,1.0,3.0,3.0,471.7279869291815,3.0,1.0,part_1,,,,,,,,,,,,,cyan,I
116.0,6.0,2.0,1.0,3.0,3.0,471.7024699293688,3.0,1.0,part_1,,,,,,,,,,,,,magenta,circle
0.0,7.0,0.0,1.0,4.0,4.0,507.3273673115182,3.0,1.0,part_1,,,,,,,,,,,,,gray,square
221.0,7.0,3.0,1.0,2.0,2.0,519.1040664649336,3.0,1.0,part_1,,,,,,,,,,,,,gray,square
404.0,8.0,4.0,1.0,3.0,3.0,453.1034130868647,3.0,2.0,part_1,,,,,,,,,,,,,green,triangle
0.0,5.0,0.0,1.0,3.0,3.0,361.787057156107,3.0,1.0,part_1,,,,,,,,,,,,,cyan,I
201.0,3.0,3.0,0.0,2.0,2.0,306.6215813105373,3.0,1.0,part_1,,,,,,,,,,,,,yellow,diamond
406.0,8.0,4.0,1.0,3.0,3.0,351.8516416206694,3.0,1.0,part_1,,,,,,,,,,,,,green,triangle
0.0,6.0,0.0,1.0,1.0,1.0,275.1023930850351,3.0,1.0,part_1,,,,,,,,,,,,,magenta,circle
0.0,5.0,0.0,1.0,2.0,2.0,297.8367072410037,3.0,1.0,part_1,,,,,,,,,,,,,cyan,I
411.0,8.0,4.0,1.0,2.0,2.0,309.3465757756348,3.0,1.0,part_1,,,,,,,,,,,,,green,triangle
401.0,8.0,4.0,1.0,3.0,3.0,366.0048701567575,3.0,1.0,part_1,,,,,,,,,,,,,green,triangle
207.0,7.0,3.0,1.0,1.0,1.0,299.7030902261031,3.0,1.0,part_1,,,,,,,,,,,,,gray,square
50.0,1.0,1.0,0.0,3.0,3.0,356.4314297746023,3.0,1.0,part_1,,,,,,,,,,,,,orange,flipped triangle
45.0,5.0,1.0,1.0,2.0,2.0,279.4081633110181,3.0,1.0,part_1,,,,,,,,,,,,,cyan,I
212.0,7.0,3.0,1.0,1.0,1.0,324.2089803115959,3.0,1.0,part_1,,,,,,,,,,,,,gray,square
100.0,2.0,2.0,0.0,4.0,4.0,267.2952037737559,3.0,1.0,part_1,,,,,,,,,,,,,white,cross
86.0,6.0,2.0,1.0,3.0,3.0,539.5084482406673,3.0,2.0,part_1,,,,,,,,,,,,,magenta,circle
27.0,5.0,1.0,1.0,1.0,1.0,416.776919775657,3.0,1.0,part_1,,,,,,,,,,,,,cyan,I
37.0,1.0,1.0,0.0,3.0,3.0,539.4263453108579,3.0,1.0,part_1,,,,,,,,,,,,,orange,flipped triangle
182.0,7.0,3.0,1.0,3.0,3.0,428.7697094659961,3.0,1.0,part_1,,,,,,,,,,,,,gray,square
0.0,3.0,0.0,0.0,1.0,1.0,407.574094397205,3.0,1.0,part_1,,,,,,,,,,,,,yellow,diamond
100.0,6.0,2.0,1.0,1.0,1.0,441.1097013107792,3.0,1.0,part_1,,,,,,,,,,,,,magenta,circle
113.0,6.0,2.0,1.0,2.0,2.0,328.1009454676677,3.0,1.0,part_1,,,,,,,,,,,,,magenta,circle
204.0,7.0,3.0,1.0,1.0,1.0,441.4545893105241,3.0,1.0,part_1,,,,,,,,,,,,,gray,square
0.0,7.0,0.0,1.0,1.0,1.0,408.4036519288929,3.0,1.0,part_1,,,,,,,,,,,,,gray,square
119.0,6.0,2.0,1.0,3.0,3.0,566.0332953102625,3.0,1.0,part_1,,,,,,,,,,,,,magenta,circle
34.0,5.0,1.0,1.0,4.0,4.0,295.7014489311405,3.0,1.0,part_1,,,,,,,,,,,,,cyan,I
212.0,3.0,3.0,0.0,1.0,1.0,253.20535646642378,3.0,1.0,part_1,,,,,,,,,,,,,yellow,diamond
0.0,5.0,0.0,1.0,2.0,2.0,275.7551671547844,3.0,1.0,part_1,,,,,,,,,,,,,cyan,I
421.0,8.0,4.0,1.0,1.0,1.0,388.9119734667474,3.0,1.0,part_1,,,,,,,,,,,,,green,triangle
413.0,4.0,4.0,0.0,3.0,3.0,253.8884038276592,3.0,1.0,part_1,,,,,,,,,,,,,blue,hexagon
223.0,3.0,3.0,0.0,4.0,4.0,513.5222702410829,3.0,2.0,part_1,,,,,,,,,,,,,yellow,diamond
407.0,8.0,4.0,1.0,2.0,2.0,324.0682853120233,3.0,1.0,part_1,,,,,,,,,,,,,green,triangle
114.0,2.0,2.0,0.0,1.0,1.0,459.621444773802,3.0,1.0,part_1,,,,,,,,,,,,,white,cross
384.0,8.0,4.0,1.0,3.0,3.0,334.6499239305558,3.0,1.0,part_1,,,,,,,,,,,,,green,triangle
92.0,6.0,2.0,1.0,4.0,4.0,495.2941247756826,3.0,2.0,part_1,,,,,,,,,,,,,magenta,circle
407.0,4.0,4.0,0.0,4.0,4.0,606.8169160862453,3.0,1.0,part_1,,,,,,,,,,,,,blue,hexagon
413.0,8.0,4.0,1.0,1.0,1.0,641.442281930722,3.0,1.0,part_1,,,,,,,,,,,,,green,triangle
416.0,8.0,4.0,1.0,4.0,4.0,484.7657804657501,3.0,1.0,part_1,,,,,,,,,,,,,green,triangle
107.0,6.0,2.0,1.0,2.0,2.0,327.1266283118166,3.0,1.0,part_1,,,,,,,,,,,,,magenta,circle
0.0,1.0,0.0,0.0,4.0,4.0,305.1204113107815,3.0,1.0,part_1,,,,,,,,,,,,,orange,flipped triangle
407.0,8.0,4.0,1.0,2.0,2.0,306.2566032403992,3.0,1.0,part_1,,,,,,,,,,,,,green,triangle
397.0,8.0,4.0,1.0,1.0,1.0,386.0327337752096,3.0,1.0,part_1,,,,,,,,,,,,,green,triangle
194.0,3.0,3.0,0.0,3.0,3.0,341.7731044664833,3.0,1.0,part_1,,,,,,,,,,,,,yellow,diamond
106.0,6.0,2.0,1.0,4.0,4.0,274.7092579302261,3.0,1.0,part_1,,,,,,,,,,,,,magenta,circle
92.0,2.0,2.0,0.0,1.0,1.0,375.1376839300064,3.0,1.0,part_1,,,,,,,,,,,,,white,cross
0.0,5.0,0.0,1.0,1.0,1.0,343.0121443107055,3.0,1.0,part_1,,,,,,,,,,,,,cyan,I
58.0,1.0,1.0,0.0,4.0,4.0,533.4655194674269,3.0,1.0,part_1,,,,,,,,,,,,,orange,flipped triangle
404.0,8.0,4.0,1.0,4.0,4.0,422.7107840852113,3.0,1.0,part_1,,,,,,,,,,,,,green,triangle
80.0,2.0,2.0,0.0,2.0,2.0,479.3939923110883,3.0,1.0,part_1,,,,,,,,,,,,,white,cross
198.0,7.0,3.0,1.0,2.0,2.0,445.7333264654153,3.0,1.0,part_1,,,,,,,,,,,,,gray,square
392.0,8.0,4.0,1.0,1.0,1.0,423.307921466403,3.0,1.0,part_1,,,,,,,,,,,,,green,triangle
80.0,2.0,2.0,0.0,2.0,2.0,425.399532310621,3.0,1.0,part_1,,,,,,,,,,,,,white,cross
66.0,5.0,1.0,1.0,2.0,2.0,482.7130229296017,3.0,1.0,part_1,,,,,,,,,,,,,cyan,I
92.0,2.0,2.0,0.0,2.0,2.0,369.2249531559355,3.0,1.0,part_1,,,,,,,,,,,,,white,cross
0.0,5.0,0.0,1.0,3.0,3.0,324.5447280860389,3.0,1.0,part_1,,,,,,,,,,,,,cyan,I
41.0,5.0,1.0,1.0,3.0,3.0,324.3548103109788,3.0,1.0,part_1,,,,,,,,,,,,,cyan,I
0.0,1.0,0.0,0.0,2.0,2.0,383.4599057754531,3.0,1.0,part_1,,,,,,,,,,,,,orange,flipped triangle
214.0,7.0,3.0,1.0,3.0,3.0,359.2474161559948,3.0,1.0,part_1,,,,,,,,,,,,,gray,square
210.0,3.0,3.0,0.0,4.0,4.0,429.6959564671851,3.0,1.0,part_1,,,,,,,,,,,,,yellow,diamond
383.0,4.0,4.0,0.0,4.0,4.0,474.2028727760043,3.0,1.0,part_1,,,,,,,,,,,,,blue,hexagon
0.0,2.0,0.0,0.0,2.0,2.0,452.3689116213063,3.0,1.0,part_1,,,,,,,,,,,,,white,cross
34.0,1.0,1.0,0.0,4.0,4.0,530.7612106207671,3.0,1.0,part_1,,,,,,,,,,,,,orange,flipped triangle
72.0,5.0,1.0,1.0,4.0,4.0,441.9878222415718,3.0,1.0,part_1,,,,,,,,,,,,,cyan,I
50.0,5.0,1.0,1.0,3.0,3.0,317.1807573107799,3.0,1.0,part_1,,,,,,,,,,,,,cyan,I
31.0,1.0,1.0,0.0,3.0,3.0,464.1289230858092,3.0,1.0,part_1,,,,,,,,,,,,,orange,flipped triangle
0.0,1.0,0.0,0.0,4.0,4.0,342.4389901701943,3.0,1.0,part_1,,,,,,,,,,,,,orange,flipped triangle
113.0,2.0,2.0,0.0,4.0,4.0,364.5953217746864,3.0,1.0,part_1,,,,,,,,,,,,,white,cross
51.0,1.0,1.0,0.0,3.0,3.0,388.0595896207524,3.0,1.0,part_1,,,,,,,,,,,,,orange,flipped triangle
378.0,8.0,4.0,1.0,4.0,4.0,355.9137537740753,3.0,1.0,part_1,,,,,,,,,,,,,green,triangle
79.0,6.0,2.0,1.0,3.0,3.0,378.5374461549509,3.0,1.0,part_1,,,,,,,,,,,,,magenta,circle
186.0,3.0,3.0,0.0,1.0,1.0,434.7010659312218,3.0,1.0,part_1,,,,,,,,,,,,,yellow,diamond
118.0,2.0,2.0,0.0,1.0,1.0,446.3737477744871,3.0,1.0,part_1,,,,,,,,,,,,,white,cross
125.0,2.0,2.0,0.0,3.0,3.0,368.2112279293505,3.0,1.0,part_1,,,,,,,,,,,,,white,cross
32.0,1.0,1.0,0.0,1.0,1.0,435.8449869305332,3.0,1.0,part_1,,,,,,,,,,,,,orange,flipped triangle
45.0,1.0,1.0,0.0,2.0,2.0,471.0960564661945,3.0,1.0,part_1,,,,,,,,,,,,,orange,flipped triangle
121.0,6.0,2.0,1.0,2.0,2.0,481.8791950856393,3.0,1.0,part_1,,,,,,,,,,,,,magenta,circle
186.0,7.0,3.0,1.0,2.0,2.0,482.7649099297559,3.0,1.0,part_1,,,,,,,,,,,,,gray,square
411.0,4.0,4.0,0.0,2.0,2.0,371.9631669991941,3.0,1.0,part_1,,,,,,,,,,,,,blue,hexagon
113.0,2.0,2.0,0.0,3.0,3.0,483.0903559286525,3.0,1.0,part_1,,,,,,,,,,,,,white,cross
97.0,2.0,2.0,0.0,3.0,3.0,473.5736249313049,3.0,1.0,part_1,,,,,,,,,,,,,white,cross
0.0,6.0,0.0,1.0,2.0,2.0,597.4885613122751,3.0,1.0,part_1,,,,,,,,,,,,,magenta,circle
383.0,8.0,4.0,1.0,3.0,3.0,463.7507639290561,3.0,1.0,part_1,,,,,,,,,,,,,green,triangle
190.0,3.0,3.0,0.0,4.0,4.0,510.2932058453007,4.0,1.0,part_1,,,,,,,,,,,,,yellow,diamond
0.0,2.0,0.0,0.0,4.0,4.0,438.6456479314802,4.0,1.0,part_1,,,,,,,,,,,,,white,cross
43.0,1.0,1.0,0.0,4.0,4.0,460.4686534657958,4.0,1.0,part_1,,,,,,,,,,,,,orange,flipped triangle
103.0,6.0,2.0,1.0,1.0,1.0,373.4118069369287,4.0,1.0,part_1,,,,,,,,,,,,,magenta,circle
98.0,6.0,2.0,1.0,1.0,1.0,350.1127921554143,4.0,1.0,part_1,,,,,,,,,,,,,magenta,circle
401.0,4.0,4.0,0.0,3.0,3.0,340.2572959312238,4.0,1.0,part_1,,,,,,,,,,,,,blue,hexagon
0.0,8.0,0.0,1.0,1.0,1.0,296.3696526221611,4.0,1.0,part_1,,,,,,,,,,,,,green,triangle
201.0,7.0,3.0,1.0,3.0,3.0,372.9812289311667,4.0,1.0,part_1,,,,,,,,,,,,,gray,square
86.0,2.0,2.0,0.0,1.0,1.0,330.9020986216637,4.0,1.0,part_1,,,,,,,,,,,,,white,cross
0.0,2.0,0.0,0.0,3.0,3.0,330.3369610002846,4.0,1.0,part_1,,,,,,,,,,,,,white,cross
179.0,7.0,3.0,1.0,3.0,3.0,352.652072930141,4.0,1.0,part_1,,,,,,,,,,,,,gray,square
79.0,2.0,2.0,0.0,2.0,2.0,377.2884840855113,4.0,1.0,part_1,,,,,,,,,,,,,white,cross
194.0,3.0,3.0,0.0,4.0,4.0,297.5068872419797,4.0,1.0,part_1,,,,,,,,,,,,,yellow,diamond
0.0,4.0,0.0,0.0,1.0,1.0,366.9662656211585,4.0,1.0,part_1,,,,,,,,,,,,,blue,hexagon
421.0,8.0,4.0,1.0,4.0,4.0,311.1914214659919,4.0,1.0,part_1,,,,,,,,,,,,,green,triangle
407.0,4.0,4.0,0.0,1.0,1.0,289.7144872404169,4.0,1.0,part_1,,,,,,,,,,,,,blue,hexagon
43.0,5.0,1.0,1.0,3.0,3.0,300.5427371554106,4.0,1.0,part_1,,,,,,,,,,,,,cyan,I
70.0,5.0,1.0,1.0,1.0,1.0,313.432192622713,4.0,1.0,part_1,,,,,,,,,,,,,cyan,I
106.0,2.0,2.0,0.0,2.0,2.0,346.723396465677,4.0,1.0,part_1,,,,,,,,,,,,,white,cross
88.0,6.0,2.0,1.0,4.0,4.0,345.989634621219,4.0,1.0,part_1,,,,,,,,,,,,,magenta,circle
60.0,5.0,1.0,1.0,2.0,2.0,313.5375744659541,4.0,1.0,part_1,,,,,,,,,,,,,cyan,I
197.0,7.0,3.0,1.0,1.0,1.0,291.5012527737417,4.0,1.0,part_1,,,,,,,,,,,,,gray,square
210.0,7.0,3.0,1.0,2.0,2.0,303.3670919303404,4.0,1.0,part_1,,,,,,,,,,,,,gray,square
0.0,3.0,0.0,0.0,2.0,2.0,349.3568490848702,4.0,1.0,part_1,,,,,,,,,,,,,yellow,diamond
398.0,4.0,4.0,0.0,1.0,1.0,293.3680123969679,4.0,1.0,part_1,,,,,,,,,,,,,blue,hexagon
0.0,6.0,0.0,1.0,3.0,3.0,372.6404546214326,4.0,1.0,part_1,,,,,,,,,,,,,magenta,circle
0.0,5.0,0.0,1.0,2.0,2.0,328.5007513095479,4.0,1.0,part_1,,,,,,,,,,,,,cyan,I
0.0,7.0,0.0,1.0,4.0,4.0,453.8805114661954,4.0,1.0,part_1,,,,,,,,,,,,,gray,square
383.0,4.0,4.0,0.0,2.0,2.0,318.3115113115491,4.0,1.0,part_1,,,,,,,,,,,,,blue,hexagon
190.0,7.0,3.0,1.0,1.0,1.0,374.5642946214502,4.0,1.0,part_1,,,,,,,,,,,,,gray,square
0.0,5.0,0.0,1.0,1.0,1.0,287.0101773114584,4.0,1.0,part_1,,,,,,,,,,,,,cyan,I
179.0,3.0,3.0,0.0,2.0,2.0,342.1453710070636,4.0,1.0,part_1,,,,,,,,,,,,,yellow,diamond
198.0,3.0,3.0,0.0,2.0,2.0,309.946349085294,4.0,1.0,part_1,,,,,,,,,,,,,yellow,diamond
57.0,1.0,1.0,0.0,1.0,1.0,286.9466453103086,4.0,1.0,part_1,,,,,,,,,,,,,orange,flipped triangle
46.0,5.0,1.0,1.0,1.0,1.0,344.6507204662339,4.0,1.0,part_1,,,,,,,,,,,,,cyan,I
69.0,5.0,1.0,1.0,1.0,1.0,343.9236570866342,4.0,1.0,part_1,,,,,,,,,,,,,cyan,I
219.0,3.0,3.0,0.0,1.0,1.0,289.163164621641,4.0,1.0,part_1,,,,,,,,,,,,,yellow,diamond
179.0,3.0,3.0,0.0,3.0,3.0,334.3374586220307,4.0,1.0,part_1,,,,,,,,,,,,,yellow,diamond
106.0,6.0,2.0,1.0,2.0,2.0,268.6695766205957,4.0,1.0,part_1,,,,,,,,,,,,,magenta,circle
95.0,2.0,2.0,0.0,3.0,3.0,311.6724473111389,4.0,1.0,part_1,,,,,,,,,,,,,white,cross
189.0,3.0,3.0,0.0,3.0,3.0,313.183759464664,4.0,1.0,part_1,,,,,,,,,,,,,yellow,diamond
43.0,5.0,1.0,1.0,4.0,4.0,346.6699181535659,4.0,1.0,part_1,,,,,,,,,,,,,cyan,I
28.0,5.0,1.0,1.0,2.0,2.0,303.4605543107318,4.0,1.0,part_1,,,,,,,,,,,,,cyan,I
0.0,6.0,0.0,1.0,1.0,1.0,303.6219349305611,4.0,1.0,part_1,,,,,,,,,,,,,magenta,circle
0.0,1.0,0.0,0.0,3.0,3.0,348.8788739305164,4.0,1.0,part_1,,,,,,,,,,,,,orange,flipped triangle
391.0,4.0,4.0,0.0,3.0,3.0,350.3605009300372,4.0,1.0,part_1,,,,,,,,,,,,,blue,hexagon
189.0,3.0,3.0,0.0,1.0,1.0,329.5505292408052,4.0,1.0,part_1,,,,,,,,,,,,,yellow,diamond
199.0,7.0,3.0,1.0,1.0,1.0,440.9321811544942,4.0,1.0,part_1,,,,,,,,,,,,,gray,square
98.0,2.0,2.0,0.0,3.0,3.0,306.1838936228014,4.0,1.0,part_1,,,,,,,,,,,,,white,cross
86.0,6.0,2.0,1.0,2.0,2.0,307.5523163097386,4.0,1.0,part_1,,,,,,,,,,,,,magenta,circle
64.0,1.0,1.0,0.0,4.0,4.0,295.8211589302664,4.0,1.0,part_1,,,,,,,,,,,,,orange,flipped triangle
376.0,4.0,4.0,0.0,1.0,1.0,320.0895309291809,4.0,1.0,part_1,,,,,,,,,,,,,blue,hexagon
121.0,2.0,2.0,0.0,4.0,4.0,421.3875476216344,4.0,1.0,part_1,,,,,,,,,,,,,white,cross
398.0,8.0,4.0,1.0,4.0,4.0,489.8718011554592,4.0,1.0,part_1,,,,,,,,,,,,,green,triangle
205.0,3.0,3.0,0.0,3.0,3.0,365.5098673098109,4.0,1.0,part_1,,,,,,,,,,,,,yellow,diamond
0.0,8.0,0.0,1.0,1.0,1.0,413.148422154336,4.0,1.0,part_1,,,,,,,,,,,,,green,triangle
47.0,1.0,1.0,0.0,1.0,1.0,446.9325183108594,4.0,1.0,part_1,,,,,,,,,,,,,orange,flipped triangle
114.0,6.0,2.0,1.0,3.0,3.0,412.3492199305474,4.0,1.0,part_1,,,,,,,,,,,,,magenta,circle
53.0,1.0,1.0,0.0,4.0,4.0,378.8121920861158,4.0,1.0,part_1,,,,,,,,,,,,,orange,flipped triangle
398.0,4.0,4.0,0.0,3.0,3.0,390.4085803114867,4.0,1.0,part_1,,,,,,,,,,,,,blue,hexagon
0.0,3.0,0.0,0.0,1.0,1.0,358.5432334657525,4.0,1.0,part_1,,,,,,,,,,,,,yellow,diamond
27.0,1.0,1.0,0.0,1.0,1.0,482.6081431565399,4.0,1.0,part_1,,,,,,,,,,,,,orange,flipped triangle
0.0,2.0,0.0,0.0,2.0,2.0,494.8367822416912,4.0,1.0,part_1,,,,,,,,,,,,,white,cross
0.0,4.0,0.0,0.0,4.0,4.0,337.3306599296484,4.0,1.0,part_1,,,,,,,,,,,,,blue,hexagon
177.0,3.0,3.0,0.0,4.0,4.0,506.38827393049723,4.0,1.0,part_1,,,,,,,,,,,,,yellow,diamond
0.0,1.0,0.0,0.0,3.0,3.0,512.2770223952102,4.0,1.0,part_1,,,,,,,,,,,,,orange,flipped triangle
422.0,8.0,4.0,1.0,4.0,4.0,366.3666857755743,4.0,1.0,part_1,,,,,,,,,,,,,green,triangle
108.0,2.0,2.0,0.0,3.0,3.0,345.0552193953626,4.0,1.0,part_1,,,,,,,,,,,,,white,cross
407.0,4.0,4.0,0.0,2.0,2.0,347.1283621547627,4.0,1.0,part_1,,,,,,,,,,,,,blue,hexagon
194.0,7.0,3.0,1.0,2.0,2.0,357.342182085631,4.0,1.0,part_1,,,,,,,,,,,,,gray,square
0.0,2.0,0.0,0.0,4.0,4.0,425.5441199311462,4.0,1.0,part_1,,,,,,,,,,,,,white,cross
0.0,4.0,0.0,0.0,3.0,3.0,348.1208777739084,4.0,1.0,part_1,,,,,,,,,,,,,blue,hexagon
101.0,6.0,2.0,1.0,3.0,3.0,459.1000282416644,4.0,1.0,part_1,,,,,,,,,,,,,magenta,circle
47.0,5.0,1.0,1.0,4.0,4.0,359.0843679303361,4.0,1.0,part_1,,,,,,,,,,,,,cyan,I
108.0,6.0,2.0,1.0,3.0,3.0,348.9350159998139,4.0,1.0,part_1,,,,,,,,,,,,,magenta,circle
115.0,2.0,2.0,0.0,1.0,1.0,417.2122059990215,4.0,1.0,part_1,,,,,,,,,,,,,white,cross
0.0,4.0,0.0,0.0,2.0,2.0,464.1120762407809,4.0,1.0,part_1,,,,,,,,,,,,,blue,hexagon
0.0,4.0,0.0,0.0,4.0,4.0,327.4778387749393,4.0,1.0,part_1,,,,,,,,,,,,,blue,hexagon
36.0,5.0,1.0,1.0,1.0,1.0,294.437170465244,4.0,1.0,part_1,,,,,,,,,,,,,cyan,I
0.0,7.0,0.0,1.0,1.0,1.0,317.96804330952,4.0,1.0,part_1,,,,,,,,,,,,,gray,square
58.0,5.0,1.0,1.0,1.0,1.0,319.4761269987793,4.0,1.0,part_1,,,,,,,,,,,,,cyan,I
0.0,8.0,0.0,1.0,3.0,3.0,363.2245854660141,4.0,1.0,part_1,,,,,,,,,,,,,green,triangle
205.0,7.0,3.0,1.0,1.0,1.0,297.3944757741265,4.0,1.0,part_1,,,,,,,,,,,,,gray,square
0.0,6.0,0.0,1.0,3.0,3.0,331.4006901564426,4.0,1.0,part_1,,,,,,,,,,,,,magenta,circle
114.0,2.0,2.0,0.0,2.0,2.0,344.3450059312454,4.0,1.0,part_1,,,,,,,,,,,,,white,cross
0.0,2.0,0.0,0.0,2.0,2.0,331.7899772409873,4.0,1.0,part_1,,,,,,,,,,,,,white,cross
207.0,3.0,3.0,0.0,1.0,1.0,343.9830183106096,4.0,1.0,part_1,,,,,,,,,,,,,yellow,diamond
177.0,7.0,3.0,1.0,3.0,3.0,356.8384650843654,4.0,1.0,part_1,,,,,,,,,,,,,gray,square
223.0,7.0,3.0,1.0,4.0,4.0,379.8272651547449,4.0,1.0,part_1,,,,,,,,,,,,,gray,square
70.0,1.0,1.0,0.0,1.0,1.0,335.0610356210382,4.0,1.0,part_1,,,,,,,,,,,,,orange,flipped triangle
31.0,5.0,1.0,1.0,1.0,1.0,403.3163897747727,4.0,1.0,part_1,,,,,,,,,,,,,cyan,I
88.0,2.0,2.0,0.0,4.0,4.0,436.8796684666449,4.0,1.0,part_1,,,,,,,,,,,,,white,cross
0.0,8.0,0.0,1.0,1.0,1.0,393.682960240767,4.0,1.0,part_1,,,,,,,,,,,,,green,triangle
43.0,1.0,1.0,0.0,1.0,1.0,484.1414479287778,4.0,1.0,part_1,,,,,,,,,,,,,orange,flipped triangle
28.0,1.0,1.0,0.0,2.0,2.0,507.1606660003454,4.0,1.0,part_1,,,,,,,,,,,,,orange,flipped triangle
209.0,3.0,3.0,0.0,4.0,4.0,404.9820661548438,4.0,1.0,part_1,,,,,,,,,,,,,yellow,diamond
0.0,2.0,0.0,0.0,3.0,3.0,373.3117293104442,4.0,1.0,part_1,,,,,,,,,,,,,white,cross
79.0,6.0,2.0,1.0,2.0,2.0,374.2703483094374,4.0,1.0,part_1,,,,,,,,,,,,,magenta,circle
54.0,1.0,1.0,0.0,2.0,2.0,328.0924703103665,4.0,1.0,part_1,,,,,,,,,,,,,orange,flipped triangle
63.0,1.0,1.0,0.0,4.0,4.0,362.8913293960067,4.0,1.0,part_1,,,,,,,,,,,,,orange,flipped triangle
0.0,5.0,1.0,1.0,5.0,5.0,435.3548273229535,1.0,0.0,part_2,go,250.0,250.0,1.0,,,,,,,,,cyan,I
0.0,4.0,4.0,0.0,6.0,6.0,685.751086080927,1.0,0.0,part_2,go,250.0,250.0,1.0,,,,,,,,,blue,hexagon
0.0,8.0,4.0,1.0,6.0,6.0,652.2548294851731,1.0,0.0,part_2,go,250.0,250.0,1.0,,,,,,,,,green,triangle
0.0,5.0,1.0,1.0,5.0,5.0,697.2193786477874,1.0,0.0,part_2,go,250.0,250.0,1.0,,,,,,,,,cyan,I
0.0,4.0,4.0,0.0,5.0,5.0,529.4523064039822,1.0,0.0,part_2,go,250.0,250.0,1.0,,,,,,,,,blue,hexagon
0.0,1.0,1.0,0.0,6.0,6.0,427.8502544857474,1.0,0.0,part_2,go,250.0,250.0,1.0,,,,,,,,,orange,flipped triangle
0.0,8.0,4.0,1.0,6.0,0.0,0.0,1.0,0.0,part_2,stop,250.0,250.0,4.0,,,,,,,,,green,triangle
0.0,4.0,4.0,0.0,5.0,5.0,474.8674325674074,1.0,0.0,part_2,go,250.0,300.0,1.0,,,,,,,,,blue,hexagon
0.0,8.0,4.0,1.0,6.0,0.0,0.0,1.0,0.0,part_2,stop,250.0,300.0,4.0,,,,,,,,,green,triangle
0.0,5.0,1.0,1.0,6.0,6.0,454.7115021632635,1.0,0.0,part_2,stop,250.0,350.0,3.0,,,,,,,,,cyan,I
0.0,8.0,4.0,1.0,6.0,0.0,0.0,1.0,0.0,part_2,stop,250.0,300.0,4.0,,,,,,,,,green,triangle
0.0,4.0,4.0,0.0,5.0,5.0,545.6414317286544,1.0,0.0,part_2,go,250.0,350.0,1.0,,,,,,,,,blue,hexagon
0.0,3.0,3.0,0.0,5.0,5.0,469.4797684860532,1.0,0.0,part_2,go,250.0,350.0,1.0,,,,,,,,,yellow,diamond
0.0,2.0,2.0,0.0,5.0,5.0,796.4520866462408,1.0,0.0,part_2,go,250.0,350.0,1.0,,,,,,,,,white,cross
0.0,5.0,1.0,1.0,6.0,6.0,649.9898380807281,1.0,0.0,part_2,go,250.0,350.0,1.0,,,,,,,,,cyan,I
0.0,3.0,3.0,0.0,6.0,6.0,842.8395496466692,1.0,0.0,part_2,go,250.0,350.0,1.0,,,,,,,,,yellow,diamond
0.0,1.0,1.0,0.0,6.0,6.0,786.6010894049396,1.0,0.0,part_2,go,250.0,350.0,1.0,,,,,,,,,orange,flipped triangle
0.0,1.0,1.0,0.0,5.0,5.0,742.643959565612,1.0,0.0,part_2,go,250.0,350.0,1.0,,,,,,,,,orange,flipped triangle
0.0,6.0,2.0,1.0,5.0,0.0,0.0,1.0,0.0,part_2,stop,250.0,350.0,4.0,,,,,,,,,magenta,circle
0.0,3.0,3.0,0.0,5.0,5.0,407.5758290000522,1.0,0.0,part_2,go,300.0,350.0,1.0,,,,,,,,,yellow,diamond
0.0,6.0,2.0,1.0,6.0,0.0,0.0,1.0,0.0,part_2,stop,300.0,350.0,4.0,,,,,,,,,magenta,circle
0.0,2.0,2.0,0.0,5.0,5.0,869.7983800811926,1.0,0.0,part_2,go,300.0,400.0,1.0,,,,,,,,,white,cross
0.0,5.0,1.0,1.0,6.0,0.0,0.0,1.0,0.0,part_2,stop,300.0,400.0,4.0,,,,,,,,,cyan,I
0.0,5.0,1.0,1.0,6.0,6.0,870.3396760811302,1.0,0.0,part_2,go,300.0,450.0,1.0,,,,,,,,,cyan,I
0.0,5.0,1.0,1.0,5.0,0.0,0.0,1.0,0.0,part_2,stop,300.0,450.0,4.0,,,,,,,,,cyan,I
0.0,8.0,4.0,1.0,5.0,0.0,0.0,1.0,0.0,part_2,stop,350.0,450.0,4.0,,,,,,,,,green,triangle
0.0,1.0,1.0,0.0,6.0,6.0,536.4562385966565,1.0,0.0,part_2,go,400.0,450.0,1.0,,,,,,,,,orange,flipped triangle
0.0,2.0,2.0,0.0,5.0,5.0,560.4824389993155,1.0,0.0,part_2,go,400.0,450.0,1.0,,,,,,,,,white,cross
0.0,6.0,2.0,1.0,5.0,0.0,0.0,1.0,0.0,part_2,stop,400.0,450.0,4.0,,,,,,,,,magenta,circle
0.0,1.0,1.0,0.0,6.0,6.0,449.3559050806652,1.0,0.0,part_2,go,450.0,450.0,1.0,,,,,,,,,orange,flipped triangle
0.0,6.0,2.0,1.0,5.0,0.0,0.0,1.0,0.0,part_2,stop,450.0,450.0,4.0,,,,,,,,,magenta,circle
0.0,4.0,4.0,0.0,6.0,6.0,642.5194786461361,1.0,0.0,part_2,go,500.0,450.0,1.0,,,,,,,,,blue,hexagon
0.0,5.0,1.0,1.0,5.0,5.0,586.2343994031107,1.0,0.0,part_2,stop,500.0,450.0,3.0,,,,,,,,,cyan,I
0.0,7.0,3.0,1.0,5.0,0.0,0.0,1.0,0.0,part_2,stop,450.0,450.0,4.0,,,,,,,,,gray,square
0.0,6.0,2.0,1.0,5.0,0.0,0.0,1.0,0.0,part_2,stop,500.0,450.0,4.0,,,,,,,,,magenta,circle
0.0,3.0,3.0,0.0,6.0,6.0,589.0252945664542,1.0,0.0,part_2,go,550.0,450.0,1.0,,,,,,,,,yellow,diamond
0.0,7.0,3.0,1.0,5.0,5.0,507.047462000628,2.0,0.0,part_2,stop,550.0,450.0,3.0,,,,,,,,,gray,square
0.0,6.0,2.0,1.0,6.0,0.0,0.0,2.0,0.0,part_2,stop,500.0,450.0,4.0,,,,,,,,,magenta,circle
0.0,6.0,2.0,1.0,5.0,5.0,620.5255725672032,2.0,0.0,part_2,stop,500.0,500.0,3.0,,,,,,,,,magenta,circle
0.0,7.0,3.0,1.0,5.0,5.0,734.511064567414,2.0,0.0,part_2,go,450.0,500.0,1.0,,,,,,,,,gray,square
0.0,2.0,2.0,0.0,6.0,6.0,724.2973972424807,2.0,0.0,part_2,go,450.0,500.0,1.0,,,,,,,,,white,cross
0.0,2.0,2.0,0.0,5.0,5.0,510.50573300017277,2.0,0.0,part_2,go,450.0,500.0,1.0,,,,,,,,,white,cross
0.0,2.0,2.0,0.0,5.0,5.0,545.3096233231918,2.0,0.0,part_2,go,450.0,500.0,1.0,,,,,,,,,white,cross
0.0,5.0,1.0,1.0,5.0,5.0,422.8847409995069,2.0,0.0,part_2,stop,450.0,500.0,3.0,,,,,,,,,cyan,I
0.0,1.0,1.0,0.0,5.0,5.0,682.0646534033585,2.0,0.0,part_2,go,400.0,500.0,1.0,,,,,,,,,orange,flipped triangle
0.0,4.0,4.0,0.0,5.0,5.0,535.2329873221606,2.0,0.0,part_2,go,400.0,500.0,1.0,,,,,,,,,blue,hexagon
0.0,8.0,4.0,1.0,6.0,6.0,435.4853644053946,2.0,0.0,part_2,stop,400.0,500.0,3.0,,,,,,,,,green,triangle
0.0,6.0,2.0,1.0,6.0,0.0,0.0,2.0,0.0,part_2,stop,400.0,450.0,4.0,,,,,,,,,magenta,circle
0.0,4.0,4.0,0.0,5.0,5.0,707.7251475657249,2.0,0.0,part_2,go,400.0,500.0,1.0,,,,,,,,,blue,hexagon
0.0,4.0,4.0,0.0,5.0,5.0,741.2622495667165,2.0,0.0,part_2,go,400.0,500.0,1.0,,,,,,,,,blue,hexagon
0.0,3.0,3.0,0.0,6.0,6.0,597.0278620006866,2.0,0.0,part_2,go,400.0,500.0,1.0,,,,,,,,,yellow,diamond
0.0,7.0,3.0,1.0,5.0,5.0,496.638231081306,2.0,0.0,part_2,stop,400.0,500.0,3.0,,,,,,,,,gray,square
0.0,7.0,3.0,1.0,5.0,0.0,0.0,2.0,0.0,part_2,stop,350.0,500.0,4.0,,,,,,,,,gray,square
0.0,8.0,4.0,1.0,6.0,6.0,554.5235742447403,2.0,0.0,part_2,go,400.0,500.0,1.0,,,,,,,,,green,triangle
0.0,7.0,3.0,1.0,6.0,6.0,656.7899549991125,2.0,0.0,part_2,go,400.0,500.0,1.0,,,,,,,,,gray,square
0.0,3.0,3.0,0.0,5.0,5.0,735.0608101623948,2.0,0.0,part_2,go,400.0,500.0,1.0,,,,,,,,,yellow,diamond
0.0,1.0,1.0,0.0,6.0,6.0,713.6108770828287,2.0,0.0,part_2,go,400.0,500.0,1.0,,,,,,,,,orange,flipped triangle
0.0,2.0,2.0,0.0,6.0,6.0,793.5973811618169,2.0,0.0,part_2,go,400.0,500.0,1.0,,,,,,,,,white,cross
0.0,5.0,1.0,1.0,5.0,0.0,0.0,2.0,0.0,part_2,stop,400.0,500.0,4.0,,,,,,,,,cyan,I
0.0,6.0,2.0,1.0,5.0,0.0,0.0,2.0,0.0,part_2,stop,450.0,500.0,4.0,,,,,,,,,magenta,circle
0.0,4.0,4.0,0.0,6.0,6.0,693.8354701633216,2.0,0.0,part_2,go,500.0,500.0,1.0,,,,,,,,,blue,hexagon
0.0,1.0,1.0,0.0,5.0,5.0,674.0656950805715,2.0,0.0,part_2,go,500.0,500.0,1.0,,,,,,,,,orange,flipped triangle
0.0,7.0,3.0,1.0,5.0,0.0,0.0,2.0,0.0,part_2,stop,500.0,500.0,4.0,,,,,,,,,gray,square
0.0,7.0,3.0,1.0,5.0,0.0,0.0,2.0,0.0,part_2,stop,550.0,500.0,4.0,,,,,,,,,gray,square
0.0,1.0,1.0,0.0,5.0,5.0,798.3861741613509,2.0,0.0,part_2,go,600.0,500.0,1.0,,,,,,,,,orange,flipped triangle
0.0,1.0,1.0,0.0,5.0,5.0,665.9013450807834,2.0,0.0,part_2,go,600.0,500.0,1.0,,,,,,,,,orange,flipped triangle
0.0,1.0,1.0,0.0,6.0,6.0,677.199688161636,2.0,0.0,part_2,go,600.0,500.0,1.0,,,,,,,,,orange,flipped triangle
0.0,4.0,4.0,0.0,6.0,6.0,677.0625745666621,2.0,0.0,part_2,go,600.0,500.0,1.0,,,,,,,,,blue,hexagon
0.0,5.0,1.0,1.0,5.0,5.0,734.9553921612824,2.0,0.0,part_2,stop,600.0,500.0,3.0,,,,,,,,,cyan,I
0.0,6.0,2.0,1.0,6.0,0.0,0.0,2.0,0.0,part_2,stop,550.0,500.0,4.0,,,,,,,,,magenta,circle
0.0,8.0,4.0,1.0,5.0,5.0,657.4840775374469,2.0,0.0,part_2,stop,550.0,550.0,3.0,,,,,,,,,green,triangle
0.0,8.0,4.0,1.0,5.0,5.0,850.946934082458,2.0,0.0,part_2,go,500.0,550.0,1.0,,,,,,,,,green,triangle
0.0,4.0,4.0,0.0,5.0,5.0,825.0154550823936,3.0,0.0,part_2,go,500.0,550.0,1.0,,,,,,,,,blue,hexagon
0.0,5.0,1.0,1.0,5.0,0.0,0.0,3.0,0.0,part_2,stop,500.0,550.0,4.0,,,,,,,,,cyan,I
0.0,2.0,2.0,0.0,6.0,6.0,849.054448566676,3.0,0.0,part_2,go,550.0,550.0,1.0,,,,,,,,,white,cross
0.0,8.0,4.0,1.0,5.0,0.0,0.0,3.0,0.0,part_2,stop,550.0,550.0,4.0,,,,,,,,,green,triangle
0.0,4.0,4.0,0.0,6.0,6.0,953.3176330005516,3.0,0.0,part_2,go,600.0,550.0,1.0,,,,,,,,,blue,hexagon
0.0,1.0,1.0,0.0,6.0,6.0,817.4381814042135,3.0,0.0,part_2,go,600.0,550.0,1.0,,,,,,,,,orange,flipped triangle
0.0,3.0,3.0,0.0,6.0,6.0,865.3884701634524,3.0,0.0,part_2,go,600.0,550.0,1.0,,,,,,,,,yellow,diamond
0.0,7.0,3.0,1.0,6.0,0.0,0.0,3.0,0.0,part_2,stop,600.0,550.0,4.0,,,,,,,,,gray,square
0.0,1.0,1.0,0.0,6.0,6.0,854.5008834043983,3.0,0.0,part_2,go,600.0,600.0,1.0,,,,,,,,,orange,flipped triangle
0.0,6.0,2.0,1.0,5.0,0.0,0.0,3.0,0.0,part_2,stop,600.0,600.0,4.0,,,,,,,,,magenta,circle
0.0,1.0,1.0,0.0,5.0,5.0,934.1656816486648,3.0,0.0,part_2,go,650.0,600.0,1.0,,,,,,,,,orange,flipped triangle
0.0,8.0,4.0,1.0,5.0,0.0,0.0,3.0,0.0,part_2,stop,650.0,600.0,4.0,,,,,,,,,green,triangle
0.0,6.0,2.0,1.0,6.0,6.0,1105.0556764039356,3.0,0.0,part_2,go,700.0,600.0,1.0,,,,,,,,,magenta,circle
0.0,5.0,1.0,1.0,6.0,6.0,824.1128193221812,3.0,0.0,part_2,go,700.0,600.0,1.0,,,,,,,,,cyan,I
0.0,5.0,1.0,1.0,5.0,5.0,736.6872434849938,3.0,0.0,part_2,stop,700.0,600.0,3.0,,,,,,,,,cyan,I
0.0,7.0,3.0,1.0,5.0,5.0,871.1351720812672,3.0,0.0,part_2,go,650.0,600.0,1.0,,,,,,,,,gray,square
0.0,5.0,1.0,1.0,6.0,0.0,0.0,3.0,0.0,part_2,stop,650.0,600.0,4.0,,,,,,,,,cyan,I
0.0,6.0,2.0,1.0,6.0,0.0,0.0,3.0,0.0,part_2,stop,650.0,650.0,4.0,,,,,,,,,magenta,circle
0.0,4.0,4.0,0.0,6.0,6.0,749.4924323218584,3.0,0.0,part_2,go,650.0,700.0,1.0,,,,,,,,,blue,hexagon
0.0,8.0,4.0,1.0,5.0,0.0,0.0,3.0,0.0,part_2,stop,650.0,700.0,4.0,,,,,,,,,green,triangle
0.0,1.0,1.0,0.0,5.0,5.0,1021.7207491623412,3.0,0.0,part_2,go,700.0,700.0,1.0,,,,,,,,,orange,flipped triangle
0.0,8.0,4.0,1.0,5.0,0.0,0.0,3.0,0.0,part_2,stop,700.0,700.0,4.0,,,,,,,,,green,triangle
0.0,6.0,2.0,1.0,5.0,0.0,0.0,3.0,0.0,part_2,stop,750.0,700.0,4.0,,,,,,,,,magenta,circle
0.0,7.0,3.0,1.0,6.0,6.0,811.1460174040985,3.0,0.0,part_2,go,800.0,700.0,1.0,,,,,,,,,gray,square
0.0,6.0,2.0,1.0,5.0,5.0,754.5776984043187,3.0,0.0,part_2,stop,800.0,700.0,3.0,,,,,,,,,magenta,circle
0.0,4.0,4.0,0.0,6.0,6.0,1103.782440162831,3.0,0.0,part_2,go,750.0,700.0,1.0,,,,,,,,,blue,hexagon
0.0,3.0,3.0,0.0,5.0,5.0,813.3223180011555,3.0,0.0,part_2,go,750.0,700.0,1.0,,,,,,,,,yellow,diamond
0.0,2.0,2.0,0.0,6.0,6.0,880.2937380824005,3.0,0.0,part_2,go,750.0,700.0,1.0,,,,,,,,,white,cross
0.0,2.0,2.0,0.0,6.0,6.0,995.3480852436768,3.0,0.0,part_2,go,750.0,700.0,1.0,,,,,,,,,white,cross
0.0,6.0,2.0,1.0,6.0,0.0,0.0,3.0,0.0,part_2,stop,750.0,700.0,4.0,,,,,,,,,magenta,circle
0.0,8.0,4.0,1.0,5.0,0.0,0.0,3.0,0.0,part_2,stop,750.0,750.0,4.0,,,,,,,,,green,triangle
0.0,1.0,1.0,0.0,6.0,6.0,1097.6497991614451,3.0,0.0,part_2,go,800.0,750.0,1.0,,,,,,,,,orange,flipped triangle
0.0,8.0,4.0,1.0,6.0,0.0,0.0,3.0,0.0,part_2,stop,800.0,750.0,4.0,,,,,,,,,green,triangle
0.0,1.0,1.0,0.0,5.0,5.0,952.8427054046916,3.0,0.0,part_2,go,800.0,800.0,1.0,,,,,,,,,orange,flipped triangle
0.0,4.0,4.0,0.0,6.0,6.0,977.8797696471884,3.0,0.0,part_2,go,800.0,800.0,1.0,,,,,,,,,blue,hexagon
0.0,7.0,3.0,1.0,5.0,0.0,0.0,3.0,0.0,part_2,stop,800.0,800.0,4.0,,,,,,,,,gray,square
0.0,8.0,4.0,1.0,6.0,6.0,418.3345316469058,4.0,0.0,part_2,stop,850.0,800.0,3.0,,,,,,,,,green,triangle
0.0,4.0,4.0,0.0,5.0,5.0,241.0792674036201,4.0,0.0,part_2,go,850.0,750.0,1.0,,,,,,,,,blue,hexagon
0.0,3.0,3.0,0.0,5.0,5.0,264.5908122431137,4.0,0.0,part_2,go,850.0,750.0,1.0,,,,,,,,,yellow,diamond
0.0,7.0,3.0,1.0,6.0,6.0,275.394687161679,4.0,0.0,part_2,stop,850.0,750.0,3.0,,,,,,,,,gray,square
0.0,3.0,3.0,0.0,5.0,5.0,354.6594853232818,4.0,0.0,part_2,go,850.0,700.0,1.0,,,,,,,,,yellow,diamond
0.0,4.0,4.0,0.0,5.0,5.0,355.5825862440542,4.0,0.0,part_2,go,850.0,700.0,1.0,,,,,,,,,blue,hexagon
0.0,5.0,1.0,1.0,6.0,6.0,537.9712164030934,4.0,0.0,part_2,go,850.0,700.0,1.0,,,,,,,,,cyan,I
0.0,6.0,2.0,1.0,6.0,6.0,345.3832060822606,4.0,0.0,part_2,stop,850.0,700.0,3.0,,,,,,,,,magenta,circle
0.0,3.0,3.0,0.0,5.0,5.0,604.9681640815834,4.0,0.0,part_2,go,850.0,650.0,1.0,,,,,,,,,yellow,diamond
0.0,7.0,3.0,1.0,5.0,5.0,360.2174494026258,4.0,0.0,part_2,stop,850.0,650.0,3.0,,,,,,,,,gray,square
0.0,7.0,3.0,1.0,6.0,6.0,642.0394119995763,4.0,0.0,part_2,stop,800.0,650.0,3.0,,,,,,,,,gray,square
0.0,3.0,3.0,0.0,5.0,5.0,283.177078485096,4.0,0.0,part_2,go,800.0,600.0,1.0,,,,,,,,,yellow,diamond
0.0,2.0,2.0,0.0,5.0,5.0,327.3835405670979,4.0,0.0,part_2,go,800.0,600.0,1.0,,,,,,,,,white,cross
0.0,1.0,1.0,0.0,5.0,5.0,407.1406401635613,4.0,0.0,part_2,go,800.0,600.0,1.0,,,,,,,,,orange,flipped triangle
0.0,3.0,3.0,0.0,6.0,6.0,643.89909948477,4.0,0.0,part_2,go,800.0,600.0,1.0,,,,,,,,,yellow,diamond
0.0,3.0,3.0,0.0,5.0,5.0,330.7885340000212,4.0,0.0,part_2,go,800.0,600.0,1.0,,,,,,,,,yellow,diamond
0.0,2.0,2.0,0.0,5.0,5.0,375.5835253232362,4.0,0.0,part_2,go,800.0,600.0,1.0,,,,,,,,,white,cross
0.0,7.0,3.0,1.0,5.0,5.0,477.3152393227065,4.0,0.0,part_2,stop,800.0,600.0,3.0,,,,,,,,,gray,square
0.0,1.0,1.0,0.0,6.0,6.0,569.0529329185665,4.0,0.0,part_2,go,750.0,600.0,1.0,,,,,,,,,orange,flipped triangle
0.0,8.0,4.0,1.0,6.0,6.0,613.4587714041118,4.0,0.0,part_2,stop,750.0,600.0,3.0,,,,,,,,,green,triangle
0.0,7.0,3.0,1.0,5.0,5.0,762.7858916475816,4.0,0.0,part_2,go,750.0,550.0,1.0,,,,,,,,,gray,square
0.0,6.0,2.0,1.0,6.0,6.0,481.1540981627331,4.0,0.0,part_2,go,750.0,550.0,1.0,,,,,,,,,magenta,circle
0.0,3.0,3.0,0.0,5.0,5.0,673.7209403236193,4.0,0.0,part_2,go,750.0,550.0,1.0,,,,,,,,,yellow,diamond
0.0,5.0,1.0,1.0,6.0,6.0,426.2875537297077,4.0,0.0,part_2,stop,750.0,550.0,3.0,,,,,,,,,cyan,I
0.0,8.0,4.0,1.0,5.0,5.0,494.608813756713,4.0,0.0,part_2,go,750.0,500.0,1.0,,,,,,,,,green,triangle
0.0,7.0,3.0,1.0,6.0,6.0,643.3967054035747,4.0,0.0,part_2,stop,750.0,500.0,3.0,,,,,,,,,gray,square
0.0,1.0,1.0,0.0,6.0,6.0,666.5107605676894,4.0,0.0,part_2,go,750.0,450.0,1.0,,,,,,,,,orange,flipped triangle
0.0,7.0,3.0,1.0,6.0,6.0,351.2677134040132,4.0,0.0,part_2,stop,750.0,450.0,3.0,,,,,,,,,gray,square
0.0,3.0,3.0,0.0,6.0,6.0,454.189614565621,4.0,0.0,part_2,go,750.0,400.0,1.0,,,,,,,,,yellow,diamond
0.0,8.0,4.0,1.0,6.0,0.0,0.0,4.0,0.0,part_2,stop,750.0,400.0,4.0,,,,,,,,,green,triangle
0.0,4.0,4.0,0.0,6.0,6.0,567.7839106483589,4.0,0.0,part_2,go,750.0,450.0,1.0,,,,,,,,,blue,hexagon
0.0,1.0,1.0,0.0,6.0,6.0,399.1146975658921,4.0,0.0,part_2,go,750.0,450.0,1.0,,,,,,,,,orange,flipped triangle
0.0,6.0,2.0,1.0,5.0,5.0,401.8423554862238,4.0,0.0,part_2,go,750.0,450.0,1.0,,,,,,,,,magenta,circle
0.0,5.0,1.0,1.0,5.0,5.0,400.9681110819656,4.0,0.0,part_2,stop,750.0,450.0,3.0,,,,,,,,,cyan,I
0.0,4.0,4.0,0.0,5.0,5.0,345.1705531624611,4.0,0.0,part_2,go,700.0,450.0,1.0,,,,,,,,,blue,hexagon
0.0,8.0,4.0,1.0,6.0,6.0,426.0769263219117,4.0,0.0,part_2,stop,700.0,450.0,3.0,,,,,,,,,green,triangle
0.0,1.0,1.0,0.0,5.0,5.0,382.2790300819179,5.0,0.0,part_2,go,700.0,400.0,1.0,,,,,,,,,orange,flipped triangle
0.0,6.0,2.0,1.0,6.0,6.0,338.4662724856753,5.0,0.0,part_2,stop,700.0,400.0,3.0,,,,,,,,,magenta,circle
0.0,5.0,1.0,1.0,5.0,5.0,237.4460020000697,5.0,0.0,part_2,go,700.0,350.0,1.0,,,,,,,,,cyan,I
0.0,6.0,2.0,1.0,5.0,5.0,363.4609292439563,5.0,0.0,part_2,go,700.0,350.0,1.0,,,,,,,,,magenta,circle
0.0,1.0,1.0,0.0,5.0,5.0,328.4140554860641,5.0,0.0,part_2,go,700.0,350.0,1.0,,,,,,,,,orange,flipped triangle
0.0,2.0,2.0,0.0,6.0,6.0,375.6926922433194,5.0,0.0,part_2,go,700.0,350.0,1.0,,,,,,,,,white,cross
0.0,8.0,4.0,1.0,6.0,6.0,420.8554492961411,5.0,0.0,part_2,stop,700.0,350.0,3.0,,,,,,,,,green,triangle
0.0,5.0,1.0,1.0,6.0,0.0,0.0,5.0,0.0,part_2,stop,700.0,300.0,4.0,,,,,,,,,cyan,I
0.0,5.0,1.0,1.0,5.0,5.0,264.4505962434778,5.0,0.0,part_2,stop,700.0,350.0,3.0,,,,,,,,,cyan,I
0.0,1.0,1.0,0.0,5.0,5.0,298.7712401627505,5.0,0.0,part_2,go,650.0,350.0,1.0,,,,,,,,,orange,flipped triangle
0.0,5.0,1.0,1.0,6.0,6.0,434.5025622424145,5.0,0.0,part_2,stop,650.0,350.0,3.0,,,,,,,,,cyan,I
0.0,5.0,1.0,1.0,5.0,5.0,571.1742027560831,5.0,0.0,part_2,stop,650.0,300.0,3.0,,,,,,,,,cyan,I
0.0,4.0,4.0,0.0,5.0,5.0,607.2656034848478,5.0,0.0,part_2,go,600.0,300.0,1.0,,,,,,,,,blue,hexagon
0.0,8.0,4.0,1.0,6.0,6.0,371.2367120006092,5.0,0.0,part_2,stop,600.0,300.0,3.0,,,,,,,,,green,triangle
0.0,6.0,2.0,1.0,5.0,5.0,517.0736680811387,5.0,0.0,part_2,stop,600.0,250.0,3.0,,,,,,,,,magenta,circle
0.0,4.0,4.0,0.0,6.0,6.0,699.0136030817666,5.0,0.0,part_2,go,550.0,250.0,1.0,,,,,,,,,blue,hexagon
0.0,6.0,2.0,1.0,6.0,6.0,743.5470851632999,5.0,0.0,part_2,go,550.0,250.0,1.0,,,,,,,,,magenta,circle
0.0,2.0,2.0,0.0,6.0,6.0,621.9561022426205,5.0,0.0,part_2,go,550.0,250.0,1.0,,,,,,,,,white,cross
0.0,6.0,2.0,1.0,5.0,5.0,453.8666533226205,5.0,0.0,part_2,go,550.0,250.0,1.0,,,,,,,,,magenta,circle
0.0,4.0,4.0,0.0,5.0,5.0,634.2273764857964,5.0,0.0,part_2,go,550.0,250.0,1.0,,,,,,,,,blue,hexagon
0.0,2.0,2.0,0.0,6.0,6.0,476.6619874844764,5.0,0.0,part_2,go,550.0,250.0,1.0,,,,,,,,,white,cross
0.0,2.0,2.0,0.0,5.0,5.0,512.9480314044486,5.0,0.0,part_2,go,550.0,250.0,1.0,,,,,,,,,white,cross
0.0,3.0,3.0,0.0,5.0,5.0,659.7142192440515,5.0,0.0,part_2,go,550.0,250.0,1.0,,,,,,,,,yellow,diamond
0.0,1.0,1.0,0.0,6.0,6.0,470.0200606475846,5.0,0.0,part_2,go,550.0,250.0,1.0,,,,,,,,,orange,flipped triangle
0.0,6.0,2.0,1.0,6.0,0.0,0.0,5.0,0.0,part_2,stop,550.0,250.0,4.0,,,,,,,,,magenta,circle
0.0,7.0,3.0,1.0,6.0,0.0,0.0,5.0,0.0,part_2,stop,550.0,300.0,4.0,,,,,,,,,gray,square
0.0,8.0,4.0,1.0,5.0,5.0,652.1322850003344,5.0,0.0,part_2,go,550.0,350.0,1.0,,,,,,,,,green,triangle
0.0,7.0,3.0,1.0,5.0,5.0,630.1925341631431,5.0,0.0,part_2,stop,550.0,350.0,3.0,,,,,,,,,gray,square
0.0,3.0,3.0,0.0,6.0,6.0,730.9590052445856,5.0,0.0,part_2,go,500.0,350.0,1.0,,,,,,,,,yellow,diamond
0.0,3.0,3.0,0.0,5.0,5.0,518.7087804042676,5.0,0.0,part_2,go,500.0,350.0,1.0,,,,,,,,,yellow,diamond
0.0,7.0,3.0,1.0,6.0,0.0,0.0,5.0,0.0,part_2,stop,500.0,350.0,4.0,,,,,,,,,gray,square
0.0,3.0,3.0,0.0,5.0,5.0,307.4736694052262,5.0,0.0,part_2,go,500.0,400.0,1.0,,,,,,,,,yellow,diamond
0.0,3.0,3.0,0.0,6.0,6.0,565.2934080007981,5.0,0.0,part_2,go,500.0,400.0,1.0,,,,,,,,,yellow,diamond
0.0,5.0,1.0,1.0,6.0,0.0,0.0,5.0,0.0,part_2,stop,500.0,400.0,4.0,,,,,,,,,cyan,I
0.0,4.0,4.0,0.0,5.0,5.0,467.4027361616026,5.0,0.0,part_2,go,500.0,450.0,1.0,,,,,,,,,blue,hexagon
0.0,3.0,3.0,0.0,6.0,6.0,354.5292484868696,5.0,0.0,part_2,go,500.0,450.0,1.0,,,,,,,,,yellow,diamond
0.0,6.0,2.0,1.0,6.0,6.0,509.77725364828075,6.0,0.0,part_2,go,500.0,450.0,1.0,,,,,,,,,magenta,circle
0.0,8.0,4.0,1.0,5.0,5.0,238.2935172445286,6.0,0.0,part_2,stop,500.0,450.0,3.0,,,,,,,,,green,triangle
0.0,8.0,4.0,1.0,6.0,6.0,318.7173905662348,6.0,0.0,part_2,go,450.0,450.0,1.0,,,,,,,,,green,triangle
0.0,5.0,1.0,1.0,5.0,5.0,387.4518389202421,6.0,0.0,part_2,stop,450.0,450.0,3.0,,,,,,,,,cyan,I
0.0,2.0,2.0,0.0,5.0,5.0,601.2426371617039,6.0,0.0,part_2,go,400.0,450.0,1.0,,,,,,,,,white,cross
0.0,7.0,3.0,1.0,6.0,6.0,468.6643311615626,6.0,0.0,part_2,stop,400.0,450.0,3.0,,,,,,,,,gray,square
0.0,5.0,1.0,1.0,6.0,0.0,0.0,6.0,0.0,part_2,stop,400.0,400.0,4.0,,,,,,,,,cyan,I
0.0,5.0,1.0,1.0,6.0,6.0,413.0000990007829,6.0,0.0,part_2,stop,400.0,450.0,3.0,,,,,,,,,cyan,I
0.0,4.0,4.0,0.0,6.0,6.0,548.7875872440782,6.0,0.0,part_2,go,400.0,400.0,1.0,,,,,,,,,blue,hexagon
0.0,5.0,1.0,1.0,5.0,5.0,380.0847551610786,6.0,0.0,part_2,stop,400.0,400.0,3.0,,,,,,,,,cyan,I
0.0,8.0,4.0,1.0,6.0,6.0,561.1639967555675,6.0,0.0,part_2,go,350.0,400.0,1.0,,,,,,,,,green,triangle
0.0,5.0,1.0,1.0,6.0,0.0,0.0,6.0,0.0,part_2,stop,350.0,400.0,4.0,,,,,,,,,cyan,I
0.0,3.0,3.0,0.0,6.0,6.0,596.3368824031932,6.0,0.0,part_2,go,350.0,450.0,1.0,,,,,,,,,yellow,diamond
0.0,1.0,1.0,0.0,6.0,6.0,429.8912454851233,6.0,0.0,part_2,go,350.0,450.0,1.0,,,,,,,,,orange,flipped triangle
0.0,1.0,1.0,0.0,5.0,5.0,497.4419754034898,6.0,0.0,part_2,go,350.0,450.0,1.0,,,,,,,,,orange,flipped triangle
0.0,2.0,2.0,0.0,6.0,6.0,532.0210424033576,6.0,0.0,part_2,go,350.0,450.0,1.0,,,,,,,,,white,cross
0.0,2.0,2.0,0.0,5.0,5.0,543.6496864040237,6.0,0.0,part_2,go,350.0,450.0,1.0,,,,,,,,,white,cross
0.0,8.0,4.0,1.0,5.0,5.0,477.5119833229837,6.0,0.0,part_2,stop,350.0,450.0,3.0,,,,,,,,,green,triangle
0.0,2.0,2.0,0.0,6.0,6.0,479.1267502423579,6.0,0.0,part_2,go,300.0,450.0,1.0,,,,,,,,,white,cross
0.0,2.0,2.0,0.0,5.0,5.0,356.1850095666159,6.0,0.0,part_2,go,300.0,450.0,1.0,,,,,,,,,white,cross
0.0,4.0,4.0,0.0,6.0,6.0,502.0300753221818,6.0,0.0,part_2,go,300.0,450.0,1.0,,,,,,,,,blue,hexagon
0.0,5.0,1.0,1.0,5.0,0.0,0.0,6.0,0.0,part_2,stop,300.0,450.0,4.0,,,,,,,,,cyan,I
0.0,3.0,3.0,0.0,5.0,5.0,565.6875804033916,6.0,0.0,part_2,go,350.0,450.0,1.0,,,,,,,,,yellow,diamond
0.0,5.0,1.0,1.0,6.0,0.0,0.0,6.0,0.0,part_2,stop,350.0,450.0,4.0,,,,,,,,,cyan,I
0.0,2.0,2.0,0.0,5.0,5.0,488.3107486493827,6.0,0.0,part_2,go,350.0,500.0,1.0,,,,,,,,,white,cross
0.0,2.0,2.0,0.0,6.0,6.0,501.9613778367784,6.0,0.0,part_2,go,350.0,500.0,1.0,,,,,,,,,white,cross
0.0,8.0,4.0,1.0,5.0,0.0,0.0,6.0,0.0,part_2,stop,350.0,500.0,4.0,,,,,,,,,green,triangle
0.0,5.0,1.0,1.0,5.0,0.0,0.0,6.0,0.0,part_2,stop,400.0,500.0,4.0,,,,,,,,,cyan,I
0.0,7.0,3.0,1.0,5.0,5.0,514.4200833219656,6.0,0.0,part_2,go,450.0,500.0,1.0,,,,,,,,,gray,square
0.0,8.0,4.0,1.0,5.0,5.0,628.7529255660047,6.0,0.0,part_2,stop,450.0,500.0,3.0,,,,,,,,,green,triangle
0.0,7.0,3.0,1.0,6.0,0.0,0.0,6.0,0.0,part_2,stop,400.0,500.0,4.0,,,,,,,,,gray,square
0.0,3.0,3.0,0.0,6.0,6.0,359.3403875656804,6.0,0.0,part_2,go,400.0,550.0,1.0,,,,,,,,,yellow,diamond
0.0,2.0,2.0,0.0,5.0,5.0,618.8273241623392,6.0,0.0,part_2,go,400.0,550.0,1.0,,,,,,,,,white,cross
0.0,2.0,2.0,0.0,5.0,5.0,575.1799972422305,6.0,0.0,part_2,go,400.0,550.0,1.0,,,,,,,,,white,cross
0.0,5.0,1.0,1.0,6.0,6.0,452.3045242440275,6.0,0.0,part_2,go,400.0,550.0,1.0,,,,,,,,,cyan,I
0.0,4.0,4.0,0.0,5.0,5.0,453.4094030805136,6.0,0.0,part_2,go,400.0,550.0,1.0,,,,,,,,,blue,hexagon
0.0,7.0,3.0,1.0,6.0,6.0,468.8847993238596,7.0,0.0,part_2,stop,400.0,550.0,3.0,,,,,,,,,gray,square
0.0,5.0,1.0,1.0,6.0,6.0,558.9540981618484,7.0,0.0,part_2,stop,400.0,500.0,3.0,,,,,,,,,cyan,I
0.0,3.0,3.0,0.0,5.0,5.0,694.163069321803,7.0,0.0,part_2,go,400.0,450.0,1.0,,,,,,,,,yellow,diamond
0.0,4.0,4.0,0.0,5.0,5.0,582.3527710817871,7.0,0.0,part_2,go,400.0,450.0,1.0,,,,,,,,,blue,hexagon
0.0,6.0,2.0,1.0,5.0,5.0,606.4669685656554,7.0,0.0,part_2,go,400.0,450.0,1.0,,,,,,,,,magenta,circle
0.0,6.0,2.0,1.0,5.0,5.0,518.3323493238277,7.0,0.0,part_2,stop,400.0,450.0,3.0,,,,,,,,,magenta,circle
0.0,2.0,2.0,0.0,6.0,6.0,573.6855780014594,7.0,0.0,part_2,go,350.0,450.0,1.0,,,,,,,,,white,cross
0.0,1.0,1.0,0.0,5.0,5.0,608.7079913231719,7.0,0.0,part_2,go,350.0,450.0,1.0,,,,,,,,,orange,flipped triangle
0.0,7.0,3.0,1.0,6.0,0.0,0.0,7.0,0.0,part_2,stop,350.0,450.0,4.0,,,,,,,,,gray,square
0.0,2.0,2.0,0.0,5.0,5.0,600.0519991630426,7.0,0.0,part_2,go,350.0,500.0,1.0,,,,,,,,,white,cross
0.0,4.0,4.0,0.0,5.0,5.0,655.684669243783,7.0,0.0,part_2,go,350.0,500.0,1.0,,,,,,,,,blue,hexagon
0.0,3.0,3.0,0.0,6.0,6.0,624.6196444863017,7.0,0.0,part_2,go,350.0,500.0,1.0,,,,,,,,,yellow,diamond
0.0,1.0,1.0,0.0,6.0,6.0,590.6279634855309,7.0,0.0,part_2,go,350.0,500.0,1.0,,,,,,,,,orange,flipped triangle
0.0,2.0,2.0,0.0,6.0,6.0,501.47400191781344,7.0,0.0,part_2,go,350.0,500.0,1.0,,,,,,,,,white,cross
0.0,3.0,3.0,0.0,6.0,6.0,582.0817909989273,7.0,0.0,part_2,go,350.0,500.0,1.0,,,,,,,,,yellow,diamond
0.0,8.0,4.0,1.0,6.0,6.0,448.0716981615842,7.0,0.0,part_2,stop,350.0,500.0,3.0,,,,,,,,,green,triangle
0.0,4.0,4.0,0.0,6.0,6.0,616.3184784054465,7.0,0.0,part_2,go,350.0,450.0,1.0,,,,,,,,,blue,hexagon
0.0,6.0,2.0,1.0,5.0,0.0,0.0,7.0,0.0,part_2,stop,350.0,450.0,4.0,,,,,,,,,magenta,circle
0.0,4.0,4.0,0.0,5.0,5.0,561.1335953235539,7.0,0.0,part_2,go,400.0,450.0,1.0,,,,,,,,,blue,hexagon
0.0,6.0,2.0,1.0,5.0,0.0,0.0,7.0,0.0,part_2,stop,400.0,450.0,4.0,,,,,,,,,magenta,circle
0.0,1.0,1.0,0.0,5.0,5.0,485.2939750817313,7.0,0.0,part_2,go,450.0,450.0,1.0,,,,,,,,,orange,flipped triangle
0.0,3.0,3.0,0.0,6.0,6.0,508.0402934054291,7.0,0.0,part_2,go,450.0,450.0,1.0,,,,,,,,,yellow,diamond
0.0,7.0,3.0,1.0,6.0,6.0,373.388273485034,7.0,0.0,part_2,go,450.0,450.0,1.0,,,,,,,,,gray,square
0.0,3.0,3.0,0.0,6.0,6.0,565.5056420819164,7.0,0.0,part_2,go,450.0,450.0,1.0,,,,,,,,,yellow,diamond
0.0,6.0,2.0,1.0,6.0,0.0,0.0,7.0,0.0,part_2,stop,450.0,450.0,4.0,,,,,,,,,magenta,circle
0.0,8.0,4.0,1.0,6.0,6.0,656.7447724846716,7.0,0.0,part_2,go,450.0,500.0,1.0,,,,,,,,,green,triangle
0.0,4.0,4.0,0.0,6.0,6.0,411.6078106490022,7.0,0.0,part_2,go,450.0,500.0,1.0,,,,,,,,,blue,hexagon
0.0,1.0,1.0,0.0,5.0,5.0,446.733187243808,7.0,0.0,part_2,go,450.0,500.0,1.0,,,,,,,,,orange,flipped triangle
0.0,2.0,2.0,0.0,5.0,5.0,546.9169421630795,7.0,0.0,part_2,go,450.0,500.0,1.0,,,,,,,,,white,cross
0.0,3.0,3.0,0.0,5.0,5.0,604.6336922427145,7.0,0.0,part_2,go,450.0,500.0,1.0,,,,,,,,,yellow,diamond
0.0,2.0,2.0,0.0,5.0,5.0,649.5806170805736,7.0,0.0,part_2,go,450.0,500.0,1.0,,,,,,,,,white,cross
0.0,1.0,1.0,0.0,6.0,6.0,572.5196740004321,7.0,0.0,part_2,go,450.0,500.0,1.0,,,,,,,,,orange,flipped triangle
0.0,7.0,3.0,1.0,6.0,6.0,459.7801361614984,7.0,0.0,part_2,stop,450.0,500.0,3.0,,,,,,,,,gray,square
0.0,5.0,1.0,1.0,6.0,6.0,618.6375599190796,7.0,0.0,part_2,go,450.0,450.0,1.0,,,,,,,,,cyan,I
0.0,4.0,4.0,0.0,6.0,6.0,461.712882242864,7.0,0.0,part_2,go,450.0,450.0,1.0,,,,,,,,,blue,hexagon
0.0,6.0,2.0,1.0,6.0,6.0,608.7155110817548,7.0,0.0,part_2,go,450.0,450.0,1.0,,,,,,,,,magenta,circle
0.0,1.0,1.0,0.0,6.0,6.0,1006.2054071622697,8.0,0.0,part_2,go,450.0,450.0,1.0,,,,,,,,,orange,flipped triangle
0.0,2.0,2.0,0.0,6.0,6.0,443.091194565568,8.0,0.0,part_2,go,450.0,450.0,1.0,,,,,,,,,white,cross
0.0,7.0,3.0,1.0,6.0,6.0,377.2853103237139,8.0,0.0,part_2,stop,450.0,450.0,3.0,,,,,,,,,gray,square
0.0,2.0,2.0,0.0,5.0,5.0,467.8163112439506,8.0,0.0,part_2,go,450.0,400.0,1.0,,,,,,,,,white,cross
0.0,8.0,4.0,1.0,5.0,5.0,391.0086094856524,8.0,0.0,part_2,go,450.0,400.0,1.0,,,,,,,,,green,triangle
0.0,2.0,2.0,0.0,6.0,6.0,605.2698242438055,8.0,0.0,part_2,go,450.0,400.0,1.0,,,,,,,,,white,cross
0.0,7.0,3.0,1.0,6.0,6.0,593.987862323047,8.0,0.0,part_2,go,450.0,400.0,1.0,,,,,,,,,gray,square
0.0,3.0,3.0,0.0,6.0,6.0,593.8094582434132,8.0,0.0,part_2,go,450.0,400.0,1.0,,,,,,,,,yellow,diamond
0.0,8.0,4.0,1.0,5.0,5.0,460.0297580818733,8.0,0.0,part_2,stop,450.0,400.0,3.0,,,,,,,,,green,triangle
0.0,7.0,3.0,1.0,5.0,0.0,0.0,8.0,0.0,part_2,stop,400.0,400.0,4.0,,,,,,,,,gray,square
0.0,2.0,2.0,0.0,6.0,6.0,417.9329279995727,8.0,0.0,part_2,go,450.0,400.0,1.0,,,,,,,,,white,cross
0.0,4.0,4.0,0.0,6.0,6.0,451.5576456469716,8.0,0.0,part_2,go,450.0,400.0,1.0,,,,,,,,,blue,hexagon
0.0,7.0,3.0,1.0,6.0,0.0,0.0,8.0,0.0,part_2,stop,450.0,400.0,4.0,,,,,,,,,gray,square
0.0,3.0,3.0,0.0,6.0,6.0,464.4069036476139,8.0,0.0,part_2,go,450.0,450.0,1.0,,,,,,,,,yellow,diamond
0.0,8.0,4.0,1.0,5.0,5.0,477.5395023225428,8.0,0.0,part_2,stop,450.0,450.0,3.0,,,,,,,,,green,triangle
0.0,1.0,1.0,0.0,6.0,6.0,490.0327952436782,8.0,0.0,part_2,go,400.0,450.0,1.0,,,,,,,,,orange,flipped triangle
0.0,8.0,4.0,1.0,6.0,0.0,0.0,8.0,0.0,part_2,stop,400.0,450.0,4.0,,,,,,,,,green,triangle
0.0,4.0,4.0,0.0,5.0,5.0,423.1282252439996,8.0,0.0,part_2,go,400.0,500.0,1.0,,,,,,,,,blue,hexagon
0.0,7.0,3.0,1.0,5.0,5.0,468.2903814045858,8.0,0.0,part_2,go,400.0,500.0,1.0,,,,,,,,,gray,square
0.0,1.0,1.0,0.0,5.0,5.0,683.6187023236562,8.0,0.0,part_2,go,400.0,500.0,1.0,,,,,,,,,orange,flipped triangle
0.0,1.0,1.0,0.0,5.0,5.0,550.3304213234514,8.0,0.0,part_2,go,400.0,500.0,1.0,,,,,,,,,orange,flipped triangle
0.0,6.0,2.0,1.0,6.0,6.0,448.7511643237667,8.0,0.0,part_2,stop,400.0,500.0,3.0,,,,,,,,,magenta,circle
0.0,3.0,3.0,0.0,6.0,6.0,461.2644683238613,8.0,0.0,part_2,go,400.0,450.0,1.0,,,,,,,,,yellow,diamond
0.0,5.0,1.0,1.0,5.0,5.0,506.4893811613729,8.0,0.0,part_2,stop,400.0,450.0,3.0,,,,,,,,,cyan,I
0.0,7.0,3.0,1.0,5.0,0.0,0.0,8.0,0.0,part_2,stop,350.0,450.0,4.0,,,,,,,,,gray,square
0.0,8.0,4.0,1.0,5.0,0.0,0.0,8.0,0.0,part_2,stop,400.0,450.0,4.0,,,,,,,,,green,triangle
0.0,4.0,4.0,0.0,6.0,6.0,609.7232011616143,8.0,0.0,part_2,go,450.0,450.0,1.0,,,,,,,,,blue,hexagon
0.0,7.0,3.0,1.0,5.0,0.0,0.0,8.0,0.0,part_2,stop,450.0,450.0,4.0,,,,,,,,,gray,square
0.0,6.0,2.0,1.0,6.0,0.0,0.0,8.0,0.0,part_2,stop,500.0,450.0,4.0,,,,,,,,,magenta,circle
0.0,2.0,2.0,0.0,6.0,6.0,286.7932469180232,8.0,0.0,part_2,go,500.0,500.0,1.0,,,,,,,,,white,cross
0.0,4.0,4.0,0.0,6.0,6.0,355.0433524851542,8.0,0.0,part_2,go,500.0,500.0,1.0,,,,,,,,,blue,hexagon
0.0,2.0,2.0,0.0,6.0,6.0,378.3471806473244,8.0,0.0,part_2,go,500.0,500.0,1.0,,,,,,,,,white,cross
0.0,3.0,3.0,0.0,5.0,5.0,447.929696243591,8.0,0.0,part_2,go,500.0,500.0,1.0,,,,,,,,,yellow,diamond
0.0,6.0,2.0,1.0,6.0,6.0,436.2169834857923,8.0,0.0,part_2,stop,500.0,500.0,3.0,,,,,,,,,magenta,circle
0.0,6.0,2.0,1.0,5.0,5.0,313.8847254049324,8.0,0.0,part_2,stop,500.0,450.0,3.0,,,,,,,,,magenta,circle
0.0,3.0,3.0,0.0,5.0,5.0,494.7826098359655,8.0,0.0,part_2,go,450.0,450.0,1.0,,,,,,,,,yellow,diamond
0.0,5.0,1.0,1.0,7.0,4.0,2128.2481189991813,1.0,1.0,part_3,go,0.0,0.0,0.0,102.0,3.0,68.0,204.0,170.0,102.0,34.0,136.0,cyan,I
0.0,8.0,4.0,1.0,7.0,1.0,2990.130164740549,1.0,1.0,part_3,go,0.0,0.0,0.0,108.0,2.0,108.0,216.0,54.0,162.0,324.0,270.0,green,triangle
0.0,7.0,3.0,1.0,7.0,5.0,704.0779042345093,1.0,2.0,part_3,go,0.0,0.0,0.0,39.0,1.0,156.0,234.0,117.0,195.0,39.0,78.0,gray,square
0.0,4.0,4.0,0.0,7.0,6.0,1806.3999294809037,1.0,1.0,part_3,go,0.0,0.0,0.0,204.0,6.0,136.0,170.0,102.0,34.0,68.0,204.0,blue,hexagon
0.0,5.0,1.0,1.0,7.0,3.0,1807.6530094949703,1.0,1.0,part_3,go,0.0,0.0,0.0,117.0,3.0,78.0,195.0,117.0,39.0,156.0,234.0,cyan,I
0.0,3.0,3.0,0.0,7.0,5.0,1932.674918740304,1.0,1.0,part_3,go,0.0,0.0,0.0,156.0,4.0,78.0,234.0,39.0,117.0,156.0,195.0,yellow,diamond
0.0,4.0,4.0,0.0,7.0,3.0,2384.625854987462,1.0,1.0,part_3,go,0.0,0.0,0.0,294.0,6.0,147.0,196.0,294.0,245.0,98.0,49.0,blue,hexagon
0.0,4.0,4.0,0.0,7.0,1.0,2666.931867726817,1.0,1.0,part_3,go,0.0,0.0,0.0,264.0,6.0,264.0,132.0,44.0,176.0,220.0,88.0,blue,hexagon
0.0,3.0,3.0,0.0,7.0,6.0,2475.65067674077,1.0,1.0,part_3,go,0.0,0.0,0.0,68.0,2.0,204.0,136.0,102.0,170.0,34.0,68.0,yellow,diamond
0.0,2.0,2.0,0.0,7.0,5.0,2747.0338229868503,1.0,1.0,part_3,go,0.0,0.0,0.0,136.0,4.0,204.0,170.0,102.0,34.0,136.0,68.0,white,cross
0.0,5.0,1.0,1.0,7.0,2.0,1642.7891004805133,1.0,2.0,part_3,go,0.0,0.0,0.0,49.0,1.0,147.0,49.0,294.0,196.0,245.0,98.0,cyan,I
0.0,4.0,4.0,0.0,7.0,6.0,1552.9770604935038,1.0,1.0,part_3,go,0.0,0.0,0.0,117.0,3.0,195.0,156.0,234.0,78.0,39.0,117.0,blue,hexagon
0.0,3.0,3.0,0.0,7.0,2.0,2105.1973417397676,1.0,1.0,part_3,go,0.0,0.0,0.0,78.0,2.0,195.0,78.0,156.0,117.0,39.0,234.0,yellow,diamond
0.0,3.0,3.0,0.0,7.0,4.0,1488.6565597407753,1.0,1.0,part_3,go,0.0,0.0,0.0,170.0,5.0,102.0,68.0,34.0,170.0,136.0,204.0,yellow,diamond
0.0,6.0,2.0,1.0,7.0,4.0,2512.797782726921,1.0,1.0,part_3,go,0.0,0.0,0.0,34.0,1.0,204.0,102.0,170.0,34.0,136.0,68.0,magenta,circle
0.0,4.0,4.0,0.0,7.0,4.0,2424.6760832356813,1.0,1.0,part_3,go,0.0,0.0,0.0,324.0,6.0,108.0,162.0,216.0,324.0,54.0,270.0,blue,hexagon
0.0,1.0,1.0,0.0,7.0,6.0,4034.2825767402246,1.0,1.0,part_3,go,0.0,0.0,0.0,196.0,4.0,49.0,294.0,98.0,245.0,147.0,196.0,orange,flipped triangle
0.0,8.0,4.0,1.0,7.0,2.0,3264.8484722212743,1.0,1.0,part_3,go,0.0,0.0,0.0,108.0,2.0,324.0,108.0,270.0,162.0,54.0,216.0,green,triangle
0.0,2.0,2.0,0.0,7.0,5.0,3592.734512494644,1.0,1.0,part_3,go,0.0,0.0,0.0,234.0,6.0,156.0,78.0,195.0,39.0,234.0,117.0,white,cross
0.0,7.0,3.0,1.0,7.0,1.0,1940.968242986855,1.0,1.0,part_3,go,0.0,0.0,0.0,88.0,2.0,88.0,264.0,220.0,132.0,176.0,44.0,gray,square
0.0,8.0,4.0,1.0,7.0,1.0,747.9331979866402,2.0,1.0,part_3,go,0.0,0.0,0.0,264.0,6.0,264.0,220.0,176.0,44.0,88.0,132.0,green,triangle
0.0,4.0,4.0,0.0,7.0,5.0,511.72055024653673,2.0,1.0,part_3,go,0.0,0.0,0.0,195.0,5.0,156.0,39.0,117.0,78.0,195.0,234.0,blue,hexagon
0.0,2.0,2.0,0.0,7.0,4.0,512.2654207407322,2.0,1.0,part_3,go,0.0,0.0,0.0,88.0,2.0,176.0,44.0,132.0,88.0,220.0,264.0,white,cross
0.0,1.0,1.0,0.0,7.0,2.0,266.7814649739739,2.0,1.0,part_3,go,0.0,0.0,0.0,132.0,3.0,220.0,132.0,264.0,88.0,44.0,176.0,orange,flipped triangle
0.0,2.0,2.0,0.0,7.0,4.0,379.3623287419905,2.0,1.0,part_3,go,0.0,0.0,0.0,98.0,2.0,49.0,196.0,245.0,98.0,294.0,147.0,white,cross
0.0,1.0,1.0,0.0,7.0,6.0,854.8368937281339,2.0,1.0,part_3,go,0.0,0.0,0.0,78.0,2.0,234.0,156.0,39.0,117.0,195.0,78.0,orange,flipped triangle
0.0,8.0,4.0,1.0,7.0,4.0,1103.4191982216726,2.0,1.0,part_3,go,0.0,0.0,0.0,39.0,1.0,195.0,117.0,78.0,39.0,234.0,156.0,green,triangle
0.0,4.0,4.0,0.0,7.0,2.0,1205.706105727586,2.0,1.0,part_3,go,0.0,0.0,0.0,102.0,3.0,68.0,102.0,204.0,170.0,136.0,34.0,blue,hexagon
0.0,3.0,3.0,0.0,7.0,3.0,688.7848869864683,2.0,1.0,part_3,go,0.0,0.0,0.0,196.0,4.0,49.0,147.0,196.0,294.0,98.0,245.0,yellow,diamond
0.0,6.0,2.0,1.0,7.0,2.0,858.5970570002246,2.0,1.0,part_3,go,0.0,0.0,0.0,54.0,1.0,270.0,54.0,108.0,324.0,216.0,162.0,magenta,circle
0.0,4.0,4.0,0.0,7.0,6.0,679.4811814943387,2.0,1.0,part_3,go,0.0,0.0,0.0,98.0,2.0,49.0,196.0,147.0,294.0,245.0,98.0,blue,hexagon
0.0,3.0,3.0,0.0,7.0,3.0,500.0984739872365,2.0,1.0,part_3,go,0.0,0.0,0.0,98.0,2.0,49.0,245.0,98.0,147.0,196.0,294.0,yellow,diamond
0.0,7.0,3.0,1.0,7.0,5.0,524.6683727400523,2.0,1.0,part_3,go,0.0,0.0,0.0,102.0,3.0,204.0,34.0,68.0,170.0,102.0,136.0,gray,square
0.0,8.0,4.0,1.0,7.0,1.0,231.8863967393554,2.0,1.0,part_3,go,0.0,0.0,0.0,39.0,1.0,39.0,234.0,117.0,156.0,78.0,195.0,green,triangle
0.0,1.0,1.0,0.0,7.0,4.0,718.1035199864709,2.0,1.0,part_3,go,0.0,0.0,0.0,108.0,2.0,270.0,324.0,54.0,108.0,216.0,162.0,orange,flipped triangle
0.0,6.0,2.0,1.0,7.0,5.0,1043.552923740208,2.0,1.0,part_3,go,0.0,0.0,0.0,108.0,2.0,54.0,162.0,216.0,270.0,108.0,324.0,magenta,circle
0.0,5.0,1.0,1.0,7.0,4.0,1022.8302597406582,2.0,1.0,part_3,go,0.0,0.0,0.0,176.0,4.0,132.0,44.0,264.0,176.0,220.0,88.0,cyan,I
0.0,5.0,1.0,1.0,7.0,5.0,427.2116037409432,2.0,1.0,part_3,go,0.0,0.0,0.0,39.0,1.0,117.0,195.0,156.0,78.0,39.0,234.0,cyan,I
0.0,8.0,4.0,1.0,7.0,1.0,789.9033194807998,2.0,1.0,part_3,go,0.0,0.0,0.0,34.0,1.0,34.0,102.0,170.0,136.0,68.0,204.0,green,triangle
0.0,6.0,2.0,1.0,7.0,5.0,316.4332589749392,2.0,1.0,part_3,go,0.0,0.0,0.0,49.0,1.0,294.0,98.0,245.0,147.0,49.0,196.0,magenta,circle
0.0,7.0,3.0,1.0,7.0,6.0,593.5305224938929,3.0,1.0,part_3,go,0.0,0.0,0.0,54.0,1.0,108.0,162.0,324.0,216.0,270.0,54.0,gray,square
0.0,6.0,2.0,1.0,7.0,2.0,258.041681987379,3.0,1.0,part_3,go,0.0,0.0,0.0,176.0,4.0,44.0,176.0,220.0,88.0,132.0,264.0,magenta,circle
0.0,5.0,1.0,1.0,7.0,4.0,877.613657481561,3.0,1.0,part_3,go,0.0,0.0,0.0,54.0,1.0,270.0,216.0,162.0,54.0,324.0,108.0,cyan,I
0.0,2.0,2.0,0.0,7.0,2.0,463.5442862345371,3.0,1.0,part_3,go,0.0,0.0,0.0,216.0,4.0,162.0,216.0,324.0,108.0,270.0,54.0,white,cross
0.0,2.0,2.0,0.0,7.0,5.0,857.0977764957206,3.0,1.0,part_3,go,0.0,0.0,0.0,170.0,5.0,136.0,68.0,102.0,204.0,170.0,34.0,white,cross
0.0,3.0,3.0,0.0,7.0,1.0,677.8978714937693,3.0,1.0,part_3,go,0.0,0.0,0.0,162.0,3.0,162.0,216.0,54.0,270.0,324.0,108.0,yellow,diamond
0.0,6.0,2.0,1.0,7.0,4.0,948.7799429734878,3.0,1.0,part_3,go,0.0,0.0,0.0,68.0,2.0,136.0,102.0,34.0,68.0,204.0,170.0,magenta,circle
0.0,8.0,4.0,1.0,7.0,4.0,1107.627383495128,3.0,1.0,part_3,go,0.0,0.0,0.0,245.0,5.0,98.0,147.0,294.0,245.0,196.0,49.0,green,triangle
0.0,8.0,4.0,1.0,7.0,6.0,333.7261092365224,3.0,1.0,part_3,go,0.0,0.0,0.0,220.0,5.0,132.0,44.0,88.0,264.0,176.0,220.0,green,triangle
0.0,6.0,2.0,1.0,7.0,2.0,1222.1985222349758,3.0,1.0,part_3,go,0.0,0.0,0.0,39.0,1.0,156.0,39.0,234.0,117.0,78.0,195.0,magenta,circle
0.0,1.0,1.0,0.0,7.0,4.0,706.764777234639,3.0,1.0,part_3,go,0.0,0.0,0.0,88.0,2.0,176.0,220.0,44.0,88.0,132.0,264.0,orange,flipped triangle
0.0,5.0,1.0,1.0,7.0,2.0,617.9900004808587,3.0,1.0,part_3,go,0.0,0.0,0.0,98.0,2.0,196.0,98.0,49.0,147.0,245.0,294.0,cyan,I
0.0,7.0,3.0,1.0,7.0,5.0,584.6071732848941,3.0,1.0,part_3,go,0.0,0.0,0.0,54.0,1.0,216.0,324.0,162.0,270.0,54.0,108.0,gray,square
0.0,4.0,4.0,0.0,7.0,4.0,305.8382102353789,3.0,1.0,part_3,go,0.0,0.0,0.0,264.0,6.0,132.0,176.0,44.0,264.0,88.0,220.0,blue,hexagon
0.0,7.0,3.0,1.0,7.0,2.0,745.6393539741839,3.0,1.0,part_3,go,0.0,0.0,0.0,156.0,4.0,39.0,156.0,78.0,234.0,117.0,195.0,gray,square
0.0,6.0,2.0,1.0,7.0,3.0,677.4002454949368,3.0,1.0,part_3,go,0.0,0.0,0.0,44.0,1.0,88.0,132.0,44.0,176.0,220.0,264.0,magenta,circle
0.0,5.0,1.0,1.0,7.0,5.0,657.382090235842,3.0,1.0,part_3,go,0.0,0.0,0.0,54.0,1.0,216.0,324.0,162.0,108.0,54.0,270.0,cyan,I
0.0,7.0,3.0,1.0,7.0,6.0,276.4642304937297,3.0,1.0,part_3,go,0.0,0.0,0.0,102.0,3.0,68.0,136.0,170.0,204.0,34.0,102.0,gray,square
0.0,7.0,3.0,1.0,7.0,2.0,624.5885182452184,3.0,1.0,part_3,go,0.0,0.0,0.0,196.0,4.0,49.0,196.0,294.0,98.0,147.0,245.0,gray,square
0.0,1.0,1.0,0.0,7.0,3.0,559.7840957270819,3.0,1.0,part_3,go,0.0,0.0,0.0,156.0,4.0,117.0,78.0,156.0,195.0,234.0,39.0,orange,flipped triangle
0.0,1.0,1.0,0.0,7.0,6.0,715.0556614815287,4.0,1.0,part_3,go,0.0,0.0,0.0,34.0,1.0,204.0,68.0,170.0,136.0,102.0,34.0,orange,flipped triangle
0.0,4.0,4.0,0.0,7.0,2.0,1435.8575047408522,4.0,1.0,part_3,go,0.0,0.0,0.0,162.0,3.0,216.0,162.0,54.0,270.0,108.0,324.0,blue,hexagon
0.0,5.0,1.0,1.0,7.0,5.0,805.6105552459485,4.0,1.0,part_3,go,0.0,0.0,0.0,88.0,2.0,44.0,264.0,220.0,132.0,88.0,176.0,cyan,I
0.0,3.0,3.0,0.0,7.0,3.0,1010.7951427416992,4.0,1.0,part_3,go,0.0,0.0,0.0,132.0,3.0,44.0,176.0,132.0,220.0,264.0,88.0,yellow,diamond
0.0,3.0,3.0,0.0,7.0,6.0,874.7940429857408,4.0,1.0,part_3,go,0.0,0.0,0.0,162.0,3.0,54.0,108.0,270.0,324.0,216.0,162.0,yellow,diamond
0.0,2.0,2.0,0.0,7.0,2.0,606.7179277542891,4.0,1.0,part_3,go,0.0,0.0,0.0,98.0,2.0,147.0,98.0,294.0,245.0,49.0,196.0,white,cross
0.0,6.0,2.0,1.0,7.0,5.0,618.0853309742815,4.0,1.0,part_3,go,0.0,0.0,0.0,156.0,4.0,234.0,78.0,117.0,39.0,156.0,195.0,magenta,circle
0.0,1.0,1.0,0.0,7.0,5.0,1711.162682495342,4.0,1.0,part_3,go,0.0,0.0,0.0,68.0,2.0,102.0,170.0,34.0,204.0,68.0,136.0,orange,flipped triangle
0.0,7.0,3.0,1.0,7.0,3.0,812.1596282471728,4.0,1.0,part_3,go,0.0,0.0,0.0,44.0,1.0,88.0,220.0,44.0,264.0,132.0,176.0,gray,square
0.0,6.0,2.0,1.0,7.0,5.0,1050.4309049865697,4.0,1.0,part_3,go,0.0,0.0,0.0,196.0,4.0,245.0,49.0,294.0,147.0,196.0,98.0,magenta,circle
0.0,8.0,4.0,1.0,7.0,4.0,938.1395184809662,4.0,1.0,part_3,go,0.0,0.0,0.0,196.0,4.0,98.0,245.0,49.0,196.0,147.0,294.0,green,triangle
0.0,2.0,2.0,0.0,7.0,5.0,984.8589632456424,4.0,1.0,part_3,go,0.0,0.0,0.0,162.0,3.0,108.0,324.0,216.0,270.0,162.0,54.0,white,cross
0.0,1.0,1.0,0.0,7.0,3.0,907.3938759738668,4.0,1.0,part_3,go,0.0,0.0,0.0,196.0,4.0,98.0,294.0,196.0,147.0,245.0,49.0,orange,flipped triangle
0.0,7.0,3.0,1.0,7.0,5.0,794.7132687404519,4.0,1.0,part_3,go,0.0,0.0,0.0,245.0,5.0,294.0,49.0,147.0,98.0,245.0,196.0,gray,square
0.0,5.0,1.0,1.0,7.0,4.0,1122.8730464936234,4.0,1.0,part_3,go,0.0,0.0,0.0,170.0,5.0,204.0,68.0,102.0,170.0,136.0,34.0,cyan,I
0.0,8.0,4.0,1.0,7.0,4.0,742.6487089996954,4.0,1.0,part_3,go,0.0,0.0,0.0,102.0,3.0,136.0,170.0,204.0,102.0,34.0,68.0,green,triangle
0.0,3.0,3.0,0.0,7.0,2.0,787.9478047416342,4.0,1.0,part_3,go,0.0,0.0,0.0,132.0,3.0,220.0,132.0,44.0,176.0,88.0,264.0,yellow,diamond
0.0,2.0,2.0,0.0,7.0,4.0,934.7450579734868,4.0,1.0,part_3,go,0.0,0.0,0.0,156.0,4.0,117.0,234.0,195.0,156.0,39.0,78.0,white,cross
0.0,1.0,1.0,0.0,7.0,6.0,1004.5347529739956,4.0,1.0,part_3,go,0.0,0.0,0.0,162.0,3.0,324.0,216.0,54.0,270.0,108.0,162.0,orange,flipped triangle
0.0,2.0,2.0,0.0,7.0,3.0,902.8633089856156,4.0,1.0,part_3,go,0.0,0.0,0.0,264.0,6.0,88.0,44.0,264.0,132.0,176.0,220.0,white,cross
