raw_reward_magnitude,stim_reward,stepwise_reward_magnitude,paired_with_stopping,stim_location,response,reaction_time,block,num_trial_presentations,which_phase,stop_signal_trial_type,left_SSD,right_SSD,accuracy,chosen_bidding_amount,chosen_bidding_level,possible_bid_1,possible_bid_2,possible_bid_3,possible_bid_4,possible_bid_5,possible_bid_6,color_text,shape_text
33.0,1.0,0.5,0.0,2.0,2.0,438.3800414798315,1.0,1.0,phase_1,,,,,,,,,,,,,orange,I
184.0,7.0,2.0,1.0,2.0,2.0,371.7678294633515,1.0,1.0,phase_1,,,,,,,,,,,,,yellow,circle
0.0,2.0,0.0,0.0,3.0,3.0,404.2569269804517,1.0,1.0,phase_1,,,,,,,,,,,,,gray,flipped triangle
219.0,7.0,2.0,1.0,3.0,3.0,472.0472204426187,1.0,1.0,phase_1,,,,,,,,,,,,,yellow,circle
0.0,2.0,0.0,0.0,4.0,4.0,338.1090744660469,1.0,1.0,phase_1,,,,,,,,,,,,,gray,flipped triangle
0.0,3.0,0.0,0.0,1.0,1.0,328.7403764916234,1.0,1.0,phase_1,,,,,,,,,,,,,magenta,hexagon
80.0,2.0,1.0,0.0,1.0,1.0,351.978615479311,1.0,1.0,phase_1,,,,,,,,,,,,,gray,flipped triangle
205.0,7.0,2.0,1.0,2.0,2.0,330.5197899826453,1.0,1.0,phase_1,,,,,,,,,,,,,yellow,circle
380.0,8.0,4.0,1.0,4.0,4.0,330.392847994517,1.0,1.0,phase_1,,,,,,,,,,,,,green,cross
0.0,2.0,0.0,0.0,4.0,4.0,351.5046044631162,1.0,1.0,phase_1,,,,,,,,,,,,,gray,flipped triangle
68.0,5.0,0.5,1.0,4.0,4.0,308.2878354762215,1.0,1.0,phase_1,,,,,,,,,,,,,blue,diamond
0.0,1.0,0.0,0.0,3.0,3.0,273.7277034611907,1.0,1.0,phase_1,,,,,,,,,,,,,orange,I
393.0,8.0,4.0,1.0,2.0,2.0,355.5291709853918,1.0,1.0,phase_1,,,,,,,,,,,,,green,cross
0.0,6.0,0.0,1.0,4.0,4.0,331.5289029924315,1.0,1.0,phase_1,,,,,,,,,,,,,white,triangle
0.0,5.0,0.0,1.0,3.0,3.0,367.5017389759887,1.0,1.0,phase_1,,,,,,,,,,,,,blue,diamond
419.0,8.0,4.0,1.0,1.0,1.0,367.3315804480808,1.0,1.0,phase_1,,,,,,,,,,,,,green,cross
86.0,6.0,1.0,1.0,3.0,3.0,287.9481744821532,1.0,1.0,phase_1,,,,,,,,,,,,,white,triangle
58.0,5.0,0.5,1.0,1.0,1.0,436.0321384883718,1.0,2.0,phase_1,,,,,,,,,,,,,blue,diamond
0.0,3.0,0.0,0.0,4.0,4.0,324.5766289619496,1.0,1.0,phase_1,,,,,,,,,,,,,magenta,hexagon
414.0,8.0,4.0,1.0,4.0,4.0,323.901940973883,1.0,1.0,phase_1,,,,,,,,,,,,,green,cross
75.0,2.0,1.0,0.0,2.0,2.0,348.1157129863277,1.0,1.0,phase_1,,,,,,,,,,,,,gray,flipped triangle
385.0,8.0,4.0,1.0,3.0,3.0,326.698699966073,1.0,1.0,phase_1,,,,,,,,,,,,,green,cross
121.0,2.0,1.0,0.0,4.0,4.0,394.1080734875868,1.0,1.0,phase_1,,,,,,,,,,,,,gray,flipped triangle
34.0,1.0,0.5,0.0,3.0,3.0,337.8683921109768,1.0,1.0,phase_1,,,,,,,,,,,,,orange,I
62.0,5.0,0.5,1.0,3.0,3.0,361.5125604337663,1.0,1.0,phase_1,,,,,,,,,,,,,blue,diamond
66.0,1.0,0.5,0.0,1.0,1.0,384.5438029748038,1.0,1.0,phase_1,,,,,,,,,,,,,orange,I
86.0,6.0,1.0,1.0,1.0,1.0,474.0568714623805,1.0,1.0,phase_1,,,,,,,,,,,,,white,triangle
411.0,8.0,4.0,1.0,2.0,2.0,328.3915249776328,1.0,1.0,phase_1,,,,,,,,,,,,,green,cross
51.0,5.0,0.5,1.0,1.0,1.0,387.0109129857155,1.0,1.0,phase_1,,,,,,,,,,,,,blue,diamond
195.0,3.0,2.0,0.0,4.0,4.0,397.2524504497414,1.0,1.0,phase_1,,,,,,,,,,,,,magenta,hexagon
191.0,3.0,2.0,0.0,4.0,4.0,330.8205344510497,1.0,1.0,phase_1,,,,,,,,,,,,,magenta,hexagon
94.0,6.0,1.0,1.0,1.0,1.0,375.9600524645066,1.0,1.0,phase_1,,,,,,,,,,,,,white,triangle
209.0,3.0,2.0,0.0,3.0,3.0,376.8196797682321,1.0,1.0,phase_1,,,,,,,,,,,,,magenta,hexagon
64.0,1.0,0.5,0.0,4.0,4.0,388.57859896234,1.0,1.0,phase_1,,,,,,,,,,,,,orange,I
0.0,7.0,0.0,1.0,3.0,3.0,365.8896649794769,1.0,1.0,phase_1,,,,,,,,,,,,,yellow,circle
66.0,5.0,0.5,1.0,1.0,1.0,367.1064019799814,1.0,1.0,phase_1,,,,,,,,,,,,,blue,diamond
76.0,2.0,1.0,0.0,3.0,3.0,355.6662334522116,1.0,1.0,phase_1,,,,,,,,,,,,,gray,flipped triangle
83.0,6.0,1.0,1.0,1.0,1.0,369.7432859844412,1.0,1.0,phase_1,,,,,,,,,,,,,white,triangle
76.0,6.0,1.0,1.0,2.0,2.0,289.48627249337727,1.0,1.0,phase_1,,,,,,,,,,,,,white,triangle
68.0,1.0,0.5,0.0,2.0,2.0,301.7026169763994,1.0,1.0,phase_1,,,,,,,,,,,,,orange,I
33.0,1.0,0.5,0.0,1.0,1.0,347.2233729626168,1.0,1.0,phase_1,,,,,,,,,,,,,orange,I
112.0,2.0,1.0,0.0,2.0,2.0,382.7657389629166,1.0,1.0,phase_1,,,,,,,,,,,,,gray,flipped triangle
407.0,8.0,4.0,1.0,2.0,2.0,314.9850524569046,1.0,1.0,phase_1,,,,,,,,,,,,,green,cross
409.0,4.0,4.0,0.0,2.0,2.0,271.3848639759817,1.0,1.0,phase_1,,,,,,,,,,,,,cyan,square
59.0,1.0,0.5,0.0,3.0,3.0,282.3744554625591,1.0,1.0,phase_1,,,,,,,,,,,,,orange,I
0.0,1.0,0.0,0.0,2.0,2.0,429.3783954926766,1.0,1.0,phase_1,,,,,,,,,,,,,orange,I
43.0,1.0,0.5,0.0,3.0,3.0,306.8481634618365,1.0,1.0,phase_1,,,,,,,,,,,,,orange,I
63.0,5.0,0.5,1.0,3.0,3.0,372.9912549897562,1.0,1.0,phase_1,,,,,,,,,,,,,blue,diamond
33.0,1.0,0.5,0.0,1.0,1.0,341.8089989645523,1.0,1.0,phase_1,,,,,,,,,,,,,orange,I
196.0,3.0,2.0,0.0,1.0,1.0,363.2026234845398,1.0,1.0,phase_1,,,,,,,,,,,,,magenta,hexagon
33.0,5.0,0.5,1.0,2.0,2.0,262.9688129600254,1.0,1.0,phase_1,,,,,,,,,,,,,blue,diamond
0.0,6.0,0.0,1.0,2.0,2.0,274.672940489836,1.0,1.0,phase_1,,,,,,,,,,,,,white,triangle
91.0,2.0,1.0,0.0,1.0,1.0,298.9045684662414,1.0,1.0,phase_1,,,,,,,,,,,,,gray,flipped triangle
391.0,8.0,4.0,1.0,1.0,1.0,332.0854449775652,1.0,1.0,phase_1,,,,,,,,,,,,,green,cross
399.0,8.0,4.0,1.0,4.0,4.0,366.2429194882861,1.0,2.0,phase_1,,,,,,,,,,,,,green,cross
197.0,7.0,2.0,1.0,3.0,3.0,378.6338804784463,1.0,1.0,phase_1,,,,,,,,,,,,,yellow,circle
0.0,7.0,0.0,1.0,4.0,4.0,378.4389594802633,1.0,1.0,phase_1,,,,,,,,,,,,,yellow,circle
0.0,1.0,0.0,0.0,3.0,3.0,333.8301624826272,1.0,1.0,phase_1,,,,,,,,,,,,,orange,I
0.0,4.0,0.0,0.0,4.0,4.0,336.0103739760234,1.0,1.0,phase_1,,,,,,,,,,,,,cyan,square
0.0,7.0,0.0,1.0,4.0,4.0,346.7854610062204,1.0,1.0,phase_1,,,,,,,,,,,,,yellow,circle
384.0,8.0,4.0,1.0,4.0,4.0,324.4944999460131,1.0,1.0,phase_1,,,,,,,,,,,,,green,cross
203.0,3.0,2.0,0.0,3.0,3.0,359.656553453533,1.0,1.0,phase_1,,,,,,,,,,,,,magenta,hexagon
200.0,3.0,2.0,0.0,2.0,2.0,348.8811914648977,1.0,1.0,phase_1,,,,,,,,,,,,,magenta,hexagon
418.0,4.0,4.0,0.0,2.0,2.0,405.2566759783076,1.0,1.0,phase_1,,,,,,,,,,,,,cyan,square
210.0,3.0,2.0,0.0,2.0,2.0,349.7434344681096,1.0,1.0,phase_1,,,,,,,,,,,,,magenta,hexagon
407.0,8.0,4.0,1.0,1.0,1.0,408.1013559771236,1.0,1.0,phase_1,,,,,,,,,,,,,green,cross
381.0,4.0,4.0,0.0,3.0,3.0,361.944334465079,1.0,1.0,phase_1,,,,,,,,,,,,,cyan,square
75.0,6.0,1.0,1.0,2.0,2.0,318.8668189613963,1.0,1.0,phase_1,,,,,,,,,,,,,white,triangle
55.0,1.0,0.5,0.0,3.0,3.0,341.228034478263,1.0,1.0,phase_1,,,,,,,,,,,,,orange,I
202.0,7.0,2.0,1.0,2.0,2.0,308.4525134909199,1.0,1.0,phase_1,,,,,,,,,,,,,yellow,circle
184.0,3.0,2.0,0.0,4.0,4.0,365.2813464650535,1.0,1.0,phase_1,,,,,,,,,,,,,magenta,hexagon
208.0,7.0,2.0,1.0,1.0,1.0,330.9161014622077,1.0,1.0,phase_1,,,,,,,,,,,,,yellow,circle
182.0,3.0,2.0,0.0,1.0,1.0,299.7346029878827,1.0,1.0,phase_1,,,,,,,,,,,,,magenta,hexagon
209.0,7.0,2.0,1.0,4.0,4.0,410.1966079615522,1.0,1.0,phase_1,,,,,,,,,,,,,yellow,circle
202.0,3.0,2.0,0.0,2.0,2.0,344.2249039580929,1.0,1.0,phase_1,,,,,,,,,,,,,magenta,hexagon
87.0,6.0,1.0,1.0,3.0,3.0,390.8120854757726,1.0,1.0,phase_1,,,,,,,,,,,,,white,triangle
80.0,6.0,1.0,1.0,1.0,1.0,301.4827709630481,1.0,1.0,phase_1,,,,,,,,,,,,,white,triangle
196.0,7.0,2.0,1.0,4.0,4.0,356.6250599760678,1.0,1.0,phase_1,,,,,,,,,,,,,yellow,circle
390.0,8.0,4.0,1.0,3.0,3.0,369.7232104896102,1.0,1.0,phase_1,,,,,,,,,,,,,green,cross
68.0,5.0,0.5,1.0,4.0,4.0,346.5855919421301,1.0,1.0,phase_1,,,,,,,,,,,,,blue,diamond
0.0,2.0,0.0,0.0,4.0,4.0,358.0639449646696,1.0,1.0,phase_1,,,,,,,,,,,,,gray,flipped triangle
222.0,7.0,2.0,1.0,2.0,2.0,348.2961004701792,1.0,1.0,phase_1,,,,,,,,,,,,,yellow,circle
95.0,6.0,1.0,1.0,2.0,2.0,338.6032704875106,1.0,1.0,phase_1,,,,,,,,,,,,,white,triangle
0.0,8.0,0.0,1.0,1.0,1.0,348.8670179722248,1.0,1.0,phase_1,,,,,,,,,,,,,green,cross
64.0,5.0,0.5,1.0,2.0,2.0,304.6576999477111,1.0,1.0,phase_1,,,,,,,,,,,,,blue,diamond
119.0,6.0,1.0,1.0,4.0,4.0,327.8069954758393,1.0,1.0,phase_1,,,,,,,,,,,,,white,triangle
96.0,6.0,1.0,1.0,4.0,4.0,329.0316249913303,1.0,1.0,phase_1,,,,,,,,,,,,,white,triangle
75.0,6.0,1.0,1.0,2.0,2.0,351.0896564766881,1.0,1.0,phase_1,,,,,,,,,,,,,white,triangle
0.0,8.0,0.0,1.0,2.0,2.0,352.1234574727714,1.0,1.0,phase_1,,,,,,,,,,,,,green,cross
0.0,5.0,0.0,1.0,4.0,4.0,363.266661450325,1.0,1.0,phase_1,,,,,,,,,,,,,blue,diamond
402.0,4.0,4.0,0.0,1.0,1.0,331.1999779762118,1.0,1.0,phase_1,,,,,,,,,,,,,cyan,square
60.0,1.0,0.5,0.0,4.0,4.0,364.4177989845047,1.0,1.0,phase_1,,,,,,,,,,,,,orange,I
95.0,2.0,1.0,0.0,4.0,4.0,420.7233924898901,1.0,1.0,phase_1,,,,,,,,,,,,,gray,flipped triangle
101.0,6.0,1.0,1.0,4.0,4.0,343.510206490464,1.0,1.0,phase_1,,,,,,,,,,,,,white,triangle
204.0,7.0,2.0,1.0,1.0,1.0,322.6649654607172,1.0,1.0,phase_1,,,,,,,,,,,,,yellow,circle
86.0,2.0,1.0,0.0,2.0,2.0,322.5772094738204,1.0,1.0,phase_1,,,,,,,,,,,,,gray,flipped triangle
54.0,5.0,0.5,1.0,2.0,2.0,356.8418814757024,1.0,1.0,phase_1,,,,,,,,,,,,,blue,diamond
51.0,1.0,0.5,0.0,2.0,2.0,345.2254174771951,1.0,1.0,phase_1,,,,,,,,,,,,,orange,I
392.0,4.0,4.0,0.0,1.0,1.0,346.2460669616121,1.0,1.0,phase_1,,,,,,,,,,,,,cyan,square
0.0,5.0,0.0,1.0,4.0,4.0,391.0480289705447,1.0,1.0,phase_1,,,,,,,,,,,,,blue,diamond
225.0,7.0,2.0,1.0,4.0,4.0,361.4289039833238,2.0,1.0,phase_1,,,,,,,,,,,,,yellow,circle
189.0,7.0,2.0,1.0,4.0,4.0,408.0921449422021,2.0,1.0,phase_1,,,,,,,,,,,,,yellow,circle
184.0,7.0,2.0,1.0,1.0,1.0,306.5614759761956,2.0,1.0,phase_1,,,,,,,,,,,,,yellow,circle
50.0,1.0,0.5,0.0,1.0,1.0,399.3954569887137,2.0,1.0,phase_1,,,,,,,,,,,,,orange,I
27.0,5.0,0.5,1.0,3.0,3.0,363.7758564509568,2.0,1.0,phase_1,,,,,,,,,,,,,blue,diamond
0.0,4.0,0.0,0.0,1.0,1.0,365.7159714639419,2.0,1.0,phase_1,,,,,,,,,,,,,cyan,square
86.0,2.0,1.0,0.0,3.0,3.0,287.3858959865174,2.0,1.0,phase_1,,,,,,,,,,,,,gray,flipped triangle
111.0,6.0,1.0,1.0,3.0,3.0,399.4015909920563,2.0,1.0,phase_1,,,,,,,,,,,,,white,triangle
0.0,3.0,0.0,0.0,4.0,4.0,400.3093544670264,2.0,1.0,phase_1,,,,,,,,,,,,,magenta,hexagon
423.0,4.0,4.0,0.0,2.0,2.0,368.2650064656627,2.0,1.0,phase_1,,,,,,,,,,,,,cyan,square
0.0,1.0,0.0,0.0,2.0,2.0,380.8021209697472,2.0,1.0,phase_1,,,,,,,,,,,,,orange,I
63.0,1.0,0.5,0.0,4.0,4.0,324.1633034413098,2.0,1.0,phase_1,,,,,,,,,,,,,orange,I
0.0,4.0,0.0,0.0,3.0,3.0,313.8477439933922,2.0,1.0,phase_1,,,,,,,,,,,,,cyan,square
424.0,4.0,4.0,0.0,3.0,3.0,335.3183379585971,2.0,1.0,phase_1,,,,,,,,,,,,,cyan,square
380.0,4.0,4.0,0.0,3.0,3.0,313.8182859620428,2.0,1.0,phase_1,,,,,,,,,,,,,cyan,square
0.0,5.0,0.0,1.0,4.0,4.0,281.7100489919539,2.0,1.0,phase_1,,,,,,,,,,,,,blue,diamond
0.0,4.0,0.0,0.0,4.0,4.0,325.1637344510527,2.0,1.0,phase_1,,,,,,,,,,,,,cyan,square
35.0,5.0,0.5,1.0,4.0,4.0,304.3273879593471,2.0,1.0,phase_1,,,,,,,,,,,,,blue,diamond
0.0,7.0,0.0,1.0,2.0,2.0,338.7609099445399,2.0,1.0,phase_1,,,,,,,,,,,,,yellow,circle
0.0,3.0,0.0,0.0,3.0,3.0,293.0891679861815,2.0,1.0,phase_1,,,,,,,,,,,,,magenta,hexagon
35.0,5.0,0.5,1.0,2.0,2.0,294.2644549621036,2.0,1.0,phase_1,,,,,,,,,,,,,blue,diamond
198.0,7.0,2.0,1.0,4.0,4.0,317.6571254807641,2.0,1.0,phase_1,,,,,,,,,,,,,yellow,circle
50.0,5.0,0.5,1.0,4.0,4.0,329.5217099657748,2.0,1.0,phase_1,,,,,,,,,,,,,blue,diamond
117.0,6.0,1.0,1.0,2.0,2.0,286.1602594784926,2.0,1.0,phase_1,,,,,,,,,,,,,white,triangle
27.0,1.0,0.5,0.0,4.0,4.0,297.8553899592953,2.0,1.0,phase_1,,,,,,,,,,,,,orange,I
0.0,3.0,0.0,0.0,4.0,4.0,286.67749647866,2.0,1.0,phase_1,,,,,,,,,,,,,magenta,hexagon
190.0,7.0,2.0,1.0,2.0,2.0,319.9532519720378,2.0,1.0,phase_1,,,,,,,,,,,,,yellow,circle
0.0,1.0,0.0,0.0,4.0,4.0,377.566670977103,2.0,1.0,phase_1,,,,,,,,,,,,,orange,I
46.0,5.0,0.5,1.0,4.0,4.0,298.0672854755539,2.0,1.0,phase_1,,,,,,,,,,,,,blue,diamond
380.0,8.0,4.0,1.0,3.0,3.0,321.3367784410366,2.0,1.0,phase_1,,,,,,,,,,,,,green,cross
414.0,4.0,4.0,0.0,4.0,4.0,334.647646479425,2.0,1.0,phase_1,,,,,,,,,,,,,cyan,square
395.0,8.0,4.0,1.0,1.0,1.0,334.3797079869546,2.0,1.0,phase_1,,,,,,,,,,,,,green,cross
58.0,1.0,0.5,0.0,3.0,3.0,312.829497961502,2.0,1.0,phase_1,,,,,,,,,,,,,orange,I
391.0,4.0,4.0,0.0,3.0,3.0,278.1937899853801,2.0,1.0,phase_1,,,,,,,,,,,,,cyan,square
418.0,8.0,4.0,1.0,3.0,3.0,313.8002144405618,2.0,1.0,phase_1,,,,,,,,,,,,,green,cross
76.0,2.0,1.0,0.0,4.0,4.0,336.8755659612361,2.0,1.0,phase_1,,,,,,,,,,,,,gray,flipped triangle
105.0,6.0,1.0,1.0,3.0,3.0,303.7173219927354,2.0,1.0,phase_1,,,,,,,,,,,,,white,triangle
223.0,3.0,2.0,0.0,2.0,2.0,280.7155249392963,2.0,1.0,phase_1,,,,,,,,,,,,,magenta,hexagon
0.0,1.0,0.0,0.0,3.0,3.0,315.3608244901988,2.0,1.0,phase_1,,,,,,,,,,,,,orange,I
0.0,6.0,0.0,1.0,4.0,4.0,304.3137339773238,2.0,1.0,phase_1,,,,,,,,,,,,,white,triangle
0.0,2.0,0.0,0.0,2.0,2.0,307.193001244741,2.0,1.0,phase_1,,,,,,,,,,,,,gray,flipped triangle
121.0,2.0,1.0,0.0,1.0,1.0,385.037776963145,2.0,1.0,phase_1,,,,,,,,,,,,,gray,flipped triangle
390.0,4.0,4.0,0.0,4.0,4.0,318.9854384763748,2.0,1.0,phase_1,,,,,,,,,,,,,cyan,square
391.0,4.0,4.0,0.0,3.0,3.0,308.0122594765271,2.0,1.0,phase_1,,,,,,,,,,,,,cyan,square
104.0,2.0,1.0,0.0,3.0,3.0,297.4308599441428,2.0,1.0,phase_1,,,,,,,,,,,,,gray,flipped triangle
203.0,7.0,2.0,1.0,3.0,3.0,364.7849334884085,2.0,1.0,phase_1,,,,,,,,,,,,,yellow,circle
398.0,8.0,4.0,1.0,4.0,4.0,386.7845334825688,2.0,1.0,phase_1,,,,,,,,,,,,,green,cross
193.0,3.0,2.0,0.0,2.0,2.0,287.0444689760916,2.0,2.0,phase_1,,,,,,,,,,,,,magenta,hexagon
191.0,7.0,2.0,1.0,1.0,1.0,377.6783464418258,2.0,1.0,phase_1,,,,,,,,,,,,,yellow,circle
89.0,6.0,1.0,1.0,3.0,3.0,356.2572654700489,2.0,1.0,phase_1,,,,,,,,,,,,,white,triangle
43.0,5.0,0.5,1.0,3.0,3.0,366.722826489422,2.0,1.0,phase_1,,,,,,,,,,,,,blue,diamond
0.0,8.0,0.0,1.0,1.0,1.0,380.7024094567168,2.0,1.0,phase_1,,,,,,,,,,,,,green,cross
74.0,1.0,0.5,0.0,2.0,2.0,302.6782389788423,2.0,1.0,phase_1,,,,,,,,,,,,,orange,I
121.0,6.0,1.0,1.0,1.0,1.0,426.1388389859348,2.0,1.0,phase_1,,,,,,,,,,,,,white,triangle
420.0,4.0,4.0,0.0,4.0,4.0,324.6179269990534,2.0,1.0,phase_1,,,,,,,,,,,,,cyan,square
100.0,6.0,1.0,1.0,3.0,3.0,347.0797969712293,2.0,1.0,phase_1,,,,,,,,,,,,,white,triangle
83.0,2.0,1.0,0.0,3.0,3.0,359.3621939362492,2.0,1.0,phase_1,,,,,,,,,,,,,gray,flipped triangle
385.0,8.0,4.0,1.0,4.0,4.0,315.0152139714919,2.0,1.0,phase_1,,,,,,,,,,,,,green,cross
197.0,3.0,2.0,0.0,4.0,4.0,305.5612244934309,2.0,1.0,phase_1,,,,,,,,,,,,,magenta,hexagon
0.0,1.0,0.0,0.0,1.0,1.0,351.4727669899002,2.0,1.0,phase_1,,,,,,,,,,,,,orange,I
187.0,7.0,2.0,1.0,3.0,3.0,350.9022084617754,2.0,1.0,phase_1,,,,,,,,,,,,,yellow,circle
0.0,1.0,0.0,0.0,2.0,2.0,339.899564962252,2.0,1.0,phase_1,,,,,,,,,,,,,orange,I
210.0,7.0,2.0,1.0,4.0,4.0,341.8835130723892,2.0,1.0,phase_1,,,,,,,,,,,,,yellow,circle
48.0,5.0,0.5,1.0,2.0,2.0,385.8912009600317,2.0,1.0,phase_1,,,,,,,,,,,,,blue,diamond
225.0,3.0,2.0,0.0,3.0,3.0,363.6768529613619,2.0,1.0,phase_1,,,,,,,,,,,,,magenta,hexagon
74.0,5.0,0.5,1.0,4.0,4.0,364.6431204906548,2.0,1.0,phase_1,,,,,,,,,,,,,blue,diamond
123.0,6.0,1.0,1.0,1.0,1.0,320.2478489765781,2.0,1.0,phase_1,,,,,,,,,,,,,white,triangle
0.0,4.0,0.0,0.0,4.0,4.0,342.5020064823911,2.0,1.0,phase_1,,,,,,,,,,,,,cyan,square
34.0,5.0,0.5,1.0,3.0,3.0,343.9082214899827,2.0,1.0,phase_1,,,,,,,,,,,,,blue,diamond
25.0,1.0,0.5,0.0,4.0,4.0,333.3682019874686,2.0,1.0,phase_1,,,,,,,,,,,,,orange,I
398.0,4.0,4.0,0.0,4.0,4.0,322.7284589593182,2.0,1.0,phase_1,,,,,,,,,,,,,cyan,square
0.0,5.0,0.0,1.0,3.0,3.0,322.7027374887257,2.0,1.0,phase_1,,,,,,,,,,,,,blue,diamond
184.0,3.0,2.0,0.0,4.0,4.0,368.990913957532,2.0,1.0,phase_1,,,,,,,,,,,,,magenta,hexagon
224.0,3.0,2.0,0.0,1.0,1.0,324.2701384879183,2.0,1.0,phase_1,,,,,,,,,,,,,magenta,hexagon
203.0,3.0,2.0,0.0,2.0,2.0,403.4363884929917,2.0,1.0,phase_1,,,,,,,,,,,,,magenta,hexagon
223.0,7.0,2.0,1.0,4.0,4.0,403.4905459848232,2.0,1.0,phase_1,,,,,,,,,,,,,yellow,circle
27.0,1.0,0.5,0.0,2.0,2.0,405.9134139897651,2.0,1.0,phase_1,,,,,,,,,,,,,orange,I
74.0,5.0,0.5,1.0,3.0,3.0,350.0605024892138,2.0,1.0,phase_1,,,,,,,,,,,,,blue,diamond
216.0,3.0,2.0,0.0,3.0,3.0,348.976867942838,2.0,1.0,phase_1,,,,,,,,,,,,,magenta,hexagon
215.0,7.0,2.0,1.0,3.0,3.0,394.717013456102,2.0,1.0,phase_1,,,,,,,,,,,,,yellow,circle
112.0,6.0,1.0,1.0,3.0,3.0,327.1289169715601,2.0,1.0,phase_1,,,,,,,,,,,,,white,triangle
0.0,8.0,0.0,1.0,3.0,3.0,316.9883719601785,2.0,1.0,phase_1,,,,,,,,,,,,,green,cross
395.0,4.0,4.0,0.0,4.0,4.0,318.3571424524416,2.0,1.0,phase_1,,,,,,,,,,,,,cyan,square
85.0,2.0,1.0,0.0,2.0,2.0,319.5724834586144,2.0,1.0,phase_1,,,,,,,,,,,,,gray,flipped triangle
87.0,2.0,1.0,0.0,3.0,3.0,386.4478544783196,2.0,1.0,phase_1,,,,,,,,,,,,,gray,flipped triangle
35.0,1.0,0.5,0.0,2.0,2.0,331.9891269420623,2.0,1.0,phase_1,,,,,,,,,,,,,orange,I
0.0,2.0,0.0,0.0,3.0,3.0,364.6745534861111,2.0,1.0,phase_1,,,,,,,,,,,,,gray,flipped triangle
393.0,4.0,4.0,0.0,3.0,3.0,375.9922969838953,2.0,1.0,phase_1,,,,,,,,,,,,,cyan,square
395.0,4.0,4.0,0.0,1.0,1.0,344.56883596431,2.0,1.0,phase_1,,,,,,,,,,,,,cyan,square
104.0,6.0,1.0,1.0,2.0,2.0,310.3629314355203,2.0,1.0,phase_1,,,,,,,,,,,,,white,triangle
101.0,2.0,1.0,0.0,4.0,4.0,321.6571484372252,2.0,1.0,phase_1,,,,,,,,,,,,,gray,flipped triangle
423.0,8.0,4.0,1.0,3.0,3.0,322.3981434930465,2.0,1.0,phase_1,,,,,,,,,,,,,green,cross
82.0,2.0,1.0,0.0,4.0,4.0,346.116461987549,2.0,1.0,phase_1,,,,,,,,,,,,,gray,flipped triangle
385.0,4.0,4.0,0.0,2.0,2.0,290.3248424918274,2.0,1.0,phase_1,,,,,,,,,,,,,cyan,square
114.0,6.0,1.0,1.0,2.0,2.0,313.9419559884118,2.0,1.0,phase_1,,,,,,,,,,,,,white,triangle
193.0,7.0,2.0,1.0,3.0,3.0,324.8916194934281,2.0,1.0,phase_1,,,,,,,,,,,,,yellow,circle
182.0,7.0,2.0,1.0,1.0,1.0,336.6821719610016,2.0,1.0,phase_1,,,,,,,,,,,,,yellow,circle
186.0,7.0,2.0,1.0,1.0,1.0,415.8089049597038,2.0,1.0,phase_1,,,,,,,,,,,,,yellow,circle
116.0,2.0,1.0,0.0,2.0,2.0,382.5982389753335,2.0,1.0,phase_1,,,,,,,,,,,,,gray,flipped triangle
204.0,7.0,2.0,1.0,1.0,1.0,384.4709999830229,2.0,1.0,phase_1,,,,,,,,,,,,,yellow,circle
0.0,5.0,0.0,1.0,4.0,4.0,335.4741859366186,3.0,1.0,phase_1,,,,,,,,,,,,,blue,diamond
395.0,8.0,4.0,1.0,4.0,4.0,303.6504299961962,3.0,1.0,phase_1,,,,,,,,,,,,,green,cross
34.0,5.0,0.5,1.0,4.0,4.0,304.8751329770311,3.0,1.0,phase_1,,,,,,,,,,,,,blue,diamond
28.0,1.0,0.5,0.0,4.0,4.0,405.9177474700846,3.0,1.0,phase_1,,,,,,,,,,,,,orange,I
35.0,5.0,0.5,1.0,4.0,4.0,293.6362749751424,3.0,1.0,phase_1,,,,,,,,,,,,,blue,diamond
107.0,6.0,1.0,1.0,1.0,1.0,340.8026549732312,3.0,1.0,phase_1,,,,,,,,,,,,,white,triangle
63.0,1.0,0.5,0.0,3.0,3.0,351.155910968373,3.0,1.0,phase_1,,,,,,,,,,,,,orange,I
198.0,3.0,2.0,0.0,1.0,1.0,374.0378079601214,3.0,1.0,phase_1,,,,,,,,,,,,,magenta,hexagon
0.0,7.0,0.0,1.0,1.0,1.0,284.668640975724,3.0,1.0,phase_1,,,,,,,,,,,,,yellow,circle
191.0,7.0,2.0,1.0,2.0,2.0,343.10912896035,3.0,1.0,phase_1,,,,,,,,,,,,,yellow,circle
398.0,8.0,4.0,1.0,3.0,3.0,342.3104634784977,3.0,1.0,phase_1,,,,,,,,,,,,,green,cross
117.0,6.0,1.0,1.0,4.0,4.0,364.4944114566897,3.0,1.0,phase_1,,,,,,,,,,,,,white,triangle
209.0,3.0,2.0,0.0,3.0,3.0,366.6812379597104,3.0,1.0,phase_1,,,,,,,,,,,,,magenta,hexagon
47.0,5.0,0.5,1.0,4.0,4.0,355.0387334908009,3.0,1.0,phase_1,,,,,,,,,,,,,blue,diamond
48.0,1.0,0.5,0.0,4.0,4.0,379.7538714716211,3.0,1.0,phase_1,,,,,,,,,,,,,orange,I
398.0,4.0,4.0,0.0,1.0,1.0,310.8024679750087,3.0,1.0,phase_1,,,,,,,,,,,,,cyan,square
116.0,6.0,1.0,1.0,1.0,1.0,367.6827919771313,3.0,1.0,phase_1,,,,,,,,,,,,,white,triangle
419.0,4.0,4.0,0.0,4.0,4.0,401.680466493417,3.0,1.0,phase_1,,,,,,,,,,,,,cyan,square
385.0,4.0,4.0,0.0,3.0,3.0,358.6718854421633,3.0,1.0,phase_1,,,,,,,,,,,,,cyan,square
89.0,2.0,1.0,0.0,4.0,4.0,359.1058034726302,3.0,1.0,phase_1,,,,,,,,,,,,,gray,flipped triangle
106.0,2.0,1.0,0.0,4.0,4.0,359.0918959598639,3.0,1.0,phase_1,,,,,,,,,,,,,gray,flipped triangle
74.0,1.0,0.5,0.0,1.0,1.0,415.332450545975,3.0,1.0,phase_1,,,,,,,,,,,,,orange,I
96.0,2.0,1.0,0.0,3.0,3.0,369.997074449202,3.0,1.0,phase_1,,,,,,,,,,,,,gray,flipped triangle
83.0,6.0,1.0,1.0,3.0,3.0,327.5852599617792,3.0,1.0,phase_1,,,,,,,,,,,,,white,triangle
189.0,3.0,2.0,0.0,2.0,2.0,327.089818456443,3.0,1.0,phase_1,,,,,,,,,,,,,magenta,hexagon
414.0,8.0,4.0,1.0,4.0,4.0,338.066769472789,3.0,1.0,phase_1,,,,,,,,,,,,,green,cross
0.0,8.0,0.0,1.0,1.0,1.0,395.8077949646394,3.0,1.0,phase_1,,,,,,,,,,,,,green,cross
0.0,3.0,0.0,0.0,1.0,1.0,429.7081169861485,3.0,1.0,phase_1,,,,,,,,,,,,,magenta,hexagon
100.0,2.0,1.0,0.0,3.0,3.0,374.8935479743522,3.0,1.0,phase_1,,,,,,,,,,,,,gray,flipped triangle
33.0,5.0,0.5,1.0,1.0,1.0,430.7565894850995,3.0,1.0,phase_1,,,,,,,,,,,,,blue,diamond
104.0,6.0,1.0,1.0,2.0,2.0,330.8190074603772,3.0,1.0,phase_1,,,,,,,,,,,,,white,triangle
0.0,6.0,0.0,1.0,4.0,4.0,331.7195544732385,3.0,1.0,phase_1,,,,,,,,,,,,,white,triangle
195.0,7.0,2.0,1.0,2.0,2.0,366.9272574916249,3.0,1.0,phase_1,,,,,,,,,,,,,yellow,circle
197.0,7.0,2.0,1.0,2.0,2.0,377.481364448613,3.0,1.0,phase_1,,,,,,,,,,,,,yellow,circle
66.0,1.0,0.5,0.0,3.0,3.0,546.726035514439,3.0,1.0,phase_1,,,,,,,,,,,,,orange,I
414.0,8.0,4.0,1.0,2.0,2.0,367.3272329906467,3.0,1.0,phase_1,,,,,,,,,,,,,green,cross
25.0,5.0,0.5,1.0,1.0,1.0,289.9793024625978,3.0,1.0,phase_1,,,,,,,,,,,,,blue,diamond
29.0,5.0,0.5,1.0,2.0,2.0,300.30330394220067,3.0,1.0,phase_1,,,,,,,,,,,,,blue,diamond
176.0,3.0,2.0,0.0,3.0,3.0,322.3941134929191,3.0,1.0,phase_1,,,,,,,,,,,,,magenta,hexagon
219.0,3.0,2.0,0.0,4.0,4.0,312.5884004912223,3.0,1.0,phase_1,,,,,,,,,,,,,magenta,hexagon
380.0,4.0,4.0,0.0,2.0,2.0,336.2892549921525,3.0,1.0,phase_1,,,,,,,,,,,,,cyan,square
0.0,7.0,0.0,1.0,3.0,3.0,258.3935704678879,3.0,1.0,phase_1,,,,,,,,,,,,,yellow,circle
187.0,3.0,2.0,0.0,4.0,4.0,348.2118209431064,3.0,1.0,phase_1,,,,,,,,,,,,,magenta,hexagon
384.0,4.0,4.0,0.0,4.0,4.0,373.2713564531877,3.0,2.0,phase_1,,,,,,,,,,,,,cyan,square
216.0,7.0,2.0,1.0,1.0,1.0,450.4913859855151,3.0,1.0,phase_1,,,,,,,,,,,,,yellow,circle
98.0,6.0,1.0,1.0,1.0,1.0,429.2951059760526,3.0,1.0,phase_1,,,,,,,,,,,,,white,triangle
0.0,7.0,0.0,1.0,2.0,2.0,406.7431004732498,3.0,1.0,phase_1,,,,,,,,,,,,,yellow,circle
378.0,8.0,4.0,1.0,3.0,3.0,318.4865174625884,3.0,1.0,phase_1,,,,,,,,,,,,,green,cross
0.0,4.0,0.0,0.0,4.0,4.0,342.2073519614059,3.0,1.0,phase_1,,,,,,,,,,,,,cyan,square
46.0,1.0,0.5,0.0,1.0,1.0,397.3762774621718,3.0,1.0,phase_1,,,,,,,,,,,,,orange,I
391.0,8.0,4.0,1.0,3.0,3.0,343.7566594948293,3.0,1.0,phase_1,,,,,,,,,,,,,green,cross
59.0,1.0,0.5,0.0,1.0,1.0,355.3771959632286,3.0,1.0,phase_1,,,,,,,,,,,,,orange,I
54.0,1.0,0.5,0.0,2.0,2.0,399.1608059441205,3.0,1.0,phase_1,,,,,,,,,,,,,orange,I
399.0,4.0,4.0,0.0,4.0,4.0,367.4736299653887,3.0,1.0,phase_1,,,,,,,,,,,,,cyan,square
0.0,2.0,0.0,0.0,1.0,1.0,367.7821914752712,3.0,1.0,phase_1,,,,,,,,,,,,,gray,flipped triangle
386.0,8.0,4.0,1.0,2.0,2.0,346.1104734815308,3.0,1.0,phase_1,,,,,,,,,,,,,green,cross
83.0,2.0,1.0,0.0,2.0,2.0,333.8928957091411,3.0,1.0,phase_1,,,,,,,,,,,,,gray,flipped triangle
117.0,2.0,1.0,0.0,4.0,4.0,401.3155094726244,3.0,1.0,phase_1,,,,,,,,,,,,,gray,flipped triangle
0.0,5.0,0.0,1.0,4.0,4.0,379.1517854770063,3.0,1.0,phase_1,,,,,,,,,,,,,blue,diamond
423.0,8.0,4.0,1.0,1.0,1.0,413.8734024672885,3.0,1.0,phase_1,,,,,,,,,,,,,green,cross
55.0,5.0,0.5,1.0,4.0,4.0,425.9459829918341,3.0,1.0,phase_1,,,,,,,,,,,,,blue,diamond
396.0,8.0,4.0,1.0,4.0,4.0,335.801098466618,3.0,1.0,phase_1,,,,,,,,,,,,,green,cross
120.0,2.0,1.0,0.0,3.0,3.0,348.6340529780136,3.0,1.0,phase_1,,,,,,,,,,,,,gray,flipped triangle
113.0,6.0,1.0,1.0,2.0,2.0,339.2593519383808,3.0,1.0,phase_1,,,,,,,,,,,,,white,triangle
205.0,3.0,2.0,0.0,1.0,1.0,350.669183942955,3.0,1.0,phase_1,,,,,,,,,,,,,magenta,hexagon
59.0,5.0,0.5,1.0,1.0,1.0,361.4033114354242,3.0,1.0,phase_1,,,,,,,,,,,,,blue,diamond
411.0,4.0,4.0,0.0,2.0,2.0,599.6880135135143,3.0,1.0,phase_1,,,,,,,,,,,,,cyan,square
0.0,7.0,0.0,1.0,2.0,2.0,363.6353769397829,3.0,1.0,phase_1,,,,,,,,,,,,,yellow,circle
414.0,4.0,4.0,0.0,1.0,1.0,465.1625924889231,3.0,1.0,phase_1,,,,,,,,,,,,,cyan,square
0.0,8.0,0.0,1.0,1.0,1.0,364.7814304858912,3.0,1.0,phase_1,,,,,,,,,,,,,green,cross
0.0,6.0,0.0,1.0,1.0,1.0,308.926158977556,3.0,1.0,phase_1,,,,,,,,,,,,,white,triangle
0.0,4.0,0.0,0.0,3.0,3.0,354.2981724895071,3.0,1.0,phase_1,,,,,,,,,,,,,cyan,square
216.0,3.0,2.0,0.0,2.0,2.0,309.3023344772518,3.0,1.0,phase_1,,,,,,,,,,,,,magenta,hexagon
419.0,8.0,4.0,1.0,2.0,2.0,333.0299914814532,3.0,1.0,phase_1,,,,,,,,,,,,,green,cross
0.0,3.0,0.0,0.0,4.0,4.0,366.2879174662521,3.0,1.0,phase_1,,,,,,,,,,,,,magenta,hexagon
120.0,6.0,1.0,1.0,2.0,2.0,343.9904814877081,3.0,1.0,phase_1,,,,,,,,,,,,,white,triangle
29.0,1.0,0.5,0.0,1.0,1.0,368.5736729748896,3.0,1.0,phase_1,,,,,,,,,,,,,orange,I
0.0,4.0,0.0,0.0,1.0,1.0,401.4953904770664,3.0,1.0,phase_1,,,,,,,,,,,,,cyan,square
0.0,6.0,0.0,1.0,2.0,2.0,335.4908789697219,3.0,1.0,phase_1,,,,,,,,,,,,,white,triangle
47.0,1.0,0.5,0.0,2.0,2.0,413.8510999691789,3.0,1.0,phase_1,,,,,,,,,,,,,orange,I
38.0,1.0,0.5,0.0,4.0,4.0,403.6772049876163,3.0,1.0,phase_1,,,,,,,,,,,,,orange,I
407.0,4.0,4.0,0.0,1.0,1.0,359.2445319663966,3.0,1.0,phase_1,,,,,,,,,,,,,cyan,square
66.0,1.0,0.5,0.0,4.0,4.0,359.0002789787831,3.0,1.0,phase_1,,,,,,,,,,,,,orange,I
197.0,3.0,2.0,0.0,1.0,1.0,338.7069960008375,3.0,1.0,phase_1,,,,,,,,,,,,,magenta,hexagon
204.0,3.0,2.0,0.0,1.0,1.0,351.000907488924,3.0,1.0,phase_1,,,,,,,,,,,,,magenta,hexagon
216.0,7.0,2.0,1.0,1.0,1.0,328.456108480168,3.0,1.0,phase_1,,,,,,,,,,,,,yellow,circle
85.0,6.0,1.0,1.0,4.0,4.0,385.1960519677959,3.0,1.0,phase_1,,,,,,,,,,,,,white,triangle
98.0,2.0,1.0,0.0,2.0,2.0,339.7769729563151,3.0,1.0,phase_1,,,,,,,,,,,,,gray,flipped triangle
176.0,7.0,2.0,1.0,2.0,2.0,295.4628129882621,3.0,1.0,phase_1,,,,,,,,,,,,,yellow,circle
34.0,1.0,0.5,0.0,3.0,3.0,296.5058954723645,3.0,1.0,phase_1,,,,,,,,,,,,,orange,I
37.0,5.0,0.5,1.0,3.0,3.0,385.6254755883128,3.0,1.0,phase_1,,,,,,,,,,,,,blue,diamond
116.0,6.0,1.0,1.0,4.0,4.0,319.30842345173,3.0,1.0,phase_1,,,,,,,,,,,,,white,triangle
59.0,5.0,0.5,1.0,1.0,1.0,355.3504409865127,3.0,1.0,phase_1,,,,,,,,,,,,,blue,diamond
424.0,8.0,4.0,1.0,2.0,2.0,286.6687969581107,3.0,1.0,phase_1,,,,,,,,,,,,,green,cross
37.0,1.0,0.5,0.0,3.0,3.0,320.2907818704261,3.0,1.0,phase_1,,,,,,,,,,,,,orange,I
0.0,3.0,0.0,0.0,1.0,1.0,309.7364209897932,3.0,1.0,phase_1,,,,,,,,,,,,,magenta,hexagon
382.0,8.0,4.0,1.0,1.0,1.0,333.8389058844768,3.0,1.0,phase_1,,,,,,,,,,,,,green,cross
407.0,4.0,4.0,0.0,4.0,4.0,446.6248863755027,3.0,1.0,phase_1,,,,,,,,,,,,,cyan,square
0.0,6.0,0.0,1.0,4.0,4.0,402.2659474503598,3.0,1.0,phase_1,,,,,,,,,,,,,white,triangle
187.0,7.0,2.0,1.0,3.0,3.0,302.0318523558671,3.0,1.0,phase_1,,,,,,,,,,,,,yellow,circle
104.0,2.0,1.0,0.0,1.0,1.0,321.1945494695101,4.0,1.0,phase_1,,,,,,,,,,,,,gray,flipped triangle
0.0,6.0,0.0,1.0,4.0,4.0,333.414370965329,4.0,1.0,phase_1,,,,,,,,,,,,,white,triangle
378.0,4.0,4.0,0.0,2.0,2.0,312.4219889868982,4.0,1.0,phase_1,,,,,,,,,,,,,cyan,square
414.0,4.0,4.0,0.0,1.0,1.0,301.3930029483163,4.0,1.0,phase_1,,,,,,,,,,,,,cyan,square
28.0,5.0,0.5,1.0,3.0,3.0,313.4041129815159,4.0,1.0,phase_1,,,,,,,,,,,,,blue,diamond
402.0,4.0,4.0,0.0,2.0,2.0,279.409825001494,4.0,1.0,phase_1,,,,,,,,,,,,,cyan,square
396.0,4.0,4.0,0.0,1.0,1.0,279.9154894746607,4.0,1.0,phase_1,,,,,,,,,,,,,cyan,square
0.0,2.0,0.0,0.0,3.0,3.0,359.9904809670988,4.0,1.0,phase_1,,,,,,,,,,,,,gray,flipped triangle
0.0,4.0,0.0,0.0,3.0,3.0,371.7024269717512,4.0,1.0,phase_1,,,,,,,,,,,,,cyan,square
215.0,3.0,2.0,0.0,3.0,3.0,316.1916214958182,4.0,1.0,phase_1,,,,,,,,,,,,,magenta,hexagon
381.0,8.0,4.0,1.0,2.0,2.0,283.2361489636241,4.0,1.0,phase_1,,,,,,,,,,,,,green,cross
35.0,1.0,0.5,0.0,1.0,1.0,304.3301844591042,4.0,1.0,phase_1,,,,,,,,,,,,,orange,I
182.0,3.0,2.0,0.0,2.0,2.0,339.9552304836106,4.0,2.0,phase_1,,,,,,,,,,,,,magenta,hexagon
423.0,4.0,4.0,0.0,3.0,3.0,306.6291009599808,4.0,1.0,phase_1,,,,,,,,,,,,,cyan,square
208.0,3.0,2.0,0.0,3.0,3.0,396.1837739843759,4.0,1.0,phase_1,,,,,,,,,,,,,magenta,hexagon
187.0,3.0,2.0,0.0,4.0,4.0,352.7004069765098,4.0,1.0,phase_1,,,,,,,,,,,,,magenta,hexagon
419.0,4.0,4.0,0.0,4.0,4.0,375.0388449625461,4.0,1.0,phase_1,,,,,,,,,,,,,cyan,square
0.0,2.0,0.0,0.0,1.0,1.0,387.4863434612052,4.0,1.0,phase_1,,,,,,,,,,,,,gray,flipped triangle
0.0,7.0,0.0,1.0,4.0,4.0,388.2461079847417,4.0,1.0,phase_1,,,,,,,,,,,,,yellow,circle
113.0,2.0,1.0,0.0,1.0,1.0,412.1714089415036,4.0,1.0,phase_1,,,,,,,,,,,,,gray,flipped triangle
68.0,1.0,0.5,0.0,2.0,2.0,355.0712599753751,4.0,1.0,phase_1,,,,,,,,,,,,,orange,I
0.0,8.0,0.0,1.0,1.0,1.0,389.2019724808051,4.0,1.0,phase_1,,,,,,,,,,,,,green,cross
35.0,1.0,0.5,0.0,4.0,4.0,357.7341754789813,4.0,1.0,phase_1,,,,,,,,,,,,,orange,I
204.0,3.0,2.0,0.0,3.0,3.0,312.7542784932302,4.0,1.0,phase_1,,,,,,,,,,,,,magenta,hexagon
82.0,6.0,1.0,1.0,4.0,4.0,470.9904474439099,4.0,1.0,phase_1,,,,,,,,,,,,,white,triangle
213.0,7.0,2.0,1.0,3.0,3.0,426.0221699878457,4.0,1.0,phase_1,,,,,,,,,,,,,yellow,circle
94.0,2.0,1.0,0.0,1.0,1.0,348.9692364892107,4.0,1.0,phase_1,,,,,,,,,,,,,gray,flipped triangle
186.0,3.0,2.0,0.0,4.0,4.0,494.1014074574923,4.0,1.0,phase_1,,,,,,,,,,,,,magenta,hexagon
107.0,2.0,1.0,0.0,2.0,2.0,359.3939789789147,4.0,1.0,phase_1,,,,,,,,,,,,,gray,flipped triangle
113.0,2.0,1.0,0.0,3.0,3.0,372.3422754846979,4.0,1.0,phase_1,,,,,,,,,,,,,gray,flipped triangle
409.0,8.0,4.0,1.0,4.0,4.0,450.0253304795478,4.0,1.0,phase_1,,,,,,,,,,,,,green,cross
117.0,2.0,1.0,0.0,3.0,3.0,371.6069664733368,4.0,1.0,phase_1,,,,,,,,,,,,,gray,flipped triangle
393.0,8.0,4.0,1.0,3.0,3.0,395.8160980037064,4.0,1.0,phase_1,,,,,,,,,,,,,green,cross
0.0,6.0,0.0,1.0,4.0,4.0,384.6395619621034,4.0,1.0,phase_1,,,,,,,,,,,,,white,triangle
75.0,2.0,1.0,0.0,4.0,4.0,364.3617949855979,4.0,1.0,phase_1,,,,,,,,,,,,,gray,flipped triangle
409.0,4.0,4.0,0.0,3.0,3.0,285.5062149901641,4.0,1.0,phase_1,,,,,,,,,,,,,cyan,square
194.0,3.0,2.0,0.0,1.0,1.0,363.5435964752105,4.0,1.0,phase_1,,,,,,,,,,,,,magenta,hexagon
0.0,5.0,0.0,1.0,3.0,3.0,330.9823769741342,4.0,1.0,phase_1,,,,,,,,,,,,,blue,diamond
105.0,2.0,1.0,0.0,2.0,2.0,297.4772504894645,4.0,1.0,phase_1,,,,,,,,,,,,,gray,flipped triangle
91.0,6.0,1.0,1.0,3.0,3.0,398.7633754513808,4.0,1.0,phase_1,,,,,,,,,,,,,white,triangle
420.0,8.0,4.0,1.0,1.0,1.0,344.5967209408991,4.0,1.0,phase_1,,,,,,,,,,,,,green,cross
113.0,6.0,1.0,1.0,1.0,1.0,411.8862039904343,4.0,1.0,phase_1,,,,,,,,,,,,,white,triangle
186.0,7.0,2.0,1.0,1.0,1.0,345.9672509634401,4.0,1.0,phase_1,,,,,,,,,,,,,yellow,circle
404.0,8.0,4.0,1.0,1.0,1.0,401.5996499874745,4.0,1.0,phase_1,,,,,,,,,,,,,green,cross
402.0,8.0,4.0,1.0,3.0,3.0,413.7730994625599,4.0,1.0,phase_1,,,,,,,,,,,,,green,cross
0.0,7.0,0.0,1.0,4.0,4.0,334.8559424921404,4.0,1.0,phase_1,,,,,,,,,,,,,yellow,circle
191.0,3.0,2.0,0.0,3.0,3.0,335.6867974653141,4.0,1.0,phase_1,,,,,,,,,,,,,magenta,hexagon
0.0,8.0,0.0,1.0,1.0,1.0,337.8890174935804,4.0,1.0,phase_1,,,,,,,,,,,,,green,cross
121.0,6.0,1.0,1.0,4.0,4.0,404.0982125079608,4.0,1.0,phase_1,,,,,,,,,,,,,white,triangle
115.0,2.0,1.0,0.0,1.0,1.0,359.8595764924539,4.0,1.0,phase_1,,,,,,,,,,,,,gray,flipped triangle
106.0,6.0,1.0,1.0,4.0,4.0,427.8541559469886,4.0,1.0,phase_1,,,,,,,,,,,,,white,triangle
66.0,5.0,0.5,1.0,3.0,3.0,394.8109324774123,4.0,1.0,phase_1,,,,,,,,,,,,,blue,diamond
111.0,2.0,1.0,0.0,1.0,1.0,350.7373804386589,4.0,1.0,phase_1,,,,,,,,,,,,,gray,flipped triangle
0.0,2.0,0.0,0.0,1.0,1.0,430.8164964750176,4.0,1.0,phase_1,,,,,,,,,,,,,gray,flipped triangle
222.0,3.0,2.0,0.0,2.0,2.0,418.7598354765214,4.0,1.0,phase_1,,,,,,,,,,,,,magenta,hexagon
0.0,1.0,0.0,0.0,4.0,4.0,364.0506924712099,4.0,1.0,phase_1,,,,,,,,,,,,,orange,I
382.0,4.0,4.0,0.0,1.0,1.0,308.8384784496156,4.0,1.0,phase_1,,,,,,,,,,,,,cyan,square
209.0,7.0,2.0,1.0,3.0,3.0,307.1141110049211,4.0,1.0,phase_1,,,,,,,,,,,,,yellow,circle
74.0,5.0,0.5,1.0,2.0,2.0,320.4404974821955,4.0,1.0,phase_1,,,,,,,,,,,,,blue,diamond
393.0,4.0,4.0,0.0,2.0,2.0,364.821631963423,4.0,1.0,phase_1,,,,,,,,,,,,,cyan,square
224.0,7.0,2.0,1.0,4.0,4.0,400.8321194778546,4.0,1.0,phase_1,,,,,,,,,,,,,yellow,circle
0.0,1.0,0.0,0.0,1.0,1.0,344.122142480046,4.0,1.0,phase_1,,,,,,,,,,,,,orange,I
385.0,4.0,4.0,0.0,1.0,1.0,299.8853434837656,4.0,1.0,phase_1,,,,,,,,,,,,,cyan,square
392.0,8.0,4.0,1.0,2.0,2.0,401.5551019765553,4.0,1.0,phase_1,,,,,,,,,,,,,green,cross
402.0,8.0,4.0,1.0,1.0,1.0,345.8235314683406,4.0,1.0,phase_1,,,,,,,,,,,,,green,cross
76.0,6.0,1.0,1.0,4.0,4.0,324.949604961148,4.0,1.0,phase_1,,,,,,,,,,,,,white,triangle
60.0,5.0,0.5,1.0,2.0,2.0,347.329173986509,4.0,1.0,phase_1,,,,,,,,,,,,,blue,diamond
119.0,2.0,1.0,0.0,2.0,2.0,291.2509599773329,4.0,1.0,phase_1,,,,,,,,,,,,,gray,flipped triangle
213.0,3.0,2.0,0.0,1.0,1.0,304.3589549852186,4.0,1.0,phase_1,,,,,,,,,,,,,magenta,hexagon
0.0,8.0,0.0,1.0,3.0,3.0,326.5684344369219,4.0,1.0,phase_1,,,,,,,,,,,,,green,cross
190.0,3.0,2.0,0.0,4.0,4.0,485.014482466795,4.0,1.0,phase_1,,,,,,,,,,,,,magenta,hexagon
63.0,5.0,0.5,1.0,1.0,1.0,339.7124489638372,4.0,1.0,phase_1,,,,,,,,,,,,,blue,diamond
0.0,8.0,0.0,1.0,3.0,3.0,362.0651720048045,4.0,1.0,phase_1,,,,,,,,,,,,,green,cross
123.0,2.0,1.0,0.0,1.0,1.0,327.725377974275,4.0,1.0,phase_1,,,,,,,,,,,,,gray,flipped triangle
115.0,6.0,1.0,1.0,3.0,3.0,352.1407889711554,4.0,1.0,phase_1,,,,,,,,,,,,,white,triangle
0.0,4.0,0.0,0.0,3.0,3.0,329.8942114779493,4.0,1.0,phase_1,,,,,,,,,,,,,cyan,square
38.0,5.0,0.5,1.0,2.0,2.0,306.5359629690647,4.0,1.0,phase_1,,,,,,,,,,,,,blue,diamond
200.0,7.0,2.0,1.0,4.0,4.0,309.2256874660961,4.0,1.0,phase_1,,,,,,,,,,,,,yellow,circle
0.0,3.0,0.0,0.0,1.0,1.0,343.0283194757066,4.0,1.0,phase_1,,,,,,,,,,,,,magenta,hexagon
62.0,1.0,0.5,0.0,3.0,3.0,297.8508059604792,4.0,1.0,phase_1,,,,,,,,,,,,,orange,I
66.0,5.0,0.5,1.0,1.0,1.0,331.7292724677827,4.0,1.0,phase_1,,,,,,,,,,,,,blue,diamond
182.0,7.0,2.0,1.0,3.0,3.0,354.8175904797972,4.0,1.0,phase_1,,,,,,,,,,,,,yellow,circle
0.0,5.0,0.0,1.0,1.0,1.0,377.5804329925449,4.0,1.0,phase_1,,,,,,,,,,,,,blue,diamond
74.0,1.0,0.5,0.0,1.0,1.0,423.8864354774705,4.0,1.0,phase_1,,,,,,,,,,,,,orange,I
114.0,2.0,1.0,0.0,1.0,1.0,357.6664419888402,4.0,1.0,phase_1,,,,,,,,,,,,,gray,flipped triangle
74.0,1.0,0.5,0.0,2.0,2.0,346.2362174905138,4.0,1.0,phase_1,,,,,,,,,,,,,orange,I
27.0,5.0,0.5,1.0,3.0,3.0,347.1577924792655,4.0,1.0,phase_1,,,,,,,,,,,,,blue,diamond
0.0,5.0,0.0,1.0,4.0,4.0,368.6834184700274,4.0,1.0,phase_1,,,,,,,,,,,,,blue,diamond
0.0,3.0,0.0,0.0,4.0,4.0,370.9715980003238,4.0,1.0,phase_1,,,,,,,,,,,,,magenta,hexagon
186.0,3.0,2.0,0.0,1.0,1.0,348.459432600066,4.0,1.0,phase_1,,,,,,,,,,,,,magenta,hexagon
386.0,4.0,4.0,0.0,3.0,3.0,427.016266999999,4.0,1.0,phase_1,,,,,,,,,,,,,cyan,square
74.0,5.0,0.5,1.0,2.0,2.0,315.4581384442281,4.0,1.0,phase_1,,,,,,,,,,,,,blue,diamond
385.0,8.0,4.0,1.0,1.0,1.0,337.9103169572772,4.0,1.0,phase_1,,,,,,,,,,,,,green,cross
409.0,8.0,4.0,1.0,2.0,2.0,383.8855009744293,4.0,1.0,phase_1,,,,,,,,,,,,,green,cross
0.0,6.0,0.0,1.0,2.0,2.0,330.0210574525408,4.0,1.0,phase_1,,,,,,,,,,,,,white,triangle
203.0,7.0,2.0,1.0,4.0,4.0,363.0095854387036,4.0,1.0,phase_1,,,,,,,,,,,,,yellow,circle
33.0,5.0,0.5,1.0,1.0,1.0,262.3149934370303,4.0,1.0,phase_1,,,,,,,,,,,,,blue,diamond
194.0,7.0,2.0,1.0,2.0,2.0,286.1774189441348,4.0,1.0,phase_1,,,,,,,,,,,,,yellow,circle
404.0,4.0,4.0,0.0,2.0,2.0,331.8323094499646,4.0,1.0,phase_1,,,,,,,,,,,,,cyan,square
116.0,2.0,1.0,0.0,4.0,4.0,343.3944639764377,4.0,1.0,phase_1,,,,,,,,,,,,,gray,flipped triangle
0.0,1.0,0.5,0.0,6.0,6.0,658.1469216325786,1.0,1.0,phase_2,go,250.0,250.0,1.0,,,,,,,,,orange,I
0.0,7.0,2.0,1.0,5.0,5.0,579.2058945080498,1.0,1.0,phase_2,stop,250.0,250.0,3.0,,,,,,,,,yellow,circle
0.0,7.0,2.0,1.0,6.0,0.0,0.0,1.0,1.0,phase_2,stop,200.0,250.0,4.0,,,,,,,,,yellow,circle
0.0,2.0,1.0,0.0,6.0,6.0,527.0229265152011,1.0,1.0,phase_2,go,200.0,300.0,1.0,,,,,,,,,gray,flipped triangle
0.0,3.0,2.0,0.0,5.0,5.0,661.7190140168532,1.0,1.0,phase_2,go,200.0,300.0,1.0,,,,,,,,,magenta,hexagon
0.0,8.0,4.0,1.0,5.0,0.0,0.0,1.0,1.0,phase_2,stop,200.0,300.0,4.0,,,,,,,,,green,cross
0.0,4.0,4.0,0.0,5.0,5.0,630.1047843953711,1.0,1.0,phase_2,go,250.0,300.0,1.0,,,,,,,,,cyan,square
0.0,3.0,2.0,0.0,6.0,6.0,720.7768893858884,1.0,1.0,phase_2,go,250.0,300.0,1.0,,,,,,,,,magenta,hexagon
0.0,5.0,0.5,1.0,5.0,0.0,0.0,1.0,1.0,phase_2,stop,250.0,300.0,4.0,,,,,,,,,blue,diamond
0.0,2.0,1.0,0.0,6.0,6.0,664.9465727532515,1.0,1.0,phase_2,go,300.0,300.0,1.0,,,,,,,,,gray,flipped triangle
0.0,5.0,0.5,1.0,5.0,0.0,0.0,1.0,1.0,phase_2,stop,300.0,300.0,4.0,,,,,,,,,blue,diamond
0.0,7.0,2.0,1.0,5.0,0.0,0.0,1.0,1.0,phase_2,stop,350.0,300.0,4.0,,,,,,,,,yellow,circle
0.0,8.0,4.0,1.0,5.0,0.0,0.0,1.0,1.0,phase_2,stop,400.0,300.0,4.0,,,,,,,,,green,cross
0.0,3.0,2.0,0.0,5.0,5.0,816.5442618701491,1.0,1.0,phase_2,go,450.0,300.0,1.0,,,,,,,,,magenta,hexagon
0.0,5.0,0.5,1.0,5.0,5.0,580.3370136272861,1.0,1.0,phase_2,stop,450.0,300.0,3.0,,,,,,,,,blue,diamond
0.0,5.0,0.5,1.0,6.0,0.0,0.0,1.0,1.0,phase_2,stop,400.0,300.0,4.0,,,,,,,,,blue,diamond
0.0,5.0,0.5,1.0,6.0,0.0,0.0,1.0,1.0,phase_2,stop,400.0,350.0,4.0,,,,,,,,,blue,diamond
0.0,4.0,4.0,0.0,6.0,6.0,740.2987853856757,1.0,1.0,phase_2,go,400.0,400.0,1.0,,,,,,,,,cyan,square
0.0,5.0,0.5,1.0,6.0,6.0,854.6268051286461,1.0,1.0,phase_2,go,400.0,400.0,1.0,,,,,,,,,blue,diamond
0.0,6.0,1.0,1.0,6.0,0.0,0.0,1.0,1.0,phase_2,stop,400.0,400.0,4.0,,,,,,,,,white,triangle
0.0,1.0,0.5,0.0,6.0,6.0,911.1190618787076,1.0,1.0,phase_2,go,400.0,450.0,1.0,,,,,,,,,orange,I
0.0,3.0,2.0,0.0,5.0,5.0,845.924945511797,1.0,1.0,phase_2,go,400.0,450.0,1.0,,,,,,,,,magenta,hexagon
0.0,6.0,1.0,1.0,6.0,0.0,0.0,1.0,1.0,phase_2,stop,400.0,450.0,4.0,,,,,,,,,white,triangle
0.0,6.0,1.0,1.0,6.0,0.0,0.0,1.0,1.0,phase_2,stop,400.0,500.0,4.0,,,,,,,,,white,triangle
0.0,8.0,4.0,1.0,6.0,6.0,915.106095126248,1.0,1.0,phase_2,go,400.0,550.0,1.0,,,,,,,,,green,cross
0.0,3.0,2.0,0.0,6.0,6.0,881.2429528770735,1.0,1.0,phase_2,go,400.0,550.0,1.0,,,,,,,,,magenta,hexagon
0.0,5.0,0.5,1.0,5.0,0.0,0.0,1.0,1.0,phase_2,stop,400.0,550.0,4.0,,,,,,,,,blue,diamond
0.0,6.0,1.0,1.0,5.0,0.0,0.0,1.0,1.0,phase_2,stop,450.0,550.0,4.0,,,,,,,,,white,triangle
0.0,2.0,1.0,0.0,6.0,6.0,941.713834006805,1.0,1.0,phase_2,go,500.0,550.0,1.0,,,,,,,,,gray,flipped triangle
0.0,8.0,4.0,1.0,5.0,0.0,0.0,1.0,1.0,phase_2,stop,500.0,550.0,4.0,,,,,,,,,green,cross
0.0,4.0,4.0,0.0,6.0,6.0,526.0130335154827,1.0,1.0,phase_2,go,550.0,550.0,1.0,,,,,,,,,cyan,square
0.0,4.0,4.0,0.0,6.0,6.0,762.2832571214531,1.0,1.0,phase_2,go,550.0,550.0,1.0,,,,,,,,,cyan,square
0.0,7.0,2.0,1.0,6.0,6.0,888.4996845081332,1.0,1.0,phase_2,go,550.0,550.0,1.0,,,,,,,,,yellow,circle
0.0,5.0,0.5,1.0,6.0,0.0,0.0,1.0,1.0,phase_2,stop,550.0,550.0,4.0,,,,,,,,,blue,diamond
0.0,4.0,4.0,0.0,6.0,6.0,664.7618330171099,1.0,1.0,phase_2,go,550.0,600.0,1.0,,,,,,,,,cyan,square
0.0,5.0,0.5,1.0,6.0,6.0,621.2763335133786,1.0,1.0,phase_2,stop,550.0,600.0,3.0,,,,,,,,,blue,diamond
0.0,1.0,0.5,0.0,5.0,5.0,418.6067449045367,2.0,1.0,phase_2,go,550.0,550.0,1.0,,,,,,,,,orange,I
0.0,3.0,2.0,0.0,5.0,5.0,284.605858141731,2.0,1.0,phase_2,go,550.0,550.0,1.0,,,,,,,,,magenta,hexagon
0.0,1.0,0.5,0.0,5.0,5.0,330.4071516249678,2.0,1.0,phase_2,go,550.0,550.0,1.0,,,,,,,,,orange,I
0.0,5.0,0.5,1.0,5.0,5.0,308.6056607571663,2.0,1.0,phase_2,stop,550.0,550.0,3.0,,,,,,,,,blue,diamond
0.0,6.0,1.0,1.0,5.0,5.0,456.6514597536297,2.0,1.0,phase_2,go,500.0,550.0,1.0,,,,,,,,,white,triangle
0.0,6.0,1.0,1.0,5.0,5.0,288.0302839985234,2.0,1.0,phase_2,stop,500.0,550.0,3.0,,,,,,,,,white,triangle
0.0,1.0,0.5,0.0,5.0,5.0,548.1538011226803,2.0,1.0,phase_2,go,450.0,550.0,1.0,,,,,,,,,orange,I
0.0,6.0,1.0,1.0,5.0,5.0,323.9682260027621,2.0,1.0,phase_2,go,450.0,550.0,1.0,,,,,,,,,white,triangle
0.0,2.0,1.0,0.0,5.0,5.0,560.1958161423681,2.0,1.0,phase_2,go,450.0,550.0,1.0,,,,,,,,,gray,flipped triangle
0.0,7.0,2.0,1.0,6.0,6.0,371.5961702400818,2.0,1.0,phase_2,stop,450.0,550.0,3.0,,,,,,,,,yellow,circle
0.0,3.0,2.0,0.0,5.0,5.0,325.5455997568788,2.0,1.0,phase_2,go,450.0,500.0,1.0,,,,,,,,,magenta,hexagon
0.0,5.0,0.5,1.0,6.0,6.0,463.1272152691963,2.0,1.0,phase_2,stop,450.0,500.0,3.0,,,,,,,,,blue,diamond
0.0,1.0,0.5,0.0,6.0,6.0,486.4761988792452,2.0,1.0,phase_2,go,450.0,450.0,1.0,,,,,,,,,orange,I
0.0,2.0,1.0,0.0,6.0,6.0,463.2801596308127,2.0,1.0,phase_2,go,450.0,450.0,1.0,,,,,,,,,gray,flipped triangle
0.0,4.0,4.0,0.0,5.0,5.0,577.8126971199526,2.0,1.0,phase_2,go,450.0,450.0,1.0,,,,,,,,,cyan,square
0.0,5.0,0.5,1.0,6.0,6.0,443.5292630150798,2.0,1.0,phase_2,stop,450.0,450.0,3.0,,,,,,,,,blue,diamond
0.0,5.0,0.5,1.0,6.0,6.0,286.0998790201847,2.0,1.0,phase_2,go,450.0,400.0,1.0,,,,,,,,,blue,diamond
0.0,4.0,4.0,0.0,6.0,6.0,511.6356501239352,2.0,1.0,phase_2,go,450.0,400.0,1.0,,,,,,,,,cyan,square
0.0,3.0,2.0,0.0,5.0,5.0,749.064717143483,2.0,1.0,phase_2,go,450.0,400.0,1.0,,,,,,,,,magenta,hexagon
0.0,1.0,0.5,0.0,6.0,6.0,874.6715078013949,2.0,1.0,phase_2,go,450.0,400.0,1.0,,,,,,,,,orange,I
0.0,2.0,1.0,0.0,6.0,6.0,480.7182667573215,2.0,1.0,phase_2,go,450.0,400.0,1.0,,,,,,,,,gray,flipped triangle
0.0,4.0,4.0,0.0,6.0,6.0,527.335148632119,2.0,1.0,phase_2,go,450.0,400.0,1.0,,,,,,,,,cyan,square
0.0,3.0,2.0,0.0,5.0,5.0,650.7888777559856,2.0,1.0,phase_2,go,450.0,400.0,1.0,,,,,,,,,magenta,hexagon
0.0,3.0,2.0,0.0,6.0,6.0,304.4022016329109,2.0,1.0,phase_2,go,450.0,400.0,1.0,,,,,,,,,magenta,hexagon
0.0,1.0,0.5,0.0,6.0,6.0,438.8095828762743,2.0,1.0,phase_2,go,450.0,400.0,1.0,,,,,,,,,orange,I
0.0,6.0,1.0,1.0,5.0,5.0,542.4259717547102,2.0,1.0,phase_2,stop,450.0,400.0,3.0,,,,,,,,,white,triangle
0.0,5.0,0.5,1.0,5.0,5.0,362.0489883905975,2.0,1.0,phase_2,go,400.0,400.0,1.0,,,,,,,,,blue,diamond
0.0,4.0,4.0,0.0,6.0,6.0,814.1353951286874,2.0,1.0,phase_2,go,400.0,400.0,1.0,,,,,,,,,cyan,square
0.0,8.0,4.0,1.0,6.0,6.0,397.3504589957883,2.0,1.0,phase_2,stop,400.0,400.0,3.0,,,,,,,,,green,cross
0.0,4.0,4.0,0.0,5.0,5.0,613.0382693881984,2.0,1.0,phase_2,go,400.0,350.0,1.0,,,,,,,,,cyan,square
0.0,2.0,1.0,0.0,6.0,6.0,342.6342965103686,2.0,1.0,phase_2,go,400.0,350.0,1.0,,,,,,,,,gray,flipped triangle
0.0,6.0,1.0,1.0,6.0,6.0,670.9931788718677,2.0,1.0,phase_2,go,400.0,350.0,1.0,,,,,,,,,white,triangle
0.0,5.0,0.5,1.0,5.0,0.0,0.0,2.0,1.0,phase_2,stop,400.0,350.0,4.0,,,,,,,,,blue,diamond
0.0,4.0,4.0,0.0,6.0,6.0,559.84661399998,2.0,1.0,phase_2,go,450.0,350.0,1.0,,,,,,,,,cyan,square
0.0,8.0,4.0,1.0,5.0,5.0,570.5872401449597,2.0,1.0,phase_2,stop,450.0,350.0,3.0,,,,,,,,,green,cross
0.0,7.0,2.0,1.0,6.0,0.0,0.0,2.0,1.0,phase_2,stop,400.0,350.0,4.0,,,,,,,,,yellow,circle
0.0,2.0,1.0,0.0,6.0,6.0,652.4847525070072,3.0,1.0,phase_2,go,400.0,400.0,1.0,,,,,,,,,gray,flipped triangle
0.0,7.0,2.0,1.0,5.0,0.0,0.0,3.0,1.0,phase_2,stop,400.0,400.0,4.0,,,,,,,,,yellow,circle
0.0,5.0,0.5,1.0,5.0,5.0,641.7489288724028,3.0,1.0,phase_2,go,450.0,400.0,1.0,,,,,,,,,blue,diamond
0.0,2.0,1.0,0.0,5.0,5.0,723.8139305118239,3.0,1.0,phase_2,go,450.0,400.0,1.0,,,,,,,,,gray,flipped triangle
0.0,8.0,4.0,1.0,6.0,6.0,396.4988331281347,3.0,1.0,phase_2,go,450.0,400.0,1.0,,,,,,,,,green,cross
0.0,2.0,1.0,0.0,5.0,5.0,522.3531085139257,3.0,1.0,phase_2,go,450.0,400.0,1.0,,,,,,,,,gray,flipped triangle
0.0,2.0,1.0,0.0,6.0,6.0,431.7025642667431,3.0,1.0,phase_2,go,450.0,400.0,1.0,,,,,,,,,gray,flipped triangle
0.0,2.0,1.0,0.0,6.0,6.0,670.1434443893959,3.0,1.0,phase_2,go,450.0,400.0,1.0,,,,,,,,,gray,flipped triangle
0.0,7.0,2.0,1.0,6.0,6.0,636.0626020177733,3.0,1.0,phase_2,go,450.0,400.0,1.0,,,,,,,,,yellow,circle
0.0,8.0,4.0,1.0,5.0,5.0,461.9299388796207,3.0,1.0,phase_2,stop,450.0,400.0,3.0,,,,,,,,,green,cross
0.0,6.0,1.0,1.0,5.0,5.0,410.6713832443347,3.0,1.0,phase_2,stop,400.0,400.0,3.0,,,,,,,,,white,triangle
0.0,5.0,0.5,1.0,6.0,0.0,0.0,3.0,1.0,phase_2,stop,350.0,400.0,4.0,,,,,,,,,blue,diamond
0.0,2.0,1.0,0.0,6.0,6.0,605.2073253813433,3.0,1.0,phase_2,go,350.0,450.0,1.0,,,,,,,,,gray,flipped triangle
0.0,8.0,4.0,1.0,5.0,0.0,0.0,3.0,1.0,phase_2,stop,350.0,450.0,4.0,,,,,,,,,green,cross
0.0,1.0,0.5,0.0,5.0,5.0,539.8838408073061,3.0,1.0,phase_2,go,400.0,450.0,1.0,,,,,,,,,orange,I
0.0,5.0,0.5,1.0,6.0,6.0,563.501618875307,3.0,1.0,phase_2,go,400.0,450.0,1.0,,,,,,,,,blue,diamond
0.0,8.0,4.0,1.0,6.0,0.0,0.0,3.0,1.0,phase_2,stop,400.0,450.0,4.0,,,,,,,,,green,cross
0.0,2.0,1.0,0.0,6.0,6.0,587.611206145084,3.0,1.0,phase_2,go,400.0,500.0,1.0,,,,,,,,,gray,flipped triangle
0.0,3.0,2.0,0.0,6.0,6.0,522.2563127608737,3.0,1.0,phase_2,go,400.0,500.0,1.0,,,,,,,,,magenta,hexagon
0.0,2.0,1.0,0.0,6.0,6.0,286.2748218758497,3.0,1.0,phase_2,go,400.0,500.0,1.0,,,,,,,,,gray,flipped triangle
0.0,3.0,2.0,0.0,5.0,5.0,478.8106520209112,3.0,1.0,phase_2,go,400.0,500.0,1.0,,,,,,,,,magenta,hexagon
0.0,4.0,4.0,0.0,6.0,6.0,782.7600767559488,3.0,1.0,phase_2,go,400.0,500.0,1.0,,,,,,,,,cyan,square
0.0,8.0,4.0,1.0,6.0,6.0,534.944615632412,3.0,1.0,phase_2,stop,400.0,500.0,3.0,,,,,,,,,green,cross
0.0,4.0,4.0,0.0,5.0,5.0,773.3853411409655,3.0,1.0,phase_2,go,400.0,450.0,1.0,,,,,,,,,cyan,square
0.0,6.0,1.0,1.0,5.0,5.0,504.40457727381727,3.0,1.0,phase_2,go,400.0,450.0,1.0,,,,,,,,,white,triangle
0.0,1.0,0.5,0.0,5.0,5.0,492.9854075089679,3.0,1.0,phase_2,go,400.0,450.0,1.0,,,,,,,,,orange,I
0.0,4.0,4.0,0.0,6.0,6.0,381.8648640153697,3.0,1.0,phase_2,go,400.0,450.0,1.0,,,,,,,,,cyan,square
0.0,6.0,1.0,1.0,6.0,6.0,360.2622565158526,3.0,1.0,phase_2,stop,400.0,450.0,3.0,,,,,,,,,white,triangle
0.0,2.0,1.0,0.0,5.0,5.0,496.5336097593535,3.0,1.0,phase_2,go,400.0,400.0,1.0,,,,,,,,,gray,flipped triangle
0.0,1.0,0.5,0.0,6.0,6.0,418.4691368718631,3.0,1.0,phase_2,go,400.0,400.0,1.0,,,,,,,,,orange,I
0.0,3.0,2.0,0.0,5.0,5.0,305.620135513891,3.0,1.0,phase_2,go,400.0,400.0,1.0,,,,,,,,,magenta,hexagon
0.0,6.0,1.0,1.0,6.0,6.0,532.1037088724552,3.0,1.0,phase_2,stop,400.0,400.0,3.0,,,,,,,,,white,triangle
0.0,7.0,2.0,1.0,5.0,5.0,296.8230063925148,3.0,1.0,phase_2,stop,400.0,350.0,3.0,,,,,,,,,yellow,circle
0.0,7.0,2.0,1.0,5.0,0.0,0.0,3.0,1.0,phase_2,stop,350.0,350.0,4.0,,,,,,,,,yellow,circle
0.0,2.0,1.0,0.0,5.0,5.0,726.0170603840379,3.0,1.0,phase_2,go,400.0,350.0,1.0,,,,,,,,,gray,flipped triangle
0.0,5.0,0.5,1.0,6.0,6.0,445.4849256362649,3.0,1.0,phase_2,stop,400.0,350.0,3.0,,,,,,,,,blue,diamond
0.0,1.0,0.5,0.0,6.0,6.0,350.3523562685586,4.0,1.0,phase_2,go,400.0,300.0,1.0,,,,,,,,,orange,I
0.0,8.0,4.0,1.0,6.0,6.0,283.862569143821,4.0,1.0,phase_2,stop,400.0,300.0,3.0,,,,,,,,,green,cross
0.0,8.0,4.0,1.0,6.0,6.0,464.6603603905532,4.0,1.0,phase_2,go,400.0,250.0,1.0,,,,,,,,,green,cross
0.0,4.0,4.0,0.0,5.0,5.0,544.9083303901716,4.0,1.0,phase_2,go,400.0,250.0,1.0,,,,,,,,,cyan,square
0.0,7.0,2.0,1.0,6.0,0.0,0.0,4.0,1.0,phase_2,stop,400.0,250.0,4.0,,,,,,,,,yellow,circle
0.0,1.0,0.5,0.0,5.0,5.0,388.3531507526641,4.0,1.0,phase_2,go,400.0,300.0,1.0,,,,,,,,,orange,I
0.0,3.0,2.0,0.0,6.0,6.0,602.7489072730532,4.0,1.0,phase_2,go,400.0,300.0,1.0,,,,,,,,,magenta,hexagon
0.0,2.0,1.0,0.0,5.0,5.0,625.9804418732529,4.0,1.0,phase_2,go,400.0,300.0,1.0,,,,,,,,,gray,flipped triangle
0.0,7.0,2.0,1.0,5.0,5.0,345.3283468988957,4.0,1.0,phase_2,stop,400.0,300.0,3.0,,,,,,,,,yellow,circle
0.0,1.0,0.5,0.0,5.0,5.0,594.2766383886919,4.0,1.0,phase_2,go,350.0,300.0,1.0,,,,,,,,,orange,I
0.0,8.0,4.0,1.0,5.0,5.0,517.2132628795225,4.0,1.0,phase_2,go,350.0,300.0,1.0,,,,,,,,,green,cross
0.0,5.0,0.5,1.0,6.0,6.0,325.288393869414,4.0,1.0,phase_2,stop,350.0,300.0,3.0,,,,,,,,,blue,diamond
0.0,4.0,4.0,0.0,6.0,6.0,337.0952328768908,4.0,1.0,phase_2,go,350.0,250.0,1.0,,,,,,,,,cyan,square
0.0,8.0,4.0,1.0,5.0,0.0,0.0,4.0,1.0,phase_2,stop,350.0,250.0,4.0,,,,,,,,,green,cross
0.0,5.0,0.5,1.0,5.0,5.0,419.3618881472503,4.0,1.0,phase_2,go,400.0,250.0,1.0,,,,,,,,,blue,diamond
0.0,6.0,1.0,1.0,6.0,6.0,340.9937118995003,4.0,1.0,phase_2,go,400.0,250.0,1.0,,,,,,,,,white,triangle
0.0,1.0,0.5,0.0,5.0,5.0,499.8235412713256,4.0,1.0,phase_2,go,400.0,250.0,1.0,,,,,,,,,orange,I
0.0,2.0,1.0,0.0,5.0,5.0,544.2460477570421,4.0,1.0,phase_2,go,400.0,250.0,1.0,,,,,,,,,gray,flipped triangle
0.0,8.0,4.0,1.0,5.0,0.0,0.0,4.0,1.0,phase_2,stop,400.0,250.0,4.0,,,,,,,,,green,cross
0.0,4.0,4.0,0.0,6.0,6.0,434.0082571288803,4.0,1.0,phase_2,go,450.0,250.0,1.0,,,,,,,,,cyan,square
0.0,3.0,2.0,0.0,6.0,6.0,356.0821017599664,4.0,1.0,phase_2,go,450.0,250.0,1.0,,,,,,,,,magenta,hexagon
0.0,3.0,2.0,0.0,6.0,6.0,547.9805095092161,4.0,1.0,phase_2,go,450.0,250.0,1.0,,,,,,,,,magenta,hexagon
0.0,7.0,2.0,1.0,5.0,5.0,559.2068936311989,4.0,1.0,phase_2,go,450.0,250.0,1.0,,,,,,,,,yellow,circle
0.0,6.0,1.0,1.0,6.0,6.0,369.7033042699331,4.0,1.0,phase_2,stop,450.0,250.0,3.0,,,,,,,,,white,triangle
0.0,8.0,4.0,1.0,6.0,0.0,0.0,4.0,1.0,phase_2,stop,450.0,200.0,4.0,,,,,,,,,green,cross
0.0,2.0,1.0,0.0,6.0,6.0,473.6780963939964,4.0,1.0,phase_2,go,450.0,250.0,1.0,,,,,,,,,gray,flipped triangle
0.0,6.0,1.0,1.0,6.0,0.0,0.0,4.0,1.0,phase_2,stop,450.0,250.0,4.0,,,,,,,,,white,triangle
0.0,5.0,0.5,1.0,5.0,5.0,464.2841820241301,4.0,1.0,phase_2,stop,450.0,300.0,3.0,,,,,,,,,blue,diamond
0.0,6.0,1.0,1.0,6.0,6.0,464.665430758032,4.0,1.0,phase_2,go,400.0,300.0,1.0,,,,,,,,,white,triangle
0.0,8.0,4.0,1.0,5.0,5.0,463.7194086317322,4.0,1.0,phase_2,stop,400.0,300.0,3.0,,,,,,,,,green,cross
0.0,6.0,1.0,1.0,6.0,0.0,0.0,4.0,1.0,phase_2,stop,350.0,300.0,4.0,,,,,,,,,white,triangle
0.0,2.0,1.0,0.0,5.0,5.0,589.7192319971509,4.0,1.0,phase_2,go,350.0,350.0,1.0,,,,,,,,,gray,flipped triangle
0.0,4.0,4.0,0.0,6.0,6.0,547.1846673899563,4.0,1.0,phase_2,go,350.0,350.0,1.0,,,,,,,,,cyan,square
0.0,1.0,0.5,0.0,6.0,6.0,546.0166799166473,4.0,1.0,phase_2,go,350.0,350.0,1.0,,,,,,,,,orange,I
0.0,4.0,4.0,0.0,6.0,6.0,558.7598103884375,4.0,1.0,phase_2,go,350.0,350.0,1.0,,,,,,,,,cyan,square
0.0,6.0,1.0,1.0,5.0,0.0,0.0,4.0,1.0,phase_2,stop,350.0,350.0,4.0,,,,,,,,,white,triangle
0.0,1.0,0.5,0.0,5.0,5.0,397.8387791503337,5.0,1.0,phase_2,go,400.0,350.0,1.0,,,,,,,,,orange,I
0.0,2.0,1.0,0.0,6.0,6.0,365.3309301225818,5.0,1.0,phase_2,go,400.0,350.0,1.0,,,,,,,,,gray,flipped triangle
0.0,7.0,2.0,1.0,5.0,5.0,467.4870098751853,5.0,1.0,phase_2,stop,400.0,350.0,3.0,,,,,,,,,yellow,circle
0.0,8.0,4.0,1.0,5.0,5.0,468.3338485119748,5.0,1.0,phase_2,stop,350.0,350.0,3.0,,,,,,,,,green,cross
0.0,6.0,1.0,1.0,6.0,6.0,467.6657316304045,5.0,1.0,phase_2,stop,300.0,350.0,3.0,,,,,,,,,white,triangle
0.0,2.0,1.0,0.0,6.0,6.0,557.980510246125,5.0,1.0,phase_2,go,300.0,300.0,1.0,,,,,,,,,gray,flipped triangle
0.0,8.0,4.0,1.0,6.0,0.0,0.0,5.0,1.0,phase_2,stop,300.0,300.0,4.0,,,,,,,,,green,cross
0.0,2.0,1.0,0.0,6.0,6.0,582.5944507596432,5.0,1.0,phase_2,go,300.0,350.0,1.0,,,,,,,,,gray,flipped triangle
0.0,4.0,4.0,0.0,5.0,5.0,696.1330952690332,5.0,1.0,phase_2,go,300.0,350.0,1.0,,,,,,,,,cyan,square
0.0,8.0,4.0,1.0,6.0,6.0,529.659767751582,5.0,1.0,phase_2,stop,300.0,350.0,3.0,,,,,,,,,green,cross
0.0,1.0,0.5,0.0,5.0,5.0,517.7083516318817,5.0,1.0,phase_2,go,300.0,300.0,1.0,,,,,,,,,orange,I
0.0,4.0,4.0,0.0,5.0,5.0,551.6850902713486,5.0,1.0,phase_2,go,300.0,300.0,1.0,,,,,,,,,cyan,square
0.0,7.0,2.0,1.0,6.0,0.0,0.0,5.0,1.0,phase_2,stop,300.0,300.0,4.0,,,,,,,,,yellow,circle
0.0,6.0,1.0,1.0,6.0,0.0,0.0,5.0,1.0,phase_2,stop,300.0,350.0,4.0,,,,,,,,,white,triangle
0.0,2.0,1.0,0.0,5.0,5.0,488.5048145370092,5.0,1.0,phase_2,go,300.0,400.0,1.0,,,,,,,,,gray,flipped triangle
0.0,5.0,0.5,1.0,6.0,6.0,488.4935311420122,5.0,1.0,phase_2,stop,300.0,400.0,3.0,,,,,,,,,blue,diamond
0.0,7.0,2.0,1.0,6.0,0.0,0.0,5.0,1.0,phase_2,stop,300.0,350.0,4.0,,,,,,,,,yellow,circle
0.0,2.0,1.0,0.0,6.0,6.0,501.99465587502345,5.0,1.0,phase_2,go,300.0,400.0,1.0,,,,,,,,,gray,flipped triangle
0.0,3.0,2.0,0.0,6.0,6.0,670.6665023884852,5.0,1.0,phase_2,go,300.0,400.0,1.0,,,,,,,,,magenta,hexagon
0.0,5.0,0.5,1.0,6.0,6.0,504.1240123900934,5.0,1.0,phase_2,go,300.0,400.0,1.0,,,,,,,,,blue,diamond
0.0,7.0,2.0,1.0,5.0,0.0,0.0,5.0,1.0,phase_2,stop,300.0,400.0,4.0,,,,,,,,,yellow,circle
0.0,5.0,0.5,1.0,5.0,0.0,0.0,5.0,1.0,phase_2,stop,350.0,400.0,4.0,,,,,,,,,blue,diamond
0.0,6.0,1.0,1.0,6.0,0.0,0.0,5.0,1.0,phase_2,stop,400.0,400.0,4.0,,,,,,,,,white,triangle
0.0,3.0,2.0,0.0,6.0,6.0,551.3419777562376,5.0,1.0,phase_2,go,400.0,450.0,1.0,,,,,,,,,magenta,hexagon
0.0,8.0,4.0,1.0,5.0,0.0,0.0,5.0,1.0,phase_2,stop,400.0,450.0,4.0,,,,,,,,,green,cross
0.0,6.0,1.0,1.0,5.0,0.0,0.0,5.0,1.0,phase_2,stop,450.0,450.0,4.0,,,,,,,,,white,triangle
0.0,1.0,0.5,0.0,5.0,5.0,620.8988680227776,5.0,1.0,phase_2,go,500.0,450.0,1.0,,,,,,,,,orange,I
0.0,1.0,0.5,0.0,6.0,6.0,497.3659492679871,5.0,1.0,phase_2,go,500.0,450.0,1.0,,,,,,,,,orange,I
0.0,8.0,4.0,1.0,5.0,0.0,0.0,5.0,1.0,phase_2,stop,500.0,450.0,4.0,,,,,,,,,green,cross
0.0,3.0,2.0,0.0,6.0,6.0,578.7949997538817,5.0,1.0,phase_2,go,550.0,450.0,1.0,,,,,,,,,magenta,hexagon
0.0,8.0,4.0,1.0,5.0,5.0,714.4552689933334,5.0,1.0,phase_2,go,550.0,450.0,1.0,,,,,,,,,green,cross
0.0,4.0,4.0,0.0,5.0,5.0,580.3140291463933,5.0,1.0,phase_2,go,550.0,450.0,1.0,,,,,,,,,cyan,square
0.0,8.0,4.0,1.0,6.0,0.0,0.0,5.0,1.0,phase_2,stop,550.0,450.0,4.0,,,,,,,,,green,cross
0.0,8.0,4.0,1.0,5.0,5.0,559.1485808763537,5.0,1.0,phase_2,go,550.0,500.0,1.0,,,,,,,,,green,cross
0.0,6.0,1.0,1.0,5.0,5.0,537.3114813846769,5.0,1.0,phase_2,go,550.0,500.0,1.0,,,,,,,,,white,triangle
0.0,5.0,0.5,1.0,5.0,5.0,549.1898926338763,5.0,1.0,phase_2,stop,550.0,500.0,3.0,,,,,,,,,blue,diamond
0.0,2.0,1.0,0.0,5.0,5.0,686.5925966267241,6.0,1.0,phase_2,go,500.0,500.0,1.0,,,,,,,,,gray,flipped triangle
0.0,1.0,0.5,0.0,6.0,6.0,495.0336242691264,6.0,1.0,phase_2,go,500.0,500.0,1.0,,,,,,,,,orange,I
0.0,8.0,4.0,1.0,6.0,6.0,372.4963018757989,6.0,1.0,phase_2,stop,500.0,500.0,3.0,,,,,,,,,green,cross
0.0,3.0,2.0,0.0,5.0,5.0,508.9042783874902,6.0,1.0,phase_2,go,500.0,450.0,1.0,,,,,,,,,magenta,hexagon
0.0,3.0,2.0,0.0,5.0,5.0,499.2326448991662,6.0,1.0,phase_2,go,500.0,450.0,1.0,,,,,,,,,magenta,hexagon
0.0,7.0,2.0,1.0,6.0,6.0,375.5906711230636,6.0,1.0,phase_2,stop,500.0,450.0,3.0,,,,,,,,,yellow,circle
0.0,6.0,1.0,1.0,5.0,5.0,533.0973601448932,6.0,1.0,phase_2,go,500.0,400.0,1.0,,,,,,,,,white,triangle
0.0,1.0,0.5,0.0,6.0,6.0,265.8979653861024,6.0,1.0,phase_2,go,500.0,400.0,1.0,,,,,,,,,orange,I
0.0,3.0,2.0,0.0,5.0,5.0,322.3855782707687,6.0,1.0,phase_2,go,500.0,400.0,1.0,,,,,,,,,magenta,hexagon
0.0,8.0,4.0,1.0,6.0,6.0,502.9745051288046,6.0,1.0,phase_2,stop,500.0,400.0,3.0,,,,,,,,,green,cross
0.0,1.0,0.5,0.0,5.0,5.0,434.9653213939746,6.0,1.0,phase_2,go,500.0,350.0,1.0,,,,,,,,,orange,I
0.0,4.0,4.0,0.0,5.0,5.0,593.9653745153919,6.0,1.0,phase_2,go,500.0,350.0,1.0,,,,,,,,,cyan,square
0.0,1.0,0.5,0.0,6.0,6.0,504.8815218760865,6.0,1.0,phase_2,go,500.0,350.0,1.0,,,,,,,,,orange,I
0.0,1.0,0.5,0.0,5.0,5.0,483.0764207581524,6.0,1.0,phase_2,go,500.0,350.0,1.0,,,,,,,,,orange,I
0.0,1.0,0.5,0.0,6.0,6.0,439.1418096274719,6.0,1.0,phase_2,go,500.0,350.0,1.0,,,,,,,,,orange,I
0.0,7.0,2.0,1.0,6.0,0.0,0.0,6.0,1.0,phase_2,stop,500.0,350.0,4.0,,,,,,,,,yellow,circle
0.0,2.0,1.0,0.0,5.0,5.0,496.6723730176454,6.0,1.0,phase_2,go,500.0,400.0,1.0,,,,,,,,,gray,flipped triangle
0.0,1.0,0.5,0.0,6.0,6.0,464.8741687560687,6.0,1.0,phase_2,go,500.0,400.0,1.0,,,,,,,,,orange,I
0.0,3.0,2.0,0.0,5.0,5.0,398.7934732431313,6.0,1.0,phase_2,go,500.0,400.0,1.0,,,,,,,,,magenta,hexagon
0.0,6.0,1.0,1.0,6.0,6.0,330.4913617612328,6.0,1.0,phase_2,stop,500.0,400.0,3.0,,,,,,,,,white,triangle
0.0,6.0,1.0,1.0,5.0,5.0,377.0189826245769,6.0,1.0,phase_2,stop,500.0,350.0,3.0,,,,,,,,,white,triangle
0.0,2.0,1.0,0.0,5.0,5.0,568.9031735091703,6.0,1.0,phase_2,go,450.0,350.0,1.0,,,,,,,,,gray,flipped triangle
0.0,7.0,2.0,1.0,6.0,6.0,433.958521389286,6.0,1.0,phase_2,stop,450.0,350.0,3.0,,,,,,,,,yellow,circle
0.0,4.0,4.0,0.0,6.0,6.0,762.9376240220154,6.0,1.0,phase_2,go,450.0,300.0,1.0,,,,,,,,,cyan,square
0.0,6.0,1.0,1.0,5.0,0.0,0.0,6.0,1.0,phase_2,stop,450.0,300.0,4.0,,,,,,,,,white,triangle
0.0,1.0,0.5,0.0,5.0,5.0,560.2813173827599,6.0,1.0,phase_2,go,500.0,300.0,1.0,,,,,,,,,orange,I
0.0,6.0,1.0,1.0,5.0,5.0,607.1134013836854,6.0,1.0,phase_2,stop,500.0,300.0,3.0,,,,,,,,,white,triangle
0.0,6.0,1.0,1.0,5.0,5.0,595.6031068708398,6.0,1.0,phase_2,go,450.0,300.0,1.0,,,,,,,,,white,triangle
0.0,1.0,0.5,0.0,6.0,6.0,541.4184600158478,6.0,1.0,phase_2,go,450.0,300.0,1.0,,,,,,,,,orange,I
0.0,8.0,4.0,1.0,6.0,0.0,0.0,6.0,1.0,phase_2,stop,450.0,300.0,4.0,,,,,,,,,green,cross
0.0,3.0,2.0,0.0,5.0,5.0,577.2303122721496,6.0,1.0,phase_2,go,450.0,350.0,1.0,,,,,,,,,magenta,hexagon
0.0,7.0,2.0,1.0,6.0,6.0,622.9870185125037,6.0,1.0,phase_2,stop,450.0,350.0,3.0,,,,,,,,,yellow,circle
0.0,7.0,2.0,1.0,5.0,0.0,0.0,6.0,1.0,phase_2,stop,450.0,300.0,4.0,,,,,,,,,yellow,circle
0.0,4.0,4.0,0.0,5.0,5.0,623.1249228731031,6.0,1.0,phase_2,go,500.0,300.0,1.0,,,,,,,,,cyan,square
0.0,4.0,4.0,0.0,5.0,5.0,826.4354173661559,6.0,1.0,phase_2,go,500.0,300.0,1.0,,,,,,,,,cyan,square
0.0,5.0,0.5,1.0,6.0,6.0,658.4544969955459,6.0,1.0,phase_2,go,500.0,300.0,1.0,,,,,,,,,blue,diamond
0.0,2.0,1.0,0.0,5.0,5.0,529.9742052666261,7.0,1.0,phase_2,go,500.0,300.0,1.0,,,,,,,,,gray,flipped triangle
0.0,3.0,2.0,0.0,6.0,6.0,382.6768732469645,7.0,1.0,phase_2,go,500.0,300.0,1.0,,,,,,,,,magenta,hexagon
0.0,5.0,0.5,1.0,6.0,6.0,339.1012567590223,7.0,1.0,phase_2,stop,500.0,300.0,3.0,,,,,,,,,blue,diamond
0.0,7.0,2.0,1.0,5.0,5.0,418.7083725119009,7.0,1.0,phase_2,stop,500.0,250.0,3.0,,,,,,,,,yellow,circle
0.0,3.0,2.0,0.0,6.0,6.0,418.6257930196007,7.0,1.0,phase_2,go,450.0,250.0,1.0,,,,,,,,,magenta,hexagon
0.0,5.0,0.5,1.0,5.0,5.0,330.6563027508673,7.0,1.0,phase_2,stop,450.0,250.0,3.0,,,,,,,,,blue,diamond
0.0,7.0,2.0,1.0,6.0,6.0,555.4350712700398,7.0,1.0,phase_2,go,400.0,250.0,1.0,,,,,,,,,yellow,circle
0.0,3.0,2.0,0.0,6.0,6.0,479.2688505185651,7.0,1.0,phase_2,go,400.0,250.0,1.0,,,,,,,,,magenta,hexagon
0.0,5.0,0.5,1.0,5.0,5.0,444.6279927578871,7.0,1.0,phase_2,stop,400.0,250.0,3.0,,,,,,,,,blue,diamond
0.0,2.0,1.0,0.0,5.0,5.0,524.6006042434601,7.0,1.0,phase_2,go,350.0,250.0,1.0,,,,,,,,,gray,flipped triangle
0.0,7.0,2.0,1.0,5.0,0.0,0.0,7.0,1.0,phase_2,stop,350.0,250.0,4.0,,,,,,,,,yellow,circle
0.0,7.0,2.0,1.0,6.0,0.0,0.0,7.0,1.0,phase_2,stop,400.0,250.0,4.0,,,,,,,,,yellow,circle
0.0,6.0,1.0,1.0,6.0,0.0,0.0,7.0,1.0,phase_2,stop,400.0,300.0,4.0,,,,,,,,,white,triangle
0.0,4.0,4.0,0.0,5.0,5.0,516.3214877611608,7.0,1.0,phase_2,go,400.0,350.0,1.0,,,,,,,,,cyan,square
0.0,3.0,2.0,0.0,6.0,6.0,496.0980575124267,7.0,1.0,phase_2,go,400.0,350.0,1.0,,,,,,,,,magenta,hexagon
0.0,7.0,2.0,1.0,6.0,0.0,0.0,7.0,1.0,phase_2,stop,400.0,350.0,4.0,,,,,,,,,yellow,circle
0.0,6.0,1.0,1.0,5.0,5.0,428.8054530188674,7.0,1.0,phase_2,stop,400.0,400.0,3.0,,,,,,,,,white,triangle
0.0,1.0,0.5,0.0,6.0,6.0,587.6385890005622,7.0,1.0,phase_2,go,350.0,400.0,1.0,,,,,,,,,orange,I
0.0,3.0,2.0,0.0,5.0,5.0,454.4486423910712,7.0,1.0,phase_2,go,350.0,400.0,1.0,,,,,,,,,magenta,hexagon
0.0,3.0,2.0,0.0,6.0,6.0,352.8014592666295,7.0,1.0,phase_2,go,350.0,400.0,1.0,,,,,,,,,magenta,hexagon
0.0,2.0,1.0,0.0,5.0,5.0,556.3172582769766,7.0,1.0,phase_2,go,350.0,400.0,1.0,,,,,,,,,gray,flipped triangle
0.0,5.0,0.5,1.0,5.0,0.0,0.0,7.0,1.0,phase_2,stop,350.0,400.0,4.0,,,,,,,,,blue,diamond
0.0,6.0,1.0,1.0,5.0,5.0,513.6403368742322,7.0,1.0,phase_2,stop,400.0,400.0,3.0,,,,,,,,,white,triangle
0.0,1.0,0.5,0.0,6.0,6.0,312.5381597565138,7.0,1.0,phase_2,go,350.0,400.0,1.0,,,,,,,,,orange,I
0.0,6.0,1.0,1.0,6.0,6.0,255.61090514383977,7.0,1.0,phase_2,stop,350.0,400.0,3.0,,,,,,,,,white,triangle
0.0,7.0,2.0,1.0,5.0,5.0,537.2698193823453,7.0,1.0,phase_2,go,350.0,350.0,1.0,,,,,,,,,yellow,circle
0.0,1.0,0.5,0.0,5.0,5.0,347.3826029076008,7.0,1.0,phase_2,go,350.0,350.0,1.0,,,,,,,,,orange,I
0.0,7.0,2.0,1.0,5.0,5.0,404.4059426305466,7.0,1.0,phase_2,go,350.0,350.0,1.0,,,,,,,,,yellow,circle
0.0,3.0,2.0,0.0,6.0,6.0,359.912088875717,7.0,1.0,phase_2,go,350.0,350.0,1.0,,,,,,,,,magenta,hexagon
0.0,8.0,4.0,1.0,5.0,5.0,452.6362933902419,7.0,1.0,phase_2,go,350.0,350.0,1.0,,,,,,,,,green,cross
0.0,4.0,4.0,0.0,5.0,5.0,328.0872337563778,7.0,1.0,phase_2,go,350.0,350.0,1.0,,,,,,,,,cyan,square
0.0,8.0,4.0,1.0,6.0,6.0,419.3040638783714,7.0,1.0,phase_2,stop,350.0,350.0,3.0,,,,,,,,,green,cross
0.0,7.0,2.0,1.0,5.0,5.0,341.4361332688713,7.0,1.0,phase_2,go,350.0,300.0,1.0,,,,,,,,,yellow,circle
0.0,6.0,1.0,1.0,5.0,0.0,0.0,7.0,1.0,phase_2,stop,350.0,300.0,4.0,,,,,,,,,white,triangle
0.0,7.0,2.0,1.0,6.0,6.0,399.0501808730187,7.0,1.0,phase_2,go,400.0,300.0,1.0,,,,,,,,,yellow,circle
0.0,4.0,4.0,0.0,6.0,6.0,422.3660702700726,7.0,1.0,phase_2,go,400.0,300.0,1.0,,,,,,,,,cyan,square
0.0,2.0,1.0,0.0,5.0,5.0,501.5781378970132,8.0,1.0,phase_2,go,400.0,300.0,1.0,,,,,,,,,gray,flipped triangle
0.0,4.0,4.0,0.0,6.0,6.0,356.877217272995,8.0,1.0,phase_2,go,400.0,300.0,1.0,,,,,,,,,cyan,square
0.0,7.0,2.0,1.0,5.0,5.0,469.5920993908657,8.0,1.0,phase_2,stop,400.0,300.0,3.0,,,,,,,,,yellow,circle
0.0,7.0,2.0,1.0,6.0,6.0,314.6817855158588,8.0,1.0,phase_2,go,350.0,300.0,1.0,,,,,,,,,yellow,circle
0.0,3.0,2.0,0.0,5.0,5.0,460.7511065114522,8.0,1.0,phase_2,go,350.0,300.0,1.0,,,,,,,,,magenta,hexagon
0.0,8.0,4.0,1.0,6.0,6.0,405.0263005119632,8.0,1.0,phase_2,stop,350.0,300.0,3.0,,,,,,,,,green,cross
0.0,5.0,0.5,1.0,6.0,0.0,0.0,8.0,1.0,phase_2,stop,350.0,250.0,4.0,,,,,,,,,blue,diamond
0.0,1.0,0.5,0.0,5.0,5.0,462.7584911504527,8.0,1.0,phase_2,go,350.0,300.0,1.0,,,,,,,,,orange,I
0.0,1.0,0.5,0.0,5.0,5.0,374.9973808735376,8.0,1.0,phase_2,go,350.0,300.0,1.0,,,,,,,,,orange,I
0.0,5.0,0.5,1.0,6.0,6.0,419.3849371513352,8.0,1.0,phase_2,stop,350.0,300.0,3.0,,,,,,,,,blue,diamond
0.0,5.0,0.5,1.0,5.0,5.0,487.9345037552411,8.0,1.0,phase_2,go,350.0,250.0,1.0,,,,,,,,,blue,diamond
0.0,8.0,4.0,1.0,6.0,6.0,296.5291652435553,8.0,1.0,phase_2,go,350.0,250.0,1.0,,,,,,,,,green,cross
0.0,7.0,2.0,1.0,6.0,0.0,0.0,8.0,1.0,phase_2,stop,350.0,250.0,4.0,,,,,,,,,yellow,circle
0.0,4.0,4.0,0.0,5.0,5.0,467.9440871404949,8.0,1.0,phase_2,go,350.0,300.0,1.0,,,,,,,,,cyan,square
0.0,4.0,4.0,0.0,5.0,5.0,535.95403424697,8.0,1.0,phase_2,go,350.0,300.0,1.0,,,,,,,,,cyan,square
0.0,2.0,1.0,0.0,5.0,5.0,617.2578439945937,8.0,1.0,phase_2,go,350.0,300.0,1.0,,,,,,,,,gray,flipped triangle
0.0,7.0,2.0,1.0,5.0,5.0,347.5134866312146,8.0,1.0,phase_2,stop,350.0,300.0,3.0,,,,,,,,,yellow,circle
0.0,1.0,0.5,0.0,6.0,6.0,425.286138386582,8.0,1.0,phase_2,go,300.0,300.0,1.0,,,,,,,,,orange,I
0.0,5.0,0.5,1.0,5.0,5.0,246.4119515134371,8.0,1.0,phase_2,stop,300.0,300.0,3.0,,,,,,,,,blue,diamond
0.0,8.0,4.0,1.0,6.0,0.0,0.0,8.0,1.0,phase_2,stop,250.0,300.0,4.0,,,,,,,,,green,cross
0.0,3.0,2.0,0.0,5.0,5.0,597.0840425143251,8.0,1.0,phase_2,go,250.0,350.0,1.0,,,,,,,,,magenta,hexagon
0.0,3.0,2.0,0.0,6.0,6.0,306.446030139341,8.0,1.0,phase_2,go,250.0,350.0,1.0,,,,,,,,,magenta,hexagon
0.0,8.0,4.0,1.0,5.0,0.0,0.0,8.0,1.0,phase_2,stop,250.0,350.0,4.0,,,,,,,,,green,cross
0.0,4.0,4.0,0.0,5.0,5.0,532.1987063871347,8.0,1.0,phase_2,go,300.0,350.0,1.0,,,,,,,,,cyan,square
0.0,1.0,0.5,0.0,5.0,5.0,387.2600716276793,8.0,1.0,phase_2,go,300.0,350.0,1.0,,,,,,,,,orange,I
0.0,6.0,1.0,1.0,6.0,6.0,445.0952632760163,8.0,1.0,phase_2,stop,300.0,350.0,3.0,,,,,,,,,white,triangle
0.0,8.0,4.0,1.0,5.0,5.0,579.5693913896685,8.0,1.0,phase_2,go,300.0,300.0,1.0,,,,,,,,,green,cross
0.0,4.0,4.0,0.0,6.0,6.0,390.5872195173288,8.0,1.0,phase_2,go,300.0,300.0,1.0,,,,,,,,,cyan,square
0.0,4.0,4.0,0.0,5.0,5.0,491.0843408724759,8.0,1.0,phase_2,go,300.0,300.0,1.0,,,,,,,,,cyan,square
0.0,3.0,2.0,0.0,6.0,6.0,391.1201392693328,8.0,1.0,phase_2,go,300.0,300.0,1.0,,,,,,,,,magenta,hexagon
0.0,4.0,4.0,0.0,5.0,5.0,370.9015517524676,8.0,1.0,phase_2,go,300.0,300.0,1.0,,,,,,,,,cyan,square
0.0,2.0,1.0,0.0,6.0,6.0,471.6160757598118,8.0,1.0,phase_2,go,300.0,300.0,1.0,,,,,,,,,gray,flipped triangle
0.0,7.0,2.0,1.0,5.0,5.0,438.0394983891165,8.0,1.0,phase_2,stop,300.0,300.0,3.0,,,,,,,,,yellow,circle
0.0,3.0,2.0,0.0,5.0,5.0,485.2889110188698,8.0,1.0,phase_2,go,250.0,300.0,1.0,,,,,,,,,magenta,hexagon
0.0,2.0,1.0,0.0,5.0,5.0,451.9929630187107,8.0,1.0,phase_2,go,250.0,300.0,1.0,,,,,,,,,gray,flipped triangle
0.0,5.0,0.5,1.0,5.0,5.0,363.1843962721177,8.0,1.0,phase_2,stop,250.0,300.0,3.0,,,,,,,,,blue,diamond
0.0,2.0,1.0,0.0,7.0,4.0,406.0739164051483,1.0,2.0,phase_3,,,,,117.0,3.0,234.0,156.0,195.0,117.0,39.0,78.0,gray,flipped triangle
0.0,5.0,0.5,1.0,7.0,3.0,1362.158471303701,1.0,1.0,phase_3,,,,,234.0,6.0,78.0,39.0,234.0,117.0,156.0,195.0,blue,diamond
0.0,6.0,1.0,1.0,7.0,6.0,935.964382304519,1.0,1.0,phase_3,,,,,156.0,4.0,39.0,195.0,117.0,234.0,78.0,156.0,white,triangle
0.0,5.0,0.5,1.0,7.0,2.0,1106.3428630950511,1.0,1.0,phase_3,,,,,136.0,4.0,34.0,136.0,204.0,102.0,170.0,68.0,blue,diamond
0.0,3.0,2.0,0.0,7.0,1.0,1062.4784814062878,1.0,1.0,phase_3,,,,,245.0,5.0,245.0,196.0,49.0,147.0,294.0,98.0,magenta,hexagon
0.0,1.0,0.5,0.0,7.0,5.0,747.1368627084303,1.0,1.0,phase_3,,,,,176.0,4.0,88.0,44.0,264.0,132.0,176.0,220.0,orange,I
0.0,4.0,4.0,0.0,7.0,2.0,748.1055667085457,1.0,1.0,phase_3,,,,,176.0,4.0,264.0,176.0,44.0,88.0,132.0,220.0,cyan,square
0.0,1.0,0.5,0.0,7.0,5.0,794.9061550971237,1.0,1.0,phase_3,,,,,294.0,6.0,196.0,147.0,98.0,245.0,294.0,49.0,orange,I
0.0,8.0,4.0,1.0,7.0,6.0,728.5744403052377,1.0,1.0,phase_3,,,,,270.0,5.0,216.0,108.0,54.0,162.0,324.0,270.0,green,cross
0.0,8.0,4.0,1.0,7.0,6.0,1034.6029246065882,1.0,1.0,phase_3,,,,,220.0,5.0,44.0,176.0,88.0,132.0,264.0,220.0,green,cross
0.0,4.0,4.0,0.0,7.0,2.0,538.8053240967565,1.0,1.0,phase_3,,,,,39.0,1.0,234.0,39.0,117.0,195.0,156.0,78.0,cyan,square
0.0,3.0,2.0,0.0,7.0,4.0,844.8771994080744,1.0,1.0,phase_3,,,,,216.0,4.0,162.0,270.0,108.0,216.0,54.0,324.0,magenta,hexagon
0.0,3.0,2.0,0.0,7.0,4.0,733.6130746043636,1.0,1.0,phase_3,,,,,234.0,6.0,195.0,39.0,117.0,234.0,156.0,78.0,magenta,hexagon
0.0,4.0,4.0,0.0,7.0,2.0,665.6902360045933,1.0,1.0,phase_3,,,,,170.0,5.0,204.0,170.0,34.0,136.0,102.0,68.0,cyan,square
0.0,6.0,1.0,1.0,7.0,6.0,1366.0470200993586,1.0,1.0,phase_3,,,,,324.0,6.0,162.0,108.0,270.0,54.0,216.0,324.0,white,triangle
0.0,5.0,0.5,1.0,7.0,4.0,1365.7768432967714,1.0,1.0,phase_3,,,,,204.0,6.0,34.0,102.0,68.0,204.0,170.0,136.0,blue,diamond
0.0,1.0,0.5,0.0,7.0,4.0,974.2575357086024,1.0,1.0,phase_3,,,,,196.0,4.0,294.0,245.0,98.0,196.0,49.0,147.0,orange,I
0.0,7.0,2.0,1.0,7.0,2.0,760.8985691986163,1.0,1.0,phase_3,,,,,132.0,3.0,264.0,132.0,44.0,88.0,176.0,220.0,yellow,circle
0.0,6.0,1.0,1.0,7.0,2.0,1088.3374690965866,1.0,1.0,phase_3,,,,,264.0,6.0,176.0,264.0,220.0,88.0,44.0,132.0,white,triangle
0.0,8.0,4.0,1.0,7.0,2.0,775.7270396032254,1.0,1.0,phase_3,,,,,204.0,6.0,34.0,204.0,136.0,102.0,68.0,170.0,green,cross
0.0,1.0,0.5,0.0,7.0,5.0,765.0593909129384,2.0,1.0,phase_3,,,,,234.0,6.0,156.0,39.0,117.0,195.0,234.0,78.0,orange,I
0.0,8.0,4.0,1.0,7.0,2.0,665.1067862039781,2.0,1.0,phase_3,,,,,294.0,6.0,147.0,294.0,245.0,196.0,49.0,98.0,green,cross
0.0,1.0,0.5,0.0,7.0,4.0,485.3374966041883,2.0,1.0,phase_3,,,,,216.0,4.0,54.0,270.0,162.0,216.0,324.0,108.0,orange,I
0.0,4.0,4.0,0.0,7.0,6.0,970.5828519072384,2.0,1.0,phase_3,,,,,147.0,3.0,49.0,196.0,98.0,245.0,294.0,147.0,cyan,square
0.0,3.0,2.0,0.0,7.0,1.0,430.4168545058928,2.0,1.0,phase_3,,,,,132.0,3.0,132.0,176.0,264.0,220.0,44.0,88.0,magenta,hexagon
0.0,4.0,4.0,0.0,7.0,2.0,734.7964598084218,2.0,1.0,phase_3,,,,,147.0,3.0,245.0,147.0,294.0,49.0,196.0,98.0,cyan,square
0.0,2.0,1.0,0.0,7.0,5.0,479.3256943012238,2.0,1.0,phase_3,,,,,220.0,5.0,176.0,132.0,44.0,88.0,220.0,264.0,gray,flipped triangle
0.0,7.0,2.0,1.0,7.0,1.0,434.5683417050168,2.0,1.0,phase_3,,,,,44.0,1.0,44.0,220.0,132.0,264.0,88.0,176.0,yellow,circle
0.0,8.0,4.0,1.0,7.0,3.0,941.0308242004248,2.0,1.0,phase_3,,,,,162.0,3.0,270.0,324.0,162.0,54.0,216.0,108.0,green,cross
0.0,6.0,1.0,1.0,7.0,6.0,682.7574320996064,2.0,1.0,phase_3,,,,,220.0,5.0,176.0,264.0,88.0,132.0,44.0,220.0,white,triangle
0.0,2.0,1.0,0.0,7.0,4.0,560.3577630972723,2.0,1.0,phase_3,,,,,147.0,3.0,98.0,294.0,49.0,147.0,196.0,245.0,gray,flipped triangle
0.0,6.0,1.0,1.0,7.0,5.0,1079.397412999242,2.0,1.0,phase_3,,,,,204.0,6.0,136.0,102.0,68.0,34.0,204.0,170.0,white,triangle
0.0,7.0,2.0,1.0,7.0,4.0,529.0647303045262,2.0,1.0,phase_3,,,,,204.0,6.0,68.0,34.0,136.0,204.0,102.0,170.0,yellow,circle
0.0,5.0,0.5,1.0,7.0,2.0,823.5594908037456,2.0,1.0,phase_3,,,,,216.0,4.0,108.0,216.0,54.0,324.0,162.0,270.0,blue,diamond
0.0,5.0,0.5,1.0,7.0,4.0,767.467331905209,2.0,1.0,phase_3,,,,,220.0,5.0,264.0,88.0,132.0,220.0,176.0,44.0,blue,diamond
0.0,4.0,4.0,0.0,7.0,1.0,724.9118520994671,2.0,1.0,phase_3,,,,,117.0,3.0,117.0,195.0,156.0,39.0,78.0,234.0,cyan,square
0.0,6.0,1.0,1.0,7.0,4.0,522.0394498028327,2.0,1.0,phase_3,,,,,234.0,6.0,156.0,78.0,195.0,234.0,117.0,39.0,white,triangle
0.0,1.0,0.5,0.0,7.0,2.0,547.6218326075468,2.0,1.0,phase_3,,,,,132.0,3.0,88.0,132.0,264.0,176.0,44.0,220.0,orange,I
0.0,6.0,1.0,1.0,7.0,4.0,602.7036016021157,2.0,1.0,phase_3,,,,,102.0,3.0,136.0,68.0,170.0,102.0,34.0,204.0,white,triangle
0.0,5.0,0.5,1.0,7.0,1.0,941.9319669977996,2.0,1.0,phase_3,,,,,264.0,6.0,264.0,44.0,176.0,88.0,132.0,220.0,blue,diamond
0.0,7.0,2.0,1.0,7.0,4.0,692.3596522028674,3.0,1.0,phase_3,,,,,102.0,3.0,34.0,136.0,68.0,102.0,204.0,170.0,yellow,circle
0.0,5.0,0.5,1.0,7.0,5.0,1097.9822158042225,3.0,1.0,phase_3,,,,,216.0,4.0,324.0,270.0,54.0,108.0,216.0,162.0,blue,diamond
0.0,5.0,0.5,1.0,7.0,1.0,1448.3933142983003,3.0,1.0,phase_3,,,,,294.0,6.0,294.0,196.0,245.0,49.0,98.0,147.0,blue,diamond
0.0,4.0,4.0,0.0,7.0,4.0,761.5709046076518,3.0,1.0,phase_3,,,,,162.0,3.0,270.0,216.0,324.0,162.0,54.0,108.0,cyan,square
0.0,6.0,1.0,1.0,7.0,1.0,942.50544620445,3.0,1.0,phase_3,,,,,245.0,5.0,245.0,98.0,49.0,294.0,147.0,196.0,white,triangle
0.0,5.0,0.5,1.0,7.0,4.0,864.8960428035934,3.0,1.0,phase_3,,,,,195.0,5.0,156.0,234.0,78.0,195.0,39.0,117.0,blue,diamond
0.0,5.0,0.5,1.0,7.0,3.0,923.94350880204,3.0,1.0,phase_3,,,,,147.0,3.0,49.0,294.0,147.0,196.0,98.0,245.0,blue,diamond
0.0,2.0,1.0,0.0,7.0,2.0,1272.2515786008444,3.0,1.0,phase_3,,,,,176.0,4.0,132.0,176.0,88.0,220.0,264.0,44.0,gray,flipped triangle
0.0,8.0,4.0,1.0,7.0,4.0,1351.858423804515,3.0,1.0,phase_3,,,,,34.0,1.0,136.0,68.0,102.0,34.0,204.0,170.0,green,cross
0.0,1.0,0.5,0.0,7.0,3.0,679.5577125085401,3.0,1.0,phase_3,,,,,204.0,6.0,34.0,102.0,204.0,68.0,136.0,170.0,orange,I
0.0,2.0,1.0,0.0,7.0,2.0,1174.5043264090782,3.0,1.0,phase_3,,,,,170.0,5.0,204.0,170.0,34.0,136.0,68.0,102.0,gray,flipped triangle
0.0,7.0,2.0,1.0,7.0,5.0,725.3966651041992,3.0,1.0,phase_3,,,,,39.0,1.0,234.0,195.0,156.0,117.0,39.0,78.0,yellow,circle
0.0,2.0,1.0,0.0,7.0,2.0,1166.6849268076476,3.0,1.0,phase_3,,,,,54.0,1.0,216.0,54.0,270.0,108.0,324.0,162.0,gray,flipped triangle
0.0,3.0,2.0,0.0,7.0,5.0,907.4605136047468,3.0,1.0,phase_3,,,,,136.0,4.0,102.0,204.0,68.0,34.0,136.0,170.0,magenta,hexagon
0.0,8.0,4.0,1.0,7.0,3.0,953.6827815027208,3.0,1.0,phase_3,,,,,294.0,6.0,49.0,147.0,294.0,245.0,196.0,98.0,green,cross
0.0,6.0,1.0,1.0,7.0,1.0,1202.8122228002758,3.0,1.0,phase_3,,,,,98.0,2.0,98.0,49.0,196.0,294.0,147.0,245.0,white,triangle
0.0,2.0,1.0,0.0,7.0,2.0,1294.8790974041913,3.0,1.0,phase_3,,,,,98.0,2.0,196.0,98.0,245.0,147.0,294.0,49.0,gray,flipped triangle
0.0,2.0,1.0,0.0,7.0,4.0,745.081542605476,3.0,1.0,phase_3,,,,,195.0,5.0,234.0,156.0,78.0,195.0,117.0,39.0,gray,flipped triangle
0.0,7.0,2.0,1.0,7.0,1.0,778.4793426035321,3.0,1.0,phase_3,,,,,162.0,3.0,162.0,270.0,216.0,108.0,324.0,54.0,yellow,circle
0.0,1.0,0.5,0.0,7.0,6.0,1489.3309983017389,3.0,1.0,phase_3,,,,,108.0,2.0,54.0,324.0,162.0,216.0,270.0,108.0,orange,I
0.0,3.0,2.0,0.0,7.0,5.0,851.2329699151451,4.0,1.0,phase_3,,,,,68.0,2.0,204.0,102.0,34.0,136.0,68.0,170.0,magenta,hexagon
0.0,7.0,2.0,1.0,7.0,3.0,1223.8021754019428,4.0,1.0,phase_3,,,,,39.0,1.0,156.0,117.0,39.0,234.0,195.0,78.0,yellow,circle
0.0,4.0,4.0,0.0,7.0,4.0,729.5549530972494,4.0,1.0,phase_3,,,,,176.0,4.0,88.0,264.0,220.0,176.0,44.0,132.0,cyan,square
0.0,8.0,4.0,1.0,7.0,5.0,898.163867801486,4.0,1.0,phase_3,,,,,220.0,5.0,176.0,44.0,264.0,88.0,220.0,132.0,green,cross
0.0,7.0,2.0,1.0,7.0,3.0,968.1294524052646,4.0,1.0,phase_3,,,,,98.0,2.0,196.0,294.0,98.0,147.0,49.0,245.0,yellow,circle
0.0,3.0,2.0,0.0,7.0,5.0,822.3592243011808,4.0,1.0,phase_3,,,,,88.0,2.0,132.0,220.0,264.0,44.0,88.0,176.0,magenta,hexagon
0.0,3.0,2.0,0.0,7.0,2.0,1026.5665682090912,4.0,1.0,phase_3,,,,,117.0,3.0,39.0,117.0,234.0,156.0,78.0,195.0,magenta,hexagon
0.0,2.0,1.0,0.0,7.0,3.0,1049.3673969103838,4.0,1.0,phase_3,,,,,162.0,3.0,108.0,324.0,162.0,270.0,54.0,216.0,gray,flipped triangle
0.0,1.0,0.5,0.0,7.0,4.0,1061.4204762023292,4.0,1.0,phase_3,,,,,195.0,5.0,39.0,234.0,156.0,195.0,78.0,117.0,orange,I
0.0,4.0,4.0,0.0,7.0,2.0,1332.4609062983654,4.0,1.0,phase_3,,,,,204.0,6.0,102.0,204.0,170.0,136.0,68.0,34.0,cyan,square
0.0,3.0,2.0,0.0,7.0,4.0,1130.3601817126037,4.0,1.0,phase_3,,,,,49.0,1.0,147.0,294.0,196.0,49.0,98.0,245.0,magenta,hexagon
0.0,8.0,4.0,1.0,7.0,3.0,952.7882936017704,4.0,1.0,phase_3,,,,,234.0,6.0,78.0,39.0,234.0,195.0,117.0,156.0,green,cross
0.0,7.0,2.0,1.0,7.0,2.0,1156.997390302422,4.0,1.0,phase_3,,,,,196.0,4.0,98.0,196.0,245.0,147.0,294.0,49.0,yellow,circle
0.0,6.0,1.0,1.0,7.0,4.0,785.2634302034858,4.0,1.0,phase_3,,,,,108.0,2.0,54.0,270.0,324.0,108.0,216.0,162.0,white,triangle
0.0,7.0,2.0,1.0,7.0,5.0,966.4098515058868,4.0,1.0,phase_3,,,,,216.0,4.0,324.0,270.0,162.0,54.0,216.0,108.0,yellow,circle
0.0,4.0,4.0,0.0,7.0,2.0,1158.866274592583,4.0,1.0,phase_3,,,,,162.0,3.0,270.0,162.0,324.0,216.0,54.0,108.0,cyan,square
0.0,1.0,0.5,0.0,7.0,2.0,1148.8639196031727,4.0,1.0,phase_3,,,,,102.0,3.0,204.0,102.0,170.0,68.0,136.0,34.0,orange,I
0.0,8.0,4.0,1.0,7.0,5.0,833.9688136911718,4.0,1.0,phase_3,,,,,195.0,5.0,39.0,234.0,78.0,156.0,195.0,117.0,green,cross
0.0,2.0,1.0,0.0,7.0,3.0,1117.4108115956187,4.0,1.0,phase_3,,,,,170.0,5.0,68.0,102.0,170.0,204.0,34.0,136.0,gray,flipped triangle
0.0,3.0,2.0,0.0,7.0,6.0,1196.8707524065394,4.0,1.0,phase_3,,,,,216.0,4.0,270.0,162.0,108.0,54.0,324.0,216.0,magenta,hexagon
