raw_reward_magnitude,stim_reward,stepwise_reward_magnitude,paired_with_stopping,stim_location,response,reaction_time,block,num_trial_presentations,which_phase,stop_signal_trial_type,left_SSD,right_SSD,accuracy,chosen_bidding_amount,chosen_bidding_level,possible_bid_1,possible_bid_2,possible_bid_3,possible_bid_4,possible_bid_5,possible_bid_6,color_text,shape_text
404.0,4.0,4.0,0.0,2.0,2.0,326.9515984138706,1.0,1.0,phase_1,,,,,,,,,,,,,yellow,square
0.0,6.0,0.0,1.0,4.0,4.0,327.4472278426401,1.0,1.0,phase_1,,,,,,,,,,,,,white,hexagon
0.0,7.0,0.0,1.0,2.0,2.0,315.7877434132388,1.0,1.0,phase_1,,,,,,,,,,,,,cyan,triangle
109.0,6.0,1.0,1.0,2.0,2.0,305.4143047847901,1.0,1.0,phase_1,,,,,,,,,,,,,white,hexagon
397.0,8.0,4.0,1.0,2.0,2.0,294.6989709453191,1.0,1.0,phase_1,,,,,,,,,,,,,green,diamond
422.0,4.0,4.0,0.0,4.0,4.0,283.4257264184998,1.0,1.0,phase_1,,,,,,,,,,,,,yellow,square
0.0,2.0,0.0,0.0,1.0,1.0,308.7874537814059,1.0,1.0,phase_1,,,,,,,,,,,,,magenta,I
193.0,3.0,2.0,0.0,1.0,1.0,341.8161278386833,1.0,1.0,phase_1,,,,,,,,,,,,,orange,cross
0.0,5.0,0.0,1.0,2.0,2.0,454.6232818975113,1.0,1.0,phase_1,,,,,,,,,,,,,gray,flipped triangle
383.0,4.0,4.0,0.0,3.0,3.0,321.0314394746092,1.0,1.0,phase_1,,,,,,,,,,,,,yellow,square
0.0,8.0,0.0,1.0,1.0,1.0,276.7013189441059,1.0,1.0,phase_1,,,,,,,,,,,,,green,diamond
103.0,2.0,1.0,0.0,4.0,4.0,287.0305359465419,1.0,1.0,phase_1,,,,,,,,,,,,,magenta,I
388.0,4.0,4.0,0.0,2.0,2.0,242.5267703656572,1.0,1.0,phase_1,,,,,,,,,,,,,yellow,square
47.0,5.0,0.5,1.0,2.0,2.0,266.0422384142293,1.0,1.0,phase_1,,,,,,,,,,,,,gray,flipped triangle
395.0,4.0,4.0,0.0,1.0,1.0,367.9766388449934,1.0,1.0,phase_1,,,,,,,,,,,,,yellow,square
209.0,3.0,2.0,0.0,1.0,1.0,323.3660314144799,1.0,1.0,phase_1,,,,,,,,,,,,,orange,cross
378.0,4.0,4.0,0.0,2.0,2.0,257.1533567825099,1.0,1.0,phase_1,,,,,,,,,,,,,yellow,square
78.0,2.0,1.0,0.0,3.0,3.0,526.9717294140719,1.0,1.0,phase_1,,,,,,,,,,,,,magenta,I
114.0,2.0,1.0,0.0,3.0,3.0,472.1858364137006,1.0,1.0,phase_1,,,,,,,,,,,,,magenta,I
181.0,3.0,2.0,0.0,2.0,2.0,269.4649368932005,1.0,1.0,phase_1,,,,,,,,,,,,,orange,cross
179.0,3.0,2.0,0.0,3.0,3.0,282.238408421108,1.0,2.0,phase_1,,,,,,,,,,,,,orange,cross
72.0,5.0,0.5,1.0,1.0,1.0,349.6693893175688,1.0,1.0,phase_1,,,,,,,,,,,,,gray,flipped triangle
193.0,3.0,2.0,0.0,2.0,2.0,462.8391509395442,1.0,1.0,phase_1,,,,,,,,,,,,,orange,cross
84.0,2.0,1.0,0.0,1.0,1.0,678.2048439417849,1.0,1.0,phase_1,,,,,,,,,,,,,magenta,I
411.0,8.0,4.0,1.0,4.0,4.0,374.0256463133846,1.0,1.0,phase_1,,,,,,,,,,,,,green,diamond
0.0,1.0,0.0,0.0,1.0,1.0,329.48952037259,1.0,1.0,phase_1,,,,,,,,,,,,,blue,circle
0.0,1.0,0.0,0.0,2.0,2.0,343.0212129460415,1.0,1.0,phase_1,,,,,,,,,,,,,blue,circle
407.0,4.0,4.0,0.0,1.0,1.0,320.4032040011952,1.0,1.0,phase_1,,,,,,,,,,,,,yellow,square
103.0,6.0,1.0,1.0,2.0,2.0,399.2070998938288,1.0,1.0,phase_1,,,,,,,,,,,,,white,hexagon
195.0,7.0,2.0,1.0,1.0,1.0,344.5206737887929,1.0,1.0,phase_1,,,,,,,,,,,,,cyan,triangle
96.0,2.0,1.0,0.0,2.0,2.0,344.0548789440072,1.0,1.0,phase_1,,,,,,,,,,,,,magenta,I
101.0,6.0,1.0,1.0,1.0,1.0,354.8533483117353,1.0,1.0,phase_1,,,,,,,,,,,,,white,hexagon
50.0,5.0,0.5,1.0,3.0,3.0,445.8743258946924,1.0,1.0,phase_1,,,,,,,,,,,,,gray,flipped triangle
0.0,4.0,0.0,0.0,3.0,3.0,380.0065478935721,1.0,1.0,phase_1,,,,,,,,,,,,,yellow,square
187.0,7.0,2.0,1.0,2.0,2.0,357.46816041501,1.0,1.0,phase_1,,,,,,,,,,,,,cyan,triangle
410.0,4.0,4.0,0.0,3.0,3.0,335.396835944266,1.0,1.0,phase_1,,,,,,,,,,,,,yellow,square
190.0,7.0,2.0,1.0,2.0,2.0,359.0685089438921,1.0,1.0,phase_1,,,,,,,,,,,,,cyan,triangle
212.0,7.0,2.0,1.0,2.0,2.0,347.4047184208757,1.0,1.0,phase_1,,,,,,,,,,,,,cyan,triangle
417.0,8.0,4.0,1.0,3.0,3.0,337.8464784182142,1.0,1.0,phase_1,,,,,,,,,,,,,green,diamond
107.0,6.0,1.0,1.0,2.0,2.0,417.3511138942558,1.0,1.0,phase_1,,,,,,,,,,,,,white,hexagon
42.0,1.0,0.5,0.0,2.0,2.0,496.4757809430011,1.0,1.0,phase_1,,,,,,,,,,,,,blue,circle
0.0,6.0,0.0,1.0,1.0,1.0,349.9242538382532,1.0,1.0,phase_1,,,,,,,,,,,,,white,hexagon
56.0,1.0,0.5,0.0,2.0,2.0,464.3706388960709,1.0,1.0,phase_1,,,,,,,,,,,,,blue,circle
216.0,3.0,2.0,0.0,3.0,3.0,316.990358311159,1.0,1.0,phase_1,,,,,,,,,,,,,orange,cross
212.0,7.0,2.0,1.0,3.0,3.0,328.7846998355235,1.0,1.0,phase_1,,,,,,,,,,,,,cyan,triangle
113.0,6.0,1.0,1.0,4.0,4.0,396.04603594489157,1.0,1.0,phase_1,,,,,,,,,,,,,white,hexagon
0.0,4.0,0.0,0.0,4.0,4.0,419.5552134769968,1.0,1.0,phase_1,,,,,,,,,,,,,yellow,square
179.0,7.0,2.0,1.0,2.0,2.0,399.460459841066,1.0,1.0,phase_1,,,,,,,,,,,,,cyan,triangle
56.0,1.0,0.5,0.0,4.0,4.0,273.9487434155307,1.0,1.0,phase_1,,,,,,,,,,,,,blue,circle
194.0,3.0,2.0,0.0,3.0,3.0,466.8560679419897,1.0,1.0,phase_1,,,,,,,,,,,,,orange,cross
412.0,8.0,4.0,1.0,4.0,4.0,310.6334379481268,1.0,1.0,phase_1,,,,,,,,,,,,,green,diamond
219.0,3.0,2.0,0.0,2.0,2.0,300.2857794708689,1.0,1.0,phase_1,,,,,,,,,,,,,orange,cross
400.0,4.0,4.0,0.0,1.0,1.0,367.9051402577897,1.0,1.0,phase_1,,,,,,,,,,,,,yellow,square
408.0,4.0,4.0,0.0,4.0,4.0,357.238181415596,1.0,1.0,phase_1,,,,,,,,,,,,,yellow,square
44.0,5.0,0.5,1.0,3.0,3.0,480.6831578389392,1.0,1.0,phase_1,,,,,,,,,,,,,gray,flipped triangle
0.0,3.0,0.0,0.0,2.0,2.0,357.3575244154199,1.0,1.0,phase_1,,,,,,,,,,,,,orange,cross
392.0,4.0,4.0,0.0,2.0,2.0,335.687918945041,1.0,1.0,phase_1,,,,,,,,,,,,,yellow,square
388.0,8.0,4.0,1.0,2.0,2.0,347.6150054775644,1.0,1.0,phase_1,,,,,,,,,,,,,green,diamond
178.0,3.0,2.0,0.0,4.0,4.0,416.207079841115,1.0,1.0,phase_1,,,,,,,,,,,,,orange,cross
223.0,3.0,2.0,0.0,1.0,1.0,325.6401913677109,1.0,1.0,phase_1,,,,,,,,,,,,,orange,cross
217.0,3.0,2.0,0.0,4.0,4.0,360.0655804184498,1.0,1.0,phase_1,,,,,,,,,,,,,orange,cross
415.0,8.0,4.0,1.0,4.0,4.0,326.559506371268,1.0,1.0,phase_1,,,,,,,,,,,,,green,diamond
206.0,3.0,2.0,0.0,4.0,4.0,326.7315013654297,1.0,1.0,phase_1,,,,,,,,,,,,,orange,cross
0.0,7.0,0.0,1.0,3.0,3.0,294.3492128906655,1.0,1.0,phase_1,,,,,,,,,,,,,cyan,triangle
179.0,7.0,2.0,1.0,1.0,1.0,294.5517917833058,1.0,1.0,phase_1,,,,,,,,,,,,,cyan,triangle
0.0,2.0,0.0,0.0,2.0,2.0,363.8459188441629,1.0,1.0,phase_1,,,,,,,,,,,,,magenta,I
0.0,5.0,0.0,1.0,4.0,4.0,454.1868299420457,1.0,1.0,phase_1,,,,,,,,,,,,,gray,flipped triangle
393.0,8.0,4.0,1.0,4.0,4.0,396.9058614675305,1.0,1.0,phase_1,,,,,,,,,,,,,green,diamond
110.0,2.0,1.0,0.0,1.0,1.0,376.8487228444428,1.0,1.0,phase_1,,,,,,,,,,,,,magenta,I
198.0,7.0,2.0,1.0,2.0,2.0,410.3217024166952,1.0,1.0,phase_1,,,,,,,,,,,,,cyan,triangle
92.0,6.0,1.0,1.0,4.0,4.0,321.9316148461075,1.0,1.0,phase_1,,,,,,,,,,,,,white,hexagon
212.0,3.0,2.0,0.0,1.0,1.0,366.9153312584967,1.0,1.0,phase_1,,,,,,,,,,,,,orange,cross
191.0,7.0,2.0,1.0,3.0,3.0,321.3025363729684,1.0,1.0,phase_1,,,,,,,,,,,,,cyan,triangle
181.0,7.0,2.0,1.0,1.0,1.0,310.9247148458962,1.0,1.0,phase_1,,,,,,,,,,,,,cyan,triangle
84.0,6.0,1.0,1.0,1.0,1.0,311.8330888974014,1.0,1.0,phase_1,,,,,,,,,,,,,white,hexagon
409.0,4.0,4.0,0.0,2.0,2.0,335.9463443121058,1.0,1.0,phase_1,,,,,,,,,,,,,yellow,square
42.0,5.0,0.5,1.0,3.0,3.0,322.9287767826463,1.0,1.0,phase_1,,,,,,,,,,,,,gray,flipped triangle
417.0,8.0,4.0,1.0,3.0,3.0,481.2223333137808,1.0,1.0,phase_1,,,,,,,,,,,,,green,diamond
405.0,8.0,4.0,1.0,3.0,3.0,335.7446628433536,1.0,1.0,phase_1,,,,,,,,,,,,,green,diamond
79.0,6.0,1.0,1.0,1.0,1.0,302.3154689435614,1.0,1.0,phase_1,,,,,,,,,,,,,white,hexagon
103.0,2.0,1.0,0.0,3.0,3.0,381.9779094192199,1.0,1.0,phase_1,,,,,,,,,,,,,magenta,I
44.0,1.0,0.5,0.0,2.0,2.0,372.2803618948092,1.0,1.0,phase_1,,,,,,,,,,,,,blue,circle
0.0,8.0,0.0,1.0,4.0,4.0,427.5289103679824,1.0,1.0,phase_1,,,,,,,,,,,,,green,diamond
410.0,8.0,4.0,1.0,1.0,1.0,305.0921069443575,1.0,1.0,phase_1,,,,,,,,,,,,,green,diamond
72.0,1.0,0.5,0.0,2.0,2.0,407.7970224170713,1.0,1.0,phase_1,,,,,,,,,,,,,blue,circle
206.0,7.0,2.0,1.0,4.0,4.0,408.0262894713087,1.0,1.0,phase_1,,,,,,,,,,,,,cyan,triangle
93.0,2.0,1.0,0.0,2.0,2.0,420.9188494205591,1.0,1.0,phase_1,,,,,,,,,,,,,magenta,I
107.0,2.0,1.0,0.0,1.0,1.0,352.7097417900222,1.0,1.0,phase_1,,,,,,,,,,,,,magenta,I
412.0,4.0,4.0,0.0,1.0,1.0,409.2112363068736,1.0,1.0,phase_1,,,,,,,,,,,,,yellow,square
114.0,6.0,1.0,1.0,3.0,3.0,352.6059633077238,1.0,1.0,phase_1,,,,,,,,,,,,,white,hexagon
176.0,3.0,2.0,0.0,3.0,3.0,365.9012638963759,1.0,1.0,phase_1,,,,,,,,,,,,,orange,cross
80.0,6.0,1.0,1.0,3.0,3.0,398.6926444704295,1.0,1.0,phase_1,,,,,,,,,,,,,white,hexagon
393.0,4.0,4.0,0.0,4.0,4.0,333.0619169501005,1.0,1.0,phase_1,,,,,,,,,,,,,yellow,square
125.0,6.0,1.0,1.0,1.0,1.0,277.3362319494481,1.0,1.0,phase_1,,,,,,,,,,,,,white,hexagon
395.0,8.0,4.0,1.0,1.0,1.0,334.673182311235,1.0,1.0,phase_1,,,,,,,,,,,,,green,diamond
417.0,4.0,4.0,0.0,4.0,4.0,333.6634909428539,1.0,1.0,phase_1,,,,,,,,,,,,,yellow,square
0.0,6.0,0.0,1.0,1.0,1.0,368.2555003688321,1.0,1.0,phase_1,,,,,,,,,,,,,white,hexagon
0.0,8.0,0.0,1.0,2.0,2.0,516.4555309456773,1.0,1.0,phase_1,,,,,,,,,,,,,green,diamond
400.0,8.0,4.0,1.0,4.0,4.0,404.8223154750303,1.0,1.0,phase_1,,,,,,,,,,,,,green,diamond
422.0,8.0,4.0,1.0,3.0,3.0,448.7128248947556,1.0,1.0,phase_1,,,,,,,,,,,,,green,diamond
79.0,2.0,1.0,0.0,2.0,2.0,477.7402938925661,2.0,1.0,phase_1,,,,,,,,,,,,,magenta,I
27.0,5.0,0.5,1.0,4.0,4.0,332.8656039448106,2.0,1.0,phase_1,,,,,,,,,,,,,gray,flipped triangle
26.0,5.0,0.5,1.0,2.0,2.0,401.7683613710687,2.0,1.0,phase_1,,,,,,,,,,,,,gray,flipped triangle
78.0,6.0,1.0,1.0,2.0,2.0,368.610618308594,2.0,1.0,phase_1,,,,,,,,,,,,,white,hexagon
64.0,1.0,0.5,0.0,3.0,3.0,310.1874764179229,2.0,1.0,phase_1,,,,,,,,,,,,,blue,circle
0.0,4.0,0.0,0.0,3.0,3.0,379.3378973132348,2.0,1.0,phase_1,,,,,,,,,,,,,yellow,square
183.0,7.0,2.0,1.0,2.0,2.0,346.190684416797,2.0,1.0,phase_1,,,,,,,,,,,,,cyan,triangle
52.0,5.0,0.5,1.0,1.0,1.0,426.5248744777636,2.0,1.0,phase_1,,,,,,,,,,,,,gray,flipped triangle
0.0,3.0,0.0,0.0,2.0,2.0,335.8649744695867,2.0,1.0,phase_1,,,,,,,,,,,,,orange,cross
176.0,7.0,2.0,1.0,3.0,3.0,313.3318538457388,2.0,1.0,phase_1,,,,,,,,,,,,,cyan,triangle
43.0,1.0,0.5,0.0,3.0,3.0,382.7159208376542,2.0,1.0,phase_1,,,,,,,,,,,,,blue,circle
392.0,8.0,4.0,1.0,2.0,2.0,338.9378773135831,2.0,1.0,phase_1,,,,,,,,,,,,,green,diamond
88.0,2.0,1.0,0.0,3.0,3.0,372.5299304715008,2.0,1.0,phase_1,,,,,,,,,,,,,magenta,I
87.0,2.0,1.0,0.0,3.0,3.0,350.0288634750177,2.0,1.0,phase_1,,,,,,,,,,,,,magenta,I
193.0,7.0,2.0,1.0,3.0,3.0,315.894999417651,2.0,1.0,phase_1,,,,,,,,,,,,,cyan,triangle
0.0,8.0,0.0,1.0,2.0,2.0,294.362927415932,2.0,1.0,phase_1,,,,,,,,,,,,,green,diamond
0.0,4.0,0.0,0.0,3.0,3.0,295.342565899773,2.0,1.0,phase_1,,,,,,,,,,,,,yellow,square
216.0,3.0,2.0,0.0,2.0,2.0,272.9136893103714,2.0,1.0,phase_1,,,,,,,,,,,,,orange,cross
0.0,5.0,0.0,1.0,4.0,4.0,341.5207064172136,2.0,1.0,phase_1,,,,,,,,,,,,,gray,flipped triangle
77.0,2.0,1.0,0.0,1.0,1.0,409.8186668925336,2.0,1.0,phase_1,,,,,,,,,,,,,magenta,I
0.0,4.0,0.0,0.0,2.0,2.0,443.7413104678853,2.0,1.0,phase_1,,,,,,,,,,,,,yellow,square
0.0,1.0,0.0,0.0,1.0,1.0,342.5824907826609,2.0,1.0,phase_1,,,,,,,,,,,,,blue,circle
401.0,4.0,4.0,0.0,1.0,1.0,331.8298443118692,2.0,1.0,phase_1,,,,,,,,,,,,,yellow,square
32.0,1.0,0.5,0.0,1.0,1.0,334.6700524707557,2.0,1.0,phase_1,,,,,,,,,,,,,blue,circle
108.0,6.0,1.0,1.0,4.0,4.0,435.9321404190268,2.0,1.0,phase_1,,,,,,,,,,,,,white,hexagon
74.0,1.0,0.5,0.0,3.0,3.0,424.0940654708538,2.0,1.0,phase_1,,,,,,,,,,,,,blue,circle
412.0,8.0,4.0,1.0,4.0,4.0,378.6910489434376,2.0,1.0,phase_1,,,,,,,,,,,,,green,diamond
386.0,8.0,4.0,1.0,2.0,2.0,357.4661003658548,2.0,1.0,phase_1,,,,,,,,,,,,,green,diamond
68.0,1.0,0.5,0.0,3.0,3.0,391.8639173134579,2.0,1.0,phase_1,,,,,,,,,,,,,blue,circle
195.0,3.0,2.0,0.0,3.0,3.0,348.5624224704224,2.0,1.0,phase_1,,,,,,,,,,,,,orange,cross
214.0,7.0,2.0,1.0,2.0,2.0,574.6451974773663,2.0,1.0,phase_1,,,,,,,,,,,,,cyan,triangle
208.0,3.0,2.0,0.0,4.0,4.0,337.2113499426632,2.0,1.0,phase_1,,,,,,,,,,,,,orange,cross
0.0,1.0,0.0,0.0,3.0,3.0,337.7813148472341,2.0,1.0,phase_1,,,,,,,,,,,,,blue,circle
191.0,3.0,2.0,0.0,2.0,2.0,361.7528094182489,2.0,1.0,phase_1,,,,,,,,,,,,,orange,cross
0.0,7.0,0.0,1.0,1.0,1.0,328.7421338391141,2.0,1.0,phase_1,,,,,,,,,,,,,cyan,triangle
386.0,4.0,4.0,0.0,3.0,3.0,362.3561348431394,2.0,1.0,phase_1,,,,,,,,,,,,,yellow,square
0.0,1.0,0.0,0.0,4.0,4.0,496.7234078940237,2.0,1.0,phase_1,,,,,,,,,,,,,blue,circle
0.0,2.0,0.0,0.0,2.0,2.0,452.8716603672365,2.0,1.0,phase_1,,,,,,,,,,,,,magenta,I
0.0,6.0,0.0,1.0,1.0,1.0,319.8537925054552,2.0,1.0,phase_1,,,,,,,,,,,,,white,hexagon
0.0,7.0,0.0,1.0,1.0,1.0,319.5613684147247,2.0,1.0,phase_1,,,,,,,,,,,,,cyan,triangle
191.0,3.0,2.0,0.0,1.0,1.0,409.5976828393759,2.0,1.0,phase_1,,,,,,,,,,,,,orange,cross
35.0,1.0,0.5,0.0,2.0,2.0,320.0938832524116,2.0,1.0,phase_1,,,,,,,,,,,,,blue,circle
194.0,7.0,2.0,1.0,4.0,4.0,366.2758523132652,2.0,1.0,phase_1,,,,,,,,,,,,,cyan,triangle
87.0,6.0,1.0,1.0,2.0,2.0,412.1829747891752,2.0,1.0,phase_1,,,,,,,,,,,,,white,hexagon
102.0,2.0,1.0,0.0,2.0,2.0,400.4736258430057,2.0,1.0,phase_1,,,,,,,,,,,,,magenta,I
401.0,8.0,4.0,1.0,1.0,1.0,378.265868363087,2.0,1.0,phase_1,,,,,,,,,,,,,green,diamond
378.0,8.0,4.0,1.0,1.0,1.0,391.4206827830639,2.0,1.0,phase_1,,,,,,,,,,,,,green,diamond
82.0,6.0,1.0,1.0,4.0,4.0,502.9079143132549,2.0,1.0,phase_1,,,,,,,,,,,,,white,hexagon
388.0,4.0,4.0,0.0,2.0,2.0,347.3906289509614,2.0,1.0,phase_1,,,,,,,,,,,,,yellow,square
392.0,8.0,4.0,1.0,2.0,2.0,360.0631374210934,2.0,1.0,phase_1,,,,,,,,,,,,,green,diamond
223.0,7.0,2.0,1.0,4.0,4.0,347.6227103674318,2.0,1.0,phase_1,,,,,,,,,,,,,cyan,triangle
0.0,4.0,0.0,0.0,3.0,3.0,438.9377678962773,2.0,1.0,phase_1,,,,,,,,,,,,,yellow,square
113.0,6.0,1.0,1.0,1.0,1.0,463.1929934184882,2.0,1.0,phase_1,,,,,,,,,,,,,white,hexagon
409.0,8.0,4.0,1.0,2.0,2.0,283.1942998964223,2.0,1.0,phase_1,,,,,,,,,,,,,green,diamond
378.0,8.0,4.0,1.0,4.0,4.0,686.7053057867452,2.0,1.0,phase_1,,,,,,,,,,,,,green,diamond
38.0,5.0,0.5,1.0,1.0,1.0,374.685150469304,2.0,1.0,phase_1,,,,,,,,,,,,,gray,flipped triangle
85.0,6.0,1.0,1.0,4.0,4.0,294.645793896052,2.0,1.0,phase_1,,,,,,,,,,,,,white,hexagon
183.0,7.0,2.0,1.0,3.0,3.0,373.5901504696812,2.0,1.0,phase_1,,,,,,,,,,,,,cyan,triangle
108.0,2.0,1.0,0.0,2.0,2.0,364.638065417239,2.0,1.0,phase_1,,,,,,,,,,,,,magenta,I
106.0,2.0,1.0,0.0,4.0,4.0,329.3410514161223,2.0,1.0,phase_1,,,,,,,,,,,,,magenta,I
187.0,3.0,2.0,0.0,4.0,4.0,341.9930528398254,2.0,1.0,phase_1,,,,,,,,,,,,,orange,cross
56.0,5.0,0.5,1.0,4.0,4.0,308.6131140007637,2.0,1.0,phase_1,,,,,,,,,,,,,gray,flipped triangle
0.0,3.0,0.0,0.0,4.0,4.0,342.8978594165528,2.0,1.0,phase_1,,,,,,,,,,,,,orange,cross
383.0,8.0,4.0,1.0,2.0,2.0,421.7473474200233,2.0,1.0,phase_1,,,,,,,,,,,,,green,diamond
125.0,6.0,1.0,1.0,3.0,3.0,310.6397088922676,2.0,1.0,phase_1,,,,,,,,,,,,,white,hexagon
208.0,7.0,2.0,1.0,1.0,1.0,278.4719843693892,2.0,1.0,phase_1,,,,,,,,,,,,,cyan,triangle
37.0,5.0,0.5,1.0,2.0,2.0,446.4474768974469,2.0,1.0,phase_1,,,,,,,,,,,,,gray,flipped triangle
69.0,1.0,0.5,0.0,3.0,3.0,436.1569529428379,2.0,1.0,phase_1,,,,,,,,,,,,,blue,circle
38.0,5.0,0.5,1.0,4.0,4.0,392.5003459444269,2.0,1.0,phase_1,,,,,,,,,,,,,gray,flipped triangle
0.0,6.0,0.0,1.0,2.0,2.0,382.306721941859,2.0,1.0,phase_1,,,,,,,,,,,,,white,hexagon
50.0,1.0,0.5,0.0,2.0,2.0,449.5675752623356,2.0,1.0,phase_1,,,,,,,,,,,,,blue,circle
191.0,7.0,2.0,1.0,3.0,3.0,414.3561294695246,2.0,1.0,phase_1,,,,,,,,,,,,,cyan,triangle
0.0,8.0,0.0,1.0,4.0,4.0,404.1574364673579,2.0,1.0,phase_1,,,,,,,,,,,,,green,diamond
407.0,8.0,4.0,1.0,2.0,2.0,282.8062559419777,2.0,1.0,phase_1,,,,,,,,,,,,,green,diamond
85.0,2.0,1.0,0.0,4.0,4.0,393.8898639971739,2.0,1.0,phase_1,,,,,,,,,,,,,magenta,I
0.0,8.0,0.0,1.0,1.0,1.0,328.0977364775026,2.0,1.0,phase_1,,,,,,,,,,,,,green,diamond
178.0,7.0,2.0,1.0,4.0,4.0,351.0928069008514,2.0,1.0,phase_1,,,,,,,,,,,,,cyan,triangle
0.0,6.0,0.0,1.0,3.0,3.0,375.1013713117572,2.0,1.0,phase_1,,,,,,,,,,,,,white,hexagon
114.0,2.0,1.0,0.0,3.0,3.0,374.4416024710517,2.0,1.0,phase_1,,,,,,,,,,,,,magenta,I
393.0,8.0,4.0,1.0,3.0,3.0,318.3517393699731,2.0,1.0,phase_1,,,,,,,,,,,,,green,diamond
52.0,1.0,0.5,0.0,1.0,1.0,297.5103859498631,2.0,1.0,phase_1,,,,,,,,,,,,,blue,circle
190.0,3.0,2.0,0.0,2.0,2.0,646.7158023733646,2.0,1.0,phase_1,,,,,,,,,,,,,orange,cross
32.0,5.0,0.5,1.0,2.0,2.0,343.2259238979895,2.0,1.0,phase_1,,,,,,,,,,,,,gray,flipped triangle
69.0,5.0,0.5,1.0,3.0,3.0,332.3069664184004,2.0,1.0,phase_1,,,,,,,,,,,,,gray,flipped triangle
215.0,7.0,2.0,1.0,1.0,1.0,322.2205464771832,2.0,1.0,phase_1,,,,,,,,,,,,,cyan,triangle
121.0,6.0,1.0,1.0,3.0,3.0,446.7448098948807,2.0,1.0,phase_1,,,,,,,,,,,,,white,hexagon
0.0,3.0,0.0,0.0,3.0,3.0,400.9827939444221,2.0,1.0,phase_1,,,,,,,,,,,,,orange,cross
420.0,8.0,4.0,1.0,3.0,3.0,400.7456118924892,2.0,1.0,phase_1,,,,,,,,,,,,,green,diamond
0.0,7.0,0.0,1.0,4.0,4.0,402.6785953683429,2.0,1.0,phase_1,,,,,,,,,,,,,cyan,triangle
74.0,5.0,0.5,1.0,2.0,2.0,324.1911979421275,2.0,1.0,phase_1,,,,,,,,,,,,,gray,flipped triangle
115.0,2.0,1.0,0.0,2.0,2.0,549.1571089951321,2.0,1.0,phase_1,,,,,,,,,,,,,magenta,I
209.0,7.0,2.0,1.0,1.0,1.0,448.682571943209,2.0,1.0,phase_1,,,,,,,,,,,,,cyan,triangle
399.0,8.0,4.0,1.0,3.0,3.0,302.9693918942939,2.0,1.0,phase_1,,,,,,,,,,,,,green,diamond
186.0,7.0,2.0,1.0,4.0,4.0,361.0667983157327,2.0,1.0,phase_1,,,,,,,,,,,,,cyan,triangle
88.0,6.0,1.0,1.0,1.0,1.0,326.9663978353492,2.0,1.0,phase_1,,,,,,,,,,,,,white,hexagon
0.0,2.0,0.0,0.0,2.0,2.0,463.6582449456909,2.0,1.0,phase_1,,,,,,,,,,,,,magenta,I
89.0,6.0,1.0,1.0,2.0,2.0,408.2045818940969,2.0,1.0,phase_1,,,,,,,,,,,,,white,hexagon
34.0,1.0,0.5,0.0,3.0,3.0,407.2326182576944,2.0,1.0,phase_1,,,,,,,,,,,,,blue,circle
0.0,2.0,0.0,0.0,1.0,1.0,452.199605788337,2.0,1.0,phase_1,,,,,,,,,,,,,magenta,I
125.0,2.0,1.0,0.0,4.0,4.0,352.9885649404605,2.0,1.0,phase_1,,,,,,,,,,,,,magenta,I
121.0,2.0,1.0,0.0,3.0,3.0,323.1669734668685,3.0,1.0,phase_1,,,,,,,,,,,,,magenta,I
417.0,4.0,4.0,0.0,2.0,2.0,324.2769303178647,3.0,1.0,phase_1,,,,,,,,,,,,,yellow,square
409.0,4.0,4.0,0.0,1.0,1.0,302.7742318445234,3.0,1.0,phase_1,,,,,,,,,,,,,yellow,square
82.0,2.0,1.0,0.0,4.0,4.0,267.243982416403,3.0,1.0,phase_1,,,,,,,,,,,,,magenta,I
45.0,1.0,0.5,0.0,1.0,1.0,382.1608388461754,3.0,1.0,phase_1,,,,,,,,,,,,,blue,circle
75.0,1.0,0.5,0.0,1.0,1.0,313.9663309411844,3.0,1.0,phase_1,,,,,,,,,,,,,blue,circle
79.0,6.0,1.0,1.0,4.0,4.0,281.135184894083,3.0,1.0,phase_1,,,,,,,,,,,,,white,hexagon
214.0,3.0,2.0,0.0,3.0,3.0,305.0487529471866,3.0,1.0,phase_1,,,,,,,,,,,,,orange,cross
85.0,6.0,1.0,1.0,3.0,3.0,407.7489483679528,3.0,1.0,phase_1,,,,,,,,,,,,,white,hexagon
183.0,3.0,2.0,0.0,1.0,1.0,552.8631823690375,3.0,1.0,phase_1,,,,,,,,,,,,,orange,cross
404.0,8.0,4.0,1.0,1.0,1.0,452.8796248996514,3.0,1.0,phase_1,,,,,,,,,,,,,green,diamond
215.0,3.0,2.0,0.0,2.0,2.0,532.2682693149545,3.0,1.0,phase_1,,,,,,,,,,,,,orange,cross
212.0,7.0,2.0,1.0,4.0,4.0,318.0386357853422,3.0,1.0,phase_1,,,,,,,,,,,,,cyan,triangle
35.0,1.0,0.5,0.0,4.0,4.0,453.9531498448923,3.0,1.0,phase_1,,,,,,,,,,,,,blue,circle
113.0,2.0,1.0,0.0,1.0,1.0,262.5760184673709,3.0,1.0,phase_1,,,,,,,,,,,,,magenta,I
0.0,2.0,0.0,0.0,1.0,1.0,421.4193609004724,3.0,1.0,phase_1,,,,,,,,,,,,,magenta,I
401.0,4.0,4.0,0.0,4.0,4.0,511.61207383847795,3.0,1.0,phase_1,,,,,,,,,,,,,yellow,square
411.0,4.0,4.0,0.0,3.0,3.0,613.2657943671802,3.0,1.0,phase_1,,,,,,,,,,,,,yellow,square
0.0,8.0,0.0,1.0,2.0,2.0,343.2892664714018,3.0,1.0,phase_1,,,,,,,,,,,,,green,diamond
186.0,3.0,2.0,0.0,4.0,4.0,377.3264364717761,3.0,1.0,phase_1,,,,,,,,,,,,,orange,cross
50.0,1.0,0.5,0.0,4.0,4.0,344.5469298458192,3.0,1.0,phase_1,,,,,,,,,,,,,blue,circle
80.0,2.0,1.0,0.0,2.0,2.0,369.7002114713541,3.0,1.0,phase_1,,,,,,,,,,,,,magenta,I
399.0,4.0,4.0,0.0,4.0,4.0,379.1184993679053,3.0,1.0,phase_1,,,,,,,,,,,,,yellow,square
420.0,4.0,4.0,0.0,4.0,4.0,402.4909184736316,3.0,1.0,phase_1,,,,,,,,,,,,,yellow,square
0.0,5.0,0.0,1.0,4.0,4.0,450.2535269421059,3.0,1.0,phase_1,,,,,,,,,,,,,gray,flipped triangle
113.0,2.0,1.0,0.0,1.0,1.0,482.6600709420745,3.0,1.0,phase_1,,,,,,,,,,,,,magenta,I
178.0,3.0,2.0,0.0,3.0,3.0,337.2111959470203,3.0,1.0,phase_1,,,,,,,,,,,,,orange,cross
83.0,6.0,1.0,1.0,1.0,1.0,641.6618563671364,3.0,1.0,phase_1,,,,,,,,,,,,,white,hexagon
397.0,4.0,4.0,0.0,3.0,3.0,314.6034824167145,3.0,1.0,phase_1,,,,,,,,,,,,,yellow,square
50.0,5.0,0.5,1.0,2.0,2.0,372.1621754739317,3.0,1.0,phase_1,,,,,,,,,,,,,gray,flipped triangle
67.0,5.0,0.5,1.0,1.0,1.0,362.1762040056637,3.0,1.0,phase_1,,,,,,,,,,,,,gray,flipped triangle
409.0,8.0,4.0,1.0,4.0,4.0,374.5066843111999,3.0,1.0,phase_1,,,,,,,,,,,,,green,diamond
0.0,1.0,0.0,0.0,3.0,3.0,342.1482028425089,3.0,1.0,phase_1,,,,,,,,,,,,,blue,circle
223.0,7.0,2.0,1.0,3.0,3.0,340.6701549029094,3.0,1.0,phase_1,,,,,,,,,,,,,cyan,triangle
198.0,3.0,2.0,0.0,3.0,3.0,352.8810894713388,3.0,1.0,phase_1,,,,,,,,,,,,,orange,cross
201.0,3.0,2.0,0.0,1.0,1.0,318.7606783685623,3.0,1.0,phase_1,,,,,,,,,,,,,orange,cross
0.0,2.0,0.0,0.0,4.0,4.0,309.1481404699152,3.0,1.0,phase_1,,,,,,,,,,,,,magenta,I
0.0,6.0,0.0,1.0,1.0,1.0,522.8578954702243,3.0,1.0,phase_1,,,,,,,,,,,,,white,hexagon
51.0,1.0,0.5,0.0,4.0,4.0,323.0028149409918,3.0,1.0,phase_1,,,,,,,,,,,,,blue,circle
94.0,6.0,1.0,1.0,1.0,1.0,288.2733714723144,3.0,1.0,phase_1,,,,,,,,,,,,,white,hexagon
0.0,2.0,0.0,0.0,4.0,4.0,276.2694330012891,3.0,1.0,phase_1,,,,,,,,,,,,,magenta,I
0.0,7.0,0.0,1.0,2.0,2.0,457.3551164721721,3.0,1.0,phase_1,,,,,,,,,,,,,cyan,triangle
179.0,3.0,2.0,0.0,4.0,4.0,389.9602858364233,3.0,1.0,phase_1,,,,,,,,,,,,,orange,cross
0.0,3.0,0.0,0.0,4.0,4.0,322.9138338429038,3.0,1.0,phase_1,,,,,,,,,,,,,orange,cross
40.0,5.0,0.5,1.0,1.0,1.0,359.6255298398318,3.0,1.0,phase_1,,,,,,,,,,,,,gray,flipped triangle
56.0,5.0,0.5,1.0,3.0,3.0,324.9486414715647,3.0,1.0,phase_1,,,,,,,,,,,,,gray,flipped triangle
202.0,3.0,2.0,0.0,1.0,1.0,371.7521688449778,3.0,1.0,phase_1,,,,,,,,,,,,,orange,cross
35.0,5.0,0.5,1.0,4.0,4.0,359.0984818365541,3.0,1.0,phase_1,,,,,,,,,,,,,gray,flipped triangle
108.0,2.0,1.0,0.0,1.0,1.0,360.0414403626928,3.0,1.0,phase_1,,,,,,,,,,,,,magenta,I
0.0,2.0,0.0,0.0,1.0,1.0,394.9372274146299,3.0,1.0,phase_1,,,,,,,,,,,,,magenta,I
43.0,5.0,0.5,1.0,4.0,4.0,507.99030836788006,3.0,1.0,phase_1,,,,,,,,,,,,,gray,flipped triangle
386.0,8.0,4.0,1.0,1.0,1.0,474.9707099472289,3.0,1.0,phase_1,,,,,,,,,,,,,green,diamond
103.0,6.0,1.0,1.0,3.0,3.0,328.8141878947499,3.0,1.0,phase_1,,,,,,,,,,,,,white,hexagon
383.0,4.0,4.0,0.0,3.0,3.0,408.4216073679272,3.0,1.0,phase_1,,,,,,,,,,,,,yellow,square
419.0,8.0,4.0,1.0,2.0,2.0,442.6746043172898,3.0,1.0,phase_1,,,,,,,,,,,,,green,diamond
35.0,1.0,0.5,0.0,2.0,2.0,500.7657324167667,3.0,1.0,phase_1,,,,,,,,,,,,,blue,circle
207.0,7.0,2.0,1.0,3.0,3.0,364.5467289461521,3.0,1.0,phase_1,,,,,,,,,,,,,cyan,triangle
191.0,3.0,2.0,0.0,1.0,1.0,287.8423068978009,3.0,1.0,phase_1,,,,,,,,,,,,,orange,cross
95.0,2.0,1.0,0.0,4.0,4.0,320.1241689457674,3.0,1.0,phase_1,,,,,,,,,,,,,magenta,I
386.0,4.0,4.0,0.0,4.0,4.0,490.1486329399631,3.0,1.0,phase_1,,,,,,,,,,,,,yellow,square
67.0,1.0,0.5,0.0,4.0,4.0,389.4115594157483,3.0,1.0,phase_1,,,,,,,,,,,,,blue,circle
108.0,6.0,1.0,1.0,4.0,4.0,481.1757939460221,3.0,1.0,phase_1,,,,,,,,,,,,,white,hexagon
212.0,3.0,2.0,0.0,2.0,2.0,347.0785923709627,3.0,1.0,phase_1,,,,,,,,,,,,,orange,cross
0.0,3.0,0.0,0.0,4.0,4.0,289.5138643725659,3.0,1.0,phase_1,,,,,,,,,,,,,orange,cross
75.0,5.0,0.5,1.0,2.0,2.0,357.6529339479748,3.0,1.0,phase_1,,,,,,,,,,,,,gray,flipped triangle
0.0,7.0,0.0,1.0,1.0,1.0,291.9221813135664,3.0,1.0,phase_1,,,,,,,,,,,,,cyan,triangle
74.0,1.0,0.5,0.0,1.0,1.0,370.8631298941327,3.0,1.0,phase_1,,,,,,,,,,,,,blue,circle
188.0,7.0,2.0,1.0,1.0,1.0,326.1445873140474,3.0,1.0,phase_1,,,,,,,,,,,,,cyan,triangle
51.0,5.0,0.5,1.0,4.0,4.0,382.199959254649,3.0,1.0,phase_1,,,,,,,,,,,,,gray,flipped triangle
0.0,6.0,0.0,1.0,1.0,1.0,282.5465754722245,3.0,1.0,phase_1,,,,,,,,,,,,,white,hexagon
38.0,1.0,0.5,0.0,1.0,1.0,351.761883313884,3.0,2.0,phase_1,,,,,,,,,,,,,blue,circle
405.0,4.0,4.0,0.0,3.0,3.0,485.1501787852612,3.0,1.0,phase_1,,,,,,,,,,,,,yellow,square
0.0,4.0,0.0,0.0,3.0,3.0,429.9838387814816,3.0,1.0,phase_1,,,,,,,,,,,,,yellow,square
119.0,2.0,1.0,0.0,4.0,4.0,409.5259263121988,3.0,1.0,phase_1,,,,,,,,,,,,,magenta,I
408.0,8.0,4.0,1.0,3.0,3.0,385.9486274741357,3.0,1.0,phase_1,,,,,,,,,,,,,green,diamond
402.0,8.0,4.0,1.0,1.0,1.0,388.654680478794,3.0,1.0,phase_1,,,,,,,,,,,,,green,diamond
0.0,8.0,0.0,1.0,2.0,2.0,533.8357669970719,3.0,1.0,phase_1,,,,,,,,,,,,,green,diamond
402.0,4.0,4.0,0.0,2.0,2.0,434.6613528468879,3.0,1.0,phase_1,,,,,,,,,,,,,yellow,square
0.0,4.0,0.0,0.0,3.0,3.0,410.3100143693154,3.0,1.0,phase_1,,,,,,,,,,,,,yellow,square
89.0,2.0,1.0,0.0,2.0,2.0,424.1898999389377,3.0,1.0,phase_1,,,,,,,,,,,,,magenta,I
202.0,7.0,2.0,1.0,1.0,1.0,378.7927439479972,3.0,1.0,phase_1,,,,,,,,,,,,,cyan,triangle
123.0,6.0,1.0,1.0,3.0,3.0,423.743106846814,3.0,1.0,phase_1,,,,,,,,,,,,,white,hexagon
220.0,3.0,2.0,0.0,2.0,2.0,390.6693974786321,3.0,1.0,phase_1,,,,,,,,,,,,,orange,cross
58.0,5.0,0.5,1.0,1.0,1.0,312.7899729443015,3.0,1.0,phase_1,,,,,,,,,,,,,gray,flipped triangle
0.0,4.0,0.0,0.0,2.0,2.0,369.5309478935087,3.0,1.0,phase_1,,,,,,,,,,,,,yellow,square
45.0,5.0,0.5,1.0,3.0,3.0,470.0330793712055,3.0,1.0,phase_1,,,,,,,,,,,,,gray,flipped triangle
0.0,4.0,0.0,0.0,4.0,4.0,538.617468373559,3.0,1.0,phase_1,,,,,,,,,,,,,yellow,square
201.0,7.0,2.0,1.0,1.0,1.0,348.7345439425553,3.0,1.0,phase_1,,,,,,,,,,,,,cyan,triangle
0.0,1.0,0.0,0.0,1.0,1.0,372.4814893648727,3.0,1.0,phase_1,,,,,,,,,,,,,blue,circle
392.0,4.0,4.0,0.0,3.0,3.0,360.2153414685745,3.0,1.0,phase_1,,,,,,,,,,,,,yellow,square
219.0,7.0,2.0,1.0,4.0,4.0,361.1345748431631,3.0,1.0,phase_1,,,,,,,,,,,,,cyan,triangle
93.0,6.0,1.0,1.0,2.0,2.0,373.2313464133767,3.0,1.0,phase_1,,,,,,,,,,,,,white,hexagon
96.0,6.0,1.0,1.0,3.0,3.0,329.759255371755,3.0,1.0,phase_1,,,,,,,,,,,,,white,hexagon
220.0,7.0,2.0,1.0,1.0,1.0,340.2792528941063,3.0,1.0,phase_1,,,,,,,,,,,,,cyan,triangle
207.0,3.0,2.0,0.0,2.0,2.0,498.7272469443269,3.0,1.0,phase_1,,,,,,,,,,,,,orange,cross
58.0,5.0,0.5,1.0,4.0,4.0,375.1027774706017,3.0,1.0,phase_1,,,,,,,,,,,,,gray,flipped triangle
225.0,3.0,2.0,0.0,4.0,4.0,511.09723631088855,3.0,1.0,phase_1,,,,,,,,,,,,,orange,cross
62.0,5.0,0.5,1.0,1.0,1.0,377.8422959439922,3.0,1.0,phase_1,,,,,,,,,,,,,gray,flipped triangle
119.0,6.0,1.0,1.0,2.0,2.0,435.0184844734031,3.0,1.0,phase_1,,,,,,,,,,,,,white,hexagon
44.0,5.0,0.5,1.0,3.0,3.0,333.5476343127084,3.0,1.0,phase_1,,,,,,,,,,,,,gray,flipped triangle
376.0,8.0,4.0,1.0,1.0,1.0,444.6643107876298,4.0,1.0,phase_1,,,,,,,,,,,,,green,diamond
73.0,1.0,0.5,0.0,4.0,4.0,333.5285278953961,4.0,1.0,phase_1,,,,,,,,,,,,,blue,circle
0.0,8.0,0.0,1.0,3.0,3.0,299.9369607859989,4.0,1.0,phase_1,,,,,,,,,,,,,green,diamond
0.0,3.0,0.0,0.0,2.0,2.0,277.621007997368,4.0,1.0,phase_1,,,,,,,,,,,,,orange,cross
225.0,7.0,2.0,1.0,2.0,2.0,367.5881218368886,4.0,1.0,phase_1,,,,,,,,,,,,,cyan,triangle
40.0,1.0,0.5,0.0,3.0,3.0,300.2544399496401,4.0,1.0,phase_1,,,,,,,,,,,,,blue,circle
101.0,2.0,1.0,0.0,1.0,1.0,390.9600249389768,4.0,1.0,phase_1,,,,,,,,,,,,,magenta,I
217.0,7.0,2.0,1.0,4.0,4.0,313.3844583717291,4.0,1.0,phase_1,,,,,,,,,,,,,cyan,triangle
58.0,1.0,0.5,0.0,4.0,4.0,427.0766113113495,4.0,1.0,phase_1,,,,,,,,,,,,,blue,circle
216.0,7.0,2.0,1.0,3.0,3.0,437.6146594149759,4.0,1.0,phase_1,,,,,,,,,,,,,cyan,triangle
62.0,1.0,0.5,0.0,3.0,3.0,392.6440467839711,4.0,1.0,phase_1,,,,,,,,,,,,,blue,circle
92.0,2.0,1.0,0.0,3.0,3.0,371.8817193148425,4.0,1.0,phase_1,,,,,,,,,,,,,magenta,I
56.0,5.0,0.5,1.0,2.0,2.0,294.9426303675864,4.0,1.0,phase_1,,,,,,,,,,,,,gray,flipped triangle
32.0,1.0,0.5,0.0,2.0,2.0,362.58939794061,4.0,1.0,phase_1,,,,,,,,,,,,,blue,circle
26.0,1.0,0.5,0.0,1.0,1.0,340.4888683653553,4.0,1.0,phase_1,,,,,,,,,,,,,blue,circle
0.0,5.0,0.0,1.0,3.0,3.0,306.9923694711178,4.0,1.0,phase_1,,,,,,,,,,,,,gray,flipped triangle
0.0,1.0,0.0,0.0,3.0,3.0,396.4632044153404,4.0,1.0,phase_1,,,,,,,,,,,,,blue,circle
38.0,1.0,0.5,0.0,1.0,1.0,330.0978908446268,4.0,1.0,phase_1,,,,,,,,,,,,,blue,circle
114.0,6.0,1.0,1.0,4.0,4.0,397.1619762596674,4.0,1.0,phase_1,,,,,,,,,,,,,white,hexagon
29.0,1.0,0.5,0.0,2.0,2.0,488.5142603670829,4.0,1.0,phase_1,,,,,,,,,,,,,blue,circle
0.0,2.0,0.0,0.0,2.0,2.0,523.6633153108414,4.0,1.0,phase_1,,,,,,,,,,,,,magenta,I
68.0,5.0,0.5,1.0,4.0,4.0,445.0395254752948,4.0,2.0,phase_1,,,,,,,,,,,,,gray,flipped triangle
419.0,4.0,4.0,0.0,1.0,1.0,402.2206220033695,4.0,1.0,phase_1,,,,,,,,,,,,,yellow,square
73.0,5.0,0.5,1.0,3.0,3.0,345.2372953106533,4.0,1.0,phase_1,,,,,,,,,,,,,gray,flipped triangle
123.0,2.0,1.0,0.0,3.0,3.0,344.9633699419792,4.0,1.0,phase_1,,,,,,,,,,,,,magenta,I
101.0,6.0,1.0,1.0,4.0,4.0,334.0674674109323,4.0,1.0,phase_1,,,,,,,,,,,,,white,hexagon
101.0,2.0,1.0,0.0,2.0,2.0,392.0356029411778,4.0,1.0,phase_1,,,,,,,,,,,,,magenta,I
95.0,6.0,1.0,1.0,4.0,4.0,314.2124658988905,4.0,1.0,phase_1,,,,,,,,,,,,,white,hexagon
388.0,8.0,4.0,1.0,2.0,2.0,393.2581214758102,4.0,1.0,phase_1,,,,,,,,,,,,,green,diamond
191.0,7.0,2.0,1.0,3.0,3.0,302.51889131614,4.0,1.0,phase_1,,,,,,,,,,,,,cyan,triangle
0.0,6.0,0.0,1.0,1.0,1.0,270.9010764738195,4.0,1.0,phase_1,,,,,,,,,,,,,white,hexagon
44.0,1.0,0.5,0.0,1.0,1.0,450.650114522432,4.0,1.0,phase_1,,,,,,,,,,,,,blue,circle
0.0,5.0,0.0,1.0,3.0,3.0,327.6588134103804,4.0,1.0,phase_1,,,,,,,,,,,,,gray,flipped triangle
110.0,6.0,1.0,1.0,1.0,1.0,372.8665374219417,4.0,1.0,phase_1,,,,,,,,,,,,,white,hexagon
220.0,3.0,2.0,0.0,4.0,4.0,474.1102828411385,4.0,1.0,phase_1,,,,,,,,,,,,,orange,cross
379.0,8.0,4.0,1.0,1.0,1.0,375.0762854178902,4.0,1.0,phase_1,,,,,,,,,,,,,green,diamond
109.0,2.0,1.0,0.0,4.0,4.0,341.2408893709653,4.0,1.0,phase_1,,,,,,,,,,,,,magenta,I
0.0,3.0,0.0,0.0,1.0,1.0,375.3014204194187,4.0,1.0,phase_1,,,,,,,,,,,,,orange,cross
421.0,8.0,4.0,1.0,3.0,3.0,296.7836039460962,4.0,1.0,phase_1,,,,,,,,,,,,,green,diamond
0.0,5.0,0.0,1.0,1.0,1.0,422.1722644142573,4.0,1.0,phase_1,,,,,,,,,,,,,gray,flipped triangle
415.0,4.0,4.0,0.0,3.0,3.0,410.86572447238717,4.0,1.0,phase_1,,,,,,,,,,,,,yellow,square
0.0,7.0,0.0,1.0,3.0,3.0,546.4428124178085,4.0,1.0,phase_1,,,,,,,,,,,,,cyan,triangle
376.0,4.0,4.0,0.0,2.0,2.0,378.1866878416622,4.0,1.0,phase_1,,,,,,,,,,,,,yellow,square
183.0,3.0,2.0,0.0,4.0,4.0,355.8367253135657,4.0,1.0,phase_1,,,,,,,,,,,,,orange,cross
29.0,5.0,0.5,1.0,2.0,2.0,335.5065613723127,4.0,1.0,phase_1,,,,,,,,,,,,,gray,flipped triangle
0.0,3.0,0.0,0.0,2.0,2.0,435.4763713126885,4.0,1.0,phase_1,,,,,,,,,,,,,orange,cross
0.0,8.0,0.0,1.0,2.0,2.0,380.9337914790376,4.0,1.0,phase_1,,,,,,,,,,,,,green,diamond
421.0,4.0,4.0,0.0,2.0,2.0,393.3771764714038,4.0,1.0,phase_1,,,,,,,,,,,,,yellow,square
412.0,4.0,4.0,0.0,1.0,1.0,370.482470789284,4.0,1.0,phase_1,,,,,,,,,,,,,yellow,square
402.0,8.0,4.0,1.0,3.0,3.0,358.9340029502637,4.0,1.0,phase_1,,,,,,,,,,,,,green,diamond
0.0,6.0,0.0,1.0,4.0,4.0,326.6569414772675,4.0,1.0,phase_1,,,,,,,,,,,,,white,hexagon
401.0,8.0,4.0,1.0,1.0,1.0,293.0220014750375,4.0,1.0,phase_1,,,,,,,,,,,,,green,diamond
0.0,5.0,0.0,1.0,2.0,2.0,417.118043944356,4.0,1.0,phase_1,,,,,,,,,,,,,gray,flipped triangle
188.0,3.0,2.0,0.0,3.0,3.0,349.8759579451871,4.0,1.0,phase_1,,,,,,,,,,,,,orange,cross
212.0,3.0,2.0,0.0,1.0,1.0,431.0857513701194,4.0,1.0,phase_1,,,,,,,,,,,,,orange,cross
35.0,5.0,0.5,1.0,2.0,2.0,362.3864984183456,4.0,1.0,phase_1,,,,,,,,,,,,,gray,flipped triangle
32.0,5.0,0.5,1.0,1.0,1.0,363.1407133652828,4.0,1.0,phase_1,,,,,,,,,,,,,gray,flipped triangle
102.0,6.0,1.0,1.0,3.0,3.0,328.9717224106425,4.0,1.0,phase_1,,,,,,,,,,,,,white,hexagon
0.0,3.0,0.0,0.0,3.0,3.0,330.7279114160337,4.0,1.0,phase_1,,,,,,,,,,,,,orange,cross
379.0,4.0,4.0,0.0,4.0,4.0,443.8683148910058,4.0,1.0,phase_1,,,,,,,,,,,,,yellow,square
56.0,5.0,0.5,1.0,3.0,3.0,420.3337103681406,4.0,1.0,phase_1,,,,,,,,,,,,,gray,flipped triangle
0.0,1.0,0.0,0.0,4.0,4.0,398.6119168403093,4.0,1.0,phase_1,,,,,,,,,,,,,blue,circle
402.0,4.0,4.0,0.0,4.0,4.0,366.2617094742018,4.0,1.0,phase_1,,,,,,,,,,,,,yellow,square
37.0,1.0,0.5,0.0,4.0,4.0,433.7928979439311,4.0,1.0,phase_1,,,,,,,,,,,,,blue,circle
381.0,8.0,4.0,1.0,4.0,4.0,367.3192313144682,4.0,1.0,phase_1,,,,,,,,,,,,,green,diamond
35.0,5.0,0.5,1.0,3.0,3.0,400.7806183726643,4.0,1.0,phase_1,,,,,,,,,,,,,gray,flipped triangle
115.0,6.0,1.0,1.0,3.0,3.0,547.4623553745914,4.0,1.0,phase_1,,,,,,,,,,,,,white,hexagon
383.0,8.0,4.0,1.0,4.0,4.0,369.4655574145145,4.0,1.0,phase_1,,,,,,,,,,,,,green,diamond
79.0,2.0,1.0,0.0,4.0,4.0,335.4318052515737,4.0,1.0,phase_1,,,,,,,,,,,,,magenta,I
223.0,3.0,2.0,0.0,3.0,3.0,403.8018368446501,4.0,1.0,phase_1,,,,,,,,,,,,,orange,cross
56.0,1.0,0.5,0.0,1.0,1.0,428.6462678355747,4.0,1.0,phase_1,,,,,,,,,,,,,blue,circle
74.0,5.0,0.5,1.0,1.0,1.0,573.6713828955544,4.0,1.0,phase_1,,,,,,,,,,,,,gray,flipped triangle
378.0,4.0,4.0,0.0,1.0,1.0,496.0949448432075,4.0,1.0,phase_1,,,,,,,,,,,,,yellow,square
106.0,6.0,1.0,1.0,2.0,2.0,518.9907617896097,4.0,1.0,phase_1,,,,,,,,,,,,,white,hexagon
193.0,7.0,2.0,1.0,4.0,4.0,406.8029078989639,4.0,1.0,phase_1,,,,,,,,,,,,,cyan,triangle
64.0,5.0,0.5,1.0,4.0,4.0,361.6031298370217,4.0,1.0,phase_1,,,,,,,,,,,,,gray,flipped triangle
0.0,7.0,0.0,1.0,2.0,2.0,373.359731369419,4.0,1.0,phase_1,,,,,,,,,,,,,cyan,triangle
381.0,4.0,4.0,0.0,3.0,3.0,363.1964909436647,4.0,1.0,phase_1,,,,,,,,,,,,,yellow,square
27.0,1.0,0.5,0.0,4.0,4.0,510.4085623679566,4.0,1.0,phase_1,,,,,,,,,,,,,blue,circle
393.0,4.0,4.0,0.0,1.0,1.0,319.1351487839711,4.0,1.0,phase_1,,,,,,,,,,,,,yellow,square
178.0,7.0,2.0,1.0,2.0,2.0,410.6321002545883,4.0,1.0,phase_1,,,,,,,,,,,,,cyan,triangle
0.0,1.0,0.0,0.0,3.0,3.0,342.2728427831316,4.0,1.0,phase_1,,,,,,,,,,,,,blue,circle
94.0,2.0,1.0,0.0,2.0,2.0,332.0876594734727,4.0,1.0,phase_1,,,,,,,,,,,,,magenta,I
85.0,2.0,1.0,0.0,1.0,1.0,402.0583322562743,4.0,1.0,phase_1,,,,,,,,,,,,,magenta,I
47.0,1.0,0.5,0.0,4.0,4.0,423.8259142584866,4.0,1.0,phase_1,,,,,,,,,,,,,blue,circle
220.0,7.0,2.0,1.0,2.0,2.0,380.6111029407475,4.0,1.0,phase_1,,,,,,,,,,,,,cyan,triangle
216.0,7.0,2.0,1.0,4.0,4.0,402.3441608369467,4.0,1.0,phase_1,,,,,,,,,,,,,cyan,triangle
56.0,1.0,0.5,0.0,3.0,3.0,413.6016457850928,4.0,1.0,phase_1,,,,,,,,,,,,,blue,circle
83.0,2.0,1.0,0.0,3.0,3.0,548.5267694675713,4.0,1.0,phase_1,,,,,,,,,,,,,magenta,I
72.0,5.0,0.5,1.0,1.0,1.0,359.7076623700559,4.0,1.0,phase_1,,,,,,,,,,,,,gray,flipped triangle
72.0,1.0,0.5,0.0,3.0,3.0,404.2979909499991,4.0,1.0,phase_1,,,,,,,,,,,,,blue,circle
77.0,6.0,1.0,1.0,2.0,2.0,337.3562754204613,4.0,1.0,phase_1,,,,,,,,,,,,,white,hexagon
108.0,2.0,1.0,0.0,1.0,1.0,484.64848936419,4.0,1.0,phase_1,,,,,,,,,,,,,magenta,I
34.0,5.0,0.5,1.0,4.0,4.0,338.54035026161,4.0,1.0,phase_1,,,,,,,,,,,,,gray,flipped triangle
0.0,7.0,0.0,1.0,4.0,4.0,427.8615069997613,4.0,1.0,phase_1,,,,,,,,,,,,,cyan,triangle
0.0,5.0,0.0,1.0,3.0,3.0,451.0074648933369,4.0,1.0,phase_1,,,,,,,,,,,,,gray,flipped triangle
108.0,6.0,1.0,1.0,1.0,1.0,420.3541873139329,4.0,2.0,phase_1,,,,,,,,,,,,,white,hexagon
125.0,2.0,1.0,0.0,4.0,4.0,351.5530494769336,4.0,1.0,phase_1,,,,,,,,,,,,,magenta,I
58.0,1.0,0.5,0.0,2.0,2.0,342.7102594723692,4.0,1.0,phase_1,,,,,,,,,,,,,blue,circle
0.0,5.0,0.0,1.0,2.0,2.0,410.9454543722677,4.0,1.0,phase_1,,,,,,,,,,,,,gray,flipped triangle
0.0,5.0,0.5,1.0,5.0,0.0,0.0,1.0,1.0,phase_2,stop,250.0,250.0,4.0,,,,,,,,,gray,flipped triangle
0.0,4.0,4.0,0.0,6.0,6.0,630.5584947403986,1.0,1.0,phase_2,go,300.0,250.0,1.0,,,,,,,,,yellow,square
0.0,2.0,1.0,0.0,5.0,5.0,765.7098858107929,1.0,1.0,phase_2,go,300.0,250.0,1.0,,,,,,,,,magenta,I
0.0,2.0,1.0,0.0,6.0,6.0,1149.1294460647623,1.0,1.0,phase_2,go,300.0,250.0,1.0,,,,,,,,,magenta,I
0.0,8.0,4.0,1.0,6.0,0.0,0.0,1.0,1.0,phase_2,stop,300.0,250.0,4.0,,,,,,,,,green,diamond
0.0,4.0,4.0,0.0,5.0,5.0,677.9327296098927,1.0,1.0,phase_2,go,300.0,300.0,1.0,,,,,,,,,yellow,square
0.0,4.0,4.0,0.0,5.0,5.0,814.0815649385331,1.0,1.0,phase_2,go,300.0,300.0,1.0,,,,,,,,,yellow,square
0.0,3.0,2.0,0.0,6.0,6.0,871.4431256157695,1.0,1.0,phase_2,go,300.0,300.0,1.0,,,,,,,,,orange,cross
0.0,8.0,4.0,1.0,5.0,0.0,0.0,1.0,1.0,phase_2,stop,300.0,300.0,4.0,,,,,,,,,green,diamond
0.0,1.0,0.5,0.0,6.0,6.0,401.7907038141857,1.0,1.0,phase_2,go,350.0,300.0,1.0,,,,,,,,,blue,circle
0.0,2.0,1.0,0.0,6.0,6.0,1097.982959872752,1.0,1.0,phase_2,go,350.0,300.0,1.0,,,,,,,,,magenta,I
0.0,7.0,2.0,1.0,6.0,0.0,0.0,1.0,1.0,phase_2,stop,350.0,300.0,4.0,,,,,,,,,cyan,triangle
0.0,4.0,4.0,0.0,5.0,5.0,651.0039019340184,1.0,1.0,phase_2,go,350.0,350.0,1.0,,,,,,,,,yellow,square
0.0,2.0,1.0,0.0,6.0,6.0,1078.749828680884,1.0,1.0,phase_2,go,350.0,350.0,1.0,,,,,,,,,magenta,I
0.0,1.0,0.5,0.0,5.0,5.0,978.0113387387246,1.0,1.0,phase_2,go,350.0,350.0,1.0,,,,,,,,,blue,circle
0.0,3.0,2.0,0.0,6.0,6.0,1046.4223828093964,1.0,1.0,phase_2,go,350.0,350.0,1.0,,,,,,,,,orange,cross
0.0,6.0,1.0,1.0,6.0,0.0,0.0,1.0,1.0,phase_2,stop,350.0,350.0,4.0,,,,,,,,,white,hexagon
0.0,1.0,0.5,0.0,5.0,5.0,340.888641672791,1.0,1.0,phase_2,go,350.0,400.0,1.0,,,,,,,,,blue,circle
0.0,2.0,1.0,0.0,5.0,5.0,857.4046546782483,1.0,1.0,phase_2,go,350.0,400.0,1.0,,,,,,,,,magenta,I
0.0,7.0,2.0,1.0,6.0,6.0,893.7277030636324,1.0,1.0,phase_2,go,350.0,400.0,1.0,,,,,,,,,cyan,triangle
0.0,5.0,0.5,1.0,6.0,0.0,0.0,1.0,1.0,phase_2,stop,350.0,400.0,4.0,,,,,,,,,gray,flipped triangle
0.0,8.0,4.0,1.0,5.0,0.0,0.0,1.0,1.0,phase_2,stop,350.0,450.0,4.0,,,,,,,,,green,diamond
0.0,1.0,0.5,0.0,6.0,6.0,838.5518801223952,1.0,1.0,phase_2,go,400.0,450.0,1.0,,,,,,,,,blue,circle
0.0,7.0,2.0,1.0,5.0,5.0,940.7481258676852,1.0,1.0,phase_2,go,400.0,450.0,1.0,,,,,,,,,cyan,triangle
0.0,6.0,1.0,1.0,6.0,0.0,0.0,1.0,1.0,phase_2,stop,400.0,450.0,4.0,,,,,,,,,white,hexagon
0.0,8.0,4.0,1.0,6.0,6.0,919.750938002835,1.0,1.0,phase_2,go,400.0,500.0,1.0,,,,,,,,,green,diamond
0.0,8.0,4.0,1.0,5.0,0.0,0.0,1.0,1.0,phase_2,stop,400.0,500.0,4.0,,,,,,,,,green,diamond
0.0,2.0,1.0,0.0,6.0,6.0,943.51507868123,1.0,1.0,phase_2,go,450.0,500.0,1.0,,,,,,,,,magenta,I
0.0,1.0,0.5,0.0,5.0,5.0,989.1141556217916,1.0,1.0,phase_2,go,450.0,500.0,1.0,,,,,,,,,blue,circle
0.0,8.0,4.0,1.0,5.0,0.0,0.0,1.0,1.0,phase_2,stop,450.0,500.0,4.0,,,,,,,,,green,diamond
0.0,6.0,1.0,1.0,6.0,0.0,0.0,1.0,1.0,phase_2,stop,500.0,500.0,4.0,,,,,,,,,white,hexagon
0.0,1.0,0.5,0.0,5.0,5.0,946.806758067396,1.0,1.0,phase_2,go,500.0,550.0,1.0,,,,,,,,,blue,circle
0.0,6.0,1.0,1.0,5.0,0.0,0.0,1.0,1.0,phase_2,stop,500.0,550.0,4.0,,,,,,,,,white,hexagon
0.0,4.0,4.0,0.0,5.0,5.0,1297.3543608168256,1.0,1.0,phase_2,go,550.0,550.0,1.0,,,,,,,,,yellow,square
0.0,1.0,0.5,0.0,5.0,5.0,1164.9847698718077,1.0,1.0,phase_2,go,550.0,550.0,1.0,,,,,,,,,blue,circle
0.0,7.0,2.0,1.0,5.0,0.0,0.0,1.0,1.0,phase_2,stop,550.0,550.0,4.0,,,,,,,,,cyan,triangle
0.0,5.0,0.5,1.0,5.0,5.0,445.3431156143779,2.0,1.0,phase_2,stop,600.0,550.0,3.0,,,,,,,,,gray,flipped triangle
0.0,4.0,4.0,0.0,5.0,5.0,346.4293075521709,2.0,1.0,phase_2,go,550.0,550.0,1.0,,,,,,,,,yellow,square
0.0,8.0,4.0,1.0,6.0,6.0,291.5365907392697,2.0,1.0,phase_2,stop,550.0,550.0,3.0,,,,,,,,,green,diamond
0.0,7.0,2.0,1.0,5.0,5.0,582.9663039403385,2.0,1.0,phase_2,go,550.0,500.0,1.0,,,,,,,,,cyan,triangle
0.0,6.0,1.0,1.0,5.0,5.0,336.1899986775825,2.0,1.0,phase_2,stop,550.0,500.0,3.0,,,,,,,,,white,hexagon
0.0,8.0,4.0,1.0,5.0,5.0,586.085258742969,2.0,1.0,phase_2,stop,500.0,500.0,3.0,,,,,,,,,green,diamond
0.0,2.0,1.0,0.0,6.0,6.0,632.1765028114896,2.0,1.0,phase_2,go,450.0,500.0,1.0,,,,,,,,,magenta,I
0.0,8.0,4.0,1.0,6.0,6.0,642.2394304900081,2.0,1.0,phase_2,stop,450.0,500.0,3.0,,,,,,,,,green,diamond
0.0,5.0,0.5,1.0,6.0,0.0,0.0,2.0,1.0,phase_2,stop,450.0,450.0,4.0,,,,,,,,,gray,flipped triangle
0.0,6.0,1.0,1.0,6.0,6.0,486.230882932432,2.0,1.0,phase_2,go,450.0,500.0,1.0,,,,,,,,,white,hexagon
0.0,4.0,4.0,0.0,6.0,6.0,713.6348866115441,2.0,1.0,phase_2,go,450.0,500.0,1.0,,,,,,,,,yellow,square
0.0,1.0,0.5,0.0,6.0,6.0,487.8948545519961,2.0,1.0,phase_2,go,450.0,500.0,1.0,,,,,,,,,blue,circle
0.0,5.0,0.5,1.0,6.0,6.0,648.222280680784,2.0,1.0,phase_2,go,450.0,500.0,1.0,,,,,,,,,gray,flipped triangle
0.0,7.0,2.0,1.0,5.0,5.0,535.5906180047896,2.0,1.0,phase_2,go,450.0,500.0,1.0,,,,,,,,,cyan,triangle
0.0,6.0,1.0,1.0,5.0,0.0,0.0,2.0,1.0,phase_2,stop,450.0,500.0,4.0,,,,,,,,,white,hexagon
0.0,4.0,4.0,0.0,5.0,5.0,526.578471675748,2.0,1.0,phase_2,go,500.0,500.0,1.0,,,,,,,,,yellow,square
0.0,3.0,2.0,0.0,6.0,6.0,435.7817581258132,2.0,1.0,phase_2,go,500.0,500.0,1.0,,,,,,,,,orange,cross
0.0,5.0,0.5,1.0,6.0,0.0,0.0,2.0,1.0,phase_2,stop,500.0,500.0,4.0,,,,,,,,,gray,flipped triangle
0.0,6.0,1.0,1.0,5.0,5.0,451.0711049370002,2.0,1.0,phase_2,stop,500.0,550.0,3.0,,,,,,,,,white,hexagon
0.0,2.0,1.0,0.0,6.0,6.0,686.1539464298403,2.0,1.0,phase_2,go,450.0,550.0,1.0,,,,,,,,,magenta,I
0.0,1.0,0.5,0.0,5.0,5.0,686.9642994934111,2.0,1.0,phase_2,go,450.0,550.0,1.0,,,,,,,,,blue,circle
0.0,5.0,0.5,1.0,6.0,6.0,362.0122277352493,2.0,1.0,phase_2,stop,450.0,550.0,3.0,,,,,,,,,gray,flipped triangle
0.0,4.0,4.0,0.0,5.0,5.0,654.9132929358166,2.0,1.0,phase_2,go,450.0,500.0,1.0,,,,,,,,,yellow,square
0.0,5.0,0.5,1.0,6.0,6.0,678.4342609389569,2.0,1.0,phase_2,go,450.0,500.0,1.0,,,,,,,,,gray,flipped triangle
0.0,3.0,2.0,0.0,5.0,5.0,487.8110566205578,2.0,1.0,phase_2,go,450.0,500.0,1.0,,,,,,,,,orange,cross
0.0,7.0,2.0,1.0,5.0,5.0,569.0355906772311,2.0,1.0,phase_2,stop,450.0,500.0,3.0,,,,,,,,,cyan,triangle
0.0,8.0,4.0,1.0,6.0,6.0,602.985311554221,2.0,1.0,phase_2,stop,400.0,500.0,3.0,,,,,,,,,green,diamond
0.0,8.0,4.0,1.0,5.0,5.0,310.4812799356296,2.0,1.0,phase_2,stop,400.0,450.0,3.0,,,,,,,,,green,diamond
0.0,3.0,2.0,0.0,5.0,5.0,537.9829768062336,2.0,1.0,phase_2,go,350.0,450.0,1.0,,,,,,,,,orange,cross
0.0,2.0,1.0,0.0,6.0,6.0,301.2851776802563,2.0,1.0,phase_2,go,350.0,450.0,1.0,,,,,,,,,magenta,I
0.0,3.0,2.0,0.0,5.0,5.0,290.3113508145907,2.0,1.0,phase_2,go,350.0,450.0,1.0,,,,,,,,,orange,cross
0.0,1.0,0.5,0.0,5.0,5.0,404.1774018769501,2.0,1.0,phase_2,go,350.0,450.0,1.0,,,,,,,,,blue,circle
0.0,5.0,0.5,1.0,6.0,6.0,258.5792596801184,2.0,1.0,phase_2,stop,350.0,450.0,3.0,,,,,,,,,gray,flipped triangle
0.0,8.0,4.0,1.0,5.0,0.0,0.0,2.0,1.0,phase_2,stop,350.0,400.0,4.0,,,,,,,,,green,diamond
0.0,6.0,1.0,1.0,6.0,0.0,0.0,2.0,1.0,phase_2,stop,400.0,400.0,4.0,,,,,,,,,white,hexagon
0.0,3.0,2.0,0.0,5.0,5.0,487.5254579310422,2.0,1.0,phase_2,go,400.0,450.0,1.0,,,,,,,,,orange,cross
0.0,2.0,1.0,0.0,6.0,6.0,595.1879756175913,3.0,1.0,phase_2,go,400.0,450.0,1.0,,,,,,,,,magenta,I
0.0,1.0,0.5,0.0,5.0,5.0,606.0827610635897,3.0,1.0,phase_2,go,400.0,450.0,1.0,,,,,,,,,blue,circle
0.0,6.0,1.0,1.0,5.0,0.0,0.0,3.0,1.0,phase_2,stop,400.0,450.0,4.0,,,,,,,,,white,hexagon
0.0,5.0,0.5,1.0,5.0,0.0,0.0,3.0,1.0,phase_2,stop,450.0,450.0,4.0,,,,,,,,,gray,flipped triangle
0.0,4.0,4.0,0.0,6.0,6.0,542.8296018726542,3.0,1.0,phase_2,go,500.0,450.0,1.0,,,,,,,,,yellow,square
0.0,5.0,0.5,1.0,5.0,5.0,576.6878046124475,3.0,1.0,phase_2,stop,500.0,450.0,3.0,,,,,,,,,gray,flipped triangle
0.0,2.0,1.0,0.0,5.0,5.0,701.5760348731419,3.0,1.0,phase_2,go,450.0,450.0,1.0,,,,,,,,,magenta,I
0.0,4.0,4.0,0.0,6.0,6.0,622.6224445490516,3.0,1.0,phase_2,go,450.0,450.0,1.0,,,,,,,,,yellow,square
0.0,6.0,1.0,1.0,6.0,0.0,0.0,3.0,1.0,phase_2,stop,450.0,450.0,4.0,,,,,,,,,white,hexagon
0.0,4.0,4.0,0.0,5.0,5.0,388.4056568786036,3.0,1.0,phase_2,go,450.0,500.0,1.0,,,,,,,,,yellow,square
0.0,8.0,4.0,1.0,6.0,0.0,0.0,3.0,1.0,phase_2,stop,450.0,500.0,4.0,,,,,,,,,green,diamond
0.0,6.0,1.0,1.0,6.0,0.0,0.0,3.0,1.0,phase_2,stop,450.0,550.0,4.0,,,,,,,,,white,hexagon
0.0,5.0,0.5,1.0,6.0,6.0,785.159990125976,3.0,1.0,phase_2,go,450.0,600.0,1.0,,,,,,,,,gray,flipped triangle
0.0,4.0,4.0,0.0,6.0,6.0,740.5244258770836,3.0,1.0,phase_2,go,450.0,600.0,1.0,,,,,,,,,yellow,square
0.0,5.0,0.5,1.0,6.0,0.0,0.0,3.0,1.0,phase_2,stop,450.0,600.0,4.0,,,,,,,,,gray,flipped triangle
0.0,3.0,2.0,0.0,5.0,5.0,539.1260808173683,3.0,1.0,phase_2,go,450.0,650.0,1.0,,,,,,,,,orange,cross
0.0,1.0,0.5,0.0,5.0,5.0,798.7029357391293,3.0,1.0,phase_2,go,450.0,650.0,1.0,,,,,,,,,blue,circle
0.0,4.0,4.0,0.0,5.0,5.0,677.1612116135657,3.0,1.0,phase_2,go,450.0,650.0,1.0,,,,,,,,,yellow,square
0.0,3.0,2.0,0.0,5.0,5.0,811.6326105518965,3.0,1.0,phase_2,go,450.0,650.0,1.0,,,,,,,,,orange,cross
0.0,7.0,2.0,1.0,6.0,6.0,352.686120873841,3.0,1.0,phase_2,stop,450.0,650.0,3.0,,,,,,,,,cyan,triangle
0.0,7.0,2.0,1.0,6.0,0.0,0.0,3.0,1.0,phase_2,stop,450.0,600.0,4.0,,,,,,,,,cyan,triangle
0.0,5.0,0.5,1.0,5.0,0.0,0.0,3.0,1.0,phase_2,stop,450.0,650.0,4.0,,,,,,,,,gray,flipped triangle
0.0,2.0,1.0,0.0,6.0,6.0,826.2616061911103,3.0,1.0,phase_2,go,500.0,650.0,1.0,,,,,,,,,magenta,I
0.0,7.0,2.0,1.0,6.0,0.0,0.0,3.0,1.0,phase_2,stop,500.0,650.0,4.0,,,,,,,,,cyan,triangle
0.0,2.0,1.0,0.0,5.0,5.0,683.2718950608978,3.0,1.0,phase_2,go,500.0,700.0,1.0,,,,,,,,,magenta,I
0.0,4.0,4.0,0.0,6.0,6.0,772.4559786147438,3.0,1.0,phase_2,go,500.0,700.0,1.0,,,,,,,,,yellow,square
0.0,2.0,1.0,0.0,5.0,5.0,448.4035899367882,3.0,1.0,phase_2,go,500.0,700.0,1.0,,,,,,,,,magenta,I
0.0,7.0,2.0,1.0,5.0,0.0,0.0,3.0,1.0,phase_2,stop,500.0,700.0,4.0,,,,,,,,,cyan,triangle
0.0,3.0,2.0,0.0,5.0,5.0,934.3450876767748,3.0,1.0,phase_2,go,550.0,700.0,1.0,,,,,,,,,orange,cross
0.0,4.0,4.0,0.0,6.0,6.0,699.0069348103134,3.0,1.0,phase_2,go,550.0,700.0,1.0,,,,,,,,,yellow,square
0.0,7.0,2.0,1.0,6.0,6.0,574.2469799370156,3.0,1.0,phase_2,go,550.0,700.0,1.0,,,,,,,,,cyan,triangle
0.0,1.0,0.5,0.0,5.0,5.0,576.4626745512942,3.0,1.0,phase_2,go,550.0,700.0,1.0,,,,,,,,,blue,circle
0.0,8.0,4.0,1.0,6.0,6.0,745.0761894288007,3.0,1.0,phase_2,stop,550.0,700.0,3.0,,,,,,,,,green,diamond
0.0,6.0,1.0,1.0,6.0,0.0,0.0,3.0,1.0,phase_2,stop,550.0,650.0,4.0,,,,,,,,,white,hexagon
0.0,7.0,2.0,1.0,5.0,5.0,578.8408358130255,3.0,1.0,phase_2,stop,550.0,700.0,3.0,,,,,,,,,cyan,triangle
0.0,3.0,2.0,0.0,6.0,6.0,591.5620126761496,3.0,1.0,phase_2,go,500.0,700.0,1.0,,,,,,,,,orange,cross
0.0,3.0,2.0,0.0,6.0,6.0,816.0914458785555,4.0,1.0,phase_2,go,500.0,700.0,1.0,,,,,,,,,orange,cross
0.0,6.0,1.0,1.0,5.0,0.0,0.0,4.0,1.0,phase_2,stop,500.0,700.0,4.0,,,,,,,,,white,hexagon
0.0,1.0,0.5,0.0,6.0,6.0,704.8355680017266,4.0,1.0,phase_2,go,550.0,700.0,1.0,,,,,,,,,blue,circle
0.0,3.0,2.0,0.0,5.0,5.0,706.2198226194596,4.0,1.0,phase_2,go,550.0,700.0,1.0,,,,,,,,,orange,cross
0.0,5.0,0.5,1.0,5.0,0.0,0.0,4.0,1.0,phase_2,stop,550.0,700.0,4.0,,,,,,,,,gray,flipped triangle
0.0,5.0,0.5,1.0,6.0,6.0,572.4576707434608,4.0,1.0,phase_2,stop,600.0,700.0,3.0,,,,,,,,,gray,flipped triangle
0.0,6.0,1.0,1.0,6.0,6.0,754.2489916741033,4.0,1.0,phase_2,stop,600.0,650.0,3.0,,,,,,,,,white,hexagon
0.0,4.0,4.0,0.0,6.0,6.0,832.1551656117663,4.0,1.0,phase_2,go,600.0,600.0,1.0,,,,,,,,,yellow,square
0.0,2.0,1.0,0.0,5.0,5.0,788.8292898715008,4.0,1.0,phase_2,go,600.0,600.0,1.0,,,,,,,,,magenta,I
0.0,5.0,0.5,1.0,6.0,0.0,0.0,4.0,1.0,phase_2,stop,600.0,600.0,4.0,,,,,,,,,gray,flipped triangle
0.0,3.0,2.0,0.0,5.0,5.0,375.1099397413782,4.0,1.0,phase_2,go,600.0,650.0,1.0,,,,,,,,,orange,cross
0.0,4.0,4.0,0.0,5.0,5.0,701.5945310049574,4.0,1.0,phase_2,go,600.0,650.0,1.0,,,,,,,,,yellow,square
0.0,7.0,2.0,1.0,5.0,5.0,656.7474088151357,4.0,1.0,phase_2,go,600.0,650.0,1.0,,,,,,,,,cyan,triangle
0.0,4.0,4.0,0.0,5.0,5.0,725.2464856792358,4.0,1.0,phase_2,go,600.0,650.0,1.0,,,,,,,,,yellow,square
0.0,5.0,0.5,1.0,5.0,5.0,659.5444289341685,4.0,1.0,phase_2,stop,600.0,650.0,3.0,,,,,,,,,gray,flipped triangle
0.0,3.0,2.0,0.0,6.0,6.0,636.4721490681404,4.0,1.0,phase_2,go,550.0,650.0,1.0,,,,,,,,,orange,cross
0.0,4.0,4.0,0.0,6.0,6.0,795.4429970632191,4.0,1.0,phase_2,go,550.0,650.0,1.0,,,,,,,,,yellow,square
0.0,6.0,1.0,1.0,5.0,5.0,370.1582306166529,4.0,1.0,phase_2,stop,550.0,650.0,3.0,,,,,,,,,white,hexagon
0.0,7.0,2.0,1.0,5.0,0.0,0.0,4.0,1.0,phase_2,stop,500.0,650.0,4.0,,,,,,,,,cyan,triangle
0.0,6.0,1.0,1.0,5.0,0.0,0.0,4.0,1.0,phase_2,stop,550.0,650.0,4.0,,,,,,,,,white,hexagon
0.0,5.0,0.5,1.0,5.0,5.0,608.6795730661834,4.0,1.0,phase_2,go,600.0,650.0,1.0,,,,,,,,,gray,flipped triangle
0.0,2.0,1.0,0.0,5.0,5.0,776.760477485368,4.0,1.0,phase_2,go,600.0,650.0,1.0,,,,,,,,,magenta,I
0.0,7.0,2.0,1.0,5.0,5.0,732.746154673805,4.0,1.0,phase_2,stop,600.0,650.0,3.0,,,,,,,,,cyan,triangle
0.0,5.0,0.5,1.0,5.0,5.0,869.3827776151011,4.0,1.0,phase_2,go,550.0,650.0,1.0,,,,,,,,,gray,flipped triangle
0.0,4.0,4.0,0.0,6.0,6.0,374.4975878726109,4.0,1.0,phase_2,go,550.0,650.0,1.0,,,,,,,,,yellow,square
0.0,1.0,0.5,0.0,6.0,6.0,713.6938444673433,4.0,1.0,phase_2,go,550.0,650.0,1.0,,,,,,,,,blue,circle
0.0,2.0,1.0,0.0,6.0,6.0,444.5399116812041,4.0,1.0,phase_2,go,550.0,650.0,1.0,,,,,,,,,magenta,I
0.0,3.0,2.0,0.0,6.0,6.0,522.7222186804283,4.0,1.0,phase_2,go,550.0,650.0,1.0,,,,,,,,,orange,cross
0.0,8.0,4.0,1.0,5.0,5.0,726.3747896795394,4.0,1.0,phase_2,go,550.0,650.0,1.0,,,,,,,,,green,diamond
0.0,3.0,2.0,0.0,5.0,5.0,705.9970435511786,4.0,1.0,phase_2,go,550.0,650.0,1.0,,,,,,,,,orange,cross
0.0,6.0,1.0,1.0,6.0,6.0,673.2649846744607,4.0,1.0,phase_2,go,550.0,650.0,1.0,,,,,,,,,white,hexagon
0.0,5.0,0.5,1.0,5.0,5.0,563.4015566829476,4.0,1.0,phase_2,stop,550.0,650.0,3.0,,,,,,,,,gray,flipped triangle
0.0,2.0,1.0,0.0,6.0,6.0,730.8452974903048,4.0,1.0,phase_2,go,500.0,650.0,1.0,,,,,,,,,magenta,I
0.0,8.0,4.0,1.0,6.0,6.0,842.8562297413009,4.0,1.0,phase_2,go,500.0,650.0,1.0,,,,,,,,,green,diamond
0.0,2.0,1.0,0.0,5.0,5.0,708.9804958741297,4.0,1.0,phase_2,go,500.0,650.0,1.0,,,,,,,,,magenta,I
0.0,7.0,2.0,1.0,6.0,0.0,0.0,4.0,1.0,phase_2,stop,500.0,650.0,4.0,,,,,,,,,cyan,triangle
0.0,6.0,1.0,1.0,6.0,6.0,699.9358609391493,5.0,1.0,phase_2,stop,500.0,700.0,3.0,,,,,,,,,white,hexagon
0.0,8.0,4.0,1.0,6.0,6.0,553.238839682308,5.0,1.0,phase_2,stop,500.0,650.0,3.0,,,,,,,,,green,diamond
0.0,2.0,1.0,0.0,6.0,6.0,668.2907931317459,5.0,1.0,phase_2,go,500.0,600.0,1.0,,,,,,,,,magenta,I
0.0,4.0,4.0,0.0,5.0,5.0,568.2174329413101,5.0,1.0,phase_2,go,500.0,600.0,1.0,,,,,,,,,yellow,square
0.0,5.0,0.5,1.0,5.0,5.0,645.6345630649594,5.0,1.0,phase_2,stop,500.0,600.0,3.0,,,,,,,,,gray,flipped triangle
0.0,2.0,1.0,0.0,6.0,6.0,567.789468812407,5.0,1.0,phase_2,go,450.0,600.0,1.0,,,,,,,,,magenta,I
0.0,7.0,2.0,1.0,5.0,0.0,0.0,5.0,1.0,phase_2,stop,450.0,600.0,4.0,,,,,,,,,cyan,triangle
0.0,1.0,0.5,0.0,6.0,6.0,694.5411436754512,5.0,1.0,phase_2,go,500.0,600.0,1.0,,,,,,,,,blue,circle
0.0,1.0,0.5,0.0,6.0,6.0,525.2918330006651,5.0,1.0,phase_2,go,500.0,600.0,1.0,,,,,,,,,blue,circle
0.0,3.0,2.0,0.0,5.0,5.0,595.377395489777,5.0,1.0,phase_2,go,500.0,600.0,1.0,,,,,,,,,orange,cross
0.0,7.0,2.0,1.0,5.0,5.0,459.8229109760723,5.0,1.0,phase_2,stop,500.0,600.0,3.0,,,,,,,,,cyan,triangle
0.0,5.0,0.5,1.0,5.0,0.0,0.0,5.0,1.0,phase_2,stop,450.0,600.0,4.0,,,,,,,,,gray,flipped triangle
0.0,6.0,1.0,1.0,5.0,0.0,0.0,5.0,1.0,phase_2,stop,500.0,600.0,4.0,,,,,,,,,white,hexagon
0.0,2.0,1.0,0.0,5.0,5.0,721.0596298173186,5.0,1.0,phase_2,go,550.0,600.0,1.0,,,,,,,,,magenta,I
0.0,1.0,0.5,0.0,5.0,0.0,0.0,5.0,1.0,phase_2,go,550.0,600.0,5.0,,,,,,,,,blue,circle
0.0,3.0,2.0,0.0,5.0,5.0,464.476894994732,5.0,1.0,phase_2,go,550.0,600.0,1.0,,,,,,,,,orange,cross
0.0,8.0,4.0,1.0,5.0,0.0,0.0,5.0,1.0,phase_2,stop,550.0,600.0,4.0,,,,,,,,,green,diamond
0.0,8.0,4.0,1.0,6.0,6.0,442.6720979390666,5.0,1.0,phase_2,stop,600.0,600.0,3.0,,,,,,,,,green,diamond
0.0,1.0,0.5,0.0,6.0,6.0,713.9225934879505,5.0,1.0,phase_2,go,600.0,550.0,1.0,,,,,,,,,blue,circle
0.0,6.0,1.0,1.0,5.0,5.0,1198.6801468083286,5.0,1.0,phase_2,go,600.0,550.0,1.0,,,,,,,,,white,hexagon
0.0,3.0,2.0,0.0,6.0,6.0,671.1625768075464,5.0,1.0,phase_2,go,600.0,550.0,1.0,,,,,,,,,orange,cross
0.0,6.0,1.0,1.0,6.0,6.0,346.8899694926222,5.0,1.0,phase_2,go,600.0,550.0,1.0,,,,,,,,,white,hexagon
0.0,7.0,2.0,1.0,6.0,6.0,436.7384919387405,5.0,1.0,phase_2,stop,600.0,550.0,3.0,,,,,,,,,cyan,triangle
0.0,6.0,1.0,1.0,5.0,0.0,0.0,5.0,1.0,phase_2,stop,600.0,500.0,4.0,,,,,,,,,white,hexagon
0.0,1.0,0.5,0.0,6.0,6.0,617.7639270026702,5.0,1.0,phase_2,go,650.0,500.0,1.0,,,,,,,,,blue,circle
0.0,7.0,2.0,1.0,5.0,5.0,361.524993488274,5.0,1.0,phase_2,stop,650.0,500.0,3.0,,,,,,,,,cyan,triangle
0.0,4.0,4.0,0.0,5.0,5.0,744.7847328076023,5.0,1.0,phase_2,go,600.0,500.0,1.0,,,,,,,,,yellow,square
0.0,8.0,4.0,1.0,5.0,5.0,508.0846688724705,5.0,1.0,phase_2,go,600.0,500.0,1.0,,,,,,,,,green,diamond
0.0,2.0,1.0,0.0,5.0,5.0,373.7924837405444,5.0,1.0,phase_2,go,600.0,500.0,1.0,,,,,,,,,magenta,I
0.0,2.0,1.0,0.0,5.0,5.0,296.9675466156332,5.0,1.0,phase_2,go,600.0,500.0,1.0,,,,,,,,,magenta,I
0.0,5.0,0.5,1.0,5.0,5.0,307.3700058157556,5.0,1.0,phase_2,stop,600.0,500.0,3.0,,,,,,,,,gray,flipped triangle
0.0,8.0,4.0,1.0,6.0,6.0,286.1865678714821,5.0,1.0,phase_2,go,550.0,500.0,1.0,,,,,,,,,green,diamond
0.0,6.0,1.0,1.0,6.0,6.0,635.11567000387,5.0,1.0,phase_2,go,550.0,500.0,1.0,,,,,,,,,white,hexagon
0.0,1.0,0.5,0.0,6.0,6.0,333.735963809886,5.0,1.0,phase_2,go,550.0,500.0,1.0,,,,,,,,,blue,circle
0.0,1.0,0.5,0.0,5.0,5.0,312.0593706189538,5.0,1.0,phase_2,go,550.0,500.0,1.0,,,,,,,,,blue,circle
0.0,8.0,4.0,1.0,6.0,6.0,245.6452027399791,5.0,1.0,phase_2,go,550.0,500.0,1.0,,,,,,,,,green,diamond
0.0,7.0,2.0,1.0,6.0,6.0,357.4337810641737,6.0,1.0,phase_2,stop,550.0,500.0,3.0,,,,,,,,,cyan,triangle
0.0,1.0,0.5,0.0,5.0,5.0,323.9217650043429,6.0,1.0,phase_2,go,550.0,450.0,1.0,,,,,,,,,blue,circle
0.0,1.0,0.5,0.0,6.0,6.0,315.015376676456,6.0,1.0,phase_2,go,550.0,450.0,1.0,,,,,,,,,blue,circle
0.0,1.0,0.5,0.0,5.0,5.0,281.1972954878001,6.0,1.0,phase_2,go,550.0,450.0,1.0,,,,,,,,,blue,circle
0.0,6.0,1.0,1.0,5.0,5.0,360.6909808149794,6.0,1.0,phase_2,stop,550.0,450.0,3.0,,,,,,,,,white,hexagon
0.0,8.0,4.0,1.0,6.0,6.0,238.1349866118398,6.0,1.0,phase_2,stop,500.0,450.0,3.0,,,,,,,,,green,diamond
0.0,3.0,2.0,0.0,6.0,6.0,341.2498406178201,6.0,1.0,phase_2,go,500.0,400.0,1.0,,,,,,,,,orange,cross
0.0,3.0,2.0,0.0,6.0,6.0,318.2656779390527,6.0,1.0,phase_2,go,500.0,400.0,1.0,,,,,,,,,orange,cross
0.0,8.0,4.0,1.0,5.0,5.0,307.6272821854218,6.0,1.0,phase_2,go,500.0,400.0,1.0,,,,,,,,,green,diamond
0.0,2.0,1.0,0.0,5.0,5.0,308.11228674429,6.0,1.0,phase_2,go,500.0,400.0,1.0,,,,,,,,,magenta,I
0.0,7.0,2.0,1.0,5.0,5.0,264.1630155558232,6.0,1.0,phase_2,stop,500.0,400.0,3.0,,,,,,,,,cyan,triangle
0.0,7.0,2.0,1.0,6.0,6.0,253.9079836205928,6.0,1.0,phase_2,stop,450.0,400.0,3.0,,,,,,,,,cyan,triangle
0.0,3.0,2.0,0.0,6.0,6.0,435.7732236821903,6.0,1.0,phase_2,go,450.0,350.0,1.0,,,,,,,,,orange,cross
0.0,2.0,1.0,0.0,5.0,5.0,412.8495108743664,6.0,1.0,phase_2,go,450.0,350.0,1.0,,,,,,,,,magenta,I
0.0,7.0,2.0,1.0,5.0,5.0,325.715604427387,6.0,1.0,phase_2,stop,450.0,350.0,3.0,,,,,,,,,cyan,triangle
0.0,6.0,1.0,1.0,5.0,0.0,0.0,6.0,1.0,phase_2,stop,400.0,350.0,4.0,,,,,,,,,white,hexagon
0.0,8.0,4.0,1.0,5.0,5.0,349.1494226109353,6.0,1.0,phase_2,stop,450.0,350.0,3.0,,,,,,,,,green,diamond
0.0,1.0,0.5,0.0,6.0,6.0,574.3113777425606,6.0,1.0,phase_2,go,400.0,350.0,1.0,,,,,,,,,blue,circle
0.0,2.0,1.0,0.0,6.0,6.0,305.2398626750801,6.0,1.0,phase_2,go,400.0,350.0,1.0,,,,,,,,,magenta,I
0.0,3.0,2.0,0.0,6.0,6.0,464.9722011236008,6.0,1.0,phase_2,go,400.0,350.0,1.0,,,,,,,,,orange,cross
0.0,2.0,1.0,0.0,5.0,5.0,352.8267888104892,6.0,1.0,phase_2,go,400.0,350.0,1.0,,,,,,,,,magenta,I
0.0,2.0,1.0,0.0,6.0,6.0,364.7434315498685,6.0,1.0,phase_2,go,400.0,350.0,1.0,,,,,,,,,magenta,I
0.0,5.0,0.5,1.0,6.0,6.0,364.7551308749825,6.0,1.0,phase_2,go,400.0,350.0,1.0,,,,,,,,,gray,flipped triangle
0.0,3.0,2.0,0.0,6.0,6.0,354.818937870732,6.0,1.0,phase_2,go,400.0,350.0,1.0,,,,,,,,,orange,cross
0.0,8.0,4.0,1.0,5.0,5.0,625.7163395566749,6.0,1.0,phase_2,go,400.0,350.0,1.0,,,,,,,,,green,diamond
0.0,8.0,4.0,1.0,5.0,0.0,0.0,6.0,1.0,phase_2,stop,400.0,350.0,4.0,,,,,,,,,green,diamond
0.0,1.0,0.5,0.0,6.0,6.0,761.8387224865728,6.0,1.0,phase_2,go,450.0,350.0,1.0,,,,,,,,,blue,circle
0.0,3.0,2.0,0.0,6.0,6.0,661.2855386192678,6.0,1.0,phase_2,go,450.0,350.0,1.0,,,,,,,,,orange,cross
0.0,5.0,0.5,1.0,5.0,0.0,0.0,6.0,1.0,phase_2,stop,450.0,350.0,4.0,,,,,,,,,gray,flipped triangle
0.0,1.0,0.5,0.0,6.0,6.0,426.8157176193199,6.0,1.0,phase_2,go,500.0,350.0,1.0,,,,,,,,,blue,circle
0.0,5.0,0.5,1.0,6.0,0.0,0.0,6.0,1.0,phase_2,stop,500.0,350.0,4.0,,,,,,,,,gray,flipped triangle
0.0,1.0,0.5,0.0,6.0,6.0,552.6646808721125,6.0,1.0,phase_2,go,500.0,400.0,1.0,,,,,,,,,blue,circle
0.0,6.0,1.0,1.0,5.0,0.0,0.0,6.0,1.0,phase_2,stop,500.0,400.0,4.0,,,,,,,,,white,hexagon
0.0,7.0,2.0,1.0,6.0,0.0,0.0,6.0,1.0,phase_2,stop,550.0,400.0,4.0,,,,,,,,,cyan,triangle
0.0,8.0,4.0,1.0,6.0,6.0,533.5439807386138,6.0,1.0,phase_2,stop,550.0,450.0,3.0,,,,,,,,,green,diamond
0.0,4.0,4.0,0.0,6.0,6.0,803.9474438701291,6.0,1.0,phase_2,go,550.0,400.0,1.0,,,,,,,,,yellow,square
0.0,4.0,4.0,0.0,5.0,5.0,660.5418378094328,7.0,1.0,phase_2,go,550.0,400.0,1.0,,,,,,,,,yellow,square
0.0,2.0,1.0,0.0,6.0,6.0,526.1315776151605,7.0,1.0,phase_2,go,550.0,400.0,1.0,,,,,,,,,magenta,I
0.0,4.0,4.0,0.0,6.0,6.0,459.4777136808261,7.0,1.0,phase_2,go,550.0,400.0,1.0,,,,,,,,,yellow,square
0.0,7.0,2.0,1.0,6.0,6.0,529.6171330046491,7.0,1.0,phase_2,stop,550.0,400.0,3.0,,,,,,,,,cyan,triangle
0.0,1.0,0.5,0.0,6.0,6.0,573.6388007426285,7.0,1.0,phase_2,go,550.0,350.0,1.0,,,,,,,,,blue,circle
0.0,8.0,4.0,1.0,6.0,0.0,0.0,7.0,1.0,phase_2,stop,550.0,350.0,4.0,,,,,,,,,green,diamond
0.0,2.0,1.0,0.0,6.0,6.0,508.10119299421785,7.0,1.0,phase_2,go,550.0,400.0,1.0,,,,,,,,,magenta,I
0.0,4.0,4.0,0.0,6.0,6.0,599.451659611077,7.0,1.0,phase_2,go,550.0,400.0,1.0,,,,,,,,,yellow,square
0.0,6.0,1.0,1.0,6.0,0.0,0.0,7.0,1.0,phase_2,stop,550.0,400.0,4.0,,,,,,,,,white,hexagon
0.0,4.0,4.0,0.0,6.0,6.0,477.6363828132162,7.0,1.0,phase_2,go,550.0,450.0,1.0,,,,,,,,,yellow,square
0.0,8.0,4.0,1.0,5.0,5.0,533.7110146792838,7.0,1.0,phase_2,stop,550.0,450.0,3.0,,,,,,,,,green,diamond
0.0,5.0,0.5,1.0,5.0,0.0,0.0,7.0,1.0,phase_2,stop,500.0,450.0,4.0,,,,,,,,,gray,flipped triangle
0.0,1.0,0.5,0.0,6.0,6.0,682.1808077438618,7.0,1.0,phase_2,go,550.0,450.0,1.0,,,,,,,,,blue,circle
0.0,3.0,2.0,0.0,5.0,5.0,503.15539593430003,7.0,1.0,phase_2,go,550.0,450.0,1.0,,,,,,,,,orange,cross
0.0,2.0,1.0,0.0,5.0,5.0,683.3398798116832,7.0,1.0,phase_2,go,550.0,450.0,1.0,,,,,,,,,magenta,I
0.0,1.0,0.5,0.0,5.0,5.0,605.3681038756622,7.0,1.0,phase_2,go,550.0,450.0,1.0,,,,,,,,,blue,circle
0.0,5.0,0.5,1.0,6.0,6.0,517.9420216736617,7.0,1.0,phase_2,stop,550.0,450.0,3.0,,,,,,,,,gray,flipped triangle
0.0,3.0,2.0,0.0,6.0,6.0,810.21769974177,7.0,1.0,phase_2,go,550.0,400.0,1.0,,,,,,,,,orange,cross
0.0,6.0,1.0,1.0,6.0,6.0,879.2769608116942,7.0,1.0,phase_2,go,550.0,400.0,1.0,,,,,,,,,white,hexagon
0.0,3.0,2.0,0.0,5.0,5.0,372.782745063887,7.0,1.0,phase_2,go,550.0,400.0,1.0,,,,,,,,,orange,cross
0.0,2.0,1.0,0.0,5.0,5.0,744.8060648093815,7.0,1.0,phase_2,go,550.0,400.0,1.0,,,,,,,,,magenta,I
0.0,3.0,2.0,0.0,5.0,5.0,463.9047284872504,7.0,1.0,phase_2,go,550.0,400.0,1.0,,,,,,,,,orange,cross
0.0,3.0,2.0,0.0,6.0,6.0,341.2274258080288,7.0,1.0,phase_2,go,550.0,400.0,1.0,,,,,,,,,orange,cross
0.0,5.0,0.5,1.0,6.0,6.0,376.0376938080298,7.0,1.0,phase_2,stop,550.0,400.0,3.0,,,,,,,,,gray,flipped triangle
0.0,3.0,2.0,0.0,6.0,6.0,659.2003807381843,7.0,1.0,phase_2,go,550.0,350.0,1.0,,,,,,,,,orange,cross
0.0,6.0,1.0,1.0,5.0,5.0,693.059396740864,7.0,1.0,phase_2,stop,550.0,350.0,3.0,,,,,,,,,white,hexagon
0.0,6.0,1.0,1.0,6.0,6.0,985.6617558107246,7.0,1.0,phase_2,go,500.0,350.0,1.0,,,,,,,,,white,hexagon
0.0,4.0,4.0,0.0,6.0,6.0,560.6163370612194,7.0,1.0,phase_2,go,500.0,350.0,1.0,,,,,,,,,yellow,square
0.0,8.0,4.0,1.0,6.0,6.0,424.9075948100653,7.0,1.0,phase_2,go,500.0,350.0,1.0,,,,,,,,,green,diamond
0.0,6.0,1.0,1.0,5.0,5.0,584.6306857420132,7.0,1.0,phase_2,stop,500.0,350.0,3.0,,,,,,,,,white,hexagon
0.0,4.0,4.0,0.0,6.0,6.0,741.7789768733201,7.0,1.0,phase_2,go,450.0,350.0,1.0,,,,,,,,,yellow,square
0.0,5.0,0.5,1.0,5.0,5.0,428.9337918744422,7.0,1.0,phase_2,stop,450.0,350.0,3.0,,,,,,,,,gray,flipped triangle
0.0,3.0,2.0,0.0,6.0,6.0,384.8890566805494,7.0,1.0,phase_2,go,400.0,350.0,1.0,,,,,,,,,orange,cross
0.0,1.0,0.5,0.0,5.0,5.0,709.9769498745445,7.0,1.0,phase_2,go,400.0,350.0,1.0,,,,,,,,,blue,circle
0.0,2.0,1.0,0.0,5.0,5.0,554.5135316788219,7.0,1.0,phase_2,go,400.0,350.0,1.0,,,,,,,,,magenta,I
0.0,6.0,1.0,1.0,5.0,0.0,0.0,7.0,1.0,phase_2,stop,400.0,350.0,4.0,,,,,,,,,white,hexagon
0.0,1.0,0.5,0.0,6.0,6.0,434.2728009360144,8.0,1.0,phase_2,go,450.0,350.0,1.0,,,,,,,,,blue,circle
0.0,4.0,4.0,0.0,6.0,6.0,379.9309308742522,8.0,1.0,phase_2,go,450.0,350.0,1.0,,,,,,,,,yellow,square
0.0,5.0,0.5,1.0,6.0,6.0,592.5167734894785,8.0,1.0,phase_2,go,450.0,350.0,1.0,,,,,,,,,gray,flipped triangle
0.0,7.0,2.0,1.0,6.0,6.0,357.8691640577744,8.0,1.0,phase_2,stop,450.0,350.0,3.0,,,,,,,,,cyan,triangle
0.0,7.0,2.0,1.0,5.0,5.0,617.9758447397035,8.0,1.0,phase_2,go,450.0,300.0,1.0,,,,,,,,,cyan,triangle
0.0,8.0,4.0,1.0,6.0,0.0,0.0,8.0,1.0,phase_2,stop,450.0,300.0,4.0,,,,,,,,,green,diamond
0.0,4.0,4.0,0.0,5.0,5.0,495.2016378156259,8.0,1.0,phase_2,go,450.0,350.0,1.0,,,,,,,,,yellow,square
0.0,6.0,1.0,1.0,5.0,5.0,619.8969838151243,8.0,1.0,phase_2,stop,450.0,350.0,3.0,,,,,,,,,white,hexagon
0.0,5.0,0.5,1.0,6.0,6.0,622.0390716116526,8.0,1.0,phase_2,go,400.0,350.0,1.0,,,,,,,,,gray,flipped triangle
0.0,4.0,4.0,0.0,5.0,5.0,690.7129167375388,8.0,1.0,phase_2,go,400.0,350.0,1.0,,,,,,,,,yellow,square
0.0,6.0,1.0,1.0,6.0,6.0,522.2122625491465,8.0,1.0,phase_2,go,400.0,350.0,1.0,,,,,,,,,white,hexagon
0.0,2.0,1.0,0.0,6.0,6.0,467.0805618079612,8.0,1.0,phase_2,go,400.0,350.0,1.0,,,,,,,,,magenta,I
0.0,6.0,1.0,1.0,6.0,6.0,646.2719959381502,8.0,1.0,phase_2,go,400.0,350.0,1.0,,,,,,,,,white,hexagon
0.0,7.0,2.0,1.0,6.0,6.0,433.8205217354698,8.0,1.0,phase_2,stop,400.0,350.0,3.0,,,,,,,,,cyan,triangle
0.0,7.0,2.0,1.0,6.0,0.0,0.0,8.0,1.0,phase_2,stop,400.0,300.0,4.0,,,,,,,,,cyan,triangle
0.0,8.0,4.0,1.0,5.0,5.0,470.2564248145791,8.0,1.0,phase_2,stop,400.0,350.0,3.0,,,,,,,,,green,diamond
0.0,2.0,1.0,0.0,5.0,5.0,447.04949119477527,8.0,1.0,phase_2,go,350.0,350.0,1.0,,,,,,,,,magenta,I
0.0,5.0,0.5,1.0,5.0,0.0,0.0,8.0,1.0,phase_2,stop,350.0,350.0,4.0,,,,,,,,,gray,flipped triangle
0.0,7.0,2.0,1.0,6.0,0.0,0.0,8.0,1.0,phase_2,stop,400.0,350.0,4.0,,,,,,,,,cyan,triangle
0.0,5.0,0.5,1.0,6.0,0.0,0.0,8.0,1.0,phase_2,stop,400.0,400.0,4.0,,,,,,,,,gray,flipped triangle
0.0,7.0,2.0,1.0,5.0,5.0,598.0896730688983,8.0,1.0,phase_2,go,400.0,450.0,1.0,,,,,,,,,cyan,triangle
0.0,1.0,0.5,0.0,5.0,5.0,473.9074786193669,8.0,1.0,phase_2,go,400.0,450.0,1.0,,,,,,,,,blue,circle
0.0,8.0,4.0,1.0,5.0,5.0,498.2720147381769,8.0,1.0,phase_2,stop,400.0,450.0,3.0,,,,,,,,,green,diamond
0.0,8.0,4.0,1.0,5.0,0.0,0.0,8.0,1.0,phase_2,stop,350.0,450.0,4.0,,,,,,,,,green,diamond
0.0,8.0,4.0,1.0,6.0,6.0,443.8677326761535,8.0,1.0,phase_2,stop,400.0,450.0,3.0,,,,,,,,,green,diamond
0.0,3.0,2.0,0.0,5.0,5.0,568.5173148085596,8.0,1.0,phase_2,go,400.0,400.0,1.0,,,,,,,,,orange,cross
0.0,4.0,4.0,0.0,5.0,5.0,556.23970986926,8.0,1.0,phase_2,go,400.0,400.0,1.0,,,,,,,,,yellow,square
0.0,7.0,2.0,1.0,6.0,0.0,0.0,8.0,1.0,phase_2,stop,400.0,400.0,4.0,,,,,,,,,cyan,triangle
0.0,3.0,2.0,0.0,5.0,5.0,603.4280706735444,8.0,1.0,phase_2,go,400.0,450.0,1.0,,,,,,,,,orange,cross
0.0,4.0,4.0,0.0,5.0,5.0,615.1299775519874,8.0,1.0,phase_2,go,400.0,450.0,1.0,,,,,,,,,yellow,square
0.0,5.0,0.5,1.0,5.0,5.0,718.341503488773,8.0,1.0,phase_2,go,400.0,450.0,1.0,,,,,,,,,gray,flipped triangle
0.0,7.0,2.0,1.0,6.0,6.0,628.1419647420989,8.0,1.0,phase_2,go,400.0,450.0,1.0,,,,,,,,,cyan,triangle
0.0,3.0,2.0,0.0,5.0,5.0,574.5247257436858,8.0,1.0,phase_2,go,400.0,450.0,1.0,,,,,,,,,orange,cross
0.0,1.0,0.5,0.0,5.0,5.0,822.5625979393953,8.0,1.0,phase_2,go,400.0,450.0,1.0,,,,,,,,,blue,circle
0.0,4.0,4.0,0.0,6.0,6.0,462.6021608710289,8.0,1.0,phase_2,go,400.0,450.0,1.0,,,,,,,,,yellow,square
0.0,7.0,2.0,1.0,5.0,5.0,429.9963158046012,8.0,1.0,phase_2,stop,400.0,450.0,3.0,,,,,,,,,cyan,triangle
0.0,3.0,2.0,0.0,7.0,4.0,2363.354489993071,1.0,1.0,phase_3,,,,,220.0,5.0,176.0,264.0,88.0,220.0,132.0,44.0,orange,cross
0.0,7.0,2.0,1.0,7.0,5.0,1491.9744913931936,1.0,1.0,phase_3,,,,,156.0,4.0,117.0,39.0,234.0,78.0,156.0,195.0,cyan,triangle
0.0,6.0,1.0,1.0,7.0,4.0,2077.6160763998632,1.0,1.0,phase_3,,,,,44.0,1.0,132.0,88.0,220.0,44.0,176.0,264.0,white,hexagon
0.0,5.0,0.5,1.0,7.0,6.0,1954.9465257950944,1.0,1.0,phase_3,,,,,108.0,2.0,216.0,270.0,324.0,54.0,162.0,108.0,gray,flipped triangle
0.0,8.0,4.0,1.0,7.0,4.0,2541.222226791433,1.0,1.0,phase_3,,,,,195.0,5.0,78.0,234.0,117.0,195.0,156.0,39.0,green,diamond
0.0,7.0,2.0,1.0,7.0,2.0,2553.1161663966486,1.0,1.0,phase_3,,,,,108.0,2.0,54.0,108.0,270.0,216.0,324.0,162.0,cyan,triangle
0.0,4.0,4.0,0.0,7.0,6.0,2139.937803200155,1.0,1.0,phase_3,,,,,270.0,5.0,216.0,324.0,54.0,162.0,108.0,270.0,yellow,square
0.0,1.0,0.5,0.0,7.0,5.0,2138.7129109934904,1.0,1.0,phase_3,,,,,196.0,4.0,147.0,294.0,98.0,245.0,196.0,49.0,blue,circle
0.0,4.0,4.0,0.0,7.0,4.0,2546.255278393801,1.0,1.0,phase_3,,,,,220.0,5.0,132.0,264.0,88.0,220.0,44.0,176.0,yellow,square
0.0,5.0,0.5,1.0,7.0,1.0,1658.1411459919764,1.0,1.0,phase_3,,,,,136.0,4.0,136.0,102.0,68.0,34.0,170.0,204.0,gray,flipped triangle
0.0,7.0,2.0,1.0,7.0,2.0,2806.521414400777,1.0,1.0,phase_3,,,,,264.0,6.0,132.0,264.0,220.0,88.0,176.0,44.0,cyan,triangle
0.0,7.0,2.0,1.0,7.0,1.0,2357.7988507895498,1.0,1.0,phase_3,,,,,102.0,3.0,102.0,204.0,68.0,34.0,170.0,136.0,cyan,triangle
0.0,7.0,2.0,1.0,7.0,3.0,1841.9759329917724,1.0,1.0,phase_3,,,,,156.0,4.0,195.0,39.0,156.0,234.0,78.0,117.0,cyan,triangle
0.0,4.0,4.0,0.0,7.0,5.0,1337.514848994033,1.0,1.0,phase_3,,,,,204.0,6.0,102.0,34.0,170.0,68.0,204.0,136.0,yellow,square
0.0,6.0,1.0,1.0,7.0,2.0,1325.704184397182,1.0,1.0,phase_3,,,,,34.0,1.0,102.0,34.0,136.0,204.0,170.0,68.0,white,hexagon
0.0,3.0,2.0,0.0,7.0,5.0,2271.6075815988006,1.0,1.0,phase_3,,,,,147.0,3.0,294.0,98.0,196.0,245.0,147.0,49.0,orange,cross
0.0,2.0,1.0,0.0,7.0,3.0,2352.8776083985576,1.0,1.0,phase_3,,,,,68.0,2.0,204.0,170.0,68.0,102.0,34.0,136.0,magenta,I
0.0,6.0,1.0,1.0,7.0,5.0,1148.4127673975308,1.0,1.0,phase_3,,,,,39.0,1.0,156.0,234.0,195.0,78.0,39.0,117.0,white,hexagon
0.0,1.0,0.5,0.0,7.0,5.0,1972.6783693986365,1.0,1.0,phase_3,,,,,78.0,2.0,195.0,39.0,117.0,156.0,78.0,234.0,blue,circle
0.0,5.0,0.5,1.0,7.0,1.0,3401.503622189921,1.0,1.0,phase_3,,,,,162.0,3.0,162.0,108.0,54.0,216.0,324.0,270.0,gray,flipped triangle
0.0,2.0,1.0,0.0,7.0,5.0,1423.2226323802024,2.0,1.0,phase_3,,,,,234.0,6.0,195.0,39.0,78.0,117.0,234.0,156.0,magenta,I
0.0,3.0,2.0,0.0,7.0,2.0,1558.56795739237,2.0,1.0,phase_3,,,,,117.0,3.0,78.0,117.0,234.0,156.0,195.0,39.0,orange,cross
0.0,2.0,1.0,0.0,7.0,1.0,1356.0883247992024,2.0,1.0,phase_3,,,,,108.0,2.0,108.0,162.0,54.0,270.0,324.0,216.0,magenta,I
0.0,8.0,4.0,1.0,7.0,6.0,2032.5478795930394,2.0,1.0,phase_3,,,,,156.0,4.0,234.0,195.0,117.0,78.0,39.0,156.0,green,diamond
0.0,8.0,4.0,1.0,7.0,1.0,2595.3981973798363,2.0,1.0,phase_3,,,,,270.0,5.0,270.0,216.0,108.0,162.0,324.0,54.0,green,diamond
0.0,6.0,1.0,1.0,7.0,6.0,1292.9234035982518,2.0,1.0,phase_3,,,,,44.0,1.0,132.0,176.0,88.0,220.0,264.0,44.0,white,hexagon
0.0,1.0,0.5,0.0,7.0,6.0,1675.878181384178,2.0,1.0,phase_3,,,,,54.0,1.0,162.0,270.0,108.0,324.0,216.0,54.0,blue,circle
0.0,8.0,4.0,1.0,7.0,6.0,1655.155834800098,2.0,1.0,phase_3,,,,,245.0,5.0,294.0,196.0,49.0,147.0,98.0,245.0,green,diamond
0.0,5.0,0.5,1.0,7.0,2.0,2275.6603243906284,2.0,1.0,phase_3,,,,,147.0,3.0,49.0,147.0,245.0,294.0,98.0,196.0,gray,flipped triangle
0.0,5.0,0.5,1.0,7.0,2.0,2354.280072999245,2.0,1.0,phase_3,,,,,147.0,3.0,98.0,147.0,196.0,245.0,49.0,294.0,gray,flipped triangle
0.0,7.0,2.0,1.0,7.0,4.0,3504.048719580169,2.0,1.0,phase_3,,,,,196.0,4.0,147.0,98.0,49.0,196.0,245.0,294.0,cyan,triangle
0.0,1.0,0.5,0.0,7.0,3.0,1975.0207303804928,2.0,1.0,phase_3,,,,,68.0,2.0,34.0,102.0,68.0,170.0,204.0,136.0,blue,circle
0.0,5.0,0.5,1.0,7.0,5.0,1942.464584193658,2.0,1.0,phase_3,,,,,117.0,3.0,78.0,156.0,234.0,195.0,117.0,39.0,gray,flipped triangle
0.0,8.0,4.0,1.0,7.0,3.0,2494.991869192745,2.0,1.0,phase_3,,,,,220.0,5.0,132.0,88.0,220.0,264.0,44.0,176.0,green,diamond
0.0,1.0,0.5,0.0,7.0,4.0,1392.1213097928558,2.0,1.0,phase_3,,,,,68.0,2.0,136.0,170.0,34.0,68.0,204.0,102.0,blue,circle
0.0,2.0,1.0,0.0,7.0,5.0,1517.058535791875,2.0,1.0,phase_3,,,,,136.0,4.0,170.0,34.0,68.0,204.0,136.0,102.0,magenta,I
0.0,7.0,2.0,1.0,7.0,3.0,2756.722647791321,2.0,1.0,phase_3,,,,,170.0,5.0,68.0,34.0,170.0,102.0,204.0,136.0,cyan,triangle
0.0,1.0,0.5,0.0,7.0,5.0,1439.804513196577,2.0,1.0,phase_3,,,,,196.0,4.0,147.0,245.0,49.0,98.0,196.0,294.0,blue,circle
0.0,6.0,1.0,1.0,7.0,1.0,1093.9673765969928,2.0,1.0,phase_3,,,,,54.0,1.0,54.0,162.0,270.0,216.0,324.0,108.0,white,hexagon
0.0,1.0,0.5,0.0,7.0,1.0,3152.087704394944,2.0,1.0,phase_3,,,,,108.0,2.0,108.0,162.0,324.0,270.0,54.0,216.0,blue,circle
0.0,2.0,1.0,0.0,7.0,5.0,2335.159670386929,3.0,1.0,phase_3,,,,,162.0,3.0,270.0,54.0,108.0,324.0,162.0,216.0,magenta,I
0.0,4.0,4.0,0.0,7.0,2.0,1367.4957851981162,3.0,1.0,phase_3,,,,,294.0,6.0,196.0,294.0,147.0,245.0,98.0,49.0,yellow,square
0.0,8.0,4.0,1.0,7.0,5.0,3945.283856002789,3.0,1.0,phase_3,,,,,136.0,4.0,34.0,204.0,68.0,170.0,136.0,102.0,green,diamond
0.0,3.0,2.0,0.0,7.0,6.0,3405.937734991312,3.0,1.0,phase_3,,,,,132.0,3.0,44.0,176.0,88.0,264.0,220.0,132.0,orange,cross
0.0,7.0,2.0,1.0,7.0,4.0,2800.04605139402,3.0,1.0,phase_3,,,,,162.0,3.0,54.0,324.0,270.0,162.0,216.0,108.0,cyan,triangle
0.0,6.0,1.0,1.0,7.0,1.0,876.6030837941798,3.0,1.0,phase_3,,,,,49.0,1.0,49.0,245.0,147.0,196.0,294.0,98.0,white,hexagon
0.0,8.0,4.0,1.0,7.0,4.0,2646.1462959923665,3.0,1.0,phase_3,,,,,136.0,4.0,204.0,102.0,68.0,136.0,170.0,34.0,green,diamond
0.0,2.0,1.0,0.0,7.0,2.0,1645.5071143936948,3.0,1.0,phase_3,,,,,147.0,3.0,49.0,147.0,294.0,245.0,196.0,98.0,magenta,I
0.0,3.0,2.0,0.0,7.0,1.0,3242.900722383638,3.0,1.0,phase_3,,,,,170.0,5.0,170.0,68.0,34.0,102.0,204.0,136.0,orange,cross
0.0,6.0,1.0,1.0,7.0,5.0,1488.7715035947622,3.0,1.0,phase_3,,,,,54.0,1.0,324.0,270.0,162.0,216.0,54.0,108.0,white,hexagon
0.0,5.0,0.5,1.0,7.0,3.0,3526.190848198894,3.0,1.0,phase_3,,,,,132.0,3.0,88.0,176.0,132.0,264.0,220.0,44.0,gray,flipped triangle
0.0,1.0,0.5,0.0,7.0,6.0,1884.913923793647,3.0,1.0,phase_3,,,,,88.0,2.0,264.0,176.0,132.0,44.0,220.0,88.0,blue,circle
0.0,4.0,4.0,0.0,7.0,5.0,1830.5759737995688,3.0,1.0,phase_3,,,,,234.0,6.0,117.0,39.0,78.0,156.0,234.0,195.0,yellow,square
0.0,3.0,2.0,0.0,7.0,6.0,3281.674739999289,3.0,1.0,phase_3,,,,,162.0,3.0,54.0,270.0,216.0,324.0,108.0,162.0,orange,cross
0.0,5.0,0.5,1.0,7.0,1.0,2608.8918058012496,3.0,1.0,phase_3,,,,,117.0,3.0,117.0,78.0,195.0,234.0,39.0,156.0,gray,flipped triangle
0.0,4.0,4.0,0.0,7.0,1.0,1236.6494899906684,3.0,1.0,phase_3,,,,,234.0,6.0,234.0,117.0,156.0,78.0,195.0,39.0,yellow,square
0.0,2.0,1.0,0.0,7.0,1.0,3106.3848457997665,3.0,1.0,phase_3,,,,,98.0,2.0,98.0,147.0,294.0,245.0,196.0,49.0,magenta,I
0.0,2.0,1.0,0.0,7.0,2.0,2397.155847385875,3.0,1.0,phase_3,,,,,78.0,2.0,117.0,78.0,195.0,234.0,39.0,156.0,magenta,I
0.0,8.0,4.0,1.0,7.0,5.0,2286.1820573889418,3.0,1.0,phase_3,,,,,245.0,5.0,147.0,294.0,196.0,49.0,245.0,98.0,green,diamond
0.0,8.0,4.0,1.0,7.0,4.0,2513.5759779950604,3.0,1.0,phase_3,,,,,264.0,6.0,88.0,132.0,176.0,264.0,44.0,220.0,green,diamond
0.0,4.0,4.0,0.0,7.0,4.0,1399.4376137925428,4.0,1.0,phase_3,,,,,204.0,6.0,34.0,68.0,102.0,204.0,136.0,170.0,yellow,square
0.0,2.0,1.0,0.0,7.0,2.0,1613.2255003976752,4.0,1.0,phase_3,,,,,132.0,3.0,220.0,132.0,88.0,176.0,44.0,264.0,magenta,I
0.0,3.0,2.0,0.0,7.0,6.0,1795.2768401955836,4.0,1.0,phase_3,,,,,108.0,2.0,324.0,270.0,54.0,162.0,216.0,108.0,orange,cross
0.0,6.0,1.0,1.0,7.0,3.0,1605.0103433954064,4.0,1.0,phase_3,,,,,34.0,1.0,170.0,68.0,34.0,136.0,204.0,102.0,white,hexagon
0.0,7.0,2.0,1.0,7.0,3.0,2731.339348792972,4.0,1.0,phase_3,,,,,147.0,3.0,49.0,245.0,147.0,294.0,196.0,98.0,cyan,triangle
0.0,6.0,1.0,1.0,7.0,6.0,1359.1807225893715,4.0,1.0,phase_3,,,,,39.0,1.0,234.0,156.0,117.0,195.0,78.0,39.0,white,hexagon
0.0,7.0,2.0,1.0,7.0,1.0,2632.3586832004366,4.0,1.0,phase_3,,,,,176.0,4.0,176.0,220.0,88.0,44.0,132.0,264.0,cyan,triangle
0.0,3.0,2.0,0.0,7.0,2.0,2250.3396663814783,4.0,1.0,phase_3,,,,,170.0,5.0,102.0,170.0,34.0,136.0,204.0,68.0,orange,cross
0.0,2.0,1.0,0.0,7.0,1.0,1565.5740384027013,4.0,1.0,phase_3,,,,,132.0,3.0,132.0,264.0,220.0,176.0,88.0,44.0,magenta,I
0.0,3.0,2.0,0.0,7.0,4.0,3050.87352659757,4.0,1.0,phase_3,,,,,147.0,3.0,196.0,294.0,49.0,147.0,98.0,245.0,orange,cross
0.0,1.0,0.5,0.0,7.0,1.0,1342.775296398031,4.0,1.0,phase_3,,,,,88.0,2.0,88.0,264.0,220.0,44.0,132.0,176.0,blue,circle
0.0,3.0,2.0,0.0,7.0,3.0,2457.494677393697,4.0,1.0,phase_3,,,,,156.0,4.0,78.0,195.0,156.0,117.0,234.0,39.0,orange,cross
0.0,4.0,4.0,0.0,7.0,3.0,1197.8130609932125,4.0,1.0,phase_3,,,,,294.0,6.0,245.0,49.0,294.0,98.0,196.0,147.0,yellow,square
0.0,4.0,4.0,0.0,7.0,2.0,1929.4507766026072,4.0,1.0,phase_3,,,,,264.0,6.0,176.0,264.0,220.0,132.0,88.0,44.0,yellow,square
0.0,5.0,0.5,1.0,7.0,5.0,2403.929422798683,4.0,1.0,phase_3,,,,,176.0,4.0,264.0,88.0,132.0,44.0,176.0,220.0,gray,flipped triangle
0.0,5.0,0.5,1.0,7.0,4.0,1706.6964905825444,4.0,1.0,phase_3,,,,,170.0,5.0,136.0,34.0,102.0,170.0,68.0,204.0,gray,flipped triangle
0.0,8.0,4.0,1.0,7.0,3.0,3103.832329994475,4.0,1.0,phase_3,,,,,270.0,5.0,216.0,162.0,270.0,324.0,54.0,108.0,green,diamond
0.0,1.0,0.5,0.0,7.0,1.0,2329.9792959951446,4.0,1.0,phase_3,,,,,78.0,2.0,78.0,195.0,234.0,117.0,156.0,39.0,blue,circle
0.0,4.0,4.0,0.0,7.0,5.0,1710.835701196629,4.0,1.0,phase_3,,,,,324.0,6.0,162.0,108.0,216.0,54.0,324.0,270.0,yellow,square
0.0,6.0,1.0,1.0,7.0,3.0,2172.678147988336,4.0,1.0,phase_3,,,,,294.0,6.0,196.0,98.0,294.0,245.0,147.0,49.0,white,hexagon
