raw_reward_magnitude,stim_reward,stepwise_reward_magnitude,paired_with_stopping,quadrant,response,reaction_time,block,num_trial_presentations,which_part,stop_signal_trial_type,left_SSD,right_SSD,accuracy,chosen_bidding_amount,chosen_bidding_level,possible_bid_1,possible_bid_2,possible_bid_3,possible_bid_4,possible_bid_5,possible_bid_6,color_text,shape_text
79.0,2.0,2.0,0.0,4.0,4.0,461.9269767244987,1.0,1.0,part_1,,,,,,,,,,,,,magenta,hexagon
183.0,3.0,3.0,0.0,2.0,2.0,304.8904715087701,1.0,1.0,part_1,,,,,,,,,,,,,yellow,circle
48.0,1.0,1.0,0.0,1.0,1.0,317.453018076776,1.0,1.0,part_1,,,,,,,,,,,,,white,I
50.0,5.0,1.0,1.0,2.0,2.0,351.0132442934264,1.0,1.0,part_1,,,,,,,,,,,,,green,flipped triangle
398.0,4.0,4.0,0.0,3.0,3.0,329.4091236457461,1.0,1.0,part_1,,,,,,,,,,,,,blue,triangle
186.0,3.0,3.0,0.0,1.0,1.0,295.6858228608325,1.0,1.0,part_1,,,,,,,,,,,,,yellow,circle
218.0,7.0,3.0,1.0,4.0,4.0,341.6277822161646,1.0,1.0,part_1,,,,,,,,,,,,,orange,cross
0.0,5.0,0.0,1.0,2.0,2.0,353.3142905089335,1.0,1.0,part_1,,,,,,,,,,,,,green,flipped triangle
96.0,6.0,2.0,1.0,3.0,3.0,331.4550854320259,1.0,1.0,part_1,,,,,,,,,,,,,cyan,square
0.0,8.0,0.0,1.0,1.0,1.0,298.2040740771481,1.0,1.0,part_1,,,,,,,,,,,,,gray,diamond
67.0,1.0,1.0,0.0,3.0,3.0,342.5202994312712,1.0,1.0,part_1,,,,,,,,,,,,,white,I
191.0,3.0,3.0,0.0,4.0,4.0,332.046993646145,1.0,1.0,part_1,,,,,,,,,,,,,yellow,circle
218.0,7.0,3.0,1.0,3.0,3.0,332.5371020782768,1.0,1.0,part_1,,,,,,,,,,,,,orange,cross
102.0,2.0,2.0,0.0,2.0,2.0,323.0741560764727,1.0,1.0,part_1,,,,,,,,,,,,,magenta,hexagon
405.0,8.0,4.0,1.0,1.0,1.0,391.9019550776283,1.0,1.0,part_1,,,,,,,,,,,,,gray,diamond
402.0,4.0,4.0,0.0,2.0,2.0,323.0722644329944,1.0,1.0,part_1,,,,,,,,,,,,,blue,triangle
184.0,3.0,3.0,0.0,4.0,4.0,357.0457296464155,1.0,1.0,part_1,,,,,,,,,,,,,yellow,circle
205.0,7.0,3.0,1.0,4.0,4.0,380.3351454316725,1.0,1.0,part_1,,,,,,,,,,,,,orange,cross
102.0,6.0,2.0,1.0,1.0,1.0,404.1153250000207,1.0,1.0,part_1,,,,,,,,,,,,,cyan,square
213.0,7.0,3.0,1.0,4.0,4.0,372.284391645735,1.0,1.0,part_1,,,,,,,,,,,,,orange,cross
0.0,4.0,0.0,0.0,1.0,1.0,292.4803019377577,1.0,1.0,part_1,,,,,,,,,,,,,blue,triangle
50.0,5.0,1.0,1.0,4.0,4.0,371.6429399391927,1.0,1.0,part_1,,,,,,,,,,,,,green,flipped triangle
100.0,2.0,2.0,0.0,1.0,1.0,338.5492072939087,1.0,1.0,part_1,,,,,,,,,,,,,magenta,hexagon
225.0,7.0,3.0,1.0,1.0,1.0,327.9258138627483,1.0,1.0,part_1,,,,,,,,,,,,,orange,cross
29.0,1.0,1.0,0.0,3.0,3.0,395.1827422151837,1.0,1.0,part_1,,,,,,,,,,,,,white,I
385.0,8.0,4.0,1.0,2.0,2.0,418.9532022155617,1.0,1.0,part_1,,,,,,,,,,,,,gray,diamond
0.0,8.0,0.0,1.0,2.0,2.0,431.169945431975,1.0,1.0,part_1,,,,,,,,,,,,,gray,diamond
109.0,6.0,2.0,1.0,3.0,3.0,408.4350936464034,1.0,1.0,part_1,,,,,,,,,,,,,cyan,square
66.0,1.0,1.0,0.0,4.0,4.0,364.161806215634,1.0,1.0,part_1,,,,,,,,,,,,,white,I
27.0,1.0,1.0,0.0,4.0,4.0,353.4343678602454,1.0,1.0,part_1,,,,,,,,,,,,,white,I
0.0,7.0,0.0,1.0,1.0,1.0,377.4564695086155,1.0,1.0,part_1,,,,,,,,,,,,,orange,cross
76.0,6.0,2.0,1.0,2.0,2.0,310.8758726466476,1.0,1.0,part_1,,,,,,,,,,,,,cyan,square
0.0,4.0,0.0,0.0,1.0,1.0,299.7015434320929,1.0,1.0,part_1,,,,,,,,,,,,,blue,triangle
390.0,4.0,4.0,0.0,1.0,1.0,299.6846206442569,1.0,1.0,part_1,,,,,,,,,,,,,blue,triangle
0.0,2.0,0.0,0.0,3.0,3.0,380.1270317217131,1.0,1.0,part_1,,,,,,,,,,,,,magenta,hexagon
30.0,1.0,1.0,0.0,3.0,3.0,368.5556592154171,1.0,1.0,part_1,,,,,,,,,,,,,white,I
46.0,1.0,1.0,0.0,1.0,1.0,492.6278148614074,1.0,1.0,part_1,,,,,,,,,,,,,white,I
0.0,8.0,0.0,1.0,1.0,1.0,337.1657314310141,1.0,1.0,part_1,,,,,,,,,,,,,gray,diamond
66.0,5.0,1.0,1.0,3.0,3.0,368.9309458623029,1.0,1.0,part_1,,,,,,,,,,,,,green,flipped triangle
392.0,4.0,4.0,0.0,1.0,1.0,292.637953078156,1.0,1.0,part_1,,,,,,,,,,,,,blue,triangle
46.0,5.0,1.0,1.0,3.0,3.0,358.7214035087527,1.0,1.0,part_1,,,,,,,,,,,,,green,flipped triangle
415.0,8.0,4.0,1.0,4.0,4.0,327.5847778604657,1.0,1.0,part_1,,,,,,,,,,,,,gray,diamond
0.0,1.0,0.0,0.0,4.0,4.0,338.1179456446261,1.0,2.0,part_1,,,,,,,,,,,,,white,I
210.0,7.0,3.0,1.0,3.0,3.0,350.9289352932683,1.0,1.0,part_1,,,,,,,,,,,,,orange,cross
389.0,8.0,4.0,1.0,4.0,4.0,329.9526236460224,1.0,1.0,part_1,,,,,,,,,,,,,gray,diamond
117.0,2.0,2.0,0.0,4.0,4.0,340.5876007218467,1.0,1.0,part_1,,,,,,,,,,,,,magenta,hexagon
76.0,6.0,2.0,1.0,2.0,2.0,340.8163900003274,1.0,1.0,part_1,,,,,,,,,,,,,cyan,square
50.0,1.0,1.0,0.0,2.0,2.0,331.845889077158,1.0,1.0,part_1,,,,,,,,,,,,,white,I
421.0,8.0,4.0,1.0,4.0,4.0,376.8622412935656,1.0,1.0,part_1,,,,,,,,,,,,,gray,diamond
29.0,5.0,1.0,1.0,1.0,1.0,387.4789580768265,1.0,1.0,part_1,,,,,,,,,,,,,green,flipped triangle
77.0,6.0,2.0,1.0,3.0,3.0,422.3994142939773,1.0,1.0,part_1,,,,,,,,,,,,,cyan,square
48.0,5.0,1.0,1.0,3.0,3.0,366.29845207789907,1.0,1.0,part_1,,,,,,,,,,,,,green,flipped triangle
206.0,3.0,3.0,0.0,1.0,1.0,355.8079912945686,1.0,1.0,part_1,,,,,,,,,,,,,yellow,circle
66.0,5.0,1.0,1.0,3.0,3.0,377.7802672939288,1.0,1.0,part_1,,,,,,,,,,,,,green,flipped triangle
63.0,5.0,1.0,1.0,3.0,3.0,366.7824634321732,1.0,1.0,part_1,,,,,,,,,,,,,green,flipped triangle
0.0,1.0,0.0,0.0,1.0,1.0,312.5237582153204,1.0,1.0,part_1,,,,,,,,,,,,,white,I
0.0,5.0,0.0,1.0,4.0,4.0,313.2437509993906,1.0,1.0,part_1,,,,,,,,,,,,,green,flipped triangle
200.0,7.0,3.0,1.0,1.0,1.0,381.1715888605249,1.0,1.0,part_1,,,,,,,,,,,,,orange,cross
381.0,4.0,4.0,0.0,3.0,3.0,516.4064995078661,1.0,1.0,part_1,,,,,,,,,,,,,blue,triangle
405.0,4.0,4.0,0.0,4.0,4.0,369.7170770774391,1.0,1.0,part_1,,,,,,,,,,,,,blue,triangle
122.0,6.0,2.0,1.0,4.0,4.0,393.0736472921126,1.0,1.0,part_1,,,,,,,,,,,,,cyan,square
216.0,7.0,3.0,1.0,1.0,1.0,327.3403270777635,1.0,1.0,part_1,,,,,,,,,,,,,orange,cross
0.0,1.0,0.0,0.0,4.0,4.0,337.7253392918646,1.0,1.0,part_1,,,,,,,,,,,,,white,I
386.0,4.0,4.0,0.0,4.0,4.0,338.3277448610897,1.0,1.0,part_1,,,,,,,,,,,,,blue,triangle
205.0,7.0,3.0,1.0,3.0,3.0,374.6016176446574,1.0,1.0,part_1,,,,,,,,,,,,,orange,cross
86.0,6.0,2.0,1.0,1.0,1.0,295.5401242143125,1.0,1.0,part_1,,,,,,,,,,,,,cyan,square
72.0,5.0,1.0,1.0,4.0,4.0,341.0592486452515,1.0,1.0,part_1,,,,,,,,,,,,,green,flipped triangle
386.0,8.0,4.0,1.0,1.0,1.0,340.6966146449122,1.0,1.0,part_1,,,,,,,,,,,,,gray,diamond
188.0,3.0,3.0,0.0,4.0,4.0,410.4603192172362,1.0,1.0,part_1,,,,,,,,,,,,,yellow,circle
67.0,5.0,1.0,1.0,1.0,1.0,308.6332189996028,1.0,1.0,part_1,,,,,,,,,,,,,green,flipped triangle
414.0,8.0,4.0,1.0,4.0,4.0,332.9671136452816,1.0,1.0,part_1,,,,,,,,,,,,,gray,diamond
424.0,4.0,4.0,0.0,1.0,1.0,333.8740576455166,1.0,1.0,part_1,,,,,,,,,,,,,blue,triangle
401.0,4.0,4.0,0.0,2.0,2.0,377.7490779993968,1.0,1.0,part_1,,,,,,,,,,,,,blue,triangle
200.0,7.0,3.0,1.0,2.0,2.0,366.9543989399244,1.0,1.0,part_1,,,,,,,,,,,,,orange,cross
35.0,1.0,1.0,0.0,2.0,2.0,391.7053990771819,1.0,1.0,part_1,,,,,,,,,,,,,white,I
108.0,6.0,2.0,1.0,4.0,4.0,447.3800518608186,1.0,1.0,part_1,,,,,,,,,,,,,cyan,square
114.0,6.0,2.0,1.0,4.0,4.0,357.6773084314482,1.0,1.0,part_1,,,,,,,,,,,,,cyan,square
422.0,4.0,4.0,0.0,4.0,4.0,346.2166396457178,1.0,1.0,part_1,,,,,,,,,,,,,blue,triangle
35.0,1.0,1.0,0.0,4.0,4.0,427.1296885090123,1.0,1.0,part_1,,,,,,,,,,,,,white,I
0.0,6.0,0.0,1.0,4.0,4.0,359.1270506440196,1.0,1.0,part_1,,,,,,,,,,,,,cyan,square
56.0,1.0,1.0,0.0,4.0,4.0,313.9125586458249,1.0,1.0,part_1,,,,,,,,,,,,,white,I
30.0,5.0,1.0,1.0,1.0,1.0,428.0361090768565,1.0,1.0,part_1,,,,,,,,,,,,,green,flipped triangle
419.0,8.0,4.0,1.0,2.0,2.0,350.3466872316494,1.0,1.0,part_1,,,,,,,,,,,,,gray,diamond
0.0,3.0,0.0,0.0,2.0,2.0,396.4561536449764,1.0,1.0,part_1,,,,,,,,,,,,,yellow,circle
391.0,4.0,4.0,0.0,4.0,4.0,485.1617279382481,1.0,1.0,part_1,,,,,,,,,,,,,blue,triangle
97.0,2.0,2.0,0.0,2.0,2.0,386.3381794308225,1.0,1.0,part_1,,,,,,,,,,,,,magenta,hexagon
55.0,1.0,1.0,0.0,2.0,2.0,340.1759044318169,1.0,1.0,part_1,,,,,,,,,,,,,white,I
411.0,4.0,4.0,0.0,1.0,1.0,319.8933579988079,1.0,1.0,part_1,,,,,,,,,,,,,blue,triangle
215.0,7.0,3.0,1.0,4.0,4.0,375.9264436448575,1.0,1.0,part_1,,,,,,,,,,,,,orange,cross
390.0,8.0,4.0,1.0,2.0,2.0,354.7205767226842,1.0,1.0,part_1,,,,,,,,,,,,,gray,diamond
417.0,8.0,4.0,1.0,3.0,3.0,386.5553362938954,1.0,1.0,part_1,,,,,,,,,,,,,gray,diamond
48.0,1.0,1.0,0.0,2.0,2.0,376.4645720766566,1.0,1.0,part_1,,,,,,,,,,,,,white,I
0.0,2.0,0.0,0.0,2.0,2.0,332.765245644623,1.0,1.0,part_1,,,,,,,,,,,,,magenta,hexagon
0.0,5.0,0.0,1.0,2.0,2.0,333.9722142936807,1.0,1.0,part_1,,,,,,,,,,,,,green,flipped triangle
114.0,2.0,2.0,0.0,1.0,1.0,334.6472676439589,1.0,1.0,part_1,,,,,,,,,,,,,magenta,hexagon
399.0,8.0,4.0,1.0,4.0,4.0,423.9923136447032,1.0,1.0,part_1,,,,,,,,,,,,,gray,diamond
106.0,2.0,2.0,0.0,2.0,2.0,390.6351910773082,1.0,1.0,part_1,,,,,,,,,,,,,magenta,hexagon
90.0,2.0,2.0,0.0,1.0,1.0,334.9368684321234,1.0,1.0,part_1,,,,,,,,,,,,,magenta,hexagon
121.0,2.0,2.0,0.0,1.0,1.0,403.4828877229302,1.0,1.0,part_1,,,,,,,,,,,,,magenta,hexagon
0.0,8.0,0.0,1.0,2.0,2.0,324.6650994315132,1.0,1.0,part_1,,,,,,,,,,,,,gray,diamond
419.0,4.0,4.0,0.0,3.0,3.0,411.1973636463517,2.0,1.0,part_1,,,,,,,,,,,,,blue,triangle
28.0,1.0,1.0,0.0,1.0,1.0,311.4729326443921,2.0,1.0,part_1,,,,,,,,,,,,,white,I
379.0,8.0,4.0,1.0,1.0,1.0,389.8601394321304,2.0,1.0,part_1,,,,,,,,,,,,,gray,diamond
39.0,1.0,1.0,0.0,2.0,2.0,322.2679490772862,2.0,1.0,part_1,,,,,,,,,,,,,white,I
110.0,6.0,2.0,1.0,2.0,2.0,302.2896136444615,2.0,1.0,part_1,,,,,,,,,,,,,cyan,square
122.0,2.0,2.0,0.0,1.0,1.0,279.0079585083731,2.0,1.0,part_1,,,,,,,,,,,,,magenta,hexagon
72.0,1.0,1.0,0.0,1.0,1.0,314.3698704316193,2.0,1.0,part_1,,,,,,,,,,,,,white,I
123.0,2.0,2.0,0.0,3.0,3.0,347.1706625095976,2.0,1.0,part_1,,,,,,,,,,,,,magenta,hexagon
122.0,2.0,2.0,0.0,2.0,2.0,348.9649290768284,2.0,1.0,part_1,,,,,,,,,,,,,magenta,hexagon
0.0,7.0,0.0,1.0,4.0,4.0,426.2124085089454,2.0,1.0,part_1,,,,,,,,,,,,,orange,cross
28.0,5.0,1.0,1.0,3.0,3.0,326.7440610779886,2.0,1.0,part_1,,,,,,,,,,,,,green,flipped triangle
206.0,3.0,3.0,0.0,4.0,4.0,359.8113232164905,2.0,1.0,part_1,,,,,,,,,,,,,yellow,circle
383.0,8.0,4.0,1.0,3.0,3.0,383.6841795073269,2.0,1.0,part_1,,,,,,,,,,,,,gray,diamond
0.0,5.0,0.0,1.0,2.0,2.0,374.2745026465854,2.0,1.0,part_1,,,,,,,,,,,,,green,flipped triangle
86.0,6.0,2.0,1.0,4.0,4.0,395.0982932910847,2.0,1.0,part_1,,,,,,,,,,,,,cyan,square
185.0,7.0,3.0,1.0,3.0,3.0,361.7137126457237,2.0,1.0,part_1,,,,,,,,,,,,,orange,cross
210.0,3.0,3.0,0.0,3.0,3.0,386.6071462907712,2.0,1.0,part_1,,,,,,,,,,,,,yellow,circle
383.0,8.0,4.0,1.0,3.0,3.0,340.3536706464365,2.0,1.0,part_1,,,,,,,,,,,,,gray,diamond
0.0,6.0,0.0,1.0,4.0,4.0,354.5142697221308,2.0,1.0,part_1,,,,,,,,,,,,,cyan,square
219.0,7.0,3.0,1.0,4.0,4.0,331.1248537247593,2.0,1.0,part_1,,,,,,,,,,,,,orange,cross
208.0,7.0,3.0,1.0,1.0,1.0,353.5901478644518,2.0,1.0,part_1,,,,,,,,,,,,,orange,cross
420.0,4.0,4.0,0.0,1.0,1.0,332.6669649432006,2.0,1.0,part_1,,,,,,,,,,,,,blue,triangle
405.0,4.0,4.0,0.0,1.0,1.0,311.4243082127359,2.0,1.0,part_1,,,,,,,,,,,,,blue,triangle
216.0,3.0,3.0,0.0,1.0,1.0,323.2416032114997,2.0,1.0,part_1,,,,,,,,,,,,,yellow,circle
185.0,3.0,3.0,0.0,1.0,1.0,267.6120065079885,2.0,1.0,part_1,,,,,,,,,,,,,yellow,circle
417.0,4.0,4.0,0.0,4.0,4.0,391.9016662912327,2.0,1.0,part_1,,,,,,,,,,,,,blue,triangle
0.0,2.0,0.0,0.0,2.0,2.0,346.8522198636492,2.0,1.0,part_1,,,,,,,,,,,,,magenta,hexagon
26.0,5.0,1.0,1.0,1.0,1.0,438.5036067869805,2.0,1.0,part_1,,,,,,,,,,,,,green,flipped triangle
0.0,3.0,0.0,0.0,2.0,2.0,392.8183848656772,2.0,1.0,part_1,,,,,,,,,,,,,yellow,circle
219.0,3.0,3.0,0.0,1.0,1.0,349.1612487232487,2.0,1.0,part_1,,,,,,,,,,,,,yellow,circle
42.0,1.0,1.0,0.0,1.0,1.0,338.0584687220107,2.0,1.0,part_1,,,,,,,,,,,,,white,I
123.0,6.0,2.0,1.0,4.0,4.0,777.765378861659,2.0,1.0,part_1,,,,,,,,,,,,,cyan,square
66.0,1.0,1.0,0.0,2.0,2.0,360.5705060763284,2.0,1.0,part_1,,,,,,,,,,,,,white,I
0.0,7.0,0.0,1.0,3.0,3.0,440.1662576456147,2.0,1.0,part_1,,,,,,,,,,,,,orange,cross
66.0,1.0,1.0,0.0,3.0,3.0,339.9303035075718,2.0,1.0,part_1,,,,,,,,,,,,,white,I
114.0,2.0,2.0,0.0,3.0,3.0,397.3731580772437,2.0,1.0,part_1,,,,,,,,,,,,,magenta,hexagon
405.0,8.0,4.0,1.0,4.0,4.0,429.6036974301387,2.0,1.0,part_1,,,,,,,,,,,,,gray,diamond
0.0,6.0,0.0,1.0,4.0,4.0,442.5682778637565,2.0,1.0,part_1,,,,,,,,,,,,,cyan,square
381.0,8.0,4.0,1.0,1.0,1.0,386.6070762924209,2.0,1.0,part_1,,,,,,,,,,,,,gray,diamond
200.0,3.0,3.0,0.0,2.0,2.0,420.5487712897593,2.0,1.0,part_1,,,,,,,,,,,,,yellow,circle
31.0,1.0,1.0,0.0,3.0,3.0,545.6433134349936,2.0,1.0,part_1,,,,,,,,,,,,,white,I
196.0,3.0,3.0,0.0,1.0,1.0,354.6159555080521,2.0,1.0,part_1,,,,,,,,,,,,,yellow,circle
196.0,7.0,3.0,1.0,2.0,2.0,401.6796656469523,2.0,1.0,part_1,,,,,,,,,,,,,orange,cross
33.0,1.0,1.0,0.0,4.0,4.0,625.507336724695,2.0,1.0,part_1,,,,,,,,,,,,,white,I
82.0,2.0,2.0,0.0,4.0,4.0,366.7807377241843,2.0,1.0,part_1,,,,,,,,,,,,,magenta,hexagon
0.0,4.0,0.0,0.0,1.0,1.0,414.2632490002143,2.0,1.0,part_1,,,,,,,,,,,,,blue,triangle
26.0,1.0,1.0,0.0,1.0,1.0,402.231568863499,2.0,1.0,part_1,,,,,,,,,,,,,white,I
88.0,6.0,2.0,1.0,3.0,3.0,514.425497076445,2.0,1.0,part_1,,,,,,,,,,,,,cyan,square
222.0,7.0,3.0,1.0,4.0,4.0,426.4240894299291,2.0,1.0,part_1,,,,,,,,,,,,,orange,cross
184.0,7.0,3.0,1.0,3.0,3.0,392.8125640959479,2.0,1.0,part_1,,,,,,,,,,,,,orange,cross
42.0,5.0,1.0,1.0,1.0,1.0,325.5185269554204,2.0,1.0,part_1,,,,,,,,,,,,,green,flipped triangle
88.0,6.0,2.0,1.0,1.0,1.0,326.3820506617776,2.0,1.0,part_1,,,,,,,,,,,,,cyan,square
0.0,5.0,0.0,1.0,1.0,1.0,282.722744741477,2.0,1.0,part_1,,,,,,,,,,,,,green,flipped triangle
0.0,3.0,0.0,0.0,4.0,4.0,362.1600950973516,2.0,1.0,part_1,,,,,,,,,,,,,yellow,circle
30.0,5.0,1.0,1.0,1.0,1.0,293.7582567392383,2.0,1.0,part_1,,,,,,,,,,,,,green,flipped triangle
63.0,1.0,1.0,0.0,4.0,4.0,385.9826275074738,2.0,1.0,part_1,,,,,,,,,,,,,white,I
119.0,6.0,2.0,1.0,4.0,4.0,329.9857506463013,2.0,1.0,part_1,,,,,,,,,,,,,cyan,square
0.0,4.0,0.0,0.0,2.0,2.0,363.3629850774014,2.0,1.0,part_1,,,,,,,,,,,,,blue,triangle
388.0,8.0,4.0,1.0,3.0,3.0,364.8637356454856,2.0,1.0,part_1,,,,,,,,,,,,,gray,diamond
0.0,5.0,0.0,1.0,4.0,4.0,577.2782145104429,2.0,1.0,part_1,,,,,,,,,,,,,green,flipped triangle
58.0,1.0,1.0,0.0,3.0,3.0,353.0614107221481,2.0,1.0,part_1,,,,,,,,,,,,,white,I
90.0,2.0,2.0,0.0,4.0,4.0,285.6789230791037,2.0,1.0,part_1,,,,,,,,,,,,,magenta,hexagon
75.0,1.0,1.0,0.0,1.0,1.0,344.8117438601912,2.0,1.0,part_1,,,,,,,,,,,,,white,I
0.0,6.0,0.0,1.0,2.0,2.0,343.7801614345517,2.0,1.0,part_1,,,,,,,,,,,,,cyan,square
88.0,2.0,2.0,0.0,4.0,4.0,332.9252936455305,2.0,1.0,part_1,,,,,,,,,,,,,magenta,hexagon
222.0,3.0,3.0,0.0,1.0,1.0,357.7395444335707,2.0,1.0,part_1,,,,,,,,,,,,,yellow,circle
392.0,8.0,4.0,1.0,1.0,1.0,324.1302996466402,2.0,1.0,part_1,,,,,,,,,,,,,gray,diamond
206.0,7.0,3.0,1.0,4.0,4.0,390.8003412143443,2.0,1.0,part_1,,,,,,,,,,,,,orange,cross
97.0,6.0,2.0,1.0,4.0,4.0,437.8417440784687,2.0,1.0,part_1,,,,,,,,,,,,,cyan,square
0.0,1.0,0.0,0.0,3.0,3.0,380.9238618632662,2.0,1.0,part_1,,,,,,,,,,,,,white,I
42.0,5.0,1.0,1.0,2.0,2.0,394.2672612902242,2.0,1.0,part_1,,,,,,,,,,,,,green,flipped triangle
391.0,8.0,4.0,1.0,4.0,4.0,291.316603863379,2.0,1.0,part_1,,,,,,,,,,,,,gray,diamond
114.0,6.0,2.0,1.0,4.0,4.0,316.1396732903085,2.0,1.0,part_1,,,,,,,,,,,,,cyan,square
414.0,4.0,4.0,0.0,2.0,2.0,315.5398394301301,2.0,1.0,part_1,,,,,,,,,,,,,blue,triangle
399.0,8.0,4.0,1.0,3.0,3.0,326.5716495116066,2.0,1.0,part_1,,,,,,,,,,,,,gray,diamond
0.0,1.0,0.0,0.0,2.0,2.0,384.2614620771201,2.0,1.0,part_1,,,,,,,,,,,,,white,I
0.0,3.0,0.0,0.0,2.0,2.0,463.8456912143738,2.0,1.0,part_1,,,,,,,,,,,,,yellow,circle
83.0,2.0,2.0,0.0,4.0,4.0,305.9211050749582,2.0,1.0,part_1,,,,,,,,,,,,,magenta,hexagon
0.0,4.0,0.0,0.0,2.0,2.0,374.2260020771937,2.0,1.0,part_1,,,,,,,,,,,,,blue,triangle
422.0,8.0,4.0,1.0,3.0,3.0,351.8922106450191,2.0,1.0,part_1,,,,,,,,,,,,,gray,diamond
76.0,2.0,2.0,0.0,2.0,2.0,285.810186429444,2.0,1.0,part_1,,,,,,,,,,,,,magenta,hexagon
0.0,8.0,0.0,1.0,3.0,3.0,376.5485302137676,2.0,1.0,part_1,,,,,,,,,,,,,gray,diamond
220.0,3.0,3.0,0.0,3.0,3.0,331.9242004326952,2.0,1.0,part_1,,,,,,,,,,,,,yellow,circle
208.0,3.0,3.0,0.0,2.0,2.0,300.2782088660751,2.0,1.0,part_1,,,,,,,,,,,,,yellow,circle
198.0,7.0,3.0,1.0,2.0,2.0,390.7835572899785,2.0,1.0,part_1,,,,,,,,,,,,,orange,cross
106.0,6.0,2.0,1.0,2.0,2.0,389.6591192133201,2.0,1.0,part_1,,,,,,,,,,,,,cyan,square
79.0,6.0,2.0,1.0,3.0,3.0,524.9025470766355,2.0,1.0,part_1,,,,,,,,,,,,,cyan,square
414.0,4.0,4.0,0.0,3.0,3.0,369.0148312889505,2.0,1.0,part_1,,,,,,,,,,,,,blue,triangle
111.0,2.0,2.0,0.0,3.0,3.0,436.6174746464821,2.0,1.0,part_1,,,,,,,,,,,,,magenta,hexagon
0.0,2.0,0.0,0.0,4.0,4.0,335.3803142927063,2.0,1.0,part_1,,,,,,,,,,,,,magenta,hexagon
0.0,6.0,0.0,1.0,4.0,4.0,302.7060180756962,2.0,1.0,part_1,,,,,,,,,,,,,cyan,square
386.0,8.0,4.0,1.0,2.0,2.0,538.8581638653704,2.0,1.0,part_1,,,,,,,,,,,,,gray,diamond
65.0,1.0,1.0,0.0,2.0,2.0,394.8926614320953,2.0,1.0,part_1,,,,,,,,,,,,,white,I
114.0,6.0,2.0,1.0,3.0,3.0,370.7986690787948,2.0,1.0,part_1,,,,,,,,,,,,,cyan,square
0.0,7.0,0.0,1.0,4.0,4.0,439.617190429999,2.0,1.0,part_1,,,,,,,,,,,,,orange,cross
411.0,8.0,4.0,1.0,1.0,1.0,362.2216282165027,2.0,1.0,part_1,,,,,,,,,,,,,gray,diamond
86.0,6.0,2.0,1.0,1.0,1.0,328.9293322886806,2.0,1.0,part_1,,,,,,,,,,,,,cyan,square
184.0,3.0,3.0,0.0,1.0,1.0,318.1190388640971,2.0,1.0,part_1,,,,,,,,,,,,,yellow,circle
200.0,7.0,3.0,1.0,1.0,1.0,318.1819774290488,2.0,1.0,part_1,,,,,,,,,,,,,orange,cross
402.0,8.0,4.0,1.0,3.0,3.0,419.7268679381523,2.0,1.0,part_1,,,,,,,,,,,,,gray,diamond
383.0,4.0,4.0,0.0,3.0,3.0,331.4035518633318,3.0,1.0,part_1,,,,,,,,,,,,,blue,triangle
220.0,7.0,3.0,1.0,3.0,3.0,331.5713102128939,3.0,1.0,part_1,,,,,,,,,,,,,orange,cross
186.0,7.0,3.0,1.0,1.0,1.0,299.4143872165296,3.0,1.0,part_1,,,,,,,,,,,,,orange,cross
61.0,1.0,1.0,0.0,1.0,1.0,399.64657250675367,3.0,1.0,part_1,,,,,,,,,,,,,white,I
0.0,2.0,0.0,0.0,1.0,1.0,367.1982204323285,3.0,1.0,part_1,,,,,,,,,,,,,magenta,hexagon
40.0,1.0,1.0,0.0,4.0,4.0,345.0337882168242,3.0,1.0,part_1,,,,,,,,,,,,,white,I
414.0,8.0,4.0,1.0,4.0,4.0,346.1580596449494,3.0,1.0,part_1,,,,,,,,,,,,,gray,diamond
86.0,2.0,2.0,0.0,2.0,2.0,357.322707077401,3.0,1.0,part_1,,,,,,,,,,,,,magenta,hexagon
46.0,5.0,1.0,1.0,2.0,2.0,391.3351210139808,3.0,1.0,part_1,,,,,,,,,,,,,green,flipped triangle
178.0,3.0,3.0,0.0,4.0,4.0,325.0410277832998,3.0,1.0,part_1,,,,,,,,,,,,,yellow,circle
0.0,2.0,0.0,0.0,2.0,2.0,291.6201128646207,3.0,1.0,part_1,,,,,,,,,,,,,magenta,hexagon
82.0,6.0,2.0,1.0,4.0,4.0,302.7184156489966,3.0,1.0,part_1,,,,,,,,,,,,,cyan,square
223.0,3.0,3.0,0.0,4.0,4.0,371.3092204307031,3.0,1.0,part_1,,,,,,,,,,,,,yellow,circle
190.0,3.0,3.0,0.0,2.0,2.0,395.2724278606183,3.0,1.0,part_1,,,,,,,,,,,,,yellow,circle
210.0,3.0,3.0,0.0,3.0,3.0,349.1053718644252,3.0,1.0,part_1,,,,,,,,,,,,,yellow,circle
86.0,2.0,2.0,0.0,1.0,1.0,452.7584520765231,3.0,1.0,part_1,,,,,,,,,,,,,magenta,hexagon
191.0,7.0,3.0,1.0,3.0,3.0,340.2495840782649,3.0,1.0,part_1,,,,,,,,,,,,,orange,cross
178.0,7.0,3.0,1.0,4.0,4.0,576.6622780793114,3.0,1.0,part_1,,,,,,,,,,,,,orange,cross
121.0,6.0,2.0,1.0,1.0,1.0,533.5625700790843,3.0,1.0,part_1,,,,,,,,,,,,,cyan,square
403.0,8.0,4.0,1.0,3.0,3.0,363.3673122894834,3.0,1.0,part_1,,,,,,,,,,,,,gray,diamond
0.0,7.0,0.0,1.0,1.0,1.0,343.0705716455122,3.0,1.0,part_1,,,,,,,,,,,,,orange,cross
188.0,7.0,3.0,1.0,2.0,2.0,364.3616118642967,3.0,1.0,part_1,,,,,,,,,,,,,orange,cross
197.0,7.0,3.0,1.0,1.0,1.0,399.7878294321708,3.0,1.0,part_1,,,,,,,,,,,,,orange,cross
75.0,5.0,1.0,1.0,2.0,2.0,331.8274346456746,3.0,1.0,part_1,,,,,,,,,,,,,green,flipped triangle
113.0,6.0,2.0,1.0,3.0,3.0,579.8150392911339,3.0,1.0,part_1,,,,,,,,,,,,,cyan,square
210.0,3.0,3.0,0.0,3.0,3.0,479.412861433957,3.0,1.0,part_1,,,,,,,,,,,,,yellow,circle
80.0,6.0,2.0,1.0,1.0,1.0,300.3261827216192,3.0,1.0,part_1,,,,,,,,,,,,,cyan,square
402.0,4.0,4.0,0.0,2.0,2.0,333.9339142912649,3.0,1.0,part_1,,,,,,,,,,,,,blue,triangle
185.0,7.0,3.0,1.0,2.0,2.0,291.3859212130774,3.0,1.0,part_1,,,,,,,,,,,,,orange,cross
424.0,8.0,4.0,1.0,2.0,2.0,325.4064910797751,3.0,1.0,part_1,,,,,,,,,,,,,gray,diamond
200.0,3.0,3.0,0.0,2.0,2.0,325.050178431411,3.0,1.0,part_1,,,,,,,,,,,,,yellow,circle
0.0,3.0,0.0,0.0,3.0,3.0,346.7038194321503,3.0,1.0,part_1,,,,,,,,,,,,,yellow,circle
420.0,8.0,4.0,1.0,2.0,2.0,314.7662642913928,3.0,1.0,part_1,,,,,,,,,,,,,gray,diamond
109.0,2.0,2.0,0.0,3.0,3.0,348.3146160760952,3.0,1.0,part_1,,,,,,,,,,,,,magenta,hexagon
117.0,6.0,2.0,1.0,4.0,4.0,359.8622658646491,3.0,1.0,part_1,,,,,,,,,,,,,cyan,square
61.0,1.0,1.0,0.0,3.0,3.0,394.0271907231363,3.0,1.0,part_1,,,,,,,,,,,,,white,I
190.0,7.0,3.0,1.0,1.0,1.0,350.2313636454346,3.0,1.0,part_1,,,,,,,,,,,,,orange,cross
54.0,1.0,1.0,0.0,2.0,2.0,307.3241475103714,3.0,1.0,part_1,,,,,,,,,,,,,white,I
415.0,4.0,4.0,0.0,2.0,2.0,330.2191474322171,3.0,1.0,part_1,,,,,,,,,,,,,blue,triangle
99.0,2.0,2.0,0.0,1.0,1.0,307.3643529423862,3.0,1.0,part_1,,,,,,,,,,,,,magenta,hexagon
181.0,3.0,3.0,0.0,3.0,3.0,341.5806715056533,3.0,1.0,part_1,,,,,,,,,,,,,yellow,circle
385.0,4.0,4.0,0.0,3.0,3.0,318.2761742900766,3.0,1.0,part_1,,,,,,,,,,,,,blue,triangle
50.0,1.0,1.0,0.0,3.0,3.0,320.1989669978502,3.0,1.0,part_1,,,,,,,,,,,,,white,I
0.0,4.0,0.0,0.0,4.0,4.0,523.7499392169411,3.0,1.0,part_1,,,,,,,,,,,,,blue,triangle
424.0,4.0,4.0,0.0,1.0,1.0,333.8374644335999,3.0,1.0,part_1,,,,,,,,,,,,,blue,triangle
409.0,8.0,4.0,1.0,4.0,4.0,468.0270838616707,3.0,1.0,part_1,,,,,,,,,,,,,gray,diamond
182.0,7.0,3.0,1.0,2.0,2.0,333.9494928623026,3.0,1.0,part_1,,,,,,,,,,,,,orange,cross
382.0,8.0,4.0,1.0,1.0,1.0,254.74325143295567,3.0,1.0,part_1,,,,,,,,,,,,,gray,diamond
405.0,8.0,4.0,1.0,1.0,1.0,311.6051076431176,3.0,1.0,part_1,,,,,,,,,,,,,gray,diamond
378.0,8.0,4.0,1.0,2.0,2.0,280.3172242129221,3.0,1.0,part_1,,,,,,,,,,,,,gray,diamond
64.0,1.0,1.0,0.0,3.0,3.0,357.757207864779,3.0,1.0,part_1,,,,,,,,,,,,,white,I
183.0,7.0,3.0,1.0,2.0,2.0,369.8318289389135,3.0,1.0,part_1,,,,,,,,,,,,,orange,cross
0.0,5.0,0.0,1.0,4.0,4.0,381.8591764320445,3.0,1.0,part_1,,,,,,,,,,,,,green,flipped triangle
184.0,7.0,3.0,1.0,3.0,3.0,370.2270094290725,3.0,1.0,part_1,,,,,,,,,,,,,orange,cross
0.0,6.0,0.0,1.0,2.0,2.0,337.4777095086756,3.0,1.0,part_1,,,,,,,,,,,,,cyan,square
401.0,8.0,4.0,1.0,2.0,2.0,452.3632475065824,3.0,1.0,part_1,,,,,,,,,,,,,gray,diamond
0.0,8.0,0.0,1.0,4.0,4.0,328.9369379417621,3.0,2.0,part_1,,,,,,,,,,,,,gray,diamond
198.0,3.0,3.0,0.0,2.0,2.0,361.9937794319412,3.0,1.0,part_1,,,,,,,,,,,,,yellow,circle
182.0,3.0,3.0,0.0,1.0,1.0,284.2848287218658,3.0,1.0,part_1,,,,,,,,,,,,,yellow,circle
0.0,2.0,0.0,0.0,1.0,1.0,342.413613863755,3.0,1.0,part_1,,,,,,,,,,,,,magenta,hexagon
78.0,6.0,2.0,1.0,2.0,2.0,308.2175865056342,3.0,1.0,part_1,,,,,,,,,,,,,cyan,square
0.0,3.0,0.0,0.0,4.0,4.0,431.4586228647386,3.0,1.0,part_1,,,,,,,,,,,,,yellow,circle
210.0,7.0,3.0,1.0,2.0,2.0,308.3880785088695,3.0,1.0,part_1,,,,,,,,,,,,,orange,cross
399.0,4.0,4.0,0.0,3.0,3.0,365.5835144345474,3.0,1.0,part_1,,,,,,,,,,,,,blue,triangle
197.0,3.0,3.0,0.0,4.0,4.0,345.5186082901491,3.0,2.0,part_1,,,,,,,,,,,,,yellow,circle
210.0,7.0,3.0,1.0,1.0,1.0,435.0229038609541,3.0,1.0,part_1,,,,,,,,,,,,,orange,cross
104.0,6.0,2.0,1.0,1.0,1.0,345.5584352122969,3.0,1.0,part_1,,,,,,,,,,,,,cyan,square
0.0,3.0,0.0,0.0,1.0,1.0,367.9899668641155,3.0,1.0,part_1,,,,,,,,,,,,,yellow,circle
90.0,6.0,2.0,1.0,2.0,2.0,391.0419810781604,3.0,1.0,part_1,,,,,,,,,,,,,cyan,square
402.0,8.0,4.0,1.0,1.0,1.0,404.2507096455665,3.0,1.0,part_1,,,,,,,,,,,,,gray,diamond
88.0,2.0,2.0,0.0,3.0,3.0,348.4719385087373,3.0,2.0,part_1,,,,,,,,,,,,,magenta,hexagon
0.0,5.0,0.0,1.0,2.0,2.0,361.6529972896387,3.0,1.0,part_1,,,,,,,,,,,,,green,flipped triangle
206.0,7.0,3.0,1.0,3.0,3.0,416.5033626486547,3.0,1.0,part_1,,,,,,,,,,,,,orange,cross
27.0,5.0,1.0,1.0,3.0,3.0,383.8702580760582,3.0,1.0,part_1,,,,,,,,,,,,,green,flipped triangle
218.0,3.0,3.0,0.0,2.0,2.0,316.1381047211762,3.0,1.0,part_1,,,,,,,,,,,,,yellow,circle
0.0,7.0,0.0,1.0,4.0,4.0,396.4110975066433,3.0,1.0,part_1,,,,,,,,,,,,,orange,cross
108.0,2.0,2.0,0.0,3.0,3.0,373.7283052905695,3.0,1.0,part_1,,,,,,,,,,,,,magenta,hexagon
66.0,5.0,1.0,1.0,3.0,3.0,452.2054162880522,3.0,1.0,part_1,,,,,,,,,,,,,green,flipped triangle
58.0,5.0,1.0,1.0,1.0,1.0,476.1499347223434,3.0,1.0,part_1,,,,,,,,,,,,,green,flipped triangle
200.0,3.0,3.0,0.0,4.0,4.0,363.3564164301788,3.0,1.0,part_1,,,,,,,,,,,,,yellow,circle
117.0,6.0,2.0,1.0,2.0,2.0,431.8246098628151,3.0,1.0,part_1,,,,,,,,,,,,,cyan,square
398.0,8.0,4.0,1.0,3.0,3.0,455.2556905109668,3.0,1.0,part_1,,,,,,,,,,,,,gray,diamond
183.0,7.0,3.0,1.0,4.0,4.0,376.8106232928403,3.0,1.0,part_1,,,,,,,,,,,,,orange,cross
405.0,8.0,4.0,1.0,2.0,2.0,356.2356382935832,3.0,1.0,part_1,,,,,,,,,,,,,gray,diamond
58.0,5.0,1.0,1.0,1.0,1.0,422.7375264345028,3.0,1.0,part_1,,,,,,,,,,,,,green,flipped triangle
0.0,3.0,0.0,0.0,4.0,4.0,558.5423764314328,3.0,1.0,part_1,,,,,,,,,,,,,yellow,circle
0.0,6.0,0.0,1.0,4.0,4.0,581.7492878632038,3.0,1.0,part_1,,,,,,,,,,,,,cyan,square
46.0,1.0,1.0,0.0,4.0,4.0,414.584510075656,3.0,1.0,part_1,,,,,,,,,,,,,white,I
386.0,4.0,4.0,0.0,2.0,2.0,436.9803446425067,3.0,1.0,part_1,,,,,,,,,,,,,blue,triangle
185.0,3.0,3.0,0.0,3.0,3.0,426.1615582145168,3.0,1.0,part_1,,,,,,,,,,,,,yellow,circle
99.0,6.0,2.0,1.0,1.0,1.0,426.3010617250984,3.0,1.0,part_1,,,,,,,,,,,,,cyan,square
225.0,3.0,3.0,0.0,2.0,2.0,416.619797644671,3.0,1.0,part_1,,,,,,,,,,,,,yellow,circle
96.0,2.0,2.0,0.0,1.0,1.0,394.9178980765282,3.0,1.0,part_1,,,,,,,,,,,,,magenta,hexagon
90.0,6.0,2.0,1.0,2.0,2.0,540.693140723306,3.0,1.0,part_1,,,,,,,,,,,,,cyan,square
0.0,1.0,0.0,0.0,2.0,2.0,473.9176376460818,3.0,1.0,part_1,,,,,,,,,,,,,white,I
35.0,5.0,1.0,1.0,3.0,3.0,372.5354090784094,3.0,1.0,part_1,,,,,,,,,,,,,green,flipped triangle
110.0,2.0,2.0,0.0,4.0,4.0,384.1263479407644,3.0,1.0,part_1,,,,,,,,,,,,,magenta,hexagon
178.0,3.0,3.0,0.0,2.0,2.0,317.679721290915,3.0,1.0,part_1,,,,,,,,,,,,,yellow,circle
389.0,4.0,4.0,0.0,4.0,4.0,386.1818192890496,3.0,1.0,part_1,,,,,,,,,,,,,blue,triangle
78.0,2.0,2.0,0.0,2.0,2.0,341.1611380797694,3.0,1.0,part_1,,,,,,,,,,,,,magenta,hexagon
0.0,5.0,0.0,1.0,3.0,3.0,430.2954112135921,4.0,1.0,part_1,,,,,,,,,,,,,green,flipped triangle
73.0,1.0,1.0,0.0,1.0,1.0,329.5071585089317,4.0,1.0,part_1,,,,,,,,,,,,,white,I
77.0,2.0,2.0,0.0,4.0,4.0,307.0998058647092,4.0,1.0,part_1,,,,,,,,,,,,,magenta,hexagon
26.0,1.0,1.0,0.0,4.0,4.0,309.149285643798,4.0,1.0,part_1,,,,,,,,,,,,,white,I
391.0,4.0,4.0,0.0,3.0,3.0,365.8950347235077,4.0,1.0,part_1,,,,,,,,,,,,,blue,triangle
0.0,8.0,0.0,1.0,3.0,3.0,366.357108214288,4.0,1.0,part_1,,,,,,,,,,,,,gray,diamond
56.0,5.0,1.0,1.0,4.0,4.0,377.5904527210514,4.0,1.0,part_1,,,,,,,,,,,,,green,flipped triangle
86.0,2.0,2.0,0.0,2.0,2.0,389.1666130002704,4.0,1.0,part_1,,,,,,,,,,,,,magenta,hexagon
30.0,1.0,1.0,0.0,4.0,4.0,401.4106900795013,4.0,1.0,part_1,,,,,,,,,,,,,white,I
405.0,4.0,4.0,0.0,1.0,1.0,302.3441119985364,4.0,2.0,part_1,,,,,,,,,,,,,blue,triangle
113.0,2.0,2.0,0.0,2.0,2.0,324.0549488618853,4.0,1.0,part_1,,,,,,,,,,,,,magenta,hexagon
100.0,6.0,2.0,1.0,2.0,2.0,313.1298032130871,4.0,1.0,part_1,,,,,,,,,,,,,cyan,square
383.0,4.0,4.0,0.0,3.0,3.0,370.3979452911881,4.0,1.0,part_1,,,,,,,,,,,,,blue,triangle
58.0,1.0,1.0,0.0,3.0,3.0,381.9810604327358,4.0,1.0,part_1,,,,,,,,,,,,,white,I
104.0,2.0,2.0,0.0,1.0,1.0,360.1831244304776,4.0,1.0,part_1,,,,,,,,,,,,,magenta,hexagon
40.0,5.0,1.0,1.0,3.0,3.0,314.7757370752515,4.0,1.0,part_1,,,,,,,,,,,,,green,flipped triangle
64.0,5.0,1.0,1.0,2.0,2.0,361.6000418660405,4.0,1.0,part_1,,,,,,,,,,,,,green,flipped triangle
380.0,8.0,4.0,1.0,3.0,3.0,441.4970774305402,4.0,1.0,part_1,,,,,,,,,,,,,gray,diamond
0.0,8.0,0.0,1.0,3.0,3.0,373.2600902912963,4.0,1.0,part_1,,,,,,,,,,,,,gray,diamond
0.0,1.0,0.0,0.0,4.0,4.0,295.3292937236256,4.0,2.0,part_1,,,,,,,,,,,,,white,I
111.0,6.0,2.0,1.0,3.0,3.0,329.881269724865,4.0,1.0,part_1,,,,,,,,,,,,,cyan,square
117.0,2.0,2.0,0.0,3.0,3.0,342.7864707227854,4.0,1.0,part_1,,,,,,,,,,,,,magenta,hexagon
0.0,1.0,0.0,0.0,2.0,2.0,353.3821646451542,4.0,1.0,part_1,,,,,,,,,,,,,white,I
215.0,3.0,3.0,0.0,2.0,2.0,310.2164456468017,4.0,1.0,part_1,,,,,,,,,,,,,yellow,circle
0.0,6.0,0.0,1.0,4.0,4.0,378.7369056444731,4.0,2.0,part_1,,,,,,,,,,,,,cyan,square
106.0,2.0,2.0,0.0,3.0,3.0,523.9296296458633,4.0,1.0,part_1,,,,,,,,,,,,,magenta,hexagon
75.0,5.0,1.0,1.0,2.0,2.0,413.7447084322048,4.0,1.0,part_1,,,,,,,,,,,,,green,flipped triangle
421.0,4.0,4.0,0.0,4.0,4.0,390.5760894303967,4.0,1.0,part_1,,,,,,,,,,,,,blue,triangle
187.0,7.0,3.0,1.0,2.0,2.0,314.2335252923658,4.0,1.0,part_1,,,,,,,,,,,,,orange,cross
0.0,3.0,0.0,0.0,3.0,3.0,370.0944590782455,4.0,1.0,part_1,,,,,,,,,,,,,yellow,circle
0.0,5.0,0.0,1.0,2.0,2.0,302.3290326455026,4.0,1.0,part_1,,,,,,,,,,,,,green,flipped triangle
213.0,3.0,3.0,0.0,4.0,4.0,629.9068065673055,4.0,2.0,part_1,,,,,,,,,,,,,yellow,circle
0.0,3.0,0.0,0.0,1.0,1.0,563.8081122124277,4.0,1.0,part_1,,,,,,,,,,,,,yellow,circle
35.0,5.0,1.0,1.0,2.0,2.0,699.7831784319715,4.0,1.0,part_1,,,,,,,,,,,,,green,flipped triangle
0.0,4.0,0.0,0.0,4.0,4.0,586.8673125078203,4.0,1.0,part_1,,,,,,,,,,,,,blue,triangle
207.0,3.0,3.0,0.0,3.0,3.0,699.2653914312541,4.0,1.0,part_1,,,,,,,,,,,,,yellow,circle
76.0,2.0,2.0,0.0,2.0,2.0,845.5309722121456,4.0,1.0,part_1,,,,,,,,,,,,,magenta,hexagon
178.0,7.0,3.0,1.0,4.0,4.0,520.2370812148729,4.0,1.0,part_1,,,,,,,,,,,,,orange,cross
0.0,1.0,0.0,0.0,2.0,2.0,408.6802098609041,4.0,1.0,part_1,,,,,,,,,,,,,white,I
409.0,4.0,4.0,0.0,2.0,2.0,343.2283868642116,4.0,1.0,part_1,,,,,,,,,,,,,blue,triangle
104.0,6.0,2.0,1.0,2.0,2.0,308.9082092919852,4.0,2.0,part_1,,,,,,,,,,,,,cyan,square
0.0,7.0,0.0,1.0,2.0,2.0,389.2042074330675,4.0,1.0,part_1,,,,,,,,,,,,,orange,cross
26.0,5.0,1.0,1.0,4.0,4.0,332.9335279995575,4.0,1.0,part_1,,,,,,,,,,,,,green,flipped triangle
187.0,3.0,3.0,0.0,4.0,4.0,333.0218952905852,4.0,1.0,part_1,,,,,,,,,,,,,yellow,circle
0.0,4.0,0.0,0.0,1.0,1.0,367.6765770796919,4.0,1.0,part_1,,,,,,,,,,,,,blue,triangle
0.0,2.0,0.0,0.0,1.0,1.0,313.2993178624019,4.0,1.0,part_1,,,,,,,,,,,,,magenta,hexagon
0.0,7.0,0.0,1.0,3.0,3.0,381.2693098625459,4.0,2.0,part_1,,,,,,,,,,,,,orange,cross
403.0,4.0,4.0,0.0,1.0,1.0,382.3351482133148,4.0,1.0,part_1,,,,,,,,,,,,,blue,triangle
207.0,7.0,3.0,1.0,3.0,3.0,336.2765030797163,4.0,1.0,part_1,,,,,,,,,,,,,orange,cross
39.0,5.0,1.0,1.0,4.0,4.0,370.2449852171412,4.0,1.0,part_1,,,,,,,,,,,,,green,flipped triangle
0.0,4.0,0.0,0.0,2.0,2.0,483.9248442149255,4.0,1.0,part_1,,,,,,,,,,,,,blue,triangle
0.0,6.0,0.0,1.0,2.0,2.0,461.7912574321963,4.0,1.0,part_1,,,,,,,,,,,,,cyan,square
0.0,7.0,0.0,1.0,3.0,3.0,304.4201740776771,4.0,2.0,part_1,,,,,,,,,,,,,orange,cross
48.0,5.0,1.0,1.0,2.0,2.0,306.4454807208676,4.0,1.0,part_1,,,,,,,,,,,,,green,flipped triangle
61.0,5.0,1.0,1.0,4.0,4.0,396.8294562146184,4.0,1.0,part_1,,,,,,,,,,,,,green,flipped triangle
388.0,4.0,4.0,0.0,2.0,2.0,297.4296100765059,4.0,1.0,part_1,,,,,,,,,,,,,blue,triangle
106.0,6.0,2.0,1.0,3.0,3.0,351.4115528632828,4.0,1.0,part_1,,,,,,,,,,,,,cyan,square
65.0,5.0,1.0,1.0,1.0,1.0,521.5541742145433,4.0,1.0,part_1,,,,,,,,,,,,,green,flipped triangle
383.0,8.0,4.0,1.0,1.0,1.0,747.8804097227112,4.0,1.0,part_1,,,,,,,,,,,,,gray,diamond
0.0,7.0,0.0,1.0,2.0,2.0,364.9093004314636,4.0,1.0,part_1,,,,,,,,,,,,,orange,cross
223.0,7.0,3.0,1.0,1.0,1.0,320.3207942169683,4.0,1.0,part_1,,,,,,,,,,,,,orange,cross
119.0,2.0,2.0,0.0,3.0,3.0,344.9422298654099,4.0,1.0,part_1,,,,,,,,,,,,,magenta,hexagon
50.0,5.0,1.0,1.0,4.0,4.0,389.1835545073263,4.0,1.0,part_1,,,,,,,,,,,,,green,flipped triangle
181.0,7.0,3.0,1.0,2.0,2.0,400.9845567234151,4.0,1.0,part_1,,,,,,,,,,,,,orange,cross
0.0,6.0,0.0,1.0,1.0,1.0,559.5373970791115,4.0,1.0,part_1,,,,,,,,,,,,,cyan,square
106.0,6.0,2.0,1.0,1.0,1.0,458.6698944331147,4.0,1.0,part_1,,,,,,,,,,,,,cyan,square
205.0,3.0,3.0,0.0,3.0,3.0,402.2455339436419,4.0,1.0,part_1,,,,,,,,,,,,,yellow,circle
31.0,5.0,1.0,1.0,2.0,2.0,427.2107617216534,4.0,1.0,part_1,,,,,,,,,,,,,green,flipped triangle
122.0,6.0,2.0,1.0,3.0,3.0,471.2034205113014,4.0,1.0,part_1,,,,,,,,,,,,,cyan,square
73.0,5.0,1.0,1.0,4.0,4.0,562.0737470781023,4.0,1.0,part_1,,,,,,,,,,,,,green,flipped triangle
42.0,1.0,1.0,0.0,1.0,1.0,708.7405525089707,4.0,1.0,part_1,,,,,,,,,,,,,white,I
114.0,2.0,2.0,0.0,4.0,4.0,518.4580606473901,4.0,1.0,part_1,,,,,,,,,,,,,magenta,hexagon
0.0,1.0,0.0,0.0,1.0,1.0,362.6077045082638,4.0,1.0,part_1,,,,,,,,,,,,,white,I
382.0,4.0,4.0,0.0,3.0,3.0,339.4950832916947,4.0,1.0,part_1,,,,,,,,,,,,,blue,triangle
0.0,2.0,0.0,0.0,2.0,2.0,329.5578580764413,4.0,1.0,part_1,,,,,,,,,,,,,magenta,hexagon
0.0,2.0,0.0,0.0,3.0,3.0,329.141373076709,4.0,1.0,part_1,,,,,,,,,,,,,magenta,hexagon
383.0,4.0,4.0,0.0,4.0,4.0,341.5317285071069,4.0,1.0,part_1,,,,,,,,,,,,,blue,triangle
33.0,5.0,1.0,1.0,1.0,1.0,499.1830266444594,4.0,1.0,part_1,,,,,,,,,,,,,green,flipped triangle
61.0,5.0,1.0,1.0,4.0,4.0,499.39618800272,4.0,1.0,part_1,,,,,,,,,,,,,green,flipped triangle
424.0,8.0,4.0,1.0,2.0,2.0,411.1127002142893,4.0,1.0,part_1,,,,,,,,,,,,,gray,diamond
0.0,4.0,0.0,0.0,4.0,4.0,569.8872626453522,4.0,1.0,part_1,,,,,,,,,,,,,blue,triangle
54.0,5.0,1.0,1.0,2.0,2.0,557.5202232903393,4.0,1.0,part_1,,,,,,,,,,,,,green,flipped triangle
183.0,3.0,3.0,0.0,3.0,3.0,322.5402585085248,4.0,2.0,part_1,,,,,,,,,,,,,yellow,circle
50.0,1.0,1.0,0.0,2.0,2.0,469.7570686439576,4.0,1.0,part_1,,,,,,,,,,,,,white,I
83.0,6.0,2.0,1.0,1.0,1.0,729.0327355076442,4.0,1.0,part_1,,,,,,,,,,,,,cyan,square
218.0,3.0,3.0,0.0,1.0,1.0,346.5623854317528,4.0,1.0,part_1,,,,,,,,,,,,,yellow,circle
399.0,4.0,4.0,0.0,4.0,4.0,357.7482090768171,4.0,1.0,part_1,,,,,,,,,,,,,blue,triangle
405.0,4.0,4.0,0.0,2.0,2.0,370.4113742132904,4.0,1.0,part_1,,,,,,,,,,,,,blue,triangle
0.0,8.0,0.0,1.0,1.0,1.0,719.0691266441718,4.0,1.0,part_1,,,,,,,,,,,,,gray,diamond
0.0,8.0,0.0,1.0,2.0,2.0,360.0667154314578,4.0,1.0,part_1,,,,,,,,,,,,,gray,diamond
378.0,4.0,4.0,0.0,4.0,4.0,382.7564750754391,4.0,1.0,part_1,,,,,,,,,,,,,blue,triangle
55.0,5.0,1.0,1.0,4.0,4.0,462.8866565071803,4.0,1.0,part_1,,,,,,,,,,,,,green,flipped triangle
104.0,2.0,2.0,0.0,4.0,4.0,271.7690728641173,4.0,2.0,part_1,,,,,,,,,,,,,magenta,hexagon
391.0,8.0,4.0,1.0,4.0,4.0,318.637304862932,4.0,1.0,part_1,,,,,,,,,,,,,gray,diamond
379.0,4.0,4.0,0.0,1.0,1.0,431.5904606446565,4.0,1.0,part_1,,,,,,,,,,,,,blue,triangle
380.0,4.0,4.0,0.0,2.0,2.0,375.170099290699,4.0,1.0,part_1,,,,,,,,,,,,,blue,triangle
80.0,2.0,2.0,0.0,1.0,1.0,374.7866172125214,4.0,1.0,part_1,,,,,,,,,,,,,magenta,hexagon
205.0,3.0,3.0,0.0,3.0,3.0,388.2265046486282,4.0,1.0,part_1,,,,,,,,,,,,,yellow,circle
106.0,2.0,2.0,0.0,3.0,3.0,522.6989522925578,4.0,1.0,part_1,,,,,,,,,,,,,magenta,hexagon
75.0,1.0,1.0,0.0,2.0,2.0,906.0756702165236,4.0,1.0,part_1,,,,,,,,,,,,,white,I
0.0,3.0,3.0,0.0,5.0,5.0,392.2915305847709,1.0,0.0,part_2,go,250.0,250.0,1.0,,,,,,,,,yellow,circle
0.0,4.0,4.0,0.0,6.0,6.0,359.2464567991555,1.0,0.0,part_2,go,250.0,250.0,1.0,,,,,,,,,blue,triangle
0.0,5.0,1.0,1.0,6.0,6.0,579.664318189316,1.0,0.0,part_2,stop,250.0,250.0,3.0,,,,,,,,,green,flipped triangle
0.0,1.0,1.0,0.0,5.0,5.0,360.4611559894692,1.0,0.0,part_2,go,250.0,200.0,1.0,,,,,,,,,white,I
0.0,2.0,2.0,0.0,5.0,5.0,406.6862999898148,1.0,0.0,part_2,go,250.0,200.0,1.0,,,,,,,,,magenta,hexagon
0.0,5.0,1.0,1.0,6.0,6.0,305.2758961894142,1.0,0.0,part_2,stop,250.0,200.0,3.0,,,,,,,,,green,flipped triangle
0.0,1.0,1.0,0.0,6.0,6.0,374.2632301909907,1.0,0.0,part_2,go,250.0,150.0,1.0,,,,,,,,,white,I
0.0,8.0,4.0,1.0,5.0,5.0,354.2579627865052,1.0,0.0,part_2,stop,250.0,150.0,3.0,,,,,,,,,gray,diamond
0.0,1.0,1.0,0.0,6.0,6.0,353.3449953829404,1.0,0.0,part_2,go,200.0,150.0,1.0,,,,,,,,,white,I
0.0,8.0,4.0,1.0,5.0,5.0,423.0969570016896,1.0,0.0,part_2,stop,200.0,150.0,3.0,,,,,,,,,gray,diamond
0.0,2.0,2.0,0.0,5.0,5.0,401.0722193852416,1.0,0.0,part_2,go,150.0,150.0,1.0,,,,,,,,,magenta,hexagon
0.0,4.0,4.0,0.0,6.0,6.0,299.6835525809729,1.0,0.0,part_2,go,150.0,150.0,1.0,,,,,,,,,blue,triangle
0.0,2.0,2.0,0.0,6.0,6.0,379.4751867862942,1.0,0.0,part_2,go,150.0,150.0,1.0,,,,,,,,,magenta,hexagon
0.0,5.0,1.0,1.0,6.0,6.0,369.5545811897318,1.0,0.0,part_2,stop,150.0,150.0,3.0,,,,,,,,,green,flipped triangle
0.0,1.0,1.0,0.0,6.0,6.0,380.9053257864434,1.0,0.0,part_2,go,150.0,100.0,1.0,,,,,,,,,white,I
0.0,8.0,4.0,1.0,6.0,6.0,347.2271141872625,1.0,0.0,part_2,go,150.0,100.0,1.0,,,,,,,,,gray,diamond
0.0,3.0,3.0,0.0,5.0,5.0,338.8008031979552,1.0,0.0,part_2,go,150.0,100.0,1.0,,,,,,,,,yellow,circle
0.0,5.0,1.0,1.0,6.0,6.0,485.6626679866167,1.0,0.0,part_2,stop,150.0,100.0,3.0,,,,,,,,,green,flipped triangle
0.0,7.0,3.0,1.0,6.0,6.0,362.4671687903174,1.0,0.0,part_2,go,150.0,50.0,1.0,,,,,,,,,orange,cross
0.0,3.0,3.0,0.0,5.0,5.0,305.9930616036581,1.0,0.0,part_2,go,150.0,50.0,1.0,,,,,,,,,yellow,circle
0.0,1.0,1.0,0.0,6.0,6.0,396.7449959891382,1.0,0.0,part_2,go,150.0,50.0,1.0,,,,,,,,,white,I
0.0,5.0,1.0,1.0,6.0,6.0,343.208985595993,1.0,0.0,part_2,go,150.0,50.0,1.0,,,,,,,,,green,flipped triangle
0.0,2.0,2.0,0.0,6.0,6.0,341.8453185840917,1.0,0.0,part_2,go,150.0,50.0,1.0,,,,,,,,,magenta,hexagon
0.0,8.0,4.0,1.0,5.0,5.0,378.3688038020045,1.0,0.0,part_2,stop,150.0,50.0,3.0,,,,,,,,,gray,diamond
0.0,1.0,1.0,0.0,6.0,6.0,300.2281439876242,1.0,0.0,part_2,go,100.0,50.0,1.0,,,,,,,,,white,I
0.0,6.0,2.0,1.0,6.0,6.0,401.3810903816193,1.0,0.0,part_2,stop,100.0,50.0,3.0,,,,,,,,,cyan,square
0.0,2.0,2.0,0.0,5.0,5.0,347.3910225948202,1.0,0.0,part_2,go,100.0,0.0,1.0,,,,,,,,,magenta,hexagon
0.0,6.0,2.0,1.0,5.0,5.0,550.7722855836619,1.0,0.0,part_2,stop,100.0,0.0,3.0,,,,,,,,,cyan,square
0.0,5.0,1.0,1.0,5.0,5.0,369.9663883926405,1.0,0.0,part_2,go,50.0,0.0,1.0,,,,,,,,,green,flipped triangle
0.0,7.0,3.0,1.0,5.0,5.0,370.4688961879583,1.0,0.0,part_2,stop,50.0,0.0,3.0,,,,,,,,,orange,cross
0.0,7.0,3.0,1.0,6.0,6.0,461.3696390006225,1.0,0.0,part_2,stop,0.0,0.0,3.0,,,,,,,,,orange,cross
0.0,4.0,4.0,0.0,5.0,5.0,328.9956578009878,1.0,0.0,part_2,go,0.0,0.0,1.0,,,,,,,,,blue,triangle
0.0,7.0,3.0,1.0,5.0,5.0,543.5244141917792,1.0,0.0,part_2,go,0.0,0.0,1.0,,,,,,,,,orange,cross
0.0,1.0,1.0,0.0,6.0,6.0,542.2166529897368,1.0,0.0,part_2,go,0.0,0.0,1.0,,,,,,,,,white,I
0.0,7.0,3.0,1.0,6.0,6.0,397.7189323813945,1.0,0.0,part_2,stop,0.0,0.0,3.0,,,,,,,,,orange,cross
0.0,5.0,1.0,1.0,6.0,6.0,332.2350151902355,1.0,0.0,part_2,stop,0.0,0.0,3.0,,,,,,,,,green,flipped triangle
0.0,8.0,4.0,1.0,6.0,6.0,384.684120395832,2.0,0.0,part_2,stop,0.0,0.0,3.0,,,,,,,,,gray,diamond
0.0,1.0,1.0,0.0,6.0,6.0,317.4867205925693,2.0,0.0,part_2,go,0.0,0.0,1.0,,,,,,,,,white,I
0.0,3.0,3.0,0.0,6.0,6.0,430.8080413975403,2.0,0.0,part_2,go,0.0,0.0,1.0,,,,,,,,,yellow,circle
0.0,1.0,1.0,0.0,5.0,5.0,331.7668045929167,2.0,0.0,part_2,go,0.0,0.0,1.0,,,,,,,,,white,I
0.0,5.0,1.0,1.0,6.0,6.0,366.6974935840699,2.0,0.0,part_2,go,0.0,0.0,1.0,,,,,,,,,green,flipped triangle
0.0,4.0,4.0,0.0,6.0,6.0,342.7145719870168,2.0,0.0,part_2,go,0.0,0.0,1.0,,,,,,,,,blue,triangle
0.0,6.0,2.0,1.0,5.0,5.0,266.6745085844013,2.0,0.0,part_2,go,0.0,0.0,1.0,,,,,,,,,cyan,square
0.0,5.0,1.0,1.0,6.0,6.0,312.1473056053219,2.0,0.0,part_2,go,0.0,0.0,1.0,,,,,,,,,green,flipped triangle
0.0,6.0,2.0,1.0,5.0,5.0,255.3202895942377,2.0,0.0,part_2,stop,0.0,0.0,3.0,,,,,,,,,cyan,square
0.0,3.0,3.0,0.0,6.0,6.0,290.72945920052,2.0,0.0,part_2,go,0.0,0.0,1.0,,,,,,,,,yellow,circle
0.0,1.0,1.0,0.0,5.0,5.0,280.0121045984269,2.0,0.0,part_2,go,0.0,0.0,1.0,,,,,,,,,white,I
0.0,8.0,4.0,1.0,5.0,5.0,337.1393835950584,2.0,0.0,part_2,stop,0.0,0.0,3.0,,,,,,,,,gray,diamond
0.0,2.0,2.0,0.0,6.0,6.0,270.1688193956215,2.0,0.0,part_2,go,0.0,0.0,1.0,,,,,,,,,magenta,hexagon
0.0,7.0,3.0,1.0,5.0,5.0,248.7595293932827,2.0,0.0,part_2,stop,0.0,0.0,3.0,,,,,,,,,orange,cross
0.0,1.0,1.0,0.0,5.0,5.0,644.7730739891995,2.0,0.0,part_2,go,0.0,0.0,1.0,,,,,,,,,white,I
0.0,7.0,3.0,1.0,5.0,5.0,341.9325998002023,2.0,0.0,part_2,stop,0.0,0.0,3.0,,,,,,,,,orange,cross
0.0,6.0,2.0,1.0,5.0,5.0,308.0019365952466,2.0,0.0,part_2,stop,0.0,0.0,3.0,,,,,,,,,cyan,square
0.0,3.0,3.0,0.0,6.0,6.0,431.7793214067933,2.0,0.0,part_2,go,0.0,0.0,1.0,,,,,,,,,yellow,circle
0.0,4.0,4.0,0.0,6.0,6.0,421.4987233826832,2.0,0.0,part_2,go,0.0,0.0,1.0,,,,,,,,,blue,triangle
0.0,8.0,4.0,1.0,5.0,5.0,321.0821675820625,2.0,0.0,part_2,go,0.0,0.0,1.0,,,,,,,,,gray,diamond
0.0,2.0,2.0,0.0,6.0,6.0,332.779032203689,2.0,0.0,part_2,go,0.0,0.0,1.0,,,,,,,,,magenta,hexagon
0.0,4.0,4.0,0.0,5.0,5.0,380.3575121892208,2.0,0.0,part_2,go,0.0,0.0,1.0,,,,,,,,,blue,triangle
0.0,7.0,3.0,1.0,5.0,5.0,482.6107068001875,2.0,0.0,part_2,stop,0.0,0.0,3.0,,,,,,,,,orange,cross
0.0,3.0,3.0,0.0,5.0,5.0,358.567053990555,2.0,0.0,part_2,go,0.0,0.0,1.0,,,,,,,,,yellow,circle
0.0,5.0,1.0,1.0,6.0,6.0,302.2187868009496,2.0,0.0,part_2,stop,0.0,0.0,3.0,,,,,,,,,green,flipped triangle
0.0,1.0,1.0,0.0,6.0,6.0,473.9336391903634,2.0,0.0,part_2,go,0.0,0.0,1.0,,,,,,,,,white,I
0.0,4.0,4.0,0.0,5.0,5.0,327.4215081983129,2.0,0.0,part_2,go,0.0,0.0,1.0,,,,,,,,,blue,triangle
0.0,7.0,3.0,1.0,5.0,0.0,0.0,2.0,0.0,part_2,stop,0.0,0.0,4.0,,,,,,,,,orange,cross
0.0,1.0,1.0,0.0,6.0,6.0,316.9649921910604,2.0,0.0,part_2,go,50.0,0.0,1.0,,,,,,,,,white,I
0.0,2.0,2.0,0.0,5.0,5.0,307.9824413835013,2.0,0.0,part_2,go,50.0,0.0,1.0,,,,,,,,,magenta,hexagon
0.0,4.0,4.0,0.0,6.0,6.0,342.6409025960311,2.0,0.0,part_2,go,50.0,0.0,1.0,,,,,,,,,blue,triangle
0.0,4.0,4.0,0.0,6.0,6.0,354.4953817872738,2.0,0.0,part_2,go,50.0,0.0,1.0,,,,,,,,,blue,triangle
0.0,7.0,3.0,1.0,5.0,5.0,310.9541473859281,2.0,0.0,part_2,stop,50.0,0.0,3.0,,,,,,,,,orange,cross
0.0,4.0,4.0,0.0,6.0,6.0,254.66205579868978,2.0,0.0,part_2,go,0.0,0.0,1.0,,,,,,,,,blue,triangle
0.0,2.0,2.0,0.0,6.0,6.0,389.548800594639,2.0,0.0,part_2,go,0.0,0.0,1.0,,,,,,,,,magenta,hexagon
0.0,7.0,3.0,1.0,5.0,5.0,300.7795227895258,2.0,0.0,part_2,stop,0.0,0.0,3.0,,,,,,,,,orange,cross
0.0,2.0,2.0,0.0,6.0,6.0,375.1920715840242,3.0,0.0,part_2,go,0.0,0.0,1.0,,,,,,,,,magenta,hexagon
0.0,7.0,3.0,1.0,5.0,5.0,308.6802578000061,3.0,0.0,part_2,go,0.0,0.0,1.0,,,,,,,,,orange,cross
0.0,3.0,3.0,0.0,6.0,6.0,286.503187395283,3.0,0.0,part_2,go,0.0,0.0,1.0,,,,,,,,,yellow,circle
0.0,7.0,3.0,1.0,6.0,6.0,445.5708365967439,3.0,0.0,part_2,stop,0.0,0.0,3.0,,,,,,,,,orange,cross
0.0,5.0,1.0,1.0,5.0,0.0,0.0,3.0,0.0,part_2,stop,0.0,0.0,4.0,,,,,,,,,green,flipped triangle
0.0,1.0,1.0,0.0,5.0,5.0,424.9561340002401,3.0,0.0,part_2,go,50.0,0.0,1.0,,,,,,,,,white,I
0.0,8.0,4.0,1.0,6.0,6.0,505.34414998764987,3.0,0.0,part_2,go,50.0,0.0,1.0,,,,,,,,,gray,diamond
0.0,8.0,4.0,1.0,6.0,0.0,0.0,3.0,0.0,part_2,stop,50.0,0.0,4.0,,,,,,,,,gray,diamond
0.0,6.0,2.0,1.0,6.0,0.0,0.0,3.0,0.0,part_2,stop,50.0,50.0,4.0,,,,,,,,,cyan,square
0.0,4.0,4.0,0.0,5.0,5.0,372.340825786523,3.0,0.0,part_2,go,50.0,100.0,1.0,,,,,,,,,blue,triangle
0.0,2.0,2.0,0.0,6.0,6.0,328.8167883838468,3.0,0.0,part_2,go,50.0,100.0,1.0,,,,,,,,,magenta,hexagon
0.0,7.0,3.0,1.0,5.0,0.0,0.0,3.0,0.0,part_2,stop,50.0,100.0,4.0,,,,,,,,,orange,cross
0.0,5.0,1.0,1.0,5.0,0.0,0.0,3.0,0.0,part_2,stop,100.0,100.0,4.0,,,,,,,,,green,flipped triangle
0.0,3.0,3.0,0.0,5.0,5.0,442.6776085820165,3.0,0.0,part_2,go,150.0,100.0,1.0,,,,,,,,,yellow,circle
0.0,2.0,2.0,0.0,5.0,5.0,420.8655057991564,3.0,0.0,part_2,go,150.0,100.0,1.0,,,,,,,,,magenta,hexagon
0.0,4.0,4.0,0.0,6.0,6.0,534.1866165981628,3.0,0.0,part_2,go,150.0,100.0,1.0,,,,,,,,,blue,triangle
0.0,5.0,1.0,1.0,5.0,5.0,410.8875087986234,3.0,0.0,part_2,stop,150.0,100.0,3.0,,,,,,,,,green,flipped triangle
0.0,8.0,4.0,1.0,5.0,5.0,456.6248681803699,3.0,0.0,part_2,go,100.0,100.0,1.0,,,,,,,,,gray,diamond
0.0,2.0,2.0,0.0,5.0,5.0,458.8768947869539,3.0,0.0,part_2,go,100.0,100.0,1.0,,,,,,,,,magenta,hexagon
0.0,6.0,2.0,1.0,6.0,0.0,0.0,3.0,0.0,part_2,stop,100.0,100.0,4.0,,,,,,,,,cyan,square
0.0,2.0,2.0,0.0,5.0,5.0,391.9394177901267,3.0,0.0,part_2,go,100.0,150.0,1.0,,,,,,,,,magenta,hexagon
0.0,7.0,3.0,1.0,5.0,0.0,0.0,3.0,0.0,part_2,stop,100.0,150.0,4.0,,,,,,,,,orange,cross
0.0,1.0,1.0,0.0,5.0,5.0,404.8993901888025,3.0,0.0,part_2,go,150.0,150.0,1.0,,,,,,,,,white,I
0.0,5.0,1.0,1.0,5.0,5.0,394.3755089894694,3.0,0.0,part_2,stop,150.0,150.0,3.0,,,,,,,,,green,flipped triangle
0.0,1.0,1.0,0.0,5.0,5.0,462.7074293821351,3.0,0.0,part_2,go,100.0,150.0,1.0,,,,,,,,,white,I
0.0,7.0,3.0,1.0,5.0,0.0,0.0,3.0,0.0,part_2,stop,100.0,150.0,4.0,,,,,,,,,orange,cross
0.0,3.0,3.0,0.0,5.0,5.0,544.6296007867204,3.0,0.0,part_2,go,150.0,150.0,1.0,,,,,,,,,yellow,circle
0.0,2.0,2.0,0.0,6.0,6.0,387.8743006061995,3.0,0.0,part_2,go,150.0,150.0,1.0,,,,,,,,,magenta,hexagon
0.0,2.0,2.0,0.0,6.0,6.0,410.3094372003397,3.0,0.0,part_2,go,150.0,150.0,1.0,,,,,,,,,magenta,hexagon
0.0,5.0,1.0,1.0,6.0,0.0,0.0,3.0,0.0,part_2,stop,150.0,150.0,4.0,,,,,,,,,green,flipped triangle
0.0,4.0,4.0,0.0,6.0,6.0,455.9371299910708,3.0,0.0,part_2,go,150.0,200.0,1.0,,,,,,,,,blue,triangle
0.0,4.0,4.0,0.0,5.0,5.0,458.6903053968854,3.0,0.0,part_2,go,150.0,200.0,1.0,,,,,,,,,blue,triangle
0.0,3.0,3.0,0.0,6.0,6.0,515.589613787597,3.0,0.0,part_2,go,150.0,200.0,1.0,,,,,,,,,yellow,circle
0.0,5.0,1.0,1.0,6.0,6.0,437.4259763826558,3.0,0.0,part_2,go,150.0,200.0,1.0,,,,,,,,,green,flipped triangle
0.0,2.0,2.0,0.0,5.0,5.0,506.1713813956885,3.0,0.0,part_2,go,150.0,200.0,1.0,,,,,,,,,magenta,hexagon
0.0,8.0,4.0,1.0,5.0,0.0,0.0,3.0,0.0,part_2,stop,150.0,200.0,4.0,,,,,,,,,gray,diamond
0.0,6.0,2.0,1.0,6.0,6.0,457.9232517899072,4.0,0.0,part_2,stop,200.0,200.0,3.0,,,,,,,,,cyan,square
0.0,1.0,1.0,0.0,5.0,5.0,423.7678281897388,4.0,0.0,part_2,go,200.0,150.0,1.0,,,,,,,,,white,I
0.0,3.0,3.0,0.0,6.0,6.0,482.0155711895495,4.0,0.0,part_2,go,200.0,150.0,1.0,,,,,,,,,yellow,circle
0.0,7.0,3.0,1.0,6.0,6.0,415.2402912004618,4.0,0.0,part_2,go,200.0,150.0,1.0,,,,,,,,,orange,cross
0.0,4.0,4.0,0.0,5.0,5.0,392.1313561913848,4.0,0.0,part_2,go,200.0,150.0,1.0,,,,,,,,,blue,triangle
0.0,5.0,1.0,1.0,5.0,5.0,507.37005038536154,4.0,0.0,part_2,go,200.0,150.0,1.0,,,,,,,,,green,flipped triangle
0.0,8.0,4.0,1.0,6.0,0.0,0.0,4.0,0.0,part_2,stop,200.0,150.0,4.0,,,,,,,,,gray,diamond
0.0,5.0,1.0,1.0,6.0,0.0,0.0,4.0,0.0,part_2,stop,200.0,200.0,4.0,,,,,,,,,green,flipped triangle
0.0,6.0,2.0,1.0,6.0,0.0,0.0,4.0,0.0,part_2,stop,200.0,250.0,4.0,,,,,,,,,cyan,square
0.0,2.0,2.0,0.0,5.0,5.0,375.1176981895696,4.0,0.0,part_2,go,200.0,300.0,1.0,,,,,,,,,magenta,hexagon
0.0,6.0,2.0,1.0,6.0,6.0,532.0567538001342,4.0,0.0,part_2,go,200.0,300.0,1.0,,,,,,,,,cyan,square
0.0,5.0,1.0,1.0,5.0,0.0,0.0,4.0,0.0,part_2,stop,200.0,300.0,4.0,,,,,,,,,green,flipped triangle
0.0,5.0,1.0,1.0,6.0,6.0,466.1431935855944,4.0,0.0,part_2,stop,250.0,300.0,3.0,,,,,,,,,green,flipped triangle
0.0,2.0,2.0,0.0,6.0,6.0,512.0001938012138,4.0,0.0,part_2,go,250.0,250.0,1.0,,,,,,,,,magenta,hexagon
0.0,1.0,1.0,0.0,6.0,6.0,480.1902354047342,4.0,0.0,part_2,go,250.0,250.0,1.0,,,,,,,,,white,I
0.0,8.0,4.0,1.0,5.0,0.0,0.0,4.0,0.0,part_2,stop,250.0,250.0,4.0,,,,,,,,,gray,diamond
0.0,5.0,1.0,1.0,5.0,5.0,516.0012583946809,4.0,0.0,part_2,go,300.0,250.0,1.0,,,,,,,,,green,flipped triangle
0.0,4.0,4.0,0.0,5.0,5.0,751.4541649907187,4.0,0.0,part_2,go,300.0,250.0,1.0,,,,,,,,,blue,triangle
0.0,6.0,2.0,1.0,5.0,5.0,437.4170629889704,4.0,0.0,part_2,stop,300.0,250.0,3.0,,,,,,,,,cyan,square
0.0,5.0,1.0,1.0,5.0,0.0,0.0,4.0,0.0,part_2,stop,250.0,250.0,4.0,,,,,,,,,green,flipped triangle
0.0,6.0,2.0,1.0,5.0,5.0,733.3564177861263,4.0,0.0,part_2,go,300.0,250.0,1.0,,,,,,,,,cyan,square
0.0,7.0,3.0,1.0,6.0,0.0,0.0,4.0,0.0,part_2,stop,300.0,250.0,4.0,,,,,,,,,orange,cross
0.0,7.0,3.0,1.0,5.0,5.0,622.4946477886988,4.0,0.0,part_2,go,300.0,300.0,1.0,,,,,,,,,orange,cross
0.0,2.0,2.0,0.0,5.0,5.0,789.8860553941631,4.0,0.0,part_2,go,300.0,300.0,1.0,,,,,,,,,magenta,hexagon
0.0,8.0,4.0,1.0,5.0,0.0,0.0,4.0,0.0,part_2,stop,300.0,300.0,4.0,,,,,,,,,gray,diamond
0.0,3.0,3.0,0.0,6.0,6.0,668.6974997974175,4.0,0.0,part_2,go,350.0,300.0,1.0,,,,,,,,,yellow,circle
0.0,4.0,4.0,0.0,5.0,5.0,736.6459567965649,4.0,0.0,part_2,go,350.0,300.0,1.0,,,,,,,,,blue,triangle
0.0,2.0,2.0,0.0,6.0,6.0,624.8649655972258,4.0,0.0,part_2,go,350.0,300.0,1.0,,,,,,,,,magenta,hexagon
0.0,7.0,3.0,1.0,5.0,5.0,615.8142017884529,4.0,0.0,part_2,go,350.0,300.0,1.0,,,,,,,,,orange,cross
0.0,4.0,4.0,0.0,6.0,6.0,728.6417695941054,4.0,0.0,part_2,go,350.0,300.0,1.0,,,,,,,,,blue,triangle
0.0,1.0,1.0,0.0,5.0,5.0,413.5378531791502,4.0,0.0,part_2,go,350.0,300.0,1.0,,,,,,,,,white,I
0.0,2.0,2.0,0.0,6.0,6.0,641.229208180448,4.0,0.0,part_2,go,350.0,300.0,1.0,,,,,,,,,magenta,hexagon
0.0,3.0,3.0,0.0,6.0,6.0,516.9892607882502,4.0,0.0,part_2,go,350.0,300.0,1.0,,,,,,,,,yellow,circle
0.0,6.0,2.0,1.0,5.0,0.0,0.0,4.0,0.0,part_2,stop,350.0,300.0,4.0,,,,,,,,,cyan,square
0.0,7.0,3.0,1.0,5.0,5.0,551.9035735924263,4.0,0.0,part_2,stop,400.0,300.0,3.0,,,,,,,,,orange,cross
0.0,1.0,1.0,0.0,6.0,6.0,733.8281293814362,4.0,0.0,part_2,go,350.0,300.0,1.0,,,,,,,,,white,I
0.0,2.0,2.0,0.0,6.0,6.0,766.602419593255,5.0,0.0,part_2,go,350.0,300.0,1.0,,,,,,,,,magenta,hexagon
0.0,3.0,3.0,0.0,5.0,5.0,485.7721029984532,5.0,0.0,part_2,go,350.0,300.0,1.0,,,,,,,,,yellow,circle
0.0,7.0,3.0,1.0,6.0,0.0,0.0,5.0,0.0,part_2,stop,350.0,300.0,4.0,,,,,,,,,orange,cross
0.0,6.0,2.0,1.0,6.0,0.0,0.0,5.0,0.0,part_2,stop,350.0,350.0,4.0,,,,,,,,,cyan,square
0.0,4.0,4.0,0.0,6.0,6.0,657.0508943950699,5.0,0.0,part_2,go,350.0,400.0,1.0,,,,,,,,,blue,triangle
0.0,8.0,4.0,1.0,6.0,0.0,0.0,5.0,0.0,part_2,stop,350.0,400.0,4.0,,,,,,,,,gray,diamond
0.0,7.0,3.0,1.0,6.0,0.0,0.0,5.0,0.0,part_2,stop,350.0,450.0,4.0,,,,,,,,,orange,cross
0.0,3.0,3.0,0.0,6.0,6.0,669.9812327969994,5.0,0.0,part_2,go,350.0,500.0,1.0,,,,,,,,,yellow,circle
0.0,1.0,1.0,0.0,6.0,6.0,682.2706759921857,5.0,0.0,part_2,go,350.0,500.0,1.0,,,,,,,,,white,I
0.0,1.0,1.0,0.0,6.0,6.0,807.2096543946827,5.0,0.0,part_2,go,350.0,500.0,1.0,,,,,,,,,white,I
0.0,5.0,1.0,1.0,6.0,0.0,0.0,5.0,0.0,part_2,stop,350.0,500.0,4.0,,,,,,,,,green,flipped triangle
0.0,3.0,3.0,0.0,5.0,5.0,684.4527459907113,5.0,0.0,part_2,go,350.0,550.0,1.0,,,,,,,,,yellow,circle
0.0,1.0,1.0,0.0,5.0,5.0,764.4743786040635,5.0,0.0,part_2,go,350.0,550.0,1.0,,,,,,,,,white,I
0.0,6.0,2.0,1.0,5.0,5.0,642.8971889872628,5.0,0.0,part_2,go,350.0,550.0,1.0,,,,,,,,,cyan,square
0.0,8.0,4.0,1.0,5.0,5.0,652.7662553853588,5.0,0.0,part_2,go,350.0,550.0,1.0,,,,,,,,,gray,diamond
0.0,8.0,4.0,1.0,6.0,6.0,721.0852841890301,5.0,0.0,part_2,stop,350.0,550.0,3.0,,,,,,,,,gray,diamond
0.0,6.0,2.0,1.0,6.0,0.0,0.0,5.0,0.0,part_2,stop,350.0,500.0,4.0,,,,,,,,,cyan,square
0.0,2.0,2.0,0.0,5.0,5.0,814.4593047909439,5.0,0.0,part_2,go,350.0,550.0,1.0,,,,,,,,,magenta,hexagon
0.0,2.0,2.0,0.0,6.0,6.0,938.8752117993135,5.0,0.0,part_2,go,350.0,550.0,1.0,,,,,,,,,magenta,hexagon
0.0,8.0,4.0,1.0,6.0,6.0,769.7154755951487,5.0,0.0,part_2,go,350.0,550.0,1.0,,,,,,,,,gray,diamond
0.0,8.0,4.0,1.0,6.0,0.0,0.0,5.0,0.0,part_2,stop,350.0,550.0,4.0,,,,,,,,,gray,diamond
0.0,6.0,2.0,1.0,5.0,5.0,1018.8573509913113,5.0,0.0,part_2,go,350.0,600.0,1.0,,,,,,,,,cyan,square
0.0,6.0,2.0,1.0,5.0,0.0,0.0,5.0,0.0,part_2,stop,350.0,600.0,4.0,,,,,,,,,cyan,square
0.0,3.0,3.0,0.0,5.0,5.0,751.9329361894052,5.0,0.0,part_2,go,400.0,600.0,1.0,,,,,,,,,yellow,circle
0.0,4.0,4.0,0.0,6.0,6.0,886.3611440028762,5.0,0.0,part_2,go,400.0,600.0,1.0,,,,,,,,,blue,triangle
0.0,6.0,2.0,1.0,5.0,0.0,0.0,5.0,0.0,part_2,stop,400.0,600.0,4.0,,,,,,,,,cyan,square
0.0,4.0,4.0,0.0,5.0,5.0,697.7805259994057,5.0,0.0,part_2,go,450.0,600.0,1.0,,,,,,,,,blue,triangle
0.0,8.0,4.0,1.0,6.0,0.0,0.0,5.0,0.0,part_2,stop,450.0,600.0,4.0,,,,,,,,,gray,diamond
0.0,1.0,1.0,0.0,5.0,5.0,880.1763429873972,5.0,0.0,part_2,go,450.0,650.0,1.0,,,,,,,,,white,I
0.0,8.0,4.0,1.0,6.0,6.0,620.7337863925204,5.0,0.0,part_2,stop,450.0,650.0,3.0,,,,,,,,,gray,diamond
0.0,2.0,2.0,0.0,5.0,5.0,1118.1864597965614,5.0,0.0,part_2,go,450.0,600.0,1.0,,,,,,,,,magenta,hexagon
0.0,6.0,2.0,1.0,6.0,6.0,1173.5949515968969,5.0,0.0,part_2,go,450.0,600.0,1.0,,,,,,,,,cyan,square
0.0,6.0,2.0,1.0,6.0,6.0,949.1441413956636,5.0,0.0,part_2,go,450.0,600.0,1.0,,,,,,,,,cyan,square
0.0,8.0,4.0,1.0,6.0,0.0,0.0,5.0,0.0,part_2,stop,450.0,600.0,4.0,,,,,,,,,gray,diamond
0.0,3.0,3.0,0.0,5.0,5.0,725.9451443860598,5.0,0.0,part_2,go,450.0,650.0,1.0,,,,,,,,,yellow,circle
0.0,3.0,3.0,0.0,6.0,6.0,1020.1140771896462,5.0,0.0,part_2,go,450.0,650.0,1.0,,,,,,,,,yellow,circle
0.0,7.0,3.0,1.0,6.0,6.0,697.1791383948585,6.0,0.0,part_2,stop,450.0,650.0,3.0,,,,,,,,,orange,cross
0.0,7.0,3.0,1.0,6.0,0.0,0.0,6.0,0.0,part_2,stop,450.0,600.0,4.0,,,,,,,,,orange,cross
0.0,8.0,4.0,1.0,6.0,6.0,777.6616505871061,6.0,0.0,part_2,stop,450.0,650.0,3.0,,,,,,,,,gray,diamond
0.0,8.0,4.0,1.0,5.0,5.0,813.3349227973667,6.0,0.0,part_2,go,450.0,600.0,1.0,,,,,,,,,gray,diamond
0.0,1.0,1.0,0.0,6.0,6.0,700.2085365929815,6.0,0.0,part_2,go,450.0,600.0,1.0,,,,,,,,,white,I
0.0,7.0,3.0,1.0,6.0,6.0,757.6669835871144,6.0,0.0,part_2,stop,450.0,600.0,3.0,,,,,,,,,orange,cross
0.0,5.0,1.0,1.0,5.0,0.0,0.0,6.0,0.0,part_2,stop,450.0,550.0,4.0,,,,,,,,,green,flipped triangle
0.0,1.0,1.0,0.0,6.0,6.0,851.0819032017025,6.0,0.0,part_2,go,500.0,550.0,1.0,,,,,,,,,white,I
0.0,5.0,1.0,1.0,6.0,0.0,0.0,6.0,0.0,part_2,stop,500.0,550.0,4.0,,,,,,,,,green,flipped triangle
0.0,4.0,4.0,0.0,6.0,6.0,670.6466235955304,6.0,0.0,part_2,go,500.0,600.0,1.0,,,,,,,,,blue,triangle
0.0,2.0,2.0,0.0,5.0,5.0,796.1650149991328,6.0,0.0,part_2,go,500.0,600.0,1.0,,,,,,,,,magenta,hexagon
0.0,2.0,2.0,0.0,5.0,5.0,978.014731190342,6.0,0.0,part_2,go,500.0,600.0,1.0,,,,,,,,,magenta,hexagon
0.0,6.0,2.0,1.0,5.0,0.0,0.0,6.0,0.0,part_2,stop,500.0,600.0,4.0,,,,,,,,,cyan,square
0.0,3.0,3.0,0.0,5.0,5.0,584.119141989504,6.0,0.0,part_2,go,550.0,600.0,1.0,,,,,,,,,yellow,circle
0.0,2.0,2.0,0.0,6.0,6.0,809.7607483941829,6.0,0.0,part_2,go,550.0,600.0,1.0,,,,,,,,,magenta,hexagon
0.0,8.0,4.0,1.0,5.0,0.0,0.0,6.0,0.0,part_2,stop,550.0,600.0,4.0,,,,,,,,,gray,diamond
0.0,1.0,1.0,0.0,5.0,5.0,565.4746147883998,6.0,0.0,part_2,go,600.0,600.0,1.0,,,,,,,,,white,I
0.0,4.0,4.0,0.0,6.0,6.0,936.514024000644,6.0,0.0,part_2,go,600.0,600.0,1.0,,,,,,,,,blue,triangle
0.0,6.0,2.0,1.0,6.0,0.0,0.0,6.0,0.0,part_2,stop,600.0,600.0,4.0,,,,,,,,,cyan,square
0.0,8.0,4.0,1.0,6.0,0.0,0.0,6.0,0.0,part_2,stop,600.0,650.0,4.0,,,,,,,,,gray,diamond
0.0,2.0,2.0,0.0,5.0,5.0,523.6322985947481,6.0,0.0,part_2,go,600.0,700.0,1.0,,,,,,,,,magenta,hexagon
0.0,6.0,2.0,1.0,5.0,0.0,0.0,6.0,0.0,part_2,stop,600.0,700.0,4.0,,,,,,,,,cyan,square
0.0,4.0,4.0,0.0,5.0,5.0,693.6206505961309,6.0,0.0,part_2,go,650.0,700.0,1.0,,,,,,,,,blue,triangle
0.0,1.0,1.0,0.0,5.0,5.0,548.845036955754,6.0,0.0,part_2,go,650.0,700.0,1.0,,,,,,,,,white,I
0.0,5.0,1.0,1.0,5.0,5.0,908.9836435850884,6.0,0.0,part_2,stop,650.0,700.0,3.0,,,,,,,,,green,flipped triangle
0.0,2.0,2.0,0.0,6.0,6.0,595.0147685834963,6.0,0.0,part_2,go,600.0,700.0,1.0,,,,,,,,,magenta,hexagon
0.0,6.0,2.0,1.0,6.0,0.0,0.0,6.0,0.0,part_2,stop,600.0,700.0,4.0,,,,,,,,,cyan,square
0.0,7.0,3.0,1.0,6.0,0.0,0.0,6.0,0.0,part_2,stop,600.0,750.0,4.0,,,,,,,,,orange,cross
0.0,2.0,2.0,0.0,5.0,5.0,697.561231583677,6.0,0.0,part_2,go,600.0,800.0,1.0,,,,,,,,,magenta,hexagon
0.0,6.0,2.0,1.0,6.0,0.0,0.0,6.0,0.0,part_2,stop,600.0,800.0,4.0,,,,,,,,,cyan,square
0.0,8.0,4.0,1.0,6.0,6.0,1207.077420582209,6.0,0.0,part_2,go,600.0,850.0,1.0,,,,,,,,,gray,diamond
0.0,7.0,3.0,1.0,5.0,5.0,1005.5881091902847,6.0,0.0,part_2,go,600.0,850.0,1.0,,,,,,,,,orange,cross
0.0,4.0,4.0,0.0,5.0,5.0,668.7353213928873,6.0,0.0,part_2,go,600.0,850.0,1.0,,,,,,,,,blue,triangle
0.0,5.0,1.0,1.0,6.0,0.0,0.0,6.0,0.0,part_2,stop,600.0,850.0,4.0,,,,,,,,,green,flipped triangle
0.0,2.0,2.0,0.0,5.0,5.0,489.2213285856996,6.0,0.0,part_2,go,600.0,900.0,1.0,,,,,,,,,magenta,hexagon
0.0,6.0,2.0,1.0,6.0,6.0,1053.6939623962098,6.0,0.0,part_2,go,600.0,900.0,1.0,,,,,,,,,cyan,square
0.0,6.0,2.0,1.0,5.0,5.0,383.1945451929641,7.0,0.0,part_2,stop,600.0,900.0,3.0,,,,,,,,,cyan,square
0.0,2.0,2.0,0.0,6.0,6.0,464.2511503807327,7.0,0.0,part_2,go,550.0,900.0,1.0,,,,,,,,,magenta,hexagon
0.0,8.0,4.0,1.0,6.0,6.0,914.3530265500884,7.0,0.0,part_2,stop,550.0,900.0,3.0,,,,,,,,,gray,diamond
0.0,6.0,2.0,1.0,6.0,0.0,0.0,7.0,0.0,part_2,stop,550.0,850.0,4.0,,,,,,,,,cyan,square
0.0,4.0,4.0,0.0,5.0,5.0,624.4460545931361,7.0,0.0,part_2,go,550.0,900.0,1.0,,,,,,,,,blue,triangle
0.0,6.0,2.0,1.0,6.0,0.0,0.0,7.0,0.0,part_2,stop,550.0,900.0,4.0,,,,,,,,,cyan,square
0.0,6.0,2.0,1.0,5.0,0.0,0.0,7.0,0.0,part_2,stop,550.0,950.0,4.0,,,,,,,,,cyan,square
0.0,3.0,3.0,0.0,6.0,6.0,445.1321085944073,7.0,0.0,part_2,go,600.0,950.0,1.0,,,,,,,,,yellow,circle
0.0,7.0,3.0,1.0,6.0,6.0,515.2007479882741,7.0,0.0,part_2,stop,600.0,950.0,3.0,,,,,,,,,orange,cross
0.0,3.0,3.0,0.0,5.0,5.0,537.2219843957282,7.0,0.0,part_2,go,600.0,900.0,1.0,,,,,,,,,yellow,circle
0.0,5.0,1.0,1.0,5.0,5.0,616.9280165850068,7.0,0.0,part_2,stop,600.0,900.0,3.0,,,,,,,,,green,flipped triangle
0.0,6.0,2.0,1.0,6.0,6.0,1033.1446052005049,7.0,0.0,part_2,stop,550.0,900.0,3.0,,,,,,,,,cyan,square
0.0,7.0,3.0,1.0,5.0,0.0,0.0,7.0,0.0,part_2,stop,550.0,850.0,4.0,,,,,,,,,orange,cross
0.0,3.0,3.0,0.0,6.0,6.0,630.5551803925482,7.0,0.0,part_2,go,600.0,850.0,1.0,,,,,,,,,yellow,circle
0.0,4.0,4.0,0.0,5.0,5.0,599.0264403953915,7.0,0.0,part_2,go,600.0,850.0,1.0,,,,,,,,,blue,triangle
0.0,3.0,3.0,0.0,6.0,6.0,384.3141509896668,7.0,0.0,part_2,go,600.0,850.0,1.0,,,,,,,,,yellow,circle
0.0,8.0,4.0,1.0,5.0,0.0,0.0,7.0,0.0,part_2,stop,600.0,850.0,4.0,,,,,,,,,gray,diamond
0.0,3.0,3.0,0.0,6.0,6.0,420.2088341880881,7.0,0.0,part_2,go,650.0,850.0,1.0,,,,,,,,,yellow,circle
0.0,5.0,1.0,1.0,5.0,5.0,509.97804179860395,7.0,0.0,part_2,stop,650.0,850.0,3.0,,,,,,,,,green,flipped triangle
0.0,8.0,4.0,1.0,5.0,0.0,0.0,7.0,0.0,part_2,stop,600.0,850.0,4.0,,,,,,,,,gray,diamond
0.0,4.0,4.0,0.0,6.0,6.0,760.4017593839671,7.0,0.0,part_2,go,650.0,850.0,1.0,,,,,,,,,blue,triangle
0.0,5.0,1.0,1.0,6.0,6.0,1121.0169471996778,7.0,0.0,part_2,go,650.0,850.0,1.0,,,,,,,,,green,flipped triangle
0.0,3.0,3.0,0.0,5.0,5.0,480.4088105811388,7.0,0.0,part_2,go,650.0,850.0,1.0,,,,,,,,,yellow,circle
0.0,5.0,1.0,1.0,5.0,0.0,0.0,7.0,0.0,part_2,stop,650.0,850.0,4.0,,,,,,,,,green,flipped triangle
0.0,5.0,1.0,1.0,5.0,0.0,0.0,7.0,0.0,part_2,stop,700.0,850.0,4.0,,,,,,,,,green,flipped triangle
0.0,8.0,4.0,1.0,5.0,0.0,0.0,7.0,0.0,part_2,stop,750.0,850.0,4.0,,,,,,,,,gray,diamond
0.0,1.0,1.0,0.0,5.0,5.0,473.720569989382,7.0,0.0,part_2,go,800.0,850.0,1.0,,,,,,,,,white,I
0.0,7.0,3.0,1.0,5.0,5.0,339.8205457997392,7.0,0.0,part_2,stop,800.0,850.0,3.0,,,,,,,,,orange,cross
0.0,7.0,3.0,1.0,6.0,6.0,969.2809879998094,7.0,0.0,part_2,go,750.0,850.0,1.0,,,,,,,,,orange,cross
0.0,5.0,1.0,1.0,5.0,5.0,1262.754206189129,7.0,0.0,part_2,go,750.0,850.0,1.0,,,,,,,,,green,flipped triangle
0.0,2.0,2.0,0.0,6.0,6.0,475.4912157986837,7.0,0.0,part_2,go,750.0,850.0,1.0,,,,,,,,,magenta,hexagon
0.0,1.0,1.0,0.0,6.0,6.0,476.4723261905601,7.0,0.0,part_2,go,750.0,850.0,1.0,,,,,,,,,white,I
0.0,3.0,3.0,0.0,6.0,6.0,398.5498127876781,7.0,0.0,part_2,go,750.0,850.0,1.0,,,,,,,,,yellow,circle
0.0,1.0,1.0,0.0,5.0,5.0,433.1574809912126,7.0,0.0,part_2,go,750.0,850.0,1.0,,,,,,,,,white,I
0.0,5.0,1.0,1.0,5.0,0.0,0.0,7.0,0.0,part_2,stop,750.0,850.0,4.0,,,,,,,,,green,flipped triangle
0.0,3.0,3.0,0.0,5.0,5.0,480.8131281897658,7.0,0.0,part_2,go,800.0,850.0,1.0,,,,,,,,,yellow,circle
0.0,3.0,3.0,0.0,6.0,6.0,466.9752821901056,8.0,0.0,part_2,go,800.0,850.0,1.0,,,,,,,,,yellow,circle
0.0,4.0,4.0,0.0,6.0,6.0,659.5173745845386,8.0,0.0,part_2,go,800.0,850.0,1.0,,,,,,,,,blue,triangle
0.0,4.0,4.0,0.0,5.0,5.0,458.2629515934968,8.0,0.0,part_2,go,800.0,850.0,1.0,,,,,,,,,blue,triangle
0.0,8.0,4.0,1.0,5.0,5.0,1177.674779384688,8.0,0.0,part_2,go,800.0,850.0,1.0,,,,,,,,,gray,diamond
0.0,8.0,4.0,1.0,5.0,0.0,0.0,8.0,0.0,part_2,stop,800.0,850.0,4.0,,,,,,,,,gray,diamond
0.0,4.0,4.0,0.0,5.0,5.0,527.4794731994916,8.0,0.0,part_2,go,850.0,850.0,1.0,,,,,,,,,blue,triangle
0.0,8.0,4.0,1.0,6.0,0.0,0.0,8.0,0.0,part_2,stop,850.0,850.0,4.0,,,,,,,,,gray,diamond
0.0,6.0,2.0,1.0,6.0,0.0,0.0,8.0,0.0,part_2,stop,850.0,900.0,4.0,,,,,,,,,cyan,square
0.0,4.0,4.0,0.0,6.0,6.0,530.3816711893887,8.0,0.0,part_2,go,850.0,950.0,1.0,,,,,,,,,blue,triangle
0.0,7.0,3.0,1.0,6.0,6.0,1207.0373201895563,8.0,0.0,part_2,go,850.0,950.0,1.0,,,,,,,,,orange,cross
0.0,6.0,2.0,1.0,5.0,0.0,0.0,8.0,0.0,part_2,stop,850.0,950.0,4.0,,,,,,,,,cyan,square
0.0,3.0,3.0,0.0,5.0,5.0,567.1137317876855,8.0,0.0,part_2,go,900.0,950.0,1.0,,,,,,,,,yellow,circle
0.0,5.0,1.0,1.0,6.0,0.0,0.0,8.0,0.0,part_2,stop,900.0,950.0,4.0,,,,,,,,,green,flipped triangle
0.0,3.0,3.0,0.0,5.0,5.0,534.6718469882035,8.0,0.0,part_2,go,900.0,1000.0,1.0,,,,,,,,,yellow,circle
0.0,7.0,3.0,1.0,6.0,0.0,0.0,8.0,0.0,part_2,stop,900.0,1000.0,4.0,,,,,,,,,orange,cross
0.0,4.0,4.0,0.0,5.0,5.0,625.2911959891208,8.0,0.0,part_2,go,900.0,1050.0,1.0,,,,,,,,,blue,triangle
0.0,8.0,4.0,1.0,5.0,0.0,0.0,8.0,0.0,part_2,stop,900.0,1050.0,4.0,,,,,,,,,gray,diamond
0.0,3.0,3.0,0.0,6.0,6.0,435.66895080221,8.0,0.0,part_2,go,950.0,1050.0,1.0,,,,,,,,,yellow,circle
0.0,7.0,3.0,1.0,6.0,0.0,0.0,8.0,0.0,part_2,stop,950.0,1050.0,4.0,,,,,,,,,orange,cross
0.0,1.0,1.0,0.0,6.0,6.0,459.113592383801,8.0,0.0,part_2,go,950.0,1100.0,1.0,,,,,,,,,white,I
0.0,6.0,2.0,1.0,5.0,5.0,1090.0123987848929,8.0,0.0,part_2,stop,950.0,1100.0,3.0,,,,,,,,,cyan,square
0.0,4.0,4.0,0.0,5.0,5.0,530.220958404243,8.0,0.0,part_2,go,900.0,1100.0,1.0,,,,,,,,,blue,triangle
0.0,4.0,4.0,0.0,5.0,5.0,484.2059607981355,8.0,0.0,part_2,go,900.0,1100.0,1.0,,,,,,,,,blue,triangle
0.0,4.0,4.0,0.0,6.0,6.0,508.7376389892597,8.0,0.0,part_2,go,900.0,1100.0,1.0,,,,,,,,,blue,triangle
0.0,1.0,1.0,0.0,5.0,5.0,497.0231837978645,8.0,0.0,part_2,go,900.0,1100.0,1.0,,,,,,,,,white,I
0.0,2.0,2.0,0.0,5.0,5.0,475.3602885975851,8.0,0.0,part_2,go,900.0,1100.0,1.0,,,,,,,,,magenta,hexagon
0.0,3.0,3.0,0.0,6.0,6.0,499.9665319883206,8.0,0.0,part_2,go,900.0,1100.0,1.0,,,,,,,,,yellow,circle
0.0,6.0,2.0,1.0,5.0,5.0,1344.921903582872,8.0,0.0,part_2,go,900.0,1100.0,1.0,,,,,,,,,cyan,square
0.0,5.0,1.0,1.0,5.0,0.0,0.0,8.0,0.0,part_2,stop,900.0,1100.0,4.0,,,,,,,,,green,flipped triangle
0.0,3.0,3.0,0.0,5.0,5.0,423.3812473939906,8.0,0.0,part_2,go,950.0,1100.0,1.0,,,,,,,,,yellow,circle
0.0,1.0,1.0,0.0,5.0,5.0,468.7215584053774,8.0,0.0,part_2,go,950.0,1100.0,1.0,,,,,,,,,white,I
0.0,1.0,1.0,0.0,6.0,6.0,471.0420147894183,8.0,0.0,part_2,go,950.0,1100.0,1.0,,,,,,,,,white,I
0.0,3.0,3.0,0.0,5.0,5.0,526.5588521906466,8.0,0.0,part_2,go,950.0,1100.0,1.0,,,,,,,,,yellow,circle
0.0,8.0,4.0,1.0,6.0,0.0,0.0,8.0,0.0,part_2,stop,950.0,1100.0,4.0,,,,,,,,,gray,diamond
0.0,7.0,3.0,1.0,6.0,6.0,1214.9714671795664,8.0,0.0,part_2,stop,950.0,1150.0,3.0,,,,,,,,,orange,cross
0.0,1.0,1.0,0.0,5.0,5.0,495.4523583837726,8.0,0.0,part_2,go,950.0,1100.0,1.0,,,,,,,,,white,I
0.0,5.0,1.0,1.0,7.0,1.0,1731.64998777429,1.0,1.0,part_3,go,0.0,0.0,0.0,245.0,5.0,245.0,49.0,147.0,98.0,196.0,294.0,green,flipped triangle
0.0,4.0,4.0,0.0,7.0,5.0,1079.3282511876896,1.0,1.0,part_3,go,0.0,0.0,0.0,147.0,3.0,196.0,98.0,294.0,49.0,147.0,245.0,blue,triangle
0.0,8.0,4.0,1.0,7.0,4.0,1553.5149427742,1.0,1.0,part_3,go,0.0,0.0,0.0,78.0,2.0,156.0,234.0,117.0,78.0,39.0,195.0,gray,diamond
0.0,2.0,2.0,0.0,7.0,2.0,1037.6513703231467,1.0,1.0,part_3,go,0.0,0.0,0.0,270.0,5.0,162.0,270.0,216.0,108.0,324.0,54.0,magenta,hexagon
0.0,7.0,3.0,1.0,7.0,5.0,1048.8978574139765,1.0,1.0,part_3,go,0.0,0.0,0.0,147.0,3.0,294.0,49.0,196.0,245.0,147.0,98.0,orange,cross
0.0,5.0,1.0,1.0,7.0,3.0,1499.476300090464,1.0,1.0,part_3,go,0.0,0.0,0.0,176.0,4.0,132.0,88.0,176.0,44.0,220.0,264.0,green,flipped triangle
0.0,2.0,2.0,0.0,7.0,6.0,1558.2468431894083,1.0,1.0,part_3,go,0.0,0.0,0.0,204.0,6.0,170.0,68.0,34.0,102.0,136.0,204.0,magenta,hexagon
0.0,6.0,2.0,1.0,7.0,3.0,1727.9712430899965,1.0,1.0,part_3,go,0.0,0.0,0.0,102.0,3.0,136.0,68.0,102.0,204.0,170.0,34.0,cyan,square
0.0,8.0,4.0,1.0,7.0,6.0,1222.0546400894818,1.0,1.0,part_3,go,0.0,0.0,0.0,68.0,2.0,102.0,170.0,136.0,204.0,34.0,68.0,gray,diamond
0.0,7.0,3.0,1.0,7.0,2.0,1066.87587009219,1.0,1.0,part_3,go,0.0,0.0,0.0,162.0,3.0,108.0,162.0,324.0,270.0,216.0,54.0,orange,cross
0.0,5.0,1.0,1.0,7.0,5.0,1235.2928748659906,1.0,1.0,part_3,go,0.0,0.0,0.0,162.0,3.0,108.0,270.0,324.0,54.0,162.0,216.0,green,flipped triangle
0.0,8.0,4.0,1.0,7.0,4.0,1135.9389997742255,1.0,1.0,part_3,go,0.0,0.0,0.0,49.0,1.0,294.0,98.0,245.0,49.0,196.0,147.0,gray,diamond
0.0,7.0,3.0,1.0,7.0,6.0,1553.955554321874,1.0,1.0,part_3,go,0.0,0.0,0.0,108.0,2.0,162.0,54.0,270.0,216.0,324.0,108.0,orange,cross
0.0,5.0,1.0,1.0,7.0,4.0,1194.101122320717,1.0,1.0,part_3,go,0.0,0.0,0.0,147.0,3.0,294.0,98.0,196.0,147.0,49.0,245.0,green,flipped triangle
0.0,1.0,1.0,0.0,7.0,2.0,1149.724256090849,1.0,1.0,part_3,go,0.0,0.0,0.0,270.0,5.0,54.0,270.0,108.0,324.0,162.0,216.0,white,I
0.0,4.0,4.0,0.0,7.0,5.0,2017.228815544513,1.0,1.0,part_3,go,0.0,0.0,0.0,162.0,3.0,270.0,54.0,108.0,324.0,162.0,216.0,blue,triangle
0.0,3.0,3.0,0.0,7.0,2.0,1005.7103110921162,1.0,1.0,part_3,go,0.0,0.0,0.0,245.0,5.0,294.0,245.0,147.0,196.0,49.0,98.0,yellow,circle
0.0,2.0,2.0,0.0,7.0,2.0,1705.352473865787,1.0,1.0,part_3,go,0.0,0.0,0.0,220.0,5.0,264.0,220.0,88.0,176.0,44.0,132.0,magenta,hexagon
0.0,4.0,4.0,0.0,7.0,1.0,2550.4240976406436,1.0,1.0,part_3,go,0.0,0.0,0.0,156.0,4.0,156.0,195.0,39.0,117.0,234.0,78.0,blue,triangle
0.0,6.0,2.0,1.0,7.0,5.0,1324.189220318658,1.0,1.0,part_3,go,0.0,0.0,0.0,39.0,1.0,78.0,234.0,195.0,117.0,39.0,156.0,cyan,square
0.0,2.0,2.0,0.0,7.0,2.0,1175.8081516418315,2.0,1.0,part_3,go,0.0,0.0,0.0,34.0,1.0,102.0,34.0,204.0,136.0,170.0,68.0,magenta,hexagon
0.0,7.0,3.0,1.0,7.0,3.0,918.9273199990566,2.0,1.0,part_3,go,0.0,0.0,0.0,170.0,5.0,34.0,136.0,170.0,102.0,204.0,68.0,orange,cross
0.0,8.0,4.0,1.0,7.0,1.0,1032.0667620944732,2.0,1.0,part_3,go,0.0,0.0,0.0,54.0,1.0,54.0,108.0,270.0,324.0,216.0,162.0,gray,diamond
0.0,5.0,1.0,1.0,7.0,6.0,1842.933655185334,2.0,1.0,part_3,go,0.0,0.0,0.0,156.0,4.0,117.0,195.0,39.0,234.0,78.0,156.0,green,flipped triangle
0.0,4.0,4.0,0.0,7.0,4.0,2475.9941760930815,2.0,1.0,part_3,go,0.0,0.0,0.0,170.0,5.0,68.0,136.0,204.0,170.0,102.0,34.0,blue,triangle
0.0,8.0,4.0,1.0,7.0,5.0,1183.557145548548,2.0,1.0,part_3,go,0.0,0.0,0.0,49.0,1.0,147.0,98.0,294.0,245.0,49.0,196.0,gray,diamond
0.0,6.0,2.0,1.0,7.0,3.0,1295.4934493209294,2.0,1.0,part_3,go,0.0,0.0,0.0,156.0,4.0,234.0,78.0,156.0,117.0,195.0,39.0,cyan,square
0.0,3.0,3.0,0.0,7.0,5.0,1219.516308639868,2.0,1.0,part_3,go,0.0,0.0,0.0,195.0,5.0,39.0,78.0,117.0,156.0,195.0,234.0,yellow,circle
0.0,1.0,1.0,0.0,7.0,2.0,1827.3919831844976,2.0,1.0,part_3,go,0.0,0.0,0.0,176.0,4.0,220.0,176.0,264.0,132.0,44.0,88.0,white,I
0.0,6.0,2.0,1.0,7.0,6.0,2153.481363959145,2.0,1.0,part_3,go,0.0,0.0,0.0,147.0,3.0,294.0,196.0,49.0,98.0,245.0,147.0,cyan,square
0.0,7.0,3.0,1.0,7.0,5.0,1300.6960147722566,2.0,1.0,part_3,go,0.0,0.0,0.0,117.0,3.0,78.0,195.0,156.0,234.0,117.0,39.0,orange,cross
0.0,8.0,4.0,1.0,7.0,1.0,626.7939265453606,2.0,1.0,part_3,go,0.0,0.0,0.0,39.0,1.0,39.0,156.0,117.0,195.0,234.0,78.0,gray,diamond
0.0,2.0,2.0,0.0,7.0,3.0,1515.618697001628,2.0,1.0,part_3,go,0.0,0.0,0.0,196.0,4.0,98.0,147.0,196.0,49.0,245.0,294.0,magenta,hexagon
0.0,5.0,1.0,1.0,7.0,6.0,2158.926618638361,2.0,1.0,part_3,go,0.0,0.0,0.0,132.0,3.0,220.0,88.0,264.0,44.0,176.0,132.0,green,flipped triangle
0.0,7.0,3.0,1.0,7.0,3.0,2115.189458774694,2.0,1.0,part_3,go,0.0,0.0,0.0,132.0,3.0,264.0,176.0,132.0,220.0,88.0,44.0,orange,cross
0.0,7.0,3.0,1.0,7.0,1.0,1981.817684321868,2.0,1.0,part_3,go,0.0,0.0,0.0,136.0,4.0,136.0,170.0,102.0,34.0,68.0,204.0,orange,cross
0.0,7.0,3.0,1.0,7.0,2.0,914.3586185491586,2.0,1.0,part_3,go,0.0,0.0,0.0,49.0,1.0,196.0,49.0,147.0,245.0,98.0,294.0,orange,cross
0.0,2.0,2.0,0.0,7.0,1.0,903.4248081843544,2.0,1.0,part_3,go,0.0,0.0,0.0,132.0,3.0,132.0,88.0,44.0,264.0,176.0,220.0,magenta,hexagon
0.0,4.0,4.0,0.0,7.0,1.0,2118.9149424135394,2.0,1.0,part_3,go,0.0,0.0,0.0,196.0,4.0,196.0,245.0,294.0,49.0,147.0,98.0,blue,triangle
0.0,7.0,3.0,1.0,7.0,1.0,1052.0623357733712,2.0,1.0,part_3,go,0.0,0.0,0.0,132.0,3.0,132.0,220.0,44.0,176.0,264.0,88.0,orange,cross
0.0,6.0,2.0,1.0,7.0,6.0,1157.4320540930785,3.0,1.0,part_3,go,0.0,0.0,0.0,162.0,3.0,270.0,54.0,216.0,108.0,324.0,162.0,cyan,square
0.0,6.0,2.0,1.0,7.0,2.0,1269.5862256368855,3.0,1.0,part_3,go,0.0,0.0,0.0,162.0,3.0,324.0,162.0,54.0,270.0,108.0,216.0,cyan,square
0.0,1.0,1.0,0.0,7.0,2.0,1113.2553343231848,3.0,1.0,part_3,go,0.0,0.0,0.0,245.0,5.0,294.0,245.0,147.0,98.0,49.0,196.0,white,I
0.0,6.0,2.0,1.0,7.0,2.0,1204.9677281866025,3.0,1.0,part_3,go,0.0,0.0,0.0,245.0,5.0,98.0,245.0,147.0,294.0,196.0,49.0,cyan,square
0.0,3.0,3.0,0.0,7.0,3.0,1466.0558145478717,3.0,1.0,part_3,go,0.0,0.0,0.0,294.0,6.0,49.0,98.0,294.0,245.0,147.0,196.0,yellow,circle
0.0,3.0,3.0,0.0,7.0,5.0,1725.1811743226426,3.0,1.0,part_3,go,0.0,0.0,0.0,270.0,5.0,324.0,216.0,108.0,54.0,270.0,162.0,yellow,circle
0.0,1.0,1.0,0.0,7.0,3.0,1839.6188858641835,3.0,1.0,part_3,go,0.0,0.0,0.0,176.0,4.0,44.0,220.0,176.0,132.0,88.0,264.0,white,I
0.0,1.0,1.0,0.0,7.0,5.0,1625.337560319167,3.0,1.0,part_3,go,0.0,0.0,0.0,245.0,5.0,147.0,294.0,49.0,98.0,245.0,196.0,white,I
0.0,2.0,2.0,0.0,7.0,1.0,1525.5416240906925,3.0,1.0,part_3,go,0.0,0.0,0.0,234.0,6.0,234.0,117.0,39.0,156.0,195.0,78.0,magenta,hexagon
0.0,2.0,2.0,0.0,7.0,2.0,2043.3189548639348,3.0,1.0,part_3,go,0.0,0.0,0.0,245.0,5.0,49.0,245.0,98.0,147.0,196.0,294.0,magenta,hexagon
0.0,2.0,2.0,0.0,7.0,5.0,2686.198635958135,3.0,1.0,part_3,go,0.0,0.0,0.0,270.0,5.0,54.0,216.0,108.0,162.0,270.0,324.0,magenta,hexagon
0.0,8.0,4.0,1.0,7.0,3.0,1347.853556409973,3.0,1.0,part_3,go,0.0,0.0,0.0,44.0,1.0,88.0,220.0,44.0,132.0,176.0,264.0,gray,diamond
0.0,3.0,3.0,0.0,7.0,3.0,1225.563040319685,3.0,1.0,part_3,go,0.0,0.0,0.0,220.0,5.0,132.0,44.0,220.0,176.0,88.0,264.0,yellow,circle
0.0,3.0,3.0,0.0,7.0,5.0,1430.3703892255726,3.0,1.0,part_3,go,0.0,0.0,0.0,204.0,6.0,68.0,136.0,34.0,170.0,204.0,102.0,yellow,circle
0.0,8.0,4.0,1.0,7.0,5.0,1206.7432846379234,3.0,1.0,part_3,go,0.0,0.0,0.0,34.0,1.0,204.0,68.0,136.0,170.0,34.0,102.0,gray,diamond
0.0,4.0,4.0,0.0,7.0,3.0,1432.5192421856627,3.0,1.0,part_3,go,0.0,0.0,0.0,176.0,4.0,44.0,88.0,176.0,132.0,220.0,264.0,blue,triangle
0.0,5.0,1.0,1.0,7.0,3.0,1331.8887189598172,3.0,1.0,part_3,go,0.0,0.0,0.0,136.0,4.0,204.0,102.0,136.0,68.0,170.0,34.0,green,flipped triangle
0.0,3.0,3.0,0.0,7.0,2.0,803.2819655491039,3.0,1.0,part_3,go,0.0,0.0,0.0,234.0,6.0,195.0,234.0,78.0,39.0,117.0,156.0,yellow,circle
0.0,1.0,1.0,0.0,7.0,5.0,1592.4367027764674,3.0,1.0,part_3,go,0.0,0.0,0.0,216.0,4.0,108.0,324.0,162.0,270.0,216.0,54.0,white,I
0.0,3.0,3.0,0.0,7.0,1.0,2223.4372765451553,3.0,1.0,part_3,go,0.0,0.0,0.0,176.0,4.0,176.0,44.0,132.0,220.0,88.0,264.0,yellow,circle
0.0,5.0,1.0,1.0,7.0,1.0,2394.5333886367735,4.0,1.0,part_3,go,0.0,0.0,0.0,117.0,3.0,117.0,39.0,156.0,78.0,195.0,234.0,green,flipped triangle
0.0,4.0,4.0,0.0,7.0,1.0,843.4907275477599,4.0,1.0,part_3,go,0.0,0.0,0.0,170.0,5.0,170.0,34.0,102.0,204.0,136.0,68.0,blue,triangle
0.0,1.0,1.0,0.0,7.0,6.0,1652.2162752262377,4.0,1.0,part_3,go,0.0,0.0,0.0,195.0,5.0,78.0,234.0,39.0,156.0,117.0,195.0,white,I
0.0,6.0,2.0,1.0,7.0,2.0,991.3450473213744,4.0,1.0,part_3,go,0.0,0.0,0.0,220.0,5.0,44.0,220.0,132.0,88.0,264.0,176.0,cyan,square
0.0,8.0,4.0,1.0,7.0,6.0,1553.2771310899989,4.0,1.0,part_3,go,0.0,0.0,0.0,44.0,1.0,132.0,88.0,220.0,264.0,176.0,44.0,gray,diamond
0.0,1.0,1.0,0.0,7.0,3.0,2625.398931184463,4.0,1.0,part_3,go,0.0,0.0,0.0,170.0,5.0,102.0,68.0,170.0,136.0,34.0,204.0,white,I
0.0,1.0,1.0,0.0,7.0,6.0,1285.795143961877,4.0,1.0,part_3,go,0.0,0.0,0.0,170.0,5.0,204.0,102.0,34.0,136.0,68.0,170.0,white,I
0.0,3.0,3.0,0.0,7.0,6.0,184.6250317721569,4.0,1.0,part_3,go,0.0,0.0,0.0,324.0,6.0,54.0,108.0,216.0,162.0,270.0,324.0,yellow,circle
0.0,6.0,2.0,1.0,7.0,4.0,2649.700034638954,4.0,1.0,part_3,go,0.0,0.0,0.0,136.0,4.0,102.0,34.0,204.0,136.0,170.0,68.0,cyan,square
0.0,4.0,4.0,0.0,7.0,1.0,2526.7351157708617,4.0,1.0,part_3,go,0.0,0.0,0.0,162.0,3.0,162.0,324.0,108.0,54.0,270.0,216.0,blue,triangle
0.0,7.0,3.0,1.0,7.0,6.0,1797.0377159581403,4.0,1.0,part_3,go,0.0,0.0,0.0,117.0,3.0,234.0,78.0,156.0,195.0,39.0,117.0,orange,cross
0.0,6.0,2.0,1.0,7.0,6.0,1595.360832186998,4.0,1.0,part_3,go,0.0,0.0,0.0,132.0,3.0,264.0,176.0,88.0,44.0,220.0,132.0,cyan,square
0.0,2.0,2.0,0.0,7.0,3.0,1844.653066189494,4.0,1.0,part_3,go,0.0,0.0,0.0,234.0,6.0,195.0,78.0,234.0,39.0,117.0,156.0,magenta,hexagon
0.0,4.0,4.0,0.0,7.0,6.0,1620.9989018643682,4.0,1.0,part_3,go,0.0,0.0,0.0,234.0,6.0,78.0,156.0,117.0,195.0,39.0,234.0,blue,triangle
0.0,5.0,1.0,1.0,7.0,5.0,2421.43694686456,4.0,1.0,part_3,go,0.0,0.0,0.0,162.0,3.0,324.0,270.0,108.0,216.0,162.0,54.0,green,flipped triangle
0.0,1.0,1.0,0.0,7.0,1.0,1408.4794200934994,4.0,1.0,part_3,go,0.0,0.0,0.0,195.0,5.0,195.0,78.0,117.0,39.0,156.0,234.0,white,I
0.0,5.0,1.0,1.0,7.0,5.0,1240.368125188979,4.0,1.0,part_3,go,0.0,0.0,0.0,136.0,4.0,68.0,204.0,170.0,34.0,136.0,102.0,green,flipped triangle
0.0,8.0,4.0,1.0,7.0,5.0,1287.0710915485688,4.0,1.0,part_3,go,0.0,0.0,0.0,54.0,1.0,216.0,108.0,162.0,270.0,54.0,324.0,gray,diamond
0.0,4.0,4.0,0.0,7.0,3.0,1445.3634760029672,4.0,1.0,part_3,go,0.0,0.0,0.0,176.0,4.0,88.0,44.0,176.0,132.0,220.0,264.0,blue,triangle
0.0,3.0,3.0,0.0,7.0,1.0,1245.4094448657995,4.0,1.0,part_3,go,0.0,0.0,0.0,170.0,5.0,170.0,136.0,204.0,34.0,102.0,68.0,yellow,circle
