raw_reward_magnitude,stim_reward,stepwise_reward_magnitude,paired_with_stopping,stim_location,response,reaction_time,block,num_trial_presentations,which_phase,stop_signal_trial_type,left_SSD,right_SSD,accuracy,chosen_bidding_amount,chosen_bidding_level,possible_bid_1,possible_bid_2,possible_bid_3,possible_bid_4,possible_bid_5,possible_bid_6,color_text,shape_text
28.0,1.0,0.5,0.0,4.0,4.0,751.5912174458208,1.0,1.0,phase_1,,,,,,,,,,,,,blue,diamond
117.0,6.0,1.0,1.0,1.0,1.0,438.0798930001219,1.0,1.0,phase_1,,,,,,,,,,,,,yellow,triangle
185.0,3.0,2.0,0.0,2.0,2.0,357.8178917628065,1.0,1.0,phase_1,,,,,,,,,,,,,magenta,cross
0.0,7.0,0.0,1.0,1.0,1.0,359.8982936828179,1.0,1.0,phase_1,,,,,,,,,,,,,white,hexagon
0.0,6.0,0.0,1.0,3.0,3.0,325.4764817625073,1.0,1.0,phase_1,,,,,,,,,,,,,yellow,triangle
388.0,4.0,4.0,0.0,3.0,3.0,372.1374774454489,1.0,1.0,phase_1,,,,,,,,,,,,,gray,square
398.0,4.0,4.0,0.0,1.0,1.0,304.6930148416322,1.0,1.0,phase_1,,,,,,,,,,,,,gray,square
74.0,5.0,0.5,1.0,1.0,1.0,361.4868486829437,1.0,1.0,phase_1,,,,,,,,,,,,,green,flipped triangle
0.0,3.0,0.0,0.0,1.0,1.0,305.0716036832455,1.0,1.0,phase_1,,,,,,,,,,,,,magenta,cross
81.0,6.0,1.0,1.0,3.0,3.0,317.2800208417357,1.0,1.0,phase_1,,,,,,,,,,,,,yellow,triangle
0.0,3.0,0.0,0.0,2.0,2.0,385.2981347627064,1.0,1.0,phase_1,,,,,,,,,,,,,magenta,cross
0.0,4.0,0.0,0.0,2.0,2.0,295.1014819209376,1.0,1.0,phase_1,,,,,,,,,,,,,gray,square
398.0,8.0,4.0,1.0,1.0,1.0,352.6938077625345,1.0,1.0,phase_1,,,,,,,,,,,,,cyan,I
0.0,8.0,0.0,1.0,1.0,1.0,298.0843468417333,1.0,1.0,phase_1,,,,,,,,,,,,,cyan,I
200.0,3.0,2.0,0.0,1.0,1.0,264.8417156829055,1.0,1.0,phase_1,,,,,,,,,,,,,magenta,cross
0.0,5.0,0.0,1.0,4.0,4.0,308.3711396834587,1.0,1.0,phase_1,,,,,,,,,,,,,green,flipped triangle
410.0,8.0,4.0,1.0,3.0,3.0,354.5931816042866,1.0,1.0,phase_1,,,,,,,,,,,,,cyan,I
56.0,5.0,0.5,1.0,2.0,2.0,278.0565910793484,1.0,1.0,phase_1,,,,,,,,,,,,,green,flipped triangle
202.0,3.0,2.0,0.0,1.0,1.0,278.3212896833902,1.0,1.0,phase_1,,,,,,,,,,,,,magenta,cross
124.0,2.0,1.0,0.0,2.0,2.0,267.2104347625463,1.0,1.0,phase_1,,,,,,,,,,,,,orange,circle
418.0,8.0,4.0,1.0,2.0,2.0,322.7597819204675,1.0,1.0,phase_1,,,,,,,,,,,,,cyan,I
384.0,8.0,4.0,1.0,2.0,2.0,268.894749525316,1.0,1.0,phase_1,,,,,,,,,,,,,cyan,I
105.0,2.0,1.0,0.0,2.0,2.0,312.6847960002124,1.0,1.0,phase_1,,,,,,,,,,,,,orange,circle
211.0,3.0,2.0,0.0,1.0,1.0,315.1284546834176,1.0,1.0,phase_1,,,,,,,,,,,,,magenta,cross
0.0,4.0,0.0,0.0,2.0,2.0,293.0450725248192,1.0,1.0,phase_1,,,,,,,,,,,,,gray,square
53.0,5.0,0.5,1.0,4.0,4.0,314.0361808418674,1.0,1.0,phase_1,,,,,,,,,,,,,green,flipped triangle
49.0,1.0,0.5,0.0,1.0,1.0,316.9414205249268,1.0,1.0,phase_1,,,,,,,,,,,,,blue,diamond
185.0,3.0,2.0,0.0,2.0,2.0,338.5041949209153,1.0,1.0,phase_1,,,,,,,,,,,,,magenta,cross
0.0,6.0,0.0,1.0,4.0,4.0,394.6791956832385,1.0,1.0,phase_1,,,,,,,,,,,,,yellow,triangle
424.0,4.0,4.0,0.0,3.0,3.0,350.5197614458666,1.0,1.0,phase_1,,,,,,,,,,,,,gray,square
209.0,7.0,2.0,1.0,3.0,3.0,339.6904637625084,1.0,1.0,phase_1,,,,,,,,,,,,,white,hexagon
56.0,1.0,0.5,0.0,3.0,3.0,317.1296293667183,1.0,1.0,phase_1,,,,,,,,,,,,,blue,diamond
32.0,1.0,0.5,0.0,1.0,1.0,319.7979608416972,1.0,1.0,phase_1,,,,,,,,,,,,,blue,diamond
175.0,3.0,2.0,0.0,1.0,1.0,319.5322877627404,1.0,1.0,phase_1,,,,,,,,,,,,,magenta,cross
213.0,3.0,2.0,0.0,4.0,4.0,252.21148968330448,1.0,1.0,phase_1,,,,,,,,,,,,,magenta,cross
67.0,1.0,0.5,0.0,2.0,2.0,309.144007524992,1.0,1.0,phase_1,,,,,,,,,,,,,blue,diamond
41.0,1.0,0.5,0.0,1.0,1.0,333.4385853668209,1.0,1.0,phase_1,,,,,,,,,,,,,blue,diamond
61.0,1.0,0.5,0.0,4.0,4.0,288.4435737623789,1.0,1.0,phase_1,,,,,,,,,,,,,blue,diamond
405.0,8.0,4.0,1.0,1.0,1.0,356.1297083665522,1.0,1.0,phase_1,,,,,,,,,,,,,cyan,I
424.0,8.0,4.0,1.0,3.0,3.0,332.694324842123,1.0,1.0,phase_1,,,,,,,,,,,,,cyan,I
388.0,4.0,4.0,0.0,3.0,3.0,357.0815594457599,1.0,1.0,phase_1,,,,,,,,,,,,,gray,square
179.0,7.0,2.0,1.0,4.0,4.0,335.8912018420597,1.0,1.0,phase_1,,,,,,,,,,,,,white,hexagon
31.0,5.0,0.5,1.0,2.0,2.0,313.6536766041899,1.0,1.0,phase_1,,,,,,,,,,,,,green,flipped triangle
413.0,8.0,4.0,1.0,1.0,1.0,347.7269096047166,1.0,1.0,phase_1,,,,,,,,,,,,,cyan,I
49.0,5.0,0.5,1.0,1.0,1.0,324.6810557620847,1.0,1.0,phase_1,,,,,,,,,,,,,green,flipped triangle
0.0,2.0,0.0,0.0,4.0,4.0,302.2996036843324,1.0,1.0,phase_1,,,,,,,,,,,,,orange,circle
410.0,4.0,4.0,0.0,3.0,3.0,347.6487434454611,1.0,1.0,phase_1,,,,,,,,,,,,,gray,square
193.0,3.0,2.0,0.0,2.0,2.0,339.4135106045723,1.0,1.0,phase_1,,,,,,,,,,,,,magenta,cross
0.0,1.0,0.0,0.0,4.0,4.0,350.0041095248889,1.0,1.0,phase_1,,,,,,,,,,,,,blue,diamond
202.0,7.0,2.0,1.0,3.0,3.0,406.472216604925,1.0,1.0,phase_1,,,,,,,,,,,,,white,hexagon
378.0,8.0,4.0,1.0,3.0,3.0,328.1850609209868,1.0,1.0,phase_1,,,,,,,,,,,,,cyan,I
115.0,6.0,1.0,1.0,2.0,2.0,274.210897762714,1.0,1.0,phase_1,,,,,,,,,,,,,yellow,triangle
201.0,7.0,2.0,1.0,3.0,3.0,340.1826696044736,1.0,1.0,phase_1,,,,,,,,,,,,,white,hexagon
0.0,4.0,0.0,0.0,3.0,3.0,341.1714596841193,1.0,1.0,phase_1,,,,,,,,,,,,,gray,square
0.0,3.0,0.0,0.0,2.0,2.0,319.5607727620881,1.0,1.0,phase_1,,,,,,,,,,,,,magenta,cross
36.0,5.0,0.5,1.0,4.0,4.0,344.1438216041206,1.0,1.0,phase_1,,,,,,,,,,,,,green,flipped triangle
53.0,1.0,0.5,0.0,1.0,1.0,400.2615076042275,1.0,1.0,phase_1,,,,,,,,,,,,,blue,diamond
65.0,1.0,0.5,0.0,2.0,2.0,321.2802964453658,1.0,1.0,phase_1,,,,,,,,,,,,,blue,diamond
98.0,2.0,1.0,0.0,3.0,3.0,299.8906643670125,1.0,1.0,phase_1,,,,,,,,,,,,,orange,circle
36.0,1.0,0.5,0.0,2.0,2.0,344.4947565249094,1.0,1.0,phase_1,,,,,,,,,,,,,blue,diamond
225.0,3.0,2.0,0.0,1.0,1.0,346.1753578412754,1.0,1.0,phase_1,,,,,,,,,,,,,magenta,cross
225.0,3.0,2.0,0.0,2.0,2.0,335.5631567619639,1.0,1.0,phase_1,,,,,,,,,,,,,magenta,cross
375.0,8.0,4.0,1.0,1.0,1.0,323.9782796836152,1.0,1.0,phase_1,,,,,,,,,,,,,cyan,I
218.0,7.0,2.0,1.0,4.0,4.0,325.292458684089,1.0,1.0,phase_1,,,,,,,,,,,,,white,hexagon
418.0,4.0,4.0,0.0,1.0,1.0,313.3209276829802,1.0,1.0,phase_1,,,,,,,,,,,,,gray,square
199.0,7.0,2.0,1.0,4.0,4.0,336.3091548408192,1.0,1.0,phase_1,,,,,,,,,,,,,white,hexagon
0.0,7.0,0.0,1.0,3.0,3.0,359.4230149201394,1.0,1.0,phase_1,,,,,,,,,,,,,white,hexagon
382.0,8.0,4.0,1.0,2.0,2.0,315.5237026830946,1.0,1.0,phase_1,,,,,,,,,,,,,cyan,I
192.0,3.0,2.0,0.0,3.0,3.0,473.996169840575,1.0,1.0,phase_1,,,,,,,,,,,,,magenta,cross
47.0,5.0,0.5,1.0,4.0,4.0,327.513350604022,1.0,1.0,phase_1,,,,,,,,,,,,,green,flipped triangle
46.0,5.0,0.5,1.0,3.0,3.0,395.9901442867704,1.0,2.0,phase_1,,,,,,,,,,,,,green,flipped triangle
0.0,6.0,0.0,1.0,2.0,2.0,430.8731417622766,1.0,1.0,phase_1,,,,,,,,,,,,,yellow,triangle
0.0,2.0,0.0,0.0,3.0,3.0,374.8440646832023,1.0,1.0,phase_1,,,,,,,,,,,,,orange,circle
413.0,4.0,4.0,0.0,4.0,4.0,319.9566016046447,1.0,1.0,phase_1,,,,,,,,,,,,,gray,square
114.0,6.0,1.0,1.0,3.0,3.0,386.2371686036567,1.0,1.0,phase_1,,,,,,,,,,,,,yellow,triangle
221.0,7.0,2.0,1.0,4.0,4.0,376.5122936047191,1.0,1.0,phase_1,,,,,,,,,,,,,white,hexagon
0.0,1.0,0.0,0.0,3.0,3.0,330.8430535244042,1.0,1.0,phase_1,,,,,,,,,,,,,blue,diamond
0.0,8.0,0.0,1.0,1.0,1.0,378.8066086835897,1.0,1.0,phase_1,,,,,,,,,,,,,cyan,I
0.0,7.0,0.0,1.0,3.0,3.0,311.4096326044091,1.0,1.0,phase_1,,,,,,,,,,,,,white,hexagon
404.0,4.0,4.0,0.0,3.0,3.0,345.9868083664332,1.0,1.0,phase_1,,,,,,,,,,,,,gray,square
0.0,2.0,0.0,0.0,3.0,3.0,391.1987393657909,1.0,1.0,phase_1,,,,,,,,,,,,,orange,circle
125.0,6.0,1.0,1.0,2.0,2.0,324.6462578417777,1.0,1.0,phase_1,,,,,,,,,,,,,yellow,triangle
52.0,1.0,0.5,0.0,2.0,2.0,346.8640506835072,1.0,1.0,phase_1,,,,,,,,,,,,,blue,diamond
197.0,3.0,2.0,0.0,4.0,4.0,257.783695841681,1.0,2.0,phase_1,,,,,,,,,,,,,magenta,cross
0.0,8.0,0.0,1.0,4.0,4.0,349.1976669210999,1.0,1.0,phase_1,,,,,,,,,,,,,cyan,I
409.0,8.0,4.0,1.0,1.0,1.0,372.0201227615689,1.0,1.0,phase_1,,,,,,,,,,,,,cyan,I
82.0,6.0,1.0,1.0,3.0,3.0,427.2959986046771,1.0,1.0,phase_1,,,,,,,,,,,,,yellow,triangle
0.0,3.0,0.0,0.0,4.0,4.0,350.5239474452537,1.0,1.0,phase_1,,,,,,,,,,,,,magenta,cross
0.0,2.0,0.0,0.0,3.0,3.0,395.1777798411058,1.0,1.0,phase_1,,,,,,,,,,,,,orange,circle
99.0,2.0,1.0,0.0,4.0,4.0,350.9525297613436,1.0,1.0,phase_1,,,,,,,,,,,,,orange,circle
208.0,7.0,2.0,1.0,1.0,1.0,431.7381186838247,1.0,1.0,phase_1,,,,,,,,,,,,,white,hexagon
397.0,4.0,4.0,0.0,4.0,4.0,342.146195604073,1.0,1.0,phase_1,,,,,,,,,,,,,gray,square
0.0,8.0,0.0,1.0,2.0,2.0,320.1384084459278,1.0,1.0,phase_1,,,,,,,,,,,,,cyan,I
213.0,7.0,2.0,1.0,1.0,1.0,420.3269006839036,1.0,1.0,phase_1,,,,,,,,,,,,,white,hexagon
0.0,1.0,0.0,0.0,1.0,1.0,343.582675761354,1.0,1.0,phase_1,,,,,,,,,,,,,blue,diamond
190.0,7.0,2.0,1.0,4.0,4.0,355.4497416043887,1.0,1.0,phase_1,,,,,,,,,,,,,white,hexagon
423.0,4.0,4.0,0.0,1.0,1.0,489.19852184099,1.0,1.0,phase_1,,,,,,,,,,,,,gray,square
56.0,1.0,0.5,0.0,2.0,2.0,333.4504899212334,1.0,1.0,phase_1,,,,,,,,,,,,,blue,diamond
76.0,2.0,1.0,0.0,1.0,1.0,344.5188103660257,1.0,1.0,phase_1,,,,,,,,,,,,,orange,circle
101.0,6.0,1.0,1.0,4.0,4.0,344.7532508416771,1.0,1.0,phase_1,,,,,,,,,,,,,yellow,triangle
77.0,2.0,1.0,0.0,4.0,4.0,571.960791683523,2.0,1.0,phase_1,,,,,,,,,,,,,orange,circle
392.0,8.0,4.0,1.0,2.0,2.0,348.0386098408417,2.0,1.0,phase_1,,,,,,,,,,,,,cyan,I
28.0,5.0,0.5,1.0,4.0,4.0,326.2711395254882,2.0,1.0,phase_1,,,,,,,,,,,,,green,flipped triangle
30.0,1.0,0.5,0.0,3.0,3.0,348.8350716834247,2.0,1.0,phase_1,,,,,,,,,,,,,blue,diamond
0.0,1.0,0.0,0.0,1.0,1.0,327.3346555251919,2.0,1.0,phase_1,,,,,,,,,,,,,blue,diamond
62.0,1.0,0.5,0.0,4.0,4.0,339.3620004453623,2.0,1.0,phase_1,,,,,,,,,,,,,blue,diamond
185.0,7.0,2.0,1.0,3.0,3.0,283.6082707617606,2.0,1.0,phase_1,,,,,,,,,,,,,white,hexagon
213.0,7.0,2.0,1.0,3.0,3.0,350.8739279996007,2.0,1.0,phase_1,,,,,,,,,,,,,white,hexagon
104.0,2.0,1.0,0.0,1.0,1.0,331.0189928415639,2.0,1.0,phase_1,,,,,,,,,,,,,orange,circle
0.0,6.0,0.0,1.0,4.0,4.0,341.9019995244525,2.0,1.0,phase_1,,,,,,,,,,,,,yellow,triangle
96.0,2.0,1.0,0.0,1.0,1.0,374.9621186834702,2.0,1.0,phase_1,,,,,,,,,,,,,orange,circle
0.0,8.0,0.0,1.0,4.0,4.0,309.1461659214474,2.0,1.0,phase_1,,,,,,,,,,,,,cyan,I
211.0,7.0,2.0,1.0,2.0,2.0,354.089948525143,2.0,1.0,phase_1,,,,,,,,,,,,,white,hexagon
182.0,7.0,2.0,1.0,1.0,1.0,387.7119818416759,2.0,1.0,phase_1,,,,,,,,,,,,,white,hexagon
68.0,5.0,0.5,1.0,3.0,3.0,446.0671708420705,2.0,1.0,phase_1,,,,,,,,,,,,,green,flipped triangle
0.0,1.0,0.0,0.0,4.0,4.0,346.1770654457723,2.0,1.0,phase_1,,,,,,,,,,,,,blue,diamond
392.0,8.0,4.0,1.0,2.0,2.0,288.7103709199436,2.0,1.0,phase_1,,,,,,,,,,,,,cyan,I
92.0,2.0,1.0,0.0,2.0,2.0,334.8941837621169,2.0,1.0,phase_1,,,,,,,,,,,,,orange,circle
0.0,2.0,0.0,0.0,1.0,1.0,347.3809596043793,2.0,1.0,phase_1,,,,,,,,,,,,,orange,circle
392.0,8.0,4.0,1.0,1.0,1.0,335.1711125251313,2.0,1.0,phase_1,,,,,,,,,,,,,cyan,I
47.0,1.0,0.5,0.0,3.0,3.0,336.8421637624124,2.0,1.0,phase_1,,,,,,,,,,,,,blue,diamond
65.0,5.0,0.5,1.0,1.0,1.0,292.6663696835021,2.0,1.0,phase_1,,,,,,,,,,,,,green,flipped triangle
73.0,1.0,0.5,0.0,4.0,4.0,292.0557465249658,2.0,1.0,phase_1,,,,,,,,,,,,,blue,diamond
213.0,3.0,2.0,0.0,3.0,3.0,382.7950498416612,2.0,1.0,phase_1,,,,,,,,,,,,,magenta,cross
0.0,7.0,0.0,1.0,3.0,3.0,360.2690332872953,2.0,1.0,phase_1,,,,,,,,,,,,,white,hexagon
0.0,3.0,0.0,0.0,2.0,2.0,328.6576413665898,2.0,1.0,phase_1,,,,,,,,,,,,,magenta,cross
403.0,8.0,4.0,1.0,2.0,2.0,383.8220359211846,2.0,1.0,phase_1,,,,,,,,,,,,,cyan,I
388.0,8.0,4.0,1.0,3.0,3.0,362.3040196844158,2.0,1.0,phase_1,,,,,,,,,,,,,cyan,I
388.0,8.0,4.0,1.0,4.0,4.0,374.7990448418932,2.0,1.0,phase_1,,,,,,,,,,,,,cyan,I
100.0,6.0,1.0,1.0,1.0,1.0,329.2706296042524,2.0,1.0,phase_1,,,,,,,,,,,,,yellow,triangle
62.0,1.0,0.5,0.0,3.0,3.0,341.6735329201401,2.0,1.0,phase_1,,,,,,,,,,,,,blue,diamond
32.0,5.0,0.5,1.0,1.0,1.0,263.502337286809,2.0,2.0,phase_1,,,,,,,,,,,,,green,flipped triangle
0.0,5.0,0.0,1.0,4.0,4.0,342.0922945242637,2.0,1.0,phase_1,,,,,,,,,,,,,green,flipped triangle
104.0,6.0,1.0,1.0,2.0,2.0,535.3824423664264,2.0,1.0,phase_1,,,,,,,,,,,,,yellow,triangle
0.0,2.0,0.0,0.0,4.0,4.0,343.397022604222,2.0,1.0,phase_1,,,,,,,,,,,,,orange,circle
392.0,4.0,4.0,0.0,2.0,2.0,356.3107416048297,2.0,1.0,phase_1,,,,,,,,,,,,,gray,square
116.0,2.0,1.0,0.0,2.0,2.0,322.5897956835979,2.0,1.0,phase_1,,,,,,,,,,,,,orange,circle
91.0,6.0,1.0,1.0,2.0,2.0,302.3083506041075,2.0,1.0,phase_1,,,,,,,,,,,,,yellow,triangle
66.0,1.0,0.5,0.0,4.0,4.0,381.1273317624,2.0,1.0,phase_1,,,,,,,,,,,,,blue,diamond
393.0,4.0,4.0,0.0,2.0,2.0,335.9556588411578,2.0,1.0,phase_1,,,,,,,,,,,,,gray,square
81.0,2.0,1.0,0.0,4.0,4.0,359.6569899200403,2.0,1.0,phase_1,,,,,,,,,,,,,orange,circle
106.0,6.0,1.0,1.0,3.0,3.0,380.7183535245713,2.0,1.0,phase_1,,,,,,,,,,,,,yellow,triangle
115.0,2.0,1.0,0.0,2.0,2.0,417.3493374455574,2.0,1.0,phase_1,,,,,,,,,,,,,orange,circle
396.0,8.0,4.0,1.0,3.0,3.0,394.2469759995219,2.0,1.0,phase_1,,,,,,,,,,,,,cyan,I
76.0,6.0,1.0,1.0,1.0,1.0,383.4134735243424,2.0,1.0,phase_1,,,,,,,,,,,,,yellow,triangle
225.0,7.0,2.0,1.0,2.0,2.0,293.276618524942,2.0,1.0,phase_1,,,,,,,,,,,,,white,hexagon
61.0,5.0,0.5,1.0,1.0,1.0,395.0312644465157,2.0,1.0,phase_1,,,,,,,,,,,,,green,flipped triangle
375.0,4.0,4.0,0.0,4.0,4.0,339.9849585248375,2.0,1.0,phase_1,,,,,,,,,,,,,gray,square
0.0,7.0,0.0,1.0,1.0,1.0,342.042480921009,2.0,1.0,phase_1,,,,,,,,,,,,,white,hexagon
407.0,4.0,4.0,0.0,3.0,3.0,351.2261826836038,2.0,1.0,phase_1,,,,,,,,,,,,,gray,square
198.0,7.0,2.0,1.0,3.0,3.0,364.0949919208651,2.0,1.0,phase_1,,,,,,,,,,,,,white,hexagon
378.0,4.0,4.0,0.0,1.0,1.0,353.0565166038286,2.0,1.0,phase_1,,,,,,,,,,,,,gray,square
208.0,3.0,2.0,0.0,1.0,1.0,467.794267604404,2.0,1.0,phase_1,,,,,,,,,,,,,magenta,cross
92.0,6.0,1.0,1.0,4.0,4.0,389.4598407623562,2.0,1.0,phase_1,,,,,,,,,,,,,yellow,triangle
391.0,8.0,4.0,1.0,1.0,1.0,433.357760920444,2.0,1.0,phase_1,,,,,,,,,,,,,cyan,I
104.0,2.0,1.0,0.0,2.0,2.0,344.5010687619287,2.0,1.0,phase_1,,,,,,,,,,,,,orange,circle
194.0,3.0,2.0,0.0,1.0,1.0,322.3124848409497,2.0,1.0,phase_1,,,,,,,,,,,,,magenta,cross
105.0,6.0,1.0,1.0,3.0,3.0,378.4726266840152,2.0,1.0,phase_1,,,,,,,,,,,,,yellow,triangle
27.0,1.0,0.5,0.0,4.0,4.0,391.098754761515,2.0,1.0,phase_1,,,,,,,,,,,,,blue,diamond
81.0,6.0,1.0,1.0,2.0,2.0,314.3971796043843,2.0,1.0,phase_1,,,,,,,,,,,,,yellow,triangle
217.0,7.0,2.0,1.0,1.0,1.0,324.328843920739,2.0,1.0,phase_1,,,,,,,,,,,,,white,hexagon
0.0,8.0,0.0,1.0,2.0,2.0,348.7085504457354,2.0,1.0,phase_1,,,,,,,,,,,,,cyan,I
123.0,2.0,1.0,0.0,1.0,1.0,360.7578987621309,2.0,1.0,phase_1,,,,,,,,,,,,,orange,circle
407.0,8.0,4.0,1.0,4.0,4.0,314.3299156045032,2.0,1.0,phase_1,,,,,,,,,,,,,cyan,I
0.0,4.0,0.0,0.0,4.0,4.0,326.5500924462685,2.0,1.0,phase_1,,,,,,,,,,,,,gray,square
0.0,6.0,0.0,1.0,3.0,3.0,361.6319007624042,2.0,2.0,phase_1,,,,,,,,,,,,,yellow,triangle
0.0,5.0,0.0,1.0,2.0,2.0,339.4381958414669,2.0,1.0,phase_1,,,,,,,,,,,,,green,flipped triangle
0.0,6.0,0.0,1.0,3.0,3.0,408.1564753660132,2.0,1.0,phase_1,,,,,,,,,,,,,yellow,triangle
181.0,7.0,2.0,1.0,2.0,2.0,306.6858913662145,2.0,1.0,phase_1,,,,,,,,,,,,,white,hexagon
179.0,3.0,2.0,0.0,1.0,1.0,376.0310946045138,2.0,1.0,phase_1,,,,,,,,,,,,,magenta,cross
55.0,5.0,0.5,1.0,2.0,2.0,364.1365955254514,2.0,1.0,phase_1,,,,,,,,,,,,,green,flipped triangle
102.0,6.0,1.0,1.0,1.0,1.0,308.5594876829418,2.0,1.0,phase_1,,,,,,,,,,,,,yellow,triangle
392.0,4.0,4.0,0.0,2.0,2.0,310.5739199208983,2.0,1.0,phase_1,,,,,,,,,,,,,gray,square
41.0,5.0,0.5,1.0,3.0,3.0,342.6190105255955,2.0,1.0,phase_1,,,,,,,,,,,,,green,flipped triangle
413.0,4.0,4.0,0.0,4.0,4.0,356.4227924462102,2.0,1.0,phase_1,,,,,,,,,,,,,gray,square
88.0,2.0,1.0,0.0,3.0,3.0,366.0900003669667,2.0,1.0,phase_1,,,,,,,,,,,,,orange,circle
216.0,7.0,2.0,1.0,2.0,2.0,389.7723547615896,2.0,1.0,phase_1,,,,,,,,,,,,,white,hexagon
88.0,6.0,1.0,1.0,4.0,4.0,333.7650827625111,2.0,1.0,phase_1,,,,,,,,,,,,,yellow,triangle
116.0,6.0,1.0,1.0,4.0,4.0,357.644360604354,2.0,1.0,phase_1,,,,,,,,,,,,,yellow,triangle
96.0,2.0,1.0,0.0,3.0,3.0,335.4109387619246,2.0,1.0,phase_1,,,,,,,,,,,,,orange,circle
193.0,7.0,2.0,1.0,4.0,4.0,324.0729395247399,2.0,1.0,phase_1,,,,,,,,,,,,,white,hexagon
43.0,1.0,0.5,0.0,3.0,3.0,302.1133546044439,2.0,1.0,phase_1,,,,,,,,,,,,,blue,diamond
36.0,1.0,0.5,0.0,2.0,2.0,304.6460412870146,2.0,1.0,phase_1,,,,,,,,,,,,,blue,diamond
423.0,8.0,4.0,1.0,3.0,3.0,326.1663036046229,2.0,1.0,phase_1,,,,,,,,,,,,,cyan,I
46.0,5.0,0.5,1.0,2.0,2.0,373.8433634462126,2.0,1.0,phase_1,,,,,,,,,,,,,green,flipped triangle
102.0,2.0,1.0,0.0,1.0,1.0,329.0329124456548,2.0,1.0,phase_1,,,,,,,,,,,,,orange,circle
407.0,4.0,4.0,0.0,2.0,2.0,374.1663599212188,2.0,1.0,phase_1,,,,,,,,,,,,,gray,square
192.0,7.0,2.0,1.0,2.0,2.0,351.6845576041305,2.0,1.0,phase_1,,,,,,,,,,,,,white,hexagon
40.0,5.0,0.5,1.0,1.0,1.0,387.0554852874193,2.0,1.0,phase_1,,,,,,,,,,,,,green,flipped triangle
398.0,4.0,4.0,0.0,4.0,4.0,318.138305841785,2.0,1.0,phase_1,,,,,,,,,,,,,gray,square
29.0,1.0,0.5,0.0,2.0,2.0,352.1712445253797,2.0,1.0,phase_1,,,,,,,,,,,,,blue,diamond
0.0,7.0,0.0,1.0,2.0,2.0,330.2922873663192,2.0,1.0,phase_1,,,,,,,,,,,,,white,hexagon
190.0,7.0,2.0,1.0,2.0,2.0,288.2148486842197,2.0,1.0,phase_1,,,,,,,,,,,,,white,hexagon
175.0,3.0,2.0,0.0,4.0,4.0,376.3905358418924,2.0,1.0,phase_1,,,,,,,,,,,,,magenta,cross
122.0,2.0,1.0,0.0,3.0,3.0,343.0411556837498,2.0,1.0,phase_1,,,,,,,,,,,,,orange,circle
100.0,2.0,1.0,0.0,4.0,4.0,355.3777186043589,2.0,1.0,phase_1,,,,,,,,,,,,,orange,circle
42.0,5.0,0.5,1.0,3.0,3.0,322.7793968417245,2.0,1.0,phase_1,,,,,,,,,,,,,green,flipped triangle
0.0,4.0,0.0,0.0,1.0,1.0,356.6428827616619,2.0,1.0,phase_1,,,,,,,,,,,,,gray,square
89.0,6.0,1.0,1.0,4.0,4.0,538.0115114458022,2.0,1.0,phase_1,,,,,,,,,,,,,yellow,triangle
0.0,8.0,0.0,1.0,1.0,1.0,393.2308857620228,2.0,1.0,phase_1,,,,,,,,,,,,,cyan,I
0.0,2.0,0.0,0.0,2.0,2.0,465.781153367061,3.0,1.0,phase_1,,,,,,,,,,,,,orange,circle
424.0,8.0,4.0,1.0,2.0,2.0,332.5461709200681,3.0,1.0,phase_1,,,,,,,,,,,,,cyan,I
209.0,3.0,2.0,0.0,2.0,2.0,309.3805209200582,3.0,1.0,phase_1,,,,,,,,,,,,,magenta,cross
0.0,1.0,0.0,0.0,1.0,1.0,344.2741082380962,3.0,1.0,phase_1,,,,,,,,,,,,,blue,diamond
175.0,7.0,2.0,1.0,1.0,1.0,323.341916841855,3.0,1.0,phase_1,,,,,,,,,,,,,white,hexagon
43.0,5.0,0.5,1.0,3.0,3.0,301.8860653664887,3.0,1.0,phase_1,,,,,,,,,,,,,green,flipped triangle
0.0,6.0,0.0,1.0,4.0,4.0,347.0512416042766,3.0,1.0,phase_1,,,,,,,,,,,,,yellow,triangle
29.0,5.0,0.5,1.0,2.0,2.0,335.3782097619842,3.0,1.0,phase_1,,,,,,,,,,,,,green,flipped triangle
0.0,4.0,0.0,0.0,2.0,2.0,392.1562376044676,3.0,1.0,phase_1,,,,,,,,,,,,,gray,square
91.0,6.0,1.0,1.0,1.0,1.0,370.1312376833812,3.0,1.0,phase_1,,,,,,,,,,,,,yellow,triangle
91.0,2.0,1.0,0.0,3.0,3.0,425.6904968415256,3.0,1.0,phase_1,,,,,,,,,,,,,orange,circle
0.0,8.0,0.0,1.0,4.0,4.0,338.3860519206791,3.0,1.0,phase_1,,,,,,,,,,,,,cyan,I
405.0,4.0,4.0,0.0,2.0,2.0,304.0951793664135,3.0,1.0,phase_1,,,,,,,,,,,,,gray,square
0.0,6.0,0.0,1.0,1.0,1.0,349.2846118406305,3.0,1.0,phase_1,,,,,,,,,,,,,yellow,triangle
0.0,5.0,0.0,1.0,1.0,1.0,295.3972025252369,3.0,2.0,phase_1,,,,,,,,,,,,,green,flipped triangle
92.0,6.0,1.0,1.0,2.0,2.0,477.0451158419746,3.0,2.0,phase_1,,,,,,,,,,,,,yellow,triangle
401.0,4.0,4.0,0.0,3.0,3.0,362.5413783665863,3.0,1.0,phase_1,,,,,,,,,,,,,gray,square
395.0,4.0,4.0,0.0,2.0,2.0,364.4890668419975,3.0,1.0,phase_1,,,,,,,,,,,,,gray,square
409.0,4.0,4.0,0.0,1.0,1.0,398.05941928716487,3.0,1.0,phase_1,,,,,,,,,,,,,gray,square
413.0,8.0,4.0,1.0,4.0,4.0,466.8332997625839,3.0,1.0,phase_1,,,,,,,,,,,,,cyan,I
190.0,3.0,2.0,0.0,3.0,3.0,365.7423797621959,3.0,1.0,phase_1,,,,,,,,,,,,,magenta,cross
0.0,6.0,0.0,1.0,4.0,4.0,421.862329841133,3.0,1.0,phase_1,,,,,,,,,,,,,yellow,triangle
40.0,1.0,0.5,0.0,1.0,1.0,400.5424109209343,3.0,1.0,phase_1,,,,,,,,,,,,,blue,diamond
56.0,5.0,0.5,1.0,2.0,2.0,458.5962793662475,3.0,1.0,phase_1,,,,,,,,,,,,,green,flipped triangle
209.0,7.0,2.0,1.0,3.0,3.0,401.0048086829556,3.0,1.0,phase_1,,,,,,,,,,,,,white,hexagon
204.0,3.0,2.0,0.0,2.0,2.0,401.9802204456937,3.0,1.0,phase_1,,,,,,,,,,,,,magenta,cross
194.0,7.0,2.0,1.0,4.0,4.0,392.9123393663758,3.0,1.0,phase_1,,,,,,,,,,,,,white,hexagon
401.0,8.0,4.0,1.0,3.0,3.0,425.4160453665463,3.0,1.0,phase_1,,,,,,,,,,,,,cyan,I
411.0,8.0,4.0,1.0,2.0,2.0,314.4684756844071,3.0,1.0,phase_1,,,,,,,,,,,,,cyan,I
384.0,4.0,4.0,0.0,4.0,4.0,359.2017953660615,3.0,1.0,phase_1,,,,,,,,,,,,,gray,square
0.0,3.0,0.0,0.0,2.0,2.0,282.3980412867968,3.0,1.0,phase_1,,,,,,,,,,,,,magenta,cross
0.0,5.0,0.0,1.0,3.0,3.0,315.104363525279,3.0,1.0,phase_1,,,,,,,,,,,,,green,flipped triangle
116.0,2.0,1.0,0.0,2.0,2.0,282.2226216840136,3.0,1.0,phase_1,,,,,,,,,,,,,orange,circle
106.0,2.0,1.0,0.0,4.0,4.0,328.9184457617011,3.0,1.0,phase_1,,,,,,,,,,,,,orange,circle
81.0,2.0,1.0,0.0,4.0,4.0,284.6219135253705,3.0,2.0,phase_1,,,,,,,,,,,,,orange,circle
59.0,1.0,0.5,0.0,3.0,3.0,407.9677255249407,3.0,1.0,phase_1,,,,,,,,,,,,,blue,diamond
197.0,7.0,2.0,1.0,1.0,1.0,419.4010523669931,3.0,1.0,phase_1,,,,,,,,,,,,,white,hexagon
42.0,1.0,0.5,0.0,1.0,1.0,354.5739439205135,3.0,1.0,phase_1,,,,,,,,,,,,,blue,diamond
77.0,6.0,1.0,1.0,2.0,2.0,331.1844629206462,3.0,1.0,phase_1,,,,,,,,,,,,,yellow,triangle
35.0,5.0,0.5,1.0,4.0,4.0,422.5778276040728,3.0,1.0,phase_1,,,,,,,,,,,,,green,flipped triangle
393.0,8.0,4.0,1.0,3.0,3.0,409.9526298414275,3.0,1.0,phase_1,,,,,,,,,,,,,cyan,I
396.0,4.0,4.0,0.0,2.0,2.0,366.9466783667303,3.0,1.0,phase_1,,,,,,,,,,,,,gray,square
111.0,2.0,1.0,0.0,1.0,1.0,400.6191305252287,3.0,1.0,phase_1,,,,,,,,,,,,,orange,circle
96.0,6.0,1.0,1.0,1.0,1.0,389.9259496047307,3.0,1.0,phase_1,,,,,,,,,,,,,yellow,triangle
122.0,6.0,1.0,1.0,3.0,3.0,390.77230392013,3.0,1.0,phase_1,,,,,,,,,,,,,yellow,triangle
423.0,8.0,4.0,1.0,2.0,2.0,368.1146418412027,3.0,1.0,phase_1,,,,,,,,,,,,,cyan,I
0.0,4.0,0.0,0.0,3.0,3.0,572.1284866840506,3.0,1.0,phase_1,,,,,,,,,,,,,gray,square
115.0,2.0,1.0,0.0,1.0,1.0,393.7960273660792,3.0,1.0,phase_1,,,,,,,,,,,,,orange,circle
0.0,6.0,0.0,1.0,1.0,1.0,359.2081536044134,3.0,1.0,phase_1,,,,,,,,,,,,,yellow,triangle
182.0,3.0,2.0,0.0,4.0,4.0,392.6966649214591,3.0,1.0,phase_1,,,,,,,,,,,,,magenta,cross
0.0,5.0,0.0,1.0,2.0,2.0,270.4807256832282,3.0,1.0,phase_1,,,,,,,,,,,,,green,flipped triangle
0.0,1.0,0.0,0.0,3.0,3.0,383.9136125243385,3.0,1.0,phase_1,,,,,,,,,,,,,blue,diamond
208.0,3.0,2.0,0.0,3.0,3.0,405.9529013657084,3.0,1.0,phase_1,,,,,,,,,,,,,magenta,cross
123.0,6.0,1.0,1.0,2.0,2.0,306.4550004455668,3.0,1.0,phase_1,,,,,,,,,,,,,yellow,triangle
120.0,2.0,1.0,0.0,1.0,1.0,373.4372297612935,3.0,1.0,phase_1,,,,,,,,,,,,,orange,circle
49.0,1.0,0.5,0.0,1.0,1.0,317.5566235249789,3.0,1.0,phase_1,,,,,,,,,,,,,blue,diamond
36.0,5.0,0.5,1.0,3.0,3.0,408.8822346839151,3.0,1.0,phase_1,,,,,,,,,,,,,green,flipped triangle
225.0,7.0,2.0,1.0,2.0,2.0,296.1347558411944,3.0,1.0,phase_1,,,,,,,,,,,,,white,hexagon
197.0,7.0,2.0,1.0,2.0,2.0,287.0884285257489,3.0,1.0,phase_1,,,,,,,,,,,,,white,hexagon
0.0,3.0,0.0,0.0,1.0,1.0,353.6585718411515,3.0,1.0,phase_1,,,,,,,,,,,,,magenta,cross
98.0,2.0,1.0,0.0,1.0,1.0,343.4650775252521,3.0,1.0,phase_1,,,,,,,,,,,,,orange,circle
404.0,8.0,4.0,1.0,4.0,4.0,354.5331988416365,3.0,1.0,phase_1,,,,,,,,,,,,,cyan,I
49.0,5.0,0.5,1.0,1.0,1.0,379.6698007618033,3.0,1.0,phase_1,,,,,,,,,,,,,green,flipped triangle
213.0,3.0,2.0,0.0,3.0,3.0,356.4837184458156,3.0,1.0,phase_1,,,,,,,,,,,,,magenta,cross
407.0,8.0,4.0,1.0,4.0,4.0,345.7910976840139,3.0,1.0,phase_1,,,,,,,,,,,,,cyan,I
0.0,1.0,0.0,0.0,2.0,2.0,561.3977357625117,3.0,1.0,phase_1,,,,,,,,,,,,,blue,diamond
46.0,1.0,0.5,0.0,2.0,2.0,346.2040727617932,3.0,1.0,phase_1,,,,,,,,,,,,,blue,diamond
124.0,6.0,1.0,1.0,1.0,1.0,359.814549920884,3.0,1.0,phase_1,,,,,,,,,,,,,yellow,triangle
46.0,5.0,0.5,1.0,1.0,1.0,381.1741425242871,3.0,1.0,phase_1,,,,,,,,,,,,,green,flipped triangle
70.0,1.0,0.5,0.0,4.0,4.0,393.7630808413814,3.0,1.0,phase_1,,,,,,,,,,,,,blue,diamond
63.0,5.0,0.5,1.0,3.0,3.0,338.5287928413163,3.0,1.0,phase_1,,,,,,,,,,,,,green,flipped triangle
376.0,4.0,4.0,0.0,1.0,1.0,293.2305509202706,3.0,1.0,phase_1,,,,,,,,,,,,,gray,square
200.0,7.0,2.0,1.0,1.0,1.0,329.0184574452723,3.0,1.0,phase_1,,,,,,,,,,,,,white,hexagon
389.0,4.0,4.0,0.0,4.0,4.0,405.8396497621288,3.0,1.0,phase_1,,,,,,,,,,,,,gray,square
0.0,5.0,0.0,1.0,1.0,1.0,375.1242186835952,3.0,1.0,phase_1,,,,,,,,,,,,,green,flipped triangle
55.0,1.0,0.5,0.0,3.0,3.0,384.2606223670373,3.0,1.0,phase_1,,,,,,,,,,,,,blue,diamond
176.0,7.0,2.0,1.0,4.0,4.0,330.4912189705646,3.0,1.0,phase_1,,,,,,,,,,,,,white,hexagon
42.0,5.0,0.5,1.0,4.0,4.0,363.576593761536,3.0,1.0,phase_1,,,,,,,,,,,,,green,flipped triangle
52.0,5.0,0.5,1.0,3.0,3.0,364.3031954452453,3.0,1.0,phase_1,,,,,,,,,,,,,green,flipped triangle
176.0,3.0,2.0,0.0,4.0,4.0,364.1551572864046,3.0,1.0,phase_1,,,,,,,,,,,,,magenta,cross
395.0,8.0,4.0,1.0,4.0,4.0,400.0910004451725,3.0,1.0,phase_1,,,,,,,,,,,,,cyan,I
120.0,6.0,1.0,1.0,4.0,4.0,355.0112570792407,3.0,1.0,phase_1,,,,,,,,,,,,,yellow,triangle
418.0,8.0,4.0,1.0,1.0,1.0,434.0218466832084,3.0,1.0,phase_1,,,,,,,,,,,,,cyan,I
175.0,7.0,2.0,1.0,2.0,2.0,389.9740678416492,3.0,1.0,phase_1,,,,,,,,,,,,,white,hexagon
221.0,3.0,2.0,0.0,4.0,4.0,367.9601806834398,3.0,1.0,phase_1,,,,,,,,,,,,,magenta,cross
381.0,4.0,4.0,0.0,3.0,3.0,424.7048464458203,3.0,1.0,phase_1,,,,,,,,,,,,,gray,square
403.0,4.0,4.0,0.0,4.0,4.0,380.2250376838856,3.0,1.0,phase_1,,,,,,,,,,,,,gray,square
96.0,6.0,1.0,1.0,3.0,3.0,356.909193366846,3.0,1.0,phase_1,,,,,,,,,,,,,yellow,triangle
116.0,6.0,1.0,1.0,4.0,4.0,357.8673656838873,3.0,1.0,phase_1,,,,,,,,,,,,,yellow,triangle
115.0,6.0,1.0,1.0,2.0,2.0,315.4823515251337,3.0,1.0,phase_1,,,,,,,,,,,,,yellow,triangle
387.0,8.0,4.0,1.0,4.0,4.0,394.65041276162077,3.0,1.0,phase_1,,,,,,,,,,,,,cyan,I
185.0,7.0,2.0,1.0,2.0,2.0,337.6114287621021,3.0,1.0,phase_1,,,,,,,,,,,,,white,hexagon
98.0,6.0,1.0,1.0,4.0,4.0,371.7056403665992,3.0,1.0,phase_1,,,,,,,,,,,,,yellow,triangle
204.0,7.0,2.0,1.0,3.0,3.0,193.9571196835459,3.0,2.0,phase_1,,,,,,,,,,,,,white,hexagon
180.0,3.0,2.0,0.0,2.0,2.0,329.6748875254707,3.0,1.0,phase_1,,,,,,,,,,,,,magenta,cross
63.0,1.0,0.5,0.0,3.0,3.0,375.1297289209105,3.0,1.0,phase_1,,,,,,,,,,,,,blue,diamond
389.0,8.0,4.0,1.0,2.0,2.0,352.5756554454347,3.0,1.0,phase_1,,,,,,,,,,,,,cyan,I
424.0,4.0,4.0,0.0,1.0,1.0,465.70901652467,3.0,1.0,phase_1,,,,,,,,,,,,,gray,square
73.0,5.0,0.5,1.0,2.0,2.0,307.7588575251866,3.0,1.0,phase_1,,,,,,,,,,,,,green,flipped triangle
418.0,4.0,4.0,0.0,2.0,2.0,365.6643276835893,3.0,1.0,phase_1,,,,,,,,,,,,,gray,square
89.0,2.0,1.0,0.0,4.0,4.0,392.0484004456739,4.0,1.0,phase_1,,,,,,,,,,,,,orange,circle
0.0,4.0,0.0,0.0,3.0,3.0,369.4771318414496,4.0,1.0,phase_1,,,,,,,,,,,,,gray,square
201.0,3.0,2.0,0.0,2.0,2.0,337.2809494458124,4.0,1.0,phase_1,,,,,,,,,,,,,magenta,cross
31.0,1.0,0.5,0.0,2.0,2.0,360.7075726840776,4.0,1.0,phase_1,,,,,,,,,,,,,blue,diamond
0.0,7.0,0.0,1.0,2.0,2.0,327.919500761709,4.0,1.0,phase_1,,,,,,,,,,,,,white,hexagon
67.0,5.0,0.5,1.0,1.0,1.0,372.7490436831431,4.0,1.0,phase_1,,,,,,,,,,,,,green,flipped triangle
390.0,4.0,4.0,0.0,1.0,1.0,361.4830007618366,4.0,1.0,phase_1,,,,,,,,,,,,,gray,square
61.0,1.0,0.5,0.0,1.0,1.0,339.5660209207563,4.0,1.0,phase_1,,,,,,,,,,,,,blue,diamond
68.0,1.0,0.5,0.0,3.0,3.0,418.4115246835063,4.0,1.0,phase_1,,,,,,,,,,,,,blue,diamond
0.0,2.0,0.0,0.0,1.0,1.0,329.9928735250432,4.0,1.0,phase_1,,,,,,,,,,,,,orange,circle
43.0,1.0,0.5,0.0,3.0,3.0,364.4141748418406,4.0,1.0,phase_1,,,,,,,,,,,,,blue,diamond
35.0,1.0,0.5,0.0,2.0,2.0,319.3968666046203,4.0,1.0,phase_1,,,,,,,,,,,,,blue,diamond
0.0,7.0,0.0,1.0,2.0,2.0,355.4224386043643,4.0,1.0,phase_1,,,,,,,,,,,,,white,hexagon
0.0,3.0,0.0,0.0,3.0,3.0,332.6367449208192,4.0,1.0,phase_1,,,,,,,,,,,,,magenta,cross
82.0,2.0,1.0,0.0,2.0,2.0,332.2758306840114,4.0,1.0,phase_1,,,,,,,,,,,,,orange,circle
198.0,3.0,2.0,0.0,4.0,4.0,344.149326841034,4.0,1.0,phase_1,,,,,,,,,,,,,magenta,cross
0.0,1.0,0.0,0.0,4.0,4.0,355.2660209206806,4.0,1.0,phase_1,,,,,,,,,,,,,blue,diamond
30.0,5.0,0.5,1.0,2.0,2.0,300.9459617624088,4.0,1.0,phase_1,,,,,,,,,,,,,green,flipped triangle
62.0,5.0,0.5,1.0,4.0,4.0,322.7893385255811,4.0,1.0,phase_1,,,,,,,,,,,,,green,flipped triangle
209.0,3.0,2.0,0.0,4.0,4.0,358.5367786035931,4.0,1.0,phase_1,,,,,,,,,,,,,magenta,cross
423.0,4.0,4.0,0.0,1.0,1.0,279.005030603912,4.0,1.0,phase_1,,,,,,,,,,,,,gray,square
76.0,2.0,1.0,0.0,3.0,3.0,259.0768017626033,4.0,2.0,phase_1,,,,,,,,,,,,,orange,circle
212.0,7.0,2.0,1.0,3.0,3.0,280.5367265336826,4.0,1.0,phase_1,,,,,,,,,,,,,white,hexagon
197.0,3.0,2.0,0.0,1.0,1.0,350.848233841134,4.0,1.0,phase_1,,,,,,,,,,,,,magenta,cross
0.0,5.0,0.0,1.0,4.0,4.0,350.2289234456839,4.0,1.0,phase_1,,,,,,,,,,,,,green,flipped triangle
194.0,3.0,2.0,0.0,4.0,4.0,304.7581694454493,4.0,1.0,phase_1,,,,,,,,,,,,,magenta,cross
181.0,3.0,2.0,0.0,3.0,3.0,362.4807425248946,4.0,1.0,phase_1,,,,,,,,,,,,,magenta,cross
376.0,8.0,4.0,1.0,4.0,4.0,351.1949798412388,4.0,1.0,phase_1,,,,,,,,,,,,,cyan,I
398.0,8.0,4.0,1.0,4.0,4.0,373.8174655254624,4.0,1.0,phase_1,,,,,,,,,,,,,cyan,I
217.0,3.0,2.0,0.0,3.0,3.0,352.5496493666651,4.0,1.0,phase_1,,,,,,,,,,,,,magenta,cross
180.0,7.0,2.0,1.0,1.0,1.0,386.5686270000878,4.0,1.0,phase_1,,,,,,,,,,,,,white,hexagon
66.0,5.0,0.5,1.0,4.0,4.0,332.2055057624311,4.0,1.0,phase_1,,,,,,,,,,,,,green,flipped triangle
0.0,5.0,0.0,1.0,3.0,3.0,354.5382417614746,4.0,1.0,phase_1,,,,,,,,,,,,,green,flipped triangle
0.0,2.0,0.0,0.0,4.0,4.0,332.6306713661324,4.0,1.0,phase_1,,,,,,,,,,,,,orange,circle
46.0,1.0,0.5,0.0,1.0,1.0,333.0274138415916,4.0,1.0,phase_1,,,,,,,,,,,,,blue,diamond
390.0,8.0,4.0,1.0,3.0,3.0,298.9185585247469,4.0,1.0,phase_1,,,,,,,,,,,,,cyan,I
27.0,5.0,0.5,1.0,4.0,4.0,368.2850615250572,4.0,1.0,phase_1,,,,,,,,,,,,,green,flipped triangle
0.0,8.0,0.0,1.0,3.0,3.0,335.4434846842196,4.0,1.0,phase_1,,,,,,,,,,,,,cyan,I
117.0,2.0,1.0,0.0,4.0,4.0,369.4361427615149,4.0,1.0,phase_1,,,,,,,,,,,,,orange,circle
61.0,5.0,0.5,1.0,1.0,1.0,358.1454804452733,4.0,1.0,phase_1,,,,,,,,,,,,,green,flipped triangle
43.0,5.0,0.5,1.0,2.0,2.0,337.3968387622881,4.0,1.0,phase_1,,,,,,,,,,,,,green,flipped triangle
83.0,2.0,1.0,0.0,2.0,2.0,382.3782374956863,4.0,1.0,phase_1,,,,,,,,,,,,,orange,circle
76.0,6.0,1.0,1.0,3.0,3.0,415.4319086837859,4.0,1.0,phase_1,,,,,,,,,,,,,yellow,triangle
46.0,1.0,0.5,0.0,1.0,1.0,393.9633367617716,4.0,1.0,phase_1,,,,,,,,,,,,,blue,diamond
70.0,5.0,0.5,1.0,3.0,3.0,349.1330016040592,4.0,1.0,phase_1,,,,,,,,,,,,,green,flipped triangle
0.0,7.0,0.0,1.0,2.0,2.0,329.2592614952809,4.0,1.0,phase_1,,,,,,,,,,,,,white,hexagon
208.0,7.0,2.0,1.0,4.0,4.0,384.2639865788442,4.0,1.0,phase_1,,,,,,,,,,,,,white,hexagon
391.0,4.0,4.0,0.0,4.0,4.0,385.85147952562687,4.0,1.0,phase_1,,,,,,,,,,,,,gray,square
387.0,4.0,4.0,0.0,1.0,1.0,341.1562946048434,4.0,1.0,phase_1,,,,,,,,,,,,,gray,square
92.0,2.0,1.0,0.0,3.0,3.0,375.0455025256087,4.0,1.0,phase_1,,,,,,,,,,,,,orange,circle
397.0,8.0,4.0,1.0,1.0,1.0,421.3826735249313,4.0,1.0,phase_1,,,,,,,,,,,,,cyan,I
216.0,3.0,2.0,0.0,3.0,3.0,363.7862614459664,4.0,1.0,phase_1,,,,,,,,,,,,,magenta,cross
76.0,6.0,1.0,1.0,4.0,4.0,354.0058966837023,4.0,1.0,phase_1,,,,,,,,,,,,,yellow,triangle
125.0,2.0,1.0,0.0,3.0,3.0,400.267220366004,4.0,1.0,phase_1,,,,,,,,,,,,,orange,circle
100.0,2.0,1.0,0.0,4.0,4.0,400.335242525216,4.0,1.0,phase_1,,,,,,,,,,,,,orange,circle
104.0,6.0,1.0,1.0,4.0,4.0,311.4974956042715,4.0,1.0,phase_1,,,,,,,,,,,,,yellow,triangle
198.0,3.0,2.0,0.0,2.0,2.0,379.0968972871269,4.0,1.0,phase_1,,,,,,,,,,,,,magenta,cross
418.0,4.0,4.0,0.0,4.0,4.0,346.5330438411911,4.0,1.0,phase_1,,,,,,,,,,,,,gray,square
382.0,4.0,4.0,0.0,3.0,3.0,436.2551366839398,4.0,1.0,phase_1,,,,,,,,,,,,,gray,square
73.0,1.0,0.5,0.0,4.0,4.0,413.4088665250601,4.0,1.0,phase_1,,,,,,,,,,,,,blue,diamond
198.0,7.0,2.0,1.0,1.0,1.0,335.6750093662413,4.0,1.0,phase_1,,,,,,,,,,,,,white,hexagon
190.0,3.0,2.0,0.0,4.0,4.0,325.6315695252851,4.0,1.0,phase_1,,,,,,,,,,,,,magenta,cross
88.0,2.0,1.0,0.0,4.0,4.0,325.5006734461858,4.0,1.0,phase_1,,,,,,,,,,,,,orange,circle
59.0,5.0,0.5,1.0,3.0,3.0,507.0797665248392,4.0,1.0,phase_1,,,,,,,,,,,,,green,flipped triangle
42.0,1.0,0.5,0.0,4.0,4.0,428.1843919998209,4.0,1.0,phase_1,,,,,,,,,,,,,blue,diamond
224.0,7.0,2.0,1.0,4.0,4.0,362.4839354461073,4.0,1.0,phase_1,,,,,,,,,,,,,white,hexagon
418.0,8.0,4.0,1.0,1.0,1.0,351.595218604416,4.0,1.0,phase_1,,,,,,,,,,,,,cyan,I
403.0,4.0,4.0,0.0,2.0,2.0,373.9701563663402,4.0,1.0,phase_1,,,,,,,,,,,,,gray,square
212.0,3.0,2.0,0.0,1.0,1.0,340.0649406048615,4.0,1.0,phase_1,,,,,,,,,,,,,magenta,cross
83.0,6.0,1.0,1.0,2.0,2.0,319.5526646049984,4.0,1.0,phase_1,,,,,,,,,,,,,yellow,triangle
74.0,1.0,0.5,0.0,4.0,4.0,331.4393099208246,4.0,1.0,phase_1,,,,,,,,,,,,,blue,diamond
0.0,3.0,0.0,0.0,3.0,3.0,364.643807525681,4.0,1.0,phase_1,,,,,,,,,,,,,magenta,cross
0.0,4.0,0.0,0.0,2.0,2.0,400.216602841283,4.0,1.0,phase_1,,,,,,,,,,,,,gray,square
98.0,6.0,1.0,1.0,1.0,1.0,332.3231496833614,4.0,1.0,phase_1,,,,,,,,,,,,,yellow,triangle
213.0,7.0,2.0,1.0,1.0,1.0,355.2463158412138,4.0,1.0,phase_1,,,,,,,,,,,,,white,hexagon
73.0,5.0,0.5,1.0,2.0,2.0,390.2420845242886,4.0,1.0,phase_1,,,,,,,,,,,,,green,flipped triangle
111.0,6.0,1.0,1.0,1.0,1.0,323.414033604422,4.0,1.0,phase_1,,,,,,,,,,,,,yellow,triangle
0.0,1.0,0.0,0.0,1.0,1.0,322.4959736044184,4.0,1.0,phase_1,,,,,,,,,,,,,blue,diamond
76.0,2.0,1.0,0.0,1.0,1.0,289.189132604406,4.0,1.0,phase_1,,,,,,,,,,,,,orange,circle
218.0,3.0,2.0,0.0,2.0,2.0,391.88982552423107,4.0,1.0,phase_1,,,,,,,,,,,,,magenta,cross
381.0,8.0,4.0,1.0,3.0,3.0,380.4836589997649,4.0,1.0,phase_1,,,,,,,,,,,,,cyan,I
101.0,2.0,1.0,0.0,3.0,3.0,425.73879576139,4.0,1.0,phase_1,,,,,,,,,,,,,orange,circle
0.0,2.0,0.0,0.0,2.0,2.0,348.1154874452841,4.0,1.0,phase_1,,,,,,,,,,,,,orange,circle
100.0,6.0,1.0,1.0,1.0,1.0,370.624608604885,4.0,1.0,phase_1,,,,,,,,,,,,,yellow,triangle
114.0,2.0,1.0,0.0,2.0,2.0,282.7201159207106,4.0,1.0,phase_1,,,,,,,,,,,,,orange,circle
0.0,3.0,0.0,0.0,2.0,2.0,304.7789467618713,4.0,1.0,phase_1,,,,,,,,,,,,,magenta,cross
0.0,5.0,0.0,1.0,4.0,4.0,351.4935566836357,4.0,1.0,phase_1,,,,,,,,,,,,,green,flipped triangle
392.0,4.0,4.0,0.0,2.0,2.0,294.5359536042815,4.0,1.0,phase_1,,,,,,,,,,,,,gray,square
411.0,4.0,4.0,0.0,3.0,3.0,362.60301084166707,4.0,1.0,phase_1,,,,,,,,,,,,,gray,square
403.0,8.0,4.0,1.0,4.0,4.0,373.9059073659518,4.0,1.0,phase_1,,,,,,,,,,,,,cyan,I
99.0,6.0,1.0,1.0,3.0,3.0,420.0614768415107,4.0,1.0,phase_1,,,,,,,,,,,,,yellow,triangle
88.0,6.0,1.0,1.0,3.0,3.0,375.0648963659841,4.0,1.0,phase_1,,,,,,,,,,,,,yellow,triangle
199.0,3.0,2.0,0.0,3.0,3.0,364.8180448417406,4.0,1.0,phase_1,,,,,,,,,,,,,magenta,cross
0.0,8.0,0.0,1.0,3.0,3.0,343.8636715245593,4.0,1.0,phase_1,,,,,,,,,,,,,cyan,I
0.0,7.0,0.0,1.0,2.0,2.0,297.7914777620754,4.0,1.0,phase_1,,,,,,,,,,,,,white,hexagon
62.0,5.0,0.5,1.0,4.0,4.0,355.3095629204108,4.0,1.0,phase_1,,,,,,,,,,,,,green,flipped triangle
0.0,4.0,0.0,0.0,3.0,3.0,377.3805508417354,4.0,1.0,phase_1,,,,,,,,,,,,,gray,square
194.0,7.0,2.0,1.0,3.0,3.0,343.9724457621196,4.0,1.0,phase_1,,,,,,,,,,,,,white,hexagon
91.0,2.0,1.0,0.0,3.0,3.0,301.5647079209884,4.0,1.0,phase_1,,,,,,,,,,,,,orange,circle
224.0,3.0,2.0,0.0,3.0,3.0,446.1973657626004,4.0,1.0,phase_1,,,,,,,,,,,,,magenta,cross
0.0,4.0,4.0,0.0,5.0,5.0,462.2874543965736,1.0,1.0,phase_2,go,250.0,250.0,1.0,,,,,,,,,gray,square
0.0,2.0,1.0,0.0,6.0,6.0,519.2731366978478,1.0,1.0,phase_2,go,250.0,250.0,1.0,,,,,,,,,orange,circle
0.0,1.0,0.5,0.0,5.0,5.0,475.3668495823149,1.0,1.0,phase_2,go,250.0,250.0,1.0,,,,,,,,,blue,diamond
0.0,7.0,2.0,1.0,6.0,0.0,0.0,1.0,1.0,phase_2,stop,250.0,250.0,4.0,,,,,,,,,white,hexagon
0.0,8.0,4.0,1.0,6.0,6.0,342.9603476979537,1.0,1.0,phase_2,stop,250.0,300.0,3.0,,,,,,,,,cyan,I
0.0,1.0,0.5,0.0,6.0,6.0,468.2664766978632,1.0,1.0,phase_2,go,250.0,250.0,1.0,,,,,,,,,blue,diamond
0.0,5.0,0.5,1.0,6.0,6.0,649.1387953956291,1.0,1.0,phase_2,stop,250.0,250.0,3.0,,,,,,,,,green,flipped triangle
0.0,4.0,4.0,0.0,6.0,6.0,536.4372951871701,1.0,1.0,phase_2,go,250.0,200.0,1.0,,,,,,,,,gray,square
0.0,3.0,2.0,0.0,5.0,5.0,684.6630865829866,1.0,1.0,phase_2,go,250.0,200.0,1.0,,,,,,,,,magenta,cross
0.0,2.0,1.0,0.0,5.0,5.0,785.3014464899388,1.0,1.0,phase_2,go,250.0,200.0,1.0,,,,,,,,,orange,circle
0.0,1.0,0.5,0.0,5.0,5.0,706.8200391868231,1.0,1.0,phase_2,go,250.0,200.0,1.0,,,,,,,,,blue,diamond
0.0,3.0,2.0,0.0,6.0,6.0,888.6186161871592,1.0,1.0,phase_2,go,250.0,200.0,1.0,,,,,,,,,magenta,cross
0.0,7.0,2.0,1.0,6.0,0.0,0.0,1.0,1.0,phase_2,stop,250.0,200.0,4.0,,,,,,,,,white,hexagon
0.0,5.0,0.5,1.0,6.0,0.0,0.0,1.0,1.0,phase_2,stop,250.0,250.0,4.0,,,,,,,,,green,flipped triangle
0.0,4.0,4.0,0.0,5.0,5.0,654.9663124887957,1.0,1.0,phase_2,go,250.0,300.0,1.0,,,,,,,,,gray,square
0.0,1.0,0.5,0.0,6.0,6.0,677.8155994888948,1.0,1.0,phase_2,go,250.0,300.0,1.0,,,,,,,,,blue,diamond
0.0,7.0,2.0,1.0,6.0,0.0,0.0,1.0,1.0,phase_2,stop,250.0,300.0,4.0,,,,,,,,,white,hexagon
0.0,5.0,0.5,1.0,6.0,6.0,723.7460906981141,1.0,1.0,phase_2,go,250.0,350.0,1.0,,,,,,,,,green,flipped triangle
0.0,1.0,0.5,0.0,6.0,6.0,849.9343800003771,1.0,1.0,phase_2,go,250.0,350.0,1.0,,,,,,,,,blue,diamond
0.0,6.0,1.0,1.0,6.0,0.0,0.0,1.0,1.0,phase_2,stop,250.0,350.0,4.0,,,,,,,,,yellow,triangle
0.0,3.0,2.0,0.0,5.0,5.0,390.1118325829884,1.0,1.0,phase_2,go,250.0,400.0,1.0,,,,,,,,,magenta,cross
0.0,5.0,0.5,1.0,6.0,0.0,0.0,1.0,1.0,phase_2,stop,250.0,400.0,4.0,,,,,,,,,green,flipped triangle
0.0,1.0,0.5,0.0,5.0,5.0,313.3909883954402,1.0,1.0,phase_2,go,250.0,450.0,1.0,,,,,,,,,blue,diamond
0.0,1.0,0.5,0.0,5.0,5.0,616.0446793955998,1.0,1.0,phase_2,go,250.0,450.0,1.0,,,,,,,,,blue,diamond
0.0,4.0,4.0,0.0,6.0,6.0,751.9726806976905,1.0,1.0,phase_2,go,250.0,450.0,1.0,,,,,,,,,gray,square
0.0,1.0,0.5,0.0,6.0,6.0,630.800274187095,1.0,1.0,phase_2,go,250.0,450.0,1.0,,,,,,,,,blue,diamond
0.0,7.0,2.0,1.0,6.0,0.0,0.0,1.0,1.0,phase_2,stop,250.0,450.0,4.0,,,,,,,,,white,hexagon
0.0,7.0,2.0,1.0,6.0,6.0,642.8602118849085,1.0,1.0,phase_2,stop,250.0,500.0,3.0,,,,,,,,,white,hexagon
0.0,5.0,0.5,1.0,6.0,6.0,757.2488046971557,1.0,1.0,phase_2,go,250.0,450.0,1.0,,,,,,,,,green,flipped triangle
0.0,4.0,4.0,0.0,6.0,6.0,801.5485160003664,1.0,1.0,phase_2,go,250.0,450.0,1.0,,,,,,,,,gray,square
0.0,4.0,4.0,0.0,6.0,6.0,904.8722821871706,1.0,1.0,phase_2,go,250.0,450.0,1.0,,,,,,,,,gray,square
0.0,4.0,4.0,0.0,5.0,5.0,591.1893105831041,1.0,1.0,phase_2,go,250.0,450.0,1.0,,,,,,,,,gray,square
0.0,7.0,2.0,1.0,6.0,0.0,0.0,1.0,1.0,phase_2,stop,250.0,450.0,4.0,,,,,,,,,white,hexagon
0.0,7.0,2.0,1.0,5.0,0.0,0.0,1.0,1.0,phase_2,stop,250.0,500.0,4.0,,,,,,,,,white,hexagon
0.0,8.0,4.0,1.0,5.0,0.0,0.0,1.0,1.0,phase_2,stop,300.0,500.0,4.0,,,,,,,,,cyan,I
0.0,6.0,1.0,1.0,6.0,6.0,583.1123177913469,1.0,1.0,phase_2,go,350.0,500.0,1.0,,,,,,,,,yellow,triangle
0.0,4.0,4.0,0.0,6.0,6.0,632.4341088857182,2.0,1.0,phase_2,go,350.0,500.0,1.0,,,,,,,,,gray,square
0.0,3.0,2.0,0.0,6.0,6.0,397.7157293020354,2.0,1.0,phase_2,go,350.0,500.0,1.0,,,,,,,,,magenta,cross
0.0,5.0,0.5,1.0,6.0,6.0,318.7696389068151,2.0,1.0,phase_2,stop,350.0,500.0,3.0,,,,,,,,,green,flipped triangle
0.0,1.0,0.5,0.0,6.0,6.0,398.4909143964614,2.0,1.0,phase_2,go,350.0,450.0,1.0,,,,,,,,,blue,diamond
0.0,5.0,0.5,1.0,6.0,6.0,274.8522693955237,2.0,1.0,phase_2,go,350.0,450.0,1.0,,,,,,,,,green,flipped triangle
0.0,1.0,0.5,0.0,5.0,5.0,444.2593726971608,2.0,1.0,phase_2,go,350.0,450.0,1.0,,,,,,,,,blue,diamond
0.0,8.0,4.0,1.0,5.0,5.0,388.8912164893554,2.0,1.0,phase_2,stop,350.0,450.0,3.0,,,,,,,,,cyan,I
0.0,5.0,0.5,1.0,6.0,6.0,425.1448131872166,2.0,1.0,phase_2,stop,300.0,450.0,3.0,,,,,,,,,green,flipped triangle
0.0,3.0,2.0,0.0,5.0,5.0,424.3746853017001,2.0,1.0,phase_2,go,300.0,400.0,1.0,,,,,,,,,magenta,cross
0.0,1.0,0.5,0.0,6.0,6.0,482.1075653017033,2.0,1.0,phase_2,go,300.0,400.0,1.0,,,,,,,,,blue,diamond
0.0,2.0,1.0,0.0,6.0,6.0,495.4692299061207,2.0,1.0,phase_2,go,300.0,400.0,1.0,,,,,,,,,orange,circle
0.0,2.0,1.0,0.0,6.0,6.0,347.860238791327,2.0,1.0,phase_2,go,300.0,400.0,1.0,,,,,,,,,orange,circle
0.0,2.0,1.0,0.0,5.0,5.0,271.0797333020309,2.0,1.0,phase_2,go,300.0,400.0,1.0,,,,,,,,,orange,circle
0.0,3.0,2.0,0.0,6.0,6.0,632.1682489997329,2.0,1.0,phase_2,go,300.0,400.0,1.0,,,,,,,,,magenta,cross
0.0,2.0,1.0,0.0,6.0,6.0,328.4273873023267,2.0,1.0,phase_2,go,300.0,400.0,1.0,,,,,,,,,orange,circle
0.0,8.0,4.0,1.0,6.0,6.0,375.7466499992006,2.0,1.0,phase_2,stop,300.0,400.0,3.0,,,,,,,,,cyan,I
0.0,6.0,1.0,1.0,6.0,0.0,0.0,2.0,1.0,phase_2,stop,300.0,350.0,4.0,,,,,,,,,yellow,triangle
0.0,2.0,1.0,0.0,6.0,6.0,623.6427163948974,2.0,1.0,phase_2,go,300.0,400.0,1.0,,,,,,,,,orange,circle
0.0,8.0,4.0,1.0,6.0,6.0,355.4987464885926,2.0,1.0,phase_2,stop,300.0,400.0,3.0,,,,,,,,,cyan,I
0.0,1.0,0.5,0.0,5.0,5.0,625.2613770002426,2.0,1.0,phase_2,go,300.0,350.0,1.0,,,,,,,,,blue,diamond
0.0,3.0,2.0,0.0,5.0,5.0,355.2249066979129,2.0,1.0,phase_2,go,300.0,350.0,1.0,,,,,,,,,magenta,cross
0.0,5.0,0.5,1.0,5.0,5.0,357.4261383964767,2.0,1.0,phase_2,stop,300.0,350.0,3.0,,,,,,,,,green,flipped triangle
0.0,8.0,4.0,1.0,6.0,6.0,436.6585273965029,2.0,1.0,phase_2,stop,250.0,350.0,3.0,,,,,,,,,cyan,I
0.0,3.0,2.0,0.0,6.0,6.0,550.2158063018214,2.0,1.0,phase_2,go,250.0,300.0,1.0,,,,,,,,,magenta,cross
0.0,8.0,4.0,1.0,5.0,0.0,0.0,2.0,1.0,phase_2,stop,250.0,300.0,4.0,,,,,,,,,cyan,I
0.0,1.0,0.5,0.0,5.0,5.0,494.6543364894751,2.0,1.0,phase_2,go,300.0,300.0,1.0,,,,,,,,,blue,diamond
0.0,7.0,2.0,1.0,6.0,6.0,597.3436408849011,2.0,1.0,phase_2,go,300.0,300.0,1.0,,,,,,,,,white,hexagon
0.0,4.0,4.0,0.0,6.0,6.0,610.2200249060843,2.0,1.0,phase_2,go,300.0,300.0,1.0,,,,,,,,,gray,square
0.0,6.0,1.0,1.0,6.0,6.0,519.5923413957644,2.0,1.0,phase_2,go,300.0,300.0,1.0,,,,,,,,,yellow,triangle
0.0,8.0,4.0,1.0,5.0,5.0,522.2175507915381,2.0,1.0,phase_2,stop,300.0,300.0,3.0,,,,,,,,,cyan,I
0.0,8.0,4.0,1.0,5.0,0.0,0.0,2.0,1.0,phase_2,stop,250.0,300.0,4.0,,,,,,,,,cyan,I
0.0,6.0,1.0,1.0,6.0,6.0,432.8815597918947,2.0,1.0,phase_2,stop,300.0,300.0,3.0,,,,,,,,,yellow,triangle
0.0,1.0,0.5,0.0,5.0,5.0,501.97795318763383,2.0,1.0,phase_2,go,300.0,250.0,1.0,,,,,,,,,blue,diamond
0.0,1.0,0.5,0.0,5.0,5.0,501.2343968846835,2.0,1.0,phase_2,go,300.0,250.0,1.0,,,,,,,,,blue,diamond
0.0,3.0,2.0,0.0,6.0,6.0,661.2769463017685,2.0,1.0,phase_2,go,300.0,250.0,1.0,,,,,,,,,magenta,cross
0.0,1.0,0.5,0.0,6.0,6.0,605.805785395205,2.0,1.0,phase_2,go,300.0,250.0,1.0,,,,,,,,,blue,diamond
0.0,3.0,2.0,0.0,5.0,5.0,599.0575631867614,3.0,1.0,phase_2,go,300.0,250.0,1.0,,,,,,,,,magenta,cross
0.0,5.0,0.5,1.0,5.0,5.0,330.0809327911338,3.0,1.0,phase_2,stop,300.0,250.0,3.0,,,,,,,,,green,flipped triangle
0.0,2.0,1.0,0.0,6.0,6.0,353.8839136981551,3.0,1.0,phase_2,go,250.0,250.0,1.0,,,,,,,,,orange,circle
0.0,4.0,4.0,0.0,5.0,5.0,310.062949884923,3.0,1.0,phase_2,go,250.0,250.0,1.0,,,,,,,,,gray,square
0.0,3.0,2.0,0.0,5.0,5.0,411.3925454894342,3.0,1.0,phase_2,go,250.0,250.0,1.0,,,,,,,,,magenta,cross
0.0,7.0,2.0,1.0,5.0,0.0,0.0,3.0,1.0,phase_2,stop,250.0,250.0,4.0,,,,,,,,,white,hexagon
0.0,1.0,0.5,0.0,6.0,6.0,436.6628286043124,3.0,1.0,phase_2,go,300.0,250.0,1.0,,,,,,,,,blue,diamond
0.0,1.0,0.5,0.0,5.0,5.0,469.5489549067133,3.0,1.0,phase_2,go,300.0,250.0,1.0,,,,,,,,,blue,diamond
0.0,3.0,2.0,0.0,5.0,5.0,459.3554366983881,3.0,1.0,phase_2,go,300.0,250.0,1.0,,,,,,,,,magenta,cross
0.0,4.0,4.0,0.0,6.0,6.0,527.0393721875735,3.0,1.0,phase_2,go,300.0,250.0,1.0,,,,,,,,,gray,square
0.0,4.0,4.0,0.0,5.0,5.0,383.1724207911975,3.0,1.0,phase_2,go,300.0,250.0,1.0,,,,,,,,,gray,square
0.0,6.0,1.0,1.0,6.0,6.0,360.1173930001096,3.0,1.0,phase_2,stop,300.0,250.0,3.0,,,,,,,,,yellow,triangle
0.0,6.0,1.0,1.0,6.0,0.0,0.0,3.0,1.0,phase_2,stop,300.0,200.0,4.0,,,,,,,,,yellow,triangle
0.0,5.0,0.5,1.0,5.0,5.0,295.2425662797395,3.0,1.0,phase_2,go,300.0,250.0,1.0,,,,,,,,,green,flipped triangle
0.0,6.0,1.0,1.0,6.0,0.0,0.0,3.0,1.0,phase_2,stop,300.0,250.0,4.0,,,,,,,,,yellow,triangle
0.0,2.0,1.0,0.0,5.0,5.0,285.9004181873388,3.0,1.0,phase_2,go,300.0,300.0,1.0,,,,,,,,,orange,circle
0.0,6.0,1.0,1.0,5.0,0.0,0.0,3.0,1.0,phase_2,stop,300.0,300.0,4.0,,,,,,,,,yellow,triangle
0.0,7.0,2.0,1.0,6.0,0.0,0.0,3.0,1.0,phase_2,stop,350.0,300.0,4.0,,,,,,,,,white,hexagon
0.0,3.0,2.0,0.0,5.0,5.0,389.4804286974249,3.0,1.0,phase_2,go,350.0,350.0,1.0,,,,,,,,,magenta,cross
0.0,4.0,4.0,0.0,6.0,6.0,761.019339489394,3.0,1.0,phase_2,go,350.0,350.0,1.0,,,,,,,,,gray,square
0.0,5.0,0.5,1.0,5.0,5.0,482.279204000406,3.0,1.0,phase_2,stop,350.0,350.0,3.0,,,,,,,,,green,flipped triangle
0.0,8.0,4.0,1.0,6.0,6.0,539.2024447910444,3.0,1.0,phase_2,stop,300.0,350.0,3.0,,,,,,,,,cyan,I
0.0,4.0,4.0,0.0,6.0,6.0,481.6024754891259,3.0,1.0,phase_2,go,300.0,300.0,1.0,,,,,,,,,gray,square
0.0,6.0,1.0,1.0,5.0,0.0,0.0,3.0,1.0,phase_2,stop,300.0,300.0,4.0,,,,,,,,,yellow,triangle
0.0,4.0,4.0,0.0,6.0,6.0,495.974358697822,3.0,1.0,phase_2,go,350.0,300.0,1.0,,,,,,,,,gray,square
0.0,2.0,1.0,0.0,5.0,5.0,800.831916187235,3.0,1.0,phase_2,go,350.0,300.0,1.0,,,,,,,,,orange,circle
0.0,2.0,1.0,0.0,5.0,5.0,463.4725707910547,3.0,1.0,phase_2,go,350.0,300.0,1.0,,,,,,,,,orange,circle
0.0,1.0,0.5,0.0,5.0,5.0,543.2644548845929,3.0,1.0,phase_2,go,350.0,300.0,1.0,,,,,,,,,blue,diamond
0.0,4.0,4.0,0.0,5.0,5.0,588.1131510932391,3.0,1.0,phase_2,go,350.0,300.0,1.0,,,,,,,,,gray,square
0.0,8.0,4.0,1.0,5.0,5.0,330.3641963957489,3.0,1.0,phase_2,go,350.0,300.0,1.0,,,,,,,,,cyan,I
0.0,8.0,4.0,1.0,6.0,6.0,578.7404263955978,3.0,1.0,phase_2,go,350.0,300.0,1.0,,,,,,,,,cyan,I
0.0,7.0,2.0,1.0,5.0,5.0,410.5394462803815,3.0,1.0,phase_2,stop,350.0,300.0,3.0,,,,,,,,,white,hexagon
0.0,5.0,0.5,1.0,6.0,6.0,626.7764124895621,3.0,1.0,phase_2,go,300.0,300.0,1.0,,,,,,,,,green,flipped triangle
0.0,5.0,0.5,1.0,5.0,0.0,0.0,3.0,1.0,phase_2,stop,300.0,300.0,4.0,,,,,,,,,green,flipped triangle
0.0,3.0,2.0,0.0,5.0,5.0,525.5617653956506,3.0,1.0,phase_2,go,350.0,300.0,1.0,,,,,,,,,magenta,cross
0.0,6.0,1.0,1.0,5.0,0.0,0.0,3.0,1.0,phase_2,stop,350.0,300.0,4.0,,,,,,,,,yellow,triangle
0.0,4.0,4.0,0.0,5.0,5.0,575.2405881876257,4.0,1.0,phase_2,go,400.0,300.0,1.0,,,,,,,,,gray,square
0.0,1.0,0.5,0.0,6.0,6.0,486.4500866979142,4.0,1.0,phase_2,go,400.0,300.0,1.0,,,,,,,,,blue,diamond
0.0,5.0,0.5,1.0,6.0,6.0,329.1354640932695,4.0,1.0,phase_2,stop,400.0,300.0,3.0,,,,,,,,,green,flipped triangle
0.0,7.0,2.0,1.0,6.0,0.0,0.0,4.0,1.0,phase_2,stop,400.0,250.0,4.0,,,,,,,,,white,hexagon
0.0,2.0,1.0,0.0,6.0,6.0,410.2880038844887,4.0,1.0,phase_2,go,400.0,300.0,1.0,,,,,,,,,orange,circle
0.0,6.0,1.0,1.0,6.0,6.0,343.1156271872169,4.0,1.0,phase_2,stop,400.0,300.0,3.0,,,,,,,,,yellow,triangle
0.0,6.0,1.0,1.0,6.0,0.0,0.0,4.0,1.0,phase_2,stop,400.0,250.0,4.0,,,,,,,,,yellow,triangle
0.0,1.0,0.5,0.0,6.0,6.0,368.1045046978397,4.0,1.0,phase_2,go,400.0,300.0,1.0,,,,,,,,,blue,diamond
0.0,5.0,0.5,1.0,5.0,5.0,492.3816760929185,4.0,1.0,phase_2,stop,400.0,300.0,3.0,,,,,,,,,green,flipped triangle
0.0,2.0,1.0,0.0,6.0,6.0,526.3721897918003,4.0,1.0,phase_2,go,350.0,300.0,1.0,,,,,,,,,orange,circle
0.0,4.0,4.0,0.0,6.0,6.0,391.6691303020343,4.0,1.0,phase_2,go,350.0,300.0,1.0,,,,,,,,,gray,square
0.0,3.0,2.0,0.0,5.0,5.0,617.6104898850099,4.0,1.0,phase_2,go,350.0,300.0,1.0,,,,,,,,,magenta,cross
0.0,2.0,1.0,0.0,5.0,5.0,562.0250358842895,4.0,1.0,phase_2,go,350.0,300.0,1.0,,,,,,,,,orange,circle
0.0,4.0,4.0,0.0,6.0,6.0,517.8460304896362,4.0,1.0,phase_2,go,350.0,300.0,1.0,,,,,,,,,gray,square
0.0,3.0,2.0,0.0,6.0,6.0,372.4202027915453,4.0,1.0,phase_2,go,350.0,300.0,1.0,,,,,,,,,magenta,cross
0.0,7.0,2.0,1.0,5.0,0.0,0.0,4.0,1.0,phase_2,stop,350.0,300.0,4.0,,,,,,,,,white,hexagon
0.0,4.0,4.0,0.0,5.0,5.0,600.442640885376,4.0,1.0,phase_2,go,400.0,300.0,1.0,,,,,,,,,gray,square
0.0,6.0,1.0,1.0,6.0,0.0,0.0,4.0,1.0,phase_2,stop,400.0,300.0,4.0,,,,,,,,,yellow,triangle
0.0,7.0,2.0,1.0,5.0,5.0,634.3435401868192,4.0,1.0,phase_2,go,400.0,350.0,1.0,,,,,,,,,white,hexagon
0.0,8.0,4.0,1.0,6.0,6.0,478.0963134890044,4.0,1.0,phase_2,stop,400.0,350.0,3.0,,,,,,,,,cyan,I
0.0,4.0,4.0,0.0,5.0,5.0,626.980349187761,4.0,1.0,phase_2,go,400.0,300.0,1.0,,,,,,,,,gray,square
0.0,4.0,4.0,0.0,5.0,5.0,536.0001561866738,4.0,1.0,phase_2,go,400.0,300.0,1.0,,,,,,,,,gray,square
0.0,8.0,4.0,1.0,5.0,5.0,458.5635447911045,4.0,1.0,phase_2,go,400.0,300.0,1.0,,,,,,,,,cyan,I
0.0,8.0,4.0,1.0,5.0,5.0,773.5625220939255,4.0,1.0,phase_2,go,400.0,300.0,1.0,,,,,,,,,cyan,I
0.0,2.0,1.0,0.0,5.0,5.0,708.5699323961308,4.0,1.0,phase_2,go,400.0,300.0,1.0,,,,,,,,,orange,circle
0.0,8.0,4.0,1.0,5.0,0.0,0.0,4.0,1.0,phase_2,stop,400.0,300.0,4.0,,,,,,,,,cyan,I
0.0,2.0,1.0,0.0,6.0,6.0,574.0499753956101,4.0,1.0,phase_2,go,450.0,300.0,1.0,,,,,,,,,orange,circle
0.0,6.0,1.0,1.0,6.0,0.0,0.0,4.0,1.0,phase_2,stop,450.0,300.0,4.0,,,,,,,,,yellow,triangle
0.0,6.0,1.0,1.0,5.0,5.0,723.3110408851644,4.0,1.0,phase_2,go,450.0,350.0,1.0,,,,,,,,,yellow,triangle
0.0,2.0,1.0,0.0,5.0,5.0,622.2868098848267,4.0,1.0,phase_2,go,450.0,350.0,1.0,,,,,,,,,orange,circle
0.0,3.0,2.0,0.0,6.0,6.0,611.9017004884881,4.0,1.0,phase_2,go,450.0,350.0,1.0,,,,,,,,,magenta,cross
0.0,8.0,4.0,1.0,5.0,5.0,555.34200839611,4.0,1.0,phase_2,stop,450.0,350.0,3.0,,,,,,,,,cyan,I
0.0,3.0,2.0,0.0,6.0,6.0,590.1426740938405,4.0,1.0,phase_2,go,400.0,350.0,1.0,,,,,,,,,magenta,cross
0.0,2.0,1.0,0.0,5.0,5.0,524.4248685830826,4.0,1.0,phase_2,go,400.0,350.0,1.0,,,,,,,,,orange,circle
0.0,3.0,2.0,0.0,6.0,6.0,728.1468010942262,4.0,1.0,phase_2,go,400.0,350.0,1.0,,,,,,,,,magenta,cross
0.0,3.0,2.0,0.0,5.0,5.0,830.010703395601,4.0,1.0,phase_2,go,400.0,350.0,1.0,,,,,,,,,magenta,cross
0.0,5.0,0.5,1.0,5.0,5.0,480.9752117907919,5.0,1.0,phase_2,stop,400.0,350.0,3.0,,,,,,,,,green,flipped triangle
0.0,6.0,1.0,1.0,6.0,0.0,0.0,5.0,1.0,phase_2,stop,350.0,350.0,4.0,,,,,,,,,yellow,triangle
0.0,6.0,1.0,1.0,5.0,5.0,458.8827215829951,5.0,1.0,phase_2,stop,350.0,400.0,3.0,,,,,,,,,yellow,triangle
0.0,4.0,4.0,0.0,5.0,5.0,493.592514582815,5.0,1.0,phase_2,go,300.0,400.0,1.0,,,,,,,,,gray,square
0.0,2.0,1.0,0.0,6.0,6.0,485.0667632790646,5.0,1.0,phase_2,go,300.0,400.0,1.0,,,,,,,,,orange,circle
0.0,5.0,0.5,1.0,6.0,6.0,552.5873753958876,5.0,1.0,phase_2,stop,300.0,400.0,3.0,,,,,,,,,green,flipped triangle
0.0,7.0,2.0,1.0,6.0,0.0,0.0,5.0,1.0,phase_2,stop,300.0,350.0,4.0,,,,,,,,,white,hexagon
0.0,7.0,2.0,1.0,5.0,0.0,0.0,5.0,1.0,phase_2,stop,300.0,400.0,4.0,,,,,,,,,white,hexagon
0.0,2.0,1.0,0.0,6.0,6.0,386.553292395547,5.0,1.0,phase_2,go,350.0,400.0,1.0,,,,,,,,,orange,circle
0.0,8.0,4.0,1.0,6.0,0.0,0.0,5.0,1.0,phase_2,stop,350.0,400.0,4.0,,,,,,,,,cyan,I
0.0,4.0,4.0,0.0,6.0,6.0,567.4117353955808,5.0,1.0,phase_2,go,350.0,450.0,1.0,,,,,,,,,gray,square
0.0,4.0,4.0,0.0,6.0,6.0,659.4327426983,5.0,1.0,phase_2,go,350.0,450.0,1.0,,,,,,,,,gray,square
0.0,1.0,0.5,0.0,5.0,5.0,647.1661495834269,5.0,1.0,phase_2,go,350.0,450.0,1.0,,,,,,,,,blue,diamond
0.0,6.0,1.0,1.0,5.0,0.0,0.0,5.0,1.0,phase_2,stop,350.0,450.0,4.0,,,,,,,,,yellow,triangle
0.0,8.0,4.0,1.0,6.0,6.0,525.0278568846625,5.0,1.0,phase_2,go,400.0,450.0,1.0,,,,,,,,,cyan,I
0.0,2.0,1.0,0.0,5.0,5.0,606.2654086981638,5.0,1.0,phase_2,go,400.0,450.0,1.0,,,,,,,,,orange,circle
0.0,3.0,2.0,0.0,5.0,5.0,594.8057216974121,5.0,1.0,phase_2,go,400.0,450.0,1.0,,,,,,,,,magenta,cross
0.0,3.0,2.0,0.0,6.0,6.0,640.5141969999022,5.0,1.0,phase_2,go,400.0,450.0,1.0,,,,,,,,,magenta,cross
0.0,2.0,1.0,0.0,5.0,5.0,574.6830235830203,5.0,1.0,phase_2,go,400.0,450.0,1.0,,,,,,,,,orange,circle
0.0,5.0,0.5,1.0,5.0,0.0,0.0,5.0,1.0,phase_2,stop,400.0,450.0,4.0,,,,,,,,,green,flipped triangle
0.0,1.0,0.5,0.0,6.0,6.0,608.6466426977495,5.0,1.0,phase_2,go,450.0,450.0,1.0,,,,,,,,,blue,diamond
0.0,4.0,4.0,0.0,5.0,5.0,722.2496284894078,5.0,1.0,phase_2,go,450.0,450.0,1.0,,,,,,,,,gray,square
0.0,6.0,1.0,1.0,5.0,5.0,734.7360699995988,5.0,1.0,phase_2,go,450.0,450.0,1.0,,,,,,,,,yellow,triangle
0.0,2.0,1.0,0.0,5.0,5.0,612.855069489342,5.0,1.0,phase_2,go,450.0,450.0,1.0,,,,,,,,,orange,circle
0.0,6.0,1.0,1.0,5.0,5.0,602.1873956979107,5.0,1.0,phase_2,go,450.0,450.0,1.0,,,,,,,,,yellow,triangle
0.0,7.0,2.0,1.0,6.0,6.0,443.9038840937428,5.0,1.0,phase_2,stop,450.0,450.0,3.0,,,,,,,,,white,hexagon
0.0,7.0,2.0,1.0,6.0,0.0,0.0,5.0,1.0,phase_2,stop,450.0,400.0,4.0,,,,,,,,,white,hexagon
0.0,4.0,4.0,0.0,6.0,6.0,638.590327302154,5.0,1.0,phase_2,go,450.0,450.0,1.0,,,,,,,,,gray,square
0.0,1.0,0.5,0.0,5.0,5.0,514.462521094174,5.0,1.0,phase_2,go,450.0,450.0,1.0,,,,,,,,,blue,diamond
0.0,1.0,0.5,0.0,6.0,6.0,627.8566120936375,5.0,1.0,phase_2,go,450.0,450.0,1.0,,,,,,,,,blue,diamond
0.0,3.0,2.0,0.0,6.0,6.0,596.2129668851048,5.0,1.0,phase_2,go,450.0,450.0,1.0,,,,,,,,,magenta,cross
0.0,7.0,2.0,1.0,5.0,0.0,0.0,5.0,1.0,phase_2,stop,450.0,450.0,4.0,,,,,,,,,white,hexagon
0.0,6.0,1.0,1.0,5.0,5.0,719.9830190929788,5.0,1.0,phase_2,go,500.0,450.0,1.0,,,,,,,,,yellow,triangle
0.0,3.0,2.0,0.0,5.0,5.0,597.9371486982927,5.0,1.0,phase_2,go,500.0,450.0,1.0,,,,,,,,,magenta,cross
0.0,6.0,1.0,1.0,6.0,6.0,744.110030000229,5.0,1.0,phase_2,go,500.0,450.0,1.0,,,,,,,,,yellow,triangle
0.0,1.0,0.5,0.0,6.0,6.0,735.7916311866575,5.0,1.0,phase_2,go,500.0,450.0,1.0,,,,,,,,,blue,diamond
0.0,5.0,0.5,1.0,5.0,5.0,609.1948483954184,6.0,1.0,phase_2,stop,500.0,450.0,3.0,,,,,,,,,green,flipped triangle
0.0,5.0,0.5,1.0,5.0,5.0,519.7211923023133,6.0,1.0,phase_2,stop,450.0,450.0,3.0,,,,,,,,,green,flipped triangle
0.0,8.0,4.0,1.0,5.0,0.0,0.0,6.0,1.0,phase_2,stop,400.0,450.0,4.0,,,,,,,,,cyan,I
0.0,3.0,2.0,0.0,5.0,5.0,431.6495040930022,6.0,1.0,phase_2,go,450.0,450.0,1.0,,,,,,,,,magenta,cross
0.0,6.0,1.0,1.0,5.0,5.0,500.3112203958153,6.0,1.0,phase_2,stop,450.0,450.0,3.0,,,,,,,,,yellow,triangle
0.0,3.0,2.0,0.0,6.0,6.0,478.6018931872604,6.0,1.0,phase_2,go,400.0,450.0,1.0,,,,,,,,,magenta,cross
0.0,5.0,0.5,1.0,6.0,6.0,569.4464511871047,6.0,1.0,phase_2,go,400.0,450.0,1.0,,,,,,,,,green,flipped triangle
0.0,3.0,2.0,0.0,5.0,5.0,402.19218958282,6.0,1.0,phase_2,go,400.0,450.0,1.0,,,,,,,,,magenta,cross
0.0,7.0,2.0,1.0,5.0,5.0,604.3686043949492,6.0,1.0,phase_2,go,400.0,450.0,1.0,,,,,,,,,white,hexagon
0.0,5.0,0.5,1.0,6.0,0.0,0.0,6.0,1.0,phase_2,stop,400.0,450.0,4.0,,,,,,,,,green,flipped triangle
0.0,5.0,0.5,1.0,5.0,5.0,504.84569188483874,6.0,1.0,phase_2,go,400.0,500.0,1.0,,,,,,,,,green,flipped triangle
0.0,7.0,2.0,1.0,6.0,6.0,686.0961767915796,6.0,1.0,phase_2,stop,400.0,500.0,3.0,,,,,,,,,white,hexagon
0.0,2.0,1.0,0.0,6.0,6.0,641.3995253951725,6.0,1.0,phase_2,go,400.0,450.0,1.0,,,,,,,,,orange,circle
0.0,7.0,2.0,1.0,5.0,5.0,632.4424091872061,6.0,1.0,phase_2,stop,400.0,450.0,3.0,,,,,,,,,white,hexagon
0.0,8.0,4.0,1.0,5.0,0.0,0.0,6.0,1.0,phase_2,stop,350.0,450.0,4.0,,,,,,,,,cyan,I
0.0,1.0,0.5,0.0,5.0,5.0,711.9643166979586,6.0,1.0,phase_2,go,400.0,450.0,1.0,,,,,,,,,blue,diamond
0.0,8.0,4.0,1.0,5.0,0.0,0.0,6.0,1.0,phase_2,stop,400.0,450.0,4.0,,,,,,,,,cyan,I
0.0,2.0,1.0,0.0,5.0,5.0,881.8717619060408,6.0,1.0,phase_2,go,450.0,450.0,1.0,,,,,,,,,orange,circle
0.0,6.0,1.0,1.0,6.0,0.0,0.0,6.0,1.0,phase_2,stop,450.0,450.0,4.0,,,,,,,,,yellow,triangle
0.0,1.0,0.5,0.0,5.0,5.0,615.1140271877011,6.0,1.0,phase_2,go,450.0,500.0,1.0,,,,,,,,,blue,diamond
0.0,4.0,4.0,0.0,5.0,5.0,570.1287458850857,6.0,1.0,phase_2,go,450.0,500.0,1.0,,,,,,,,,gray,square
0.0,5.0,0.5,1.0,5.0,5.0,583.1800769992697,6.0,1.0,phase_2,stop,450.0,500.0,3.0,,,,,,,,,green,flipped triangle
0.0,6.0,1.0,1.0,5.0,0.0,0.0,6.0,1.0,phase_2,stop,400.0,500.0,4.0,,,,,,,,,yellow,triangle
0.0,7.0,2.0,1.0,5.0,0.0,0.0,6.0,1.0,phase_2,stop,450.0,500.0,4.0,,,,,,,,,white,hexagon
0.0,3.0,2.0,0.0,5.0,5.0,428.0351838842762,6.0,1.0,phase_2,go,500.0,500.0,1.0,,,,,,,,,magenta,cross
0.0,6.0,1.0,1.0,6.0,0.0,0.0,6.0,1.0,phase_2,stop,500.0,500.0,4.0,,,,,,,,,yellow,triangle
0.0,5.0,0.5,1.0,6.0,6.0,641.7406735827171,6.0,1.0,phase_2,stop,500.0,550.0,3.0,,,,,,,,,green,flipped triangle
0.0,6.0,1.0,1.0,5.0,0.0,0.0,6.0,1.0,phase_2,stop,500.0,500.0,4.0,,,,,,,,,yellow,triangle
0.0,1.0,0.5,0.0,6.0,6.0,442.44750339566957,6.0,1.0,phase_2,go,550.0,500.0,1.0,,,,,,,,,blue,diamond
0.0,5.0,0.5,1.0,6.0,0.0,0.0,6.0,1.0,phase_2,stop,550.0,500.0,4.0,,,,,,,,,green,flipped triangle
0.0,6.0,1.0,1.0,6.0,6.0,668.0498496980363,6.0,1.0,phase_2,stop,550.0,550.0,3.0,,,,,,,,,yellow,triangle
0.0,1.0,0.5,0.0,6.0,6.0,871.6293526040317,6.0,1.0,phase_2,go,550.0,500.0,1.0,,,,,,,,,blue,diamond
0.0,1.0,0.5,0.0,6.0,6.0,759.3707484893457,6.0,1.0,phase_2,go,550.0,500.0,1.0,,,,,,,,,blue,diamond
0.0,5.0,0.5,1.0,5.0,0.0,0.0,6.0,1.0,phase_2,stop,550.0,500.0,4.0,,,,,,,,,green,flipped triangle
0.0,4.0,4.0,0.0,5.0,5.0,839.8228395826663,6.0,1.0,phase_2,go,600.0,500.0,1.0,,,,,,,,,gray,square
0.0,4.0,4.0,0.0,6.0,6.0,886.0149204892878,6.0,1.0,phase_2,go,600.0,500.0,1.0,,,,,,,,,gray,square
0.0,2.0,1.0,0.0,5.0,5.0,645.4106680930636,7.0,1.0,phase_2,go,600.0,500.0,1.0,,,,,,,,,orange,circle
0.0,6.0,1.0,1.0,6.0,6.0,634.9708691868727,7.0,1.0,phase_2,stop,600.0,500.0,3.0,,,,,,,,,yellow,triangle
0.0,8.0,4.0,1.0,6.0,0.0,0.0,7.0,1.0,phase_2,stop,600.0,450.0,4.0,,,,,,,,,cyan,I
0.0,2.0,1.0,0.0,5.0,5.0,534.475240791835,7.0,1.0,phase_2,go,600.0,500.0,1.0,,,,,,,,,orange,circle
0.0,7.0,2.0,1.0,6.0,6.0,671.0745733953445,7.0,1.0,phase_2,stop,600.0,500.0,3.0,,,,,,,,,white,hexagon
0.0,5.0,0.5,1.0,5.0,5.0,763.0711878846341,7.0,1.0,phase_2,go,600.0,450.0,1.0,,,,,,,,,green,flipped triangle
0.0,7.0,2.0,1.0,6.0,0.0,0.0,7.0,1.0,phase_2,stop,600.0,450.0,4.0,,,,,,,,,white,hexagon
0.0,2.0,1.0,0.0,6.0,6.0,629.3714921866922,7.0,1.0,phase_2,go,600.0,500.0,1.0,,,,,,,,,orange,circle
0.0,5.0,0.5,1.0,5.0,5.0,977.9656747914488,7.0,1.0,phase_2,go,600.0,500.0,1.0,,,,,,,,,green,flipped triangle
0.0,7.0,2.0,1.0,5.0,5.0,789.2548111867654,7.0,1.0,phase_2,stop,600.0,500.0,3.0,,,,,,,,,white,hexagon
0.0,6.0,1.0,1.0,5.0,0.0,0.0,7.0,1.0,phase_2,stop,550.0,500.0,4.0,,,,,,,,,yellow,triangle
0.0,5.0,0.5,1.0,5.0,0.0,0.0,7.0,1.0,phase_2,stop,600.0,500.0,4.0,,,,,,,,,green,flipped triangle
0.0,7.0,2.0,1.0,5.0,5.0,497.6627743963036,7.0,1.0,phase_2,go,650.0,500.0,1.0,,,,,,,,,white,hexagon
0.0,1.0,0.5,0.0,6.0,6.0,724.7651742791277,7.0,1.0,phase_2,go,650.0,500.0,1.0,,,,,,,,,blue,diamond
0.0,5.0,0.5,1.0,5.0,5.0,622.7459115825695,7.0,1.0,phase_2,stop,650.0,500.0,3.0,,,,,,,,,green,flipped triangle
0.0,3.0,2.0,0.0,6.0,6.0,747.6998848851508,7.0,1.0,phase_2,go,600.0,500.0,1.0,,,,,,,,,magenta,cross
0.0,6.0,1.0,1.0,5.0,5.0,770.6620128847135,7.0,1.0,phase_2,stop,600.0,500.0,3.0,,,,,,,,,yellow,triangle
0.0,1.0,0.5,0.0,5.0,5.0,840.5981954892923,7.0,1.0,phase_2,go,550.0,500.0,1.0,,,,,,,,,blue,diamond
0.0,5.0,0.5,1.0,5.0,0.0,0.0,7.0,1.0,phase_2,stop,550.0,500.0,4.0,,,,,,,,,green,flipped triangle
0.0,4.0,4.0,0.0,6.0,6.0,930.5782283017834,7.0,1.0,phase_2,go,600.0,500.0,1.0,,,,,,,,,gray,square
0.0,8.0,4.0,1.0,6.0,0.0,0.0,7.0,1.0,phase_2,stop,600.0,500.0,4.0,,,,,,,,,cyan,I
0.0,7.0,2.0,1.0,5.0,5.0,639.8356984891507,7.0,1.0,phase_2,go,600.0,550.0,1.0,,,,,,,,,white,hexagon
0.0,5.0,0.5,1.0,6.0,0.0,0.0,7.0,1.0,phase_2,stop,600.0,550.0,4.0,,,,,,,,,green,flipped triangle
0.0,3.0,2.0,0.0,6.0,6.0,304.3361274894778,7.0,1.0,phase_2,go,600.0,600.0,1.0,,,,,,,,,magenta,cross
0.0,4.0,4.0,0.0,5.0,5.0,630.754689999776,7.0,1.0,phase_2,go,600.0,600.0,1.0,,,,,,,,,gray,square
0.0,2.0,1.0,0.0,5.0,5.0,666.827656093119,7.0,1.0,phase_2,go,600.0,600.0,1.0,,,,,,,,,orange,circle
0.0,3.0,2.0,0.0,6.0,6.0,836.1688293953193,7.0,1.0,phase_2,go,600.0,600.0,1.0,,,,,,,,,magenta,cross
0.0,6.0,1.0,1.0,5.0,5.0,847.5420593022136,7.0,1.0,phase_2,go,600.0,600.0,1.0,,,,,,,,,yellow,triangle
0.0,2.0,1.0,0.0,5.0,5.0,748.0254386973684,7.0,1.0,phase_2,go,600.0,600.0,1.0,,,,,,,,,orange,circle
0.0,7.0,2.0,1.0,6.0,6.0,781.4605680005116,7.0,1.0,phase_2,stop,600.0,600.0,3.0,,,,,,,,,white,hexagon
0.0,8.0,4.0,1.0,6.0,6.0,681.1722186985207,7.0,1.0,phase_2,stop,600.0,550.0,3.0,,,,,,,,,cyan,I
0.0,8.0,4.0,1.0,6.0,0.0,0.0,7.0,1.0,phase_2,stop,600.0,500.0,4.0,,,,,,,,,cyan,I
0.0,2.0,1.0,0.0,5.0,5.0,637.0952901870623,7.0,1.0,phase_2,go,600.0,550.0,1.0,,,,,,,,,orange,circle
0.0,6.0,1.0,1.0,5.0,0.0,0.0,7.0,1.0,phase_2,stop,600.0,550.0,4.0,,,,,,,,,yellow,triangle
0.0,8.0,4.0,1.0,6.0,0.0,0.0,7.0,1.0,phase_2,stop,650.0,550.0,4.0,,,,,,,,,cyan,I
0.0,1.0,0.5,0.0,5.0,5.0,775.0267393957984,7.0,1.0,phase_2,go,650.0,600.0,1.0,,,,,,,,,blue,diamond
0.0,7.0,2.0,1.0,5.0,5.0,679.4561579999936,8.0,1.0,phase_2,stop,650.0,600.0,3.0,,,,,,,,,white,hexagon
0.0,8.0,4.0,1.0,6.0,6.0,724.9532087907937,8.0,1.0,phase_2,go,600.0,600.0,1.0,,,,,,,,,cyan,I
0.0,2.0,1.0,0.0,6.0,6.0,748.6005153959923,8.0,1.0,phase_2,go,600.0,600.0,1.0,,,,,,,,,orange,circle
0.0,2.0,1.0,0.0,6.0,6.0,693.6553744890261,8.0,1.0,phase_2,go,600.0,600.0,1.0,,,,,,,,,orange,circle
0.0,7.0,2.0,1.0,5.0,5.0,659.7846267914065,8.0,1.0,phase_2,go,600.0,600.0,1.0,,,,,,,,,white,hexagon
0.0,3.0,2.0,0.0,6.0,6.0,694.3385356980798,8.0,1.0,phase_2,go,600.0,600.0,1.0,,,,,,,,,magenta,cross
0.0,7.0,2.0,1.0,6.0,6.0,660.7417881868969,8.0,1.0,phase_2,stop,600.0,600.0,3.0,,,,,,,,,white,hexagon
0.0,3.0,2.0,0.0,6.0,6.0,694.970875697436,8.0,1.0,phase_2,go,600.0,550.0,1.0,,,,,,,,,magenta,cross
0.0,4.0,4.0,0.0,5.0,5.0,741.0226550937296,8.0,1.0,phase_2,go,600.0,550.0,1.0,,,,,,,,,gray,square
0.0,3.0,2.0,0.0,6.0,6.0,844.6366656980899,8.0,1.0,phase_2,go,600.0,550.0,1.0,,,,,,,,,magenta,cross
0.0,1.0,0.5,0.0,5.0,5.0,755.4636206978103,8.0,1.0,phase_2,go,600.0,550.0,1.0,,,,,,,,,blue,diamond
0.0,8.0,4.0,1.0,6.0,6.0,485.8113063955898,8.0,1.0,phase_2,go,600.0,550.0,1.0,,,,,,,,,cyan,I
0.0,3.0,2.0,0.0,5.0,5.0,588.6009323021426,8.0,1.0,phase_2,go,600.0,550.0,1.0,,,,,,,,,magenta,cross
0.0,8.0,4.0,1.0,5.0,5.0,666.0659491872138,8.0,1.0,phase_2,go,600.0,550.0,1.0,,,,,,,,,cyan,I
0.0,8.0,4.0,1.0,5.0,5.0,544.7197583962406,8.0,1.0,phase_2,stop,600.0,550.0,3.0,,,,,,,,,cyan,I
0.0,7.0,2.0,1.0,5.0,5.0,949.2478740939988,8.0,1.0,phase_2,go,550.0,550.0,1.0,,,,,,,,,white,hexagon
0.0,7.0,2.0,1.0,5.0,5.0,714.4530425830453,8.0,1.0,phase_2,go,550.0,550.0,1.0,,,,,,,,,white,hexagon
0.0,8.0,4.0,1.0,5.0,0.0,0.0,8.0,1.0,phase_2,stop,550.0,550.0,4.0,,,,,,,,,cyan,I
0.0,4.0,4.0,0.0,5.0,5.0,502.36256288462755,8.0,1.0,phase_2,go,600.0,550.0,1.0,,,,,,,,,gray,square
0.0,2.0,1.0,0.0,6.0,6.0,491.898242697971,8.0,1.0,phase_2,go,600.0,550.0,1.0,,,,,,,,,orange,circle
0.0,4.0,4.0,0.0,5.0,5.0,492.8022266976768,8.0,1.0,phase_2,go,600.0,550.0,1.0,,,,,,,,,gray,square
0.0,5.0,0.5,1.0,6.0,0.0,0.0,8.0,1.0,phase_2,stop,600.0,550.0,4.0,,,,,,,,,green,flipped triangle
0.0,8.0,4.0,1.0,6.0,6.0,640.7841731870576,8.0,1.0,phase_2,go,600.0,600.0,1.0,,,,,,,,,cyan,I
0.0,8.0,4.0,1.0,5.0,5.0,550.8511330926922,8.0,1.0,phase_2,stop,600.0,600.0,3.0,,,,,,,,,cyan,I
0.0,8.0,4.0,1.0,6.0,6.0,653.7460625831955,8.0,1.0,phase_2,stop,550.0,600.0,3.0,,,,,,,,,cyan,I
0.0,6.0,1.0,1.0,5.0,5.0,867.6232984898888,8.0,1.0,phase_2,go,550.0,550.0,1.0,,,,,,,,,yellow,triangle
0.0,4.0,4.0,0.0,6.0,6.0,834.9364678851998,8.0,1.0,phase_2,go,550.0,550.0,1.0,,,,,,,,,gray,square
0.0,7.0,2.0,1.0,5.0,0.0,0.0,8.0,1.0,phase_2,stop,550.0,550.0,4.0,,,,,,,,,white,hexagon
0.0,2.0,1.0,0.0,6.0,6.0,611.3164683965806,8.0,1.0,phase_2,go,600.0,550.0,1.0,,,,,,,,,orange,circle
0.0,6.0,1.0,1.0,5.0,0.0,0.0,8.0,1.0,phase_2,stop,600.0,550.0,4.0,,,,,,,,,yellow,triangle
0.0,8.0,4.0,1.0,5.0,5.0,760.335143582779,8.0,1.0,phase_2,stop,650.0,550.0,3.0,,,,,,,,,cyan,I
0.0,1.0,0.5,0.0,6.0,6.0,816.9074105826439,8.0,1.0,phase_2,go,600.0,550.0,1.0,,,,,,,,,blue,diamond
0.0,5.0,0.5,1.0,6.0,0.0,0.0,8.0,1.0,phase_2,stop,600.0,550.0,4.0,,,,,,,,,green,flipped triangle
0.0,3.0,2.0,0.0,5.0,5.0,615.647938582697,8.0,1.0,phase_2,go,600.0,600.0,1.0,,,,,,,,,magenta,cross
0.0,2.0,1.0,0.0,6.0,6.0,627.8421967908798,8.0,1.0,phase_2,go,600.0,600.0,1.0,,,,,,,,,orange,circle
0.0,7.0,2.0,1.0,6.0,6.0,786.5756030932971,8.0,1.0,phase_2,go,600.0,600.0,1.0,,,,,,,,,white,hexagon
0.0,6.0,1.0,1.0,7.0,4.0,2687.737878528424,1.0,1.0,phase_3,,,,,147.0,3.0,294.0,98.0,49.0,147.0,196.0,245.0,yellow,triangle
0.0,6.0,1.0,1.0,7.0,2.0,968.912798587553,1.0,2.0,phase_3,,,,,220.0,5.0,88.0,220.0,264.0,176.0,132.0,44.0,yellow,triangle
0.0,2.0,1.0,0.0,7.0,2.0,2071.0465677930188,1.0,1.0,phase_3,,,,,147.0,3.0,196.0,147.0,294.0,245.0,98.0,49.0,orange,circle
0.0,3.0,2.0,0.0,7.0,5.0,3040.6175175294266,1.0,1.0,phase_3,,,,,170.0,5.0,102.0,68.0,136.0,34.0,170.0,204.0,magenta,cross
0.0,7.0,2.0,1.0,7.0,5.0,2928.131620264139,1.0,1.0,phase_3,,,,,245.0,5.0,98.0,49.0,294.0,147.0,245.0,196.0,white,hexagon
0.0,8.0,4.0,1.0,7.0,2.0,1928.3610728516576,1.0,1.0,phase_3,,,,,132.0,3.0,44.0,132.0,220.0,88.0,176.0,264.0,cyan,I
0.0,6.0,1.0,1.0,7.0,4.0,2481.7077915877235,1.0,1.0,phase_3,,,,,234.0,6.0,195.0,78.0,117.0,234.0,156.0,39.0,yellow,triangle
0.0,3.0,2.0,0.0,7.0,3.0,2393.736926528618,1.0,1.0,phase_3,,,,,220.0,5.0,264.0,132.0,220.0,44.0,176.0,88.0,magenta,cross
0.0,7.0,2.0,1.0,7.0,2.0,3136.0195428515,1.0,1.0,phase_3,,,,,270.0,5.0,216.0,270.0,54.0,162.0,324.0,108.0,white,hexagon
0.0,5.0,0.5,1.0,7.0,3.0,2236.724541264266,1.0,1.0,phase_3,,,,,195.0,5.0,78.0,39.0,195.0,234.0,156.0,117.0,green,flipped triangle
0.0,3.0,2.0,0.0,7.0,3.0,1991.5271873233,1.0,1.0,phase_3,,,,,270.0,5.0,216.0,108.0,270.0,54.0,324.0,162.0,magenta,cross
0.0,5.0,0.5,1.0,7.0,4.0,1610.4334815290713,1.0,1.0,phase_3,,,,,204.0,6.0,136.0,68.0,102.0,204.0,34.0,170.0,green,flipped triangle
0.0,5.0,0.5,1.0,7.0,4.0,2397.398036264349,1.0,1.0,phase_3,,,,,162.0,3.0,324.0,108.0,270.0,162.0,54.0,216.0,green,flipped triangle
0.0,1.0,0.5,0.0,7.0,5.0,2173.8716060590377,1.0,1.0,phase_3,,,,,147.0,3.0,294.0,98.0,49.0,245.0,147.0,196.0,blue,diamond
0.0,3.0,2.0,0.0,7.0,5.0,2107.248004264875,1.0,1.0,phase_3,,,,,245.0,5.0,196.0,49.0,294.0,98.0,245.0,147.0,magenta,cross
0.0,1.0,0.5,0.0,7.0,1.0,1748.2656617939938,1.0,1.0,phase_3,,,,,220.0,5.0,220.0,176.0,132.0,264.0,44.0,88.0,blue,diamond
0.0,5.0,0.5,1.0,7.0,1.0,1986.6062995879477,1.0,1.0,phase_3,,,,,196.0,4.0,196.0,49.0,294.0,147.0,98.0,245.0,green,flipped triangle
0.0,8.0,4.0,1.0,7.0,2.0,2335.317555116489,1.0,1.0,phase_3,,,,,270.0,5.0,162.0,270.0,324.0,54.0,216.0,108.0,cyan,I
0.0,1.0,0.5,0.0,7.0,6.0,2437.671459058947,1.0,1.0,phase_3,,,,,162.0,3.0,270.0,324.0,216.0,108.0,54.0,162.0,blue,diamond
0.0,7.0,2.0,1.0,7.0,3.0,2460.784842852263,1.0,1.0,phase_3,,,,,234.0,6.0,156.0,117.0,234.0,195.0,78.0,39.0,white,hexagon
0.0,8.0,4.0,1.0,7.0,2.0,1740.597117116522,2.0,1.0,phase_3,,,,,147.0,3.0,245.0,147.0,294.0,98.0,196.0,49.0,cyan,I
0.0,7.0,2.0,1.0,7.0,1.0,1437.207580793256,2.0,1.0,phase_3,,,,,245.0,5.0,245.0,294.0,147.0,196.0,49.0,98.0,white,hexagon
0.0,3.0,2.0,0.0,7.0,1.0,1438.559165587321,2.0,1.0,phase_3,,,,,245.0,5.0,245.0,147.0,196.0,294.0,98.0,49.0,magenta,cross
0.0,4.0,4.0,0.0,7.0,1.0,2374.664957587811,2.0,1.0,phase_3,,,,,68.0,2.0,68.0,204.0,34.0,136.0,170.0,102.0,gray,square
0.0,6.0,1.0,1.0,7.0,6.0,2240.963916116925,2.0,1.0,phase_3,,,,,102.0,3.0,34.0,68.0,204.0,170.0,136.0,102.0,yellow,triangle
0.0,3.0,2.0,0.0,7.0,4.0,1701.2582873230713,2.0,1.0,phase_3,,,,,234.0,6.0,78.0,39.0,117.0,234.0,156.0,195.0,magenta,cross
0.0,4.0,4.0,0.0,7.0,2.0,1771.0529485293591,2.0,1.0,phase_3,,,,,88.0,2.0,44.0,88.0,220.0,176.0,132.0,264.0,gray,square
0.0,2.0,1.0,0.0,7.0,5.0,1850.602861058178,2.0,1.0,phase_3,,,,,176.0,4.0,220.0,132.0,264.0,44.0,176.0,88.0,orange,circle
0.0,8.0,4.0,1.0,7.0,3.0,1907.5697235293771,2.0,1.0,phase_3,,,,,147.0,3.0,98.0,49.0,147.0,294.0,196.0,245.0,cyan,I
0.0,1.0,0.5,0.0,7.0,2.0,2863.5168097935093,2.0,1.0,phase_3,,,,,270.0,5.0,162.0,270.0,324.0,216.0,54.0,108.0,blue,diamond
0.0,2.0,1.0,0.0,7.0,3.0,1908.2884720583024,2.0,1.0,phase_3,,,,,204.0,6.0,170.0,34.0,204.0,102.0,136.0,68.0,orange,circle
0.0,1.0,0.5,0.0,7.0,3.0,2575.144810263737,2.0,1.0,phase_3,,,,,220.0,5.0,176.0,132.0,220.0,264.0,44.0,88.0,blue,diamond
0.0,8.0,4.0,1.0,7.0,3.0,2495.8104851166354,2.0,1.0,phase_3,,,,,156.0,4.0,39.0,78.0,156.0,195.0,117.0,234.0,cyan,I
0.0,6.0,1.0,1.0,7.0,2.0,2137.550832323541,2.0,1.0,phase_3,,,,,176.0,4.0,220.0,176.0,264.0,88.0,44.0,132.0,yellow,triangle
0.0,4.0,4.0,0.0,7.0,5.0,2533.5721453811857,2.0,1.0,phase_3,,,,,108.0,2.0,162.0,216.0,324.0,270.0,108.0,54.0,gray,square
0.0,7.0,2.0,1.0,7.0,1.0,4481.241863116338,2.0,1.0,phase_3,,,,,176.0,4.0,176.0,220.0,88.0,44.0,132.0,264.0,white,hexagon
0.0,6.0,1.0,1.0,7.0,2.0,2844.054456529193,2.0,1.0,phase_3,,,,,196.0,4.0,98.0,196.0,147.0,49.0,245.0,294.0,yellow,triangle
0.0,4.0,4.0,0.0,7.0,3.0,3003.551235323357,2.0,1.0,phase_3,,,,,88.0,2.0,132.0,264.0,88.0,44.0,220.0,176.0,gray,square
0.0,5.0,0.5,1.0,7.0,3.0,2554.5965625287863,2.0,1.0,phase_3,,,,,176.0,4.0,220.0,264.0,176.0,44.0,132.0,88.0,green,flipped triangle
0.0,3.0,2.0,0.0,7.0,3.0,2556.0515911165567,2.0,1.0,phase_3,,,,,216.0,4.0,54.0,270.0,216.0,162.0,108.0,324.0,magenta,cross
0.0,6.0,1.0,1.0,7.0,1.0,1564.606380115947,3.0,1.0,phase_3,,,,,216.0,4.0,216.0,108.0,324.0,54.0,162.0,270.0,yellow,triangle
0.0,2.0,1.0,0.0,7.0,3.0,1543.293584323692,3.0,1.0,phase_3,,,,,195.0,5.0,117.0,234.0,195.0,39.0,156.0,78.0,orange,circle
0.0,7.0,2.0,1.0,7.0,2.0,3175.675697116276,3.0,1.0,phase_3,,,,,204.0,6.0,102.0,204.0,136.0,170.0,34.0,68.0,white,hexagon
0.0,4.0,4.0,0.0,7.0,3.0,1984.1807190587133,3.0,1.0,phase_3,,,,,102.0,3.0,170.0,68.0,102.0,136.0,204.0,34.0,gray,square
0.0,3.0,2.0,0.0,7.0,3.0,1422.4947383227118,3.0,1.0,phase_3,,,,,220.0,5.0,44.0,88.0,220.0,176.0,264.0,132.0,magenta,cross
0.0,1.0,0.5,0.0,7.0,4.0,3011.575301793528,3.0,1.0,phase_3,,,,,156.0,4.0,78.0,195.0,39.0,156.0,117.0,234.0,blue,diamond
0.0,6.0,1.0,1.0,7.0,2.0,1753.0253408522185,3.0,1.0,phase_3,,,,,216.0,4.0,54.0,216.0,162.0,270.0,324.0,108.0,yellow,triangle
0.0,4.0,4.0,0.0,7.0,5.0,2236.327750529199,3.0,1.0,phase_3,,,,,108.0,2.0,162.0,270.0,216.0,54.0,108.0,324.0,gray,square
0.0,2.0,1.0,0.0,7.0,3.0,1258.396218323469,3.0,1.0,phase_3,,,,,204.0,6.0,34.0,102.0,204.0,68.0,136.0,170.0,orange,circle
0.0,6.0,1.0,1.0,7.0,1.0,1912.1243455883812,3.0,1.0,phase_3,,,,,204.0,6.0,204.0,34.0,136.0,68.0,170.0,102.0,yellow,triangle
0.0,4.0,4.0,0.0,7.0,5.0,1891.2338675290807,3.0,1.0,phase_3,,,,,117.0,3.0,195.0,156.0,234.0,39.0,117.0,78.0,gray,square
0.0,4.0,4.0,0.0,7.0,2.0,1644.5680943234038,3.0,1.0,phase_3,,,,,98.0,2.0,294.0,98.0,49.0,196.0,147.0,245.0,gray,square
0.0,1.0,0.5,0.0,7.0,4.0,3501.6232010584645,3.0,1.0,phase_3,,,,,136.0,4.0,102.0,34.0,170.0,136.0,68.0,204.0,blue,diamond
0.0,5.0,0.5,1.0,7.0,4.0,2344.586722529129,3.0,1.0,phase_3,,,,,270.0,5.0,216.0,162.0,324.0,270.0,54.0,108.0,green,flipped triangle
0.0,7.0,2.0,1.0,7.0,1.0,2524.5035238522178,3.0,1.0,phase_3,,,,,216.0,4.0,216.0,270.0,108.0,324.0,54.0,162.0,white,hexagon
0.0,7.0,2.0,1.0,7.0,5.0,1694.0707802641557,3.0,1.0,phase_3,,,,,195.0,5.0,156.0,78.0,117.0,39.0,195.0,234.0,white,hexagon
0.0,1.0,0.5,0.0,7.0,3.0,1705.9274085286231,3.0,1.0,phase_3,,,,,245.0,5.0,196.0,98.0,245.0,147.0,294.0,49.0,blue,diamond
0.0,8.0,4.0,1.0,7.0,3.0,2169.4107705288843,3.0,1.0,phase_3,,,,,270.0,5.0,54.0,108.0,270.0,216.0,162.0,324.0,cyan,I
0.0,5.0,0.5,1.0,7.0,5.0,1697.0636403229946,3.0,1.0,phase_3,,,,,220.0,5.0,88.0,132.0,264.0,176.0,220.0,44.0,green,flipped triangle
0.0,1.0,0.5,0.0,7.0,3.0,3531.395266117215,3.0,1.0,phase_3,,,,,170.0,5.0,68.0,136.0,170.0,34.0,102.0,204.0,blue,diamond
0.0,4.0,4.0,0.0,7.0,6.0,2294.9960882651794,4.0,1.0,phase_3,,,,,117.0,3.0,78.0,156.0,234.0,39.0,195.0,117.0,gray,square
0.0,7.0,2.0,1.0,7.0,1.0,1720.836303793476,4.0,1.0,phase_3,,,,,220.0,5.0,220.0,44.0,132.0,176.0,264.0,88.0,white,hexagon
0.0,1.0,0.5,0.0,7.0,5.0,3173.7673290590465,4.0,1.0,phase_3,,,,,195.0,5.0,39.0,117.0,78.0,156.0,195.0,234.0,blue,diamond
0.0,6.0,1.0,1.0,7.0,6.0,2802.735898264473,4.0,1.0,phase_3,,,,,195.0,5.0,39.0,234.0,78.0,117.0,156.0,195.0,yellow,triangle
0.0,3.0,2.0,0.0,7.0,5.0,3355.216279058368,4.0,1.0,phase_3,,,,,170.0,5.0,204.0,34.0,136.0,102.0,170.0,68.0,magenta,cross
0.0,2.0,1.0,0.0,7.0,5.0,2660.401711323175,4.0,1.0,phase_3,,,,,216.0,4.0,108.0,54.0,324.0,162.0,216.0,270.0,orange,circle
0.0,5.0,0.5,1.0,7.0,3.0,2335.352701058582,4.0,1.0,phase_3,,,,,245.0,5.0,147.0,49.0,245.0,98.0,294.0,196.0,green,flipped triangle
0.0,5.0,0.5,1.0,7.0,2.0,3663.6557071160496,4.0,1.0,phase_3,,,,,170.0,5.0,204.0,170.0,68.0,34.0,102.0,136.0,green,flipped triangle
0.0,5.0,0.5,1.0,7.0,6.0,3281.239037528394,4.0,1.0,phase_3,,,,,156.0,4.0,195.0,234.0,39.0,78.0,117.0,156.0,green,flipped triangle
0.0,3.0,2.0,0.0,7.0,1.0,4510.356874528952,4.0,1.0,phase_3,,,,,234.0,6.0,234.0,39.0,195.0,78.0,156.0,117.0,magenta,cross
0.0,2.0,1.0,0.0,7.0,1.0,1795.259135528795,4.0,1.0,phase_3,,,,,195.0,5.0,195.0,156.0,234.0,39.0,78.0,117.0,orange,circle
0.0,8.0,4.0,1.0,7.0,6.0,4652.826140323668,4.0,1.0,phase_3,,,,,156.0,4.0,195.0,39.0,78.0,117.0,234.0,156.0,cyan,I
0.0,8.0,4.0,1.0,7.0,4.0,3666.469929793493,4.0,1.0,phase_3,,,,,136.0,4.0,34.0,170.0,68.0,136.0,204.0,102.0,cyan,I
0.0,2.0,1.0,0.0,7.0,3.0,2756.870248323139,4.0,1.0,phase_3,,,,,220.0,5.0,132.0,264.0,220.0,88.0,176.0,44.0,orange,circle
0.0,2.0,1.0,0.0,7.0,3.0,3375.818649587927,4.0,1.0,phase_3,,,,,270.0,5.0,108.0,162.0,270.0,324.0,54.0,216.0,orange,circle
0.0,8.0,4.0,1.0,7.0,5.0,3657.8752819996234,4.0,1.0,phase_3,,,,,176.0,4.0,88.0,132.0,264.0,44.0,176.0,220.0,cyan,I
0.0,2.0,1.0,0.0,7.0,3.0,3828.612503852128,4.0,1.0,phase_3,,,,,196.0,4.0,294.0,98.0,196.0,147.0,49.0,245.0,orange,circle
0.0,7.0,2.0,1.0,7.0,1.0,2761.2816730588747,4.0,1.0,phase_3,,,,,204.0,6.0,204.0,68.0,170.0,136.0,34.0,102.0,white,hexagon
0.0,8.0,4.0,1.0,7.0,1.0,2672.7679038522183,4.0,1.0,phase_3,,,,,170.0,5.0,170.0,34.0,68.0,136.0,204.0,102.0,cyan,I
0.0,4.0,4.0,0.0,7.0,1.0,2176.785414587357,4.0,1.0,phase_3,,,,,147.0,3.0,147.0,196.0,245.0,49.0,98.0,294.0,gray,square
