raw_reward_magnitude,stim_reward,stepwise_reward_magnitude,paired_with_stopping,stim_location,response,reaction_time,block,num_trial_presentations,which_phase,stop_signal_trial_type,left_SSD,right_SSD,accuracy,chosen_bidding_amount,chosen_bidding_level,possible_bid_1,possible_bid_2,possible_bid_3,possible_bid_4,possible_bid_5,possible_bid_6,color_text,shape_text
418.0,8.0,4.0,1.0,2.0,2.0,380.3809517339687,1.0,1.0,phase_1,,,,,,,,,,,,,yellow,hexagon
48.0,5.0,0.5,1.0,1.0,1.0,447.1865589766821,1.0,1.0,phase_1,,,,,,,,,,,,,green,flipped triangle
118.0,6.0,1.0,1.0,4.0,4.0,392.6859999883163,1.0,1.0,phase_1,,,,,,,,,,,,,white,I
93.0,2.0,1.0,0.0,4.0,4.0,436.3536969995039,1.0,1.0,phase_1,,,,,,,,,,,,,orange,diamond
42.0,1.0,0.5,0.0,3.0,3.0,326.4638452274084,1.0,1.0,phase_1,,,,,,,,,,,,,magenta,triangle
25.0,1.0,0.5,0.0,1.0,1.0,350.0812492293335,1.0,1.0,phase_1,,,,,,,,,,,,,magenta,triangle
107.0,2.0,1.0,0.0,1.0,1.0,395.431040227777,1.0,1.0,phase_1,,,,,,,,,,,,,orange,diamond
215.0,7.0,2.0,1.0,4.0,4.0,383.3438929759722,1.0,1.0,phase_1,,,,,,,,,,,,,blue,circle
185.0,3.0,2.0,0.0,3.0,3.0,315.426718976596,1.0,1.0,phase_1,,,,,,,,,,,,,gray,cross
0.0,2.0,0.0,0.0,1.0,1.0,363.3491677446727,1.0,1.0,phase_1,,,,,,,,,,,,,orange,diamond
180.0,3.0,2.0,0.0,2.0,2.0,362.1485502389987,1.0,1.0,phase_1,,,,,,,,,,,,,gray,cross
403.0,8.0,4.0,1.0,3.0,3.0,295.1404109862778,1.0,1.0,phase_1,,,,,,,,,,,,,yellow,hexagon
0.0,5.0,0.0,1.0,2.0,2.0,499.2991754934337,1.0,1.0,phase_1,,,,,,,,,,,,,green,flipped triangle
110.0,2.0,1.0,0.0,2.0,2.0,318.6005307452433,1.0,1.0,phase_1,,,,,,,,,,,,,orange,diamond
381.0,8.0,4.0,1.0,4.0,4.0,298.2700099892099,1.0,1.0,phase_1,,,,,,,,,,,,,yellow,hexagon
189.0,7.0,2.0,1.0,2.0,2.0,354.1938164817111,1.0,1.0,phase_1,,,,,,,,,,,,,blue,circle
107.0,2.0,1.0,0.0,4.0,4.0,365.527308480523,1.0,1.0,phase_1,,,,,,,,,,,,,orange,diamond
48.0,5.0,0.5,1.0,4.0,4.0,322.1608447329345,1.0,1.0,phase_1,,,,,,,,,,,,,green,flipped triangle
119.0,6.0,1.0,1.0,1.0,1.0,311.705551974228,1.0,1.0,phase_1,,,,,,,,,,,,,white,I
224.0,7.0,2.0,1.0,2.0,2.0,346.2833214944112,1.0,1.0,phase_1,,,,,,,,,,,,,blue,circle
0.0,2.0,0.0,0.0,3.0,3.0,289.400569481586,1.0,1.0,phase_1,,,,,,,,,,,,,orange,diamond
55.0,1.0,0.5,0.0,1.0,1.0,301.7063014813175,1.0,1.0,phase_1,,,,,,,,,,,,,magenta,triangle
385.0,4.0,4.0,0.0,4.0,4.0,324.6625527463038,1.0,1.0,phase_1,,,,,,,,,,,,,cyan,square
46.0,5.0,0.5,1.0,2.0,2.0,269.2781712394207,1.0,1.0,phase_1,,,,,,,,,,,,,green,flipped triangle
0.0,4.0,0.0,0.0,4.0,4.0,313.50473949351,1.0,1.0,phase_1,,,,,,,,,,,,,cyan,square
376.0,4.0,4.0,0.0,2.0,2.0,314.4948114822909,1.0,1.0,phase_1,,,,,,,,,,,,,cyan,square
108.0,2.0,1.0,0.0,3.0,3.0,347.8810914930363,1.0,1.0,phase_1,,,,,,,,,,,,,orange,diamond
424.0,8.0,4.0,1.0,2.0,2.0,271.6286504819436,1.0,1.0,phase_1,,,,,,,,,,,,,yellow,hexagon
389.0,4.0,4.0,0.0,2.0,2.0,282.6610662286839,1.0,1.0,phase_1,,,,,,,,,,,,,cyan,square
101.0,6.0,1.0,1.0,4.0,4.0,327.0041287451022,1.0,1.0,phase_1,,,,,,,,,,,,,white,I
35.0,1.0,0.5,0.0,3.0,3.0,315.9867894937633,1.0,1.0,phase_1,,,,,,,,,,,,,magenta,triangle
419.0,8.0,4.0,1.0,3.0,3.0,283.9213314819062,1.0,1.0,phase_1,,,,,,,,,,,,,yellow,hexagon
403.0,4.0,4.0,0.0,2.0,2.0,340.8499864817713,1.0,1.0,phase_1,,,,,,,,,,,,,cyan,square
0.0,2.0,0.0,0.0,3.0,3.0,318.3410889741935,1.0,1.0,phase_1,,,,,,,,,,,,,orange,diamond
214.0,7.0,2.0,1.0,4.0,4.0,262.757373495333,1.0,1.0,phase_1,,,,,,,,,,,,,blue,circle
218.0,3.0,2.0,0.0,1.0,1.0,353.797675745227,1.0,1.0,phase_1,,,,,,,,,,,,,gray,cross
176.0,7.0,2.0,1.0,3.0,3.0,331.3008549757796,1.0,1.0,phase_1,,,,,,,,,,,,,blue,circle
101.0,2.0,1.0,0.0,1.0,1.0,489.5642769752157,1.0,1.0,phase_1,,,,,,,,,,,,,orange,diamond
0.0,3.0,0.0,0.0,1.0,1.0,311.6329877448152,1.0,1.0,phase_1,,,,,,,,,,,,,gray,cross
65.0,1.0,0.5,0.0,3.0,3.0,321.7753957342211,1.0,1.0,phase_1,,,,,,,,,,,,,magenta,triangle
207.0,3.0,2.0,0.0,2.0,2.0,312.1059634941048,1.0,1.0,phase_1,,,,,,,,,,,,,gray,cross
108.0,6.0,1.0,1.0,3.0,3.0,289.3300944815564,1.0,1.0,phase_1,,,,,,,,,,,,,white,I
107.0,2.0,1.0,0.0,2.0,2.0,323.0306957466382,1.0,1.0,phase_1,,,,,,,,,,,,,orange,diamond
392.0,4.0,4.0,0.0,2.0,2.0,257.1987912288023,1.0,1.0,phase_1,,,,,,,,,,,,,cyan,square
92.0,6.0,1.0,1.0,1.0,1.0,269.1809359748731,1.0,1.0,phase_1,,,,,,,,,,,,,white,I
89.0,2.0,1.0,0.0,2.0,2.0,291.3211662289541,1.0,1.0,phase_1,,,,,,,,,,,,,orange,diamond
381.0,4.0,4.0,0.0,4.0,4.0,381.3333427351608,1.0,1.0,phase_1,,,,,,,,,,,,,cyan,square
223.0,3.0,2.0,0.0,2.0,2.0,439.1685907467035,1.0,1.0,phase_1,,,,,,,,,,,,,gray,cross
117.0,2.0,1.0,0.0,1.0,1.0,349.8368372402183,1.0,1.0,phase_1,,,,,,,,,,,,,orange,diamond
55.0,5.0,0.5,1.0,4.0,4.0,362.6330112383584,1.0,1.0,phase_1,,,,,,,,,,,,,green,flipped triangle
83.0,6.0,1.0,1.0,4.0,4.0,395.7926125058293,1.0,1.0,phase_1,,,,,,,,,,,,,white,I
0.0,3.0,0.0,0.0,2.0,2.0,329.5009929861408,1.0,1.0,phase_1,,,,,,,,,,,,,gray,cross
185.0,7.0,2.0,1.0,3.0,3.0,295.4453639758867,1.0,1.0,phase_1,,,,,,,,,,,,,blue,circle
424.0,8.0,4.0,1.0,1.0,1.0,318.5543072286236,1.0,1.0,phase_1,,,,,,,,,,,,,yellow,hexagon
0.0,3.0,0.0,0.0,2.0,2.0,273.6753074823355,1.0,1.0,phase_1,,,,,,,,,,,,,gray,cross
0.0,4.0,0.0,0.0,4.0,4.0,273.7300469871115,1.0,1.0,phase_1,,,,,,,,,,,,,cyan,square
395.0,8.0,4.0,1.0,1.0,1.0,319.8953099999926,1.0,1.0,phase_1,,,,,,,,,,,,,yellow,hexagon
30.0,1.0,0.5,0.0,4.0,4.0,253.57821273428272,1.0,1.0,phase_1,,,,,,,,,,,,,magenta,triangle
192.0,7.0,2.0,1.0,4.0,4.0,320.2671289873251,1.0,1.0,phase_1,,,,,,,,,,,,,blue,circle
84.0,2.0,1.0,0.0,4.0,4.0,344.020367721896,1.0,1.0,phase_1,,,,,,,,,,,,,orange,diamond
115.0,6.0,1.0,1.0,4.0,4.0,311.5208552389958,1.0,1.0,phase_1,,,,,,,,,,,,,white,I
176.0,3.0,2.0,0.0,1.0,1.0,345.391309734623,1.0,1.0,phase_1,,,,,,,,,,,,,gray,cross
418.0,4.0,4.0,0.0,1.0,1.0,313.7608472552529,1.0,1.0,phase_1,,,,,,,,,,,,,cyan,square
0.0,7.0,0.0,1.0,1.0,1.0,324.9520494809985,1.0,1.0,phase_1,,,,,,,,,,,,,blue,circle
0.0,8.0,0.0,1.0,2.0,2.0,302.8026844949636,1.0,1.0,phase_1,,,,,,,,,,,,,yellow,hexagon
186.0,3.0,2.0,0.0,3.0,3.0,312.628063988086,1.0,1.0,phase_1,,,,,,,,,,,,,gray,cross
72.0,5.0,0.5,1.0,4.0,4.0,302.7733577218896,1.0,1.0,phase_1,,,,,,,,,,,,,green,flipped triangle
42.0,5.0,0.5,1.0,1.0,1.0,326.1844159878819,1.0,2.0,phase_1,,,,,,,,,,,,,green,flipped triangle
198.0,7.0,2.0,1.0,3.0,3.0,316.4362467468891,1.0,1.0,phase_1,,,,,,,,,,,,,blue,circle
29.0,1.0,0.5,0.0,4.0,4.0,316.1599634931917,1.0,1.0,phase_1,,,,,,,,,,,,,magenta,triangle
80.0,6.0,1.0,1.0,3.0,3.0,340.4522989985707,1.0,1.0,phase_1,,,,,,,,,,,,,white,I
200.0,7.0,2.0,1.0,4.0,4.0,340.8405472400773,1.0,1.0,phase_1,,,,,,,,,,,,,blue,circle
224.0,3.0,2.0,0.0,4.0,4.0,307.5958647459629,1.0,1.0,phase_1,,,,,,,,,,,,,gray,cross
48.0,1.0,0.5,0.0,3.0,3.0,452.9194207334512,1.0,1.0,phase_1,,,,,,,,,,,,,magenta,triangle
210.0,7.0,2.0,1.0,4.0,4.0,318.5214244822418,1.0,1.0,phase_1,,,,,,,,,,,,,blue,circle
48.0,1.0,0.5,0.0,1.0,1.0,341.8892457229958,1.0,1.0,phase_1,,,,,,,,,,,,,magenta,triangle
25.0,5.0,0.5,1.0,3.0,3.0,320.4584129889554,1.0,1.0,phase_1,,,,,,,,,,,,,green,flipped triangle
0.0,7.0,0.0,1.0,3.0,3.0,366.2643907337042,1.0,1.0,phase_1,,,,,,,,,,,,,blue,circle
52.0,5.0,0.5,1.0,2.0,2.0,323.1443489876255,1.0,1.0,phase_1,,,,,,,,,,,,,green,flipped triangle
201.0,7.0,2.0,1.0,1.0,1.0,435.2702144824434,1.0,1.0,phase_1,,,,,,,,,,,,,blue,circle
0.0,6.0,0.0,1.0,4.0,4.0,391.2599662271532,1.0,1.0,phase_1,,,,,,,,,,,,,white,I
107.0,6.0,1.0,1.0,1.0,1.0,346.6624579868949,1.0,1.0,phase_1,,,,,,,,,,,,,white,I
107.0,6.0,1.0,1.0,1.0,1.0,346.378692494909,1.0,1.0,phase_1,,,,,,,,,,,,,white,I
412.0,4.0,4.0,0.0,4.0,4.0,325.422108746352,1.0,1.0,phase_1,,,,,,,,,,,,,cyan,square
223.0,7.0,2.0,1.0,1.0,1.0,301.8421274937282,1.0,1.0,phase_1,,,,,,,,,,,,,blue,circle
27.0,1.0,0.5,0.0,2.0,2.0,326.9474584940326,1.0,1.0,phase_1,,,,,,,,,,,,,magenta,triangle
0.0,5.0,0.0,1.0,2.0,2.0,293.2802269770036,1.0,1.0,phase_1,,,,,,,,,,,,,green,flipped triangle
99.0,6.0,1.0,1.0,2.0,2.0,326.9120452278002,1.0,1.0,phase_1,,,,,,,,,,,,,white,I
71.0,1.0,0.5,0.0,1.0,1.0,292.9665117335389,1.0,1.0,phase_1,,,,,,,,,,,,,magenta,triangle
395.0,8.0,4.0,1.0,4.0,4.0,360.5263052395457,1.0,1.0,phase_1,,,,,,,,,,,,,yellow,hexagon
407.0,8.0,4.0,1.0,4.0,4.0,329.2119269990508,1.0,1.0,phase_1,,,,,,,,,,,,,yellow,hexagon
215.0,3.0,2.0,0.0,1.0,1.0,430.4385899886256,1.0,2.0,phase_1,,,,,,,,,,,,,gray,cross
0.0,8.0,0.0,1.0,1.0,1.0,340.9001517466095,1.0,1.0,phase_1,,,,,,,,,,,,,yellow,hexagon
209.0,7.0,2.0,1.0,2.0,2.0,387.8706617342686,1.0,1.0,phase_1,,,,,,,,,,,,,blue,circle
122.0,2.0,1.0,0.0,3.0,3.0,342.9370004942029,1.0,1.0,phase_1,,,,,,,,,,,,,orange,diamond
47.0,5.0,0.5,1.0,3.0,3.0,432.9197392416972,1.0,1.0,phase_1,,,,,,,,,,,,,green,flipped triangle
0.0,7.0,0.0,1.0,4.0,4.0,399.4896279891691,1.0,1.0,phase_1,,,,,,,,,,,,,blue,circle
122.0,6.0,1.0,1.0,1.0,1.0,345.0063739746838,1.0,1.0,phase_1,,,,,,,,,,,,,white,I
394.0,4.0,4.0,0.0,1.0,1.0,377.7584029758145,1.0,1.0,phase_1,,,,,,,,,,,,,cyan,square
42.0,1.0,0.5,0.0,4.0,4.0,322.6613047336286,1.0,1.0,phase_1,,,,,,,,,,,,,magenta,triangle
0.0,2.0,0.0,0.0,1.0,1.0,436.8087317343452,2.0,1.0,phase_1,,,,,,,,,,,,,orange,diamond
401.0,8.0,4.0,1.0,2.0,2.0,369.050414987214,2.0,1.0,phase_1,,,,,,,,,,,,,yellow,hexagon
216.0,3.0,2.0,0.0,4.0,4.0,403.0041487221751,2.0,1.0,phase_1,,,,,,,,,,,,,gray,cross
77.0,6.0,1.0,1.0,3.0,3.0,302.7382167347241,2.0,1.0,phase_1,,,,,,,,,,,,,white,I
176.0,7.0,2.0,1.0,3.0,3.0,313.961027733967,2.0,1.0,phase_1,,,,,,,,,,,,,blue,circle
72.0,5.0,0.5,1.0,4.0,4.0,572.5070697335468,2.0,1.0,phase_1,,,,,,,,,,,,,green,flipped triangle
418.0,8.0,4.0,1.0,1.0,1.0,338.7231334945682,2.0,1.0,phase_1,,,,,,,,,,,,,yellow,hexagon
89.0,2.0,1.0,0.0,2.0,2.0,418.179477481317,2.0,1.0,phase_1,,,,,,,,,,,,,orange,diamond
120.0,6.0,1.0,1.0,4.0,4.0,506.83945298806066,2.0,1.0,phase_1,,,,,,,,,,,,,white,I
117.0,6.0,1.0,1.0,3.0,3.0,384.2779724927823,2.0,1.0,phase_1,,,,,,,,,,,,,white,I
195.0,3.0,2.0,0.0,1.0,1.0,339.5331424926553,2.0,1.0,phase_1,,,,,,,,,,,,,gray,cross
419.0,4.0,4.0,0.0,3.0,3.0,338.9628349868872,2.0,1.0,phase_1,,,,,,,,,,,,,cyan,square
0.0,1.0,0.0,0.0,2.0,2.0,284.8116274944914,2.0,1.0,phase_1,,,,,,,,,,,,,magenta,triangle
84.0,6.0,1.0,1.0,1.0,1.0,342.1786352282652,2.0,1.0,phase_1,,,,,,,,,,,,,white,I
223.0,7.0,2.0,1.0,1.0,1.0,409.0256442414102,2.0,1.0,phase_1,,,,,,,,,,,,,blue,circle
62.0,5.0,0.5,1.0,1.0,1.0,355.1714277327846,2.0,1.0,phase_1,,,,,,,,,,,,,green,flipped triangle
0.0,7.0,0.0,1.0,1.0,1.0,411.2265347339416,2.0,1.0,phase_1,,,,,,,,,,,,,blue,circle
420.0,8.0,4.0,1.0,3.0,3.0,310.2307270000892,2.0,1.0,phase_1,,,,,,,,,,,,,yellow,hexagon
0.0,2.0,0.0,0.0,2.0,2.0,378.03279474610457,2.0,1.0,phase_1,,,,,,,,,,,,,orange,diamond
111.0,2.0,1.0,0.0,2.0,2.0,400.5507042402314,2.0,1.0,phase_1,,,,,,,,,,,,,orange,diamond
30.0,5.0,0.5,1.0,2.0,2.0,333.6669274940504,2.0,1.0,phase_1,,,,,,,,,,,,,green,flipped triangle
395.0,8.0,4.0,1.0,1.0,1.0,436.0274842274521,2.0,1.0,phase_1,,,,,,,,,,,,,yellow,hexagon
97.0,6.0,1.0,1.0,2.0,2.0,368.6553414936497,2.0,1.0,phase_1,,,,,,,,,,,,,white,I
376.0,4.0,4.0,0.0,1.0,1.0,357.2726702404907,2.0,1.0,phase_1,,,,,,,,,,,,,cyan,square
385.0,8.0,4.0,1.0,4.0,4.0,335.7539904809528,2.0,1.0,phase_1,,,,,,,,,,,,,yellow,hexagon
0.0,2.0,0.0,0.0,1.0,1.0,338.1696504948195,2.0,1.0,phase_1,,,,,,,,,,,,,orange,diamond
72.0,1.0,0.5,0.0,4.0,4.0,404.3491049869772,2.0,1.0,phase_1,,,,,,,,,,,,,magenta,triangle
189.0,3.0,2.0,0.0,1.0,1.0,316.3192424926819,2.0,1.0,phase_1,,,,,,,,,,,,,gray,cross
0.0,1.0,0.0,0.0,4.0,4.0,417.5376759885694,2.0,2.0,phase_1,,,,,,,,,,,,,magenta,triangle
110.0,2.0,1.0,0.0,3.0,3.0,419.8002877456019,2.0,1.0,phase_1,,,,,,,,,,,,,orange,diamond
407.0,4.0,4.0,0.0,1.0,1.0,474.6476549880754,2.0,1.0,phase_1,,,,,,,,,,,,,cyan,square
117.0,2.0,1.0,0.0,4.0,4.0,429.6626039995317,2.0,1.0,phase_1,,,,,,,,,,,,,orange,diamond
395.0,4.0,4.0,0.0,1.0,1.0,374.4696622397896,2.0,1.0,phase_1,,,,,,,,,,,,,cyan,square
395.0,8.0,4.0,1.0,4.0,4.0,352.4501284937287,2.0,1.0,phase_1,,,,,,,,,,,,,yellow,hexagon
203.0,3.0,2.0,0.0,3.0,3.0,387.8219864818675,2.0,1.0,phase_1,,,,,,,,,,,,,gray,cross
200.0,3.0,2.0,0.0,4.0,4.0,397.929532746275,2.0,1.0,phase_1,,,,,,,,,,,,,gray,cross
0.0,1.0,0.0,0.0,1.0,1.0,478.2112979755766,2.0,1.0,phase_1,,,,,,,,,,,,,magenta,triangle
0.0,1.0,0.0,0.0,4.0,4.0,342.8993269881175,2.0,1.0,phase_1,,,,,,,,,,,,,magenta,triangle
198.0,3.0,2.0,0.0,2.0,2.0,311.8895449879346,2.0,1.0,phase_1,,,,,,,,,,,,,gray,cross
0.0,1.0,0.0,0.0,2.0,2.0,378.1434242282557,2.0,1.0,phase_1,,,,,,,,,,,,,magenta,triangle
177.0,3.0,2.0,0.0,4.0,4.0,424.336235239025,2.0,1.0,phase_1,,,,,,,,,,,,,gray,cross
0.0,2.0,0.0,0.0,2.0,2.0,391.1823914822889,2.0,1.0,phase_1,,,,,,,,,,,,,orange,diamond
376.0,8.0,4.0,1.0,2.0,2.0,335.4752137329342,2.0,1.0,phase_1,,,,,,,,,,,,,yellow,hexagon
185.0,3.0,2.0,0.0,4.0,4.0,334.8845617329061,2.0,1.0,phase_1,,,,,,,,,,,,,gray,cross
63.0,5.0,0.5,1.0,3.0,3.0,382.3443364944978,2.0,1.0,phase_1,,,,,,,,,,,,,green,flipped triangle
398.0,4.0,4.0,0.0,3.0,3.0,393.0756437330274,2.0,1.0,phase_1,,,,,,,,,,,,,cyan,square
47.0,5.0,0.5,1.0,2.0,2.0,641.3673414936056,2.0,1.0,phase_1,,,,,,,,,,,,,green,flipped triangle
388.0,4.0,4.0,0.0,1.0,1.0,585.4269594947255,2.0,1.0,phase_1,,,,,,,,,,,,,cyan,square
207.0,7.0,2.0,1.0,4.0,4.0,338.0358692411391,2.0,1.0,phase_1,,,,,,,,,,,,,blue,circle
0.0,7.0,0.0,1.0,4.0,4.0,553.6912637344358,2.0,1.0,phase_1,,,,,,,,,,,,,blue,circle
424.0,4.0,4.0,0.0,3.0,3.0,351.5775857467815,2.0,1.0,phase_1,,,,,,,,,,,,,cyan,square
419.0,8.0,4.0,1.0,2.0,2.0,306.3630877459218,2.0,1.0,phase_1,,,,,,,,,,,,,yellow,hexagon
60.0,5.0,0.5,1.0,4.0,4.0,317.0653132401639,2.0,1.0,phase_1,,,,,,,,,,,,,green,flipped triangle
424.0,4.0,4.0,0.0,2.0,2.0,319.8081319878838,2.0,1.0,phase_1,,,,,,,,,,,,,cyan,square
395.0,4.0,4.0,0.0,1.0,1.0,409.6899792402837,2.0,1.0,phase_1,,,,,,,,,,,,,cyan,square
44.0,1.0,0.5,0.0,3.0,3.0,319.4432847340067,2.0,1.0,phase_1,,,,,,,,,,,,,magenta,triangle
188.0,7.0,2.0,1.0,2.0,2.0,286.0738419767585,2.0,1.0,phase_1,,,,,,,,,,,,,blue,circle
203.0,7.0,2.0,1.0,2.0,2.0,353.8930804952542,2.0,1.0,phase_1,,,,,,,,,,,,,blue,circle
396.0,8.0,4.0,1.0,4.0,4.0,355.5410757453501,2.0,1.0,phase_1,,,,,,,,,,,,,yellow,hexagon
51.0,1.0,0.5,0.0,3.0,3.0,344.7077259752404,2.0,1.0,phase_1,,,,,,,,,,,,,magenta,triangle
0.0,8.0,0.0,1.0,1.0,1.0,345.2540307334857,2.0,1.0,phase_1,,,,,,,,,,,,,yellow,hexagon
48.0,5.0,0.5,1.0,1.0,1.0,390.7882954827073,2.0,1.0,phase_1,,,,,,,,,,,,,green,flipped triangle
0.0,5.0,0.0,1.0,2.0,2.0,369.9543274815369,2.0,1.0,phase_1,,,,,,,,,,,,,green,flipped triangle
177.0,7.0,2.0,1.0,2.0,2.0,359.0857737472106,2.0,1.0,phase_1,,,,,,,,,,,,,blue,circle
189.0,7.0,2.0,1.0,3.0,3.0,392.3113262280822,2.0,1.0,phase_1,,,,,,,,,,,,,blue,circle
198.0,7.0,2.0,1.0,3.0,3.0,346.7164122284885,2.0,1.0,phase_1,,,,,,,,,,,,,blue,circle
52.0,1.0,0.5,0.0,2.0,2.0,359.8399307211366,2.0,1.0,phase_1,,,,,,,,,,,,,magenta,triangle
93.0,6.0,1.0,1.0,1.0,1.0,395.1675092393998,2.0,1.0,phase_1,,,,,,,,,,,,,white,I
412.0,8.0,4.0,1.0,1.0,1.0,406.4435584823513,2.0,1.0,phase_1,,,,,,,,,,,,,yellow,hexagon
223.0,3.0,2.0,0.0,3.0,3.0,315.4977289759699,2.0,1.0,phase_1,,,,,,,,,,,,,gray,cross
210.0,3.0,2.0,0.0,4.0,4.0,362.3068004817469,2.0,1.0,phase_1,,,,,,,,,,,,,gray,cross
218.0,3.0,2.0,0.0,2.0,2.0,316.9932734945178,2.0,1.0,phase_1,,,,,,,,,,,,,gray,cross
417.0,4.0,4.0,0.0,1.0,1.0,328.6765774828382,2.0,1.0,phase_1,,,,,,,,,,,,,cyan,square
0.0,8.0,0.0,1.0,3.0,3.0,307.7860217454145,2.0,1.0,phase_1,,,,,,,,,,,,,yellow,hexagon
177.0,3.0,2.0,0.0,2.0,2.0,330.3288874940335,2.0,1.0,phase_1,,,,,,,,,,,,,gray,cross
200.0,3.0,2.0,0.0,4.0,4.0,432.6861172266945,2.0,1.0,phase_1,,,,,,,,,,,,,gray,cross
188.0,3.0,2.0,0.0,4.0,4.0,353.573506747125,2.0,1.0,phase_1,,,,,,,,,,,,,gray,cross
424.0,4.0,4.0,0.0,3.0,3.0,534.184086987807,2.0,1.0,phase_1,,,,,,,,,,,,,cyan,square
398.0,8.0,4.0,1.0,3.0,3.0,343.5552584942343,2.0,1.0,phase_1,,,,,,,,,,,,,yellow,hexagon
176.0,3.0,2.0,0.0,3.0,3.0,320.5688852267485,2.0,1.0,phase_1,,,,,,,,,,,,,gray,cross
208.0,7.0,2.0,1.0,4.0,4.0,400.0863297460455,2.0,1.0,phase_1,,,,,,,,,,,,,blue,circle
0.0,5.0,0.0,1.0,2.0,2.0,491.8769687355961,2.0,1.0,phase_1,,,,,,,,,,,,,green,flipped triangle
55.0,1.0,0.5,0.0,2.0,2.0,323.3402084806585,2.0,1.0,phase_1,,,,,,,,,,,,,magenta,triangle
120.0,6.0,1.0,1.0,2.0,2.0,313.856763734293,2.0,1.0,phase_1,,,,,,,,,,,,,white,I
379.0,4.0,4.0,0.0,4.0,4.0,358.0645199763239,2.0,1.0,phase_1,,,,,,,,,,,,,cyan,square
195.0,7.0,2.0,1.0,4.0,4.0,324.8613032392313,2.0,1.0,phase_1,,,,,,,,,,,,,blue,circle
392.0,8.0,4.0,1.0,3.0,3.0,291.5079992271785,2.0,1.0,phase_1,,,,,,,,,,,,,yellow,hexagon
72.0,1.0,0.5,0.0,3.0,3.0,348.7370927468873,2.0,1.0,phase_1,,,,,,,,,,,,,magenta,triangle
420.0,4.0,4.0,0.0,3.0,3.0,326.1854224947456,2.0,1.0,phase_1,,,,,,,,,,,,,cyan,square
0.0,4.0,0.0,0.0,2.0,2.0,304.3233024945948,2.0,1.0,phase_1,,,,,,,,,,,,,cyan,square
0.0,1.0,0.0,0.0,4.0,4.0,338.3801402287645,2.0,1.0,phase_1,,,,,,,,,,,,,magenta,triangle
0.0,2.0,0.0,0.0,3.0,3.0,259.4940264953038,2.0,1.0,phase_1,,,,,,,,,,,,,orange,diamond
0.0,4.0,0.0,0.0,1.0,1.0,351.1350957342074,2.0,1.0,phase_1,,,,,,,,,,,,,cyan,square
30.0,1.0,0.5,0.0,4.0,4.0,284.3791057457565,2.0,1.0,phase_1,,,,,,,,,,,,,magenta,triangle
197.0,7.0,2.0,1.0,2.0,2.0,285.0514929741621,2.0,1.0,phase_1,,,,,,,,,,,,,blue,circle
0.0,1.0,0.0,0.0,2.0,2.0,375.7721809761278,2.0,1.0,phase_1,,,,,,,,,,,,,magenta,triangle
48.0,1.0,0.5,0.0,4.0,4.0,376.1998024947388,2.0,1.0,phase_1,,,,,,,,,,,,,magenta,triangle
125.0,6.0,1.0,1.0,2.0,2.0,331.8608434929047,2.0,1.0,phase_1,,,,,,,,,,,,,white,I
72.0,1.0,0.5,0.0,4.0,4.0,320.5026527339214,2.0,1.0,phase_1,,,,,,,,,,,,,magenta,triangle
384.0,8.0,4.0,1.0,2.0,2.0,299.9611844952596,2.0,1.0,phase_1,,,,,,,,,,,,,yellow,hexagon
42.0,5.0,0.5,1.0,2.0,2.0,361.779055732768,3.0,1.0,phase_1,,,,,,,,,,,,,green,flipped triangle
0.0,7.0,0.0,1.0,1.0,1.0,396.077651228552,3.0,1.0,phase_1,,,,,,,,,,,,,blue,circle
384.0,4.0,4.0,0.0,2.0,2.0,329.0090237333061,3.0,1.0,phase_1,,,,,,,,,,,,,cyan,square
89.0,6.0,1.0,1.0,2.0,2.0,317.7512244819809,3.0,1.0,phase_1,,,,,,,,,,,,,white,I
62.0,5.0,0.5,1.0,2.0,2.0,318.3400242396601,3.0,1.0,phase_1,,,,,,,,,,,,,green,flipped triangle
120.0,2.0,1.0,0.0,2.0,2.0,319.6646222386334,3.0,1.0,phase_1,,,,,,,,,,,,,orange,diamond
193.0,7.0,2.0,1.0,3.0,3.0,341.1707544928504,3.0,1.0,phase_1,,,,,,,,,,,,,blue,circle
77.0,2.0,1.0,0.0,3.0,3.0,331.5374914927815,3.0,1.0,phase_1,,,,,,,,,,,,,orange,diamond
389.0,8.0,4.0,1.0,3.0,3.0,376.9874972404068,3.0,1.0,phase_1,,,,,,,,,,,,,yellow,hexagon
0.0,4.0,0.0,0.0,4.0,4.0,591.3728052400984,3.0,1.0,phase_1,,,,,,,,,,,,,cyan,square
0.0,6.0,0.0,1.0,3.0,3.0,333.0830107224756,3.0,1.0,phase_1,,,,,,,,,,,,,white,I
0.0,8.0,0.0,1.0,3.0,3.0,322.4275659758859,3.0,1.0,phase_1,,,,,,,,,,,,,yellow,hexagon
62.0,1.0,0.5,0.0,2.0,2.0,334.7044612401078,3.0,1.0,phase_1,,,,,,,,,,,,,magenta,triangle
0.0,6.0,0.0,1.0,4.0,4.0,402.1166677212022,3.0,1.0,phase_1,,,,,,,,,,,,,white,I
394.0,8.0,4.0,1.0,1.0,1.0,357.4827514821663,3.0,1.0,phase_1,,,,,,,,,,,,,yellow,hexagon
420.0,8.0,4.0,1.0,2.0,2.0,382.2402994937874,3.0,1.0,phase_1,,,,,,,,,,,,,yellow,hexagon
85.0,2.0,1.0,0.0,3.0,3.0,302.2527462399011,3.0,1.0,phase_1,,,,,,,,,,,,,orange,diamond
105.0,6.0,1.0,1.0,1.0,1.0,428.1978164817701,3.0,1.0,phase_1,,,,,,,,,,,,,white,I
0.0,3.0,0.0,0.0,2.0,2.0,339.3673069876968,3.0,1.0,phase_1,,,,,,,,,,,,,gray,cross
381.0,8.0,4.0,1.0,4.0,4.0,338.9415259880479,3.0,1.0,phase_1,,,,,,,,,,,,,yellow,hexagon
0.0,4.0,0.0,0.0,1.0,1.0,597.2205487214524,3.0,1.0,phase_1,,,,,,,,,,,,,cyan,square
0.0,5.0,0.0,1.0,4.0,4.0,361.9128072277817,3.0,1.0,phase_1,,,,,,,,,,,,,green,flipped triangle
179.0,3.0,2.0,0.0,1.0,1.0,295.8611092271894,3.0,1.0,phase_1,,,,,,,,,,,,,gray,cross
388.0,8.0,4.0,1.0,1.0,1.0,353.3756854940293,3.0,1.0,phase_1,,,,,,,,,,,,,yellow,hexagon
0.0,2.0,0.0,0.0,3.0,3.0,341.4140402401244,3.0,1.0,phase_1,,,,,,,,,,,,,orange,diamond
54.0,1.0,0.5,0.0,3.0,3.0,330.2533849873725,3.0,1.0,phase_1,,,,,,,,,,,,,magenta,triangle
218.0,7.0,2.0,1.0,1.0,1.0,321.1170152535487,3.0,1.0,phase_1,,,,,,,,,,,,,blue,circle
0.0,4.0,0.0,0.0,1.0,1.0,321.4762217448879,3.0,1.0,phase_1,,,,,,,,,,,,,cyan,square
51.0,5.0,0.5,1.0,1.0,1.0,344.3875519878929,3.0,1.0,phase_1,,,,,,,,,,,,,green,flipped triangle
0.0,4.0,0.0,0.0,1.0,1.0,333.9131582270056,3.0,1.0,phase_1,,,,,,,,,,,,,cyan,square
120.0,2.0,1.0,0.0,1.0,1.0,366.609887987579,3.0,1.0,phase_1,,,,,,,,,,,,,orange,diamond
63.0,1.0,0.5,0.0,2.0,2.0,380.0504312275734,3.0,1.0,phase_1,,,,,,,,,,,,,magenta,triangle
72.0,5.0,0.5,1.0,3.0,3.0,368.1203179748991,3.0,1.0,phase_1,,,,,,,,,,,,,green,flipped triangle
46.0,1.0,0.5,0.0,3.0,3.0,381.432927239075,3.0,1.0,phase_1,,,,,,,,,,,,,magenta,triangle
80.0,2.0,1.0,0.0,4.0,4.0,436.5071454940334,3.0,2.0,phase_1,,,,,,,,,,,,,orange,diamond
378.0,4.0,4.0,0.0,3.0,3.0,336.5629052277654,3.0,1.0,phase_1,,,,,,,,,,,,,cyan,square
57.0,5.0,0.5,1.0,3.0,3.0,358.4481379893987,3.0,1.0,phase_1,,,,,,,,,,,,,green,flipped triangle
401.0,4.0,4.0,0.0,3.0,3.0,337.667764228172,3.0,1.0,phase_1,,,,,,,,,,,,,cyan,square
110.0,6.0,1.0,1.0,3.0,3.0,327.6587067448417,3.0,1.0,phase_1,,,,,,,,,,,,,white,I
71.0,5.0,0.5,1.0,4.0,4.0,395.9199574819649,3.0,1.0,phase_1,,,,,,,,,,,,,green,flipped triangle
381.0,4.0,4.0,0.0,3.0,3.0,360.4516227333079,3.0,1.0,phase_1,,,,,,,,,,,,,cyan,square
119.0,2.0,1.0,0.0,2.0,2.0,339.9968094818177,3.0,1.0,phase_1,,,,,,,,,,,,,orange,diamond
376.0,8.0,4.0,1.0,2.0,2.0,328.9965923777345,3.0,1.0,phase_1,,,,,,,,,,,,,yellow,hexagon
81.0,2.0,1.0,0.0,4.0,4.0,363.868222988458,3.0,1.0,phase_1,,,,,,,,,,,,,orange,diamond
79.0,2.0,1.0,0.0,3.0,3.0,329.2843232284212,3.0,1.0,phase_1,,,,,,,,,,,,,orange,diamond
209.0,3.0,2.0,0.0,2.0,2.0,421.2985647336609,3.0,1.0,phase_1,,,,,,,,,,,,,gray,cross
406.0,8.0,4.0,1.0,1.0,1.0,398.2064087467734,3.0,1.0,phase_1,,,,,,,,,,,,,yellow,hexagon
0.0,7.0,0.0,1.0,3.0,3.0,521.972570239086,3.0,1.0,phase_1,,,,,,,,,,,,,blue,circle
56.0,1.0,0.5,0.0,4.0,4.0,332.0252582270768,3.0,1.0,phase_1,,,,,,,,,,,,,magenta,triangle
396.0,4.0,4.0,0.0,4.0,4.0,388.4129317339102,3.0,1.0,phase_1,,,,,,,,,,,,,cyan,square
55.0,5.0,0.5,1.0,1.0,1.0,379.5972634943609,3.0,1.0,phase_1,,,,,,,,,,,,,green,flipped triangle
0.0,1.0,0.0,0.0,3.0,3.0,344.6792412287323,3.0,1.0,phase_1,,,,,,,,,,,,,magenta,triangle
185.0,7.0,2.0,1.0,4.0,4.0,424.7587899990321,3.0,1.0,phase_1,,,,,,,,,,,,,blue,circle
424.0,4.0,4.0,0.0,2.0,2.0,358.1989907452225,3.0,1.0,phase_1,,,,,,,,,,,,,cyan,square
85.0,6.0,1.0,1.0,3.0,3.0,313.2998402288649,3.0,1.0,phase_1,,,,,,,,,,,,,white,I
44.0,1.0,0.5,0.0,2.0,2.0,314.9415382267762,3.0,1.0,phase_1,,,,,,,,,,,,,magenta,triangle
42.0,5.0,0.5,1.0,3.0,3.0,314.3968267213495,3.0,1.0,phase_1,,,,,,,,,,,,,green,flipped triangle
102.0,6.0,1.0,1.0,4.0,4.0,359.9504002413596,3.0,1.0,phase_1,,,,,,,,,,,,,white,I
379.0,8.0,4.0,1.0,3.0,3.0,326.7075637450034,3.0,1.0,phase_1,,,,,,,,,,,,,yellow,hexagon
0.0,8.0,0.0,1.0,3.0,3.0,281.8742132403713,3.0,1.0,phase_1,,,,,,,,,,,,,yellow,hexagon
0.0,3.0,0.0,0.0,1.0,1.0,351.5276037342119,3.0,1.0,phase_1,,,,,,,,,,,,,gray,cross
223.0,3.0,2.0,0.0,3.0,3.0,362.6329267335677,3.0,1.0,phase_1,,,,,,,,,,,,,gray,cross
0.0,3.0,0.0,0.0,1.0,1.0,407.8814699878421,3.0,2.0,phase_1,,,,,,,,,,,,,gray,cross
193.0,3.0,2.0,0.0,2.0,2.0,351.5183710005658,3.0,1.0,phase_1,,,,,,,,,,,,,gray,cross
77.0,2.0,1.0,0.0,1.0,1.0,443.7792774933768,3.0,1.0,phase_1,,,,,,,,,,,,,orange,diamond
203.0,7.0,2.0,1.0,2.0,2.0,377.2236729873839,3.0,1.0,phase_1,,,,,,,,,,,,,blue,circle
0.0,4.0,0.0,0.0,3.0,3.0,343.0146202281321,3.0,1.0,phase_1,,,,,,,,,,,,,cyan,square
385.0,4.0,4.0,0.0,4.0,4.0,342.4648542404611,3.0,1.0,phase_1,,,,,,,,,,,,,cyan,square
200.0,3.0,2.0,0.0,3.0,3.0,534.3941797327716,3.0,1.0,phase_1,,,,,,,,,,,,,gray,cross
93.0,2.0,1.0,0.0,1.0,1.0,435.3421292289567,3.0,1.0,phase_1,,,,,,,,,,,,,orange,diamond
112.0,6.0,1.0,1.0,1.0,1.0,423.304616493624,3.0,1.0,phase_1,,,,,,,,,,,,,white,I
424.0,8.0,4.0,1.0,1.0,1.0,683.1785909889732,3.0,1.0,phase_1,,,,,,,,,,,,,yellow,hexagon
56.0,5.0,0.5,1.0,3.0,3.0,345.8348949861829,3.0,1.0,phase_1,,,,,,,,,,,,,green,flipped triangle
385.0,8.0,4.0,1.0,4.0,4.0,357.6110307349154,3.0,1.0,phase_1,,,,,,,,,,,,,yellow,hexagon
0.0,3.0,0.0,0.0,3.0,3.0,416.2818344939296,3.0,1.0,phase_1,,,,,,,,,,,,,gray,cross
112.0,2.0,1.0,0.0,4.0,4.0,358.4414959877904,3.0,1.0,phase_1,,,,,,,,,,,,,orange,diamond
77.0,6.0,1.0,1.0,3.0,3.0,325.6817329747719,3.0,1.0,phase_1,,,,,,,,,,,,,white,I
395.0,4.0,4.0,0.0,4.0,4.0,338.2900392407464,3.0,1.0,phase_1,,,,,,,,,,,,,cyan,square
393.0,4.0,4.0,0.0,1.0,1.0,461.5441177338653,3.0,1.0,phase_1,,,,,,,,,,,,,cyan,square
401.0,8.0,4.0,1.0,3.0,3.0,394.1227912400791,3.0,1.0,phase_1,,,,,,,,,,,,,yellow,hexagon
104.0,2.0,1.0,0.0,2.0,2.0,519.0753389761085,3.0,1.0,phase_1,,,,,,,,,,,,,orange,diamond
417.0,8.0,4.0,1.0,4.0,4.0,361.5994802385103,3.0,1.0,phase_1,,,,,,,,,,,,,yellow,hexagon
105.0,2.0,1.0,0.0,3.0,3.0,352.4470204938552,3.0,1.0,phase_1,,,,,,,,,,,,,orange,diamond
378.0,8.0,4.0,1.0,2.0,2.0,408.5258072282158,3.0,1.0,phase_1,,,,,,,,,,,,,yellow,hexagon
395.0,4.0,4.0,0.0,3.0,3.0,317.9323507338267,3.0,1.0,phase_1,,,,,,,,,,,,,cyan,square
37.0,5.0,0.5,1.0,4.0,4.0,374.5008024943672,3.0,1.0,phase_1,,,,,,,,,,,,,green,flipped triangle
214.0,3.0,2.0,0.0,3.0,3.0,444.42487874584907,3.0,1.0,phase_1,,,,,,,,,,,,,gray,cross
203.0,3.0,2.0,0.0,4.0,4.0,353.7198832400463,3.0,1.0,phase_1,,,,,,,,,,,,,gray,cross
0.0,6.0,0.0,1.0,4.0,4.0,366.9792214950576,3.0,1.0,phase_1,,,,,,,,,,,,,white,I
0.0,5.0,0.0,1.0,3.0,3.0,376.8389372398815,3.0,1.0,phase_1,,,,,,,,,,,,,green,flipped triangle
0.0,8.0,0.0,1.0,4.0,4.0,333.4318834949954,3.0,1.0,phase_1,,,,,,,,,,,,,yellow,hexagon
44.0,5.0,0.5,1.0,3.0,3.0,311.5834687341703,3.0,1.0,phase_1,,,,,,,,,,,,,green,flipped triangle
381.0,8.0,4.0,1.0,3.0,3.0,322.9338614819426,3.0,1.0,phase_1,,,,,,,,,,,,,yellow,hexagon
0.0,7.0,0.0,1.0,2.0,2.0,358.0486374812608,3.0,1.0,phase_1,,,,,,,,,,,,,blue,circle
63.0,5.0,0.5,1.0,1.0,1.0,391.2854819882341,3.0,1.0,phase_1,,,,,,,,,,,,,green,flipped triangle
0.0,5.0,0.0,1.0,1.0,1.0,359.5329959880473,3.0,1.0,phase_1,,,,,,,,,,,,,green,flipped triangle
118.0,2.0,1.0,0.0,1.0,1.0,348.232165493755,3.0,1.0,phase_1,,,,,,,,,,,,,orange,diamond
27.0,5.0,0.5,1.0,4.0,4.0,371.7489789887622,3.0,1.0,phase_1,,,,,,,,,,,,,green,flipped triangle
34.0,1.0,0.5,0.0,1.0,1.0,394.1300714941462,3.0,1.0,phase_1,,,,,,,,,,,,,magenta,triangle
77.0,2.0,1.0,0.0,2.0,2.0,428.1733134939713,3.0,1.0,phase_1,,,,,,,,,,,,,orange,diamond
72.0,1.0,0.5,0.0,2.0,2.0,643.8324202281365,4.0,1.0,phase_1,,,,,,,,,,,,,magenta,triangle
182.0,7.0,2.0,1.0,1.0,1.0,454.6747637214139,4.0,1.0,phase_1,,,,,,,,,,,,,blue,circle
198.0,3.0,2.0,0.0,2.0,2.0,567.1725684933335,4.0,1.0,phase_1,,,,,,,,,,,,,gray,cross
223.0,7.0,2.0,1.0,2.0,2.0,397.9469852292823,4.0,1.0,phase_1,,,,,,,,,,,,,blue,circle
418.0,4.0,4.0,0.0,2.0,2.0,366.3157182272698,4.0,1.0,phase_1,,,,,,,,,,,,,cyan,square
47.0,1.0,0.5,0.0,2.0,2.0,355.4017567457777,4.0,1.0,phase_1,,,,,,,,,,,,,magenta,triangle
0.0,6.0,0.0,1.0,2.0,2.0,366.5383504940109,4.0,1.0,phase_1,,,,,,,,,,,,,white,I
30.0,5.0,0.5,1.0,2.0,2.0,321.9050512398098,4.0,1.0,phase_1,,,,,,,,,,,,,green,flipped triangle
37.0,1.0,0.5,0.0,1.0,1.0,401.9618392267148,4.0,1.0,phase_1,,,,,,,,,,,,,magenta,triangle
0.0,6.0,0.0,1.0,2.0,2.0,367.5505482387962,4.0,1.0,phase_1,,,,,,,,,,,,,white,I
62.0,1.0,0.5,0.0,2.0,2.0,413.2462877350917,4.0,1.0,phase_1,,,,,,,,,,,,,magenta,triangle
0.0,5.0,0.0,1.0,2.0,2.0,369.5620054822939,4.0,1.0,phase_1,,,,,,,,,,,,,green,flipped triangle
0.0,1.0,0.0,0.0,4.0,4.0,379.6903804814064,4.0,1.0,phase_1,,,,,,,,,,,,,magenta,triangle
99.0,6.0,1.0,1.0,4.0,4.0,348.10876773372,4.0,1.0,phase_1,,,,,,,,,,,,,white,I
401.0,4.0,4.0,0.0,4.0,4.0,752.2758689756301,4.0,1.0,phase_1,,,,,,,,,,,,,cyan,square
107.0,6.0,1.0,1.0,2.0,2.0,370.4679564925754,4.0,1.0,phase_1,,,,,,,,,,,,,white,I
192.0,3.0,2.0,0.0,1.0,1.0,361.8552207462926,4.0,1.0,phase_1,,,,,,,,,,,,,gray,cross
0.0,8.0,0.0,1.0,3.0,3.0,371.1452447350893,4.0,1.0,phase_1,,,,,,,,,,,,,yellow,hexagon
419.0,4.0,4.0,0.0,2.0,2.0,362.9551732283289,4.0,1.0,phase_1,,,,,,,,,,,,,cyan,square
33.0,5.0,0.5,1.0,2.0,2.0,341.0362584945687,4.0,1.0,phase_1,,,,,,,,,,,,,green,flipped triangle
0.0,8.0,0.0,1.0,2.0,2.0,317.871102493882,4.0,1.0,phase_1,,,,,,,,,,,,,yellow,hexagon
0.0,4.0,0.0,0.0,4.0,4.0,362.1020224927633,4.0,1.0,phase_1,,,,,,,,,,,,,cyan,square
99.0,2.0,1.0,0.0,3.0,3.0,364.6819402401888,4.0,1.0,phase_1,,,,,,,,,,,,,orange,diamond
29.0,5.0,0.5,1.0,4.0,4.0,410.1445342275838,4.0,1.0,phase_1,,,,,,,,,,,,,green,flipped triangle
0.0,3.0,0.0,0.0,1.0,1.0,331.2265722397569,4.0,1.0,phase_1,,,,,,,,,,,,,gray,cross
223.0,3.0,2.0,0.0,1.0,1.0,378.1019929992908,4.0,1.0,phase_1,,,,,,,,,,,,,gray,cross
81.0,6.0,1.0,1.0,4.0,4.0,478.3250734944886,4.0,1.0,phase_1,,,,,,,,,,,,,white,I
0.0,3.0,0.0,0.0,4.0,4.0,377.7220809988648,4.0,1.0,phase_1,,,,,,,,,,,,,gray,cross
104.0,6.0,1.0,1.0,4.0,4.0,356.4317074815335,4.0,1.0,phase_1,,,,,,,,,,,,,white,I
0.0,8.0,0.0,1.0,4.0,4.0,355.1656067229487,4.0,1.0,phase_1,,,,,,,,,,,,,yellow,hexagon
401.0,8.0,4.0,1.0,2.0,2.0,380.0059109871654,4.0,1.0,phase_1,,,,,,,,,,,,,yellow,hexagon
81.0,2.0,1.0,0.0,3.0,3.0,358.0454327329789,4.0,1.0,phase_1,,,,,,,,,,,,,orange,diamond
81.0,6.0,1.0,1.0,2.0,2.0,313.0555032275879,4.0,1.0,phase_1,,,,,,,,,,,,,white,I
381.0,4.0,4.0,0.0,3.0,3.0,357.9444862407399,4.0,1.0,phase_1,,,,,,,,,,,,,cyan,square
0.0,6.0,0.0,1.0,2.0,2.0,403.8599042396527,4.0,1.0,phase_1,,,,,,,,,,,,,white,I
0.0,6.0,0.0,1.0,1.0,1.0,381.5619309880276,4.0,1.0,phase_1,,,,,,,,,,,,,white,I
51.0,1.0,0.5,0.0,1.0,1.0,348.7178922387102,4.0,1.0,phase_1,,,,,,,,,,,,,magenta,triangle
37.0,5.0,0.5,1.0,4.0,4.0,372.5603299990325,4.0,2.0,phase_1,,,,,,,,,,,,,green,flipped triangle
47.0,1.0,0.5,0.0,4.0,4.0,619.6170649873238,4.0,1.0,phase_1,,,,,,,,,,,,,magenta,triangle
0.0,6.0,0.0,1.0,3.0,3.0,429.4062494936952,4.0,1.0,phase_1,,,,,,,,,,,,,white,I
420.0,4.0,4.0,0.0,2.0,2.0,317.594248241221,4.0,1.0,phase_1,,,,,,,,,,,,,cyan,square
97.0,2.0,1.0,0.0,1.0,1.0,486.3568349755951,4.0,1.0,phase_1,,,,,,,,,,,,,orange,diamond
201.0,3.0,2.0,0.0,3.0,3.0,340.0910082400514,4.0,1.0,phase_1,,,,,,,,,,,,,gray,cross
72.0,5.0,0.5,1.0,1.0,1.0,353.9039081115334,4.0,1.0,phase_1,,,,,,,,,,,,,green,flipped triangle
189.0,3.0,2.0,0.0,4.0,4.0,363.8930882407294,4.0,1.0,phase_1,,,,,,,,,,,,,gray,cross
93.0,6.0,1.0,1.0,3.0,3.0,376.2565107354021,4.0,1.0,phase_1,,,,,,,,,,,,,white,I
0.0,5.0,0.0,1.0,1.0,1.0,410.5295139997906,4.0,1.0,phase_1,,,,,,,,,,,,,green,flipped triangle
218.0,7.0,2.0,1.0,1.0,1.0,355.0314777330641,4.0,1.0,phase_1,,,,,,,,,,,,,blue,circle
0.0,1.0,0.0,0.0,3.0,3.0,311.6419509860861,4.0,1.0,phase_1,,,,,,,,,,,,,magenta,triangle
182.0,3.0,2.0,0.0,1.0,1.0,333.7007614827598,4.0,1.0,phase_1,,,,,,,,,,,,,gray,cross
223.0,7.0,2.0,1.0,4.0,4.0,334.0814174807747,4.0,1.0,phase_1,,,,,,,,,,,,,blue,circle
33.0,1.0,0.5,0.0,4.0,4.0,357.7096112403524,4.0,1.0,phase_1,,,,,,,,,,,,,magenta,triangle
0.0,3.0,0.0,0.0,3.0,3.0,334.5776784935879,4.0,1.0,phase_1,,,,,,,,,,,,,gray,cross
65.0,5.0,0.5,1.0,3.0,3.0,337.8549912395101,4.0,1.0,phase_1,,,,,,,,,,,,,green,flipped triangle
57.0,1.0,0.5,0.0,1.0,1.0,426.337224240342,4.0,1.0,phase_1,,,,,,,,,,,,,magenta,triangle
200.0,7.0,2.0,1.0,3.0,3.0,336.0772344949509,4.0,1.0,phase_1,,,,,,,,,,,,,blue,circle
180.0,7.0,2.0,1.0,1.0,1.0,382.0685977352696,4.0,1.0,phase_1,,,,,,,,,,,,,blue,circle
35.0,5.0,0.5,1.0,2.0,2.0,372.3560022390302,4.0,1.0,phase_1,,,,,,,,,,,,,green,flipped triangle
406.0,4.0,4.0,0.0,4.0,4.0,362.1977454931766,4.0,1.0,phase_1,,,,,,,,,,,,,cyan,square
89.0,6.0,1.0,1.0,2.0,2.0,327.6941284948407,4.0,1.0,phase_1,,,,,,,,,,,,,white,I
87.0,2.0,1.0,0.0,4.0,4.0,451.6620472404611,4.0,1.0,phase_1,,,,,,,,,,,,,orange,diamond
42.0,1.0,0.5,0.0,2.0,2.0,397.106913238531,4.0,1.0,phase_1,,,,,,,,,,,,,magenta,triangle
200.0,7.0,2.0,1.0,2.0,2.0,408.8017592403048,4.0,1.0,phase_1,,,,,,,,,,,,,blue,circle
0.0,5.0,0.0,1.0,4.0,4.0,365.128824747444,4.0,1.0,phase_1,,,,,,,,,,,,,green,flipped triangle
407.0,4.0,4.0,0.0,4.0,4.0,420.6426239998109,4.0,1.0,phase_1,,,,,,,,,,,,,cyan,square
51.0,5.0,0.5,1.0,3.0,3.0,364.7091504935815,4.0,1.0,phase_1,,,,,,,,,,,,,green,flipped triangle
102.0,2.0,1.0,0.0,4.0,4.0,355.4218072404183,4.0,1.0,phase_1,,,,,,,,,,,,,orange,diamond
37.0,1.0,0.5,0.0,1.0,1.0,378.0091174940025,4.0,1.0,phase_1,,,,,,,,,,,,,magenta,triangle
216.0,7.0,2.0,1.0,1.0,1.0,411.3384034826595,4.0,1.0,phase_1,,,,,,,,,,,,,blue,circle
44.0,5.0,0.5,1.0,2.0,2.0,368.1250134832226,4.0,1.0,phase_1,,,,,,,,,,,,,green,flipped triangle
110.0,6.0,1.0,1.0,2.0,2.0,368.2376729884709,4.0,1.0,phase_1,,,,,,,,,,,,,white,I
99.0,2.0,1.0,0.0,1.0,1.0,447.5464412280416,4.0,1.0,phase_1,,,,,,,,,,,,,orange,diamond
63.0,1.0,0.5,0.0,3.0,3.0,425.5817977445986,4.0,1.0,phase_1,,,,,,,,,,,,,magenta,triangle
0.0,7.0,0.0,1.0,1.0,1.0,605.0960724933248,4.0,1.0,phase_1,,,,,,,,,,,,,blue,circle
186.0,7.0,2.0,1.0,1.0,1.0,450.3249079753004,4.0,1.0,phase_1,,,,,,,,,,,,,blue,circle
0.0,2.0,0.0,0.0,2.0,2.0,360.3711517334886,4.0,1.0,phase_1,,,,,,,,,,,,,orange,diamond
208.0,3.0,2.0,0.0,1.0,1.0,359.4023052392003,4.0,1.0,phase_1,,,,,,,,,,,,,gray,cross
197.0,3.0,2.0,0.0,2.0,2.0,417.714700975921,4.0,1.0,phase_1,,,,,,,,,,,,,gray,cross
0.0,6.0,0.0,1.0,4.0,4.0,362.0736539523932,4.0,1.0,phase_1,,,,,,,,,,,,,white,I
34.0,5.0,0.5,1.0,1.0,1.0,339.2739452283422,4.0,1.0,phase_1,,,,,,,,,,,,,green,flipped triangle
54.0,5.0,0.5,1.0,1.0,1.0,362.4607674828439,4.0,1.0,phase_1,,,,,,,,,,,,,green,flipped triangle
87.0,6.0,1.0,1.0,1.0,1.0,353.0755504943954,4.0,1.0,phase_1,,,,,,,,,,,,,white,I
424.0,8.0,4.0,1.0,3.0,3.0,430.3023214924906,4.0,1.0,phase_1,,,,,,,,,,,,,yellow,hexagon
92.0,2.0,1.0,0.0,4.0,4.0,409.6479827458097,4.0,1.0,phase_1,,,,,,,,,,,,,orange,diamond
117.0,6.0,1.0,1.0,4.0,4.0,420.6589432396868,4.0,1.0,phase_1,,,,,,,,,,,,,white,I
115.0,2.0,1.0,0.0,3.0,3.0,410.1527257334965,4.0,1.0,phase_1,,,,,,,,,,,,,orange,diamond
79.0,6.0,1.0,1.0,3.0,3.0,377.0779674814548,4.0,1.0,phase_1,,,,,,,,,,,,,white,I
407.0,8.0,4.0,1.0,1.0,1.0,421.8916650006576,4.0,1.0,phase_1,,,,,,,,,,,,,yellow,hexagon
177.0,7.0,2.0,1.0,3.0,3.0,410.8032607455243,4.0,1.0,phase_1,,,,,,,,,,,,,blue,circle
401.0,4.0,4.0,0.0,1.0,1.0,368.6040852280712,4.0,1.0,phase_1,,,,,,,,,,,,,cyan,square
125.0,2.0,1.0,0.0,2.0,2.0,369.1628392898565,4.0,1.0,phase_1,,,,,,,,,,,,,orange,diamond
60.0,1.0,0.5,0.0,1.0,1.0,301.7001842399622,4.0,1.0,phase_1,,,,,,,,,,,,,magenta,triangle
210.0,3.0,2.0,0.0,3.0,3.0,536.5030007342284,4.0,1.0,phase_1,,,,,,,,,,,,,gray,cross
210.0,7.0,2.0,1.0,1.0,1.0,347.0227249763411,4.0,1.0,phase_1,,,,,,,,,,,,,blue,circle
179.0,7.0,2.0,1.0,3.0,3.0,358.8940162280778,4.0,1.0,phase_1,,,,,,,,,,,,,blue,circle
0.0,7.0,0.0,1.0,3.0,3.0,459.4984329996805,4.0,1.0,phase_1,,,,,,,,,,,,,blue,circle
111.0,6.0,1.0,1.0,2.0,2.0,348.8745544946141,4.0,1.0,phase_1,,,,,,,,,,,,,white,I
77.0,6.0,1.0,1.0,3.0,3.0,349.8279612285841,4.0,1.0,phase_1,,,,,,,,,,,,,white,I
83.0,2.0,1.0,0.0,1.0,1.0,338.2433229762682,4.0,1.0,phase_1,,,,,,,,,,,,,orange,diamond
393.0,8.0,4.0,1.0,4.0,4.0,360.298132745811,4.0,1.0,phase_1,,,,,,,,,,,,,yellow,hexagon
0.0,6.0,1.0,1.0,6.0,6.0,580.4514248447958,1.0,1.0,phase_2,stop,250.0,250.0,3.0,,,,,,,,,white,I
0.0,5.0,0.5,1.0,6.0,0.0,0.0,1.0,1.0,phase_2,stop,250.0,200.0,4.0,,,,,,,,,green,flipped triangle
0.0,2.0,1.0,0.0,5.0,5.0,597.1603600391973,1.0,1.0,phase_2,go,250.0,250.0,1.0,,,,,,,,,orange,diamond
0.0,3.0,2.0,0.0,6.0,6.0,743.9660569216358,1.0,1.0,phase_2,go,250.0,250.0,1.0,,,,,,,,,gray,cross
0.0,2.0,1.0,0.0,6.0,6.0,846.9546289597929,1.0,1.0,phase_2,go,250.0,250.0,1.0,,,,,,,,,orange,diamond
0.0,6.0,1.0,1.0,5.0,0.0,0.0,1.0,1.0,phase_2,stop,250.0,250.0,4.0,,,,,,,,,white,I
0.0,6.0,1.0,1.0,5.0,5.0,736.4887116909813,1.0,1.0,phase_2,go,300.0,250.0,1.0,,,,,,,,,white,I
0.0,5.0,0.5,1.0,5.0,0.0,0.0,1.0,1.0,phase_2,stop,300.0,250.0,4.0,,,,,,,,,green,flipped triangle
0.0,7.0,2.0,1.0,6.0,6.0,727.1909628070716,1.0,1.0,phase_2,go,350.0,250.0,1.0,,,,,,,,,blue,circle
0.0,5.0,0.5,1.0,5.0,0.0,0.0,1.0,1.0,phase_2,stop,350.0,250.0,4.0,,,,,,,,,green,flipped triangle
0.0,4.0,4.0,0.0,5.0,5.0,695.3792639233143,1.0,1.0,phase_2,go,400.0,250.0,1.0,,,,,,,,,cyan,square
0.0,5.0,0.5,1.0,6.0,0.0,0.0,1.0,1.0,phase_2,stop,400.0,250.0,4.0,,,,,,,,,green,flipped triangle
0.0,7.0,2.0,1.0,6.0,0.0,0.0,1.0,1.0,phase_2,stop,400.0,300.0,4.0,,,,,,,,,blue,circle
0.0,8.0,4.0,1.0,6.0,0.0,0.0,1.0,1.0,phase_2,stop,400.0,350.0,4.0,,,,,,,,,yellow,hexagon
0.0,1.0,0.5,0.0,5.0,5.0,640.7658360003552,1.0,1.0,phase_2,go,400.0,400.0,1.0,,,,,,,,,magenta,triangle
0.0,7.0,2.0,1.0,5.0,5.0,911.2340888441396,1.0,1.0,phase_2,go,400.0,400.0,1.0,,,,,,,,,blue,circle
0.0,4.0,4.0,0.0,5.0,5.0,755.0583287684276,1.0,1.0,phase_2,go,400.0,400.0,1.0,,,,,,,,,cyan,square
0.0,8.0,4.0,1.0,5.0,0.0,0.0,1.0,1.0,phase_2,stop,400.0,400.0,4.0,,,,,,,,,yellow,hexagon
0.0,4.0,4.0,0.0,6.0,6.0,1005.6151438839152,1.0,1.0,phase_2,go,450.0,400.0,1.0,,,,,,,,,cyan,square
0.0,7.0,2.0,1.0,5.0,0.0,0.0,1.0,1.0,phase_2,stop,450.0,400.0,4.0,,,,,,,,,blue,circle
0.0,2.0,1.0,0.0,5.0,5.0,816.178371767819,1.0,1.0,phase_2,go,500.0,400.0,1.0,,,,,,,,,orange,diamond
0.0,5.0,0.5,1.0,6.0,6.0,928.2356508847442,1.0,1.0,phase_2,go,500.0,400.0,1.0,,,,,,,,,green,flipped triangle
0.0,6.0,1.0,1.0,6.0,0.0,0.0,1.0,1.0,phase_2,stop,500.0,400.0,4.0,,,,,,,,,white,I
0.0,4.0,4.0,0.0,5.0,5.0,625.4282408845029,1.0,1.0,phase_2,go,500.0,450.0,1.0,,,,,,,,,cyan,square
0.0,5.0,0.5,1.0,5.0,0.0,0.0,1.0,1.0,phase_2,stop,500.0,450.0,4.0,,,,,,,,,green,flipped triangle
0.0,1.0,0.5,0.0,5.0,5.0,830.2536968058121,1.0,1.0,phase_2,go,550.0,450.0,1.0,,,,,,,,,magenta,triangle
0.0,7.0,2.0,1.0,5.0,0.0,0.0,1.0,1.0,phase_2,stop,550.0,450.0,4.0,,,,,,,,,blue,circle
0.0,5.0,0.5,1.0,6.0,6.0,550.5621959237033,1.0,1.0,phase_2,stop,600.0,450.0,3.0,,,,,,,,,green,flipped triangle
0.0,8.0,4.0,1.0,6.0,6.0,810.322549807097,1.0,1.0,phase_2,go,600.0,400.0,1.0,,,,,,,,,yellow,hexagon
0.0,2.0,1.0,0.0,6.0,6.0,945.5270920389012,1.0,1.0,phase_2,go,600.0,400.0,1.0,,,,,,,,,orange,diamond
0.0,4.0,4.0,0.0,5.0,5.0,833.9741059226071,1.0,1.0,phase_2,go,600.0,400.0,1.0,,,,,,,,,cyan,square
0.0,8.0,4.0,1.0,5.0,0.0,0.0,1.0,1.0,phase_2,stop,600.0,400.0,4.0,,,,,,,,,yellow,hexagon
0.0,7.0,2.0,1.0,5.0,0.0,0.0,1.0,1.0,phase_2,stop,650.0,400.0,4.0,,,,,,,,,blue,circle
0.0,1.0,0.5,0.0,6.0,6.0,926.9014101155336,1.0,1.0,phase_2,go,700.0,400.0,1.0,,,,,,,,,magenta,triangle
0.0,4.0,4.0,0.0,6.0,6.0,849.9708308063418,1.0,1.0,phase_2,go,700.0,400.0,1.0,,,,,,,,,cyan,square
0.0,7.0,2.0,1.0,5.0,5.0,815.651023924147,1.0,1.0,phase_2,stop,700.0,400.0,3.0,,,,,,,,,blue,circle
0.0,8.0,4.0,1.0,5.0,0.0,0.0,2.0,1.0,phase_2,stop,650.0,400.0,4.0,,,,,,,,,yellow,hexagon
0.0,2.0,1.0,0.0,6.0,6.0,893.6511586907727,2.0,1.0,phase_2,go,700.0,400.0,1.0,,,,,,,,,orange,diamond
0.0,1.0,0.5,0.0,6.0,6.0,715.142551000099,2.0,1.0,phase_2,go,700.0,400.0,1.0,,,,,,,,,magenta,triangle
0.0,7.0,2.0,1.0,5.0,5.0,412.2283618835354,2.0,1.0,phase_2,go,700.0,400.0,1.0,,,,,,,,,blue,circle
0.0,7.0,2.0,1.0,6.0,6.0,649.3115428838792,2.0,1.0,phase_2,go,700.0,400.0,1.0,,,,,,,,,blue,circle
0.0,4.0,4.0,0.0,6.0,6.0,569.1460198086133,2.0,1.0,phase_2,go,700.0,400.0,1.0,,,,,,,,,cyan,square
0.0,3.0,2.0,0.0,5.0,5.0,570.0939949601889,2.0,1.0,phase_2,go,700.0,400.0,1.0,,,,,,,,,gray,cross
0.0,8.0,4.0,1.0,5.0,5.0,572.0727237294341,2.0,1.0,phase_2,stop,700.0,400.0,3.0,,,,,,,,,yellow,hexagon
0.0,2.0,1.0,0.0,6.0,6.0,562.5420338437834,2.0,1.0,phase_2,go,650.0,400.0,1.0,,,,,,,,,orange,diamond
0.0,7.0,2.0,1.0,6.0,0.0,0.0,2.0,1.0,phase_2,stop,650.0,400.0,4.0,,,,,,,,,blue,circle
0.0,2.0,1.0,0.0,5.0,5.0,619.0305479613016,2.0,1.0,phase_2,go,650.0,450.0,1.0,,,,,,,,,orange,diamond
0.0,8.0,4.0,1.0,5.0,5.0,788.3541539613361,2.0,1.0,phase_2,stop,650.0,450.0,3.0,,,,,,,,,yellow,hexagon
0.0,6.0,1.0,1.0,6.0,0.0,0.0,2.0,1.0,phase_2,go,600.0,450.0,5.0,,,,,,,,,white,I
0.0,2.0,1.0,0.0,5.0,5.0,791.4878388073703,2.0,1.0,phase_2,go,600.0,450.0,1.0,,,,,,,,,orange,diamond
0.0,5.0,0.5,1.0,5.0,5.0,656.1446949599485,2.0,1.0,phase_2,stop,600.0,450.0,3.0,,,,,,,,,green,flipped triangle
0.0,3.0,2.0,0.0,6.0,6.0,713.4867168060737,2.0,1.0,phase_2,go,550.0,450.0,1.0,,,,,,,,,gray,cross
0.0,2.0,1.0,0.0,6.0,6.0,748.0377506926743,2.0,1.0,phase_2,go,550.0,450.0,1.0,,,,,,,,,orange,diamond
0.0,1.0,0.5,0.0,5.0,5.0,714.8684320000029,2.0,1.0,phase_2,go,550.0,450.0,1.0,,,,,,,,,magenta,triangle
0.0,7.0,2.0,1.0,5.0,0.0,0.0,2.0,1.0,phase_2,stop,550.0,450.0,4.0,,,,,,,,,blue,circle
0.0,6.0,1.0,1.0,6.0,6.0,345.655691844513,2.0,1.0,phase_2,stop,600.0,450.0,3.0,,,,,,,,,white,I
0.0,1.0,0.5,0.0,6.0,6.0,728.2725978839153,2.0,1.0,phase_2,go,600.0,400.0,1.0,,,,,,,,,magenta,triangle
0.0,3.0,2.0,0.0,5.0,5.0,674.251556807576,2.0,1.0,phase_2,go,600.0,400.0,1.0,,,,,,,,,gray,cross
0.0,2.0,1.0,0.0,6.0,6.0,628.5126488837705,2.0,1.0,phase_2,go,600.0,400.0,1.0,,,,,,,,,orange,diamond
0.0,4.0,4.0,0.0,5.0,5.0,676.4532007309754,2.0,1.0,phase_2,go,600.0,400.0,1.0,,,,,,,,,cyan,square
0.0,6.0,1.0,1.0,5.0,5.0,429.1133488077321,2.0,1.0,phase_2,go,600.0,400.0,1.0,,,,,,,,,white,I
0.0,5.0,0.5,1.0,6.0,0.0,0.0,2.0,1.0,phase_2,stop,600.0,400.0,4.0,,,,,,,,,green,flipped triangle
0.0,6.0,1.0,1.0,6.0,6.0,440.9654368446354,2.0,1.0,phase_2,go,600.0,450.0,1.0,,,,,,,,,white,I
0.0,8.0,4.0,1.0,6.0,6.0,431.872521960031,2.0,1.0,phase_2,stop,600.0,450.0,3.0,,,,,,,,,yellow,hexagon
0.0,1.0,0.5,0.0,6.0,6.0,498.8224986918794,2.0,1.0,phase_2,go,600.0,400.0,1.0,,,,,,,,,magenta,triangle
0.0,7.0,2.0,1.0,6.0,6.0,476.9545010003639,2.0,1.0,phase_2,stop,600.0,400.0,3.0,,,,,,,,,blue,circle
0.0,3.0,2.0,0.0,6.0,6.0,601.505552924209,2.0,1.0,phase_2,go,600.0,350.0,1.0,,,,,,,,,gray,cross
0.0,8.0,4.0,1.0,5.0,5.0,635.8312488846423,2.0,1.0,phase_2,stop,600.0,350.0,3.0,,,,,,,,,yellow,hexagon
0.0,3.0,2.0,0.0,5.0,5.0,626.8544058839325,2.0,1.0,phase_2,go,550.0,350.0,1.0,,,,,,,,,gray,cross
0.0,1.0,0.5,0.0,5.0,5.0,356.411287730225,2.0,1.0,phase_2,go,550.0,350.0,1.0,,,,,,,,,magenta,triangle
0.0,6.0,1.0,1.0,6.0,6.0,301.2774968065059,2.0,1.0,phase_2,go,550.0,350.0,1.0,,,,,,,,,white,I
0.0,5.0,0.5,1.0,5.0,5.0,605.2824399230303,2.0,1.0,phase_2,stop,550.0,350.0,3.0,,,,,,,,,green,flipped triangle
0.0,1.0,0.5,0.0,6.0,6.0,622.4420207690855,3.0,1.0,phase_2,go,500.0,350.0,1.0,,,,,,,,,magenta,triangle
0.0,8.0,4.0,1.0,6.0,0.0,0.0,3.0,1.0,phase_2,stop,500.0,350.0,4.0,,,,,,,,,yellow,hexagon
0.0,3.0,2.0,0.0,6.0,6.0,513.1910697673447,3.0,1.0,phase_2,go,500.0,400.0,1.0,,,,,,,,,gray,cross
0.0,5.0,0.5,1.0,5.0,0.0,0.0,3.0,1.0,phase_2,stop,500.0,400.0,4.0,,,,,,,,,green,flipped triangle
0.0,3.0,2.0,0.0,5.0,5.0,569.2185758070991,3.0,1.0,phase_2,go,550.0,400.0,1.0,,,,,,,,,gray,cross
0.0,6.0,1.0,1.0,5.0,0.0,0.0,3.0,1.0,phase_2,stop,550.0,400.0,4.0,,,,,,,,,white,I
0.0,6.0,1.0,1.0,5.0,5.0,651.1276568453468,3.0,1.0,phase_2,stop,600.0,400.0,3.0,,,,,,,,,white,I
0.0,7.0,2.0,1.0,5.0,5.0,595.4476839233394,3.0,1.0,phase_2,stop,550.0,400.0,3.0,,,,,,,,,blue,circle
0.0,4.0,4.0,0.0,6.0,6.0,673.3546016912442,3.0,1.0,phase_2,go,500.0,400.0,1.0,,,,,,,,,cyan,square
0.0,8.0,4.0,1.0,5.0,5.0,675.2744188452198,3.0,1.0,phase_2,go,500.0,400.0,1.0,,,,,,,,,yellow,hexagon
0.0,5.0,0.5,1.0,6.0,0.0,0.0,3.0,1.0,phase_2,stop,500.0,400.0,4.0,,,,,,,,,green,flipped triangle
0.0,7.0,2.0,1.0,6.0,6.0,788.5211718839855,3.0,1.0,phase_2,go,500.0,450.0,1.0,,,,,,,,,blue,circle
0.0,2.0,1.0,0.0,6.0,6.0,913.9712729993336,3.0,1.0,phase_2,go,500.0,450.0,1.0,,,,,,,,,orange,diamond
0.0,3.0,2.0,0.0,6.0,6.0,758.3277888443263,3.0,1.0,phase_2,go,500.0,450.0,1.0,,,,,,,,,gray,cross
0.0,1.0,0.5,0.0,5.0,5.0,724.0050937307387,3.0,1.0,phase_2,go,500.0,450.0,1.0,,,,,,,,,magenta,triangle
0.0,7.0,2.0,1.0,5.0,5.0,612.158150806863,3.0,1.0,phase_2,stop,500.0,450.0,3.0,,,,,,,,,blue,circle
0.0,2.0,1.0,0.0,5.0,5.0,647.0753859230172,3.0,1.0,phase_2,go,450.0,450.0,1.0,,,,,,,,,orange,diamond
0.0,2.0,1.0,0.0,5.0,5.0,761.1550029596401,3.0,1.0,phase_2,go,450.0,450.0,1.0,,,,,,,,,orange,diamond
0.0,7.0,2.0,1.0,6.0,0.0,0.0,3.0,1.0,phase_2,stop,450.0,450.0,4.0,,,,,,,,,blue,circle
0.0,5.0,0.5,1.0,6.0,6.0,818.3134999217145,3.0,1.0,phase_2,go,450.0,500.0,1.0,,,,,,,,,green,flipped triangle
0.0,2.0,1.0,0.0,6.0,6.0,876.154300844064,3.0,1.0,phase_2,go,450.0,500.0,1.0,,,,,,,,,orange,diamond
0.0,4.0,4.0,0.0,6.0,6.0,866.2624048847647,3.0,1.0,phase_2,go,450.0,500.0,1.0,,,,,,,,,cyan,square
0.0,1.0,0.5,0.0,6.0,6.0,899.023917843806,3.0,1.0,phase_2,go,450.0,500.0,1.0,,,,,,,,,magenta,triangle
0.0,8.0,4.0,1.0,6.0,6.0,788.9625867665018,3.0,1.0,phase_2,go,450.0,500.0,1.0,,,,,,,,,yellow,hexagon
0.0,3.0,2.0,0.0,6.0,6.0,924.2784206908254,3.0,1.0,phase_2,go,450.0,500.0,1.0,,,,,,,,,gray,cross
0.0,8.0,4.0,1.0,6.0,0.0,0.0,3.0,1.0,phase_2,stop,450.0,500.0,4.0,,,,,,,,,yellow,hexagon
0.0,4.0,4.0,0.0,6.0,6.0,756.5580389236857,3.0,1.0,phase_2,go,450.0,550.0,1.0,,,,,,,,,cyan,square
0.0,4.0,4.0,0.0,5.0,5.0,937.3326728073152,3.0,1.0,phase_2,go,450.0,550.0,1.0,,,,,,,,,cyan,square
0.0,7.0,2.0,1.0,5.0,0.0,0.0,3.0,1.0,phase_2,stop,450.0,550.0,4.0,,,,,,,,,blue,circle
0.0,8.0,4.0,1.0,6.0,6.0,445.2443556911021,3.0,1.0,phase_2,stop,500.0,550.0,3.0,,,,,,,,,yellow,hexagon
0.0,8.0,4.0,1.0,6.0,6.0,614.4246189232945,3.0,1.0,phase_2,go,500.0,500.0,1.0,,,,,,,,,yellow,hexagon
0.0,8.0,4.0,1.0,5.0,5.0,637.2075088838756,3.0,1.0,phase_2,stop,500.0,500.0,3.0,,,,,,,,,yellow,hexagon
0.0,6.0,1.0,1.0,6.0,0.0,0.0,3.0,1.0,phase_2,stop,450.0,500.0,4.0,,,,,,,,,white,I
0.0,6.0,1.0,1.0,5.0,0.0,0.0,3.0,1.0,phase_2,stop,450.0,550.0,4.0,,,,,,,,,white,I
0.0,1.0,0.5,0.0,5.0,5.0,740.7823037301569,3.0,1.0,phase_2,go,500.0,550.0,1.0,,,,,,,,,magenta,triangle
0.0,1.0,0.5,0.0,5.0,5.0,730.4877869592019,3.0,1.0,phase_2,go,500.0,550.0,1.0,,,,,,,,,magenta,triangle
0.0,7.0,2.0,1.0,5.0,5.0,512.1620478057594,4.0,1.0,phase_2,stop,500.0,550.0,3.0,,,,,,,,,blue,circle
0.0,5.0,0.5,1.0,5.0,5.0,344.034103807644,4.0,1.0,phase_2,stop,450.0,550.0,3.0,,,,,,,,,green,flipped triangle
0.0,2.0,1.0,0.0,6.0,6.0,536.193490766891,4.0,1.0,phase_2,go,400.0,550.0,1.0,,,,,,,,,orange,diamond
0.0,3.0,2.0,0.0,6.0,6.0,571.2248229228862,4.0,1.0,phase_2,go,400.0,550.0,1.0,,,,,,,,,gray,cross
0.0,1.0,0.5,0.0,6.0,6.0,447.285653959625,4.0,1.0,phase_2,go,400.0,550.0,1.0,,,,,,,,,magenta,triangle
0.0,3.0,2.0,0.0,5.0,5.0,458.709232883848,4.0,1.0,phase_2,go,400.0,550.0,1.0,,,,,,,,,gray,cross
0.0,5.0,0.5,1.0,6.0,6.0,403.8383037677704,4.0,1.0,phase_2,stop,400.0,550.0,3.0,,,,,,,,,green,flipped triangle
0.0,6.0,1.0,1.0,5.0,0.0,0.0,4.0,1.0,phase_2,stop,400.0,500.0,4.0,,,,,,,,,white,I
0.0,7.0,2.0,1.0,6.0,6.0,541.9761397297407,4.0,1.0,phase_2,stop,450.0,500.0,3.0,,,,,,,,,blue,circle
0.0,3.0,2.0,0.0,5.0,5.0,608.9266348062665,4.0,1.0,phase_2,go,450.0,450.0,1.0,,,,,,,,,gray,cross
0.0,2.0,1.0,0.0,5.0,5.0,598.3932499602815,4.0,1.0,phase_2,go,450.0,450.0,1.0,,,,,,,,,orange,diamond
0.0,5.0,0.5,1.0,5.0,5.0,633.2931678080058,4.0,1.0,phase_2,stop,450.0,450.0,3.0,,,,,,,,,green,flipped triangle
0.0,6.0,1.0,1.0,5.0,0.0,0.0,4.0,1.0,phase_2,stop,400.0,450.0,4.0,,,,,,,,,white,I
0.0,6.0,1.0,1.0,6.0,6.0,431.601646116178,4.0,1.0,phase_2,stop,450.0,450.0,3.0,,,,,,,,,white,I
0.0,4.0,4.0,0.0,5.0,5.0,625.4508119236561,4.0,1.0,phase_2,go,450.0,400.0,1.0,,,,,,,,,cyan,square
0.0,6.0,1.0,1.0,5.0,0.0,0.0,4.0,1.0,phase_2,stop,450.0,400.0,4.0,,,,,,,,,white,I
0.0,6.0,1.0,1.0,6.0,0.0,0.0,4.0,1.0,phase_2,stop,500.0,400.0,4.0,,,,,,,,,white,I
0.0,5.0,0.5,1.0,6.0,6.0,706.7034049232461,4.0,1.0,phase_2,go,500.0,450.0,1.0,,,,,,,,,green,flipped triangle
0.0,2.0,1.0,0.0,5.0,5.0,763.528706960642,4.0,1.0,phase_2,go,500.0,450.0,1.0,,,,,,,,,orange,diamond
0.0,7.0,2.0,1.0,6.0,6.0,628.5222868082201,4.0,1.0,phase_2,stop,500.0,450.0,3.0,,,,,,,,,blue,circle
0.0,2.0,1.0,0.0,6.0,6.0,709.3319149607851,4.0,1.0,phase_2,go,500.0,400.0,1.0,,,,,,,,,orange,diamond
0.0,4.0,4.0,0.0,6.0,6.0,640.9321319606534,4.0,1.0,phase_2,go,500.0,400.0,1.0,,,,,,,,,cyan,square
0.0,4.0,4.0,0.0,5.0,5.0,687.1705670000665,4.0,1.0,phase_2,go,500.0,400.0,1.0,,,,,,,,,cyan,square
0.0,8.0,4.0,1.0,5.0,0.0,0.0,4.0,1.0,phase_2,stop,500.0,400.0,4.0,,,,,,,,,yellow,hexagon
0.0,4.0,4.0,0.0,6.0,6.0,666.158557000017,4.0,1.0,phase_2,go,550.0,400.0,1.0,,,,,,,,,cyan,square
0.0,1.0,0.5,0.0,6.0,6.0,565.3379848827171,4.0,1.0,phase_2,go,550.0,400.0,1.0,,,,,,,,,magenta,triangle
0.0,6.0,1.0,1.0,6.0,0.0,0.0,4.0,1.0,phase_2,stop,550.0,400.0,4.0,,,,,,,,,white,I
0.0,2.0,1.0,0.0,5.0,5.0,364.677097843014,4.0,1.0,phase_2,go,550.0,450.0,1.0,,,,,,,,,orange,diamond
0.0,3.0,2.0,0.0,5.0,5.0,658.1915787301114,4.0,1.0,phase_2,go,550.0,450.0,1.0,,,,,,,,,gray,cross
0.0,4.0,4.0,0.0,6.0,6.0,435.2978898841684,4.0,1.0,phase_2,go,550.0,450.0,1.0,,,,,,,,,cyan,square
0.0,7.0,2.0,1.0,5.0,5.0,818.7194888832892,4.0,1.0,phase_2,go,550.0,450.0,1.0,,,,,,,,,blue,circle
0.0,6.0,1.0,1.0,6.0,0.0,0.0,4.0,1.0,phase_2,stop,550.0,450.0,4.0,,,,,,,,,white,I
0.0,4.0,4.0,0.0,6.0,6.0,550.0053277683037,4.0,1.0,phase_2,go,550.0,500.0,1.0,,,,,,,,,cyan,square
0.0,4.0,4.0,0.0,6.0,6.0,370.8088088442309,4.0,1.0,phase_2,go,550.0,500.0,1.0,,,,,,,,,cyan,square
0.0,3.0,2.0,0.0,5.0,5.0,664.1601699611783,4.0,1.0,phase_2,go,550.0,500.0,1.0,,,,,,,,,gray,cross
0.0,3.0,2.0,0.0,5.0,5.0,630.1581957686722,4.0,1.0,phase_2,go,550.0,500.0,1.0,,,,,,,,,gray,cross
0.0,5.0,0.5,1.0,6.0,6.0,464.6814928855747,5.0,1.0,phase_2,stop,550.0,500.0,3.0,,,,,,,,,green,flipped triangle
0.0,8.0,4.0,1.0,6.0,0.0,0.0,5.0,1.0,phase_2,stop,550.0,450.0,4.0,,,,,,,,,yellow,hexagon
0.0,6.0,1.0,1.0,5.0,5.0,364.7296728850051,5.0,1.0,phase_2,go,550.0,500.0,1.0,,,,,,,,,white,I
0.0,6.0,1.0,1.0,5.0,5.0,580.0416128076904,5.0,1.0,phase_2,stop,550.0,500.0,3.0,,,,,,,,,white,I
0.0,2.0,1.0,0.0,5.0,5.0,545.7652707682428,5.0,1.0,phase_2,go,500.0,500.0,1.0,,,,,,,,,orange,diamond
0.0,1.0,0.5,0.0,5.0,5.0,783.2955320391193,5.0,1.0,phase_2,go,500.0,500.0,1.0,,,,,,,,,magenta,triangle
0.0,8.0,4.0,1.0,6.0,6.0,794.9754821565875,5.0,1.0,phase_2,go,500.0,500.0,1.0,,,,,,,,,yellow,hexagon
0.0,8.0,4.0,1.0,6.0,6.0,434.8666549612971,5.0,1.0,phase_2,stop,500.0,500.0,3.0,,,,,,,,,yellow,hexagon
0.0,6.0,1.0,1.0,6.0,0.0,0.0,5.0,1.0,phase_2,stop,500.0,450.0,4.0,,,,,,,,,white,I
0.0,4.0,4.0,0.0,5.0,5.0,404.9379658845282,5.0,1.0,phase_2,go,500.0,500.0,1.0,,,,,,,,,cyan,square
0.0,4.0,4.0,0.0,5.0,5.0,382.2757067300699,5.0,1.0,phase_2,go,500.0,500.0,1.0,,,,,,,,,cyan,square
0.0,8.0,4.0,1.0,5.0,5.0,641.6731658446224,5.0,1.0,phase_2,stop,500.0,500.0,3.0,,,,,,,,,yellow,hexagon
0.0,4.0,4.0,0.0,5.0,5.0,553.562160806905,5.0,1.0,phase_2,go,450.0,500.0,1.0,,,,,,,,,cyan,square
0.0,2.0,1.0,0.0,5.0,5.0,609.2357387296943,5.0,1.0,phase_2,go,450.0,500.0,1.0,,,,,,,,,orange,diamond
0.0,1.0,0.5,0.0,5.0,5.0,633.4472620383167,5.0,1.0,phase_2,go,450.0,500.0,1.0,,,,,,,,,magenta,triangle
0.0,3.0,2.0,0.0,5.0,5.0,690.5260646508395,5.0,1.0,phase_2,go,450.0,500.0,1.0,,,,,,,,,gray,cross
0.0,1.0,0.5,0.0,5.0,5.0,758.270235690361,5.0,1.0,phase_2,go,450.0,500.0,1.0,,,,,,,,,magenta,triangle
0.0,3.0,2.0,0.0,6.0,6.0,827.3900448075437,5.0,1.0,phase_2,go,450.0,500.0,1.0,,,,,,,,,gray,cross
0.0,5.0,0.5,1.0,6.0,6.0,804.582949844189,5.0,1.0,phase_2,go,450.0,500.0,1.0,,,,,,,,,green,flipped triangle
0.0,8.0,4.0,1.0,5.0,0.0,0.0,5.0,1.0,phase_2,stop,450.0,500.0,4.0,,,,,,,,,yellow,hexagon
0.0,6.0,1.0,1.0,6.0,6.0,625.633009845842,5.0,1.0,phase_2,go,500.0,500.0,1.0,,,,,,,,,white,I
0.0,2.0,1.0,0.0,5.0,5.0,706.4926799230307,5.0,1.0,phase_2,go,500.0,500.0,1.0,,,,,,,,,orange,diamond
0.0,3.0,2.0,0.0,6.0,6.0,628.3684329609969,5.0,1.0,phase_2,go,500.0,500.0,1.0,,,,,,,,,gray,cross
0.0,7.0,2.0,1.0,5.0,5.0,662.1752617684251,5.0,1.0,phase_2,stop,500.0,500.0,3.0,,,,,,,,,blue,circle
0.0,4.0,4.0,0.0,5.0,5.0,529.1352700405696,5.0,1.0,phase_2,go,450.0,500.0,1.0,,,,,,,,,cyan,square
0.0,6.0,1.0,1.0,5.0,0.0,0.0,5.0,1.0,phase_2,stop,450.0,500.0,4.0,,,,,,,,,white,I
0.0,7.0,2.0,1.0,6.0,6.0,654.0754289999313,5.0,1.0,phase_2,go,500.0,500.0,1.0,,,,,,,,,blue,circle
0.0,4.0,4.0,0.0,6.0,6.0,644.1814777681429,5.0,1.0,phase_2,go,500.0,500.0,1.0,,,,,,,,,cyan,square
0.0,7.0,2.0,1.0,5.0,0.0,0.0,5.0,1.0,phase_2,stop,500.0,500.0,4.0,,,,,,,,,blue,circle
0.0,7.0,2.0,1.0,5.0,0.0,0.0,5.0,1.0,phase_2,stop,550.0,500.0,4.0,,,,,,,,,blue,circle
0.0,1.0,0.5,0.0,5.0,5.0,724.7669389616931,5.0,1.0,phase_2,go,600.0,500.0,1.0,,,,,,,,,magenta,triangle
0.0,1.0,0.5,0.0,6.0,6.0,659.4118980010535,5.0,1.0,phase_2,go,600.0,500.0,1.0,,,,,,,,,magenta,triangle
0.0,7.0,2.0,1.0,6.0,0.0,0.0,5.0,1.0,phase_2,stop,600.0,500.0,4.0,,,,,,,,,blue,circle
0.0,8.0,4.0,1.0,6.0,6.0,546.6258559226844,5.0,1.0,phase_2,stop,600.0,550.0,3.0,,,,,,,,,yellow,hexagon
0.0,1.0,0.5,0.0,6.0,6.0,704.8474797684321,5.0,1.0,phase_2,go,600.0,500.0,1.0,,,,,,,,,magenta,triangle
0.0,7.0,2.0,1.0,5.0,5.0,649.6112250006263,5.0,1.0,phase_2,stop,600.0,500.0,3.0,,,,,,,,,blue,circle
0.0,4.0,4.0,0.0,6.0,6.0,614.5530106514343,6.0,1.0,phase_2,go,550.0,500.0,1.0,,,,,,,,,cyan,square
0.0,5.0,0.5,1.0,6.0,6.0,537.6955249230377,6.0,1.0,phase_2,go,550.0,500.0,1.0,,,,,,,,,green,flipped triangle
0.0,4.0,4.0,0.0,6.0,6.0,572.6655797679996,6.0,1.0,phase_2,go,550.0,500.0,1.0,,,,,,,,,cyan,square
0.0,7.0,2.0,1.0,6.0,6.0,764.8783218446624,6.0,1.0,phase_2,go,550.0,500.0,1.0,,,,,,,,,blue,circle
0.0,3.0,2.0,0.0,5.0,5.0,686.3139749239053,6.0,1.0,phase_2,go,550.0,500.0,1.0,,,,,,,,,gray,cross
0.0,2.0,1.0,0.0,5.0,5.0,630.8657099998527,6.0,1.0,phase_2,go,550.0,500.0,1.0,,,,,,,,,orange,diamond
0.0,2.0,1.0,0.0,6.0,6.0,743.0762128078641,6.0,1.0,phase_2,go,550.0,500.0,1.0,,,,,,,,,orange,diamond
0.0,6.0,1.0,1.0,6.0,0.0,0.0,6.0,1.0,phase_2,stop,550.0,500.0,4.0,,,,,,,,,white,I
0.0,7.0,2.0,1.0,6.0,0.0,0.0,6.0,1.0,phase_2,stop,550.0,550.0,4.0,,,,,,,,,blue,circle
0.0,2.0,1.0,0.0,5.0,5.0,724.0240749233635,6.0,1.0,phase_2,go,550.0,600.0,1.0,,,,,,,,,orange,diamond
0.0,6.0,1.0,1.0,5.0,0.0,0.0,6.0,1.0,phase_2,stop,550.0,600.0,4.0,,,,,,,,,white,I
0.0,5.0,0.5,1.0,5.0,5.0,782.8097136916767,6.0,1.0,phase_2,go,600.0,600.0,1.0,,,,,,,,,green,flipped triangle
0.0,3.0,2.0,0.0,5.0,5.0,748.3049137317721,6.0,1.0,phase_2,go,600.0,600.0,1.0,,,,,,,,,gray,cross
0.0,3.0,2.0,0.0,5.0,5.0,490.459502883823,6.0,1.0,phase_2,go,600.0,600.0,1.0,,,,,,,,,gray,cross
0.0,5.0,0.5,1.0,5.0,5.0,524.8644867679104,6.0,1.0,phase_2,stop,600.0,600.0,3.0,,,,,,,,,green,flipped triangle
0.0,1.0,0.5,0.0,5.0,5.0,638.3332249242812,6.0,1.0,phase_2,go,550.0,600.0,1.0,,,,,,,,,magenta,triangle
0.0,6.0,1.0,1.0,6.0,6.0,617.3998270387528,6.0,1.0,phase_2,stop,550.0,600.0,3.0,,,,,,,,,white,I
0.0,1.0,0.5,0.0,5.0,5.0,652.5082927673793,6.0,1.0,phase_2,go,550.0,550.0,1.0,,,,,,,,,magenta,triangle
0.0,7.0,2.0,1.0,5.0,5.0,653.1818738440052,6.0,1.0,phase_2,stop,550.0,550.0,3.0,,,,,,,,,blue,circle
0.0,5.0,0.5,1.0,6.0,6.0,607.3640886515932,6.0,1.0,phase_2,stop,500.0,550.0,3.0,,,,,,,,,green,flipped triangle
0.0,6.0,1.0,1.0,5.0,5.0,653.8098468827229,6.0,1.0,phase_2,stop,500.0,500.0,3.0,,,,,,,,,white,I
0.0,3.0,2.0,0.0,5.0,5.0,587.8898148075677,6.0,1.0,phase_2,go,450.0,500.0,1.0,,,,,,,,,gray,cross
0.0,1.0,0.5,0.0,6.0,6.0,476.7572208838828,6.0,1.0,phase_2,go,450.0,500.0,1.0,,,,,,,,,magenta,triangle
0.0,5.0,0.5,1.0,6.0,6.0,781.3991220409662,6.0,1.0,phase_2,go,450.0,500.0,1.0,,,,,,,,,green,flipped triangle
0.0,5.0,0.5,1.0,6.0,6.0,466.7734149224998,6.0,1.0,phase_2,go,450.0,500.0,1.0,,,,,,,,,green,flipped triangle
0.0,2.0,1.0,0.0,6.0,6.0,467.5893928451842,6.0,1.0,phase_2,go,450.0,500.0,1.0,,,,,,,,,orange,diamond
0.0,4.0,4.0,0.0,6.0,6.0,457.4358507306897,6.0,1.0,phase_2,go,450.0,500.0,1.0,,,,,,,,,cyan,square
0.0,6.0,1.0,1.0,5.0,0.0,0.0,6.0,1.0,phase_2,stop,450.0,500.0,4.0,,,,,,,,,white,I
0.0,3.0,2.0,0.0,6.0,6.0,705.1830478449119,6.0,1.0,phase_2,go,500.0,500.0,1.0,,,,,,,,,gray,cross
0.0,4.0,4.0,0.0,5.0,5.0,424.6565137673315,6.0,1.0,phase_2,go,500.0,500.0,1.0,,,,,,,,,cyan,square
0.0,8.0,4.0,1.0,6.0,0.0,0.0,6.0,1.0,phase_2,stop,500.0,500.0,4.0,,,,,,,,,yellow,hexagon
0.0,4.0,4.0,0.0,5.0,5.0,574.2635208080173,6.0,1.0,phase_2,go,500.0,550.0,1.0,,,,,,,,,cyan,square
0.0,3.0,2.0,0.0,5.0,5.0,798.9446108058473,6.0,1.0,phase_2,go,500.0,550.0,1.0,,,,,,,,,gray,cross
0.0,6.0,1.0,1.0,5.0,5.0,439.1087939238787,6.0,1.0,phase_2,stop,500.0,550.0,3.0,,,,,,,,,white,I
0.0,4.0,4.0,0.0,5.0,5.0,474.7916979231377,6.0,1.0,phase_2,go,450.0,550.0,1.0,,,,,,,,,cyan,square
0.0,2.0,1.0,0.0,6.0,6.0,700.1907488447614,6.0,1.0,phase_2,go,450.0,550.0,1.0,,,,,,,,,orange,diamond
0.0,8.0,4.0,1.0,5.0,5.0,516.3647387671517,7.0,1.0,phase_2,stop,450.0,550.0,3.0,,,,,,,,,yellow,hexagon
0.0,8.0,4.0,1.0,5.0,5.0,505.74594730278477,7.0,1.0,phase_2,stop,400.0,550.0,3.0,,,,,,,,,yellow,hexagon
0.0,1.0,0.5,0.0,5.0,5.0,552.2437970375904,7.0,1.0,phase_2,go,350.0,550.0,1.0,,,,,,,,,magenta,triangle
0.0,4.0,4.0,0.0,5.0,5.0,620.9086937305983,7.0,1.0,phase_2,go,350.0,550.0,1.0,,,,,,,,,cyan,square
0.0,4.0,4.0,0.0,6.0,6.0,350.9110478826187,7.0,1.0,phase_2,go,350.0,550.0,1.0,,,,,,,,,cyan,square
0.0,4.0,4.0,0.0,6.0,6.0,465.9187716915767,7.0,1.0,phase_2,go,350.0,550.0,1.0,,,,,,,,,cyan,square
0.0,6.0,1.0,1.0,6.0,6.0,624.061084807181,7.0,1.0,phase_2,stop,350.0,550.0,3.0,,,,,,,,,white,I
0.0,6.0,1.0,1.0,6.0,6.0,534.2999810400215,7.0,1.0,phase_2,go,350.0,500.0,1.0,,,,,,,,,white,I
0.0,5.0,0.5,1.0,5.0,0.0,0.0,7.0,1.0,phase_2,stop,350.0,500.0,4.0,,,,,,,,,green,flipped triangle
0.0,3.0,2.0,0.0,6.0,6.0,523.8147110012505,7.0,1.0,phase_2,go,400.0,500.0,1.0,,,,,,,,,gray,cross
0.0,3.0,2.0,0.0,6.0,6.0,457.1647020002274,7.0,1.0,phase_2,go,400.0,500.0,1.0,,,,,,,,,gray,cross
0.0,5.0,0.5,1.0,5.0,0.0,0.0,7.0,1.0,phase_2,stop,400.0,500.0,4.0,,,,,,,,,green,flipped triangle
0.0,8.0,4.0,1.0,6.0,6.0,403.0965068832302,7.0,1.0,phase_2,stop,450.0,500.0,3.0,,,,,,,,,yellow,hexagon
0.0,1.0,0.5,0.0,6.0,6.0,640.7759939611424,7.0,1.0,phase_2,go,450.0,450.0,1.0,,,,,,,,,magenta,triangle
0.0,8.0,4.0,1.0,5.0,0.0,0.0,7.0,1.0,phase_2,stop,450.0,450.0,4.0,,,,,,,,,yellow,hexagon
0.0,7.0,2.0,1.0,6.0,0.0,0.0,7.0,1.0,phase_2,stop,500.0,450.0,4.0,,,,,,,,,blue,circle
0.0,8.0,4.0,1.0,6.0,0.0,0.0,7.0,1.0,phase_2,stop,500.0,500.0,4.0,,,,,,,,,yellow,hexagon
0.0,1.0,0.5,0.0,6.0,6.0,620.7884860396007,7.0,1.0,phase_2,go,500.0,550.0,1.0,,,,,,,,,magenta,triangle
0.0,7.0,2.0,1.0,6.0,6.0,655.5764088461729,7.0,1.0,phase_2,stop,500.0,550.0,3.0,,,,,,,,,blue,circle
0.0,3.0,2.0,0.0,6.0,6.0,587.959037766268,7.0,1.0,phase_2,go,500.0,500.0,1.0,,,,,,,,,gray,cross
0.0,2.0,1.0,0.0,6.0,6.0,680.2817579591647,7.0,1.0,phase_2,go,500.0,500.0,1.0,,,,,,,,,orange,diamond
0.0,6.0,1.0,1.0,5.0,5.0,625.1189688828163,7.0,1.0,phase_2,stop,500.0,500.0,3.0,,,,,,,,,white,I
0.0,2.0,1.0,0.0,6.0,6.0,626.5083617290657,7.0,1.0,phase_2,go,450.0,500.0,1.0,,,,,,,,,orange,diamond
0.0,5.0,0.5,1.0,6.0,0.0,0.0,7.0,1.0,phase_2,stop,450.0,500.0,4.0,,,,,,,,,green,flipped triangle
0.0,3.0,2.0,0.0,6.0,6.0,661.0856339611928,7.0,1.0,phase_2,go,450.0,550.0,1.0,,,,,,,,,gray,cross
0.0,7.0,2.0,1.0,6.0,6.0,491.9645579593634,7.0,1.0,phase_2,go,450.0,550.0,1.0,,,,,,,,,blue,circle
0.0,4.0,4.0,0.0,5.0,5.0,627.802916960718,7.0,1.0,phase_2,go,450.0,550.0,1.0,,,,,,,,,cyan,square
0.0,5.0,0.5,1.0,5.0,0.0,0.0,7.0,1.0,phase_2,stop,450.0,550.0,4.0,,,,,,,,,green,flipped triangle
0.0,3.0,2.0,0.0,5.0,5.0,697.0333499230037,7.0,1.0,phase_2,go,500.0,550.0,1.0,,,,,,,,,gray,cross
0.0,2.0,1.0,0.0,5.0,5.0,574.5484897670394,7.0,1.0,phase_2,go,500.0,550.0,1.0,,,,,,,,,orange,diamond
0.0,8.0,4.0,1.0,5.0,5.0,665.2450158853753,7.0,1.0,phase_2,go,500.0,550.0,1.0,,,,,,,,,yellow,hexagon
0.0,8.0,4.0,1.0,6.0,6.0,306.90931492245,7.0,1.0,phase_2,go,500.0,550.0,1.0,,,,,,,,,yellow,hexagon
0.0,3.0,2.0,0.0,6.0,6.0,272.9801719597162,7.0,1.0,phase_2,go,500.0,550.0,1.0,,,,,,,,,gray,cross
0.0,3.0,2.0,0.0,5.0,5.0,455.2593718071875,7.0,1.0,phase_2,go,500.0,550.0,1.0,,,,,,,,,gray,cross
0.0,2.0,1.0,0.0,6.0,6.0,611.977161039249,7.0,1.0,phase_2,go,500.0,550.0,1.0,,,,,,,,,orange,diamond
0.0,2.0,1.0,0.0,5.0,5.0,545.1292948073387,7.0,1.0,phase_2,go,500.0,550.0,1.0,,,,,,,,,orange,diamond
0.0,5.0,0.5,1.0,5.0,5.0,576.1329569613736,8.0,1.0,phase_2,stop,500.0,550.0,3.0,,,,,,,,,green,flipped triangle
0.0,1.0,0.5,0.0,6.0,6.0,339.117023806466,8.0,1.0,phase_2,go,450.0,550.0,1.0,,,,,,,,,magenta,triangle
0.0,1.0,0.5,0.0,6.0,6.0,418.8621649591368,8.0,1.0,phase_2,go,450.0,550.0,1.0,,,,,,,,,magenta,triangle
0.0,3.0,2.0,0.0,6.0,6.0,576.9900910399883,8.0,1.0,phase_2,go,450.0,550.0,1.0,,,,,,,,,gray,cross
0.0,5.0,0.5,1.0,6.0,6.0,399.5011977676768,8.0,1.0,phase_2,go,450.0,550.0,1.0,,,,,,,,,green,flipped triangle
0.0,5.0,0.5,1.0,6.0,6.0,591.3154779991601,8.0,1.0,phase_2,stop,450.0,550.0,3.0,,,,,,,,,green,flipped triangle
0.0,6.0,1.0,1.0,6.0,6.0,601.7936558073416,8.0,1.0,phase_2,stop,450.0,500.0,3.0,,,,,,,,,white,I
0.0,1.0,0.5,0.0,5.0,5.0,310.4309139616816,8.0,1.0,phase_2,go,450.0,450.0,1.0,,,,,,,,,magenta,triangle
0.0,1.0,0.5,0.0,6.0,6.0,503.71507484487665,8.0,1.0,phase_2,go,450.0,450.0,1.0,,,,,,,,,magenta,triangle
0.0,4.0,4.0,0.0,6.0,6.0,638.1910907675774,8.0,1.0,phase_2,go,450.0,450.0,1.0,,,,,,,,,cyan,square
0.0,7.0,2.0,1.0,6.0,0.0,0.0,8.0,1.0,phase_2,stop,450.0,450.0,4.0,,,,,,,,,blue,circle
0.0,2.0,1.0,0.0,5.0,5.0,685.1504418445984,8.0,1.0,phase_2,go,450.0,500.0,1.0,,,,,,,,,orange,diamond
0.0,2.0,1.0,0.0,5.0,5.0,539.8901359239971,8.0,1.0,phase_2,go,450.0,500.0,1.0,,,,,,,,,orange,diamond
0.0,8.0,4.0,1.0,5.0,5.0,597.5986917674163,8.0,1.0,phase_2,stop,450.0,500.0,3.0,,,,,,,,,yellow,hexagon
0.0,1.0,0.5,0.0,5.0,5.0,563.8220268829173,8.0,1.0,phase_2,go,400.0,500.0,1.0,,,,,,,,,magenta,triangle
0.0,8.0,4.0,1.0,5.0,0.0,0.0,8.0,1.0,phase_2,stop,400.0,500.0,4.0,,,,,,,,,yellow,hexagon
0.0,3.0,2.0,0.0,6.0,6.0,655.1631436905154,8.0,1.0,phase_2,go,450.0,500.0,1.0,,,,,,,,,gray,cross
0.0,8.0,4.0,1.0,6.0,0.0,0.0,8.0,1.0,phase_2,stop,450.0,500.0,4.0,,,,,,,,,yellow,hexagon
0.0,8.0,4.0,1.0,5.0,5.0,691.7502156920818,8.0,1.0,phase_2,go,450.0,550.0,1.0,,,,,,,,,yellow,hexagon
0.0,1.0,0.5,0.0,6.0,6.0,647.6250759606046,8.0,1.0,phase_2,go,450.0,550.0,1.0,,,,,,,,,magenta,triangle
0.0,6.0,1.0,1.0,5.0,5.0,703.1391801883728,8.0,1.0,phase_2,go,450.0,550.0,1.0,,,,,,,,,white,I
0.0,1.0,0.5,0.0,5.0,5.0,501.86034780745103,8.0,1.0,phase_2,go,450.0,550.0,1.0,,,,,,,,,magenta,triangle
0.0,1.0,0.5,0.0,5.0,5.0,559.4800760773069,8.0,1.0,phase_2,go,450.0,550.0,1.0,,,,,,,,,magenta,triangle
0.0,3.0,2.0,0.0,6.0,6.0,673.0035149612377,8.0,1.0,phase_2,go,450.0,550.0,1.0,,,,,,,,,gray,cross
0.0,2.0,1.0,0.0,6.0,6.0,550.0426747694291,8.0,1.0,phase_2,go,450.0,550.0,1.0,,,,,,,,,orange,diamond
0.0,1.0,0.5,0.0,6.0,6.0,584.0031719999388,8.0,1.0,phase_2,go,450.0,550.0,1.0,,,,,,,,,magenta,triangle
0.0,7.0,2.0,1.0,6.0,6.0,652.7025737304939,8.0,1.0,phase_2,stop,450.0,550.0,3.0,,,,,,,,,blue,circle
0.0,5.0,0.5,1.0,5.0,0.0,0.0,8.0,1.0,phase_2,stop,450.0,500.0,4.0,,,,,,,,,green,flipped triangle
0.0,4.0,4.0,0.0,5.0,5.0,620.061708807043,8.0,1.0,phase_2,go,500.0,500.0,1.0,,,,,,,,,cyan,square
0.0,8.0,4.0,1.0,6.0,6.0,643.9781209228386,8.0,1.0,phase_2,go,500.0,500.0,1.0,,,,,,,,,yellow,hexagon
0.0,3.0,2.0,0.0,5.0,5.0,600.9358627670736,8.0,1.0,phase_2,go,500.0,500.0,1.0,,,,,,,,,gray,cross
0.0,5.0,0.5,1.0,5.0,5.0,657.1377320397005,8.0,1.0,phase_2,stop,500.0,500.0,3.0,,,,,,,,,green,flipped triangle
0.0,5.0,0.5,1.0,5.0,0.0,0.0,8.0,1.0,phase_2,stop,450.0,500.0,4.0,,,,,,,,,green,flipped triangle
0.0,2.0,1.0,0.0,6.0,6.0,579.3327300398232,8.0,1.0,phase_2,go,500.0,500.0,1.0,,,,,,,,,orange,diamond
0.0,7.0,2.0,1.0,5.0,0.0,0.0,8.0,1.0,phase_2,stop,500.0,500.0,4.0,,,,,,,,,blue,circle
0.0,5.0,0.5,1.0,5.0,0.0,0.0,8.0,1.0,phase_2,stop,550.0,500.0,4.0,,,,,,,,,green,flipped triangle
0.0,4.0,4.0,0.0,7.0,4.0,2932.035589557927,1.0,2.0,phase_3,,,,,204.0,6.0,136.0,102.0,170.0,204.0,34.0,68.0,cyan,square
0.0,1.0,0.5,0.0,7.0,5.0,3269.163005088558,1.0,1.0,phase_3,,,,,245.0,5.0,196.0,294.0,49.0,98.0,245.0,147.0,magenta,triangle
0.0,4.0,4.0,0.0,7.0,5.0,2978.382181323468,1.0,1.0,phase_3,,,,,117.0,3.0,156.0,195.0,234.0,39.0,117.0,78.0,cyan,square
0.0,2.0,1.0,0.0,7.0,6.0,4149.585882323663,1.0,1.0,phase_3,,,,,220.0,5.0,264.0,88.0,176.0,132.0,44.0,220.0,orange,diamond
0.0,4.0,4.0,0.0,7.0,5.0,4490.973527617825,1.0,1.0,phase_3,,,,,245.0,5.0,49.0,147.0,98.0,294.0,245.0,196.0,cyan,square
0.0,6.0,1.0,1.0,7.0,2.0,4707.300377940555,1.0,1.0,phase_3,,,,,136.0,4.0,68.0,136.0,102.0,34.0,170.0,204.0,white,I
0.0,3.0,2.0,0.0,7.0,2.0,3907.1236538511594,1.0,1.0,phase_3,,,,,136.0,4.0,102.0,136.0,204.0,170.0,34.0,68.0,gray,cross
0.0,2.0,1.0,0.0,7.0,3.0,4817.19520047227,1.0,1.0,phase_3,,,,,136.0,4.0,204.0,34.0,136.0,68.0,102.0,170.0,orange,diamond
0.0,7.0,2.0,1.0,7.0,5.0,4279.221423706986,1.0,1.0,phase_3,,,,,117.0,3.0,39.0,195.0,234.0,78.0,117.0,156.0,blue,circle
0.0,5.0,0.5,1.0,7.0,2.0,2921.960359557488,1.0,1.0,phase_3,,,,,176.0,4.0,132.0,176.0,88.0,264.0,220.0,44.0,green,flipped triangle
0.0,4.0,4.0,0.0,7.0,5.0,2752.7395740889915,1.0,1.0,phase_3,,,,,234.0,6.0,39.0,78.0,156.0,195.0,234.0,117.0,cyan,square
0.0,7.0,2.0,1.0,7.0,1.0,2259.66572355901,1.0,1.0,phase_3,,,,,132.0,3.0,132.0,44.0,264.0,88.0,176.0,220.0,blue,circle
0.0,1.0,0.5,0.0,7.0,6.0,3328.8493444706546,1.0,1.0,phase_3,,,,,196.0,4.0,98.0,294.0,49.0,245.0,147.0,196.0,magenta,triangle
0.0,5.0,0.5,1.0,7.0,5.0,729.2554389405268,1.0,2.0,phase_3,,,,,147.0,3.0,98.0,294.0,49.0,196.0,147.0,245.0,green,flipped triangle
0.0,1.0,0.5,0.0,7.0,2.0,1956.3383507065737,1.0,1.0,phase_3,,,,,156.0,4.0,117.0,156.0,78.0,234.0,39.0,195.0,magenta,triangle
0.0,6.0,1.0,1.0,7.0,5.0,2486.724081940338,1.0,1.0,phase_3,,,,,294.0,6.0,49.0,196.0,245.0,98.0,294.0,147.0,white,I
0.0,6.0,1.0,1.0,7.0,2.0,1631.3741419999133,1.0,1.0,phase_3,,,,,102.0,3.0,204.0,102.0,170.0,34.0,136.0,68.0,white,I
0.0,5.0,0.5,1.0,7.0,2.0,2937.976220233395,1.0,1.0,phase_3,,,,,176.0,4.0,88.0,176.0,44.0,132.0,220.0,264.0,green,flipped triangle
0.0,7.0,2.0,1.0,7.0,6.0,1713.8250070893264,1.0,1.0,phase_3,,,,,68.0,2.0,204.0,102.0,136.0,170.0,34.0,68.0,blue,circle
0.0,8.0,4.0,1.0,7.0,1.0,1657.2037885580355,1.0,1.0,phase_3,,,,,264.0,6.0,264.0,220.0,44.0,132.0,176.0,88.0,yellow,hexagon
0.0,7.0,2.0,1.0,7.0,2.0,1841.5178013237887,2.0,1.0,phase_3,,,,,78.0,2.0,195.0,78.0,234.0,117.0,156.0,39.0,blue,circle
0.0,7.0,2.0,1.0,7.0,6.0,1177.6527788515525,2.0,1.0,phase_3,,,,,162.0,3.0,108.0,216.0,324.0,270.0,54.0,162.0,blue,circle
0.0,7.0,2.0,1.0,7.0,5.0,1212.8165295580402,2.0,1.0,phase_3,,,,,88.0,2.0,176.0,44.0,220.0,132.0,88.0,264.0,blue,circle
0.0,1.0,0.5,0.0,7.0,6.0,1393.2513082345397,2.0,1.0,phase_3,,,,,132.0,3.0,264.0,220.0,176.0,88.0,44.0,132.0,magenta,triangle
0.0,7.0,2.0,1.0,7.0,1.0,1925.0717090890248,2.0,1.0,phase_3,,,,,98.0,2.0,98.0,147.0,294.0,245.0,196.0,49.0,blue,circle
0.0,8.0,4.0,1.0,7.0,5.0,1555.061227940314,2.0,1.0,phase_3,,,,,234.0,6.0,195.0,117.0,156.0,78.0,234.0,39.0,yellow,hexagon
0.0,2.0,1.0,0.0,7.0,4.0,1847.335509088225,2.0,1.0,phase_3,,,,,216.0,4.0,162.0,324.0,54.0,216.0,108.0,270.0,orange,diamond
0.0,8.0,4.0,1.0,7.0,5.0,1320.2887054703751,2.0,1.0,phase_3,,,,,204.0,6.0,136.0,102.0,170.0,34.0,204.0,68.0,yellow,hexagon
0.0,4.0,4.0,0.0,7.0,5.0,1423.057653941214,2.0,1.0,phase_3,,,,,162.0,3.0,216.0,54.0,270.0,324.0,162.0,108.0,cyan,square
0.0,8.0,4.0,1.0,7.0,3.0,1872.3878760883963,2.0,1.0,phase_3,,,,,204.0,6.0,170.0,34.0,204.0,102.0,136.0,68.0,yellow,hexagon
0.0,5.0,0.5,1.0,7.0,5.0,1515.3015006180794,2.0,1.0,phase_3,,,,,170.0,5.0,102.0,136.0,204.0,34.0,170.0,68.0,green,flipped triangle
0.0,1.0,0.5,0.0,7.0,2.0,1167.6483260889654,2.0,1.0,phase_3,,,,,136.0,4.0,68.0,136.0,34.0,170.0,102.0,204.0,magenta,triangle
0.0,8.0,4.0,1.0,7.0,2.0,1965.849161939332,2.0,1.0,phase_3,,,,,264.0,6.0,176.0,264.0,220.0,88.0,132.0,44.0,yellow,hexagon
0.0,2.0,1.0,0.0,7.0,6.0,1506.619230940487,2.0,1.0,phase_3,,,,,170.0,5.0,136.0,34.0,204.0,102.0,68.0,170.0,orange,diamond
0.0,8.0,4.0,1.0,7.0,5.0,1766.7294969996874,2.0,1.0,phase_3,,,,,78.0,2.0,156.0,195.0,39.0,117.0,78.0,234.0,yellow,hexagon
0.0,4.0,4.0,0.0,7.0,4.0,2048.086709706695,2.0,1.0,phase_3,,,,,147.0,3.0,245.0,49.0,196.0,147.0,98.0,294.0,cyan,square
0.0,8.0,4.0,1.0,7.0,5.0,1386.5879936183774,2.0,1.0,phase_3,,,,,324.0,6.0,216.0,54.0,162.0,108.0,324.0,270.0,yellow,hexagon
0.0,3.0,2.0,0.0,7.0,6.0,2118.0418559397367,2.0,1.0,phase_3,,,,,117.0,3.0,39.0,78.0,234.0,195.0,156.0,117.0,gray,cross
0.0,5.0,0.5,1.0,7.0,5.0,1782.5474547062186,2.0,1.0,phase_3,,,,,195.0,5.0,234.0,39.0,78.0,156.0,195.0,117.0,green,flipped triangle
0.0,4.0,4.0,0.0,7.0,5.0,1557.4806038530369,2.0,1.0,phase_3,,,,,132.0,3.0,264.0,44.0,88.0,220.0,132.0,176.0,cyan,square
0.0,5.0,0.5,1.0,7.0,3.0,1219.6147175582157,3.0,1.0,phase_3,,,,,216.0,4.0,324.0,108.0,216.0,54.0,162.0,270.0,green,flipped triangle
0.0,2.0,1.0,0.0,7.0,3.0,2210.674623089289,3.0,1.0,phase_3,,,,,147.0,3.0,49.0,294.0,147.0,98.0,245.0,196.0,orange,diamond
0.0,6.0,1.0,1.0,7.0,4.0,1221.29975200005,3.0,1.0,phase_3,,,,,117.0,3.0,195.0,234.0,39.0,117.0,156.0,78.0,white,I
0.0,1.0,0.5,0.0,7.0,2.0,850.847686851921,3.0,1.0,phase_3,,,,,102.0,3.0,68.0,102.0,136.0,170.0,34.0,204.0,magenta,triangle
0.0,3.0,2.0,0.0,7.0,6.0,885.2629187058483,3.0,1.0,phase_3,,,,,88.0,2.0,220.0,264.0,44.0,176.0,132.0,88.0,gray,cross
0.0,6.0,1.0,1.0,7.0,4.0,672.2412387061922,3.0,1.0,phase_3,,,,,196.0,4.0,294.0,49.0,245.0,196.0,147.0,98.0,white,I
0.0,2.0,1.0,0.0,7.0,4.0,1877.030489322351,3.0,1.0,phase_3,,,,,98.0,2.0,294.0,49.0,245.0,98.0,147.0,196.0,orange,diamond
0.0,3.0,2.0,0.0,7.0,6.0,1405.8008029405755,3.0,1.0,phase_3,,,,,216.0,4.0,324.0,270.0,54.0,108.0,162.0,216.0,gray,cross
0.0,7.0,2.0,1.0,7.0,3.0,1070.6277472345391,3.0,1.0,phase_3,,,,,49.0,1.0,245.0,147.0,49.0,98.0,294.0,196.0,blue,circle
0.0,4.0,4.0,0.0,7.0,5.0,969.0672228534822,3.0,1.0,phase_3,,,,,220.0,5.0,88.0,176.0,132.0,44.0,220.0,264.0,cyan,square
0.0,6.0,1.0,1.0,7.0,4.0,1354.2524990880338,3.0,1.0,phase_3,,,,,270.0,5.0,108.0,54.0,324.0,270.0,162.0,216.0,white,I
0.0,3.0,2.0,0.0,7.0,6.0,1781.322618089689,3.0,1.0,phase_3,,,,,264.0,6.0,132.0,88.0,44.0,176.0,220.0,264.0,gray,cross
0.0,6.0,1.0,1.0,7.0,3.0,1377.1611976171698,3.0,1.0,phase_3,,,,,132.0,3.0,264.0,44.0,132.0,176.0,220.0,88.0,white,I
0.0,2.0,1.0,0.0,7.0,4.0,1277.0159082338068,3.0,1.0,phase_3,,,,,156.0,4.0,117.0,234.0,78.0,156.0,195.0,39.0,orange,diamond
0.0,4.0,4.0,0.0,7.0,5.0,919.1255589412322,3.0,1.0,phase_3,,,,,162.0,3.0,108.0,216.0,270.0,54.0,162.0,324.0,cyan,square
0.0,5.0,0.5,1.0,7.0,6.0,1482.8418879405945,3.0,1.0,phase_3,,,,,136.0,4.0,102.0,34.0,170.0,68.0,204.0,136.0,green,flipped triangle
0.0,3.0,2.0,0.0,7.0,2.0,2057.3761597061093,3.0,1.0,phase_3,,,,,196.0,4.0,147.0,196.0,294.0,245.0,98.0,49.0,gray,cross
0.0,8.0,4.0,1.0,7.0,5.0,977.4614723246486,3.0,1.0,phase_3,,,,,294.0,6.0,196.0,49.0,98.0,245.0,294.0,147.0,yellow,hexagon
0.0,1.0,0.5,0.0,7.0,2.0,1813.0278864719005,3.0,1.0,phase_3,,,,,132.0,3.0,176.0,132.0,88.0,220.0,264.0,44.0,magenta,triangle
0.0,4.0,4.0,0.0,7.0,4.0,1204.9161693521455,3.0,1.0,phase_3,,,,,170.0,5.0,204.0,34.0,102.0,170.0,136.0,68.0,cyan,square
0.0,5.0,0.5,1.0,7.0,4.0,419.0713514726667,4.0,1.0,phase_3,,,,,98.0,2.0,245.0,196.0,294.0,98.0,147.0,49.0,green,flipped triangle
0.0,8.0,4.0,1.0,7.0,4.0,735.999946235097,4.0,1.0,phase_3,,,,,294.0,6.0,196.0,147.0,245.0,294.0,49.0,98.0,yellow,hexagon
0.0,2.0,1.0,0.0,7.0,6.0,488.3316948526044,4.0,1.0,phase_3,,,,,264.0,6.0,44.0,132.0,220.0,88.0,176.0,264.0,orange,diamond
0.0,1.0,0.5,0.0,7.0,1.0,872.4490987060562,4.0,1.0,phase_3,,,,,270.0,5.0,270.0,162.0,108.0,324.0,216.0,54.0,magenta,triangle
0.0,7.0,2.0,1.0,7.0,3.0,1729.4427867054765,4.0,1.0,phase_3,,,,,162.0,3.0,108.0,216.0,162.0,54.0,324.0,270.0,blue,circle
0.0,3.0,2.0,0.0,7.0,5.0,648.9106622339023,4.0,1.0,phase_3,,,,,162.0,3.0,108.0,54.0,324.0,270.0,162.0,216.0,gray,cross
0.0,3.0,2.0,0.0,7.0,3.0,1068.233289382988,4.0,1.0,phase_3,,,,,78.0,2.0,39.0,117.0,78.0,234.0,156.0,195.0,gray,cross
0.0,1.0,0.5,0.0,7.0,6.0,966.752282323796,4.0,1.0,phase_3,,,,,39.0,1.0,78.0,156.0,117.0,234.0,195.0,39.0,magenta,triangle
0.0,6.0,1.0,1.0,7.0,2.0,2115.584405941263,4.0,1.0,phase_3,,,,,132.0,3.0,88.0,132.0,264.0,176.0,44.0,220.0,white,I
0.0,5.0,0.5,1.0,7.0,6.0,1756.1437324711733,4.0,1.0,phase_3,,,,,117.0,3.0,78.0,195.0,156.0,234.0,39.0,117.0,green,flipped triangle
0.0,5.0,0.5,1.0,7.0,2.0,2533.8764659409208,4.0,1.0,phase_3,,,,,216.0,4.0,54.0,216.0,270.0,324.0,162.0,108.0,green,flipped triangle
0.0,6.0,1.0,1.0,7.0,5.0,1285.719427471122,4.0,1.0,phase_3,,,,,162.0,3.0,324.0,270.0,216.0,54.0,162.0,108.0,white,I
0.0,6.0,1.0,1.0,7.0,6.0,1827.043838940881,4.0,1.0,phase_3,,,,,195.0,5.0,78.0,117.0,39.0,156.0,234.0,195.0,white,I
0.0,3.0,2.0,0.0,7.0,3.0,1694.2852672345907,4.0,1.0,phase_3,,,,,136.0,4.0,170.0,102.0,136.0,68.0,34.0,204.0,gray,cross
0.0,2.0,1.0,0.0,7.0,2.0,1211.2058030888877,4.0,1.0,phase_3,,,,,162.0,3.0,324.0,162.0,270.0,108.0,54.0,216.0,orange,diamond
0.0,8.0,4.0,1.0,7.0,5.0,1662.7428882347886,4.0,1.0,phase_3,,,,,324.0,6.0,54.0,108.0,162.0,216.0,324.0,270.0,yellow,hexagon
0.0,2.0,1.0,0.0,7.0,4.0,492.0679542337893,4.0,1.0,phase_3,,,,,39.0,1.0,156.0,195.0,234.0,39.0,78.0,117.0,orange,diamond
0.0,7.0,2.0,1.0,7.0,2.0,1416.3413187052356,4.0,1.0,phase_3,,,,,136.0,4.0,204.0,136.0,68.0,102.0,34.0,170.0,blue,circle
0.0,1.0,0.5,0.0,7.0,1.0,2272.324350940835,4.0,1.0,phase_3,,,,,108.0,2.0,108.0,216.0,270.0,162.0,324.0,54.0,magenta,triangle
0.0,3.0,2.0,0.0,7.0,4.0,1385.2692870877945,4.0,1.0,phase_3,,,,,49.0,1.0,98.0,147.0,294.0,49.0,196.0,245.0,gray,cross
