raw_reward_magnitude,stim_reward,stepwise_reward_magnitude,paired_with_stopping,stim_location,response,reaction_time,block,num_trial_presentations,which_phase,stop_signal_trial_type,left_SSD,right_SSD,accuracy,chosen_bidding_amount,chosen_bidding_level,possible_bid_1,possible_bid_2,possible_bid_3,possible_bid_4,possible_bid_5,possible_bid_6,color_text,shape_text
68.0,5.0,0.5,1.0,4.0,4.0,556.5903529713978,1.0,1.0,phase_1,,,,,,,,,,,,,orange,cross
0.0,5.0,0.0,1.0,4.0,4.0,320.8405806253722,1.0,1.0,phase_1,,,,,,,,,,,,,orange,cross
389.0,4.0,4.0,0.0,2.0,2.0,356.1488056548114,1.0,1.0,phase_1,,,,,,,,,,,,,green,circle
118.0,2.0,1.0,0.0,2.0,2.0,333.6925973162579,1.0,1.0,phase_1,,,,,,,,,,,,,blue,I
223.0,7.0,2.0,1.0,4.0,4.0,289.3038786569377,1.0,1.0,phase_1,,,,,,,,,,,,,gray,flipped triangle
198.0,7.0,2.0,1.0,3.0,3.0,312.481475972163,1.0,1.0,phase_1,,,,,,,,,,,,,gray,flipped triangle
28.0,1.0,0.5,0.0,1.0,1.0,313.9136303143459,1.0,1.0,phase_1,,,,,,,,,,,,,magenta,square
55.0,1.0,0.5,0.0,3.0,3.0,266.8496029400558,1.0,1.0,phase_1,,,,,,,,,,,,,magenta,square
118.0,6.0,1.0,1.0,2.0,2.0,302.4313782843819,1.0,1.0,phase_1,,,,,,,,,,,,,yellow,diamond
423.0,4.0,4.0,0.0,2.0,2.0,324.9117333143658,1.0,1.0,phase_1,,,,,,,,,,,,,green,circle
196.0,3.0,2.0,0.0,3.0,3.0,236.4305356568365,1.0,1.0,phase_1,,,,,,,,,,,,,cyan,hexagon
220.0,3.0,2.0,0.0,3.0,3.0,304.9004669373971,1.0,1.0,phase_1,,,,,,,,,,,,,cyan,hexagon
45.0,1.0,0.5,0.0,3.0,3.0,293.2704229679075,1.0,1.0,phase_1,,,,,,,,,,,,,magenta,square
123.0,2.0,1.0,0.0,1.0,1.0,327.0150623175141,1.0,1.0,phase_1,,,,,,,,,,,,,blue,I
185.0,7.0,2.0,1.0,4.0,4.0,249.593129283312,1.0,1.0,phase_1,,,,,,,,,,,,,gray,flipped triangle
0.0,7.0,0.0,1.0,4.0,4.0,205.7935079392336,1.0,1.0,phase_1,,,,,,,,,,,,,gray,flipped triangle
36.0,1.0,0.5,0.0,1.0,1.0,263.1466629682109,1.0,1.0,phase_1,,,,,,,,,,,,,magenta,square
51.0,1.0,0.5,0.0,4.0,4.0,239.5706716015411,1.0,1.0,phase_1,,,,,,,,,,,,,magenta,square
419.0,8.0,4.0,1.0,1.0,1.0,375.2764532837318,1.0,2.0,phase_1,,,,,,,,,,,,,white,triangle
47.0,1.0,0.5,0.0,1.0,1.0,342.1482776575431,1.0,1.0,phase_1,,,,,,,,,,,,,magenta,square
211.0,3.0,2.0,0.0,4.0,4.0,412.2917093118303,1.0,1.0,phase_1,,,,,,,,,,,,,cyan,hexagon
195.0,3.0,2.0,0.0,4.0,4.0,355.1869632829039,1.0,1.0,phase_1,,,,,,,,,,,,,cyan,hexagon
421.0,8.0,4.0,1.0,3.0,3.0,309.934758257441,1.0,1.0,phase_1,,,,,,,,,,,,,white,triangle
207.0,3.0,2.0,0.0,4.0,4.0,401.9933396230044,1.0,1.0,phase_1,,,,,,,,,,,,,cyan,hexagon
111.0,6.0,1.0,1.0,4.0,4.0,367.3775315983221,1.0,1.0,phase_1,,,,,,,,,,,,,yellow,diamond
94.0,6.0,1.0,1.0,3.0,3.0,324.9364259390859,1.0,1.0,phase_1,,,,,,,,,,,,,yellow,diamond
0.0,3.0,0.0,0.0,2.0,2.0,334.3806389420933,1.0,1.0,phase_1,,,,,,,,,,,,,cyan,hexagon
0.0,4.0,0.0,0.0,1.0,1.0,291.9146359708975,1.0,1.0,phase_1,,,,,,,,,,,,,green,circle
109.0,2.0,1.0,0.0,1.0,1.0,348.2696893152024,1.0,2.0,phase_1,,,,,,,,,,,,,blue,I
180.0,7.0,2.0,1.0,2.0,2.0,371.2893943156814,1.0,1.0,phase_1,,,,,,,,,,,,,gray,flipped triangle
403.0,8.0,4.0,1.0,3.0,3.0,372.3728099394066,1.0,1.0,phase_1,,,,,,,,,,,,,white,triangle
382.0,8.0,4.0,1.0,1.0,1.0,339.2478502828453,1.0,1.0,phase_1,,,,,,,,,,,,,white,triangle
124.0,6.0,1.0,1.0,2.0,2.0,304.7319833131041,1.0,1.0,phase_1,,,,,,,,,,,,,yellow,diamond
0.0,4.0,0.0,0.0,4.0,4.0,372.5571799695899,1.0,1.0,phase_1,,,,,,,,,,,,,green,circle
68.0,1.0,0.5,0.0,4.0,4.0,362.2712862561457,1.0,1.0,phase_1,,,,,,,,,,,,,magenta,square
98.0,2.0,1.0,0.0,4.0,4.0,351.9722246273886,1.0,1.0,phase_1,,,,,,,,,,,,,blue,I
418.0,8.0,4.0,1.0,2.0,2.0,295.7749886554666,1.0,1.0,phase_1,,,,,,,,,,,,,white,triangle
55.0,1.0,0.5,0.0,1.0,1.0,352.8182032096083,1.0,1.0,phase_1,,,,,,,,,,,,,magenta,square
48.0,5.0,0.5,1.0,4.0,4.0,331.3390509720193,1.0,1.0,phase_1,,,,,,,,,,,,,orange,cross
392.0,8.0,4.0,1.0,1.0,1.0,310.3015589695133,1.0,1.0,phase_1,,,,,,,,,,,,,white,triangle
47.0,5.0,0.5,1.0,3.0,3.0,298.4761633160815,1.0,1.0,phase_1,,,,,,,,,,,,,orange,cross
212.0,3.0,2.0,0.0,2.0,2.0,277.850670285261,1.0,1.0,phase_1,,,,,,,,,,,,,cyan,hexagon
189.0,7.0,2.0,1.0,2.0,2.0,311.970525970537,1.0,1.0,phase_1,,,,,,,,,,,,,gray,flipped triangle
225.0,7.0,2.0,1.0,4.0,4.0,378.3497492840979,1.0,1.0,phase_1,,,,,,,,,,,,,gray,flipped triangle
59.0,1.0,0.5,0.0,2.0,2.0,369.3376956543943,1.0,1.0,phase_1,,,,,,,,,,,,,magenta,square
32.0,5.0,0.5,1.0,4.0,4.0,356.3065496273339,1.0,1.0,phase_1,,,,,,,,,,,,,orange,cross
29.0,1.0,0.5,0.0,1.0,1.0,278.6855079393717,1.0,1.0,phase_1,,,,,,,,,,,,,magenta,square
68.0,1.0,0.5,0.0,2.0,2.0,268.4290019387845,1.0,1.0,phase_1,,,,,,,,,,,,,magenta,square
392.0,4.0,4.0,0.0,3.0,3.0,291.4064539399987,1.0,1.0,phase_1,,,,,,,,,,,,,green,circle
83.0,2.0,1.0,0.0,2.0,2.0,314.1465295993839,1.0,1.0,phase_1,,,,,,,,,,,,,blue,I
119.0,2.0,1.0,0.0,4.0,4.0,327.2643569398497,1.0,1.0,phase_1,,,,,,,,,,,,,blue,I
179.0,7.0,2.0,1.0,1.0,1.0,260.8165013152757,1.0,1.0,phase_1,,,,,,,,,,,,,gray,flipped triangle
415.0,8.0,4.0,1.0,1.0,1.0,327.2216283148736,1.0,1.0,phase_1,,,,,,,,,,,,,white,triangle
54.0,5.0,0.5,1.0,2.0,2.0,304.7477536238148,1.0,1.0,phase_1,,,,,,,,,,,,,orange,cross
216.0,3.0,2.0,0.0,4.0,4.0,282.493501312274,1.0,1.0,phase_1,,,,,,,,,,,,,cyan,hexagon
0.0,6.0,0.0,1.0,3.0,3.0,340.0726663130626,1.0,1.0,phase_1,,,,,,,,,,,,,yellow,diamond
179.0,7.0,2.0,1.0,4.0,4.0,329.2641083171475,1.0,1.0,phase_1,,,,,,,,,,,,,gray,flipped triangle
0.0,4.0,0.0,0.0,4.0,4.0,286.9094779707666,1.0,1.0,phase_1,,,,,,,,,,,,,green,circle
0.0,3.0,0.0,0.0,2.0,2.0,298.1239706277847,1.0,1.0,phase_1,,,,,,,,,,,,,cyan,hexagon
380.0,8.0,4.0,1.0,2.0,2.0,287.4124992558791,1.0,1.0,phase_1,,,,,,,,,,,,,white,triangle
201.0,7.0,2.0,1.0,3.0,3.0,298.8873276262893,1.0,1.0,phase_1,,,,,,,,,,,,,gray,flipped triangle
69.0,5.0,0.5,1.0,1.0,1.0,277.2996306557616,1.0,1.0,phase_1,,,,,,,,,,,,,orange,cross
32.0,1.0,0.5,0.0,2.0,2.0,333.4934035992773,1.0,1.0,phase_1,,,,,,,,,,,,,magenta,square
0.0,4.0,0.0,0.0,3.0,3.0,266.9671315707091,1.0,1.0,phase_1,,,,,,,,,,,,,green,circle
415.0,4.0,4.0,0.0,3.0,3.0,322.667123942665,1.0,1.0,phase_1,,,,,,,,,,,,,green,circle
216.0,7.0,2.0,1.0,1.0,1.0,367.9668509976181,1.0,1.0,phase_1,,,,,,,,,,,,,gray,flipped triangle
392.0,4.0,4.0,0.0,1.0,1.0,402.4671886581927,1.0,1.0,phase_1,,,,,,,,,,,,,green,circle
74.0,5.0,0.5,1.0,4.0,4.0,379.9525929098308,1.0,1.0,phase_1,,,,,,,,,,,,,orange,cross
193.0,3.0,2.0,0.0,3.0,3.0,313.94763962453,1.0,1.0,phase_1,,,,,,,,,,,,,cyan,hexagon
418.0,4.0,4.0,0.0,3.0,3.0,313.4150339428743,1.0,1.0,phase_1,,,,,,,,,,,,,green,circle
124.0,2.0,1.0,0.0,3.0,3.0,349.3259023161954,1.0,2.0,phase_1,,,,,,,,,,,,,blue,I
207.0,7.0,2.0,1.0,3.0,3.0,305.647962315561,1.0,1.0,phase_1,,,,,,,,,,,,,gray,flipped triangle
83.0,2.0,1.0,0.0,3.0,3.0,339.1908473167859,1.0,1.0,phase_1,,,,,,,,,,,,,blue,I
421.0,4.0,4.0,0.0,1.0,1.0,351.8899376576883,1.0,1.0,phase_1,,,,,,,,,,,,,green,circle
401.0,4.0,4.0,0.0,4.0,4.0,329.5173249716754,1.0,1.0,phase_1,,,,,,,,,,,,,green,circle
94.0,2.0,1.0,0.0,4.0,4.0,339.3900529990787,1.0,1.0,phase_1,,,,,,,,,,,,,blue,I
90.0,2.0,1.0,0.0,1.0,1.0,375.3581836244848,1.0,2.0,phase_1,,,,,,,,,,,,,blue,I
47.0,5.0,0.5,1.0,2.0,2.0,410.5746202549198,1.0,1.0,phase_1,,,,,,,,,,,,,orange,cross
389.0,8.0,4.0,1.0,1.0,1.0,624.2440085989074,1.0,1.0,phase_1,,,,,,,,,,,,,white,triangle
123.0,6.0,1.0,1.0,4.0,4.0,501.0493182853679,1.0,1.0,phase_1,,,,,,,,,,,,,yellow,diamond
39.0,5.0,0.5,1.0,4.0,4.0,433.3973345965205,1.0,1.0,phase_1,,,,,,,,,,,,,orange,cross
0.0,2.0,0.0,0.0,2.0,2.0,400.1139366009738,1.0,1.0,phase_1,,,,,,,,,,,,,blue,I
111.0,6.0,1.0,1.0,4.0,4.0,344.8035123146837,1.0,1.0,phase_1,,,,,,,,,,,,,yellow,diamond
0.0,5.0,0.0,1.0,3.0,3.0,389.7434289101511,1.0,1.0,phase_1,,,,,,,,,,,,,orange,cross
387.0,4.0,4.0,0.0,3.0,3.0,300.2739710027526,1.0,1.0,phase_1,,,,,,,,,,,,,green,circle
110.0,6.0,1.0,1.0,1.0,1.0,302.5801372532442,1.0,1.0,phase_1,,,,,,,,,,,,,yellow,diamond
0.0,2.0,0.0,0.0,1.0,1.0,426.3640143144585,1.0,1.0,phase_1,,,,,,,,,,,,,blue,I
193.0,3.0,2.0,0.0,4.0,4.0,438.2801196552464,1.0,1.0,phase_1,,,,,,,,,,,,,cyan,hexagon
37.0,1.0,0.5,0.0,2.0,2.0,404.1189345989551,1.0,1.0,phase_1,,,,,,,,,,,,,magenta,square
27.0,5.0,0.5,1.0,4.0,4.0,415.6467232533032,1.0,1.0,phase_1,,,,,,,,,,,,,orange,cross
0.0,6.0,0.0,1.0,1.0,1.0,416.720778313902,1.0,1.0,phase_1,,,,,,,,,,,,,yellow,diamond
196.0,3.0,2.0,0.0,1.0,1.0,417.6646032865392,1.0,1.0,phase_1,,,,,,,,,,,,,cyan,hexagon
76.0,6.0,1.0,1.0,4.0,4.0,419.2708746559219,1.0,1.0,phase_1,,,,,,,,,,,,,yellow,diamond
0.0,3.0,0.0,0.0,2.0,2.0,508.810820600047,1.0,1.0,phase_1,,,,,,,,,,,,,cyan,hexagon
0.0,2.0,0.0,0.0,2.0,2.0,407.7571059387992,1.0,1.0,phase_1,,,,,,,,,,,,,blue,I
36.0,5.0,0.5,1.0,2.0,2.0,296.1089349410031,1.0,1.0,phase_1,,,,,,,,,,,,,orange,cross
0.0,5.0,0.0,1.0,4.0,4.0,443.6558626002806,1.0,1.0,phase_1,,,,,,,,,,,,,orange,cross
40.0,1.0,0.5,0.0,2.0,2.0,409.7246426536003,1.0,1.0,phase_1,,,,,,,,,,,,,magenta,square
95.0,6.0,1.0,1.0,1.0,1.0,432.1939633155125,1.0,1.0,phase_1,,,,,,,,,,,,,yellow,diamond
47.0,1.0,0.5,0.0,3.0,3.0,433.4499686556228,1.0,1.0,phase_1,,,,,,,,,,,,,magenta,square
71.0,1.0,0.5,0.0,4.0,4.0,490.0734616530826,2.0,1.0,phase_1,,,,,,,,,,,,,magenta,square
198.0,3.0,2.0,0.0,2.0,2.0,422.7207949697913,2.0,1.0,phase_1,,,,,,,,,,,,,cyan,hexagon
54.0,5.0,0.5,1.0,2.0,2.0,322.5053359419689,2.0,1.0,phase_1,,,,,,,,,,,,,orange,cross
412.0,8.0,4.0,1.0,3.0,3.0,322.5620616540254,2.0,1.0,phase_1,,,,,,,,,,,,,white,triangle
187.0,3.0,2.0,0.0,2.0,2.0,325.1698526546533,2.0,1.0,phase_1,,,,,,,,,,,,,cyan,hexagon
384.0,4.0,4.0,0.0,1.0,1.0,425.5816383156343,2.0,1.0,phase_1,,,,,,,,,,,,,green,circle
27.0,1.0,0.5,0.0,4.0,4.0,425.9534513475955,2.0,1.0,phase_1,,,,,,,,,,,,,magenta,square
0.0,6.0,0.0,1.0,4.0,4.0,404.4490792875876,2.0,1.0,phase_1,,,,,,,,,,,,,yellow,diamond
0.0,6.0,0.0,1.0,3.0,3.0,314.8465476260753,2.0,1.0,phase_1,,,,,,,,,,,,,yellow,diamond
29.0,5.0,0.5,1.0,1.0,1.0,348.70129962655477,2.0,1.0,phase_1,,,,,,,,,,,,,orange,cross
395.0,8.0,4.0,1.0,4.0,4.0,360.2366429404355,2.0,1.0,phase_1,,,,,,,,,,,,,white,triangle
211.0,7.0,2.0,1.0,4.0,4.0,395.4924609424779,2.0,1.0,phase_1,,,,,,,,,,,,,gray,flipped triangle
386.0,4.0,4.0,0.0,2.0,2.0,383.8085782845155,2.0,1.0,phase_1,,,,,,,,,,,,,green,circle
0.0,8.0,0.0,1.0,4.0,4.0,328.96968660134,2.0,1.0,phase_1,,,,,,,,,,,,,white,triangle
0.0,7.0,0.0,1.0,3.0,3.0,363.2222546002595,2.0,1.0,phase_1,,,,,,,,,,,,,gray,flipped triangle
48.0,5.0,0.5,1.0,2.0,2.0,329.0234596242953,2.0,1.0,phase_1,,,,,,,,,,,,,orange,cross
216.0,3.0,2.0,0.0,2.0,2.0,408.8391989716911,2.0,1.0,phase_1,,,,,,,,,,,,,cyan,hexagon
98.0,6.0,1.0,1.0,4.0,4.0,330.8542289087199,2.0,1.0,phase_1,,,,,,,,,,,,,yellow,diamond
386.0,4.0,4.0,0.0,4.0,4.0,364.7364726530213,2.0,1.0,phase_1,,,,,,,,,,,,,green,circle
47.0,5.0,0.5,1.0,3.0,3.0,410.6833922851365,2.0,1.0,phase_1,,,,,,,,,,,,,orange,cross
0.0,3.0,0.0,0.0,4.0,4.0,376.7150192870758,2.0,1.0,phase_1,,,,,,,,,,,,,cyan,hexagon
90.0,6.0,1.0,1.0,2.0,2.0,457.6364436252333,2.0,1.0,phase_1,,,,,,,,,,,,,yellow,diamond
0.0,2.0,0.0,0.0,3.0,3.0,333.1988339996314,2.0,1.0,phase_1,,,,,,,,,,,,,blue,I
182.0,3.0,2.0,0.0,1.0,1.0,571.5337966030347,2.0,1.0,phase_1,,,,,,,,,,,,,cyan,hexagon
401.0,4.0,4.0,0.0,3.0,3.0,412.6338123132882,2.0,1.0,phase_1,,,,,,,,,,,,,green,circle
91.0,6.0,1.0,1.0,3.0,3.0,391.0837996263581,2.0,1.0,phase_1,,,,,,,,,,,,,yellow,diamond
40.0,5.0,0.5,1.0,1.0,1.0,481.6267586247704,2.0,1.0,phase_1,,,,,,,,,,,,,orange,cross
180.0,3.0,2.0,0.0,4.0,4.0,381.2690746271983,2.0,1.0,phase_1,,,,,,,,,,,,,cyan,hexagon
47.0,1.0,0.5,0.0,3.0,3.0,326.7561492575623,2.0,1.0,phase_1,,,,,,,,,,,,,magenta,square
204.0,3.0,2.0,0.0,4.0,4.0,383.2470309389464,2.0,1.0,phase_1,,,,,,,,,,,,,cyan,hexagon
0.0,4.0,0.0,0.0,3.0,3.0,719.9402979422302,2.0,1.0,phase_1,,,,,,,,,,,,,green,circle
409.0,4.0,4.0,0.0,3.0,3.0,349.578422941704,2.0,1.0,phase_1,,,,,,,,,,,,,green,circle
395.0,4.0,4.0,0.0,4.0,4.0,361.9534039680729,2.0,1.0,phase_1,,,,,,,,,,,,,green,circle
202.0,3.0,2.0,0.0,2.0,2.0,350.8285955977044,2.0,1.0,phase_1,,,,,,,,,,,,,cyan,hexagon
412.0,8.0,4.0,1.0,2.0,2.0,306.1838789399189,2.0,1.0,phase_1,,,,,,,,,,,,,white,triangle
193.0,7.0,2.0,1.0,3.0,3.0,341.0738956554269,2.0,1.0,phase_1,,,,,,,,,,,,,gray,flipped triangle
175.0,3.0,2.0,0.0,3.0,3.0,374.4693670014385,2.0,1.0,phase_1,,,,,,,,,,,,,cyan,hexagon
410.0,8.0,4.0,1.0,2.0,2.0,410.0516662547306,2.0,2.0,phase_1,,,,,,,,,,,,,white,triangle
204.0,7.0,2.0,1.0,2.0,2.0,479.569016941241,2.0,1.0,phase_1,,,,,,,,,,,,,gray,flipped triangle
403.0,4.0,4.0,0.0,3.0,3.0,388.6467576012364,2.0,1.0,phase_1,,,,,,,,,,,,,green,circle
179.0,3.0,2.0,0.0,1.0,1.0,525.4962283142959,2.0,1.0,phase_1,,,,,,,,,,,,,cyan,hexagon
0.0,1.0,0.0,0.0,3.0,3.0,502.91807096800767,2.0,1.0,phase_1,,,,,,,,,,,,,magenta,square
0.0,3.0,0.0,0.0,1.0,1.0,446.5664689414552,2.0,1.0,phase_1,,,,,,,,,,,,,cyan,hexagon
187.0,7.0,2.0,1.0,2.0,2.0,402.2751096235879,2.0,1.0,phase_1,,,,,,,,,,,,,gray,flipped triangle
0.0,5.0,0.0,1.0,4.0,4.0,380.0224105980305,2.0,1.0,phase_1,,,,,,,,,,,,,orange,cross
68.0,5.0,0.5,1.0,4.0,4.0,515.2028122829506,2.0,1.0,phase_1,,,,,,,,,,,,,orange,cross
30.0,1.0,0.5,0.0,2.0,2.0,369.953589655779,2.0,1.0,phase_1,,,,,,,,,,,,,magenta,square
212.0,7.0,2.0,1.0,1.0,1.0,517.6476799679222,2.0,1.0,phase_1,,,,,,,,,,,,,gray,flipped triangle
401.0,8.0,4.0,1.0,2.0,2.0,416.4611402557057,2.0,1.0,phase_1,,,,,,,,,,,,,white,triangle
82.0,6.0,1.0,1.0,3.0,3.0,349.1904539696406,2.0,1.0,phase_1,,,,,,,,,,,,,yellow,diamond
32.0,5.0,0.5,1.0,1.0,1.0,405.3043776548293,2.0,1.0,phase_1,,,,,,,,,,,,,orange,cross
195.0,3.0,2.0,0.0,1.0,1.0,496.1737133162387,2.0,1.0,phase_1,,,,,,,,,,,,,cyan,hexagon
70.0,1.0,0.5,0.0,2.0,2.0,440.592447968811,2.0,1.0,phase_1,,,,,,,,,,,,,magenta,square
97.0,2.0,1.0,0.0,2.0,2.0,385.562385970843,2.0,1.0,phase_1,,,,,,,,,,,,,blue,I
67.0,1.0,0.5,0.0,3.0,3.0,429.4523279386339,2.0,1.0,phase_1,,,,,,,,,,,,,magenta,square
0.0,8.0,0.0,1.0,3.0,3.0,351.2889155972516,2.0,1.0,phase_1,,,,,,,,,,,,,white,triangle
382.0,4.0,4.0,0.0,2.0,2.0,364.3092515994794,2.0,1.0,phase_1,,,,,,,,,,,,,green,circle
185.0,3.0,2.0,0.0,2.0,2.0,365.8428066009946,2.0,1.0,phase_1,,,,,,,,,,,,,cyan,hexagon
125.0,6.0,1.0,1.0,1.0,1.0,454.459546966973,2.0,1.0,phase_1,,,,,,,,,,,,,yellow,diamond
0.0,7.0,0.0,1.0,4.0,4.0,545.4640259995358,2.0,1.0,phase_1,,,,,,,,,,,,,gray,flipped triangle
0.0,1.0,0.0,0.0,4.0,4.0,444.4492029724642,2.0,1.0,phase_1,,,,,,,,,,,,,magenta,square
76.0,2.0,1.0,0.0,4.0,4.0,378.422192625294,2.0,1.0,phase_1,,,,,,,,,,,,,blue,I
0.0,4.0,0.0,0.0,3.0,3.0,366.9255379681999,2.0,1.0,phase_1,,,,,,,,,,,,,green,circle
116.0,6.0,1.0,1.0,2.0,2.0,312.670598654222,2.0,1.0,phase_1,,,,,,,,,,,,,yellow,diamond
212.0,7.0,2.0,1.0,3.0,3.0,312.3783362862014,2.0,1.0,phase_1,,,,,,,,,,,,,gray,flipped triangle
224.0,3.0,2.0,0.0,1.0,1.0,381.7063183159916,2.0,1.0,phase_1,,,,,,,,,,,,,cyan,hexagon
52.0,1.0,0.5,0.0,4.0,4.0,392.3106806250871,2.0,1.0,phase_1,,,,,,,,,,,,,magenta,square
193.0,3.0,2.0,0.0,3.0,3.0,393.2111739995889,2.0,1.0,phase_1,,,,,,,,,,,,,cyan,hexagon
0.0,6.0,0.0,1.0,1.0,1.0,336.6466060324455,2.0,1.0,phase_1,,,,,,,,,,,,,yellow,diamond
0.0,6.0,0.0,1.0,1.0,1.0,393.7692836007045,2.0,1.0,phase_1,,,,,,,,,,,,,yellow,diamond
120.0,2.0,1.0,0.0,2.0,2.0,305.6912459433079,2.0,1.0,phase_1,,,,,,,,,,,,,blue,I
0.0,2.0,0.0,0.0,2.0,2.0,405.8042749711603,2.0,1.0,phase_1,,,,,,,,,,,,,blue,I
421.0,8.0,4.0,1.0,3.0,3.0,373.8197573147772,2.0,1.0,phase_1,,,,,,,,,,,,,white,triangle
189.0,3.0,2.0,0.0,2.0,2.0,307.5410969722725,2.0,1.0,phase_1,,,,,,,,,,,,,cyan,hexagon
61.0,5.0,0.5,1.0,3.0,3.0,374.6010193426627,2.0,1.0,phase_1,,,,,,,,,,,,,orange,cross
51.0,5.0,0.5,1.0,4.0,4.0,330.3506733136601,2.0,1.0,phase_1,,,,,,,,,,,,,orange,cross
83.0,6.0,1.0,1.0,1.0,1.0,297.3485366565001,2.0,1.0,phase_1,,,,,,,,,,,,,yellow,diamond
73.0,1.0,0.5,0.0,4.0,4.0,352.5512025989883,2.0,1.0,phase_1,,,,,,,,,,,,,magenta,square
69.0,1.0,0.5,0.0,1.0,1.0,310.0053259986453,2.0,1.0,phase_1,,,,,,,,,,,,,magenta,square
180.0,7.0,2.0,1.0,4.0,4.0,355.3041239392769,2.0,1.0,phase_1,,,,,,,,,,,,,gray,flipped triangle
30.0,5.0,0.5,1.0,1.0,1.0,298.3977930016408,2.0,1.0,phase_1,,,,,,,,,,,,,orange,cross
0.0,7.0,0.0,1.0,3.0,3.0,400.0488879719341,2.0,1.0,phase_1,,,,,,,,,,,,,gray,flipped triangle
392.0,4.0,4.0,0.0,4.0,4.0,626.0084142850246,2.0,1.0,phase_1,,,,,,,,,,,,,green,circle
83.0,6.0,1.0,1.0,3.0,3.0,401.3838106257026,2.0,1.0,phase_1,,,,,,,,,,,,,yellow,diamond
125.0,2.0,1.0,0.0,1.0,1.0,403.2324646541383,2.0,1.0,phase_1,,,,,,,,,,,,,blue,I
392.0,8.0,4.0,1.0,4.0,4.0,369.9628662543546,2.0,1.0,phase_1,,,,,,,,,,,,,white,triangle
423.0,8.0,4.0,1.0,4.0,4.0,357.5932773164822,2.0,1.0,phase_1,,,,,,,,,,,,,white,triangle
98.0,6.0,1.0,1.0,4.0,4.0,346.3033233128954,2.0,1.0,phase_1,,,,,,,,,,,,,yellow,diamond
120.0,6.0,1.0,1.0,1.0,1.0,483.8323479380051,2.0,1.0,phase_1,,,,,,,,,,,,,yellow,diamond
43.0,5.0,0.5,1.0,2.0,2.0,404.3049492829595,2.0,1.0,phase_1,,,,,,,,,,,,,orange,cross
67.0,5.0,0.5,1.0,2.0,2.0,360.1755489398783,2.0,1.0,phase_1,,,,,,,,,,,,,orange,cross
102.0,6.0,1.0,1.0,3.0,3.0,315.8955976577999,2.0,1.0,phase_1,,,,,,,,,,,,,yellow,diamond
0.0,1.0,0.0,0.0,3.0,3.0,361.3038492840132,2.0,1.0,phase_1,,,,,,,,,,,,,magenta,square
0.0,8.0,0.0,1.0,1.0,1.0,451.4884519703628,2.0,1.0,phase_1,,,,,,,,,,,,,white,triangle
421.0,4.0,4.0,0.0,4.0,4.0,363.6513242854562,2.0,1.0,phase_1,,,,,,,,,,,,,green,circle
68.0,5.0,0.5,1.0,3.0,3.0,362.6764992841345,2.0,1.0,phase_1,,,,,,,,,,,,,orange,cross
116.0,2.0,1.0,0.0,3.0,3.0,420.6140026253706,2.0,1.0,phase_1,,,,,,,,,,,,,blue,I
218.0,7.0,2.0,1.0,3.0,3.0,374.1027419418969,2.0,1.0,phase_1,,,,,,,,,,,,,gray,flipped triangle
106.0,2.0,1.0,0.0,4.0,4.0,376.0132622846868,2.0,1.0,phase_1,,,,,,,,,,,,,blue,I
77.0,6.0,1.0,1.0,3.0,3.0,387.4614646265399,2.0,1.0,phase_1,,,,,,,,,,,,,yellow,diamond
195.0,7.0,2.0,1.0,3.0,3.0,441.2310379411792,3.0,1.0,phase_1,,,,,,,,,,,,,gray,flipped triangle
84.0,6.0,1.0,1.0,1.0,1.0,486.7587779408495,3.0,1.0,phase_1,,,,,,,,,,,,,yellow,diamond
394.0,4.0,4.0,0.0,4.0,4.0,351.6737042846216,3.0,1.0,phase_1,,,,,,,,,,,,,green,circle
103.0,2.0,1.0,0.0,2.0,2.0,352.7410299393523,3.0,1.0,phase_1,,,,,,,,,,,,,blue,I
421.0,8.0,4.0,1.0,2.0,2.0,375.2185519697377,3.0,1.0,phase_1,,,,,,,,,,,,,white,triangle
0.0,6.0,0.0,1.0,2.0,2.0,353.553786939301,3.0,1.0,phase_1,,,,,,,,,,,,,yellow,diamond
212.0,3.0,2.0,0.0,1.0,1.0,376.4027399411134,3.0,1.0,phase_1,,,,,,,,,,,,,cyan,hexagon
82.0,2.0,1.0,0.0,3.0,3.0,378.140747314319,3.0,1.0,phase_1,,,,,,,,,,,,,blue,I
27.0,5.0,0.5,1.0,2.0,2.0,321.0592292853107,3.0,1.0,phase_1,,,,,,,,,,,,,orange,cross
406.0,4.0,4.0,0.0,2.0,2.0,344.5705049380194,3.0,1.0,phase_1,,,,,,,,,,,,,green,circle
0.0,1.0,0.0,0.0,4.0,4.0,356.5018483132007,3.0,1.0,phase_1,,,,,,,,,,,,,magenta,square
84.0,2.0,1.0,0.0,2.0,2.0,324.1027289695921,3.0,1.0,phase_1,,,,,,,,,,,,,blue,I
0.0,7.0,0.0,1.0,1.0,1.0,426.1555363154912,3.0,1.0,phase_1,,,,,,,,,,,,,gray,flipped triangle
413.0,4.0,4.0,0.0,1.0,1.0,415.1646379687008,3.0,1.0,phase_1,,,,,,,,,,,,,green,circle
399.0,4.0,4.0,0.0,1.0,1.0,369.0227422521275,3.0,1.0,phase_1,,,,,,,,,,,,,green,circle
377.0,4.0,4.0,0.0,2.0,2.0,348.266689285083,3.0,1.0,phase_1,,,,,,,,,,,,,green,circle
397.0,4.0,4.0,0.0,3.0,3.0,335.8657999706338,3.0,1.0,phase_1,,,,,,,,,,,,,green,circle
386.0,8.0,4.0,1.0,3.0,3.0,381.671787599771,3.0,1.0,phase_1,,,,,,,,,,,,,white,triangle
223.0,3.0,2.0,0.0,4.0,4.0,428.7440712832904,3.0,1.0,phase_1,,,,,,,,,,,,,cyan,hexagon
179.0,3.0,2.0,0.0,4.0,4.0,360.8250712823064,3.0,1.0,phase_1,,,,,,,,,,,,,cyan,hexagon
36.0,5.0,0.5,1.0,4.0,4.0,384.459253938985,3.0,1.0,phase_1,,,,,,,,,,,,,orange,cross
101.0,2.0,1.0,0.0,4.0,4.0,374.5594009997148,3.0,1.0,phase_1,,,,,,,,,,,,,blue,I
111.0,2.0,1.0,0.0,1.0,1.0,418.7129359415849,3.0,1.0,phase_1,,,,,,,,,,,,,blue,I
80.0,2.0,1.0,0.0,4.0,4.0,351.8453919095918,3.0,1.0,phase_1,,,,,,,,,,,,,blue,I
110.0,2.0,1.0,0.0,2.0,2.0,351.9468519079964,3.0,1.0,phase_1,,,,,,,,,,,,,blue,I
0.0,4.0,0.0,0.0,3.0,3.0,409.7962796549836,3.0,1.0,phase_1,,,,,,,,,,,,,green,circle
401.0,4.0,4.0,0.0,2.0,2.0,386.8380569401779,3.0,1.0,phase_1,,,,,,,,,,,,,green,circle
212.0,7.0,2.0,1.0,2.0,2.0,387.74055362591747,3.0,1.0,phase_1,,,,,,,,,,,,,gray,flipped triangle
64.0,5.0,0.5,1.0,3.0,3.0,367.1137129094859,3.0,1.0,phase_1,,,,,,,,,,,,,orange,cross
109.0,6.0,1.0,1.0,2.0,2.0,323.1713099703484,3.0,1.0,phase_1,,,,,,,,,,,,,yellow,diamond
54.0,1.0,0.5,0.0,2.0,2.0,391.2762582840514,3.0,1.0,phase_1,,,,,,,,,,,,,magenta,square
43.0,1.0,0.5,0.0,2.0,2.0,312.895506969653,3.0,1.0,phase_1,,,,,,,,,,,,,magenta,square
0.0,7.0,0.0,1.0,1.0,1.0,389.9976749416964,3.0,1.0,phase_1,,,,,,,,,,,,,gray,flipped triangle
0.0,8.0,0.0,1.0,4.0,4.0,334.9223216282553,3.0,1.0,phase_1,,,,,,,,,,,,,white,triangle
0.0,2.0,0.0,0.0,4.0,4.0,392.4672483153699,3.0,1.0,phase_1,,,,,,,,,,,,,blue,I
0.0,3.0,0.0,0.0,3.0,3.0,380.0875059678219,3.0,1.0,phase_1,,,,,,,,,,,,,cyan,hexagon
0.0,4.0,0.0,0.0,3.0,3.0,370.6944576260866,3.0,1.0,phase_1,,,,,,,,,,,,,green,circle
412.0,4.0,4.0,0.0,2.0,2.0,404.8969893156027,3.0,1.0,phase_1,,,,,,,,,,,,,green,circle
62.0,5.0,0.5,1.0,4.0,4.0,384.5358656253665,3.0,1.0,phase_1,,,,,,,,,,,,,orange,cross
0.0,6.0,0.0,1.0,4.0,4.0,371.358563654212,3.0,1.0,phase_1,,,,,,,,,,,,,yellow,diamond
384.0,8.0,4.0,1.0,4.0,4.0,339.5081262533495,3.0,1.0,phase_1,,,,,,,,,,,,,white,triangle
0.0,1.0,0.0,0.0,4.0,4.0,327.8442666232877,3.0,1.0,phase_1,,,,,,,,,,,,,magenta,square
0.0,8.0,0.0,1.0,2.0,2.0,419.7301939711906,3.0,1.0,phase_1,,,,,,,,,,,,,white,triangle
27.0,5.0,0.5,1.0,3.0,3.0,374.0455635997932,3.0,1.0,phase_1,,,,,,,,,,,,,orange,cross
0.0,5.0,0.0,1.0,4.0,4.0,431.1139812562032,3.0,1.0,phase_1,,,,,,,,,,,,,orange,cross
43.0,5.0,0.5,1.0,2.0,2.0,432.741520970012,3.0,1.0,phase_1,,,,,,,,,,,,,orange,cross
196.0,7.0,2.0,1.0,4.0,4.0,319.6704186557326,3.0,1.0,phase_1,,,,,,,,,,,,,gray,flipped triangle
94.0,6.0,1.0,1.0,3.0,3.0,353.6141652548394,3.0,1.0,phase_1,,,,,,,,,,,,,yellow,diamond
0.0,3.0,0.0,0.0,4.0,4.0,446.2935203155211,3.0,1.0,phase_1,,,,,,,,,,,,,cyan,hexagon
74.0,1.0,0.5,0.0,3.0,3.0,423.5685086568992,3.0,1.0,phase_1,,,,,,,,,,,,,magenta,square
0.0,1.0,0.0,0.0,3.0,3.0,401.041296285257,3.0,1.0,phase_1,,,,,,,,,,,,,magenta,square
0.0,8.0,0.0,1.0,3.0,3.0,390.8221982819668,3.0,1.0,phase_1,,,,,,,,,,,,,white,triangle
185.0,7.0,2.0,1.0,2.0,2.0,402.6882039725024,3.0,1.0,phase_1,,,,,,,,,,,,,gray,flipped triangle
218.0,3.0,2.0,0.0,4.0,4.0,435.861813599331,3.0,1.0,phase_1,,,,,,,,,,,,,cyan,hexagon
196.0,7.0,2.0,1.0,1.0,1.0,527.8872979724838,3.0,1.0,phase_1,,,,,,,,,,,,,gray,flipped triangle
45.0,5.0,0.5,1.0,3.0,3.0,448.2881972871837,3.0,1.0,phase_1,,,,,,,,,,,,,orange,cross
390.0,8.0,4.0,1.0,3.0,3.0,438.0278329408611,3.0,1.0,phase_1,,,,,,,,,,,,,white,triangle
107.0,2.0,1.0,0.0,2.0,2.0,403.7587239399727,3.0,1.0,phase_1,,,,,,,,,,,,,blue,I
0.0,5.0,0.0,1.0,4.0,4.0,539.085278967832,3.0,1.0,phase_1,,,,,,,,,,,,,orange,cross
119.0,6.0,1.0,1.0,2.0,2.0,384.673562599346,3.0,1.0,phase_1,,,,,,,,,,,,,yellow,diamond
0.0,6.0,0.0,1.0,4.0,4.0,450.9822906256886,3.0,1.0,phase_1,,,,,,,,,,,,,yellow,diamond
0.0,7.0,0.0,1.0,4.0,4.0,428.5216963144194,3.0,1.0,phase_1,,,,,,,,,,,,,gray,flipped triangle
122.0,2.0,1.0,0.0,3.0,3.0,395.9224392856413,3.0,1.0,phase_1,,,,,,,,,,,,,blue,I
0.0,2.0,0.0,0.0,2.0,2.0,364.073730284872,3.0,1.0,phase_1,,,,,,,,,,,,,blue,I
381.0,8.0,4.0,1.0,4.0,4.0,396.3988302857615,3.0,1.0,phase_1,,,,,,,,,,,,,white,triangle
105.0,2.0,1.0,0.0,3.0,3.0,329.9089106258179,3.0,1.0,phase_1,,,,,,,,,,,,,blue,I
0.0,2.0,0.0,0.0,4.0,4.0,386.7458779386652,3.0,1.0,phase_1,,,,,,,,,,,,,blue,I
0.0,7.0,0.0,1.0,1.0,1.0,455.0551049105706,3.0,1.0,phase_1,,,,,,,,,,,,,gray,flipped triangle
422.0,4.0,4.0,0.0,4.0,4.0,410.7198596539092,3.0,1.0,phase_1,,,,,,,,,,,,,green,circle
202.0,3.0,2.0,0.0,1.0,1.0,410.7784956249816,3.0,1.0,phase_1,,,,,,,,,,,,,cyan,hexagon
401.0,4.0,4.0,0.0,1.0,1.0,491.7377359415695,3.0,1.0,phase_1,,,,,,,,,,,,,green,circle
106.0,6.0,1.0,1.0,2.0,2.0,411.611950257793,3.0,1.0,phase_1,,,,,,,,,,,,,yellow,diamond
410.0,4.0,4.0,0.0,4.0,4.0,445.5329579395766,3.0,1.0,phase_1,,,,,,,,,,,,,green,circle
220.0,7.0,2.0,1.0,1.0,1.0,401.7721283125866,3.0,1.0,phase_1,,,,,,,,,,,,,gray,flipped triangle
193.0,7.0,2.0,1.0,1.0,1.0,370.1950029389991,3.0,1.0,phase_1,,,,,,,,,,,,,gray,flipped triangle
212.0,3.0,2.0,0.0,2.0,2.0,335.7963463131455,3.0,1.0,phase_1,,,,,,,,,,,,,cyan,hexagon
101.0,6.0,1.0,1.0,2.0,2.0,381.4173096543527,3.0,1.0,phase_1,,,,,,,,,,,,,yellow,diamond
182.0,7.0,2.0,1.0,2.0,2.0,313.9189329704095,3.0,1.0,phase_1,,,,,,,,,,,,,gray,flipped triangle
61.0,1.0,0.5,0.0,1.0,1.0,449.363863284816,3.0,1.0,phase_1,,,,,,,,,,,,,magenta,square
54.0,1.0,0.5,0.0,4.0,4.0,438.961712316086,3.0,1.0,phase_1,,,,,,,,,,,,,magenta,square
0.0,4.0,0.0,0.0,3.0,3.0,360.2962449695042,3.0,1.0,phase_1,,,,,,,,,,,,,green,circle
64.0,1.0,0.5,0.0,4.0,4.0,350.9124846568738,3.0,1.0,phase_1,,,,,,,,,,,,,magenta,square
59.0,5.0,0.5,1.0,1.0,1.0,362.7933166280854,3.0,1.0,phase_1,,,,,,,,,,,,,orange,cross
103.0,6.0,1.0,1.0,2.0,2.0,328.839834255632,3.0,1.0,phase_1,,,,,,,,,,,,,yellow,diamond
95.0,2.0,1.0,0.0,4.0,4.0,418.9412966261443,3.0,1.0,phase_1,,,,,,,,,,,,,blue,I
379.0,8.0,4.0,1.0,4.0,4.0,398.5499253140006,3.0,1.0,phase_1,,,,,,,,,,,,,white,triangle
80.0,6.0,1.0,1.0,4.0,4.0,352.8137235989561,3.0,1.0,phase_1,,,,,,,,,,,,,yellow,diamond
401.0,8.0,4.0,1.0,3.0,3.0,375.064862655563,3.0,1.0,phase_1,,,,,,,,,,,,,white,triangle
32.0,1.0,0.5,0.0,1.0,1.0,533.9679219687241,3.0,1.0,phase_1,,,,,,,,,,,,,magenta,square
381.0,4.0,4.0,0.0,1.0,1.0,546.0577102821844,3.0,1.0,phase_1,,,,,,,,,,,,,green,circle
0.0,1.0,0.0,0.0,1.0,1.0,501.6639262539684,3.0,1.0,phase_1,,,,,,,,,,,,,magenta,square
215.0,3.0,2.0,0.0,1.0,1.0,378.4517902568041,3.0,1.0,phase_1,,,,,,,,,,,,,cyan,hexagon
0.0,5.0,0.0,1.0,3.0,3.0,491.2876609414525,3.0,1.0,phase_1,,,,,,,,,,,,,orange,cross
212.0,7.0,2.0,1.0,4.0,4.0,368.9348346561019,3.0,1.0,phase_1,,,,,,,,,,,,,gray,flipped triangle
0.0,5.0,0.0,1.0,1.0,1.0,402.0298989707953,3.0,1.0,phase_1,,,,,,,,,,,,,orange,cross
91.0,2.0,1.0,0.0,1.0,1.0,573.1602219384513,3.0,1.0,phase_1,,,,,,,,,,,,,blue,I
105.0,6.0,1.0,1.0,3.0,3.0,413.5753123155155,3.0,1.0,phase_1,,,,,,,,,,,,,yellow,diamond
52.0,5.0,0.5,1.0,1.0,1.0,461.1235299998952,3.0,1.0,phase_1,,,,,,,,,,,,,orange,cross
77.0,2.0,1.0,0.0,2.0,2.0,370.4805299712461,3.0,1.0,phase_1,,,,,,,,,,,,,blue,I
98.0,2.0,1.0,0.0,3.0,3.0,348.2123109679378,3.0,1.0,phase_1,,,,,,,,,,,,,blue,I
88.0,2.0,1.0,0.0,3.0,3.0,611.254461655335,4.0,1.0,phase_1,,,,,,,,,,,,,blue,I
71.0,5.0,0.5,1.0,1.0,1.0,445.6498482868483,4.0,1.0,phase_1,,,,,,,,,,,,,orange,cross
70.0,5.0,0.5,1.0,3.0,3.0,344.0783489713794,4.0,1.0,phase_1,,,,,,,,,,,,,orange,cross
180.0,7.0,2.0,1.0,3.0,3.0,423.382341316028,4.0,1.0,phase_1,,,,,,,,,,,,,gray,flipped triangle
180.0,3.0,2.0,0.0,3.0,3.0,422.2347255999921,4.0,1.0,phase_1,,,,,,,,,,,,,cyan,hexagon
202.0,7.0,2.0,1.0,3.0,3.0,366.9155159404909,4.0,1.0,phase_1,,,,,,,,,,,,,gray,flipped triangle
111.0,2.0,1.0,0.0,1.0,1.0,356.7976532540342,4.0,1.0,phase_1,,,,,,,,,,,,,blue,I
0.0,2.0,0.0,0.0,1.0,1.0,392.8607025991368,4.0,1.0,phase_1,,,,,,,,,,,,,blue,I
209.0,3.0,2.0,0.0,3.0,3.0,335.4414649693353,4.0,1.0,phase_1,,,,,,,,,,,,,cyan,hexagon
0.0,7.0,0.0,1.0,4.0,4.0,414.8096763165085,4.0,1.0,phase_1,,,,,,,,,,,,,gray,flipped triangle
28.0,5.0,0.5,1.0,2.0,2.0,349.2788415969698,4.0,1.0,phase_1,,,,,,,,,,,,,orange,cross
0.0,3.0,0.0,0.0,2.0,2.0,348.4025733159797,4.0,1.0,phase_1,,,,,,,,,,,,,cyan,hexagon
201.0,3.0,2.0,0.0,1.0,1.0,417.9659442852426,4.0,1.0,phase_1,,,,,,,,,,,,,cyan,hexagon
394.0,8.0,4.0,1.0,3.0,3.0,281.2847109707945,4.0,1.0,phase_1,,,,,,,,,,,,,white,triangle
39.0,1.0,0.5,0.0,3.0,3.0,384.8855549404106,4.0,1.0,phase_1,,,,,,,,,,,,,magenta,square
386.0,8.0,4.0,1.0,2.0,2.0,372.8267493133899,4.0,1.0,phase_1,,,,,,,,,,,,,white,triangle
203.0,3.0,2.0,0.0,2.0,2.0,351.1783165995439,4.0,1.0,phase_1,,,,,,,,,,,,,cyan,hexagon
0.0,8.0,0.0,1.0,1.0,1.0,409.3195732857566,4.0,1.0,phase_1,,,,,,,,,,,,,white,triangle
409.0,8.0,4.0,1.0,1.0,1.0,408.7158099391672,4.0,1.0,phase_1,,,,,,,,,,,,,white,triangle
0.0,1.0,0.0,0.0,4.0,4.0,431.8245349095377,4.0,1.0,phase_1,,,,,,,,,,,,,magenta,square
94.0,2.0,1.0,0.0,3.0,3.0,353.8037059406633,4.0,1.0,phase_1,,,,,,,,,,,,,blue,I
0.0,3.0,0.0,0.0,3.0,3.0,320.4987979697762,4.0,1.0,phase_1,,,,,,,,,,,,,cyan,hexagon
392.0,8.0,4.0,1.0,1.0,1.0,411.6624335983943,4.0,1.0,phase_1,,,,,,,,,,,,,white,triangle
0.0,8.0,0.0,1.0,1.0,1.0,445.7110722541983,4.0,1.0,phase_1,,,,,,,,,,,,,white,triangle
0.0,1.0,0.0,0.0,1.0,1.0,388.743679941399,4.0,1.0,phase_1,,,,,,,,,,,,,magenta,square
122.0,6.0,1.0,1.0,1.0,1.0,379.3072233129351,4.0,1.0,phase_1,,,,,,,,,,,,,yellow,diamond
0.0,5.0,0.0,1.0,3.0,3.0,344.4141639702138,4.0,1.0,phase_1,,,,,,,,,,,,,orange,cross
0.0,6.0,0.0,1.0,1.0,1.0,345.7802289703977,4.0,1.0,phase_1,,,,,,,,,,,,,yellow,diamond
97.0,6.0,1.0,1.0,4.0,4.0,345.4660989700642,4.0,1.0,phase_1,,,,,,,,,,,,,yellow,diamond
107.0,6.0,1.0,1.0,1.0,1.0,391.4548309403471,4.0,1.0,phase_1,,,,,,,,,,,,,yellow,diamond
380.0,4.0,4.0,0.0,1.0,1.0,450.1226222528203,4.0,1.0,phase_1,,,,,,,,,,,,,green,circle
175.0,7.0,2.0,1.0,4.0,4.0,461.2206799392879,4.0,1.0,phase_1,,,,,,,,,,,,,gray,flipped triangle
62.0,1.0,0.5,0.0,3.0,3.0,393.9258899372362,4.0,1.0,phase_1,,,,,,,,,,,,,magenta,square
82.0,2.0,1.0,0.0,1.0,1.0,429.0706559731916,4.0,1.0,phase_1,,,,,,,,,,,,,blue,I
114.0,6.0,1.0,1.0,4.0,4.0,416.4184216242574,4.0,1.0,phase_1,,,,,,,,,,,,,yellow,diamond
111.0,6.0,1.0,1.0,2.0,2.0,394.5893972850172,4.0,1.0,phase_1,,,,,,,,,,,,,yellow,diamond
37.0,5.0,0.5,1.0,3.0,3.0,351.1493506266561,4.0,1.0,phase_1,,,,,,,,,,,,,orange,cross
406.0,8.0,4.0,1.0,1.0,1.0,454.2409850000695,4.0,1.0,phase_1,,,,,,,,,,,,,white,triangle
379.0,4.0,4.0,0.0,3.0,3.0,407.8888346557505,4.0,1.0,phase_1,,,,,,,,,,,,,green,circle
379.0,4.0,4.0,0.0,2.0,2.0,386.7753696249565,4.0,1.0,phase_1,,,,,,,,,,,,,green,circle
216.0,7.0,2.0,1.0,4.0,4.0,420.1598023173574,4.0,1.0,phase_1,,,,,,,,,,,,,gray,flipped triangle
77.0,2.0,1.0,0.0,1.0,1.0,499.771848655655,4.0,1.0,phase_1,,,,,,,,,,,,,blue,I
379.0,8.0,4.0,1.0,2.0,2.0,512.8163996268995,4.0,1.0,phase_1,,,,,,,,,,,,,white,triangle
0.0,2.0,0.0,0.0,4.0,4.0,468.3856389419816,4.0,1.0,phase_1,,,,,,,,,,,,,blue,I
389.0,4.0,4.0,0.0,3.0,3.0,344.2443936546624,4.0,1.0,phase_1,,,,,,,,,,,,,green,circle
411.0,8.0,4.0,1.0,4.0,4.0,356.0769309406169,4.0,1.0,phase_1,,,,,,,,,,,,,white,triangle
209.0,7.0,2.0,1.0,2.0,2.0,346.7546916253923,4.0,1.0,phase_1,,,,,,,,,,,,,gray,flipped triangle
86.0,2.0,1.0,0.0,3.0,3.0,323.2077249704161,4.0,1.0,phase_1,,,,,,,,,,,,,blue,I
183.0,3.0,2.0,0.0,3.0,3.0,368.9351676002843,4.0,1.0,phase_1,,,,,,,,,,,,,cyan,hexagon
180.0,3.0,2.0,0.0,3.0,3.0,392.6208536540798,4.0,1.0,phase_1,,,,,,,,,,,,,cyan,hexagon
77.0,6.0,1.0,1.0,1.0,1.0,381.2458656539093,4.0,1.0,phase_1,,,,,,,,,,,,,yellow,diamond
55.0,5.0,0.5,1.0,1.0,1.0,359.2813626564748,4.0,1.0,phase_1,,,,,,,,,,,,,orange,cross
411.0,4.0,4.0,0.0,4.0,4.0,415.7909599707636,4.0,1.0,phase_1,,,,,,,,,,,,,green,circle
27.0,1.0,0.5,0.0,4.0,4.0,370.9949236254033,4.0,1.0,phase_1,,,,,,,,,,,,,magenta,square
73.0,5.0,0.5,1.0,3.0,3.0,326.717501910025,4.0,1.0,phase_1,,,,,,,,,,,,,orange,cross
422.0,8.0,4.0,1.0,4.0,4.0,360.6707196013303,4.0,1.0,phase_1,,,,,,,,,,,,,white,triangle
0.0,1.0,0.0,0.0,2.0,2.0,327.9064679118164,4.0,1.0,phase_1,,,,,,,,,,,,,magenta,square
419.0,4.0,4.0,0.0,1.0,1.0,363.1173842550197,4.0,1.0,phase_1,,,,,,,,,,,,,green,circle
0.0,3.0,0.0,0.0,4.0,4.0,352.289637656213,4.0,1.0,phase_1,,,,,,,,,,,,,cyan,hexagon
412.0,4.0,4.0,0.0,2.0,2.0,318.1439579384459,4.0,1.0,phase_1,,,,,,,,,,,,,green,circle
401.0,8.0,4.0,1.0,4.0,4.0,330.9881483146455,4.0,1.0,phase_1,,,,,,,,,,,,,white,triangle
397.0,8.0,4.0,1.0,4.0,4.0,353.6392452551808,4.0,1.0,phase_1,,,,,,,,,,,,,white,triangle
421.0,4.0,4.0,0.0,4.0,4.0,409.4659602524189,4.0,1.0,phase_1,,,,,,,,,,,,,green,circle
390.0,4.0,4.0,0.0,1.0,1.0,455.6838759417587,4.0,1.0,phase_1,,,,,,,,,,,,,green,circle
36.0,1.0,0.5,0.0,2.0,2.0,525.2163730292523,4.0,1.0,phase_1,,,,,,,,,,,,,magenta,square
215.0,7.0,2.0,1.0,2.0,2.0,422.5792393153824,4.0,1.0,phase_1,,,,,,,,,,,,,gray,flipped triangle
43.0,1.0,0.5,0.0,3.0,3.0,457.0107976287545,4.0,1.0,phase_1,,,,,,,,,,,,,magenta,square
195.0,7.0,2.0,1.0,1.0,1.0,470.1654579403111,4.0,1.0,phase_1,,,,,,,,,,,,,gray,flipped triangle
48.0,1.0,0.5,0.0,3.0,3.0,389.9597689705842,4.0,1.0,phase_1,,,,,,,,,,,,,magenta,square
202.0,7.0,2.0,1.0,3.0,3.0,403.6739432558534,4.0,1.0,phase_1,,,,,,,,,,,,,gray,flipped triangle
224.0,7.0,2.0,1.0,2.0,2.0,392.6300176026416,4.0,1.0,phase_1,,,,,,,,,,,,,gray,flipped triangle
0.0,8.0,0.0,1.0,4.0,4.0,549.3812819076993,4.0,1.0,phase_1,,,,,,,,,,,,,white,triangle
193.0,7.0,2.0,1.0,1.0,1.0,438.1545445976371,4.0,1.0,phase_1,,,,,,,,,,,,,gray,flipped triangle
0.0,5.0,0.0,1.0,2.0,2.0,438.6895576244569,4.0,1.0,phase_1,,,,,,,,,,,,,orange,cross
185.0,3.0,2.0,0.0,2.0,2.0,349.9189266585745,4.0,1.0,phase_1,,,,,,,,,,,,,cyan,hexagon
0.0,7.0,0.0,1.0,1.0,1.0,475.1461072555685,4.0,1.0,phase_1,,,,,,,,,,,,,gray,flipped triangle
82.0,6.0,1.0,1.0,4.0,4.0,452.307261286478,4.0,1.0,phase_1,,,,,,,,,,,,,yellow,diamond
401.0,8.0,4.0,1.0,1.0,1.0,419.0092502831248,4.0,1.0,phase_1,,,,,,,,,,,,,white,triangle
98.0,6.0,1.0,1.0,1.0,1.0,465.5426446261117,4.0,1.0,phase_1,,,,,,,,,,,,,yellow,diamond
48.0,1.0,0.5,0.0,4.0,4.0,386.800270909589,4.0,1.0,phase_1,,,,,,,,,,,,,magenta,square
98.0,2.0,1.0,0.0,4.0,4.0,363.5105443136126,4.0,1.0,phase_1,,,,,,,,,,,,,blue,I
225.0,3.0,2.0,0.0,1.0,1.0,455.19272157253,4.0,1.0,phase_1,,,,,,,,,,,,,cyan,hexagon
212.0,3.0,2.0,0.0,3.0,3.0,352.8586659085704,4.0,1.0,phase_1,,,,,,,,,,,,,cyan,hexagon
27.0,1.0,0.5,0.0,1.0,1.0,410.6589865987189,4.0,1.0,phase_1,,,,,,,,,,,,,magenta,square
399.0,8.0,4.0,1.0,3.0,3.0,455.9236010027234,4.0,1.0,phase_1,,,,,,,,,,,,,white,triangle
0.0,8.0,0.0,1.0,1.0,1.0,400.5300132848788,4.0,1.0,phase_1,,,,,,,,,,,,,white,triangle
88.0,6.0,1.0,1.0,3.0,3.0,333.0448216584045,4.0,1.0,phase_1,,,,,,,,,,,,,yellow,diamond
389.0,8.0,4.0,1.0,2.0,2.0,333.6835239715583,4.0,1.0,phase_1,,,,,,,,,,,,,white,triangle
68.0,1.0,0.5,0.0,1.0,1.0,615.9579626546474,4.0,1.0,phase_1,,,,,,,,,,,,,magenta,square
114.0,2.0,1.0,0.0,2.0,2.0,605.7503642550728,4.0,1.0,phase_1,,,,,,,,,,,,,blue,I
203.0,7.0,2.0,1.0,1.0,1.0,617.4615183153946,4.0,1.0,phase_1,,,,,,,,,,,,,gray,flipped triangle
55.0,5.0,0.5,1.0,1.0,1.0,517.5274276261916,4.0,1.0,phase_1,,,,,,,,,,,,,orange,cross
86.0,6.0,1.0,1.0,3.0,3.0,393.1474623132089,4.0,1.0,phase_1,,,,,,,,,,,,,yellow,diamond
102.0,2.0,1.0,0.0,1.0,1.0,371.0452806553803,4.0,1.0,phase_1,,,,,,,,,,,,,blue,I
413.0,8.0,4.0,1.0,1.0,1.0,361.4500035982928,4.0,1.0,phase_1,,,,,,,,,,,,,white,triangle
111.0,2.0,1.0,0.0,4.0,4.0,428.2176952547161,4.0,1.0,phase_1,,,,,,,,,,,,,blue,I
183.0,7.0,2.0,1.0,1.0,1.0,473.6354426240723,4.0,1.0,phase_1,,,,,,,,,,,,,gray,flipped triangle
0.0,4.0,0.0,0.0,4.0,4.0,476.0600863155559,4.0,1.0,phase_1,,,,,,,,,,,,,green,circle
377.0,8.0,4.0,1.0,2.0,2.0,363.2006729712884,4.0,1.0,phase_1,,,,,,,,,,,,,white,triangle
387.0,8.0,4.0,1.0,3.0,3.0,329.2491989705013,4.0,1.0,phase_1,,,,,,,,,,,,,white,triangle
0.0,4.0,4.0,0.0,5.0,5.0,442.1450269328488,1.0,1.0,phase_2,go,250.0,250.0,1.0,,,,,,,,,green,circle
0.0,3.0,2.0,0.0,5.0,5.0,633.3123152835469,1.0,1.0,phase_2,go,250.0,250.0,1.0,,,,,,,,,cyan,hexagon
0.0,1.0,0.5,0.0,6.0,6.0,565.7129302780959,1.0,1.0,phase_2,go,250.0,250.0,1.0,,,,,,,,,magenta,square
0.0,3.0,2.0,0.0,5.0,5.0,579.3229026567133,1.0,1.0,phase_2,go,250.0,250.0,1.0,,,,,,,,,cyan,hexagon
0.0,5.0,0.5,1.0,5.0,5.0,647.2049012481875,1.0,1.0,phase_2,stop,250.0,250.0,3.0,,,,,,,,,orange,cross
0.0,5.0,0.5,1.0,6.0,0.0,0.0,1.0,1.0,phase_2,stop,200.0,250.0,4.0,,,,,,,,,orange,cross
0.0,1.0,0.5,0.0,6.0,6.0,682.5599249677907,1.0,1.0,phase_2,go,200.0,300.0,1.0,,,,,,,,,magenta,square
0.0,7.0,2.0,1.0,6.0,0.0,0.0,1.0,1.0,phase_2,stop,200.0,300.0,4.0,,,,,,,,,gray,flipped triangle
0.0,4.0,4.0,0.0,6.0,6.0,729.0140823097317,1.0,1.0,phase_2,go,200.0,350.0,1.0,,,,,,,,,green,circle
0.0,2.0,1.0,0.0,6.0,6.0,785.1999459999206,1.0,1.0,phase_2,go,200.0,350.0,1.0,,,,,,,,,blue,I
0.0,6.0,1.0,1.0,6.0,0.0,0.0,1.0,1.0,phase_2,stop,200.0,350.0,4.0,,,,,,,,,yellow,diamond
0.0,6.0,1.0,1.0,5.0,0.0,0.0,1.0,1.0,phase_2,stop,200.0,400.0,4.0,,,,,,,,,yellow,diamond
0.0,7.0,2.0,1.0,5.0,0.0,0.0,1.0,1.0,phase_2,stop,250.0,400.0,4.0,,,,,,,,,gray,flipped triangle
0.0,1.0,0.5,0.0,6.0,6.0,553.3504126542539,1.0,1.0,phase_2,go,300.0,400.0,1.0,,,,,,,,,magenta,square
0.0,7.0,2.0,1.0,6.0,6.0,598.9431383095507,1.0,1.0,phase_2,stop,300.0,400.0,3.0,,,,,,,,,gray,flipped triangle
0.0,2.0,1.0,0.0,5.0,5.0,915.08060493652,1.0,1.0,phase_2,go,300.0,350.0,1.0,,,,,,,,,blue,I
0.0,4.0,4.0,0.0,5.0,5.0,748.0650293437066,1.0,1.0,phase_2,go,300.0,350.0,1.0,,,,,,,,,green,circle
0.0,7.0,2.0,1.0,5.0,0.0,0.0,1.0,1.0,phase_2,stop,300.0,350.0,4.0,,,,,,,,,gray,flipped triangle
0.0,4.0,4.0,0.0,6.0,6.0,748.332772313006,1.0,1.0,phase_2,go,350.0,350.0,1.0,,,,,,,,,green,circle
0.0,4.0,4.0,0.0,5.0,5.0,750.2415432791167,1.0,1.0,phase_2,go,350.0,350.0,1.0,,,,,,,,,green,circle
0.0,4.0,4.0,0.0,5.0,5.0,580.633643654437,1.0,1.0,phase_2,go,350.0,350.0,1.0,,,,,,,,,green,circle
0.0,6.0,1.0,1.0,5.0,0.0,0.0,1.0,1.0,phase_2,stop,350.0,350.0,4.0,,,,,,,,,yellow,diamond
0.0,4.0,4.0,0.0,5.0,5.0,593.3037562826939,1.0,1.0,phase_2,go,400.0,350.0,1.0,,,,,,,,,green,circle
0.0,8.0,4.0,1.0,6.0,0.0,0.0,1.0,1.0,phase_2,stop,400.0,350.0,4.0,,,,,,,,,white,triangle
0.0,1.0,0.5,0.0,6.0,6.0,764.460349935689,1.0,1.0,phase_2,go,400.0,400.0,1.0,,,,,,,,,magenta,square
0.0,8.0,4.0,1.0,5.0,5.0,922.1393439656822,1.0,1.0,phase_2,go,400.0,400.0,1.0,,,,,,,,,white,triangle
0.0,2.0,1.0,0.0,6.0,6.0,654.5475716266083,1.0,1.0,phase_2,go,400.0,400.0,1.0,,,,,,,,,blue,I
0.0,5.0,0.5,1.0,5.0,0.0,0.0,1.0,1.0,phase_2,stop,400.0,400.0,4.0,,,,,,,,,orange,cross
0.0,7.0,2.0,1.0,6.0,0.0,0.0,1.0,1.0,phase_2,stop,450.0,400.0,4.0,,,,,,,,,gray,flipped triangle
0.0,1.0,0.5,0.0,6.0,6.0,970.5281645910871,1.0,1.0,phase_2,go,450.0,450.0,1.0,,,,,,,,,magenta,square
0.0,8.0,4.0,1.0,6.0,0.0,0.0,1.0,1.0,phase_2,stop,450.0,450.0,4.0,,,,,,,,,white,triangle
0.0,3.0,2.0,0.0,5.0,5.0,1085.0028312815994,1.0,1.0,phase_2,go,450.0,500.0,1.0,,,,,,,,,cyan,hexagon
0.0,2.0,1.0,0.0,5.0,5.0,761.2656606579549,1.0,1.0,phase_2,go,450.0,500.0,1.0,,,,,,,,,blue,I
0.0,3.0,2.0,0.0,5.0,5.0,805.4384685929108,1.0,1.0,phase_2,go,450.0,500.0,1.0,,,,,,,,,cyan,hexagon
0.0,2.0,1.0,0.0,5.0,5.0,716.6716316569364,1.0,1.0,phase_2,go,450.0,500.0,1.0,,,,,,,,,blue,I
0.0,4.0,4.0,0.0,5.0,5.0,672.6217302493751,1.0,1.0,phase_2,go,450.0,500.0,1.0,,,,,,,,,green,circle
0.0,8.0,4.0,1.0,6.0,0.0,0.0,2.0,1.0,phase_2,stop,450.0,500.0,4.0,,,,,,,,,white,triangle
0.0,4.0,4.0,0.0,5.0,5.0,411.8262902811693,2.0,1.0,phase_2,go,450.0,550.0,1.0,,,,,,,,,green,circle
0.0,1.0,0.5,0.0,6.0,6.0,366.7430036584846,2.0,1.0,phase_2,go,450.0,550.0,1.0,,,,,,,,,magenta,square
0.0,1.0,0.5,0.0,6.0,6.0,536.1011476561544,2.0,1.0,phase_2,go,450.0,550.0,1.0,,,,,,,,,magenta,square
0.0,4.0,4.0,0.0,6.0,6.0,392.6930826601165,2.0,1.0,phase_2,go,450.0,550.0,1.0,,,,,,,,,green,circle
0.0,6.0,1.0,1.0,5.0,5.0,516.4584503436345,2.0,1.0,phase_2,stop,450.0,550.0,3.0,,,,,,,,,yellow,diamond
0.0,4.0,4.0,0.0,5.0,5.0,550.5074083121144,2.0,1.0,phase_2,go,400.0,550.0,1.0,,,,,,,,,green,circle
0.0,2.0,1.0,0.0,6.0,6.0,427.701768308907,2.0,1.0,phase_2,go,400.0,550.0,1.0,,,,,,,,,blue,I
0.0,2.0,1.0,0.0,6.0,6.0,541.123067967419,2.0,1.0,phase_2,go,400.0,550.0,1.0,,,,,,,,,blue,I
0.0,8.0,4.0,1.0,5.0,5.0,464.08121124841267,2.0,1.0,phase_2,go,400.0,550.0,1.0,,,,,,,,,white,triangle
0.0,2.0,1.0,0.0,5.0,5.0,577.6377746587968,2.0,1.0,phase_2,go,400.0,550.0,1.0,,,,,,,,,blue,I
0.0,5.0,0.5,1.0,5.0,5.0,396.7736536251323,2.0,1.0,phase_2,stop,400.0,550.0,3.0,,,,,,,,,orange,cross
0.0,3.0,2.0,0.0,6.0,6.0,590.3816182799346,2.0,1.0,phase_2,go,350.0,550.0,1.0,,,,,,,,,cyan,hexagon
0.0,6.0,1.0,1.0,5.0,5.0,634.8878309363499,2.0,1.0,phase_2,go,350.0,550.0,1.0,,,,,,,,,yellow,diamond
0.0,2.0,1.0,0.0,5.0,5.0,546.7398226246587,2.0,1.0,phase_2,go,350.0,550.0,1.0,,,,,,,,,blue,I
0.0,8.0,4.0,1.0,6.0,6.0,343.7455896601022,2.0,1.0,phase_2,go,350.0,550.0,1.0,,,,,,,,,white,triangle
0.0,3.0,2.0,0.0,5.0,5.0,580.4998330022499,2.0,1.0,phase_2,go,350.0,550.0,1.0,,,,,,,,,cyan,hexagon
0.0,6.0,1.0,1.0,5.0,5.0,392.3579326583422,2.0,1.0,phase_2,go,350.0,550.0,1.0,,,,,,,,,yellow,diamond
0.0,4.0,4.0,0.0,6.0,6.0,538.1529356563988,2.0,1.0,phase_2,go,350.0,550.0,1.0,,,,,,,,,green,circle
0.0,7.0,2.0,1.0,6.0,6.0,571.9583413410874,2.0,1.0,phase_2,stop,350.0,550.0,3.0,,,,,,,,,gray,flipped triangle
0.0,6.0,1.0,1.0,5.0,0.0,0.0,2.0,1.0,phase_2,stop,350.0,500.0,4.0,,,,,,,,,yellow,diamond
0.0,5.0,0.5,1.0,5.0,0.0,0.0,2.0,1.0,phase_2,stop,400.0,500.0,4.0,,,,,,,,,orange,cross
0.0,7.0,2.0,1.0,5.0,5.0,801.404265625024,2.0,1.0,phase_2,go,450.0,500.0,1.0,,,,,,,,,gray,flipped triangle
0.0,2.0,1.0,0.0,5.0,5.0,419.6859143448819,2.0,1.0,phase_2,go,450.0,500.0,1.0,,,,,,,,,blue,I
0.0,2.0,1.0,0.0,5.0,5.0,576.8665892792342,2.0,1.0,phase_2,go,450.0,500.0,1.0,,,,,,,,,blue,I
0.0,6.0,1.0,1.0,5.0,5.0,554.4337186584016,2.0,1.0,phase_2,go,450.0,500.0,1.0,,,,,,,,,yellow,diamond
0.0,7.0,2.0,1.0,6.0,0.0,0.0,2.0,1.0,phase_2,stop,450.0,500.0,4.0,,,,,,,,,gray,flipped triangle
0.0,3.0,2.0,0.0,5.0,5.0,703.8906382476853,2.0,1.0,phase_2,go,450.0,550.0,1.0,,,,,,,,,cyan,hexagon
0.0,1.0,0.5,0.0,6.0,6.0,636.1024893085414,2.0,1.0,phase_2,go,450.0,550.0,1.0,,,,,,,,,magenta,square
0.0,8.0,4.0,1.0,5.0,0.0,0.0,2.0,1.0,phase_2,stop,450.0,550.0,4.0,,,,,,,,,white,triangle
0.0,1.0,0.5,0.0,5.0,5.0,716.5807732781104,2.0,1.0,phase_2,go,500.0,550.0,1.0,,,,,,,,,magenta,square
0.0,1.0,0.5,0.0,6.0,6.0,696.373279686668,2.0,1.0,phase_2,go,500.0,550.0,1.0,,,,,,,,,magenta,square
0.0,7.0,2.0,1.0,5.0,5.0,357.6408569060731,2.0,1.0,phase_2,stop,500.0,550.0,3.0,,,,,,,,,gray,flipped triangle
0.0,7.0,2.0,1.0,6.0,0.0,0.0,2.0,1.0,phase_2,stop,450.0,550.0,4.0,,,,,,,,,gray,flipped triangle
0.0,4.0,4.0,0.0,6.0,6.0,641.1574706253305,2.0,1.0,phase_2,go,450.0,600.0,1.0,,,,,,,,,green,circle
0.0,6.0,1.0,1.0,6.0,0.0,0.0,2.0,1.0,phase_2,stop,450.0,600.0,4.0,,,,,,,,,yellow,diamond
0.0,5.0,0.5,1.0,6.0,0.0,0.0,3.0,1.0,phase_2,stop,450.0,650.0,4.0,,,,,,,,,orange,cross
0.0,8.0,4.0,1.0,5.0,5.0,591.8104602460517,3.0,1.0,phase_2,stop,450.0,700.0,3.0,,,,,,,,,white,triangle
0.0,7.0,2.0,1.0,5.0,5.0,930.0345252777332,3.0,1.0,phase_2,go,400.0,700.0,1.0,,,,,,,,,gray,flipped triangle
0.0,2.0,1.0,0.0,6.0,6.0,582.7237809353392,3.0,1.0,phase_2,go,400.0,700.0,1.0,,,,,,,,,blue,I
0.0,3.0,2.0,0.0,5.0,5.0,616.6100813097728,3.0,1.0,phase_2,go,400.0,700.0,1.0,,,,,,,,,cyan,hexagon
0.0,6.0,1.0,1.0,6.0,6.0,629.4231813117221,3.0,1.0,phase_2,go,400.0,700.0,1.0,,,,,,,,,yellow,diamond
0.0,3.0,2.0,0.0,5.0,5.0,787.3297879996244,3.0,1.0,phase_2,go,400.0,700.0,1.0,,,,,,,,,cyan,hexagon
0.0,5.0,0.5,1.0,6.0,6.0,450.3314756548207,3.0,1.0,phase_2,stop,400.0,700.0,3.0,,,,,,,,,orange,cross
0.0,6.0,1.0,1.0,6.0,6.0,659.258143248735,3.0,1.0,phase_2,stop,400.0,650.0,3.0,,,,,,,,,yellow,diamond
0.0,2.0,1.0,0.0,6.0,6.0,868.551014966215,3.0,1.0,phase_2,go,400.0,600.0,1.0,,,,,,,,,blue,I
0.0,4.0,4.0,0.0,5.0,5.0,780.1850539690349,3.0,1.0,phase_2,go,400.0,600.0,1.0,,,,,,,,,green,circle
0.0,5.0,0.5,1.0,5.0,0.0,0.0,3.0,1.0,phase_2,stop,400.0,600.0,4.0,,,,,,,,,orange,cross
0.0,3.0,2.0,0.0,6.0,6.0,827.7689063106664,3.0,1.0,phase_2,go,450.0,600.0,1.0,,,,,,,,,cyan,hexagon
0.0,6.0,1.0,1.0,6.0,6.0,692.3184369043156,3.0,1.0,phase_2,stop,450.0,600.0,3.0,,,,,,,,,yellow,diamond
0.0,6.0,1.0,1.0,6.0,0.0,0.0,3.0,1.0,phase_2,stop,450.0,550.0,4.0,,,,,,,,,yellow,diamond
0.0,2.0,1.0,0.0,6.0,6.0,963.0369903461542,3.0,1.0,phase_2,go,450.0,600.0,1.0,,,,,,,,,blue,I
0.0,8.0,4.0,1.0,6.0,0.0,0.0,3.0,1.0,phase_2,stop,450.0,600.0,4.0,,,,,,,,,white,triangle
0.0,6.0,1.0,1.0,6.0,6.0,683.7940129698836,3.0,1.0,phase_2,go,450.0,650.0,1.0,,,,,,,,,yellow,diamond
0.0,7.0,2.0,1.0,5.0,0.0,0.0,3.0,1.0,phase_2,stop,450.0,650.0,4.0,,,,,,,,,gray,flipped triangle
0.0,2.0,1.0,0.0,5.0,5.0,721.1223972808511,3.0,1.0,phase_2,go,500.0,650.0,1.0,,,,,,,,,blue,I
0.0,8.0,4.0,1.0,5.0,0.0,0.0,3.0,1.0,phase_2,stop,500.0,650.0,4.0,,,,,,,,,white,triangle
0.0,5.0,0.5,1.0,5.0,0.0,0.0,3.0,1.0,phase_2,stop,550.0,650.0,4.0,,,,,,,,,orange,cross
0.0,8.0,4.0,1.0,6.0,6.0,869.1149749683973,3.0,1.0,phase_2,go,600.0,650.0,1.0,,,,,,,,,white,triangle
0.0,2.0,1.0,0.0,5.0,5.0,858.872058281122,3.0,1.0,phase_2,go,600.0,650.0,1.0,,,,,,,,,blue,I
0.0,3.0,2.0,0.0,5.0,5.0,588.6291570022877,3.0,1.0,phase_2,go,600.0,650.0,1.0,,,,,,,,,cyan,hexagon
0.0,1.0,0.5,0.0,5.0,5.0,781.0986142831098,3.0,1.0,phase_2,go,600.0,650.0,1.0,,,,,,,,,magenta,square
0.0,3.0,2.0,0.0,5.0,5.0,769.7323869688262,3.0,1.0,phase_2,go,600.0,650.0,1.0,,,,,,,,,cyan,hexagon
0.0,6.0,1.0,1.0,6.0,6.0,365.9601199360622,3.0,1.0,phase_2,stop,600.0,650.0,3.0,,,,,,,,,yellow,diamond
0.0,3.0,2.0,0.0,6.0,6.0,907.0870242794626,3.0,1.0,phase_2,go,600.0,600.0,1.0,,,,,,,,,cyan,hexagon
0.0,2.0,1.0,0.0,5.0,5.0,920.5507323422352,3.0,1.0,phase_2,go,600.0,600.0,1.0,,,,,,,,,blue,I
0.0,2.0,1.0,0.0,5.0,5.0,999.6927536267322,3.0,1.0,phase_2,go,600.0,600.0,1.0,,,,,,,,,blue,I
0.0,2.0,1.0,0.0,6.0,6.0,797.8584862830758,3.0,1.0,phase_2,go,600.0,600.0,1.0,,,,,,,,,blue,I
0.0,4.0,4.0,0.0,5.0,5.0,808.5781602821953,3.0,1.0,phase_2,go,600.0,600.0,1.0,,,,,,,,,green,circle
0.0,4.0,4.0,0.0,5.0,5.0,799.9946156232909,3.0,1.0,phase_2,go,600.0,600.0,1.0,,,,,,,,,green,circle
0.0,5.0,0.5,1.0,6.0,0.0,0.0,3.0,1.0,phase_2,stop,600.0,600.0,4.0,,,,,,,,,orange,cross
0.0,7.0,2.0,1.0,6.0,0.0,0.0,3.0,1.0,phase_2,stop,600.0,650.0,4.0,,,,,,,,,gray,flipped triangle
0.0,3.0,2.0,0.0,6.0,0.0,0.0,4.0,1.0,phase_2,go,600.0,700.0,5.0,,,,,,,,,cyan,hexagon
0.0,8.0,4.0,1.0,5.0,0.0,0.0,4.0,1.0,phase_2,stop,600.0,700.0,4.0,,,,,,,,,white,triangle
0.0,3.0,2.0,0.0,5.0,5.0,675.6174963120429,4.0,1.0,phase_2,go,650.0,700.0,1.0,,,,,,,,,cyan,hexagon
0.0,7.0,2.0,1.0,5.0,5.0,675.057308308169,4.0,1.0,phase_2,stop,650.0,700.0,3.0,,,,,,,,,gray,flipped triangle
0.0,3.0,2.0,0.0,5.0,5.0,934.4180509979196,4.0,1.0,phase_2,go,600.0,700.0,1.0,,,,,,,,,cyan,hexagon
0.0,3.0,2.0,0.0,6.0,6.0,440.961354655883,4.0,1.0,phase_2,go,600.0,700.0,1.0,,,,,,,,,cyan,hexagon
0.0,4.0,4.0,0.0,5.0,5.0,621.7767546586401,4.0,1.0,phase_2,go,600.0,700.0,1.0,,,,,,,,,green,circle
0.0,5.0,0.5,1.0,5.0,5.0,533.7933635892114,4.0,1.0,phase_2,stop,600.0,700.0,3.0,,,,,,,,,orange,cross
0.0,6.0,1.0,1.0,5.0,5.0,623.8497876547626,4.0,1.0,phase_2,go,550.0,700.0,1.0,,,,,,,,,yellow,diamond
0.0,7.0,2.0,1.0,5.0,5.0,692.658767591638,4.0,1.0,phase_2,stop,550.0,700.0,3.0,,,,,,,,,gray,flipped triangle
0.0,1.0,0.5,0.0,6.0,6.0,671.297603934363,4.0,1.0,phase_2,go,500.0,700.0,1.0,,,,,,,,,magenta,square
0.0,6.0,1.0,1.0,6.0,6.0,625.5310499691404,4.0,1.0,phase_2,stop,500.0,700.0,3.0,,,,,,,,,yellow,diamond
0.0,5.0,0.5,1.0,5.0,5.0,323.760470309935,4.0,1.0,phase_2,stop,500.0,650.0,3.0,,,,,,,,,orange,cross
0.0,2.0,1.0,0.0,6.0,6.0,311.662415308092,4.0,1.0,phase_2,go,450.0,650.0,1.0,,,,,,,,,blue,I
0.0,1.0,0.5,0.0,5.0,5.0,785.0109315913869,4.0,1.0,phase_2,go,450.0,650.0,1.0,,,,,,,,,magenta,square
0.0,5.0,0.5,1.0,6.0,6.0,403.9573222507897,4.0,1.0,phase_2,stop,450.0,650.0,3.0,,,,,,,,,orange,cross
0.0,7.0,2.0,1.0,5.0,0.0,0.0,4.0,1.0,phase_2,stop,450.0,600.0,4.0,,,,,,,,,gray,flipped triangle
0.0,8.0,4.0,1.0,5.0,0.0,0.0,4.0,1.0,phase_2,stop,500.0,600.0,4.0,,,,,,,,,white,triangle
0.0,7.0,2.0,1.0,5.0,5.0,778.0669716557895,4.0,1.0,phase_2,go,550.0,600.0,1.0,,,,,,,,,gray,flipped triangle
0.0,8.0,4.0,1.0,5.0,5.0,407.2008543116681,4.0,1.0,phase_2,stop,550.0,600.0,3.0,,,,,,,,,white,triangle
0.0,3.0,2.0,0.0,6.0,6.0,285.5843069337425,4.0,1.0,phase_2,go,500.0,600.0,1.0,,,,,,,,,cyan,hexagon
0.0,3.0,2.0,0.0,6.0,6.0,520.8006106222456,4.0,1.0,phase_2,go,500.0,600.0,1.0,,,,,,,,,cyan,hexagon
0.0,4.0,4.0,0.0,6.0,6.0,422.6359469066665,4.0,1.0,phase_2,go,500.0,600.0,1.0,,,,,,,,,green,circle
0.0,8.0,4.0,1.0,5.0,5.0,591.8753876576375,4.0,1.0,phase_2,go,500.0,600.0,1.0,,,,,,,,,white,triangle
0.0,8.0,4.0,1.0,6.0,6.0,310.2617386248312,4.0,1.0,phase_2,stop,500.0,600.0,3.0,,,,,,,,,white,triangle
0.0,5.0,0.5,1.0,5.0,5.0,650.2197072804847,4.0,1.0,phase_2,go,500.0,550.0,1.0,,,,,,,,,orange,cross
0.0,2.0,1.0,0.0,6.0,6.0,593.3492753101746,4.0,1.0,phase_2,go,500.0,550.0,1.0,,,,,,,,,blue,I
0.0,3.0,2.0,0.0,5.0,5.0,729.1910846543033,4.0,1.0,phase_2,go,500.0,550.0,1.0,,,,,,,,,cyan,hexagon
0.0,1.0,0.5,0.0,5.0,5.0,605.5752562824637,4.0,1.0,phase_2,go,500.0,550.0,1.0,,,,,,,,,magenta,square
0.0,3.0,2.0,0.0,6.0,6.0,527.5489236264548,4.0,1.0,phase_2,go,500.0,550.0,1.0,,,,,,,,,cyan,hexagon
0.0,7.0,2.0,1.0,6.0,6.0,382.66165359164,4.0,1.0,phase_2,stop,500.0,550.0,3.0,,,,,,,,,gray,flipped triangle
0.0,7.0,2.0,1.0,6.0,6.0,677.5654862794909,4.0,1.0,phase_2,stop,500.0,500.0,3.0,,,,,,,,,gray,flipped triangle
0.0,5.0,0.5,1.0,5.0,5.0,632.996457592526,4.0,1.0,phase_2,stop,500.0,450.0,3.0,,,,,,,,,orange,cross
0.0,1.0,0.5,0.0,5.0,5.0,665.9522076224675,4.0,1.0,phase_2,go,450.0,450.0,1.0,,,,,,,,,magenta,square
0.0,8.0,4.0,1.0,5.0,0.0,0.0,4.0,1.0,phase_2,stop,450.0,450.0,4.0,,,,,,,,,white,triangle
0.0,4.0,4.0,0.0,6.0,6.0,746.6830795929127,4.0,1.0,phase_2,go,500.0,450.0,1.0,,,,,,,,,green,circle
0.0,7.0,2.0,1.0,6.0,0.0,0.0,5.0,1.0,phase_2,stop,500.0,450.0,4.0,,,,,,,,,gray,flipped triangle
0.0,2.0,1.0,0.0,6.0,6.0,609.931342623895,5.0,1.0,phase_2,go,500.0,500.0,1.0,,,,,,,,,blue,I
0.0,6.0,1.0,1.0,5.0,5.0,575.0868882787472,5.0,1.0,phase_2,go,500.0,500.0,1.0,,,,,,,,,yellow,diamond
0.0,1.0,0.5,0.0,5.0,5.0,498.0021249357378,5.0,1.0,phase_2,go,500.0,500.0,1.0,,,,,,,,,magenta,square
0.0,1.0,0.5,0.0,6.0,6.0,364.5303242810769,5.0,1.0,phase_2,go,500.0,500.0,1.0,,,,,,,,,magenta,square
0.0,3.0,2.0,0.0,6.0,6.0,353.1489396264078,5.0,1.0,phase_2,go,500.0,500.0,1.0,,,,,,,,,cyan,hexagon
0.0,3.0,2.0,0.0,6.0,6.0,344.081713930791,5.0,1.0,phase_2,go,500.0,500.0,1.0,,,,,,,,,cyan,hexagon
0.0,2.0,1.0,0.0,5.0,5.0,468.2340066574397,5.0,1.0,phase_2,go,500.0,500.0,1.0,,,,,,,,,blue,I
0.0,5.0,0.5,1.0,6.0,6.0,492.1523839657311,5.0,1.0,phase_2,stop,500.0,500.0,3.0,,,,,,,,,orange,cross
0.0,7.0,2.0,1.0,5.0,5.0,885.630000000674,5.0,1.0,phase_2,go,500.0,450.0,1.0,,,,,,,,,gray,flipped triangle
0.0,1.0,0.5,0.0,5.0,5.0,460.2453279330802,5.0,1.0,phase_2,go,500.0,450.0,1.0,,,,,,,,,magenta,square
0.0,6.0,1.0,1.0,5.0,5.0,403.5298976559716,5.0,1.0,phase_2,stop,500.0,450.0,3.0,,,,,,,,,yellow,diamond
0.0,1.0,0.5,0.0,5.0,5.0,573.691434936336,5.0,1.0,phase_2,go,450.0,450.0,1.0,,,,,,,,,magenta,square
0.0,8.0,4.0,1.0,6.0,6.0,406.0259145917371,5.0,1.0,phase_2,stop,450.0,450.0,3.0,,,,,,,,,white,triangle
0.0,7.0,2.0,1.0,5.0,5.0,507.0088946231408,5.0,1.0,phase_2,go,450.0,400.0,1.0,,,,,,,,,gray,flipped triangle
0.0,3.0,2.0,0.0,6.0,6.0,619.7998896568606,5.0,1.0,phase_2,go,450.0,400.0,1.0,,,,,,,,,cyan,hexagon
0.0,3.0,2.0,0.0,5.0,5.0,497.6129509668681,5.0,1.0,phase_2,go,450.0,400.0,1.0,,,,,,,,,cyan,hexagon
0.0,7.0,2.0,1.0,6.0,0.0,0.0,5.0,1.0,phase_2,stop,450.0,400.0,4.0,,,,,,,,,gray,flipped triangle
0.0,4.0,4.0,0.0,6.0,6.0,656.3051869670744,5.0,1.0,phase_2,go,450.0,450.0,1.0,,,,,,,,,green,circle
0.0,5.0,0.5,1.0,5.0,0.0,0.0,5.0,1.0,phase_2,stop,450.0,450.0,4.0,,,,,,,,,orange,cross
0.0,2.0,1.0,0.0,5.0,5.0,534.9235149660672,5.0,1.0,phase_2,go,500.0,450.0,1.0,,,,,,,,,blue,I
0.0,8.0,4.0,1.0,6.0,6.0,332.6993202790618,5.0,1.0,phase_2,stop,500.0,450.0,3.0,,,,,,,,,white,triangle
0.0,3.0,2.0,0.0,6.0,6.0,705.0801869700081,5.0,1.0,phase_2,go,500.0,400.0,1.0,,,,,,,,,cyan,hexagon
0.0,2.0,1.0,0.0,5.0,5.0,469.0709803107893,5.0,1.0,phase_2,go,500.0,400.0,1.0,,,,,,,,,blue,I
0.0,1.0,0.5,0.0,5.0,5.0,527.8599479352124,5.0,1.0,phase_2,go,500.0,400.0,1.0,,,,,,,,,magenta,square
0.0,1.0,0.5,0.0,6.0,6.0,360.1044825918507,5.0,1.0,phase_2,go,500.0,400.0,1.0,,,,,,,,,magenta,square
0.0,5.0,0.5,1.0,5.0,5.0,370.9330866549862,5.0,1.0,phase_2,stop,500.0,400.0,3.0,,,,,,,,,orange,cross
0.0,8.0,4.0,1.0,6.0,6.0,597.3005452797224,5.0,1.0,phase_2,go,450.0,400.0,1.0,,,,,,,,,white,triangle
0.0,6.0,1.0,1.0,6.0,6.0,416.6280686258687,5.0,1.0,phase_2,stop,450.0,400.0,3.0,,,,,,,,,yellow,diamond
0.0,3.0,2.0,0.0,5.0,5.0,622.138581591571,5.0,1.0,phase_2,go,450.0,350.0,1.0,,,,,,,,,cyan,hexagon
0.0,6.0,1.0,1.0,5.0,0.0,0.0,5.0,1.0,phase_2,stop,450.0,350.0,4.0,,,,,,,,,yellow,diamond
0.0,6.0,1.0,1.0,6.0,6.0,488.9117852799245,5.0,1.0,phase_2,stop,500.0,350.0,3.0,,,,,,,,,yellow,diamond
0.0,5.0,0.5,1.0,6.0,6.0,555.8756909340445,5.0,1.0,phase_2,go,500.0,300.0,1.0,,,,,,,,,orange,cross
0.0,4.0,4.0,0.0,6.0,6.0,613.011432622443,5.0,1.0,phase_2,go,500.0,300.0,1.0,,,,,,,,,green,circle
0.0,6.0,1.0,1.0,5.0,5.0,399.9856646551052,5.0,1.0,phase_2,go,500.0,300.0,1.0,,,,,,,,,yellow,diamond
0.0,1.0,0.5,0.0,5.0,5.0,435.834599968075,5.0,1.0,phase_2,go,500.0,300.0,1.0,,,,,,,,,magenta,square
0.0,8.0,4.0,1.0,6.0,0.0,0.0,6.0,1.0,phase_2,stop,500.0,300.0,4.0,,,,,,,,,white,triangle
0.0,1.0,0.5,0.0,5.0,5.0,367.1109252827591,6.0,1.0,phase_2,go,500.0,350.0,1.0,,,,,,,,,magenta,square
0.0,3.0,2.0,0.0,5.0,5.0,594.2838506271073,6.0,1.0,phase_2,go,500.0,350.0,1.0,,,,,,,,,cyan,hexagon
0.0,5.0,0.5,1.0,5.0,5.0,638.75658759207,6.0,1.0,phase_2,stop,500.0,350.0,3.0,,,,,,,,,orange,cross
0.0,4.0,4.0,0.0,6.0,6.0,380.7882399341906,6.0,1.0,phase_2,go,450.0,350.0,1.0,,,,,,,,,green,circle
0.0,3.0,2.0,0.0,6.0,6.0,561.192612247396,6.0,1.0,phase_2,go,450.0,350.0,1.0,,,,,,,,,cyan,hexagon
0.0,3.0,2.0,0.0,6.0,6.0,382.7805946566514,6.0,1.0,phase_2,go,450.0,350.0,1.0,,,,,,,,,cyan,hexagon
0.0,4.0,4.0,0.0,5.0,5.0,563.0058246242697,6.0,1.0,phase_2,go,450.0,350.0,1.0,,,,,,,,,green,circle
0.0,2.0,1.0,0.0,5.0,5.0,563.7314086234255,6.0,1.0,phase_2,go,450.0,350.0,1.0,,,,,,,,,blue,I
0.0,6.0,1.0,1.0,6.0,6.0,328.1572319319821,6.0,1.0,phase_2,stop,450.0,350.0,3.0,,,,,,,,,yellow,diamond
0.0,4.0,4.0,0.0,5.0,5.0,294.8889672807127,6.0,1.0,phase_2,go,450.0,300.0,1.0,,,,,,,,,green,circle
0.0,8.0,4.0,1.0,6.0,6.0,295.977789312019,6.0,1.0,phase_2,stop,450.0,300.0,3.0,,,,,,,,,white,triangle
0.0,8.0,4.0,1.0,5.0,5.0,512.2577773108787,6.0,1.0,phase_2,go,450.0,250.0,1.0,,,,,,,,,white,triangle
0.0,7.0,2.0,1.0,6.0,0.0,0.0,6.0,1.0,phase_2,stop,450.0,250.0,4.0,,,,,,,,,gray,flipped triangle
0.0,5.0,0.5,1.0,6.0,0.0,0.0,6.0,1.0,phase_2,stop,450.0,300.0,4.0,,,,,,,,,orange,cross
0.0,3.0,2.0,0.0,5.0,5.0,423.0030289691058,6.0,1.0,phase_2,go,450.0,350.0,1.0,,,,,,,,,cyan,hexagon
0.0,8.0,4.0,1.0,6.0,6.0,480.8917866575939,6.0,1.0,phase_2,go,450.0,350.0,1.0,,,,,,,,,white,triangle
0.0,6.0,1.0,1.0,6.0,6.0,424.5430516566557,6.0,1.0,phase_2,stop,450.0,350.0,3.0,,,,,,,,,yellow,diamond
0.0,6.0,1.0,1.0,5.0,5.0,515.9406009661325,6.0,1.0,phase_2,stop,450.0,300.0,3.0,,,,,,,,,yellow,diamond
0.0,4.0,4.0,0.0,6.0,6.0,313.7526713107945,6.0,1.0,phase_2,go,400.0,300.0,1.0,,,,,,,,,green,circle
0.0,8.0,4.0,1.0,5.0,5.0,428.6810299054195,6.0,1.0,phase_2,stop,400.0,300.0,3.0,,,,,,,,,white,triangle
0.0,6.0,1.0,1.0,5.0,0.0,0.0,6.0,1.0,phase_2,stop,350.0,300.0,4.0,,,,,,,,,yellow,diamond
0.0,8.0,4.0,1.0,5.0,5.0,486.117865624692,6.0,1.0,phase_2,stop,400.0,300.0,3.0,,,,,,,,,white,triangle
0.0,1.0,0.5,0.0,6.0,6.0,329.0948712819954,6.0,1.0,phase_2,go,350.0,300.0,1.0,,,,,,,,,magenta,square
0.0,7.0,2.0,1.0,5.0,5.0,690.4581313101517,6.0,1.0,phase_2,go,350.0,300.0,1.0,,,,,,,,,gray,flipped triangle
0.0,6.0,1.0,1.0,6.0,0.0,0.0,6.0,1.0,phase_2,stop,350.0,300.0,4.0,,,,,,,,,yellow,diamond
0.0,5.0,0.5,1.0,6.0,6.0,499.9810232802701,6.0,1.0,phase_2,go,350.0,350.0,1.0,,,,,,,,,orange,cross
0.0,7.0,2.0,1.0,6.0,0.0,0.0,6.0,1.0,phase_2,stop,350.0,350.0,4.0,,,,,,,,,gray,flipped triangle
0.0,4.0,4.0,0.0,6.0,6.0,569.4501975922321,6.0,1.0,phase_2,go,350.0,400.0,1.0,,,,,,,,,green,circle
0.0,3.0,2.0,0.0,6.0,6.0,581.277943594614,6.0,1.0,phase_2,go,350.0,400.0,1.0,,,,,,,,,cyan,hexagon
0.0,1.0,0.5,0.0,5.0,5.0,561.1070810009551,6.0,1.0,phase_2,go,350.0,400.0,1.0,,,,,,,,,magenta,square
0.0,7.0,2.0,1.0,6.0,6.0,458.6318312467483,6.0,1.0,phase_2,stop,350.0,400.0,3.0,,,,,,,,,gray,flipped triangle
0.0,7.0,2.0,1.0,6.0,6.0,483.2924022812221,6.0,1.0,phase_2,stop,350.0,350.0,3.0,,,,,,,,,gray,flipped triangle
0.0,1.0,0.5,0.0,6.0,6.0,561.8247713100573,6.0,1.0,phase_2,go,350.0,300.0,1.0,,,,,,,,,magenta,square
0.0,8.0,4.0,1.0,6.0,6.0,326.197731308639,6.0,1.0,phase_2,stop,350.0,300.0,3.0,,,,,,,,,white,triangle
0.0,5.0,0.5,1.0,5.0,5.0,520.2484379333328,6.0,1.0,phase_2,go,350.0,250.0,1.0,,,,,,,,,orange,cross
0.0,2.0,1.0,0.0,5.0,5.0,723.7321172506199,7.0,1.0,phase_2,go,350.0,250.0,1.0,,,,,,,,,blue,I
0.0,2.0,1.0,0.0,6.0,6.0,421.0539380001137,7.0,1.0,phase_2,go,350.0,250.0,1.0,,,,,,,,,blue,I
0.0,5.0,0.5,1.0,6.0,0.0,0.0,7.0,1.0,phase_2,stop,350.0,250.0,4.0,,,,,,,,,orange,cross
0.0,5.0,0.5,1.0,5.0,5.0,613.288838932931,7.0,1.0,phase_2,go,350.0,300.0,1.0,,,,,,,,,orange,cross
0.0,1.0,0.5,0.0,5.0,5.0,771.6053922777064,7.0,1.0,phase_2,go,350.0,300.0,1.0,,,,,,,,,magenta,square
0.0,8.0,4.0,1.0,6.0,0.0,0.0,7.0,1.0,phase_2,stop,350.0,300.0,4.0,,,,,,,,,white,triangle
0.0,8.0,4.0,1.0,6.0,0.0,0.0,7.0,1.0,phase_2,stop,350.0,350.0,4.0,,,,,,,,,white,triangle
0.0,7.0,2.0,1.0,5.0,5.0,403.6216706226696,7.0,1.0,phase_2,go,350.0,400.0,1.0,,,,,,,,,gray,flipped triangle
0.0,1.0,0.5,0.0,6.0,6.0,449.7886329991161,7.0,1.0,phase_2,go,350.0,400.0,1.0,,,,,,,,,magenta,square
0.0,8.0,4.0,1.0,6.0,6.0,449.692397905892,7.0,1.0,phase_2,go,350.0,400.0,1.0,,,,,,,,,white,triangle
0.0,2.0,1.0,0.0,6.0,6.0,497.2625129666994,7.0,1.0,phase_2,go,350.0,400.0,1.0,,,,,,,,,blue,I
0.0,1.0,0.5,0.0,5.0,5.0,554.328568312485,7.0,1.0,phase_2,go,350.0,400.0,1.0,,,,,,,,,magenta,square
0.0,7.0,2.0,1.0,5.0,5.0,620.5736796546262,7.0,1.0,phase_2,go,350.0,400.0,1.0,,,,,,,,,gray,flipped triangle
0.0,4.0,4.0,0.0,6.0,6.0,555.3024639339128,7.0,1.0,phase_2,go,350.0,400.0,1.0,,,,,,,,,green,circle
0.0,2.0,1.0,0.0,6.0,6.0,397.1462129702559,7.0,1.0,phase_2,go,350.0,400.0,1.0,,,,,,,,,blue,I
0.0,5.0,0.5,1.0,5.0,0.0,0.0,7.0,1.0,phase_2,stop,350.0,400.0,4.0,,,,,,,,,orange,cross
0.0,4.0,4.0,0.0,6.0,6.0,490.1185583439655,7.0,1.0,phase_2,go,400.0,400.0,1.0,,,,,,,,,green,circle
0.0,8.0,4.0,1.0,5.0,0.0,0.0,7.0,1.0,phase_2,stop,400.0,400.0,4.0,,,,,,,,,white,triangle
0.0,6.0,1.0,1.0,5.0,0.0,0.0,7.0,1.0,phase_2,stop,450.0,400.0,4.0,,,,,,,,,yellow,diamond
0.0,7.0,2.0,1.0,6.0,6.0,481.6226703114807,7.0,1.0,phase_2,stop,500.0,400.0,3.0,,,,,,,,,gray,flipped triangle
0.0,5.0,0.5,1.0,6.0,6.0,627.5554379681125,7.0,1.0,phase_2,go,500.0,350.0,1.0,,,,,,,,,orange,cross
0.0,4.0,4.0,0.0,6.0,6.0,696.2523706206412,7.0,1.0,phase_2,go,500.0,350.0,1.0,,,,,,,,,green,circle
0.0,5.0,0.5,1.0,6.0,0.0,0.0,7.0,1.0,phase_2,stop,500.0,350.0,4.0,,,,,,,,,orange,cross
0.0,2.0,1.0,0.0,6.0,6.0,743.6121940008888,7.0,1.0,phase_2,go,500.0,400.0,1.0,,,,,,,,,blue,I
0.0,6.0,1.0,1.0,5.0,5.0,677.538611656928,7.0,1.0,phase_2,go,500.0,400.0,1.0,,,,,,,,,yellow,diamond
0.0,6.0,1.0,1.0,6.0,0.0,0.0,7.0,1.0,phase_2,stop,500.0,400.0,4.0,,,,,,,,,yellow,diamond
0.0,4.0,4.0,0.0,5.0,5.0,531.5245332785707,7.0,1.0,phase_2,go,500.0,450.0,1.0,,,,,,,,,green,circle
0.0,7.0,2.0,1.0,6.0,0.0,0.0,7.0,1.0,phase_2,stop,500.0,450.0,4.0,,,,,,,,,gray,flipped triangle
0.0,1.0,0.5,0.0,5.0,5.0,544.3042912811507,7.0,1.0,phase_2,go,500.0,500.0,1.0,,,,,,,,,magenta,square
0.0,8.0,4.0,1.0,5.0,0.0,0.0,7.0,1.0,phase_2,stop,500.0,500.0,4.0,,,,,,,,,white,triangle
0.0,6.0,1.0,1.0,6.0,0.0,0.0,7.0,1.0,phase_2,stop,550.0,500.0,4.0,,,,,,,,,yellow,diamond
0.0,7.0,2.0,1.0,6.0,6.0,647.5050272820226,7.0,1.0,phase_2,go,550.0,550.0,1.0,,,,,,,,,gray,flipped triangle
0.0,1.0,0.5,0.0,6.0,6.0,524.5572499989066,7.0,1.0,phase_2,go,550.0,550.0,1.0,,,,,,,,,magenta,square
0.0,8.0,4.0,1.0,5.0,5.0,514.7014839676558,7.0,1.0,phase_2,stop,550.0,550.0,3.0,,,,,,,,,white,triangle
0.0,3.0,2.0,0.0,6.0,6.0,762.5249222801358,7.0,1.0,phase_2,go,500.0,550.0,1.0,,,,,,,,,cyan,hexagon
0.0,1.0,0.5,0.0,5.0,5.0,640.9444906239514,7.0,1.0,phase_2,go,500.0,550.0,1.0,,,,,,,,,magenta,square
0.0,5.0,0.5,1.0,6.0,6.0,689.6469669045473,8.0,1.0,phase_2,go,500.0,550.0,1.0,,,,,,,,,orange,cross
0.0,4.0,4.0,0.0,5.0,5.0,668.3802432817174,8.0,1.0,phase_2,go,500.0,550.0,1.0,,,,,,,,,green,circle
0.0,2.0,1.0,0.0,5.0,5.0,692.3248579332721,8.0,1.0,phase_2,go,500.0,550.0,1.0,,,,,,,,,blue,I
0.0,4.0,4.0,0.0,6.0,6.0,648.3277249681123,8.0,1.0,phase_2,go,500.0,550.0,1.0,,,,,,,,,green,circle
0.0,4.0,4.0,0.0,5.0,5.0,658.1812306576467,8.0,1.0,phase_2,go,500.0,550.0,1.0,,,,,,,,,green,circle
0.0,7.0,2.0,1.0,5.0,5.0,602.6956542809785,8.0,1.0,phase_2,stop,500.0,550.0,3.0,,,,,,,,,gray,flipped triangle
0.0,8.0,4.0,1.0,5.0,0.0,0.0,8.0,1.0,phase_2,stop,450.0,550.0,4.0,,,,,,,,,white,triangle
0.0,1.0,0.5,0.0,5.0,5.0,943.388610969123,8.0,1.0,phase_2,go,500.0,550.0,1.0,,,,,,,,,magenta,square
0.0,5.0,0.5,1.0,5.0,5.0,762.8489356247883,8.0,1.0,phase_2,go,500.0,550.0,1.0,,,,,,,,,orange,cross
0.0,1.0,0.5,0.0,6.0,6.0,460.219642623997,8.0,1.0,phase_2,go,500.0,550.0,1.0,,,,,,,,,magenta,square
0.0,7.0,2.0,1.0,5.0,5.0,293.8018286222359,8.0,1.0,phase_2,stop,500.0,550.0,3.0,,,,,,,,,gray,flipped triangle
0.0,4.0,4.0,0.0,5.0,5.0,529.4843542797025,8.0,1.0,phase_2,go,450.0,550.0,1.0,,,,,,,,,green,circle
0.0,5.0,0.5,1.0,6.0,6.0,474.2821440304396,8.0,1.0,phase_2,stop,450.0,550.0,3.0,,,,,,,,,orange,cross
0.0,5.0,0.5,1.0,5.0,5.0,969.8212043113016,8.0,1.0,phase_2,go,450.0,500.0,1.0,,,,,,,,,orange,cross
0.0,2.0,1.0,0.0,5.0,5.0,769.600261690357,8.0,1.0,phase_2,go,450.0,500.0,1.0,,,,,,,,,blue,I
0.0,8.0,4.0,1.0,5.0,0.0,0.0,8.0,1.0,phase_2,stop,450.0,500.0,4.0,,,,,,,,,white,triangle
0.0,4.0,4.0,0.0,6.0,6.0,927.6322482801334,8.0,1.0,phase_2,go,500.0,500.0,1.0,,,,,,,,,green,circle
0.0,3.0,2.0,0.0,6.0,6.0,871.8213970532815,8.0,1.0,phase_2,go,500.0,500.0,1.0,,,,,,,,,cyan,hexagon
0.0,8.0,4.0,1.0,6.0,0.0,0.0,8.0,1.0,phase_2,stop,500.0,500.0,4.0,,,,,,,,,white,triangle
0.0,6.0,1.0,1.0,5.0,0.0,0.0,8.0,1.0,phase_2,stop,500.0,550.0,4.0,,,,,,,,,yellow,diamond
0.0,6.0,1.0,1.0,5.0,0.0,0.0,8.0,1.0,phase_2,stop,550.0,550.0,4.0,,,,,,,,,yellow,diamond
0.0,2.0,1.0,0.0,6.0,6.0,863.5784602811327,8.0,1.0,phase_2,go,600.0,550.0,1.0,,,,,,,,,blue,I
0.0,5.0,0.5,1.0,6.0,0.0,0.0,8.0,1.0,phase_2,stop,600.0,550.0,4.0,,,,,,,,,orange,cross
0.0,1.0,0.5,0.0,6.0,6.0,798.7921956264472,8.0,1.0,phase_2,go,600.0,600.0,1.0,,,,,,,,,magenta,square
0.0,4.0,4.0,0.0,6.0,6.0,686.1689317775017,8.0,1.0,phase_2,go,600.0,600.0,1.0,,,,,,,,,green,circle
0.0,7.0,2.0,1.0,5.0,5.0,699.5478449680377,8.0,1.0,phase_2,stop,600.0,600.0,3.0,,,,,,,,,gray,flipped triangle
0.0,1.0,0.5,0.0,5.0,5.0,935.467800743936,8.0,1.0,phase_2,go,550.0,600.0,1.0,,,,,,,,,magenta,square
0.0,2.0,1.0,0.0,6.0,6.0,993.7042969322648,8.0,1.0,phase_2,go,550.0,600.0,1.0,,,,,,,,,blue,I
0.0,2.0,1.0,0.0,6.0,6.0,971.5163532491716,8.0,1.0,phase_2,go,550.0,600.0,1.0,,,,,,,,,blue,I
0.0,6.0,1.0,1.0,6.0,0.0,0.0,8.0,1.0,phase_2,stop,550.0,600.0,4.0,,,,,,,,,yellow,diamond
0.0,5.0,0.5,1.0,6.0,0.0,0.0,8.0,1.0,phase_2,stop,550.0,650.0,4.0,,,,,,,,,orange,cross
0.0,3.0,2.0,0.0,6.0,6.0,1086.1861119665264,8.0,1.0,phase_2,go,550.0,700.0,1.0,,,,,,,,,cyan,hexagon
0.0,3.0,2.0,0.0,5.0,5.0,850.1422797417035,8.0,1.0,phase_2,go,550.0,700.0,1.0,,,,,,,,,cyan,hexagon
0.0,6.0,1.0,1.0,6.0,6.0,772.6058949665457,8.0,1.0,phase_2,stop,550.0,700.0,3.0,,,,,,,,,yellow,diamond
0.0,5.0,0.5,1.0,6.0,0.0,0.0,8.0,1.0,phase_2,stop,550.0,650.0,4.0,,,,,,,,,orange,cross
0.0,5.0,0.5,1.0,6.0,0.0,0.0,8.0,1.0,phase_2,stop,550.0,700.0,4.0,,,,,,,,,orange,cross
0.0,6.0,1.0,1.0,7.0,3.0,4278.836282770499,1.0,1.0,phase_3,,,,,270.0,5.0,54.0,162.0,270.0,324.0,216.0,108.0,yellow,diamond
0.0,5.0,0.5,1.0,7.0,4.0,2248.6722151625145,1.0,1.0,phase_3,,,,,98.0,2.0,49.0,147.0,294.0,98.0,245.0,196.0,orange,cross
0.0,6.0,1.0,1.0,7.0,5.0,1844.2700803861956,1.0,1.0,phase_3,,,,,170.0,5.0,204.0,68.0,102.0,34.0,170.0,136.0,yellow,diamond
0.0,4.0,4.0,0.0,7.0,1.0,2814.345401548053,1.0,1.0,phase_3,,,,,195.0,5.0,195.0,39.0,234.0,117.0,78.0,156.0,green,circle
0.0,8.0,4.0,1.0,7.0,2.0,2082.0320060011,1.0,1.0,phase_3,,,,,117.0,3.0,195.0,117.0,156.0,78.0,234.0,39.0,white,triangle
0.0,1.0,0.5,0.0,7.0,4.0,2591.7076980877027,1.0,1.0,phase_3,,,,,176.0,4.0,132.0,220.0,264.0,176.0,88.0,44.0,magenta,square
0.0,3.0,2.0,0.0,7.0,5.0,3502.0265580897103,1.0,1.0,phase_3,,,,,195.0,5.0,78.0,234.0,156.0,117.0,195.0,39.0,cyan,hexagon
0.0,6.0,1.0,1.0,7.0,1.0,2154.35678339054,1.0,1.0,phase_3,,,,,196.0,4.0,196.0,294.0,245.0,147.0,98.0,49.0,yellow,diamond
0.0,5.0,0.5,1.0,7.0,2.0,2516.21234538834,1.0,1.0,phase_3,,,,,170.0,5.0,34.0,170.0,136.0,204.0,68.0,102.0,orange,cross
0.0,8.0,4.0,1.0,7.0,4.0,1459.2821163205372,1.0,1.0,phase_3,,,,,270.0,5.0,108.0,54.0,162.0,270.0,216.0,324.0,white,triangle
0.0,1.0,0.5,0.0,7.0,6.0,1694.9378957724548,1.0,1.0,phase_3,,,,,220.0,5.0,264.0,44.0,88.0,132.0,176.0,220.0,magenta,square
0.0,8.0,4.0,1.0,7.0,2.0,1707.5950217731588,1.0,1.0,phase_3,,,,,234.0,6.0,78.0,234.0,156.0,117.0,195.0,39.0,white,triangle
0.0,3.0,2.0,0.0,7.0,2.0,1383.5977070921217,1.0,1.0,phase_3,,,,,264.0,6.0,88.0,264.0,132.0,44.0,220.0,176.0,cyan,hexagon
0.0,4.0,4.0,0.0,7.0,1.0,1779.1639015449618,1.0,1.0,phase_3,,,,,294.0,6.0,294.0,98.0,245.0,49.0,147.0,196.0,green,circle
0.0,3.0,2.0,0.0,7.0,2.0,1373.9056813901698,1.0,1.0,phase_3,,,,,195.0,5.0,156.0,195.0,39.0,117.0,234.0,78.0,cyan,hexagon
0.0,4.0,4.0,0.0,7.0,2.0,3783.101344160968,1.0,1.0,phase_3,,,,,204.0,6.0,170.0,204.0,68.0,102.0,136.0,34.0,green,circle
0.0,3.0,2.0,0.0,7.0,2.0,3413.693789774697,1.0,1.0,phase_3,,,,,220.0,5.0,132.0,220.0,264.0,88.0,44.0,176.0,cyan,hexagon
0.0,6.0,1.0,1.0,7.0,6.0,2199.3051644785737,1.0,1.0,phase_3,,,,,245.0,5.0,98.0,147.0,196.0,49.0,294.0,245.0,yellow,diamond
0.0,6.0,1.0,1.0,7.0,3.0,2920.8404651617457,1.0,1.0,phase_3,,,,,170.0,5.0,68.0,136.0,170.0,34.0,102.0,204.0,yellow,diamond
0.0,7.0,2.0,1.0,7.0,3.0,2898.615367092134,1.0,1.0,phase_3,,,,,170.0,5.0,68.0,102.0,170.0,136.0,34.0,204.0,gray,flipped triangle
0.0,4.0,4.0,0.0,7.0,2.0,1672.8635973195196,2.0,1.0,phase_3,,,,,264.0,6.0,220.0,264.0,132.0,44.0,88.0,176.0,green,circle
0.0,8.0,4.0,1.0,7.0,1.0,4036.0720059361483,2.0,1.0,phase_3,,,,,196.0,4.0,196.0,294.0,49.0,245.0,147.0,98.0,white,triangle
0.0,2.0,1.0,0.0,7.0,3.0,4657.11411177108,2.0,1.0,phase_3,,,,,132.0,3.0,176.0,264.0,132.0,88.0,44.0,220.0,blue,I
0.0,2.0,1.0,0.0,7.0,3.0,1252.0079713176528,2.0,1.0,phase_3,,,,,136.0,4.0,170.0,34.0,136.0,204.0,102.0,68.0,blue,I
0.0,6.0,1.0,1.0,7.0,6.0,3807.449982770777,2.0,1.0,phase_3,,,,,264.0,6.0,176.0,88.0,220.0,132.0,44.0,264.0,yellow,diamond
0.0,2.0,1.0,0.0,7.0,4.0,4314.086907772435,2.0,1.0,phase_3,,,,,98.0,2.0,245.0,49.0,294.0,98.0,196.0,147.0,blue,I
0.0,1.0,0.5,0.0,7.0,1.0,1369.3561001600756,2.0,2.0,phase_3,,,,,78.0,2.0,78.0,234.0,195.0,156.0,117.0,39.0,magenta,square
0.0,2.0,1.0,0.0,7.0,2.0,1876.450335548725,2.0,1.0,phase_3,,,,,108.0,2.0,270.0,108.0,54.0,216.0,324.0,162.0,blue,I
0.0,7.0,2.0,1.0,7.0,5.0,1652.4445393188216,2.0,1.0,phase_3,,,,,204.0,6.0,34.0,102.0,170.0,136.0,204.0,68.0,gray,flipped triangle
0.0,5.0,0.5,1.0,7.0,4.0,2194.214226317854,2.0,1.0,phase_3,,,,,204.0,6.0,136.0,68.0,102.0,204.0,170.0,34.0,orange,cross
0.0,7.0,2.0,1.0,7.0,5.0,3173.2984169357223,2.0,1.0,phase_3,,,,,147.0,3.0,98.0,245.0,196.0,294.0,147.0,49.0,gray,flipped triangle
0.0,4.0,4.0,0.0,7.0,3.0,3466.862246092205,2.0,1.0,phase_3,,,,,216.0,4.0,108.0,270.0,216.0,54.0,162.0,324.0,green,circle
0.0,5.0,0.5,1.0,7.0,5.0,2129.91561893432,2.0,1.0,phase_3,,,,,216.0,4.0,324.0,270.0,162.0,54.0,216.0,108.0,orange,cross
0.0,4.0,4.0,0.0,7.0,5.0,2940.427154317149,2.0,1.0,phase_3,,,,,156.0,4.0,117.0,78.0,195.0,39.0,156.0,234.0,green,circle
0.0,7.0,2.0,1.0,7.0,5.0,3482.8805804791045,2.0,1.0,phase_3,,,,,176.0,4.0,88.0,220.0,44.0,264.0,176.0,132.0,gray,flipped triangle
0.0,2.0,1.0,0.0,7.0,2.0,3021.134439317393,2.0,1.0,phase_3,,,,,102.0,3.0,34.0,102.0,68.0,136.0,204.0,170.0,blue,I
0.0,8.0,4.0,1.0,7.0,1.0,1785.0767571617323,2.0,1.0,phase_3,,,,,216.0,4.0,216.0,324.0,54.0,270.0,108.0,162.0,white,triangle
0.0,5.0,0.5,1.0,7.0,6.0,3270.5329540913226,2.0,1.0,phase_3,,,,,245.0,5.0,98.0,294.0,147.0,196.0,49.0,245.0,orange,cross
0.0,2.0,1.0,0.0,7.0,3.0,2259.698904090328,2.0,1.0,phase_3,,,,,117.0,3.0,78.0,234.0,117.0,39.0,195.0,156.0,blue,I
0.0,1.0,0.5,0.0,7.0,4.0,2946.05335554661,2.0,1.0,phase_3,,,,,147.0,3.0,98.0,49.0,196.0,147.0,294.0,245.0,magenta,square
0.0,3.0,2.0,0.0,7.0,4.0,1979.122238160926,3.0,1.0,phase_3,,,,,294.0,6.0,98.0,196.0,245.0,294.0,147.0,49.0,cyan,hexagon
0.0,4.0,4.0,0.0,7.0,3.0,1981.1992179347728,3.0,1.0,phase_3,,,,,264.0,6.0,176.0,220.0,264.0,88.0,44.0,132.0,green,circle
0.0,3.0,2.0,0.0,7.0,3.0,2646.8875139325974,3.0,1.0,phase_3,,,,,162.0,3.0,270.0,216.0,162.0,54.0,108.0,324.0,cyan,hexagon
0.0,8.0,4.0,1.0,7.0,2.0,2061.783316930814,3.0,1.0,phase_3,,,,,170.0,5.0,204.0,170.0,102.0,68.0,136.0,34.0,white,triangle
0.0,7.0,2.0,1.0,7.0,5.0,1747.3877640877618,3.0,1.0,phase_3,,,,,162.0,3.0,54.0,216.0,270.0,108.0,162.0,324.0,gray,flipped triangle
0.0,2.0,1.0,0.0,7.0,6.0,2873.745080389199,3.0,1.0,phase_3,,,,,108.0,2.0,270.0,54.0,216.0,324.0,162.0,108.0,blue,I
0.0,3.0,2.0,0.0,7.0,4.0,1772.9017266137816,3.0,1.0,phase_3,,,,,270.0,5.0,216.0,162.0,324.0,270.0,108.0,54.0,cyan,hexagon
0.0,1.0,0.5,0.0,7.0,1.0,3203.155664159567,3.0,1.0,phase_3,,,,,98.0,2.0,98.0,294.0,49.0,245.0,147.0,196.0,magenta,square
0.0,8.0,4.0,1.0,7.0,4.0,1908.653201706329,3.0,1.0,phase_3,,,,,88.0,2.0,44.0,264.0,220.0,88.0,132.0,176.0,white,triangle
0.0,7.0,2.0,1.0,7.0,2.0,3362.455500089709,3.0,1.0,phase_3,,,,,117.0,3.0,195.0,117.0,39.0,234.0,156.0,78.0,gray,flipped triangle
0.0,5.0,0.5,1.0,7.0,5.0,1213.4615090908485,3.0,1.0,phase_3,,,,,220.0,5.0,264.0,44.0,176.0,88.0,220.0,132.0,orange,cross
0.0,4.0,4.0,0.0,7.0,3.0,2666.5376319360803,3.0,1.0,phase_3,,,,,196.0,4.0,98.0,294.0,196.0,49.0,245.0,147.0,green,circle
0.0,7.0,2.0,1.0,7.0,4.0,2240.923705161549,3.0,1.0,phase_3,,,,,196.0,4.0,147.0,294.0,49.0,196.0,245.0,98.0,gray,flipped triangle
0.0,6.0,1.0,1.0,7.0,2.0,1722.9116333874115,3.0,1.0,phase_3,,,,,132.0,3.0,88.0,132.0,176.0,264.0,220.0,44.0,yellow,diamond
0.0,7.0,2.0,1.0,7.0,3.0,3063.28560838665,3.0,1.0,phase_3,,,,,216.0,4.0,270.0,54.0,216.0,324.0,162.0,108.0,gray,flipped triangle
0.0,4.0,4.0,0.0,7.0,6.0,2658.702806547808,3.0,1.0,phase_3,,,,,170.0,5.0,68.0,204.0,102.0,136.0,34.0,170.0,green,circle
0.0,1.0,0.5,0.0,7.0,2.0,2965.3503853878647,3.0,1.0,phase_3,,,,,78.0,2.0,117.0,78.0,39.0,234.0,195.0,156.0,magenta,square
0.0,5.0,0.5,1.0,7.0,6.0,1379.4818821588706,3.0,1.0,phase_3,,,,,176.0,4.0,220.0,264.0,88.0,132.0,44.0,176.0,orange,cross
0.0,7.0,2.0,1.0,7.0,6.0,2696.925819480384,3.0,1.0,phase_3,,,,,156.0,4.0,117.0,39.0,195.0,78.0,234.0,156.0,gray,flipped triangle
0.0,6.0,1.0,1.0,7.0,1.0,3699.975284318498,3.0,1.0,phase_3,,,,,195.0,5.0,195.0,156.0,78.0,234.0,39.0,117.0,yellow,diamond
0.0,2.0,1.0,0.0,7.0,2.0,2190.104830388009,4.0,1.0,phase_3,,,,,147.0,3.0,49.0,147.0,294.0,98.0,196.0,245.0,blue,I
0.0,8.0,4.0,1.0,7.0,4.0,2417.653162090573,4.0,1.0,phase_3,,,,,204.0,6.0,102.0,170.0,136.0,204.0,34.0,68.0,white,triangle
0.0,1.0,0.5,0.0,7.0,2.0,1608.87292793268,4.0,1.0,phase_3,,,,,108.0,2.0,324.0,108.0,216.0,54.0,162.0,270.0,magenta,square
0.0,7.0,2.0,1.0,7.0,3.0,2047.5590740934422,4.0,1.0,phase_3,,,,,132.0,3.0,220.0,88.0,132.0,264.0,176.0,44.0,gray,flipped triangle
0.0,4.0,4.0,0.0,7.0,2.0,2430.24517215963,4.0,1.0,phase_3,,,,,162.0,3.0,270.0,162.0,54.0,324.0,108.0,216.0,green,circle
0.0,3.0,2.0,0.0,7.0,6.0,2602.2584947713767,4.0,1.0,phase_3,,,,,170.0,5.0,136.0,68.0,34.0,204.0,102.0,170.0,cyan,hexagon
0.0,6.0,1.0,1.0,7.0,4.0,2725.079757547064,4.0,1.0,phase_3,,,,,156.0,4.0,78.0,195.0,117.0,156.0,39.0,234.0,yellow,diamond
0.0,3.0,2.0,0.0,7.0,4.0,2535.247581159638,4.0,1.0,phase_3,,,,,170.0,5.0,68.0,136.0,102.0,170.0,204.0,34.0,cyan,hexagon
0.0,5.0,0.5,1.0,7.0,4.0,2175.969518772036,4.0,1.0,phase_3,,,,,156.0,4.0,39.0,234.0,117.0,156.0,78.0,195.0,orange,cross
0.0,6.0,1.0,1.0,7.0,4.0,2750.8959775477706,4.0,1.0,phase_3,,,,,108.0,2.0,54.0,216.0,324.0,108.0,270.0,162.0,yellow,diamond
0.0,1.0,0.5,0.0,7.0,3.0,1786.5441433896194,4.0,1.0,phase_3,,,,,136.0,4.0,102.0,34.0,136.0,68.0,204.0,170.0,magenta,square
0.0,2.0,1.0,0.0,7.0,1.0,1808.610631389456,4.0,1.0,phase_3,,,,,132.0,3.0,132.0,88.0,264.0,176.0,220.0,44.0,blue,I
0.0,2.0,1.0,0.0,7.0,5.0,2123.978103933041,4.0,1.0,phase_3,,,,,117.0,3.0,156.0,78.0,39.0,195.0,117.0,234.0,blue,I
0.0,1.0,0.5,0.0,7.0,2.0,2858.4306113189086,4.0,1.0,phase_3,,,,,136.0,4.0,34.0,136.0,68.0,170.0,102.0,204.0,magenta,square
0.0,8.0,4.0,1.0,7.0,4.0,2284.5379762256925,4.0,1.0,phase_3,,,,,147.0,3.0,245.0,98.0,196.0,147.0,49.0,294.0,white,triangle
0.0,5.0,0.5,1.0,7.0,2.0,1879.714741546195,4.0,1.0,phase_3,,,,,216.0,4.0,162.0,216.0,108.0,54.0,270.0,324.0,orange,cross
0.0,5.0,0.5,1.0,7.0,4.0,1442.5178479359602,4.0,1.0,phase_3,,,,,156.0,4.0,234.0,195.0,78.0,156.0,117.0,39.0,orange,cross
0.0,3.0,2.0,0.0,7.0,4.0,3131.0044607707823,4.0,1.0,phase_3,,,,,147.0,3.0,245.0,294.0,98.0,147.0,49.0,196.0,cyan,hexagon
0.0,1.0,0.5,0.0,7.0,3.0,2031.4477049323614,4.0,1.0,phase_3,,,,,162.0,3.0,216.0,108.0,162.0,324.0,270.0,54.0,magenta,square
0.0,8.0,4.0,1.0,7.0,1.0,2953.2029825459176,4.0,1.0,phase_3,,,,,132.0,3.0,132.0,264.0,220.0,176.0,44.0,88.0,white,triangle
