raw_reward_magnitude,stim_reward,stepwise_reward_magnitude,paired_with_stopping,stim_location,response,reaction_time,block,num_trial_presentations,which_phase,stop_signal_trial_type,left_SSD,right_SSD,accuracy,chosen_bidding_amount,chosen_bidding_level,possible_bid_1,possible_bid_2,possible_bid_3,possible_bid_4,possible_bid_5,possible_bid_6,color_text,shape_text
107.0,2.0,1.0,0.0,3.0,3.0,411.2692820235679,1.0,1.0,phase_1,,,,,,,,,,,,,green,flipped triangle
414.0,4.0,4.0,0.0,2.0,2.0,390.7962730236249,1.0,1.0,phase_1,,,,,,,,,,,,,magenta,cross
45.0,5.0,0.5,1.0,1.0,1.0,604.2116006142351,1.0,1.0,phase_1,,,,,,,,,,,,,orange,triangle
0.0,8.0,0.0,1.0,4.0,4.0,447.6119646142251,1.0,1.0,phase_1,,,,,,,,,,,,,cyan,square
105.0,6.0,1.0,1.0,1.0,1.0,480.0793256142697,1.0,1.0,phase_1,,,,,,,,,,,,,blue,diamond
95.0,2.0,1.0,0.0,2.0,2.0,436.1964554093447,1.0,1.0,phase_1,,,,,,,,,,,,,green,flipped triangle
108.0,2.0,1.0,0.0,2.0,2.0,425.5477998187871,1.0,1.0,phase_1,,,,,,,,,,,,,green,flipped triangle
208.0,7.0,2.0,1.0,1.0,1.0,461.3174432281539,1.0,1.0,phase_1,,,,,,,,,,,,,yellow,circle
0.0,5.0,0.0,1.0,4.0,4.0,684.6635110234729,1.0,1.0,phase_1,,,,,,,,,,,,,orange,triangle
83.0,2.0,1.0,0.0,4.0,4.0,664.6652562046711,1.0,1.0,phase_1,,,,,,,,,,,,,green,flipped triangle
0.0,7.0,0.0,1.0,2.0,2.0,473.7898106375269,1.0,1.0,phase_1,,,,,,,,,,,,,yellow,circle
0.0,7.0,0.0,1.0,2.0,2.0,405.9400060234566,1.0,1.0,phase_1,,,,,,,,,,,,,yellow,circle
379.0,8.0,4.0,1.0,1.0,1.0,451.8411504329833,1.0,1.0,phase_1,,,,,,,,,,,,,cyan,square
80.0,2.0,1.0,0.0,3.0,3.0,428.5712724329187,1.0,1.0,phase_1,,,,,,,,,,,,,green,flipped triangle
0.0,2.0,0.0,0.0,2.0,2.0,453.9732922046369,1.0,1.0,phase_1,,,,,,,,,,,,,green,flipped triangle
108.0,6.0,1.0,1.0,4.0,4.0,486.0933806141929,1.0,1.0,phase_1,,,,,,,,,,,,,blue,diamond
0.0,8.0,0.0,1.0,2.0,2.0,453.3395426142306,1.0,1.0,phase_1,,,,,,,,,,,,,cyan,square
0.0,3.0,0.0,0.0,2.0,2.0,590.3559130233589,1.0,1.0,phase_1,,,,,,,,,,,,,white,hexagon
383.0,4.0,4.0,0.0,3.0,3.0,500.55120922820606,1.0,1.0,phase_1,,,,,,,,,,,,,magenta,cross
409.0,8.0,4.0,1.0,1.0,1.0,409.8734736376173,1.0,1.0,phase_1,,,,,,,,,,,,,cyan,square
383.0,8.0,4.0,1.0,3.0,3.0,433.1428802281607,1.0,1.0,phase_1,,,,,,,,,,,,,cyan,square
393.0,8.0,4.0,1.0,4.0,4.0,478.7864956142584,1.0,1.0,phase_1,,,,,,,,,,,,,cyan,square
119.0,6.0,1.0,1.0,1.0,1.0,436.0369700234514,1.0,1.0,phase_1,,,,,,,,,,,,,blue,diamond
211.0,7.0,2.0,1.0,1.0,1.0,468.3361958188925,1.0,1.0,phase_1,,,,,,,,,,,,,yellow,circle
58.0,5.0,0.5,1.0,3.0,3.0,491.4252062046671,1.0,1.0,phase_1,,,,,,,,,,,,,orange,triangle
399.0,8.0,4.0,1.0,3.0,3.0,436.0390154092783,1.0,1.0,phase_1,,,,,,,,,,,,,cyan,square
95.0,6.0,1.0,1.0,4.0,4.0,751.3887548188904,1.0,1.0,phase_1,,,,,,,,,,,,,blue,diamond
415.0,4.0,4.0,0.0,2.0,2.0,584.7517634329051,1.0,1.0,phase_1,,,,,,,,,,,,,magenta,cross
187.0,7.0,2.0,1.0,1.0,1.0,425.9238940235264,1.0,1.0,phase_1,,,,,,,,,,,,,yellow,circle
73.0,1.0,0.5,0.0,4.0,4.0,438.2631476141796,1.0,1.0,phase_1,,,,,,,,,,,,,gray,I
199.0,7.0,2.0,1.0,3.0,3.0,439.6486938424004,1.0,1.0,phase_1,,,,,,,,,,,,,yellow,circle
399.0,4.0,4.0,0.0,4.0,4.0,472.6654194093953,1.0,1.0,phase_1,,,,,,,,,,,,,magenta,cross
0.0,4.0,0.0,0.0,1.0,1.0,417.1267212282146,1.0,1.0,phase_1,,,,,,,,,,,,,magenta,cross
394.0,4.0,4.0,0.0,1.0,1.0,519.1576170234384,1.0,1.0,phase_1,,,,,,,,,,,,,magenta,cross
63.0,1.0,0.5,0.0,1.0,1.0,620.236726023677,1.0,1.0,phase_1,,,,,,,,,,,,,gray,I
0.0,8.0,0.0,1.0,4.0,4.0,475.6922984095126,1.0,1.0,phase_1,,,,,,,,,,,,,cyan,square
0.0,5.0,0.0,1.0,2.0,2.0,430.7448980234767,1.0,1.0,phase_1,,,,,,,,,,,,,orange,triangle
0.0,5.0,0.0,1.0,2.0,2.0,408.5240562280887,1.0,1.0,phase_1,,,,,,,,,,,,,orange,triangle
379.0,4.0,4.0,0.0,3.0,3.0,398.1608742046774,1.0,1.0,phase_1,,,,,,,,,,,,,magenta,cross
89.0,2.0,1.0,0.0,2.0,2.0,467.585250409229,1.0,1.0,phase_1,,,,,,,,,,,,,green,flipped triangle
104.0,2.0,1.0,0.0,4.0,4.0,500.150186818928,1.0,1.0,phase_1,,,,,,,,,,,,,green,flipped triangle
27.0,5.0,0.5,1.0,4.0,4.0,432.8782224094993,1.0,1.0,phase_1,,,,,,,,,,,,,orange,triangle
0.0,7.0,0.0,1.0,3.0,3.0,356.2269038188788,1.0,1.0,phase_1,,,,,,,,,,,,,yellow,circle
104.0,2.0,1.0,0.0,4.0,4.0,479.6903066376217,1.0,1.0,phase_1,,,,,,,,,,,,,green,flipped triangle
107.0,6.0,1.0,1.0,2.0,2.0,706.4092984094259,1.0,1.0,phase_1,,,,,,,,,,,,,blue,diamond
58.0,1.0,0.5,0.0,4.0,4.0,436.0103516376057,1.0,1.0,phase_1,,,,,,,,,,,,,gray,I
0.0,1.0,0.0,0.0,4.0,4.0,379.9138146141558,1.0,1.0,phase_1,,,,,,,,,,,,,gray,I
92.0,6.0,1.0,1.0,4.0,4.0,560.6728326540633,1.0,1.0,phase_1,,,,,,,,,,,,,blue,diamond
59.0,1.0,0.5,0.0,2.0,2.0,437.4663914093162,1.0,1.0,phase_1,,,,,,,,,,,,,gray,I
389.0,8.0,4.0,1.0,3.0,3.0,437.1513124092416,1.0,1.0,phase_1,,,,,,,,,,,,,cyan,square
76.0,2.0,1.0,0.0,1.0,1.0,460.8540354092838,1.0,1.0,phase_1,,,,,,,,,,,,,green,flipped triangle
0.0,3.0,0.0,0.0,4.0,4.0,382.4029610234447,1.0,1.0,phase_1,,,,,,,,,,,,,white,hexagon
88.0,2.0,1.0,0.0,3.0,3.0,427.9162644329517,1.0,1.0,phase_1,,,,,,,,,,,,,green,flipped triangle
185.0,3.0,2.0,0.0,1.0,1.0,340.0215868186933,1.0,1.0,phase_1,,,,,,,,,,,,,white,hexagon
204.0,3.0,2.0,0.0,3.0,3.0,339.8637156142285,1.0,1.0,phase_1,,,,,,,,,,,,,white,hexagon
64.0,5.0,0.5,1.0,4.0,4.0,474.460147637501,1.0,1.0,phase_1,,,,,,,,,,,,,orange,triangle
63.0,5.0,0.5,1.0,1.0,1.0,510.8357884093948,1.0,1.0,phase_1,,,,,,,,,,,,,orange,triangle
225.0,7.0,2.0,1.0,2.0,2.0,487.2611186374342,1.0,1.0,phase_1,,,,,,,,,,,,,yellow,circle
53.0,1.0,0.5,0.0,1.0,1.0,610.9775768188683,1.0,1.0,phase_1,,,,,,,,,,,,,gray,I
389.0,4.0,4.0,0.0,3.0,3.0,420.0032914093299,1.0,1.0,phase_1,,,,,,,,,,,,,magenta,cross
193.0,7.0,2.0,1.0,3.0,3.0,522.2245484092127,1.0,1.0,phase_1,,,,,,,,,,,,,yellow,circle
0.0,8.0,0.0,1.0,2.0,2.0,410.6183088188118,1.0,1.0,phase_1,,,,,,,,,,,,,cyan,square
113.0,6.0,1.0,1.0,3.0,3.0,805.298140023524,1.0,1.0,phase_1,,,,,,,,,,,,,blue,diamond
83.0,2.0,1.0,0.0,1.0,1.0,402.1508018422537,1.0,1.0,phase_1,,,,,,,,,,,,,green,flipped triangle
40.0,5.0,0.5,1.0,4.0,4.0,490.2050774094277,1.0,1.0,phase_1,,,,,,,,,,,,,orange,triangle
67.0,5.0,0.5,1.0,1.0,1.0,469.9646966375894,1.0,1.0,phase_1,,,,,,,,,,,,,orange,triangle
198.0,7.0,2.0,1.0,4.0,4.0,537.4371888424321,1.0,1.0,phase_1,,,,,,,,,,,,,yellow,circle
0.0,8.0,0.0,1.0,3.0,3.0,448.0851926373361,1.0,1.0,phase_1,,,,,,,,,,,,,cyan,square
34.0,1.0,0.5,0.0,2.0,2.0,382.3103176143831,1.0,1.0,phase_1,,,,,,,,,,,,,gray,I
189.0,7.0,2.0,1.0,1.0,1.0,505.14458281872976,1.0,1.0,phase_1,,,,,,,,,,,,,yellow,circle
191.0,7.0,2.0,1.0,1.0,1.0,460.9118954092537,1.0,1.0,phase_1,,,,,,,,,,,,,yellow,circle
201.0,3.0,2.0,0.0,4.0,4.0,415.2703048189323,1.0,1.0,phase_1,,,,,,,,,,,,,white,hexagon
0.0,6.0,0.0,1.0,4.0,4.0,395.3571916142664,1.0,1.0,phase_1,,,,,,,,,,,,,blue,diamond
53.0,5.0,0.5,1.0,1.0,1.0,294.561151614289,1.0,1.0,phase_1,,,,,,,,,,,,,orange,triangle
383.0,8.0,4.0,1.0,2.0,2.0,350.1777040235083,1.0,1.0,phase_1,,,,,,,,,,,,,cyan,square
222.0,3.0,2.0,0.0,2.0,2.0,363.2235298423438,1.0,1.0,phase_1,,,,,,,,,,,,,white,hexagon
199.0,3.0,2.0,0.0,3.0,3.0,485.36790902358,1.0,1.0,phase_1,,,,,,,,,,,,,white,hexagon
0.0,8.0,0.0,1.0,1.0,1.0,431.0185542046838,1.0,1.0,phase_1,,,,,,,,,,,,,cyan,square
48.0,5.0,0.5,1.0,4.0,4.0,432.5880592045905,1.0,1.0,phase_1,,,,,,,,,,,,,orange,triangle
0.0,6.0,0.0,1.0,4.0,4.0,624.2455754093044,1.0,1.0,phase_1,,,,,,,,,,,,,blue,diamond
32.0,1.0,0.5,0.0,4.0,4.0,432.470567409382,1.0,1.0,phase_1,,,,,,,,,,,,,gray,I
0.0,6.0,0.0,1.0,3.0,3.0,365.00096143299737,1.0,1.0,phase_1,,,,,,,,,,,,,blue,diamond
419.0,4.0,4.0,0.0,1.0,1.0,468.6042298187658,1.0,1.0,phase_1,,,,,,,,,,,,,magenta,cross
30.0,5.0,0.5,1.0,3.0,3.0,502.40520181887405,1.0,1.0,phase_1,,,,,,,,,,,,,orange,triangle
107.0,2.0,1.0,0.0,1.0,1.0,647.8749886141486,1.0,1.0,phase_1,,,,,,,,,,,,,green,flipped triangle
422.0,4.0,4.0,0.0,3.0,3.0,299.87191940927,1.0,1.0,phase_1,,,,,,,,,,,,,magenta,cross
383.0,8.0,4.0,1.0,4.0,4.0,437.2843304327034,1.0,1.0,phase_1,,,,,,,,,,,,,cyan,square
0.0,5.0,0.0,1.0,1.0,1.0,559.5774582047852,1.0,1.0,phase_1,,,,,,,,,,,,,orange,triangle
419.0,4.0,4.0,0.0,1.0,1.0,402.5807892282955,1.0,1.0,phase_1,,,,,,,,,,,,,magenta,cross
0.0,4.0,0.0,0.0,1.0,1.0,459.4891564092904,1.0,1.0,phase_1,,,,,,,,,,,,,magenta,cross
398.0,8.0,4.0,1.0,2.0,2.0,360.0082302282317,1.0,1.0,phase_1,,,,,,,,,,,,,cyan,square
73.0,1.0,0.5,0.0,4.0,4.0,527.9809904093327,1.0,1.0,phase_1,,,,,,,,,,,,,gray,I
209.0,7.0,2.0,1.0,4.0,4.0,372.0502496141762,1.0,1.0,phase_1,,,,,,,,,,,,,yellow,circle
34.0,5.0,0.5,1.0,3.0,3.0,404.9484412282709,1.0,1.0,phase_1,,,,,,,,,,,,,orange,triangle
75.0,1.0,0.5,0.0,2.0,2.0,328.809856818907,1.0,1.0,phase_1,,,,,,,,,,,,,gray,I
409.0,4.0,4.0,0.0,4.0,4.0,350.1942142045209,1.0,1.0,phase_1,,,,,,,,,,,,,magenta,cross
0.0,8.0,0.0,1.0,1.0,1.0,532.1205708189609,1.0,1.0,phase_1,,,,,,,,,,,,,cyan,square
389.0,4.0,4.0,0.0,3.0,3.0,352.5112616373462,1.0,1.0,phase_1,,,,,,,,,,,,,magenta,cross
415.0,8.0,4.0,1.0,3.0,3.0,398.2519574094567,1.0,1.0,phase_1,,,,,,,,,,,,,cyan,square
0.0,4.0,0.0,0.0,3.0,3.0,386.7723568423571,1.0,1.0,phase_1,,,,,,,,,,,,,magenta,cross
0.0,5.0,0.0,1.0,1.0,1.0,661.8453644327928,2.0,1.0,phase_1,,,,,,,,,,,,,orange,triangle
0.0,2.0,0.0,0.0,1.0,1.0,380.5230888424376,2.0,1.0,phase_1,,,,,,,,,,,,,green,flipped triangle
0.0,7.0,0.0,1.0,2.0,2.0,471.6860408423144,2.0,1.0,phase_1,,,,,,,,,,,,,yellow,circle
212.0,3.0,2.0,0.0,2.0,2.0,359.7620572281812,2.0,1.0,phase_1,,,,,,,,,,,,,white,hexagon
423.0,8.0,4.0,1.0,4.0,4.0,360.6312490001073,2.0,1.0,phase_1,,,,,,,,,,,,,cyan,square
0.0,3.0,0.0,0.0,1.0,1.0,339.0235928188758,2.0,1.0,phase_1,,,,,,,,,,,,,white,hexagon
94.0,2.0,1.0,0.0,1.0,1.0,631.1303678189688,2.0,1.0,phase_1,,,,,,,,,,,,,green,flipped triangle
0.0,3.0,0.0,0.0,2.0,2.0,374.6268628187863,2.0,1.0,phase_1,,,,,,,,,,,,,white,hexagon
197.0,3.0,2.0,0.0,4.0,4.0,384.7616628188461,2.0,1.0,phase_1,,,,,,,,,,,,,white,hexagon
49.0,1.0,0.5,0.0,3.0,3.0,307.8164084329273,2.0,1.0,phase_1,,,,,,,,,,,,,gray,I
77.0,2.0,1.0,0.0,2.0,2.0,386.9436714091989,2.0,1.0,phase_1,,,,,,,,,,,,,green,flipped triangle
83.0,2.0,1.0,0.0,3.0,3.0,352.4349700235234,2.0,1.0,phase_1,,,,,,,,,,,,,green,flipped triangle
83.0,6.0,1.0,1.0,3.0,3.0,421.2284234092749,2.0,1.0,phase_1,,,,,,,,,,,,,blue,diamond
74.0,1.0,0.5,0.0,4.0,4.0,421.6156334093739,2.0,1.0,phase_1,,,,,,,,,,,,,gray,I
40.0,1.0,0.5,0.0,1.0,1.0,342.9891834093723,2.0,1.0,phase_1,,,,,,,,,,,,,gray,I
209.0,7.0,2.0,1.0,3.0,3.0,478.561198818852,2.0,1.0,phase_1,,,,,,,,,,,,,yellow,circle
112.0,2.0,1.0,0.0,4.0,4.0,391.0831072048495,2.0,2.0,phase_1,,,,,,,,,,,,,green,flipped triangle
40.0,5.0,0.5,1.0,2.0,2.0,538.0195564328005,2.0,1.0,phase_1,,,,,,,,,,,,,orange,triangle
402.0,8.0,4.0,1.0,2.0,2.0,605.5699720234315,2.0,1.0,phase_1,,,,,,,,,,,,,cyan,square
0.0,3.0,0.0,0.0,2.0,2.0,481.3147266140731,2.0,1.0,phase_1,,,,,,,,,,,,,white,hexagon
89.0,6.0,1.0,1.0,1.0,1.0,583.4247568423052,2.0,1.0,phase_1,,,,,,,,,,,,,blue,diamond
116.0,2.0,1.0,0.0,2.0,2.0,483.0368172047201,2.0,1.0,phase_1,,,,,,,,,,,,,green,flipped triangle
398.0,4.0,4.0,0.0,2.0,2.0,416.1912212280185,2.0,1.0,phase_1,,,,,,,,,,,,,magenta,cross
104.0,6.0,1.0,1.0,2.0,2.0,361.606644842368,2.0,1.0,phase_1,,,,,,,,,,,,,blue,diamond
0.0,2.0,0.0,0.0,1.0,1.0,451.6676182045103,2.0,1.0,phase_1,,,,,,,,,,,,,green,flipped triangle
207.0,7.0,2.0,1.0,2.0,2.0,384.340455204665,2.0,1.0,phase_1,,,,,,,,,,,,,yellow,circle
0.0,2.0,0.0,0.0,1.0,1.0,508.1736356141846,2.0,1.0,phase_1,,,,,,,,,,,,,green,flipped triangle
0.0,5.0,0.0,1.0,4.0,4.0,711.3022782045846,2.0,1.0,phase_1,,,,,,,,,,,,,orange,triangle
106.0,6.0,1.0,1.0,2.0,2.0,442.2838434329605,2.0,1.0,phase_1,,,,,,,,,,,,,blue,diamond
0.0,4.0,0.0,0.0,3.0,3.0,373.8518669999848,2.0,1.0,phase_1,,,,,,,,,,,,,magenta,cross
200.0,3.0,2.0,0.0,3.0,3.0,520.4363080235908,2.0,1.0,phase_1,,,,,,,,,,,,,white,hexagon
0.0,1.0,0.0,0.0,4.0,4.0,623.9448164094483,2.0,1.0,phase_1,,,,,,,,,,,,,gray,I
100.0,6.0,1.0,1.0,3.0,3.0,364.024075023508,2.0,1.0,phase_1,,,,,,,,,,,,,blue,diamond
184.0,3.0,2.0,0.0,1.0,1.0,387.4940126142974,2.0,1.0,phase_1,,,,,,,,,,,,,white,hexagon
0.0,7.0,0.0,1.0,3.0,3.0,331.0431154093294,2.0,1.0,phase_1,,,,,,,,,,,,,yellow,circle
91.0,2.0,1.0,0.0,4.0,4.0,400.1608474093245,2.0,1.0,phase_1,,,,,,,,,,,,,green,flipped triangle
418.0,4.0,4.0,0.0,2.0,2.0,379.3488708188306,2.0,1.0,phase_1,,,,,,,,,,,,,magenta,cross
0.0,1.0,0.0,0.0,3.0,3.0,333.6566844327535,2.0,1.0,phase_1,,,,,,,,,,,,,gray,I
0.0,2.0,0.0,0.0,4.0,4.0,401.9960564328357,2.0,1.0,phase_1,,,,,,,,,,,,,green,flipped triangle
225.0,3.0,2.0,0.0,1.0,1.0,380.4251986143754,2.0,1.0,phase_1,,,,,,,,,,,,,white,hexagon
91.0,6.0,1.0,1.0,2.0,2.0,572.2808286375312,2.0,1.0,phase_1,,,,,,,,,,,,,blue,diamond
175.0,3.0,2.0,0.0,1.0,1.0,640.611655614066,2.0,2.0,phase_1,,,,,,,,,,,,,white,hexagon
190.0,3.0,2.0,0.0,4.0,4.0,493.7799004328553,2.0,1.0,phase_1,,,,,,,,,,,,,white,hexagon
0.0,2.0,0.0,0.0,2.0,2.0,428.5246322046987,2.0,1.0,phase_1,,,,,,,,,,,,,green,flipped triangle
414.0,8.0,4.0,1.0,1.0,1.0,428.2507014092971,2.0,1.0,phase_1,,,,,,,,,,,,,cyan,square
0.0,7.0,0.0,1.0,1.0,1.0,429.1690856141485,2.0,1.0,phase_1,,,,,,,,,,,,,yellow,circle
51.0,5.0,0.5,1.0,2.0,2.0,722.1000184092645,2.0,1.0,phase_1,,,,,,,,,,,,,orange,triangle
0.0,3.0,0.0,0.0,1.0,1.0,507.957755614143,2.0,1.0,phase_1,,,,,,,,,,,,,white,hexagon
204.0,3.0,2.0,0.0,4.0,4.0,667.2163718187676,2.0,2.0,phase_1,,,,,,,,,,,,,white,hexagon
402.0,4.0,4.0,0.0,2.0,2.0,633.6723866143075,2.0,1.0,phase_1,,,,,,,,,,,,,magenta,cross
379.0,8.0,4.0,1.0,1.0,1.0,579.2403704094795,2.0,1.0,phase_1,,,,,,,,,,,,,cyan,square
418.0,8.0,4.0,1.0,2.0,2.0,601.6592442281308,2.0,1.0,phase_1,,,,,,,,,,,,,cyan,square
183.0,3.0,2.0,0.0,1.0,1.0,478.4542792281172,2.0,1.0,phase_1,,,,,,,,,,,,,white,hexagon
392.0,8.0,4.0,1.0,2.0,2.0,478.0662684092931,2.0,1.0,phase_1,,,,,,,,,,,,,cyan,square
0.0,4.0,0.0,0.0,2.0,2.0,467.905861228246,2.0,1.0,phase_1,,,,,,,,,,,,,magenta,cross
0.0,7.0,0.0,1.0,3.0,3.0,412.5681716375311,2.0,1.0,phase_1,,,,,,,,,,,,,yellow,circle
119.0,2.0,1.0,0.0,4.0,4.0,457.6238134093273,2.0,1.0,phase_1,,,,,,,,,,,,,green,flipped triangle
0.0,7.0,0.0,1.0,3.0,3.0,537.1445480234343,2.0,1.0,phase_1,,,,,,,,,,,,,yellow,circle
204.0,7.0,2.0,1.0,2.0,2.0,381.831953023493,2.0,1.0,phase_1,,,,,,,,,,,,,yellow,circle
178.0,7.0,2.0,1.0,4.0,4.0,470.8437396375302,2.0,1.0,phase_1,,,,,,,,,,,,,yellow,circle
117.0,6.0,1.0,1.0,2.0,2.0,403.7414290237393,2.0,1.0,phase_1,,,,,,,,,,,,,blue,diamond
73.0,5.0,0.5,1.0,3.0,3.0,348.1573944327465,2.0,1.0,phase_1,,,,,,,,,,,,,orange,triangle
83.0,6.0,1.0,1.0,2.0,2.0,427.1547666376136,2.0,1.0,phase_1,,,,,,,,,,,,,blue,diamond
413.0,4.0,4.0,0.0,3.0,3.0,417.7915178424882,2.0,1.0,phase_1,,,,,,,,,,,,,magenta,cross
199.0,3.0,2.0,0.0,3.0,3.0,461.3964526142808,2.0,1.0,phase_1,,,,,,,,,,,,,white,hexagon
28.0,1.0,0.5,0.0,1.0,1.0,485.6007447951924,2.0,1.0,phase_1,,,,,,,,,,,,,gray,I
47.0,5.0,0.5,1.0,4.0,4.0,508.9420594092644,2.0,1.0,phase_1,,,,,,,,,,,,,orange,triangle
390.0,8.0,4.0,1.0,3.0,3.0,475.7967920234023,2.0,1.0,phase_1,,,,,,,,,,,,,cyan,square
62.0,1.0,0.5,0.0,4.0,4.0,530.9863434329145,2.0,1.0,phase_1,,,,,,,,,,,,,gray,I
413.0,8.0,4.0,1.0,2.0,2.0,318.4086974329148,2.0,1.0,phase_1,,,,,,,,,,,,,cyan,square
97.0,6.0,1.0,1.0,4.0,4.0,509.52940581896655,2.0,1.0,phase_1,,,,,,,,,,,,,blue,diamond
0.0,1.0,0.0,0.0,4.0,4.0,467.4000056375007,2.0,1.0,phase_1,,,,,,,,,,,,,gray,I
64.0,1.0,0.5,0.0,4.0,4.0,533.0860780236435,2.0,1.0,phase_1,,,,,,,,,,,,,gray,I
27.0,1.0,0.5,0.0,2.0,2.0,365.1542338423041,2.0,1.0,phase_1,,,,,,,,,,,,,gray,I
220.0,3.0,2.0,0.0,1.0,1.0,536.3675126141061,2.0,1.0,phase_1,,,,,,,,,,,,,white,hexagon
182.0,3.0,2.0,0.0,2.0,2.0,491.6069944092669,2.0,1.0,phase_1,,,,,,,,,,,,,white,hexagon
116.0,6.0,1.0,1.0,1.0,1.0,593.7572964326137,2.0,1.0,phase_1,,,,,,,,,,,,,blue,diamond
67.0,5.0,0.5,1.0,4.0,4.0,413.8153242283806,2.0,1.0,phase_1,,,,,,,,,,,,,orange,triangle
113.0,2.0,1.0,0.0,3.0,3.0,412.7635088893839,2.0,1.0,phase_1,,,,,,,,,,,,,green,flipped triangle
88.0,6.0,1.0,1.0,4.0,4.0,650.214014298399,2.0,1.0,phase_1,,,,,,,,,,,,,blue,diamond
53.0,5.0,0.5,1.0,1.0,1.0,495.0731499998255,2.0,1.0,phase_1,,,,,,,,,,,,,orange,triangle
32.0,5.0,0.5,1.0,4.0,4.0,460.4860886847746,2.0,1.0,phase_1,,,,,,,,,,,,,orange,triangle
0.0,1.0,0.0,0.0,3.0,3.0,393.6286512985134,2.0,1.0,phase_1,,,,,,,,,,,,,gray,I
106.0,6.0,1.0,1.0,3.0,3.0,437.8859032049149,2.0,1.0,phase_1,,,,,,,,,,,,,blue,diamond
44.0,1.0,0.5,0.0,2.0,2.0,552.4388544095018,2.0,1.0,phase_1,,,,,,,,,,,,,gray,I
213.0,7.0,2.0,1.0,4.0,4.0,642.1195594330129,2.0,1.0,phase_1,,,,,,,,,,,,,yellow,circle
92.0,2.0,1.0,0.0,1.0,1.0,563.7607266380655,2.0,1.0,phase_1,,,,,,,,,,,,,green,flipped triangle
376.0,8.0,4.0,1.0,2.0,2.0,811.6806302050463,2.0,1.0,phase_1,,,,,,,,,,,,,cyan,square
180.0,3.0,2.0,0.0,3.0,3.0,395.3769190234197,2.0,1.0,phase_1,,,,,,,,,,,,,white,hexagon
104.0,6.0,1.0,1.0,4.0,4.0,464.3512744328291,2.0,1.0,phase_1,,,,,,,,,,,,,blue,diamond
380.0,4.0,4.0,0.0,1.0,1.0,397.9229618189492,2.0,1.0,phase_1,,,,,,,,,,,,,magenta,cross
204.0,7.0,2.0,1.0,1.0,1.0,611.6006088186623,2.0,1.0,phase_1,,,,,,,,,,,,,yellow,circle
412.0,4.0,4.0,0.0,3.0,3.0,544.6201524091521,2.0,1.0,phase_1,,,,,,,,,,,,,magenta,cross
59.0,5.0,0.5,1.0,2.0,2.0,478.3238348422856,2.0,1.0,phase_1,,,,,,,,,,,,,orange,triangle
215.0,7.0,2.0,1.0,2.0,2.0,445.1508030238074,2.0,1.0,phase_1,,,,,,,,,,,,,yellow,circle
175.0,7.0,2.0,1.0,4.0,4.0,422.7254216375513,2.0,1.0,phase_1,,,,,,,,,,,,,yellow,circle
0.0,4.0,0.0,0.0,4.0,4.0,536.0512812285378,2.0,1.0,phase_1,,,,,,,,,,,,,magenta,cross
193.0,3.0,2.0,0.0,4.0,4.0,447.2223976140412,2.0,1.0,phase_1,,,,,,,,,,,,,white,hexagon
78.0,6.0,1.0,1.0,3.0,3.0,367.827146023501,2.0,1.0,phase_1,,,,,,,,,,,,,blue,diamond
190.0,3.0,2.0,0.0,3.0,3.0,470.5190626377771,2.0,1.0,phase_1,,,,,,,,,,,,,white,hexagon
208.0,3.0,2.0,0.0,1.0,1.0,369.7355056142442,3.0,1.0,phase_1,,,,,,,,,,,,,white,hexagon
112.0,6.0,1.0,1.0,1.0,1.0,381.9822434093112,3.0,1.0,phase_1,,,,,,,,,,,,,blue,diamond
77.0,2.0,1.0,0.0,4.0,4.0,438.2894970235611,3.0,1.0,phase_1,,,,,,,,,,,,,green,flipped triangle
102.0,6.0,1.0,1.0,3.0,3.0,460.1658022047559,3.0,2.0,phase_1,,,,,,,,,,,,,blue,diamond
209.0,3.0,2.0,0.0,1.0,1.0,326.3454248185553,3.0,1.0,phase_1,,,,,,,,,,,,,white,hexagon
198.0,3.0,2.0,0.0,2.0,2.0,440.1687566141845,3.0,1.0,phase_1,,,,,,,,,,,,,white,hexagon
118.0,2.0,1.0,0.0,1.0,1.0,416.8012312052269,3.0,1.0,phase_1,,,,,,,,,,,,,green,flipped triangle
38.0,5.0,0.5,1.0,4.0,4.0,406.8666934090288,3.0,1.0,phase_1,,,,,,,,,,,,,orange,triangle
204.0,3.0,2.0,0.0,3.0,3.0,879.6493062282025,3.0,1.0,phase_1,,,,,,,,,,,,,white,hexagon
190.0,7.0,2.0,1.0,1.0,1.0,564.8272624093806,3.0,1.0,phase_1,,,,,,,,,,,,,yellow,circle
120.0,2.0,1.0,0.0,3.0,3.0,419.3592796145822,3.0,1.0,phase_1,,,,,,,,,,,,,green,flipped triangle
390.0,4.0,4.0,0.0,1.0,1.0,385.6905302286577,3.0,1.0,phase_1,,,,,,,,,,,,,magenta,cross
423.0,4.0,4.0,0.0,2.0,2.0,465.8368934328791,3.0,1.0,phase_1,,,,,,,,,,,,,magenta,cross
77.0,6.0,1.0,1.0,1.0,1.0,454.3543564327592,3.0,1.0,phase_1,,,,,,,,,,,,,blue,diamond
113.0,2.0,1.0,0.0,3.0,3.0,612.1409866141221,3.0,1.0,phase_1,,,,,,,,,,,,,green,flipped triangle
78.0,2.0,1.0,0.0,1.0,1.0,390.0213068186531,3.0,1.0,phase_1,,,,,,,,,,,,,green,flipped triangle
51.0,1.0,0.5,0.0,3.0,3.0,343.0250912047086,3.0,1.0,phase_1,,,,,,,,,,,,,gray,I
0.0,1.0,0.0,0.0,2.0,2.0,344.4873864091278,3.0,1.0,phase_1,,,,,,,,,,,,,gray,I
0.0,2.0,0.0,0.0,3.0,3.0,436.2091284092457,3.0,1.0,phase_1,,,,,,,,,,,,,green,flipped triangle
0.0,6.0,0.0,1.0,3.0,3.0,547.9392836141415,3.0,1.0,phase_1,,,,,,,,,,,,,blue,diamond
211.0,3.0,2.0,0.0,3.0,3.0,401.6258864094197,3.0,1.0,phase_1,,,,,,,,,,,,,white,hexagon
198.0,3.0,2.0,0.0,2.0,2.0,357.821500614591,3.0,1.0,phase_1,,,,,,,,,,,,,white,hexagon
380.0,8.0,4.0,1.0,4.0,4.0,685.9210866141439,3.0,2.0,phase_1,,,,,,,,,,,,,cyan,square
399.0,8.0,4.0,1.0,3.0,3.0,369.8905506139454,3.0,1.0,phase_1,,,,,,,,,,,,,cyan,square
73.0,5.0,0.5,1.0,3.0,3.0,495.1126110236146,3.0,1.0,phase_1,,,,,,,,,,,,,orange,triangle
383.0,4.0,4.0,0.0,4.0,4.0,507.0699804327887,3.0,1.0,phase_1,,,,,,,,,,,,,magenta,cross
64.0,5.0,0.5,1.0,2.0,2.0,440.2948942283728,3.0,2.0,phase_1,,,,,,,,,,,,,orange,triangle
83.0,6.0,1.0,1.0,4.0,4.0,361.644250205245,3.0,1.0,phase_1,,,,,,,,,,,,,blue,diamond
191.0,3.0,2.0,0.0,2.0,2.0,341.9530144092277,3.0,1.0,phase_1,,,,,,,,,,,,,white,hexagon
0.0,1.0,0.0,0.0,4.0,4.0,499.956069023483,3.0,1.0,phase_1,,,,,,,,,,,,,gray,I
400.0,4.0,4.0,0.0,3.0,3.0,352.5243404096727,3.0,1.0,phase_1,,,,,,,,,,,,,magenta,cross
215.0,3.0,2.0,0.0,4.0,4.0,499.0868392283119,3.0,1.0,phase_1,,,,,,,,,,,,,white,hexagon
0.0,4.0,0.0,0.0,3.0,3.0,522.0240814328463,3.0,1.0,phase_1,,,,,,,,,,,,,magenta,cross
204.0,7.0,2.0,1.0,4.0,4.0,366.65432440941,3.0,1.0,phase_1,,,,,,,,,,,,,yellow,circle
53.0,1.0,0.5,0.0,3.0,3.0,322.2350936375733,3.0,1.0,phase_1,,,,,,,,,,,,,gray,I
95.0,6.0,1.0,1.0,2.0,2.0,480.1527894092032,3.0,1.0,phase_1,,,,,,,,,,,,,blue,diamond
389.0,8.0,4.0,1.0,3.0,3.0,377.54965284239,3.0,1.0,phase_1,,,,,,,,,,,,,cyan,square
80.0,6.0,1.0,1.0,3.0,3.0,423.8542926141235,3.0,1.0,phase_1,,,,,,,,,,,,,blue,diamond
76.0,6.0,1.0,1.0,2.0,2.0,347.3294220234493,3.0,1.0,phase_1,,,,,,,,,,,,,blue,diamond
413.0,8.0,4.0,1.0,1.0,1.0,404.5069158187289,3.0,1.0,phase_1,,,,,,,,,,,,,cyan,square
422.0,8.0,4.0,1.0,2.0,2.0,436.7382340237782,3.0,1.0,phase_1,,,,,,,,,,,,,cyan,square
408.0,4.0,4.0,0.0,4.0,4.0,392.2811782285862,3.0,1.0,phase_1,,,,,,,,,,,,,magenta,cross
392.0,8.0,4.0,1.0,2.0,2.0,460.3267472048173,3.0,1.0,phase_1,,,,,,,,,,,,,cyan,square
39.0,5.0,0.5,1.0,3.0,3.0,359.8847690232105,3.0,1.0,phase_1,,,,,,,,,,,,,orange,triangle
0.0,6.0,0.0,1.0,2.0,2.0,438.8245902282506,3.0,1.0,phase_1,,,,,,,,,,,,,blue,diamond
0.0,6.0,0.0,1.0,4.0,4.0,450.303098614313,3.0,1.0,phase_1,,,,,,,,,,,,,blue,diamond
419.0,8.0,4.0,1.0,4.0,4.0,349.716931614239,3.0,1.0,phase_1,,,,,,,,,,,,,cyan,square
51.0,1.0,0.5,0.0,3.0,3.0,485.0206670234911,3.0,1.0,phase_1,,,,,,,,,,,,,gray,I
215.0,3.0,2.0,0.0,2.0,2.0,340.4068876375277,3.0,1.0,phase_1,,,,,,,,,,,,,white,hexagon
67.0,1.0,0.5,0.0,1.0,1.0,432.3715078421628,3.0,1.0,phase_1,,,,,,,,,,,,,gray,I
106.0,2.0,1.0,0.0,2.0,2.0,353.8311288189106,3.0,1.0,phase_1,,,,,,,,,,,,,green,flipped triangle
0.0,6.0,0.0,1.0,1.0,1.0,432.0487282284375,3.0,1.0,phase_1,,,,,,,,,,,,,blue,diamond
40.0,5.0,0.5,1.0,4.0,4.0,476.6388908424233,3.0,1.0,phase_1,,,,,,,,,,,,,orange,triangle
40.0,1.0,0.5,0.0,4.0,4.0,399.5800566140133,3.0,1.0,phase_1,,,,,,,,,,,,,gray,I
386.0,4.0,4.0,0.0,1.0,1.0,806.0978834096204,3.0,1.0,phase_1,,,,,,,,,,,,,magenta,cross
222.0,7.0,2.0,1.0,2.0,2.0,411.7852850235977,3.0,1.0,phase_1,,,,,,,,,,,,,yellow,circle
100.0,2.0,1.0,0.0,2.0,2.0,525.8619874089163,3.0,1.0,phase_1,,,,,,,,,,,,,green,flipped triangle
58.0,1.0,0.5,0.0,3.0,3.0,514.2091828420234,3.0,1.0,phase_1,,,,,,,,,,,,,gray,I
377.0,8.0,4.0,1.0,2.0,2.0,368.4853030235899,3.0,1.0,phase_1,,,,,,,,,,,,,cyan,square
0.0,5.0,0.0,1.0,1.0,1.0,426.8752960233541,3.0,2.0,phase_1,,,,,,,,,,,,,orange,triangle
412.0,8.0,4.0,1.0,1.0,1.0,505.9240298419354,3.0,1.0,phase_1,,,,,,,,,,,,,cyan,square
51.0,5.0,0.5,1.0,1.0,1.0,426.2407542282744,3.0,1.0,phase_1,,,,,,,,,,,,,orange,triangle
61.0,5.0,0.5,1.0,2.0,2.0,428.3603654325816,3.0,1.0,phase_1,,,,,,,,,,,,,orange,triangle
403.0,8.0,4.0,1.0,4.0,4.0,360.3451364092507,3.0,1.0,phase_1,,,,,,,,,,,,,cyan,square
400.0,8.0,4.0,1.0,1.0,1.0,384.4194555904323,3.0,1.0,phase_1,,,,,,,,,,,,,cyan,square
221.0,7.0,2.0,1.0,4.0,4.0,372.5220778424045,3.0,1.0,phase_1,,,,,,,,,,,,,yellow,circle
34.0,5.0,0.5,1.0,3.0,3.0,563.8384579997364,3.0,1.0,phase_1,,,,,,,,,,,,,orange,triangle
194.0,3.0,2.0,0.0,4.0,4.0,351.9960210232966,3.0,1.0,phase_1,,,,,,,,,,,,,white,hexagon
61.0,1.0,0.5,0.0,4.0,4.0,340.57578820466,3.0,1.0,phase_1,,,,,,,,,,,,,gray,I
106.0,2.0,1.0,0.0,1.0,1.0,387.4395906377685,3.0,1.0,phase_1,,,,,,,,,,,,,green,flipped triangle
422.0,8.0,4.0,1.0,1.0,1.0,421.8174318184537,3.0,1.0,phase_1,,,,,,,,,,,,,cyan,square
209.0,3.0,2.0,0.0,3.0,3.0,409.3322000235275,3.0,1.0,phase_1,,,,,,,,,,,,,white,hexagon
413.0,4.0,4.0,0.0,2.0,2.0,467.6072500233204,3.0,1.0,phase_1,,,,,,,,,,,,,magenta,cross
200.0,7.0,2.0,1.0,3.0,3.0,489.3284992281224,3.0,1.0,phase_1,,,,,,,,,,,,,yellow,circle
394.0,4.0,4.0,0.0,2.0,2.0,421.7809714327813,3.0,1.0,phase_1,,,,,,,,,,,,,magenta,cross
44.0,5.0,0.5,1.0,1.0,1.0,558.5254106140383,3.0,1.0,phase_1,,,,,,,,,,,,,orange,triangle
212.0,3.0,2.0,0.0,1.0,1.0,952.7303360232507,3.0,1.0,phase_1,,,,,,,,,,,,,white,hexagon
97.0,2.0,1.0,0.0,2.0,2.0,391.9546406377776,3.0,1.0,phase_1,,,,,,,,,,,,,green,flipped triangle
184.0,7.0,2.0,1.0,3.0,3.0,357.3642984329126,3.0,1.0,phase_1,,,,,,,,,,,,,yellow,circle
48.0,5.0,0.5,1.0,1.0,1.0,357.6754240002628,3.0,1.0,phase_1,,,,,,,,,,,,,orange,triangle
189.0,3.0,2.0,0.0,4.0,4.0,369.7118634090657,3.0,1.0,phase_1,,,,,,,,,,,,,white,hexagon
184.0,7.0,2.0,1.0,3.0,3.0,427.4406296140114,3.0,1.0,phase_1,,,,,,,,,,,,,yellow,circle
419.0,8.0,4.0,1.0,4.0,4.0,360.5548596378867,3.0,1.0,phase_1,,,,,,,,,,,,,cyan,square
34.0,1.0,0.5,0.0,1.0,1.0,359.8885346141287,3.0,1.0,phase_1,,,,,,,,,,,,,gray,I
39.0,5.0,0.5,1.0,2.0,2.0,460.9222660233172,3.0,1.0,phase_1,,,,,,,,,,,,,orange,triangle
30.0,1.0,0.5,0.0,2.0,2.0,496.763762228511,3.0,1.0,phase_1,,,,,,,,,,,,,gray,I
383.0,4.0,4.0,0.0,4.0,4.0,349.2329382052048,3.0,1.0,phase_1,,,,,,,,,,,,,magenta,cross
183.0,7.0,2.0,1.0,4.0,4.0,507.77066861428466,3.0,1.0,phase_1,,,,,,,,,,,,,yellow,circle
38.0,1.0,0.5,0.0,2.0,2.0,520.4496854094032,3.0,1.0,phase_1,,,,,,,,,,,,,gray,I
0.0,8.0,0.0,1.0,4.0,4.0,397.8762114329583,3.0,1.0,phase_1,,,,,,,,,,,,,cyan,square
217.0,3.0,2.0,0.0,2.0,2.0,486.9223208188487,3.0,1.0,phase_1,,,,,,,,,,,,,white,hexagon
106.0,6.0,1.0,1.0,1.0,1.0,487.680139638087,3.0,1.0,phase_1,,,,,,,,,,,,,blue,diamond
217.0,7.0,2.0,1.0,2.0,2.0,432.0516284092264,3.0,1.0,phase_1,,,,,,,,,,,,,yellow,circle
403.0,4.0,4.0,0.0,4.0,4.0,443.7205058425206,3.0,1.0,phase_1,,,,,,,,,,,,,magenta,cross
0.0,5.0,0.0,1.0,2.0,2.0,354.7271680236008,3.0,1.0,phase_1,,,,,,,,,,,,,orange,triangle
94.0,6.0,1.0,1.0,3.0,3.0,378.5978018422611,3.0,1.0,phase_1,,,,,,,,,,,,,blue,diamond
418.0,8.0,4.0,1.0,3.0,3.0,434.2669256143381,3.0,1.0,phase_1,,,,,,,,,,,,,cyan,square
190.0,7.0,2.0,1.0,2.0,2.0,356.3782146379708,3.0,1.0,phase_1,,,,,,,,,,,,,yellow,circle
0.0,1.0,0.0,0.0,3.0,3.0,334.0756352044991,3.0,1.0,phase_1,,,,,,,,,,,,,gray,I
61.0,5.0,0.5,1.0,2.0,2.0,368.9042824089483,3.0,1.0,phase_1,,,,,,,,,,,,,orange,triangle
0.0,3.0,0.0,0.0,2.0,2.0,375.822846023766,4.0,1.0,phase_1,,,,,,,,,,,,,white,hexagon
207.0,3.0,2.0,0.0,4.0,4.0,343.6520440236563,4.0,1.0,phase_1,,,,,,,,,,,,,white,hexagon
408.0,4.0,4.0,0.0,4.0,4.0,399.2865508421346,4.0,1.0,phase_1,,,,,,,,,,,,,magenta,cross
74.0,5.0,0.5,1.0,2.0,2.0,378.6968636145502,4.0,1.0,phase_1,,,,,,,,,,,,,orange,triangle
215.0,7.0,2.0,1.0,2.0,2.0,379.4900002048962,4.0,1.0,phase_1,,,,,,,,,,,,,yellow,circle
182.0,7.0,2.0,1.0,3.0,3.0,358.0848222050008,4.0,1.0,phase_1,,,,,,,,,,,,,yellow,circle
212.0,7.0,2.0,1.0,4.0,4.0,356.840069023292,4.0,1.0,phase_1,,,,,,,,,,,,,yellow,circle
0.0,5.0,0.0,1.0,2.0,2.0,437.2803888418275,4.0,1.0,phase_1,,,,,,,,,,,,,orange,triangle
199.0,7.0,2.0,1.0,1.0,1.0,381.8904650233889,4.0,1.0,phase_1,,,,,,,,,,,,,yellow,circle
398.0,4.0,4.0,0.0,1.0,1.0,382.8443426141348,4.0,1.0,phase_1,,,,,,,,,,,,,magenta,cross
103.0,6.0,1.0,1.0,4.0,4.0,425.7756898186926,4.0,1.0,phase_1,,,,,,,,,,,,,blue,diamond
102.0,2.0,1.0,0.0,1.0,1.0,472.043721432783,4.0,1.0,phase_1,,,,,,,,,,,,,green,flipped triangle
392.0,4.0,4.0,0.0,2.0,2.0,384.1167884093011,4.0,1.0,phase_1,,,,,,,,,,,,,magenta,cross
393.0,4.0,4.0,0.0,3.0,3.0,316.6837582284643,4.0,1.0,phase_1,,,,,,,,,,,,,magenta,cross
48.0,1.0,0.5,0.0,3.0,3.0,394.0214022281907,4.0,1.0,phase_1,,,,,,,,,,,,,gray,I
212.0,7.0,2.0,1.0,3.0,3.0,383.7172170233316,4.0,1.0,phase_1,,,,,,,,,,,,,yellow,circle
87.0,2.0,1.0,0.0,4.0,4.0,430.6450822050465,4.0,1.0,phase_1,,,,,,,,,,,,,green,flipped triangle
408.0,8.0,4.0,1.0,4.0,4.0,419.3577774331061,4.0,1.0,phase_1,,,,,,,,,,,,,cyan,square
0.0,2.0,0.0,0.0,1.0,1.0,397.0308496141115,4.0,1.0,phase_1,,,,,,,,,,,,,green,flipped triangle
122.0,2.0,1.0,0.0,2.0,2.0,431.4589344089654,4.0,1.0,phase_1,,,,,,,,,,,,,green,flipped triangle
422.0,4.0,4.0,0.0,4.0,4.0,477.3192344091512,4.0,1.0,phase_1,,,,,,,,,,,,,magenta,cross
0.0,7.0,0.0,1.0,1.0,1.0,365.2100054091534,4.0,1.0,phase_1,,,,,,,,,,,,,yellow,circle
107.0,6.0,1.0,1.0,1.0,1.0,342.8397782049615,4.0,1.0,phase_1,,,,,,,,,,,,,blue,diamond
64.0,1.0,0.5,0.0,3.0,3.0,376.6028230234042,4.0,1.0,phase_1,,,,,,,,,,,,,gray,I
0.0,6.0,0.0,1.0,3.0,3.0,422.7351644331065,4.0,1.0,phase_1,,,,,,,,,,,,,blue,diamond
92.0,6.0,1.0,1.0,4.0,4.0,457.8683012287001,4.0,1.0,phase_1,,,,,,,,,,,,,blue,diamond
61.0,1.0,0.5,0.0,1.0,1.0,311.3724556142188,4.0,1.0,phase_1,,,,,,,,,,,,,gray,I
48.0,1.0,0.5,0.0,2.0,2.0,390.8401452285943,4.0,1.0,phase_1,,,,,,,,,,,,,gray,I
213.0,3.0,2.0,0.0,2.0,2.0,346.426728818642,4.0,1.0,phase_1,,,,,,,,,,,,,white,hexagon
201.0,7.0,2.0,1.0,1.0,1.0,505.80781863754964,4.0,1.0,phase_1,,,,,,,,,,,,,yellow,circle
0.0,4.0,0.0,0.0,2.0,2.0,359.0699604092151,4.0,1.0,phase_1,,,,,,,,,,,,,magenta,cross
0.0,2.0,0.0,0.0,1.0,1.0,493.8984050236286,4.0,1.0,phase_1,,,,,,,,,,,,,green,flipped triangle
62.0,5.0,0.5,1.0,2.0,2.0,438.8377824325289,4.0,1.0,phase_1,,,,,,,,,,,,,orange,triangle
28.0,5.0,0.5,1.0,3.0,3.0,336.955544614284,4.0,1.0,phase_1,,,,,,,,,,,,,orange,triangle
418.0,4.0,4.0,0.0,2.0,2.0,315.5377542047972,4.0,1.0,phase_1,,,,,,,,,,,,,magenta,cross
377.0,4.0,4.0,0.0,4.0,4.0,339.1740384327022,4.0,1.0,phase_1,,,,,,,,,,,,,magenta,cross
398.0,8.0,4.0,1.0,3.0,3.0,339.562842023497,4.0,1.0,phase_1,,,,,,,,,,,,,cyan,square
27.0,5.0,0.5,1.0,3.0,3.0,407.2373784092633,4.0,1.0,phase_1,,,,,,,,,,,,,orange,triangle
194.0,7.0,2.0,1.0,3.0,3.0,407.0185394093641,4.0,1.0,phase_1,,,,,,,,,,,,,yellow,circle
95.0,2.0,1.0,0.0,3.0,3.0,363.1940832046894,4.0,1.0,phase_1,,,,,,,,,,,,,green,flipped triangle
92.0,2.0,1.0,0.0,3.0,3.0,397.4810859999707,4.0,1.0,phase_1,,,,,,,,,,,,,green,flipped triangle
185.0,7.0,2.0,1.0,1.0,1.0,466.6168479998305,4.0,1.0,phase_1,,,,,,,,,,,,,yellow,circle
119.0,2.0,1.0,0.0,4.0,4.0,364.4295410231279,4.0,1.0,phase_1,,,,,,,,,,,,,green,flipped triangle
106.0,2.0,1.0,0.0,3.0,3.0,377.2656626379103,4.0,1.0,phase_1,,,,,,,,,,,,,green,flipped triangle
117.0,2.0,1.0,0.0,2.0,2.0,401.7135934091129,4.0,1.0,phase_1,,,,,,,,,,,,,green,flipped triangle
118.0,6.0,1.0,1.0,3.0,3.0,320.9652302284667,4.0,1.0,phase_1,,,,,,,,,,,,,blue,diamond
27.0,1.0,0.5,0.0,4.0,4.0,321.7105720232212,4.0,1.0,phase_1,,,,,,,,,,,,,gray,I
32.0,1.0,0.5,0.0,1.0,1.0,312.9726130232484,4.0,1.0,phase_1,,,,,,,,,,,,,gray,I
67.0,1.0,0.5,0.0,3.0,3.0,459.556858614178,4.0,1.0,phase_1,,,,,,,,,,,,,gray,I
0.0,7.0,0.0,1.0,1.0,1.0,403.1029254092573,4.0,1.0,phase_1,,,,,,,,,,,,,yellow,circle
198.0,7.0,2.0,1.0,4.0,4.0,393.7118648186697,4.0,1.0,phase_1,,,,,,,,,,,,,yellow,circle
113.0,6.0,1.0,1.0,1.0,1.0,393.5811866144831,4.0,1.0,phase_1,,,,,,,,,,,,,blue,diamond
379.0,4.0,4.0,0.0,1.0,1.0,394.6971998184381,4.0,1.0,phase_1,,,,,,,,,,,,,magenta,cross
120.0,6.0,1.0,1.0,1.0,1.0,395.2020298188472,4.0,1.0,phase_1,,,,,,,,,,,,,blue,diamond
184.0,3.0,2.0,0.0,3.0,3.0,337.3085649996028,4.0,1.0,phase_1,,,,,,,,,,,,,white,hexagon
122.0,6.0,1.0,1.0,2.0,2.0,452.5850524328234,4.0,1.0,phase_1,,,,,,,,,,,,,blue,diamond
0.0,3.0,0.0,0.0,4.0,4.0,361.4059968185756,4.0,1.0,phase_1,,,,,,,,,,,,,white,hexagon
0.0,4.0,0.0,0.0,1.0,1.0,520.0414800237922,4.0,1.0,phase_1,,,,,,,,,,,,,magenta,cross
0.0,8.0,0.0,1.0,4.0,4.0,361.9641650234371,4.0,1.0,phase_1,,,,,,,,,,,,,cyan,square
87.0,6.0,1.0,1.0,3.0,3.0,362.5086130232375,4.0,1.0,phase_1,,,,,,,,,,,,,blue,diamond
49.0,5.0,0.5,1.0,3.0,3.0,453.0340192050062,4.0,1.0,phase_1,,,,,,,,,,,,,orange,triangle
402.0,4.0,4.0,0.0,1.0,1.0,365.0774724092116,4.0,1.0,phase_1,,,,,,,,,,,,,magenta,cross
0.0,5.0,0.0,1.0,2.0,2.0,432.4248754091968,4.0,1.0,phase_1,,,,,,,,,,,,,orange,triangle
187.0,3.0,2.0,0.0,4.0,4.0,377.6861030237342,4.0,1.0,phase_1,,,,,,,,,,,,,white,hexagon
75.0,5.0,0.5,1.0,4.0,4.0,489.7057052048694,4.0,1.0,phase_1,,,,,,,,,,,,,orange,triangle
376.0,4.0,4.0,0.0,1.0,1.0,399.947898204573,4.0,1.0,phase_1,,,,,,,,,,,,,magenta,cross
394.0,8.0,4.0,1.0,1.0,1.0,323.6746292045609,4.0,1.0,phase_1,,,,,,,,,,,,,cyan,square
0.0,6.0,0.0,1.0,4.0,4.0,490.6650498187446,4.0,1.0,phase_1,,,,,,,,,,,,,blue,diamond
402.0,8.0,4.0,1.0,3.0,3.0,380.36657779503,4.0,1.0,phase_1,,,,,,,,,,,,,cyan,square
67.0,1.0,0.5,0.0,3.0,3.0,368.2874972046193,4.0,1.0,phase_1,,,,,,,,,,,,,gray,I
386.0,8.0,4.0,1.0,4.0,4.0,672.3976522052908,4.0,1.0,phase_1,,,,,,,,,,,,,cyan,square
58.0,5.0,0.5,1.0,1.0,1.0,303.6601060234716,4.0,1.0,phase_1,,,,,,,,,,,,,orange,triangle
77.0,6.0,1.0,1.0,4.0,4.0,336.5774444096132,4.0,1.0,phase_1,,,,,,,,,,,,,blue,diamond
119.0,6.0,1.0,1.0,2.0,2.0,359.5521930237737,4.0,1.0,phase_1,,,,,,,,,,,,,blue,diamond
0.0,1.0,0.0,0.0,4.0,4.0,384.060533614047,4.0,1.0,phase_1,,,,,,,,,,,,,gray,I
178.0,3.0,2.0,0.0,2.0,2.0,484.8356816141859,4.0,1.0,phase_1,,,,,,,,,,,,,white,hexagon
0.0,2.0,0.0,0.0,3.0,3.0,384.6813748186832,4.0,1.0,phase_1,,,,,,,,,,,,,green,flipped triangle
105.0,2.0,1.0,0.0,1.0,1.0,305.5625172050895,4.0,1.0,phase_1,,,,,,,,,,,,,green,flipped triangle
392.0,4.0,4.0,0.0,3.0,3.0,361.6140956141862,4.0,1.0,phase_1,,,,,,,,,,,,,magenta,cross
399.0,4.0,4.0,0.0,4.0,4.0,351.3734586140344,4.0,1.0,phase_1,,,,,,,,,,,,,magenta,cross
0.0,4.0,0.0,0.0,3.0,3.0,341.2579610235298,4.0,1.0,phase_1,,,,,,,,,,,,,magenta,cross
220.0,7.0,2.0,1.0,3.0,3.0,374.3944078187269,4.0,1.0,phase_1,,,,,,,,,,,,,yellow,circle
0.0,8.0,0.0,1.0,3.0,3.0,432.8703538185436,4.0,1.0,phase_1,,,,,,,,,,,,,cyan,square
0.0,3.0,0.0,0.0,3.0,3.0,466.7516616141256,4.0,1.0,phase_1,,,,,,,,,,,,,white,hexagon
39.0,1.0,0.5,0.0,2.0,2.0,399.6787580235832,4.0,1.0,phase_1,,,,,,,,,,,,,gray,I
180.0,7.0,2.0,1.0,2.0,2.0,435.0980758185869,4.0,1.0,phase_1,,,,,,,,,,,,,yellow,circle
0.0,3.0,0.0,0.0,3.0,3.0,378.7790094329466,4.0,1.0,phase_1,,,,,,,,,,,,,white,hexagon
408.0,8.0,4.0,1.0,1.0,1.0,333.5399078423506,4.0,1.0,phase_1,,,,,,,,,,,,,cyan,square
39.0,1.0,0.5,0.0,1.0,1.0,401.0979012282405,4.0,1.0,phase_1,,,,,,,,,,,,,gray,I
197.0,7.0,2.0,1.0,2.0,2.0,481.0348056143994,4.0,1.0,phase_1,,,,,,,,,,,,,yellow,circle
0.0,1.0,0.0,0.0,4.0,4.0,379.3085679999421,4.0,1.0,phase_1,,,,,,,,,,,,,gray,I
0.0,6.0,0.0,1.0,1.0,1.0,369.5928646138782,4.0,1.0,phase_1,,,,,,,,,,,,,blue,diamond
32.0,5.0,0.5,1.0,1.0,1.0,371.5260904095885,4.0,1.0,phase_1,,,,,,,,,,,,,orange,triangle
221.0,3.0,2.0,0.0,1.0,1.0,382.7774126380063,4.0,1.0,phase_1,,,,,,,,,,,,,white,hexagon
67.0,5.0,0.5,1.0,2.0,2.0,314.3500870232856,4.0,1.0,phase_1,,,,,,,,,,,,,orange,triangle
394.0,8.0,4.0,1.0,4.0,4.0,338.2895078184447,4.0,1.0,phase_1,,,,,,,,,,,,,cyan,square
40.0,1.0,0.5,0.0,2.0,2.0,373.3252532283586,4.0,1.0,phase_1,,,,,,,,,,,,,gray,I
45.0,1.0,0.5,0.0,3.0,3.0,552.0654170236412,4.0,1.0,phase_1,,,,,,,,,,,,,gray,I
103.0,2.0,1.0,0.0,4.0,4.0,440.9081190237884,4.0,2.0,phase_1,,,,,,,,,,,,,green,flipped triangle
47.0,1.0,0.5,0.0,1.0,1.0,397.9003890235617,4.0,1.0,phase_1,,,,,,,,,,,,,gray,I
0.0,7.0,2.0,1.0,6.0,0.0,0.0,1.0,1.0,phase_2,stop,250.0,250.0,4.0,,,,,,,,,yellow,circle
0.0,6.0,1.0,1.0,5.0,5.0,336.5978199190067,1.0,1.0,phase_2,stop,250.0,300.0,3.0,,,,,,,,,blue,diamond
0.0,2.0,1.0,0.0,5.0,5.0,360.403411000334,1.0,1.0,phase_2,go,200.0,300.0,1.0,,,,,,,,,green,flipped triangle
0.0,7.0,2.0,1.0,6.0,6.0,293.1112880401088,1.0,1.0,phase_2,go,200.0,300.0,1.0,,,,,,,,,yellow,circle
0.0,1.0,0.5,0.0,5.0,5.0,373.7293259191574,1.0,1.0,phase_2,go,200.0,300.0,1.0,,,,,,,,,gray,I
0.0,1.0,0.5,0.0,6.0,6.0,328.9647510000577,1.0,1.0,phase_2,go,200.0,300.0,1.0,,,,,,,,,gray,I
0.0,4.0,4.0,0.0,6.0,6.0,723.4228677575629,1.0,1.0,phase_2,go,200.0,300.0,1.0,,,,,,,,,magenta,cross
0.0,8.0,4.0,1.0,6.0,6.0,321.1392719595096,1.0,1.0,phase_2,stop,200.0,300.0,3.0,,,,,,,,,cyan,square
0.0,5.0,0.5,1.0,6.0,6.0,669.5734337986323,1.0,1.0,phase_2,stop,200.0,250.0,3.0,,,,,,,,,orange,triangle
0.0,1.0,0.5,0.0,6.0,6.0,625.0169309191733,1.0,1.0,phase_2,go,200.0,200.0,1.0,,,,,,,,,gray,I
0.0,4.0,4.0,0.0,6.0,6.0,693.1940199192468,1.0,1.0,phase_2,go,200.0,200.0,1.0,,,,,,,,,magenta,cross
0.0,8.0,4.0,1.0,6.0,6.0,446.4687097984097,1.0,1.0,phase_2,go,200.0,200.0,1.0,,,,,,,,,cyan,square
0.0,8.0,4.0,1.0,6.0,6.0,695.5077197981154,1.0,1.0,phase_2,go,200.0,200.0,1.0,,,,,,,,,cyan,square
0.0,4.0,4.0,0.0,5.0,5.0,449.6517757579568,1.0,1.0,phase_2,go,200.0,200.0,1.0,,,,,,,,,magenta,cross
0.0,3.0,2.0,0.0,6.0,6.0,426.3673398390892,1.0,1.0,phase_2,go,200.0,200.0,1.0,,,,,,,,,white,hexagon
0.0,4.0,4.0,0.0,5.0,5.0,575.025460919278,1.0,1.0,phase_2,go,200.0,200.0,1.0,,,,,,,,,magenta,cross
0.0,8.0,4.0,1.0,5.0,5.0,394.6712449596816,1.0,1.0,phase_2,go,200.0,200.0,1.0,,,,,,,,,cyan,square
0.0,8.0,4.0,1.0,6.0,0.0,0.0,1.0,1.0,phase_2,stop,200.0,200.0,4.0,,,,,,,,,cyan,square
0.0,2.0,1.0,0.0,6.0,6.0,485.79472495976,1.0,1.0,phase_2,go,200.0,250.0,1.0,,,,,,,,,green,flipped triangle
0.0,2.0,1.0,0.0,5.0,5.0,555.3502016773564,1.0,1.0,phase_2,go,200.0,250.0,1.0,,,,,,,,,green,flipped triangle
0.0,6.0,1.0,1.0,5.0,5.0,454.1285828790933,1.0,1.0,phase_2,go,200.0,250.0,1.0,,,,,,,,,blue,diamond
0.0,3.0,2.0,0.0,6.0,6.0,433.7396416772208,1.0,1.0,phase_2,go,200.0,250.0,1.0,,,,,,,,,white,hexagon
0.0,5.0,0.5,1.0,6.0,0.0,0.0,1.0,1.0,phase_2,stop,200.0,250.0,4.0,,,,,,,,,orange,triangle
0.0,2.0,1.0,0.0,6.0,6.0,591.7457078389816,1.0,1.0,phase_2,go,200.0,300.0,1.0,,,,,,,,,green,flipped triangle
0.0,3.0,2.0,0.0,6.0,6.0,378.2552879997638,1.0,1.0,phase_2,go,200.0,300.0,1.0,,,,,,,,,white,hexagon
0.0,2.0,1.0,0.0,5.0,5.0,414.1917068386647,1.0,1.0,phase_2,go,200.0,300.0,1.0,,,,,,,,,green,flipped triangle
0.0,7.0,2.0,1.0,5.0,5.0,359.3008878788168,1.0,1.0,phase_2,go,200.0,300.0,1.0,,,,,,,,,yellow,circle
0.0,8.0,4.0,1.0,5.0,5.0,426.1122697175779,1.0,1.0,phase_2,go,200.0,300.0,1.0,,,,,,,,,cyan,square
0.0,3.0,2.0,0.0,5.0,5.0,551.4739797176844,1.0,1.0,phase_2,go,200.0,300.0,1.0,,,,,,,,,white,hexagon
0.0,2.0,1.0,0.0,6.0,6.0,326.8461579191353,1.0,1.0,phase_2,go,200.0,300.0,1.0,,,,,,,,,green,flipped triangle
0.0,7.0,2.0,1.0,5.0,5.0,349.7261206771327,1.0,1.0,phase_2,stop,200.0,300.0,3.0,,,,,,,,,yellow,circle
0.0,3.0,2.0,0.0,5.0,5.0,531.0509537580401,1.0,1.0,phase_2,go,150.0,300.0,1.0,,,,,,,,,white,hexagon
0.0,7.0,2.0,1.0,5.0,0.0,0.0,1.0,1.0,phase_2,stop,150.0,300.0,4.0,,,,,,,,,yellow,circle
0.0,5.0,0.5,1.0,6.0,0.0,0.0,1.0,1.0,phase_2,stop,200.0,300.0,4.0,,,,,,,,,orange,triangle
0.0,2.0,1.0,0.0,5.0,5.0,398.9482576371301,1.0,1.0,phase_2,go,200.0,350.0,1.0,,,,,,,,,green,flipped triangle
0.0,7.0,2.0,1.0,6.0,6.0,363.3633277577246,1.0,1.0,phase_2,stop,200.0,350.0,3.0,,,,,,,,,yellow,circle
0.0,2.0,1.0,0.0,5.0,5.0,591.4503937983682,2.0,1.0,phase_2,go,200.0,300.0,1.0,,,,,,,,,green,flipped triangle
0.0,5.0,0.5,1.0,5.0,5.0,345.8335345967498,2.0,1.0,phase_2,stop,200.0,300.0,3.0,,,,,,,,,orange,triangle
0.0,3.0,2.0,0.0,5.0,5.0,468.9187257986305,2.0,1.0,phase_2,go,150.0,300.0,1.0,,,,,,,,,white,hexagon
0.0,7.0,2.0,1.0,6.0,0.0,0.0,2.0,1.0,phase_2,stop,150.0,300.0,4.0,,,,,,,,,yellow,circle
0.0,3.0,2.0,0.0,5.0,5.0,370.6789349189421,2.0,1.0,phase_2,go,150.0,350.0,1.0,,,,,,,,,white,hexagon
0.0,4.0,4.0,0.0,5.0,5.0,482.6217106369768,2.0,1.0,phase_2,go,150.0,350.0,1.0,,,,,,,,,magenta,cross
0.0,6.0,1.0,1.0,6.0,6.0,427.5037028792212,2.0,1.0,phase_2,go,150.0,350.0,1.0,,,,,,,,,blue,diamond
0.0,4.0,4.0,0.0,5.0,5.0,405.6244180001158,2.0,1.0,phase_2,go,150.0,350.0,1.0,,,,,,,,,magenta,cross
0.0,1.0,0.5,0.0,6.0,6.0,339.7370337984284,2.0,1.0,phase_2,go,150.0,350.0,1.0,,,,,,,,,gray,I
0.0,8.0,4.0,1.0,6.0,6.0,474.6436768791682,2.0,1.0,phase_2,stop,150.0,350.0,3.0,,,,,,,,,cyan,square
0.0,1.0,0.5,0.0,5.0,5.0,544.8643629188155,2.0,1.0,phase_2,go,150.0,300.0,1.0,,,,,,,,,gray,I
0.0,6.0,1.0,1.0,5.0,0.0,0.0,2.0,1.0,phase_2,stop,150.0,300.0,4.0,,,,,,,,,blue,diamond
0.0,8.0,4.0,1.0,5.0,5.0,625.2709487985157,2.0,1.0,phase_2,go,200.0,300.0,1.0,,,,,,,,,cyan,square
0.0,5.0,0.5,1.0,5.0,5.0,378.4369797581348,2.0,1.0,phase_2,stop,200.0,300.0,3.0,,,,,,,,,orange,triangle
0.0,5.0,0.5,1.0,5.0,5.0,378.1207388387884,2.0,1.0,phase_2,go,150.0,300.0,1.0,,,,,,,,,orange,triangle
0.0,3.0,2.0,0.0,6.0,6.0,446.0601468790628,2.0,1.0,phase_2,go,150.0,300.0,1.0,,,,,,,,,white,hexagon
0.0,6.0,1.0,1.0,5.0,0.0,0.0,2.0,1.0,phase_2,stop,150.0,300.0,4.0,,,,,,,,,blue,diamond
0.0,5.0,0.5,1.0,6.0,6.0,483.3248987984007,2.0,1.0,phase_2,stop,200.0,300.0,3.0,,,,,,,,,orange,triangle
0.0,2.0,1.0,0.0,6.0,6.0,596.3793349596926,2.0,1.0,phase_2,go,200.0,250.0,1.0,,,,,,,,,green,flipped triangle
0.0,8.0,4.0,1.0,6.0,0.0,0.0,2.0,1.0,phase_2,stop,200.0,250.0,4.0,,,,,,,,,cyan,square
0.0,1.0,0.5,0.0,6.0,6.0,935.1597288386984,2.0,1.0,phase_2,go,200.0,300.0,1.0,,,,,,,,,gray,I
0.0,6.0,1.0,1.0,5.0,0.0,0.0,2.0,1.0,phase_2,stop,200.0,300.0,4.0,,,,,,,,,blue,diamond
0.0,7.0,2.0,1.0,5.0,0.0,0.0,2.0,1.0,phase_2,stop,250.0,300.0,4.0,,,,,,,,,yellow,circle
0.0,4.0,4.0,0.0,5.0,5.0,374.4061590000456,2.0,1.0,phase_2,go,300.0,300.0,1.0,,,,,,,,,magenta,cross
0.0,3.0,2.0,0.0,6.0,6.0,454.2397798786624,2.0,1.0,phase_2,go,300.0,300.0,1.0,,,,,,,,,white,hexagon
0.0,6.0,1.0,1.0,6.0,6.0,364.4270547983979,2.0,1.0,phase_2,go,300.0,300.0,1.0,,,,,,,,,blue,diamond
0.0,7.0,2.0,1.0,5.0,0.0,0.0,2.0,1.0,phase_2,stop,300.0,300.0,4.0,,,,,,,,,yellow,circle
0.0,7.0,2.0,1.0,6.0,0.0,0.0,2.0,1.0,phase_2,stop,350.0,300.0,4.0,,,,,,,,,yellow,circle
0.0,5.0,0.5,1.0,5.0,5.0,445.9077377173344,2.0,1.0,phase_2,go,350.0,350.0,1.0,,,,,,,,,orange,triangle
0.0,2.0,1.0,0.0,6.0,6.0,311.4806138387394,2.0,1.0,phase_2,go,350.0,350.0,1.0,,,,,,,,,green,flipped triangle
0.0,2.0,1.0,0.0,6.0,6.0,335.1748867576134,2.0,1.0,phase_2,go,350.0,350.0,1.0,,,,,,,,,green,flipped triangle
0.0,7.0,2.0,1.0,5.0,5.0,404.0211197175267,2.0,1.0,phase_2,stop,350.0,350.0,3.0,,,,,,,,,yellow,circle
0.0,1.0,0.5,0.0,5.0,5.0,516.1169620405417,2.0,1.0,phase_2,go,300.0,350.0,1.0,,,,,,,,,gray,I
0.0,7.0,2.0,1.0,5.0,5.0,370.8780817987644,2.0,1.0,phase_2,go,300.0,350.0,1.0,,,,,,,,,yellow,circle
0.0,1.0,0.5,0.0,6.0,6.0,439.5702719598375,2.0,1.0,phase_2,go,300.0,350.0,1.0,,,,,,,,,gray,I
0.0,8.0,4.0,1.0,6.0,6.0,451.5330476774579,2.0,1.0,phase_2,stop,300.0,350.0,3.0,,,,,,,,,cyan,square
0.0,2.0,1.0,0.0,5.0,5.0,550.7811737174961,3.0,1.0,phase_2,go,300.0,300.0,1.0,,,,,,,,,green,flipped triangle
0.0,8.0,4.0,1.0,5.0,5.0,439.6967168386254,3.0,1.0,phase_2,stop,300.0,300.0,3.0,,,,,,,,,cyan,square
0.0,7.0,2.0,1.0,5.0,5.0,407.6395318388677,3.0,1.0,phase_2,go,250.0,300.0,1.0,,,,,,,,,yellow,circle
0.0,7.0,2.0,1.0,5.0,5.0,350.287135878716,3.0,1.0,phase_2,stop,250.0,300.0,3.0,,,,,,,,,yellow,circle
0.0,1.0,0.5,0.0,6.0,6.0,329.9737987581466,3.0,1.0,phase_2,go,200.0,300.0,1.0,,,,,,,,,gray,I
0.0,6.0,1.0,1.0,6.0,6.0,364.5440548384613,3.0,1.0,phase_2,stop,200.0,300.0,3.0,,,,,,,,,blue,diamond
0.0,7.0,2.0,1.0,6.0,0.0,0.0,3.0,1.0,phase_2,stop,200.0,250.0,4.0,,,,,,,,,yellow,circle
0.0,6.0,1.0,1.0,6.0,0.0,0.0,3.0,1.0,phase_2,stop,200.0,300.0,4.0,,,,,,,,,blue,diamond
0.0,3.0,2.0,0.0,5.0,5.0,579.7875378789286,3.0,1.0,phase_2,go,200.0,350.0,1.0,,,,,,,,,white,hexagon
0.0,8.0,4.0,1.0,6.0,6.0,446.8266377575673,3.0,1.0,phase_2,go,200.0,350.0,1.0,,,,,,,,,cyan,square
0.0,7.0,2.0,1.0,5.0,5.0,413.9273428386332,3.0,1.0,phase_2,go,200.0,350.0,1.0,,,,,,,,,yellow,circle
0.0,3.0,2.0,0.0,6.0,6.0,324.2158739999468,3.0,1.0,phase_2,go,200.0,350.0,1.0,,,,,,,,,white,hexagon
0.0,6.0,1.0,1.0,6.0,6.0,324.3527128383903,3.0,1.0,phase_2,stop,200.0,350.0,3.0,,,,,,,,,blue,diamond
0.0,7.0,2.0,1.0,5.0,0.0,0.0,3.0,1.0,phase_2,stop,200.0,300.0,4.0,,,,,,,,,yellow,circle
0.0,4.0,4.0,0.0,5.0,5.0,574.8239710001144,3.0,1.0,phase_2,go,250.0,300.0,1.0,,,,,,,,,magenta,cross
0.0,2.0,1.0,0.0,5.0,5.0,519.0463159192404,3.0,1.0,phase_2,go,250.0,300.0,1.0,,,,,,,,,green,flipped triangle
0.0,5.0,0.5,1.0,5.0,5.0,429.2309707579989,3.0,1.0,phase_2,stop,250.0,300.0,3.0,,,,,,,,,orange,triangle
0.0,6.0,1.0,1.0,6.0,6.0,375.1356020002276,3.0,1.0,phase_2,stop,200.0,300.0,3.0,,,,,,,,,blue,diamond
0.0,3.0,2.0,0.0,6.0,6.0,576.9736239190024,3.0,1.0,phase_2,go,200.0,250.0,1.0,,,,,,,,,white,hexagon
0.0,7.0,2.0,1.0,6.0,6.0,374.9600168384859,3.0,1.0,phase_2,stop,200.0,250.0,3.0,,,,,,,,,yellow,circle
0.0,8.0,4.0,1.0,5.0,0.0,0.0,3.0,1.0,phase_2,stop,200.0,200.0,4.0,,,,,,,,,cyan,square
0.0,4.0,4.0,0.0,6.0,6.0,545.8804807176421,3.0,1.0,phase_2,go,250.0,200.0,1.0,,,,,,,,,magenta,cross
0.0,8.0,4.0,1.0,5.0,0.0,0.0,3.0,1.0,phase_2,stop,250.0,200.0,4.0,,,,,,,,,cyan,square
0.0,7.0,2.0,1.0,6.0,0.0,0.0,3.0,1.0,phase_2,stop,300.0,200.0,4.0,,,,,,,,,yellow,circle
0.0,8.0,4.0,1.0,5.0,0.0,0.0,3.0,1.0,phase_2,stop,300.0,250.0,4.0,,,,,,,,,cyan,square
0.0,2.0,1.0,0.0,5.0,5.0,572.6506627579511,3.0,1.0,phase_2,go,350.0,250.0,1.0,,,,,,,,,green,flipped triangle
0.0,8.0,4.0,1.0,6.0,0.0,0.0,3.0,1.0,phase_2,stop,350.0,250.0,4.0,,,,,,,,,cyan,square
0.0,4.0,4.0,0.0,6.0,6.0,630.384852838688,3.0,1.0,phase_2,go,350.0,300.0,1.0,,,,,,,,,magenta,cross
0.0,1.0,0.5,0.0,5.0,5.0,551.0404749193185,3.0,1.0,phase_2,go,350.0,300.0,1.0,,,,,,,,,gray,I
0.0,2.0,1.0,0.0,5.0,5.0,315.5804938787696,3.0,1.0,phase_2,go,350.0,300.0,1.0,,,,,,,,,green,flipped triangle
0.0,1.0,0.5,0.0,6.0,6.0,407.0993917580381,3.0,1.0,phase_2,go,350.0,300.0,1.0,,,,,,,,,gray,I
0.0,7.0,2.0,1.0,5.0,5.0,384.4902139194346,3.0,1.0,phase_2,stop,350.0,300.0,3.0,,,,,,,,,yellow,circle
0.0,5.0,0.5,1.0,5.0,5.0,455.0959587982106,3.0,1.0,phase_2,stop,300.0,300.0,3.0,,,,,,,,,orange,triangle
0.0,3.0,2.0,0.0,6.0,6.0,455.0007128791549,3.0,1.0,phase_2,go,250.0,300.0,1.0,,,,,,,,,white,hexagon
0.0,2.0,1.0,0.0,6.0,6.0,556.19071271758,3.0,1.0,phase_2,go,250.0,300.0,1.0,,,,,,,,,green,flipped triangle
0.0,1.0,0.5,0.0,5.0,5.0,501.5747977581668,3.0,1.0,phase_2,go,250.0,300.0,1.0,,,,,,,,,gray,I
0.0,6.0,1.0,1.0,5.0,5.0,551.3591659187114,4.0,1.0,phase_2,stop,250.0,300.0,3.0,,,,,,,,,blue,diamond
0.0,5.0,0.5,1.0,5.0,0.0,0.0,4.0,1.0,phase_2,stop,200.0,300.0,4.0,,,,,,,,,orange,triangle
0.0,3.0,2.0,0.0,6.0,6.0,553.1777087176124,4.0,1.0,phase_2,go,250.0,300.0,1.0,,,,,,,,,white,hexagon
0.0,5.0,0.5,1.0,6.0,6.0,329.4569519594006,4.0,1.0,phase_2,go,250.0,300.0,1.0,,,,,,,,,orange,triangle
0.0,2.0,1.0,0.0,6.0,6.0,352.7798519999123,4.0,1.0,phase_2,go,250.0,300.0,1.0,,,,,,,,,green,flipped triangle
0.0,3.0,2.0,0.0,5.0,5.0,332.1002159595991,4.0,1.0,phase_2,go,250.0,300.0,1.0,,,,,,,,,white,hexagon
0.0,6.0,1.0,1.0,5.0,5.0,354.7624898387767,4.0,1.0,phase_2,stop,250.0,300.0,3.0,,,,,,,,,blue,diamond
0.0,7.0,2.0,1.0,5.0,5.0,321.7023099191465,4.0,1.0,phase_2,stop,200.0,300.0,3.0,,,,,,,,,yellow,circle
0.0,6.0,1.0,1.0,6.0,6.0,356.259278798916,4.0,1.0,phase_2,go,150.0,300.0,1.0,,,,,,,,,blue,diamond
0.0,1.0,0.5,0.0,6.0,6.0,402.3087867981303,4.0,1.0,phase_2,go,150.0,300.0,1.0,,,,,,,,,gray,I
0.0,5.0,0.5,1.0,5.0,5.0,448.5768469598952,4.0,1.0,phase_2,go,150.0,300.0,1.0,,,,,,,,,orange,triangle
0.0,4.0,4.0,0.0,5.0,5.0,358.1761808386545,4.0,1.0,phase_2,go,150.0,300.0,1.0,,,,,,,,,magenta,cross
0.0,1.0,0.5,0.0,5.0,5.0,417.3345817175686,4.0,1.0,phase_2,go,150.0,300.0,1.0,,,,,,,,,gray,I
0.0,7.0,2.0,1.0,6.0,6.0,350.4660536773372,4.0,1.0,phase_2,go,150.0,300.0,1.0,,,,,,,,,yellow,circle
0.0,4.0,4.0,0.0,5.0,5.0,339.6840417985913,4.0,1.0,phase_2,go,150.0,300.0,1.0,,,,,,,,,magenta,cross
0.0,8.0,4.0,1.0,5.0,0.0,0.0,4.0,1.0,phase_2,stop,150.0,300.0,4.0,,,,,,,,,cyan,square
0.0,7.0,2.0,1.0,6.0,6.0,565.0409367581233,4.0,1.0,phase_2,go,200.0,300.0,1.0,,,,,,,,,yellow,circle
0.0,6.0,1.0,1.0,6.0,6.0,410.0843958390214,4.0,1.0,phase_2,go,200.0,300.0,1.0,,,,,,,,,blue,diamond
0.0,4.0,4.0,0.0,5.0,5.0,331.7909130810221,4.0,1.0,phase_2,go,200.0,300.0,1.0,,,,,,,,,magenta,cross
0.0,7.0,2.0,1.0,6.0,6.0,331.7691598390411,4.0,1.0,phase_2,go,200.0,300.0,1.0,,,,,,,,,yellow,circle
0.0,8.0,4.0,1.0,5.0,5.0,277.1578596371,4.0,1.0,phase_2,stop,200.0,300.0,3.0,,,,,,,,,cyan,square
0.0,2.0,1.0,0.0,6.0,6.0,356.4000447986473,4.0,1.0,phase_2,go,150.0,300.0,1.0,,,,,,,,,green,flipped triangle
0.0,1.0,0.5,0.0,5.0,5.0,323.0291518389094,4.0,1.0,phase_2,go,150.0,300.0,1.0,,,,,,,,,gray,I
0.0,5.0,0.5,1.0,5.0,0.0,0.0,4.0,1.0,phase_2,stop,150.0,300.0,4.0,,,,,,,,,orange,triangle
0.0,5.0,0.5,1.0,5.0,0.0,0.0,4.0,1.0,phase_2,stop,200.0,300.0,4.0,,,,,,,,,orange,triangle
0.0,7.0,2.0,1.0,6.0,6.0,314.662353717722,4.0,1.0,phase_2,stop,250.0,300.0,3.0,,,,,,,,,yellow,circle
0.0,3.0,2.0,0.0,5.0,5.0,483.2922080404387,4.0,1.0,phase_2,go,250.0,250.0,1.0,,,,,,,,,white,hexagon
0.0,7.0,2.0,1.0,5.0,5.0,384.5147908791659,4.0,1.0,phase_2,stop,250.0,250.0,3.0,,,,,,,,,yellow,circle
0.0,6.0,1.0,1.0,5.0,0.0,0.0,4.0,1.0,phase_2,stop,200.0,250.0,4.0,,,,,,,,,blue,diamond
0.0,6.0,1.0,1.0,5.0,0.0,0.0,4.0,1.0,phase_2,stop,250.0,250.0,4.0,,,,,,,,,blue,diamond
0.0,2.0,1.0,0.0,6.0,6.0,465.6733448387058,4.0,1.0,phase_2,go,300.0,250.0,1.0,,,,,,,,,green,flipped triangle
0.0,5.0,0.5,1.0,6.0,6.0,387.9039608386847,4.0,1.0,phase_2,stop,300.0,250.0,3.0,,,,,,,,,orange,triangle
0.0,1.0,0.5,0.0,5.0,5.0,534.441080878878,4.0,1.0,phase_2,go,300.0,200.0,1.0,,,,,,,,,gray,I
0.0,8.0,4.0,1.0,6.0,6.0,443.9225577175421,4.0,1.0,phase_2,go,300.0,200.0,1.0,,,,,,,,,cyan,square
0.0,6.0,1.0,1.0,5.0,5.0,332.5116789596904,4.0,1.0,phase_2,stop,300.0,200.0,3.0,,,,,,,,,blue,diamond
0.0,5.0,0.5,1.0,6.0,6.0,355.4583438790359,4.0,1.0,phase_2,go,250.0,200.0,1.0,,,,,,,,,orange,triangle
0.0,6.0,1.0,1.0,6.0,6.0,406.4459137575795,5.0,1.0,phase_2,stop,250.0,200.0,3.0,,,,,,,,,blue,diamond
0.0,6.0,1.0,1.0,6.0,0.0,0.0,5.0,1.0,phase_2,stop,250.0,150.0,4.0,,,,,,,,,blue,diamond
0.0,5.0,0.5,1.0,5.0,5.0,396.4657137175891,5.0,1.0,phase_2,go,250.0,200.0,1.0,,,,,,,,,orange,triangle
0.0,4.0,4.0,0.0,6.0,6.0,364.5371458787849,5.0,1.0,phase_2,go,250.0,200.0,1.0,,,,,,,,,magenta,cross
0.0,6.0,1.0,1.0,6.0,6.0,377.081439959511,5.0,1.0,phase_2,stop,250.0,200.0,3.0,,,,,,,,,blue,diamond
0.0,2.0,1.0,0.0,6.0,6.0,466.6480289192805,5.0,1.0,phase_2,go,250.0,150.0,1.0,,,,,,,,,green,flipped triangle
0.0,2.0,1.0,0.0,6.0,6.0,400.3602587986279,5.0,1.0,phase_2,go,250.0,150.0,1.0,,,,,,,,,green,flipped triangle
0.0,7.0,2.0,1.0,5.0,5.0,346.4977146777528,5.0,1.0,phase_2,stop,250.0,150.0,3.0,,,,,,,,,yellow,circle
0.0,6.0,1.0,1.0,5.0,0.0,0.0,5.0,1.0,phase_2,stop,200.0,150.0,4.0,,,,,,,,,blue,diamond
0.0,1.0,0.5,0.0,6.0,6.0,459.3662470001618,5.0,1.0,phase_2,go,250.0,150.0,1.0,,,,,,,,,gray,I
0.0,8.0,4.0,1.0,5.0,5.0,358.2768289193154,5.0,1.0,phase_2,stop,250.0,150.0,3.0,,,,,,,,,cyan,square
0.0,1.0,0.5,0.0,5.0,5.0,539.0830419191843,5.0,1.0,phase_2,go,200.0,150.0,1.0,,,,,,,,,gray,I
0.0,7.0,2.0,1.0,5.0,0.0,0.0,5.0,1.0,phase_2,stop,200.0,150.0,4.0,,,,,,,,,yellow,circle
0.0,3.0,2.0,0.0,5.0,5.0,496.44322183849,5.0,1.0,phase_2,go,250.0,150.0,1.0,,,,,,,,,white,hexagon
0.0,1.0,0.5,0.0,5.0,5.0,577.2330230001899,5.0,1.0,phase_2,go,250.0,150.0,1.0,,,,,,,,,gray,I
0.0,8.0,4.0,1.0,5.0,0.0,0.0,5.0,1.0,phase_2,stop,250.0,150.0,4.0,,,,,,,,,cyan,square
0.0,3.0,2.0,0.0,5.0,5.0,803.4654227581086,5.0,1.0,phase_2,go,300.0,150.0,1.0,,,,,,,,,white,hexagon
0.0,2.0,1.0,0.0,6.0,6.0,454.359496838606,5.0,1.0,phase_2,go,300.0,150.0,1.0,,,,,,,,,green,flipped triangle
0.0,1.0,0.5,0.0,6.0,6.0,409.7232267577055,5.0,1.0,phase_2,go,300.0,150.0,1.0,,,,,,,,,gray,I
0.0,7.0,2.0,1.0,6.0,0.0,0.0,5.0,1.0,phase_2,stop,300.0,150.0,4.0,,,,,,,,,yellow,circle
0.0,8.0,4.0,1.0,5.0,5.0,603.227689960022,5.0,1.0,phase_2,go,300.0,200.0,1.0,,,,,,,,,cyan,square
0.0,6.0,1.0,1.0,5.0,5.0,346.2856089599881,5.0,1.0,phase_2,stop,300.0,200.0,3.0,,,,,,,,,blue,diamond
0.0,5.0,0.5,1.0,5.0,5.0,435.3543548791094,5.0,1.0,phase_2,stop,250.0,200.0,3.0,,,,,,,,,orange,triangle
0.0,8.0,4.0,1.0,5.0,0.0,0.0,5.0,1.0,phase_2,stop,200.0,200.0,4.0,,,,,,,,,cyan,square
0.0,5.0,0.5,1.0,5.0,5.0,539.8947109188157,5.0,1.0,phase_2,go,250.0,200.0,1.0,,,,,,,,,orange,triangle
0.0,4.0,4.0,0.0,6.0,6.0,370.5138129189436,5.0,1.0,phase_2,go,250.0,200.0,1.0,,,,,,,,,magenta,cross
0.0,7.0,2.0,1.0,5.0,5.0,394.1365496771141,5.0,1.0,phase_2,stop,250.0,200.0,3.0,,,,,,,,,yellow,circle
0.0,3.0,2.0,0.0,6.0,6.0,394.9569987985342,5.0,1.0,phase_2,go,200.0,200.0,1.0,,,,,,,,,white,hexagon
0.0,8.0,4.0,1.0,6.0,6.0,374.9802878387527,5.0,1.0,phase_2,stop,200.0,200.0,3.0,,,,,,,,,cyan,square
0.0,5.0,0.5,1.0,5.0,0.0,0.0,5.0,1.0,phase_2,stop,200.0,150.0,4.0,,,,,,,,,orange,triangle
0.0,4.0,4.0,0.0,6.0,6.0,454.5244529190313,5.0,1.0,phase_2,go,250.0,150.0,1.0,,,,,,,,,magenta,cross
0.0,3.0,2.0,0.0,5.0,5.0,476.9155199596753,5.0,1.0,phase_2,go,250.0,150.0,1.0,,,,,,,,,white,hexagon
0.0,8.0,4.0,1.0,5.0,5.0,410.4676787987955,5.0,1.0,phase_2,stop,250.0,150.0,3.0,,,,,,,,,cyan,square
0.0,3.0,2.0,0.0,6.0,6.0,345.0132918787858,5.0,1.0,phase_2,go,200.0,150.0,1.0,,,,,,,,,white,hexagon
0.0,1.0,0.5,0.0,6.0,6.0,390.6655458386012,5.0,1.0,phase_2,go,200.0,150.0,1.0,,,,,,,,,gray,I
0.0,4.0,4.0,0.0,5.0,5.0,380.2964270003031,5.0,1.0,phase_2,go,200.0,150.0,1.0,,,,,,,,,magenta,cross
0.0,2.0,1.0,0.0,5.0,5.0,539.9379388786656,6.0,1.0,phase_2,go,200.0,150.0,1.0,,,,,,,,,green,flipped triangle
0.0,7.0,2.0,1.0,6.0,0.0,0.0,6.0,1.0,phase_2,stop,200.0,150.0,4.0,,,,,,,,,yellow,circle
0.0,2.0,1.0,0.0,5.0,5.0,315.7969589187814,6.0,1.0,phase_2,go,200.0,200.0,1.0,,,,,,,,,green,flipped triangle
0.0,3.0,2.0,0.0,5.0,5.0,474.7744029596106,6.0,1.0,phase_2,go,200.0,200.0,1.0,,,,,,,,,white,hexagon
0.0,5.0,0.5,1.0,6.0,6.0,364.6868669998184,6.0,1.0,phase_2,stop,200.0,200.0,3.0,,,,,,,,,orange,triangle
0.0,1.0,0.5,0.0,6.0,6.0,387.0170846776091,6.0,1.0,phase_2,go,200.0,150.0,1.0,,,,,,,,,gray,I
0.0,4.0,4.0,0.0,6.0,6.0,375.5963867579339,6.0,1.0,phase_2,go,200.0,150.0,1.0,,,,,,,,,magenta,cross
0.0,4.0,4.0,0.0,6.0,6.0,344.2062760000226,6.0,1.0,phase_2,go,200.0,150.0,1.0,,,,,,,,,magenta,cross
0.0,5.0,0.5,1.0,5.0,5.0,525.0465877174975,6.0,1.0,phase_2,go,200.0,150.0,1.0,,,,,,,,,orange,triangle
0.0,6.0,1.0,1.0,5.0,5.0,423.2313278384936,6.0,1.0,phase_2,go,200.0,150.0,1.0,,,,,,,,,blue,diamond
0.0,4.0,4.0,0.0,6.0,6.0,423.9806230402791,6.0,1.0,phase_2,go,200.0,150.0,1.0,,,,,,,,,magenta,cross
0.0,1.0,0.5,0.0,5.0,5.0,437.2500467579812,6.0,1.0,phase_2,go,200.0,150.0,1.0,,,,,,,,,gray,I
0.0,8.0,4.0,1.0,5.0,0.0,0.0,6.0,1.0,phase_2,stop,200.0,150.0,4.0,,,,,,,,,cyan,square
0.0,1.0,0.5,0.0,6.0,6.0,349.4777619998785,6.0,1.0,phase_2,go,250.0,150.0,1.0,,,,,,,,,gray,I
0.0,1.0,0.5,0.0,5.0,5.0,382.8661109996574,6.0,1.0,phase_2,go,250.0,150.0,1.0,,,,,,,,,gray,I
0.0,8.0,4.0,1.0,6.0,0.0,0.0,6.0,1.0,phase_2,stop,250.0,150.0,4.0,,,,,,,,,cyan,square
0.0,5.0,0.5,1.0,6.0,0.0,0.0,6.0,1.0,phase_2,stop,250.0,200.0,4.0,,,,,,,,,orange,triangle
0.0,4.0,4.0,0.0,5.0,5.0,463.4123477176217,6.0,1.0,phase_2,go,250.0,250.0,1.0,,,,,,,,,magenta,cross
0.0,1.0,0.5,0.0,6.0,6.0,342.1604787981778,6.0,1.0,phase_2,go,250.0,250.0,1.0,,,,,,,,,gray,I
0.0,5.0,0.5,1.0,6.0,6.0,319.1628837175813,6.0,1.0,phase_2,stop,250.0,250.0,3.0,,,,,,,,,orange,triangle
0.0,4.0,4.0,0.0,6.0,6.0,443.5674197579828,6.0,1.0,phase_2,go,250.0,200.0,1.0,,,,,,,,,magenta,cross
0.0,6.0,1.0,1.0,6.0,6.0,343.391750959654,6.0,1.0,phase_2,stop,250.0,200.0,3.0,,,,,,,,,blue,diamond
0.0,3.0,2.0,0.0,6.0,6.0,435.2290517581423,6.0,1.0,phase_2,go,250.0,150.0,1.0,,,,,,,,,white,hexagon
0.0,4.0,4.0,0.0,6.0,6.0,355.9600416774628,6.0,1.0,phase_2,go,250.0,150.0,1.0,,,,,,,,,magenta,cross
0.0,5.0,0.5,1.0,5.0,5.0,425.6565647983734,6.0,1.0,phase_2,stop,250.0,150.0,3.0,,,,,,,,,orange,triangle
0.0,6.0,1.0,1.0,6.0,6.0,314.1641178385725,6.0,1.0,phase_2,go,200.0,150.0,1.0,,,,,,,,,blue,diamond
0.0,4.0,4.0,0.0,5.0,5.0,437.2752738386225,6.0,1.0,phase_2,go,200.0,150.0,1.0,,,,,,,,,magenta,cross
0.0,8.0,4.0,1.0,6.0,0.0,0.0,6.0,1.0,phase_2,stop,200.0,150.0,4.0,,,,,,,,,cyan,square
0.0,5.0,0.5,1.0,5.0,5.0,495.4256177179559,6.0,1.0,phase_2,go,200.0,200.0,1.0,,,,,,,,,orange,triangle
0.0,4.0,4.0,0.0,6.0,6.0,429.9490037578835,6.0,1.0,phase_2,go,200.0,200.0,1.0,,,,,,,,,magenta,cross
0.0,1.0,0.5,0.0,5.0,5.0,384.1108218789486,6.0,1.0,phase_2,go,200.0,200.0,1.0,,,,,,,,,gray,I
0.0,2.0,1.0,0.0,5.0,5.0,407.5084438786689,6.0,1.0,phase_2,go,200.0,200.0,1.0,,,,,,,,,green,flipped triangle
0.0,3.0,2.0,0.0,5.0,5.0,398.0298649189535,6.0,1.0,phase_2,go,200.0,200.0,1.0,,,,,,,,,white,hexagon
0.0,6.0,1.0,1.0,5.0,0.0,0.0,6.0,1.0,phase_2,stop,200.0,200.0,4.0,,,,,,,,,blue,diamond
0.0,4.0,4.0,0.0,6.0,6.0,524.1288957981851,6.0,1.0,phase_2,go,250.0,200.0,1.0,,,,,,,,,magenta,cross
0.0,3.0,2.0,0.0,5.0,5.0,376.7186897985084,6.0,1.0,phase_2,go,250.0,200.0,1.0,,,,,,,,,white,hexagon
0.0,3.0,2.0,0.0,6.0,6.0,667.8906977986117,7.0,1.0,phase_2,go,250.0,200.0,1.0,,,,,,,,,white,hexagon
0.0,3.0,2.0,0.0,5.0,5.0,342.3475679596777,7.0,1.0,phase_2,go,250.0,200.0,1.0,,,,,,,,,white,hexagon
0.0,6.0,1.0,1.0,5.0,5.0,387.7210020809798,7.0,1.0,phase_2,stop,250.0,200.0,3.0,,,,,,,,,blue,diamond
0.0,7.0,2.0,1.0,5.0,5.0,366.0226397983024,7.0,1.0,phase_2,go,200.0,200.0,1.0,,,,,,,,,yellow,circle
0.0,8.0,4.0,1.0,6.0,6.0,322.558961717732,7.0,1.0,phase_2,stop,200.0,200.0,3.0,,,,,,,,,cyan,square
0.0,2.0,1.0,0.0,6.0,6.0,356.8857908785503,7.0,1.0,phase_2,go,200.0,150.0,1.0,,,,,,,,,green,flipped triangle
0.0,5.0,0.5,1.0,5.0,5.0,392.0926827986477,7.0,1.0,phase_2,stop,200.0,150.0,3.0,,,,,,,,,orange,triangle
0.0,2.0,1.0,0.0,5.0,5.0,549.6982187983122,7.0,1.0,phase_2,go,150.0,150.0,1.0,,,,,,,,,green,flipped triangle
0.0,8.0,4.0,1.0,5.0,0.0,0.0,7.0,1.0,phase_2,stop,150.0,150.0,4.0,,,,,,,,,cyan,square
0.0,1.0,0.5,0.0,6.0,6.0,394.3291588789179,7.0,1.0,phase_2,go,200.0,150.0,1.0,,,,,,,,,gray,I
0.0,5.0,0.5,1.0,6.0,0.0,0.0,7.0,1.0,phase_2,stop,200.0,150.0,4.0,,,,,,,,,orange,triangle
0.0,3.0,2.0,0.0,5.0,5.0,361.7123718790935,7.0,1.0,phase_2,go,200.0,200.0,1.0,,,,,,,,,white,hexagon
0.0,7.0,2.0,1.0,6.0,0.0,0.0,7.0,1.0,phase_2,stop,200.0,200.0,4.0,,,,,,,,,yellow,circle
0.0,3.0,2.0,0.0,5.0,5.0,453.5123767577715,7.0,1.0,phase_2,go,200.0,250.0,1.0,,,,,,,,,white,hexagon
0.0,1.0,0.5,0.0,6.0,6.0,353.4738617981929,7.0,1.0,phase_2,go,200.0,250.0,1.0,,,,,,,,,gray,I
0.0,4.0,4.0,0.0,6.0,6.0,399.4874747177164,7.0,1.0,phase_2,go,200.0,250.0,1.0,,,,,,,,,magenta,cross
0.0,3.0,2.0,0.0,6.0,6.0,547.6367127175763,7.0,1.0,phase_2,go,200.0,250.0,1.0,,,,,,,,,white,hexagon
0.0,8.0,4.0,1.0,6.0,0.0,0.0,7.0,1.0,phase_2,stop,200.0,250.0,4.0,,,,,,,,,cyan,square
0.0,6.0,1.0,1.0,5.0,0.0,0.0,7.0,1.0,phase_2,stop,200.0,300.0,4.0,,,,,,,,,blue,diamond
0.0,2.0,1.0,0.0,5.0,5.0,469.5899036778428,7.0,1.0,phase_2,go,250.0,300.0,1.0,,,,,,,,,green,flipped triangle
0.0,7.0,2.0,1.0,6.0,0.0,0.0,7.0,1.0,phase_2,stop,250.0,300.0,4.0,,,,,,,,,yellow,circle
0.0,3.0,2.0,0.0,6.0,6.0,426.2029368787807,7.0,1.0,phase_2,go,250.0,350.0,1.0,,,,,,,,,white,hexagon
0.0,3.0,2.0,0.0,5.0,5.0,505.837430000156,7.0,1.0,phase_2,go,250.0,350.0,1.0,,,,,,,,,white,hexagon
0.0,2.0,1.0,0.0,5.0,5.0,497.4124118384679,7.0,1.0,phase_2,go,250.0,350.0,1.0,,,,,,,,,green,flipped triangle
0.0,4.0,4.0,0.0,5.0,5.0,486.3185749190961,7.0,1.0,phase_2,go,250.0,350.0,1.0,,,,,,,,,magenta,cross
0.0,5.0,0.5,1.0,6.0,6.0,418.3578028787451,7.0,1.0,phase_2,stop,250.0,350.0,3.0,,,,,,,,,orange,triangle
0.0,4.0,4.0,0.0,5.0,5.0,510.46876100008376,7.0,1.0,phase_2,go,250.0,300.0,1.0,,,,,,,,,magenta,cross
0.0,6.0,1.0,1.0,6.0,6.0,364.1572707178966,7.0,1.0,phase_2,stop,250.0,300.0,3.0,,,,,,,,,blue,diamond
0.0,1.0,0.5,0.0,6.0,6.0,533.9462016772814,7.0,1.0,phase_2,go,250.0,250.0,1.0,,,,,,,,,gray,I
0.0,4.0,4.0,0.0,5.0,5.0,411.1201937175792,7.0,1.0,phase_2,go,250.0,250.0,1.0,,,,,,,,,magenta,cross
0.0,5.0,0.5,1.0,6.0,6.0,378.9199618390739,7.0,1.0,phase_2,stop,250.0,250.0,3.0,,,,,,,,,orange,triangle
0.0,5.0,0.5,1.0,6.0,0.0,0.0,7.0,1.0,phase_2,stop,250.0,200.0,4.0,,,,,,,,,orange,triangle
0.0,4.0,4.0,0.0,5.0,5.0,582.8616436374432,7.0,1.0,phase_2,go,250.0,250.0,1.0,,,,,,,,,magenta,cross
0.0,4.0,4.0,0.0,6.0,6.0,392.3688608388147,7.0,1.0,phase_2,go,250.0,250.0,1.0,,,,,,,,,magenta,cross
0.0,6.0,1.0,1.0,6.0,0.0,0.0,7.0,1.0,phase_2,stop,250.0,250.0,4.0,,,,,,,,,blue,diamond
0.0,6.0,1.0,1.0,6.0,6.0,889.6519258787521,7.0,1.0,phase_2,go,250.0,300.0,1.0,,,,,,,,,blue,diamond
0.0,2.0,1.0,0.0,6.0,6.0,411.9857549599146,8.0,1.0,phase_2,go,250.0,300.0,1.0,,,,,,,,,green,flipped triangle
0.0,8.0,4.0,1.0,6.0,6.0,391.9872379187836,8.0,1.0,phase_2,go,250.0,300.0,1.0,,,,,,,,,cyan,square
0.0,4.0,4.0,0.0,6.0,6.0,469.7255569594745,8.0,1.0,phase_2,go,250.0,300.0,1.0,,,,,,,,,magenta,cross
0.0,5.0,0.5,1.0,6.0,6.0,382.0820197174726,8.0,1.0,phase_2,stop,250.0,300.0,3.0,,,,,,,,,orange,triangle
0.0,6.0,1.0,1.0,5.0,5.0,437.6947357577592,8.0,1.0,phase_2,stop,250.0,250.0,3.0,,,,,,,,,blue,diamond
0.0,1.0,0.5,0.0,5.0,5.0,494.4228197982738,8.0,1.0,phase_2,go,200.0,250.0,1.0,,,,,,,,,gray,I
0.0,1.0,0.5,0.0,6.0,6.0,507.49955779838274,8.0,1.0,phase_2,go,200.0,250.0,1.0,,,,,,,,,gray,I
0.0,6.0,1.0,1.0,5.0,0.0,0.0,8.0,1.0,phase_2,stop,200.0,250.0,4.0,,,,,,,,,blue,diamond
0.0,1.0,0.5,0.0,5.0,5.0,498.4570599999642,8.0,1.0,phase_2,go,250.0,250.0,1.0,,,,,,,,,gray,I
0.0,7.0,2.0,1.0,6.0,6.0,421.2777969191847,8.0,1.0,phase_2,stop,250.0,250.0,3.0,,,,,,,,,yellow,circle
0.0,6.0,1.0,1.0,6.0,6.0,352.7081631209512,8.0,1.0,phase_2,stop,250.0,200.0,3.0,,,,,,,,,blue,diamond
0.0,5.0,0.5,1.0,6.0,0.0,0.0,8.0,1.0,phase_2,stop,250.0,150.0,4.0,,,,,,,,,orange,triangle
0.0,3.0,2.0,0.0,6.0,6.0,456.2258538385322,8.0,1.0,phase_2,go,250.0,200.0,1.0,,,,,,,,,white,hexagon
0.0,2.0,1.0,0.0,6.0,6.0,423.5411199597365,8.0,1.0,phase_2,go,250.0,200.0,1.0,,,,,,,,,green,flipped triangle
0.0,3.0,2.0,0.0,6.0,6.0,457.2504337174905,8.0,1.0,phase_2,go,250.0,200.0,1.0,,,,,,,,,white,hexagon
0.0,2.0,1.0,0.0,5.0,5.0,763.6639159600236,8.0,1.0,phase_2,go,250.0,200.0,1.0,,,,,,,,,green,flipped triangle
0.0,2.0,1.0,0.0,5.0,5.0,448.3351147177927,8.0,1.0,phase_2,go,250.0,200.0,1.0,,,,,,,,,green,flipped triangle
0.0,8.0,4.0,1.0,6.0,0.0,0.0,8.0,1.0,phase_2,stop,250.0,200.0,4.0,,,,,,,,,cyan,square
0.0,4.0,4.0,0.0,5.0,5.0,426.4390166372322,8.0,1.0,phase_2,go,250.0,250.0,1.0,,,,,,,,,magenta,cross
0.0,6.0,1.0,1.0,6.0,6.0,382.9261287983172,8.0,1.0,phase_2,go,250.0,250.0,1.0,,,,,,,,,blue,diamond
0.0,1.0,0.5,0.0,5.0,5.0,384.0664079598355,8.0,1.0,phase_2,go,250.0,250.0,1.0,,,,,,,,,gray,I
0.0,2.0,1.0,0.0,6.0,6.0,430.4219547580032,8.0,1.0,phase_2,go,250.0,250.0,1.0,,,,,,,,,green,flipped triangle
0.0,2.0,1.0,0.0,6.0,6.0,341.3851102336593,8.0,1.0,phase_2,go,250.0,250.0,1.0,,,,,,,,,green,flipped triangle
0.0,2.0,1.0,0.0,5.0,5.0,409.558936878966,8.0,1.0,phase_2,go,250.0,250.0,1.0,,,,,,,,,green,flipped triangle
0.0,3.0,2.0,0.0,6.0,6.0,455.8070867983588,8.0,1.0,phase_2,go,250.0,250.0,1.0,,,,,,,,,white,hexagon
0.0,8.0,4.0,1.0,5.0,5.0,422.2238667985039,8.0,1.0,phase_2,stop,250.0,250.0,3.0,,,,,,,,,cyan,square
0.0,8.0,4.0,1.0,5.0,0.0,0.0,8.0,1.0,phase_2,stop,200.0,250.0,4.0,,,,,,,,,cyan,square
0.0,1.0,0.5,0.0,5.0,5.0,513.8553509191297,8.0,1.0,phase_2,go,250.0,250.0,1.0,,,,,,,,,gray,I
0.0,7.0,2.0,1.0,6.0,6.0,402.5244527574614,8.0,1.0,phase_2,stop,250.0,250.0,3.0,,,,,,,,,yellow,circle
0.0,3.0,2.0,0.0,5.0,5.0,514.5447239601708,8.0,1.0,phase_2,go,250.0,200.0,1.0,,,,,,,,,white,hexagon
0.0,5.0,0.5,1.0,6.0,0.0,0.0,8.0,1.0,phase_2,stop,250.0,200.0,4.0,,,,,,,,,orange,triangle
0.0,8.0,4.0,1.0,6.0,6.0,437.7930767577709,8.0,1.0,phase_2,stop,250.0,250.0,3.0,,,,,,,,,cyan,square
0.0,1.0,0.5,0.0,5.0,5.0,449.610506717363,8.0,1.0,phase_2,go,250.0,200.0,1.0,,,,,,,,,gray,I
0.0,4.0,4.0,0.0,6.0,6.0,483.9462257577906,8.0,1.0,phase_2,go,250.0,200.0,1.0,,,,,,,,,magenta,cross
0.0,5.0,0.5,1.0,6.0,0.0,0.0,8.0,1.0,phase_2,stop,250.0,200.0,4.0,,,,,,,,,orange,triangle
0.0,4.0,4.0,0.0,5.0,5.0,587.6453357577702,8.0,1.0,phase_2,go,250.0,250.0,1.0,,,,,,,,,magenta,cross
0.0,8.0,4.0,1.0,7.0,2.0,2752.4432143609374,1.0,1.0,phase_3,,,,,162.0,3.0,270.0,162.0,324.0,108.0,54.0,216.0,cyan,square
0.0,3.0,2.0,0.0,7.0,2.0,3118.0852278339444,1.0,1.0,phase_3,,,,,204.0,6.0,34.0,204.0,136.0,102.0,170.0,68.0,white,hexagon
0.0,7.0,2.0,1.0,7.0,5.0,2847.438734361276,1.0,1.0,phase_3,,,,,98.0,2.0,196.0,147.0,245.0,49.0,98.0,294.0,yellow,circle
0.0,4.0,4.0,0.0,7.0,5.0,2636.0871548340583,1.0,1.0,phase_3,,,,,270.0,5.0,108.0,324.0,216.0,54.0,270.0,162.0,magenta,cross
0.0,5.0,0.5,1.0,7.0,4.0,2861.477143472257,1.0,1.0,phase_3,,,,,117.0,3.0,156.0,78.0,195.0,117.0,234.0,39.0,orange,triangle
0.0,1.0,0.5,0.0,7.0,4.0,2650.250967417378,1.0,1.0,phase_3,,,,,324.0,6.0,270.0,54.0,216.0,324.0,162.0,108.0,gray,I
0.0,4.0,4.0,0.0,7.0,6.0,3933.0070824171344,1.0,1.0,phase_3,,,,,245.0,5.0,147.0,49.0,196.0,98.0,294.0,245.0,magenta,cross
0.0,8.0,4.0,1.0,7.0,1.0,2808.2131159444543,1.0,1.0,phase_3,,,,,68.0,2.0,68.0,170.0,204.0,34.0,102.0,136.0,cyan,square
0.0,3.0,2.0,0.0,7.0,2.0,3349.81153494482,1.0,1.0,phase_3,,,,,176.0,4.0,264.0,176.0,44.0,220.0,132.0,88.0,white,hexagon
0.0,6.0,1.0,1.0,7.0,6.0,3824.9598929442072,1.0,1.0,phase_3,,,,,270.0,5.0,324.0,216.0,54.0,108.0,162.0,270.0,blue,diamond
0.0,7.0,2.0,1.0,7.0,4.0,2160.7776943619683,1.0,1.0,phase_3,,,,,98.0,2.0,147.0,245.0,196.0,98.0,49.0,294.0,yellow,circle
0.0,7.0,2.0,1.0,7.0,2.0,2103.515632250492,1.0,1.0,phase_3,,,,,54.0,1.0,108.0,54.0,324.0,270.0,162.0,216.0,yellow,circle
0.0,1.0,0.5,0.0,7.0,4.0,3186.2902894172294,1.0,1.0,phase_3,,,,,204.0,6.0,68.0,34.0,170.0,204.0,136.0,102.0,gray,I
0.0,4.0,4.0,0.0,7.0,1.0,4266.106563306494,1.0,1.0,phase_3,,,,,220.0,5.0,220.0,44.0,264.0,132.0,88.0,176.0,magenta,cross
0.0,8.0,4.0,1.0,7.0,1.0,2780.287254833638,1.0,1.0,phase_3,,,,,147.0,3.0,147.0,294.0,49.0,98.0,245.0,196.0,cyan,square
0.0,1.0,0.5,0.0,7.0,5.0,2085.1073639441893,1.0,1.0,phase_3,,,,,204.0,6.0,102.0,136.0,170.0,68.0,204.0,34.0,gray,I
0.0,5.0,0.5,1.0,7.0,2.0,3423.743286944955,1.0,1.0,phase_3,,,,,88.0,2.0,176.0,88.0,132.0,220.0,44.0,264.0,orange,triangle
0.0,5.0,0.5,1.0,7.0,2.0,2919.0729164720324,1.0,1.0,phase_3,,,,,108.0,2.0,324.0,108.0,270.0,162.0,216.0,54.0,orange,triangle
0.0,2.0,1.0,0.0,7.0,5.0,1976.2942188335728,1.0,1.0,phase_3,,,,,156.0,4.0,39.0,78.0,234.0,195.0,156.0,117.0,green,flipped triangle
0.0,2.0,1.0,0.0,7.0,4.0,1268.4589617783786,1.0,1.0,phase_3,,,,,156.0,4.0,195.0,117.0,78.0,156.0,234.0,39.0,green,flipped triangle
0.0,1.0,0.5,0.0,7.0,4.0,1659.584657305459,2.0,1.0,phase_3,,,,,234.0,6.0,195.0,39.0,78.0,234.0,156.0,117.0,gray,I
0.0,4.0,4.0,0.0,7.0,1.0,2132.381865361822,2.0,1.0,phase_3,,,,,220.0,5.0,220.0,176.0,132.0,264.0,44.0,88.0,magenta,cross
0.0,2.0,1.0,0.0,7.0,6.0,2583.5102593619013,2.0,1.0,phase_3,,,,,162.0,3.0,324.0,108.0,216.0,54.0,270.0,162.0,green,flipped triangle
0.0,5.0,0.5,1.0,7.0,4.0,3596.800995362173,2.0,1.0,phase_3,,,,,98.0,2.0,49.0,245.0,196.0,98.0,147.0,294.0,orange,triangle
0.0,1.0,0.5,0.0,7.0,1.0,2731.275358417406,2.0,1.0,phase_3,,,,,294.0,6.0,294.0,196.0,245.0,98.0,49.0,147.0,gray,I
0.0,7.0,2.0,1.0,7.0,1.0,1685.475624944047,2.0,1.0,phase_3,,,,,54.0,1.0,54.0,324.0,162.0,270.0,108.0,216.0,yellow,circle
0.0,7.0,2.0,1.0,7.0,6.0,1900.5395663616584,2.0,1.0,phase_3,,,,,68.0,2.0,34.0,170.0,136.0,102.0,204.0,68.0,yellow,circle
0.0,8.0,4.0,1.0,7.0,1.0,3095.3745252500084,2.0,1.0,phase_3,,,,,132.0,3.0,132.0,264.0,88.0,220.0,44.0,176.0,cyan,square
0.0,8.0,4.0,1.0,7.0,4.0,3939.5203247786408,2.0,1.0,phase_3,,,,,117.0,3.0,156.0,195.0,78.0,117.0,234.0,39.0,cyan,square
0.0,8.0,4.0,1.0,7.0,2.0,4526.811541943971,2.0,1.0,phase_3,,,,,162.0,3.0,108.0,162.0,270.0,324.0,54.0,216.0,cyan,square
0.0,4.0,4.0,0.0,7.0,3.0,2200.179973889135,2.0,1.0,phase_3,,,,,195.0,5.0,78.0,234.0,195.0,39.0,156.0,117.0,magenta,cross
0.0,3.0,2.0,0.0,7.0,4.0,958.2728952500474,2.0,2.0,phase_3,,,,,132.0,3.0,88.0,44.0,176.0,132.0,264.0,220.0,white,hexagon
0.0,7.0,2.0,1.0,7.0,2.0,1388.4514744177068,2.0,1.0,phase_3,,,,,195.0,5.0,234.0,195.0,78.0,156.0,117.0,39.0,yellow,circle
0.0,3.0,2.0,0.0,7.0,4.0,1153.3469189444077,2.0,1.0,phase_3,,,,,49.0,1.0,98.0,245.0,294.0,49.0,196.0,147.0,white,hexagon
0.0,2.0,1.0,0.0,7.0,4.0,3650.843246779005,2.0,1.0,phase_3,,,,,196.0,4.0,147.0,49.0,98.0,196.0,294.0,245.0,green,flipped triangle
0.0,2.0,1.0,0.0,7.0,3.0,2887.1021127779386,2.0,1.0,phase_3,,,,,170.0,5.0,204.0,68.0,170.0,34.0,102.0,136.0,green,flipped triangle
0.0,5.0,0.5,1.0,7.0,4.0,2866.3391277787014,2.0,1.0,phase_3,,,,,49.0,1.0,147.0,245.0,294.0,49.0,196.0,98.0,orange,triangle
0.0,6.0,1.0,1.0,7.0,6.0,2225.0342962506693,2.0,1.0,phase_3,,,,,264.0,6.0,220.0,132.0,176.0,44.0,88.0,264.0,blue,diamond
0.0,4.0,4.0,0.0,7.0,2.0,1619.906941361478,2.0,1.0,phase_3,,,,,294.0,6.0,49.0,294.0,98.0,245.0,196.0,147.0,magenta,cross
0.0,6.0,1.0,1.0,7.0,2.0,2532.1360368889145,2.0,1.0,phase_3,,,,,204.0,6.0,34.0,204.0,136.0,102.0,68.0,170.0,blue,diamond
0.0,1.0,0.5,0.0,7.0,2.0,1700.962839472595,3.0,1.0,phase_3,,,,,220.0,5.0,132.0,220.0,176.0,44.0,264.0,88.0,gray,I
0.0,8.0,4.0,1.0,7.0,1.0,3894.173719889295,3.0,1.0,phase_3,,,,,156.0,4.0,156.0,195.0,39.0,78.0,117.0,234.0,cyan,square
0.0,4.0,4.0,0.0,7.0,1.0,1488.3906618888432,3.0,1.0,phase_3,,,,,204.0,6.0,204.0,170.0,68.0,136.0,34.0,102.0,magenta,cross
0.0,8.0,4.0,1.0,7.0,6.0,3302.129354417048,3.0,1.0,phase_3,,,,,196.0,4.0,98.0,294.0,245.0,147.0,49.0,196.0,cyan,square
0.0,1.0,0.5,0.0,7.0,6.0,4133.586043416472,3.0,1.0,phase_3,,,,,195.0,5.0,234.0,39.0,78.0,117.0,156.0,195.0,gray,I
0.0,1.0,0.5,0.0,7.0,1.0,4098.289481778011,3.0,1.0,phase_3,,,,,176.0,4.0,176.0,264.0,88.0,220.0,44.0,132.0,gray,I
0.0,7.0,2.0,1.0,7.0,5.0,1844.38777188916,3.0,1.0,phase_3,,,,,44.0,1.0,220.0,132.0,176.0,264.0,44.0,88.0,yellow,circle
0.0,4.0,4.0,0.0,7.0,2.0,2240.0024784165,3.0,1.0,phase_3,,,,,270.0,5.0,162.0,270.0,216.0,108.0,54.0,324.0,magenta,cross
0.0,3.0,2.0,0.0,7.0,5.0,3569.316020778388,3.0,1.0,phase_3,,,,,204.0,6.0,102.0,170.0,34.0,68.0,204.0,136.0,white,hexagon
0.0,3.0,2.0,0.0,7.0,4.0,2647.1031358332766,3.0,1.0,phase_3,,,,,108.0,2.0,324.0,162.0,216.0,108.0,54.0,270.0,white,hexagon
0.0,3.0,2.0,0.0,7.0,3.0,2446.508401306346,3.0,1.0,phase_3,,,,,117.0,3.0,195.0,234.0,117.0,78.0,156.0,39.0,white,hexagon
0.0,6.0,1.0,1.0,7.0,1.0,2840.519537471664,3.0,1.0,phase_3,,,,,195.0,5.0,195.0,156.0,39.0,117.0,234.0,78.0,blue,diamond
0.0,5.0,0.5,1.0,7.0,1.0,2528.022891472574,3.0,1.0,phase_3,,,,,88.0,2.0,88.0,132.0,264.0,176.0,44.0,220.0,orange,triangle
0.0,2.0,1.0,0.0,7.0,1.0,2303.743613306324,3.0,1.0,phase_3,,,,,136.0,4.0,136.0,34.0,170.0,204.0,68.0,102.0,green,flipped triangle
0.0,4.0,4.0,0.0,7.0,4.0,2709.4191119449533,3.0,1.0,phase_3,,,,,234.0,6.0,156.0,78.0,195.0,234.0,117.0,39.0,magenta,cross
0.0,1.0,0.5,0.0,7.0,2.0,1787.1862431657064,3.0,1.0,phase_3,,,,,270.0,5.0,324.0,270.0,108.0,162.0,216.0,54.0,gray,I
0.0,7.0,2.0,1.0,7.0,4.0,2182.5802914718224,3.0,1.0,phase_3,,,,,44.0,1.0,88.0,220.0,132.0,44.0,264.0,176.0,yellow,circle
0.0,1.0,0.5,0.0,7.0,3.0,2576.9445743617325,3.0,1.0,phase_3,,,,,245.0,5.0,49.0,196.0,245.0,98.0,294.0,147.0,gray,I
0.0,7.0,2.0,1.0,7.0,6.0,1554.0287154171892,3.0,1.0,phase_3,,,,,68.0,2.0,170.0,102.0,34.0,204.0,136.0,68.0,yellow,circle
0.0,6.0,1.0,1.0,7.0,3.0,2163.071239778219,3.0,1.0,phase_3,,,,,196.0,4.0,245.0,98.0,196.0,49.0,147.0,294.0,blue,diamond
0.0,5.0,0.5,1.0,7.0,1.0,2798.5134278887926,4.0,1.0,phase_3,,,,,102.0,3.0,102.0,34.0,136.0,204.0,170.0,68.0,orange,triangle
0.0,6.0,1.0,1.0,7.0,6.0,3124.632340362041,4.0,1.0,phase_3,,,,,176.0,4.0,220.0,44.0,88.0,132.0,264.0,176.0,blue,diamond
0.0,3.0,2.0,0.0,7.0,2.0,3058.021942360938,4.0,1.0,phase_3,,,,,162.0,3.0,108.0,162.0,216.0,270.0,54.0,324.0,white,hexagon
0.0,8.0,4.0,1.0,7.0,5.0,3376.308953944317,4.0,1.0,phase_3,,,,,176.0,4.0,88.0,44.0,264.0,132.0,176.0,220.0,cyan,square
0.0,3.0,2.0,0.0,7.0,5.0,2644.854327944813,4.0,1.0,phase_3,,,,,117.0,3.0,39.0,156.0,195.0,234.0,117.0,78.0,white,hexagon
0.0,2.0,1.0,0.0,7.0,6.0,4096.184677889141,4.0,1.0,phase_3,,,,,162.0,3.0,324.0,108.0,270.0,216.0,54.0,162.0,green,flipped triangle
0.0,8.0,4.0,1.0,7.0,1.0,1957.8743109450445,4.0,1.0,phase_3,,,,,204.0,6.0,204.0,68.0,170.0,102.0,136.0,34.0,cyan,square
0.0,5.0,0.5,1.0,7.0,3.0,1711.6988767784278,4.0,1.0,phase_3,,,,,54.0,1.0,270.0,162.0,54.0,108.0,216.0,324.0,orange,triangle
0.0,2.0,1.0,0.0,7.0,2.0,2960.364770778142,4.0,1.0,phase_3,,,,,147.0,3.0,245.0,147.0,98.0,196.0,294.0,49.0,green,flipped triangle
0.0,2.0,1.0,0.0,7.0,5.0,2298.3939433061096,4.0,1.0,phase_3,,,,,132.0,3.0,88.0,176.0,44.0,220.0,132.0,264.0,green,flipped triangle
0.0,2.0,1.0,0.0,7.0,1.0,3053.460881889805,4.0,1.0,phase_3,,,,,132.0,3.0,132.0,88.0,176.0,220.0,264.0,44.0,green,flipped triangle
0.0,6.0,1.0,1.0,7.0,6.0,2074.4282494715662,4.0,1.0,phase_3,,,,,195.0,5.0,39.0,156.0,234.0,78.0,117.0,195.0,blue,diamond
0.0,5.0,0.5,1.0,7.0,5.0,2425.3819318892056,4.0,1.0,phase_3,,,,,102.0,3.0,68.0,204.0,170.0,136.0,102.0,34.0,orange,triangle
0.0,4.0,4.0,0.0,7.0,6.0,2077.6770363618202,4.0,1.0,phase_3,,,,,204.0,6.0,68.0,102.0,34.0,136.0,170.0,204.0,magenta,cross
0.0,6.0,1.0,1.0,7.0,6.0,2797.226832833985,4.0,1.0,phase_3,,,,,216.0,4.0,108.0,162.0,324.0,270.0,54.0,216.0,blue,diamond
0.0,7.0,2.0,1.0,7.0,4.0,1448.7309823607577,4.0,1.0,phase_3,,,,,39.0,1.0,234.0,117.0,78.0,39.0,156.0,195.0,yellow,circle
0.0,3.0,2.0,0.0,7.0,4.0,3015.338544944825,4.0,1.0,phase_3,,,,,98.0,2.0,294.0,245.0,196.0,98.0,49.0,147.0,white,hexagon
0.0,5.0,0.5,1.0,7.0,2.0,2001.7487573059043,4.0,1.0,phase_3,,,,,78.0,2.0,39.0,78.0,234.0,195.0,117.0,156.0,orange,triangle
0.0,6.0,1.0,1.0,7.0,3.0,3139.033811306035,4.0,1.0,phase_3,,,,,196.0,4.0,49.0,98.0,196.0,294.0,147.0,245.0,blue,diamond
0.0,6.0,1.0,1.0,7.0,2.0,1914.784347416571,4.0,1.0,phase_3,,,,,170.0,5.0,102.0,170.0,136.0,204.0,34.0,68.0,blue,diamond
