raw_reward_magnitude,stim_reward,stepwise_reward_magnitude,paired_with_stopping,stim_location,response,reaction_time,block,num_trial_presentations,which_phase,stop_signal_trial_type,left_SSD,right_SSD,accuracy,chosen_bidding_amount,chosen_bidding_level,possible_bid_1,possible_bid_2,possible_bid_3,possible_bid_4,possible_bid_5,possible_bid_6,color_text,shape_text
194.0,3.0,2.0,0.0,3.0,3.0,373.5809999823232,1.0,1.0,phase_1,,,,,,,,,,,,,yellow,diamond
0.0,2.0,0.0,0.0,4.0,4.0,486.1553395683131,1.0,1.0,phase_1,,,,,,,,,,,,,blue,triangle
222.0,7.0,2.0,1.0,1.0,1.0,756.6247309998744,1.0,1.0,phase_1,,,,,,,,,,,,,white,flipped triangle
61.0,1.0,0.5,0.0,4.0,4.0,419.110233396168,1.0,1.0,phase_1,,,,,,,,,,,,,gray,I
0.0,6.0,0.0,1.0,2.0,2.0,319.6056457750273,1.0,1.0,phase_1,,,,,,,,,,,,,cyan,hexagon
391.0,4.0,4.0,0.0,4.0,4.0,375.1719485858302,1.0,1.0,phase_1,,,,,,,,,,,,,magenta,cross
207.0,7.0,2.0,1.0,3.0,3.0,354.0525857749799,1.0,1.0,phase_1,,,,,,,,,,,,,white,flipped triangle
417.0,4.0,4.0,0.0,2.0,2.0,376.8491303785595,1.0,1.0,phase_1,,,,,,,,,,,,,magenta,cross
411.0,8.0,4.0,1.0,2.0,2.0,365.7958253786546,1.0,1.0,phase_1,,,,,,,,,,,,,orange,square
122.0,2.0,1.0,0.0,2.0,2.0,412.1057555857987,1.0,1.0,phase_1,,,,,,,,,,,,,blue,triangle
49.0,1.0,0.5,0.0,1.0,1.0,378.3234445859307,1.0,1.0,phase_1,,,,,,,,,,,,,gray,I
90.0,6.0,1.0,1.0,4.0,4.0,400.5682147931111,1.0,1.0,phase_1,,,,,,,,,,,,,cyan,hexagon
391.0,8.0,4.0,1.0,3.0,3.0,391.174674793092,1.0,1.0,phase_1,,,,,,,,,,,,,orange,square
402.0,4.0,4.0,0.0,2.0,2.0,301.216463585888,1.0,1.0,phase_1,,,,,,,,,,,,,magenta,cross
408.0,4.0,4.0,0.0,4.0,4.0,346.5809983963481,1.0,1.0,phase_1,,,,,,,,,,,,,magenta,cross
105.0,6.0,1.0,1.0,4.0,4.0,360.0243231715012,1.0,1.0,phase_1,,,,,,,,,,,,,cyan,hexagon
69.0,1.0,0.5,0.0,3.0,3.0,370.6109145857681,1.0,1.0,phase_1,,,,,,,,,,,,,gray,I
0.0,7.0,0.0,1.0,1.0,1.0,314.3555083963747,1.0,1.0,phase_1,,,,,,,,,,,,,white,flipped triangle
190.0,7.0,2.0,1.0,1.0,1.0,406.4183751893324,1.0,1.0,phase_1,,,,,,,,,,,,,white,flipped triangle
385.0,8.0,4.0,1.0,1.0,1.0,406.0180787753324,1.0,1.0,phase_1,,,,,,,,,,,,,orange,square
204.0,3.0,2.0,0.0,4.0,4.0,349.7639205679661,1.0,1.0,phase_1,,,,,,,,,,,,,yellow,diamond
0.0,7.0,0.0,1.0,1.0,1.0,339.2835573963566,1.0,1.0,phase_1,,,,,,,,,,,,,white,flipped triangle
0.0,5.0,0.0,1.0,2.0,2.0,442.8338713787525,1.0,1.0,phase_1,,,,,,,,,,,,,green,circle
189.0,3.0,2.0,0.0,2.0,2.0,306.7152099822579,1.0,1.0,phase_1,,,,,,,,,,,,,yellow,diamond
37.0,5.0,0.5,1.0,4.0,4.0,375.005753378673,1.0,1.0,phase_1,,,,,,,,,,,,,green,circle
198.0,7.0,2.0,1.0,4.0,4.0,331.5786369823854,1.0,1.0,phase_1,,,,,,,,,,,,,white,flipped triangle
407.0,4.0,4.0,0.0,4.0,4.0,353.4572505859614,1.0,1.0,phase_1,,,,,,,,,,,,,magenta,cross
0.0,5.0,0.0,1.0,3.0,3.0,342.13598198221,1.0,1.0,phase_1,,,,,,,,,,,,,green,circle
392.0,4.0,4.0,0.0,2.0,2.0,456.6288616038036,1.0,1.0,phase_1,,,,,,,,,,,,,magenta,cross
178.0,3.0,2.0,0.0,1.0,1.0,389.6035941716036,1.0,1.0,phase_1,,,,,,,,,,,,,yellow,diamond
69.0,5.0,0.5,1.0,1.0,1.0,357.4420715860924,1.0,1.0,phase_1,,,,,,,,,,,,,green,circle
54.0,1.0,0.5,0.0,1.0,1.0,356.7278531716056,1.0,1.0,phase_1,,,,,,,,,,,,,gray,I
0.0,6.0,0.0,1.0,2.0,2.0,313.4393133964295,1.0,1.0,phase_1,,,,,,,,,,,,,cyan,hexagon
61.0,1.0,0.5,0.0,2.0,2.0,336.0737083787626,1.0,1.0,phase_1,,,,,,,,,,,,,gray,I
56.0,1.0,0.5,0.0,1.0,1.0,380.4946867930994,1.0,1.0,phase_1,,,,,,,,,,,,,gray,I
59.0,1.0,0.5,0.0,3.0,3.0,348.0743513787274,1.0,1.0,phase_1,,,,,,,,,,,,,gray,I
0.0,1.0,0.0,0.0,3.0,3.0,392.5966227752724,1.0,1.0,phase_1,,,,,,,,,,,,,gray,I
200.0,7.0,2.0,1.0,3.0,3.0,314.8710501714049,1.0,1.0,phase_1,,,,,,,,,,,,,white,flipped triangle
46.0,5.0,0.5,1.0,3.0,3.0,349.3723371716442,1.0,1.0,phase_1,,,,,,,,,,,,,green,circle
376.0,8.0,4.0,1.0,1.0,1.0,439.8370217929823,1.0,2.0,phase_1,,,,,,,,,,,,,orange,square
404.0,8.0,4.0,1.0,2.0,2.0,520.3867393963719,1.0,1.0,phase_1,,,,,,,,,,,,,orange,square
0.0,7.0,0.0,1.0,3.0,3.0,417.6709757930439,1.0,1.0,phase_1,,,,,,,,,,,,,white,flipped triangle
223.0,7.0,2.0,1.0,4.0,4.0,521.6432503787019,1.0,1.0,phase_1,,,,,,,,,,,,,white,flipped triangle
46.0,1.0,0.5,0.0,3.0,3.0,407.7464577928822,1.0,1.0,phase_1,,,,,,,,,,,,,gray,I
117.0,6.0,1.0,1.0,4.0,4.0,465.2712667930245,1.0,1.0,phase_1,,,,,,,,,,,,,cyan,hexagon
0.0,1.0,0.0,0.0,4.0,4.0,454.94530979294717,1.0,1.0,phase_1,,,,,,,,,,,,,gray,I
98.0,6.0,1.0,1.0,1.0,1.0,456.2490531891399,1.0,1.0,phase_1,,,,,,,,,,,,,cyan,hexagon
0.0,4.0,0.0,0.0,4.0,4.0,445.7090467751641,1.0,1.0,phase_1,,,,,,,,,,,,,magenta,cross
186.0,3.0,2.0,0.0,4.0,4.0,434.0681555856918,1.0,1.0,phase_1,,,,,,,,,,,,,yellow,diamond
407.0,8.0,4.0,1.0,2.0,2.0,490.6296163785555,1.0,1.0,phase_1,,,,,,,,,,,,,orange,square
85.0,6.0,1.0,1.0,1.0,1.0,479.3481955857714,1.0,1.0,phase_1,,,,,,,,,,,,,cyan,hexagon
404.0,8.0,4.0,1.0,3.0,3.0,469.1766221892521,1.0,1.0,phase_1,,,,,,,,,,,,,orange,square
404.0,4.0,4.0,0.0,4.0,4.0,481.0238697928071,1.0,1.0,phase_1,,,,,,,,,,,,,magenta,cross
418.0,8.0,4.0,1.0,4.0,4.0,482.0102385681366,1.0,1.0,phase_1,,,,,,,,,,,,,orange,square
215.0,7.0,2.0,1.0,3.0,3.0,369.8273083784897,1.0,1.0,phase_1,,,,,,,,,,,,,white,flipped triangle
109.0,2.0,1.0,0.0,3.0,3.0,336.2654563786691,1.0,1.0,phase_1,,,,,,,,,,,,,blue,triangle
63.0,1.0,0.5,0.0,2.0,2.0,383.1440135859338,1.0,1.0,phase_1,,,,,,,,,,,,,gray,I
198.0,7.0,2.0,1.0,2.0,2.0,383.8193477929508,1.0,1.0,phase_1,,,,,,,,,,,,,white,flipped triangle
78.0,6.0,1.0,1.0,3.0,3.0,384.048075982264,1.0,1.0,phase_1,,,,,,,,,,,,,cyan,hexagon
399.0,8.0,4.0,1.0,2.0,2.0,361.2506195859168,1.0,1.0,phase_1,,,,,,,,,,,,,orange,square
407.0,4.0,4.0,0.0,4.0,4.0,384.2442930003926,1.0,1.0,phase_1,,,,,,,,,,,,,magenta,cross
109.0,6.0,1.0,1.0,1.0,1.0,340.3632337931412,1.0,1.0,phase_1,,,,,,,,,,,,,cyan,hexagon
65.0,5.0,0.5,1.0,1.0,1.0,341.0570813962295,1.0,1.0,phase_1,,,,,,,,,,,,,green,circle
385.0,8.0,4.0,1.0,2.0,2.0,375.05986998212387,1.0,1.0,phase_1,,,,,,,,,,,,,orange,square
0.0,6.0,0.0,1.0,1.0,1.0,240.4991616035658,1.0,1.0,phase_1,,,,,,,,,,,,,cyan,hexagon
87.0,6.0,1.0,1.0,1.0,1.0,398.913945568438,1.0,1.0,phase_1,,,,,,,,,,,,,cyan,hexagon
62.0,5.0,0.5,1.0,1.0,1.0,332.6926259824176,1.0,1.0,phase_1,,,,,,,,,,,,,green,circle
378.0,8.0,4.0,1.0,2.0,2.0,455.2901747752003,1.0,1.0,phase_1,,,,,,,,,,,,,orange,square
62.0,1.0,0.5,0.0,3.0,3.0,389.781453982323,1.0,1.0,phase_1,,,,,,,,,,,,,gray,I
207.0,7.0,2.0,1.0,2.0,2.0,310.8921159823694,1.0,1.0,phase_1,,,,,,,,,,,,,white,flipped triangle
195.0,7.0,2.0,1.0,2.0,2.0,311.4911927750654,1.0,1.0,phase_1,,,,,,,,,,,,,white,flipped triangle
116.0,2.0,1.0,0.0,1.0,1.0,447.5198333784647,1.0,1.0,phase_1,,,,,,,,,,,,,blue,triangle
0.0,4.0,0.0,0.0,1.0,1.0,336.1394859821303,1.0,1.0,phase_1,,,,,,,,,,,,,magenta,cross
420.0,8.0,4.0,1.0,3.0,3.0,424.7398571719714,1.0,1.0,phase_1,,,,,,,,,,,,,orange,square
0.0,8.0,0.0,1.0,1.0,1.0,369.3695161896357,1.0,1.0,phase_1,,,,,,,,,,,,,orange,square
415.0,8.0,4.0,1.0,1.0,1.0,382.0461927748511,1.0,1.0,phase_1,,,,,,,,,,,,,orange,square
0.0,8.0,0.0,1.0,4.0,4.0,348.5695675685747,1.0,1.0,phase_1,,,,,,,,,,,,,orange,square
193.0,3.0,2.0,0.0,2.0,2.0,338.8564085857979,1.0,1.0,phase_1,,,,,,,,,,,,,yellow,diamond
382.0,8.0,4.0,1.0,1.0,1.0,326.5680623790103,1.0,1.0,phase_1,,,,,,,,,,,,,orange,square
83.0,6.0,1.0,1.0,2.0,2.0,428.938046982239,1.0,1.0,phase_1,,,,,,,,,,,,,cyan,hexagon
0.0,2.0,0.0,0.0,4.0,4.0,395.1116627749798,1.0,1.0,phase_1,,,,,,,,,,,,,blue,triangle
25.0,1.0,0.5,0.0,1.0,1.0,440.2922227923227,1.0,1.0,phase_1,,,,,,,,,,,,,gray,I
391.0,8.0,4.0,1.0,4.0,4.0,442.4467973785795,1.0,1.0,phase_1,,,,,,,,,,,,,orange,square
185.0,3.0,2.0,0.0,4.0,4.0,375.8530521895409,1.0,1.0,phase_1,,,,,,,,,,,,,yellow,diamond
183.0,3.0,2.0,0.0,2.0,2.0,318.7393243961196,1.0,1.0,phase_1,,,,,,,,,,,,,yellow,diamond
87.0,2.0,1.0,0.0,4.0,4.0,487.6118483789469,1.0,1.0,phase_1,,,,,,,,,,,,,blue,triangle
193.0,7.0,2.0,1.0,1.0,1.0,353.1690859822447,1.0,1.0,phase_1,,,,,,,,,,,,,white,flipped triangle
92.0,6.0,1.0,1.0,4.0,4.0,364.8581570000715,1.0,1.0,phase_1,,,,,,,,,,,,,cyan,hexagon
77.0,6.0,1.0,1.0,2.0,2.0,434.7366450001573,1.0,1.0,phase_1,,,,,,,,,,,,,cyan,hexagon
117.0,2.0,1.0,0.0,1.0,1.0,435.7569161898027,1.0,1.0,phase_1,,,,,,,,,,,,,blue,triangle
411.0,4.0,4.0,0.0,1.0,1.0,357.3895431718483,1.0,1.0,phase_1,,,,,,,,,,,,,magenta,cross
49.0,5.0,0.5,1.0,3.0,3.0,379.2863459998443,1.0,1.0,phase_1,,,,,,,,,,,,,green,circle
216.0,7.0,2.0,1.0,4.0,4.0,423.4765021892599,1.0,1.0,phase_1,,,,,,,,,,,,,white,flipped triangle
402.0,8.0,4.0,1.0,3.0,3.0,345.4702303783961,1.0,1.0,phase_1,,,,,,,,,,,,,orange,square
0.0,2.0,0.0,0.0,1.0,1.0,324.7494689821906,1.0,1.0,phase_1,,,,,,,,,,,,,blue,triangle
37.0,1.0,0.5,0.0,3.0,3.0,381.475773585862,1.0,1.0,phase_1,,,,,,,,,,,,,gray,I
112.0,2.0,1.0,0.0,3.0,3.0,370.9400811894738,1.0,1.0,phase_1,,,,,,,,,,,,,blue,triangle
109.0,6.0,1.0,1.0,3.0,3.0,313.9465177923739,1.0,1.0,phase_1,,,,,,,,,,,,,cyan,hexagon
0.0,4.0,0.0,0.0,3.0,3.0,371.4069393786303,1.0,1.0,phase_1,,,,,,,,,,,,,magenta,cross
52.0,1.0,0.5,0.0,1.0,1.0,439.3061833789033,1.0,1.0,phase_1,,,,,,,,,,,,,gray,I
0.0,8.0,0.0,1.0,3.0,3.0,472.4430895857949,2.0,1.0,phase_1,,,,,,,,,,,,,orange,square
391.0,4.0,4.0,0.0,4.0,4.0,405.906433189557,2.0,1.0,phase_1,,,,,,,,,,,,,magenta,cross
403.0,8.0,4.0,1.0,1.0,1.0,340.750703982394,2.0,1.0,phase_1,,,,,,,,,,,,,orange,square
422.0,8.0,4.0,1.0,3.0,3.0,372.8298353785249,2.0,1.0,phase_1,,,,,,,,,,,,,orange,square
197.0,7.0,2.0,1.0,3.0,3.0,339.6386959998381,2.0,1.0,phase_1,,,,,,,,,,,,,white,flipped triangle
25.0,5.0,0.5,1.0,2.0,2.0,342.065196585736,2.0,1.0,phase_1,,,,,,,,,,,,,green,circle
123.0,6.0,1.0,1.0,4.0,4.0,398.2097287748729,2.0,1.0,phase_1,,,,,,,,,,,,,cyan,hexagon
222.0,7.0,2.0,1.0,1.0,1.0,285.9264647750024,2.0,1.0,phase_1,,,,,,,,,,,,,white,flipped triangle
109.0,2.0,1.0,0.0,2.0,2.0,332.774325396258,2.0,1.0,phase_1,,,,,,,,,,,,,blue,triangle
385.0,4.0,4.0,0.0,1.0,1.0,355.7089905857538,2.0,1.0,phase_1,,,,,,,,,,,,,magenta,cross
0.0,5.0,0.0,1.0,4.0,4.0,332.7517037928373,2.0,1.0,phase_1,,,,,,,,,,,,,green,circle
54.0,5.0,0.5,1.0,2.0,2.0,333.8401305859406,2.0,1.0,phase_1,,,,,,,,,,,,,green,circle
193.0,3.0,2.0,0.0,1.0,1.0,367.0983690003595,2.0,1.0,phase_1,,,,,,,,,,,,,yellow,diamond
198.0,3.0,2.0,0.0,3.0,3.0,357.7916847748383,2.0,1.0,phase_1,,,,,,,,,,,,,yellow,diamond
53.0,5.0,0.5,1.0,4.0,4.0,346.9193671894572,2.0,1.0,phase_1,,,,,,,,,,,,,green,circle
37.0,1.0,0.5,0.0,4.0,4.0,380.7776933786044,2.0,1.0,phase_1,,,,,,,,,,,,,gray,I
86.0,2.0,1.0,0.0,4.0,4.0,302.24761658564597,2.0,1.0,phase_1,,,,,,,,,,,,,blue,triangle
186.0,3.0,2.0,0.0,2.0,2.0,449.2585169823542,2.0,1.0,phase_1,,,,,,,,,,,,,yellow,diamond
190.0,3.0,2.0,0.0,2.0,2.0,393.401466774776,2.0,1.0,phase_1,,,,,,,,,,,,,yellow,diamond
27.0,5.0,0.5,1.0,4.0,4.0,404.2723867928544,2.0,1.0,phase_1,,,,,,,,,,,,,green,circle
384.0,8.0,4.0,1.0,3.0,3.0,394.5318753785614,2.0,1.0,phase_1,,,,,,,,,,,,,orange,square
87.0,6.0,1.0,1.0,3.0,3.0,383.4978575682726,2.0,1.0,phase_1,,,,,,,,,,,,,cyan,hexagon
219.0,7.0,2.0,1.0,3.0,3.0,361.8002787748082,2.0,1.0,phase_1,,,,,,,,,,,,,white,flipped triangle
395.0,4.0,4.0,0.0,3.0,3.0,395.7837277926046,2.0,1.0,phase_1,,,,,,,,,,,,,magenta,cross
178.0,7.0,2.0,1.0,2.0,2.0,409.0629291895311,2.0,1.0,phase_1,,,,,,,,,,,,,white,flipped triangle
375.0,4.0,4.0,0.0,3.0,3.0,374.6344841893005,2.0,1.0,phase_1,,,,,,,,,,,,,magenta,cross
0.0,3.0,0.0,0.0,4.0,4.0,397.6045205854461,2.0,1.0,phase_1,,,,,,,,,,,,,yellow,diamond
0.0,5.0,0.0,1.0,4.0,4.0,365.2027993784941,2.0,1.0,phase_1,,,,,,,,,,,,,green,circle
0.0,5.0,0.0,1.0,3.0,3.0,387.1678235682338,2.0,1.0,phase_1,,,,,,,,,,,,,green,circle
59.0,5.0,0.5,1.0,4.0,4.0,343.6918261718347,2.0,1.0,phase_1,,,,,,,,,,,,,green,circle
222.0,3.0,2.0,0.0,2.0,2.0,356.180478585884,2.0,1.0,phase_1,,,,,,,,,,,,,yellow,diamond
407.0,8.0,4.0,1.0,1.0,1.0,366.7320305858084,2.0,1.0,phase_1,,,,,,,,,,,,,orange,square
0.0,1.0,0.0,0.0,1.0,1.0,423.8407803786685,2.0,1.0,phase_1,,,,,,,,,,,,,gray,I
92.0,2.0,1.0,0.0,4.0,4.0,346.3518849821412,2.0,1.0,phase_1,,,,,,,,,,,,,blue,triangle
0.0,8.0,0.0,1.0,1.0,1.0,289.4787761892985,2.0,1.0,phase_1,,,,,,,,,,,,,orange,square
206.0,3.0,2.0,0.0,4.0,4.0,334.9917085679408,2.0,1.0,phase_1,,,,,,,,,,,,,yellow,diamond
180.0,7.0,2.0,1.0,2.0,2.0,324.9520800000027,2.0,1.0,phase_1,,,,,,,,,,,,,white,flipped triangle
378.0,4.0,4.0,0.0,2.0,2.0,383.0607359823261,2.0,1.0,phase_1,,,,,,,,,,,,,magenta,cross
0.0,8.0,0.0,1.0,2.0,2.0,349.9070107927764,2.0,1.0,phase_1,,,,,,,,,,,,,orange,square
399.0,4.0,4.0,0.0,1.0,1.0,337.6806397750442,2.0,1.0,phase_1,,,,,,,,,,,,,magenta,cross
64.0,1.0,0.5,0.0,2.0,2.0,337.9437455682819,2.0,1.0,phase_1,,,,,,,,,,,,,gray,I
98.0,2.0,1.0,0.0,1.0,1.0,361.4077581896708,2.0,1.0,phase_1,,,,,,,,,,,,,blue,triangle
111.0,6.0,1.0,1.0,4.0,4.0,372.8665203784658,2.0,1.0,phase_1,,,,,,,,,,,,,cyan,hexagon
201.0,3.0,2.0,0.0,1.0,1.0,373.9763085386585,2.0,1.0,phase_1,,,,,,,,,,,,,yellow,diamond
117.0,2.0,1.0,0.0,1.0,1.0,431.5076233783657,2.0,1.0,phase_1,,,,,,,,,,,,,blue,triangle
71.0,1.0,0.5,0.0,3.0,3.0,386.4463195859571,2.0,1.0,phase_1,,,,,,,,,,,,,gray,I
123.0,2.0,1.0,0.0,1.0,1.0,330.6493117747777,2.0,1.0,phase_1,,,,,,,,,,,,,blue,triangle
0.0,7.0,0.0,1.0,2.0,2.0,376.0269423787576,2.0,1.0,phase_1,,,,,,,,,,,,,white,flipped triangle
0.0,7.0,0.0,1.0,2.0,2.0,353.9832343785747,2.0,1.0,phase_1,,,,,,,,,,,,,white,flipped triangle
85.0,2.0,1.0,0.0,3.0,3.0,434.1985343962733,2.0,1.0,phase_1,,,,,,,,,,,,,blue,triangle
0.0,7.0,0.0,1.0,3.0,3.0,400.1030891895425,2.0,1.0,phase_1,,,,,,,,,,,,,white,flipped triangle
90.0,2.0,1.0,0.0,2.0,2.0,368.0876351895676,2.0,1.0,phase_1,,,,,,,,,,,,,blue,triangle
54.0,5.0,0.5,1.0,2.0,2.0,355.4454629820611,2.0,1.0,phase_1,,,,,,,,,,,,,green,circle
0.0,3.0,0.0,0.0,4.0,4.0,547.7379293788545,2.0,1.0,phase_1,,,,,,,,,,,,,yellow,diamond
86.0,6.0,1.0,1.0,3.0,3.0,570.9098747925054,2.0,1.0,phase_1,,,,,,,,,,,,,cyan,hexagon
81.0,6.0,1.0,1.0,3.0,3.0,346.8078276032429,2.0,1.0,phase_1,,,,,,,,,,,,,cyan,hexagon
419.0,4.0,4.0,0.0,3.0,3.0,313.0001831896152,2.0,1.0,phase_1,,,,,,,,,,,,,magenta,cross
79.0,2.0,1.0,0.0,4.0,4.0,471.2174527926436,2.0,1.0,phase_1,,,,,,,,,,,,,blue,triangle
51.0,5.0,0.5,1.0,3.0,3.0,381.8486345858218,2.0,1.0,phase_1,,,,,,,,,,,,,green,circle
202.0,3.0,2.0,0.0,1.0,1.0,360.4975281896259,2.0,1.0,phase_1,,,,,,,,,,,,,yellow,diamond
211.0,7.0,2.0,1.0,4.0,4.0,305.2352727750076,2.0,1.0,phase_1,,,,,,,,,,,,,white,flipped triangle
111.0,2.0,1.0,0.0,2.0,2.0,372.9246465682081,2.0,1.0,phase_1,,,,,,,,,,,,,blue,triangle
0.0,4.0,0.0,0.0,4.0,4.0,271.893550378536,2.0,1.0,phase_1,,,,,,,,,,,,,magenta,cross
53.0,5.0,0.5,1.0,2.0,2.0,272.5094007751067,2.0,1.0,phase_1,,,,,,,,,,,,,green,circle
409.0,4.0,4.0,0.0,3.0,3.0,341.053977982483,2.0,1.0,phase_1,,,,,,,,,,,,,magenta,cross
46.0,5.0,0.5,1.0,3.0,3.0,363.0003313965062,2.0,1.0,phase_1,,,,,,,,,,,,,green,circle
32.0,1.0,0.5,0.0,4.0,4.0,443.9863765860536,2.0,1.0,phase_1,,,,,,,,,,,,,gray,I
392.0,8.0,4.0,1.0,4.0,4.0,433.0114587928619,2.0,1.0,phase_1,,,,,,,,,,,,,orange,square
0.0,2.0,0.0,0.0,4.0,4.0,375.3845559822366,2.0,1.0,phase_1,,,,,,,,,,,,,blue,triangle
398.0,8.0,4.0,1.0,3.0,3.0,375.776217792918,2.0,1.0,phase_1,,,,,,,,,,,,,orange,square
392.0,4.0,4.0,0.0,1.0,1.0,388.484371585946,2.0,1.0,phase_1,,,,,,,,,,,,,magenta,cross
26.0,5.0,0.5,1.0,3.0,3.0,343.556709792665,2.0,1.0,phase_1,,,,,,,,,,,,,green,circle
94.0,2.0,1.0,0.0,3.0,3.0,355.5366127748129,2.0,1.0,phase_1,,,,,,,,,,,,,blue,triangle
87.0,2.0,1.0,0.0,1.0,1.0,346.3165881717032,2.0,1.0,phase_1,,,,,,,,,,,,,blue,triangle
63.0,5.0,0.5,1.0,1.0,1.0,357.0242035862065,2.0,1.0,phase_1,,,,,,,,,,,,,green,circle
385.0,4.0,4.0,0.0,4.0,4.0,426.3774955857116,2.0,1.0,phase_1,,,,,,,,,,,,,magenta,cross
0.0,6.0,0.0,1.0,3.0,3.0,313.2112783787306,2.0,1.0,phase_1,,,,,,,,,,,,,cyan,hexagon
102.0,6.0,1.0,1.0,2.0,2.0,326.4228467746761,2.0,1.0,phase_1,,,,,,,,,,,,,cyan,hexagon
194.0,7.0,2.0,1.0,3.0,3.0,336.0200427928248,2.0,1.0,phase_1,,,,,,,,,,,,,white,flipped triangle
83.0,2.0,1.0,0.0,4.0,4.0,348.31506718956,2.0,1.0,phase_1,,,,,,,,,,,,,blue,triangle
178.0,7.0,2.0,1.0,2.0,2.0,327.2813908101852,2.0,1.0,phase_1,,,,,,,,,,,,,white,flipped triangle
210.0,7.0,2.0,1.0,2.0,2.0,281.9843229822254,2.0,1.0,phase_1,,,,,,,,,,,,,white,flipped triangle
109.0,6.0,1.0,1.0,1.0,1.0,271.435719585952,2.0,1.0,phase_1,,,,,,,,,,,,,cyan,hexagon
86.0,6.0,1.0,1.0,2.0,2.0,317.8028327747597,2.0,1.0,phase_1,,,,,,,,,,,,,cyan,hexagon
92.0,6.0,1.0,1.0,4.0,4.0,329.93866439665,2.0,1.0,phase_1,,,,,,,,,,,,,cyan,hexagon
193.0,7.0,2.0,1.0,3.0,3.0,295.4958761893067,2.0,1.0,phase_1,,,,,,,,,,,,,white,flipped triangle
397.0,8.0,4.0,1.0,3.0,3.0,328.9439037748707,2.0,1.0,phase_1,,,,,,,,,,,,,orange,square
398.0,4.0,4.0,0.0,1.0,1.0,376.5243263965203,2.0,1.0,phase_1,,,,,,,,,,,,,magenta,cross
46.0,1.0,0.5,0.0,1.0,1.0,355.1138507923497,2.0,1.0,phase_1,,,,,,,,,,,,,gray,I
180.0,7.0,2.0,1.0,1.0,1.0,523.865370378644,2.0,1.0,phase_1,,,,,,,,,,,,,white,flipped triangle
87.0,6.0,1.0,1.0,3.0,3.0,320.0751419999506,2.0,1.0,phase_1,,,,,,,,,,,,,cyan,hexagon
37.0,5.0,0.5,1.0,1.0,1.0,356.4832767929147,2.0,1.0,phase_1,,,,,,,,,,,,,green,circle
78.0,2.0,1.0,0.0,2.0,2.0,389.6043083782388,2.0,1.0,phase_1,,,,,,,,,,,,,blue,triangle
411.0,4.0,4.0,0.0,2.0,2.0,288.6872365861563,2.0,1.0,phase_1,,,,,,,,,,,,,magenta,cross
0.0,1.0,0.0,0.0,4.0,4.0,480.3719689825811,2.0,1.0,phase_1,,,,,,,,,,,,,gray,I
418.0,4.0,4.0,0.0,1.0,1.0,402.7820851897559,2.0,1.0,phase_1,,,,,,,,,,,,,magenta,cross
55.0,5.0,0.5,1.0,4.0,4.0,370.0845073785785,2.0,1.0,phase_1,,,,,,,,,,,,,green,circle
419.0,4.0,4.0,0.0,4.0,4.0,392.792642171571,2.0,1.0,phase_1,,,,,,,,,,,,,magenta,cross
0.0,6.0,0.0,1.0,2.0,2.0,427.9851767751097,2.0,1.0,phase_1,,,,,,,,,,,,,cyan,hexagon
392.0,4.0,4.0,0.0,2.0,2.0,415.645837982538,2.0,1.0,phase_1,,,,,,,,,,,,,magenta,cross
419.0,8.0,4.0,1.0,4.0,4.0,449.7543833786039,3.0,1.0,phase_1,,,,,,,,,,,,,orange,square
61.0,5.0,0.5,1.0,2.0,2.0,372.3550595859706,3.0,2.0,phase_1,,,,,,,,,,,,,green,circle
102.0,2.0,1.0,0.0,2.0,2.0,363.4995731717936,3.0,1.0,phase_1,,,,,,,,,,,,,blue,triangle
105.0,2.0,1.0,0.0,2.0,2.0,317.6099693782817,3.0,1.0,phase_1,,,,,,,,,,,,,blue,triangle
178.0,3.0,2.0,0.0,4.0,4.0,374.6590439823194,3.0,1.0,phase_1,,,,,,,,,,,,,yellow,diamond
0.0,4.0,0.0,0.0,3.0,3.0,363.6713907926605,3.0,1.0,phase_1,,,,,,,,,,,,,magenta,cross
90.0,2.0,1.0,0.0,4.0,4.0,364.7157897926263,3.0,1.0,phase_1,,,,,,,,,,,,,blue,triangle
422.0,4.0,4.0,0.0,3.0,3.0,433.3351815857895,3.0,1.0,phase_1,,,,,,,,,,,,,magenta,cross
198.0,3.0,2.0,0.0,1.0,1.0,410.8262033787468,3.0,1.0,phase_1,,,,,,,,,,,,,yellow,diamond
0.0,5.0,0.0,1.0,4.0,4.0,377.1242215857455,3.0,1.0,phase_1,,,,,,,,,,,,,green,circle
32.0,1.0,0.5,0.0,2.0,2.0,423.0633961892636,3.0,1.0,phase_1,,,,,,,,,,,,,gray,I
0.0,6.0,0.0,1.0,2.0,2.0,334.60704798199,3.0,1.0,phase_1,,,,,,,,,,,,,cyan,hexagon
122.0,6.0,1.0,1.0,4.0,4.0,423.7308145857241,3.0,1.0,phase_1,,,,,,,,,,,,,cyan,hexagon
222.0,3.0,2.0,0.0,2.0,2.0,334.5619231718046,3.0,1.0,phase_1,,,,,,,,,,,,,yellow,diamond
75.0,1.0,0.5,0.0,1.0,1.0,358.8833925682593,3.0,1.0,phase_1,,,,,,,,,,,,,gray,I
417.0,8.0,4.0,1.0,3.0,3.0,358.2929225858606,3.0,1.0,phase_1,,,,,,,,,,,,,orange,square
0.0,4.0,0.0,0.0,3.0,3.0,358.5519025677968,3.0,1.0,phase_1,,,,,,,,,,,,,magenta,cross
85.0,2.0,1.0,0.0,2.0,2.0,304.6713505855223,3.0,1.0,phase_1,,,,,,,,,,,,,blue,triangle
0.0,3.0,0.0,0.0,3.0,3.0,382.3047775858867,3.0,1.0,phase_1,,,,,,,,,,,,,yellow,diamond
418.0,8.0,4.0,1.0,1.0,1.0,337.7391655380961,3.0,1.0,phase_1,,,,,,,,,,,,,orange,square
90.0,6.0,1.0,1.0,3.0,3.0,450.0537653962055,3.0,1.0,phase_1,,,,,,,,,,,,,cyan,hexagon
66.0,5.0,0.5,1.0,2.0,2.0,351.1541455682163,3.0,1.0,phase_1,,,,,,,,,,,,,green,circle
183.0,7.0,2.0,1.0,3.0,3.0,340.2543667925783,3.0,1.0,phase_1,,,,,,,,,,,,,white,flipped triangle
56.0,1.0,0.5,0.0,4.0,4.0,384.7537627748352,3.0,1.0,phase_1,,,,,,,,,,,,,gray,I
205.0,3.0,2.0,0.0,1.0,1.0,317.7886963785568,3.0,1.0,phase_1,,,,,,,,,,,,,yellow,diamond
118.0,6.0,1.0,1.0,2.0,2.0,308.1793075862151,3.0,1.0,phase_1,,,,,,,,,,,,,cyan,hexagon
0.0,2.0,0.0,0.0,1.0,1.0,343.1230739820421,3.0,1.0,phase_1,,,,,,,,,,,,,blue,triangle
0.0,3.0,0.0,0.0,2.0,2.0,308.4365775857804,3.0,1.0,phase_1,,,,,,,,,,,,,yellow,diamond
178.0,3.0,2.0,0.0,2.0,2.0,299.0191499820867,3.0,1.0,phase_1,,,,,,,,,,,,,yellow,diamond
382.0,4.0,4.0,0.0,2.0,2.0,331.9037397927786,3.0,1.0,phase_1,,,,,,,,,,,,,magenta,cross
206.0,3.0,2.0,0.0,4.0,4.0,366.1654201714555,3.0,1.0,phase_1,,,,,,,,,,,,,yellow,diamond
111.0,2.0,1.0,0.0,2.0,2.0,301.1751035855923,3.0,1.0,phase_1,,,,,,,,,,,,,blue,triangle
116.0,6.0,1.0,1.0,1.0,1.0,369.4055301721164,3.0,1.0,phase_1,,,,,,,,,,,,,cyan,hexagon
0.0,2.0,0.0,0.0,3.0,3.0,515.2286915681543,3.0,1.0,phase_1,,,,,,,,,,,,,blue,triangle
223.0,3.0,2.0,0.0,1.0,1.0,347.8780645859842,3.0,1.0,phase_1,,,,,,,,,,,,,yellow,diamond
415.0,4.0,4.0,0.0,2.0,2.0,346.7573903785705,3.0,1.0,phase_1,,,,,,,,,,,,,magenta,cross
0.0,8.0,0.0,1.0,2.0,2.0,336.2358943963954,3.0,1.0,phase_1,,,,,,,,,,,,,orange,square
79.0,6.0,1.0,1.0,3.0,3.0,382.5684916209866,3.0,1.0,phase_1,,,,,,,,,,,,,cyan,hexagon
375.0,8.0,4.0,1.0,2.0,2.0,304.6914653787098,3.0,1.0,phase_1,,,,,,,,,,,,,orange,square
61.0,5.0,0.5,1.0,4.0,4.0,394.647755378628,3.0,1.0,phase_1,,,,,,,,,,,,,green,circle
94.0,6.0,1.0,1.0,4.0,4.0,339.6814857751451,3.0,1.0,phase_1,,,,,,,,,,,,,cyan,hexagon
185.0,7.0,2.0,1.0,1.0,1.0,372.6125999824035,3.0,1.0,phase_1,,,,,,,,,,,,,white,flipped triangle
0.0,6.0,0.0,1.0,1.0,1.0,350.71954439627,3.0,1.0,phase_1,,,,,,,,,,,,,cyan,hexagon
420.0,4.0,4.0,0.0,2.0,2.0,307.4631271897488,3.0,1.0,phase_1,,,,,,,,,,,,,magenta,cross
0.0,4.0,0.0,0.0,1.0,1.0,340.5558967751858,3.0,1.0,phase_1,,,,,,,,,,,,,magenta,cross
33.0,5.0,0.5,1.0,1.0,1.0,375.9290185680584,3.0,1.0,phase_1,,,,,,,,,,,,,green,circle
0.0,2.0,0.0,0.0,3.0,3.0,352.9437221718581,3.0,1.0,phase_1,,,,,,,,,,,,,blue,triangle
117.0,6.0,1.0,1.0,3.0,3.0,353.8274181896668,3.0,1.0,phase_1,,,,,,,,,,,,,cyan,hexagon
0.0,3.0,0.0,0.0,4.0,4.0,342.6968623784887,3.0,1.0,phase_1,,,,,,,,,,,,,yellow,diamond
0.0,7.0,0.0,1.0,3.0,3.0,298.2845729820838,3.0,1.0,phase_1,,,,,,,,,,,,,white,flipped triangle
205.0,7.0,2.0,1.0,1.0,1.0,445.0639057927219,3.0,1.0,phase_1,,,,,,,,,,,,,white,flipped triangle
198.0,3.0,2.0,0.0,1.0,1.0,344.9627123964092,3.0,1.0,phase_1,,,,,,,,,,,,,yellow,diamond
418.0,4.0,4.0,0.0,3.0,3.0,345.3721829823735,3.0,1.0,phase_1,,,,,,,,,,,,,magenta,cross
0.0,2.0,0.0,0.0,3.0,3.0,334.5335255858117,3.0,1.0,phase_1,,,,,,,,,,,,,blue,triangle
33.0,1.0,0.5,0.0,1.0,1.0,380.2090921717536,3.0,1.0,phase_1,,,,,,,,,,,,,gray,I
34.0,1.0,0.5,0.0,2.0,2.0,358.0444197928045,3.0,1.0,phase_1,,,,,,,,,,,,,gray,I
186.0,7.0,2.0,1.0,3.0,3.0,312.4897579823482,3.0,1.0,phase_1,,,,,,,,,,,,,white,flipped triangle
0.0,1.0,0.0,0.0,4.0,4.0,459.2988307927044,3.0,1.0,phase_1,,,,,,,,,,,,,gray,I
378.0,4.0,4.0,0.0,1.0,1.0,416.3212357748307,3.0,1.0,phase_1,,,,,,,,,,,,,magenta,cross
0.0,8.0,0.0,1.0,2.0,2.0,326.4740493964382,3.0,1.0,phase_1,,,,,,,,,,,,,orange,square
200.0,3.0,2.0,0.0,3.0,3.0,451.149599774908,3.0,1.0,phase_1,,,,,,,,,,,,,yellow,diamond
40.0,1.0,0.5,0.0,1.0,1.0,373.9516851896951,3.0,1.0,phase_1,,,,,,,,,,,,,gray,I
102.0,6.0,1.0,1.0,1.0,1.0,338.9210947748324,3.0,1.0,phase_1,,,,,,,,,,,,,cyan,hexagon
202.0,7.0,2.0,1.0,4.0,4.0,351.0982683783368,3.0,1.0,phase_1,,,,,,,,,,,,,white,flipped triangle
124.0,2.0,1.0,0.0,3.0,3.0,329.6626207925328,3.0,1.0,phase_1,,,,,,,,,,,,,blue,triangle
211.0,3.0,2.0,0.0,4.0,4.0,340.3544365860398,3.0,1.0,phase_1,,,,,,,,,,,,,yellow,diamond
0.0,3.0,0.0,0.0,1.0,1.0,343.1630144496012,3.0,1.0,phase_1,,,,,,,,,,,,,yellow,diamond
0.0,7.0,0.0,1.0,1.0,1.0,465.4576929819995,3.0,1.0,phase_1,,,,,,,,,,,,,white,flipped triangle
0.0,7.0,0.0,1.0,4.0,4.0,388.0562979820752,3.0,1.0,phase_1,,,,,,,,,,,,,white,flipped triangle
53.0,1.0,0.5,0.0,2.0,2.0,366.7806223961634,3.0,1.0,phase_1,,,,,,,,,,,,,gray,I
206.0,7.0,2.0,1.0,4.0,4.0,321.5167433781971,3.0,1.0,phase_1,,,,,,,,,,,,,white,flipped triangle
415.0,8.0,4.0,1.0,4.0,4.0,333.7137837747832,3.0,1.0,phase_1,,,,,,,,,,,,,orange,square
195.0,3.0,2.0,0.0,3.0,3.0,344.2270263785758,3.0,1.0,phase_1,,,,,,,,,,,,,yellow,diamond
87.0,2.0,1.0,0.0,3.0,3.0,346.2636351891888,3.0,1.0,phase_1,,,,,,,,,,,,,blue,triangle
0.0,4.0,0.0,0.0,2.0,2.0,380.0507807750364,3.0,1.0,phase_1,,,,,,,,,,,,,magenta,cross
180.0,3.0,2.0,0.0,2.0,2.0,313.3569115861974,3.0,1.0,phase_1,,,,,,,,,,,,,yellow,diamond
388.0,8.0,4.0,1.0,4.0,4.0,391.1930753961314,3.0,1.0,phase_1,,,,,,,,,,,,,orange,square
0.0,4.0,0.0,0.0,3.0,3.0,325.9410207747351,3.0,1.0,phase_1,,,,,,,,,,,,,magenta,cross
185.0,3.0,2.0,0.0,3.0,3.0,358.5931735860868,3.0,1.0,phase_1,,,,,,,,,,,,,yellow,diamond
214.0,7.0,2.0,1.0,2.0,2.0,337.4302539823475,3.0,1.0,phase_1,,,,,,,,,,,,,white,flipped triangle
388.0,4.0,4.0,0.0,1.0,1.0,348.7255665859265,3.0,1.0,phase_1,,,,,,,,,,,,,magenta,cross
0.0,8.0,0.0,1.0,4.0,4.0,360.7620667748961,3.0,1.0,phase_1,,,,,,,,,,,,,orange,square
215.0,3.0,2.0,0.0,3.0,3.0,338.1743881896,3.0,1.0,phase_1,,,,,,,,,,,,,yellow,diamond
64.0,5.0,0.5,1.0,3.0,3.0,295.0258293785737,3.0,1.0,phase_1,,,,,,,,,,,,,green,circle
111.0,6.0,1.0,1.0,1.0,1.0,328.954078586321,3.0,1.0,phase_1,,,,,,,,,,,,,cyan,hexagon
55.0,1.0,0.5,0.0,4.0,4.0,486.6911127928688,3.0,1.0,phase_1,,,,,,,,,,,,,gray,I
189.0,7.0,2.0,1.0,1.0,1.0,364.9924795859078,3.0,1.0,phase_1,,,,,,,,,,,,,white,flipped triangle
0.0,3.0,0.0,0.0,2.0,2.0,332.3225103963523,3.0,1.0,phase_1,,,,,,,,,,,,,yellow,diamond
102.0,6.0,1.0,1.0,4.0,4.0,320.2054737930666,3.0,1.0,phase_1,,,,,,,,,,,,,cyan,hexagon
411.0,8.0,4.0,1.0,4.0,4.0,298.3532947928324,3.0,1.0,phase_1,,,,,,,,,,,,,orange,square
105.0,6.0,1.0,1.0,3.0,3.0,332.6673959822983,3.0,1.0,phase_1,,,,,,,,,,,,,cyan,hexagon
222.0,3.0,2.0,0.0,1.0,1.0,356.9877635859484,3.0,1.0,phase_1,,,,,,,,,,,,,yellow,diamond
207.0,3.0,2.0,0.0,3.0,3.0,299.7862351894582,3.0,1.0,phase_1,,,,,,,,,,,,,yellow,diamond
45.0,1.0,0.5,0.0,3.0,3.0,323.1361277394171,3.0,1.0,phase_1,,,,,,,,,,,,,gray,I
41.0,5.0,0.5,1.0,3.0,3.0,311.8552013434055,3.0,1.0,phase_1,,,,,,,,,,,,,green,circle
384.0,4.0,4.0,0.0,3.0,3.0,458.4325949285812,3.0,1.0,phase_1,,,,,,,,,,,,,magenta,cross
48.0,1.0,0.5,0.0,4.0,4.0,379.6408171360781,3.0,1.0,phase_1,,,,,,,,,,,,,gray,I
0.0,5.0,0.0,1.0,1.0,1.0,336.1332506037797,3.0,1.0,phase_1,,,,,,,,,,,,,green,circle
411.0,4.0,4.0,0.0,4.0,4.0,303.2102987394864,3.0,1.0,phase_1,,,,,,,,,,,,,magenta,cross
109.0,2.0,1.0,0.0,4.0,4.0,417.2928593961842,3.0,1.0,phase_1,,,,,,,,,,,,,blue,triangle
41.0,1.0,0.5,0.0,4.0,4.0,575.2884623966565,4.0,1.0,phase_1,,,,,,,,,,,,,gray,I
0.0,5.0,0.0,1.0,4.0,4.0,340.6757875859512,4.0,1.0,phase_1,,,,,,,,,,,,,green,circle
0.0,3.0,0.0,0.0,4.0,4.0,350.9863906037935,4.0,1.0,phase_1,,,,,,,,,,,,,yellow,diamond
0.0,5.0,0.0,1.0,3.0,3.0,352.1498325862922,4.0,1.0,phase_1,,,,,,,,,,,,,green,circle
206.0,7.0,2.0,1.0,4.0,4.0,363.2672231715332,4.0,1.0,phase_1,,,,,,,,,,,,,white,flipped triangle
98.0,6.0,1.0,1.0,1.0,1.0,341.3533397924766,4.0,1.0,phase_1,,,,,,,,,,,,,cyan,hexagon
403.0,4.0,4.0,0.0,1.0,1.0,365.0136125861536,4.0,1.0,phase_1,,,,,,,,,,,,,magenta,cross
0.0,8.0,0.0,1.0,2.0,2.0,354.2191877750156,4.0,1.0,phase_1,,,,,,,,,,,,,orange,square
105.0,2.0,1.0,0.0,3.0,3.0,376.9108660003439,4.0,1.0,phase_1,,,,,,,,,,,,,blue,triangle
0.0,3.0,0.0,0.0,2.0,2.0,322.8035261895456,4.0,1.0,phase_1,,,,,,,,,,,,,yellow,diamond
186.0,7.0,2.0,1.0,3.0,3.0,322.3895783967236,4.0,1.0,phase_1,,,,,,,,,,,,,white,flipped triangle
85.0,6.0,1.0,1.0,2.0,2.0,288.0979231717901,4.0,1.0,phase_1,,,,,,,,,,,,,cyan,hexagon
178.0,7.0,2.0,1.0,2.0,2.0,324.2036101896701,4.0,1.0,phase_1,,,,,,,,,,,,,white,flipped triangle
60.0,5.0,0.5,1.0,1.0,1.0,357.5848053787922,4.0,1.0,phase_1,,,,,,,,,,,,,green,circle
81.0,2.0,1.0,0.0,1.0,1.0,369.5870947926778,4.0,1.0,phase_1,,,,,,,,,,,,,blue,triangle
397.0,4.0,4.0,0.0,3.0,3.0,334.8196693964382,4.0,1.0,phase_1,,,,,,,,,,,,,magenta,cross
197.0,3.0,2.0,0.0,3.0,3.0,369.4602685859536,4.0,1.0,phase_1,,,,,,,,,,,,,yellow,diamond
34.0,5.0,0.5,1.0,1.0,1.0,336.6554717927101,4.0,1.0,phase_1,,,,,,,,,,,,,green,circle
51.0,1.0,0.5,0.0,4.0,4.0,336.7737009821212,4.0,1.0,phase_1,,,,,,,,,,,,,gray,I
99.0,2.0,1.0,0.0,2.0,2.0,338.3117501894048,4.0,1.0,phase_1,,,,,,,,,,,,,blue,triangle
209.0,3.0,2.0,0.0,4.0,4.0,338.3861353786415,4.0,1.0,phase_1,,,,,,,,,,,,,yellow,diamond
378.0,4.0,4.0,0.0,3.0,3.0,339.2370491892507,4.0,1.0,phase_1,,,,,,,,,,,,,magenta,cross
209.0,7.0,2.0,1.0,2.0,2.0,352.9920729820333,4.0,1.0,phase_1,,,,,,,,,,,,,white,flipped triangle
201.0,7.0,2.0,1.0,4.0,4.0,328.9119217924963,4.0,1.0,phase_1,,,,,,,,,,,,,white,flipped triangle
210.0,3.0,2.0,0.0,2.0,2.0,307.0422589821646,4.0,1.0,phase_1,,,,,,,,,,,,,yellow,diamond
410.0,4.0,4.0,0.0,2.0,2.0,285.160165396519,4.0,1.0,phase_1,,,,,,,,,,,,,magenta,cross
67.0,5.0,0.5,1.0,3.0,3.0,342.8821533784685,4.0,1.0,phase_1,,,,,,,,,,,,,green,circle
36.0,5.0,0.5,1.0,2.0,2.0,265.5588395682571,4.0,1.0,phase_1,,,,,,,,,,,,,green,circle
0.0,2.0,0.0,0.0,4.0,4.0,333.7791031717643,4.0,1.0,phase_1,,,,,,,,,,,,,blue,triangle
0.0,3.0,0.0,0.0,3.0,3.0,344.0473197747451,4.0,1.0,phase_1,,,,,,,,,,,,,yellow,diamond
0.0,4.0,0.0,0.0,2.0,2.0,334.1426521719768,4.0,1.0,phase_1,,,,,,,,,,,,,magenta,cross
222.0,7.0,2.0,1.0,4.0,4.0,414.3824663788109,4.0,1.0,phase_1,,,,,,,,,,,,,white,flipped triangle
117.0,6.0,1.0,1.0,2.0,2.0,312.1176117929281,4.0,1.0,phase_1,,,,,,,,,,,,,cyan,hexagon
102.0,2.0,1.0,0.0,4.0,4.0,368.1818409822881,4.0,1.0,phase_1,,,,,,,,,,,,,blue,triangle
54.0,1.0,0.5,0.0,2.0,2.0,279.8947993787806,4.0,1.0,phase_1,,,,,,,,,,,,,gray,I
395.0,8.0,4.0,1.0,1.0,1.0,359.799605189437,4.0,1.0,phase_1,,,,,,,,,,,,,orange,square
0.0,2.0,0.0,0.0,1.0,1.0,372.116142982577,4.0,2.0,phase_1,,,,,,,,,,,,,blue,triangle
415.0,4.0,4.0,0.0,3.0,3.0,381.5236021896453,4.0,1.0,phase_1,,,,,,,,,,,,,magenta,cross
185.0,7.0,2.0,1.0,4.0,4.0,383.1351553963031,4.0,1.0,phase_1,,,,,,,,,,,,,white,flipped triangle
98.0,2.0,1.0,0.0,1.0,1.0,316.3194619819478,4.0,1.0,phase_1,,,,,,,,,,,,,blue,triangle
378.0,8.0,4.0,1.0,4.0,4.0,349.409390774781,4.0,1.0,phase_1,,,,,,,,,,,,,orange,square
86.0,2.0,1.0,0.0,3.0,3.0,373.897627396218,4.0,1.0,phase_1,,,,,,,,,,,,,blue,triangle
198.0,7.0,2.0,1.0,1.0,1.0,363.3680769999046,4.0,1.0,phase_1,,,,,,,,,,,,,white,flipped triangle
0.0,6.0,0.0,1.0,1.0,1.0,340.6162389824203,4.0,1.0,phase_1,,,,,,,,,,,,,cyan,hexagon
121.0,2.0,1.0,0.0,4.0,4.0,410.2457987928574,4.0,1.0,phase_1,,,,,,,,,,,,,blue,triangle
404.0,4.0,4.0,0.0,1.0,1.0,354.8888874142903,4.0,1.0,phase_1,,,,,,,,,,,,,magenta,cross
207.0,3.0,2.0,0.0,4.0,4.0,353.5000921897335,4.0,1.0,phase_1,,,,,,,,,,,,,yellow,diamond
53.0,1.0,0.5,0.0,1.0,1.0,387.3920463788636,4.0,1.0,phase_1,,,,,,,,,,,,,gray,I
0.0,1.0,0.0,0.0,4.0,4.0,421.63506177485027,4.0,1.0,phase_1,,,,,,,,,,,,,gray,I
410.0,8.0,4.0,1.0,1.0,1.0,344.4028049998451,4.0,1.0,phase_1,,,,,,,,,,,,,orange,square
60.0,1.0,0.5,0.0,2.0,2.0,345.2520103787719,4.0,1.0,phase_1,,,,,,,,,,,,,gray,I
0.0,8.0,0.0,1.0,4.0,4.0,333.4431223961474,4.0,1.0,phase_1,,,,,,,,,,,,,orange,square
66.0,1.0,0.5,0.0,4.0,4.0,378.5528157927729,4.0,1.0,phase_1,,,,,,,,,,,,,gray,I
36.0,1.0,0.5,0.0,3.0,3.0,412.7942901895949,4.0,1.0,phase_1,,,,,,,,,,,,,gray,I
204.0,7.0,2.0,1.0,1.0,1.0,335.7151253967458,4.0,1.0,phase_1,,,,,,,,,,,,,white,flipped triangle
77.0,2.0,1.0,0.0,4.0,4.0,371.1035551896202,4.0,1.0,phase_1,,,,,,,,,,,,,blue,triangle
92.0,2.0,1.0,0.0,3.0,3.0,359.2664511893417,4.0,1.0,phase_1,,,,,,,,,,,,,blue,triangle
0.0,1.0,0.0,0.0,4.0,4.0,438.6551427746781,4.0,1.0,phase_1,,,,,,,,,,,,,gray,I
32.0,5.0,0.5,1.0,4.0,4.0,372.5398599822256,4.0,1.0,phase_1,,,,,,,,,,,,,green,circle
392.0,8.0,4.0,1.0,2.0,2.0,338.6931235859265,4.0,1.0,phase_1,,,,,,,,,,,,,orange,square
75.0,5.0,0.5,1.0,2.0,2.0,327.1069279821859,4.0,1.0,phase_1,,,,,,,,,,,,,green,circle
44.0,5.0,0.5,1.0,4.0,4.0,407.2306013781599,4.0,1.0,phase_1,,,,,,,,,,,,,green,circle
40.0,5.0,0.5,1.0,4.0,4.0,363.1225647927749,4.0,1.0,phase_1,,,,,,,,,,,,,green,circle
219.0,3.0,2.0,0.0,4.0,4.0,386.1458311716887,4.0,1.0,phase_1,,,,,,,,,,,,,yellow,diamond
56.0,5.0,0.5,1.0,2.0,2.0,329.9366601895599,4.0,1.0,phase_1,,,,,,,,,,,,,green,circle
409.0,8.0,4.0,1.0,3.0,3.0,319.714353774998,4.0,1.0,phase_1,,,,,,,,,,,,,orange,square
27.0,1.0,0.5,0.0,3.0,3.0,352.6167473960413,4.0,1.0,phase_1,,,,,,,,,,,,,gray,I
44.0,1.0,0.5,0.0,2.0,2.0,409.6302125858528,4.0,1.0,phase_1,,,,,,,,,,,,,gray,I
214.0,3.0,2.0,0.0,3.0,3.0,331.0480309819468,4.0,1.0,phase_1,,,,,,,,,,,,,yellow,diamond
0.0,6.0,0.0,1.0,3.0,3.0,355.027021792921,4.0,1.0,phase_1,,,,,,,,,,,,,cyan,hexagon
102.0,2.0,1.0,0.0,1.0,1.0,400.9215575856615,4.0,1.0,phase_1,,,,,,,,,,,,,blue,triangle
121.0,6.0,1.0,1.0,2.0,2.0,358.0107023785785,4.0,1.0,phase_1,,,,,,,,,,,,,cyan,hexagon
0.0,1.0,0.0,0.0,2.0,2.0,435.2456601895937,4.0,1.0,phase_1,,,,,,,,,,,,,gray,I
124.0,6.0,1.0,1.0,2.0,2.0,379.9685431895341,4.0,1.0,phase_1,,,,,,,,,,,,,cyan,hexagon
376.0,4.0,4.0,0.0,4.0,4.0,458.9466141896992,4.0,1.0,phase_1,,,,,,,,,,,,,magenta,cross
0.0,1.0,0.0,0.0,4.0,4.0,403.2282677931107,4.0,1.0,phase_1,,,,,,,,,,,,,gray,I
99.0,6.0,1.0,1.0,1.0,1.0,383.3078011898578,4.0,1.0,phase_1,,,,,,,,,,,,,cyan,hexagon
71.0,5.0,0.5,1.0,3.0,3.0,392.4324697927659,4.0,1.0,phase_1,,,,,,,,,,,,,green,circle
378.0,8.0,4.0,1.0,4.0,4.0,361.5865721717455,4.0,1.0,phase_1,,,,,,,,,,,,,orange,square
408.0,8.0,4.0,1.0,2.0,2.0,371.2580707929191,4.0,1.0,phase_1,,,,,,,,,,,,,orange,square
52.0,5.0,0.5,1.0,3.0,3.0,383.7301645858133,4.0,1.0,phase_1,,,,,,,,,,,,,green,circle
65.0,1.0,0.5,0.0,2.0,2.0,384.5151799823725,4.0,1.0,phase_1,,,,,,,,,,,,,gray,I
0.0,6.0,0.0,1.0,4.0,4.0,362.2537493961317,4.0,1.0,phase_1,,,,,,,,,,,,,cyan,hexagon
117.0,2.0,1.0,0.0,1.0,1.0,384.8133321898785,4.0,1.0,phase_1,,,,,,,,,,,,,blue,triangle
56.0,5.0,0.5,1.0,2.0,2.0,363.5885751896239,4.0,1.0,phase_1,,,,,,,,,,,,,green,circle
419.0,8.0,4.0,1.0,2.0,2.0,341.3837081898236,4.0,1.0,phase_1,,,,,,,,,,,,,orange,square
32.0,5.0,0.5,1.0,1.0,1.0,422.2772915677524,4.0,1.0,phase_1,,,,,,,,,,,,,green,circle
411.0,8.0,4.0,1.0,1.0,1.0,387.4740747928626,4.0,1.0,phase_1,,,,,,,,,,,,,orange,square
0.0,5.0,0.0,1.0,4.0,4.0,354.2718653789052,4.0,1.0,phase_1,,,,,,,,,,,,,green,circle
48.0,5.0,0.5,1.0,4.0,4.0,412.6215333785694,4.0,1.0,phase_1,,,,,,,,,,,,,green,circle
0.0,7.0,0.0,1.0,2.0,2.0,357.0118891893798,4.0,1.0,phase_1,,,,,,,,,,,,,white,flipped triangle
0.0,1.0,0.0,0.0,4.0,4.0,401.8866725677981,4.0,1.0,phase_1,,,,,,,,,,,,,gray,I
26.0,1.0,0.5,0.0,3.0,3.0,412.8120187929198,4.0,1.0,phase_1,,,,,,,,,,,,,gray,I
118.0,2.0,1.0,0.0,3.0,3.0,368.0121995862464,4.0,1.0,phase_1,,,,,,,,,,,,,blue,triangle
216.0,3.0,2.0,0.0,1.0,1.0,424.9750113785921,4.0,1.0,phase_1,,,,,,,,,,,,,yellow,diamond
392.0,8.0,4.0,1.0,4.0,4.0,347.148286189622,4.0,1.0,phase_1,,,,,,,,,,,,,orange,square
45.0,5.0,0.5,1.0,1.0,1.0,371.3141044495387,4.0,1.0,phase_1,,,,,,,,,,,,,green,circle
112.0,6.0,1.0,1.0,2.0,2.0,338.4430977753254,4.0,1.0,phase_1,,,,,,,,,,,,,cyan,hexagon
180.0,3.0,2.0,0.0,3.0,3.0,313.8499425681402,4.0,1.0,phase_1,,,,,,,,,,,,,yellow,diamond
67.0,1.0,0.5,0.0,4.0,4.0,326.40395858561527,4.0,1.0,phase_1,,,,,,,,,,,,,gray,I
0.0,6.0,1.0,1.0,6.0,2.0,458.3005685817625,1.0,1.0,phase_2,go,250.0,250.0,2.0,,,,,,,,,cyan,hexagon
0.0,2.0,1.0,0.0,6.0,6.0,438.5611027450977,1.0,1.0,phase_2,go,250.0,250.0,1.0,,,,,,,,,blue,triangle
0.0,4.0,4.0,0.0,6.0,6.0,291.626992745023,1.0,1.0,phase_2,go,250.0,250.0,1.0,,,,,,,,,magenta,cross
0.0,4.0,4.0,0.0,5.0,5.0,348.3867599084078,1.0,1.0,phase_2,go,250.0,250.0,1.0,,,,,,,,,magenta,cross
0.0,3.0,2.0,0.0,5.0,5.0,351.2231864178829,1.0,1.0,phase_2,go,250.0,250.0,1.0,,,,,,,,,yellow,diamond
0.0,4.0,4.0,0.0,6.0,6.0,295.2841470000749,1.0,1.0,phase_2,go,250.0,250.0,1.0,,,,,,,,,magenta,cross
0.0,3.0,2.0,0.0,6.0,6.0,295.985134908733,1.0,1.0,phase_2,go,250.0,250.0,1.0,,,,,,,,,yellow,diamond
0.0,2.0,1.0,0.0,5.0,5.0,285.445667163458,1.0,1.0,phase_2,go,250.0,250.0,1.0,,,,,,,,,blue,triangle
0.0,7.0,2.0,1.0,5.0,0.0,0.0,1.0,1.0,phase_2,stop,250.0,250.0,4.0,,,,,,,,,white,flipped triangle
0.0,3.0,2.0,0.0,5.0,5.0,377.0866327449766,1.0,1.0,phase_2,go,300.0,250.0,1.0,,,,,,,,,yellow,diamond
0.0,7.0,2.0,1.0,6.0,6.0,355.1242019088931,1.0,1.0,phase_2,stop,300.0,250.0,3.0,,,,,,,,,white,flipped triangle
0.0,6.0,1.0,1.0,6.0,6.0,333.3960564177687,1.0,1.0,phase_2,stop,300.0,200.0,3.0,,,,,,,,,cyan,hexagon
0.0,3.0,2.0,0.0,5.0,5.0,333.9191021632359,1.0,1.0,phase_2,go,300.0,150.0,1.0,,,,,,,,,yellow,diamond
0.0,7.0,2.0,1.0,6.0,6.0,357.2025247453894,1.0,1.0,phase_2,stop,300.0,150.0,3.0,,,,,,,,,white,flipped triangle
0.0,3.0,2.0,0.0,5.0,5.0,323.6744569085203,1.0,1.0,phase_2,go,300.0,100.0,1.0,,,,,,,,,yellow,diamond
0.0,2.0,1.0,0.0,6.0,6.0,449.9236423271213,1.0,1.0,phase_2,go,300.0,100.0,1.0,,,,,,,,,blue,triangle
0.0,2.0,1.0,0.0,6.0,6.0,393.6571947451739,1.0,1.0,phase_2,go,300.0,100.0,1.0,,,,,,,,,blue,triangle
0.0,8.0,4.0,1.0,5.0,5.0,310.1062051632652,1.0,1.0,phase_2,stop,300.0,100.0,3.0,,,,,,,,,orange,square
0.0,2.0,1.0,0.0,5.0,5.0,385.204009908648,1.0,1.0,phase_2,go,250.0,100.0,1.0,,,,,,,,,blue,triangle
0.0,2.0,1.0,0.0,6.0,6.0,317.3276664178956,1.0,1.0,phase_2,go,250.0,100.0,1.0,,,,,,,,,blue,triangle
0.0,7.0,2.0,1.0,5.0,5.0,306.8528514181707,1.0,1.0,phase_2,stop,250.0,100.0,3.0,,,,,,,,,white,flipped triangle
0.0,2.0,1.0,0.0,5.0,5.0,329.8758754904156,1.0,1.0,phase_2,go,200.0,100.0,1.0,,,,,,,,,blue,triangle
0.0,1.0,0.5,0.0,6.0,6.0,307.9206443271687,1.0,1.0,phase_2,go,200.0,100.0,1.0,,,,,,,,,gray,I
0.0,5.0,0.5,1.0,6.0,6.0,276.5609630000654,1.0,1.0,phase_2,stop,200.0,100.0,3.0,,,,,,,,,green,circle
0.0,1.0,0.5,0.0,6.0,6.0,332.2482197449972,1.0,1.0,phase_2,go,200.0,50.0,1.0,,,,,,,,,gray,I
0.0,6.0,1.0,1.0,5.0,5.0,310.4873634902105,1.0,1.0,phase_2,stop,200.0,50.0,3.0,,,,,,,,,cyan,hexagon
0.0,1.0,0.5,0.0,5.0,5.0,299.9686573270992,1.0,1.0,phase_2,go,150.0,50.0,1.0,,,,,,,,,gray,I
0.0,6.0,1.0,1.0,5.0,5.0,245.9692485817868,1.0,1.0,phase_2,stop,150.0,50.0,3.0,,,,,,,,,cyan,hexagon
0.0,2.0,1.0,0.0,5.0,5.0,290.637567745307,1.0,1.0,phase_2,go,100.0,50.0,1.0,,,,,,,,,blue,triangle
0.0,3.0,2.0,0.0,6.0,6.0,302.4947187450379,1.0,1.0,phase_2,go,100.0,50.0,1.0,,,,,,,,,yellow,diamond
0.0,8.0,4.0,1.0,5.0,5.0,258.6179010722844,1.0,1.0,phase_2,stop,100.0,50.0,3.0,,,,,,,,,orange,square
0.0,6.0,1.0,1.0,5.0,5.0,294.8349904904717,1.0,1.0,phase_2,stop,50.0,50.0,3.0,,,,,,,,,cyan,hexagon
0.0,3.0,2.0,0.0,5.0,5.0,293.9506311636251,1.0,1.0,phase_2,go,0.0,50.0,1.0,,,,,,,,,yellow,diamond
0.0,5.0,0.5,1.0,5.0,5.0,238.8771704904684,1.0,1.0,phase_2,go,0.0,50.0,1.0,,,,,,,,,green,circle
0.0,7.0,2.0,1.0,5.0,5.0,250.3981283271059,1.0,1.0,phase_2,stop,0.0,50.0,3.0,,,,,,,,,white,flipped triangle
0.0,6.0,1.0,1.0,5.0,5.0,286.5590046540092,1.0,1.0,phase_2,stop,0.0,50.0,3.0,,,,,,,,,cyan,hexagon
0.0,5.0,0.5,1.0,5.0,5.0,402.4398033270699,2.0,1.0,phase_2,go,0.0,50.0,1.0,,,,,,,,,green,circle
0.0,5.0,0.5,1.0,5.0,5.0,335.7142821632806,2.0,1.0,phase_2,go,0.0,50.0,1.0,,,,,,,,,green,circle
0.0,2.0,1.0,0.0,5.0,5.0,303.6024468365212,2.0,1.0,phase_2,go,0.0,50.0,1.0,,,,,,,,,blue,triangle
0.0,4.0,4.0,0.0,5.0,5.0,302.9819042162671,2.0,1.0,phase_2,go,0.0,50.0,1.0,,,,,,,,,magenta,cross
0.0,2.0,1.0,0.0,6.0,6.0,316.7202403269584,2.0,1.0,phase_2,go,0.0,50.0,1.0,,,,,,,,,blue,triangle
0.0,6.0,1.0,1.0,6.0,6.0,372.1122289084633,2.0,1.0,phase_2,stop,0.0,50.0,3.0,,,,,,,,,cyan,hexagon
0.0,3.0,2.0,0.0,6.0,6.0,361.6609777450321,2.0,1.0,phase_2,go,0.0,0.0,1.0,,,,,,,,,yellow,diamond
0.0,1.0,0.5,0.0,5.0,5.0,328.3800930726102,2.0,1.0,phase_2,go,0.0,0.0,1.0,,,,,,,,,gray,I
0.0,1.0,0.5,0.0,6.0,6.0,296.4458604901665,2.0,1.0,phase_2,go,0.0,0.0,1.0,,,,,,,,,gray,I
0.0,4.0,4.0,0.0,5.0,5.0,252.4455115817545,2.0,1.0,phase_2,go,0.0,0.0,1.0,,,,,,,,,magenta,cross
0.0,7.0,2.0,1.0,5.0,5.0,365.1589064907057,2.0,1.0,phase_2,go,0.0,0.0,1.0,,,,,,,,,white,flipped triangle
0.0,4.0,4.0,0.0,5.0,5.0,264.3202681633738,2.0,1.0,phase_2,go,0.0,0.0,1.0,,,,,,,,,magenta,cross
0.0,3.0,2.0,0.0,6.0,6.0,322.8209114176934,2.0,1.0,phase_2,go,0.0,0.0,1.0,,,,,,,,,yellow,diamond
0.0,5.0,0.5,1.0,5.0,5.0,232.1659314902717,2.0,1.0,phase_2,stop,0.0,0.0,3.0,,,,,,,,,green,circle
0.0,6.0,1.0,1.0,5.0,5.0,345.7719329085194,2.0,1.0,phase_2,go,0.0,0.0,1.0,,,,,,,,,cyan,hexagon
0.0,3.0,2.0,0.0,6.0,6.0,312.4170687456171,2.0,1.0,phase_2,go,0.0,0.0,1.0,,,,,,,,,yellow,diamond
0.0,8.0,4.0,1.0,6.0,6.0,337.58432458216697,2.0,1.0,phase_2,go,0.0,0.0,1.0,,,,,,,,,orange,square
0.0,1.0,0.5,0.0,5.0,5.0,304.4875357454657,2.0,1.0,phase_2,go,0.0,0.0,1.0,,,,,,,,,gray,I
0.0,5.0,0.5,1.0,6.0,6.0,270.986303582049,2.0,1.0,phase_2,stop,0.0,0.0,3.0,,,,,,,,,green,circle
0.0,7.0,2.0,1.0,5.0,5.0,261.4348046536179,2.0,1.0,phase_2,stop,0.0,0.0,3.0,,,,,,,,,white,flipped triangle
0.0,7.0,2.0,1.0,5.0,5.0,418.5273509083345,2.0,1.0,phase_2,stop,0.0,0.0,3.0,,,,,,,,,white,flipped triangle
0.0,4.0,4.0,0.0,6.0,6.0,385.1121289999355,2.0,1.0,phase_2,go,0.0,0.0,1.0,,,,,,,,,magenta,cross
0.0,1.0,0.5,0.0,5.0,5.0,307.3746019085774,2.0,1.0,phase_2,go,0.0,0.0,1.0,,,,,,,,,gray,I
0.0,8.0,4.0,1.0,6.0,6.0,432.0373629088863,2.0,1.0,phase_2,stop,0.0,0.0,3.0,,,,,,,,,orange,square
0.0,7.0,2.0,1.0,5.0,5.0,276.8129873270482,2.0,1.0,phase_2,stop,0.0,0.0,3.0,,,,,,,,,white,flipped triangle
0.0,5.0,0.5,1.0,5.0,5.0,344.7423479083227,2.0,1.0,phase_2,go,0.0,0.0,1.0,,,,,,,,,green,circle
0.0,7.0,2.0,1.0,6.0,6.0,412.7352749087549,2.0,1.0,phase_2,stop,0.0,0.0,3.0,,,,,,,,,white,flipped triangle
0.0,7.0,2.0,1.0,6.0,6.0,335.8097077452839,2.0,1.0,phase_2,stop,0.0,0.0,3.0,,,,,,,,,white,flipped triangle
0.0,3.0,2.0,0.0,5.0,5.0,346.2946713275414,2.0,1.0,phase_2,go,0.0,0.0,1.0,,,,,,,,,yellow,diamond
0.0,4.0,4.0,0.0,6.0,6.0,301.621656653424,2.0,1.0,phase_2,go,0.0,0.0,1.0,,,,,,,,,magenta,cross
0.0,8.0,4.0,1.0,5.0,5.0,224.6709859086877,2.0,1.0,phase_2,stop,0.0,0.0,3.0,,,,,,,,,orange,square
0.0,3.0,2.0,0.0,5.0,5.0,293.9201474900983,2.0,1.0,phase_2,go,0.0,0.0,1.0,,,,,,,,,yellow,diamond
0.0,4.0,4.0,0.0,5.0,5.0,305.8516087453427,2.0,1.0,phase_2,go,0.0,0.0,1.0,,,,,,,,,magenta,cross
0.0,8.0,4.0,1.0,5.0,5.0,305.5502483275631,2.0,1.0,phase_2,stop,0.0,0.0,3.0,,,,,,,,,orange,square
0.0,5.0,0.5,1.0,5.0,5.0,251.28905074507202,2.0,1.0,phase_2,stop,0.0,0.0,3.0,,,,,,,,,green,circle
0.0,6.0,1.0,1.0,5.0,5.0,261.8008250001367,2.0,1.0,phase_2,stop,0.0,0.0,3.0,,,,,,,,,cyan,hexagon
0.0,4.0,4.0,0.0,6.0,6.0,1229.6502684180268,3.0,1.0,phase_2,go,0.0,0.0,1.0,,,,,,,,,magenta,cross
0.0,3.0,2.0,0.0,5.0,5.0,307.9432776539761,3.0,1.0,phase_2,go,0.0,0.0,1.0,,,,,,,,,yellow,diamond
0.0,2.0,1.0,0.0,5.0,5.0,399.3208674905872,3.0,1.0,phase_2,go,0.0,0.0,1.0,,,,,,,,,blue,triangle
0.0,1.0,0.5,0.0,6.0,6.0,364.9853293268279,3.0,1.0,phase_2,go,0.0,0.0,1.0,,,,,,,,,gray,I
0.0,5.0,0.5,1.0,6.0,6.0,333.7716177452421,3.0,1.0,phase_2,stop,0.0,0.0,3.0,,,,,,,,,green,circle
0.0,3.0,2.0,0.0,5.0,5.0,536.0855290728068,3.0,1.0,phase_2,go,0.0,0.0,1.0,,,,,,,,,yellow,diamond
0.0,8.0,4.0,1.0,6.0,6.0,403.2643721634485,3.0,1.0,phase_2,stop,0.0,0.0,3.0,,,,,,,,,orange,square
0.0,1.0,0.5,0.0,5.0,5.0,470.3839283270099,3.0,1.0,phase_2,go,0.0,0.0,1.0,,,,,,,,,gray,I
0.0,5.0,0.5,1.0,5.0,5.0,449.1001967453485,3.0,1.0,phase_2,stop,0.0,0.0,3.0,,,,,,,,,green,circle
0.0,4.0,4.0,0.0,6.0,6.0,437.2665594901264,3.0,1.0,phase_2,go,0.0,0.0,1.0,,,,,,,,,magenta,cross
0.0,8.0,4.0,1.0,6.0,6.0,472.4312917455791,3.0,1.0,phase_2,stop,0.0,0.0,3.0,,,,,,,,,orange,square
0.0,6.0,1.0,1.0,6.0,6.0,395.8533330001046,3.0,1.0,phase_2,go,0.0,0.0,1.0,,,,,,,,,cyan,hexagon
0.0,6.0,1.0,1.0,6.0,6.0,530.1298347449119,3.0,1.0,phase_2,stop,0.0,0.0,3.0,,,,,,,,,cyan,hexagon
0.0,2.0,1.0,0.0,6.0,6.0,564.4668216536957,3.0,1.0,phase_2,go,0.0,0.0,1.0,,,,,,,,,blue,triangle
0.0,1.0,0.5,0.0,6.0,6.0,522.2714640726736,3.0,1.0,phase_2,go,0.0,0.0,1.0,,,,,,,,,gray,I
0.0,4.0,4.0,0.0,6.0,6.0,286.4589139085183,3.0,1.0,phase_2,go,0.0,0.0,1.0,,,,,,,,,magenta,cross
0.0,5.0,0.5,1.0,5.0,5.0,635.7054319087183,3.0,1.0,phase_2,stop,0.0,0.0,3.0,,,,,,,,,green,circle
0.0,1.0,0.5,0.0,5.0,5.0,590.3791376731533,3.0,1.0,phase_2,go,0.0,0.0,1.0,,,,,,,,,gray,I
0.0,1.0,0.5,0.0,6.0,6.0,322.9189557450809,3.0,1.0,phase_2,go,0.0,0.0,1.0,,,,,,,,,gray,I
0.0,8.0,4.0,1.0,5.0,5.0,862.3475084905294,3.0,1.0,phase_2,stop,0.0,0.0,3.0,,,,,,,,,orange,square
0.0,5.0,0.5,1.0,5.0,5.0,851.7811736537624,3.0,1.0,phase_2,stop,0.0,0.0,3.0,,,,,,,,,green,circle
0.0,7.0,2.0,1.0,6.0,6.0,526.9438427453679,3.0,1.0,phase_2,go,0.0,0.0,1.0,,,,,,,,,white,flipped triangle
0.0,7.0,2.0,1.0,5.0,5.0,877.4240730003839,3.0,1.0,phase_2,stop,0.0,0.0,3.0,,,,,,,,,white,flipped triangle
0.0,8.0,4.0,1.0,6.0,6.0,506.60248086296633,3.0,1.0,phase_2,go,0.0,0.0,1.0,,,,,,,,,orange,square
0.0,7.0,2.0,1.0,6.0,6.0,643.2519817453795,3.0,1.0,phase_2,stop,0.0,0.0,3.0,,,,,,,,,white,flipped triangle
0.0,7.0,2.0,1.0,6.0,6.0,442.0154763270147,3.0,1.0,phase_2,stop,0.0,0.0,3.0,,,,,,,,,white,flipped triangle
0.0,2.0,1.0,0.0,5.0,5.0,374.9675933268008,3.0,1.0,phase_2,go,0.0,0.0,1.0,,,,,,,,,blue,triangle
0.0,4.0,4.0,0.0,6.0,6.0,330.2088941636611,3.0,1.0,phase_2,go,0.0,0.0,1.0,,,,,,,,,magenta,cross
0.0,8.0,4.0,1.0,5.0,5.0,1004.9151706534758,3.0,1.0,phase_2,stop,0.0,0.0,3.0,,,,,,,,,orange,square
0.0,7.0,2.0,1.0,6.0,6.0,512.0275065819442,3.0,1.0,phase_2,go,0.0,0.0,1.0,,,,,,,,,white,flipped triangle
0.0,7.0,2.0,1.0,5.0,5.0,501.55718607265953,3.0,1.0,phase_2,stop,0.0,0.0,3.0,,,,,,,,,white,flipped triangle
0.0,8.0,4.0,1.0,6.0,6.0,827.2094721633039,3.0,1.0,phase_2,stop,0.0,0.0,3.0,,,,,,,,,orange,square
0.0,3.0,2.0,0.0,5.0,5.0,502.6392836539344,3.0,1.0,phase_2,go,0.0,0.0,1.0,,,,,,,,,yellow,diamond
0.0,3.0,2.0,0.0,6.0,6.0,480.6511077454161,3.0,1.0,phase_2,go,0.0,0.0,1.0,,,,,,,,,yellow,diamond
0.0,5.0,0.5,1.0,5.0,5.0,841.2915940721177,3.0,1.0,phase_2,stop,0.0,0.0,3.0,,,,,,,,,green,circle
0.0,6.0,1.0,1.0,5.0,5.0,471.4333653269023,3.0,1.0,phase_2,go,0.0,0.0,1.0,,,,,,,,,cyan,hexagon
0.0,8.0,4.0,1.0,5.0,0.0,0.0,4.0,1.0,phase_2,stop,0.0,0.0,4.0,,,,,,,,,orange,square
0.0,3.0,2.0,0.0,5.0,5.0,479.8179803265157,4.0,1.0,phase_2,go,50.0,0.0,1.0,,,,,,,,,yellow,diamond
0.0,7.0,2.0,1.0,5.0,0.0,0.0,4.0,1.0,phase_2,stop,50.0,0.0,4.0,,,,,,,,,white,flipped triangle
0.0,2.0,1.0,0.0,6.0,6.0,425.3427061630646,4.0,1.0,phase_2,go,100.0,0.0,1.0,,,,,,,,,blue,triangle
0.0,7.0,2.0,1.0,6.0,0.0,0.0,4.0,1.0,phase_2,stop,100.0,0.0,4.0,,,,,,,,,white,flipped triangle
0.0,8.0,4.0,1.0,5.0,0.0,0.0,4.0,1.0,phase_2,stop,100.0,50.0,4.0,,,,,,,,,orange,square
0.0,2.0,1.0,0.0,6.0,6.0,696.6302641640141,4.0,1.0,phase_2,go,150.0,50.0,1.0,,,,,,,,,blue,triangle
0.0,6.0,1.0,1.0,6.0,6.0,540.5613931634434,4.0,1.0,phase_2,go,150.0,50.0,1.0,,,,,,,,,cyan,hexagon
0.0,5.0,0.5,1.0,6.0,0.0,0.0,4.0,1.0,phase_2,stop,150.0,50.0,4.0,,,,,,,,,green,circle
0.0,1.0,0.5,0.0,5.0,5.0,654.9053353273848,4.0,1.0,phase_2,go,150.0,100.0,1.0,,,,,,,,,gray,I
0.0,4.0,4.0,0.0,5.0,5.0,497.4906114903206,4.0,1.0,phase_2,go,150.0,100.0,1.0,,,,,,,,,magenta,cross
0.0,4.0,4.0,0.0,5.0,5.0,497.2601428362395,4.0,1.0,phase_2,go,150.0,100.0,1.0,,,,,,,,,magenta,cross
0.0,5.0,0.5,1.0,5.0,5.0,354.0229580721643,4.0,1.0,phase_2,stop,150.0,100.0,3.0,,,,,,,,,green,circle
0.0,7.0,2.0,1.0,5.0,0.0,0.0,4.0,1.0,phase_2,stop,100.0,100.0,4.0,,,,,,,,,white,flipped triangle
0.0,8.0,4.0,1.0,6.0,6.0,511.8819554900256,4.0,1.0,phase_2,go,150.0,100.0,1.0,,,,,,,,,orange,square
0.0,5.0,0.5,1.0,6.0,0.0,0.0,4.0,1.0,phase_2,stop,150.0,100.0,4.0,,,,,,,,,green,circle
0.0,6.0,1.0,1.0,6.0,0.0,0.0,4.0,1.0,phase_2,stop,150.0,150.0,4.0,,,,,,,,,cyan,hexagon
0.0,1.0,0.5,0.0,5.0,5.0,413.0368066544179,4.0,1.0,phase_2,go,150.0,200.0,1.0,,,,,,,,,gray,I
0.0,1.0,0.5,0.0,5.0,5.0,402.8162756540041,4.0,1.0,phase_2,go,150.0,200.0,1.0,,,,,,,,,gray,I
0.0,7.0,2.0,1.0,5.0,0.0,0.0,4.0,1.0,phase_2,stop,150.0,200.0,4.0,,,,,,,,,white,flipped triangle
0.0,7.0,2.0,1.0,5.0,5.0,483.6628275807015,4.0,1.0,phase_2,go,200.0,200.0,1.0,,,,,,,,,white,flipped triangle
0.0,1.0,0.5,0.0,6.0,6.0,406.0777746544772,4.0,1.0,phase_2,go,200.0,200.0,1.0,,,,,,,,,gray,I
0.0,1.0,0.5,0.0,5.0,5.0,540.7414935807537,4.0,1.0,phase_2,go,200.0,200.0,1.0,,,,,,,,,gray,I
0.0,3.0,2.0,0.0,5.0,5.0,394.9031625816133,4.0,1.0,phase_2,go,200.0,200.0,1.0,,,,,,,,,yellow,diamond
0.0,3.0,2.0,0.0,5.0,5.0,386.4052024900957,4.0,1.0,phase_2,go,200.0,200.0,1.0,,,,,,,,,yellow,diamond
0.0,8.0,4.0,1.0,6.0,6.0,385.6578859094952,4.0,1.0,phase_2,stop,200.0,200.0,3.0,,,,,,,,,orange,square
0.0,3.0,2.0,0.0,5.0,5.0,622.9513301641418,4.0,1.0,phase_2,go,200.0,150.0,1.0,,,,,,,,,yellow,diamond
0.0,1.0,0.5,0.0,6.0,6.0,511.3484554904062,4.0,1.0,phase_2,go,200.0,150.0,1.0,,,,,,,,,gray,I
0.0,4.0,4.0,0.0,6.0,6.0,513.2153935810493,4.0,1.0,phase_2,go,200.0,150.0,1.0,,,,,,,,,magenta,cross
0.0,8.0,4.0,1.0,6.0,0.0,0.0,4.0,1.0,phase_2,stop,200.0,150.0,4.0,,,,,,,,,orange,square
0.0,6.0,1.0,1.0,5.0,0.0,0.0,4.0,1.0,phase_2,stop,200.0,200.0,4.0,,,,,,,,,cyan,hexagon
0.0,4.0,4.0,0.0,5.0,5.0,503.4029899088637,4.0,1.0,phase_2,go,250.0,200.0,1.0,,,,,,,,,magenta,cross
0.0,3.0,2.0,0.0,6.0,6.0,740.1711173260992,4.0,1.0,phase_2,go,250.0,200.0,1.0,,,,,,,,,yellow,diamond
0.0,5.0,0.5,1.0,6.0,0.0,0.0,4.0,1.0,phase_2,stop,250.0,200.0,4.0,,,,,,,,,green,circle
0.0,8.0,4.0,1.0,5.0,0.0,0.0,4.0,1.0,phase_2,stop,250.0,250.0,4.0,,,,,,,,,orange,square
0.0,6.0,1.0,1.0,5.0,0.0,0.0,4.0,1.0,phase_2,stop,300.0,250.0,4.0,,,,,,,,,cyan,hexagon
0.0,4.0,4.0,0.0,6.0,6.0,833.6347835811466,5.0,1.0,phase_2,go,350.0,250.0,1.0,,,,,,,,,magenta,cross
0.0,4.0,4.0,0.0,5.0,5.0,508.36741332659585,5.0,1.0,phase_2,go,350.0,250.0,1.0,,,,,,,,,magenta,cross
0.0,1.0,0.5,0.0,5.0,5.0,374.9401817449325,5.0,1.0,phase_2,go,350.0,250.0,1.0,,,,,,,,,gray,I
0.0,7.0,2.0,1.0,6.0,6.0,374.7890574904886,5.0,1.0,phase_2,stop,350.0,250.0,3.0,,,,,,,,,white,flipped triangle
0.0,8.0,4.0,1.0,5.0,5.0,466.3304367450109,5.0,1.0,phase_2,go,350.0,200.0,1.0,,,,,,,,,orange,square
0.0,1.0,0.5,0.0,5.0,5.0,409.3704673268803,5.0,1.0,phase_2,go,350.0,200.0,1.0,,,,,,,,,gray,I
0.0,5.0,0.5,1.0,5.0,0.0,0.0,5.0,1.0,phase_2,stop,350.0,200.0,4.0,,,,,,,,,green,circle
0.0,4.0,4.0,0.0,6.0,6.0,918.7660391635292,5.0,1.0,phase_2,go,400.0,200.0,1.0,,,,,,,,,magenta,cross
0.0,6.0,1.0,1.0,6.0,6.0,1009.6386425811943,5.0,1.0,phase_2,go,400.0,200.0,1.0,,,,,,,,,cyan,hexagon
0.0,3.0,2.0,0.0,6.0,6.0,796.0513437446934,5.0,1.0,phase_2,go,400.0,200.0,1.0,,,,,,,,,yellow,diamond
0.0,8.0,4.0,1.0,5.0,0.0,0.0,5.0,1.0,phase_2,stop,400.0,200.0,4.0,,,,,,,,,orange,square
0.0,7.0,2.0,1.0,5.0,0.0,0.0,5.0,1.0,phase_2,stop,450.0,200.0,4.0,,,,,,,,,white,flipped triangle
0.0,1.0,0.5,0.0,5.0,5.0,685.3814621645142,5.0,1.0,phase_2,go,500.0,200.0,1.0,,,,,,,,,gray,I
0.0,4.0,4.0,0.0,5.0,5.0,778.0852266541842,5.0,1.0,phase_2,go,500.0,200.0,1.0,,,,,,,,,magenta,cross
0.0,4.0,4.0,0.0,5.0,5.0,699.8835199992754,5.0,1.0,phase_2,go,500.0,200.0,1.0,,,,,,,,,magenta,cross
0.0,6.0,1.0,1.0,6.0,0.0,0.0,5.0,1.0,phase_2,stop,500.0,200.0,4.0,,,,,,,,,cyan,hexagon
0.0,5.0,0.5,1.0,6.0,0.0,0.0,5.0,1.0,phase_2,stop,500.0,250.0,4.0,,,,,,,,,green,circle
0.0,2.0,1.0,0.0,5.0,5.0,1388.902641581808,5.0,1.0,phase_2,go,500.0,300.0,1.0,,,,,,,,,blue,triangle
0.0,8.0,4.0,1.0,6.0,0.0,0.0,5.0,1.0,phase_2,stop,500.0,300.0,4.0,,,,,,,,,orange,square
0.0,7.0,2.0,1.0,6.0,6.0,398.5820182360839,5.0,1.0,phase_2,stop,500.0,350.0,3.0,,,,,,,,,white,flipped triangle
0.0,2.0,1.0,0.0,5.0,5.0,997.3179655817148,5.0,1.0,phase_2,go,500.0,300.0,1.0,,,,,,,,,blue,triangle
0.0,4.0,4.0,0.0,6.0,6.0,941.8534731639738,5.0,1.0,phase_2,go,500.0,300.0,1.0,,,,,,,,,magenta,cross
0.0,4.0,4.0,0.0,6.0,6.0,783.8371326542983,5.0,1.0,phase_2,go,500.0,300.0,1.0,,,,,,,,,magenta,cross
0.0,8.0,4.0,1.0,5.0,0.0,0.0,5.0,1.0,phase_2,stop,500.0,300.0,4.0,,,,,,,,,orange,square
0.0,1.0,0.5,0.0,6.0,6.0,1382.254197000293,5.0,1.0,phase_2,go,550.0,300.0,1.0,,,,,,,,,gray,I
0.0,7.0,2.0,1.0,5.0,0.0,0.0,5.0,1.0,phase_2,stop,550.0,300.0,4.0,,,,,,,,,white,flipped triangle
0.0,8.0,4.0,1.0,6.0,6.0,1114.2000590716634,5.0,1.0,phase_2,go,600.0,300.0,1.0,,,,,,,,,orange,square
0.0,2.0,1.0,0.0,6.0,6.0,968.4805385813888,5.0,1.0,phase_2,go,600.0,300.0,1.0,,,,,,,,,blue,triangle
0.0,1.0,0.5,0.0,6.0,6.0,936.8159340720013,5.0,1.0,phase_2,go,600.0,300.0,1.0,,,,,,,,,gray,I
0.0,7.0,2.0,1.0,6.0,0.0,0.0,5.0,1.0,phase_2,stop,600.0,300.0,4.0,,,,,,,,,white,flipped triangle
0.0,5.0,0.5,1.0,5.0,5.0,1184.358529745623,5.0,1.0,phase_2,go,600.0,350.0,1.0,,,,,,,,,green,circle
0.0,2.0,1.0,0.0,6.0,6.0,1184.860946164008,5.0,1.0,phase_2,go,600.0,350.0,1.0,,,,,,,,,blue,triangle
0.0,1.0,0.5,0.0,5.0,5.0,1062.3552824908984,5.0,1.0,phase_2,go,600.0,350.0,1.0,,,,,,,,,gray,I
0.0,3.0,2.0,0.0,5.0,5.0,928.9038117449307,5.0,1.0,phase_2,go,600.0,350.0,1.0,,,,,,,,,yellow,diamond
0.0,2.0,1.0,0.0,5.0,5.0,1086.554804581283,5.0,1.0,phase_2,go,600.0,350.0,1.0,,,,,,,,,blue,triangle
0.0,8.0,4.0,1.0,6.0,0.0,0.0,5.0,1.0,phase_2,stop,600.0,350.0,4.0,,,,,,,,,orange,square
0.0,5.0,0.5,1.0,6.0,0.0,0.0,6.0,1.0,phase_2,stop,600.0,400.0,4.0,,,,,,,,,green,circle
0.0,7.0,2.0,1.0,6.0,0.0,0.0,6.0,1.0,phase_2,stop,600.0,450.0,4.0,,,,,,,,,white,flipped triangle
0.0,3.0,2.0,0.0,6.0,6.0,590.1599226544931,6.0,1.0,phase_2,go,600.0,500.0,1.0,,,,,,,,,yellow,diamond
0.0,4.0,4.0,0.0,6.0,6.0,544.6149781637359,6.0,1.0,phase_2,go,600.0,500.0,1.0,,,,,,,,,magenta,cross
0.0,6.0,1.0,1.0,6.0,0.0,0.0,6.0,1.0,phase_2,stop,600.0,500.0,4.0,,,,,,,,,cyan,hexagon
0.0,3.0,2.0,0.0,6.0,6.0,941.0146305808668,6.0,1.0,phase_2,go,600.0,550.0,1.0,,,,,,,,,yellow,diamond
0.0,4.0,4.0,0.0,5.0,5.0,636.8470151637666,6.0,1.0,phase_2,go,600.0,550.0,1.0,,,,,,,,,magenta,cross
0.0,4.0,4.0,0.0,6.0,6.0,761.2930220720955,6.0,1.0,phase_2,go,600.0,550.0,1.0,,,,,,,,,magenta,cross
0.0,5.0,0.5,1.0,5.0,0.0,0.0,6.0,1.0,phase_2,stop,600.0,550.0,4.0,,,,,,,,,green,circle
0.0,6.0,1.0,1.0,6.0,0.0,0.0,6.0,1.0,phase_2,stop,650.0,550.0,4.0,,,,,,,,,cyan,hexagon
0.0,3.0,2.0,0.0,6.0,6.0,1034.3640989085543,6.0,1.0,phase_2,go,650.0,600.0,1.0,,,,,,,,,yellow,diamond
0.0,2.0,1.0,0.0,5.0,5.0,923.6966344897156,6.0,1.0,phase_2,go,650.0,600.0,1.0,,,,,,,,,blue,triangle
0.0,2.0,1.0,0.0,6.0,6.0,1069.2501921639632,6.0,1.0,phase_2,go,650.0,600.0,1.0,,,,,,,,,blue,triangle
0.0,5.0,0.5,1.0,6.0,0.0,0.0,6.0,1.0,phase_2,stop,650.0,600.0,4.0,,,,,,,,,green,circle
0.0,6.0,1.0,1.0,6.0,0.0,0.0,6.0,1.0,phase_2,stop,650.0,650.0,4.0,,,,,,,,,cyan,hexagon
0.0,7.0,2.0,1.0,6.0,6.0,936.5831940713178,6.0,1.0,phase_2,go,650.0,700.0,1.0,,,,,,,,,white,flipped triangle
0.0,1.0,0.5,0.0,6.0,6.0,905.0725157449052,6.0,1.0,phase_2,go,650.0,700.0,1.0,,,,,,,,,gray,I
0.0,3.0,2.0,0.0,6.0,6.0,1219.6237674907024,6.0,1.0,phase_2,go,650.0,700.0,1.0,,,,,,,,,yellow,diamond
0.0,5.0,0.5,1.0,6.0,6.0,410.5589677446914,6.0,1.0,phase_2,stop,650.0,700.0,3.0,,,,,,,,,green,circle
0.0,5.0,0.5,1.0,5.0,0.0,0.0,6.0,1.0,phase_2,stop,650.0,650.0,4.0,,,,,,,,,green,circle
0.0,1.0,0.5,0.0,6.0,6.0,490.9441656545823,6.0,1.0,phase_2,go,700.0,650.0,1.0,,,,,,,,,gray,I
0.0,8.0,4.0,1.0,5.0,0.0,0.0,6.0,1.0,phase_2,stop,700.0,650.0,4.0,,,,,,,,,orange,square
0.0,5.0,0.5,1.0,6.0,0.0,0.0,6.0,1.0,phase_2,stop,750.0,650.0,4.0,,,,,,,,,green,circle
0.0,4.0,4.0,0.0,5.0,5.0,572.2314966542399,6.0,1.0,phase_2,go,750.0,700.0,1.0,,,,,,,,,magenta,cross
0.0,4.0,4.0,0.0,5.0,5.0,653.3915957452336,6.0,1.0,phase_2,go,750.0,700.0,1.0,,,,,,,,,magenta,cross
0.0,2.0,1.0,0.0,5.0,5.0,1226.886341327372,6.0,1.0,phase_2,go,750.0,700.0,1.0,,,,,,,,,blue,triangle
0.0,2.0,1.0,0.0,6.0,6.0,540.6288814901927,6.0,1.0,phase_2,go,750.0,700.0,1.0,,,,,,,,,blue,triangle
0.0,2.0,1.0,0.0,5.0,5.0,980.6785775808748,6.0,1.0,phase_2,go,750.0,700.0,1.0,,,,,,,,,blue,triangle
0.0,6.0,1.0,1.0,5.0,5.0,846.9355791639828,6.0,1.0,phase_2,go,750.0,700.0,1.0,,,,,,,,,cyan,hexagon
0.0,6.0,1.0,1.0,5.0,0.0,0.0,6.0,1.0,phase_2,stop,750.0,700.0,4.0,,,,,,,,,cyan,hexagon
0.0,8.0,4.0,1.0,6.0,0.0,0.0,6.0,1.0,phase_2,stop,800.0,700.0,4.0,,,,,,,,,orange,square
0.0,3.0,2.0,0.0,6.0,6.0,1153.3771075810364,6.0,1.0,phase_2,go,800.0,750.0,1.0,,,,,,,,,yellow,diamond
0.0,8.0,4.0,1.0,5.0,0.0,0.0,6.0,1.0,phase_2,stop,800.0,750.0,4.0,,,,,,,,,orange,square
0.0,1.0,0.5,0.0,6.0,6.0,737.903139744958,6.0,1.0,phase_2,go,850.0,750.0,1.0,,,,,,,,,gray,I
0.0,2.0,1.0,0.0,5.0,5.0,975.4305262576964,6.0,1.0,phase_2,go,850.0,750.0,1.0,,,,,,,,,blue,triangle
0.0,1.0,0.5,0.0,6.0,6.0,762.7442990724376,6.0,1.0,phase_2,go,850.0,750.0,1.0,,,,,,,,,gray,I
0.0,5.0,0.5,1.0,6.0,0.0,0.0,7.0,1.0,phase_2,stop,850.0,750.0,4.0,,,,,,,,,green,circle
0.0,6.0,1.0,1.0,5.0,5.0,797.1713443266708,7.0,1.0,phase_2,go,850.0,800.0,1.0,,,,,,,,,cyan,hexagon
0.0,8.0,4.0,1.0,5.0,5.0,966.0444555811408,7.0,1.0,phase_2,stop,850.0,800.0,3.0,,,,,,,,,orange,square
0.0,1.0,0.5,0.0,5.0,5.0,618.4247743267406,7.0,1.0,phase_2,go,800.0,800.0,1.0,,,,,,,,,gray,I
0.0,6.0,1.0,1.0,6.0,6.0,810.913136581803,7.0,1.0,phase_2,stop,800.0,800.0,3.0,,,,,,,,,cyan,hexagon
0.0,7.0,2.0,1.0,6.0,6.0,913.4437583270484,7.0,1.0,phase_2,go,800.0,750.0,1.0,,,,,,,,,white,flipped triangle
0.0,2.0,1.0,0.0,5.0,5.0,1082.283734163866,7.0,1.0,phase_2,go,800.0,750.0,1.0,,,,,,,,,blue,triangle
0.0,6.0,1.0,1.0,5.0,0.0,0.0,7.0,1.0,phase_2,stop,800.0,750.0,4.0,,,,,,,,,cyan,hexagon
0.0,5.0,0.5,1.0,5.0,0.0,0.0,7.0,1.0,phase_2,stop,850.0,750.0,4.0,,,,,,,,,green,circle
0.0,4.0,4.0,0.0,6.0,6.0,601.9793934183326,7.0,1.0,phase_2,go,900.0,750.0,1.0,,,,,,,,,magenta,cross
0.0,5.0,0.5,1.0,6.0,0.0,0.0,7.0,1.0,phase_2,stop,900.0,750.0,4.0,,,,,,,,,green,circle
0.0,5.0,0.5,1.0,6.0,0.0,0.0,7.0,1.0,phase_2,stop,900.0,800.0,4.0,,,,,,,,,green,circle
0.0,3.0,2.0,0.0,5.0,5.0,782.7973597459277,7.0,1.0,phase_2,go,900.0,850.0,1.0,,,,,,,,,yellow,diamond
0.0,4.0,4.0,0.0,5.0,5.0,727.0029393266668,7.0,1.0,phase_2,go,900.0,850.0,1.0,,,,,,,,,magenta,cross
0.0,2.0,1.0,0.0,6.0,6.0,695.1189957453607,7.0,1.0,phase_2,go,900.0,850.0,1.0,,,,,,,,,blue,triangle
0.0,1.0,0.5,0.0,6.0,6.0,706.4603334902131,7.0,1.0,phase_2,go,900.0,850.0,1.0,,,,,,,,,gray,I
0.0,6.0,1.0,1.0,5.0,5.0,899.0066779997505,7.0,1.0,phase_2,stop,900.0,850.0,3.0,,,,,,,,,cyan,hexagon
0.0,7.0,2.0,1.0,5.0,5.0,618.9035710713142,7.0,1.0,phase_2,stop,850.0,850.0,3.0,,,,,,,,,white,flipped triangle
0.0,5.0,0.5,1.0,6.0,6.0,1273.5097321638025,7.0,1.0,phase_2,go,800.0,850.0,1.0,,,,,,,,,green,circle
0.0,2.0,1.0,0.0,6.0,6.0,722.4476015817345,7.0,1.0,phase_2,go,800.0,850.0,1.0,,,,,,,,,blue,triangle
0.0,7.0,2.0,1.0,6.0,6.0,959.274116654342,7.0,1.0,phase_2,go,800.0,850.0,1.0,,,,,,,,,white,flipped triangle
0.0,8.0,4.0,1.0,6.0,6.0,936.2141935816908,7.0,1.0,phase_2,stop,800.0,850.0,3.0,,,,,,,,,orange,square
0.0,4.0,4.0,0.0,5.0,5.0,600.317221908881,7.0,1.0,phase_2,go,800.0,800.0,1.0,,,,,,,,,magenta,cross
0.0,1.0,0.5,0.0,6.0,6.0,589.7381751638022,7.0,1.0,phase_2,go,800.0,800.0,1.0,,,,,,,,,gray,I
0.0,3.0,2.0,0.0,6.0,6.0,1062.6872829088825,7.0,1.0,phase_2,go,800.0,800.0,1.0,,,,,,,,,yellow,diamond
0.0,1.0,0.5,0.0,5.0,5.0,558.5588925814591,7.0,1.0,phase_2,go,800.0,800.0,1.0,,,,,,,,,gray,I
0.0,8.0,4.0,1.0,6.0,6.0,1133.1336684907,7.0,1.0,phase_2,go,800.0,800.0,1.0,,,,,,,,,orange,square
0.0,4.0,4.0,0.0,6.0,6.0,617.245982491113,7.0,1.0,phase_2,go,800.0,800.0,1.0,,,,,,,,,magenta,cross
0.0,3.0,2.0,0.0,5.0,5.0,852.0900885814626,7.0,1.0,phase_2,go,800.0,800.0,1.0,,,,,,,,,yellow,diamond
0.0,2.0,1.0,0.0,6.0,6.0,549.576871071622,7.0,1.0,phase_2,go,800.0,800.0,1.0,,,,,,,,,blue,triangle
0.0,2.0,1.0,0.0,5.0,5.0,922.2475840724657,7.0,1.0,phase_2,go,800.0,800.0,1.0,,,,,,,,,blue,triangle
0.0,6.0,1.0,1.0,6.0,6.0,686.4545475818886,7.0,1.0,phase_2,stop,800.0,800.0,3.0,,,,,,,,,cyan,hexagon
0.0,1.0,0.5,0.0,5.0,5.0,586.2926507452357,7.0,1.0,phase_2,go,800.0,750.0,1.0,,,,,,,,,gray,I
0.0,1.0,0.5,0.0,5.0,5.0,688.1283819084274,7.0,1.0,phase_2,go,800.0,750.0,1.0,,,,,,,,,gray,I
0.0,6.0,1.0,1.0,5.0,0.0,0.0,7.0,1.0,phase_2,stop,800.0,750.0,4.0,,,,,,,,,cyan,hexagon
0.0,6.0,1.0,1.0,5.0,0.0,0.0,7.0,1.0,phase_2,stop,850.0,750.0,4.0,,,,,,,,,cyan,hexagon
0.0,5.0,0.5,1.0,6.0,6.0,883.5511337447315,8.0,1.0,phase_2,go,900.0,750.0,1.0,,,,,,,,,green,circle
0.0,8.0,4.0,1.0,6.0,6.0,377.7495151634866,8.0,1.0,phase_2,stop,900.0,750.0,3.0,,,,,,,,,orange,square
0.0,2.0,1.0,0.0,6.0,6.0,760.3692404190951,8.0,1.0,phase_2,go,900.0,700.0,1.0,,,,,,,,,blue,triangle
0.0,8.0,4.0,1.0,6.0,6.0,571.4897205816669,8.0,1.0,phase_2,go,900.0,700.0,1.0,,,,,,,,,orange,square
0.0,3.0,2.0,0.0,6.0,6.0,695.7393270722605,8.0,1.0,phase_2,go,900.0,700.0,1.0,,,,,,,,,yellow,diamond
0.0,7.0,2.0,1.0,5.0,5.0,595.3020966535405,8.0,1.0,phase_2,stop,900.0,700.0,3.0,,,,,,,,,white,flipped triangle
0.0,4.0,4.0,0.0,5.0,5.0,573.6729416539674,8.0,1.0,phase_2,go,850.0,700.0,1.0,,,,,,,,,magenta,cross
0.0,6.0,1.0,1.0,6.0,0.0,0.0,8.0,1.0,phase_2,stop,850.0,700.0,4.0,,,,,,,,,cyan,hexagon
0.0,6.0,1.0,1.0,5.0,5.0,860.5850457452107,8.0,1.0,phase_2,stop,850.0,750.0,3.0,,,,,,,,,cyan,hexagon
0.0,5.0,0.5,1.0,6.0,6.0,1139.1526807456105,8.0,1.0,phase_2,go,800.0,750.0,1.0,,,,,,,,,green,circle
0.0,3.0,2.0,0.0,6.0,6.0,609.9575610005559,8.0,1.0,phase_2,go,800.0,750.0,1.0,,,,,,,,,yellow,diamond
0.0,5.0,0.5,1.0,5.0,5.0,835.5420795815007,8.0,1.0,phase_2,stop,800.0,750.0,3.0,,,,,,,,,green,circle
0.0,1.0,0.5,0.0,6.0,6.0,600.6954597451113,8.0,1.0,phase_2,go,750.0,750.0,1.0,,,,,,,,,gray,I
0.0,6.0,1.0,1.0,6.0,6.0,939.5829185814364,8.0,1.0,phase_2,go,750.0,750.0,1.0,,,,,,,,,cyan,hexagon
0.0,8.0,4.0,1.0,5.0,5.0,1019.2868447447836,8.0,1.0,phase_2,go,750.0,750.0,1.0,,,,,,,,,orange,square
0.0,3.0,2.0,0.0,6.0,6.0,580.2608690719353,8.0,1.0,phase_2,go,750.0,750.0,1.0,,,,,,,,,yellow,diamond
0.0,2.0,1.0,0.0,6.0,6.0,492.4149919088449,8.0,1.0,phase_2,go,750.0,750.0,1.0,,,,,,,,,blue,triangle
0.0,1.0,0.5,0.0,6.0,6.0,616.433863581733,8.0,1.0,phase_2,go,750.0,750.0,1.0,,,,,,,,,gray,I
0.0,2.0,1.0,0.0,5.0,5.0,629.0430760718664,8.0,1.0,phase_2,go,750.0,750.0,1.0,,,,,,,,,blue,triangle
0.0,8.0,4.0,1.0,5.0,5.0,888.714681908823,8.0,1.0,phase_2,stop,750.0,750.0,3.0,,,,,,,,,orange,square
0.0,6.0,1.0,1.0,6.0,0.0,0.0,8.0,1.0,phase_2,stop,700.0,750.0,4.0,,,,,,,,,cyan,hexagon
0.0,4.0,4.0,0.0,5.0,5.0,631.2742854906901,8.0,1.0,phase_2,go,700.0,800.0,1.0,,,,,,,,,magenta,cross
0.0,2.0,1.0,0.0,6.0,6.0,531.4134003265281,8.0,1.0,phase_2,go,700.0,800.0,1.0,,,,,,,,,blue,triangle
0.0,8.0,4.0,1.0,6.0,6.0,1014.4723039093151,8.0,1.0,phase_2,go,700.0,800.0,1.0,,,,,,,,,orange,square
0.0,2.0,1.0,0.0,5.0,5.0,611.0881606546172,8.0,1.0,phase_2,go,700.0,800.0,1.0,,,,,,,,,blue,triangle
0.0,5.0,0.5,1.0,5.0,5.0,881.57415432579,8.0,1.0,phase_2,go,700.0,800.0,1.0,,,,,,,,,green,circle
0.0,8.0,4.0,1.0,5.0,5.0,826.7857764903965,8.0,1.0,phase_2,stop,700.0,800.0,3.0,,,,,,,,,orange,square
0.0,6.0,1.0,1.0,6.0,6.0,792.9111583262056,8.0,1.0,phase_2,stop,650.0,800.0,3.0,,,,,,,,,cyan,hexagon
0.0,7.0,2.0,1.0,6.0,6.0,513.3299970002554,8.0,1.0,phase_2,go,650.0,750.0,1.0,,,,,,,,,white,flipped triangle
0.0,7.0,2.0,1.0,6.0,6.0,536.6090840716424,8.0,1.0,phase_2,go,650.0,750.0,1.0,,,,,,,,,white,flipped triangle
0.0,3.0,2.0,0.0,6.0,6.0,570.220155745119,8.0,1.0,phase_2,go,650.0,750.0,1.0,,,,,,,,,yellow,diamond
0.0,3.0,2.0,0.0,5.0,5.0,639.9856816542524,8.0,1.0,phase_2,go,650.0,750.0,1.0,,,,,,,,,yellow,diamond
0.0,5.0,0.5,1.0,6.0,6.0,436.461287581551,8.0,1.0,phase_2,stop,650.0,750.0,3.0,,,,,,,,,green,circle
0.0,4.0,4.0,0.0,6.0,6.0,561.8795153268366,8.0,1.0,phase_2,go,650.0,700.0,1.0,,,,,,,,,magenta,cross
0.0,7.0,2.0,1.0,5.0,5.0,439.7402974900615,8.0,1.0,phase_2,stop,650.0,700.0,3.0,,,,,,,,,white,flipped triangle
0.0,6.0,1.0,1.0,5.0,0.0,0.0,8.0,1.0,phase_2,stop,600.0,700.0,4.0,,,,,,,,,cyan,hexagon
0.0,1.0,0.5,0.0,7.0,2.0,819.5506906176888,1.0,2.0,phase_3,,,,,49.0,1.0,147.0,49.0,196.0,245.0,98.0,294.0,gray,I
0.0,5.0,0.5,1.0,7.0,2.0,1540.1624082769558,1.0,1.0,phase_3,,,,,54.0,1.0,216.0,54.0,324.0,162.0,108.0,270.0,green,circle
0.0,2.0,1.0,0.0,7.0,2.0,1799.734358808564,1.0,1.0,phase_3,,,,,102.0,3.0,136.0,102.0,204.0,68.0,170.0,34.0,blue,triangle
0.0,8.0,4.0,1.0,7.0,3.0,1260.607080808768,1.0,1.0,phase_3,,,,,176.0,4.0,220.0,264.0,176.0,132.0,44.0,88.0,orange,square
0.0,2.0,1.0,0.0,7.0,2.0,1476.5987354248864,1.0,1.0,phase_3,,,,,216.0,4.0,270.0,216.0,324.0,54.0,108.0,162.0,blue,triangle
0.0,3.0,2.0,0.0,7.0,6.0,1499.632607426065,1.0,1.0,phase_3,,,,,176.0,4.0,44.0,132.0,88.0,264.0,220.0,176.0,yellow,diamond
0.0,4.0,4.0,0.0,7.0,6.0,2929.607834808849,1.0,1.0,phase_3,,,,,204.0,6.0,68.0,136.0,102.0,34.0,170.0,204.0,magenta,cross
0.0,5.0,0.5,1.0,7.0,3.0,1871.9884120000645,1.0,1.0,phase_3,,,,,34.0,1.0,204.0,170.0,34.0,136.0,68.0,102.0,green,circle
0.0,7.0,2.0,1.0,7.0,2.0,2155.3315606170145,1.0,1.0,phase_3,,,,,88.0,2.0,176.0,88.0,44.0,264.0,132.0,220.0,white,flipped triangle
0.0,7.0,2.0,1.0,7.0,2.0,2290.790546277094,1.0,1.0,phase_3,,,,,54.0,1.0,108.0,54.0,162.0,270.0,216.0,324.0,white,flipped triangle
0.0,7.0,2.0,1.0,7.0,2.0,2550.3834934252154,1.0,1.0,phase_3,,,,,98.0,2.0,49.0,98.0,245.0,196.0,147.0,294.0,white,flipped triangle
0.0,4.0,4.0,0.0,7.0,3.0,2427.985122851169,1.0,1.0,phase_3,,,,,324.0,6.0,54.0,216.0,324.0,162.0,270.0,108.0,magenta,cross
0.0,1.0,0.5,0.0,7.0,5.0,4050.419523234268,1.0,1.0,phase_3,,,,,49.0,1.0,245.0,196.0,98.0,294.0,49.0,147.0,gray,I
0.0,1.0,0.5,0.0,7.0,3.0,2246.609827425345,1.0,1.0,phase_3,,,,,68.0,2.0,102.0,34.0,68.0,170.0,204.0,136.0,gray,I
0.0,7.0,2.0,1.0,7.0,4.0,1571.7757008515036,1.0,1.0,phase_3,,,,,68.0,2.0,102.0,204.0,136.0,68.0,34.0,170.0,white,flipped triangle
0.0,3.0,2.0,0.0,7.0,3.0,1528.0333232340126,1.0,1.0,phase_3,,,,,147.0,3.0,196.0,294.0,147.0,98.0,245.0,49.0,yellow,diamond
0.0,2.0,1.0,0.0,7.0,6.0,2180.715311425047,1.0,1.0,phase_3,,,,,117.0,3.0,78.0,156.0,234.0,195.0,39.0,117.0,blue,triangle
0.0,8.0,4.0,1.0,7.0,3.0,1597.89712523434,1.0,1.0,phase_3,,,,,170.0,5.0,204.0,34.0,170.0,102.0,136.0,68.0,orange,square
0.0,7.0,2.0,1.0,7.0,4.0,1699.8543400004564,1.0,1.0,phase_3,,,,,132.0,3.0,176.0,88.0,220.0,132.0,264.0,44.0,white,flipped triangle
0.0,6.0,1.0,1.0,7.0,6.0,2870.920512425073,1.0,1.0,phase_3,,,,,108.0,2.0,216.0,162.0,54.0,324.0,270.0,108.0,cyan,hexagon
0.0,5.0,0.5,1.0,7.0,1.0,1628.0075372342253,2.0,1.0,phase_3,,,,,68.0,2.0,68.0,102.0,204.0,34.0,170.0,136.0,green,circle
0.0,3.0,2.0,0.0,7.0,3.0,1820.838778425241,2.0,1.0,phase_3,,,,,176.0,4.0,132.0,88.0,176.0,44.0,220.0,264.0,yellow,diamond
0.0,8.0,4.0,1.0,7.0,3.0,1202.2737904253518,2.0,1.0,phase_3,,,,,170.0,5.0,204.0,68.0,170.0,102.0,34.0,136.0,orange,square
0.0,5.0,0.5,1.0,7.0,1.0,1149.0020652345263,2.0,1.0,phase_3,,,,,39.0,1.0,39.0,117.0,78.0,195.0,156.0,234.0,green,circle
0.0,3.0,2.0,0.0,7.0,6.0,2104.748379234479,2.0,1.0,phase_3,,,,,162.0,3.0,108.0,324.0,54.0,270.0,216.0,162.0,yellow,diamond
0.0,4.0,4.0,0.0,7.0,4.0,1970.5615404254784,2.0,1.0,phase_3,,,,,294.0,6.0,245.0,98.0,49.0,294.0,196.0,147.0,magenta,cross
0.0,2.0,1.0,0.0,7.0,4.0,2490.2307304255373,2.0,1.0,phase_3,,,,,156.0,4.0,117.0,39.0,78.0,156.0,195.0,234.0,blue,triangle
0.0,7.0,2.0,1.0,7.0,6.0,2233.68335361738,2.0,1.0,phase_3,,,,,147.0,3.0,245.0,196.0,49.0,98.0,294.0,147.0,white,flipped triangle
0.0,1.0,0.5,0.0,7.0,3.0,1412.898941851381,2.0,1.0,phase_3,,,,,88.0,2.0,176.0,264.0,88.0,220.0,132.0,44.0,gray,I
0.0,5.0,0.5,1.0,7.0,4.0,2426.259570660477,2.0,1.0,phase_3,,,,,98.0,2.0,196.0,245.0,147.0,98.0,49.0,294.0,green,circle
0.0,1.0,0.5,0.0,7.0,1.0,2673.542243617703,2.0,1.0,phase_3,,,,,117.0,3.0,117.0,78.0,156.0,39.0,195.0,234.0,gray,I
0.0,5.0,0.5,1.0,7.0,1.0,2584.914110043428,2.0,1.0,phase_3,,,,,39.0,1.0,39.0,195.0,117.0,78.0,156.0,234.0,green,circle
0.0,6.0,1.0,1.0,7.0,3.0,1461.132751277546,2.0,1.0,phase_3,,,,,176.0,4.0,132.0,264.0,176.0,88.0,220.0,44.0,cyan,hexagon
0.0,6.0,1.0,1.0,7.0,3.0,1812.8145328519167,2.0,1.0,phase_3,,,,,170.0,5.0,136.0,68.0,170.0,204.0,34.0,102.0,cyan,hexagon
0.0,4.0,4.0,0.0,7.0,2.0,3117.604009426032,2.0,1.0,phase_3,,,,,156.0,4.0,39.0,156.0,117.0,78.0,195.0,234.0,magenta,cross
0.0,2.0,1.0,0.0,7.0,4.0,2893.8609936176363,2.0,1.0,phase_3,,,,,132.0,3.0,88.0,220.0,176.0,132.0,264.0,44.0,blue,triangle
0.0,4.0,4.0,0.0,7.0,3.0,1894.668291661219,2.0,1.0,phase_3,,,,,264.0,6.0,44.0,176.0,264.0,220.0,132.0,88.0,magenta,cross
0.0,4.0,4.0,0.0,7.0,6.0,3188.2821892349966,2.0,1.0,phase_3,,,,,204.0,6.0,34.0,68.0,170.0,102.0,136.0,204.0,magenta,cross
0.0,3.0,2.0,0.0,7.0,5.0,2807.5166598091528,2.0,1.0,phase_3,,,,,234.0,6.0,156.0,117.0,195.0,78.0,234.0,39.0,yellow,diamond
0.0,6.0,1.0,1.0,7.0,3.0,2605.478238277101,2.0,1.0,phase_3,,,,,102.0,3.0,170.0,68.0,102.0,136.0,34.0,204.0,cyan,hexagon
0.0,2.0,1.0,0.0,7.0,3.0,3345.8010444255706,3.0,1.0,phase_3,,,,,102.0,3.0,136.0,170.0,102.0,68.0,204.0,34.0,blue,triangle
0.0,3.0,2.0,0.0,7.0,3.0,1624.778710233841,3.0,1.0,phase_3,,,,,108.0,2.0,270.0,324.0,108.0,162.0,54.0,216.0,yellow,diamond
0.0,2.0,1.0,0.0,7.0,2.0,3358.9274484693306,3.0,1.0,phase_3,,,,,98.0,2.0,147.0,98.0,49.0,245.0,196.0,294.0,blue,triangle
0.0,7.0,2.0,1.0,7.0,4.0,4171.481219808811,3.0,1.0,phase_3,,,,,39.0,1.0,78.0,234.0,195.0,39.0,156.0,117.0,white,flipped triangle
0.0,7.0,2.0,1.0,7.0,2.0,3926.5477554254176,3.0,1.0,phase_3,,,,,54.0,1.0,162.0,54.0,324.0,216.0,108.0,270.0,white,flipped triangle
0.0,5.0,0.5,1.0,7.0,6.0,1845.4726272775588,3.0,1.0,phase_3,,,,,88.0,2.0,220.0,176.0,264.0,132.0,44.0,88.0,green,circle
0.0,3.0,2.0,0.0,7.0,2.0,3018.0198022344484,3.0,1.0,phase_3,,,,,196.0,4.0,49.0,196.0,147.0,245.0,294.0,98.0,yellow,diamond
0.0,2.0,1.0,0.0,7.0,4.0,1780.5057406176277,3.0,1.0,phase_3,,,,,132.0,3.0,176.0,88.0,264.0,132.0,220.0,44.0,blue,triangle
0.0,1.0,0.5,0.0,7.0,3.0,3560.541670042767,3.0,1.0,phase_3,,,,,68.0,2.0,170.0,102.0,68.0,136.0,34.0,204.0,gray,I
0.0,7.0,2.0,1.0,7.0,6.0,3751.7699518512018,3.0,1.0,phase_3,,,,,68.0,2.0,204.0,170.0,34.0,102.0,136.0,68.0,white,flipped triangle
0.0,8.0,4.0,1.0,7.0,5.0,1817.9858952780703,3.0,1.0,phase_3,,,,,220.0,5.0,132.0,176.0,88.0,264.0,220.0,44.0,orange,square
0.0,6.0,1.0,1.0,7.0,3.0,2202.072914617929,3.0,1.0,phase_3,,,,,176.0,4.0,264.0,44.0,176.0,88.0,132.0,220.0,cyan,hexagon
0.0,6.0,1.0,1.0,7.0,3.0,1506.3348018520628,3.0,1.0,phase_3,,,,,156.0,4.0,117.0,195.0,156.0,39.0,78.0,234.0,cyan,hexagon
0.0,4.0,4.0,0.0,7.0,5.0,2171.5220798087103,3.0,1.0,phase_3,,,,,294.0,6.0,98.0,196.0,147.0,245.0,294.0,49.0,magenta,cross
0.0,2.0,1.0,0.0,7.0,3.0,2160.083238808511,3.0,1.0,phase_3,,,,,108.0,2.0,216.0,324.0,108.0,162.0,270.0,54.0,blue,triangle
0.0,1.0,0.5,0.0,7.0,1.0,3207.4010894248204,3.0,1.0,phase_3,,,,,54.0,1.0,54.0,270.0,216.0,162.0,324.0,108.0,gray,I
0.0,4.0,4.0,0.0,7.0,3.0,2128.741220234588,3.0,1.0,phase_3,,,,,264.0,6.0,44.0,132.0,264.0,88.0,176.0,220.0,magenta,cross
0.0,8.0,4.0,1.0,7.0,2.0,2432.98932842481,3.0,1.0,phase_3,,,,,294.0,6.0,147.0,294.0,98.0,245.0,196.0,49.0,orange,square
0.0,8.0,4.0,1.0,7.0,3.0,2008.100695851681,3.0,1.0,phase_3,,,,,324.0,6.0,162.0,270.0,324.0,54.0,108.0,216.0,orange,square
0.0,3.0,2.0,0.0,7.0,3.0,1761.1606472346466,3.0,1.0,phase_3,,,,,204.0,6.0,34.0,68.0,204.0,102.0,136.0,170.0,yellow,diamond
0.0,6.0,1.0,1.0,7.0,2.0,1521.8780456179957,4.0,1.0,phase_3,,,,,195.0,5.0,117.0,195.0,78.0,39.0,156.0,234.0,cyan,hexagon
0.0,1.0,0.5,0.0,7.0,2.0,1499.8022412337375,4.0,1.0,phase_3,,,,,220.0,5.0,176.0,220.0,88.0,132.0,264.0,44.0,gray,I
0.0,5.0,0.5,1.0,7.0,5.0,1455.813590850994,4.0,1.0,phase_3,,,,,88.0,2.0,264.0,176.0,220.0,44.0,88.0,132.0,green,circle
0.0,3.0,2.0,0.0,7.0,5.0,1378.921921234905,4.0,1.0,phase_3,,,,,34.0,1.0,68.0,102.0,204.0,136.0,34.0,170.0,yellow,diamond
0.0,8.0,4.0,1.0,7.0,4.0,1369.307350425515,4.0,1.0,phase_3,,,,,234.0,6.0,78.0,195.0,156.0,234.0,39.0,117.0,orange,square
0.0,3.0,2.0,0.0,7.0,2.0,2000.767461425312,4.0,1.0,phase_3,,,,,78.0,2.0,156.0,78.0,195.0,39.0,117.0,234.0,yellow,diamond
0.0,8.0,4.0,1.0,7.0,4.0,1664.4711246181032,4.0,1.0,phase_3,,,,,270.0,5.0,54.0,108.0,216.0,270.0,324.0,162.0,orange,square
0.0,7.0,2.0,1.0,7.0,3.0,3386.995549425592,4.0,1.0,phase_3,,,,,78.0,2.0,195.0,156.0,78.0,117.0,234.0,39.0,white,flipped triangle
0.0,8.0,4.0,1.0,7.0,6.0,2251.561248425787,4.0,1.0,phase_3,,,,,294.0,6.0,196.0,245.0,49.0,98.0,147.0,294.0,orange,square
0.0,5.0,0.5,1.0,7.0,1.0,1508.9846322771336,4.0,1.0,phase_3,,,,,49.0,1.0,49.0,294.0,147.0,196.0,98.0,245.0,green,circle
0.0,8.0,4.0,1.0,7.0,6.0,2219.025655233964,4.0,1.0,phase_3,,,,,234.0,6.0,117.0,39.0,78.0,156.0,195.0,234.0,orange,square
0.0,4.0,4.0,0.0,7.0,1.0,1397.9421894700863,4.0,1.0,phase_3,,,,,234.0,6.0,234.0,156.0,117.0,78.0,195.0,39.0,magenta,cross
0.0,1.0,0.5,0.0,7.0,5.0,926.8114246169716,4.0,1.0,phase_3,,,,,78.0,2.0,156.0,234.0,39.0,195.0,78.0,117.0,gray,I
0.0,1.0,0.5,0.0,7.0,3.0,2066.048991809112,4.0,1.0,phase_3,,,,,54.0,1.0,324.0,216.0,54.0,108.0,162.0,270.0,gray,I
0.0,5.0,0.5,1.0,7.0,5.0,2706.9428632339623,4.0,1.0,phase_3,,,,,54.0,1.0,270.0,162.0,324.0,216.0,54.0,108.0,green,circle
0.0,4.0,4.0,0.0,7.0,3.0,2438.5551984696576,4.0,1.0,phase_3,,,,,270.0,5.0,108.0,54.0,270.0,324.0,216.0,162.0,magenta,cross
0.0,6.0,1.0,1.0,7.0,3.0,1482.9325070431878,4.0,1.0,phase_3,,,,,162.0,3.0,54.0,270.0,162.0,216.0,324.0,108.0,cyan,hexagon
0.0,6.0,1.0,1.0,7.0,3.0,583.3880538521043,4.0,1.0,phase_3,,,,,49.0,1.0,147.0,196.0,49.0,294.0,245.0,98.0,cyan,hexagon
0.0,6.0,1.0,1.0,7.0,3.0,888.2869332337577,4.0,1.0,phase_3,,,,,196.0,4.0,245.0,147.0,196.0,98.0,49.0,294.0,cyan,hexagon
0.0,2.0,1.0,0.0,7.0,1.0,2386.304873809422,4.0,1.0,phase_3,,,,,196.0,4.0,196.0,49.0,147.0,245.0,98.0,294.0,blue,triangle
