raw_reward_magnitude,stim_reward,stepwise_reward_magnitude,paired_with_stopping,stim_location,response,reaction_time,block,num_trial_presentations,which_phase,stop_signal_trial_type,left_SSD,right_SSD,accuracy,chosen_bidding_amount,chosen_bidding_level,possible_bid_1,possible_bid_2,possible_bid_3,possible_bid_4,possible_bid_5,possible_bid_6,color_text,shape_text
382.0,8.0,4.0,1.0,3.0,3.0,509.15901172811573,1.0,1.0,phase_1,,,,,,,,,,,,,cyan,hexagon
201.0,7.0,2.0,1.0,2.0,2.0,565.9843216417357,1.0,1.0,phase_1,,,,,,,,,,,,,gray,square
180.0,3.0,2.0,0.0,1.0,1.0,475.9768126423296,1.0,1.0,phase_1,,,,,,,,,,,,,blue,circle
185.0,7.0,2.0,1.0,2.0,2.0,444.6025659999577,1.0,1.0,phase_1,,,,,,,,,,,,,gray,square
179.0,3.0,2.0,0.0,3.0,3.0,364.4255554572737,1.0,1.0,phase_1,,,,,,,,,,,,,blue,circle
31.0,5.0,0.5,1.0,2.0,2.0,468.1765301847918,1.0,1.0,phase_1,,,,,,,,,,,,,white,I
0.0,1.0,0.0,0.0,1.0,1.0,410.5287328293343,1.0,1.0,phase_1,,,,,,,,,,,,,orange,cross
75.0,6.0,1.0,1.0,3.0,3.0,365.9610560007422,1.0,1.0,phase_1,,,,,,,,,,,,,green,flipped triangle
0.0,8.0,0.0,1.0,3.0,3.0,298.4110559136752,1.0,1.0,phase_1,,,,,,,,,,,,,cyan,hexagon
388.0,4.0,4.0,0.0,4.0,4.0,357.0842797289515,1.0,1.0,phase_1,,,,,,,,,,,,,yellow,diamond
69.0,1.0,0.5,0.0,3.0,3.0,333.7753466403228,1.0,1.0,phase_1,,,,,,,,,,,,,orange,cross
44.0,1.0,0.5,0.0,3.0,3.0,311.7442936418229,1.0,1.0,phase_1,,,,,,,,,,,,,orange,cross
120.0,2.0,1.0,0.0,3.0,3.0,356.9019371843751,1.0,1.0,phase_1,,,,,,,,,,,,,magenta,triangle
81.0,6.0,1.0,1.0,2.0,2.0,268.8999439124018,1.0,1.0,phase_1,,,,,,,,,,,,,green,flipped triangle
195.0,3.0,2.0,0.0,4.0,4.0,324.7582907279138,1.0,1.0,phase_1,,,,,,,,,,,,,blue,circle
105.0,2.0,1.0,0.0,3.0,3.0,337.0258629129239,1.0,1.0,phase_1,,,,,,,,,,,,,magenta,triangle
103.0,6.0,1.0,1.0,2.0,2.0,316.8527329999051,1.0,1.0,phase_1,,,,,,,,,,,,,green,flipped triangle
418.0,4.0,4.0,0.0,3.0,3.0,325.8064663714322,1.0,1.0,phase_1,,,,,,,,,,,,,yellow,diamond
43.0,5.0,0.5,1.0,1.0,1.0,351.5818759133253,1.0,1.0,phase_1,,,,,,,,,,,,,white,I
0.0,1.0,0.0,0.0,3.0,3.0,340.1859263685765,1.0,1.0,phase_1,,,,,,,,,,,,,orange,cross
187.0,7.0,2.0,1.0,1.0,1.0,454.0629106413689,1.0,1.0,phase_1,,,,,,,,,,,,,gray,square
108.0,6.0,1.0,1.0,1.0,1.0,398.4889260991622,1.0,1.0,phase_1,,,,,,,,,,,,,green,flipped triangle
31.0,1.0,0.5,0.0,4.0,4.0,373.7939114580513,1.0,1.0,phase_1,,,,,,,,,,,,,orange,cross
63.0,1.0,0.5,0.0,3.0,3.0,319.3585431854444,1.0,1.0,phase_1,,,,,,,,,,,,,orange,cross
215.0,7.0,2.0,1.0,1.0,1.0,343.2138787284202,1.0,1.0,phase_1,,,,,,,,,,,,,gray,square
123.0,2.0,1.0,0.0,1.0,1.0,332.9041121851332,1.0,1.0,phase_1,,,,,,,,,,,,,magenta,triangle
62.0,1.0,0.5,0.0,1.0,1.0,309.9059744563419,1.0,1.0,phase_1,,,,,,,,,,,,,orange,cross
417.0,4.0,4.0,0.0,1.0,1.0,298.78941472816217,1.0,1.0,phase_1,,,,,,,,,,,,,yellow,diamond
27.0,5.0,0.5,1.0,1.0,1.0,356.6933037291164,1.0,1.0,phase_1,,,,,,,,,,,,,white,I
81.0,2.0,1.0,0.0,4.0,4.0,401.3013453713938,1.0,1.0,phase_1,,,,,,,,,,,,,magenta,triangle
394.0,8.0,4.0,1.0,2.0,2.0,312.0145099146612,1.0,1.0,phase_1,,,,,,,,,,,,,cyan,hexagon
383.0,4.0,4.0,0.0,1.0,1.0,424.0085031851777,1.0,1.0,phase_1,,,,,,,,,,,,,yellow,diamond
0.0,8.0,0.0,1.0,4.0,4.0,391.0106671009998,1.0,1.0,phase_1,,,,,,,,,,,,,cyan,hexagon
414.0,4.0,4.0,0.0,4.0,4.0,493.4537859135162,1.0,1.0,phase_1,,,,,,,,,,,,,yellow,diamond
72.0,1.0,0.5,0.0,4.0,4.0,404.0458439121721,1.0,1.0,phase_1,,,,,,,,,,,,,orange,cross
36.0,5.0,0.5,1.0,4.0,4.0,359.4562964572105,1.0,1.0,phase_1,,,,,,,,,,,,,white,I
42.0,5.0,0.5,1.0,1.0,1.0,280.9866740990401,1.0,1.0,phase_1,,,,,,,,,,,,,white,I
420.0,4.0,4.0,0.0,4.0,4.0,327.8937474569829,1.0,1.0,phase_1,,,,,,,,,,,,,yellow,diamond
377.0,4.0,4.0,0.0,2.0,2.0,361.0659903697524,1.0,1.0,phase_1,,,,,,,,,,,,,yellow,diamond
392.0,4.0,4.0,0.0,3.0,3.0,407.1849928277515,1.0,1.0,phase_1,,,,,,,,,,,,,yellow,diamond
210.0,7.0,2.0,1.0,4.0,4.0,339.9175349131837,1.0,1.0,phase_1,,,,,,,,,,,,,gray,square
103.0,2.0,1.0,0.0,2.0,2.0,329.8334561859519,1.0,1.0,phase_1,,,,,,,,,,,,,magenta,triangle
192.0,3.0,2.0,0.0,1.0,1.0,317.7471804556262,1.0,1.0,phase_1,,,,,,,,,,,,,blue,circle
388.0,8.0,4.0,1.0,1.0,1.0,342.3302549126674,1.0,1.0,phase_1,,,,,,,,,,,,,cyan,hexagon
0.0,3.0,0.0,0.0,2.0,2.0,354.447672913011,1.0,1.0,phase_1,,,,,,,,,,,,,blue,circle
0.0,2.0,0.0,0.0,2.0,2.0,297.2201987286098,1.0,1.0,phase_1,,,,,,,,,,,,,magenta,triangle
0.0,5.0,0.0,1.0,3.0,3.0,331.3911565564922,1.0,1.0,phase_1,,,,,,,,,,,,,white,I
388.0,8.0,4.0,1.0,1.0,1.0,342.9685681840055,1.0,1.0,phase_1,,,,,,,,,,,,,cyan,hexagon
30.0,5.0,0.5,1.0,3.0,3.0,321.597567455683,1.0,1.0,phase_1,,,,,,,,,,,,,white,I
414.0,8.0,4.0,1.0,2.0,2.0,300.4603530989698,1.0,1.0,phase_1,,,,,,,,,,,,,cyan,hexagon
0.0,7.0,0.0,1.0,2.0,2.0,458.7523698155564,1.0,1.0,phase_1,,,,,,,,,,,,,gray,square
425.0,4.0,4.0,0.0,2.0,2.0,323.5634531847609,1.0,1.0,phase_1,,,,,,,,,,,,,yellow,diamond
0.0,3.0,0.0,0.0,3.0,3.0,333.9829126416589,1.0,1.0,phase_1,,,,,,,,,,,,,blue,circle
57.0,1.0,0.5,0.0,3.0,3.0,313.5521484564378,1.0,1.0,phase_1,,,,,,,,,,,,,orange,cross
414.0,8.0,4.0,1.0,3.0,3.0,368.8471189125266,1.0,1.0,phase_1,,,,,,,,,,,,,cyan,hexagon
391.0,8.0,4.0,1.0,2.0,2.0,415.3875108277134,1.0,1.0,phase_1,,,,,,,,,,,,,cyan,hexagon
73.0,1.0,0.5,0.0,1.0,1.0,383.3560131006379,1.0,1.0,phase_1,,,,,,,,,,,,,orange,cross
0.0,6.0,0.0,1.0,2.0,2.0,416.1474847278441,1.0,1.0,phase_1,,,,,,,,,,,,,green,flipped triangle
73.0,5.0,0.5,1.0,4.0,4.0,384.1233733692206,1.0,1.0,phase_1,,,,,,,,,,,,,white,I
94.0,2.0,1.0,0.0,4.0,4.0,328.2407337283075,1.0,1.0,phase_1,,,,,,,,,,,,,magenta,triangle
42.0,1.0,0.5,0.0,2.0,2.0,453.0641001838376,1.0,1.0,phase_1,,,,,,,,,,,,,orange,cross
62.0,5.0,0.5,1.0,1.0,1.0,272.9342768288916,1.0,1.0,phase_1,,,,,,,,,,,,,white,I
104.0,2.0,1.0,0.0,4.0,4.0,295.2840319121605,1.0,1.0,phase_1,,,,,,,,,,,,,magenta,triangle
391.0,8.0,4.0,1.0,2.0,2.0,296.0110937274294,1.0,1.0,phase_1,,,,,,,,,,,,,cyan,hexagon
183.0,3.0,2.0,0.0,1.0,1.0,319.0496335555508,1.0,1.0,phase_1,,,,,,,,,,,,,blue,circle
387.0,8.0,4.0,1.0,2.0,2.0,308.3316151842155,1.0,1.0,phase_1,,,,,,,,,,,,,cyan,hexagon
97.0,2.0,1.0,0.0,2.0,2.0,299.3351201002951,1.0,1.0,phase_1,,,,,,,,,,,,,magenta,triangle
0.0,1.0,0.0,0.0,4.0,4.0,321.6782700001204,1.0,1.0,phase_1,,,,,,,,,,,,,orange,cross
60.0,5.0,0.5,1.0,4.0,4.0,367.0912053712527,1.0,1.0,phase_1,,,,,,,,,,,,,white,I
93.0,6.0,1.0,1.0,2.0,2.0,299.7083478276181,1.0,1.0,phase_1,,,,,,,,,,,,,green,flipped triangle
403.0,4.0,4.0,0.0,1.0,1.0,299.4766290994448,1.0,1.0,phase_1,,,,,,,,,,,,,yellow,diamond
120.0,2.0,1.0,0.0,3.0,3.0,389.7086283704993,1.0,1.0,phase_1,,,,,,,,,,,,,magenta,triangle
0.0,3.0,0.0,0.0,4.0,4.0,334.6031156415847,1.0,1.0,phase_1,,,,,,,,,,,,,blue,circle
0.0,8.0,0.0,1.0,3.0,3.0,324.4635380997351,1.0,1.0,phase_1,,,,,,,,,,,,,cyan,hexagon
30.0,1.0,0.5,0.0,2.0,2.0,280.7661321839987,1.0,1.0,phase_1,,,,,,,,,,,,,orange,cross
51.0,5.0,0.5,1.0,2.0,2.0,291.48785309917,1.0,1.0,phase_1,,,,,,,,,,,,,white,I
81.0,2.0,1.0,0.0,2.0,2.0,303.1142279123742,1.0,1.0,phase_1,,,,,,,,,,,,,magenta,triangle
0.0,2.0,0.0,0.0,1.0,1.0,348.7396137279575,1.0,1.0,phase_1,,,,,,,,,,,,,magenta,triangle
97.0,6.0,1.0,1.0,1.0,1.0,339.3806548283464,1.0,1.0,phase_1,,,,,,,,,,,,,green,flipped triangle
188.0,7.0,2.0,1.0,4.0,4.0,328.1381301840156,1.0,1.0,phase_1,,,,,,,,,,,,,gray,square
48.0,1.0,0.5,0.0,4.0,4.0,294.2848636412236,1.0,1.0,phase_1,,,,,,,,,,,,,orange,cross
105.0,6.0,1.0,1.0,2.0,2.0,318.6561857291963,1.0,1.0,phase_1,,,,,,,,,,,,,green,flipped triangle
198.0,7.0,2.0,1.0,2.0,2.0,295.573380370115,1.0,1.0,phase_1,,,,,,,,,,,,,gray,square
0.0,4.0,0.0,0.0,4.0,4.0,262.9215181841573,1.0,1.0,phase_1,,,,,,,,,,,,,yellow,diamond
111.0,6.0,1.0,1.0,3.0,3.0,330.7128821852529,1.0,1.0,phase_1,,,,,,,,,,,,,green,flipped triangle
401.0,4.0,4.0,0.0,1.0,1.0,319.1549184557516,1.0,1.0,phase_1,,,,,,,,,,,,,yellow,diamond
44.0,1.0,0.5,0.0,2.0,2.0,287.6564586422319,1.0,1.0,phase_1,,,,,,,,,,,,,orange,cross
220.0,7.0,2.0,1.0,1.0,1.0,309.3038109127519,1.0,2.0,phase_1,,,,,,,,,,,,,gray,square
0.0,2.0,0.0,0.0,4.0,4.0,378.1831043706916,1.0,1.0,phase_1,,,,,,,,,,,,,magenta,triangle
0.0,5.0,0.0,1.0,2.0,2.0,255.6905496421677,1.0,1.0,phase_1,,,,,,,,,,,,,white,I
219.0,7.0,2.0,1.0,4.0,4.0,346.502953369054,1.0,1.0,phase_1,,,,,,,,,,,,,gray,square
85.0,2.0,1.0,0.0,3.0,3.0,333.5373001864354,1.0,1.0,phase_1,,,,,,,,,,,,,magenta,triangle
72.0,5.0,0.5,1.0,4.0,4.0,312.3228709137038,1.0,1.0,phase_1,,,,,,,,,,,,,white,I
108.0,2.0,1.0,0.0,3.0,3.0,381.6418974565749,1.0,1.0,phase_1,,,,,,,,,,,,,magenta,triangle
420.0,8.0,4.0,1.0,1.0,1.0,348.9132893701026,1.0,1.0,phase_1,,,,,,,,,,,,,cyan,hexagon
111.0,6.0,1.0,1.0,1.0,1.0,371.8023348283168,1.0,1.0,phase_1,,,,,,,,,,,,,green,flipped triangle
58.0,5.0,0.5,1.0,4.0,4.0,371.5428397281357,1.0,1.0,phase_1,,,,,,,,,,,,,white,I
418.0,8.0,4.0,1.0,4.0,4.0,326.4055583713343,1.0,1.0,phase_1,,,,,,,,,,,,,cyan,hexagon
188.0,7.0,2.0,1.0,2.0,2.0,406.3489863710856,1.0,1.0,phase_1,,,,,,,,,,,,,gray,square
71.0,5.0,0.5,1.0,4.0,4.0,428.6824999126111,1.0,1.0,phase_1,,,,,,,,,,,,,white,I
0.0,4.0,0.0,0.0,3.0,3.0,408.7920449128432,2.0,1.0,phase_1,,,,,,,,,,,,,yellow,diamond
115.0,6.0,1.0,1.0,2.0,2.0,388.2743581852992,2.0,1.0,phase_1,,,,,,,,,,,,,green,flipped triangle
77.0,6.0,1.0,1.0,1.0,1.0,298.3779119986138,2.0,1.0,phase_1,,,,,,,,,,,,,green,flipped triangle
58.0,5.0,0.5,1.0,3.0,3.0,376.9184316406608,2.0,1.0,phase_1,,,,,,,,,,,,,white,I
210.0,3.0,2.0,0.0,3.0,3.0,344.9024796409503,2.0,1.0,phase_1,,,,,,,,,,,,,blue,circle
122.0,6.0,1.0,1.0,2.0,2.0,391.1552486424625,2.0,1.0,phase_1,,,,,,,,,,,,,green,flipped triangle
180.0,7.0,2.0,1.0,1.0,1.0,369.4765801847097,2.0,1.0,phase_1,,,,,,,,,,,,,gray,square
408.0,4.0,4.0,0.0,2.0,2.0,414.3500899135688,2.0,1.0,phase_1,,,,,,,,,,,,,yellow,diamond
376.0,4.0,4.0,0.0,4.0,4.0,268.3345724562969,2.0,1.0,phase_1,,,,,,,,,,,,,yellow,diamond
104.0,6.0,1.0,1.0,3.0,3.0,357.4979619115765,2.0,1.0,phase_1,,,,,,,,,,,,,green,flipped triangle
51.0,1.0,0.5,0.0,1.0,1.0,359.0578194580303,2.0,1.0,phase_1,,,,,,,,,,,,,orange,cross
377.0,8.0,4.0,1.0,3.0,3.0,326.2173067287222,2.0,1.0,phase_1,,,,,,,,,,,,,cyan,hexagon
88.0,2.0,1.0,0.0,4.0,4.0,327.3679027279286,2.0,1.0,phase_1,,,,,,,,,,,,,magenta,triangle
0.0,7.0,0.0,1.0,3.0,3.0,326.3829871011694,2.0,1.0,phase_1,,,,,,,,,,,,,gray,square
67.0,1.0,0.5,0.0,2.0,2.0,306.6785284554498,2.0,1.0,phase_1,,,,,,,,,,,,,orange,cross
185.0,3.0,2.0,0.0,1.0,1.0,338.7242477274412,2.0,1.0,phase_1,,,,,,,,,,,,,blue,circle
177.0,7.0,2.0,1.0,3.0,3.0,329.6702956413355,2.0,1.0,phase_1,,,,,,,,,,,,,gray,square
79.0,2.0,1.0,0.0,2.0,2.0,284.2088664565381,2.0,1.0,phase_1,,,,,,,,,,,,,magenta,triangle
48.0,5.0,0.5,1.0,2.0,2.0,318.3301214558014,2.0,1.0,phase_1,,,,,,,,,,,,,white,I
423.0,4.0,4.0,0.0,2.0,2.0,296.1621021004248,2.0,1.0,phase_1,,,,,,,,,,,,,yellow,diamond
191.0,7.0,2.0,1.0,3.0,3.0,330.4033497279306,2.0,1.0,phase_1,,,,,,,,,,,,,gray,square
102.0,6.0,1.0,1.0,4.0,4.0,331.3500819986075,2.0,1.0,phase_1,,,,,,,,,,,,,green,flipped triangle
383.0,8.0,4.0,1.0,1.0,1.0,309.1276831837604,2.0,1.0,phase_1,,,,,,,,,,,,,cyan,hexagon
0.0,2.0,0.0,0.0,4.0,4.0,310.4917059135914,2.0,1.0,phase_1,,,,,,,,,,,,,magenta,triangle
205.0,3.0,2.0,0.0,2.0,2.0,312.3385727285495,2.0,1.0,phase_1,,,,,,,,,,,,,blue,circle
0.0,3.0,0.0,0.0,1.0,1.0,322.5744271858275,2.0,1.0,phase_1,,,,,,,,,,,,,blue,circle
0.0,8.0,0.0,1.0,2.0,2.0,312.6519574580015,2.0,1.0,phase_1,,,,,,,,,,,,,cyan,hexagon
27.0,5.0,0.5,1.0,3.0,3.0,368.643385827454,2.0,1.0,phase_1,,,,,,,,,,,,,white,I
205.0,3.0,2.0,0.0,4.0,4.0,302.2140733701235,2.0,1.0,phase_1,,,,,,,,,,,,,blue,circle
387.0,4.0,4.0,0.0,3.0,3.0,402.6574261006317,2.0,1.0,phase_1,,,,,,,,,,,,,yellow,diamond
222.0,7.0,2.0,1.0,2.0,2.0,313.8290249135025,2.0,1.0,phase_1,,,,,,,,,,,,,gray,square
177.0,3.0,2.0,0.0,2.0,2.0,303.3815860999311,2.0,1.0,phase_1,,,,,,,,,,,,,blue,circle
211.0,7.0,2.0,1.0,3.0,3.0,336.3339688294218,2.0,1.0,phase_1,,,,,,,,,,,,,gray,square
67.0,5.0,0.5,1.0,3.0,3.0,325.787437186591,2.0,1.0,phase_1,,,,,,,,,,,,,white,I
388.0,4.0,4.0,0.0,1.0,1.0,283.8484389139921,2.0,1.0,phase_1,,,,,,,,,,,,,yellow,diamond
219.0,3.0,2.0,0.0,2.0,2.0,305.6849464555853,2.0,1.0,phase_1,,,,,,,,,,,,,blue,circle
0.0,4.0,0.0,0.0,2.0,2.0,307.03930918389227,2.0,1.0,phase_1,,,,,,,,,,,,,yellow,diamond
179.0,7.0,2.0,1.0,2.0,2.0,397.5108493687003,2.0,1.0,phase_1,,,,,,,,,,,,,gray,square
0.0,3.0,0.0,0.0,4.0,4.0,329.1224013701139,2.0,1.0,phase_1,,,,,,,,,,,,,blue,circle
424.0,8.0,4.0,1.0,4.0,4.0,375.0141407290357,2.0,1.0,phase_1,,,,,,,,,,,,,cyan,hexagon
213.0,7.0,2.0,1.0,3.0,3.0,365.1086798272445,2.0,1.0,phase_1,,,,,,,,,,,,,gray,square
0.0,4.0,0.0,0.0,3.0,3.0,365.45566718450567,2.0,1.0,phase_1,,,,,,,,,,,,,yellow,diamond
0.0,8.0,0.0,1.0,1.0,1.0,320.8047130992781,2.0,1.0,phase_1,,,,,,,,,,,,,cyan,hexagon
382.0,8.0,4.0,1.0,4.0,4.0,322.0101103706838,2.0,1.0,phase_1,,,,,,,,,,,,,cyan,hexagon
30.0,1.0,0.5,0.0,1.0,1.0,525.285663368777,2.0,1.0,phase_1,,,,,,,,,,,,,orange,cross
180.0,7.0,2.0,1.0,2.0,2.0,344.1408321850758,2.0,1.0,phase_1,,,,,,,,,,,,,gray,square
91.0,6.0,1.0,1.0,4.0,4.0,358.206234728641,2.0,1.0,phase_1,,,,,,,,,,,,,green,flipped triangle
33.0,5.0,0.5,1.0,1.0,1.0,334.1882077293121,2.0,1.0,phase_1,,,,,,,,,,,,,white,I
97.0,2.0,1.0,0.0,4.0,4.0,311.9233811848971,2.0,1.0,phase_1,,,,,,,,,,,,,magenta,triangle
215.0,3.0,2.0,0.0,3.0,3.0,357.1526119121699,2.0,1.0,phase_1,,,,,,,,,,,,,blue,circle
57.0,5.0,0.5,1.0,1.0,1.0,404.7010129143018,2.0,1.0,phase_1,,,,,,,,,,,,,white,I
41.0,1.0,0.5,0.0,1.0,1.0,337.6910083698021,2.0,1.0,phase_1,,,,,,,,,,,,,orange,cross
72.0,1.0,0.5,0.0,3.0,3.0,349.6950966418808,2.0,1.0,phase_1,,,,,,,,,,,,,orange,cross
208.0,3.0,2.0,0.0,1.0,1.0,292.7835723694443,2.0,1.0,phase_1,,,,,,,,,,,,,blue,circle
198.0,3.0,2.0,0.0,2.0,2.0,338.8137989131792,2.0,1.0,phase_1,,,,,,,,,,,,,blue,circle
394.0,4.0,4.0,0.0,3.0,3.0,339.5967194574041,2.0,1.0,phase_1,,,,,,,,,,,,,yellow,diamond
88.0,6.0,1.0,1.0,2.0,2.0,282.73952555719,2.0,1.0,phase_1,,,,,,,,,,,,,green,flipped triangle
192.0,7.0,2.0,1.0,3.0,3.0,339.9404189985944,2.0,1.0,phase_1,,,,,,,,,,,,,gray,square
81.0,2.0,1.0,0.0,1.0,1.0,318.4524788284761,2.0,1.0,phase_1,,,,,,,,,,,,,magenta,triangle
33.0,1.0,0.5,0.0,2.0,2.0,318.3181829135719,2.0,1.0,phase_1,,,,,,,,,,,,,orange,cross
216.0,7.0,2.0,1.0,2.0,2.0,342.0328231859457,2.0,1.0,phase_1,,,,,,,,,,,,,gray,square
203.0,3.0,2.0,0.0,3.0,3.0,376.6235281000263,2.0,1.0,phase_1,,,,,,,,,,,,,blue,circle
99.0,2.0,1.0,0.0,2.0,2.0,309.3855504557723,2.0,1.0,phase_1,,,,,,,,,,,,,magenta,triangle
56.0,1.0,0.5,0.0,3.0,3.0,286.3985349140421,2.0,1.0,phase_1,,,,,,,,,,,,,orange,cross
211.0,3.0,2.0,0.0,3.0,3.0,390.01509964145947,2.0,1.0,phase_1,,,,,,,,,,,,,blue,circle
382.0,4.0,4.0,0.0,3.0,3.0,333.0684957290941,2.0,1.0,phase_1,,,,,,,,,,,,,yellow,diamond
397.0,4.0,4.0,0.0,2.0,2.0,323.5124766415538,2.0,1.0,phase_1,,,,,,,,,,,,,yellow,diamond
211.0,7.0,2.0,1.0,1.0,1.0,480.1316521861736,2.0,1.0,phase_1,,,,,,,,,,,,,gray,square
85.0,6.0,1.0,1.0,1.0,1.0,402.4628411007143,2.0,1.0,phase_1,,,,,,,,,,,,,green,flipped triangle
120.0,6.0,1.0,1.0,1.0,1.0,334.980914100015,2.0,1.0,phase_1,,,,,,,,,,,,,green,flipped triangle
381.0,8.0,4.0,1.0,4.0,4.0,335.3953588284639,2.0,1.0,phase_1,,,,,,,,,,,,,cyan,hexagon
202.0,3.0,2.0,0.0,1.0,1.0,551.707819557123,2.0,1.0,phase_1,,,,,,,,,,,,,blue,circle
48.0,5.0,0.5,1.0,3.0,3.0,404.1110187281447,2.0,1.0,phase_1,,,,,,,,,,,,,white,I
114.0,2.0,1.0,0.0,1.0,1.0,393.5030358279618,2.0,1.0,phase_1,,,,,,,,,,,,,magenta,triangle
26.0,5.0,0.5,1.0,2.0,2.0,394.6474974563898,2.0,1.0,phase_1,,,,,,,,,,,,,white,I
186.0,7.0,2.0,1.0,2.0,2.0,316.7072077285411,2.0,1.0,phase_1,,,,,,,,,,,,,gray,square
382.0,4.0,4.0,0.0,2.0,2.0,305.3740041850687,2.0,1.0,phase_1,,,,,,,,,,,,,yellow,diamond
0.0,6.0,0.0,1.0,3.0,3.0,598.2990711836464,2.0,1.0,phase_1,,,,,,,,,,,,,green,flipped triangle
206.0,7.0,2.0,1.0,4.0,4.0,397.6889279128954,2.0,1.0,phase_1,,,,,,,,,,,,,gray,square
0.0,7.0,0.0,1.0,3.0,3.0,409.1247786418535,2.0,1.0,phase_1,,,,,,,,,,,,,gray,square
180.0,3.0,2.0,0.0,2.0,2.0,387.4383461861725,2.0,1.0,phase_1,,,,,,,,,,,,,blue,circle
400.0,8.0,4.0,1.0,3.0,3.0,342.6024531854637,2.0,1.0,phase_1,,,,,,,,,,,,,cyan,hexagon
224.0,7.0,2.0,1.0,4.0,4.0,409.1958591852744,2.0,1.0,phase_1,,,,,,,,,,,,,gray,square
36.0,1.0,0.5,0.0,4.0,4.0,738.2205540307041,2.0,1.0,phase_1,,,,,,,,,,,,,orange,cross
399.0,8.0,4.0,1.0,1.0,1.0,343.4544471838308,2.0,1.0,phase_1,,,,,,,,,,,,,cyan,hexagon
0.0,2.0,0.0,0.0,2.0,2.0,378.329714456413,2.0,1.0,phase_1,,,,,,,,,,,,,magenta,triangle
0.0,1.0,0.0,0.0,1.0,1.0,367.7937000993552,2.0,1.0,phase_1,,,,,,,,,,,,,orange,cross
190.0,7.0,2.0,1.0,1.0,1.0,333.4967914579465,2.0,1.0,phase_1,,,,,,,,,,,,,gray,square
0.0,8.0,0.0,1.0,4.0,4.0,345.6319883698597,2.0,1.0,phase_1,,,,,,,,,,,,,cyan,hexagon
420.0,8.0,4.0,1.0,4.0,4.0,347.1594987295248,2.0,1.0,phase_1,,,,,,,,,,,,,cyan,hexagon
57.0,5.0,0.5,1.0,2.0,2.0,380.784909828435,2.0,1.0,phase_1,,,,,,,,,,,,,white,I
194.0,7.0,2.0,1.0,1.0,1.0,450.1950920985109,2.0,1.0,phase_1,,,,,,,,,,,,,gray,square
190.0,3.0,2.0,0.0,2.0,2.0,405.7604199133493,2.0,1.0,phase_1,,,,,,,,,,,,,blue,circle
0.0,2.0,0.0,0.0,1.0,1.0,315.0106956418312,2.0,1.0,phase_1,,,,,,,,,,,,,magenta,triangle
0.0,5.0,0.0,1.0,3.0,3.0,338.1122389127995,2.0,1.0,phase_1,,,,,,,,,,,,,white,I
420.0,4.0,4.0,0.0,4.0,4.0,338.5778831852803,2.0,1.0,phase_1,,,,,,,,,,,,,yellow,diamond
0.0,4.0,0.0,0.0,2.0,2.0,351.923530914064,2.0,1.0,phase_1,,,,,,,,,,,,,yellow,diamond
44.0,5.0,0.5,1.0,3.0,3.0,384.7347061837354,2.0,1.0,phase_1,,,,,,,,,,,,,white,I
186.0,3.0,2.0,0.0,2.0,2.0,396.6759298273246,2.0,1.0,phase_1,,,,,,,,,,,,,blue,circle
0.0,3.0,0.0,0.0,4.0,4.0,386.677201184284,2.0,1.0,phase_1,,,,,,,,,,,,,blue,circle
191.0,3.0,2.0,0.0,2.0,2.0,343.9402828280435,3.0,1.0,phase_1,,,,,,,,,,,,,blue,circle
387.0,4.0,4.0,0.0,2.0,2.0,311.5802655556763,3.0,1.0,phase_1,,,,,,,,,,,,,yellow,diamond
418.0,4.0,4.0,0.0,2.0,2.0,300.3361147293617,3.0,1.0,phase_1,,,,,,,,,,,,,yellow,diamond
67.0,1.0,0.5,0.0,1.0,1.0,379.2833444567804,3.0,1.0,phase_1,,,,,,,,,,,,,orange,cross
57.0,1.0,0.5,0.0,2.0,2.0,302.402714456548,3.0,1.0,phase_1,,,,,,,,,,,,,orange,cross
60.0,1.0,0.5,0.0,4.0,4.0,312.5015017285477,3.0,1.0,phase_1,,,,,,,,,,,,,orange,cross
211.0,3.0,2.0,0.0,3.0,3.0,357.4581382727047,3.0,1.0,phase_1,,,,,,,,,,,,,blue,circle
0.0,6.0,0.0,1.0,2.0,2.0,291.4352613697701,3.0,1.0,phase_1,,,,,,,,,,,,,green,flipped triangle
39.0,1.0,0.5,0.0,4.0,4.0,314.1940248278843,3.0,1.0,phase_1,,,,,,,,,,,,,orange,cross
106.0,2.0,1.0,0.0,3.0,3.0,303.0713764565007,3.0,1.0,phase_1,,,,,,,,,,,,,magenta,triangle
26.0,1.0,0.5,0.0,4.0,4.0,327.0703960988612,3.0,1.0,phase_1,,,,,,,,,,,,,orange,cross
49.0,1.0,0.5,0.0,1.0,1.0,349.9211008274869,3.0,1.0,phase_1,,,,,,,,,,,,,orange,cross
69.0,1.0,0.5,0.0,2.0,2.0,327.8994059128308,3.0,1.0,phase_1,,,,,,,,,,,,,orange,cross
115.0,2.0,1.0,0.0,3.0,3.0,351.8676717285416,3.0,1.0,phase_1,,,,,,,,,,,,,magenta,triangle
188.0,3.0,2.0,0.0,4.0,4.0,317.7339543690323,3.0,1.0,phase_1,,,,,,,,,,,,,blue,circle
43.0,1.0,0.5,0.0,2.0,2.0,295.7040586406947,3.0,1.0,phase_1,,,,,,,,,,,,,orange,cross
202.0,7.0,2.0,1.0,3.0,3.0,307.3030991854466,3.0,1.0,phase_1,,,,,,,,,,,,,gray,square
36.0,1.0,0.5,0.0,1.0,1.0,297.8191771853744,3.0,1.0,phase_1,,,,,,,,,,,,,orange,cross
0.0,5.0,0.0,1.0,1.0,1.0,310.0258480008051,3.0,1.0,phase_1,,,,,,,,,,,,,white,I
0.0,7.0,0.0,1.0,4.0,4.0,332.1515007282869,3.0,1.0,phase_1,,,,,,,,,,,,,gray,square
414.0,4.0,4.0,0.0,1.0,1.0,366.8114724569022,3.0,1.0,phase_1,,,,,,,,,,,,,yellow,diamond
410.0,8.0,4.0,1.0,4.0,4.0,366.8718293702113,3.0,1.0,phase_1,,,,,,,,,,,,,cyan,hexagon
99.0,6.0,1.0,1.0,4.0,4.0,355.7000098135177,3.0,1.0,phase_1,,,,,,,,,,,,,green,flipped triangle
71.0,1.0,0.5,0.0,3.0,3.0,333.844441556721,3.0,1.0,phase_1,,,,,,,,,,,,,orange,cross
425.0,8.0,4.0,1.0,1.0,1.0,324.4066785555333,3.0,1.0,phase_1,,,,,,,,,,,,,cyan,hexagon
79.0,2.0,1.0,0.0,1.0,1.0,402.3814935553673,3.0,1.0,phase_1,,,,,,,,,,,,,magenta,triangle
64.0,1.0,0.5,0.0,4.0,4.0,335.9100401848991,3.0,1.0,phase_1,,,,,,,,,,,,,orange,cross
117.0,2.0,1.0,0.0,3.0,3.0,494.07697064089,3.0,1.0,phase_1,,,,,,,,,,,,,magenta,triangle
0.0,1.0,0.0,0.0,2.0,2.0,438.8289268281369,3.0,1.0,phase_1,,,,,,,,,,,,,orange,cross
0.0,7.0,0.0,1.0,2.0,2.0,383.8710481850285,3.0,1.0,phase_1,,,,,,,,,,,,,gray,square
57.0,5.0,0.5,1.0,1.0,1.0,417.5571022842632,3.0,1.0,phase_1,,,,,,,,,,,,,white,I
0.0,7.0,0.0,1.0,4.0,4.0,405.6787451845594,3.0,1.0,phase_1,,,,,,,,,,,,,gray,square
0.0,4.0,0.0,0.0,3.0,3.0,339.2597951005882,3.0,1.0,phase_1,,,,,,,,,,,,,yellow,diamond
394.0,8.0,4.0,1.0,2.0,2.0,294.3514216403855,3.0,1.0,phase_1,,,,,,,,,,,,,cyan,hexagon
97.0,6.0,1.0,1.0,3.0,3.0,340.2598366410529,3.0,1.0,phase_1,,,,,,,,,,,,,green,flipped triangle
0.0,6.0,0.0,1.0,2.0,2.0,319.2296767283551,3.0,1.0,phase_1,,,,,,,,,,,,,green,flipped triangle
192.0,7.0,2.0,1.0,4.0,4.0,330.038682455779,3.0,1.0,phase_1,,,,,,,,,,,,,gray,square
201.0,3.0,2.0,0.0,1.0,1.0,285.1641637280409,3.0,1.0,phase_1,,,,,,,,,,,,,blue,circle
0.0,6.0,0.0,1.0,4.0,4.0,309.2753624569013,3.0,1.0,phase_1,,,,,,,,,,,,,green,flipped triangle
115.0,2.0,1.0,0.0,3.0,3.0,364.9551838298066,3.0,1.0,phase_1,,,,,,,,,,,,,magenta,triangle
222.0,3.0,2.0,0.0,2.0,2.0,343.1318889124668,3.0,1.0,phase_1,,,,,,,,,,,,,blue,circle
77.0,2.0,1.0,0.0,4.0,4.0,343.1971088284626,3.0,1.0,phase_1,,,,,,,,,,,,,magenta,triangle
0.0,1.0,0.0,0.0,1.0,1.0,323.3721484575653,3.0,1.0,phase_1,,,,,,,,,,,,,orange,cross
93.0,2.0,1.0,0.0,2.0,2.0,289.3326055564102,3.0,1.0,phase_1,,,,,,,,,,,,,magenta,triangle
207.0,3.0,2.0,0.0,2.0,2.0,357.0138249997399,3.0,1.0,phase_1,,,,,,,,,,,,,blue,circle
117.0,6.0,1.0,1.0,1.0,1.0,346.2010151833965,3.0,1.0,phase_1,,,,,,,,,,,,,green,flipped triangle
117.0,2.0,1.0,0.0,3.0,3.0,334.4408728280541,3.0,1.0,phase_1,,,,,,,,,,,,,magenta,triangle
0.0,8.0,0.0,1.0,3.0,3.0,359.6168901840428,3.0,1.0,phase_1,,,,,,,,,,,,,cyan,hexagon
410.0,4.0,4.0,0.0,4.0,4.0,325.0447620994237,3.0,1.0,phase_1,,,,,,,,,,,,,yellow,diamond
75.0,2.0,1.0,0.0,4.0,4.0,337.0762907288736,3.0,1.0,phase_1,,,,,,,,,,,,,magenta,triangle
27.0,1.0,0.5,0.0,3.0,3.0,326.383655099562,3.0,1.0,phase_1,,,,,,,,,,,,,orange,cross
0.0,2.0,0.0,0.0,3.0,3.0,384.3413109134417,3.0,1.0,phase_1,,,,,,,,,,,,,magenta,triangle
420.0,4.0,4.0,0.0,3.0,3.0,339.7353811014909,3.0,1.0,phase_1,,,,,,,,,,,,,yellow,diamond
404.0,4.0,4.0,0.0,4.0,4.0,372.5545074557885,3.0,1.0,phase_1,,,,,,,,,,,,,yellow,diamond
0.0,4.0,0.0,0.0,1.0,1.0,340.09031136884,3.0,1.0,phase_1,,,,,,,,,,,,,yellow,diamond
400.0,4.0,4.0,0.0,4.0,4.0,318.044306099182,3.0,1.0,phase_1,,,,,,,,,,,,,yellow,diamond
403.0,4.0,4.0,0.0,1.0,1.0,307.3126189992763,3.0,1.0,phase_1,,,,,,,,,,,,,yellow,diamond
35.0,5.0,0.5,1.0,1.0,1.0,386.1418684573436,3.0,1.0,phase_1,,,,,,,,,,,,,white,I
179.0,7.0,2.0,1.0,4.0,4.0,332.1236041847442,3.0,1.0,phase_1,,,,,,,,,,,,,gray,square
0.0,2.0,0.0,0.0,3.0,3.0,332.4594313708076,3.0,1.0,phase_1,,,,,,,,,,,,,magenta,triangle
381.0,4.0,4.0,0.0,1.0,1.0,365.5489663706248,3.0,1.0,phase_1,,,,,,,,,,,,,yellow,diamond
0.0,6.0,0.0,1.0,3.0,3.0,376.8874634570238,3.0,1.0,phase_1,,,,,,,,,,,,,green,flipped triangle
0.0,8.0,0.0,1.0,3.0,3.0,299.0151248286565,3.0,1.0,phase_1,,,,,,,,,,,,,cyan,hexagon
110.0,6.0,1.0,1.0,3.0,3.0,311.1859525724867,3.0,1.0,phase_1,,,,,,,,,,,,,green,flipped triangle
397.0,8.0,4.0,1.0,1.0,1.0,290.2291766404232,3.0,1.0,phase_1,,,,,,,,,,,,,cyan,hexagon
81.0,6.0,1.0,1.0,4.0,4.0,299.9633738290868,3.0,1.0,phase_1,,,,,,,,,,,,,green,flipped triangle
387.0,8.0,4.0,1.0,4.0,4.0,358.4364171856578,3.0,1.0,phase_1,,,,,,,,,,,,,cyan,hexagon
75.0,2.0,1.0,0.0,4.0,4.0,314.4844973703584,3.0,1.0,phase_1,,,,,,,,,,,,,magenta,triangle
0.0,4.0,0.0,0.0,4.0,4.0,302.2730340017006,3.0,1.0,phase_1,,,,,,,,,,,,,yellow,diamond
417.0,8.0,4.0,1.0,1.0,1.0,302.5773427289095,3.0,1.0,phase_1,,,,,,,,,,,,,cyan,hexagon
120.0,2.0,1.0,0.0,2.0,2.0,382.3748954564507,3.0,1.0,phase_1,,,,,,,,,,,,,magenta,triangle
192.0,3.0,2.0,0.0,4.0,4.0,315.0185481845255,3.0,1.0,phase_1,,,,,,,,,,,,,blue,circle
403.0,8.0,4.0,1.0,4.0,4.0,337.6021109143039,3.0,1.0,phase_1,,,,,,,,,,,,,cyan,hexagon
417.0,4.0,4.0,0.0,3.0,3.0,395.5552634561172,3.0,1.0,phase_1,,,,,,,,,,,,,yellow,diamond
106.0,6.0,1.0,1.0,3.0,3.0,340.3805346406443,3.0,1.0,phase_1,,,,,,,,,,,,,green,flipped triangle
0.0,7.0,0.0,1.0,4.0,4.0,420.3903889138018,3.0,1.0,phase_1,,,,,,,,,,,,,gray,square
224.0,3.0,2.0,0.0,3.0,3.0,363.1454545575252,3.0,1.0,phase_1,,,,,,,,,,,,,blue,circle
0.0,5.0,0.0,1.0,4.0,4.0,330.3368949127616,3.0,1.0,phase_1,,,,,,,,,,,,,white,I
27.0,1.0,0.5,0.0,4.0,4.0,331.7179071855207,3.0,1.0,phase_1,,,,,,,,,,,,,orange,cross
110.0,2.0,1.0,0.0,4.0,4.0,308.5948993702914,3.0,1.0,phase_1,,,,,,,,,,,,,magenta,triangle
190.0,7.0,2.0,1.0,2.0,2.0,308.9513199138309,3.0,1.0,phase_1,,,,,,,,,,,,,gray,square
392.0,8.0,4.0,1.0,1.0,1.0,389.1426509126177,3.0,1.0,phase_1,,,,,,,,,,,,,cyan,hexagon
205.0,7.0,2.0,1.0,1.0,1.0,355.4711419310479,3.0,1.0,phase_1,,,,,,,,,,,,,gray,square
57.0,1.0,0.5,0.0,2.0,2.0,344.5454488282848,3.0,1.0,phase_1,,,,,,,,,,,,,orange,cross
37.0,5.0,0.5,1.0,4.0,4.0,346.5669201832497,3.0,1.0,phase_1,,,,,,,,,,,,,white,I
208.0,7.0,2.0,1.0,3.0,3.0,335.4570714564033,3.0,1.0,phase_1,,,,,,,,,,,,,gray,square
117.0,6.0,1.0,1.0,3.0,3.0,357.6407537293562,3.0,1.0,phase_1,,,,,,,,,,,,,green,flipped triangle
0.0,7.0,0.0,1.0,3.0,3.0,345.6945926427579,3.0,1.0,phase_1,,,,,,,,,,,,,gray,square
117.0,2.0,1.0,0.0,1.0,1.0,324.2785344573349,3.0,1.0,phase_1,,,,,,,,,,,,,magenta,triangle
213.0,3.0,2.0,0.0,4.0,4.0,371.4546487281041,3.0,1.0,phase_1,,,,,,,,,,,,,blue,circle
0.0,5.0,0.0,1.0,1.0,1.0,337.7019273684709,3.0,1.0,phase_1,,,,,,,,,,,,,white,I
0.0,8.0,0.0,1.0,2.0,2.0,281.521934641205,3.0,1.0,phase_1,,,,,,,,,,,,,cyan,hexagon
69.0,5.0,0.5,1.0,1.0,1.0,360.732737912258,3.0,1.0,phase_1,,,,,,,,,,,,,white,I
122.0,2.0,1.0,0.0,1.0,1.0,273.1454957283858,3.0,1.0,phase_1,,,,,,,,,,,,,magenta,triangle
418.0,8.0,4.0,1.0,2.0,2.0,351.7484190997493,3.0,1.0,phase_1,,,,,,,,,,,,,cyan,hexagon
95.0,6.0,1.0,1.0,4.0,4.0,340.0268821860663,3.0,1.0,phase_1,,,,,,,,,,,,,green,flipped triangle
114.0,6.0,1.0,1.0,1.0,1.0,318.1815845437086,3.0,1.0,phase_1,,,,,,,,,,,,,green,flipped triangle
0.0,5.0,0.0,1.0,2.0,2.0,329.9794882586866,3.0,1.0,phase_1,,,,,,,,,,,,,white,I
49.0,5.0,0.5,1.0,3.0,3.0,353.0160396403516,3.0,1.0,phase_1,,,,,,,,,,,,,white,I
403.0,8.0,4.0,1.0,3.0,3.0,377.0044358279847,3.0,1.0,phase_1,,,,,,,,,,,,,cyan,hexagon
67.0,5.0,0.5,1.0,4.0,4.0,381.0155291012052,4.0,1.0,phase_1,,,,,,,,,,,,,white,I
0.0,4.0,0.0,0.0,3.0,3.0,315.6701441839686,4.0,1.0,phase_1,,,,,,,,,,,,,yellow,diamond
376.0,8.0,4.0,1.0,3.0,3.0,314.6390479141701,4.0,1.0,phase_1,,,,,,,,,,,,,cyan,hexagon
64.0,5.0,0.5,1.0,2.0,2.0,405.837746184261,4.0,1.0,phase_1,,,,,,,,,,,,,white,I
408.0,8.0,4.0,1.0,2.0,2.0,371.2500679121149,4.0,1.0,phase_1,,,,,,,,,,,,,cyan,hexagon
414.0,4.0,4.0,0.0,2.0,2.0,349.6371081837424,4.0,1.0,phase_1,,,,,,,,,,,,,yellow,diamond
190.0,3.0,2.0,0.0,4.0,4.0,416.9783368288335,4.0,1.0,phase_1,,,,,,,,,,,,,blue,circle
391.0,4.0,4.0,0.0,2.0,2.0,317.7362773694767,4.0,1.0,phase_1,,,,,,,,,,,,,yellow,diamond
102.0,2.0,1.0,0.0,1.0,1.0,430.2676385559607,4.0,1.0,phase_1,,,,,,,,,,,,,magenta,triangle
394.0,4.0,4.0,0.0,1.0,1.0,363.5308359134797,4.0,1.0,phase_1,,,,,,,,,,,,,yellow,diamond
49.0,1.0,0.5,0.0,1.0,1.0,365.3446597290894,4.0,1.0,phase_1,,,,,,,,,,,,,orange,cross
91.0,2.0,1.0,0.0,1.0,1.0,320.0924366410618,4.0,1.0,phase_1,,,,,,,,,,,,,magenta,triangle
0.0,5.0,0.0,1.0,1.0,1.0,309.9965797282493,4.0,1.0,phase_1,,,,,,,,,,,,,white,I
0.0,6.0,0.0,1.0,1.0,1.0,275.3195349996531,4.0,1.0,phase_1,,,,,,,,,,,,,green,flipped triangle
117.0,6.0,1.0,1.0,4.0,4.0,422.0308170006319,4.0,1.0,phase_1,,,,,,,,,,,,,green,flipped triangle
35.0,1.0,0.5,0.0,4.0,4.0,309.3098996414483,4.0,1.0,phase_1,,,,,,,,,,,,,orange,cross
424.0,4.0,4.0,0.0,1.0,1.0,366.7815767275897,4.0,1.0,phase_1,,,,,,,,,,,,,yellow,diamond
30.0,5.0,0.5,1.0,2.0,2.0,356.0991551858024,4.0,1.0,phase_1,,,,,,,,,,,,,white,I
95.0,2.0,1.0,0.0,1.0,1.0,322.6806601851422,4.0,1.0,phase_1,,,,,,,,,,,,,magenta,triangle
376.0,8.0,4.0,1.0,4.0,4.0,413.7535611862404,4.0,1.0,phase_1,,,,,,,,,,,,,cyan,hexagon
391.0,4.0,4.0,0.0,3.0,3.0,380.1551539145293,4.0,1.0,phase_1,,,,,,,,,,,,,yellow,diamond
206.0,3.0,2.0,0.0,4.0,4.0,312.8107284555881,4.0,1.0,phase_1,,,,,,,,,,,,,blue,circle
120.0,6.0,1.0,1.0,1.0,1.0,291.0761493694735,4.0,1.0,phase_1,,,,,,,,,,,,,green,flipped triangle
41.0,5.0,0.5,1.0,2.0,2.0,280.42603945687,4.0,1.0,phase_1,,,,,,,,,,,,,white,I
81.0,6.0,1.0,1.0,2.0,2.0,292.614642827175,4.0,1.0,phase_1,,,,,,,,,,,,,green,flipped triangle
36.0,5.0,0.5,1.0,2.0,2.0,326.4428573693294,4.0,1.0,phase_1,,,,,,,,,,,,,white,I
114.0,2.0,1.0,0.0,1.0,1.0,350.0618786420091,4.0,1.0,phase_1,,,,,,,,,,,,,magenta,triangle
120.0,6.0,1.0,1.0,4.0,4.0,408.0245968270901,4.0,1.0,phase_1,,,,,,,,,,,,,green,flipped triangle
75.0,6.0,1.0,1.0,4.0,4.0,340.0526037275995,4.0,1.0,phase_1,,,,,,,,,,,,,green,flipped triangle
0.0,1.0,0.0,0.0,2.0,2.0,319.2517161842261,4.0,1.0,phase_1,,,,,,,,,,,,,orange,cross
203.0,7.0,2.0,1.0,3.0,3.0,363.9637349133409,4.0,1.0,phase_1,,,,,,,,,,,,,gray,square
222.0,7.0,2.0,1.0,3.0,3.0,353.3190186426509,4.0,1.0,phase_1,,,,,,,,,,,,,gray,square
56.0,5.0,0.5,1.0,1.0,1.0,478.217764000874,4.0,1.0,phase_1,,,,,,,,,,,,,white,I
75.0,6.0,1.0,1.0,4.0,4.0,342.9674571852956,4.0,1.0,phase_1,,,,,,,,,,,,,green,flipped triangle
401.0,8.0,4.0,1.0,3.0,3.0,589.9893226414861,4.0,1.0,phase_1,,,,,,,,,,,,,cyan,hexagon
114.0,6.0,1.0,1.0,3.0,3.0,321.5920718284906,4.0,1.0,phase_1,,,,,,,,,,,,,green,flipped triangle
194.0,3.0,2.0,0.0,3.0,3.0,333.5113099128648,4.0,1.0,phase_1,,,,,,,,,,,,,blue,circle
376.0,4.0,4.0,0.0,4.0,4.0,343.8125376414973,4.0,1.0,phase_1,,,,,,,,,,,,,yellow,diamond
81.0,2.0,1.0,0.0,4.0,4.0,322.9755668271536,4.0,1.0,phase_1,,,,,,,,,,,,,magenta,triangle
388.0,4.0,4.0,0.0,4.0,4.0,289.4977799987828,4.0,1.0,phase_1,,,,,,,,,,,,,yellow,diamond
48.0,1.0,0.5,0.0,2.0,2.0,313.1356391859299,4.0,1.0,phase_1,,,,,,,,,,,,,orange,cross
188.0,3.0,2.0,0.0,4.0,4.0,334.8610421853664,4.0,1.0,phase_1,,,,,,,,,,,,,blue,circle
0.0,3.0,0.0,0.0,2.0,2.0,302.4230344562966,4.0,1.0,phase_1,,,,,,,,,,,,,blue,circle
423.0,8.0,4.0,1.0,4.0,4.0,303.0951374566939,4.0,1.0,phase_1,,,,,,,,,,,,,cyan,hexagon
194.0,7.0,2.0,1.0,1.0,1.0,314.7890754571563,4.0,1.0,phase_1,,,,,,,,,,,,,gray,square
399.0,4.0,4.0,0.0,3.0,3.0,349.9739231847343,4.0,1.0,phase_1,,,,,,,,,,,,,yellow,diamond
404.0,8.0,4.0,1.0,3.0,3.0,393.6110851864214,4.0,1.0,phase_1,,,,,,,,,,,,,cyan,hexagon
79.0,6.0,1.0,1.0,3.0,3.0,316.3885203703103,4.0,1.0,phase_1,,,,,,,,,,,,,green,flipped triangle
111.0,2.0,1.0,0.0,2.0,2.0,396.4482874562236,4.0,1.0,phase_1,,,,,,,,,,,,,magenta,triangle
37.0,1.0,0.5,0.0,3.0,3.0,318.4809866415889,4.0,1.0,phase_1,,,,,,,,,,,,,orange,cross
414.0,8.0,4.0,1.0,1.0,1.0,307.3502081842889,4.0,1.0,phase_1,,,,,,,,,,,,,cyan,hexagon
0.0,6.0,0.0,1.0,4.0,4.0,308.7453015577921,4.0,1.0,phase_1,,,,,,,,,,,,,green,flipped triangle
94.0,6.0,1.0,1.0,2.0,2.0,274.3193791848171,4.0,1.0,phase_1,,,,,,,,,,,,,green,flipped triangle
0.0,3.0,0.0,0.0,2.0,2.0,297.5833038290147,4.0,1.0,phase_1,,,,,,,,,,,,,blue,circle
205.0,7.0,2.0,1.0,4.0,4.0,332.4419991840841,4.0,1.0,phase_1,,,,,,,,,,,,,gray,square
417.0,8.0,4.0,1.0,3.0,3.0,353.9987009116885,4.0,1.0,phase_1,,,,,,,,,,,,,cyan,hexagon
0.0,1.0,0.0,0.0,2.0,2.0,322.1019441843964,4.0,1.0,phase_1,,,,,,,,,,,,,orange,cross
0.0,3.0,0.0,0.0,1.0,1.0,345.1604845577094,4.0,1.0,phase_1,,,,,,,,,,,,,blue,circle
388.0,4.0,4.0,0.0,3.0,3.0,311.5753729998687,4.0,1.0,phase_1,,,,,,,,,,,,,yellow,diamond
214.0,7.0,2.0,1.0,4.0,4.0,333.9448641854687,4.0,1.0,phase_1,,,,,,,,,,,,,gray,square
111.0,2.0,1.0,0.0,2.0,2.0,324.2968817285145,4.0,1.0,phase_1,,,,,,,,,,,,,magenta,triangle
388.0,8.0,4.0,1.0,2.0,2.0,325.4575193695928,4.0,1.0,phase_1,,,,,,,,,,,,,cyan,hexagon
0.0,4.0,0.0,0.0,3.0,3.0,290.0639771851274,4.0,1.0,phase_1,,,,,,,,,,,,,yellow,diamond
0.0,1.0,0.0,0.0,4.0,4.0,448.4484507283923,4.0,1.0,phase_1,,,,,,,,,,,,,orange,cross
115.0,6.0,1.0,1.0,4.0,4.0,336.9991440995363,4.0,1.0,phase_1,,,,,,,,,,,,,green,flipped triangle
195.0,7.0,2.0,1.0,3.0,3.0,359.6572144579113,4.0,1.0,phase_1,,,,,,,,,,,,,gray,square
0.0,5.0,0.0,1.0,2.0,2.0,417.1347296414751,4.0,1.0,phase_1,,,,,,,,,,,,,white,I
0.0,3.0,0.0,0.0,4.0,4.0,362.4185331009357,4.0,1.0,phase_1,,,,,,,,,,,,,blue,circle
388.0,8.0,4.0,1.0,3.0,3.0,282.6845051858981,4.0,1.0,phase_1,,,,,,,,,,,,,cyan,hexagon
75.0,2.0,1.0,0.0,2.0,2.0,283.5357544554426,4.0,1.0,phase_1,,,,,,,,,,,,,magenta,triangle
214.0,3.0,2.0,0.0,3.0,3.0,307.480992640194,4.0,1.0,phase_1,,,,,,,,,,,,,blue,circle
216.0,3.0,2.0,0.0,1.0,1.0,431.5690563707903,4.0,1.0,phase_1,,,,,,,,,,,,,blue,circle
0.0,1.0,0.0,0.0,3.0,3.0,441.8167449130123,4.0,1.0,phase_1,,,,,,,,,,,,,orange,cross
187.0,3.0,2.0,0.0,4.0,4.0,332.0127160004631,4.0,1.0,phase_1,,,,,,,,,,,,,blue,circle
0.0,5.0,0.0,1.0,1.0,1.0,332.6987546424789,4.0,1.0,phase_1,,,,,,,,,,,,,white,I
0.0,8.0,0.0,1.0,4.0,4.0,320.7052079997083,4.0,1.0,phase_1,,,,,,,,,,,,,cyan,hexagon
123.0,6.0,1.0,1.0,1.0,1.0,377.9816113692504,4.0,1.0,phase_1,,,,,,,,,,,,,green,flipped triangle
420.0,8.0,4.0,1.0,2.0,2.0,390.0095371009229,4.0,1.0,phase_1,,,,,,,,,,,,,cyan,hexagon
194.0,3.0,2.0,0.0,1.0,1.0,301.7228404569323,4.0,1.0,phase_1,,,,,,,,,,,,,blue,circle
0.0,7.0,0.0,1.0,1.0,1.0,548.0348486416915,4.0,1.0,phase_1,,,,,,,,,,,,,gray,square
222.0,3.0,2.0,0.0,1.0,1.0,323.4794434556534,4.0,1.0,phase_1,,,,,,,,,,,,,blue,circle
81.0,6.0,1.0,1.0,2.0,2.0,325.7439557273756,4.0,1.0,phase_1,,,,,,,,,,,,,green,flipped triangle
58.0,1.0,0.5,0.0,1.0,1.0,313.4777961859072,4.0,1.0,phase_1,,,,,,,,,,,,,orange,cross
183.0,7.0,2.0,1.0,4.0,4.0,324.4972389129543,4.0,1.0,phase_1,,,,,,,,,,,,,gray,square
58.0,1.0,0.5,0.0,3.0,3.0,359.6697457287519,4.0,1.0,phase_1,,,,,,,,,,,,,orange,cross
179.0,3.0,2.0,0.0,4.0,4.0,325.7037631847197,4.0,1.0,phase_1,,,,,,,,,,,,,blue,circle
0.0,6.0,0.0,1.0,1.0,1.0,316.2750191004306,4.0,1.0,phase_1,,,,,,,,,,,,,green,flipped triangle
0.0,7.0,0.0,1.0,1.0,1.0,349.9170141858485,4.0,1.0,phase_1,,,,,,,,,,,,,gray,square
72.0,5.0,0.5,1.0,4.0,4.0,361.4688166417181,4.0,1.0,phase_1,,,,,,,,,,,,,white,I
44.0,5.0,0.5,1.0,4.0,4.0,306.2403534549958,4.0,1.0,phase_1,,,,,,,,,,,,,white,I
69.0,5.0,0.5,1.0,2.0,2.0,419.3628951852588,4.0,1.0,phase_1,,,,,,,,,,,,,white,I
0.0,2.0,0.0,0.0,2.0,2.0,554.8424381013319,4.0,1.0,phase_1,,,,,,,,,,,,,magenta,triangle
0.0,6.0,0.0,1.0,4.0,4.0,296.2428500995884,4.0,1.0,phase_1,,,,,,,,,,,,,green,flipped triangle
79.0,6.0,1.0,1.0,3.0,3.0,342.0063063695124,4.0,1.0,phase_1,,,,,,,,,,,,,green,flipped triangle
220.0,3.0,2.0,0.0,3.0,3.0,321.1943131846055,4.0,1.0,phase_1,,,,,,,,,,,,,blue,circle
0.0,2.0,0.0,0.0,1.0,1.0,342.8237916414218,4.0,1.0,phase_1,,,,,,,,,,,,,magenta,triangle
39.0,5.0,0.5,1.0,3.0,3.0,365.8760360995075,4.0,1.0,phase_1,,,,,,,,,,,,,white,I
207.0,7.0,2.0,1.0,1.0,1.0,355.5421640994609,4.0,1.0,phase_1,,,,,,,,,,,,,gray,square
63.0,5.0,0.5,1.0,3.0,3.0,367.1677847287355,4.0,1.0,phase_1,,,,,,,,,,,,,white,I
49.0,5.0,0.5,1.0,3.0,3.0,333.1406279121438,4.0,1.0,phase_1,,,,,,,,,,,,,white,I
0.0,5.0,0.5,1.0,5.0,5.0,801.3585122916993,1.0,1.0,phase_2,go,250.0,250.0,1.0,,,,,,,,,white,I
0.0,3.0,2.0,0.0,5.0,5.0,599.1186522915086,1.0,1.0,phase_2,go,250.0,250.0,1.0,,,,,,,,,blue,circle
0.0,4.0,4.0,0.0,6.0,6.0,589.2899670143379,1.0,1.0,phase_2,go,250.0,250.0,1.0,,,,,,,,,yellow,diamond
0.0,1.0,0.5,0.0,6.0,6.0,543.8557681445673,1.0,1.0,phase_2,go,250.0,250.0,1.0,,,,,,,,,orange,cross
0.0,8.0,4.0,1.0,6.0,0.0,0.0,1.0,1.0,phase_2,stop,250.0,250.0,4.0,,,,,,,,,cyan,hexagon
0.0,3.0,2.0,0.0,5.0,5.0,433.3486214345612,1.0,1.0,phase_2,go,250.0,300.0,1.0,,,,,,,,,blue,circle
0.0,1.0,0.5,0.0,6.0,6.0,726.670625159386,1.0,1.0,phase_2,go,250.0,300.0,1.0,,,,,,,,,orange,cross
0.0,1.0,0.5,0.0,6.0,6.0,773.4964251594647,1.0,1.0,phase_2,go,250.0,300.0,1.0,,,,,,,,,orange,cross
0.0,2.0,1.0,0.0,5.0,5.0,909.1952500148182,1.0,1.0,phase_2,go,250.0,300.0,1.0,,,,,,,,,magenta,triangle
0.0,6.0,1.0,1.0,5.0,0.0,0.0,1.0,1.0,phase_2,stop,250.0,300.0,4.0,,,,,,,,,green,flipped triangle
0.0,2.0,1.0,0.0,5.0,5.0,617.72885686878,1.0,1.0,phase_2,go,300.0,300.0,1.0,,,,,,,,,magenta,triangle
0.0,8.0,4.0,1.0,6.0,0.0,0.0,1.0,1.0,phase_2,stop,300.0,300.0,4.0,,,,,,,,,cyan,hexagon
0.0,8.0,4.0,1.0,5.0,5.0,337.793503436842,1.0,1.0,phase_2,stop,300.0,350.0,3.0,,,,,,,,,cyan,hexagon
0.0,4.0,4.0,0.0,5.0,5.0,688.4489891453995,1.0,1.0,phase_2,go,250.0,350.0,1.0,,,,,,,,,yellow,diamond
0.0,6.0,1.0,1.0,5.0,0.0,0.0,1.0,1.0,phase_2,stop,250.0,350.0,4.0,,,,,,,,,green,flipped triangle
0.0,4.0,4.0,0.0,5.0,5.0,834.9274040010641,1.0,1.0,phase_2,go,300.0,350.0,1.0,,,,,,,,,yellow,diamond
0.0,3.0,2.0,0.0,6.0,6.0,577.4050364343566,1.0,1.0,phase_2,go,300.0,350.0,1.0,,,,,,,,,blue,circle
0.0,2.0,1.0,0.0,5.0,5.0,623.4135877239169,1.0,1.0,phase_2,go,300.0,350.0,1.0,,,,,,,,,magenta,triangle
0.0,7.0,2.0,1.0,5.0,5.0,692.6779901586997,1.0,1.0,phase_2,go,300.0,350.0,1.0,,,,,,,,,gray,square
0.0,7.0,2.0,1.0,6.0,0.0,0.0,1.0,1.0,phase_2,stop,300.0,350.0,4.0,,,,,,,,,gray,square
0.0,8.0,4.0,1.0,5.0,0.0,0.0,1.0,1.0,phase_2,stop,300.0,400.0,4.0,,,,,,,,,cyan,hexagon
0.0,2.0,1.0,0.0,6.0,6.0,538.2771062904794,1.0,1.0,phase_2,go,350.0,400.0,1.0,,,,,,,,,magenta,triangle
0.0,1.0,0.5,0.0,5.0,5.0,639.4970438705059,1.0,1.0,phase_2,go,350.0,400.0,1.0,,,,,,,,,orange,cross
0.0,5.0,0.5,1.0,6.0,0.0,0.0,1.0,1.0,phase_2,stop,350.0,400.0,4.0,,,,,,,,,white,I
0.0,1.0,0.5,0.0,5.0,5.0,663.7950802905834,1.0,1.0,phase_2,go,350.0,450.0,1.0,,,,,,,,,orange,cross
0.0,1.0,0.5,0.0,6.0,6.0,764.4514485800755,1.0,1.0,phase_2,go,350.0,450.0,1.0,,,,,,,,,orange,cross
0.0,4.0,4.0,0.0,5.0,5.0,654.2870104349277,1.0,1.0,phase_2,go,350.0,450.0,1.0,,,,,,,,,yellow,diamond
0.0,2.0,1.0,0.0,6.0,6.0,677.1334931581805,1.0,1.0,phase_2,go,350.0,450.0,1.0,,,,,,,,,magenta,triangle
0.0,2.0,1.0,0.0,6.0,6.0,700.1103965794755,1.0,1.0,phase_2,go,350.0,450.0,1.0,,,,,,,,,magenta,triangle
0.0,1.0,0.5,0.0,5.0,5.0,668.4362251453422,1.0,1.0,phase_2,go,350.0,450.0,1.0,,,,,,,,,orange,cross
0.0,4.0,4.0,0.0,5.0,5.0,701.602784143688,1.0,1.0,phase_2,go,350.0,450.0,1.0,,,,,,,,,yellow,diamond
0.0,5.0,0.5,1.0,5.0,0.0,0.0,1.0,1.0,phase_2,stop,350.0,450.0,4.0,,,,,,,,,white,I
0.0,4.0,4.0,0.0,6.0,6.0,590.0897138690198,1.0,1.0,phase_2,go,400.0,450.0,1.0,,,,,,,,,yellow,diamond
0.0,3.0,2.0,0.0,6.0,6.0,569.1327985787211,1.0,1.0,phase_2,go,400.0,450.0,1.0,,,,,,,,,blue,circle
0.0,8.0,4.0,1.0,5.0,0.0,0.0,1.0,1.0,phase_2,stop,400.0,450.0,4.0,,,,,,,,,cyan,hexagon
0.0,5.0,0.5,1.0,5.0,0.0,0.0,1.0,1.0,phase_2,stop,450.0,450.0,4.0,,,,,,,,,white,I
0.0,1.0,0.5,0.0,5.0,5.0,462.6338115795079,2.0,1.0,phase_2,go,500.0,450.0,1.0,,,,,,,,,orange,cross
0.0,3.0,2.0,0.0,6.0,6.0,407.0248351454211,2.0,1.0,phase_2,go,500.0,450.0,1.0,,,,,,,,,blue,circle
0.0,4.0,4.0,0.0,5.0,5.0,420.2270500136364,2.0,1.0,phase_2,go,500.0,450.0,1.0,,,,,,,,,yellow,diamond
0.0,6.0,1.0,1.0,6.0,6.0,340.6355217230157,2.0,1.0,phase_2,stop,500.0,450.0,3.0,,,,,,,,,green,flipped triangle
0.0,2.0,1.0,0.0,5.0,5.0,477.0637080146116,2.0,1.0,phase_2,go,500.0,400.0,1.0,,,,,,,,,magenta,triangle
0.0,1.0,0.5,0.0,6.0,6.0,477.8022847240208,2.0,1.0,phase_2,go,500.0,400.0,1.0,,,,,,,,,orange,cross
0.0,5.0,0.5,1.0,5.0,5.0,602.3579392913234,2.0,1.0,phase_2,stop,500.0,400.0,3.0,,,,,,,,,white,I
0.0,4.0,4.0,0.0,5.0,5.0,658.912461145519,2.0,1.0,phase_2,go,450.0,400.0,1.0,,,,,,,,,yellow,diamond
0.0,3.0,2.0,0.0,5.0,5.0,717.5734764350636,2.0,1.0,phase_2,go,450.0,400.0,1.0,,,,,,,,,blue,circle
0.0,7.0,2.0,1.0,5.0,0.0,0.0,2.0,1.0,phase_2,stop,450.0,400.0,4.0,,,,,,,,,gray,square
0.0,6.0,1.0,1.0,5.0,5.0,572.1593148700777,2.0,1.0,phase_2,stop,500.0,400.0,3.0,,,,,,,,,green,flipped triangle
0.0,3.0,2.0,0.0,6.0,6.0,629.8275662902597,2.0,1.0,phase_2,go,450.0,400.0,1.0,,,,,,,,,blue,circle
0.0,8.0,4.0,1.0,6.0,0.0,0.0,2.0,1.0,phase_2,stop,450.0,400.0,4.0,,,,,,,,,cyan,hexagon
0.0,8.0,4.0,1.0,6.0,0.0,0.0,2.0,1.0,phase_2,stop,450.0,450.0,4.0,,,,,,,,,cyan,hexagon
0.0,2.0,1.0,0.0,5.0,5.0,779.0563692906289,2.0,1.0,phase_2,go,450.0,500.0,1.0,,,,,,,,,magenta,triangle
0.0,5.0,0.5,1.0,6.0,0.0,0.0,2.0,1.0,phase_2,stop,450.0,500.0,4.0,,,,,,,,,white,I
0.0,7.0,2.0,1.0,5.0,0.0,0.0,2.0,1.0,phase_2,stop,450.0,550.0,4.0,,,,,,,,,gray,square
0.0,4.0,4.0,0.0,6.0,6.0,567.4010991442628,2.0,1.0,phase_2,go,500.0,550.0,1.0,,,,,,,,,yellow,diamond
0.0,6.0,1.0,1.0,6.0,0.0,0.0,2.0,1.0,phase_2,stop,500.0,550.0,4.0,,,,,,,,,green,flipped triangle
0.0,3.0,2.0,0.0,5.0,5.0,714.626551434776,2.0,1.0,phase_2,go,500.0,600.0,1.0,,,,,,,,,blue,circle
0.0,7.0,2.0,1.0,5.0,5.0,771.6628328707884,2.0,1.0,phase_2,go,500.0,600.0,1.0,,,,,,,,,gray,square
0.0,7.0,2.0,1.0,5.0,0.0,0.0,2.0,1.0,phase_2,stop,500.0,600.0,4.0,,,,,,,,,gray,square
0.0,7.0,2.0,1.0,6.0,6.0,705.481070710448,2.0,1.0,phase_2,go,550.0,600.0,1.0,,,,,,,,,gray,square
0.0,1.0,0.5,0.0,6.0,6.0,650.6117164335592,2.0,1.0,phase_2,go,550.0,600.0,1.0,,,,,,,,,orange,cross
0.0,7.0,2.0,1.0,5.0,5.0,652.3522357092588,2.0,1.0,phase_2,stop,550.0,600.0,3.0,,,,,,,,,gray,square
0.0,8.0,4.0,1.0,5.0,5.0,573.0325698568777,2.0,1.0,phase_2,stop,500.0,600.0,3.0,,,,,,,,,cyan,hexagon
0.0,3.0,2.0,0.0,5.0,5.0,608.6592404353723,2.0,1.0,phase_2,go,450.0,600.0,1.0,,,,,,,,,blue,circle
0.0,2.0,1.0,0.0,6.0,6.0,981.6283027248572,2.0,1.0,phase_2,go,450.0,600.0,1.0,,,,,,,,,magenta,triangle
0.0,5.0,0.5,1.0,5.0,0.0,0.0,2.0,1.0,phase_2,stop,450.0,600.0,4.0,,,,,,,,,white,I
0.0,8.0,4.0,1.0,6.0,6.0,362.8091721438977,2.0,1.0,phase_2,stop,500.0,600.0,3.0,,,,,,,,,cyan,hexagon
0.0,1.0,0.5,0.0,6.0,6.0,792.4067994335928,2.0,1.0,phase_2,go,500.0,550.0,1.0,,,,,,,,,orange,cross
0.0,8.0,4.0,1.0,5.0,0.0,0.0,2.0,1.0,phase_2,stop,500.0,550.0,4.0,,,,,,,,,cyan,hexagon
0.0,1.0,0.5,0.0,6.0,6.0,647.8400207088271,2.0,1.0,phase_2,go,550.0,550.0,1.0,,,,,,,,,orange,cross
0.0,4.0,4.0,0.0,6.0,6.0,829.0327668546524,2.0,1.0,phase_2,go,550.0,550.0,1.0,,,,,,,,,yellow,diamond
0.0,1.0,0.5,0.0,5.0,5.0,591.625130000466,2.0,1.0,phase_2,go,550.0,550.0,1.0,,,,,,,,,orange,cross
0.0,8.0,4.0,1.0,6.0,0.0,0.0,2.0,1.0,phase_2,stop,550.0,550.0,4.0,,,,,,,,,cyan,hexagon
0.0,7.0,2.0,1.0,6.0,6.0,584.5521714345523,3.0,1.0,phase_2,stop,550.0,600.0,3.0,,,,,,,,,gray,square
0.0,8.0,4.0,1.0,6.0,6.0,529.746604290267,3.0,1.0,phase_2,stop,550.0,550.0,3.0,,,,,,,,,cyan,hexagon
0.0,2.0,1.0,0.0,5.0,5.0,688.0245800148259,3.0,1.0,phase_2,go,550.0,500.0,1.0,,,,,,,,,magenta,triangle
0.0,1.0,0.5,0.0,5.0,5.0,621.5996662922407,3.0,1.0,phase_2,go,550.0,500.0,1.0,,,,,,,,,orange,cross
0.0,6.0,1.0,1.0,6.0,6.0,599.1716388707573,3.0,1.0,phase_2,stop,550.0,500.0,3.0,,,,,,,,,green,flipped triangle
0.0,8.0,4.0,1.0,5.0,0.0,0.0,3.0,1.0,phase_2,stop,550.0,450.0,4.0,,,,,,,,,cyan,hexagon
0.0,2.0,1.0,0.0,6.0,6.0,725.9612935795303,3.0,1.0,phase_2,go,600.0,450.0,1.0,,,,,,,,,magenta,triangle
0.0,6.0,1.0,1.0,5.0,0.0,0.0,3.0,1.0,phase_2,stop,600.0,450.0,4.0,,,,,,,,,green,flipped triangle
0.0,8.0,4.0,1.0,6.0,6.0,772.0927262907935,3.0,1.0,phase_2,go,650.0,450.0,1.0,,,,,,,,,cyan,hexagon
0.0,4.0,4.0,0.0,6.0,6.0,727.7470667249872,3.0,1.0,phase_2,go,650.0,450.0,1.0,,,,,,,,,yellow,diamond
0.0,8.0,4.0,1.0,5.0,5.0,683.8389434342389,3.0,1.0,phase_2,go,650.0,450.0,1.0,,,,,,,,,cyan,hexagon
0.0,4.0,4.0,0.0,5.0,5.0,762.4048854340799,3.0,1.0,phase_2,go,650.0,450.0,1.0,,,,,,,,,yellow,diamond
0.0,1.0,0.5,0.0,5.0,5.0,661.9305790009093,3.0,1.0,phase_2,go,650.0,450.0,1.0,,,,,,,,,orange,cross
0.0,7.0,2.0,1.0,5.0,5.0,752.8342767254799,3.0,1.0,phase_2,stop,650.0,450.0,3.0,,,,,,,,,gray,square
0.0,6.0,1.0,1.0,5.0,0.0,0.0,3.0,1.0,phase_2,stop,600.0,450.0,4.0,,,,,,,,,green,flipped triangle
0.0,4.0,4.0,0.0,6.0,6.0,879.853129870753,3.0,1.0,phase_2,go,650.0,450.0,1.0,,,,,,,,,yellow,diamond
0.0,5.0,0.5,1.0,6.0,0.0,0.0,3.0,1.0,phase_2,stop,650.0,450.0,4.0,,,,,,,,,white,I
0.0,6.0,1.0,1.0,5.0,5.0,609.522336289956,3.0,1.0,phase_2,stop,650.0,500.0,3.0,,,,,,,,,green,flipped triangle
0.0,2.0,1.0,0.0,6.0,6.0,778.9539991445054,3.0,1.0,phase_2,go,600.0,500.0,1.0,,,,,,,,,magenta,triangle
0.0,7.0,2.0,1.0,6.0,0.0,0.0,3.0,1.0,phase_2,stop,600.0,500.0,4.0,,,,,,,,,gray,square
0.0,4.0,4.0,0.0,6.0,6.0,826.4691168697027,3.0,1.0,phase_2,go,600.0,550.0,1.0,,,,,,,,,yellow,diamond
0.0,5.0,0.5,1.0,5.0,0.0,0.0,3.0,1.0,phase_2,stop,600.0,550.0,4.0,,,,,,,,,white,I
0.0,3.0,2.0,0.0,5.0,5.0,694.637284579585,3.0,1.0,phase_2,go,650.0,550.0,1.0,,,,,,,,,blue,circle
0.0,6.0,1.0,1.0,5.0,5.0,884.9757778698404,3.0,1.0,phase_2,go,650.0,550.0,1.0,,,,,,,,,green,flipped triangle
0.0,7.0,2.0,1.0,5.0,5.0,761.7781517237745,3.0,1.0,phase_2,stop,650.0,550.0,3.0,,,,,,,,,gray,square
0.0,8.0,4.0,1.0,5.0,5.0,706.5526160004083,3.0,1.0,phase_2,go,600.0,550.0,1.0,,,,,,,,,cyan,hexagon
0.0,3.0,2.0,0.0,5.0,5.0,381.368928723532,3.0,1.0,phase_2,go,600.0,550.0,1.0,,,,,,,,,blue,circle
0.0,8.0,4.0,1.0,6.0,0.0,0.0,3.0,1.0,phase_2,stop,600.0,550.0,4.0,,,,,,,,,cyan,hexagon
0.0,4.0,4.0,0.0,6.0,6.0,832.549691434906,3.0,1.0,phase_2,go,600.0,600.0,1.0,,,,,,,,,yellow,diamond
0.0,7.0,2.0,1.0,5.0,5.0,890.3458401437092,3.0,1.0,phase_2,go,600.0,600.0,1.0,,,,,,,,,gray,square
0.0,3.0,2.0,0.0,6.0,6.0,778.4683631452936,3.0,1.0,phase_2,go,600.0,600.0,1.0,,,,,,,,,blue,circle
0.0,7.0,2.0,1.0,6.0,0.0,0.0,3.0,1.0,phase_2,stop,600.0,600.0,4.0,,,,,,,,,gray,square
0.0,3.0,2.0,0.0,5.0,5.0,691.2625995810231,3.0,1.0,phase_2,go,600.0,650.0,1.0,,,,,,,,,blue,circle
0.0,6.0,1.0,1.0,5.0,5.0,712.9247860139003,3.0,1.0,phase_2,stop,600.0,650.0,3.0,,,,,,,,,green,flipped triangle
0.0,7.0,2.0,1.0,6.0,0.0,0.0,3.0,1.0,phase_2,stop,550.0,650.0,4.0,,,,,,,,,gray,square
0.0,6.0,1.0,1.0,5.0,5.0,1121.537023158453,3.0,1.0,phase_2,go,550.0,700.0,1.0,,,,,,,,,green,flipped triangle
0.0,8.0,4.0,1.0,6.0,6.0,401.3087933944916,4.0,1.0,phase_2,go,550.0,700.0,1.0,,,,,,,,,cyan,hexagon
0.0,1.0,0.5,0.0,6.0,6.0,322.1805812918319,4.0,1.0,phase_2,go,550.0,700.0,1.0,,,,,,,,,orange,cross
0.0,3.0,2.0,0.0,5.0,5.0,627.6277801589458,4.0,1.0,phase_2,go,550.0,700.0,1.0,,,,,,,,,blue,circle
0.0,2.0,1.0,0.0,5.0,5.0,728.5152088716131,4.0,1.0,phase_2,go,550.0,700.0,1.0,,,,,,,,,magenta,triangle
0.0,6.0,1.0,1.0,6.0,6.0,482.7501094350737,4.0,1.0,phase_2,stop,550.0,700.0,3.0,,,,,,,,,green,flipped triangle
0.0,3.0,2.0,0.0,6.0,6.0,482.0089671447931,4.0,1.0,phase_2,go,550.0,650.0,1.0,,,,,,,,,blue,circle
0.0,7.0,2.0,1.0,6.0,0.0,0.0,4.0,1.0,phase_2,stop,550.0,650.0,4.0,,,,,,,,,gray,square
0.0,3.0,2.0,0.0,5.0,5.0,720.3536844353948,4.0,1.0,phase_2,go,550.0,700.0,1.0,,,,,,,,,blue,circle
0.0,1.0,0.5,0.0,6.0,6.0,654.186899870183,4.0,1.0,phase_2,go,550.0,700.0,1.0,,,,,,,,,orange,cross
0.0,2.0,1.0,0.0,6.0,6.0,599.7242967241618,4.0,1.0,phase_2,go,550.0,700.0,1.0,,,,,,,,,magenta,triangle
0.0,3.0,2.0,0.0,5.0,5.0,510.52374714527105,4.0,1.0,phase_2,go,550.0,700.0,1.0,,,,,,,,,blue,circle
0.0,8.0,4.0,1.0,5.0,5.0,499.1209700001491,4.0,1.0,phase_2,stop,550.0,700.0,3.0,,,,,,,,,cyan,hexagon
0.0,5.0,0.5,1.0,5.0,0.0,0.0,4.0,1.0,phase_2,stop,500.0,700.0,4.0,,,,,,,,,white,I
0.0,5.0,0.5,1.0,5.0,0.0,0.0,4.0,1.0,phase_2,stop,550.0,700.0,4.0,,,,,,,,,white,I
0.0,4.0,4.0,0.0,6.0,6.0,671.0362888698,4.0,1.0,phase_2,go,600.0,700.0,1.0,,,,,,,,,yellow,diamond
0.0,3.0,2.0,0.0,5.0,5.0,525.1724850149913,4.0,1.0,phase_2,go,600.0,700.0,1.0,,,,,,,,,blue,circle
0.0,2.0,1.0,0.0,6.0,6.0,638.3092808700894,4.0,1.0,phase_2,go,600.0,700.0,1.0,,,,,,,,,magenta,triangle
0.0,2.0,1.0,0.0,6.0,6.0,380.5292531596933,4.0,1.0,phase_2,go,600.0,700.0,1.0,,,,,,,,,magenta,triangle
0.0,2.0,1.0,0.0,6.0,6.0,414.3591074353026,4.0,1.0,phase_2,go,600.0,700.0,1.0,,,,,,,,,magenta,triangle
0.0,5.0,0.5,1.0,6.0,0.0,0.0,4.0,1.0,phase_2,stop,600.0,700.0,4.0,,,,,,,,,white,I
0.0,1.0,0.5,0.0,6.0,6.0,540.8923454342585,4.0,1.0,phase_2,go,600.0,750.0,1.0,,,,,,,,,orange,cross
0.0,5.0,0.5,1.0,6.0,0.0,0.0,4.0,1.0,phase_2,stop,600.0,750.0,4.0,,,,,,,,,white,I
0.0,6.0,1.0,1.0,5.0,5.0,924.0005838710204,4.0,1.0,phase_2,go,600.0,800.0,1.0,,,,,,,,,green,flipped triangle
0.0,1.0,0.5,0.0,5.0,5.0,587.7073331448628,4.0,1.0,phase_2,go,600.0,800.0,1.0,,,,,,,,,orange,cross
0.0,2.0,1.0,0.0,6.0,6.0,521.9657221441594,4.0,1.0,phase_2,go,600.0,800.0,1.0,,,,,,,,,magenta,triangle
0.0,3.0,2.0,0.0,5.0,5.0,476.5351678688603,4.0,1.0,phase_2,go,600.0,800.0,1.0,,,,,,,,,blue,circle
0.0,6.0,1.0,1.0,6.0,6.0,927.4995131454488,4.0,1.0,phase_2,stop,600.0,800.0,3.0,,,,,,,,,green,flipped triangle
0.0,5.0,0.5,1.0,5.0,0.0,0.0,4.0,1.0,phase_2,stop,600.0,750.0,4.0,,,,,,,,,white,I
0.0,1.0,0.5,0.0,5.0,5.0,546.305138435855,4.0,1.0,phase_2,go,650.0,750.0,1.0,,,,,,,,,orange,cross
0.0,6.0,1.0,1.0,5.0,0.0,0.0,4.0,1.0,phase_2,stop,650.0,750.0,4.0,,,,,,,,,green,flipped triangle
0.0,4.0,4.0,0.0,5.0,5.0,615.7778764336399,4.0,1.0,phase_2,go,700.0,750.0,1.0,,,,,,,,,yellow,diamond
0.0,6.0,1.0,1.0,6.0,6.0,1102.0485667231696,4.0,1.0,phase_2,go,700.0,750.0,1.0,,,,,,,,,green,flipped triangle
0.0,1.0,0.5,0.0,5.0,5.0,662.2964748694358,4.0,1.0,phase_2,go,700.0,750.0,1.0,,,,,,,,,orange,cross
0.0,8.0,4.0,1.0,5.0,5.0,562.3807764350204,4.0,1.0,phase_2,stop,700.0,750.0,3.0,,,,,,,,,cyan,hexagon
0.0,2.0,1.0,0.0,6.0,6.0,540.6060165787494,4.0,1.0,phase_2,go,650.0,750.0,1.0,,,,,,,,,magenta,triangle
0.0,4.0,4.0,0.0,5.0,5.0,496.3838784351537,4.0,1.0,phase_2,go,650.0,750.0,1.0,,,,,,,,,yellow,diamond
0.0,7.0,2.0,1.0,5.0,0.0,0.0,5.0,1.0,phase_2,stop,650.0,750.0,4.0,,,,,,,,,gray,square
0.0,3.0,2.0,0.0,6.0,6.0,508.30610643424734,5.0,1.0,phase_2,go,700.0,750.0,1.0,,,,,,,,,blue,circle
0.0,6.0,1.0,1.0,5.0,0.0,0.0,5.0,1.0,phase_2,stop,700.0,750.0,4.0,,,,,,,,,green,flipped triangle
0.0,4.0,4.0,0.0,5.0,5.0,498.1797424352407,5.0,1.0,phase_2,go,750.0,750.0,1.0,,,,,,,,,yellow,diamond
0.0,4.0,4.0,0.0,6.0,6.0,522.6036021595064,5.0,1.0,phase_2,go,750.0,750.0,1.0,,,,,,,,,yellow,diamond
0.0,2.0,1.0,0.0,5.0,5.0,510.6897737241525,5.0,1.0,phase_2,go,750.0,750.0,1.0,,,,,,,,,magenta,triangle
0.0,4.0,4.0,0.0,6.0,6.0,477.8248165785044,5.0,1.0,phase_2,go,750.0,750.0,1.0,,,,,,,,,yellow,diamond
0.0,2.0,1.0,0.0,5.0,5.0,512.7799127239996,5.0,1.0,phase_2,go,750.0,750.0,1.0,,,,,,,,,magenta,triangle
0.0,6.0,1.0,1.0,6.0,0.0,0.0,5.0,1.0,phase_2,stop,750.0,750.0,4.0,,,,,,,,,green,flipped triangle
0.0,4.0,4.0,0.0,5.0,5.0,492.4164803032909,5.0,1.0,phase_2,go,750.0,800.0,1.0,,,,,,,,,yellow,diamond
0.0,5.0,0.5,1.0,5.0,5.0,1056.4716999997472,5.0,1.0,phase_2,go,750.0,800.0,1.0,,,,,,,,,white,I
0.0,8.0,4.0,1.0,5.0,0.0,0.0,5.0,1.0,phase_2,stop,750.0,800.0,4.0,,,,,,,,,cyan,hexagon
0.0,2.0,1.0,0.0,5.0,5.0,472.6762451573449,5.0,1.0,phase_2,go,800.0,800.0,1.0,,,,,,,,,magenta,triangle
0.0,4.0,4.0,0.0,6.0,6.0,484.6316391594882,5.0,1.0,phase_2,go,800.0,800.0,1.0,,,,,,,,,yellow,diamond
0.0,7.0,2.0,1.0,6.0,6.0,1026.5095593022124,5.0,1.0,phase_2,go,800.0,800.0,1.0,,,,,,,,,gray,square
0.0,6.0,1.0,1.0,5.0,0.0,0.0,5.0,1.0,phase_2,stop,800.0,800.0,4.0,,,,,,,,,green,flipped triangle
0.0,3.0,2.0,0.0,6.0,6.0,520.3851124351786,5.0,1.0,phase_2,go,850.0,800.0,1.0,,,,,,,,,blue,circle
0.0,5.0,0.5,1.0,5.0,5.0,1083.861429580793,5.0,1.0,phase_2,go,850.0,800.0,1.0,,,,,,,,,white,I
0.0,6.0,1.0,1.0,6.0,6.0,927.16189701423,5.0,1.0,phase_2,stop,850.0,800.0,3.0,,,,,,,,,green,flipped triangle
0.0,3.0,2.0,0.0,5.0,5.0,513.0630470157485,5.0,1.0,phase_2,go,850.0,750.0,1.0,,,,,,,,,blue,circle
0.0,1.0,0.5,0.0,5.0,5.0,513.7449955782358,5.0,1.0,phase_2,go,850.0,750.0,1.0,,,,,,,,,orange,cross
0.0,5.0,0.5,1.0,6.0,0.0,0.0,5.0,1.0,phase_2,stop,850.0,750.0,4.0,,,,,,,,,white,I
0.0,1.0,0.5,0.0,6.0,6.0,581.4365395799541,5.0,1.0,phase_2,go,850.0,800.0,1.0,,,,,,,,,orange,cross
0.0,7.0,2.0,1.0,5.0,5.0,1133.7911101454663,5.0,1.0,phase_2,go,850.0,800.0,1.0,,,,,,,,,gray,square
0.0,6.0,1.0,1.0,6.0,0.0,0.0,5.0,1.0,phase_2,stop,850.0,800.0,4.0,,,,,,,,,green,flipped triangle
0.0,7.0,2.0,1.0,5.0,0.0,0.0,5.0,1.0,phase_2,stop,850.0,850.0,4.0,,,,,,,,,gray,square
0.0,1.0,0.5,0.0,6.0,6.0,562.3603107251256,5.0,1.0,phase_2,go,900.0,850.0,1.0,,,,,,,,,orange,cross
0.0,1.0,0.5,0.0,5.0,5.0,540.9828397241654,5.0,1.0,phase_2,go,900.0,850.0,1.0,,,,,,,,,orange,cross
0.0,5.0,0.5,1.0,5.0,5.0,1137.5277741590253,5.0,1.0,phase_2,go,900.0,850.0,1.0,,,,,,,,,white,I
0.0,5.0,0.5,1.0,6.0,0.0,0.0,5.0,1.0,phase_2,stop,900.0,850.0,4.0,,,,,,,,,white,I
0.0,5.0,0.5,1.0,6.0,6.0,1342.3329477536754,5.0,1.0,phase_2,go,900.0,900.0,1.0,,,,,,,,,white,I
0.0,7.0,2.0,1.0,6.0,0.0,0.0,5.0,1.0,phase_2,stop,900.0,900.0,4.0,,,,,,,,,gray,square
0.0,7.0,2.0,1.0,5.0,5.0,1041.493413000353,5.0,1.0,phase_2,go,900.0,950.0,1.0,,,,,,,,,gray,square
0.0,3.0,2.0,0.0,5.0,5.0,557.583125144447,5.0,1.0,phase_2,go,900.0,950.0,1.0,,,,,,,,,blue,circle
0.0,5.0,0.5,1.0,6.0,6.0,1065.5441745802818,5.0,1.0,phase_2,go,900.0,950.0,1.0,,,,,,,,,white,I
0.0,5.0,0.5,1.0,6.0,0.0,0.0,5.0,1.0,phase_2,stop,900.0,950.0,4.0,,,,,,,,,white,I
0.0,2.0,1.0,0.0,5.0,5.0,504.39116014422325,6.0,1.0,phase_2,go,900.0,1000.0,1.0,,,,,,,,,magenta,triangle
0.0,2.0,1.0,0.0,5.0,5.0,326.2019512894767,6.0,1.0,phase_2,go,900.0,1000.0,1.0,,,,,,,,,magenta,triangle
0.0,3.0,2.0,0.0,6.0,6.0,438.2362328706222,6.0,1.0,phase_2,go,900.0,1000.0,1.0,,,,,,,,,blue,circle
0.0,7.0,2.0,1.0,5.0,5.0,945.8572021449072,6.0,1.0,phase_2,stop,900.0,1000.0,3.0,,,,,,,,,gray,square
0.0,4.0,4.0,0.0,6.0,6.0,473.6617781436507,6.0,1.0,phase_2,go,850.0,1000.0,1.0,,,,,,,,,yellow,diamond
0.0,4.0,4.0,0.0,6.0,6.0,316.5924312907009,6.0,1.0,phase_2,go,850.0,1000.0,1.0,,,,,,,,,yellow,diamond
0.0,7.0,2.0,1.0,6.0,6.0,1027.3752463035637,6.0,1.0,phase_2,stop,850.0,1000.0,3.0,,,,,,,,,gray,square
0.0,2.0,1.0,0.0,6.0,6.0,756.7623300001287,6.0,1.0,phase_2,go,850.0,950.0,1.0,,,,,,,,,magenta,triangle
0.0,6.0,1.0,1.0,5.0,0.0,0.0,6.0,1.0,phase_2,stop,850.0,950.0,4.0,,,,,,,,,green,flipped triangle
0.0,6.0,1.0,1.0,5.0,0.0,0.0,6.0,1.0,phase_2,go,900.0,950.0,5.0,,,,,,,,,green,flipped triangle
0.0,4.0,4.0,0.0,5.0,5.0,534.5471545806504,6.0,1.0,phase_2,go,900.0,950.0,1.0,,,,,,,,,yellow,diamond
0.0,4.0,4.0,0.0,6.0,6.0,490.2880101599294,6.0,1.0,phase_2,go,900.0,950.0,1.0,,,,,,,,,yellow,diamond
0.0,3.0,2.0,0.0,6.0,6.0,468.6447682906873,6.0,1.0,phase_2,go,900.0,950.0,1.0,,,,,,,,,blue,circle
0.0,5.0,0.5,1.0,5.0,0.0,0.0,6.0,1.0,phase_2,stop,900.0,950.0,4.0,,,,,,,,,white,I
0.0,8.0,4.0,1.0,5.0,5.0,605.3242978705384,6.0,1.0,phase_2,stop,950.0,950.0,3.0,,,,,,,,,cyan,hexagon
0.0,7.0,2.0,1.0,6.0,6.0,963.139245290222,6.0,1.0,phase_2,stop,900.0,950.0,3.0,,,,,,,,,gray,square
0.0,8.0,4.0,1.0,5.0,5.0,1068.237842158851,6.0,1.0,phase_2,go,900.0,900.0,1.0,,,,,,,,,cyan,hexagon
0.0,1.0,0.5,0.0,6.0,6.0,529.2015371451271,6.0,1.0,phase_2,go,900.0,900.0,1.0,,,,,,,,,orange,cross
0.0,5.0,0.5,1.0,6.0,0.0,0.0,6.0,1.0,phase_2,stop,900.0,900.0,4.0,,,,,,,,,white,I
0.0,1.0,0.5,0.0,6.0,6.0,699.9119331449037,6.0,1.0,phase_2,go,900.0,950.0,1.0,,,,,,,,,orange,cross
0.0,5.0,0.5,1.0,6.0,0.0,0.0,6.0,1.0,phase_2,stop,900.0,950.0,4.0,,,,,,,,,white,I
0.0,6.0,1.0,1.0,6.0,0.0,0.0,6.0,1.0,phase_2,stop,900.0,1000.0,4.0,,,,,,,,,green,flipped triangle
0.0,7.0,2.0,1.0,6.0,6.0,1060.516695579281,6.0,1.0,phase_2,stop,900.0,1050.0,3.0,,,,,,,,,gray,square
0.0,2.0,1.0,0.0,5.0,5.0,635.7700702901639,6.0,1.0,phase_2,go,900.0,1000.0,1.0,,,,,,,,,magenta,triangle
0.0,5.0,0.5,1.0,6.0,0.0,0.0,6.0,1.0,phase_2,stop,900.0,1000.0,4.0,,,,,,,,,white,I
0.0,6.0,1.0,1.0,6.0,0.0,0.0,6.0,1.0,phase_2,stop,900.0,1050.0,4.0,,,,,,,,,green,flipped triangle
0.0,5.0,0.5,1.0,5.0,5.0,976.0398282905952,6.0,1.0,phase_2,stop,900.0,1100.0,3.0,,,,,,,,,white,I
0.0,4.0,4.0,0.0,6.0,6.0,538.3517153022694,6.0,1.0,phase_2,go,850.0,1100.0,1.0,,,,,,,,,yellow,diamond
0.0,3.0,2.0,0.0,6.0,6.0,459.0124229998764,6.0,1.0,phase_2,go,850.0,1100.0,1.0,,,,,,,,,blue,circle
0.0,3.0,2.0,0.0,6.0,6.0,448.9322261579218,6.0,1.0,phase_2,go,850.0,1100.0,1.0,,,,,,,,,blue,circle
0.0,4.0,4.0,0.0,5.0,5.0,462.8825264353509,6.0,1.0,phase_2,go,850.0,1100.0,1.0,,,,,,,,,yellow,diamond
0.0,5.0,0.5,1.0,5.0,5.0,1138.4157995798887,6.0,1.0,phase_2,go,850.0,1100.0,1.0,,,,,,,,,white,I
0.0,4.0,4.0,0.0,6.0,6.0,440.0996437234425,6.0,1.0,phase_2,go,850.0,1100.0,1.0,,,,,,,,,yellow,diamond
0.0,8.0,4.0,1.0,6.0,6.0,1037.6038354352204,6.0,1.0,phase_2,go,850.0,1100.0,1.0,,,,,,,,,cyan,hexagon
0.0,1.0,0.5,0.0,5.0,5.0,442.8229355798976,6.0,1.0,phase_2,go,850.0,1100.0,1.0,,,,,,,,,orange,cross
0.0,5.0,0.5,1.0,6.0,6.0,1129.8978261438606,6.0,1.0,phase_2,stop,850.0,1100.0,3.0,,,,,,,,,white,I
0.0,1.0,0.5,0.0,6.0,6.0,409.9427925793861,7.0,1.0,phase_2,go,850.0,1050.0,1.0,,,,,,,,,orange,cross
0.0,8.0,4.0,1.0,6.0,6.0,343.820322144893,7.0,1.0,phase_2,stop,850.0,1050.0,3.0,,,,,,,,,cyan,hexagon
0.0,4.0,4.0,0.0,5.0,5.0,469.3082062894973,7.0,1.0,phase_2,go,850.0,1000.0,1.0,,,,,,,,,yellow,diamond
0.0,7.0,2.0,1.0,6.0,6.0,1077.0933211442753,7.0,1.0,phase_2,stop,850.0,1000.0,3.0,,,,,,,,,gray,square
0.0,8.0,4.0,1.0,5.0,0.0,0.0,7.0,1.0,phase_2,stop,850.0,950.0,4.0,,,,,,,,,cyan,hexagon
0.0,2.0,1.0,0.0,6.0,6.0,595.8470488694729,7.0,1.0,phase_2,go,900.0,950.0,1.0,,,,,,,,,magenta,triangle
0.0,2.0,1.0,0.0,6.0,6.0,381.5763755792432,7.0,1.0,phase_2,go,900.0,950.0,1.0,,,,,,,,,magenta,triangle
0.0,7.0,2.0,1.0,6.0,0.0,0.0,7.0,1.0,phase_2,stop,900.0,950.0,4.0,,,,,,,,,gray,square
0.0,8.0,4.0,1.0,6.0,6.0,1103.0353920141351,7.0,1.0,phase_2,stop,900.0,1000.0,3.0,,,,,,,,,cyan,hexagon
0.0,2.0,1.0,0.0,6.0,6.0,588.2855102918256,7.0,1.0,phase_2,go,900.0,950.0,1.0,,,,,,,,,magenta,triangle
0.0,7.0,2.0,1.0,6.0,6.0,1185.598831723837,7.0,1.0,phase_2,go,900.0,950.0,1.0,,,,,,,,,gray,square
0.0,6.0,1.0,1.0,5.0,5.0,644.6264000005613,7.0,1.0,phase_2,stop,900.0,950.0,3.0,,,,,,,,,green,flipped triangle
0.0,2.0,1.0,0.0,5.0,5.0,488.3622857232694,7.0,1.0,phase_2,go,850.0,950.0,1.0,,,,,,,,,magenta,triangle
0.0,7.0,2.0,1.0,5.0,0.0,0.0,7.0,1.0,phase_2,stop,850.0,950.0,4.0,,,,,,,,,gray,square
0.0,2.0,1.0,0.0,6.0,6.0,580.1930141442426,7.0,1.0,phase_2,go,900.0,950.0,1.0,,,,,,,,,magenta,triangle
0.0,6.0,1.0,1.0,6.0,6.0,1243.954710998878,7.0,1.0,phase_2,go,900.0,950.0,1.0,,,,,,,,,green,flipped triangle
0.0,4.0,4.0,0.0,6.0,6.0,491.2031687090348,7.0,1.0,phase_2,go,900.0,950.0,1.0,,,,,,,,,yellow,diamond
0.0,1.0,0.5,0.0,6.0,6.0,481.7409291445074,7.0,1.0,phase_2,go,900.0,950.0,1.0,,,,,,,,,orange,cross
0.0,6.0,1.0,1.0,6.0,6.0,1090.1580665795336,7.0,1.0,phase_2,stop,900.0,950.0,3.0,,,,,,,,,green,flipped triangle
0.0,1.0,0.5,0.0,5.0,5.0,562.08911757858,7.0,1.0,phase_2,go,900.0,900.0,1.0,,,,,,,,,orange,cross
0.0,7.0,2.0,1.0,5.0,0.0,0.0,7.0,1.0,phase_2,stop,900.0,900.0,4.0,,,,,,,,,gray,square
0.0,2.0,1.0,0.0,6.0,6.0,507.2287501589017,7.0,1.0,phase_2,go,950.0,900.0,1.0,,,,,,,,,magenta,triangle
0.0,3.0,2.0,0.0,6.0,6.0,440.1258093039359,7.0,1.0,phase_2,go,950.0,900.0,1.0,,,,,,,,,blue,circle
0.0,3.0,2.0,0.0,6.0,6.0,329.4909827236552,7.0,1.0,phase_2,go,950.0,900.0,1.0,,,,,,,,,blue,circle
0.0,5.0,0.5,1.0,5.0,0.0,0.0,7.0,1.0,phase_2,stop,950.0,900.0,4.0,,,,,,,,,white,I
0.0,8.0,4.0,1.0,6.0,6.0,1400.1879057232145,7.0,1.0,phase_2,go,1000.0,900.0,1.0,,,,,,,,,cyan,hexagon
0.0,8.0,4.0,1.0,5.0,5.0,1096.736874724229,7.0,1.0,phase_2,go,1000.0,900.0,1.0,,,,,,,,,cyan,hexagon
0.0,5.0,0.5,1.0,5.0,0.0,0.0,7.0,1.0,phase_2,stop,1000.0,900.0,4.0,,,,,,,,,white,I
0.0,3.0,2.0,0.0,5.0,5.0,512.8347077243234,7.0,1.0,phase_2,go,1050.0,900.0,1.0,,,,,,,,,blue,circle
0.0,6.0,1.0,1.0,6.0,6.0,1145.1617430157055,7.0,1.0,phase_2,go,1050.0,900.0,1.0,,,,,,,,,green,flipped triangle
0.0,6.0,1.0,1.0,6.0,6.0,1121.6927360146656,7.0,1.0,phase_2,go,1050.0,900.0,1.0,,,,,,,,,green,flipped triangle
0.0,2.0,1.0,0.0,5.0,5.0,527.7963435801212,7.0,1.0,phase_2,go,1050.0,900.0,1.0,,,,,,,,,magenta,triangle
0.0,1.0,0.5,0.0,5.0,5.0,492.9302631444443,7.0,1.0,phase_2,go,1050.0,900.0,1.0,,,,,,,,,orange,cross
0.0,8.0,4.0,1.0,5.0,5.0,1024.4327964355762,7.0,1.0,phase_2,go,1050.0,900.0,1.0,,,,,,,,,cyan,hexagon
0.0,8.0,4.0,1.0,6.0,6.0,946.6548135787888,7.0,1.0,phase_2,stop,1050.0,900.0,3.0,,,,,,,,,cyan,hexagon
0.0,5.0,0.5,1.0,6.0,0.0,0.0,7.0,1.0,phase_2,stop,1050.0,850.0,4.0,,,,,,,,,white,I
0.0,5.0,0.5,1.0,6.0,6.0,991.6430649991526,8.0,1.0,phase_2,go,1050.0,900.0,1.0,,,,,,,,,white,I
0.0,3.0,2.0,0.0,5.0,5.0,463.9802292913373,8.0,1.0,phase_2,go,1050.0,900.0,1.0,,,,,,,,,blue,circle
0.0,7.0,2.0,1.0,6.0,0.0,0.0,8.0,1.0,phase_2,stop,1050.0,900.0,4.0,,,,,,,,,gray,square
0.0,8.0,4.0,1.0,6.0,6.0,1028.597329999684,8.0,1.0,phase_2,stop,1050.0,950.0,3.0,,,,,,,,,cyan,hexagon
0.0,1.0,0.5,0.0,6.0,6.0,489.7791118710302,8.0,1.0,phase_2,go,1050.0,900.0,1.0,,,,,,,,,orange,cross
0.0,6.0,1.0,1.0,5.0,0.0,0.0,8.0,1.0,phase_2,stop,1050.0,900.0,4.0,,,,,,,,,green,flipped triangle
0.0,4.0,4.0,0.0,5.0,5.0,546.0500375793345,8.0,1.0,phase_2,go,1100.0,900.0,1.0,,,,,,,,,yellow,diamond
0.0,4.0,4.0,0.0,5.0,5.0,401.025785578895,8.0,1.0,phase_2,go,1100.0,900.0,1.0,,,,,,,,,yellow,diamond
0.0,7.0,2.0,1.0,6.0,0.0,0.0,8.0,1.0,phase_2,stop,1100.0,900.0,4.0,,,,,,,,,gray,square
0.0,8.0,4.0,1.0,5.0,5.0,1155.7676811444253,8.0,1.0,phase_2,stop,1100.0,950.0,3.0,,,,,,,,,cyan,hexagon
0.0,4.0,4.0,0.0,5.0,5.0,447.9163830146717,8.0,1.0,phase_2,go,1050.0,950.0,1.0,,,,,,,,,yellow,diamond
0.0,3.0,2.0,0.0,6.0,6.0,550.8732697235246,8.0,1.0,phase_2,go,1050.0,950.0,1.0,,,,,,,,,blue,circle
0.0,8.0,4.0,1.0,6.0,0.0,0.0,8.0,1.0,phase_2,stop,1050.0,950.0,4.0,,,,,,,,,cyan,hexagon
0.0,3.0,2.0,0.0,5.0,5.0,529.2262692910299,8.0,1.0,phase_2,go,1050.0,1000.0,1.0,,,,,,,,,blue,circle
0.0,2.0,1.0,0.0,5.0,5.0,350.3730914344487,8.0,1.0,phase_2,go,1050.0,1000.0,1.0,,,,,,,,,magenta,triangle
0.0,7.0,2.0,1.0,5.0,0.0,0.0,8.0,1.0,phase_2,stop,1050.0,1000.0,4.0,,,,,,,,,gray,square
0.0,8.0,4.0,1.0,5.0,0.0,0.0,8.0,1.0,phase_2,stop,1100.0,1000.0,4.0,,,,,,,,,cyan,hexagon
0.0,1.0,0.5,0.0,5.0,5.0,510.4481655798736,8.0,1.0,phase_2,go,1150.0,1000.0,1.0,,,,,,,,,orange,cross
0.0,1.0,0.5,0.0,5.0,5.0,443.8926690145308,8.0,1.0,phase_2,go,1150.0,1000.0,1.0,,,,,,,,,orange,cross
0.0,5.0,0.5,1.0,5.0,0.0,0.0,8.0,1.0,phase_2,stop,1150.0,1000.0,4.0,,,,,,,,,white,I
0.0,6.0,1.0,1.0,6.0,0.0,0.0,8.0,1.0,phase_2,stop,1200.0,1000.0,4.0,,,,,,,,,green,flipped triangle
0.0,3.0,2.0,0.0,6.0,6.0,458.2808371578721,8.0,1.0,phase_2,go,1200.0,1050.0,1.0,,,,,,,,,blue,circle
0.0,7.0,2.0,1.0,5.0,5.0,1437.936772723333,8.0,1.0,phase_2,go,1200.0,1050.0,1.0,,,,,,,,,gray,square
0.0,2.0,1.0,0.0,5.0,5.0,458.6959431453579,8.0,1.0,phase_2,go,1200.0,1050.0,1.0,,,,,,,,,magenta,triangle
0.0,6.0,1.0,1.0,6.0,6.0,1181.7514871599997,8.0,1.0,phase_2,stop,1200.0,1050.0,3.0,,,,,,,,,green,flipped triangle
0.0,5.0,0.5,1.0,6.0,6.0,1384.4430950157405,8.0,1.0,phase_2,go,1200.0,1000.0,1.0,,,,,,,,,white,I
0.0,7.0,2.0,1.0,6.0,0.0,0.0,8.0,1.0,phase_2,stop,1200.0,1000.0,4.0,,,,,,,,,gray,square
0.0,2.0,1.0,0.0,5.0,5.0,464.2451748695748,8.0,1.0,phase_2,go,1200.0,1050.0,1.0,,,,,,,,,magenta,triangle
0.0,8.0,4.0,1.0,6.0,0.0,0.0,8.0,1.0,phase_2,stop,1200.0,1050.0,4.0,,,,,,,,,cyan,hexagon
0.0,6.0,1.0,1.0,5.0,5.0,1218.2386547101487,8.0,1.0,phase_2,go,1200.0,1100.0,1.0,,,,,,,,,green,flipped triangle
0.0,3.0,2.0,0.0,6.0,6.0,489.24107201492,8.0,1.0,phase_2,go,1200.0,1100.0,1.0,,,,,,,,,blue,circle
0.0,5.0,0.5,1.0,6.0,6.0,1120.1804630145489,8.0,1.0,phase_2,stop,1200.0,1100.0,3.0,,,,,,,,,white,I
0.0,4.0,4.0,0.0,5.0,5.0,466.6469974345091,8.0,1.0,phase_2,go,1200.0,1050.0,1.0,,,,,,,,,yellow,diamond
0.0,6.0,1.0,1.0,6.0,6.0,1063.211130869604,8.0,1.0,phase_2,stop,1200.0,1050.0,3.0,,,,,,,,,green,flipped triangle
0.0,1.0,0.5,0.0,5.0,5.0,456.9087191575818,8.0,1.0,phase_2,go,1200.0,1000.0,1.0,,,,,,,,,orange,cross
0.0,3.0,2.0,0.0,6.0,6.0,448.1305264343973,8.0,1.0,phase_2,go,1200.0,1000.0,1.0,,,,,,,,,blue,circle
0.0,6.0,1.0,1.0,7.0,3.0,2316.9674198052235,1.0,1.0,phase_3,,,,,117.0,3.0,195.0,234.0,117.0,78.0,39.0,156.0,green,flipped triangle
0.0,7.0,2.0,1.0,7.0,2.0,2558.7775854146457,1.0,1.0,phase_3,,,,,39.0,1.0,195.0,39.0,117.0,78.0,234.0,156.0,gray,square
0.0,8.0,4.0,1.0,7.0,4.0,3223.6984644077893,1.0,1.0,phase_3,,,,,117.0,3.0,39.0,195.0,156.0,117.0,78.0,234.0,cyan,hexagon
0.0,6.0,1.0,1.0,7.0,1.0,2437.3462082039623,1.0,1.0,phase_3,,,,,98.0,2.0,98.0,245.0,294.0,147.0,49.0,196.0,green,flipped triangle
0.0,7.0,2.0,1.0,7.0,1.0,2215.007907805557,1.0,1.0,phase_3,,,,,49.0,1.0,49.0,294.0,147.0,98.0,196.0,245.0,gray,square
0.0,6.0,1.0,1.0,7.0,2.0,1899.3299192025008,1.0,1.0,phase_3,,,,,102.0,3.0,204.0,102.0,136.0,170.0,68.0,34.0,green,flipped triangle
0.0,5.0,0.5,1.0,7.0,4.0,4173.213965603281,1.0,1.0,phase_3,,,,,88.0,2.0,176.0,264.0,132.0,88.0,44.0,220.0,white,I
0.0,5.0,0.5,1.0,7.0,1.0,2343.294704611253,1.0,1.0,phase_3,,,,,117.0,3.0,117.0,156.0,39.0,78.0,234.0,195.0,white,I
0.0,7.0,2.0,1.0,7.0,2.0,2514.002790407176,1.0,1.0,phase_3,,,,,78.0,2.0,117.0,78.0,234.0,156.0,195.0,39.0,gray,square
0.0,6.0,1.0,1.0,7.0,2.0,2097.354723007811,1.0,1.0,phase_3,,,,,88.0,2.0,132.0,88.0,176.0,44.0,264.0,220.0,green,flipped triangle
0.0,8.0,4.0,1.0,7.0,1.0,2999.2671700165374,1.0,1.0,phase_3,,,,,170.0,5.0,170.0,102.0,204.0,34.0,136.0,68.0,cyan,hexagon
0.0,4.0,4.0,0.0,7.0,5.0,3540.733255204032,1.0,1.0,phase_3,,,,,270.0,5.0,162.0,108.0,324.0,54.0,270.0,216.0,yellow,diamond
0.0,7.0,2.0,1.0,7.0,6.0,3890.9489382021998,1.0,1.0,phase_3,,,,,88.0,2.0,132.0,220.0,264.0,44.0,176.0,88.0,gray,square
0.0,5.0,0.5,1.0,7.0,1.0,4577.170381609903,1.0,1.0,phase_3,,,,,88.0,2.0,88.0,264.0,44.0,132.0,176.0,220.0,white,I
0.0,8.0,4.0,1.0,7.0,5.0,1352.8632610068598,1.0,2.0,phase_3,,,,,162.0,3.0,324.0,108.0,54.0,270.0,162.0,216.0,cyan,hexagon
0.0,7.0,2.0,1.0,7.0,1.0,1805.6866136030292,1.0,1.0,phase_3,,,,,54.0,1.0,54.0,108.0,216.0,270.0,162.0,324.0,gray,square
0.0,4.0,4.0,0.0,7.0,4.0,1705.7213422031057,1.0,1.0,phase_3,,,,,170.0,5.0,68.0,102.0,34.0,170.0,204.0,136.0,yellow,diamond
0.0,5.0,0.5,1.0,7.0,1.0,1896.3419416104443,1.0,1.0,phase_3,,,,,294.0,6.0,294.0,245.0,196.0,147.0,98.0,49.0,white,I
0.0,3.0,2.0,0.0,7.0,2.0,2101.1313302115013,1.0,1.0,phase_3,,,,,204.0,6.0,102.0,204.0,170.0,68.0,34.0,136.0,blue,circle
0.0,2.0,1.0,0.0,7.0,3.0,1494.9033424072695,1.0,1.0,phase_3,,,,,270.0,5.0,108.0,216.0,270.0,162.0,324.0,54.0,magenta,triangle
0.0,6.0,1.0,1.0,7.0,1.0,1549.494681203214,2.0,1.0,phase_3,,,,,147.0,3.0,147.0,294.0,245.0,49.0,196.0,98.0,green,flipped triangle
0.0,1.0,0.5,0.0,7.0,6.0,1526.6617956021946,2.0,1.0,phase_3,,,,,324.0,6.0,162.0,270.0,54.0,108.0,216.0,324.0,orange,cross
0.0,1.0,0.5,0.0,7.0,4.0,2956.852801999048,2.0,1.0,phase_3,,,,,117.0,3.0,78.0,156.0,195.0,117.0,39.0,234.0,orange,cross
0.0,1.0,0.5,0.0,7.0,4.0,1856.4017226108265,2.0,1.0,phase_3,,,,,176.0,4.0,220.0,264.0,132.0,176.0,44.0,88.0,orange,cross
0.0,7.0,2.0,1.0,7.0,1.0,1329.4571676105988,2.0,1.0,phase_3,,,,,88.0,2.0,88.0,176.0,44.0,132.0,220.0,264.0,gray,square
0.0,1.0,0.5,0.0,7.0,2.0,1621.4083948052576,2.0,1.0,phase_3,,,,,39.0,1.0,156.0,39.0,195.0,117.0,234.0,78.0,orange,cross
0.0,8.0,4.0,1.0,7.0,5.0,1353.1040464076796,2.0,1.0,phase_3,,,,,220.0,5.0,176.0,264.0,132.0,44.0,220.0,88.0,cyan,hexagon
0.0,1.0,0.5,0.0,7.0,5.0,1342.7214292041754,2.0,1.0,phase_3,,,,,216.0,4.0,108.0,324.0,270.0,54.0,216.0,162.0,orange,cross
0.0,6.0,1.0,1.0,7.0,2.0,1208.194146611277,2.0,1.0,phase_3,,,,,78.0,2.0,234.0,78.0,39.0,117.0,156.0,195.0,green,flipped triangle
0.0,8.0,4.0,1.0,7.0,1.0,1008.1907416115428,2.0,1.0,phase_3,,,,,204.0,6.0,204.0,170.0,34.0,136.0,68.0,102.0,cyan,hexagon
0.0,3.0,2.0,0.0,7.0,6.0,1955.053793213665,2.0,1.0,phase_3,,,,,270.0,5.0,216.0,162.0,324.0,54.0,108.0,270.0,blue,circle
0.0,7.0,2.0,1.0,7.0,2.0,1370.9386908140004,2.0,1.0,phase_3,,,,,108.0,2.0,54.0,108.0,162.0,324.0,216.0,270.0,gray,square
0.0,5.0,0.5,1.0,7.0,5.0,1246.8851560079202,2.0,1.0,phase_3,,,,,156.0,4.0,78.0,234.0,117.0,195.0,156.0,39.0,white,I
0.0,4.0,4.0,0.0,7.0,2.0,1078.7874778143305,2.0,1.0,phase_3,,,,,294.0,6.0,98.0,294.0,49.0,245.0,196.0,147.0,yellow,diamond
0.0,4.0,4.0,0.0,7.0,5.0,1114.1473036113894,2.0,1.0,phase_3,,,,,156.0,4.0,234.0,195.0,78.0,39.0,156.0,117.0,yellow,diamond
0.0,2.0,1.0,0.0,7.0,6.0,1486.1319334067955,2.0,1.0,phase_3,,,,,68.0,2.0,170.0,102.0,34.0,136.0,204.0,68.0,magenta,triangle
0.0,6.0,1.0,1.0,7.0,2.0,1386.243000812101,2.0,1.0,phase_3,,,,,136.0,4.0,170.0,136.0,204.0,34.0,102.0,68.0,green,flipped triangle
0.0,2.0,1.0,0.0,7.0,1.0,1173.6528990077204,2.0,1.0,phase_3,,,,,245.0,5.0,245.0,147.0,98.0,294.0,49.0,196.0,magenta,triangle
0.0,7.0,2.0,1.0,7.0,6.0,1242.4917226035177,2.0,1.0,phase_3,,,,,98.0,2.0,49.0,196.0,147.0,294.0,245.0,98.0,gray,square
0.0,3.0,2.0,0.0,7.0,1.0,1749.6350958062976,2.0,1.0,phase_3,,,,,195.0,5.0,195.0,39.0,234.0,156.0,78.0,117.0,blue,circle
0.0,3.0,2.0,0.0,7.0,6.0,1484.269122407568,3.0,1.0,phase_3,,,,,204.0,6.0,102.0,34.0,170.0,68.0,136.0,204.0,blue,circle
0.0,5.0,0.5,1.0,7.0,2.0,1181.3729407695064,3.0,1.0,phase_3,,,,,170.0,5.0,204.0,170.0,68.0,34.0,136.0,102.0,white,I
0.0,3.0,2.0,0.0,7.0,1.0,1363.560307008811,3.0,1.0,phase_3,,,,,162.0,3.0,162.0,270.0,216.0,324.0,108.0,54.0,blue,circle
0.0,1.0,0.5,0.0,7.0,5.0,1217.2506164079095,3.0,1.0,phase_3,,,,,132.0,3.0,220.0,88.0,176.0,264.0,132.0,44.0,orange,cross
0.0,1.0,0.5,0.0,7.0,2.0,1286.4169378135557,3.0,1.0,phase_3,,,,,102.0,3.0,136.0,102.0,170.0,204.0,68.0,34.0,orange,cross
0.0,2.0,1.0,0.0,7.0,2.0,1242.1257948044513,3.0,1.0,phase_3,,,,,204.0,6.0,136.0,204.0,170.0,68.0,34.0,102.0,magenta,triangle
0.0,2.0,1.0,0.0,7.0,5.0,1175.3474064080365,3.0,1.0,phase_3,,,,,147.0,3.0,294.0,49.0,196.0,98.0,147.0,245.0,magenta,triangle
0.0,2.0,1.0,0.0,7.0,2.0,1345.81032681308,3.0,1.0,phase_3,,,,,216.0,4.0,162.0,216.0,270.0,54.0,108.0,324.0,magenta,triangle
0.0,5.0,0.5,1.0,7.0,3.0,1189.712964813225,3.0,1.0,phase_3,,,,,34.0,1.0,204.0,136.0,34.0,102.0,68.0,170.0,white,I
0.0,3.0,2.0,0.0,7.0,2.0,1044.5704014073272,3.0,1.0,phase_3,,,,,196.0,4.0,98.0,196.0,294.0,245.0,147.0,49.0,blue,circle
0.0,4.0,4.0,0.0,7.0,4.0,1158.776430593207,3.0,1.0,phase_3,,,,,132.0,3.0,220.0,264.0,88.0,132.0,44.0,176.0,yellow,diamond
0.0,8.0,4.0,1.0,7.0,5.0,1508.001398813576,3.0,1.0,phase_3,,,,,117.0,3.0,195.0,78.0,156.0,39.0,117.0,234.0,cyan,hexagon
0.0,4.0,4.0,0.0,7.0,6.0,1306.8722716016057,3.0,1.0,phase_3,,,,,117.0,3.0,39.0,195.0,78.0,234.0,156.0,117.0,yellow,diamond
0.0,5.0,0.5,1.0,7.0,5.0,1330.581501211782,3.0,1.0,phase_3,,,,,162.0,3.0,270.0,54.0,108.0,324.0,162.0,216.0,white,I
0.0,4.0,4.0,0.0,7.0,4.0,1633.998325201901,3.0,1.0,phase_3,,,,,102.0,3.0,170.0,34.0,136.0,102.0,68.0,204.0,yellow,diamond
0.0,1.0,0.5,0.0,7.0,6.0,1456.4266944071278,3.0,1.0,phase_3,,,,,245.0,5.0,147.0,196.0,98.0,49.0,294.0,245.0,orange,cross
0.0,6.0,1.0,1.0,7.0,1.0,1255.2183214156685,3.0,1.0,phase_3,,,,,162.0,3.0,162.0,216.0,270.0,324.0,54.0,108.0,green,flipped triangle
0.0,3.0,2.0,0.0,7.0,6.0,1345.224727201639,3.0,1.0,phase_3,,,,,220.0,5.0,44.0,132.0,176.0,88.0,264.0,220.0,blue,circle
0.0,8.0,4.0,1.0,7.0,3.0,1426.8283850069563,3.0,1.0,phase_3,,,,,196.0,4.0,147.0,294.0,196.0,49.0,98.0,245.0,cyan,hexagon
0.0,6.0,1.0,1.0,7.0,1.0,897.5058930009254,3.0,1.0,phase_3,,,,,44.0,1.0,44.0,88.0,220.0,264.0,176.0,132.0,green,flipped triangle
0.0,3.0,2.0,0.0,7.0,1.0,1426.192584407545,4.0,1.0,phase_3,,,,,156.0,4.0,156.0,117.0,234.0,78.0,39.0,195.0,blue,circle
0.0,2.0,1.0,0.0,7.0,1.0,1449.2732766029803,4.0,1.0,phase_3,,,,,117.0,3.0,117.0,78.0,195.0,39.0,156.0,234.0,magenta,triangle
0.0,8.0,4.0,1.0,7.0,6.0,876.5884116019151,4.0,1.0,phase_3,,,,,220.0,5.0,44.0,132.0,88.0,264.0,176.0,220.0,cyan,hexagon
0.0,6.0,1.0,1.0,7.0,3.0,1068.893046007361,4.0,1.0,phase_3,,,,,54.0,1.0,216.0,324.0,54.0,270.0,162.0,108.0,green,flipped triangle
0.0,2.0,1.0,0.0,7.0,4.0,597.9905552030687,4.0,1.0,phase_3,,,,,264.0,6.0,220.0,44.0,132.0,264.0,176.0,88.0,magenta,triangle
0.0,5.0,0.5,1.0,7.0,2.0,980.7366772129172,4.0,1.0,phase_3,,,,,98.0,2.0,245.0,98.0,49.0,294.0,147.0,196.0,white,I
0.0,3.0,2.0,0.0,7.0,4.0,1389.0521390021604,4.0,1.0,phase_3,,,,,196.0,4.0,98.0,49.0,294.0,196.0,147.0,245.0,blue,circle
0.0,4.0,4.0,0.0,7.0,4.0,972.6494856004138,4.0,1.0,phase_3,,,,,44.0,1.0,176.0,220.0,88.0,44.0,132.0,264.0,yellow,diamond
0.0,1.0,0.5,0.0,7.0,5.0,1288.31108461236,4.0,1.0,phase_3,,,,,136.0,4.0,204.0,68.0,34.0,102.0,136.0,170.0,orange,cross
0.0,7.0,2.0,1.0,7.0,6.0,1470.3636962040036,4.0,1.0,phase_3,,,,,34.0,1.0,68.0,204.0,136.0,102.0,170.0,34.0,gray,square
0.0,2.0,1.0,0.0,7.0,3.0,1178.2078414071293,4.0,1.0,phase_3,,,,,220.0,5.0,44.0,88.0,220.0,176.0,132.0,264.0,magenta,triangle
0.0,8.0,4.0,1.0,7.0,5.0,1438.7101440006518,4.0,1.0,phase_3,,,,,324.0,6.0,216.0,270.0,54.0,162.0,324.0,108.0,cyan,hexagon
0.0,7.0,2.0,1.0,7.0,2.0,1035.1257084148529,4.0,1.0,phase_3,,,,,102.0,3.0,170.0,102.0,136.0,68.0,204.0,34.0,gray,square
0.0,2.0,1.0,0.0,7.0,5.0,1294.783416957216,4.0,1.0,phase_3,,,,,117.0,3.0,78.0,195.0,234.0,39.0,117.0,156.0,magenta,triangle
0.0,1.0,0.5,0.0,7.0,1.0,1103.5148672053765,4.0,1.0,phase_3,,,,,98.0,2.0,98.0,147.0,49.0,294.0,196.0,245.0,orange,cross
0.0,4.0,4.0,0.0,7.0,5.0,1093.073364609154,4.0,1.0,phase_3,,,,,294.0,6.0,245.0,147.0,49.0,196.0,294.0,98.0,yellow,diamond
0.0,5.0,0.5,1.0,7.0,2.0,1161.7964358047177,4.0,1.0,phase_3,,,,,270.0,5.0,216.0,270.0,324.0,54.0,108.0,162.0,white,I
0.0,3.0,2.0,0.0,7.0,5.0,1444.486050211708,4.0,1.0,phase_3,,,,,220.0,5.0,176.0,264.0,44.0,132.0,220.0,88.0,blue,circle
0.0,4.0,4.0,0.0,7.0,2.0,1276.4635192033893,4.0,1.0,phase_3,,,,,162.0,3.0,270.0,162.0,324.0,216.0,54.0,108.0,yellow,diamond
0.0,8.0,4.0,1.0,7.0,6.0,928.7882542048465,4.0,1.0,phase_3,,,,,147.0,3.0,196.0,98.0,245.0,294.0,49.0,147.0,cyan,hexagon
