raw_reward_magnitude,stim_reward,stepwise_reward_magnitude,paired_with_stopping,stim_location,response,reaction_time,block,num_trial_presentations,which_phase,stop_signal_trial_type,left_SSD,right_SSD,accuracy,chosen_bidding_amount,chosen_bidding_level,possible_bid_1,possible_bid_2,possible_bid_3,possible_bid_4,possible_bid_5,possible_bid_6,color_text,shape_text
0.0,5.0,0.0,1.0,1.0,1.0,474.3448890803847,1.0,1.0,phase_1,,,,,,,,,,,,,yellow,triangle
77.0,2.0,1.0,0.0,1.0,1.0,507.9456210369244,1.0,1.0,phase_1,,,,,,,,,,,,,gray,diamond
55.0,5.0,0.5,1.0,3.0,3.0,620.7985836226726,1.0,1.0,phase_1,,,,,,,,,,,,,yellow,triangle
60.0,1.0,0.5,0.0,4.0,4.0,485.5139035353204,1.0,1.0,phase_1,,,,,,,,,,,,,blue,hexagon
86.0,6.0,1.0,1.0,4.0,4.0,600.9202570421621,1.0,1.0,phase_1,,,,,,,,,,,,,cyan,circle
0.0,3.0,0.0,0.0,1.0,1.0,533.7864145694766,1.0,1.0,phase_1,,,,,,,,,,,,,orange,square
400.0,8.0,4.0,1.0,3.0,3.0,521.4837135426933,1.0,1.0,phase_1,,,,,,,,,,,,,magenta,flipped triangle
120.0,6.0,1.0,1.0,3.0,3.0,510.59470321342815,1.0,1.0,phase_1,,,,,,,,,,,,,cyan,circle
391.0,4.0,4.0,0.0,4.0,4.0,445.6669950159266,1.0,1.0,phase_1,,,,,,,,,,,,,white,cross
423.0,4.0,4.0,0.0,1.0,1.0,434.631289113895,1.0,1.0,phase_1,,,,,,,,,,,,,white,cross
50.0,1.0,0.5,0.0,1.0,1.0,670.3335315687582,1.0,1.0,phase_1,,,,,,,,,,,,,blue,hexagon
27.0,1.0,0.5,0.0,3.0,3.0,366.7837860266445,1.0,1.0,phase_1,,,,,,,,,,,,,blue,hexagon
396.0,4.0,4.0,0.0,2.0,2.0,513.9052280137548,1.0,1.0,phase_1,,,,,,,,,,,,,white,cross
75.0,5.0,0.5,1.0,3.0,3.0,435.9885260782903,1.0,1.0,phase_1,,,,,,,,,,,,,yellow,triangle
98.0,6.0,1.0,1.0,2.0,2.0,471.5410475910175,1.0,1.0,phase_1,,,,,,,,,,,,,cyan,circle
416.0,4.0,4.0,0.0,2.0,2.0,427.284898571088,1.0,1.0,phase_1,,,,,,,,,,,,,white,cross
0.0,8.0,0.0,1.0,3.0,3.0,392.4822715343907,1.0,1.0,phase_1,,,,,,,,,,,,,magenta,flipped triangle
64.0,1.0,0.5,0.0,3.0,3.0,426.0346086230129,1.0,1.0,phase_1,,,,,,,,,,,,,blue,hexagon
55.0,1.0,0.5,0.0,1.0,1.0,438.8610930473078,1.0,1.0,phase_1,,,,,,,,,,,,,blue,hexagon
200.0,7.0,2.0,1.0,2.0,2.0,472.9587890469702,1.0,1.0,phase_1,,,,,,,,,,,,,green,I
87.0,2.0,1.0,0.0,3.0,3.0,474.1649150237208,1.0,1.0,phase_1,,,,,,,,,,,,,gray,diamond
187.0,3.0,2.0,0.0,4.0,4.0,473.4883210476255,1.0,1.0,phase_1,,,,,,,,,,,,,orange,square
192.0,7.0,2.0,1.0,3.0,3.0,362.4390240292996,1.0,1.0,phase_1,,,,,,,,,,,,,green,I
125.0,2.0,1.0,0.0,4.0,4.0,385.3300455084536,1.0,1.0,phase_1,,,,,,,,,,,,,gray,diamond
63.0,1.0,0.5,0.0,3.0,3.0,430.1482456212397,1.0,1.0,phase_1,,,,,,,,,,,,,blue,hexagon
0.0,2.0,0.0,0.0,2.0,2.0,577.4733320431551,1.0,1.0,phase_1,,,,,,,,,,,,,gray,diamond
0.0,6.0,0.0,1.0,2.0,2.0,454.3709105346352,1.0,1.0,phase_1,,,,,,,,,,,,,cyan,circle
398.0,4.0,4.0,0.0,1.0,1.0,510.29564609052613,1.0,1.0,phase_1,,,,,,,,,,,,,white,cross
113.0,2.0,1.0,0.0,3.0,3.0,411.2433445116039,1.0,1.0,phase_1,,,,,,,,,,,,,gray,diamond
56.0,1.0,0.5,0.0,3.0,3.0,319.4974900834495,1.0,1.0,phase_1,,,,,,,,,,,,,blue,hexagon
98.0,2.0,1.0,0.0,3.0,3.0,343.962291997741,1.0,1.0,phase_1,,,,,,,,,,,,,gray,diamond
179.0,3.0,2.0,0.0,2.0,2.0,480.8110275043873,1.0,1.0,phase_1,,,,,,,,,,,,,orange,square
62.0,5.0,0.5,1.0,4.0,4.0,559.8362605378497,1.0,1.0,phase_1,,,,,,,,,,,,,yellow,triangle
107.0,2.0,1.0,0.0,1.0,1.0,536.7899948760169,1.0,1.0,phase_1,,,,,,,,,,,,,gray,diamond
395.0,4.0,4.0,0.0,1.0,1.0,413.4297675336711,1.0,1.0,phase_1,,,,,,,,,,,,,white,cross
107.0,6.0,1.0,1.0,2.0,2.0,403.4720261115581,1.0,1.0,phase_1,,,,,,,,,,,,,cyan,circle
183.0,7.0,2.0,1.0,3.0,3.0,347.1999286266509,1.0,1.0,phase_1,,,,,,,,,,,,,green,I
419.0,4.0,4.0,0.0,3.0,3.0,425.5082409945316,1.0,1.0,phase_1,,,,,,,,,,,,,white,cross
53.0,1.0,0.5,0.0,1.0,1.0,439.1674220532877,1.0,1.0,phase_1,,,,,,,,,,,,,blue,hexagon
70.0,5.0,0.5,1.0,3.0,3.0,360.7837005838519,1.0,1.0,phase_1,,,,,,,,,,,,,yellow,triangle
57.0,1.0,0.5,0.0,4.0,4.0,697.5613880204037,1.0,1.0,phase_1,,,,,,,,,,,,,blue,hexagon
27.0,5.0,0.5,1.0,4.0,4.0,439.9121395399561,1.0,1.0,phase_1,,,,,,,,,,,,,yellow,triangle
0.0,4.0,0.0,0.0,3.0,3.0,406.2675650493474,1.0,1.0,phase_1,,,,,,,,,,,,,white,cross
417.0,8.0,4.0,1.0,3.0,3.0,385.6701300246641,1.0,1.0,phase_1,,,,,,,,,,,,,magenta,flipped triangle
0.0,2.0,0.0,0.0,3.0,3.0,350.462438625982,1.0,1.0,phase_1,,,,,,,,,,,,,gray,diamond
0.0,8.0,0.0,1.0,3.0,3.0,296.1915179912466,1.0,1.0,phase_1,,,,,,,,,,,,,magenta,flipped triangle
35.0,1.0,0.5,0.0,1.0,1.0,534.4178735103924,1.0,1.0,phase_1,,,,,,,,,,,,,blue,hexagon
87.0,2.0,1.0,0.0,1.0,1.0,499.4639870419632,1.0,1.0,phase_1,,,,,,,,,,,,,gray,diamond
86.0,2.0,1.0,0.0,3.0,3.0,353.1899680820061,1.0,1.0,phase_1,,,,,,,,,,,,,gray,diamond
0.0,7.0,0.0,1.0,4.0,4.0,399.3878055771347,1.0,1.0,phase_1,,,,,,,,,,,,,green,I
204.0,3.0,2.0,0.0,3.0,3.0,400.1173540164018,1.0,1.0,phase_1,,,,,,,,,,,,,orange,square
0.0,1.0,0.0,0.0,1.0,1.0,469.1356416005874,1.0,1.0,phase_1,,,,,,,,,,,,,blue,hexagon
412.0,4.0,4.0,0.0,2.0,2.0,694.9868411029456,1.0,1.0,phase_1,,,,,,,,,,,,,white,cross
222.0,3.0,2.0,0.0,2.0,2.0,481.273866535048,1.0,1.0,phase_1,,,,,,,,,,,,,orange,square
118.0,2.0,1.0,0.0,3.0,3.0,390.2870115271071,1.0,1.0,phase_1,,,,,,,,,,,,,gray,diamond
411.0,4.0,4.0,0.0,4.0,4.0,413.0774555815151,1.0,1.0,phase_1,,,,,,,,,,,,,white,cross
414.0,4.0,4.0,0.0,3.0,3.0,403.6940630176104,1.0,1.0,phase_1,,,,,,,,,,,,,white,cross
110.0,2.0,1.0,0.0,1.0,1.0,472.5081570504699,1.0,1.0,phase_1,,,,,,,,,,,,,gray,diamond
0.0,3.0,0.0,0.0,3.0,3.0,336.483299601241,1.0,1.0,phase_1,,,,,,,,,,,,,orange,square
88.0,6.0,1.0,1.0,1.0,1.0,483.3834945166018,1.0,1.0,phase_1,,,,,,,,,,,,,cyan,circle
196.0,3.0,2.0,0.0,4.0,4.0,462.4186700530117,1.0,1.0,phase_1,,,,,,,,,,,,,orange,square
0.0,2.0,0.0,0.0,4.0,4.0,462.11364150804,1.0,1.0,phase_1,,,,,,,,,,,,,gray,diamond
206.0,7.0,2.0,1.0,4.0,4.0,350.5460625165142,1.0,1.0,phase_1,,,,,,,,,,,,,green,I
0.0,3.0,0.0,0.0,2.0,2.0,395.2373120409902,1.0,1.0,phase_1,,,,,,,,,,,,,orange,square
381.0,4.0,4.0,0.0,4.0,4.0,305.9619584673783,1.0,1.0,phase_1,,,,,,,,,,,,,white,cross
380.0,8.0,4.0,1.0,4.0,4.0,430.0387911061989,1.0,1.0,phase_1,,,,,,,,,,,,,magenta,flipped triangle
0.0,7.0,0.0,1.0,4.0,4.0,330.6210415321402,1.0,1.0,phase_1,,,,,,,,,,,,,green,I
34.0,5.0,0.5,1.0,4.0,4.0,410.1939325773855,1.0,1.0,phase_1,,,,,,,,,,,,,yellow,triangle
206.0,3.0,2.0,0.0,4.0,4.0,342.188241018448,1.0,1.0,phase_1,,,,,,,,,,,,,orange,square
0.0,3.0,0.0,0.0,2.0,2.0,444.0392045653425,1.0,1.0,phase_1,,,,,,,,,,,,,orange,square
101.0,6.0,1.0,1.0,4.0,4.0,389.5384230272611,1.0,1.0,phase_1,,,,,,,,,,,,,cyan,circle
119.0,6.0,1.0,1.0,3.0,3.0,422.8223215322941,1.0,1.0,phase_1,,,,,,,,,,,,,cyan,circle
211.0,3.0,2.0,0.0,3.0,3.0,356.2157945998478,1.0,1.0,phase_1,,,,,,,,,,,,,orange,square
0.0,4.0,0.0,0.0,2.0,2.0,491.3796375185484,1.0,1.0,phase_1,,,,,,,,,,,,,white,cross
391.0,4.0,4.0,0.0,4.0,4.0,504.19389552553184,1.0,1.0,phase_1,,,,,,,,,,,,,white,cross
396.0,8.0,4.0,1.0,1.0,1.0,661.4838770474307,1.0,1.0,phase_1,,,,,,,,,,,,,magenta,flipped triangle
390.0,4.0,4.0,0.0,1.0,1.0,404.3823810497997,1.0,1.0,phase_1,,,,,,,,,,,,,white,cross
112.0,6.0,1.0,1.0,3.0,3.0,323.7265841162298,1.0,1.0,phase_1,,,,,,,,,,,,,cyan,circle
121.0,6.0,1.0,1.0,4.0,4.0,315.1780080806929,1.0,1.0,phase_1,,,,,,,,,,,,,cyan,circle
214.0,7.0,2.0,1.0,3.0,3.0,348.7414705741685,1.0,1.0,phase_1,,,,,,,,,,,,,green,I
391.0,8.0,4.0,1.0,4.0,4.0,281.6170040896395,1.0,1.0,phase_1,,,,,,,,,,,,,magenta,flipped triangle
0.0,4.0,0.0,0.0,2.0,2.0,428.5847455903422,1.0,1.0,phase_1,,,,,,,,,,,,,white,cross
0.0,8.0,0.0,1.0,4.0,4.0,429.5305675768759,1.0,1.0,phase_1,,,,,,,,,,,,,magenta,flipped triangle
35.0,5.0,0.5,1.0,1.0,1.0,462.9496240522712,1.0,1.0,phase_1,,,,,,,,,,,,,yellow,triangle
192.0,3.0,2.0,0.0,2.0,2.0,442.2087690618355,1.0,1.0,phase_1,,,,,,,,,,,,,orange,square
400.0,4.0,4.0,0.0,4.0,4.0,453.1135300203459,1.0,1.0,phase_1,,,,,,,,,,,,,white,cross
186.0,3.0,2.0,0.0,1.0,1.0,488.2221341104014,1.0,1.0,phase_1,,,,,,,,,,,,,orange,square
87.0,6.0,1.0,1.0,3.0,3.0,351.7426110483939,1.0,1.0,phase_1,,,,,,,,,,,,,cyan,circle
423.0,8.0,4.0,1.0,2.0,2.0,399.4762700458523,1.0,1.0,phase_1,,,,,,,,,,,,,magenta,flipped triangle
75.0,2.0,1.0,0.0,2.0,2.0,400.4664405074436,1.0,1.0,phase_1,,,,,,,,,,,,,gray,diamond
213.0,7.0,2.0,1.0,1.0,1.0,422.0241135335527,1.0,1.0,phase_1,,,,,,,,,,,,,green,I
124.0,6.0,1.0,1.0,3.0,3.0,320.7995560223935,1.0,1.0,phase_1,,,,,,,,,,,,,cyan,circle
90.0,2.0,1.0,0.0,2.0,2.0,321.5247420303058,1.0,1.0,phase_1,,,,,,,,,,,,,gray,diamond
0.0,1.0,0.0,0.0,2.0,2.0,400.8685720473295,1.0,1.0,phase_1,,,,,,,,,,,,,blue,hexagon
31.0,1.0,0.5,0.0,1.0,1.0,357.6935530436458,1.0,1.0,phase_1,,,,,,,,,,,,,blue,hexagon
29.0,1.0,0.5,0.0,2.0,2.0,403.7528835178818,1.0,1.0,phase_1,,,,,,,,,,,,,blue,hexagon
200.0,3.0,2.0,0.0,2.0,2.0,449.2993570456747,1.0,1.0,phase_1,,,,,,,,,,,,,orange,square
86.0,2.0,1.0,0.0,4.0,4.0,358.6545010330155,1.0,1.0,phase_1,,,,,,,,,,,,,gray,diamond
0.0,6.0,0.0,1.0,3.0,3.0,404.7197410400258,1.0,1.0,phase_1,,,,,,,,,,,,,cyan,circle
0.0,7.0,0.0,1.0,3.0,3.0,437.3908985435264,1.0,1.0,phase_1,,,,,,,,,,,,,green,I
101.0,2.0,1.0,0.0,1.0,1.0,415.5552975280443,2.0,1.0,phase_1,,,,,,,,,,,,,gray,diamond
0.0,6.0,0.0,1.0,4.0,4.0,450.0859650870552,2.0,1.0,phase_1,,,,,,,,,,,,,cyan,circle
384.0,8.0,4.0,1.0,1.0,1.0,327.4991185317049,2.0,1.0,phase_1,,,,,,,,,,,,,magenta,flipped triangle
34.0,1.0,0.5,0.0,4.0,4.0,451.5278120234143,2.0,1.0,phase_1,,,,,,,,,,,,,blue,hexagon
176.0,3.0,2.0,0.0,2.0,2.0,430.197255598614,2.0,1.0,phase_1,,,,,,,,,,,,,orange,square
0.0,8.0,0.0,1.0,4.0,4.0,642.4362105317414,2.0,1.0,phase_1,,,,,,,,,,,,,magenta,flipped triangle
77.0,6.0,1.0,1.0,2.0,2.0,352.2939985414268,2.0,1.0,phase_1,,,,,,,,,,,,,cyan,circle
196.0,7.0,2.0,1.0,3.0,3.0,396.4008540497161,2.0,1.0,phase_1,,,,,,,,,,,,,green,I
0.0,3.0,0.0,0.0,3.0,3.0,352.897896504146,2.0,1.0,phase_1,,,,,,,,,,,,,orange,square
198.0,7.0,2.0,1.0,1.0,1.0,511.4208725717617,2.0,1.0,phase_1,,,,,,,,,,,,,green,I
95.0,2.0,1.0,0.0,4.0,4.0,342.799732054118,2.0,1.0,phase_1,,,,,,,,,,,,,gray,diamond
88.0,2.0,1.0,0.0,2.0,2.0,365.3063215751899,2.0,1.0,phase_1,,,,,,,,,,,,,gray,diamond
0.0,7.0,0.0,1.0,3.0,3.0,422.7169525111094,2.0,1.0,phase_1,,,,,,,,,,,,,green,I
60.0,5.0,0.5,1.0,1.0,1.0,356.4311120426282,2.0,1.0,phase_1,,,,,,,,,,,,,yellow,triangle
177.0,3.0,2.0,0.0,3.0,3.0,345.755976595683,2.0,1.0,phase_1,,,,,,,,,,,,,orange,square
410.0,4.0,4.0,0.0,4.0,4.0,368.0092170834541,2.0,1.0,phase_1,,,,,,,,,,,,,white,cross
68.0,5.0,0.5,1.0,1.0,1.0,369.5591340219835,2.0,1.0,phase_1,,,,,,,,,,,,,yellow,triangle
55.0,5.0,0.5,1.0,3.0,3.0,345.971557602752,2.0,1.0,phase_1,,,,,,,,,,,,,yellow,triangle
0.0,1.0,0.0,0.0,4.0,4.0,358.2969039998716,2.0,1.0,phase_1,,,,,,,,,,,,,blue,hexagon
56.0,5.0,0.5,1.0,1.0,1.0,358.648413530318,2.0,1.0,phase_1,,,,,,,,,,,,,yellow,triangle
64.0,5.0,0.5,1.0,3.0,3.0,415.3481155954068,2.0,1.0,phase_1,,,,,,,,,,,,,yellow,triangle
113.0,2.0,1.0,0.0,2.0,2.0,440.1396840257803,2.0,1.0,phase_1,,,,,,,,,,,,,gray,diamond
118.0,6.0,1.0,1.0,3.0,3.0,347.9066700238036,2.0,1.0,phase_1,,,,,,,,,,,,,cyan,circle
91.0,2.0,1.0,0.0,2.0,2.0,396.342976091546,2.0,1.0,phase_1,,,,,,,,,,,,,gray,diamond
382.0,8.0,4.0,1.0,4.0,4.0,462.3190095298923,2.0,1.0,phase_1,,,,,,,,,,,,,magenta,flipped triangle
402.0,8.0,4.0,1.0,3.0,3.0,361.9725616008509,2.0,1.0,phase_1,,,,,,,,,,,,,magenta,flipped triangle
0.0,4.0,0.0,0.0,1.0,1.0,329.2336235754192,2.0,1.0,phase_1,,,,,,,,,,,,,white,cross
213.0,3.0,2.0,0.0,1.0,1.0,364.4890931027476,2.0,1.0,phase_1,,,,,,,,,,,,,orange,square
103.0,6.0,1.0,1.0,1.0,1.0,374.888731050305,2.0,1.0,phase_1,,,,,,,,,,,,,cyan,circle
0.0,8.0,0.0,1.0,3.0,3.0,352.03232253843447,2.0,1.0,phase_1,,,,,,,,,,,,,magenta,flipped triangle
36.0,5.0,0.5,1.0,1.0,1.0,320.9558725793613,2.0,1.0,phase_1,,,,,,,,,,,,,yellow,triangle
0.0,8.0,0.0,1.0,4.0,4.0,557.6816315879114,2.0,1.0,phase_1,,,,,,,,,,,,,magenta,flipped triangle
196.0,3.0,2.0,0.0,1.0,1.0,366.7307035357225,2.0,1.0,phase_1,,,,,,,,,,,,,orange,square
0.0,1.0,0.0,0.0,1.0,1.0,502.679310113308,2.0,1.0,phase_1,,,,,,,,,,,,,blue,hexagon
45.0,5.0,0.5,1.0,2.0,2.0,581.9902715011267,2.0,1.0,phase_1,,,,,,,,,,,,,yellow,triangle
48.0,1.0,0.5,0.0,3.0,3.0,897.2793181164889,2.0,1.0,phase_1,,,,,,,,,,,,,blue,hexagon
423.0,8.0,4.0,1.0,3.0,3.0,637.7422265795758,2.0,1.0,phase_1,,,,,,,,,,,,,magenta,flipped triangle
381.0,4.0,4.0,0.0,4.0,4.0,593.2769745704718,2.0,1.0,phase_1,,,,,,,,,,,,,white,cross
68.0,1.0,0.5,0.0,3.0,3.0,526.4923345384886,2.0,1.0,phase_1,,,,,,,,,,,,,blue,hexagon
124.0,6.0,1.0,1.0,4.0,4.0,539.2748630401911,2.0,1.0,phase_1,,,,,,,,,,,,,cyan,circle
384.0,4.0,4.0,0.0,2.0,2.0,438.9067665906623,2.0,1.0,phase_1,,,,,,,,,,,,,white,cross
53.0,1.0,0.5,0.0,4.0,4.0,933.0433235300006,2.0,1.0,phase_1,,,,,,,,,,,,,blue,hexagon
183.0,3.0,2.0,0.0,4.0,4.0,506.97629804199096,2.0,1.0,phase_1,,,,,,,,,,,,,orange,square
99.0,2.0,1.0,0.0,4.0,4.0,404.9767950200476,2.0,1.0,phase_1,,,,,,,,,,,,,gray,diamond
0.0,5.0,0.0,1.0,3.0,3.0,507.6532120874617,2.0,1.0,phase_1,,,,,,,,,,,,,yellow,triangle
54.0,5.0,0.5,1.0,4.0,4.0,518.671302110306,2.0,1.0,phase_1,,,,,,,,,,,,,yellow,triangle
0.0,7.0,0.0,1.0,3.0,3.0,406.1293361155549,2.0,1.0,phase_1,,,,,,,,,,,,,green,I
58.0,5.0,0.5,1.0,1.0,1.0,554.717832535971,2.0,1.0,phase_1,,,,,,,,,,,,,yellow,triangle
218.0,3.0,2.0,0.0,2.0,2.0,465.6041769922012,2.0,1.0,phase_1,,,,,,,,,,,,,orange,square
86.0,6.0,1.0,1.0,1.0,1.0,431.5393625875003,2.0,1.0,phase_1,,,,,,,,,,,,,cyan,circle
28.0,5.0,0.5,1.0,2.0,2.0,444.9178135109832,2.0,1.0,phase_1,,,,,,,,,,,,,yellow,triangle
91.0,6.0,1.0,1.0,2.0,2.0,376.9811730890069,2.0,1.0,phase_1,,,,,,,,,,,,,cyan,circle
0.0,2.0,0.0,0.0,4.0,4.0,421.6201466188067,2.0,1.0,phase_1,,,,,,,,,,,,,gray,diamond
0.0,2.0,0.0,0.0,2.0,2.0,354.7766941192094,2.0,1.0,phase_1,,,,,,,,,,,,,gray,diamond
379.0,4.0,4.0,0.0,2.0,2.0,377.5779490388231,2.0,1.0,phase_1,,,,,,,,,,,,,white,cross
106.0,6.0,1.0,1.0,2.0,2.0,380.0712475349428,2.0,1.0,phase_1,,,,,,,,,,,,,cyan,circle
207.0,7.0,2.0,1.0,1.0,1.0,515.6284360127756,2.0,1.0,phase_1,,,,,,,,,,,,,green,I
190.0,3.0,2.0,0.0,2.0,2.0,390.486625576159,2.0,1.0,phase_1,,,,,,,,,,,,,orange,square
392.0,8.0,4.0,1.0,2.0,2.0,391.5354485361604,2.0,1.0,phase_1,,,,,,,,,,,,,magenta,flipped triangle
221.0,3.0,2.0,0.0,3.0,3.0,481.1082495725713,2.0,1.0,phase_1,,,,,,,,,,,,,orange,square
186.0,7.0,2.0,1.0,4.0,4.0,515.4488750558812,2.0,1.0,phase_1,,,,,,,,,,,,,green,I
69.0,5.0,0.5,1.0,4.0,4.0,471.3793485134374,2.0,1.0,phase_1,,,,,,,,,,,,,yellow,triangle
221.0,7.0,2.0,1.0,2.0,2.0,427.2221891151275,2.0,1.0,phase_1,,,,,,,,,,,,,green,I
381.0,8.0,4.0,1.0,4.0,4.0,495.1834415405756,2.0,1.0,phase_1,,,,,,,,,,,,,magenta,flipped triangle
36.0,1.0,0.5,0.0,2.0,2.0,450.9196161088766,2.0,1.0,phase_1,,,,,,,,,,,,,blue,hexagon
121.0,2.0,1.0,0.0,2.0,2.0,496.8712150293868,2.0,1.0,phase_1,,,,,,,,,,,,,gray,diamond
0.0,7.0,0.0,1.0,4.0,4.0,441.0194435913581,2.0,1.0,phase_1,,,,,,,,,,,,,green,I
61.0,1.0,0.5,0.0,3.0,3.0,543.4748675324954,2.0,1.0,phase_1,,,,,,,,,,,,,blue,hexagon
83.0,2.0,1.0,0.0,1.0,1.0,881.6349250846542,2.0,1.0,phase_1,,,,,,,,,,,,,gray,diamond
0.0,8.0,0.0,1.0,1.0,1.0,476.9457160873571,2.0,1.0,phase_1,,,,,,,,,,,,,magenta,flipped triangle
411.0,8.0,4.0,1.0,3.0,3.0,678.950497545884,2.0,1.0,phase_1,,,,,,,,,,,,,magenta,flipped triangle
402.0,4.0,4.0,0.0,3.0,3.0,433.2917781139258,2.0,1.0,phase_1,,,,,,,,,,,,,white,cross
206.0,7.0,2.0,1.0,4.0,4.0,365.3657565737376,2.0,1.0,phase_1,,,,,,,,,,,,,green,I
223.0,3.0,2.0,0.0,3.0,3.0,376.1301896010991,2.0,1.0,phase_1,,,,,,,,,,,,,orange,square
222.0,7.0,2.0,1.0,2.0,2.0,422.5981659983517,2.0,1.0,phase_1,,,,,,,,,,,,,green,I
407.0,8.0,4.0,1.0,3.0,3.0,366.0818635835312,2.0,1.0,phase_1,,,,,,,,,,,,,magenta,flipped triangle
45.0,1.0,0.5,0.0,2.0,2.0,413.150199514348,2.0,1.0,phase_1,,,,,,,,,,,,,blue,hexagon
0.0,5.0,0.0,1.0,3.0,3.0,357.2475855762604,2.0,1.0,phase_1,,,,,,,,,,,,,yellow,triangle
379.0,4.0,4.0,0.0,4.0,4.0,324.5050410187104,2.0,1.0,phase_1,,,,,,,,,,,,,white,cross
396.0,4.0,4.0,0.0,1.0,1.0,403.2804155140184,2.0,1.0,phase_1,,,,,,,,,,,,,white,cross
125.0,6.0,1.0,1.0,1.0,1.0,415.7638025062624,2.0,1.0,phase_1,,,,,,,,,,,,,cyan,circle
0.0,3.0,0.0,0.0,3.0,3.0,461.2652795913163,2.0,2.0,phase_1,,,,,,,,,,,,,orange,square
401.0,8.0,4.0,1.0,2.0,2.0,393.9454765204573,2.0,1.0,phase_1,,,,,,,,,,,,,magenta,flipped triangle
103.0,6.0,1.0,1.0,2.0,2.0,483.9894285105401,2.0,1.0,phase_1,,,,,,,,,,,,,cyan,circle
117.0,2.0,1.0,0.0,1.0,1.0,486.7036000796361,2.0,1.0,phase_1,,,,,,,,,,,,,gray,diamond
38.0,1.0,0.5,0.0,1.0,1.0,475.4893905774224,2.0,1.0,phase_1,,,,,,,,,,,,,blue,hexagon
413.0,4.0,4.0,0.0,2.0,2.0,351.5421270858496,2.0,1.0,phase_1,,,,,,,,,,,,,white,cross
0.0,7.0,0.0,1.0,3.0,3.0,419.8837420844938,2.0,1.0,phase_1,,,,,,,,,,,,,green,I
190.0,7.0,2.0,1.0,4.0,4.0,453.4661955985939,2.0,1.0,phase_1,,,,,,,,,,,,,green,I
0.0,6.0,0.0,1.0,2.0,2.0,399.0544990811031,2.0,1.0,phase_1,,,,,,,,,,,,,cyan,circle
0.0,1.0,0.0,0.0,1.0,1.0,398.7581795081496,2.0,1.0,phase_1,,,,,,,,,,,,,blue,hexagon
61.0,5.0,0.5,1.0,1.0,1.0,490.6147710426012,2.0,1.0,phase_1,,,,,,,,,,,,,yellow,triangle
28.0,1.0,0.5,0.0,1.0,1.0,445.3517315996578,2.0,1.0,phase_1,,,,,,,,,,,,,blue,hexagon
0.0,6.0,0.0,1.0,4.0,4.0,422.1490895142779,2.0,1.0,phase_1,,,,,,,,,,,,,cyan,circle
103.0,2.0,1.0,0.0,4.0,4.0,401.5304980857763,2.0,1.0,phase_1,,,,,,,,,,,,,gray,diamond
190.0,3.0,2.0,0.0,4.0,4.0,423.5882475768449,2.0,1.0,phase_1,,,,,,,,,,,,,orange,square
0.0,4.0,0.0,0.0,4.0,4.0,358.1218721083132,2.0,1.0,phase_1,,,,,,,,,,,,,white,cross
381.0,8.0,4.0,1.0,2.0,2.0,415.1920605072519,2.0,1.0,phase_1,,,,,,,,,,,,,magenta,flipped triangle
91.0,2.0,1.0,0.0,4.0,4.0,380.5760295217624,2.0,1.0,phase_1,,,,,,,,,,,,,gray,diamond
413.0,8.0,4.0,1.0,3.0,3.0,492.7907625969965,2.0,1.0,phase_1,,,,,,,,,,,,,magenta,flipped triangle
200.0,7.0,2.0,1.0,4.0,4.0,426.6220781137235,3.0,1.0,phase_1,,,,,,,,,,,,,green,I
197.0,7.0,2.0,1.0,2.0,2.0,427.6113630767213,3.0,1.0,phase_1,,,,,,,,,,,,,green,I
194.0,3.0,2.0,0.0,1.0,1.0,372.316255030455,3.0,1.0,phase_1,,,,,,,,,,,,,orange,square
223.0,7.0,2.0,1.0,2.0,2.0,463.9915680018021,3.0,1.0,phase_1,,,,,,,,,,,,,green,I
0.0,1.0,0.0,0.0,2.0,2.0,464.772740524495,3.0,1.0,phase_1,,,,,,,,,,,,,blue,hexagon
0.0,6.0,0.0,1.0,1.0,1.0,418.7806481058942,3.0,1.0,phase_1,,,,,,,,,,,,,cyan,circle
177.0,7.0,2.0,1.0,3.0,3.0,542.1638290572446,3.0,1.0,phase_1,,,,,,,,,,,,,green,I
416.0,8.0,4.0,1.0,1.0,1.0,453.1387815368362,3.0,1.0,phase_1,,,,,,,,,,,,,magenta,flipped triangle
396.0,8.0,4.0,1.0,4.0,4.0,376.7022030369844,3.0,1.0,phase_1,,,,,,,,,,,,,magenta,flipped triangle
406.0,4.0,4.0,0.0,1.0,1.0,432.2600120794959,3.0,1.0,phase_1,,,,,,,,,,,,,white,cross
0.0,6.0,0.0,1.0,3.0,3.0,342.8634730516933,3.0,1.0,phase_1,,,,,,,,,,,,,cyan,circle
206.0,7.0,2.0,1.0,2.0,2.0,433.6734030221123,3.0,1.0,phase_1,,,,,,,,,,,,,green,I
0.0,1.0,0.0,0.0,4.0,4.0,399.8860710853478,3.0,1.0,phase_1,,,,,,,,,,,,,blue,hexagon
124.0,2.0,1.0,0.0,3.0,3.0,401.0505159967579,3.0,1.0,phase_1,,,,,,,,,,,,,gray,diamond
0.0,5.0,0.0,1.0,4.0,4.0,445.7306185213383,3.0,1.0,phase_1,,,,,,,,,,,,,yellow,triangle
220.0,3.0,2.0,0.0,3.0,3.0,379.9587780958973,3.0,1.0,phase_1,,,,,,,,,,,,,orange,square
408.0,4.0,4.0,0.0,1.0,1.0,516.2750045128632,3.0,1.0,phase_1,,,,,,,,,,,,,white,cross
417.0,4.0,4.0,0.0,1.0,1.0,436.6691875911783,3.0,1.0,phase_1,,,,,,,,,,,,,white,cross
219.0,3.0,2.0,0.0,4.0,4.0,370.8974479959579,3.0,1.0,phase_1,,,,,,,,,,,,,orange,square
113.0,6.0,1.0,1.0,1.0,1.0,505.1726355450228,3.0,1.0,phase_1,,,,,,,,,,,,,cyan,circle
77.0,2.0,1.0,0.0,3.0,3.0,359.3298635241808,3.0,1.0,phase_1,,,,,,,,,,,,,gray,diamond
408.0,8.0,4.0,1.0,1.0,1.0,518.3298445917899,3.0,1.0,phase_1,,,,,,,,,,,,,magenta,flipped triangle
101.0,6.0,1.0,1.0,1.0,1.0,461.297360016033,3.0,1.0,phase_1,,,,,,,,,,,,,cyan,circle
406.0,8.0,4.0,1.0,1.0,1.0,383.1368410319555,3.0,1.0,phase_1,,,,,,,,,,,,,magenta,flipped triangle
0.0,2.0,0.0,0.0,4.0,4.0,407.1291495783953,3.0,1.0,phase_1,,,,,,,,,,,,,gray,diamond
399.0,8.0,4.0,1.0,1.0,1.0,407.2232895996421,3.0,1.0,phase_1,,,,,,,,,,,,,magenta,flipped triangle
207.0,3.0,2.0,0.0,3.0,3.0,384.870497538941,3.0,1.0,phase_1,,,,,,,,,,,,,orange,square
0.0,7.0,0.0,1.0,3.0,3.0,521.9867220293963,3.0,2.0,phase_1,,,,,,,,,,,,,green,I
58.0,1.0,0.5,0.0,2.0,2.0,465.9491406200686,3.0,1.0,phase_1,,,,,,,,,,,,,blue,hexagon
211.0,7.0,2.0,1.0,2.0,2.0,377.5096051103901,3.0,1.0,phase_1,,,,,,,,,,,,,green,I
183.0,3.0,2.0,0.0,1.0,1.0,376.6202286060434,3.0,1.0,phase_1,,,,,,,,,,,,,orange,square
63.0,5.0,0.5,1.0,3.0,3.0,389.2865630914457,3.0,1.0,phase_1,,,,,,,,,,,,,yellow,triangle
206.0,3.0,2.0,0.0,4.0,4.0,390.1549030415481,3.0,1.0,phase_1,,,,,,,,,,,,,orange,square
0.0,5.0,0.0,1.0,3.0,3.0,388.4991040540626,3.0,1.0,phase_1,,,,,,,,,,,,,yellow,triangle
0.0,6.0,0.0,1.0,4.0,4.0,368.2461085409159,3.0,1.0,phase_1,,,,,,,,,,,,,cyan,circle
386.0,8.0,4.0,1.0,2.0,2.0,447.297339051147,3.0,1.0,phase_1,,,,,,,,,,,,,magenta,flipped triangle
91.0,6.0,1.0,1.0,4.0,4.0,390.5802855733782,3.0,1.0,phase_1,,,,,,,,,,,,,cyan,circle
31.0,5.0,0.5,1.0,4.0,4.0,335.0345835788175,3.0,1.0,phase_1,,,,,,,,,,,,,yellow,triangle
52.0,1.0,0.5,0.0,2.0,2.0,414.9473715078784,3.0,1.0,phase_1,,,,,,,,,,,,,blue,hexagon
53.0,5.0,0.5,1.0,1.0,1.0,539.1631281090667,3.0,1.0,phase_1,,,,,,,,,,,,,yellow,triangle
382.0,4.0,4.0,0.0,2.0,2.0,382.1680595283396,3.0,1.0,phase_1,,,,,,,,,,,,,white,cross
30.0,1.0,0.5,0.0,3.0,3.0,562.1693651046371,3.0,1.0,phase_1,,,,,,,,,,,,,blue,hexagon
417.0,8.0,4.0,1.0,2.0,2.0,393.9109690836631,3.0,1.0,phase_1,,,,,,,,,,,,,magenta,flipped triangle
390.0,8.0,4.0,1.0,2.0,2.0,374.2420395137742,3.0,1.0,phase_1,,,,,,,,,,,,,magenta,flipped triangle
41.0,5.0,0.5,1.0,4.0,4.0,407.5311726192012,3.0,1.0,phase_1,,,,,,,,,,,,,yellow,triangle
423.0,4.0,4.0,0.0,3.0,3.0,385.9483661071863,3.0,1.0,phase_1,,,,,,,,,,,,,white,cross
113.0,6.0,1.0,1.0,4.0,4.0,486.4600930304732,3.0,1.0,phase_1,,,,,,,,,,,,,cyan,circle
69.0,1.0,0.5,0.0,1.0,1.0,477.0377375389216,3.0,1.0,phase_1,,,,,,,,,,,,,blue,hexagon
76.0,6.0,1.0,1.0,4.0,4.0,296.9264121056767,3.0,1.0,phase_1,,,,,,,,,,,,,cyan,circle
380.0,4.0,4.0,0.0,3.0,3.0,410.2396821108414,3.0,1.0,phase_1,,,,,,,,,,,,,white,cross
112.0,2.0,1.0,0.0,4.0,4.0,353.9950301055796,3.0,1.0,phase_1,,,,,,,,,,,,,gray,diamond
398.0,8.0,4.0,1.0,1.0,1.0,412.0992185780778,3.0,1.0,phase_1,,,,,,,,,,,,,magenta,flipped triangle
33.0,5.0,0.5,1.0,2.0,2.0,435.4134785680799,3.0,1.0,phase_1,,,,,,,,,,,,,yellow,triangle
418.0,4.0,4.0,0.0,4.0,4.0,323.0253175715916,3.0,1.0,phase_1,,,,,,,,,,,,,white,cross
200.0,3.0,2.0,0.0,1.0,1.0,378.4074905415764,3.0,1.0,phase_1,,,,,,,,,,,,,orange,square
395.0,8.0,4.0,1.0,3.0,3.0,391.2786525324918,3.0,1.0,phase_1,,,,,,,,,,,,,magenta,flipped triangle
399.0,4.0,4.0,0.0,3.0,3.0,390.1566416025162,3.0,1.0,phase_1,,,,,,,,,,,,,white,cross
400.0,8.0,4.0,1.0,1.0,1.0,449.307442017016,3.0,1.0,phase_1,,,,,,,,,,,,,magenta,flipped triangle
99.0,2.0,1.0,0.0,2.0,2.0,414.9701205315068,3.0,1.0,phase_1,,,,,,,,,,,,,gray,diamond
70.0,1.0,0.5,0.0,2.0,2.0,416.8653755623381,3.0,1.0,phase_1,,,,,,,,,,,,,blue,hexagon
52.0,5.0,0.5,1.0,1.0,1.0,483.5984820238082,3.0,1.0,phase_1,,,,,,,,,,,,,yellow,triangle
0.0,7.0,0.0,1.0,2.0,2.0,337.3286265414208,3.0,1.0,phase_1,,,,,,,,,,,,,green,I
376.0,4.0,4.0,0.0,3.0,3.0,406.3183025282342,3.0,1.0,phase_1,,,,,,,,,,,,,white,cross
50.0,5.0,0.5,1.0,3.0,3.0,360.8958855766104,3.0,1.0,phase_1,,,,,,,,,,,,,yellow,triangle
376.0,8.0,4.0,1.0,4.0,4.0,441.0157851089025,3.0,1.0,phase_1,,,,,,,,,,,,,magenta,flipped triangle
83.0,6.0,1.0,1.0,2.0,2.0,397.6929981145076,3.0,1.0,phase_1,,,,,,,,,,,,,cyan,circle
199.0,7.0,2.0,1.0,3.0,3.0,520.3807670768583,3.0,1.0,phase_1,,,,,,,,,,,,,green,I
0.0,1.0,0.0,0.0,3.0,3.0,363.8578485843027,3.0,1.0,phase_1,,,,,,,,,,,,,blue,hexagon
26.0,5.0,0.5,1.0,2.0,2.0,320.6767975352704,3.0,1.0,phase_1,,,,,,,,,,,,,yellow,triangle
401.0,4.0,4.0,0.0,3.0,3.0,353.0690040497575,3.0,1.0,phase_1,,,,,,,,,,,,,white,cross
38.0,5.0,0.5,1.0,3.0,3.0,398.9670160372043,3.0,1.0,phase_1,,,,,,,,,,,,,yellow,triangle
45.0,5.0,0.5,1.0,2.0,2.0,333.384038603981,3.0,1.0,phase_1,,,,,,,,,,,,,yellow,triangle
407.0,4.0,4.0,0.0,4.0,4.0,568.6779005336575,3.0,1.0,phase_1,,,,,,,,,,,,,white,cross
0.0,4.0,0.0,0.0,2.0,2.0,379.2227705707773,3.0,1.0,phase_1,,,,,,,,,,,,,white,cross
90.0,2.0,1.0,0.0,3.0,3.0,343.7050609936705,3.0,1.0,phase_1,,,,,,,,,,,,,gray,diamond
26.0,1.0,0.5,0.0,4.0,4.0,435.3527030325494,3.0,1.0,phase_1,,,,,,,,,,,,,blue,hexagon
0.0,3.0,0.0,0.0,3.0,3.0,334.2572726251092,3.0,1.0,phase_1,,,,,,,,,,,,,orange,square
204.0,7.0,2.0,1.0,1.0,1.0,402.452756112325,3.0,1.0,phase_1,,,,,,,,,,,,,green,I
55.0,1.0,0.5,0.0,3.0,3.0,302.9989270289661,3.0,1.0,phase_1,,,,,,,,,,,,,blue,hexagon
195.0,7.0,2.0,1.0,4.0,4.0,414.1252809931757,3.0,1.0,phase_1,,,,,,,,,,,,,green,I
196.0,7.0,2.0,1.0,1.0,1.0,426.2172660528449,3.0,1.0,phase_1,,,,,,,,,,,,,green,I
0.0,8.0,0.0,1.0,2.0,2.0,496.4910136040998,3.0,1.0,phase_1,,,,,,,,,,,,,magenta,flipped triangle
0.0,6.0,0.0,1.0,4.0,4.0,561.9952355045825,3.0,1.0,phase_1,,,,,,,,,,,,,cyan,circle
176.0,7.0,2.0,1.0,2.0,2.0,338.4338370815385,3.0,1.0,phase_1,,,,,,,,,,,,,green,I
90.0,6.0,1.0,1.0,1.0,1.0,508.5431299958145,3.0,1.0,phase_1,,,,,,,,,,,,,cyan,circle
41.0,5.0,0.5,1.0,2.0,2.0,352.0402990980074,3.0,1.0,phase_1,,,,,,,,,,,,,yellow,triangle
408.0,8.0,4.0,1.0,1.0,1.0,352.1095230535138,3.0,1.0,phase_1,,,,,,,,,,,,,magenta,flipped triangle
0.0,6.0,0.0,1.0,1.0,1.0,463.8689015991986,3.0,1.0,phase_1,,,,,,,,,,,,,cyan,circle
88.0,2.0,1.0,0.0,4.0,4.0,487.4837590468814,3.0,1.0,phase_1,,,,,,,,,,,,,gray,diamond
92.0,2.0,1.0,0.0,2.0,2.0,353.8378321100026,3.0,1.0,phase_1,,,,,,,,,,,,,gray,diamond
422.0,8.0,4.0,1.0,4.0,4.0,420.7215116039151,3.0,1.0,phase_1,,,,,,,,,,,,,magenta,flipped triangle
0.0,3.0,0.0,0.0,2.0,2.0,365.676114015514,3.0,1.0,phase_1,,,,,,,,,,,,,orange,square
220.0,7.0,2.0,1.0,3.0,3.0,501.9542560476111,3.0,1.0,phase_1,,,,,,,,,,,,,green,I
0.0,2.0,0.0,0.0,2.0,2.0,354.9921515368623,3.0,1.0,phase_1,,,,,,,,,,,,,gray,diamond
419.0,8.0,4.0,1.0,4.0,4.0,368.0202600226039,3.0,1.0,phase_1,,,,,,,,,,,,,magenta,flipped triangle
379.0,8.0,4.0,1.0,3.0,3.0,367.2102560813073,3.0,1.0,phase_1,,,,,,,,,,,,,magenta,flipped triangle
187.0,7.0,2.0,1.0,4.0,4.0,424.2115970264422,3.0,1.0,phase_1,,,,,,,,,,,,,green,I
48.0,5.0,0.5,1.0,3.0,3.0,367.9955956031335,3.0,1.0,phase_1,,,,,,,,,,,,,yellow,triangle
75.0,1.0,0.5,0.0,1.0,1.0,560.6537430285243,3.0,1.0,phase_1,,,,,,,,,,,,,blue,hexagon
0.0,4.0,0.0,0.0,1.0,1.0,551.2689910829067,3.0,1.0,phase_1,,,,,,,,,,,,,white,cross
422.0,4.0,4.0,0.0,1.0,1.0,400.9524824941763,4.0,1.0,phase_1,,,,,,,,,,,,,white,cross
101.0,2.0,1.0,0.0,2.0,2.0,402.790997599368,4.0,1.0,phase_1,,,,,,,,,,,,,gray,diamond
29.0,5.0,0.5,1.0,2.0,2.0,402.023907576222,4.0,1.0,phase_1,,,,,,,,,,,,,yellow,triangle
61.0,1.0,0.5,0.0,2.0,2.0,369.1694045846816,4.0,1.0,phase_1,,,,,,,,,,,,,blue,hexagon
212.0,3.0,2.0,0.0,1.0,1.0,460.6467755074845,4.0,1.0,phase_1,,,,,,,,,,,,,orange,square
0.0,3.0,0.0,0.0,4.0,4.0,381.0976430831942,4.0,1.0,phase_1,,,,,,,,,,,,,orange,square
0.0,5.0,0.0,1.0,3.0,3.0,404.7039964643772,4.0,1.0,phase_1,,,,,,,,,,,,,yellow,triangle
0.0,2.0,0.0,0.0,3.0,3.0,404.9813806050224,4.0,1.0,phase_1,,,,,,,,,,,,,gray,diamond
0.0,8.0,0.0,1.0,1.0,1.0,384.1283467190806,4.0,1.0,phase_1,,,,,,,,,,,,,magenta,flipped triangle
179.0,7.0,2.0,1.0,3.0,3.0,439.8788075777702,4.0,1.0,phase_1,,,,,,,,,,,,,green,I
197.0,3.0,2.0,0.0,4.0,4.0,395.3035020531388,4.0,1.0,phase_1,,,,,,,,,,,,,orange,square
417.0,4.0,4.0,0.0,1.0,1.0,406.7838675982784,4.0,1.0,phase_1,,,,,,,,,,,,,white,cross
99.0,6.0,1.0,1.0,3.0,3.0,453.8878760795342,4.0,1.0,phase_1,,,,,,,,,,,,,cyan,circle
414.0,8.0,4.0,1.0,2.0,2.0,420.0883185258135,4.0,1.0,phase_1,,,,,,,,,,,,,magenta,flipped triangle
391.0,8.0,4.0,1.0,2.0,2.0,454.8367275274358,4.0,1.0,phase_1,,,,,,,,,,,,,magenta,flipped triangle
43.0,1.0,0.5,0.0,4.0,4.0,533.5333025141153,4.0,1.0,phase_1,,,,,,,,,,,,,blue,hexagon
376.0,4.0,4.0,0.0,2.0,2.0,478.4182455332484,4.0,1.0,phase_1,,,,,,,,,,,,,white,cross
33.0,1.0,0.5,0.0,4.0,4.0,387.439027079381,4.0,1.0,phase_1,,,,,,,,,,,,,blue,hexagon
45.0,1.0,0.5,0.0,2.0,2.0,489.7724025213392,4.0,1.0,phase_1,,,,,,,,,,,,,blue,hexagon
0.0,1.0,0.0,0.0,4.0,4.0,377.3305460490519,4.0,1.0,phase_1,,,,,,,,,,,,,blue,hexagon
0.0,4.0,0.0,0.0,4.0,4.0,424.2759535700315,4.0,1.0,phase_1,,,,,,,,,,,,,white,cross
38.0,5.0,0.5,1.0,1.0,1.0,434.6256671124138,4.0,1.0,phase_1,,,,,,,,,,,,,yellow,triangle
0.0,5.0,0.0,1.0,4.0,4.0,380.775934580015,4.0,1.0,phase_1,,,,,,,,,,,,,yellow,triangle
57.0,5.0,0.5,1.0,4.0,4.0,424.5452235481934,4.0,1.0,phase_1,,,,,,,,,,,,,yellow,triangle
190.0,7.0,2.0,1.0,1.0,1.0,460.9450395364547,4.0,1.0,phase_1,,,,,,,,,,,,,green,I
41.0,1.0,0.5,0.0,2.0,2.0,425.9746795869432,4.0,1.0,phase_1,,,,,,,,,,,,,blue,hexagon
386.0,4.0,4.0,0.0,2.0,2.0,460.8274160127621,4.0,1.0,phase_1,,,,,,,,,,,,,white,cross
61.0,5.0,0.5,1.0,2.0,2.0,483.3440200309269,4.0,1.0,phase_1,,,,,,,,,,,,,yellow,triangle
90.0,6.0,1.0,1.0,4.0,4.0,461.4011215453502,4.0,1.0,phase_1,,,,,,,,,,,,,cyan,circle
87.0,6.0,1.0,1.0,4.0,4.0,439.4153555040248,4.0,1.0,phase_1,,,,,,,,,,,,,cyan,circle
219.0,7.0,2.0,1.0,4.0,4.0,394.9044445762411,4.0,1.0,phase_1,,,,,,,,,,,,,green,I
199.0,3.0,2.0,0.0,2.0,2.0,440.2430940535851,4.0,1.0,phase_1,,,,,,,,,,,,,orange,square
195.0,3.0,2.0,0.0,3.0,3.0,530.8146060415311,4.0,1.0,phase_1,,,,,,,,,,,,,orange,square
179.0,3.0,2.0,0.0,2.0,2.0,576.4171450282447,4.0,1.0,phase_1,,,,,,,,,,,,,orange,square
0.0,7.0,0.0,1.0,4.0,4.0,431.1521980998805,4.0,1.0,phase_1,,,,,,,,,,,,,green,I
218.0,7.0,2.0,1.0,2.0,2.0,376.2257370253792,4.0,1.0,phase_1,,,,,,,,,,,,,green,I
0.0,5.0,0.0,1.0,2.0,2.0,488.3306510746479,4.0,1.0,phase_1,,,,,,,,,,,,,yellow,triangle
53.0,5.0,0.5,1.0,3.0,3.0,443.4377719881013,4.0,1.0,phase_1,,,,,,,,,,,,,yellow,triangle
223.0,7.0,2.0,1.0,4.0,4.0,489.2961385048693,4.0,1.0,phase_1,,,,,,,,,,,,,green,I
30.0,5.0,0.5,1.0,4.0,4.0,332.769435539376,4.0,1.0,phase_1,,,,,,,,,,,,,yellow,triangle
214.0,3.0,2.0,0.0,3.0,3.0,366.7572166305035,4.0,1.0,phase_1,,,,,,,,,,,,,orange,square
410.0,8.0,4.0,1.0,4.0,4.0,333.1024011131376,4.0,1.0,phase_1,,,,,,,,,,,,,magenta,flipped triangle
107.0,2.0,1.0,0.0,2.0,2.0,491.7584435461322,4.0,1.0,phase_1,,,,,,,,,,,,,gray,diamond
41.0,1.0,0.5,0.0,2.0,2.0,381.0178955172887,4.0,1.0,phase_1,,,,,,,,,,,,,blue,hexagon
88.0,6.0,1.0,1.0,2.0,2.0,346.7653555708239,4.0,1.0,phase_1,,,,,,,,,,,,,cyan,circle
418.0,8.0,4.0,1.0,1.0,1.0,436.6752605128567,4.0,1.0,phase_1,,,,,,,,,,,,,magenta,flipped triangle
124.0,2.0,1.0,0.0,1.0,1.0,551.7232465062989,4.0,1.0,phase_1,,,,,,,,,,,,,gray,diamond
0.0,2.0,0.0,0.0,1.0,1.0,439.2566740280017,4.0,1.0,phase_1,,,,,,,,,,,,,gray,diamond
117.0,6.0,1.0,1.0,3.0,3.0,450.1075100852176,4.0,1.0,phase_1,,,,,,,,,,,,,cyan,circle
43.0,5.0,0.5,1.0,4.0,4.0,394.5949460321571,4.0,1.0,phase_1,,,,,,,,,,,,,yellow,triangle
0.0,1.0,0.0,0.0,1.0,1.0,384.9538345384644,4.0,1.0,phase_1,,,,,,,,,,,,,blue,hexagon
95.0,6.0,1.0,1.0,2.0,2.0,440.5009585316293,4.0,1.0,phase_1,,,,,,,,,,,,,cyan,circle
392.0,4.0,4.0,0.0,2.0,2.0,417.823253039387,4.0,1.0,phase_1,,,,,,,,,,,,,white,cross
110.0,6.0,1.0,1.0,2.0,2.0,430.149151594378,4.0,1.0,phase_1,,,,,,,,,,,,,cyan,circle
223.0,3.0,2.0,0.0,2.0,2.0,385.9417655330617,4.0,1.0,phase_1,,,,,,,,,,,,,orange,square
120.0,2.0,1.0,0.0,3.0,3.0,543.7420915259281,4.0,1.0,phase_1,,,,,,,,,,,,,gray,diamond
106.0,2.0,1.0,0.0,1.0,1.0,544.5374780829297,4.0,1.0,phase_1,,,,,,,,,,,,,gray,diamond
109.0,2.0,1.0,0.0,3.0,3.0,466.059281519847,4.0,1.0,phase_1,,,,,,,,,,,,,gray,diamond
69.0,1.0,0.5,0.0,1.0,1.0,366.5932785661425,4.0,1.0,phase_1,,,,,,,,,,,,,blue,hexagon
69.0,5.0,0.5,1.0,2.0,2.0,445.7548425416462,4.0,1.0,phase_1,,,,,,,,,,,,,yellow,triangle
0.0,5.0,0.0,1.0,3.0,3.0,478.5445440356852,4.0,1.0,phase_1,,,,,,,,,,,,,yellow,triangle
0.0,4.0,0.0,0.0,4.0,4.0,422.6600480178604,4.0,1.0,phase_1,,,,,,,,,,,,,white,cross
194.0,7.0,2.0,1.0,1.0,1.0,334.0120665088761,4.0,1.0,phase_1,,,,,,,,,,,,,green,I
69.0,1.0,0.5,0.0,3.0,3.0,425.5615160509478,4.0,1.0,phase_1,,,,,,,,,,,,,blue,hexagon
0.0,8.0,0.0,1.0,2.0,2.0,335.0113110209349,4.0,1.0,phase_1,,,,,,,,,,,,,magenta,flipped triangle
186.0,7.0,2.0,1.0,2.0,2.0,324.3658785067964,4.0,1.0,phase_1,,,,,,,,,,,,,green,I
179.0,7.0,2.0,1.0,3.0,3.0,426.4136716228677,4.0,1.0,phase_1,,,,,,,,,,,,,green,I
376.0,8.0,4.0,1.0,3.0,3.0,394.1539990919409,4.0,1.0,phase_1,,,,,,,,,,,,,magenta,flipped triangle
206.0,3.0,2.0,0.0,1.0,1.0,382.1862968761707,4.0,1.0,phase_1,,,,,,,,,,,,,orange,square
75.0,6.0,1.0,1.0,3.0,3.0,394.9658576020738,4.0,1.0,phase_1,,,,,,,,,,,,,cyan,circle
119.0,2.0,1.0,0.0,1.0,1.0,383.9614356111269,4.0,1.0,phase_1,,,,,,,,,,,,,gray,diamond
191.0,7.0,2.0,1.0,4.0,4.0,373.7491650390439,4.0,1.0,phase_1,,,,,,,,,,,,,green,I
191.0,3.0,2.0,0.0,4.0,4.0,327.618586103199,4.0,1.0,phase_1,,,,,,,,,,,,,orange,square
92.0,6.0,1.0,1.0,1.0,1.0,397.9095085669542,4.0,1.0,phase_1,,,,,,,,,,,,,cyan,circle
77.0,6.0,1.0,1.0,4.0,4.0,340.0884470465826,4.0,1.0,phase_1,,,,,,,,,,,,,cyan,circle
0.0,2.0,0.0,0.0,3.0,3.0,430.8320390846347,4.0,1.0,phase_1,,,,,,,,,,,,,gray,diamond
206.0,3.0,2.0,0.0,3.0,3.0,409.5734750444535,4.0,1.0,phase_1,,,,,,,,,,,,,orange,square
400.0,4.0,4.0,0.0,3.0,3.0,420.7886425137985,4.0,1.0,phase_1,,,,,,,,,,,,,white,cross
99.0,6.0,1.0,1.0,1.0,1.0,433.7949790788116,4.0,1.0,phase_1,,,,,,,,,,,,,cyan,circle
107.0,6.0,1.0,1.0,3.0,3.0,376.254996022908,4.0,1.0,phase_1,,,,,,,,,,,,,cyan,circle
62.0,1.0,0.5,0.0,4.0,4.0,344.0703385131201,4.0,1.0,phase_1,,,,,,,,,,,,,blue,hexagon
38.0,1.0,0.5,0.0,4.0,4.0,344.1297741082962,4.0,1.0,phase_1,,,,,,,,,,,,,blue,hexagon
412.0,8.0,4.0,1.0,2.0,2.0,380.5756080255378,4.0,1.0,phase_1,,,,,,,,,,,,,magenta,flipped triangle
0.0,4.0,0.0,0.0,3.0,3.0,412.2820190532366,4.0,1.0,phase_1,,,,,,,,,,,,,white,cross
177.0,3.0,2.0,0.0,1.0,1.0,435.5086250288877,4.0,1.0,phase_1,,,,,,,,,,,,,orange,square
69.0,5.0,0.5,1.0,2.0,2.0,458.6284635443007,4.0,1.0,phase_1,,,,,,,,,,,,,yellow,triangle
183.0,7.0,2.0,1.0,1.0,1.0,369.4941845460562,4.0,1.0,phase_1,,,,,,,,,,,,,green,I
103.0,2.0,1.0,0.0,4.0,4.0,403.6349071102449,4.0,1.0,phase_1,,,,,,,,,,,,,gray,diamond
54.0,1.0,0.5,0.0,4.0,4.0,484.4281010009581,4.0,1.0,phase_1,,,,,,,,,,,,,blue,hexagon
76.0,2.0,1.0,0.0,4.0,4.0,371.1290475766873,4.0,1.0,phase_1,,,,,,,,,,,,,gray,diamond
379.0,8.0,4.0,1.0,4.0,4.0,461.9108105835039,4.0,1.0,phase_1,,,,,,,,,,,,,magenta,flipped triangle
109.0,6.0,1.0,1.0,1.0,1.0,406.4291490503819,4.0,1.0,phase_1,,,,,,,,,,,,,cyan,circle
408.0,4.0,4.0,0.0,3.0,3.0,461.8956710473867,4.0,1.0,phase_1,,,,,,,,,,,,,white,cross
177.0,7.0,2.0,1.0,1.0,1.0,406.9293901120545,4.0,1.0,phase_1,,,,,,,,,,,,,green,I
186.0,3.0,2.0,0.0,1.0,1.0,432.0015080884332,4.0,1.0,phase_1,,,,,,,,,,,,,orange,square
198.0,3.0,2.0,0.0,4.0,4.0,386.4064495137427,4.0,1.0,phase_1,,,,,,,,,,,,,orange,square
0.0,5.0,0.0,1.0,2.0,2.0,377.1144670172361,4.0,1.0,phase_1,,,,,,,,,,,,,yellow,triangle
212.0,7.0,2.0,1.0,1.0,1.0,353.5671170830028,4.0,1.0,phase_1,,,,,,,,,,,,,green,I
0.0,3.0,0.0,0.0,1.0,1.0,445.1419981051003,4.0,1.0,phase_1,,,,,,,,,,,,,orange,square
206.0,7.0,2.0,1.0,3.0,3.0,590.6099026033189,4.0,1.0,phase_1,,,,,,,,,,,,,green,I
0.0,7.0,2.0,1.0,6.0,0.0,0.0,1.0,1.0,phase_2,stop,250.0,250.0,4.0,,,,,,,,,green,I
0.0,1.0,0.5,0.0,6.0,6.0,436.4720089506591,1.0,1.0,phase_2,go,250.0,300.0,1.0,,,,,,,,,blue,hexagon
0.0,6.0,1.0,1.0,5.0,5.0,415.5130589788314,1.0,1.0,phase_2,stop,250.0,300.0,3.0,,,,,,,,,cyan,circle
0.0,6.0,1.0,1.0,5.0,0.0,0.0,1.0,1.0,phase_2,stop,200.0,300.0,4.0,,,,,,,,,cyan,circle
0.0,4.0,4.0,0.0,6.0,6.0,416.6856919182464,1.0,1.0,phase_2,go,250.0,300.0,1.0,,,,,,,,,white,cross
0.0,5.0,0.5,1.0,6.0,0.0,0.0,1.0,1.0,phase_2,stop,250.0,300.0,4.0,,,,,,,,,yellow,triangle
0.0,2.0,1.0,0.0,5.0,5.0,653.9417289459379,1.0,1.0,phase_2,go,250.0,350.0,1.0,,,,,,,,,gray,diamond
0.0,4.0,4.0,0.0,5.0,5.0,632.8612630313728,1.0,1.0,phase_2,go,250.0,350.0,1.0,,,,,,,,,white,cross
0.0,8.0,4.0,1.0,6.0,0.0,0.0,1.0,1.0,phase_2,stop,250.0,350.0,4.0,,,,,,,,,magenta,flipped triangle
0.0,2.0,1.0,0.0,5.0,5.0,611.5169319527922,1.0,1.0,phase_2,go,250.0,400.0,1.0,,,,,,,,,gray,diamond
0.0,8.0,4.0,1.0,6.0,0.0,0.0,1.0,1.0,phase_2,stop,250.0,400.0,4.0,,,,,,,,,magenta,flipped triangle
0.0,4.0,4.0,0.0,6.0,6.0,534.7815148852533,1.0,1.0,phase_2,go,250.0,450.0,1.0,,,,,,,,,white,cross
0.0,4.0,4.0,0.0,6.0,6.0,569.9715685332194,1.0,1.0,phase_2,go,250.0,450.0,1.0,,,,,,,,,white,cross
0.0,3.0,2.0,0.0,5.0,5.0,602.7543228265131,1.0,1.0,phase_2,go,250.0,450.0,1.0,,,,,,,,,orange,square
0.0,4.0,4.0,0.0,6.0,6.0,659.9480417789891,1.0,1.0,phase_2,go,250.0,450.0,1.0,,,,,,,,,white,cross
0.0,1.0,0.5,0.0,6.0,6.0,368.2296189217595,1.0,1.0,phase_2,go,250.0,450.0,1.0,,,,,,,,,blue,hexagon
0.0,6.0,1.0,1.0,6.0,6.0,517.2492799465545,1.0,1.0,phase_2,stop,250.0,450.0,3.0,,,,,,,,,cyan,circle
0.0,8.0,4.0,1.0,6.0,6.0,572.2894609207287,1.0,1.0,phase_2,stop,250.0,400.0,3.0,,,,,,,,,magenta,flipped triangle
0.0,7.0,2.0,1.0,5.0,0.0,0.0,1.0,1.0,phase_2,stop,250.0,350.0,4.0,,,,,,,,,green,I
0.0,2.0,1.0,0.0,6.0,6.0,564.5395670289872,1.0,1.0,phase_2,go,300.0,350.0,1.0,,,,,,,,,gray,diamond
0.0,7.0,2.0,1.0,6.0,6.0,711.413822878967,1.0,1.0,phase_2,go,300.0,350.0,1.0,,,,,,,,,green,I
0.0,6.0,1.0,1.0,5.0,0.0,0.0,1.0,1.0,phase_2,stop,300.0,350.0,4.0,,,,,,,,,cyan,circle
0.0,3.0,2.0,0.0,5.0,5.0,532.5395758845843,1.0,1.0,phase_2,go,350.0,350.0,1.0,,,,,,,,,orange,square
0.0,4.0,4.0,0.0,6.0,6.0,566.070738772396,1.0,1.0,phase_2,go,350.0,350.0,1.0,,,,,,,,,white,cross
0.0,2.0,1.0,0.0,5.0,5.0,455.0751430360833,1.0,1.0,phase_2,go,350.0,350.0,1.0,,,,,,,,,gray,diamond
0.0,6.0,1.0,1.0,5.0,5.0,399.2063339683227,1.0,1.0,phase_2,stop,350.0,350.0,3.0,,,,,,,,,cyan,circle
0.0,2.0,1.0,0.0,6.0,6.0,536.7698928021127,1.0,1.0,phase_2,go,300.0,350.0,1.0,,,,,,,,,gray,diamond
0.0,5.0,0.5,1.0,5.0,5.0,593.695051051327,1.0,1.0,phase_2,go,300.0,350.0,1.0,,,,,,,,,yellow,triangle
0.0,1.0,0.5,0.0,6.0,6.0,547.840521830949,1.0,1.0,phase_2,go,300.0,350.0,1.0,,,,,,,,,blue,hexagon
0.0,3.0,2.0,0.0,5.0,5.0,481.0688618454151,1.0,1.0,phase_2,go,300.0,350.0,1.0,,,,,,,,,orange,square
0.0,7.0,2.0,1.0,5.0,0.0,0.0,1.0,1.0,phase_2,stop,300.0,350.0,4.0,,,,,,,,,green,I
0.0,6.0,1.0,1.0,6.0,6.0,516.8955048720818,1.0,1.0,phase_2,go,350.0,350.0,1.0,,,,,,,,,cyan,circle
0.0,3.0,2.0,0.0,5.0,5.0,440.2744209655793,1.0,1.0,phase_2,go,350.0,350.0,1.0,,,,,,,,,orange,square
0.0,7.0,2.0,1.0,6.0,6.0,529.9827199196443,1.0,1.0,phase_2,stop,350.0,350.0,3.0,,,,,,,,,green,I
0.0,3.0,2.0,0.0,5.0,5.0,565.9599939681357,1.0,1.0,phase_2,go,350.0,300.0,1.0,,,,,,,,,orange,square
0.0,3.0,2.0,0.0,6.0,6.0,588.838660827605,1.0,1.0,phase_2,go,350.0,300.0,1.0,,,,,,,,,orange,square
0.0,8.0,4.0,1.0,5.0,5.0,427.6322458463255,2.0,1.0,phase_2,stop,350.0,300.0,3.0,,,,,,,,,magenta,flipped triangle
0.0,5.0,0.5,1.0,5.0,5.0,417.463744917768,2.0,1.0,phase_2,go,300.0,300.0,1.0,,,,,,,,,yellow,triangle
0.0,6.0,1.0,1.0,6.0,6.0,418.4474918001797,2.0,1.0,phase_2,go,300.0,300.0,1.0,,,,,,,,,cyan,circle
0.0,3.0,2.0,0.0,6.0,6.0,386.6231548454379,2.0,1.0,phase_2,go,300.0,300.0,1.0,,,,,,,,,orange,square
0.0,8.0,4.0,1.0,5.0,5.0,533.2533678301843,2.0,1.0,phase_2,go,300.0,300.0,1.0,,,,,,,,,magenta,flipped triangle
0.0,8.0,4.0,1.0,5.0,5.0,386.5713557752315,2.0,1.0,phase_2,go,300.0,300.0,1.0,,,,,,,,,magenta,flipped triangle
0.0,2.0,1.0,0.0,6.0,6.0,478.9765729365172,2.0,1.0,phase_2,go,300.0,300.0,1.0,,,,,,,,,gray,diamond
0.0,7.0,2.0,1.0,6.0,6.0,399.5364459260599,2.0,1.0,phase_2,stop,300.0,300.0,3.0,,,,,,,,,green,I
0.0,2.0,1.0,0.0,6.0,6.0,525.156611809507,2.0,1.0,phase_2,go,300.0,250.0,1.0,,,,,,,,,gray,diamond
0.0,7.0,2.0,1.0,6.0,6.0,389.945024944609,2.0,1.0,phase_2,stop,300.0,250.0,3.0,,,,,,,,,green,I
0.0,6.0,1.0,1.0,5.0,5.0,470.348070768523,2.0,1.0,phase_2,go,300.0,200.0,1.0,,,,,,,,,cyan,circle
0.0,1.0,0.5,0.0,6.0,6.0,392.2277599485824,2.0,1.0,phase_2,go,300.0,200.0,1.0,,,,,,,,,blue,hexagon
0.0,7.0,2.0,1.0,5.0,5.0,427.2761718311813,2.0,1.0,phase_2,stop,300.0,200.0,3.0,,,,,,,,,green,I
0.0,7.0,2.0,1.0,5.0,5.0,541.4910105464514,2.0,1.0,phase_2,go,250.0,200.0,1.0,,,,,,,,,green,I
0.0,6.0,1.0,1.0,5.0,0.0,0.0,2.0,1.0,phase_2,stop,250.0,200.0,4.0,,,,,,,,,cyan,circle
0.0,5.0,0.5,1.0,5.0,5.0,428.6661618825746,2.0,1.0,phase_2,stop,300.0,200.0,3.0,,,,,,,,,yellow,triangle
0.0,6.0,1.0,1.0,6.0,0.0,0.0,2.0,1.0,phase_2,stop,250.0,200.0,4.0,,,,,,,,,cyan,circle
0.0,4.0,4.0,0.0,5.0,5.0,532.6762350596255,2.0,1.0,phase_2,go,250.0,250.0,1.0,,,,,,,,,white,cross
0.0,7.0,2.0,1.0,6.0,0.0,0.0,2.0,1.0,phase_2,stop,250.0,250.0,4.0,,,,,,,,,green,I
0.0,3.0,2.0,0.0,6.0,6.0,579.6658799226861,2.0,1.0,phase_2,go,250.0,300.0,1.0,,,,,,,,,orange,square
0.0,2.0,1.0,0.0,5.0,5.0,411.9331649708329,2.0,1.0,phase_2,go,250.0,300.0,1.0,,,,,,,,,gray,diamond
0.0,2.0,1.0,0.0,6.0,6.0,467.7871398016577,2.0,1.0,phase_2,go,250.0,300.0,1.0,,,,,,,,,gray,diamond
0.0,6.0,1.0,1.0,5.0,0.0,0.0,2.0,1.0,phase_2,stop,250.0,300.0,4.0,,,,,,,,,cyan,circle
0.0,8.0,4.0,1.0,5.0,0.0,0.0,2.0,1.0,phase_2,stop,300.0,300.0,4.0,,,,,,,,,magenta,flipped triangle
0.0,6.0,1.0,1.0,5.0,0.0,0.0,2.0,1.0,phase_2,stop,350.0,300.0,4.0,,,,,,,,,cyan,circle
0.0,6.0,1.0,1.0,6.0,6.0,359.0112970268819,2.0,1.0,phase_2,go,400.0,300.0,1.0,,,,,,,,,cyan,circle
0.0,3.0,2.0,0.0,5.0,5.0,539.2903919419041,2.0,1.0,phase_2,go,400.0,300.0,1.0,,,,,,,,,orange,square
0.0,7.0,2.0,1.0,5.0,5.0,551.4887998433551,2.0,1.0,phase_2,stop,400.0,300.0,3.0,,,,,,,,,green,I
0.0,4.0,4.0,0.0,5.0,5.0,542.2575507982401,2.0,1.0,phase_2,go,350.0,300.0,1.0,,,,,,,,,white,cross
0.0,2.0,1.0,0.0,6.0,6.0,632.7614548790734,2.0,1.0,phase_2,go,350.0,300.0,1.0,,,,,,,,,gray,diamond
0.0,5.0,0.5,1.0,6.0,0.0,0.0,2.0,1.0,phase_2,stop,350.0,300.0,4.0,,,,,,,,,yellow,triangle
0.0,4.0,4.0,0.0,6.0,6.0,565.4582668503281,2.0,1.0,phase_2,go,350.0,350.0,1.0,,,,,,,,,white,cross
0.0,6.0,1.0,1.0,6.0,0.0,0.0,2.0,1.0,phase_2,stop,350.0,350.0,4.0,,,,,,,,,cyan,circle
0.0,8.0,4.0,1.0,5.0,5.0,646.0708689992316,2.0,1.0,phase_2,go,350.0,400.0,1.0,,,,,,,,,magenta,flipped triangle
0.0,3.0,2.0,0.0,6.0,6.0,523.5852158657508,2.0,1.0,phase_2,go,350.0,400.0,1.0,,,,,,,,,orange,square
0.0,8.0,4.0,1.0,5.0,0.0,0.0,2.0,1.0,phase_2,stop,350.0,400.0,4.0,,,,,,,,,magenta,flipped triangle
0.0,7.0,2.0,1.0,5.0,5.0,499.6995889086975,3.0,1.0,phase_2,stop,400.0,400.0,3.0,,,,,,,,,green,I
0.0,4.0,4.0,0.0,6.0,6.0,432.8490259795217,3.0,1.0,phase_2,go,350.0,400.0,1.0,,,,,,,,,white,cross
0.0,5.0,0.5,1.0,5.0,5.0,490.3138548252173,3.0,1.0,phase_2,stop,350.0,400.0,3.0,,,,,,,,,yellow,triangle
0.0,7.0,2.0,1.0,6.0,0.0,0.0,3.0,1.0,phase_2,stop,300.0,400.0,4.0,,,,,,,,,green,I
0.0,4.0,4.0,0.0,6.0,6.0,480.2229530032491,3.0,1.0,phase_2,go,300.0,450.0,1.0,,,,,,,,,white,cross
0.0,7.0,2.0,1.0,5.0,0.0,0.0,3.0,1.0,phase_2,stop,300.0,450.0,4.0,,,,,,,,,green,I
0.0,7.0,2.0,1.0,5.0,5.0,561.3539819169091,3.0,1.0,phase_2,go,350.0,450.0,1.0,,,,,,,,,green,I
0.0,6.0,1.0,1.0,6.0,6.0,585.4132707463577,3.0,1.0,phase_2,stop,350.0,450.0,3.0,,,,,,,,,cyan,circle
0.0,5.0,0.5,1.0,5.0,5.0,685.8536369691137,3.0,1.0,phase_2,go,350.0,400.0,1.0,,,,,,,,,yellow,triangle
0.0,3.0,2.0,0.0,6.0,6.0,439.9701959191588,3.0,1.0,phase_2,go,350.0,400.0,1.0,,,,,,,,,orange,square
0.0,3.0,2.0,0.0,6.0,6.0,429.0156880015274,3.0,1.0,phase_2,go,350.0,400.0,1.0,,,,,,,,,orange,square
0.0,2.0,1.0,0.0,5.0,5.0,566.4880627737148,3.0,1.0,phase_2,go,350.0,400.0,1.0,,,,,,,,,gray,diamond
0.0,4.0,4.0,0.0,6.0,6.0,588.2131450634915,3.0,1.0,phase_2,go,350.0,400.0,1.0,,,,,,,,,white,cross
0.0,2.0,1.0,0.0,5.0,5.0,577.4491089541698,3.0,1.0,phase_2,go,350.0,400.0,1.0,,,,,,,,,gray,diamond
0.0,4.0,4.0,0.0,6.0,6.0,422.8122630593134,3.0,1.0,phase_2,go,350.0,400.0,1.0,,,,,,,,,white,cross
0.0,7.0,2.0,1.0,6.0,0.0,0.0,3.0,1.0,phase_2,stop,350.0,400.0,4.0,,,,,,,,,green,I
0.0,7.0,2.0,1.0,5.0,5.0,714.9513180338545,3.0,1.0,phase_2,go,350.0,450.0,1.0,,,,,,,,,green,I
0.0,4.0,4.0,0.0,6.0,6.0,481.0032649838831,3.0,1.0,phase_2,go,350.0,450.0,1.0,,,,,,,,,white,cross
0.0,8.0,4.0,1.0,6.0,6.0,435.657302790787,3.0,1.0,phase_2,stop,350.0,450.0,3.0,,,,,,,,,magenta,flipped triangle
0.0,6.0,1.0,1.0,6.0,6.0,729.9579188547796,3.0,1.0,phase_2,go,350.0,400.0,1.0,,,,,,,,,cyan,circle
0.0,7.0,2.0,1.0,5.0,0.0,0.0,3.0,1.0,phase_2,stop,350.0,400.0,4.0,,,,,,,,,green,I
0.0,3.0,2.0,0.0,6.0,6.0,606.5948597970419,3.0,1.0,phase_2,go,400.0,400.0,1.0,,,,,,,,,orange,square
0.0,5.0,0.5,1.0,6.0,0.0,0.0,3.0,1.0,phase_2,stop,400.0,400.0,4.0,,,,,,,,,yellow,triangle
0.0,8.0,4.0,1.0,5.0,5.0,609.4797508558258,3.0,1.0,phase_2,go,400.0,450.0,1.0,,,,,,,,,magenta,flipped triangle
0.0,5.0,0.5,1.0,5.0,0.0,0.0,3.0,1.0,phase_2,stop,400.0,450.0,4.0,,,,,,,,,yellow,triangle
0.0,3.0,2.0,0.0,6.0,6.0,407.575695993728,3.0,1.0,phase_2,go,450.0,450.0,1.0,,,,,,,,,orange,square
0.0,7.0,2.0,1.0,6.0,6.0,758.8815588242142,3.0,1.0,phase_2,go,450.0,450.0,1.0,,,,,,,,,green,I
0.0,1.0,0.5,0.0,6.0,6.0,454.7016958822496,3.0,1.0,phase_2,go,450.0,450.0,1.0,,,,,,,,,blue,hexagon
0.0,8.0,4.0,1.0,5.0,5.0,579.8394018638646,3.0,1.0,phase_2,stop,450.0,450.0,3.0,,,,,,,,,magenta,flipped triangle
0.0,8.0,4.0,1.0,5.0,5.0,558.4228909137892,3.0,1.0,phase_2,stop,400.0,450.0,3.0,,,,,,,,,magenta,flipped triangle
0.0,1.0,0.5,0.0,6.0,6.0,660.1125909219263,3.0,1.0,phase_2,go,350.0,450.0,1.0,,,,,,,,,blue,hexagon
0.0,2.0,1.0,0.0,5.0,5.0,515.6922639143886,3.0,1.0,phase_2,go,350.0,450.0,1.0,,,,,,,,,gray,diamond
0.0,7.0,2.0,1.0,6.0,0.0,0.0,3.0,1.0,phase_2,stop,350.0,450.0,4.0,,,,,,,,,green,I
0.0,5.0,0.5,1.0,6.0,6.0,764.2485579999629,3.0,1.0,phase_2,go,350.0,500.0,1.0,,,,,,,,,yellow,triangle
0.0,2.0,1.0,0.0,5.0,5.0,585.0894508039346,3.0,1.0,phase_2,go,350.0,500.0,1.0,,,,,,,,,gray,diamond
0.0,7.0,2.0,1.0,5.0,5.0,363.2854897732613,3.0,1.0,phase_2,stop,350.0,500.0,3.0,,,,,,,,,green,I
0.0,2.0,1.0,0.0,6.0,6.0,475.097761824145,4.0,1.0,phase_2,go,300.0,500.0,1.0,,,,,,,,,gray,diamond
0.0,5.0,0.5,1.0,5.0,0.0,0.0,4.0,1.0,phase_2,stop,300.0,500.0,4.0,,,,,,,,,yellow,triangle
0.0,1.0,0.5,0.0,5.0,5.0,488.5776279697893,4.0,1.0,phase_2,go,350.0,500.0,1.0,,,,,,,,,blue,hexagon
0.0,1.0,0.5,0.0,6.0,6.0,601.7255688784644,4.0,1.0,phase_2,go,350.0,500.0,1.0,,,,,,,,,blue,hexagon
0.0,8.0,4.0,1.0,6.0,6.0,410.6693768553668,4.0,1.0,phase_2,stop,350.0,500.0,3.0,,,,,,,,,magenta,flipped triangle
0.0,5.0,0.5,1.0,6.0,0.0,0.0,4.0,1.0,phase_2,stop,350.0,450.0,4.0,,,,,,,,,yellow,triangle
0.0,3.0,2.0,0.0,6.0,6.0,581.4125058823265,4.0,1.0,phase_2,go,350.0,500.0,1.0,,,,,,,,,orange,square
0.0,5.0,0.5,1.0,6.0,6.0,784.6012838126626,4.0,1.0,phase_2,go,350.0,500.0,1.0,,,,,,,,,yellow,triangle
0.0,5.0,0.5,1.0,5.0,0.0,0.0,4.0,1.0,phase_2,stop,350.0,500.0,4.0,,,,,,,,,yellow,triangle
0.0,6.0,1.0,1.0,5.0,0.0,0.0,4.0,1.0,phase_2,stop,400.0,500.0,4.0,,,,,,,,,cyan,circle
0.0,6.0,1.0,1.0,5.0,0.0,0.0,4.0,1.0,phase_2,stop,450.0,500.0,4.0,,,,,,,,,cyan,circle
0.0,4.0,4.0,0.0,5.0,5.0,462.0581148046767,4.0,1.0,phase_2,go,500.0,500.0,1.0,,,,,,,,,white,cross
0.0,6.0,1.0,1.0,5.0,5.0,541.3178568560397,4.0,1.0,phase_2,go,500.0,500.0,1.0,,,,,,,,,cyan,circle
0.0,2.0,1.0,0.0,6.0,6.0,440.9963428479386,4.0,1.0,phase_2,go,500.0,500.0,1.0,,,,,,,,,gray,diamond
0.0,7.0,2.0,1.0,5.0,0.0,0.0,4.0,1.0,phase_2,stop,500.0,500.0,4.0,,,,,,,,,green,I
0.0,8.0,4.0,1.0,6.0,6.0,914.7369519487256,4.0,1.0,phase_2,go,550.0,500.0,1.0,,,,,,,,,magenta,flipped triangle
0.0,8.0,4.0,1.0,5.0,0.0,0.0,4.0,1.0,phase_2,stop,550.0,500.0,4.0,,,,,,,,,magenta,flipped triangle
0.0,8.0,4.0,1.0,5.0,0.0,0.0,4.0,1.0,phase_2,stop,600.0,500.0,4.0,,,,,,,,,magenta,flipped triangle
0.0,2.0,1.0,0.0,5.0,5.0,536.183855831041,4.0,1.0,phase_2,go,650.0,500.0,1.0,,,,,,,,,gray,diamond
0.0,4.0,4.0,0.0,5.0,5.0,513.5221048258245,4.0,1.0,phase_2,go,650.0,500.0,1.0,,,,,,,,,white,cross
0.0,3.0,2.0,0.0,5.0,5.0,615.263147832593,4.0,1.0,phase_2,go,650.0,500.0,1.0,,,,,,,,,orange,square
0.0,6.0,1.0,1.0,5.0,5.0,831.7368458519923,4.0,1.0,phase_2,stop,650.0,500.0,3.0,,,,,,,,,cyan,circle
0.0,4.0,4.0,0.0,6.0,6.0,539.1484427818796,4.0,1.0,phase_2,go,600.0,500.0,1.0,,,,,,,,,white,cross
0.0,4.0,4.0,0.0,5.0,5.0,473.6292109446367,4.0,1.0,phase_2,go,600.0,500.0,1.0,,,,,,,,,white,cross
0.0,3.0,2.0,0.0,5.0,5.0,507.596426847158,4.0,1.0,phase_2,go,600.0,500.0,1.0,,,,,,,,,orange,square
0.0,8.0,4.0,1.0,6.0,0.0,0.0,4.0,1.0,phase_2,stop,600.0,500.0,4.0,,,,,,,,,magenta,flipped triangle
0.0,5.0,0.5,1.0,6.0,0.0,0.0,4.0,1.0,phase_2,stop,600.0,550.0,4.0,,,,,,,,,yellow,triangle
0.0,2.0,1.0,0.0,6.0,6.0,532.2321819257922,4.0,1.0,phase_2,go,600.0,600.0,1.0,,,,,,,,,gray,diamond
0.0,3.0,2.0,0.0,5.0,5.0,533.5659649135778,4.0,1.0,phase_2,go,600.0,600.0,1.0,,,,,,,,,orange,square
0.0,4.0,4.0,0.0,5.0,5.0,612.2707048780285,4.0,1.0,phase_2,go,600.0,600.0,1.0,,,,,,,,,white,cross
0.0,1.0,0.5,0.0,6.0,6.0,579.3612428533379,4.0,1.0,phase_2,go,600.0,600.0,1.0,,,,,,,,,blue,hexagon
0.0,6.0,1.0,1.0,6.0,6.0,861.031748863752,4.0,1.0,phase_2,go,600.0,600.0,1.0,,,,,,,,,cyan,circle
0.0,2.0,1.0,0.0,5.0,5.0,501.48265992174856,4.0,1.0,phase_2,go,600.0,600.0,1.0,,,,,,,,,gray,diamond
0.0,2.0,1.0,0.0,6.0,6.0,391.3649589812848,4.0,1.0,phase_2,go,600.0,600.0,1.0,,,,,,,,,gray,diamond
0.0,7.0,2.0,1.0,6.0,6.0,773.5408709413605,4.0,1.0,phase_2,stop,600.0,600.0,3.0,,,,,,,,,green,I
0.0,4.0,4.0,0.0,5.0,5.0,494.7567029448692,4.0,1.0,phase_2,go,600.0,550.0,1.0,,,,,,,,,white,cross
0.0,6.0,1.0,1.0,6.0,6.0,540.999150951393,5.0,1.0,phase_2,stop,600.0,550.0,3.0,,,,,,,,,cyan,circle
0.0,3.0,2.0,0.0,5.0,5.0,485.9336378285661,5.0,1.0,phase_2,go,600.0,500.0,1.0,,,,,,,,,orange,square
0.0,3.0,2.0,0.0,5.0,5.0,452.3733309470117,5.0,1.0,phase_2,go,600.0,500.0,1.0,,,,,,,,,orange,square
0.0,8.0,4.0,1.0,5.0,0.0,0.0,5.0,1.0,phase_2,stop,600.0,500.0,4.0,,,,,,,,,magenta,flipped triangle
0.0,2.0,1.0,0.0,5.0,5.0,588.8999609305756,5.0,1.0,phase_2,go,650.0,500.0,1.0,,,,,,,,,gray,diamond
0.0,2.0,1.0,0.0,5.0,5.0,488.9169889211189,5.0,1.0,phase_2,go,650.0,500.0,1.0,,,,,,,,,gray,diamond
0.0,4.0,4.0,0.0,5.0,5.0,544.8944889503764,5.0,1.0,phase_2,go,650.0,500.0,1.0,,,,,,,,,white,cross
0.0,3.0,2.0,0.0,6.0,6.0,511.8628719210392,5.0,1.0,phase_2,go,650.0,500.0,1.0,,,,,,,,,orange,square
0.0,7.0,2.0,1.0,6.0,0.0,0.0,5.0,1.0,phase_2,stop,650.0,500.0,4.0,,,,,,,,,green,I
0.0,4.0,4.0,0.0,5.0,5.0,594.0008099423721,5.0,1.0,phase_2,go,650.0,550.0,1.0,,,,,,,,,white,cross
0.0,7.0,2.0,1.0,6.0,0.0,0.0,5.0,1.0,phase_2,stop,650.0,550.0,4.0,,,,,,,,,green,I
0.0,5.0,0.5,1.0,6.0,0.0,0.0,5.0,1.0,phase_2,stop,650.0,600.0,4.0,,,,,,,,,yellow,triangle
0.0,7.0,2.0,1.0,5.0,0.0,0.0,5.0,1.0,phase_2,stop,650.0,650.0,4.0,,,,,,,,,green,I
0.0,5.0,0.5,1.0,6.0,6.0,675.1548577740323,5.0,1.0,phase_2,go,700.0,650.0,1.0,,,,,,,,,yellow,triangle
0.0,5.0,0.5,1.0,5.0,5.0,833.033128772513,5.0,1.0,phase_2,stop,700.0,650.0,3.0,,,,,,,,,yellow,triangle
0.0,4.0,4.0,0.0,6.0,6.0,574.1013009246672,5.0,1.0,phase_2,go,650.0,650.0,1.0,,,,,,,,,white,cross
0.0,6.0,1.0,1.0,5.0,0.0,0.0,5.0,1.0,phase_2,stop,650.0,650.0,4.0,,,,,,,,,cyan,circle
0.0,5.0,0.5,1.0,5.0,0.0,0.0,5.0,1.0,phase_2,stop,700.0,650.0,4.0,,,,,,,,,yellow,triangle
0.0,7.0,2.0,1.0,5.0,5.0,1118.2373339688638,5.0,1.0,phase_2,go,750.0,650.0,1.0,,,,,,,,,green,I
0.0,7.0,2.0,1.0,5.0,0.0,0.0,5.0,1.0,phase_2,stop,750.0,650.0,4.0,,,,,,,,,green,I
0.0,3.0,2.0,0.0,5.0,5.0,523.3429209474707,5.0,1.0,phase_2,go,800.0,650.0,1.0,,,,,,,,,orange,square
0.0,7.0,2.0,1.0,5.0,5.0,828.7556707364274,5.0,1.0,phase_2,go,800.0,650.0,1.0,,,,,,,,,green,I
0.0,4.0,4.0,0.0,5.0,5.0,670.4555358737707,5.0,1.0,phase_2,go,800.0,650.0,1.0,,,,,,,,,white,cross
0.0,5.0,0.5,1.0,6.0,0.0,0.0,5.0,1.0,phase_2,stop,800.0,650.0,4.0,,,,,,,,,yellow,triangle
0.0,3.0,2.0,0.0,6.0,6.0,536.5606878767721,5.0,1.0,phase_2,go,800.0,700.0,1.0,,,,,,,,,orange,square
0.0,8.0,4.0,1.0,6.0,6.0,942.6044997671852,5.0,1.0,phase_2,stop,800.0,700.0,3.0,,,,,,,,,magenta,flipped triangle
0.0,6.0,1.0,1.0,6.0,0.0,0.0,5.0,1.0,phase_2,stop,800.0,650.0,4.0,,,,,,,,,cyan,circle
0.0,6.0,1.0,1.0,6.0,0.0,0.0,5.0,1.0,phase_2,stop,800.0,700.0,4.0,,,,,,,,,cyan,circle
0.0,1.0,0.5,0.0,5.0,5.0,665.5223928246414,5.0,1.0,phase_2,go,800.0,750.0,1.0,,,,,,,,,blue,hexagon
0.0,4.0,4.0,0.0,6.0,6.0,565.3487308154581,5.0,1.0,phase_2,go,800.0,750.0,1.0,,,,,,,,,white,cross
0.0,6.0,1.0,1.0,5.0,0.0,0.0,5.0,1.0,phase_2,stop,800.0,750.0,4.0,,,,,,,,,cyan,circle
0.0,1.0,0.5,0.0,6.0,6.0,643.6886599403806,5.0,1.0,phase_2,go,850.0,750.0,1.0,,,,,,,,,blue,hexagon
0.0,2.0,1.0,0.0,5.0,5.0,531.8202279449906,5.0,1.0,phase_2,go,850.0,750.0,1.0,,,,,,,,,gray,diamond
0.0,2.0,1.0,0.0,6.0,6.0,421.1521419492783,5.0,1.0,phase_2,go,850.0,750.0,1.0,,,,,,,,,gray,diamond
0.0,4.0,4.0,0.0,5.0,5.0,456.840298968018,5.0,1.0,phase_2,go,850.0,750.0,1.0,,,,,,,,,white,cross
0.0,4.0,4.0,0.0,5.0,5.0,457.1723479457432,5.0,1.0,phase_2,go,850.0,750.0,1.0,,,,,,,,,white,cross
0.0,6.0,1.0,1.0,6.0,0.0,0.0,6.0,1.0,phase_2,stop,850.0,750.0,4.0,,,,,,,,,cyan,circle
0.0,6.0,1.0,1.0,6.0,6.0,935.701654831064,6.0,1.0,phase_2,stop,850.0,800.0,3.0,,,,,,,,,cyan,circle
0.0,1.0,0.5,0.0,5.0,5.0,544.0093019424239,6.0,1.0,phase_2,go,850.0,750.0,1.0,,,,,,,,,blue,hexagon
0.0,8.0,4.0,1.0,6.0,0.0,0.0,6.0,1.0,phase_2,stop,850.0,750.0,4.0,,,,,,,,,magenta,flipped triangle
0.0,1.0,0.5,0.0,5.0,5.0,488.3595028222771,6.0,1.0,phase_2,go,850.0,800.0,1.0,,,,,,,,,blue,hexagon
0.0,1.0,0.5,0.0,5.0,5.0,477.4951119470643,6.0,1.0,phase_2,go,850.0,800.0,1.0,,,,,,,,,blue,hexagon
0.0,1.0,0.5,0.0,5.0,5.0,457.5408889795653,6.0,1.0,phase_2,go,850.0,800.0,1.0,,,,,,,,,blue,hexagon
0.0,2.0,1.0,0.0,6.0,6.0,468.619008854148,6.0,1.0,phase_2,go,850.0,800.0,1.0,,,,,,,,,gray,diamond
0.0,2.0,1.0,0.0,5.0,5.0,446.9794548786012,6.0,1.0,phase_2,go,850.0,800.0,1.0,,,,,,,,,gray,diamond
0.0,1.0,0.5,0.0,5.0,5.0,560.2438778005308,6.0,1.0,phase_2,go,850.0,800.0,1.0,,,,,,,,,blue,hexagon
0.0,8.0,4.0,1.0,6.0,6.0,436.6951969714137,6.0,1.0,phase_2,go,850.0,800.0,1.0,,,,,,,,,magenta,flipped triangle
0.0,1.0,0.5,0.0,5.0,5.0,505.2691869495902,6.0,1.0,phase_2,go,850.0,800.0,1.0,,,,,,,,,blue,hexagon
0.0,1.0,0.5,0.0,6.0,6.0,528.3547029393958,6.0,1.0,phase_2,go,850.0,800.0,1.0,,,,,,,,,blue,hexagon
0.0,6.0,1.0,1.0,6.0,6.0,935.9644110809312,6.0,1.0,phase_2,stop,850.0,800.0,3.0,,,,,,,,,cyan,circle
0.0,8.0,4.0,1.0,6.0,6.0,1296.3096179737477,6.0,1.0,phase_2,go,850.0,750.0,1.0,,,,,,,,,magenta,flipped triangle
0.0,6.0,1.0,1.0,5.0,0.0,0.0,6.0,1.0,phase_2,stop,850.0,750.0,4.0,,,,,,,,,cyan,circle
0.0,3.0,2.0,0.0,6.0,6.0,565.9069048706442,6.0,1.0,phase_2,go,900.0,750.0,1.0,,,,,,,,,orange,square
0.0,8.0,4.0,1.0,5.0,0.0,0.0,6.0,1.0,phase_2,stop,900.0,750.0,4.0,,,,,,,,,magenta,flipped triangle
0.0,6.0,1.0,1.0,5.0,5.0,1310.2312069677282,6.0,1.0,phase_2,go,950.0,750.0,1.0,,,,,,,,,cyan,circle
0.0,3.0,2.0,0.0,6.0,6.0,500.4217288806103,6.0,1.0,phase_2,go,950.0,750.0,1.0,,,,,,,,,orange,square
0.0,7.0,2.0,1.0,6.0,0.0,0.0,6.0,1.0,phase_2,stop,950.0,750.0,4.0,,,,,,,,,green,I
0.0,3.0,2.0,0.0,6.0,6.0,557.9269738518633,6.0,1.0,phase_2,go,950.0,800.0,1.0,,,,,,,,,orange,square
0.0,5.0,0.5,1.0,5.0,0.0,0.0,6.0,1.0,phase_2,stop,950.0,800.0,4.0,,,,,,,,,yellow,triangle
0.0,7.0,2.0,1.0,6.0,6.0,998.9746708306484,6.0,1.0,phase_2,go,1000.0,800.0,1.0,,,,,,,,,green,I
0.0,2.0,1.0,0.0,6.0,6.0,594.248684879858,6.0,1.0,phase_2,go,1000.0,800.0,1.0,,,,,,,,,gray,diamond
0.0,1.0,0.5,0.0,5.0,5.0,551.0672557720682,6.0,1.0,phase_2,go,1000.0,800.0,1.0,,,,,,,,,blue,hexagon
0.0,4.0,4.0,0.0,5.0,5.0,417.9968419484794,6.0,1.0,phase_2,go,1000.0,800.0,1.0,,,,,,,,,white,cross
0.0,8.0,4.0,1.0,6.0,0.0,0.0,6.0,1.0,phase_2,stop,1000.0,800.0,4.0,,,,,,,,,magenta,flipped triangle
0.0,2.0,1.0,0.0,6.0,6.0,530.5273029516684,6.0,1.0,phase_2,go,1000.0,850.0,1.0,,,,,,,,,gray,diamond
0.0,4.0,4.0,0.0,5.0,5.0,554.6347449708264,6.0,1.0,phase_2,go,1000.0,850.0,1.0,,,,,,,,,white,cross
0.0,1.0,0.5,0.0,5.0,5.0,430.7125627674395,6.0,1.0,phase_2,go,1000.0,850.0,1.0,,,,,,,,,blue,hexagon
0.0,6.0,1.0,1.0,6.0,0.0,0.0,6.0,1.0,phase_2,stop,1000.0,850.0,4.0,,,,,,,,,cyan,circle
0.0,1.0,0.5,0.0,5.0,5.0,490.8484827756183,6.0,1.0,phase_2,go,1000.0,900.0,1.0,,,,,,,,,blue,hexagon
0.0,3.0,2.0,0.0,6.0,6.0,500.4481108626351,6.0,1.0,phase_2,go,1000.0,900.0,1.0,,,,,,,,,orange,square
0.0,5.0,0.5,1.0,5.0,0.0,0.0,6.0,1.0,phase_2,stop,1000.0,900.0,4.0,,,,,,,,,yellow,triangle
0.0,8.0,4.0,1.0,6.0,6.0,1019.7930935682962,6.0,1.0,phase_2,go,1050.0,900.0,1.0,,,,,,,,,magenta,flipped triangle
0.0,1.0,0.5,0.0,5.0,5.0,399.4414370099548,7.0,1.0,phase_2,go,1050.0,900.0,1.0,,,,,,,,,blue,hexagon
0.0,4.0,4.0,0.0,6.0,6.0,467.5778698001522,7.0,1.0,phase_2,go,1050.0,900.0,1.0,,,,,,,,,white,cross
0.0,4.0,4.0,0.0,5.0,5.0,445.4266269749496,7.0,1.0,phase_2,go,1050.0,900.0,1.0,,,,,,,,,white,cross
0.0,5.0,0.5,1.0,6.0,6.0,897.4226959253429,7.0,1.0,phase_2,stop,1050.0,900.0,3.0,,,,,,,,,yellow,triangle
0.0,1.0,0.5,0.0,6.0,6.0,470.3855279949493,7.0,1.0,phase_2,go,1050.0,850.0,1.0,,,,,,,,,blue,hexagon
0.0,8.0,4.0,1.0,5.0,5.0,820.7629999233177,7.0,1.0,phase_2,stop,1050.0,850.0,3.0,,,,,,,,,magenta,flipped triangle
0.0,3.0,2.0,0.0,5.0,5.0,449.7378087398829,7.0,1.0,phase_2,go,1000.0,850.0,1.0,,,,,,,,,orange,square
0.0,3.0,2.0,0.0,5.0,5.0,418.063041739515,7.0,1.0,phase_2,go,1000.0,850.0,1.0,,,,,,,,,orange,square
0.0,8.0,4.0,1.0,5.0,5.0,1070.5347308248747,7.0,1.0,phase_2,go,1000.0,850.0,1.0,,,,,,,,,magenta,flipped triangle
0.0,1.0,0.5,0.0,6.0,6.0,464.6607828763081,7.0,1.0,phase_2,go,1000.0,850.0,1.0,,,,,,,,,blue,hexagon
0.0,2.0,1.0,0.0,5.0,5.0,441.8730500183301,7.0,1.0,phase_2,go,1000.0,850.0,1.0,,,,,,,,,gray,diamond
0.0,3.0,2.0,0.0,6.0,6.0,419.6908818557858,7.0,1.0,phase_2,go,1000.0,850.0,1.0,,,,,,,,,orange,square
0.0,8.0,4.0,1.0,6.0,0.0,0.0,7.0,1.0,phase_2,stop,1000.0,850.0,4.0,,,,,,,,,magenta,flipped triangle
0.0,6.0,1.0,1.0,6.0,6.0,1219.9536709085803,7.0,1.0,phase_2,go,1000.0,900.0,1.0,,,,,,,,,cyan,circle
0.0,6.0,1.0,1.0,6.0,0.0,0.0,7.0,1.0,phase_2,stop,1000.0,900.0,4.0,,,,,,,,,cyan,circle
0.0,1.0,0.5,0.0,6.0,6.0,546.637292849482,7.0,1.0,phase_2,go,1000.0,950.0,1.0,,,,,,,,,blue,hexagon
0.0,4.0,4.0,0.0,6.0,6.0,491.7636117752408,7.0,1.0,phase_2,go,1000.0,950.0,1.0,,,,,,,,,white,cross
0.0,7.0,2.0,1.0,5.0,5.0,1290.6111700285692,7.0,1.0,phase_2,stop,1000.0,950.0,3.0,,,,,,,,,green,I
0.0,2.0,1.0,0.0,6.0,6.0,505.30980080657173,7.0,1.0,phase_2,go,950.0,950.0,1.0,,,,,,,,,gray,diamond
0.0,1.0,0.5,0.0,5.0,5.0,516.512094749487,7.0,1.0,phase_2,go,950.0,950.0,1.0,,,,,,,,,blue,hexagon
0.0,7.0,2.0,1.0,6.0,6.0,1022.8913648315938,7.0,1.0,phase_2,stop,950.0,950.0,3.0,,,,,,,,,green,I
0.0,4.0,4.0,0.0,5.0,5.0,508.177598923794,7.0,1.0,phase_2,go,950.0,900.0,1.0,,,,,,,,,white,cross
0.0,8.0,4.0,1.0,5.0,0.0,0.0,7.0,1.0,phase_2,stop,950.0,900.0,4.0,,,,,,,,,magenta,flipped triangle
0.0,1.0,0.5,0.0,5.0,5.0,564.1594389744569,7.0,1.0,phase_2,go,1000.0,900.0,1.0,,,,,,,,,blue,hexagon
0.0,1.0,0.5,0.0,6.0,6.0,497.8587557416176,7.0,1.0,phase_2,go,1000.0,900.0,1.0,,,,,,,,,blue,hexagon
0.0,1.0,0.5,0.0,6.0,6.0,419.9271649122238,7.0,1.0,phase_2,go,1000.0,900.0,1.0,,,,,,,,,blue,hexagon
0.0,5.0,0.5,1.0,5.0,5.0,1164.838712924393,7.0,1.0,phase_2,stop,1000.0,900.0,3.0,,,,,,,,,yellow,triangle
0.0,1.0,0.5,0.0,5.0,5.0,502.3387997789541,7.0,1.0,phase_2,go,950.0,900.0,1.0,,,,,,,,,blue,hexagon
0.0,5.0,0.5,1.0,5.0,0.0,0.0,7.0,1.0,phase_2,stop,950.0,900.0,4.0,,,,,,,,,yellow,triangle
0.0,2.0,1.0,0.0,5.0,5.0,582.3523687868146,7.0,1.0,phase_2,go,1000.0,900.0,1.0,,,,,,,,,gray,diamond
0.0,3.0,2.0,0.0,6.0,6.0,502.6216779660899,7.0,1.0,phase_2,go,1000.0,900.0,1.0,,,,,,,,,orange,square
0.0,8.0,4.0,1.0,6.0,0.0,0.0,7.0,1.0,phase_2,stop,1000.0,900.0,4.0,,,,,,,,,magenta,flipped triangle
0.0,5.0,0.5,1.0,5.0,0.0,0.0,7.0,1.0,phase_2,stop,1000.0,950.0,4.0,,,,,,,,,yellow,triangle
0.0,2.0,1.0,0.0,6.0,6.0,517.6828508847393,7.0,1.0,phase_2,go,1050.0,950.0,1.0,,,,,,,,,gray,diamond
0.0,1.0,0.5,0.0,5.0,5.0,494.9099580844631,7.0,1.0,phase_2,go,1050.0,950.0,1.0,,,,,,,,,blue,hexagon
0.0,5.0,0.5,1.0,5.0,5.0,1271.7695637693396,7.0,1.0,phase_2,go,1050.0,950.0,1.0,,,,,,,,,yellow,triangle
0.0,6.0,1.0,1.0,5.0,5.0,1029.4546229561092,8.0,1.0,phase_2,stop,1050.0,950.0,3.0,,,,,,,,,cyan,circle
0.0,5.0,0.5,1.0,6.0,6.0,1121.3286480051463,8.0,1.0,phase_2,stop,1000.0,950.0,3.0,,,,,,,,,yellow,triangle
0.0,5.0,0.5,1.0,6.0,6.0,963.7317468441324,8.0,1.0,phase_2,go,1000.0,900.0,1.0,,,,,,,,,yellow,triangle
0.0,7.0,2.0,1.0,6.0,0.0,0.0,8.0,1.0,phase_2,stop,1000.0,900.0,4.0,,,,,,,,,green,I
0.0,5.0,0.5,1.0,6.0,0.0,0.0,8.0,1.0,phase_2,stop,1000.0,950.0,4.0,,,,,,,,,yellow,triangle
0.0,1.0,0.5,0.0,6.0,6.0,561.9926367944572,8.0,1.0,phase_2,go,1000.0,1000.0,1.0,,,,,,,,,blue,hexagon
0.0,8.0,4.0,1.0,6.0,0.0,0.0,8.0,1.0,phase_2,stop,1000.0,1000.0,4.0,,,,,,,,,magenta,flipped triangle
0.0,3.0,2.0,0.0,5.0,5.0,541.6060758871026,8.0,1.0,phase_2,go,1000.0,1050.0,1.0,,,,,,,,,orange,square
0.0,8.0,4.0,1.0,5.0,0.0,0.0,8.0,1.0,phase_2,stop,1000.0,1050.0,4.0,,,,,,,,,magenta,flipped triangle
0.0,2.0,1.0,0.0,6.0,6.0,542.0640669181012,8.0,1.0,phase_2,go,1050.0,1050.0,1.0,,,,,,,,,gray,diamond
0.0,8.0,4.0,1.0,5.0,0.0,0.0,8.0,1.0,phase_2,stop,1050.0,1050.0,4.0,,,,,,,,,magenta,flipped triangle
0.0,8.0,4.0,1.0,6.0,0.0,0.0,8.0,1.0,phase_2,stop,1100.0,1050.0,4.0,,,,,,,,,magenta,flipped triangle
0.0,3.0,2.0,0.0,5.0,5.0,566.3795779109932,8.0,1.0,phase_2,go,1100.0,1100.0,1.0,,,,,,,,,orange,square
0.0,5.0,0.5,1.0,6.0,0.0,0.0,8.0,1.0,phase_2,stop,1100.0,1100.0,4.0,,,,,,,,,yellow,triangle
0.0,5.0,0.5,1.0,5.0,5.0,1357.275568851037,8.0,1.0,phase_2,go,1100.0,1150.0,1.0,,,,,,,,,yellow,triangle
0.0,5.0,0.5,1.0,6.0,0.0,0.0,8.0,1.0,phase_2,stop,1100.0,1150.0,4.0,,,,,,,,,yellow,triangle
0.0,7.0,2.0,1.0,6.0,6.0,1323.8389099569758,8.0,1.0,phase_2,stop,1100.0,1200.0,3.0,,,,,,,,,green,I
0.0,4.0,4.0,0.0,6.0,6.0,639.329122917843,8.0,1.0,phase_2,go,1100.0,1150.0,1.0,,,,,,,,,white,cross
0.0,1.0,0.5,0.0,5.0,5.0,548.9101638522698,8.0,1.0,phase_2,go,1100.0,1150.0,1.0,,,,,,,,,blue,hexagon
0.0,2.0,1.0,0.0,5.0,5.0,504.91466383391526,8.0,1.0,phase_2,go,1100.0,1150.0,1.0,,,,,,,,,gray,diamond
0.0,1.0,0.5,0.0,5.0,5.0,461.8271127983462,8.0,1.0,phase_2,go,1100.0,1150.0,1.0,,,,,,,,,blue,hexagon
0.0,2.0,1.0,0.0,5.0,5.0,452.2035327681806,8.0,1.0,phase_2,go,1100.0,1150.0,1.0,,,,,,,,,gray,diamond
0.0,2.0,1.0,0.0,6.0,6.0,441.5428050269838,8.0,1.0,phase_2,go,1100.0,1150.0,1.0,,,,,,,,,gray,diamond
0.0,3.0,2.0,0.0,5.0,5.0,385.9420409135055,8.0,1.0,phase_2,go,1100.0,1150.0,1.0,,,,,,,,,orange,square
0.0,1.0,0.5,0.0,6.0,6.0,441.5193638269556,8.0,1.0,phase_2,go,1100.0,1150.0,1.0,,,,,,,,,blue,hexagon
0.0,5.0,0.5,1.0,6.0,6.0,1275.9230679512257,8.0,1.0,phase_2,stop,1100.0,1150.0,3.0,,,,,,,,,yellow,triangle
0.0,4.0,4.0,0.0,5.0,5.0,489.6024989720899,8.0,1.0,phase_2,go,1100.0,1100.0,1.0,,,,,,,,,white,cross
0.0,8.0,4.0,1.0,6.0,0.0,0.0,8.0,1.0,phase_2,stop,1100.0,1100.0,4.0,,,,,,,,,magenta,flipped triangle
0.0,3.0,2.0,0.0,5.0,5.0,525.3141808498185,8.0,1.0,phase_2,go,1100.0,1150.0,1.0,,,,,,,,,orange,square
0.0,5.0,0.5,1.0,5.0,0.0,0.0,8.0,1.0,phase_2,stop,1100.0,1150.0,4.0,,,,,,,,,yellow,triangle
0.0,7.0,2.0,1.0,5.0,5.0,1449.575590027962,8.0,1.0,phase_2,go,1150.0,1150.0,1.0,,,,,,,,,green,I
0.0,3.0,2.0,0.0,6.0,6.0,537.0079107960919,8.0,1.0,phase_2,go,1150.0,1150.0,1.0,,,,,,,,,orange,square
0.0,6.0,1.0,1.0,5.0,5.0,471.91975187161,8.0,1.0,phase_2,stop,1150.0,1150.0,3.0,,,,,,,,,cyan,circle
0.0,1.0,0.5,0.0,6.0,6.0,528.9324958866928,8.0,1.0,phase_2,go,1100.0,1150.0,1.0,,,,,,,,,blue,hexagon
0.0,4.0,4.0,0.0,6.0,6.0,528.5175988537958,8.0,1.0,phase_2,go,1100.0,1150.0,1.0,,,,,,,,,white,cross
0.0,5.0,0.5,1.0,6.0,6.0,1340.9244849754032,8.0,1.0,phase_2,stop,1100.0,1150.0,3.0,,,,,,,,,yellow,triangle
0.0,5.0,0.5,1.0,7.0,3.0,618.6759217671352,1.0,2.0,phase_3,,,,,234.0,6.0,117.0,39.0,234.0,195.0,78.0,156.0,yellow,triangle
0.0,6.0,1.0,1.0,7.0,4.0,1531.870940758381,1.0,1.0,phase_3,,,,,220.0,5.0,132.0,264.0,44.0,220.0,176.0,88.0,cyan,circle
0.0,5.0,0.5,1.0,7.0,3.0,2015.0741985271452,1.0,1.0,phase_3,,,,,245.0,5.0,147.0,49.0,245.0,294.0,196.0,98.0,yellow,triangle
0.0,7.0,2.0,1.0,7.0,4.0,1915.036474034423,1.0,1.0,phase_3,,,,,117.0,3.0,195.0,234.0,39.0,117.0,156.0,78.0,green,I
0.0,8.0,4.0,1.0,7.0,5.0,1825.7994567684364,1.0,1.0,phase_3,,,,,264.0,6.0,88.0,176.0,44.0,132.0,264.0,220.0,magenta,flipped triangle
0.0,5.0,0.5,1.0,7.0,6.0,1952.4066327721807,1.0,1.0,phase_3,,,,,204.0,6.0,68.0,136.0,170.0,34.0,102.0,204.0,yellow,triangle
0.0,7.0,2.0,1.0,7.0,1.0,2087.87671502796,1.0,1.0,phase_3,,,,,264.0,6.0,264.0,88.0,132.0,176.0,220.0,44.0,green,I
0.0,5.0,0.5,1.0,7.0,5.0,2548.914135040832,1.0,1.0,phase_3,,,,,270.0,5.0,324.0,108.0,54.0,216.0,270.0,162.0,yellow,triangle
0.0,8.0,4.0,1.0,7.0,6.0,1785.5899027636042,1.0,1.0,phase_3,,,,,234.0,6.0,39.0,195.0,156.0,117.0,78.0,234.0,magenta,flipped triangle
0.0,6.0,1.0,1.0,7.0,3.0,1392.6518982916605,1.0,1.0,phase_3,,,,,117.0,3.0,78.0,39.0,117.0,156.0,234.0,195.0,cyan,circle
0.0,7.0,2.0,1.0,7.0,1.0,1652.9773157672023,1.0,1.0,phase_3,,,,,324.0,6.0,324.0,108.0,54.0,216.0,162.0,270.0,green,I
0.0,4.0,4.0,0.0,7.0,5.0,1789.7375405591447,1.0,1.0,phase_3,,,,,78.0,2.0,195.0,117.0,234.0,156.0,78.0,39.0,white,cross
0.0,3.0,2.0,0.0,7.0,6.0,1925.9382340387676,1.0,1.0,phase_3,,,,,162.0,3.0,216.0,108.0,324.0,54.0,270.0,162.0,orange,square
0.0,7.0,2.0,1.0,7.0,5.0,2004.690964051406,1.0,1.0,phase_3,,,,,220.0,5.0,132.0,264.0,176.0,88.0,220.0,44.0,green,I
0.0,4.0,4.0,0.0,7.0,5.0,1782.0960747922072,1.0,1.0,phase_3,,,,,98.0,2.0,245.0,49.0,294.0,196.0,98.0,147.0,white,cross
0.0,4.0,4.0,0.0,7.0,2.0,1556.196189529146,1.0,1.0,phase_3,,,,,102.0,3.0,68.0,102.0,34.0,136.0,204.0,170.0,white,cross
0.0,3.0,2.0,0.0,7.0,1.0,1964.5454432902625,1.0,1.0,phase_3,,,,,136.0,4.0,136.0,68.0,170.0,102.0,34.0,204.0,orange,square
0.0,4.0,4.0,0.0,7.0,5.0,2752.567835326772,1.0,1.0,phase_3,,,,,216.0,4.0,108.0,54.0,324.0,270.0,216.0,162.0,white,cross
0.0,8.0,4.0,1.0,7.0,3.0,2022.008040570654,1.0,1.0,phase_3,,,,,270.0,5.0,108.0,324.0,270.0,162.0,216.0,54.0,magenta,flipped triangle
0.0,1.0,0.5,0.0,7.0,4.0,1482.5864620506763,1.0,1.0,phase_3,,,,,196.0,4.0,49.0,147.0,294.0,196.0,245.0,98.0,blue,hexagon
0.0,1.0,0.5,0.0,7.0,3.0,1620.57574679784,2.0,1.0,phase_3,,,,,196.0,4.0,49.0,245.0,196.0,294.0,98.0,147.0,blue,hexagon
0.0,6.0,1.0,1.0,7.0,3.0,1331.082550866995,2.0,1.0,phase_3,,,,,136.0,4.0,170.0,34.0,136.0,102.0,68.0,204.0,cyan,circle
0.0,4.0,4.0,0.0,7.0,3.0,1770.012920082081,2.0,1.0,phase_3,,,,,108.0,2.0,324.0,162.0,108.0,216.0,54.0,270.0,white,cross
0.0,2.0,1.0,0.0,7.0,4.0,1758.7815905571915,2.0,1.0,phase_3,,,,,147.0,3.0,196.0,245.0,98.0,147.0,49.0,294.0,gray,diamond
0.0,8.0,4.0,1.0,7.0,5.0,1973.8678220455768,2.0,1.0,phase_3,,,,,204.0,6.0,68.0,102.0,170.0,34.0,204.0,136.0,magenta,flipped triangle
0.0,3.0,2.0,0.0,7.0,6.0,2481.1636980448384,2.0,1.0,phase_3,,,,,108.0,2.0,54.0,162.0,324.0,270.0,216.0,108.0,orange,square
0.0,1.0,0.5,0.0,7.0,5.0,1527.2509810893098,2.0,1.0,phase_3,,,,,176.0,4.0,88.0,44.0,132.0,264.0,176.0,220.0,blue,hexagon
0.0,7.0,2.0,1.0,7.0,2.0,1853.272387801553,2.0,1.0,phase_3,,,,,204.0,6.0,34.0,204.0,136.0,170.0,102.0,68.0,green,I
0.0,2.0,1.0,0.0,7.0,4.0,1799.6032173396088,2.0,1.0,phase_3,,,,,102.0,3.0,170.0,204.0,136.0,102.0,34.0,68.0,gray,diamond
0.0,8.0,4.0,1.0,7.0,2.0,1587.1690523199504,2.0,1.0,phase_3,,,,,294.0,6.0,49.0,294.0,98.0,245.0,147.0,196.0,magenta,flipped triangle
0.0,7.0,2.0,1.0,7.0,2.0,1608.9184660377214,2.0,1.0,phase_3,,,,,245.0,5.0,49.0,245.0,147.0,294.0,98.0,196.0,green,I
0.0,6.0,1.0,1.0,7.0,6.0,2522.9529725329485,2.0,1.0,phase_3,,,,,204.0,6.0,34.0,136.0,68.0,102.0,170.0,204.0,cyan,circle
0.0,5.0,0.5,1.0,7.0,4.0,1567.339798566536,2.0,1.0,phase_3,,,,,264.0,6.0,88.0,220.0,44.0,264.0,132.0,176.0,yellow,triangle
0.0,6.0,1.0,1.0,7.0,4.0,1760.064208850963,2.0,1.0,phase_3,,,,,245.0,5.0,147.0,196.0,294.0,245.0,98.0,49.0,cyan,circle
0.0,1.0,0.5,0.0,7.0,6.0,1704.0290575678227,2.0,1.0,phase_3,,,,,117.0,3.0,195.0,78.0,234.0,39.0,156.0,117.0,blue,hexagon
0.0,5.0,0.5,1.0,7.0,5.0,2300.4226100892997,2.0,1.0,phase_3,,,,,270.0,5.0,216.0,108.0,162.0,54.0,270.0,324.0,yellow,triangle
0.0,1.0,0.5,0.0,7.0,5.0,1919.9445290287256,2.0,1.0,phase_3,,,,,108.0,2.0,216.0,270.0,324.0,162.0,108.0,54.0,blue,hexagon
0.0,8.0,4.0,1.0,7.0,6.0,1808.056529000169,2.0,1.0,phase_3,,,,,294.0,6.0,245.0,147.0,196.0,49.0,98.0,294.0,magenta,flipped triangle
0.0,2.0,1.0,0.0,7.0,3.0,2202.766816757503,2.0,1.0,phase_3,,,,,132.0,3.0,264.0,220.0,132.0,88.0,176.0,44.0,gray,diamond
0.0,6.0,1.0,1.0,7.0,3.0,1856.3293612824052,2.0,1.0,phase_3,,,,,147.0,3.0,49.0,294.0,147.0,98.0,245.0,196.0,cyan,circle
0.0,4.0,4.0,0.0,7.0,1.0,1665.7941010489594,3.0,1.0,phase_3,,,,,102.0,3.0,102.0,68.0,204.0,34.0,170.0,136.0,white,cross
0.0,7.0,2.0,1.0,7.0,4.0,1858.144511046703,3.0,1.0,phase_3,,,,,234.0,6.0,78.0,39.0,117.0,234.0,195.0,156.0,green,I
0.0,3.0,2.0,0.0,7.0,2.0,1374.8430930863833,3.0,1.0,phase_3,,,,,117.0,3.0,78.0,117.0,156.0,39.0,234.0,195.0,orange,square
0.0,4.0,4.0,0.0,7.0,1.0,1636.3728635624284,3.0,1.0,phase_3,,,,,117.0,3.0,117.0,234.0,156.0,195.0,78.0,39.0,white,cross
0.0,3.0,2.0,0.0,7.0,4.0,1770.7956301019294,3.0,1.0,phase_3,,,,,88.0,2.0,220.0,132.0,264.0,88.0,44.0,176.0,orange,square
0.0,2.0,1.0,0.0,7.0,3.0,1515.2604600443738,3.0,1.0,phase_3,,,,,108.0,2.0,216.0,162.0,108.0,324.0,270.0,54.0,gray,diamond
0.0,2.0,1.0,0.0,7.0,1.0,2324.963000792195,3.0,1.0,phase_3,,,,,108.0,2.0,108.0,324.0,162.0,270.0,54.0,216.0,gray,diamond
0.0,8.0,4.0,1.0,7.0,4.0,1551.1851710325573,3.0,1.0,phase_3,,,,,204.0,6.0,34.0,170.0,136.0,204.0,68.0,102.0,magenta,flipped triangle
0.0,6.0,1.0,1.0,7.0,2.0,2889.6870185562875,3.0,1.0,phase_3,,,,,270.0,5.0,54.0,270.0,324.0,162.0,216.0,108.0,cyan,circle
0.0,2.0,1.0,0.0,7.0,2.0,2464.5026048092404,3.0,1.0,phase_3,,,,,98.0,2.0,49.0,98.0,294.0,147.0,196.0,245.0,gray,diamond
0.0,1.0,0.5,0.0,7.0,4.0,1879.0740740369076,3.0,1.0,phase_3,,,,,102.0,3.0,34.0,204.0,68.0,102.0,136.0,170.0,blue,hexagon
0.0,7.0,2.0,1.0,7.0,6.0,2149.3365622882266,3.0,1.0,phase_3,,,,,204.0,6.0,34.0,170.0,68.0,102.0,136.0,204.0,green,I
0.0,6.0,1.0,1.0,7.0,6.0,2422.807169088628,3.0,1.0,phase_3,,,,,162.0,3.0,108.0,216.0,54.0,270.0,324.0,162.0,cyan,circle
0.0,3.0,2.0,0.0,7.0,5.0,2129.8086567985592,3.0,1.0,phase_3,,,,,132.0,3.0,264.0,44.0,220.0,176.0,132.0,88.0,orange,square
0.0,3.0,2.0,0.0,7.0,3.0,2884.4411020400003,3.0,1.0,phase_3,,,,,117.0,3.0,156.0,78.0,117.0,234.0,195.0,39.0,orange,square
0.0,4.0,4.0,0.0,7.0,3.0,2549.400585296098,3.0,1.0,phase_3,,,,,132.0,3.0,176.0,88.0,132.0,264.0,44.0,220.0,white,cross
0.0,8.0,4.0,1.0,7.0,6.0,1717.2946662903996,3.0,1.0,phase_3,,,,,264.0,6.0,176.0,44.0,88.0,220.0,132.0,264.0,magenta,flipped triangle
0.0,6.0,1.0,1.0,7.0,6.0,1638.893243856728,3.0,1.0,phase_3,,,,,220.0,5.0,44.0,132.0,264.0,88.0,176.0,220.0,cyan,circle
0.0,8.0,4.0,1.0,7.0,2.0,1641.2830865301655,3.0,1.0,phase_3,,,,,270.0,5.0,162.0,270.0,108.0,54.0,216.0,324.0,magenta,flipped triangle
0.0,4.0,4.0,0.0,7.0,3.0,2181.228554763948,3.0,1.0,phase_3,,,,,147.0,3.0,196.0,49.0,147.0,245.0,98.0,294.0,white,cross
0.0,5.0,0.5,1.0,7.0,2.0,1526.8509652814828,4.0,1.0,phase_3,,,,,264.0,6.0,88.0,264.0,132.0,220.0,44.0,176.0,yellow,triangle
0.0,3.0,2.0,0.0,7.0,6.0,1808.4266240912257,4.0,1.0,phase_3,,,,,102.0,3.0,68.0,204.0,34.0,136.0,170.0,102.0,orange,square
0.0,4.0,4.0,0.0,7.0,4.0,1855.6790042930515,4.0,1.0,phase_3,,,,,88.0,2.0,132.0,220.0,176.0,88.0,264.0,44.0,white,cross
0.0,1.0,0.5,0.0,7.0,5.0,2226.3817723141983,4.0,1.0,phase_3,,,,,132.0,3.0,176.0,88.0,220.0,44.0,132.0,264.0,blue,hexagon
0.0,2.0,1.0,0.0,7.0,5.0,1227.754847772303,4.0,1.0,phase_3,,,,,88.0,2.0,176.0,264.0,44.0,132.0,88.0,220.0,gray,diamond
0.0,7.0,2.0,1.0,7.0,2.0,2239.5697522879345,4.0,1.0,phase_3,,,,,216.0,4.0,324.0,216.0,108.0,162.0,54.0,270.0,green,I
0.0,1.0,0.5,0.0,7.0,2.0,1948.2779250975,4.0,1.0,phase_3,,,,,162.0,3.0,108.0,162.0,324.0,54.0,216.0,270.0,blue,hexagon
0.0,2.0,1.0,0.0,7.0,4.0,1421.5810558089288,4.0,1.0,phase_3,,,,,102.0,3.0,68.0,170.0,136.0,102.0,34.0,204.0,gray,diamond
0.0,5.0,0.5,1.0,7.0,6.0,1512.3111215652898,4.0,1.0,phase_3,,,,,204.0,6.0,34.0,170.0,102.0,136.0,68.0,204.0,yellow,triangle
0.0,3.0,2.0,0.0,7.0,2.0,1704.649502033135,4.0,1.0,phase_3,,,,,98.0,2.0,196.0,98.0,49.0,147.0,294.0,245.0,orange,square
0.0,5.0,0.5,1.0,7.0,3.0,2391.6786155605223,4.0,1.0,phase_3,,,,,245.0,5.0,147.0,294.0,245.0,196.0,49.0,98.0,yellow,triangle
0.0,1.0,0.5,0.0,7.0,2.0,1504.171637032414,4.0,1.0,phase_3,,,,,102.0,3.0,34.0,102.0,68.0,170.0,136.0,204.0,blue,hexagon
0.0,1.0,0.5,0.0,7.0,2.0,2630.4896370857023,4.0,1.0,phase_3,,,,,117.0,3.0,39.0,117.0,195.0,78.0,156.0,234.0,blue,hexagon
0.0,6.0,1.0,1.0,7.0,2.0,2429.227870801697,4.0,1.0,phase_3,,,,,195.0,5.0,78.0,195.0,39.0,156.0,234.0,117.0,cyan,circle
0.0,2.0,1.0,0.0,7.0,1.0,1800.4731682885904,4.0,1.0,phase_3,,,,,117.0,3.0,117.0,78.0,39.0,195.0,234.0,156.0,gray,diamond
0.0,3.0,2.0,0.0,7.0,2.0,1991.848398858565,4.0,1.0,phase_3,,,,,98.0,2.0,196.0,98.0,294.0,245.0,147.0,49.0,orange,square
0.0,5.0,0.5,1.0,7.0,1.0,2207.3833802860463,4.0,1.0,phase_3,,,,,234.0,6.0,234.0,156.0,39.0,78.0,117.0,195.0,yellow,triangle
0.0,2.0,1.0,0.0,7.0,2.0,1939.107153535588,4.0,1.0,phase_3,,,,,117.0,3.0,156.0,117.0,39.0,195.0,78.0,234.0,gray,diamond
0.0,7.0,2.0,1.0,7.0,4.0,1691.3688753265887,4.0,1.0,phase_3,,,,,245.0,5.0,294.0,49.0,98.0,245.0,196.0,147.0,green,I
0.0,8.0,4.0,1.0,7.0,5.0,2008.5529278003378,4.0,1.0,phase_3,,,,,234.0,6.0,78.0,39.0,117.0,156.0,234.0,195.0,magenta,flipped triangle
