raw_reward_magnitude,stim_reward,stepwise_reward_magnitude,paired_with_stopping,quadrant,response,reaction_time,block,num_trial_presentations,which_part,stop_signal_trial_type,left_SSD,right_SSD,accuracy,chosen_bidding_amount,chosen_bidding_level,possible_bid_1,possible_bid_2,possible_bid_3,possible_bid_4,possible_bid_5,possible_bid_6,color_text,shape_text
415.0,4.0,4.0,0.0,3.0,3.0,538.8721133349463,1.0,1.0,part_1,,,,,,,,,,,,,magenta,square
419.0,4.0,4.0,0.0,4.0,4.0,439.3258348864037,1.0,1.0,part_1,,,,,,,,,,,,,magenta,square
189.0,3.0,3.0,0.0,3.0,3.0,552.662545334897,1.0,1.0,part_1,,,,,,,,,,,,,orange,triangle
0.0,8.0,0.0,1.0,4.0,4.0,519.5523786096601,1.0,1.0,part_1,,,,,,,,,,,,,blue,hexagon
0.0,2.0,0.0,0.0,4.0,4.0,476.0137868870515,1.0,2.0,part_1,,,,,,,,,,,,,yellow,diamond
56.0,1.0,1.0,0.0,1.0,1.0,587.2339074849151,1.0,1.0,part_1,,,,,,,,,,,,,gray,circle
179.0,7.0,3.0,1.0,2.0,2.0,273.4876697213622,1.0,1.0,part_1,,,,,,,,,,,,,white,cross
45.0,5.0,1.0,1.0,1.0,1.0,430.8738140389323,1.0,1.0,part_1,,,,,,,,,,,,,green,I
120.0,2.0,2.0,0.0,4.0,4.0,296.5510666108457,1.0,1.0,part_1,,,,,,,,,,,,,yellow,diamond
417.0,8.0,4.0,1.0,3.0,3.0,308.5083720070543,1.0,1.0,part_1,,,,,,,,,,,,,blue,hexagon
90.0,2.0,2.0,0.0,4.0,4.0,275.0919176178286,1.0,1.0,part_1,,,,,,,,,,,,,yellow,diamond
419.0,8.0,4.0,1.0,1.0,1.0,321.2206231692107,1.0,1.0,part_1,,,,,,,,,,,,,blue,hexagon
222.0,3.0,3.0,0.0,2.0,2.0,321.3417461665813,1.0,1.0,part_1,,,,,,,,,,,,,orange,triangle
0.0,6.0,0.0,1.0,3.0,3.0,343.7932208908023,1.0,1.0,part_1,,,,,,,,,,,,,cyan,flipped triangle
117.0,6.0,2.0,1.0,2.0,2.0,300.3718600375578,1.0,1.0,part_1,,,,,,,,,,,,,cyan,flipped triangle
401.0,4.0,4.0,0.0,3.0,3.0,470.0542881764704,1.0,1.0,part_1,,,,,,,,,,,,,magenta,square
224.0,7.0,3.0,1.0,4.0,4.0,311.5150797239039,1.0,1.0,part_1,,,,,,,,,,,,,white,cross
214.0,7.0,3.0,1.0,3.0,3.0,346.0397850431036,1.0,1.0,part_1,,,,,,,,,,,,,white,cross
0.0,2.0,0.0,0.0,4.0,4.0,291.0635238804389,1.0,1.0,part_1,,,,,,,,,,,,,yellow,diamond
381.0,8.0,4.0,1.0,4.0,4.0,403.01246533636,1.0,1.0,part_1,,,,,,,,,,,,,blue,hexagon
44.0,5.0,1.0,1.0,2.0,2.0,349.4445437245304,1.0,1.0,part_1,,,,,,,,,,,,,green,I
378.0,4.0,4.0,0.0,3.0,3.0,360.6002100277692,1.0,1.0,part_1,,,,,,,,,,,,,magenta,square
119.0,6.0,2.0,1.0,3.0,3.0,494.9229411722626,1.0,1.0,part_1,,,,,,,,,,,,,cyan,flipped triangle
117.0,2.0,2.0,0.0,3.0,3.0,305.0316714361543,1.0,1.0,part_1,,,,,,,,,,,,,yellow,diamond
199.0,3.0,3.0,0.0,3.0,3.0,373.3431571599794,1.0,1.0,part_1,,,,,,,,,,,,,orange,triangle
424.0,4.0,4.0,0.0,3.0,3.0,351.3665424543433,1.0,1.0,part_1,,,,,,,,,,,,,magenta,square
407.0,8.0,4.0,1.0,1.0,1.0,430.6399618944851,1.0,1.0,part_1,,,,,,,,,,,,,blue,hexagon
199.0,7.0,3.0,1.0,4.0,4.0,420.27150116337,1.0,1.0,part_1,,,,,,,,,,,,,white,cross
120.0,6.0,2.0,1.0,1.0,1.0,386.2116138916462,1.0,1.0,part_1,,,,,,,,,,,,,cyan,flipped triangle
0.0,6.0,0.0,1.0,1.0,1.0,364.9898418952944,1.0,1.0,part_1,,,,,,,,,,,,,cyan,flipped triangle
0.0,5.0,0.0,1.0,4.0,4.0,365.0382091727806,1.0,1.0,part_1,,,,,,,,,,,,,green,I
381.0,4.0,4.0,0.0,4.0,4.0,298.2575373316649,1.0,1.0,part_1,,,,,,,,,,,,,magenta,square
56.0,1.0,1.0,0.0,3.0,3.0,342.7992093347711,1.0,1.0,part_1,,,,,,,,,,,,,gray,circle
100.0,6.0,2.0,1.0,1.0,1.0,287.9954187228577,1.0,1.0,part_1,,,,,,,,,,,,,cyan,flipped triangle
0.0,5.0,0.0,1.0,3.0,3.0,265.6877096160315,1.0,1.0,part_1,,,,,,,,,,,,,green,I
33.0,1.0,1.0,0.0,4.0,4.0,458.0538007139694,1.0,1.0,part_1,,,,,,,,,,,,,gray,circle
413.0,4.0,4.0,0.0,2.0,2.0,436.9826314505189,1.0,2.0,part_1,,,,,,,,,,,,,magenta,square
56.0,5.0,1.0,1.0,2.0,2.0,336.5951426094398,1.0,1.0,part_1,,,,,,,,,,,,,green,I
0.0,8.0,0.0,1.0,2.0,2.0,337.6645043317694,1.0,1.0,part_1,,,,,,,,,,,,,blue,hexagon
0.0,5.0,0.0,1.0,4.0,4.0,349.197125484352,1.0,1.0,part_1,,,,,,,,,,,,,green,I
399.0,4.0,4.0,0.0,3.0,3.0,325.7278901728568,1.0,1.0,part_1,,,,,,,,,,,,,magenta,square
119.0,2.0,2.0,0.0,1.0,1.0,315.1670436054701,1.0,1.0,part_1,,,,,,,,,,,,,yellow,diamond
112.0,6.0,2.0,1.0,1.0,1.0,384.7765875980258,1.0,1.0,part_1,,,,,,,,,,,,,cyan,flipped triangle
69.0,5.0,1.0,1.0,1.0,1.0,440.9327894536545,1.0,1.0,part_1,,,,,,,,,,,,,green,I
0.0,4.0,0.0,0.0,4.0,4.0,339.4690446148161,1.0,1.0,part_1,,,,,,,,,,,,,magenta,square
424.0,4.0,4.0,0.0,4.0,4.0,396.2230631732382,1.0,1.0,part_1,,,,,,,,,,,,,magenta,square
35.0,1.0,1.0,0.0,2.0,2.0,342.2264106193324,1.0,1.0,part_1,,,,,,,,,,,,,gray,circle
114.0,6.0,2.0,1.0,4.0,4.0,398.206661324366,1.0,1.0,part_1,,,,,,,,,,,,,cyan,flipped triangle
375.0,4.0,4.0,0.0,4.0,4.0,364.3151980359107,1.0,1.0,part_1,,,,,,,,,,,,,magenta,square
26.0,5.0,1.0,1.0,3.0,3.0,285.9327538899379,1.0,1.0,part_1,,,,,,,,,,,,,green,I
90.0,6.0,2.0,1.0,2.0,2.0,321.1588471604045,1.0,1.0,part_1,,,,,,,,,,,,,cyan,flipped triangle
103.0,2.0,2.0,0.0,3.0,3.0,332.1090267272666,1.0,1.0,part_1,,,,,,,,,,,,,yellow,diamond
117.0,2.0,2.0,0.0,3.0,3.0,376.6892620333237,1.0,1.0,part_1,,,,,,,,,,,,,yellow,diamond
120.0,6.0,2.0,1.0,2.0,2.0,378.625762896263,1.0,1.0,part_1,,,,,,,,,,,,,cyan,flipped triangle
60.0,5.0,1.0,1.0,4.0,4.0,422.7535784448264,1.0,1.0,part_1,,,,,,,,,,,,,green,I
0.0,7.0,0.0,1.0,4.0,4.0,347.3613444366492,1.0,1.0,part_1,,,,,,,,,,,,,white,cross
120.0,6.0,2.0,1.0,4.0,4.0,391.5067141642794,1.0,1.0,part_1,,,,,,,,,,,,,cyan,flipped triangle
385.0,8.0,4.0,1.0,2.0,2.0,359.0798910445301,1.0,1.0,part_1,,,,,,,,,,,,,blue,hexagon
54.0,1.0,1.0,0.0,4.0,4.0,370.9541816060664,1.0,1.0,part_1,,,,,,,,,,,,,gray,circle
105.0,2.0,2.0,0.0,3.0,3.0,336.5981397655559,1.0,1.0,part_1,,,,,,,,,,,,,yellow,diamond
76.0,2.0,2.0,0.0,2.0,2.0,270.3231476189103,1.0,1.0,part_1,,,,,,,,,,,,,yellow,diamond
0.0,4.0,0.0,0.0,2.0,2.0,316.2283937708707,1.0,1.0,part_1,,,,,,,,,,,,,magenta,square
64.0,1.0,1.0,0.0,3.0,3.0,338.343579438515,1.0,1.0,part_1,,,,,,,,,,,,,gray,circle
0.0,3.0,0.0,0.0,1.0,1.0,327.2147716052132,1.0,1.0,part_1,,,,,,,,,,,,,orange,triangle
395.0,8.0,4.0,1.0,3.0,3.0,406.3519054325297,1.0,1.0,part_1,,,,,,,,,,,,,blue,hexagon
182.0,7.0,3.0,1.0,1.0,1.0,350.9846603265032,1.0,1.0,part_1,,,,,,,,,,,,,white,cross
375.0,8.0,4.0,1.0,3.0,3.0,407.0863381784875,1.0,1.0,part_1,,,,,,,,,,,,,blue,hexagon
86.0,6.0,2.0,1.0,4.0,4.0,318.1617460359121,1.0,1.0,part_1,,,,,,,,,,,,,cyan,flipped triangle
0.0,1.0,0.0,0.0,3.0,3.0,340.5674543319037,1.0,1.0,part_1,,,,,,,,,,,,,gray,circle
44.0,1.0,1.0,0.0,4.0,4.0,431.3675030425656,1.0,1.0,part_1,,,,,,,,,,,,,gray,circle
65.0,5.0,1.0,1.0,1.0,1.0,355.4376228858018,1.0,1.0,part_1,,,,,,,,,,,,,green,I
421.0,8.0,4.0,1.0,3.0,3.0,287.3196488944813,1.0,1.0,part_1,,,,,,,,,,,,,blue,hexagon
413.0,8.0,4.0,1.0,2.0,2.0,343.5954136220971,1.0,1.0,part_1,,,,,,,,,,,,,blue,hexagon
182.0,3.0,3.0,0.0,1.0,1.0,356.3039447617484,1.0,2.0,part_1,,,,,,,,,,,,,orange,triangle
204.0,3.0,3.0,0.0,2.0,2.0,323.1257643346907,1.0,1.0,part_1,,,,,,,,,,,,,orange,triangle
378.0,8.0,4.0,1.0,1.0,1.0,424.1604639973957,1.0,1.0,part_1,,,,,,,,,,,,,blue,hexagon
417.0,4.0,4.0,0.0,4.0,4.0,268.4051566175185,1.0,1.0,part_1,,,,,,,,,,,,,magenta,square
78.0,2.0,2.0,0.0,4.0,4.0,335.660306722275,1.0,1.0,part_1,,,,,,,,,,,,,yellow,diamond
399.0,8.0,4.0,1.0,3.0,3.0,346.3836357113905,1.0,1.0,part_1,,,,,,,,,,,,,blue,hexagon
395.0,8.0,4.0,1.0,4.0,4.0,370.4681188828544,1.0,1.0,part_1,,,,,,,,,,,,,blue,hexagon
87.0,6.0,2.0,1.0,1.0,1.0,315.1369804400019,1.0,1.0,part_1,,,,,,,,,,,,,cyan,flipped triangle
183.0,7.0,3.0,1.0,4.0,4.0,282.8995354502694,1.0,1.0,part_1,,,,,,,,,,,,,white,cross
203.0,7.0,3.0,1.0,1.0,1.0,360.3044730989495,1.0,1.0,part_1,,,,,,,,,,,,,white,cross
420.0,4.0,4.0,0.0,1.0,1.0,373.2517667085631,1.0,1.0,part_1,,,,,,,,,,,,,magenta,square
376.0,8.0,4.0,1.0,1.0,1.0,328.1663947127526,1.0,1.0,part_1,,,,,,,,,,,,,blue,hexagon
176.0,7.0,3.0,1.0,2.0,2.0,250.4645817243727,1.0,2.0,part_1,,,,,,,,,,,,,white,cross
90.0,2.0,2.0,0.0,1.0,1.0,408.2818877068348,1.0,1.0,part_1,,,,,,,,,,,,,yellow,diamond
83.0,2.0,2.0,0.0,1.0,1.0,375.7980678783497,1.0,1.0,part_1,,,,,,,,,,,,,yellow,diamond
396.0,4.0,4.0,0.0,2.0,2.0,409.2211378883803,1.0,1.0,part_1,,,,,,,,,,,,,magenta,square
194.0,7.0,3.0,1.0,2.0,2.0,355.5093108880101,1.0,1.0,part_1,,,,,,,,,,,,,white,cross
182.0,7.0,3.0,1.0,2.0,2.0,320.8052697591483,1.0,1.0,part_1,,,,,,,,,,,,,white,cross
86.0,6.0,2.0,1.0,2.0,2.0,343.256681037019,1.0,1.0,part_1,,,,,,,,,,,,,cyan,flipped triangle
401.0,8.0,4.0,1.0,3.0,3.0,355.0415527570294,1.0,1.0,part_1,,,,,,,,,,,,,blue,hexagon
210.0,7.0,3.0,1.0,3.0,3.0,389.2712207598379,1.0,1.0,part_1,,,,,,,,,,,,,white,cross
112.0,2.0,2.0,0.0,2.0,2.0,391.085557610495,1.0,1.0,part_1,,,,,,,,,,,,,yellow,diamond
0.0,6.0,0.0,1.0,1.0,1.0,391.9049398973584,1.0,1.0,part_1,,,,,,,,,,,,,cyan,flipped triangle
205.0,7.0,3.0,1.0,4.0,4.0,347.5332036032341,1.0,1.0,part_1,,,,,,,,,,,,,white,cross
0.0,4.0,0.0,0.0,1.0,1.0,358.1396727240644,1.0,1.0,part_1,,,,,,,,,,,,,magenta,square
210.0,3.0,3.0,0.0,1.0,1.0,370.5609395983629,1.0,1.0,part_1,,,,,,,,,,,,,orange,triangle
78.0,6.0,2.0,1.0,1.0,1.0,686.6609717108076,1.0,1.0,part_1,,,,,,,,,,,,,cyan,flipped triangle
86.0,2.0,2.0,0.0,1.0,1.0,445.4717104526935,2.0,1.0,part_1,,,,,,,,,,,,,yellow,diamond
381.0,8.0,4.0,1.0,1.0,1.0,490.3167864395072,2.0,1.0,part_1,,,,,,,,,,,,,blue,hexagon
217.0,7.0,3.0,1.0,2.0,2.0,310.207510163309,2.0,1.0,part_1,,,,,,,,,,,,,white,cross
177.0,3.0,3.0,0.0,1.0,1.0,254.85312988166697,2.0,1.0,part_1,,,,,,,,,,,,,orange,triangle
396.0,8.0,4.0,1.0,2.0,2.0,278.9174060308141,2.0,1.0,part_1,,,,,,,,,,,,,blue,hexagon
223.0,3.0,3.0,0.0,4.0,4.0,335.8501874754438,2.0,2.0,part_1,,,,,,,,,,,,,orange,triangle
420.0,8.0,4.0,1.0,3.0,3.0,391.6758204431971,2.0,1.0,part_1,,,,,,,,,,,,,blue,hexagon
88.0,2.0,2.0,0.0,3.0,3.0,381.4933288958855,2.0,1.0,part_1,,,,,,,,,,,,,yellow,diamond
0.0,1.0,0.0,0.0,3.0,3.0,336.0552921658382,2.0,1.0,part_1,,,,,,,,,,,,,gray,circle
186.0,7.0,3.0,1.0,3.0,3.0,316.3923263200558,2.0,1.0,part_1,,,,,,,,,,,,,white,cross
0.0,5.0,0.0,1.0,2.0,2.0,373.5899952735053,2.0,2.0,part_1,,,,,,,,,,,,,green,I
119.0,2.0,2.0,0.0,2.0,2.0,386.0082336032064,2.0,1.0,part_1,,,,,,,,,,,,,yellow,diamond
64.0,1.0,1.0,0.0,3.0,3.0,362.7923671738244,2.0,1.0,part_1,,,,,,,,,,,,,gray,circle
64.0,5.0,1.0,1.0,2.0,2.0,408.3535646059317,2.0,1.0,part_1,,,,,,,,,,,,,green,I
64.0,5.0,1.0,1.0,1.0,1.0,364.7011901630321,2.0,1.0,part_1,,,,,,,,,,,,,green,I
81.0,6.0,2.0,1.0,2.0,2.0,420.6909403292229,2.0,1.0,part_1,,,,,,,,,,,,,cyan,flipped triangle
209.0,3.0,3.0,0.0,2.0,2.0,342.4632377718808,2.0,1.0,part_1,,,,,,,,,,,,,orange,triangle
33.0,5.0,1.0,1.0,3.0,3.0,523.1949873268604,2.0,1.0,part_1,,,,,,,,,,,,,green,I
220.0,3.0,3.0,0.0,1.0,1.0,388.9677371626021,2.0,2.0,part_1,,,,,,,,,,,,,orange,triangle
45.0,1.0,1.0,0.0,3.0,3.0,434.624991758028,2.0,1.0,part_1,,,,,,,,,,,,,gray,circle
424.0,8.0,4.0,1.0,1.0,1.0,524.7899414825952,2.0,1.0,part_1,,,,,,,,,,,,,blue,hexagon
103.0,6.0,2.0,1.0,3.0,3.0,514.573645326891,2.0,1.0,part_1,,,,,,,,,,,,,cyan,flipped triangle
88.0,6.0,2.0,1.0,3.0,3.0,378.9344437536783,2.0,1.0,part_1,,,,,,,,,,,,,cyan,flipped triangle
73.0,5.0,1.0,1.0,4.0,4.0,325.2013240417,2.0,1.0,part_1,,,,,,,,,,,,,green,I
419.0,4.0,4.0,0.0,1.0,1.0,324.9397176114144,2.0,1.0,part_1,,,,,,,,,,,,,magenta,square
393.0,8.0,4.0,1.0,4.0,4.0,348.0006494792178,2.0,1.0,part_1,,,,,,,,,,,,,blue,hexagon
201.0,7.0,3.0,1.0,2.0,2.0,383.118819721858,2.0,1.0,part_1,,,,,,,,,,,,,white,cross
54.0,5.0,1.0,1.0,4.0,4.0,349.0507847600383,2.0,1.0,part_1,,,,,,,,,,,,,green,I
214.0,3.0,3.0,0.0,3.0,3.0,337.585416767979,2.0,1.0,part_1,,,,,,,,,,,,,orange,triangle
0.0,5.0,0.0,1.0,3.0,3.0,394.7620314429514,2.0,1.0,part_1,,,,,,,,,,,,,green,I
44.0,5.0,1.0,1.0,1.0,1.0,329.4970053393626,2.0,1.0,part_1,,,,,,,,,,,,,green,I
0.0,5.0,0.0,1.0,1.0,1.0,598.9294724422507,2.0,1.0,part_1,,,,,,,,,,,,,green,I
0.0,2.0,0.0,0.0,4.0,4.0,329.5525664434535,2.0,1.0,part_1,,,,,,,,,,,,,yellow,diamond
67.0,1.0,1.0,0.0,2.0,2.0,307.5022498815087,2.0,1.0,part_1,,,,,,,,,,,,,gray,circle
208.0,7.0,3.0,1.0,1.0,1.0,307.5424279086292,2.0,1.0,part_1,,,,,,,,,,,,,white,cross
76.0,6.0,2.0,1.0,2.0,2.0,408.9600966108264,2.0,1.0,part_1,,,,,,,,,,,,,cyan,flipped triangle
412.0,4.0,4.0,0.0,1.0,1.0,420.6497391714947,2.0,1.0,part_1,,,,,,,,,,,,,magenta,square
54.0,5.0,1.0,1.0,3.0,3.0,341.9310607714578,2.0,1.0,part_1,,,,,,,,,,,,,green,I
209.0,7.0,3.0,1.0,1.0,1.0,468.6007966083707,2.0,1.0,part_1,,,,,,,,,,,,,white,cross
67.0,5.0,1.0,1.0,4.0,4.0,424.2102774442173,2.0,1.0,part_1,,,,,,,,,,,,,green,I
182.0,7.0,3.0,1.0,4.0,4.0,412.3215263389284,2.0,1.0,part_1,,,,,,,,,,,,,white,cross
222.0,3.0,3.0,0.0,1.0,1.0,413.2350043364567,2.0,1.0,part_1,,,,,,,,,,,,,orange,triangle
81.0,2.0,2.0,0.0,1.0,1.0,435.6962990423199,2.0,1.0,part_1,,,,,,,,,,,,,yellow,diamond
407.0,8.0,4.0,1.0,2.0,2.0,460.3965178830549,2.0,1.0,part_1,,,,,,,,,,,,,blue,hexagon
395.0,4.0,4.0,0.0,4.0,4.0,402.7142886188812,2.0,1.0,part_1,,,,,,,,,,,,,magenta,square
0.0,6.0,0.0,1.0,3.0,3.0,391.3222656119615,2.0,1.0,part_1,,,,,,,,,,,,,cyan,flipped triangle
90.0,2.0,2.0,0.0,2.0,2.0,426.492991449777,2.0,1.0,part_1,,,,,,,,,,,,,yellow,diamond
44.0,1.0,1.0,0.0,3.0,3.0,359.8668966151308,2.0,1.0,part_1,,,,,,,,,,,,,gray,circle
0.0,7.0,0.0,1.0,2.0,2.0,361.2826428870903,2.0,1.0,part_1,,,,,,,,,,,,,white,cross
33.0,5.0,1.0,1.0,2.0,2.0,348.9133676193887,2.0,1.0,part_1,,,,,,,,,,,,,green,I
90.0,6.0,2.0,1.0,4.0,4.0,362.3704757192172,2.0,1.0,part_1,,,,,,,,,,,,,cyan,flipped triangle
64.0,5.0,1.0,1.0,2.0,2.0,293.7324290396645,2.0,1.0,part_1,,,,,,,,,,,,,green,I
119.0,6.0,2.0,1.0,4.0,4.0,407.1607407240663,2.0,1.0,part_1,,,,,,,,,,,,,cyan,flipped triangle
119.0,2.0,2.0,0.0,3.0,3.0,306.5977633232251,2.0,1.0,part_1,,,,,,,,,,,,,yellow,diamond
0.0,8.0,0.0,1.0,4.0,4.0,542.64762972889,2.0,1.0,part_1,,,,,,,,,,,,,blue,hexagon
204.0,7.0,3.0,1.0,2.0,2.0,285.9118931664852,2.0,1.0,part_1,,,,,,,,,,,,,white,cross
197.0,3.0,3.0,0.0,2.0,2.0,398.187382161268,2.0,1.0,part_1,,,,,,,,,,,,,orange,triangle
35.0,5.0,1.0,1.0,3.0,3.0,342.895034889807,2.0,1.0,part_1,,,,,,,,,,,,,green,I
35.0,1.0,1.0,0.0,4.0,4.0,479.0841868816642,2.0,1.0,part_1,,,,,,,,,,,,,gray,circle
376.0,4.0,4.0,0.0,3.0,3.0,412.9335953330155,2.0,1.0,part_1,,,,,,,,,,,,,magenta,square
0.0,7.0,0.0,1.0,1.0,1.0,411.8183786049485,2.0,1.0,part_1,,,,,,,,,,,,,white,cross
44.0,1.0,1.0,0.0,1.0,1.0,413.7720084545435,2.0,2.0,part_1,,,,,,,,,,,,,gray,circle
385.0,4.0,4.0,0.0,1.0,1.0,413.5735767486039,2.0,1.0,part_1,,,,,,,,,,,,,magenta,square
420.0,8.0,4.0,1.0,4.0,4.0,459.8413076018914,2.0,1.0,part_1,,,,,,,,,,,,,blue,hexagon
402.0,4.0,4.0,0.0,3.0,3.0,561.6130870475899,2.0,1.0,part_1,,,,,,,,,,,,,magenta,square
0.0,2.0,0.0,0.0,1.0,1.0,437.9820823378395,2.0,1.0,part_1,,,,,,,,,,,,,yellow,diamond
407.0,4.0,4.0,0.0,4.0,4.0,528.4709190018475,2.0,1.0,part_1,,,,,,,,,,,,,magenta,square
86.0,2.0,2.0,0.0,3.0,3.0,337.6606347301276,2.0,1.0,part_1,,,,,,,,,,,,,yellow,diamond
419.0,4.0,4.0,0.0,1.0,1.0,461.5822910418501,2.0,1.0,part_1,,,,,,,,,,,,,magenta,square
202.0,7.0,3.0,1.0,1.0,1.0,428.0380927084479,2.0,1.0,part_1,,,,,,,,,,,,,white,cross
183.0,3.0,3.0,0.0,1.0,1.0,406.2202561763115,2.0,1.0,part_1,,,,,,,,,,,,,orange,triangle
393.0,8.0,4.0,1.0,2.0,2.0,328.1685224355897,2.0,1.0,part_1,,,,,,,,,,,,,blue,hexagon
53.0,1.0,1.0,0.0,3.0,3.0,395.4459334781859,2.0,1.0,part_1,,,,,,,,,,,,,gray,circle
222.0,7.0,3.0,1.0,3.0,3.0,386.9187264499487,2.0,1.0,part_1,,,,,,,,,,,,,white,cross
208.0,3.0,3.0,0.0,4.0,4.0,363.7844408949604,2.0,1.0,part_1,,,,,,,,,,,,,orange,triangle
56.0,1.0,1.0,0.0,1.0,1.0,455.2880738920066,2.0,1.0,part_1,,,,,,,,,,,,,gray,circle
51.0,1.0,1.0,0.0,4.0,4.0,397.9352264577755,2.0,1.0,part_1,,,,,,,,,,,,,gray,circle
194.0,3.0,3.0,0.0,1.0,1.0,444.346268006484,2.0,1.0,part_1,,,,,,,,,,,,,orange,triangle
215.0,3.0,3.0,0.0,3.0,3.0,444.3151690356899,2.0,1.0,part_1,,,,,,,,,,,,,orange,triangle
48.0,5.0,1.0,1.0,1.0,1.0,501.0626204457367,2.0,1.0,part_1,,,,,,,,,,,,,green,I
56.0,5.0,1.0,1.0,4.0,4.0,366.3664228806738,2.0,1.0,part_1,,,,,,,,,,,,,green,I
0.0,7.0,0.0,1.0,2.0,2.0,300.4703192709712,2.0,1.0,part_1,,,,,,,,,,,,,white,cross
381.0,4.0,4.0,0.0,2.0,2.0,401.2728621746646,2.0,1.0,part_1,,,,,,,,,,,,,magenta,square
56.0,5.0,1.0,1.0,4.0,4.0,402.6435788837261,2.0,1.0,part_1,,,,,,,,,,,,,green,I
200.0,3.0,3.0,0.0,4.0,4.0,426.5604054817231,2.0,1.0,part_1,,,,,,,,,,,,,orange,triangle
413.0,8.0,4.0,1.0,4.0,4.0,380.8198745973641,2.0,1.0,part_1,,,,,,,,,,,,,blue,hexagon
197.0,7.0,3.0,1.0,4.0,4.0,358.2793431705795,2.0,1.0,part_1,,,,,,,,,,,,,white,cross
100.0,2.0,2.0,0.0,1.0,1.0,406.371347446111,2.0,1.0,part_1,,,,,,,,,,,,,yellow,diamond
390.0,4.0,4.0,0.0,3.0,3.0,393.6049394396832,2.0,1.0,part_1,,,,,,,,,,,,,magenta,square
0.0,6.0,0.0,1.0,2.0,2.0,438.9279677125159,2.0,1.0,part_1,,,,,,,,,,,,,cyan,flipped triangle
35.0,5.0,1.0,1.0,4.0,4.0,315.9789151686709,2.0,1.0,part_1,,,,,,,,,,,,,green,I
44.0,5.0,1.0,1.0,4.0,4.0,395.2996841690037,2.0,1.0,part_1,,,,,,,,,,,,,green,I
0.0,6.0,0.0,1.0,1.0,1.0,419.8257016105344,2.0,1.0,part_1,,,,,,,,,,,,,cyan,flipped triangle
376.0,8.0,4.0,1.0,3.0,3.0,307.5826521526323,2.0,1.0,part_1,,,,,,,,,,,,,blue,hexagon
27.0,1.0,1.0,0.0,1.0,1.0,432.7034113230183,2.0,2.0,part_1,,,,,,,,,,,,,gray,circle
85.0,6.0,2.0,1.0,4.0,4.0,409.7505906102014,2.0,1.0,part_1,,,,,,,,,,,,,cyan,flipped triangle
410.0,8.0,4.0,1.0,2.0,2.0,421.1884107644437,2.0,1.0,part_1,,,,,,,,,,,,,blue,hexagon
88.0,2.0,2.0,0.0,1.0,1.0,412.1976303285919,2.0,2.0,part_1,,,,,,,,,,,,,yellow,diamond
378.0,8.0,4.0,1.0,3.0,3.0,378.3680816122796,2.0,1.0,part_1,,,,,,,,,,,,,blue,hexagon
51.0,5.0,1.0,1.0,3.0,3.0,411.162442076602,2.0,1.0,part_1,,,,,,,,,,,,,green,I
0.0,8.0,0.0,1.0,2.0,2.0,385.9131826611701,3.0,1.0,part_1,,,,,,,,,,,,,blue,hexagon
120.0,2.0,2.0,0.0,2.0,2.0,352.0336147339549,3.0,1.0,part_1,,,,,,,,,,,,,yellow,diamond
0.0,3.0,0.0,0.0,4.0,4.0,352.4244010041002,3.0,1.0,part_1,,,,,,,,,,,,,orange,triangle
0.0,5.0,0.0,1.0,4.0,4.0,476.6015684435842,3.0,1.0,part_1,,,,,,,,,,,,,green,I
98.0,6.0,2.0,1.0,3.0,3.0,387.6223721745191,3.0,1.0,part_1,,,,,,,,,,,,,cyan,flipped triangle
0.0,4.0,0.0,0.0,4.0,4.0,432.8449557215208,3.0,1.0,part_1,,,,,,,,,,,,,magenta,square
0.0,7.0,0.0,1.0,4.0,4.0,343.0253118858672,3.0,1.0,part_1,,,,,,,,,,,,,white,cross
114.0,2.0,2.0,0.0,4.0,4.0,344.3279487255495,3.0,1.0,part_1,,,,,,,,,,,,,yellow,diamond
188.0,7.0,3.0,1.0,1.0,1.0,345.3939364408143,3.0,1.0,part_1,,,,,,,,,,,,,white,cross
186.0,3.0,3.0,0.0,3.0,3.0,356.8576290417695,3.0,1.0,part_1,,,,,,,,,,,,,orange,triangle
0.0,1.0,0.0,0.0,4.0,4.0,378.4182116069132,3.0,1.0,part_1,,,,,,,,,,,,,gray,circle
0.0,1.0,0.0,0.0,1.0,1.0,438.076467034989,3.0,2.0,part_1,,,,,,,,,,,,,gray,circle
59.0,5.0,1.0,1.0,3.0,3.0,470.8424834389006,3.0,1.0,part_1,,,,,,,,,,,,,green,I
0.0,2.0,0.0,0.0,3.0,3.0,392.1098723221803,3.0,1.0,part_1,,,,,,,,,,,,,yellow,diamond
413.0,4.0,4.0,0.0,1.0,1.0,618.3261454862077,3.0,1.0,part_1,,,,,,,,,,,,,magenta,square
84.0,6.0,2.0,1.0,3.0,3.0,541.3314487232128,3.0,1.0,part_1,,,,,,,,,,,,,cyan,flipped triangle
188.0,3.0,3.0,0.0,2.0,2.0,429.0419141616439,3.0,1.0,part_1,,,,,,,,,,,,,orange,triangle
177.0,7.0,3.0,1.0,1.0,1.0,462.2769717680057,3.0,1.0,part_1,,,,,,,,,,,,,white,cross
0.0,1.0,0.0,0.0,2.0,2.0,463.1075393408537,3.0,1.0,part_1,,,,,,,,,,,,,gray,circle
216.0,7.0,3.0,1.0,4.0,4.0,362.7470681676641,3.0,1.0,part_1,,,,,,,,,,,,,white,cross
222.0,7.0,3.0,1.0,2.0,2.0,452.5528004451189,3.0,1.0,part_1,,,,,,,,,,,,,white,cross
188.0,7.0,3.0,1.0,4.0,4.0,486.3661056151613,3.0,1.0,part_1,,,,,,,,,,,,,white,cross
0.0,3.0,0.0,0.0,1.0,1.0,398.2613611588022,3.0,1.0,part_1,,,,,,,,,,,,,orange,triangle
56.0,5.0,1.0,1.0,4.0,4.0,419.8124757676851,3.0,1.0,part_1,,,,,,,,,,,,,green,I
123.0,2.0,2.0,0.0,1.0,1.0,422.3737716092728,3.0,1.0,part_1,,,,,,,,,,,,,yellow,diamond
225.0,3.0,3.0,0.0,4.0,4.0,411.380021891091,3.0,1.0,part_1,,,,,,,,,,,,,orange,triangle
73.0,5.0,1.0,1.0,2.0,2.0,456.0255067335674,3.0,1.0,part_1,,,,,,,,,,,,,green,I
202.0,3.0,3.0,0.0,3.0,3.0,523.1853946170304,3.0,1.0,part_1,,,,,,,,,,,,,orange,triangle
0.0,8.0,0.0,1.0,2.0,2.0,389.8338677681749,3.0,1.0,part_1,,,,,,,,,,,,,blue,hexagon
0.0,4.0,0.0,0.0,3.0,3.0,334.9199227668578,3.0,1.0,part_1,,,,,,,,,,,,,magenta,square
86.0,2.0,2.0,0.0,4.0,4.0,435.78221333154937,3.0,1.0,part_1,,,,,,,,,,,,,yellow,diamond
182.0,3.0,3.0,0.0,4.0,4.0,413.3930853422498,3.0,1.0,part_1,,,,,,,,,,,,,orange,triangle
119.0,6.0,2.0,1.0,1.0,1.0,381.9922584370943,3.0,1.0,part_1,,,,,,,,,,,,,cyan,flipped triangle
378.0,4.0,4.0,0.0,1.0,1.0,393.5726156196324,3.0,1.0,part_1,,,,,,,,,,,,,magenta,square
0.0,6.0,0.0,1.0,2.0,2.0,371.5000563388457,3.0,1.0,part_1,,,,,,,,,,,,,cyan,flipped triangle
402.0,8.0,4.0,1.0,1.0,1.0,460.9112534526502,3.0,1.0,part_1,,,,,,,,,,,,,blue,hexagon
0.0,1.0,0.0,0.0,4.0,4.0,304.4511737243738,3.0,1.0,part_1,,,,,,,,,,,,,gray,circle
64.0,1.0,1.0,0.0,2.0,2.0,327.982188158785,3.0,1.0,part_1,,,,,,,,,,,,,gray,circle
112.0,2.0,2.0,0.0,4.0,4.0,350.6511377199786,3.0,1.0,part_1,,,,,,,,,,,,,yellow,diamond
224.0,3.0,3.0,0.0,3.0,3.0,361.3285411556717,3.0,1.0,part_1,,,,,,,,,,,,,orange,triangle
391.0,8.0,4.0,1.0,4.0,4.0,395.6786580383777,3.0,1.0,part_1,,,,,,,,,,,,,blue,hexagon
220.0,7.0,3.0,1.0,4.0,4.0,385.0176991545595,3.0,1.0,part_1,,,,,,,,,,,,,white,cross
98.0,2.0,2.0,0.0,2.0,2.0,398.0925117648439,3.0,1.0,part_1,,,,,,,,,,,,,yellow,diamond
0.0,2.0,0.0,0.0,3.0,3.0,354.465789758251,3.0,3.0,part_1,,,,,,,,,,,,,yellow,diamond
56.0,1.0,1.0,0.0,4.0,4.0,399.9789146182593,3.0,1.0,part_1,,,,,,,,,,,,,gray,circle
48.0,5.0,1.0,1.0,3.0,3.0,400.3922481642803,3.0,1.0,part_1,,,,,,,,,,,,,green,I
190.0,7.0,3.0,1.0,3.0,3.0,378.0156043358147,3.0,1.0,part_1,,,,,,,,,,,,,white,cross
0.0,7.0,0.0,1.0,1.0,1.0,413.4801134496229,3.0,2.0,part_1,,,,,,,,,,,,,white,cross
0.0,1.0,0.0,0.0,4.0,4.0,582.1299781673588,3.0,1.0,part_1,,,,,,,,,,,,,gray,circle
0.0,2.0,0.0,0.0,1.0,1.0,505.48142632760573,3.0,1.0,part_1,,,,,,,,,,,,,yellow,diamond
83.0,6.0,2.0,1.0,4.0,4.0,403.3218168915482,3.0,1.0,part_1,,,,,,,,,,,,,cyan,flipped triangle
0.0,8.0,0.0,1.0,4.0,4.0,425.7549317262601,3.0,1.0,part_1,,,,,,,,,,,,,blue,hexagon
209.0,7.0,3.0,1.0,3.0,3.0,359.220303434995,3.0,1.0,part_1,,,,,,,,,,,,,white,cross
38.0,5.0,1.0,1.0,2.0,2.0,439.2781996139092,3.0,1.0,part_1,,,,,,,,,,,,,green,I
0.0,3.0,0.0,0.0,1.0,1.0,382.9790491727181,3.0,1.0,part_1,,,,,,,,,,,,,orange,triangle
57.0,1.0,1.0,0.0,1.0,1.0,597.9158404370537,3.0,1.0,part_1,,,,,,,,,,,,,gray,circle
0.0,3.0,0.0,0.0,4.0,4.0,407.7885698789032,3.0,1.0,part_1,,,,,,,,,,,,,orange,triangle
112.0,6.0,2.0,1.0,1.0,1.0,464.6964794374071,3.0,1.0,part_1,,,,,,,,,,,,,cyan,flipped triangle
419.0,8.0,4.0,1.0,2.0,2.0,486.6120861697709,3.0,1.0,part_1,,,,,,,,,,,,,blue,hexagon
73.0,1.0,1.0,0.0,1.0,1.0,397.2520641691517,3.0,1.0,part_1,,,,,,,,,,,,,gray,circle
0.0,5.0,0.0,1.0,4.0,4.0,442.6708937535295,3.0,1.0,part_1,,,,,,,,,,,,,green,I
47.0,1.0,1.0,0.0,4.0,4.0,566.6294456023024,3.0,1.0,part_1,,,,,,,,,,,,,gray,circle
68.0,1.0,1.0,0.0,4.0,4.0,454.5611587236635,3.0,1.0,part_1,,,,,,,,,,,,,gray,circle
0.0,8.0,0.0,1.0,4.0,4.0,591.7583347327309,3.0,1.0,part_1,,,,,,,,,,,,,blue,hexagon
183.0,3.0,3.0,0.0,3.0,3.0,726.4864216122078,3.0,1.0,part_1,,,,,,,,,,,,,orange,triangle
0.0,4.0,0.0,0.0,2.0,2.0,345.8638158917893,3.0,1.0,part_1,,,,,,,,,,,,,magenta,square
54.0,1.0,1.0,0.0,2.0,2.0,401.3817406084854,3.0,1.0,part_1,,,,,,,,,,,,,gray,circle
384.0,4.0,4.0,0.0,2.0,2.0,403.2568706170423,3.0,1.0,part_1,,,,,,,,,,,,,magenta,square
401.0,4.0,4.0,0.0,2.0,2.0,334.6069814433576,3.0,1.0,part_1,,,,,,,,,,,,,magenta,square
223.0,7.0,3.0,1.0,4.0,4.0,640.3344837599434,3.0,1.0,part_1,,,,,,,,,,,,,white,cross
30.0,5.0,1.0,1.0,1.0,1.0,627.8913434798596,3.0,1.0,part_1,,,,,,,,,,,,,green,I
390.0,8.0,4.0,1.0,4.0,4.0,470.9877814748324,3.0,1.0,part_1,,,,,,,,,,,,,blue,hexagon
412.0,8.0,4.0,1.0,2.0,2.0,483.9181843271944,3.0,1.0,part_1,,,,,,,,,,,,,blue,hexagon
101.0,2.0,2.0,0.0,1.0,1.0,383.6103288922459,3.0,1.0,part_1,,,,,,,,,,,,,yellow,diamond
0.0,7.0,0.0,1.0,1.0,1.0,416.8300327582983,3.0,1.0,part_1,,,,,,,,,,,,,white,cross
123.0,6.0,2.0,1.0,3.0,3.0,327.7065354486694,3.0,2.0,part_1,,,,,,,,,,,,,cyan,flipped triangle
407.0,4.0,4.0,0.0,2.0,2.0,395.1001737295883,3.0,1.0,part_1,,,,,,,,,,,,,magenta,square
189.0,7.0,3.0,1.0,2.0,2.0,463.7980164407054,3.0,1.0,part_1,,,,,,,,,,,,,white,cross
200.0,7.0,3.0,1.0,1.0,1.0,520.5900281725917,3.0,1.0,part_1,,,,,,,,,,,,,white,cross
36.0,1.0,1.0,0.0,3.0,3.0,476.1587954417337,3.0,1.0,part_1,,,,,,,,,,,,,gray,circle
0.0,4.0,0.0,0.0,2.0,2.0,421.072383003775,3.0,1.0,part_1,,,,,,,,,,,,,magenta,square
188.0,3.0,3.0,0.0,4.0,4.0,600.9510496078292,3.0,1.0,part_1,,,,,,,,,,,,,orange,triangle
186.0,3.0,3.0,0.0,2.0,2.0,421.1988480383297,3.0,1.0,part_1,,,,,,,,,,,,,orange,triangle
179.0,3.0,3.0,0.0,1.0,1.0,557.0470117236255,3.0,1.0,part_1,,,,,,,,,,,,,orange,triangle
0.0,7.0,0.0,1.0,3.0,3.0,468.0505397554952,3.0,1.0,part_1,,,,,,,,,,,,,white,cross
77.0,6.0,2.0,1.0,2.0,2.0,625.5169931682758,3.0,1.0,part_1,,,,,,,,,,,,,cyan,flipped triangle
90.0,2.0,2.0,0.0,3.0,3.0,479.1309067659313,3.0,1.0,part_1,,,,,,,,,,,,,yellow,diamond
26.0,1.0,1.0,0.0,1.0,1.0,414.1992684453726,3.0,1.0,part_1,,,,,,,,,,,,,gray,circle
384.0,8.0,4.0,1.0,2.0,2.0,413.9727916044649,3.0,1.0,part_1,,,,,,,,,,,,,blue,hexagon
0.0,7.0,0.0,1.0,2.0,2.0,481.47504060762,3.0,1.0,part_1,,,,,,,,,,,,,white,cross
36.0,1.0,1.0,0.0,3.0,3.0,537.3937117692549,3.0,1.0,part_1,,,,,,,,,,,,,gray,circle
421.0,4.0,4.0,0.0,3.0,3.0,583.1462883361382,3.0,1.0,part_1,,,,,,,,,,,,,magenta,square
87.0,2.0,2.0,0.0,3.0,3.0,393.05298888939427,3.0,1.0,part_1,,,,,,,,,,,,,yellow,diamond
57.0,5.0,1.0,1.0,3.0,3.0,731.1856796004577,3.0,1.0,part_1,,,,,,,,,,,,,green,I
0.0,5.0,0.0,1.0,3.0,3.0,393.6039310501655,3.0,1.0,part_1,,,,,,,,,,,,,green,I
391.0,4.0,4.0,0.0,4.0,4.0,495.4067681683227,3.0,1.0,part_1,,,,,,,,,,,,,magenta,square
389.0,4.0,4.0,0.0,1.0,1.0,474.1585967567516,3.0,1.0,part_1,,,,,,,,,,,,,magenta,square
36.0,5.0,1.0,1.0,2.0,2.0,372.8912904480239,3.0,1.0,part_1,,,,,,,,,,,,,green,I
376.0,4.0,4.0,0.0,1.0,1.0,351.7253278841963,3.0,1.0,part_1,,,,,,,,,,,,,magenta,square
38.0,5.0,1.0,1.0,4.0,4.0,351.98192045209,3.0,1.0,part_1,,,,,,,,,,,,,green,I
209.0,3.0,3.0,0.0,2.0,2.0,534.5531054481398,4.0,1.0,part_1,,,,,,,,,,,,,orange,triangle
384.0,4.0,4.0,0.0,4.0,4.0,378.4256804356118,4.0,1.0,part_1,,,,,,,,,,,,,magenta,square
29.0,5.0,1.0,1.0,3.0,3.0,342.9512609000085,4.0,1.0,part_1,,,,,,,,,,,,,green,I
98.0,2.0,2.0,0.0,2.0,2.0,322.8716621670173,4.0,1.0,part_1,,,,,,,,,,,,,yellow,diamond
0.0,3.0,0.0,0.0,4.0,4.0,670.8623853337485,4.0,1.0,part_1,,,,,,,,,,,,,orange,triangle
85.0,2.0,2.0,0.0,4.0,4.0,369.5472941617481,4.0,1.0,part_1,,,,,,,,,,,,,yellow,diamond
188.0,3.0,3.0,0.0,2.0,2.0,323.4624346077908,4.0,1.0,part_1,,,,,,,,,,,,,orange,triangle
38.0,1.0,1.0,0.0,2.0,2.0,504.930524766678,4.0,1.0,part_1,,,,,,,,,,,,,gray,circle
101.0,6.0,2.0,1.0,4.0,4.0,763.7507709005149,4.0,1.0,part_1,,,,,,,,,,,,,cyan,flipped triangle
0.0,7.0,0.0,1.0,3.0,3.0,382.2346758970525,4.0,1.0,part_1,,,,,,,,,,,,,white,cross
68.0,5.0,1.0,1.0,3.0,3.0,393.1622939417138,4.0,1.0,part_1,,,,,,,,,,,,,green,I
48.0,1.0,1.0,0.0,2.0,2.0,326.4973635959904,4.0,1.0,part_1,,,,,,,,,,,,,gray,circle
186.0,7.0,3.0,1.0,3.0,3.0,506.1083534528734,4.0,1.0,part_1,,,,,,,,,,,,,white,cross
69.0,1.0,1.0,0.0,1.0,1.0,531.5620191686321,4.0,1.0,part_1,,,,,,,,,,,,,gray,circle
45.0,1.0,1.0,0.0,2.0,2.0,418.1730136042461,4.0,1.0,part_1,,,,,,,,,,,,,gray,circle
90.0,6.0,2.0,1.0,1.0,1.0,452.3926469992148,4.0,1.0,part_1,,,,,,,,,,,,,cyan,flipped triangle
0.0,2.0,0.0,0.0,1.0,1.0,521.8202317191754,4.0,1.0,part_1,,,,,,,,,,,,,yellow,diamond
113.0,6.0,2.0,1.0,1.0,1.0,656.8347453285241,4.0,1.0,part_1,,,,,,,,,,,,,cyan,flipped triangle
401.0,8.0,4.0,1.0,1.0,1.0,420.7025130453985,4.0,1.0,part_1,,,,,,,,,,,,,blue,hexagon
90.0,6.0,2.0,1.0,2.0,2.0,331.9535729970084,4.0,1.0,part_1,,,,,,,,,,,,,cyan,flipped triangle
73.0,1.0,1.0,0.0,2.0,2.0,423.1686851708218,4.0,1.0,part_1,,,,,,,,,,,,,gray,circle
424.0,8.0,4.0,1.0,4.0,4.0,421.067885166849,4.0,1.0,part_1,,,,,,,,,,,,,blue,hexagon
98.0,6.0,2.0,1.0,3.0,3.0,331.796582613606,4.0,1.0,part_1,,,,,,,,,,,,,cyan,flipped triangle
423.0,8.0,4.0,1.0,1.0,1.0,514.0958179981681,4.0,1.0,part_1,,,,,,,,,,,,,blue,hexagon
203.0,3.0,3.0,0.0,4.0,4.0,356.8657197320135,4.0,1.0,part_1,,,,,,,,,,,,,orange,triangle
0.0,4.0,0.0,0.0,3.0,3.0,490.7550721691223,4.0,1.0,part_1,,,,,,,,,,,,,magenta,square
194.0,7.0,3.0,1.0,3.0,3.0,435.5863828968722,4.0,1.0,part_1,,,,,,,,,,,,,white,cross
47.0,5.0,1.0,1.0,1.0,1.0,314.580974765704,4.0,2.0,part_1,,,,,,,,,,,,,green,I
182.0,3.0,3.0,0.0,3.0,3.0,459.4178581610322,4.0,1.0,part_1,,,,,,,,,,,,,orange,triangle
217.0,3.0,3.0,0.0,4.0,4.0,415.6025244883494,4.0,1.0,part_1,,,,,,,,,,,,,orange,triangle
0.0,8.0,0.0,1.0,4.0,4.0,562.105323158903,4.0,1.0,part_1,,,,,,,,,,,,,blue,hexagon
201.0,3.0,3.0,0.0,4.0,4.0,415.7932904345216,4.0,1.0,part_1,,,,,,,,,,,,,orange,triangle
113.0,2.0,2.0,0.0,4.0,4.0,517.6084344420815,4.0,1.0,part_1,,,,,,,,,,,,,yellow,diamond
188.0,7.0,3.0,1.0,2.0,2.0,439.7850927198306,4.0,1.0,part_1,,,,,,,,,,,,,white,cross
199.0,7.0,3.0,1.0,1.0,1.0,362.4230988934869,4.0,1.0,part_1,,,,,,,,,,,,,white,cross
95.0,2.0,2.0,0.0,3.0,3.0,642.8514247672865,4.0,1.0,part_1,,,,,,,,,,,,,yellow,diamond
27.0,5.0,1.0,1.0,2.0,2.0,498.2510990375886,4.0,1.0,part_1,,,,,,,,,,,,,green,I
0.0,6.0,0.0,1.0,1.0,1.0,409.3708541622618,4.0,1.0,part_1,,,,,,,,,,,,,cyan,flipped triangle
215.0,7.0,3.0,1.0,1.0,1.0,454.4893754355144,4.0,1.0,part_1,,,,,,,,,,,,,white,cross
38.0,1.0,1.0,0.0,2.0,2.0,375.7468517142115,4.0,1.0,part_1,,,,,,,,,,,,,gray,circle
0.0,4.0,0.0,0.0,4.0,4.0,455.74255604879,4.0,1.0,part_1,,,,,,,,,,,,,magenta,square
410.0,4.0,4.0,0.0,2.0,2.0,400.5130917212227,4.0,1.0,part_1,,,,,,,,,,,,,magenta,square
0.0,1.0,0.0,0.0,1.0,1.0,884.1280780470697,4.0,1.0,part_1,,,,,,,,,,,,,gray,circle
194.0,3.0,3.0,0.0,1.0,1.0,569.4996160309529,4.0,1.0,part_1,,,,,,,,,,,,,orange,triangle
381.0,4.0,4.0,0.0,3.0,3.0,344.6033170330338,4.0,1.0,part_1,,,,,,,,,,,,,magenta,square
205.0,3.0,3.0,0.0,3.0,3.0,457.3948616161942,4.0,1.0,part_1,,,,,,,,,,,,,orange,triangle
395.0,4.0,4.0,0.0,1.0,1.0,435.5832529981853,4.0,1.0,part_1,,,,,,,,,,,,,magenta,square
30.0,1.0,1.0,0.0,1.0,1.0,380.5577307211933,4.0,1.0,part_1,,,,,,,,,,,,,gray,circle
45.0,5.0,1.0,1.0,2.0,2.0,358.3154751686379,4.0,1.0,part_1,,,,,,,,,,,,,green,I
65.0,1.0,1.0,0.0,3.0,3.0,460.7760110375238,4.0,1.0,part_1,,,,,,,,,,,,,gray,circle
415.0,8.0,4.0,1.0,3.0,3.0,437.8606304526329,4.0,1.0,part_1,,,,,,,,,,,,,blue,hexagon
53.0,5.0,1.0,1.0,1.0,1.0,440.2549473452382,4.0,1.0,part_1,,,,,,,,,,,,,green,I
190.0,3.0,3.0,0.0,4.0,4.0,438.9589570346288,4.0,1.0,part_1,,,,,,,,,,,,,orange,triangle
0.0,1.0,0.0,0.0,1.0,1.0,473.9894298982108,4.0,1.0,part_1,,,,,,,,,,,,,gray,circle
98.0,2.0,2.0,0.0,2.0,2.0,373.4983121539699,4.0,1.0,part_1,,,,,,,,,,,,,yellow,diamond
105.0,6.0,2.0,1.0,2.0,2.0,577.0792380499188,4.0,1.0,part_1,,,,,,,,,,,,,cyan,flipped triangle
0.0,2.0,0.0,0.0,2.0,2.0,430.1722870004596,4.0,1.0,part_1,,,,,,,,,,,,,yellow,diamond
393.0,4.0,4.0,0.0,2.0,2.0,499.0705510281259,4.0,1.0,part_1,,,,,,,,,,,,,magenta,square
0.0,5.0,0.0,1.0,3.0,3.0,397.7191083395155,4.0,1.0,part_1,,,,,,,,,,,,,green,I
88.0,6.0,2.0,1.0,1.0,1.0,477.1693547663744,4.0,1.0,part_1,,,,,,,,,,,,,cyan,flipped triangle
183.0,7.0,3.0,1.0,3.0,3.0,477.6585088839056,4.0,1.0,part_1,,,,,,,,,,,,,white,cross
98.0,6.0,2.0,1.0,3.0,3.0,398.3547593234107,4.0,1.0,part_1,,,,,,,,,,,,,cyan,flipped triangle
389.0,8.0,4.0,1.0,4.0,4.0,681.5754261624534,4.0,1.0,part_1,,,,,,,,,,,,,blue,hexagon
419.0,8.0,4.0,1.0,4.0,4.0,480.682298031752,4.0,1.0,part_1,,,,,,,,,,,,,blue,hexagon
84.0,2.0,2.0,0.0,2.0,2.0,344.2193411756307,4.0,1.0,part_1,,,,,,,,,,,,,yellow,diamond
36.0,5.0,1.0,1.0,1.0,1.0,390.1071440050145,4.0,1.0,part_1,,,,,,,,,,,,,green,I
59.0,1.0,1.0,0.0,4.0,4.0,683.1061081611551,4.0,1.0,part_1,,,,,,,,,,,,,gray,circle
0.0,1.0,0.0,0.0,2.0,2.0,414.5179488841677,4.0,1.0,part_1,,,,,,,,,,,,,gray,circle
423.0,4.0,4.0,0.0,4.0,4.0,403.5894534463295,4.0,1.0,part_1,,,,,,,,,,,,,magenta,square
117.0,6.0,2.0,1.0,2.0,2.0,471.5436570404563,4.0,1.0,part_1,,,,,,,,,,,,,cyan,flipped triangle
48.0,1.0,1.0,0.0,1.0,1.0,461.9303494546329,4.0,1.0,part_1,,,,,,,,,,,,,gray,circle
216.0,3.0,3.0,0.0,2.0,2.0,540.822115042829,4.0,1.0,part_1,,,,,,,,,,,,,orange,triangle
60.0,1.0,1.0,0.0,3.0,3.0,427.0192867552396,4.0,1.0,part_1,,,,,,,,,,,,,gray,circle
384.0,8.0,4.0,1.0,1.0,1.0,484.7750373301096,4.0,1.0,part_1,,,,,,,,,,,,,blue,hexagon
95.0,6.0,2.0,1.0,4.0,4.0,452.5212721637217,4.0,1.0,part_1,,,,,,,,,,,,,cyan,flipped triangle
0.0,3.0,0.0,0.0,3.0,3.0,384.7623727488098,4.0,1.0,part_1,,,,,,,,,,,,,orange,triangle
0.0,3.0,0.0,0.0,1.0,1.0,510.6997877592221,4.0,1.0,part_1,,,,,,,,,,,,,orange,triangle
176.0,3.0,3.0,0.0,1.0,1.0,711.4716658979887,4.0,1.0,part_1,,,,,,,,,,,,,orange,triangle
77.0,2.0,2.0,0.0,1.0,1.0,376.7978663236135,4.0,1.0,part_1,,,,,,,,,,,,,yellow,diamond
199.0,3.0,3.0,0.0,2.0,2.0,399.390540755121,4.0,1.0,part_1,,,,,,,,,,,,,orange,triangle
381.0,8.0,4.0,1.0,2.0,2.0,377.6058424409712,4.0,1.0,part_1,,,,,,,,,,,,,blue,hexagon
393.0,4.0,4.0,0.0,2.0,2.0,432.7901331707835,4.0,1.0,part_1,,,,,,,,,,,,,magenta,square
86.0,6.0,2.0,1.0,3.0,3.0,668.6453142756363,4.0,1.0,part_1,,,,,,,,,,,,,cyan,flipped triangle
120.0,2.0,2.0,0.0,2.0,2.0,479.4322658854071,4.0,1.0,part_1,,,,,,,,,,,,,yellow,diamond
106.0,2.0,2.0,0.0,4.0,4.0,907.5310864718632,4.0,1.0,part_1,,,,,,,,,,,,,yellow,diamond
112.0,2.0,2.0,0.0,4.0,4.0,614.9331476044608,4.0,1.0,part_1,,,,,,,,,,,,,yellow,diamond
225.0,7.0,3.0,1.0,3.0,3.0,604.8174438765272,4.0,1.0,part_1,,,,,,,,,,,,,white,cross
0.0,3.0,0.0,0.0,4.0,4.0,627.3198977141874,4.0,1.0,part_1,,,,,,,,,,,,,orange,triangle
29.0,1.0,1.0,0.0,2.0,2.0,583.1877723248908,4.0,1.0,part_1,,,,,,,,,,,,,gray,circle
0.0,3.0,0.0,0.0,2.0,2.0,539.8355106153758,4.0,1.0,part_1,,,,,,,,,,,,,orange,triangle
0.0,4.0,0.0,0.0,1.0,1.0,437.9457138857106,4.0,1.0,part_1,,,,,,,,,,,,,magenta,square
33.0,1.0,1.0,0.0,4.0,4.0,618.761129444465,4.0,1.0,part_1,,,,,,,,,,,,,gray,circle
420.0,4.0,4.0,0.0,2.0,2.0,427.550212611095,4.0,1.0,part_1,,,,,,,,,,,,,magenta,square
0.0,8.0,0.0,1.0,4.0,4.0,417.0092507119989,4.0,1.0,part_1,,,,,,,,,,,,,blue,hexagon
0.0,6.0,0.0,1.0,4.0,4.0,653.7562196026556,4.0,1.0,part_1,,,,,,,,,,,,,cyan,flipped triangle
112.0,6.0,2.0,1.0,4.0,4.0,395.9981423249701,4.0,1.0,part_1,,,,,,,,,,,,,cyan,flipped triangle
0.0,6.0,0.0,1.0,3.0,3.0,350.1740068895742,4.0,1.0,part_1,,,,,,,,,,,,,cyan,flipped triangle
0.0,8.0,0.0,1.0,1.0,1.0,644.3952380359406,4.0,1.0,part_1,,,,,,,,,,,,,blue,hexagon
0.0,2.0,0.0,0.0,1.0,1.0,588.0781437299447,4.0,1.0,part_1,,,,,,,,,,,,,yellow,diamond
106.0,6.0,2.0,1.0,3.0,3.0,533.0312304431573,4.0,1.0,part_1,,,,,,,,,,,,,cyan,flipped triangle
0.0,5.0,1.0,1.0,5.0,0.0,0.0,1.0,0.0,part_2,stop,250.0,250.0,4.0,,,,,,,,,green,I
0.0,8.0,4.0,1.0,5.0,0.0,0.0,1.0,0.0,part_2,stop,300.0,250.0,4.0,,,,,,,,,blue,hexagon
0.0,6.0,2.0,1.0,5.0,5.0,733.8095712620998,1.0,0.0,part_2,go,350.0,250.0,1.0,,,,,,,,,cyan,flipped triangle
0.0,3.0,3.0,0.0,6.0,6.0,892.4051137582865,1.0,0.0,part_2,go,350.0,250.0,1.0,,,,,,,,,orange,triangle
0.0,8.0,4.0,1.0,6.0,0.0,0.0,1.0,0.0,part_2,stop,350.0,250.0,4.0,,,,,,,,,blue,hexagon
0.0,3.0,3.0,0.0,5.0,5.0,331.3758342555957,1.0,0.0,part_2,go,350.0,300.0,1.0,,,,,,,,,orange,triangle
0.0,2.0,2.0,0.0,5.0,5.0,983.6285612691428,1.0,0.0,part_2,go,350.0,300.0,1.0,,,,,,,,,yellow,diamond
0.0,3.0,3.0,0.0,5.0,5.0,1119.7509965422796,1.0,0.0,part_2,go,350.0,300.0,1.0,,,,,,,,,orange,triangle
0.0,7.0,3.0,1.0,5.0,0.0,0.0,1.0,0.0,part_2,stop,350.0,300.0,4.0,,,,,,,,,white,cross
0.0,6.0,2.0,1.0,6.0,6.0,390.9601070481585,1.0,0.0,part_2,go,400.0,300.0,1.0,,,,,,,,,cyan,flipped triangle
0.0,6.0,2.0,1.0,5.0,5.0,999.6049645269522,1.0,0.0,part_2,go,400.0,300.0,1.0,,,,,,,,,cyan,flipped triangle
0.0,7.0,3.0,1.0,5.0,0.0,0.0,1.0,0.0,part_2,stop,400.0,300.0,4.0,,,,,,,,,white,cross
0.0,4.0,4.0,0.0,5.0,5.0,842.308607272571,1.0,0.0,part_2,go,450.0,300.0,1.0,,,,,,,,,magenta,square
0.0,5.0,1.0,1.0,5.0,5.0,1090.9643435443286,1.0,0.0,part_2,go,450.0,300.0,1.0,,,,,,,,,green,I
0.0,7.0,3.0,1.0,6.0,6.0,1124.6878750243925,1.0,0.0,part_2,go,450.0,300.0,1.0,,,,,,,,,white,cross
0.0,4.0,4.0,0.0,5.0,5.0,1093.6178195115644,1.0,0.0,part_2,go,450.0,300.0,1.0,,,,,,,,,magenta,square
0.0,6.0,2.0,1.0,6.0,6.0,889.9414045154117,1.0,0.0,part_2,go,450.0,300.0,1.0,,,,,,,,,cyan,flipped triangle
0.0,1.0,1.0,0.0,6.0,6.0,1173.2007402461022,1.0,0.0,part_2,go,450.0,300.0,1.0,,,,,,,,,gray,circle
0.0,3.0,3.0,0.0,6.0,6.0,1071.8967635475565,1.0,0.0,part_2,go,450.0,300.0,1.0,,,,,,,,,orange,triangle
0.0,1.0,1.0,0.0,6.0,6.0,827.2132107522339,1.0,0.0,part_2,go,450.0,300.0,1.0,,,,,,,,,gray,circle
0.0,5.0,1.0,1.0,6.0,0.0,0.0,1.0,0.0,part_2,stop,450.0,300.0,4.0,,,,,,,,,green,I
0.0,4.0,4.0,0.0,6.0,6.0,995.6823695101776,1.0,0.0,part_2,go,450.0,350.0,1.0,,,,,,,,,magenta,square
0.0,5.0,1.0,1.0,6.0,0.0,0.0,1.0,0.0,part_2,stop,450.0,350.0,4.0,,,,,,,,,green,I
0.0,2.0,2.0,0.0,6.0,6.0,706.4273655123543,1.0,0.0,part_2,go,450.0,400.0,1.0,,,,,,,,,yellow,diamond
0.0,2.0,2.0,0.0,5.0,5.0,943.2838119973894,1.0,0.0,part_2,go,450.0,400.0,1.0,,,,,,,,,yellow,diamond
0.0,2.0,2.0,0.0,6.0,6.0,899.1443402774166,1.0,0.0,part_2,go,450.0,400.0,1.0,,,,,,,,,yellow,diamond
0.0,3.0,3.0,0.0,5.0,5.0,910.8059195132228,1.0,0.0,part_2,go,450.0,400.0,1.0,,,,,,,,,orange,triangle
0.0,1.0,1.0,0.0,6.0,6.0,798.5176206275355,1.0,0.0,part_2,go,450.0,400.0,1.0,,,,,,,,,gray,circle
0.0,3.0,3.0,0.0,5.0,5.0,1092.1326810203027,1.0,0.0,part_2,go,450.0,400.0,1.0,,,,,,,,,orange,triangle
0.0,4.0,4.0,0.0,5.0,5.0,924.2715440341271,1.0,0.0,part_2,go,450.0,400.0,1.0,,,,,,,,,magenta,square
0.0,8.0,4.0,1.0,5.0,0.0,0.0,1.0,0.0,part_2,stop,450.0,400.0,4.0,,,,,,,,,blue,hexagon
0.0,7.0,3.0,1.0,5.0,0.0,0.0,1.0,0.0,part_2,stop,500.0,400.0,4.0,,,,,,,,,white,cross
0.0,5.0,1.0,1.0,5.0,0.0,0.0,1.0,0.0,part_2,stop,550.0,400.0,4.0,,,,,,,,,green,I
0.0,1.0,1.0,0.0,6.0,6.0,905.9412000206066,1.0,0.0,part_2,go,600.0,400.0,1.0,,,,,,,,,gray,circle
0.0,5.0,1.0,1.0,6.0,6.0,399.5779957913328,1.0,0.0,part_2,stop,600.0,400.0,3.0,,,,,,,,,green,I
0.0,4.0,4.0,0.0,5.0,5.0,974.2508899944368,1.0,0.0,part_2,go,600.0,350.0,1.0,,,,,,,,,magenta,square
0.0,8.0,4.0,1.0,6.0,6.0,412.6745172834489,2.0,0.0,part_2,stop,600.0,350.0,3.0,,,,,,,,,blue,hexagon
0.0,3.0,3.0,0.0,6.0,6.0,391.2212475406704,2.0,0.0,part_2,go,600.0,300.0,1.0,,,,,,,,,orange,triangle
0.0,1.0,1.0,0.0,5.0,5.0,292.0665030833334,2.0,0.0,part_2,go,600.0,300.0,1.0,,,,,,,,,gray,circle
0.0,4.0,4.0,0.0,6.0,6.0,316.0588747705333,2.0,0.0,part_2,go,600.0,300.0,1.0,,,,,,,,,magenta,square
0.0,5.0,1.0,1.0,6.0,6.0,308.5450722428504,2.0,0.0,part_2,stop,600.0,300.0,3.0,,,,,,,,,green,I
0.0,2.0,2.0,0.0,6.0,6.0,665.5668803141452,2.0,0.0,part_2,go,600.0,250.0,1.0,,,,,,,,,yellow,diamond
0.0,8.0,4.0,1.0,5.0,5.0,363.2889727596193,2.0,0.0,part_2,stop,600.0,250.0,3.0,,,,,,,,,blue,hexagon
0.0,3.0,3.0,0.0,6.0,6.0,318.1229310284834,2.0,0.0,part_2,go,550.0,250.0,1.0,,,,,,,,,orange,triangle
0.0,7.0,3.0,1.0,6.0,6.0,341.3546090014279,2.0,0.0,part_2,stop,550.0,250.0,3.0,,,,,,,,,white,cross
0.0,1.0,1.0,0.0,6.0,6.0,330.6139225169318,2.0,0.0,part_2,go,550.0,200.0,1.0,,,,,,,,,gray,circle
0.0,5.0,1.0,1.0,5.0,5.0,489.8784537945175,2.0,0.0,part_2,go,550.0,200.0,1.0,,,,,,,,,green,I
0.0,3.0,3.0,0.0,5.0,5.0,332.7016402618028,2.0,0.0,part_2,go,550.0,200.0,1.0,,,,,,,,,orange,triangle
0.0,2.0,2.0,0.0,5.0,5.0,491.1707050632685,2.0,0.0,part_2,go,550.0,200.0,1.0,,,,,,,,,yellow,diamond
0.0,5.0,1.0,1.0,6.0,6.0,345.656253004563,2.0,0.0,part_2,go,550.0,200.0,1.0,,,,,,,,,green,I
0.0,5.0,1.0,1.0,5.0,5.0,312.3791010293644,2.0,0.0,part_2,stop,550.0,200.0,3.0,,,,,,,,,green,I
0.0,4.0,4.0,0.0,6.0,6.0,302.1375097596319,2.0,0.0,part_2,go,500.0,200.0,1.0,,,,,,,,,magenta,square
0.0,2.0,2.0,0.0,6.0,6.0,415.6424080283614,2.0,0.0,part_2,go,500.0,200.0,1.0,,,,,,,,,yellow,diamond
0.0,5.0,1.0,1.0,6.0,6.0,349.5473437506007,2.0,0.0,part_2,stop,500.0,200.0,3.0,,,,,,,,,green,I
0.0,8.0,4.0,1.0,6.0,6.0,394.1157102817669,2.0,0.0,part_2,go,500.0,150.0,1.0,,,,,,,,,blue,hexagon
0.0,5.0,1.0,1.0,6.0,0.0,0.0,2.0,0.0,part_2,stop,500.0,150.0,4.0,,,,,,,,,green,I
0.0,1.0,1.0,0.0,6.0,6.0,440.9273705387022,2.0,0.0,part_2,go,500.0,200.0,1.0,,,,,,,,,gray,circle
0.0,7.0,3.0,1.0,5.0,5.0,295.7007267832523,2.0,0.0,part_2,stop,500.0,200.0,3.0,,,,,,,,,white,cross
0.0,6.0,2.0,1.0,5.0,5.0,385.9690252429573,2.0,0.0,part_2,stop,450.0,200.0,3.0,,,,,,,,,cyan,flipped triangle
0.0,7.0,3.0,1.0,6.0,0.0,0.0,2.0,0.0,part_2,stop,400.0,200.0,4.0,,,,,,,,,white,cross
0.0,4.0,4.0,0.0,6.0,6.0,546.9432107929606,2.0,0.0,part_2,go,400.0,250.0,1.0,,,,,,,,,magenta,square
0.0,4.0,4.0,0.0,6.0,6.0,580.1338812743779,2.0,0.0,part_2,go,400.0,250.0,1.0,,,,,,,,,magenta,square
0.0,5.0,1.0,1.0,6.0,6.0,591.9980362523347,2.0,0.0,part_2,go,400.0,250.0,1.0,,,,,,,,,green,I
0.0,7.0,3.0,1.0,5.0,0.0,0.0,2.0,0.0,part_2,stop,400.0,250.0,4.0,,,,,,,,,white,cross
0.0,1.0,1.0,0.0,6.0,6.0,290.2969146380201,2.0,0.0,part_2,go,450.0,250.0,1.0,,,,,,,,,gray,circle
0.0,3.0,3.0,0.0,5.0,5.0,538.6161263013491,2.0,0.0,part_2,go,450.0,250.0,1.0,,,,,,,,,orange,triangle
0.0,6.0,2.0,1.0,6.0,6.0,392.9451387666631,2.0,0.0,part_2,stop,450.0,250.0,3.0,,,,,,,,,cyan,flipped triangle
0.0,1.0,1.0,0.0,5.0,5.0,405.9604202775517,2.0,0.0,part_2,go,450.0,200.0,1.0,,,,,,,,,gray,circle
0.0,5.0,1.0,1.0,5.0,5.0,361.3019352778792,2.0,0.0,part_2,stop,450.0,200.0,3.0,,,,,,,,,green,I
0.0,7.0,3.0,1.0,6.0,6.0,363.3419510006206,2.0,0.0,part_2,stop,400.0,200.0,3.0,,,,,,,,,white,cross
0.0,6.0,2.0,1.0,6.0,6.0,386.1409182718489,2.0,0.0,part_2,stop,400.0,150.0,3.0,,,,,,,,,cyan,flipped triangle
0.0,3.0,3.0,0.0,5.0,5.0,409.7156462230487,2.0,0.0,part_2,go,400.0,100.0,1.0,,,,,,,,,orange,triangle
0.0,6.0,2.0,1.0,5.0,5.0,523.5086005122866,3.0,0.0,part_2,stop,400.0,100.0,3.0,,,,,,,,,cyan,flipped triangle
0.0,6.0,2.0,1.0,6.0,6.0,276.9172977423295,3.0,0.0,part_2,stop,350.0,100.0,3.0,,,,,,,,,cyan,flipped triangle
0.0,3.0,3.0,0.0,6.0,6.0,537.3701287462609,3.0,0.0,part_2,go,350.0,50.0,1.0,,,,,,,,,orange,triangle
0.0,2.0,2.0,0.0,5.0,5.0,369.9105945415795,3.0,0.0,part_2,go,350.0,50.0,1.0,,,,,,,,,yellow,diamond
0.0,5.0,1.0,1.0,5.0,5.0,359.266603278229,3.0,0.0,part_2,stop,350.0,50.0,3.0,,,,,,,,,green,I
0.0,7.0,3.0,1.0,5.0,0.0,0.0,3.0,0.0,part_2,stop,300.0,50.0,4.0,,,,,,,,,white,cross
0.0,2.0,2.0,0.0,6.0,6.0,370.6679992610588,3.0,0.0,part_2,go,350.0,50.0,1.0,,,,,,,,,yellow,diamond
0.0,7.0,3.0,1.0,6.0,6.0,429.2727190186269,3.0,0.0,part_2,stop,350.0,50.0,3.0,,,,,,,,,white,cross
0.0,8.0,4.0,1.0,5.0,5.0,530.5696042341879,3.0,0.0,part_2,stop,350.0,0.0,3.0,,,,,,,,,blue,hexagon
0.0,1.0,1.0,0.0,6.0,6.0,588.3532155421562,3.0,0.0,part_2,go,300.0,0.0,1.0,,,,,,,,,gray,circle
0.0,6.0,2.0,1.0,5.0,0.0,0.0,3.0,0.0,part_2,stop,300.0,0.0,4.0,,,,,,,,,cyan,flipped triangle
0.0,4.0,4.0,0.0,5.0,5.0,387.0596680644667,3.0,0.0,part_2,go,350.0,0.0,1.0,,,,,,,,,magenta,square
0.0,8.0,4.0,1.0,6.0,6.0,320.3849520214135,3.0,0.0,part_2,stop,350.0,0.0,3.0,,,,,,,,,blue,hexagon
0.0,4.0,4.0,0.0,5.0,5.0,478.1103517598239,3.0,0.0,part_2,go,350.0,0.0,1.0,,,,,,,,,magenta,square
0.0,8.0,4.0,1.0,5.0,5.0,355.4154082521563,3.0,0.0,part_2,go,350.0,0.0,1.0,,,,,,,,,blue,hexagon
0.0,1.0,1.0,0.0,5.0,5.0,344.4364752795081,3.0,0.0,part_2,go,350.0,0.0,1.0,,,,,,,,,gray,circle
0.0,3.0,3.0,0.0,6.0,6.0,379.6066037466516,3.0,0.0,part_2,go,350.0,0.0,1.0,,,,,,,,,orange,triangle
0.0,7.0,3.0,1.0,6.0,0.0,0.0,3.0,0.0,part_2,stop,350.0,0.0,4.0,,,,,,,,,white,cross
0.0,6.0,2.0,1.0,5.0,5.0,371.6227372788125,3.0,0.0,part_2,go,350.0,50.0,1.0,,,,,,,,,cyan,flipped triangle
0.0,6.0,2.0,1.0,6.0,6.0,291.4808117493521,3.0,0.0,part_2,stop,350.0,50.0,3.0,,,,,,,,,cyan,flipped triangle
0.0,8.0,4.0,1.0,6.0,0.0,0.0,3.0,0.0,part_2,stop,350.0,0.0,4.0,,,,,,,,,blue,hexagon
0.0,3.0,3.0,0.0,6.0,6.0,430.115645067417,3.0,0.0,part_2,go,350.0,50.0,1.0,,,,,,,,,orange,triangle
0.0,5.0,1.0,1.0,5.0,5.0,451.3964300276711,3.0,0.0,part_2,stop,350.0,50.0,3.0,,,,,,,,,green,I
0.0,3.0,3.0,0.0,6.0,6.0,600.5820622813189,3.0,0.0,part_2,go,300.0,50.0,1.0,,,,,,,,,orange,triangle
0.0,7.0,3.0,1.0,6.0,6.0,363.4700204856926,3.0,0.0,part_2,go,300.0,50.0,1.0,,,,,,,,,white,cross
0.0,4.0,4.0,0.0,5.0,5.0,364.5064172451384,3.0,0.0,part_2,go,300.0,50.0,1.0,,,,,,,,,magenta,square
0.0,5.0,1.0,1.0,6.0,6.0,377.3936602810863,3.0,0.0,part_2,go,300.0,50.0,1.0,,,,,,,,,green,I
0.0,7.0,3.0,1.0,6.0,6.0,321.0745462856721,3.0,0.0,part_2,stop,300.0,50.0,3.0,,,,,,,,,white,cross
0.0,5.0,1.0,1.0,5.0,0.0,0.0,3.0,0.0,part_2,stop,300.0,0.0,4.0,,,,,,,,,green,I
0.0,5.0,1.0,1.0,5.0,0.0,0.0,3.0,0.0,part_2,stop,350.0,0.0,4.0,,,,,,,,,green,I
0.0,2.0,2.0,0.0,5.0,5.0,469.8871662403689,3.0,0.0,part_2,go,400.0,0.0,1.0,,,,,,,,,yellow,diamond
0.0,2.0,2.0,0.0,5.0,5.0,369.3990900646895,3.0,0.0,part_2,go,400.0,0.0,1.0,,,,,,,,,yellow,diamond
0.0,4.0,4.0,0.0,6.0,6.0,381.13397602865,3.0,0.0,part_2,go,400.0,0.0,1.0,,,,,,,,,magenta,square
0.0,3.0,3.0,0.0,6.0,6.0,382.7252265327843,3.0,0.0,part_2,go,400.0,0.0,1.0,,,,,,,,,orange,triangle
0.0,4.0,4.0,0.0,6.0,6.0,349.4640647550113,3.0,0.0,part_2,go,400.0,0.0,1.0,,,,,,,,,magenta,square
0.0,3.0,3.0,0.0,5.0,5.0,362.6866310514742,3.0,0.0,part_2,go,400.0,0.0,1.0,,,,,,,,,orange,triangle
0.0,1.0,1.0,0.0,5.0,5.0,481.5557492547668,4.0,0.0,part_2,go,400.0,0.0,1.0,,,,,,,,,gray,circle
0.0,1.0,1.0,0.0,5.0,5.0,267.5127230322687,4.0,0.0,part_2,go,400.0,0.0,1.0,,,,,,,,,gray,circle
0.0,2.0,2.0,0.0,6.0,6.0,335.2328822802519,4.0,0.0,part_2,go,400.0,0.0,1.0,,,,,,,,,yellow,diamond
0.0,8.0,4.0,1.0,6.0,6.0,370.3215357672889,4.0,0.0,part_2,stop,400.0,0.0,3.0,,,,,,,,,blue,hexagon
0.0,3.0,3.0,0.0,6.0,6.0,709.8037210525945,4.0,0.0,part_2,go,400.0,0.0,1.0,,,,,,,,,orange,triangle
0.0,1.0,1.0,0.0,6.0,6.0,292.612197517883,4.0,0.0,part_2,go,400.0,0.0,1.0,,,,,,,,,gray,circle
0.0,7.0,3.0,1.0,5.0,5.0,338.4244237677194,4.0,0.0,part_2,go,400.0,0.0,1.0,,,,,,,,,white,cross
0.0,1.0,1.0,0.0,5.0,5.0,396.7537195130717,4.0,0.0,part_2,go,400.0,0.0,1.0,,,,,,,,,gray,circle
0.0,6.0,2.0,1.0,5.0,5.0,362.5832762918435,4.0,0.0,part_2,stop,400.0,0.0,3.0,,,,,,,,,cyan,flipped triangle
0.0,1.0,1.0,0.0,5.0,5.0,645.1583292509895,4.0,0.0,part_2,go,350.0,0.0,1.0,,,,,,,,,gray,circle
0.0,2.0,2.0,0.0,6.0,6.0,657.9116317880107,4.0,0.0,part_2,go,350.0,0.0,1.0,,,,,,,,,yellow,diamond
0.0,8.0,4.0,1.0,5.0,5.0,344.6012985514244,4.0,0.0,part_2,stop,350.0,0.0,3.0,,,,,,,,,blue,hexagon
0.0,5.0,1.0,1.0,6.0,0.0,0.0,4.0,0.0,part_2,stop,300.0,0.0,4.0,,,,,,,,,green,I
0.0,4.0,4.0,0.0,5.0,5.0,479.4686027744319,4.0,0.0,part_2,go,300.0,50.0,1.0,,,,,,,,,magenta,square
0.0,8.0,4.0,1.0,6.0,0.0,0.0,4.0,0.0,part_2,stop,300.0,50.0,4.0,,,,,,,,,blue,hexagon
0.0,1.0,1.0,0.0,6.0,6.0,390.6958587758709,4.0,0.0,part_2,go,300.0,100.0,1.0,,,,,,,,,gray,circle
0.0,4.0,4.0,0.0,5.0,5.0,314.7249370376812,4.0,0.0,part_2,go,300.0,100.0,1.0,,,,,,,,,magenta,square
0.0,2.0,2.0,0.0,5.0,5.0,359.4254477648064,4.0,0.0,part_2,go,300.0,100.0,1.0,,,,,,,,,yellow,diamond
0.0,7.0,3.0,1.0,6.0,6.0,326.1854552692966,4.0,0.0,part_2,stop,300.0,100.0,3.0,,,,,,,,,white,cross
0.0,7.0,3.0,1.0,5.0,5.0,407.7735070604831,4.0,0.0,part_2,stop,300.0,50.0,3.0,,,,,,,,,white,cross
0.0,3.0,3.0,0.0,5.0,5.0,530.3332949988544,4.0,0.0,part_2,go,250.0,50.0,1.0,,,,,,,,,orange,triangle
0.0,1.0,1.0,0.0,5.0,5.0,463.1687860091915,4.0,0.0,part_2,go,250.0,50.0,1.0,,,,,,,,,gray,circle
0.0,6.0,2.0,1.0,6.0,0.0,0.0,4.0,0.0,part_2,stop,250.0,50.0,4.0,,,,,,,,,cyan,flipped triangle
0.0,4.0,4.0,0.0,5.0,5.0,487.6830577704822,4.0,0.0,part_2,go,250.0,100.0,1.0,,,,,,,,,magenta,square
0.0,1.0,1.0,0.0,6.0,6.0,490.1883802522206,4.0,0.0,part_2,go,250.0,100.0,1.0,,,,,,,,,gray,circle
0.0,1.0,1.0,0.0,5.0,5.0,434.9434792529791,4.0,0.0,part_2,go,250.0,100.0,1.0,,,,,,,,,gray,circle
0.0,7.0,3.0,1.0,6.0,6.0,390.5817647901131,4.0,0.0,part_2,stop,250.0,100.0,3.0,,,,,,,,,white,cross
0.0,7.0,3.0,1.0,6.0,0.0,0.0,4.0,0.0,part_2,stop,250.0,50.0,4.0,,,,,,,,,white,cross
0.0,3.0,3.0,0.0,6.0,6.0,650.8757322735619,4.0,0.0,part_2,go,250.0,100.0,1.0,,,,,,,,,orange,triangle
0.0,2.0,2.0,0.0,6.0,6.0,482.570664040395,4.0,0.0,part_2,go,250.0,100.0,1.0,,,,,,,,,yellow,diamond
0.0,1.0,1.0,0.0,5.0,5.0,381.862108290079,4.0,0.0,part_2,go,250.0,100.0,1.0,,,,,,,,,gray,circle
0.0,8.0,4.0,1.0,6.0,0.0,0.0,4.0,0.0,part_2,stop,250.0,100.0,4.0,,,,,,,,,blue,hexagon
0.0,7.0,3.0,1.0,5.0,5.0,652.7354860299965,4.0,0.0,part_2,go,250.0,150.0,1.0,,,,,,,,,white,cross
0.0,7.0,3.0,1.0,6.0,6.0,407.618605546304,4.0,0.0,part_2,stop,250.0,150.0,3.0,,,,,,,,,white,cross
0.0,2.0,2.0,0.0,5.0,5.0,498.2774800300831,4.0,0.0,part_2,go,250.0,100.0,1.0,,,,,,,,,yellow,diamond
0.0,5.0,1.0,1.0,5.0,5.0,430.0157205434516,4.0,0.0,part_2,go,250.0,100.0,1.0,,,,,,,,,green,I
0.0,1.0,1.0,0.0,6.0,0.0,0.0,5.0,0.0,part_2,go,250.0,100.0,5.0,,,,,,,,,gray,circle
0.0,3.0,3.0,0.0,6.0,6.0,464.4947792839957,5.0,0.0,part_2,go,250.0,100.0,1.0,,,,,,,,,orange,triangle
0.0,5.0,1.0,1.0,6.0,6.0,329.2652280215407,5.0,0.0,part_2,stop,250.0,100.0,3.0,,,,,,,,,green,I
0.0,4.0,4.0,0.0,6.0,6.0,375.0032542448025,5.0,0.0,part_2,go,250.0,50.0,1.0,,,,,,,,,magenta,square
0.0,2.0,2.0,0.0,6.0,6.0,297.9299370199442,5.0,0.0,part_2,go,250.0,50.0,1.0,,,,,,,,,yellow,diamond
0.0,2.0,2.0,0.0,6.0,6.0,320.5169150314759,5.0,0.0,part_2,go,250.0,50.0,1.0,,,,,,,,,yellow,diamond
0.0,5.0,1.0,1.0,6.0,6.0,377.2458202729467,5.0,0.0,part_2,stop,250.0,50.0,3.0,,,,,,,,,green,I
0.0,6.0,2.0,1.0,6.0,0.0,0.0,5.0,0.0,part_2,stop,250.0,0.0,4.0,,,,,,,,,cyan,flipped triangle
0.0,2.0,2.0,0.0,5.0,5.0,290.2226337755564,5.0,0.0,part_2,go,250.0,50.0,1.0,,,,,,,,,yellow,diamond
0.0,1.0,1.0,0.0,5.0,5.0,469.5754048007075,5.0,0.0,part_2,go,250.0,50.0,1.0,,,,,,,,,gray,circle
0.0,8.0,4.0,1.0,6.0,6.0,280.6157007871661,5.0,0.0,part_2,stop,250.0,50.0,3.0,,,,,,,,,blue,hexagon
0.0,1.0,1.0,0.0,6.0,6.0,405.3496337583055,5.0,0.0,part_2,go,250.0,0.0,1.0,,,,,,,,,gray,circle
0.0,6.0,2.0,1.0,6.0,0.0,0.0,5.0,0.0,part_2,stop,250.0,0.0,4.0,,,,,,,,,cyan,flipped triangle
0.0,8.0,4.0,1.0,5.0,5.0,418.2393532537389,5.0,0.0,part_2,stop,250.0,50.0,3.0,,,,,,,,,blue,hexagon
0.0,5.0,1.0,1.0,6.0,0.0,0.0,5.0,0.0,part_2,stop,200.0,50.0,4.0,,,,,,,,,green,I
0.0,1.0,1.0,0.0,5.0,5.0,351.6312482825015,5.0,0.0,part_2,go,200.0,100.0,1.0,,,,,,,,,gray,circle
0.0,1.0,1.0,0.0,5.0,5.0,375.8489527681377,5.0,0.0,part_2,go,200.0,100.0,1.0,,,,,,,,,gray,circle
0.0,5.0,1.0,1.0,5.0,0.0,0.0,5.0,0.0,part_2,stop,200.0,100.0,4.0,,,,,,,,,green,I
0.0,3.0,3.0,0.0,5.0,5.0,399.426781994407,5.0,0.0,part_2,go,250.0,100.0,1.0,,,,,,,,,orange,triangle
0.0,2.0,2.0,0.0,5.0,5.0,410.1322197675472,5.0,0.0,part_2,go,250.0,100.0,1.0,,,,,,,,,yellow,diamond
0.0,1.0,1.0,0.0,6.0,6.0,502.8900939942105,5.0,0.0,part_2,go,250.0,100.0,1.0,,,,,,,,,gray,circle
0.0,3.0,3.0,0.0,6.0,6.0,379.0945455402834,5.0,0.0,part_2,go,250.0,100.0,1.0,,,,,,,,,orange,triangle
0.0,6.0,2.0,1.0,6.0,6.0,392.4359217926394,5.0,0.0,part_2,stop,250.0,100.0,3.0,,,,,,,,,cyan,flipped triangle
0.0,4.0,4.0,0.0,6.0,6.0,584.3035505531589,5.0,0.0,part_2,go,250.0,50.0,1.0,,,,,,,,,magenta,square
0.0,6.0,2.0,1.0,5.0,5.0,347.8151430317666,5.0,0.0,part_2,go,250.0,50.0,1.0,,,,,,,,,cyan,flipped triangle
0.0,2.0,2.0,0.0,6.0,6.0,337.2220187739003,5.0,0.0,part_2,go,250.0,50.0,1.0,,,,,,,,,yellow,diamond
0.0,2.0,2.0,0.0,5.0,5.0,328.6171002546325,5.0,0.0,part_2,go,250.0,50.0,1.0,,,,,,,,,yellow,diamond
0.0,7.0,3.0,1.0,5.0,5.0,316.3554498023586,5.0,0.0,part_2,stop,250.0,50.0,3.0,,,,,,,,,white,cross
0.0,7.0,3.0,1.0,6.0,0.0,0.0,5.0,0.0,part_2,stop,200.0,50.0,4.0,,,,,,,,,white,cross
0.0,2.0,2.0,0.0,6.0,6.0,397.5730740348808,5.0,0.0,part_2,go,200.0,100.0,1.0,,,,,,,,,yellow,diamond
0.0,6.0,2.0,1.0,6.0,0.0,0.0,5.0,0.0,part_2,stop,200.0,100.0,4.0,,,,,,,,,cyan,flipped triangle
0.0,8.0,4.0,1.0,6.0,0.0,0.0,5.0,0.0,part_2,stop,200.0,150.0,4.0,,,,,,,,,blue,hexagon
0.0,2.0,2.0,0.0,5.0,5.0,286.9915030605625,5.0,0.0,part_2,go,200.0,200.0,1.0,,,,,,,,,yellow,diamond
0.0,3.0,3.0,0.0,5.0,5.0,444.4849657593295,5.0,0.0,part_2,go,200.0,200.0,1.0,,,,,,,,,orange,triangle
0.0,4.0,4.0,0.0,6.0,6.0,321.3899590482469,5.0,0.0,part_2,go,200.0,200.0,1.0,,,,,,,,,magenta,square
0.0,3.0,3.0,0.0,5.0,5.0,312.5076955475379,5.0,0.0,part_2,go,200.0,200.0,1.0,,,,,,,,,orange,triangle
0.0,7.0,3.0,1.0,5.0,5.0,539.0498712804401,6.0,0.0,part_2,stop,200.0,200.0,3.0,,,,,,,,,white,cross
0.0,8.0,4.0,1.0,6.0,0.0,0.0,6.0,0.0,part_2,stop,150.0,200.0,4.0,,,,,,,,,blue,hexagon
0.0,3.0,3.0,0.0,6.0,6.0,631.3429405417992,6.0,0.0,part_2,go,150.0,250.0,1.0,,,,,,,,,orange,triangle
0.0,7.0,3.0,1.0,5.0,5.0,879.4141050020698,6.0,0.0,part_2,go,150.0,250.0,1.0,,,,,,,,,white,cross
0.0,8.0,4.0,1.0,6.0,6.0,363.3689652924659,6.0,0.0,part_2,stop,150.0,250.0,3.0,,,,,,,,,blue,hexagon
0.0,6.0,2.0,1.0,5.0,5.0,308.4994727687444,6.0,0.0,part_2,go,150.0,200.0,1.0,,,,,,,,,cyan,flipped triangle
0.0,4.0,4.0,0.0,5.0,5.0,308.3911199937574,6.0,0.0,part_2,go,150.0,200.0,1.0,,,,,,,,,magenta,square
0.0,6.0,2.0,1.0,5.0,5.0,286.0258160362718,6.0,0.0,part_2,stop,150.0,200.0,3.0,,,,,,,,,cyan,flipped triangle
0.0,8.0,4.0,1.0,6.0,0.0,0.0,6.0,0.0,part_2,stop,100.0,200.0,4.0,,,,,,,,,blue,hexagon
0.0,2.0,2.0,0.0,5.0,5.0,412.5068837893195,6.0,0.0,part_2,go,100.0,250.0,1.0,,,,,,,,,yellow,diamond
0.0,6.0,2.0,1.0,6.0,6.0,425.0692447676556,6.0,0.0,part_2,go,100.0,250.0,1.0,,,,,,,,,cyan,flipped triangle
0.0,6.0,2.0,1.0,5.0,5.0,255.4831897723488,6.0,0.0,part_2,stop,100.0,250.0,3.0,,,,,,,,,cyan,flipped triangle
0.0,2.0,2.0,0.0,5.0,5.0,301.7137952847406,6.0,0.0,part_2,go,50.0,250.0,1.0,,,,,,,,,yellow,diamond
0.0,6.0,2.0,1.0,6.0,6.0,313.5423913190607,6.0,0.0,part_2,stop,50.0,250.0,3.0,,,,,,,,,cyan,flipped triangle
0.0,5.0,1.0,1.0,6.0,0.0,0.0,6.0,0.0,part_2,stop,50.0,200.0,4.0,,,,,,,,,green,I
0.0,7.0,3.0,1.0,5.0,0.0,0.0,6.0,0.0,part_2,stop,50.0,250.0,4.0,,,,,,,,,white,cross
0.0,1.0,1.0,0.0,6.0,6.0,327.0968452852685,6.0,0.0,part_2,go,100.0,250.0,1.0,,,,,,,,,gray,circle
0.0,7.0,3.0,1.0,5.0,0.0,0.0,6.0,0.0,part_2,stop,100.0,250.0,4.0,,,,,,,,,white,cross
0.0,4.0,4.0,0.0,6.0,6.0,374.6168930374551,6.0,0.0,part_2,go,150.0,250.0,1.0,,,,,,,,,magenta,square
0.0,3.0,3.0,0.0,5.0,5.0,264.2094688053475,6.0,0.0,part_2,go,150.0,250.0,1.0,,,,,,,,,orange,triangle
0.0,8.0,4.0,1.0,5.0,0.0,0.0,6.0,0.0,part_2,stop,150.0,250.0,4.0,,,,,,,,,blue,hexagon
0.0,6.0,2.0,1.0,5.0,5.0,353.6619905062252,6.0,0.0,part_2,stop,200.0,250.0,3.0,,,,,,,,,cyan,flipped triangle
0.0,2.0,2.0,0.0,6.0,6.0,310.1411937677767,6.0,0.0,part_2,go,150.0,250.0,1.0,,,,,,,,,yellow,diamond
0.0,7.0,3.0,1.0,5.0,5.0,614.81567278679,6.0,0.0,part_2,go,150.0,250.0,1.0,,,,,,,,,white,cross
0.0,2.0,2.0,0.0,6.0,6.0,322.994717513211,6.0,0.0,part_2,go,150.0,250.0,1.0,,,,,,,,,yellow,diamond
0.0,4.0,4.0,0.0,6.0,6.0,302.8276292461669,6.0,0.0,part_2,go,150.0,250.0,1.0,,,,,,,,,magenta,square
0.0,6.0,2.0,1.0,6.0,6.0,313.7605675437953,6.0,0.0,part_2,stop,150.0,250.0,3.0,,,,,,,,,cyan,flipped triangle
0.0,4.0,4.0,0.0,6.0,6.0,349.3754619994433,6.0,0.0,part_2,go,150.0,200.0,1.0,,,,,,,,,magenta,square
0.0,4.0,4.0,0.0,6.0,6.0,326.781231793575,6.0,0.0,part_2,go,150.0,200.0,1.0,,,,,,,,,magenta,square
0.0,5.0,1.0,1.0,5.0,0.0,0.0,6.0,0.0,part_2,stop,150.0,200.0,4.0,,,,,,,,,green,I
0.0,8.0,4.0,1.0,6.0,6.0,407.6681062579155,6.0,0.0,part_2,go,200.0,200.0,1.0,,,,,,,,,blue,hexagon
0.0,6.0,2.0,1.0,5.0,5.0,260.8600462845061,6.0,0.0,part_2,stop,200.0,200.0,3.0,,,,,,,,,cyan,flipped triangle
0.0,5.0,1.0,1.0,6.0,0.0,0.0,6.0,0.0,part_2,stop,150.0,200.0,4.0,,,,,,,,,green,I
0.0,2.0,2.0,0.0,5.0,5.0,724.2195352737326,6.0,0.0,part_2,go,150.0,250.0,1.0,,,,,,,,,yellow,diamond
0.0,6.0,2.0,1.0,5.0,5.0,321.7845379986102,6.0,0.0,part_2,stop,150.0,250.0,3.0,,,,,,,,,cyan,flipped triangle
0.0,7.0,3.0,1.0,5.0,5.0,356.03610376711,6.0,0.0,part_2,go,100.0,250.0,1.0,,,,,,,,,white,cross
0.0,2.0,2.0,0.0,6.0,6.0,367.0353197667282,7.0,0.0,part_2,go,100.0,250.0,1.0,,,,,,,,,yellow,diamond
0.0,4.0,4.0,0.0,6.0,6.0,311.6002757160458,7.0,0.0,part_2,go,100.0,250.0,1.0,,,,,,,,,magenta,square
0.0,2.0,2.0,0.0,6.0,6.0,257.0662460202584,7.0,0.0,part_2,go,100.0,250.0,1.0,,,,,,,,,yellow,diamond
0.0,3.0,3.0,0.0,5.0,5.0,335.2945827500662,7.0,0.0,part_2,go,100.0,250.0,1.0,,,,,,,,,orange,triangle
0.0,8.0,4.0,1.0,5.0,0.0,0.0,7.0,0.0,part_2,stop,100.0,250.0,4.0,,,,,,,,,blue,hexagon
0.0,3.0,3.0,0.0,5.0,5.0,337.6605425437446,7.0,0.0,part_2,go,150.0,250.0,1.0,,,,,,,,,orange,triangle
0.0,4.0,4.0,0.0,5.0,5.0,282.2544777445728,7.0,0.0,part_2,go,150.0,250.0,1.0,,,,,,,,,magenta,square
0.0,8.0,4.0,1.0,5.0,5.0,293.8737425138242,7.0,0.0,part_2,go,150.0,250.0,1.0,,,,,,,,,blue,hexagon
0.0,4.0,4.0,0.0,6.0,6.0,305.6860577635234,7.0,0.0,part_2,go,150.0,250.0,1.0,,,,,,,,,magenta,square
0.0,1.0,1.0,0.0,5.0,5.0,239.0699035458965,7.0,0.0,part_2,go,150.0,250.0,1.0,,,,,,,,,gray,circle
0.0,6.0,2.0,1.0,6.0,6.0,365.168757023639,7.0,0.0,part_2,stop,150.0,250.0,3.0,,,,,,,,,cyan,flipped triangle
0.0,4.0,4.0,0.0,5.0,5.0,512.2057870321441,7.0,0.0,part_2,go,150.0,200.0,1.0,,,,,,,,,magenta,square
0.0,5.0,1.0,1.0,5.0,5.0,388.0403467628639,7.0,0.0,part_2,go,150.0,200.0,1.0,,,,,,,,,green,I
0.0,5.0,1.0,1.0,5.0,0.0,0.0,7.0,0.0,part_2,stop,150.0,200.0,4.0,,,,,,,,,green,I
0.0,1.0,1.0,0.0,6.0,6.0,435.3887405159184,7.0,0.0,part_2,go,200.0,200.0,1.0,,,,,,,,,gray,circle
0.0,2.0,2.0,0.0,5.0,5.0,401.5796112798853,7.0,0.0,part_2,go,200.0,200.0,1.0,,,,,,,,,yellow,diamond
0.0,3.0,3.0,0.0,6.0,6.0,369.6243383892579,7.0,0.0,part_2,go,200.0,200.0,1.0,,,,,,,,,orange,triangle
0.0,6.0,2.0,1.0,5.0,5.0,302.3227060039062,7.0,0.0,part_2,stop,200.0,200.0,3.0,,,,,,,,,cyan,flipped triangle
0.0,8.0,4.0,1.0,6.0,6.0,326.9072884868365,7.0,0.0,part_2,stop,150.0,200.0,3.0,,,,,,,,,blue,hexagon
0.0,8.0,4.0,1.0,5.0,0.0,0.0,7.0,0.0,part_2,stop,150.0,150.0,4.0,,,,,,,,,blue,hexagon
0.0,1.0,1.0,0.0,5.0,5.0,518.3456415252294,7.0,0.0,part_2,go,200.0,150.0,1.0,,,,,,,,,gray,circle
0.0,8.0,4.0,1.0,5.0,5.0,362.1282062522368,7.0,0.0,part_2,go,200.0,150.0,1.0,,,,,,,,,blue,hexagon
0.0,8.0,4.0,1.0,5.0,5.0,510.2219907712424,7.0,0.0,part_2,stop,200.0,150.0,3.0,,,,,,,,,blue,hexagon
0.0,2.0,2.0,0.0,6.0,6.0,387.2216147574363,7.0,0.0,part_2,go,150.0,150.0,1.0,,,,,,,,,yellow,diamond
0.0,8.0,4.0,1.0,5.0,5.0,308.0466480605537,7.0,0.0,part_2,stop,150.0,150.0,3.0,,,,,,,,,blue,hexagon
0.0,1.0,1.0,0.0,5.0,5.0,500.95062954642344,7.0,0.0,part_2,go,100.0,150.0,1.0,,,,,,,,,gray,circle
0.0,5.0,1.0,1.0,6.0,0.0,0.0,7.0,0.0,part_2,stop,100.0,150.0,4.0,,,,,,,,,green,I
0.0,7.0,3.0,1.0,6.0,0.0,0.0,7.0,0.0,part_2,stop,100.0,200.0,4.0,,,,,,,,,white,cross
0.0,4.0,4.0,0.0,5.0,5.0,435.5319552851142,7.0,0.0,part_2,go,100.0,250.0,1.0,,,,,,,,,magenta,square
0.0,7.0,3.0,1.0,5.0,0.0,0.0,7.0,0.0,part_2,stop,100.0,250.0,4.0,,,,,,,,,white,cross
0.0,6.0,2.0,1.0,5.0,5.0,448.1420785450609,7.0,0.0,part_2,stop,150.0,250.0,3.0,,,,,,,,,cyan,flipped triangle
0.0,1.0,1.0,0.0,6.0,6.0,382.7507312525995,7.0,0.0,part_2,go,100.0,250.0,1.0,,,,,,,,,gray,circle
0.0,6.0,2.0,1.0,6.0,0.0,0.0,7.0,0.0,part_2,stop,100.0,250.0,4.0,,,,,,,,,cyan,flipped triangle
0.0,4.0,4.0,0.0,5.0,5.0,630.1085765444441,7.0,0.0,part_2,go,100.0,300.0,1.0,,,,,,,,,magenta,square
0.0,3.0,3.0,0.0,5.0,5.0,418.1039522809442,7.0,0.0,part_2,go,100.0,300.0,1.0,,,,,,,,,orange,triangle
0.0,8.0,4.0,1.0,5.0,0.0,0.0,7.0,0.0,part_2,stop,100.0,300.0,4.0,,,,,,,,,blue,hexagon
0.0,8.0,4.0,1.0,6.0,6.0,458.8090132747311,8.0,0.0,part_2,go,150.0,300.0,1.0,,,,,,,,,blue,hexagon
0.0,7.0,3.0,1.0,5.0,5.0,314.7958712506806,8.0,0.0,part_2,stop,150.0,300.0,3.0,,,,,,,,,white,cross
0.0,7.0,3.0,1.0,6.0,6.0,293.058011244284,8.0,0.0,part_2,stop,100.0,300.0,3.0,,,,,,,,,white,cross
0.0,3.0,3.0,0.0,5.0,5.0,338.1081337574869,8.0,0.0,part_2,go,100.0,250.0,1.0,,,,,,,,,orange,triangle
0.0,8.0,4.0,1.0,6.0,6.0,292.9776722594397,8.0,0.0,part_2,go,100.0,250.0,1.0,,,,,,,,,blue,hexagon
0.0,5.0,1.0,1.0,6.0,6.0,305.4587245133007,8.0,0.0,part_2,go,100.0,250.0,1.0,,,,,,,,,green,I
0.0,7.0,3.0,1.0,6.0,6.0,283.1708742742194,8.0,0.0,part_2,stop,100.0,250.0,3.0,,,,,,,,,white,cross
0.0,4.0,4.0,0.0,6.0,6.0,408.9590357616544,8.0,0.0,part_2,go,100.0,200.0,1.0,,,,,,,,,magenta,square
0.0,1.0,1.0,0.0,5.0,5.0,331.1767352715833,8.0,0.0,part_2,go,100.0,200.0,1.0,,,,,,,,,gray,circle
0.0,4.0,4.0,0.0,5.0,5.0,342.3199910030234,8.0,0.0,part_2,go,100.0,200.0,1.0,,,,,,,,,magenta,square
0.0,2.0,2.0,0.0,5.0,5.0,365.4571597435279,8.0,0.0,part_2,go,100.0,200.0,1.0,,,,,,,,,yellow,diamond
0.0,8.0,4.0,1.0,5.0,5.0,389.2007155372994,8.0,0.0,part_2,stop,100.0,200.0,3.0,,,,,,,,,blue,hexagon
0.0,3.0,3.0,0.0,6.0,6.0,425.2799107925966,8.0,0.0,part_2,go,50.0,200.0,1.0,,,,,,,,,orange,triangle
0.0,2.0,2.0,0.0,5.0,5.0,358.0384255328681,8.0,0.0,part_2,go,50.0,200.0,1.0,,,,,,,,,yellow,diamond
0.0,8.0,4.0,1.0,6.0,6.0,336.1431189987343,8.0,0.0,part_2,go,50.0,200.0,1.0,,,,,,,,,blue,hexagon
0.0,1.0,1.0,0.0,5.0,5.0,393.7005052284803,8.0,0.0,part_2,go,50.0,200.0,1.0,,,,,,,,,gray,circle
0.0,7.0,3.0,1.0,6.0,6.0,338.3394947595661,8.0,0.0,part_2,go,50.0,200.0,1.0,,,,,,,,,white,cross
0.0,5.0,1.0,1.0,6.0,6.0,328.2305702741723,8.0,0.0,part_2,go,50.0,200.0,1.0,,,,,,,,,green,I
0.0,6.0,2.0,1.0,6.0,6.0,304.7241805033991,8.0,0.0,part_2,stop,50.0,200.0,3.0,,,,,,,,,cyan,flipped triangle
0.0,6.0,2.0,1.0,5.0,0.0,0.0,8.0,0.0,part_2,stop,50.0,150.0,4.0,,,,,,,,,cyan,flipped triangle
0.0,5.0,1.0,1.0,5.0,0.0,0.0,8.0,0.0,part_2,stop,100.0,150.0,4.0,,,,,,,,,green,I
0.0,4.0,4.0,0.0,6.0,6.0,274.2551377596101,8.0,0.0,part_2,go,150.0,150.0,1.0,,,,,,,,,magenta,square
0.0,7.0,3.0,1.0,6.0,6.0,296.9575132883619,8.0,0.0,part_2,go,150.0,150.0,1.0,,,,,,,,,white,cross
0.0,5.0,1.0,1.0,5.0,5.0,321.0024590225657,8.0,0.0,part_2,stop,150.0,150.0,3.0,,,,,,,,,green,I
0.0,3.0,3.0,0.0,6.0,6.0,345.2483827568358,8.0,0.0,part_2,go,100.0,150.0,1.0,,,,,,,,,orange,triangle
0.0,8.0,4.0,1.0,5.0,0.0,0.0,8.0,0.0,part_2,stop,100.0,150.0,4.0,,,,,,,,,blue,hexagon
0.0,3.0,3.0,0.0,6.0,6.0,311.8127750349231,8.0,0.0,part_2,go,150.0,150.0,1.0,,,,,,,,,orange,triangle
0.0,6.0,2.0,1.0,6.0,6.0,335.568469032296,8.0,0.0,part_2,stop,150.0,150.0,3.0,,,,,,,,,cyan,flipped triangle
0.0,1.0,1.0,0.0,6.0,6.0,538.0855420225998,8.0,0.0,part_2,go,150.0,100.0,1.0,,,,,,,,,gray,circle
0.0,4.0,4.0,0.0,5.0,5.0,336.393599762232,8.0,0.0,part_2,go,150.0,100.0,1.0,,,,,,,,,magenta,square
0.0,6.0,2.0,1.0,5.0,5.0,350.2755740628345,8.0,0.0,part_2,go,150.0,100.0,1.0,,,,,,,,,cyan,flipped triangle
0.0,4.0,4.0,0.0,5.0,5.0,326.879863278009,8.0,0.0,part_2,go,150.0,100.0,1.0,,,,,,,,,magenta,square
0.0,8.0,4.0,1.0,5.0,5.0,305.7585972564993,8.0,0.0,part_2,go,150.0,100.0,1.0,,,,,,,,,blue,hexagon
0.0,2.0,2.0,0.0,6.0,6.0,374.8600160324713,8.0,0.0,part_2,go,150.0,100.0,1.0,,,,,,,,,yellow,diamond
0.0,5.0,1.0,1.0,5.0,5.0,342.1697745507117,8.0,0.0,part_2,stop,150.0,100.0,3.0,,,,,,,,,green,I
0.0,3.0,3.0,0.0,5.0,5.0,454.0873815130908,8.0,0.0,part_2,go,100.0,100.0,1.0,,,,,,,,,orange,triangle
0.0,3.0,3.0,0.0,7.0,1.0,1562.7364927931922,1.0,2.0,part_3,go,0.0,0.0,0.0,147.0,3.0,147.0,49.0,98.0,245.0,294.0,196.0,orange,triangle
0.0,3.0,3.0,0.0,7.0,3.0,1291.565486782929,1.0,2.0,part_3,go,0.0,0.0,0.0,176.0,4.0,44.0,88.0,176.0,220.0,264.0,132.0,orange,triangle
0.0,5.0,1.0,1.0,7.0,4.0,2393.851048516808,1.0,1.0,part_3,go,0.0,0.0,0.0,196.0,4.0,147.0,49.0,98.0,196.0,294.0,245.0,green,I
0.0,6.0,2.0,1.0,7.0,1.0,1595.9962618362624,1.0,1.0,part_3,go,0.0,0.0,0.0,156.0,4.0,156.0,39.0,117.0,78.0,234.0,195.0,cyan,flipped triangle
0.0,4.0,4.0,0.0,7.0,2.0,2744.282234518323,1.0,1.0,part_3,go,0.0,0.0,0.0,294.0,6.0,196.0,294.0,245.0,98.0,49.0,147.0,magenta,square
0.0,1.0,1.0,0.0,7.0,3.0,2059.061958367238,1.0,1.0,part_3,go,0.0,0.0,0.0,34.0,1.0,204.0,170.0,34.0,102.0,68.0,136.0,gray,circle
0.0,6.0,2.0,1.0,7.0,6.0,2072.121466000681,1.0,1.0,part_3,go,0.0,0.0,0.0,78.0,2.0,39.0,195.0,234.0,156.0,117.0,78.0,cyan,flipped triangle
0.0,5.0,1.0,1.0,7.0,5.0,2332.4628147820476,1.0,1.0,part_3,go,0.0,0.0,0.0,176.0,4.0,44.0,220.0,132.0,88.0,176.0,264.0,green,I
0.0,7.0,3.0,1.0,7.0,5.0,2354.6194870432373,1.0,1.0,part_3,go,0.0,0.0,0.0,88.0,2.0,132.0,264.0,220.0,176.0,88.0,44.0,white,cross
0.0,8.0,4.0,1.0,7.0,3.0,2007.998687782674,1.0,1.0,part_3,go,0.0,0.0,0.0,234.0,6.0,117.0,156.0,234.0,39.0,195.0,78.0,blue,hexagon
0.0,6.0,2.0,1.0,7.0,2.0,2110.2770870929817,1.0,1.0,part_3,go,0.0,0.0,0.0,162.0,3.0,54.0,162.0,216.0,324.0,108.0,270.0,cyan,flipped triangle
0.0,1.0,1.0,0.0,7.0,2.0,2236.163458583178,1.0,1.0,part_3,go,0.0,0.0,0.0,39.0,1.0,156.0,39.0,117.0,195.0,234.0,78.0,gray,circle
0.0,2.0,2.0,0.0,7.0,5.0,2551.4815955248196,1.0,1.0,part_3,go,0.0,0.0,0.0,220.0,5.0,88.0,264.0,176.0,132.0,220.0,44.0,yellow,diamond
0.0,1.0,1.0,0.0,7.0,2.0,1718.9978125097696,1.0,1.0,part_3,go,0.0,0.0,0.0,49.0,1.0,245.0,49.0,294.0,196.0,98.0,147.0,gray,circle
0.0,7.0,3.0,1.0,7.0,5.0,2316.8898295261897,1.0,1.0,part_3,go,0.0,0.0,0.0,195.0,5.0,39.0,78.0,234.0,156.0,195.0,117.0,white,cross
0.0,4.0,4.0,0.0,7.0,4.0,3229.2114023002796,1.0,1.0,part_3,go,0.0,0.0,0.0,220.0,5.0,176.0,88.0,44.0,220.0,264.0,132.0,magenta,square
0.0,6.0,2.0,1.0,7.0,2.0,3061.8466165324207,1.0,1.0,part_3,go,0.0,0.0,0.0,196.0,4.0,147.0,196.0,245.0,294.0,98.0,49.0,cyan,flipped triangle
0.0,4.0,4.0,0.0,7.0,1.0,2927.234585513361,1.0,1.0,part_3,go,0.0,0.0,0.0,270.0,5.0,270.0,324.0,54.0,216.0,108.0,162.0,magenta,square
0.0,3.0,3.0,0.0,7.0,4.0,2579.813166099484,1.0,1.0,part_3,go,0.0,0.0,0.0,108.0,2.0,216.0,324.0,270.0,108.0,54.0,162.0,orange,triangle
0.0,7.0,3.0,1.0,7.0,3.0,3043.1400060479064,1.0,1.0,part_3,go,0.0,0.0,0.0,234.0,6.0,117.0,78.0,234.0,156.0,39.0,195.0,white,cross
0.0,4.0,4.0,0.0,7.0,6.0,1574.1445085295709,2.0,1.0,part_3,go,0.0,0.0,0.0,204.0,6.0,68.0,34.0,136.0,102.0,170.0,204.0,magenta,square
0.0,4.0,4.0,0.0,7.0,6.0,2319.7424735699315,2.0,1.0,part_3,go,0.0,0.0,0.0,195.0,5.0,156.0,39.0,117.0,234.0,78.0,195.0,magenta,square
0.0,5.0,1.0,1.0,7.0,2.0,2612.951135044568,2.0,1.0,part_3,go,0.0,0.0,0.0,147.0,3.0,294.0,147.0,196.0,98.0,245.0,49.0,green,I
0.0,8.0,4.0,1.0,7.0,6.0,2713.8970913074445,2.0,1.0,part_3,go,0.0,0.0,0.0,324.0,6.0,216.0,270.0,162.0,108.0,54.0,324.0,blue,hexagon
0.0,8.0,4.0,1.0,7.0,5.0,2513.346839259611,2.0,1.0,part_3,go,0.0,0.0,0.0,234.0,6.0,39.0,78.0,117.0,195.0,234.0,156.0,blue,hexagon
0.0,1.0,1.0,0.0,7.0,1.0,3122.8953672543867,2.0,1.0,part_3,go,0.0,0.0,0.0,39.0,1.0,39.0,195.0,78.0,156.0,117.0,234.0,gray,circle
0.0,4.0,4.0,0.0,7.0,2.0,3201.191643354832,2.0,1.0,part_3,go,0.0,0.0,0.0,216.0,4.0,54.0,216.0,270.0,108.0,324.0,162.0,magenta,square
0.0,3.0,3.0,0.0,7.0,5.0,2696.531896304805,2.0,1.0,part_3,go,0.0,0.0,0.0,102.0,3.0,136.0,204.0,34.0,170.0,102.0,68.0,orange,triangle
0.0,8.0,4.0,1.0,7.0,2.0,2944.059896777617,2.0,1.0,part_3,go,0.0,0.0,0.0,204.0,6.0,34.0,204.0,136.0,102.0,68.0,170.0,blue,hexagon
0.0,1.0,1.0,0.0,7.0,4.0,2462.456337045296,2.0,1.0,part_3,go,0.0,0.0,0.0,49.0,1.0,98.0,245.0,294.0,49.0,196.0,147.0,gray,circle
0.0,3.0,3.0,0.0,7.0,3.0,3600.148778044968,2.0,1.0,part_3,go,0.0,0.0,0.0,102.0,3.0,136.0,170.0,102.0,68.0,204.0,34.0,orange,triangle
0.0,2.0,2.0,0.0,7.0,3.0,4770.468723523663,2.0,1.0,part_3,go,0.0,0.0,0.0,195.0,5.0,234.0,117.0,195.0,78.0,156.0,39.0,yellow,diamond
0.0,2.0,2.0,0.0,7.0,5.0,3914.765783047187,2.0,1.0,part_3,go,0.0,0.0,0.0,117.0,3.0,39.0,195.0,78.0,156.0,117.0,234.0,yellow,diamond
0.0,2.0,2.0,0.0,7.0,1.0,3141.106976530864,2.0,1.0,part_3,go,0.0,0.0,0.0,108.0,2.0,108.0,216.0,324.0,162.0,54.0,270.0,yellow,diamond
0.0,6.0,2.0,1.0,7.0,4.0,1982.024662254844,2.0,1.0,part_3,go,0.0,0.0,0.0,68.0,2.0,204.0,170.0,34.0,68.0,102.0,136.0,cyan,flipped triangle
0.0,4.0,4.0,0.0,7.0,3.0,2265.38098603487,2.0,1.0,part_3,go,0.0,0.0,0.0,204.0,6.0,102.0,34.0,204.0,136.0,170.0,68.0,magenta,square
0.0,3.0,3.0,0.0,7.0,4.0,3952.64094225422,2.0,1.0,part_3,go,0.0,0.0,0.0,98.0,2.0,147.0,196.0,49.0,98.0,245.0,294.0,orange,triangle
0.0,2.0,2.0,0.0,7.0,5.0,2857.217041266267,2.0,1.0,part_3,go,0.0,0.0,0.0,34.0,1.0,68.0,204.0,136.0,170.0,34.0,102.0,yellow,diamond
0.0,5.0,1.0,1.0,7.0,1.0,865.1575353578664,2.0,2.0,part_3,go,0.0,0.0,0.0,132.0,3.0,132.0,220.0,264.0,176.0,44.0,88.0,green,I
0.0,4.0,4.0,0.0,7.0,5.0,3059.136121577467,2.0,1.0,part_3,go,0.0,0.0,0.0,245.0,5.0,49.0,196.0,147.0,294.0,245.0,98.0,magenta,square
0.0,8.0,4.0,1.0,7.0,2.0,2386.655891998089,3.0,1.0,part_3,go,0.0,0.0,0.0,162.0,3.0,108.0,162.0,216.0,270.0,324.0,54.0,blue,hexagon
0.0,3.0,3.0,0.0,7.0,2.0,4444.70524857752,3.0,1.0,part_3,go,0.0,0.0,0.0,117.0,3.0,39.0,117.0,195.0,156.0,234.0,78.0,orange,triangle
0.0,1.0,1.0,0.0,7.0,4.0,1179.0283975715283,3.0,1.0,part_3,go,0.0,0.0,0.0,44.0,1.0,88.0,220.0,264.0,44.0,132.0,176.0,gray,circle
0.0,4.0,4.0,0.0,7.0,1.0,2247.573445580201,3.0,1.0,part_3,go,0.0,0.0,0.0,264.0,6.0,264.0,44.0,220.0,132.0,88.0,176.0,magenta,square
0.0,5.0,1.0,1.0,7.0,3.0,3454.3126663047587,3.0,1.0,part_3,go,0.0,0.0,0.0,102.0,3.0,170.0,68.0,102.0,136.0,34.0,204.0,green,I
0.0,8.0,4.0,1.0,7.0,5.0,2913.9372835779795,3.0,1.0,part_3,go,0.0,0.0,0.0,245.0,5.0,49.0,98.0,196.0,294.0,245.0,147.0,blue,hexagon
0.0,6.0,2.0,1.0,7.0,5.0,1993.6025222705211,3.0,1.0,part_3,go,0.0,0.0,0.0,44.0,1.0,132.0,220.0,176.0,264.0,44.0,88.0,cyan,flipped triangle
0.0,2.0,2.0,0.0,7.0,3.0,3783.676325518172,3.0,1.0,part_3,go,0.0,0.0,0.0,147.0,3.0,245.0,196.0,147.0,49.0,294.0,98.0,yellow,diamond
0.0,7.0,3.0,1.0,7.0,2.0,2355.799625001964,3.0,1.0,part_3,go,0.0,0.0,0.0,102.0,3.0,136.0,102.0,34.0,204.0,68.0,170.0,white,cross
0.0,8.0,4.0,1.0,7.0,4.0,4077.290308778174,3.0,1.0,part_3,go,0.0,0.0,0.0,170.0,5.0,102.0,34.0,136.0,170.0,68.0,204.0,blue,hexagon
0.0,5.0,1.0,1.0,7.0,6.0,4497.249899519375,3.0,1.0,part_3,go,0.0,0.0,0.0,108.0,2.0,216.0,162.0,54.0,270.0,324.0,108.0,green,I
0.0,7.0,3.0,1.0,7.0,2.0,3261.3928233040497,3.0,1.0,part_3,go,0.0,0.0,0.0,162.0,3.0,54.0,162.0,324.0,108.0,270.0,216.0,white,cross
0.0,2.0,2.0,0.0,7.0,6.0,4689.409782004077,3.0,1.0,part_3,go,0.0,0.0,0.0,132.0,3.0,264.0,176.0,220.0,88.0,44.0,132.0,yellow,diamond
0.0,4.0,4.0,0.0,7.0,5.0,2489.815673267003,3.0,1.0,part_3,go,0.0,0.0,0.0,234.0,6.0,78.0,195.0,156.0,39.0,234.0,117.0,magenta,square
0.0,5.0,1.0,1.0,7.0,5.0,1014.3539037817391,3.0,2.0,part_3,go,0.0,0.0,0.0,78.0,2.0,117.0,195.0,156.0,234.0,78.0,39.0,green,I
0.0,1.0,1.0,0.0,7.0,6.0,2263.796988307149,3.0,1.0,part_3,go,0.0,0.0,0.0,34.0,1.0,204.0,136.0,170.0,68.0,102.0,34.0,gray,circle
0.0,6.0,2.0,1.0,7.0,4.0,2759.4188572547864,3.0,1.0,part_3,go,0.0,0.0,0.0,68.0,2.0,136.0,34.0,204.0,68.0,102.0,170.0,cyan,flipped triangle
0.0,3.0,3.0,0.0,7.0,1.0,4244.26018531085,3.0,1.0,part_3,go,0.0,0.0,0.0,88.0,2.0,88.0,44.0,220.0,132.0,264.0,176.0,orange,triangle
0.0,3.0,3.0,0.0,7.0,2.0,3552.344641255331,3.0,1.0,part_3,go,0.0,0.0,0.0,108.0,2.0,162.0,108.0,270.0,324.0,216.0,54.0,orange,triangle
0.0,5.0,1.0,1.0,7.0,3.0,3654.125548579032,3.0,1.0,part_3,go,0.0,0.0,0.0,102.0,3.0,170.0,68.0,102.0,136.0,204.0,34.0,green,I
0.0,7.0,3.0,1.0,7.0,3.0,4252.70532835566,4.0,1.0,part_3,go,0.0,0.0,0.0,54.0,1.0,108.0,162.0,54.0,216.0,270.0,324.0,white,cross
0.0,2.0,2.0,0.0,7.0,5.0,2461.383384099463,4.0,1.0,part_3,go,0.0,0.0,0.0,108.0,2.0,216.0,162.0,54.0,270.0,108.0,324.0,yellow,diamond
0.0,6.0,2.0,1.0,7.0,4.0,2912.5199603586225,4.0,1.0,part_3,go,0.0,0.0,0.0,98.0,2.0,245.0,196.0,49.0,98.0,294.0,147.0,cyan,flipped triangle
0.0,1.0,1.0,0.0,7.0,4.0,2395.711093515274,4.0,1.0,part_3,go,0.0,0.0,0.0,44.0,1.0,176.0,88.0,264.0,44.0,220.0,132.0,gray,circle
0.0,1.0,1.0,0.0,7.0,1.0,2477.44784731185,4.0,1.0,part_3,go,0.0,0.0,0.0,54.0,1.0,54.0,324.0,162.0,270.0,216.0,108.0,gray,circle
0.0,5.0,1.0,1.0,7.0,3.0,4502.26769130677,4.0,1.0,part_3,go,0.0,0.0,0.0,162.0,3.0,108.0,270.0,162.0,54.0,324.0,216.0,green,I
0.0,8.0,4.0,1.0,7.0,3.0,3969.8628205806017,4.0,1.0,part_3,go,0.0,0.0,0.0,264.0,6.0,44.0,88.0,264.0,132.0,176.0,220.0,blue,hexagon
0.0,8.0,4.0,1.0,7.0,4.0,4354.0541195689,4.0,1.0,part_3,go,0.0,0.0,0.0,176.0,4.0,44.0,264.0,88.0,176.0,132.0,220.0,blue,hexagon
0.0,5.0,1.0,1.0,7.0,2.0,1370.1445110345958,4.0,2.0,part_3,go,0.0,0.0,0.0,78.0,2.0,117.0,78.0,234.0,156.0,195.0,39.0,green,I
0.0,6.0,2.0,1.0,7.0,1.0,4430.692009307677,4.0,1.0,part_3,go,0.0,0.0,0.0,108.0,2.0,108.0,216.0,324.0,162.0,54.0,270.0,cyan,flipped triangle
0.0,6.0,2.0,1.0,7.0,5.0,2619.541216583457,4.0,1.0,part_3,go,0.0,0.0,0.0,88.0,2.0,44.0,176.0,220.0,132.0,88.0,264.0,cyan,flipped triangle
0.0,7.0,3.0,1.0,7.0,5.0,3161.341370258014,4.0,1.0,part_3,go,0.0,0.0,0.0,49.0,1.0,294.0,98.0,245.0,147.0,49.0,196.0,white,cross
0.0,7.0,3.0,1.0,7.0,2.0,3341.832689999137,4.0,1.0,part_3,go,0.0,0.0,0.0,220.0,5.0,88.0,220.0,44.0,264.0,132.0,176.0,white,cross
0.0,7.0,3.0,1.0,7.0,5.0,2960.601873783162,4.0,1.0,part_3,go,0.0,0.0,0.0,49.0,1.0,147.0,98.0,245.0,196.0,49.0,294.0,white,cross
0.0,3.0,3.0,0.0,7.0,5.0,1204.336631039041,4.0,2.0,part_3,go,0.0,0.0,0.0,78.0,2.0,234.0,195.0,39.0,117.0,78.0,156.0,orange,triangle
0.0,2.0,2.0,0.0,7.0,4.0,3521.78587851813,4.0,1.0,part_3,go,0.0,0.0,0.0,204.0,6.0,34.0,170.0,102.0,204.0,68.0,136.0,yellow,diamond
0.0,1.0,1.0,0.0,7.0,2.0,2152.2341892996337,4.0,1.0,part_3,go,0.0,0.0,0.0,54.0,1.0,216.0,54.0,162.0,324.0,270.0,108.0,gray,circle
0.0,2.0,2.0,0.0,7.0,6.0,4176.7774730979,4.0,1.0,part_3,go,0.0,0.0,0.0,49.0,1.0,98.0,147.0,294.0,245.0,196.0,49.0,yellow,diamond
0.0,7.0,3.0,1.0,7.0,6.0,2695.6034587783506,4.0,1.0,part_3,go,0.0,0.0,0.0,102.0,3.0,136.0,34.0,204.0,170.0,68.0,102.0,white,cross
0.0,8.0,4.0,1.0,7.0,2.0,2269.36943657347,4.0,1.0,part_3,go,0.0,0.0,0.0,49.0,1.0,147.0,49.0,98.0,196.0,294.0,245.0,blue,hexagon
