response,reaction_time,block,which_phase,stim,stop_signal_trial_type,stop_signal_stimulus,SSD,SSD_type,condition,accuracy,chosen_stim,chosen_cond,stim_left,cond_left,stim_right,cond_right
1,498.0,1,phase_2,green_pentagon,go,,,,go-1,1,,,,,,
1,574.0,1,phase_2,red_pentagon,go,,,,go-2,1,,,,,,
2,504.0,1,phase_2,red_rhombus,stop,purple,250.0,tracking-SSD,go-2,3,,,,,,
2,547.0,1,phase_2,green_circle,go,,,,go-1,1,,,,,,
1,443.0,1,phase_2,red_pentagon,go,,,,go-2,1,,,,,,
2,554.0,1,phase_2,red_circle,go,,,,go-2,1,,,,,,
0,0,1,phase_2,red_pentagon,stop,purple,200.0,tracking-SSD,go-2,4,,,,,,
1,595.0,1,phase_2,green_pentagon,go,,,,go-1,1,,,,,,
0,0,1,phase_2,red_circle,stop,blue,0.0,0-SSD,go-2,4,,,,,,
1,771.0,1,phase_2,red_triangle,go,,,,go-2,1,,,,,,
2,520.0,1,phase_2,red_circle,go,,,,go-2,1,,,,,,
2,551.0,1,phase_2,red_rhombus,go,,,,go-2,1,,,,,,
2,673.0,1,phase_2,green_circle,go,,,,go-1,1,,,,,,
2,389.0,1,phase_2,green_circle,stop,purple,250.0,tracking-SSD,go-1,3,,,,,,
1,456.0,1,phase_2,green_triangle,go,,,,go-1,1,,,,,,
1,633.0,1,phase_2,red_pentagon,go,,,,go-2,1,,,,,,
0,0,1,phase_2,green_circle,stop,blue,0.0,0-SSD,go-1,4,,,,,,
0,0,1,phase_2,green_pentagon,stop,blue,0.0,0-SSD,go-1,4,,,,,,
0,0,1,phase_2,green_triangle,stop,blue,0.0,0-SSD,go-1,4,,,,,,
0,0,1,phase_2,red_rhombus,stop,blue,0.0,0-SSD,go-2,4,,,,,,
1,713.0,1,phase_2,green_triangle,go,,,,go-1,1,,,,,,
0,0,1,phase_2,green_rhombus,stop,purple,200.0,tracking-SSD,go-1,4,,,,,,
2,607.0,1,phase_2,green_rhombus,go,,,,go-1,1,,,,,,
1,628.0,1,phase_2,red_pentagon,go,,,,go-2,1,,,,,,
2,469.0,1,phase_2,red_circle,go,,,,go-2,1,,,,,,
2,590.0,1,phase_2,red_rhombus,go,,,,go-2,1,,,,,,
1,475.0,1,phase_2,green_triangle,go,,,,go-1,1,,,,,,
2,484.0,1,phase_2,red_circle,go,,,,go-2,1,,,,,,
1,605.0,1,phase_2,red_triangle,go,,,,go-2,1,,,,,,
2,580.0,1,phase_2,red_rhombus,go,,,,go-2,1,,,,,,
0,0,1,phase_2,red_triangle,stop,purple,250.0,tracking-SSD,go-2,4,,,,,,
0,0,1,phase_2,green_circle,stop,purple,300.0,tracking-SSD,go-1,4,,,,,,
1,494.0,1,phase_2,green_triangle,stop,purple,350.0,tracking-SSD,go-1,3,,,,,,
2,728.0,1,phase_2,green_rhombus,go,,,,go-1,1,,,,,,
1,524.0,1,phase_2,red_pentagon,go,,,,go-2,1,,,,,,
2,669.0,1,phase_2,red_rhombus,go,,,,go-2,1,,,,,,
2,655.0,1,phase_2,green_circle,go,,,,go-1,1,,,,,,
0,0,1,phase_2,red_pentagon,stop,blue,0.0,0-SSD,go-2,4,,,,,,
1,605.0,1,phase_2,green_pentagon,go,,,,go-1,1,,,,,,
0,0,1,phase_2,green_rhombus,stop,blue,0.0,0-SSD,go-1,4,,,,,,
2,835.0,1,phase_2,green_rhombus,go,,,,go-1,1,,,,,,
0,0,1,phase_2,red_triangle,stop,blue,0.0,0-SSD,go-2,4,,,,,,
1,549.0,1,phase_2,red_rhombus,stop,purple,300.0,tracking-SSD,go-2,3,,,,,,
2,660.0,1,phase_2,green_circle,go,,,,go-1,1,,,,,,
1,702.0,1,phase_2,red_triangle,go,,,,go-2,1,,,,,,
1,687.0,1,phase_2,green_pentagon,go,,,,go-1,1,,,,,,
2,663.0,1,phase_2,green_triangle,go,,,,go-1,2,,,,,,
1,649.0,1,phase_2,green_triangle,go,,,,go-1,1,,,,,,
0,0,2,phase_2,red_triangle,stop,purple,250.0,tracking-SSD,go-2,4,,,,,,
0,0,2,phase_2,green_pentagon,stop,blue,0.0,0-SSD,go-1,4,,,,,,
1,539.0,2,phase_2,red_triangle,go,,,,go-2,1,,,,,,
1,537.0,2,phase_2,green_pentagon,go,,,,go-1,1,,,,,,
2,512.0,2,phase_2,green_circle,stop,purple,300.0,tracking-SSD,go-1,3,,,,,,
0,0,2,phase_2,green_triangle,stop,purple,250.0,tracking-SSD,go-1,4,,,,,,
2,653.0,2,phase_2,red_circle,go,,,,go-2,1,,,,,,
0,0,2,phase_2,red_circle,stop,purple,300.0,tracking-SSD,go-2,4,,,,,,
2,772.0,2,phase_2,red_circle,go,,,,go-2,1,,,,,,
1,567.0,2,phase_2,green_triangle,go,,,,go-1,1,,,,,,
0,0,2,phase_2,green_circle,stop,purple,350.0,tracking-SSD,go-1,4,,,,,,
1,574.0,2,phase_2,green_pentagon,go,,,,go-1,1,,,,,,
2,662.0,2,phase_2,red_circle,go,,,,go-2,1,,,,,,
2,638.0,2,phase_2,green_circle,go,,,,go-1,1,,,,,,
1,400.0,2,phase_2,red_triangle,go,,,,go-2,1,,,,,,
1,532.0,2,phase_2,red_pentagon,go,,,,go-2,1,,,,,,
1,473.0,2,phase_2,green_triangle,go,,,,go-1,1,,,,,,
2,572.0,2,phase_2,green_rhombus,go,,,,go-1,1,,,,,,
2,412.0,2,phase_2,red_rhombus,go,,,,go-2,1,,,,,,
1,592.0,2,phase_2,red_pentagon,go,,,,go-2,1,,,,,,
1,508.0,2,phase_2,green_triangle,go,,,,go-1,1,,,,,,
2,494.0,2,phase_2,green_circle,go,,,,go-1,1,,,,,,
0,0,2,phase_2,red_rhombus,stop,blue,0.0,0-SSD,go-2,4,,,,,,
0,0,2,phase_2,red_pentagon,stop,blue,0.0,0-SSD,go-2,4,,,,,,
1,814.0,2,phase_2,red_rhombus,go,,,,go-2,2,,,,,,
0,0,2,phase_2,green_circle,stop,blue,0.0,0-SSD,go-1,4,,,,,,
1,538.0,2,phase_2,red_triangle,go,,,,go-2,1,,,,,,
1,558.0,2,phase_2,red_triangle,stop,purple,400.0,tracking-SSD,go-2,3,,,,,,
0,0,2,phase_2,green_rhombus,stop,blue,0.0,0-SSD,go-1,4,,,,,,
1,655.0,2,phase_2,green_pentagon,stop,purple,350.0,tracking-SSD,go-1,3,,,,,,
2,786.0,2,phase_2,red_rhombus,go,,,,go-2,1,,,,,,
1,537.0,2,phase_2,green_pentagon,go,,,,go-1,1,,,,,,
0,0,2,phase_2,green_pentagon,stop,blue,0.0,0-SSD,go-1,4,,,,,,
2,622.0,2,phase_2,green_circle,go,,,,go-1,1,,,,,,
1,778.0,2,phase_2,red_rhombus,go,,,,go-2,2,,,,,,
2,696.0,2,phase_2,red_circle,go,,,,go-2,1,,,,,,
2,761.0,2,phase_2,red_rhombus,go,,,,go-2,1,,,,,,
1,579.0,2,phase_2,green_pentagon,go,,,,go-1,1,,,,,,
0,0,2,phase_2,red_rhombus,stop,purple,300.0,tracking-SSD,go-2,4,,,,,,
1,665.0,2,phase_2,red_pentagon,go,,,,go-2,1,,,,,,
1,630.0,2,phase_2,green_triangle,go,,,,go-1,1,,,,,,
1,549.0,2,phase_2,green_pentagon,go,,,,go-1,1,,,,,,
2,580.0,2,phase_2,green_rhombus,go,,,,go-1,1,,,,,,
0,0,2,phase_2,red_circle,stop,blue,0.0,0-SSD,go-2,4,,,,,,
1,858.0,2,phase_2,green_triangle,go,,,,go-1,1,,,,,,
1,451.0,2,phase_2,green_triangle,go,,,,go-1,1,,,,,,
0,0,2,phase_2,red_rhombus,stop,blue,0.0,0-SSD,go-2,4,,,,,,
2,412.0,2,phase_2,red_rhombus,go,,,,go-2,1,,,,,,
0,0,3,phase_2,red_circle,stop,blue,0.0,0-SSD,go-2,4,,,,,,
0,0,3,phase_2,red_pentagon,stop,blue,0.0,0-SSD,go-2,4,,,,,,
2,662.0,3,phase_2,green_rhombus,go,,,,go-1,1,,,,,,
1,513.0,3,phase_2,red_pentagon,go,,,,go-2,1,,,,,,
1,579.0,3,phase_2,red_pentagon,go,,,,go-2,1,,,,,,
1,464.0,3,phase_2,green_pentagon,go,,,,go-1,1,,,,,,
2,573.0,3,phase_2,green_rhombus,stop,purple,350.0,tracking-SSD,go-1,3,,,,,,
2,537.0,3,phase_2,red_rhombus,go,,,,go-2,1,,,,,,
2,613.0,3,phase_2,red_circle,go,,,,go-2,1,,,,,,
0,0,3,phase_2,green_circle,stop,blue,0.0,0-SSD,go-1,4,,,,,,
0,0,3,phase_2,green_rhombus,stop,blue,0.0,0-SSD,go-1,4,,,,,,
1,494.0,3,phase_2,green_pentagon,go,,,,go-1,1,,,,,,
0,0,3,phase_2,green_circle,stop,blue,0.0,0-SSD,go-1,4,,,,,,
1,770.0,3,phase_2,red_pentagon,go,,,,go-2,1,,,,,,
0,0,3,phase_2,red_rhombus,stop,purple,300.0,tracking-SSD,go-2,4,,,,,,
1,619.0,3,phase_2,red_pentagon,go,,,,go-2,1,,,,,,
1,921.0,3,phase_2,red_triangle,go,,,,go-2,1,,,,,,
0,0,3,phase_2,red_triangle,stop,blue,0.0,0-SSD,go-2,4,,,,,,
1,534.0,3,phase_2,green_triangle,go,,,,go-1,1,,,,,,
1,509.0,3,phase_2,red_triangle,go,,,,go-2,1,,,,,,
2,574.0,3,phase_2,green_circle,go,,,,go-1,1,,,,,,
2,954.0,3,phase_2,green_triangle,go,,,,go-1,2,,,,,,
1,682.0,3,phase_2,red_pentagon,stop,purple,350.0,tracking-SSD,go-2,3,,,,,,
2,690.0,3,phase_2,green_circle,go,,,,go-1,1,,,,,,
1,541.0,3,phase_2,red_triangle,go,,,,go-2,1,,,,,,
2,528.0,3,phase_2,red_circle,go,,,,go-2,1,,,,,,
0,0,3,phase_2,red_circle,stop,blue,0.0,0-SSD,go-2,4,,,,,,
2,692.0,3,phase_2,green_rhombus,go,,,,go-1,1,,,,,,
2,589.0,3,phase_2,green_circle,go,,,,go-1,1,,,,,,
1,597.0,3,phase_2,green_pentagon,go,,,,go-1,1,,,,,,
1,898.0,3,phase_2,green_triangle,go,,,,go-1,1,,,,,,
0,0,3,phase_2,red_pentagon,stop,purple,300.0,tracking-SSD,go-2,4,,,,,,
2,468.0,3,phase_2,green_circle,go,,,,go-1,1,,,,,,
1,544.0,3,phase_2,green_pentagon,go,,,,go-1,1,,,,,,
2,699.0,3,phase_2,red_rhombus,go,,,,go-2,1,,,,,,
2,653.0,3,phase_2,green_rhombus,go,,,,go-1,1,,,,,,
1,921.0,3,phase_2,green_triangle,go,,,,go-1,1,,,,,,
0,0,3,phase_2,green_rhombus,stop,purple,350.0,tracking-SSD,go-1,4,,,,,,
1,659.0,3,phase_2,red_rhombus,go,,,,go-2,2,,,,,,
1,577.0,3,phase_2,red_pentagon,go,,,,go-2,1,,,,,,
2,552.0,3,phase_2,red_circle,go,,,,go-2,1,,,,,,
0,0,3,phase_2,green_triangle,stop,purple,400.0,tracking-SSD,go-1,4,,,,,,
0,0,3,phase_2,green_rhombus,stop,blue,0.0,0-SSD,go-1,4,,,,,,
2,782.0,3,phase_2,red_rhombus,go,,,,go-2,1,,,,,,
1,600.0,3,phase_2,green_triangle,stop,purple,450.0,tracking-SSD,go-1,3,,,,,,
0,0,3,phase_2,red_triangle,stop,purple,400.0,tracking-SSD,go-2,4,,,,,,
1,730.0,3,phase_2,red_triangle,go,,,,go-2,1,,,,,,
2,582.0,3,phase_2,green_circle,go,,,,go-1,1,,,,,,
2,555.0,4,phase_2,red_circle,stop,purple,450.0,tracking-SSD,go-2,3,,,,,,
1,599.0,4,phase_2,red_pentagon,go,,,,go-2,1,,,,,,
1,608.0,4,phase_2,red_pentagon,go,,,,go-2,1,,,,,,
0,0,4,phase_2,green_circle,stop,purple,400.0,tracking-SSD,go-1,4,,,,,,
1,807.0,4,phase_2,red_triangle,go,,,,go-2,1,,,,,,
1,658.0,4,phase_2,green_triangle,go,,,,go-1,1,,,,,,
2,679.0,4,phase_2,red_rhombus,go,,,,go-2,1,,,,,,
0,0,4,phase_2,red_rhombus,stop,blue,0.0,0-SSD,go-2,4,,,,,,
2,641.0,4,phase_2,green_circle,stop,purple,450.0,tracking-SSD,go-1,3,,,,,,
1,639.0,4,phase_2,green_pentagon,go,,,,go-1,1,,,,,,
2,615.0,4,phase_2,green_circle,go,,,,go-1,1,,,,,,
0,0,4,phase_2,green_triangle,stop,purple,400.0,tracking-SSD,go-1,4,,,,,,
2,655.0,4,phase_2,green_rhombus,go,,,,go-1,1,,,,,,
2,799.0,4,phase_2,green_rhombus,go,,,,go-1,1,,,,,,
2,674.0,4,phase_2,green_circle,go,,,,go-1,1,,,,,,
1,504.0,4,phase_2,red_pentagon,go,,,,go-2,1,,,,,,
2,602.0,4,phase_2,green_circle,go,,,,go-1,1,,,,,,
0,0,4,phase_2,red_pentagon,stop,blue,0.0,0-SSD,go-2,4,,,,,,
0,0,4,phase_2,green_rhombus,stop,blue,0.0,0-SSD,go-1,4,,,,,,
0,0,4,phase_2,green_circle,stop,blue,0.0,0-SSD,go-1,4,,,,,,
2,673.0,4,phase_2,red_rhombus,go,,,,go-2,1,,,,,,
2,489.0,4,phase_2,red_circle,go,,,,go-2,1,,,,,,
1,633.0,4,phase_2,green_pentagon,go,,,,go-1,1,,,,,,
2,608.0,4,phase_2,green_rhombus,go,,,,go-1,1,,,,,,
2,717.0,4,phase_2,green_rhombus,go,,,,go-1,1,,,,,,
1,649.0,4,phase_2,green_triangle,go,,,,go-1,1,,,,,,
2,623.0,4,phase_2,green_rhombus,go,,,,go-1,1,,,,,,
1,530.0,4,phase_2,red_pentagon,go,,,,go-2,1,,,,,,
0,0,4,phase_2,red_triangle,stop,blue,0.0,0-SSD,go-2,4,,,,,,
2,605.0,4,phase_2,red_rhombus,stop,purple,450.0,tracking-SSD,go-2,3,,,,,,
1,636.0,4,phase_2,green_triangle,go,,,,go-1,1,,,,,,
1,633.0,4,phase_2,green_triangle,go,,,,go-1,1,,,,,,
0,0,4,phase_2,red_triangle,stop,blue,0.0,0-SSD,go-2,4,,,,,,
2,551.0,4,phase_2,red_circle,go,,,,go-2,1,,,,,,
1,808.0,4,phase_2,red_pentagon,go,,,,go-2,1,,,,,,
0,0,4,phase_2,green_pentagon,stop,blue,0.0,0-SSD,go-1,4,,,,,,
0,0,4,phase_2,red_triangle,stop,purple,400.0,tracking-SSD,go-2,4,,,,,,
2,621.0,4,phase_2,red_circle,go,,,,go-2,1,,,,,,
1,640.0,4,phase_2,red_triangle,stop,purple,450.0,tracking-SSD,go-2,3,,,,,,
2,795.0,4,phase_2,red_triangle,go,,,,go-2,2,,,,,,
1,703.0,4,phase_2,red_pentagon,go,,,,go-2,1,,,,,,
1,689.0,4,phase_2,green_pentagon,go,,,,go-1,1,,,,,,
2,666.0,4,phase_2,green_rhombus,go,,,,go-1,1,,,,,,
0,0,4,phase_2,green_rhombus,stop,purple,400.0,tracking-SSD,go-1,4,,,,,,
0,0,4,phase_2,green_pentagon,stop,blue,0.0,0-SSD,go-1,4,,,,,,
2,682.0,4,phase_2,red_circle,go,,,,go-2,1,,,,,,
1,624.0,4,phase_2,red_triangle,go,,,,go-2,1,,,,,,
2,588.0,4,phase_2,red_circle,go,,,,go-2,1,,,,,,
1,611.0,5,phase_2,red_pentagon,go,,,,go-2,1,,,,,,
1,428.0,5,phase_2,red_pentagon,go,,,,go-2,1,,,,,,
1,629.0,5,phase_2,red_triangle,go,,,,go-2,1,,,,,,
2,514.0,5,phase_2,green_circle,go,,,,go-1,1,,,,,,
1,513.0,5,phase_2,green_pentagon,go,,,,go-1,1,,,,,,
2,455.0,5,phase_2,green_circle,go,,,,go-1,1,,,,,,
0,0,5,phase_2,green_rhombus,stop,blue,0.0,0-SSD,go-1,4,,,,,,
2,653.0,5,phase_2,green_rhombus,go,,,,go-1,1,,,,,,
0,0,5,phase_2,green_rhombus,stop,blue,0.0,0-SSD,go-1,4,,,,,,
1,569.0,5,phase_2,red_triangle,go,,,,go-2,1,,,,,,
2,532.0,5,phase_2,red_circle,go,,,,go-2,1,,,,,,
1,643.0,5,phase_2,green_triangle,stop,purple,450.0,tracking-SSD,go-1,3,,,,,,
2,629.0,5,phase_2,green_rhombus,go,,,,go-1,1,,,,,,
2,536.0,5,phase_2,red_circle,go,,,,go-2,1,,,,,,
1,658.0,5,phase_2,green_triangle,stop,purple,400.0,tracking-SSD,go-1,3,,,,,,
0,0,5,phase_2,red_rhombus,stop,purple,350.0,tracking-SSD,go-2,4,,,,,,
1,629.0,5,phase_2,red_pentagon,go,,,,go-2,1,,,,,,
2,537.0,5,phase_2,red_rhombus,go,,,,go-2,1,,,,,,
0,0,5,phase_2,green_triangle,stop,blue,0.0,0-SSD,go-1,4,,,,,,
0,0,5,phase_2,red_rhombus,stop,purple,400.0,tracking-SSD,go-2,4,,,,,,
2,676.0,5,phase_2,green_rhombus,go,,,,go-1,1,,,,,,
0,0,5,phase_2,red_circle,stop,blue,0.0,0-SSD,go-2,4,,,,,,
1,603.0,5,phase_2,red_pentagon,go,,,,go-2,1,,,,,,
2,611.0,5,phase_2,green_rhombus,go,,,,go-1,1,,,,,,
2,554.0,5,phase_2,green_circle,go,,,,go-1,1,,,,,,
1,452.0,5,phase_2,green_pentagon,go,,,,go-1,1,,,,,,
2,607.0,5,phase_2,green_circle,go,,,,go-1,1,,,,,,
0,0,5,phase_2,red_circle,stop,blue,0.0,0-SSD,go-2,4,,,,,,
2,568.0,5,phase_2,red_rhombus,go,,,,go-2,1,,,,,,
2,532.0,5,phase_2,green_circle,go,,,,go-1,1,,,,,,
1,486.0,5,phase_2,red_pentagon,stop,purple,450.0,tracking-SSD,go-2,3,,,,,,
1,685.0,5,phase_2,red_triangle,go,,,,go-2,1,,,,,,
1,594.0,5,phase_2,red_pentagon,go,,,,go-2,1,,,,,,
1,727.0,5,phase_2,red_triangle,go,,,,go-2,1,,,,,,
2,600.0,5,phase_2,green_rhombus,go,,,,go-1,1,,,,,,
2,542.0,5,phase_2,red_rhombus,stop,purple,400.0,tracking-SSD,go-2,3,,,,,,
1,585.0,5,phase_2,green_pentagon,go,,,,go-1,1,,,,,,
0,0,5,phase_2,green_triangle,stop,purple,350.0,tracking-SSD,go-1,4,,,,,,
2,557.0,5,phase_2,green_circle,stop,purple,400.0,tracking-SSD,go-1,3,,,,,,
1,689.0,5,phase_2,red_triangle,go,,,,go-2,1,,,,,,
2,609.0,5,phase_2,green_circle,go,,,,go-1,1,,,,,,
0,0,5,phase_2,red_triangle,stop,blue,0.0,0-SSD,go-2,4,,,,,,
2,538.0,5,phase_2,red_circle,go,,,,go-2,1,,,,,,
0,0,5,phase_2,green_pentagon,stop,blue,0.0,0-SSD,go-1,4,,,,,,
1,602.0,5,phase_2,green_pentagon,go,,,,go-1,1,,,,,,
0,0,5,phase_2,red_triangle,stop,blue,0.0,0-SSD,go-2,4,,,,,,
1,621.0,5,phase_2,green_pentagon,go,,,,go-1,1,,,,,,
1,595.0,5,phase_2,red_triangle,go,,,,go-2,1,,,,,,
0,0,6,phase_2,green_triangle,stop,blue,0.0,0-SSD,go-1,4,,,,,,
1,575.0,6,phase_2,red_pentagon,go,,,,go-2,1,,,,,,
2,538.0,6,phase_2,red_rhombus,go,,,,go-2,1,,,,,,
2,513.0,6,phase_2,red_rhombus,go,,,,go-2,1,,,,,,
1,523.0,6,phase_2,red_pentagon,go,,,,go-2,1,,,,,,
1,509.0,6,phase_2,green_pentagon,go,,,,go-1,1,,,,,,
2,474.0,6,phase_2,red_circle,stop,purple,350.0,tracking-SSD,go-2,3,,,,,,
1,482.0,6,phase_2,red_triangle,go,,,,go-2,1,,,,,,
0,0,6,phase_2,red_circle,stop,blue,0.0,0-SSD,go-2,4,,,,,,
1,793.0,6,phase_2,green_triangle,go,,,,go-1,1,,,,,,
0,0,6,phase_2,green_circle,stop,blue,0.0,0-SSD,go-1,4,,,,,,
1,598.0,6,phase_2,red_triangle,go,,,,go-2,1,,,,,,
1,574.0,6,phase_2,red_pentagon,go,,,,go-2,1,,,,,,
2,515.0,6,phase_2,green_rhombus,go,,,,go-1,1,,,,,,
1,638.0,6,phase_2,green_triangle,go,,,,go-1,1,,,,,,
2,635.0,6,phase_2,green_circle,go,,,,go-1,1,,,,,,
0,0,6,phase_2,green_rhombus,stop,blue,0.0,0-SSD,go-1,4,,,,,,
1,632.0,6,phase_2,red_pentagon,stop,purple,300.0,tracking-SSD,go-2,3,,,,,,
0,0,6,phase_2,red_rhombus,stop,blue,0.0,0-SSD,go-2,4,,,,,,
1,526.0,6,phase_2,red_pentagon,go,,,,go-2,1,,,,,,
2,613.0,6,phase_2,green_rhombus,go,,,,go-1,1,,,,,,
0,0,6,phase_2,green_circle,stop,purple,250.0,tracking-SSD,go-1,4,,,,,,
1,653.0,6,phase_2,red_triangle,go,,,,go-2,1,,,,,,
2,538.0,6,phase_2,green_circle,go,,,,go-1,1,,,,,,
1,502.0,6,phase_2,green_pentagon,go,,,,go-1,1,,,,,,
2,735.0,6,phase_2,green_rhombus,go,,,,go-1,1,,,,,,
2,587.0,6,phase_2,red_rhombus,go,,,,go-2,1,,,,,,
0,0,6,phase_2,red_circle,stop,purple,300.0,tracking-SSD,go-2,4,,,,,,
1,638.0,6,phase_2,green_pentagon,go,,,,go-1,1,,,,,,
2,658.0,6,phase_2,green_rhombus,go,,,,go-1,1,,,,,,
1,464.0,6,phase_2,red_triangle,go,,,,go-2,1,,,,,,
2,552.0,6,phase_2,green_circle,go,,,,go-1,1,,,,,,
0,0,6,phase_2,green_circle,stop,blue,0.0,0-SSD,go-1,4,,,,,,
0,0,6,phase_2,red_pentagon,stop,blue,0.0,0-SSD,go-2,4,,,,,,
0,0,6,phase_2,green_triangle,stop,purple,350.0,tracking-SSD,go-1,4,,,,,,
1,610.0,6,phase_2,green_pentagon,go,,,,go-1,1,,,,,,
2,505.0,6,phase_2,red_rhombus,go,,,,go-2,1,,,,,,
2,637.0,6,phase_2,green_circle,go,,,,go-1,1,,,,,,
2,523.0,6,phase_2,red_circle,go,,,,go-2,1,,,,,,
1,622.0,6,phase_2,red_triangle,go,,,,go-2,1,,,,,,
2,700.0,6,phase_2,red_circle,go,,,,go-2,1,,,,,,
2,586.0,6,phase_2,green_rhombus,go,,,,go-1,1,,,,,,
0,0,6,phase_2,green_rhombus,stop,purple,400.0,tracking-SSD,go-1,4,,,,,,
1,535.0,6,phase_2,red_pentagon,stop,purple,450.0,tracking-SSD,go-2,3,,,,,,
1,634.0,6,phase_2,red_triangle,go,,,,go-2,1,,,,,,
0,0,6,phase_2,green_triangle,stop,purple,400.0,tracking-SSD,go-1,4,,,,,,
1,686.0,6,phase_2,green_pentagon,go,,,,go-1,1,,,,,,
0,0,6,phase_2,red_triangle,stop,blue,0.0,0-SSD,go-2,4,,,,,,
1,521.0,7,phase_2,red_pentagon,stop,purple,450.0,tracking-SSD,go-2,3,,,,,,
1,665.0,7,phase_2,red_pentagon,go,,,,go-2,1,,,,,,
2,662.0,7,phase_2,green_rhombus,go,,,,go-1,1,,,,,,
0,0,7,phase_2,green_circle,stop,blue,0.0,0-SSD,go-1,4,,,,,,
1,749.0,7,phase_2,green_rhombus,go,,,,go-1,2,,,,,,
2,555.0,7,phase_2,green_rhombus,go,,,,go-1,1,,,,,,
1,756.0,7,phase_2,red_pentagon,go,,,,go-2,1,,,,,,
2,608.0,7,phase_2,red_rhombus,go,,,,go-2,1,,,,,,
2,639.0,7,phase_2,red_rhombus,go,,,,go-2,1,,,,,,
2,547.0,7,phase_2,red_circle,go,,,,go-2,1,,,,,,
1,634.0,7,phase_2,green_triangle,go,,,,go-1,1,,,,,,
2,542.0,7,phase_2,red_circle,go,,,,go-2,1,,,,,,
1,595.0,7,phase_2,green_pentagon,go,,,,go-1,1,,,,,,
1,660.0,7,phase_2,red_triangle,go,,,,go-2,1,,,,,,
1,738.0,7,phase_2,green_pentagon,stop,purple,400.0,tracking-SSD,go-1,3,,,,,,
2,701.0,7,phase_2,red_rhombus,go,,,,go-2,1,,,,,,
0,0,7,phase_2,red_rhombus,stop,purple,350.0,tracking-SSD,go-2,4,,,,,,
1,550.0,7,phase_2,red_pentagon,go,,,,go-2,1,,,,,,
2,582.0,7,phase_2,red_circle,go,,,,go-2,1,,,,,,
1,579.0,7,phase_2,red_rhombus,go,,,,go-2,2,,,,,,
0,0,7,phase_2,red_pentagon,stop,blue,0.0,0-SSD,go-2,4,,,,,,
1,641.0,7,phase_2,red_triangle,go,,,,go-2,1,,,,,,
2,640.0,7,phase_2,green_rhombus,go,,,,go-1,1,,,,,,
0,0,7,phase_2,red_triangle,stop,blue,0.0,0-SSD,go-2,4,,,,,,
0,0,7,phase_2,red_triangle,stop,blue,0.0,0-SSD,go-2,4,,,,,,
0,0,7,phase_2,green_pentagon,stop,blue,0.0,0-SSD,go-1,4,,,,,,
1,597.0,7,phase_2,green_triangle,go,,,,go-1,1,,,,,,
2,571.0,7,phase_2,red_circle,stop,purple,400.0,tracking-SSD,go-2,3,,,,,,
2,591.0,7,phase_2,green_circle,go,,,,go-1,1,,,,,,
2,670.0,7,phase_2,green_circle,go,,,,go-1,1,,,,,,
2,622.0,7,phase_2,green_rhombus,go,,,,go-1,1,,,,,,
0,0,7,phase_2,green_triangle,stop,blue,0.0,0-SSD,go-1,4,,,,,,
2,640.0,7,phase_2,green_circle,go,,,,go-1,1,,,,,,
1,614.0,7,phase_2,red_triangle,go,,,,go-2,1,,,,,,
1,702.0,7,phase_2,green_triangle,go,,,,go-1,1,,,,,,
2,733.0,7,phase_2,red_circle,go,,,,go-2,1,,,,,,
1,595.0,7,phase_2,green_triangle,stop,purple,350.0,tracking-SSD,go-1,3,,,,,,
0,0,7,phase_2,green_pentagon,stop,blue,0.0,0-SSD,go-1,4,,,,,,
0,0,7,phase_2,red_circle,stop,blue,0.0,0-SSD,go-2,4,,,,,,
2,704.0,7,phase_2,red_rhombus,go,,,,go-2,1,,,,,,
1,566.0,7,phase_2,green_pentagon,go,,,,go-1,1,,,,,,
0,0,7,phase_2,green_rhombus,stop,purple,300.0,tracking-SSD,go-1,4,,,,,,
1,617.0,7,phase_2,green_pentagon,go,,,,go-1,1,,,,,,
0,0,7,phase_2,red_triangle,stop,purple,350.0,tracking-SSD,go-2,4,,,,,,
0,0,7,phase_2,green_triangle,stop,purple,400.0,tracking-SSD,go-1,4,,,,,,
2,644.0,7,phase_2,red_circle,go,,,,go-2,1,,,,,,
2,517.0,7,phase_2,green_circle,go,,,,go-1,1,,,,,,
1,627.0,7,phase_2,green_pentagon,go,,,,go-1,1,,,,,,
2,509.0,8,phase_2,green_circle,stop,purple,450.0,tracking-SSD,go-1,3,,,,,,
1,529.0,8,phase_2,green_triangle,go,,,,go-1,1,,,,,,
0,0,8,phase_2,red_triangle,stop,blue,0.0,0-SSD,go-2,4,,,,,,
1,558.0,8,phase_2,green_pentagon,go,,,,go-1,1,,,,,,
1,544.0,8,phase_2,red_triangle,stop,purple,400.0,tracking-SSD,go-2,3,,,,,,
0,0,8,phase_2,red_circle,stop,blue,0.0,0-SSD,go-2,4,,,,,,
2,496.0,8,phase_2,red_circle,stop,purple,350.0,tracking-SSD,go-2,3,,,,,,
2,640.0,8,phase_2,green_circle,go,,,,go-1,1,,,,,,
0,0,8,phase_2,green_circle,stop,purple,300.0,tracking-SSD,go-1,4,,,,,,
2,591.0,8,phase_2,red_circle,go,,,,go-2,1,,,,,,
2,756.0,8,phase_2,green_rhombus,go,,,,go-1,1,,,,,,
1,495.0,8,phase_2,green_pentagon,go,,,,go-1,1,,,,,,
2,605.0,8,phase_2,red_rhombus,go,,,,go-2,1,,,,,,
0,0,8,phase_2,green_rhombus,stop,blue,0.0,0-SSD,go-1,4,,,,,,
1,567.0,8,phase_2,red_triangle,go,,,,go-2,1,,,,,,
2,497.0,8,phase_2,green_rhombus,stop,purple,350.0,tracking-SSD,go-1,3,,,,,,
2,597.0,8,phase_2,green_rhombus,go,,,,go-1,1,,,,,,
2,494.0,8,phase_2,green_circle,go,,,,go-1,1,,,,,,
2,592.0,8,phase_2,green_rhombus,go,,,,go-1,1,,,,,,
2,546.0,8,phase_2,red_rhombus,go,,,,go-2,1,,,,,,
2,689.0,8,phase_2,red_rhombus,go,,,,go-2,1,,,,,,
0,0,8,phase_2,red_triangle,stop,purple,300.0,tracking-SSD,go-2,4,,,,,,
1,583.0,8,phase_2,green_pentagon,go,,,,go-1,1,,,,,,
1,592.0,8,phase_2,red_triangle,go,,,,go-2,1,,,,,,
1,590.0,8,phase_2,green_pentagon,go,,,,go-1,1,,,,,,
1,620.0,8,phase_2,red_triangle,go,,,,go-2,1,,,,,,
1,640.0,8,phase_2,green_triangle,go,,,,go-1,1,,,,,,
0,0,8,phase_2,green_pentagon,stop,blue,0.0,0-SSD,go-1,4,,,,,,
0,0,8,phase_2,green_pentagon,stop,blue,0.0,0-SSD,go-1,4,,,,,,
2,488.0,8,phase_2,green_circle,go,,,,go-1,1,,,,,,
0,0,8,phase_2,red_circle,stop,blue,0.0,0-SSD,go-2,4,,,,,,
1,540.0,8,phase_2,green_pentagon,go,,,,go-1,1,,,,,,
2,571.0,8,phase_2,red_rhombus,go,,,,go-2,1,,,,,,
0,0,8,phase_2,red_triangle,stop,purple,350.0,tracking-SSD,go-2,4,,,,,,
1,600.0,8,phase_2,red_triangle,go,,,,go-2,1,,,,,,
1,530.0,8,phase_2,red_pentagon,go,,,,go-2,1,,,,,,
0,0,8,phase_2,green_rhombus,stop,blue,0.0,0-SSD,go-1,4,,,,,,
1,547.0,8,phase_2,green_pentagon,go,,,,go-1,1,,,,,,
1,668.0,8,phase_2,red_pentagon,go,,,,go-2,1,,,,,,
2,610.0,8,phase_2,green_rhombus,go,,,,go-1,1,,,,,,
0,0,8,phase_2,red_pentagon,stop,blue,0.0,0-SSD,go-2,4,,,,,,
2,571.0,8,phase_2,red_rhombus,go,,,,go-2,1,,,,,,
2,534.0,8,phase_2,red_circle,go,,,,go-2,1,,,,,,
1,521.0,8,phase_2,red_triangle,go,,,,go-2,1,,,,,,
1,642.0,8,phase_2,green_triangle,go,,,,go-1,1,,,,,,
1,550.0,8,phase_2,red_pentagon,go,,,,go-2,1,,,,,,
2,491.0,8,phase_2,green_circle,stop,purple,400.0,tracking-SSD,go-1,3,,,,,,
2,634.0,8,phase_2,red_circle,go,,,,go-2,1,,,,,,
2,600.0,9,phase_2,red_circle,go,,,,go-2,1,,,,,,
0,0,9,phase_2,red_circle,stop,blue,0.0,0-SSD,go-2,4,,,,,,
2,460.0,9,phase_2,green_circle,go,,,,go-1,1,,,,,,
2,457.0,9,phase_2,green_circle,go,,,,go-1,1,,,,,,
2,477.0,9,phase_2,green_circle,stop,purple,350.0,tracking-SSD,go-1,3,,,,,,
0,0,9,phase_2,red_pentagon,stop,blue,0.0,0-SSD,go-2,4,,,,,,
2,798.0,9,phase_2,green_rhombus,go,,,,go-1,1,,,,,,
2,549.0,9,phase_2,green_rhombus,go,,,,go-1,1,,,,,,
1,501.0,9,phase_2,red_pentagon,stop,purple,300.0,tracking-SSD,go-2,3,,,,,,
1,532.0,9,phase_2,green_pentagon,go,,,,go-1,1,,,,,,
2,640.0,9,phase_2,green_rhombus,go,,,,go-1,1,,,,,,
0,0,9,phase_2,green_triangle,stop,purple,250.0,tracking-SSD,go-1,4,,,,,,
2,614.0,9,phase_2,red_circle,go,,,,go-2,1,,,,,,
1,522.0,9,phase_2,red_pentagon,go,,,,go-2,1,,,,,,
2,564.0,9,phase_2,red_circle,go,,,,go-2,1,,,,,,
1,484.0,9,phase_2,red_triangle,go,,,,go-2,1,,,,,,
2,415.0,9,phase_2,red_circle,stop,purple,300.0,tracking-SSD,go-2,3,,,,,,
0,0,9,phase_2,green_triangle,stop,blue,0.0,0-SSD,go-1,4,,,,,,
2,737.0,9,phase_2,red_rhombus,go,,,,go-2,1,,,,,,
0,0,9,phase_2,red_rhombus,stop,purple,250.0,tracking-SSD,go-2,4,,,,,,
0,0,9,phase_2,green_circle,stop,blue,0.0,0-SSD,go-1,4,,,,,,
1,495.0,9,phase_2,green_triangle,stop,purple,300.0,tracking-SSD,go-1,3,,,,,,
2,649.0,9,phase_2,green_rhombus,go,,,,go-1,1,,,,,,
0,0,9,phase_2,red_circle,stop,purple,250.0,tracking-SSD,go-2,4,,,,,,
1,520.0,9,phase_2,green_triangle,stop,purple,300.0,tracking-SSD,go-1,3,,,,,,
1,609.0,9,phase_2,red_pentagon,go,,,,go-2,1,,,,,,
1,607.0,9,phase_2,red_triangle,go,,,,go-2,1,,,,,,
1,615.0,9,phase_2,red_triangle,go,,,,go-2,1,,,,,,
2,556.0,9,phase_2,red_rhombus,go,,,,go-2,1,,,,,,
0,0,9,phase_2,green_rhombus,stop,blue,0.0,0-SSD,go-1,4,,,,,,
2,597.0,9,phase_2,red_rhombus,go,,,,go-2,1,,,,,,
1,595.0,9,phase_2,green_triangle,go,,,,go-1,1,,,,,,
2,546.0,9,phase_2,green_circle,go,,,,go-1,1,,,,,,
1,590.0,9,phase_2,red_pentagon,go,,,,go-2,1,,,,,,
2,485.0,9,phase_2,green_rhombus,go,,,,go-1,1,,,,,,
1,607.0,9,phase_2,green_pentagon,go,,,,go-1,1,,,,,,
1,683.0,9,phase_2,red_pentagon,go,,,,go-2,1,,,,,,
1,556.0,9,phase_2,red_pentagon,go,,,,go-2,1,,,,,,
1,532.0,9,phase_2,green_triangle,go,,,,go-1,1,,,,,,
1,574.0,9,phase_2,green_pentagon,go,,,,go-1,1,,,,,,
0,0,9,phase_2,green_rhombus,stop,blue,0.0,0-SSD,go-1,4,,,,,,
2,502.0,9,phase_2,green_circle,go,,,,go-1,1,,,,,,
1,611.0,9,phase_2,green_triangle,go,,,,go-1,1,,,,,,
0,0,9,phase_2,red_triangle,stop,blue,0.0,0-SSD,go-2,4,,,,,,
1,538.0,9,phase_2,red_pentagon,go,,,,go-2,1,,,,,,
1,559.0,9,phase_2,red_pentagon,go,,,,go-2,1,,,,,,
2,568.0,9,phase_2,green_rhombus,go,,,,go-1,1,,,,,,
0,0,9,phase_2,red_triangle,stop,blue,0.0,0-SSD,go-2,4,,,,,,
2,498.0,10,phase_2,green_circle,go,,,,go-1,1,,,,,,
0,0,10,phase_2,green_triangle,stop,blue,0.0,0-SSD,go-1,4,,,,,,
1,461.0,10,phase_2,green_pentagon,go,,,,go-1,1,,,,,,
1,718.0,10,phase_2,green_triangle,go,,,,go-1,1,,,,,,
2,457.0,10,phase_2,red_circle,go,,,,go-2,1,,,,,,
1,533.0,10,phase_2,red_pentagon,go,,,,go-2,1,,,,,,
2,530.0,10,phase_2,red_circle,go,,,,go-2,1,,,,,,
0,0,10,phase_2,red_rhombus,stop,purple,250.0,tracking-SSD,go-2,4,,,,,,
2,458.0,10,phase_2,green_rhombus,go,,,,go-1,1,,,,,,
2,456.0,10,phase_2,red_circle,stop,purple,300.0,tracking-SSD,go-2,3,,,,,,
2,903.0,10,phase_2,green_rhombus,go,,,,go-1,1,,,,,,
0,0,10,phase_2,green_rhombus,stop,purple,250.0,tracking-SSD,go-1,4,,,,,,
1,673.0,10,phase_2,red_triangle,go,,,,go-2,1,,,,,,
1,434.0,10,phase_2,red_pentagon,go,,,,go-2,1,,,,,,
2,679.0,10,phase_2,red_rhombus,stop,purple,300.0,tracking-SSD,go-2,3,,,,,,
1,608.0,10,phase_2,red_pentagon,go,,,,go-2,1,,,,,,
1,561.0,10,phase_2,green_triangle,go,,,,go-1,1,,,,,,
1,468.0,10,phase_2,green_triangle,go,,,,go-1,1,,,,,,
1,511.0,10,phase_2,green_pentagon,go,,,,go-1,1,,,,,,
2,520.0,10,phase_2,red_rhombus,go,,,,go-2,1,,,,,,
1,596.0,10,phase_2,green_triangle,stop,purple,250.0,tracking-SSD,go-1,3,,,,,,
1,481.0,10,phase_2,green_triangle,go,,,,go-1,1,,,,,,
1,512.0,10,phase_2,green_triangle,go,,,,go-1,1,,,,,,
2,555.0,10,phase_2,red_rhombus,go,,,,go-2,1,,,,,,
0,0,10,phase_2,red_rhombus,stop,blue,0.0,0-SSD,go-2,4,,,,,,
2,485.0,10,phase_2,green_circle,go,,,,go-1,1,,,,,,
2,617.0,10,phase_2,green_rhombus,go,,,,go-1,1,,,,,,
0,0,10,phase_2,green_triangle,stop,purple,200.0,tracking-SSD,go-1,4,,,,,,
1,489.0,10,phase_2,green_triangle,go,,,,go-1,1,,,,,,
1,452.0,10,phase_2,red_pentagon,stop,purple,250.0,tracking-SSD,go-2,3,,,,,,
2,462.0,10,phase_2,red_circle,go,,,,go-2,1,,,,,,
2,447.0,10,phase_2,red_circle,go,,,,go-2,1,,,,,,
1,490.0,10,phase_2,red_pentagon,go,,,,go-2,1,,,,,,
0,0,10,phase_2,green_pentagon,stop,blue,0.0,0-SSD,go-1,4,,,,,,
2,507.0,10,phase_2,red_circle,go,,,,go-2,1,,,,,,
1,505.0,10,phase_2,red_pentagon,go,,,,go-2,1,,,,,,
1,558.0,10,phase_2,green_pentagon,go,,,,go-1,1,,,,,,
1,578.0,10,phase_2,red_triangle,go,,,,go-2,1,,,,,,
0,0,10,phase_2,red_circle,stop,blue,0.0,0-SSD,go-2,4,,,,,,
0,0,10,phase_2,green_pentagon,stop,blue,0.0,0-SSD,go-1,4,,,,,,
0,0,10,phase_2,red_triangle,stop,blue,0.0,0-SSD,go-2,4,,,,,,
0,0,10,phase_2,green_circle,stop,blue,0.0,0-SSD,go-1,4,,,,,,
0,0,10,phase_2,red_circle,stop,blue,0.0,0-SSD,go-2,4,,,,,,
2,744.0,10,phase_2,red_rhombus,go,,,,go-2,1,,,,,,
2,550.0,10,phase_2,green_rhombus,go,,,,go-1,1,,,,,,
2,513.0,10,phase_2,red_circle,go,,,,go-2,1,,,,,,
2,522.0,10,phase_2,green_rhombus,go,,,,go-1,1,,,,,,
0,0,10,phase_2,green_pentagon,stop,purple,200.0,tracking-SSD,go-1,4,,,,,,
0,0,11,phase_2,green_pentagon,stop,blue,0.0,0-SSD,go-1,4,,,,,,
1,968.0,11,phase_2,red_pentagon,go,,,,go-2,1,,,,,,
0,0,11,phase_2,green_rhombus,stop,blue,0.0,0-SSD,go-1,4,,,,,,
1,478.0,11,phase_2,green_pentagon,go,,,,go-1,1,,,,,,
1,521.0,11,phase_2,red_triangle,go,,,,go-2,1,,,,,,
2,428.0,11,phase_2,green_circle,go,,,,go-1,1,,,,,,
2,505.0,11,phase_2,green_rhombus,go,,,,go-1,1,,,,,,
1,525.0,11,phase_2,red_pentagon,go,,,,go-2,1,,,,,,
0,0,11,phase_2,red_triangle,stop,blue,0.0,0-SSD,go-2,4,,,,,,
0,0,11,phase_2,green_circle,stop,blue,0.0,0-SSD,go-1,4,,,,,,
1,675.0,11,phase_2,green_triangle,go,,,,go-1,1,,,,,,
1,549.0,11,phase_2,green_pentagon,go,,,,go-1,1,,,,,,
1,479.0,11,phase_2,red_triangle,go,,,,go-2,1,,,,,,
2,645.0,11,phase_2,red_rhombus,go,,,,go-2,1,,,,,,
2,463.0,11,phase_2,green_circle,go,,,,go-1,1,,,,,,
2,506.0,11,phase_2,green_rhombus,go,,,,go-1,1,,,,,,
0,0,11,phase_2,red_rhombus,stop,purple,250.0,tracking-SSD,go-2,4,,,,,,
2,488.0,11,phase_2,green_circle,go,,,,go-1,1,,,,,,
1,497.0,11,phase_2,red_pentagon,go,,,,go-2,1,,,,,,
2,518.0,11,phase_2,red_circle,stop,purple,300.0,tracking-SSD,go-2,3,,,,,,
0,0,11,phase_2,red_pentagon,stop,purple,250.0,tracking-SSD,go-2,4,,,,,,
0,0,11,phase_2,green_triangle,stop,purple,300.0,tracking-SSD,go-1,4,,,,,,
1,534.0,11,phase_2,red_triangle,go,,,,go-2,1,,,,,,
2,508.0,11,phase_2,green_rhombus,go,,,,go-1,1,,,,,,
0,0,11,phase_2,red_circle,stop,blue,0.0,0-SSD,go-2,4,,,,,,
2,662.0,11,phase_2,red_rhombus,go,,,,go-2,1,,,,,,
1,570.0,11,phase_2,red_pentagon,go,,,,go-2,1,,,,,,
1,444.0,11,phase_2,red_triangle,go,,,,go-2,1,,,,,,
1,621.0,11,phase_2,green_pentagon,go,,,,go-1,1,,,,,,
2,595.0,11,phase_2,red_circle,go,,,,go-2,1,,,,,,
0,0,11,phase_2,red_rhombus,stop,blue,0.0,0-SSD,go-2,4,,,,,,
0,0,11,phase_2,green_pentagon,stop,blue,0.0,0-SSD,go-1,4,,,,,,
1,623.0,11,phase_2,green_triangle,go,,,,go-1,1,,,,,,
2,529.0,11,phase_2,green_circle,go,,,,go-1,1,,,,,,
0,0,11,phase_2,green_circle,stop,purple,350.0,tracking-SSD,go-1,4,,,,,,
2,580.0,11,phase_2,red_circle,go,,,,go-2,1,,,,,,
2,600.0,11,phase_2,green_rhombus,go,,,,go-1,1,,,,,,
2,509.0,11,phase_2,red_circle,stop,purple,400.0,tracking-SSD,go-2,3,,,,,,
1,629.0,11,phase_2,red_triangle,go,,,,go-2,1,,,,,,
0,0,11,phase_2,red_circle,stop,blue,0.0,0-SSD,go-2,4,,,,,,
1,557.0,11,phase_2,green_pentagon,stop,purple,350.0,tracking-SSD,go-1,3,,,,,,
1,566.0,11,phase_2,green_triangle,go,,,,go-1,1,,,,,,
2,676.0,11,phase_2,green_rhombus,go,,,,go-1,1,,,,,,
1,561.0,11,phase_2,red_pentagon,go,,,,go-2,1,,,,,,
0,0,11,phase_2,green_rhombus,stop,purple,300.0,tracking-SSD,go-1,4,,,,,,
2,637.0,11,phase_2,green_rhombus,go,,,,go-1,1,,,,,,
1,669.0,11,phase_2,red_triangle,go,,,,go-2,1,,,,,,
1,531.0,11,phase_2,red_triangle,go,,,,go-2,1,,,,,,
0,0,12,phase_2,red_circle,stop,blue,0.0,0-SSD,go-2,4,,,,,,
0,0,12,phase_2,green_triangle,stop,blue,0.0,0-SSD,go-1,4,,,,,,
2,481.0,12,phase_2,green_circle,go,,,,go-1,1,,,,,,
2,468.0,12,phase_2,green_circle,go,,,,go-1,1,,,,,,
0,0,12,phase_2,green_circle,stop,blue,0.0,0-SSD,go-1,4,,,,,,
1,452.0,12,phase_2,red_pentagon,go,,,,go-2,1,,,,,,
1,494.0,12,phase_2,red_pentagon,go,,,,go-2,1,,,,,,
2,469.0,12,phase_2,red_circle,stop,purple,350.0,tracking-SSD,go-2,3,,,,,,
2,680.0,12,phase_2,red_rhombus,go,,,,go-2,1,,,,,,
2,508.0,12,phase_2,green_circle,go,,,,go-1,1,,,,,,
2,619.0,12,phase_2,green_rhombus,go,,,,go-1,1,,,,,,
0,0,12,phase_2,red_circle,stop,blue,0.0,0-SSD,go-2,4,,,,,,
0,0,12,phase_2,green_pentagon,stop,blue,0.0,0-SSD,go-1,4,,,,,,
0,0,12,phase_2,red_triangle,stop,blue,0.0,0-SSD,go-2,4,,,,,,
1,586.0,12,phase_2,red_triangle,go,,,,go-2,1,,,,,,
1,494.0,12,phase_2,red_pentagon,go,,,,go-2,1,,,,,,
1,468.0,12,phase_2,red_triangle,go,,,,go-2,1,,,,,,
1,409.0,12,phase_2,red_triangle,go,,,,go-2,1,,,,,,
1,587.0,12,phase_2,red_pentagon,stop,purple,300.0,tracking-SSD,go-2,3,,,,,,
2,505.0,12,phase_2,red_circle,go,,,,go-2,1,,,,,,
2,661.0,12,phase_2,red_rhombus,go,,,,go-2,1,,,,,,
0,0,12,phase_2,red_triangle,stop,blue,0.0,0-SSD,go-2,4,,,,,,
1,475.0,12,phase_2,green_triangle,go,,,,go-1,1,,,,,,
0,0,12,phase_2,green_circle,stop,purple,250.0,tracking-SSD,go-1,4,,,,,,
0,0,12,phase_2,green_rhombus,stop,purple,300.0,tracking-SSD,go-1,4,,,,,,
2,480.0,12,phase_2,green_circle,stop,purple,350.0,tracking-SSD,go-1,3,,,,,,
0,0,12,phase_2,red_rhombus,stop,purple,300.0,tracking-SSD,go-2,4,,,,,,
2,676.0,12,phase_2,green_rhombus,go,,,,go-1,1,,,,,,
1,573.0,12,phase_2,green_pentagon,go,,,,go-1,1,,,,,,
0,0,12,phase_2,green_pentagon,stop,blue,0.0,0-SSD,go-1,4,,,,,,
1,489.0,12,phase_2,red_pentagon,go,,,,go-2,1,,,,,,
1,486.0,12,phase_2,red_pentagon,go,,,,go-2,1,,,,,,
2,686.0,12,phase_2,red_rhombus,stop,purple,350.0,tracking-SSD,go-2,3,,,,,,
2,493.0,12,phase_2,green_circle,go,,,,go-1,1,,,,,,
1,625.0,12,phase_2,green_triangle,go,,,,go-1,1,,,,,,
1,454.0,12,phase_2,green_triangle,go,,,,go-1,1,,,,,,
2,530.0,12,phase_2,red_rhombus,go,,,,go-2,1,,,,,,
1,538.0,12,phase_2,red_triangle,go,,,,go-2,1,,,,,,
1,592.0,12,phase_2,red_triangle,go,,,,go-2,1,,,,,,
2,511.0,12,phase_2,green_rhombus,go,,,,go-1,1,,,,,,
1,554.0,12,phase_2,red_pentagon,go,,,,go-2,1,,,,,,
0,0,12,phase_2,green_pentagon,stop,purple,300.0,tracking-SSD,go-1,4,,,,,,
2,639.0,12,phase_2,green_rhombus,go,,,,go-1,1,,,,,,
1,479.0,12,phase_2,red_pentagon,go,,,,go-2,1,,,,,,
2,499.0,12,phase_2,green_circle,go,,,,go-1,1,,,,,,
2,587.0,12,phase_2,green_rhombus,go,,,,go-1,1,,,,,,
1,538.0,12,phase_2,green_triangle,go,,,,go-1,1,,,,,,
2,672.0,12,phase_2,green_rhombus,go,,,,go-1,1,,,,,,
1,532.0,13,phase_2,red_pentagon,go,,,,go-2,1,,,,,,
2,496.0,13,phase_2,green_rhombus,go,,,,go-1,1,,,,,,
2,539.0,13,phase_2,red_rhombus,go,,,,go-2,1,,,,,,
1,503.0,13,phase_2,green_triangle,go,,,,go-1,1,,,,,,
1,603.0,13,phase_2,red_pentagon,go,,,,go-2,1,,,,,,
1,476.0,13,phase_2,green_pentagon,stop,purple,350.0,tracking-SSD,go-1,3,,,,,,
0,0,13,phase_2,red_pentagon,stop,blue,0.0,0-SSD,go-2,4,,,,,,
1,549.0,13,phase_2,red_pentagon,go,,,,go-2,1,,,,,,
0,0,13,phase_2,red_triangle,stop,purple,300.0,tracking-SSD,go-2,4,,,,,,
0,0,13,phase_2,red_triangle,stop,blue,0.0,0-SSD,go-2,4,,,,,,
1,620.0,13,phase_2,green_pentagon,go,,,,go-1,1,,,,,,
2,483.0,13,phase_2,green_circle,go,,,,go-1,1,,,,,,
1,469.0,13,phase_2,green_pentagon,go,,,,go-1,1,,,,,,
1,489.0,13,phase_2,red_triangle,go,,,,go-2,1,,,,,,
2,464.0,13,phase_2,red_circle,go,,,,go-2,1,,,,,,
0,0,13,phase_2,red_pentagon,stop,blue,0.0,0-SSD,go-2,4,,,,,,
2,584.0,13,phase_2,green_rhombus,go,,,,go-1,1,,,,,,
0,0,13,phase_2,green_pentagon,stop,blue,0.0,0-SSD,go-1,4,,,,,,
1,600.0,13,phase_2,green_triangle,go,,,,go-1,1,,,,,,
1,462.0,13,phase_2,green_triangle,stop,purple,350.0,tracking-SSD,go-1,3,,,,,,
2,471.0,13,phase_2,red_circle,go,,,,go-2,1,,,,,,
2,447.0,13,phase_2,red_circle,stop,purple,300.0,tracking-SSD,go-2,3,,,,,,
1,523.0,13,phase_2,green_pentagon,go,,,,go-1,1,,,,,,
0,0,13,phase_2,green_pentagon,stop,purple,250.0,tracking-SSD,go-1,4,,,,,,
2,596.0,13,phase_2,red_rhombus,go,,,,go-2,1,,,,,,
2,627.0,13,phase_2,green_rhombus,go,,,,go-1,1,,,,,,
2,546.0,13,phase_2,red_rhombus,stop,purple,300.0,tracking-SSD,go-2,3,,,,,,
1,520.0,13,phase_2,red_triangle,go,,,,go-2,1,,,,,,
1,564.0,13,phase_2,green_pentagon,go,,,,go-1,1,,,,,,
1,561.0,13,phase_2,red_triangle,go,,,,go-2,1,,,,,,
2,446.0,13,phase_2,green_circle,go,,,,go-1,1,,,,,,
2,421.0,13,phase_2,green_circle,go,,,,go-1,1,,,,,,
1,496.0,13,phase_2,red_triangle,go,,,,go-2,1,,,,,,
2,449.0,13,phase_2,red_circle,go,,,,go-2,1,,,,,,
2,683.0,13,phase_2,red_rhombus,go,,,,go-2,1,,,,,,
2,511.0,13,phase_2,red_circle,go,,,,go-2,1,,,,,,
0,0,13,phase_2,green_triangle,stop,blue,0.0,0-SSD,go-1,4,,,,,,
0,0,13,phase_2,green_rhombus,stop,blue,0.0,0-SSD,go-1,4,,,,,,
2,493.0,13,phase_2,green_circle,stop,purple,250.0,tracking-SSD,go-1,3,,,,,,
2,614.0,13,phase_2,green_rhombus,go,,,,go-1,1,,,,,,
2,499.0,13,phase_2,green_circle,go,,,,go-1,1,,,,,,
0,0,13,phase_2,red_circle,stop,blue,0.0,0-SSD,go-2,4,,,,,,
2,573.0,13,phase_2,green_rhombus,go,,,,go-1,1,,,,,,
0,0,13,phase_2,red_triangle,stop,purple,200.0,tracking-SSD,go-2,4,,,,,,
2,546.0,13,phase_2,green_rhombus,go,,,,go-1,1,,,,,,
2,464.0,13,phase_2,red_rhombus,go,,,,go-2,1,,,,,,
0,0,13,phase_2,green_triangle,stop,blue,0.0,0-SSD,go-1,4,,,,,,
2,515.0,13,phase_2,red_circle,go,,,,go-2,1,,,,,,
1,768.0,14,phase_2,green_pentagon,go,,,,go-1,1,,,,,,
1,475.0,14,phase_2,green_pentagon,go,,,,go-1,1,,,,,,
1,451.0,14,phase_2,red_pentagon,go,,,,go-2,1,,,,,,
2,548.0,14,phase_2,green_rhombus,go,,,,go-1,1,,,,,,
0,0,14,phase_2,green_triangle,stop,blue,0.0,0-SSD,go-1,4,,,,,,
0,0,14,phase_2,red_rhombus,stop,blue,0.0,0-SSD,go-2,4,,,,,,
2,463.0,14,phase_2,red_rhombus,go,,,,go-2,1,,,,,,
2,438.0,14,phase_2,red_rhombus,stop,purple,250.0,tracking-SSD,go-2,3,,,,,,
1,537.0,14,phase_2,red_pentagon,go,,,,go-2,1,,,,,,
2,489.0,14,phase_2,green_circle,go,,,,go-1,1,,,,,,
1,486.0,14,phase_2,green_pentagon,go,,,,go-1,1,,,,,,
1,563.0,14,phase_2,red_triangle,go,,,,go-2,1,,,,,,
0,0,14,phase_2,green_rhombus,stop,purple,200.0,tracking-SSD,go-1,4,,,,,,
0,0,14,phase_2,red_rhombus,stop,blue,0.0,0-SSD,go-2,4,,,,,,
0,0,14,phase_2,green_rhombus,stop,blue,0.0,0-SSD,go-1,4,,,,,,
2,450.0,14,phase_2,red_rhombus,go,,,,go-2,1,,,,,,
2,539.0,14,phase_2,green_circle,go,,,,go-1,1,,,,,,
2,491.0,14,phase_2,red_circle,stop,purple,250.0,tracking-SSD,go-2,3,,,,,,
0,0,14,phase_2,green_rhombus,stop,blue,0.0,0-SSD,go-1,4,,,,,,
2,510.0,14,phase_2,red_circle,go,,,,go-2,1,,,,,,
1,677.0,14,phase_2,green_pentagon,go,,,,go-1,1,,,,,,
1,541.0,14,phase_2,green_triangle,go,,,,go-1,1,,,,,,
1,526.0,14,phase_2,red_pentagon,go,,,,go-2,1,,,,,,
1,445.0,14,phase_2,red_pentagon,go,,,,go-2,1,,,,,,
2,454.0,14,phase_2,red_circle,go,,,,go-2,1,,,,,,
1,474.0,14,phase_2,green_pentagon,go,,,,go-1,1,,,,,,
2,730.0,14,phase_2,red_rhombus,go,,,,go-2,1,,,,,,
0,0,14,phase_2,green_triangle,stop,purple,200.0,tracking-SSD,go-1,4,,,,,,
2,454.0,14,phase_2,red_circle,go,,,,go-2,1,,,,,,
0,0,14,phase_2,green_triangle,stop,purple,250.0,tracking-SSD,go-1,4,,,,,,
1,472.0,14,phase_2,green_triangle,go,,,,go-1,1,,,,,,
0,0,14,phase_2,green_circle,stop,blue,0.0,0-SSD,go-1,4,,,,,,
1,557.0,14,phase_2,green_pentagon,go,,,,go-1,1,,,,,,
0,0,14,phase_2,red_circle,stop,blue,0.0,0-SSD,go-2,4,,,,,,
1,575.0,14,phase_2,red_triangle,go,,,,go-2,1,,,,,,
2,505.0,14,phase_2,green_circle,go,,,,go-1,1,,,,,,
1,648.0,14,phase_2,green_triangle,go,,,,go-1,1,,,,,,
1,444.0,14,phase_2,red_triangle,go,,,,go-2,1,,,,,,
2,486.0,14,phase_2,red_circle,stop,purple,300.0,tracking-SSD,go-2,3,,,,,,
2,619.0,14,phase_2,red_rhombus,go,,,,go-2,1,,,,,,
1,503.0,14,phase_2,red_pentagon,go,,,,go-2,1,,,,,,
2,467.0,14,phase_2,green_circle,stop,purple,250.0,tracking-SSD,go-1,3,,,,,,
2,577.0,14,phase_2,red_circle,go,,,,go-2,1,,,,,,
0,0,14,phase_2,red_triangle,stop,purple,200.0,tracking-SSD,go-2,4,,,,,,
1,505.0,14,phase_2,green_pentagon,go,,,,go-1,1,,,,,,
2,670.0,14,phase_2,green_rhombus,go,,,,go-1,1,,,,,,
1,499.0,14,phase_2,green_triangle,go,,,,go-1,1,,,,,,
0,0,14,phase_2,red_triangle,stop,blue,0.0,0-SSD,go-2,4,,,,,,
1,588.0,15,phase_2,green_triangle,go,,,,go-1,1,,,,,,
2,541.0,15,phase_2,green_rhombus,go,,,,go-1,1,,,,,,
0,0,15,phase_2,red_circle,stop,purple,250.0,tracking-SSD,go-2,4,,,,,,
2,434.0,15,phase_2,red_circle,go,,,,go-2,1,,,,,,
2,658.0,15,phase_2,red_rhombus,go,,,,go-2,1,,,,,,
1,486.0,15,phase_2,red_pentagon,stop,purple,300.0,tracking-SSD,go-2,3,,,,,,
2,494.0,15,phase_2,red_circle,go,,,,go-2,1,,,,,,
1,548.0,15,phase_2,green_triangle,go,,,,go-1,1,,,,,,
2,489.0,15,phase_2,red_circle,go,,,,go-2,1,,,,,,
1,465.0,15,phase_2,red_triangle,go,,,,go-2,1,,,,,,
0,0,15,phase_2,red_rhombus,stop,blue,0.0,0-SSD,go-2,4,,,,,,
2,504.0,15,phase_2,green_rhombus,go,,,,go-1,1,,,,,,
1,490.0,15,phase_2,green_pentagon,go,,,,go-1,1,,,,,,
1,555.0,15,phase_2,red_rhombus,go,,,,go-2,2,,,,,,
1,564.0,15,phase_2,green_pentagon,go,,,,go-1,1,,,,,,
0,0,15,phase_2,red_pentagon,stop,purple,250.0,tracking-SSD,go-2,4,,,,,,
2,435.0,15,phase_2,red_circle,stop,purple,300.0,tracking-SSD,go-2,3,,,,,,
0,0,15,phase_2,red_pentagon,stop,blue,0.0,0-SSD,go-2,4,,,,,,
0,0,15,phase_2,red_pentagon,stop,blue,0.0,0-SSD,go-2,4,,,,,,
0,0,15,phase_2,green_circle,stop,purple,250.0,tracking-SSD,go-1,4,,,,,,
1,618.0,15,phase_2,green_triangle,go,,,,go-1,1,,,,,,
2,580.0,15,phase_2,green_rhombus,go,,,,go-1,1,,,,,,
0,0,15,phase_2,green_triangle,stop,blue,0.0,0-SSD,go-1,4,,,,,,
2,406.0,15,phase_2,red_circle,go,,,,go-2,1,,,,,,
1,550.0,15,phase_2,red_triangle,go,,,,go-2,1,,,,,,
1,458.0,15,phase_2,red_pentagon,go,,,,go-2,1,,,,,,
1,523.0,15,phase_2,red_triangle,go,,,,go-2,1,,,,,,
0,0,15,phase_2,green_rhombus,stop,blue,0.0,0-SSD,go-1,4,,,,,,
1,541.0,15,phase_2,red_pentagon,go,,,,go-2,1,,,,,,
1,572.0,15,phase_2,red_pentagon,go,,,,go-2,1,,,,,,
1,513.0,15,phase_2,green_pentagon,go,,,,go-1,1,,,,,,
0,0,15,phase_2,red_rhombus,stop,blue,0.0,0-SSD,go-2,4,,,,,,
1,530.0,15,phase_2,green_triangle,go,,,,go-1,1,,,,,,
2,493.0,15,phase_2,red_circle,go,,,,go-2,1,,,,,,
2,614.0,15,phase_2,green_circle,go,,,,go-1,1,,,,,,
1,545.0,15,phase_2,green_triangle,stop,purple,300.0,tracking-SSD,go-1,3,,,,,,
0,0,15,phase_2,green_circle,stop,purple,250.0,tracking-SSD,go-1,4,,,,,,
1,574.0,15,phase_2,green_pentagon,go,,,,go-1,1,,,,,,
1,526.0,15,phase_2,green_triangle,go,,,,go-1,1,,,,,,
2,625.0,15,phase_2,red_circle,go,,,,go-2,1,,,,,,
1,522.0,15,phase_2,red_triangle,go,,,,go-2,1,,,,,,
2,564.0,15,phase_2,green_rhombus,go,,,,go-1,1,,,,,,
2,482.0,15,phase_2,green_circle,go,,,,go-1,1,,,,,,
0,0,15,phase_2,green_pentagon,stop,blue,0.0,0-SSD,go-1,4,,,,,,
0,0,15,phase_2,green_rhombus,stop,purple,300.0,tracking-SSD,go-1,4,,,,,,
2,510.0,15,phase_2,green_rhombus,go,,,,go-1,1,,,,,,
2,451.0,15,phase_2,red_rhombus,go,,,,go-2,1,,,,,,
0,0,15,phase_2,green_triangle,stop,blue,0.0,0-SSD,go-1,4,,,,,,
2,508.0,16,phase_2,green_circle,go,,,,go-1,1,,,,,,
0,0,16,phase_2,green_rhombus,stop,blue,0.0,0-SSD,go-1,4,,,,,,
1,526.0,16,phase_2,green_pentagon,stop,purple,350.0,tracking-SSD,go-1,3,,,,,,
1,490.0,16,phase_2,green_triangle,go,,,,go-1,1,,,,,,
2,444.0,16,phase_2,red_circle,go,,,,go-2,1,,,,,,
2,665.0,16,phase_2,green_rhombus,go,,,,go-1,1,,,,,,
1,539.0,16,phase_2,green_pentagon,go,,,,go-1,1,,,,,,
0,0,16,phase_2,red_triangle,stop,blue,0.0,0-SSD,go-2,4,,,,,,
2,499.0,16,phase_2,green_rhombus,go,,,,go-1,1,,,,,,
1,543.0,16,phase_2,red_triangle,go,,,,go-2,1,,,,,,
1,584.0,16,phase_2,red_pentagon,go,,,,go-2,1,,,,,,
0,0,16,phase_2,red_circle,stop,blue,0.0,0-SSD,go-2,4,,,,,,
0,0,16,phase_2,green_pentagon,stop,purple,300.0,tracking-SSD,go-1,4,,,,,,
2,509.0,16,phase_2,green_rhombus,go,,,,go-1,1,,,,,,
1,654.0,16,phase_2,red_pentagon,stop,purple,350.0,tracking-SSD,go-2,3,,,,,,
0,0,16,phase_2,green_rhombus,stop,blue,0.0,0-SSD,go-1,4,,,,,,
1,525.0,16,phase_2,red_pentagon,go,,,,go-2,1,,,,,,
1,556.0,16,phase_2,red_triangle,go,,,,go-2,1,,,,,,
1,474.0,16,phase_2,green_triangle,go,,,,go-1,1,,,,,,
1,551.0,16,phase_2,green_pentagon,stop,purple,300.0,tracking-SSD,go-1,3,,,,,,
1,548.0,16,phase_2,red_triangle,go,,,,go-2,1,,,,,,
1,636.0,16,phase_2,red_pentagon,go,,,,go-2,1,,,,,,
1,476.0,16,phase_2,red_pentagon,stop,purple,250.0,tracking-SSD,go-2,3,,,,,,
1,541.0,16,phase_2,green_triangle,go,,,,go-1,1,,,,,,
1,730.0,16,phase_2,red_triangle,go,,,,go-2,1,,,,,,
1,524.0,16,phase_2,red_pentagon,go,,,,go-2,1,,,,,,
0,0,16,phase_2,green_pentagon,stop,purple,200.0,tracking-SSD,go-1,4,,,,,,
2,463.0,16,phase_2,green_circle,go,,,,go-1,1,,,,,,
2,483.0,16,phase_2,green_circle,go,,,,go-1,1,,,,,,
1,628.0,16,phase_2,red_triangle,go,,,,go-2,1,,,,,,
0,0,16,phase_2,red_triangle,stop,blue,0.0,0-SSD,go-2,4,,,,,,
1,476.0,16,phase_2,red_triangle,go,,,,go-2,1,,,,,,
2,473.0,16,phase_2,red_circle,stop,purple,250.0,tracking-SSD,go-2,3,,,,,,
0,0,16,phase_2,green_rhombus,stop,blue,0.0,0-SSD,go-1,4,,,,,,
2,436.0,16,phase_2,green_rhombus,go,,,,go-1,1,,,,,,
2,557.0,16,phase_2,red_rhombus,go,,,,go-2,1,,,,,,
2,509.0,16,phase_2,green_circle,go,,,,go-1,1,,,,,,
2,619.0,16,phase_2,red_circle,go,,,,go-2,1,,,,,,
0,0,16,phase_2,red_circle,stop,blue,0.0,0-SSD,go-2,4,,,,,,
2,515.0,16,phase_2,red_circle,go,,,,go-2,1,,,,,,
2,489.0,16,phase_2,red_rhombus,go,,,,go-2,1,,,,,,
2,464.0,16,phase_2,green_rhombus,go,,,,go-1,1,,,,,,
0,0,16,phase_2,green_circle,stop,blue,0.0,0-SSD,go-1,4,,,,,,
2,549.0,16,phase_2,green_rhombus,go,,,,go-1,1,,,,,,
1,538.0,16,phase_2,green_triangle,go,,,,go-1,1,,,,,,
2,467.0,16,phase_2,red_circle,go,,,,go-2,1,,,,,,
1,533.0,16,phase_2,green_pentagon,go,,,,go-1,1,,,,,,
0,0,16,phase_2,red_rhombus,stop,purple,200.0,tracking-SSD,go-2,4,,,,,,
0,0,17,phase_2,green_circle,stop,purple,250.0,tracking-SSD,go-1,4,,,,,,
2,1621.0,17,phase_2,red_rhombus,stop,purple,300.0,tracking-SSD,go-2,3,,,,,,
2,539.0,17,phase_2,red_circle,go,,,,go-2,1,,,,,,
2,514.0,17,phase_2,red_circle,go,,,,go-2,1,,,,,,
0,0,17,phase_2,red_pentagon,stop,purple,250.0,tracking-SSD,go-2,4,,,,,,
1,464.0,17,phase_2,red_triangle,go,,,,go-2,1,,,,,,
1,484.0,17,phase_2,red_triangle,go,,,,go-2,1,,,,,,
1,549.0,17,phase_2,red_pentagon,go,,,,go-2,1,,,,,,
0,0,17,phase_2,green_pentagon,stop,blue,0.0,0-SSD,go-1,4,,,,,,
0,0,17,phase_2,green_triangle,stop,purple,300.0,tracking-SSD,go-1,4,,,,,,
0,0,17,phase_2,red_pentagon,stop,blue,0.0,0-SSD,go-2,4,,,,,,
1,643.0,17,phase_2,green_pentagon,go,,,,go-1,1,,,,,,
2,561.0,17,phase_2,green_rhombus,go,,,,go-1,1,,,,,,
1,502.0,17,phase_2,green_pentagon,go,,,,go-1,1,,,,,,
2,454.0,17,phase_2,red_circle,go,,,,go-2,1,,,,,,
1,553.0,17,phase_2,green_pentagon,go,,,,go-1,1,,,,,,
2,584.0,17,phase_2,green_rhombus,go,,,,go-1,1,,,,,,
0,0,17,phase_2,red_triangle,stop,blue,0.0,0-SSD,go-2,4,,,,,,
0,0,17,phase_2,red_circle,stop,blue,0.0,0-SSD,go-2,4,,,,,,
1,565.0,17,phase_2,green_triangle,go,,,,go-1,1,,,,,,
1,496.0,17,phase_2,red_triangle,go,,,,go-2,1,,,,,,
2,550.0,17,phase_2,green_rhombus,go,,,,go-1,1,,,,,,
2,524.0,17,phase_2,red_rhombus,go,,,,go-2,1,,,,,,
2,510.0,17,phase_2,green_rhombus,go,,,,go-1,1,,,,,,
2,496.0,17,phase_2,red_circle,go,,,,go-2,1,,,,,,
1,595.0,17,phase_2,green_pentagon,go,,,,go-1,1,,,,,,
0,0,17,phase_2,red_circle,stop,purple,350.0,tracking-SSD,go-2,4,,,,,,
2,421.0,17,phase_2,red_circle,go,,,,go-2,1,,,,,,
1,453.0,17,phase_2,green_triangle,go,,,,go-1,1,,,,,,
2,517.0,17,phase_2,red_circle,go,,,,go-2,1,,,,,,
2,571.0,17,phase_2,green_rhombus,go,,,,go-1,1,,,,,,
1,748.0,17,phase_2,green_pentagon,go,,,,go-1,1,,,,,,
0,0,17,phase_2,green_triangle,stop,blue,0.0,0-SSD,go-1,4,,,,,,
1,497.0,17,phase_2,red_triangle,go,,,,go-2,1,,,,,,
1,415.0,17,phase_2,red_triangle,go,,,,go-2,1,,,,,,
2,536.0,17,phase_2,green_rhombus,stop,purple,400.0,tracking-SSD,go-1,3,,,,,,
1,510.0,17,phase_2,green_triangle,stop,purple,350.0,tracking-SSD,go-1,3,,,,,,
2,475.0,17,phase_2,green_circle,go,,,,go-1,1,,,,,,
2,552.0,17,phase_2,red_rhombus,go,,,,go-2,1,,,,,,
1,492.0,17,phase_2,red_pentagon,stop,purple,300.0,tracking-SSD,go-2,3,,,,,,
0,0,17,phase_2,red_rhombus,stop,blue,0.0,0-SSD,go-2,4,,,,,,
2,442.0,17,phase_2,green_rhombus,go,,,,go-1,1,,,,,,
1,530.0,17,phase_2,green_pentagon,go,,,,go-1,1,,,,,,
1,528.0,17,phase_2,red_triangle,go,,,,go-2,1,,,,,,
0,0,17,phase_2,green_rhombus,stop,blue,0.0,0-SSD,go-1,4,,,,,,
2,387.0,17,phase_2,green_circle,go,,,,go-1,1,,,,,,
2,440.0,17,phase_2,red_circle,go,,,,go-2,1,,,,,,
0,0,17,phase_2,green_pentagon,stop,blue,0.0,0-SSD,go-1,4,,,,,,
,936.0,1,phase_3,,,,,,,,green_square,go-1,green_square,go-1,purple_square,tracking-SSD
,1021.0,1,phase_3,,,,,,,,blue_square,0-SSD,green_square,go-1,blue_square,0-SSD
,714.0,1,phase_3,,,,,,,,green_square,go-1,green_square,go-1,red_square,go-2
,822.0,1,phase_3,,,,,,,,red_square,go-2,red_square,go-2,purple_square,tracking-SSD
,783.0,1,phase_3,,,,,,,,blue_square,0-SSD,blue_square,0-SSD,purple_square,tracking-SSD
,555.0,1,phase_3,,,,,,,,blue_square,0-SSD,red_square,go-2,blue_square,0-SSD
,539.0,1,phase_3,,,,,,,,blue_square,0-SSD,purple_square,tracking-SSD,blue_square,0-SSD
,940.0,1,phase_3,,,,,,,,red_square,go-2,purple_square,tracking-SSD,red_square,go-2
,621.0,1,phase_3,,,,,,,,blue_square,0-SSD,blue_square,0-SSD,red_square,go-2
,796.0,1,phase_3,,,,,,,,green_square,go-1,blue_square,0-SSD,green_square,go-1
,611.0,1,phase_3,,,,,,,,green_square,go-1,purple_square,tracking-SSD,green_square,go-1
,1091.0,1,phase_3,,,,,,,,green_square,go-1,red_square,go-2,green_square,go-1
,893.0,2,phase_3,,,,,,,,blue_square,0-SSD,green_square,go-1,blue_square,0-SSD
,572.0,2,phase_3,,,,,,,,blue_square,0-SSD,red_square,go-2,blue_square,0-SSD
,771.0,2,phase_3,,,,,,,,red_square,go-2,red_square,go-2,purple_square,tracking-SSD
,711.0,2,phase_3,,,,,,,,green_square,go-1,green_square,go-1,red_square,go-2
,661.0,2,phase_3,,,,,,,,green_square,go-1,green_square,go-1,purple_square,tracking-SSD
,634.0,2,phase_3,,,,,,,,blue_square,0-SSD,blue_square,0-SSD,purple_square,tracking-SSD
,933.0,2,phase_3,,,,,,,,blue_square,0-SSD,blue_square,0-SSD,green_square,go-1
,681.0,2,phase_3,,,,,,,,blue_square,0-SSD,purple_square,tracking-SSD,blue_square,0-SSD
,520.0,2,phase_3,,,,,,,,blue_square,0-SSD,blue_square,0-SSD,red_square,go-2
,549.0,2,phase_3,,,,,,,,green_square,go-1,red_square,go-2,green_square,go-1
,792.0,2,phase_3,,,,,,,,red_square,go-2,purple_square,tracking-SSD,red_square,go-2
,642.0,2,phase_3,,,,,,,,green_square,go-1,purple_square,tracking-SSD,green_square,go-1
,668.0,3,phase_3,,,,,,,,green_square,go-1,green_square,go-1,red_square,go-2
,651.0,3,phase_3,,,,,,,,blue_square,0-SSD,green_square,go-1,blue_square,0-SSD
,534.0,3,phase_3,,,,,,,,blue_square,0-SSD,blue_square,0-SSD,purple_square,tracking-SSD
,968.0,3,phase_3,,,,,,,,red_square,go-2,red_square,go-2,purple_square,tracking-SSD
,582.0,3,phase_3,,,,,,,,green_square,go-1,green_square,go-1,purple_square,tracking-SSD
,657.0,3,phase_3,,,,,,,,blue_square,0-SSD,red_square,go-2,blue_square,0-SSD
,583.0,3,phase_3,,,,,,,,blue_square,0-SSD,blue_square,0-SSD,green_square,go-1
,478.0,3,phase_3,,,,,,,,blue_square,0-SSD,purple_square,tracking-SSD,blue_square,0-SSD
,587.0,3,phase_3,,,,,,,,blue_square,0-SSD,blue_square,0-SSD,red_square,go-2
,605.0,3,phase_3,,,,,,,,red_square,go-2,purple_square,tracking-SSD,red_square,go-2
,510.0,3,phase_3,,,,,,,,green_square,go-1,red_square,go-2,green_square,go-1
,540.0,3,phase_3,,,,,,,,green_square,go-1,purple_square,tracking-SSD,green_square,go-1
,712.0,4,phase_3,,,,,,,,green_square,go-1,green_square,go-1,purple_square,tracking-SSD
,561.0,4,phase_3,,,,,,,,blue_square,0-SSD,blue_square,0-SSD,purple_square,tracking-SSD
,681.0,4,phase_3,,,,,,,,blue_square,0-SSD,red_square,go-2,blue_square,0-SSD
,586.0,4,phase_3,,,,,,,,blue_square,0-SSD,green_square,go-1,blue_square,0-SSD
,953.0,4,phase_3,,,,,,,,red_square,go-2,red_square,go-2,purple_square,tracking-SSD
,657.0,4,phase_3,,,,,,,,green_square,go-1,green_square,go-1,red_square,go-2
,630.0,4,phase_3,,,,,,,,red_square,go-2,purple_square,tracking-SSD,red_square,go-2
,658.0,4,phase_3,,,,,,,,green_square,go-1,red_square,go-2,green_square,go-1
,857.0,4,phase_3,,,,,,,,blue_square,0-SSD,blue_square,0-SSD,red_square,go-2
,898.0,4,phase_3,,,,,,,,blue_square,0-SSD,blue_square,0-SSD,green_square,go-1
,578.0,4,phase_3,,,,,,,,green_square,go-1,purple_square,tracking-SSD,green_square,go-1
,642.0,4,phase_3,,,,,,,,blue_square,0-SSD,purple_square,tracking-SSD,blue_square,0-SSD
,521.0,5,phase_3,,,,,,,,green_square,go-1,green_square,go-1,red_square,go-2
,572.0,5,phase_3,,,,,,,,green_square,go-1,green_square,go-1,purple_square,tracking-SSD
,400.0,5,phase_3,,,,,,,,blue_square,0-SSD,red_square,go-2,blue_square,0-SSD
,823.0,5,phase_3,,,,,,,,blue_square,0-SSD,green_square,go-1,blue_square,0-SSD
,558.0,5,phase_3,,,,,,,,blue_square,0-SSD,blue_square,0-SSD,purple_square,tracking-SSD
,610.0,5,phase_3,,,,,,,,red_square,go-2,red_square,go-2,purple_square,tracking-SSD
,673.0,5,phase_3,,,,,,,,blue_square,0-SSD,blue_square,0-SSD,green_square,go-1
,443.0,5,phase_3,,,,,,,,blue_square,0-SSD,purple_square,tracking-SSD,blue_square,0-SSD
,518.0,5,phase_3,,,,,,,,blue_square,0-SSD,blue_square,0-SSD,red_square,go-2
,525.0,5,phase_3,,,,,,,,green_square,go-1,red_square,go-2,green_square,go-1
,745.0,5,phase_3,,,,,,,,red_square,go-2,purple_square,tracking-SSD,red_square,go-2
,640.0,5,phase_3,,,,,,,,green_square,go-1,purple_square,tracking-SSD,green_square,go-1
