response,reaction_time,block,which_phase,stim,stop_signal_trial_type,stop_signal_stimulus,SSD,SSD_type,condition,accuracy,chosen_stim,chosen_cond,stim_left,cond_left,stim_right,cond_right
2,724.0,1,phase_2,purple_triangle,go,,,,go-2,2,,,,,,
1,1071.0,1,phase_2,green_pentagon,go,,,,go-1,1,,,,,,
2,607.0,1,phase_2,green_rhombus,go,,,,go-1,1,,,,,,
0,0,1,phase_2,green_circle,stop,red,250.0,tracking-SSD,go-1,4,,,,,,
2,525.0,1,phase_2,green_rhombus,go,,,,go-1,1,,,,,,
2,816.0,1,phase_2,purple_rhombus,go,,,,go-2,1,,,,,,
1,803.0,1,phase_2,green_triangle,stop,red,300.0,tracking-SSD,go-1,3,,,,,,
2,566.0,1,phase_2,purple_circle,go,,,,go-2,1,,,,,,
1,597.0,1,phase_2,green_pentagon,go,,,,go-1,1,,,,,,
0,0,1,phase_2,purple_triangle,stop,blue,0.0,0-SSD,go-2,4,,,,,,
0,0,1,phase_2,green_circle,stop,blue,0.0,0-SSD,go-1,4,,,,,,
2,546.0,1,phase_2,green_circle,go,,,,go-1,1,,,,,,
2,610.0,1,phase_2,purple_circle,go,,,,go-2,1,,,,,,
2,900.0,1,phase_2,purple_rhombus,go,,,,go-2,1,,,,,,
0,0,1,phase_2,purple_triangle,go,,,,go-2,2,,,,,,
2,918.0,1,phase_2,purple_pentagon,go,,,,go-2,2,,,,,,
0,0,1,phase_2,green_triangle,stop,red,250.0,tracking-SSD,go-1,4,,,,,,
1,543.0,1,phase_2,green_pentagon,go,,,,go-1,1,,,,,,
2,597.0,1,phase_2,purple_circle,go,,,,go-2,1,,,,,,
0,0,1,phase_2,purple_rhombus,stop,blue,0.0,0-SSD,go-2,4,,,,,,
0,0,1,phase_2,green_triangle,stop,red,300.0,tracking-SSD,go-1,4,,,,,,
0,0,1,phase_2,purple_circle,stop,blue,0.0,0-SSD,go-2,4,,,,,,
1,715.0,1,phase_2,purple_pentagon,go,,,,go-2,1,,,,,,
1,588.0,1,phase_2,green_triangle,go,,,,go-1,1,,,,,,
1,497.0,1,phase_2,green_pentagon,go,,,,go-1,1,,,,,,
1,709.0,1,phase_2,green_triangle,go,,,,go-1,1,,,,,,
1,426.0,1,phase_2,purple_pentagon,go,,,,go-2,1,,,,,,
2,457.0,1,phase_2,green_rhombus,go,,,,go-1,1,,,,,,
2,445.0,1,phase_2,green_triangle,go,,,,go-1,2,,,,,,
1,858.0,1,phase_2,purple_pentagon,go,,,,go-2,1,,,,,,
1,564.0,1,phase_2,purple_triangle,go,,,,go-2,1,,,,,,
2,337.0,1,phase_2,purple_rhombus,go,,,,go-2,1,,,,,,
0,0,1,phase_2,purple_rhombus,stop,blue,0.0,0-SSD,go-2,4,,,,,,
2,524.0,1,phase_2,purple_rhombus,go,,,,go-2,1,,,,,,
2,893.0,1,phase_2,purple_rhombus,go,,,,go-2,1,,,,,,
0,0,1,phase_2,purple_triangle,stop,red,350.0,tracking-SSD,go-2,4,,,,,,
2,405.0,1,phase_2,purple_circle,stop,red,400.0,tracking-SSD,go-2,3,,,,,,
1,741.0,1,phase_2,green_pentagon,go,,,,go-1,1,,,,,,
2,548.0,1,phase_2,green_circle,go,,,,go-1,1,,,,,,
0,0,1,phase_2,green_rhombus,stop,blue,0.0,0-SSD,go-1,4,,,,,,
1,497.0,1,phase_2,purple_pentagon,stop,red,350.0,tracking-SSD,go-2,3,,,,,,
2,698.0,1,phase_2,purple_rhombus,go,,,,go-2,1,,,,,,
2,573.0,1,phase_2,green_circle,go,,,,go-1,1,,,,,,
2,538.0,1,phase_2,green_triangle,stop,blue,0.0,0-SSD,go-1,3,,,,,,
1,703.0,1,phase_2,green_pentagon,go,,,,go-1,1,,,,,,
0,0,1,phase_2,purple_pentagon,stop,red,300.0,tracking-SSD,go-2,4,,,,,,
2,508.0,1,phase_2,green_circle,go,,,,go-1,1,,,,,,
0,0,1,phase_2,green_circle,stop,blue,0.0,0-SSD,go-1,4,,,,,,
2,713.0,2,phase_2,purple_rhombus,go,,,,go-2,1,,,,,,
2,1228.0,2,phase_2,green_rhombus,go,,,,go-1,1,,,,,,
1,1304.0,2,phase_2,purple_pentagon,go,,,,go-2,1,,,,,,
2,1044.0,2,phase_2,green_circle,go,,,,go-1,1,,,,,,
0,0,2,phase_2,green_pentagon,stop,blue,0.0,0-SSD,go-1,4,,,,,,
2,556.0,2,phase_2,green_circle,go,,,,go-1,1,,,,,,
2,768.0,2,phase_2,purple_rhombus,go,,,,go-2,1,,,,,,
2,361.0,2,phase_2,green_rhombus,stop,red,350.0,tracking-SSD,go-1,3,,,,,,
1,583.0,2,phase_2,purple_pentagon,go,,,,go-2,1,,,,,,
1,458.0,2,phase_2,purple_pentagon,go,,,,go-2,1,,,,,,
2,400.0,2,phase_2,purple_triangle,stop,red,300.0,tracking-SSD,go-2,3,,,,,,
1,601.0,2,phase_2,purple_triangle,go,,,,go-2,1,,,,,,
1,487.0,2,phase_2,green_triangle,go,,,,go-1,1,,,,,,
1,585.0,2,phase_2,purple_triangle,stop,red,250.0,tracking-SSD,go-2,3,,,,,,
0,0,2,phase_2,purple_pentagon,stop,blue,0.0,0-SSD,go-2,4,,,,,,
0,0,2,phase_2,green_circle,stop,blue,0.0,0-SSD,go-1,4,,,,,,
2,314.0,2,phase_2,green_pentagon,go,,,,go-1,2,,,,,,
1,999.0,2,phase_2,green_triangle,go,,,,go-1,1,,,,,,
2,504.0,2,phase_2,purple_circle,go,,,,go-2,1,,,,,,
2,570.0,2,phase_2,purple_circle,go,,,,go-2,1,,,,,,
0,0,2,phase_2,purple_rhombus,stop,blue,0.0,0-SSD,go-2,4,,,,,,
2,533.0,2,phase_2,green_triangle,go,,,,go-1,2,,,,,,
0,0,2,phase_2,green_circle,stop,red,200.0,tracking-SSD,go-1,4,,,,,,
0,0,2,phase_2,green_pentagon,stop,blue,0.0,0-SSD,go-1,4,,,,,,
2,551.0,2,phase_2,green_rhombus,go,,,,go-1,1,,,,,,
2,448.0,2,phase_2,green_circle,go,,,,go-1,1,,,,,,
2,458.0,2,phase_2,green_rhombus,go,,,,go-1,1,,,,,,
0,0,2,phase_2,green_pentagon,go,,,,go-1,2,,,,,,
2,556.0,2,phase_2,green_triangle,stop,red,250.0,tracking-SSD,go-1,3,,,,,,
0,0,2,phase_2,green_triangle,stop,red,200.0,tracking-SSD,go-1,4,,,,,,
2,406.0,2,phase_2,purple_rhombus,go,,,,go-2,1,,,,,,
0,0,2,phase_2,purple_circle,stop,red,250.0,tracking-SSD,go-2,4,,,,,,
1,529.0,2,phase_2,green_pentagon,go,,,,go-1,1,,,,,,
2,538.0,2,phase_2,purple_circle,go,,,,go-2,1,,,,,,
0,0,2,phase_2,green_circle,stop,blue,0.0,0-SSD,go-1,4,,,,,,
2,535.0,2,phase_2,purple_pentagon,go,,,,go-2,2,,,,,,
2,501.0,2,phase_2,purple_circle,go,,,,go-2,1,,,,,,
2,490.0,2,phase_2,purple_rhombus,go,,,,go-2,1,,,,,,
1,656.0,2,phase_2,green_triangle,go,,,,go-1,1,,,,,,
2,553.0,2,phase_2,purple_circle,go,,,,go-2,1,,,,,,
0,0,2,phase_2,purple_pentagon,stop,blue,0.0,0-SSD,go-2,4,,,,,,
2,617.0,2,phase_2,green_rhombus,go,,,,go-1,1,,,,,,
2,549.0,2,phase_2,green_rhombus,go,,,,go-1,1,,,,,,
1,513.0,2,phase_2,purple_triangle,go,,,,go-2,1,,,,,,
2,355.0,2,phase_2,green_rhombus,go,,,,go-1,1,,,,,,
1,307.0,2,phase_2,purple_pentagon,stop,red,300.0,tracking-SSD,go-2,3,,,,,,
2,429.0,2,phase_2,purple_triangle,go,,,,go-2,2,,,,,,
0,0,2,phase_2,purple_triangle,stop,blue,0.0,0-SSD,go-2,4,,,,,,
2,509.0,3,phase_2,purple_circle,go,,,,go-2,1,,,,,,
1,654.0,3,phase_2,green_triangle,go,,,,go-1,1,,,,,,
2,540.0,3,phase_2,purple_rhombus,go,,,,go-2,1,,,,,,
1,526.0,3,phase_2,purple_pentagon,go,,,,go-2,1,,,,,,
1,389.0,3,phase_2,purple_pentagon,go,,,,go-2,1,,,,,,
2,533.0,3,phase_2,purple_rhombus,go,,,,go-2,1,,,,,,
0,0,3,phase_2,purple_rhombus,stop,red,250.0,tracking-SSD,go-2,4,,,,,,
2,539.0,3,phase_2,green_rhombus,go,,,,go-1,1,,,,,,
0,0,3,phase_2,green_pentagon,stop,blue,0.0,0-SSD,go-1,4,,,,,,
0,0,3,phase_2,purple_triangle,stop,blue,0.0,0-SSD,go-2,4,,,,,,
0,0,3,phase_2,purple_triangle,stop,red,300.0,tracking-SSD,go-2,4,,,,,,
0,0,3,phase_2,purple_pentagon,stop,blue,0.0,0-SSD,go-2,4,,,,,,
2,417.0,3,phase_2,purple_circle,go,,,,go-2,1,,,,,,
0,0,3,phase_2,green_triangle,stop,blue,0.0,0-SSD,go-1,4,,,,,,
2,502.0,3,phase_2,green_rhombus,go,,,,go-1,1,,,,,,
2,465.0,3,phase_2,green_circle,go,,,,go-1,1,,,,,,
1,599.0,3,phase_2,green_triangle,go,,,,go-1,1,,,,,,
1,450.0,3,phase_2,purple_triangle,go,,,,go-2,1,,,,,,
2,469.0,3,phase_2,purple_circle,stop,red,350.0,tracking-SSD,go-2,3,,,,,,
2,491.0,3,phase_2,purple_rhombus,stop,red,300.0,tracking-SSD,go-2,3,,,,,,
2,455.0,3,phase_2,purple_rhombus,go,,,,go-2,1,,,,,,
2,508.0,3,phase_2,purple_circle,go,,,,go-2,1,,,,,,
2,416.0,3,phase_2,green_rhombus,go,,,,go-1,1,,,,,,
1,885.0,3,phase_2,green_pentagon,go,,,,go-1,1,,,,,,
2,512.0,3,phase_2,green_circle,go,,,,go-1,1,,,,,,
0,0,3,phase_2,green_pentagon,stop,blue,0.0,0-SSD,go-1,4,,,,,,
1,585.0,3,phase_2,purple_pentagon,go,,,,go-2,1,,,,,,
2,448.0,3,phase_2,green_circle,go,,,,go-1,1,,,,,,
1,603.0,3,phase_2,green_pentagon,go,,,,go-1,1,,,,,,
0,0,3,phase_2,green_rhombus,stop,red,250.0,tracking-SSD,go-1,4,,,,,,
1,565.0,3,phase_2,green_pentagon,go,,,,go-1,1,,,,,,
1,889.0,3,phase_2,green_pentagon,go,,,,go-1,1,,,,,,
1,506.0,3,phase_2,green_triangle,go,,,,go-1,1,,,,,,
2,447.0,3,phase_2,purple_circle,go,,,,go-2,1,,,,,,
2,456.0,3,phase_2,green_rhombus,stop,red,300.0,tracking-SSD,go-1,3,,,,,,
2,453.0,3,phase_2,purple_circle,go,,,,go-2,1,,,,,,
2,687.0,3,phase_2,green_circle,stop,red,250.0,tracking-SSD,go-1,3,,,,,,
0,0,3,phase_2,purple_triangle,stop,blue,0.0,0-SSD,go-2,4,,,,,,
2,513.0,3,phase_2,green_rhombus,go,,,,go-1,1,,,,,,
0,0,3,phase_2,green_pentagon,stop,blue,0.0,0-SSD,go-1,4,,,,,,
0,0,3,phase_2,green_pentagon,stop,red,200.0,tracking-SSD,go-1,4,,,,,,
1,573.0,3,phase_2,green_triangle,go,,,,go-1,1,,,,,,
1,897.0,3,phase_2,purple_triangle,go,,,,go-2,1,,,,,,
2,558.0,3,phase_2,purple_circle,go,,,,go-2,1,,,,,,
1,611.0,3,phase_2,purple_triangle,go,,,,go-2,1,,,,,,
2,507.0,3,phase_2,purple_rhombus,go,,,,go-2,1,,,,,,
2,516.0,3,phase_2,green_circle,go,,,,go-1,1,,,,,,
0,0,3,phase_2,purple_triangle,stop,blue,0.0,0-SSD,go-2,4,,,,,,
0,0,4,phase_2,purple_rhombus,go,,,,go-2,2,,,,,,
0,0,4,phase_2,green_triangle,stop,blue,0.0,0-SSD,go-1,4,,,,,,
2,663.0,4,phase_2,purple_pentagon,go,,,,go-2,2,,,,,,
2,493.0,4,phase_2,green_rhombus,go,,,,go-1,1,,,,,,
0,0,4,phase_2,purple_circle,stop,blue,0.0,0-SSD,go-2,4,,,,,,
1,534.0,4,phase_2,green_pentagon,go,,,,go-1,1,,,,,,
2,543.0,4,phase_2,purple_rhombus,go,,,,go-2,1,,,,,,
1,574.0,4,phase_2,green_triangle,go,,,,go-1,1,,,,,,
2,527.0,4,phase_2,green_rhombus,go,,,,go-1,1,,,,,,
0,0,4,phase_2,green_pentagon,go,,,,go-1,2,,,,,,
0,0,4,phase_2,purple_triangle,stop,red,250.0,tracking-SSD,go-2,4,,,,,,
1,532.0,4,phase_2,green_pentagon,go,,,,go-1,1,,,,,,
0,0,4,phase_2,green_pentagon,stop,red,300.0,tracking-SSD,go-1,4,,,,,,
0,0,4,phase_2,purple_circle,stop,blue,0.0,0-SSD,go-2,4,,,,,,
2,493.0,4,phase_2,green_circle,go,,,,go-1,1,,,,,,
0,0,4,phase_2,green_rhombus,stop,blue,0.0,0-SSD,go-1,4,,,,,,
1,544.0,4,phase_2,green_pentagon,go,,,,go-1,1,,,,,,
2,687.0,4,phase_2,green_pentagon,go,,,,go-1,2,,,,,,
0,0,4,phase_2,purple_pentagon,stop,blue,0.0,0-SSD,go-2,4,,,,,,
0,0,4,phase_2,green_pentagon,stop,red,350.0,tracking-SSD,go-1,4,,,,,,
2,725.0,4,phase_2,purple_rhombus,go,,,,go-2,1,,,,,,
1,442.0,4,phase_2,purple_triangle,go,,,,go-2,1,,,,,,
0,0,4,phase_2,purple_rhombus,stop,blue,0.0,0-SSD,go-2,4,,,,,,
2,504.0,4,phase_2,purple_circle,go,,,,go-2,1,,,,,,
1,445.0,4,phase_2,purple_pentagon,go,,,,go-2,1,,,,,,
0,0,4,phase_2,green_triangle,stop,red,400.0,tracking-SSD,go-1,4,,,,,,
0,0,4,phase_2,green_rhombus,stop,blue,0.0,0-SSD,go-1,4,,,,,,
2,439.0,4,phase_2,purple_circle,stop,red,450.0,tracking-SSD,go-2,3,,,,,,
0,0,4,phase_2,green_rhombus,stop,blue,0.0,0-SSD,go-1,4,,,,,,
1,457.0,4,phase_2,green_triangle,stop,red,400.0,tracking-SSD,go-1,3,,,,,,
1,613.0,4,phase_2,green_pentagon,go,,,,go-1,1,,,,,,
2,408.0,4,phase_2,purple_circle,go,,,,go-2,1,,,,,,
2,585.0,4,phase_2,green_rhombus,go,,,,go-1,1,,,,,,
1,437.0,4,phase_2,purple_rhombus,go,,,,go-2,2,,,,,,
2,547.0,4,phase_2,purple_circle,go,,,,go-2,1,,,,,,
2,555.0,4,phase_2,purple_pentagon,go,,,,go-2,2,,,,,,
1,960.0,4,phase_2,purple_triangle,go,,,,go-2,1,,,,,,
2,542.0,4,phase_2,green_circle,go,,,,go-1,1,,,,,,
2,866.0,4,phase_2,purple_circle,stop,red,350.0,tracking-SSD,go-2,3,,,,,,
2,470.0,4,phase_2,green_circle,go,,,,go-1,1,,,,,,
1,840.0,4,phase_2,purple_triangle,go,,,,go-2,1,,,,,,
0,0,4,phase_2,purple_triangle,stop,red,300.0,tracking-SSD,go-2,4,,,,,,
1,556.0,4,phase_2,purple_triangle,go,,,,go-2,1,,,,,,
1,878.0,4,phase_2,purple_circle,go,,,,go-2,2,,,,,,
2,573.0,4,phase_2,green_rhombus,go,,,,go-1,1,,,,,,
1,727.0,4,phase_2,purple_triangle,go,,,,go-2,1,,,,,,
2,624.0,4,phase_2,green_circle,go,,,,go-1,1,,,,,,
2,747.0,4,phase_2,green_triangle,go,,,,go-1,2,,,,,,
0,0,5,phase_2,green_rhombus,stop,blue,0.0,0-SSD,go-1,4,,,,,,
2,565.0,5,phase_2,purple_rhombus,go,,,,go-2,1,,,,,,
2,608.0,5,phase_2,green_rhombus,go,,,,go-1,1,,,,,,
1,739.0,5,phase_2,purple_triangle,stop,red,350.0,tracking-SSD,go-2,3,,,,,,
2,592.0,5,phase_2,green_pentagon,go,,,,go-1,2,,,,,,
2,467.0,5,phase_2,green_circle,go,,,,go-1,1,,,,,,
1,926.0,5,phase_2,purple_pentagon,go,,,,go-2,1,,,,,,
0,0,5,phase_2,purple_rhombus,stop,blue,0.0,0-SSD,go-2,4,,,,,,
2,755.0,5,phase_2,green_rhombus,go,,,,go-1,1,,,,,,
0,0,5,phase_2,green_triangle,stop,blue,0.0,0-SSD,go-1,4,,,,,,
0,0,5,phase_2,green_circle,stop,red,300.0,tracking-SSD,go-1,4,,,,,,
1,546.0,5,phase_2,green_triangle,go,,,,go-1,1,,,,,,
1,757.0,5,phase_2,green_pentagon,go,,,,go-1,1,,,,,,
1,428.0,5,phase_2,purple_pentagon,go,,,,go-2,1,,,,,,
2,628.0,5,phase_2,purple_circle,stop,red,350.0,tracking-SSD,go-2,3,,,,,,
2,581.0,5,phase_2,purple_circle,go,,,,go-2,1,,,,,,
1,465.0,5,phase_2,purple_pentagon,stop,red,300.0,tracking-SSD,go-2,3,,,,,,
1,722.0,5,phase_2,purple_pentagon,go,,,,go-2,1,,,,,,
0,0,5,phase_2,green_rhombus,stop,red,250.0,tracking-SSD,go-1,4,,,,,,
1,482.0,5,phase_2,purple_pentagon,go,,,,go-2,1,,,,,,
0,0,5,phase_2,purple_triangle,go,,,,go-2,2,,,,,,
2,623.0,5,phase_2,green_pentagon,go,,,,go-1,2,,,,,,
1,779.0,5,phase_2,purple_triangle,go,,,,go-2,1,,,,,,
1,585.0,5,phase_2,purple_triangle,stop,red,300.0,tracking-SSD,go-2,3,,,,,,
2,493.0,5,phase_2,purple_circle,go,,,,go-2,1,,,,,,
2,625.0,5,phase_2,green_rhombus,stop,red,250.0,tracking-SSD,go-1,3,,,,,,
2,557.0,5,phase_2,green_rhombus,go,,,,go-1,1,,,,,,
1,645.0,5,phase_2,green_pentagon,go,,,,go-1,1,,,,,,
0,0,5,phase_2,purple_rhombus,stop,blue,0.0,0-SSD,go-2,4,,,,,,
1,821.0,5,phase_2,green_pentagon,stop,red,200.0,tracking-SSD,go-1,3,,,,,,
1,830.0,5,phase_2,green_triangle,go,,,,go-1,1,,,,,,
1,580.0,5,phase_2,purple_pentagon,go,,,,go-2,1,,,,,,
1,466.0,5,phase_2,purple_triangle,go,,,,go-2,1,,,,,,
2,442.0,5,phase_2,purple_circle,go,,,,go-2,1,,,,,,
1,462.0,5,phase_2,green_pentagon,go,,,,go-1,1,,,,,,
0,0,5,phase_2,green_triangle,stop,blue,0.0,0-SSD,go-1,4,,,,,,
2,491.0,5,phase_2,purple_circle,go,,,,go-2,1,,,,,,
2,376.0,5,phase_2,purple_circle,go,,,,go-2,1,,,,,,
0,0,5,phase_2,purple_circle,stop,blue,0.0,0-SSD,go-2,4,,,,,,
2,328.0,5,phase_2,purple_circle,go,,,,go-2,1,,,,,,
1,437.0,5,phase_2,green_triangle,go,,,,go-1,1,,,,,,
2,413.0,5,phase_2,green_rhombus,go,,,,go-1,1,,,,,,
2,500.0,5,phase_2,purple_circle,go,,,,go-2,1,,,,,,
2,544.0,5,phase_2,green_rhombus,go,,,,go-1,1,,,,,,
0,0,5,phase_2,green_circle,stop,blue,0.0,0-SSD,go-1,4,,,,,,
0,0,5,phase_2,purple_triangle,stop,blue,0.0,0-SSD,go-2,4,,,,,,
2,616.0,5,phase_2,green_triangle,go,,,,go-1,2,,,,,,
2,479.0,5,phase_2,green_rhombus,go,,,,go-1,1,,,,,,
2,499.0,6,phase_2,green_circle,go,,,,go-1,1,,,,,,
0,0,6,phase_2,green_triangle,stop,blue,0.0,0-SSD,go-1,4,,,,,,
2,404.0,6,phase_2,purple_circle,go,,,,go-2,1,,,,,,
0,0,6,phase_2,purple_circle,stop,blue,0.0,0-SSD,go-2,4,,,,,,
2,705.0,6,phase_2,green_rhombus,go,,,,go-1,1,,,,,,
2,476.0,6,phase_2,purple_rhombus,go,,,,go-2,1,,,,,,
0,0,6,phase_2,purple_pentagon,stop,blue,0.0,0-SSD,go-2,4,,,,,,
0,0,6,phase_2,green_triangle,stop,blue,0.0,0-SSD,go-1,4,,,,,,
2,413.0,6,phase_2,purple_circle,go,,,,go-2,1,,,,,,
0,0,6,phase_2,purple_circle,stop,red,150.0,tracking-SSD,go-2,4,,,,,,
2,410.0,6,phase_2,purple_rhombus,go,,,,go-2,1,,,,,,
0,0,6,phase_2,green_pentagon,stop,red,200.0,tracking-SSD,go-1,4,,,,,,
2,428.0,6,phase_2,green_circle,stop,red,250.0,tracking-SSD,go-1,3,,,,,,
1,504.0,6,phase_2,green_triangle,go,,,,go-1,1,,,,,,
1,581.0,6,phase_2,green_triangle,go,,,,go-1,1,,,,,,
1,725.0,6,phase_2,purple_pentagon,go,,,,go-2,1,,,,,,
1,632.0,6,phase_2,purple_pentagon,go,,,,go-2,1,,,,,,
1,440.0,6,phase_2,green_pentagon,go,,,,go-1,1,,,,,,
1,674.0,6,phase_2,green_pentagon,go,,,,go-1,1,,,,,,
0,0,6,phase_2,purple_pentagon,go,,,,go-2,2,,,,,,
1,423.0,6,phase_2,purple_triangle,go,,,,go-2,1,,,,,,
0,0,6,phase_2,green_pentagon,go,,,,go-1,2,,,,,,
1,733.0,6,phase_2,purple_triangle,go,,,,go-2,1,,,,,,
1,865.0,6,phase_2,green_rhombus,go,,,,go-1,2,,,,,,
2,795.0,6,phase_2,green_rhombus,go,,,,go-1,1,,,,,,
0,0,6,phase_2,purple_rhombus,stop,red,200.0,tracking-SSD,go-2,4,,,,,,
0,0,6,phase_2,green_triangle,stop,blue,0.0,0-SSD,go-1,4,,,,,,
2,430.0,6,phase_2,green_circle,go,,,,go-1,1,,,,,,
0,0,6,phase_2,purple_circle,stop,blue,0.0,0-SSD,go-2,4,,,,,,
1,482.0,6,phase_2,purple_triangle,go,,,,go-2,1,,,,,,
0,0,6,phase_2,purple_rhombus,stop,blue,0.0,0-SSD,go-2,4,,,,,,
2,951.0,6,phase_2,purple_rhombus,go,,,,go-2,1,,,,,,
2,634.0,6,phase_2,purple_pentagon,go,,,,go-2,2,,,,,,
1,665.0,6,phase_2,green_triangle,go,,,,go-1,1,,,,,,
1,730.0,6,phase_2,green_triangle,stop,red,250.0,tracking-SSD,go-1,3,,,,,,
0,0,6,phase_2,green_pentagon,stop,red,200.0,tracking-SSD,go-1,4,,,,,,
0,0,6,phase_2,green_triangle,stop,blue,0.0,0-SSD,go-1,4,,,,,,
2,376.0,6,phase_2,purple_circle,go,,,,go-2,1,,,,,,
2,497.0,6,phase_2,green_rhombus,go,,,,go-1,1,,,,,,
1,495.0,6,phase_2,green_triangle,go,,,,go-1,1,,,,,,
2,796.0,6,phase_2,green_rhombus,go,,,,go-1,1,,,,,,
2,456.0,6,phase_2,green_pentagon,go,,,,go-1,2,,,,,,
2,556.0,6,phase_2,purple_circle,stop,red,250.0,tracking-SSD,go-2,3,,,,,,
2,442.0,6,phase_2,green_rhombus,go,,,,go-1,1,,,,,,
2,450.0,6,phase_2,purple_pentagon,go,,,,go-2,2,,,,,,
2,471.0,6,phase_2,purple_rhombus,go,,,,go-2,1,,,,,,
2,559.0,6,phase_2,purple_circle,go,,,,go-2,1,,,,,,
2,376.0,6,phase_2,purple_circle,stop,red,200.0,tracking-SSD,go-2,3,,,,,,
2,634.0,7,phase_2,green_circle,go,,,,go-1,1,,,,,,
0,0,7,phase_2,purple_circle,stop,red,150.0,tracking-SSD,go-2,4,,,,,,
0,0,7,phase_2,purple_pentagon,stop,blue,0.0,0-SSD,go-2,4,,,,,,
2,492.0,7,phase_2,green_rhombus,go,,,,go-1,1,,,,,,
2,411.0,7,phase_2,purple_circle,go,,,,go-2,1,,,,,,
2,364.0,7,phase_2,green_rhombus,go,,,,go-1,1,,,,,,
1,464.0,7,phase_2,purple_triangle,go,,,,go-2,1,,,,,,
2,416.0,7,phase_2,purple_circle,go,,,,go-2,1,,,,,,
0,0,7,phase_2,green_triangle,stop,red,200.0,tracking-SSD,go-1,4,,,,,,
2,401.0,7,phase_2,purple_circle,go,,,,go-2,1,,,,,,
2,465.0,7,phase_2,green_circle,go,,,,go-1,1,,,,,,
2,935.0,7,phase_2,green_pentagon,go,,,,go-1,2,,,,,,
0,0,7,phase_2,purple_circle,stop,blue,0.0,0-SSD,go-2,4,,,,,,
2,481.0,7,phase_2,purple_rhombus,go,,,,go-2,1,,,,,,
0,0,7,phase_2,purple_triangle,stop,blue,0.0,0-SSD,go-2,4,,,,,,
0,0,7,phase_2,green_circle,stop,blue,0.0,0-SSD,go-1,4,,,,,,
2,509.0,7,phase_2,purple_circle,go,,,,go-2,1,,,,,,
0,0,7,phase_2,green_triangle,stop,blue,0.0,0-SSD,go-1,4,,,,,,
2,741.0,7,phase_2,purple_circle,go,,,,go-2,1,,,,,,
1,591.0,7,phase_2,green_pentagon,go,,,,go-1,1,,,,,,
2,555.0,7,phase_2,purple_rhombus,stop,red,250.0,tracking-SSD,go-2,3,,,,,,
1,857.0,7,phase_2,purple_triangle,go,,,,go-2,1,,,,,,
1,617.0,7,phase_2,purple_triangle,go,,,,go-2,1,,,,,,
2,751.0,7,phase_2,green_rhombus,go,,,,go-1,1,,,,,,
2,522.0,7,phase_2,purple_rhombus,go,,,,go-2,1,,,,,,
1,936.0,7,phase_2,purple_triangle,stop,red,200.0,tracking-SSD,go-2,3,,,,,,
0,0,7,phase_2,green_triangle,go,,,,go-1,2,,,,,,
0,0,7,phase_2,green_pentagon,stop,red,150.0,tracking-SSD,go-1,4,,,,,,
2,547.0,7,phase_2,green_circle,go,,,,go-1,1,,,,,,
2,455.0,7,phase_2,purple_rhombus,go,,,,go-2,1,,,,,,
1,543.0,7,phase_2,purple_triangle,go,,,,go-2,1,,,,,,
0,0,7,phase_2,green_circle,stop,blue,0.0,0-SSD,go-1,4,,,,,,
2,550.0,7,phase_2,purple_pentagon,go,,,,go-2,2,,,,,,
2,502.0,7,phase_2,green_pentagon,go,,,,go-1,2,,,,,,
1,725.0,7,phase_2,green_pentagon,go,,,,go-1,1,,,,,,
1,644.0,7,phase_2,purple_pentagon,go,,,,go-2,1,,,,,,
0,0,7,phase_2,purple_triangle,stop,blue,0.0,0-SSD,go-2,4,,,,,,
2,741.0,7,phase_2,green_rhombus,go,,,,go-1,1,,,,,,
1,604.0,7,phase_2,green_pentagon,go,,,,go-1,1,,,,,,
1,490.0,7,phase_2,green_pentagon,go,,,,go-1,1,,,,,,
1,511.0,7,phase_2,green_triangle,go,,,,go-1,1,,,,,,
2,575.0,7,phase_2,green_rhombus,go,,,,go-1,1,,,,,,
0,0,7,phase_2,green_rhombus,stop,blue,0.0,0-SSD,go-1,4,,,,,,
2,447.0,7,phase_2,green_rhombus,stop,red,200.0,tracking-SSD,go-1,3,,,,,,
0,0,7,phase_2,green_rhombus,stop,red,150.0,tracking-SSD,go-1,4,,,,,,
0,0,7,phase_2,purple_pentagon,stop,red,200.0,tracking-SSD,go-2,4,,,,,,
1,608.0,7,phase_2,purple_pentagon,go,,,,go-2,1,,,,,,
1,662.0,7,phase_2,purple_triangle,go,,,,go-2,1,,,,,,
2,589.0,8,phase_2,green_circle,stop,red,250.0,tracking-SSD,go-1,3,,,,,,
2,633.0,8,phase_2,purple_rhombus,go,,,,go-2,1,,,,,,
1,845.0,8,phase_2,green_pentagon,go,,,,go-1,1,,,,,,
1,471.0,8,phase_2,purple_pentagon,stop,red,200.0,tracking-SSD,go-2,3,,,,,,
1,391.0,8,phase_2,green_pentagon,go,,,,go-1,1,,,,,,
0,0,8,phase_2,purple_pentagon,stop,red,150.0,tracking-SSD,go-2,4,,,,,,
0,0,8,phase_2,purple_pentagon,stop,red,200.0,tracking-SSD,go-2,4,,,,,,
0,0,8,phase_2,green_circle,stop,blue,0.0,0-SSD,go-1,4,,,,,,
0,0,8,phase_2,purple_triangle,stop,blue,0.0,0-SSD,go-2,4,,,,,,
0,0,8,phase_2,purple_pentagon,stop,blue,0.0,0-SSD,go-2,4,,,,,,
1,613.0,8,phase_2,purple_pentagon,go,,,,go-2,1,,,,,,
1,610.0,8,phase_2,green_triangle,go,,,,go-1,1,,,,,,
0,0,8,phase_2,purple_rhombus,stop,red,250.0,tracking-SSD,go-2,4,,,,,,
2,505.0,8,phase_2,green_rhombus,go,,,,go-1,1,,,,,,
2,514.0,8,phase_2,purple_rhombus,go,,,,go-2,1,,,,,,
2,590.0,8,phase_2,green_circle,go,,,,go-1,1,,,,,,
0,0,8,phase_2,purple_triangle,go,,,,go-2,2,,,,,,
2,463.0,8,phase_2,purple_circle,go,,,,go-2,1,,,,,,
1,406.0,8,phase_2,green_triangle,go,,,,go-1,1,,,,,,
0,0,8,phase_2,purple_triangle,stop,blue,0.0,0-SSD,go-2,4,,,,,,
2,503.0,8,phase_2,green_circle,stop,red,300.0,tracking-SSD,go-1,3,,,,,,
2,501.0,8,phase_2,green_rhombus,go,,,,go-1,1,,,,,,
2,476.0,8,phase_2,purple_rhombus,go,,,,go-2,1,,,,,,
2,519.0,8,phase_2,green_rhombus,go,,,,go-1,1,,,,,,
0,0,8,phase_2,green_rhombus,stop,blue,0.0,0-SSD,go-1,4,,,,,,
2,435.0,8,phase_2,purple_rhombus,go,,,,go-2,1,,,,,,
0,0,8,phase_2,purple_triangle,stop,blue,0.0,0-SSD,go-2,4,,,,,,
1,1184.0,8,phase_2,green_triangle,go,,,,go-1,1,,,,,,
1,562.0,8,phase_2,purple_triangle,go,,,,go-2,1,,,,,,
1,831.0,8,phase_2,purple_pentagon,go,,,,go-2,1,,,,,,
2,706.0,8,phase_2,green_circle,go,,,,go-1,1,,,,,,
2,1130.0,8,phase_2,green_circle,go,,,,go-1,1,,,,,,
2,407.0,8,phase_2,purple_circle,go,,,,go-2,1,,,,,,
2,405.0,8,phase_2,green_circle,go,,,,go-1,1,,,,,,
0,0,8,phase_2,green_circle,stop,blue,0.0,0-SSD,go-1,4,,,,,,
2,446.0,8,phase_2,green_rhombus,go,,,,go-1,1,,,,,,
1,1062.0,8,phase_2,purple_pentagon,go,,,,go-2,1,,,,,,
2,577.0,8,phase_2,green_rhombus,stop,red,250.0,tracking-SSD,go-1,3,,,,,,
2,484.0,8,phase_2,green_circle,stop,red,200.0,tracking-SSD,go-1,3,,,,,,
1,560.0,8,phase_2,purple_pentagon,go,,,,go-2,1,,,,,,
1,659.0,8,phase_2,purple_pentagon,go,,,,go-2,1,,,,,,
1,511.0,8,phase_2,green_triangle,go,,,,go-1,1,,,,,,
1,588.0,8,phase_2,purple_pentagon,go,,,,go-2,1,,,,,,
1,1103.0,8,phase_2,purple_triangle,go,,,,go-2,1,,,,,,
0,0,8,phase_2,green_triangle,stop,blue,0.0,0-SSD,go-1,4,,,,,,
1,469.0,8,phase_2,green_triangle,go,,,,go-1,1,,,,,,
2,455.0,8,phase_2,purple_circle,go,,,,go-2,1,,,,,,
2,1016.0,8,phase_2,green_rhombus,go,,,,go-1,1,,,,,,
1,601.0,9,phase_2,green_pentagon,go,,,,go-1,1,,,,,,
0,0,9,phase_2,purple_pentagon,stop,red,150.0,tracking-SSD,go-2,4,,,,,,
1,629.0,9,phase_2,purple_triangle,go,,,,go-2,1,,,,,,
1,481.0,9,phase_2,green_triangle,go,,,,go-1,1,,,,,,
2,468.0,9,phase_2,purple_circle,go,,,,go-2,1,,,,,,
2,521.0,9,phase_2,purple_circle,go,,,,go-2,1,,,,,,
0,0,9,phase_2,green_circle,stop,red,200.0,tracking-SSD,go-1,4,,,,,,
2,583.0,9,phase_2,green_rhombus,go,,,,go-1,1,,,,,,
1,761.0,9,phase_2,purple_pentagon,go,,,,go-2,1,,,,,,
1,534.0,9,phase_2,purple_triangle,go,,,,go-2,1,,,,,,
1,496.0,9,phase_2,purple_rhombus,go,,,,go-2,2,,,,,,
0,0,9,phase_2,purple_circle,stop,blue,0.0,0-SSD,go-2,4,,,,,,
0,0,9,phase_2,green_triangle,stop,blue,0.0,0-SSD,go-1,4,,,,,,
2,511.0,9,phase_2,purple_circle,go,,,,go-2,1,,,,,,
0,0,9,phase_2,purple_triangle,stop,blue,0.0,0-SSD,go-2,4,,,,,,
1,530.0,9,phase_2,purple_triangle,go,,,,go-2,1,,,,,,
1,763.0,9,phase_2,purple_pentagon,go,,,,go-2,1,,,,,,
1,525.0,9,phase_2,green_triangle,go,,,,go-1,1,,,,,,
0,0,9,phase_2,purple_triangle,stop,blue,0.0,0-SSD,go-2,4,,,,,,
2,519.0,9,phase_2,green_rhombus,go,,,,go-1,1,,,,,,
0,0,9,phase_2,green_rhombus,stop,blue,0.0,0-SSD,go-1,4,,,,,,
1,550.0,9,phase_2,purple_triangle,go,,,,go-2,1,,,,,,
2,818.0,9,phase_2,green_pentagon,go,,,,go-1,2,,,,,,
2,456.0,9,phase_2,green_circle,go,,,,go-1,1,,,,,,
1,836.0,9,phase_2,green_pentagon,go,,,,go-1,1,,,,,,
0,0,9,phase_2,purple_rhombus,stop,blue,0.0,0-SSD,go-2,4,,,,,,
2,864.0,9,phase_2,purple_rhombus,go,,,,go-2,1,,,,,,
0,0,9,phase_2,green_rhombus,stop,blue,0.0,0-SSD,go-1,4,,,,,,
0,0,9,phase_2,green_triangle,stop,red,250.0,tracking-SSD,go-1,4,,,,,,
2,452.0,9,phase_2,green_rhombus,go,,,,go-1,1,,,,,,
1,606.0,9,phase_2,green_pentagon,go,,,,go-1,1,,,,,,
1,526.0,9,phase_2,green_pentagon,stop,red,300.0,tracking-SSD,go-1,3,,,,,,
2,602.0,9,phase_2,purple_circle,stop,red,250.0,tracking-SSD,go-2,3,,,,,,
1,543.0,9,phase_2,green_triangle,go,,,,go-1,1,,,,,,
0,0,9,phase_2,purple_circle,stop,red,200.0,tracking-SSD,go-2,4,,,,,,
1,650.0,9,phase_2,green_pentagon,go,,,,go-1,1,,,,,,
2,525.0,9,phase_2,purple_circle,go,,,,go-2,1,,,,,,
0,0,9,phase_2,green_rhombus,stop,blue,0.0,0-SSD,go-1,4,,,,,,
1,566.0,9,phase_2,green_pentagon,go,,,,go-1,1,,,,,,
2,496.0,9,phase_2,purple_rhombus,stop,red,250.0,tracking-SSD,go-2,3,,,,,,
0,0,9,phase_2,green_circle,stop,red,200.0,tracking-SSD,go-1,4,,,,,,
2,413.0,9,phase_2,green_circle,go,,,,go-1,1,,,,,,
2,488.0,9,phase_2,purple_rhombus,go,,,,go-2,1,,,,,,
2,587.0,9,phase_2,purple_circle,go,,,,go-2,1,,,,,,
1,573.0,9,phase_2,purple_triangle,go,,,,go-2,1,,,,,,
2,638.0,9,phase_2,green_rhombus,go,,,,go-1,1,,,,,,
1,626.0,9,phase_2,purple_pentagon,go,,,,go-2,1,,,,,,
2,870.0,9,phase_2,green_pentagon,go,,,,go-1,2,,,,,,
1,622.0,10,phase_2,green_triangle,go,,,,go-1,1,,,,,,
0,0,10,phase_2,green_pentagon,stop,red,250.0,tracking-SSD,go-1,4,,,,,,
0,0,10,phase_2,purple_rhombus,stop,blue,0.0,0-SSD,go-2,4,,,,,,
0,0,10,phase_2,purple_pentagon,stop,red,300.0,tracking-SSD,go-2,4,,,,,,
1,736.0,10,phase_2,purple_pentagon,go,,,,go-2,1,,,,,,
2,631.0,10,phase_2,purple_rhombus,go,,,,go-2,1,,,,,,
1,551.0,10,phase_2,green_pentagon,go,,,,go-1,1,,,,,,
2,548.0,10,phase_2,purple_circle,go,,,,go-2,1,,,,,,
1,444.0,10,phase_2,purple_triangle,stop,red,350.0,tracking-SSD,go-2,3,,,,,,
1,408.0,10,phase_2,purple_triangle,go,,,,go-2,1,,,,,,
2,631.0,10,phase_2,purple_rhombus,go,,,,go-2,1,,,,,,
0,0,10,phase_2,green_circle,stop,blue,0.0,0-SSD,go-1,4,,,,,,
0,0,10,phase_2,purple_rhombus,stop,red,300.0,tracking-SSD,go-2,4,,,,,,
2,511.0,10,phase_2,purple_circle,go,,,,go-2,1,,,,,,
1,465.0,10,phase_2,purple_pentagon,go,,,,go-2,1,,,,,,
1,474.0,10,phase_2,green_triangle,go,,,,go-1,1,,,,,,
1,517.0,10,phase_2,green_triangle,go,,,,go-1,1,,,,,,
2,751.0,10,phase_2,green_pentagon,go,,,,go-1,2,,,,,,
2,906.0,10,phase_2,purple_circle,go,,,,go-2,1,,,,,,
1,656.0,10,phase_2,green_triangle,stop,red,350.0,tracking-SSD,go-1,3,,,,,,
2,553.0,10,phase_2,green_circle,stop,red,300.0,tracking-SSD,go-1,3,,,,,,
1,763.0,10,phase_2,purple_pentagon,go,,,,go-2,1,,,,,,
0,0,10,phase_2,green_rhombus,stop,red,250.0,tracking-SSD,go-1,4,,,,,,
2,839.0,10,phase_2,green_circle,go,,,,go-1,1,,,,,,
2,703.0,10,phase_2,green_circle,go,,,,go-1,1,,,,,,
0,0,10,phase_2,purple_rhombus,stop,blue,0.0,0-SSD,go-2,4,,,,,,
2,517.0,10,phase_2,green_rhombus,go,,,,go-1,1,,,,,,
0,0,10,phase_2,green_circle,stop,blue,0.0,0-SSD,go-1,4,,,,,,
2,548.0,10,phase_2,green_circle,go,,,,go-1,1,,,,,,
0,0,10,phase_2,purple_circle,go,,,,go-2,2,,,,,,
0,0,10,phase_2,green_circle,stop,blue,0.0,0-SSD,go-1,4,,,,,,
0,0,10,phase_2,purple_triangle,go,,,,go-2,2,,,,,,
1,514.0,10,phase_2,purple_triangle,go,,,,go-2,1,,,,,,
0,0,10,phase_2,purple_rhombus,stop,blue,0.0,0-SSD,go-2,4,,,,,,
1,499.0,10,phase_2,green_triangle,go,,,,go-1,1,,,,,,
1,519.0,10,phase_2,green_pentagon,go,,,,go-1,1,,,,,,
1,493.0,10,phase_2,purple_pentagon,go,,,,go-2,1,,,,,,
1,479.0,10,phase_2,green_triangle,go,,,,go-1,1,,,,,,
2,670.0,10,phase_2,green_circle,go,,,,go-1,1,,,,,,
1,636.0,10,phase_2,green_triangle,go,,,,go-1,1,,,,,,
2,566.0,10,phase_2,green_rhombus,go,,,,go-1,1,,,,,,
1,621.0,10,phase_2,purple_pentagon,go,,,,go-2,1,,,,,,
0,0,10,phase_2,purple_triangle,stop,blue,0.0,0-SSD,go-2,4,,,,,,
0,0,10,phase_2,green_rhombus,stop,blue,0.0,0-SSD,go-1,4,,,,,,
2,434.0,10,phase_2,green_rhombus,go,,,,go-1,1,,,,,,
0,0,10,phase_2,purple_pentagon,stop,red,300.0,tracking-SSD,go-2,4,,,,,,
2,1723.0,10,phase_2,purple_rhombus,go,,,,go-2,1,,,,,,
2,1069.0,10,phase_2,purple_pentagon,go,,,,go-2,2,,,,,,
1,1511.0,11,phase_2,purple_triangle,go,,,,go-2,1,,,,,,
2,542.0,11,phase_2,green_circle,go,,,,go-1,1,,,,,,
2,732.0,11,phase_2,green_circle,go,,,,go-1,1,,,,,,
0,0,11,phase_2,green_pentagon,stop,red,350.0,tracking-SSD,go-1,4,,,,,,
2,558.0,11,phase_2,green_rhombus,go,,,,go-1,1,,,,,,
2,703.0,11,phase_2,purple_rhombus,go,,,,go-2,1,,,,,,
1,846.0,11,phase_2,green_pentagon,go,,,,go-1,1,,,,,,
0,0,11,phase_2,purple_circle,stop,blue,0.0,0-SSD,go-2,4,,,,,,
0,0,11,phase_2,purple_rhombus,stop,red,400.0,tracking-SSD,go-2,4,,,,,,
1,547.0,11,phase_2,purple_pentagon,go,,,,go-2,1,,,,,,
2,590.0,11,phase_2,green_circle,go,,,,go-1,1,,,,,,
2,778.0,11,phase_2,purple_rhombus,go,,,,go-2,1,,,,,,
0,0,11,phase_2,purple_triangle,stop,blue,0.0,0-SSD,go-2,4,,,,,,
0,0,11,phase_2,green_rhombus,stop,blue,0.0,0-SSD,go-1,4,,,,,,
0,0,11,phase_2,purple_rhombus,stop,blue,0.0,0-SSD,go-2,4,,,,,,
2,1060.0,11,phase_2,purple_triangle,go,,,,go-2,2,,,,,,
2,326.0,11,phase_2,purple_circle,go,,,,go-2,1,,,,,,
0,0,11,phase_2,green_pentagon,stop,blue,0.0,0-SSD,go-1,4,,,,,,
2,692.0,11,phase_2,green_circle,go,,,,go-1,1,,,,,,
2,600.0,11,phase_2,green_circle,go,,,,go-1,1,,,,,,
1,541.0,11,phase_2,purple_triangle,go,,,,go-2,1,,,,,,
2,584.0,11,phase_2,purple_pentagon,go,,,,go-2,2,,,,,,
2,514.0,11,phase_2,green_rhombus,go,,,,go-1,1,,,,,,
2,477.0,11,phase_2,green_rhombus,stop,red,450.0,tracking-SSD,go-1,3,,,,,,
1,486.0,11,phase_2,purple_triangle,go,,,,go-2,1,,,,,,
1,585.0,11,phase_2,purple_pentagon,stop,red,400.0,tracking-SSD,go-2,3,,,,,,
1,491.0,11,phase_2,green_triangle,stop,red,350.0,tracking-SSD,go-1,3,,,,,,
1,433.0,11,phase_2,purple_pentagon,go,,,,go-2,1,,,,,,
1,836.0,11,phase_2,green_triangle,go,,,,go-1,1,,,,,,
2,507.0,11,phase_2,green_circle,stop,red,300.0,tracking-SSD,go-1,3,,,,,,
1,527.0,11,phase_2,purple_pentagon,go,,,,go-2,1,,,,,,
0,0,11,phase_2,purple_triangle,stop,blue,0.0,0-SSD,go-2,4,,,,,,
0,0,11,phase_2,purple_pentagon,stop,red,250.0,tracking-SSD,go-2,4,,,,,,
2,497.0,11,phase_2,purple_circle,go,,,,go-2,1,,,,,,
1,708.0,11,phase_2,green_triangle,go,,,,go-1,1,,,,,,
1,1043.0,11,phase_2,purple_triangle,go,,,,go-2,1,,,,,,
2,658.0,11,phase_2,purple_pentagon,go,,,,go-2,2,,,,,,
2,521.0,11,phase_2,green_rhombus,go,,,,go-1,1,,,,,,
2,518.0,11,phase_2,purple_rhombus,go,,,,go-2,1,,,,,,
1,629.0,11,phase_2,green_triangle,go,,,,go-1,1,,,,,,
2,538.0,11,phase_2,green_circle,go,,,,go-1,1,,,,,,
2,545.0,11,phase_2,green_circle,go,,,,go-1,1,,,,,,
0,0,11,phase_2,purple_pentagon,stop,red,300.0,tracking-SSD,go-2,4,,,,,,
0,0,11,phase_2,green_rhombus,stop,blue,0.0,0-SSD,go-1,4,,,,,,
2,381.0,11,phase_2,green_rhombus,go,,,,go-1,1,,,,,,
1,693.0,11,phase_2,green_triangle,go,,,,go-1,1,,,,,,
0,0,11,phase_2,green_circle,stop,blue,0.0,0-SSD,go-1,4,,,,,,
1,632.0,11,phase_2,purple_pentagon,go,,,,go-2,1,,,,,,
1,712.0,12,phase_2,green_pentagon,go,,,,go-1,1,,,,,,
2,453.0,12,phase_2,green_circle,go,,,,go-1,1,,,,,,
1,574.0,12,phase_2,green_pentagon,go,,,,go-1,1,,,,,,
1,1000.0,12,phase_2,green_triangle,go,,,,go-1,1,,,,,,
1,536.0,12,phase_2,green_triangle,go,,,,go-1,1,,,,,,
0,0,12,phase_2,green_rhombus,stop,blue,0.0,0-SSD,go-1,4,,,,,,
0,0,12,phase_2,green_circle,stop,blue,0.0,0-SSD,go-1,4,,,,,,
2,831.0,12,phase_2,purple_pentagon,go,,,,go-2,2,,,,,,
2,470.0,12,phase_2,green_circle,stop,red,350.0,tracking-SSD,go-1,3,,,,,,
0,0,12,phase_2,purple_circle,stop,red,300.0,tracking-SSD,go-2,4,,,,,,
1,657.0,12,phase_2,purple_pentagon,go,,,,go-2,1,,,,,,
1,676.0,12,phase_2,green_pentagon,go,,,,go-1,1,,,,,,
2,517.0,12,phase_2,purple_circle,go,,,,go-2,1,,,,,,
2,436.0,12,phase_2,green_circle,stop,red,350.0,tracking-SSD,go-1,3,,,,,,
1,400.0,12,phase_2,purple_rhombus,go,,,,go-2,2,,,,,,
0,0,12,phase_2,purple_triangle,stop,blue,0.0,0-SSD,go-2,4,,,,,,
1,958.0,12,phase_2,green_pentagon,go,,,,go-1,1,,,,,,
2,494.0,12,phase_2,purple_rhombus,go,,,,go-2,1,,,,,,
1,1347.0,12,phase_2,purple_triangle,go,,,,go-2,1,,,,,,
1,681.0,12,phase_2,purple_triangle,go,,,,go-2,1,,,,,,
2,1083.0,12,phase_2,purple_rhombus,stop,blue,0.0,0-SSD,go-2,3,,,,,,
1,496.0,12,phase_2,purple_pentagon,go,,,,go-2,1,,,,,,
2,493.0,12,phase_2,green_circle,go,,,,go-1,1,,,,,,
1,536.0,12,phase_2,purple_triangle,go,,,,go-2,1,,,,,,
1,916.0,12,phase_2,green_triangle,go,,,,go-1,1,,,,,,
1,1689.0,12,phase_2,purple_rhombus,go,,,,go-2,2,,,,,,
0,0,12,phase_2,purple_pentagon,go,,,,go-2,2,,,,,,
2,595.0,12,phase_2,green_rhombus,go,,,,go-1,1,,,,,,
1,615.0,12,phase_2,green_triangle,go,,,,go-1,1,,,,,,
1,556.0,12,phase_2,purple_triangle,stop,red,300.0,tracking-SSD,go-2,3,,,,,,
2,734.0,12,phase_2,green_circle,go,,,,go-1,1,,,,,,
0,0,12,phase_2,purple_pentagon,stop,blue,0.0,0-SSD,go-2,4,,,,,,
0,0,12,phase_2,purple_circle,stop,red,250.0,tracking-SSD,go-2,4,,,,,,
2,569.0,12,phase_2,purple_rhombus,go,,,,go-2,1,,,,,,
0,0,12,phase_2,purple_rhombus,stop,red,300.0,tracking-SSD,go-2,4,,,,,,
0,0,12,phase_2,purple_circle,go,,,,go-2,2,,,,,,
2,392.0,12,phase_2,green_circle,go,,,,go-1,1,,,,,,
0,0,12,phase_2,purple_rhombus,go,,,,go-2,2,,,,,,
2,466.0,12,phase_2,green_rhombus,go,,,,go-1,1,,,,,,
0,0,12,phase_2,green_rhombus,stop,blue,0.0,0-SSD,go-1,4,,,,,,
1,417.0,12,phase_2,green_triangle,stop,red,350.0,tracking-SSD,go-1,3,,,,,,
2,437.0,12,phase_2,green_pentagon,go,,,,go-1,2,,,,,,
1,515.0,12,phase_2,purple_triangle,go,,,,go-2,1,,,,,,
2,1040.0,12,phase_2,green_circle,go,,,,go-1,1,,,,,,
1,633.0,12,phase_2,purple_pentagon,go,,,,go-2,1,,,,,,
0,0,12,phase_2,purple_pentagon,stop,blue,0.0,0-SSD,go-2,4,,,,,,
0,0,12,phase_2,green_triangle,stop,blue,0.0,0-SSD,go-1,4,,,,,,
2,525.0,12,phase_2,green_rhombus,stop,red,300.0,tracking-SSD,go-1,3,,,,,,
1,476.0,13,phase_2,green_triangle,go,,,,go-1,1,,,,,,
2,462.0,13,phase_2,purple_rhombus,go,,,,go-2,1,,,,,,
2,438.0,13,phase_2,purple_circle,go,,,,go-2,1,,,,,,
2,558.0,13,phase_2,purple_circle,go,,,,go-2,1,,,,,,
1,679.0,13,phase_2,purple_pentagon,go,,,,go-2,1,,,,,,
2,475.0,13,phase_2,green_circle,stop,red,250.0,tracking-SSD,go-1,3,,,,,,
2,404.0,13,phase_2,green_rhombus,go,,,,go-1,1,,,,,,
1,550.0,13,phase_2,green_pentagon,go,,,,go-1,1,,,,,,
2,389.0,13,phase_2,green_circle,go,,,,go-1,1,,,,,,
2,353.0,13,phase_2,purple_rhombus,go,,,,go-2,1,,,,,,
1,464.0,13,phase_2,purple_triangle,go,,,,go-2,1,,,,,,
2,485.0,13,phase_2,green_circle,go,,,,go-1,1,,,,,,
0,0,13,phase_2,purple_rhombus,stop,blue,0.0,0-SSD,go-2,4,,,,,,
1,595.0,13,phase_2,purple_pentagon,go,,,,go-2,1,,,,,,
2,558.0,13,phase_2,purple_rhombus,go,,,,go-2,1,,,,,,
0,0,13,phase_2,green_triangle,stop,blue,0.0,0-SSD,go-1,4,,,,,,
0,0,13,phase_2,purple_pentagon,stop,blue,0.0,0-SSD,go-2,4,,,,,,
0,0,13,phase_2,green_triangle,stop,blue,0.0,0-SSD,go-1,4,,,,,,
0,0,13,phase_2,green_rhombus,stop,blue,0.0,0-SSD,go-1,4,,,,,,
1,569.0,13,phase_2,purple_triangle,go,,,,go-2,1,,,,,,
0,0,13,phase_2,purple_triangle,stop,blue,0.0,0-SSD,go-2,4,,,,,,
1,520.0,13,phase_2,green_triangle,go,,,,go-1,1,,,,,,
2,461.0,13,phase_2,green_circle,go,,,,go-1,1,,,,,,
2,436.0,13,phase_2,purple_circle,go,,,,go-2,1,,,,,,
2,546.0,13,phase_2,purple_rhombus,go,,,,go-2,1,,,,,,
0,0,13,phase_2,purple_pentagon,stop,red,200.0,tracking-SSD,go-2,4,,,,,,
0,0,13,phase_2,green_pentagon,stop,red,250.0,tracking-SSD,go-1,4,,,,,,
2,380.0,13,phase_2,green_circle,go,,,,go-1,1,,,,,,
2,692.0,13,phase_2,purple_rhombus,go,,,,go-2,1,,,,,,
2,398.0,13,phase_2,green_rhombus,stop,red,300.0,tracking-SSD,go-1,3,,,,,,
1,507.0,13,phase_2,green_triangle,go,,,,go-1,1,,,,,,
2,561.0,13,phase_2,green_circle,go,,,,go-1,1,,,,,,
2,446.0,13,phase_2,green_rhombus,go,,,,go-1,1,,,,,,
1,668.0,13,phase_2,green_triangle,go,,,,go-1,1,,,,,,
2,486.0,13,phase_2,green_pentagon,go,,,,go-1,2,,,,,,
2,393.0,13,phase_2,green_triangle,go,,,,go-1,2,,,,,,
2,582.0,13,phase_2,purple_circle,go,,,,go-2,1,,,,,,
2,759.0,13,phase_2,green_pentagon,go,,,,go-1,2,,,,,,
2,453.0,13,phase_2,purple_circle,stop,red,250.0,tracking-SSD,go-2,3,,,,,,
1,507.0,13,phase_2,purple_pentagon,stop,red,200.0,tracking-SSD,go-2,3,,,,,,
0,0,13,phase_2,green_rhombus,stop,blue,0.0,0-SSD,go-1,4,,,,,,
1,467.0,13,phase_2,purple_triangle,go,,,,go-2,1,,,,,,
0,0,13,phase_2,purple_circle,stop,blue,0.0,0-SSD,go-2,4,,,,,,
1,474.0,13,phase_2,purple_pentagon,go,,,,go-2,1,,,,,,
0,0,13,phase_2,purple_pentagon,stop,red,150.0,tracking-SSD,go-2,4,,,,,,
2,435.0,13,phase_2,green_rhombus,go,,,,go-1,1,,,,,,
1,679.0,13,phase_2,purple_pentagon,go,,,,go-2,1,,,,,,
0,0,13,phase_2,green_triangle,stop,red,200.0,tracking-SSD,go-1,4,,,,,,
1,634.0,14,phase_2,green_triangle,go,,,,go-1,1,,,,,,
2,587.0,14,phase_2,purple_circle,go,,,,go-2,1,,,,,,
2,393.0,14,phase_2,green_circle,go,,,,go-1,1,,,,,,
0,0,14,phase_2,green_circle,stop,blue,0.0,0-SSD,go-1,4,,,,,,
1,603.0,14,phase_2,purple_pentagon,go,,,,go-2,1,,,,,,
2,678.0,14,phase_2,green_rhombus,go,,,,go-1,1,,,,,,
2,687.0,14,phase_2,green_pentagon,go,,,,go-1,2,,,,,,
2,560.0,14,phase_2,purple_rhombus,go,,,,go-2,1,,,,,,
0,0,14,phase_2,green_circle,stop,blue,0.0,0-SSD,go-1,4,,,,,,
1,701.0,14,phase_2,purple_triangle,go,,,,go-2,1,,,,,,
1,519.0,14,phase_2,purple_triangle,stop,red,250.0,tracking-SSD,go-2,3,,,,,,
2,426.0,14,phase_2,green_rhombus,go,,,,go-1,1,,,,,,
1,548.0,14,phase_2,green_pentagon,go,,,,go-1,1,,,,,,
1,657.0,14,phase_2,green_triangle,go,,,,go-1,1,,,,,,
0,0,14,phase_2,green_pentagon,stop,blue,0.0,0-SSD,go-1,4,,,,,,
2,551.0,14,phase_2,purple_rhombus,go,,,,go-2,1,,,,,,
0,0,14,phase_2,purple_triangle,stop,blue,0.0,0-SSD,go-2,4,,,,,,
2,479.0,14,phase_2,purple_circle,go,,,,go-2,1,,,,,,
2,588.0,14,phase_2,green_circle,go,,,,go-1,1,,,,,,
2,530.0,14,phase_2,green_circle,go,,,,go-1,1,,,,,,
1,786.0,14,phase_2,purple_pentagon,go,,,,go-2,1,,,,,,
2,401.0,14,phase_2,purple_rhombus,go,,,,go-2,1,,,,,,
1,421.0,14,phase_2,green_triangle,go,,,,go-1,1,,,,,,
2,396.0,14,phase_2,green_rhombus,go,,,,go-1,1,,,,,,
1,550.0,14,phase_2,purple_triangle,go,,,,go-2,1,,,,,,
2,616.0,14,phase_2,purple_circle,go,,,,go-2,1,,,,,,
0,0,14,phase_2,purple_circle,stop,red,200.0,tracking-SSD,go-2,4,,,,,,
2,441.0,14,phase_2,purple_rhombus,go,,,,go-2,1,,,,,,
0,0,14,phase_2,green_pentagon,stop,red,250.0,tracking-SSD,go-1,4,,,,,,
1,538.0,14,phase_2,purple_triangle,go,,,,go-2,1,,,,,,
0,0,14,phase_2,purple_pentagon,stop,blue,0.0,0-SSD,go-2,4,,,,,,
2,465.0,14,phase_2,purple_rhombus,go,,,,go-2,1,,,,,,
1,1036.0,14,phase_2,purple_pentagon,go,,,,go-2,1,,,,,,
1,1181.0,14,phase_2,purple_triangle,go,,,,go-2,1,,,,,,
1,866.0,14,phase_2,green_pentagon,go,,,,go-1,1,,,,,,
2,1190.0,14,phase_2,green_circle,go,,,,go-1,1,,,,,,
2,511.0,14,phase_2,purple_rhombus,stop,red,300.0,tracking-SSD,go-2,3,,,,,,
1,487.0,14,phase_2,purple_pentagon,go,,,,go-2,1,,,,,,
0,0,14,phase_2,green_rhombus,stop,blue,0.0,0-SSD,go-1,4,,,,,,
0,0,14,phase_2,purple_triangle,stop,blue,0.0,0-SSD,go-2,4,,,,,,
1,547.0,14,phase_2,green_pentagon,go,,,,go-1,1,,,,,,
0,0,14,phase_2,green_circle,stop,red,250.0,tracking-SSD,go-1,4,,,,,,
1,879.0,14,phase_2,green_pentagon,go,,,,go-1,1,,,,,,
0,0,14,phase_2,green_rhombus,stop,red,300.0,tracking-SSD,go-1,4,,,,,,
2,997.0,14,phase_2,green_rhombus,go,,,,go-1,1,,,,,,
0,0,14,phase_2,purple_triangle,stop,blue,0.0,0-SSD,go-2,4,,,,,,
0,0,14,phase_2,purple_triangle,stop,red,350.0,tracking-SSD,go-2,4,,,,,,
2,473.0,14,phase_2,green_circle,stop,red,400.0,tracking-SSD,go-1,3,,,,,,
2,566.0,15,phase_2,green_circle,go,,,,go-1,1,,,,,,
2,485.0,15,phase_2,green_circle,go,,,,go-1,1,,,,,,
2,460.0,15,phase_2,green_pentagon,go,,,,go-1,2,,,,,,
0,0,15,phase_2,purple_rhombus,stop,blue,0.0,0-SSD,go-2,4,,,,,,
1,983.0,15,phase_2,green_triangle,stop,red,350.0,tracking-SSD,go-1,3,,,,,,
1,678.0,15,phase_2,purple_pentagon,go,,,,go-2,1,,,,,,
1,1486.0,15,phase_2,green_pentagon,go,,,,go-1,1,,,,,,
0,0,15,phase_2,purple_triangle,stop,blue,0.0,0-SSD,go-2,4,,,,,,
0,0,15,phase_2,green_pentagon,stop,blue,0.0,0-SSD,go-1,4,,,,,,
0,0,15,phase_2,purple_triangle,stop,blue,0.0,0-SSD,go-2,4,,,,,,
2,632.0,15,phase_2,green_rhombus,go,,,,go-1,1,,,,,,
0,0,15,phase_2,purple_pentagon,stop,blue,0.0,0-SSD,go-2,4,,,,,,
1,572.0,15,phase_2,purple_triangle,go,,,,go-2,1,,,,,,
2,480.0,15,phase_2,green_circle,go,,,,go-1,1,,,,,,
2,533.0,15,phase_2,green_rhombus,go,,,,go-1,1,,,,,,
2,509.0,15,phase_2,purple_rhombus,go,,,,go-2,1,,,,,,
0,0,15,phase_2,purple_triangle,stop,red,300.0,tracking-SSD,go-2,4,,,,,,
1,583.0,15,phase_2,green_triangle,stop,red,350.0,tracking-SSD,go-1,3,,,,,,
2,513.0,15,phase_2,green_rhombus,go,,,,go-1,1,,,,,,
1,1264.0,15,phase_2,green_triangle,go,,,,go-1,1,,,,,,
1,575.0,15,phase_2,purple_pentagon,go,,,,go-2,1,,,,,,
2,572.0,15,phase_2,purple_circle,go,,,,go-2,1,,,,,,
2,525.0,15,phase_2,green_circle,go,,,,go-1,1,,,,,,
2,524.0,15,phase_2,green_rhombus,go,,,,go-1,1,,,,,,
0,0,15,phase_2,green_pentagon,stop,blue,0.0,0-SSD,go-1,4,,,,,,
1,756.0,15,phase_2,purple_triangle,go,,,,go-2,1,,,,,,
2,595.0,15,phase_2,green_circle,go,,,,go-1,1,,,,,,
2,561.0,15,phase_2,purple_rhombus,go,,,,go-2,1,,,,,,
2,411.0,15,phase_2,green_rhombus,go,,,,go-1,1,,,,,,
0,0,15,phase_2,green_circle,stop,blue,0.0,0-SSD,go-1,4,,,,,,
2,540.0,15,phase_2,purple_circle,go,,,,go-2,1,,,,,,
1,1528.0,15,phase_2,purple_pentagon,go,,,,go-2,1,,,,,,
1,1616.0,15,phase_2,purple_pentagon,go,,,,go-2,1,,,,,,
2,725.0,15,phase_2,purple_rhombus,stop,red,300.0,tracking-SSD,go-2,3,,,,,,
1,632.0,15,phase_2,purple_triangle,go,,,,go-2,1,,,,,,
2,539.0,15,phase_2,purple_circle,go,,,,go-2,1,,,,,,
0,0,15,phase_2,green_rhombus,stop,blue,0.0,0-SSD,go-1,4,,,,,,
2,433.0,15,phase_2,purple_rhombus,go,,,,go-2,1,,,,,,
0,0,15,phase_2,green_circle,stop,red,250.0,tracking-SSD,go-1,4,,,,,,
0,0,15,phase_2,green_pentagon,stop,red,300.0,tracking-SSD,go-1,4,,,,,,
1,549.0,15,phase_2,green_triangle,go,,,,go-1,1,,,,,,
1,467.0,15,phase_2,purple_triangle,stop,red,350.0,tracking-SSD,go-2,3,,,,,,
1,971.0,15,phase_2,purple_pentagon,go,,,,go-2,1,,,,,,
1,498.0,15,phase_2,purple_pentagon,go,,,,go-2,1,,,,,,
2,461.0,15,phase_2,purple_circle,stop,red,300.0,tracking-SSD,go-2,3,,,,,,
1,492.0,15,phase_2,purple_triangle,go,,,,go-2,1,,,,,,
2,479.0,15,phase_2,green_rhombus,go,,,,go-1,1,,,,,,
2,554.0,15,phase_2,green_circle,go,,,,go-1,1,,,,,,
1,972.0,16,phase_2,green_pentagon,go,,,,go-1,1,,,,,,
1,676.0,16,phase_2,purple_triangle,go,,,,go-2,1,,,,,,
2,741.0,16,phase_2,purple_rhombus,go,,,,go-2,1,,,,,,
0,0,16,phase_2,green_rhombus,stop,blue,0.0,0-SSD,go-1,4,,,,,,
1,567.0,16,phase_2,purple_triangle,go,,,,go-2,1,,,,,,
0,0,16,phase_2,green_rhombus,stop,blue,0.0,0-SSD,go-1,4,,,,,,
2,629.0,16,phase_2,green_circle,go,,,,go-1,1,,,,,,
2,817.0,16,phase_2,purple_rhombus,go,,,,go-2,1,,,,,,
1,894.0,16,phase_2,green_pentagon,go,,,,go-1,1,,,,,,
1,982.0,16,phase_2,green_pentagon,go,,,,go-1,1,,,,,,
1,923.0,16,phase_2,green_triangle,go,,,,go-1,1,,,,,,
1,954.0,16,phase_2,purple_pentagon,go,,,,go-2,1,,,,,,
2,557.0,16,phase_2,purple_circle,go,,,,go-2,1,,,,,,
1,578.0,16,phase_2,green_pentagon,go,,,,go-1,1,,,,,,
0,0,16,phase_2,purple_rhombus,stop,blue,0.0,0-SSD,go-2,4,,,,,,
0,0,16,phase_2,green_circle,stop,blue,0.0,0-SSD,go-1,4,,,,,,
0,0,16,phase_2,green_pentagon,stop,red,250.0,tracking-SSD,go-1,4,,,,,,
0,0,16,phase_2,green_rhombus,stop,blue,0.0,0-SSD,go-1,4,,,,,,
0,0,16,phase_2,purple_circle,stop,red,300.0,tracking-SSD,go-2,4,,,,,,
1,664.0,16,phase_2,purple_pentagon,go,,,,go-2,1,,,,,,
0,0,16,phase_2,purple_triangle,stop,blue,0.0,0-SSD,go-2,4,,,,,,
1,636.0,16,phase_2,green_triangle,go,,,,go-1,1,,,,,,
1,657.0,16,phase_2,purple_pentagon,stop,red,350.0,tracking-SSD,go-2,3,,,,,,
0,0,16,phase_2,purple_rhombus,stop,blue,0.0,0-SSD,go-2,4,,,,,,
1,427.0,16,phase_2,purple_pentagon,go,,,,go-2,1,,,,,,
0,0,16,phase_2,purple_triangle,stop,red,300.0,tracking-SSD,go-2,4,,,,,,
2,601.0,16,phase_2,green_circle,stop,red,350.0,tracking-SSD,go-1,3,,,,,,
2,452.0,16,phase_2,purple_circle,go,,,,go-2,1,,,,,,
1,562.0,16,phase_2,purple_rhombus,go,,,,go-2,2,,,,,,
1,560.0,16,phase_2,green_triangle,go,,,,go-1,1,,,,,,
1,657.0,16,phase_2,purple_triangle,go,,,,go-2,1,,,,,,
2,475.0,16,phase_2,green_circle,stop,red,300.0,tracking-SSD,go-1,3,,,,,,
2,472.0,16,phase_2,green_rhombus,go,,,,go-1,1,,,,,,
0,0,16,phase_2,purple_triangle,stop,blue,0.0,0-SSD,go-2,4,,,,,,
1,873.0,16,phase_2,purple_pentagon,go,,,,go-2,1,,,,,,
2,476.0,16,phase_2,green_rhombus,go,,,,go-1,1,,,,,,
1,620.0,16,phase_2,green_triangle,go,,,,go-1,1,,,,,,
1,640.0,16,phase_2,purple_pentagon,go,,,,go-2,1,,,,,,
2,491.0,16,phase_2,purple_circle,go,,,,go-2,1,,,,,,
2,590.0,16,phase_2,green_rhombus,go,,,,go-1,1,,,,,,
2,508.0,16,phase_2,green_circle,go,,,,go-1,1,,,,,,
1,832.0,16,phase_2,green_pentagon,go,,,,go-1,1,,,,,,
2,673.0,16,phase_2,green_rhombus,go,,,,go-1,1,,,,,,
0,0,16,phase_2,green_triangle,go,,,,go-1,2,,,,,,
2,488.0,16,phase_2,purple_circle,go,,,,go-2,1,,,,,,
0,0,16,phase_2,purple_circle,stop,red,250.0,tracking-SSD,go-2,4,,,,,,
1,594.0,16,phase_2,purple_triangle,go,,,,go-2,1,,,,,,
0,0,16,phase_2,green_circle,stop,red,300.0,tracking-SSD,go-1,4,,,,,,
1,521.0,17,phase_2,purple_triangle,go,,,,go-2,1,,,,,,
2,462.0,17,phase_2,green_circle,go,,,,go-1,1,,,,,,
2,505.0,17,phase_2,purple_circle,stop,red,350.0,tracking-SSD,go-2,3,,,,,,
1,435.0,17,phase_2,green_triangle,go,,,,go-1,1,,,,,,
1,781.0,17,phase_2,purple_pentagon,go,,,,go-2,1,,,,,,
2,441.0,17,phase_2,green_circle,go,,,,go-1,1,,,,,,
1,529.0,17,phase_2,purple_pentagon,stop,red,300.0,tracking-SSD,go-2,3,,,,,,
2,504.0,17,phase_2,purple_circle,go,,,,go-2,1,,,,,,
1,805.0,17,phase_2,green_pentagon,go,,,,go-1,1,,,,,,
1,454.0,17,phase_2,purple_rhombus,go,,,,go-2,2,,,,,,
1,484.0,17,phase_2,purple_triangle,go,,,,go-2,1,,,,,,
1,584.0,17,phase_2,green_pentagon,stop,red,250.0,tracking-SSD,go-1,3,,,,,,
2,446.0,17,phase_2,green_circle,go,,,,go-1,1,,,,,,
0,0,17,phase_2,purple_pentagon,stop,blue,0.0,0-SSD,go-2,4,,,,,,
0,0,17,phase_2,purple_rhombus,stop,red,200.0,tracking-SSD,go-2,4,,,,,,
0,0,17,phase_2,green_circle,stop,blue,0.0,0-SSD,go-1,4,,,,,,
1,1201.0,17,phase_2,green_pentagon,go,,,,go-1,1,,,,,,
1,579.0,17,phase_2,purple_triangle,go,,,,go-2,1,,,,,,
1,745.0,17,phase_2,purple_pentagon,stop,red,250.0,tracking-SSD,go-2,3,,,,,,
0,0,17,phase_2,purple_rhombus,stop,blue,0.0,0-SSD,go-2,4,,,,,,
1,515.0,17,phase_2,green_triangle,go,,,,go-1,1,,,,,,
2,446.0,17,phase_2,green_rhombus,go,,,,go-1,1,,,,,,
2,556.0,17,phase_2,purple_circle,go,,,,go-2,1,,,,,,
1,541.0,17,phase_2,green_triangle,stop,red,200.0,tracking-SSD,go-1,3,,,,,,
2,832.0,17,phase_2,green_circle,go,,,,go-1,1,,,,,,
0,0,17,phase_2,green_triangle,stop,red,150.0,tracking-SSD,go-1,4,,,,,,
0,0,17,phase_2,green_pentagon,stop,blue,0.0,0-SSD,go-1,4,,,,,,
2,487.0,17,phase_2,purple_rhombus,go,,,,go-2,1,,,,,,
2,507.0,17,phase_2,green_circle,go,,,,go-1,1,,,,,,
2,876.0,17,phase_2,green_rhombus,go,,,,go-1,1,,,,,,
1,1346.0,17,phase_2,green_pentagon,go,,,,go-1,1,,,,,,
2,770.0,17,phase_2,purple_rhombus,go,,,,go-2,1,,,,,,
1,1544.0,17,phase_2,green_triangle,stop,blue,0.0,0-SSD,go-1,3,,,,,,
2,495.0,17,phase_2,purple_circle,go,,,,go-2,1,,,,,,
1,1313.0,17,phase_2,purple_pentagon,go,,,,go-2,1,,,,,,
2,501.0,17,phase_2,green_rhombus,go,,,,go-1,1,,,,,,
2,689.0,17,phase_2,purple_circle,go,,,,go-2,1,,,,,,
1,541.0,17,phase_2,purple_pentagon,go,,,,go-2,1,,,,,,
0,0,17,phase_2,purple_triangle,stop,blue,0.0,0-SSD,go-2,4,,,,,,
0,0,17,phase_2,purple_rhombus,stop,blue,0.0,0-SSD,go-2,4,,,,,,
2,779.0,17,phase_2,green_circle,stop,red,200.0,tracking-SSD,go-1,3,,,,,,
1,518.0,17,phase_2,purple_triangle,go,,,,go-2,1,,,,,,
2,561.0,17,phase_2,purple_rhombus,go,,,,go-2,1,,,,,,
0,0,17,phase_2,green_triangle,stop,blue,0.0,0-SSD,go-1,4,,,,,,
1,972.0,17,phase_2,green_pentagon,go,,,,go-1,1,,,,,,
2,711.0,17,phase_2,purple_rhombus,go,,,,go-2,1,,,,,,
1,618.0,17,phase_2,green_triangle,go,,,,go-1,1,,,,,,
2,560.0,17,phase_2,green_rhombus,go,,,,go-1,1,,,,,,
,1038.0,1,phase_3,,,,,,,,blue_square,0-SSD,purple_square,go-2,blue_square,0-SSD
,605.0,1,phase_3,,,,,,,,green_square,go-1,green_square,go-1,purple_square,go-2
,1624.0,1,phase_3,,,,,,,,red_square,tracking-SSD,purple_square,go-2,red_square,tracking-SSD
,1653.0,1,phase_3,,,,,,,,blue_square,0-SSD,green_square,go-1,blue_square,0-SSD
,1649.0,1,phase_3,,,,,,,,green_square,go-1,green_square,go-1,red_square,tracking-SSD
,846.0,1,phase_3,,,,,,,,blue_square,0-SSD,blue_square,0-SSD,red_square,tracking-SSD
,1371.0,1,phase_3,,,,,,,,purple_square,go-2,purple_square,go-2,green_square,go-1
,1163.0,1,phase_3,,,,,,,,red_square,tracking-SSD,red_square,tracking-SSD,green_square,go-1
,1429.0,1,phase_3,,,,,,,,red_square,tracking-SSD,red_square,tracking-SSD,purple_square,go-2
,614.0,1,phase_3,,,,,,,,blue_square,0-SSD,red_square,tracking-SSD,blue_square,0-SSD
,657.0,1,phase_3,,,,,,,,blue_square,0-SSD,blue_square,0-SSD,green_square,go-1
,730.0,1,phase_3,,,,,,,,blue_square,0-SSD,blue_square,0-SSD,purple_square,go-2
,624.0,2,phase_3,,,,,,,,blue_square,0-SSD,green_square,go-1,blue_square,0-SSD
,1408.0,2,phase_3,,,,,,,,red_square,tracking-SSD,green_square,go-1,red_square,tracking-SSD
,648.0,2,phase_3,,,,,,,,blue_square,0-SSD,purple_square,go-2,blue_square,0-SSD
,1331.0,2,phase_3,,,,,,,,purple_square,go-2,purple_square,go-2,red_square,tracking-SSD
,707.0,2,phase_3,,,,,,,,green_square,go-1,green_square,go-1,purple_square,go-2
,546.0,2,phase_3,,,,,,,,blue_square,0-SSD,blue_square,0-SSD,red_square,tracking-SSD
,1587.0,2,phase_3,,,,,,,,red_square,tracking-SSD,red_square,tracking-SSD,blue_square,0-SSD
,1347.0,2,phase_3,,,,,,,,purple_square,go-2,blue_square,0-SSD,purple_square,go-2
,657.0,2,phase_3,,,,,,,,green_square,go-1,purple_square,go-2,green_square,go-1
,495.0,2,phase_3,,,,,,,,blue_square,0-SSD,blue_square,0-SSD,green_square,go-1
,804.0,2,phase_3,,,,,,,,red_square,tracking-SSD,red_square,tracking-SSD,green_square,go-1
,958.0,2,phase_3,,,,,,,,red_square,tracking-SSD,red_square,tracking-SSD,purple_square,go-2
,667.0,3,phase_3,,,,,,,,blue_square,0-SSD,purple_square,go-2,blue_square,0-SSD
,685.0,3,phase_3,,,,,,,,green_square,go-1,green_square,go-1,purple_square,go-2
,555.0,3,phase_3,,,,,,,,blue_square,0-SSD,green_square,go-1,blue_square,0-SSD
,698.0,3,phase_3,,,,,,,,red_square,tracking-SSD,green_square,go-1,red_square,tracking-SSD
,456.0,3,phase_3,,,,,,,,blue_square,0-SSD,blue_square,0-SSD,red_square,tracking-SSD
,1094.0,3,phase_3,,,,,,,,purple_square,go-2,purple_square,go-2,red_square,tracking-SSD
,527.0,3,phase_3,,,,,,,,green_square,go-1,red_square,tracking-SSD,green_square,go-1
,1129.0,3,phase_3,,,,,,,,purple_square,go-2,purple_square,go-2,green_square,go-1
,788.0,3,phase_3,,,,,,,,red_square,tracking-SSD,red_square,tracking-SSD,purple_square,go-2
,897.0,3,phase_3,,,,,,,,blue_square,0-SSD,blue_square,0-SSD,purple_square,go-2
,1993.0,3,phase_3,,,,,,,,blue_square,0-SSD,blue_square,0-SSD,green_square,go-1
,954.0,3,phase_3,,,,,,,,blue_square,0-SSD,red_square,tracking-SSD,blue_square,0-SSD
,612.0,4,phase_3,,,,,,,,blue_square,0-SSD,blue_square,0-SSD,red_square,tracking-SSD
,416.0,4,phase_3,,,,,,,,blue_square,0-SSD,purple_square,go-2,blue_square,0-SSD
,1098.0,4,phase_3,,,,,,,,green_square,go-1,green_square,go-1,purple_square,go-2
,1105.0,4,phase_3,,,,,,,,red_square,tracking-SSD,purple_square,go-2,red_square,tracking-SSD
,864.0,4,phase_3,,,,,,,,blue_square,0-SSD,green_square,go-1,blue_square,0-SSD
,769.0,4,phase_3,,,,,,,,green_square,go-1,green_square,go-1,red_square,tracking-SSD
,732.0,4,phase_3,,,,,,,,blue_square,0-SSD,blue_square,0-SSD,green_square,go-1
,592.0,4,phase_3,,,,,,,,blue_square,0-SSD,blue_square,0-SSD,purple_square,go-2
,408.0,4,phase_3,,,,,,,,green_square,go-1,red_square,tracking-SSD,green_square,go-1
,1956.0,4,phase_3,,,,,,,,purple_square,go-2,red_square,tracking-SSD,purple_square,go-2
,759.0,4,phase_3,,,,,,,,blue_square,0-SSD,red_square,tracking-SSD,blue_square,0-SSD
,1699.0,4,phase_3,,,,,,,,purple_square,go-2,purple_square,go-2,green_square,go-1
,826.0,5,phase_3,,,,,,,,blue_square,0-SSD,blue_square,0-SSD,red_square,tracking-SSD
,540.0,5,phase_3,,,,,,,,green_square,go-1,green_square,go-1,red_square,tracking-SSD
,536.0,5,phase_3,,,,,,,,green_square,go-1,green_square,go-1,purple_square,go-2
,645.0,5,phase_3,,,,,,,,blue_square,0-SSD,green_square,go-1,blue_square,0-SSD
,876.0,5,phase_3,,,,,,,,purple_square,go-2,purple_square,go-2,red_square,tracking-SSD
,557.0,5,phase_3,,,,,,,,blue_square,0-SSD,purple_square,go-2,blue_square,0-SSD
,609.0,5,phase_3,,,,,,,,blue_square,0-SSD,blue_square,0-SSD,purple_square,go-2
,829.0,5,phase_3,,,,,,,,red_square,tracking-SSD,red_square,tracking-SSD,purple_square,go-2
,622.0,5,phase_3,,,,,,,,green_square,go-1,red_square,tracking-SSD,green_square,go-1
,799.0,5,phase_3,,,,,,,,purple_square,go-2,purple_square,go-2,green_square,go-1
,490.0,5,phase_3,,,,,,,,blue_square,0-SSD,blue_square,0-SSD,green_square,go-1
,463.0,5,phase_3,,,,,,,,blue_square,0-SSD,red_square,tracking-SSD,blue_square,0-SSD
