response,reaction_time,block,which_phase,stim,stop_signal_trial_type,stop_signal_stimulus,SSD,SSD_type,condition,accuracy,chosen_stim,chosen_cond,stim_left,cond_left,stim_right,cond_right
1,532.0,1,phase_2,blue_triangle,go,,,,go-2,1,,,,,,
1,495.0,1,phase_2,blue_rhombus,go,,,,go-2,1,,,,,,
0,0,1,phase_2,blue_circle,stop,purple,0.0,0-SSD,go-2,4,,,,,,
2,535.0,1,phase_2,red_circle,go,,,,go-1,1,,,,,,
2,533.0,1,phase_2,red_circle,go,,,,go-1,1,,,,,,
2,485.0,1,phase_2,red_pentagon,go,,,,go-1,1,,,,,,
1,798.0,1,phase_2,red_triangle,go,,,,go-1,1,,,,,,
1,525.0,1,phase_2,blue_triangle,go,,,,go-2,1,,,,,,
1,410.0,1,phase_2,blue_triangle,go,,,,go-2,1,,,,,,
0,0,1,phase_2,red_pentagon,go,,,,go-1,2,,,,,,
0,0,1,phase_2,red_rhombus,stop,purple,0.0,0-SSD,go-1,4,,,,,,
2,469.0,1,phase_2,blue_circle,go,,,,go-2,1,,,,,,
0,0,1,phase_2,blue_rhombus,stop,purple,0.0,0-SSD,go-2,4,,,,,,
1,466.0,1,phase_2,red_rhombus,go,,,,go-1,1,,,,,,
2,496.0,1,phase_2,blue_circle,go,,,,go-2,1,,,,,,
1,538.0,1,phase_2,red_triangle,stop,green,250.0,tracking-SSD,go-1,3,,,,,,
2,592.0,1,phase_2,blue_pentagon,go,,,,go-2,1,,,,,,
1,882.0,1,phase_2,red_rhombus,go,,,,go-1,1,,,,,,
1,510.0,1,phase_2,red_triangle,go,,,,go-1,1,,,,,,
2,405.0,1,phase_2,blue_circle,stop,green,200.0,tracking-SSD,go-2,3,,,,,,
0,0,1,phase_2,red_pentagon,stop,purple,0.0,0-SSD,go-1,4,,,,,,
1,603.0,1,phase_2,red_rhombus,go,,,,go-1,1,,,,,,
1,511.0,1,phase_2,red_rhombus,go,,,,go-1,1,,,,,,
0,0,1,phase_2,red_pentagon,stop,green,150.0,tracking-SSD,go-1,4,,,,,,
0,0,1,phase_2,blue_rhombus,stop,green,200.0,tracking-SSD,go-2,4,,,,,,
1,426.0,1,phase_2,red_triangle,go,,,,go-1,1,,,,,,
0,0,1,phase_2,red_pentagon,stop,purple,0.0,0-SSD,go-1,4,,,,,,
1,545.0,1,phase_2,blue_rhombus,go,,,,go-2,1,,,,,,
2,509.0,1,phase_2,blue_circle,go,,,,go-2,1,,,,,,
2,596.0,1,phase_2,red_pentagon,go,,,,go-1,1,,,,,,
1,504.0,1,phase_2,blue_triangle,go,,,,go-2,1,,,,,,
2,805.0,1,phase_2,red_pentagon,go,,,,go-1,1,,,,,,
0,0,1,phase_2,blue_triangle,stop,green,250.0,tracking-SSD,go-2,4,,,,,,
1,745.0,1,phase_2,blue_rhombus,go,,,,go-2,1,,,,,,
0,0,1,phase_2,blue_pentagon,stop,green,300.0,tracking-SSD,go-2,4,,,,,,
1,606.0,1,phase_2,red_triangle,go,,,,go-1,1,,,,,,
0,0,1,phase_2,blue_circle,stop,purple,0.0,0-SSD,go-2,4,,,,,,
2,555.0,1,phase_2,red_pentagon,go,,,,go-1,1,,,,,,
2,475.0,1,phase_2,blue_circle,go,,,,go-2,1,,,,,,
0,0,1,phase_2,red_circle,stop,purple,0.0,0-SSD,go-1,4,,,,,,
2,481.0,1,phase_2,blue_circle,go,,,,go-2,1,,,,,,
2,422.0,1,phase_2,red_circle,go,,,,go-1,1,,,,,,
0,0,1,phase_2,red_pentagon,stop,green,350.0,tracking-SSD,go-1,4,,,,,,
0,0,1,phase_2,blue_triangle,stop,purple,0.0,0-SSD,go-2,4,,,,,,
1,549.0,1,phase_2,blue_triangle,go,,,,go-2,1,,,,,,
0,0,1,phase_2,red_rhombus,stop,green,400.0,tracking-SSD,go-1,4,,,,,,
2,613.0,1,phase_2,blue_pentagon,go,,,,go-2,1,,,,,,
1,689.0,1,phase_2,blue_rhombus,go,,,,go-2,1,,,,,,
2,926.0,2,phase_2,blue_rhombus,go,,,,go-2,2,,,,,,
0,0,2,phase_2,blue_pentagon,stop,purple,0.0,0-SSD,go-2,4,,,,,,
2,381.0,2,phase_2,red_circle,go,,,,go-1,1,,,,,,
1,434.0,2,phase_2,red_rhombus,go,,,,go-1,1,,,,,,
2,412.0,2,phase_2,red_circle,go,,,,go-1,1,,,,,,
2,387.0,2,phase_2,red_circle,stop,green,450.0,tracking-SSD,go-1,3,,,,,,
2,452.0,2,phase_2,red_circle,go,,,,go-1,1,,,,,,
1,607.0,2,phase_2,blue_rhombus,go,,,,go-2,1,,,,,,
2,459.0,2,phase_2,blue_circle,go,,,,go-2,1,,,,,,
2,582.0,2,phase_2,blue_pentagon,go,,,,go-2,1,,,,,,
2,423.0,2,phase_2,blue_pentagon,stop,green,400.0,tracking-SSD,go-2,3,,,,,,
2,533.0,2,phase_2,red_pentagon,go,,,,go-1,1,,,,,,
2,530.0,2,phase_2,blue_pentagon,go,,,,go-2,1,,,,,,
0,0,2,phase_2,red_rhombus,stop,green,350.0,tracking-SSD,go-1,4,,,,,,
1,537.0,2,phase_2,blue_triangle,go,,,,go-2,1,,,,,,
2,534.0,2,phase_2,blue_pentagon,go,,,,go-2,1,,,,,,
2,431.0,2,phase_2,red_pentagon,stop,green,400.0,tracking-SSD,go-1,3,,,,,,
2,439.0,2,phase_2,blue_circle,stop,green,350.0,tracking-SSD,go-2,3,,,,,,
2,472.0,2,phase_2,red_circle,go,,,,go-1,1,,,,,,
1,594.0,2,phase_2,blue_rhombus,go,,,,go-2,1,,,,,,
0,0,2,phase_2,blue_triangle,stop,purple,0.0,0-SSD,go-2,4,,,,,,
1,477.0,2,phase_2,red_triangle,go,,,,go-1,1,,,,,,
0,0,2,phase_2,red_triangle,stop,purple,0.0,0-SSD,go-1,4,,,,,,
2,584.0,2,phase_2,blue_rhombus,go,,,,go-2,2,,,,,,
2,604.0,2,phase_2,blue_pentagon,go,,,,go-2,1,,,,,,
2,444.0,2,phase_2,blue_circle,go,,,,go-2,1,,,,,,
1,520.0,2,phase_2,red_rhombus,go,,,,go-1,1,,,,,,
0,0,2,phase_2,red_triangle,stop,purple,0.0,0-SSD,go-1,4,,,,,,
1,537.0,2,phase_2,red_triangle,go,,,,go-1,1,,,,,,
0,0,2,phase_2,blue_circle,stop,purple,0.0,0-SSD,go-2,4,,,,,,
0,0,2,phase_2,red_circle,stop,purple,0.0,0-SSD,go-1,4,,,,,,
1,542.0,2,phase_2,red_triangle,go,,,,go-1,1,,,,,,
1,538.0,2,phase_2,red_rhombus,go,,,,go-1,1,,,,,,
1,413.0,2,phase_2,blue_triangle,go,,,,go-2,1,,,,,,
2,648.0,2,phase_2,red_pentagon,stop,green,300.0,tracking-SSD,go-1,3,,,,,,
1,690.0,2,phase_2,red_triangle,go,,,,go-1,1,,,,,,
2,486.0,2,phase_2,red_circle,go,,,,go-1,1,,,,,,
0,0,2,phase_2,red_pentagon,stop,purple,0.0,0-SSD,go-1,4,,,,,,
1,718.0,2,phase_2,blue_rhombus,go,,,,go-2,1,,,,,,
2,614.0,2,phase_2,red_pentagon,go,,,,go-1,1,,,,,,
2,409.0,2,phase_2,red_pentagon,go,,,,go-1,1,,,,,,
1,778.0,2,phase_2,blue_triangle,go,,,,go-2,1,,,,,,
1,527.0,2,phase_2,blue_triangle,go,,,,go-2,1,,,,,,
2,627.0,2,phase_2,blue_circle,stop,green,250.0,tracking-SSD,go-2,3,,,,,,
2,478.0,2,phase_2,red_rhombus,go,,,,go-1,2,,,,,,
0,0,2,phase_2,blue_rhombus,stop,purple,0.0,0-SSD,go-2,4,,,,,,
1,417.0,2,phase_2,blue_triangle,go,,,,go-2,1,,,,,,
0,0,2,phase_2,blue_rhombus,stop,green,200.0,tracking-SSD,go-2,4,,,,,,
1,521.0,3,phase_2,blue_triangle,go,,,,go-2,1,,,,,,
0,0,3,phase_2,red_triangle,stop,purple,0.0,0-SSD,go-1,4,,,,,,
0,0,3,phase_2,red_pentagon,stop,green,250.0,tracking-SSD,go-1,4,,,,,,
0,0,3,phase_2,red_pentagon,stop,purple,0.0,0-SSD,go-1,4,,,,,,
1,580.0,3,phase_2,blue_triangle,go,,,,go-2,1,,,,,,
2,499.0,3,phase_2,red_circle,go,,,,go-1,1,,,,,,
1,847.0,3,phase_2,red_rhombus,go,,,,go-1,1,,,,,,
2,507.0,3,phase_2,blue_circle,go,,,,go-2,1,,,,,,
0,0,3,phase_2,blue_circle,stop,purple,0.0,0-SSD,go-2,4,,,,,,
2,525.0,3,phase_2,blue_pentagon,go,,,,go-2,1,,,,,,
0,0,3,phase_2,blue_triangle,stop,purple,0.0,0-SSD,go-2,4,,,,,,
2,463.0,3,phase_2,blue_pentagon,go,,,,go-2,1,,,,,,
2,561.0,3,phase_2,red_pentagon,go,,,,go-1,1,,,,,,
2,503.0,3,phase_2,red_circle,go,,,,go-1,1,,,,,,
2,715.0,3,phase_2,blue_pentagon,go,,,,go-2,1,,,,,,
1,521.0,3,phase_2,red_triangle,stop,green,300.0,tracking-SSD,go-1,3,,,,,,
2,495.0,3,phase_2,blue_circle,go,,,,go-2,1,,,,,,
2,572.0,3,phase_2,red_rhombus,go,,,,go-1,2,,,,,,
0,0,3,phase_2,blue_rhombus,stop,purple,0.0,0-SSD,go-2,4,,,,,,
1,579.0,3,phase_2,blue_triangle,go,,,,go-2,1,,,,,,
2,654.0,3,phase_2,red_pentagon,go,,,,go-1,1,,,,,,
1,765.0,3,phase_2,red_rhombus,go,,,,go-1,1,,,,,,
0,0,3,phase_2,blue_pentagon,stop,green,250.0,tracking-SSD,go-2,4,,,,,,
0,0,3,phase_2,blue_triangle,stop,green,300.0,tracking-SSD,go-2,4,,,,,,
2,513.0,3,phase_2,red_circle,stop,green,350.0,tracking-SSD,go-1,3,,,,,,
2,566.0,3,phase_2,red_pentagon,go,,,,go-1,1,,,,,,
2,507.0,3,phase_2,blue_circle,go,,,,go-2,1,,,,,,
1,864.0,3,phase_2,red_rhombus,go,,,,go-1,1,,,,,,
2,470.0,3,phase_2,blue_circle,go,,,,go-2,1,,,,,,
1,671.0,3,phase_2,blue_rhombus,go,,,,go-2,1,,,,,,
0,0,3,phase_2,blue_triangle,stop,green,300.0,tracking-SSD,go-2,4,,,,,,
1,521.0,3,phase_2,red_triangle,go,,,,go-1,1,,,,,,
1,697.0,3,phase_2,blue_rhombus,go,,,,go-2,1,,,,,,
0,0,3,phase_2,blue_triangle,stop,purple,0.0,0-SSD,go-2,4,,,,,,
0,0,3,phase_2,red_circle,stop,purple,0.0,0-SSD,go-1,4,,,,,,
1,614.0,3,phase_2,blue_rhombus,go,,,,go-2,1,,,,,,
2,712.0,3,phase_2,blue_pentagon,go,,,,go-2,1,,,,,,
2,428.0,3,phase_2,red_circle,stop,green,350.0,tracking-SSD,go-1,3,,,,,,
2,551.0,3,phase_2,red_circle,go,,,,go-1,1,,,,,,
2,469.0,3,phase_2,red_circle,go,,,,go-1,1,,,,,,
1,647.0,3,phase_2,red_triangle,go,,,,go-1,1,,,,,,
1,565.0,3,phase_2,red_rhombus,go,,,,go-1,1,,,,,,
2,709.0,3,phase_2,blue_pentagon,go,,,,go-2,1,,,,,,
1,763.0,3,phase_2,red_rhombus,go,,,,go-1,1,,,,,,
0,0,3,phase_2,red_pentagon,stop,purple,0.0,0-SSD,go-1,4,,,,,,
0,0,3,phase_2,blue_rhombus,stop,green,300.0,tracking-SSD,go-2,4,,,,,,
1,541.0,3,phase_2,red_rhombus,go,,,,go-1,1,,,,,,
1,583.0,3,phase_2,blue_triangle,go,,,,go-2,1,,,,,,
0,0,4,phase_2,blue_circle,stop,purple,0.0,0-SSD,go-2,4,,,,,,
0,0,4,phase_2,red_triangle,stop,purple,0.0,0-SSD,go-1,4,,,,,,
1,471.0,4,phase_2,red_rhombus,go,,,,go-1,1,,,,,,
1,457.0,4,phase_2,blue_triangle,stop,green,350.0,tracking-SSD,go-2,3,,,,,,
2,432.0,4,phase_2,blue_circle,go,,,,go-2,1,,,,,,
2,419.0,4,phase_2,red_pentagon,go,,,,go-1,1,,,,,,
0,0,4,phase_2,blue_rhombus,stop,green,300.0,tracking-SSD,go-2,4,,,,,,
0,0,4,phase_2,red_pentagon,stop,green,350.0,tracking-SSD,go-1,4,,,,,,
2,422.0,4,phase_2,blue_pentagon,go,,,,go-2,1,,,,,,
2,388.0,4,phase_2,red_rhombus,go,,,,go-1,2,,,,,,
1,632.0,4,phase_2,blue_rhombus,go,,,,go-2,1,,,,,,
1,539.0,4,phase_2,blue_triangle,go,,,,go-2,1,,,,,,
1,594.0,4,phase_2,red_pentagon,go,,,,go-1,2,,,,,,
1,501.0,4,phase_2,red_triangle,stop,green,400.0,tracking-SSD,go-1,3,,,,,,
1,477.0,4,phase_2,blue_triangle,go,,,,go-2,1,,,,,,
2,440.0,4,phase_2,red_circle,go,,,,go-1,1,,,,,,
1,483.0,4,phase_2,blue_triangle,go,,,,go-2,1,,,,,,
1,448.0,4,phase_2,red_rhombus,stop,green,350.0,tracking-SSD,go-1,3,,,,,,
1,570.0,4,phase_2,red_triangle,go,,,,go-1,1,,,,,,
2,489.0,4,phase_2,blue_circle,go,,,,go-2,1,,,,,,
2,385.0,4,phase_2,blue_circle,go,,,,go-2,1,,,,,,
0,0,4,phase_2,blue_triangle,stop,purple,0.0,0-SSD,go-2,4,,,,,,
1,527.0,4,phase_2,red_triangle,go,,,,go-1,1,,,,,,
2,616.0,4,phase_2,blue_pentagon,go,,,,go-2,1,,,,,,
2,503.0,4,phase_2,red_circle,go,,,,go-1,1,,,,,,
0,0,4,phase_2,red_pentagon,stop,purple,0.0,0-SSD,go-1,4,,,,,,
1,418.0,4,phase_2,red_triangle,stop,green,300.0,tracking-SSD,go-1,3,,,,,,
2,518.0,4,phase_2,blue_circle,go,,,,go-2,1,,,,,,
1,448.0,4,phase_2,red_rhombus,go,,,,go-1,1,,,,,,
2,751.0,4,phase_2,blue_pentagon,go,,,,go-2,1,,,,,,
2,376.0,4,phase_2,red_pentagon,go,,,,go-1,1,,,,,,
2,363.0,4,phase_2,red_pentagon,go,,,,go-1,1,,,,,,
0,0,4,phase_2,red_rhombus,stop,purple,0.0,0-SSD,go-1,4,,,,,,
1,381.0,4,phase_2,blue_triangle,go,,,,go-2,1,,,,,,
0,0,4,phase_2,blue_rhombus,stop,green,250.0,tracking-SSD,go-2,4,,,,,,
2,480.0,4,phase_2,blue_circle,go,,,,go-2,1,,,,,,
0,0,4,phase_2,blue_circle,stop,purple,0.0,0-SSD,go-2,4,,,,,,
0,0,4,phase_2,blue_rhombus,go,,,,go-2,2,,,,,,
2,528.0,4,phase_2,blue_pentagon,go,,,,go-2,1,,,,,,
2,424.0,4,phase_2,red_circle,go,,,,go-1,1,,,,,,
1,411.0,4,phase_2,red_rhombus,go,,,,go-1,1,,,,,,
0,0,4,phase_2,red_pentagon,stop,purple,0.0,0-SSD,go-1,4,,,,,,
2,439.0,4,phase_2,red_circle,go,,,,go-1,1,,,,,,
0,0,4,phase_2,blue_pentagon,stop,purple,0.0,0-SSD,go-2,4,,,,,,
1,490.0,4,phase_2,red_rhombus,go,,,,go-1,1,,,,,,
1,422.0,4,phase_2,red_triangle,go,,,,go-1,1,,,,,,
2,474.0,4,phase_2,blue_circle,stop,green,300.0,tracking-SSD,go-2,3,,,,,,
1,528.0,4,phase_2,blue_rhombus,go,,,,go-2,1,,,,,,
2,544.0,5,phase_2,red_pentagon,go,,,,go-1,1,,,,,,
2,372.0,5,phase_2,red_rhombus,go,,,,go-1,2,,,,,,
0,0,5,phase_2,red_circle,stop,purple,0.0,0-SSD,go-1,4,,,,,,
1,423.0,5,phase_2,red_rhombus,go,,,,go-1,1,,,,,,
2,602.0,5,phase_2,blue_pentagon,go,,,,go-2,1,,,,,,
2,373.0,5,phase_2,blue_rhombus,go,,,,go-2,2,,,,,,
2,427.0,5,phase_2,red_pentagon,go,,,,go-1,1,,,,,,
2,571.0,5,phase_2,blue_circle,stop,green,250.0,tracking-SSD,go-2,3,,,,,,
1,501.0,5,phase_2,red_rhombus,go,,,,go-1,1,,,,,,
1,444.0,5,phase_2,red_rhombus,go,,,,go-1,1,,,,,,
2,453.0,5,phase_2,red_circle,go,,,,go-1,1,,,,,,
2,416.0,5,phase_2,red_circle,go,,,,go-1,1,,,,,,
0,0,5,phase_2,blue_rhombus,stop,purple,0.0,0-SSD,go-2,4,,,,,,
2,536.0,5,phase_2,blue_circle,go,,,,go-2,1,,,,,,
1,513.0,5,phase_2,blue_triangle,go,,,,go-2,1,,,,,,
0,0,5,phase_2,red_rhombus,stop,purple,0.0,0-SSD,go-1,4,,,,,,
1,531.0,5,phase_2,blue_triangle,go,,,,go-2,1,,,,,,
2,642.0,5,phase_2,blue_pentagon,go,,,,go-2,1,,,,,,
1,584.0,5,phase_2,red_triangle,stop,green,200.0,tracking-SSD,go-1,3,,,,,,
0,0,5,phase_2,red_pentagon,stop,green,150.0,tracking-SSD,go-1,4,,,,,,
2,422.0,5,phase_2,red_circle,go,,,,go-1,1,,,,,,
2,520.0,5,phase_2,red_circle,go,,,,go-1,1,,,,,,
1,439.0,5,phase_2,blue_triangle,stop,green,200.0,tracking-SSD,go-2,3,,,,,,
1,426.0,5,phase_2,blue_triangle,go,,,,go-2,1,,,,,,
0,0,5,phase_2,blue_circle,stop,green,150.0,tracking-SSD,go-2,4,,,,,,
1,782.0,5,phase_2,red_triangle,go,,,,go-1,1,,,,,,
0,0,5,phase_2,blue_rhombus,stop,purple,0.0,0-SSD,go-2,4,,,,,,
2,516.0,5,phase_2,blue_circle,go,,,,go-2,1,,,,,,
2,571.0,5,phase_2,blue_pentagon,go,,,,go-2,1,,,,,,
1,546.0,5,phase_2,red_triangle,go,,,,go-1,1,,,,,,
0,0,5,phase_2,blue_triangle,stop,purple,0.0,0-SSD,go-2,4,,,,,,
1,473.0,5,phase_2,blue_triangle,go,,,,go-2,1,,,,,,
2,416.0,5,phase_2,blue_pentagon,go,,,,go-2,1,,,,,,
2,436.0,5,phase_2,blue_circle,go,,,,go-2,1,,,,,,
0,0,5,phase_2,blue_pentagon,stop,purple,0.0,0-SSD,go-2,4,,,,,,
0,0,5,phase_2,red_rhombus,stop,purple,0.0,0-SSD,go-1,4,,,,,,
1,465.0,5,phase_2,red_triangle,go,,,,go-1,1,,,,,,
2,371.0,5,phase_2,blue_circle,go,,,,go-2,1,,,,,,
2,413.0,5,phase_2,red_pentagon,go,,,,go-1,1,,,,,,
1,411.0,5,phase_2,red_rhombus,stop,green,200.0,tracking-SSD,go-1,3,,,,,,
2,555.0,5,phase_2,red_circle,go,,,,go-1,1,,,,,,
0,0,5,phase_2,red_rhombus,stop,green,150.0,tracking-SSD,go-1,4,,,,,,
2,618.0,5,phase_2,blue_pentagon,go,,,,go-2,1,,,,,,
1,390.0,5,phase_2,red_triangle,go,,,,go-1,1,,,,,,
0,0,5,phase_2,blue_rhombus,stop,green,200.0,tracking-SSD,go-2,4,,,,,,
0,0,5,phase_2,red_pentagon,stop,purple,0.0,0-SSD,go-1,4,,,,,,
2,495.0,5,phase_2,blue_pentagon,go,,,,go-2,1,,,,,,
1,471.0,5,phase_2,blue_triangle,go,,,,go-2,1,,,,,,
0,0,6,phase_2,red_pentagon,stop,green,250.0,tracking-SSD,go-1,4,,,,,,
2,397.0,6,phase_2,blue_triangle,stop,green,300.0,tracking-SSD,go-2,3,,,,,,
2,395.0,6,phase_2,blue_pentagon,go,,,,go-2,1,,,,,,
2,437.0,6,phase_2,blue_pentagon,stop,green,250.0,tracking-SSD,go-2,3,,,,,,
2,739.0,6,phase_2,red_circle,go,,,,go-1,1,,,,,,
0,0,6,phase_2,red_rhombus,stop,green,200.0,tracking-SSD,go-1,4,,,,,,
0,0,6,phase_2,red_pentagon,stop,purple,0.0,0-SSD,go-1,4,,,,,,
1,585.0,6,phase_2,red_triangle,go,,,,go-1,1,,,,,,
2,526.0,6,phase_2,blue_circle,go,,,,go-2,1,,,,,,
2,411.0,6,phase_2,red_circle,go,,,,go-1,1,,,,,,
1,668.0,6,phase_2,blue_rhombus,go,,,,go-2,1,,,,,,
1,586.0,6,phase_2,blue_rhombus,go,,,,go-2,1,,,,,,
2,426.0,6,phase_2,red_circle,go,,,,go-1,1,,,,,,
1,423.0,6,phase_2,blue_triangle,go,,,,go-2,1,,,,,,
1,488.0,6,phase_2,blue_rhombus,go,,,,go-2,1,,,,,,
0,0,6,phase_2,red_triangle,stop,purple,0.0,0-SSD,go-1,4,,,,,,
2,643.0,6,phase_2,red_rhombus,go,,,,go-1,2,,,,,,
0,0,6,phase_2,blue_triangle,stop,purple,0.0,0-SSD,go-2,4,,,,,,
2,560.0,6,phase_2,red_pentagon,go,,,,go-1,1,,,,,,
2,624.0,6,phase_2,blue_circle,go,,,,go-2,1,,,,,,
0,0,6,phase_2,red_pentagon,stop,purple,0.0,0-SSD,go-1,4,,,,,,
2,474.0,6,phase_2,blue_pentagon,go,,,,go-2,1,,,,,,
1,460.0,6,phase_2,blue_triangle,stop,green,250.0,tracking-SSD,go-2,3,,,,,,
1,795.0,6,phase_2,blue_rhombus,go,,,,go-2,1,,,,,,
0,0,6,phase_2,blue_circle,stop,purple,0.0,0-SSD,go-2,4,,,,,,
2,633.0,6,phase_2,blue_pentagon,go,,,,go-2,1,,,,,,
1,844.0,6,phase_2,red_rhombus,go,,,,go-1,1,,,,,,
1,427.0,6,phase_2,red_rhombus,go,,,,go-1,1,,,,,,
2,357.0,6,phase_2,blue_circle,go,,,,go-2,1,,,,,,
1,445.0,6,phase_2,blue_triangle,go,,,,go-2,1,,,,,,
2,959.0,6,phase_2,blue_circle,go,,,,go-2,1,,,,,,
0,0,6,phase_2,blue_rhombus,stop,purple,0.0,0-SSD,go-2,4,,,,,,
1,470.0,6,phase_2,red_rhombus,stop,green,200.0,tracking-SSD,go-1,3,,,,,,
2,582.0,6,phase_2,red_pentagon,go,,,,go-1,1,,,,,,
1,499.0,6,phase_2,red_triangle,go,,,,go-1,1,,,,,,
1,463.0,6,phase_2,blue_triangle,go,,,,go-2,1,,,,,,
1,505.0,6,phase_2,red_rhombus,go,,,,go-1,1,,,,,,
2,412.0,6,phase_2,red_pentagon,go,,,,go-1,1,,,,,,
1,523.0,6,phase_2,red_triangle,go,,,,go-1,1,,,,,,
0,0,6,phase_2,red_pentagon,stop,purple,0.0,0-SSD,go-1,4,,,,,,
1,731.0,6,phase_2,red_triangle,go,,,,go-1,1,,,,,,
2,470.0,6,phase_2,blue_circle,go,,,,go-2,1,,,,,,
2,445.0,6,phase_2,red_circle,stop,green,150.0,tracking-SSD,go-1,3,,,,,,
0,0,6,phase_2,blue_circle,stop,green,100.0,tracking-SSD,go-2,4,,,,,,
0,0,6,phase_2,blue_pentagon,stop,purple,0.0,0-SSD,go-2,4,,,,,,
1,562.0,6,phase_2,red_rhombus,go,,,,go-1,1,,,,,,
1,502.0,6,phase_2,blue_triangle,go,,,,go-2,1,,,,,,
2,544.0,6,phase_2,red_circle,go,,,,go-1,1,,,,,,
2,398.0,7,phase_2,blue_pentagon,go,,,,go-2,1,,,,,,
0,0,7,phase_2,red_circle,stop,green,150.0,tracking-SSD,go-1,4,,,,,,
1,528.0,7,phase_2,blue_rhombus,go,,,,go-2,1,,,,,,
2,480.0,7,phase_2,blue_pentagon,go,,,,go-2,1,,,,,,
0,0,7,phase_2,blue_circle,stop,purple,0.0,0-SSD,go-2,4,,,,,,
1,544.0,7,phase_2,red_rhombus,go,,,,go-1,1,,,,,,
1,541.0,7,phase_2,blue_triangle,go,,,,go-2,1,,,,,,
0,0,7,phase_2,red_pentagon,stop,purple,0.0,0-SSD,go-1,4,,,,,,
2,436.0,7,phase_2,blue_triangle,go,,,,go-2,2,,,,,,
1,502.0,7,phase_2,blue_rhombus,stop,green,200.0,tracking-SSD,go-2,3,,,,,,
0,0,7,phase_2,blue_triangle,stop,purple,0.0,0-SSD,go-2,4,,,,,,
0,0,7,phase_2,red_circle,stop,purple,0.0,0-SSD,go-1,4,,,,,,
2,404.0,7,phase_2,blue_circle,stop,green,150.0,tracking-SSD,go-2,3,,,,,,
2,492.0,7,phase_2,red_pentagon,go,,,,go-1,1,,,,,,
2,422.0,7,phase_2,blue_pentagon,go,,,,go-2,1,,,,,,
2,475.0,7,phase_2,blue_circle,go,,,,go-2,1,,,,,,
0,0,7,phase_2,blue_circle,stop,green,100.0,tracking-SSD,go-2,4,,,,,,
1,494.0,7,phase_2,red_triangle,go,,,,go-1,1,,,,,,
0,0,7,phase_2,red_circle,stop,green,150.0,tracking-SSD,go-1,4,,,,,,
2,487.0,7,phase_2,red_pentagon,go,,,,go-1,1,,,,,,
1,698.0,7,phase_2,blue_rhombus,go,,,,go-2,1,,,,,,
2,551.0,7,phase_2,blue_pentagon,go,,,,go-2,1,,,,,,
1,391.0,7,phase_2,red_triangle,go,,,,go-1,1,,,,,,
1,534.0,7,phase_2,blue_rhombus,go,,,,go-2,1,,,,,,
0,0,7,phase_2,red_triangle,stop,green,200.0,tracking-SSD,go-1,4,,,,,,
2,507.0,7,phase_2,blue_circle,go,,,,go-2,1,,,,,,
1,549.0,7,phase_2,blue_pentagon,go,,,,go-2,2,,,,,,
1,480.0,7,phase_2,red_triangle,go,,,,go-1,1,,,,,,
0,0,7,phase_2,red_circle,stop,purple,0.0,0-SSD,go-1,4,,,,,,
2,431.0,7,phase_2,blue_circle,go,,,,go-2,1,,,,,,
1,789.0,7,phase_2,red_triangle,go,,,,go-1,1,,,,,,
1,516.0,7,phase_2,red_rhombus,go,,,,go-1,1,,,,,,
2,840.0,7,phase_2,red_pentagon,go,,,,go-1,1,,,,,,
2,591.0,7,phase_2,red_circle,go,,,,go-1,1,,,,,,
1,455.0,7,phase_2,red_triangle,stop,green,250.0,tracking-SSD,go-1,3,,,,,,
0,0,7,phase_2,blue_rhombus,stop,purple,0.0,0-SSD,go-2,4,,,,,,
0,0,7,phase_2,blue_pentagon,stop,purple,0.0,0-SSD,go-2,4,,,,,,
0,0,7,phase_2,blue_rhombus,stop,green,200.0,tracking-SSD,go-2,4,,,,,,
2,469.0,7,phase_2,blue_pentagon,go,,,,go-2,1,,,,,,
1,646.0,7,phase_2,red_rhombus,go,,,,go-1,1,,,,,,
2,395.0,7,phase_2,red_circle,go,,,,go-1,1,,,,,,
1,730.0,7,phase_2,red_rhombus,go,,,,go-1,1,,,,,,
1,738.0,7,phase_2,red_rhombus,go,,,,go-1,1,,,,,,
1,793.0,7,phase_2,blue_triangle,go,,,,go-2,1,,,,,,
1,385.0,7,phase_2,blue_triangle,go,,,,go-2,1,,,,,,
2,462.0,7,phase_2,red_pentagon,go,,,,go-1,1,,,,,,
2,471.0,7,phase_2,red_triangle,go,,,,go-1,2,,,,,,
0,0,7,phase_2,red_rhombus,stop,purple,0.0,0-SSD,go-1,4,,,,,,
1,397.0,8,phase_2,red_triangle,go,,,,go-1,1,,,,,,
1,407.0,8,phase_2,blue_triangle,go,,,,go-2,1,,,,,,
1,393.0,8,phase_2,red_triangle,go,,,,go-1,1,,,,,,
2,391.0,8,phase_2,red_circle,go,,,,go-1,1,,,,,,
1,536.0,8,phase_2,red_triangle,go,,,,go-1,1,,,,,,
0,0,8,phase_2,blue_rhombus,stop,purple,0.0,0-SSD,go-2,4,,,,,,
0,0,8,phase_2,blue_rhombus,stop,green,250.0,tracking-SSD,go-2,4,,,,,,
2,528.0,8,phase_2,blue_circle,go,,,,go-2,1,,,,,,
0,0,8,phase_2,red_circle,stop,purple,0.0,0-SSD,go-1,4,,,,,,
0,0,8,phase_2,blue_rhombus,stop,purple,0.0,0-SSD,go-2,4,,,,,,
1,466.0,8,phase_2,blue_rhombus,go,,,,go-2,1,,,,,,
1,463.0,8,phase_2,blue_triangle,go,,,,go-2,1,,,,,,
2,697.0,8,phase_2,blue_pentagon,go,,,,go-2,1,,,,,,
2,413.0,8,phase_2,red_pentagon,go,,,,go-1,1,,,,,,
1,444.0,8,phase_2,red_triangle,go,,,,go-1,1,,,,,,
2,453.0,8,phase_2,blue_rhombus,go,,,,go-2,2,,,,,,
2,439.0,8,phase_2,red_pentagon,go,,,,go-1,1,,,,,,
2,470.0,8,phase_2,red_circle,go,,,,go-1,1,,,,,,
2,434.0,8,phase_2,red_pentagon,go,,,,go-1,1,,,,,,
2,589.0,8,phase_2,red_rhombus,go,,,,go-1,2,,,,,,
2,452.0,8,phase_2,blue_circle,go,,,,go-2,1,,,,,,
1,449.0,8,phase_2,red_triangle,stop,green,300.0,tracking-SSD,go-1,3,,,,,,
0,0,8,phase_2,red_pentagon,stop,purple,0.0,0-SSD,go-1,4,,,,,,
1,514.0,8,phase_2,red_triangle,go,,,,go-1,1,,,,,,
1,523.0,8,phase_2,blue_rhombus,go,,,,go-2,1,,,,,,
1,667.0,8,phase_2,blue_rhombus,go,,,,go-2,1,,,,,,
2,675.0,8,phase_2,red_pentagon,go,,,,go-1,1,,,,,,
1,527.0,8,phase_2,red_triangle,stop,green,250.0,tracking-SSD,go-1,3,,,,,,
0,0,8,phase_2,blue_triangle,stop,purple,0.0,0-SSD,go-2,4,,,,,,
0,0,8,phase_2,blue_pentagon,stop,purple,0.0,0-SSD,go-2,4,,,,,,
0,0,8,phase_2,blue_pentagon,stop,green,200.0,tracking-SSD,go-2,4,,,,,,
2,621.0,8,phase_2,blue_triangle,go,,,,go-2,2,,,,,,
2,405.0,8,phase_2,blue_circle,go,,,,go-2,1,,,,,,
1,457.0,8,phase_2,blue_rhombus,go,,,,go-2,1,,,,,,
1,455.0,8,phase_2,red_triangle,stop,green,250.0,tracking-SSD,go-1,3,,,,,,
2,419.0,8,phase_2,blue_pentagon,go,,,,go-2,1,,,,,,
2,529.0,8,phase_2,red_circle,go,,,,go-1,1,,,,,,
2,381.0,8,phase_2,red_circle,go,,,,go-1,1,,,,,,
2,356.0,8,phase_2,red_circle,go,,,,go-1,1,,,,,,
0,0,8,phase_2,red_pentagon,stop,purple,0.0,0-SSD,go-1,4,,,,,,
2,418.0,8,phase_2,red_circle,go,,,,go-1,1,,,,,,
0,0,8,phase_2,red_rhombus,stop,purple,0.0,0-SSD,go-1,4,,,,,,
0,0,8,phase_2,red_pentagon,stop,green,200.0,tracking-SSD,go-1,4,,,,,,
1,749.0,8,phase_2,blue_rhombus,go,,,,go-2,1,,,,,,
2,454.0,8,phase_2,blue_circle,go,,,,go-2,1,,,,,,
2,394.0,8,phase_2,blue_circle,stop,green,250.0,tracking-SSD,go-2,3,,,,,,
0,0,8,phase_2,blue_rhombus,stop,green,200.0,tracking-SSD,go-2,4,,,,,,
2,456.0,8,phase_2,blue_pentagon,go,,,,go-2,1,,,,,,
2,421.0,9,phase_2,blue_circle,go,,,,go-2,1,,,,,,
1,441.0,9,phase_2,blue_pentagon,stop,green,250.0,tracking-SSD,go-2,3,,,,,,
0,0,9,phase_2,blue_pentagon,stop,purple,0.0,0-SSD,go-2,4,,,,,,
2,436.0,9,phase_2,blue_circle,go,,,,go-2,1,,,,,,
2,524.0,9,phase_2,blue_rhombus,go,,,,go-2,2,,,,,,
1,498.0,9,phase_2,blue_rhombus,go,,,,go-2,1,,,,,,
1,778.0,9,phase_2,red_rhombus,go,,,,go-1,1,,,,,,
2,595.0,9,phase_2,blue_circle,go,,,,go-2,1,,,,,,
1,491.0,9,phase_2,blue_triangle,go,,,,go-2,1,,,,,,
1,421.0,9,phase_2,red_triangle,go,,,,go-1,1,,,,,,
0,0,9,phase_2,blue_pentagon,stop,purple,0.0,0-SSD,go-2,4,,,,,,
0,0,9,phase_2,blue_triangle,stop,purple,0.0,0-SSD,go-2,4,,,,,,
1,627.0,9,phase_2,red_rhombus,go,,,,go-1,1,,,,,,
1,647.0,9,phase_2,red_rhombus,go,,,,go-1,1,,,,,,
1,454.0,9,phase_2,red_rhombus,go,,,,go-1,1,,,,,,
2,732.0,9,phase_2,blue_pentagon,go,,,,go-2,1,,,,,,
2,392.0,9,phase_2,red_circle,go,,,,go-1,1,,,,,,
2,345.0,9,phase_2,red_circle,go,,,,go-1,1,,,,,,
2,331.0,9,phase_2,red_circle,go,,,,go-1,1,,,,,,
0,0,9,phase_2,red_pentagon,stop,green,200.0,tracking-SSD,go-1,4,,,,,,
0,0,9,phase_2,blue_rhombus,stop,green,250.0,tracking-SSD,go-2,4,,,,,,
1,447.0,9,phase_2,red_triangle,stop,green,300.0,tracking-SSD,go-1,3,,,,,,
2,591.0,9,phase_2,blue_pentagon,go,,,,go-2,1,,,,,,
1,566.0,9,phase_2,red_rhombus,go,,,,go-1,1,,,,,,
2,417.0,9,phase_2,blue_triangle,go,,,,go-2,2,,,,,,
0,0,9,phase_2,blue_rhombus,stop,purple,0.0,0-SSD,go-2,4,,,,,,
2,457.0,9,phase_2,blue_pentagon,go,,,,go-2,1,,,,,,
1,555.0,9,phase_2,blue_triangle,go,,,,go-2,1,,,,,,
2,464.0,9,phase_2,blue_circle,stop,green,250.0,tracking-SSD,go-2,3,,,,,,
1,596.0,9,phase_2,red_triangle,go,,,,go-1,1,,,,,,
2,132.0,9,phase_2,red_pentagon,go,,,,go-1,1,,,,,,
0,0,9,phase_2,red_pentagon,stop,purple,0.0,0-SSD,go-1,4,,,,,,
2,443.0,9,phase_2,red_circle,go,,,,go-1,1,,,,,,
2,429.0,9,phase_2,blue_circle,stop,green,200.0,tracking-SSD,go-2,3,,,,,,
0,0,9,phase_2,red_triangle,stop,green,150.0,tracking-SSD,go-1,4,,,,,,
2,548.0,9,phase_2,blue_pentagon,go,,,,go-2,1,,,,,,
2,557.0,9,phase_2,red_circle,go,,,,go-1,1,,,,,,
0,0,9,phase_2,red_triangle,stop,purple,0.0,0-SSD,go-1,4,,,,,,
1,450.0,9,phase_2,red_triangle,go,,,,go-1,1,,,,,,
0,0,9,phase_2,red_pentagon,stop,purple,0.0,0-SSD,go-1,4,,,,,,
0,0,9,phase_2,red_rhombus,stop,green,200.0,tracking-SSD,go-1,4,,,,,,
1,489.0,9,phase_2,blue_triangle,go,,,,go-2,1,,,,,,
2,351.0,9,phase_2,red_circle,go,,,,go-1,1,,,,,,
0,0,9,phase_2,red_rhombus,stop,purple,0.0,0-SSD,go-1,4,,,,,,
2,538.0,9,phase_2,red_rhombus,go,,,,go-1,2,,,,,,
2,434.0,9,phase_2,blue_circle,go,,,,go-2,1,,,,,,
2,477.0,9,phase_2,blue_pentagon,go,,,,go-2,1,,,,,,
1,462.0,9,phase_2,blue_triangle,go,,,,go-2,1,,,,,,
2,411.0,10,phase_2,red_circle,go,,,,go-1,1,,,,,,
1,374.0,10,phase_2,red_pentagon,go,,,,go-1,2,,,,,,
1,461.0,10,phase_2,red_triangle,stop,green,250.0,tracking-SSD,go-1,3,,,,,,
1,571.0,10,phase_2,blue_rhombus,go,,,,go-2,1,,,,,,
2,355.0,10,phase_2,red_circle,stop,green,200.0,tracking-SSD,go-1,3,,,,,,
2,488.0,10,phase_2,blue_pentagon,go,,,,go-2,1,,,,,,
2,598.0,10,phase_2,blue_rhombus,go,,,,go-2,2,,,,,,
2,527.0,10,phase_2,red_triangle,go,,,,go-1,2,,,,,,
1,693.0,10,phase_2,blue_triangle,go,,,,go-2,1,,,,,,
1,545.0,10,phase_2,blue_triangle,go,,,,go-2,1,,,,,,
1,691.0,10,phase_2,red_rhombus,go,,,,go-1,1,,,,,,
0,0,10,phase_2,red_triangle,stop,purple,0.0,0-SSD,go-1,4,,,,,,
2,664.0,10,phase_2,red_pentagon,go,,,,go-1,1,,,,,,
1,786.0,10,phase_2,blue_rhombus,go,,,,go-2,1,,,,,,
0,0,10,phase_2,red_rhombus,stop,purple,0.0,0-SSD,go-1,4,,,,,,
2,556.0,10,phase_2,red_pentagon,go,,,,go-1,1,,,,,,
1,575.0,10,phase_2,blue_rhombus,go,,,,go-2,1,,,,,,
0,0,10,phase_2,red_circle,stop,green,150.0,tracking-SSD,go-1,4,,,,,,
0,0,10,phase_2,blue_circle,stop,purple,0.0,0-SSD,go-2,4,,,,,,
0,0,10,phase_2,blue_rhombus,go,,,,go-2,2,,,,,,
1,487.0,10,phase_2,red_triangle,go,,,,go-1,1,,,,,,
2,461.0,10,phase_2,blue_circle,go,,,,go-2,1,,,,,,
0,0,10,phase_2,blue_rhombus,stop,green,200.0,tracking-SSD,go-2,4,,,,,,
1,761.0,10,phase_2,red_rhombus,go,,,,go-1,1,,,,,,
2,544.0,10,phase_2,blue_pentagon,go,,,,go-2,1,,,,,,
2,418.0,10,phase_2,blue_circle,stop,green,250.0,tracking-SSD,go-2,3,,,,,,
2,550.0,10,phase_2,red_pentagon,go,,,,go-1,1,,,,,,
0,0,10,phase_2,blue_circle,stop,purple,0.0,0-SSD,go-2,4,,,,,,
0,0,10,phase_2,blue_circle,stop,purple,0.0,0-SSD,go-2,4,,,,,,
1,453.0,10,phase_2,blue_rhombus,go,,,,go-2,1,,,,,,
0,0,10,phase_2,red_pentagon,stop,purple,0.0,0-SSD,go-1,4,,,,,,
0,0,10,phase_2,blue_circle,stop,green,200.0,tracking-SSD,go-2,4,,,,,,
0,0,10,phase_2,red_triangle,go,,,,go-1,2,,,,,,
0,0,10,phase_2,blue_circle,stop,green,250.0,tracking-SSD,go-2,4,,,,,,
1,518.0,10,phase_2,blue_triangle,go,,,,go-2,1,,,,,,
1,448.0,10,phase_2,blue_triangle,go,,,,go-2,1,,,,,,
2,513.0,10,phase_2,blue_pentagon,go,,,,go-2,1,,,,,,
2,376.0,10,phase_2,red_pentagon,stop,green,300.0,tracking-SSD,go-1,3,,,,,,
1,564.0,10,phase_2,red_triangle,go,,,,go-1,1,,,,,,
2,450.0,10,phase_2,red_pentagon,go,,,,go-1,1,,,,,,
0,0,10,phase_2,blue_triangle,stop,purple,0.0,0-SSD,go-2,4,,,,,,
2,547.0,10,phase_2,blue_circle,go,,,,go-2,1,,,,,,
1,465.0,10,phase_2,red_rhombus,go,,,,go-1,1,,,,,,
0,0,10,phase_2,red_circle,stop,purple,0.0,0-SSD,go-1,4,,,,,,
1,551.0,10,phase_2,red_triangle,go,,,,go-1,1,,,,,,
2,537.0,10,phase_2,red_pentagon,go,,,,go-1,1,,,,,,
1,635.0,10,phase_2,red_rhombus,go,,,,go-1,1,,,,,,
2,419.0,10,phase_2,blue_pentagon,go,,,,go-2,1,,,,,,
0,0,11,phase_2,blue_rhombus,stop,purple,0.0,0-SSD,go-2,4,,,,,,
1,473.0,11,phase_2,red_rhombus,stop,green,250.0,tracking-SSD,go-1,3,,,,,,
0,0,11,phase_2,red_circle,stop,purple,0.0,0-SSD,go-1,4,,,,,,
1,559.0,11,phase_2,blue_rhombus,go,,,,go-2,1,,,,,,
0,0,11,phase_2,red_rhombus,stop,green,200.0,tracking-SSD,go-1,4,,,,,,
1,475.0,11,phase_2,blue_rhombus,go,,,,go-2,1,,,,,,
0,0,11,phase_2,blue_triangle,stop,purple,0.0,0-SSD,go-2,4,,,,,,
1,560.0,11,phase_2,blue_rhombus,go,,,,go-2,1,,,,,,
2,467.0,11,phase_2,red_pentagon,stop,green,250.0,tracking-SSD,go-1,3,,,,,,
2,408.0,11,phase_2,red_circle,go,,,,go-1,1,,,,,,
1,610.0,11,phase_2,blue_rhombus,go,,,,go-2,1,,,,,,
2,460.0,11,phase_2,red_circle,go,,,,go-1,1,,,,,,
2,457.0,11,phase_2,blue_pentagon,go,,,,go-2,1,,,,,,
1,421.0,11,phase_2,red_triangle,go,,,,go-1,1,,,,,,
1,474.0,11,phase_2,red_triangle,go,,,,go-1,1,,,,,,
2,405.0,11,phase_2,blue_pentagon,go,,,,go-2,1,,,,,,
2,345.0,11,phase_2,red_circle,go,,,,go-1,1,,,,,,
1,411.0,11,phase_2,red_triangle,go,,,,go-1,1,,,,,,
0,0,11,phase_2,red_rhombus,stop,purple,0.0,0-SSD,go-1,4,,,,,,
2,462.0,11,phase_2,blue_circle,stop,green,200.0,tracking-SSD,go-2,3,,,,,,
1,561.0,11,phase_2,blue_triangle,go,,,,go-2,1,,,,,,
0,0,11,phase_2,blue_rhombus,stop,purple,0.0,0-SSD,go-2,4,,,,,,
1,567.0,11,phase_2,red_triangle,go,,,,go-1,1,,,,,,
0,0,11,phase_2,blue_triangle,stop,purple,0.0,0-SSD,go-2,4,,,,,,
2,821.0,11,phase_2,blue_pentagon,go,,,,go-2,1,,,,,,
1,539.0,11,phase_2,red_triangle,go,,,,go-1,1,,,,,,
2,424.0,11,phase_2,red_pentagon,go,,,,go-1,1,,,,,,
1,411.0,11,phase_2,blue_triangle,go,,,,go-2,1,,,,,,
2,408.0,11,phase_2,red_pentagon,go,,,,go-1,1,,,,,,
1,383.0,11,phase_2,red_triangle,go,,,,go-1,1,,,,,,
2,416.0,11,phase_2,blue_circle,go,,,,go-2,1,,,,,,
0,0,11,phase_2,red_rhombus,stop,purple,0.0,0-SSD,go-1,4,,,,,,
0,0,11,phase_2,red_triangle,go,,,,go-1,2,,,,,,
0,0,11,phase_2,red_pentagon,go,,,,go-1,2,,,,,,
0,0,11,phase_2,red_pentagon,go,,,,go-1,2,,,,,,
0,0,11,phase_2,red_pentagon,stop,purple,0.0,0-SSD,go-1,4,,,,,,
0,0,11,phase_2,blue_circle,go,,,,go-2,2,,,,,,
0,0,11,phase_2,blue_circle,go,,,,go-2,2,,,,,,
0,0,11,phase_2,blue_circle,go,,,,go-2,2,,,,,,
0,0,11,phase_2,red_pentagon,go,,,,go-1,2,,,,,,
0,0,11,phase_2,blue_rhombus,go,,,,go-2,2,,,,,,
0,0,11,phase_2,blue_pentagon,stop,green,150.0,tracking-SSD,go-2,4,,,,,,
0,0,11,phase_2,red_circle,go,,,,go-1,2,,,,,,
0,0,11,phase_2,blue_circle,go,,,,go-2,2,,,,,,
1,472.0,11,phase_2,blue_rhombus,go,,,,go-2,1,,,,,,
2,424.0,11,phase_2,blue_circle,stop,green,200.0,tracking-SSD,go-2,3,,,,,,
0,0,11,phase_2,red_pentagon,stop,green,150.0,tracking-SSD,go-1,4,,,,,,
0,0,11,phase_2,blue_triangle,stop,green,200.0,tracking-SSD,go-2,4,,,,,,
2,532.0,12,phase_2,red_circle,go,,,,go-1,1,,,,,,
2,417.0,12,phase_2,blue_circle,stop,green,250.0,tracking-SSD,go-2,3,,,,,,
0,0,12,phase_2,red_triangle,stop,green,200.0,tracking-SSD,go-1,4,,,,,,
2,468.0,12,phase_2,red_pentagon,go,,,,go-1,1,,,,,,
2,444.0,12,phase_2,blue_circle,go,,,,go-2,1,,,,,,
2,385.0,12,phase_2,blue_pentagon,stop,green,250.0,tracking-SSD,go-2,3,,,,,,
0,0,12,phase_2,red_circle,stop,green,200.0,tracking-SSD,go-1,4,,,,,,
1,640.0,12,phase_2,red_rhombus,go,,,,go-1,1,,,,,,
1,469.0,12,phase_2,red_triangle,stop,green,250.0,tracking-SSD,go-1,3,,,,,,
2,388.0,12,phase_2,red_pentagon,go,,,,go-1,1,,,,,,
2,542.0,12,phase_2,red_pentagon,go,,,,go-1,1,,,,,,
2,416.0,12,phase_2,blue_circle,go,,,,go-2,1,,,,,,
1,571.0,12,phase_2,blue_triangle,go,,,,go-2,1,,,,,,
0,0,12,phase_2,blue_circle,stop,purple,0.0,0-SSD,go-2,4,,,,,,
2,398.0,12,phase_2,red_circle,go,,,,go-1,1,,,,,,
0,0,12,phase_2,blue_pentagon,stop,purple,0.0,0-SSD,go-2,4,,,,,,
0,0,12,phase_2,red_rhombus,stop,green,200.0,tracking-SSD,go-1,4,,,,,,
1,659.0,12,phase_2,blue_triangle,go,,,,go-2,1,,,,,,
1,1051.0,12,phase_2,red_rhombus,go,,,,go-1,1,,,,,,
1,699.0,12,phase_2,red_triangle,go,,,,go-1,1,,,,,,
1,416.0,12,phase_2,red_triangle,go,,,,go-1,1,,,,,,
2,424.0,12,phase_2,blue_pentagon,go,,,,go-2,1,,,,,,
2,737.0,12,phase_2,blue_circle,go,,,,go-2,1,,,,,,
0,0,12,phase_2,blue_circle,stop,purple,0.0,0-SSD,go-2,4,,,,,,
1,405.0,12,phase_2,blue_triangle,stop,green,250.0,tracking-SSD,go-2,3,,,,,,
2,380.0,12,phase_2,blue_circle,go,,,,go-2,1,,,,,,
2,535.0,12,phase_2,blue_rhombus,go,,,,go-2,2,,,,,,
2,420.0,12,phase_2,blue_triangle,go,,,,go-2,2,,,,,,
1,700.0,12,phase_2,red_rhombus,go,,,,go-1,1,,,,,,
1,529.0,12,phase_2,red_triangle,go,,,,go-1,1,,,,,,
0,0,12,phase_2,red_pentagon,stop,purple,0.0,0-SSD,go-1,4,,,,,,
2,490.0,12,phase_2,red_pentagon,go,,,,go-1,1,,,,,,
2,420.0,12,phase_2,blue_pentagon,go,,,,go-2,1,,,,,,
1,586.0,12,phase_2,blue_rhombus,go,,,,go-2,1,,,,,,
2,630.0,12,phase_2,red_pentagon,go,,,,go-1,1,,,,,,
1,638.0,12,phase_2,blue_triangle,go,,,,go-2,1,,,,,,
1,511.0,12,phase_2,blue_triangle,go,,,,go-2,1,,,,,,
0,0,12,phase_2,red_pentagon,stop,purple,0.0,0-SSD,go-1,4,,,,,,
0,0,12,phase_2,blue_pentagon,stop,purple,0.0,0-SSD,go-2,4,,,,,,
2,550.0,12,phase_2,red_circle,go,,,,go-1,1,,,,,,
1,615.0,12,phase_2,blue_triangle,go,,,,go-2,1,,,,,,
0,0,12,phase_2,blue_rhombus,stop,green,200.0,tracking-SSD,go-2,4,,,,,,
1,430.0,12,phase_2,blue_rhombus,go,,,,go-2,1,,,,,,
2,507.0,12,phase_2,red_rhombus,go,,,,go-1,2,,,,,,
0,0,12,phase_2,red_rhombus,stop,purple,0.0,0-SSD,go-1,4,,,,,,
0,0,12,phase_2,red_circle,stop,purple,0.0,0-SSD,go-1,4,,,,,,
1,500.0,12,phase_2,blue_rhombus,go,,,,go-2,1,,,,,,
1,553.0,12,phase_2,red_rhombus,go,,,,go-1,1,,,,,,
2,476.0,13,phase_2,blue_pentagon,go,,,,go-2,1,,,,,,
2,339.0,13,phase_2,red_pentagon,go,,,,go-1,1,,,,,,
2,337.0,13,phase_2,blue_pentagon,stop,green,250.0,tracking-SSD,go-2,3,,,,,,
2,559.0,13,phase_2,blue_circle,go,,,,go-2,1,,,,,,
2,399.0,13,phase_2,red_circle,go,,,,go-1,1,,,,,,
2,430.0,13,phase_2,red_circle,go,,,,go-1,1,,,,,,
1,474.0,13,phase_2,red_triangle,go,,,,go-1,1,,,,,,
0,0,13,phase_2,blue_circle,stop,green,200.0,tracking-SSD,go-2,4,,,,,,
1,548.0,13,phase_2,blue_triangle,go,,,,go-2,1,,,,,,
2,490.0,13,phase_2,blue_circle,go,,,,go-2,1,,,,,,
1,576.0,13,phase_2,blue_rhombus,go,,,,go-2,1,,,,,,
2,371.0,13,phase_2,red_circle,stop,green,250.0,tracking-SSD,go-1,3,,,,,,
1,470.0,13,phase_2,red_triangle,go,,,,go-1,1,,,,,,
1,568.0,13,phase_2,blue_triangle,go,,,,go-2,1,,,,,,
2,408.0,13,phase_2,red_pentagon,go,,,,go-1,1,,,,,,
2,440.0,13,phase_2,blue_circle,go,,,,go-2,1,,,,,,
1,426.0,13,phase_2,blue_rhombus,go,,,,go-2,1,,,,,,
1,479.0,13,phase_2,blue_triangle,go,,,,go-2,1,,,,,,
1,499.0,13,phase_2,red_triangle,go,,,,go-1,1,,,,,,
1,406.0,13,phase_2,blue_triangle,stop,green,200.0,tracking-SSD,go-2,3,,,,,,
1,371.0,13,phase_2,red_triangle,go,,,,go-1,1,,,,,,
1,581.0,13,phase_2,blue_rhombus,go,,,,go-2,1,,,,,,
0,0,13,phase_2,blue_pentagon,stop,purple,0.0,0-SSD,go-2,4,,,,,,
1,543.0,13,phase_2,red_rhombus,go,,,,go-1,1,,,,,,
0,0,13,phase_2,blue_circle,stop,green,150.0,tracking-SSD,go-2,4,,,,,,
2,616.0,13,phase_2,red_circle,go,,,,go-1,1,,,,,,
1,546.0,13,phase_2,red_rhombus,stop,green,200.0,tracking-SSD,go-1,3,,,,,,
0,0,13,phase_2,blue_rhombus,stop,purple,0.0,0-SSD,go-2,4,,,,,,
0,0,13,phase_2,red_triangle,stop,green,150.0,tracking-SSD,go-1,4,,,,,,
1,415.0,13,phase_2,blue_triangle,go,,,,go-2,1,,,,,,
2,502.0,13,phase_2,blue_circle,go,,,,go-2,1,,,,,,
1,456.0,13,phase_2,blue_pentagon,go,,,,go-2,2,,,,,,
0,0,13,phase_2,blue_rhombus,stop,purple,0.0,0-SSD,go-2,4,,,,,,
2,419.0,13,phase_2,blue_pentagon,go,,,,go-2,1,,,,,,
0,0,13,phase_2,blue_pentagon,stop,purple,0.0,0-SSD,go-2,4,,,,,,
0,0,13,phase_2,red_triangle,stop,purple,0.0,0-SSD,go-1,4,,,,,,
2,445.0,13,phase_2,red_circle,go,,,,go-1,1,,,,,,
2,420.0,13,phase_2,blue_circle,go,,,,go-2,1,,,,,,
2,395.0,13,phase_2,red_pentagon,go,,,,go-1,1,,,,,,
1,482.0,13,phase_2,red_triangle,go,,,,go-1,1,,,,,,
0,0,13,phase_2,red_rhombus,stop,purple,0.0,0-SSD,go-1,4,,,,,,
1,691.0,13,phase_2,red_rhombus,go,,,,go-1,1,,,,,,
0,0,13,phase_2,red_pentagon,stop,purple,0.0,0-SSD,go-1,4,,,,,,
2,483.0,13,phase_2,red_pentagon,go,,,,go-1,1,,,,,,
1,503.0,13,phase_2,red_rhombus,go,,,,go-1,1,,,,,,
1,738.0,13,phase_2,blue_rhombus,go,,,,go-2,1,,,,,,
2,579.0,13,phase_2,red_pentagon,stop,green,200.0,tracking-SSD,go-1,3,,,,,,
0,0,13,phase_2,red_rhombus,stop,purple,0.0,0-SSD,go-1,4,,,,,,
2,453.0,14,phase_2,blue_pentagon,go,,,,go-2,1,,,,,,
0,0,14,phase_2,blue_triangle,stop,green,150.0,tracking-SSD,go-2,4,,,,,,
2,493.0,14,phase_2,blue_pentagon,go,,,,go-2,1,,,,,,
2,445.0,14,phase_2,blue_pentagon,go,,,,go-2,1,,,,,,
2,476.0,14,phase_2,blue_pentagon,go,,,,go-2,1,,,,,,
0,0,14,phase_2,blue_pentagon,stop,purple,0.0,0-SSD,go-2,4,,,,,,
1,618.0,14,phase_2,red_rhombus,go,,,,go-1,1,,,,,,
2,469.0,14,phase_2,red_circle,go,,,,go-1,1,,,,,,
2,365.0,14,phase_2,red_circle,go,,,,go-1,1,,,,,,
1,577.0,14,phase_2,red_circle,go,,,,go-1,2,,,,,,
1,551.0,14,phase_2,blue_triangle,go,,,,go-2,1,,,,,,
1,595.0,14,phase_2,blue_rhombus,go,,,,go-2,1,,,,,,
1,435.0,14,phase_2,blue_triangle,go,,,,go-2,1,,,,,,
2,376.0,14,phase_2,blue_circle,go,,,,go-2,1,,,,,,
2,519.0,14,phase_2,blue_triangle,go,,,,go-2,2,,,,,,
0,0,14,phase_2,blue_triangle,stop,purple,0.0,0-SSD,go-2,4,,,,,,
1,548.0,14,phase_2,red_rhombus,go,,,,go-1,1,,,,,,
1,568.0,14,phase_2,red_triangle,stop,green,200.0,tracking-SSD,go-1,3,,,,,,
2,441.0,14,phase_2,red_pentagon,go,,,,go-1,1,,,,,,
1,528.0,14,phase_2,blue_triangle,go,,,,go-2,1,,,,,,
2,537.0,14,phase_2,red_pentagon,go,,,,go-1,1,,,,,,
2,500.0,14,phase_2,blue_circle,go,,,,go-2,1,,,,,,
0,0,14,phase_2,red_circle,stop,purple,0.0,0-SSD,go-1,4,,,,,,
0,0,14,phase_2,blue_rhombus,stop,green,150.0,tracking-SSD,go-2,4,,,,,,
1,449.0,14,phase_2,red_triangle,stop,green,200.0,tracking-SSD,go-1,3,,,,,,
1,446.0,14,phase_2,blue_triangle,go,,,,go-2,1,,,,,,
0,0,14,phase_2,red_triangle,stop,purple,0.0,0-SSD,go-1,4,,,,,,
2,497.0,14,phase_2,red_circle,go,,,,go-1,1,,,,,,
2,359.0,14,phase_2,red_circle,go,,,,go-1,1,,,,,,
1,582.0,14,phase_2,red_rhombus,go,,,,go-1,1,,,,,,
0,0,14,phase_2,red_rhombus,stop,green,150.0,tracking-SSD,go-1,4,,,,,,
2,521.0,14,phase_2,blue_pentagon,go,,,,go-2,1,,,,,,
1,743.0,14,phase_2,red_triangle,go,,,,go-1,1,,,,,,
2,459.0,14,phase_2,red_pentagon,go,,,,go-1,1,,,,,,
2,512.0,14,phase_2,blue_circle,go,,,,go-2,1,,,,,,
1,116.0,14,phase_2,red_circle,stop,purple,0.0,0-SSD,go-1,3,,,,,,
2,508.0,14,phase_2,blue_pentagon,stop,green,200.0,tracking-SSD,go-2,3,,,,,,
0,0,14,phase_2,red_rhombus,stop,green,150.0,tracking-SSD,go-1,4,,,,,,
1,447.0,14,phase_2,blue_triangle,go,,,,go-2,1,,,,,,
2,781.0,14,phase_2,red_rhombus,go,,,,go-1,2,,,,,,
0,0,14,phase_2,red_rhombus,stop,purple,0.0,0-SSD,go-1,4,,,,,,
0,0,14,phase_2,blue_pentagon,stop,purple,0.0,0-SSD,go-2,4,,,,,,
2,369.0,14,phase_2,red_circle,go,,,,go-1,1,,,,,,
2,412.0,14,phase_2,red_pentagon,go,,,,go-1,1,,,,,,
0,0,14,phase_2,blue_rhombus,stop,purple,0.0,0-SSD,go-2,4,,,,,,
2,360.0,14,phase_2,blue_circle,go,,,,go-2,1,,,,,,
0,0,14,phase_2,blue_rhombus,stop,green,200.0,tracking-SSD,go-2,4,,,,,,
1,457.0,14,phase_2,red_rhombus,go,,,,go-1,1,,,,,,
1,419.0,15,phase_2,red_rhombus,go,,,,go-1,1,,,,,,
1,551.0,15,phase_2,red_triangle,go,,,,go-1,1,,,,,,
2,424.0,15,phase_2,red_rhombus,go,,,,go-1,2,,,,,,
2,389.0,15,phase_2,red_circle,stop,green,250.0,tracking-SSD,go-1,3,,,,,,
1,510.0,15,phase_2,blue_triangle,go,,,,go-2,1,,,,,,
0,0,15,phase_2,blue_pentagon,stop,purple,0.0,0-SSD,go-2,4,,,,,,
0,0,15,phase_2,red_rhombus,stop,purple,0.0,0-SSD,go-1,4,,,,,,
0,0,15,phase_2,red_circle,stop,purple,0.0,0-SSD,go-1,4,,,,,,
1,456.0,15,phase_2,red_triangle,go,,,,go-1,1,,,,,,
2,477.0,15,phase_2,red_circle,go,,,,go-1,1,,,,,,
2,474.0,15,phase_2,red_pentagon,go,,,,go-1,1,,,,,,
1,573.0,15,phase_2,blue_rhombus,go,,,,go-2,1,,,,,,
0,0,15,phase_2,red_rhombus,stop,green,200.0,tracking-SSD,go-1,4,,,,,,
2,434.0,15,phase_2,blue_circle,go,,,,go-2,1,,,,,,
0,0,15,phase_2,red_rhombus,stop,green,250.0,tracking-SSD,go-1,4,,,,,,
0,0,15,phase_2,blue_pentagon,stop,green,300.0,tracking-SSD,go-2,4,,,,,,
0,0,15,phase_2,blue_circle,stop,green,350.0,tracking-SSD,go-2,4,,,,,,
1,535.0,15,phase_2,blue_rhombus,go,,,,go-2,1,,,,,,
2,511.0,15,phase_2,blue_pentagon,stop,green,400.0,tracking-SSD,go-2,3,,,,,,
2,441.0,15,phase_2,blue_pentagon,go,,,,go-2,1,,,,,,
1,539.0,15,phase_2,red_rhombus,go,,,,go-1,1,,,,,,
0,0,15,phase_2,blue_pentagon,stop,purple,0.0,0-SSD,go-2,4,,,,,,
1,488.0,15,phase_2,blue_triangle,go,,,,go-2,1,,,,,,
2,431.0,15,phase_2,blue_circle,go,,,,go-2,1,,,,,,
1,552.0,15,phase_2,blue_rhombus,go,,,,go-2,1,,,,,,
1,447.0,15,phase_2,blue_triangle,go,,,,go-2,1,,,,,,
2,411.0,15,phase_2,red_circle,go,,,,go-1,1,,,,,,
0,0,15,phase_2,blue_pentagon,stop,purple,0.0,0-SSD,go-2,4,,,,,,
1,542.0,15,phase_2,blue_rhombus,go,,,,go-2,1,,,,,,
2,584.0,15,phase_2,red_pentagon,go,,,,go-1,1,,,,,,
1,547.0,15,phase_2,red_triangle,go,,,,go-1,1,,,,,,
2,747.0,15,phase_2,blue_circle,go,,,,go-2,1,,,,,,
0,0,15,phase_2,red_pentagon,stop,purple,0.0,0-SSD,go-1,4,,,,,,
1,496.0,15,phase_2,blue_rhombus,go,,,,go-2,1,,,,,,
2,525.0,15,phase_2,blue_pentagon,go,,,,go-2,1,,,,,,
2,501.0,15,phase_2,red_circle,go,,,,go-1,1,,,,,,
1,532.0,15,phase_2,red_triangle,go,,,,go-1,1,,,,,,
0,0,15,phase_2,red_triangle,stop,purple,0.0,0-SSD,go-1,4,,,,,,
0,0,15,phase_2,blue_triangle,stop,purple,0.0,0-SSD,go-2,4,,,,,,
2,559.0,15,phase_2,blue_pentagon,go,,,,go-2,1,,,,,,
2,634.0,15,phase_2,red_circle,stop,green,350.0,tracking-SSD,go-1,3,,,,,,
1,463.0,15,phase_2,red_triangle,go,,,,go-1,1,,,,,,
1,517.0,15,phase_2,red_triangle,go,,,,go-1,1,,,,,,
2,390.0,15,phase_2,blue_pentagon,go,,,,go-2,1,,,,,,
1,490.0,15,phase_2,red_rhombus,go,,,,go-1,1,,,,,,
2,464.0,15,phase_2,blue_circle,go,,,,go-2,1,,,,,,
1,698.0,15,phase_2,red_triangle,go,,,,go-1,1,,,,,,
2,392.0,15,phase_2,blue_circle,stop,green,300.0,tracking-SSD,go-2,3,,,,,,
2,430.0,16,phase_2,red_rhombus,go,,,,go-1,2,,,,,,
1,359.0,16,phase_2,red_rhombus,stop,green,250.0,tracking-SSD,go-1,3,,,,,,
2,615.0,16,phase_2,blue_pentagon,go,,,,go-2,1,,,,,,
1,544.0,16,phase_2,red_rhombus,go,,,,go-1,1,,,,,,
2,431.0,16,phase_2,blue_pentagon,go,,,,go-2,1,,,,,,
2,506.0,16,phase_2,red_circle,go,,,,go-1,1,,,,,,
1,481.0,16,phase_2,blue_rhombus,go,,,,go-2,1,,,,,,
2,400.0,16,phase_2,blue_circle,go,,,,go-2,1,,,,,,
2,408.0,16,phase_2,red_rhombus,go,,,,go-1,2,,,,,,
2,407.0,16,phase_2,red_pentagon,go,,,,go-1,1,,,,,,
0,0,16,phase_2,red_pentagon,stop,green,200.0,tracking-SSD,go-1,4,,,,,,
0,0,16,phase_2,red_triangle,stop,purple,0.0,0-SSD,go-1,4,,,,,,
1,533.0,16,phase_2,red_triangle,go,,,,go-1,1,,,,,,
1,665.0,16,phase_2,blue_rhombus,go,,,,go-2,1,,,,,,
2,439.0,16,phase_2,blue_circle,go,,,,go-2,1,,,,,,
2,539.0,16,phase_2,red_pentagon,go,,,,go-1,1,,,,,,
0,0,16,phase_2,blue_rhombus,stop,purple,0.0,0-SSD,go-2,4,,,,,,
2,502.0,16,phase_2,red_circle,go,,,,go-1,1,,,,,,
2,432.0,16,phase_2,blue_pentagon,stop,green,250.0,tracking-SSD,go-2,3,,,,,,
1,531.0,16,phase_2,blue_triangle,go,,,,go-2,1,,,,,,
2,439.0,16,phase_2,blue_rhombus,go,,,,go-2,2,,,,,,
1,539.0,16,phase_2,blue_triangle,go,,,,go-2,1,,,,,,
2,458.0,16,phase_2,blue_circle,go,,,,go-2,1,,,,,,
1,479.0,16,phase_2,blue_rhombus,go,,,,go-2,1,,,,,,
1,510.0,16,phase_2,red_triangle,go,,,,go-1,1,,,,,,
0,0,16,phase_2,red_pentagon,stop,purple,0.0,0-SSD,go-1,4,,,,,,
0,0,16,phase_2,blue_pentagon,stop,purple,0.0,0-SSD,go-2,4,,,,,,
2,448.0,16,phase_2,blue_circle,go,,,,go-2,1,,,,,,
2,368.0,16,phase_2,blue_pentagon,stop,green,200.0,tracking-SSD,go-2,3,,,,,,
0,0,16,phase_2,red_rhombus,stop,purple,0.0,0-SSD,go-1,4,,,,,,
0,0,16,phase_2,red_triangle,stop,green,150.0,tracking-SSD,go-1,4,,,,,,
2,443.0,16,phase_2,blue_circle,go,,,,go-2,1,,,,,,
1,385.0,16,phase_2,red_triangle,go,,,,go-1,1,,,,,,
0,0,16,phase_2,blue_triangle,stop,green,200.0,tracking-SSD,go-2,4,,,,,,
0,0,16,phase_2,blue_pentagon,stop,purple,0.0,0-SSD,go-2,4,,,,,,
2,469.0,16,phase_2,red_circle,go,,,,go-1,1,,,,,,
1,535.0,16,phase_2,blue_triangle,go,,,,go-2,1,,,,,,
0,0,16,phase_2,red_circle,stop,green,250.0,tracking-SSD,go-1,4,,,,,,
2,417.0,16,phase_2,blue_pentagon,go,,,,go-2,1,,,,,,
1,911.0,16,phase_2,red_triangle,go,,,,go-1,1,,,,,,
1,414.0,16,phase_2,red_triangle,go,,,,go-1,1,,,,,,
2,400.0,16,phase_2,red_circle,go,,,,go-1,1,,,,,,
2,386.0,16,phase_2,red_circle,go,,,,go-1,1,,,,,,
2,394.0,16,phase_2,blue_circle,stop,green,300.0,tracking-SSD,go-2,3,,,,,,
0,0,16,phase_2,red_triangle,stop,purple,0.0,0-SSD,go-1,4,,,,,,
0,0,16,phase_2,blue_rhombus,stop,purple,0.0,0-SSD,go-2,4,,,,,,
1,409.0,16,phase_2,red_rhombus,go,,,,go-1,1,,,,,,
2,462.0,16,phase_2,blue_pentagon,go,,,,go-2,1,,,,,,
2,453.0,17,phase_2,blue_rhombus,go,,,,go-2,2,,,,,,
0,0,17,phase_2,blue_triangle,stop,purple,0.0,0-SSD,go-2,4,,,,,,
1,627.0,17,phase_2,blue_triangle,go,,,,go-2,1,,,,,,
1,355.0,17,phase_2,red_triangle,go,,,,go-1,1,,,,,,
2,465.0,17,phase_2,red_pentagon,go,,,,go-1,1,,,,,,
2,440.0,17,phase_2,blue_circle,go,,,,go-2,1,,,,,,
1,426.0,17,phase_2,red_triangle,go,,,,go-1,1,,,,,,
0,0,17,phase_2,red_rhombus,stop,green,250.0,tracking-SSD,go-1,4,,,,,,
1,668.0,17,phase_2,blue_rhombus,go,,,,go-2,1,,,,,,
1,531.0,17,phase_2,blue_triangle,go,,,,go-2,1,,,,,,
0,0,17,phase_2,blue_pentagon,stop,purple,0.0,0-SSD,go-2,4,,,,,,
1,536.0,17,phase_2,blue_triangle,stop,green,300.0,tracking-SSD,go-2,3,,,,,,
2,759.0,17,phase_2,blue_pentagon,go,,,,go-2,1,,,,,,
2,487.0,17,phase_2,red_pentagon,go,,,,go-1,1,,,,,,
1,541.0,17,phase_2,blue_triangle,go,,,,go-2,1,,,,,,
2,549.0,17,phase_2,red_pentagon,go,,,,go-1,1,,,,,,
0,0,17,phase_2,red_rhombus,stop,purple,0.0,0-SSD,go-1,4,,,,,,
0,0,17,phase_2,red_rhombus,stop,green,250.0,tracking-SSD,go-1,4,,,,,,
2,463.0,17,phase_2,red_pentagon,go,,,,go-1,1,,,,,,
2,393.0,17,phase_2,red_circle,go,,,,go-1,1,,,,,,
2,413.0,17,phase_2,red_circle,stop,green,300.0,tracking-SSD,go-1,3,,,,,,
1,432.0,17,phase_2,blue_triangle,go,,,,go-2,1,,,,,,
1,553.0,17,phase_2,blue_rhombus,go,,,,go-2,1,,,,,,
2,595.0,17,phase_2,blue_circle,go,,,,go-2,1,,,,,,
1,413.0,17,phase_2,red_rhombus,go,,,,go-1,1,,,,,,
2,467.0,17,phase_2,red_pentagon,go,,,,go-1,1,,,,,,
0,0,17,phase_2,blue_rhombus,stop,purple,0.0,0-SSD,go-2,4,,,,,,
0,0,17,phase_2,red_pentagon,stop,purple,0.0,0-SSD,go-1,4,,,,,,
1,504.0,17,phase_2,red_triangle,go,,,,go-1,1,,,,,,
2,547.0,17,phase_2,red_circle,go,,,,go-1,1,,,,,,
2,443.0,17,phase_2,blue_circle,stop,green,250.0,tracking-SSD,go-2,3,,,,,,
2,328.0,17,phase_2,blue_circle,stop,green,200.0,tracking-SSD,go-2,3,,,,,,
0,0,17,phase_2,red_pentagon,stop,purple,0.0,0-SSD,go-1,4,,,,,,
1,548.0,17,phase_2,red_rhombus,go,,,,go-1,1,,,,,,
2,501.0,17,phase_2,red_circle,go,,,,go-1,1,,,,,,
2,375.0,17,phase_2,red_circle,go,,,,go-1,1,,,,,,
0,0,17,phase_2,blue_triangle,stop,green,150.0,tracking-SSD,go-2,4,,,,,,
1,708.0,17,phase_2,red_pentagon,go,,,,go-1,2,,,,,,
1,448.0,17,phase_2,red_pentagon,go,,,,go-1,2,,,,,,
1,558.0,17,phase_2,blue_rhombus,go,,,,go-2,1,,,,,,
2,432.0,17,phase_2,blue_circle,go,,,,go-2,1,,,,,,
1,542.0,17,phase_2,blue_rhombus,go,,,,go-2,1,,,,,,
2,528.0,17,phase_2,red_triangle,stop,green,200.0,tracking-SSD,go-1,3,,,,,,
2,480.0,17,phase_2,blue_circle,go,,,,go-2,1,,,,,,
1,411.0,17,phase_2,blue_rhombus,go,,,,go-2,1,,,,,,
0,0,17,phase_2,red_pentagon,stop,purple,0.0,0-SSD,go-1,4,,,,,,
2,394.0,17,phase_2,blue_circle,go,,,,go-2,1,,,,,,
0,0,17,phase_2,blue_triangle,stop,purple,0.0,0-SSD,go-2,4,,,,,,
,937.0,1,phase_3,,,,,,,,purple_square,0-SSD,red_square,go-1,purple_square,0-SSD
,1067.0,1,phase_3,,,,,,,,blue_square,go-2,blue_square,go-2,green_square,tracking-SSD
,837.0,1,phase_3,,,,,,,,green_square,tracking-SSD,red_square,go-1,green_square,tracking-SSD
,696.0,1,phase_3,,,,,,,,purple_square,0-SSD,purple_square,0-SSD,green_square,tracking-SSD
0,0,1,phase_3,,,,,,,,,,blue_square,go-2,purple_square,0-SSD
,677.0,1,phase_3,,,,,,,,blue_square,go-2,red_square,go-1,blue_square,go-2
,987.0,1,phase_3,,,,,,,,red_square,go-1,green_square,tracking-SSD,red_square,go-1
,1016.0,1,phase_3,,,,,,,,green_square,tracking-SSD,green_square,tracking-SSD,purple_square,0-SSD
,877.0,1,phase_3,,,,,,,,purple_square,0-SSD,purple_square,0-SSD,blue_square,go-2
,771.0,1,phase_3,,,,,,,,purple_square,0-SSD,purple_square,0-SSD,red_square,go-1
0,0,1,phase_3,,,,,,,,,,blue_square,go-2,red_square,go-1
0,0,1,phase_3,,,,,,,,,,green_square,tracking-SSD,blue_square,go-2
,903.0,2,phase_3,,,,,,,,purple_square,0-SSD,red_square,go-1,purple_square,0-SSD
,796.0,2,phase_3,,,,,,,,red_square,go-1,red_square,go-1,green_square,tracking-SSD
,882.0,2,phase_3,,,,,,,,purple_square,0-SSD,blue_square,go-2,purple_square,0-SSD
,946.0,2,phase_3,,,,,,,,purple_square,0-SSD,purple_square,0-SSD,green_square,tracking-SSD
,739.0,2,phase_3,,,,,,,,red_square,go-1,red_square,go-1,blue_square,go-2
,1173.0,2,phase_3,,,,,,,,blue_square,go-2,blue_square,go-2,green_square,tracking-SSD
,955.0,2,phase_3,,,,,,,,red_square,go-1,blue_square,go-2,red_square,go-1
,635.0,2,phase_3,,,,,,,,purple_square,0-SSD,green_square,tracking-SSD,purple_square,0-SSD
,844.0,2,phase_3,,,,,,,,purple_square,0-SSD,purple_square,0-SSD,blue_square,go-2
,1122.0,2,phase_3,,,,,,,,blue_square,go-2,green_square,tracking-SSD,blue_square,go-2
,881.0,2,phase_3,,,,,,,,red_square,go-1,green_square,tracking-SSD,red_square,go-1
,1541.0,2,phase_3,,,,,,,,purple_square,0-SSD,purple_square,0-SSD,red_square,go-1
,836.0,3,phase_3,,,,,,,,purple_square,0-SSD,purple_square,0-SSD,green_square,tracking-SSD
,876.0,3,phase_3,,,,,,,,blue_square,go-2,blue_square,go-2,green_square,tracking-SSD
,702.0,3,phase_3,,,,,,,,purple_square,0-SSD,blue_square,go-2,purple_square,0-SSD
,687.0,3,phase_3,,,,,,,,red_square,go-1,red_square,go-1,green_square,tracking-SSD
,626.0,3,phase_3,,,,,,,,purple_square,0-SSD,red_square,go-1,purple_square,0-SSD
,588.0,3,phase_3,,,,,,,,red_square,go-1,red_square,go-1,blue_square,go-2
,505.0,3,phase_3,,,,,,,,red_square,go-1,blue_square,go-2,red_square,go-1
,624.0,3,phase_3,,,,,,,,blue_square,go-2,green_square,tracking-SSD,blue_square,go-2
,598.0,3,phase_3,,,,,,,,purple_square,0-SSD,purple_square,0-SSD,red_square,go-1
0,0,3,phase_3,,,,,,,,,,green_square,tracking-SSD,red_square,go-1
,702.0,3,phase_3,,,,,,,,purple_square,0-SSD,green_square,tracking-SSD,purple_square,0-SSD
,528.0,3,phase_3,,,,,,,,purple_square,0-SSD,purple_square,0-SSD,blue_square,go-2
,724.0,4,phase_3,,,,,,,,purple_square,0-SSD,purple_square,0-SSD,green_square,tracking-SSD
,641.0,4,phase_3,,,,,,,,red_square,go-1,red_square,go-1,green_square,tracking-SSD
0,0,4,phase_3,,,,,,,,,,red_square,go-1,purple_square,0-SSD
,541.0,4,phase_3,,,,,,,,red_square,go-1,red_square,go-1,blue_square,go-2
0,0,4,phase_3,,,,,,,,,,blue_square,go-2,purple_square,0-SSD
,725.0,4,phase_3,,,,,,,,blue_square,go-2,blue_square,go-2,green_square,tracking-SSD
0,0,4,phase_3,,,,,,,,,,green_square,tracking-SSD,purple_square,0-SSD
,657.0,4,phase_3,,,,,,,,red_square,go-1,green_square,tracking-SSD,red_square,go-1
,619.0,4,phase_3,,,,,,,,red_square,go-1,purple_square,0-SSD,red_square,go-1
,738.0,4,phase_3,,,,,,,,green_square,tracking-SSD,green_square,tracking-SSD,blue_square,go-2
,643.0,4,phase_3,,,,,,,,red_square,go-1,blue_square,go-2,red_square,go-1
0,0,4,phase_3,,,,,,,,,,purple_square,0-SSD,blue_square,go-2
,858.0,5,phase_3,,,,,,,,purple_square,0-SSD,blue_square,go-2,purple_square,0-SSD
,719.0,5,phase_3,,,,,,,,red_square,go-1,red_square,go-1,purple_square,0-SSD
,557.0,5,phase_3,,,,,,,,red_square,go-1,red_square,go-1,green_square,tracking-SSD
,553.0,5,phase_3,,,,,,,,red_square,go-1,red_square,go-1,blue_square,go-2
,616.0,5,phase_3,,,,,,,,blue_square,go-2,blue_square,go-2,green_square,tracking-SSD
,566.0,5,phase_3,,,,,,,,purple_square,0-SSD,purple_square,0-SSD,green_square,tracking-SSD
,596.0,5,phase_3,,,,,,,,red_square,go-1,green_square,tracking-SSD,red_square,go-1
,603.0,5,phase_3,,,,,,,,red_square,go-1,blue_square,go-2,red_square,go-1
,632.0,5,phase_3,,,,,,,,blue_square,go-2,green_square,tracking-SSD,blue_square,go-2
,730.0,5,phase_3,,,,,,,,purple_square,0-SSD,purple_square,0-SSD,blue_square,go-2
0,0,5,phase_3,,,,,,,,,,purple_square,0-SSD,red_square,go-1
,506.0,5,phase_3,,,,,,,,purple_square,0-SSD,green_square,tracking-SSD,purple_square,0-SSD
