response,reaction_time,block,which_phase,stim,stop_signal_trial_type,stop_signal_stimulus,SSD,SSD_type,condition,accuracy,chosen_stim,chosen_cond,stim_left,cond_left,stim_right,cond_right
2,476.0,1,phase_2,red_triangle,go,,,,go-2,1,,,,,,
2,473.0,1,phase_2,red_rhombus,go,,,,go-2,1,,,,,,
2,381.0,1,phase_2,red_rhombus,go,,,,go-2,1,,,,,,
2,435.0,1,phase_2,red_triangle,go,,,,go-2,1,,,,,,
2,411.0,1,phase_2,red_triangle,go,,,,go-2,1,,,,,,
2,422.0,1,phase_2,red_triangle,go,,,,go-2,1,,,,,,
1,531.0,1,phase_2,red_circle,go,,,,go-2,1,,,,,,
1,395.0,1,phase_2,red_circle,go,,,,go-2,1,,,,,,
2,504.0,1,phase_2,green_rhombus,go,,,,go-1,1,,,,,,
1,603.0,1,phase_2,red_pentagon,go,,,,go-2,1,,,,,,
1,580.0,1,phase_2,green_circle,go,,,,go-1,1,,,,,,
1,477.0,1,phase_2,green_circle,go,,,,go-1,1,,,,,,
1,453.0,1,phase_2,green_rhombus,stop,purple,250.0,tracking-SSD,go-1,3,,,,,,
0,0,1,phase_2,red_pentagon,stop,blue,0.0,0-SSD,go-2,4,,,,,,
2,560.0,1,phase_2,green_pentagon,go,,,,go-1,2,,,,,,
1,534.0,1,phase_2,green_pentagon,go,,,,go-1,1,,,,,,
1,577.0,1,phase_2,red_circle,go,,,,go-2,1,,,,,,
1,530.0,1,phase_2,red_circle,go,,,,go-2,1,,,,,,
0,0,1,phase_2,red_circle,stop,blue,0.0,0-SSD,go-2,4,,,,,,
2,434.0,1,phase_2,red_triangle,go,,,,go-2,1,,,,,,
0,0,1,phase_2,green_rhombus,stop,blue,0.0,0-SSD,go-1,4,,,,,,
2,530.0,1,phase_2,green_rhombus,go,,,,go-1,1,,,,,,
2,473.0,1,phase_2,green_pentagon,go,,,,go-1,2,,,,,,
1,548.0,1,phase_2,green_circle,go,,,,go-1,1,,,,,,
0,0,1,phase_2,red_rhombus,stop,purple,200.0,tracking-SSD,go-2,4,,,,,,
1,566.0,1,phase_2,red_circle,go,,,,go-2,1,,,,,,
0,0,1,phase_2,green_pentagon,stop,purple,250.0,tracking-SSD,go-1,4,,,,,,
2,584.0,1,phase_2,green_triangle,go,,,,go-1,1,,,,,,
1,649.0,1,phase_2,green_pentagon,go,,,,go-1,1,,,,,,
2,500.0,1,phase_2,green_triangle,go,,,,go-1,1,,,,,,
2,666.0,1,phase_2,red_rhombus,stop,purple,300.0,tracking-SSD,go-2,3,,,,,,
0,0,1,phase_2,red_circle,stop,purple,250.0,tracking-SSD,go-2,4,,,,,,
2,573.0,1,phase_2,green_rhombus,go,,,,go-1,1,,,,,,
0,0,1,phase_2,green_pentagon,stop,blue,0.0,0-SSD,go-1,4,,,,,,
0,0,1,phase_2,green_rhombus,stop,blue,0.0,0-SSD,go-1,4,,,,,,
1,599.0,1,phase_2,red_circle,go,,,,go-2,1,,,,,,
2,574.0,1,phase_2,red_rhombus,go,,,,go-2,1,,,,,,
2,493.0,1,phase_2,green_triangle,go,,,,go-1,1,,,,,,
2,400.0,1,phase_2,red_rhombus,go,,,,go-2,1,,,,,,
0,0,1,phase_2,red_triangle,stop,blue,0.0,0-SSD,go-2,4,,,,,,
1,542.0,1,phase_2,green_pentagon,go,,,,go-1,1,,,,,,
2,471.0,1,phase_2,green_triangle,stop,purple,300.0,tracking-SSD,go-1,3,,,,,,
0,0,1,phase_2,red_triangle,stop,purple,250.0,tracking-SSD,go-2,4,,,,,,
0,0,1,phase_2,green_pentagon,stop,purple,300.0,tracking-SSD,go-1,4,,,,,,
0,0,1,phase_2,red_circle,stop,blue,0.0,0-SSD,go-2,4,,,,,,
2,562.0,1,phase_2,green_pentagon,go,,,,go-1,2,,,,,,
0,0,1,phase_2,green_triangle,stop,blue,0.0,0-SSD,go-1,4,,,,,,
1,523.0,1,phase_2,green_pentagon,go,,,,go-1,1,,,,,,
2,588.0,2,phase_2,red_rhombus,go,,,,go-2,1,,,,,,
2,441.0,2,phase_2,green_triangle,go,,,,go-1,1,,,,,,
1,539.0,2,phase_2,red_circle,go,,,,go-2,1,,,,,,
2,661.0,2,phase_2,red_rhombus,go,,,,go-2,1,,,,,,
1,669.0,2,phase_2,green_pentagon,go,,,,go-1,1,,,,,,
1,577.0,2,phase_2,green_circle,go,,,,go-1,1,,,,,,
0,0,2,phase_2,green_rhombus,stop,blue,0.0,0-SSD,go-1,4,,,,,,
1,663.0,2,phase_2,red_pentagon,go,,,,go-2,1,,,,,,
1,685.0,2,phase_2,red_circle,stop,purple,350.0,tracking-SSD,go-2,3,,,,,,
0,0,2,phase_2,red_pentagon,go,,,,go-2,2,,,,,,
2,523.0,2,phase_2,red_triangle,go,,,,go-2,1,,,,,,
1,644.0,2,phase_2,green_pentagon,go,,,,go-1,1,,,,,,
1,697.0,2,phase_2,green_pentagon,go,,,,go-1,1,,,,,,
2,571.0,2,phase_2,red_triangle,go,,,,go-2,1,,,,,,
0,0,2,phase_2,red_pentagon,stop,blue,0.0,0-SSD,go-2,4,,,,,,
1,702.0,2,phase_2,green_circle,go,,,,go-1,1,,,,,,
1,496.0,2,phase_2,red_circle,stop,purple,300.0,tracking-SSD,go-2,3,,,,,,
2,572.0,2,phase_2,red_triangle,go,,,,go-2,1,,,,,,
2,479.0,2,phase_2,green_triangle,go,,,,go-1,1,,,,,,
0,0,2,phase_2,green_circle,stop,purple,250.0,tracking-SSD,go-1,4,,,,,,
2,655.0,2,phase_2,red_rhombus,go,,,,go-2,1,,,,,,
0,0,2,phase_2,green_rhombus,stop,purple,300.0,tracking-SSD,go-1,4,,,,,,
2,537.0,2,phase_2,green_triangle,go,,,,go-1,1,,,,,,
2,500.0,2,phase_2,red_triangle,go,,,,go-2,1,,,,,,
1,622.0,2,phase_2,green_pentagon,go,,,,go-1,1,,,,,,
0,0,2,phase_2,green_rhombus,stop,blue,0.0,0-SSD,go-1,4,,,,,,
2,585.0,2,phase_2,red_rhombus,go,,,,go-2,1,,,,,,
0,0,2,phase_2,red_rhombus,stop,blue,0.0,0-SSD,go-2,4,,,,,,
1,590.0,2,phase_2,red_pentagon,go,,,,go-2,1,,,,,,
0,0,2,phase_2,red_triangle,stop,blue,0.0,0-SSD,go-2,4,,,,,,
0,0,2,phase_2,green_rhombus,stop,blue,0.0,0-SSD,go-1,4,,,,,,
2,483.0,2,phase_2,red_rhombus,go,,,,go-2,1,,,,,,
1,661.0,2,phase_2,green_pentagon,stop,purple,350.0,tracking-SSD,go-1,3,,,,,,
1,950.0,2,phase_2,green_circle,go,,,,go-1,1,,,,,,
2,498.0,2,phase_2,green_triangle,go,,,,go-1,1,,,,,,
1,472.0,2,phase_2,green_circle,go,,,,go-1,1,,,,,,
0,0,2,phase_2,red_rhombus,stop,blue,0.0,0-SSD,go-2,4,,,,,,
2,469.0,2,phase_2,green_triangle,go,,,,go-1,1,,,,,,
2,387.0,2,phase_2,green_triangle,stop,purple,300.0,tracking-SSD,go-1,3,,,,,,
1,520.0,2,phase_2,red_circle,go,,,,go-2,1,,,,,,
1,665.0,2,phase_2,green_circle,go,,,,go-1,1,,,,,,
2,538.0,2,phase_2,red_rhombus,go,,,,go-2,1,,,,,,
1,716.0,2,phase_2,green_pentagon,go,,,,go-1,1,,,,,,
0,0,2,phase_2,green_pentagon,stop,blue,0.0,0-SSD,go-1,4,,,,,,
1,508.0,2,phase_2,green_circle,go,,,,go-1,1,,,,,,
2,449.0,2,phase_2,red_triangle,stop,purple,250.0,tracking-SSD,go-2,3,,,,,,
0,0,2,phase_2,red_circle,stop,purple,200.0,tracking-SSD,go-2,4,,,,,,
1,637.0,2,phase_2,red_pentagon,go,,,,go-2,1,,,,,,
1,510.0,3,phase_2,red_pentagon,go,,,,go-2,1,,,,,,
1,542.0,3,phase_2,red_circle,go,,,,go-2,1,,,,,,
0,0,3,phase_2,red_rhombus,stop,blue,0.0,0-SSD,go-2,4,,,,,,
1,582.0,3,phase_2,red_pentagon,go,,,,go-2,1,,,,,,
2,591.0,3,phase_2,red_rhombus,go,,,,go-2,1,,,,,,
2,532.0,3,phase_2,green_triangle,go,,,,go-1,1,,,,,,
1,508.0,3,phase_2,green_circle,go,,,,go-1,1,,,,,,
2,541.0,3,phase_2,red_pentagon,stop,purple,250.0,tracking-SSD,go-2,3,,,,,,
0,0,3,phase_2,green_rhombus,stop,purple,200.0,tracking-SSD,go-1,4,,,,,,
0,0,3,phase_2,green_pentagon,stop,blue,0.0,0-SSD,go-1,4,,,,,,
2,557.0,3,phase_2,green_triangle,go,,,,go-1,1,,,,,,
1,521.0,3,phase_2,red_pentagon,go,,,,go-2,1,,,,,,
0,0,3,phase_2,green_circle,stop,purple,250.0,tracking-SSD,go-1,4,,,,,,
2,674.0,3,phase_2,red_triangle,go,,,,go-2,1,,,,,,
1,672.0,3,phase_2,green_pentagon,go,,,,go-1,1,,,,,,
2,422.0,3,phase_2,red_triangle,go,,,,go-2,1,,,,,,
2,655.0,3,phase_2,green_triangle,go,,,,go-1,1,,,,,,
2,642.0,3,phase_2,green_rhombus,go,,,,go-1,1,,,,,,
2,493.0,3,phase_2,green_triangle,go,,,,go-1,1,,,,,,
1,558.0,3,phase_2,green_circle,go,,,,go-1,1,,,,,,
2,398.0,3,phase_2,green_rhombus,go,,,,go-1,1,,,,,,
1,665.0,3,phase_2,green_circle,go,,,,go-1,1,,,,,,
2,405.0,3,phase_2,green_triangle,go,,,,go-1,1,,,,,,
0,0,3,phase_2,red_triangle,stop,blue,0.0,0-SSD,go-2,4,,,,,,
0,0,3,phase_2,red_triangle,stop,purple,300.0,tracking-SSD,go-2,4,,,,,,
0,0,3,phase_2,green_pentagon,stop,blue,0.0,0-SSD,go-1,4,,,,,,
1,688.0,3,phase_2,red_pentagon,go,,,,go-2,1,,,,,,
2,516.0,3,phase_2,red_triangle,go,,,,go-2,1,,,,,,
2,615.0,3,phase_2,red_rhombus,go,,,,go-2,1,,,,,,
2,491.0,3,phase_2,red_rhombus,stop,purple,350.0,tracking-SSD,go-2,3,,,,,,
1,612.0,3,phase_2,red_pentagon,go,,,,go-2,1,,,,,,
1,565.0,3,phase_2,red_pentagon,go,,,,go-2,1,,,,,,
1,427.0,3,phase_2,red_pentagon,go,,,,go-2,1,,,,,,
0,0,3,phase_2,red_circle,stop,purple,300.0,tracking-SSD,go-2,4,,,,,,
0,0,3,phase_2,green_rhombus,stop,blue,0.0,0-SSD,go-1,4,,,,,,
0,0,3,phase_2,red_rhombus,stop,blue,0.0,0-SSD,go-2,4,,,,,,
2,474.0,3,phase_2,green_triangle,go,,,,go-1,1,,,,,,
2,505.0,3,phase_2,red_triangle,go,,,,go-2,1,,,,,,
0,0,3,phase_2,green_circle,stop,blue,0.0,0-SSD,go-1,4,,,,,,
2,568.0,3,phase_2,green_rhombus,go,,,,go-1,1,,,,,,
0,0,3,phase_2,red_circle,stop,blue,0.0,0-SSD,go-2,4,,,,,,
2,461.0,3,phase_2,red_rhombus,go,,,,go-2,1,,,,,,
1,672.0,3,phase_2,red_circle,go,,,,go-2,1,,,,,,
2,534.0,3,phase_2,green_rhombus,stop,purple,350.0,tracking-SSD,go-1,3,,,,,,
1,577.0,3,phase_2,green_circle,go,,,,go-1,1,,,,,,
0,0,3,phase_2,green_circle,stop,purple,300.0,tracking-SSD,go-1,4,,,,,,
1,843.0,3,phase_2,green_circle,go,,,,go-1,1,,,,,,
1,648.0,3,phase_2,green_pentagon,go,,,,go-1,1,,,,,,
1,600.0,4,phase_2,red_pentagon,go,,,,go-2,1,,,,,,
2,530.0,4,phase_2,red_rhombus,stop,purple,350.0,tracking-SSD,go-2,3,,,,,,
1,562.0,4,phase_2,green_pentagon,go,,,,go-1,1,,,,,,
0,0,4,phase_2,green_rhombus,stop,blue,0.0,0-SSD,go-1,4,,,,,,
2,456.0,4,phase_2,red_triangle,go,,,,go-2,1,,,,,,
1,644.0,4,phase_2,red_circle,stop,purple,300.0,tracking-SSD,go-2,3,,,,,,
1,788.0,4,phase_2,green_pentagon,go,,,,go-1,1,,,,,,
2,494.0,4,phase_2,red_rhombus,go,,,,go-2,1,,,,,,
2,604.0,4,phase_2,green_triangle,go,,,,go-1,1,,,,,,
2,501.0,4,phase_2,red_rhombus,go,,,,go-2,1,,,,,,
2,453.0,4,phase_2,red_triangle,go,,,,go-2,1,,,,,,
2,474.0,4,phase_2,red_rhombus,go,,,,go-2,1,,,,,,
2,428.0,4,phase_2,green_triangle,go,,,,go-1,1,,,,,,
2,460.0,4,phase_2,green_rhombus,stop,purple,250.0,tracking-SSD,go-1,3,,,,,,
1,536.0,4,phase_2,red_pentagon,go,,,,go-2,1,,,,,,
2,488.0,4,phase_2,red_triangle,go,,,,go-2,1,,,,,,
0,0,4,phase_2,red_circle,stop,blue,0.0,0-SSD,go-2,4,,,,,,
1,844.0,4,phase_2,green_pentagon,go,,,,go-1,1,,,,,,
1,571.0,4,phase_2,red_circle,go,,,,go-2,1,,,,,,
0,0,4,phase_2,green_circle,stop,purple,200.0,tracking-SSD,go-1,4,,,,,,
1,567.0,4,phase_2,green_pentagon,go,,,,go-1,1,,,,,,
2,474.0,4,phase_2,green_rhombus,go,,,,go-1,1,,,,,,
2,517.0,4,phase_2,green_triangle,go,,,,go-1,1,,,,,,
0,0,4,phase_2,red_triangle,stop,blue,0.0,0-SSD,go-2,4,,,,,,
1,669.0,4,phase_2,green_circle,go,,,,go-1,1,,,,,,
1,633.0,4,phase_2,green_circle,go,,,,go-1,1,,,,,,
2,472.0,4,phase_2,red_triangle,go,,,,go-2,1,,,,,,
0,0,4,phase_2,green_circle,stop,blue,0.0,0-SSD,go-1,4,,,,,,
2,580.0,4,phase_2,red_rhombus,go,,,,go-2,1,,,,,,
0,0,4,phase_2,red_circle,stop,blue,0.0,0-SSD,go-2,4,,,,,,
0,0,4,phase_2,red_triangle,stop,purple,250.0,tracking-SSD,go-2,4,,,,,,
2,710.0,4,phase_2,red_rhombus,go,,,,go-2,1,,,,,,
2,448.0,4,phase_2,green_rhombus,go,,,,go-1,1,,,,,,
0,0,4,phase_2,red_pentagon,stop,purple,300.0,tracking-SSD,go-2,4,,,,,,
2,443.0,4,phase_2,green_rhombus,go,,,,go-1,1,,,,,,
0,0,4,phase_2,red_triangle,stop,blue,0.0,0-SSD,go-2,4,,,,,,
1,619.0,4,phase_2,red_pentagon,go,,,,go-2,1,,,,,,
2,447.0,4,phase_2,green_triangle,stop,purple,350.0,tracking-SSD,go-1,3,,,,,,
1,681.0,4,phase_2,green_pentagon,go,,,,go-1,1,,,,,,
1,646.0,4,phase_2,green_pentagon,go,,,,go-1,1,,,,,,
0,0,4,phase_2,green_pentagon,stop,purple,300.0,tracking-SSD,go-1,4,,,,,,
0,0,4,phase_2,green_circle,stop,blue,0.0,0-SSD,go-1,4,,,,,,
0,0,4,phase_2,green_pentagon,stop,blue,0.0,0-SSD,go-1,4,,,,,,
1,671.0,4,phase_2,red_circle,go,,,,go-2,1,,,,,,
1,432.0,4,phase_2,green_circle,go,,,,go-1,1,,,,,,
2,441.0,4,phase_2,green_triangle,go,,,,go-1,1,,,,,,
2,630.0,4,phase_2,red_rhombus,go,,,,go-2,1,,,,,,
2,481.0,4,phase_2,red_circle,go,,,,go-2,2,,,,,,
2,430.0,5,phase_2,green_rhombus,go,,,,go-1,1,,,,,,
2,440.0,5,phase_2,red_rhombus,go,,,,go-2,1,,,,,,
0,0,5,phase_2,red_rhombus,stop,blue,0.0,0-SSD,go-2,4,,,,,,
1,536.0,5,phase_2,green_circle,go,,,,go-1,1,,,,,,
2,713.0,5,phase_2,green_pentagon,go,,,,go-1,2,,,,,,
1,609.0,5,phase_2,green_circle,stop,purple,350.0,tracking-SSD,go-1,3,,,,,,
2,450.0,5,phase_2,green_rhombus,go,,,,go-1,1,,,,,,
1,649.0,5,phase_2,red_pentagon,go,,,,go-2,1,,,,,,
1,737.0,5,phase_2,red_pentagon,go,,,,go-2,1,,,,,,
1,555.0,5,phase_2,green_rhombus,go,,,,go-1,2,,,,,,
1,686.0,5,phase_2,green_circle,go,,,,go-1,1,,,,,,
0,0,5,phase_2,green_pentagon,stop,blue,0.0,0-SSD,go-1,4,,,,,,
1,614.0,5,phase_2,red_circle,go,,,,go-2,1,,,,,,
1,645.0,5,phase_2,green_circle,go,,,,go-1,1,,,,,,
2,542.0,5,phase_2,green_triangle,stop,purple,300.0,tracking-SSD,go-1,3,,,,,,
0,0,5,phase_2,red_rhombus,stop,blue,0.0,0-SSD,go-2,4,,,,,,
0,0,5,phase_2,red_circle,stop,blue,0.0,0-SSD,go-2,4,,,,,,
1,669.0,5,phase_2,red_pentagon,go,,,,go-2,1,,,,,,
0,0,5,phase_2,green_pentagon,stop,purple,250.0,tracking-SSD,go-1,4,,,,,,
2,521.0,5,phase_2,red_triangle,go,,,,go-2,1,,,,,,
1,822.0,5,phase_2,red_pentagon,go,,,,go-2,1,,,,,,
1,661.0,5,phase_2,red_circle,go,,,,go-2,1,,,,,,
1,479.0,5,phase_2,red_circle,go,,,,go-2,1,,,,,,
1,578.0,5,phase_2,green_circle,go,,,,go-1,1,,,,,,
1,553.0,5,phase_2,green_pentagon,go,,,,go-1,1,,,,,,
1,561.0,5,phase_2,red_circle,stop,purple,300.0,tracking-SSD,go-2,3,,,,,,
0,0,5,phase_2,red_pentagon,stop,blue,0.0,0-SSD,go-2,4,,,,,,
0,0,5,phase_2,green_triangle,stop,blue,0.0,0-SSD,go-1,4,,,,,,
2,532.0,5,phase_2,red_triangle,go,,,,go-2,1,,,,,,
0,0,5,phase_2,green_rhombus,stop,blue,0.0,0-SSD,go-1,4,,,,,,
2,527.0,5,phase_2,red_triangle,go,,,,go-2,1,,,,,,
1,681.0,5,phase_2,red_pentagon,go,,,,go-2,1,,,,,,
2,814.0,5,phase_2,green_rhombus,go,,,,go-1,1,,,,,,
2,463.0,5,phase_2,red_rhombus,go,,,,go-2,1,,,,,,
0,0,5,phase_2,red_circle,stop,purple,250.0,tracking-SSD,go-2,4,,,,,,
0,0,5,phase_2,red_triangle,stop,purple,300.0,tracking-SSD,go-2,4,,,,,,
2,613.0,5,phase_2,green_triangle,go,,,,go-1,1,,,,,,
2,475.0,5,phase_2,red_triangle,go,,,,go-2,1,,,,,,
2,495.0,5,phase_2,green_triangle,go,,,,go-1,1,,,,,,
1,594.0,5,phase_2,green_pentagon,go,,,,go-1,1,,,,,,
2,423.0,5,phase_2,red_triangle,go,,,,go-2,1,,,,,,
2,657.0,5,phase_2,green_rhombus,go,,,,go-1,1,,,,,,
0,0,5,phase_2,green_circle,stop,blue,0.0,0-SSD,go-1,4,,,,,,
2,527.0,5,phase_2,green_triangle,stop,purple,350.0,tracking-SSD,go-1,3,,,,,,
0,0,5,phase_2,red_pentagon,stop,purple,300.0,tracking-SSD,go-2,4,,,,,,
2,657.0,5,phase_2,green_rhombus,go,,,,go-1,1,,,,,,
2,756.0,5,phase_2,red_rhombus,go,,,,go-2,1,,,,,,
2,505.0,5,phase_2,green_triangle,go,,,,go-1,1,,,,,,
2,420.0,6,phase_2,green_rhombus,stop,purple,350.0,tracking-SSD,go-1,3,,,,,,
2,441.0,6,phase_2,green_triangle,go,,,,go-1,1,,,,,,
2,394.0,6,phase_2,red_triangle,go,,,,go-2,1,,,,,,
1,728.0,6,phase_2,green_pentagon,go,,,,go-1,1,,,,,,
1,524.0,6,phase_2,red_pentagon,go,,,,go-2,1,,,,,,
1,600.0,6,phase_2,red_circle,go,,,,go-2,1,,,,,,
1,440.0,6,phase_2,green_circle,go,,,,go-1,1,,,,,,
2,506.0,6,phase_2,green_triangle,go,,,,go-1,1,,,,,,
0,0,6,phase_2,red_rhombus,stop,purple,300.0,tracking-SSD,go-2,4,,,,,,
1,546.0,6,phase_2,green_circle,stop,purple,350.0,tracking-SSD,go-1,3,,,,,,
0,0,6,phase_2,red_rhombus,stop,blue,0.0,0-SSD,go-2,4,,,,,,
2,585.0,6,phase_2,green_rhombus,go,,,,go-1,1,,,,,,
2,538.0,6,phase_2,red_triangle,stop,purple,300.0,tracking-SSD,go-2,3,,,,,,
0,0,6,phase_2,green_triangle,stop,purple,250.0,tracking-SSD,go-1,4,,,,,,
1,657.0,6,phase_2,red_pentagon,go,,,,go-2,1,,,,,,
1,597.0,6,phase_2,red_circle,go,,,,go-2,1,,,,,,
2,538.0,6,phase_2,green_triangle,stop,purple,300.0,tracking-SSD,go-1,3,,,,,,
0,0,6,phase_2,green_circle,stop,blue,0.0,0-SSD,go-1,4,,,,,,
1,669.0,6,phase_2,red_pentagon,go,,,,go-2,1,,,,,,
0,0,6,phase_2,green_pentagon,stop,blue,0.0,0-SSD,go-1,4,,,,,,
0,0,6,phase_2,red_rhombus,stop,purple,250.0,tracking-SSD,go-2,4,,,,,,
2,638.0,6,phase_2,green_triangle,go,,,,go-1,1,,,,,,
2,658.0,6,phase_2,red_rhombus,go,,,,go-2,1,,,,,,
2,476.0,6,phase_2,green_rhombus,go,,,,go-1,1,,,,,,
0,0,6,phase_2,green_triangle,stop,blue,0.0,0-SSD,go-1,4,,,,,,
1,527.0,6,phase_2,green_circle,go,,,,go-1,1,,,,,,
2,525.0,6,phase_2,red_triangle,go,,,,go-2,1,,,,,,
2,589.0,6,phase_2,green_rhombus,go,,,,go-1,1,,,,,,
0,0,6,phase_2,red_triangle,stop,blue,0.0,0-SSD,go-2,4,,,,,,
1,618.0,6,phase_2,red_pentagon,go,,,,go-2,1,,,,,,
2,572.0,6,phase_2,green_rhombus,go,,,,go-1,1,,,,,,
2,558.0,6,phase_2,green_triangle,go,,,,go-1,1,,,,,,
1,600.0,6,phase_2,red_circle,go,,,,go-2,1,,,,,,
1,754.0,6,phase_2,green_circle,go,,,,go-1,1,,,,,,
1,694.0,6,phase_2,green_pentagon,go,,,,go-1,1,,,,,,
2,637.0,6,phase_2,green_rhombus,go,,,,go-1,1,,,,,,
0,0,6,phase_2,red_pentagon,stop,blue,0.0,0-SSD,go-2,4,,,,,,
0,0,6,phase_2,red_circle,stop,blue,0.0,0-SSD,go-2,4,,,,,,
1,921.0,6,phase_2,green_pentagon,go,,,,go-1,1,,,,,,
2,671.0,6,phase_2,red_rhombus,go,,,,go-2,1,,,,,,
1,703.0,6,phase_2,red_pentagon,stop,purple,300.0,tracking-SSD,go-2,3,,,,,,
1,645.0,6,phase_2,red_pentagon,go,,,,go-2,1,,,,,,
1,642.0,6,phase_2,red_circle,go,,,,go-2,1,,,,,,
2,595.0,6,phase_2,red_triangle,go,,,,go-2,1,,,,,,
1,614.0,6,phase_2,red_circle,go,,,,go-2,1,,,,,,
0,0,6,phase_2,green_circle,stop,blue,0.0,0-SSD,go-1,4,,,,,,
1,653.0,6,phase_2,green_pentagon,go,,,,go-1,1,,,,,,
2,583.0,6,phase_2,red_rhombus,go,,,,go-2,1,,,,,,
0,0,7,phase_2,green_triangle,stop,blue,0.0,0-SSD,go-1,4,,,,,,
2,473.0,7,phase_2,green_rhombus,go,,,,go-1,1,,,,,,
2,448.0,7,phase_2,red_rhombus,go,,,,go-2,1,,,,,,
1,535.0,7,phase_2,red_circle,go,,,,go-2,1,,,,,,
1,680.0,7,phase_2,red_circle,go,,,,go-2,1,,,,,,
1,722.0,7,phase_2,red_pentagon,go,,,,go-2,1,,,,,,
2,415.0,7,phase_2,red_triangle,stop,purple,250.0,tracking-SSD,go-2,3,,,,,,
0,0,7,phase_2,red_rhombus,stop,purple,200.0,tracking-SSD,go-2,4,,,,,,
1,534.0,7,phase_2,red_circle,go,,,,go-2,1,,,,,,
2,521.0,7,phase_2,green_triangle,go,,,,go-1,1,,,,,,
2,574.0,7,phase_2,green_rhombus,go,,,,go-1,1,,,,,,
1,571.0,7,phase_2,green_circle,go,,,,go-1,1,,,,,,
1,569.0,7,phase_2,green_circle,go,,,,go-1,1,,,,,,
2,522.0,7,phase_2,green_rhombus,go,,,,go-1,1,,,,,,
2,441.0,7,phase_2,green_rhombus,go,,,,go-1,1,,,,,,
0,0,7,phase_2,red_rhombus,stop,blue,0.0,0-SSD,go-2,4,,,,,,
2,503.0,7,phase_2,green_rhombus,go,,,,go-1,1,,,,,,
1,444.0,7,phase_2,red_circle,go,,,,go-2,1,,,,,,
0,0,7,phase_2,green_pentagon,stop,blue,0.0,0-SSD,go-1,4,,,,,,
2,541.0,7,phase_2,red_triangle,go,,,,go-2,1,,,,,,
2,414.0,7,phase_2,red_triangle,go,,,,go-2,1,,,,,,
2,435.0,7,phase_2,red_triangle,go,,,,go-2,1,,,,,,
1,589.0,7,phase_2,red_circle,go,,,,go-2,1,,,,,,
0,0,7,phase_2,red_pentagon,stop,blue,0.0,0-SSD,go-2,4,,,,,,
0,0,7,phase_2,green_pentagon,stop,purple,250.0,tracking-SSD,go-1,4,,,,,,
0,0,7,phase_2,red_triangle,stop,purple,300.0,tracking-SSD,go-2,4,,,,,,
0,0,7,phase_2,green_pentagon,stop,purple,350.0,tracking-SSD,go-1,4,,,,,,
2,849.0,7,phase_2,red_rhombus,go,,,,go-2,1,,,,,,
0,0,7,phase_2,green_triangle,stop,blue,0.0,0-SSD,go-1,4,,,,,,
0,0,7,phase_2,green_pentagon,stop,purple,400.0,tracking-SSD,go-1,4,,,,,,
1,696.0,7,phase_2,red_pentagon,go,,,,go-2,1,,,,,,
0,0,7,phase_2,red_circle,stop,blue,0.0,0-SSD,go-2,4,,,,,,
2,466.0,7,phase_2,green_triangle,go,,,,go-1,1,,,,,,
1,688.0,7,phase_2,green_pentagon,go,,,,go-1,1,,,,,,
2,472.0,7,phase_2,red_rhombus,go,,,,go-2,1,,,,,,
1,695.0,7,phase_2,red_pentagon,go,,,,go-2,1,,,,,,
2,412.0,7,phase_2,green_triangle,go,,,,go-1,1,,,,,,
2,558.0,7,phase_2,green_rhombus,go,,,,go-1,1,,,,,,
1,543.0,7,phase_2,green_pentagon,go,,,,go-1,1,,,,,,
1,575.0,7,phase_2,green_circle,stop,purple,450.0,tracking-SSD,go-1,3,,,,,,
0,0,7,phase_2,red_circle,stop,blue,0.0,0-SSD,go-2,4,,,,,,
2,538.0,7,phase_2,red_triangle,go,,,,go-2,1,,,,,,
2,446.0,7,phase_2,red_triangle,go,,,,go-2,1,,,,,,
1,521.0,7,phase_2,green_pentagon,go,,,,go-1,1,,,,,,
0,0,7,phase_2,green_circle,stop,blue,0.0,0-SSD,go-1,4,,,,,,
1,663.0,7,phase_2,green_pentagon,go,,,,go-1,1,,,,,,
2,480.0,7,phase_2,red_rhombus,stop,purple,400.0,tracking-SSD,go-2,3,,,,,,
1,557.0,7,phase_2,green_circle,go,,,,go-1,1,,,,,,
1,556.0,8,phase_2,red_circle,stop,purple,350.0,tracking-SSD,go-2,3,,,,,,
0,0,8,phase_2,green_circle,stop,blue,0.0,0-SSD,go-1,4,,,,,,
1,664.0,8,phase_2,red_pentagon,go,,,,go-2,1,,,,,,
2,471.0,8,phase_2,green_rhombus,go,,,,go-1,1,,,,,,
1,502.0,8,phase_2,red_circle,go,,,,go-2,1,,,,,,
2,465.0,8,phase_2,green_rhombus,go,,,,go-1,1,,,,,,
2,395.0,8,phase_2,red_rhombus,go,,,,go-2,1,,,,,,
0,0,8,phase_2,red_triangle,stop,blue,0.0,0-SSD,go-2,4,,,,,,
2,357.0,8,phase_2,red_triangle,go,,,,go-2,1,,,,,,
0,0,8,phase_2,green_triangle,stop,blue,0.0,0-SSD,go-1,4,,,,,,
2,385.0,8,phase_2,red_triangle,go,,,,go-2,1,,,,,,
2,416.0,8,phase_2,red_triangle,stop,purple,300.0,tracking-SSD,go-2,3,,,,,,
0,0,8,phase_2,red_circle,stop,blue,0.0,0-SSD,go-2,4,,,,,,
2,444.0,8,phase_2,green_rhombus,go,,,,go-1,1,,,,,,
1,420.0,8,phase_2,red_circle,go,,,,go-2,1,,,,,,
0,0,8,phase_2,green_pentagon,stop,blue,0.0,0-SSD,go-1,4,,,,,,
1,595.0,8,phase_2,green_circle,go,,,,go-1,1,,,,,,
1,682.0,8,phase_2,red_circle,go,,,,go-2,1,,,,,,
2,792.0,8,phase_2,green_rhombus,go,,,,go-1,1,,,,,,
0,0,8,phase_2,red_circle,stop,purple,250.0,tracking-SSD,go-2,4,,,,,,
2,551.0,8,phase_2,red_triangle,go,,,,go-2,1,,,,,,
1,717.0,8,phase_2,green_circle,go,,,,go-1,1,,,,,,
2,523.0,8,phase_2,red_rhombus,go,,,,go-2,1,,,,,,
2,498.0,8,phase_2,red_rhombus,go,,,,go-2,1,,,,,,
1,619.0,8,phase_2,green_pentagon,go,,,,go-1,1,,,,,,
2,448.0,8,phase_2,green_triangle,stop,purple,300.0,tracking-SSD,go-1,3,,,,,,
1,581.0,8,phase_2,red_pentagon,go,,,,go-2,1,,,,,,
1,624.0,8,phase_2,red_circle,go,,,,go-2,1,,,,,,
2,476.0,8,phase_2,red_triangle,go,,,,go-2,1,,,,,,
2,485.0,8,phase_2,green_triangle,go,,,,go-1,1,,,,,,
1,606.0,8,phase_2,green_pentagon,go,,,,go-1,1,,,,,,
1,650.0,8,phase_2,red_pentagon,go,,,,go-2,1,,,,,,
0,0,8,phase_2,red_triangle,stop,blue,0.0,0-SSD,go-2,4,,,,,,
2,464.0,8,phase_2,red_rhombus,go,,,,go-2,1,,,,,,
0,0,8,phase_2,green_pentagon,stop,blue,0.0,0-SSD,go-1,4,,,,,,
1,582.0,8,phase_2,green_pentagon,go,,,,go-1,1,,,,,,
2,468.0,8,phase_2,green_rhombus,go,,,,go-1,1,,,,,,
1,488.0,8,phase_2,red_pentagon,stop,purple,250.0,tracking-SSD,go-2,3,,,,,,
1,654.0,8,phase_2,green_circle,go,,,,go-1,1,,,,,,
0,0,8,phase_2,red_pentagon,stop,blue,0.0,0-SSD,go-2,4,,,,,,
0,0,8,phase_2,green_pentagon,stop,purple,200.0,tracking-SSD,go-1,4,,,,,,
2,635.0,8,phase_2,red_rhombus,go,,,,go-2,1,,,,,,
1,666.0,8,phase_2,green_circle,go,,,,go-1,1,,,,,,
1,709.0,8,phase_2,green_pentagon,go,,,,go-1,1,,,,,,
0,0,8,phase_2,green_triangle,stop,purple,250.0,tracking-SSD,go-1,4,,,,,,
2,534.0,8,phase_2,green_triangle,go,,,,go-1,1,,,,,,
2,589.0,8,phase_2,green_rhombus,go,,,,go-1,1,,,,,,
2,496.0,8,phase_2,green_rhombus,stop,purple,300.0,tracking-SSD,go-1,3,,,,,,
0,0,9,phase_2,red_circle,stop,purple,250.0,tracking-SSD,go-2,4,,,,,,
0,0,9,phase_2,green_rhombus,stop,blue,0.0,0-SSD,go-1,4,,,,,,
2,752.0,9,phase_2,red_triangle,go,,,,go-2,1,,,,,,
1,614.0,9,phase_2,red_pentagon,go,,,,go-2,1,,,,,,
1,702.0,9,phase_2,red_pentagon,go,,,,go-2,1,,,,,,
2,734.0,9,phase_2,green_rhombus,go,,,,go-1,1,,,,,,
1,563.0,9,phase_2,green_circle,go,,,,go-1,1,,,,,,
0,0,9,phase_2,red_pentagon,stop,blue,0.0,0-SSD,go-2,4,,,,,,
2,535.0,9,phase_2,green_triangle,go,,,,go-1,1,,,,,,
0,0,9,phase_2,green_pentagon,stop,blue,0.0,0-SSD,go-1,4,,,,,,
2,464.0,9,phase_2,red_rhombus,go,,,,go-2,1,,,,,,
0,0,9,phase_2,green_triangle,stop,purple,300.0,tracking-SSD,go-1,4,,,,,,
1,539.0,9,phase_2,red_circle,go,,,,go-2,1,,,,,,
2,481.0,9,phase_2,green_rhombus,go,,,,go-1,1,,,,,,
2,490.0,9,phase_2,green_triangle,go,,,,go-1,1,,,,,,
2,566.0,9,phase_2,red_triangle,go,,,,go-2,1,,,,,,
1,619.0,9,phase_2,red_circle,go,,,,go-2,1,,,,,,
2,483.0,9,phase_2,green_triangle,stop,purple,350.0,tracking-SSD,go-1,3,,,,,,
2,570.0,9,phase_2,red_triangle,go,,,,go-2,1,,,,,,
1,545.0,9,phase_2,green_pentagon,go,,,,go-1,1,,,,,,
1,644.0,9,phase_2,green_pentagon,go,,,,go-1,1,,,,,,
0,0,9,phase_2,red_triangle,stop,blue,0.0,0-SSD,go-2,4,,,,,,
2,514.0,9,phase_2,red_rhombus,go,,,,go-2,1,,,,,,
1,657.0,9,phase_2,red_pentagon,go,,,,go-2,1,,,,,,
2,408.0,9,phase_2,green_triangle,go,,,,go-1,1,,,,,,
2,451.0,9,phase_2,green_triangle,go,,,,go-1,1,,,,,,
2,504.0,9,phase_2,green_rhombus,go,,,,go-1,1,,,,,,
2,512.0,9,phase_2,red_rhombus,stop,purple,300.0,tracking-SSD,go-2,3,,,,,,
0,0,9,phase_2,red_circle,stop,blue,0.0,0-SSD,go-2,4,,,,,,
1,587.0,9,phase_2,red_circle,go,,,,go-2,1,,,,,,
0,0,9,phase_2,red_rhombus,stop,purple,250.0,tracking-SSD,go-2,4,,,,,,
0,0,9,phase_2,green_pentagon,stop,purple,300.0,tracking-SSD,go-1,4,,,,,,
2,658.0,9,phase_2,green_rhombus,go,,,,go-1,1,,,,,,
1,576.0,9,phase_2,green_pentagon,go,,,,go-1,1,,,,,,
1,562.0,9,phase_2,green_pentagon,go,,,,go-1,1,,,,,,
0,0,9,phase_2,green_rhombus,stop,blue,0.0,0-SSD,go-1,4,,,,,,
1,569.0,9,phase_2,red_circle,stop,purple,350.0,tracking-SSD,go-2,3,,,,,,
1,735.0,9,phase_2,green_circle,go,,,,go-1,1,,,,,,
1,563.0,9,phase_2,red_pentagon,go,,,,go-2,1,,,,,,
1,538.0,9,phase_2,red_circle,go,,,,go-2,1,,,,,,
2,513.0,9,phase_2,green_rhombus,go,,,,go-1,1,,,,,,
2,455.0,9,phase_2,red_triangle,go,,,,go-2,1,,,,,,
1,600.0,9,phase_2,red_pentagon,go,,,,go-2,1,,,,,,
0,0,9,phase_2,red_circle,stop,blue,0.0,0-SSD,go-2,4,,,,,,
2,584.0,9,phase_2,red_triangle,go,,,,go-2,1,,,,,,
0,0,9,phase_2,green_rhombus,stop,purple,300.0,tracking-SSD,go-1,4,,,,,,
0,0,9,phase_2,green_circle,stop,blue,0.0,0-SSD,go-1,4,,,,,,
1,609.0,9,phase_2,green_circle,go,,,,go-1,1,,,,,,
2,522.0,10,phase_2,green_triangle,go,,,,go-1,1,,,,,,
0,0,10,phase_2,green_pentagon,stop,blue,0.0,0-SSD,go-1,4,,,,,,
1,561.0,10,phase_2,green_circle,go,,,,go-1,1,,,,,,
1,536.0,10,phase_2,green_circle,go,,,,go-1,1,,,,,,
0,0,10,phase_2,green_pentagon,stop,blue,0.0,0-SSD,go-1,4,,,,,,
2,542.0,10,phase_2,red_rhombus,go,,,,go-2,1,,,,,,
2,472.0,10,phase_2,green_rhombus,go,,,,go-1,1,,,,,,
1,582.0,10,phase_2,green_pentagon,go,,,,go-1,1,,,,,,
2,456.0,10,phase_2,green_triangle,stop,purple,350.0,tracking-SSD,go-1,3,,,,,,
2,420.0,10,phase_2,green_rhombus,go,,,,go-1,1,,,,,,
0,0,10,phase_2,red_circle,stop,blue,0.0,0-SSD,go-2,4,,,,,,
1,640.0,10,phase_2,red_pentagon,go,,,,go-2,1,,,,,,
1,626.0,10,phase_2,green_pentagon,go,,,,go-1,1,,,,,,
2,612.0,10,phase_2,red_triangle,go,,,,go-2,1,,,,,,
1,654.0,10,phase_2,red_pentagon,stop,purple,300.0,tracking-SSD,go-2,3,,,,,,
0,0,10,phase_2,green_triangle,stop,blue,0.0,0-SSD,go-1,4,,,,,,
2,537.0,10,phase_2,red_rhombus,go,,,,go-2,1,,,,,,
0,0,10,phase_2,red_pentagon,stop,blue,0.0,0-SSD,go-2,4,,,,,,
2,487.0,10,phase_2,green_triangle,go,,,,go-1,1,,,,,,
2,665.0,10,phase_2,red_triangle,go,,,,go-2,1,,,,,,
2,516.0,10,phase_2,red_rhombus,go,,,,go-2,1,,,,,,
1,604.0,10,phase_2,red_pentagon,go,,,,go-2,1,,,,,,
2,488.0,10,phase_2,green_rhombus,go,,,,go-1,1,,,,,,
0,0,10,phase_2,green_triangle,stop,purple,250.0,tracking-SSD,go-1,4,,,,,,
0,0,10,phase_2,red_rhombus,stop,purple,300.0,tracking-SSD,go-2,4,,,,,,
1,740.0,10,phase_2,green_circle,go,,,,go-1,1,,,,,,
2,546.0,10,phase_2,red_rhombus,go,,,,go-2,1,,,,,,
2,499.0,10,phase_2,red_rhombus,stop,purple,350.0,tracking-SSD,go-2,3,,,,,,
0,0,10,phase_2,green_rhombus,stop,purple,300.0,tracking-SSD,go-1,4,,,,,,
1,595.0,10,phase_2,red_circle,go,,,,go-2,1,,,,,,
2,707.0,10,phase_2,red_triangle,go,,,,go-2,1,,,,,,
1,547.0,10,phase_2,green_circle,go,,,,go-1,1,,,,,,
0,0,10,phase_2,red_rhombus,stop,blue,0.0,0-SSD,go-2,4,,,,,,
1,655.0,10,phase_2,green_pentagon,go,,,,go-1,1,,,,,,
0,0,10,phase_2,red_circle,stop,purple,350.0,tracking-SSD,go-2,4,,,,,,
2,562.0,10,phase_2,green_triangle,stop,purple,400.0,tracking-SSD,go-1,3,,,,,,
1,638.0,10,phase_2,red_circle,go,,,,go-2,1,,,,,,
1,433.0,10,phase_2,green_circle,go,,,,go-1,1,,,,,,
2,510.0,10,phase_2,red_triangle,go,,,,go-2,1,,,,,,
0,0,10,phase_2,red_rhombus,stop,blue,0.0,0-SSD,go-2,4,,,,,,
1,560.0,10,phase_2,green_pentagon,go,,,,go-1,1,,,,,,
0,0,10,phase_2,green_circle,stop,blue,0.0,0-SSD,go-1,4,,,,,,
1,849.0,10,phase_2,green_pentagon,go,,,,go-1,1,,,,,,
1,677.0,10,phase_2,red_circle,go,,,,go-2,1,,,,,,
2,506.0,10,phase_2,red_triangle,go,,,,go-2,1,,,,,,
2,829.0,10,phase_2,red_triangle,go,,,,go-2,1,,,,,,
1,545.0,10,phase_2,red_circle,go,,,,go-2,1,,,,,,
1,577.0,10,phase_2,green_pentagon,go,,,,go-1,1,,,,,,
1,543.0,11,phase_2,green_circle,go,,,,go-1,1,,,,,,
2,463.0,11,phase_2,red_rhombus,go,,,,go-2,1,,,,,,
2,471.0,11,phase_2,green_triangle,stop,purple,350.0,tracking-SSD,go-1,3,,,,,,
0,0,11,phase_2,red_rhombus,stop,blue,0.0,0-SSD,go-2,4,,,,,,
2,533.0,11,phase_2,red_rhombus,go,,,,go-2,1,,,,,,
1,531.0,11,phase_2,green_circle,go,,,,go-1,1,,,,,,
0,0,11,phase_2,green_circle,stop,blue,0.0,0-SSD,go-1,4,,,,,,
2,458.0,11,phase_2,red_triangle,go,,,,go-2,1,,,,,,
0,0,11,phase_2,red_pentagon,stop,blue,0.0,0-SSD,go-2,4,,,,,,
2,555.0,11,phase_2,red_triangle,go,,,,go-2,1,,,,,,
2,508.0,11,phase_2,green_triangle,go,,,,go-1,1,,,,,,
0,0,11,phase_2,red_pentagon,stop,purple,300.0,tracking-SSD,go-2,4,,,,,,
1,685.0,11,phase_2,green_circle,go,,,,go-1,1,,,,,,
2,424.0,11,phase_2,green_triangle,go,,,,go-1,1,,,,,,
1,568.0,11,phase_2,red_circle,stop,purple,350.0,tracking-SSD,go-2,3,,,,,,
2,497.0,11,phase_2,green_rhombus,go,,,,go-1,1,,,,,,
1,720.0,11,phase_2,green_pentagon,go,,,,go-1,1,,,,,,
2,537.0,11,phase_2,green_rhombus,go,,,,go-1,1,,,,,,
1,579.0,11,phase_2,green_circle,go,,,,go-1,1,,,,,,
1,543.0,11,phase_2,red_circle,go,,,,go-2,1,,,,,,
1,720.0,11,phase_2,green_pentagon,go,,,,go-1,1,,,,,,
0,0,11,phase_2,green_rhombus,stop,blue,0.0,0-SSD,go-1,4,,,,,,
2,468.0,11,phase_2,green_rhombus,go,,,,go-1,1,,,,,,
0,0,11,phase_2,red_rhombus,stop,blue,0.0,0-SSD,go-2,4,,,,,,
2,542.0,11,phase_2,green_triangle,go,,,,go-1,1,,,,,,
2,506.0,11,phase_2,green_triangle,go,,,,go-1,1,,,,,,
1,626.0,11,phase_2,red_pentagon,go,,,,go-2,1,,,,,,
1,1029.0,11,phase_2,green_pentagon,go,,,,go-1,1,,,,,,
1,656.0,11,phase_2,red_circle,go,,,,go-2,1,,,,,,
1,586.0,11,phase_2,red_pentagon,go,,,,go-2,1,,,,,,
2,549.0,11,phase_2,red_rhombus,go,,,,go-2,1,,,,,,
0,0,11,phase_2,red_rhombus,stop,purple,300.0,tracking-SSD,go-2,4,,,,,,
0,0,11,phase_2,green_pentagon,stop,blue,0.0,0-SSD,go-1,4,,,,,,
0,0,11,phase_2,green_circle,stop,purple,350.0,tracking-SSD,go-1,4,,,,,,
0,0,11,phase_2,green_pentagon,stop,purple,400.0,tracking-SSD,go-1,4,,,,,,
2,582.0,11,phase_2,red_rhombus,go,,,,go-2,1,,,,,,
2,534.0,11,phase_2,green_triangle,go,,,,go-1,1,,,,,,
1,542.0,11,phase_2,red_circle,go,,,,go-2,1,,,,,,
2,517.0,11,phase_2,red_triangle,go,,,,go-2,1,,,,,,
2,615.0,11,phase_2,red_triangle,go,,,,go-2,1,,,,,,
1,613.0,11,phase_2,red_circle,stop,purple,450.0,tracking-SSD,go-2,3,,,,,,
2,509.0,11,phase_2,green_rhombus,stop,purple,400.0,tracking-SSD,go-1,3,,,,,,
1,800.0,11,phase_2,red_pentagon,go,,,,go-2,1,,,,,,
0,0,11,phase_2,green_pentagon,stop,blue,0.0,0-SSD,go-1,4,,,,,,
2,603.0,11,phase_2,red_triangle,go,,,,go-2,1,,,,,,
0,0,11,phase_2,green_pentagon,go,,,,go-1,2,,,,,,
1,677.0,11,phase_2,red_circle,go,,,,go-2,1,,,,,,
0,0,11,phase_2,red_triangle,stop,blue,0.0,0-SSD,go-2,4,,,,,,
1,554.0,12,phase_2,red_pentagon,stop,purple,350.0,tracking-SSD,go-2,3,,,,,,
0,0,12,phase_2,red_pentagon,stop,blue,0.0,0-SSD,go-2,4,,,,,,
0,0,12,phase_2,red_circle,stop,purple,300.0,tracking-SSD,go-2,4,,,,,,
2,592.0,12,phase_2,green_rhombus,go,,,,go-1,1,,,,,,
1,635.0,12,phase_2,green_pentagon,go,,,,go-1,1,,,,,,
2,530.0,12,phase_2,red_rhombus,go,,,,go-2,1,,,,,,
1,550.0,12,phase_2,red_circle,stop,purple,350.0,tracking-SSD,go-2,3,,,,,,
1,908.0,12,phase_2,red_pentagon,go,,,,go-2,1,,,,,,
0,0,12,phase_2,green_pentagon,stop,blue,0.0,0-SSD,go-1,4,,,,,,
2,432.0,12,phase_2,green_triangle,stop,purple,300.0,tracking-SSD,go-1,3,,,,,,
0,0,12,phase_2,green_triangle,stop,purple,250.0,tracking-SSD,go-1,4,,,,,,
0,0,12,phase_2,red_circle,stop,blue,0.0,0-SSD,go-2,4,,,,,,
2,468.0,12,phase_2,green_triangle,go,,,,go-1,1,,,,,,
1,668.0,12,phase_2,green_circle,go,,,,go-1,1,,,,,,
1,643.0,12,phase_2,red_circle,go,,,,go-2,1,,,,,,
0,0,12,phase_2,green_rhombus,stop,blue,0.0,0-SSD,go-1,4,,,,,,
2,491.0,12,phase_2,red_triangle,go,,,,go-2,1,,,,,,
1,579.0,12,phase_2,red_pentagon,go,,,,go-2,1,,,,,,
2,531.0,12,phase_2,red_triangle,go,,,,go-2,1,,,,,,
2,506.0,12,phase_2,red_triangle,stop,purple,300.0,tracking-SSD,go-2,3,,,,,,
0,0,12,phase_2,red_triangle,stop,blue,0.0,0-SSD,go-2,4,,,,,,
2,512.0,12,phase_2,green_rhombus,go,,,,go-1,1,,,,,,
0,0,12,phase_2,red_pentagon,stop,blue,0.0,0-SSD,go-2,4,,,,,,
2,484.0,12,phase_2,red_triangle,go,,,,go-2,1,,,,,,
1,651.0,12,phase_2,green_pentagon,go,,,,go-1,1,,,,,,
2,581.0,12,phase_2,green_rhombus,go,,,,go-1,1,,,,,,
2,489.0,12,phase_2,red_triangle,go,,,,go-2,1,,,,,,
2,588.0,12,phase_2,green_rhombus,go,,,,go-1,1,,,,,,
0,0,12,phase_2,green_circle,stop,blue,0.0,0-SSD,go-1,4,,,,,,
1,573.0,12,phase_2,green_circle,go,,,,go-1,1,,,,,,
0,0,12,phase_2,green_rhombus,stop,blue,0.0,0-SSD,go-1,4,,,,,,
0,0,12,phase_2,green_pentagon,stop,purple,250.0,tracking-SSD,go-1,4,,,,,,
2,451.0,12,phase_2,green_triangle,go,,,,go-1,1,,,,,,
1,661.0,12,phase_2,green_pentagon,stop,purple,300.0,tracking-SSD,go-1,3,,,,,,
2,816.0,12,phase_2,green_rhombus,go,,,,go-1,1,,,,,,
1,859.0,12,phase_2,green_circle,go,,,,go-1,1,,,,,,
1,744.0,12,phase_2,red_pentagon,go,,,,go-2,1,,,,,,
1,675.0,12,phase_2,red_circle,go,,,,go-2,1,,,,,,
2,560.0,12,phase_2,red_rhombus,go,,,,go-2,1,,,,,,
2,704.0,12,phase_2,red_rhombus,go,,,,go-2,1,,,,,,
1,578.0,12,phase_2,red_circle,go,,,,go-2,1,,,,,,
2,642.0,12,phase_2,green_rhombus,go,,,,go-1,1,,,,,,
2,628.0,12,phase_2,red_triangle,go,,,,go-2,1,,,,,,
2,717.0,12,phase_2,green_rhombus,go,,,,go-1,1,,,,,,
1,703.0,12,phase_2,red_circle,go,,,,go-2,1,,,,,,
2,677.0,12,phase_2,red_triangle,go,,,,go-2,1,,,,,,
1,742.0,12,phase_2,green_circle,go,,,,go-1,1,,,,,,
1,672.0,12,phase_2,green_pentagon,go,,,,go-1,1,,,,,,
1,857.0,13,phase_2,green_circle,go,,,,go-1,1,,,,,,
0,0,13,phase_2,green_pentagon,stop,purple,250.0,tracking-SSD,go-1,4,,,,,,
0,0,13,phase_2,green_triangle,stop,blue,0.0,0-SSD,go-1,4,,,,,,
2,524.0,13,phase_2,red_triangle,stop,purple,300.0,tracking-SSD,go-2,3,,,,,,
0,0,13,phase_2,green_circle,stop,purple,250.0,tracking-SSD,go-1,4,,,,,,
2,654.0,13,phase_2,red_rhombus,go,,,,go-2,1,,,,,,
1,707.0,13,phase_2,red_pentagon,go,,,,go-2,1,,,,,,
0,0,13,phase_2,red_circle,stop,blue,0.0,0-SSD,go-2,4,,,,,,
1,601.0,13,phase_2,green_circle,go,,,,go-1,1,,,,,,
2,465.0,13,phase_2,red_rhombus,go,,,,go-2,1,,,,,,
1,608.0,13,phase_2,green_pentagon,go,,,,go-1,1,,,,,,
2,538.0,13,phase_2,green_triangle,go,,,,go-1,1,,,,,,
2,659.0,13,phase_2,red_rhombus,go,,,,go-2,1,,,,,,
1,577.0,13,phase_2,red_circle,go,,,,go-2,1,,,,,,
2,508.0,13,phase_2,red_rhombus,go,,,,go-2,1,,,,,,
0,0,13,phase_2,green_rhombus,stop,blue,0.0,0-SSD,go-1,4,,,,,,
1,626.0,13,phase_2,green_pentagon,go,,,,go-1,1,,,,,,
2,499.0,13,phase_2,red_triangle,go,,,,go-2,1,,,,,,
2,530.0,13,phase_2,green_triangle,go,,,,go-1,1,,,,,,
1,618.0,13,phase_2,green_circle,go,,,,go-1,1,,,,,,
0,0,13,phase_2,red_pentagon,stop,blue,0.0,0-SSD,go-2,4,,,,,,
2,489.0,13,phase_2,green_rhombus,go,,,,go-1,1,,,,,,
2,486.0,13,phase_2,green_triangle,stop,purple,300.0,tracking-SSD,go-1,3,,,,,,
0,0,13,phase_2,red_circle,stop,blue,0.0,0-SSD,go-2,4,,,,,,
2,571.0,13,phase_2,red_triangle,go,,,,go-2,1,,,,,,
0,0,13,phase_2,red_rhombus,stop,blue,0.0,0-SSD,go-2,4,,,,,,
1,589.0,13,phase_2,green_circle,go,,,,go-1,1,,,,,,
0,0,13,phase_2,green_pentagon,stop,blue,0.0,0-SSD,go-1,4,,,,,,
1,707.0,13,phase_2,green_circle,go,,,,go-1,1,,,,,,
0,0,13,phase_2,green_triangle,stop,blue,0.0,0-SSD,go-1,4,,,,,,
2,466.0,13,phase_2,red_rhombus,go,,,,go-2,1,,,,,,
1,746.0,13,phase_2,red_triangle,go,,,,go-2,2,,,,,,
0,0,13,phase_2,red_pentagon,stop,purple,250.0,tracking-SSD,go-2,4,,,,,,
0,0,13,phase_2,green_circle,stop,purple,300.0,tracking-SSD,go-1,4,,,,,,
2,602.0,13,phase_2,green_triangle,go,,,,go-1,1,,,,,,
1,780.0,13,phase_2,red_circle,go,,,,go-2,1,,,,,,
0,0,13,phase_2,red_rhombus,stop,purple,350.0,tracking-SSD,go-2,4,,,,,,
2,416.0,13,phase_2,green_triangle,go,,,,go-1,1,,,,,,
1,739.0,13,phase_2,red_pentagon,go,,,,go-2,1,,,,,,
0,0,13,phase_2,green_pentagon,go,,,,go-1,2,,,,,,
1,621.0,13,phase_2,green_circle,go,,,,go-1,1,,,,,,
2,562.0,13,phase_2,red_rhombus,go,,,,go-2,1,,,,,,
2,459.0,13,phase_2,red_rhombus,go,,,,go-2,1,,,,,,
1,590.0,13,phase_2,green_pentagon,go,,,,go-1,1,,,,,,
2,499.0,13,phase_2,red_rhombus,stop,purple,400.0,tracking-SSD,go-2,3,,,,,,
1,723.0,13,phase_2,red_pentagon,go,,,,go-2,1,,,,,,
1,687.0,13,phase_2,red_pentagon,go,,,,go-2,1,,,,,,
2,438.0,13,phase_2,green_triangle,go,,,,go-1,1,,,,,,
1,600.0,14,phase_2,green_pentagon,go,,,,go-1,1,,,,,,
0,0,14,phase_2,red_circle,stop,blue,0.0,0-SSD,go-2,4,,,,,,
1,639.0,14,phase_2,red_circle,go,,,,go-2,1,,,,,,
0,0,14,phase_2,red_triangle,stop,blue,0.0,0-SSD,go-2,4,,,,,,
2,443.0,14,phase_2,red_triangle,stop,purple,350.0,tracking-SSD,go-2,3,,,,,,
0,0,14,phase_2,green_triangle,stop,blue,0.0,0-SSD,go-1,4,,,,,,
2,573.0,14,phase_2,red_rhombus,go,,,,go-2,1,,,,,,
2,503.0,14,phase_2,red_rhombus,go,,,,go-2,1,,,,,,
1,849.0,14,phase_2,green_circle,go,,,,go-1,1,,,,,,
2,610.0,14,phase_2,red_triangle,go,,,,go-2,1,,,,,,
2,496.0,14,phase_2,green_triangle,go,,,,go-1,1,,,,,,
2,482.0,14,phase_2,red_triangle,stop,purple,300.0,tracking-SSD,go-2,3,,,,,,
1,614.0,14,phase_2,green_pentagon,go,,,,go-1,1,,,,,,
2,521.0,14,phase_2,red_triangle,go,,,,go-2,1,,,,,,
1,745.0,14,phase_2,green_pentagon,go,,,,go-1,1,,,,,,
0,0,14,phase_2,red_circle,stop,purple,250.0,tracking-SSD,go-2,4,,,,,,
1,739.0,14,phase_2,red_pentagon,go,,,,go-2,1,,,,,,
0,0,14,phase_2,green_pentagon,stop,blue,0.0,0-SSD,go-1,4,,,,,,
1,666.0,14,phase_2,red_circle,go,,,,go-2,1,,,,,,
0,0,14,phase_2,green_pentagon,stop,blue,0.0,0-SSD,go-1,4,,,,,,
2,516.0,14,phase_2,green_rhombus,go,,,,go-1,1,,,,,,
2,501.0,14,phase_2,green_triangle,go,,,,go-1,1,,,,,,
1,611.0,14,phase_2,green_circle,go,,,,go-1,1,,,,,,
0,0,14,phase_2,red_triangle,stop,purple,300.0,tracking-SSD,go-2,4,,,,,,
2,482.0,14,phase_2,red_rhombus,go,,,,go-2,1,,,,,,
2,603.0,14,phase_2,red_rhombus,go,,,,go-2,1,,,,,,
2,770.0,14,phase_2,red_rhombus,go,,,,go-2,1,,,,,,
1,520.0,14,phase_2,red_circle,go,,,,go-2,1,,,,,,
1,731.0,14,phase_2,green_circle,go,,,,go-1,1,,,,,,
0,0,14,phase_2,red_pentagon,stop,blue,0.0,0-SSD,go-2,4,,,,,,
0,0,14,phase_2,green_rhombus,stop,purple,350.0,tracking-SSD,go-1,4,,,,,,
1,814.0,14,phase_2,red_pentagon,go,,,,go-2,1,,,,,,
2,496.0,14,phase_2,green_rhombus,go,,,,go-1,1,,,,,,
1,650.0,14,phase_2,red_pentagon,go,,,,go-2,1,,,,,,
1,625.0,14,phase_2,green_circle,go,,,,go-1,1,,,,,,
2,623.0,14,phase_2,green_rhombus,go,,,,go-1,1,,,,,,
2,452.0,14,phase_2,red_triangle,go,,,,go-2,1,,,,,,
0,0,14,phase_2,green_circle,stop,blue,0.0,0-SSD,go-1,4,,,,,,
2,491.0,14,phase_2,red_triangle,go,,,,go-2,1,,,,,,
2,500.0,14,phase_2,green_rhombus,stop,purple,400.0,tracking-SSD,go-1,3,,,,,,
2,588.0,14,phase_2,green_rhombus,go,,,,go-1,1,,,,,,
0,0,14,phase_2,red_rhombus,stop,blue,0.0,0-SSD,go-2,4,,,,,,
1,684.0,14,phase_2,green_pentagon,go,,,,go-1,1,,,,,,
1,591.0,14,phase_2,green_pentagon,go,,,,go-1,1,,,,,,
1,487.0,14,phase_2,green_pentagon,stop,purple,350.0,tracking-SSD,go-1,3,,,,,,
1,732.0,14,phase_2,green_circle,go,,,,go-1,1,,,,,,
1,573.0,14,phase_2,red_circle,go,,,,go-2,1,,,,,,
2,492.0,14,phase_2,green_triangle,stop,purple,300.0,tracking-SSD,go-1,3,,,,,,
2,487.0,15,phase_2,green_triangle,stop,purple,250.0,tracking-SSD,go-1,3,,,,,,
0,0,15,phase_2,green_pentagon,stop,blue,0.0,0-SSD,go-1,4,,,,,,
0,0,15,phase_2,green_pentagon,stop,blue,0.0,0-SSD,go-1,4,,,,,,
0,0,15,phase_2,red_pentagon,stop,purple,200.0,tracking-SSD,go-2,4,,,,,,
0,0,15,phase_2,green_circle,stop,purple,250.0,tracking-SSD,go-1,4,,,,,,
1,643.0,15,phase_2,green_pentagon,go,,,,go-1,1,,,,,,
0,0,15,phase_2,red_pentagon,stop,blue,0.0,0-SSD,go-2,4,,,,,,
2,492.0,15,phase_2,green_rhombus,go,,,,go-1,1,,,,,,
1,557.0,15,phase_2,green_circle,go,,,,go-1,1,,,,,,
1,576.0,15,phase_2,red_circle,go,,,,go-2,1,,,,,,
2,518.0,15,phase_2,green_rhombus,stop,purple,300.0,tracking-SSD,go-1,3,,,,,,
2,616.0,15,phase_2,green_rhombus,go,,,,go-1,1,,,,,,
1,557.0,15,phase_2,green_circle,go,,,,go-1,1,,,,,,
2,589.0,15,phase_2,red_triangle,go,,,,go-2,1,,,,,,
2,654.0,15,phase_2,red_pentagon,go,,,,go-2,2,,,,,,
0,0,15,phase_2,red_rhombus,stop,purple,250.0,tracking-SSD,go-2,4,,,,,,
2,446.0,15,phase_2,red_triangle,stop,purple,300.0,tracking-SSD,go-2,3,,,,,,
2,533.0,15,phase_2,red_triangle,go,,,,go-2,1,,,,,,
1,609.0,15,phase_2,green_circle,go,,,,go-1,1,,,,,,
0,0,15,phase_2,red_pentagon,stop,blue,0.0,0-SSD,go-2,4,,,,,,
0,0,15,phase_2,green_triangle,stop,blue,0.0,0-SSD,go-1,4,,,,,,
1,568.0,15,phase_2,green_circle,go,,,,go-1,1,,,,,,
2,486.0,15,phase_2,green_triangle,go,,,,go-1,1,,,,,,
0,0,15,phase_2,red_pentagon,stop,blue,0.0,0-SSD,go-2,4,,,,,,
2,436.0,15,phase_2,green_triangle,go,,,,go-1,1,,,,,,
2,546.0,15,phase_2,green_rhombus,go,,,,go-1,1,,,,,,
2,656.0,15,phase_2,green_rhombus,go,,,,go-1,1,,,,,,
2,484.0,15,phase_2,red_rhombus,go,,,,go-2,1,,,,,,
2,528.0,15,phase_2,green_triangle,go,,,,go-1,1,,,,,,
1,637.0,15,phase_2,red_pentagon,go,,,,go-2,1,,,,,,
1,613.0,15,phase_2,green_circle,go,,,,go-1,1,,,,,,
1,632.0,15,phase_2,red_pentagon,go,,,,go-2,1,,,,,,
1,629.0,15,phase_2,green_pentagon,go,,,,go-1,1,,,,,,
2,594.0,15,phase_2,red_triangle,go,,,,go-2,1,,,,,,
2,523.0,15,phase_2,red_triangle,go,,,,go-2,1,,,,,,
0,0,15,phase_2,green_circle,stop,purple,250.0,tracking-SSD,go-1,4,,,,,,
2,486.0,15,phase_2,red_triangle,go,,,,go-2,1,,,,,,
0,0,15,phase_2,red_rhombus,stop,blue,0.0,0-SSD,go-2,4,,,,,,
2,435.0,15,phase_2,green_rhombus,go,,,,go-1,1,,,,,,
1,511.0,15,phase_2,red_circle,stop,purple,300.0,tracking-SSD,go-2,3,,,,,,
1,722.0,15,phase_2,red_circle,go,,,,go-2,1,,,,,,
2,788.0,15,phase_2,green_circle,go,,,,go-1,2,,,,,,
2,581.0,15,phase_2,red_rhombus,go,,,,go-2,1,,,,,,
0,0,15,phase_2,green_pentagon,stop,blue,0.0,0-SSD,go-1,4,,,,,,
2,768.0,15,phase_2,red_rhombus,go,,,,go-2,1,,,,,,
2,653.0,15,phase_2,red_triangle,go,,,,go-2,1,,,,,,
1,539.0,15,phase_2,red_circle,go,,,,go-2,1,,,,,,
2,468.0,15,phase_2,red_rhombus,go,,,,go-2,1,,,,,,
2,466.0,16,phase_2,red_triangle,go,,,,go-2,1,,,,,,
2,487.0,16,phase_2,red_rhombus,go,,,,go-2,1,,,,,,
2,473.0,16,phase_2,green_rhombus,go,,,,go-1,1,,,,,,
2,548.0,16,phase_2,green_triangle,go,,,,go-1,1,,,,,,
2,457.0,16,phase_2,green_triangle,go,,,,go-1,1,,,,,,
1,555.0,16,phase_2,red_pentagon,go,,,,go-2,1,,,,,,
0,0,16,phase_2,green_circle,stop,purple,250.0,tracking-SSD,go-1,4,,,,,,
2,515.0,16,phase_2,red_rhombus,go,,,,go-2,1,,,,,,
1,535.0,16,phase_2,red_circle,go,,,,go-2,1,,,,,,
2,499.0,16,phase_2,green_triangle,go,,,,go-1,1,,,,,,
1,542.0,16,phase_2,red_circle,go,,,,go-2,1,,,,,,
1,484.0,16,phase_2,green_circle,go,,,,go-1,1,,,,,,
1,650.0,16,phase_2,green_pentagon,go,,,,go-1,1,,,,,,
0,0,16,phase_2,red_circle,stop,blue,0.0,0-SSD,go-2,4,,,,,,
2,487.0,16,phase_2,red_rhombus,go,,,,go-2,1,,,,,,
2,518.0,16,phase_2,red_rhombus,go,,,,go-2,1,,,,,,
2,459.0,16,phase_2,green_triangle,stop,purple,300.0,tracking-SSD,go-1,3,,,,,,
2,524.0,16,phase_2,green_rhombus,go,,,,go-1,1,,,,,,
2,645.0,16,phase_2,green_rhombus,go,,,,go-1,1,,,,,,
0,0,16,phase_2,red_triangle,stop,purple,250.0,tracking-SSD,go-2,4,,,,,,
0,0,16,phase_2,red_pentagon,stop,purple,300.0,tracking-SSD,go-2,4,,,,,,
1,683.0,16,phase_2,red_circle,go,,,,go-2,1,,,,,,
1,680.0,16,phase_2,green_circle,go,,,,go-1,1,,,,,,
0,0,16,phase_2,green_pentagon,stop,purple,350.0,tracking-SSD,go-1,4,,,,,,
0,0,16,phase_2,red_circle,stop,blue,0.0,0-SSD,go-2,4,,,,,,
1,1011.0,16,phase_2,green_pentagon,go,,,,go-1,1,,,,,,
0,0,16,phase_2,red_circle,stop,blue,0.0,0-SSD,go-2,4,,,,,,
2,477.0,16,phase_2,green_triangle,go,,,,go-1,1,,,,,,
0,0,16,phase_2,green_triangle,stop,blue,0.0,0-SSD,go-1,4,,,,,,
1,650.0,16,phase_2,green_pentagon,go,,,,go-1,1,,,,,,
2,546.0,16,phase_2,red_rhombus,go,,,,go-2,1,,,,,,
1,725.0,16,phase_2,red_circle,stop,purple,400.0,tracking-SSD,go-2,3,,,,,,
0,0,16,phase_2,green_pentagon,stop,blue,0.0,0-SSD,go-1,4,,,,,,
1,652.0,16,phase_2,red_pentagon,go,,,,go-2,1,,,,,,
1,604.0,16,phase_2,green_pentagon,go,,,,go-1,1,,,,,,
1,580.0,16,phase_2,green_pentagon,go,,,,go-1,1,,,,,,
2,633.0,16,phase_2,red_rhombus,go,,,,go-2,1,,,,,,
0,0,16,phase_2,green_triangle,stop,purple,350.0,tracking-SSD,go-1,4,,,,,,
1,595.0,16,phase_2,red_circle,go,,,,go-2,1,,,,,,
0,0,16,phase_2,red_triangle,stop,blue,0.0,0-SSD,go-2,4,,,,,,
0,0,16,phase_2,green_pentagon,stop,blue,0.0,0-SSD,go-1,4,,,,,,
2,418.0,16,phase_2,red_triangle,stop,purple,400.0,tracking-SSD,go-2,3,,,,,,
1,674.0,16,phase_2,red_pentagon,go,,,,go-2,1,,,,,,
1,784.0,16,phase_2,red_circle,go,,,,go-2,1,,,,,,
2,659.0,16,phase_2,green_rhombus,go,,,,go-1,1,,,,,,
2,678.0,16,phase_2,red_triangle,go,,,,go-2,1,,,,,,
0,0,16,phase_2,green_rhombus,stop,blue,0.0,0-SSD,go-1,4,,,,,,
2,526.0,16,phase_2,green_rhombus,go,,,,go-1,1,,,,,,
2,566.0,17,phase_2,red_triangle,stop,purple,350.0,tracking-SSD,go-2,3,,,,,,
1,619.0,17,phase_2,red_pentagon,go,,,,go-2,1,,,,,,
1,616.0,17,phase_2,green_circle,go,,,,go-1,1,,,,,,
2,568.0,17,phase_2,green_triangle,go,,,,go-1,1,,,,,,
2,579.0,17,phase_2,green_rhombus,go,,,,go-1,1,,,,,,
2,497.0,17,phase_2,green_rhombus,go,,,,go-1,1,,,,,,
2,483.0,17,phase_2,red_rhombus,go,,,,go-2,1,,,,,,
2,515.0,17,phase_2,green_triangle,stop,purple,300.0,tracking-SSD,go-1,3,,,,,,
0,0,17,phase_2,red_rhombus,stop,blue,0.0,0-SSD,go-2,4,,,,,,
0,0,17,phase_2,red_pentagon,stop,blue,0.0,0-SSD,go-2,4,,,,,,
2,462.0,17,phase_2,red_rhombus,go,,,,go-2,1,,,,,,
1,673.0,17,phase_2,green_pentagon,go,,,,go-1,1,,,,,,
1,614.0,17,phase_2,red_pentagon,go,,,,go-2,1,,,,,,
0,0,17,phase_2,red_rhombus,stop,blue,0.0,0-SSD,go-2,4,,,,,,
2,575.0,17,phase_2,red_rhombus,go,,,,go-2,1,,,,,,
1,606.0,17,phase_2,red_circle,go,,,,go-2,1,,,,,,
2,502.0,17,phase_2,green_rhombus,go,,,,go-1,1,,,,,,
1,905.0,17,phase_2,red_circle,go,,,,go-2,1,,,,,,
2,497.0,17,phase_2,green_rhombus,go,,,,go-1,1,,,,,,
2,619.0,17,phase_2,green_triangle,go,,,,go-1,1,,,,,,
0,0,17,phase_2,green_triangle,stop,purple,250.0,tracking-SSD,go-1,4,,,,,,
0,0,17,phase_2,red_circle,stop,purple,300.0,tracking-SSD,go-2,4,,,,,,
0,0,17,phase_2,red_circle,stop,purple,350.0,tracking-SSD,go-2,4,,,,,,
2,440.0,17,phase_2,red_triangle,go,,,,go-2,1,,,,,,
2,571.0,17,phase_2,red_rhombus,go,,,,go-2,1,,,,,,
1,524.0,17,phase_2,green_circle,go,,,,go-1,1,,,,,,
1,646.0,17,phase_2,red_circle,go,,,,go-2,1,,,,,,
0,0,17,phase_2,red_pentagon,stop,blue,0.0,0-SSD,go-2,4,,,,,,
1,687.0,17,phase_2,red_circle,go,,,,go-2,1,,,,,,
1,526.0,17,phase_2,red_circle,go,,,,go-2,1,,,,,,
2,670.0,17,phase_2,red_rhombus,go,,,,go-2,1,,,,,,
1,577.0,17,phase_2,green_pentagon,go,,,,go-1,1,,,,,,
2,529.0,17,phase_2,green_triangle,go,,,,go-1,1,,,,,,
0,0,17,phase_2,green_pentagon,stop,purple,400.0,tracking-SSD,go-1,4,,,,,,
0,0,17,phase_2,red_pentagon,stop,purple,450.0,tracking-SSD,go-2,4,,,,,,
1,714.0,17,phase_2,green_pentagon,go,,,,go-1,1,,,,,,
1,553.0,17,phase_2,green_pentagon,go,,,,go-1,1,,,,,,
0,0,17,phase_2,green_triangle,stop,blue,0.0,0-SSD,go-1,4,,,,,,
1,671.0,17,phase_2,green_circle,go,,,,go-1,1,,,,,,
0,0,17,phase_2,green_circle,stop,blue,0.0,0-SSD,go-1,4,,,,,,
0,0,17,phase_2,green_triangle,stop,blue,0.0,0-SSD,go-1,4,,,,,,
2,506.0,17,phase_2,green_triangle,go,,,,go-1,1,,,,,,
0,0,17,phase_2,green_rhombus,stop,blue,0.0,0-SSD,go-1,4,,,,,,
1,580.0,17,phase_2,green_circle,stop,purple,500.0,tracking-SSD,go-1,3,,,,,,
2,577.0,17,phase_2,green_triangle,go,,,,go-1,1,,,,,,
1,608.0,17,phase_2,red_pentagon,go,,,,go-2,1,,,,,,
1,911.0,17,phase_2,red_pentagon,go,,,,go-2,1,,,,,,
2,492.0,17,phase_2,red_triangle,go,,,,go-2,1,,,,,,
,757.0,1,phase_3,,,,,,,,purple_square,tracking-SSD,red_square,go-2,purple_square,tracking-SSD
,988.0,1,phase_3,,,,,,,,purple_square,tracking-SSD,green_square,go-1,purple_square,tracking-SSD
,713.0,1,phase_3,,,,,,,,blue_square,0-SSD,green_square,go-1,blue_square,0-SSD
,731.0,1,phase_3,,,,,,,,purple_square,tracking-SSD,blue_square,0-SSD,purple_square,tracking-SSD
,1706.0,1,phase_3,,,,,,,,green_square,go-1,green_square,go-1,red_square,go-2
,1353.0,1,phase_3,,,,,,,,blue_square,0-SSD,red_square,go-2,blue_square,0-SSD
,785.0,1,phase_3,,,,,,,,purple_square,tracking-SSD,purple_square,tracking-SSD,green_square,go-1
,692.0,1,phase_3,,,,,,,,purple_square,tracking-SSD,purple_square,tracking-SSD,red_square,go-2
,653.0,1,phase_3,,,,,,,,blue_square,0-SSD,blue_square,0-SSD,red_square,go-2
,683.0,1,phase_3,,,,,,,,blue_square,0-SSD,blue_square,0-SSD,green_square,go-1
,1611.0,1,phase_3,,,,,,,,purple_square,tracking-SSD,purple_square,tracking-SSD,blue_square,0-SSD
,1776.0,1,phase_3,,,,,,,,green_square,go-1,red_square,go-2,green_square,go-1
,1015.0,2,phase_3,,,,,,,,blue_square,0-SSD,red_square,go-2,blue_square,0-SSD
,628.0,2,phase_3,,,,,,,,purple_square,tracking-SSD,red_square,go-2,purple_square,tracking-SSD
,1174.0,2,phase_3,,,,,,,,blue_square,0-SSD,green_square,go-1,blue_square,0-SSD
,1171.0,2,phase_3,,,,,,,,green_square,go-1,green_square,go-1,red_square,go-2
,1435.0,2,phase_3,,,,,,,,purple_square,tracking-SSD,green_square,go-1,purple_square,tracking-SSD
,1904.0,2,phase_3,,,,,,,,purple_square,tracking-SSD,blue_square,0-SSD,purple_square,tracking-SSD
,786.0,2,phase_3,,,,,,,,blue_square,0-SSD,blue_square,0-SSD,green_square,go-1
,747.0,2,phase_3,,,,,,,,blue_square,0-SSD,blue_square,0-SSD,red_square,go-2
,1452.0,2,phase_3,,,,,,,,purple_square,tracking-SSD,purple_square,tracking-SSD,blue_square,0-SSD
,717.0,2,phase_3,,,,,,,,green_square,go-1,red_square,go-2,green_square,go-1
,1151.0,2,phase_3,,,,,,,,red_square,go-2,purple_square,tracking-SSD,red_square,go-2
,1383.0,2,phase_3,,,,,,,,purple_square,tracking-SSD,purple_square,tracking-SSD,green_square,go-1
,2163.0,3,phase_3,,,,,,,,purple_square,tracking-SSD,green_square,go-1,purple_square,tracking-SSD
,1190.0,3,phase_3,,,,,,,,blue_square,0-SSD,red_square,go-2,blue_square,0-SSD
,1073.0,3,phase_3,,,,,,,,blue_square,0-SSD,blue_square,0-SSD,purple_square,tracking-SSD
,709.0,3,phase_3,,,,,,,,blue_square,0-SSD,green_square,go-1,blue_square,0-SSD
,771.0,3,phase_3,,,,,,,,green_square,go-1,green_square,go-1,red_square,go-2
,520.0,3,phase_3,,,,,,,,purple_square,tracking-SSD,red_square,go-2,purple_square,tracking-SSD
,706.0,3,phase_3,,,,,,,,blue_square,0-SSD,blue_square,0-SSD,green_square,go-1
,555.0,3,phase_3,,,,,,,,blue_square,0-SSD,blue_square,0-SSD,red_square,go-2
,495.0,3,phase_3,,,,,,,,blue_square,0-SSD,purple_square,tracking-SSD,blue_square,0-SSD
,1222.0,3,phase_3,,,,,,,,green_square,go-1,red_square,go-2,green_square,go-1
,958.0,3,phase_3,,,,,,,,purple_square,tracking-SSD,purple_square,tracking-SSD,green_square,go-1
,640.0,3,phase_3,,,,,,,,purple_square,tracking-SSD,purple_square,tracking-SSD,red_square,go-2
,1466.0,4,phase_3,,,,,,,,green_square,go-1,green_square,go-1,red_square,go-2
,729.0,4,phase_3,,,,,,,,purple_square,tracking-SSD,red_square,go-2,purple_square,tracking-SSD
,781.0,4,phase_3,,,,,,,,blue_square,0-SSD,blue_square,0-SSD,purple_square,tracking-SSD
,720.0,4,phase_3,,,,,,,,blue_square,0-SSD,green_square,go-1,blue_square,0-SSD
,1008.0,4,phase_3,,,,,,,,purple_square,tracking-SSD,green_square,go-1,purple_square,tracking-SSD
,992.0,4,phase_3,,,,,,,,blue_square,0-SSD,red_square,go-2,blue_square,0-SSD
,854.0,4,phase_3,,,,,,,,green_square,go-1,red_square,go-2,green_square,go-1
,826.0,4,phase_3,,,,,,,,purple_square,tracking-SSD,purple_square,tracking-SSD,red_square,go-2
,788.0,4,phase_3,,,,,,,,blue_square,0-SSD,blue_square,0-SSD,green_square,go-1
,840.0,4,phase_3,,,,,,,,purple_square,tracking-SSD,purple_square,tracking-SSD,blue_square,0-SSD
,1624.0,4,phase_3,,,,,,,,blue_square,0-SSD,blue_square,0-SSD,red_square,go-2
,1213.0,4,phase_3,,,,,,,,purple_square,tracking-SSD,purple_square,tracking-SSD,green_square,go-1
,904.0,5,phase_3,,,,,,,,purple_square,tracking-SSD,red_square,go-2,purple_square,tracking-SSD
,822.0,5,phase_3,,,,,,,,purple_square,tracking-SSD,green_square,go-1,purple_square,tracking-SSD
,873.0,5,phase_3,,,,,,,,blue_square,0-SSD,green_square,go-1,blue_square,0-SSD
,791.0,5,phase_3,,,,,,,,green_square,go-1,green_square,go-1,red_square,go-2
,718.0,5,phase_3,,,,,,,,purple_square,tracking-SSD,blue_square,0-SSD,purple_square,tracking-SSD
,703.0,5,phase_3,,,,,,,,blue_square,0-SSD,red_square,go-2,blue_square,0-SSD
,1689.0,5,phase_3,,,,,,,,green_square,go-1,red_square,go-2,green_square,go-1
,750.0,5,phase_3,,,,,,,,purple_square,tracking-SSD,purple_square,tracking-SSD,red_square,go-2
,1229.0,5,phase_3,,,,,,,,purple_square,tracking-SSD,purple_square,tracking-SSD,blue_square,0-SSD
,1158.0,5,phase_3,,,,,,,,blue_square,0-SSD,blue_square,0-SSD,green_square,go-1
,546.0,5,phase_3,,,,,,,,blue_square,0-SSD,blue_square,0-SSD,red_square,go-2
,1689.0,5,phase_3,,,,,,,,purple_square,tracking-SSD,purple_square,tracking-SSD,green_square,go-1
