response,reaction_time,block,which_phase,stim,stop_signal_trial_type,stop_signal_stimulus,SSD,SSD_type,condition,accuracy,chosen_stim,chosen_cond,stim_left,cond_left,stim_right,cond_right
2,431.0,1,phase_2,blue_pentagon,go,,,,go-2,1,,,,,,
2,361.0,1,phase_2,blue_pentagon,go,,,,go-2,1,,,,,,
2,359.0,1,phase_2,blue_rhombus,go,,,,go-2,1,,,,,,
1,391.0,1,phase_2,purple_triangle,go,,,,go-1,1,,,,,,
2,545.0,1,phase_2,blue_pentagon,stop,green,250.0,tracking-SSD,go-2,3,,,,,,
1,453.0,1,phase_2,blue_triangle,go,,,,go-2,1,,,,,,
2,383.0,1,phase_2,purple_pentagon,stop,green,200.0,tracking-SSD,go-1,3,,,,,,
1,471.0,1,phase_2,blue_circle,go,,,,go-2,1,,,,,,
0,0,1,phase_2,blue_pentagon,stop,red,0.0,0-SSD,go-2,4,,,,,,
0,0,1,phase_2,purple_circle,stop,red,0.0,0-SSD,go-1,4,,,,,,
0,0,1,phase_2,blue_rhombus,stop,green,150.0,tracking-SSD,go-2,4,,,,,,
2,520.0,1,phase_2,purple_rhombus,go,,,,go-1,1,,,,,,
1,495.0,1,phase_2,purple_triangle,go,,,,go-1,1,,,,,,
0,0,1,phase_2,purple_circle,stop,red,0.0,0-SSD,go-1,4,,,,,,
0,0,1,phase_2,purple_rhombus,stop,red,0.0,0-SSD,go-1,4,,,,,,
1,422.0,1,phase_2,purple_pentagon,go,,,,go-1,2,,,,,,
1,556.0,1,phase_2,purple_rhombus,go,,,,go-1,2,,,,,,
1,519.0,1,phase_2,blue_circle,go,,,,go-2,1,,,,,,
1,527.0,1,phase_2,blue_circle,go,,,,go-2,1,,,,,,
2,379.0,1,phase_2,purple_circle,go,,,,go-1,2,,,,,,
2,648.0,1,phase_2,blue_pentagon,go,,,,go-2,1,,,,,,
2,702.0,1,phase_2,purple_pentagon,go,,,,go-1,1,,,,,,
2,453.0,1,phase_2,purple_pentagon,go,,,,go-1,1,,,,,,
2,565.0,1,phase_2,blue_rhombus,go,,,,go-2,1,,,,,,
0,0,1,phase_2,blue_rhombus,stop,red,0.0,0-SSD,go-2,4,,,,,,
1,504.0,1,phase_2,purple_circle,stop,green,200.0,tracking-SSD,go-1,3,,,,,,
2,1053.0,1,phase_2,purple_rhombus,go,,,,go-1,1,,,,,,
0,0,1,phase_2,purple_triangle,stop,red,0.0,0-SSD,go-1,4,,,,,,
1,530.0,1,phase_2,purple_circle,go,,,,go-1,1,,,,,,
0,0,1,phase_2,blue_rhombus,stop,red,0.0,0-SSD,go-2,4,,,,,,
1,547.0,1,phase_2,purple_triangle,go,,,,go-1,1,,,,,,
2,490.0,1,phase_2,purple_pentagon,go,,,,go-1,1,,,,,,
1,444.0,1,phase_2,purple_circle,go,,,,go-1,1,,,,,,
2,565.0,1,phase_2,blue_rhombus,go,,,,go-2,1,,,,,,
0,0,1,phase_2,purple_triangle,stop,green,150.0,tracking-SSD,go-1,4,,,,,,
1,414.0,1,phase_2,blue_circle,go,,,,go-2,1,,,,,,
1,536.0,1,phase_2,blue_triangle,go,,,,go-2,1,,,,,,
1,522.0,1,phase_2,blue_triangle,stop,green,200.0,tracking-SSD,go-2,3,,,,,,
1,497.0,1,phase_2,blue_circle,go,,,,go-2,1,,,,,,
1,395.0,1,phase_2,purple_triangle,go,,,,go-1,1,,,,,,
2,574.0,1,phase_2,blue_rhombus,go,,,,go-2,1,,,,,,
0,0,1,phase_2,blue_pentagon,stop,red,0.0,0-SSD,go-2,4,,,,,,
2,626.0,1,phase_2,blue_pentagon,go,,,,go-2,1,,,,,,
1,467.0,1,phase_2,blue_circle,stop,green,150.0,tracking-SSD,go-2,3,,,,,,
1,711.0,1,phase_2,purple_triangle,go,,,,go-1,1,,,,,,
0,0,1,phase_2,purple_triangle,stop,green,100.0,tracking-SSD,go-1,4,,,,,,
1,360.0,1,phase_2,purple_triangle,go,,,,go-1,1,,,,,,
2,650.0,1,phase_2,blue_rhombus,go,,,,go-2,1,,,,,,
0,0,2,phase_2,blue_rhombus,stop,green,150.0,tracking-SSD,go-2,4,,,,,,
0,0,2,phase_2,purple_rhombus,stop,green,200.0,tracking-SSD,go-1,4,,,,,,
1,462.0,2,phase_2,blue_circle,go,,,,go-2,1,,,,,,
1,414.0,2,phase_2,blue_rhombus,stop,green,250.0,tracking-SSD,go-2,3,,,,,,
1,468.0,2,phase_2,blue_circle,go,,,,go-2,1,,,,,,
2,454.0,2,phase_2,purple_pentagon,go,,,,go-1,1,,,,,,
1,430.0,2,phase_2,blue_circle,go,,,,go-2,1,,,,,,
1,473.0,2,phase_2,purple_circle,go,,,,go-1,1,,,,,,
2,561.0,2,phase_2,purple_rhombus,go,,,,go-1,1,,,,,,
0,0,2,phase_2,purple_triangle,stop,green,200.0,tracking-SSD,go-1,4,,,,,,
2,546.0,2,phase_2,purple_rhombus,go,,,,go-1,1,,,,,,
2,442.0,2,phase_2,blue_rhombus,go,,,,go-2,1,,,,,,
0,0,2,phase_2,blue_rhombus,stop,red,0.0,0-SSD,go-2,4,,,,,,
2,505.0,2,phase_2,purple_pentagon,stop,green,250.0,tracking-SSD,go-1,3,,,,,,
1,480.0,2,phase_2,blue_circle,go,,,,go-2,1,,,,,,
2,366.0,2,phase_2,blue_pentagon,go,,,,go-2,1,,,,,,
2,410.0,2,phase_2,purple_pentagon,go,,,,go-1,1,,,,,,
1,453.0,2,phase_2,purple_circle,go,,,,go-1,1,,,,,,
2,328.0,2,phase_2,purple_pentagon,go,,,,go-1,1,,,,,,
2,381.0,2,phase_2,blue_rhombus,go,,,,go-2,1,,,,,,
2,448.0,2,phase_2,blue_pentagon,go,,,,go-2,1,,,,,,
2,402.0,2,phase_2,purple_triangle,go,,,,go-1,2,,,,,,
1,490.0,2,phase_2,purple_circle,go,,,,go-1,1,,,,,,
1,454.0,2,phase_2,purple_circle,go,,,,go-1,1,,,,,,
2,405.0,2,phase_2,blue_pentagon,go,,,,go-2,1,,,,,,
0,0,2,phase_2,purple_rhombus,stop,red,0.0,0-SSD,go-1,4,,,,,,
2,718.0,2,phase_2,blue_triangle,go,,,,go-2,2,,,,,,
0,0,2,phase_2,blue_triangle,stop,red,0.0,0-SSD,go-2,4,,,,,,
1,391.0,2,phase_2,blue_triangle,go,,,,go-2,1,,,,,,
1,399.0,2,phase_2,blue_triangle,go,,,,go-2,1,,,,,,
1,465.0,2,phase_2,purple_triangle,go,,,,go-1,1,,,,,,
2,417.0,2,phase_2,purple_pentagon,go,,,,go-1,1,,,,,,
2,506.0,2,phase_2,purple_pentagon,stop,green,200.0,tracking-SSD,go-1,3,,,,,,
1,381.0,2,phase_2,purple_triangle,go,,,,go-1,1,,,,,,
0,0,2,phase_2,blue_pentagon,stop,green,150.0,tracking-SSD,go-2,4,,,,,,
2,454.0,2,phase_2,purple_pentagon,go,,,,go-1,1,,,,,,
0,0,2,phase_2,blue_rhombus,stop,red,0.0,0-SSD,go-2,4,,,,,,
0,0,2,phase_2,purple_triangle,stop,red,0.0,0-SSD,go-1,4,,,,,,
0,0,2,phase_2,purple_triangle,stop,red,0.0,0-SSD,go-1,4,,,,,,
1,456.0,2,phase_2,purple_circle,go,,,,go-1,1,,,,,,
2,533.0,2,phase_2,blue_pentagon,go,,,,go-2,1,,,,,,
0,0,2,phase_2,blue_triangle,stop,red,0.0,0-SSD,go-2,4,,,,,,
1,325.0,2,phase_2,blue_circle,go,,,,go-2,1,,,,,,
0,0,2,phase_2,purple_circle,stop,red,0.0,0-SSD,go-1,4,,,,,,
1,581.0,2,phase_2,purple_triangle,go,,,,go-1,1,,,,,,
1,511.0,2,phase_2,blue_circle,stop,green,200.0,tracking-SSD,go-2,3,,,,,,
2,542.0,2,phase_2,blue_rhombus,go,,,,go-2,1,,,,,,
1,393.0,2,phase_2,blue_rhombus,go,,,,go-2,2,,,,,,
0,0,3,phase_2,blue_rhombus,stop,red,0.0,0-SSD,go-2,4,,,,,,
0,0,3,phase_2,purple_circle,stop,green,150.0,tracking-SSD,go-1,4,,,,,,
2,539.0,3,phase_2,blue_pentagon,go,,,,go-2,1,,,,,,
2,526.0,3,phase_2,purple_rhombus,go,,,,go-1,1,,,,,,
2,625.0,3,phase_2,blue_pentagon,go,,,,go-2,1,,,,,,
2,432.0,3,phase_2,purple_pentagon,go,,,,go-1,1,,,,,,
1,407.0,3,phase_2,purple_circle,stop,green,200.0,tracking-SSD,go-1,3,,,,,,
0,0,3,phase_2,purple_pentagon,stop,green,150.0,tracking-SSD,go-1,4,,,,,,
0,0,3,phase_2,blue_triangle,stop,red,0.0,0-SSD,go-2,4,,,,,,
1,411.0,3,phase_2,blue_triangle,go,,,,go-2,1,,,,,,
0,0,3,phase_2,purple_rhombus,stop,red,0.0,0-SSD,go-1,4,,,,,,
0,0,3,phase_2,blue_triangle,stop,green,200.0,tracking-SSD,go-2,4,,,,,,
1,550.0,3,phase_2,blue_circle,go,,,,go-2,1,,,,,,
1,412.0,3,phase_2,blue_triangle,go,,,,go-2,1,,,,,,
0,0,3,phase_2,blue_circle,stop,red,0.0,0-SSD,go-2,4,,,,,,
2,498.0,3,phase_2,purple_pentagon,go,,,,go-1,1,,,,,,
0,0,3,phase_2,purple_triangle,stop,red,0.0,0-SSD,go-1,4,,,,,,
2,393.0,3,phase_2,purple_rhombus,go,,,,go-1,1,,,,,,
1,448.0,3,phase_2,blue_circle,stop,green,250.0,tracking-SSD,go-2,3,,,,,,
0,0,3,phase_2,blue_rhombus,stop,red,0.0,0-SSD,go-2,4,,,,,,
1,576.0,3,phase_2,purple_circle,go,,,,go-1,1,,,,,,
1,440.0,3,phase_2,blue_rhombus,go,,,,go-2,2,,,,,,
2,585.0,3,phase_2,purple_circle,go,,,,go-1,2,,,,,,
1,493.0,3,phase_2,purple_circle,go,,,,go-1,1,,,,,,
2,570.0,3,phase_2,purple_pentagon,go,,,,go-1,1,,,,,,
1,680.0,3,phase_2,blue_circle,go,,,,go-2,1,,,,,,
1,542.0,3,phase_2,blue_circle,stop,green,200.0,tracking-SSD,go-2,3,,,,,,
2,473.0,3,phase_2,blue_pentagon,go,,,,go-2,1,,,,,,
2,830.0,3,phase_2,blue_rhombus,go,,,,go-2,1,,,,,,
2,492.0,3,phase_2,purple_pentagon,go,,,,go-1,1,,,,,,
1,445.0,3,phase_2,purple_circle,go,,,,go-1,1,,,,,,
2,454.0,3,phase_2,purple_triangle,go,,,,go-1,2,,,,,,
2,575.0,3,phase_2,blue_pentagon,go,,,,go-2,1,,,,,,
2,528.0,3,phase_2,purple_triangle,go,,,,go-1,2,,,,,,
2,549.0,3,phase_2,blue_pentagon,go,,,,go-2,1,,,,,,
0,0,3,phase_2,purple_rhombus,stop,red,0.0,0-SSD,go-1,4,,,,,,
1,331.0,3,phase_2,purple_triangle,go,,,,go-1,1,,,,,,
0,0,3,phase_2,blue_triangle,stop,green,150.0,tracking-SSD,go-2,4,,,,,,
1,371.0,3,phase_2,purple_triangle,go,,,,go-1,1,,,,,,
2,492.0,3,phase_2,blue_pentagon,go,,,,go-2,1,,,,,,
2,444.0,3,phase_2,purple_rhombus,go,,,,go-1,1,,,,,,
2,399.0,3,phase_2,purple_rhombus,go,,,,go-1,1,,,,,,
2,417.0,3,phase_2,blue_pentagon,go,,,,go-2,1,,,,,,
2,372.0,3,phase_2,blue_triangle,go,,,,go-2,2,,,,,,
1,561.0,3,phase_2,blue_circle,go,,,,go-2,1,,,,,,
0,0,3,phase_2,purple_triangle,stop,green,200.0,tracking-SSD,go-1,4,,,,,,
2,647.0,3,phase_2,blue_rhombus,go,,,,go-2,1,,,,,,
0,0,3,phase_2,purple_rhombus,stop,red,0.0,0-SSD,go-1,4,,,,,,
1,522.0,4,phase_2,blue_circle,stop,green,250.0,tracking-SSD,go-2,3,,,,,,
0,0,4,phase_2,blue_triangle,stop,red,0.0,0-SSD,go-2,4,,,,,,
0,0,4,phase_2,blue_circle,stop,red,0.0,0-SSD,go-2,4,,,,,,
0,0,4,phase_2,purple_circle,stop,red,0.0,0-SSD,go-1,4,,,,,,
2,683.0,4,phase_2,blue_triangle,go,,,,go-2,2,,,,,,
2,625.0,4,phase_2,purple_rhombus,go,,,,go-1,1,,,,,,
0,0,4,phase_2,purple_rhombus,stop,red,0.0,0-SSD,go-1,4,,,,,,
1,542.0,4,phase_2,blue_triangle,go,,,,go-2,1,,,,,,
2,517.0,4,phase_2,purple_pentagon,go,,,,go-1,1,,,,,,
2,526.0,4,phase_2,blue_pentagon,stop,green,200.0,tracking-SSD,go-2,3,,,,,,
2,446.0,4,phase_2,blue_rhombus,go,,,,go-2,1,,,,,,
2,455.0,4,phase_2,blue_rhombus,go,,,,go-2,1,,,,,,
2,419.0,4,phase_2,purple_rhombus,go,,,,go-1,1,,,,,,
2,384.0,4,phase_2,purple_rhombus,go,,,,go-1,1,,,,,,
1,438.0,4,phase_2,blue_pentagon,go,,,,go-2,2,,,,,,
2,491.0,4,phase_2,purple_pentagon,stop,green,150.0,tracking-SSD,go-1,3,,,,,,
1,432.0,4,phase_2,blue_circle,go,,,,go-2,1,,,,,,
0,0,4,phase_2,purple_triangle,stop,green,100.0,tracking-SSD,go-1,4,,,,,,
1,428.0,4,phase_2,blue_triangle,go,,,,go-2,1,,,,,,
1,471.0,4,phase_2,purple_circle,go,,,,go-1,1,,,,,,
1,413.0,4,phase_2,purple_triangle,go,,,,go-1,1,,,,,,
2,455.0,4,phase_2,blue_circle,go,,,,go-2,2,,,,,,
0,0,4,phase_2,blue_triangle,stop,red,0.0,0-SSD,go-2,4,,,,,,
1,473.0,4,phase_2,blue_triangle,stop,green,150.0,tracking-SSD,go-2,3,,,,,,
2,472.0,4,phase_2,blue_pentagon,go,,,,go-2,1,,,,,,
1,480.0,4,phase_2,blue_circle,go,,,,go-2,1,,,,,,
2,513.0,4,phase_2,purple_pentagon,go,,,,go-1,1,,,,,,
2,443.0,4,phase_2,purple_rhombus,go,,,,go-1,1,,,,,,
1,564.0,4,phase_2,purple_triangle,go,,,,go-1,1,,,,,,
2,641.0,4,phase_2,blue_rhombus,go,,,,go-2,1,,,,,,
1,526.0,4,phase_2,purple_circle,go,,,,go-1,1,,,,,,
1,421.0,4,phase_2,purple_circle,go,,,,go-1,1,,,,,,
0,0,4,phase_2,blue_rhombus,stop,red,0.0,0-SSD,go-2,4,,,,,,
0,0,4,phase_2,purple_rhombus,stop,green,100.0,tracking-SSD,go-1,4,,,,,,
0,0,4,phase_2,purple_circle,stop,red,0.0,0-SSD,go-1,4,,,,,,
1,505.0,4,phase_2,blue_triangle,go,,,,go-2,1,,,,,,
2,569.0,4,phase_2,purple_pentagon,go,,,,go-1,1,,,,,,
0,0,4,phase_2,purple_rhombus,stop,red,0.0,0-SSD,go-1,4,,,,,,
0,0,4,phase_2,purple_rhombus,stop,green,150.0,tracking-SSD,go-1,4,,,,,,
1,608.0,4,phase_2,purple_triangle,go,,,,go-1,1,,,,,,
2,528.0,4,phase_2,purple_pentagon,go,,,,go-1,1,,,,,,
1,537.0,4,phase_2,purple_triangle,go,,,,go-1,1,,,,,,
2,501.0,4,phase_2,blue_pentagon,go,,,,go-2,1,,,,,,
1,442.0,4,phase_2,purple_circle,go,,,,go-1,1,,,,,,
0,0,4,phase_2,blue_circle,stop,green,200.0,tracking-SSD,go-2,4,,,,,,
2,460.0,4,phase_2,blue_pentagon,go,,,,go-2,1,,,,,,
1,434.0,4,phase_2,blue_pentagon,go,,,,go-2,2,,,,,,
2,499.0,4,phase_2,blue_pentagon,go,,,,go-2,1,,,,,,
1,544.0,5,phase_2,purple_circle,stop,green,250.0,tracking-SSD,go-1,3,,,,,,
2,418.0,5,phase_2,blue_pentagon,go,,,,go-2,1,,,,,,
1,494.0,5,phase_2,blue_rhombus,go,,,,go-2,2,,,,,,
1,581.0,5,phase_2,purple_circle,go,,,,go-1,1,,,,,,
1,736.0,5,phase_2,blue_triangle,go,,,,go-2,1,,,,,,
0,0,5,phase_2,blue_rhombus,stop,red,0.0,0-SSD,go-2,4,,,,,,
2,498.0,5,phase_2,purple_rhombus,go,,,,go-1,1,,,,,,
1,529.0,5,phase_2,blue_triangle,go,,,,go-2,1,,,,,,
1,449.0,5,phase_2,purple_triangle,go,,,,go-1,1,,,,,,
2,705.0,5,phase_2,blue_pentagon,go,,,,go-2,1,,,,,,
2,455.0,5,phase_2,blue_rhombus,stop,green,200.0,tracking-SSD,go-2,3,,,,,,
2,398.0,5,phase_2,blue_rhombus,go,,,,go-2,1,,,,,,
2,406.0,5,phase_2,purple_pentagon,go,,,,go-1,1,,,,,,
0,0,5,phase_2,purple_circle,stop,red,0.0,0-SSD,go-1,4,,,,,,
2,515.0,5,phase_2,blue_rhombus,go,,,,go-2,1,,,,,,
2,637.0,5,phase_2,blue_triangle,go,,,,go-2,2,,,,,,
0,0,5,phase_2,blue_triangle,stop,green,150.0,tracking-SSD,go-2,4,,,,,,
1,465.0,5,phase_2,blue_triangle,go,,,,go-2,1,,,,,,
1,395.0,5,phase_2,blue_circle,go,,,,go-2,1,,,,,,
1,393.0,5,phase_2,blue_triangle,go,,,,go-2,1,,,,,,
1,537.0,5,phase_2,purple_triangle,go,,,,go-1,1,,,,,,
0,0,5,phase_2,blue_pentagon,stop,green,200.0,tracking-SSD,go-2,4,,,,,,
1,443.0,5,phase_2,purple_circle,go,,,,go-1,1,,,,,,
1,406.0,5,phase_2,blue_triangle,go,,,,go-2,1,,,,,,
2,393.0,5,phase_2,purple_pentagon,go,,,,go-1,1,,,,,,
1,492.0,5,phase_2,purple_triangle,stop,green,250.0,tracking-SSD,go-1,3,,,,,,
2,602.0,5,phase_2,purple_pentagon,go,,,,go-1,1,,,,,,
1,431.0,5,phase_2,blue_circle,go,,,,go-2,1,,,,,,
2,474.0,5,phase_2,purple_rhombus,go,,,,go-1,1,,,,,,
1,540.0,5,phase_2,purple_circle,go,,,,go-1,1,,,,,,
2,504.0,5,phase_2,blue_rhombus,go,,,,go-2,1,,,,,,
1,558.0,5,phase_2,purple_circle,go,,,,go-1,1,,,,,,
0,0,5,phase_2,blue_circle,stop,green,200.0,tracking-SSD,go-2,4,,,,,,
1,542.0,5,phase_2,purple_triangle,go,,,,go-1,1,,,,,,
1,406.0,5,phase_2,purple_rhombus,go,,,,go-1,2,,,,,,
1,550.0,5,phase_2,blue_circle,go,,,,go-2,1,,,,,,
0,0,5,phase_2,blue_triangle,stop,red,0.0,0-SSD,go-2,4,,,,,,
0,0,5,phase_2,purple_pentagon,stop,red,0.0,0-SSD,go-1,4,,,,,,
2,599.0,5,phase_2,purple_pentagon,go,,,,go-1,1,,,,,,
0,0,5,phase_2,blue_rhombus,stop,red,0.0,0-SSD,go-2,4,,,,,,
2,448.0,5,phase_2,blue_pentagon,go,,,,go-2,1,,,,,,
0,0,5,phase_2,purple_pentagon,stop,green,250.0,tracking-SSD,go-1,4,,,,,,
0,0,5,phase_2,blue_rhombus,stop,red,0.0,0-SSD,go-2,4,,,,,,
0,0,5,phase_2,purple_pentagon,stop,red,0.0,0-SSD,go-1,4,,,,,,
2,519.0,5,phase_2,purple_pentagon,go,,,,go-1,1,,,,,,
1,438.0,5,phase_2,purple_circle,stop,green,300.0,tracking-SSD,go-1,3,,,,,,
0,0,5,phase_2,purple_circle,stop,red,0.0,0-SSD,go-1,4,,,,,,
2,490.0,5,phase_2,purple_rhombus,go,,,,go-1,1,,,,,,
1,578.0,6,phase_2,blue_triangle,go,,,,go-2,1,,,,,,
2,462.0,6,phase_2,purple_rhombus,go,,,,go-1,1,,,,,,
1,438.0,6,phase_2,blue_triangle,go,,,,go-2,1,,,,,,
1,413.0,6,phase_2,purple_triangle,stop,green,250.0,tracking-SSD,go-1,3,,,,,,
2,602.0,6,phase_2,purple_rhombus,go,,,,go-1,1,,,,,,
1,475.0,6,phase_2,blue_circle,go,,,,go-2,1,,,,,,
1,517.0,6,phase_2,purple_circle,go,,,,go-1,1,,,,,,
0,0,6,phase_2,blue_rhombus,stop,red,0.0,0-SSD,go-2,4,,,,,,
0,0,6,phase_2,blue_pentagon,stop,red,0.0,0-SSD,go-2,4,,,,,,
1,479.0,6,phase_2,blue_circle,stop,green,200.0,tracking-SSD,go-2,3,,,,,,
0,0,6,phase_2,purple_pentagon,stop,red,0.0,0-SSD,go-1,4,,,,,,
0,0,6,phase_2,purple_rhombus,stop,green,150.0,tracking-SSD,go-1,4,,,,,,
2,426.0,6,phase_2,purple_rhombus,go,,,,go-1,1,,,,,,
1,526.0,6,phase_2,purple_triangle,go,,,,go-1,1,,,,,,
0,0,6,phase_2,blue_triangle,stop,green,200.0,tracking-SSD,go-2,4,,,,,,
1,476.0,6,phase_2,purple_triangle,go,,,,go-1,1,,,,,,
1,562.0,6,phase_2,purple_circle,go,,,,go-1,1,,,,,,
2,505.0,6,phase_2,purple_pentagon,go,,,,go-1,1,,,,,,
1,524.0,6,phase_2,blue_circle,go,,,,go-2,1,,,,,,
0,0,6,phase_2,blue_pentagon,stop,red,0.0,0-SSD,go-2,4,,,,,,
1,510.0,6,phase_2,blue_triangle,go,,,,go-2,1,,,,,,
1,419.0,6,phase_2,purple_triangle,go,,,,go-1,1,,,,,,
2,450.0,6,phase_2,blue_pentagon,go,,,,go-2,1,,,,,,
1,436.0,6,phase_2,purple_circle,go,,,,go-1,1,,,,,,
1,537.0,6,phase_2,blue_triangle,go,,,,go-2,1,,,,,,
1,422.0,6,phase_2,purple_triangle,go,,,,go-1,1,,,,,,
1,431.0,6,phase_2,blue_rhombus,stop,green,250.0,tracking-SSD,go-2,3,,,,,,
2,754.0,6,phase_2,purple_rhombus,go,,,,go-1,1,,,,,,
1,459.0,6,phase_2,blue_circle,go,,,,go-2,1,,,,,,
2,468.0,6,phase_2,blue_pentagon,go,,,,go-2,1,,,,,,
1,477.0,6,phase_2,purple_circle,go,,,,go-1,1,,,,,,
0,0,6,phase_2,blue_pentagon,stop,red,0.0,0-SSD,go-2,4,,,,,,
2,585.0,6,phase_2,purple_rhombus,go,,,,go-1,1,,,,,,
2,481.0,6,phase_2,blue_rhombus,go,,,,go-2,1,,,,,,
0,0,6,phase_2,purple_triangle,stop,red,0.0,0-SSD,go-1,4,,,,,,
1,479.0,6,phase_2,blue_circle,stop,green,200.0,tracking-SSD,go-2,3,,,,,,
2,476.0,6,phase_2,blue_pentagon,go,,,,go-2,1,,,,,,
2,496.0,6,phase_2,blue_rhombus,go,,,,go-2,1,,,,,,
0,0,6,phase_2,purple_rhombus,stop,red,0.0,0-SSD,go-1,4,,,,,,
0,0,6,phase_2,purple_pentagon,stop,green,150.0,tracking-SSD,go-1,4,,,,,,
2,389.0,6,phase_2,blue_circle,go,,,,go-2,2,,,,,,
0,0,6,phase_2,purple_triangle,stop,red,0.0,0-SSD,go-1,4,,,,,,
1,420.0,6,phase_2,purple_circle,go,,,,go-1,1,,,,,,
1,563.0,6,phase_2,blue_circle,go,,,,go-2,1,,,,,,
0,0,6,phase_2,purple_pentagon,stop,green,200.0,tracking-SSD,go-1,4,,,,,,
2,560.0,6,phase_2,blue_pentagon,go,,,,go-2,1,,,,,,
0,0,6,phase_2,blue_rhombus,go,,,,go-2,2,,,,,,
2,498.0,6,phase_2,purple_pentagon,go,,,,go-1,1,,,,,,
1,500.0,7,phase_2,blue_circle,go,,,,go-2,1,,,,,,
2,611.0,7,phase_2,blue_rhombus,go,,,,go-2,1,,,,,,
2,464.0,7,phase_2,purple_rhombus,stop,green,250.0,tracking-SSD,go-1,3,,,,,,
0,0,7,phase_2,blue_triangle,stop,red,0.0,0-SSD,go-2,4,,,,,,
2,493.0,7,phase_2,purple_rhombus,go,,,,go-1,1,,,,,,
2,458.0,7,phase_2,purple_rhombus,go,,,,go-1,1,,,,,,
2,522.0,7,phase_2,blue_rhombus,go,,,,go-2,1,,,,,,
2,397.0,7,phase_2,purple_rhombus,go,,,,go-1,1,,,,,,
1,384.0,7,phase_2,purple_circle,go,,,,go-1,1,,,,,,
2,450.0,7,phase_2,purple_rhombus,go,,,,go-1,1,,,,,,
1,471.0,7,phase_2,blue_pentagon,go,,,,go-2,2,,,,,,
1,614.0,7,phase_2,purple_triangle,go,,,,go-1,1,,,,,,
2,477.0,7,phase_2,purple_pentagon,go,,,,go-1,1,,,,,,
2,554.0,7,phase_2,blue_rhombus,go,,,,go-2,1,,,,,,
1,395.0,7,phase_2,purple_triangle,go,,,,go-1,1,,,,,,
0,0,7,phase_2,blue_pentagon,stop,red,0.0,0-SSD,go-2,4,,,,,,
1,436.0,7,phase_2,blue_circle,go,,,,go-2,1,,,,,,
1,388.0,7,phase_2,blue_circle,go,,,,go-2,1,,,,,,
2,554.0,7,phase_2,blue_pentagon,go,,,,go-2,1,,,,,,
0,0,7,phase_2,blue_circle,stop,red,0.0,0-SSD,go-2,4,,,,,,
1,437.0,7,phase_2,purple_circle,go,,,,go-1,1,,,,,,
1,536.0,7,phase_2,blue_triangle,go,,,,go-2,1,,,,,,
0,0,7,phase_2,purple_pentagon,stop,red,0.0,0-SSD,go-1,4,,,,,,
1,442.0,7,phase_2,blue_triangle,go,,,,go-2,1,,,,,,
1,417.0,7,phase_2,purple_triangle,go,,,,go-1,1,,,,,,
0,0,7,phase_2,blue_pentagon,stop,green,200.0,tracking-SSD,go-2,4,,,,,,
1,423.0,7,phase_2,blue_triangle,go,,,,go-2,1,,,,,,
1,489.0,7,phase_2,blue_triangle,go,,,,go-2,1,,,,,,
2,430.0,7,phase_2,blue_circle,stop,green,250.0,tracking-SSD,go-2,3,,,,,,
0,0,7,phase_2,purple_circle,stop,green,200.0,tracking-SSD,go-1,4,,,,,,
2,459.0,7,phase_2,blue_pentagon,go,,,,go-2,1,,,,,,
1,469.0,7,phase_2,purple_pentagon,go,,,,go-1,2,,,,,,
0,0,7,phase_2,blue_triangle,stop,green,250.0,tracking-SSD,go-2,4,,,,,,
2,543.0,7,phase_2,purple_rhombus,go,,,,go-1,1,,,,,,
0,0,7,phase_2,purple_pentagon,stop,red,0.0,0-SSD,go-1,4,,,,,,
2,584.0,7,phase_2,blue_pentagon,go,,,,go-2,1,,,,,,
2,457.0,7,phase_2,purple_pentagon,stop,green,300.0,tracking-SSD,go-1,3,,,,,,
2,421.0,7,phase_2,purple_pentagon,go,,,,go-1,1,,,,,,
2,363.0,7,phase_2,purple_rhombus,go,,,,go-1,1,,,,,,
1,483.0,7,phase_2,blue_triangle,stop,green,250.0,tracking-SSD,go-2,3,,,,,,
2,425.0,7,phase_2,blue_circle,go,,,,go-2,2,,,,,,
1,491.0,7,phase_2,purple_triangle,go,,,,go-1,1,,,,,,
1,410.0,7,phase_2,purple_triangle,go,,,,go-1,1,,,,,,
0,0,7,phase_2,purple_rhombus,stop,red,0.0,0-SSD,go-1,4,,,,,,
0,0,7,phase_2,purple_circle,stop,red,0.0,0-SSD,go-1,4,,,,,,
0,0,7,phase_2,blue_circle,stop,red,0.0,0-SSD,go-2,4,,,,,,
2,479.0,7,phase_2,purple_rhombus,stop,green,200.0,tracking-SSD,go-1,3,,,,,,
1,498.0,7,phase_2,blue_circle,go,,,,go-2,1,,,,,,
1,487.0,8,phase_2,blue_pentagon,go,,,,go-2,2,,,,,,
0,0,8,phase_2,blue_circle,stop,green,150.0,tracking-SSD,go-2,4,,,,,,
2,517.0,8,phase_2,blue_pentagon,go,,,,go-2,1,,,,,,
0,0,8,phase_2,purple_triangle,stop,green,200.0,tracking-SSD,go-1,4,,,,,,
2,502.0,8,phase_2,purple_pentagon,go,,,,go-1,1,,,,,,
2,523.0,8,phase_2,blue_pentagon,go,,,,go-2,1,,,,,,
1,488.0,8,phase_2,blue_triangle,go,,,,go-2,1,,,,,,
2,407.0,8,phase_2,purple_circle,go,,,,go-1,2,,,,,,
2,685.0,8,phase_2,purple_pentagon,go,,,,go-1,1,,,,,,
1,525.0,8,phase_2,purple_triangle,go,,,,go-1,1,,,,,,
2,398.0,8,phase_2,blue_pentagon,go,,,,go-2,1,,,,,,
0,0,8,phase_2,blue_rhombus,stop,red,0.0,0-SSD,go-2,4,,,,,,
0,0,8,phase_2,purple_rhombus,stop,red,0.0,0-SSD,go-1,4,,,,,,
2,425.0,8,phase_2,purple_rhombus,go,,,,go-1,1,,,,,,
2,445.0,8,phase_2,blue_rhombus,go,,,,go-2,1,,,,,,
1,589.0,8,phase_2,blue_triangle,go,,,,go-2,1,,,,,,
0,0,8,phase_2,blue_rhombus,stop,red,0.0,0-SSD,go-2,4,,,,,,
2,471.0,8,phase_2,blue_rhombus,go,,,,go-2,1,,,,,,
0,0,8,phase_2,blue_circle,stop,green,250.0,tracking-SSD,go-2,4,,,,,,
2,409.0,8,phase_2,purple_triangle,go,,,,go-1,2,,,,,,
1,465.0,8,phase_2,blue_circle,go,,,,go-2,1,,,,,,
0,0,8,phase_2,blue_pentagon,stop,red,0.0,0-SSD,go-2,4,,,,,,
0,0,8,phase_2,purple_rhombus,stop,red,0.0,0-SSD,go-1,4,,,,,,
1,471.0,8,phase_2,purple_triangle,go,,,,go-1,1,,,,,,
1,413.0,8,phase_2,purple_triangle,go,,,,go-1,1,,,,,,
2,556.0,8,phase_2,blue_rhombus,go,,,,go-2,1,,,,,,
1,476.0,8,phase_2,blue_triangle,go,,,,go-2,1,,,,,,
1,462.0,8,phase_2,purple_circle,stop,green,300.0,tracking-SSD,go-1,3,,,,,,
1,414.0,8,phase_2,purple_circle,go,,,,go-1,1,,,,,,
2,693.0,8,phase_2,blue_rhombus,go,,,,go-2,1,,,,,,
0,0,8,phase_2,blue_triangle,stop,red,0.0,0-SSD,go-2,4,,,,,,
1,441.0,8,phase_2,purple_circle,go,,,,go-1,1,,,,,,
2,765.0,8,phase_2,purple_rhombus,go,,,,go-1,1,,,,,,
1,548.0,8,phase_2,blue_triangle,go,,,,go-2,1,,,,,,
1,480.0,8,phase_2,purple_triangle,go,,,,go-1,1,,,,,,
0,0,8,phase_2,purple_circle,stop,green,250.0,tracking-SSD,go-1,4,,,,,,
2,632.0,8,phase_2,purple_rhombus,go,,,,go-1,1,,,,,,
1,438.0,8,phase_2,purple_triangle,stop,green,300.0,tracking-SSD,go-1,3,,,,,,
2,470.0,8,phase_2,blue_pentagon,go,,,,go-2,1,,,,,,
0,0,8,phase_2,blue_rhombus,stop,green,250.0,tracking-SSD,go-2,4,,,,,,
1,578.0,8,phase_2,purple_circle,go,,,,go-1,1,,,,,,
0,0,8,phase_2,purple_circle,stop,red,0.0,0-SSD,go-1,4,,,,,,
0,0,8,phase_2,purple_pentagon,stop,red,0.0,0-SSD,go-1,4,,,,,,
2,513.0,8,phase_2,purple_pentagon,go,,,,go-1,1,,,,,,
1,455.0,8,phase_2,blue_circle,go,,,,go-2,1,,,,,,
2,621.0,8,phase_2,blue_pentagon,go,,,,go-2,1,,,,,,
1,596.0,8,phase_2,blue_circle,stop,green,300.0,tracking-SSD,go-2,3,,,,,,
2,470.0,8,phase_2,purple_pentagon,go,,,,go-1,1,,,,,,
0,0,9,phase_2,purple_pentagon,stop,red,0.0,0-SSD,go-1,4,,,,,,
1,452.0,9,phase_2,blue_circle,go,,,,go-2,1,,,,,,
2,551.0,9,phase_2,blue_rhombus,go,,,,go-2,1,,,,,,
1,549.0,9,phase_2,purple_triangle,go,,,,go-1,1,,,,,,
2,468.0,9,phase_2,purple_rhombus,go,,,,go-1,1,,,,,,
1,466.0,9,phase_2,blue_triangle,go,,,,go-2,1,,,,,,
2,508.0,9,phase_2,blue_pentagon,go,,,,go-2,1,,,,,,
2,516.0,9,phase_2,purple_rhombus,go,,,,go-1,1,,,,,,
2,536.0,9,phase_2,purple_pentagon,stop,green,250.0,tracking-SSD,go-1,3,,,,,,
1,489.0,9,phase_2,purple_circle,go,,,,go-1,1,,,,,,
0,0,9,phase_2,blue_rhombus,stop,red,0.0,0-SSD,go-2,4,,,,,,
2,506.0,9,phase_2,purple_pentagon,go,,,,go-1,1,,,,,,
2,369.0,9,phase_2,purple_triangle,stop,green,200.0,tracking-SSD,go-1,3,,,,,,
1,513.0,9,phase_2,purple_circle,go,,,,go-1,1,,,,,,
0,0,9,phase_2,purple_rhombus,stop,red,0.0,0-SSD,go-1,4,,,,,,
1,384.0,9,phase_2,purple_triangle,go,,,,go-1,1,,,,,,
0,0,9,phase_2,blue_rhombus,stop,red,0.0,0-SSD,go-2,4,,,,,,
2,481.0,9,phase_2,purple_pentagon,go,,,,go-1,1,,,,,,
0,0,9,phase_2,blue_pentagon,stop,red,0.0,0-SSD,go-2,4,,,,,,
1,509.0,9,phase_2,blue_triangle,go,,,,go-2,1,,,,,,
0,0,9,phase_2,blue_triangle,stop,green,150.0,tracking-SSD,go-2,4,,,,,,
2,563.0,9,phase_2,blue_pentagon,go,,,,go-2,1,,,,,,
1,482.0,9,phase_2,purple_circle,go,,,,go-1,1,,,,,,
2,524.0,9,phase_2,purple_rhombus,stop,green,200.0,tracking-SSD,go-1,3,,,,,,
0,0,9,phase_2,purple_pentagon,stop,red,0.0,0-SSD,go-1,4,,,,,,
0,0,9,phase_2,blue_circle,stop,green,150.0,tracking-SSD,go-2,4,,,,,,
2,516.0,9,phase_2,blue_pentagon,go,,,,go-2,1,,,,,,
0,0,9,phase_2,purple_circle,stop,red,0.0,0-SSD,go-1,4,,,,,,
1,433.0,9,phase_2,purple_circle,go,,,,go-1,1,,,,,,
0,0,9,phase_2,blue_circle,stop,red,0.0,0-SSD,go-2,4,,,,,,
1,596.0,9,phase_2,blue_triangle,go,,,,go-2,1,,,,,,
0,0,9,phase_2,purple_pentagon,stop,green,200.0,tracking-SSD,go-1,4,,,,,,
1,456.0,9,phase_2,purple_triangle,go,,,,go-1,1,,,,,,
0,0,9,phase_2,blue_rhombus,go,,,,go-2,2,,,,,,
1,417.0,9,phase_2,purple_triangle,go,,,,go-1,1,,,,,,
1,438.0,9,phase_2,purple_rhombus,go,,,,go-1,2,,,,,,
1,491.0,9,phase_2,blue_triangle,go,,,,go-2,1,,,,,,
1,489.0,9,phase_2,purple_triangle,go,,,,go-1,1,,,,,,
0,0,9,phase_2,blue_rhombus,stop,green,250.0,tracking-SSD,go-2,4,,,,,,
2,543.0,9,phase_2,blue_rhombus,stop,green,300.0,tracking-SSD,go-2,3,,,,,,
0,0,9,phase_2,blue_circle,go,,,,go-2,2,,,,,,
1,549.0,9,phase_2,purple_circle,go,,,,go-1,1,,,,,,
2,683.0,9,phase_2,purple_rhombus,go,,,,go-1,1,,,,,,
2,592.0,9,phase_2,blue_pentagon,go,,,,go-2,1,,,,,,
1,421.0,9,phase_2,blue_circle,go,,,,go-2,1,,,,,,
2,486.0,9,phase_2,blue_pentagon,go,,,,go-2,1,,,,,,
2,641.0,9,phase_2,blue_circle,go,,,,go-2,2,,,,,,
1,526.0,9,phase_2,blue_triangle,go,,,,go-2,1,,,,,,
0,0,10,phase_2,blue_rhombus,stop,red,0.0,0-SSD,go-2,4,,,,,,
1,476.0,10,phase_2,blue_triangle,go,,,,go-2,1,,,,,,
1,427.0,10,phase_2,blue_triangle,go,,,,go-2,1,,,,,,
0,0,10,phase_2,purple_triangle,stop,red,0.0,0-SSD,go-1,4,,,,,,
2,590.0,10,phase_2,purple_rhombus,go,,,,go-1,1,,,,,,
1,431.0,10,phase_2,purple_circle,go,,,,go-1,1,,,,,,
2,429.0,10,phase_2,blue_pentagon,stop,green,250.0,tracking-SSD,go-2,3,,,,,,
1,516.0,10,phase_2,blue_triangle,go,,,,go-2,1,,,,,,
2,347.0,10,phase_2,blue_rhombus,go,,,,go-2,1,,,,,,
2,422.0,10,phase_2,purple_rhombus,go,,,,go-1,1,,,,,,
2,444.0,10,phase_2,blue_rhombus,stop,green,200.0,tracking-SSD,go-2,3,,,,,,
2,509.0,10,phase_2,blue_pentagon,go,,,,go-2,1,,,,,,
2,382.0,10,phase_2,blue_rhombus,go,,,,go-2,1,,,,,,
2,403.0,10,phase_2,purple_pentagon,go,,,,go-1,1,,,,,,
1,379.0,10,phase_2,purple_circle,go,,,,go-1,1,,,,,,
2,444.0,10,phase_2,blue_circle,go,,,,go-2,2,,,,,,
2,576.0,10,phase_2,purple_rhombus,go,,,,go-1,1,,,,,,
1,709.0,10,phase_2,purple_circle,go,,,,go-1,1,,,,,,
0,0,10,phase_2,blue_rhombus,stop,red,0.0,0-SSD,go-2,4,,,,,,
1,581.0,10,phase_2,purple_triangle,go,,,,go-1,1,,,,,,
0,0,10,phase_2,purple_rhombus,stop,green,150.0,tracking-SSD,go-1,4,,,,,,
1,419.0,10,phase_2,blue_pentagon,stop,green,200.0,tracking-SSD,go-2,3,,,,,,
0,0,10,phase_2,purple_pentagon,stop,green,150.0,tracking-SSD,go-1,4,,,,,,
0,0,10,phase_2,purple_rhombus,stop,red,0.0,0-SSD,go-1,4,,,,,,
1,411.0,10,phase_2,purple_triangle,go,,,,go-1,1,,,,,,
0,0,10,phase_2,blue_circle,stop,red,0.0,0-SSD,go-2,4,,,,,,
1,406.0,10,phase_2,blue_circle,go,,,,go-2,1,,,,,,
2,573.0,10,phase_2,blue_rhombus,go,,,,go-2,1,,,,,,
1,491.0,10,phase_2,blue_circle,go,,,,go-2,1,,,,,,
2,488.0,10,phase_2,purple_pentagon,go,,,,go-1,1,,,,,,
1,510.0,10,phase_2,blue_triangle,go,,,,go-2,1,,,,,,
1,451.0,10,phase_2,blue_triangle,go,,,,go-2,1,,,,,,
2,437.0,10,phase_2,blue_pentagon,go,,,,go-2,1,,,,,,
1,480.0,10,phase_2,purple_circle,go,,,,go-1,1,,,,,,
2,725.0,10,phase_2,purple_pentagon,go,,,,go-1,1,,,,,,
1,486.0,10,phase_2,blue_circle,go,,,,go-2,1,,,,,,
0,0,10,phase_2,purple_triangle,stop,green,200.0,tracking-SSD,go-1,4,,,,,,
0,0,10,phase_2,purple_pentagon,stop,red,0.0,0-SSD,go-1,4,,,,,,
1,434.0,10,phase_2,purple_triangle,go,,,,go-1,1,,,,,,
0,0,10,phase_2,blue_circle,stop,red,0.0,0-SSD,go-2,4,,,,,,
1,417.0,10,phase_2,purple_triangle,go,,,,go-1,1,,,,,,
1,437.0,10,phase_2,blue_triangle,go,,,,go-2,1,,,,,,
2,502.0,10,phase_2,purple_pentagon,go,,,,go-1,1,,,,,,
2,500.0,10,phase_2,purple_pentagon,go,,,,go-1,1,,,,,,
0,0,10,phase_2,blue_circle,stop,green,250.0,tracking-SSD,go-2,4,,,,,,
1,440.0,10,phase_2,blue_circle,go,,,,go-2,1,,,,,,
2,562.0,10,phase_2,purple_rhombus,stop,green,300.0,tracking-SSD,go-1,3,,,,,,
0,0,10,phase_2,purple_pentagon,stop,red,0.0,0-SSD,go-1,4,,,,,,
1,464.0,11,phase_2,purple_triangle,go,,,,go-1,1,,,,,,
0,0,11,phase_2,purple_circle,go,,,,go-1,2,,,,,,
1,494.0,11,phase_2,blue_rhombus,go,,,,go-2,2,,,,,,
1,491.0,11,phase_2,blue_triangle,go,,,,go-2,1,,,,,,
2,513.0,11,phase_2,purple_pentagon,go,,,,go-1,1,,,,,,
2,431.0,11,phase_2,blue_pentagon,stop,green,250.0,tracking-SSD,go-2,3,,,,,,
2,383.0,11,phase_2,blue_pentagon,go,,,,go-2,1,,,,,,
0,0,11,phase_2,blue_rhombus,stop,red,0.0,0-SSD,go-2,4,,,,,,
1,458.0,11,phase_2,purple_triangle,go,,,,go-1,1,,,,,,
2,546.0,11,phase_2,blue_rhombus,go,,,,go-2,1,,,,,,
0,0,11,phase_2,purple_rhombus,stop,green,200.0,tracking-SSD,go-1,4,,,,,,
1,428.0,11,phase_2,blue_circle,go,,,,go-2,1,,,,,,
1,460.0,11,phase_2,blue_triangle,go,,,,go-2,1,,,,,,
2,436.0,11,phase_2,purple_pentagon,go,,,,go-1,1,,,,,,
1,535.0,11,phase_2,purple_circle,go,,,,go-1,1,,,,,,
2,601.0,11,phase_2,blue_rhombus,go,,,,go-2,1,,,,,,
2,430.0,11,phase_2,blue_pentagon,go,,,,go-2,1,,,,,,
2,483.0,11,phase_2,purple_pentagon,go,,,,go-1,1,,,,,,
0,0,11,phase_2,purple_circle,stop,red,0.0,0-SSD,go-1,4,,,,,,
1,434.0,11,phase_2,blue_triangle,go,,,,go-2,1,,,,,,
1,545.0,11,phase_2,purple_circle,go,,,,go-1,1,,,,,,
2,520.0,11,phase_2,purple_pentagon,stop,green,250.0,tracking-SSD,go-1,3,,,,,,
2,427.0,11,phase_2,blue_pentagon,go,,,,go-2,1,,,,,,
1,425.0,11,phase_2,purple_circle,go,,,,go-1,1,,,,,,
2,456.0,11,phase_2,blue_pentagon,go,,,,go-2,1,,,,,,
2,476.0,11,phase_2,purple_rhombus,go,,,,go-1,1,,,,,,
2,440.0,11,phase_2,purple_rhombus,go,,,,go-1,1,,,,,,
1,415.0,11,phase_2,blue_circle,go,,,,go-2,1,,,,,,
0,0,11,phase_2,purple_rhombus,stop,red,0.0,0-SSD,go-1,4,,,,,,
0,0,11,phase_2,blue_triangle,stop,green,200.0,tracking-SSD,go-2,4,,,,,,
0,0,11,phase_2,purple_circle,stop,red,0.0,0-SSD,go-1,4,,,,,,
1,461.0,11,phase_2,blue_triangle,go,,,,go-2,1,,,,,,
1,424.0,11,phase_2,purple_triangle,go,,,,go-1,1,,,,,,
2,423.0,11,phase_2,blue_circle,stop,green,250.0,tracking-SSD,go-2,3,,,,,,
0,0,11,phase_2,purple_triangle,stop,red,0.0,0-SSD,go-1,4,,,,,,
1,553.0,11,phase_2,purple_triangle,go,,,,go-1,1,,,,,,
2,641.0,11,phase_2,blue_pentagon,go,,,,go-2,1,,,,,,
0,0,11,phase_2,blue_circle,stop,red,0.0,0-SSD,go-2,4,,,,,,
2,884.0,11,phase_2,blue_pentagon,go,,,,go-2,1,,,,,,
0,0,11,phase_2,purple_triangle,stop,green,200.0,tracking-SSD,go-1,4,,,,,,
2,440.0,11,phase_2,blue_pentagon,stop,green,250.0,tracking-SSD,go-2,3,,,,,,
0,0,11,phase_2,blue_triangle,stop,red,0.0,0-SSD,go-2,4,,,,,,
0,0,11,phase_2,blue_circle,stop,red,0.0,0-SSD,go-2,4,,,,,,
0,0,11,phase_2,purple_rhombus,stop,green,200.0,tracking-SSD,go-1,4,,,,,,
2,454.0,11,phase_2,purple_rhombus,go,,,,go-1,1,,,,,,
1,442.0,11,phase_2,blue_circle,go,,,,go-2,1,,,,,,
2,598.0,11,phase_2,purple_rhombus,go,,,,go-1,1,,,,,,
2,426.0,11,phase_2,purple_rhombus,go,,,,go-1,1,,,,,,
1,499.0,12,phase_2,blue_circle,go,,,,go-2,1,,,,,,
2,462.0,12,phase_2,purple_pentagon,go,,,,go-1,1,,,,,,
2,438.0,12,phase_2,purple_pentagon,go,,,,go-1,1,,,,,,
2,424.0,12,phase_2,purple_rhombus,go,,,,go-1,1,,,,,,
2,546.0,12,phase_2,blue_pentagon,go,,,,go-2,1,,,,,,
1,442.0,12,phase_2,blue_triangle,stop,green,250.0,tracking-SSD,go-2,3,,,,,,
2,428.0,12,phase_2,purple_circle,go,,,,go-1,2,,,,,,
0,0,12,phase_2,blue_rhombus,stop,red,0.0,0-SSD,go-2,4,,,,,,
1,434.0,12,phase_2,blue_circle,go,,,,go-2,1,,,,,,
0,0,12,phase_2,purple_triangle,stop,red,0.0,0-SSD,go-1,4,,,,,,
1,430.0,12,phase_2,purple_triangle,go,,,,go-1,1,,,,,,
1,381.0,12,phase_2,blue_triangle,stop,green,200.0,tracking-SSD,go-2,3,,,,,,
0,0,12,phase_2,blue_rhombus,stop,red,0.0,0-SSD,go-2,4,,,,,,
0,0,12,phase_2,purple_triangle,stop,green,150.0,tracking-SSD,go-1,4,,,,,,
2,599.0,12,phase_2,blue_rhombus,go,,,,go-2,1,,,,,,
2,462.0,12,phase_2,purple_rhombus,stop,green,200.0,tracking-SSD,go-1,3,,,,,,
2,426.0,12,phase_2,blue_rhombus,go,,,,go-2,1,,,,,,
2,492.0,12,phase_2,purple_pentagon,go,,,,go-1,1,,,,,,
2,535.0,12,phase_2,blue_rhombus,go,,,,go-2,1,,,,,,
1,465.0,12,phase_2,blue_circle,go,,,,go-2,1,,,,,,
0,0,12,phase_2,blue_rhombus,stop,red,0.0,0-SSD,go-2,4,,,,,,
1,426.0,12,phase_2,blue_circle,go,,,,go-2,1,,,,,,
0,0,12,phase_2,purple_circle,stop,red,0.0,0-SSD,go-1,4,,,,,,
1,422.0,12,phase_2,purple_circle,go,,,,go-1,1,,,,,,
2,476.0,12,phase_2,purple_triangle,go,,,,go-1,2,,,,,,
1,428.0,12,phase_2,purple_circle,go,,,,go-1,1,,,,,,
1,515.0,12,phase_2,blue_pentagon,go,,,,go-2,2,,,,,,
0,0,12,phase_2,purple_triangle,stop,red,0.0,0-SSD,go-1,4,,,,,,
0,0,12,phase_2,purple_rhombus,stop,green,150.0,tracking-SSD,go-1,4,,,,,,
0,0,12,phase_2,purple_pentagon,stop,red,0.0,0-SSD,go-1,4,,,,,,
1,541.0,12,phase_2,purple_triangle,go,,,,go-1,1,,,,,,
0,0,12,phase_2,blue_circle,stop,green,200.0,tracking-SSD,go-2,4,,,,,,
2,459.0,12,phase_2,purple_pentagon,go,,,,go-1,1,,,,,,
2,580.0,12,phase_2,blue_rhombus,go,,,,go-2,1,,,,,,
2,544.0,12,phase_2,purple_pentagon,go,,,,go-1,1,,,,,,
2,532.0,12,phase_2,purple_rhombus,go,,,,go-1,1,,,,,,
1,485.0,12,phase_2,blue_triangle,stop,green,250.0,tracking-SSD,go-2,3,,,,,,
1,416.0,12,phase_2,blue_triangle,go,,,,go-2,1,,,,,,
2,492.0,12,phase_2,blue_pentagon,go,,,,go-2,1,,,,,,
1,490.0,12,phase_2,purple_circle,go,,,,go-1,1,,,,,,
1,477.0,12,phase_2,blue_circle,go,,,,go-2,1,,,,,,
1,598.0,12,phase_2,purple_triangle,go,,,,go-1,1,,,,,,
1,495.0,12,phase_2,blue_triangle,go,,,,go-2,1,,,,,,
2,380.0,12,phase_2,blue_pentagon,go,,,,go-2,1,,,,,,
0,0,12,phase_2,blue_pentagon,stop,red,0.0,0-SSD,go-2,4,,,,,,
0,0,12,phase_2,purple_circle,stop,green,200.0,tracking-SSD,go-1,4,,,,,,
2,551.0,12,phase_2,blue_pentagon,go,,,,go-2,1,,,,,,
2,729.0,12,phase_2,purple_rhombus,go,,,,go-1,1,,,,,,
2,454.0,13,phase_2,purple_pentagon,go,,,,go-1,1,,,,,,
2,441.0,13,phase_2,blue_pentagon,go,,,,go-2,1,,,,,,
0,0,13,phase_2,purple_triangle,stop,red,0.0,0-SSD,go-1,4,,,,,,
2,425.0,13,phase_2,purple_pentagon,go,,,,go-1,1,,,,,,
2,422.0,13,phase_2,blue_pentagon,stop,green,250.0,tracking-SSD,go-2,3,,,,,,
1,441.0,13,phase_2,blue_triangle,go,,,,go-2,1,,,,,,
2,462.0,13,phase_2,blue_rhombus,go,,,,go-2,1,,,,,,
2,426.0,13,phase_2,blue_rhombus,stop,green,200.0,tracking-SSD,go-2,3,,,,,,
1,491.0,13,phase_2,blue_triangle,go,,,,go-2,1,,,,,,
1,477.0,13,phase_2,blue_triangle,go,,,,go-2,1,,,,,,
2,442.0,13,phase_2,blue_pentagon,go,,,,go-2,1,,,,,,
0,0,13,phase_2,blue_pentagon,stop,red,0.0,0-SSD,go-2,4,,,,,,
0,0,13,phase_2,blue_triangle,stop,red,0.0,0-SSD,go-2,4,,,,,,
2,526.0,13,phase_2,blue_rhombus,go,,,,go-2,1,,,,,,
1,422.0,13,phase_2,blue_circle,go,,,,go-2,1,,,,,,
1,453.0,13,phase_2,blue_triangle,go,,,,go-2,1,,,,,,
2,461.0,13,phase_2,blue_pentagon,go,,,,go-2,1,,,,,,
0,0,13,phase_2,blue_circle,stop,red,0.0,0-SSD,go-2,4,,,,,,
1,423.0,13,phase_2,blue_triangle,go,,,,go-2,1,,,,,,
2,443.0,13,phase_2,purple_circle,go,,,,go-1,2,,,,,,
1,418.0,13,phase_2,purple_triangle,go,,,,go-1,1,,,,,,
0,0,13,phase_2,blue_circle,stop,red,0.0,0-SSD,go-2,4,,,,,,
0,0,13,phase_2,purple_rhombus,stop,red,0.0,0-SSD,go-1,4,,,,,,
1,444.0,13,phase_2,blue_circle,go,,,,go-2,1,,,,,,
1,700.0,13,phase_2,purple_triangle,go,,,,go-1,1,,,,,,
0,0,13,phase_2,purple_rhombus,stop,red,0.0,0-SSD,go-1,4,,,,,,
2,548.0,13,phase_2,purple_pentagon,go,,,,go-1,1,,,,,,
0,0,13,phase_2,purple_circle,stop,green,150.0,tracking-SSD,go-1,4,,,,,,
2,646.0,13,phase_2,purple_rhombus,go,,,,go-1,1,,,,,,
2,519.0,13,phase_2,blue_rhombus,stop,green,200.0,tracking-SSD,go-2,3,,,,,,
2,505.0,13,phase_2,blue_pentagon,go,,,,go-2,1,,,,,,
1,526.0,13,phase_2,purple_triangle,go,,,,go-1,1,,,,,,
0,0,13,phase_2,purple_rhombus,stop,green,150.0,tracking-SSD,go-1,4,,,,,,
2,577.0,13,phase_2,purple_rhombus,go,,,,go-1,1,,,,,,
1,450.0,13,phase_2,purple_circle,go,,,,go-1,1,,,,,,
2,413.0,13,phase_2,blue_circle,go,,,,go-2,2,,,,,,
2,579.0,13,phase_2,purple_pentagon,go,,,,go-1,1,,,,,,
2,577.0,13,phase_2,purple_pentagon,go,,,,go-1,1,,,,,,
2,439.0,13,phase_2,purple_rhombus,go,,,,go-1,1,,,,,,
1,538.0,13,phase_2,purple_triangle,stop,green,200.0,tracking-SSD,go-1,3,,,,,,
0,0,13,phase_2,blue_circle,stop,green,150.0,tracking-SSD,go-2,4,,,,,,
2,747.0,13,phase_2,purple_triangle,go,,,,go-1,2,,,,,,
1,542.0,13,phase_2,purple_circle,go,,,,go-1,1,,,,,,
1,787.0,13,phase_2,blue_rhombus,go,,,,go-2,2,,,,,,
2,514.0,13,phase_2,blue_rhombus,go,,,,go-2,1,,,,,,
1,445.0,13,phase_2,purple_circle,go,,,,go-1,1,,,,,,
1,501.0,13,phase_2,purple_circle,stop,green,200.0,tracking-SSD,go-1,3,,,,,,
0,0,13,phase_2,purple_pentagon,stop,red,0.0,0-SSD,go-1,4,,,,,,
1,554.0,14,phase_2,blue_triangle,go,,,,go-2,1,,,,,,
1,462.0,14,phase_2,blue_circle,go,,,,go-2,1,,,,,,
1,437.0,14,phase_2,purple_triangle,go,,,,go-1,1,,,,,,
1,401.0,14,phase_2,blue_triangle,go,,,,go-2,1,,,,,,
1,421.0,14,phase_2,purple_triangle,go,,,,go-1,1,,,,,,
1,519.0,14,phase_2,purple_circle,go,,,,go-1,1,,,,,,
0,0,14,phase_2,purple_circle,stop,red,0.0,0-SSD,go-1,4,,,,,,
2,504.0,14,phase_2,blue_rhombus,go,,,,go-2,1,,,,,,
2,366.0,14,phase_2,purple_pentagon,stop,green,150.0,tracking-SSD,go-1,3,,,,,,
2,465.0,14,phase_2,purple_rhombus,go,,,,go-1,1,,,,,,
2,383.0,14,phase_2,blue_pentagon,go,,,,go-2,1,,,,,,
0,0,14,phase_2,purple_rhombus,stop,green,100.0,tracking-SSD,go-1,4,,,,,,
1,445.0,14,phase_2,purple_triangle,go,,,,go-1,1,,,,,,
2,568.0,14,phase_2,purple_pentagon,go,,,,go-1,1,,,,,,
2,498.0,14,phase_2,purple_pentagon,go,,,,go-1,1,,,,,,
2,450.0,14,phase_2,blue_rhombus,go,,,,go-2,1,,,,,,
1,425.0,14,phase_2,blue_circle,go,,,,go-2,1,,,,,,
0,0,14,phase_2,blue_circle,stop,green,150.0,tracking-SSD,go-2,4,,,,,,
0,0,14,phase_2,blue_triangle,stop,red,0.0,0-SSD,go-2,4,,,,,,
1,462.0,14,phase_2,purple_triangle,go,,,,go-1,1,,,,,,
2,571.0,14,phase_2,purple_rhombus,go,,,,go-1,1,,,,,,
2,480.0,14,phase_2,blue_pentagon,go,,,,go-2,1,,,,,,
1,467.0,14,phase_2,purple_circle,go,,,,go-1,1,,,,,,
2,521.0,14,phase_2,purple_rhombus,stop,green,200.0,tracking-SSD,go-1,3,,,,,,
2,452.0,14,phase_2,blue_pentagon,go,,,,go-2,1,,,,,,
1,720.0,14,phase_2,blue_circle,go,,,,go-2,1,,,,,,
1,425.0,14,phase_2,blue_circle,go,,,,go-2,1,,,,,,
1,490.0,14,phase_2,blue_circle,stop,green,150.0,tracking-SSD,go-2,3,,,,,,
0,0,14,phase_2,blue_rhombus,stop,green,100.0,tracking-SSD,go-2,4,,,,,,
0,0,14,phase_2,blue_circle,stop,green,150.0,tracking-SSD,go-2,4,,,,,,
1,596.0,14,phase_2,blue_triangle,go,,,,go-2,1,,,,,,
1,458.0,14,phase_2,purple_triangle,go,,,,go-1,1,,,,,,
2,534.0,14,phase_2,purple_pentagon,go,,,,go-1,1,,,,,,
0,0,14,phase_2,blue_pentagon,stop,red,0.0,0-SSD,go-2,4,,,,,,
0,0,14,phase_2,purple_triangle,stop,green,200.0,tracking-SSD,go-1,4,,,,,,
2,482.0,14,phase_2,blue_pentagon,go,,,,go-2,1,,,,,,
1,423.0,14,phase_2,blue_circle,go,,,,go-2,1,,,,,,
0,0,14,phase_2,purple_triangle,stop,red,0.0,0-SSD,go-1,4,,,,,,
1,463.0,14,phase_2,blue_circle,go,,,,go-2,1,,,,,,
2,540.0,14,phase_2,purple_triangle,go,,,,go-1,2,,,,,,
2,584.0,14,phase_2,purple_pentagon,go,,,,go-1,1,,,,,,
0,0,14,phase_2,purple_rhombus,stop,red,0.0,0-SSD,go-1,4,,,,,,
0,0,14,phase_2,blue_rhombus,stop,red,0.0,0-SSD,go-2,4,,,,,,
1,430.0,14,phase_2,purple_pentagon,go,,,,go-1,2,,,,,,
2,620.0,14,phase_2,blue_pentagon,go,,,,go-2,1,,,,,,
2,685.0,14,phase_2,purple_rhombus,go,,,,go-1,1,,,,,,
0,0,14,phase_2,blue_rhombus,stop,red,0.0,0-SSD,go-2,4,,,,,,
0,0,14,phase_2,purple_rhombus,stop,red,0.0,0-SSD,go-1,4,,,,,,
1,476.0,15,phase_2,purple_circle,go,,,,go-1,1,,,,,,
2,484.0,15,phase_2,blue_pentagon,go,,,,go-2,1,,,,,,
1,539.0,15,phase_2,purple_circle,go,,,,go-1,1,,,,,,
2,492.0,15,phase_2,blue_pentagon,go,,,,go-2,1,,,,,,
1,402.0,15,phase_2,purple_circle,go,,,,go-1,1,,,,,,
2,410.0,15,phase_2,blue_pentagon,go,,,,go-2,1,,,,,,
2,407.0,15,phase_2,purple_pentagon,go,,,,go-1,1,,,,,,
1,427.0,15,phase_2,blue_triangle,go,,,,go-2,1,,,,,,
0,0,15,phase_2,blue_triangle,stop,red,0.0,0-SSD,go-2,4,,,,,,
1,444.0,15,phase_2,purple_circle,go,,,,go-1,1,,,,,,
1,486.0,15,phase_2,purple_triangle,go,,,,go-1,1,,,,,,
1,393.0,15,phase_2,blue_triangle,go,,,,go-2,1,,,,,,
2,403.0,15,phase_2,purple_circle,go,,,,go-1,2,,,,,,
0,0,15,phase_2,purple_circle,stop,red,0.0,0-SSD,go-1,4,,,,,,
2,489.0,15,phase_2,blue_pentagon,stop,green,250.0,tracking-SSD,go-2,3,,,,,,
1,519.0,15,phase_2,blue_circle,go,,,,go-2,1,,,,,,
0,0,15,phase_2,purple_triangle,stop,green,200.0,tracking-SSD,go-1,4,,,,,,
1,435.0,15,phase_2,blue_rhombus,go,,,,go-2,2,,,,,,
2,545.0,15,phase_2,blue_rhombus,go,,,,go-2,1,,,,,,
1,531.0,15,phase_2,blue_triangle,go,,,,go-2,1,,,,,,
2,494.0,15,phase_2,purple_pentagon,go,,,,go-1,1,,,,,,
1,525.0,15,phase_2,purple_circle,go,,,,go-1,1,,,,,,
0,0,15,phase_2,purple_triangle,stop,red,0.0,0-SSD,go-1,4,,,,,,
2,644.0,15,phase_2,purple_rhombus,go,,,,go-1,1,,,,,,
2,496.0,15,phase_2,purple_rhombus,go,,,,go-1,1,,,,,,
0,0,15,phase_2,blue_rhombus,stop,red,0.0,0-SSD,go-2,4,,,,,,
1,492.0,15,phase_2,blue_triangle,go,,,,go-2,1,,,,,,
2,581.0,15,phase_2,purple_pentagon,go,,,,go-1,1,,,,,,
0,0,15,phase_2,blue_triangle,stop,green,250.0,tracking-SSD,go-2,4,,,,,,
0,0,15,phase_2,blue_triangle,stop,red,0.0,0-SSD,go-2,4,,,,,,
0,0,15,phase_2,purple_rhombus,stop,green,300.0,tracking-SSD,go-1,4,,,,,,
1,459.0,15,phase_2,purple_circle,go,,,,go-1,1,,,,,,
2,557.0,15,phase_2,purple_pentagon,go,,,,go-1,1,,,,,,
2,531.0,15,phase_2,blue_rhombus,go,,,,go-2,1,,,,,,
2,462.0,15,phase_2,blue_rhombus,go,,,,go-2,1,,,,,,
1,574.0,15,phase_2,blue_triangle,stop,green,350.0,tracking-SSD,go-2,3,,,,,,
2,504.0,15,phase_2,purple_rhombus,go,,,,go-1,1,,,,,,
0,0,15,phase_2,purple_rhombus,stop,green,300.0,tracking-SSD,go-1,4,,,,,,
1,511.0,15,phase_2,blue_circle,go,,,,go-2,1,,,,,,
1,485.0,15,phase_2,blue_circle,go,,,,go-2,1,,,,,,
2,561.0,15,phase_2,purple_rhombus,go,,,,go-1,1,,,,,,
0,0,15,phase_2,blue_pentagon,stop,red,0.0,0-SSD,go-2,4,,,,,,
0,0,15,phase_2,purple_circle,stop,red,0.0,0-SSD,go-1,4,,,,,,
2,577.0,15,phase_2,blue_pentagon,go,,,,go-2,1,,,,,,
1,495.0,15,phase_2,blue_triangle,stop,green,350.0,tracking-SSD,go-2,3,,,,,,
0,0,15,phase_2,purple_pentagon,stop,red,0.0,0-SSD,go-1,4,,,,,,
2,557.0,15,phase_2,purple_pentagon,stop,green,300.0,tracking-SSD,go-1,3,,,,,,
2,544.0,15,phase_2,blue_rhombus,go,,,,go-2,1,,,,,,
1,476.0,16,phase_2,purple_triangle,go,,,,go-1,1,,,,,,
1,418.0,16,phase_2,purple_triangle,go,,,,go-1,1,,,,,,
2,472.0,16,phase_2,purple_rhombus,go,,,,go-1,1,,,,,,
1,515.0,16,phase_2,purple_circle,go,,,,go-1,1,,,,,,
1,456.0,16,phase_2,blue_circle,go,,,,go-2,1,,,,,,
1,408.0,16,phase_2,blue_circle,go,,,,go-2,1,,,,,,
2,428.0,16,phase_2,purple_pentagon,stop,green,250.0,tracking-SSD,go-1,3,,,,,,
1,391.0,16,phase_2,blue_triangle,stop,green,200.0,tracking-SSD,go-2,3,,,,,,
0,0,16,phase_2,purple_triangle,stop,green,150.0,tracking-SSD,go-1,4,,,,,,
1,432.0,16,phase_2,purple_triangle,go,,,,go-1,1,,,,,,
0,0,16,phase_2,purple_triangle,stop,red,0.0,0-SSD,go-1,4,,,,,,
2,460.0,16,phase_2,blue_rhombus,go,,,,go-2,1,,,,,,
1,480.0,16,phase_2,purple_circle,go,,,,go-1,1,,,,,,
1,826.0,16,phase_2,blue_triangle,go,,,,go-2,1,,,,,,
2,532.0,16,phase_2,purple_pentagon,go,,,,go-1,1,,,,,,
1,463.0,16,phase_2,blue_triangle,go,,,,go-2,1,,,,,,
1,471.0,16,phase_2,blue_circle,stop,green,200.0,tracking-SSD,go-2,3,,,,,,
0,0,16,phase_2,blue_pentagon,stop,red,0.0,0-SSD,go-2,4,,,,,,
1,511.0,16,phase_2,purple_rhombus,go,,,,go-1,2,,,,,,
1,475.0,16,phase_2,blue_circle,go,,,,go-2,1,,,,,,
0,0,16,phase_2,purple_pentagon,stop,red,0.0,0-SSD,go-1,4,,,,,,
0,0,16,phase_2,purple_pentagon,stop,red,0.0,0-SSD,go-1,4,,,,,,
1,489.0,16,phase_2,purple_circle,go,,,,go-1,1,,,,,,
1,429.0,16,phase_2,blue_circle,go,,,,go-2,1,,,,,,
0,0,16,phase_2,blue_pentagon,stop,red,0.0,0-SSD,go-2,4,,,,,,
1,740.0,16,phase_2,blue_triangle,go,,,,go-2,1,,,,,,
1,411.0,16,phase_2,blue_pentagon,go,,,,go-2,2,,,,,,
1,622.0,16,phase_2,purple_triangle,go,,,,go-1,1,,,,,,
2,631.0,16,phase_2,purple_rhombus,go,,,,go-1,1,,,,,,
2,538.0,16,phase_2,blue_pentagon,go,,,,go-2,1,,,,,,
1,469.0,16,phase_2,blue_circle,go,,,,go-2,1,,,,,,
0,0,16,phase_2,blue_rhombus,stop,red,0.0,0-SSD,go-2,4,,,,,,
0,0,16,phase_2,purple_rhombus,stop,red,0.0,0-SSD,go-1,4,,,,,,
0,0,16,phase_2,blue_rhombus,stop,red,0.0,0-SSD,go-2,4,,,,,,
1,503.0,16,phase_2,blue_circle,go,,,,go-2,1,,,,,,
2,535.0,16,phase_2,purple_rhombus,go,,,,go-1,1,,,,,,
1,464.0,16,phase_2,blue_triangle,go,,,,go-2,1,,,,,,
0,0,16,phase_2,purple_circle,stop,green,150.0,tracking-SSD,go-1,4,,,,,,
0,0,16,phase_2,blue_rhombus,stop,green,200.0,tracking-SSD,go-2,4,,,,,,
1,457.0,16,phase_2,blue_triangle,go,,,,go-2,1,,,,,,
1,489.0,16,phase_2,blue_rhombus,go,,,,go-2,2,,,,,,
2,609.0,16,phase_2,blue_pentagon,go,,,,go-2,1,,,,,,
2,517.0,16,phase_2,purple_pentagon,go,,,,go-1,1,,,,,,
0,0,16,phase_2,blue_rhombus,stop,green,250.0,tracking-SSD,go-2,4,,,,,,
2,502.0,16,phase_2,purple_rhombus,go,,,,go-1,1,,,,,,
0,0,16,phase_2,purple_pentagon,stop,green,300.0,tracking-SSD,go-1,4,,,,,,
1,631.0,16,phase_2,purple_circle,go,,,,go-1,1,,,,,,
2,496.0,16,phase_2,purple_pentagon,go,,,,go-1,1,,,,,,
1,937.0,17,phase_2,purple_triangle,go,,,,go-1,1,,,,,,
1,486.0,17,phase_2,blue_circle,go,,,,go-2,1,,,,,,
1,393.0,17,phase_2,purple_triangle,go,,,,go-1,1,,,,,,
2,491.0,17,phase_2,blue_pentagon,go,,,,go-2,1,,,,,,
2,445.0,17,phase_2,purple_pentagon,stop,green,350.0,tracking-SSD,go-1,3,,,,,,
1,375.0,17,phase_2,blue_pentagon,go,,,,go-2,2,,,,,,
2,428.0,17,phase_2,purple_pentagon,go,,,,go-1,1,,,,,,
1,526.0,17,phase_2,purple_triangle,go,,,,go-1,1,,,,,,
1,456.0,17,phase_2,blue_triangle,stop,green,300.0,tracking-SSD,go-2,3,,,,,,
0,0,17,phase_2,blue_circle,stop,red,0.0,0-SSD,go-2,4,,,,,,
2,553.0,17,phase_2,purple_pentagon,go,,,,go-1,1,,,,,,
1,393.0,17,phase_2,blue_circle,go,,,,go-2,1,,,,,,
2,458.0,17,phase_2,blue_rhombus,go,,,,go-2,1,,,,,,
2,365.0,17,phase_2,blue_rhombus,stop,green,250.0,tracking-SSD,go-2,3,,,,,,
2,419.0,17,phase_2,purple_pentagon,go,,,,go-1,1,,,,,,
2,484.0,17,phase_2,purple_rhombus,stop,green,200.0,tracking-SSD,go-1,3,,,,,,
1,561.0,17,phase_2,purple_triangle,go,,,,go-1,1,,,,,,
0,0,17,phase_2,purple_triangle,stop,red,0.0,0-SSD,go-1,4,,,,,,
2,398.0,17,phase_2,blue_rhombus,go,,,,go-2,1,,,,,,
0,0,17,phase_2,purple_rhombus,stop,red,0.0,0-SSD,go-1,4,,,,,,
2,427.0,17,phase_2,blue_circle,go,,,,go-2,2,,,,,,
0,0,17,phase_2,blue_circle,stop,red,0.0,0-SSD,go-2,4,,,,,,
2,512.0,17,phase_2,purple_rhombus,go,,,,go-1,1,,,,,,
2,430.0,17,phase_2,purple_rhombus,go,,,,go-1,1,,,,,,
2,439.0,17,phase_2,purple_pentagon,go,,,,go-1,1,,,,,,
1,425.0,17,phase_2,blue_circle,go,,,,go-2,1,,,,,,
0,0,17,phase_2,blue_circle,stop,red,0.0,0-SSD,go-2,4,,,,,,
1,533.0,17,phase_2,purple_circle,go,,,,go-1,1,,,,,,
1,497.0,17,phase_2,purple_triangle,go,,,,go-1,1,,,,,,
0,0,17,phase_2,purple_circle,stop,red,0.0,0-SSD,go-1,4,,,,,,
2,514.0,17,phase_2,blue_rhombus,go,,,,go-2,1,,,,,,
0,0,17,phase_2,purple_pentagon,stop,green,150.0,tracking-SSD,go-1,4,,,,,,
1,564.0,17,phase_2,purple_circle,go,,,,go-1,1,,,,,,
0,0,17,phase_2,blue_circle,stop,green,200.0,tracking-SSD,go-2,4,,,,,,
2,458.0,17,phase_2,blue_pentagon,go,,,,go-2,1,,,,,,
2,556.0,17,phase_2,blue_rhombus,go,,,,go-2,1,,,,,,
2,486.0,17,phase_2,blue_pentagon,go,,,,go-2,1,,,,,,
2,462.0,17,phase_2,blue_rhombus,go,,,,go-2,1,,,,,,
1,459.0,17,phase_2,purple_triangle,go,,,,go-1,1,,,,,,
2,501.0,17,phase_2,blue_rhombus,go,,,,go-2,1,,,,,,
0,0,17,phase_2,blue_circle,stop,red,0.0,0-SSD,go-2,4,,,,,,
1,451.0,17,phase_2,blue_triangle,go,,,,go-2,1,,,,,,
0,0,17,phase_2,purple_pentagon,stop,red,0.0,0-SSD,go-1,4,,,,,,
1,469.0,17,phase_2,blue_triangle,stop,green,250.0,tracking-SSD,go-2,3,,,,,,
2,467.0,17,phase_2,purple_rhombus,go,,,,go-1,1,,,,,,
1,453.0,17,phase_2,blue_pentagon,go,,,,go-2,2,,,,,,
1,496.0,17,phase_2,purple_triangle,go,,,,go-1,1,,,,,,
1,493.0,17,phase_2,purple_triangle,stop,green,200.0,tracking-SSD,go-1,3,,,,,,
2,639.0,1,phase_3,blue_rhombus,stop,green,150.0,tracking-SSD,go-2,3,,,,,,
2,534.0,1,phase_3,blue_rhombus,go,,,,go-2,1,,,,,,
1,465.0,1,phase_3,purple_triangle,go,,,,go-1,1,,,,,,
2,384.0,1,phase_3,purple_pentagon,go,,,,go-1,1,,,,,,
1,417.0,1,phase_3,blue_triangle,go,,,,go-2,1,,,,,,
1,416.0,1,phase_3,blue_triangle,go,,,,go-2,1,,,,,,
2,435.0,1,phase_3,purple_circle,go,,,,go-1,2,,,,,,
0,0,1,phase_3,purple_triangle,stop,red,0.0,0-SSD,go-1,4,,,,,,
2,486.0,1,phase_3,blue_rhombus,go,,,,go-2,1,,,,,,
0,0,1,phase_3,purple_pentagon,stop,green,100.0,tracking-SSD,go-1,4,,,,,,
1,458.0,1,phase_3,purple_triangle,stop,green,150.0,tracking-SSD,go-1,3,,,,,,
2,523.0,1,phase_3,purple_pentagon,go,,,,go-1,1,,,,,,
1,497.0,2,phase_3,purple_circle,go,,,,go-1,1,,,,,,
0,0,2,phase_3,blue_pentagon,stop,red,0.0,0-SSD,go-2,4,,,,,,
0,0,2,phase_3,blue_pentagon,stop,red,0.0,0-SSD,go-2,4,,,,,,
1,468.0,2,phase_3,purple_pentagon,go,,,,go-1,2,,,,,,
1,487.0,2,phase_3,purple_triangle,go,,,,go-1,1,,,,,,
1,451.0,2,phase_3,purple_pentagon,go,,,,go-1,2,,,,,,
0,0,2,phase_3,blue_circle,stop,green,100.0,tracking-SSD,go-2,4,,,,,,
1,503.0,2,phase_3,blue_circle,go,,,,go-2,1,,,,,,
0,0,2,phase_3,purple_circle,stop,green,150.0,tracking-SSD,go-1,4,,,,,,
2,509.0,2,phase_3,blue_pentagon,stop,green,200.0,tracking-SSD,go-2,3,,,,,,
0,0,2,phase_3,purple_rhombus,stop,green,150.0,tracking-SSD,go-1,4,,,,,,
0,0,2,phase_3,purple_rhombus,stop,red,0.0,0-SSD,go-1,4,,,,,,
0,0,3,phase_3,blue_pentagon,stop,red,0.0,0-SSD,go-2,4,,,,,,
0,0,3,phase_3,purple_rhombus,stop,red,0.0,0-SSD,go-1,4,,,,,,
1,462.0,3,phase_3,purple_circle,go,,,,go-1,1,,,,,,
1,527.0,3,phase_3,blue_rhombus,go,,,,go-2,2,,,,,,
1,513.0,3,phase_3,blue_triangle,stop,green,200.0,tracking-SSD,go-2,3,,,,,,
1,443.0,3,phase_3,blue_triangle,go,,,,go-2,1,,,,,,
2,463.0,3,phase_3,blue_circle,go,,,,go-2,2,,,,,,
2,535.0,3,phase_3,purple_rhombus,go,,,,go-1,1,,,,,,
0,0,3,phase_3,purple_pentagon,stop,red,0.0,0-SSD,go-1,4,,,,,,
2,434.0,3,phase_3,purple_pentagon,go,,,,go-1,1,,,,,,
2,657.0,3,phase_3,blue_triangle,go,,,,go-2,2,,,,,,
1,451.0,3,phase_3,purple_triangle,go,,,,go-1,1,,,,,,
2,483.0,4,phase_3,purple_rhombus,go,,,,go-1,1,,,,,,
1,480.0,4,phase_3,purple_circle,go,,,,go-1,1,,,,,,
1,477.0,4,phase_3,purple_triangle,go,,,,go-1,1,,,,,,
1,429.0,4,phase_3,blue_triangle,go,,,,go-2,1,,,,,,
2,494.0,4,phase_3,blue_rhombus,go,,,,go-2,1,,,,,,
2,458.0,4,phase_3,blue_pentagon,go,,,,go-2,1,,,,,,
1,500.0,4,phase_3,blue_circle,go,,,,go-2,1,,,,,,
1,430.0,4,phase_3,purple_circle,go,,,,go-1,1,,,,,,
0,0,4,phase_3,blue_rhombus,stop,red,0.0,0-SSD,go-2,4,,,,,,
1,493.0,4,phase_3,blue_circle,go,,,,go-2,1,,,,,,
1,456.0,4,phase_3,blue_circle,go,,,,go-2,1,,,,,,
2,543.0,4,phase_3,blue_rhombus,go,,,,go-2,1,,,,,,
,745.0,5,phase_3,,,,,,,,blue_square,go-2,blue_square,go-2,green_square,tracking-SSD
,854.0,5,phase_3,,,,,,,,blue_square,go-2,blue_square,go-2,red_square,0-SSD
,972.0,5,phase_3,,,,,,,,purple_square,go-1,purple_square,go-1,blue_square,go-2
,1251.0,5,phase_3,,,,,,,,green_square,tracking-SSD,purple_square,go-1,green_square,tracking-SSD
,694.0,5,phase_3,,,,,,,,red_square,0-SSD,purple_square,go-1,red_square,0-SSD
,643.0,5,phase_3,,,,,,,,red_square,0-SSD,red_square,0-SSD,green_square,tracking-SSD
,926.0,5,phase_3,,,,,,,,green_square,tracking-SSD,green_square,tracking-SSD,red_square,0-SSD
,988.0,5,phase_3,,,,,,,,purple_square,go-1,blue_square,go-2,purple_square,go-1
,1231.0,5,phase_3,,,,,,,,red_square,0-SSD,red_square,0-SSD,purple_square,go-1
,1733.0,5,phase_3,,,,,,,,red_square,0-SSD,red_square,0-SSD,blue_square,go-2
,1470.0,5,phase_3,,,,,,,,blue_square,go-2,green_square,tracking-SSD,blue_square,go-2
,1566.0,5,phase_3,,,,,,,,purple_square,go-1,green_square,tracking-SSD,purple_square,go-1
,2018.0,6,phase_3,,,,,,,,green_square,tracking-SSD,purple_square,go-1,green_square,tracking-SSD
,1180.0,6,phase_3,,,,,,,,red_square,0-SSD,purple_square,go-1,red_square,0-SSD
,1039.0,6,phase_3,,,,,,,,red_square,0-SSD,blue_square,go-2,red_square,0-SSD
,1497.0,6,phase_3,,,,,,,,blue_square,go-2,blue_square,go-2,green_square,tracking-SSD
,840.0,6,phase_3,,,,,,,,blue_square,go-2,purple_square,go-1,blue_square,go-2
,948.0,6,phase_3,,,,,,,,red_square,0-SSD,red_square,0-SSD,green_square,tracking-SSD
0,0,6,phase_3,,,,,,,,,,green_square,tracking-SSD,blue_square,go-2
,843.0,6,phase_3,,,,,,,,blue_square,go-2,blue_square,go-2,purple_square,go-1
,974.0,6,phase_3,,,,,,,,purple_square,go-1,red_square,0-SSD,purple_square,go-1
0,0,6,phase_3,,,,,,,,,,green_square,tracking-SSD,red_square,0-SSD
,887.0,6,phase_3,,,,,,,,blue_square,go-2,red_square,0-SSD,blue_square,go-2
,545.0,6,phase_3,,,,,,,,green_square,tracking-SSD,green_square,tracking-SSD,purple_square,go-1
,2142.0,7,phase_3,,,,,,,,red_square,0-SSD,purple_square,go-1,red_square,0-SSD
,641.0,7,phase_3,,,,,,,,purple_square,go-1,purple_square,go-1,blue_square,go-2
,1086.0,7,phase_3,,,,,,,,green_square,tracking-SSD,purple_square,go-1,green_square,tracking-SSD
,1004.0,7,phase_3,,,,,,,,green_square,tracking-SSD,red_square,0-SSD,green_square,tracking-SSD
,976.0,7,phase_3,,,,,,,,green_square,tracking-SSD,blue_square,go-2,green_square,tracking-SSD
,668.0,7,phase_3,,,,,,,,blue_square,go-2,blue_square,go-2,red_square,0-SSD
,903.0,7,phase_3,,,,,,,,blue_square,go-2,red_square,0-SSD,blue_square,go-2
,527.0,7,phase_3,,,,,,,,green_square,tracking-SSD,green_square,tracking-SSD,red_square,0-SSD
,816.0,7,phase_3,,,,,,,,blue_square,go-2,blue_square,go-2,purple_square,go-1
,936.0,7,phase_3,,,,,,,,blue_square,go-2,green_square,tracking-SSD,blue_square,go-2
,627.0,7,phase_3,,,,,,,,red_square,0-SSD,red_square,0-SSD,purple_square,go-1
,1388.0,7,phase_3,,,,,,,,green_square,tracking-SSD,green_square,tracking-SSD,purple_square,go-1
,971.0,8,phase_3,,,,,,,,green_square,tracking-SSD,purple_square,go-1,green_square,tracking-SSD
,674.0,8,phase_3,,,,,,,,purple_square,go-1,purple_square,go-1,red_square,0-SSD
,276.0,8,phase_3,,,,,,,,red_square,0-SSD,blue_square,go-2,red_square,0-SSD
,552.0,8,phase_3,,,,,,,,red_square,0-SSD,red_square,0-SSD,green_square,tracking-SSD
,637.0,8,phase_3,,,,,,,,green_square,tracking-SSD,blue_square,go-2,green_square,tracking-SSD
,847.0,8,phase_3,,,,,,,,purple_square,go-1,purple_square,go-1,blue_square,go-2
0,0,8,phase_3,,,,,,,,,,green_square,tracking-SSD,purple_square,go-1
0,0,8,phase_3,,,,,,,,,,red_square,0-SSD,purple_square,go-1
0,0,8,phase_3,,,,,,,,,,blue_square,go-2,purple_square,go-1
0,0,8,phase_3,,,,,,,,,,red_square,0-SSD,blue_square,go-2
0,0,8,phase_3,,,,,,,,,,green_square,tracking-SSD,red_square,0-SSD
0,0,8,phase_3,,,,,,,,,,green_square,tracking-SSD,blue_square,go-2
0,0,9,phase_3,,,,,,,,,,purple_square,go-1,red_square,0-SSD
,364.0,9,phase_3,,,,,,,,red_square,0-SSD,blue_square,go-2,red_square,0-SSD
,449.0,9,phase_3,,,,,,,,green_square,tracking-SSD,red_square,0-SSD,green_square,tracking-SSD
,457.0,9,phase_3,,,,,,,,blue_square,go-2,blue_square,go-2,green_square,tracking-SSD
,508.0,9,phase_3,,,,,,,,blue_square,go-2,purple_square,go-1,blue_square,go-2
,796.0,9,phase_3,,,,,,,,purple_square,go-1,purple_square,go-1,green_square,tracking-SSD
,916.0,9,phase_3,,,,,,,,red_square,0-SSD,red_square,0-SSD,purple_square,go-1
,866.0,9,phase_3,,,,,,,,green_square,tracking-SSD,green_square,tracking-SSD,red_square,0-SSD
,895.0,9,phase_3,,,,,,,,blue_square,go-2,red_square,0-SSD,blue_square,go-2
,667.0,9,phase_3,,,,,,,,green_square,tracking-SSD,green_square,tracking-SSD,purple_square,go-1
,1032.0,9,phase_3,,,,,,,,purple_square,go-1,blue_square,go-2,purple_square,go-1
,1107.0,9,phase_3,,,,,,,,green_square,tracking-SSD,green_square,tracking-SSD,blue_square,go-2
