response,reaction_time,block,which_phase,stim,stop_signal_trial_type,stop_signal_stimulus,SSD,SSD_type,condition,accuracy,chosen_stim,chosen_cond,stim_left,cond_left,stim_right,cond_right
1,364.0,1,phase_2,purple_circle,go,,,,go-1,1,,,,,,
1,407.0,1,phase_2,purple_circle,go,,,,go-1,1,,,,,,
1,415.0,1,phase_2,purple_circle,go,,,,go-1,1,,,,,,
0,0,1,phase_2,purple_pentagon,stop,blue,0.0,0-SSD,go-1,4,,,,,,
0,0,1,phase_2,red_triangle,stop,blue,0.0,0-SSD,go-2,4,,,,,,
0,0,1,phase_2,purple_rhombus,stop,blue,0.0,0-SSD,go-1,4,,,,,,
1,610.0,1,phase_2,red_pentagon,go,,,,go-2,1,,,,,,
0,0,1,phase_2,purple_rhombus,stop,green,250.0,tracking-SSD,go-1,4,,,,,,
1,369.0,1,phase_2,purple_rhombus,go,,,,go-1,2,,,,,,
2,581.0,1,phase_2,purple_triangle,go,,,,go-1,1,,,,,,
2,601.0,1,phase_2,red_triangle,stop,green,300.0,tracking-SSD,go-2,3,,,,,,
1,532.0,1,phase_2,red_circle,go,,,,go-2,1,,,,,,
1,450.0,1,phase_2,purple_circle,go,,,,go-1,1,,,,,,
0,0,1,phase_2,red_triangle,stop,blue,0.0,0-SSD,go-2,4,,,,,,
1,379.0,1,phase_2,purple_pentagon,go,,,,go-1,1,,,,,,
1,511.0,1,phase_2,red_pentagon,go,,,,go-2,1,,,,,,
2,566.0,1,phase_2,purple_rhombus,go,,,,go-1,1,,,,,,
2,608.0,1,phase_2,red_rhombus,stop,green,250.0,tracking-SSD,go-2,3,,,,,,
0,0,1,phase_2,purple_rhombus,stop,blue,0.0,0-SSD,go-1,4,,,,,,
1,356.0,1,phase_2,purple_circle,stop,green,200.0,tracking-SSD,go-1,3,,,,,,
1,432.0,1,phase_2,red_rhombus,go,,,,go-2,2,,,,,,
2,542.0,1,phase_2,purple_pentagon,go,,,,go-1,2,,,,,,
0,0,1,phase_2,purple_pentagon,stop,blue,0.0,0-SSD,go-1,4,,,,,,
1,526.0,1,phase_2,red_pentagon,go,,,,go-2,1,,,,,,
2,389.0,1,phase_2,red_triangle,go,,,,go-2,1,,,,,,
2,477.0,1,phase_2,red_triangle,go,,,,go-2,1,,,,,,
0,0,1,phase_2,red_circle,stop,green,150.0,tracking-SSD,go-2,4,,,,,,
2,473.0,1,phase_2,red_triangle,go,,,,go-2,1,,,,,,
0,0,1,phase_2,red_triangle,stop,blue,0.0,0-SSD,go-2,4,,,,,,
1,401.0,1,phase_2,red_pentagon,go,,,,go-2,1,,,,,,
0,0,1,phase_2,red_rhombus,stop,blue,0.0,0-SSD,go-2,4,,,,,,
2,621.0,1,phase_2,red_rhombus,go,,,,go-2,1,,,,,,
1,427.0,1,phase_2,red_circle,go,,,,go-2,1,,,,,,
1,413.0,1,phase_2,purple_pentagon,go,,,,go-1,1,,,,,,
2,637.0,1,phase_2,purple_rhombus,go,,,,go-1,1,,,,,,
2,566.0,1,phase_2,red_rhombus,go,,,,go-2,1,,,,,,
1,439.0,1,phase_2,purple_pentagon,go,,,,go-1,1,,,,,,
1,360.0,1,phase_2,red_circle,go,,,,go-2,1,,,,,,
2,426.0,1,phase_2,purple_triangle,go,,,,go-1,1,,,,,,
2,367.0,1,phase_2,purple_triangle,go,,,,go-1,1,,,,,,
1,454.0,1,phase_2,purple_circle,go,,,,go-1,1,,,,,,
1,508.0,1,phase_2,red_pentagon,go,,,,go-2,1,,,,,,
2,382.0,1,phase_2,red_pentagon,go,,,,go-2,2,,,,,,
2,526.0,1,phase_2,red_rhombus,go,,,,go-2,1,,,,,,
1,410.0,1,phase_2,purple_circle,go,,,,go-1,1,,,,,,
2,622.0,1,phase_2,purple_triangle,stop,green,200.0,tracking-SSD,go-1,3,,,,,,
0,0,1,phase_2,purple_triangle,stop,green,150.0,tracking-SSD,go-1,4,,,,,,
1,392.0,1,phase_2,red_circle,stop,green,200.0,tracking-SSD,go-2,3,,,,,,
0,0,2,phase_2,red_triangle,stop,green,150.0,tracking-SSD,go-2,4,,,,,,
1,453.0,2,phase_2,red_rhombus,go,,,,go-2,2,,,,,,
0,0,2,phase_2,purple_pentagon,stop,blue,0.0,0-SSD,go-1,4,,,,,,
1,473.0,2,phase_2,purple_pentagon,go,,,,go-1,1,,,,,,
2,594.0,2,phase_2,red_triangle,go,,,,go-2,1,,,,,,
2,626.0,2,phase_2,red_triangle,go,,,,go-2,1,,,,,,
0,0,2,phase_2,red_triangle,stop,blue,0.0,0-SSD,go-2,4,,,,,,
1,475.0,2,phase_2,purple_pentagon,go,,,,go-1,1,,,,,,
1,384.0,2,phase_2,red_circle,go,,,,go-2,1,,,,,,
1,494.0,2,phase_2,purple_circle,stop,green,200.0,tracking-SSD,go-1,3,,,,,,
1,345.0,2,phase_2,purple_circle,go,,,,go-1,1,,,,,,
1,501.0,2,phase_2,purple_pentagon,go,,,,go-1,1,,,,,,
1,453.0,2,phase_2,purple_pentagon,go,,,,go-1,1,,,,,,
1,540.0,2,phase_2,purple_circle,go,,,,go-1,1,,,,,,
0,0,2,phase_2,purple_rhombus,stop,green,150.0,tracking-SSD,go-1,4,,,,,,
0,0,2,phase_2,red_rhombus,go,,,,go-2,2,,,,,,
2,601.0,2,phase_2,red_rhombus,go,,,,go-2,1,,,,,,
2,576.0,2,phase_2,purple_triangle,go,,,,go-1,1,,,,,,
1,606.0,2,phase_2,red_pentagon,go,,,,go-2,1,,,,,,
2,637.0,2,phase_2,red_triangle,go,,,,go-2,1,,,,,,
1,568.0,2,phase_2,purple_pentagon,go,,,,go-1,1,,,,,,
2,532.0,2,phase_2,purple_rhombus,go,,,,go-1,1,,,,,,
0,0,2,phase_2,purple_pentagon,stop,blue,0.0,0-SSD,go-1,4,,,,,,
0,0,2,phase_2,red_rhombus,stop,green,200.0,tracking-SSD,go-2,4,,,,,,
2,468.0,2,phase_2,purple_rhombus,go,,,,go-1,1,,,,,,
2,580.0,2,phase_2,purple_triangle,go,,,,go-1,1,,,,,,
1,578.0,2,phase_2,purple_pentagon,go,,,,go-1,1,,,,,,
1,519.0,2,phase_2,purple_circle,go,,,,go-1,1,,,,,,
1,550.0,2,phase_2,purple_pentagon,stop,green,250.0,tracking-SSD,go-1,3,,,,,,
1,401.0,2,phase_2,red_pentagon,go,,,,go-2,1,,,,,,
0,0,2,phase_2,red_rhombus,stop,green,200.0,tracking-SSD,go-2,4,,,,,,
0,0,2,phase_2,purple_pentagon,stop,blue,0.0,0-SSD,go-1,4,,,,,,
2,553.0,2,phase_2,purple_rhombus,go,,,,go-1,1,,,,,,
1,427.0,2,phase_2,red_circle,go,,,,go-2,1,,,,,,
1,357.0,2,phase_2,red_circle,go,,,,go-2,1,,,,,,
2,502.0,2,phase_2,purple_rhombus,go,,,,go-1,1,,,,,,
2,714.0,2,phase_2,red_triangle,go,,,,go-2,1,,,,,,
1,497.0,2,phase_2,purple_circle,stop,green,250.0,tracking-SSD,go-1,3,,,,,,
1,382.0,2,phase_2,red_circle,go,,,,go-2,1,,,,,,
0,0,2,phase_2,purple_circle,stop,blue,0.0,0-SSD,go-1,4,,,,,,
0,0,2,phase_2,red_rhombus,stop,blue,0.0,0-SSD,go-2,4,,,,,,
2,399.0,2,phase_2,purple_triangle,go,,,,go-1,1,,,,,,
2,521.0,2,phase_2,red_triangle,go,,,,go-2,1,,,,,,
2,372.0,2,phase_2,red_triangle,go,,,,go-2,1,,,,,,
0,0,2,phase_2,red_triangle,stop,blue,0.0,0-SSD,go-2,4,,,,,,
1,527.0,2,phase_2,red_circle,go,,,,go-2,1,,,,,,
1,401.0,2,phase_2,red_circle,stop,green,200.0,tracking-SSD,go-2,3,,,,,,
0,0,2,phase_2,red_rhombus,stop,blue,0.0,0-SSD,go-2,4,,,,,,
0,0,3,phase_2,purple_rhombus,stop,blue,0.0,0-SSD,go-1,4,,,,,,
0,0,3,phase_2,red_pentagon,stop,blue,0.0,0-SSD,go-2,4,,,,,,
0,0,3,phase_2,red_rhombus,stop,green,150.0,tracking-SSD,go-2,4,,,,,,
2,458.0,3,phase_2,red_triangle,go,,,,go-2,1,,,,,,
1,365.0,3,phase_2,purple_circle,go,,,,go-1,1,,,,,,
1,407.0,3,phase_2,red_circle,go,,,,go-2,1,,,,,,
1,406.0,3,phase_2,red_triangle,stop,green,200.0,tracking-SSD,go-2,3,,,,,,
0,0,3,phase_2,purple_pentagon,stop,green,150.0,tracking-SSD,go-1,4,,,,,,
0,0,3,phase_2,purple_circle,stop,blue,0.0,0-SSD,go-1,4,,,,,,
2,501.0,3,phase_2,purple_pentagon,go,,,,go-1,2,,,,,,
0,0,3,phase_2,purple_triangle,stop,blue,0.0,0-SSD,go-1,4,,,,,,
2,653.0,3,phase_2,red_rhombus,stop,green,200.0,tracking-SSD,go-2,3,,,,,,
2,381.0,3,phase_2,purple_circle,go,,,,go-1,2,,,,,,
1,536.0,3,phase_2,purple_circle,go,,,,go-1,1,,,,,,
1,344.0,3,phase_2,red_circle,go,,,,go-2,1,,,,,,
1,601.0,3,phase_2,purple_pentagon,go,,,,go-1,1,,,,,,
1,453.0,3,phase_2,red_circle,go,,,,go-2,1,,,,,,
2,486.0,3,phase_2,purple_triangle,stop,green,150.0,tracking-SSD,go-1,3,,,,,,
0,0,3,phase_2,purple_triangle,stop,blue,0.0,0-SSD,go-1,4,,,,,,
1,503.0,3,phase_2,purple_pentagon,go,,,,go-1,1,,,,,,
0,0,3,phase_2,red_rhombus,stop,blue,0.0,0-SSD,go-2,4,,,,,,
1,397.0,3,phase_2,red_circle,go,,,,go-2,1,,,,,,
2,574.0,3,phase_2,purple_triangle,go,,,,go-1,1,,,,,,
2,414.0,3,phase_2,red_triangle,go,,,,go-2,1,,,,,,
0,0,3,phase_2,purple_rhombus,stop,green,100.0,tracking-SSD,go-1,4,,,,,,
1,343.0,3,phase_2,red_rhombus,go,,,,go-2,2,,,,,,
1,375.0,3,phase_2,purple_rhombus,go,,,,go-1,2,,,,,,
2,598.0,3,phase_2,purple_rhombus,go,,,,go-1,1,,,,,,
2,404.0,3,phase_2,red_rhombus,go,,,,go-2,1,,,,,,
1,559.0,3,phase_2,purple_pentagon,go,,,,go-1,1,,,,,,
0,0,3,phase_2,red_rhombus,stop,blue,0.0,0-SSD,go-2,4,,,,,,
2,555.0,3,phase_2,purple_triangle,go,,,,go-1,1,,,,,,
1,619.0,3,phase_2,red_pentagon,go,,,,go-2,1,,,,,,
2,563.0,3,phase_2,purple_triangle,go,,,,go-1,1,,,,,,
1,482.0,3,phase_2,purple_pentagon,go,,,,go-1,1,,,,,,
0,0,3,phase_2,red_rhombus,stop,green,150.0,tracking-SSD,go-2,4,,,,,,
1,499.0,3,phase_2,red_pentagon,go,,,,go-2,1,,,,,,
1,656.0,3,phase_2,purple_pentagon,go,,,,go-1,1,,,,,,
2,405.0,3,phase_2,purple_triangle,stop,green,200.0,tracking-SSD,go-1,3,,,,,,
2,538.0,3,phase_2,red_triangle,go,,,,go-2,1,,,,,,
1,501.0,3,phase_2,red_circle,go,,,,go-2,1,,,,,,
1,534.0,3,phase_2,purple_pentagon,go,,,,go-1,1,,,,,,
1,509.0,3,phase_2,red_circle,go,,,,go-2,1,,,,,,
1,496.0,3,phase_2,purple_pentagon,go,,,,go-1,1,,,,,,
1,617.0,3,phase_2,red_circle,go,,,,go-2,1,,,,,,
0,0,3,phase_2,red_circle,stop,blue,0.0,0-SSD,go-2,4,,,,,,
1,466.0,3,phase_2,red_rhombus,go,,,,go-2,2,,,,,,
1,340.0,3,phase_2,red_triangle,go,,,,go-2,2,,,,,,
0,0,4,phase_2,purple_circle,stop,blue,0.0,0-SSD,go-1,4,,,,,,
0,0,4,phase_2,purple_pentagon,stop,blue,0.0,0-SSD,go-1,4,,,,,,
1,428.0,4,phase_2,purple_triangle,go,,,,go-1,2,,,,,,
1,540.0,4,phase_2,red_pentagon,go,,,,go-2,1,,,,,,
2,548.0,4,phase_2,red_rhombus,go,,,,go-2,1,,,,,,
2,613.0,4,phase_2,purple_rhombus,go,,,,go-1,1,,,,,,
2,578.0,4,phase_2,purple_rhombus,go,,,,go-1,1,,,,,,
2,654.0,4,phase_2,purple_triangle,go,,,,go-1,1,,,,,,
2,517.0,4,phase_2,purple_rhombus,go,,,,go-1,1,,,,,,
2,480.0,4,phase_2,red_triangle,go,,,,go-2,1,,,,,,
2,456.0,4,phase_2,purple_triangle,go,,,,go-1,1,,,,,,
0,0,4,phase_2,purple_pentagon,stop,blue,0.0,0-SSD,go-1,4,,,,,,
1,340.0,4,phase_2,red_circle,go,,,,go-2,1,,,,,,
2,484.0,4,phase_2,purple_triangle,stop,green,150.0,tracking-SSD,go-1,3,,,,,,
0,0,4,phase_2,red_pentagon,stop,green,100.0,tracking-SSD,go-2,4,,,,,,
1,467.0,4,phase_2,red_rhombus,go,,,,go-2,2,,,,,,
1,734.0,4,phase_2,red_rhombus,go,,,,go-2,2,,,,,,
2,531.0,4,phase_2,red_triangle,go,,,,go-2,1,,,,,,
2,416.0,4,phase_2,red_rhombus,go,,,,go-2,1,,,,,,
2,571.0,4,phase_2,red_triangle,go,,,,go-2,1,,,,,,
1,592.0,4,phase_2,red_pentagon,go,,,,go-2,1,,,,,,
1,409.0,4,phase_2,purple_pentagon,go,,,,go-1,1,,,,,,
0,0,4,phase_2,purple_rhombus,stop,green,150.0,tracking-SSD,go-1,4,,,,,,
0,0,4,phase_2,red_pentagon,stop,green,200.0,tracking-SSD,go-2,4,,,,,,
1,560.0,4,phase_2,red_circle,go,,,,go-2,1,,,,,,
2,501.0,4,phase_2,red_triangle,go,,,,go-2,1,,,,,,
1,509.0,4,phase_2,purple_pentagon,go,,,,go-1,1,,,,,,
1,419.0,4,phase_2,red_pentagon,go,,,,go-2,1,,,,,,
2,461.0,4,phase_2,purple_circle,go,,,,go-1,2,,,,,,
1,504.0,4,phase_2,red_circle,go,,,,go-2,1,,,,,,
0,0,4,phase_2,red_triangle,stop,blue,0.0,0-SSD,go-2,4,,,,,,
0,0,4,phase_2,purple_triangle,stop,green,250.0,tracking-SSD,go-1,4,,,,,,
0,0,4,phase_2,red_circle,stop,blue,0.0,0-SSD,go-2,4,,,,,,
2,441.0,4,phase_2,red_pentagon,go,,,,go-2,2,,,,,,
1,597.0,4,phase_2,purple_circle,go,,,,go-1,1,,,,,,
2,594.0,4,phase_2,purple_triangle,go,,,,go-1,1,,,,,,
1,693.0,4,phase_2,purple_pentagon,go,,,,go-1,1,,,,,,
1,544.0,4,phase_2,red_circle,stop,green,300.0,tracking-SSD,go-2,3,,,,,,
0,0,4,phase_2,red_triangle,stop,blue,0.0,0-SSD,go-2,4,,,,,,
0,0,4,phase_2,red_rhombus,stop,blue,0.0,0-SSD,go-2,4,,,,,,
1,448.0,4,phase_2,purple_rhombus,go,,,,go-1,2,,,,,,
1,434.0,4,phase_2,purple_rhombus,stop,green,250.0,tracking-SSD,go-1,3,,,,,,
1,421.0,4,phase_2,red_circle,stop,green,200.0,tracking-SSD,go-2,3,,,,,,
1,566.0,4,phase_2,red_pentagon,go,,,,go-2,1,,,,,,
2,293.0,4,phase_2,purple_circle,go,,,,go-1,2,,,,,,
1,561.0,4,phase_2,purple_circle,go,,,,go-1,1,,,,,,
2,794.0,4,phase_2,purple_rhombus,go,,,,go-1,1,,,,,,
0,0,4,phase_2,purple_circle,stop,blue,0.0,0-SSD,go-1,4,,,,,,
1,543.0,5,phase_2,purple_pentagon,go,,,,go-1,1,,,,,,
1,350.0,5,phase_2,purple_pentagon,go,,,,go-1,1,,,,,,
1,336.0,5,phase_2,red_circle,go,,,,go-2,1,,,,,,
1,345.0,5,phase_2,red_circle,go,,,,go-2,1,,,,,,
2,365.0,5,phase_2,purple_triangle,go,,,,go-1,1,,,,,,
0,0,5,phase_2,red_circle,stop,blue,0.0,0-SSD,go-2,4,,,,,,
0,0,5,phase_2,purple_triangle,stop,green,150.0,tracking-SSD,go-1,4,,,,,,
0,0,5,phase_2,purple_rhombus,stop,green,200.0,tracking-SSD,go-1,4,,,,,,
1,444.0,5,phase_2,red_rhombus,go,,,,go-2,2,,,,,,
2,510.0,5,phase_2,red_rhombus,go,,,,go-2,1,,,,,,
1,441.0,5,phase_2,red_circle,go,,,,go-2,1,,,,,,
2,383.0,5,phase_2,red_triangle,go,,,,go-2,1,,,,,,
0,0,5,phase_2,purple_pentagon,stop,blue,0.0,0-SSD,go-1,4,,,,,,
0,0,5,phase_2,red_pentagon,stop,blue,0.0,0-SSD,go-2,4,,,,,,
1,422.0,5,phase_2,red_rhombus,go,,,,go-2,2,,,,,,
2,622.0,5,phase_2,purple_rhombus,go,,,,go-1,1,,,,,,
2,429.0,5,phase_2,red_rhombus,go,,,,go-2,1,,,,,,
2,563.0,5,phase_2,purple_triangle,go,,,,go-1,1,,,,,,
2,447.0,5,phase_2,red_rhombus,stop,green,250.0,tracking-SSD,go-2,3,,,,,,
2,479.0,5,phase_2,purple_rhombus,go,,,,go-1,1,,,,,,
2,386.0,5,phase_2,red_pentagon,stop,green,200.0,tracking-SSD,go-2,3,,,,,,
1,373.0,5,phase_2,purple_circle,go,,,,go-1,1,,,,,,
1,618.0,5,phase_2,red_pentagon,go,,,,go-2,1,,,,,,
0,0,5,phase_2,purple_circle,stop,blue,0.0,0-SSD,go-1,4,,,,,,
2,421.0,5,phase_2,purple_triangle,stop,green,150.0,tracking-SSD,go-1,3,,,,,,
0,0,5,phase_2,purple_triangle,stop,green,100.0,tracking-SSD,go-1,4,,,,,,
0,0,5,phase_2,red_circle,stop,green,150.0,tracking-SSD,go-2,4,,,,,,
1,696.0,5,phase_2,red_pentagon,go,,,,go-2,1,,,,,,
2,603.0,5,phase_2,red_rhombus,go,,,,go-2,1,,,,,,
2,399.0,5,phase_2,red_rhombus,go,,,,go-2,1,,,,,,
2,397.0,5,phase_2,red_rhombus,go,,,,go-2,1,,,,,,
1,439.0,5,phase_2,red_circle,stop,green,200.0,tracking-SSD,go-2,3,,,,,,
1,392.0,5,phase_2,purple_triangle,go,,,,go-1,2,,,,,,
1,424.0,5,phase_2,purple_circle,go,,,,go-1,1,,,,,,
2,466.0,5,phase_2,purple_rhombus,go,,,,go-1,1,,,,,,
1,418.0,5,phase_2,red_triangle,go,,,,go-2,2,,,,,,
2,506.0,5,phase_2,purple_triangle,go,,,,go-1,1,,,,,,
0,0,5,phase_2,red_circle,stop,blue,0.0,0-SSD,go-2,4,,,,,,
0,0,5,phase_2,purple_triangle,stop,blue,0.0,0-SSD,go-1,4,,,,,,
1,465.0,5,phase_2,purple_circle,go,,,,go-1,1,,,,,,
2,574.0,5,phase_2,purple_triangle,go,,,,go-1,1,,,,,,
0,0,5,phase_2,purple_pentagon,stop,blue,0.0,0-SSD,go-1,4,,,,,,
2,561.0,5,phase_2,purple_pentagon,go,,,,go-1,2,,,,,,
1,592.0,5,phase_2,purple_pentagon,go,,,,go-1,1,,,,,,
1,512.0,5,phase_2,purple_circle,go,,,,go-1,1,,,,,,
2,397.0,5,phase_2,red_triangle,go,,,,go-2,1,,,,,,
1,484.0,5,phase_2,red_pentagon,go,,,,go-2,1,,,,,,
0,0,5,phase_2,red_pentagon,stop,blue,0.0,0-SSD,go-2,4,,,,,,
2,555.0,6,phase_2,red_rhombus,go,,,,go-2,1,,,,,,
0,0,6,phase_2,red_circle,stop,blue,0.0,0-SSD,go-2,4,,,,,,
1,473.0,6,phase_2,purple_triangle,go,,,,go-1,2,,,,,,
1,436.0,6,phase_2,red_pentagon,go,,,,go-2,1,,,,,,
2,547.0,6,phase_2,purple_triangle,go,,,,go-1,1,,,,,,
2,466.0,6,phase_2,red_triangle,go,,,,go-2,1,,,,,,
1,554.0,6,phase_2,purple_rhombus,go,,,,go-1,2,,,,,,
0,0,6,phase_2,purple_rhombus,stop,green,150.0,tracking-SSD,go-1,4,,,,,,
2,493.0,6,phase_2,red_triangle,go,,,,go-2,1,,,,,,
2,616.0,6,phase_2,purple_rhombus,go,,,,go-1,1,,,,,,
2,354.0,6,phase_2,red_rhombus,go,,,,go-2,1,,,,,,
1,486.0,6,phase_2,purple_pentagon,go,,,,go-1,1,,,,,,
1,573.0,6,phase_2,red_circle,stop,green,200.0,tracking-SSD,go-2,3,,,,,,
2,584.0,6,phase_2,purple_triangle,go,,,,go-1,1,,,,,,
1,367.0,6,phase_2,red_circle,stop,green,150.0,tracking-SSD,go-2,3,,,,,,
0,0,6,phase_2,purple_pentagon,stop,blue,0.0,0-SSD,go-1,4,,,,,,
1,509.0,6,phase_2,red_pentagon,go,,,,go-2,1,,,,,,
2,530.0,6,phase_2,red_triangle,go,,,,go-2,1,,,,,,
1,414.0,6,phase_2,purple_pentagon,go,,,,go-1,1,,,,,,
1,468.0,6,phase_2,red_circle,go,,,,go-2,1,,,,,,
0,0,6,phase_2,red_triangle,stop,green,100.0,tracking-SSD,go-2,4,,,,,,
1,475.0,6,phase_2,red_pentagon,go,,,,go-2,1,,,,,,
0,0,6,phase_2,purple_pentagon,stop,blue,0.0,0-SSD,go-1,4,,,,,,
1,672.0,6,phase_2,purple_rhombus,go,,,,go-1,2,,,,,,
0,0,6,phase_2,red_circle,stop,blue,0.0,0-SSD,go-2,4,,,,,,
0,0,6,phase_2,red_triangle,stop,blue,0.0,0-SSD,go-2,4,,,,,,
2,655.0,6,phase_2,purple_triangle,go,,,,go-1,1,,,,,,
2,415.0,6,phase_2,red_triangle,go,,,,go-2,1,,,,,,
1,583.0,6,phase_2,purple_rhombus,go,,,,go-1,2,,,,,,
0,0,6,phase_2,purple_triangle,stop,green,150.0,tracking-SSD,go-1,4,,,,,,
1,601.0,6,phase_2,red_pentagon,go,,,,go-2,1,,,,,,
2,700.0,6,phase_2,purple_rhombus,go,,,,go-1,1,,,,,,
0,0,6,phase_2,purple_pentagon,stop,green,200.0,tracking-SSD,go-1,4,,,,,,
2,514.0,6,phase_2,purple_triangle,go,,,,go-1,1,,,,,,
1,456.0,6,phase_2,red_circle,go,,,,go-2,1,,,,,,
2,521.0,6,phase_2,purple_rhombus,go,,,,go-1,1,,,,,,
2,496.0,6,phase_2,red_rhombus,go,,,,go-2,1,,,,,,
1,460.0,6,phase_2,red_circle,go,,,,go-2,1,,,,,,
0,0,6,phase_2,purple_rhombus,stop,blue,0.0,0-SSD,go-1,4,,,,,,
1,435.0,6,phase_2,purple_circle,go,,,,go-1,1,,,,,,
1,555.0,6,phase_2,red_pentagon,go,,,,go-2,1,,,,,,
1,396.0,6,phase_2,purple_rhombus,go,,,,go-1,2,,,,,,
1,540.0,6,phase_2,purple_pentagon,stop,green,250.0,tracking-SSD,go-1,3,,,,,,
1,380.0,6,phase_2,purple_pentagon,go,,,,go-1,1,,,,,,
1,354.0,6,phase_2,red_circle,go,,,,go-2,1,,,,,,
0,0,6,phase_2,red_circle,stop,blue,0.0,0-SSD,go-2,4,,,,,,
1,429.0,6,phase_2,red_circle,stop,green,200.0,tracking-SSD,go-2,3,,,,,,
0,0,6,phase_2,purple_circle,stop,blue,0.0,0-SSD,go-1,4,,,,,,
0,0,7,phase_2,purple_rhombus,stop,blue,0.0,0-SSD,go-1,4,,,,,,
1,373.0,7,phase_2,purple_triangle,stop,green,150.0,tracking-SSD,go-1,3,,,,,,
0,0,7,phase_2,purple_rhombus,stop,green,100.0,tracking-SSD,go-1,4,,,,,,
1,504.0,7,phase_2,red_rhombus,go,,,,go-2,2,,,,,,
1,648.0,7,phase_2,purple_circle,go,,,,go-1,1,,,,,,
1,543.0,7,phase_2,red_circle,go,,,,go-2,1,,,,,,
2,508.0,7,phase_2,red_rhombus,go,,,,go-2,1,,,,,,
1,516.0,7,phase_2,purple_circle,go,,,,go-1,1,,,,,,
0,0,7,phase_2,purple_triangle,stop,blue,0.0,0-SSD,go-1,4,,,,,,
2,367.0,7,phase_2,red_triangle,stop,green,150.0,tracking-SSD,go-2,3,,,,,,
2,409.0,7,phase_2,purple_triangle,go,,,,go-1,1,,,,,,
1,475.0,7,phase_2,red_pentagon,go,,,,go-2,1,,,,,,
1,551.0,7,phase_2,purple_pentagon,go,,,,go-1,1,,,,,,
2,548.0,7,phase_2,red_triangle,go,,,,go-2,1,,,,,,
1,456.0,7,phase_2,red_circle,go,,,,go-2,1,,,,,,
1,599.0,7,phase_2,purple_pentagon,go,,,,go-1,1,,,,,,
0,0,7,phase_2,red_pentagon,stop,blue,0.0,0-SSD,go-2,4,,,,,,
1,426.0,7,phase_2,red_circle,go,,,,go-2,1,,,,,,
0,0,7,phase_2,red_pentagon,stop,green,100.0,tracking-SSD,go-2,4,,,,,,
1,410.0,7,phase_2,red_pentagon,go,,,,go-2,1,,,,,,
1,387.0,7,phase_2,purple_triangle,go,,,,go-1,2,,,,,,
0,0,7,phase_2,purple_circle,stop,green,150.0,tracking-SSD,go-1,4,,,,,,
1,406.0,7,phase_2,purple_circle,go,,,,go-1,1,,,,,,
2,414.0,7,phase_2,purple_triangle,go,,,,go-1,1,,,,,,
2,581.0,7,phase_2,purple_triangle,go,,,,go-1,1,,,,,,
1,488.0,7,phase_2,red_rhombus,go,,,,go-2,2,,,,,,
2,599.0,7,phase_2,red_rhombus,go,,,,go-2,1,,,,,,
0,0,7,phase_2,purple_pentagon,stop,blue,0.0,0-SSD,go-1,4,,,,,,
1,459.0,7,phase_2,red_circle,go,,,,go-2,1,,,,,,
1,390.0,7,phase_2,red_circle,go,,,,go-2,1,,,,,,
2,522.0,7,phase_2,red_rhombus,go,,,,go-2,1,,,,,,
2,541.0,7,phase_2,purple_triangle,go,,,,go-1,1,,,,,,
2,640.0,7,phase_2,red_rhombus,go,,,,go-2,1,,,,,,
2,547.0,7,phase_2,red_triangle,go,,,,go-2,1,,,,,,
0,0,7,phase_2,red_pentagon,stop,green,200.0,tracking-SSD,go-2,4,,,,,,
0,0,7,phase_2,red_rhombus,stop,blue,0.0,0-SSD,go-2,4,,,,,,
2,585.0,7,phase_2,purple_triangle,go,,,,go-1,1,,,,,,
0,0,7,phase_2,purple_pentagon,stop,blue,0.0,0-SSD,go-1,4,,,,,,
1,423.0,7,phase_2,red_circle,stop,green,250.0,tracking-SSD,go-2,3,,,,,,
2,545.0,7,phase_2,purple_rhombus,go,,,,go-1,1,,,,,,
0,0,7,phase_2,red_pentagon,stop,blue,0.0,0-SSD,go-2,4,,,,,,
0,0,7,phase_2,red_circle,stop,blue,0.0,0-SSD,go-2,4,,,,,,
0,0,7,phase_2,purple_triangle,stop,green,200.0,tracking-SSD,go-1,4,,,,,,
1,345.0,7,phase_2,red_circle,go,,,,go-2,1,,,,,,
2,657.0,7,phase_2,purple_pentagon,go,,,,go-1,2,,,,,,
2,351.0,7,phase_2,purple_rhombus,go,,,,go-1,1,,,,,,
2,506.0,7,phase_2,purple_pentagon,go,,,,go-1,2,,,,,,
2,582.0,7,phase_2,purple_rhombus,go,,,,go-1,1,,,,,,
2,420.0,8,phase_2,purple_rhombus,go,,,,go-1,1,,,,,,
1,451.0,8,phase_2,red_pentagon,go,,,,go-2,1,,,,,,
0,0,8,phase_2,red_rhombus,stop,green,250.0,tracking-SSD,go-2,4,,,,,,
2,593.0,8,phase_2,red_rhombus,go,,,,go-2,1,,,,,,
2,626.0,8,phase_2,red_triangle,go,,,,go-2,1,,,,,,
1,408.0,8,phase_2,red_circle,go,,,,go-2,1,,,,,,
0,0,8,phase_2,purple_circle,stop,blue,0.0,0-SSD,go-1,4,,,,,,
1,439.0,8,phase_2,red_circle,stop,green,300.0,tracking-SSD,go-2,3,,,,,,
0,0,8,phase_2,purple_rhombus,stop,blue,0.0,0-SSD,go-1,4,,,,,,
0,0,8,phase_2,red_pentagon,stop,blue,0.0,0-SSD,go-2,4,,,,,,
1,421.0,8,phase_2,purple_circle,go,,,,go-1,1,,,,,,
2,373.0,8,phase_2,purple_pentagon,go,,,,go-1,2,,,,,,
1,482.0,8,phase_2,purple_circle,go,,,,go-1,1,,,,,,
0,0,8,phase_2,red_triangle,stop,green,250.0,tracking-SSD,go-2,4,,,,,,
1,400.0,8,phase_2,purple_pentagon,go,,,,go-1,1,,,,,,
2,590.0,8,phase_2,purple_triangle,go,,,,go-1,1,,,,,,
0,0,8,phase_2,red_triangle,stop,blue,0.0,0-SSD,go-2,4,,,,,,
1,461.0,8,phase_2,purple_circle,stop,green,300.0,tracking-SSD,go-1,3,,,,,,
2,358.0,8,phase_2,purple_pentagon,go,,,,go-1,2,,,,,,
2,411.0,8,phase_2,purple_pentagon,stop,green,250.0,tracking-SSD,go-1,3,,,,,,
2,521.0,8,phase_2,purple_triangle,go,,,,go-1,1,,,,,,
2,552.0,8,phase_2,red_triangle,go,,,,go-2,1,,,,,,
1,550.0,8,phase_2,purple_pentagon,go,,,,go-1,1,,,,,,
1,559.0,8,phase_2,red_circle,go,,,,go-2,1,,,,,,
2,578.0,8,phase_2,purple_rhombus,go,,,,go-1,1,,,,,,
2,476.0,8,phase_2,purple_triangle,go,,,,go-1,1,,,,,,
0,0,8,phase_2,red_rhombus,stop,blue,0.0,0-SSD,go-2,4,,,,,,
0,0,8,phase_2,purple_rhombus,stop,blue,0.0,0-SSD,go-1,4,,,,,,
1,424.0,8,phase_2,red_circle,go,,,,go-2,1,,,,,,
1,602.0,8,phase_2,red_pentagon,go,,,,go-2,1,,,,,,
0,0,8,phase_2,red_triangle,stop,blue,0.0,0-SSD,go-2,4,,,,,,
2,687.0,8,phase_2,purple_rhombus,go,,,,go-1,1,,,,,,
1,459.0,8,phase_2,purple_circle,go,,,,go-1,1,,,,,,
1,379.0,8,phase_2,red_circle,go,,,,go-2,1,,,,,,
2,680.0,8,phase_2,red_rhombus,go,,,,go-2,1,,,,,,
0,0,8,phase_2,purple_triangle,stop,green,200.0,tracking-SSD,go-1,4,,,,,,
0,0,8,phase_2,purple_pentagon,stop,blue,0.0,0-SSD,go-1,4,,,,,,
0,0,8,phase_2,purple_triangle,stop,green,250.0,tracking-SSD,go-1,4,,,,,,
2,647.0,8,phase_2,purple_rhombus,go,,,,go-1,1,,,,,,
1,556.0,8,phase_2,red_pentagon,stop,green,300.0,tracking-SSD,go-2,3,,,,,,
1,395.0,8,phase_2,purple_triangle,go,,,,go-1,2,,,,,,
2,494.0,8,phase_2,red_rhombus,go,,,,go-2,1,,,,,,
1,412.0,8,phase_2,red_pentagon,go,,,,go-2,1,,,,,,
1,444.0,8,phase_2,purple_circle,go,,,,go-1,1,,,,,,
1,498.0,8,phase_2,red_pentagon,go,,,,go-2,1,,,,,,
2,371.0,8,phase_2,red_triangle,go,,,,go-2,1,,,,,,
2,560.0,8,phase_2,red_rhombus,go,,,,go-2,1,,,,,,
1,501.0,8,phase_2,red_circle,go,,,,go-2,1,,,,,,
1,386.0,9,phase_2,purple_circle,go,,,,go-1,1,,,,,,
2,440.0,9,phase_2,purple_rhombus,go,,,,go-1,1,,,,,,
2,471.0,9,phase_2,red_rhombus,stop,green,250.0,tracking-SSD,go-2,3,,,,,,
1,547.0,9,phase_2,red_pentagon,go,,,,go-2,1,,,,,,
0,0,9,phase_2,purple_triangle,stop,green,200.0,tracking-SSD,go-1,4,,,,,,
1,329.0,9,phase_2,purple_circle,go,,,,go-1,1,,,,,,
0,0,9,phase_2,purple_pentagon,stop,blue,0.0,0-SSD,go-1,4,,,,,,
2,346.0,9,phase_2,purple_rhombus,go,,,,go-1,1,,,,,,
2,512.0,9,phase_2,red_rhombus,go,,,,go-2,1,,,,,,
2,407.0,9,phase_2,red_pentagon,go,,,,go-2,2,,,,,,
2,359.0,9,phase_2,red_circle,go,,,,go-2,2,,,,,,
2,424.0,9,phase_2,purple_triangle,stop,green,250.0,tracking-SSD,go-1,3,,,,,,
2,353.0,9,phase_2,purple_pentagon,go,,,,go-1,2,,,,,,
1,508.0,9,phase_2,red_circle,go,,,,go-2,1,,,,,,
0,0,9,phase_2,red_pentagon,stop,blue,0.0,0-SSD,go-2,4,,,,,,
1,549.0,9,phase_2,red_pentagon,stop,green,200.0,tracking-SSD,go-2,3,,,,,,
2,615.0,9,phase_2,purple_triangle,go,,,,go-1,1,,,,,,
1,398.0,9,phase_2,purple_circle,go,,,,go-1,1,,,,,,
0,0,9,phase_2,purple_rhombus,stop,blue,0.0,0-SSD,go-1,4,,,,,,
1,517.0,9,phase_2,red_circle,go,,,,go-2,1,,,,,,
0,0,9,phase_2,red_triangle,stop,blue,0.0,0-SSD,go-2,4,,,,,,
0,0,9,phase_2,red_circle,stop,green,150.0,tracking-SSD,go-2,4,,,,,,
1,566.0,9,phase_2,purple_pentagon,go,,,,go-1,1,,,,,,
2,395.0,9,phase_2,red_triangle,go,,,,go-2,1,,,,,,
1,516.0,9,phase_2,red_circle,go,,,,go-2,1,,,,,,
0,0,9,phase_2,red_circle,stop,blue,0.0,0-SSD,go-2,4,,,,,,
2,421.0,9,phase_2,red_rhombus,go,,,,go-2,1,,,,,,
1,464.0,9,phase_2,purple_triangle,go,,,,go-1,2,,,,,,
2,495.0,9,phase_2,purple_rhombus,go,,,,go-1,1,,,,,,
1,391.0,9,phase_2,purple_circle,go,,,,go-1,1,,,,,,
0,0,9,phase_2,purple_triangle,stop,blue,0.0,0-SSD,go-1,4,,,,,,
0,0,9,phase_2,purple_triangle,stop,blue,0.0,0-SSD,go-1,4,,,,,,
0,0,9,phase_2,red_triangle,stop,green,200.0,tracking-SSD,go-2,4,,,,,,
1,495.0,9,phase_2,purple_circle,go,,,,go-1,1,,,,,,
1,402.0,9,phase_2,purple_triangle,go,,,,go-1,2,,,,,,
2,377.0,9,phase_2,purple_rhombus,stop,green,250.0,tracking-SSD,go-1,3,,,,,,
1,454.0,9,phase_2,red_pentagon,go,,,,go-2,1,,,,,,
1,463.0,9,phase_2,red_pentagon,go,,,,go-2,1,,,,,,
0,0,9,phase_2,red_triangle,stop,blue,0.0,0-SSD,go-2,4,,,,,,
0,0,9,phase_2,purple_triangle,stop,green,200.0,tracking-SSD,go-1,4,,,,,,
1,479.0,9,phase_2,red_circle,go,,,,go-2,1,,,,,,
2,397.0,9,phase_2,purple_rhombus,go,,,,go-1,1,,,,,,
1,439.0,9,phase_2,purple_pentagon,go,,,,go-1,1,,,,,,
1,436.0,9,phase_2,purple_rhombus,go,,,,go-1,2,,,,,,
1,300.0,9,phase_2,red_pentagon,go,,,,go-2,1,,,,,,
1,476.0,9,phase_2,red_pentagon,go,,,,go-2,1,,,,,,
1,496.0,9,phase_2,red_rhombus,go,,,,go-2,2,,,,,,
2,415.0,9,phase_2,red_rhombus,go,,,,go-2,1,,,,,,
2,442.0,10,phase_2,red_triangle,go,,,,go-2,1,,,,,,
2,416.0,10,phase_2,purple_triangle,go,,,,go-1,1,,,,,,
2,369.0,10,phase_2,purple_triangle,go,,,,go-1,1,,,,,,
1,377.0,10,phase_2,purple_circle,go,,,,go-1,1,,,,,,
2,701.0,10,phase_2,purple_rhombus,go,,,,go-1,1,,,,,,
1,620.0,10,phase_2,red_pentagon,stop,green,250.0,tracking-SSD,go-2,3,,,,,,
1,538.0,10,phase_2,red_circle,go,,,,go-2,1,,,,,,
2,480.0,10,phase_2,purple_triangle,go,,,,go-1,1,,,,,,
1,522.0,10,phase_2,red_rhombus,stop,green,200.0,tracking-SSD,go-2,3,,,,,,
0,0,10,phase_2,purple_triangle,stop,blue,0.0,0-SSD,go-1,4,,,,,,
2,516.0,10,phase_2,purple_rhombus,go,,,,go-1,1,,,,,,
1,570.0,10,phase_2,red_pentagon,go,,,,go-2,1,,,,,,
1,490.0,10,phase_2,purple_pentagon,go,,,,go-1,1,,,,,,
0,0,10,phase_2,red_circle,stop,blue,0.0,0-SSD,go-2,4,,,,,,
2,429.0,10,phase_2,red_rhombus,go,,,,go-2,1,,,,,,
2,518.0,10,phase_2,red_triangle,go,,,,go-2,1,,,,,,
1,471.0,10,phase_2,red_circle,go,,,,go-2,1,,,,,,
0,0,10,phase_2,red_circle,stop,blue,0.0,0-SSD,go-2,4,,,,,,
2,409.0,10,phase_2,red_rhombus,go,,,,go-2,1,,,,,,
0,0,10,phase_2,purple_triangle,stop,green,150.0,tracking-SSD,go-1,4,,,,,,
0,0,10,phase_2,purple_pentagon,stop,blue,0.0,0-SSD,go-1,4,,,,,,
0,0,10,phase_2,red_circle,stop,blue,0.0,0-SSD,go-2,4,,,,,,
1,894.0,10,phase_2,purple_pentagon,go,,,,go-1,1,,,,,,
2,453.0,10,phase_2,red_rhombus,go,,,,go-2,1,,,,,,
1,462.0,10,phase_2,red_circle,go,,,,go-2,1,,,,,,
2,403.0,10,phase_2,purple_triangle,go,,,,go-1,1,,,,,,
1,557.0,10,phase_2,red_rhombus,go,,,,go-2,2,,,,,,
2,522.0,10,phase_2,purple_rhombus,go,,,,go-1,1,,,,,,
0,0,10,phase_2,purple_pentagon,stop,green,200.0,tracking-SSD,go-1,4,,,,,,
2,608.0,10,phase_2,red_pentagon,go,,,,go-2,2,,,,,,
2,571.0,10,phase_2,red_triangle,go,,,,go-2,1,,,,,,
1,568.0,10,phase_2,red_circle,stop,green,250.0,tracking-SSD,go-2,3,,,,,,
1,420.0,10,phase_2,purple_circle,stop,green,200.0,tracking-SSD,go-1,3,,,,,,
0,0,10,phase_2,purple_circle,stop,blue,0.0,0-SSD,go-1,4,,,,,,
1,505.0,10,phase_2,purple_circle,go,,,,go-1,1,,,,,,
0,0,10,phase_2,purple_pentagon,stop,green,150.0,tracking-SSD,go-1,4,,,,,,
2,634.0,10,phase_2,purple_rhombus,go,,,,go-1,1,,,,,,
1,463.0,10,phase_2,purple_circle,go,,,,go-1,1,,,,,,
0,0,10,phase_2,purple_rhombus,stop,blue,0.0,0-SSD,go-1,4,,,,,,
2,458.0,10,phase_2,red_pentagon,go,,,,go-2,2,,,,,,
2,400.0,10,phase_2,red_pentagon,go,,,,go-2,2,,,,,,
0,0,10,phase_2,red_rhombus,stop,green,200.0,tracking-SSD,go-2,4,,,,,,
0,0,10,phase_2,red_pentagon,stop,blue,0.0,0-SSD,go-2,4,,,,,,
2,461.0,10,phase_2,purple_triangle,go,,,,go-1,1,,,,,,
0,0,10,phase_2,purple_rhombus,go,,,,go-1,2,,,,,,
2,726.0,10,phase_2,red_triangle,go,,,,go-2,1,,,,,,
2,420.0,10,phase_2,red_triangle,go,,,,go-2,1,,,,,,
1,485.0,10,phase_2,purple_pentagon,go,,,,go-1,1,,,,,,
2,532.0,11,phase_2,red_pentagon,stop,green,250.0,tracking-SSD,go-2,3,,,,,,
2,586.0,11,phase_2,red_rhombus,go,,,,go-2,1,,,,,,
0,0,11,phase_2,purple_pentagon,stop,blue,0.0,0-SSD,go-1,4,,,,,,
2,402.0,11,phase_2,red_pentagon,go,,,,go-2,2,,,,,,
2,501.0,11,phase_2,purple_rhombus,go,,,,go-1,1,,,,,,
1,364.0,11,phase_2,purple_triangle,stop,green,200.0,tracking-SSD,go-1,3,,,,,,
2,452.0,11,phase_2,purple_triangle,go,,,,go-1,1,,,,,,
1,607.0,11,phase_2,purple_pentagon,go,,,,go-1,1,,,,,,
1,604.0,11,phase_2,red_pentagon,go,,,,go-2,1,,,,,,
2,468.0,11,phase_2,red_triangle,go,,,,go-2,1,,,,,,
2,600.0,11,phase_2,red_triangle,go,,,,go-2,1,,,,,,
1,417.0,11,phase_2,purple_circle,go,,,,go-1,1,,,,,,
2,515.0,11,phase_2,purple_rhombus,go,,,,go-1,1,,,,,,
0,0,11,phase_2,red_rhombus,stop,blue,0.0,0-SSD,go-2,4,,,,,,
2,476.0,11,phase_2,red_triangle,go,,,,go-2,1,,,,,,
1,474.0,11,phase_2,red_pentagon,go,,,,go-2,1,,,,,,
1,371.0,11,phase_2,purple_pentagon,go,,,,go-1,1,,,,,,
2,470.0,11,phase_2,red_triangle,go,,,,go-2,1,,,,,,
1,512.0,11,phase_2,red_circle,go,,,,go-2,1,,,,,,
1,622.0,11,phase_2,red_pentagon,go,,,,go-2,1,,,,,,
2,339.0,11,phase_2,purple_pentagon,stop,blue,0.0,0-SSD,go-1,3,,,,,,
1,461.0,11,phase_2,red_circle,go,,,,go-2,1,,,,,,
2,514.0,11,phase_2,red_triangle,stop,green,150.0,tracking-SSD,go-2,3,,,,,,
0,0,11,phase_2,red_circle,stop,green,100.0,tracking-SSD,go-2,4,,,,,,
2,567.0,11,phase_2,purple_triangle,go,,,,go-1,1,,,,,,
1,429.0,11,phase_2,purple_circle,go,,,,go-1,1,,,,,,
1,415.0,11,phase_2,red_circle,stop,green,150.0,tracking-SSD,go-2,3,,,,,,
0,0,11,phase_2,red_triangle,stop,blue,0.0,0-SSD,go-2,4,,,,,,
1,444.0,11,phase_2,purple_circle,go,,,,go-1,1,,,,,,
0,0,11,phase_2,red_pentagon,stop,blue,0.0,0-SSD,go-2,4,,,,,,
2,372.0,11,phase_2,red_triangle,go,,,,go-2,1,,,,,,
2,684.0,11,phase_2,red_rhombus,go,,,,go-2,1,,,,,,
2,445.0,11,phase_2,purple_rhombus,go,,,,go-1,1,,,,,,
2,442.0,11,phase_2,purple_rhombus,go,,,,go-1,1,,,,,,
0,0,11,phase_2,purple_rhombus,stop,blue,0.0,0-SSD,go-1,4,,,,,,
0,0,11,phase_2,purple_circle,stop,green,100.0,tracking-SSD,go-1,4,,,,,,
1,347.0,11,phase_2,red_circle,go,,,,go-2,1,,,,,,
1,435.0,11,phase_2,purple_circle,go,,,,go-1,1,,,,,,
1,388.0,11,phase_2,red_circle,go,,,,go-2,1,,,,,,
0,0,11,phase_2,red_pentagon,stop,blue,0.0,0-SSD,go-2,4,,,,,,
2,393.0,11,phase_2,purple_rhombus,go,,,,go-1,1,,,,,,
2,413.0,11,phase_2,purple_circle,stop,green,150.0,tracking-SSD,go-1,3,,,,,,
2,354.0,11,phase_2,red_rhombus,go,,,,go-2,1,,,,,,
0,0,11,phase_2,purple_rhombus,stop,blue,0.0,0-SSD,go-1,4,,,,,,
0,0,11,phase_2,purple_triangle,stop,green,100.0,tracking-SSD,go-1,4,,,,,,
2,562.0,11,phase_2,purple_rhombus,go,,,,go-1,1,,,,,,
2,582.0,11,phase_2,purple_triangle,go,,,,go-1,1,,,,,,
1,477.0,11,phase_2,purple_pentagon,go,,,,go-1,1,,,,,,
1,408.0,12,phase_2,purple_circle,go,,,,go-1,1,,,,,,
1,373.0,12,phase_2,red_circle,go,,,,go-2,1,,,,,,
1,359.0,12,phase_2,red_circle,go,,,,go-2,1,,,,,,
2,412.0,12,phase_2,red_pentagon,go,,,,go-2,2,,,,,,
0,0,12,phase_2,purple_circle,stop,blue,0.0,0-SSD,go-1,4,,,,,,
2,387.0,12,phase_2,red_pentagon,stop,green,150.0,tracking-SSD,go-2,3,,,,,,
2,620.0,12,phase_2,purple_triangle,go,,,,go-1,1,,,,,,
1,606.0,12,phase_2,purple_pentagon,go,,,,go-1,1,,,,,,
2,424.0,12,phase_2,purple_triangle,go,,,,go-1,1,,,,,,
1,489.0,12,phase_2,red_rhombus,go,,,,go-2,2,,,,,,
2,488.0,12,phase_2,red_triangle,go,,,,go-2,1,,,,,,
2,542.0,12,phase_2,purple_pentagon,go,,,,go-1,2,,,,,,
2,460.0,12,phase_2,red_triangle,go,,,,go-2,1,,,,,,
2,458.0,12,phase_2,red_rhombus,stop,green,100.0,tracking-SSD,go-2,3,,,,,,
1,534.0,12,phase_2,purple_pentagon,go,,,,go-1,1,,,,,,
2,441.0,12,phase_2,red_rhombus,go,,,,go-2,1,,,,,,
0,0,12,phase_2,purple_circle,stop,blue,0.0,0-SSD,go-1,4,,,,,,
0,0,12,phase_2,purple_triangle,stop,blue,0.0,0-SSD,go-1,4,,,,,,
0,0,12,phase_2,purple_pentagon,stop,green,50.0,tracking-SSD,go-1,4,,,,,,
1,363.0,12,phase_2,purple_circle,go,,,,go-1,1,,,,,,
0,0,12,phase_2,red_pentagon,stop,blue,0.0,0-SSD,go-2,4,,,,,,
1,337.0,12,phase_2,red_circle,go,,,,go-2,1,,,,,,
2,503.0,12,phase_2,purple_triangle,go,,,,go-1,1,,,,,,
2,894.0,12,phase_2,red_rhombus,go,,,,go-2,1,,,,,,
1,521.0,12,phase_2,red_circle,go,,,,go-2,1,,,,,,
1,360.0,12,phase_2,purple_circle,go,,,,go-1,1,,,,,,
2,448.0,12,phase_2,purple_pentagon,go,,,,go-1,2,,,,,,
1,512.0,12,phase_2,purple_pentagon,go,,,,go-1,1,,,,,,
2,600.0,12,phase_2,red_triangle,go,,,,go-2,1,,,,,,
2,654.0,12,phase_2,red_rhombus,go,,,,go-2,1,,,,,,
2,449.0,12,phase_2,purple_rhombus,go,,,,go-1,1,,,,,,
2,604.0,12,phase_2,red_triangle,go,,,,go-2,1,,,,,,
0,0,12,phase_2,red_triangle,stop,blue,0.0,0-SSD,go-2,4,,,,,,
0,0,12,phase_2,purple_pentagon,stop,blue,0.0,0-SSD,go-1,4,,,,,,
0,0,12,phase_2,red_triangle,stop,blue,0.0,0-SSD,go-2,4,,,,,,
2,717.0,12,phase_2,red_rhombus,go,,,,go-2,1,,,,,,
2,445.0,12,phase_2,red_triangle,go,,,,go-2,1,,,,,,
2,476.0,12,phase_2,purple_rhombus,go,,,,go-1,1,,,,,,
1,360.0,12,phase_2,purple_circle,go,,,,go-1,1,,,,,,
0,0,12,phase_2,purple_rhombus,stop,green,100.0,tracking-SSD,go-1,4,,,,,,
2,411.0,12,phase_2,purple_pentagon,go,,,,go-1,2,,,,,,
2,364.0,12,phase_2,purple_rhombus,stop,green,150.0,tracking-SSD,go-1,3,,,,,,
1,462.0,12,phase_2,red_circle,go,,,,go-2,1,,,,,,
0,0,12,phase_2,purple_pentagon,stop,green,100.0,tracking-SSD,go-1,4,,,,,,
0,0,12,phase_2,red_rhombus,stop,green,150.0,tracking-SSD,go-2,4,,,,,,
0,0,12,phase_2,red_triangle,stop,blue,0.0,0-SSD,go-2,4,,,,,,
0,0,12,phase_2,red_rhombus,stop,green,200.0,tracking-SSD,go-2,4,,,,,,
1,507.0,12,phase_2,purple_circle,go,,,,go-1,1,,,,,,
2,521.0,13,phase_2,purple_rhombus,go,,,,go-1,1,,,,,,
2,507.0,13,phase_2,red_rhombus,go,,,,go-2,1,,,,,,
1,494.0,13,phase_2,purple_circle,go,,,,go-1,1,,,,,,
1,412.0,13,phase_2,red_circle,go,,,,go-2,1,,,,,,
2,399.0,13,phase_2,red_triangle,go,,,,go-2,1,,,,,,
1,644.0,13,phase_2,red_pentagon,go,,,,go-2,1,,,,,,
1,461.0,13,phase_2,purple_pentagon,go,,,,go-1,1,,,,,,
0,0,13,phase_2,purple_pentagon,stop,blue,0.0,0-SSD,go-1,4,,,,,,
1,523.0,13,phase_2,red_pentagon,go,,,,go-2,1,,,,,,
0,0,13,phase_2,red_pentagon,stop,blue,0.0,0-SSD,go-2,4,,,,,,
1,428.0,13,phase_2,purple_pentagon,go,,,,go-1,1,,,,,,
1,482.0,13,phase_2,red_circle,go,,,,go-2,1,,,,,,
1,377.0,13,phase_2,red_circle,stop,green,250.0,tracking-SSD,go-2,3,,,,,,
2,442.0,13,phase_2,red_triangle,go,,,,go-2,1,,,,,,
0,0,13,phase_2,red_rhombus,stop,blue,0.0,0-SSD,go-2,4,,,,,,
2,450.0,13,phase_2,purple_pentagon,go,,,,go-1,2,,,,,,
2,604.0,13,phase_2,red_pentagon,go,,,,go-2,2,,,,,,
2,500.0,13,phase_2,red_rhombus,go,,,,go-2,1,,,,,,
1,441.0,13,phase_2,purple_circle,go,,,,go-1,1,,,,,,
1,382.0,13,phase_2,purple_circle,stop,green,200.0,tracking-SSD,go-1,3,,,,,,
0,0,13,phase_2,purple_triangle,stop,blue,0.0,0-SSD,go-1,4,,,,,,
0,0,13,phase_2,purple_triangle,stop,green,150.0,tracking-SSD,go-1,4,,,,,,
1,444.0,13,phase_2,red_rhombus,go,,,,go-2,2,,,,,,
2,407.0,13,phase_2,purple_rhombus,go,,,,go-1,1,,,,,,
1,438.0,13,phase_2,red_triangle,go,,,,go-2,2,,,,,,
2,335.0,13,phase_2,red_triangle,go,,,,go-2,1,,,,,,
2,692.0,13,phase_2,purple_rhombus,go,,,,go-1,1,,,,,,
1,588.0,13,phase_2,purple_circle,stop,green,200.0,tracking-SSD,go-1,3,,,,,,
1,383.0,13,phase_2,red_circle,go,,,,go-2,1,,,,,,
1,405.0,13,phase_2,purple_circle,go,,,,go-1,1,,,,,,
2,493.0,13,phase_2,purple_triangle,go,,,,go-1,1,,,,,,
0,0,13,phase_2,red_triangle,stop,blue,0.0,0-SSD,go-2,4,,,,,,
0,0,13,phase_2,red_pentagon,stop,green,150.0,tracking-SSD,go-2,4,,,,,,
0,0,13,phase_2,red_rhombus,stop,blue,0.0,0-SSD,go-2,4,,,,,,
0,0,13,phase_2,purple_rhombus,stop,green,200.0,tracking-SSD,go-1,4,,,,,,
1,749.0,13,phase_2,purple_pentagon,go,,,,go-1,1,,,,,,
2,534.0,13,phase_2,red_triangle,go,,,,go-2,1,,,,,,
2,430.0,13,phase_2,red_circle,stop,green,250.0,tracking-SSD,go-2,3,,,,,,
1,382.0,13,phase_2,purple_circle,go,,,,go-1,1,,,,,,
2,1033.0,13,phase_2,red_triangle,go,,,,go-2,1,,,,,,
2,513.0,13,phase_2,red_triangle,stop,green,200.0,tracking-SSD,go-2,3,,,,,,
1,656.0,13,phase_2,purple_pentagon,go,,,,go-1,1,,,,,,
1,383.0,13,phase_2,purple_triangle,go,,,,go-1,2,,,,,,
2,268.0,13,phase_2,purple_circle,go,,,,go-1,2,,,,,,
0,0,13,phase_2,purple_rhombus,stop,blue,0.0,0-SSD,go-1,4,,,,,,
1,510.0,13,phase_2,purple_pentagon,go,,,,go-1,1,,,,,,
2,642.0,13,phase_2,red_rhombus,go,,,,go-2,1,,,,,,
0,0,13,phase_2,purple_rhombus,stop,blue,0.0,0-SSD,go-1,4,,,,,,
2,398.0,14,phase_2,red_rhombus,go,,,,go-2,1,,,,,,
1,452.0,14,phase_2,purple_pentagon,go,,,,go-1,1,,,,,,
0,0,14,phase_2,purple_rhombus,stop,blue,0.0,0-SSD,go-1,4,,,,,,
0,0,14,phase_2,purple_triangle,stop,green,150.0,tracking-SSD,go-1,4,,,,,,
0,0,14,phase_2,red_circle,stop,blue,0.0,0-SSD,go-2,4,,,,,,
2,465.0,14,phase_2,red_triangle,go,,,,go-2,1,,,,,,
1,450.0,14,phase_2,purple_circle,go,,,,go-1,1,,,,,,
1,481.0,14,phase_2,purple_circle,go,,,,go-1,1,,,,,,
1,625.0,14,phase_2,red_pentagon,go,,,,go-2,1,,,,,,
1,442.0,14,phase_2,purple_pentagon,go,,,,go-1,1,,,,,,
0,0,14,phase_2,red_circle,stop,blue,0.0,0-SSD,go-2,4,,,,,,
0,0,14,phase_2,purple_pentagon,stop,blue,0.0,0-SSD,go-1,4,,,,,,
1,514.0,14,phase_2,purple_rhombus,go,,,,go-1,2,,,,,,
2,601.0,14,phase_2,purple_triangle,go,,,,go-1,1,,,,,,
2,519.0,14,phase_2,red_rhombus,go,,,,go-2,1,,,,,,
1,653.0,14,phase_2,purple_pentagon,go,,,,go-1,1,,,,,,
2,560.0,14,phase_2,purple_triangle,go,,,,go-1,1,,,,,,
2,580.0,14,phase_2,red_triangle,go,,,,go-2,1,,,,,,
0,0,14,phase_2,purple_circle,stop,blue,0.0,0-SSD,go-1,4,,,,,,
1,620.0,14,phase_2,purple_pentagon,go,,,,go-1,1,,,,,,
1,416.0,14,phase_2,purple_triangle,go,,,,go-1,2,,,,,,
0,0,14,phase_2,purple_triangle,stop,green,200.0,tracking-SSD,go-1,4,,,,,,
2,117.0,14,phase_2,purple_rhombus,stop,blue,0.0,0-SSD,go-1,3,,,,,,
2,486.0,14,phase_2,red_rhombus,go,,,,go-2,1,,,,,,
1,539.0,14,phase_2,red_circle,go,,,,go-2,1,,,,,,
0,0,14,phase_2,red_pentagon,stop,green,250.0,tracking-SSD,go-2,4,,,,,,
2,424.0,14,phase_2,purple_triangle,go,,,,go-1,1,,,,,,
2,1030.0,14,phase_2,purple_rhombus,go,,,,go-1,1,,,,,,
2,555.0,14,phase_2,purple_triangle,go,,,,go-1,1,,,,,,
1,743.0,14,phase_2,purple_pentagon,go,,,,go-1,1,,,,,,
1,448.0,14,phase_2,red_circle,go,,,,go-2,1,,,,,,
1,412.0,14,phase_2,purple_circle,go,,,,go-1,1,,,,,,
1,444.0,14,phase_2,red_circle,go,,,,go-2,1,,,,,,
1,316.0,14,phase_2,red_circle,go,,,,go-2,1,,,,,,
2,550.0,14,phase_2,purple_rhombus,stop,green,300.0,tracking-SSD,go-1,3,,,,,,
0,0,14,phase_2,red_triangle,stop,blue,0.0,0-SSD,go-2,4,,,,,,
2,590.0,14,phase_2,red_triangle,go,,,,go-2,1,,,,,,
2,644.0,14,phase_2,red_rhombus,go,,,,go-2,1,,,,,,
2,417.0,14,phase_2,purple_rhombus,go,,,,go-1,1,,,,,,
1,549.0,14,phase_2,red_pentagon,stop,green,250.0,tracking-SSD,go-2,3,,,,,,
2,445.0,14,phase_2,red_circle,go,,,,go-2,2,,,,,,
2,206.0,14,phase_2,purple_triangle,stop,green,200.0,tracking-SSD,go-1,3,,,,,,
1,563.0,14,phase_2,red_pentagon,go,,,,go-2,1,,,,,,
0,0,14,phase_2,red_rhombus,stop,blue,0.0,0-SSD,go-2,4,,,,,,
0,0,14,phase_2,red_rhombus,stop,green,150.0,tracking-SSD,go-2,4,,,,,,
0,0,14,phase_2,red_pentagon,stop,green,200.0,tracking-SSD,go-2,4,,,,,,
1,542.0,14,phase_2,red_circle,go,,,,go-2,1,,,,,,
1,439.0,14,phase_2,red_pentagon,go,,,,go-2,1,,,,,,
2,520.0,15,phase_2,red_rhombus,go,,,,go-2,1,,,,,,
2,406.0,15,phase_2,red_rhombus,stop,green,250.0,tracking-SSD,go-2,3,,,,,,
2,382.0,15,phase_2,purple_rhombus,go,,,,go-1,1,,,,,,
1,426.0,15,phase_2,red_triangle,go,,,,go-2,2,,,,,,
2,20.0,15,phase_2,red_triangle,stop,green,200.0,tracking-SSD,go-2,3,,,,,,
2,320.0,15,phase_2,red_circle,stop,blue,0.0,0-SSD,go-2,3,,,,,,
2,454.0,15,phase_2,purple_pentagon,stop,green,150.0,tracking-SSD,go-1,3,,,,,,
2,114.0,15,phase_2,purple_rhombus,go,,,,go-1,1,,,,,,
2,426.0,15,phase_2,red_rhombus,go,,,,go-2,1,,,,,,
1,536.0,15,phase_2,red_pentagon,go,,,,go-2,1,,,,,,
2,342.0,15,phase_2,red_pentagon,go,,,,go-2,2,,,,,,
1,149.0,15,phase_2,red_circle,stop,green,100.0,tracking-SSD,go-2,3,,,,,,
2,237.0,15,phase_2,purple_triangle,stop,blue,0.0,0-SSD,go-1,3,,,,,,
2,134.0,15,phase_2,red_circle,go,,,,go-2,2,,,,,,
2,324.0,15,phase_2,purple_triangle,go,,,,go-1,1,,,,,,
2,399.0,15,phase_2,purple_triangle,go,,,,go-1,1,,,,,,
2,622.0,15,phase_2,purple_circle,go,,,,go-1,2,,,,,,
2,461.0,15,phase_2,purple_triangle,go,,,,go-1,1,,,,,,
2,370.0,15,phase_2,red_pentagon,go,,,,go-2,2,,,,,,
2,502.0,15,phase_2,purple_triangle,go,,,,go-1,1,,,,,,
1,601.0,15,phase_2,purple_circle,go,,,,go-1,1,,,,,,
2,486.0,15,phase_2,red_triangle,go,,,,go-2,1,,,,,,
1,573.0,15,phase_2,red_pentagon,go,,,,go-2,1,,,,,,
0,0,15,phase_2,red_circle,stop,blue,0.0,0-SSD,go-2,4,,,,,,
2,366.0,15,phase_2,purple_pentagon,go,,,,go-1,2,,,,,,
2,509.0,15,phase_2,red_rhombus,go,,,,go-2,1,,,,,,
2,461.0,15,phase_2,red_rhombus,go,,,,go-2,1,,,,,,
0,0,15,phase_2,purple_pentagon,stop,green,50.0,tracking-SSD,go-1,4,,,,,,
2,581.0,15,phase_2,red_pentagon,go,,,,go-2,2,,,,,,
0,0,15,phase_2,purple_circle,stop,green,100.0,tracking-SSD,go-1,4,,,,,,
2,440.0,15,phase_2,red_triangle,stop,green,150.0,tracking-SSD,go-2,3,,,,,,
0,0,15,phase_2,red_circle,stop,blue,0.0,0-SSD,go-2,4,,,,,,
2,458.0,15,phase_2,purple_triangle,go,,,,go-1,1,,,,,,
0,0,15,phase_2,red_pentagon,stop,blue,0.0,0-SSD,go-2,4,,,,,,
1,453.0,15,phase_2,purple_circle,go,,,,go-1,1,,,,,,
1,552.0,15,phase_2,red_circle,go,,,,go-2,1,,,,,,
2,493.0,15,phase_2,purple_pentagon,go,,,,go-1,2,,,,,,
0,0,15,phase_2,purple_rhombus,stop,blue,0.0,0-SSD,go-1,4,,,,,,
2,522.0,15,phase_2,red_triangle,go,,,,go-2,1,,,,,,
1,530.0,15,phase_2,red_pentagon,go,,,,go-2,1,,,,,,
1,472.0,15,phase_2,purple_pentagon,go,,,,go-1,1,,,,,,
2,468.0,15,phase_2,purple_rhombus,go,,,,go-1,1,,,,,,
2,454.0,15,phase_2,purple_rhombus,go,,,,go-1,1,,,,,,
0,0,15,phase_2,purple_rhombus,stop,green,100.0,tracking-SSD,go-1,4,,,,,,
1,518.0,15,phase_2,red_circle,go,,,,go-2,1,,,,,,
0,0,15,phase_2,purple_rhombus,stop,blue,0.0,0-SSD,go-1,4,,,,,,
0,0,15,phase_2,purple_triangle,stop,blue,0.0,0-SSD,go-1,4,,,,,,
1,510.0,15,phase_2,purple_circle,go,,,,go-1,1,,,,,,
1,635.0,16,phase_2,purple_pentagon,go,,,,go-1,1,,,,,,
1,397.0,16,phase_2,purple_pentagon,go,,,,go-1,1,,,,,,
1,360.0,16,phase_2,purple_circle,go,,,,go-1,1,,,,,,
1,528.0,16,phase_2,red_pentagon,go,,,,go-2,1,,,,,,
2,536.0,16,phase_2,red_triangle,go,,,,go-2,1,,,,,,
1,522.0,16,phase_2,purple_pentagon,go,,,,go-1,1,,,,,,
0,0,16,phase_2,red_rhombus,stop,green,150.0,tracking-SSD,go-2,4,,,,,,
2,832.0,16,phase_2,purple_rhombus,go,,,,go-1,1,,,,,,
0,0,16,phase_2,purple_circle,stop,blue,0.0,0-SSD,go-1,4,,,,,,
0,0,16,phase_2,purple_rhombus,stop,blue,0.0,0-SSD,go-1,4,,,,,,
1,645.0,16,phase_2,red_pentagon,go,,,,go-2,1,,,,,,
0,0,16,phase_2,red_rhombus,stop,green,200.0,tracking-SSD,go-2,4,,,,,,
0,0,16,phase_2,purple_triangle,stop,blue,0.0,0-SSD,go-1,4,,,,,,
2,445.0,16,phase_2,purple_circle,go,,,,go-1,2,,,,,,
2,442.0,16,phase_2,red_triangle,go,,,,go-2,1,,,,,,
0,0,16,phase_2,red_pentagon,stop,blue,0.0,0-SSD,go-2,4,,,,,,
1,382.0,16,phase_2,red_circle,go,,,,go-2,1,,,,,,
1,547.0,16,phase_2,purple_pentagon,go,,,,go-1,1,,,,,,
2,612.0,16,phase_2,purple_rhombus,go,,,,go-1,1,,,,,,
1,452.0,16,phase_2,purple_circle,go,,,,go-1,1,,,,,,
2,494.0,16,phase_2,purple_triangle,go,,,,go-1,1,,,,,,
0,0,16,phase_2,red_rhombus,stop,blue,0.0,0-SSD,go-2,4,,,,,,
1,444.0,16,phase_2,purple_triangle,go,,,,go-1,2,,,,,,
2,577.0,16,phase_2,purple_pentagon,go,,,,go-1,2,,,,,,
2,237.0,16,phase_2,red_triangle,go,,,,go-2,1,,,,,,
1,673.0,16,phase_2,red_rhombus,go,,,,go-2,2,,,,,,
2,154.0,16,phase_2,purple_triangle,stop,green,250.0,tracking-SSD,go-1,3,,,,,,
1,511.0,16,phase_2,red_circle,go,,,,go-2,1,,,,,,
2,497.0,16,phase_2,purple_rhombus,go,,,,go-1,1,,,,,,
2,719.0,16,phase_2,red_rhombus,go,,,,go-2,1,,,,,,
2,549.0,16,phase_2,red_triangle,go,,,,go-2,1,,,,,,
1,96.0,16,phase_2,red_rhombus,stop,blue,0.0,0-SSD,go-2,3,,,,,,
1,397.0,16,phase_2,purple_circle,go,,,,go-1,1,,,,,,
2,540.0,16,phase_2,red_triangle,go,,,,go-2,1,,,,,,
1,695.0,16,phase_2,purple_pentagon,go,,,,go-1,1,,,,,,
2,468.0,16,phase_2,red_circle,go,,,,go-2,2,,,,,,
1,725.0,16,phase_2,purple_circle,go,,,,go-1,1,,,,,,
2,598.0,16,phase_2,purple_triangle,stop,green,200.0,tracking-SSD,go-1,3,,,,,,
2,370.0,16,phase_2,red_triangle,go,,,,go-2,1,,,,,,
1,514.0,16,phase_2,red_pentagon,go,,,,go-2,1,,,,,,
2,580.0,16,phase_2,red_rhombus,go,,,,go-2,1,,,,,,
1,543.0,16,phase_2,purple_pentagon,stop,green,150.0,tracking-SSD,go-1,3,,,,,,
0,0,16,phase_2,purple_circle,stop,green,100.0,tracking-SSD,go-1,4,,,,,,
0,0,16,phase_2,red_circle,stop,blue,0.0,0-SSD,go-2,4,,,,,,
0,0,16,phase_2,red_triangle,stop,green,150.0,tracking-SSD,go-2,4,,,,,,
1,511.0,16,phase_2,red_circle,go,,,,go-2,1,,,,,,
2,463.0,16,phase_2,red_pentagon,stop,green,200.0,tracking-SSD,go-2,3,,,,,,
0,0,16,phase_2,purple_rhombus,stop,blue,0.0,0-SSD,go-1,4,,,,,,
1,634.0,17,phase_2,red_rhombus,go,,,,go-2,2,,,,,,
1,473.0,17,phase_2,purple_circle,go,,,,go-1,1,,,,,,
0,0,17,phase_2,red_pentagon,stop,blue,0.0,0-SSD,go-2,4,,,,,,
2,493.0,17,phase_2,red_triangle,go,,,,go-2,1,,,,,,
1,446.0,17,phase_2,red_circle,go,,,,go-2,1,,,,,,
2,500.0,17,phase_2,purple_triangle,go,,,,go-1,1,,,,,,
0,0,17,phase_2,red_rhombus,stop,green,150.0,tracking-SSD,go-2,4,,,,,,
0,0,17,phase_2,purple_pentagon,stop,blue,0.0,0-SSD,go-1,4,,,,,,
1,348.0,17,phase_2,red_circle,go,,,,go-2,1,,,,,,
0,0,17,phase_2,red_pentagon,stop,green,200.0,tracking-SSD,go-2,4,,,,,,
1,534.0,17,phase_2,purple_pentagon,go,,,,go-1,1,,,,,,
1,498.0,17,phase_2,red_pentagon,go,,,,go-2,1,,,,,,
0,0,17,phase_2,red_circle,stop,blue,0.0,0-SSD,go-2,4,,,,,,
2,471.0,17,phase_2,purple_rhombus,go,,,,go-1,1,,,,,,
2,378.0,17,phase_2,red_triangle,go,,,,go-2,1,,,,,,
1,409.0,17,phase_2,red_circle,go,,,,go-2,1,,,,,,
1,508.0,17,phase_2,purple_circle,go,,,,go-1,1,,,,,,
2,584.0,17,phase_2,purple_rhombus,go,,,,go-1,1,,,,,,
1,525.0,17,phase_2,purple_pentagon,stop,green,250.0,tracking-SSD,go-1,3,,,,,,
2,433.0,17,phase_2,red_rhombus,go,,,,go-2,1,,,,,,
2,509.0,17,phase_2,red_rhombus,go,,,,go-2,1,,,,,,
1,517.0,17,phase_2,purple_pentagon,go,,,,go-1,1,,,,,,
1,481.0,17,phase_2,red_pentagon,go,,,,go-2,1,,,,,,
0,0,17,phase_2,purple_triangle,stop,blue,0.0,0-SSD,go-1,4,,,,,,
1,443.0,17,phase_2,red_circle,go,,,,go-2,1,,,,,,
1,530.0,17,phase_2,red_pentagon,go,,,,go-2,1,,,,,,
1,437.0,17,phase_2,purple_rhombus,stop,green,200.0,tracking-SSD,go-1,3,,,,,,
2,637.0,17,phase_2,purple_rhombus,go,,,,go-1,1,,,,,,
2,601.0,17,phase_2,purple_triangle,go,,,,go-1,1,,,,,,
2,565.0,17,phase_2,red_triangle,go,,,,go-2,1,,,,,,
0,0,17,phase_2,purple_rhombus,stop,green,150.0,tracking-SSD,go-1,4,,,,,,
1,571.0,17,phase_2,purple_pentagon,go,,,,go-1,1,,,,,,
1,501.0,17,phase_2,purple_circle,go,,,,go-1,1,,,,,,
2,487.0,17,phase_2,red_rhombus,go,,,,go-2,1,,,,,,
0,0,17,phase_2,purple_triangle,stop,blue,0.0,0-SSD,go-1,4,,,,,,
2,607.0,17,phase_2,purple_triangle,go,,,,go-1,1,,,,,,
1,525.0,17,phase_2,purple_circle,go,,,,go-1,1,,,,,,
1,657.0,17,phase_2,red_circle,go,,,,go-2,1,,,,,,
0,0,17,phase_2,red_pentagon,stop,green,200.0,tracking-SSD,go-2,4,,,,,,
0,0,17,phase_2,red_rhombus,stop,blue,0.0,0-SSD,go-2,4,,,,,,
2,447.0,17,phase_2,purple_triangle,go,,,,go-1,1,,,,,,
0,0,17,phase_2,red_rhombus,stop,blue,0.0,0-SSD,go-2,4,,,,,,
2,498.0,17,phase_2,purple_triangle,go,,,,go-1,1,,,,,,
2,473.0,17,phase_2,red_triangle,stop,green,250.0,tracking-SSD,go-2,3,,,,,,
0,0,17,phase_2,purple_circle,stop,blue,0.0,0-SSD,go-1,4,,,,,,
1,715.0,17,phase_2,purple_pentagon,go,,,,go-1,1,,,,,,
1,476.0,17,phase_2,purple_circle,stop,green,200.0,tracking-SSD,go-1,3,,,,,,
2,452.0,17,phase_2,red_triangle,go,,,,go-2,1,,,,,,
,599.0,1,phase_3,,,,,,,,purple_square,go-1,purple_square,go-1,red_square,go-2
,876.0,1,phase_3,,,,,,,,purple_square,go-1,purple_square,go-1,green_square,tracking-SSD
,983.0,1,phase_3,,,,,,,,red_square,go-2,red_square,go-2,green_square,tracking-SSD
,685.0,1,phase_3,,,,,,,,red_square,go-2,red_square,go-2,blue_square,0-SSD
,872.0,1,phase_3,,,,,,,,purple_square,go-1,purple_square,go-1,blue_square,0-SSD
,868.0,1,phase_3,,,,,,,,blue_square,0-SSD,blue_square,0-SSD,green_square,tracking-SSD
,672.0,1,phase_3,,,,,,,,purple_square,go-1,red_square,go-2,purple_square,go-1
,622.0,1,phase_3,,,,,,,,red_square,go-2,green_square,tracking-SSD,red_square,go-2
,1237.0,1,phase_3,,,,,,,,purple_square,go-1,green_square,tracking-SSD,purple_square,go-1
,659.0,1,phase_3,,,,,,,,blue_square,0-SSD,blue_square,0-SSD,purple_square,go-1
,812.0,1,phase_3,,,,,,,,red_square,go-2,blue_square,0-SSD,red_square,go-2
,604.0,1,phase_3,,,,,,,,blue_square,0-SSD,green_square,tracking-SSD,blue_square,0-SSD
,723.0,2,phase_3,,,,,,,,blue_square,0-SSD,red_square,go-2,blue_square,0-SSD
,1158.0,2,phase_3,,,,,,,,green_square,tracking-SSD,red_square,go-2,green_square,tracking-SSD
,860.0,2,phase_3,,,,,,,,blue_square,0-SSD,blue_square,0-SSD,green_square,tracking-SSD
,575.0,2,phase_3,,,,,,,,purple_square,go-1,purple_square,go-1,green_square,tracking-SSD
,1459.0,2,phase_3,,,,,,,,purple_square,go-1,purple_square,go-1,red_square,go-2
,555.0,2,phase_3,,,,,,,,blue_square,0-SSD,purple_square,go-1,blue_square,0-SSD
,810.0,2,phase_3,,,,,,,,blue_square,0-SSD,blue_square,0-SSD,red_square,go-2
,636.0,2,phase_3,,,,,,,,blue_square,0-SSD,blue_square,0-SSD,purple_square,go-1
,912.0,2,phase_3,,,,,,,,green_square,tracking-SSD,green_square,tracking-SSD,purple_square,go-1
,661.0,2,phase_3,,,,,,,,purple_square,go-1,red_square,go-2,purple_square,go-1
,758.0,2,phase_3,,,,,,,,blue_square,0-SSD,green_square,tracking-SSD,blue_square,0-SSD
,473.0,2,phase_3,,,,,,,,green_square,tracking-SSD,green_square,tracking-SSD,red_square,go-2
,757.0,3,phase_3,,,,,,,,green_square,tracking-SSD,red_square,go-2,green_square,tracking-SSD
,470.0,3,phase_3,,,,,,,,blue_square,0-SSD,blue_square,0-SSD,green_square,tracking-SSD
,1118.0,3,phase_3,,,,,,,,green_square,tracking-SSD,purple_square,go-1,green_square,tracking-SSD
,732.0,3,phase_3,,,,,,,,purple_square,go-1,purple_square,go-1,red_square,go-2
,705.0,3,phase_3,,,,,,,,blue_square,0-SSD,purple_square,go-1,blue_square,0-SSD
,633.0,3,phase_3,,,,,,,,blue_square,0-SSD,red_square,go-2,blue_square,0-SSD
,641.0,3,phase_3,,,,,,,,blue_square,0-SSD,green_square,tracking-SSD,blue_square,0-SSD
,929.0,3,phase_3,,,,,,,,blue_square,0-SSD,blue_square,0-SSD,purple_square,go-1
,587.0,3,phase_3,,,,,,,,green_square,tracking-SSD,green_square,tracking-SSD,purple_square,go-1
,582.0,3,phase_3,,,,,,,,purple_square,go-1,red_square,go-2,purple_square,go-1
,566.0,3,phase_3,,,,,,,,blue_square,0-SSD,blue_square,0-SSD,red_square,go-2
,1057.0,3,phase_3,,,,,,,,green_square,tracking-SSD,green_square,tracking-SSD,red_square,go-2
,622.0,4,phase_3,,,,,,,,green_square,tracking-SSD,red_square,go-2,green_square,tracking-SSD
,414.0,4,phase_3,,,,,,,,blue_square,0-SSD,purple_square,go-1,blue_square,0-SSD
,579.0,4,phase_3,,,,,,,,green_square,tracking-SSD,purple_square,go-1,green_square,tracking-SSD
,687.0,4,phase_3,,,,,,,,purple_square,go-1,purple_square,go-1,red_square,go-2
,514.0,4,phase_3,,,,,,,,blue_square,0-SSD,red_square,go-2,blue_square,0-SSD
,621.0,4,phase_3,,,,,,,,blue_square,0-SSD,blue_square,0-SSD,green_square,tracking-SSD
,674.0,4,phase_3,,,,,,,,green_square,tracking-SSD,green_square,tracking-SSD,red_square,go-2
,1175.0,4,phase_3,,,,,,,,green_square,tracking-SSD,green_square,tracking-SSD,purple_square,go-1
,609.0,4,phase_3,,,,,,,,blue_square,0-SSD,blue_square,0-SSD,red_square,go-2
,616.0,4,phase_3,,,,,,,,red_square,go-2,red_square,go-2,purple_square,go-1
,567.0,4,phase_3,,,,,,,,blue_square,0-SSD,blue_square,0-SSD,purple_square,go-1
,685.0,4,phase_3,,,,,,,,blue_square,0-SSD,green_square,tracking-SSD,blue_square,0-SSD
,735.0,5,phase_3,,,,,,,,blue_square,0-SSD,blue_square,0-SSD,green_square,tracking-SSD
,1124.0,5,phase_3,,,,,,,,purple_square,go-1,purple_square,go-1,red_square,go-2
,681.0,5,phase_3,,,,,,,,blue_square,0-SSD,purple_square,go-1,blue_square,0-SSD
,621.0,5,phase_3,,,,,,,,blue_square,0-SSD,red_square,go-2,blue_square,0-SSD
,1100.0,5,phase_3,,,,,,,,green_square,tracking-SSD,red_square,go-2,green_square,tracking-SSD
,792.0,5,phase_3,,,,,,,,green_square,tracking-SSD,purple_square,go-1,green_square,tracking-SSD
,563.0,5,phase_3,,,,,,,,green_square,tracking-SSD,green_square,tracking-SSD,purple_square,go-1
,571.0,5,phase_3,,,,,,,,green_square,tracking-SSD,green_square,tracking-SSD,red_square,go-2
,475.0,5,phase_3,,,,,,,,blue_square,0-SSD,blue_square,0-SSD,red_square,go-2
,1146.0,5,phase_3,,,,,,,,purple_square,go-1,red_square,go-2,purple_square,go-1
,860.0,5,phase_3,,,,,,,,blue_square,0-SSD,green_square,tracking-SSD,blue_square,0-SSD
,508.0,5,phase_3,,,,,,,,blue_square,0-SSD,blue_square,0-SSD,purple_square,go-1
