response,reaction_time,block,which_phase,stim,stop_signal_trial_type,stop_signal_stimulus,SSD,SSD_type,condition,accuracy,chosen_stim,chosen_cond,stim_left,cond_left,stim_right,cond_right
2,477.0,1,phase_2,green_circle,go,,,,go-1,1,,,,,,
2,350.0,1,phase_2,green_circle,go,,,,go-1,1,,,,,,
1,370.0,1,phase_2,green_pentagon,go,,,,go-1,2,,,,,,
2,390.0,1,phase_2,green_circle,go,,,,go-1,1,,,,,,
2,365.0,1,phase_2,purple_circle,go,,,,go-2,1,,,,,,
0,0,1,phase_2,green_triangle,stop,blue,250.0,tracking-SSD,go-1,4,,,,,,
1,517.0,1,phase_2,purple_rhombus,stop,blue,300.0,tracking-SSD,go-2,3,,,,,,
2,425.0,1,phase_2,purple_circle,go,,,,go-2,1,,,,,,
1,592.0,1,phase_2,green_triangle,stop,blue,250.0,tracking-SSD,go-1,3,,,,,,
2,465.0,1,phase_2,purple_pentagon,go,,,,go-2,1,,,,,,
1,529.0,1,phase_2,purple_pentagon,go,,,,go-2,2,,,,,,
1,425.0,1,phase_2,green_pentagon,go,,,,go-1,2,,,,,,
1,366.0,1,phase_2,purple_pentagon,go,,,,go-2,2,,,,,,
2,433.0,1,phase_2,green_triangle,go,,,,go-1,2,,,,,,
0,0,1,phase_2,green_triangle,stop,red,0.0,0-SSD,go-1,4,,,,,,
2,484.0,1,phase_2,purple_circle,go,,,,go-2,1,,,,,,
1,627.0,1,phase_2,purple_triangle,go,,,,go-2,1,,,,,,
2,333.0,1,phase_2,green_circle,go,,,,go-1,1,,,,,,
0,0,1,phase_2,green_rhombus,stop,red,0.0,0-SSD,go-1,4,,,,,,
0,0,1,phase_2,purple_rhombus,stop,red,0.0,0-SSD,go-2,4,,,,,,
0,0,1,phase_2,green_rhombus,stop,red,0.0,0-SSD,go-1,4,,,,,,
0,0,1,phase_2,green_rhombus,stop,red,0.0,0-SSD,go-1,4,,,,,,
1,391.0,1,phase_2,purple_rhombus,go,,,,go-2,1,,,,,,
1,624.0,1,phase_2,green_pentagon,go,,,,go-1,2,,,,,,
1,588.0,1,phase_2,green_rhombus,stop,blue,200.0,tracking-SSD,go-1,3,,,,,,
0,0,1,phase_2,purple_rhombus,stop,blue,150.0,tracking-SSD,go-2,4,,,,,,
1,516.0,1,phase_2,green_rhombus,go,,,,go-1,1,,,,,,
2,559.0,1,phase_2,green_pentagon,go,,,,go-1,1,,,,,,
1,512.0,1,phase_2,purple_rhombus,go,,,,go-2,1,,,,,,
0,0,1,phase_2,purple_circle,stop,red,0.0,0-SSD,go-2,4,,,,,,
2,486.0,1,phase_2,green_circle,stop,blue,200.0,tracking-SSD,go-1,3,,,,,,
1,539.0,1,phase_2,purple_pentagon,go,,,,go-2,2,,,,,,
1,346.0,1,phase_2,purple_rhombus,go,,,,go-2,1,,,,,,
2,534.0,1,phase_2,purple_triangle,go,,,,go-2,2,,,,,,
1,735.0,1,phase_2,green_rhombus,go,,,,go-1,1,,,,,,
0,0,1,phase_2,purple_triangle,stop,blue,150.0,tracking-SSD,go-2,4,,,,,,
2,450.0,1,phase_2,purple_circle,go,,,,go-2,1,,,,,,
2,639.0,1,phase_2,purple_pentagon,go,,,,go-2,1,,,,,,
0,0,1,phase_2,purple_circle,stop,blue,200.0,tracking-SSD,go-2,4,,,,,,
2,377.0,1,phase_2,purple_circle,go,,,,go-2,1,,,,,,
0,0,1,phase_2,purple_triangle,stop,red,0.0,0-SSD,go-2,4,,,,,,
2,564.0,1,phase_2,green_pentagon,go,,,,go-1,1,,,,,,
1,719.0,1,phase_2,purple_triangle,go,,,,go-2,1,,,,,,
2,660.0,1,phase_2,green_pentagon,go,,,,go-1,1,,,,,,
0,0,1,phase_2,purple_pentagon,stop,red,0.0,0-SSD,go-2,4,,,,,,
2,431.0,1,phase_2,green_triangle,go,,,,go-1,2,,,,,,
1,551.0,1,phase_2,green_triangle,go,,,,go-1,1,,,,,,
1,369.0,1,phase_2,green_triangle,go,,,,go-1,1,,,,,,
0,0,2,phase_2,green_triangle,stop,red,0.0,0-SSD,go-1,4,,,,,,
1,440.0,2,phase_2,green_triangle,go,,,,go-1,1,,,,,,
1,359.0,2,phase_2,green_triangle,go,,,,go-1,1,,,,,,
1,402.0,2,phase_2,green_pentagon,go,,,,go-1,2,,,,,,
0,0,2,phase_2,purple_triangle,stop,red,0.0,0-SSD,go-2,4,,,,,,
2,408.0,2,phase_2,purple_circle,go,,,,go-2,1,,,,,,
2,518.0,2,phase_2,green_pentagon,go,,,,go-1,1,,,,,,
0,0,2,phase_2,green_rhombus,stop,red,0.0,0-SSD,go-1,4,,,,,,
1,434.0,2,phase_2,purple_triangle,go,,,,go-2,1,,,,,,
2,532.0,2,phase_2,green_circle,go,,,,go-1,1,,,,,,
2,440.0,2,phase_2,purple_circle,go,,,,go-2,1,,,,,,
2,527.0,2,phase_2,purple_pentagon,go,,,,go-2,1,,,,,,
2,401.0,2,phase_2,green_pentagon,go,,,,go-1,1,,,,,,
1,489.0,2,phase_2,green_circle,go,,,,go-1,2,,,,,,
2,430.0,2,phase_2,purple_circle,stop,blue,250.0,tracking-SSD,go-2,3,,,,,,
2,484.0,2,phase_2,purple_pentagon,go,,,,go-2,1,,,,,,
1,605.0,2,phase_2,purple_rhombus,go,,,,go-2,1,,,,,,
1,400.0,2,phase_2,purple_rhombus,go,,,,go-2,1,,,,,,
1,442.0,2,phase_2,green_rhombus,go,,,,go-1,1,,,,,,
2,732.0,2,phase_2,purple_pentagon,go,,,,go-2,1,,,,,,
1,552.0,2,phase_2,green_rhombus,go,,,,go-1,1,,,,,,
2,640.0,2,phase_2,purple_circle,go,,,,go-2,1,,,,,,
2,706.0,2,phase_2,purple_pentagon,go,,,,go-2,1,,,,,,
0,0,2,phase_2,green_triangle,stop,red,0.0,0-SSD,go-1,4,,,,,,
1,375.0,2,phase_2,purple_triangle,go,,,,go-2,1,,,,,,
1,801.0,2,phase_2,green_rhombus,go,,,,go-1,1,,,,,,
2,460.0,2,phase_2,green_circle,go,,,,go-1,1,,,,,,
1,549.0,2,phase_2,green_rhombus,go,,,,go-1,1,,,,,,
2,343.0,2,phase_2,purple_pentagon,stop,blue,200.0,tracking-SSD,go-2,3,,,,,,
0,0,2,phase_2,purple_circle,stop,blue,150.0,tracking-SSD,go-2,4,,,,,,
0,0,2,phase_2,green_pentagon,stop,red,0.0,0-SSD,go-1,4,,,,,,
1,539.0,2,phase_2,purple_triangle,stop,blue,200.0,tracking-SSD,go-2,3,,,,,,
0,0,2,phase_2,green_triangle,stop,blue,150.0,tracking-SSD,go-1,4,,,,,,
2,398.0,2,phase_2,green_pentagon,stop,blue,200.0,tracking-SSD,go-1,3,,,,,,
0,0,2,phase_2,green_circle,stop,blue,150.0,tracking-SSD,go-1,4,,,,,,
1,518.0,2,phase_2,green_triangle,go,,,,go-1,1,,,,,,
2,346.0,2,phase_2,purple_circle,go,,,,go-2,1,,,,,,
1,569.0,2,phase_2,green_triangle,go,,,,go-1,1,,,,,,
2,342.0,2,phase_2,purple_circle,go,,,,go-2,1,,,,,,
1,541.0,2,phase_2,green_triangle,go,,,,go-1,1,,,,,,
0,0,2,phase_2,purple_circle,stop,red,0.0,0-SSD,go-2,4,,,,,,
1,437.0,2,phase_2,green_rhombus,go,,,,go-1,1,,,,,,
0,0,2,phase_2,purple_rhombus,stop,red,0.0,0-SSD,go-2,4,,,,,,
0,0,2,phase_2,purple_pentagon,stop,red,0.0,0-SSD,go-2,4,,,,,,
2,518.0,2,phase_2,purple_pentagon,go,,,,go-2,1,,,,,,
1,472.0,2,phase_2,purple_rhombus,go,,,,go-2,1,,,,,,
0,0,2,phase_2,green_rhombus,stop,blue,200.0,tracking-SSD,go-1,4,,,,,,
1,558.0,2,phase_2,purple_rhombus,go,,,,go-2,1,,,,,,
2,432.0,3,phase_2,purple_circle,go,,,,go-2,1,,,,,,
2,588.0,3,phase_2,green_pentagon,go,,,,go-1,1,,,,,,
1,686.0,3,phase_2,purple_triangle,go,,,,go-2,1,,,,,,
1,402.0,3,phase_2,green_triangle,go,,,,go-1,1,,,,,,
2,333.0,3,phase_2,green_circle,go,,,,go-1,1,,,,,,
1,488.0,3,phase_2,purple_rhombus,stop,blue,250.0,tracking-SSD,go-2,3,,,,,,
1,474.0,3,phase_2,purple_triangle,go,,,,go-2,1,,,,,,
0,0,3,phase_2,green_pentagon,stop,blue,200.0,tracking-SSD,go-1,4,,,,,,
0,0,3,phase_2,green_pentagon,stop,red,0.0,0-SSD,go-1,4,,,,,,
1,523.0,3,phase_2,green_rhombus,go,,,,go-1,1,,,,,,
1,408.0,3,phase_2,purple_rhombus,go,,,,go-2,1,,,,,,
2,461.0,3,phase_2,green_circle,go,,,,go-1,1,,,,,,
2,651.0,3,phase_2,purple_pentagon,go,,,,go-2,1,,,,,,
0,0,3,phase_2,green_pentagon,stop,red,0.0,0-SSD,go-1,4,,,,,,
0,0,3,phase_2,green_rhombus,stop,red,0.0,0-SSD,go-1,4,,,,,,
1,397.0,3,phase_2,green_triangle,go,,,,go-1,1,,,,,,
2,440.0,3,phase_2,green_circle,stop,blue,250.0,tracking-SSD,go-1,3,,,,,,
2,449.0,3,phase_2,green_pentagon,go,,,,go-1,1,,,,,,
2,515.0,3,phase_2,purple_circle,go,,,,go-2,1,,,,,,
2,365.0,3,phase_2,green_circle,go,,,,go-1,1,,,,,,
1,543.0,3,phase_2,green_rhombus,go,,,,go-1,1,,,,,,
1,473.0,3,phase_2,green_triangle,go,,,,go-1,1,,,,,,
1,504.0,3,phase_2,green_triangle,go,,,,go-1,1,,,,,,
2,400.0,3,phase_2,purple_circle,go,,,,go-2,1,,,,,,
1,431.0,3,phase_2,purple_rhombus,go,,,,go-2,1,,,,,,
2,519.0,3,phase_2,purple_pentagon,go,,,,go-2,1,,,,,,
2,494.0,3,phase_2,purple_circle,stop,blue,200.0,tracking-SSD,go-2,3,,,,,,
0,0,3,phase_2,purple_rhombus,stop,red,0.0,0-SSD,go-2,4,,,,,,
2,546.0,3,phase_2,green_pentagon,go,,,,go-1,1,,,,,,
0,0,3,phase_2,green_triangle,stop,red,0.0,0-SSD,go-1,4,,,,,,
1,586.0,3,phase_2,purple_rhombus,go,,,,go-2,1,,,,,,
1,438.0,3,phase_2,purple_rhombus,go,,,,go-2,1,,,,,,
0,0,3,phase_2,purple_circle,stop,red,0.0,0-SSD,go-2,4,,,,,,
2,523.0,3,phase_2,purple_pentagon,go,,,,go-2,1,,,,,,
0,0,3,phase_2,purple_triangle,stop,red,0.0,0-SSD,go-2,4,,,,,,
2,473.0,3,phase_2,purple_pentagon,go,,,,go-2,1,,,,,,
1,505.0,3,phase_2,purple_triangle,go,,,,go-2,1,,,,,,
2,480.0,3,phase_2,green_circle,stop,blue,150.0,tracking-SSD,go-1,3,,,,,,
0,0,3,phase_2,purple_pentagon,stop,red,0.0,0-SSD,go-2,4,,,,,,
1,711.0,3,phase_2,green_rhombus,go,,,,go-1,1,,,,,,
0,0,3,phase_2,green_circle,stop,blue,100.0,tracking-SSD,go-1,4,,,,,,
2,437.0,3,phase_2,purple_triangle,go,,,,go-2,2,,,,,,
2,525.0,3,phase_2,green_circle,go,,,,go-1,1,,,,,,
1,454.0,3,phase_2,purple_triangle,stop,blue,150.0,tracking-SSD,go-2,3,,,,,,
1,498.0,3,phase_2,green_triangle,go,,,,go-1,1,,,,,,
0,0,3,phase_2,purple_rhombus,stop,blue,100.0,tracking-SSD,go-2,4,,,,,,
2,460.0,3,phase_2,green_pentagon,go,,,,go-1,1,,,,,,
1,468.0,3,phase_2,purple_rhombus,go,,,,go-2,1,,,,,,
0,0,4,phase_2,purple_triangle,stop,red,0.0,0-SSD,go-2,4,,,,,,
2,474.0,4,phase_2,green_circle,go,,,,go-1,1,,,,,,
1,483.0,4,phase_2,purple_triangle,go,,,,go-2,1,,,,,,
1,368.0,4,phase_2,purple_triangle,go,,,,go-2,1,,,,,,
2,388.0,4,phase_2,green_circle,go,,,,go-1,1,,,,,,
1,353.0,4,phase_2,purple_triangle,go,,,,go-2,1,,,,,,
0,0,4,phase_2,green_rhombus,stop,blue,150.0,tracking-SSD,go-1,4,,,,,,
2,529.0,4,phase_2,green_rhombus,go,,,,go-1,2,,,,,,
2,493.0,4,phase_2,purple_circle,go,,,,go-2,1,,,,,,
2,524.0,4,phase_2,green_circle,go,,,,go-1,1,,,,,,
1,510.0,4,phase_2,green_triangle,go,,,,go-1,1,,,,,,
2,496.0,4,phase_2,purple_circle,stop,blue,200.0,tracking-SSD,go-2,3,,,,,,
1,471.0,4,phase_2,green_triangle,go,,,,go-1,1,,,,,,
0,0,4,phase_2,purple_pentagon,stop,blue,150.0,tracking-SSD,go-2,4,,,,,,
0,0,4,phase_2,green_rhombus,stop,red,0.0,0-SSD,go-1,4,,,,,,
0,0,4,phase_2,purple_circle,stop,blue,200.0,tracking-SSD,go-2,4,,,,,,
1,473.0,4,phase_2,green_rhombus,stop,blue,250.0,tracking-SSD,go-1,3,,,,,,
2,462.0,4,phase_2,purple_pentagon,go,,,,go-2,1,,,,,,
2,683.0,4,phase_2,purple_circle,go,,,,go-2,1,,,,,,
1,579.0,4,phase_2,purple_rhombus,go,,,,go-2,1,,,,,,
1,430.0,4,phase_2,purple_triangle,go,,,,go-2,1,,,,,,
2,721.0,4,phase_2,purple_pentagon,go,,,,go-2,1,,,,,,
1,516.0,4,phase_2,purple_circle,go,,,,go-2,2,,,,,,
0,0,4,phase_2,purple_rhombus,stop,red,0.0,0-SSD,go-2,4,,,,,,
2,578.0,4,phase_2,green_pentagon,go,,,,go-1,1,,,,,,
0,0,4,phase_2,green_pentagon,stop,red,0.0,0-SSD,go-1,4,,,,,,
2,405.0,4,phase_2,purple_pentagon,go,,,,go-2,1,,,,,,
1,515.0,4,phase_2,green_triangle,go,,,,go-1,1,,,,,,
0,0,4,phase_2,purple_rhombus,stop,blue,200.0,tracking-SSD,go-2,4,,,,,,
1,409.0,4,phase_2,purple_rhombus,go,,,,go-2,1,,,,,,
0,0,4,phase_2,purple_circle,stop,red,0.0,0-SSD,go-2,4,,,,,,
2,417.0,4,phase_2,purple_circle,go,,,,go-2,1,,,,,,
1,572.0,4,phase_2,green_rhombus,go,,,,go-1,1,,,,,,
2,490.0,4,phase_2,purple_circle,go,,,,go-2,1,,,,,,
1,477.0,4,phase_2,green_rhombus,go,,,,go-1,1,,,,,,
2,509.0,4,phase_2,green_pentagon,go,,,,go-1,1,,,,,,
2,440.0,4,phase_2,green_pentagon,go,,,,go-1,1,,,,,,
2,427.0,4,phase_2,green_rhombus,stop,blue,250.0,tracking-SSD,go-1,3,,,,,,
1,480.0,4,phase_2,purple_triangle,go,,,,go-2,1,,,,,,
2,455.0,4,phase_2,green_pentagon,go,,,,go-1,1,,,,,,
0,0,4,phase_2,green_triangle,stop,red,0.0,0-SSD,go-1,4,,,,,,
1,452.0,4,phase_2,green_pentagon,go,,,,go-1,2,,,,,,
2,495.0,4,phase_2,green_pentagon,go,,,,go-1,1,,,,,,
1,966.0,4,phase_2,purple_triangle,go,,,,go-2,1,,,,,,
0,0,4,phase_2,green_circle,stop,red,0.0,0-SSD,go-1,4,,,,,,
2,511.0,4,phase_2,green_pentagon,go,,,,go-1,1,,,,,,
0,0,4,phase_2,purple_rhombus,stop,red,0.0,0-SSD,go-2,4,,,,,,
1,495.0,4,phase_2,green_triangle,stop,blue,200.0,tracking-SSD,go-1,3,,,,,,
2,477.0,5,phase_2,purple_pentagon,go,,,,go-2,1,,,,,,
1,588.0,5,phase_2,green_rhombus,go,,,,go-1,1,,,,,,
2,485.0,5,phase_2,green_pentagon,go,,,,go-1,1,,,,,,
0,0,5,phase_2,purple_triangle,stop,red,0.0,0-SSD,go-2,4,,,,,,
2,493.0,5,phase_2,purple_pentagon,go,,,,go-2,1,,,,,,
2,536.0,5,phase_2,purple_circle,go,,,,go-2,1,,,,,,
0,0,5,phase_2,purple_triangle,stop,blue,150.0,tracking-SSD,go-2,4,,,,,,
2,508.0,5,phase_2,green_pentagon,go,,,,go-1,1,,,,,,
2,494.0,5,phase_2,purple_circle,stop,blue,200.0,tracking-SSD,go-2,3,,,,,,
2,381.0,5,phase_2,purple_circle,go,,,,go-2,1,,,,,,
2,379.0,5,phase_2,green_circle,go,,,,go-1,1,,,,,,
0,0,5,phase_2,green_triangle,stop,red,0.0,0-SSD,go-1,4,,,,,,
2,341.0,5,phase_2,purple_circle,go,,,,go-2,1,,,,,,
0,0,5,phase_2,green_pentagon,stop,red,0.0,0-SSD,go-1,4,,,,,,
2,661.0,5,phase_2,green_pentagon,go,,,,go-1,1,,,,,,
1,513.0,5,phase_2,green_rhombus,go,,,,go-1,1,,,,,,
1,409.0,5,phase_2,green_rhombus,go,,,,go-1,1,,,,,,
1,396.0,5,phase_2,green_rhombus,go,,,,go-1,1,,,,,,
2,551.0,5,phase_2,purple_triangle,go,,,,go-2,2,,,,,,
1,527.0,5,phase_2,green_rhombus,go,,,,go-1,1,,,,,,
2,502.0,5,phase_2,green_circle,stop,blue,150.0,tracking-SSD,go-1,3,,,,,,
2,500.0,5,phase_2,green_circle,go,,,,go-1,1,,,,,,
0,0,5,phase_2,green_pentagon,stop,blue,100.0,tracking-SSD,go-1,4,,,,,,
2,429.0,5,phase_2,purple_circle,go,,,,go-2,1,,,,,,
2,594.0,5,phase_2,purple_pentagon,go,,,,go-2,1,,,,,,
0,0,5,phase_2,green_pentagon,stop,red,0.0,0-SSD,go-1,4,,,,,,
2,455.0,5,phase_2,green_circle,go,,,,go-1,1,,,,,,
0,0,5,phase_2,purple_rhombus,stop,red,0.0,0-SSD,go-2,4,,,,,,
0,0,5,phase_2,green_rhombus,stop,blue,150.0,tracking-SSD,go-1,4,,,,,,
2,402.0,5,phase_2,purple_circle,go,,,,go-2,1,,,,,,
1,748.0,5,phase_2,purple_triangle,go,,,,go-2,1,,,,,,
1,386.0,5,phase_2,purple_triangle,stop,blue,200.0,tracking-SSD,go-2,3,,,,,,
1,383.0,5,phase_2,purple_triangle,go,,,,go-2,1,,,,,,
2,404.0,5,phase_2,green_circle,go,,,,go-1,1,,,,,,
1,525.0,5,phase_2,green_rhombus,go,,,,go-1,1,,,,,,
2,534.0,5,phase_2,green_triangle,go,,,,go-1,2,,,,,,
1,688.0,5,phase_2,purple_rhombus,go,,,,go-2,1,,,,,,
0,0,5,phase_2,purple_rhombus,stop,red,0.0,0-SSD,go-2,4,,,,,,
1,537.0,5,phase_2,green_triangle,go,,,,go-1,1,,,,,,
1,456.0,5,phase_2,purple_triangle,stop,blue,150.0,tracking-SSD,go-2,3,,,,,,
2,498.0,5,phase_2,green_pentagon,go,,,,go-1,1,,,,,,
0,0,5,phase_2,purple_triangle,stop,red,0.0,0-SSD,go-2,4,,,,,,
2,483.0,5,phase_2,purple_circle,go,,,,go-2,1,,,,,,
0,0,5,phase_2,green_rhombus,stop,blue,100.0,tracking-SSD,go-1,4,,,,,,
1,467.0,5,phase_2,purple_pentagon,go,,,,go-2,2,,,,,,
0,0,5,phase_2,green_triangle,stop,red,0.0,0-SSD,go-1,4,,,,,,
2,462.0,5,phase_2,purple_pentagon,go,,,,go-2,1,,,,,,
1,538.0,5,phase_2,purple_rhombus,go,,,,go-2,1,,,,,,
1,633.0,6,phase_2,green_triangle,go,,,,go-1,1,,,,,,
2,474.0,6,phase_2,purple_pentagon,stop,blue,150.0,tracking-SSD,go-2,3,,,,,,
2,572.0,6,phase_2,purple_circle,go,,,,go-2,1,,,,,,
0,0,6,phase_2,purple_circle,stop,red,0.0,0-SSD,go-2,4,,,,,,
0,0,6,phase_2,green_rhombus,stop,red,0.0,0-SSD,go-1,4,,,,,,
2,454.0,6,phase_2,green_circle,go,,,,go-1,1,,,,,,
2,586.0,6,phase_2,purple_pentagon,go,,,,go-2,1,,,,,,
1,527.0,6,phase_2,purple_rhombus,go,,,,go-2,1,,,,,,
0,0,6,phase_2,purple_rhombus,stop,red,0.0,0-SSD,go-2,4,,,,,,
0,0,6,phase_2,green_rhombus,stop,red,0.0,0-SSD,go-1,4,,,,,,
2,453.0,6,phase_2,purple_circle,go,,,,go-2,1,,,,,,
2,372.0,6,phase_2,purple_circle,go,,,,go-2,1,,,,,,
0,0,6,phase_2,purple_triangle,stop,red,0.0,0-SSD,go-2,4,,,,,,
0,0,6,phase_2,green_rhombus,stop,blue,100.0,tracking-SSD,go-1,4,,,,,,
2,546.0,6,phase_2,purple_pentagon,go,,,,go-2,1,,,,,,
2,498.0,6,phase_2,purple_pentagon,go,,,,go-2,1,,,,,,
2,484.0,6,phase_2,purple_circle,go,,,,go-2,1,,,,,,
2,380.0,6,phase_2,purple_circle,stop,blue,150.0,tracking-SSD,go-2,3,,,,,,
0,0,6,phase_2,purple_triangle,stop,blue,100.0,tracking-SSD,go-2,4,,,,,,
0,0,6,phase_2,purple_circle,stop,blue,150.0,tracking-SSD,go-2,4,,,,,,
2,564.0,6,phase_2,purple_pentagon,go,,,,go-2,1,,,,,,
1,561.0,6,phase_2,purple_rhombus,go,,,,go-2,1,,,,,,
0,0,6,phase_2,purple_pentagon,stop,red,0.0,0-SSD,go-2,4,,,,,,
2,366.0,6,phase_2,purple_triangle,go,,,,go-2,2,,,,,,
1,498.0,6,phase_2,purple_triangle,go,,,,go-2,1,,,,,,
0,0,6,phase_2,green_rhombus,stop,blue,200.0,tracking-SSD,go-1,4,,,,,,
1,324.0,6,phase_2,green_rhombus,stop,blue,250.0,tracking-SSD,go-1,3,,,,,,
1,514.0,6,phase_2,green_triangle,go,,,,go-1,1,,,,,,
1,389.0,6,phase_2,purple_triangle,go,,,,go-2,1,,,,,,
1,319.0,6,phase_2,green_triangle,go,,,,go-1,1,,,,,,
2,351.0,6,phase_2,green_circle,go,,,,go-1,1,,,,,,
2,371.0,6,phase_2,green_pentagon,go,,,,go-1,1,,,,,,
1,671.0,6,phase_2,purple_rhombus,go,,,,go-2,1,,,,,,
2,556.0,6,phase_2,green_circle,go,,,,go-1,1,,,,,,
0,0,6,phase_2,green_rhombus,stop,red,0.0,0-SSD,go-1,4,,,,,,
2,584.0,6,phase_2,green_pentagon,go,,,,go-1,1,,,,,,
1,595.0,6,phase_2,green_triangle,go,,,,go-1,1,,,,,,
1,479.0,6,phase_2,green_triangle,go,,,,go-1,1,,,,,,
0,0,6,phase_2,green_pentagon,stop,red,0.0,0-SSD,go-1,4,,,,,,
2,473.0,6,phase_2,green_circle,go,,,,go-1,1,,,,,,
2,404.0,6,phase_2,green_pentagon,stop,blue,200.0,tracking-SSD,go-1,3,,,,,,
2,413.0,6,phase_2,green_pentagon,go,,,,go-1,1,,,,,,
1,524.0,6,phase_2,purple_triangle,go,,,,go-2,1,,,,,,
1,633.0,6,phase_2,green_rhombus,go,,,,go-1,1,,,,,,
2,552.0,6,phase_2,green_circle,go,,,,go-1,1,,,,,,
1,505.0,6,phase_2,purple_triangle,go,,,,go-2,1,,,,,,
1,807.0,6,phase_2,green_rhombus,go,,,,go-1,1,,,,,,
2,558.0,6,phase_2,green_pentagon,go,,,,go-1,1,,,,,,
2,431.0,7,phase_2,green_circle,go,,,,go-1,1,,,,,,
0,0,7,phase_2,purple_rhombus,stop,red,0.0,0-SSD,go-2,4,,,,,,
1,504.0,7,phase_2,purple_rhombus,go,,,,go-2,1,,,,,,
1,581.0,7,phase_2,purple_triangle,go,,,,go-2,1,,,,,,
2,466.0,7,phase_2,green_pentagon,go,,,,go-1,1,,,,,,
1,374.0,7,phase_2,green_circle,go,,,,go-1,2,,,,,,
2,382.0,7,phase_2,green_circle,go,,,,go-1,1,,,,,,
1,402.0,7,phase_2,green_triangle,go,,,,go-1,1,,,,,,
1,445.0,7,phase_2,green_rhombus,go,,,,go-1,1,,,,,,
2,365.0,7,phase_2,purple_circle,go,,,,go-2,1,,,,,,
2,361.0,7,phase_2,purple_circle,go,,,,go-2,1,,,,,,
2,404.0,7,phase_2,purple_rhombus,go,,,,go-2,2,,,,,,
1,480.0,7,phase_2,green_rhombus,go,,,,go-1,1,,,,,,
2,489.0,7,phase_2,purple_circle,go,,,,go-2,1,,,,,,
0,0,7,phase_2,green_pentagon,stop,red,0.0,0-SSD,go-1,4,,,,,,
2,609.0,7,phase_2,green_pentagon,go,,,,go-1,1,,,,,,
0,0,7,phase_2,green_circle,stop,red,0.0,0-SSD,go-1,4,,,,,,
1,480.0,7,phase_2,purple_triangle,go,,,,go-2,1,,,,,,
2,466.0,7,phase_2,green_pentagon,go,,,,go-1,1,,,,,,
1,475.0,7,phase_2,purple_triangle,go,,,,go-2,1,,,,,,
1,361.0,7,phase_2,purple_triangle,go,,,,go-2,1,,,,,,
0,0,7,phase_2,purple_pentagon,stop,blue,150.0,tracking-SSD,go-2,4,,,,,,
2,546.0,7,phase_2,purple_pentagon,go,,,,go-2,1,,,,,,
1,476.0,7,phase_2,purple_triangle,go,,,,go-2,1,,,,,,
0,0,7,phase_2,purple_rhombus,stop,red,0.0,0-SSD,go-2,4,,,,,,
2,472.0,7,phase_2,green_pentagon,go,,,,go-1,1,,,,,,
1,435.0,7,phase_2,purple_circle,stop,blue,200.0,tracking-SSD,go-2,3,,,,,,
0,0,7,phase_2,green_rhombus,stop,blue,150.0,tracking-SSD,go-1,4,,,,,,
2,486.0,7,phase_2,green_pentagon,go,,,,go-1,1,,,,,,
2,383.0,7,phase_2,green_circle,stop,blue,200.0,tracking-SSD,go-1,3,,,,,,
0,0,7,phase_2,green_triangle,stop,blue,150.0,tracking-SSD,go-1,4,,,,,,
1,390.0,7,phase_2,purple_rhombus,go,,,,go-2,1,,,,,,
1,511.0,7,phase_2,purple_triangle,go,,,,go-2,1,,,,,,
2,520.0,7,phase_2,green_circle,go,,,,go-1,1,,,,,,
0,0,7,phase_2,green_circle,stop,red,0.0,0-SSD,go-1,4,,,,,,
2,403.0,7,phase_2,purple_pentagon,go,,,,go-2,1,,,,,,
1,559.0,7,phase_2,green_triangle,go,,,,go-1,1,,,,,,
0,0,7,phase_2,purple_triangle,stop,red,0.0,0-SSD,go-2,4,,,,,,
2,486.0,7,phase_2,green_circle,stop,blue,200.0,tracking-SSD,go-1,3,,,,,,
0,0,7,phase_2,purple_triangle,stop,blue,150.0,tracking-SSD,go-2,4,,,,,,
2,426.0,7,phase_2,purple_pentagon,go,,,,go-2,1,,,,,,
0,0,7,phase_2,green_pentagon,stop,red,0.0,0-SSD,go-1,4,,,,,,
1,510.0,7,phase_2,purple_rhombus,stop,blue,200.0,tracking-SSD,go-2,3,,,,,,
1,542.0,7,phase_2,green_rhombus,go,,,,go-1,1,,,,,,
2,573.0,7,phase_2,purple_pentagon,go,,,,go-2,1,,,,,,
0,0,7,phase_2,purple_rhombus,stop,red,0.0,0-SSD,go-2,4,,,,,,
1,601.0,7,phase_2,green_rhombus,go,,,,go-1,1,,,,,,
1,419.0,7,phase_2,green_triangle,go,,,,go-1,1,,,,,,
0,0,8,phase_2,green_triangle,stop,red,0.0,0-SSD,go-1,4,,,,,,
1,566.0,8,phase_2,green_triangle,go,,,,go-1,1,,,,,,
1,530.0,8,phase_2,purple_rhombus,go,,,,go-2,1,,,,,,
2,460.0,8,phase_2,green_circle,go,,,,go-1,1,,,,,,
1,504.0,8,phase_2,purple_triangle,go,,,,go-2,1,,,,,,
2,434.0,8,phase_2,purple_rhombus,go,,,,go-2,2,,,,,,
0,0,8,phase_2,purple_circle,stop,red,0.0,0-SSD,go-2,4,,,,,,
1,477.0,8,phase_2,green_rhombus,go,,,,go-1,1,,,,,,
1,609.0,8,phase_2,purple_triangle,go,,,,go-2,1,,,,,,
1,506.0,8,phase_2,purple_rhombus,go,,,,go-2,1,,,,,,
0,0,8,phase_2,purple_rhombus,stop,red,0.0,0-SSD,go-2,4,,,,,,
2,480.0,8,phase_2,green_pentagon,go,,,,go-1,1,,,,,,
0,0,8,phase_2,green_circle,stop,red,0.0,0-SSD,go-1,4,,,,,,
0,0,8,phase_2,green_circle,stop,blue,150.0,tracking-SSD,go-1,4,,,,,,
1,452.0,8,phase_2,purple_triangle,go,,,,go-2,1,,,,,,
0,0,8,phase_2,purple_rhombus,stop,blue,200.0,tracking-SSD,go-2,4,,,,,,
0,0,8,phase_2,purple_circle,stop,red,0.0,0-SSD,go-2,4,,,,,,
2,516.0,8,phase_2,green_pentagon,go,,,,go-1,1,,,,,,
1,480.0,8,phase_2,green_triangle,go,,,,go-1,1,,,,,,
1,625.0,8,phase_2,purple_rhombus,go,,,,go-2,1,,,,,,
1,555.0,8,phase_2,purple_rhombus,go,,,,go-2,1,,,,,,
2,564.0,8,phase_2,purple_pentagon,stop,blue,250.0,tracking-SSD,go-2,3,,,,,,
2,674.0,8,phase_2,purple_circle,go,,,,go-2,1,,,,,,
2,527.0,8,phase_2,green_pentagon,stop,blue,200.0,tracking-SSD,go-1,3,,,,,,
0,0,8,phase_2,green_rhombus,stop,red,0.0,0-SSD,go-1,4,,,,,,
2,615.0,8,phase_2,purple_circle,go,,,,go-2,1,,,,,,
2,421.0,8,phase_2,purple_circle,go,,,,go-2,1,,,,,,
1,498.0,8,phase_2,purple_triangle,stop,blue,150.0,tracking-SSD,go-2,3,,,,,,
0,0,8,phase_2,green_pentagon,stop,blue,100.0,tracking-SSD,go-1,4,,,,,,
1,538.0,8,phase_2,green_rhombus,go,,,,go-1,1,,,,,,
2,538.0,8,phase_2,green_pentagon,go,,,,go-1,1,,,,,,
0,0,8,phase_2,purple_circle,stop,blue,150.0,tracking-SSD,go-2,4,,,,,,
2,567.0,8,phase_2,purple_circle,go,,,,go-2,1,,,,,,
0,0,8,phase_2,green_pentagon,stop,blue,200.0,tracking-SSD,go-1,4,,,,,,
2,473.0,8,phase_2,purple_pentagon,go,,,,go-2,1,,,,,,
0,0,8,phase_2,green_triangle,stop,red,0.0,0-SSD,go-1,4,,,,,,
1,492.0,8,phase_2,purple_rhombus,go,,,,go-2,1,,,,,,
2,579.0,8,phase_2,purple_triangle,go,,,,go-2,2,,,,,,
1,655.0,8,phase_2,green_rhombus,go,,,,go-1,1,,,,,,
2,529.0,8,phase_2,green_circle,go,,,,go-1,1,,,,,,
2,616.0,8,phase_2,green_pentagon,go,,,,go-1,1,,,,,,
2,434.0,8,phase_2,green_pentagon,go,,,,go-1,1,,,,,,
2,476.0,8,phase_2,green_circle,go,,,,go-1,1,,,,,,
2,475.0,8,phase_2,green_pentagon,go,,,,go-1,1,,,,,,
1,508.0,8,phase_2,green_triangle,go,,,,go-1,1,,,,,,
2,483.0,8,phase_2,purple_pentagon,go,,,,go-2,1,,,,,,
1,604.0,8,phase_2,green_triangle,go,,,,go-1,1,,,,,,
0,0,8,phase_2,purple_triangle,stop,red,0.0,0-SSD,go-2,4,,,,,,
1,545.0,9,phase_2,green_triangle,stop,blue,250.0,tracking-SSD,go-1,3,,,,,,
1,407.0,9,phase_2,green_rhombus,go,,,,go-1,1,,,,,,
1,383.0,9,phase_2,purple_rhombus,go,,,,go-2,1,,,,,,
2,571.0,9,phase_2,green_pentagon,go,,,,go-1,1,,,,,,
2,557.0,9,phase_2,purple_circle,go,,,,go-2,1,,,,,,
2,522.0,9,phase_2,green_pentagon,go,,,,go-1,1,,,,,,
2,464.0,9,phase_2,green_pentagon,go,,,,go-1,1,,,,,,
2,349.0,9,phase_2,green_circle,go,,,,go-1,1,,,,,,
1,369.0,9,phase_2,purple_triangle,go,,,,go-2,1,,,,,,
1,309.0,9,phase_2,green_triangle,go,,,,go-1,1,,,,,,
1,340.0,9,phase_2,green_triangle,go,,,,go-1,1,,,,,,
0,0,9,phase_2,purple_circle,stop,red,0.0,0-SSD,go-2,4,,,,,,
2,505.0,9,phase_2,purple_pentagon,go,,,,go-2,1,,,,,,
2,368.0,9,phase_2,purple_circle,stop,blue,200.0,tracking-SSD,go-2,3,,,,,,
1,523.0,9,phase_2,purple_rhombus,go,,,,go-2,1,,,,,,
0,0,9,phase_2,purple_rhombus,stop,red,0.0,0-SSD,go-2,4,,,,,,
2,484.0,9,phase_2,green_pentagon,stop,blue,150.0,tracking-SSD,go-1,3,,,,,,
1,583.0,9,phase_2,green_triangle,go,,,,go-1,1,,,,,,
1,423.0,9,phase_2,purple_triangle,go,,,,go-2,1,,,,,,
0,0,9,phase_2,green_pentagon,stop,red,0.0,0-SSD,go-1,4,,,,,,
0,0,9,phase_2,green_rhombus,stop,blue,100.0,tracking-SSD,go-1,4,,,,,,
0,0,9,phase_2,purple_circle,stop,blue,150.0,tracking-SSD,go-2,4,,,,,,
1,446.0,9,phase_2,purple_rhombus,go,,,,go-2,1,,,,,,
2,432.0,9,phase_2,purple_circle,stop,blue,200.0,tracking-SSD,go-2,3,,,,,,
2,429.0,9,phase_2,purple_pentagon,go,,,,go-2,1,,,,,,
1,484.0,9,phase_2,green_triangle,go,,,,go-1,1,,,,,,
0,0,9,phase_2,green_rhombus,stop,blue,150.0,tracking-SSD,go-1,4,,,,,,
1,434.0,9,phase_2,purple_rhombus,go,,,,go-2,1,,,,,,
0,0,9,phase_2,purple_circle,stop,red,0.0,0-SSD,go-2,4,,,,,,
0,0,9,phase_2,green_pentagon,stop,red,0.0,0-SSD,go-1,4,,,,,,
1,459.0,9,phase_2,green_triangle,go,,,,go-1,1,,,,,,
2,468.0,9,phase_2,purple_circle,go,,,,go-2,1,,,,,,
2,444.0,9,phase_2,purple_rhombus,go,,,,go-2,2,,,,,,
2,475.0,9,phase_2,purple_circle,go,,,,go-2,1,,,,,,
1,383.0,9,phase_2,green_triangle,go,,,,go-1,1,,,,,,
1,594.0,9,phase_2,green_rhombus,go,,,,go-1,1,,,,,,
0,0,9,phase_2,green_pentagon,stop,red,0.0,0-SSD,go-1,4,,,,,,
1,377.0,9,phase_2,purple_triangle,stop,blue,200.0,tracking-SSD,go-2,3,,,,,,
1,363.0,9,phase_2,purple_circle,go,,,,go-2,2,,,,,,
2,428.0,9,phase_2,green_circle,go,,,,go-1,1,,,,,,
1,460.0,9,phase_2,purple_triangle,go,,,,go-2,1,,,,,,
1,648.0,9,phase_2,purple_rhombus,go,,,,go-2,1,,,,,,
1,522.0,9,phase_2,green_triangle,go,,,,go-1,1,,,,,,
1,665.0,9,phase_2,green_rhombus,go,,,,go-1,1,,,,,,
1,450.0,9,phase_2,purple_pentagon,go,,,,go-2,2,,,,,,
0,0,9,phase_2,purple_pentagon,stop,red,0.0,0-SSD,go-2,4,,,,,,
2,399.0,9,phase_2,green_pentagon,go,,,,go-1,1,,,,,,
0,0,9,phase_2,green_circle,stop,red,0.0,0-SSD,go-1,4,,,,,,
1,443.0,10,phase_2,purple_triangle,go,,,,go-2,1,,,,,,
2,407.0,10,phase_2,green_circle,go,,,,go-1,1,,,,,,
1,494.0,10,phase_2,purple_rhombus,stop,blue,150.0,tracking-SSD,go-2,3,,,,,,
0,0,10,phase_2,purple_triangle,stop,red,0.0,0-SSD,go-2,4,,,,,,
0,0,10,phase_2,purple_triangle,stop,blue,100.0,tracking-SSD,go-2,4,,,,,,
1,329.0,10,phase_2,purple_triangle,go,,,,go-2,1,,,,,,
1,350.0,10,phase_2,green_triangle,go,,,,go-1,1,,,,,,
0,0,10,phase_2,purple_pentagon,stop,red,0.0,0-SSD,go-2,4,,,,,,
2,490.0,10,phase_2,purple_circle,go,,,,go-2,1,,,,,,
1,420.0,10,phase_2,green_rhombus,go,,,,go-1,1,,,,,,
1,508.0,10,phase_2,green_triangle,go,,,,go-1,1,,,,,,
1,460.0,10,phase_2,green_rhombus,go,,,,go-1,1,,,,,,
1,413.0,10,phase_2,purple_triangle,go,,,,go-2,1,,,,,,
0,0,10,phase_2,green_pentagon,stop,blue,150.0,tracking-SSD,go-1,4,,,,,,
2,385.0,10,phase_2,purple_circle,go,,,,go-2,1,,,,,,
1,472.0,10,phase_2,green_triangle,go,,,,go-1,1,,,,,,
0,0,10,phase_2,green_rhombus,stop,red,0.0,0-SSD,go-1,4,,,,,,
2,456.0,10,phase_2,purple_circle,go,,,,go-2,1,,,,,,
1,509.0,10,phase_2,green_rhombus,go,,,,go-1,1,,,,,,
1,406.0,10,phase_2,purple_pentagon,go,,,,go-2,2,,,,,,
2,449.0,10,phase_2,green_pentagon,go,,,,go-1,1,,,,,,
2,446.0,10,phase_2,green_pentagon,go,,,,go-1,1,,,,,,
2,398.0,10,phase_2,green_circle,stop,blue,200.0,tracking-SSD,go-1,3,,,,,,
0,0,10,phase_2,green_rhombus,stop,blue,150.0,tracking-SSD,go-1,4,,,,,,
0,0,10,phase_2,green_rhombus,stop,red,0.0,0-SSD,go-1,4,,,,,,
2,537.0,10,phase_2,green_circle,stop,blue,200.0,tracking-SSD,go-1,3,,,,,,
2,365.0,10,phase_2,purple_circle,go,,,,go-2,1,,,,,,
0,0,10,phase_2,purple_circle,stop,red,0.0,0-SSD,go-2,4,,,,,,
1,484.0,10,phase_2,purple_rhombus,go,,,,go-2,1,,,,,,
2,618.0,10,phase_2,green_pentagon,go,,,,go-1,1,,,,,,
2,470.0,10,phase_2,purple_pentagon,go,,,,go-2,1,,,,,,
1,524.0,10,phase_2,green_triangle,go,,,,go-1,1,,,,,,
1,544.0,10,phase_2,green_triangle,go,,,,go-1,1,,,,,,
1,530.0,10,phase_2,green_triangle,go,,,,go-1,1,,,,,,
2,393.0,10,phase_2,green_circle,go,,,,go-1,1,,,,,,
2,491.0,10,phase_2,green_pentagon,go,,,,go-1,1,,,,,,
2,512.0,10,phase_2,purple_pentagon,go,,,,go-2,1,,,,,,
2,745.0,10,phase_2,purple_pentagon,go,,,,go-2,1,,,,,,
2,439.0,10,phase_2,purple_circle,go,,,,go-2,1,,,,,,
0,0,10,phase_2,green_circle,stop,red,0.0,0-SSD,go-1,4,,,,,,
2,400.0,10,phase_2,purple_pentagon,go,,,,go-2,1,,,,,,
0,0,10,phase_2,green_circle,stop,red,0.0,0-SSD,go-1,4,,,,,,
2,632.0,10,phase_2,purple_rhombus,go,,,,go-2,2,,,,,,
1,472.0,10,phase_2,purple_rhombus,go,,,,go-2,1,,,,,,
1,335.0,10,phase_2,purple_rhombus,stop,blue,150.0,tracking-SSD,go-2,3,,,,,,
0,0,10,phase_2,purple_rhombus,stop,red,0.0,0-SSD,go-2,4,,,,,,
2,487.0,10,phase_2,green_pentagon,go,,,,go-1,1,,,,,,
0,0,10,phase_2,purple_triangle,stop,blue,100.0,tracking-SSD,go-2,4,,,,,,
2,374.0,11,phase_2,green_circle,stop,blue,150.0,tracking-SSD,go-1,3,,,,,,
0,0,11,phase_2,purple_triangle,stop,red,0.0,0-SSD,go-2,4,,,,,,
2,437.0,11,phase_2,purple_triangle,go,,,,go-2,2,,,,,,
2,502.0,11,phase_2,purple_circle,go,,,,go-2,1,,,,,,
1,467.0,11,phase_2,purple_rhombus,go,,,,go-2,1,,,,,,
1,454.0,11,phase_2,purple_rhombus,go,,,,go-2,1,,,,,,
2,372.0,11,phase_2,green_circle,go,,,,go-1,1,,,,,,
0,0,11,phase_2,green_circle,stop,red,0.0,0-SSD,go-1,4,,,,,,
2,458.0,11,phase_2,green_circle,go,,,,go-1,1,,,,,,
1,467.0,11,phase_2,purple_triangle,go,,,,go-2,1,,,,,,
1,419.0,11,phase_2,purple_triangle,go,,,,go-2,1,,,,,,
1,663.0,11,phase_2,green_rhombus,go,,,,go-1,1,,,,,,
0,0,11,phase_2,green_triangle,stop,red,0.0,0-SSD,go-1,4,,,,,,
0,0,11,phase_2,green_pentagon,stop,blue,100.0,tracking-SSD,go-1,4,,,,,,
2,453.0,11,phase_2,green_pentagon,go,,,,go-1,1,,,,,,
2,395.0,11,phase_2,purple_pentagon,go,,,,go-2,1,,,,,,
1,482.0,11,phase_2,purple_rhombus,go,,,,go-2,1,,,,,,
2,524.0,11,phase_2,purple_circle,stop,blue,150.0,tracking-SSD,go-2,3,,,,,,
2,747.0,11,phase_2,green_pentagon,go,,,,go-1,1,,,,,,
0,0,11,phase_2,purple_circle,stop,blue,100.0,tracking-SSD,go-2,4,,,,,,
2,316.0,11,phase_2,green_pentagon,go,,,,go-1,1,,,,,,
1,370.0,11,phase_2,green_rhombus,go,,,,go-1,1,,,,,,
1,446.0,11,phase_2,green_circle,go,,,,go-1,2,,,,,,
1,511.0,11,phase_2,green_rhombus,go,,,,go-1,1,,,,,,
2,486.0,11,phase_2,green_pentagon,go,,,,go-1,1,,,,,,
2,361.0,11,phase_2,green_circle,go,,,,go-1,1,,,,,,
2,358.0,11,phase_2,purple_triangle,stop,blue,150.0,tracking-SSD,go-2,3,,,,,,
1,411.0,11,phase_2,green_triangle,stop,blue,100.0,tracking-SSD,go-1,3,,,,,,
2,296.0,11,phase_2,purple_rhombus,go,,,,go-2,2,,,,,,
0,0,11,phase_2,purple_triangle,stop,blue,50.0,tracking-SSD,go-2,4,,,,,,
1,381.0,11,phase_2,green_pentagon,go,,,,go-1,2,,,,,,
0,0,11,phase_2,purple_circle,stop,red,0.0,0-SSD,go-2,4,,,,,,
1,455.0,11,phase_2,green_triangle,go,,,,go-1,1,,,,,,
1,384.0,11,phase_2,purple_triangle,go,,,,go-2,1,,,,,,
2,393.0,11,phase_2,purple_pentagon,go,,,,go-2,1,,,,,,
0,0,11,phase_2,green_circle,stop,red,0.0,0-SSD,go-1,4,,,,,,
0,0,11,phase_2,purple_rhombus,stop,red,0.0,0-SSD,go-2,4,,,,,,
0,0,11,phase_2,green_pentagon,stop,red,0.0,0-SSD,go-1,4,,,,,,
1,440.0,11,phase_2,purple_triangle,go,,,,go-2,1,,,,,,
2,470.0,11,phase_2,purple_pentagon,go,,,,go-2,1,,,,,,
1,411.0,11,phase_2,green_rhombus,go,,,,go-1,1,,,,,,
1,410.0,11,phase_2,purple_triangle,go,,,,go-2,1,,,,,,
0,0,11,phase_2,purple_rhombus,stop,red,0.0,0-SSD,go-2,4,,,,,,
1,506.0,11,phase_2,purple_rhombus,go,,,,go-2,1,,,,,,
2,368.0,11,phase_2,purple_pentagon,go,,,,go-2,1,,,,,,
2,432.0,11,phase_2,green_circle,go,,,,go-1,1,,,,,,
0,0,11,phase_2,green_rhombus,stop,blue,100.0,tracking-SSD,go-1,4,,,,,,
2,541.0,11,phase_2,green_pentagon,go,,,,go-1,1,,,,,,
1,804.0,12,phase_2,green_rhombus,go,,,,go-1,1,,,,,,
2,531.0,12,phase_2,green_pentagon,stop,blue,150.0,tracking-SSD,go-1,3,,,,,,
2,550.0,12,phase_2,purple_circle,go,,,,go-2,1,,,,,,
2,346.0,12,phase_2,purple_circle,go,,,,go-2,1,,,,,,
2,345.0,12,phase_2,purple_circle,go,,,,go-2,1,,,,,,
0,0,12,phase_2,purple_triangle,stop,red,0.0,0-SSD,go-2,4,,,,,,
0,0,12,phase_2,green_triangle,stop,red,0.0,0-SSD,go-1,4,,,,,,
2,439.0,12,phase_2,purple_circle,go,,,,go-2,1,,,,,,
2,357.0,12,phase_2,green_circle,go,,,,go-1,1,,,,,,
0,0,12,phase_2,purple_rhombus,stop,red,0.0,0-SSD,go-2,4,,,,,,
0,0,12,phase_2,green_circle,stop,red,0.0,0-SSD,go-1,4,,,,,,
2,384.0,12,phase_2,purple_circle,go,,,,go-2,1,,,,,,
1,449.0,12,phase_2,green_pentagon,go,,,,go-1,2,,,,,,
1,548.0,12,phase_2,green_triangle,go,,,,go-1,1,,,,,,
2,388.0,12,phase_2,purple_circle,go,,,,go-2,1,,,,,,
1,410.0,12,phase_2,purple_triangle,go,,,,go-2,1,,,,,,
0,0,12,phase_2,green_pentagon,stop,blue,100.0,tracking-SSD,go-1,4,,,,,,
1,473.0,12,phase_2,green_triangle,go,,,,go-1,1,,,,,,
1,470.0,12,phase_2,green_triangle,go,,,,go-1,1,,,,,,
2,445.0,12,phase_2,green_rhombus,go,,,,go-1,2,,,,,,
1,453.0,12,phase_2,purple_triangle,stop,blue,150.0,tracking-SSD,go-2,3,,,,,,
2,473.0,12,phase_2,purple_pentagon,go,,,,go-2,1,,,,,,
2,414.0,12,phase_2,green_pentagon,go,,,,go-1,1,,,,,,
1,378.0,12,phase_2,purple_triangle,go,,,,go-2,1,,,,,,
1,601.0,12,phase_2,green_rhombus,go,,,,go-1,1,,,,,,
1,452.0,12,phase_2,purple_rhombus,go,,,,go-2,1,,,,,,
1,392.0,12,phase_2,purple_pentagon,go,,,,go-2,2,,,,,,
0,0,12,phase_2,purple_triangle,stop,red,0.0,0-SSD,go-2,4,,,,,,
0,0,12,phase_2,green_rhombus,stop,blue,100.0,tracking-SSD,go-1,4,,,,,,
0,0,12,phase_2,purple_triangle,stop,blue,150.0,tracking-SSD,go-2,4,,,,,,
1,476.0,12,phase_2,purple_rhombus,stop,blue,200.0,tracking-SSD,go-2,3,,,,,,
1,394.0,12,phase_2,green_rhombus,go,,,,go-1,1,,,,,,
0,0,12,phase_2,green_triangle,stop,red,0.0,0-SSD,go-1,4,,,,,,
0,0,12,phase_2,green_rhombus,stop,blue,150.0,tracking-SSD,go-1,4,,,,,,
2,533.0,12,phase_2,green_pentagon,go,,,,go-1,1,,,,,,
2,386.0,12,phase_2,green_pentagon,go,,,,go-1,1,,,,,,
0,0,12,phase_2,purple_rhombus,stop,red,0.0,0-SSD,go-2,4,,,,,,
2,405.0,12,phase_2,green_circle,go,,,,go-1,1,,,,,,
2,469.0,12,phase_2,purple_pentagon,go,,,,go-2,1,,,,,,
1,602.0,12,phase_2,green_rhombus,go,,,,go-1,1,,,,,,
2,465.0,12,phase_2,green_pentagon,go,,,,go-1,1,,,,,,
2,451.0,12,phase_2,purple_circle,go,,,,go-2,1,,,,,,
2,380.0,12,phase_2,purple_circle,stop,blue,200.0,tracking-SSD,go-2,3,,,,,,
1,468.0,12,phase_2,green_triangle,go,,,,go-1,1,,,,,,
1,556.0,12,phase_2,purple_rhombus,go,,,,go-2,1,,,,,,
2,576.0,12,phase_2,purple_circle,go,,,,go-2,1,,,,,,
0,0,12,phase_2,green_pentagon,stop,red,0.0,0-SSD,go-1,4,,,,,,
2,458.0,12,phase_2,purple_pentagon,go,,,,go-2,1,,,,,,
1,556.0,13,phase_2,purple_rhombus,go,,,,go-2,1,,,,,,
2,441.0,13,phase_2,purple_circle,stop,blue,150.0,tracking-SSD,go-2,3,,,,,,
0,0,13,phase_2,green_pentagon,stop,blue,100.0,tracking-SSD,go-1,4,,,,,,
1,492.0,13,phase_2,purple_triangle,go,,,,go-2,1,,,,,,
2,421.0,13,phase_2,green_circle,go,,,,go-1,1,,,,,,
0,0,13,phase_2,purple_triangle,stop,red,0.0,0-SSD,go-2,4,,,,,,
0,0,13,phase_2,purple_pentagon,stop,red,0.0,0-SSD,go-2,4,,,,,,
2,618.0,13,phase_2,purple_pentagon,go,,,,go-2,1,,,,,,
2,468.0,13,phase_2,purple_pentagon,go,,,,go-2,1,,,,,,
2,388.0,13,phase_2,purple_circle,stop,blue,150.0,tracking-SSD,go-2,3,,,,,,
1,453.0,13,phase_2,green_triangle,go,,,,go-1,1,,,,,,
2,495.0,13,phase_2,purple_pentagon,go,,,,go-2,1,,,,,,
0,0,13,phase_2,green_pentagon,stop,red,0.0,0-SSD,go-1,4,,,,,,
2,357.0,13,phase_2,purple_pentagon,go,,,,go-2,1,,,,,,
1,466.0,13,phase_2,green_triangle,go,,,,go-1,1,,,,,,
2,409.0,13,phase_2,purple_circle,go,,,,go-2,1,,,,,,
1,620.0,13,phase_2,purple_rhombus,go,,,,go-2,1,,,,,,
1,471.0,13,phase_2,purple_triangle,go,,,,go-2,1,,,,,,
2,457.0,13,phase_2,green_pentagon,go,,,,go-1,1,,,,,,
0,0,13,phase_2,purple_circle,stop,blue,100.0,tracking-SSD,go-2,4,,,,,,
0,0,13,phase_2,purple_rhombus,stop,red,0.0,0-SSD,go-2,4,,,,,,
1,392.0,13,phase_2,green_circle,go,,,,go-1,2,,,,,,
0,0,13,phase_2,green_triangle,stop,blue,150.0,tracking-SSD,go-1,4,,,,,,
1,523.0,13,phase_2,purple_rhombus,go,,,,go-2,1,,,,,,
0,0,13,phase_2,green_circle,stop,red,0.0,0-SSD,go-1,4,,,,,,
2,495.0,13,phase_2,purple_pentagon,go,,,,go-2,1,,,,,,
1,458.0,13,phase_2,green_rhombus,go,,,,go-1,1,,,,,,
1,457.0,13,phase_2,green_rhombus,go,,,,go-1,1,,,,,,
0,0,13,phase_2,green_pentagon,stop,red,0.0,0-SSD,go-1,4,,,,,,
1,463.0,13,phase_2,purple_triangle,go,,,,go-2,1,,,,,,
1,403.0,13,phase_2,green_triangle,go,,,,go-1,1,,,,,,
1,300.0,13,phase_2,green_triangle,go,,,,go-1,1,,,,,,
2,478.0,13,phase_2,purple_circle,go,,,,go-2,1,,,,,,
2,340.0,13,phase_2,green_circle,go,,,,go-1,1,,,,,,
2,294.0,13,phase_2,green_circle,go,,,,go-1,1,,,,,,
2,336.0,13,phase_2,purple_circle,stop,blue,200.0,tracking-SSD,go-2,3,,,,,,
1,423.0,13,phase_2,purple_rhombus,go,,,,go-2,1,,,,,,
1,308.0,13,phase_2,green_rhombus,go,,,,go-1,1,,,,,,
0,0,13,phase_2,green_triangle,stop,red,0.0,0-SSD,go-1,4,,,,,,
1,449.0,13,phase_2,purple_triangle,go,,,,go-2,1,,,,,,
1,389.0,13,phase_2,green_rhombus,go,,,,go-1,1,,,,,,
1,354.0,13,phase_2,green_rhombus,stop,blue,150.0,tracking-SSD,go-1,3,,,,,,
0,0,13,phase_2,purple_rhombus,stop,red,0.0,0-SSD,go-2,4,,,,,,
1,303.0,13,phase_2,green_triangle,stop,blue,100.0,tracking-SSD,go-1,3,,,,,,
1,402.0,13,phase_2,purple_pentagon,go,,,,go-2,2,,,,,,
2,365.0,13,phase_2,green_circle,go,,,,go-1,1,,,,,,
2,374.0,13,phase_2,green_pentagon,go,,,,go-1,1,,,,,,
1,440.0,13,phase_2,green_rhombus,go,,,,go-1,1,,,,,,
0,0,14,phase_2,green_pentagon,stop,red,0.0,0-SSD,go-1,4,,,,,,
0,0,14,phase_2,purple_triangle,stop,red,0.0,0-SSD,go-2,4,,,,,,
0,0,14,phase_2,purple_circle,go,,,,go-2,2,,,,,,
0,0,14,phase_2,green_rhombus,stop,blue,50.0,tracking-SSD,go-1,4,,,,,,
0,0,14,phase_2,green_pentagon,go,,,,go-1,2,,,,,,
0,0,14,phase_2,purple_circle,go,,,,go-2,2,,,,,,
1,495.0,14,phase_2,purple_triangle,go,,,,go-2,1,,,,,,
0,0,14,phase_2,purple_pentagon,stop,blue,100.0,tracking-SSD,go-2,4,,,,,,
0,0,14,phase_2,green_circle,go,,,,go-1,2,,,,,,
0,0,14,phase_2,green_pentagon,stop,blue,150.0,tracking-SSD,go-1,4,,,,,,
1,373.0,14,phase_2,purple_circle,stop,blue,200.0,tracking-SSD,go-2,3,,,,,,
1,415.0,14,phase_2,purple_triangle,go,,,,go-2,1,,,,,,
1,424.0,14,phase_2,purple_rhombus,go,,,,go-2,1,,,,,,
0,0,14,phase_2,purple_rhombus,stop,red,0.0,0-SSD,go-2,4,,,,,,
0,0,14,phase_2,purple_pentagon,stop,red,0.0,0-SSD,go-2,4,,,,,,
0,0,14,phase_2,green_triangle,go,,,,go-1,2,,,,,,
1,514.0,14,phase_2,green_triangle,go,,,,go-1,1,,,,,,
0,0,14,phase_2,purple_rhombus,go,,,,go-2,2,,,,,,
2,712.0,14,phase_2,purple_circle,go,,,,go-2,1,,,,,,
2,428.0,14,phase_2,green_circle,go,,,,go-1,1,,,,,,
1,414.0,14,phase_2,purple_pentagon,go,,,,go-2,2,,,,,,
0,0,14,phase_2,green_circle,stop,blue,150.0,tracking-SSD,go-1,4,,,,,,
0,0,14,phase_2,green_rhombus,stop,red,0.0,0-SSD,go-1,4,,,,,,
1,541.0,14,phase_2,purple_rhombus,go,,,,go-2,1,,,,,,
0,0,14,phase_2,purple_circle,stop,blue,200.0,tracking-SSD,go-2,4,,,,,,
1,447.0,14,phase_2,purple_triangle,go,,,,go-2,1,,,,,,
1,444.0,14,phase_2,green_triangle,go,,,,go-1,1,,,,,,
1,521.0,14,phase_2,green_rhombus,go,,,,go-1,1,,,,,,
1,406.0,14,phase_2,purple_rhombus,go,,,,go-2,1,,,,,,
0,0,14,phase_2,green_pentagon,stop,red,0.0,0-SSD,go-1,4,,,,,,
2,355.0,14,phase_2,green_pentagon,go,,,,go-1,1,,,,,,
1,487.0,14,phase_2,green_rhombus,go,,,,go-1,1,,,,,,
2,496.0,14,phase_2,green_circle,stop,blue,250.0,tracking-SSD,go-1,3,,,,,,
1,527.0,14,phase_2,green_rhombus,go,,,,go-1,1,,,,,,
1,457.0,14,phase_2,purple_triangle,go,,,,go-2,1,,,,,,
2,759.0,14,phase_2,green_pentagon,go,,,,go-1,1,,,,,,
0,0,14,phase_2,green_circle,stop,red,0.0,0-SSD,go-1,4,,,,,,
0,0,14,phase_2,purple_pentagon,stop,red,0.0,0-SSD,go-2,4,,,,,,
2,469.0,14,phase_2,green_circle,go,,,,go-1,1,,,,,,
1,410.0,14,phase_2,green_triangle,go,,,,go-1,1,,,,,,
2,464.0,14,phase_2,purple_pentagon,go,,,,go-2,1,,,,,,
2,405.0,14,phase_2,green_pentagon,go,,,,go-1,1,,,,,,
1,515.0,14,phase_2,purple_rhombus,go,,,,go-2,1,,,,,,
1,456.0,14,phase_2,green_triangle,go,,,,go-1,1,,,,,,
1,364.0,14,phase_2,purple_triangle,go,,,,go-2,1,,,,,,
1,508.0,14,phase_2,green_rhombus,go,,,,go-1,1,,,,,,
2,527.0,14,phase_2,purple_circle,stop,blue,200.0,tracking-SSD,go-2,3,,,,,,
1,402.0,14,phase_2,purple_triangle,go,,,,go-2,1,,,,,,
1,498.0,15,phase_2,green_triangle,go,,,,go-1,1,,,,,,
1,338.0,15,phase_2,purple_triangle,stop,blue,150.0,tracking-SSD,go-2,3,,,,,,
2,414.0,15,phase_2,purple_pentagon,go,,,,go-2,1,,,,,,
1,512.0,15,phase_2,green_triangle,go,,,,go-1,1,,,,,,
0,0,15,phase_2,green_triangle,stop,blue,100.0,tracking-SSD,go-1,4,,,,,,
2,418.0,15,phase_2,purple_circle,go,,,,go-2,1,,,,,,
0,0,15,phase_2,purple_pentagon,stop,red,0.0,0-SSD,go-2,4,,,,,,
2,424.0,15,phase_2,green_circle,go,,,,go-1,1,,,,,,
2,467.0,15,phase_2,green_pentagon,go,,,,go-1,1,,,,,,
1,407.0,15,phase_2,green_triangle,go,,,,go-1,1,,,,,,
1,462.0,15,phase_2,purple_rhombus,go,,,,go-2,1,,,,,,
1,436.0,15,phase_2,green_triangle,go,,,,go-1,1,,,,,,
1,433.0,15,phase_2,green_triangle,go,,,,go-1,1,,,,,,
2,489.0,15,phase_2,green_circle,go,,,,go-1,1,,,,,,
2,351.0,15,phase_2,green_circle,go,,,,go-1,1,,,,,,
2,383.0,15,phase_2,green_pentagon,go,,,,go-1,1,,,,,,
0,0,15,phase_2,purple_circle,stop,red,0.0,0-SSD,go-2,4,,,,,,
2,410.0,15,phase_2,green_circle,go,,,,go-1,1,,,,,,
2,386.0,15,phase_2,purple_triangle,go,,,,go-2,2,,,,,,
2,529.0,15,phase_2,purple_pentagon,go,,,,go-2,1,,,,,,
2,447.0,15,phase_2,green_pentagon,go,,,,go-1,1,,,,,,
0,0,15,phase_2,green_pentagon,stop,red,0.0,0-SSD,go-1,4,,,,,,
0,0,15,phase_2,purple_circle,stop,blue,150.0,tracking-SSD,go-2,4,,,,,,
1,507.0,15,phase_2,green_rhombus,stop,blue,200.0,tracking-SSD,go-1,3,,,,,,
0,0,15,phase_2,purple_triangle,stop,blue,150.0,tracking-SSD,go-2,4,,,,,,
0,0,15,phase_2,green_rhombus,stop,red,0.0,0-SSD,go-1,4,,,,,,
0,0,15,phase_2,green_triangle,stop,red,0.0,0-SSD,go-1,4,,,,,,
1,407.0,15,phase_2,purple_triangle,go,,,,go-2,1,,,,,,
0,0,15,phase_2,green_rhombus,stop,blue,200.0,tracking-SSD,go-1,4,,,,,,
2,505.0,15,phase_2,purple_circle,go,,,,go-2,1,,,,,,
2,581.0,15,phase_2,purple_pentagon,go,,,,go-2,1,,,,,,
1,489.0,15,phase_2,purple_triangle,go,,,,go-2,1,,,,,,
1,589.0,15,phase_2,purple_rhombus,go,,,,go-2,1,,,,,,
0,0,15,phase_2,green_pentagon,stop,red,0.0,0-SSD,go-1,4,,,,,,
2,414.0,15,phase_2,green_pentagon,go,,,,go-1,1,,,,,,
1,423.0,15,phase_2,purple_circle,stop,blue,250.0,tracking-SSD,go-2,3,,,,,,
1,499.0,15,phase_2,green_rhombus,go,,,,go-1,1,,,,,,
1,407.0,15,phase_2,purple_circle,go,,,,go-2,2,,,,,,
2,495.0,15,phase_2,purple_pentagon,go,,,,go-2,1,,,,,,
1,627.0,15,phase_2,purple_rhombus,go,,,,go-2,1,,,,,,
1,467.0,15,phase_2,green_rhombus,go,,,,go-1,1,,,,,,
0,0,15,phase_2,purple_rhombus,stop,red,0.0,0-SSD,go-2,4,,,,,,
2,429.0,15,phase_2,purple_circle,go,,,,go-2,1,,,,,,
2,583.0,15,phase_2,green_pentagon,go,,,,go-1,1,,,,,,
0,0,15,phase_2,purple_rhombus,stop,red,0.0,0-SSD,go-2,4,,,,,,
1,566.0,15,phase_2,purple_rhombus,go,,,,go-2,1,,,,,,
1,440.0,15,phase_2,purple_rhombus,go,,,,go-2,1,,,,,,
2,495.0,15,phase_2,green_circle,stop,blue,200.0,tracking-SSD,go-1,3,,,,,,
1,544.0,16,phase_2,green_triangle,go,,,,go-1,1,,,,,,
2,485.0,16,phase_2,green_pentagon,go,,,,go-1,1,,,,,,
2,539.0,16,phase_2,purple_circle,go,,,,go-2,1,,,,,,
2,368.0,16,phase_2,purple_pentagon,go,,,,go-2,1,,,,,,
1,511.0,16,phase_2,green_rhombus,go,,,,go-1,1,,,,,,
1,476.0,16,phase_2,green_triangle,go,,,,go-1,1,,,,,,
0,0,16,phase_2,green_rhombus,stop,red,0.0,0-SSD,go-1,4,,,,,,
1,516.0,16,phase_2,purple_rhombus,stop,blue,150.0,tracking-SSD,go-2,3,,,,,,
0,0,16,phase_2,purple_pentagon,stop,red,0.0,0-SSD,go-2,4,,,,,,
0,0,16,phase_2,green_pentagon,stop,red,0.0,0-SSD,go-1,4,,,,,,
2,473.0,16,phase_2,purple_circle,go,,,,go-2,1,,,,,,
1,438.0,16,phase_2,green_rhombus,go,,,,go-1,1,,,,,,
1,537.0,16,phase_2,purple_triangle,go,,,,go-2,1,,,,,,
0,0,16,phase_2,purple_pentagon,stop,blue,100.0,tracking-SSD,go-2,4,,,,,,
1,542.0,16,phase_2,green_rhombus,go,,,,go-1,1,,,,,,
2,506.0,16,phase_2,green_circle,go,,,,go-1,1,,,,,,
0,0,16,phase_2,purple_pentagon,stop,red,0.0,0-SSD,go-2,4,,,,,,
2,445.0,16,phase_2,purple_pentagon,go,,,,go-2,1,,,,,,
2,566.0,16,phase_2,purple_pentagon,go,,,,go-2,1,,,,,,
1,597.0,16,phase_2,green_rhombus,go,,,,go-1,1,,,,,,
0,0,16,phase_2,purple_triangle,stop,red,0.0,0-SSD,go-2,4,,,,,,
2,355.0,16,phase_2,purple_circle,go,,,,go-2,1,,,,,,
2,422.0,16,phase_2,green_pentagon,go,,,,go-1,1,,,,,,
0,0,16,phase_2,green_circle,stop,red,0.0,0-SSD,go-1,4,,,,,,
1,506.0,16,phase_2,green_rhombus,go,,,,go-1,1,,,,,,
0,0,16,phase_2,purple_triangle,stop,blue,150.0,tracking-SSD,go-2,4,,,,,,
2,390.0,16,phase_2,green_circle,stop,blue,200.0,tracking-SSD,go-1,3,,,,,,
0,0,16,phase_2,green_triangle,stop,blue,150.0,tracking-SSD,go-1,4,,,,,,
1,417.0,16,phase_2,green_pentagon,go,,,,go-1,2,,,,,,
1,504.0,16,phase_2,green_triangle,go,,,,go-1,1,,,,,,
1,457.0,16,phase_2,purple_triangle,go,,,,go-2,1,,,,,,
1,634.0,16,phase_2,purple_rhombus,go,,,,go-2,1,,,,,,
2,597.0,16,phase_2,green_pentagon,stop,blue,200.0,tracking-SSD,go-1,3,,,,,,
1,484.0,16,phase_2,purple_rhombus,go,,,,go-2,1,,,,,,
2,503.0,16,phase_2,purple_pentagon,go,,,,go-2,1,,,,,,
1,557.0,16,phase_2,purple_triangle,go,,,,go-2,1,,,,,,
1,475.0,16,phase_2,green_triangle,go,,,,go-1,1,,,,,,
0,0,16,phase_2,purple_circle,stop,blue,150.0,tracking-SSD,go-2,4,,,,,,
0,0,16,phase_2,green_rhombus,stop,red,0.0,0-SSD,go-1,4,,,,,,
2,525.0,16,phase_2,purple_circle,go,,,,go-2,1,,,,,,
1,420.0,16,phase_2,green_triangle,go,,,,go-1,1,,,,,,
2,487.0,16,phase_2,green_circle,go,,,,go-1,1,,,,,,
0,0,16,phase_2,purple_circle,stop,red,0.0,0-SSD,go-2,4,,,,,,
1,447.0,16,phase_2,green_triangle,stop,blue,200.0,tracking-SSD,go-1,3,,,,,,
2,399.0,16,phase_2,purple_circle,go,,,,go-2,1,,,,,,
1,430.0,16,phase_2,green_rhombus,go,,,,go-1,1,,,,,,
1,708.0,16,phase_2,purple_rhombus,go,,,,go-2,1,,,,,,
2,582.0,16,phase_2,purple_circle,go,,,,go-2,1,,,,,,
2,476.0,17,phase_2,green_circle,go,,,,go-1,1,,,,,,
1,508.0,17,phase_2,green_rhombus,go,,,,go-1,1,,,,,,
2,393.0,17,phase_2,purple_circle,go,,,,go-2,1,,,,,,
2,414.0,17,phase_2,purple_circle,go,,,,go-2,1,,,,,,
2,366.0,17,phase_2,purple_circle,go,,,,go-2,1,,,,,,
1,419.0,17,phase_2,green_triangle,go,,,,go-1,1,,,,,,
1,417.0,17,phase_2,purple_rhombus,go,,,,go-2,1,,,,,,
2,414.0,17,phase_2,purple_pentagon,go,,,,go-2,1,,,,,,
1,390.0,17,phase_2,purple_triangle,go,,,,go-2,1,,,,,,
1,432.0,17,phase_2,green_triangle,go,,,,go-1,1,,,,,,
2,451.0,17,phase_2,purple_pentagon,go,,,,go-2,1,,,,,,
2,561.0,17,phase_2,green_circle,stop,blue,150.0,tracking-SSD,go-1,3,,,,,,
2,401.0,17,phase_2,green_circle,go,,,,go-1,1,,,,,,
0,0,17,phase_2,purple_circle,stop,blue,100.0,tracking-SSD,go-2,4,,,,,,
0,0,17,phase_2,green_triangle,stop,blue,150.0,tracking-SSD,go-1,4,,,,,,
1,597.0,17,phase_2,purple_rhombus,go,,,,go-2,1,,,,,,
0,0,17,phase_2,purple_rhombus,stop,red,0.0,0-SSD,go-2,4,,,,,,
0,0,17,phase_2,green_circle,stop,blue,200.0,tracking-SSD,go-1,4,,,,,,
0,0,17,phase_2,green_rhombus,stop,blue,250.0,tracking-SSD,go-1,4,,,,,,
2,509.0,17,phase_2,purple_pentagon,stop,blue,300.0,tracking-SSD,go-2,3,,,,,,
2,505.0,17,phase_2,purple_circle,go,,,,go-2,1,,,,,,
0,0,17,phase_2,green_pentagon,stop,red,0.0,0-SSD,go-1,4,,,,,,
0,0,17,phase_2,purple_rhombus,stop,red,0.0,0-SSD,go-2,4,,,,,,
0,0,17,phase_2,green_pentagon,stop,red,0.0,0-SSD,go-1,4,,,,,,
2,675.0,17,phase_2,green_pentagon,go,,,,go-1,1,,,,,,
2,414.0,17,phase_2,purple_pentagon,stop,blue,250.0,tracking-SSD,go-2,3,,,,,,
1,456.0,17,phase_2,green_triangle,go,,,,go-1,1,,,,,,
1,498.0,17,phase_2,green_rhombus,go,,,,go-1,1,,,,,,
0,0,17,phase_2,green_pentagon,stop,red,0.0,0-SSD,go-1,4,,,,,,
1,584.0,17,phase_2,purple_rhombus,go,,,,go-2,1,,,,,,
0,0,17,phase_2,purple_triangle,stop,red,0.0,0-SSD,go-2,4,,,,,,
0,0,17,phase_2,green_rhombus,stop,red,0.0,0-SSD,go-1,4,,,,,,
1,555.0,17,phase_2,purple_triangle,go,,,,go-2,1,,,,,,
1,528.0,17,phase_2,purple_rhombus,go,,,,go-2,1,,,,,,
2,401.0,17,phase_2,green_circle,go,,,,go-1,1,,,,,,
2,433.0,17,phase_2,purple_pentagon,go,,,,go-2,1,,,,,,
2,487.0,17,phase_2,green_circle,go,,,,go-1,1,,,,,,
1,496.0,17,phase_2,green_rhombus,go,,,,go-1,1,,,,,,
1,481.0,17,phase_2,green_triangle,go,,,,go-1,1,,,,,,
0,0,17,phase_2,purple_triangle,stop,red,0.0,0-SSD,go-2,4,,,,,,
1,545.0,17,phase_2,purple_triangle,go,,,,go-2,1,,,,,,
0,0,17,phase_2,purple_triangle,stop,blue,200.0,tracking-SSD,go-2,4,,,,,,
1,451.0,17,phase_2,green_rhombus,go,,,,go-1,1,,,,,,
2,650.0,17,phase_2,purple_pentagon,go,,,,go-2,1,,,,,,
1,445.0,17,phase_2,green_triangle,go,,,,go-1,1,,,,,,
2,577.0,17,phase_2,purple_circle,go,,,,go-2,1,,,,,,
2,675.0,17,phase_2,green_pentagon,go,,,,go-1,1,,,,,,
2,392.0,17,phase_2,green_pentagon,go,,,,go-1,1,,,,,,
,599.0,1,phase_3,,,,,,,,purple_square,go-2,green_square,go-1,purple_square,go-2
,1056.0,1,phase_3,,,,,,,,purple_square,go-2,purple_square,go-2,blue_square,tracking-SSD
,804.0,1,phase_3,,,,,,,,blue_square,tracking-SSD,green_square,go-1,blue_square,tracking-SSD
,924.0,1,phase_3,,,,,,,,red_square,0-SSD,green_square,go-1,red_square,0-SSD
,976.0,1,phase_3,,,,,,,,red_square,0-SSD,purple_square,go-2,red_square,0-SSD
,894.0,1,phase_3,,,,,,,,red_square,0-SSD,red_square,0-SSD,blue_square,tracking-SSD
,664.0,1,phase_3,,,,,,,,purple_square,go-2,red_square,0-SSD,purple_square,go-2
,737.0,1,phase_3,,,,,,,,purple_square,go-2,purple_square,go-2,green_square,go-1
,722.0,1,phase_3,,,,,,,,blue_square,tracking-SSD,blue_square,tracking-SSD,red_square,0-SSD
,448.0,1,phase_3,,,,,,,,red_square,0-SSD,red_square,0-SSD,green_square,go-1
,556.0,1,phase_3,,,,,,,,blue_square,tracking-SSD,blue_square,tracking-SSD,green_square,go-1
,945.0,1,phase_3,,,,,,,,blue_square,tracking-SSD,blue_square,tracking-SSD,purple_square,go-2
,611.0,2,phase_3,,,,,,,,red_square,0-SSD,green_square,go-1,red_square,0-SSD
,752.0,2,phase_3,,,,,,,,blue_square,tracking-SSD,green_square,go-1,blue_square,tracking-SSD
,680.0,2,phase_3,,,,,,,,red_square,0-SSD,purple_square,go-2,red_square,0-SSD
,551.0,2,phase_3,,,,,,,,purple_square,go-2,green_square,go-1,purple_square,go-2
,918.0,2,phase_3,,,,,,,,blue_square,tracking-SSD,red_square,0-SSD,blue_square,tracking-SSD
,633.0,2,phase_3,,,,,,,,blue_square,tracking-SSD,purple_square,go-2,blue_square,tracking-SSD
,583.0,2,phase_3,,,,,,,,blue_square,tracking-SSD,blue_square,tracking-SSD,purple_square,go-2
,1131.0,2,phase_3,,,,,,,,blue_square,tracking-SSD,blue_square,tracking-SSD,red_square,0-SSD
,519.0,2,phase_3,,,,,,,,red_square,0-SSD,red_square,0-SSD,green_square,go-1
,717.0,2,phase_3,,,,,,,,blue_square,tracking-SSD,blue_square,tracking-SSD,green_square,go-1
,645.0,2,phase_3,,,,,,,,red_square,0-SSD,red_square,0-SSD,purple_square,go-2
,573.0,2,phase_3,,,,,,,,purple_square,go-2,purple_square,go-2,green_square,go-1
,566.0,3,phase_3,,,,,,,,purple_square,go-2,green_square,go-1,purple_square,go-2
,516.0,3,phase_3,,,,,,,,red_square,0-SSD,red_square,0-SSD,blue_square,tracking-SSD
,512.0,3,phase_3,,,,,,,,blue_square,tracking-SSD,green_square,go-1,blue_square,tracking-SSD
,586.0,3,phase_3,,,,,,,,blue_square,tracking-SSD,purple_square,go-2,blue_square,tracking-SSD
,436.0,3,phase_3,,,,,,,,red_square,0-SSD,green_square,go-1,red_square,0-SSD
,522.0,3,phase_3,,,,,,,,purple_square,go-2,purple_square,go-2,red_square,0-SSD
,675.0,3,phase_3,,,,,,,,blue_square,tracking-SSD,blue_square,tracking-SSD,red_square,0-SSD
,524.0,3,phase_3,,,,,,,,purple_square,go-2,red_square,0-SSD,purple_square,go-2
,656.0,3,phase_3,,,,,,,,red_square,0-SSD,red_square,0-SSD,green_square,go-1
,458.0,3,phase_3,,,,,,,,green_square,go-1,purple_square,go-2,green_square,go-1
,612.0,3,phase_3,,,,,,,,blue_square,tracking-SSD,blue_square,tracking-SSD,green_square,go-1
,664.0,3,phase_3,,,,,,,,blue_square,tracking-SSD,blue_square,tracking-SSD,purple_square,go-2
,689.0,4,phase_3,,,,,,,,green_square,go-1,green_square,go-1,blue_square,tracking-SSD
,494.0,4,phase_3,,,,,,,,blue_square,tracking-SSD,red_square,0-SSD,blue_square,tracking-SSD
,1019.0,4,phase_3,,,,,,,,red_square,0-SSD,green_square,go-1,red_square,0-SSD
,653.0,4,phase_3,,,,,,,,purple_square,go-2,purple_square,go-2,red_square,0-SSD
,604.0,4,phase_3,,,,,,,,blue_square,tracking-SSD,purple_square,go-2,blue_square,tracking-SSD
,522.0,4,phase_3,,,,,,,,green_square,go-1,green_square,go-1,purple_square,go-2
,753.0,4,phase_3,,,,,,,,red_square,0-SSD,red_square,0-SSD,purple_square,go-2
,557.0,4,phase_3,,,,,,,,blue_square,tracking-SSD,blue_square,tracking-SSD,red_square,0-SSD
,430.0,4,phase_3,,,,,,,,green_square,go-1,blue_square,tracking-SSD,green_square,go-1
,572.0,4,phase_3,,,,,,,,green_square,go-1,red_square,0-SSD,green_square,go-1
,759.0,4,phase_3,,,,,,,,green_square,go-1,purple_square,go-2,green_square,go-1
,326.0,4,phase_3,,,,,,,,blue_square,tracking-SSD,blue_square,tracking-SSD,purple_square,go-2
,723.0,5,phase_3,,,,,,,,blue_square,tracking-SSD,green_square,go-1,blue_square,tracking-SSD
,427.0,5,phase_3,,,,,,,,blue_square,tracking-SSD,red_square,0-SSD,blue_square,tracking-SSD
,1075.0,5,phase_3,,,,,,,,red_square,0-SSD,purple_square,go-2,red_square,0-SSD
,597.0,5,phase_3,,,,,,,,green_square,go-1,green_square,go-1,red_square,0-SSD
,571.0,5,phase_3,,,,,,,,purple_square,go-2,green_square,go-1,purple_square,go-2
,601.0,5,phase_3,,,,,,,,purple_square,go-2,purple_square,go-2,blue_square,tracking-SSD
,855.0,5,phase_3,,,,,,,,blue_square,tracking-SSD,blue_square,tracking-SSD,green_square,go-1
,727.0,5,phase_3,,,,,,,,red_square,0-SSD,red_square,0-SSD,purple_square,go-2
,1285.0,5,phase_3,,,,,,,,purple_square,go-2,purple_square,go-2,green_square,go-1
,695.0,5,phase_3,,,,,,,,blue_square,tracking-SSD,blue_square,tracking-SSD,purple_square,go-2
,499.0,5,phase_3,,,,,,,,blue_square,tracking-SSD,blue_square,tracking-SSD,red_square,0-SSD
,1092.0,5,phase_3,,,,,,,,green_square,go-1,red_square,0-SSD,green_square,go-1
