response,reaction_time,block,which_phase,stim,stop_signal_trial_type,stop_signal_stimulus,SSD,SSD_type,condition,accuracy,chosen_stim,chosen_cond,stim_left,cond_left,stim_right,cond_right
2,488.0,1,phase_2,blue_circle,go,,,,go-1,1,,,,,,
2,441.0,1,phase_2,green_circle,go,,,,go-2,1,,,,,,
2,338.0,1,phase_2,blue_pentagon,go,,,,go-1,1,,,,,,
2,448.0,1,phase_2,green_rhombus,go,,,,go-2,2,,,,,,
2,593.0,1,phase_2,green_pentagon,stop,red,250.0,tracking-SSD,go-2,3,,,,,,
2,511.0,1,phase_2,blue_circle,go,,,,go-1,1,,,,,,
0,0,1,phase_2,green_pentagon,stop,purple,0.0,0-SSD,go-2,4,,,,,,
2,508.0,1,phase_2,blue_circle,go,,,,go-1,1,,,,,,
0,0,1,phase_2,blue_circle,stop,purple,0.0,0-SSD,go-1,4,,,,,,
0,0,1,phase_2,green_circle,stop,purple,0.0,0-SSD,go-2,4,,,,,,
1,477.0,1,phase_2,blue_triangle,go,,,,go-1,1,,,,,,
0,0,1,phase_2,green_triangle,stop,purple,0.0,0-SSD,go-2,4,,,,,,
1,394.0,1,phase_2,green_triangle,go,,,,go-2,1,,,,,,
2,854.0,1,phase_2,green_pentagon,go,,,,go-2,1,,,,,,
2,423.0,1,phase_2,green_pentagon,go,,,,go-2,1,,,,,,
2,409.0,1,phase_2,blue_rhombus,go,,,,go-1,2,,,,,,
0,0,1,phase_2,green_rhombus,stop,purple,0.0,0-SSD,go-2,4,,,,,,
2,575.0,1,phase_2,blue_circle,go,,,,go-1,1,,,,,,
1,775.0,1,phase_2,green_triangle,go,,,,go-2,1,,,,,,
0,0,1,phase_2,blue_circle,stop,red,200.0,tracking-SSD,go-1,4,,,,,,
2,545.0,1,phase_2,blue_pentagon,go,,,,go-1,1,,,,,,
2,475.0,1,phase_2,green_circle,stop,red,250.0,tracking-SSD,go-2,3,,,,,,
0,0,1,phase_2,blue_triangle,stop,purple,0.0,0-SSD,go-1,4,,,,,,
0,0,1,phase_2,blue_triangle,stop,purple,0.0,0-SSD,go-1,4,,,,,,
0,0,1,phase_2,green_rhombus,stop,red,200.0,tracking-SSD,go-2,4,,,,,,
1,633.0,1,phase_2,green_rhombus,go,,,,go-2,1,,,,,,
1,362.0,1,phase_2,blue_rhombus,stop,red,250.0,tracking-SSD,go-1,3,,,,,,
0,0,1,phase_2,blue_rhombus,stop,red,200.0,tracking-SSD,go-1,4,,,,,,
1,480.0,1,phase_2,green_rhombus,go,,,,go-2,1,,,,,,
1,466.0,1,phase_2,green_rhombus,go,,,,go-2,1,,,,,,
1,342.0,1,phase_2,green_triangle,go,,,,go-2,1,,,,,,
1,419.0,1,phase_2,green_rhombus,go,,,,go-2,1,,,,,,
1,506.0,1,phase_2,blue_pentagon,go,,,,go-1,2,,,,,,
2,469.0,1,phase_2,blue_pentagon,go,,,,go-1,1,,,,,,
2,423.0,1,phase_2,green_pentagon,go,,,,go-2,1,,,,,,
1,477.0,1,phase_2,blue_triangle,go,,,,go-1,1,,,,,,
2,384.0,1,phase_2,blue_pentagon,go,,,,go-1,1,,,,,,
0,0,1,phase_2,blue_rhombus,stop,purple,0.0,0-SSD,go-1,4,,,,,,
2,425.0,1,phase_2,blue_pentagon,go,,,,go-1,1,,,,,,
2,569.0,1,phase_2,blue_circle,go,,,,go-1,1,,,,,,
1,410.0,1,phase_2,green_triangle,go,,,,go-2,1,,,,,,
1,587.0,1,phase_2,green_rhombus,go,,,,go-2,1,,,,,,
2,450.0,1,phase_2,green_pentagon,go,,,,go-2,1,,,,,,
2,414.0,1,phase_2,blue_circle,stop,red,250.0,tracking-SSD,go-1,3,,,,,,
2,345.0,1,phase_2,blue_circle,go,,,,go-1,1,,,,,,
1,489.0,1,phase_2,green_triangle,go,,,,go-2,1,,,,,,
1,453.0,1,phase_2,blue_triangle,go,,,,go-1,1,,,,,,
1,418.0,1,phase_2,green_triangle,stop,red,200.0,tracking-SSD,go-2,3,,,,,,
1,757.0,2,phase_2,blue_rhombus,go,,,,go-1,1,,,,,,
0,0,2,phase_2,green_pentagon,stop,purple,0.0,0-SSD,go-2,4,,,,,,
2,1034.0,2,phase_2,blue_pentagon,go,,,,go-1,1,,,,,,
1,514.0,2,phase_2,blue_triangle,go,,,,go-1,1,,,,,,
0,0,2,phase_2,blue_triangle,stop,purple,0.0,0-SSD,go-1,4,,,,,,
0,0,2,phase_2,green_circle,stop,red,150.0,tracking-SSD,go-2,4,,,,,,
2,530.0,2,phase_2,green_circle,go,,,,go-2,1,,,,,,
2,415.0,2,phase_2,blue_circle,go,,,,go-1,1,,,,,,
2,603.0,2,phase_2,green_pentagon,go,,,,go-2,1,,,,,,
1,500.0,2,phase_2,green_triangle,go,,,,go-2,1,,,,,,
1,611.0,2,phase_2,green_rhombus,go,,,,go-2,1,,,,,,
0,0,2,phase_2,blue_pentagon,stop,red,200.0,tracking-SSD,go-1,4,,,,,,
1,989.0,2,phase_2,blue_triangle,go,,,,go-1,1,,,,,,
2,413.0,2,phase_2,blue_circle,go,,,,go-1,1,,,,,,
2,839.0,2,phase_2,green_pentagon,go,,,,go-2,1,,,,,,
2,554.0,2,phase_2,blue_circle,go,,,,go-1,1,,,,,,
1,710.0,2,phase_2,green_rhombus,go,,,,go-2,1,,,,,,
2,473.0,2,phase_2,green_circle,go,,,,go-2,1,,,,,,
0,0,2,phase_2,blue_rhombus,stop,red,250.0,tracking-SSD,go-1,4,,,,,,
0,0,2,phase_2,blue_rhombus,stop,purple,0.0,0-SSD,go-1,4,,,,,,
0,0,2,phase_2,blue_rhombus,stop,purple,0.0,0-SSD,go-1,4,,,,,,
2,496.0,2,phase_2,green_circle,go,,,,go-2,1,,,,,,
1,641.0,2,phase_2,green_rhombus,go,,,,go-2,1,,,,,,
1,525.0,2,phase_2,blue_triangle,go,,,,go-1,1,,,,,,
1,400.0,2,phase_2,green_triangle,go,,,,go-2,1,,,,,,
1,567.0,2,phase_2,blue_triangle,go,,,,go-1,1,,,,,,
1,475.0,2,phase_2,blue_triangle,go,,,,go-1,1,,,,,,
2,474.0,2,phase_2,green_circle,go,,,,go-2,1,,,,,,
1,585.0,2,phase_2,green_triangle,stop,red,300.0,tracking-SSD,go-2,3,,,,,,
1,819.0,2,phase_2,blue_rhombus,go,,,,go-1,1,,,,,,
0,0,2,phase_2,blue_pentagon,stop,red,250.0,tracking-SSD,go-1,4,,,,,,
1,657.0,2,phase_2,green_rhombus,go,,,,go-2,1,,,,,,
2,587.0,2,phase_2,green_pentagon,go,,,,go-2,1,,,,,,
1,494.0,2,phase_2,blue_triangle,go,,,,go-1,1,,,,,,
0,0,2,phase_2,blue_pentagon,stop,purple,0.0,0-SSD,go-1,4,,,,,,
2,422.0,2,phase_2,green_circle,go,,,,go-2,1,,,,,,
1,464.0,2,phase_2,blue_triangle,go,,,,go-1,1,,,,,,
0,0,2,phase_2,green_pentagon,stop,purple,0.0,0-SSD,go-2,4,,,,,,
1,481.0,2,phase_2,green_rhombus,stop,red,300.0,tracking-SSD,go-2,3,,,,,,
0,0,2,phase_2,green_pentagon,stop,purple,0.0,0-SSD,go-2,4,,,,,,
0,0,2,phase_2,green_triangle,stop,purple,0.0,0-SSD,go-2,4,,,,,,
2,566.0,2,phase_2,green_circle,go,,,,go-2,1,,,,,,
0,0,2,phase_2,blue_rhombus,stop,red,250.0,tracking-SSD,go-1,4,,,,,,
1,855.0,2,phase_2,green_rhombus,go,,,,go-2,1,,,,,,
2,471.0,2,phase_2,blue_pentagon,go,,,,go-1,1,,,,,,
2,402.0,2,phase_2,blue_circle,go,,,,go-1,1,,,,,,
2,568.0,2,phase_2,blue_pentagon,go,,,,go-1,1,,,,,,
2,497.0,2,phase_2,green_circle,stop,red,300.0,tracking-SSD,go-2,3,,,,,,
2,419.0,3,phase_2,green_rhombus,stop,red,250.0,tracking-SSD,go-2,3,,,,,,
1,575.0,3,phase_2,green_triangle,go,,,,go-2,1,,,,,,
0,0,3,phase_2,green_rhombus,stop,purple,0.0,0-SSD,go-2,4,,,,,,
0,0,3,phase_2,blue_rhombus,stop,purple,0.0,0-SSD,go-1,4,,,,,,
0,0,3,phase_2,green_circle,stop,red,200.0,tracking-SSD,go-2,4,,,,,,
1,487.0,3,phase_2,green_triangle,go,,,,go-2,1,,,,,,
2,362.0,3,phase_2,blue_circle,go,,,,go-1,1,,,,,,
0,0,3,phase_2,green_circle,stop,purple,0.0,0-SSD,go-2,4,,,,,,
2,504.0,3,phase_2,green_pentagon,go,,,,go-2,1,,,,,,
1,603.0,3,phase_2,blue_rhombus,go,,,,go-1,1,,,,,,
2,365.0,3,phase_2,green_circle,go,,,,go-2,1,,,,,,
2,453.0,3,phase_2,blue_pentagon,go,,,,go-1,1,,,,,,
0,0,3,phase_2,green_circle,stop,purple,0.0,0-SSD,go-2,4,,,,,,
2,573.0,3,phase_2,blue_pentagon,go,,,,go-1,1,,,,,,
2,502.0,3,phase_2,blue_circle,go,,,,go-1,1,,,,,,
2,367.0,3,phase_2,green_circle,go,,,,go-2,1,,,,,,
0,0,3,phase_2,blue_circle,stop,purple,0.0,0-SSD,go-1,4,,,,,,
1,577.0,3,phase_2,green_rhombus,go,,,,go-2,1,,,,,,
1,507.0,3,phase_2,green_triangle,go,,,,go-2,1,,,,,,
1,515.0,3,phase_2,blue_triangle,go,,,,go-1,1,,,,,,
1,357.0,3,phase_2,blue_triangle,stop,red,250.0,tracking-SSD,go-1,3,,,,,,
1,524.0,3,phase_2,blue_rhombus,go,,,,go-1,1,,,,,,
2,511.0,3,phase_2,blue_pentagon,go,,,,go-1,1,,,,,,
2,296.0,3,phase_2,blue_circle,stop,red,200.0,tracking-SSD,go-1,3,,,,,,
2,552.0,3,phase_2,green_pentagon,go,,,,go-2,1,,,,,,
1,686.0,3,phase_2,blue_rhombus,go,,,,go-1,1,,,,,,
2,526.0,3,phase_2,green_pentagon,go,,,,go-2,1,,,,,,
2,454.0,3,phase_2,green_pentagon,go,,,,go-2,1,,,,,,
2,441.0,3,phase_2,blue_pentagon,go,,,,go-1,1,,,,,,
1,450.0,3,phase_2,green_triangle,go,,,,go-2,1,,,,,,
2,504.0,3,phase_2,blue_pentagon,go,,,,go-1,1,,,,,,
0,0,3,phase_2,green_circle,stop,red,150.0,tracking-SSD,go-2,4,,,,,,
0,0,3,phase_2,green_rhombus,stop,red,200.0,tracking-SSD,go-2,4,,,,,,
1,935.0,3,phase_2,blue_rhombus,go,,,,go-1,1,,,,,,
1,415.0,3,phase_2,blue_rhombus,go,,,,go-1,1,,,,,,
2,435.0,3,phase_2,blue_circle,go,,,,go-1,1,,,,,,
1,420.0,3,phase_2,blue_triangle,go,,,,go-1,1,,,,,,
0,0,3,phase_2,blue_triangle,stop,purple,0.0,0-SSD,go-1,4,,,,,,
0,0,3,phase_2,green_pentagon,stop,purple,0.0,0-SSD,go-2,4,,,,,,
1,503.0,3,phase_2,blue_triangle,go,,,,go-1,1,,,,,,
2,467.0,3,phase_2,blue_circle,stop,red,250.0,tracking-SSD,go-1,3,,,,,,
0,0,3,phase_2,blue_pentagon,stop,purple,0.0,0-SSD,go-1,4,,,,,,
1,406.0,3,phase_2,green_triangle,go,,,,go-2,1,,,,,,
1,538.0,3,phase_2,green_rhombus,go,,,,go-2,1,,,,,,
2,401.0,3,phase_2,green_pentagon,go,,,,go-2,1,,,,,,
1,466.0,3,phase_2,blue_triangle,stop,red,200.0,tracking-SSD,go-1,3,,,,,,
1,386.0,3,phase_2,green_triangle,go,,,,go-2,1,,,,,,
1,553.0,3,phase_2,green_rhombus,go,,,,go-2,1,,,,,,
0,0,4,phase_2,blue_rhombus,stop,purple,0.0,0-SSD,go-1,4,,,,,,
2,385.0,4,phase_2,blue_pentagon,go,,,,go-1,1,,,,,,
2,339.0,4,phase_2,green_circle,stop,red,150.0,tracking-SSD,go-2,3,,,,,,
1,461.0,4,phase_2,green_triangle,go,,,,go-2,1,,,,,,
2,583.0,4,phase_2,blue_pentagon,go,,,,go-1,1,,,,,,
0,0,4,phase_2,green_circle,stop,purple,0.0,0-SSD,go-2,4,,,,,,
1,501.0,4,phase_2,green_rhombus,go,,,,go-2,1,,,,,,
1,363.0,4,phase_2,green_rhombus,go,,,,go-2,1,,,,,,
0,0,4,phase_2,green_pentagon,stop,purple,0.0,0-SSD,go-2,4,,,,,,
2,460.0,4,phase_2,blue_circle,go,,,,go-1,1,,,,,,
1,582.0,4,phase_2,blue_rhombus,go,,,,go-1,1,,,,,,
2,411.0,4,phase_2,green_pentagon,go,,,,go-2,1,,,,,,
1,556.0,4,phase_2,blue_triangle,go,,,,go-1,1,,,,,,
2,295.0,4,phase_2,green_circle,go,,,,go-2,1,,,,,,
1,249.0,4,phase_2,green_triangle,go,,,,go-2,1,,,,,,
2,246.0,4,phase_2,blue_circle,stop,red,100.0,tracking-SSD,go-1,3,,,,,,
1,243.0,4,phase_2,blue_circle,go,,,,go-1,2,,,,,,
0,0,4,phase_2,green_circle,stop,purple,0.0,0-SSD,go-2,4,,,,,,
0,0,4,phase_2,green_pentagon,stop,red,50.0,tracking-SSD,go-2,4,,,,,,
1,575.0,4,phase_2,blue_rhombus,go,,,,go-1,1,,,,,,
2,280.0,4,phase_2,blue_pentagon,stop,red,100.0,tracking-SSD,go-1,3,,,,,,
0,0,4,phase_2,blue_pentagon,stop,red,50.0,tracking-SSD,go-1,4,,,,,,
1,488.0,4,phase_2,blue_triangle,go,,,,go-1,1,,,,,,
2,351.0,4,phase_2,green_pentagon,go,,,,go-2,1,,,,,,
2,383.0,4,phase_2,green_rhombus,go,,,,go-2,2,,,,,,
2,526.0,4,phase_2,blue_pentagon,go,,,,go-1,1,,,,,,
1,458.0,4,phase_2,green_triangle,go,,,,go-2,1,,,,,,
0,0,4,phase_2,green_pentagon,stop,red,100.0,tracking-SSD,go-2,4,,,,,,
2,510.0,4,phase_2,green_rhombus,go,,,,go-2,2,,,,,,
2,327.0,4,phase_2,blue_circle,go,,,,go-1,1,,,,,,
1,471.0,4,phase_2,green_rhombus,go,,,,go-2,1,,,,,,
1,468.0,4,phase_2,blue_rhombus,go,,,,go-1,1,,,,,,
0,0,4,phase_2,blue_triangle,stop,red,150.0,tracking-SSD,go-1,4,,,,,,
2,545.0,4,phase_2,green_pentagon,stop,red,200.0,tracking-SSD,go-2,3,,,,,,
0,0,4,phase_2,blue_triangle,stop,purple,0.0,0-SSD,go-1,4,,,,,,
0,0,4,phase_2,green_triangle,stop,purple,0.0,0-SSD,go-2,4,,,,,,
2,774.0,4,phase_2,blue_circle,go,,,,go-1,1,,,,,,
1,469.0,4,phase_2,green_pentagon,go,,,,go-2,2,,,,,,
1,513.0,4,phase_2,blue_rhombus,go,,,,go-1,1,,,,,,
2,465.0,4,phase_2,green_circle,go,,,,go-2,1,,,,,,
2,407.0,4,phase_2,green_circle,go,,,,go-2,1,,,,,,
1,462.0,4,phase_2,blue_triangle,go,,,,go-1,1,,,,,,
0,0,4,phase_2,blue_circle,stop,purple,0.0,0-SSD,go-1,4,,,,,,
1,468.0,4,phase_2,blue_triangle,go,,,,go-1,1,,,,,,
0,0,4,phase_2,blue_rhombus,stop,purple,0.0,0-SSD,go-1,4,,,,,,
1,499.0,4,phase_2,blue_triangle,go,,,,go-1,1,,,,,,
1,507.0,4,phase_2,green_triangle,go,,,,go-2,1,,,,,,
1,764.0,4,phase_2,green_rhombus,go,,,,go-2,1,,,,,,
2,613.0,5,phase_2,blue_pentagon,go,,,,go-1,1,,,,,,
0,0,5,phase_2,blue_pentagon,stop,purple,0.0,0-SSD,go-1,4,,,,,,
2,506.0,5,phase_2,green_circle,go,,,,go-2,1,,,,,,
1,931.0,5,phase_2,green_triangle,go,,,,go-2,1,,,,,,
2,503.0,5,phase_2,blue_rhombus,go,,,,go-1,2,,,,,,
2,545.0,5,phase_2,blue_circle,go,,,,go-1,1,,,,,,
1,587.0,5,phase_2,blue_rhombus,go,,,,go-1,1,,,,,,
0,0,5,phase_2,blue_triangle,stop,red,150.0,tracking-SSD,go-1,4,,,,,,
0,0,5,phase_2,blue_pentagon,stop,purple,0.0,0-SSD,go-1,4,,,,,,
2,671.0,5,phase_2,green_circle,go,,,,go-2,1,,,,,,
1,590.0,5,phase_2,green_triangle,go,,,,go-2,1,,,,,,
1,419.0,5,phase_2,green_rhombus,go,,,,go-2,1,,,,,,
2,619.0,5,phase_2,blue_triangle,go,,,,go-1,2,,,,,,
2,424.0,5,phase_2,green_triangle,go,,,,go-2,2,,,,,,
1,434.0,5,phase_2,green_triangle,go,,,,go-2,1,,,,,,
2,499.0,5,phase_2,green_circle,go,,,,go-2,1,,,,,,
1,475.0,5,phase_2,blue_triangle,go,,,,go-1,1,,,,,,
0,0,5,phase_2,green_rhombus,stop,purple,0.0,0-SSD,go-2,4,,,,,,
1,662.0,5,phase_2,blue_rhombus,go,,,,go-1,1,,,,,,
0,0,5,phase_2,green_pentagon,stop,purple,0.0,0-SSD,go-2,4,,,,,,
1,501.0,5,phase_2,blue_pentagon,go,,,,go-1,2,,,,,,
1,476.0,5,phase_2,blue_triangle,go,,,,go-1,1,,,,,,
2,451.0,5,phase_2,blue_circle,go,,,,go-1,1,,,,,,
1,809.0,5,phase_2,green_pentagon,go,,,,go-2,2,,,,,,
1,470.0,5,phase_2,green_triangle,go,,,,go-2,1,,,,,,
0,0,5,phase_2,green_rhombus,stop,red,200.0,tracking-SSD,go-2,4,,,,,,
2,409.0,5,phase_2,blue_circle,go,,,,go-1,1,,,,,,
1,317.0,5,phase_2,green_rhombus,go,,,,go-2,1,,,,,,
0,0,5,phase_2,blue_rhombus,stop,purple,0.0,0-SSD,go-1,4,,,,,,
2,502.0,5,phase_2,blue_pentagon,go,,,,go-1,1,,,,,,
2,423.0,5,phase_2,blue_circle,go,,,,go-1,1,,,,,,
2,421.0,5,phase_2,blue_circle,stop,red,250.0,tracking-SSD,go-1,3,,,,,,
2,418.0,5,phase_2,green_circle,go,,,,go-2,1,,,,,,
2,338.0,5,phase_2,green_rhombus,stop,red,200.0,tracking-SSD,go-2,3,,,,,,
0,0,5,phase_2,blue_pentagon,stop,red,150.0,tracking-SSD,go-1,4,,,,,,
2,479.0,5,phase_2,blue_pentagon,go,,,,go-1,1,,,,,,
0,0,5,phase_2,green_rhombus,stop,purple,0.0,0-SSD,go-2,4,,,,,,
0,0,5,phase_2,green_triangle,stop,red,200.0,tracking-SSD,go-2,4,,,,,,
1,303.0,5,phase_2,blue_triangle,stop,red,250.0,tracking-SSD,go-1,3,,,,,,
2,435.0,5,phase_2,green_pentagon,go,,,,go-2,1,,,,,,
2,579.0,5,phase_2,blue_pentagon,go,,,,go-1,1,,,,,,
1,464.0,5,phase_2,blue_triangle,go,,,,go-1,1,,,,,,
2,473.0,5,phase_2,green_circle,stop,red,200.0,tracking-SSD,go-2,3,,,,,,
1,549.0,5,phase_2,green_rhombus,go,,,,go-2,1,,,,,,
1,670.0,5,phase_2,green_rhombus,go,,,,go-2,1,,,,,,
0,0,5,phase_2,blue_circle,stop,purple,0.0,0-SSD,go-1,4,,,,,,
0,0,5,phase_2,green_pentagon,stop,purple,0.0,0-SSD,go-2,4,,,,,,
2,326.0,5,phase_2,green_circle,go,,,,go-2,1,,,,,,
2,364.0,6,phase_2,green_circle,go,,,,go-2,1,,,,,,
1,644.0,6,phase_2,blue_rhombus,go,,,,go-1,1,,,,,,
2,416.0,6,phase_2,green_circle,go,,,,go-2,1,,,,,,
0,0,6,phase_2,blue_pentagon,stop,purple,0.0,0-SSD,go-1,4,,,,,,
2,424.0,6,phase_2,green_circle,go,,,,go-2,1,,,,,,
2,320.0,6,phase_2,green_circle,go,,,,go-2,1,,,,,,
2,418.0,6,phase_2,green_triangle,go,,,,go-2,2,,,,,,
0,0,6,phase_2,blue_circle,stop,red,150.0,tracking-SSD,go-1,4,,,,,,
1,539.0,6,phase_2,green_rhombus,go,,,,go-2,1,,,,,,
0,0,6,phase_2,blue_rhombus,stop,purple,0.0,0-SSD,go-1,4,,,,,,
0,0,6,phase_2,blue_triangle,stop,purple,0.0,0-SSD,go-1,4,,,,,,
1,588.0,6,phase_2,green_triangle,stop,red,200.0,tracking-SSD,go-2,3,,,,,,
0,0,6,phase_2,green_triangle,stop,purple,0.0,0-SSD,go-2,4,,,,,,
0,0,6,phase_2,green_triangle,stop,purple,0.0,0-SSD,go-2,4,,,,,,
0,0,6,phase_2,blue_pentagon,stop,red,150.0,tracking-SSD,go-1,4,,,,,,
0,0,6,phase_2,blue_rhombus,stop,purple,0.0,0-SSD,go-1,4,,,,,,
0,0,6,phase_2,green_circle,stop,purple,0.0,0-SSD,go-2,4,,,,,,
0,0,6,phase_2,blue_pentagon,stop,red,200.0,tracking-SSD,go-1,4,,,,,,
0,0,6,phase_2,blue_rhombus,stop,red,250.0,tracking-SSD,go-1,4,,,,,,
1,591.0,6,phase_2,green_triangle,go,,,,go-2,1,,,,,,
2,566.0,6,phase_2,green_pentagon,go,,,,go-2,1,,,,,,
2,484.0,6,phase_2,green_circle,go,,,,go-2,1,,,,,,
2,393.0,6,phase_2,blue_rhombus,go,,,,go-1,2,,,,,,
1,481.0,6,phase_2,green_triangle,go,,,,go-2,1,,,,,,
2,412.0,6,phase_2,blue_circle,go,,,,go-1,1,,,,,,
2,443.0,6,phase_2,green_circle,go,,,,go-2,1,,,,,,
1,474.0,6,phase_2,green_rhombus,go,,,,go-2,1,,,,,,
1,516.0,6,phase_2,blue_pentagon,go,,,,go-1,2,,,,,,
1,514.0,6,phase_2,green_triangle,go,,,,go-2,1,,,,,,
2,579.0,6,phase_2,blue_rhombus,go,,,,go-1,2,,,,,,
1,554.0,6,phase_2,green_triangle,stop,red,300.0,tracking-SSD,go-2,3,,,,,,
2,912.0,6,phase_2,green_pentagon,go,,,,go-2,1,,,,,,
2,550.0,6,phase_2,blue_pentagon,go,,,,go-1,1,,,,,,
2,447.0,6,phase_2,blue_pentagon,go,,,,go-1,1,,,,,,
2,501.0,6,phase_2,blue_circle,go,,,,go-1,1,,,,,,
0,0,6,phase_2,green_pentagon,stop,red,250.0,tracking-SSD,go-2,4,,,,,,
1,631.0,6,phase_2,green_rhombus,go,,,,go-2,1,,,,,,
1,584.0,6,phase_2,blue_rhombus,go,,,,go-1,1,,,,,,
2,491.0,6,phase_2,blue_pentagon,go,,,,go-1,1,,,,,,
2,344.0,6,phase_2,green_circle,go,,,,go-2,1,,,,,,
1,500.0,6,phase_2,blue_triangle,go,,,,go-1,1,,,,,,
0,0,6,phase_2,green_triangle,stop,purple,0.0,0-SSD,go-2,4,,,,,,
2,428.0,6,phase_2,blue_circle,go,,,,go-1,1,,,,,,
1,459.0,6,phase_2,blue_triangle,go,,,,go-1,1,,,,,,
2,434.0,6,phase_2,green_pentagon,stop,red,300.0,tracking-SSD,go-2,3,,,,,,
1,487.0,6,phase_2,blue_rhombus,go,,,,go-1,1,,,,,,
1,496.0,6,phase_2,blue_rhombus,go,,,,go-1,1,,,,,,
1,394.0,6,phase_2,blue_pentagon,go,,,,go-1,2,,,,,,
2,499.0,7,phase_2,green_pentagon,go,,,,go-2,1,,,,,,
1,599.0,7,phase_2,green_rhombus,go,,,,go-2,1,,,,,,
2,574.0,7,phase_2,green_pentagon,go,,,,go-2,1,,,,,,
2,481.0,7,phase_2,green_pentagon,go,,,,go-2,1,,,,,,
1,535.0,7,phase_2,blue_triangle,go,,,,go-1,1,,,,,,
2,535.0,7,phase_2,green_pentagon,stop,red,250.0,tracking-SSD,go-2,3,,,,,,
1,667.0,7,phase_2,blue_rhombus,go,,,,go-1,1,,,,,,
0,0,7,phase_2,green_circle,stop,purple,0.0,0-SSD,go-2,4,,,,,,
0,0,7,phase_2,blue_pentagon,stop,purple,0.0,0-SSD,go-1,4,,,,,,
0,0,7,phase_2,green_circle,stop,purple,0.0,0-SSD,go-2,4,,,,,,
1,590.0,7,phase_2,blue_triangle,go,,,,go-1,1,,,,,,
0,0,7,phase_2,green_circle,stop,purple,0.0,0-SSD,go-2,4,,,,,,
2,415.0,7,phase_2,blue_circle,go,,,,go-1,1,,,,,,
0,0,7,phase_2,blue_circle,stop,red,200.0,tracking-SSD,go-1,4,,,,,,
1,456.0,7,phase_2,blue_rhombus,go,,,,go-1,1,,,,,,
2,487.0,7,phase_2,green_circle,go,,,,go-2,1,,,,,,
1,563.0,7,phase_2,green_rhombus,stop,red,250.0,tracking-SSD,go-2,3,,,,,,
0,0,7,phase_2,green_triangle,stop,purple,0.0,0-SSD,go-2,4,,,,,,
1,615.0,7,phase_2,green_triangle,go,,,,go-2,1,,,,,,
2,398.0,7,phase_2,green_circle,go,,,,go-2,1,,,,,,
1,553.0,7,phase_2,green_rhombus,go,,,,go-2,1,,,,,,
0,0,7,phase_2,green_triangle,stop,red,200.0,tracking-SSD,go-2,4,,,,,,
2,503.0,7,phase_2,blue_pentagon,go,,,,go-1,1,,,,,,
2,523.0,7,phase_2,green_pentagon,go,,,,go-2,1,,,,,,
1,498.0,7,phase_2,blue_triangle,go,,,,go-1,1,,,,,,
2,439.0,7,phase_2,blue_pentagon,go,,,,go-1,1,,,,,,
0,0,7,phase_2,blue_rhombus,stop,red,250.0,tracking-SSD,go-1,4,,,,,,
2,525.0,7,phase_2,blue_pentagon,go,,,,go-1,1,,,,,,
0,0,7,phase_2,blue_rhombus,stop,red,300.0,tracking-SSD,go-1,4,,,,,,
2,500.0,7,phase_2,green_circle,go,,,,go-2,1,,,,,,
2,430.0,7,phase_2,green_circle,go,,,,go-2,1,,,,,,
0,0,7,phase_2,blue_pentagon,stop,red,350.0,tracking-SSD,go-1,4,,,,,,
0,0,7,phase_2,blue_triangle,stop,purple,0.0,0-SSD,go-1,4,,,,,,
1,569.0,7,phase_2,blue_rhombus,go,,,,go-1,1,,,,,,
0,0,7,phase_2,blue_circle,stop,purple,0.0,0-SSD,go-1,4,,,,,,
0,0,7,phase_2,blue_circle,stop,purple,0.0,0-SSD,go-1,4,,,,,,
2,358.0,7,phase_2,green_triangle,go,,,,go-2,2,,,,,,
1,558.0,7,phase_2,green_rhombus,go,,,,go-2,1,,,,,,
1,421.0,7,phase_2,blue_triangle,go,,,,go-1,1,,,,,,
1,362.0,7,phase_2,green_rhombus,go,,,,go-2,1,,,,,,
1,404.0,7,phase_2,green_triangle,stop,red,400.0,tracking-SSD,go-2,3,,,,,,
2,425.0,7,phase_2,blue_circle,go,,,,go-1,1,,,,,,
1,513.0,7,phase_2,blue_triangle,go,,,,go-1,1,,,,,,
1,624.0,7,phase_2,blue_rhombus,go,,,,go-1,1,,,,,,
2,542.0,7,phase_2,green_pentagon,go,,,,go-2,1,,,,,,
2,731.0,7,phase_2,green_pentagon,go,,,,go-2,1,,,,,,
1,437.0,7,phase_2,blue_rhombus,go,,,,go-1,1,,,,,,
1,389.0,7,phase_2,blue_triangle,go,,,,go-1,1,,,,,,
1,510.0,8,phase_2,green_rhombus,stop,red,350.0,tracking-SSD,go-2,3,,,,,,
1,441.0,8,phase_2,green_triangle,stop,red,300.0,tracking-SSD,go-2,3,,,,,,
1,484.0,8,phase_2,blue_rhombus,go,,,,go-1,1,,,,,,
2,561.0,8,phase_2,blue_pentagon,go,,,,go-1,1,,,,,,
1,424.0,8,phase_2,green_triangle,go,,,,go-2,1,,,,,,
2,409.0,8,phase_2,blue_circle,go,,,,go-1,1,,,,,,
0,0,8,phase_2,green_rhombus,stop,red,250.0,tracking-SSD,go-2,4,,,,,,
2,573.0,8,phase_2,blue_circle,go,,,,go-1,1,,,,,,
2,412.0,8,phase_2,blue_circle,go,,,,go-1,1,,,,,,
2,534.0,8,phase_2,green_pentagon,go,,,,go-2,1,,,,,,
2,384.0,8,phase_2,green_triangle,go,,,,go-2,2,,,,,,
1,461.0,8,phase_2,green_rhombus,go,,,,go-2,1,,,,,,
2,616.0,8,phase_2,green_pentagon,go,,,,go-2,1,,,,,,
2,433.0,8,phase_2,green_circle,go,,,,go-2,1,,,,,,
0,0,8,phase_2,blue_triangle,stop,purple,0.0,0-SSD,go-1,4,,,,,,
1,473.0,8,phase_2,blue_triangle,stop,red,300.0,tracking-SSD,go-1,3,,,,,,
2,481.0,8,phase_2,blue_rhombus,go,,,,go-1,2,,,,,,
1,457.0,8,phase_2,blue_rhombus,go,,,,go-1,1,,,,,,
2,545.0,8,phase_2,blue_pentagon,go,,,,go-1,1,,,,,,
2,486.0,8,phase_2,green_pentagon,go,,,,go-2,1,,,,,,
0,0,8,phase_2,green_triangle,stop,purple,0.0,0-SSD,go-2,4,,,,,,
2,436.0,8,phase_2,blue_pentagon,go,,,,go-1,1,,,,,,
0,0,8,phase_2,blue_triangle,stop,red,250.0,tracking-SSD,go-1,4,,,,,,
2,509.0,8,phase_2,green_circle,go,,,,go-2,1,,,,,,
2,394.0,8,phase_2,green_circle,go,,,,go-2,1,,,,,,
2,391.0,8,phase_2,blue_pentagon,go,,,,go-1,1,,,,,,
2,457.0,8,phase_2,blue_circle,stop,red,300.0,tracking-SSD,go-1,3,,,,,,
0,0,8,phase_2,blue_circle,stop,purple,0.0,0-SSD,go-1,4,,,,,,
0,0,8,phase_2,green_triangle,stop,purple,0.0,0-SSD,go-2,4,,,,,,
1,529.0,8,phase_2,green_triangle,go,,,,go-2,1,,,,,,
2,492.0,8,phase_2,green_pentagon,go,,,,go-2,1,,,,,,
0,0,8,phase_2,blue_triangle,stop,red,250.0,tracking-SSD,go-1,4,,,,,,
1,318.0,8,phase_2,blue_pentagon,go,,,,go-1,2,,,,,,
2,496.0,8,phase_2,blue_circle,go,,,,go-1,1,,,,,,
0,0,8,phase_2,blue_rhombus,stop,purple,0.0,0-SSD,go-1,4,,,,,,
0,0,8,phase_2,blue_rhombus,stop,purple,0.0,0-SSD,go-1,4,,,,,,
2,491.0,8,phase_2,blue_circle,go,,,,go-1,1,,,,,,
2,410.0,8,phase_2,green_pentagon,stop,red,300.0,tracking-SSD,go-2,3,,,,,,
2,474.0,8,phase_2,blue_pentagon,go,,,,go-1,1,,,,,,
2,382.0,8,phase_2,blue_rhombus,go,,,,go-1,2,,,,,,
2,593.0,8,phase_2,green_pentagon,go,,,,go-2,1,,,,,,
0,0,8,phase_2,green_rhombus,stop,purple,0.0,0-SSD,go-2,4,,,,,,
1,353.0,8,phase_2,green_triangle,go,,,,go-2,1,,,,,,
0,0,8,phase_2,green_circle,stop,purple,0.0,0-SSD,go-2,4,,,,,,
1,439.0,8,phase_2,green_triangle,go,,,,go-2,1,,,,,,
2,414.0,8,phase_2,green_circle,go,,,,go-2,1,,,,,,
1,536.0,8,phase_2,green_rhombus,go,,,,go-2,1,,,,,,
1,434.0,8,phase_2,blue_rhombus,go,,,,go-1,1,,,,,,
2,409.0,9,phase_2,blue_circle,go,,,,go-1,1,,,,,,
0,0,9,phase_2,green_rhombus,stop,purple,0.0,0-SSD,go-2,4,,,,,,
0,0,9,phase_2,green_rhombus,stop,purple,0.0,0-SSD,go-2,4,,,,,,
1,413.0,9,phase_2,blue_triangle,stop,red,250.0,tracking-SSD,go-1,3,,,,,,
1,445.0,9,phase_2,blue_rhombus,go,,,,go-1,1,,,,,,
1,430.0,9,phase_2,green_triangle,go,,,,go-2,1,,,,,,
0,0,9,phase_2,blue_pentagon,stop,red,200.0,tracking-SSD,go-1,4,,,,,,
2,460.0,9,phase_2,blue_circle,go,,,,go-1,1,,,,,,
1,503.0,9,phase_2,green_rhombus,go,,,,go-2,1,,,,,,
1,488.0,9,phase_2,blue_triangle,go,,,,go-1,1,,,,,,
0,0,9,phase_2,green_pentagon,stop,purple,0.0,0-SSD,go-2,4,,,,,,
1,482.0,9,phase_2,blue_triangle,stop,red,250.0,tracking-SSD,go-1,3,,,,,,
1,435.0,9,phase_2,green_rhombus,go,,,,go-2,1,,,,,,
2,533.0,9,phase_2,blue_pentagon,go,,,,go-1,1,,,,,,
1,362.0,9,phase_2,green_circle,stop,red,200.0,tracking-SSD,go-2,3,,,,,,
0,0,9,phase_2,green_triangle,stop,red,150.0,tracking-SSD,go-2,4,,,,,,
1,402.0,9,phase_2,green_triangle,go,,,,go-2,1,,,,,,
1,613.0,9,phase_2,blue_rhombus,go,,,,go-1,1,,,,,,
2,340.0,9,phase_2,blue_circle,go,,,,go-1,1,,,,,,
1,428.0,9,phase_2,blue_pentagon,go,,,,go-1,2,,,,,,
2,403.0,9,phase_2,green_pentagon,go,,,,go-2,1,,,,,,
1,547.0,9,phase_2,green_triangle,go,,,,go-2,1,,,,,,
2,342.0,9,phase_2,blue_circle,stop,red,200.0,tracking-SSD,go-1,3,,,,,,
2,362.0,9,phase_2,green_pentagon,go,,,,go-2,1,,,,,,
1,415.0,9,phase_2,blue_rhombus,go,,,,go-1,1,,,,,,
1,526.0,9,phase_2,blue_rhombus,go,,,,go-1,1,,,,,,
2,433.0,9,phase_2,green_circle,go,,,,go-2,1,,,,,,
2,476.0,9,phase_2,blue_pentagon,go,,,,go-1,1,,,,,,
0,0,9,phase_2,blue_circle,stop,purple,0.0,0-SSD,go-1,4,,,,,,
1,358.0,9,phase_2,green_rhombus,stop,red,150.0,tracking-SSD,go-2,3,,,,,,
1,502.0,9,phase_2,green_pentagon,go,,,,go-2,2,,,,,,
2,400.0,9,phase_2,green_pentagon,go,,,,go-2,1,,,,,,
0,0,9,phase_2,blue_rhombus,stop,purple,0.0,0-SSD,go-1,4,,,,,,
2,406.0,9,phase_2,green_circle,go,,,,go-2,1,,,,,,
1,494.0,9,phase_2,green_triangle,go,,,,go-2,1,,,,,,
2,356.0,9,phase_2,green_circle,go,,,,go-2,1,,,,,,
0,0,9,phase_2,blue_pentagon,stop,purple,0.0,0-SSD,go-1,4,,,,,,
2,453.0,9,phase_2,blue_pentagon,go,,,,go-1,1,,,,,,
0,0,9,phase_2,green_triangle,stop,purple,0.0,0-SSD,go-2,4,,,,,,
1,426.0,9,phase_2,blue_rhombus,go,,,,go-1,1,,,,,,
2,333.0,9,phase_2,blue_circle,go,,,,go-1,1,,,,,,
0,0,9,phase_2,green_circle,stop,red,100.0,tracking-SSD,go-2,4,,,,,,
0,0,9,phase_2,blue_rhombus,stop,purple,0.0,0-SSD,go-1,4,,,,,,
1,461.0,9,phase_2,green_pentagon,go,,,,go-2,2,,,,,,
1,504.0,9,phase_2,blue_triangle,go,,,,go-1,1,,,,,,
2,534.0,9,phase_2,blue_circle,go,,,,go-1,1,,,,,,
1,531.0,9,phase_2,green_triangle,go,,,,go-2,1,,,,,,
1,451.0,9,phase_2,green_triangle,go,,,,go-2,1,,,,,,
0,0,10,phase_2,blue_rhombus,stop,red,150.0,tracking-SSD,go-1,4,,,,,,
0,0,10,phase_2,green_triangle,stop,red,200.0,tracking-SSD,go-2,4,,,,,,
0,0,10,phase_2,green_triangle,stop,purple,0.0,0-SSD,go-2,4,,,,,,
1,660.0,10,phase_2,green_triangle,go,,,,go-2,1,,,,,,
2,488.0,10,phase_2,blue_pentagon,go,,,,go-1,1,,,,,,
2,440.0,10,phase_2,blue_circle,go,,,,go-1,1,,,,,,
0,0,10,phase_2,green_rhombus,stop,purple,0.0,0-SSD,go-2,4,,,,,,
2,502.0,10,phase_2,green_pentagon,go,,,,go-2,1,,,,,,
0,0,10,phase_2,blue_triangle,stop,purple,0.0,0-SSD,go-1,4,,,,,,
2,442.0,10,phase_2,green_circle,go,,,,go-2,1,,,,,,
2,461.0,10,phase_2,green_rhombus,stop,red,250.0,tracking-SSD,go-2,3,,,,,,
1,357.0,10,phase_2,green_rhombus,go,,,,go-2,1,,,,,,
1,399.0,10,phase_2,blue_rhombus,go,,,,go-1,1,,,,,,
2,509.0,10,phase_2,blue_circle,stop,red,200.0,tracking-SSD,go-1,3,,,,,,
0,0,10,phase_2,green_triangle,stop,red,150.0,tracking-SSD,go-2,4,,,,,,
2,696.0,10,phase_2,blue_pentagon,go,,,,go-1,1,,,,,,
0,0,10,phase_2,green_pentagon,stop,purple,0.0,0-SSD,go-2,4,,,,,,
2,579.0,10,phase_2,blue_pentagon,go,,,,go-1,1,,,,,,
2,419.0,10,phase_2,green_circle,go,,,,go-2,1,,,,,,
0,0,10,phase_2,blue_pentagon,stop,purple,0.0,0-SSD,go-1,4,,,,,,
2,481.0,10,phase_2,blue_circle,go,,,,go-1,1,,,,,,
2,310.0,10,phase_2,blue_circle,go,,,,go-1,1,,,,,,
0,0,10,phase_2,blue_rhombus,stop,purple,0.0,0-SSD,go-1,4,,,,,,
1,284.0,10,phase_2,green_triangle,go,,,,go-2,1,,,,,,
2,473.0,10,phase_2,blue_circle,stop,red,200.0,tracking-SSD,go-1,3,,,,,,
1,504.0,10,phase_2,blue_rhombus,go,,,,go-1,1,,,,,,
2,310.0,10,phase_2,blue_circle,go,,,,go-1,1,,,,,,
2,387.0,10,phase_2,green_circle,go,,,,go-2,1,,,,,,
2,530.0,10,phase_2,blue_pentagon,go,,,,go-1,1,,,,,,
1,415.0,10,phase_2,green_triangle,go,,,,go-2,1,,,,,,
2,469.0,10,phase_2,blue_pentagon,go,,,,go-1,1,,,,,,
2,399.0,10,phase_2,green_triangle,go,,,,go-2,2,,,,,,
1,610.0,10,phase_2,green_rhombus,go,,,,go-2,1,,,,,,
2,495.0,10,phase_2,green_circle,go,,,,go-2,1,,,,,,
0,0,10,phase_2,blue_circle,stop,red,150.0,tracking-SSD,go-1,4,,,,,,
1,491.0,10,phase_2,blue_pentagon,go,,,,go-1,2,,,,,,
1,432.0,10,phase_2,green_rhombus,go,,,,go-2,1,,,,,,
0,0,10,phase_2,green_triangle,stop,red,200.0,tracking-SSD,go-2,4,,,,,,
1,562.0,10,phase_2,blue_triangle,go,,,,go-1,1,,,,,,
2,437.0,10,phase_2,green_pentagon,go,,,,go-2,1,,,,,,
1,492.0,10,phase_2,green_triangle,go,,,,go-2,1,,,,,,
0,0,10,phase_2,blue_circle,stop,purple,0.0,0-SSD,go-1,4,,,,,,
1,531.0,10,phase_2,blue_rhombus,go,,,,go-1,1,,,,,,
1,472.0,10,phase_2,green_rhombus,go,,,,go-2,1,,,,,,
2,549.0,10,phase_2,green_pentagon,go,,,,go-2,1,,,,,,
1,389.0,10,phase_2,blue_triangle,go,,,,go-1,1,,,,,,
2,386.0,10,phase_2,blue_pentagon,go,,,,go-1,1,,,,,,
0,0,10,phase_2,green_rhombus,stop,purple,0.0,0-SSD,go-2,4,,,,,,
0,0,11,phase_2,green_rhombus,stop,purple,0.0,0-SSD,go-2,4,,,,,,
1,711.0,11,phase_2,green_rhombus,go,,,,go-2,1,,,,,,
1,460.0,11,phase_2,blue_triangle,go,,,,go-1,1,,,,,,
0,0,11,phase_2,green_circle,stop,purple,0.0,0-SSD,go-2,4,,,,,,
1,433.0,11,phase_2,blue_rhombus,go,,,,go-1,1,,,,,,
1,475.0,11,phase_2,blue_triangle,go,,,,go-1,1,,,,,,
2,348.0,11,phase_2,blue_circle,go,,,,go-1,1,,,,,,
1,403.0,11,phase_2,blue_triangle,stop,red,250.0,tracking-SSD,go-1,3,,,,,,
1,389.0,11,phase_2,green_triangle,go,,,,go-2,1,,,,,,
2,398.0,11,phase_2,blue_pentagon,go,,,,go-1,1,,,,,,
1,452.0,11,phase_2,blue_triangle,go,,,,go-1,1,,,,,,
1,370.0,11,phase_2,blue_rhombus,go,,,,go-1,1,,,,,,
1,367.0,11,phase_2,green_rhombus,go,,,,go-2,1,,,,,,
1,343.0,11,phase_2,green_circle,stop,red,200.0,tracking-SSD,go-2,3,,,,,,
0,0,11,phase_2,green_pentagon,stop,red,150.0,tracking-SSD,go-2,4,,,,,,
2,351.0,11,phase_2,blue_pentagon,stop,red,200.0,tracking-SSD,go-1,3,,,,,,
0,0,11,phase_2,blue_triangle,stop,purple,0.0,0-SSD,go-1,4,,,,,,
2,334.0,11,phase_2,green_rhombus,go,,,,go-2,2,,,,,,
2,455.0,11,phase_2,green_circle,go,,,,go-2,1,,,,,,
1,442.0,11,phase_2,blue_triangle,go,,,,go-1,1,,,,,,
2,429.0,11,phase_2,blue_pentagon,go,,,,go-1,1,,,,,,
2,381.0,11,phase_2,green_pentagon,go,,,,go-2,1,,,,,,
1,491.0,11,phase_2,green_triangle,go,,,,go-2,1,,,,,,
1,589.0,11,phase_2,green_rhombus,go,,,,go-2,1,,,,,,
2,473.0,11,phase_2,blue_circle,go,,,,go-1,1,,,,,,
1,438.0,11,phase_2,green_triangle,go,,,,go-2,1,,,,,,
0,0,11,phase_2,green_pentagon,stop,red,150.0,tracking-SSD,go-2,4,,,,,,
0,0,11,phase_2,green_triangle,stop,purple,0.0,0-SSD,go-2,4,,,,,,
1,531.0,11,phase_2,green_triangle,go,,,,go-2,1,,,,,,
2,315.0,11,phase_2,blue_circle,stop,red,200.0,tracking-SSD,go-1,3,,,,,,
2,481.0,11,phase_2,blue_circle,go,,,,go-1,1,,,,,,
2,388.0,11,phase_2,green_circle,go,,,,go-2,1,,,,,,
0,0,11,phase_2,blue_pentagon,stop,purple,0.0,0-SSD,go-1,4,,,,,,
2,474.0,11,phase_2,blue_rhombus,go,,,,go-1,2,,,,,,
2,474.0,11,phase_2,green_pentagon,go,,,,go-2,1,,,,,,
2,494.0,11,phase_2,green_pentagon,go,,,,go-2,1,,,,,,
2,536.0,11,phase_2,blue_circle,stop,purple,0.0,0-SSD,go-1,3,,,,,,
0,0,11,phase_2,green_pentagon,stop,red,150.0,tracking-SSD,go-2,4,,,,,,
1,497.0,11,phase_2,green_rhombus,go,,,,go-2,1,,,,,,
1,360.0,11,phase_2,blue_pentagon,stop,red,200.0,tracking-SSD,go-1,3,,,,,,
1,470.0,11,phase_2,green_rhombus,go,,,,go-2,1,,,,,,
2,501.0,11,phase_2,blue_circle,go,,,,go-1,1,,,,,,
0,0,11,phase_2,blue_circle,stop,purple,0.0,0-SSD,go-1,4,,,,,,
1,564.0,11,phase_2,blue_rhombus,go,,,,go-1,1,,,,,,
1,459.0,11,phase_2,green_rhombus,go,,,,go-2,1,,,,,,
1,435.0,11,phase_2,blue_triangle,go,,,,go-1,1,,,,,,
2,409.0,11,phase_2,blue_circle,go,,,,go-1,1,,,,,,
0,0,11,phase_2,green_pentagon,stop,purple,0.0,0-SSD,go-2,4,,,,,,
2,454.0,12,phase_2,blue_circle,stop,red,150.0,tracking-SSD,go-1,3,,,,,,
1,485.0,12,phase_2,green_rhombus,go,,,,go-2,1,,,,,,
0,0,12,phase_2,blue_triangle,go,,,,go-1,2,,,,,,
2,469.0,12,phase_2,blue_circle,go,,,,go-1,1,,,,,,
1,320.0,12,phase_2,blue_triangle,go,,,,go-1,1,,,,,,
0,0,12,phase_2,green_pentagon,stop,red,100.0,tracking-SSD,go-2,4,,,,,,
2,439.0,12,phase_2,blue_circle,stop,red,150.0,tracking-SSD,go-1,3,,,,,,
1,460.0,12,phase_2,green_rhombus,go,,,,go-2,1,,,,,,
0,0,12,phase_2,blue_rhombus,stop,red,100.0,tracking-SSD,go-1,4,,,,,,
1,411.0,12,phase_2,green_circle,go,,,,go-2,2,,,,,,
0,0,12,phase_2,blue_rhombus,stop,purple,0.0,0-SSD,go-1,4,,,,,,
2,405.0,12,phase_2,blue_circle,go,,,,go-1,1,,,,,,
2,391.0,12,phase_2,blue_circle,go,,,,go-1,1,,,,,,
1,400.0,12,phase_2,green_triangle,go,,,,go-2,1,,,,,,
0,0,12,phase_2,green_triangle,stop,purple,0.0,0-SSD,go-2,4,,,,,,
2,351.0,12,phase_2,green_circle,go,,,,go-2,1,,,,,,
0,0,12,phase_2,blue_triangle,stop,purple,0.0,0-SSD,go-1,4,,,,,,
1,492.0,12,phase_2,green_rhombus,go,,,,go-2,1,,,,,,
1,411.0,12,phase_2,green_triangle,go,,,,go-2,1,,,,,,
1,408.0,12,phase_2,blue_rhombus,go,,,,go-1,1,,,,,,
2,552.0,12,phase_2,green_pentagon,go,,,,go-2,1,,,,,,
1,470.0,12,phase_2,green_triangle,go,,,,go-2,1,,,,,,
2,557.0,12,phase_2,blue_pentagon,go,,,,go-1,1,,,,,,
0,0,12,phase_2,green_pentagon,stop,purple,0.0,0-SSD,go-2,4,,,,,,
1,418.0,12,phase_2,green_triangle,go,,,,go-2,1,,,,,,
0,0,12,phase_2,green_rhombus,stop,red,150.0,tracking-SSD,go-2,4,,,,,,
1,515.0,12,phase_2,blue_rhombus,go,,,,go-1,1,,,,,,
2,402.0,12,phase_2,green_pentagon,go,,,,go-2,1,,,,,,
0,0,12,phase_2,green_rhombus,stop,red,200.0,tracking-SSD,go-2,4,,,,,,
2,452.0,12,phase_2,blue_circle,go,,,,go-1,1,,,,,,
0,0,12,phase_2,green_pentagon,stop,purple,0.0,0-SSD,go-2,4,,,,,,
2,404.0,12,phase_2,green_circle,go,,,,go-2,1,,,,,,
1,424.0,12,phase_2,blue_triangle,go,,,,go-1,1,,,,,,
2,477.0,12,phase_2,blue_pentagon,go,,,,go-1,1,,,,,,
1,328.0,12,phase_2,blue_pentagon,stop,red,250.0,tracking-SSD,go-1,3,,,,,,
1,473.0,12,phase_2,green_rhombus,go,,,,go-2,1,,,,,,
2,337.0,12,phase_2,blue_pentagon,go,,,,go-1,1,,,,,,
1,458.0,12,phase_2,blue_triangle,go,,,,go-1,1,,,,,,
0,0,12,phase_2,blue_pentagon,stop,purple,0.0,0-SSD,go-1,4,,,,,,
2,295.0,12,phase_2,green_circle,go,,,,go-2,1,,,,,,
2,361.0,12,phase_2,green_circle,go,,,,go-2,1,,,,,,
2,392.0,12,phase_2,green_pentagon,go,,,,go-2,1,,,,,,
1,648.0,12,phase_2,blue_rhombus,go,,,,go-1,1,,,,,,
0,0,12,phase_2,blue_circle,stop,purple,0.0,0-SSD,go-1,4,,,,,,
2,317.0,12,phase_2,green_rhombus,stop,red,200.0,tracking-SSD,go-2,3,,,,,,
1,415.0,12,phase_2,blue_triangle,go,,,,go-1,1,,,,,,
0,0,12,phase_2,green_pentagon,stop,purple,0.0,0-SSD,go-2,4,,,,,,
1,478.0,12,phase_2,blue_triangle,go,,,,go-1,1,,,,,,
2,487.0,13,phase_2,blue_pentagon,go,,,,go-1,1,,,,,,
1,487.0,13,phase_2,green_rhombus,go,,,,go-2,1,,,,,,
1,483.0,13,phase_2,blue_triangle,go,,,,go-1,1,,,,,,
2,470.0,13,phase_2,blue_circle,go,,,,go-1,1,,,,,,
2,367.0,13,phase_2,green_circle,go,,,,go-2,1,,,,,,
1,443.0,13,phase_2,blue_triangle,stop,red,150.0,tracking-SSD,go-1,3,,,,,,
1,565.0,13,phase_2,blue_pentagon,go,,,,go-1,2,,,,,,
0,0,13,phase_2,blue_pentagon,stop,purple,0.0,0-SSD,go-1,4,,,,,,
2,570.0,13,phase_2,blue_pentagon,go,,,,go-1,1,,,,,,
1,387.0,13,phase_2,green_triangle,go,,,,go-2,1,,,,,,
1,475.0,13,phase_2,green_triangle,go,,,,go-2,1,,,,,,
2,315.0,13,phase_2,blue_circle,stop,red,100.0,tracking-SSD,go-1,3,,,,,,
2,481.0,13,phase_2,blue_pentagon,go,,,,go-1,1,,,,,,
2,455.0,13,phase_2,blue_pentagon,go,,,,go-1,1,,,,,,
0,0,13,phase_2,blue_triangle,stop,red,50.0,tracking-SSD,go-1,4,,,,,,
2,417.0,13,phase_2,green_circle,go,,,,go-2,1,,,,,,
0,0,13,phase_2,green_rhombus,stop,purple,0.0,0-SSD,go-2,4,,,,,,
2,412.0,13,phase_2,green_circle,go,,,,go-2,1,,,,,,
2,444.0,13,phase_2,blue_pentagon,go,,,,go-1,1,,,,,,
1,407.0,13,phase_2,green_triangle,go,,,,go-2,1,,,,,,
2,348.0,13,phase_2,blue_circle,go,,,,go-1,1,,,,,,
0,0,13,phase_2,blue_pentagon,stop,purple,0.0,0-SSD,go-1,4,,,,,,
2,332.0,13,phase_2,green_pentagon,go,,,,go-2,1,,,,,,
1,453.0,13,phase_2,green_triangle,go,,,,go-2,1,,,,,,
2,348.0,13,phase_2,blue_triangle,go,,,,go-1,2,,,,,,
1,492.0,13,phase_2,green_rhombus,go,,,,go-2,1,,,,,,
0,0,13,phase_2,blue_rhombus,stop,purple,0.0,0-SSD,go-1,4,,,,,,
2,409.0,13,phase_2,blue_circle,go,,,,go-1,1,,,,,,
0,0,13,phase_2,green_rhombus,stop,red,100.0,tracking-SSD,go-2,4,,,,,,
0,0,13,phase_2,green_pentagon,stop,purple,0.0,0-SSD,go-2,4,,,,,,
1,569.0,13,phase_2,green_triangle,go,,,,go-2,1,,,,,,
2,410.0,13,phase_2,green_pentagon,go,,,,go-2,1,,,,,,
1,453.0,13,phase_2,green_triangle,go,,,,go-2,1,,,,,,
2,292.0,13,phase_2,blue_circle,go,,,,go-1,1,,,,,,
1,391.0,13,phase_2,green_rhombus,go,,,,go-2,1,,,,,,
2,309.0,13,phase_2,blue_rhombus,go,,,,go-1,2,,,,,,
2,386.0,13,phase_2,blue_circle,go,,,,go-1,1,,,,,,
0,0,13,phase_2,green_rhombus,stop,purple,0.0,0-SSD,go-2,4,,,,,,
1,348.0,13,phase_2,green_triangle,go,,,,go-2,1,,,,,,
2,299.0,13,phase_2,blue_pentagon,go,,,,go-1,1,,,,,,
0,0,13,phase_2,green_circle,stop,purple,0.0,0-SSD,go-2,4,,,,,,
0,0,13,phase_2,blue_triangle,stop,purple,0.0,0-SSD,go-1,4,,,,,,
1,518.0,13,phase_2,green_circle,go,,,,go-2,2,,,,,,
2,414.0,13,phase_2,green_circle,stop,red,150.0,tracking-SSD,go-2,3,,,,,,
0,0,13,phase_2,blue_rhombus,stop,red,100.0,tracking-SSD,go-1,4,,,,,,
0,0,13,phase_2,green_rhombus,stop,red,150.0,tracking-SSD,go-2,4,,,,,,
0,0,13,phase_2,green_rhombus,stop,red,200.0,tracking-SSD,go-2,4,,,,,,
1,530.0,13,phase_2,blue_rhombus,go,,,,go-1,1,,,,,,
1,658.0,14,phase_2,green_rhombus,go,,,,go-2,1,,,,,,
1,485.0,14,phase_2,green_triangle,go,,,,go-2,1,,,,,,
0,0,14,phase_2,green_circle,stop,purple,0.0,0-SSD,go-2,4,,,,,,
1,412.0,14,phase_2,green_triangle,go,,,,go-2,1,,,,,,
2,399.0,14,phase_2,green_pentagon,stop,red,250.0,tracking-SSD,go-2,3,,,,,,
2,463.0,14,phase_2,green_pentagon,go,,,,go-2,1,,,,,,
0,0,14,phase_2,blue_triangle,stop,purple,0.0,0-SSD,go-1,4,,,,,,
0,0,14,phase_2,green_triangle,stop,purple,0.0,0-SSD,go-2,4,,,,,,
2,489.0,14,phase_2,blue_circle,go,,,,go-1,1,,,,,,
2,308.0,14,phase_2,green_circle,stop,red,200.0,tracking-SSD,go-2,3,,,,,,
1,395.0,14,phase_2,blue_pentagon,go,,,,go-1,2,,,,,,
0,0,14,phase_2,blue_triangle,stop,purple,0.0,0-SSD,go-1,4,,,,,,
1,548.0,14,phase_2,blue_rhombus,go,,,,go-1,1,,,,,,
2,376.0,14,phase_2,blue_triangle,go,,,,go-1,2,,,,,,
2,497.0,14,phase_2,green_pentagon,go,,,,go-2,1,,,,,,
2,438.0,14,phase_2,green_rhombus,go,,,,go-2,2,,,,,,
0,0,14,phase_2,green_rhombus,stop,red,150.0,tracking-SSD,go-2,4,,,,,,
1,545.0,14,phase_2,green_rhombus,go,,,,go-2,1,,,,,,
1,531.0,14,phase_2,blue_rhombus,go,,,,go-1,1,,,,,,
2,496.0,14,phase_2,green_pentagon,go,,,,go-2,1,,,,,,
1,482.0,14,phase_2,blue_triangle,go,,,,go-1,1,,,,,,
2,423.0,14,phase_2,blue_circle,go,,,,go-1,1,,,,,,
0,0,14,phase_2,green_pentagon,stop,purple,0.0,0-SSD,go-2,4,,,,,,
2,361.0,14,phase_2,blue_circle,stop,red,200.0,tracking-SSD,go-1,3,,,,,,
0,0,14,phase_2,blue_triangle,stop,purple,0.0,0-SSD,go-1,4,,,,,,
2,412.0,14,phase_2,green_circle,go,,,,go-2,1,,,,,,
1,433.0,14,phase_2,blue_triangle,go,,,,go-1,1,,,,,,
2,362.0,14,phase_2,blue_pentagon,go,,,,go-1,1,,,,,,
1,450.0,14,phase_2,blue_triangle,go,,,,go-1,1,,,,,,
2,368.0,14,phase_2,green_circle,go,,,,go-2,1,,,,,,
1,545.0,14,phase_2,green_pentagon,go,,,,go-2,2,,,,,,
1,555.0,14,phase_2,blue_rhombus,go,,,,go-1,1,,,,,,
2,439.0,14,phase_2,blue_circle,stop,red,150.0,tracking-SSD,go-1,3,,,,,,
1,504.0,14,phase_2,blue_rhombus,go,,,,go-1,1,,,,,,
2,445.0,14,phase_2,green_pentagon,go,,,,go-2,1,,,,,,
2,555.0,14,phase_2,green_pentagon,go,,,,go-2,1,,,,,,
0,0,14,phase_2,blue_circle,stop,red,100.0,tracking-SSD,go-1,4,,,,,,
0,0,14,phase_2,blue_triangle,stop,red,150.0,tracking-SSD,go-1,4,,,,,,
0,0,14,phase_2,green_circle,stop,purple,0.0,0-SSD,go-2,4,,,,,,
2,500.0,14,phase_2,green_pentagon,go,,,,go-2,1,,,,,,
2,375.0,14,phase_2,green_circle,stop,red,200.0,tracking-SSD,go-2,3,,,,,,
2,541.0,14,phase_2,green_pentagon,go,,,,go-2,1,,,,,,
2,561.0,14,phase_2,blue_circle,go,,,,go-1,1,,,,,,
2,389.0,14,phase_2,blue_rhombus,go,,,,go-1,2,,,,,,
1,477.0,14,phase_2,blue_rhombus,go,,,,go-1,1,,,,,,
1,441.0,14,phase_2,green_rhombus,go,,,,go-2,1,,,,,,
1,551.0,14,phase_2,blue_triangle,go,,,,go-1,1,,,,,,
0,0,14,phase_2,blue_rhombus,stop,purple,0.0,0-SSD,go-1,4,,,,,,
0,0,15,phase_2,blue_pentagon,stop,purple,0.0,0-SSD,go-1,4,,,,,,
2,373.0,15,phase_2,green_circle,go,,,,go-2,1,,,,,,
2,472.0,15,phase_2,blue_pentagon,go,,,,go-1,1,,,,,,
0,0,15,phase_2,blue_triangle,stop,red,150.0,tracking-SSD,go-1,4,,,,,,
1,512.0,15,phase_2,blue_triangle,go,,,,go-1,1,,,,,,
2,465.0,15,phase_2,green_pentagon,go,,,,go-2,1,,,,,,
1,496.0,15,phase_2,blue_triangle,go,,,,go-1,1,,,,,,
0,0,15,phase_2,blue_pentagon,stop,purple,0.0,0-SSD,go-1,4,,,,,,
1,479.0,15,phase_2,green_triangle,go,,,,go-2,1,,,,,,
0,0,15,phase_2,green_pentagon,stop,purple,0.0,0-SSD,go-2,4,,,,,,
0,0,15,phase_2,blue_pentagon,stop,red,200.0,tracking-SSD,go-1,4,,,,,,
2,427.0,15,phase_2,green_circle,stop,red,250.0,tracking-SSD,go-2,3,,,,,,
2,503.0,15,phase_2,blue_pentagon,go,,,,go-1,1,,,,,,
2,432.0,15,phase_2,green_pentagon,go,,,,go-2,1,,,,,,
1,407.0,15,phase_2,green_triangle,go,,,,go-2,1,,,,,,
2,586.0,15,phase_2,blue_rhombus,go,,,,go-1,2,,,,,,
2,437.0,15,phase_2,green_circle,go,,,,go-2,1,,,,,,
1,434.0,15,phase_2,green_rhombus,go,,,,go-2,1,,,,,,
1,487.0,15,phase_2,blue_rhombus,go,,,,go-1,1,,,,,,
1,417.0,15,phase_2,green_triangle,go,,,,go-2,1,,,,,,
1,358.0,15,phase_2,blue_triangle,go,,,,go-1,1,,,,,,
1,357.0,15,phase_2,green_triangle,go,,,,go-2,1,,,,,,
2,376.0,15,phase_2,blue_circle,go,,,,go-1,1,,,,,,
1,419.0,15,phase_2,green_rhombus,go,,,,go-2,1,,,,,,
2,360.0,15,phase_2,green_circle,go,,,,go-2,1,,,,,,
2,379.0,15,phase_2,blue_circle,go,,,,go-1,1,,,,,,
1,490.0,15,phase_2,blue_rhombus,go,,,,go-1,1,,,,,,
0,0,15,phase_2,green_pentagon,stop,purple,0.0,0-SSD,go-2,4,,,,,,
2,396.0,15,phase_2,green_circle,go,,,,go-2,1,,,,,,
2,359.0,15,phase_2,blue_circle,stop,red,200.0,tracking-SSD,go-1,3,,,,,,
0,0,15,phase_2,green_rhombus,stop,red,150.0,tracking-SSD,go-2,4,,,,,,
1,387.0,15,phase_2,green_rhombus,stop,red,200.0,tracking-SSD,go-2,3,,,,,,
0,0,15,phase_2,blue_rhombus,stop,red,150.0,tracking-SSD,go-1,4,,,,,,
2,359.0,15,phase_2,blue_circle,go,,,,go-1,1,,,,,,
2,391.0,15,phase_2,blue_circle,go,,,,go-1,1,,,,,,
0,0,15,phase_2,blue_circle,stop,purple,0.0,0-SSD,go-1,4,,,,,,
1,409.0,15,phase_2,blue_rhombus,go,,,,go-1,1,,,,,,
0,0,15,phase_2,green_triangle,stop,purple,0.0,0-SSD,go-2,4,,,,,,
2,425.0,15,phase_2,green_circle,go,,,,go-2,1,,,,,,
2,513.0,15,phase_2,green_pentagon,go,,,,go-2,1,,,,,,
1,364.0,15,phase_2,blue_rhombus,go,,,,go-1,1,,,,,,
2,316.0,15,phase_2,blue_rhombus,go,,,,go-1,2,,,,,,
2,583.0,15,phase_2,green_pentagon,go,,,,go-2,1,,,,,,
1,514.0,15,phase_2,blue_triangle,go,,,,go-1,1,,,,,,
1,535.0,15,phase_2,green_triangle,go,,,,go-2,1,,,,,,
0,0,15,phase_2,green_pentagon,stop,purple,0.0,0-SSD,go-2,4,,,,,,
0,0,15,phase_2,blue_rhombus,stop,purple,0.0,0-SSD,go-1,4,,,,,,
0,0,15,phase_2,green_triangle,stop,red,200.0,tracking-SSD,go-2,4,,,,,,
1,499.0,16,phase_2,blue_rhombus,go,,,,go-1,1,,,,,,
1,374.0,16,phase_2,blue_rhombus,go,,,,go-1,1,,,,,,
2,416.0,16,phase_2,blue_circle,go,,,,go-1,1,,,,,,
2,560.0,16,phase_2,green_pentagon,go,,,,go-2,1,,,,,,
0,0,16,phase_2,blue_rhombus,stop,purple,0.0,0-SSD,go-1,4,,,,,,
1,453.0,16,phase_2,green_triangle,go,,,,go-2,1,,,,,,
2,495.0,16,phase_2,green_circle,go,,,,go-2,1,,,,,,
0,0,16,phase_2,green_triangle,stop,red,250.0,tracking-SSD,go-2,4,,,,,,
2,467.0,16,phase_2,green_circle,stop,red,300.0,tracking-SSD,go-2,3,,,,,,
2,431.0,16,phase_2,green_circle,go,,,,go-2,1,,,,,,
1,396.0,16,phase_2,blue_rhombus,stop,red,250.0,tracking-SSD,go-1,3,,,,,,
2,348.0,16,phase_2,blue_triangle,go,,,,go-1,2,,,,,,
0,0,16,phase_2,green_pentagon,stop,purple,0.0,0-SSD,go-2,4,,,,,,
2,602.0,16,phase_2,green_pentagon,go,,,,go-2,1,,,,,,
2,420.0,16,phase_2,green_pentagon,go,,,,go-2,1,,,,,,
2,385.0,16,phase_2,blue_pentagon,go,,,,go-1,1,,,,,,
1,506.0,16,phase_2,blue_triangle,go,,,,go-1,1,,,,,,
1,538.0,16,phase_2,blue_rhombus,go,,,,go-1,1,,,,,,
1,377.0,16,phase_2,green_rhombus,go,,,,go-2,1,,,,,,
1,555.0,16,phase_2,green_rhombus,go,,,,go-2,1,,,,,,
0,0,16,phase_2,green_circle,stop,purple,0.0,0-SSD,go-2,4,,,,,,
1,438.0,16,phase_2,blue_triangle,go,,,,go-1,1,,,,,,
2,345.0,16,phase_2,blue_circle,stop,purple,0.0,0-SSD,go-1,3,,,,,,
2,309.0,16,phase_2,blue_circle,stop,red,200.0,tracking-SSD,go-1,3,,,,,,
1,452.0,16,phase_2,blue_pentagon,go,,,,go-1,2,,,,,,
0,0,16,phase_2,green_rhombus,stop,red,150.0,tracking-SSD,go-2,4,,,,,,
2,402.0,16,phase_2,blue_circle,go,,,,go-1,1,,,,,,
2,432.0,16,phase_2,blue_pentagon,stop,red,200.0,tracking-SSD,go-1,3,,,,,,
1,566.0,16,phase_2,green_rhombus,go,,,,go-2,1,,,,,,
2,462.0,16,phase_2,green_circle,go,,,,go-2,1,,,,,,
2,358.0,16,phase_2,green_circle,stop,red,150.0,tracking-SSD,go-2,3,,,,,,
0,0,16,phase_2,green_triangle,stop,purple,0.0,0-SSD,go-2,4,,,,,,
2,522.0,16,phase_2,green_pentagon,go,,,,go-2,1,,,,,,
1,508.0,16,phase_2,green_rhombus,go,,,,go-2,1,,,,,,
0,0,16,phase_2,blue_triangle,stop,red,100.0,tracking-SSD,go-1,4,,,,,,
2,391.0,16,phase_2,blue_pentagon,go,,,,go-1,1,,,,,,
0,0,16,phase_2,blue_pentagon,stop,purple,0.0,0-SSD,go-1,4,,,,,,
1,431.0,16,phase_2,green_triangle,go,,,,go-2,1,,,,,,
0,0,16,phase_2,green_circle,stop,purple,0.0,0-SSD,go-2,4,,,,,,
1,493.0,16,phase_2,blue_triangle,go,,,,go-1,1,,,,,,
0,0,16,phase_2,blue_triangle,stop,purple,0.0,0-SSD,go-1,4,,,,,,
2,330.0,16,phase_2,green_circle,go,,,,go-2,1,,,,,,
2,429.0,16,phase_2,blue_pentagon,go,,,,go-1,1,,,,,,
2,403.0,16,phase_2,blue_pentagon,go,,,,go-1,1,,,,,,
1,457.0,16,phase_2,green_triangle,go,,,,go-2,1,,,,,,
1,511.0,16,phase_2,blue_triangle,go,,,,go-1,1,,,,,,
1,486.0,16,phase_2,blue_rhombus,go,,,,go-1,1,,,,,,
1,450.0,16,phase_2,green_rhombus,go,,,,go-2,1,,,,,,
2,420.0,17,phase_2,blue_circle,go,,,,go-1,1,,,,,,
2,373.0,17,phase_2,green_pentagon,go,,,,go-2,1,,,,,,
1,572.0,17,phase_2,blue_rhombus,go,,,,go-1,1,,,,,,
2,345.0,17,phase_2,blue_circle,go,,,,go-1,1,,,,,,
1,409.0,17,phase_2,green_triangle,go,,,,go-2,1,,,,,,
1,305.0,17,phase_2,green_triangle,go,,,,go-2,1,,,,,,
2,439.0,17,phase_2,blue_rhombus,go,,,,go-1,2,,,,,,
1,470.0,17,phase_2,green_triangle,stop,red,150.0,tracking-SSD,go-2,3,,,,,,
1,377.0,17,phase_2,green_triangle,go,,,,go-2,1,,,,,,
0,0,17,phase_2,blue_pentagon,stop,red,100.0,tracking-SSD,go-1,4,,,,,,
1,461.0,17,phase_2,green_triangle,go,,,,go-2,1,,,,,,
2,527.0,17,phase_2,green_pentagon,go,,,,go-2,1,,,,,,
1,412.0,17,phase_2,blue_rhombus,go,,,,go-1,1,,,,,,
1,365.0,17,phase_2,green_triangle,stop,red,150.0,tracking-SSD,go-2,3,,,,,,
2,475.0,17,phase_2,green_circle,go,,,,go-2,1,,,,,,
2,461.0,17,phase_2,blue_pentagon,stop,red,100.0,tracking-SSD,go-1,3,,,,,,
2,470.0,17,phase_2,blue_pentagon,go,,,,go-1,1,,,,,,
0,0,17,phase_2,blue_rhombus,stop,red,50.0,tracking-SSD,go-1,4,,,,,,
1,386.0,17,phase_2,green_triangle,go,,,,go-2,1,,,,,,
2,529.0,17,phase_2,green_pentagon,go,,,,go-2,1,,,,,,
1,528.0,17,phase_2,blue_rhombus,go,,,,go-1,1,,,,,,
2,425.0,17,phase_2,blue_circle,go,,,,go-1,1,,,,,,
2,422.0,17,phase_2,blue_circle,go,,,,go-1,1,,,,,,
0,0,17,phase_2,green_circle,stop,red,100.0,tracking-SSD,go-2,4,,,,,,
2,372.0,17,phase_2,green_circle,go,,,,go-2,1,,,,,,
2,380.0,17,phase_2,blue_circle,stop,red,150.0,tracking-SSD,go-1,3,,,,,,
2,604.0,17,phase_2,blue_pentagon,go,,,,go-1,1,,,,,,
0,0,17,phase_2,blue_rhombus,stop,purple,0.0,0-SSD,go-1,4,,,,,,
2,398.0,17,phase_2,blue_pentagon,go,,,,go-1,1,,,,,,
0,0,17,phase_2,green_triangle,stop,purple,0.0,0-SSD,go-2,4,,,,,,
0,0,17,phase_2,green_circle,stop,red,100.0,tracking-SSD,go-2,4,,,,,,
1,368.0,17,phase_2,blue_triangle,go,,,,go-1,1,,,,,,
2,344.0,17,phase_2,blue_pentagon,go,,,,go-1,1,,,,,,
2,375.0,17,phase_2,green_pentagon,go,,,,go-2,1,,,,,,
1,519.0,17,phase_2,blue_triangle,go,,,,go-1,1,,,,,,
0,0,17,phase_2,green_rhombus,stop,purple,0.0,0-SSD,go-2,4,,,,,,
0,0,17,phase_2,green_triangle,stop,purple,0.0,0-SSD,go-2,4,,,,,,
2,422.0,17,phase_2,green_pentagon,go,,,,go-2,1,,,,,,
2,463.0,17,phase_2,blue_rhombus,go,,,,go-1,2,,,,,,
1,405.0,17,phase_2,blue_rhombus,go,,,,go-1,1,,,,,,
0,0,17,phase_2,blue_circle,stop,purple,0.0,0-SSD,go-1,4,,,,,,
1,895.0,17,phase_2,green_triangle,go,,,,go-2,1,,,,,,
1,521.0,17,phase_2,green_rhombus,go,,,,go-2,1,,,,,,
1,383.0,17,phase_2,green_rhombus,go,,,,go-2,1,,,,,,
2,706.0,17,phase_2,green_circle,stop,purple,0.0,0-SSD,go-2,3,,,,,,
2,400.0,17,phase_2,green_circle,go,,,,go-2,1,,,,,,
0,0,17,phase_2,blue_rhombus,stop,purple,0.0,0-SSD,go-1,4,,,,,,
0,0,17,phase_2,blue_pentagon,stop,purple,0.0,0-SSD,go-1,4,,,,,,
,790.0,1,phase_3,,,,,,,,purple_square,0-SSD,purple_square,0-SSD,red_square,tracking-SSD
,707.0,1,phase_3,,,,,,,,blue_square,go-1,blue_square,go-1,red_square,tracking-SSD
,636.0,1,phase_3,,,,,,,,blue_square,go-1,blue_square,go-1,green_square,go-2
,777.0,1,phase_3,,,,,,,,red_square,tracking-SSD,green_square,go-2,red_square,tracking-SSD
,547.0,1,phase_3,,,,,,,,purple_square,0-SSD,blue_square,go-1,purple_square,0-SSD
,566.0,1,phase_3,,,,,,,,purple_square,0-SSD,green_square,go-2,purple_square,0-SSD
,527.0,1,phase_3,,,,,,,,purple_square,0-SSD,purple_square,0-SSD,green_square,go-2
,410.0,1,phase_3,,,,,,,,red_square,tracking-SSD,red_square,tracking-SSD,green_square,go-2
,450.0,1,phase_3,,,,,,,,blue_square,go-1,purple_square,0-SSD,blue_square,go-1
,444.0,1,phase_3,,,,,,,,blue_square,go-1,green_square,go-2,blue_square,go-1
,598.0,1,phase_3,,,,,,,,purple_square,0-SSD,red_square,tracking-SSD,purple_square,0-SSD
,627.0,1,phase_3,,,,,,,,red_square,tracking-SSD,red_square,tracking-SSD,blue_square,go-1
,532.0,2,phase_3,,,,,,,,purple_square,0-SSD,blue_square,go-1,purple_square,0-SSD
,551.0,2,phase_3,,,,,,,,red_square,tracking-SSD,green_square,go-2,red_square,tracking-SSD
,455.0,2,phase_3,,,,,,,,purple_square,0-SSD,purple_square,0-SSD,red_square,tracking-SSD
,710.0,2,phase_3,,,,,,,,blue_square,go-1,blue_square,go-1,green_square,go-2
,526.0,2,phase_3,,,,,,,,blue_square,go-1,blue_square,go-1,red_square,tracking-SSD
,599.0,2,phase_3,,,,,,,,purple_square,0-SSD,green_square,go-2,purple_square,0-SSD
,719.0,2,phase_3,,,,,,,,purple_square,0-SSD,red_square,tracking-SSD,purple_square,0-SSD
,580.0,2,phase_3,,,,,,,,blue_square,go-1,green_square,go-2,blue_square,go-1
,452.0,2,phase_3,,,,,,,,purple_square,0-SSD,purple_square,0-SSD,green_square,go-2
,1583.0,2,phase_3,,,,,,,,blue_square,go-1,red_square,tracking-SSD,blue_square,go-1
,567.0,2,phase_3,,,,,,,,purple_square,0-SSD,purple_square,0-SSD,blue_square,go-1
,866.0,2,phase_3,,,,,,,,red_square,tracking-SSD,red_square,tracking-SSD,green_square,go-2
,960.0,3,phase_3,,,,,,,,blue_square,go-1,blue_square,go-1,red_square,tracking-SSD
,731.0,3,phase_3,,,,,,,,blue_square,go-1,blue_square,go-1,green_square,go-2
,501.0,3,phase_3,,,,,,,,purple_square,0-SSD,green_square,go-2,purple_square,0-SSD
,587.0,3,phase_3,,,,,,,,purple_square,0-SSD,purple_square,0-SSD,red_square,tracking-SSD
,481.0,3,phase_3,,,,,,,,red_square,tracking-SSD,green_square,go-2,red_square,tracking-SSD
,848.0,3,phase_3,,,,,,,,purple_square,0-SSD,blue_square,go-1,purple_square,0-SSD
,754.0,3,phase_3,,,,,,,,purple_square,0-SSD,purple_square,0-SSD,blue_square,go-1
,840.0,3,phase_3,,,,,,,,red_square,tracking-SSD,red_square,tracking-SSD,green_square,go-2
,521.0,3,phase_3,,,,,,,,blue_square,go-1,red_square,tracking-SSD,blue_square,go-1
,470.0,3,phase_3,,,,,,,,purple_square,0-SSD,purple_square,0-SSD,green_square,go-2
,431.0,3,phase_3,,,,,,,,blue_square,go-1,green_square,go-2,blue_square,go-1
,505.0,3,phase_3,,,,,,,,purple_square,0-SSD,red_square,tracking-SSD,purple_square,0-SSD
,555.0,4,phase_3,,,,,,,,purple_square,0-SSD,blue_square,go-1,purple_square,0-SSD
,674.0,4,phase_3,,,,,,,,red_square,tracking-SSD,green_square,go-2,red_square,tracking-SSD
,703.0,4,phase_3,,,,,,,,blue_square,go-1,blue_square,go-1,red_square,tracking-SSD
,452.0,4,phase_3,,,,,,,,purple_square,0-SSD,purple_square,0-SSD,red_square,tracking-SSD
,504.0,4,phase_3,,,,,,,,purple_square,0-SSD,green_square,go-2,purple_square,0-SSD
,825.0,4,phase_3,,,,,,,,blue_square,go-1,blue_square,go-1,green_square,go-2
,550.0,4,phase_3,,,,,,,,purple_square,0-SSD,purple_square,0-SSD,green_square,go-2
,435.0,4,phase_3,,,,,,,,purple_square,0-SSD,red_square,tracking-SSD,purple_square,0-SSD
,452.0,4,phase_3,,,,,,,,blue_square,go-1,purple_square,0-SSD,blue_square,go-1
,662.0,4,phase_3,,,,,,,,blue_square,go-1,green_square,go-2,blue_square,go-1
,477.0,4,phase_3,,,,,,,,red_square,tracking-SSD,red_square,tracking-SSD,green_square,go-2
,472.0,4,phase_3,,,,,,,,blue_square,go-1,red_square,tracking-SSD,blue_square,go-1
,668.0,5,phase_3,,,,,,,,blue_square,go-1,blue_square,go-1,green_square,go-2
,643.0,5,phase_3,,,,,,,,purple_square,0-SSD,purple_square,0-SSD,red_square,tracking-SSD
,457.0,5,phase_3,,,,,,,,purple_square,0-SSD,green_square,go-2,purple_square,0-SSD
,408.0,5,phase_3,,,,,,,,blue_square,go-1,blue_square,go-1,purple_square,0-SSD
,696.0,5,phase_3,,,,,,,,blue_square,go-1,blue_square,go-1,red_square,tracking-SSD
,535.0,5,phase_3,,,,,,,,red_square,tracking-SSD,green_square,go-2,red_square,tracking-SSD
,777.0,5,phase_3,,,,,,,,purple_square,0-SSD,purple_square,0-SSD,blue_square,go-1
,526.0,5,phase_3,,,,,,,,blue_square,go-1,red_square,tracking-SSD,blue_square,go-1
,1252.0,5,phase_3,,,,,,,,red_square,tracking-SSD,red_square,tracking-SSD,green_square,go-2
,518.0,5,phase_3,,,,,,,,blue_square,go-1,green_square,go-2,blue_square,go-1
,491.0,5,phase_3,,,,,,,,purple_square,0-SSD,purple_square,0-SSD,green_square,go-2
,441.0,5,phase_3,,,,,,,,purple_square,0-SSD,red_square,tracking-SSD,purple_square,0-SSD
