response,reaction_time,block,which_phase,stim,stop_signal_trial_type,stop_signal_stimulus,SSD,SSD_type,condition,accuracy,chosen_stim,chosen_cond,stim_left,cond_left,stim_right,cond_right
0,0,1,phase_2,purple_rhombus,stop,red,0.0,0-SSD,go-1,4,,,,,,
2,328.0,1,phase_2,blue_circle,go,,,,go-2,1,,,,,,
2,336.0,1,phase_2,purple_circle,stop,green,250.0,tracking-SSD,go-1,3,,,,,,
2,334.0,1,phase_2,blue_circle,go,,,,go-2,1,,,,,,
1,354.0,1,phase_2,blue_pentagon,go,,,,go-2,2,,,,,,
0,0,1,phase_2,blue_rhombus,stop,red,0.0,0-SSD,go-2,4,,,,,,
2,461.0,1,phase_2,blue_triangle,go,,,,go-2,2,,,,,,
0,0,1,phase_2,purple_rhombus,stop,green,200.0,tracking-SSD,go-1,4,,,,,,
1,558.0,1,phase_2,blue_rhombus,go,,,,go-2,1,,,,,,
1,522.0,1,phase_2,blue_pentagon,go,,,,go-2,2,,,,,,
0,0,1,phase_2,blue_rhombus,stop,green,250.0,tracking-SSD,go-2,4,,,,,,
1,381.0,1,phase_2,purple_circle,go,,,,go-1,2,,,,,,
2,423.0,1,phase_2,purple_pentagon,go,,,,go-1,1,,,,,,
1,692.0,1,phase_2,blue_triangle,go,,,,go-2,1,,,,,,
2,464.0,1,phase_2,purple_pentagon,go,,,,go-1,1,,,,,,
2,416.0,1,phase_2,purple_circle,go,,,,go-1,1,,,,,,
1,380.0,1,phase_2,purple_triangle,go,,,,go-1,1,,,,,,
1,355.0,1,phase_2,purple_triangle,go,,,,go-1,1,,,,,,
1,612.0,1,phase_2,purple_rhombus,go,,,,go-1,1,,,,,,
2,519.0,1,phase_2,purple_pentagon,go,,,,go-1,1,,,,,,
1,596.0,1,phase_2,purple_rhombus,go,,,,go-1,1,,,,,,
1,582.0,1,phase_2,blue_triangle,stop,green,300.0,tracking-SSD,go-2,3,,,,,,
0,0,1,phase_2,blue_rhombus,stop,red,0.0,0-SSD,go-2,4,,,,,,
2,511.0,1,phase_2,blue_circle,go,,,,go-2,1,,,,,,
2,385.0,1,phase_2,blue_circle,stop,green,250.0,tracking-SSD,go-2,3,,,,,,
1,777.0,1,phase_2,purple_pentagon,go,,,,go-1,2,,,,,,
1,448.0,1,phase_2,purple_triangle,stop,green,200.0,tracking-SSD,go-1,3,,,,,,
2,569.0,1,phase_2,purple_pentagon,go,,,,go-1,1,,,,,,
2,668.0,1,phase_2,purple_circle,go,,,,go-1,1,,,,,,
0,0,1,phase_2,purple_circle,stop,red,0.0,0-SSD,go-1,4,,,,,,
0,0,1,phase_2,blue_pentagon,stop,red,0.0,0-SSD,go-2,4,,,,,,
1,492.0,1,phase_2,purple_triangle,go,,,,go-1,1,,,,,,
2,545.0,1,phase_2,blue_rhombus,go,,,,go-2,2,,,,,,
0,0,1,phase_2,purple_circle,stop,red,0.0,0-SSD,go-1,4,,,,,,
1,532.0,1,phase_2,blue_triangle,go,,,,go-2,1,,,,,,
0,0,1,phase_2,blue_pentagon,stop,green,150.0,tracking-SSD,go-2,4,,,,,,
2,360.0,1,phase_2,purple_rhombus,go,,,,go-1,2,,,,,,
2,549.0,1,phase_2,blue_pentagon,go,,,,go-2,1,,,,,,
1,456.0,1,phase_2,blue_pentagon,go,,,,go-2,2,,,,,,
1,556.0,1,phase_2,purple_triangle,go,,,,go-1,1,,,,,,
0,0,1,phase_2,purple_pentagon,stop,red,0.0,0-SSD,go-1,4,,,,,,
0,0,1,phase_2,blue_triangle,stop,red,0.0,0-SSD,go-2,4,,,,,,
1,706.0,1,phase_2,blue_rhombus,go,,,,go-2,1,,,,,,
0,0,1,phase_2,purple_triangle,stop,green,200.0,tracking-SSD,go-1,4,,,,,,
1,397.0,1,phase_2,blue_triangle,go,,,,go-2,1,,,,,,
2,473.0,1,phase_2,purple_circle,go,,,,go-1,1,,,,,,
1,583.0,1,phase_2,blue_rhombus,go,,,,go-2,1,,,,,,
2,435.0,1,phase_2,blue_circle,go,,,,go-2,1,,,,,,
2,655.0,2,phase_2,blue_pentagon,go,,,,go-2,1,,,,,,
1,698.0,2,phase_2,blue_rhombus,go,,,,go-2,1,,,,,,
0,0,2,phase_2,purple_triangle,stop,red,0.0,0-SSD,go-1,4,,,,,,
2,569.0,2,phase_2,blue_circle,go,,,,go-2,1,,,,,,
2,556.0,2,phase_2,purple_pentagon,stop,green,250.0,tracking-SSD,go-1,3,,,,,,
0,0,2,phase_2,purple_rhombus,stop,red,0.0,0-SSD,go-1,4,,,,,,
0,0,2,phase_2,blue_rhombus,stop,red,0.0,0-SSD,go-2,4,,,,,,
2,526.0,2,phase_2,purple_pentagon,go,,,,go-1,1,,,,,,
2,536.0,2,phase_2,blue_circle,stop,green,200.0,tracking-SSD,go-2,3,,,,,,
2,736.0,2,phase_2,purple_pentagon,go,,,,go-1,1,,,,,,
1,565.0,2,phase_2,blue_triangle,go,,,,go-2,1,,,,,,
2,383.0,2,phase_2,blue_circle,go,,,,go-2,1,,,,,,
2,415.0,2,phase_2,purple_circle,go,,,,go-1,1,,,,,,
1,513.0,2,phase_2,blue_triangle,go,,,,go-2,1,,,,,,
0,0,2,phase_2,blue_rhombus,stop,green,150.0,tracking-SSD,go-2,4,,,,,,
1,508.0,2,phase_2,blue_triangle,go,,,,go-2,1,,,,,,
1,483.0,2,phase_2,purple_triangle,go,,,,go-1,1,,,,,,
2,468.0,2,phase_2,blue_circle,go,,,,go-2,1,,,,,,
2,522.0,2,phase_2,blue_pentagon,go,,,,go-2,1,,,,,,
2,386.0,2,phase_2,blue_circle,go,,,,go-2,1,,,,,,
2,327.0,2,phase_2,blue_circle,go,,,,go-2,1,,,,,,
2,436.0,2,phase_2,purple_rhombus,go,,,,go-1,2,,,,,,
0,0,2,phase_2,purple_triangle,stop,green,200.0,tracking-SSD,go-1,4,,,,,,
1,545.0,2,phase_2,blue_triangle,go,,,,go-2,1,,,,,,
2,543.0,2,phase_2,purple_pentagon,go,,,,go-1,1,,,,,,
1,587.0,2,phase_2,blue_triangle,go,,,,go-2,1,,,,,,
2,505.0,2,phase_2,blue_circle,go,,,,go-2,1,,,,,,
2,480.0,2,phase_2,purple_circle,go,,,,go-1,1,,,,,,
0,0,2,phase_2,purple_triangle,stop,red,0.0,0-SSD,go-1,4,,,,,,
0,0,2,phase_2,purple_pentagon,stop,red,0.0,0-SSD,go-1,4,,,,,,
2,439.0,2,phase_2,purple_pentagon,go,,,,go-1,1,,,,,,
1,471.0,2,phase_2,blue_circle,stop,green,250.0,tracking-SSD,go-2,3,,,,,,
1,738.0,2,phase_2,purple_rhombus,go,,,,go-1,1,,,,,,
1,713.0,2,phase_2,purple_triangle,go,,,,go-1,1,,,,,,
0,0,2,phase_2,purple_rhombus,stop,green,200.0,tracking-SSD,go-1,4,,,,,,
2,439.0,2,phase_2,purple_pentagon,go,,,,go-1,1,,,,,,
2,448.0,2,phase_2,blue_pentagon,go,,,,go-2,1,,,,,,
2,525.0,2,phase_2,purple_pentagon,go,,,,go-1,1,,,,,,
0,0,2,phase_2,blue_rhombus,stop,green,250.0,tracking-SSD,go-2,4,,,,,,
0,0,2,phase_2,blue_rhombus,stop,red,0.0,0-SSD,go-2,4,,,,,,
2,541.0,2,phase_2,purple_circle,go,,,,go-1,1,,,,,,
1,752.0,2,phase_2,purple_rhombus,go,,,,go-1,1,,,,,,
0,0,2,phase_2,blue_triangle,stop,red,0.0,0-SSD,go-2,4,,,,,,
2,498.0,2,phase_2,purple_circle,go,,,,go-1,1,,,,,,
1,553.0,2,phase_2,blue_rhombus,go,,,,go-2,1,,,,,,
2,507.0,2,phase_2,purple_pentagon,go,,,,go-1,1,,,,,,
0,0,2,phase_2,blue_triangle,stop,red,0.0,0-SSD,go-2,4,,,,,,
0,0,2,phase_2,purple_rhombus,stop,green,300.0,tracking-SSD,go-1,4,,,,,,
0,0,3,phase_2,purple_pentagon,stop,red,0.0,0-SSD,go-1,4,,,,,,
2,430.0,3,phase_2,purple_circle,stop,green,350.0,tracking-SSD,go-1,3,,,,,,
1,483.0,3,phase_2,blue_rhombus,go,,,,go-2,1,,,,,,
2,357.0,3,phase_2,purple_rhombus,go,,,,go-1,2,,,,,,
2,546.0,3,phase_2,purple_circle,go,,,,go-1,1,,,,,,
2,533.0,3,phase_2,purple_pentagon,go,,,,go-1,1,,,,,,
1,384.0,3,phase_2,purple_rhombus,go,,,,go-1,1,,,,,,
0,0,3,phase_2,purple_circle,stop,red,0.0,0-SSD,go-1,4,,,,,,
2,558.0,3,phase_2,blue_pentagon,go,,,,go-2,1,,,,,,
2,398.0,3,phase_2,purple_rhombus,go,,,,go-1,2,,,,,,
1,644.0,3,phase_2,blue_triangle,go,,,,go-2,1,,,,,,
2,505.0,3,phase_2,blue_circle,stop,green,300.0,tracking-SSD,go-2,3,,,,,,
2,808.0,3,phase_2,purple_pentagon,go,,,,go-1,1,,,,,,
1,603.0,3,phase_2,purple_triangle,go,,,,go-1,1,,,,,,
1,488.0,3,phase_2,blue_triangle,go,,,,go-2,1,,,,,,
2,587.0,3,phase_2,blue_pentagon,stop,green,250.0,tracking-SSD,go-2,3,,,,,,
1,575.0,3,phase_2,blue_rhombus,go,,,,go-2,1,,,,,,
1,493.0,3,phase_2,purple_rhombus,go,,,,go-1,1,,,,,,
1,581.0,3,phase_2,blue_triangle,go,,,,go-2,1,,,,,,
2,512.0,3,phase_2,blue_pentagon,go,,,,go-2,1,,,,,,
1,463.0,3,phase_2,purple_circle,go,,,,go-1,2,,,,,,
0,0,3,phase_2,purple_triangle,stop,red,0.0,0-SSD,go-1,4,,,,,,
2,447.0,3,phase_2,blue_circle,go,,,,go-2,1,,,,,,
2,355.0,3,phase_2,blue_circle,go,,,,go-2,1,,,,,,
0,0,3,phase_2,blue_pentagon,stop,red,0.0,0-SSD,go-2,4,,,,,,
1,530.0,3,phase_2,purple_triangle,go,,,,go-1,1,,,,,,
2,538.0,3,phase_2,purple_circle,stop,green,200.0,tracking-SSD,go-1,3,,,,,,
1,614.0,3,phase_2,blue_rhombus,go,,,,go-2,1,,,,,,
0,0,3,phase_2,blue_triangle,stop,red,0.0,0-SSD,go-2,4,,,,,,
2,542.0,3,phase_2,blue_pentagon,go,,,,go-2,1,,,,,,
0,0,3,phase_2,purple_rhombus,stop,red,0.0,0-SSD,go-1,4,,,,,,
0,0,3,phase_2,purple_rhombus,go,,,,go-1,2,,,,,,
2,501.0,3,phase_2,blue_circle,stop,green,150.0,tracking-SSD,go-2,3,,,,,,
0,0,3,phase_2,blue_triangle,stop,green,100.0,tracking-SSD,go-2,4,,,,,,
2,474.0,3,phase_2,blue_pentagon,go,,,,go-2,1,,,,,,
1,584.0,3,phase_2,purple_triangle,go,,,,go-1,1,,,,,,
0,0,3,phase_2,blue_triangle,stop,red,0.0,0-SSD,go-2,4,,,,,,
2,376.0,3,phase_2,blue_circle,go,,,,go-2,1,,,,,,
2,409.0,3,phase_2,purple_circle,go,,,,go-1,1,,,,,,
0,0,3,phase_2,purple_triangle,stop,green,150.0,tracking-SSD,go-1,4,,,,,,
2,438.0,3,phase_2,purple_pentagon,go,,,,go-1,1,,,,,,
1,593.0,3,phase_2,blue_rhombus,go,,,,go-2,1,,,,,,
2,489.0,3,phase_2,purple_circle,go,,,,go-1,1,,,,,,
1,454.0,3,phase_2,blue_pentagon,go,,,,go-2,2,,,,,,
1,597.0,3,phase_2,blue_triangle,go,,,,go-2,1,,,,,,
1,697.0,3,phase_2,purple_rhombus,go,,,,go-1,1,,,,,,
0,0,3,phase_2,purple_pentagon,stop,green,200.0,tracking-SSD,go-1,4,,,,,,
0,0,3,phase_2,blue_rhombus,stop,red,0.0,0-SSD,go-2,4,,,,,,
2,521.0,4,phase_2,purple_pentagon,go,,,,go-1,1,,,,,,
2,531.0,4,phase_2,purple_circle,go,,,,go-1,1,,,,,,
1,562.0,4,phase_2,purple_rhombus,go,,,,go-1,1,,,,,,
2,369.0,4,phase_2,purple_rhombus,go,,,,go-1,2,,,,,,
2,456.0,4,phase_2,blue_circle,stop,green,250.0,tracking-SSD,go-2,3,,,,,,
2,387.0,4,phase_2,purple_circle,go,,,,go-1,1,,,,,,
0,0,4,phase_2,blue_rhombus,stop,red,0.0,0-SSD,go-2,4,,,,,,
1,394.0,4,phase_2,purple_rhombus,go,,,,go-1,1,,,,,,
2,437.0,4,phase_2,blue_pentagon,go,,,,go-2,1,,,,,,
2,537.0,4,phase_2,blue_pentagon,go,,,,go-2,1,,,,,,
2,388.0,4,phase_2,blue_pentagon,go,,,,go-2,1,,,,,,
2,386.0,4,phase_2,purple_rhombus,go,,,,go-1,2,,,,,,
1,596.0,4,phase_2,purple_rhombus,go,,,,go-1,1,,,,,,
1,618.0,4,phase_2,purple_triangle,go,,,,go-1,1,,,,,,
1,548.0,4,phase_2,purple_rhombus,go,,,,go-1,1,,,,,,
1,489.0,4,phase_2,blue_rhombus,go,,,,go-2,1,,,,,,
2,409.0,4,phase_2,blue_circle,stop,green,200.0,tracking-SSD,go-2,3,,,,,,
2,451.0,4,phase_2,blue_circle,go,,,,go-2,1,,,,,,
1,583.0,4,phase_2,blue_triangle,go,,,,go-2,1,,,,,,
2,480.0,4,phase_2,blue_circle,go,,,,go-2,1,,,,,,
2,476.0,4,phase_2,blue_circle,go,,,,go-2,1,,,,,,
1,497.0,4,phase_2,purple_triangle,go,,,,go-1,1,,,,,,
2,641.0,4,phase_2,purple_pentagon,go,,,,go-1,1,,,,,,
0,0,4,phase_2,purple_pentagon,stop,red,0.0,0-SSD,go-1,4,,,,,,
2,423.0,4,phase_2,blue_circle,go,,,,go-2,1,,,,,,
2,499.0,4,phase_2,blue_pentagon,stop,green,150.0,tracking-SSD,go-2,3,,,,,,
1,610.0,4,phase_2,purple_rhombus,go,,,,go-1,1,,,,,,
2,541.0,4,phase_2,blue_circle,go,,,,go-2,1,,,,,,
0,0,4,phase_2,purple_triangle,stop,red,0.0,0-SSD,go-1,4,,,,,,
1,828.0,4,phase_2,blue_triangle,go,,,,go-2,1,,,,,,
0,0,4,phase_2,blue_rhombus,stop,red,0.0,0-SSD,go-2,4,,,,,,
2,497.0,4,phase_2,purple_pentagon,go,,,,go-1,1,,,,,,
2,416.0,4,phase_2,blue_circle,go,,,,go-2,1,,,,,,
1,559.0,4,phase_2,purple_triangle,go,,,,go-1,1,,,,,,
0,0,4,phase_2,purple_pentagon,stop,green,100.0,tracking-SSD,go-1,4,,,,,,
0,0,4,phase_2,purple_triangle,stop,green,150.0,tracking-SSD,go-1,4,,,,,,
2,474.0,4,phase_2,purple_pentagon,go,,,,go-1,1,,,,,,
0,0,4,phase_2,purple_pentagon,stop,red,0.0,0-SSD,go-1,4,,,,,,
0,0,4,phase_2,blue_triangle,stop,green,200.0,tracking-SSD,go-2,4,,,,,,
1,375.0,4,phase_2,blue_triangle,go,,,,go-2,1,,,,,,
1,508.0,4,phase_2,blue_triangle,go,,,,go-2,1,,,,,,
2,405.0,4,phase_2,purple_rhombus,stop,green,250.0,tracking-SSD,go-1,3,,,,,,
0,0,4,phase_2,blue_pentagon,stop,red,0.0,0-SSD,go-2,4,,,,,,
0,0,4,phase_2,purple_circle,stop,green,200.0,tracking-SSD,go-1,4,,,,,,
1,556.0,4,phase_2,blue_triangle,go,,,,go-2,1,,,,,,
0,0,4,phase_2,purple_circle,stop,red,0.0,0-SSD,go-1,4,,,,,,
0,0,4,phase_2,blue_triangle,stop,red,0.0,0-SSD,go-2,4,,,,,,
1,628.0,4,phase_2,blue_rhombus,go,,,,go-2,1,,,,,,
1,588.0,5,phase_2,purple_rhombus,go,,,,go-1,1,,,,,,
2,553.0,5,phase_2,purple_circle,go,,,,go-1,1,,,,,,
1,482.0,5,phase_2,blue_pentagon,go,,,,go-2,2,,,,,,
2,570.0,5,phase_2,blue_circle,go,,,,go-2,1,,,,,,
1,547.0,5,phase_2,blue_triangle,go,,,,go-2,1,,,,,,
1,544.0,5,phase_2,blue_triangle,stop,green,250.0,tracking-SSD,go-2,3,,,,,,
1,418.0,5,phase_2,blue_triangle,stop,green,200.0,tracking-SSD,go-2,3,,,,,,
2,416.0,5,phase_2,purple_circle,go,,,,go-1,1,,,,,,
2,481.0,5,phase_2,purple_pentagon,go,,,,go-1,1,,,,,,
0,0,5,phase_2,blue_pentagon,stop,red,0.0,0-SSD,go-2,4,,,,,,
1,614.0,5,phase_2,blue_rhombus,go,,,,go-2,1,,,,,,
2,442.0,5,phase_2,purple_pentagon,go,,,,go-1,1,,,,,,
1,518.0,5,phase_2,purple_rhombus,go,,,,go-1,1,,,,,,
2,415.0,5,phase_2,purple_circle,stop,green,150.0,tracking-SSD,go-1,3,,,,,,
2,582.0,5,phase_2,blue_pentagon,go,,,,go-2,1,,,,,,
2,446.0,5,phase_2,blue_pentagon,go,,,,go-2,1,,,,,,
2,454.0,5,phase_2,purple_rhombus,go,,,,go-1,2,,,,,,
0,0,5,phase_2,purple_pentagon,stop,red,0.0,0-SSD,go-1,4,,,,,,
0,0,5,phase_2,purple_circle,stop,red,0.0,0-SSD,go-1,4,,,,,,
0,0,5,phase_2,blue_triangle,stop,red,0.0,0-SSD,go-2,4,,,,,,
1,613.0,5,phase_2,blue_rhombus,go,,,,go-2,1,,,,,,
2,430.0,5,phase_2,blue_pentagon,go,,,,go-2,1,,,,,,
1,495.0,5,phase_2,blue_triangle,go,,,,go-2,1,,,,,,
0,0,5,phase_2,purple_triangle,stop,green,100.0,tracking-SSD,go-1,4,,,,,,
2,378.0,5,phase_2,purple_pentagon,go,,,,go-1,1,,,,,,
2,443.0,5,phase_2,purple_pentagon,go,,,,go-1,1,,,,,,
1,631.0,5,phase_2,purple_rhombus,go,,,,go-1,1,,,,,,
2,393.0,5,phase_2,purple_rhombus,go,,,,go-1,2,,,,,,
0,0,5,phase_2,blue_triangle,stop,red,0.0,0-SSD,go-2,4,,,,,,
1,872.0,5,phase_2,blue_rhombus,go,,,,go-2,1,,,,,,
0,0,5,phase_2,blue_triangle,stop,green,150.0,tracking-SSD,go-2,4,,,,,,
2,506.0,5,phase_2,purple_circle,go,,,,go-1,1,,,,,,
1,493.0,5,phase_2,blue_rhombus,go,,,,go-2,1,,,,,,
1,400.0,5,phase_2,purple_rhombus,go,,,,go-1,1,,,,,,
0,0,5,phase_2,purple_triangle,stop,green,200.0,tracking-SSD,go-1,4,,,,,,
0,0,5,phase_2,blue_rhombus,stop,red,0.0,0-SSD,go-2,4,,,,,,
0,0,5,phase_2,purple_circle,stop,red,0.0,0-SSD,go-1,4,,,,,,
2,457.0,5,phase_2,blue_circle,stop,green,250.0,tracking-SSD,go-2,3,,,,,,
2,387.0,5,phase_2,purple_circle,stop,green,200.0,tracking-SSD,go-1,3,,,,,,
1,441.0,5,phase_2,blue_triangle,go,,,,go-2,1,,,,,,
2,439.0,5,phase_2,blue_pentagon,go,,,,go-2,1,,,,,,
0,0,5,phase_2,purple_triangle,stop,red,0.0,0-SSD,go-1,4,,,,,,
1,581.0,5,phase_2,blue_rhombus,go,,,,go-2,1,,,,,,
2,499.0,5,phase_2,blue_circle,go,,,,go-2,1,,,,,,
2,407.0,5,phase_2,purple_circle,go,,,,go-1,1,,,,,,
1,584.0,5,phase_2,purple_triangle,go,,,,go-1,1,,,,,,
2,548.0,5,phase_2,blue_pentagon,go,,,,go-2,1,,,,,,
2,568.0,5,phase_2,purple_circle,go,,,,go-1,1,,,,,,
1,499.0,6,phase_2,blue_triangle,go,,,,go-2,1,,,,,,
1,406.0,6,phase_2,blue_circle,go,,,,go-2,2,,,,,,
2,415.0,6,phase_2,purple_circle,go,,,,go-1,1,,,,,,
1,525.0,6,phase_2,purple_rhombus,go,,,,go-1,1,,,,,,
2,647.0,6,phase_2,blue_pentagon,go,,,,go-2,1,,,,,,
2,419.0,6,phase_2,purple_pentagon,go,,,,go-1,1,,,,,,
1,506.0,6,phase_2,blue_triangle,go,,,,go-2,1,,,,,,
2,436.0,6,phase_2,purple_circle,go,,,,go-1,1,,,,,,
2,514.0,6,phase_2,blue_circle,go,,,,go-2,1,,,,,,
2,390.0,6,phase_2,purple_circle,go,,,,go-1,1,,,,,,
0,0,6,phase_2,purple_rhombus,stop,red,0.0,0-SSD,go-1,4,,,,,,
1,519.0,6,phase_2,blue_triangle,go,,,,go-2,1,,,,,,
2,393.0,6,phase_2,blue_circle,go,,,,go-2,1,,,,,,
0,0,6,phase_2,purple_pentagon,stop,green,150.0,tracking-SSD,go-1,4,,,,,,
0,0,6,phase_2,purple_pentagon,stop,red,0.0,0-SSD,go-1,4,,,,,,
2,444.0,6,phase_2,blue_circle,go,,,,go-2,1,,,,,,
2,419.0,6,phase_2,blue_circle,stop,green,200.0,tracking-SSD,go-2,3,,,,,,
0,0,6,phase_2,purple_triangle,stop,green,150.0,tracking-SSD,go-1,4,,,,,,
2,448.0,6,phase_2,blue_pentagon,go,,,,go-2,1,,,,,,
0,0,6,phase_2,blue_rhombus,stop,green,200.0,tracking-SSD,go-2,4,,,,,,
0,0,6,phase_2,blue_triangle,stop,red,0.0,0-SSD,go-2,4,,,,,,
1,609.0,6,phase_2,purple_rhombus,go,,,,go-1,1,,,,,,
1,449.0,6,phase_2,purple_pentagon,stop,green,250.0,tracking-SSD,go-1,3,,,,,,
1,592.0,6,phase_2,blue_triangle,go,,,,go-2,1,,,,,,
2,737.0,6,phase_2,purple_pentagon,go,,,,go-1,1,,,,,,
1,475.0,6,phase_2,blue_triangle,stop,green,200.0,tracking-SSD,go-2,3,,,,,,
2,461.0,6,phase_2,purple_circle,go,,,,go-1,1,,,,,,
1,548.0,6,phase_2,blue_rhombus,go,,,,go-2,1,,,,,,
0,0,6,phase_2,blue_triangle,stop,red,0.0,0-SSD,go-2,4,,,,,,
0,0,6,phase_2,purple_pentagon,stop,red,0.0,0-SSD,go-1,4,,,,,,
2,586.0,6,phase_2,purple_circle,go,,,,go-1,1,,,,,,
2,572.0,6,phase_2,blue_pentagon,go,,,,go-2,1,,,,,,
2,356.0,6,phase_2,blue_pentagon,stop,green,150.0,tracking-SSD,go-2,3,,,,,,
1,568.0,6,phase_2,purple_triangle,go,,,,go-1,1,,,,,,
0,0,6,phase_2,purple_rhombus,stop,green,100.0,tracking-SSD,go-1,4,,,,,,
1,541.0,6,phase_2,purple_rhombus,go,,,,go-1,1,,,,,,
1,437.0,6,phase_2,blue_rhombus,go,,,,go-2,1,,,,,,
2,411.0,6,phase_2,blue_circle,go,,,,go-2,1,,,,,,
2,364.0,6,phase_2,blue_rhombus,go,,,,go-2,2,,,,,,
1,383.0,6,phase_2,blue_pentagon,go,,,,go-2,2,,,,,,
1,775.0,6,phase_2,purple_rhombus,go,,,,go-1,1,,,,,,
1,582.0,6,phase_2,purple_triangle,go,,,,go-1,1,,,,,,
0,0,6,phase_2,blue_triangle,stop,red,0.0,0-SSD,go-2,4,,,,,,
1,541.0,6,phase_2,purple_rhombus,go,,,,go-1,1,,,,,,
2,450.0,6,phase_2,purple_circle,go,,,,go-1,1,,,,,,
0,0,6,phase_2,purple_pentagon,stop,red,0.0,0-SSD,go-1,4,,,,,,
1,568.0,6,phase_2,purple_rhombus,go,,,,go-1,1,,,,,,
0,0,6,phase_2,blue_triangle,stop,red,0.0,0-SSD,go-2,4,,,,,,
2,454.0,7,phase_2,blue_circle,stop,green,150.0,tracking-SSD,go-2,3,,,,,,
2,430.0,7,phase_2,purple_rhombus,go,,,,go-1,2,,,,,,
2,449.0,7,phase_2,purple_pentagon,go,,,,go-1,1,,,,,,
1,526.0,7,phase_2,blue_rhombus,go,,,,go-2,1,,,,,,
0,0,7,phase_2,purple_rhombus,stop,red,0.0,0-SSD,go-1,4,,,,,,
0,0,7,phase_2,purple_triangle,stop,red,0.0,0-SSD,go-1,4,,,,,,
2,463.0,7,phase_2,blue_pentagon,go,,,,go-2,1,,,,,,
1,517.0,7,phase_2,blue_rhombus,go,,,,go-2,1,,,,,,
2,548.0,7,phase_2,blue_circle,go,,,,go-2,1,,,,,,
2,592.0,7,phase_2,blue_pentagon,go,,,,go-2,1,,,,,,
1,522.0,7,phase_2,blue_rhombus,go,,,,go-2,1,,,,,,
1,576.0,7,phase_2,blue_rhombus,go,,,,go-2,1,,,,,,
2,461.0,7,phase_2,purple_rhombus,go,,,,go-1,2,,,,,,
2,503.0,7,phase_2,blue_pentagon,go,,,,go-2,1,,,,,,
1,535.0,7,phase_2,blue_triangle,go,,,,go-2,1,,,,,,
0,0,7,phase_2,blue_rhombus,stop,green,100.0,tracking-SSD,go-2,4,,,,,,
0,0,7,phase_2,purple_pentagon,stop,green,150.0,tracking-SSD,go-1,4,,,,,,
1,482.0,7,phase_2,blue_triangle,go,,,,go-2,1,,,,,,
0,0,7,phase_2,purple_pentagon,stop,red,0.0,0-SSD,go-1,4,,,,,,
2,511.0,7,phase_2,blue_circle,go,,,,go-2,1,,,,,,
2,497.0,7,phase_2,blue_circle,go,,,,go-2,1,,,,,,
2,393.0,7,phase_2,blue_circle,stop,green,200.0,tracking-SSD,go-2,3,,,,,,
0,0,7,phase_2,blue_pentagon,stop,red,0.0,0-SSD,go-2,4,,,,,,
1,602.0,7,phase_2,purple_rhombus,go,,,,go-1,1,,,,,,
1,397.0,7,phase_2,purple_triangle,go,,,,go-1,1,,,,,,
2,508.0,7,phase_2,purple_circle,go,,,,go-1,1,,,,,,
0,0,7,phase_2,purple_pentagon,stop,red,0.0,0-SSD,go-1,4,,,,,,
1,548.0,7,phase_2,blue_rhombus,go,,,,go-2,1,,,,,,
1,557.0,7,phase_2,purple_triangle,go,,,,go-1,1,,,,,,
2,521.0,7,phase_2,purple_circle,go,,,,go-1,1,,,,,,
0,0,7,phase_2,blue_triangle,stop,red,0.0,0-SSD,go-2,4,,,,,,
1,517.0,7,phase_2,purple_triangle,go,,,,go-1,1,,,,,,
1,459.0,7,phase_2,blue_triangle,go,,,,go-2,1,,,,,,
0,0,7,phase_2,blue_pentagon,stop,red,0.0,0-SSD,go-2,4,,,,,,
0,0,7,phase_2,blue_triangle,stop,red,0.0,0-SSD,go-2,4,,,,,,
2,532.0,7,phase_2,purple_pentagon,go,,,,go-1,1,,,,,,
2,609.0,7,phase_2,purple_circle,go,,,,go-1,1,,,,,,
2,381.0,7,phase_2,purple_circle,go,,,,go-1,1,,,,,,
1,558.0,7,phase_2,purple_triangle,go,,,,go-1,1,,,,,,
2,623.0,7,phase_2,blue_pentagon,go,,,,go-2,1,,,,,,
0,0,7,phase_2,purple_circle,stop,green,150.0,tracking-SSD,go-1,4,,,,,,
0,0,7,phase_2,purple_circle,stop,green,200.0,tracking-SSD,go-1,4,,,,,,
2,481.0,7,phase_2,blue_pentagon,go,,,,go-2,1,,,,,,
1,614.0,7,phase_2,purple_rhombus,go,,,,go-1,1,,,,,,
0,0,7,phase_2,blue_triangle,stop,green,250.0,tracking-SSD,go-2,4,,,,,,
2,665.0,7,phase_2,purple_circle,go,,,,go-1,1,,,,,,
0,0,7,phase_2,purple_triangle,stop,green,300.0,tracking-SSD,go-1,4,,,,,,
1,648.0,7,phase_2,purple_rhombus,go,,,,go-1,1,,,,,,
0,0,8,phase_2,purple_rhombus,stop,red,0.0,0-SSD,go-1,4,,,,,,
2,540.0,8,phase_2,blue_circle,stop,green,350.0,tracking-SSD,go-2,3,,,,,,
0,0,8,phase_2,blue_pentagon,stop,red,0.0,0-SSD,go-2,4,,,,,,
2,401.0,8,phase_2,blue_circle,go,,,,go-2,1,,,,,,
1,511.0,8,phase_2,purple_triangle,go,,,,go-1,1,,,,,,
2,429.0,8,phase_2,blue_circle,go,,,,go-2,1,,,,,,
1,360.0,8,phase_2,blue_triangle,go,,,,go-2,1,,,,,,
1,458.0,8,phase_2,purple_rhombus,stop,green,300.0,tracking-SSD,go-1,3,,,,,,
2,354.0,8,phase_2,purple_triangle,go,,,,go-1,2,,,,,,
1,475.0,8,phase_2,purple_triangle,go,,,,go-1,1,,,,,,
2,630.0,8,phase_2,blue_circle,go,,,,go-2,1,,,,,,
1,729.0,8,phase_2,blue_rhombus,go,,,,go-2,1,,,,,,
0,0,8,phase_2,purple_circle,stop,green,250.0,tracking-SSD,go-1,4,,,,,,
1,487.0,8,phase_2,blue_pentagon,go,,,,go-2,2,,,,,,
0,0,8,phase_2,blue_circle,stop,green,300.0,tracking-SSD,go-2,4,,,,,,
1,494.0,8,phase_2,purple_rhombus,go,,,,go-1,1,,,,,,
2,457.0,8,phase_2,blue_pentagon,go,,,,go-2,1,,,,,,
1,478.0,8,phase_2,blue_rhombus,go,,,,go-2,1,,,,,,
2,408.0,8,phase_2,blue_pentagon,stop,green,350.0,tracking-SSD,go-2,3,,,,,,
0,0,8,phase_2,purple_circle,stop,red,0.0,0-SSD,go-1,4,,,,,,
2,448.0,8,phase_2,blue_pentagon,go,,,,go-2,1,,,,,,
0,0,8,phase_2,purple_triangle,stop,red,0.0,0-SSD,go-1,4,,,,,,
1,588.0,8,phase_2,purple_rhombus,go,,,,go-1,1,,,,,,
0,0,8,phase_2,blue_triangle,stop,red,0.0,0-SSD,go-2,4,,,,,,
2,494.0,8,phase_2,purple_circle,go,,,,go-1,1,,,,,,
2,547.0,8,phase_2,purple_pentagon,go,,,,go-1,1,,,,,,
1,601.0,8,phase_2,blue_rhombus,go,,,,go-2,1,,,,,,
1,475.0,8,phase_2,blue_rhombus,go,,,,go-2,1,,,,,,
2,450.0,8,phase_2,purple_pentagon,go,,,,go-1,1,,,,,,
1,516.0,8,phase_2,purple_triangle,stop,green,300.0,tracking-SSD,go-1,3,,,,,,
1,547.0,8,phase_2,purple_triangle,go,,,,go-1,1,,,,,,
1,420.0,8,phase_2,blue_rhombus,go,,,,go-2,1,,,,,,
2,440.0,8,phase_2,purple_pentagon,go,,,,go-1,1,,,,,,
0,0,8,phase_2,purple_pentagon,stop,red,0.0,0-SSD,go-1,4,,,,,,
1,547.0,8,phase_2,blue_rhombus,go,,,,go-2,1,,,,,,
2,443.0,8,phase_2,purple_circle,go,,,,go-1,1,,,,,,
2,429.0,8,phase_2,purple_circle,go,,,,go-1,1,,,,,,
2,392.0,8,phase_2,blue_circle,go,,,,go-2,1,,,,,,
1,616.0,8,phase_2,blue_rhombus,go,,,,go-2,1,,,,,,
0,0,8,phase_2,blue_triangle,stop,red,0.0,0-SSD,go-2,4,,,,,,
2,464.0,8,phase_2,purple_circle,stop,green,250.0,tracking-SSD,go-1,3,,,,,,
1,517.0,8,phase_2,blue_triangle,go,,,,go-2,1,,,,,,
1,436.0,8,phase_2,purple_triangle,go,,,,go-1,1,,,,,,
0,0,8,phase_2,blue_pentagon,stop,red,0.0,0-SSD,go-2,4,,,,,,
1,444.0,8,phase_2,purple_rhombus,go,,,,go-1,1,,,,,,
2,532.0,8,phase_2,purple_pentagon,go,,,,go-1,1,,,,,,
2,451.0,8,phase_2,blue_pentagon,stop,green,200.0,tracking-SSD,go-2,3,,,,,,
1,483.0,8,phase_2,purple_triangle,go,,,,go-1,1,,,,,,
2,397.0,9,phase_2,purple_circle,go,,,,go-1,1,,,,,,
2,416.0,9,phase_2,blue_pentagon,stop,green,150.0,tracking-SSD,go-2,3,,,,,,
1,391.0,9,phase_2,blue_triangle,go,,,,go-2,1,,,,,,
2,378.0,9,phase_2,blue_circle,go,,,,go-2,1,,,,,,
0,0,9,phase_2,blue_triangle,stop,green,100.0,tracking-SSD,go-2,4,,,,,,
0,0,9,phase_2,purple_pentagon,stop,red,0.0,0-SSD,go-1,4,,,,,,
2,371.0,9,phase_2,purple_pentagon,go,,,,go-1,1,,,,,,
2,706.0,9,phase_2,purple_triangle,go,,,,go-1,2,,,,,,
0,0,9,phase_2,purple_circle,stop,red,0.0,0-SSD,go-1,4,,,,,,
1,374.0,9,phase_2,blue_triangle,go,,,,go-2,1,,,,,,
0,0,9,phase_2,purple_circle,stop,red,0.0,0-SSD,go-1,4,,,,,,
1,425.0,9,phase_2,purple_rhombus,go,,,,go-1,1,,,,,,
0,0,9,phase_2,blue_circle,stop,green,150.0,tracking-SSD,go-2,4,,,,,,
2,409.0,9,phase_2,purple_rhombus,go,,,,go-1,2,,,,,,
1,406.0,9,phase_2,blue_rhombus,go,,,,go-2,1,,,,,,
0,0,9,phase_2,blue_triangle,stop,red,0.0,0-SSD,go-2,4,,,,,,
0,0,9,phase_2,purple_circle,stop,red,0.0,0-SSD,go-1,4,,,,,,
1,579.0,9,phase_2,blue_rhombus,go,,,,go-2,1,,,,,,
0,0,9,phase_2,purple_triangle,stop,green,200.0,tracking-SSD,go-1,4,,,,,,
2,552.0,9,phase_2,purple_circle,go,,,,go-1,1,,,,,,
2,414.0,9,phase_2,purple_pentagon,stop,green,250.0,tracking-SSD,go-1,3,,,,,,
1,490.0,9,phase_2,blue_triangle,go,,,,go-2,1,,,,,,
2,522.0,9,phase_2,blue_rhombus,go,,,,go-2,2,,,,,,
2,597.0,9,phase_2,purple_pentagon,go,,,,go-1,1,,,,,,
0,0,9,phase_2,blue_pentagon,stop,red,0.0,0-SSD,go-2,4,,,,,,
1,468.0,9,phase_2,purple_triangle,go,,,,go-1,1,,,,,,
2,590.0,9,phase_2,blue_pentagon,go,,,,go-2,1,,,,,,
2,464.0,9,phase_2,blue_pentagon,stop,green,200.0,tracking-SSD,go-2,3,,,,,,
1,540.0,9,phase_2,blue_rhombus,go,,,,go-2,1,,,,,,
2,571.0,9,phase_2,blue_circle,go,,,,go-2,1,,,,,,
1,512.0,9,phase_2,blue_triangle,go,,,,go-2,1,,,,,,
1,678.0,9,phase_2,purple_rhombus,go,,,,go-1,1,,,,,,
1,495.0,9,phase_2,purple_rhombus,go,,,,go-1,1,,,,,,
0,0,9,phase_2,purple_rhombus,stop,green,150.0,tracking-SSD,go-1,4,,,,,,
1,457.0,9,phase_2,purple_rhombus,go,,,,go-1,1,,,,,,
0,0,9,phase_2,blue_circle,stop,red,0.0,0-SSD,go-2,4,,,,,,
2,823.0,9,phase_2,purple_pentagon,go,,,,go-1,1,,,,,,
2,395.0,9,phase_2,blue_circle,go,,,,go-2,1,,,,,,
2,449.0,9,phase_2,blue_circle,go,,,,go-2,1,,,,,,
2,435.0,9,phase_2,purple_pentagon,go,,,,go-1,1,,,,,,
2,534.0,9,phase_2,blue_pentagon,go,,,,go-2,1,,,,,,
1,779.0,9,phase_2,blue_triangle,go,,,,go-2,1,,,,,,
2,428.0,9,phase_2,purple_rhombus,go,,,,go-1,2,,,,,,
1,504.0,9,phase_2,purple_rhombus,go,,,,go-1,1,,,,,,
0,0,9,phase_2,blue_triangle,stop,red,0.0,0-SSD,go-2,4,,,,,,
2,567.0,9,phase_2,blue_circle,go,,,,go-2,1,,,,,,
1,418.0,9,phase_2,purple_triangle,stop,green,200.0,tracking-SSD,go-1,3,,,,,,
1,472.0,9,phase_2,purple_pentagon,go,,,,go-1,2,,,,,,
0,0,10,phase_2,purple_triangle,stop,green,150.0,tracking-SSD,go-1,4,,,,,,
2,553.0,10,phase_2,blue_circle,go,,,,go-2,1,,,,,,
1,450.0,10,phase_2,blue_rhombus,go,,,,go-2,1,,,,,,
1,526.0,10,phase_2,blue_rhombus,go,,,,go-2,1,,,,,,
1,557.0,10,phase_2,blue_triangle,go,,,,go-2,1,,,,,,
2,487.0,10,phase_2,purple_pentagon,go,,,,go-1,1,,,,,,
2,586.0,10,phase_2,blue_pentagon,go,,,,go-2,1,,,,,,
1,449.0,10,phase_2,blue_circle,stop,green,200.0,tracking-SSD,go-2,3,,,,,,
2,660.0,10,phase_2,purple_pentagon,go,,,,go-1,1,,,,,,
0,0,10,phase_2,blue_triangle,stop,red,0.0,0-SSD,go-2,4,,,,,,
1,442.0,10,phase_2,blue_triangle,stop,green,150.0,tracking-SSD,go-2,3,,,,,,
2,484.0,10,phase_2,purple_rhombus,go,,,,go-1,2,,,,,,
2,573.0,10,phase_2,blue_circle,go,,,,go-2,1,,,,,,
2,491.0,10,phase_2,purple_circle,go,,,,go-1,1,,,,,,
2,388.0,10,phase_2,blue_circle,go,,,,go-2,1,,,,,,
0,0,10,phase_2,purple_pentagon,stop,red,0.0,0-SSD,go-1,4,,,,,,
1,597.0,10,phase_2,purple_rhombus,go,,,,go-1,1,,,,,,
0,0,10,phase_2,blue_rhombus,stop,green,100.0,tracking-SSD,go-2,4,,,,,,
2,491.0,10,phase_2,purple_circle,go,,,,go-1,1,,,,,,
1,544.0,10,phase_2,purple_triangle,go,,,,go-1,1,,,,,,
1,350.0,10,phase_2,purple_pentagon,go,,,,go-1,2,,,,,,
1,686.0,10,phase_2,purple_triangle,go,,,,go-1,1,,,,,,
0,0,10,phase_2,purple_pentagon,stop,red,0.0,0-SSD,go-1,4,,,,,,
0,0,10,phase_2,purple_pentagon,stop,red,0.0,0-SSD,go-1,4,,,,,,
1,565.0,10,phase_2,blue_triangle,go,,,,go-2,1,,,,,,
1,495.0,10,phase_2,purple_triangle,stop,green,150.0,tracking-SSD,go-1,3,,,,,,
1,392.0,10,phase_2,purple_triangle,go,,,,go-1,1,,,,,,
2,480.0,10,phase_2,blue_circle,go,,,,go-2,1,,,,,,
1,533.0,10,phase_2,purple_triangle,go,,,,go-1,1,,,,,,
0,0,10,phase_2,purple_circle,stop,green,100.0,tracking-SSD,go-1,4,,,,,,
2,461.0,10,phase_2,blue_pentagon,go,,,,go-2,1,,,,,,
1,582.0,10,phase_2,purple_triangle,go,,,,go-1,1,,,,,,
2,512.0,10,phase_2,blue_rhombus,go,,,,go-2,2,,,,,,
1,622.0,10,phase_2,purple_rhombus,go,,,,go-1,1,,,,,,
0,0,10,phase_2,blue_pentagon,stop,green,150.0,tracking-SSD,go-2,4,,,,,,
0,0,10,phase_2,purple_rhombus,stop,red,0.0,0-SSD,go-1,4,,,,,,
1,570.0,10,phase_2,purple_rhombus,go,,,,go-1,1,,,,,,
0,0,10,phase_2,blue_pentagon,stop,red,0.0,0-SSD,go-2,4,,,,,,
0,0,10,phase_2,blue_circle,stop,red,0.0,0-SSD,go-2,4,,,,,,
2,370.0,10,phase_2,blue_circle,go,,,,go-2,1,,,,,,
2,479.0,10,phase_2,blue_rhombus,go,,,,go-2,2,,,,,,
2,512.0,10,phase_2,purple_pentagon,go,,,,go-1,1,,,,,,
2,576.0,10,phase_2,blue_circle,go,,,,go-2,1,,,,,,
2,439.0,10,phase_2,purple_circle,stop,green,200.0,tracking-SSD,go-1,3,,,,,,
1,717.0,10,phase_2,blue_rhombus,go,,,,go-2,1,,,,,,
0,0,10,phase_2,blue_triangle,stop,red,0.0,0-SSD,go-2,4,,,,,,
1,633.0,10,phase_2,blue_rhombus,go,,,,go-2,1,,,,,,
2,575.0,10,phase_2,purple_pentagon,go,,,,go-1,1,,,,,,
2,387.0,11,phase_2,purple_circle,stop,green,150.0,tracking-SSD,go-1,3,,,,,,
2,373.0,11,phase_2,purple_circle,go,,,,go-1,1,,,,,,
2,359.0,11,phase_2,purple_circle,go,,,,go-1,1,,,,,,
0,0,11,phase_2,purple_triangle,stop,green,100.0,tracking-SSD,go-1,4,,,,,,
1,591.0,11,phase_2,blue_rhombus,go,,,,go-2,1,,,,,,
1,453.0,11,phase_2,purple_triangle,go,,,,go-1,1,,,,,,
1,383.0,11,phase_2,purple_rhombus,go,,,,go-1,1,,,,,,
0,0,11,phase_2,purple_circle,stop,red,0.0,0-SSD,go-1,4,,,,,,
0,0,11,phase_2,purple_pentagon,stop,red,0.0,0-SSD,go-1,4,,,,,,
1,488.0,11,phase_2,blue_triangle,go,,,,go-2,1,,,,,,
1,406.0,11,phase_2,purple_triangle,go,,,,go-1,1,,,,,,
0,0,11,phase_2,blue_circle,stop,red,0.0,0-SSD,go-2,4,,,,,,
0,0,11,phase_2,purple_pentagon,stop,red,0.0,0-SSD,go-1,4,,,,,,
0,0,11,phase_2,purple_rhombus,stop,red,0.0,0-SSD,go-1,4,,,,,,
1,498.0,11,phase_2,purple_triangle,go,,,,go-1,1,,,,,,
1,664.0,11,phase_2,blue_pentagon,go,,,,go-2,2,,,,,,
2,504.0,11,phase_2,blue_pentagon,go,,,,go-2,1,,,,,,
0,0,11,phase_2,blue_pentagon,stop,red,0.0,0-SSD,go-2,4,,,,,,
2,633.0,11,phase_2,purple_circle,go,,,,go-1,1,,,,,,
0,0,11,phase_2,purple_triangle,stop,green,150.0,tracking-SSD,go-1,4,,,,,,
2,629.0,11,phase_2,blue_pentagon,go,,,,go-2,1,,,,,,
1,525.0,11,phase_2,purple_triangle,go,,,,go-1,1,,,,,,
0,0,11,phase_2,blue_pentagon,stop,green,200.0,tracking-SSD,go-2,4,,,,,,
0,0,11,phase_2,purple_rhombus,go,,,,go-1,2,,,,,,
2,596.0,11,phase_2,blue_circle,go,,,,go-2,1,,,,,,
1,504.0,11,phase_2,purple_triangle,go,,,,go-1,1,,,,,,
1,613.0,11,phase_2,blue_rhombus,go,,,,go-2,1,,,,,,
2,476.0,11,phase_2,blue_rhombus,go,,,,go-2,2,,,,,,
1,451.0,11,phase_2,blue_pentagon,go,,,,go-2,2,,,,,,
2,583.0,11,phase_2,blue_circle,go,,,,go-2,1,,,,,,
2,592.0,11,phase_2,blue_pentagon,go,,,,go-2,1,,,,,,
1,645.0,11,phase_2,purple_rhombus,go,,,,go-1,1,,,,,,
0,0,11,phase_2,blue_triangle,stop,red,0.0,0-SSD,go-2,4,,,,,,
1,922.0,11,phase_2,purple_rhombus,go,,,,go-1,1,,,,,,
2,593.0,11,phase_2,blue_pentagon,stop,green,250.0,tracking-SSD,go-2,3,,,,,,
2,501.0,11,phase_2,purple_pentagon,go,,,,go-1,1,,,,,,
0,0,11,phase_2,blue_triangle,stop,green,200.0,tracking-SSD,go-2,4,,,,,,
1,641.0,11,phase_2,blue_rhombus,go,,,,go-2,1,,,,,,
2,594.0,11,phase_2,purple_circle,go,,,,go-1,1,,,,,,
2,445.0,11,phase_2,purple_circle,go,,,,go-1,1,,,,,,
1,736.0,11,phase_2,purple_rhombus,go,,,,go-1,1,,,,,,
2,519.0,11,phase_2,blue_circle,go,,,,go-2,1,,,,,,
0,0,11,phase_2,blue_rhombus,stop,red,0.0,0-SSD,go-2,4,,,,,,
1,570.0,11,phase_2,blue_rhombus,stop,green,250.0,tracking-SSD,go-2,3,,,,,,
1,624.0,11,phase_2,blue_triangle,go,,,,go-2,1,,,,,,
1,487.0,11,phase_2,blue_triangle,go,,,,go-2,1,,,,,,
0,0,11,phase_2,purple_circle,stop,green,200.0,tracking-SSD,go-1,4,,,,,,
2,548.0,11,phase_2,blue_pentagon,go,,,,go-2,1,,,,,,
0,0,12,phase_2,blue_rhombus,stop,red,0.0,0-SSD,go-2,4,,,,,,
0,0,12,phase_2,blue_pentagon,stop,red,0.0,0-SSD,go-2,4,,,,,,
2,527.0,12,phase_2,purple_pentagon,go,,,,go-1,1,,,,,,
2,401.0,12,phase_2,blue_circle,go,,,,go-2,1,,,,,,
1,556.0,12,phase_2,blue_rhombus,go,,,,go-2,1,,,,,,
1,587.0,12,phase_2,blue_triangle,go,,,,go-2,1,,,,,,
2,629.0,12,phase_2,purple_pentagon,go,,,,go-1,1,,,,,,
2,391.0,12,phase_2,purple_triangle,go,,,,go-1,2,,,,,,
0,0,12,phase_2,purple_rhombus,stop,red,0.0,0-SSD,go-1,4,,,,,,
1,578.0,12,phase_2,blue_triangle,go,,,,go-2,1,,,,,,
2,417.0,12,phase_2,purple_circle,go,,,,go-1,1,,,,,,
1,606.0,12,phase_2,blue_triangle,go,,,,go-2,1,,,,,,
2,502.0,12,phase_2,purple_circle,go,,,,go-1,1,,,,,,
1,589.0,12,phase_2,purple_rhombus,go,,,,go-1,1,,,,,,
1,553.0,12,phase_2,purple_rhombus,go,,,,go-1,1,,,,,,
1,617.0,12,phase_2,blue_triangle,go,,,,go-2,1,,,,,,
2,570.0,12,phase_2,blue_circle,go,,,,go-2,1,,,,,,
2,354.0,12,phase_2,blue_circle,go,,,,go-2,1,,,,,,
0,0,12,phase_2,purple_rhombus,stop,red,0.0,0-SSD,go-1,4,,,,,,
2,563.0,12,phase_2,blue_circle,go,,,,go-2,1,,,,,,
1,537.0,12,phase_2,purple_pentagon,go,,,,go-1,2,,,,,,
2,513.0,12,phase_2,blue_pentagon,go,,,,go-2,1,,,,,,
0,0,12,phase_2,purple_circle,stop,green,250.0,tracking-SSD,go-1,4,,,,,,
1,496.0,12,phase_2,blue_triangle,go,,,,go-2,1,,,,,,
2,438.0,12,phase_2,blue_rhombus,go,,,,go-2,2,,,,,,
0,0,12,phase_2,purple_rhombus,stop,red,0.0,0-SSD,go-1,4,,,,,,
0,0,12,phase_2,blue_triangle,stop,green,300.0,tracking-SSD,go-2,4,,,,,,
1,576.0,12,phase_2,purple_rhombus,go,,,,go-1,1,,,,,,
1,517.0,12,phase_2,purple_rhombus,go,,,,go-1,1,,,,,,
1,695.0,12,phase_2,purple_rhombus,stop,green,350.0,tracking-SSD,go-1,3,,,,,,
2,523.0,12,phase_2,purple_circle,go,,,,go-1,1,,,,,,
0,0,12,phase_2,blue_circle,go,,,,go-2,2,,,,,,
2,586.0,12,phase_2,blue_pentagon,go,,,,go-2,1,,,,,,
2,482.0,12,phase_2,blue_pentagon,go,,,,go-2,1,,,,,,
2,502.0,12,phase_2,purple_pentagon,go,,,,go-1,1,,,,,,
2,522.0,12,phase_2,purple_pentagon,go,,,,go-1,1,,,,,,
0,0,12,phase_2,blue_circle,stop,green,300.0,tracking-SSD,go-2,4,,,,,,
2,665.0,12,phase_2,purple_circle,go,,,,go-1,1,,,,,,
1,616.0,12,phase_2,blue_triangle,stop,green,350.0,tracking-SSD,go-2,3,,,,,,
1,491.0,12,phase_2,purple_triangle,go,,,,go-1,1,,,,,,
0,0,12,phase_2,blue_pentagon,stop,red,0.0,0-SSD,go-2,4,,,,,,
1,542.0,12,phase_2,blue_triangle,go,,,,go-2,1,,,,,,
0,0,12,phase_2,purple_triangle,stop,red,0.0,0-SSD,go-1,4,,,,,,
1,525.0,12,phase_2,purple_rhombus,stop,green,300.0,tracking-SSD,go-1,3,,,,,,
1,782.0,12,phase_2,purple_triangle,go,,,,go-1,1,,,,,,
0,0,12,phase_2,blue_circle,stop,red,0.0,0-SSD,go-2,4,,,,,,
0,0,12,phase_2,purple_pentagon,stop,green,250.0,tracking-SSD,go-1,4,,,,,,
0,0,12,phase_2,blue_pentagon,stop,green,300.0,tracking-SSD,go-2,4,,,,,,
2,421.0,13,phase_2,blue_rhombus,go,,,,go-2,2,,,,,,
1,497.0,13,phase_2,purple_rhombus,go,,,,go-1,1,,,,,,
1,483.0,13,phase_2,blue_triangle,go,,,,go-2,1,,,,,,
1,413.0,13,phase_2,purple_triangle,go,,,,go-1,1,,,,,,
1,388.0,13,phase_2,purple_triangle,go,,,,go-1,1,,,,,,
2,498.0,13,phase_2,purple_pentagon,go,,,,go-1,1,,,,,,
1,463.0,13,phase_2,purple_triangle,stop,red,0.0,0-SSD,go-1,3,,,,,,
2,505.0,13,phase_2,blue_circle,go,,,,go-2,1,,,,,,
2,480.0,13,phase_2,purple_pentagon,go,,,,go-1,1,,,,,,
1,466.0,13,phase_2,purple_rhombus,go,,,,go-1,1,,,,,,
2,328.0,13,phase_2,blue_pentagon,go,,,,go-2,1,,,,,,
0,0,13,phase_2,purple_rhombus,stop,red,0.0,0-SSD,go-1,4,,,,,,
1,536.0,13,phase_2,purple_rhombus,stop,green,350.0,tracking-SSD,go-1,3,,,,,,
1,556.0,13,phase_2,purple_triangle,go,,,,go-1,1,,,,,,
1,396.0,13,phase_2,blue_triangle,go,,,,go-2,1,,,,,,
1,417.0,13,phase_2,blue_rhombus,go,,,,go-2,1,,,,,,
2,403.0,13,phase_2,purple_circle,stop,green,300.0,tracking-SSD,go-1,3,,,,,,
0,0,13,phase_2,purple_circle,stop,red,0.0,0-SSD,go-1,4,,,,,,
0,0,13,phase_2,blue_pentagon,stop,red,0.0,0-SSD,go-2,4,,,,,,
2,373.0,13,phase_2,blue_circle,go,,,,go-2,1,,,,,,
2,449.0,13,phase_2,purple_circle,go,,,,go-1,1,,,,,,
0,0,13,phase_2,purple_rhombus,stop,red,0.0,0-SSD,go-1,4,,,,,,
2,455.0,13,phase_2,purple_rhombus,go,,,,go-1,2,,,,,,
2,576.0,13,phase_2,purple_circle,go,,,,go-1,1,,,,,,
2,484.0,13,phase_2,blue_pentagon,go,,,,go-2,1,,,,,,
2,493.0,13,phase_2,blue_pentagon,stop,green,250.0,tracking-SSD,go-2,3,,,,,,
0,0,13,phase_2,blue_triangle,stop,green,200.0,tracking-SSD,go-2,4,,,,,,
1,431.0,13,phase_2,purple_rhombus,go,,,,go-1,1,,,,,,
2,541.0,13,phase_2,blue_circle,go,,,,go-2,1,,,,,,
0,0,13,phase_2,blue_triangle,stop,green,250.0,tracking-SSD,go-2,4,,,,,,
1,446.0,13,phase_2,blue_pentagon,go,,,,go-2,2,,,,,,
1,681.0,13,phase_2,purple_rhombus,go,,,,go-1,1,,,,,,
2,475.0,13,phase_2,blue_pentagon,go,,,,go-2,1,,,,,,
2,596.0,13,phase_2,purple_circle,stop,green,300.0,tracking-SSD,go-1,3,,,,,,
0,0,13,phase_2,blue_rhombus,stop,red,0.0,0-SSD,go-2,4,,,,,,
2,749.0,13,phase_2,purple_circle,go,,,,go-1,1,,,,,,
1,701.0,13,phase_2,blue_triangle,go,,,,go-2,1,,,,,,
1,518.0,13,phase_2,blue_triangle,go,,,,go-2,1,,,,,,
0,0,13,phase_2,purple_rhombus,go,,,,go-1,2,,,,,,
0,0,13,phase_2,blue_pentagon,stop,red,0.0,0-SSD,go-2,4,,,,,,
1,454.0,13,phase_2,purple_pentagon,go,,,,go-1,2,,,,,,
0,0,13,phase_2,blue_pentagon,stop,red,0.0,0-SSD,go-2,4,,,,,,
2,415.0,13,phase_2,purple_circle,go,,,,go-1,1,,,,,,
2,457.0,13,phase_2,blue_circle,go,,,,go-2,1,,,,,,
2,546.0,13,phase_2,blue_pentagon,stop,green,250.0,tracking-SSD,go-2,3,,,,,,
1,566.0,13,phase_2,purple_triangle,stop,green,200.0,tracking-SSD,go-1,3,,,,,,
2,540.0,13,phase_2,blue_circle,go,,,,go-2,1,,,,,,
1,582.0,13,phase_2,blue_triangle,go,,,,go-2,1,,,,,,
0,0,14,phase_2,blue_triangle,stop,green,150.0,tracking-SSD,go-2,4,,,,,,
2,731.0,14,phase_2,blue_pentagon,go,,,,go-2,1,,,,,,
1,470.0,14,phase_2,blue_triangle,go,,,,go-2,1,,,,,,
1,682.0,14,phase_2,purple_rhombus,go,,,,go-1,1,,,,,,
1,533.0,14,phase_2,purple_pentagon,go,,,,go-1,2,,,,,,
2,553.0,14,phase_2,blue_pentagon,go,,,,go-2,1,,,,,,
0,0,14,phase_2,blue_circle,stop,green,200.0,tracking-SSD,go-2,4,,,,,,
1,536.0,14,phase_2,blue_triangle,go,,,,go-2,1,,,,,,
1,454.0,14,phase_2,blue_triangle,go,,,,go-2,1,,,,,,
0,0,14,phase_2,blue_triangle,stop,red,0.0,0-SSD,go-2,4,,,,,,
0,0,14,phase_2,purple_rhombus,go,,,,go-1,2,,,,,,
2,504.0,14,phase_2,purple_pentagon,go,,,,go-1,1,,,,,,
2,568.0,14,phase_2,blue_circle,go,,,,go-2,1,,,,,,
1,577.0,14,phase_2,purple_rhombus,go,,,,go-1,1,,,,,,
1,1013.0,14,phase_2,purple_triangle,go,,,,go-1,1,,,,,,
1,415.0,14,phase_2,blue_triangle,go,,,,go-2,1,,,,,,
2,446.0,14,phase_2,purple_circle,go,,,,go-1,1,,,,,,
2,387.0,14,phase_2,blue_rhombus,go,,,,go-2,2,,,,,,
1,474.0,14,phase_2,purple_triangle,stop,green,250.0,tracking-SSD,go-1,3,,,,,,
0,0,14,phase_2,purple_pentagon,stop,red,0.0,0-SSD,go-1,4,,,,,,
0,0,14,phase_2,blue_circle,stop,red,0.0,0-SSD,go-2,4,,,,,,
1,546.0,14,phase_2,blue_rhombus,go,,,,go-2,1,,,,,,
0,0,14,phase_2,blue_circle,stop,red,0.0,0-SSD,go-2,4,,,,,,
2,551.0,14,phase_2,purple_pentagon,go,,,,go-1,1,,,,,,
0,0,14,phase_2,blue_rhombus,stop,green,200.0,tracking-SSD,go-2,4,,,,,,
1,388.0,14,phase_2,purple_rhombus,go,,,,go-1,1,,,,,,
2,455.0,14,phase_2,purple_circle,go,,,,go-1,1,,,,,,
1,688.0,14,phase_2,purple_rhombus,go,,,,go-1,1,,,,,,
1,561.0,14,phase_2,blue_triangle,go,,,,go-2,1,,,,,,
1,491.0,14,phase_2,blue_triangle,go,,,,go-2,1,,,,,,
0,0,14,phase_2,blue_circle,stop,red,0.0,0-SSD,go-2,4,,,,,,
1,498.0,14,phase_2,blue_circle,go,,,,go-2,2,,,,,,
0,0,14,phase_2,blue_triangle,stop,green,250.0,tracking-SSD,go-2,4,,,,,,
1,481.0,14,phase_2,purple_triangle,go,,,,go-1,1,,,,,,
1,580.0,14,phase_2,blue_rhombus,go,,,,go-2,1,,,,,,
0,0,14,phase_2,purple_circle,stop,red,0.0,0-SSD,go-1,4,,,,,,
2,575.0,14,phase_2,purple_pentagon,stop,green,300.0,tracking-SSD,go-1,3,,,,,,
0,0,14,phase_2,purple_circle,stop,red,0.0,0-SSD,go-1,4,,,,,,
2,357.0,14,phase_2,purple_circle,go,,,,go-1,1,,,,,,
0,0,14,phase_2,blue_pentagon,go,,,,go-2,2,,,,,,
2,396.0,14,phase_2,purple_circle,stop,green,250.0,tracking-SSD,go-1,3,,,,,,
2,439.0,14,phase_2,purple_pentagon,go,,,,go-1,1,,,,,,
1,672.0,14,phase_2,blue_rhombus,go,,,,go-2,1,,,,,,
2,613.0,14,phase_2,purple_pentagon,go,,,,go-1,1,,,,,,
2,520.0,14,phase_2,blue_pentagon,go,,,,go-2,1,,,,,,
2,541.0,14,phase_2,purple_pentagon,go,,,,go-1,1,,,,,,
0,0,14,phase_2,purple_rhombus,stop,red,0.0,0-SSD,go-1,4,,,,,,
2,491.0,14,phase_2,purple_rhombus,stop,green,200.0,tracking-SSD,go-1,3,,,,,,
1,599.0,15,phase_2,blue_rhombus,go,,,,go-2,1,,,,,,
1,608.0,15,phase_2,purple_rhombus,go,,,,go-1,1,,,,,,
1,527.0,15,phase_2,purple_rhombus,go,,,,go-1,1,,,,,,
2,434.0,15,phase_2,blue_circle,go,,,,go-2,1,,,,,,
0,0,15,phase_2,purple_pentagon,stop,red,0.0,0-SSD,go-1,4,,,,,,
0,0,15,phase_2,purple_triangle,stop,green,150.0,tracking-SSD,go-1,4,,,,,,
1,416.0,15,phase_2,purple_pentagon,go,,,,go-1,2,,,,,,
1,605.0,15,phase_2,purple_rhombus,go,,,,go-1,1,,,,,,
2,546.0,15,phase_2,purple_circle,go,,,,go-1,1,,,,,,
0,0,15,phase_2,purple_rhombus,stop,green,200.0,tracking-SSD,go-1,4,,,,,,
2,428.0,15,phase_2,purple_circle,go,,,,go-1,1,,,,,,
2,437.0,15,phase_2,blue_circle,go,,,,go-2,1,,,,,,
2,411.0,15,phase_2,blue_pentagon,go,,,,go-2,1,,,,,,
2,376.0,15,phase_2,blue_pentagon,go,,,,go-2,1,,,,,,
1,564.0,15,phase_2,blue_rhombus,go,,,,go-2,1,,,,,,
0,0,15,phase_2,blue_triangle,stop,red,0.0,0-SSD,go-2,4,,,,,,
1,368.0,15,phase_2,blue_pentagon,go,,,,go-2,2,,,,,,
1,646.0,15,phase_2,blue_rhombus,go,,,,go-2,1,,,,,,
1,555.0,15,phase_2,purple_rhombus,stop,green,250.0,tracking-SSD,go-1,3,,,,,,
2,495.0,15,phase_2,purple_circle,go,,,,go-1,1,,,,,,
2,414.0,15,phase_2,purple_circle,stop,red,0.0,0-SSD,go-1,3,,,,,,
2,344.0,15,phase_2,blue_circle,go,,,,go-2,1,,,,,,
2,971.0,15,phase_2,blue_circle,go,,,,go-2,1,,,,,,
1,520.0,15,phase_2,blue_triangle,go,,,,go-2,1,,,,,,
2,561.0,15,phase_2,purple_circle,go,,,,go-1,1,,,,,,
2,458.0,15,phase_2,blue_pentagon,go,,,,go-2,1,,,,,,
1,714.0,15,phase_2,purple_triangle,go,,,,go-1,1,,,,,,
0,0,15,phase_2,purple_triangle,go,,,,go-1,2,,,,,,
2,486.0,15,phase_2,purple_pentagon,go,,,,go-1,1,,,,,,
0,0,15,phase_2,purple_circle,stop,red,0.0,0-SSD,go-1,4,,,,,,
0,0,15,phase_2,purple_circle,stop,red,0.0,0-SSD,go-1,4,,,,,,
1,792.0,15,phase_2,purple_rhombus,go,,,,go-1,1,,,,,,
0,0,15,phase_2,blue_triangle,stop,green,200.0,tracking-SSD,go-2,4,,,,,,
2,764.0,15,phase_2,purple_pentagon,go,,,,go-1,1,,,,,,
1,604.0,15,phase_2,blue_triangle,go,,,,go-2,1,,,,,,
2,488.0,15,phase_2,purple_circle,go,,,,go-1,1,,,,,,
0,0,15,phase_2,blue_rhombus,stop,red,0.0,0-SSD,go-2,4,,,,,,
1,619.0,15,phase_2,blue_triangle,go,,,,go-2,1,,,,,,
1,526.0,15,phase_2,purple_triangle,go,,,,go-1,1,,,,,,
1,434.0,15,phase_2,blue_triangle,stop,green,250.0,tracking-SSD,go-2,3,,,,,,
2,442.0,15,phase_2,purple_rhombus,stop,green,200.0,tracking-SSD,go-1,3,,,,,,
1,473.0,15,phase_2,purple_triangle,go,,,,go-1,1,,,,,,
2,515.0,15,phase_2,blue_pentagon,go,,,,go-2,1,,,,,,
0,0,15,phase_2,blue_pentagon,stop,green,150.0,tracking-SSD,go-2,4,,,,,,
1,522.0,15,phase_2,blue_triangle,go,,,,go-2,1,,,,,,
0,0,15,phase_2,blue_pentagon,stop,red,0.0,0-SSD,go-2,4,,,,,,
2,460.0,15,phase_2,blue_pentagon,stop,green,200.0,tracking-SSD,go-2,3,,,,,,
0,0,15,phase_2,blue_rhombus,stop,red,0.0,0-SSD,go-2,4,,,,,,
2,419.0,16,phase_2,blue_pentagon,stop,green,150.0,tracking-SSD,go-2,3,,,,,,
1,506.0,16,phase_2,blue_triangle,go,,,,go-2,1,,,,,,
2,447.0,16,phase_2,purple_circle,go,,,,go-1,1,,,,,,
0,0,16,phase_2,purple_circle,stop,red,0.0,0-SSD,go-1,4,,,,,,
0,0,16,phase_2,blue_triangle,stop,red,0.0,0-SSD,go-2,4,,,,,,
1,463.0,16,phase_2,purple_rhombus,go,,,,go-1,1,,,,,,
0,0,16,phase_2,purple_triangle,stop,green,100.0,tracking-SSD,go-1,4,,,,,,
1,897.0,16,phase_2,blue_triangle,go,,,,go-2,1,,,,,,
2,489.0,16,phase_2,blue_circle,go,,,,go-2,1,,,,,,
1,587.0,16,phase_2,purple_rhombus,go,,,,go-1,1,,,,,,
2,360.0,16,phase_2,blue_triangle,go,,,,go-2,2,,,,,,
1,570.0,16,phase_2,purple_rhombus,go,,,,go-1,1,,,,,,
1,445.0,16,phase_2,purple_triangle,go,,,,go-1,1,,,,,,
0,0,16,phase_2,purple_pentagon,stop,red,0.0,0-SSD,go-1,4,,,,,,
0,0,16,phase_2,purple_pentagon,stop,red,0.0,0-SSD,go-1,4,,,,,,
0,0,16,phase_2,blue_circle,stop,red,0.0,0-SSD,go-2,4,,,,,,
2,390.0,16,phase_2,purple_pentagon,go,,,,go-1,1,,,,,,
2,387.0,16,phase_2,purple_rhombus,go,,,,go-1,2,,,,,,
2,486.0,16,phase_2,purple_pentagon,stop,green,150.0,tracking-SSD,go-1,3,,,,,,
0,0,16,phase_2,blue_triangle,stop,red,0.0,0-SSD,go-2,4,,,,,,
2,525.0,16,phase_2,purple_circle,go,,,,go-1,1,,,,,,
1,568.0,16,phase_2,blue_rhombus,go,,,,go-2,1,,,,,,
1,509.0,16,phase_2,purple_triangle,go,,,,go-1,1,,,,,,
1,484.0,16,phase_2,purple_triangle,go,,,,go-1,1,,,,,,
1,493.0,16,phase_2,blue_rhombus,go,,,,go-2,1,,,,,,
2,704.0,16,phase_2,blue_pentagon,go,,,,go-2,1,,,,,,
0,0,16,phase_2,purple_pentagon,stop,red,0.0,0-SSD,go-1,4,,,,,,
2,1048.0,16,phase_2,blue_circle,go,,,,go-2,1,,,,,,
1,663.0,16,phase_2,purple_rhombus,go,,,,go-1,1,,,,,,
2,1020.0,16,phase_2,blue_pentagon,stop,green,100.0,tracking-SSD,go-2,3,,,,,,
2,490.0,16,phase_2,blue_circle,go,,,,go-2,1,,,,,,
2,431.0,16,phase_2,blue_circle,go,,,,go-2,1,,,,,,
2,439.0,16,phase_2,purple_pentagon,go,,,,go-1,1,,,,,,
1,628.0,16,phase_2,purple_triangle,go,,,,go-1,1,,,,,,
1,456.0,16,phase_2,purple_triangle,go,,,,go-1,1,,,,,,
2,398.0,16,phase_2,blue_pentagon,go,,,,go-2,1,,,,,,
2,396.0,16,phase_2,blue_circle,go,,,,go-2,1,,,,,,
0,0,16,phase_2,purple_pentagon,stop,green,50.0,tracking-SSD,go-1,4,,,,,,
2,413.0,16,phase_2,blue_pentagon,go,,,,go-2,1,,,,,,
0,0,16,phase_2,purple_rhombus,go,,,,go-1,2,,,,,,
0,0,16,phase_2,blue_rhombus,stop,green,100.0,tracking-SSD,go-2,4,,,,,,
0,0,16,phase_2,blue_rhombus,stop,red,0.0,0-SSD,go-2,4,,,,,,
1,853.0,16,phase_2,blue_rhombus,go,,,,go-2,1,,,,,,
2,591.0,16,phase_2,blue_circle,go,,,,go-2,1,,,,,,
0,0,16,phase_2,blue_rhombus,stop,green,150.0,tracking-SSD,go-2,4,,,,,,
0,0,16,phase_2,purple_circle,go,,,,go-1,2,,,,,,
1,718.0,16,phase_2,purple_triangle,stop,green,200.0,tracking-SSD,go-1,3,,,,,,
2,479.0,16,phase_2,blue_circle,go,,,,go-2,1,,,,,,
2,566.0,17,phase_2,blue_pentagon,go,,,,go-2,1,,,,,,
0,0,17,phase_2,purple_triangle,stop,green,150.0,tracking-SSD,go-1,4,,,,,,
0,0,17,phase_2,purple_circle,stop,red,0.0,0-SSD,go-1,4,,,,,,
2,468.0,17,phase_2,purple_rhombus,go,,,,go-1,2,,,,,,
1,443.0,17,phase_2,blue_triangle,go,,,,go-2,1,,,,,,
0,0,17,phase_2,blue_rhombus,stop,red,0.0,0-SSD,go-2,4,,,,,,
2,404.0,17,phase_2,blue_circle,stop,green,200.0,tracking-SSD,go-2,3,,,,,,
2,424.0,17,phase_2,purple_circle,go,,,,go-1,1,,,,,,
2,387.0,17,phase_2,blue_circle,go,,,,go-2,1,,,,,,
1,498.0,17,phase_2,blue_rhombus,go,,,,go-2,1,,,,,,
1,484.0,17,phase_2,purple_triangle,go,,,,go-1,1,,,,,,
1,369.0,17,phase_2,purple_triangle,go,,,,go-1,1,,,,,,
2,490.0,17,phase_2,blue_pentagon,go,,,,go-2,1,,,,,,
1,521.0,17,phase_2,purple_rhombus,go,,,,go-1,1,,,,,,
2,497.0,17,phase_2,purple_circle,go,,,,go-1,1,,,,,,
2,426.0,17,phase_2,purple_pentagon,go,,,,go-1,1,,,,,,
0,0,17,phase_2,blue_circle,stop,red,0.0,0-SSD,go-2,4,,,,,,
2,522.0,17,phase_2,blue_pentagon,go,,,,go-2,1,,,,,,
0,0,17,phase_2,purple_pentagon,stop,green,150.0,tracking-SSD,go-1,4,,,,,,
1,552.0,17,phase_2,blue_triangle,go,,,,go-2,1,,,,,,
0,0,17,phase_2,blue_rhombus,stop,red,0.0,0-SSD,go-2,4,,,,,,
2,444.0,17,phase_2,blue_pentagon,go,,,,go-2,1,,,,,,
0,0,17,phase_2,blue_circle,stop,green,200.0,tracking-SSD,go-2,4,,,,,,
2,440.0,17,phase_2,blue_pentagon,stop,green,250.0,tracking-SSD,go-2,3,,,,,,
1,460.0,17,phase_2,blue_triangle,stop,green,200.0,tracking-SSD,go-2,3,,,,,,
0,0,17,phase_2,purple_pentagon,stop,red,0.0,0-SSD,go-1,4,,,,,,
0,0,17,phase_2,purple_rhombus,stop,green,150.0,tracking-SSD,go-1,4,,,,,,
0,0,17,phase_2,purple_rhombus,stop,red,0.0,0-SSD,go-1,4,,,,,,
0,0,17,phase_2,blue_pentagon,go,,,,go-2,2,,,,,,
0,0,17,phase_2,purple_circle,stop,green,200.0,tracking-SSD,go-1,4,,,,,,
0,0,17,phase_2,purple_circle,stop,red,0.0,0-SSD,go-1,4,,,,,,
1,612.0,17,phase_2,purple_rhombus,go,,,,go-1,1,,,,,,
1,496.0,17,phase_2,purple_rhombus,go,,,,go-1,1,,,,,,
2,414.0,17,phase_2,blue_triangle,go,,,,go-2,2,,,,,,
1,479.0,17,phase_2,purple_triangle,go,,,,go-1,1,,,,,,
2,555.0,17,phase_2,blue_pentagon,go,,,,go-2,1,,,,,,
2,532.0,17,phase_2,blue_circle,go,,,,go-2,1,,,,,,
1,562.0,17,phase_2,purple_triangle,go,,,,go-1,1,,,,,,
2,503.0,17,phase_2,purple_pentagon,go,,,,go-1,1,,,,,,
0,0,17,phase_2,blue_rhombus,stop,red,0.0,0-SSD,go-2,4,,,,,,
1,509.0,17,phase_2,blue_rhombus,go,,,,go-2,1,,,,,,
2,519.0,17,phase_2,blue_pentagon,go,,,,go-2,1,,,,,,
1,504.0,17,phase_2,blue_triangle,go,,,,go-2,1,,,,,,
2,626.0,17,phase_2,purple_circle,go,,,,go-1,1,,,,,,
2,556.0,17,phase_2,purple_circle,go,,,,go-1,1,,,,,,
1,567.0,17,phase_2,purple_rhombus,go,,,,go-1,1,,,,,,
1,464.0,17,phase_2,purple_triangle,go,,,,go-1,1,,,,,,
1,427.0,17,phase_2,blue_triangle,go,,,,go-2,1,,,,,,
,690.0,1,phase_3,,,,,,,,purple_square,go-1,purple_square,go-1,green_square,tracking-SSD
,707.0,1,phase_3,,,,,,,,blue_square,go-2,blue_square,go-2,green_square,tracking-SSD
,770.0,1,phase_3,,,,,,,,red_square,0-SSD,blue_square,go-2,red_square,0-SSD
,620.0,1,phase_3,,,,,,,,purple_square,go-1,purple_square,go-1,red_square,0-SSD
,650.0,1,phase_3,,,,,,,,red_square,0-SSD,red_square,0-SSD,green_square,tracking-SSD
,949.0,1,phase_3,,,,,,,,blue_square,go-2,purple_square,go-1,blue_square,go-2
,945.0,1,phase_3,,,,,,,,red_square,0-SSD,red_square,0-SSD,blue_square,go-2
,704.0,1,phase_3,,,,,,,,purple_square,go-1,blue_square,go-2,purple_square,go-1
,599.0,1,phase_3,,,,,,,,purple_square,go-1,green_square,tracking-SSD,purple_square,go-1
,605.0,1,phase_3,,,,,,,,red_square,0-SSD,green_square,tracking-SSD,red_square,0-SSD
,1355.0,1,phase_3,,,,,,,,green_square,tracking-SSD,green_square,tracking-SSD,blue_square,go-2
,1012.0,1,phase_3,,,,,,,,red_square,0-SSD,red_square,0-SSD,purple_square,go-1
,1017.0,2,phase_3,,,,,,,,red_square,0-SSD,blue_square,go-2,red_square,0-SSD
,551.0,2,phase_3,,,,,,,,red_square,0-SSD,red_square,0-SSD,green_square,tracking-SSD
,1030.0,2,phase_3,,,,,,,,purple_square,go-1,purple_square,go-1,red_square,0-SSD
,1015.0,2,phase_3,,,,,,,,purple_square,go-1,purple_square,go-1,blue_square,go-2
,1010.0,2,phase_3,,,,,,,,green_square,tracking-SSD,blue_square,go-2,green_square,tracking-SSD
,759.0,2,phase_3,,,,,,,,purple_square,go-1,purple_square,go-1,green_square,tracking-SSD
,721.0,2,phase_3,,,,,,,,purple_square,go-1,red_square,0-SSD,purple_square,go-1
,1020.0,2,phase_3,,,,,,,,purple_square,go-1,blue_square,go-2,purple_square,go-1
,846.0,2,phase_3,,,,,,,,red_square,0-SSD,green_square,tracking-SSD,red_square,0-SSD
,1214.0,2,phase_3,,,,,,,,green_square,tracking-SSD,green_square,tracking-SSD,blue_square,go-2
,770.0,2,phase_3,,,,,,,,purple_square,go-1,green_square,tracking-SSD,purple_square,go-1
,856.0,2,phase_3,,,,,,,,red_square,0-SSD,red_square,0-SSD,blue_square,go-2
,847.0,3,phase_3,,,,,,,,purple_square,go-1,purple_square,go-1,blue_square,go-2
,877.0,3,phase_3,,,,,,,,purple_square,go-1,purple_square,go-1,green_square,tracking-SSD
,1041.0,3,phase_3,,,,,,,,purple_square,go-1,purple_square,go-1,red_square,0-SSD
,1036.0,3,phase_3,,,,,,,,green_square,tracking-SSD,blue_square,go-2,green_square,tracking-SSD
,784.0,3,phase_3,,,,,,,,red_square,0-SSD,blue_square,go-2,red_square,0-SSD
,600.0,3,phase_3,,,,,,,,red_square,0-SSD,red_square,0-SSD,green_square,tracking-SSD
,2385.0,3,phase_3,,,,,,,,red_square,0-SSD,green_square,tracking-SSD,red_square,0-SSD
,2010.0,3,phase_3,,,,,,,,purple_square,go-1,green_square,tracking-SSD,purple_square,go-1
,925.0,3,phase_3,,,,,,,,purple_square,go-1,red_square,0-SSD,purple_square,go-1
,752.0,3,phase_3,,,,,,,,purple_square,go-1,blue_square,go-2,purple_square,go-1
,1242.0,3,phase_3,,,,,,,,green_square,tracking-SSD,green_square,tracking-SSD,blue_square,go-2
,924.0,3,phase_3,,,,,,,,red_square,0-SSD,red_square,0-SSD,blue_square,go-2
,1702.0,4,phase_3,,,,,,,,green_square,tracking-SSD,blue_square,go-2,green_square,tracking-SSD
,934.0,4,phase_3,,,,,,,,purple_square,go-1,purple_square,go-1,blue_square,go-2
,850.0,4,phase_3,,,,,,,,red_square,0-SSD,blue_square,go-2,red_square,0-SSD
,587.0,4,phase_3,,,,,,,,red_square,0-SSD,red_square,0-SSD,green_square,tracking-SSD
,414.0,4,phase_3,,,,,,,,red_square,0-SSD,purple_square,go-1,red_square,0-SSD
,478.0,4,phase_3,,,,,,,,purple_square,go-1,purple_square,go-1,green_square,tracking-SSD
,957.0,4,phase_3,,,,,,,,green_square,tracking-SSD,green_square,tracking-SSD,blue_square,go-2
,874.0,4,phase_3,,,,,,,,purple_square,go-1,green_square,tracking-SSD,purple_square,go-1
,2039.0,4,phase_3,,,,,,,,red_square,0-SSD,red_square,0-SSD,purple_square,go-1
,898.0,4,phase_3,,,,,,,,red_square,0-SSD,green_square,tracking-SSD,red_square,0-SSD
,658.0,4,phase_3,,,,,,,,purple_square,go-1,blue_square,go-2,purple_square,go-1
,845.0,4,phase_3,,,,,,,,red_square,0-SSD,red_square,0-SSD,blue_square,go-2
,1049.0,5,phase_3,,,,,,,,blue_square,go-2,blue_square,go-2,green_square,tracking-SSD
,1291.0,5,phase_3,,,,,,,,red_square,0-SSD,red_square,0-SSD,green_square,tracking-SSD
,983.0,5,phase_3,,,,,,,,purple_square,go-1,purple_square,go-1,blue_square,go-2
,607.0,5,phase_3,,,,,,,,purple_square,go-1,purple_square,go-1,red_square,0-SSD
,1694.0,5,phase_3,,,,,,,,green_square,tracking-SSD,purple_square,go-1,green_square,tracking-SSD
,857.0,5,phase_3,,,,,,,,red_square,0-SSD,blue_square,go-2,red_square,0-SSD
,1675.0,5,phase_3,,,,,,,,blue_square,go-2,green_square,tracking-SSD,blue_square,go-2
,714.0,5,phase_3,,,,,,,,red_square,0-SSD,red_square,0-SSD,purple_square,go-1
,697.0,5,phase_3,,,,,,,,red_square,0-SSD,green_square,tracking-SSD,red_square,0-SSD
0,0,5,phase_3,,,,,,,,,,green_square,tracking-SSD,purple_square,go-1
,947.0,5,phase_3,,,,,,,,red_square,0-SSD,red_square,0-SSD,blue_square,go-2
,716.0,5,phase_3,,,,,,,,purple_square,go-1,blue_square,go-2,purple_square,go-1
