response,reaction_time,block,which_phase,stim,stop_signal_trial_type,stop_signal_stimulus,SSD,SSD_type,condition,accuracy,chosen_stim,chosen_cond,stim_left,cond_left,stim_right,cond_right
2,510.0,1,phase_2,green_circle,go,,,,go-2,1,,,,,,
1,382.0,1,phase_2,purple_pentagon,go,,,,go-1,1,,,,,,
1,402.0,1,phase_2,purple_rhombus,stop,red,250.0,tracking-SSD,go-1,3,,,,,,
1,400.0,1,phase_2,green_pentagon,go,,,,go-2,1,,,,,,
2,319.0,1,phase_2,purple_circle,go,,,,go-1,1,,,,,,
1,462.0,1,phase_2,purple_rhombus,go,,,,go-1,1,,,,,,
1,527.0,1,phase_2,purple_triangle,go,,,,go-1,2,,,,,,
2,581.0,1,phase_2,purple_triangle,go,,,,go-1,1,,,,,,
2,579.0,1,phase_2,green_circle,stop,red,200.0,tracking-SSD,go-2,3,,,,,,
2,362.0,1,phase_2,green_triangle,go,,,,go-2,1,,,,,,
1,450.0,1,phase_2,purple_pentagon,stop,red,150.0,tracking-SSD,go-1,3,,,,,,
1,469.0,1,phase_2,green_rhombus,go,,,,go-2,1,,,,,,
2,479.0,1,phase_2,purple_circle,go,,,,go-1,1,,,,,,
0,0,1,phase_2,purple_circle,stop,blue,0.0,0-SSD,go-1,4,,,,,,
2,417.0,1,phase_2,purple_circle,stop,red,100.0,tracking-SSD,go-1,3,,,,,,
1,426.0,1,phase_2,purple_pentagon,go,,,,go-1,1,,,,,,
2,525.0,1,phase_2,green_rhombus,go,,,,go-2,2,,,,,,
1,501.0,1,phase_2,purple_rhombus,go,,,,go-1,1,,,,,,
2,432.0,1,phase_2,purple_triangle,go,,,,go-1,1,,,,,,
1,598.0,1,phase_2,green_rhombus,stop,blue,0.0,0-SSD,go-2,3,,,,,,
2,416.0,1,phase_2,purple_triangle,go,,,,go-1,1,,,,,,
1,514.0,1,phase_2,green_pentagon,go,,,,go-2,1,,,,,,
1,379.0,1,phase_2,green_pentagon,go,,,,go-2,1,,,,,,
1,366.0,1,phase_2,green_pentagon,go,,,,go-2,1,,,,,,
2,442.0,1,phase_2,green_circle,stop,blue,0.0,0-SSD,go-2,3,,,,,,
0,0,1,phase_2,purple_circle,stop,blue,0.0,0-SSD,go-1,4,,,,,,
0,0,1,phase_2,green_pentagon,stop,blue,0.0,0-SSD,go-2,4,,,,,,
0,0,1,phase_2,green_pentagon,stop,red,50.0,tracking-SSD,go-2,4,,,,,,
2,491.0,1,phase_2,green_triangle,go,,,,go-2,1,,,,,,
1,386.0,1,phase_2,green_rhombus,go,,,,go-2,1,,,,,,
2,474.0,1,phase_2,purple_triangle,go,,,,go-1,1,,,,,,
1,506.0,1,phase_2,purple_pentagon,stop,blue,0.0,0-SSD,go-1,3,,,,,,
1,357.0,1,phase_2,purple_circle,go,,,,go-1,2,,,,,,
1,366.0,1,phase_2,green_rhombus,go,,,,go-2,1,,,,,,
0,0,1,phase_2,green_rhombus,stop,red,100.0,tracking-SSD,go-2,4,,,,,,
0,0,1,phase_2,purple_rhombus,stop,red,150.0,tracking-SSD,go-1,4,,,,,,
2,471.0,1,phase_2,purple_pentagon,go,,,,go-1,2,,,,,,
2,491.0,1,phase_2,purple_circle,go,,,,go-1,1,,,,,,
2,488.0,1,phase_2,green_triangle,stop,red,200.0,tracking-SSD,go-2,3,,,,,,
1,496.0,1,phase_2,green_rhombus,go,,,,go-2,1,,,,,,
2,585.0,1,phase_2,purple_triangle,stop,blue,0.0,0-SSD,go-1,3,,,,,,
0,0,1,phase_2,green_triangle,stop,blue,0.0,0-SSD,go-2,4,,,,,,
2,389.0,1,phase_2,purple_triangle,go,,,,go-1,1,,,,,,
1,500.0,1,phase_2,green_circle,go,,,,go-2,2,,,,,,
1,432.0,1,phase_2,green_pentagon,go,,,,go-2,1,,,,,,
2,485.0,1,phase_2,green_triangle,go,,,,go-2,1,,,,,,
1,415.0,1,phase_2,purple_rhombus,go,,,,go-1,1,,,,,,
1,446.0,1,phase_2,green_circle,go,,,,go-2,2,,,,,,
1,442.0,2,phase_2,purple_rhombus,go,,,,go-1,1,,,,,,
2,462.0,2,phase_2,purple_triangle,go,,,,go-1,1,,,,,,
1,426.0,2,phase_2,green_circle,go,,,,go-2,2,,,,,,
0,0,2,phase_2,purple_pentagon,stop,blue,0.0,0-SSD,go-1,4,,,,,,
0,0,2,phase_2,green_pentagon,stop,blue,0.0,0-SSD,go-2,4,,,,,,
2,477.0,2,phase_2,green_circle,go,,,,go-2,1,,,,,,
0,0,2,phase_2,green_rhombus,stop,red,150.0,tracking-SSD,go-2,4,,,,,,
2,427.0,2,phase_2,green_circle,stop,red,200.0,tracking-SSD,go-2,3,,,,,,
1,526.0,2,phase_2,purple_triangle,go,,,,go-1,2,,,,,,
2,491.0,2,phase_2,green_circle,go,,,,go-2,1,,,,,,
2,511.0,2,phase_2,purple_circle,go,,,,go-1,1,,,,,,
0,0,2,phase_2,purple_triangle,stop,red,150.0,tracking-SSD,go-1,4,,,,,,
2,404.0,2,phase_2,green_triangle,go,,,,go-2,1,,,,,,
1,435.0,2,phase_2,green_circle,go,,,,go-2,2,,,,,,
1,567.0,2,phase_2,purple_rhombus,go,,,,go-1,1,,,,,,
0,0,2,phase_2,green_circle,stop,blue,0.0,0-SSD,go-2,4,,,,,,
1,473.0,2,phase_2,purple_pentagon,go,,,,go-1,1,,,,,,
0,0,2,phase_2,purple_pentagon,go,,,,go-1,2,,,,,,
1,704.0,2,phase_2,green_rhombus,stop,red,200.0,tracking-SSD,go-2,3,,,,,,
1,488.0,2,phase_2,purple_rhombus,go,,,,go-1,1,,,,,,
0,0,2,phase_2,purple_rhombus,stop,blue,0.0,0-SSD,go-1,4,,,,,,
2,541.0,2,phase_2,purple_triangle,go,,,,go-1,1,,,,,,
0,0,2,phase_2,purple_pentagon,stop,red,150.0,tracking-SSD,go-1,4,,,,,,
0,0,2,phase_2,purple_circle,stop,red,200.0,tracking-SSD,go-1,4,,,,,,
2,455.0,2,phase_2,purple_rhombus,stop,red,250.0,tracking-SSD,go-1,3,,,,,,
0,0,2,phase_2,purple_rhombus,stop,blue,0.0,0-SSD,go-1,4,,,,,,
2,519.0,2,phase_2,green_circle,go,,,,go-2,1,,,,,,
1,438.0,2,phase_2,purple_triangle,go,,,,go-1,2,,,,,,
1,482.0,2,phase_2,green_pentagon,go,,,,go-2,1,,,,,,
1,490.0,2,phase_2,green_pentagon,go,,,,go-2,1,,,,,,
2,397.0,2,phase_2,green_triangle,go,,,,go-2,1,,,,,,
1,451.0,2,phase_2,purple_rhombus,go,,,,go-1,1,,,,,,
1,426.0,2,phase_2,green_rhombus,go,,,,go-2,1,,,,,,
2,490.0,2,phase_2,green_circle,stop,red,200.0,tracking-SSD,go-2,3,,,,,,
1,411.0,2,phase_2,purple_triangle,go,,,,go-1,2,,,,,,
1,453.0,2,phase_2,purple_pentagon,go,,,,go-1,1,,,,,,
1,439.0,2,phase_2,green_rhombus,go,,,,go-2,1,,,,,,
1,404.0,2,phase_2,green_pentagon,go,,,,go-2,1,,,,,,
1,412.0,2,phase_2,green_triangle,go,,,,go-2,2,,,,,,
2,432.0,2,phase_2,green_circle,go,,,,go-2,1,,,,,,
0,0,2,phase_2,purple_triangle,stop,blue,0.0,0-SSD,go-1,4,,,,,,
1,485.0,2,phase_2,purple_pentagon,go,,,,go-1,1,,,,,,
2,471.0,2,phase_2,green_pentagon,go,,,,go-2,2,,,,,,
2,593.0,2,phase_2,purple_circle,go,,,,go-1,1,,,,,,
2,634.0,2,phase_2,purple_triangle,go,,,,go-1,1,,,,,,
0,0,2,phase_2,green_triangle,stop,blue,0.0,0-SSD,go-2,4,,,,,,
0,0,2,phase_2,green_rhombus,stop,blue,0.0,0-SSD,go-2,4,,,,,,
1,526.0,2,phase_2,green_pentagon,go,,,,go-2,1,,,,,,
0,0,3,phase_2,purple_rhombus,stop,red,150.0,tracking-SSD,go-1,4,,,,,,
0,0,3,phase_2,green_triangle,stop,blue,0.0,0-SSD,go-2,4,,,,,,
0,0,3,phase_2,purple_pentagon,stop,blue,0.0,0-SSD,go-1,4,,,,,,
0,0,3,phase_2,purple_circle,stop,blue,0.0,0-SSD,go-1,4,,,,,,
2,445.0,3,phase_2,purple_triangle,go,,,,go-1,1,,,,,,
2,443.0,3,phase_2,green_triangle,go,,,,go-2,1,,,,,,
1,486.0,3,phase_2,purple_circle,go,,,,go-1,2,,,,,,
2,428.0,3,phase_2,green_circle,go,,,,go-2,1,,,,,,
2,391.0,3,phase_2,purple_circle,stop,red,200.0,tracking-SSD,go-1,3,,,,,,
0,0,3,phase_2,purple_pentagon,stop,blue,0.0,0-SSD,go-1,4,,,,,,
2,466.0,3,phase_2,purple_circle,go,,,,go-1,1,,,,,,
2,429.0,3,phase_2,purple_rhombus,go,,,,go-1,2,,,,,,
2,427.0,3,phase_2,purple_triangle,go,,,,go-1,1,,,,,,
2,413.0,3,phase_2,purple_rhombus,go,,,,go-1,2,,,,,,
1,512.0,3,phase_2,purple_pentagon,go,,,,go-1,1,,,,,,
1,453.0,3,phase_2,green_pentagon,stop,red,150.0,tracking-SSD,go-2,3,,,,,,
0,0,3,phase_2,green_circle,stop,blue,0.0,0-SSD,go-2,4,,,,,,
0,0,3,phase_2,green_triangle,stop,blue,0.0,0-SSD,go-2,4,,,,,,
0,0,3,phase_2,green_rhombus,stop,red,100.0,tracking-SSD,go-2,4,,,,,,
0,0,3,phase_2,purple_pentagon,stop,red,150.0,tracking-SSD,go-1,4,,,,,,
1,433.0,3,phase_2,purple_pentagon,go,,,,go-1,1,,,,,,
2,408.0,3,phase_2,green_triangle,go,,,,go-2,1,,,,,,
1,405.0,3,phase_2,purple_pentagon,go,,,,go-1,1,,,,,,
2,436.0,3,phase_2,green_circle,go,,,,go-2,1,,,,,,
1,467.0,3,phase_2,green_circle,go,,,,go-2,2,,,,,,
1,410.0,3,phase_2,purple_pentagon,go,,,,go-1,1,,,,,,
1,519.0,3,phase_2,green_rhombus,go,,,,go-2,1,,,,,,
2,450.0,3,phase_2,green_circle,go,,,,go-2,1,,,,,,
1,425.0,3,phase_2,green_rhombus,go,,,,go-2,1,,,,,,
0,0,3,phase_2,green_triangle,stop,blue,0.0,0-SSD,go-2,4,,,,,,
1,433.0,3,phase_2,green_pentagon,go,,,,go-2,1,,,,,,
0,0,3,phase_2,purple_rhombus,stop,blue,0.0,0-SSD,go-1,4,,,,,,
1,607.0,3,phase_2,purple_rhombus,go,,,,go-1,1,,,,,,
1,503.0,3,phase_2,purple_pentagon,go,,,,go-1,1,,,,,,
1,523.0,3,phase_2,green_pentagon,go,,,,go-2,1,,,,,,
2,476.0,3,phase_2,green_triangle,go,,,,go-2,1,,,,,,
2,418.0,3,phase_2,purple_triangle,go,,,,go-1,1,,,,,,
1,404.0,3,phase_2,purple_rhombus,go,,,,go-1,1,,,,,,
2,446.0,3,phase_2,purple_circle,go,,,,go-1,1,,,,,,
0,0,3,phase_2,green_triangle,stop,red,200.0,tracking-SSD,go-2,4,,,,,,
1,465.0,3,phase_2,green_circle,go,,,,go-2,2,,,,,,
2,552.0,3,phase_2,purple_triangle,stop,red,250.0,tracking-SSD,go-1,3,,,,,,
1,459.0,3,phase_2,green_pentagon,go,,,,go-2,1,,,,,,
2,580.0,3,phase_2,green_circle,go,,,,go-2,1,,,,,,
1,568.0,3,phase_2,green_rhombus,stop,red,200.0,tracking-SSD,go-2,3,,,,,,
2,476.0,3,phase_2,green_rhombus,go,,,,go-2,2,,,,,,
1,530.0,3,phase_2,green_rhombus,go,,,,go-2,1,,,,,,
2,438.0,3,phase_2,purple_triangle,go,,,,go-1,1,,,,,,
2,499.0,4,phase_2,purple_triangle,go,,,,go-1,1,,,,,,
0,0,4,phase_2,green_circle,stop,red,150.0,tracking-SSD,go-2,4,,,,,,
2,415.0,4,phase_2,green_pentagon,go,,,,go-2,2,,,,,,
1,502.0,4,phase_2,purple_pentagon,go,,,,go-1,1,,,,,,
0,0,4,phase_2,green_rhombus,stop,red,200.0,tracking-SSD,go-2,4,,,,,,
1,453.0,4,phase_2,purple_rhombus,go,,,,go-1,1,,,,,,
2,372.0,4,phase_2,green_triangle,go,,,,go-2,1,,,,,,
0,0,4,phase_2,green_pentagon,stop,blue,0.0,0-SSD,go-2,4,,,,,,
2,401.0,4,phase_2,purple_triangle,go,,,,go-1,1,,,,,,
1,409.0,4,phase_2,purple_rhombus,go,,,,go-1,1,,,,,,
1,463.0,4,phase_2,purple_rhombus,go,,,,go-1,1,,,,,,
2,439.0,4,phase_2,purple_circle,go,,,,go-1,1,,,,,,
2,425.0,4,phase_2,green_circle,go,,,,go-2,1,,,,,,
1,379.0,4,phase_2,purple_triangle,stop,red,250.0,tracking-SSD,go-1,3,,,,,,
2,477.0,4,phase_2,purple_triangle,go,,,,go-1,1,,,,,,
0,0,4,phase_2,green_pentagon,stop,blue,0.0,0-SSD,go-2,4,,,,,,
0,0,4,phase_2,purple_circle,stop,blue,0.0,0-SSD,go-1,4,,,,,,
0,0,4,phase_2,green_circle,stop,red,200.0,tracking-SSD,go-2,4,,,,,,
0,0,4,phase_2,purple_circle,stop,blue,0.0,0-SSD,go-1,4,,,,,,
2,488.0,4,phase_2,green_triangle,go,,,,go-2,1,,,,,,
2,418.0,4,phase_2,purple_circle,go,,,,go-1,1,,,,,,
2,472.0,4,phase_2,purple_circle,go,,,,go-1,1,,,,,,
0,0,4,phase_2,purple_pentagon,stop,blue,0.0,0-SSD,go-1,4,,,,,,
2,522.0,4,phase_2,green_triangle,go,,,,go-2,1,,,,,,
2,543.0,4,phase_2,green_circle,stop,red,250.0,tracking-SSD,go-2,3,,,,,,
0,0,4,phase_2,green_pentagon,stop,blue,0.0,0-SSD,go-2,4,,,,,,
1,414.0,4,phase_2,green_rhombus,go,,,,go-2,1,,,,,,
2,479.0,4,phase_2,purple_circle,go,,,,go-1,1,,,,,,
2,408.0,4,phase_2,green_rhombus,go,,,,go-2,2,,,,,,
1,430.0,4,phase_2,green_rhombus,go,,,,go-2,1,,,,,,
1,516.0,4,phase_2,purple_pentagon,stop,red,200.0,tracking-SSD,go-1,3,,,,,,
1,592.0,4,phase_2,green_pentagon,go,,,,go-2,1,,,,,,
1,421.0,4,phase_2,green_pentagon,go,,,,go-2,1,,,,,,
2,396.0,4,phase_2,purple_triangle,go,,,,go-1,1,,,,,,
1,360.0,4,phase_2,green_circle,go,,,,go-2,2,,,,,,
0,0,4,phase_2,purple_rhombus,stop,red,150.0,tracking-SSD,go-1,4,,,,,,
1,445.0,4,phase_2,green_rhombus,go,,,,go-2,1,,,,,,
2,442.0,4,phase_2,green_circle,go,,,,go-2,1,,,,,,
0,0,4,phase_2,purple_rhombus,stop,blue,0.0,0-SSD,go-1,4,,,,,,
0,0,4,phase_2,purple_pentagon,stop,red,200.0,tracking-SSD,go-1,4,,,,,,
1,458.0,4,phase_2,green_pentagon,go,,,,go-2,1,,,,,,
2,398.0,4,phase_2,purple_triangle,go,,,,go-1,1,,,,,,
2,373.0,4,phase_2,purple_triangle,go,,,,go-1,1,,,,,,
1,438.0,4,phase_2,purple_rhombus,go,,,,go-1,1,,,,,,
0,0,4,phase_2,green_pentagon,stop,blue,0.0,0-SSD,go-2,4,,,,,,
2,423.0,4,phase_2,green_triangle,go,,,,go-2,1,,,,,,
1,420.0,4,phase_2,green_rhombus,go,,,,go-2,1,,,,,,
2,463.0,4,phase_2,purple_triangle,go,,,,go-1,1,,,,,,
1,634.0,5,phase_2,green_pentagon,go,,,,go-2,1,,,,,,
2,519.0,5,phase_2,green_circle,go,,,,go-2,1,,,,,,
2,482.0,5,phase_2,green_circle,stop,red,250.0,tracking-SSD,go-2,3,,,,,,
2,459.0,5,phase_2,green_rhombus,go,,,,go-2,2,,,,,,
1,580.0,5,phase_2,purple_rhombus,go,,,,go-1,1,,,,,,
2,521.0,5,phase_2,purple_circle,go,,,,go-1,1,,,,,,
1,508.0,5,phase_2,green_pentagon,go,,,,go-2,1,,,,,,
2,472.0,5,phase_2,green_triangle,go,,,,go-2,1,,,,,,
0,0,5,phase_2,purple_circle,stop,blue,0.0,0-SSD,go-1,4,,,,,,
2,478.0,5,phase_2,green_circle,go,,,,go-2,1,,,,,,
1,431.0,5,phase_2,purple_rhombus,stop,red,200.0,tracking-SSD,go-1,3,,,,,,
2,417.0,5,phase_2,purple_triangle,go,,,,go-1,1,,,,,,
1,380.0,5,phase_2,green_pentagon,go,,,,go-2,1,,,,,,
1,368.0,5,phase_2,green_rhombus,go,,,,go-2,1,,,,,,
1,355.0,5,phase_2,green_rhombus,go,,,,go-2,1,,,,,,
2,419.0,5,phase_2,purple_circle,go,,,,go-1,1,,,,,,
1,452.0,5,phase_2,green_pentagon,stop,red,150.0,tracking-SSD,go-2,3,,,,,,
0,0,5,phase_2,purple_pentagon,stop,red,100.0,tracking-SSD,go-1,4,,,,,,
2,458.0,5,phase_2,green_triangle,go,,,,go-2,1,,,,,,
0,0,5,phase_2,green_triangle,stop,blue,0.0,0-SSD,go-2,4,,,,,,
0,0,5,phase_2,green_rhombus,stop,blue,0.0,0-SSD,go-2,4,,,,,,
0,0,5,phase_2,purple_rhombus,stop,blue,0.0,0-SSD,go-1,4,,,,,,
2,448.0,5,phase_2,green_triangle,go,,,,go-2,1,,,,,,
2,445.0,5,phase_2,purple_circle,go,,,,go-1,1,,,,,,
1,375.0,5,phase_2,purple_pentagon,go,,,,go-1,1,,,,,,
0,0,5,phase_2,green_triangle,stop,red,150.0,tracking-SSD,go-2,4,,,,,,
2,416.0,5,phase_2,purple_rhombus,go,,,,go-1,2,,,,,,
2,379.0,5,phase_2,green_rhombus,stop,red,200.0,tracking-SSD,go-2,3,,,,,,
1,399.0,5,phase_2,green_triangle,go,,,,go-2,2,,,,,,
2,464.0,5,phase_2,green_triangle,go,,,,go-2,1,,,,,,
2,394.0,5,phase_2,purple_triangle,go,,,,go-1,1,,,,,,
0,0,5,phase_2,purple_pentagon,stop,blue,0.0,0-SSD,go-1,4,,,,,,
0,0,5,phase_2,green_rhombus,stop,blue,0.0,0-SSD,go-2,4,,,,,,
2,409.0,5,phase_2,purple_triangle,go,,,,go-1,1,,,,,,
2,406.0,5,phase_2,purple_triangle,go,,,,go-1,1,,,,,,
1,404.0,5,phase_2,green_circle,go,,,,go-2,2,,,,,,
0,0,5,phase_2,purple_triangle,stop,blue,0.0,0-SSD,go-1,4,,,,,,
0,0,5,phase_2,purple_rhombus,stop,red,150.0,tracking-SSD,go-1,4,,,,,,
1,520.0,5,phase_2,purple_pentagon,go,,,,go-1,1,,,,,,
1,584.0,5,phase_2,purple_pentagon,go,,,,go-1,1,,,,,,
2,460.0,5,phase_2,purple_circle,stop,red,200.0,tracking-SSD,go-1,3,,,,,,
1,502.0,5,phase_2,green_pentagon,go,,,,go-2,1,,,,,,
1,410.0,5,phase_2,purple_pentagon,go,,,,go-1,1,,,,,,
0,0,5,phase_2,green_circle,stop,blue,0.0,0-SSD,go-2,4,,,,,,
1,427.0,5,phase_2,green_circle,go,,,,go-2,2,,,,,,
1,503.0,5,phase_2,purple_pentagon,go,,,,go-1,1,,,,,,
1,445.0,5,phase_2,purple_circle,go,,,,go-1,2,,,,,,
2,443.0,5,phase_2,purple_rhombus,go,,,,go-1,2,,,,,,
0,0,6,phase_2,green_rhombus,stop,red,150.0,tracking-SSD,go-2,4,,,,,,
1,450.0,6,phase_2,green_pentagon,go,,,,go-2,1,,,,,,
2,527.0,6,phase_2,green_circle,go,,,,go-2,1,,,,,,
2,447.0,6,phase_2,purple_circle,go,,,,go-1,1,,,,,,
1,490.0,6,phase_2,green_rhombus,stop,red,200.0,tracking-SSD,go-2,3,,,,,,
0,0,6,phase_2,purple_pentagon,stop,red,150.0,tracking-SSD,go-1,4,,,,,,
2,496.0,6,phase_2,purple_triangle,go,,,,go-1,1,,,,,,
1,460.0,6,phase_2,green_circle,go,,,,go-2,2,,,,,,
1,514.0,6,phase_2,purple_pentagon,go,,,,go-1,1,,,,,,
2,422.0,6,phase_2,green_rhombus,go,,,,go-2,2,,,,,,
2,498.0,6,phase_2,green_rhombus,go,,,,go-2,2,,,,,,
1,507.0,6,phase_2,purple_pentagon,go,,,,go-1,1,,,,,,
1,459.0,6,phase_2,green_pentagon,go,,,,go-2,1,,,,,,
2,581.0,6,phase_2,purple_circle,go,,,,go-1,1,,,,,,
1,500.0,6,phase_2,purple_pentagon,go,,,,go-1,1,,,,,,
1,610.0,6,phase_2,green_pentagon,go,,,,go-2,1,,,,,,
2,496.0,6,phase_2,purple_rhombus,stop,red,200.0,tracking-SSD,go-1,3,,,,,,
0,0,6,phase_2,green_circle,stop,red,150.0,tracking-SSD,go-2,4,,,,,,
0,0,6,phase_2,purple_circle,stop,blue,0.0,0-SSD,go-1,4,,,,,,
1,522.0,6,phase_2,green_pentagon,go,,,,go-2,1,,,,,,
0,0,6,phase_2,purple_circle,stop,red,200.0,tracking-SSD,go-1,4,,,,,,
2,506.0,6,phase_2,green_triangle,go,,,,go-2,1,,,,,,
0,0,6,phase_2,purple_rhombus,stop,blue,0.0,0-SSD,go-1,4,,,,,,
1,456.0,6,phase_2,purple_pentagon,go,,,,go-1,1,,,,,,
0,0,6,phase_2,green_rhombus,stop,blue,0.0,0-SSD,go-2,4,,,,,,
0,0,6,phase_2,green_triangle,stop,blue,0.0,0-SSD,go-2,4,,,,,,
2,539.0,6,phase_2,purple_triangle,go,,,,go-1,1,,,,,,
1,558.0,6,phase_2,purple_rhombus,go,,,,go-1,1,,,,,,
2,488.0,6,phase_2,green_triangle,go,,,,go-2,1,,,,,,
1,485.0,6,phase_2,purple_rhombus,stop,red,250.0,tracking-SSD,go-1,3,,,,,,
0,0,6,phase_2,green_circle,stop,blue,0.0,0-SSD,go-2,4,,,,,,
2,571.0,6,phase_2,purple_circle,go,,,,go-1,1,,,,,,
2,545.0,6,phase_2,purple_circle,go,,,,go-1,1,,,,,,
2,487.0,6,phase_2,purple_circle,go,,,,go-1,1,,,,,,
0,0,6,phase_2,purple_triangle,stop,blue,0.0,0-SSD,go-1,4,,,,,,
1,448.0,6,phase_2,green_pentagon,go,,,,go-2,1,,,,,,
0,0,6,phase_2,green_triangle,stop,red,200.0,tracking-SSD,go-2,4,,,,,,
2,612.0,6,phase_2,green_triangle,go,,,,go-2,1,,,,,,
0,0,6,phase_2,green_rhombus,stop,blue,0.0,0-SSD,go-2,4,,,,,,
2,528.0,6,phase_2,purple_circle,go,,,,go-1,1,,,,,,
1,449.0,6,phase_2,purple_pentagon,go,,,,go-1,1,,,,,,
2,526.0,6,phase_2,purple_triangle,go,,,,go-1,1,,,,,,
2,456.0,6,phase_2,green_triangle,go,,,,go-2,1,,,,,,
1,465.0,6,phase_2,green_rhombus,go,,,,go-2,1,,,,,,
2,507.0,6,phase_2,green_triangle,go,,,,go-2,1,,,,,,
2,426.0,6,phase_2,green_triangle,go,,,,go-2,1,,,,,,
1,446.0,6,phase_2,purple_rhombus,go,,,,go-1,1,,,,,,
0,0,6,phase_2,purple_pentagon,stop,blue,0.0,0-SSD,go-1,4,,,,,,
1,499.0,7,phase_2,purple_rhombus,go,,,,go-1,1,,,,,,
2,486.0,7,phase_2,green_circle,go,,,,go-2,1,,,,,,
1,427.0,7,phase_2,purple_rhombus,go,,,,go-1,1,,,,,,
2,525.0,7,phase_2,green_pentagon,go,,,,go-2,2,,,,,,
1,444.0,7,phase_2,green_pentagon,go,,,,go-2,1,,,,,,
1,385.0,7,phase_2,green_pentagon,go,,,,go-2,1,,,,,,
2,383.0,7,phase_2,purple_circle,stop,red,250.0,tracking-SSD,go-1,3,,,,,,
2,403.0,7,phase_2,purple_circle,go,,,,go-1,1,,,,,,
2,287.0,7,phase_2,green_rhombus,go,,,,go-2,2,,,,,,
1,420.0,7,phase_2,green_rhombus,go,,,,go-2,1,,,,,,
2,417.0,7,phase_2,green_circle,go,,,,go-2,1,,,,,,
2,426.0,7,phase_2,green_rhombus,go,,,,go-2,2,,,,,,
1,424.0,7,phase_2,purple_rhombus,go,,,,go-1,1,,,,,,
2,500.0,7,phase_2,green_pentagon,stop,blue,0.0,0-SSD,go-2,3,,,,,,
0,0,7,phase_2,purple_triangle,stop,red,200.0,tracking-SSD,go-1,4,,,,,,
2,450.0,7,phase_2,purple_circle,go,,,,go-1,1,,,,,,
1,538.0,7,phase_2,purple_rhombus,go,,,,go-1,1,,,,,,
1,400.0,7,phase_2,green_rhombus,go,,,,go-2,1,,,,,,
1,363.0,7,phase_2,green_rhombus,go,,,,go-2,1,,,,,,
2,428.0,7,phase_2,green_triangle,stop,red,250.0,tracking-SSD,go-2,3,,,,,,
2,404.0,7,phase_2,green_triangle,stop,red,200.0,tracking-SSD,go-2,3,,,,,,
1,358.0,7,phase_2,purple_pentagon,go,,,,go-1,1,,,,,,
2,412.0,7,phase_2,purple_triangle,go,,,,go-1,1,,,,,,
0,0,7,phase_2,purple_circle,stop,red,150.0,tracking-SSD,go-1,4,,,,,,
1,419.0,7,phase_2,purple_rhombus,go,,,,go-1,1,,,,,,
2,450.0,7,phase_2,purple_circle,go,,,,go-1,1,,,,,,
2,514.0,7,phase_2,green_triangle,go,,,,go-2,1,,,,,,
0,0,7,phase_2,green_circle,stop,blue,0.0,0-SSD,go-2,4,,,,,,
1,420.0,7,phase_2,green_pentagon,go,,,,go-2,1,,,,,,
0,0,7,phase_2,purple_triangle,stop,blue,0.0,0-SSD,go-1,4,,,,,,
1,461.0,7,phase_2,purple_rhombus,go,,,,go-1,1,,,,,,
0,0,7,phase_2,purple_triangle,stop,blue,0.0,0-SSD,go-1,4,,,,,,
0,0,7,phase_2,purple_pentagon,stop,blue,0.0,0-SSD,go-1,4,,,,,,
2,462.0,7,phase_2,green_pentagon,go,,,,go-2,2,,,,,,
1,506.0,7,phase_2,purple_pentagon,go,,,,go-1,1,,,,,,
0,0,7,phase_2,green_circle,stop,blue,0.0,0-SSD,go-2,4,,,,,,
1,433.0,7,phase_2,purple_pentagon,go,,,,go-1,1,,,,,,
2,531.0,7,phase_2,purple_circle,go,,,,go-1,1,,,,,,
2,541.0,7,phase_2,green_triangle,stop,red,200.0,tracking-SSD,go-2,3,,,,,,
0,0,7,phase_2,purple_circle,stop,red,150.0,tracking-SSD,go-1,4,,,,,,
1,636.0,7,phase_2,purple_rhombus,go,,,,go-1,1,,,,,,
1,477.0,7,phase_2,green_pentagon,go,,,,go-2,1,,,,,,
2,372.0,7,phase_2,green_triangle,go,,,,go-2,1,,,,,,
2,426.0,7,phase_2,purple_triangle,go,,,,go-1,1,,,,,,
2,402.0,7,phase_2,green_pentagon,stop,red,200.0,tracking-SSD,go-2,3,,,,,,
0,0,7,phase_2,green_circle,stop,blue,0.0,0-SSD,go-2,4,,,,,,
2,554.0,7,phase_2,green_triangle,go,,,,go-2,1,,,,,,
0,0,7,phase_2,purple_triangle,stop,blue,0.0,0-SSD,go-1,4,,,,,,
1,510.0,8,phase_2,green_pentagon,go,,,,go-2,1,,,,,,
2,417.0,8,phase_2,purple_rhombus,go,,,,go-1,2,,,,,,
1,403.0,8,phase_2,green_rhombus,go,,,,go-2,1,,,,,,
1,367.0,8,phase_2,green_rhombus,go,,,,go-2,1,,,,,,
2,513.0,8,phase_2,green_circle,stop,red,150.0,tracking-SSD,go-2,3,,,,,,
0,0,8,phase_2,purple_triangle,stop,red,100.0,tracking-SSD,go-1,4,,,,,,
0,0,8,phase_2,purple_circle,stop,red,150.0,tracking-SSD,go-1,4,,,,,,
1,472.0,8,phase_2,green_rhombus,go,,,,go-2,1,,,,,,
2,817.0,8,phase_2,purple_triangle,go,,,,go-1,1,,,,,,
1,523.0,8,phase_2,green_rhombus,go,,,,go-2,1,,,,,,
0,0,8,phase_2,green_circle,stop,blue,0.0,0-SSD,go-2,4,,,,,,
2,394.0,8,phase_2,green_triangle,go,,,,go-2,1,,,,,,
1,504.0,8,phase_2,green_pentagon,stop,red,200.0,tracking-SSD,go-2,3,,,,,,
1,389.0,8,phase_2,green_pentagon,go,,,,go-2,1,,,,,,
1,443.0,8,phase_2,purple_circle,go,,,,go-1,2,,,,,,
2,530.0,8,phase_2,purple_triangle,go,,,,go-1,1,,,,,,
0,0,8,phase_2,green_triangle,stop,red,150.0,tracking-SSD,go-2,4,,,,,,
0,0,8,phase_2,green_circle,stop,blue,0.0,0-SSD,go-2,4,,,,,,
1,446.0,8,phase_2,purple_pentagon,go,,,,go-1,1,,,,,,
2,487.0,8,phase_2,purple_triangle,go,,,,go-1,1,,,,,,
1,429.0,8,phase_2,purple_pentagon,go,,,,go-1,1,,,,,,
2,449.0,8,phase_2,purple_circle,go,,,,go-1,1,,,,,,
1,504.0,8,phase_2,green_rhombus,go,,,,go-2,1,,,,,,
0,0,8,phase_2,green_pentagon,stop,blue,0.0,0-SSD,go-2,4,,,,,,
1,522.0,8,phase_2,green_rhombus,go,,,,go-2,1,,,,,,
0,0,8,phase_2,purple_pentagon,stop,red,200.0,tracking-SSD,go-1,4,,,,,,
0,0,8,phase_2,purple_rhombus,stop,red,250.0,tracking-SSD,go-1,4,,,,,,
2,469.0,8,phase_2,purple_circle,go,,,,go-1,1,,,,,,
1,477.0,8,phase_2,purple_pentagon,go,,,,go-1,1,,,,,,
2,465.0,8,phase_2,purple_triangle,go,,,,go-1,1,,,,,,
1,439.0,8,phase_2,green_pentagon,go,,,,go-2,1,,,,,,
2,605.0,8,phase_2,green_triangle,go,,,,go-2,1,,,,,,
1,568.0,8,phase_2,purple_rhombus,go,,,,go-1,1,,,,,,
2,521.0,8,phase_2,green_circle,go,,,,go-2,1,,,,,,
1,486.0,8,phase_2,green_pentagon,go,,,,go-2,1,,,,,,
2,550.0,8,phase_2,purple_triangle,go,,,,go-1,1,,,,,,
0,0,8,phase_2,purple_circle,stop,blue,0.0,0-SSD,go-1,4,,,,,,
0,0,8,phase_2,purple_circle,stop,blue,0.0,0-SSD,go-1,4,,,,,,
0,0,8,phase_2,purple_triangle,stop,blue,0.0,0-SSD,go-1,4,,,,,,
1,518.0,8,phase_2,purple_pentagon,go,,,,go-1,1,,,,,,
1,706.0,8,phase_2,purple_rhombus,go,,,,go-1,1,,,,,,
0,0,8,phase_2,purple_triangle,stop,blue,0.0,0-SSD,go-1,4,,,,,,
1,431.0,8,phase_2,purple_rhombus,go,,,,go-1,1,,,,,,
2,507.0,8,phase_2,green_triangle,stop,red,300.0,tracking-SSD,go-2,3,,,,,,
1,438.0,8,phase_2,green_pentagon,go,,,,go-2,1,,,,,,
0,0,8,phase_2,green_circle,stop,blue,0.0,0-SSD,go-2,4,,,,,,
1,466.0,8,phase_2,green_rhombus,go,,,,go-2,1,,,,,,
2,429.0,8,phase_2,green_circle,go,,,,go-2,1,,,,,,
2,566.0,9,phase_2,purple_triangle,go,,,,go-1,1,,,,,,
2,394.0,9,phase_2,green_triangle,go,,,,go-2,1,,,,,,
0,0,9,phase_2,green_triangle,stop,blue,0.0,0-SSD,go-2,4,,,,,,
1,446.0,9,phase_2,purple_pentagon,stop,red,250.0,tracking-SSD,go-1,3,,,,,,
1,355.0,9,phase_2,purple_pentagon,go,,,,go-1,1,,,,,,
1,386.0,9,phase_2,green_pentagon,go,,,,go-2,1,,,,,,
1,408.0,9,phase_2,green_rhombus,go,,,,go-2,1,,,,,,
1,438.0,9,phase_2,purple_pentagon,go,,,,go-1,1,,,,,,
1,414.0,9,phase_2,green_rhombus,go,,,,go-2,1,,,,,,
1,467.0,9,phase_2,green_pentagon,go,,,,go-2,1,,,,,,
2,510.0,9,phase_2,green_circle,go,,,,go-2,1,,,,,,
1,361.0,9,phase_2,purple_triangle,go,,,,go-1,2,,,,,,
2,448.0,9,phase_2,green_rhombus,go,,,,go-2,2,,,,,,
0,0,9,phase_2,purple_circle,stop,blue,0.0,0-SSD,go-1,4,,,,,,
1,489.0,9,phase_2,purple_pentagon,go,,,,go-1,1,,,,,,
2,509.0,9,phase_2,purple_triangle,go,,,,go-1,1,,,,,,
0,0,9,phase_2,green_rhombus,stop,blue,0.0,0-SSD,go-2,4,,,,,,
2,492.0,9,phase_2,green_circle,go,,,,go-2,1,,,,,,
1,501.0,9,phase_2,purple_rhombus,stop,red,200.0,tracking-SSD,go-1,3,,,,,,
2,499.0,9,phase_2,purple_circle,go,,,,go-1,1,,,,,,
2,507.0,9,phase_2,purple_triangle,go,,,,go-1,1,,,,,,
1,459.0,9,phase_2,purple_circle,go,,,,go-1,2,,,,,,
0,0,9,phase_2,purple_triangle,stop,red,150.0,tracking-SSD,go-1,4,,,,,,
1,511.0,9,phase_2,green_pentagon,stop,red,200.0,tracking-SSD,go-2,3,,,,,,
1,464.0,9,phase_2,green_rhombus,go,,,,go-2,1,,,,,,
2,517.0,9,phase_2,green_circle,go,,,,go-2,1,,,,,,
0,0,9,phase_2,green_circle,stop,red,150.0,tracking-SSD,go-2,4,,,,,,
1,455.0,9,phase_2,purple_pentagon,go,,,,go-1,1,,,,,,
1,454.0,9,phase_2,purple_pentagon,go,,,,go-1,1,,,,,,
0,0,9,phase_2,green_circle,stop,blue,0.0,0-SSD,go-2,4,,,,,,
2,572.0,9,phase_2,green_triangle,go,,,,go-2,1,,,,,,
1,536.0,9,phase_2,green_rhombus,go,,,,go-2,1,,,,,,
1,465.0,9,phase_2,green_rhombus,go,,,,go-2,1,,,,,,
2,475.0,9,phase_2,purple_circle,go,,,,go-1,1,,,,,,
0,0,9,phase_2,green_rhombus,stop,blue,0.0,0-SSD,go-2,4,,,,,,
0,0,9,phase_2,purple_rhombus,stop,blue,0.0,0-SSD,go-1,4,,,,,,
1,490.0,9,phase_2,purple_rhombus,go,,,,go-1,1,,,,,,
2,566.0,9,phase_2,green_circle,stop,red,200.0,tracking-SSD,go-2,3,,,,,,
0,0,9,phase_2,purple_triangle,stop,blue,0.0,0-SSD,go-1,4,,,,,,
0,0,9,phase_2,green_rhombus,stop,red,150.0,tracking-SSD,go-2,4,,,,,,
0,0,9,phase_2,purple_pentagon,stop,blue,0.0,0-SSD,go-1,4,,,,,,
2,545.0,9,phase_2,purple_triangle,go,,,,go-1,1,,,,,,
1,553.0,9,phase_2,purple_pentagon,go,,,,go-1,1,,,,,,
0,0,9,phase_2,purple_circle,stop,red,200.0,tracking-SSD,go-1,4,,,,,,
2,762.0,9,phase_2,green_triangle,go,,,,go-2,1,,,,,,
1,434.0,9,phase_2,purple_pentagon,go,,,,go-1,1,,,,,,
2,566.0,9,phase_2,green_circle,go,,,,go-2,1,,,,,,
2,484.0,9,phase_2,green_triangle,go,,,,go-2,1,,,,,,
1,567.0,10,phase_2,purple_pentagon,go,,,,go-1,1,,,,,,
1,407.0,10,phase_2,purple_pentagon,go,,,,go-1,1,,,,,,
0,0,10,phase_2,purple_rhombus,stop,blue,0.0,0-SSD,go-1,4,,,,,,
2,492.0,10,phase_2,green_triangle,go,,,,go-2,1,,,,,,
1,421.0,10,phase_2,purple_rhombus,stop,red,250.0,tracking-SSD,go-1,3,,,,,,
1,532.0,10,phase_2,green_pentagon,go,,,,go-2,1,,,,,,
2,441.0,10,phase_2,green_circle,go,,,,go-2,1,,,,,,
0,0,10,phase_2,green_circle,stop,blue,0.0,0-SSD,go-2,4,,,,,,
2,797.0,10,phase_2,purple_circle,go,,,,go-1,1,,,,,,
0,0,10,phase_2,purple_rhombus,stop,blue,0.0,0-SSD,go-1,4,,,,,,
1,388.0,10,phase_2,purple_pentagon,stop,red,200.0,tracking-SSD,go-1,3,,,,,,
2,475.0,10,phase_2,green_circle,go,,,,go-2,1,,,,,,
0,0,10,phase_2,purple_pentagon,stop,red,150.0,tracking-SSD,go-1,4,,,,,,
2,469.0,10,phase_2,purple_rhombus,go,,,,go-1,2,,,,,,
0,0,10,phase_2,green_triangle,stop,red,200.0,tracking-SSD,go-2,4,,,,,,
2,441.0,10,phase_2,green_circle,go,,,,go-2,1,,,,,,
1,372.0,10,phase_2,purple_triangle,go,,,,go-1,2,,,,,,
2,437.0,10,phase_2,green_circle,go,,,,go-2,1,,,,,,
1,389.0,10,phase_2,green_rhombus,go,,,,go-2,1,,,,,,
2,397.0,10,phase_2,purple_circle,go,,,,go-1,1,,,,,,
0,0,10,phase_2,green_triangle,stop,blue,0.0,0-SSD,go-2,4,,,,,,
1,439.0,10,phase_2,purple_rhombus,go,,,,go-1,1,,,,,,
2,480.0,10,phase_2,purple_triangle,stop,red,250.0,tracking-SSD,go-1,3,,,,,,
2,421.0,10,phase_2,purple_triangle,go,,,,go-1,1,,,,,,
1,464.0,10,phase_2,green_pentagon,go,,,,go-2,1,,,,,,
1,428.0,10,phase_2,purple_triangle,go,,,,go-1,2,,,,,,
2,607.0,10,phase_2,green_triangle,go,,,,go-2,1,,,,,,
1,437.0,10,phase_2,green_rhombus,go,,,,go-2,1,,,,,,
0,0,10,phase_2,green_rhombus,stop,blue,0.0,0-SSD,go-2,4,,,,,,
1,410.0,10,phase_2,green_pentagon,stop,red,200.0,tracking-SSD,go-2,3,,,,,,
2,486.0,10,phase_2,green_circle,go,,,,go-2,1,,,,,,
2,461.0,10,phase_2,purple_circle,go,,,,go-1,1,,,,,,
0,0,10,phase_2,green_rhombus,stop,blue,0.0,0-SSD,go-2,4,,,,,,
1,489.0,10,phase_2,purple_pentagon,go,,,,go-1,1,,,,,,
1,509.0,10,phase_2,green_rhombus,go,,,,go-2,1,,,,,,
1,382.0,10,phase_2,green_rhombus,go,,,,go-2,1,,,,,,
1,505.0,10,phase_2,green_pentagon,go,,,,go-2,1,,,,,,
1,355.0,10,phase_2,green_pentagon,go,,,,go-2,1,,,,,,
2,420.0,10,phase_2,purple_triangle,go,,,,go-1,1,,,,,,
0,0,10,phase_2,purple_triangle,stop,blue,0.0,0-SSD,go-1,4,,,,,,
0,0,10,phase_2,purple_pentagon,stop,blue,0.0,0-SSD,go-1,4,,,,,,
0,0,10,phase_2,green_triangle,stop,red,150.0,tracking-SSD,go-2,4,,,,,,
2,422.0,10,phase_2,green_circle,go,,,,go-2,1,,,,,,
1,453.0,10,phase_2,purple_pentagon,go,,,,go-1,1,,,,,,
2,461.0,10,phase_2,purple_circle,go,,,,go-1,1,,,,,,
2,391.0,10,phase_2,purple_circle,go,,,,go-1,1,,,,,,
1,469.0,10,phase_2,purple_rhombus,go,,,,go-1,1,,,,,,
0,0,10,phase_2,green_triangle,stop,red,200.0,tracking-SSD,go-2,4,,,,,,
1,466.0,11,phase_2,purple_pentagon,go,,,,go-1,1,,,,,,
1,418.0,11,phase_2,green_rhombus,go,,,,go-2,1,,,,,,
0,0,11,phase_2,green_circle,stop,blue,0.0,0-SSD,go-2,4,,,,,,
1,435.0,11,phase_2,purple_pentagon,go,,,,go-1,1,,,,,,
2,388.0,11,phase_2,green_rhombus,go,,,,go-2,2,,,,,,
2,373.0,11,phase_2,green_rhombus,stop,red,250.0,tracking-SSD,go-2,3,,,,,,
1,484.0,11,phase_2,purple_rhombus,go,,,,go-1,1,,,,,,
2,436.0,11,phase_2,green_circle,go,,,,go-2,1,,,,,,
1,591.0,11,phase_2,purple_pentagon,stop,red,200.0,tracking-SSD,go-1,3,,,,,,
0,0,11,phase_2,green_pentagon,stop,red,150.0,tracking-SSD,go-2,4,,,,,,
2,452.0,11,phase_2,purple_triangle,go,,,,go-1,1,,,,,,
2,426.0,11,phase_2,green_triangle,go,,,,go-2,1,,,,,,
2,379.0,11,phase_2,purple_triangle,go,,,,go-1,1,,,,,,
1,500.0,11,phase_2,green_pentagon,stop,red,200.0,tracking-SSD,go-2,3,,,,,,
2,452.0,11,phase_2,green_triangle,go,,,,go-2,1,,,,,,
0,0,11,phase_2,green_circle,stop,blue,0.0,0-SSD,go-2,4,,,,,,
2,695.0,11,phase_2,purple_triangle,go,,,,go-1,1,,,,,,
2,580.0,11,phase_2,green_circle,go,,,,go-2,1,,,,,,
1,454.0,11,phase_2,green_rhombus,go,,,,go-2,1,,,,,,
0,0,11,phase_2,purple_circle,stop,blue,0.0,0-SSD,go-1,4,,,,,,
1,460.0,11,phase_2,purple_rhombus,go,,,,go-1,1,,,,,,
1,424.0,11,phase_2,green_pentagon,go,,,,go-2,1,,,,,,
2,398.0,11,phase_2,purple_triangle,go,,,,go-1,1,,,,,,
0,0,11,phase_2,purple_circle,stop,blue,0.0,0-SSD,go-1,4,,,,,,
0,0,11,phase_2,green_pentagon,stop,red,150.0,tracking-SSD,go-2,4,,,,,,
0,0,11,phase_2,green_triangle,stop,blue,0.0,0-SSD,go-2,4,,,,,,
1,424.0,11,phase_2,purple_circle,go,,,,go-1,2,,,,,,
1,398.0,11,phase_2,green_circle,go,,,,go-2,2,,,,,,
2,442.0,11,phase_2,purple_triangle,go,,,,go-1,1,,,,,,
1,496.0,11,phase_2,green_pentagon,go,,,,go-2,1,,,,,,
1,527.0,11,phase_2,green_rhombus,go,,,,go-2,1,,,,,,
0,0,11,phase_2,purple_circle,stop,blue,0.0,0-SSD,go-1,4,,,,,,
2,556.0,11,phase_2,purple_triangle,go,,,,go-1,1,,,,,,
0,0,11,phase_2,purple_rhombus,stop,blue,0.0,0-SSD,go-1,4,,,,,,
2,394.0,11,phase_2,green_pentagon,go,,,,go-2,2,,,,,,
1,593.0,11,phase_2,green_rhombus,go,,,,go-2,1,,,,,,
1,466.0,11,phase_2,purple_pentagon,go,,,,go-1,1,,,,,,
2,455.0,11,phase_2,purple_circle,go,,,,go-1,1,,,,,,
1,440.0,11,phase_2,purple_rhombus,go,,,,go-1,1,,,,,,
1,494.0,11,phase_2,purple_pentagon,go,,,,go-1,1,,,,,,
2,412.0,11,phase_2,purple_triangle,stop,red,200.0,tracking-SSD,go-1,3,,,,,,
1,455.0,11,phase_2,green_circle,go,,,,go-2,2,,,,,,
0,0,11,phase_2,purple_pentagon,stop,red,150.0,tracking-SSD,go-1,4,,,,,,
0,0,11,phase_2,green_rhombus,stop,blue,0.0,0-SSD,go-2,4,,,,,,
2,447.0,11,phase_2,purple_circle,go,,,,go-1,1,,,,,,
0,0,11,phase_2,purple_rhombus,stop,red,200.0,tracking-SSD,go-1,4,,,,,,
2,441.0,11,phase_2,green_triangle,go,,,,go-2,1,,,,,,
2,394.0,11,phase_2,green_triangle,go,,,,go-2,1,,,,,,
0,0,12,phase_2,green_triangle,stop,blue,0.0,0-SSD,go-2,4,,,,,,
1,464.0,12,phase_2,purple_pentagon,go,,,,go-1,1,,,,,,
0,0,12,phase_2,green_triangle,stop,blue,0.0,0-SSD,go-2,4,,,,,,
2,435.0,12,phase_2,green_circle,go,,,,go-2,1,,,,,,
2,445.0,12,phase_2,green_triangle,go,,,,go-2,1,,,,,,
0,0,12,phase_2,purple_triangle,stop,blue,0.0,0-SSD,go-1,4,,,,,,
1,451.0,12,phase_2,green_pentagon,stop,red,250.0,tracking-SSD,go-2,3,,,,,,
0,0,12,phase_2,green_rhombus,stop,blue,0.0,0-SSD,go-2,4,,,,,,
2,400.0,12,phase_2,purple_pentagon,go,,,,go-1,2,,,,,,
1,545.0,12,phase_2,purple_rhombus,go,,,,go-1,1,,,,,,
1,362.0,12,phase_2,purple_rhombus,go,,,,go-1,1,,,,,,
1,404.0,12,phase_2,green_rhombus,go,,,,go-2,1,,,,,,
0,0,12,phase_2,green_pentagon,stop,blue,0.0,0-SSD,go-2,4,,,,,,
1,421.0,12,phase_2,green_circle,stop,red,200.0,tracking-SSD,go-2,3,,,,,,
2,442.0,12,phase_2,purple_triangle,go,,,,go-1,1,,,,,,
2,394.0,12,phase_2,green_rhombus,go,,,,go-2,2,,,,,,
1,483.0,12,phase_2,purple_pentagon,go,,,,go-1,1,,,,,,
0,0,12,phase_2,purple_circle,stop,red,150.0,tracking-SSD,go-1,4,,,,,,
1,591.0,12,phase_2,green_pentagon,go,,,,go-2,1,,,,,,
2,488.0,12,phase_2,green_triangle,go,,,,go-2,1,,,,,,
2,475.0,12,phase_2,green_triangle,go,,,,go-2,1,,,,,,
1,427.0,12,phase_2,green_circle,go,,,,go-2,2,,,,,,
2,401.0,12,phase_2,green_circle,go,,,,go-2,1,,,,,,
2,365.0,12,phase_2,green_circle,go,,,,go-2,1,,,,,,
2,453.0,12,phase_2,purple_triangle,stop,red,200.0,tracking-SSD,go-1,3,,,,,,
2,428.0,12,phase_2,purple_triangle,go,,,,go-1,1,,,,,,
1,470.0,12,phase_2,purple_pentagon,stop,red,150.0,tracking-SSD,go-1,3,,,,,,
2,850.0,12,phase_2,purple_circle,go,,,,go-1,1,,,,,,
0,0,12,phase_2,green_rhombus,stop,red,100.0,tracking-SSD,go-2,4,,,,,,
1,485.0,12,phase_2,purple_rhombus,go,,,,go-1,1,,,,,,
1,427.0,12,phase_2,purple_rhombus,go,,,,go-1,1,,,,,,
0,0,12,phase_2,purple_triangle,stop,blue,0.0,0-SSD,go-1,4,,,,,,
0,0,12,phase_2,purple_rhombus,stop,blue,0.0,0-SSD,go-1,4,,,,,,
2,565.0,12,phase_2,green_triangle,go,,,,go-2,1,,,,,,
0,0,12,phase_2,purple_circle,stop,red,150.0,tracking-SSD,go-1,4,,,,,,
1,471.0,12,phase_2,purple_rhombus,go,,,,go-1,1,,,,,,
0,0,12,phase_2,purple_pentagon,stop,blue,0.0,0-SSD,go-1,4,,,,,,
1,690.0,12,phase_2,green_pentagon,go,,,,go-2,1,,,,,,
1,395.0,12,phase_2,purple_pentagon,go,,,,go-1,1,,,,,,
2,562.0,12,phase_2,green_circle,go,,,,go-2,1,,,,,,
1,559.0,12,phase_2,green_rhombus,go,,,,go-2,1,,,,,,
1,534.0,12,phase_2,purple_circle,go,,,,go-1,2,,,,,,
2,521.0,12,phase_2,green_circle,go,,,,go-2,1,,,,,,
1,585.0,12,phase_2,purple_rhombus,go,,,,go-1,1,,,,,,
1,538.0,12,phase_2,purple_pentagon,go,,,,go-1,1,,,,,,
2,435.0,12,phase_2,purple_circle,go,,,,go-1,1,,,,,,
1,623.0,12,phase_2,green_pentagon,stop,red,200.0,tracking-SSD,go-2,3,,,,,,
1,508.0,12,phase_2,green_triangle,go,,,,go-2,2,,,,,,
0,0,13,phase_2,green_rhombus,stop,blue,0.0,0-SSD,go-2,4,,,,,,
2,452.0,13,phase_2,purple_circle,go,,,,go-1,1,,,,,,
0,0,13,phase_2,green_circle,stop,red,150.0,tracking-SSD,go-2,4,,,,,,
0,0,13,phase_2,green_triangle,stop,red,200.0,tracking-SSD,go-2,4,,,,,,
1,566.0,13,phase_2,purple_rhombus,stop,red,250.0,tracking-SSD,go-1,3,,,,,,
1,541.0,13,phase_2,green_rhombus,go,,,,go-2,1,,,,,,
0,0,13,phase_2,purple_pentagon,stop,blue,0.0,0-SSD,go-1,4,,,,,,
0,0,13,phase_2,purple_pentagon,stop,blue,0.0,0-SSD,go-1,4,,,,,,
2,455.0,13,phase_2,green_triangle,go,,,,go-2,1,,,,,,
0,0,13,phase_2,purple_circle,stop,red,200.0,tracking-SSD,go-1,4,,,,,,
2,427.0,13,phase_2,purple_triangle,go,,,,go-1,1,,,,,,
2,526.0,13,phase_2,green_triangle,go,,,,go-2,1,,,,,,
1,524.0,13,phase_2,purple_rhombus,go,,,,go-1,1,,,,,,
2,611.0,13,phase_2,green_circle,go,,,,go-2,1,,,,,,
1,518.0,13,phase_2,purple_pentagon,stop,red,250.0,tracking-SSD,go-1,3,,,,,,
2,414.0,13,phase_2,green_rhombus,go,,,,go-2,2,,,,,,
0,0,13,phase_2,purple_triangle,stop,blue,0.0,0-SSD,go-1,4,,,,,,
1,431.0,13,phase_2,purple_triangle,go,,,,go-1,2,,,,,,
0,0,13,phase_2,purple_rhombus,stop,blue,0.0,0-SSD,go-1,4,,,,,,
2,506.0,13,phase_2,green_circle,go,,,,go-2,1,,,,,,
1,514.0,13,phase_2,purple_pentagon,go,,,,go-1,1,,,,,,
2,545.0,13,phase_2,green_triangle,stop,red,200.0,tracking-SSD,go-2,3,,,,,,
2,532.0,13,phase_2,green_triangle,go,,,,go-2,1,,,,,,
2,529.0,13,phase_2,purple_circle,go,,,,go-1,1,,,,,,
2,471.0,13,phase_2,green_rhombus,go,,,,go-2,2,,,,,,
1,546.0,13,phase_2,purple_pentagon,go,,,,go-1,1,,,,,,
2,499.0,13,phase_2,purple_circle,go,,,,go-1,1,,,,,,
2,440.0,13,phase_2,green_triangle,go,,,,go-2,1,,,,,,
1,449.0,13,phase_2,green_rhombus,go,,,,go-2,1,,,,,,
1,559.0,13,phase_2,purple_pentagon,go,,,,go-1,1,,,,,,
2,511.0,13,phase_2,green_rhombus,go,,,,go-2,2,,,,,,
0,0,13,phase_2,green_triangle,stop,blue,0.0,0-SSD,go-2,4,,,,,,
2,563.0,13,phase_2,purple_circle,go,,,,go-1,1,,,,,,
1,538.0,13,phase_2,purple_pentagon,go,,,,go-1,1,,,,,,
0,0,13,phase_2,purple_triangle,stop,red,150.0,tracking-SSD,go-1,4,,,,,,
2,500.0,13,phase_2,purple_rhombus,go,,,,go-1,2,,,,,,
2,518.0,13,phase_2,green_circle,go,,,,go-2,1,,,,,,
1,560.0,13,phase_2,green_pentagon,go,,,,go-2,1,,,,,,
1,366.0,13,phase_2,green_pentagon,go,,,,go-2,1,,,,,,
2,466.0,13,phase_2,green_circle,go,,,,go-2,1,,,,,,
1,452.0,13,phase_2,purple_pentagon,go,,,,go-1,1,,,,,,
0,0,13,phase_2,green_rhombus,stop,blue,0.0,0-SSD,go-2,4,,,,,,
1,570.0,13,phase_2,purple_rhombus,go,,,,go-1,1,,,,,,
2,557.0,13,phase_2,purple_triangle,go,,,,go-1,1,,,,,,
1,431.0,13,phase_2,green_pentagon,go,,,,go-2,1,,,,,,
2,484.0,13,phase_2,green_circle,stop,red,200.0,tracking-SSD,go-2,3,,,,,,
0,0,13,phase_2,green_circle,stop,blue,0.0,0-SSD,go-2,4,,,,,,
1,513.0,13,phase_2,purple_pentagon,go,,,,go-1,1,,,,,,
1,522.0,14,phase_2,purple_rhombus,go,,,,go-1,1,,,,,,
0,0,14,phase_2,purple_triangle,stop,blue,0.0,0-SSD,go-1,4,,,,,,
1,494.0,14,phase_2,purple_pentagon,go,,,,go-1,1,,,,,,
2,470.0,14,phase_2,purple_triangle,go,,,,go-1,1,,,,,,
2,423.0,14,phase_2,green_triangle,go,,,,go-2,1,,,,,,
1,554.0,14,phase_2,green_rhombus,go,,,,go-2,1,,,,,,
0,0,14,phase_2,purple_rhombus,stop,red,150.0,tracking-SSD,go-1,4,,,,,,
1,483.0,14,phase_2,green_pentagon,go,,,,go-2,1,,,,,,
2,501.0,14,phase_2,purple_circle,go,,,,go-1,1,,,,,,
2,387.0,14,phase_2,purple_triangle,go,,,,go-1,1,,,,,,
2,441.0,14,phase_2,purple_circle,go,,,,go-1,1,,,,,,
1,483.0,14,phase_2,green_pentagon,stop,red,200.0,tracking-SSD,go-2,3,,,,,,
1,447.0,14,phase_2,green_pentagon,go,,,,go-2,1,,,,,,
2,478.0,14,phase_2,green_triangle,go,,,,go-2,1,,,,,,
0,0,14,phase_2,purple_triangle,stop,blue,0.0,0-SSD,go-1,4,,,,,,
1,473.0,14,phase_2,purple_pentagon,go,,,,go-1,1,,,,,,
2,414.0,14,phase_2,green_circle,go,,,,go-2,1,,,,,,
2,445.0,14,phase_2,green_pentagon,go,,,,go-2,2,,,,,,
1,431.0,14,phase_2,purple_pentagon,go,,,,go-1,1,,,,,,
2,462.0,14,phase_2,green_circle,go,,,,go-2,1,,,,,,
1,449.0,14,phase_2,green_rhombus,go,,,,go-2,1,,,,,,
0,0,14,phase_2,green_circle,stop,blue,0.0,0-SSD,go-2,4,,,,,,
2,468.0,14,phase_2,green_triangle,go,,,,go-2,1,,,,,,
1,455.0,14,phase_2,purple_pentagon,stop,red,150.0,tracking-SSD,go-1,3,,,,,,
1,512.0,14,phase_2,purple_rhombus,go,,,,go-1,1,,,,,,
1,417.0,14,phase_2,green_rhombus,go,,,,go-2,1,,,,,,
2,459.0,14,phase_2,purple_triangle,stop,red,100.0,tracking-SSD,go-1,3,,,,,,
0,0,14,phase_2,green_pentagon,stop,red,50.0,tracking-SSD,go-2,4,,,,,,
2,487.0,14,phase_2,purple_triangle,go,,,,go-1,1,,,,,,
1,451.0,14,phase_2,green_circle,go,,,,go-2,2,,,,,,
0,0,14,phase_2,green_circle,stop,blue,0.0,0-SSD,go-2,4,,,,,,
1,447.0,14,phase_2,purple_pentagon,go,,,,go-1,1,,,,,,
0,0,14,phase_2,green_triangle,stop,blue,0.0,0-SSD,go-2,4,,,,,,
0,0,14,phase_2,green_circle,stop,red,100.0,tracking-SSD,go-2,4,,,,,,
2,415.0,14,phase_2,green_rhombus,go,,,,go-2,2,,,,,,
0,0,14,phase_2,purple_pentagon,stop,blue,0.0,0-SSD,go-1,4,,,,,,
0,0,14,phase_2,purple_circle,stop,red,150.0,tracking-SSD,go-1,4,,,,,,
1,522.0,14,phase_2,purple_rhombus,go,,,,go-1,1,,,,,,
0,0,14,phase_2,purple_triangle,stop,blue,0.0,0-SSD,go-1,4,,,,,,
2,504.0,14,phase_2,purple_circle,go,,,,go-1,1,,,,,,
1,469.0,14,phase_2,purple_rhombus,go,,,,go-1,1,,,,,,
1,567.0,14,phase_2,green_pentagon,go,,,,go-2,1,,,,,,
0,0,14,phase_2,green_circle,stop,red,200.0,tracking-SSD,go-2,4,,,,,,
2,541.0,14,phase_2,green_triangle,go,,,,go-2,1,,,,,,
0,0,14,phase_2,green_rhombus,stop,blue,0.0,0-SSD,go-2,4,,,,,,
1,468.0,14,phase_2,purple_rhombus,go,,,,go-1,1,,,,,,
1,454.0,14,phase_2,green_rhombus,go,,,,go-2,1,,,,,,
2,463.0,14,phase_2,purple_circle,go,,,,go-1,1,,,,,,
2,387.0,15,phase_2,purple_triangle,go,,,,go-1,1,,,,,,
1,428.0,15,phase_2,purple_rhombus,go,,,,go-1,1,,,,,,
1,494.0,15,phase_2,green_pentagon,go,,,,go-2,1,,,,,,
1,424.0,15,phase_2,green_pentagon,go,,,,go-2,1,,,,,,
2,388.0,15,phase_2,purple_circle,go,,,,go-1,1,,,,,,
0,0,15,phase_2,green_pentagon,stop,blue,0.0,0-SSD,go-2,4,,,,,,
2,495.0,15,phase_2,purple_triangle,go,,,,go-1,1,,,,,,
1,526.0,15,phase_2,purple_rhombus,go,,,,go-1,1,,,,,,
2,389.0,15,phase_2,green_circle,stop,red,250.0,tracking-SSD,go-2,3,,,,,,
2,443.0,15,phase_2,purple_circle,go,,,,go-1,1,,,,,,
2,373.0,15,phase_2,green_circle,go,,,,go-2,1,,,,,,
2,394.0,15,phase_2,green_circle,go,,,,go-2,1,,,,,,
1,402.0,15,phase_2,green_triangle,go,,,,go-2,2,,,,,,
1,546.0,15,phase_2,purple_pentagon,go,,,,go-1,1,,,,,,
1,442.0,15,phase_2,purple_rhombus,go,,,,go-1,1,,,,,,
0,0,15,phase_2,green_circle,stop,blue,0.0,0-SSD,go-2,4,,,,,,
2,403.0,15,phase_2,green_triangle,go,,,,go-2,1,,,,,,
2,512.0,15,phase_2,purple_triangle,stop,red,200.0,tracking-SSD,go-1,3,,,,,,
0,0,15,phase_2,purple_circle,stop,red,150.0,tracking-SSD,go-1,4,,,,,,
1,417.0,15,phase_2,green_rhombus,go,,,,go-2,1,,,,,,
0,0,15,phase_2,green_pentagon,stop,red,200.0,tracking-SSD,go-2,4,,,,,,
2,445.0,15,phase_2,green_circle,go,,,,go-2,1,,,,,,
1,455.0,15,phase_2,purple_rhombus,go,,,,go-1,1,,,,,,
2,497.0,15,phase_2,purple_circle,go,,,,go-1,1,,,,,,
0,0,15,phase_2,purple_pentagon,stop,blue,0.0,0-SSD,go-1,4,,,,,,
1,458.0,15,phase_2,green_rhombus,stop,red,250.0,tracking-SSD,go-2,3,,,,,,
0,0,15,phase_2,purple_circle,stop,blue,0.0,0-SSD,go-1,4,,,,,,
1,397.0,15,phase_2,green_triangle,go,,,,go-2,2,,,,,,
0,0,15,phase_2,purple_triangle,stop,blue,0.0,0-SSD,go-1,4,,,,,,
2,493.0,15,phase_2,green_triangle,go,,,,go-2,1,,,,,,
2,423.0,15,phase_2,purple_triangle,stop,red,200.0,tracking-SSD,go-1,3,,,,,,
2,431.0,15,phase_2,green_circle,go,,,,go-2,1,,,,,,
1,484.0,15,phase_2,green_pentagon,go,,,,go-2,1,,,,,,
0,0,15,phase_2,green_rhombus,stop,blue,0.0,0-SSD,go-2,4,,,,,,
2,446.0,15,phase_2,purple_triangle,go,,,,go-1,1,,,,,,
1,444.0,15,phase_2,purple_pentagon,go,,,,go-1,1,,,,,,
1,542.0,15,phase_2,green_rhombus,go,,,,go-2,1,,,,,,
2,551.0,15,phase_2,green_pentagon,go,,,,go-2,2,,,,,,
2,448.0,15,phase_2,purple_pentagon,go,,,,go-1,2,,,,,,
0,0,15,phase_2,green_triangle,stop,blue,0.0,0-SSD,go-2,4,,,,,,
1,499.0,15,phase_2,purple_pentagon,go,,,,go-1,1,,,,,,
0,0,15,phase_2,purple_circle,stop,red,150.0,tracking-SSD,go-1,4,,,,,,
2,898.0,15,phase_2,green_triangle,go,,,,go-2,1,,,,,,
1,491.0,15,phase_2,purple_rhombus,go,,,,go-1,1,,,,,,
1,466.0,15,phase_2,purple_rhombus,go,,,,go-1,1,,,,,,
1,554.0,15,phase_2,green_rhombus,stop,red,200.0,tracking-SSD,go-2,3,,,,,,
0,0,15,phase_2,purple_rhombus,stop,blue,0.0,0-SSD,go-1,4,,,,,,
1,358.0,15,phase_2,green_pentagon,go,,,,go-2,1,,,,,,
0,0,16,phase_2,green_rhombus,stop,red,150.0,tracking-SSD,go-2,4,,,,,,
0,0,16,phase_2,purple_pentagon,stop,red,200.0,tracking-SSD,go-1,4,,,,,,
2,450.0,16,phase_2,green_triangle,go,,,,go-2,1,,,,,,
2,560.0,16,phase_2,purple_circle,go,,,,go-1,1,,,,,,
2,433.0,16,phase_2,green_triangle,go,,,,go-2,1,,,,,,
2,464.0,16,phase_2,purple_triangle,go,,,,go-1,1,,,,,,
2,564.0,16,phase_2,green_circle,stop,red,250.0,tracking-SSD,go-2,3,,,,,,
0,0,16,phase_2,green_rhombus,stop,blue,0.0,0-SSD,go-2,4,,,,,,
1,390.0,16,phase_2,purple_pentagon,go,,,,go-1,1,,,,,,
2,454.0,16,phase_2,green_triangle,go,,,,go-2,1,,,,,,
2,553.0,16,phase_2,green_circle,go,,,,go-2,1,,,,,,
2,371.0,16,phase_2,green_circle,go,,,,go-2,1,,,,,,
0,0,16,phase_2,purple_triangle,stop,blue,0.0,0-SSD,go-1,4,,,,,,
2,400.0,16,phase_2,green_triangle,go,,,,go-2,1,,,,,,
2,385.0,16,phase_2,green_circle,go,,,,go-2,1,,,,,,
2,406.0,16,phase_2,green_circle,go,,,,go-2,1,,,,,,
1,651.0,16,phase_2,green_pentagon,go,,,,go-2,1,,,,,,
1,424.0,16,phase_2,purple_pentagon,stop,red,200.0,tracking-SSD,go-1,3,,,,,,
0,0,16,phase_2,purple_circle,stop,blue,0.0,0-SSD,go-1,4,,,,,,
2,555.0,16,phase_2,purple_triangle,go,,,,go-1,1,,,,,,
1,405.0,16,phase_2,green_pentagon,go,,,,go-2,1,,,,,,
2,526.0,16,phase_2,green_triangle,go,,,,go-2,1,,,,,,
1,511.0,16,phase_2,purple_pentagon,go,,,,go-1,1,,,,,,
1,464.0,16,phase_2,purple_pentagon,go,,,,go-1,1,,,,,,
1,450.0,16,phase_2,purple_pentagon,go,,,,go-1,1,,,,,,
1,470.0,16,phase_2,purple_pentagon,go,,,,go-1,1,,,,,,
0,0,16,phase_2,green_rhombus,stop,blue,0.0,0-SSD,go-2,4,,,,,,
1,510.0,16,phase_2,purple_rhombus,go,,,,go-1,1,,,,,,
0,0,16,phase_2,green_pentagon,stop,red,150.0,tracking-SSD,go-2,4,,,,,,
1,449.0,16,phase_2,green_rhombus,go,,,,go-2,1,,,,,,
2,548.0,16,phase_2,purple_circle,stop,red,200.0,tracking-SSD,go-1,3,,,,,,
1,456.0,16,phase_2,green_rhombus,go,,,,go-2,1,,,,,,
2,421.0,16,phase_2,purple_circle,go,,,,go-1,1,,,,,,
0,0,16,phase_2,purple_rhombus,stop,blue,0.0,0-SSD,go-1,4,,,,,,
1,429.0,16,phase_2,green_rhombus,stop,red,150.0,tracking-SSD,go-2,3,,,,,,
1,472.0,16,phase_2,purple_rhombus,go,,,,go-1,1,,,,,,
1,424.0,16,phase_2,purple_rhombus,go,,,,go-1,1,,,,,,
1,444.0,16,phase_2,green_circle,go,,,,go-2,2,,,,,,
0,0,16,phase_2,green_pentagon,stop,blue,0.0,0-SSD,go-2,4,,,,,,
2,641.0,16,phase_2,green_triangle,go,,,,go-2,1,,,,,,
2,425.0,16,phase_2,purple_triangle,go,,,,go-1,1,,,,,,
0,0,16,phase_2,purple_triangle,stop,blue,0.0,0-SSD,go-1,4,,,,,,
2,409.0,16,phase_2,purple_triangle,go,,,,go-1,1,,,,,,
2,565.0,16,phase_2,purple_circle,go,,,,go-1,1,,,,,,
1,485.0,16,phase_2,purple_pentagon,go,,,,go-1,1,,,,,,
0,0,16,phase_2,purple_rhombus,stop,red,100.0,tracking-SSD,go-1,4,,,,,,
2,491.0,16,phase_2,green_circle,go,,,,go-2,1,,,,,,
0,0,16,phase_2,green_rhombus,stop,blue,0.0,0-SSD,go-2,4,,,,,,
1,500.0,17,phase_2,green_rhombus,go,,,,go-2,1,,,,,,
1,486.0,17,phase_2,green_pentagon,go,,,,go-2,1,,,,,,
1,417.0,17,phase_2,purple_circle,go,,,,go-1,2,,,,,,
0,0,17,phase_2,purple_rhombus,stop,blue,0.0,0-SSD,go-1,4,,,,,,
1,706.0,17,phase_2,green_pentagon,go,,,,go-2,1,,,,,,
2,479.0,17,phase_2,green_circle,go,,,,go-2,1,,,,,,
2,467.0,17,phase_2,purple_triangle,go,,,,go-1,1,,,,,,
2,408.0,17,phase_2,purple_triangle,stop,red,150.0,tracking-SSD,go-1,3,,,,,,
0,0,17,phase_2,green_circle,stop,blue,0.0,0-SSD,go-2,4,,,,,,
1,392.0,17,phase_2,purple_pentagon,go,,,,go-1,1,,,,,,
1,469.0,17,phase_2,purple_rhombus,go,,,,go-1,1,,,,,,
0,0,17,phase_2,purple_circle,stop,blue,0.0,0-SSD,go-1,4,,,,,,
0,0,17,phase_2,green_pentagon,stop,red,100.0,tracking-SSD,go-2,4,,,,,,
1,385.0,17,phase_2,purple_triangle,go,,,,go-1,2,,,,,,
0,0,17,phase_2,green_pentagon,stop,red,150.0,tracking-SSD,go-2,4,,,,,,
0,0,17,phase_2,purple_rhombus,stop,blue,0.0,0-SSD,go-1,4,,,,,,
2,513.0,17,phase_2,purple_triangle,go,,,,go-1,1,,,,,,
1,510.0,17,phase_2,green_rhombus,go,,,,go-2,1,,,,,,
0,0,17,phase_2,green_rhombus,stop,blue,0.0,0-SSD,go-2,4,,,,,,
2,493.0,17,phase_2,purple_circle,go,,,,go-1,1,,,,,,
0,0,17,phase_2,green_circle,stop,blue,0.0,0-SSD,go-2,4,,,,,,
1,432.0,17,phase_2,green_triangle,go,,,,go-2,2,,,,,,
2,474.0,17,phase_2,green_triangle,stop,red,200.0,tracking-SSD,go-2,3,,,,,,
2,584.0,17,phase_2,green_circle,go,,,,go-2,1,,,,,,
1,390.0,17,phase_2,purple_rhombus,go,,,,go-1,1,,,,,,
0,0,17,phase_2,green_circle,stop,red,150.0,tracking-SSD,go-2,4,,,,,,
1,510.0,17,phase_2,purple_rhombus,go,,,,go-1,1,,,,,,
2,585.0,17,phase_2,purple_rhombus,go,,,,go-1,2,,,,,,
2,526.0,17,phase_2,green_triangle,go,,,,go-2,1,,,,,,
1,456.0,17,phase_2,purple_pentagon,go,,,,go-1,1,,,,,,
2,466.0,17,phase_2,green_circle,go,,,,go-2,1,,,,,,
1,407.0,17,phase_2,purple_pentagon,go,,,,go-1,1,,,,,,
1,438.0,17,phase_2,purple_circle,stop,red,200.0,tracking-SSD,go-1,3,,,,,,
0,0,17,phase_2,green_circle,stop,blue,0.0,0-SSD,go-2,4,,,,,,
0,0,17,phase_2,purple_triangle,stop,red,150.0,tracking-SSD,go-1,4,,,,,,
1,474.0,17,phase_2,green_pentagon,go,,,,go-2,1,,,,,,
2,406.0,17,phase_2,green_triangle,go,,,,go-2,1,,,,,,
2,402.0,17,phase_2,purple_triangle,go,,,,go-1,1,,,,,,
1,748.0,17,phase_2,purple_pentagon,go,,,,go-1,1,,,,,,
2,453.0,17,phase_2,purple_rhombus,go,,,,go-1,2,,,,,,
2,450.0,17,phase_2,green_triangle,go,,,,go-2,1,,,,,,
1,528.0,17,phase_2,green_pentagon,go,,,,go-2,1,,,,,,
1,412.0,17,phase_2,green_rhombus,go,,,,go-2,1,,,,,,
1,511.0,17,phase_2,green_circle,go,,,,go-2,2,,,,,,
0,0,17,phase_2,purple_rhombus,stop,red,200.0,tracking-SSD,go-1,4,,,,,,
1,663.0,17,phase_2,purple_pentagon,go,,,,go-1,1,,,,,,
0,0,17,phase_2,purple_triangle,stop,blue,0.0,0-SSD,go-1,4,,,,,,
1,457.0,17,phase_2,green_pentagon,go,,,,go-2,1,,,,,,
,802.0,1,phase_3,,,,,,,,purple_square,go-1,purple_square,go-1,red_square,tracking-SSD
,640.0,1,phase_3,,,,,,,,green_square,go-2,purple_square,go-1,green_square,go-2
,670.0,1,phase_3,,,,,,,,blue_square,0-SSD,green_square,go-2,blue_square,0-SSD
,609.0,1,phase_3,,,,,,,,green_square,go-2,green_square,go-2,red_square,tracking-SSD
,570.0,1,phase_3,,,,,,,,blue_square,0-SSD,purple_square,go-1,blue_square,0-SSD
,634.0,1,phase_3,,,,,,,,blue_square,0-SSD,blue_square,0-SSD,red_square,tracking-SSD
,426.0,1,phase_3,,,,,,,,blue_square,0-SSD,red_square,tracking-SSD,blue_square,0-SSD
,557.0,1,phase_3,,,,,,,,blue_square,0-SSD,blue_square,0-SSD,purple_square,go-1
,632.0,1,phase_3,,,,,,,,green_square,go-2,red_square,tracking-SSD,green_square,go-2
,1302.0,1,phase_3,,,,,,,,purple_square,go-1,red_square,tracking-SSD,purple_square,go-1
,803.0,1,phase_3,,,,,,,,green_square,go-2,green_square,go-2,purple_square,go-1
,483.0,1,phase_3,,,,,,,,green_square,go-2,blue_square,0-SSD,green_square,go-2
,509.0,2,phase_3,,,,,,,,blue_square,0-SSD,green_square,go-2,blue_square,0-SSD
,482.0,2,phase_3,,,,,,,,green_square,go-2,green_square,go-2,red_square,tracking-SSD
,242.0,2,phase_3,,,,,,,,green_square,go-2,purple_square,go-1,green_square,go-2
,383.0,2,phase_3,,,,,,,,blue_square,0-SSD,blue_square,0-SSD,red_square,tracking-SSD
,98.0,2,phase_3,,,,,,,,blue_square,0-SSD,purple_square,go-1,blue_square,0-SSD
,780.0,2,phase_3,,,,,,,,purple_square,go-1,purple_square,go-1,red_square,tracking-SSD
,685.0,2,phase_3,,,,,,,,green_square,go-2,blue_square,0-SSD,green_square,go-2
,455.0,2,phase_3,,,,,,,,green_square,go-2,red_square,tracking-SSD,green_square,go-2
,530.0,2,phase_3,,,,,,,,green_square,go-2,green_square,go-2,purple_square,go-1
,627.0,2,phase_3,,,,,,,,purple_square,go-1,blue_square,0-SSD,purple_square,go-1
,521.0,2,phase_3,,,,,,,,blue_square,0-SSD,red_square,tracking-SSD,blue_square,0-SSD
,349.0,2,phase_3,,,,,,,,purple_square,go-1,red_square,tracking-SSD,purple_square,go-1
,646.0,3,phase_3,,,,,,,,green_square,go-2,green_square,go-2,red_square,tracking-SSD
,462.0,3,phase_3,,,,,,,,blue_square,0-SSD,purple_square,go-1,blue_square,0-SSD
,379.0,3,phase_3,,,,,,,,blue_square,0-SSD,green_square,go-2,blue_square,0-SSD
,531.0,3,phase_3,,,,,,,,green_square,go-2,purple_square,go-1,green_square,go-2
,594.0,3,phase_3,,,,,,,,red_square,tracking-SSD,purple_square,go-1,red_square,tracking-SSD
,534.0,3,phase_3,,,,,,,,blue_square,0-SSD,blue_square,0-SSD,red_square,tracking-SSD
,518.0,3,phase_3,,,,,,,,purple_square,go-1,red_square,tracking-SSD,purple_square,go-1
,660.0,3,phase_3,,,,,,,,blue_square,0-SSD,red_square,tracking-SSD,blue_square,0-SSD
,578.0,3,phase_3,,,,,,,,green_square,go-2,blue_square,0-SSD,green_square,go-2
,506.0,3,phase_3,,,,,,,,green_square,go-2,red_square,tracking-SSD,green_square,go-2
,648.0,3,phase_3,,,,,,,,blue_square,0-SSD,blue_square,0-SSD,purple_square,go-1
,1295.0,3,phase_3,,,,,,,,green_square,go-2,green_square,go-2,purple_square,go-1
,633.0,4,phase_3,,,,,,,,green_square,go-2,green_square,go-2,red_square,tracking-SSD
,505.0,4,phase_3,,,,,,,,green_square,go-2,purple_square,go-1,green_square,go-2
,490.0,4,phase_3,,,,,,,,blue_square,0-SSD,purple_square,go-1,blue_square,0-SSD
,519.0,4,phase_3,,,,,,,,red_square,tracking-SSD,blue_square,0-SSD,red_square,tracking-SSD
,740.0,4,phase_3,,,,,,,,green_square,go-2,green_square,go-2,blue_square,0-SSD
,635.0,4,phase_3,,,,,,,,red_square,tracking-SSD,purple_square,go-1,red_square,tracking-SSD
0,0,4,phase_3,,,,,,,,,,red_square,tracking-SSD,blue_square,0-SSD
,784.0,4,phase_3,,,,,,,,green_square,go-2,green_square,go-2,purple_square,go-1
,971.0,4,phase_3,,,,,,,,green_square,go-2,blue_square,0-SSD,green_square,go-2
,1190.0,4,phase_3,,,,,,,,purple_square,go-1,blue_square,0-SSD,purple_square,go-1
,770.0,4,phase_3,,,,,,,,red_square,tracking-SSD,red_square,tracking-SSD,purple_square,go-1
,642.0,4,phase_3,,,,,,,,green_square,go-2,red_square,tracking-SSD,green_square,go-2
,734.0,5,phase_3,,,,,,,,green_square,go-2,green_square,go-2,red_square,tracking-SSD
,831.0,5,phase_3,,,,,,,,blue_square,0-SSD,blue_square,0-SSD,red_square,tracking-SSD
,659.0,5,phase_3,,,,,,,,blue_square,0-SSD,purple_square,go-1,blue_square,0-SSD
,575.0,5,phase_3,,,,,,,,purple_square,go-1,purple_square,go-1,red_square,tracking-SSD
,751.0,5,phase_3,,,,,,,,green_square,go-2,green_square,go-2,blue_square,0-SSD
,680.0,5,phase_3,,,,,,,,green_square,go-2,purple_square,go-1,green_square,go-2
,563.0,5,phase_3,,,,,,,,green_square,go-2,blue_square,0-SSD,green_square,go-2
,636.0,5,phase_3,,,,,,,,green_square,go-2,green_square,go-2,purple_square,go-1
,610.0,5,phase_3,,,,,,,,red_square,tracking-SSD,red_square,tracking-SSD,blue_square,0-SSD
,594.0,5,phase_3,,,,,,,,purple_square,go-1,blue_square,0-SSD,purple_square,go-1
,691.0,5,phase_3,,,,,,,,green_square,go-2,red_square,tracking-SSD,green_square,go-2
,969.0,5,phase_3,,,,,,,,purple_square,go-1,red_square,tracking-SSD,purple_square,go-1
