response,reaction_time,block,which_phase,stim,stop_signal_trial_type,stop_signal_stimulus,SSD,SSD_type,condition,accuracy,chosen_stim,chosen_cond,stim_left,cond_left,stim_right,cond_right
1,475.0,1,phase_2,green_circle,go,,,,go-1,1,,,,,,
1,338.0,1,phase_2,green_circle,go,,,,go-1,1,,,,,,
0,0,1,phase_2,green_triangle,stop,red,0.0,0-SSD,go-1,4,,,,,,
2,456.0,1,phase_2,green_pentagon,go,,,,go-1,1,,,,,,
1,453.0,1,phase_2,green_triangle,stop,blue,250.0,tracking-SSD,go-1,3,,,,,,
1,530.0,1,phase_2,purple_triangle,go,,,,go-2,1,,,,,,
2,361.0,1,phase_2,green_pentagon,go,,,,go-1,1,,,,,,
2,370.0,1,phase_2,purple_pentagon,go,,,,go-2,1,,,,,,
2,424.0,1,phase_2,purple_pentagon,go,,,,go-2,1,,,,,,
1,534.0,1,phase_2,purple_triangle,stop,blue,200.0,tracking-SSD,go-2,3,,,,,,
2,543.0,1,phase_2,purple_rhombus,go,,,,go-2,1,,,,,,
2,406.0,1,phase_2,green_rhombus,go,,,,go-1,1,,,,,,
0,0,1,phase_2,green_circle,stop,blue,150.0,tracking-SSD,go-1,4,,,,,,
2,524.0,1,phase_2,purple_pentagon,stop,blue,200.0,tracking-SSD,go-2,3,,,,,,
0,0,1,phase_2,green_triangle,stop,red,0.0,0-SSD,go-1,4,,,,,,
1,508.0,1,phase_2,purple_circle,go,,,,go-2,1,,,,,,
1,349.0,1,phase_2,purple_circle,go,,,,go-2,1,,,,,,
1,437.0,1,phase_2,green_circle,go,,,,go-1,1,,,,,,
2,570.0,1,phase_2,purple_rhombus,go,,,,go-2,1,,,,,,
2,489.0,1,phase_2,green_rhombus,go,,,,go-1,1,,,,,,
2,328.0,1,phase_2,green_pentagon,go,,,,go-1,1,,,,,,
1,620.0,1,phase_2,purple_triangle,go,,,,go-2,1,,,,,,
1,392.0,1,phase_2,green_triangle,go,,,,go-1,1,,,,,,
1,367.0,1,phase_2,green_triangle,go,,,,go-1,1,,,,,,
0,0,1,phase_2,green_rhombus,stop,blue,150.0,tracking-SSD,go-1,4,,,,,,
0,0,1,phase_2,purple_pentagon,stop,red,0.0,0-SSD,go-2,4,,,,,,
2,652.0,1,phase_2,purple_pentagon,go,,,,go-2,1,,,,,,
2,526.0,1,phase_2,green_rhombus,go,,,,go-1,1,,,,,,
0,0,1,phase_2,green_circle,stop,red,0.0,0-SSD,go-1,4,,,,,,
2,512.0,1,phase_2,purple_pentagon,go,,,,go-2,1,,,,,,
0,0,1,phase_2,green_circle,stop,blue,200.0,tracking-SSD,go-1,4,,,,,,
1,619.0,1,phase_2,purple_circle,go,,,,go-2,1,,,,,,
0,0,1,phase_2,green_pentagon,stop,red,0.0,0-SSD,go-1,4,,,,,,
2,549.0,1,phase_2,green_rhombus,go,,,,go-1,1,,,,,,
1,422.0,1,phase_2,purple_triangle,go,,,,go-2,1,,,,,,
1,443.0,1,phase_2,green_circle,go,,,,go-1,1,,,,,,
1,384.0,1,phase_2,purple_triangle,stop,blue,250.0,tracking-SSD,go-2,3,,,,,,
1,382.0,1,phase_2,green_triangle,go,,,,go-1,1,,,,,,
0,0,1,phase_2,purple_rhombus,stop,red,0.0,0-SSD,go-2,4,,,,,,
0,0,1,phase_2,purple_rhombus,stop,blue,200.0,tracking-SSD,go-2,4,,,,,,
2,397.0,1,phase_2,purple_pentagon,go,,,,go-2,1,,,,,,
2,474.0,1,phase_2,purple_rhombus,go,,,,go-2,1,,,,,,
0,0,1,phase_2,purple_circle,stop,red,0.0,0-SSD,go-2,4,,,,,,
0,0,1,phase_2,purple_circle,stop,red,0.0,0-SSD,go-2,4,,,,,,
2,545.0,1,phase_2,purple_rhombus,go,,,,go-2,1,,,,,,
2,430.0,1,phase_2,green_rhombus,go,,,,go-1,1,,,,,,
2,440.0,1,phase_2,purple_pentagon,go,,,,go-2,1,,,,,,
1,573.0,1,phase_2,green_triangle,go,,,,go-1,1,,,,,,
2,464.0,2,phase_2,purple_pentagon,go,,,,go-2,1,,,,,,
2,450.0,2,phase_2,green_pentagon,stop,blue,250.0,tracking-SSD,go-1,3,,,,,,
1,561.0,2,phase_2,purple_triangle,go,,,,go-2,1,,,,,,
0,0,2,phase_2,green_triangle,stop,red,0.0,0-SSD,go-1,4,,,,,,
1,478.0,2,phase_2,purple_circle,go,,,,go-2,1,,,,,,
1,396.0,2,phase_2,green_circle,go,,,,go-1,1,,,,,,
2,485.0,2,phase_2,purple_rhombus,stop,blue,200.0,tracking-SSD,go-2,3,,,,,,
2,584.0,2,phase_2,green_rhombus,go,,,,go-1,1,,,,,,
2,414.0,2,phase_2,purple_pentagon,go,,,,go-2,1,,,,,,
1,366.0,2,phase_2,green_triangle,stop,blue,150.0,tracking-SSD,go-1,3,,,,,,
0,0,2,phase_2,purple_triangle,stop,red,0.0,0-SSD,go-2,4,,,,,,
2,555.0,2,phase_2,green_rhombus,go,,,,go-1,1,,,,,,
1,507.0,2,phase_2,purple_triangle,go,,,,go-2,1,,,,,,
2,414.0,2,phase_2,purple_rhombus,go,,,,go-2,1,,,,,,
2,480.0,2,phase_2,green_pentagon,go,,,,go-1,1,,,,,,
2,354.0,2,phase_2,purple_pentagon,go,,,,go-2,1,,,,,,
0,0,2,phase_2,green_rhombus,stop,red,0.0,0-SSD,go-1,4,,,,,,
0,0,2,phase_2,purple_rhombus,stop,red,0.0,0-SSD,go-2,4,,,,,,
2,604.0,2,phase_2,purple_pentagon,go,,,,go-2,1,,,,,,
1,534.0,2,phase_2,purple_circle,go,,,,go-2,1,,,,,,
2,566.0,2,phase_2,green_triangle,go,,,,go-1,2,,,,,,
1,496.0,2,phase_2,purple_triangle,go,,,,go-2,1,,,,,,
0,0,2,phase_2,purple_triangle,stop,red,0.0,0-SSD,go-2,4,,,,,,
1,480.0,2,phase_2,green_triangle,go,,,,go-1,1,,,,,,
1,501.0,2,phase_2,green_circle,go,,,,go-1,1,,,,,,
0,0,2,phase_2,green_rhombus,stop,red,0.0,0-SSD,go-1,4,,,,,,
1,531.0,2,phase_2,green_circle,go,,,,go-1,1,,,,,,
0,0,2,phase_2,purple_circle,stop,red,0.0,0-SSD,go-2,4,,,,,,
1,707.0,2,phase_2,green_circle,go,,,,go-1,1,,,,,,
1,434.0,2,phase_2,green_rhombus,go,,,,go-1,2,,,,,,
0,0,2,phase_2,purple_pentagon,stop,blue,100.0,tracking-SSD,go-2,4,,,,,,
2,363.0,2,phase_2,green_pentagon,go,,,,go-1,1,,,,,,
0,0,2,phase_2,purple_pentagon,stop,blue,150.0,tracking-SSD,go-2,4,,,,,,
1,494.0,2,phase_2,purple_circle,go,,,,go-2,1,,,,,,
0,0,2,phase_2,green_pentagon,stop,red,0.0,0-SSD,go-1,4,,,,,,
1,523.0,2,phase_2,green_circle,go,,,,go-1,1,,,,,,
2,644.0,2,phase_2,green_rhombus,go,,,,go-1,1,,,,,,
1,518.0,2,phase_2,purple_circle,go,,,,go-2,1,,,,,,
2,629.0,2,phase_2,green_rhombus,go,,,,go-1,1,,,,,,
1,571.0,2,phase_2,green_circle,stop,blue,200.0,tracking-SSD,go-1,3,,,,,,
1,558.0,2,phase_2,purple_triangle,go,,,,go-2,1,,,,,,
2,476.0,2,phase_2,green_pentagon,go,,,,go-1,1,,,,,,
0,0,2,phase_2,purple_circle,stop,blue,150.0,tracking-SSD,go-2,4,,,,,,
2,494.0,2,phase_2,purple_rhombus,go,,,,go-2,1,,,,,,
1,525.0,2,phase_2,green_triangle,stop,blue,200.0,tracking-SSD,go-1,3,,,,,,
2,669.0,2,phase_2,purple_rhombus,go,,,,go-2,1,,,,,,
2,442.0,2,phase_2,green_pentagon,go,,,,go-1,1,,,,,,
1,507.0,2,phase_2,purple_triangle,go,,,,go-2,1,,,,,,
1,498.0,3,phase_2,green_triangle,go,,,,go-1,1,,,,,,
1,429.0,3,phase_2,purple_triangle,go,,,,go-2,1,,,,,,
0,0,3,phase_2,green_circle,stop,blue,150.0,tracking-SSD,go-1,4,,,,,,
0,0,3,phase_2,purple_circle,stop,red,0.0,0-SSD,go-2,4,,,,,,
1,390.0,3,phase_2,green_triangle,go,,,,go-1,1,,,,,,
2,534.0,3,phase_2,purple_rhombus,go,,,,go-2,1,,,,,,
1,500.0,3,phase_2,purple_triangle,stop,blue,200.0,tracking-SSD,go-2,3,,,,,,
1,497.0,3,phase_2,green_triangle,go,,,,go-1,1,,,,,,
2,539.0,3,phase_2,purple_rhombus,stop,blue,150.0,tracking-SSD,go-2,3,,,,,,
0,0,3,phase_2,green_rhombus,stop,red,0.0,0-SSD,go-1,4,,,,,,
0,0,3,phase_2,purple_triangle,stop,red,0.0,0-SSD,go-2,4,,,,,,
2,566.0,3,phase_2,purple_pentagon,go,,,,go-2,1,,,,,,
0,0,3,phase_2,green_triangle,stop,red,0.0,0-SSD,go-1,4,,,,,,
2,549.0,3,phase_2,purple_pentagon,go,,,,go-2,1,,,,,,
1,469.0,3,phase_2,green_circle,go,,,,go-1,1,,,,,,
1,376.0,3,phase_2,purple_circle,go,,,,go-2,1,,,,,,
2,510.0,3,phase_2,green_pentagon,go,,,,go-1,1,,,,,,
1,484.0,3,phase_2,green_triangle,go,,,,go-1,1,,,,,,
1,391.0,3,phase_2,purple_triangle,go,,,,go-2,1,,,,,,
0,0,3,phase_2,purple_rhombus,stop,red,0.0,0-SSD,go-2,4,,,,,,
2,467.0,3,phase_2,purple_pentagon,go,,,,go-2,1,,,,,,
2,488.0,3,phase_2,purple_rhombus,go,,,,go-2,1,,,,,,
0,0,3,phase_2,purple_rhombus,stop,blue,100.0,tracking-SSD,go-2,4,,,,,,
1,438.0,3,phase_2,purple_triangle,go,,,,go-2,1,,,,,,
2,446.0,3,phase_2,purple_rhombus,go,,,,go-2,1,,,,,,
0,0,3,phase_2,green_circle,stop,blue,150.0,tracking-SSD,go-1,4,,,,,,
2,455.0,3,phase_2,green_pentagon,go,,,,go-1,1,,,,,,
2,385.0,3,phase_2,green_pentagon,go,,,,go-1,1,,,,,,
2,439.0,3,phase_2,green_rhombus,go,,,,go-1,1,,,,,,
1,514.0,3,phase_2,green_circle,go,,,,go-1,1,,,,,,
2,411.0,3,phase_2,green_rhombus,stop,blue,200.0,tracking-SSD,go-1,3,,,,,,
1,477.0,3,phase_2,purple_circle,go,,,,go-2,1,,,,,,
1,451.0,3,phase_2,green_circle,go,,,,go-1,1,,,,,,
2,495.0,3,phase_2,green_pentagon,go,,,,go-1,1,,,,,,
2,503.0,3,phase_2,purple_pentagon,go,,,,go-2,1,,,,,,
2,569.0,3,phase_2,purple_rhombus,go,,,,go-2,1,,,,,,
1,432.0,3,phase_2,green_circle,go,,,,go-1,1,,,,,,
1,441.0,3,phase_2,green_triangle,go,,,,go-1,1,,,,,,
1,405.0,3,phase_2,purple_circle,stop,blue,150.0,tracking-SSD,go-2,3,,,,,,
0,0,3,phase_2,green_pentagon,stop,red,0.0,0-SSD,go-1,4,,,,,,
2,591.0,3,phase_2,green_rhombus,go,,,,go-1,1,,,,,,
2,410.0,3,phase_2,purple_rhombus,go,,,,go-2,1,,,,,,
1,452.0,3,phase_2,green_circle,go,,,,go-1,1,,,,,,
0,0,3,phase_2,green_pentagon,stop,blue,100.0,tracking-SSD,go-1,4,,,,,,
1,560.0,3,phase_2,purple_triangle,go,,,,go-2,1,,,,,,
0,0,3,phase_2,green_pentagon,stop,red,0.0,0-SSD,go-1,4,,,,,,
2,614.0,3,phase_2,purple_pentagon,go,,,,go-2,1,,,,,,
0,0,3,phase_2,purple_circle,stop,red,0.0,0-SSD,go-2,4,,,,,,
1,489.0,4,phase_2,green_circle,go,,,,go-1,1,,,,,,
1,486.0,4,phase_2,green_circle,go,,,,go-1,1,,,,,,
2,573.0,4,phase_2,purple_rhombus,go,,,,go-2,1,,,,,,
2,380.0,4,phase_2,green_rhombus,go,,,,go-1,1,,,,,,
0,0,4,phase_2,purple_circle,stop,red,0.0,0-SSD,go-2,4,,,,,,
2,478.0,4,phase_2,purple_pentagon,go,,,,go-2,1,,,,,,
2,510.0,4,phase_2,green_pentagon,go,,,,go-1,1,,,,,,
1,575.0,4,phase_2,purple_triangle,go,,,,go-2,1,,,,,,
0,0,4,phase_2,purple_pentagon,stop,red,0.0,0-SSD,go-2,4,,,,,,
2,592.0,4,phase_2,green_pentagon,go,,,,go-1,1,,,,,,
1,489.0,4,phase_2,purple_circle,go,,,,go-2,1,,,,,,
1,419.0,4,phase_2,purple_circle,go,,,,go-2,1,,,,,,
1,416.0,4,phase_2,green_triangle,go,,,,go-1,1,,,,,,
1,449.0,4,phase_2,purple_triangle,go,,,,go-2,1,,,,,,
2,458.0,4,phase_2,purple_circle,stop,blue,150.0,tracking-SSD,go-2,3,,,,,,
1,500.0,4,phase_2,purple_triangle,go,,,,go-2,1,,,,,,
1,510.0,4,phase_2,purple_circle,go,,,,go-2,1,,,,,,
2,485.0,4,phase_2,green_rhombus,go,,,,go-1,1,,,,,,
2,597.0,4,phase_2,green_pentagon,go,,,,go-1,1,,,,,,
0,0,4,phase_2,green_rhombus,stop,blue,100.0,tracking-SSD,go-1,4,,,,,,
0,0,4,phase_2,green_triangle,stop,red,0.0,0-SSD,go-1,4,,,,,,
0,0,4,phase_2,green_circle,stop,blue,150.0,tracking-SSD,go-1,4,,,,,,
2,532.0,4,phase_2,purple_pentagon,go,,,,go-2,1,,,,,,
0,0,4,phase_2,purple_rhombus,stop,red,0.0,0-SSD,go-2,4,,,,,,
2,481.0,4,phase_2,purple_rhombus,go,,,,go-2,1,,,,,,
2,535.0,4,phase_2,purple_pentagon,go,,,,go-2,1,,,,,,
1,442.0,4,phase_2,purple_triangle,stop,blue,200.0,tracking-SSD,go-2,3,,,,,,
1,666.0,4,phase_2,green_circle,go,,,,go-1,1,,,,,,
2,562.0,4,phase_2,purple_pentagon,stop,blue,150.0,tracking-SSD,go-2,3,,,,,,
2,538.0,4,phase_2,green_rhombus,go,,,,go-1,1,,,,,,
2,592.0,4,phase_2,green_rhombus,go,,,,go-1,1,,,,,,
0,0,4,phase_2,green_rhombus,stop,red,0.0,0-SSD,go-1,4,,,,,,
1,476.0,4,phase_2,purple_triangle,go,,,,go-2,1,,,,,,
1,430.0,4,phase_2,green_triangle,go,,,,go-1,1,,,,,,
0,0,4,phase_2,green_pentagon,stop,blue,100.0,tracking-SSD,go-1,4,,,,,,
0,0,4,phase_2,purple_pentagon,stop,red,0.0,0-SSD,go-2,4,,,,,,
1,535.0,4,phase_2,purple_triangle,go,,,,go-2,1,,,,,,
2,533.0,4,phase_2,green_rhombus,go,,,,go-1,1,,,,,,
1,508.0,4,phase_2,green_triangle,go,,,,go-1,1,,,,,,
2,472.0,4,phase_2,green_rhombus,go,,,,go-1,1,,,,,,
1,514.0,4,phase_2,green_circle,go,,,,go-1,1,,,,,,
2,534.0,4,phase_2,purple_pentagon,go,,,,go-2,1,,,,,,
0,0,4,phase_2,green_rhombus,stop,blue,150.0,tracking-SSD,go-1,4,,,,,,
1,507.0,4,phase_2,purple_circle,go,,,,go-2,1,,,,,,
1,560.0,4,phase_2,purple_triangle,go,,,,go-2,1,,,,,,
0,0,4,phase_2,green_triangle,stop,red,0.0,0-SSD,go-1,4,,,,,,
0,0,4,phase_2,purple_circle,stop,blue,200.0,tracking-SSD,go-2,4,,,,,,
0,0,4,phase_2,green_pentagon,stop,red,0.0,0-SSD,go-1,4,,,,,,
1,509.0,5,phase_2,green_circle,go,,,,go-1,1,,,,,,
1,553.0,5,phase_2,purple_rhombus,go,,,,go-2,2,,,,,,
2,404.0,5,phase_2,purple_triangle,go,,,,go-2,2,,,,,,
0,0,5,phase_2,green_rhombus,stop,red,0.0,0-SSD,go-1,4,,,,,,
2,579.0,5,phase_2,purple_rhombus,go,,,,go-2,1,,,,,,
0,0,5,phase_2,green_rhombus,stop,red,0.0,0-SSD,go-1,4,,,,,,
1,483.0,5,phase_2,green_triangle,go,,,,go-1,1,,,,,,
0,0,5,phase_2,green_pentagon,stop,red,0.0,0-SSD,go-1,4,,,,,,
1,457.0,5,phase_2,purple_triangle,go,,,,go-2,1,,,,,,
1,511.0,5,phase_2,purple_triangle,stop,blue,250.0,tracking-SSD,go-2,3,,,,,,
1,564.0,5,phase_2,purple_circle,go,,,,go-2,1,,,,,,
2,472.0,5,phase_2,green_pentagon,go,,,,go-1,1,,,,,,
1,492.0,5,phase_2,green_circle,go,,,,go-1,1,,,,,,
2,895.0,5,phase_2,green_rhombus,go,,,,go-1,1,,,,,,
1,534.0,5,phase_2,green_triangle,go,,,,go-1,1,,,,,,
2,463.0,5,phase_2,green_rhombus,stop,blue,200.0,tracking-SSD,go-1,3,,,,,,
2,472.0,5,phase_2,green_pentagon,go,,,,go-1,1,,,,,,
1,448.0,5,phase_2,purple_triangle,go,,,,go-2,1,,,,,,
1,424.0,5,phase_2,purple_circle,go,,,,go-2,1,,,,,,
1,400.0,5,phase_2,purple_triangle,go,,,,go-2,1,,,,,,
1,375.0,5,phase_2,green_circle,stop,blue,150.0,tracking-SSD,go-1,3,,,,,,
1,440.0,5,phase_2,purple_triangle,go,,,,go-2,1,,,,,,
2,529.0,5,phase_2,purple_pentagon,go,,,,go-2,1,,,,,,
2,370.0,5,phase_2,green_pentagon,go,,,,go-1,1,,,,,,
2,368.0,5,phase_2,green_pentagon,go,,,,go-1,1,,,,,,
0,0,5,phase_2,purple_rhombus,stop,red,0.0,0-SSD,go-2,4,,,,,,
2,386.0,5,phase_2,green_pentagon,go,,,,go-1,1,,,,,,
1,384.0,5,phase_2,purple_circle,go,,,,go-2,1,,,,,,
2,540.0,5,phase_2,green_rhombus,go,,,,go-1,1,,,,,,
0,0,5,phase_2,purple_rhombus,stop,red,0.0,0-SSD,go-2,4,,,,,,
1,446.0,5,phase_2,purple_circle,go,,,,go-2,1,,,,,,
2,398.0,5,phase_2,green_pentagon,go,,,,go-1,1,,,,,,
0,0,5,phase_2,green_circle,stop,blue,100.0,tracking-SSD,go-1,4,,,,,,
0,0,5,phase_2,purple_triangle,stop,red,0.0,0-SSD,go-2,4,,,,,,
2,570.0,5,phase_2,purple_rhombus,go,,,,go-2,1,,,,,,
1,467.0,5,phase_2,green_triangle,go,,,,go-1,1,,,,,,
0,0,5,phase_2,purple_pentagon,stop,blue,150.0,tracking-SSD,go-2,4,,,,,,
2,362.0,5,phase_2,purple_pentagon,go,,,,go-2,1,,,,,,
0,0,5,phase_2,green_pentagon,stop,blue,200.0,tracking-SSD,go-1,4,,,,,,
1,402.0,5,phase_2,purple_circle,go,,,,go-2,1,,,,,,
1,636.0,5,phase_2,green_triangle,go,,,,go-1,1,,,,,,
0,0,5,phase_2,purple_circle,stop,red,0.0,0-SSD,go-2,4,,,,,,
2,532.0,5,phase_2,green_rhombus,go,,,,go-1,1,,,,,,
2,519.0,5,phase_2,purple_rhombus,go,,,,go-2,1,,,,,,
1,505.0,5,phase_2,purple_circle,stop,blue,250.0,tracking-SSD,go-2,3,,,,,,
1,414.0,5,phase_2,purple_circle,stop,blue,200.0,tracking-SSD,go-2,3,,,,,,
0,0,5,phase_2,green_triangle,stop,red,0.0,0-SSD,go-1,4,,,,,,
2,475.0,5,phase_2,green_pentagon,go,,,,go-1,1,,,,,,
2,792.0,6,phase_2,green_pentagon,go,,,,go-1,1,,,,,,
2,452.0,6,phase_2,green_pentagon,go,,,,go-1,1,,,,,,
0,0,6,phase_2,purple_circle,stop,blue,150.0,tracking-SSD,go-2,4,,,,,,
1,401.0,6,phase_2,purple_circle,go,,,,go-2,1,,,,,,
2,490.0,6,phase_2,purple_rhombus,go,,,,go-2,1,,,,,,
2,545.0,6,phase_2,purple_pentagon,stop,blue,200.0,tracking-SSD,go-2,3,,,,,,
2,542.0,6,phase_2,purple_rhombus,go,,,,go-2,1,,,,,,
1,451.0,6,phase_2,purple_circle,go,,,,go-2,1,,,,,,
1,516.0,6,phase_2,purple_triangle,go,,,,go-2,1,,,,,,
1,446.0,6,phase_2,green_triangle,go,,,,go-1,1,,,,,,
0,0,6,phase_2,green_triangle,stop,blue,150.0,tracking-SSD,go-1,4,,,,,,
0,0,6,phase_2,green_rhombus,stop,red,0.0,0-SSD,go-1,4,,,,,,
0,0,6,phase_2,purple_circle,stop,red,0.0,0-SSD,go-2,4,,,,,,
2,538.0,6,phase_2,green_pentagon,go,,,,go-1,1,,,,,,
0,0,6,phase_2,purple_triangle,stop,red,0.0,0-SSD,go-2,4,,,,,,
0,0,6,phase_2,purple_triangle,stop,blue,200.0,tracking-SSD,go-2,4,,,,,,
0,0,6,phase_2,purple_rhombus,stop,blue,250.0,tracking-SSD,go-2,4,,,,,,
0,0,6,phase_2,green_rhombus,stop,red,0.0,0-SSD,go-1,4,,,,,,
0,0,6,phase_2,green_rhombus,stop,red,0.0,0-SSD,go-1,4,,,,,,
2,558.0,6,phase_2,green_rhombus,go,,,,go-1,1,,,,,,
1,499.0,6,phase_2,green_triangle,go,,,,go-1,1,,,,,,
0,0,6,phase_2,purple_pentagon,stop,red,0.0,0-SSD,go-2,4,,,,,,
0,0,6,phase_2,purple_pentagon,stop,red,0.0,0-SSD,go-2,4,,,,,,
1,548.0,6,phase_2,green_triangle,go,,,,go-1,1,,,,,,
2,444.0,6,phase_2,green_pentagon,go,,,,go-1,1,,,,,,
2,464.0,6,phase_2,purple_pentagon,go,,,,go-2,1,,,,,,
1,472.0,6,phase_2,green_triangle,go,,,,go-1,1,,,,,,
1,593.0,6,phase_2,green_circle,go,,,,go-1,1,,,,,,
1,434.0,6,phase_2,purple_circle,go,,,,go-2,1,,,,,,
1,544.0,6,phase_2,green_triangle,stop,blue,300.0,tracking-SSD,go-1,3,,,,,,
2,541.0,6,phase_2,purple_rhombus,go,,,,go-2,1,,,,,,
1,516.0,6,phase_2,purple_circle,go,,,,go-2,1,,,,,,
2,537.0,6,phase_2,purple_pentagon,go,,,,go-2,1,,,,,,
2,466.0,6,phase_2,purple_circle,go,,,,go-2,2,,,,,,
2,589.0,6,phase_2,purple_pentagon,go,,,,go-2,1,,,,,,
0,0,6,phase_2,green_rhombus,stop,blue,250.0,tracking-SSD,go-1,4,,,,,,
1,473.0,6,phase_2,green_triangle,go,,,,go-1,1,,,,,,
0,0,6,phase_2,green_rhombus,stop,red,0.0,0-SSD,go-1,4,,,,,,
1,445.0,6,phase_2,purple_circle,go,,,,go-2,1,,,,,,
1,645.0,6,phase_2,purple_circle,go,,,,go-2,1,,,,,,
1,575.0,6,phase_2,green_triangle,go,,,,go-1,1,,,,,,
2,538.0,6,phase_2,green_rhombus,go,,,,go-1,1,,,,,,
1,412.0,6,phase_2,green_circle,go,,,,go-1,1,,,,,,
2,533.0,6,phase_2,green_rhombus,stop,blue,300.0,tracking-SSD,go-1,3,,,,,,
2,520.0,6,phase_2,purple_pentagon,go,,,,go-2,1,,,,,,
2,596.0,6,phase_2,green_pentagon,go,,,,go-1,1,,,,,,
1,504.0,6,phase_2,purple_circle,go,,,,go-2,1,,,,,,
1,816.0,6,phase_2,green_triangle,go,,,,go-1,1,,,,,,
0,0,7,phase_2,purple_rhombus,stop,blue,250.0,tracking-SSD,go-2,4,,,,,,
1,587.0,7,phase_2,green_circle,stop,blue,300.0,tracking-SSD,go-1,3,,,,,,
2,585.0,7,phase_2,green_pentagon,go,,,,go-1,1,,,,,,
1,583.0,7,phase_2,green_rhombus,go,,,,go-1,2,,,,,,
1,672.0,7,phase_2,purple_circle,go,,,,go-2,1,,,,,,
2,466.0,7,phase_2,green_pentagon,go,,,,go-1,1,,,,,,
1,487.0,7,phase_2,purple_rhombus,go,,,,go-2,2,,,,,,
2,496.0,7,phase_2,purple_rhombus,go,,,,go-2,1,,,,,,
2,392.0,7,phase_2,green_pentagon,stop,blue,250.0,tracking-SSD,go-1,3,,,,,,
0,0,7,phase_2,green_triangle,stop,blue,200.0,tracking-SSD,go-1,4,,,,,,
1,522.0,7,phase_2,purple_circle,go,,,,go-2,1,,,,,,
0,0,7,phase_2,green_rhombus,stop,red,0.0,0-SSD,go-1,4,,,,,,
1,441.0,7,phase_2,green_triangle,go,,,,go-1,1,,,,,,
1,472.0,7,phase_2,purple_circle,stop,blue,250.0,tracking-SSD,go-2,3,,,,,,
0,0,7,phase_2,purple_pentagon,stop,red,0.0,0-SSD,go-2,4,,,,,,
0,0,7,phase_2,green_rhombus,stop,blue,200.0,tracking-SSD,go-1,4,,,,,,
1,498.0,7,phase_2,green_triangle,go,,,,go-1,1,,,,,,
1,541.0,7,phase_2,green_triangle,go,,,,go-1,1,,,,,,
1,594.0,7,phase_2,purple_triangle,go,,,,go-2,1,,,,,,
1,580.0,7,phase_2,green_rhombus,go,,,,go-1,2,,,,,,
1,420.0,7,phase_2,purple_triangle,go,,,,go-2,1,,,,,,
1,440.0,7,phase_2,purple_triangle,go,,,,go-2,1,,,,,,
2,483.0,7,phase_2,purple_pentagon,go,,,,go-2,1,,,,,,
2,638.0,7,phase_2,green_rhombus,go,,,,go-1,1,,,,,,
2,412.0,7,phase_2,purple_rhombus,go,,,,go-2,1,,,,,,
0,0,7,phase_2,green_pentagon,stop,red,0.0,0-SSD,go-1,4,,,,,,
1,476.0,7,phase_2,purple_circle,go,,,,go-2,1,,,,,,
2,472.0,7,phase_2,green_pentagon,go,,,,go-1,1,,,,,,
0,0,7,phase_2,purple_circle,stop,red,0.0,0-SSD,go-2,4,,,,,,
2,512.0,7,phase_2,purple_pentagon,go,,,,go-2,1,,,,,,
0,0,7,phase_2,purple_circle,stop,blue,250.0,tracking-SSD,go-2,4,,,,,,
2,451.0,7,phase_2,green_pentagon,go,,,,go-1,1,,,,,,
1,628.0,7,phase_2,purple_triangle,go,,,,go-2,1,,,,,,
0,0,7,phase_2,purple_rhombus,stop,red,0.0,0-SSD,go-2,4,,,,,,
1,489.0,7,phase_2,green_circle,go,,,,go-1,1,,,,,,
1,464.0,7,phase_2,purple_triangle,go,,,,go-2,1,,,,,,
0,0,7,phase_2,purple_pentagon,stop,red,0.0,0-SSD,go-2,4,,,,,,
1,391.0,7,phase_2,green_circle,go,,,,go-1,1,,,,,,
2,579.0,7,phase_2,purple_rhombus,go,,,,go-2,1,,,,,,
1,578.0,7,phase_2,purple_circle,go,,,,go-2,1,,,,,,
2,485.0,7,phase_2,purple_pentagon,stop,blue,300.0,tracking-SSD,go-2,3,,,,,,
1,493.0,7,phase_2,green_circle,go,,,,go-1,1,,,,,,
1,637.0,7,phase_2,purple_triangle,go,,,,go-2,1,,,,,,
2,488.0,7,phase_2,green_pentagon,go,,,,go-1,1,,,,,,
1,531.0,7,phase_2,green_triangle,go,,,,go-1,1,,,,,,
0,0,7,phase_2,green_triangle,stop,red,0.0,0-SSD,go-1,4,,,,,,
0,0,7,phase_2,green_circle,stop,red,0.0,0-SSD,go-1,4,,,,,,
2,559.0,7,phase_2,green_rhombus,go,,,,go-1,1,,,,,,
0,0,8,phase_2,purple_triangle,stop,blue,250.0,tracking-SSD,go-2,4,,,,,,
1,497.0,8,phase_2,green_circle,go,,,,go-1,1,,,,,,
2,584.0,8,phase_2,green_pentagon,stop,blue,300.0,tracking-SSD,go-1,3,,,,,,
1,537.0,8,phase_2,green_circle,go,,,,go-1,1,,,,,,
2,703.0,8,phase_2,purple_rhombus,go,,,,go-2,1,,,,,,
2,419.0,8,phase_2,purple_triangle,go,,,,go-2,2,,,,,,
2,563.0,8,phase_2,purple_pentagon,go,,,,go-2,1,,,,,,
0,0,8,phase_2,green_triangle,stop,red,0.0,0-SSD,go-1,4,,,,,,
2,536.0,8,phase_2,green_pentagon,go,,,,go-1,1,,,,,,
2,444.0,8,phase_2,purple_pentagon,go,,,,go-2,1,,,,,,
2,463.0,8,phase_2,purple_pentagon,go,,,,go-2,1,,,,,,
2,428.0,8,phase_2,green_pentagon,go,,,,go-1,1,,,,,,
1,594.0,8,phase_2,green_triangle,stop,blue,250.0,tracking-SSD,go-1,3,,,,,,
0,0,8,phase_2,purple_rhombus,stop,blue,200.0,tracking-SSD,go-2,4,,,,,,
1,601.0,8,phase_2,green_triangle,go,,,,go-1,1,,,,,,
1,588.0,8,phase_2,green_triangle,go,,,,go-1,1,,,,,,
1,428.0,8,phase_2,purple_triangle,go,,,,go-2,1,,,,,,
0,0,8,phase_2,purple_pentagon,stop,red,0.0,0-SSD,go-2,4,,,,,,
2,580.0,8,phase_2,purple_rhombus,go,,,,go-2,1,,,,,,
1,477.0,8,phase_2,green_circle,go,,,,go-1,1,,,,,,
1,451.0,8,phase_2,green_circle,go,,,,go-1,1,,,,,,
0,0,8,phase_2,purple_pentagon,stop,red,0.0,0-SSD,go-2,4,,,,,,
2,435.0,8,phase_2,purple_pentagon,go,,,,go-2,1,,,,,,
0,0,8,phase_2,purple_triangle,stop,red,0.0,0-SSD,go-2,4,,,,,,
1,555.0,8,phase_2,purple_triangle,stop,blue,250.0,tracking-SSD,go-2,3,,,,,,
2,563.0,8,phase_2,green_rhombus,go,,,,go-1,1,,,,,,
1,594.0,8,phase_2,purple_triangle,go,,,,go-2,1,,,,,,
1,424.0,8,phase_2,green_rhombus,go,,,,go-1,2,,,,,,
1,545.0,8,phase_2,green_circle,go,,,,go-1,1,,,,,,
1,487.0,8,phase_2,purple_circle,go,,,,go-2,1,,,,,,
2,599.0,8,phase_2,green_rhombus,stop,blue,200.0,tracking-SSD,go-1,3,,,,,,
0,0,8,phase_2,purple_triangle,stop,blue,150.0,tracking-SSD,go-2,4,,,,,,
2,605.0,8,phase_2,purple_rhombus,go,,,,go-2,1,,,,,,
0,0,8,phase_2,green_rhombus,stop,red,0.0,0-SSD,go-1,4,,,,,,
1,454.0,8,phase_2,green_circle,go,,,,go-1,1,,,,,,
2,564.0,8,phase_2,green_pentagon,go,,,,go-1,1,,,,,,
0,0,8,phase_2,green_pentagon,stop,red,0.0,0-SSD,go-1,4,,,,,,
0,0,8,phase_2,purple_pentagon,stop,red,0.0,0-SSD,go-2,4,,,,,,
1,444.0,8,phase_2,purple_circle,go,,,,go-2,1,,,,,,
1,531.0,8,phase_2,green_triangle,go,,,,go-1,1,,,,,,
2,540.0,8,phase_2,purple_rhombus,go,,,,go-2,1,,,,,,
1,448.0,8,phase_2,green_circle,go,,,,go-1,1,,,,,,
1,434.0,8,phase_2,green_circle,go,,,,go-1,1,,,,,,
2,488.0,8,phase_2,purple_rhombus,go,,,,go-2,1,,,,,,
0,0,8,phase_2,green_circle,stop,red,0.0,0-SSD,go-1,4,,,,,,
2,832.0,8,phase_2,purple_rhombus,go,,,,go-2,1,,,,,,
1,447.0,8,phase_2,purple_circle,go,,,,go-2,1,,,,,,
2,581.0,8,phase_2,green_rhombus,stop,blue,200.0,tracking-SSD,go-1,3,,,,,,
0,0,9,phase_2,purple_rhombus,stop,blue,150.0,tracking-SSD,go-2,4,,,,,,
1,519.0,9,phase_2,green_triangle,go,,,,go-1,1,,,,,,
1,448.0,9,phase_2,green_triangle,go,,,,go-1,1,,,,,,
2,468.0,9,phase_2,green_pentagon,go,,,,go-1,1,,,,,,
1,478.0,9,phase_2,purple_circle,go,,,,go-2,1,,,,,,
1,431.0,9,phase_2,green_circle,go,,,,go-1,1,,,,,,
1,541.0,9,phase_2,purple_triangle,go,,,,go-2,1,,,,,,
2,403.0,9,phase_2,green_rhombus,go,,,,go-1,1,,,,,,
1,480.0,9,phase_2,green_rhombus,go,,,,go-1,2,,,,,,
2,567.0,9,phase_2,green_pentagon,go,,,,go-1,1,,,,,,
1,417.0,9,phase_2,purple_triangle,stop,blue,200.0,tracking-SSD,go-2,3,,,,,,
0,0,9,phase_2,purple_pentagon,stop,blue,150.0,tracking-SSD,go-2,4,,,,,,
2,649.0,9,phase_2,purple_rhombus,go,,,,go-2,1,,,,,,
0,0,9,phase_2,green_pentagon,stop,red,0.0,0-SSD,go-1,4,,,,,,
0,0,9,phase_2,purple_pentagon,stop,blue,200.0,tracking-SSD,go-2,4,,,,,,
2,496.0,9,phase_2,purple_pentagon,go,,,,go-2,1,,,,,,
1,539.0,9,phase_2,purple_triangle,go,,,,go-2,1,,,,,,
0,0,9,phase_2,purple_triangle,stop,red,0.0,0-SSD,go-2,4,,,,,,
0,0,9,phase_2,green_rhombus,stop,blue,250.0,tracking-SSD,go-1,4,,,,,,
1,510.0,9,phase_2,green_triangle,go,,,,go-1,1,,,,,,
1,565.0,9,phase_2,green_circle,go,,,,go-1,1,,,,,,
0,0,9,phase_2,green_circle,stop,red,0.0,0-SSD,go-1,4,,,,,,
1,548.0,9,phase_2,purple_circle,go,,,,go-2,1,,,,,,
0,0,9,phase_2,green_triangle,stop,blue,300.0,tracking-SSD,go-1,4,,,,,,
1,544.0,9,phase_2,green_circle,go,,,,go-1,1,,,,,,
0,0,9,phase_2,purple_rhombus,stop,red,0.0,0-SSD,go-2,4,,,,,,
2,527.0,9,phase_2,purple_pentagon,go,,,,go-2,1,,,,,,
0,0,9,phase_2,purple_circle,stop,red,0.0,0-SSD,go-2,4,,,,,,
2,591.0,9,phase_2,purple_rhombus,go,,,,go-2,1,,,,,,
2,522.0,9,phase_2,green_rhombus,go,,,,go-1,1,,,,,,
1,519.0,9,phase_2,green_triangle,go,,,,go-1,1,,,,,,
2,619.0,9,phase_2,green_pentagon,go,,,,go-1,1,,,,,,
1,616.0,9,phase_2,green_triangle,go,,,,go-1,1,,,,,,
2,489.0,9,phase_2,purple_pentagon,go,,,,go-2,1,,,,,,
0,0,9,phase_2,green_rhombus,stop,red,0.0,0-SSD,go-1,4,,,,,,
2,462.0,9,phase_2,purple_pentagon,go,,,,go-2,1,,,,,,
1,517.0,9,phase_2,purple_circle,go,,,,go-2,1,,,,,,
1,480.0,9,phase_2,green_circle,go,,,,go-1,1,,,,,,
2,514.0,9,phase_2,green_pentagon,go,,,,go-1,1,,,,,,
1,511.0,9,phase_2,purple_triangle,go,,,,go-2,1,,,,,,
2,474.0,9,phase_2,purple_rhombus,go,,,,go-2,1,,,,,,
0,0,9,phase_2,purple_pentagon,stop,red,0.0,0-SSD,go-2,4,,,,,,
2,505.0,9,phase_2,green_rhombus,stop,blue,350.0,tracking-SSD,go-1,3,,,,,,
1,491.0,9,phase_2,purple_circle,go,,,,go-2,1,,,,,,
1,567.0,9,phase_2,purple_triangle,go,,,,go-2,1,,,,,,
1,475.0,9,phase_2,green_circle,stop,blue,300.0,tracking-SSD,go-1,3,,,,,,
0,0,9,phase_2,green_rhombus,stop,red,0.0,0-SSD,go-1,4,,,,,,
1,436.0,9,phase_2,purple_circle,go,,,,go-2,1,,,,,,
1,522.0,10,phase_2,green_triangle,go,,,,go-1,1,,,,,,
2,530.0,10,phase_2,purple_pentagon,go,,,,go-2,1,,,,,,
1,449.0,10,phase_2,green_triangle,stop,blue,250.0,tracking-SSD,go-1,3,,,,,,
0,0,10,phase_2,purple_pentagon,stop,red,0.0,0-SSD,go-2,4,,,,,,
2,500.0,10,phase_2,purple_pentagon,go,,,,go-2,1,,,,,,
1,464.0,10,phase_2,green_triangle,go,,,,go-1,1,,,,,,
1,485.0,10,phase_2,purple_circle,go,,,,go-2,1,,,,,,
0,0,10,phase_2,green_triangle,stop,blue,200.0,tracking-SSD,go-1,4,,,,,,
1,526.0,10,phase_2,purple_triangle,go,,,,go-2,1,,,,,,
1,400.0,10,phase_2,green_triangle,go,,,,go-1,1,,,,,,
2,522.0,10,phase_2,green_rhombus,go,,,,go-1,1,,,,,,
1,429.0,10,phase_2,purple_triangle,stop,blue,250.0,tracking-SSD,go-2,3,,,,,,
0,0,10,phase_2,purple_triangle,stop,red,0.0,0-SSD,go-2,4,,,,,,
2,413.0,10,phase_2,green_pentagon,go,,,,go-1,1,,,,,,
0,0,10,phase_2,purple_rhombus,stop,red,0.0,0-SSD,go-2,4,,,,,,
0,0,10,phase_2,green_circle,stop,red,0.0,0-SSD,go-1,4,,,,,,
0,0,10,phase_2,purple_circle,stop,blue,200.0,tracking-SSD,go-2,4,,,,,,
1,583.0,10,phase_2,purple_circle,go,,,,go-2,1,,,,,,
2,536.0,10,phase_2,green_rhombus,go,,,,go-1,1,,,,,,
1,455.0,10,phase_2,purple_triangle,go,,,,go-2,1,,,,,,
0,0,10,phase_2,green_rhombus,stop,red,0.0,0-SSD,go-1,4,,,,,,
1,416.0,10,phase_2,green_circle,stop,blue,250.0,tracking-SSD,go-1,3,,,,,,
2,469.0,10,phase_2,green_rhombus,go,,,,go-1,1,,,,,,
2,513.0,10,phase_2,green_pentagon,go,,,,go-1,1,,,,,,
1,477.0,10,phase_2,purple_circle,go,,,,go-2,1,,,,,,
2,431.0,10,phase_2,green_rhombus,go,,,,go-1,1,,,,,,
1,506.0,10,phase_2,purple_circle,go,,,,go-2,1,,,,,,
2,515.0,10,phase_2,green_circle,go,,,,go-1,2,,,,,,
1,524.0,10,phase_2,purple_triangle,go,,,,go-2,1,,,,,,
0,0,10,phase_2,green_circle,stop,red,0.0,0-SSD,go-1,4,,,,,,
2,463.0,10,phase_2,green_rhombus,go,,,,go-1,1,,,,,,
0,0,10,phase_2,green_triangle,stop,red,0.0,0-SSD,go-1,4,,,,,,
1,470.0,10,phase_2,purple_rhombus,go,,,,go-2,2,,,,,,
1,557.0,10,phase_2,purple_circle,go,,,,go-2,1,,,,,,
1,431.0,10,phase_2,green_pentagon,go,,,,go-1,2,,,,,,
2,394.0,10,phase_2,purple_pentagon,go,,,,go-2,1,,,,,,
0,0,10,phase_2,purple_rhombus,stop,red,0.0,0-SSD,go-2,4,,,,,,
2,423.0,10,phase_2,purple_pentagon,stop,blue,200.0,tracking-SSD,go-2,3,,,,,,
2,410.0,10,phase_2,purple_pentagon,go,,,,go-2,1,,,,,,
1,441.0,10,phase_2,purple_triangle,go,,,,go-2,1,,,,,,
2,429.0,10,phase_2,green_rhombus,go,,,,go-1,1,,,,,,
2,448.0,10,phase_2,green_rhombus,go,,,,go-1,1,,,,,,
0,0,10,phase_2,purple_circle,stop,blue,150.0,tracking-SSD,go-2,4,,,,,,
2,467.0,10,phase_2,green_circle,go,,,,go-1,2,,,,,,
2,531.0,10,phase_2,purple_pentagon,go,,,,go-2,1,,,,,,
2,528.0,10,phase_2,green_pentagon,go,,,,go-1,1,,,,,,
2,447.0,10,phase_2,purple_pentagon,go,,,,go-2,1,,,,,,
2,411.0,10,phase_2,green_rhombus,stop,blue,200.0,tracking-SSD,go-1,3,,,,,,
1,904.0,11,phase_2,green_triangle,go,,,,go-1,1,,,,,,
0,0,11,phase_2,green_triangle,stop,red,0.0,0-SSD,go-1,4,,,,,,
1,561.0,11,phase_2,green_circle,go,,,,go-1,1,,,,,,
0,0,11,phase_2,purple_circle,stop,blue,150.0,tracking-SSD,go-2,4,,,,,,
2,522.0,11,phase_2,green_rhombus,go,,,,go-1,1,,,,,,
1,497.0,11,phase_2,purple_triangle,go,,,,go-2,1,,,,,,
2,494.0,11,phase_2,purple_pentagon,go,,,,go-2,1,,,,,,
2,491.0,11,phase_2,purple_pentagon,go,,,,go-2,1,,,,,,
0,0,11,phase_2,green_rhombus,stop,red,0.0,0-SSD,go-1,4,,,,,,
1,522.0,11,phase_2,purple_circle,go,,,,go-2,1,,,,,,
0,0,11,phase_2,green_pentagon,stop,red,0.0,0-SSD,go-1,4,,,,,,
2,495.0,11,phase_2,green_pentagon,go,,,,go-1,1,,,,,,
1,605.0,11,phase_2,green_rhombus,go,,,,go-1,2,,,,,,
0,0,11,phase_2,purple_triangle,stop,red,0.0,0-SSD,go-2,4,,,,,,
1,398.0,11,phase_2,purple_triangle,go,,,,go-2,1,,,,,,
1,440.0,11,phase_2,green_circle,go,,,,go-1,1,,,,,,
0,0,11,phase_2,purple_circle,stop,red,0.0,0-SSD,go-2,4,,,,,,
2,683.0,11,phase_2,purple_triangle,go,,,,go-2,2,,,,,,
0,0,11,phase_2,green_rhombus,stop,blue,200.0,tracking-SSD,go-1,4,,,,,,
2,397.0,11,phase_2,purple_rhombus,go,,,,go-2,1,,,,,,
2,406.0,11,phase_2,purple_pentagon,go,,,,go-2,1,,,,,,
1,551.0,11,phase_2,green_circle,go,,,,go-1,1,,,,,,
2,604.0,11,phase_2,purple_rhombus,stop,blue,250.0,tracking-SSD,go-2,3,,,,,,
0,0,11,phase_2,purple_circle,stop,blue,200.0,tracking-SSD,go-2,4,,,,,,
1,398.0,11,phase_2,purple_circle,go,,,,go-2,1,,,,,,
2,496.0,11,phase_2,green_pentagon,go,,,,go-1,1,,,,,,
2,528.0,11,phase_2,green_rhombus,go,,,,go-1,1,,,,,,
1,504.0,11,phase_2,green_circle,go,,,,go-1,1,,,,,,
1,388.0,11,phase_2,green_circle,go,,,,go-1,1,,,,,,
2,476.0,11,phase_2,purple_pentagon,stop,blue,250.0,tracking-SSD,go-2,3,,,,,,
2,529.0,11,phase_2,green_pentagon,go,,,,go-1,1,,,,,,
0,0,11,phase_2,purple_rhombus,stop,red,0.0,0-SSD,go-2,4,,,,,,
2,547.0,11,phase_2,purple_pentagon,go,,,,go-2,1,,,,,,
0,0,11,phase_2,green_pentagon,stop,blue,200.0,tracking-SSD,go-1,4,,,,,,
1,476.0,11,phase_2,purple_circle,go,,,,go-2,1,,,,,,
2,485.0,11,phase_2,purple_rhombus,go,,,,go-2,1,,,,,,
2,551.0,11,phase_2,green_rhombus,go,,,,go-1,1,,,,,,
1,525.0,11,phase_2,green_triangle,stop,blue,250.0,tracking-SSD,go-1,3,,,,,,
2,569.0,11,phase_2,purple_rhombus,go,,,,go-2,1,,,,,,
2,443.0,11,phase_2,purple_triangle,go,,,,go-2,2,,,,,,
0,0,11,phase_2,green_triangle,stop,red,0.0,0-SSD,go-1,4,,,,,,
0,0,11,phase_2,purple_triangle,stop,red,0.0,0-SSD,go-2,4,,,,,,
2,572.0,11,phase_2,purple_rhombus,go,,,,go-2,1,,,,,,
0,0,11,phase_2,green_pentagon,stop,blue,200.0,tracking-SSD,go-1,4,,,,,,
1,657.0,11,phase_2,green_triangle,go,,,,go-1,1,,,,,,
1,552.0,11,phase_2,green_circle,go,,,,go-1,1,,,,,,
1,528.0,11,phase_2,green_triangle,go,,,,go-1,1,,,,,,
2,505.0,11,phase_2,purple_pentagon,go,,,,go-2,1,,,,,,
2,656.0,12,phase_2,green_pentagon,go,,,,go-1,1,,,,,,
2,441.0,12,phase_2,green_triangle,go,,,,go-1,2,,,,,,
2,573.0,12,phase_2,green_pentagon,stop,blue,250.0,tracking-SSD,go-1,3,,,,,,
1,435.0,12,phase_2,purple_circle,go,,,,go-2,1,,,,,,
1,467.0,12,phase_2,purple_triangle,go,,,,go-2,1,,,,,,
2,519.0,12,phase_2,green_rhombus,go,,,,go-1,1,,,,,,
1,483.0,12,phase_2,green_circle,go,,,,go-1,1,,,,,,
1,391.0,12,phase_2,purple_circle,go,,,,go-2,1,,,,,,
2,501.0,12,phase_2,purple_pentagon,go,,,,go-2,1,,,,,,
0,0,12,phase_2,green_triangle,stop,red,0.0,0-SSD,go-1,4,,,,,,
0,0,12,phase_2,green_circle,stop,red,0.0,0-SSD,go-1,4,,,,,,
2,505.0,12,phase_2,purple_pentagon,go,,,,go-2,1,,,,,,
2,503.0,12,phase_2,purple_pentagon,go,,,,go-2,1,,,,,,
1,422.0,12,phase_2,green_circle,go,,,,go-1,1,,,,,,
2,521.0,12,phase_2,green_rhombus,stop,blue,200.0,tracking-SSD,go-1,3,,,,,,
2,416.0,12,phase_2,green_pentagon,go,,,,go-1,1,,,,,,
2,414.0,12,phase_2,purple_pentagon,go,,,,go-2,1,,,,,,
0,0,12,phase_2,green_pentagon,stop,blue,150.0,tracking-SSD,go-1,4,,,,,,
1,420.0,12,phase_2,green_circle,go,,,,go-1,1,,,,,,
2,518.0,12,phase_2,purple_rhombus,go,,,,go-2,1,,,,,,
0,0,12,phase_2,purple_circle,stop,blue,200.0,tracking-SSD,go-2,4,,,,,,
0,0,12,phase_2,green_rhombus,stop,red,0.0,0-SSD,go-1,4,,,,,,
1,500.0,12,phase_2,green_circle,go,,,,go-1,1,,,,,,
1,429.0,12,phase_2,purple_circle,stop,blue,250.0,tracking-SSD,go-2,3,,,,,,
2,461.0,12,phase_2,green_pentagon,go,,,,go-1,1,,,,,,
2,502.0,12,phase_2,green_rhombus,go,,,,go-1,1,,,,,,
1,546.0,12,phase_2,green_triangle,go,,,,go-1,1,,,,,,
0,0,12,phase_2,purple_pentagon,stop,blue,200.0,tracking-SSD,go-2,4,,,,,,
1,496.0,12,phase_2,purple_triangle,go,,,,go-2,1,,,,,,
2,482.0,12,phase_2,green_rhombus,go,,,,go-1,1,,,,,,
2,535.0,12,phase_2,purple_pentagon,go,,,,go-2,1,,,,,,
0,0,12,phase_2,green_triangle,stop,red,0.0,0-SSD,go-1,4,,,,,,
0,0,12,phase_2,purple_circle,stop,red,0.0,0-SSD,go-2,4,,,,,,
2,483.0,12,phase_2,purple_rhombus,go,,,,go-2,1,,,,,,
0,0,12,phase_2,purple_rhombus,stop,red,0.0,0-SSD,go-2,4,,,,,,
0,0,12,phase_2,purple_rhombus,stop,red,0.0,0-SSD,go-2,4,,,,,,
0,0,12,phase_2,purple_circle,stop,red,0.0,0-SSD,go-2,4,,,,,,
1,417.0,12,phase_2,green_triangle,go,,,,go-1,1,,,,,,
1,471.0,12,phase_2,purple_triangle,stop,blue,250.0,tracking-SSD,go-2,3,,,,,,
2,422.0,12,phase_2,green_pentagon,go,,,,go-1,1,,,,,,
2,487.0,12,phase_2,purple_rhombus,go,,,,go-2,1,,,,,,
1,552.0,12,phase_2,purple_circle,go,,,,go-2,1,,,,,,
1,504.0,12,phase_2,purple_triangle,go,,,,go-2,1,,,,,,
1,479.0,12,phase_2,purple_triangle,go,,,,go-2,1,,,,,,
1,533.0,12,phase_2,green_triangle,go,,,,go-1,1,,,,,,
1,373.0,12,phase_2,purple_triangle,go,,,,go-2,1,,,,,,
2,438.0,12,phase_2,green_rhombus,go,,,,go-1,1,,,,,,
2,469.0,12,phase_2,green_rhombus,stop,blue,200.0,tracking-SSD,go-1,3,,,,,,
2,511.0,13,phase_2,green_pentagon,go,,,,go-1,1,,,,,,
2,610.0,13,phase_2,green_rhombus,go,,,,go-1,1,,,,,,
1,484.0,13,phase_2,purple_circle,go,,,,go-2,1,,,,,,
0,0,13,phase_2,purple_triangle,stop,red,0.0,0-SSD,go-2,4,,,,,,
2,411.0,13,phase_2,purple_rhombus,go,,,,go-2,1,,,,,,
1,520.0,13,phase_2,purple_triangle,go,,,,go-2,1,,,,,,
1,563.0,13,phase_2,green_circle,go,,,,go-1,1,,,,,,
0,0,13,phase_2,green_circle,stop,red,0.0,0-SSD,go-1,4,,,,,,
1,480.0,13,phase_2,green_triangle,go,,,,go-1,1,,,,,,
2,972.0,13,phase_2,purple_pentagon,stop,blue,150.0,tracking-SSD,go-2,3,,,,,,
1,474.0,13,phase_2,green_triangle,go,,,,go-1,1,,,,,,
0,0,13,phase_2,purple_rhombus,stop,blue,100.0,tracking-SSD,go-2,4,,,,,,
2,503.0,13,phase_2,purple_pentagon,go,,,,go-2,1,,,,,,
2,445.0,13,phase_2,purple_rhombus,go,,,,go-2,1,,,,,,
2,511.0,13,phase_2,purple_pentagon,go,,,,go-2,1,,,,,,
1,485.0,13,phase_2,green_circle,go,,,,go-1,1,,,,,,
1,606.0,13,phase_2,purple_triangle,go,,,,go-2,1,,,,,,
1,480.0,13,phase_2,green_circle,go,,,,go-1,1,,,,,,
2,454.0,13,phase_2,green_pentagon,go,,,,go-1,1,,,,,,
0,0,13,phase_2,green_pentagon,stop,red,0.0,0-SSD,go-1,4,,,,,,
2,517.0,13,phase_2,green_rhombus,go,,,,go-1,1,,,,,,
0,0,13,phase_2,green_circle,stop,blue,150.0,tracking-SSD,go-1,4,,,,,,
2,533.0,13,phase_2,green_rhombus,go,,,,go-1,1,,,,,,
2,407.0,13,phase_2,purple_pentagon,go,,,,go-2,1,,,,,,
1,505.0,13,phase_2,green_circle,go,,,,go-1,1,,,,,,
1,392.0,13,phase_2,green_circle,stop,blue,200.0,tracking-SSD,go-1,3,,,,,,
2,479.0,13,phase_2,purple_pentagon,go,,,,go-2,1,,,,,,
1,566.0,13,phase_2,purple_triangle,go,,,,go-2,1,,,,,,
1,439.0,13,phase_2,green_triangle,go,,,,go-1,1,,,,,,
2,438.0,13,phase_2,purple_pentagon,go,,,,go-2,1,,,,,,
0,0,13,phase_2,green_pentagon,stop,red,0.0,0-SSD,go-1,4,,,,,,
2,477.0,13,phase_2,purple_pentagon,go,,,,go-2,1,,,,,,
0,0,13,phase_2,purple_triangle,stop,blue,150.0,tracking-SSD,go-2,4,,,,,,
2,528.0,13,phase_2,purple_rhombus,go,,,,go-2,1,,,,,,
2,424.0,13,phase_2,green_rhombus,go,,,,go-1,1,,,,,,
2,489.0,13,phase_2,green_pentagon,go,,,,go-1,1,,,,,,
1,499.0,13,phase_2,purple_triangle,go,,,,go-2,1,,,,,,
0,0,13,phase_2,green_circle,stop,red,0.0,0-SSD,go-1,4,,,,,,
1,482.0,13,phase_2,green_triangle,stop,blue,200.0,tracking-SSD,go-1,3,,,,,,
0,0,13,phase_2,purple_circle,stop,blue,150.0,tracking-SSD,go-2,4,,,,,,
2,521.0,13,phase_2,purple_rhombus,go,,,,go-2,1,,,,,,
0,0,13,phase_2,green_rhombus,stop,blue,200.0,tracking-SSD,go-1,4,,,,,,
2,618.0,13,phase_2,green_rhombus,go,,,,go-1,1,,,,,,
0,0,13,phase_2,purple_triangle,stop,red,0.0,0-SSD,go-2,4,,,,,,
0,0,13,phase_2,purple_circle,stop,red,0.0,0-SSD,go-2,4,,,,,,
1,611.0,13,phase_2,purple_circle,go,,,,go-2,1,,,,,,
1,530.0,13,phase_2,green_triangle,go,,,,go-1,1,,,,,,
0,0,13,phase_2,purple_rhombus,stop,red,0.0,0-SSD,go-2,4,,,,,,
1,476.0,14,phase_2,purple_triangle,stop,blue,250.0,tracking-SSD,go-2,3,,,,,,
2,440.0,14,phase_2,green_pentagon,go,,,,go-1,1,,,,,,
2,515.0,14,phase_2,purple_pentagon,go,,,,go-2,1,,,,,,
1,535.0,14,phase_2,green_triangle,go,,,,go-1,1,,,,,,
2,421.0,14,phase_2,green_pentagon,go,,,,go-1,1,,,,,,
0,0,14,phase_2,purple_pentagon,stop,red,0.0,0-SSD,go-2,4,,,,,,
2,527.0,14,phase_2,purple_pentagon,go,,,,go-2,1,,,,,,
2,390.0,14,phase_2,purple_rhombus,go,,,,go-2,1,,,,,,
2,455.0,14,phase_2,green_rhombus,go,,,,go-1,1,,,,,,
0,0,14,phase_2,purple_pentagon,stop,red,0.0,0-SSD,go-2,4,,,,,,
0,0,14,phase_2,purple_circle,stop,red,0.0,0-SSD,go-2,4,,,,,,
1,495.0,14,phase_2,purple_circle,go,,,,go-2,1,,,,,,
2,650.0,14,phase_2,purple_rhombus,go,,,,go-2,1,,,,,,
1,670.0,14,phase_2,purple_triangle,go,,,,go-2,1,,,,,,
2,555.0,14,phase_2,purple_pentagon,go,,,,go-2,1,,,,,,
0,0,14,phase_2,purple_circle,stop,blue,200.0,tracking-SSD,go-2,4,,,,,,
1,607.0,14,phase_2,purple_triangle,go,,,,go-2,1,,,,,,
2,525.0,14,phase_2,green_rhombus,go,,,,go-1,1,,,,,,
2,657.0,14,phase_2,green_pentagon,go,,,,go-1,1,,,,,,
1,587.0,14,phase_2,green_triangle,go,,,,go-1,1,,,,,,
1,438.0,14,phase_2,purple_triangle,go,,,,go-2,1,,,,,,
1,583.0,14,phase_2,green_circle,stop,blue,250.0,tracking-SSD,go-1,3,,,,,,
0,0,14,phase_2,green_triangle,stop,red,0.0,0-SSD,go-1,4,,,,,,
1,487.0,14,phase_2,purple_circle,go,,,,go-2,1,,,,,,
0,0,14,phase_2,purple_triangle,stop,red,0.0,0-SSD,go-2,4,,,,,,
2,572.0,14,phase_2,green_pentagon,go,,,,go-1,1,,,,,,
2,580.0,14,phase_2,green_pentagon,go,,,,go-1,1,,,,,,
1,691.0,14,phase_2,green_triangle,go,,,,go-1,1,,,,,,
1,598.0,14,phase_2,purple_circle,go,,,,go-2,1,,,,,,
2,528.0,14,phase_2,green_rhombus,go,,,,go-1,1,,,,,,
1,581.0,14,phase_2,purple_circle,go,,,,go-2,1,,,,,,
2,478.0,14,phase_2,purple_pentagon,go,,,,go-2,1,,,,,,
0,0,14,phase_2,purple_pentagon,stop,blue,200.0,tracking-SSD,go-2,4,,,,,,
1,472.0,14,phase_2,green_circle,stop,blue,250.0,tracking-SSD,go-1,3,,,,,,
1,492.0,14,phase_2,green_triangle,go,,,,go-1,1,,,,,,
1,389.0,14,phase_2,green_rhombus,go,,,,go-1,2,,,,,,
0,0,14,phase_2,purple_rhombus,stop,blue,200.0,tracking-SSD,go-2,4,,,,,,
0,0,14,phase_2,green_circle,stop,red,0.0,0-SSD,go-1,4,,,,,,
0,0,14,phase_2,green_triangle,stop,red,0.0,0-SSD,go-1,4,,,,,,
0,0,14,phase_2,green_rhombus,stop,blue,250.0,tracking-SSD,go-1,4,,,,,,
2,365.0,14,phase_2,green_rhombus,go,,,,go-1,1,,,,,,
1,430.0,14,phase_2,green_circle,stop,blue,300.0,tracking-SSD,go-1,3,,,,,,
1,494.0,14,phase_2,purple_circle,go,,,,go-2,1,,,,,,
0,0,14,phase_2,green_rhombus,stop,red,0.0,0-SSD,go-1,4,,,,,,
2,580.0,14,phase_2,purple_rhombus,go,,,,go-2,1,,,,,,
1,522.0,14,phase_2,green_triangle,go,,,,go-1,1,,,,,,
2,452.0,14,phase_2,purple_rhombus,go,,,,go-2,1,,,,,,
1,450.0,14,phase_2,green_circle,go,,,,go-1,1,,,,,,
1,488.0,15,phase_2,purple_triangle,go,,,,go-2,1,,,,,,
1,485.0,15,phase_2,green_circle,stop,blue,250.0,tracking-SSD,go-1,3,,,,,,
1,505.0,15,phase_2,purple_circle,go,,,,go-2,1,,,,,,
0,0,15,phase_2,green_rhombus,stop,red,0.0,0-SSD,go-1,4,,,,,,
0,0,15,phase_2,green_triangle,stop,red,0.0,0-SSD,go-1,4,,,,,,
2,476.0,15,phase_2,green_pentagon,go,,,,go-1,1,,,,,,
0,0,15,phase_2,green_circle,stop,blue,200.0,tracking-SSD,go-1,4,,,,,,
1,483.0,15,phase_2,purple_triangle,go,,,,go-2,1,,,,,,
2,424.0,15,phase_2,green_pentagon,go,,,,go-1,1,,,,,,
1,479.0,15,phase_2,green_pentagon,go,,,,go-1,2,,,,,,
0,0,15,phase_2,green_pentagon,stop,red,0.0,0-SSD,go-1,4,,,,,,
1,585.0,15,phase_2,green_triangle,go,,,,go-1,1,,,,,,
2,482.0,15,phase_2,green_pentagon,go,,,,go-1,1,,,,,,
2,817.0,15,phase_2,green_pentagon,go,,,,go-1,1,,,,,,
2,398.0,15,phase_2,green_triangle,go,,,,go-1,2,,,,,,
1,553.0,15,phase_2,purple_circle,go,,,,go-2,1,,,,,,
2,527.0,15,phase_2,purple_rhombus,go,,,,go-2,1,,,,,,
2,592.0,15,phase_2,purple_rhombus,go,,,,go-2,1,,,,,,
2,466.0,15,phase_2,purple_pentagon,stop,blue,250.0,tracking-SSD,go-2,3,,,,,,
0,0,15,phase_2,purple_triangle,stop,red,0.0,0-SSD,go-2,4,,,,,,
2,472.0,15,phase_2,purple_rhombus,go,,,,go-2,1,,,,,,
0,0,15,phase_2,purple_circle,stop,red,0.0,0-SSD,go-2,4,,,,,,
0,0,15,phase_2,purple_pentagon,stop,red,0.0,0-SSD,go-2,4,,,,,,
2,431.0,15,phase_2,purple_rhombus,go,,,,go-2,1,,,,,,
1,518.0,15,phase_2,green_triangle,go,,,,go-1,1,,,,,,
2,527.0,15,phase_2,purple_rhombus,stop,blue,200.0,tracking-SSD,go-2,3,,,,,,
2,535.0,15,phase_2,green_rhombus,go,,,,go-1,1,,,,,,
1,690.0,15,phase_2,purple_circle,go,,,,go-2,1,,,,,,
1,700.0,15,phase_2,green_triangle,go,,,,go-1,1,,,,,,
0,0,15,phase_2,green_pentagon,stop,blue,150.0,tracking-SSD,go-1,4,,,,,,
2,413.0,15,phase_2,green_circle,go,,,,go-1,2,,,,,,
2,500.0,15,phase_2,green_pentagon,go,,,,go-1,1,,,,,,
2,520.0,15,phase_2,purple_rhombus,go,,,,go-2,1,,,,,,
0,0,15,phase_2,purple_rhombus,stop,red,0.0,0-SSD,go-2,4,,,,,,
2,459.0,15,phase_2,purple_pentagon,go,,,,go-2,1,,,,,,
1,502.0,15,phase_2,purple_circle,go,,,,go-2,1,,,,,,
0,0,15,phase_2,green_triangle,stop,red,0.0,0-SSD,go-1,4,,,,,,
2,462.0,15,phase_2,green_rhombus,stop,blue,200.0,tracking-SSD,go-1,3,,,,,,
1,472.0,15,phase_2,purple_circle,go,,,,go-2,1,,,,,,
2,481.0,15,phase_2,purple_pentagon,go,,,,go-2,1,,,,,,
1,501.0,15,phase_2,green_triangle,go,,,,go-1,1,,,,,,
1,511.0,15,phase_2,green_circle,go,,,,go-1,1,,,,,,
1,474.0,15,phase_2,green_triangle,go,,,,go-1,1,,,,,,
1,529.0,15,phase_2,purple_rhombus,go,,,,go-2,2,,,,,,
1,549.0,15,phase_2,purple_circle,go,,,,go-2,1,,,,,,
1,536.0,15,phase_2,green_triangle,go,,,,go-1,1,,,,,,
0,0,15,phase_2,purple_circle,stop,blue,150.0,tracking-SSD,go-2,4,,,,,,
0,0,15,phase_2,purple_rhombus,stop,blue,200.0,tracking-SSD,go-2,4,,,,,,
1,498.0,16,phase_2,purple_triangle,go,,,,go-2,1,,,,,,
1,531.0,16,phase_2,green_circle,go,,,,go-1,1,,,,,,
1,427.0,16,phase_2,purple_triangle,go,,,,go-2,1,,,,,,
2,425.0,16,phase_2,purple_pentagon,go,,,,go-2,1,,,,,,
1,647.0,16,phase_2,purple_triangle,go,,,,go-2,1,,,,,,
1,399.0,16,phase_2,green_triangle,stop,blue,250.0,tracking-SSD,go-1,3,,,,,,
2,542.0,16,phase_2,green_pentagon,go,,,,go-1,1,,,,,,
1,472.0,16,phase_2,green_triangle,go,,,,go-1,1,,,,,,
1,379.0,16,phase_2,green_triangle,go,,,,go-1,1,,,,,,
2,715.0,16,phase_2,green_pentagon,go,,,,go-1,1,,,,,,
2,499.0,16,phase_2,purple_pentagon,stop,blue,200.0,tracking-SSD,go-2,3,,,,,,
0,0,16,phase_2,purple_triangle,stop,blue,150.0,tracking-SSD,go-2,4,,,,,,
0,0,16,phase_2,purple_pentagon,stop,red,0.0,0-SSD,go-2,4,,,,,,
2,524.0,16,phase_2,purple_pentagon,go,,,,go-2,1,,,,,,
2,635.0,16,phase_2,green_rhombus,go,,,,go-1,1,,,,,,
2,565.0,16,phase_2,green_pentagon,go,,,,go-1,1,,,,,,
1,506.0,16,phase_2,purple_circle,go,,,,go-2,1,,,,,,
1,537.0,16,phase_2,green_circle,stop,blue,200.0,tracking-SSD,go-1,3,,,,,,
2,534.0,16,phase_2,purple_rhombus,go,,,,go-2,1,,,,,,
1,520.0,16,phase_2,green_circle,go,,,,go-1,1,,,,,,
2,474.0,16,phase_2,green_pentagon,stop,blue,150.0,tracking-SSD,go-1,3,,,,,,
2,482.0,16,phase_2,green_pentagon,go,,,,go-1,1,,,,,,
0,0,16,phase_2,green_circle,stop,red,0.0,0-SSD,go-1,4,,,,,,
0,0,16,phase_2,green_rhombus,stop,red,0.0,0-SSD,go-1,4,,,,,,
0,0,16,phase_2,green_pentagon,stop,red,0.0,0-SSD,go-1,4,,,,,,
1,527.0,16,phase_2,green_circle,go,,,,go-1,1,,,,,,
1,490.0,16,phase_2,purple_circle,go,,,,go-2,1,,,,,,
0,0,16,phase_2,purple_pentagon,stop,red,0.0,0-SSD,go-2,4,,,,,,
0,0,16,phase_2,purple_triangle,stop,blue,100.0,tracking-SSD,go-2,4,,,,,,
0,0,16,phase_2,purple_rhombus,stop,red,0.0,0-SSD,go-2,4,,,,,,
2,684.0,16,phase_2,green_rhombus,go,,,,go-1,1,,,,,,
1,725.0,16,phase_2,green_triangle,go,,,,go-1,1,,,,,,
2,634.0,16,phase_2,green_rhombus,go,,,,go-1,1,,,,,,
1,755.0,16,phase_2,purple_triangle,go,,,,go-2,1,,,,,,
2,448.0,16,phase_2,green_rhombus,go,,,,go-1,1,,,,,,
2,502.0,16,phase_2,purple_rhombus,go,,,,go-2,1,,,,,,
1,500.0,16,phase_2,purple_circle,go,,,,go-2,1,,,,,,
1,509.0,16,phase_2,purple_triangle,go,,,,go-2,1,,,,,,
0,0,16,phase_2,green_circle,stop,blue,150.0,tracking-SSD,go-1,4,,,,,,
1,469.0,16,phase_2,purple_circle,go,,,,go-2,1,,,,,,
0,0,16,phase_2,green_circle,stop,red,0.0,0-SSD,go-1,4,,,,,,
2,509.0,16,phase_2,purple_rhombus,go,,,,go-2,1,,,,,,
2,496.0,16,phase_2,purple_pentagon,go,,,,go-2,1,,,,,,
0,0,16,phase_2,purple_rhombus,stop,blue,200.0,tracking-SSD,go-2,4,,,,,,
2,433.0,16,phase_2,purple_rhombus,go,,,,go-2,1,,,,,,
0,0,16,phase_2,purple_triangle,stop,red,0.0,0-SSD,go-2,4,,,,,,
1,530.0,16,phase_2,green_circle,go,,,,go-1,1,,,,,,
2,651.0,16,phase_2,green_rhombus,go,,,,go-1,1,,,,,,
1,566.0,17,phase_2,green_circle,stop,blue,250.0,tracking-SSD,go-1,3,,,,,,
1,541.0,17,phase_2,green_circle,go,,,,go-1,1,,,,,,
2,460.0,17,phase_2,green_pentagon,go,,,,go-1,1,,,,,,
2,548.0,17,phase_2,purple_circle,go,,,,go-2,2,,,,,,
2,445.0,17,phase_2,purple_pentagon,go,,,,go-2,1,,,,,,
0,0,17,phase_2,purple_circle,stop,red,0.0,0-SSD,go-2,4,,,,,,
1,532.0,17,phase_2,green_triangle,go,,,,go-1,1,,,,,,
0,0,17,phase_2,green_pentagon,stop,red,0.0,0-SSD,go-1,4,,,,,,
2,413.0,17,phase_2,green_pentagon,go,,,,go-1,1,,,,,,
1,523.0,17,phase_2,green_circle,go,,,,go-1,1,,,,,,
1,453.0,17,phase_2,green_triangle,go,,,,go-1,1,,,,,,
1,507.0,17,phase_2,purple_triangle,go,,,,go-2,1,,,,,,
1,460.0,17,phase_2,purple_triangle,go,,,,go-2,1,,,,,,
0,0,17,phase_2,purple_circle,stop,red,0.0,0-SSD,go-2,4,,,,,,
1,455.0,17,phase_2,purple_circle,go,,,,go-2,1,,,,,,
0,0,17,phase_2,green_circle,stop,blue,200.0,tracking-SSD,go-1,4,,,,,,
1,574.0,17,phase_2,green_circle,go,,,,go-1,1,,,,,,
0,0,17,phase_2,green_pentagon,stop,red,0.0,0-SSD,go-1,4,,,,,,
1,545.0,17,phase_2,green_circle,go,,,,go-1,1,,,,,,
1,588.0,17,phase_2,purple_triangle,go,,,,go-2,1,,,,,,
1,551.0,17,phase_2,purple_triangle,go,,,,go-2,1,,,,,,
1,414.0,17,phase_2,purple_triangle,go,,,,go-2,1,,,,,,
2,467.0,17,phase_2,purple_pentagon,go,,,,go-2,1,,,,,,
2,521.0,17,phase_2,green_pentagon,go,,,,go-1,1,,,,,,
1,541.0,17,phase_2,purple_circle,go,,,,go-2,1,,,,,,
2,584.0,17,phase_2,purple_rhombus,stop,blue,250.0,tracking-SSD,go-2,3,,,,,,
2,424.0,17,phase_2,green_pentagon,go,,,,go-1,1,,,,,,
0,0,17,phase_2,purple_rhombus,stop,blue,200.0,tracking-SSD,go-2,4,,,,,,
2,542.0,17,phase_2,green_rhombus,go,,,,go-1,1,,,,,,
1,562.0,17,phase_2,purple_circle,go,,,,go-2,1,,,,,,
2,492.0,17,phase_2,purple_pentagon,go,,,,go-2,1,,,,,,
0,0,17,phase_2,green_rhombus,stop,red,0.0,0-SSD,go-1,4,,,,,,
0,0,17,phase_2,purple_triangle,stop,red,0.0,0-SSD,go-2,4,,,,,,
2,518.0,17,phase_2,green_pentagon,go,,,,go-1,1,,,,,,
0,0,17,phase_2,purple_rhombus,stop,red,0.0,0-SSD,go-2,4,,,,,,
0,0,17,phase_2,green_rhombus,stop,blue,250.0,tracking-SSD,go-1,4,,,,,,
2,511.0,17,phase_2,purple_pentagon,stop,blue,300.0,tracking-SSD,go-2,3,,,,,,
2,564.0,17,phase_2,green_rhombus,go,,,,go-1,1,,,,,,
0,0,17,phase_2,green_rhombus,stop,red,0.0,0-SSD,go-1,4,,,,,,
1,525.0,17,phase_2,purple_triangle,go,,,,go-2,1,,,,,,
2,522.0,17,phase_2,purple_pentagon,go,,,,go-2,1,,,,,,
0,0,17,phase_2,green_triangle,stop,blue,250.0,tracking-SSD,go-1,4,,,,,,
1,619.0,17,phase_2,green_triangle,go,,,,go-1,1,,,,,,
2,482.0,17,phase_2,green_rhombus,go,,,,go-1,1,,,,,,
2,580.0,17,phase_2,green_rhombus,go,,,,go-1,1,,,,,,
1,972.0,17,phase_2,purple_triangle,go,,,,go-2,1,,,,,,
2,463.0,17,phase_2,purple_rhombus,go,,,,go-2,1,,,,,,
2,449.0,17,phase_2,purple_rhombus,stop,blue,300.0,tracking-SSD,go-2,3,,,,,,
,824.0,1,phase_3,,,,,,,,green_square,go-1,green_square,go-1,red_square,0-SSD
,616.0,1,phase_3,,,,,,,,blue_square,tracking-SSD,red_square,0-SSD,blue_square,tracking-SSD
,894.0,1,phase_3,,,,,,,,purple_square,go-2,green_square,go-1,purple_square,go-2
,844.0,1,phase_3,,,,,,,,purple_square,go-2,purple_square,go-2,blue_square,tracking-SSD
,525.0,1,phase_3,,,,,,,,purple_square,go-2,purple_square,go-2,red_square,0-SSD
,735.0,1,phase_3,,,,,,,,blue_square,tracking-SSD,green_square,go-1,blue_square,tracking-SSD
,774.0,1,phase_3,,,,,,,,purple_square,go-2,blue_square,tracking-SSD,purple_square,go-2
,545.0,1,phase_3,,,,,,,,blue_square,tracking-SSD,blue_square,tracking-SSD,red_square,0-SSD
,642.0,1,phase_3,,,,,,,,green_square,go-1,red_square,0-SSD,green_square,go-1
,818.0,1,phase_3,,,,,,,,blue_square,tracking-SSD,blue_square,tracking-SSD,green_square,go-1
,633.0,1,phase_3,,,,,,,,purple_square,go-2,purple_square,go-2,green_square,go-1
,416.0,1,phase_3,,,,,,,,purple_square,go-2,red_square,0-SSD,purple_square,go-2
,735.0,2,phase_3,,,,,,,,purple_square,go-2,purple_square,go-2,blue_square,tracking-SSD
,505.0,2,phase_3,,,,,,,,blue_square,tracking-SSD,red_square,0-SSD,blue_square,tracking-SSD
,557.0,2,phase_3,,,,,,,,purple_square,go-2,purple_square,go-2,red_square,0-SSD
,676.0,2,phase_3,,,,,,,,blue_square,tracking-SSD,green_square,go-1,blue_square,tracking-SSD
,649.0,2,phase_3,,,,,,,,purple_square,go-2,green_square,go-1,purple_square,go-2
,972.0,2,phase_3,,,,,,,,green_square,go-1,green_square,go-1,red_square,0-SSD
,606.0,2,phase_3,,,,,,,,blue_square,tracking-SSD,blue_square,tracking-SSD,green_square,go-1
,748.0,2,phase_3,,,,,,,,purple_square,go-2,blue_square,tracking-SSD,purple_square,go-2
,508.0,2,phase_3,,,,,,,,purple_square,go-2,purple_square,go-2,green_square,go-1
,909.0,2,phase_3,,,,,,,,green_square,go-1,red_square,0-SSD,green_square,go-1
,555.0,2,phase_3,,,,,,,,blue_square,tracking-SSD,blue_square,tracking-SSD,red_square,0-SSD
,676.0,2,phase_3,,,,,,,,purple_square,go-2,red_square,0-SSD,purple_square,go-2
,915.0,3,phase_3,,,,,,,,purple_square,go-2,green_square,go-1,purple_square,go-2
,2159.0,3,phase_3,,,,,,,,blue_square,tracking-SSD,green_square,go-1,blue_square,tracking-SSD
,1121.0,3,phase_3,,,,,,,,blue_square,tracking-SSD,red_square,0-SSD,blue_square,tracking-SSD
,531.0,3,phase_3,,,,,,,,purple_square,go-2,purple_square,go-2,red_square,0-SSD
,1033.0,3,phase_3,,,,,,,,green_square,go-1,green_square,go-1,red_square,0-SSD
,995.0,3,phase_3,,,,,,,,purple_square,go-2,purple_square,go-2,blue_square,tracking-SSD
,473.0,3,phase_3,,,,,,,,purple_square,go-2,red_square,0-SSD,purple_square,go-2
,535.0,3,phase_3,,,,,,,,blue_square,tracking-SSD,blue_square,tracking-SSD,red_square,0-SSD
,487.0,3,phase_3,,,,,,,,purple_square,go-2,purple_square,go-2,green_square,go-1
,403.0,3,phase_3,,,,,,,,green_square,go-1,red_square,0-SSD,green_square,go-1
,804.0,3,phase_3,,,,,,,,purple_square,go-2,blue_square,tracking-SSD,purple_square,go-2
,868.0,3,phase_3,,,,,,,,blue_square,tracking-SSD,blue_square,tracking-SSD,green_square,go-1
,746.0,4,phase_3,,,,,,,,purple_square,go-2,purple_square,go-2,red_square,0-SSD
,471.0,4,phase_3,,,,,,,,purple_square,go-2,green_square,go-1,purple_square,go-2
,479.0,4,phase_3,,,,,,,,blue_square,tracking-SSD,red_square,0-SSD,blue_square,tracking-SSD
,508.0,4,phase_3,,,,,,,,blue_square,tracking-SSD,green_square,go-1,blue_square,tracking-SSD
,1031.0,4,phase_3,,,,,,,,green_square,go-1,green_square,go-1,red_square,0-SSD
,657.0,4,phase_3,,,,,,,,purple_square,go-2,purple_square,go-2,blue_square,tracking-SSD
,595.0,4,phase_3,,,,,,,,blue_square,tracking-SSD,blue_square,tracking-SSD,red_square,0-SSD
,536.0,4,phase_3,,,,,,,,blue_square,tracking-SSD,blue_square,tracking-SSD,green_square,go-1
,768.0,4,phase_3,,,,,,,,purple_square,go-2,blue_square,tracking-SSD,purple_square,go-2
,897.0,4,phase_3,,,,,,,,green_square,go-1,red_square,0-SSD,green_square,go-1
,646.0,4,phase_3,,,,,,,,purple_square,go-2,purple_square,go-2,green_square,go-1
,742.0,4,phase_3,,,,,,,,purple_square,go-2,red_square,0-SSD,purple_square,go-2
,802.0,5,phase_3,,,,,,,,purple_square,go-2,purple_square,go-2,blue_square,tracking-SSD
,608.0,5,phase_3,,,,,,,,blue_square,tracking-SSD,red_square,0-SSD,blue_square,tracking-SSD
,986.0,5,phase_3,,,,,,,,green_square,go-1,green_square,go-1,red_square,0-SSD
,688.0,5,phase_3,,,,,,,,purple_square,go-2,green_square,go-1,purple_square,go-2
,741.0,5,phase_3,,,,,,,,blue_square,tracking-SSD,green_square,go-1,blue_square,tracking-SSD
,748.0,5,phase_3,,,,,,,,purple_square,go-2,purple_square,go-2,red_square,0-SSD
,1035.0,5,phase_3,,,,,,,,blue_square,tracking-SSD,blue_square,tracking-SSD,green_square,go-1
,592.0,5,phase_3,,,,,,,,purple_square,go-2,red_square,0-SSD,purple_square,go-2
,554.0,5,phase_3,,,,,,,,blue_square,tracking-SSD,blue_square,tracking-SSD,red_square,0-SSD
,448.0,5,phase_3,,,,,,,,blue_square,tracking-SSD,blue_square,tracking-SSD,purple_square,go-2
,557.0,5,phase_3,,,,,,,,purple_square,go-2,purple_square,go-2,green_square,go-1
,688.0,5,phase_3,,,,,,,,green_square,go-1,red_square,0-SSD,green_square,go-1
