response,reaction_time,block,which_phase,stim,stop_signal_trial_type,stop_signal_stimulus,SSD,SSD_type,condition,accuracy,chosen_stim,chosen_cond,stim_left,cond_left,stim_right,cond_right
1,532.0,1,phase_2,green_triangle,go,,,,go-2,1,,,,,,
2,799.0,1,phase_2,green_rhombus,go,,,,go-2,1,,,,,,
2,707.0,1,phase_2,green_rhombus,go,,,,go-2,1,,,,,,
2,649.0,1,phase_2,purple_rhombus,go,,,,go-1,1,,,,,,
2,421.0,1,phase_2,purple_rhombus,go,,,,go-1,1,,,,,,
2,498.0,1,phase_2,purple_circle,go,,,,go-1,1,,,,,,
0,0,1,phase_2,purple_rhombus,stop,red,250.0,tracking-SSD,go-1,4,,,,,,
0,0,1,phase_2,purple_rhombus,stop,blue,0.0,0-SSD,go-1,4,,,,,,
2,458.0,1,phase_2,green_circle,go,,,,go-2,1,,,,,,
2,354.0,1,phase_2,green_circle,go,,,,go-2,1,,,,,,
0,0,1,phase_2,green_rhombus,stop,blue,0.0,0-SSD,go-2,4,,,,,,
0,0,1,phase_2,purple_circle,stop,blue,0.0,0-SSD,go-1,4,,,,,,
2,395.0,1,phase_2,purple_circle,go,,,,go-1,1,,,,,,
1,495.0,1,phase_2,green_triangle,go,,,,go-2,1,,,,,,
1,357.0,1,phase_2,purple_triangle,go,,,,go-1,1,,,,,,
1,355.0,1,phase_2,purple_triangle,go,,,,go-1,1,,,,,,
0,0,1,phase_2,green_pentagon,stop,blue,0.0,0-SSD,go-2,4,,,,,,
0,0,1,phase_2,green_circle,stop,blue,0.0,0-SSD,go-2,4,,,,,,
2,573.0,1,phase_2,green_circle,stop,red,300.0,tracking-SSD,go-2,3,,,,,,
1,503.0,1,phase_2,purple_triangle,go,,,,go-1,1,,,,,,
1,478.0,1,phase_2,green_triangle,go,,,,go-2,1,,,,,,
1,374.0,1,phase_2,green_triangle,go,,,,go-2,1,,,,,,
2,507.0,1,phase_2,purple_pentagon,go,,,,go-1,2,,,,,,
2,527.0,1,phase_2,green_circle,go,,,,go-2,1,,,,,,
2,603.0,1,phase_2,green_rhombus,go,,,,go-2,1,,,,,,
2,590.0,1,phase_2,green_pentagon,go,,,,go-2,2,,,,,,
1,565.0,1,phase_2,purple_pentagon,go,,,,go-1,1,,,,,,
1,405.0,1,phase_2,purple_pentagon,go,,,,go-1,1,,,,,,
2,629.0,1,phase_2,purple_rhombus,stop,red,250.0,tracking-SSD,go-1,3,,,,,,
0,0,1,phase_2,green_circle,stop,red,200.0,tracking-SSD,go-2,4,,,,,,
1,961.0,1,phase_2,green_pentagon,go,,,,go-2,1,,,,,,
2,453.0,1,phase_2,purple_circle,go,,,,go-1,1,,,,,,
0,0,1,phase_2,purple_triangle,stop,red,250.0,tracking-SSD,go-1,4,,,,,,
0,0,1,phase_2,green_rhombus,stop,red,300.0,tracking-SSD,go-2,4,,,,,,
2,401.0,1,phase_2,purple_rhombus,stop,red,350.0,tracking-SSD,go-1,3,,,,,,
0,0,1,phase_2,purple_circle,stop,blue,0.0,0-SSD,go-1,4,,,,,,
2,532.0,1,phase_2,green_circle,go,,,,go-2,1,,,,,,
0,0,1,phase_2,green_triangle,stop,red,300.0,tracking-SSD,go-2,4,,,,,,
1,753.0,1,phase_2,purple_triangle,go,,,,go-1,1,,,,,,
1,346.0,1,phase_2,green_triangle,go,,,,go-2,1,,,,,,
2,580.0,1,phase_2,purple_rhombus,go,,,,go-1,1,,,,,,
0,0,1,phase_2,purple_pentagon,stop,blue,0.0,0-SSD,go-1,4,,,,,,
1,666.0,1,phase_2,purple_triangle,go,,,,go-1,1,,,,,,
1,720.0,1,phase_2,green_pentagon,go,,,,go-2,1,,,,,,
1,392.0,1,phase_2,purple_pentagon,go,,,,go-1,1,,,,,,
1,366.0,1,phase_2,green_pentagon,go,,,,go-2,1,,,,,,
0,0,1,phase_2,green_pentagon,stop,blue,0.0,0-SSD,go-2,4,,,,,,
1,384.0,1,phase_2,purple_pentagon,go,,,,go-1,1,,,,,,
2,431.0,2,phase_2,purple_circle,go,,,,go-1,1,,,,,,
0,0,2,phase_2,purple_circle,stop,blue,0.0,0-SSD,go-1,4,,,,,,
2,438.0,2,phase_2,purple_circle,go,,,,go-1,1,,,,,,
2,414.0,2,phase_2,green_circle,stop,red,350.0,tracking-SSD,go-2,3,,,,,,
1,559.0,2,phase_2,green_rhombus,go,,,,go-2,2,,,,,,
2,343.0,2,phase_2,green_rhombus,go,,,,go-2,1,,,,,,
1,565.0,2,phase_2,purple_triangle,go,,,,go-1,1,,,,,,
0,0,2,phase_2,purple_triangle,stop,blue,0.0,0-SSD,go-1,4,,,,,,
1,347.0,2,phase_2,purple_triangle,go,,,,go-1,1,,,,,,
1,367.0,2,phase_2,purple_triangle,stop,red,300.0,tracking-SSD,go-1,3,,,,,,
1,702.0,2,phase_2,green_pentagon,stop,red,250.0,tracking-SSD,go-2,3,,,,,,
1,578.0,2,phase_2,green_rhombus,go,,,,go-2,2,,,,,,
2,473.0,2,phase_2,purple_circle,go,,,,go-1,1,,,,,,
2,381.0,2,phase_2,green_pentagon,stop,red,200.0,tracking-SSD,go-2,3,,,,,,
1,605.0,2,phase_2,green_pentagon,go,,,,go-2,1,,,,,,
1,422.0,2,phase_2,green_pentagon,go,,,,go-2,1,,,,,,
1,419.0,2,phase_2,purple_pentagon,stop,red,150.0,tracking-SSD,go-1,3,,,,,,
2,462.0,2,phase_2,purple_circle,go,,,,go-1,1,,,,,,
2,505.0,2,phase_2,purple_pentagon,go,,,,go-1,2,,,,,,
2,459.0,2,phase_2,purple_circle,go,,,,go-1,1,,,,,,
2,479.0,2,phase_2,purple_circle,go,,,,go-1,1,,,,,,
0,0,2,phase_2,green_rhombus,stop,blue,0.0,0-SSD,go-2,4,,,,,,
2,463.0,2,phase_2,green_rhombus,go,,,,go-2,1,,,,,,
2,381.0,2,phase_2,purple_triangle,go,,,,go-1,2,,,,,,
0,0,2,phase_2,purple_circle,stop,blue,0.0,0-SSD,go-1,4,,,,,,
2,523.0,2,phase_2,green_circle,go,,,,go-2,1,,,,,,
2,565.0,2,phase_2,green_circle,go,,,,go-2,1,,,,,,
1,518.0,2,phase_2,purple_triangle,go,,,,go-1,1,,,,,,
0,0,2,phase_2,purple_pentagon,stop,red,100.0,tracking-SSD,go-1,4,,,,,,
2,963.0,2,phase_2,purple_rhombus,go,,,,go-1,1,,,,,,
2,488.0,2,phase_2,green_rhombus,go,,,,go-2,1,,,,,,
1,688.0,2,phase_2,purple_pentagon,go,,,,go-1,1,,,,,,
1,506.0,2,phase_2,green_triangle,go,,,,go-2,1,,,,,,
1,358.0,2,phase_2,green_triangle,stop,red,150.0,tracking-SSD,go-2,3,,,,,,
2,636.0,2,phase_2,green_rhombus,go,,,,go-2,1,,,,,,
1,500.0,2,phase_2,green_triangle,go,,,,go-2,1,,,,,,
1,351.0,2,phase_2,green_triangle,go,,,,go-2,1,,,,,,
1,485.0,2,phase_2,purple_rhombus,go,,,,go-1,2,,,,,,
2,450.0,2,phase_2,green_circle,go,,,,go-2,1,,,,,,
2,605.0,2,phase_2,green_rhombus,go,,,,go-2,1,,,,,,
0,0,2,phase_2,green_pentagon,stop,blue,0.0,0-SSD,go-2,4,,,,,,
0,0,2,phase_2,purple_triangle,stop,blue,0.0,0-SSD,go-1,4,,,,,,
1,542.0,2,phase_2,purple_triangle,go,,,,go-1,1,,,,,,
2,528.0,2,phase_2,purple_rhombus,go,,,,go-1,1,,,,,,
2,571.0,2,phase_2,green_rhombus,go,,,,go-2,1,,,,,,
0,0,2,phase_2,purple_pentagon,stop,red,100.0,tracking-SSD,go-1,4,,,,,,
0,0,2,phase_2,green_pentagon,stop,blue,0.0,0-SSD,go-2,4,,,,,,
0,0,2,phase_2,green_pentagon,stop,blue,0.0,0-SSD,go-2,4,,,,,,
1,510.0,3,phase_2,green_triangle,go,,,,go-2,1,,,,,,
1,743.0,3,phase_2,green_pentagon,go,,,,go-2,1,,,,,,
0,0,3,phase_2,purple_rhombus,stop,blue,0.0,0-SSD,go-1,4,,,,,,
1,357.0,3,phase_2,green_triangle,stop,red,150.0,tracking-SSD,go-2,3,,,,,,
2,480.0,3,phase_2,purple_circle,go,,,,go-1,1,,,,,,
2,658.0,3,phase_2,purple_rhombus,go,,,,go-1,1,,,,,,
0,0,3,phase_2,purple_circle,stop,red,100.0,tracking-SSD,go-1,4,,,,,,
1,619.0,3,phase_2,purple_triangle,go,,,,go-1,1,,,,,,
1,526.0,3,phase_2,purple_pentagon,go,,,,go-1,1,,,,,,
2,468.0,3,phase_2,green_circle,go,,,,go-2,1,,,,,,
1,477.0,3,phase_2,purple_triangle,go,,,,go-1,1,,,,,,
1,384.0,3,phase_2,green_triangle,go,,,,go-2,1,,,,,,
0,0,3,phase_2,purple_rhombus,stop,red,150.0,tracking-SSD,go-1,4,,,,,,
2,358.0,3,phase_2,green_pentagon,go,,,,go-2,2,,,,,,
1,560.0,3,phase_2,purple_triangle,stop,red,200.0,tracking-SSD,go-1,3,,,,,,
0,0,3,phase_2,purple_pentagon,stop,blue,0.0,0-SSD,go-1,4,,,,,,
1,531.0,3,phase_2,green_triangle,go,,,,go-2,1,,,,,,
0,0,3,phase_2,purple_circle,stop,blue,0.0,0-SSD,go-1,4,,,,,,
2,515.0,3,phase_2,purple_circle,go,,,,go-1,1,,,,,,
2,660.0,3,phase_2,purple_rhombus,go,,,,go-1,1,,,,,,
0,0,3,phase_2,green_triangle,stop,red,150.0,tracking-SSD,go-2,4,,,,,,
1,803.0,3,phase_2,green_pentagon,go,,,,go-2,1,,,,,,
0,0,3,phase_2,green_pentagon,stop,blue,0.0,0-SSD,go-2,4,,,,,,
0,0,3,phase_2,green_circle,stop,red,200.0,tracking-SSD,go-2,4,,,,,,
2,661.0,3,phase_2,purple_rhombus,go,,,,go-1,1,,,,,,
2,671.0,3,phase_2,green_rhombus,go,,,,go-2,1,,,,,,
2,399.0,3,phase_2,green_rhombus,stop,red,250.0,tracking-SSD,go-2,3,,,,,,
0,0,3,phase_2,green_pentagon,stop,blue,0.0,0-SSD,go-2,4,,,,,,
2,721.0,3,phase_2,green_rhombus,go,,,,go-2,1,,,,,,
2,550.0,3,phase_2,purple_circle,go,,,,go-1,1,,,,,,
2,490.0,3,phase_2,green_rhombus,go,,,,go-2,1,,,,,,
0,0,3,phase_2,green_pentagon,stop,blue,0.0,0-SSD,go-2,4,,,,,,
2,553.0,3,phase_2,purple_rhombus,go,,,,go-1,1,,,,,,
2,461.0,3,phase_2,purple_rhombus,go,,,,go-1,1,,,,,,
2,437.0,3,phase_2,purple_pentagon,stop,red,200.0,tracking-SSD,go-1,3,,,,,,
1,625.0,3,phase_2,purple_triangle,go,,,,go-1,1,,,,,,
1,600.0,3,phase_2,green_triangle,go,,,,go-2,1,,,,,,
1,509.0,3,phase_2,green_pentagon,go,,,,go-2,1,,,,,,
1,372.0,3,phase_2,green_pentagon,go,,,,go-2,1,,,,,,
2,641.0,3,phase_2,purple_rhombus,go,,,,go-1,1,,,,,,
1,469.0,3,phase_2,green_pentagon,go,,,,go-2,1,,,,,,
1,512.0,3,phase_2,purple_triangle,go,,,,go-1,1,,,,,,
0,0,3,phase_2,purple_circle,stop,blue,0.0,0-SSD,go-1,4,,,,,,
1,564.0,3,phase_2,green_triangle,go,,,,go-2,1,,,,,,
0,0,3,phase_2,green_circle,stop,blue,0.0,0-SSD,go-2,4,,,,,,
2,447.0,3,phase_2,green_circle,go,,,,go-2,1,,,,,,
2,422.0,3,phase_2,purple_circle,go,,,,go-1,1,,,,,,
2,329.0,3,phase_2,purple_circle,go,,,,go-1,1,,,,,,
1,589.0,4,phase_2,purple_triangle,go,,,,go-1,1,,,,,,
2,441.0,4,phase_2,purple_pentagon,go,,,,go-1,2,,,,,,
1,484.0,4,phase_2,green_triangle,go,,,,go-2,1,,,,,,
0,0,4,phase_2,purple_pentagon,stop,blue,0.0,0-SSD,go-1,4,,,,,,
1,367.0,4,phase_2,green_triangle,go,,,,go-2,1,,,,,,
1,510.0,4,phase_2,green_pentagon,go,,,,go-2,1,,,,,,
2,396.0,4,phase_2,green_circle,go,,,,go-2,1,,,,,,
1,472.0,4,phase_2,purple_rhombus,go,,,,go-1,2,,,,,,
1,379.0,4,phase_2,green_triangle,go,,,,go-2,1,,,,,,
1,345.0,4,phase_2,purple_triangle,go,,,,go-1,1,,,,,,
2,647.0,4,phase_2,green_pentagon,go,,,,go-2,2,,,,,,
0,0,4,phase_2,purple_rhombus,stop,red,150.0,tracking-SSD,go-1,4,,,,,,
2,507.0,4,phase_2,green_circle,go,,,,go-2,1,,,,,,
1,786.0,4,phase_2,purple_rhombus,go,,,,go-1,2,,,,,,
2,729.0,4,phase_2,green_rhombus,go,,,,go-2,1,,,,,,
1,760.0,4,phase_2,green_pentagon,go,,,,go-2,1,,,,,,
2,500.0,4,phase_2,purple_circle,go,,,,go-1,1,,,,,,
1,486.0,4,phase_2,purple_triangle,go,,,,go-1,1,,,,,,
1,730.0,4,phase_2,green_pentagon,stop,red,200.0,tracking-SSD,go-2,3,,,,,,
1,493.0,4,phase_2,purple_pentagon,go,,,,go-1,1,,,,,,
0,0,4,phase_2,green_rhombus,stop,blue,0.0,0-SSD,go-2,4,,,,,,
2,712.0,4,phase_2,purple_rhombus,go,,,,go-1,1,,,,,,
1,620.0,4,phase_2,purple_triangle,go,,,,go-1,1,,,,,,
1,348.0,4,phase_2,green_triangle,go,,,,go-2,1,,,,,,
2,526.0,4,phase_2,green_circle,go,,,,go-2,1,,,,,,
2,625.0,4,phase_2,green_rhombus,go,,,,go-2,1,,,,,,
0,0,4,phase_2,purple_rhombus,stop,red,150.0,tracking-SSD,go-1,4,,,,,,
0,0,4,phase_2,green_rhombus,stop,red,200.0,tracking-SSD,go-2,4,,,,,,
1,440.0,4,phase_2,purple_pentagon,go,,,,go-1,1,,,,,,
2,460.0,4,phase_2,purple_circle,go,,,,go-1,1,,,,,,
0,0,4,phase_2,purple_rhombus,stop,blue,0.0,0-SSD,go-1,4,,,,,,
0,0,4,phase_2,green_pentagon,go,,,,go-2,2,,,,,,
2,678.0,4,phase_2,purple_rhombus,go,,,,go-1,1,,,,,,
2,721.0,4,phase_2,purple_rhombus,go,,,,go-1,1,,,,,,
0,0,4,phase_2,green_circle,stop,blue,0.0,0-SSD,go-2,4,,,,,,
1,493.0,4,phase_2,green_triangle,stop,red,250.0,tracking-SSD,go-2,3,,,,,,
0,0,4,phase_2,green_circle,stop,blue,0.0,0-SSD,go-2,4,,,,,,
2,511.0,4,phase_2,green_circle,stop,red,200.0,tracking-SSD,go-2,3,,,,,,
1,463.0,4,phase_2,green_triangle,go,,,,go-2,1,,,,,,
1,730.0,4,phase_2,green_pentagon,go,,,,go-2,1,,,,,,
1,526.0,4,phase_2,purple_triangle,go,,,,go-1,1,,,,,,
0,0,4,phase_2,purple_pentagon,stop,blue,0.0,0-SSD,go-1,4,,,,,,
0,0,4,phase_2,green_triangle,stop,blue,0.0,0-SSD,go-2,4,,,,,,
0,0,4,phase_2,purple_circle,stop,red,150.0,tracking-SSD,go-1,4,,,,,,
0,0,4,phase_2,purple_pentagon,stop,blue,0.0,0-SSD,go-1,4,,,,,,
2,472.0,4,phase_2,purple_circle,go,,,,go-1,1,,,,,,
2,367.0,4,phase_2,purple_circle,stop,red,200.0,tracking-SSD,go-1,3,,,,,,
2,455.0,4,phase_2,green_circle,go,,,,go-2,1,,,,,,
2,420.0,5,phase_2,purple_circle,go,,,,go-1,1,,,,,,
1,463.0,5,phase_2,purple_pentagon,go,,,,go-1,1,,,,,,
1,539.0,5,phase_2,green_pentagon,go,,,,go-2,1,,,,,,
2,391.0,5,phase_2,green_circle,stop,red,150.0,tracking-SSD,go-2,3,,,,,,
2,378.0,5,phase_2,green_circle,go,,,,go-2,1,,,,,,
2,443.0,5,phase_2,purple_circle,go,,,,go-1,1,,,,,,
2,294.0,5,phase_2,purple_pentagon,go,,,,go-1,2,,,,,,
1,540.0,5,phase_2,purple_pentagon,go,,,,go-1,1,,,,,,
2,517.0,5,phase_2,purple_circle,go,,,,go-1,1,,,,,,
1,491.0,5,phase_2,purple_rhombus,go,,,,go-1,2,,,,,,
0,0,5,phase_2,green_rhombus,stop,blue,0.0,0-SSD,go-2,4,,,,,,
1,543.0,5,phase_2,green_triangle,go,,,,go-2,1,,,,,,
2,394.0,5,phase_2,purple_circle,go,,,,go-1,1,,,,,,
1,426.0,5,phase_2,green_triangle,go,,,,go-2,1,,,,,,
2,356.0,5,phase_2,green_circle,go,,,,go-2,1,,,,,,
0,0,5,phase_2,green_pentagon,stop,red,100.0,tracking-SSD,go-2,4,,,,,,
1,510.0,5,phase_2,purple_rhombus,go,,,,go-1,2,,,,,,
2,451.0,5,phase_2,green_pentagon,go,,,,go-2,2,,,,,,
1,483.0,5,phase_2,green_rhombus,go,,,,go-2,2,,,,,,
0,0,5,phase_2,green_rhombus,stop,blue,0.0,0-SSD,go-2,4,,,,,,
2,445.0,5,phase_2,purple_circle,go,,,,go-1,1,,,,,,
2,521.0,5,phase_2,purple_rhombus,go,,,,go-1,1,,,,,,
2,532.0,5,phase_2,green_circle,go,,,,go-2,1,,,,,,
0,0,5,phase_2,green_triangle,stop,blue,0.0,0-SSD,go-2,4,,,,,,
2,470.0,5,phase_2,purple_circle,go,,,,go-1,1,,,,,,
2,682.0,5,phase_2,green_rhombus,go,,,,go-2,1,,,,,,
0,0,5,phase_2,purple_pentagon,stop,blue,0.0,0-SSD,go-1,4,,,,,,
0,0,5,phase_2,purple_rhombus,stop,blue,0.0,0-SSD,go-1,4,,,,,,
1,471.0,5,phase_2,green_triangle,go,,,,go-2,1,,,,,,
2,503.0,5,phase_2,purple_rhombus,go,,,,go-1,1,,,,,,
1,625.0,5,phase_2,purple_pentagon,go,,,,go-1,1,,,,,,
0,0,5,phase_2,green_pentagon,stop,red,150.0,tracking-SSD,go-2,4,,,,,,
1,642.0,5,phase_2,green_pentagon,go,,,,go-2,1,,,,,,
0,0,5,phase_2,green_triangle,stop,blue,0.0,0-SSD,go-2,4,,,,,,
0,0,5,phase_2,purple_triangle,stop,blue,0.0,0-SSD,go-1,4,,,,,,
2,479.0,5,phase_2,green_circle,stop,red,200.0,tracking-SSD,go-2,3,,,,,,
2,442.0,5,phase_2,purple_circle,go,,,,go-1,1,,,,,,
1,474.0,5,phase_2,green_triangle,go,,,,go-2,1,,,,,,
0,0,5,phase_2,purple_pentagon,stop,red,150.0,tracking-SSD,go-1,4,,,,,,
1,424.0,5,phase_2,green_triangle,go,,,,go-2,1,,,,,,
1,388.0,5,phase_2,green_triangle,go,,,,go-2,1,,,,,,
1,340.0,5,phase_2,purple_triangle,stop,red,200.0,tracking-SSD,go-1,3,,,,,,
1,338.0,5,phase_2,purple_triangle,stop,red,150.0,tracking-SSD,go-1,3,,,,,,
1,369.0,5,phase_2,green_rhombus,go,,,,go-2,2,,,,,,
0,0,5,phase_2,purple_rhombus,stop,blue,0.0,0-SSD,go-1,4,,,,,,
1,611.0,5,phase_2,purple_pentagon,go,,,,go-1,1,,,,,,
0,0,5,phase_2,purple_triangle,stop,red,100.0,tracking-SSD,go-1,4,,,,,,
2,618.0,5,phase_2,green_rhombus,go,,,,go-2,1,,,,,,
0,0,6,phase_2,purple_triangle,stop,blue,0.0,0-SSD,go-1,4,,,,,,
1,633.0,6,phase_2,purple_pentagon,go,,,,go-1,1,,,,,,
2,518.0,6,phase_2,purple_rhombus,stop,red,150.0,tracking-SSD,go-1,3,,,,,,
0,0,6,phase_2,purple_circle,stop,blue,0.0,0-SSD,go-1,4,,,,,,
1,626.0,6,phase_2,purple_rhombus,go,,,,go-1,2,,,,,,
2,465.0,6,phase_2,purple_circle,go,,,,go-1,1,,,,,,
1,384.0,6,phase_2,purple_pentagon,go,,,,go-1,1,,,,,,
2,471.0,6,phase_2,green_pentagon,go,,,,go-2,2,,,,,,
1,558.0,6,phase_2,green_pentagon,stop,red,100.0,tracking-SSD,go-2,3,,,,,,
2,636.0,6,phase_2,green_rhombus,go,,,,go-2,1,,,,,,
1,599.0,6,phase_2,green_pentagon,go,,,,go-2,1,,,,,,
1,395.0,6,phase_2,purple_rhombus,go,,,,go-1,2,,,,,,
0,0,6,phase_2,purple_rhombus,stop,blue,0.0,0-SSD,go-1,4,,,,,,
2,367.0,6,phase_2,green_rhombus,go,,,,go-2,1,,,,,,
0,0,6,phase_2,purple_rhombus,stop,red,50.0,tracking-SSD,go-1,4,,,,,,
1,555.0,6,phase_2,green_triangle,go,,,,go-2,1,,,,,,
2,496.0,6,phase_2,purple_pentagon,go,,,,go-1,2,,,,,,
1,539.0,6,phase_2,purple_pentagon,go,,,,go-1,1,,,,,,
2,401.0,6,phase_2,purple_circle,go,,,,go-1,1,,,,,,
0,0,6,phase_2,green_circle,stop,red,100.0,tracking-SSD,go-2,4,,,,,,
2,520.0,6,phase_2,green_circle,go,,,,go-2,1,,,,,,
0,0,6,phase_2,green_triangle,stop,blue,0.0,0-SSD,go-2,4,,,,,,
1,360.0,6,phase_2,purple_triangle,go,,,,go-1,1,,,,,,
1,583.0,6,phase_2,green_pentagon,go,,,,go-2,1,,,,,,
0,0,6,phase_2,purple_rhombus,stop,red,150.0,tracking-SSD,go-1,4,,,,,,
1,567.0,6,phase_2,green_pentagon,go,,,,go-2,1,,,,,,
1,553.0,6,phase_2,green_triangle,go,,,,go-2,1,,,,,,
2,450.0,6,phase_2,green_circle,go,,,,go-2,1,,,,,,
1,470.0,6,phase_2,purple_triangle,go,,,,go-1,1,,,,,,
0,0,6,phase_2,green_triangle,stop,blue,0.0,0-SSD,go-2,4,,,,,,
2,466.0,6,phase_2,green_circle,go,,,,go-2,1,,,,,,
1,464.0,6,phase_2,purple_triangle,stop,red,200.0,tracking-SSD,go-1,3,,,,,,
1,665.0,6,phase_2,purple_rhombus,go,,,,go-1,2,,,,,,
1,515.0,6,phase_2,green_pentagon,go,,,,go-2,1,,,,,,
0,0,6,phase_2,green_triangle,stop,red,150.0,tracking-SSD,go-2,4,,,,,,
0,0,6,phase_2,green_circle,stop,blue,0.0,0-SSD,go-2,4,,,,,,
2,735.0,6,phase_2,purple_pentagon,go,,,,go-1,2,,,,,,
2,644.0,6,phase_2,purple_rhombus,go,,,,go-1,1,,,,,,
0,0,6,phase_2,purple_circle,stop,blue,0.0,0-SSD,go-1,4,,,,,,
2,458.0,6,phase_2,green_circle,go,,,,go-2,1,,,,,,
2,367.0,6,phase_2,purple_circle,go,,,,go-1,1,,,,,,
1,546.0,6,phase_2,green_pentagon,go,,,,go-2,1,,,,,,
2,600.0,6,phase_2,purple_rhombus,go,,,,go-1,1,,,,,,
1,473.0,6,phase_2,green_triangle,go,,,,go-2,1,,,,,,
0,0,6,phase_2,green_triangle,stop,blue,0.0,0-SSD,go-2,4,,,,,,
2,434.0,6,phase_2,green_circle,go,,,,go-2,1,,,,,,
1,454.0,6,phase_2,purple_triangle,go,,,,go-1,1,,,,,,
0,0,6,phase_2,green_rhombus,stop,red,200.0,tracking-SSD,go-2,4,,,,,,
1,667.0,7,phase_2,purple_rhombus,go,,,,go-1,2,,,,,,
2,462.0,7,phase_2,green_circle,go,,,,go-2,1,,,,,,
1,617.0,7,phase_2,purple_pentagon,stop,red,250.0,tracking-SSD,go-1,3,,,,,,
2,480.0,7,phase_2,green_rhombus,go,,,,go-2,1,,,,,,
1,624.0,7,phase_2,purple_pentagon,go,,,,go-1,1,,,,,,
0,0,7,phase_2,purple_triangle,stop,blue,0.0,0-SSD,go-1,4,,,,,,
2,440.0,7,phase_2,purple_circle,go,,,,go-1,1,,,,,,
0,0,7,phase_2,green_rhombus,stop,blue,0.0,0-SSD,go-2,4,,,,,,
1,481.0,7,phase_2,green_triangle,go,,,,go-2,1,,,,,,
1,377.0,7,phase_2,purple_triangle,go,,,,go-1,1,,,,,,
0,0,7,phase_2,purple_triangle,stop,blue,0.0,0-SSD,go-1,4,,,,,,
0,0,7,phase_2,purple_circle,stop,blue,0.0,0-SSD,go-1,4,,,,,,
1,459.0,7,phase_2,green_rhombus,go,,,,go-2,2,,,,,,
1,558.0,7,phase_2,purple_triangle,go,,,,go-1,1,,,,,,
2,635.0,7,phase_2,purple_rhombus,go,,,,go-1,1,,,,,,
2,553.0,7,phase_2,purple_rhombus,stop,red,200.0,tracking-SSD,go-1,3,,,,,,
1,460.0,7,phase_2,purple_circle,go,,,,go-1,2,,,,,,
2,548.0,7,phase_2,purple_circle,stop,red,150.0,tracking-SSD,go-1,3,,,,,,
2,579.0,7,phase_2,green_pentagon,go,,,,go-2,2,,,,,,
2,397.0,7,phase_2,green_pentagon,go,,,,go-2,2,,,,,,
1,563.0,7,phase_2,purple_pentagon,go,,,,go-1,1,,,,,,
2,651.0,7,phase_2,purple_rhombus,go,,,,go-1,1,,,,,,
2,479.0,7,phase_2,green_circle,go,,,,go-2,1,,,,,,
1,375.0,7,phase_2,green_triangle,go,,,,go-2,1,,,,,,
0,0,7,phase_2,green_pentagon,stop,red,100.0,tracking-SSD,go-2,4,,,,,,
2,439.0,7,phase_2,green_rhombus,go,,,,go-2,1,,,,,,
0,0,7,phase_2,green_pentagon,stop,red,150.0,tracking-SSD,go-2,4,,,,,,
0,0,7,phase_2,green_pentagon,stop,red,200.0,tracking-SSD,go-2,4,,,,,,
1,533.0,7,phase_2,green_triangle,go,,,,go-2,1,,,,,,
0,0,7,phase_2,green_rhombus,stop,red,250.0,tracking-SSD,go-2,4,,,,,,
0,0,7,phase_2,green_circle,stop,blue,0.0,0-SSD,go-2,4,,,,,,
1,493.0,7,phase_2,green_triangle,go,,,,go-2,1,,,,,,
2,501.0,7,phase_2,purple_circle,go,,,,go-1,1,,,,,,
2,509.0,7,phase_2,purple_circle,go,,,,go-1,1,,,,,,
2,349.0,7,phase_2,purple_circle,go,,,,go-1,1,,,,,,
1,425.0,7,phase_2,purple_triangle,stop,red,300.0,tracking-SSD,go-1,3,,,,,,
2,445.0,7,phase_2,green_circle,go,,,,go-2,1,,,,,,
1,364.0,7,phase_2,green_triangle,go,,,,go-2,1,,,,,,
0,0,7,phase_2,green_pentagon,stop,blue,0.0,0-SSD,go-2,4,,,,,,
2,393.0,7,phase_2,purple_pentagon,go,,,,go-1,2,,,,,,
2,369.0,7,phase_2,green_triangle,go,,,,go-2,2,,,,,,
2,592.0,7,phase_2,green_rhombus,go,,,,go-2,1,,,,,,
2,454.0,7,phase_2,purple_pentagon,go,,,,go-1,2,,,,,,
0,0,7,phase_2,purple_rhombus,stop,blue,0.0,0-SSD,go-1,4,,,,,,
1,587.0,7,phase_2,purple_pentagon,go,,,,go-1,1,,,,,,
1,528.0,7,phase_2,green_triangle,go,,,,go-2,1,,,,,,
0,0,7,phase_2,green_rhombus,stop,blue,0.0,0-SSD,go-2,4,,,,,,
2,456.0,7,phase_2,purple_circle,go,,,,go-1,1,,,,,,
0,0,8,phase_2,green_rhombus,stop,red,250.0,tracking-SSD,go-2,4,,,,,,
2,530.0,8,phase_2,purple_circle,stop,red,300.0,tracking-SSD,go-1,3,,,,,,
2,494.0,8,phase_2,purple_circle,go,,,,go-1,1,,,,,,
0,0,8,phase_2,purple_pentagon,stop,blue,0.0,0-SSD,go-1,4,,,,,,
1,466.0,8,phase_2,green_triangle,go,,,,go-2,1,,,,,,
2,442.0,8,phase_2,green_circle,go,,,,go-2,1,,,,,,
2,383.0,8,phase_2,purple_circle,go,,,,go-1,1,,,,,,
2,335.0,8,phase_2,purple_circle,go,,,,go-1,1,,,,,,
1,468.0,8,phase_2,purple_triangle,go,,,,go-1,1,,,,,,
0,0,8,phase_2,purple_triangle,stop,blue,0.0,0-SSD,go-1,4,,,,,,
1,599.0,8,phase_2,purple_pentagon,go,,,,go-1,1,,,,,,
1,406.0,8,phase_2,green_pentagon,stop,red,250.0,tracking-SSD,go-2,3,,,,,,
1,415.0,8,phase_2,purple_triangle,go,,,,go-1,1,,,,,,
1,390.0,8,phase_2,purple_triangle,go,,,,go-1,1,,,,,,
1,320.0,8,phase_2,green_triangle,stop,red,200.0,tracking-SSD,go-2,3,,,,,,
2,397.0,8,phase_2,green_circle,go,,,,go-2,1,,,,,,
0,0,8,phase_2,green_pentagon,stop,blue,0.0,0-SSD,go-2,4,,,,,,
1,560.0,8,phase_2,green_rhombus,go,,,,go-2,2,,,,,,
0,0,8,phase_2,purple_rhombus,stop,red,150.0,tracking-SSD,go-1,4,,,,,,
2,737.0,8,phase_2,green_rhombus,go,,,,go-2,1,,,,,,
2,465.0,8,phase_2,purple_circle,stop,red,200.0,tracking-SSD,go-1,3,,,,,,
2,574.0,8,phase_2,green_rhombus,go,,,,go-2,1,,,,,,
2,404.0,8,phase_2,green_rhombus,go,,,,go-2,1,,,,,,
2,402.0,8,phase_2,green_rhombus,go,,,,go-2,1,,,,,,
2,490.0,8,phase_2,purple_circle,go,,,,go-1,1,,,,,,
2,465.0,8,phase_2,green_rhombus,go,,,,go-2,1,,,,,,
2,374.0,8,phase_2,purple_pentagon,stop,red,150.0,tracking-SSD,go-1,3,,,,,,
1,449.0,8,phase_2,purple_pentagon,go,,,,go-1,1,,,,,,
0,0,8,phase_2,green_circle,stop,blue,0.0,0-SSD,go-2,4,,,,,,
1,613.0,8,phase_2,green_pentagon,go,,,,go-2,1,,,,,,
1,543.0,8,phase_2,green_triangle,go,,,,go-2,1,,,,,,
0,0,8,phase_2,green_pentagon,stop,blue,0.0,0-SSD,go-2,4,,,,,,
1,369.0,8,phase_2,green_triangle,go,,,,go-2,1,,,,,,
1,535.0,8,phase_2,green_pentagon,go,,,,go-2,1,,,,,,
2,454.0,8,phase_2,green_circle,go,,,,go-2,1,,,,,,
2,496.0,8,phase_2,purple_pentagon,go,,,,go-1,2,,,,,,
2,585.0,8,phase_2,purple_rhombus,go,,,,go-1,1,,,,,,
2,448.0,8,phase_2,purple_circle,go,,,,go-1,1,,,,,,
0,0,8,phase_2,green_triangle,stop,red,100.0,tracking-SSD,go-2,4,,,,,,
1,478.0,8,phase_2,purple_triangle,go,,,,go-1,1,,,,,,
1,622.0,8,phase_2,green_pentagon,go,,,,go-2,1,,,,,,
0,0,8,phase_2,green_triangle,stop,blue,0.0,0-SSD,go-2,4,,,,,,
1,562.0,8,phase_2,purple_rhombus,go,,,,go-1,2,,,,,,
0,0,8,phase_2,purple_rhombus,stop,blue,0.0,0-SSD,go-1,4,,,,,,
1,489.0,8,phase_2,purple_triangle,go,,,,go-1,1,,,,,,
1,576.0,8,phase_2,purple_pentagon,go,,,,go-1,1,,,,,,
2,462.0,8,phase_2,green_circle,go,,,,go-2,1,,,,,,
0,0,8,phase_2,purple_rhombus,stop,blue,0.0,0-SSD,go-1,4,,,,,,
1,589.0,9,phase_2,purple_pentagon,go,,,,go-1,1,,,,,,
0,0,9,phase_2,green_rhombus,stop,red,150.0,tracking-SSD,go-2,4,,,,,,
1,405.0,9,phase_2,purple_pentagon,stop,red,200.0,tracking-SSD,go-1,3,,,,,,
1,526.0,9,phase_2,purple_triangle,go,,,,go-1,1,,,,,,
0,0,9,phase_2,purple_triangle,stop,blue,0.0,0-SSD,go-1,4,,,,,,
0,0,9,phase_2,purple_triangle,stop,blue,0.0,0-SSD,go-1,4,,,,,,
2,394.0,9,phase_2,green_circle,go,,,,go-2,1,,,,,,
2,370.0,9,phase_2,purple_circle,go,,,,go-1,1,,,,,,
2,356.0,9,phase_2,green_circle,go,,,,go-2,1,,,,,,
1,534.0,9,phase_2,green_rhombus,go,,,,go-2,2,,,,,,
1,576.0,9,phase_2,green_pentagon,go,,,,go-2,1,,,,,,
1,405.0,9,phase_2,green_pentagon,go,,,,go-2,1,,,,,,
1,390.0,9,phase_2,purple_pentagon,go,,,,go-1,1,,,,,,
2,410.0,9,phase_2,green_circle,go,,,,go-2,1,,,,,,
2,713.0,9,phase_2,green_rhombus,go,,,,go-2,1,,,,,,
0,0,9,phase_2,purple_rhombus,stop,blue,0.0,0-SSD,go-1,4,,,,,,
0,0,9,phase_2,green_pentagon,stop,blue,0.0,0-SSD,go-2,4,,,,,,
2,595.0,9,phase_2,purple_rhombus,go,,,,go-1,1,,,,,,
2,424.0,9,phase_2,purple_rhombus,go,,,,go-1,1,,,,,,
2,354.0,9,phase_2,purple_rhombus,go,,,,go-1,1,,,,,,
1,442.0,9,phase_2,purple_triangle,go,,,,go-1,1,,,,,,
1,384.0,9,phase_2,green_pentagon,stop,red,150.0,tracking-SSD,go-2,3,,,,,,
2,381.0,9,phase_2,purple_circle,go,,,,go-1,1,,,,,,
1,458.0,9,phase_2,purple_triangle,go,,,,go-1,1,,,,,,
2,399.0,9,phase_2,purple_circle,stop,red,100.0,tracking-SSD,go-1,3,,,,,,
0,0,9,phase_2,green_circle,stop,blue,0.0,0-SSD,go-2,4,,,,,,
1,439.0,9,phase_2,purple_triangle,go,,,,go-1,1,,,,,,
2,988.0,9,phase_2,green_rhombus,go,,,,go-2,1,,,,,,
2,558.0,9,phase_2,green_circle,go,,,,go-2,1,,,,,,
0,0,9,phase_2,green_pentagon,stop,blue,0.0,0-SSD,go-2,4,,,,,,
1,577.0,9,phase_2,purple_pentagon,go,,,,go-1,1,,,,,,
0,0,9,phase_2,green_triangle,stop,red,50.0,tracking-SSD,go-2,4,,,,,,
1,382.0,9,phase_2,green_triangle,go,,,,go-2,1,,,,,,
2,469.0,9,phase_2,purple_circle,go,,,,go-1,1,,,,,,
1,523.0,9,phase_2,green_pentagon,go,,,,go-2,1,,,,,,
1,363.0,9,phase_2,green_pentagon,go,,,,go-2,1,,,,,,
0,0,9,phase_2,purple_triangle,stop,red,100.0,tracking-SSD,go-1,4,,,,,,
2,639.0,9,phase_2,purple_rhombus,go,,,,go-1,1,,,,,,
0,0,9,phase_2,green_circle,stop,blue,0.0,0-SSD,go-2,4,,,,,,
2,432.0,9,phase_2,purple_circle,go,,,,go-1,1,,,,,,
1,453.0,9,phase_2,green_triangle,stop,red,150.0,tracking-SSD,go-2,3,,,,,,
2,440.0,9,phase_2,green_rhombus,go,,,,go-2,1,,,,,,
2,720.0,9,phase_2,purple_rhombus,go,,,,go-1,1,,,,,,
0,0,9,phase_2,purple_rhombus,stop,blue,0.0,0-SSD,go-1,4,,,,,,
2,455.0,9,phase_2,green_circle,go,,,,go-2,1,,,,,,
0,0,9,phase_2,purple_pentagon,stop,red,100.0,tracking-SSD,go-1,4,,,,,,
1,438.0,9,phase_2,green_triangle,go,,,,go-2,1,,,,,,
1,380.0,9,phase_2,green_triangle,go,,,,go-2,1,,,,,,
1,512.0,10,phase_2,purple_triangle,go,,,,go-1,1,,,,,,
2,634.0,10,phase_2,purple_rhombus,go,,,,go-1,1,,,,,,
0,0,10,phase_2,green_pentagon,stop,blue,0.0,0-SSD,go-2,4,,,,,,
0,0,10,phase_2,purple_circle,stop,blue,0.0,0-SSD,go-1,4,,,,,,
0,0,10,phase_2,green_pentagon,stop,red,150.0,tracking-SSD,go-2,4,,,,,,
1,603.0,10,phase_2,purple_pentagon,go,,,,go-1,1,,,,,,
1,499.0,10,phase_2,green_rhombus,go,,,,go-2,2,,,,,,
0,0,10,phase_2,green_triangle,stop,blue,0.0,0-SSD,go-2,4,,,,,,
1,460.0,10,phase_2,green_triangle,go,,,,go-2,1,,,,,,
1,379.0,10,phase_2,green_triangle,go,,,,go-2,1,,,,,,
0,0,10,phase_2,purple_rhombus,stop,blue,0.0,0-SSD,go-1,4,,,,,,
0,0,10,phase_2,green_triangle,stop,blue,0.0,0-SSD,go-2,4,,,,,,
2,464.0,10,phase_2,green_pentagon,go,,,,go-2,2,,,,,,
2,472.0,10,phase_2,purple_circle,go,,,,go-1,1,,,,,,
2,335.0,10,phase_2,purple_circle,go,,,,go-1,1,,,,,,
1,491.0,10,phase_2,green_pentagon,go,,,,go-2,1,,,,,,
2,388.0,10,phase_2,purple_circle,go,,,,go-1,1,,,,,,
0,0,10,phase_2,purple_circle,stop,blue,0.0,0-SSD,go-1,4,,,,,,
2,743.0,10,phase_2,purple_rhombus,go,,,,go-1,1,,,,,,
1,460.0,10,phase_2,green_triangle,go,,,,go-2,1,,,,,,
1,525.0,10,phase_2,green_pentagon,go,,,,go-2,1,,,,,,
1,556.0,10,phase_2,purple_triangle,stop,red,200.0,tracking-SSD,go-1,3,,,,,,
2,520.0,10,phase_2,green_circle,go,,,,go-2,1,,,,,,
0,0,10,phase_2,purple_pentagon,stop,blue,0.0,0-SSD,go-1,4,,,,,,
1,504.0,10,phase_2,purple_triangle,go,,,,go-1,1,,,,,,
1,625.0,10,phase_2,green_pentagon,go,,,,go-2,1,,,,,,
0,0,10,phase_2,green_triangle,stop,blue,0.0,0-SSD,go-2,4,,,,,,
2,431.0,10,phase_2,purple_circle,go,,,,go-1,1,,,,,,
2,710.0,10,phase_2,purple_rhombus,go,,,,go-1,1,,,,,,
2,550.0,10,phase_2,green_circle,go,,,,go-2,1,,,,,,
2,583.0,10,phase_2,purple_rhombus,go,,,,go-1,1,,,,,,
2,400.0,10,phase_2,purple_rhombus,go,,,,go-1,1,,,,,,
0,0,10,phase_2,purple_pentagon,stop,red,150.0,tracking-SSD,go-1,4,,,,,,
2,688.0,10,phase_2,green_rhombus,go,,,,go-2,1,,,,,,
1,585.0,10,phase_2,green_pentagon,go,,,,go-2,1,,,,,,
2,639.0,10,phase_2,green_rhombus,go,,,,go-2,1,,,,,,
0,0,10,phase_2,purple_pentagon,stop,red,200.0,tracking-SSD,go-1,4,,,,,,
2,591.0,10,phase_2,green_rhombus,go,,,,go-2,1,,,,,,
1,522.0,10,phase_2,green_triangle,stop,red,250.0,tracking-SSD,go-2,3,,,,,,
0,0,10,phase_2,purple_circle,stop,red,200.0,tracking-SSD,go-1,4,,,,,,
2,359.0,10,phase_2,green_circle,go,,,,go-2,1,,,,,,
2,379.0,10,phase_2,green_circle,stop,red,250.0,tracking-SSD,go-2,3,,,,,,
2,669.0,10,phase_2,purple_rhombus,go,,,,go-1,1,,,,,,
1,487.0,10,phase_2,purple_triangle,go,,,,go-1,1,,,,,,
1,833.0,10,phase_2,green_pentagon,go,,,,go-2,1,,,,,,
1,605.0,10,phase_2,purple_triangle,go,,,,go-1,1,,,,,,
2,400.0,10,phase_2,green_circle,stop,red,200.0,tracking-SSD,go-2,3,,,,,,
2,567.0,10,phase_2,purple_rhombus,go,,,,go-1,1,,,,,,
2,510.0,11,phase_2,purple_circle,go,,,,go-1,1,,,,,,
0,0,11,phase_2,purple_triangle,stop,blue,0.0,0-SSD,go-1,4,,,,,,
2,1035.0,11,phase_2,green_rhombus,go,,,,go-2,1,,,,,,
2,818.0,11,phase_2,green_circle,go,,,,go-2,1,,,,,,
0,0,11,phase_2,purple_triangle,stop,blue,0.0,0-SSD,go-1,4,,,,,,
0,0,11,phase_2,purple_circle,stop,red,150.0,tracking-SSD,go-1,4,,,,,,
1,699.0,11,phase_2,purple_pentagon,go,,,,go-1,1,,,,,,
2,493.0,11,phase_2,green_circle,stop,red,200.0,tracking-SSD,go-2,3,,,,,,
2,458.0,11,phase_2,green_circle,go,,,,go-2,1,,,,,,
2,682.0,11,phase_2,green_rhombus,go,,,,go-2,1,,,,,,
2,454.0,11,phase_2,green_circle,stop,red,150.0,tracking-SSD,go-2,3,,,,,,
2,588.0,11,phase_2,purple_rhombus,go,,,,go-1,1,,,,,,
0,0,11,phase_2,green_triangle,stop,red,100.0,tracking-SSD,go-2,4,,,,,,
1,627.0,11,phase_2,green_pentagon,go,,,,go-2,1,,,,,,
2,658.0,11,phase_2,purple_pentagon,go,,,,go-1,2,,,,,,
0,0,11,phase_2,purple_triangle,stop,blue,0.0,0-SSD,go-1,4,,,,,,
1,452.0,11,phase_2,green_pentagon,go,,,,go-2,1,,,,,,
1,561.0,11,phase_2,purple_triangle,go,,,,go-1,1,,,,,,
1,412.0,11,phase_2,green_triangle,go,,,,go-2,1,,,,,,
0,0,11,phase_2,purple_pentagon,stop,red,150.0,tracking-SSD,go-1,4,,,,,,
2,778.0,11,phase_2,green_rhombus,go,,,,go-2,1,,,,,,
2,484.0,11,phase_2,purple_rhombus,go,,,,go-1,1,,,,,,
2,470.0,11,phase_2,purple_circle,go,,,,go-1,1,,,,,,
0,0,11,phase_2,purple_circle,stop,blue,0.0,0-SSD,go-1,4,,,,,,
0,0,11,phase_2,purple_pentagon,stop,red,200.0,tracking-SSD,go-1,4,,,,,,
1,630.0,11,phase_2,purple_rhombus,go,,,,go-1,2,,,,,,
2,471.0,11,phase_2,purple_rhombus,go,,,,go-1,1,,,,,,
2,512.0,11,phase_2,green_circle,go,,,,go-2,1,,,,,,
1,443.0,11,phase_2,green_triangle,go,,,,go-2,1,,,,,,
2,351.0,11,phase_2,purple_circle,go,,,,go-1,1,,,,,,
1,539.0,11,phase_2,purple_pentagon,go,,,,go-1,1,,,,,,
1,571.0,11,phase_2,green_triangle,go,,,,go-2,1,,,,,,
0,0,11,phase_2,green_triangle,stop,blue,0.0,0-SSD,go-2,4,,,,,,
2,397.0,11,phase_2,green_pentagon,go,,,,go-2,2,,,,,,
1,518.0,11,phase_2,green_triangle,go,,,,go-2,1,,,,,,
1,358.0,11,phase_2,purple_triangle,stop,red,250.0,tracking-SSD,go-1,3,,,,,,
1,525.0,11,phase_2,green_pentagon,go,,,,go-2,1,,,,,,
1,398.0,11,phase_2,green_pentagon,stop,red,200.0,tracking-SSD,go-2,3,,,,,,
1,463.0,11,phase_2,purple_pentagon,go,,,,go-1,1,,,,,,
1,348.0,11,phase_2,purple_triangle,go,,,,go-1,1,,,,,,
2,446.0,11,phase_2,purple_circle,go,,,,go-1,1,,,,,,
2,693.0,11,phase_2,purple_rhombus,go,,,,go-1,1,,,,,,
0,0,11,phase_2,green_rhombus,stop,blue,0.0,0-SSD,go-2,4,,,,,,
2,485.0,11,phase_2,green_circle,go,,,,go-2,1,,,,,,
1,539.0,11,phase_2,purple_rhombus,go,,,,go-1,2,,,,,,
0,0,11,phase_2,green_rhombus,stop,blue,0.0,0-SSD,go-2,4,,,,,,
2,490.0,11,phase_2,green_rhombus,go,,,,go-2,1,,,,,,
0,0,11,phase_2,green_pentagon,stop,blue,0.0,0-SSD,go-2,4,,,,,,
0,0,12,phase_2,green_rhombus,stop,red,150.0,tracking-SSD,go-2,4,,,,,,
2,350.0,12,phase_2,green_rhombus,go,,,,go-2,1,,,,,,
2,426.0,12,phase_2,green_circle,go,,,,go-2,1,,,,,,
2,311.0,12,phase_2,green_circle,go,,,,go-2,1,,,,,,
2,466.0,12,phase_2,purple_rhombus,go,,,,go-1,1,,,,,,
1,508.0,12,phase_2,purple_triangle,go,,,,go-1,1,,,,,,
2,361.0,12,phase_2,purple_circle,go,,,,go-1,1,,,,,,
2,347.0,12,phase_2,green_triangle,go,,,,go-2,2,,,,,,
0,0,12,phase_2,green_rhombus,stop,blue,0.0,0-SSD,go-2,4,,,,,,
0,0,12,phase_2,purple_pentagon,stop,blue,0.0,0-SSD,go-1,4,,,,,,
1,442.0,12,phase_2,green_rhombus,go,,,,go-2,2,,,,,,
2,462.0,12,phase_2,purple_circle,stop,red,200.0,tracking-SSD,go-1,3,,,,,,
2,459.0,12,phase_2,green_triangle,go,,,,go-2,2,,,,,,
2,456.0,12,phase_2,green_pentagon,go,,,,go-2,2,,,,,,
2,420.0,12,phase_2,green_rhombus,go,,,,go-2,1,,,,,,
0,0,12,phase_2,purple_rhombus,stop,red,150.0,tracking-SSD,go-1,4,,,,,,
1,562.0,12,phase_2,purple_triangle,go,,,,go-1,1,,,,,,
0,0,12,phase_2,purple_pentagon,stop,blue,0.0,0-SSD,go-1,4,,,,,,
0,0,12,phase_2,purple_triangle,stop,blue,0.0,0-SSD,go-1,4,,,,,,
2,443.0,12,phase_2,purple_circle,go,,,,go-1,1,,,,,,
1,474.0,12,phase_2,purple_pentagon,go,,,,go-1,1,,,,,,
1,382.0,12,phase_2,green_rhombus,go,,,,go-2,2,,,,,,
2,436.0,12,phase_2,green_circle,go,,,,go-2,1,,,,,,
0,0,12,phase_2,green_pentagon,stop,blue,0.0,0-SSD,go-2,4,,,,,,
1,611.0,12,phase_2,purple_pentagon,go,,,,go-1,1,,,,,,
1,406.0,12,phase_2,purple_pentagon,go,,,,go-1,1,,,,,,
0,0,12,phase_2,green_triangle,stop,blue,0.0,0-SSD,go-2,4,,,,,,
2,424.0,12,phase_2,green_circle,go,,,,go-2,1,,,,,,
2,376.0,12,phase_2,green_circle,go,,,,go-2,1,,,,,,
1,420.0,12,phase_2,purple_triangle,go,,,,go-1,1,,,,,,
0,0,12,phase_2,green_pentagon,stop,red,200.0,tracking-SSD,go-2,4,,,,,,
1,731.0,12,phase_2,purple_pentagon,go,,,,go-1,1,,,,,,
1,414.0,12,phase_2,green_triangle,go,,,,go-2,1,,,,,,
1,355.0,12,phase_2,purple_triangle,stop,red,250.0,tracking-SSD,go-1,3,,,,,,
1,510.0,12,phase_2,green_rhombus,go,,,,go-2,2,,,,,,
0,0,12,phase_2,purple_circle,stop,blue,0.0,0-SSD,go-1,4,,,,,,
1,540.0,12,phase_2,purple_triangle,stop,red,200.0,tracking-SSD,go-1,3,,,,,,
0,0,12,phase_2,green_pentagon,stop,red,150.0,tracking-SSD,go-2,4,,,,,,
2,389.0,12,phase_2,purple_circle,go,,,,go-1,1,,,,,,
0,0,12,phase_2,green_circle,stop,blue,0.0,0-SSD,go-2,4,,,,,,
2,823.0,12,phase_2,purple_rhombus,go,,,,go-1,1,,,,,,
2,427.0,12,phase_2,purple_rhombus,go,,,,go-1,1,,,,,,
2,459.0,12,phase_2,purple_circle,go,,,,go-1,1,,,,,,
0,0,12,phase_2,green_triangle,stop,red,200.0,tracking-SSD,go-2,4,,,,,,
1,544.0,12,phase_2,purple_pentagon,go,,,,go-1,1,,,,,,
1,417.0,12,phase_2,green_pentagon,go,,,,go-2,1,,,,,,
1,516.0,12,phase_2,green_rhombus,go,,,,go-2,2,,,,,,
1,490.0,12,phase_2,purple_triangle,go,,,,go-1,1,,,,,,
1,487.0,13,phase_2,purple_triangle,go,,,,go-1,1,,,,,,
2,654.0,13,phase_2,green_pentagon,go,,,,go-2,2,,,,,,
2,403.0,13,phase_2,purple_circle,go,,,,go-1,1,,,,,,
2,368.0,13,phase_2,purple_circle,stop,red,250.0,tracking-SSD,go-1,3,,,,,,
2,704.0,13,phase_2,purple_rhombus,go,,,,go-1,1,,,,,,
2,622.0,13,phase_2,purple_rhombus,go,,,,go-1,1,,,,,,
0,0,13,phase_2,purple_triangle,stop,red,200.0,tracking-SSD,go-1,4,,,,,,
2,687.0,13,phase_2,green_rhombus,go,,,,go-2,1,,,,,,
0,0,13,phase_2,purple_triangle,stop,blue,0.0,0-SSD,go-1,4,,,,,,
1,852.0,13,phase_2,green_pentagon,go,,,,go-2,1,,,,,,
1,376.0,13,phase_2,green_pentagon,go,,,,go-2,1,,,,,,
1,408.0,13,phase_2,green_pentagon,go,,,,go-2,1,,,,,,
2,461.0,13,phase_2,purple_rhombus,go,,,,go-1,1,,,,,,
2,492.0,13,phase_2,purple_circle,go,,,,go-1,1,,,,,,
2,356.0,13,phase_2,green_circle,stop,red,250.0,tracking-SSD,go-2,3,,,,,,
1,600.0,13,phase_2,green_pentagon,go,,,,go-2,1,,,,,,
2,496.0,13,phase_2,green_circle,go,,,,go-2,1,,,,,,
0,0,13,phase_2,green_rhombus,stop,blue,0.0,0-SSD,go-2,4,,,,,,
1,536.0,13,phase_2,green_triangle,go,,,,go-2,1,,,,,,
0,0,13,phase_2,purple_rhombus,stop,blue,0.0,0-SSD,go-1,4,,,,,,
0,0,13,phase_2,green_rhombus,stop,blue,0.0,0-SSD,go-2,4,,,,,,
0,0,13,phase_2,purple_rhombus,stop,red,200.0,tracking-SSD,go-1,4,,,,,,
1,483.0,13,phase_2,purple_triangle,go,,,,go-1,1,,,,,,
1,548.0,13,phase_2,green_pentagon,go,,,,go-2,1,,,,,,
2,401.0,13,phase_2,green_circle,go,,,,go-2,1,,,,,,
1,523.0,13,phase_2,purple_pentagon,go,,,,go-1,1,,,,,,
2,475.0,13,phase_2,green_circle,go,,,,go-2,1,,,,,,
1,397.0,13,phase_2,green_triangle,go,,,,go-2,1,,,,,,
2,439.0,13,phase_2,purple_pentagon,go,,,,go-1,2,,,,,,
0,0,13,phase_2,purple_circle,stop,blue,0.0,0-SSD,go-1,4,,,,,,
1,425.0,13,phase_2,purple_triangle,stop,red,250.0,tracking-SSD,go-1,3,,,,,,
0,0,13,phase_2,green_rhombus,stop,red,200.0,tracking-SSD,go-2,4,,,,,,
2,444.0,13,phase_2,green_circle,stop,red,250.0,tracking-SSD,go-2,3,,,,,,
0,0,13,phase_2,green_triangle,stop,blue,0.0,0-SSD,go-2,4,,,,,,
1,508.0,13,phase_2,purple_pentagon,go,,,,go-1,1,,,,,,
2,483.0,13,phase_2,green_circle,go,,,,go-2,1,,,,,,
1,471.0,13,phase_2,green_triangle,stop,red,200.0,tracking-SSD,go-2,3,,,,,,
1,492.0,13,phase_2,green_rhombus,go,,,,go-2,2,,,,,,
2,444.0,13,phase_2,purple_circle,go,,,,go-1,1,,,,,,
1,441.0,13,phase_2,green_rhombus,go,,,,go-2,2,,,,,,
0,0,13,phase_2,green_triangle,stop,blue,0.0,0-SSD,go-2,4,,,,,,
1,507.0,13,phase_2,purple_pentagon,go,,,,go-1,1,,,,,,
1,527.0,13,phase_2,purple_triangle,go,,,,go-1,1,,,,,,
0,0,13,phase_2,purple_rhombus,stop,blue,0.0,0-SSD,go-1,4,,,,,,
2,433.0,13,phase_2,purple_circle,go,,,,go-1,1,,,,,,
1,565.0,13,phase_2,purple_triangle,go,,,,go-1,1,,,,,,
1,486.0,13,phase_2,purple_pentagon,go,,,,go-1,1,,,,,,
1,471.0,13,phase_2,green_pentagon,go,,,,go-2,1,,,,,,
2,1038.0,14,phase_2,purple_rhombus,go,,,,go-1,1,,,,,,
1,599.0,14,phase_2,green_triangle,go,,,,go-2,1,,,,,,
0,0,14,phase_2,green_rhombus,stop,blue,0.0,0-SSD,go-2,4,,,,,,
1,562.0,14,phase_2,green_triangle,go,,,,go-2,1,,,,,,
1,840.0,14,phase_2,green_pentagon,go,,,,go-2,1,,,,,,
1,490.0,14,phase_2,purple_pentagon,go,,,,go-1,1,,,,,,
2,409.0,14,phase_2,purple_circle,go,,,,go-1,1,,,,,,
2,597.0,14,phase_2,purple_rhombus,go,,,,go-1,1,,,,,,
1,539.0,14,phase_2,green_triangle,go,,,,go-2,1,,,,,,
0,0,14,phase_2,green_rhombus,stop,blue,0.0,0-SSD,go-2,4,,,,,,
2,792.0,14,phase_2,green_rhombus,go,,,,go-2,1,,,,,,
0,0,14,phase_2,green_rhombus,stop,red,150.0,tracking-SSD,go-2,4,,,,,,
0,0,14,phase_2,purple_rhombus,stop,blue,0.0,0-SSD,go-1,4,,,,,,
2,448.0,14,phase_2,green_circle,go,,,,go-2,1,,,,,,
2,377.0,14,phase_2,green_circle,stop,red,200.0,tracking-SSD,go-2,3,,,,,,
0,0,14,phase_2,purple_pentagon,stop,blue,0.0,0-SSD,go-1,4,,,,,,
0,0,14,phase_2,green_triangle,stop,red,150.0,tracking-SSD,go-2,4,,,,,,
2,448.0,14,phase_2,green_circle,go,,,,go-2,1,,,,,,
1,502.0,14,phase_2,green_triangle,go,,,,go-2,1,,,,,,
1,387.0,14,phase_2,green_triangle,go,,,,go-2,1,,,,,,
2,384.0,14,phase_2,purple_circle,stop,red,200.0,tracking-SSD,go-1,3,,,,,,
2,404.0,14,phase_2,green_pentagon,stop,red,150.0,tracking-SSD,go-2,3,,,,,,
2,414.0,14,phase_2,green_circle,go,,,,go-2,1,,,,,,
1,570.0,14,phase_2,purple_pentagon,go,,,,go-1,1,,,,,,
0,0,14,phase_2,purple_pentagon,stop,red,100.0,tracking-SSD,go-1,4,,,,,,
0,0,14,phase_2,purple_pentagon,stop,blue,0.0,0-SSD,go-1,4,,,,,,
0,0,14,phase_2,purple_circle,stop,red,150.0,tracking-SSD,go-1,4,,,,,,
1,706.0,14,phase_2,purple_pentagon,go,,,,go-1,1,,,,,,
1,490.0,14,phase_2,green_triangle,go,,,,go-2,1,,,,,,
2,442.0,14,phase_2,purple_circle,go,,,,go-1,1,,,,,,
1,496.0,14,phase_2,green_rhombus,go,,,,go-2,2,,,,,,
0,0,14,phase_2,green_rhombus,stop,blue,0.0,0-SSD,go-2,4,,,,,,
1,457.0,14,phase_2,green_triangle,go,,,,go-2,1,,,,,,
1,365.0,14,phase_2,purple_triangle,go,,,,go-1,1,,,,,,
2,789.0,14,phase_2,green_rhombus,go,,,,go-2,1,,,,,,
1,595.0,14,phase_2,purple_pentagon,go,,,,go-1,1,,,,,,
1,391.0,14,phase_2,purple_triangle,go,,,,go-1,1,,,,,,
0,0,14,phase_2,purple_pentagon,stop,blue,0.0,0-SSD,go-1,4,,,,,,
1,555.0,14,phase_2,green_pentagon,go,,,,go-2,1,,,,,,
2,349.0,14,phase_2,purple_circle,go,,,,go-1,1,,,,,,
2,730.0,14,phase_2,purple_rhombus,go,,,,go-1,1,,,,,,
2,379.0,14,phase_2,purple_circle,go,,,,go-1,1,,,,,,
0,0,14,phase_2,green_rhombus,stop,blue,0.0,0-SSD,go-2,4,,,,,,
1,543.0,14,phase_2,purple_pentagon,go,,,,go-1,1,,,,,,
1,506.0,14,phase_2,purple_triangle,go,,,,go-1,1,,,,,,
2,515.0,14,phase_2,green_circle,go,,,,go-2,1,,,,,,
2,422.0,14,phase_2,purple_circle,go,,,,go-1,1,,,,,,
1,487.0,14,phase_2,purple_triangle,stop,red,200.0,tracking-SSD,go-1,3,,,,,,
0,0,15,phase_2,green_pentagon,stop,red,150.0,tracking-SSD,go-2,4,,,,,,
1,418.0,15,phase_2,green_triangle,go,,,,go-2,1,,,,,,
1,764.0,15,phase_2,green_pentagon,go,,,,go-2,1,,,,,,
1,492.0,15,phase_2,green_rhombus,go,,,,go-2,2,,,,,,
2,681.0,15,phase_2,green_rhombus,go,,,,go-2,1,,,,,,
2,555.0,15,phase_2,green_circle,go,,,,go-2,1,,,,,,
0,0,15,phase_2,green_triangle,stop,blue,0.0,0-SSD,go-2,4,,,,,,
2,494.0,15,phase_2,green_rhombus,go,,,,go-2,1,,,,,,
2,468.0,15,phase_2,purple_circle,go,,,,go-1,1,,,,,,
0,0,15,phase_2,purple_rhombus,stop,blue,0.0,0-SSD,go-1,4,,,,,,
0,0,15,phase_2,green_triangle,stop,blue,0.0,0-SSD,go-2,4,,,,,,
1,597.0,15,phase_2,green_pentagon,go,,,,go-2,1,,,,,,
1,616.0,15,phase_2,purple_pentagon,go,,,,go-1,1,,,,,,
1,377.0,15,phase_2,purple_triangle,go,,,,go-1,1,,,,,,
2,487.0,15,phase_2,purple_circle,go,,,,go-1,1,,,,,,
1,608.0,15,phase_2,purple_rhombus,go,,,,go-1,2,,,,,,
1,684.0,15,phase_2,green_circle,go,,,,go-2,2,,,,,,
2,760.0,15,phase_2,green_rhombus,go,,,,go-2,1,,,,,,
1,600.0,15,phase_2,purple_pentagon,go,,,,go-1,1,,,,,,
2,563.0,15,phase_2,purple_circle,go,,,,go-1,1,,,,,,
0,0,15,phase_2,green_pentagon,stop,red,200.0,tracking-SSD,go-2,4,,,,,,
0,0,15,phase_2,purple_rhombus,stop,red,250.0,tracking-SSD,go-1,4,,,,,,
0,0,15,phase_2,green_circle,stop,blue,0.0,0-SSD,go-2,4,,,,,,
1,486.0,15,phase_2,purple_pentagon,go,,,,go-1,1,,,,,,
2,415.0,15,phase_2,purple_circle,stop,red,300.0,tracking-SSD,go-1,3,,,,,,
0,0,15,phase_2,purple_triangle,stop,blue,0.0,0-SSD,go-1,4,,,,,,
0,0,15,phase_2,purple_pentagon,stop,blue,0.0,0-SSD,go-1,4,,,,,,
1,487.0,15,phase_2,purple_triangle,stop,red,250.0,tracking-SSD,go-1,3,,,,,,
1,507.0,15,phase_2,purple_triangle,go,,,,go-1,1,,,,,,
1,706.0,15,phase_2,green_pentagon,go,,,,go-2,1,,,,,,
0,0,15,phase_2,green_pentagon,stop,blue,0.0,0-SSD,go-2,4,,,,,,
2,443.0,15,phase_2,green_circle,go,,,,go-2,1,,,,,,
1,418.0,15,phase_2,purple_triangle,go,,,,go-1,1,,,,,,
2,427.0,15,phase_2,purple_circle,go,,,,go-1,1,,,,,,
2,694.0,15,phase_2,purple_rhombus,go,,,,go-1,1,,,,,,
1,523.0,15,phase_2,green_pentagon,go,,,,go-2,1,,,,,,
1,442.0,15,phase_2,green_triangle,go,,,,go-2,1,,,,,,
2,495.0,15,phase_2,green_circle,stop,red,200.0,tracking-SSD,go-2,3,,,,,,
1,392.0,15,phase_2,purple_triangle,go,,,,go-1,1,,,,,,
0,0,15,phase_2,purple_rhombus,stop,blue,0.0,0-SSD,go-1,4,,,,,,
2,487.0,15,phase_2,purple_circle,go,,,,go-1,1,,,,,,
2,383.0,15,phase_2,purple_circle,go,,,,go-1,1,,,,,,
1,561.0,15,phase_2,purple_pentagon,go,,,,go-1,1,,,,,,
0,0,15,phase_2,green_triangle,stop,red,150.0,tracking-SSD,go-2,4,,,,,,
2,938.0,15,phase_2,green_rhombus,go,,,,go-2,1,,,,,,
1,440.0,15,phase_2,green_triangle,go,,,,go-2,1,,,,,,
2,426.0,15,phase_2,purple_rhombus,stop,red,200.0,tracking-SSD,go-1,3,,,,,,
2,424.0,15,phase_2,green_rhombus,go,,,,go-2,1,,,,,,
1,734.0,16,phase_2,purple_triangle,go,,,,go-1,1,,,,,,
2,641.0,16,phase_2,purple_rhombus,go,,,,go-1,1,,,,,,
0,0,16,phase_2,purple_rhombus,stop,blue,0.0,0-SSD,go-1,4,,,,,,
0,0,16,phase_2,purple_circle,stop,red,150.0,tracking-SSD,go-1,4,,,,,,
2,342.0,16,phase_2,green_circle,go,,,,go-2,1,,,,,,
0,0,16,phase_2,green_pentagon,stop,blue,0.0,0-SSD,go-2,4,,,,,,
2,529.0,16,phase_2,green_rhombus,go,,,,go-2,1,,,,,,
2,481.0,16,phase_2,green_circle,go,,,,go-2,1,,,,,,
1,568.0,16,phase_2,green_pentagon,go,,,,go-2,1,,,,,,
0,0,16,phase_2,green_triangle,stop,blue,0.0,0-SSD,go-2,4,,,,,,
0,0,16,phase_2,purple_pentagon,stop,blue,0.0,0-SSD,go-1,4,,,,,,
2,452.0,16,phase_2,green_circle,go,,,,go-2,1,,,,,,
1,423.0,16,phase_2,purple_triangle,go,,,,go-1,1,,,,,,
1,398.0,16,phase_2,green_triangle,go,,,,go-2,1,,,,,,
1,553.0,16,phase_2,purple_pentagon,go,,,,go-1,1,,,,,,
1,539.0,16,phase_2,green_triangle,go,,,,go-2,1,,,,,,
0,0,16,phase_2,purple_rhombus,stop,blue,0.0,0-SSD,go-1,4,,,,,,
1,503.0,16,phase_2,green_rhombus,go,,,,go-2,2,,,,,,
1,387.0,16,phase_2,green_rhombus,go,,,,go-2,2,,,,,,
2,431.0,16,phase_2,green_circle,go,,,,go-2,1,,,,,,
1,530.0,16,phase_2,green_triangle,go,,,,go-2,1,,,,,,
2,449.0,16,phase_2,purple_circle,go,,,,go-1,1,,,,,,
0,0,16,phase_2,green_pentagon,stop,blue,0.0,0-SSD,go-2,4,,,,,,
1,500.0,16,phase_2,purple_triangle,go,,,,go-1,1,,,,,,
1,598.0,16,phase_2,purple_pentagon,go,,,,go-1,1,,,,,,
2,494.0,16,phase_2,purple_circle,stop,red,200.0,tracking-SSD,go-1,3,,,,,,
1,671.0,16,phase_2,green_pentagon,go,,,,go-2,1,,,,,,
0,0,16,phase_2,green_pentagon,stop,blue,0.0,0-SSD,go-2,4,,,,,,
1,520.0,16,phase_2,green_pentagon,go,,,,go-2,1,,,,,,
2,405.0,16,phase_2,green_circle,go,,,,go-2,1,,,,,,
0,0,16,phase_2,purple_triangle,stop,red,150.0,tracking-SSD,go-1,4,,,,,,
2,568.0,16,phase_2,purple_circle,go,,,,go-1,1,,,,,,
0,0,16,phase_2,green_rhombus,stop,red,200.0,tracking-SSD,go-2,4,,,,,,
2,710.0,16,phase_2,purple_rhombus,go,,,,go-1,1,,,,,,
2,381.0,16,phase_2,green_rhombus,go,,,,go-2,1,,,,,,
2,367.0,16,phase_2,green_rhombus,go,,,,go-2,1,,,,,,
2,386.0,16,phase_2,purple_rhombus,stop,red,250.0,tracking-SSD,go-1,3,,,,,,
1,463.0,16,phase_2,purple_triangle,go,,,,go-1,1,,,,,,
0,0,16,phase_2,green_pentagon,stop,red,200.0,tracking-SSD,go-2,4,,,,,,
1,392.0,16,phase_2,green_triangle,stop,red,250.0,tracking-SSD,go-2,3,,,,,,
2,411.0,16,phase_2,purple_circle,go,,,,go-1,1,,,,,,
2,477.0,16,phase_2,purple_pentagon,go,,,,go-1,2,,,,,,
2,395.0,16,phase_2,purple_circle,go,,,,go-1,1,,,,,,
0,0,16,phase_2,purple_triangle,stop,blue,0.0,0-SSD,go-1,4,,,,,,
2,491.0,16,phase_2,purple_circle,go,,,,go-1,1,,,,,,
2,387.0,16,phase_2,purple_rhombus,go,,,,go-1,1,,,,,,
1,564.0,16,phase_2,purple_triangle,go,,,,go-1,1,,,,,,
0,0,16,phase_2,green_pentagon,stop,red,200.0,tracking-SSD,go-2,4,,,,,,
1,589.0,17,phase_2,purple_pentagon,go,,,,go-1,1,,,,,,
1,609.0,17,phase_2,green_triangle,stop,red,250.0,tracking-SSD,go-2,3,,,,,,
1,538.0,17,phase_2,green_rhombus,stop,red,200.0,tracking-SSD,go-2,3,,,,,,
1,581.0,17,phase_2,purple_triangle,go,,,,go-1,1,,,,,,
0,0,17,phase_2,green_pentagon,stop,blue,0.0,0-SSD,go-2,4,,,,,,
0,0,17,phase_2,purple_circle,stop,red,150.0,tracking-SSD,go-1,4,,,,,,
1,461.0,17,phase_2,green_rhombus,go,,,,go-2,2,,,,,,
0,0,17,phase_2,green_rhombus,stop,blue,0.0,0-SSD,go-2,4,,,,,,
0,0,17,phase_2,purple_pentagon,stop,blue,0.0,0-SSD,go-1,4,,,,,,
0,0,17,phase_2,green_rhombus,stop,blue,0.0,0-SSD,go-2,4,,,,,,
0,0,17,phase_2,green_pentagon,stop,red,200.0,tracking-SSD,go-2,4,,,,,,
1,640.0,17,phase_2,green_pentagon,go,,,,go-2,1,,,,,,
2,402.0,17,phase_2,green_circle,go,,,,go-2,1,,,,,,
2,321.0,17,phase_2,purple_circle,go,,,,go-1,1,,,,,,
1,520.0,17,phase_2,purple_pentagon,go,,,,go-1,1,,,,,,
1,418.0,17,phase_2,purple_pentagon,go,,,,go-1,1,,,,,,
0,0,17,phase_2,purple_triangle,stop,blue,0.0,0-SSD,go-1,4,,,,,,
1,345.0,17,phase_2,green_triangle,go,,,,go-2,1,,,,,,
2,443.0,17,phase_2,green_circle,go,,,,go-2,1,,,,,,
1,496.0,17,phase_2,green_triangle,go,,,,go-2,1,,,,,,
1,607.0,17,phase_2,green_pentagon,go,,,,go-2,1,,,,,,
0,0,17,phase_2,purple_pentagon,stop,blue,0.0,0-SSD,go-1,4,,,,,,
2,389.0,17,phase_2,purple_circle,go,,,,go-1,1,,,,,,
1,577.0,17,phase_2,purple_pentagon,stop,red,250.0,tracking-SSD,go-1,3,,,,,,
1,563.0,17,phase_2,purple_rhombus,go,,,,go-1,2,,,,,,
2,605.0,17,phase_2,green_rhombus,go,,,,go-2,1,,,,,,
1,445.0,17,phase_2,green_circle,go,,,,go-2,2,,,,,,
1,545.0,17,phase_2,green_rhombus,go,,,,go-2,2,,,,,,
1,609.0,17,phase_2,green_triangle,stop,red,200.0,tracking-SSD,go-2,3,,,,,,
2,460.0,17,phase_2,green_rhombus,go,,,,go-2,1,,,,,,
1,514.0,17,phase_2,green_triangle,go,,,,go-2,1,,,,,,
1,590.0,17,phase_2,purple_pentagon,go,,,,go-1,1,,,,,,
0,0,17,phase_2,green_triangle,stop,blue,0.0,0-SSD,go-2,4,,,,,,
0,0,17,phase_2,purple_circle,stop,blue,0.0,0-SSD,go-1,4,,,,,,
2,392.0,17,phase_2,green_circle,go,,,,go-2,1,,,,,,
2,366.0,17,phase_2,purple_circle,go,,,,go-1,1,,,,,,
1,453.0,17,phase_2,purple_triangle,go,,,,go-1,1,,,,,,
2,451.0,17,phase_2,green_circle,go,,,,go-2,1,,,,,,
2,414.0,17,phase_2,purple_circle,go,,,,go-1,1,,,,,,
1,424.0,17,phase_2,purple_triangle,go,,,,go-1,1,,,,,,
0,0,17,phase_2,purple_rhombus,stop,red,150.0,tracking-SSD,go-1,4,,,,,,
2,430.0,17,phase_2,purple_rhombus,go,,,,go-1,1,,,,,,
2,394.0,17,phase_2,purple_circle,stop,red,200.0,tracking-SSD,go-1,3,,,,,,
1,526.0,17,phase_2,green_pentagon,go,,,,go-2,1,,,,,,
2,693.0,17,phase_2,purple_rhombus,go,,,,go-1,1,,,,,,
2,543.0,17,phase_2,purple_rhombus,go,,,,go-1,1,,,,,,
1,451.0,17,phase_2,purple_triangle,go,,,,go-1,1,,,,,,
1,472.0,17,phase_2,green_triangle,go,,,,go-2,1,,,,,,
,1049.0,1,phase_3,,,,,,,,purple_square,go-1,purple_square,go-1,red_square,tracking-SSD
,764.0,1,phase_3,,,,,,,,blue_square,0-SSD,purple_square,go-1,blue_square,0-SSD
,951.0,1,phase_3,,,,,,,,green_square,go-2,purple_square,go-1,green_square,go-2
,1374.0,1,phase_3,,,,,,,,blue_square,0-SSD,blue_square,0-SSD,red_square,tracking-SSD
,740.0,1,phase_3,,,,,,,,green_square,go-2,green_square,go-2,red_square,tracking-SSD
,534.0,1,phase_3,,,,,,,,blue_square,0-SSD,green_square,go-2,blue_square,0-SSD
,1102.0,1,phase_3,,,,,,,,red_square,tracking-SSD,red_square,tracking-SSD,purple_square,go-1
,1154.0,1,phase_3,,,,,,,,red_square,tracking-SSD,red_square,tracking-SSD,green_square,go-2
,1050.0,1,phase_3,,,,,,,,blue_square,0-SSD,blue_square,0-SSD,green_square,go-2
,1517.0,1,phase_3,,,,,,,,purple_square,go-1,green_square,go-2,purple_square,go-1
,815.0,1,phase_3,,,,,,,,blue_square,0-SSD,blue_square,0-SSD,purple_square,go-1
,1350.0,1,phase_3,,,,,,,,red_square,tracking-SSD,red_square,tracking-SSD,blue_square,0-SSD
,567.0,2,phase_3,,,,,,,,green_square,go-2,purple_square,go-1,green_square,go-2
,450.0,2,phase_3,,,,,,,,red_square,tracking-SSD,green_square,go-2,red_square,tracking-SSD
,614.0,2,phase_3,,,,,,,,purple_square,go-1,purple_square,go-1,blue_square,0-SSD
,396.0,2,phase_3,,,,,,,,red_square,tracking-SSD,blue_square,0-SSD,red_square,tracking-SSD
,380.0,2,phase_3,,,,,,,,purple_square,go-1,purple_square,go-1,red_square,tracking-SSD
,568.0,2,phase_3,,,,,,,,green_square,go-2,green_square,go-2,blue_square,0-SSD
,315.0,2,phase_3,,,,,,,,purple_square,go-1,green_square,go-2,purple_square,go-1
,368.0,2,phase_3,,,,,,,,purple_square,go-1,blue_square,0-SSD,purple_square,go-1
,487.0,2,phase_3,,,,,,,,blue_square,0-SSD,red_square,tracking-SSD,blue_square,0-SSD
,280.0,2,phase_3,,,,,,,,green_square,go-2,red_square,tracking-SSD,green_square,go-2
,557.0,2,phase_3,,,,,,,,red_square,tracking-SSD,red_square,tracking-SSD,purple_square,go-1
,834.0,2,phase_3,,,,,,,,blue_square,0-SSD,blue_square,0-SSD,green_square,go-2
,556.0,3,phase_3,,,,,,,,red_square,tracking-SSD,blue_square,0-SSD,red_square,tracking-SSD
,484.0,3,phase_3,,,,,,,,red_square,tracking-SSD,green_square,go-2,red_square,tracking-SSD
,389.0,3,phase_3,,,,,,,,blue_square,0-SSD,green_square,go-2,blue_square,0-SSD
,272.0,3,phase_3,,,,,,,,blue_square,0-SSD,purple_square,go-1,blue_square,0-SSD
,256.0,3,phase_3,,,,,,,,green_square,go-2,purple_square,go-1,green_square,go-2
,274.0,3,phase_3,,,,,,,,red_square,tracking-SSD,purple_square,go-1,red_square,tracking-SSD
,348.0,3,phase_3,,,,,,,,red_square,tracking-SSD,red_square,tracking-SSD,green_square,go-2
,323.0,3,phase_3,,,,,,,,green_square,go-2,green_square,go-2,purple_square,go-1
,261.0,3,phase_3,,,,,,,,blue_square,0-SSD,blue_square,0-SSD,purple_square,go-1
,335.0,3,phase_3,,,,,,,,blue_square,0-SSD,red_square,tracking-SSD,blue_square,0-SSD
,309.0,3,phase_3,,,,,,,,green_square,go-2,blue_square,0-SSD,green_square,go-2
,327.0,3,phase_3,,,,,,,,purple_square,go-1,red_square,tracking-SSD,purple_square,go-1
,420.0,4,phase_3,,,,,,,,blue_square,0-SSD,green_square,go-2,blue_square,0-SSD
,450.0,4,phase_3,,,,,,,,red_square,tracking-SSD,green_square,go-2,red_square,tracking-SSD
,615.0,4,phase_3,,,,,,,,blue_square,0-SSD,purple_square,go-1,blue_square,0-SSD
,453.0,4,phase_3,,,,,,,,red_square,tracking-SSD,purple_square,go-1,red_square,tracking-SSD
,515.0,4,phase_3,,,,,,,,green_square,go-2,purple_square,go-1,green_square,go-2
,332.0,4,phase_3,,,,,,,,red_square,tracking-SSD,blue_square,0-SSD,red_square,tracking-SSD
,304.0,4,phase_3,,,,,,,,purple_square,go-1,blue_square,0-SSD,purple_square,go-1
,177.0,4,phase_3,,,,,,,,green_square,go-2,red_square,tracking-SSD,green_square,go-2
,329.0,4,phase_3,,,,,,,,red_square,tracking-SSD,red_square,tracking-SSD,purple_square,go-1
,1023.0,4,phase_3,,,,,,,,green_square,go-2,green_square,go-2,purple_square,go-1
,333.0,4,phase_3,,,,,,,,blue_square,0-SSD,blue_square,0-SSD,green_square,go-2
,294.0,4,phase_3,,,,,,,,red_square,tracking-SSD,red_square,tracking-SSD,blue_square,0-SSD
,477.0,5,phase_3,,,,,,,,red_square,tracking-SSD,blue_square,0-SSD,red_square,tracking-SSD
,258.0,5,phase_3,,,,,,,,blue_square,0-SSD,purple_square,go-1,blue_square,0-SSD
,152.0,5,phase_3,,,,,,,,red_square,tracking-SSD,green_square,go-2,red_square,tracking-SSD
,318.0,5,phase_3,,,,,,,,purple_square,go-1,purple_square,go-1,green_square,go-2
,346.0,5,phase_3,,,,,,,,red_square,tracking-SSD,purple_square,go-1,red_square,tracking-SSD
,319.0,5,phase_3,,,,,,,,green_square,go-2,green_square,go-2,blue_square,0-SSD
,281.0,5,phase_3,,,,,,,,blue_square,0-SSD,red_square,tracking-SSD,blue_square,0-SSD
,479.0,5,phase_3,,,,,,,,blue_square,0-SSD,blue_square,0-SSD,green_square,go-2
,340.0,5,phase_3,,,,,,,,green_square,go-2,red_square,tracking-SSD,green_square,go-2
,201.0,5,phase_3,,,,,,,,green_square,go-2,green_square,go-2,purple_square,go-1
0,0,5,phase_3,,,,,,,,,,red_square,tracking-SSD,purple_square,go-1
0,0,5,phase_3,,,,,,,,,,blue_square,0-SSD,purple_square,go-1
