response,reaction_time,block,which_phase,stim,stop_signal_trial_type,stop_signal_stimulus,SSD,SSD_type,condition,accuracy,chosen_stim,chosen_cond,stim_left,cond_left,stim_right,cond_right
1,802.0,1,phase_2,purple_pentagon,stop,green,250.0,tracking-SSD,go-2,3,,,,,,
1,642.0,1,phase_2,red_circle,go,,,,go-1,1,,,,,,
2,527.0,1,phase_2,red_triangle,go,,,,go-1,1,,,,,,
0,0,1,phase_2,purple_circle,stop,blue,0.0,0-SSD,go-2,4,,,,,,
2,793.0,1,phase_2,red_pentagon,go,,,,go-1,1,,,,,,
1,734.0,1,phase_2,red_rhombus,stop,green,200.0,tracking-SSD,go-1,3,,,,,,
1,980.0,1,phase_2,purple_rhombus,go,,,,go-2,1,,,,,,
0,0,1,phase_2,purple_circle,stop,green,150.0,tracking-SSD,go-2,4,,,,,,
0,0,1,phase_2,purple_triangle,stop,blue,0.0,0-SSD,go-2,4,,,,,,
2,513.0,1,phase_2,purple_pentagon,go,,,,go-2,1,,,,,,
1,679.0,1,phase_2,red_rhombus,go,,,,go-1,1,,,,,,
0,0,1,phase_2,purple_pentagon,stop,blue,0.0,0-SSD,go-2,4,,,,,,
0,0,1,phase_2,red_rhombus,stop,blue,0.0,0-SSD,go-1,4,,,,,,
1,705.0,1,phase_2,purple_rhombus,go,,,,go-2,1,,,,,,
1,793.0,1,phase_2,purple_circle,go,,,,go-2,1,,,,,,
1,689.0,1,phase_2,red_rhombus,go,,,,go-1,1,,,,,,
1,473.0,1,phase_2,purple_rhombus,go,,,,go-2,1,,,,,,
1,482.0,1,phase_2,red_circle,go,,,,go-1,1,,,,,,
2,715.0,1,phase_2,red_triangle,go,,,,go-1,1,,,,,,
1,543.0,1,phase_2,red_circle,stop,green,200.0,tracking-SSD,go-1,3,,,,,,
1,822.0,1,phase_2,red_rhombus,go,,,,go-1,1,,,,,,
1,697.0,1,phase_2,red_rhombus,go,,,,go-1,1,,,,,,
2,739.0,1,phase_2,purple_triangle,go,,,,go-2,1,,,,,,
2,601.0,1,phase_2,purple_rhombus,go,,,,go-2,2,,,,,,
1,589.0,1,phase_2,purple_rhombus,go,,,,go-2,1,,,,,,
2,912.0,1,phase_2,purple_triangle,go,,,,go-2,1,,,,,,
2,550.0,1,phase_2,purple_triangle,go,,,,go-2,1,,,,,,
1,706.0,1,phase_2,red_rhombus,go,,,,go-1,1,,,,,,
2,636.0,1,phase_2,purple_triangle,go,,,,go-2,1,,,,,,
0,0,1,phase_2,red_triangle,stop,green,150.0,tracking-SSD,go-1,4,,,,,,
2,553.0,1,phase_2,red_triangle,go,,,,go-1,1,,,,,,
2,1045.0,1,phase_2,red_pentagon,go,,,,go-1,1,,,,,,
2,524.0,1,phase_2,purple_pentagon,go,,,,go-2,1,,,,,,
1,545.0,1,phase_2,purple_circle,go,,,,go-2,1,,,,,,
0,0,1,phase_2,purple_pentagon,stop,blue,0.0,0-SSD,go-2,4,,,,,,
2,654.0,1,phase_2,red_pentagon,go,,,,go-1,1,,,,,,
0,0,1,phase_2,red_circle,stop,green,200.0,tracking-SSD,go-1,4,,,,,,
0,0,1,phase_2,purple_circle,stop,green,250.0,tracking-SSD,go-2,4,,,,,,
2,534.0,1,phase_2,red_pentagon,go,,,,go-1,1,,,,,,
0,0,1,phase_2,red_circle,stop,blue,0.0,0-SSD,go-1,4,,,,,,
2,485.0,1,phase_2,red_circle,go,,,,go-1,2,,,,,,
0,0,1,phase_2,red_pentagon,stop,blue,0.0,0-SSD,go-1,4,,,,,,
0,0,1,phase_2,red_pentagon,stop,blue,0.0,0-SSD,go-1,4,,,,,,
1,623.0,1,phase_2,red_circle,go,,,,go-1,1,,,,,,
2,598.0,1,phase_2,purple_triangle,go,,,,go-2,1,,,,,,
2,462.0,1,phase_2,purple_triangle,stop,green,300.0,tracking-SSD,go-2,3,,,,,,
2,616.0,1,phase_2,purple_pentagon,go,,,,go-2,1,,,,,,
2,569.0,1,phase_2,purple_triangle,go,,,,go-2,1,,,,,,
0,0,2,phase_2,purple_pentagon,stop,green,250.0,tracking-SSD,go-2,4,,,,,,
1,710.0,2,phase_2,purple_rhombus,go,,,,go-2,1,,,,,,
0,0,2,phase_2,red_circle,stop,blue,0.0,0-SSD,go-1,4,,,,,,
1,794.0,2,phase_2,purple_circle,go,,,,go-2,1,,,,,,
2,735.0,2,phase_2,red_triangle,go,,,,go-1,1,,,,,,
1,732.0,2,phase_2,purple_circle,go,,,,go-2,1,,,,,,
2,652.0,2,phase_2,purple_pentagon,go,,,,go-2,1,,,,,,
1,773.0,2,phase_2,purple_rhombus,go,,,,go-2,1,,,,,,
1,726.0,2,phase_2,purple_circle,go,,,,go-2,1,,,,,,
2,680.0,2,phase_2,red_pentagon,go,,,,go-1,1,,,,,,
1,633.0,2,phase_2,red_circle,go,,,,go-1,1,,,,,,
2,608.0,2,phase_2,red_triangle,go,,,,go-1,1,,,,,,
0,0,2,phase_2,red_triangle,stop,green,300.0,tracking-SSD,go-1,4,,,,,,
2,569.0,2,phase_2,red_triangle,go,,,,go-1,1,,,,,,
1,657.0,2,phase_2,red_circle,go,,,,go-1,1,,,,,,
1,901.0,2,phase_2,purple_rhombus,go,,,,go-2,1,,,,,,
0,0,2,phase_2,red_circle,stop,blue,0.0,0-SSD,go-1,4,,,,,,
2,796.0,2,phase_2,red_rhombus,go,,,,go-1,2,,,,,,
0,0,2,phase_2,purple_circle,stop,blue,0.0,0-SSD,go-2,4,,,,,,
2,724.0,2,phase_2,red_pentagon,go,,,,go-1,1,,,,,,
2,597.0,2,phase_2,purple_triangle,go,,,,go-2,1,,,,,,
1,572.0,2,phase_2,red_circle,go,,,,go-1,1,,,,,,
0,0,2,phase_2,purple_circle,stop,blue,0.0,0-SSD,go-2,4,,,,,,
0,0,2,phase_2,purple_pentagon,stop,blue,0.0,0-SSD,go-2,4,,,,,,
2,735.0,2,phase_2,red_triangle,go,,,,go-1,1,,,,,,
2,530.0,2,phase_2,purple_triangle,go,,,,go-2,1,,,,,,
1,685.0,2,phase_2,purple_rhombus,go,,,,go-2,1,,,,,,
1,457.0,2,phase_2,purple_circle,go,,,,go-2,1,,,,,,
2,703.0,2,phase_2,purple_triangle,stop,green,350.0,tracking-SSD,go-2,3,,,,,,
2,577.0,2,phase_2,red_pentagon,go,,,,go-1,1,,,,,,
2,506.0,2,phase_2,purple_pentagon,stop,green,300.0,tracking-SSD,go-2,3,,,,,,
1,1122.0,2,phase_2,purple_rhombus,go,,,,go-2,1,,,,,,
0,0,2,phase_2,red_rhombus,stop,green,250.0,tracking-SSD,go-1,4,,,,,,
0,0,2,phase_2,red_pentagon,stop,blue,0.0,0-SSD,go-1,4,,,,,,
1,666.0,2,phase_2,red_rhombus,go,,,,go-1,1,,,,,,
1,439.0,2,phase_2,red_rhombus,stop,green,300.0,tracking-SSD,go-1,3,,,,,,
2,559.0,2,phase_2,purple_circle,go,,,,go-2,2,,,,,,
2,648.0,2,phase_2,purple_triangle,go,,,,go-2,1,,,,,,
0,0,2,phase_2,red_triangle,stop,blue,0.0,0-SSD,go-1,4,,,,,,
0,0,2,phase_2,purple_pentagon,stop,green,250.0,tracking-SSD,go-2,4,,,,,,
2,922.0,2,phase_2,red_triangle,go,,,,go-1,1,,,,,,
2,594.0,2,phase_2,purple_pentagon,go,,,,go-2,1,,,,,,
1,750.0,2,phase_2,purple_rhombus,go,,,,go-2,1,,,,,,
1,466.0,2,phase_2,red_rhombus,go,,,,go-1,1,,,,,,
0,0,2,phase_2,purple_pentagon,stop,blue,0.0,0-SSD,go-2,4,,,,,,
0,0,2,phase_2,red_triangle,stop,green,300.0,tracking-SSD,go-1,4,,,,,,
1,640.0,2,phase_2,red_rhombus,go,,,,go-1,1,,,,,,
2,614.0,2,phase_2,red_pentagon,go,,,,go-1,1,,,,,,
1,622.0,3,phase_2,red_rhombus,stop,green,350.0,tracking-SSD,go-1,3,,,,,,
1,665.0,3,phase_2,red_rhombus,go,,,,go-1,1,,,,,,
2,584.0,3,phase_2,purple_pentagon,stop,green,300.0,tracking-SSD,go-2,3,,,,,,
0,0,3,phase_2,red_pentagon,stop,green,250.0,tracking-SSD,go-1,4,,,,,,
1,796.0,3,phase_2,red_rhombus,go,,,,go-1,1,,,,,,
2,748.0,3,phase_2,purple_triangle,go,,,,go-2,1,,,,,,
1,634.0,3,phase_2,red_circle,go,,,,go-1,1,,,,,,
0,0,3,phase_2,red_pentagon,stop,blue,0.0,0-SSD,go-1,4,,,,,,
0,0,3,phase_2,red_triangle,stop,blue,0.0,0-SSD,go-1,4,,,,,,
2,785.0,3,phase_2,purple_triangle,go,,,,go-2,1,,,,,,
2,535.0,3,phase_2,purple_triangle,go,,,,go-2,1,,,,,,
2,533.0,3,phase_2,red_triangle,go,,,,go-1,1,,,,,,
0,0,3,phase_2,purple_circle,stop,blue,0.0,0-SSD,go-2,4,,,,,,
1,573.0,3,phase_2,purple_pentagon,go,,,,go-2,2,,,,,,
1,705.0,3,phase_2,red_rhombus,go,,,,go-1,1,,,,,,
2,570.0,3,phase_2,purple_pentagon,go,,,,go-2,1,,,,,,
0,0,3,phase_2,purple_rhombus,stop,green,300.0,tracking-SSD,go-2,4,,,,,,
2,677.0,3,phase_2,purple_triangle,go,,,,go-2,1,,,,,,
2,665.0,3,phase_2,red_pentagon,go,,,,go-1,1,,,,,,
1,460.0,3,phase_2,purple_circle,stop,green,350.0,tracking-SSD,go-2,3,,,,,,
0,0,3,phase_2,red_rhombus,stop,blue,0.0,0-SSD,go-1,4,,,,,,
0,0,3,phase_2,red_triangle,stop,blue,0.0,0-SSD,go-1,4,,,,,,
2,624.0,3,phase_2,purple_pentagon,go,,,,go-2,1,,,,,,
2,555.0,3,phase_2,purple_triangle,go,,,,go-2,1,,,,,,
2,622.0,3,phase_2,purple_pentagon,go,,,,go-2,1,,,,,,
1,416.0,3,phase_2,purple_circle,go,,,,go-2,1,,,,,,
2,638.0,3,phase_2,purple_pentagon,go,,,,go-2,1,,,,,,
1,647.0,3,phase_2,red_rhombus,go,,,,go-1,1,,,,,,
1,623.0,3,phase_2,red_rhombus,go,,,,go-1,1,,,,,,
0,0,3,phase_2,purple_triangle,stop,blue,0.0,0-SSD,go-2,4,,,,,,
1,697.0,3,phase_2,red_rhombus,go,,,,go-1,1,,,,,,
1,739.0,3,phase_2,purple_rhombus,go,,,,go-2,1,,,,,,
0,0,3,phase_2,purple_circle,stop,green,300.0,tracking-SSD,go-2,4,,,,,,
2,735.0,3,phase_2,purple_pentagon,go,,,,go-2,1,,,,,,
2,789.0,3,phase_2,purple_triangle,go,,,,go-2,1,,,,,,
2,1012.0,3,phase_2,red_pentagon,go,,,,go-1,1,,,,,,
0,0,3,phase_2,purple_circle,stop,blue,0.0,0-SSD,go-2,4,,,,,,
1,658.0,3,phase_2,purple_circle,go,,,,go-2,1,,,,,,
1,801.0,3,phase_2,red_rhombus,go,,,,go-1,1,,,,,,
1,519.0,3,phase_2,red_circle,go,,,,go-1,1,,,,,,
2,687.0,3,phase_2,red_triangle,go,,,,go-1,1,,,,,,
0,0,3,phase_2,purple_pentagon,stop,blue,0.0,0-SSD,go-2,4,,,,,,
2,570.0,3,phase_2,red_triangle,stop,green,350.0,tracking-SSD,go-1,3,,,,,,
1,556.0,3,phase_2,red_circle,go,,,,go-1,1,,,,,,
1,520.0,3,phase_2,red_circle,go,,,,go-1,1,,,,,,
1,495.0,3,phase_2,red_circle,go,,,,go-1,1,,,,,,
0,0,3,phase_2,red_circle,stop,green,300.0,tracking-SSD,go-1,4,,,,,,
1,773.0,3,phase_2,purple_rhombus,go,,,,go-2,1,,,,,,
1,465.0,4,phase_2,purple_circle,go,,,,go-2,1,,,,,,
1,372.0,4,phase_2,purple_circle,go,,,,go-2,1,,,,,,
2,595.0,4,phase_2,red_pentagon,go,,,,go-1,1,,,,,,
2,481.0,4,phase_2,purple_pentagon,go,,,,go-2,1,,,,,,
0,0,4,phase_2,red_rhombus,stop,blue,0.0,0-SSD,go-1,4,,,,,,
2,578.0,4,phase_2,purple_pentagon,go,,,,go-2,1,,,,,,
1,564.0,4,phase_2,red_circle,go,,,,go-1,1,,,,,,
0,0,4,phase_2,purple_triangle,stop,blue,0.0,0-SSD,go-2,4,,,,,,
1,491.0,4,phase_2,red_circle,go,,,,go-1,1,,,,,,
2,748.0,4,phase_2,red_pentagon,stop,green,350.0,tracking-SSD,go-1,3,,,,,,
1,880.0,4,phase_2,red_rhombus,go,,,,go-1,1,,,,,,
2,495.0,4,phase_2,purple_triangle,go,,,,go-2,1,,,,,,
1,605.0,4,phase_2,red_rhombus,go,,,,go-1,1,,,,,,
2,591.0,4,phase_2,purple_pentagon,go,,,,go-2,1,,,,,,
2,904.0,4,phase_2,red_triangle,go,,,,go-1,1,,,,,,
1,733.0,4,phase_2,purple_rhombus,stop,green,300.0,tracking-SSD,go-2,3,,,,,,
0,0,4,phase_2,purple_triangle,stop,blue,0.0,0-SSD,go-2,4,,,,,,
2,806.0,4,phase_2,red_triangle,go,,,,go-1,1,,,,,,
1,725.0,4,phase_2,red_rhombus,go,,,,go-1,1,,,,,,
1,767.0,4,phase_2,red_rhombus,go,,,,go-1,1,,,,,,
0,0,4,phase_2,red_rhombus,stop,green,250.0,tracking-SSD,go-1,4,,,,,,
2,593.0,4,phase_2,purple_pentagon,go,,,,go-2,1,,,,,,
1,579.0,4,phase_2,purple_circle,go,,,,go-2,1,,,,,,
0,0,4,phase_2,purple_triangle,stop,blue,0.0,0-SSD,go-2,4,,,,,,
1,800.0,4,phase_2,purple_rhombus,go,,,,go-2,1,,,,,,
1,606.0,4,phase_2,red_circle,go,,,,go-1,1,,,,,,
0,0,4,phase_2,red_triangle,stop,blue,0.0,0-SSD,go-1,4,,,,,,
1,590.0,4,phase_2,purple_rhombus,go,,,,go-2,1,,,,,,
1,576.0,4,phase_2,purple_rhombus,go,,,,go-2,1,,,,,,
1,731.0,4,phase_2,red_circle,go,,,,go-1,1,,,,,,
0,0,4,phase_2,red_pentagon,stop,green,300.0,tracking-SSD,go-1,4,,,,,,
0,0,4,phase_2,purple_triangle,stop,blue,0.0,0-SSD,go-2,4,,,,,,
1,680.0,4,phase_2,red_rhombus,go,,,,go-1,1,,,,,,
2,611.0,4,phase_2,purple_pentagon,go,,,,go-2,1,,,,,,
0,0,4,phase_2,red_triangle,stop,green,350.0,tracking-SSD,go-1,4,,,,,,
0,0,4,phase_2,red_circle,stop,blue,0.0,0-SSD,go-1,4,,,,,,
1,692.0,4,phase_2,purple_rhombus,go,,,,go-2,1,,,,,,
2,500.0,4,phase_2,red_triangle,go,,,,go-1,1,,,,,,
2,665.0,4,phase_2,red_pentagon,go,,,,go-1,1,,,,,,
2,483.0,4,phase_2,purple_pentagon,go,,,,go-2,1,,,,,,
2,660.0,4,phase_2,purple_triangle,stop,green,400.0,tracking-SSD,go-2,3,,,,,,
2,636.0,4,phase_2,red_pentagon,go,,,,go-1,1,,,,,,
1,577.0,4,phase_2,red_circle,go,,,,go-1,1,,,,,,
1,485.0,4,phase_2,purple_circle,go,,,,go-2,1,,,,,,
1,527.0,4,phase_2,purple_circle,go,,,,go-2,1,,,,,,
2,593.0,4,phase_2,purple_pentagon,stop,green,350.0,tracking-SSD,go-2,3,,,,,,
0,0,4,phase_2,purple_circle,stop,green,300.0,tracking-SSD,go-2,4,,,,,,
0,0,4,phase_2,red_triangle,stop,blue,0.0,0-SSD,go-1,4,,,,,,
1,544.0,5,phase_2,purple_rhombus,go,,,,go-2,1,,,,,,
2,552.0,5,phase_2,red_pentagon,go,,,,go-1,1,,,,,,
1,550.0,5,phase_2,purple_circle,stop,green,350.0,tracking-SSD,go-2,3,,,,,,
0,0,5,phase_2,purple_circle,stop,blue,0.0,0-SSD,go-2,4,,,,,,
2,692.0,5,phase_2,purple_pentagon,go,,,,go-2,1,,,,,,
0,0,5,phase_2,purple_triangle,stop,blue,0.0,0-SSD,go-2,4,,,,,,
1,361.0,5,phase_2,red_circle,go,,,,go-1,1,,,,,,
2,515.0,5,phase_2,purple_pentagon,stop,green,300.0,tracking-SSD,go-2,3,,,,,,
2,738.0,5,phase_2,red_triangle,go,,,,go-1,1,,,,,,
1,635.0,5,phase_2,purple_rhombus,go,,,,go-2,1,,,,,,
1,475.0,5,phase_2,purple_circle,go,,,,go-2,1,,,,,,
1,562.0,5,phase_2,purple_circle,go,,,,go-2,1,,,,,,
1,616.0,5,phase_2,red_rhombus,go,,,,go-1,1,,,,,,
2,401.0,5,phase_2,red_triangle,stop,green,250.0,tracking-SSD,go-1,3,,,,,,
2,456.0,5,phase_2,red_pentagon,go,,,,go-1,1,,,,,,
1,498.0,5,phase_2,red_rhombus,go,,,,go-1,1,,,,,,
2,632.0,5,phase_2,red_pentagon,go,,,,go-1,1,,,,,,
0,0,5,phase_2,purple_pentagon,stop,blue,0.0,0-SSD,go-2,4,,,,,,
0,0,5,phase_2,red_rhombus,stop,green,200.0,tracking-SSD,go-1,4,,,,,,
1,434.0,5,phase_2,red_circle,go,,,,go-1,1,,,,,,
2,476.0,5,phase_2,purple_triangle,go,,,,go-2,1,,,,,,
2,439.0,5,phase_2,purple_pentagon,go,,,,go-2,1,,,,,,
2,460.0,5,phase_2,red_pentagon,go,,,,go-1,1,,,,,,
0,0,5,phase_2,purple_pentagon,stop,blue,0.0,0-SSD,go-2,4,,,,,,
2,590.0,5,phase_2,purple_triangle,go,,,,go-2,1,,,,,,
1,688.0,5,phase_2,red_rhombus,go,,,,go-1,1,,,,,,
1,618.0,5,phase_2,purple_circle,go,,,,go-2,1,,,,,,
2,592.0,5,phase_2,purple_pentagon,go,,,,go-2,1,,,,,,
0,0,5,phase_2,red_rhombus,stop,blue,0.0,0-SSD,go-1,4,,,,,,
2,656.0,5,phase_2,purple_triangle,go,,,,go-2,1,,,,,,
1,653.0,5,phase_2,red_rhombus,stop,green,250.0,tracking-SSD,go-1,3,,,,,,
0,0,5,phase_2,purple_rhombus,stop,green,200.0,tracking-SSD,go-2,4,,,,,,
1,670.0,5,phase_2,red_rhombus,go,,,,go-1,1,,,,,,
2,567.0,5,phase_2,purple_pentagon,go,,,,go-2,1,,,,,,
0,0,5,phase_2,red_circle,stop,blue,0.0,0-SSD,go-1,4,,,,,,
1,520.0,5,phase_2,purple_circle,go,,,,go-2,1,,,,,,
2,596.0,5,phase_2,red_pentagon,go,,,,go-1,1,,,,,,
1,481.0,5,phase_2,purple_circle,go,,,,go-2,1,,,,,,
0,0,5,phase_2,red_rhombus,stop,green,250.0,tracking-SSD,go-1,4,,,,,,
0,0,5,phase_2,red_triangle,stop,blue,0.0,0-SSD,go-1,4,,,,,,
2,879.0,5,phase_2,red_triangle,go,,,,go-1,1,,,,,,
2,450.0,5,phase_2,red_triangle,go,,,,go-1,1,,,,,,
2,471.0,5,phase_2,purple_triangle,stop,green,300.0,tracking-SSD,go-2,3,,,,,,
1,536.0,5,phase_2,purple_circle,go,,,,go-2,1,,,,,,
0,0,5,phase_2,red_rhombus,stop,blue,0.0,0-SSD,go-1,4,,,,,,
1,463.0,5,phase_2,purple_circle,go,,,,go-2,1,,,,,,
2,461.0,5,phase_2,red_triangle,go,,,,go-1,1,,,,,,
2,402.0,5,phase_2,red_triangle,go,,,,go-1,1,,,,,,
0,0,6,phase_2,purple_pentagon,stop,blue,0.0,0-SSD,go-2,4,,,,,,
2,575.0,6,phase_2,red_triangle,go,,,,go-1,1,,,,,,
2,404.0,6,phase_2,purple_triangle,go,,,,go-2,1,,,,,,
2,413.0,6,phase_2,red_triangle,go,,,,go-1,1,,,,,,
1,478.0,6,phase_2,purple_circle,go,,,,go-2,1,,,,,,
2,701.0,6,phase_2,red_pentagon,go,,,,go-1,1,,,,,,
1,597.0,6,phase_2,purple_rhombus,go,,,,go-2,1,,,,,,
0,0,6,phase_2,red_pentagon,stop,blue,0.0,0-SSD,go-1,4,,,,,,
2,693.0,6,phase_2,red_pentagon,go,,,,go-1,1,,,,,,
1,555.0,6,phase_2,purple_rhombus,go,,,,go-2,1,,,,,,
0,0,6,phase_2,red_rhombus,stop,blue,0.0,0-SSD,go-1,4,,,,,,
0,0,6,phase_2,red_rhombus,stop,green,250.0,tracking-SSD,go-1,4,,,,,,
1,459.0,6,phase_2,purple_rhombus,stop,green,300.0,tracking-SSD,go-2,3,,,,,,
2,557.0,6,phase_2,red_pentagon,go,,,,go-1,1,,,,,,
2,499.0,6,phase_2,purple_pentagon,go,,,,go-2,1,,,,,,
2,701.0,6,phase_2,purple_triangle,go,,,,go-2,1,,,,,,
1,507.0,6,phase_2,purple_circle,go,,,,go-2,1,,,,,,
2,471.0,6,phase_2,purple_pentagon,go,,,,go-2,1,,,,,,
1,581.0,6,phase_2,red_circle,go,,,,go-1,1,,,,,,
1,671.0,6,phase_2,red_circle,go,,,,go-1,1,,,,,,
2,544.0,6,phase_2,red_pentagon,go,,,,go-1,1,,,,,,
0,0,6,phase_2,red_pentagon,stop,green,250.0,tracking-SSD,go-1,4,,,,,,
2,517.0,6,phase_2,red_pentagon,stop,green,300.0,tracking-SSD,go-1,3,,,,,,
0,0,6,phase_2,purple_triangle,stop,blue,0.0,0-SSD,go-2,4,,,,,,
0,0,6,phase_2,purple_rhombus,stop,blue,0.0,0-SSD,go-2,4,,,,,,
2,645.0,6,phase_2,purple_triangle,go,,,,go-2,1,,,,,,
2,530.0,6,phase_2,purple_triangle,go,,,,go-2,1,,,,,,
2,562.0,6,phase_2,red_pentagon,go,,,,go-1,1,,,,,,
2,538.0,6,phase_2,red_pentagon,go,,,,go-1,1,,,,,,
2,625.0,6,phase_2,purple_triangle,go,,,,go-2,1,,,,,,
0,0,6,phase_2,red_circle,stop,green,250.0,tracking-SSD,go-1,4,,,,,,
1,463.0,6,phase_2,purple_circle,stop,green,300.0,tracking-SSD,go-2,3,,,,,,
1,482.0,6,phase_2,purple_circle,go,,,,go-2,1,,,,,,
1,491.0,6,phase_2,purple_circle,go,,,,go-2,1,,,,,,
1,353.0,6,phase_2,purple_circle,go,,,,go-2,1,,,,,,
1,385.0,6,phase_2,purple_circle,go,,,,go-2,1,,,,,,
1,1182.0,6,phase_2,red_rhombus,go,,,,go-1,1,,,,,,
0,0,6,phase_2,red_triangle,stop,blue,0.0,0-SSD,go-1,4,,,,,,
0,0,6,phase_2,purple_rhombus,stop,green,250.0,tracking-SSD,go-2,4,,,,,,
0,0,6,phase_2,purple_circle,stop,blue,0.0,0-SSD,go-2,4,,,,,,
0,0,6,phase_2,red_circle,stop,blue,0.0,0-SSD,go-1,4,,,,,,
2,494.0,6,phase_2,red_triangle,go,,,,go-1,1,,,,,,
2,468.0,6,phase_2,red_rhombus,go,,,,go-1,2,,,,,,
2,725.0,6,phase_2,red_triangle,go,,,,go-1,1,,,,,,
1,712.0,6,phase_2,red_rhombus,go,,,,go-1,1,,,,,,
0,0,6,phase_2,purple_triangle,stop,green,300.0,tracking-SSD,go-2,4,,,,,,
1,639.0,6,phase_2,purple_rhombus,go,,,,go-2,1,,,,,,
1,467.0,6,phase_2,red_rhombus,go,,,,go-1,1,,,,,,
1,488.0,7,phase_2,red_rhombus,go,,,,go-1,1,,,,,,
1,553.0,7,phase_2,red_circle,stop,green,350.0,tracking-SSD,go-1,3,,,,,,
1,640.0,7,phase_2,red_circle,go,,,,go-1,1,,,,,,
2,672.0,7,phase_2,purple_pentagon,stop,green,300.0,tracking-SSD,go-2,3,,,,,,
2,512.0,7,phase_2,red_pentagon,go,,,,go-1,1,,,,,,
0,0,7,phase_2,purple_triangle,stop,green,250.0,tracking-SSD,go-2,4,,,,,,
2,574.0,7,phase_2,red_pentagon,go,,,,go-1,1,,,,,,
2,470.0,7,phase_2,red_triangle,go,,,,go-1,1,,,,,,
1,636.0,7,phase_2,red_circle,go,,,,go-1,1,,,,,,
1,342.0,7,phase_2,red_circle,go,,,,go-1,1,,,,,,
0,0,7,phase_2,purple_pentagon,stop,blue,0.0,0-SSD,go-2,4,,,,,,
1,415.0,7,phase_2,red_rhombus,stop,green,300.0,tracking-SSD,go-1,3,,,,,,
2,570.0,7,phase_2,purple_triangle,go,,,,go-2,1,,,,,,
2,377.0,7,phase_2,purple_triangle,go,,,,go-2,1,,,,,,
1,487.0,7,phase_2,red_circle,go,,,,go-1,1,,,,,,
1,361.0,7,phase_2,red_circle,stop,green,250.0,tracking-SSD,go-1,3,,,,,,
2,606.0,7,phase_2,red_pentagon,go,,,,go-1,1,,,,,,
2,468.0,7,phase_2,purple_pentagon,go,,,,go-2,1,,,,,,
1,679.0,7,phase_2,purple_rhombus,go,,,,go-2,1,,,,,,
1,384.0,7,phase_2,purple_rhombus,go,,,,go-2,1,,,,,,
1,697.0,7,phase_2,purple_circle,go,,,,go-2,1,,,,,,
1,672.0,7,phase_2,red_rhombus,go,,,,go-1,1,,,,,,
0,0,7,phase_2,purple_triangle,stop,green,200.0,tracking-SSD,go-2,4,,,,,,
1,713.0,7,phase_2,red_rhombus,go,,,,go-1,1,,,,,,
0,0,7,phase_2,purple_triangle,stop,blue,0.0,0-SSD,go-2,4,,,,,,
0,0,7,phase_2,red_circle,stop,blue,0.0,0-SSD,go-1,4,,,,,,
0,0,7,phase_2,red_triangle,stop,blue,0.0,0-SSD,go-1,4,,,,,,
1,536.0,7,phase_2,purple_circle,go,,,,go-2,1,,,,,,
1,479.0,7,phase_2,red_rhombus,go,,,,go-1,1,,,,,,
0,0,7,phase_2,red_rhombus,stop,blue,0.0,0-SSD,go-1,4,,,,,,
2,451.0,7,phase_2,purple_triangle,go,,,,go-2,1,,,,,,
2,472.0,7,phase_2,purple_triangle,go,,,,go-2,1,,,,,,
1,593.0,7,phase_2,purple_circle,go,,,,go-2,1,,,,,,
2,432.0,7,phase_2,purple_pentagon,go,,,,go-2,1,,,,,,
1,587.0,7,phase_2,purple_rhombus,go,,,,go-2,1,,,,,,
0,0,7,phase_2,red_rhombus,stop,green,250.0,tracking-SSD,go-1,4,,,,,,
1,481.0,7,phase_2,red_rhombus,go,,,,go-1,1,,,,,,
2,592.0,7,phase_2,purple_pentagon,go,,,,go-2,1,,,,,,
0,0,7,phase_2,red_triangle,stop,blue,0.0,0-SSD,go-1,4,,,,,,
1,485.0,7,phase_2,purple_circle,go,,,,go-2,1,,,,,,
1,640.0,7,phase_2,red_rhombus,go,,,,go-1,1,,,,,,
2,627.0,7,phase_2,purple_pentagon,go,,,,go-2,1,,,,,,
1,479.0,7,phase_2,purple_circle,stop,green,300.0,tracking-SSD,go-2,3,,,,,,
0,0,7,phase_2,purple_pentagon,stop,blue,0.0,0-SSD,go-2,4,,,,,,
2,721.0,7,phase_2,red_pentagon,go,,,,go-1,1,,,,,,
2,549.0,7,phase_2,red_triangle,go,,,,go-1,1,,,,,,
0,0,7,phase_2,purple_pentagon,stop,blue,0.0,0-SSD,go-2,4,,,,,,
2,545.0,7,phase_2,purple_triangle,go,,,,go-2,1,,,,,,
0,0,8,phase_2,purple_triangle,stop,blue,0.0,0-SSD,go-2,4,,,,,,
1,507.0,8,phase_2,purple_rhombus,stop,green,250.0,tracking-SSD,go-2,3,,,,,,
0,0,8,phase_2,red_triangle,stop,green,200.0,tracking-SSD,go-1,4,,,,,,
1,614.0,8,phase_2,purple_circle,go,,,,go-2,1,,,,,,
2,623.0,8,phase_2,red_triangle,go,,,,go-1,1,,,,,,
2,586.0,8,phase_2,red_pentagon,go,,,,go-1,1,,,,,,
1,651.0,8,phase_2,purple_rhombus,go,,,,go-2,1,,,,,,
1,580.0,8,phase_2,red_circle,go,,,,go-1,1,,,,,,
2,578.0,8,phase_2,red_pentagon,go,,,,go-1,1,,,,,,
0,0,8,phase_2,purple_rhombus,stop,blue,0.0,0-SSD,go-2,4,,,,,,
1,687.0,8,phase_2,purple_rhombus,go,,,,go-2,1,,,,,,
2,516.0,8,phase_2,purple_triangle,go,,,,go-2,1,,,,,,
2,672.0,8,phase_2,red_triangle,go,,,,go-1,1,,,,,,
1,445.0,8,phase_2,purple_circle,go,,,,go-2,1,,,,,,
2,724.0,8,phase_2,purple_pentagon,go,,,,go-2,1,,,,,,
2,520.0,8,phase_2,purple_triangle,go,,,,go-2,1,,,,,,
0,0,8,phase_2,purple_rhombus,stop,green,250.0,tracking-SSD,go-2,4,,,,,,
1,470.0,8,phase_2,red_rhombus,go,,,,go-1,1,,,,,,
2,592.0,8,phase_2,red_triangle,go,,,,go-1,1,,,,,,
1,567.0,8,phase_2,red_circle,stop,green,300.0,tracking-SSD,go-1,3,,,,,,
1,745.0,8,phase_2,purple_rhombus,go,,,,go-2,1,,,,,,
2,517.0,8,phase_2,purple_pentagon,stop,green,250.0,tracking-SSD,go-2,3,,,,,,
1,616.0,8,phase_2,red_circle,go,,,,go-1,1,,,,,,
1,681.0,8,phase_2,purple_circle,go,,,,go-2,1,,,,,,
2,487.0,8,phase_2,purple_triangle,go,,,,go-2,1,,,,,,
1,496.0,8,phase_2,purple_rhombus,go,,,,go-2,1,,,,,,
0,0,8,phase_2,purple_rhombus,stop,blue,0.0,0-SSD,go-2,4,,,,,,
2,671.0,8,phase_2,red_pentagon,go,,,,go-1,1,,,,,,
1,612.0,8,phase_2,purple_rhombus,go,,,,go-2,1,,,,,,
2,632.0,8,phase_2,purple_triangle,go,,,,go-2,1,,,,,,
1,506.0,8,phase_2,red_circle,go,,,,go-1,1,,,,,,
0,0,8,phase_2,purple_pentagon,stop,blue,0.0,0-SSD,go-2,4,,,,,,
2,511.0,8,phase_2,red_triangle,go,,,,go-1,1,,,,,,
0,0,8,phase_2,red_circle,stop,blue,0.0,0-SSD,go-1,4,,,,,,
1,495.0,8,phase_2,purple_triangle,go,,,,go-2,2,,,,,,
0,0,8,phase_2,red_rhombus,stop,blue,0.0,0-SSD,go-1,4,,,,,,
0,0,8,phase_2,red_pentagon,stop,green,200.0,tracking-SSD,go-1,4,,,,,,
0,0,8,phase_2,red_circle,stop,green,250.0,tracking-SSD,go-1,4,,,,,,
2,576.0,8,phase_2,purple_pentagon,go,,,,go-2,1,,,,,,
2,550.0,8,phase_2,red_triangle,go,,,,go-1,1,,,,,,
2,593.0,8,phase_2,red_pentagon,go,,,,go-1,1,,,,,,
2,434.0,8,phase_2,red_pentagon,go,,,,go-1,1,,,,,,
0,0,8,phase_2,red_circle,stop,blue,0.0,0-SSD,go-1,4,,,,,,
1,599.0,8,phase_2,red_circle,go,,,,go-1,1,,,,,,
1,629.0,8,phase_2,red_rhombus,go,,,,go-1,1,,,,,,
0,0,8,phase_2,red_pentagon,stop,blue,0.0,0-SSD,go-1,4,,,,,,
1,693.0,8,phase_2,purple_circle,stop,green,300.0,tracking-SSD,go-2,3,,,,,,
2,501.0,8,phase_2,purple_pentagon,go,,,,go-2,1,,,,,,
1,701.0,9,phase_2,red_rhombus,go,,,,go-1,1,,,,,,
1,418.0,9,phase_2,red_rhombus,go,,,,go-1,1,,,,,,
1,426.0,9,phase_2,purple_rhombus,stop,green,250.0,tracking-SSD,go-2,3,,,,,,
1,480.0,9,phase_2,red_rhombus,go,,,,go-1,1,,,,,,
0,0,9,phase_2,purple_rhombus,stop,blue,0.0,0-SSD,go-2,4,,,,,,
0,0,9,phase_2,red_triangle,stop,green,200.0,tracking-SSD,go-1,4,,,,,,
1,597.0,9,phase_2,red_circle,go,,,,go-1,1,,,,,,
1,503.0,9,phase_2,red_rhombus,go,,,,go-1,1,,,,,,
2,636.0,9,phase_2,red_pentagon,go,,,,go-1,1,,,,,,
0,0,9,phase_2,purple_triangle,stop,blue,0.0,0-SSD,go-2,4,,,,,,
2,618.0,9,phase_2,red_pentagon,go,,,,go-1,1,,,,,,
0,0,9,phase_2,red_circle,stop,blue,0.0,0-SSD,go-1,4,,,,,,
0,0,9,phase_2,red_triangle,stop,green,250.0,tracking-SSD,go-1,4,,,,,,
2,455.0,9,phase_2,purple_triangle,go,,,,go-2,1,,,,,,
2,463.0,9,phase_2,red_triangle,stop,green,300.0,tracking-SSD,go-1,3,,,,,,
1,595.0,9,phase_2,purple_circle,go,,,,go-2,1,,,,,,
2,616.0,9,phase_2,purple_pentagon,go,,,,go-2,1,,,,,,
2,456.0,9,phase_2,purple_pentagon,go,,,,go-2,1,,,,,,
0,0,9,phase_2,red_rhombus,stop,blue,0.0,0-SSD,go-1,4,,,,,,
1,519.0,9,phase_2,purple_rhombus,go,,,,go-2,1,,,,,,
0,0,9,phase_2,red_circle,stop,blue,0.0,0-SSD,go-1,4,,,,,,
2,423.0,9,phase_2,purple_pentagon,go,,,,go-2,1,,,,,,
2,488.0,9,phase_2,red_triangle,go,,,,go-1,1,,,,,,
1,452.0,9,phase_2,purple_circle,stop,green,250.0,tracking-SSD,go-2,3,,,,,,
0,0,9,phase_2,purple_triangle,stop,green,200.0,tracking-SSD,go-2,4,,,,,,
2,379.0,9,phase_2,red_triangle,go,,,,go-1,1,,,,,,
1,568.0,9,phase_2,red_circle,go,,,,go-1,1,,,,,,
0,0,9,phase_2,purple_circle,stop,blue,0.0,0-SSD,go-2,4,,,,,,
1,585.0,9,phase_2,purple_circle,go,,,,go-2,1,,,,,,
2,594.0,9,phase_2,purple_triangle,go,,,,go-2,1,,,,,,
1,468.0,9,phase_2,red_rhombus,go,,,,go-1,1,,,,,,
1,510.0,9,phase_2,purple_rhombus,go,,,,go-2,1,,,,,,
2,497.0,9,phase_2,purple_pentagon,go,,,,go-2,1,,,,,,
2,438.0,9,phase_2,purple_pentagon,go,,,,go-2,1,,,,,,
2,537.0,9,phase_2,red_triangle,go,,,,go-1,1,,,,,,
1,457.0,9,phase_2,red_circle,go,,,,go-1,1,,,,,,
0,0,9,phase_2,red_pentagon,stop,blue,0.0,0-SSD,go-1,4,,,,,,
2,566.0,9,phase_2,purple_pentagon,go,,,,go-2,1,,,,,,
2,405.0,9,phase_2,purple_triangle,stop,green,250.0,tracking-SSD,go-2,3,,,,,,
0,0,9,phase_2,purple_pentagon,stop,blue,0.0,0-SSD,go-2,4,,,,,,
1,389.0,9,phase_2,red_circle,go,,,,go-1,1,,,,,,
2,690.0,9,phase_2,red_triangle,stop,green,200.0,tracking-SSD,go-1,3,,,,,,
2,564.0,9,phase_2,purple_rhombus,go,,,,go-2,2,,,,,,
1,550.0,9,phase_2,red_circle,go,,,,go-1,1,,,,,,
2,649.0,9,phase_2,red_pentagon,go,,,,go-1,1,,,,,,
1,658.0,9,phase_2,purple_circle,go,,,,go-2,1,,,,,,
2,520.0,9,phase_2,purple_pentagon,go,,,,go-2,1,,,,,,
1,540.0,9,phase_2,purple_rhombus,go,,,,go-2,1,,,,,,
2,577.0,10,phase_2,purple_pentagon,go,,,,go-2,1,,,,,,
0,0,10,phase_2,red_pentagon,stop,blue,0.0,0-SSD,go-1,4,,,,,,
2,651.0,10,phase_2,red_triangle,go,,,,go-1,1,,,,,,
0,0,10,phase_2,purple_triangle,stop,blue,0.0,0-SSD,go-2,4,,,,,,
0,0,10,phase_2,purple_triangle,stop,blue,0.0,0-SSD,go-2,4,,,,,,
2,576.0,10,phase_2,red_pentagon,go,,,,go-1,1,,,,,,
2,506.0,10,phase_2,purple_triangle,go,,,,go-2,1,,,,,,
1,482.0,10,phase_2,purple_rhombus,go,,,,go-2,1,,,,,,
2,593.0,10,phase_2,red_triangle,go,,,,go-1,1,,,,,,
1,759.0,10,phase_2,purple_rhombus,go,,,,go-2,1,,,,,,
1,577.0,10,phase_2,purple_rhombus,go,,,,go-2,1,,,,,,
1,417.0,10,phase_2,red_rhombus,go,,,,go-1,1,,,,,,
1,437.0,10,phase_2,purple_rhombus,go,,,,go-2,1,,,,,,
0,0,10,phase_2,red_rhombus,stop,blue,0.0,0-SSD,go-1,4,,,,,,
2,499.0,10,phase_2,red_pentagon,go,,,,go-1,1,,,,,,
1,564.0,10,phase_2,red_circle,go,,,,go-1,1,,,,,,
0,0,10,phase_2,red_circle,stop,green,150.0,tracking-SSD,go-1,4,,,,,,
1,503.0,10,phase_2,purple_circle,go,,,,go-2,1,,,,,,
2,556.0,10,phase_2,red_pentagon,go,,,,go-1,1,,,,,,
2,486.0,10,phase_2,purple_pentagon,go,,,,go-2,1,,,,,,
0,0,10,phase_2,purple_circle,stop,blue,0.0,0-SSD,go-2,4,,,,,,
1,403.0,10,phase_2,red_circle,go,,,,go-1,1,,,,,,
1,400.0,10,phase_2,red_rhombus,go,,,,go-1,1,,,,,,
2,386.0,10,phase_2,red_triangle,stop,green,200.0,tracking-SSD,go-1,3,,,,,,
2,541.0,10,phase_2,purple_pentagon,go,,,,go-2,1,,,,,,
2,448.0,10,phase_2,red_pentagon,go,,,,go-1,1,,,,,,
2,603.0,10,phase_2,purple_triangle,go,,,,go-2,1,,,,,,
2,433.0,10,phase_2,purple_triangle,go,,,,go-2,1,,,,,,
0,0,10,phase_2,purple_triangle,stop,blue,0.0,0-SSD,go-2,4,,,,,,
1,393.0,10,phase_2,red_circle,go,,,,go-1,1,,,,,,
1,413.0,10,phase_2,purple_rhombus,go,,,,go-2,1,,,,,,
0,0,10,phase_2,purple_circle,stop,green,150.0,tracking-SSD,go-2,4,,,,,,
2,568.0,10,phase_2,purple_triangle,stop,green,200.0,tracking-SSD,go-2,3,,,,,,
1,520.0,10,phase_2,purple_circle,go,,,,go-2,1,,,,,,
2,460.0,10,phase_2,red_pentagon,go,,,,go-1,1,,,,,,
0,0,10,phase_2,purple_triangle,stop,green,150.0,tracking-SSD,go-2,4,,,,,,
2,556.0,10,phase_2,purple_pentagon,go,,,,go-2,1,,,,,,
1,678.0,10,phase_2,purple_rhombus,go,,,,go-2,1,,,,,,
1,551.0,10,phase_2,red_circle,go,,,,go-1,1,,,,,,
2,392.0,10,phase_2,red_triangle,go,,,,go-1,1,,,,,,
0,0,10,phase_2,red_rhombus,stop,green,200.0,tracking-SSD,go-1,4,,,,,,
1,579.0,10,phase_2,red_circle,stop,green,250.0,tracking-SSD,go-1,3,,,,,,
0,0,10,phase_2,purple_circle,stop,green,200.0,tracking-SSD,go-2,4,,,,,,
1,855.0,10,phase_2,purple_rhombus,go,,,,go-2,1,,,,,,
0,0,10,phase_2,red_circle,stop,blue,0.0,0-SSD,go-1,4,,,,,,
2,524.0,10,phase_2,red_pentagon,go,,,,go-1,1,,,,,,
0,0,10,phase_2,red_pentagon,stop,blue,0.0,0-SSD,go-1,4,,,,,,
1,688.0,10,phase_2,red_rhombus,go,,,,go-1,1,,,,,,
1,712.0,11,phase_2,red_rhombus,stop,green,250.0,tracking-SSD,go-1,3,,,,,,
1,473.0,11,phase_2,purple_pentagon,go,,,,go-2,2,,,,,,
0,0,11,phase_2,red_triangle,stop,blue,0.0,0-SSD,go-1,4,,,,,,
0,0,11,phase_2,red_triangle,stop,blue,0.0,0-SSD,go-1,4,,,,,,
1,691.0,11,phase_2,red_rhombus,go,,,,go-1,1,,,,,,
1,564.0,11,phase_2,purple_circle,go,,,,go-2,1,,,,,,
1,471.0,11,phase_2,red_rhombus,go,,,,go-1,1,,,,,,
2,581.0,11,phase_2,purple_pentagon,stop,green,200.0,tracking-SSD,go-2,3,,,,,,
2,354.0,11,phase_2,red_triangle,go,,,,go-1,1,,,,,,
2,577.0,11,phase_2,red_pentagon,go,,,,go-1,1,,,,,,
1,485.0,11,phase_2,purple_rhombus,go,,,,go-2,1,,,,,,
1,572.0,11,phase_2,red_circle,go,,,,go-1,1,,,,,,
2,457.0,11,phase_2,red_pentagon,go,,,,go-1,1,,,,,,
1,466.0,11,phase_2,purple_circle,go,,,,go-2,1,,,,,,
0,0,11,phase_2,red_triangle,stop,blue,0.0,0-SSD,go-1,4,,,,,,
1,517.0,11,phase_2,red_circle,go,,,,go-1,1,,,,,,
2,390.0,11,phase_2,purple_rhombus,go,,,,go-2,2,,,,,,
2,624.0,11,phase_2,red_pentagon,go,,,,go-1,1,,,,,,
1,600.0,11,phase_2,red_circle,stop,green,150.0,tracking-SSD,go-1,3,,,,,,
0,0,11,phase_2,purple_triangle,stop,green,100.0,tracking-SSD,go-2,4,,,,,,
2,530.0,11,phase_2,purple_pentagon,go,,,,go-2,1,,,,,,
2,605.0,11,phase_2,purple_triangle,go,,,,go-2,1,,,,,,
0,0,11,phase_2,purple_triangle,stop,green,150.0,tracking-SSD,go-2,4,,,,,,
1,442.0,11,phase_2,red_pentagon,go,,,,go-1,2,,,,,,
0,0,11,phase_2,purple_rhombus,stop,blue,0.0,0-SSD,go-2,4,,,,,,
1,584.0,11,phase_2,purple_circle,go,,,,go-2,1,,,,,,
1,514.0,11,phase_2,red_rhombus,go,,,,go-1,1,,,,,,
0,0,11,phase_2,red_pentagon,stop,blue,0.0,0-SSD,go-1,4,,,,,,
1,554.0,11,phase_2,red_rhombus,go,,,,go-1,1,,,,,,
2,540.0,11,phase_2,purple_pentagon,go,,,,go-2,1,,,,,,
1,459.0,11,phase_2,purple_circle,go,,,,go-2,1,,,,,,
2,478.0,11,phase_2,red_triangle,stop,green,200.0,tracking-SSD,go-1,3,,,,,,
2,442.0,11,phase_2,red_pentagon,go,,,,go-1,1,,,,,,
1,710.0,11,phase_2,red_rhombus,go,,,,go-1,1,,,,,,
1,595.0,11,phase_2,purple_circle,go,,,,go-2,1,,,,,,
1,480.0,11,phase_2,red_pentagon,go,,,,go-1,2,,,,,,
0,0,11,phase_2,purple_rhombus,stop,blue,0.0,0-SSD,go-2,4,,,,,,
2,476.0,11,phase_2,red_triangle,go,,,,go-1,1,,,,,,
0,0,11,phase_2,purple_pentagon,stop,blue,0.0,0-SSD,go-2,4,,,,,,
2,540.0,11,phase_2,red_triangle,go,,,,go-1,1,,,,,,
1,560.0,11,phase_2,purple_circle,go,,,,go-2,1,,,,,,
2,669.0,11,phase_2,purple_triangle,go,,,,go-2,1,,,,,,
0,0,11,phase_2,purple_triangle,stop,green,150.0,tracking-SSD,go-2,4,,,,,,
1,608.0,11,phase_2,purple_rhombus,go,,,,go-2,1,,,,,,
1,471.0,11,phase_2,purple_circle,go,,,,go-2,1,,,,,,
1,503.0,11,phase_2,red_circle,stop,green,200.0,tracking-SSD,go-1,3,,,,,,
0,0,11,phase_2,purple_rhombus,stop,blue,0.0,0-SSD,go-2,4,,,,,,
1,612.0,11,phase_2,purple_circle,go,,,,go-2,1,,,,,,
2,622.0,12,phase_2,purple_pentagon,go,,,,go-2,1,,,,,,
0,0,12,phase_2,purple_rhombus,stop,blue,0.0,0-SSD,go-2,4,,,,,,
1,549.0,12,phase_2,purple_circle,go,,,,go-2,1,,,,,,
1,400.0,12,phase_2,purple_circle,go,,,,go-2,1,,,,,,
2,579.0,12,phase_2,red_triangle,go,,,,go-1,1,,,,,,
1,610.0,12,phase_2,red_rhombus,go,,,,go-1,1,,,,,,
0,0,12,phase_2,red_circle,stop,blue,0.0,0-SSD,go-1,4,,,,,,
2,438.0,12,phase_2,purple_triangle,go,,,,go-2,1,,,,,,
0,0,12,phase_2,purple_pentagon,stop,blue,0.0,0-SSD,go-2,4,,,,,,
1,635.0,12,phase_2,red_rhombus,go,,,,go-1,1,,,,,,
0,0,12,phase_2,purple_triangle,stop,green,150.0,tracking-SSD,go-2,4,,,,,,
0,0,12,phase_2,red_pentagon,stop,green,200.0,tracking-SSD,go-1,4,,,,,,
2,481.0,12,phase_2,red_pentagon,stop,green,250.0,tracking-SSD,go-1,3,,,,,,
1,523.0,12,phase_2,red_circle,go,,,,go-1,1,,,,,,
1,453.0,12,phase_2,purple_circle,go,,,,go-2,1,,,,,,
2,552.0,12,phase_2,purple_pentagon,go,,,,go-2,1,,,,,,
1,471.0,12,phase_2,red_circle,go,,,,go-1,1,,,,,,
1,457.0,12,phase_2,purple_circle,stop,green,200.0,tracking-SSD,go-2,3,,,,,,
0,0,12,phase_2,red_triangle,stop,blue,0.0,0-SSD,go-1,4,,,,,,
0,0,12,phase_2,purple_rhombus,stop,green,150.0,tracking-SSD,go-2,4,,,,,,
2,472.0,12,phase_2,red_triangle,go,,,,go-1,1,,,,,,
2,548.0,12,phase_2,purple_pentagon,go,,,,go-2,1,,,,,,
0,0,12,phase_2,purple_pentagon,stop,blue,0.0,0-SSD,go-2,4,,,,,,
2,442.0,12,phase_2,purple_triangle,go,,,,go-2,1,,,,,,
2,405.0,12,phase_2,purple_triangle,go,,,,go-2,1,,,,,,
1,594.0,12,phase_2,red_rhombus,stop,green,200.0,tracking-SSD,go-1,3,,,,,,
0,0,12,phase_2,purple_triangle,stop,blue,0.0,0-SSD,go-2,4,,,,,,
0,0,12,phase_2,red_circle,stop,blue,0.0,0-SSD,go-1,4,,,,,,
2,508.0,12,phase_2,purple_rhombus,go,,,,go-2,2,,,,,,
1,449.0,12,phase_2,red_pentagon,go,,,,go-1,2,,,,,,
1,570.0,12,phase_2,red_circle,go,,,,go-1,1,,,,,,
1,500.0,12,phase_2,purple_circle,go,,,,go-2,1,,,,,,
1,385.0,12,phase_2,purple_circle,go,,,,go-2,1,,,,,,
2,462.0,12,phase_2,purple_triangle,go,,,,go-2,1,,,,,,
1,673.0,12,phase_2,purple_rhombus,go,,,,go-2,1,,,,,,
0,0,12,phase_2,purple_pentagon,stop,green,150.0,tracking-SSD,go-2,4,,,,,,
2,544.0,12,phase_2,purple_triangle,go,,,,go-2,1,,,,,,
2,417.0,12,phase_2,red_triangle,go,,,,go-1,1,,,,,,
1,526.0,12,phase_2,red_rhombus,stop,green,200.0,tracking-SSD,go-1,3,,,,,,
2,559.0,12,phase_2,red_triangle,go,,,,go-1,1,,,,,,
2,590.0,12,phase_2,red_rhombus,go,,,,go-1,2,,,,,,
2,655.0,12,phase_2,red_pentagon,go,,,,go-1,1,,,,,,
2,528.0,12,phase_2,red_pentagon,go,,,,go-1,1,,,,,,
0,0,12,phase_2,red_circle,stop,blue,0.0,0-SSD,go-1,4,,,,,,
1,545.0,12,phase_2,red_rhombus,go,,,,go-1,1,,,,,,
1,386.0,12,phase_2,red_rhombus,go,,,,go-1,1,,,,,,
2,474.0,12,phase_2,red_pentagon,go,,,,go-1,1,,,,,,
1,583.0,12,phase_2,purple_rhombus,go,,,,go-2,1,,,,,,
1,622.0,13,phase_2,purple_circle,go,,,,go-2,1,,,,,,
2,664.0,13,phase_2,purple_triangle,go,,,,go-2,1,,,,,,
0,0,13,phase_2,red_pentagon,stop,blue,0.0,0-SSD,go-1,4,,,,,,
0,0,13,phase_2,red_rhombus,stop,blue,0.0,0-SSD,go-1,4,,,,,,
1,457.0,13,phase_2,red_rhombus,go,,,,go-1,1,,,,,,
2,544.0,13,phase_2,red_triangle,stop,green,150.0,tracking-SSD,go-1,3,,,,,,
0,0,13,phase_2,red_pentagon,stop,blue,0.0,0-SSD,go-1,4,,,,,,
2,586.0,13,phase_2,red_triangle,go,,,,go-1,1,,,,,,
0,0,13,phase_2,purple_pentagon,stop,green,100.0,tracking-SSD,go-2,4,,,,,,
1,458.0,13,phase_2,red_pentagon,go,,,,go-1,2,,,,,,
0,0,13,phase_2,purple_rhombus,stop,green,150.0,tracking-SSD,go-2,4,,,,,,
2,564.0,13,phase_2,red_triangle,stop,green,200.0,tracking-SSD,go-1,3,,,,,,
2,415.0,13,phase_2,purple_triangle,go,,,,go-2,1,,,,,,
1,459.0,13,phase_2,purple_circle,go,,,,go-2,1,,,,,,
1,434.0,13,phase_2,purple_circle,go,,,,go-2,1,,,,,,
2,588.0,13,phase_2,purple_pentagon,go,,,,go-2,1,,,,,,
1,743.0,13,phase_2,red_rhombus,go,,,,go-1,1,,,,,,
2,482.0,13,phase_2,purple_triangle,go,,,,go-2,1,,,,,,
2,547.0,13,phase_2,red_triangle,go,,,,go-1,1,,,,,,
1,455.0,13,phase_2,purple_circle,go,,,,go-2,1,,,,,,
1,564.0,13,phase_2,red_circle,go,,,,go-1,1,,,,,,
1,506.0,13,phase_2,purple_rhombus,go,,,,go-2,1,,,,,,
0,0,13,phase_2,purple_pentagon,stop,blue,0.0,0-SSD,go-2,4,,,,,,
1,547.0,13,phase_2,purple_circle,go,,,,go-2,1,,,,,,
1,466.0,13,phase_2,purple_circle,go,,,,go-2,1,,,,,,
2,519.0,13,phase_2,red_pentagon,go,,,,go-1,1,,,,,,
1,562.0,13,phase_2,purple_rhombus,go,,,,go-2,1,,,,,,
2,572.0,13,phase_2,red_pentagon,go,,,,go-1,1,,,,,,
1,535.0,13,phase_2,purple_rhombus,go,,,,go-2,1,,,,,,
0,0,13,phase_2,purple_triangle,stop,green,150.0,tracking-SSD,go-2,4,,,,,,
1,756.0,13,phase_2,red_rhombus,go,,,,go-1,1,,,,,,
0,0,13,phase_2,purple_pentagon,stop,blue,0.0,0-SSD,go-2,4,,,,,,
0,0,13,phase_2,red_triangle,stop,green,200.0,tracking-SSD,go-1,4,,,,,,
2,1527.0,13,phase_2,red_triangle,go,,,,go-1,1,,,,,,
2,558.0,13,phase_2,red_triangle,go,,,,go-1,1,,,,,,
1,432.0,13,phase_2,red_circle,stop,green,250.0,tracking-SSD,go-1,3,,,,,,
2,542.0,13,phase_2,purple_pentagon,go,,,,go-2,1,,,,,,
0,0,13,phase_2,purple_circle,stop,blue,0.0,0-SSD,go-2,4,,,,,,
1,536.0,13,phase_2,purple_rhombus,go,,,,go-2,1,,,,,,
2,432.0,13,phase_2,red_circle,go,,,,go-1,2,,,,,,
2,621.0,13,phase_2,purple_triangle,go,,,,go-2,1,,,,,,
0,0,13,phase_2,purple_rhombus,stop,blue,0.0,0-SSD,go-2,4,,,,,,
1,572.0,13,phase_2,red_circle,go,,,,go-1,1,,,,,,
0,0,13,phase_2,purple_rhombus,stop,green,200.0,tracking-SSD,go-2,4,,,,,,
0,0,13,phase_2,red_rhombus,stop,blue,0.0,0-SSD,go-1,4,,,,,,
1,689.0,13,phase_2,red_circle,go,,,,go-1,1,,,,,,
2,710.0,13,phase_2,red_pentagon,go,,,,go-1,1,,,,,,
2,607.0,13,phase_2,red_pentagon,go,,,,go-1,1,,,,,,
2,588.0,14,phase_2,purple_triangle,go,,,,go-2,1,,,,,,
2,417.0,14,phase_2,red_triangle,go,,,,go-1,1,,,,,,
1,686.0,14,phase_2,red_rhombus,go,,,,go-1,1,,,,,,
1,493.0,14,phase_2,red_circle,go,,,,go-1,1,,,,,,
1,468.0,14,phase_2,red_circle,go,,,,go-1,1,,,,,,
1,432.0,14,phase_2,purple_circle,go,,,,go-2,1,,,,,,
1,454.0,14,phase_2,red_circle,go,,,,go-1,1,,,,,,
2,508.0,14,phase_2,purple_pentagon,go,,,,go-2,1,,,,,,
1,718.0,14,phase_2,purple_rhombus,go,,,,go-2,1,,,,,,
1,627.0,14,phase_2,purple_circle,go,,,,go-2,1,,,,,,
0,0,14,phase_2,purple_pentagon,stop,green,250.0,tracking-SSD,go-2,4,,,,,,
2,545.0,14,phase_2,red_triangle,stop,green,300.0,tracking-SSD,go-1,3,,,,,,
2,420.0,14,phase_2,red_triangle,go,,,,go-1,1,,,,,,
1,417.0,14,phase_2,purple_circle,go,,,,go-2,1,,,,,,
2,450.0,14,phase_2,red_pentagon,go,,,,go-1,1,,,,,,
1,559.0,14,phase_2,purple_rhombus,go,,,,go-2,1,,,,,,
2,456.0,14,phase_2,purple_pentagon,go,,,,go-2,1,,,,,,
1,543.0,14,phase_2,purple_rhombus,stop,green,250.0,tracking-SSD,go-2,3,,,,,,
2,474.0,14,phase_2,purple_pentagon,go,,,,go-2,1,,,,,,
0,0,14,phase_2,red_circle,stop,blue,0.0,0-SSD,go-1,4,,,,,,
1,492.0,14,phase_2,red_rhombus,go,,,,go-1,1,,,,,,
2,444.0,14,phase_2,red_triangle,go,,,,go-1,1,,,,,,
1,441.0,14,phase_2,purple_rhombus,go,,,,go-2,1,,,,,,
2,563.0,14,phase_2,purple_pentagon,go,,,,go-2,1,,,,,,
0,0,14,phase_2,red_pentagon,stop,blue,0.0,0-SSD,go-1,4,,,,,,
0,0,14,phase_2,purple_pentagon,stop,blue,0.0,0-SSD,go-2,4,,,,,,
1,442.0,14,phase_2,purple_rhombus,stop,green,200.0,tracking-SSD,go-2,3,,,,,,
0,0,14,phase_2,purple_pentagon,stop,green,150.0,tracking-SSD,go-2,4,,,,,,
2,493.0,14,phase_2,red_triangle,stop,green,200.0,tracking-SSD,go-1,3,,,,,,
2,481.0,14,phase_2,red_triangle,go,,,,go-1,1,,,,,,
2,456.0,14,phase_2,purple_triangle,go,,,,go-2,1,,,,,,
0,0,14,phase_2,purple_triangle,stop,blue,0.0,0-SSD,go-2,4,,,,,,
1,385.0,14,phase_2,red_circle,go,,,,go-1,1,,,,,,
1,416.0,14,phase_2,red_rhombus,go,,,,go-1,1,,,,,,
2,728.0,14,phase_2,purple_triangle,go,,,,go-2,1,,,,,,
0,0,14,phase_2,red_pentagon,stop,green,150.0,tracking-SSD,go-1,4,,,,,,
1,611.0,14,phase_2,purple_circle,go,,,,go-2,1,,,,,,
1,372.0,14,phase_2,red_circle,go,,,,go-1,1,,,,,,
0,0,14,phase_2,purple_triangle,stop,blue,0.0,0-SSD,go-2,4,,,,,,
0,0,14,phase_2,purple_circle,stop,blue,0.0,0-SSD,go-2,4,,,,,,
0,0,14,phase_2,red_rhombus,stop,blue,0.0,0-SSD,go-1,4,,,,,,
1,632.0,14,phase_2,purple_rhombus,go,,,,go-2,1,,,,,,
0,0,14,phase_2,red_triangle,stop,blue,0.0,0-SSD,go-1,4,,,,,,
2,627.0,14,phase_2,red_pentagon,go,,,,go-1,1,,,,,,
1,545.0,14,phase_2,purple_rhombus,go,,,,go-2,1,,,,,,
0,0,14,phase_2,red_rhombus,stop,green,200.0,tracking-SSD,go-1,4,,,,,,
1,642.0,14,phase_2,red_circle,go,,,,go-1,1,,,,,,
2,572.0,14,phase_2,red_pentagon,go,,,,go-1,1,,,,,,
0,0,15,phase_2,red_triangle,stop,blue,0.0,0-SSD,go-1,4,,,,,,
1,629.0,15,phase_2,purple_rhombus,stop,green,250.0,tracking-SSD,go-2,3,,,,,,
2,559.0,15,phase_2,red_triangle,stop,green,200.0,tracking-SSD,go-1,3,,,,,,
2,703.0,15,phase_2,purple_pentagon,go,,,,go-2,1,,,,,,
1,564.0,15,phase_2,red_rhombus,go,,,,go-1,1,,,,,,
2,529.0,15,phase_2,red_pentagon,go,,,,go-1,1,,,,,,
2,503.0,15,phase_2,purple_pentagon,go,,,,go-2,1,,,,,,
1,512.0,15,phase_2,purple_rhombus,go,,,,go-2,1,,,,,,
2,600.0,15,phase_2,red_triangle,go,,,,go-1,1,,,,,,
2,496.0,15,phase_2,purple_triangle,go,,,,go-2,1,,,,,,
1,572.0,15,phase_2,purple_rhombus,go,,,,go-2,1,,,,,,
0,0,15,phase_2,red_triangle,stop,green,150.0,tracking-SSD,go-1,4,,,,,,
1,375.0,15,phase_2,red_circle,go,,,,go-1,1,,,,,,
2,429.0,15,phase_2,red_pentagon,go,,,,go-1,1,,,,,,
2,494.0,15,phase_2,purple_pentagon,go,,,,go-2,1,,,,,,
1,469.0,15,phase_2,purple_rhombus,go,,,,go-2,1,,,,,,
2,522.0,15,phase_2,red_pentagon,go,,,,go-1,1,,,,,,
2,464.0,15,phase_2,purple_pentagon,stop,green,200.0,tracking-SSD,go-2,3,,,,,,
1,495.0,15,phase_2,purple_circle,go,,,,go-2,1,,,,,,
1,459.0,15,phase_2,red_circle,go,,,,go-1,1,,,,,,
0,0,15,phase_2,purple_rhombus,stop,blue,0.0,0-SSD,go-2,4,,,,,,
2,443.0,15,phase_2,red_triangle,go,,,,go-1,1,,,,,,
0,0,15,phase_2,red_circle,stop,blue,0.0,0-SSD,go-1,4,,,,,,
0,0,15,phase_2,purple_triangle,stop,blue,0.0,0-SSD,go-2,4,,,,,,
1,638.0,15,phase_2,red_rhombus,go,,,,go-1,1,,,,,,
1,355.0,15,phase_2,red_circle,go,,,,go-1,1,,,,,,
0,0,15,phase_2,red_triangle,stop,blue,0.0,0-SSD,go-1,4,,,,,,
0,0,15,phase_2,red_rhombus,stop,green,150.0,tracking-SSD,go-1,4,,,,,,
2,462.0,15,phase_2,purple_pentagon,go,,,,go-2,1,,,,,,
0,0,15,phase_2,red_triangle,stop,blue,0.0,0-SSD,go-1,4,,,,,,
1,558.0,15,phase_2,purple_rhombus,go,,,,go-2,1,,,,,,
1,364.0,15,phase_2,purple_circle,go,,,,go-2,1,,,,,,
2,418.0,15,phase_2,red_pentagon,go,,,,go-1,1,,,,,,
2,415.0,15,phase_2,purple_triangle,go,,,,go-2,1,,,,,,
1,469.0,15,phase_2,red_pentagon,go,,,,go-1,2,,,,,,
1,556.0,15,phase_2,red_circle,go,,,,go-1,1,,,,,,
1,722.0,15,phase_2,purple_rhombus,go,,,,go-2,1,,,,,,
1,596.0,15,phase_2,red_circle,go,,,,go-1,1,,,,,,
1,684.0,15,phase_2,red_rhombus,go,,,,go-1,1,,,,,,
0,0,15,phase_2,purple_rhombus,stop,green,200.0,tracking-SSD,go-2,4,,,,,,
2,431.0,15,phase_2,red_pentagon,stop,green,250.0,tracking-SSD,go-1,3,,,,,,
1,564.0,15,phase_2,purple_circle,stop,green,200.0,tracking-SSD,go-2,3,,,,,,
0,0,15,phase_2,purple_circle,stop,blue,0.0,0-SSD,go-2,4,,,,,,
0,0,15,phase_2,purple_triangle,stop,blue,0.0,0-SSD,go-2,4,,,,,,
1,578.0,15,phase_2,purple_circle,go,,,,go-2,1,,,,,,
2,565.0,15,phase_2,purple_triangle,go,,,,go-2,1,,,,,,
1,551.0,15,phase_2,purple_circle,go,,,,go-2,1,,,,,,
2,559.0,15,phase_2,red_pentagon,go,,,,go-1,1,,,,,,
1,409.0,16,phase_2,red_circle,go,,,,go-1,1,,,,,,
1,541.0,16,phase_2,red_triangle,go,,,,go-1,2,,,,,,
2,471.0,16,phase_2,red_triangle,go,,,,go-1,1,,,,,,
1,513.0,16,phase_2,red_circle,go,,,,go-1,1,,,,,,
1,557.0,16,phase_2,purple_circle,go,,,,go-2,1,,,,,,
0,0,16,phase_2,purple_rhombus,stop,blue,0.0,0-SSD,go-2,4,,,,,,
2,551.0,16,phase_2,red_pentagon,go,,,,go-1,1,,,,,,
2,391.0,16,phase_2,purple_pentagon,go,,,,go-2,1,,,,,,
2,512.0,16,phase_2,red_pentagon,go,,,,go-1,1,,,,,,
2,555.0,16,phase_2,red_triangle,go,,,,go-1,1,,,,,,
0,0,16,phase_2,red_triangle,stop,green,150.0,tracking-SSD,go-1,4,,,,,,
1,662.0,16,phase_2,red_rhombus,stop,green,200.0,tracking-SSD,go-1,3,,,,,,
0,0,16,phase_2,red_pentagon,stop,blue,0.0,0-SSD,go-1,4,,,,,,
1,589.0,16,phase_2,purple_rhombus,go,,,,go-2,1,,,,,,
0,0,16,phase_2,purple_circle,stop,blue,0.0,0-SSD,go-2,4,,,,,,
2,506.0,16,phase_2,red_pentagon,go,,,,go-1,1,,,,,,
0,0,16,phase_2,purple_rhombus,stop,green,150.0,tracking-SSD,go-2,4,,,,,,
2,456.0,16,phase_2,red_triangle,go,,,,go-1,1,,,,,,
0,0,16,phase_2,red_triangle,stop,blue,0.0,0-SSD,go-1,4,,,,,,
1,596.0,16,phase_2,red_rhombus,go,,,,go-1,1,,,,,,
0,0,16,phase_2,purple_triangle,stop,blue,0.0,0-SSD,go-2,4,,,,,,
1,557.0,16,phase_2,red_circle,go,,,,go-1,1,,,,,,
1,555.0,16,phase_2,red_rhombus,go,,,,go-1,1,,,,,,
1,451.0,16,phase_2,purple_rhombus,stop,green,200.0,tracking-SSD,go-2,3,,,,,,
0,0,16,phase_2,purple_rhombus,stop,green,150.0,tracking-SSD,go-2,4,,,,,,
2,592.0,16,phase_2,red_triangle,go,,,,go-1,1,,,,,,
2,376.0,16,phase_2,purple_triangle,go,,,,go-2,1,,,,,,
2,408.0,16,phase_2,purple_triangle,go,,,,go-2,1,,,,,,
0,0,16,phase_2,red_pentagon,stop,blue,0.0,0-SSD,go-1,4,,,,,,
2,414.0,16,phase_2,red_pentagon,go,,,,go-1,1,,,,,,
2,422.0,16,phase_2,purple_triangle,go,,,,go-2,1,,,,,,
1,432.0,16,phase_2,purple_pentagon,go,,,,go-2,2,,,,,,
1,565.0,16,phase_2,purple_circle,go,,,,go-2,1,,,,,,
2,552.0,16,phase_2,purple_pentagon,stop,green,200.0,tracking-SSD,go-2,3,,,,,,
0,0,16,phase_2,red_pentagon,stop,green,150.0,tracking-SSD,go-1,4,,,,,,
1,525.0,16,phase_2,purple_circle,go,,,,go-2,1,,,,,,
1,467.0,16,phase_2,purple_circle,go,,,,go-2,1,,,,,,
2,498.0,16,phase_2,purple_pentagon,go,,,,go-2,1,,,,,,
0,0,16,phase_2,purple_triangle,stop,blue,0.0,0-SSD,go-2,4,,,,,,
1,741.0,16,phase_2,purple_rhombus,go,,,,go-2,1,,,,,,
1,457.0,16,phase_2,purple_rhombus,go,,,,go-2,1,,,,,,
2,511.0,16,phase_2,purple_pentagon,go,,,,go-2,1,,,,,,
1,552.0,16,phase_2,red_circle,go,,,,go-1,1,,,,,,
1,414.0,16,phase_2,red_circle,stop,green,200.0,tracking-SSD,go-1,3,,,,,,
0,0,16,phase_2,red_circle,stop,blue,0.0,0-SSD,go-1,4,,,,,,
1,590.0,16,phase_2,red_rhombus,go,,,,go-1,1,,,,,,
1,621.0,16,phase_2,purple_circle,go,,,,go-2,1,,,,,,
1,630.0,16,phase_2,purple_rhombus,go,,,,go-2,1,,,,,,
0,0,17,phase_2,red_triangle,stop,blue,0.0,0-SSD,go-1,4,,,,,,
2,575.0,17,phase_2,purple_pentagon,go,,,,go-2,1,,,,,,
1,551.0,17,phase_2,purple_circle,stop,green,150.0,tracking-SSD,go-2,3,,,,,,
2,570.0,17,phase_2,purple_pentagon,go,,,,go-2,1,,,,,,
1,489.0,17,phase_2,red_rhombus,go,,,,go-1,1,,,,,,
0,0,17,phase_2,red_pentagon,stop,green,100.0,tracking-SSD,go-1,4,,,,,,
0,0,17,phase_2,purple_triangle,stop,blue,0.0,0-SSD,go-2,4,,,,,,
2,470.0,17,phase_2,red_pentagon,go,,,,go-1,1,,,,,,
1,581.0,17,phase_2,red_rhombus,go,,,,go-1,1,,,,,,
2,500.0,17,phase_2,purple_pentagon,go,,,,go-2,1,,,,,,
0,0,17,phase_2,red_rhombus,stop,blue,0.0,0-SSD,go-1,4,,,,,,
1,619.0,17,phase_2,purple_rhombus,go,,,,go-2,1,,,,,,
0,0,17,phase_2,red_circle,stop,green,150.0,tracking-SSD,go-1,4,,,,,,
2,658.0,17,phase_2,purple_triangle,go,,,,go-2,1,,,,,,
2,431.0,17,phase_2,red_pentagon,go,,,,go-1,1,,,,,,
2,462.0,17,phase_2,red_triangle,go,,,,go-1,1,,,,,,
2,458.0,17,phase_2,purple_triangle,go,,,,go-2,1,,,,,,
2,444.0,17,phase_2,purple_triangle,go,,,,go-2,1,,,,,,
1,498.0,17,phase_2,purple_circle,go,,,,go-2,1,,,,,,
1,496.0,17,phase_2,purple_circle,go,,,,go-2,1,,,,,,
0,0,17,phase_2,purple_circle,stop,blue,0.0,0-SSD,go-2,4,,,,,,
1,434.0,17,phase_2,purple_circle,go,,,,go-2,1,,,,,,
2,499.0,17,phase_2,purple_rhombus,go,,,,go-2,2,,,,,,
0,0,17,phase_2,red_pentagon,stop,green,200.0,tracking-SSD,go-1,4,,,,,,
1,461.0,17,phase_2,red_triangle,go,,,,go-1,2,,,,,,
0,0,17,phase_2,red_rhombus,stop,blue,0.0,0-SSD,go-1,4,,,,,,
2,422.0,17,phase_2,red_pentagon,go,,,,go-1,1,,,,,,
2,452.0,17,phase_2,purple_triangle,go,,,,go-2,1,,,,,,
2,472.0,17,phase_2,purple_triangle,go,,,,go-2,1,,,,,,
2,550.0,17,phase_2,red_pentagon,go,,,,go-1,1,,,,,,
1,670.0,17,phase_2,red_rhombus,go,,,,go-1,1,,,,,,
2,634.0,17,phase_2,red_triangle,go,,,,go-1,1,,,,,,
2,677.0,17,phase_2,red_pentagon,go,,,,go-1,1,,,,,,
0,0,17,phase_2,red_circle,stop,blue,0.0,0-SSD,go-1,4,,,,,,
1,594.0,17,phase_2,red_rhombus,go,,,,go-1,1,,,,,,
1,558.0,17,phase_2,purple_circle,stop,green,250.0,tracking-SSD,go-2,3,,,,,,
0,0,17,phase_2,purple_pentagon,stop,blue,0.0,0-SSD,go-2,4,,,,,,
0,0,17,phase_2,red_circle,stop,green,200.0,tracking-SSD,go-1,4,,,,,,
0,0,17,phase_2,purple_rhombus,stop,blue,0.0,0-SSD,go-2,4,,,,,,
2,493.0,17,phase_2,red_triangle,go,,,,go-1,1,,,,,,
1,546.0,17,phase_2,red_circle,go,,,,go-1,1,,,,,,
1,521.0,17,phase_2,purple_rhombus,stop,green,250.0,tracking-SSD,go-2,3,,,,,,
1,519.0,17,phase_2,purple_circle,go,,,,go-2,1,,,,,,
1,561.0,17,phase_2,purple_circle,go,,,,go-2,1,,,,,,
2,570.0,17,phase_2,purple_pentagon,stop,green,200.0,tracking-SSD,go-2,3,,,,,,
2,421.0,17,phase_2,red_rhombus,go,,,,go-1,2,,,,,,
1,778.0,17,phase_2,red_rhombus,go,,,,go-1,1,,,,,,
2,731.0,17,phase_2,purple_triangle,go,,,,go-2,1,,,,,,
,757.0,1,phase_3,,,,,,,,purple_square,go-2,purple_square,go-2,green_square,tracking-SSD
,819.0,1,phase_3,,,,,,,,blue_square,0-SSD,purple_square,go-2,blue_square,0-SSD
,1714.0,1,phase_3,,,,,,,,blue_square,0-SSD,blue_square,0-SSD,green_square,tracking-SSD
,1125.0,1,phase_3,,,,,,,,green_square,tracking-SSD,red_square,go-1,green_square,tracking-SSD
,1053.0,1,phase_3,,,,,,,,blue_square,0-SSD,red_square,go-1,blue_square,0-SSD
,980.0,1,phase_3,,,,,,,,red_square,go-1,red_square,go-1,purple_square,go-2
,572.0,1,phase_3,,,,,,,,red_square,go-1,blue_square,0-SSD,red_square,go-1
,623.0,1,phase_3,,,,,,,,purple_square,go-2,purple_square,go-2,red_square,go-1
,652.0,1,phase_3,,,,,,,,purple_square,go-2,green_square,tracking-SSD,purple_square,go-2
,817.0,1,phase_3,,,,,,,,blue_square,0-SSD,blue_square,0-SSD,purple_square,go-2
,610.0,1,phase_3,,,,,,,,green_square,tracking-SSD,green_square,tracking-SSD,red_square,go-1
,785.0,1,phase_3,,,,,,,,blue_square,0-SSD,green_square,tracking-SSD,blue_square,0-SSD
,769.0,2,phase_3,,,,,,,,blue_square,0-SSD,purple_square,go-2,blue_square,0-SSD
,932.0,2,phase_3,,,,,,,,green_square,tracking-SSD,purple_square,go-2,green_square,tracking-SSD
,994.0,2,phase_3,,,,,,,,blue_square,0-SSD,red_square,go-1,blue_square,0-SSD
,901.0,2,phase_3,,,,,,,,blue_square,0-SSD,blue_square,0-SSD,green_square,tracking-SSD
,637.0,2,phase_3,,,,,,,,purple_square,go-2,red_square,go-1,purple_square,go-2
,543.0,2,phase_3,,,,,,,,green_square,tracking-SSD,red_square,go-1,green_square,tracking-SSD
,652.0,2,phase_3,,,,,,,,green_square,tracking-SSD,green_square,tracking-SSD,purple_square,go-2
,1626.0,2,phase_3,,,,,,,,blue_square,0-SSD,blue_square,0-SSD,red_square,go-1
,800.0,2,phase_3,,,,,,,,blue_square,0-SSD,blue_square,0-SSD,purple_square,go-2
,1146.0,2,phase_3,,,,,,,,purple_square,go-2,purple_square,go-2,red_square,go-1
,577.0,2,phase_3,,,,,,,,green_square,tracking-SSD,green_square,tracking-SSD,red_square,go-1
,822.0,2,phase_3,,,,,,,,green_square,tracking-SSD,green_square,tracking-SSD,blue_square,0-SSD
,1926.0,3,phase_3,,,,,,,,green_square,tracking-SSD,blue_square,0-SSD,green_square,tracking-SSD
,1066.0,3,phase_3,,,,,,,,green_square,tracking-SSD,red_square,go-1,green_square,tracking-SSD
,848.0,3,phase_3,,,,,,,,blue_square,0-SSD,purple_square,go-2,blue_square,0-SSD
,709.0,3,phase_3,,,,,,,,blue_square,0-SSD,red_square,go-1,blue_square,0-SSD
,738.0,3,phase_3,,,,,,,,green_square,tracking-SSD,purple_square,go-2,green_square,tracking-SSD
,836.0,3,phase_3,,,,,,,,purple_square,go-2,red_square,go-1,purple_square,go-2
,640.0,3,phase_3,,,,,,,,purple_square,go-2,purple_square,go-2,red_square,go-1
,681.0,3,phase_3,,,,,,,,blue_square,0-SSD,blue_square,0-SSD,red_square,go-1
,519.0,3,phase_3,,,,,,,,blue_square,0-SSD,blue_square,0-SSD,purple_square,go-2
,908.0,3,phase_3,,,,,,,,green_square,tracking-SSD,green_square,tracking-SSD,blue_square,0-SSD
,566.0,3,phase_3,,,,,,,,green_square,tracking-SSD,green_square,tracking-SSD,purple_square,go-2
,584.0,3,phase_3,,,,,,,,green_square,tracking-SSD,green_square,tracking-SSD,red_square,go-1
,1095.0,4,phase_3,,,,,,,,blue_square,0-SSD,red_square,go-1,blue_square,0-SSD
,1067.0,4,phase_3,,,,,,,,green_square,tracking-SSD,blue_square,0-SSD,green_square,tracking-SSD
,1130.0,4,phase_3,,,,,,,,purple_square,go-2,red_square,go-1,purple_square,go-2
,664.0,4,phase_3,,,,,,,,purple_square,go-2,purple_square,go-2,green_square,tracking-SSD
,895.0,4,phase_3,,,,,,,,blue_square,0-SSD,purple_square,go-2,blue_square,0-SSD
,734.0,4,phase_3,,,,,,,,green_square,tracking-SSD,red_square,go-1,green_square,tracking-SSD
,549.0,4,phase_3,,,,,,,,green_square,tracking-SSD,green_square,tracking-SSD,purple_square,go-2
,567.0,4,phase_3,,,,,,,,green_square,tracking-SSD,green_square,tracking-SSD,red_square,go-1
,945.0,4,phase_3,,,,,,,,blue_square,0-SSD,blue_square,0-SSD,purple_square,go-2
,694.0,4,phase_3,,,,,,,,blue_square,0-SSD,blue_square,0-SSD,red_square,go-1
,1150.0,4,phase_3,,,,,,,,red_square,go-1,purple_square,go-2,red_square,go-1
,1405.0,4,phase_3,,,,,,,,green_square,tracking-SSD,green_square,tracking-SSD,blue_square,0-SSD
,1341.0,5,phase_3,,,,,,,,green_square,tracking-SSD,red_square,go-1,green_square,tracking-SSD
,1180.0,5,phase_3,,,,,,,,green_square,tracking-SSD,purple_square,go-2,green_square,tracking-SSD
0,0,5,phase_3,,,,,,,,,,red_square,go-1,purple_square,go-2
,754.0,5,phase_3,,,,,,,,blue_square,0-SSD,red_square,go-1,blue_square,0-SSD
,525.0,5,phase_3,,,,,,,,blue_square,0-SSD,purple_square,go-2,blue_square,0-SSD
,948.0,5,phase_3,,,,,,,,green_square,tracking-SSD,blue_square,0-SSD,green_square,tracking-SSD
,641.0,5,phase_3,,,,,,,,blue_square,0-SSD,blue_square,0-SSD,red_square,go-1
,557.0,5,phase_3,,,,,,,,green_square,tracking-SSD,green_square,tracking-SSD,purple_square,go-2
,574.0,5,phase_3,,,,,,,,blue_square,0-SSD,blue_square,0-SSD,purple_square,go-2
,627.0,5,phase_3,,,,,,,,purple_square,go-2,purple_square,go-2,red_square,go-1
,667.0,5,phase_3,,,,,,,,green_square,tracking-SSD,green_square,tracking-SSD,blue_square,0-SSD
,483.0,5,phase_3,,,,,,,,green_square,tracking-SSD,green_square,tracking-SSD,red_square,go-1
