response,reaction_time,block,which_phase,stim,stop_signal_trial_type,stop_signal_stimulus,SSD,SSD_type,condition,accuracy,chosen_stim,chosen_cond,stim_left,cond_left,stim_right,cond_right
1,510.0,1,phase_2,purple_circle,go,,,,go-1,1,,,,,,
2,563.0,1,phase_2,purple_rhombus,go,,,,go-1,1,,,,,,
0,0,1,phase_2,red_pentagon,stop,green,250.0,tracking-SSD,go-2,4,,,,,,
0,0,1,phase_2,red_rhombus,stop,blue,0.0,0-SSD,go-2,4,,,,,,
2,548.0,1,phase_2,red_rhombus,go,,,,go-2,1,,,,,,
0,0,1,phase_2,purple_circle,stop,green,300.0,tracking-SSD,go-1,4,,,,,,
2,453.0,1,phase_2,purple_rhombus,stop,green,350.0,tracking-SSD,go-1,3,,,,,,
0,0,1,phase_2,purple_triangle,stop,green,300.0,tracking-SSD,go-1,4,,,,,,
2,540.0,1,phase_2,red_pentagon,stop,green,350.0,tracking-SSD,go-2,3,,,,,,
0,0,1,phase_2,purple_circle,stop,blue,0.0,0-SSD,go-1,4,,,,,,
2,548.0,1,phase_2,purple_triangle,go,,,,go-1,2,,,,,,
2,511.0,1,phase_2,purple_rhombus,go,,,,go-1,1,,,,,,
1,419.0,1,phase_2,red_triangle,go,,,,go-2,1,,,,,,
0,0,1,phase_2,red_circle,stop,blue,0.0,0-SSD,go-2,4,,,,,,
2,740.0,1,phase_2,purple_rhombus,go,,,,go-1,1,,,,,,
0,0,1,phase_2,purple_triangle,stop,blue,0.0,0-SSD,go-1,4,,,,,,
2,422.0,1,phase_2,red_triangle,go,,,,go-2,2,,,,,,
2,499.0,1,phase_2,purple_pentagon,go,,,,go-1,1,,,,,,
2,529.0,1,phase_2,purple_pentagon,go,,,,go-1,1,,,,,,
1,538.0,1,phase_2,purple_circle,go,,,,go-1,1,,,,,,
2,457.0,1,phase_2,red_triangle,go,,,,go-2,2,,,,,,
2,567.0,1,phase_2,purple_rhombus,go,,,,go-1,1,,,,,,
0,0,1,phase_2,purple_circle,stop,blue,0.0,0-SSD,go-1,4,,,,,,
1,494.0,1,phase_2,red_circle,go,,,,go-2,1,,,,,,
1,503.0,1,phase_2,red_circle,go,,,,go-2,1,,,,,,
1,478.0,1,phase_2,purple_triangle,go,,,,go-1,1,,,,,,
2,544.0,1,phase_2,red_pentagon,go,,,,go-2,1,,,,,,
2,484.0,1,phase_2,red_pentagon,go,,,,go-2,1,,,,,,
0,0,1,phase_2,red_circle,stop,blue,0.0,0-SSD,go-2,4,,,,,,
2,560.0,1,phase_2,red_pentagon,go,,,,go-2,1,,,,,,
0,0,1,phase_2,red_rhombus,stop,green,300.0,tracking-SSD,go-2,4,,,,,,
1,512.0,1,phase_2,purple_triangle,go,,,,go-1,1,,,,,,
1,396.0,1,phase_2,purple_triangle,go,,,,go-1,1,,,,,,
2,574.0,1,phase_2,purple_pentagon,go,,,,go-1,1,,,,,,
2,482.0,1,phase_2,red_pentagon,go,,,,go-2,1,,,,,,
1,537.0,1,phase_2,red_triangle,stop,green,350.0,tracking-SSD,go-2,3,,,,,,
2,546.0,1,phase_2,red_rhombus,go,,,,go-2,1,,,,,,
1,610.0,1,phase_2,purple_triangle,go,,,,go-1,1,,,,,,
1,451.0,1,phase_2,red_triangle,go,,,,go-2,1,,,,,,
0,0,1,phase_2,red_pentagon,stop,blue,0.0,0-SSD,go-2,4,,,,,,
2,603.0,1,phase_2,purple_pentagon,go,,,,go-1,1,,,,,,
1,578.0,1,phase_2,red_circle,go,,,,go-2,1,,,,,,
1,431.0,1,phase_2,purple_circle,stop,green,300.0,tracking-SSD,go-1,3,,,,,,
2,553.0,1,phase_2,red_rhombus,go,,,,go-2,1,,,,,,
2,607.0,1,phase_2,purple_pentagon,go,,,,go-1,1,,,,,,
1,560.0,1,phase_2,red_rhombus,go,,,,go-2,2,,,,,,
1,580.0,1,phase_2,red_circle,go,,,,go-2,1,,,,,,
0,0,1,phase_2,purple_rhombus,stop,blue,0.0,0-SSD,go-1,4,,,,,,
1,712.0,2,phase_2,purple_rhombus,go,,,,go-1,2,,,,,,
0,0,2,phase_2,purple_triangle,stop,green,250.0,tracking-SSD,go-1,4,,,,,,
1,551.0,2,phase_2,red_circle,stop,green,300.0,tracking-SSD,go-2,3,,,,,,
0,0,2,phase_2,purple_circle,stop,blue,0.0,0-SSD,go-1,4,,,,,,
1,536.0,2,phase_2,red_triangle,go,,,,go-2,1,,,,,,
2,556.0,2,phase_2,purple_pentagon,go,,,,go-1,1,,,,,,
1,351.0,2,phase_2,red_triangle,go,,,,go-2,1,,,,,,
2,461.0,2,phase_2,red_pentagon,go,,,,go-2,1,,,,,,
1,537.0,2,phase_2,purple_circle,go,,,,go-1,1,,,,,,
0,0,2,phase_2,purple_pentagon,stop,blue,0.0,0-SSD,go-1,4,,,,,,
2,579.0,2,phase_2,red_pentagon,go,,,,go-2,1,,,,,,
2,397.0,2,phase_2,red_pentagon,go,,,,go-2,1,,,,,,
2,506.0,2,phase_2,purple_rhombus,go,,,,go-1,1,,,,,,
2,391.0,2,phase_2,purple_pentagon,go,,,,go-1,1,,,,,,
1,568.0,2,phase_2,purple_triangle,stop,green,250.0,tracking-SSD,go-1,3,,,,,,
1,409.0,2,phase_2,red_triangle,stop,green,200.0,tracking-SSD,go-2,3,,,,,,
2,440.0,2,phase_2,red_circle,go,,,,go-2,2,,,,,,
0,0,2,phase_2,purple_triangle,stop,blue,0.0,0-SSD,go-1,4,,,,,,
1,503.0,2,phase_2,purple_circle,go,,,,go-1,1,,,,,,
1,468.0,2,phase_2,red_rhombus,go,,,,go-2,2,,,,,,
0,0,2,phase_2,red_rhombus,stop,green,150.0,tracking-SSD,go-2,4,,,,,,
2,621.0,2,phase_2,red_pentagon,go,,,,go-2,1,,,,,,
1,664.0,2,phase_2,red_triangle,go,,,,go-2,1,,,,,,
0,0,2,phase_2,red_pentagon,stop,blue,0.0,0-SSD,go-2,4,,,,,,
2,658.0,2,phase_2,red_rhombus,go,,,,go-2,1,,,,,,
0,0,2,phase_2,red_rhombus,stop,blue,0.0,0-SSD,go-2,4,,,,,,
2,520.0,2,phase_2,purple_rhombus,go,,,,go-1,1,,,,,,
1,539.0,2,phase_2,red_circle,go,,,,go-2,1,,,,,,
1,436.0,2,phase_2,purple_circle,go,,,,go-1,1,,,,,,
2,703.0,2,phase_2,purple_rhombus,go,,,,go-1,1,,,,,,
0,0,2,phase_2,red_pentagon,stop,green,200.0,tracking-SSD,go-2,4,,,,,,
0,0,2,phase_2,red_triangle,stop,blue,0.0,0-SSD,go-2,4,,,,,,
0,0,2,phase_2,red_pentagon,stop,blue,0.0,0-SSD,go-2,4,,,,,,
2,504.0,2,phase_2,purple_pentagon,go,,,,go-1,1,,,,,,
1,569.0,2,phase_2,purple_circle,stop,green,250.0,tracking-SSD,go-1,3,,,,,,
1,398.0,2,phase_2,red_pentagon,go,,,,go-2,2,,,,,,
2,429.0,2,phase_2,purple_triangle,go,,,,go-1,2,,,,,,
1,483.0,2,phase_2,red_triangle,go,,,,go-2,1,,,,,,
1,335.0,2,phase_2,red_triangle,go,,,,go-2,1,,,,,,
1,501.0,2,phase_2,purple_rhombus,go,,,,go-1,2,,,,,,
1,577.0,2,phase_2,purple_circle,go,,,,go-1,1,,,,,,
2,619.0,2,phase_2,red_rhombus,go,,,,go-2,1,,,,,,
2,347.0,2,phase_2,purple_rhombus,go,,,,go-1,1,,,,,,
0,0,2,phase_2,purple_circle,stop,blue,0.0,0-SSD,go-1,4,,,,,,
1,420.0,2,phase_2,red_circle,go,,,,go-2,1,,,,,,
1,407.0,2,phase_2,purple_circle,go,,,,go-1,1,,,,,,
2,594.0,2,phase_2,purple_rhombus,go,,,,go-1,1,,,,,,
0,0,2,phase_2,purple_triangle,stop,green,200.0,tracking-SSD,go-1,4,,,,,,
1,566.0,3,phase_2,purple_circle,go,,,,go-1,1,,,,,,
2,518.0,3,phase_2,red_pentagon,go,,,,go-2,1,,,,,,
2,505.0,3,phase_2,red_rhombus,go,,,,go-2,1,,,,,,
0,0,3,phase_2,red_rhombus,stop,blue,0.0,0-SSD,go-2,4,,,,,,
2,512.0,3,phase_2,purple_circle,go,,,,go-1,2,,,,,,
2,454.0,3,phase_2,purple_pentagon,go,,,,go-1,1,,,,,,
2,316.0,3,phase_2,purple_pentagon,go,,,,go-1,1,,,,,,
1,314.0,3,phase_2,red_pentagon,go,,,,go-2,2,,,,,,
0,0,3,phase_2,red_rhombus,stop,blue,0.0,0-SSD,go-2,4,,,,,,
2,446.0,3,phase_2,purple_circle,go,,,,go-1,2,,,,,,
2,477.0,3,phase_2,purple_pentagon,go,,,,go-1,1,,,,,,
1,395.0,3,phase_2,red_triangle,go,,,,go-2,1,,,,,,
1,246.0,3,phase_2,purple_circle,go,,,,go-1,1,,,,,,
1,436.0,3,phase_2,purple_triangle,stop,green,250.0,tracking-SSD,go-1,3,,,,,,
2,389.0,3,phase_2,purple_circle,go,,,,go-1,2,,,,,,
1,352.0,3,phase_2,red_triangle,go,,,,go-2,1,,,,,,
0,0,3,phase_2,purple_circle,stop,green,200.0,tracking-SSD,go-1,4,,,,,,
0,0,3,phase_2,red_triangle,stop,green,250.0,tracking-SSD,go-2,4,,,,,,
0,0,3,phase_2,red_rhombus,stop,blue,0.0,0-SSD,go-2,4,,,,,,
1,536.0,3,phase_2,red_triangle,stop,green,300.0,tracking-SSD,go-2,3,,,,,,
0,0,3,phase_2,purple_pentagon,stop,blue,0.0,0-SSD,go-1,4,,,,,,
2,597.0,3,phase_2,red_rhombus,go,,,,go-2,1,,,,,,
2,539.0,3,phase_2,red_rhombus,go,,,,go-2,1,,,,,,
2,660.0,3,phase_2,red_pentagon,stop,green,250.0,tracking-SSD,go-2,3,,,,,,
0,0,3,phase_2,purple_pentagon,stop,blue,0.0,0-SSD,go-1,4,,,,,,
0,0,3,phase_2,purple_circle,stop,blue,0.0,0-SSD,go-1,4,,,,,,
1,554.0,3,phase_2,purple_triangle,go,,,,go-1,1,,,,,,
0,0,3,phase_2,purple_pentagon,stop,green,200.0,tracking-SSD,go-1,4,,,,,,
1,604.0,3,phase_2,red_triangle,go,,,,go-2,1,,,,,,
0,0,3,phase_2,red_circle,stop,blue,0.0,0-SSD,go-2,4,,,,,,
1,386.0,3,phase_2,purple_rhombus,go,,,,go-1,2,,,,,,
1,519.0,3,phase_2,purple_circle,go,,,,go-1,1,,,,,,
1,358.0,3,phase_2,purple_triangle,go,,,,go-1,1,,,,,,
2,525.0,3,phase_2,purple_rhombus,go,,,,go-1,1,,,,,,
2,478.0,3,phase_2,purple_rhombus,go,,,,go-1,1,,,,,,
0,0,3,phase_2,purple_circle,stop,green,250.0,tracking-SSD,go-1,4,,,,,,
1,383.0,3,phase_2,red_pentagon,go,,,,go-2,2,,,,,,
1,584.0,3,phase_2,red_triangle,stop,green,300.0,tracking-SSD,go-2,3,,,,,,
0,0,3,phase_2,purple_triangle,stop,blue,0.0,0-SSD,go-1,4,,,,,,
1,329.0,3,phase_2,purple_triangle,go,,,,go-1,1,,,,,,
2,608.0,3,phase_2,red_pentagon,go,,,,go-2,1,,,,,,
1,460.0,3,phase_2,purple_circle,go,,,,go-1,1,,,,,,
1,593.0,3,phase_2,red_rhombus,go,,,,go-2,2,,,,,,
1,343.0,3,phase_2,red_rhombus,go,,,,go-2,2,,,,,,
2,565.0,3,phase_2,red_pentagon,go,,,,go-2,1,,,,,,
2,393.0,3,phase_2,red_circle,go,,,,go-2,2,,,,,,
2,573.0,3,phase_2,red_rhombus,go,,,,go-2,1,,,,,,
1,527.0,3,phase_2,red_triangle,go,,,,go-2,1,,,,,,
2,611.0,4,phase_2,red_rhombus,go,,,,go-2,1,,,,,,
1,462.0,4,phase_2,purple_circle,go,,,,go-1,1,,,,,,
1,540.0,4,phase_2,purple_circle,go,,,,go-1,1,,,,,,
2,414.0,4,phase_2,red_pentagon,go,,,,go-2,1,,,,,,
2,344.0,4,phase_2,red_pentagon,go,,,,go-2,1,,,,,,
1,398.0,4,phase_2,purple_rhombus,go,,,,go-1,2,,,,,,
2,452.0,4,phase_2,purple_pentagon,go,,,,go-1,1,,,,,,
0,0,4,phase_2,purple_pentagon,stop,blue,0.0,0-SSD,go-1,4,,,,,,
2,367.0,4,phase_2,red_triangle,go,,,,go-2,2,,,,,,
2,444.0,4,phase_2,purple_pentagon,go,,,,go-1,1,,,,,,
2,429.0,4,phase_2,red_pentagon,go,,,,go-2,1,,,,,,
1,350.0,4,phase_2,red_triangle,stop,green,250.0,tracking-SSD,go-2,3,,,,,,
1,540.0,4,phase_2,red_circle,go,,,,go-2,1,,,,,,
2,526.0,4,phase_2,purple_rhombus,go,,,,go-1,1,,,,,,
2,524.0,4,phase_2,red_rhombus,go,,,,go-2,1,,,,,,
2,442.0,4,phase_2,red_pentagon,go,,,,go-2,1,,,,,,
0,0,4,phase_2,red_circle,stop,blue,0.0,0-SSD,go-2,4,,,,,,
2,415.0,4,phase_2,purple_triangle,go,,,,go-1,2,,,,,,
2,593.0,4,phase_2,purple_rhombus,go,,,,go-1,1,,,,,,
0,0,4,phase_2,purple_rhombus,stop,blue,0.0,0-SSD,go-1,4,,,,,,
1,362.0,4,phase_2,red_triangle,go,,,,go-2,1,,,,,,
2,473.0,4,phase_2,purple_rhombus,go,,,,go-1,1,,,,,,
1,335.0,4,phase_2,red_triangle,go,,,,go-2,1,,,,,,
2,446.0,4,phase_2,red_pentagon,go,,,,go-2,1,,,,,,
1,320.0,4,phase_2,red_triangle,go,,,,go-2,1,,,,,,
1,363.0,4,phase_2,purple_triangle,stop,green,200.0,tracking-SSD,go-1,3,,,,,,
0,0,4,phase_2,red_circle,stop,blue,0.0,0-SSD,go-2,4,,,,,,
0,0,4,phase_2,red_circle,stop,green,150.0,tracking-SSD,go-2,4,,,,,,
2,503.0,4,phase_2,red_pentagon,go,,,,go-2,1,,,,,,
1,545.0,4,phase_2,red_rhombus,go,,,,go-2,2,,,,,,
0,0,4,phase_2,purple_circle,stop,green,200.0,tracking-SSD,go-1,4,,,,,,
0,0,4,phase_2,purple_pentagon,stop,blue,0.0,0-SSD,go-1,4,,,,,,
0,0,4,phase_2,red_rhombus,stop,green,250.0,tracking-SSD,go-2,4,,,,,,
0,0,4,phase_2,purple_rhombus,stop,blue,0.0,0-SSD,go-1,4,,,,,,
1,645.0,4,phase_2,purple_circle,go,,,,go-1,1,,,,,,
1,452.0,4,phase_2,purple_circle,go,,,,go-1,1,,,,,,
1,449.0,4,phase_2,red_triangle,stop,green,300.0,tracking-SSD,go-2,3,,,,,,
0,0,4,phase_2,red_pentagon,stop,blue,0.0,0-SSD,go-2,4,,,,,,
0,0,4,phase_2,red_circle,stop,blue,0.0,0-SSD,go-2,4,,,,,,
1,442.0,4,phase_2,red_circle,go,,,,go-2,1,,,,,,
1,384.0,4,phase_2,purple_triangle,go,,,,go-1,1,,,,,,
0,0,4,phase_2,purple_rhombus,stop,green,250.0,tracking-SSD,go-1,4,,,,,,
2,548.0,4,phase_2,purple_pentagon,go,,,,go-1,1,,,,,,
1,490.0,4,phase_2,purple_triangle,go,,,,go-1,1,,,,,,
1,432.0,4,phase_2,purple_triangle,go,,,,go-1,1,,,,,,
1,372.0,4,phase_2,purple_triangle,stop,green,300.0,tracking-SSD,go-1,3,,,,,,
2,594.0,4,phase_2,purple_rhombus,go,,,,go-1,1,,,,,,
1,434.0,4,phase_2,red_circle,go,,,,go-2,1,,,,,,
1,419.0,5,phase_2,red_triangle,stop,green,250.0,tracking-SSD,go-2,3,,,,,,
0,0,5,phase_2,purple_circle,stop,green,200.0,tracking-SSD,go-1,4,,,,,,
2,662.0,5,phase_2,purple_pentagon,go,,,,go-1,1,,,,,,
1,513.0,5,phase_2,red_circle,go,,,,go-2,1,,,,,,
0,0,5,phase_2,purple_triangle,stop,blue,0.0,0-SSD,go-1,4,,,,,,
1,363.0,5,phase_2,red_triangle,go,,,,go-2,1,,,,,,
2,429.0,5,phase_2,purple_rhombus,stop,green,250.0,tracking-SSD,go-1,3,,,,,,
2,505.0,5,phase_2,purple_pentagon,go,,,,go-1,1,,,,,,
0,0,5,phase_2,red_circle,stop,blue,0.0,0-SSD,go-2,4,,,,,,
1,252.0,5,phase_2,purple_triangle,go,,,,go-1,1,,,,,,
1,330.0,5,phase_2,purple_triangle,go,,,,go-1,1,,,,,,
1,540.0,5,phase_2,red_rhombus,go,,,,go-2,2,,,,,,
2,470.0,5,phase_2,red_rhombus,stop,blue,0.0,0-SSD,go-2,3,,,,,,
1,445.0,5,phase_2,red_triangle,go,,,,go-2,1,,,,,,
2,611.0,5,phase_2,purple_pentagon,go,,,,go-1,1,,,,,,
2,542.0,5,phase_2,red_circle,go,,,,go-2,2,,,,,,
0,0,5,phase_2,purple_triangle,stop,blue,0.0,0-SSD,go-1,4,,,,,,
2,559.0,5,phase_2,red_pentagon,go,,,,go-2,1,,,,,,
1,444.0,5,phase_2,purple_triangle,go,,,,go-1,1,,,,,,
1,508.0,5,phase_2,red_circle,go,,,,go-2,1,,,,,,
2,440.0,5,phase_2,purple_pentagon,go,,,,go-1,1,,,,,,
2,617.0,5,phase_2,red_rhombus,go,,,,go-2,1,,,,,,
2,401.0,5,phase_2,purple_rhombus,stop,green,200.0,tracking-SSD,go-1,3,,,,,,
2,557.0,5,phase_2,purple_rhombus,stop,green,150.0,tracking-SSD,go-1,3,,,,,,
2,589.0,5,phase_2,purple_pentagon,go,,,,go-1,1,,,,,,
2,361.0,5,phase_2,purple_pentagon,go,,,,go-1,1,,,,,,
0,0,5,phase_2,red_rhombus,stop,blue,0.0,0-SSD,go-2,4,,,,,,
0,0,5,phase_2,red_rhombus,stop,green,100.0,tracking-SSD,go-2,4,,,,,,
1,511.0,5,phase_2,red_circle,go,,,,go-2,1,,,,,,
1,340.0,5,phase_2,red_circle,stop,green,150.0,tracking-SSD,go-2,3,,,,,,
2,451.0,5,phase_2,red_triangle,go,,,,go-2,2,,,,,,
2,493.0,5,phase_2,purple_pentagon,go,,,,go-1,1,,,,,,
1,469.0,5,phase_2,red_circle,go,,,,go-2,1,,,,,,
0,0,5,phase_2,purple_pentagon,stop,blue,0.0,0-SSD,go-1,4,,,,,,
0,0,5,phase_2,red_circle,stop,green,100.0,tracking-SSD,go-2,4,,,,,,
2,552.0,5,phase_2,red_rhombus,go,,,,go-2,1,,,,,,
0,0,5,phase_2,purple_pentagon,stop,blue,0.0,0-SSD,go-1,4,,,,,,
2,422.0,5,phase_2,red_circle,go,,,,go-2,2,,,,,,
1,476.0,5,phase_2,purple_triangle,go,,,,go-1,1,,,,,,
1,508.0,5,phase_2,purple_rhombus,go,,,,go-1,2,,,,,,
2,529.0,5,phase_2,purple_rhombus,go,,,,go-1,1,,,,,,
0,0,5,phase_2,red_rhombus,stop,blue,0.0,0-SSD,go-2,4,,,,,,
1,456.0,5,phase_2,purple_triangle,go,,,,go-1,1,,,,,,
1,510.0,5,phase_2,purple_circle,go,,,,go-1,1,,,,,,
1,645.0,5,phase_2,red_circle,go,,,,go-2,1,,,,,,
1,475.0,5,phase_2,purple_triangle,go,,,,go-1,1,,,,,,
2,787.0,5,phase_2,red_pentagon,go,,,,go-2,1,,,,,,
2,402.0,5,phase_2,red_pentagon,go,,,,go-2,1,,,,,,
1,330.0,6,phase_2,red_triangle,stop,green,150.0,tracking-SSD,go-2,3,,,,,,
1,486.0,6,phase_2,red_circle,go,,,,go-2,1,,,,,,
1,427.0,6,phase_2,purple_triangle,stop,green,100.0,tracking-SSD,go-1,3,,,,,,
2,539.0,6,phase_2,red_rhombus,go,,,,go-2,1,,,,,,
2,379.0,6,phase_2,red_rhombus,go,,,,go-2,1,,,,,,
1,444.0,6,phase_2,red_circle,go,,,,go-2,1,,,,,,
2,634.0,6,phase_2,purple_rhombus,go,,,,go-1,1,,,,,,
2,496.0,6,phase_2,red_pentagon,go,,,,go-2,1,,,,,,
1,651.0,6,phase_2,purple_circle,go,,,,go-1,1,,,,,,
1,527.0,6,phase_2,purple_triangle,stop,green,50.0,tracking-SSD,go-1,3,,,,,,
1,501.0,6,phase_2,red_circle,go,,,,go-2,1,,,,,,
2,510.0,6,phase_2,red_pentagon,go,,,,go-2,1,,,,,,
2,417.0,6,phase_2,red_pentagon,go,,,,go-2,1,,,,,,
2,549.0,6,phase_2,purple_rhombus,go,,,,go-1,1,,,,,,
1,537.0,6,phase_2,purple_circle,go,,,,go-1,1,,,,,,
2,421.0,6,phase_2,purple_pentagon,stop,green,0.0,tracking-SSD,go-1,3,,,,,,
0,0,6,phase_2,purple_pentagon,stop,blue,0.0,0-SSD,go-1,4,,,,,,
1,427.0,6,phase_2,red_circle,go,,,,go-2,1,,,,,,
1,447.0,6,phase_2,red_triangle,go,,,,go-2,1,,,,,,
0,0,6,phase_2,purple_circle,stop,green,0.0,tracking-SSD,go-1,4,,,,,,
0,0,6,phase_2,red_triangle,stop,blue,0.0,0-SSD,go-2,4,,,,,,
1,408.0,6,phase_2,red_triangle,go,,,,go-2,1,,,,,,
1,348.0,6,phase_2,red_triangle,go,,,,go-2,1,,,,,,
0,0,6,phase_2,red_rhombus,stop,blue,0.0,0-SSD,go-2,4,,,,,,
1,356.0,6,phase_2,purple_triangle,go,,,,go-1,1,,,,,,
2,445.0,6,phase_2,red_rhombus,go,,,,go-2,1,,,,,,
0,0,6,phase_2,purple_circle,stop,blue,0.0,0-SSD,go-1,4,,,,,,
2,531.0,6,phase_2,purple_rhombus,go,,,,go-1,1,,,,,,
2,506.0,6,phase_2,red_pentagon,go,,,,go-2,1,,,,,,
2,437.0,6,phase_2,purple_rhombus,go,,,,go-1,1,,,,,,
2,424.0,6,phase_2,red_circle,go,,,,go-2,2,,,,,,
2,478.0,6,phase_2,purple_pentagon,go,,,,go-1,1,,,,,,
2,363.0,6,phase_2,purple_pentagon,go,,,,go-1,1,,,,,,
1,766.0,6,phase_2,red_triangle,stop,green,50.0,tracking-SSD,go-2,3,,,,,,
2,516.0,6,phase_2,purple_rhombus,go,,,,go-1,1,,,,,,
1,538.0,6,phase_2,purple_circle,go,,,,go-1,1,,,,,,
1,591.0,6,phase_2,red_triangle,stop,green,0.0,tracking-SSD,go-2,3,,,,,,
0,0,6,phase_2,red_pentagon,stop,blue,0.0,0-SSD,go-2,4,,,,,,
0,0,6,phase_2,red_rhombus,stop,blue,0.0,0-SSD,go-2,4,,,,,,
2,563.0,6,phase_2,purple_pentagon,go,,,,go-1,1,,,,,,
1,640.0,6,phase_2,purple_rhombus,go,,,,go-1,2,,,,,,
2,594.0,6,phase_2,purple_pentagon,go,,,,go-1,1,,,,,,
0,0,6,phase_2,purple_rhombus,stop,blue,0.0,0-SSD,go-1,4,,,,,,
1,480.0,6,phase_2,red_circle,go,,,,go-2,1,,,,,,
0,0,6,phase_2,red_pentagon,stop,green,0.0,tracking-SSD,go-2,4,,,,,,
1,375.0,6,phase_2,purple_triangle,go,,,,go-1,1,,,,,,
1,408.0,6,phase_2,purple_triangle,go,,,,go-1,1,,,,,,
0,0,6,phase_2,purple_circle,stop,blue,0.0,0-SSD,go-1,4,,,,,,
0,0,7,phase_2,purple_rhombus,stop,blue,0.0,0-SSD,go-1,4,,,,,,
1,294.0,7,phase_2,red_triangle,go,,,,go-2,1,,,,,,
0,0,7,phase_2,purple_rhombus,stop,blue,0.0,0-SSD,go-1,4,,,,,,
1,378.0,7,phase_2,purple_pentagon,go,,,,go-1,2,,,,,,
1,456.0,7,phase_2,purple_circle,go,,,,go-1,1,,,,,,
0,0,7,phase_2,red_rhombus,stop,green,50.0,tracking-SSD,go-2,4,,,,,,
0,0,7,phase_2,red_triangle,stop,blue,0.0,0-SSD,go-2,4,,,,,,
2,507.0,7,phase_2,red_pentagon,go,,,,go-2,1,,,,,,
2,483.0,7,phase_2,purple_pentagon,go,,,,go-1,1,,,,,,
1,480.0,7,phase_2,red_circle,go,,,,go-2,1,,,,,,
2,466.0,7,phase_2,purple_pentagon,go,,,,go-1,1,,,,,,
2,464.0,7,phase_2,red_pentagon,go,,,,go-2,1,,,,,,
2,574.0,7,phase_2,purple_rhombus,go,,,,go-1,1,,,,,,
1,460.0,7,phase_2,red_circle,go,,,,go-2,1,,,,,,
1,503.0,7,phase_2,purple_triangle,go,,,,go-1,1,,,,,,
1,478.0,7,phase_2,red_triangle,stop,blue,0.0,0-SSD,go-2,3,,,,,,
2,420.0,7,phase_2,red_pentagon,go,,,,go-2,1,,,,,,
0,0,7,phase_2,red_pentagon,stop,green,100.0,tracking-SSD,go-2,4,,,,,,
0,0,7,phase_2,purple_circle,stop,green,150.0,tracking-SSD,go-1,4,,,,,,
1,369.0,7,phase_2,red_pentagon,stop,green,200.0,tracking-SSD,go-2,3,,,,,,
2,422.0,7,phase_2,purple_rhombus,go,,,,go-1,1,,,,,,
0,0,7,phase_2,red_circle,stop,blue,0.0,0-SSD,go-2,4,,,,,,
1,475.0,7,phase_2,purple_circle,go,,,,go-1,1,,,,,,
1,586.0,7,phase_2,purple_triangle,stop,green,150.0,tracking-SSD,go-1,3,,,,,,
2,663.0,7,phase_2,red_pentagon,go,,,,go-2,1,,,,,,
0,0,7,phase_2,purple_rhombus,stop,green,100.0,tracking-SSD,go-1,4,,,,,,
1,489.0,7,phase_2,red_circle,go,,,,go-2,1,,,,,,
1,441.0,7,phase_2,red_circle,go,,,,go-2,1,,,,,,
2,528.0,7,phase_2,purple_rhombus,go,,,,go-1,1,,,,,,
0,0,7,phase_2,red_rhombus,stop,green,150.0,tracking-SSD,go-2,4,,,,,,
1,478.0,7,phase_2,purple_triangle,go,,,,go-1,1,,,,,,
1,486.0,7,phase_2,red_circle,go,,,,go-2,1,,,,,,
1,450.0,7,phase_2,red_circle,go,,,,go-2,1,,,,,,
2,582.0,7,phase_2,purple_rhombus,go,,,,go-1,1,,,,,,
2,715.0,7,phase_2,red_pentagon,go,,,,go-2,1,,,,,,
0,0,7,phase_2,purple_triangle,stop,blue,0.0,0-SSD,go-1,4,,,,,,
2,452.0,7,phase_2,purple_pentagon,go,,,,go-1,1,,,,,,
1,539.0,7,phase_2,red_triangle,go,,,,go-2,1,,,,,,
0,0,7,phase_2,purple_triangle,stop,blue,0.0,0-SSD,go-1,4,,,,,,
1,523.0,7,phase_2,purple_circle,go,,,,go-1,1,,,,,,
2,768.0,7,phase_2,purple_rhombus,go,,,,go-1,1,,,,,,
2,486.0,7,phase_2,purple_rhombus,go,,,,go-1,1,,,,,,
1,471.0,7,phase_2,red_circle,go,,,,go-2,1,,,,,,
2,582.0,7,phase_2,purple_pentagon,stop,green,200.0,tracking-SSD,go-1,3,,,,,,
0,0,7,phase_2,red_triangle,stop,blue,0.0,0-SSD,go-2,4,,,,,,
1,364.0,7,phase_2,red_triangle,go,,,,go-2,1,,,,,,
2,474.0,7,phase_2,red_rhombus,go,,,,go-2,1,,,,,,
1,404.0,7,phase_2,purple_triangle,go,,,,go-1,1,,,,,,
1,588.0,8,phase_2,purple_triangle,stop,green,150.0,tracking-SSD,go-1,3,,,,,,
0,0,8,phase_2,purple_circle,stop,green,100.0,tracking-SSD,go-1,4,,,,,,
0,0,8,phase_2,red_circle,stop,green,150.0,tracking-SSD,go-2,4,,,,,,
2,671.0,8,phase_2,red_pentagon,go,,,,go-2,1,,,,,,
2,556.0,8,phase_2,red_rhombus,go,,,,go-2,1,,,,,,
0,0,8,phase_2,red_rhombus,stop,green,200.0,tracking-SSD,go-2,4,,,,,,
2,415.0,8,phase_2,purple_rhombus,go,,,,go-1,1,,,,,,
1,492.0,8,phase_2,red_circle,go,,,,go-2,1,,,,,,
0,0,8,phase_2,red_rhombus,stop,blue,0.0,0-SSD,go-2,4,,,,,,
2,499.0,8,phase_2,red_pentagon,go,,,,go-2,1,,,,,,
1,667.0,8,phase_2,purple_rhombus,stop,green,250.0,tracking-SSD,go-1,3,,,,,,
2,484.0,8,phase_2,red_triangle,go,,,,go-2,2,,,,,,
1,560.0,8,phase_2,purple_circle,go,,,,go-1,1,,,,,,
1,411.0,8,phase_2,red_circle,go,,,,go-2,1,,,,,,
2,511.0,8,phase_2,red_pentagon,go,,,,go-2,1,,,,,,
2,519.0,8,phase_2,purple_pentagon,go,,,,go-1,1,,,,,,
2,358.0,8,phase_2,red_rhombus,stop,green,200.0,tracking-SSD,go-2,3,,,,,,
1,458.0,8,phase_2,red_triangle,go,,,,go-2,1,,,,,,
1,388.0,8,phase_2,purple_triangle,go,,,,go-1,1,,,,,,
0,0,8,phase_2,red_circle,stop,blue,0.0,0-SSD,go-2,4,,,,,,
1,506.0,8,phase_2,purple_triangle,stop,green,150.0,tracking-SSD,go-1,3,,,,,,
2,650.0,8,phase_2,purple_rhombus,go,,,,go-1,1,,,,,,
0,0,8,phase_2,purple_rhombus,stop,blue,0.0,0-SSD,go-1,4,,,,,,
2,444.0,8,phase_2,purple_pentagon,go,,,,go-1,1,,,,,,
1,498.0,8,phase_2,purple_circle,go,,,,go-1,1,,,,,,
1,474.0,8,phase_2,red_triangle,go,,,,go-2,1,,,,,,
1,325.0,8,phase_2,purple_triangle,go,,,,go-1,1,,,,,,
2,424.0,8,phase_2,purple_pentagon,go,,,,go-1,1,,,,,,
2,421.0,8,phase_2,purple_rhombus,go,,,,go-1,1,,,,,,
1,498.0,8,phase_2,purple_circle,go,,,,go-1,1,,,,,,
2,405.0,8,phase_2,red_circle,go,,,,go-2,2,,,,,,
1,470.0,8,phase_2,red_triangle,go,,,,go-2,1,,,,,,
0,0,8,phase_2,purple_triangle,stop,blue,0.0,0-SSD,go-1,4,,,,,,
2,554.0,8,phase_2,red_pentagon,go,,,,go-2,1,,,,,,
2,575.0,8,phase_2,purple_rhombus,go,,,,go-1,1,,,,,,
0,0,8,phase_2,red_circle,stop,green,100.0,tracking-SSD,go-2,4,,,,,,
0,0,8,phase_2,purple_pentagon,stop,blue,0.0,0-SSD,go-1,4,,,,,,
1,466.0,8,phase_2,red_circle,go,,,,go-2,1,,,,,,
1,373.0,8,phase_2,red_triangle,go,,,,go-2,1,,,,,,
2,404.0,8,phase_2,purple_pentagon,go,,,,go-1,1,,,,,,
1,447.0,8,phase_2,red_circle,go,,,,go-2,1,,,,,,
0,0,8,phase_2,red_pentagon,stop,blue,0.0,0-SSD,go-2,4,,,,,,
0,0,8,phase_2,red_pentagon,stop,blue,0.0,0-SSD,go-2,4,,,,,,
1,485.0,8,phase_2,red_triangle,go,,,,go-2,1,,,,,,
2,662.0,8,phase_2,purple_rhombus,go,,,,go-1,1,,,,,,
2,569.0,8,phase_2,purple_pentagon,go,,,,go-1,1,,,,,,
0,0,8,phase_2,purple_rhombus,stop,blue,0.0,0-SSD,go-1,4,,,,,,
1,283.0,8,phase_2,purple_triangle,go,,,,go-1,1,,,,,,
1,409.0,9,phase_2,red_pentagon,go,,,,go-2,2,,,,,,
1,563.0,9,phase_2,red_triangle,go,,,,go-2,1,,,,,,
0,0,9,phase_2,purple_rhombus,stop,green,150.0,tracking-SSD,go-1,4,,,,,,
1,448.0,9,phase_2,red_triangle,go,,,,go-2,1,,,,,,
0,0,9,phase_2,purple_rhombus,stop,blue,0.0,0-SSD,go-1,4,,,,,,
0,0,9,phase_2,red_rhombus,stop,blue,0.0,0-SSD,go-2,4,,,,,,
0,0,9,phase_2,purple_circle,stop,blue,0.0,0-SSD,go-1,4,,,,,,
1,348.0,9,phase_2,purple_triangle,go,,,,go-1,1,,,,,,
1,536.0,9,phase_2,purple_circle,stop,green,200.0,tracking-SSD,go-1,3,,,,,,
1,386.0,9,phase_2,purple_triangle,go,,,,go-1,1,,,,,,
1,305.0,9,phase_2,purple_triangle,go,,,,go-1,1,,,,,,
0,0,9,phase_2,red_triangle,stop,blue,0.0,0-SSD,go-2,4,,,,,,
1,536.0,9,phase_2,red_circle,go,,,,go-2,1,,,,,,
1,477.0,9,phase_2,red_circle,go,,,,go-2,1,,,,,,
0,0,9,phase_2,red_circle,stop,blue,0.0,0-SSD,go-2,4,,,,,,
0,0,9,phase_2,red_rhombus,stop,green,150.0,tracking-SSD,go-2,4,,,,,,
2,571.0,9,phase_2,purple_pentagon,go,,,,go-1,1,,,,,,
2,658.0,9,phase_2,red_pentagon,stop,green,200.0,tracking-SSD,go-2,3,,,,,,
0,0,9,phase_2,purple_rhombus,stop,green,150.0,tracking-SSD,go-1,4,,,,,,
1,519.0,9,phase_2,red_circle,go,,,,go-2,1,,,,,,
1,415.0,9,phase_2,red_triangle,go,,,,go-2,1,,,,,,
1,333.0,9,phase_2,red_triangle,go,,,,go-2,1,,,,,,
1,387.0,9,phase_2,purple_triangle,stop,green,200.0,tracking-SSD,go-1,3,,,,,,
1,519.0,9,phase_2,purple_circle,go,,,,go-1,1,,,,,,
1,360.0,9,phase_2,red_triangle,go,,,,go-2,1,,,,,,
0,0,9,phase_2,red_rhombus,stop,green,150.0,tracking-SSD,go-2,4,,,,,,
2,489.0,9,phase_2,purple_pentagon,go,,,,go-1,1,,,,,,
1,779.0,9,phase_2,purple_circle,go,,,,go-1,1,,,,,,
2,485.0,9,phase_2,red_pentagon,go,,,,go-2,1,,,,,,
2,471.0,9,phase_2,red_rhombus,go,,,,go-2,1,,,,,,
0,0,9,phase_2,red_circle,stop,blue,0.0,0-SSD,go-2,4,,,,,,
1,600.0,9,phase_2,red_circle,go,,,,go-2,1,,,,,,
2,474.0,9,phase_2,red_pentagon,go,,,,go-2,1,,,,,,
2,460.0,9,phase_2,purple_rhombus,go,,,,go-1,1,,,,,,
1,458.0,9,phase_2,purple_triangle,go,,,,go-1,1,,,,,,
2,399.0,9,phase_2,red_pentagon,stop,green,200.0,tracking-SSD,go-2,3,,,,,,
2,452.0,9,phase_2,purple_pentagon,go,,,,go-1,1,,,,,,
2,315.0,9,phase_2,purple_pentagon,go,,,,go-1,1,,,,,,
2,280.0,9,phase_2,purple_pentagon,go,,,,go-1,1,,,,,,
0,0,9,phase_2,purple_circle,stop,blue,0.0,0-SSD,go-1,4,,,,,,
1,387.0,9,phase_2,red_pentagon,go,,,,go-2,2,,,,,,
2,306.0,9,phase_2,purple_pentagon,go,,,,go-1,1,,,,,,
0,0,9,phase_2,purple_triangle,stop,blue,0.0,0-SSD,go-1,4,,,,,,
2,402.0,9,phase_2,purple_rhombus,go,,,,go-1,1,,,,,,
2,444.0,9,phase_2,red_rhombus,go,,,,go-2,1,,,,,,
2,317.0,9,phase_2,red_rhombus,go,,,,go-2,1,,,,,,
2,360.0,9,phase_2,purple_rhombus,go,,,,go-1,1,,,,,,
1,548.0,9,phase_2,purple_circle,go,,,,go-1,1,,,,,,
1,397.0,10,phase_2,purple_rhombus,go,,,,go-1,2,,,,,,
1,384.0,10,phase_2,purple_triangle,go,,,,go-1,1,,,,,,
1,359.0,10,phase_2,red_triangle,go,,,,go-2,1,,,,,,
0,0,10,phase_2,purple_pentagon,stop,blue,0.0,0-SSD,go-1,4,,,,,,
2,422.0,10,phase_2,red_pentagon,go,,,,go-2,1,,,,,,
1,521.0,10,phase_2,red_circle,go,,,,go-2,1,,,,,,
0,0,10,phase_2,purple_pentagon,stop,blue,0.0,0-SSD,go-1,4,,,,,,
2,392.0,10,phase_2,purple_pentagon,go,,,,go-1,1,,,,,,
2,480.0,10,phase_2,purple_rhombus,go,,,,go-1,1,,,,,,
2,355.0,10,phase_2,red_rhombus,go,,,,go-2,1,,,,,,
1,442.0,10,phase_2,purple_triangle,go,,,,go-1,1,,,,,,
2,472.0,10,phase_2,purple_pentagon,go,,,,go-1,1,,,,,,
1,414.0,10,phase_2,red_triangle,go,,,,go-2,1,,,,,,
1,523.0,10,phase_2,red_circle,go,,,,go-2,1,,,,,,
0,0,10,phase_2,purple_circle,stop,blue,0.0,0-SSD,go-1,4,,,,,,
2,361.0,10,phase_2,purple_triangle,go,,,,go-1,2,,,,,,
0,0,10,phase_2,red_triangle,stop,blue,0.0,0-SSD,go-2,4,,,,,,
2,411.0,10,phase_2,purple_pentagon,go,,,,go-1,1,,,,,,
0,0,10,phase_2,red_triangle,stop,blue,0.0,0-SSD,go-2,4,,,,,,
0,0,10,phase_2,red_rhombus,stop,green,150.0,tracking-SSD,go-2,4,,,,,,
2,348.0,10,phase_2,red_rhombus,stop,green,200.0,tracking-SSD,go-2,3,,,,,,
2,425.0,10,phase_2,red_rhombus,go,,,,go-2,1,,,,,,
2,388.0,10,phase_2,purple_rhombus,stop,green,150.0,tracking-SSD,go-1,3,,,,,,
2,645.0,10,phase_2,purple_pentagon,go,,,,go-1,1,,,,,,
2,417.0,10,phase_2,red_pentagon,go,,,,go-2,1,,,,,,
2,470.0,10,phase_2,purple_rhombus,go,,,,go-1,1,,,,,,
2,445.0,10,phase_2,red_pentagon,go,,,,go-2,1,,,,,,
2,444.0,10,phase_2,red_rhombus,stop,green,100.0,tracking-SSD,go-2,3,,,,,,
0,0,10,phase_2,red_circle,stop,blue,0.0,0-SSD,go-2,4,,,,,,
0,0,10,phase_2,purple_triangle,stop,blue,0.0,0-SSD,go-1,4,,,,,,
1,585.0,10,phase_2,purple_circle,go,,,,go-1,1,,,,,,
0,0,10,phase_2,red_circle,stop,blue,0.0,0-SSD,go-2,4,,,,,,
1,489.0,10,phase_2,red_triangle,go,,,,go-2,1,,,,,,
2,508.0,10,phase_2,red_pentagon,go,,,,go-2,1,,,,,,
2,674.0,10,phase_2,red_rhombus,go,,,,go-2,1,,,,,,
2,459.0,10,phase_2,purple_pentagon,go,,,,go-1,1,,,,,,
2,355.0,10,phase_2,red_rhombus,go,,,,go-2,1,,,,,,
0,0,10,phase_2,purple_circle,stop,green,50.0,tracking-SSD,go-1,4,,,,,,
2,406.0,10,phase_2,purple_circle,go,,,,go-1,2,,,,,,
0,0,10,phase_2,purple_circle,stop,green,100.0,tracking-SSD,go-1,4,,,,,,
1,513.0,10,phase_2,purple_triangle,go,,,,go-1,1,,,,,,
1,477.0,10,phase_2,purple_circle,go,,,,go-1,1,,,,,,
2,531.0,10,phase_2,red_pentagon,go,,,,go-2,1,,,,,,
0,0,10,phase_2,purple_rhombus,stop,green,150.0,tracking-SSD,go-1,4,,,,,,
1,413.0,10,phase_2,purple_circle,go,,,,go-1,1,,,,,,
1,659.0,10,phase_2,red_triangle,stop,green,200.0,tracking-SSD,go-2,3,,,,,,
1,397.0,10,phase_2,red_triangle,go,,,,go-2,1,,,,,,
2,574.0,10,phase_2,red_circle,go,,,,go-2,2,,,,,,
1,408.0,11,phase_2,red_triangle,stop,green,150.0,tracking-SSD,go-2,3,,,,,,
1,349.0,11,phase_2,purple_triangle,go,,,,go-1,1,,,,,,
1,528.0,11,phase_2,purple_circle,go,,,,go-1,1,,,,,,
1,515.0,11,phase_2,red_rhombus,go,,,,go-2,2,,,,,,
1,401.0,11,phase_2,purple_triangle,go,,,,go-1,1,,,,,,
0,0,11,phase_2,purple_circle,stop,green,100.0,tracking-SSD,go-1,4,,,,,,
0,0,11,phase_2,purple_pentagon,stop,green,150.0,tracking-SSD,go-1,4,,,,,,
2,550.0,11,phase_2,red_rhombus,go,,,,go-2,1,,,,,,
2,401.0,11,phase_2,red_rhombus,go,,,,go-2,1,,,,,,
2,411.0,11,phase_2,purple_rhombus,stop,green,200.0,tracking-SSD,go-1,3,,,,,,
2,385.0,11,phase_2,purple_rhombus,go,,,,go-1,1,,,,,,
1,461.0,11,phase_2,purple_circle,go,,,,go-1,1,,,,,,
0,0,11,phase_2,red_triangle,stop,green,150.0,tracking-SSD,go-2,4,,,,,,
2,523.0,11,phase_2,purple_pentagon,go,,,,go-1,1,,,,,,
2,544.0,11,phase_2,red_rhombus,go,,,,go-2,1,,,,,,
1,856.0,11,phase_2,red_circle,go,,,,go-2,1,,,,,,
2,493.0,11,phase_2,red_pentagon,go,,,,go-2,1,,,,,,
2,469.0,11,phase_2,purple_pentagon,go,,,,go-1,1,,,,,,
2,624.0,11,phase_2,purple_rhombus,go,,,,go-1,1,,,,,,
1,520.0,11,phase_2,red_triangle,go,,,,go-2,1,,,,,,
2,652.0,11,phase_2,red_rhombus,go,,,,go-2,1,,,,,,
2,548.0,11,phase_2,purple_pentagon,go,,,,go-1,1,,,,,,
1,579.0,11,phase_2,purple_triangle,go,,,,go-1,1,,,,,,
1,554.0,11,phase_2,purple_circle,go,,,,go-1,1,,,,,,
1,440.0,11,phase_2,red_triangle,go,,,,go-2,1,,,,,,
0,0,11,phase_2,red_circle,stop,blue,0.0,0-SSD,go-2,4,,,,,,
1,389.0,11,phase_2,purple_triangle,go,,,,go-1,1,,,,,,
1,409.0,11,phase_2,red_triangle,go,,,,go-2,1,,,,,,
1,485.0,11,phase_2,purple_circle,go,,,,go-1,1,,,,,,
0,0,11,phase_2,purple_rhombus,stop,blue,0.0,0-SSD,go-1,4,,,,,,
1,470.0,11,phase_2,red_circle,go,,,,go-2,1,,,,,,
1,331.0,11,phase_2,red_triangle,go,,,,go-2,1,,,,,,
0,0,11,phase_2,red_pentagon,stop,blue,0.0,0-SSD,go-2,4,,,,,,
0,0,11,phase_2,purple_triangle,stop,blue,0.0,0-SSD,go-1,4,,,,,,
2,403.0,11,phase_2,red_pentagon,stop,green,200.0,tracking-SSD,go-2,3,,,,,,
0,0,11,phase_2,red_circle,stop,green,150.0,tracking-SSD,go-2,4,,,,,,
2,477.0,11,phase_2,purple_rhombus,go,,,,go-1,1,,,,,,
2,395.0,11,phase_2,red_pentagon,go,,,,go-2,1,,,,,,
2,437.0,11,phase_2,purple_rhombus,go,,,,go-1,1,,,,,,
0,0,11,phase_2,purple_rhombus,stop,blue,0.0,0-SSD,go-1,4,,,,,,
2,421.0,11,phase_2,red_circle,go,,,,go-2,2,,,,,,
2,566.0,11,phase_2,red_pentagon,go,,,,go-2,1,,,,,,
0,0,11,phase_2,red_pentagon,stop,blue,0.0,0-SSD,go-2,4,,,,,,
2,448.0,11,phase_2,red_pentagon,go,,,,go-2,1,,,,,,
1,571.0,11,phase_2,purple_circle,go,,,,go-1,1,,,,,,
0,0,11,phase_2,purple_circle,stop,blue,0.0,0-SSD,go-1,4,,,,,,
0,0,11,phase_2,red_triangle,stop,blue,0.0,0-SSD,go-2,4,,,,,,
0,0,11,phase_2,purple_pentagon,stop,green,200.0,tracking-SSD,go-1,4,,,,,,
1,498.0,12,phase_2,purple_triangle,go,,,,go-1,1,,,,,,
1,463.0,12,phase_2,red_circle,go,,,,go-2,1,,,,,,
1,427.0,12,phase_2,red_circle,go,,,,go-2,1,,,,,,
1,357.0,12,phase_2,purple_triangle,go,,,,go-1,1,,,,,,
2,388.0,12,phase_2,purple_rhombus,go,,,,go-1,1,,,,,,
2,385.0,12,phase_2,red_rhombus,go,,,,go-2,1,,,,,,
2,328.0,12,phase_2,red_rhombus,go,,,,go-2,1,,,,,,
1,528.0,12,phase_2,purple_triangle,go,,,,go-1,1,,,,,,
2,582.0,12,phase_2,purple_rhombus,go,,,,go-1,1,,,,,,
1,523.0,12,phase_2,purple_circle,stop,green,250.0,tracking-SSD,go-1,3,,,,,,
2,542.0,12,phase_2,purple_pentagon,go,,,,go-1,1,,,,,,
2,518.0,12,phase_2,purple_rhombus,go,,,,go-1,1,,,,,,
2,493.0,12,phase_2,red_pentagon,go,,,,go-2,1,,,,,,
2,389.0,12,phase_2,red_pentagon,stop,green,200.0,tracking-SSD,go-2,3,,,,,,
0,0,12,phase_2,purple_rhombus,stop,blue,0.0,0-SSD,go-1,4,,,,,,
0,0,12,phase_2,red_triangle,stop,blue,0.0,0-SSD,go-2,4,,,,,,
1,381.0,12,phase_2,red_triangle,go,,,,go-2,1,,,,,,
0,0,12,phase_2,red_circle,stop,blue,0.0,0-SSD,go-2,4,,,,,,
1,521.0,12,phase_2,red_circle,go,,,,go-2,1,,,,,,
0,0,12,phase_2,purple_pentagon,stop,blue,0.0,0-SSD,go-1,4,,,,,,
0,0,12,phase_2,red_pentagon,stop,green,150.0,tracking-SSD,go-2,4,,,,,,
1,447.0,12,phase_2,red_triangle,go,,,,go-2,1,,,,,,
0,0,12,phase_2,red_rhombus,stop,green,200.0,tracking-SSD,go-2,4,,,,,,
2,475.0,12,phase_2,purple_rhombus,go,,,,go-1,1,,,,,,
2,405.0,12,phase_2,red_rhombus,go,,,,go-2,1,,,,,,
2,357.0,12,phase_2,red_rhombus,stop,green,250.0,tracking-SSD,go-2,3,,,,,,
2,591.0,12,phase_2,purple_pentagon,go,,,,go-1,1,,,,,,
0,0,12,phase_2,red_circle,stop,blue,0.0,0-SSD,go-2,4,,,,,,
2,609.0,12,phase_2,red_pentagon,go,,,,go-2,1,,,,,,
0,0,12,phase_2,purple_rhombus,stop,blue,0.0,0-SSD,go-1,4,,,,,,
1,537.0,12,phase_2,purple_circle,go,,,,go-1,1,,,,,,
1,389.0,12,phase_2,purple_circle,stop,green,200.0,tracking-SSD,go-1,3,,,,,,
1,498.0,12,phase_2,red_triangle,go,,,,go-2,1,,,,,,
1,372.0,12,phase_2,purple_triangle,go,,,,go-1,1,,,,,,
2,606.0,12,phase_2,red_rhombus,go,,,,go-2,1,,,,,,
1,535.0,12,phase_2,purple_circle,go,,,,go-1,1,,,,,,
1,510.0,12,phase_2,red_triangle,go,,,,go-2,1,,,,,,
1,361.0,12,phase_2,purple_triangle,go,,,,go-1,1,,,,,,
0,0,12,phase_2,purple_triangle,stop,blue,0.0,0-SSD,go-1,4,,,,,,
2,480.0,12,phase_2,purple_pentagon,go,,,,go-1,1,,,,,,
2,410.0,12,phase_2,purple_pentagon,go,,,,go-1,1,,,,,,
2,464.0,12,phase_2,red_pentagon,go,,,,go-2,1,,,,,,
1,675.0,12,phase_2,red_circle,go,,,,go-2,1,,,,,,
0,0,12,phase_2,purple_pentagon,stop,green,150.0,tracking-SSD,go-1,4,,,,,,
0,0,12,phase_2,red_circle,stop,blue,0.0,0-SSD,go-2,4,,,,,,
1,408.0,12,phase_2,red_triangle,go,,,,go-2,1,,,,,,
0,0,12,phase_2,purple_circle,stop,green,200.0,tracking-SSD,go-1,4,,,,,,
2,594.0,12,phase_2,purple_pentagon,go,,,,go-1,1,,,,,,
0,0,13,phase_2,purple_triangle,stop,blue,0.0,0-SSD,go-1,4,,,,,,
2,450.0,13,phase_2,purple_rhombus,go,,,,go-1,1,,,,,,
1,426.0,13,phase_2,red_circle,stop,green,250.0,tracking-SSD,go-2,3,,,,,,
2,502.0,13,phase_2,purple_rhombus,go,,,,go-1,1,,,,,,
2,376.0,13,phase_2,purple_circle,go,,,,go-1,2,,,,,,
1,441.0,13,phase_2,red_circle,stop,green,200.0,tracking-SSD,go-2,3,,,,,,
2,415.0,13,phase_2,red_pentagon,go,,,,go-2,1,,,,,,
2,502.0,13,phase_2,purple_rhombus,go,,,,go-1,1,,,,,,
1,432.0,13,phase_2,red_circle,go,,,,go-2,1,,,,,,
0,0,13,phase_2,red_triangle,stop,green,150.0,tracking-SSD,go-2,4,,,,,,
2,439.0,13,phase_2,purple_pentagon,go,,,,go-1,1,,,,,,
1,481.0,13,phase_2,purple_triangle,go,,,,go-1,1,,,,,,
2,490.0,13,phase_2,purple_pentagon,go,,,,go-1,1,,,,,,
0,0,13,phase_2,purple_triangle,stop,blue,0.0,0-SSD,go-1,4,,,,,,
2,463.0,13,phase_2,red_circle,go,,,,go-2,2,,,,,,
0,0,13,phase_2,purple_rhombus,stop,green,200.0,tracking-SSD,go-1,4,,,,,,
2,514.0,13,phase_2,red_rhombus,go,,,,go-2,1,,,,,,
0,0,13,phase_2,red_rhombus,stop,blue,0.0,0-SSD,go-2,4,,,,,,
0,0,13,phase_2,purple_rhombus,stop,green,250.0,tracking-SSD,go-1,4,,,,,,
0,0,13,phase_2,red_rhombus,stop,blue,0.0,0-SSD,go-2,4,,,,,,
1,549.0,13,phase_2,purple_circle,go,,,,go-1,1,,,,,,
1,434.0,13,phase_2,purple_triangle,go,,,,go-1,1,,,,,,
1,374.0,13,phase_2,red_triangle,go,,,,go-2,1,,,,,,
0,0,13,phase_2,red_triangle,stop,blue,0.0,0-SSD,go-2,4,,,,,,
2,853.0,13,phase_2,purple_rhombus,go,,,,go-1,1,,,,,,
2,535.0,13,phase_2,red_pentagon,go,,,,go-2,1,,,,,,
2,725.0,13,phase_2,red_rhombus,go,,,,go-2,1,,,,,,
2,452.0,13,phase_2,red_rhombus,go,,,,go-2,1,,,,,,
1,584.0,13,phase_2,red_circle,go,,,,go-2,1,,,,,,
2,571.0,13,phase_2,purple_pentagon,go,,,,go-1,1,,,,,,
2,478.0,13,phase_2,purple_pentagon,go,,,,go-1,1,,,,,,
2,634.0,13,phase_2,red_rhombus,go,,,,go-2,1,,,,,,
1,630.0,13,phase_2,purple_circle,go,,,,go-1,1,,,,,,
2,504.0,13,phase_2,red_pentagon,go,,,,go-2,1,,,,,,
1,603.0,13,phase_2,red_circle,go,,,,go-2,1,,,,,,
2,556.0,13,phase_2,red_pentagon,go,,,,go-2,1,,,,,,
2,442.0,13,phase_2,red_pentagon,go,,,,go-2,1,,,,,,
0,0,13,phase_2,red_pentagon,stop,blue,0.0,0-SSD,go-2,4,,,,,,
2,470.0,13,phase_2,purple_pentagon,go,,,,go-1,1,,,,,,
2,399.0,13,phase_2,purple_pentagon,go,,,,go-1,1,,,,,,
0,0,13,phase_2,purple_circle,stop,blue,0.0,0-SSD,go-1,4,,,,,,
1,496.0,13,phase_2,red_triangle,stop,green,300.0,tracking-SSD,go-2,3,,,,,,
1,447.0,13,phase_2,purple_triangle,stop,green,250.0,tracking-SSD,go-1,3,,,,,,
0,0,13,phase_2,purple_triangle,stop,blue,0.0,0-SSD,go-1,4,,,,,,
1,408.0,13,phase_2,purple_triangle,go,,,,go-1,1,,,,,,
1,587.0,13,phase_2,red_circle,go,,,,go-2,1,,,,,,
0,0,13,phase_2,purple_triangle,stop,green,200.0,tracking-SSD,go-1,4,,,,,,
1,514.0,13,phase_2,red_circle,go,,,,go-2,1,,,,,,
1,543.0,14,phase_2,purple_circle,go,,,,go-1,1,,,,,,
1,449.0,14,phase_2,red_circle,stop,green,250.0,tracking-SSD,go-2,3,,,,,,
1,470.0,14,phase_2,purple_triangle,go,,,,go-1,1,,,,,,
1,478.0,14,phase_2,red_circle,go,,,,go-2,1,,,,,,
1,387.0,14,phase_2,purple_circle,go,,,,go-1,1,,,,,,
2,428.0,14,phase_2,red_rhombus,go,,,,go-2,1,,,,,,
2,459.0,14,phase_2,purple_rhombus,go,,,,go-1,1,,,,,,
1,412.0,14,phase_2,red_triangle,go,,,,go-2,1,,,,,,
2,398.0,14,phase_2,purple_rhombus,go,,,,go-1,1,,,,,,
2,487.0,14,phase_2,purple_pentagon,go,,,,go-1,1,,,,,,
2,438.0,14,phase_2,red_pentagon,go,,,,go-2,1,,,,,,
2,368.0,14,phase_2,purple_pentagon,stop,green,200.0,tracking-SSD,go-1,3,,,,,,
1,388.0,14,phase_2,red_circle,go,,,,go-2,1,,,,,,
0,0,14,phase_2,red_rhombus,stop,blue,0.0,0-SSD,go-2,4,,,,,,
2,450.0,14,phase_2,red_pentagon,go,,,,go-2,1,,,,,,
1,503.0,14,phase_2,red_circle,go,,,,go-2,1,,,,,,
0,0,14,phase_2,purple_rhombus,stop,green,150.0,tracking-SSD,go-1,4,,,,,,
2,533.0,14,phase_2,red_rhombus,go,,,,go-2,1,,,,,,
1,406.0,14,phase_2,red_circle,stop,green,200.0,tracking-SSD,go-2,3,,,,,,
0,0,14,phase_2,purple_circle,stop,blue,0.0,0-SSD,go-1,4,,,,,,
0,0,14,phase_2,red_circle,stop,green,150.0,tracking-SSD,go-2,4,,,,,,
1,387.0,14,phase_2,red_triangle,go,,,,go-2,1,,,,,,
2,497.0,14,phase_2,purple_pentagon,go,,,,go-1,1,,,,,,
0,0,14,phase_2,purple_rhombus,stop,blue,0.0,0-SSD,go-1,4,,,,,,
1,402.0,14,phase_2,purple_circle,go,,,,go-1,1,,,,,,
1,343.0,14,phase_2,purple_triangle,go,,,,go-1,1,,,,,,
1,409.0,14,phase_2,purple_rhombus,stop,green,200.0,tracking-SSD,go-1,3,,,,,,
1,541.0,14,phase_2,red_rhombus,go,,,,go-2,2,,,,,,
2,505.0,14,phase_2,purple_pentagon,go,,,,go-1,1,,,,,,
2,333.0,14,phase_2,purple_pentagon,go,,,,go-1,1,,,,,,
0,0,14,phase_2,red_circle,stop,blue,0.0,0-SSD,go-2,4,,,,,,
1,475.0,14,phase_2,red_triangle,go,,,,go-2,1,,,,,,
2,528.0,14,phase_2,purple_pentagon,go,,,,go-1,1,,,,,,
1,492.0,14,phase_2,red_triangle,go,,,,go-2,1,,,,,,
2,512.0,14,phase_2,red_pentagon,go,,,,go-2,1,,,,,,
0,0,14,phase_2,purple_triangle,stop,green,150.0,tracking-SSD,go-1,4,,,,,,
1,384.0,14,phase_2,red_triangle,go,,,,go-2,1,,,,,,
1,392.0,14,phase_2,red_triangle,go,,,,go-2,1,,,,,,
0,0,14,phase_2,red_triangle,stop,blue,0.0,0-SSD,go-2,4,,,,,,
2,432.0,14,phase_2,purple_pentagon,go,,,,go-1,1,,,,,,
0,0,14,phase_2,purple_rhombus,stop,blue,0.0,0-SSD,go-1,4,,,,,,
2,495.0,14,phase_2,red_pentagon,go,,,,go-2,1,,,,,,
0,0,14,phase_2,purple_rhombus,stop,blue,0.0,0-SSD,go-1,4,,,,,,
1,489.0,14,phase_2,purple_triangle,go,,,,go-1,1,,,,,,
0,0,14,phase_2,red_triangle,stop,blue,0.0,0-SSD,go-2,4,,,,,,
0,0,14,phase_2,red_pentagon,stop,green,200.0,tracking-SSD,go-2,4,,,,,,
1,561.0,14,phase_2,purple_circle,go,,,,go-1,1,,,,,,
2,625.0,14,phase_2,purple_rhombus,go,,,,go-1,1,,,,,,
1,499.0,15,phase_2,red_circle,go,,,,go-2,1,,,,,,
1,451.0,15,phase_2,red_triangle,go,,,,go-2,1,,,,,,
1,504.0,15,phase_2,purple_rhombus,go,,,,go-1,2,,,,,,
1,377.0,15,phase_2,red_rhombus,go,,,,go-2,2,,,,,,
1,532.0,15,phase_2,red_triangle,stop,green,250.0,tracking-SSD,go-2,3,,,,,,
2,439.0,15,phase_2,purple_circle,go,,,,go-1,2,,,,,,
1,402.0,15,phase_2,red_triangle,stop,green,200.0,tracking-SSD,go-2,3,,,,,,
2,569.0,15,phase_2,red_pentagon,go,,,,go-2,1,,,,,,
1,545.0,15,phase_2,purple_triangle,go,,,,go-1,1,,,,,,
0,0,15,phase_2,purple_rhombus,stop,blue,0.0,0-SSD,go-1,4,,,,,,
2,349.0,15,phase_2,purple_pentagon,go,,,,go-1,1,,,,,,
0,0,15,phase_2,purple_rhombus,stop,blue,0.0,0-SSD,go-1,4,,,,,,
2,523.0,15,phase_2,purple_pentagon,go,,,,go-1,1,,,,,,
0,0,15,phase_2,purple_pentagon,stop,green,150.0,tracking-SSD,go-1,4,,,,,,
2,405.0,15,phase_2,purple_pentagon,stop,green,200.0,tracking-SSD,go-1,3,,,,,,
1,493.0,15,phase_2,purple_triangle,go,,,,go-1,1,,,,,,
1,568.0,15,phase_2,red_circle,go,,,,go-2,1,,,,,,
1,487.0,15,phase_2,purple_triangle,go,,,,go-1,1,,,,,,
2,439.0,15,phase_2,purple_pentagon,go,,,,go-1,1,,,,,,
1,674.0,15,phase_2,purple_rhombus,go,,,,go-1,2,,,,,,
1,525.0,15,phase_2,red_circle,go,,,,go-2,1,,,,,,
1,634.0,15,phase_2,purple_circle,go,,,,go-1,1,,,,,,
2,485.0,15,phase_2,red_pentagon,go,,,,go-2,1,,,,,,
2,607.0,15,phase_2,purple_rhombus,go,,,,go-1,1,,,,,,
0,0,15,phase_2,red_pentagon,stop,green,150.0,tracking-SSD,go-2,4,,,,,,
0,0,15,phase_2,red_rhombus,stop,blue,0.0,0-SSD,go-2,4,,,,,,
2,375.0,15,phase_2,purple_rhombus,go,,,,go-1,1,,,,,,
1,439.0,15,phase_2,red_triangle,go,,,,go-2,1,,,,,,
0,0,15,phase_2,purple_circle,stop,green,200.0,tracking-SSD,go-1,4,,,,,,
1,525.0,15,phase_2,red_rhombus,go,,,,go-2,2,,,,,,
0,0,15,phase_2,red_rhombus,stop,blue,0.0,0-SSD,go-2,4,,,,,,
0,0,15,phase_2,red_triangle,stop,blue,0.0,0-SSD,go-2,4,,,,,,
0,0,15,phase_2,purple_circle,stop,green,250.0,tracking-SSD,go-1,4,,,,,,
2,616.0,15,phase_2,red_pentagon,go,,,,go-2,1,,,,,,
1,568.0,15,phase_2,red_circle,go,,,,go-2,1,,,,,,
1,543.0,15,phase_2,purple_triangle,go,,,,go-1,1,,,,,,
1,396.0,15,phase_2,red_triangle,stop,green,300.0,tracking-SSD,go-2,3,,,,,,
1,382.0,15,phase_2,purple_triangle,go,,,,go-1,1,,,,,,
1,526.0,15,phase_2,red_circle,go,,,,go-2,1,,,,,,
2,612.0,15,phase_2,red_pentagon,go,,,,go-2,1,,,,,,
1,542.0,15,phase_2,red_circle,go,,,,go-2,1,,,,,,
0,0,15,phase_2,purple_rhombus,stop,blue,0.0,0-SSD,go-1,4,,,,,,
1,684.0,15,phase_2,purple_circle,go,,,,go-1,1,,,,,,
2,446.0,15,phase_2,purple_pentagon,go,,,,go-1,1,,,,,,
2,802.0,15,phase_2,red_rhombus,go,,,,go-2,1,,,,,,
0,0,15,phase_2,purple_triangle,stop,blue,0.0,0-SSD,go-1,4,,,,,,
1,527.0,15,phase_2,red_circle,go,,,,go-2,1,,,,,,
0,0,15,phase_2,red_pentagon,stop,blue,0.0,0-SSD,go-2,4,,,,,,
2,568.0,16,phase_2,red_pentagon,go,,,,go-2,1,,,,,,
2,340.0,16,phase_2,red_pentagon,go,,,,go-2,1,,,,,,
1,393.0,16,phase_2,purple_circle,go,,,,go-1,1,,,,,,
2,525.0,16,phase_2,purple_rhombus,go,,,,go-1,1,,,,,,
1,501.0,16,phase_2,purple_triangle,go,,,,go-1,1,,,,,,
0,0,16,phase_2,red_rhombus,stop,green,250.0,tracking-SSD,go-2,4,,,,,,
1,586.0,16,phase_2,red_circle,go,,,,go-2,1,,,,,,
1,414.0,16,phase_2,purple_circle,go,,,,go-1,1,,,,,,
2,457.0,16,phase_2,purple_pentagon,go,,,,go-1,1,,,,,,
0,0,16,phase_2,red_circle,stop,blue,0.0,0-SSD,go-2,4,,,,,,
2,441.0,16,phase_2,purple_pentagon,go,,,,go-1,1,,,,,,
0,0,16,phase_2,red_circle,stop,blue,0.0,0-SSD,go-2,4,,,,,,
2,493.0,16,phase_2,purple_pentagon,go,,,,go-1,1,,,,,,
2,468.0,16,phase_2,purple_pentagon,stop,green,300.0,tracking-SSD,go-1,3,,,,,,
1,297.0,16,phase_2,purple_triangle,go,,,,go-1,1,,,,,,
1,903.0,16,phase_2,purple_circle,go,,,,go-1,1,,,,,,
1,517.0,16,phase_2,red_triangle,go,,,,go-2,1,,,,,,
1,536.0,16,phase_2,red_circle,go,,,,go-2,1,,,,,,
0,0,16,phase_2,purple_triangle,stop,blue,0.0,0-SSD,go-1,4,,,,,,
2,565.0,16,phase_2,purple_rhombus,go,,,,go-1,1,,,,,,
2,529.0,16,phase_2,red_rhombus,go,,,,go-2,1,,,,,,
2,503.0,16,phase_2,red_rhombus,stop,green,250.0,tracking-SSD,go-2,3,,,,,,
1,545.0,16,phase_2,red_circle,go,,,,go-2,1,,,,,,
2,566.0,16,phase_2,red_pentagon,go,,,,go-2,1,,,,,,
0,0,16,phase_2,purple_triangle,stop,blue,0.0,0-SSD,go-1,4,,,,,,
2,786.0,16,phase_2,purple_circle,go,,,,go-1,2,,,,,,
2,546.0,16,phase_2,purple_pentagon,go,,,,go-1,1,,,,,,
0,0,16,phase_2,purple_rhombus,stop,blue,0.0,0-SSD,go-1,4,,,,,,
1,339.0,16,phase_2,red_triangle,stop,green,200.0,tracking-SSD,go-2,3,,,,,,
0,0,16,phase_2,red_pentagon,stop,green,150.0,tracking-SSD,go-2,4,,,,,,
1,502.0,16,phase_2,red_triangle,go,,,,go-2,1,,,,,,
1,511.0,16,phase_2,red_circle,go,,,,go-2,1,,,,,,
0,0,16,phase_2,red_triangle,stop,blue,0.0,0-SSD,go-2,4,,,,,,
2,337.0,16,phase_2,purple_triangle,stop,green,200.0,tracking-SSD,go-1,3,,,,,,
1,391.0,16,phase_2,red_triangle,go,,,,go-2,1,,,,,,
2,715.0,16,phase_2,red_circle,go,,,,go-2,2,,,,,,
1,409.0,16,phase_2,red_circle,go,,,,go-2,1,,,,,,
1,417.0,16,phase_2,purple_triangle,stop,green,150.0,tracking-SSD,go-1,3,,,,,,
2,561.0,16,phase_2,red_rhombus,go,,,,go-2,1,,,,,,
0,0,16,phase_2,purple_rhombus,stop,green,100.0,tracking-SSD,go-1,4,,,,,,
2,467.0,16,phase_2,red_rhombus,go,,,,go-2,1,,,,,,
1,441.0,16,phase_2,purple_pentagon,go,,,,go-1,2,,,,,,
0,0,16,phase_2,red_pentagon,stop,blue,0.0,0-SSD,go-2,4,,,,,,
2,514.0,16,phase_2,purple_rhombus,go,,,,go-1,1,,,,,,
2,579.0,16,phase_2,purple_pentagon,go,,,,go-1,1,,,,,,
0,0,16,phase_2,purple_triangle,stop,blue,0.0,0-SSD,go-1,4,,,,,,
2,406.0,16,phase_2,red_rhombus,go,,,,go-2,1,,,,,,
2,403.0,16,phase_2,purple_rhombus,go,,,,go-1,1,,,,,,
1,510.0,17,phase_2,red_triangle,go,,,,go-2,1,,,,,,
0,0,17,phase_2,purple_rhombus,stop,blue,0.0,0-SSD,go-1,4,,,,,,
2,404.0,17,phase_2,purple_rhombus,go,,,,go-1,1,,,,,,
2,525.0,17,phase_2,red_circle,go,,,,go-2,2,,,,,,
2,580.0,17,phase_2,purple_rhombus,go,,,,go-1,1,,,,,,
1,544.0,17,phase_2,purple_circle,go,,,,go-1,1,,,,,,
1,327.0,17,phase_2,purple_triangle,go,,,,go-1,1,,,,,,
1,347.0,17,phase_2,red_triangle,stop,green,150.0,tracking-SSD,go-2,3,,,,,,
1,413.0,17,phase_2,purple_triangle,go,,,,go-1,1,,,,,,
0,0,17,phase_2,purple_circle,stop,blue,0.0,0-SSD,go-1,4,,,,,,
0,0,17,phase_2,red_circle,stop,blue,0.0,0-SSD,go-2,4,,,,,,
0,0,17,phase_2,purple_rhombus,stop,green,100.0,tracking-SSD,go-1,4,,,,,,
2,718.0,17,phase_2,purple_rhombus,go,,,,go-1,1,,,,,,
0,0,17,phase_2,red_circle,stop,blue,0.0,0-SSD,go-2,4,,,,,,
2,701.0,17,phase_2,red_pentagon,go,,,,go-2,1,,,,,,
2,552.0,17,phase_2,purple_rhombus,go,,,,go-1,1,,,,,,
2,391.0,17,phase_2,purple_rhombus,go,,,,go-1,1,,,,,,
0,0,17,phase_2,red_pentagon,stop,green,150.0,tracking-SSD,go-2,4,,,,,,
2,398.0,17,phase_2,purple_pentagon,go,,,,go-1,1,,,,,,
0,0,17,phase_2,purple_triangle,stop,blue,0.0,0-SSD,go-1,4,,,,,,
2,427.0,17,phase_2,red_pentagon,go,,,,go-2,1,,,,,,
2,312.0,17,phase_2,red_pentagon,go,,,,go-2,1,,,,,,
2,343.0,17,phase_2,purple_rhombus,go,,,,go-1,1,,,,,,
1,487.0,17,phase_2,red_triangle,go,,,,go-2,1,,,,,,
1,630.0,17,phase_2,purple_circle,go,,,,go-1,1,,,,,,
1,437.0,17,phase_2,red_circle,go,,,,go-2,1,,,,,,
2,547.0,17,phase_2,red_pentagon,go,,,,go-2,1,,,,,,
1,578.0,17,phase_2,red_circle,go,,,,go-2,1,,,,,,
1,519.0,17,phase_2,purple_circle,go,,,,go-1,1,,,,,,
0,0,17,phase_2,red_pentagon,stop,blue,0.0,0-SSD,go-2,4,,,,,,
2,660.0,17,phase_2,red_pentagon,go,,,,go-2,1,,,,,,
1,569.0,17,phase_2,red_triangle,go,,,,go-2,1,,,,,,
0,0,17,phase_2,red_rhombus,stop,blue,0.0,0-SSD,go-2,4,,,,,,
0,0,17,phase_2,purple_pentagon,stop,blue,0.0,0-SSD,go-1,4,,,,,,
1,504.0,17,phase_2,purple_triangle,go,,,,go-1,1,,,,,,
0,0,17,phase_2,purple_circle,stop,green,200.0,tracking-SSD,go-1,4,,,,,,
0,0,17,phase_2,red_rhombus,stop,green,250.0,tracking-SSD,go-2,4,,,,,,
1,598.0,17,phase_2,red_triangle,go,,,,go-2,1,,,,,,
1,495.0,17,phase_2,red_triangle,go,,,,go-2,1,,,,,,
1,447.0,17,phase_2,red_triangle,go,,,,go-2,1,,,,,,
1,456.0,17,phase_2,purple_triangle,go,,,,go-1,1,,,,,,
1,656.0,17,phase_2,red_circle,go,,,,go-2,1,,,,,,
2,564.0,17,phase_2,red_rhombus,go,,,,go-2,1,,,,,,
2,517.0,17,phase_2,purple_pentagon,stop,green,300.0,tracking-SSD,go-1,3,,,,,,
2,481.0,17,phase_2,purple_pentagon,go,,,,go-1,1,,,,,,
1,524.0,17,phase_2,purple_circle,go,,,,go-1,1,,,,,,
2,623.0,17,phase_2,purple_pentagon,stop,green,250.0,tracking-SSD,go-1,3,,,,,,
0,0,17,phase_2,red_rhombus,stop,green,200.0,tracking-SSD,go-2,4,,,,,,
,779.0,1,phase_3,,,,,,,,blue_square,0-SSD,purple_square,go-1,blue_square,0-SSD
,1393.0,1,phase_3,,,,,,,,green_square,tracking-SSD,red_square,go-2,green_square,tracking-SSD
,1423.0,1,phase_3,,,,,,,,red_square,go-2,purple_square,go-1,red_square,go-2
,1373.0,1,phase_3,,,,,,,,green_square,tracking-SSD,purple_square,go-1,green_square,tracking-SSD
,930.0,1,phase_3,,,,,,,,blue_square,0-SSD,red_square,go-2,blue_square,0-SSD
,746.0,1,phase_3,,,,,,,,blue_square,0-SSD,blue_square,0-SSD,green_square,tracking-SSD
,1327.0,1,phase_3,,,,,,,,purple_square,go-1,red_square,go-2,purple_square,go-1
,1063.0,1,phase_3,,,,,,,,blue_square,0-SSD,green_square,tracking-SSD,blue_square,0-SSD
,1048.0,1,phase_3,,,,,,,,green_square,tracking-SSD,green_square,tracking-SSD,purple_square,go-1
,1021.0,1,phase_3,,,,,,,,blue_square,0-SSD,blue_square,0-SSD,red_square,go-2
,1196.0,1,phase_3,,,,,,,,blue_square,0-SSD,blue_square,0-SSD,purple_square,go-1
,911.0,1,phase_3,,,,,,,,red_square,go-2,green_square,tracking-SSD,red_square,go-2
,971.0,2,phase_3,,,,,,,,green_square,tracking-SSD,red_square,go-2,green_square,tracking-SSD
,910.0,2,phase_3,,,,,,,,blue_square,0-SSD,purple_square,go-1,blue_square,0-SSD
,1007.0,2,phase_3,,,,,,,,green_square,tracking-SSD,purple_square,go-1,green_square,tracking-SSD
,1036.0,2,phase_3,,,,,,,,red_square,go-2,purple_square,go-1,red_square,go-2
,705.0,2,phase_3,,,,,,,,blue_square,0-SSD,red_square,go-2,blue_square,0-SSD
,734.0,2,phase_3,,,,,,,,blue_square,0-SSD,blue_square,0-SSD,green_square,tracking-SSD
,1034.0,2,phase_3,,,,,,,,green_square,tracking-SSD,green_square,tracking-SSD,purple_square,go-1
,1074.0,2,phase_3,,,,,,,,purple_square,go-1,red_square,go-2,purple_square,go-1
,643.0,2,phase_3,,,,,,,,blue_square,0-SSD,blue_square,0-SSD,purple_square,go-1
,863.0,2,phase_3,,,,,,,,red_square,go-2,green_square,tracking-SSD,red_square,go-2
,1039.0,2,phase_3,,,,,,,,blue_square,0-SSD,blue_square,0-SSD,red_square,go-2
,1349.0,2,phase_3,,,,,,,,blue_square,0-SSD,green_square,tracking-SSD,blue_square,0-SSD
,601.0,3,phase_3,,,,,,,,blue_square,0-SSD,purple_square,go-1,blue_square,0-SSD
,799.0,3,phase_3,,,,,,,,red_square,go-2,red_square,go-2,green_square,tracking-SSD
,805.0,3,phase_3,,,,,,,,blue_square,0-SSD,red_square,go-2,blue_square,0-SSD
,937.0,3,phase_3,,,,,,,,red_square,go-2,purple_square,go-1,red_square,go-2
,909.0,3,phase_3,,,,,,,,purple_square,go-1,purple_square,go-1,green_square,tracking-SSD
,815.0,3,phase_3,,,,,,,,blue_square,0-SSD,blue_square,0-SSD,green_square,tracking-SSD
,699.0,3,phase_3,,,,,,,,purple_square,go-1,green_square,tracking-SSD,purple_square,go-1
,795.0,3,phase_3,,,,,,,,red_square,go-2,red_square,go-2,purple_square,go-1
,813.0,3,phase_3,,,,,,,,red_square,go-2,green_square,tracking-SSD,red_square,go-2
,651.0,3,phase_3,,,,,,,,blue_square,0-SSD,blue_square,0-SSD,red_square,go-2
,691.0,3,phase_3,,,,,,,,blue_square,0-SSD,green_square,tracking-SSD,blue_square,0-SSD
,1024.0,3,phase_3,,,,,,,,blue_square,0-SSD,blue_square,0-SSD,purple_square,go-1
,532.0,4,phase_3,,,,,,,,blue_square,0-SSD,purple_square,go-1,blue_square,0-SSD
,314.0,4,phase_3,,,,,,,,red_square,go-2,red_square,go-2,blue_square,0-SSD
,815.0,4,phase_3,,,,,,,,blue_square,0-SSD,blue_square,0-SSD,green_square,tracking-SSD
,564.0,4,phase_3,,,,,,,,red_square,go-2,purple_square,go-1,red_square,go-2
,728.0,4,phase_3,,,,,,,,purple_square,go-1,purple_square,go-1,green_square,tracking-SSD
,712.0,4,phase_3,,,,,,,,green_square,tracking-SSD,red_square,go-2,green_square,tracking-SSD
,1023.0,4,phase_3,,,,,,,,green_square,tracking-SSD,green_square,tracking-SSD,red_square,go-2
,1311.0,4,phase_3,,,,,,,,purple_square,go-1,red_square,go-2,purple_square,go-1
,699.0,4,phase_3,,,,,,,,green_square,tracking-SSD,green_square,tracking-SSD,purple_square,go-1
,762.0,4,phase_3,,,,,,,,blue_square,0-SSD,green_square,tracking-SSD,blue_square,0-SSD
,690.0,4,phase_3,,,,,,,,blue_square,0-SSD,blue_square,0-SSD,purple_square,go-1
,731.0,4,phase_3,,,,,,,,blue_square,0-SSD,blue_square,0-SSD,red_square,go-2
,836.0,5,phase_3,,,,,,,,blue_square,0-SSD,blue_square,0-SSD,green_square,tracking-SSD
,651.0,5,phase_3,,,,,,,,blue_square,0-SSD,purple_square,go-1,blue_square,0-SSD
,1647.0,5,phase_3,,,,,,,,purple_square,go-1,purple_square,go-1,green_square,tracking-SSD
,1251.0,5,phase_3,,,,,,,,red_square,go-2,purple_square,go-1,red_square,go-2
,740.0,5,phase_3,,,,,,,,blue_square,0-SSD,red_square,go-2,blue_square,0-SSD
,791.0,5,phase_3,,,,,,,,red_square,go-2,red_square,go-2,green_square,tracking-SSD
,1519.0,5,phase_3,,,,,,,,green_square,tracking-SSD,green_square,tracking-SSD,purple_square,go-1
,636.0,5,phase_3,,,,,,,,purple_square,go-1,red_square,go-2,purple_square,go-1
,553.0,5,phase_3,,,,,,,,blue_square,0-SSD,blue_square,0-SSD,purple_square,go-1
,819.0,5,phase_3,,,,,,,,blue_square,0-SSD,green_square,tracking-SSD,blue_square,0-SSD
,2187.0,5,phase_3,,,,,,,,red_square,go-2,green_square,tracking-SSD,red_square,go-2
,562.0,5,phase_3,,,,,,,,blue_square,0-SSD,blue_square,0-SSD,red_square,go-2
