response,reaction_time,block,which_phase,stim,stop_signal_trial_type,stop_signal_stimulus,SSD,SSD_type,condition,accuracy,chosen_stim,chosen_cond,stim_left,cond_left,stim_right,cond_right
2,903.0,1,phase_2,red_rhombus,stop,blue,250.0,tracking-SSD,go-2,3,,,,,,
1,597.0,1,phase_2,red_circle,go,,,,go-2,1,,,,,,
0,0,1,phase_2,red_circle,stop,green,0.0,0-SSD,go-2,4,,,,,,
2,423.0,1,phase_2,purple_pentagon,go,,,,go-1,1,,,,,,
1,522.0,1,phase_2,purple_triangle,go,,,,go-1,1,,,,,,
1,475.0,1,phase_2,purple_circle,go,,,,go-1,1,,,,,,
2,449.0,1,phase_2,red_pentagon,go,,,,go-2,1,,,,,,
1,347.0,1,phase_2,purple_circle,go,,,,go-1,1,,,,,,
1,468.0,1,phase_2,red_circle,go,,,,go-2,1,,,,,,
0,0,1,phase_2,red_triangle,stop,blue,200.0,tracking-SSD,go-2,4,,,,,,
1,442.0,1,phase_2,red_triangle,go,,,,go-2,1,,,,,,
1,428.0,1,phase_2,purple_triangle,go,,,,go-1,1,,,,,,
1,392.0,1,phase_2,purple_triangle,go,,,,go-1,1,,,,,,
0,0,1,phase_2,red_circle,stop,green,0.0,0-SSD,go-2,4,,,,,,
1,524.0,1,phase_2,purple_triangle,stop,blue,250.0,tracking-SSD,go-1,3,,,,,,
2,488.0,1,phase_2,red_pentagon,go,,,,go-2,1,,,,,,
0,0,1,phase_2,purple_triangle,stop,green,0.0,0-SSD,go-1,4,,,,,,
1,428.0,1,phase_2,red_triangle,go,,,,go-2,1,,,,,,
0,0,1,phase_2,purple_rhombus,stop,green,0.0,0-SSD,go-1,4,,,,,,
2,489.0,1,phase_2,red_pentagon,go,,,,go-2,1,,,,,,
1,543.0,1,phase_2,purple_rhombus,go,,,,go-1,2,,,,,,
2,540.0,1,phase_2,purple_pentagon,go,,,,go-1,1,,,,,,
1,584.0,1,phase_2,purple_circle,stop,blue,200.0,tracking-SSD,go-1,3,,,,,,
2,457.0,1,phase_2,purple_pentagon,go,,,,go-1,1,,,,,,
1,589.0,1,phase_2,red_circle,go,,,,go-2,1,,,,,,
2,609.0,1,phase_2,red_rhombus,go,,,,go-2,1,,,,,,
2,483.0,1,phase_2,red_rhombus,go,,,,go-2,1,,,,,,
1,403.0,1,phase_2,purple_pentagon,go,,,,go-1,2,,,,,,
2,458.0,1,phase_2,red_rhombus,go,,,,go-2,1,,,,,,
0,0,1,phase_2,purple_rhombus,stop,blue,150.0,tracking-SSD,go-1,4,,,,,,
2,532.0,1,phase_2,purple_pentagon,go,,,,go-1,1,,,,,,
0,0,1,phase_2,red_rhombus,stop,blue,200.0,tracking-SSD,go-2,4,,,,,,
2,516.0,1,phase_2,purple_rhombus,go,,,,go-1,1,,,,,,
2,537.0,1,phase_2,purple_pentagon,go,,,,go-1,1,,,,,,
0,0,1,phase_2,red_pentagon,stop,green,0.0,0-SSD,go-2,4,,,,,,
2,454.0,1,phase_2,red_rhombus,go,,,,go-2,1,,,,,,
0,0,1,phase_2,purple_pentagon,stop,blue,250.0,tracking-SSD,go-1,4,,,,,,
0,0,1,phase_2,red_rhombus,stop,green,0.0,0-SSD,go-2,4,,,,,,
1,538.0,1,phase_2,red_circle,go,,,,go-2,1,,,,,,
1,535.0,1,phase_2,red_triangle,stop,blue,300.0,tracking-SSD,go-2,3,,,,,,
1,623.0,1,phase_2,red_circle,go,,,,go-2,1,,,,,,
1,654.0,1,phase_2,red_rhombus,go,,,,go-2,2,,,,,,
0,0,1,phase_2,purple_circle,stop,green,0.0,0-SSD,go-1,4,,,,,,
1,684.0,1,phase_2,purple_circle,go,,,,go-1,1,,,,,,
1,670.0,1,phase_2,purple_triangle,go,,,,go-1,1,,,,,,
0,0,1,phase_2,purple_pentagon,stop,green,0.0,0-SSD,go-1,4,,,,,,
1,690.0,1,phase_2,purple_triangle,go,,,,go-1,1,,,,,,
1,542.0,1,phase_2,red_triangle,go,,,,go-2,1,,,,,,
2,499.0,2,phase_2,purple_pentagon,stop,blue,250.0,tracking-SSD,go-1,3,,,,,,
2,634.0,2,phase_2,purple_pentagon,stop,blue,200.0,tracking-SSD,go-1,3,,,,,,
2,507.0,2,phase_2,red_pentagon,go,,,,go-2,1,,,,,,
1,630.0,2,phase_2,purple_circle,go,,,,go-1,1,,,,,,
2,527.0,2,phase_2,purple_pentagon,go,,,,go-1,1,,,,,,
0,0,2,phase_2,purple_triangle,stop,blue,150.0,tracking-SSD,go-1,4,,,,,,
2,364.0,2,phase_2,red_rhombus,go,,,,go-2,1,,,,,,
1,576.0,2,phase_2,red_circle,stop,blue,200.0,tracking-SSD,go-2,3,,,,,,
1,562.0,2,phase_2,red_circle,go,,,,go-2,1,,,,,,
2,561.0,2,phase_2,purple_pentagon,stop,green,0.0,0-SSD,go-1,3,,,,,,
1,548.0,2,phase_2,purple_circle,go,,,,go-1,1,,,,,,
0,0,2,phase_2,red_rhombus,stop,green,0.0,0-SSD,go-2,4,,,,,,
1,476.0,2,phase_2,purple_triangle,go,,,,go-1,1,,,,,,
1,383.0,2,phase_2,red_triangle,go,,,,go-2,1,,,,,,
2,437.0,2,phase_2,purple_rhombus,stop,green,0.0,0-SSD,go-1,3,,,,,,
1,446.0,2,phase_2,purple_circle,go,,,,go-1,1,,,,,,
1,488.0,2,phase_2,purple_triangle,go,,,,go-1,1,,,,,,
2,575.0,2,phase_2,red_pentagon,go,,,,go-2,1,,,,,,
1,472.0,2,phase_2,red_triangle,go,,,,go-2,1,,,,,,
2,403.0,2,phase_2,red_rhombus,go,,,,go-2,1,,,,,,
1,546.0,2,phase_2,red_triangle,stop,blue,150.0,tracking-SSD,go-2,3,,,,,,
2,646.0,2,phase_2,purple_rhombus,go,,,,go-1,1,,,,,,
0,0,2,phase_2,purple_circle,stop,green,0.0,0-SSD,go-1,4,,,,,,
2,438.0,2,phase_2,purple_circle,go,,,,go-1,2,,,,,,
0,0,2,phase_2,red_rhombus,stop,green,0.0,0-SSD,go-2,4,,,,,,
1,468.0,2,phase_2,purple_circle,go,,,,go-1,1,,,,,,
2,443.0,2,phase_2,red_rhombus,go,,,,go-2,1,,,,,,
1,396.0,2,phase_2,red_rhombus,go,,,,go-2,2,,,,,,
0,0,2,phase_2,red_pentagon,stop,green,0.0,0-SSD,go-2,4,,,,,,
2,515.0,2,phase_2,purple_rhombus,go,,,,go-1,1,,,,,,
2,524.0,2,phase_2,red_pentagon,go,,,,go-2,1,,,,,,
2,465.0,2,phase_2,purple_pentagon,go,,,,go-1,1,,,,,,
1,576.0,2,phase_2,purple_triangle,go,,,,go-1,1,,,,,,
0,0,2,phase_2,red_circle,stop,blue,100.0,tracking-SSD,go-2,4,,,,,,
1,539.0,2,phase_2,red_triangle,go,,,,go-2,1,,,,,,
1,412.0,2,phase_2,red_triangle,go,,,,go-2,1,,,,,,
0,0,2,phase_2,red_rhombus,stop,blue,150.0,tracking-SSD,go-2,4,,,,,,
2,542.0,2,phase_2,red_rhombus,go,,,,go-2,1,,,,,,
1,540.0,2,phase_2,purple_circle,go,,,,go-1,1,,,,,,
1,449.0,2,phase_2,purple_triangle,go,,,,go-1,1,,,,,,
0,0,2,phase_2,red_pentagon,stop,green,0.0,0-SSD,go-2,4,,,,,,
0,0,2,phase_2,purple_triangle,stop,green,0.0,0-SSD,go-1,4,,,,,,
1,410.0,2,phase_2,purple_circle,go,,,,go-1,1,,,,,,
2,408.0,2,phase_2,red_rhombus,go,,,,go-2,1,,,,,,
1,395.0,2,phase_2,purple_triangle,stop,blue,200.0,tracking-SSD,go-1,3,,,,,,
2,392.0,2,phase_2,red_pentagon,go,,,,go-2,1,,,,,,
1,446.0,2,phase_2,red_circle,go,,,,go-2,1,,,,,,
2,421.0,2,phase_2,purple_pentagon,go,,,,go-1,1,,,,,,
1,443.0,3,phase_2,purple_triangle,go,,,,go-1,1,,,,,,
1,384.0,3,phase_2,red_triangle,go,,,,go-2,1,,,,,,
1,495.0,3,phase_2,red_circle,go,,,,go-2,1,,,,,,
2,447.0,3,phase_2,purple_pentagon,go,,,,go-1,1,,,,,,
1,388.0,3,phase_2,purple_triangle,stop,blue,150.0,tracking-SSD,go-1,3,,,,,,
0,0,3,phase_2,red_rhombus,stop,blue,100.0,tracking-SSD,go-2,4,,,,,,
0,0,3,phase_2,purple_pentagon,stop,blue,150.0,tracking-SSD,go-1,4,,,,,,
1,506.0,3,phase_2,purple_circle,stop,blue,200.0,tracking-SSD,go-1,3,,,,,,
2,414.0,3,phase_2,purple_triangle,go,,,,go-1,2,,,,,,
1,615.0,3,phase_2,purple_circle,go,,,,go-1,1,,,,,,
1,545.0,3,phase_2,red_triangle,go,,,,go-2,1,,,,,,
2,419.0,3,phase_2,purple_rhombus,go,,,,go-1,1,,,,,,
2,506.0,3,phase_2,red_rhombus,go,,,,go-2,1,,,,,,
0,0,3,phase_2,red_pentagon,stop,green,0.0,0-SSD,go-2,4,,,,,,
1,547.0,3,phase_2,red_circle,go,,,,go-2,1,,,,,,
2,522.0,3,phase_2,purple_rhombus,go,,,,go-1,1,,,,,,
2,497.0,3,phase_2,purple_rhombus,go,,,,go-1,1,,,,,,
2,552.0,3,phase_2,red_pentagon,go,,,,go-2,1,,,,,,
1,629.0,3,phase_2,red_circle,go,,,,go-2,1,,,,,,
2,480.0,3,phase_2,red_pentagon,go,,,,go-2,1,,,,,,
0,0,3,phase_2,red_pentagon,stop,green,0.0,0-SSD,go-2,4,,,,,,
2,532.0,3,phase_2,red_rhombus,go,,,,go-2,1,,,,,,
2,540.0,3,phase_2,red_pentagon,stop,blue,150.0,tracking-SSD,go-2,3,,,,,,
0,0,3,phase_2,purple_pentagon,stop,green,0.0,0-SSD,go-1,4,,,,,,
1,468.0,3,phase_2,purple_circle,go,,,,go-1,1,,,,,,
1,532.0,3,phase_2,purple_triangle,go,,,,go-1,1,,,,,,
1,529.0,3,phase_2,red_circle,go,,,,go-2,1,,,,,,
0,0,3,phase_2,purple_circle,stop,green,0.0,0-SSD,go-1,4,,,,,,
2,502.0,3,phase_2,purple_pentagon,go,,,,go-1,1,,,,,,
1,400.0,3,phase_2,purple_triangle,go,,,,go-1,1,,,,,,
1,567.0,3,phase_2,red_circle,go,,,,go-2,1,,,,,,
1,397.0,3,phase_2,red_triangle,go,,,,go-2,1,,,,,,
0,0,3,phase_2,purple_rhombus,stop,green,0.0,0-SSD,go-1,4,,,,,,
0,0,3,phase_2,red_triangle,stop,green,0.0,0-SSD,go-2,4,,,,,,
2,535.0,3,phase_2,purple_rhombus,go,,,,go-1,1,,,,,,
0,0,3,phase_2,red_rhombus,stop,blue,100.0,tracking-SSD,go-2,4,,,,,,
0,0,3,phase_2,purple_rhombus,stop,green,0.0,0-SSD,go-1,4,,,,,,
2,561.0,3,phase_2,purple_pentagon,go,,,,go-1,1,,,,,,
2,514.0,3,phase_2,red_rhombus,go,,,,go-2,1,,,,,,
0,0,3,phase_2,red_circle,stop,green,0.0,0-SSD,go-2,4,,,,,,
1,488.0,3,phase_2,purple_triangle,go,,,,go-1,1,,,,,,
1,610.0,3,phase_2,red_circle,go,,,,go-2,1,,,,,,
2,562.0,3,phase_2,purple_pentagon,go,,,,go-1,1,,,,,,
2,694.0,3,phase_2,purple_rhombus,stop,blue,150.0,tracking-SSD,go-1,3,,,,,,
1,569.0,3,phase_2,red_circle,go,,,,go-2,1,,,,,,
2,612.0,3,phase_2,red_pentagon,go,,,,go-2,1,,,,,,
1,417.0,3,phase_2,purple_triangle,go,,,,go-1,1,,,,,,
1,404.0,3,phase_2,red_triangle,stop,blue,100.0,tracking-SSD,go-2,3,,,,,,
1,555.0,4,phase_2,red_circle,stop,green,0.0,0-SSD,go-2,3,,,,,,
0,0,4,phase_2,red_triangle,stop,blue,50.0,tracking-SSD,go-2,4,,,,,,
2,483.0,4,phase_2,red_pentagon,go,,,,go-2,1,,,,,,
2,436.0,4,phase_2,red_pentagon,go,,,,go-2,1,,,,,,
0,0,4,phase_2,purple_rhombus,stop,green,0.0,0-SSD,go-1,4,,,,,,
1,375.0,4,phase_2,purple_circle,go,,,,go-1,1,,,,,,
2,383.0,4,phase_2,purple_pentagon,go,,,,go-1,1,,,,,,
2,414.0,4,phase_2,red_pentagon,go,,,,go-2,1,,,,,,
0,0,4,phase_2,red_circle,stop,green,0.0,0-SSD,go-2,4,,,,,,
2,342.0,4,phase_2,purple_pentagon,go,,,,go-1,1,,,,,,
2,464.0,4,phase_2,red_pentagon,stop,blue,100.0,tracking-SSD,go-2,3,,,,,,
1,371.0,4,phase_2,purple_rhombus,go,,,,go-1,2,,,,,,
1,381.0,4,phase_2,red_circle,go,,,,go-2,1,,,,,,
1,503.0,4,phase_2,purple_circle,go,,,,go-1,1,,,,,,
0,0,4,phase_2,red_triangle,stop,green,0.0,0-SSD,go-2,4,,,,,,
1,387.0,4,phase_2,red_triangle,go,,,,go-2,1,,,,,,
0,0,4,phase_2,purple_pentagon,stop,green,0.0,0-SSD,go-1,4,,,,,,
2,564.0,4,phase_2,purple_pentagon,go,,,,go-1,1,,,,,,
1,382.0,4,phase_2,red_triangle,go,,,,go-2,1,,,,,,
0,0,4,phase_2,purple_rhombus,stop,green,0.0,0-SSD,go-1,4,,,,,,
1,390.0,4,phase_2,purple_triangle,go,,,,go-1,1,,,,,,
1,398.0,4,phase_2,red_circle,go,,,,go-2,1,,,,,,
2,374.0,4,phase_2,red_rhombus,go,,,,go-2,1,,,,,,
1,394.0,4,phase_2,purple_triangle,go,,,,go-1,1,,,,,,
0,0,4,phase_2,purple_pentagon,stop,blue,50.0,tracking-SSD,go-1,4,,,,,,
2,523.0,4,phase_2,red_rhombus,go,,,,go-2,1,,,,,,
1,330.0,4,phase_2,red_circle,go,,,,go-2,1,,,,,,
1,530.0,4,phase_2,red_triangle,go,,,,go-2,1,,,,,,
1,449.0,4,phase_2,purple_triangle,stop,blue,100.0,tracking-SSD,go-1,3,,,,,,
2,402.0,4,phase_2,red_pentagon,stop,blue,50.0,tracking-SSD,go-2,3,,,,,,
2,400.0,4,phase_2,purple_pentagon,go,,,,go-1,1,,,,,,
2,455.0,4,phase_2,purple_rhombus,go,,,,go-1,1,,,,,,
1,419.0,4,phase_2,red_circle,go,,,,go-2,1,,,,,,
2,339.0,4,phase_2,purple_rhombus,go,,,,go-1,1,,,,,,
2,696.0,4,phase_2,red_rhombus,stop,green,0.0,0-SSD,go-2,3,,,,,,
1,537.0,4,phase_2,purple_circle,go,,,,go-1,1,,,,,,
2,366.0,4,phase_2,purple_rhombus,go,,,,go-1,1,,,,,,
1,375.0,4,phase_2,purple_circle,go,,,,go-1,1,,,,,,
1,631.0,4,phase_2,red_triangle,go,,,,go-2,1,,,,,,
2,460.0,4,phase_2,red_pentagon,go,,,,go-2,1,,,,,,
0,0,4,phase_2,red_triangle,stop,blue,0.0,tracking-SSD,go-2,4,,,,,,
1,410.0,4,phase_2,red_circle,go,,,,go-2,1,,,,,,
0,0,4,phase_2,purple_circle,stop,blue,50.0,tracking-SSD,go-1,4,,,,,,
2,349.0,4,phase_2,purple_rhombus,go,,,,go-1,1,,,,,,
0,0,4,phase_2,purple_rhombus,stop,green,0.0,0-SSD,go-1,4,,,,,,
1,355.0,4,phase_2,red_triangle,go,,,,go-2,1,,,,,,
0,0,4,phase_2,purple_rhombus,stop,blue,100.0,tracking-SSD,go-1,4,,,,,,
1,396.0,4,phase_2,purple_triangle,go,,,,go-1,1,,,,,,
1,453.0,5,phase_2,purple_circle,go,,,,go-1,1,,,,,,
0,0,5,phase_2,purple_pentagon,stop,green,0.0,0-SSD,go-1,4,,,,,,
1,348.0,5,phase_2,red_triangle,go,,,,go-2,1,,,,,,
2,469.0,5,phase_2,purple_rhombus,go,,,,go-1,1,,,,,,
0,0,5,phase_2,red_circle,stop,green,0.0,0-SSD,go-2,4,,,,,,
2,577.0,5,phase_2,red_pentagon,go,,,,go-2,1,,,,,,
1,396.0,5,phase_2,red_triangle,go,,,,go-2,1,,,,,,
1,439.0,5,phase_2,red_triangle,go,,,,go-2,1,,,,,,
1,449.0,5,phase_2,red_circle,go,,,,go-2,1,,,,,,
0,0,5,phase_2,purple_circle,stop,green,0.0,0-SSD,go-1,4,,,,,,
2,534.0,5,phase_2,red_pentagon,go,,,,go-2,1,,,,,,
2,465.0,5,phase_2,purple_rhombus,go,,,,go-1,1,,,,,,
1,327.0,5,phase_2,purple_circle,stop,blue,150.0,tracking-SSD,go-1,3,,,,,,
1,507.0,5,phase_2,red_circle,go,,,,go-2,1,,,,,,
0,0,5,phase_2,purple_pentagon,stop,blue,100.0,tracking-SSD,go-1,4,,,,,,
2,378.0,5,phase_2,red_rhombus,go,,,,go-2,1,,,,,,
2,488.0,5,phase_2,purple_pentagon,go,,,,go-1,1,,,,,,
2,454.0,5,phase_2,red_rhombus,stop,blue,150.0,tracking-SSD,go-2,3,,,,,,
1,361.0,5,phase_2,red_triangle,go,,,,go-2,1,,,,,,
0,0,5,phase_2,red_triangle,stop,blue,100.0,tracking-SSD,go-2,4,,,,,,
0,0,5,phase_2,purple_circle,stop,green,0.0,0-SSD,go-1,4,,,,,,
0,0,5,phase_2,red_rhombus,stop,green,0.0,0-SSD,go-2,4,,,,,,
2,500.0,5,phase_2,purple_pentagon,go,,,,go-1,1,,,,,,
1,384.0,5,phase_2,red_triangle,go,,,,go-2,1,,,,,,
2,516.0,5,phase_2,red_pentagon,go,,,,go-2,1,,,,,,
0,0,5,phase_2,red_pentagon,stop,green,0.0,0-SSD,go-2,4,,,,,,
0,0,5,phase_2,purple_pentagon,stop,green,0.0,0-SSD,go-1,4,,,,,,
1,434.0,5,phase_2,red_circle,stop,blue,150.0,tracking-SSD,go-2,3,,,,,,
2,397.0,5,phase_2,purple_triangle,go,,,,go-1,2,,,,,,
1,349.0,5,phase_2,red_triangle,go,,,,go-2,1,,,,,,
2,448.0,5,phase_2,red_rhombus,go,,,,go-2,1,,,,,,
0,0,5,phase_2,purple_rhombus,stop,blue,100.0,tracking-SSD,go-1,4,,,,,,
2,421.0,5,phase_2,purple_rhombus,go,,,,go-1,1,,,,,,
1,509.0,5,phase_2,purple_triangle,go,,,,go-1,1,,,,,,
0,0,5,phase_2,red_triangle,stop,green,0.0,0-SSD,go-2,4,,,,,,
2,413.0,5,phase_2,red_pentagon,stop,blue,150.0,tracking-SSD,go-2,3,,,,,,
2,411.0,5,phase_2,red_rhombus,go,,,,go-2,1,,,,,,
2,467.0,5,phase_2,red_rhombus,go,,,,go-2,1,,,,,,
1,407.0,5,phase_2,red_circle,go,,,,go-2,1,,,,,,
2,429.0,5,phase_2,purple_pentagon,go,,,,go-1,1,,,,,,
1,439.0,5,phase_2,purple_circle,go,,,,go-1,1,,,,,,
0,0,5,phase_2,purple_circle,stop,blue,100.0,tracking-SSD,go-1,4,,,,,,
1,390.0,5,phase_2,purple_rhombus,go,,,,go-1,2,,,,,,
2,534.0,5,phase_2,purple_rhombus,go,,,,go-1,1,,,,,,
1,497.0,5,phase_2,purple_triangle,go,,,,go-1,1,,,,,,
1,463.0,5,phase_2,purple_circle,go,,,,go-1,1,,,,,,
1,450.0,5,phase_2,purple_triangle,go,,,,go-1,1,,,,,,
2,426.0,5,phase_2,purple_pentagon,go,,,,go-1,1,,,,,,
2,498.0,6,phase_2,purple_rhombus,go,,,,go-1,1,,,,,,
1,699.0,6,phase_2,red_triangle,stop,green,0.0,0-SSD,go-2,3,,,,,,
2,471.0,6,phase_2,red_pentagon,go,,,,go-2,1,,,,,,
1,379.0,6,phase_2,purple_pentagon,go,,,,go-1,2,,,,,,
2,536.0,6,phase_2,red_pentagon,go,,,,go-2,1,,,,,,
1,499.0,6,phase_2,purple_circle,go,,,,go-1,1,,,,,,
1,576.0,6,phase_2,purple_triangle,go,,,,go-1,1,,,,,,
1,382.0,6,phase_2,red_triangle,go,,,,go-2,1,,,,,,
0,0,6,phase_2,red_triangle,stop,green,0.0,0-SSD,go-2,4,,,,,,
2,456.0,6,phase_2,red_rhombus,stop,blue,150.0,tracking-SSD,go-2,3,,,,,,
0,0,6,phase_2,purple_rhombus,stop,blue,100.0,tracking-SSD,go-1,4,,,,,,
2,496.0,6,phase_2,red_pentagon,go,,,,go-2,1,,,,,,
1,392.0,6,phase_2,purple_triangle,go,,,,go-1,1,,,,,,
2,479.0,6,phase_2,red_rhombus,go,,,,go-2,1,,,,,,
2,454.0,6,phase_2,red_rhombus,go,,,,go-2,1,,,,,,
0,0,6,phase_2,purple_circle,stop,green,0.0,0-SSD,go-1,4,,,,,,
2,428.0,6,phase_2,purple_pentagon,go,,,,go-1,1,,,,,,
1,425.0,6,phase_2,purple_circle,stop,blue,150.0,tracking-SSD,go-1,3,,,,,,
0,0,6,phase_2,purple_rhombus,stop,green,0.0,0-SSD,go-1,4,,,,,,
2,398.0,6,phase_2,red_rhombus,go,,,,go-2,1,,,,,,
2,418.0,6,phase_2,purple_pentagon,go,,,,go-1,1,,,,,,
1,348.0,6,phase_2,red_triangle,go,,,,go-2,1,,,,,,
2,391.0,6,phase_2,red_pentagon,go,,,,go-2,1,,,,,,
2,388.0,6,phase_2,red_triangle,go,,,,go-2,2,,,,,,
1,522.0,6,phase_2,red_triangle,go,,,,go-2,1,,,,,,
0,0,6,phase_2,red_circle,stop,blue,100.0,tracking-SSD,go-2,4,,,,,,
2,482.0,6,phase_2,purple_rhombus,stop,blue,150.0,tracking-SSD,go-1,3,,,,,,
2,603.0,6,phase_2,red_rhombus,go,,,,go-2,1,,,,,,
2,444.0,6,phase_2,purple_rhombus,go,,,,go-1,1,,,,,,
0,0,6,phase_2,red_pentagon,stop,blue,100.0,tracking-SSD,go-2,4,,,,,,
2,485.0,6,phase_2,purple_pentagon,go,,,,go-1,1,,,,,,
1,628.0,6,phase_2,purple_triangle,go,,,,go-1,1,,,,,,
0,0,6,phase_2,red_circle,stop,green,0.0,0-SSD,go-2,4,,,,,,
2,511.0,6,phase_2,red_pentagon,go,,,,go-2,1,,,,,,
1,487.0,6,phase_2,purple_circle,go,,,,go-1,1,,,,,,
0,0,6,phase_2,purple_pentagon,stop,green,0.0,0-SSD,go-1,4,,,,,,
2,471.0,6,phase_2,red_pentagon,stop,blue,150.0,tracking-SSD,go-2,3,,,,,,
1,491.0,6,phase_2,red_circle,go,,,,go-2,1,,,,,,
1,557.0,6,phase_2,purple_circle,go,,,,go-1,1,,,,,,
0,0,6,phase_2,purple_triangle,stop,blue,100.0,tracking-SSD,go-1,4,,,,,,
1,450.0,6,phase_2,purple_triangle,go,,,,go-1,1,,,,,,
1,504.0,6,phase_2,purple_circle,go,,,,go-1,1,,,,,,
1,467.0,6,phase_2,purple_circle,go,,,,go-1,1,,,,,,
1,531.0,6,phase_2,red_triangle,go,,,,go-2,1,,,,,,
2,574.0,6,phase_2,red_rhombus,go,,,,go-2,1,,,,,,
0,0,6,phase_2,red_rhombus,stop,green,0.0,0-SSD,go-2,4,,,,,,
0,0,6,phase_2,purple_circle,stop,green,0.0,0-SSD,go-1,4,,,,,,
1,467.0,6,phase_2,purple_circle,go,,,,go-1,1,,,,,,
0,0,7,phase_2,purple_pentagon,stop,green,0.0,0-SSD,go-1,4,,,,,,
2,417.0,7,phase_2,red_rhombus,stop,blue,150.0,tracking-SSD,go-2,3,,,,,,
2,348.0,7,phase_2,red_circle,go,,,,go-2,2,,,,,,
0,0,7,phase_2,red_pentagon,stop,green,0.0,0-SSD,go-2,4,,,,,,
1,478.0,7,phase_2,red_circle,go,,,,go-2,1,,,,,,
1,407.0,7,phase_2,red_triangle,go,,,,go-2,1,,,,,,
0,0,7,phase_2,purple_triangle,stop,blue,100.0,tracking-SSD,go-1,4,,,,,,
1,425.0,7,phase_2,red_circle,go,,,,go-2,1,,,,,,
1,468.0,7,phase_2,red_circle,go,,,,go-2,1,,,,,,
0,0,7,phase_2,purple_circle,stop,green,0.0,0-SSD,go-1,4,,,,,,
0,0,7,phase_2,red_pentagon,stop,green,0.0,0-SSD,go-2,4,,,,,,
1,395.0,7,phase_2,purple_triangle,go,,,,go-1,1,,,,,,
1,380.0,7,phase_2,purple_triangle,go,,,,go-1,1,,,,,,
1,357.0,7,phase_2,purple_triangle,stop,blue,150.0,tracking-SSD,go-1,3,,,,,,
2,455.0,7,phase_2,red_pentagon,go,,,,go-2,1,,,,,,
0,0,7,phase_2,red_rhombus,stop,green,0.0,0-SSD,go-2,4,,,,,,
1,337.0,7,phase_2,purple_pentagon,go,,,,go-1,2,,,,,,
1,459.0,7,phase_2,purple_circle,go,,,,go-1,1,,,,,,
1,366.0,7,phase_2,purple_triangle,go,,,,go-1,1,,,,,,
1,386.0,7,phase_2,red_triangle,go,,,,go-2,1,,,,,,
2,642.0,7,phase_2,purple_pentagon,go,,,,go-1,1,,,,,,
2,426.0,7,phase_2,purple_rhombus,go,,,,go-1,1,,,,,,
1,434.0,7,phase_2,purple_circle,go,,,,go-1,1,,,,,,
1,444.0,7,phase_2,purple_triangle,go,,,,go-1,1,,,,,,
1,418.0,7,phase_2,red_triangle,go,,,,go-2,1,,,,,,
2,393.0,7,phase_2,purple_pentagon,go,,,,go-1,1,,,,,,
0,0,7,phase_2,red_triangle,stop,green,0.0,0-SSD,go-2,4,,,,,,
1,513.0,7,phase_2,red_circle,go,,,,go-2,1,,,,,,
0,0,7,phase_2,red_rhombus,stop,blue,100.0,tracking-SSD,go-2,4,,,,,,
2,486.0,7,phase_2,purple_rhombus,stop,blue,150.0,tracking-SSD,go-1,3,,,,,,
1,529.0,7,phase_2,purple_circle,stop,green,0.0,0-SSD,go-1,3,,,,,,
2,437.0,7,phase_2,red_pentagon,go,,,,go-2,1,,,,,,
2,435.0,7,phase_2,purple_pentagon,go,,,,go-1,1,,,,,,
2,915.0,7,phase_2,purple_rhombus,go,,,,go-1,1,,,,,,
1,429.0,7,phase_2,purple_circle,go,,,,go-1,1,,,,,,
1,506.0,7,phase_2,purple_triangle,go,,,,go-1,1,,,,,,
1,560.0,7,phase_2,red_circle,go,,,,go-2,1,,,,,,
0,0,7,phase_2,purple_rhombus,stop,green,0.0,0-SSD,go-1,4,,,,,,
2,511.0,7,phase_2,red_rhombus,go,,,,go-2,1,,,,,,
1,543.0,7,phase_2,red_circle,go,,,,go-2,1,,,,,,
2,495.0,7,phase_2,purple_pentagon,go,,,,go-1,1,,,,,,
1,515.0,7,phase_2,red_triangle,go,,,,go-2,1,,,,,,
0,0,7,phase_2,red_rhombus,stop,blue,100.0,tracking-SSD,go-2,4,,,,,,
0,0,7,phase_2,red_rhombus,stop,blue,150.0,tracking-SSD,go-2,4,,,,,,
2,508.0,7,phase_2,purple_pentagon,stop,blue,200.0,tracking-SSD,go-1,3,,,,,,
2,595.0,7,phase_2,purple_rhombus,go,,,,go-1,1,,,,,,
2,424.0,7,phase_2,red_pentagon,go,,,,go-2,1,,,,,,
2,424.0,7,phase_2,red_rhombus,go,,,,go-2,1,,,,,,
2,408.0,8,phase_2,red_rhombus,go,,,,go-2,1,,,,,,
0,0,8,phase_2,red_pentagon,stop,blue,150.0,tracking-SSD,go-2,4,,,,,,
2,415.0,8,phase_2,red_pentagon,go,,,,go-2,1,,,,,,
0,0,8,phase_2,red_pentagon,stop,blue,200.0,tracking-SSD,go-2,4,,,,,,
1,525.0,8,phase_2,red_circle,go,,,,go-2,1,,,,,,
2,488.0,8,phase_2,red_rhombus,go,,,,go-2,1,,,,,,
1,395.0,8,phase_2,purple_pentagon,go,,,,go-1,2,,,,,,
2,405.0,8,phase_2,purple_pentagon,go,,,,go-1,1,,,,,,
0,0,8,phase_2,red_pentagon,stop,green,0.0,0-SSD,go-2,4,,,,,,
2,526.0,8,phase_2,purple_rhombus,go,,,,go-1,1,,,,,,
1,388.0,8,phase_2,purple_triangle,stop,blue,250.0,tracking-SSD,go-1,3,,,,,,
1,588.0,8,phase_2,red_circle,go,,,,go-2,1,,,,,,
1,485.0,8,phase_2,purple_circle,go,,,,go-1,1,,,,,,
2,506.0,8,phase_2,purple_pentagon,go,,,,go-1,1,,,,,,
1,380.0,8,phase_2,purple_triangle,stop,blue,200.0,tracking-SSD,go-1,3,,,,,,
1,512.0,8,phase_2,red_triangle,go,,,,go-2,1,,,,,,
0,0,8,phase_2,red_rhombus,stop,green,0.0,0-SSD,go-2,4,,,,,,
1,519.0,8,phase_2,purple_circle,go,,,,go-1,1,,,,,,
1,404.0,8,phase_2,red_triangle,go,,,,go-2,1,,,,,,
1,527.0,8,phase_2,red_circle,go,,,,go-2,1,,,,,,
0,0,8,phase_2,purple_triangle,stop,green,0.0,0-SSD,go-1,4,,,,,,
1,376.0,8,phase_2,red_rhombus,go,,,,go-2,2,,,,,,
1,519.0,8,phase_2,purple_triangle,go,,,,go-1,1,,,,,,
2,438.0,8,phase_2,purple_rhombus,go,,,,go-1,1,,,,,,
0,0,8,phase_2,red_pentagon,stop,blue,150.0,tracking-SSD,go-2,4,,,,,,
2,479.0,8,phase_2,red_rhombus,go,,,,go-2,1,,,,,,
1,678.0,8,phase_2,purple_triangle,stop,blue,200.0,tracking-SSD,go-1,3,,,,,,
1,631.0,8,phase_2,purple_triangle,go,,,,go-1,1,,,,,,
0,0,8,phase_2,purple_circle,stop,green,0.0,0-SSD,go-1,4,,,,,,
2,435.0,8,phase_2,red_pentagon,go,,,,go-2,1,,,,,,
2,411.0,8,phase_2,purple_pentagon,go,,,,go-1,1,,,,,,
1,500.0,8,phase_2,purple_circle,go,,,,go-1,1,,,,,,
1,418.0,8,phase_2,purple_circle,go,,,,go-1,1,,,,,,
2,494.0,8,phase_2,purple_rhombus,go,,,,go-1,1,,,,,,
0,0,8,phase_2,red_rhombus,stop,blue,150.0,tracking-SSD,go-2,4,,,,,,
0,0,8,phase_2,red_rhombus,stop,green,0.0,0-SSD,go-2,4,,,,,,
1,387.0,8,phase_2,red_triangle,go,,,,go-2,1,,,,,,
0,0,8,phase_2,purple_circle,stop,green,0.0,0-SSD,go-1,4,,,,,,
2,416.0,8,phase_2,red_pentagon,go,,,,go-2,1,,,,,,
2,447.0,8,phase_2,red_pentagon,go,,,,go-2,1,,,,,,
0,0,8,phase_2,purple_triangle,stop,green,0.0,0-SSD,go-1,4,,,,,,
1,554.0,8,phase_2,purple_circle,go,,,,go-1,1,,,,,,
1,382.0,8,phase_2,purple_circle,go,,,,go-1,1,,,,,,
1,404.0,8,phase_2,red_circle,go,,,,go-2,1,,,,,,
1,559.0,8,phase_2,purple_triangle,go,,,,go-1,1,,,,,,
2,410.0,8,phase_2,red_rhombus,go,,,,go-2,1,,,,,,
2,520.0,8,phase_2,purple_rhombus,stop,blue,200.0,tracking-SSD,go-1,3,,,,,,
0,0,8,phase_2,red_triangle,stop,green,0.0,0-SSD,go-2,4,,,,,,
1,578.0,9,phase_2,red_circle,stop,blue,150.0,tracking-SSD,go-2,3,,,,,,
2,396.0,9,phase_2,red_rhombus,stop,blue,100.0,tracking-SSD,go-2,3,,,,,,
1,461.0,9,phase_2,purple_circle,go,,,,go-1,1,,,,,,
1,514.0,9,phase_2,red_triangle,go,,,,go-2,1,,,,,,
2,423.0,9,phase_2,red_pentagon,go,,,,go-2,1,,,,,,
0,0,9,phase_2,purple_triangle,stop,green,0.0,0-SSD,go-1,4,,,,,,
0,0,9,phase_2,purple_circle,stop,blue,50.0,tracking-SSD,go-1,4,,,,,,
2,384.0,9,phase_2,red_pentagon,go,,,,go-2,1,,,,,,
2,392.0,9,phase_2,purple_pentagon,go,,,,go-1,1,,,,,,
2,334.0,9,phase_2,purple_rhombus,go,,,,go-1,1,,,,,,
1,341.0,9,phase_2,purple_triangle,go,,,,go-1,1,,,,,,
2,384.0,9,phase_2,purple_pentagon,stop,blue,100.0,tracking-SSD,go-1,3,,,,,,
1,461.0,9,phase_2,purple_circle,go,,,,go-1,1,,,,,,
1,458.0,9,phase_2,purple_circle,go,,,,go-1,1,,,,,,
2,412.0,9,phase_2,red_rhombus,go,,,,go-2,1,,,,,,
1,411.0,9,phase_2,purple_circle,go,,,,go-1,1,,,,,,
2,352.0,9,phase_2,red_rhombus,go,,,,go-2,1,,,,,,
1,350.0,9,phase_2,red_triangle,go,,,,go-2,1,,,,,,
2,426.0,9,phase_2,red_rhombus,go,,,,go-2,1,,,,,,
1,368.0,9,phase_2,purple_triangle,go,,,,go-1,1,,,,,,
1,546.0,9,phase_2,purple_circle,go,,,,go-1,1,,,,,,
2,419.0,9,phase_2,purple_pentagon,go,,,,go-1,1,,,,,,
0,0,9,phase_2,purple_triangle,stop,green,0.0,0-SSD,go-1,4,,,,,,
2,427.0,9,phase_2,purple_pentagon,go,,,,go-1,1,,,,,,
1,402.0,9,phase_2,red_circle,go,,,,go-2,1,,,,,,
0,0,9,phase_2,red_rhombus,stop,blue,50.0,tracking-SSD,go-2,4,,,,,,
1,589.0,9,phase_2,red_circle,stop,blue,100.0,tracking-SSD,go-2,3,,,,,,
1,574.0,9,phase_2,red_triangle,go,,,,go-2,1,,,,,,
0,0,9,phase_2,red_rhombus,stop,green,0.0,0-SSD,go-2,4,,,,,,
2,502.0,9,phase_2,purple_pentagon,go,,,,go-1,1,,,,,,
2,431.0,9,phase_2,red_pentagon,go,,,,go-2,1,,,,,,
0,0,9,phase_2,red_rhombus,stop,green,0.0,0-SSD,go-2,4,,,,,,
2,370.0,9,phase_2,red_triangle,go,,,,go-2,2,,,,,,
1,493.0,9,phase_2,red_triangle,go,,,,go-2,1,,,,,,
0,0,9,phase_2,purple_circle,stop,blue,50.0,tracking-SSD,go-1,4,,,,,,
0,0,9,phase_2,red_rhombus,stop,green,0.0,0-SSD,go-2,4,,,,,,
2,520.0,9,phase_2,red_pentagon,go,,,,go-2,1,,,,,,
2,507.0,9,phase_2,red_pentagon,go,,,,go-2,1,,,,,,
1,493.0,9,phase_2,red_triangle,go,,,,go-2,1,,,,,,
0,0,9,phase_2,purple_circle,stop,green,0.0,0-SSD,go-1,4,,,,,,
2,431.0,9,phase_2,purple_rhombus,go,,,,go-1,1,,,,,,
0,0,9,phase_2,red_triangle,stop,green,0.0,0-SSD,go-2,4,,,,,,
2,427.0,9,phase_2,red_pentagon,go,,,,go-2,1,,,,,,
0,0,9,phase_2,purple_rhombus,stop,green,0.0,0-SSD,go-1,4,,,,,,
0,0,9,phase_2,purple_circle,stop,blue,100.0,tracking-SSD,go-1,4,,,,,,
2,441.0,9,phase_2,purple_rhombus,go,,,,go-1,1,,,,,,
2,461.0,9,phase_2,purple_triangle,go,,,,go-1,2,,,,,,
2,516.0,9,phase_2,purple_pentagon,go,,,,go-1,1,,,,,,
2,397.0,10,phase_2,purple_pentagon,go,,,,go-1,1,,,,,,
0,0,10,phase_2,purple_circle,stop,blue,150.0,tracking-SSD,go-1,4,,,,,,
0,0,10,phase_2,red_pentagon,stop,green,0.0,0-SSD,go-2,4,,,,,,
1,367.0,10,phase_2,red_triangle,go,,,,go-2,1,,,,,,
2,500.0,10,phase_2,red_rhombus,go,,,,go-2,1,,,,,,
1,441.0,10,phase_2,red_triangle,stop,blue,200.0,tracking-SSD,go-2,3,,,,,,
1,495.0,10,phase_2,red_circle,stop,blue,150.0,tracking-SSD,go-2,3,,,,,,
1,415.0,10,phase_2,red_circle,go,,,,go-2,1,,,,,,
1,513.0,10,phase_2,purple_triangle,go,,,,go-1,1,,,,,,
2,410.0,10,phase_2,red_rhombus,stop,green,0.0,0-SSD,go-2,3,,,,,,
0,0,10,phase_2,purple_circle,stop,green,0.0,0-SSD,go-1,4,,,,,,
1,405.0,10,phase_2,red_triangle,go,,,,go-2,1,,,,,,
2,358.0,10,phase_2,purple_rhombus,go,,,,go-1,1,,,,,,
2,491.0,10,phase_2,red_rhombus,go,,,,go-2,1,,,,,,
0,0,10,phase_2,purple_pentagon,stop,blue,100.0,tracking-SSD,go-1,4,,,,,,
0,0,10,phase_2,red_circle,stop,blue,150.0,tracking-SSD,go-2,4,,,,,,
0,0,10,phase_2,purple_circle,stop,blue,200.0,tracking-SSD,go-1,4,,,,,,
0,0,10,phase_2,purple_pentagon,stop,green,0.0,0-SSD,go-1,4,,,,,,
2,356.0,10,phase_2,red_pentagon,go,,,,go-2,1,,,,,,
0,0,10,phase_2,red_rhombus,stop,green,0.0,0-SSD,go-2,4,,,,,,
2,341.0,10,phase_2,red_rhombus,go,,,,go-2,1,,,,,,
1,485.0,10,phase_2,purple_triangle,go,,,,go-1,1,,,,,,
1,416.0,10,phase_2,purple_triangle,go,,,,go-1,1,,,,,,
1,447.0,10,phase_2,purple_pentagon,go,,,,go-1,2,,,,,,
1,615.0,10,phase_2,red_circle,go,,,,go-2,1,,,,,,
2,409.0,10,phase_2,purple_pentagon,go,,,,go-1,1,,,,,,
1,430.0,10,phase_2,red_triangle,go,,,,go-2,1,,,,,,
1,630.0,10,phase_2,purple_circle,go,,,,go-1,1,,,,,,
2,426.0,10,phase_2,purple_pentagon,go,,,,go-1,1,,,,,,
1,367.0,10,phase_2,red_triangle,go,,,,go-2,1,,,,,,
2,522.0,10,phase_2,red_pentagon,go,,,,go-2,1,,,,,,
1,586.0,10,phase_2,red_circle,go,,,,go-2,1,,,,,,
0,0,10,phase_2,purple_pentagon,stop,green,0.0,0-SSD,go-1,4,,,,,,
1,562.0,10,phase_2,red_triangle,go,,,,go-2,1,,,,,,
0,0,10,phase_2,red_pentagon,stop,green,0.0,0-SSD,go-2,4,,,,,,
2,477.0,10,phase_2,purple_rhombus,go,,,,go-1,1,,,,,,
1,542.0,10,phase_2,purple_triangle,stop,blue,250.0,tracking-SSD,go-1,3,,,,,,
2,540.0,10,phase_2,purple_rhombus,go,,,,go-1,1,,,,,,
1,392.0,10,phase_2,purple_triangle,go,,,,go-1,1,,,,,,
1,445.0,10,phase_2,purple_triangle,go,,,,go-1,1,,,,,,
1,633.0,10,phase_2,purple_circle,go,,,,go-1,1,,,,,,
2,418.0,10,phase_2,red_rhombus,go,,,,go-2,1,,,,,,
2,539.0,10,phase_2,purple_rhombus,go,,,,go-1,1,,,,,,
2,492.0,10,phase_2,red_pentagon,go,,,,go-2,1,,,,,,
0,0,10,phase_2,purple_rhombus,stop,green,0.0,0-SSD,go-1,4,,,,,,
1,565.0,10,phase_2,red_circle,stop,blue,200.0,tracking-SSD,go-2,3,,,,,,
1,529.0,10,phase_2,purple_circle,go,,,,go-1,1,,,,,,
2,459.0,10,phase_2,red_rhombus,go,,,,go-2,1,,,,,,
2,466.0,11,phase_2,purple_pentagon,go,,,,go-1,1,,,,,,
2,396.0,11,phase_2,red_rhombus,go,,,,go-2,1,,,,,,
2,337.0,11,phase_2,purple_triangle,stop,blue,150.0,tracking-SSD,go-1,3,,,,,,
1,515.0,11,phase_2,red_circle,go,,,,go-2,1,,,,,,
2,321.0,11,phase_2,red_rhombus,go,,,,go-2,1,,,,,,
1,386.0,11,phase_2,red_circle,go,,,,go-2,1,,,,,,
2,473.0,11,phase_2,red_rhombus,go,,,,go-2,1,,,,,,
0,0,11,phase_2,purple_circle,stop,blue,100.0,tracking-SSD,go-1,4,,,,,,
2,412.0,11,phase_2,red_pentagon,go,,,,go-2,1,,,,,,
1,376.0,11,phase_2,purple_triangle,go,,,,go-1,1,,,,,,
2,260.0,11,phase_2,purple_rhombus,go,,,,go-1,1,,,,,,
1,303.0,11,phase_2,purple_triangle,go,,,,go-1,1,,,,,,
2,356.0,11,phase_2,red_pentagon,go,,,,go-2,1,,,,,,
1,501.0,11,phase_2,purple_circle,go,,,,go-1,1,,,,,,
2,341.0,11,phase_2,red_pentagon,go,,,,go-2,1,,,,,,
1,360.0,11,phase_2,purple_rhombus,go,,,,go-1,2,,,,,,
0,0,11,phase_2,red_pentagon,stop,green,0.0,0-SSD,go-2,4,,,,,,
0,0,11,phase_2,purple_circle,stop,blue,150.0,tracking-SSD,go-1,4,,,,,,
1,398.0,11,phase_2,red_circle,stop,blue,200.0,tracking-SSD,go-2,3,,,,,,
2,497.0,11,phase_2,red_pentagon,go,,,,go-2,1,,,,,,
1,471.0,11,phase_2,purple_circle,go,,,,go-1,1,,,,,,
0,0,11,phase_2,purple_pentagon,stop,green,0.0,0-SSD,go-1,4,,,,,,
1,511.0,11,phase_2,red_circle,go,,,,go-2,1,,,,,,
2,373.0,11,phase_2,red_triangle,go,,,,go-2,2,,,,,,
2,372.0,11,phase_2,red_rhombus,go,,,,go-2,1,,,,,,
1,537.0,11,phase_2,purple_triangle,go,,,,go-1,1,,,,,,
2,343.0,11,phase_2,red_rhombus,stop,blue,150.0,tracking-SSD,go-2,3,,,,,,
1,442.0,11,phase_2,purple_circle,go,,,,go-1,1,,,,,,
0,0,11,phase_2,red_pentagon,stop,green,0.0,0-SSD,go-2,4,,,,,,
1,383.0,11,phase_2,red_triangle,go,,,,go-2,1,,,,,,
2,402.0,11,phase_2,purple_rhombus,go,,,,go-1,1,,,,,,
2,548.0,11,phase_2,purple_pentagon,go,,,,go-1,1,,,,,,
0,0,11,phase_2,red_pentagon,stop,blue,100.0,tracking-SSD,go-2,4,,,,,,
0,0,11,phase_2,red_circle,stop,green,0.0,0-SSD,go-2,4,,,,,,
1,495.0,11,phase_2,purple_circle,go,,,,go-1,1,,,,,,
2,335.0,11,phase_2,purple_triangle,stop,blue,150.0,tracking-SSD,go-1,3,,,,,,
1,582.0,11,phase_2,purple_circle,stop,green,0.0,0-SSD,go-1,3,,,,,,
2,468.0,11,phase_2,red_pentagon,go,,,,go-2,1,,,,,,
2,454.0,11,phase_2,red_pentagon,stop,blue,100.0,tracking-SSD,go-2,3,,,,,,
2,508.0,11,phase_2,purple_rhombus,go,,,,go-1,1,,,,,,
0,0,11,phase_2,red_rhombus,stop,green,0.0,0-SSD,go-2,4,,,,,,
0,0,11,phase_2,purple_triangle,stop,green,0.0,0-SSD,go-1,4,,,,,,
1,433.0,11,phase_2,red_triangle,go,,,,go-2,1,,,,,,
2,508.0,11,phase_2,purple_rhombus,go,,,,go-1,1,,,,,,
2,450.0,11,phase_2,purple_rhombus,go,,,,go-1,1,,,,,,
0,0,11,phase_2,purple_triangle,stop,green,0.0,0-SSD,go-1,4,,,,,,
1,659.0,11,phase_2,purple_triangle,go,,,,go-1,1,,,,,,
1,398.0,11,phase_2,red_triangle,go,,,,go-2,1,,,,,,
1,577.0,12,phase_2,purple_circle,go,,,,go-1,1,,,,,,
2,440.0,12,phase_2,red_pentagon,go,,,,go-2,1,,,,,,
2,494.0,12,phase_2,purple_pentagon,go,,,,go-1,1,,,,,,
2,434.0,12,phase_2,red_rhombus,go,,,,go-2,1,,,,,,
1,522.0,12,phase_2,purple_circle,go,,,,go-1,1,,,,,,
0,0,12,phase_2,red_rhombus,stop,green,0.0,0-SSD,go-2,4,,,,,,
1,507.0,12,phase_2,red_triangle,go,,,,go-2,1,,,,,,
1,415.0,12,phase_2,purple_triangle,go,,,,go-1,1,,,,,,
1,413.0,12,phase_2,red_circle,go,,,,go-2,1,,,,,,
1,501.0,12,phase_2,red_triangle,go,,,,go-2,1,,,,,,
0,0,12,phase_2,purple_pentagon,stop,blue,50.0,tracking-SSD,go-1,4,,,,,,
1,529.0,12,phase_2,purple_circle,go,,,,go-1,1,,,,,,
1,370.0,12,phase_2,red_circle,go,,,,go-2,1,,,,,,
2,413.0,12,phase_2,purple_rhombus,go,,,,go-1,1,,,,,,
0,0,12,phase_2,red_pentagon,stop,green,0.0,0-SSD,go-2,4,,,,,,
2,556.0,12,phase_2,purple_pentagon,go,,,,go-1,1,,,,,,
0,0,12,phase_2,purple_triangle,stop,blue,100.0,tracking-SSD,go-1,4,,,,,,
1,381.0,12,phase_2,purple_triangle,go,,,,go-1,1,,,,,,
2,412.0,12,phase_2,red_pentagon,go,,,,go-2,1,,,,,,
1,398.0,12,phase_2,purple_circle,go,,,,go-1,1,,,,,,
0,0,12,phase_2,red_triangle,stop,green,0.0,0-SSD,go-2,4,,,,,,
0,0,12,phase_2,purple_rhombus,stop,blue,150.0,tracking-SSD,go-1,4,,,,,,
1,481.0,12,phase_2,purple_triangle,go,,,,go-1,1,,,,,,
2,489.0,12,phase_2,red_rhombus,go,,,,go-2,1,,,,,,
2,543.0,12,phase_2,red_rhombus,go,,,,go-2,1,,,,,,
2,462.0,12,phase_2,red_pentagon,go,,,,go-2,1,,,,,,
0,0,12,phase_2,purple_circle,stop,green,0.0,0-SSD,go-1,4,,,,,,
1,468.0,12,phase_2,purple_circle,go,,,,go-1,1,,,,,,
2,432.0,12,phase_2,red_pentagon,go,,,,go-2,1,,,,,,
2,463.0,12,phase_2,red_rhombus,stop,blue,200.0,tracking-SSD,go-2,3,,,,,,
1,561.0,12,phase_2,red_triangle,stop,blue,150.0,tracking-SSD,go-2,3,,,,,,
1,424.0,12,phase_2,red_triangle,go,,,,go-2,1,,,,,,
2,490.0,12,phase_2,purple_pentagon,go,,,,go-1,1,,,,,,
0,0,12,phase_2,red_pentagon,stop,blue,100.0,tracking-SSD,go-2,4,,,,,,
0,0,12,phase_2,purple_triangle,stop,green,0.0,0-SSD,go-1,4,,,,,,
0,0,12,phase_2,purple_circle,stop,green,0.0,0-SSD,go-1,4,,,,,,
0,0,12,phase_2,red_triangle,stop,green,0.0,0-SSD,go-2,4,,,,,,
2,478.0,12,phase_2,purple_rhombus,go,,,,go-1,1,,,,,,
1,520.0,12,phase_2,red_pentagon,go,,,,go-2,2,,,,,,
1,528.0,12,phase_2,purple_triangle,go,,,,go-1,1,,,,,,
0,0,12,phase_2,red_circle,stop,blue,150.0,tracking-SSD,go-2,4,,,,,,
2,467.0,12,phase_2,red_rhombus,go,,,,go-2,1,,,,,,
0,0,12,phase_2,purple_pentagon,stop,green,0.0,0-SSD,go-1,4,,,,,,
1,541.0,12,phase_2,purple_circle,stop,blue,200.0,tracking-SSD,go-1,3,,,,,,
2,459.0,12,phase_2,red_rhombus,go,,,,go-2,1,,,,,,
2,513.0,12,phase_2,red_rhombus,go,,,,go-2,1,,,,,,
2,399.0,12,phase_2,purple_rhombus,go,,,,go-1,1,,,,,,
1,463.0,12,phase_2,purple_circle,go,,,,go-1,1,,,,,,
1,510.0,13,phase_2,purple_triangle,go,,,,go-1,1,,,,,,
0,0,13,phase_2,red_rhombus,stop,green,0.0,0-SSD,go-2,4,,,,,,
2,471.0,13,phase_2,red_rhombus,go,,,,go-2,1,,,,,,
1,401.0,13,phase_2,purple_circle,go,,,,go-1,1,,,,,,
2,388.0,13,phase_2,purple_pentagon,stop,blue,150.0,tracking-SSD,go-1,3,,,,,,
0,0,13,phase_2,purple_triangle,stop,blue,100.0,tracking-SSD,go-1,4,,,,,,
2,506.0,13,phase_2,red_pentagon,go,,,,go-2,1,,,,,,
0,0,13,phase_2,purple_circle,stop,green,0.0,0-SSD,go-1,4,,,,,,
1,433.0,13,phase_2,red_triangle,go,,,,go-2,1,,,,,,
2,307.0,13,phase_2,red_pentagon,go,,,,go-2,1,,,,,,
1,383.0,13,phase_2,purple_circle,go,,,,go-1,1,,,,,,
1,425.0,13,phase_2,red_circle,go,,,,go-2,1,,,,,,
1,467.0,13,phase_2,purple_triangle,go,,,,go-1,1,,,,,,
1,420.0,13,phase_2,purple_triangle,go,,,,go-1,1,,,,,,
2,451.0,13,phase_2,purple_pentagon,go,,,,go-1,1,,,,,,
2,538.0,13,phase_2,red_pentagon,go,,,,go-2,1,,,,,,
2,445.0,13,phase_2,red_pentagon,go,,,,go-2,1,,,,,,
2,421.0,13,phase_2,purple_pentagon,go,,,,go-1,1,,,,,,
2,452.0,13,phase_2,purple_rhombus,go,,,,go-1,1,,,,,,
1,506.0,13,phase_2,red_triangle,go,,,,go-2,1,,,,,,
0,0,13,phase_2,red_rhombus,stop,blue,150.0,tracking-SSD,go-2,4,,,,,,
1,512.0,13,phase_2,red_circle,go,,,,go-2,1,,,,,,
1,453.0,13,phase_2,red_circle,go,,,,go-2,1,,,,,,
2,405.0,13,phase_2,purple_pentagon,go,,,,go-1,1,,,,,,
1,403.0,13,phase_2,red_circle,go,,,,go-2,1,,,,,,
0,0,13,phase_2,red_triangle,stop,green,0.0,0-SSD,go-2,4,,,,,,
2,477.0,13,phase_2,purple_rhombus,go,,,,go-1,1,,,,,,
1,373.0,13,phase_2,purple_triangle,stop,blue,200.0,tracking-SSD,go-1,3,,,,,,
2,449.0,13,phase_2,purple_rhombus,go,,,,go-1,1,,,,,,
2,537.0,13,phase_2,purple_rhombus,go,,,,go-1,1,,,,,,
1,355.0,13,phase_2,red_triangle,go,,,,go-2,1,,,,,,
2,441.0,13,phase_2,purple_pentagon,go,,,,go-1,1,,,,,,
0,0,13,phase_2,red_circle,stop,green,0.0,0-SSD,go-2,4,,,,,,
2,370.0,13,phase_2,red_rhombus,go,,,,go-2,1,,,,,,
0,0,13,phase_2,purple_rhombus,stop,green,0.0,0-SSD,go-1,4,,,,,,
2,285.0,13,phase_2,purple_rhombus,go,,,,go-1,1,,,,,,
1,383.0,13,phase_2,purple_triangle,go,,,,go-1,1,,,,,,
2,369.0,13,phase_2,red_pentagon,stop,blue,150.0,tracking-SSD,go-2,3,,,,,,
1,435.0,13,phase_2,red_circle,go,,,,go-2,1,,,,,,
2,365.0,13,phase_2,purple_pentagon,stop,green,0.0,0-SSD,go-1,3,,,,,,
1,498.0,13,phase_2,red_circle,stop,blue,100.0,tracking-SSD,go-2,3,,,,,,
0,0,13,phase_2,purple_triangle,stop,green,0.0,0-SSD,go-1,4,,,,,,
0,0,13,phase_2,red_rhombus,stop,blue,50.0,tracking-SSD,go-2,4,,,,,,
1,421.0,13,phase_2,red_circle,go,,,,go-2,1,,,,,,
0,0,13,phase_2,red_triangle,stop,green,0.0,0-SSD,go-2,4,,,,,,
2,373.0,13,phase_2,purple_rhombus,go,,,,go-1,1,,,,,,
2,516.0,13,phase_2,red_pentagon,go,,,,go-2,1,,,,,,
0,0,13,phase_2,purple_circle,stop,blue,100.0,tracking-SSD,go-1,4,,,,,,
2,397.0,14,phase_2,purple_pentagon,go,,,,go-1,1,,,,,,
2,406.0,14,phase_2,purple_pentagon,stop,green,0.0,0-SSD,go-1,3,,,,,,
2,448.0,14,phase_2,purple_rhombus,go,,,,go-1,1,,,,,,
1,310.0,14,phase_2,red_triangle,go,,,,go-2,1,,,,,,
2,364.0,14,phase_2,purple_pentagon,go,,,,go-1,1,,,,,,
1,440.0,14,phase_2,purple_circle,go,,,,go-1,1,,,,,,
2,291.0,14,phase_2,purple_triangle,go,,,,go-1,2,,,,,,
2,503.0,14,phase_2,red_pentagon,go,,,,go-2,1,,,,,,
1,489.0,14,phase_2,red_circle,go,,,,go-2,1,,,,,,
1,509.0,14,phase_2,purple_circle,go,,,,go-1,1,,,,,,
0,0,14,phase_2,purple_rhombus,stop,green,0.0,0-SSD,go-1,4,,,,,,
2,447.0,14,phase_2,red_rhombus,stop,blue,150.0,tracking-SSD,go-2,3,,,,,,
2,412.0,14,phase_2,purple_rhombus,go,,,,go-1,1,,,,,,
0,0,14,phase_2,purple_pentagon,stop,green,0.0,0-SSD,go-1,4,,,,,,
2,361.0,14,phase_2,red_rhombus,go,,,,go-2,1,,,,,,
1,370.0,14,phase_2,red_circle,go,,,,go-2,1,,,,,,
1,367.0,14,phase_2,red_circle,go,,,,go-2,1,,,,,,
2,399.0,14,phase_2,purple_triangle,go,,,,go-1,2,,,,,,
1,531.0,14,phase_2,red_circle,go,,,,go-2,1,,,,,,
1,416.0,14,phase_2,red_triangle,go,,,,go-2,1,,,,,,
2,492.0,14,phase_2,purple_pentagon,go,,,,go-1,1,,,,,,
0,0,14,phase_2,purple_triangle,stop,blue,100.0,tracking-SSD,go-1,4,,,,,,
0,0,14,phase_2,purple_circle,stop,green,0.0,0-SSD,go-1,4,,,,,,
2,551.0,14,phase_2,purple_pentagon,go,,,,go-1,1,,,,,,
0,0,14,phase_2,red_circle,stop,green,0.0,0-SSD,go-2,4,,,,,,
0,0,14,phase_2,red_pentagon,stop,green,0.0,0-SSD,go-2,4,,,,,,
0,0,14,phase_2,red_circle,stop,green,0.0,0-SSD,go-2,4,,,,,,
2,418.0,14,phase_2,purple_pentagon,stop,blue,150.0,tracking-SSD,go-1,3,,,,,,
1,517.0,14,phase_2,purple_circle,go,,,,go-1,1,,,,,,
2,391.0,14,phase_2,red_rhombus,stop,blue,100.0,tracking-SSD,go-2,3,,,,,,
1,455.0,14,phase_2,red_triangle,go,,,,go-2,1,,,,,,
1,464.0,14,phase_2,purple_triangle,go,,,,go-1,1,,,,,,
1,383.0,14,phase_2,purple_triangle,go,,,,go-1,1,,,,,,
1,346.0,14,phase_2,red_triangle,go,,,,go-2,1,,,,,,
0,0,14,phase_2,red_rhombus,stop,green,0.0,0-SSD,go-2,4,,,,,,
2,375.0,14,phase_2,purple_pentagon,go,,,,go-1,1,,,,,,
2,406.0,14,phase_2,red_pentagon,go,,,,go-2,1,,,,,,
1,426.0,14,phase_2,red_circle,go,,,,go-2,1,,,,,,
2,345.0,14,phase_2,red_pentagon,go,,,,go-2,1,,,,,,
1,443.0,14,phase_2,purple_triangle,stop,blue,50.0,tracking-SSD,go-1,3,,,,,,
0,0,14,phase_2,red_rhombus,stop,blue,0.0,tracking-SSD,go-2,4,,,,,,
2,337.0,14,phase_2,red_rhombus,go,,,,go-2,1,,,,,,
2,537.0,14,phase_2,purple_rhombus,go,,,,go-1,1,,,,,,
0,0,14,phase_2,red_rhombus,stop,blue,50.0,tracking-SSD,go-2,4,,,,,,
1,432.0,14,phase_2,purple_triangle,go,,,,go-1,1,,,,,,
1,441.0,14,phase_2,red_circle,go,,,,go-2,1,,,,,,
1,337.0,14,phase_2,red_triangle,go,,,,go-2,1,,,,,,
0,0,14,phase_2,purple_rhombus,stop,blue,100.0,tracking-SSD,go-1,4,,,,,,
1,623.0,15,phase_2,purple_circle,stop,green,0.0,0-SSD,go-1,3,,,,,,
2,384.0,15,phase_2,purple_rhombus,go,,,,go-1,1,,,,,,
2,404.0,15,phase_2,purple_rhombus,go,,,,go-1,1,,,,,,
1,369.0,15,phase_2,purple_triangle,go,,,,go-1,1,,,,,,
2,401.0,15,phase_2,purple_rhombus,go,,,,go-1,1,,,,,,
1,420.0,15,phase_2,purple_circle,stop,blue,150.0,tracking-SSD,go-1,3,,,,,,
1,519.0,15,phase_2,red_triangle,go,,,,go-2,1,,,,,,
1,471.0,15,phase_2,red_circle,go,,,,go-2,1,,,,,,
0,0,15,phase_2,purple_pentagon,stop,green,0.0,0-SSD,go-1,4,,,,,,
0,0,15,phase_2,red_pentagon,stop,blue,100.0,tracking-SSD,go-2,4,,,,,,
0,0,15,phase_2,purple_circle,stop,blue,150.0,tracking-SSD,go-1,4,,,,,,
2,314.0,15,phase_2,red_rhombus,go,,,,go-2,1,,,,,,
1,322.0,15,phase_2,purple_circle,stop,blue,200.0,tracking-SSD,go-1,3,,,,,,
2,399.0,15,phase_2,red_pentagon,stop,green,0.0,0-SSD,go-2,3,,,,,,
2,341.0,15,phase_2,red_rhombus,stop,blue,150.0,tracking-SSD,go-2,3,,,,,,
1,237.0,15,phase_2,red_triangle,stop,green,0.0,0-SSD,go-2,3,,,,,,
2,425.0,15,phase_2,purple_triangle,go,,,,go-1,2,,,,,,
2,490.0,15,phase_2,red_pentagon,go,,,,go-2,1,,,,,,
1,307.0,15,phase_2,red_pentagon,go,,,,go-2,2,,,,,,
1,541.0,15,phase_2,purple_triangle,go,,,,go-1,1,,,,,,
0,0,15,phase_2,purple_pentagon,stop,green,0.0,0-SSD,go-1,4,,,,,,
0,0,15,phase_2,red_rhombus,stop,blue,100.0,tracking-SSD,go-2,4,,,,,,
1,477.0,15,phase_2,red_triangle,go,,,,go-2,1,,,,,,
1,463.0,15,phase_2,purple_triangle,go,,,,go-1,1,,,,,,
0,0,15,phase_2,purple_circle,stop,green,0.0,0-SSD,go-1,4,,,,,,
0,0,15,phase_2,red_triangle,stop,green,0.0,0-SSD,go-2,4,,,,,,
2,377.0,15,phase_2,red_rhombus,go,,,,go-2,1,,,,,,
1,363.0,15,phase_2,purple_pentagon,go,,,,go-1,2,,,,,,
2,373.0,15,phase_2,red_rhombus,go,,,,go-2,1,,,,,,
2,449.0,15,phase_2,red_pentagon,go,,,,go-2,1,,,,,,
2,390.0,15,phase_2,purple_rhombus,go,,,,go-1,1,,,,,,
2,354.0,15,phase_2,red_rhombus,go,,,,go-2,1,,,,,,
0,0,15,phase_2,red_rhombus,stop,green,0.0,0-SSD,go-2,4,,,,,,
1,528.0,15,phase_2,red_triangle,go,,,,go-2,1,,,,,,
1,368.0,15,phase_2,red_triangle,go,,,,go-2,1,,,,,,
2,490.0,15,phase_2,red_pentagon,go,,,,go-2,1,,,,,,
2,453.0,15,phase_2,red_rhombus,go,,,,go-2,1,,,,,,
1,439.0,15,phase_2,purple_circle,go,,,,go-1,1,,,,,,
2,349.0,15,phase_2,purple_pentagon,go,,,,go-1,1,,,,,,
1,403.0,15,phase_2,purple_circle,go,,,,go-1,1,,,,,,
2,299.0,15,phase_2,purple_pentagon,stop,blue,150.0,tracking-SSD,go-1,3,,,,,,
1,487.0,15,phase_2,purple_circle,go,,,,go-1,1,,,,,,
2,430.0,15,phase_2,red_pentagon,go,,,,go-2,1,,,,,,
1,461.0,15,phase_2,red_circle,stop,blue,100.0,tracking-SSD,go-2,3,,,,,,
1,571.0,15,phase_2,purple_circle,go,,,,go-1,1,,,,,,
2,286.0,15,phase_2,red_triangle,go,,,,go-2,2,,,,,,
1,554.0,15,phase_2,purple_triangle,go,,,,go-1,1,,,,,,
1,540.0,15,phase_2,purple_circle,go,,,,go-1,1,,,,,,
0,0,16,phase_2,purple_pentagon,stop,blue,50.0,tracking-SSD,go-1,4,,,,,,
2,362.0,16,phase_2,red_pentagon,go,,,,go-2,1,,,,,,
0,0,16,phase_2,red_circle,stop,blue,100.0,tracking-SSD,go-2,4,,,,,,
2,323.0,16,phase_2,purple_pentagon,go,,,,go-1,1,,,,,,
2,311.0,16,phase_2,purple_pentagon,go,,,,go-1,1,,,,,,
1,443.0,16,phase_2,red_circle,stop,blue,150.0,tracking-SSD,go-2,3,,,,,,
1,406.0,16,phase_2,red_circle,go,,,,go-2,1,,,,,,
1,561.0,16,phase_2,red_triangle,go,,,,go-2,1,,,,,,
2,490.0,16,phase_2,red_rhombus,go,,,,go-2,1,,,,,,
1,444.0,16,phase_2,purple_circle,go,,,,go-1,1,,,,,,
1,440.0,16,phase_2,red_triangle,go,,,,go-2,1,,,,,,
1,641.0,16,phase_2,red_circle,go,,,,go-2,1,,,,,,
0,0,16,phase_2,red_rhombus,stop,green,0.0,0-SSD,go-2,4,,,,,,
0,0,16,phase_2,purple_rhombus,stop,blue,100.0,tracking-SSD,go-1,4,,,,,,
1,343.0,16,phase_2,red_circle,go,,,,go-2,1,,,,,,
1,451.0,16,phase_2,purple_circle,go,,,,go-1,1,,,,,,
1,347.0,16,phase_2,purple_triangle,go,,,,go-1,1,,,,,,
2,525.0,16,phase_2,purple_pentagon,go,,,,go-1,1,,,,,,
1,589.0,16,phase_2,purple_triangle,go,,,,go-1,1,,,,,,
0,0,16,phase_2,purple_rhombus,stop,green,0.0,0-SSD,go-1,4,,,,,,
2,505.0,16,phase_2,red_pentagon,go,,,,go-2,1,,,,,,
2,436.0,16,phase_2,purple_rhombus,go,,,,go-1,1,,,,,,
1,354.0,16,phase_2,red_triangle,go,,,,go-2,1,,,,,,
1,363.0,16,phase_2,red_pentagon,stop,blue,150.0,tracking-SSD,go-2,3,,,,,,
2,451.0,16,phase_2,purple_rhombus,go,,,,go-1,1,,,,,,
1,505.0,16,phase_2,purple_triangle,go,,,,go-1,1,,,,,,
0,0,16,phase_2,red_triangle,stop,green,0.0,0-SSD,go-2,4,,,,,,
0,0,16,phase_2,purple_pentagon,stop,green,0.0,0-SSD,go-1,4,,,,,,
2,396.0,16,phase_2,purple_pentagon,go,,,,go-1,1,,,,,,
2,450.0,16,phase_2,red_rhombus,go,,,,go-2,1,,,,,,
0,0,16,phase_2,red_rhombus,stop,green,0.0,0-SSD,go-2,4,,,,,,
0,0,16,phase_2,red_circle,stop,blue,100.0,tracking-SSD,go-2,4,,,,,,
0,0,16,phase_2,purple_triangle,stop,blue,150.0,tracking-SSD,go-1,4,,,,,,
2,507.0,16,phase_2,red_pentagon,go,,,,go-2,1,,,,,,
0,0,16,phase_2,purple_rhombus,stop,green,0.0,0-SSD,go-1,4,,,,,,
2,377.0,16,phase_2,red_pentagon,go,,,,go-2,1,,,,,,
1,364.0,16,phase_2,purple_triangle,go,,,,go-1,1,,,,,,
2,384.0,16,phase_2,red_pentagon,go,,,,go-2,1,,,,,,
0,0,16,phase_2,purple_rhombus,stop,green,0.0,0-SSD,go-1,4,,,,,,
2,424.0,16,phase_2,purple_circle,go,,,,go-1,2,,,,,,
1,466.0,16,phase_2,purple_circle,go,,,,go-1,1,,,,,,
2,643.0,16,phase_2,purple_rhombus,go,,,,go-1,1,,,,,,
1,405.0,16,phase_2,red_circle,go,,,,go-2,1,,,,,,
1,661.0,16,phase_2,purple_triangle,stop,blue,200.0,tracking-SSD,go-1,3,,,,,,
0,0,16,phase_2,red_triangle,stop,green,0.0,0-SSD,go-2,4,,,,,,
1,487.0,16,phase_2,red_circle,go,,,,go-2,1,,,,,,
2,450.0,16,phase_2,purple_rhombus,go,,,,go-1,1,,,,,,
1,470.0,16,phase_2,red_triangle,go,,,,go-2,1,,,,,,
2,375.0,17,phase_2,red_rhombus,go,,,,go-2,1,,,,,,
2,418.0,17,phase_2,purple_pentagon,go,,,,go-1,1,,,,,,
1,483.0,17,phase_2,purple_triangle,go,,,,go-1,1,,,,,,
1,414.0,17,phase_2,purple_triangle,go,,,,go-1,1,,,,,,
2,536.0,17,phase_2,purple_rhombus,go,,,,go-1,1,,,,,,
0,0,17,phase_2,red_rhombus,stop,blue,150.0,tracking-SSD,go-2,4,,,,,,
0,0,17,phase_2,red_rhombus,stop,green,0.0,0-SSD,go-2,4,,,,,,
1,460.0,17,phase_2,red_circle,stop,blue,200.0,tracking-SSD,go-2,3,,,,,,
2,380.0,17,phase_2,purple_rhombus,go,,,,go-1,1,,,,,,
2,480.0,17,phase_2,purple_rhombus,go,,,,go-1,1,,,,,,
2,488.0,17,phase_2,purple_rhombus,go,,,,go-1,1,,,,,,
1,384.0,17,phase_2,red_triangle,go,,,,go-2,1,,,,,,
0,0,17,phase_2,purple_circle,stop,green,0.0,0-SSD,go-1,4,,,,,,
0,0,17,phase_2,purple_rhombus,stop,green,0.0,0-SSD,go-1,4,,,,,,
1,477.0,17,phase_2,red_circle,go,,,,go-2,1,,,,,,
1,418.0,17,phase_2,red_triangle,go,,,,go-2,1,,,,,,
2,405.0,17,phase_2,red_circle,go,,,,go-2,2,,,,,,
2,481.0,17,phase_2,red_pentagon,go,,,,go-2,1,,,,,,
0,0,17,phase_2,purple_pentagon,stop,blue,150.0,tracking-SSD,go-1,4,,,,,,
1,363.0,17,phase_2,purple_triangle,go,,,,go-1,1,,,,,,
2,429.0,17,phase_2,red_pentagon,go,,,,go-2,1,,,,,,
1,617.0,17,phase_2,purple_circle,stop,blue,200.0,tracking-SSD,go-1,3,,,,,,
0,0,17,phase_2,red_triangle,stop,green,0.0,0-SSD,go-2,4,,,,,,
2,364.0,17,phase_2,red_pentagon,go,,,,go-2,1,,,,,,
2,463.0,17,phase_2,red_rhombus,go,,,,go-2,1,,,,,,
2,416.0,17,phase_2,purple_pentagon,go,,,,go-1,1,,,,,,
1,335.0,17,phase_2,red_pentagon,go,,,,go-2,2,,,,,,
0,0,17,phase_2,red_triangle,stop,green,0.0,0-SSD,go-2,4,,,,,,
2,386.0,17,phase_2,purple_pentagon,go,,,,go-1,1,,,,,,
0,0,17,phase_2,red_pentagon,stop,blue,150.0,tracking-SSD,go-2,4,,,,,,
0,0,17,phase_2,red_circle,stop,green,0.0,0-SSD,go-2,4,,,,,,
1,377.0,17,phase_2,purple_triangle,go,,,,go-1,1,,,,,,
2,622.0,17,phase_2,purple_pentagon,go,,,,go-1,1,,,,,,
0,0,17,phase_2,purple_circle,stop,green,0.0,0-SSD,go-1,4,,,,,,
2,470.0,17,phase_2,purple_pentagon,go,,,,go-1,1,,,,,,
0,0,17,phase_2,purple_circle,stop,green,0.0,0-SSD,go-1,4,,,,,,
1,489.0,17,phase_2,red_circle,go,,,,go-2,1,,,,,,
2,362.0,17,phase_2,red_pentagon,go,,,,go-2,1,,,,,,
1,393.0,17,phase_2,red_circle,stop,blue,200.0,tracking-SSD,go-2,3,,,,,,
1,470.0,17,phase_2,purple_triangle,go,,,,go-1,1,,,,,,
1,366.0,17,phase_2,red_triangle,go,,,,go-2,1,,,,,,
1,331.0,17,phase_2,purple_triangle,stop,blue,150.0,tracking-SSD,go-1,3,,,,,,
2,383.0,17,phase_2,purple_rhombus,go,,,,go-1,1,,,,,,
1,594.0,17,phase_2,red_circle,go,,,,go-2,1,,,,,,
2,344.0,17,phase_2,purple_rhombus,go,,,,go-1,1,,,,,,
1,544.0,17,phase_2,purple_circle,stop,blue,100.0,tracking-SSD,go-1,3,,,,,,
1,430.0,17,phase_2,red_triangle,go,,,,go-2,1,,,,,,
2,371.0,17,phase_2,red_rhombus,go,,,,go-2,1,,,,,,
,2467.0,1,phase_3,,,,,,,,red_square,go-2,purple_square,go-1,red_square,go-2
,1551.0,1,phase_3,,,,,,,,green_square,0-SSD,red_square,go-2,green_square,0-SSD
,1063.0,1,phase_3,,,,,,,,green_square,0-SSD,purple_square,go-1,green_square,0-SSD
,1383.0,1,phase_3,,,,,,,,blue_square,tracking-SSD,green_square,0-SSD,blue_square,tracking-SSD
,884.0,1,phase_3,,,,,,,,blue_square,tracking-SSD,red_square,go-2,blue_square,tracking-SSD
,914.0,1,phase_3,,,,,,,,blue_square,tracking-SSD,purple_square,go-1,blue_square,tracking-SSD
,998.0,1,phase_3,,,,,,,,blue_square,tracking-SSD,blue_square,tracking-SSD,green_square,0-SSD
,1951.0,1,phase_3,,,,,,,,green_square,0-SSD,green_square,0-SSD,red_square,go-2
,1238.0,1,phase_3,,,,,,,,blue_square,tracking-SSD,blue_square,tracking-SSD,purple_square,go-1
0,0,1,phase_3,,,,,,,,,,red_square,go-2,purple_square,go-1
,1960.0,1,phase_3,,,,,,,,green_square,0-SSD,green_square,0-SSD,purple_square,go-1
,764.0,1,phase_3,,,,,,,,blue_square,tracking-SSD,blue_square,tracking-SSD,red_square,go-2
,1027.0,2,phase_3,,,,,,,,green_square,0-SSD,purple_square,go-1,green_square,0-SSD
,1135.0,2,phase_3,,,,,,,,green_square,0-SSD,red_square,go-2,green_square,0-SSD
,681.0,2,phase_3,,,,,,,,blue_square,tracking-SSD,purple_square,go-1,blue_square,tracking-SSD
,1284.0,2,phase_3,,,,,,,,red_square,go-2,purple_square,go-1,red_square,go-2
,1089.0,2,phase_3,,,,,,,,blue_square,tracking-SSD,green_square,0-SSD,blue_square,tracking-SSD
,668.0,2,phase_3,,,,,,,,blue_square,tracking-SSD,red_square,go-2,blue_square,tracking-SSD
,1045.0,2,phase_3,,,,,,,,blue_square,tracking-SSD,blue_square,tracking-SSD,purple_square,go-1
,1008.0,2,phase_3,,,,,,,,blue_square,tracking-SSD,blue_square,tracking-SSD,red_square,go-2
,700.0,2,phase_3,,,,,,,,blue_square,tracking-SSD,blue_square,tracking-SSD,green_square,0-SSD
,752.0,2,phase_3,,,,,,,,green_square,0-SSD,green_square,0-SSD,purple_square,go-1
,1367.0,2,phase_3,,,,,,,,green_square,0-SSD,green_square,0-SSD,red_square,go-2
,1159.0,2,phase_3,,,,,,,,purple_square,go-1,red_square,go-2,purple_square,go-1
,600.0,3,phase_3,,,,,,,,blue_square,tracking-SSD,purple_square,go-1,blue_square,tracking-SSD
,562.0,3,phase_3,,,,,,,,blue_square,tracking-SSD,green_square,0-SSD,blue_square,tracking-SSD
,1861.0,3,phase_3,,,,,,,,red_square,go-2,purple_square,go-1,red_square,go-2
,1160.0,3,phase_3,,,,,,,,green_square,0-SSD,red_square,go-2,green_square,0-SSD
,615.0,3,phase_3,,,,,,,,blue_square,tracking-SSD,red_square,go-2,blue_square,tracking-SSD
,1171.0,3,phase_3,,,,,,,,green_square,0-SSD,purple_square,go-1,green_square,0-SSD
,492.0,3,phase_3,,,,,,,,blue_square,tracking-SSD,blue_square,tracking-SSD,red_square,go-2
,588.0,3,phase_3,,,,,,,,green_square,0-SSD,green_square,0-SSD,red_square,go-2
,1056.0,3,phase_3,,,,,,,,purple_square,go-1,red_square,go-2,purple_square,go-1
,647.0,3,phase_3,,,,,,,,blue_square,tracking-SSD,blue_square,tracking-SSD,green_square,0-SSD
,857.0,3,phase_3,,,,,,,,blue_square,tracking-SSD,blue_square,tracking-SSD,purple_square,go-1
,1167.0,3,phase_3,,,,,,,,green_square,0-SSD,green_square,0-SSD,purple_square,go-1
,578.0,4,phase_3,,,,,,,,green_square,0-SSD,purple_square,go-1,green_square,0-SSD
,754.0,4,phase_3,,,,,,,,green_square,0-SSD,red_square,go-2,green_square,0-SSD
,625.0,4,phase_3,,,,,,,,blue_square,tracking-SSD,purple_square,go-1,blue_square,tracking-SSD
,744.0,4,phase_3,,,,,,,,blue_square,tracking-SSD,green_square,0-SSD,blue_square,tracking-SSD
,617.0,4,phase_3,,,,,,,,blue_square,tracking-SSD,red_square,go-2,blue_square,tracking-SSD
,1401.0,4,phase_3,,,,,,,,red_square,go-2,purple_square,go-1,red_square,go-2
,585.0,4,phase_3,,,,,,,,blue_square,tracking-SSD,blue_square,tracking-SSD,purple_square,go-1
,1133.0,4,phase_3,,,,,,,,green_square,0-SSD,green_square,0-SSD,purple_square,go-1
,1015.0,4,phase_3,,,,,,,,green_square,0-SSD,green_square,0-SSD,red_square,go-2
,1326.0,4,phase_3,,,,,,,,purple_square,go-1,red_square,go-2,purple_square,go-1
,692.0,4,phase_3,,,,,,,,blue_square,tracking-SSD,blue_square,tracking-SSD,red_square,go-2
,777.0,4,phase_3,,,,,,,,blue_square,tracking-SSD,blue_square,tracking-SSD,green_square,0-SSD
,499.0,5,phase_3,,,,,,,,blue_square,tracking-SSD,purple_square,go-1,blue_square,tracking-SSD
,1372.0,5,phase_3,,,,,,,,red_square,go-2,purple_square,go-1,red_square,go-2
,691.0,5,phase_3,,,,,,,,blue_square,tracking-SSD,red_square,go-2,blue_square,tracking-SSD
,967.0,5,phase_3,,,,,,,,green_square,0-SSD,red_square,go-2,green_square,0-SSD
,626.0,5,phase_3,,,,,,,,blue_square,tracking-SSD,green_square,0-SSD,blue_square,tracking-SSD
,633.0,5,phase_3,,,,,,,,purple_square,go-1,purple_square,go-1,green_square,0-SSD
,819.0,5,phase_3,,,,,,,,blue_square,tracking-SSD,blue_square,tracking-SSD,green_square,0-SSD
,1028.0,5,phase_3,,,,,,,,blue_square,tracking-SSD,blue_square,tracking-SSD,red_square,go-2
,1138.0,5,phase_3,,,,,,,,green_square,0-SSD,green_square,0-SSD,purple_square,go-1
,705.0,5,phase_3,,,,,,,,purple_square,go-1,red_square,go-2,purple_square,go-1
,712.0,5,phase_3,,,,,,,,blue_square,tracking-SSD,blue_square,tracking-SSD,purple_square,go-1
,955.0,5,phase_3,,,,,,,,green_square,0-SSD,green_square,0-SSD,red_square,go-2
