response,reaction_time,block,which_phase,stim,stop_signal_trial_type,stop_signal_stimulus,SSD,SSD_type,condition,accuracy,chosen_stim,chosen_cond,stim_left,cond_left,stim_right,cond_right
2,556.0,1,phase_2,purple_rhombus,go,,,,go-2,1,,,,,,
1,606.0,1,phase_2,green_pentagon,go,,,,go-1,1,,,,,,
1,551.0,1,phase_2,green_pentagon,go,,,,go-1,1,,,,,,
2,484.0,1,phase_2,purple_circle,go,,,,go-2,1,,,,,,
2,543.0,1,phase_2,green_circle,go,,,,go-1,1,,,,,,
0,0,1,phase_2,green_circle,stop,blue,0.0,0-SSD,go-1,4,,,,,,
0,0,1,phase_2,green_pentagon,stop,blue,0.0,0-SSD,go-1,4,,,,,,
0,0,1,phase_2,purple_triangle,stop,blue,0.0,0-SSD,go-2,4,,,,,,
2,571.0,1,phase_2,purple_circle,stop,red,250.0,tracking-SSD,go-2,3,,,,,,
1,583.0,1,phase_2,purple_triangle,go,,,,go-2,1,,,,,,
2,898.0,1,phase_2,green_rhombus,go,,,,go-1,1,,,,,,
0,0,1,phase_2,green_pentagon,stop,blue,0.0,0-SSD,go-1,4,,,,,,
2,472.0,1,phase_2,green_circle,go,,,,go-1,1,,,,,,
0,0,1,phase_2,purple_rhombus,stop,blue,0.0,0-SSD,go-2,4,,,,,,
1,591.0,1,phase_2,purple_rhombus,go,,,,go-2,2,,,,,,
0,0,1,phase_2,green_rhombus,stop,red,200.0,tracking-SSD,go-1,4,,,,,,
2,629.0,1,phase_2,green_rhombus,go,,,,go-1,1,,,,,,
1,616.0,1,phase_2,purple_pentagon,stop,red,250.0,tracking-SSD,go-2,3,,,,,,
1,697.0,1,phase_2,green_triangle,go,,,,go-1,1,,,,,,
1,600.0,1,phase_2,green_pentagon,go,,,,go-1,1,,,,,,
0,0,1,phase_2,green_pentagon,stop,red,200.0,tracking-SSD,go-1,4,,,,,,
1,612.0,1,phase_2,purple_pentagon,go,,,,go-2,1,,,,,,
1,479.0,1,phase_2,green_pentagon,go,,,,go-1,1,,,,,,
1,644.0,1,phase_2,green_triangle,go,,,,go-1,1,,,,,,
2,806.0,1,phase_2,green_circle,go,,,,go-1,1,,,,,,
1,586.0,1,phase_2,green_triangle,go,,,,go-1,1,,,,,,
1,597.0,1,phase_2,green_pentagon,go,,,,go-1,1,,,,,,
2,552.0,1,phase_2,purple_circle,go,,,,go-2,1,,,,,,
0,0,1,phase_2,purple_triangle,stop,blue,0.0,0-SSD,go-2,4,,,,,,
0,0,1,phase_2,purple_circle,stop,red,250.0,tracking-SSD,go-2,4,,,,,,
2,666.0,1,phase_2,purple_rhombus,go,,,,go-2,1,,,,,,
2,509.0,1,phase_2,green_circle,go,,,,go-1,1,,,,,,
1,678.0,1,phase_2,green_triangle,go,,,,go-1,1,,,,,,
0,0,1,phase_2,green_rhombus,stop,blue,0.0,0-SSD,go-1,4,,,,,,
0,0,1,phase_2,purple_triangle,stop,red,300.0,tracking-SSD,go-2,4,,,,,,
2,703.0,1,phase_2,purple_rhombus,go,,,,go-2,1,,,,,,
2,400.0,1,phase_2,green_circle,stop,red,350.0,tracking-SSD,go-1,3,,,,,,
1,518.0,1,phase_2,purple_triangle,go,,,,go-2,1,,,,,,
1,417.0,1,phase_2,green_pentagon,go,,,,go-1,1,,,,,,
2,469.0,1,phase_2,purple_circle,go,,,,go-2,1,,,,,,
1,536.0,1,phase_2,purple_pentagon,go,,,,go-2,1,,,,,,
0,0,1,phase_2,purple_triangle,stop,blue,0.0,0-SSD,go-2,4,,,,,,
0,0,1,phase_2,green_rhombus,stop,red,300.0,tracking-SSD,go-1,4,,,,,,
2,729.0,1,phase_2,purple_rhombus,go,,,,go-2,1,,,,,,
1,524.0,1,phase_2,purple_triangle,go,,,,go-2,1,,,,,,
1,609.0,1,phase_2,purple_triangle,go,,,,go-2,1,,,,,,
2,562.0,1,phase_2,purple_circle,go,,,,go-2,1,,,,,,
2,670.0,1,phase_2,purple_rhombus,go,,,,go-2,1,,,,,,
2,549.0,2,phase_2,purple_circle,go,,,,go-2,1,,,,,,
0,0,2,phase_2,green_rhombus,stop,blue,0.0,0-SSD,go-1,4,,,,,,
1,674.0,2,phase_2,green_triangle,go,,,,go-1,1,,,,,,
2,638.0,2,phase_2,green_rhombus,go,,,,go-1,1,,,,,,
1,570.0,2,phase_2,purple_pentagon,go,,,,go-2,1,,,,,,
2,613.0,2,phase_2,purple_rhombus,go,,,,go-2,1,,,,,,
2,536.0,2,phase_2,green_rhombus,go,,,,go-1,1,,,,,,
1,603.0,2,phase_2,purple_pentagon,go,,,,go-2,1,,,,,,
1,638.0,2,phase_2,purple_triangle,go,,,,go-2,1,,,,,,
1,563.0,2,phase_2,purple_pentagon,go,,,,go-2,1,,,,,,
2,646.0,2,phase_2,green_rhombus,stop,red,350.0,tracking-SSD,go-1,3,,,,,,
2,763.0,2,phase_2,purple_rhombus,go,,,,go-2,1,,,,,,
1,623.0,2,phase_2,purple_triangle,go,,,,go-2,1,,,,,,
0,0,2,phase_2,green_triangle,stop,red,300.0,tracking-SSD,go-1,4,,,,,,
2,546.0,2,phase_2,purple_circle,stop,red,350.0,tracking-SSD,go-2,3,,,,,,
1,543.0,2,phase_2,green_triangle,go,,,,go-1,1,,,,,,
2,506.0,2,phase_2,green_circle,go,,,,go-1,1,,,,,,
1,572.0,2,phase_2,green_triangle,go,,,,go-1,1,,,,,,
0,0,2,phase_2,green_pentagon,stop,blue,0.0,0-SSD,go-1,4,,,,,,
1,580.0,2,phase_2,green_triangle,stop,red,300.0,tracking-SSD,go-1,3,,,,,,
0,0,2,phase_2,purple_rhombus,stop,red,250.0,tracking-SSD,go-2,4,,,,,,
1,592.0,2,phase_2,green_triangle,go,,,,go-1,1,,,,,,
0,0,2,phase_2,purple_triangle,stop,blue,0.0,0-SSD,go-2,4,,,,,,
1,609.0,2,phase_2,green_pentagon,go,,,,go-1,1,,,,,,
2,528.0,2,phase_2,green_circle,go,,,,go-1,1,,,,,,
1,596.0,2,phase_2,purple_pentagon,go,,,,go-2,1,,,,,,
1,559.0,2,phase_2,purple_pentagon,go,,,,go-2,1,,,,,,
0,0,2,phase_2,green_circle,stop,blue,0.0,0-SSD,go-1,4,,,,,,
2,625.0,2,phase_2,purple_circle,go,,,,go-2,1,,,,,,
2,628.0,2,phase_2,green_rhombus,go,,,,go-1,1,,,,,,
2,464.0,2,phase_2,green_rhombus,go,,,,go-1,1,,,,,,
0,0,2,phase_2,purple_circle,stop,red,300.0,tracking-SSD,go-2,4,,,,,,
0,0,2,phase_2,purple_rhombus,stop,blue,0.0,0-SSD,go-2,4,,,,,,
1,602.0,2,phase_2,purple_triangle,go,,,,go-2,1,,,,,,
1,533.0,2,phase_2,purple_triangle,go,,,,go-2,1,,,,,,
0,0,2,phase_2,purple_circle,stop,blue,0.0,0-SSD,go-2,4,,,,,,
1,627.0,2,phase_2,purple_pentagon,go,,,,go-2,1,,,,,,
1,559.0,2,phase_2,green_pentagon,go,,,,go-1,1,,,,,,
0,0,2,phase_2,purple_circle,stop,blue,0.0,0-SSD,go-2,4,,,,,,
1,613.0,2,phase_2,green_pentagon,stop,red,350.0,tracking-SSD,go-1,3,,,,,,
2,466.0,2,phase_2,green_circle,go,,,,go-1,1,,,,,,
1,549.0,2,phase_2,green_pentagon,go,,,,go-1,1,,,,,,
2,479.0,2,phase_2,green_circle,go,,,,go-1,1,,,,,,
0,0,2,phase_2,green_pentagon,stop,blue,0.0,0-SSD,go-1,4,,,,,,
1,590.0,2,phase_2,purple_rhombus,stop,red,300.0,tracking-SSD,go-2,3,,,,,,
2,713.0,2,phase_2,green_rhombus,go,,,,go-1,1,,,,,,
2,564.0,2,phase_2,purple_circle,go,,,,go-2,1,,,,,,
1,534.0,2,phase_2,purple_triangle,go,,,,go-2,1,,,,,,
2,604.0,3,phase_2,green_rhombus,stop,red,250.0,tracking-SSD,go-1,3,,,,,,
0,0,3,phase_2,green_rhombus,stop,blue,0.0,0-SSD,go-1,4,,,,,,
1,602.0,3,phase_2,green_triangle,go,,,,go-1,1,,,,,,
1,655.0,3,phase_2,green_triangle,go,,,,go-1,1,,,,,,
2,473.0,3,phase_2,purple_circle,go,,,,go-2,1,,,,,,
2,485.0,3,phase_2,green_circle,go,,,,go-1,1,,,,,,
0,0,3,phase_2,purple_triangle,stop,red,200.0,tracking-SSD,go-2,4,,,,,,
1,626.0,3,phase_2,purple_pentagon,go,,,,go-2,1,,,,,,
1,534.0,3,phase_2,purple_pentagon,go,,,,go-2,1,,,,,,
1,513.0,3,phase_2,purple_pentagon,go,,,,go-2,1,,,,,,
2,589.0,3,phase_2,purple_rhombus,go,,,,go-2,1,,,,,,
2,440.0,3,phase_2,green_circle,go,,,,go-1,1,,,,,,
1,484.0,3,phase_2,purple_triangle,go,,,,go-2,1,,,,,,
0,0,3,phase_2,green_circle,stop,red,250.0,tracking-SSD,go-1,4,,,,,,
1,609.0,3,phase_2,purple_pentagon,go,,,,go-2,1,,,,,,
2,685.0,3,phase_2,green_rhombus,go,,,,go-1,1,,,,,,
2,497.0,3,phase_2,purple_rhombus,go,,,,go-2,1,,,,,,
0,0,3,phase_2,purple_circle,stop,blue,0.0,0-SSD,go-2,4,,,,,,
2,417.0,3,phase_2,purple_circle,go,,,,go-2,1,,,,,,
1,499.0,3,phase_2,purple_pentagon,go,,,,go-2,1,,,,,,
1,589.0,3,phase_2,green_triangle,go,,,,go-1,1,,,,,,
2,496.0,3,phase_2,green_circle,go,,,,go-1,1,,,,,,
1,513.0,3,phase_2,green_triangle,stop,red,300.0,tracking-SSD,go-1,3,,,,,,
1,582.0,3,phase_2,green_triangle,go,,,,go-1,1,,,,,,
1,592.0,3,phase_2,purple_pentagon,go,,,,go-2,1,,,,,,
0,0,3,phase_2,purple_pentagon,stop,blue,0.0,0-SSD,go-2,4,,,,,,
2,598.0,3,phase_2,green_rhombus,go,,,,go-1,1,,,,,,
0,0,3,phase_2,green_pentagon,stop,blue,0.0,0-SSD,go-1,4,,,,,,
1,541.0,3,phase_2,purple_triangle,go,,,,go-2,1,,,,,,
1,464.0,3,phase_2,purple_triangle,go,,,,go-2,1,,,,,,
0,0,3,phase_2,green_pentagon,stop,blue,0.0,0-SSD,go-1,4,,,,,,
2,630.0,3,phase_2,purple_rhombus,stop,red,250.0,tracking-SSD,go-2,3,,,,,,
1,625.0,3,phase_2,green_triangle,go,,,,go-1,1,,,,,,
2,493.0,3,phase_2,green_rhombus,go,,,,go-1,1,,,,,,
2,469.0,3,phase_2,green_rhombus,go,,,,go-1,1,,,,,,
2,467.0,3,phase_2,green_rhombus,go,,,,go-1,1,,,,,,
1,615.0,3,phase_2,purple_pentagon,go,,,,go-2,1,,,,,,
0,0,3,phase_2,purple_circle,stop,blue,0.0,0-SSD,go-2,4,,,,,,
0,0,3,phase_2,green_rhombus,stop,red,200.0,tracking-SSD,go-1,4,,,,,,
1,695.0,3,phase_2,purple_triangle,go,,,,go-2,1,,,,,,
0,0,3,phase_2,green_circle,stop,blue,0.0,0-SSD,go-1,4,,,,,,
0,0,3,phase_2,purple_rhombus,stop,blue,0.0,0-SSD,go-2,4,,,,,,
2,601.0,3,phase_2,purple_circle,go,,,,go-2,1,,,,,,
2,493.0,3,phase_2,green_circle,go,,,,go-1,1,,,,,,
1,425.0,3,phase_2,purple_triangle,stop,red,250.0,tracking-SSD,go-2,3,,,,,,
1,642.0,3,phase_2,green_pentagon,go,,,,go-1,1,,,,,,
2,493.0,3,phase_2,green_circle,go,,,,go-1,1,,,,,,
0,0,3,phase_2,purple_pentagon,stop,red,200.0,tracking-SSD,go-2,4,,,,,,
0,0,4,phase_2,purple_triangle,stop,blue,0.0,0-SSD,go-2,4,,,,,,
2,864.0,4,phase_2,purple_rhombus,go,,,,go-2,1,,,,,,
1,579.0,4,phase_2,green_pentagon,go,,,,go-1,1,,,,,,
0,0,4,phase_2,green_triangle,stop,blue,0.0,0-SSD,go-1,4,,,,,,
1,648.0,4,phase_2,green_triangle,go,,,,go-1,1,,,,,,
2,419.0,4,phase_2,purple_circle,stop,red,250.0,tracking-SSD,go-2,3,,,,,,
1,504.0,4,phase_2,green_triangle,go,,,,go-1,1,,,,,,
1,570.0,4,phase_2,purple_pentagon,go,,,,go-2,1,,,,,,
2,629.0,4,phase_2,green_rhombus,go,,,,go-1,1,,,,,,
2,598.0,4,phase_2,purple_circle,go,,,,go-2,1,,,,,,
1,501.0,4,phase_2,purple_triangle,go,,,,go-2,1,,,,,,
2,585.0,4,phase_2,green_rhombus,go,,,,go-1,1,,,,,,
2,653.0,4,phase_2,green_rhombus,go,,,,go-1,1,,,,,,
1,501.0,4,phase_2,green_circle,go,,,,go-1,2,,,,,,
0,0,4,phase_2,green_circle,stop,red,200.0,tracking-SSD,go-1,4,,,,,,
1,612.0,4,phase_2,green_pentagon,go,,,,go-1,1,,,,,,
2,518.0,4,phase_2,purple_rhombus,go,,,,go-2,1,,,,,,
2,553.0,4,phase_2,purple_circle,go,,,,go-2,1,,,,,,
1,558.0,4,phase_2,purple_pentagon,stop,red,250.0,tracking-SSD,go-2,3,,,,,,
2,472.0,4,phase_2,purple_circle,go,,,,go-2,1,,,,,,
1,572.0,4,phase_2,purple_pentagon,go,,,,go-2,1,,,,,,
0,0,4,phase_2,green_circle,stop,blue,0.0,0-SSD,go-1,4,,,,,,
0,0,4,phase_2,purple_triangle,stop,red,200.0,tracking-SSD,go-2,4,,,,,,
0,0,4,phase_2,green_rhombus,stop,blue,0.0,0-SSD,go-1,4,,,,,,
0,0,4,phase_2,purple_triangle,stop,blue,0.0,0-SSD,go-2,4,,,,,,
1,586.0,4,phase_2,green_pentagon,go,,,,go-1,1,,,,,,
2,430.0,4,phase_2,green_circle,stop,red,250.0,tracking-SSD,go-1,3,,,,,,
2,512.0,4,phase_2,green_circle,go,,,,go-1,1,,,,,,
1,541.0,4,phase_2,purple_rhombus,go,,,,go-2,2,,,,,,
1,680.0,4,phase_2,purple_pentagon,go,,,,go-2,1,,,,,,
0,0,4,phase_2,purple_pentagon,stop,blue,0.0,0-SSD,go-2,4,,,,,,
0,0,4,phase_2,green_rhombus,stop,blue,0.0,0-SSD,go-1,4,,,,,,
1,616.0,4,phase_2,green_triangle,go,,,,go-1,1,,,,,,
2,533.0,4,phase_2,purple_rhombus,go,,,,go-2,1,,,,,,
1,560.0,4,phase_2,green_pentagon,go,,,,go-1,1,,,,,,
1,684.0,4,phase_2,purple_triangle,go,,,,go-2,1,,,,,,
2,718.0,4,phase_2,green_rhombus,go,,,,go-1,1,,,,,,
2,600.0,4,phase_2,purple_rhombus,go,,,,go-2,1,,,,,,
1,612.0,4,phase_2,purple_pentagon,go,,,,go-2,1,,,,,,
0,0,4,phase_2,green_circle,stop,red,200.0,tracking-SSD,go-1,4,,,,,,
1,547.0,4,phase_2,purple_triangle,go,,,,go-2,1,,,,,,
1,574.0,4,phase_2,purple_triangle,stop,red,250.0,tracking-SSD,go-2,3,,,,,,
0,0,4,phase_2,purple_rhombus,stop,blue,0.0,0-SSD,go-2,4,,,,,,
2,593.0,4,phase_2,green_circle,go,,,,go-1,1,,,,,,
0,0,4,phase_2,green_circle,stop,red,200.0,tracking-SSD,go-1,4,,,,,,
1,595.0,4,phase_2,green_pentagon,go,,,,go-1,1,,,,,,
1,519.0,4,phase_2,green_pentagon,go,,,,go-1,1,,,,,,
1,599.0,4,phase_2,purple_triangle,go,,,,go-2,1,,,,,,
2,645.0,5,phase_2,green_circle,stop,red,250.0,tracking-SSD,go-1,3,,,,,,
2,481.0,5,phase_2,purple_circle,go,,,,go-2,1,,,,,,
0,0,5,phase_2,purple_pentagon,stop,blue,0.0,0-SSD,go-2,4,,,,,,
2,559.0,5,phase_2,purple_circle,go,,,,go-2,1,,,,,,
2,605.0,5,phase_2,green_rhombus,go,,,,go-1,1,,,,,,
1,536.0,5,phase_2,green_pentagon,go,,,,go-1,1,,,,,,
1,691.0,5,phase_2,green_triangle,go,,,,go-1,1,,,,,,
2,445.0,5,phase_2,green_circle,stop,red,200.0,tracking-SSD,go-1,3,,,,,,
2,616.0,5,phase_2,purple_rhombus,go,,,,go-2,1,,,,,,
2,564.0,5,phase_2,green_rhombus,go,,,,go-1,1,,,,,,
0,0,5,phase_2,purple_triangle,stop,red,150.0,tracking-SSD,go-2,4,,,,,,
1,617.0,5,phase_2,purple_pentagon,go,,,,go-2,1,,,,,,
2,579.0,5,phase_2,purple_rhombus,go,,,,go-2,1,,,,,,
1,457.0,5,phase_2,green_pentagon,go,,,,go-1,1,,,,,,
0,0,5,phase_2,purple_rhombus,stop,red,200.0,tracking-SSD,go-2,4,,,,,,
1,1006.0,5,phase_2,purple_pentagon,go,,,,go-2,1,,,,,,
0,0,5,phase_2,purple_pentagon,stop,blue,0.0,0-SSD,go-2,4,,,,,,
2,571.0,5,phase_2,green_rhombus,go,,,,go-1,1,,,,,,
0,0,5,phase_2,green_triangle,stop,red,250.0,tracking-SSD,go-1,4,,,,,,
1,571.0,5,phase_2,green_pentagon,go,,,,go-1,1,,,,,,
2,505.0,5,phase_2,purple_rhombus,go,,,,go-2,1,,,,,,
1,596.0,5,phase_2,green_pentagon,go,,,,go-1,1,,,,,,
1,604.0,5,phase_2,purple_triangle,go,,,,go-2,1,,,,,,
2,514.0,5,phase_2,purple_rhombus,go,,,,go-2,1,,,,,,
1,531.0,5,phase_2,green_pentagon,go,,,,go-1,1,,,,,,
0,0,5,phase_2,green_pentagon,stop,blue,0.0,0-SSD,go-1,4,,,,,,
0,0,5,phase_2,purple_rhombus,stop,blue,0.0,0-SSD,go-2,4,,,,,,
2,588.0,5,phase_2,purple_circle,go,,,,go-2,1,,,,,,
0,0,5,phase_2,green_triangle,stop,blue,0.0,0-SSD,go-1,4,,,,,,
2,521.0,5,phase_2,green_circle,stop,red,300.0,tracking-SSD,go-1,3,,,,,,
2,463.0,5,phase_2,purple_circle,go,,,,go-2,1,,,,,,
1,588.0,5,phase_2,green_pentagon,go,,,,go-1,1,,,,,,
1,576.0,5,phase_2,green_triangle,go,,,,go-1,1,,,,,,
0,0,5,phase_2,green_circle,stop,blue,0.0,0-SSD,go-1,4,,,,,,
1,512.0,5,phase_2,purple_triangle,go,,,,go-2,1,,,,,,
2,451.0,5,phase_2,green_circle,go,,,,go-1,1,,,,,,
0,0,5,phase_2,purple_triangle,stop,blue,0.0,0-SSD,go-2,4,,,,,,
2,552.0,5,phase_2,green_circle,go,,,,go-1,1,,,,,,
0,0,5,phase_2,purple_pentagon,stop,red,250.0,tracking-SSD,go-2,4,,,,,,
0,0,5,phase_2,green_circle,stop,blue,0.0,0-SSD,go-1,4,,,,,,
2,579.0,5,phase_2,green_rhombus,go,,,,go-1,1,,,,,,
1,512.0,5,phase_2,purple_triangle,go,,,,go-2,1,,,,,,
1,714.0,5,phase_2,purple_triangle,go,,,,go-2,1,,,,,,
2,478.0,5,phase_2,green_circle,go,,,,go-1,1,,,,,,
1,545.0,5,phase_2,green_triangle,go,,,,go-1,1,,,,,,
2,475.0,5,phase_2,purple_rhombus,stop,red,300.0,tracking-SSD,go-2,3,,,,,,
2,563.0,5,phase_2,purple_rhombus,go,,,,go-2,1,,,,,,
1,506.0,5,phase_2,purple_triangle,go,,,,go-2,1,,,,,,
1,605.0,6,phase_2,green_triangle,go,,,,go-1,1,,,,,,
2,480.0,6,phase_2,green_circle,go,,,,go-1,1,,,,,,
0,0,6,phase_2,green_rhombus,stop,red,250.0,tracking-SSD,go-1,4,,,,,,
1,647.0,6,phase_2,green_pentagon,go,,,,go-1,1,,,,,,
2,542.0,6,phase_2,green_circle,go,,,,go-1,1,,,,,,
1,566.0,6,phase_2,purple_pentagon,go,,,,go-2,1,,,,,,
1,633.0,6,phase_2,purple_triangle,go,,,,go-2,1,,,,,,
2,580.0,6,phase_2,purple_circle,stop,red,300.0,tracking-SSD,go-2,3,,,,,,
1,679.0,6,phase_2,purple_triangle,go,,,,go-2,1,,,,,,
1,514.0,6,phase_2,green_triangle,go,,,,go-1,1,,,,,,
0,0,6,phase_2,green_rhombus,stop,blue,0.0,0-SSD,go-1,4,,,,,,
0,0,6,phase_2,purple_rhombus,stop,blue,0.0,0-SSD,go-2,4,,,,,,
0,0,6,phase_2,green_pentagon,stop,blue,0.0,0-SSD,go-1,4,,,,,,
1,597.0,6,phase_2,green_pentagon,go,,,,go-1,1,,,,,,
1,562.0,6,phase_2,green_pentagon,go,,,,go-1,1,,,,,,
2,478.0,6,phase_2,green_circle,go,,,,go-1,1,,,,,,
0,0,6,phase_2,purple_pentagon,stop,blue,0.0,0-SSD,go-2,4,,,,,,
1,546.0,6,phase_2,purple_triangle,go,,,,go-2,1,,,,,,
1,424.0,6,phase_2,green_triangle,go,,,,go-1,1,,,,,,
0,0,6,phase_2,purple_pentagon,stop,blue,0.0,0-SSD,go-2,4,,,,,,
0,0,6,phase_2,green_rhombus,stop,red,250.0,tracking-SSD,go-1,4,,,,,,
1,600.0,6,phase_2,green_triangle,go,,,,go-1,1,,,,,,
2,499.0,6,phase_2,purple_circle,go,,,,go-2,1,,,,,,
1,543.0,6,phase_2,green_triangle,go,,,,go-1,1,,,,,,
1,521.0,6,phase_2,green_triangle,go,,,,go-1,1,,,,,,
2,444.0,6,phase_2,green_circle,go,,,,go-1,1,,,,,,
2,489.0,6,phase_2,purple_rhombus,stop,red,300.0,tracking-SSD,go-2,3,,,,,,
0,0,6,phase_2,purple_circle,stop,red,250.0,tracking-SSD,go-2,4,,,,,,
1,701.0,6,phase_2,purple_pentagon,go,,,,go-2,1,,,,,,
1,713.0,6,phase_2,purple_triangle,go,,,,go-2,1,,,,,,
2,506.0,6,phase_2,green_circle,stop,red,300.0,tracking-SSD,go-1,3,,,,,,
2,567.0,6,phase_2,purple_rhombus,go,,,,go-2,1,,,,,,
1,561.0,6,phase_2,purple_pentagon,go,,,,go-2,1,,,,,,
2,429.0,6,phase_2,purple_circle,go,,,,go-2,1,,,,,,
2,447.0,6,phase_2,green_rhombus,go,,,,go-1,1,,,,,,
2,516.0,6,phase_2,purple_circle,go,,,,go-2,1,,,,,,
0,0,6,phase_2,green_rhombus,stop,blue,0.0,0-SSD,go-1,4,,,,,,
2,570.0,6,phase_2,purple_rhombus,go,,,,go-2,1,,,,,,
0,0,6,phase_2,purple_rhombus,stop,blue,0.0,0-SSD,go-2,4,,,,,,
1,528.0,6,phase_2,green_pentagon,go,,,,go-1,1,,,,,,
1,522.0,6,phase_2,green_pentagon,stop,red,250.0,tracking-SSD,go-1,3,,,,,,
2,551.0,6,phase_2,purple_circle,go,,,,go-2,1,,,,,,
0,0,6,phase_2,purple_triangle,stop,red,200.0,tracking-SSD,go-2,4,,,,,,
2,533.0,6,phase_2,green_rhombus,go,,,,go-1,1,,,,,,
0,0,6,phase_2,green_circle,stop,blue,0.0,0-SSD,go-1,4,,,,,,
2,595.0,6,phase_2,purple_rhombus,go,,,,go-2,1,,,,,,
1,607.0,6,phase_2,purple_triangle,go,,,,go-2,1,,,,,,
1,562.0,6,phase_2,purple_pentagon,go,,,,go-2,1,,,,,,
1,580.0,7,phase_2,green_pentagon,stop,red,250.0,tracking-SSD,go-1,3,,,,,,
2,537.0,7,phase_2,purple_rhombus,go,,,,go-2,1,,,,,,
2,525.0,7,phase_2,green_circle,go,,,,go-1,1,,,,,,
1,489.0,7,phase_2,purple_triangle,go,,,,go-2,1,,,,,,
1,490.0,7,phase_2,green_pentagon,go,,,,go-1,1,,,,,,
2,502.0,7,phase_2,green_circle,go,,,,go-1,1,,,,,,
0,0,7,phase_2,green_triangle,stop,blue,0.0,0-SSD,go-1,4,,,,,,
1,493.0,7,phase_2,purple_pentagon,go,,,,go-2,1,,,,,,
0,0,7,phase_2,green_pentagon,stop,blue,0.0,0-SSD,go-1,4,,,,,,
1,579.0,7,phase_2,green_triangle,go,,,,go-1,1,,,,,,
1,438.0,7,phase_2,purple_triangle,stop,red,200.0,tracking-SSD,go-2,3,,,,,,
2,450.0,7,phase_2,purple_circle,go,,,,go-2,1,,,,,,
2,613.0,7,phase_2,purple_rhombus,go,,,,go-2,1,,,,,,
1,646.0,7,phase_2,purple_triangle,go,,,,go-2,1,,,,,,
1,481.0,7,phase_2,green_triangle,go,,,,go-1,1,,,,,,
0,0,7,phase_2,green_rhombus,stop,red,150.0,tracking-SSD,go-1,4,,,,,,
2,544.0,7,phase_2,green_circle,go,,,,go-1,1,,,,,,
0,0,7,phase_2,purple_triangle,stop,blue,0.0,0-SSD,go-2,4,,,,,,
0,0,7,phase_2,green_pentagon,stop,red,200.0,tracking-SSD,go-1,4,,,,,,
0,0,7,phase_2,purple_circle,stop,blue,0.0,0-SSD,go-2,4,,,,,,
2,586.0,7,phase_2,green_circle,go,,,,go-1,1,,,,,,
1,516.0,7,phase_2,green_rhombus,go,,,,go-1,2,,,,,,
0,0,7,phase_2,purple_pentagon,stop,red,250.0,tracking-SSD,go-2,4,,,,,,
0,0,7,phase_2,green_pentagon,stop,blue,0.0,0-SSD,go-1,4,,,,,,
2,607.0,7,phase_2,purple_rhombus,go,,,,go-2,1,,,,,,
1,592.0,7,phase_2,green_pentagon,go,,,,go-1,1,,,,,,
2,588.0,7,phase_2,purple_rhombus,go,,,,go-2,1,,,,,,
2,501.0,7,phase_2,purple_rhombus,stop,red,300.0,tracking-SSD,go-2,3,,,,,,
1,555.0,7,phase_2,purple_triangle,go,,,,go-2,1,,,,,,
2,581.0,7,phase_2,green_rhombus,go,,,,go-1,1,,,,,,
2,551.0,7,phase_2,green_circle,go,,,,go-1,1,,,,,,
1,570.0,7,phase_2,green_pentagon,go,,,,go-1,1,,,,,,
1,581.0,7,phase_2,green_triangle,go,,,,go-1,1,,,,,,
1,600.0,7,phase_2,purple_pentagon,go,,,,go-2,1,,,,,,
2,513.0,7,phase_2,purple_circle,go,,,,go-2,1,,,,,,
1,487.0,7,phase_2,green_rhombus,go,,,,go-1,2,,,,,,
2,546.0,7,phase_2,purple_circle,go,,,,go-2,1,,,,,,
2,452.0,7,phase_2,green_circle,go,,,,go-1,1,,,,,,
0,0,7,phase_2,green_triangle,stop,blue,0.0,0-SSD,go-1,4,,,,,,
0,0,7,phase_2,purple_pentagon,stop,blue,0.0,0-SSD,go-2,4,,,,,,
2,655.0,7,phase_2,green_rhombus,go,,,,go-1,1,,,,,,
1,583.0,7,phase_2,purple_pentagon,go,,,,go-2,1,,,,,,
1,633.0,7,phase_2,purple_triangle,go,,,,go-2,1,,,,,,
2,525.0,7,phase_2,purple_rhombus,go,,,,go-2,1,,,,,,
0,0,7,phase_2,purple_rhombus,stop,red,250.0,tracking-SSD,go-2,4,,,,,,
2,594.0,7,phase_2,purple_circle,go,,,,go-2,1,,,,,,
0,0,7,phase_2,purple_triangle,stop,blue,0.0,0-SSD,go-2,4,,,,,,
0,0,7,phase_2,green_circle,stop,red,300.0,tracking-SSD,go-1,4,,,,,,
1,584.0,8,phase_2,purple_triangle,stop,red,350.0,tracking-SSD,go-2,3,,,,,,
2,458.0,8,phase_2,green_circle,go,,,,go-1,1,,,,,,
2,669.0,8,phase_2,purple_rhombus,go,,,,go-2,1,,,,,,
0,0,8,phase_2,purple_circle,stop,blue,0.0,0-SSD,go-2,4,,,,,,
2,597.0,8,phase_2,purple_circle,go,,,,go-2,1,,,,,,
0,0,8,phase_2,purple_rhombus,stop,blue,0.0,0-SSD,go-2,4,,,,,,
2,555.0,8,phase_2,green_circle,go,,,,go-1,1,,,,,,
2,599.0,8,phase_2,green_rhombus,go,,,,go-1,1,,,,,,
0,0,8,phase_2,green_triangle,stop,red,300.0,tracking-SSD,go-1,4,,,,,,
1,627.0,8,phase_2,purple_pentagon,go,,,,go-2,1,,,,,,
0,0,8,phase_2,purple_pentagon,stop,blue,0.0,0-SSD,go-2,4,,,,,,
1,589.0,8,phase_2,green_triangle,go,,,,go-1,1,,,,,,
1,583.0,8,phase_2,green_rhombus,go,,,,go-1,2,,,,,,
1,602.0,8,phase_2,green_pentagon,go,,,,go-1,1,,,,,,
1,732.0,8,phase_2,green_triangle,go,,,,go-1,1,,,,,,
2,512.0,8,phase_2,purple_rhombus,go,,,,go-2,1,,,,,,
1,612.0,8,phase_2,purple_triangle,go,,,,go-2,1,,,,,,
1,694.0,8,phase_2,green_pentagon,go,,,,go-1,1,,,,,,
1,617.0,8,phase_2,green_pentagon,stop,red,350.0,tracking-SSD,go-1,3,,,,,,
1,685.0,8,phase_2,green_triangle,go,,,,go-1,1,,,,,,
2,596.0,8,phase_2,purple_rhombus,go,,,,go-2,1,,,,,,
1,611.0,8,phase_2,green_pentagon,go,,,,go-1,1,,,,,,
1,620.0,8,phase_2,green_triangle,go,,,,go-1,1,,,,,,
2,512.0,8,phase_2,purple_circle,go,,,,go-2,1,,,,,,
2,524.0,8,phase_2,green_rhombus,stop,red,300.0,tracking-SSD,go-1,3,,,,,,
2,567.0,8,phase_2,green_rhombus,go,,,,go-1,1,,,,,,
2,521.0,8,phase_2,purple_rhombus,go,,,,go-2,1,,,,,,
1,631.0,8,phase_2,purple_pentagon,go,,,,go-2,1,,,,,,
2,529.0,8,phase_2,green_circle,go,,,,go-1,1,,,,,,
1,598.0,8,phase_2,green_triangle,go,,,,go-1,1,,,,,,
0,0,8,phase_2,purple_pentagon,stop,blue,0.0,0-SSD,go-2,4,,,,,,
0,0,8,phase_2,green_triangle,stop,red,250.0,tracking-SSD,go-1,4,,,,,,
1,622.0,8,phase_2,purple_triangle,go,,,,go-2,1,,,,,,
2,503.0,8,phase_2,purple_circle,stop,red,300.0,tracking-SSD,go-2,3,,,,,,
2,610.0,8,phase_2,green_triangle,go,,,,go-1,2,,,,,,
0,0,8,phase_2,green_rhombus,stop,blue,0.0,0-SSD,go-1,4,,,,,,
1,589.0,8,phase_2,purple_pentagon,go,,,,go-2,1,,,,,,
2,478.0,8,phase_2,purple_circle,go,,,,go-2,1,,,,,,
0,0,8,phase_2,green_pentagon,stop,blue,0.0,0-SSD,go-1,4,,,,,,
1,602.0,8,phase_2,purple_triangle,go,,,,go-2,1,,,,,,
0,0,8,phase_2,green_pentagon,stop,blue,0.0,0-SSD,go-1,4,,,,,,
0,0,8,phase_2,green_rhombus,stop,blue,0.0,0-SSD,go-1,4,,,,,,
0,0,8,phase_2,purple_circle,stop,red,250.0,tracking-SSD,go-2,4,,,,,,
2,593.0,8,phase_2,purple_circle,go,,,,go-2,1,,,,,,
2,688.0,8,phase_2,green_circle,go,,,,go-1,1,,,,,,
2,739.0,8,phase_2,purple_circle,go,,,,go-2,1,,,,,,
1,644.0,8,phase_2,purple_pentagon,go,,,,go-2,1,,,,,,
0,0,8,phase_2,purple_rhombus,stop,red,300.0,tracking-SSD,go-2,4,,,,,,
1,637.0,9,phase_2,green_triangle,go,,,,go-1,1,,,,,,
0,0,9,phase_2,green_rhombus,stop,red,350.0,tracking-SSD,go-1,4,,,,,,
2,578.0,9,phase_2,purple_circle,go,,,,go-2,1,,,,,,
2,628.0,9,phase_2,purple_rhombus,stop,red,400.0,tracking-SSD,go-2,3,,,,,,
2,538.0,9,phase_2,green_rhombus,go,,,,go-1,1,,,,,,
1,547.0,9,phase_2,green_triangle,go,,,,go-1,1,,,,,,
2,693.0,9,phase_2,purple_circle,go,,,,go-2,1,,,,,,
0,0,9,phase_2,purple_triangle,stop,blue,0.0,0-SSD,go-2,4,,,,,,
2,561.0,9,phase_2,green_circle,stop,red,350.0,tracking-SSD,go-1,3,,,,,,
0,0,9,phase_2,green_triangle,stop,blue,0.0,0-SSD,go-1,4,,,,,,
1,615.0,9,phase_2,green_triangle,go,,,,go-1,1,,,,,,
0,0,9,phase_2,green_pentagon,stop,blue,0.0,0-SSD,go-1,4,,,,,,
0,0,9,phase_2,green_circle,stop,red,300.0,tracking-SSD,go-1,4,,,,,,
2,657.0,9,phase_2,purple_circle,go,,,,go-2,1,,,,,,
1,603.0,9,phase_2,green_pentagon,go,,,,go-1,1,,,,,,
1,663.0,9,phase_2,purple_triangle,go,,,,go-2,1,,,,,,
2,481.0,9,phase_2,green_circle,stop,red,350.0,tracking-SSD,go-1,3,,,,,,
2,613.0,9,phase_2,purple_rhombus,go,,,,go-2,1,,,,,,
2,568.0,9,phase_2,purple_rhombus,go,,,,go-2,1,,,,,,
0,0,9,phase_2,purple_rhombus,stop,red,300.0,tracking-SSD,go-2,4,,,,,,
2,651.0,9,phase_2,green_rhombus,go,,,,go-1,1,,,,,,
1,603.0,9,phase_2,purple_triangle,go,,,,go-2,1,,,,,,
2,565.0,9,phase_2,purple_circle,go,,,,go-2,1,,,,,,
2,696.0,9,phase_2,purple_circle,go,,,,go-2,1,,,,,,
2,587.0,9,phase_2,green_circle,go,,,,go-1,1,,,,,,
2,616.0,9,phase_2,green_rhombus,go,,,,go-1,1,,,,,,
1,571.0,9,phase_2,purple_pentagon,go,,,,go-2,1,,,,,,
1,494.0,9,phase_2,purple_pentagon,go,,,,go-2,1,,,,,,
1,634.0,9,phase_2,green_triangle,go,,,,go-1,1,,,,,,
1,613.0,9,phase_2,green_pentagon,go,,,,go-1,1,,,,,,
0,0,9,phase_2,green_pentagon,stop,blue,0.0,0-SSD,go-1,4,,,,,,
1,634.0,9,phase_2,purple_pentagon,go,,,,go-2,1,,,,,,
1,534.0,9,phase_2,purple_triangle,go,,,,go-2,1,,,,,,
2,480.0,9,phase_2,green_rhombus,go,,,,go-1,1,,,,,,
1,572.0,9,phase_2,purple_pentagon,go,,,,go-2,1,,,,,,
0,0,9,phase_2,purple_pentagon,stop,blue,0.0,0-SSD,go-2,4,,,,,,
2,576.0,9,phase_2,purple_rhombus,stop,red,350.0,tracking-SSD,go-2,3,,,,,,
1,555.0,9,phase_2,green_pentagon,go,,,,go-1,1,,,,,,
1,576.0,9,phase_2,green_triangle,go,,,,go-1,1,,,,,,
0,0,9,phase_2,green_circle,stop,blue,0.0,0-SSD,go-1,4,,,,,,
2,638.0,9,phase_2,purple_rhombus,go,,,,go-2,1,,,,,,
2,465.0,9,phase_2,green_rhombus,go,,,,go-1,1,,,,,,
0,0,9,phase_2,purple_pentagon,stop,blue,0.0,0-SSD,go-2,4,,,,,,
0,0,9,phase_2,purple_triangle,stop,blue,0.0,0-SSD,go-2,4,,,,,,
2,651.0,9,phase_2,green_circle,go,,,,go-1,1,,,,,,
0,0,9,phase_2,purple_circle,stop,red,300.0,tracking-SSD,go-2,4,,,,,,
1,766.0,9,phase_2,green_triangle,go,,,,go-1,1,,,,,,
1,570.0,9,phase_2,purple_pentagon,go,,,,go-2,1,,,,,,
0,0,10,phase_2,purple_rhombus,stop,red,350.0,tracking-SSD,go-2,4,,,,,,
2,622.0,10,phase_2,green_circle,go,,,,go-1,1,,,,,,
1,553.0,10,phase_2,green_triangle,go,,,,go-1,1,,,,,,
2,509.0,10,phase_2,green_circle,stop,red,400.0,tracking-SSD,go-1,3,,,,,,
0,0,10,phase_2,purple_rhombus,stop,blue,0.0,0-SSD,go-2,4,,,,,,
1,522.0,10,phase_2,green_triangle,go,,,,go-1,1,,,,,,
1,424.0,10,phase_2,purple_triangle,go,,,,go-2,1,,,,,,
0,0,10,phase_2,green_triangle,stop,blue,0.0,0-SSD,go-1,4,,,,,,
0,0,10,phase_2,purple_triangle,stop,blue,0.0,0-SSD,go-2,4,,,,,,
1,622.0,10,phase_2,green_pentagon,go,,,,go-1,1,,,,,,
0,0,10,phase_2,green_rhombus,stop,blue,0.0,0-SSD,go-1,4,,,,,,
1,615.0,10,phase_2,purple_pentagon,go,,,,go-2,1,,,,,,
2,527.0,10,phase_2,purple_circle,stop,red,350.0,tracking-SSD,go-2,3,,,,,,
1,564.0,10,phase_2,purple_triangle,go,,,,go-2,1,,,,,,
2,608.0,10,phase_2,green_rhombus,go,,,,go-1,1,,,,,,
0,0,10,phase_2,purple_circle,stop,blue,0.0,0-SSD,go-2,4,,,,,,
0,0,10,phase_2,green_rhombus,stop,red,300.0,tracking-SSD,go-1,4,,,,,,
2,574.0,10,phase_2,purple_rhombus,go,,,,go-2,1,,,,,,
2,526.0,10,phase_2,purple_circle,go,,,,go-2,1,,,,,,
2,553.0,10,phase_2,green_circle,go,,,,go-1,1,,,,,,
0,0,10,phase_2,green_triangle,stop,blue,0.0,0-SSD,go-1,4,,,,,,
1,495.0,10,phase_2,green_triangle,stop,red,350.0,tracking-SSD,go-1,3,,,,,,
1,513.0,10,phase_2,green_pentagon,go,,,,go-1,1,,,,,,
1,564.0,10,phase_2,green_rhombus,go,,,,go-1,2,,,,,,
1,600.0,10,phase_2,purple_pentagon,go,,,,go-2,1,,,,,,
1,545.0,10,phase_2,purple_pentagon,go,,,,go-2,1,,,,,,
2,511.0,10,phase_2,green_circle,go,,,,go-1,1,,,,,,
2,514.0,10,phase_2,purple_rhombus,go,,,,go-2,1,,,,,,
1,660.0,10,phase_2,green_triangle,go,,,,go-1,1,,,,,,
1,583.0,10,phase_2,green_pentagon,go,,,,go-1,1,,,,,,
1,499.0,10,phase_2,green_pentagon,go,,,,go-1,1,,,,,,
1,455.0,10,phase_2,green_pentagon,go,,,,go-1,1,,,,,,
2,600.0,10,phase_2,purple_rhombus,stop,red,300.0,tracking-SSD,go-2,3,,,,,,
2,309.0,10,phase_2,green_circle,go,,,,go-1,1,,,,,,
0,0,10,phase_2,purple_pentagon,stop,red,250.0,tracking-SSD,go-2,4,,,,,,
1,611.0,10,phase_2,purple_pentagon,go,,,,go-2,1,,,,,,
2,606.0,10,phase_2,purple_rhombus,go,,,,go-2,1,,,,,,
2,536.0,10,phase_2,purple_circle,go,,,,go-2,1,,,,,,
0,0,10,phase_2,green_rhombus,stop,blue,0.0,0-SSD,go-1,4,,,,,,
2,588.0,10,phase_2,purple_circle,go,,,,go-2,1,,,,,,
1,625.0,10,phase_2,green_pentagon,go,,,,go-1,1,,,,,,
0,0,10,phase_2,purple_triangle,stop,blue,0.0,0-SSD,go-2,4,,,,,,
2,620.0,10,phase_2,purple_rhombus,go,,,,go-2,1,,,,,,
1,624.0,10,phase_2,purple_triangle,go,,,,go-2,1,,,,,,
2,491.0,10,phase_2,green_circle,stop,red,300.0,tracking-SSD,go-1,3,,,,,,
1,685.0,10,phase_2,purple_triangle,go,,,,go-2,1,,,,,,
1,631.0,10,phase_2,purple_pentagon,go,,,,go-2,1,,,,,,
2,628.0,10,phase_2,green_circle,go,,,,go-1,1,,,,,,
0,0,11,phase_2,purple_rhombus,stop,red,250.0,tracking-SSD,go-2,4,,,,,,
1,645.0,11,phase_2,green_triangle,go,,,,go-1,1,,,,,,
1,594.0,11,phase_2,purple_triangle,go,,,,go-2,1,,,,,,
1,627.0,11,phase_2,purple_pentagon,go,,,,go-2,1,,,,,,
1,567.0,11,phase_2,purple_pentagon,go,,,,go-2,1,,,,,,
0,0,11,phase_2,green_circle,stop,red,300.0,tracking-SSD,go-1,4,,,,,,
1,557.0,11,phase_2,green_pentagon,go,,,,go-1,1,,,,,,
2,583.0,11,phase_2,green_rhombus,go,,,,go-1,1,,,,,,
1,713.0,11,phase_2,green_triangle,stop,red,350.0,tracking-SSD,go-1,3,,,,,,
1,578.0,11,phase_2,green_pentagon,go,,,,go-1,1,,,,,,
0,0,11,phase_2,purple_circle,stop,blue,0.0,0-SSD,go-2,4,,,,,,
1,655.0,11,phase_2,green_triangle,go,,,,go-1,1,,,,,,
0,0,11,phase_2,purple_triangle,stop,red,300.0,tracking-SSD,go-2,4,,,,,,
2,589.0,11,phase_2,green_circle,go,,,,go-1,1,,,,,,
0,0,11,phase_2,green_pentagon,stop,blue,0.0,0-SSD,go-1,4,,,,,,
2,571.0,11,phase_2,green_circle,go,,,,go-1,1,,,,,,
1,605.0,11,phase_2,green_triangle,go,,,,go-1,1,,,,,,
2,563.0,11,phase_2,green_rhombus,go,,,,go-1,1,,,,,,
1,569.0,11,phase_2,green_pentagon,stop,red,350.0,tracking-SSD,go-1,3,,,,,,
1,651.0,11,phase_2,green_pentagon,go,,,,go-1,1,,,,,,
1,611.0,11,phase_2,purple_triangle,go,,,,go-2,1,,,,,,
1,576.0,11,phase_2,green_triangle,go,,,,go-1,1,,,,,,
2,467.0,11,phase_2,green_circle,go,,,,go-1,1,,,,,,
0,0,11,phase_2,purple_rhombus,stop,red,300.0,tracking-SSD,go-2,4,,,,,,
0,0,11,phase_2,purple_circle,stop,blue,0.0,0-SSD,go-2,4,,,,,,
1,540.0,11,phase_2,green_pentagon,go,,,,go-1,1,,,,,,
2,583.0,11,phase_2,purple_rhombus,go,,,,go-2,1,,,,,,
2,490.0,11,phase_2,purple_rhombus,go,,,,go-2,1,,,,,,
2,621.0,11,phase_2,purple_circle,go,,,,go-2,1,,,,,,
1,616.0,11,phase_2,purple_triangle,go,,,,go-2,1,,,,,,
0,0,11,phase_2,green_rhombus,stop,blue,0.0,0-SSD,go-1,4,,,,,,
1,599.0,11,phase_2,purple_pentagon,go,,,,go-2,1,,,,,,
2,507.0,11,phase_2,purple_circle,go,,,,go-2,1,,,,,,
0,0,11,phase_2,purple_triangle,stop,blue,0.0,0-SSD,go-2,4,,,,,,
1,640.0,11,phase_2,purple_pentagon,go,,,,go-2,1,,,,,,
0,0,11,phase_2,green_circle,stop,blue,0.0,0-SSD,go-1,4,,,,,,
0,0,11,phase_2,purple_triangle,stop,blue,0.0,0-SSD,go-2,4,,,,,,
2,672.0,11,phase_2,purple_rhombus,go,,,,go-2,1,,,,,,
1,550.0,11,phase_2,purple_pentagon,go,,,,go-2,1,,,,,,
2,570.0,11,phase_2,purple_rhombus,go,,,,go-2,1,,,,,,
2,468.0,11,phase_2,green_circle,stop,red,350.0,tracking-SSD,go-1,3,,,,,,
1,487.0,11,phase_2,purple_triangle,go,,,,go-2,1,,,,,,
2,490.0,11,phase_2,purple_rhombus,go,,,,go-2,1,,,,,,
0,0,11,phase_2,green_circle,stop,blue,0.0,0-SSD,go-1,4,,,,,,
2,487.0,11,phase_2,purple_circle,stop,red,300.0,tracking-SSD,go-2,3,,,,,,
1,568.0,11,phase_2,green_pentagon,go,,,,go-1,1,,,,,,
2,596.0,11,phase_2,green_rhombus,go,,,,go-1,1,,,,,,
2,655.0,11,phase_2,green_rhombus,go,,,,go-1,1,,,,,,
0,0,12,phase_2,purple_pentagon,stop,blue,0.0,0-SSD,go-2,4,,,,,,
1,567.0,12,phase_2,green_triangle,go,,,,go-1,1,,,,,,
1,644.0,12,phase_2,green_pentagon,go,,,,go-1,1,,,,,,
2,534.0,12,phase_2,purple_rhombus,go,,,,go-2,1,,,,,,
1,562.0,12,phase_2,purple_pentagon,go,,,,go-2,1,,,,,,
0,0,12,phase_2,green_circle,stop,blue,0.0,0-SSD,go-1,4,,,,,,
2,607.0,12,phase_2,green_rhombus,go,,,,go-1,1,,,,,,
0,0,12,phase_2,green_rhombus,stop,red,250.0,tracking-SSD,go-1,4,,,,,,
0,0,12,phase_2,purple_pentagon,stop,red,300.0,tracking-SSD,go-2,4,,,,,,
0,0,12,phase_2,purple_circle,stop,blue,0.0,0-SSD,go-2,4,,,,,,
1,676.0,12,phase_2,green_pentagon,go,,,,go-1,1,,,,,,
1,569.0,12,phase_2,purple_triangle,go,,,,go-2,1,,,,,,
2,739.0,12,phase_2,purple_rhombus,go,,,,go-2,1,,,,,,
0,0,12,phase_2,purple_rhombus,stop,blue,0.0,0-SSD,go-2,4,,,,,,
0,0,12,phase_2,purple_rhombus,stop,blue,0.0,0-SSD,go-2,4,,,,,,
2,710.0,12,phase_2,green_rhombus,go,,,,go-1,1,,,,,,
1,545.0,12,phase_2,purple_triangle,go,,,,go-2,1,,,,,,
0,0,12,phase_2,green_circle,stop,blue,0.0,0-SSD,go-1,4,,,,,,
0,0,12,phase_2,purple_circle,stop,red,350.0,tracking-SSD,go-2,4,,,,,,
2,522.0,12,phase_2,green_circle,go,,,,go-1,1,,,,,,
2,612.0,12,phase_2,purple_rhombus,go,,,,go-2,1,,,,,,
1,703.0,12,phase_2,green_pentagon,go,,,,go-1,1,,,,,,
1,561.0,12,phase_2,green_triangle,stop,red,400.0,tracking-SSD,go-1,3,,,,,,
2,565.0,12,phase_2,green_circle,go,,,,go-1,1,,,,,,
1,545.0,12,phase_2,purple_pentagon,go,,,,go-2,1,,,,,,
2,580.0,12,phase_2,purple_circle,go,,,,go-2,1,,,,,,
1,502.0,12,phase_2,green_triangle,go,,,,go-1,1,,,,,,
2,562.0,12,phase_2,purple_rhombus,go,,,,go-2,1,,,,,,
1,460.0,12,phase_2,green_triangle,go,,,,go-1,1,,,,,,
1,561.0,12,phase_2,purple_triangle,stop,red,350.0,tracking-SSD,go-2,3,,,,,,
2,492.0,12,phase_2,purple_rhombus,go,,,,go-2,1,,,,,,
2,534.0,12,phase_2,purple_rhombus,go,,,,go-2,1,,,,,,
2,603.0,12,phase_2,green_circle,go,,,,go-1,1,,,,,,
1,605.0,12,phase_2,purple_pentagon,go,,,,go-2,1,,,,,,
1,417.0,12,phase_2,purple_pentagon,stop,red,300.0,tracking-SSD,go-2,3,,,,,,
0,0,12,phase_2,green_triangle,stop,blue,0.0,0-SSD,go-1,4,,,,,,
0,0,12,phase_2,green_circle,stop,red,250.0,tracking-SSD,go-1,4,,,,,,
0,0,12,phase_2,green_circle,stop,blue,0.0,0-SSD,go-1,4,,,,,,
0,0,12,phase_2,green_pentagon,stop,red,300.0,tracking-SSD,go-1,4,,,,,,
2,804.0,12,phase_2,purple_rhombus,go,,,,go-2,1,,,,,,
1,541.0,12,phase_2,green_triangle,go,,,,go-1,1,,,,,,
2,503.0,12,phase_2,purple_circle,go,,,,go-2,1,,,,,,
2,722.0,12,phase_2,green_circle,go,,,,go-1,1,,,,,,
1,656.0,12,phase_2,purple_pentagon,go,,,,go-2,1,,,,,,
1,612.0,12,phase_2,purple_triangle,go,,,,go-2,1,,,,,,
1,566.0,12,phase_2,green_pentagon,go,,,,go-1,1,,,,,,
1,898.0,12,phase_2,green_triangle,go,,,,go-1,1,,,,,,
1,549.0,12,phase_2,green_triangle,go,,,,go-1,1,,,,,,
2,518.0,13,phase_2,green_circle,go,,,,go-1,1,,,,,,
1,602.0,13,phase_2,purple_triangle,go,,,,go-2,1,,,,,,
0,0,13,phase_2,purple_circle,stop,blue,0.0,0-SSD,go-2,4,,,,,,
2,568.0,13,phase_2,purple_circle,go,,,,go-2,1,,,,,,
2,498.0,13,phase_2,green_circle,go,,,,go-1,1,,,,,,
2,627.0,13,phase_2,green_rhombus,go,,,,go-1,1,,,,,,
0,0,13,phase_2,green_circle,stop,red,350.0,tracking-SSD,go-1,4,,,,,,
1,577.0,13,phase_2,purple_triangle,go,,,,go-2,1,,,,,,
1,477.0,13,phase_2,green_pentagon,stop,red,400.0,tracking-SSD,go-1,3,,,,,,
2,583.0,13,phase_2,purple_rhombus,go,,,,go-2,1,,,,,,
2,563.0,13,phase_2,green_rhombus,go,,,,go-1,1,,,,,,
1,632.0,13,phase_2,green_pentagon,go,,,,go-1,1,,,,,,
2,580.0,13,phase_2,purple_rhombus,go,,,,go-2,1,,,,,,
1,541.0,13,phase_2,green_triangle,go,,,,go-1,1,,,,,,
1,594.0,13,phase_2,green_triangle,stop,red,350.0,tracking-SSD,go-1,3,,,,,,
1,492.0,13,phase_2,purple_triangle,go,,,,go-2,1,,,,,,
0,0,13,phase_2,purple_pentagon,stop,blue,0.0,0-SSD,go-2,4,,,,,,
1,606.0,13,phase_2,purple_triangle,go,,,,go-2,1,,,,,,
1,600.0,13,phase_2,green_pentagon,go,,,,go-1,1,,,,,,
0,0,13,phase_2,purple_circle,stop,red,300.0,tracking-SSD,go-2,4,,,,,,
1,558.0,13,phase_2,green_triangle,go,,,,go-1,1,,,,,,
2,569.0,13,phase_2,purple_circle,go,,,,go-2,1,,,,,,
2,643.0,13,phase_2,green_rhombus,go,,,,go-1,1,,,,,,
2,488.0,13,phase_2,purple_rhombus,stop,red,350.0,tracking-SSD,go-2,3,,,,,,
2,532.0,13,phase_2,green_circle,go,,,,go-1,1,,,,,,
0,0,13,phase_2,green_pentagon,stop,red,300.0,tracking-SSD,go-1,4,,,,,,
0,0,13,phase_2,purple_triangle,stop,blue,0.0,0-SSD,go-2,4,,,,,,
2,676.0,13,phase_2,purple_rhombus,go,,,,go-2,1,,,,,,
0,0,13,phase_2,green_pentagon,stop,blue,0.0,0-SSD,go-1,4,,,,,,
1,618.0,13,phase_2,green_pentagon,go,,,,go-1,1,,,,,,
1,636.0,13,phase_2,purple_pentagon,go,,,,go-2,1,,,,,,
1,681.0,13,phase_2,green_triangle,go,,,,go-1,1,,,,,,
1,516.0,13,phase_2,purple_pentagon,go,,,,go-2,1,,,,,,
0,0,13,phase_2,purple_circle,stop,blue,0.0,0-SSD,go-2,4,,,,,,
0,0,13,phase_2,purple_circle,stop,red,350.0,tracking-SSD,go-2,4,,,,,,
1,662.0,13,phase_2,green_pentagon,go,,,,go-1,1,,,,,,
2,536.0,13,phase_2,purple_rhombus,go,,,,go-2,1,,,,,,
2,498.0,13,phase_2,green_rhombus,go,,,,go-1,1,,,,,,
1,557.0,13,phase_2,green_triangle,go,,,,go-1,1,,,,,,
2,542.0,13,phase_2,purple_rhombus,go,,,,go-2,1,,,,,,
1,513.0,13,phase_2,purple_triangle,go,,,,go-2,1,,,,,,
2,530.0,13,phase_2,purple_circle,stop,red,400.0,tracking-SSD,go-2,3,,,,,,
1,679.0,13,phase_2,purple_pentagon,go,,,,go-2,1,,,,,,
0,0,13,phase_2,green_rhombus,stop,blue,0.0,0-SSD,go-1,4,,,,,,
0,0,13,phase_2,green_rhombus,stop,blue,0.0,0-SSD,go-1,4,,,,,,
1,638.0,13,phase_2,purple_triangle,go,,,,go-2,1,,,,,,
2,547.0,13,phase_2,green_circle,go,,,,go-1,1,,,,,,
0,0,13,phase_2,green_pentagon,stop,blue,0.0,0-SSD,go-1,4,,,,,,
1,564.0,14,phase_2,green_triangle,stop,red,350.0,tracking-SSD,go-1,3,,,,,,
0,0,14,phase_2,green_rhombus,stop,blue,0.0,0-SSD,go-1,4,,,,,,
2,643.0,14,phase_2,purple_rhombus,go,,,,go-2,1,,,,,,
2,528.0,14,phase_2,purple_circle,go,,,,go-2,1,,,,,,
1,707.0,14,phase_2,purple_pentagon,go,,,,go-2,1,,,,,,
1,518.0,14,phase_2,purple_pentagon,go,,,,go-2,1,,,,,,
2,546.0,14,phase_2,purple_rhombus,go,,,,go-2,1,,,,,,
2,621.0,14,phase_2,green_rhombus,go,,,,go-1,1,,,,,,
1,624.0,14,phase_2,green_pentagon,go,,,,go-1,1,,,,,,
0,0,14,phase_2,purple_triangle,stop,blue,0.0,0-SSD,go-2,4,,,,,,
1,629.0,14,phase_2,purple_triangle,go,,,,go-2,1,,,,,,
1,505.0,14,phase_2,purple_triangle,stop,red,300.0,tracking-SSD,go-2,3,,,,,,
0,0,14,phase_2,purple_triangle,stop,red,250.0,tracking-SSD,go-2,4,,,,,,
2,540.0,14,phase_2,green_circle,go,,,,go-1,1,,,,,,
2,625.0,14,phase_2,green_circle,go,,,,go-1,1,,,,,,
2,580.0,14,phase_2,purple_circle,go,,,,go-2,1,,,,,,
1,558.0,14,phase_2,purple_pentagon,go,,,,go-2,1,,,,,,
2,742.0,14,phase_2,purple_circle,go,,,,go-2,1,,,,,,
0,0,14,phase_2,purple_pentagon,stop,blue,0.0,0-SSD,go-2,4,,,,,,
0,0,14,phase_2,green_triangle,stop,red,300.0,tracking-SSD,go-1,4,,,,,,
1,559.0,14,phase_2,green_triangle,stop,red,350.0,tracking-SSD,go-1,3,,,,,,
1,515.0,14,phase_2,green_triangle,go,,,,go-1,1,,,,,,
2,447.0,14,phase_2,purple_circle,stop,red,300.0,tracking-SSD,go-2,3,,,,,,
0,0,14,phase_2,green_pentagon,stop,red,250.0,tracking-SSD,go-1,4,,,,,,
0,0,14,phase_2,purple_rhombus,stop,blue,0.0,0-SSD,go-2,4,,,,,,
1,663.0,14,phase_2,purple_pentagon,go,,,,go-2,1,,,,,,
2,619.0,14,phase_2,purple_circle,go,,,,go-2,1,,,,,,
2,806.0,14,phase_2,green_rhombus,go,,,,go-1,1,,,,,,
2,521.0,14,phase_2,green_circle,go,,,,go-1,1,,,,,,
1,525.0,14,phase_2,purple_pentagon,go,,,,go-2,1,,,,,,
2,582.0,14,phase_2,green_rhombus,go,,,,go-1,1,,,,,,
2,515.0,14,phase_2,green_rhombus,go,,,,go-1,1,,,,,,
2,535.0,14,phase_2,green_circle,go,,,,go-1,1,,,,,,
2,458.0,14,phase_2,green_circle,go,,,,go-1,1,,,,,,
0,0,14,phase_2,purple_triangle,stop,blue,0.0,0-SSD,go-2,4,,,,,,
2,631.0,14,phase_2,purple_rhombus,go,,,,go-2,1,,,,,,
2,644.0,14,phase_2,purple_rhombus,go,,,,go-2,1,,,,,,
0,0,14,phase_2,green_pentagon,stop,blue,0.0,0-SSD,go-1,4,,,,,,
1,609.0,14,phase_2,green_triangle,go,,,,go-1,1,,,,,,
0,0,14,phase_2,purple_pentagon,stop,red,300.0,tracking-SSD,go-2,4,,,,,,
1,576.0,14,phase_2,purple_triangle,go,,,,go-2,1,,,,,,
1,715.0,14,phase_2,purple_pentagon,go,,,,go-2,1,,,,,,
2,598.0,14,phase_2,green_rhombus,go,,,,go-1,1,,,,,,
2,576.0,14,phase_2,green_rhombus,go,,,,go-1,1,,,,,,
1,628.0,14,phase_2,green_triangle,go,,,,go-1,1,,,,,,
0,0,14,phase_2,green_pentagon,stop,blue,0.0,0-SSD,go-1,4,,,,,,
0,0,14,phase_2,green_circle,stop,blue,0.0,0-SSD,go-1,4,,,,,,
2,675.0,14,phase_2,green_circle,go,,,,go-1,1,,,,,,
1,614.0,15,phase_2,purple_pentagon,go,,,,go-2,1,,,,,,
2,471.0,15,phase_2,green_circle,go,,,,go-1,1,,,,,,
1,580.0,15,phase_2,purple_triangle,go,,,,go-2,1,,,,,,
2,534.0,15,phase_2,green_circle,go,,,,go-1,1,,,,,,
1,560.0,15,phase_2,purple_pentagon,stop,red,350.0,tracking-SSD,go-2,3,,,,,,
0,0,15,phase_2,purple_pentagon,stop,blue,0.0,0-SSD,go-2,4,,,,,,
2,589.0,15,phase_2,purple_rhombus,go,,,,go-2,1,,,,,,
1,585.0,15,phase_2,purple_pentagon,go,,,,go-2,1,,,,,,
0,0,15,phase_2,purple_triangle,stop,blue,0.0,0-SSD,go-2,4,,,,,,
2,573.0,15,phase_2,purple_circle,go,,,,go-2,1,,,,,,
0,0,15,phase_2,green_rhombus,stop,red,300.0,tracking-SSD,go-1,4,,,,,,
2,604.0,15,phase_2,green_rhombus,go,,,,go-1,1,,,,,,
2,532.0,15,phase_2,purple_circle,go,,,,go-2,1,,,,,,
1,542.0,15,phase_2,purple_triangle,go,,,,go-2,1,,,,,,
1,929.0,15,phase_2,purple_pentagon,go,,,,go-2,1,,,,,,
2,429.0,15,phase_2,green_triangle,go,,,,go-1,2,,,,,,
2,552.0,15,phase_2,purple_rhombus,stop,red,350.0,tracking-SSD,go-2,3,,,,,,
2,564.0,15,phase_2,purple_rhombus,go,,,,go-2,1,,,,,,
2,596.0,15,phase_2,purple_circle,go,,,,go-2,1,,,,,,
1,592.0,15,phase_2,green_pentagon,go,,,,go-1,1,,,,,,
2,540.0,15,phase_2,purple_circle,go,,,,go-2,1,,,,,,
2,598.0,15,phase_2,green_rhombus,go,,,,go-1,1,,,,,,
0,0,15,phase_2,purple_triangle,stop,blue,0.0,0-SSD,go-2,4,,,,,,
1,571.0,15,phase_2,green_pentagon,stop,red,300.0,tracking-SSD,go-1,3,,,,,,
1,584.0,15,phase_2,purple_triangle,go,,,,go-2,1,,,,,,
2,604.0,15,phase_2,green_rhombus,go,,,,go-1,1,,,,,,
0,0,15,phase_2,purple_circle,stop,red,250.0,tracking-SSD,go-2,4,,,,,,
2,584.0,15,phase_2,purple_circle,go,,,,go-2,1,,,,,,
1,629.0,15,phase_2,green_pentagon,go,,,,go-1,1,,,,,,
0,0,15,phase_2,green_circle,stop,blue,0.0,0-SSD,go-1,4,,,,,,
2,627.0,15,phase_2,green_rhombus,go,,,,go-1,1,,,,,,
2,512.0,15,phase_2,green_circle,go,,,,go-1,1,,,,,,
0,0,15,phase_2,purple_triangle,stop,blue,0.0,0-SSD,go-2,4,,,,,,
2,581.0,15,phase_2,purple_rhombus,go,,,,go-2,1,,,,,,
2,496.0,15,phase_2,green_circle,go,,,,go-1,1,,,,,,
2,601.0,15,phase_2,purple_rhombus,stop,red,300.0,tracking-SSD,go-2,3,,,,,,
2,534.0,15,phase_2,green_rhombus,go,,,,go-1,1,,,,,,
1,441.0,15,phase_2,green_triangle,go,,,,go-1,1,,,,,,
0,0,15,phase_2,green_rhombus,stop,blue,0.0,0-SSD,go-1,4,,,,,,
1,702.0,15,phase_2,green_triangle,go,,,,go-1,1,,,,,,
1,581.0,15,phase_2,purple_pentagon,go,,,,go-2,1,,,,,,
0,0,15,phase_2,green_circle,stop,red,250.0,tracking-SSD,go-1,4,,,,,,
1,560.0,15,phase_2,green_triangle,go,,,,go-1,1,,,,,,
1,556.0,15,phase_2,green_pentagon,go,,,,go-1,1,,,,,,
1,488.0,15,phase_2,green_pentagon,stop,red,300.0,tracking-SSD,go-1,3,,,,,,
0,0,15,phase_2,green_triangle,stop,blue,0.0,0-SSD,go-1,4,,,,,,
0,0,15,phase_2,green_pentagon,stop,blue,0.0,0-SSD,go-1,4,,,,,,
1,738.0,15,phase_2,purple_triangle,go,,,,go-2,1,,,,,,
2,741.0,16,phase_2,purple_rhombus,go,,,,go-2,1,,,,,,
2,576.0,16,phase_2,purple_circle,stop,red,250.0,tracking-SSD,go-2,3,,,,,,
1,603.0,16,phase_2,purple_triangle,go,,,,go-2,1,,,,,,
1,684.0,16,phase_2,purple_pentagon,go,,,,go-2,1,,,,,,
2,665.0,16,phase_2,purple_rhombus,go,,,,go-2,1,,,,,,
1,669.0,16,phase_2,green_pentagon,go,,,,go-1,1,,,,,,
1,616.0,16,phase_2,purple_pentagon,go,,,,go-2,1,,,,,,
0,0,16,phase_2,purple_triangle,stop,blue,0.0,0-SSD,go-2,4,,,,,,
1,646.0,16,phase_2,purple_triangle,go,,,,go-2,1,,,,,,
0,0,16,phase_2,green_rhombus,stop,red,200.0,tracking-SSD,go-1,4,,,,,,
2,523.0,16,phase_2,green_circle,go,,,,go-1,1,,,,,,
0,0,16,phase_2,purple_rhombus,stop,red,250.0,tracking-SSD,go-2,4,,,,,,
2,587.0,16,phase_2,purple_circle,go,,,,go-2,1,,,,,,
2,448.0,16,phase_2,purple_circle,go,,,,go-2,1,,,,,,
1,618.0,16,phase_2,green_pentagon,go,,,,go-1,1,,,,,,
1,489.0,16,phase_2,green_pentagon,go,,,,go-1,1,,,,,,
1,610.0,16,phase_2,green_triangle,go,,,,go-1,1,,,,,,
2,568.0,16,phase_2,purple_circle,go,,,,go-2,1,,,,,,
0,0,16,phase_2,purple_triangle,stop,red,300.0,tracking-SSD,go-2,4,,,,,,
0,0,16,phase_2,purple_triangle,stop,blue,0.0,0-SSD,go-2,4,,,,,,
0,0,16,phase_2,purple_pentagon,stop,blue,0.0,0-SSD,go-2,4,,,,,,
1,667.0,16,phase_2,green_triangle,go,,,,go-1,1,,,,,,
1,535.0,16,phase_2,green_pentagon,go,,,,go-1,1,,,,,,
2,578.0,16,phase_2,purple_rhombus,go,,,,go-2,1,,,,,,
2,549.0,16,phase_2,green_circle,go,,,,go-1,1,,,,,,
2,546.0,16,phase_2,green_circle,go,,,,go-1,1,,,,,,
0,0,16,phase_2,green_pentagon,stop,blue,0.0,0-SSD,go-1,4,,,,,,
2,607.0,16,phase_2,green_rhombus,go,,,,go-1,1,,,,,,
1,515.0,16,phase_2,purple_pentagon,stop,red,350.0,tracking-SSD,go-2,3,,,,,,
2,501.0,16,phase_2,purple_rhombus,go,,,,go-2,1,,,,,,
0,0,16,phase_2,green_circle,stop,blue,0.0,0-SSD,go-1,4,,,,,,
2,588.0,16,phase_2,purple_rhombus,go,,,,go-2,1,,,,,,
2,472.0,16,phase_2,green_circle,go,,,,go-1,1,,,,,,
1,528.0,16,phase_2,green_triangle,stop,red,300.0,tracking-SSD,go-1,3,,,,,,
2,532.0,16,phase_2,purple_circle,go,,,,go-2,1,,,,,,
2,496.0,16,phase_2,purple_circle,go,,,,go-2,1,,,,,,
0,0,16,phase_2,green_pentagon,stop,blue,0.0,0-SSD,go-1,4,,,,,,
2,610.0,16,phase_2,green_circle,go,,,,go-1,1,,,,,,
2,583.0,16,phase_2,green_rhombus,go,,,,go-1,1,,,,,,
0,0,16,phase_2,green_triangle,stop,blue,0.0,0-SSD,go-1,4,,,,,,
1,716.0,16,phase_2,purple_triangle,go,,,,go-2,1,,,,,,
2,542.0,16,phase_2,purple_rhombus,go,,,,go-2,1,,,,,,
1,569.0,16,phase_2,green_triangle,go,,,,go-1,1,,,,,,
0,0,16,phase_2,green_pentagon,stop,red,250.0,tracking-SSD,go-1,4,,,,,,
1,551.0,16,phase_2,green_triangle,go,,,,go-1,1,,,,,,
1,530.0,16,phase_2,green_pentagon,stop,red,300.0,tracking-SSD,go-1,3,,,,,,
2,558.0,16,phase_2,green_rhombus,go,,,,go-1,1,,,,,,
0,0,16,phase_2,purple_rhombus,stop,blue,0.0,0-SSD,go-2,4,,,,,,
0,0,17,phase_2,green_circle,stop,blue,0.0,0-SSD,go-1,4,,,,,,
1,543.0,17,phase_2,green_triangle,go,,,,go-1,1,,,,,,
2,547.0,17,phase_2,purple_circle,go,,,,go-2,1,,,,,,
0,0,17,phase_2,green_circle,stop,red,250.0,tracking-SSD,go-1,4,,,,,,
0,0,17,phase_2,purple_pentagon,stop,red,300.0,tracking-SSD,go-2,4,,,,,,
2,627.0,17,phase_2,green_rhombus,stop,red,350.0,tracking-SSD,go-1,3,,,,,,
2,559.0,17,phase_2,purple_circle,go,,,,go-2,1,,,,,,
0,0,17,phase_2,purple_triangle,stop,blue,0.0,0-SSD,go-2,4,,,,,,
1,633.0,17,phase_2,purple_triangle,go,,,,go-2,1,,,,,,
1,572.0,17,phase_2,green_pentagon,go,,,,go-1,1,,,,,,
1,652.0,17,phase_2,purple_triangle,go,,,,go-2,1,,,,,,
2,554.0,17,phase_2,green_rhombus,go,,,,go-1,1,,,,,,
1,589.0,17,phase_2,purple_pentagon,go,,,,go-2,1,,,,,,
2,552.0,17,phase_2,green_circle,go,,,,go-1,1,,,,,,
0,0,17,phase_2,purple_circle,stop,blue,0.0,0-SSD,go-2,4,,,,,,
1,580.0,17,phase_2,green_triangle,go,,,,go-1,1,,,,,,
1,599.0,17,phase_2,purple_pentagon,go,,,,go-2,1,,,,,,
2,691.0,17,phase_2,purple_rhombus,go,,,,go-2,1,,,,,,
2,526.0,17,phase_2,purple_rhombus,go,,,,go-2,1,,,,,,
2,575.0,17,phase_2,green_circle,go,,,,go-1,1,,,,,,
0,0,17,phase_2,purple_pentagon,stop,blue,0.0,0-SSD,go-2,4,,,,,,
2,558.0,17,phase_2,purple_circle,go,,,,go-2,1,,,,,,
1,528.0,17,phase_2,purple_triangle,go,,,,go-2,1,,,,,,
1,602.0,17,phase_2,green_pentagon,go,,,,go-1,1,,,,,,
1,534.0,17,phase_2,green_pentagon,go,,,,go-1,1,,,,,,
0,0,17,phase_2,purple_pentagon,stop,red,300.0,tracking-SSD,go-2,4,,,,,,
0,0,17,phase_2,green_rhombus,stop,blue,0.0,0-SSD,go-1,4,,,,,,
1,618.0,17,phase_2,green_pentagon,go,,,,go-1,1,,,,,,
0,0,17,phase_2,purple_circle,stop,blue,0.0,0-SSD,go-2,4,,,,,,
1,550.0,17,phase_2,purple_triangle,go,,,,go-2,1,,,,,,
2,569.0,17,phase_2,green_rhombus,go,,,,go-1,1,,,,,,
0,0,17,phase_2,green_triangle,stop,blue,0.0,0-SSD,go-1,4,,,,,,
1,774.0,17,phase_2,green_triangle,go,,,,go-1,1,,,,,,
2,580.0,17,phase_2,green_circle,go,,,,go-1,1,,,,,,
2,526.0,17,phase_2,purple_rhombus,go,,,,go-2,1,,,,,,
0,0,17,phase_2,green_rhombus,stop,blue,0.0,0-SSD,go-1,4,,,,,,
1,579.0,17,phase_2,purple_pentagon,stop,red,350.0,tracking-SSD,go-2,3,,,,,,
1,495.0,17,phase_2,purple_triangle,go,,,,go-2,1,,,,,,
1,523.0,17,phase_2,purple_pentagon,go,,,,go-2,1,,,,,,
1,525.0,17,phase_2,green_pentagon,go,,,,go-1,1,,,,,,
2,608.0,17,phase_2,purple_rhombus,go,,,,go-2,1,,,,,,
0,0,17,phase_2,green_rhombus,stop,red,300.0,tracking-SSD,go-1,4,,,,,,
1,679.0,17,phase_2,purple_triangle,go,,,,go-2,1,,,,,,
2,610.0,17,phase_2,green_rhombus,go,,,,go-1,1,,,,,,
1,603.0,17,phase_2,green_triangle,go,,,,go-1,1,,,,,,
2,545.0,17,phase_2,green_circle,go,,,,go-1,1,,,,,,
2,564.0,17,phase_2,purple_rhombus,stop,red,350.0,tracking-SSD,go-2,3,,,,,,
2,494.0,17,phase_2,green_circle,stop,red,300.0,tracking-SSD,go-1,3,,,,,,
,843.0,1,phase_3,,,,,,,,purple_square,go-2,green_square,go-1,purple_square,go-2
,877.0,1,phase_3,,,,,,,,purple_square,go-2,purple_square,go-2,red_square,tracking-SSD
,978.0,1,phase_3,,,,,,,,blue_square,0-SSD,blue_square,0-SSD,red_square,tracking-SSD
,764.0,1,phase_3,,,,,,,,blue_square,0-SSD,green_square,go-1,blue_square,0-SSD
,901.0,1,phase_3,,,,,,,,green_square,go-1,green_square,go-1,red_square,tracking-SSD
,1546.0,1,phase_3,,,,,,,,purple_square,go-2,purple_square,go-2,blue_square,0-SSD
,1152.0,1,phase_3,,,,,,,,green_square,go-1,red_square,tracking-SSD,green_square,go-1
,612.0,1,phase_3,,,,,,,,blue_square,0-SSD,blue_square,0-SSD,green_square,go-1
,753.0,1,phase_3,,,,,,,,blue_square,0-SSD,red_square,tracking-SSD,blue_square,0-SSD
,853.0,1,phase_3,,,,,,,,purple_square,go-2,red_square,tracking-SSD,purple_square,go-2
,570.0,1,phase_3,,,,,,,,purple_square,go-2,purple_square,go-2,green_square,go-1
,679.0,1,phase_3,,,,,,,,purple_square,go-2,blue_square,0-SSD,purple_square,go-2
,1143.0,2,phase_3,,,,,,,,green_square,go-1,green_square,go-1,red_square,tracking-SSD
,773.0,2,phase_3,,,,,,,,purple_square,go-2,purple_square,go-2,red_square,tracking-SSD
,946.0,2,phase_3,,,,,,,,blue_square,0-SSD,green_square,go-1,blue_square,0-SSD
,713.0,2,phase_3,,,,,,,,green_square,go-1,green_square,go-1,purple_square,go-2
,740.0,2,phase_3,,,,,,,,blue_square,0-SSD,blue_square,0-SSD,red_square,tracking-SSD
,1039.0,2,phase_3,,,,,,,,purple_square,go-2,purple_square,go-2,blue_square,0-SSD
,782.0,2,phase_3,,,,,,,,purple_square,go-2,red_square,tracking-SSD,purple_square,go-2
,924.0,2,phase_3,,,,,,,,blue_square,0-SSD,red_square,tracking-SSD,blue_square,0-SSD
,717.0,2,phase_3,,,,,,,,green_square,go-1,red_square,tracking-SSD,green_square,go-1
,725.0,2,phase_3,,,,,,,,purple_square,go-2,purple_square,go-2,green_square,go-1
,1162.0,2,phase_3,,,,,,,,purple_square,go-2,blue_square,0-SSD,purple_square,go-2
,631.0,2,phase_3,,,,,,,,blue_square,0-SSD,blue_square,0-SSD,green_square,go-1
,1311.0,3,phase_3,,,,,,,,green_square,go-1,green_square,go-1,red_square,tracking-SSD
,657.0,3,phase_3,,,,,,,,purple_square,go-2,purple_square,go-2,blue_square,0-SSD
,934.0,3,phase_3,,,,,,,,purple_square,go-2,green_square,go-1,purple_square,go-2
,579.0,3,phase_3,,,,,,,,blue_square,0-SSD,blue_square,0-SSD,red_square,tracking-SSD
,1050.0,3,phase_3,,,,,,,,blue_square,0-SSD,green_square,go-1,blue_square,0-SSD
,524.0,3,phase_3,,,,,,,,purple_square,go-2,purple_square,go-2,red_square,tracking-SSD
,529.0,3,phase_3,,,,,,,,purple_square,go-2,red_square,tracking-SSD,purple_square,go-2
,556.0,3,phase_3,,,,,,,,blue_square,0-SSD,blue_square,0-SSD,purple_square,go-2
,674.0,3,phase_3,,,,,,,,purple_square,go-2,purple_square,go-2,green_square,go-1
,886.0,3,phase_3,,,,,,,,blue_square,0-SSD,red_square,tracking-SSD,blue_square,0-SSD
,844.0,3,phase_3,,,,,,,,blue_square,0-SSD,blue_square,0-SSD,green_square,go-1
,699.0,3,phase_3,,,,,,,,green_square,go-1,red_square,tracking-SSD,green_square,go-1
,598.0,4,phase_3,,,,,,,,purple_square,go-2,purple_square,go-2,blue_square,0-SSD
,578.0,4,phase_3,,,,,,,,purple_square,go-2,green_square,go-1,purple_square,go-2
,710.0,4,phase_3,,,,,,,,blue_square,0-SSD,green_square,go-1,blue_square,0-SSD
,715.0,4,phase_3,,,,,,,,green_square,go-1,green_square,go-1,red_square,tracking-SSD
,1234.0,4,phase_3,,,,,,,,blue_square,0-SSD,blue_square,0-SSD,red_square,tracking-SSD
,663.0,4,phase_3,,,,,,,,purple_square,go-2,purple_square,go-2,red_square,tracking-SSD
,1154.0,4,phase_3,,,,,,,,blue_square,0-SSD,blue_square,0-SSD,green_square,go-1
,635.0,4,phase_3,,,,,,,,green_square,go-1,red_square,tracking-SSD,green_square,go-1
,583.0,4,phase_3,,,,,,,,purple_square,go-2,red_square,tracking-SSD,purple_square,go-2
,634.0,4,phase_3,,,,,,,,blue_square,0-SSD,blue_square,0-SSD,purple_square,go-2
,623.0,4,phase_3,,,,,,,,purple_square,go-2,purple_square,go-2,green_square,go-1
,614.0,4,phase_3,,,,,,,,blue_square,0-SSD,red_square,tracking-SSD,blue_square,0-SSD
,1008.0,5,phase_3,,,,,,,,green_square,go-1,green_square,go-1,red_square,tracking-SSD
,731.0,5,phase_3,,,,,,,,blue_square,0-SSD,blue_square,0-SSD,red_square,tracking-SSD
,701.0,5,phase_3,,,,,,,,purple_square,go-2,purple_square,go-2,blue_square,0-SSD
,1085.0,5,phase_3,,,,,,,,purple_square,go-2,green_square,go-1,purple_square,go-2
,650.0,5,phase_3,,,,,,,,purple_square,go-2,purple_square,go-2,red_square,tracking-SSD
,971.0,5,phase_3,,,,,,,,blue_square,0-SSD,green_square,go-1,blue_square,0-SSD
,778.0,5,phase_3,,,,,,,,purple_square,go-2,blue_square,0-SSD,purple_square,go-2
,527.0,5,phase_3,,,,,,,,purple_square,go-2,purple_square,go-2,green_square,go-1
,780.0,5,phase_3,,,,,,,,green_square,go-1,red_square,tracking-SSD,green_square,go-1
,554.0,5,phase_3,,,,,,,,purple_square,go-2,red_square,tracking-SSD,purple_square,go-2
,600.0,5,phase_3,,,,,,,,blue_square,0-SSD,blue_square,0-SSD,green_square,go-1
,501.0,5,phase_3,,,,,,,,blue_square,0-SSD,red_square,tracking-SSD,blue_square,0-SSD
