response,reaction_time,block,which_phase,stim,stop_signal_trial_type,stop_signal_stimulus,SSD,SSD_type,condition,accuracy,chosen_stim,chosen_cond,stim_left,cond_left,stim_right,cond_right
0,0,1,phase_2,purple_rhombus,stop,red,0.0,0-SSD,go-1,4,,,,,,
1,496.0,1,phase_2,purple_circle,go,,,,go-1,1,,,,,,
2,731.0,1,phase_2,purple_rhombus,go,,,,go-1,1,,,,,,
2,481.0,1,phase_2,blue_triangle,go,,,,go-2,1,,,,,,
2,748.0,1,phase_2,purple_rhombus,go,,,,go-1,1,,,,,,
2,476.0,1,phase_2,purple_rhombus,go,,,,go-1,1,,,,,,
0,0,1,phase_2,blue_rhombus,stop,red,0.0,0-SSD,go-2,4,,,,,,
1,594.0,1,phase_2,blue_circle,go,,,,go-2,1,,,,,,
1,614.0,1,phase_2,blue_pentagon,stop,green,250.0,tracking-SSD,go-2,3,,,,,,
2,466.0,1,phase_2,blue_triangle,go,,,,go-2,1,,,,,,
1,542.0,1,phase_2,blue_pentagon,go,,,,go-2,1,,,,,,
2,596.0,1,phase_2,purple_rhombus,go,,,,go-1,1,,,,,,
0,0,1,phase_2,blue_circle,stop,red,0.0,0-SSD,go-2,4,,,,,,
0,0,1,phase_2,purple_rhombus,stop,red,0.0,0-SSD,go-1,4,,,,,,
1,648.0,1,phase_2,blue_circle,go,,,,go-2,1,,,,,,
2,667.0,1,phase_2,blue_rhombus,go,,,,go-2,1,,,,,,
1,664.0,1,phase_2,purple_circle,go,,,,go-1,1,,,,,,
2,673.0,1,phase_2,purple_rhombus,go,,,,go-1,1,,,,,,
0,0,1,phase_2,blue_triangle,stop,red,0.0,0-SSD,go-2,4,,,,,,
2,511.0,1,phase_2,purple_triangle,go,,,,go-1,1,,,,,,
2,507.0,1,phase_2,purple_triangle,go,,,,go-1,1,,,,,,
0,0,1,phase_2,purple_triangle,stop,green,200.0,tracking-SSD,go-1,4,,,,,,
0,0,1,phase_2,purple_pentagon,stop,red,0.0,0-SSD,go-1,4,,,,,,
0,0,1,phase_2,blue_rhombus,stop,green,250.0,tracking-SSD,go-2,4,,,,,,
1,554.0,1,phase_2,blue_circle,go,,,,go-2,1,,,,,,
2,506.0,1,phase_2,blue_triangle,go,,,,go-2,1,,,,,,
2,617.0,1,phase_2,purple_triangle,go,,,,go-1,1,,,,,,
1,670.0,1,phase_2,blue_pentagon,go,,,,go-2,1,,,,,,
1,634.0,1,phase_2,purple_circle,go,,,,go-1,1,,,,,,
1,655.0,1,phase_2,purple_pentagon,go,,,,go-1,1,,,,,,
1,732.0,1,phase_2,purple_circle,go,,,,go-1,1,,,,,,
0,0,1,phase_2,blue_pentagon,stop,red,0.0,0-SSD,go-2,4,,,,,,
1,581.0,1,phase_2,blue_rhombus,go,,,,go-2,2,,,,,,
2,681.0,1,phase_2,purple_triangle,go,,,,go-1,1,,,,,,
0,0,1,phase_2,purple_circle,stop,green,300.0,tracking-SSD,go-1,4,,,,,,
2,564.0,1,phase_2,blue_triangle,go,,,,go-2,1,,,,,,
0,0,1,phase_2,purple_circle,stop,red,0.0,0-SSD,go-1,4,,,,,,
1,684.0,1,phase_2,purple_pentagon,go,,,,go-1,1,,,,,,
2,525.0,1,phase_2,blue_triangle,go,,,,go-2,1,,,,,,
0,0,1,phase_2,purple_circle,stop,green,350.0,tracking-SSD,go-1,4,,,,,,
1,654.0,1,phase_2,purple_circle,go,,,,go-1,1,,,,,,
2,640.0,1,phase_2,blue_rhombus,go,,,,go-2,1,,,,,,
0,0,1,phase_2,blue_pentagon,stop,green,400.0,tracking-SSD,go-2,4,,,,,,
1,669.0,1,phase_2,blue_pentagon,go,,,,go-2,1,,,,,,
0,0,1,phase_2,purple_triangle,stop,green,450.0,tracking-SSD,go-1,4,,,,,,
1,664.0,1,phase_2,blue_pentagon,stop,green,500.0,tracking-SSD,go-2,3,,,,,,
1,741.0,1,phase_2,blue_pentagon,go,,,,go-2,1,,,,,,
1,874.0,1,phase_2,blue_pentagon,go,,,,go-2,1,,,,,,
0,0,2,phase_2,purple_triangle,stop,red,0.0,0-SSD,go-1,4,,,,,,
2,643.0,2,phase_2,purple_rhombus,go,,,,go-1,1,,,,,,
1,799.0,2,phase_2,blue_pentagon,go,,,,go-2,1,,,,,,
1,593.0,2,phase_2,blue_circle,go,,,,go-2,1,,,,,,
0,0,2,phase_2,purple_pentagon,stop,red,0.0,0-SSD,go-1,4,,,,,,
1,588.0,2,phase_2,blue_circle,go,,,,go-2,1,,,,,,
1,665.0,2,phase_2,blue_circle,go,,,,go-2,1,,,,,,
1,708.0,2,phase_2,purple_circle,go,,,,go-1,1,,,,,,
1,628.0,2,phase_2,blue_pentagon,go,,,,go-2,1,,,,,,
1,716.0,2,phase_2,purple_circle,go,,,,go-1,1,,,,,,
1,668.0,2,phase_2,blue_circle,go,,,,go-2,1,,,,,,
2,722.0,2,phase_2,blue_rhombus,go,,,,go-2,1,,,,,,
2,664.0,2,phase_2,blue_triangle,go,,,,go-2,1,,,,,,
0,0,2,phase_2,purple_rhombus,stop,red,0.0,0-SSD,go-1,4,,,,,,
2,592.0,2,phase_2,purple_triangle,stop,green,450.0,tracking-SSD,go-1,3,,,,,,
2,657.0,2,phase_2,purple_triangle,stop,green,400.0,tracking-SSD,go-1,3,,,,,,
0,0,2,phase_2,blue_circle,stop,red,0.0,0-SSD,go-2,4,,,,,,
1,687.0,2,phase_2,purple_circle,go,,,,go-1,1,,,,,,
1,786.0,2,phase_2,purple_pentagon,go,,,,go-1,1,,,,,,
1,738.0,2,phase_2,purple_pentagon,go,,,,go-1,1,,,,,,
2,701.0,2,phase_2,purple_triangle,go,,,,go-1,1,,,,,,
0,0,2,phase_2,blue_rhombus,stop,green,350.0,tracking-SSD,go-2,4,,,,,,
2,719.0,2,phase_2,blue_rhombus,go,,,,go-2,1,,,,,,
2,695.0,2,phase_2,purple_triangle,go,,,,go-1,1,,,,,,
0,0,2,phase_2,blue_rhombus,stop,red,0.0,0-SSD,go-2,4,,,,,,
0,0,2,phase_2,purple_triangle,stop,red,0.0,0-SSD,go-1,4,,,,,,
1,732.0,2,phase_2,purple_pentagon,go,,,,go-1,1,,,,,,
2,730.0,2,phase_2,blue_triangle,go,,,,go-2,1,,,,,,
0,0,2,phase_2,blue_rhombus,stop,red,0.0,0-SSD,go-2,4,,,,,,
0,0,2,phase_2,purple_rhombus,stop,green,400.0,tracking-SSD,go-1,4,,,,,,
2,656.0,2,phase_2,purple_triangle,go,,,,go-1,1,,,,,,
1,779.0,2,phase_2,blue_pentagon,go,,,,go-2,1,,,,,,
1,798.0,2,phase_2,blue_circle,go,,,,go-2,1,,,,,,
2,885.0,2,phase_2,blue_rhombus,stop,green,450.0,tracking-SSD,go-2,3,,,,,,
0,0,2,phase_2,blue_circle,stop,red,0.0,0-SSD,go-2,4,,,,,,
0,0,2,phase_2,blue_pentagon,stop,green,400.0,tracking-SSD,go-2,4,,,,,,
1,732.0,2,phase_2,blue_circle,go,,,,go-2,1,,,,,,
1,797.0,2,phase_2,blue_circle,go,,,,go-2,1,,,,,,
1,750.0,2,phase_2,blue_pentagon,go,,,,go-2,1,,,,,,
2,724.0,2,phase_2,purple_triangle,go,,,,go-1,1,,,,,,
1,790.0,2,phase_2,purple_pentagon,go,,,,go-1,1,,,,,,
1,688.0,2,phase_2,blue_pentagon,go,,,,go-2,1,,,,,,
2,923.0,2,phase_2,purple_rhombus,go,,,,go-1,1,,,,,,
1,695.0,2,phase_2,purple_pentagon,go,,,,go-1,1,,,,,,
0,0,2,phase_2,blue_triangle,stop,green,450.0,tracking-SSD,go-2,4,,,,,,
2,749.0,2,phase_2,purple_rhombus,go,,,,go-1,1,,,,,,
0,0,2,phase_2,purple_triangle,stop,green,500.0,tracking-SSD,go-1,4,,,,,,
2,901.0,2,phase_2,purple_rhombus,go,,,,go-1,1,,,,,,
1,690.0,3,phase_2,purple_circle,go,,,,go-1,1,,,,,,
1,822.0,3,phase_2,purple_rhombus,go,,,,go-1,2,,,,,,
2,663.0,3,phase_2,blue_triangle,go,,,,go-2,1,,,,,,
0,0,3,phase_2,blue_triangle,stop,green,550.0,tracking-SSD,go-2,4,,,,,,
0,0,3,phase_2,purple_rhombus,stop,red,0.0,0-SSD,go-1,4,,,,,,
1,725.0,3,phase_2,blue_circle,go,,,,go-2,1,,,,,,
2,723.0,3,phase_2,blue_triangle,go,,,,go-2,1,,,,,,
1,766.0,3,phase_2,blue_pentagon,go,,,,go-2,1,,,,,,
2,899.0,3,phase_2,purple_rhombus,go,,,,go-1,1,,,,,,
0,0,3,phase_2,blue_rhombus,stop,red,0.0,0-SSD,go-2,4,,,,,,
1,816.0,3,phase_2,purple_circle,go,,,,go-1,1,,,,,,
1,723.0,3,phase_2,purple_pentagon,go,,,,go-1,1,,,,,,
2,664.0,3,phase_2,blue_triangle,stop,green,600.0,tracking-SSD,go-2,3,,,,,,
0,0,3,phase_2,purple_circle,stop,green,550.0,tracking-SSD,go-1,4,,,,,,
2,718.0,3,phase_2,blue_rhombus,go,,,,go-2,1,,,,,,
1,683.0,3,phase_2,blue_pentagon,stop,green,600.0,tracking-SSD,go-2,3,,,,,,
1,770.0,3,phase_2,blue_pentagon,go,,,,go-2,1,,,,,,
0,0,3,phase_2,blue_rhombus,stop,green,550.0,tracking-SSD,go-2,4,,,,,,
1,767.0,3,phase_2,blue_pentagon,go,,,,go-2,1,,,,,,
1,900.0,3,phase_2,purple_circle,go,,,,go-1,1,,,,,,
1,695.0,3,phase_2,purple_pentagon,go,,,,go-1,1,,,,,,
1,839.0,3,phase_2,blue_circle,go,,,,go-2,1,,,,,,
2,871.0,3,phase_2,purple_rhombus,go,,,,go-1,1,,,,,,
2,768.0,3,phase_2,blue_triangle,go,,,,go-2,1,,,,,,
1,811.0,3,phase_2,purple_pentagon,go,,,,go-1,1,,,,,,
2,809.0,3,phase_2,purple_triangle,stop,green,600.0,tracking-SSD,go-1,3,,,,,,
0,0,3,phase_2,blue_pentagon,stop,red,0.0,0-SSD,go-2,4,,,,,,
1,770.0,3,phase_2,blue_circle,go,,,,go-2,1,,,,,,
1,780.0,3,phase_2,purple_circle,go,,,,go-1,1,,,,,,
0,0,3,phase_2,purple_rhombus,stop,green,550.0,tracking-SSD,go-1,4,,,,,,
2,820.0,3,phase_2,purple_triangle,go,,,,go-1,1,,,,,,
2,806.0,3,phase_2,purple_triangle,go,,,,go-1,1,,,,,,
2,760.0,3,phase_2,blue_rhombus,go,,,,go-2,1,,,,,,
2,960.0,3,phase_2,purple_rhombus,go,,,,go-1,1,,,,,,
1,778.0,3,phase_2,purple_pentagon,go,,,,go-1,1,,,,,,
1,730.0,3,phase_2,blue_pentagon,go,,,,go-2,1,,,,,,
1,749.0,3,phase_2,blue_pentagon,go,,,,go-2,1,,,,,,
2,781.0,3,phase_2,purple_rhombus,go,,,,go-1,1,,,,,,
0,0,3,phase_2,purple_triangle,stop,red,0.0,0-SSD,go-1,4,,,,,,
1,686.0,3,phase_2,blue_circle,go,,,,go-2,1,,,,,,
2,684.0,3,phase_2,blue_triangle,go,,,,go-2,1,,,,,,
0,0,3,phase_2,blue_pentagon,stop,red,0.0,0-SSD,go-2,4,,,,,,
1,791.0,3,phase_2,purple_circle,go,,,,go-1,1,,,,,,
1,733.0,3,phase_2,blue_circle,go,,,,go-2,1,,,,,,
0,0,3,phase_2,blue_circle,stop,red,0.0,0-SSD,go-2,4,,,,,,
0,0,3,phase_2,purple_rhombus,stop,red,0.0,0-SSD,go-1,4,,,,,,
0,0,3,phase_2,purple_triangle,stop,red,0.0,0-SSD,go-1,4,,,,,,
2,657.0,3,phase_2,purple_triangle,stop,green,600.0,tracking-SSD,go-1,3,,,,,,
1,668.0,4,phase_2,purple_circle,go,,,,go-1,1,,,,,,
1,812.0,4,phase_2,purple_pentagon,go,,,,go-1,1,,,,,,
0,0,4,phase_2,blue_rhombus,stop,red,0.0,0-SSD,go-2,4,,,,,,
1,727.0,4,phase_2,blue_circle,go,,,,go-2,1,,,,,,
1,726.0,4,phase_2,purple_pentagon,stop,green,550.0,tracking-SSD,go-1,3,,,,,,
1,792.0,4,phase_2,purple_pentagon,go,,,,go-1,1,,,,,,
1,734.0,4,phase_2,purple_circle,go,,,,go-1,1,,,,,,
2,801.0,4,phase_2,purple_rhombus,go,,,,go-1,1,,,,,,
0,0,4,phase_2,purple_rhombus,stop,red,0.0,0-SSD,go-1,4,,,,,,
2,761.0,4,phase_2,blue_triangle,go,,,,go-2,1,,,,,,
2,703.0,4,phase_2,blue_triangle,stop,green,500.0,tracking-SSD,go-2,3,,,,,,
0,0,4,phase_2,blue_triangle,stop,red,0.0,0-SSD,go-2,4,,,,,,
2,765.0,4,phase_2,blue_pentagon,go,,,,go-2,2,,,,,,
0,0,4,phase_2,purple_pentagon,stop,green,450.0,tracking-SSD,go-1,4,,,,,,
2,728.0,4,phase_2,purple_rhombus,stop,green,500.0,tracking-SSD,go-1,3,,,,,,
1,839.0,4,phase_2,blue_circle,go,,,,go-2,1,,,,,,
0,0,4,phase_2,blue_triangle,stop,green,450.0,tracking-SSD,go-2,4,,,,,,
2,799.0,4,phase_2,purple_rhombus,go,,,,go-1,1,,,,,,
2,674.0,4,phase_2,blue_triangle,stop,green,500.0,tracking-SSD,go-2,3,,,,,,
2,729.0,4,phase_2,purple_triangle,go,,,,go-1,1,,,,,,
0,0,4,phase_2,purple_pentagon,stop,green,450.0,tracking-SSD,go-1,4,,,,,,
2,724.0,4,phase_2,blue_rhombus,go,,,,go-2,1,,,,,,
2,734.0,4,phase_2,blue_rhombus,go,,,,go-2,1,,,,,,
1,641.0,4,phase_2,purple_circle,go,,,,go-1,1,,,,,,
0,0,4,phase_2,blue_circle,stop,green,500.0,tracking-SSD,go-2,4,,,,,,
1,760.0,4,phase_2,blue_circle,go,,,,go-2,1,,,,,,
1,804.0,4,phase_2,purple_pentagon,go,,,,go-1,1,,,,,,
0,0,4,phase_2,purple_triangle,stop,red,0.0,0-SSD,go-1,4,,,,,,
2,765.0,4,phase_2,purple_triangle,go,,,,go-1,1,,,,,,
0,0,4,phase_2,purple_circle,stop,red,0.0,0-SSD,go-1,4,,,,,,
2,738.0,4,phase_2,purple_triangle,go,,,,go-1,1,,,,,,
2,848.0,4,phase_2,blue_triangle,go,,,,go-2,1,,,,,,
2,710.0,4,phase_2,blue_rhombus,go,,,,go-2,1,,,,,,
0,0,4,phase_2,blue_circle,stop,red,0.0,0-SSD,go-2,4,,,,,,
1,796.0,4,phase_2,blue_pentagon,go,,,,go-2,1,,,,,,
1,726.0,4,phase_2,blue_pentagon,go,,,,go-2,1,,,,,,
2,870.0,4,phase_2,purple_rhombus,go,,,,go-1,1,,,,,,
1,768.0,4,phase_2,blue_circle,go,,,,go-2,1,,,,,,
2,789.0,4,phase_2,purple_triangle,go,,,,go-1,1,,,,,,
1,842.0,4,phase_2,purple_pentagon,go,,,,go-1,1,,,,,,
0,0,4,phase_2,blue_rhombus,stop,red,0.0,0-SSD,go-2,4,,,,,,
0,0,4,phase_2,purple_pentagon,stop,red,0.0,0-SSD,go-1,4,,,,,,
1,734.0,4,phase_2,blue_circle,go,,,,go-2,1,,,,,,
2,708.0,4,phase_2,blue_rhombus,go,,,,go-2,1,,,,,,
1,708.0,4,phase_2,purple_circle,go,,,,go-1,1,,,,,,
2,761.0,4,phase_2,blue_rhombus,go,,,,go-2,1,,,,,,
2,737.0,4,phase_2,blue_triangle,go,,,,go-2,1,,,,,,
1,791.0,4,phase_2,purple_pentagon,go,,,,go-1,1,,,,,,
1,736.0,5,phase_2,blue_circle,stop,green,550.0,tracking-SSD,go-2,3,,,,,,
1,654.0,5,phase_2,purple_circle,stop,green,500.0,tracking-SSD,go-1,3,,,,,,
1,664.0,5,phase_2,blue_circle,go,,,,go-2,1,,,,,,
1,706.0,5,phase_2,purple_circle,go,,,,go-1,1,,,,,,
1,749.0,5,phase_2,purple_pentagon,go,,,,go-1,1,,,,,,
2,757.0,5,phase_2,blue_triangle,go,,,,go-2,1,,,,,,
0,0,5,phase_2,blue_pentagon,stop,red,0.0,0-SSD,go-2,4,,,,,,
2,662.0,5,phase_2,blue_triangle,go,,,,go-2,1,,,,,,
1,738.0,5,phase_2,blue_pentagon,go,,,,go-2,1,,,,,,
0,0,5,phase_2,blue_pentagon,stop,green,450.0,tracking-SSD,go-2,4,,,,,,
2,746.0,5,phase_2,purple_rhombus,go,,,,go-1,1,,,,,,
2,765.0,5,phase_2,purple_triangle,go,,,,go-1,1,,,,,,
1,763.0,5,phase_2,purple_pentagon,go,,,,go-1,1,,,,,,
0,0,5,phase_2,blue_rhombus,stop,red,0.0,0-SSD,go-2,4,,,,,,
2,815.0,5,phase_2,blue_rhombus,go,,,,go-2,1,,,,,,
0,0,5,phase_2,purple_triangle,stop,red,0.0,0-SSD,go-1,4,,,,,,
0,0,5,phase_2,purple_rhombus,stop,green,500.0,tracking-SSD,go-1,4,,,,,,
2,719.0,5,phase_2,blue_triangle,go,,,,go-2,1,,,,,,
0,0,5,phase_2,purple_pentagon,stop,red,0.0,0-SSD,go-1,4,,,,,,
1,760.0,5,phase_2,blue_circle,stop,green,550.0,tracking-SSD,go-2,3,,,,,,
2,758.0,5,phase_2,purple_rhombus,stop,green,500.0,tracking-SSD,go-1,3,,,,,,
2,733.0,5,phase_2,purple_triangle,go,,,,go-1,1,,,,,,
0,0,5,phase_2,blue_pentagon,stop,red,0.0,0-SSD,go-2,4,,,,,,
1,808.0,5,phase_2,blue_circle,go,,,,go-2,1,,,,,,
2,704.0,5,phase_2,purple_triangle,go,,,,go-1,1,,,,,,
2,791.0,5,phase_2,purple_triangle,go,,,,go-1,1,,,,,,
2,756.0,5,phase_2,purple_triangle,go,,,,go-1,1,,,,,,
2,777.0,5,phase_2,purple_rhombus,go,,,,go-1,1,,,,,,
1,1011.0,5,phase_2,blue_pentagon,go,,,,go-2,1,,,,,,
1,975.0,5,phase_2,purple_circle,stop,green,450.0,tracking-SSD,go-1,3,,,,,,
0,0,5,phase_2,purple_rhombus,stop,red,0.0,0-SSD,go-1,4,,,,,,
0,0,5,phase_2,blue_rhombus,stop,red,0.0,0-SSD,go-2,4,,,,,,
1,755.0,5,phase_2,blue_pentagon,go,,,,go-2,1,,,,,,
1,1069.0,5,phase_2,purple_circle,go,,,,go-1,1,,,,,,
2,807.0,5,phase_2,blue_rhombus,go,,,,go-2,1,,,,,,
2,759.0,5,phase_2,blue_rhombus,go,,,,go-2,1,,,,,,
2,746.0,5,phase_2,blue_triangle,go,,,,go-2,1,,,,,,
1,767.0,5,phase_2,purple_circle,go,,,,go-1,1,,,,,,
2,844.0,5,phase_2,blue_rhombus,go,,,,go-2,1,,,,,,
1,730.0,5,phase_2,purple_circle,go,,,,go-1,1,,,,,,
2,648.0,5,phase_2,purple_triangle,go,,,,go-1,1,,,,,,
1,725.0,5,phase_2,blue_pentagon,go,,,,go-2,1,,,,,,
0,0,5,phase_2,purple_rhombus,stop,red,0.0,0-SSD,go-1,4,,,,,,
1,710.0,5,phase_2,purple_pentagon,go,,,,go-1,1,,,,,,
1,707.0,5,phase_2,purple_pentagon,go,,,,go-1,1,,,,,,
1,772.0,5,phase_2,blue_circle,go,,,,go-2,1,,,,,,
2,815.0,5,phase_2,blue_triangle,go,,,,go-2,1,,,,,,
0,0,5,phase_2,blue_circle,stop,green,400.0,tracking-SSD,go-2,4,,,,,,
2,690.0,6,phase_2,purple_rhombus,go,,,,go-1,1,,,,,,
1,666.0,6,phase_2,purple_circle,go,,,,go-1,1,,,,,,
0,0,6,phase_2,purple_rhombus,stop,green,450.0,tracking-SSD,go-1,4,,,,,,
2,685.0,6,phase_2,purple_triangle,go,,,,go-1,1,,,,,,
2,716.0,6,phase_2,blue_triangle,go,,,,go-2,1,,,,,,
2,759.0,6,phase_2,purple_triangle,go,,,,go-1,1,,,,,,
0,0,6,phase_2,purple_rhombus,stop,red,0.0,0-SSD,go-1,4,,,,,,
0,0,6,phase_2,purple_triangle,stop,red,0.0,0-SSD,go-1,4,,,,,,
1,763.0,6,phase_2,purple_pentagon,stop,green,500.0,tracking-SSD,go-1,3,,,,,,
0,0,6,phase_2,purple_circle,stop,green,450.0,tracking-SSD,go-1,4,,,,,,
1,849.0,6,phase_2,purple_rhombus,go,,,,go-1,2,,,,,,
0,0,6,phase_2,blue_rhombus,stop,red,0.0,0-SSD,go-2,4,,,,,,
1,755.0,6,phase_2,blue_pentagon,go,,,,go-2,1,,,,,,
1,820.0,6,phase_2,purple_pentagon,go,,,,go-1,1,,,,,,
0,0,6,phase_2,blue_circle,stop,green,500.0,tracking-SSD,go-2,4,,,,,,
1,771.0,6,phase_2,purple_circle,go,,,,go-1,1,,,,,,
1,836.0,6,phase_2,blue_circle,go,,,,go-2,1,,,,,,
0,0,6,phase_2,blue_pentagon,stop,green,550.0,tracking-SSD,go-2,4,,,,,,
0,0,6,phase_2,blue_pentagon,stop,red,0.0,0-SSD,go-2,4,,,,,,
1,819.0,6,phase_2,blue_circle,go,,,,go-2,1,,,,,,
2,682.0,6,phase_2,purple_triangle,go,,,,go-1,1,,,,,,
2,680.0,6,phase_2,purple_triangle,go,,,,go-1,1,,,,,,
2,666.0,6,phase_2,purple_triangle,go,,,,go-1,1,,,,,,
0,0,6,phase_2,blue_rhombus,stop,red,0.0,0-SSD,go-2,4,,,,,,
1,717.0,6,phase_2,purple_circle,go,,,,go-1,1,,,,,,
2,748.0,6,phase_2,blue_rhombus,go,,,,go-2,1,,,,,,
2,757.0,6,phase_2,blue_triangle,go,,,,go-2,1,,,,,,
1,811.0,6,phase_2,blue_pentagon,go,,,,go-2,1,,,,,,
1,820.0,6,phase_2,blue_circle,go,,,,go-2,1,,,,,,
2,784.0,6,phase_2,purple_rhombus,go,,,,go-1,1,,,,,,
2,772.0,6,phase_2,blue_triangle,go,,,,go-2,1,,,,,,
1,746.0,6,phase_2,purple_circle,stop,green,600.0,tracking-SSD,go-1,3,,,,,,
1,969.0,6,phase_2,blue_pentagon,go,,,,go-2,1,,,,,,
2,798.0,6,phase_2,blue_rhombus,go,,,,go-2,1,,,,,,
2,761.0,6,phase_2,purple_rhombus,go,,,,go-1,1,,,,,,
1,749.0,6,phase_2,purple_circle,go,,,,go-1,1,,,,,,
1,768.0,6,phase_2,blue_circle,go,,,,go-2,1,,,,,,
0,0,6,phase_2,purple_pentagon,stop,red,0.0,0-SSD,go-1,4,,,,,,
0,0,6,phase_2,purple_pentagon,stop,red,0.0,0-SSD,go-1,4,,,,,,
2,650.0,6,phase_2,blue_triangle,stop,green,550.0,tracking-SSD,go-2,3,,,,,,
0,0,6,phase_2,blue_pentagon,stop,red,0.0,0-SSD,go-2,4,,,,,,
1,703.0,6,phase_2,blue_circle,go,,,,go-2,1,,,,,,
1,823.0,6,phase_2,blue_pentagon,go,,,,go-2,1,,,,,,
1,820.0,6,phase_2,purple_pentagon,go,,,,go-1,1,,,,,,
2,729.0,6,phase_2,blue_triangle,go,,,,go-2,1,,,,,,
2,850.0,6,phase_2,blue_rhombus,stop,green,500.0,tracking-SSD,go-2,3,,,,,,
2,791.0,6,phase_2,purple_triangle,go,,,,go-1,1,,,,,,
2,722.0,6,phase_2,blue_rhombus,go,,,,go-2,1,,,,,,
2,645.0,7,phase_2,purple_triangle,go,,,,go-1,1,,,,,,
1,756.0,7,phase_2,blue_circle,go,,,,go-2,1,,,,,,
2,753.0,7,phase_2,purple_rhombus,stop,green,450.0,tracking-SSD,go-1,3,,,,,,
1,774.0,7,phase_2,blue_pentagon,go,,,,go-2,1,,,,,,
1,816.0,7,phase_2,purple_pentagon,go,,,,go-1,1,,,,,,
0,0,7,phase_2,purple_pentagon,stop,green,400.0,tracking-SSD,go-1,4,,,,,,
1,712.0,7,phase_2,blue_pentagon,go,,,,go-2,1,,,,,,
0,0,7,phase_2,purple_triangle,stop,red,0.0,0-SSD,go-1,4,,,,,,
2,653.0,7,phase_2,purple_triangle,go,,,,go-1,1,,,,,,
0,0,7,phase_2,blue_pentagon,stop,green,450.0,tracking-SSD,go-2,4,,,,,,
2,738.0,7,phase_2,purple_rhombus,go,,,,go-1,1,,,,,,
0,0,7,phase_2,blue_circle,stop,red,0.0,0-SSD,go-2,4,,,,,,
2,712.0,7,phase_2,purple_rhombus,go,,,,go-1,1,,,,,,
0,0,7,phase_2,blue_triangle,stop,green,500.0,tracking-SSD,go-2,4,,,,,,
2,741.0,7,phase_2,blue_rhombus,go,,,,go-2,1,,,,,,
2,762.0,7,phase_2,purple_rhombus,go,,,,go-1,1,,,,,,
1,783.0,7,phase_2,purple_pentagon,go,,,,go-1,1,,,,,,
2,726.0,7,phase_2,blue_triangle,go,,,,go-2,1,,,,,,
0,0,7,phase_2,blue_pentagon,stop,red,0.0,0-SSD,go-2,4,,,,,,
2,766.0,7,phase_2,purple_rhombus,go,,,,go-1,1,,,,,,
1,788.0,7,phase_2,purple_circle,go,,,,go-1,1,,,,,,
1,819.0,7,phase_2,purple_circle,go,,,,go-1,1,,,,,,
1,816.0,7,phase_2,blue_circle,go,,,,go-2,1,,,,,,
2,870.0,7,phase_2,blue_rhombus,go,,,,go-2,1,,,,,,
1,833.0,7,phase_2,purple_circle,go,,,,go-1,1,,,,,,
0,0,7,phase_2,purple_triangle,stop,green,550.0,tracking-SSD,go-1,4,,,,,,
2,705.0,7,phase_2,purple_rhombus,go,,,,go-1,1,,,,,,
2,794.0,7,phase_2,purple_rhombus,go,,,,go-1,1,,,,,,
0,0,7,phase_2,purple_circle,stop,red,0.0,0-SSD,go-1,4,,,,,,
2,812.0,7,phase_2,blue_triangle,go,,,,go-2,1,,,,,,
2,820.0,7,phase_2,purple_triangle,go,,,,go-1,1,,,,,,
1,965.0,7,phase_2,purple_circle,go,,,,go-1,1,,,,,,
1,795.0,7,phase_2,blue_pentagon,go,,,,go-2,1,,,,,,
1,826.0,7,phase_2,blue_pentagon,go,,,,go-2,1,,,,,,
2,756.0,7,phase_2,purple_rhombus,go,,,,go-1,1,,,,,,
1,788.0,7,phase_2,blue_circle,stop,green,600.0,tracking-SSD,go-2,3,,,,,,
0,0,7,phase_2,blue_pentagon,stop,green,550.0,tracking-SSD,go-2,4,,,,,,
1,716.0,7,phase_2,blue_pentagon,go,,,,go-2,1,,,,,,
0,0,7,phase_2,blue_rhombus,stop,red,0.0,0-SSD,go-2,4,,,,,,
1,834.0,7,phase_2,blue_circle,go,,,,go-2,1,,,,,,
2,798.0,7,phase_2,blue_rhombus,go,,,,go-2,1,,,,,,
1,775.0,7,phase_2,blue_pentagon,go,,,,go-2,1,,,,,,
0,0,7,phase_2,purple_triangle,stop,red,0.0,0-SSD,go-1,4,,,,,,
1,872.0,7,phase_2,purple_circle,stop,green,600.0,tracking-SSD,go-1,3,,,,,,
0,0,7,phase_2,purple_circle,stop,red,0.0,0-SSD,go-1,4,,,,,,
0,0,7,phase_2,blue_triangle,stop,red,0.0,0-SSD,go-2,4,,,,,,
2,808.0,7,phase_2,blue_triangle,go,,,,go-2,1,,,,,,
2,772.0,7,phase_2,blue_triangle,go,,,,go-2,1,,,,,,
0,0,8,phase_2,blue_circle,stop,red,0.0,0-SSD,go-2,4,,,,,,
2,698.0,8,phase_2,purple_triangle,go,,,,go-1,1,,,,,,
1,830.0,8,phase_2,blue_circle,go,,,,go-2,1,,,,,,
1,817.0,8,phase_2,purple_pentagon,go,,,,go-1,1,,,,,,
1,770.0,8,phase_2,blue_circle,go,,,,go-2,1,,,,,,
1,801.0,8,phase_2,purple_circle,go,,,,go-1,1,,,,,,
1,799.0,8,phase_2,blue_circle,go,,,,go-2,1,,,,,,
0,0,8,phase_2,purple_rhombus,stop,red,0.0,0-SSD,go-1,4,,,,,,
0,0,8,phase_2,purple_rhombus,stop,red,0.0,0-SSD,go-1,4,,,,,,
1,760.0,8,phase_2,blue_pentagon,go,,,,go-2,1,,,,,,
2,779.0,8,phase_2,purple_rhombus,go,,,,go-1,1,,,,,,
0,0,8,phase_2,blue_circle,stop,red,0.0,0-SSD,go-2,4,,,,,,
0,0,8,phase_2,purple_triangle,stop,green,550.0,tracking-SSD,go-1,4,,,,,,
2,774.0,8,phase_2,purple_rhombus,go,,,,go-1,1,,,,,,
1,749.0,8,phase_2,blue_pentagon,go,,,,go-2,1,,,,,,
2,645.0,8,phase_2,purple_triangle,go,,,,go-1,1,,,,,,
0,0,8,phase_2,blue_circle,stop,red,0.0,0-SSD,go-2,4,,,,,,
2,809.0,8,phase_2,blue_rhombus,go,,,,go-2,1,,,,,,
2,863.0,8,phase_2,purple_rhombus,go,,,,go-1,1,,,,,,
1,772.0,8,phase_2,purple_circle,go,,,,go-1,1,,,,,,
1,859.0,8,phase_2,purple_pentagon,go,,,,go-1,1,,,,,,
2,857.0,8,phase_2,blue_rhombus,go,,,,go-2,1,,,,,,
1,799.0,8,phase_2,purple_pentagon,stop,green,600.0,tracking-SSD,go-1,3,,,,,,
1,797.0,8,phase_2,blue_pentagon,go,,,,go-2,1,,,,,,
2,851.0,8,phase_2,purple_triangle,go,,,,go-1,1,,,,,,
2,680.0,8,phase_2,blue_triangle,go,,,,go-2,1,,,,,,
0,0,8,phase_2,blue_triangle,stop,green,550.0,tracking-SSD,go-2,4,,,,,,
2,720.0,8,phase_2,blue_triangle,stop,green,600.0,tracking-SSD,go-2,3,,,,,,
1,807.0,8,phase_2,blue_pentagon,go,,,,go-2,1,,,,,,
0,0,8,phase_2,blue_pentagon,stop,green,550.0,tracking-SSD,go-2,4,,,,,,
2,736.0,8,phase_2,blue_rhombus,go,,,,go-2,1,,,,,,
1,800.0,8,phase_2,purple_circle,stop,green,600.0,tracking-SSD,go-1,3,,,,,,
0,0,8,phase_2,blue_pentagon,stop,red,0.0,0-SSD,go-2,4,,,,,,
2,842.0,8,phase_2,blue_triangle,go,,,,go-2,1,,,,,,
2,828.0,8,phase_2,blue_triangle,go,,,,go-2,1,,,,,,
1,938.0,8,phase_2,purple_circle,go,,,,go-1,1,,,,,,
2,777.0,8,phase_2,purple_triangle,go,,,,go-1,1,,,,,,
2,809.0,8,phase_2,purple_rhombus,go,,,,go-1,1,,,,,,
1,885.0,8,phase_2,purple_circle,go,,,,go-1,1,,,,,,
0,0,8,phase_2,purple_circle,stop,red,0.0,0-SSD,go-1,4,,,,,,
1,780.0,8,phase_2,purple_pentagon,go,,,,go-1,1,,,,,,
1,924.0,8,phase_2,blue_pentagon,go,,,,go-2,1,,,,,,
2,876.0,8,phase_2,purple_rhombus,go,,,,go-1,1,,,,,,
2,807.0,8,phase_2,blue_triangle,go,,,,go-2,1,,,,,,
0,0,8,phase_2,blue_rhombus,stop,green,550.0,tracking-SSD,go-2,4,,,,,,
1,635.0,8,phase_2,purple_pentagon,stop,green,600.0,tracking-SSD,go-1,3,,,,,,
2,711.0,8,phase_2,blue_triangle,go,,,,go-2,1,,,,,,
0,0,8,phase_2,purple_rhombus,stop,red,0.0,0-SSD,go-1,4,,,,,,
1,611.0,9,phase_2,blue_pentagon,go,,,,go-2,1,,,,,,
1,710.0,9,phase_2,blue_circle,stop,green,550.0,tracking-SSD,go-2,3,,,,,,
0,0,9,phase_2,purple_triangle,stop,red,0.0,0-SSD,go-1,4,,,,,,
2,671.0,9,phase_2,purple_triangle,go,,,,go-1,1,,,,,,
1,714.0,9,phase_2,purple_pentagon,go,,,,go-1,1,,,,,,
2,655.0,9,phase_2,blue_triangle,go,,,,go-2,1,,,,,,
2,766.0,9,phase_2,purple_rhombus,go,,,,go-1,1,,,,,,
2,821.0,9,phase_2,purple_triangle,go,,,,go-1,1,,,,,,
1,717.0,9,phase_2,purple_circle,go,,,,go-1,1,,,,,,
1,772.0,9,phase_2,blue_circle,go,,,,go-2,1,,,,,,
2,701.0,9,phase_2,purple_pentagon,go,,,,go-1,2,,,,,,
1,721.0,9,phase_2,blue_pentagon,stop,green,500.0,tracking-SSD,go-2,3,,,,,,
0,0,9,phase_2,blue_pentagon,stop,red,0.0,0-SSD,go-2,4,,,,,,
0,0,9,phase_2,purple_circle,stop,red,0.0,0-SSD,go-1,4,,,,,,
0,0,9,phase_2,purple_rhombus,stop,green,450.0,tracking-SSD,go-1,4,,,,,,
0,0,9,phase_2,purple_rhombus,stop,green,500.0,tracking-SSD,go-1,4,,,,,,
1,810.0,9,phase_2,blue_circle,go,,,,go-2,1,,,,,,
2,739.0,9,phase_2,blue_rhombus,go,,,,go-2,1,,,,,,
1,738.0,9,phase_2,purple_circle,go,,,,go-1,1,,,,,,
0,0,9,phase_2,purple_triangle,stop,green,550.0,tracking-SSD,go-1,4,,,,,,
1,699.0,9,phase_2,purple_circle,go,,,,go-1,1,,,,,,
1,765.0,9,phase_2,purple_pentagon,go,,,,go-1,1,,,,,,
1,739.0,9,phase_2,blue_circle,stop,green,600.0,tracking-SSD,go-2,3,,,,,,
1,816.0,9,phase_2,purple_circle,go,,,,go-1,1,,,,,,
2,792.0,9,phase_2,blue_rhombus,go,,,,go-2,1,,,,,,
0,0,9,phase_2,blue_triangle,stop,red,0.0,0-SSD,go-2,4,,,,,,
2,698.0,9,phase_2,blue_rhombus,go,,,,go-2,1,,,,,,
1,798.0,9,phase_2,blue_pentagon,go,,,,go-2,1,,,,,,
1,863.0,9,phase_2,purple_circle,go,,,,go-1,1,,,,,,
2,795.0,9,phase_2,blue_rhombus,go,,,,go-2,1,,,,,,
2,906.0,9,phase_2,purple_rhombus,go,,,,go-1,1,,,,,,
2,803.0,9,phase_2,blue_rhombus,go,,,,go-2,1,,,,,,
0,0,9,phase_2,purple_rhombus,stop,green,550.0,tracking-SSD,go-1,4,,,,,,
1,731.0,9,phase_2,purple_pentagon,go,,,,go-1,1,,,,,,
1,753.0,9,phase_2,blue_pentagon,stop,green,600.0,tracking-SSD,go-2,3,,,,,,
2,773.0,9,phase_2,blue_rhombus,go,,,,go-2,1,,,,,,
0,0,9,phase_2,blue_triangle,stop,red,0.0,0-SSD,go-2,4,,,,,,
2,725.0,9,phase_2,blue_triangle,go,,,,go-2,1,,,,,,
2,825.0,9,phase_2,purple_triangle,go,,,,go-1,1,,,,,,
2,799.0,9,phase_2,purple_rhombus,go,,,,go-1,1,,,,,,
0,0,9,phase_2,blue_pentagon,stop,red,0.0,0-SSD,go-2,4,,,,,,
0,0,9,phase_2,purple_pentagon,stop,red,0.0,0-SSD,go-1,4,,,,,,
2,815.0,9,phase_2,blue_triangle,go,,,,go-2,1,,,,,,
1,767.0,9,phase_2,blue_circle,go,,,,go-2,1,,,,,,
1,909.0,9,phase_2,blue_pentagon,go,,,,go-2,1,,,,,,
2,874.0,9,phase_2,blue_triangle,go,,,,go-2,1,,,,,,
0,0,9,phase_2,purple_triangle,stop,red,0.0,0-SSD,go-1,4,,,,,,
1,747.0,9,phase_2,purple_circle,go,,,,go-1,1,,,,,,
0,0,10,phase_2,blue_rhombus,stop,red,0.0,0-SSD,go-2,4,,,,,,
2,631.0,10,phase_2,blue_triangle,go,,,,go-2,1,,,,,,
1,742.0,10,phase_2,purple_pentagon,go,,,,go-1,1,,,,,,
1,875.0,10,phase_2,blue_circle,go,,,,go-2,1,,,,,,
0,0,10,phase_2,purple_circle,stop,green,550.0,tracking-SSD,go-1,4,,,,,,
2,657.0,10,phase_2,blue_triangle,go,,,,go-2,1,,,,,,
1,699.0,10,phase_2,purple_circle,go,,,,go-1,1,,,,,,
1,697.0,10,phase_2,purple_pentagon,stop,green,600.0,tracking-SSD,go-1,3,,,,,,
2,955.0,10,phase_2,blue_rhombus,go,,,,go-2,1,,,,,,
1,773.0,10,phase_2,purple_pentagon,go,,,,go-1,1,,,,,,
1,795.0,10,phase_2,blue_circle,go,,,,go-2,1,,,,,,
2,769.0,10,phase_2,purple_rhombus,go,,,,go-1,1,,,,,,
1,801.0,10,phase_2,purple_pentagon,go,,,,go-1,1,,,,,,
2,877.0,10,phase_2,blue_triangle,go,,,,go-2,1,,,,,,
0,0,10,phase_2,purple_pentagon,stop,red,0.0,0-SSD,go-1,4,,,,,,
0,0,10,phase_2,blue_triangle,stop,red,0.0,0-SSD,go-2,4,,,,,,
2,701.0,10,phase_2,purple_rhombus,go,,,,go-1,1,,,,,,
1,766.0,10,phase_2,purple_circle,go,,,,go-1,1,,,,,,
2,775.0,10,phase_2,purple_triangle,go,,,,go-1,1,,,,,,
2,750.0,10,phase_2,blue_triangle,go,,,,go-2,1,,,,,,
2,724.0,10,phase_2,purple_triangle,go,,,,go-1,1,,,,,,
1,745.0,10,phase_2,purple_circle,go,,,,go-1,1,,,,,,
1,912.0,10,phase_2,blue_circle,go,,,,go-2,1,,,,,,
2,641.0,10,phase_2,purple_rhombus,go,,,,go-1,1,,,,,,
0,0,10,phase_2,purple_triangle,stop,red,0.0,0-SSD,go-1,4,,,,,,
2,782.0,10,phase_2,blue_rhombus,go,,,,go-2,1,,,,,,
0,0,10,phase_2,purple_rhombus,stop,red,0.0,0-SSD,go-1,4,,,,,,
2,767.0,10,phase_2,blue_rhombus,go,,,,go-2,1,,,,,,
1,752.0,10,phase_2,purple_circle,go,,,,go-1,1,,,,,,
2,751.0,10,phase_2,blue_pentagon,stop,green,550.0,tracking-SSD,go-2,3,,,,,,
2,861.0,10,phase_2,purple_rhombus,go,,,,go-1,1,,,,,,
2,893.0,10,phase_2,blue_rhombus,go,,,,go-2,1,,,,,,
0,0,10,phase_2,blue_triangle,stop,green,500.0,tracking-SSD,go-2,4,,,,,,
1,1350.0,10,phase_2,blue_rhombus,go,,,,go-2,2,,,,,,
0,0,10,phase_2,blue_circle,stop,red,0.0,0-SSD,go-2,4,,,,,,
1,759.0,10,phase_2,purple_circle,go,,,,go-1,1,,,,,,
1,926.0,10,phase_2,blue_pentagon,stop,green,550.0,tracking-SSD,go-2,3,,,,,,
0,0,10,phase_2,purple_rhombus,stop,red,0.0,0-SSD,go-1,4,,,,,,
0,0,10,phase_2,purple_pentagon,stop,green,500.0,tracking-SSD,go-1,4,,,,,,
2,795.0,10,phase_2,purple_triangle,go,,,,go-1,1,,,,,,
1,906.0,10,phase_2,blue_pentagon,go,,,,go-2,1,,,,,,
1,825.0,10,phase_2,purple_circle,go,,,,go-1,1,,,,,,
0,0,10,phase_2,blue_triangle,stop,red,0.0,0-SSD,go-2,4,,,,,,
1,618.0,10,phase_2,blue_pentagon,go,,,,go-2,1,,,,,,
0,0,10,phase_2,purple_circle,stop,green,550.0,tracking-SSD,go-1,4,,,,,,
2,737.0,10,phase_2,blue_triangle,go,,,,go-2,1,,,,,,
1,779.0,10,phase_2,blue_pentagon,go,,,,go-2,1,,,,,,
0,0,10,phase_2,blue_pentagon,stop,green,600.0,tracking-SSD,go-2,4,,,,,,
2,669.0,11,phase_2,blue_rhombus,go,,,,go-2,1,,,,,,
1,745.0,11,phase_2,purple_circle,go,,,,go-1,1,,,,,,
2,753.0,11,phase_2,purple_rhombus,go,,,,go-1,1,,,,,,
1,841.0,11,phase_2,blue_circle,go,,,,go-2,1,,,,,,
2,770.0,11,phase_2,purple_triangle,stop,green,650.0,tracking-SSD,go-1,3,,,,,,
2,779.0,11,phase_2,blue_rhombus,stop,green,600.0,tracking-SSD,go-2,3,,,,,,
1,811.0,11,phase_2,blue_pentagon,go,,,,go-2,1,,,,,,
2,786.0,11,phase_2,blue_rhombus,go,,,,go-2,1,,,,,,
2,749.0,11,phase_2,blue_rhombus,stop,green,550.0,tracking-SSD,go-2,3,,,,,,
1,770.0,11,phase_2,blue_pentagon,go,,,,go-2,1,,,,,,
0,0,11,phase_2,blue_pentagon,stop,green,500.0,tracking-SSD,go-2,4,,,,,,
1,821.0,11,phase_2,blue_pentagon,go,,,,go-2,1,,,,,,
2,818.0,11,phase_2,purple_rhombus,stop,green,550.0,tracking-SSD,go-1,3,,,,,,
2,815.0,11,phase_2,purple_triangle,go,,,,go-1,1,,,,,,
1,858.0,11,phase_2,blue_circle,go,,,,go-2,1,,,,,,
1,821.0,11,phase_2,blue_circle,go,,,,go-2,1,,,,,,
2,751.0,11,phase_2,purple_rhombus,go,,,,go-1,1,,,,,,
0,0,11,phase_2,blue_pentagon,stop,green,500.0,tracking-SSD,go-2,4,,,,,,
2,802.0,11,phase_2,purple_triangle,go,,,,go-1,1,,,,,,
2,789.0,11,phase_2,purple_rhombus,go,,,,go-1,1,,,,,,
1,831.0,11,phase_2,blue_pentagon,go,,,,go-2,1,,,,,,
0,0,11,phase_2,blue_triangle,stop,red,0.0,0-SSD,go-2,4,,,,,,
0,0,11,phase_2,purple_circle,stop,red,0.0,0-SSD,go-1,4,,,,,,
1,700.0,11,phase_2,purple_pentagon,go,,,,go-1,1,,,,,,
0,0,11,phase_2,purple_pentagon,stop,red,0.0,0-SSD,go-1,4,,,,,,
2,841.0,11,phase_2,purple_triangle,go,,,,go-1,1,,,,,,
0,0,11,phase_2,blue_triangle,stop,red,0.0,0-SSD,go-2,4,,,,,,
1,734.0,11,phase_2,blue_circle,go,,,,go-2,1,,,,,,
0,0,11,phase_2,purple_pentagon,stop,red,0.0,0-SSD,go-1,4,,,,,,
1,697.0,11,phase_2,purple_pentagon,go,,,,go-1,1,,,,,,
2,773.0,11,phase_2,blue_rhombus,go,,,,go-2,1,,,,,,
2,826.0,11,phase_2,purple_rhombus,go,,,,go-1,1,,,,,,
0,0,11,phase_2,blue_triangle,stop,red,0.0,0-SSD,go-2,4,,,,,,
2,755.0,11,phase_2,blue_triangle,go,,,,go-2,1,,,,,,
0,0,11,phase_2,purple_pentagon,stop,green,550.0,tracking-SSD,go-1,4,,,,,,
2,796.0,11,phase_2,purple_rhombus,go,,,,go-1,1,,,,,,
2,1198.0,11,phase_2,purple_rhombus,go,,,,go-1,1,,,,,,
0,0,11,phase_2,blue_circle,stop,red,0.0,0-SSD,go-2,4,,,,,,
1,821.0,11,phase_2,purple_circle,go,,,,go-1,1,,,,,,
0,0,11,phase_2,purple_circle,stop,red,0.0,0-SSD,go-1,4,,,,,,
1,693.0,11,phase_2,blue_circle,go,,,,go-2,1,,,,,,
2,814.0,11,phase_2,blue_triangle,go,,,,go-2,1,,,,,,
0,0,11,phase_2,purple_triangle,stop,green,600.0,tracking-SSD,go-1,4,,,,,,
1,831.0,11,phase_2,purple_pentagon,go,,,,go-1,1,,,,,,
1,817.0,11,phase_2,blue_circle,go,,,,go-2,1,,,,,,
2,860.0,11,phase_2,blue_triangle,go,,,,go-2,1,,,,,,
2,846.0,11,phase_2,purple_triangle,go,,,,go-1,1,,,,,,
1,855.0,11,phase_2,purple_circle,go,,,,go-1,1,,,,,,
2,669.0,12,phase_2,purple_triangle,go,,,,go-1,1,,,,,,
1,733.0,12,phase_2,purple_pentagon,go,,,,go-1,1,,,,,,
1,765.0,12,phase_2,purple_circle,go,,,,go-1,1,,,,,,
1,752.0,12,phase_2,blue_pentagon,go,,,,go-2,1,,,,,,
1,808.0,12,phase_2,purple_circle,stop,green,650.0,tracking-SSD,go-1,3,,,,,,
2,760.0,12,phase_2,blue_rhombus,go,,,,go-2,1,,,,,,
2,780.0,12,phase_2,purple_triangle,go,,,,go-1,1,,,,,,
1,767.0,12,phase_2,purple_pentagon,go,,,,go-1,1,,,,,,
2,945.0,12,phase_2,blue_rhombus,go,,,,go-2,1,,,,,,
1,853.0,12,phase_2,purple_pentagon,go,,,,go-1,1,,,,,,
2,726.0,12,phase_2,purple_triangle,stop,green,600.0,tracking-SSD,go-1,3,,,,,,
1,870.0,12,phase_2,blue_circle,go,,,,go-2,1,,,,,,
0,0,12,phase_2,blue_circle,stop,red,0.0,0-SSD,go-2,4,,,,,,
0,0,12,phase_2,purple_rhombus,stop,green,550.0,tracking-SSD,go-1,4,,,,,,
2,730.0,12,phase_2,purple_rhombus,go,,,,go-1,1,,,,,,
1,739.0,12,phase_2,purple_circle,go,,,,go-1,1,,,,,,
0,0,12,phase_2,blue_rhombus,stop,red,0.0,0-SSD,go-2,4,,,,,,
1,700.0,12,phase_2,blue_pentagon,go,,,,go-2,1,,,,,,
2,788.0,12,phase_2,purple_rhombus,go,,,,go-1,1,,,,,,
0,0,12,phase_2,blue_rhombus,stop,green,600.0,tracking-SSD,go-2,4,,,,,,
1,794.0,12,phase_2,purple_circle,go,,,,go-1,1,,,,,,
2,802.0,12,phase_2,blue_rhombus,go,,,,go-2,1,,,,,,
1,878.0,12,phase_2,purple_pentagon,go,,,,go-1,1,,,,,,
1,920.0,12,phase_2,purple_circle,go,,,,go-1,1,,,,,,
2,940.0,12,phase_2,blue_triangle,go,,,,go-2,1,,,,,,
2,759.0,12,phase_2,blue_triangle,go,,,,go-2,1,,,,,,
1,767.0,12,phase_2,purple_pentagon,go,,,,go-1,1,,,,,,
2,832.0,12,phase_2,blue_triangle,stop,green,650.0,tracking-SSD,go-2,3,,,,,,
0,0,12,phase_2,blue_triangle,stop,green,600.0,tracking-SSD,go-2,4,,,,,,
1,951.0,12,phase_2,purple_pentagon,go,,,,go-1,1,,,,,,
1,859.0,12,phase_2,purple_circle,stop,green,650.0,tracking-SSD,go-1,3,,,,,,
0,0,12,phase_2,blue_pentagon,stop,red,0.0,0-SSD,go-2,4,,,,,,
1,898.0,12,phase_2,blue_rhombus,go,,,,go-2,2,,,,,,
1,929.0,12,phase_2,purple_pentagon,go,,,,go-1,1,,,,,,
2,882.0,12,phase_2,blue_triangle,go,,,,go-2,1,,,,,,
1,959.0,12,phase_2,blue_pentagon,go,,,,go-2,1,,,,,,
1,1090.0,12,phase_2,blue_circle,go,,,,go-2,1,,,,,,
0,0,12,phase_2,purple_circle,stop,red,0.0,0-SSD,go-1,4,,,,,,
0,0,12,phase_2,blue_circle,stop,red,0.0,0-SSD,go-2,4,,,,,,
2,1116.0,12,phase_2,blue_circle,go,,,,go-2,2,,,,,,
2,900.0,12,phase_2,blue_triangle,go,,,,go-2,1,,,,,,
2,886.0,12,phase_2,blue_rhombus,stop,green,600.0,tracking-SSD,go-2,3,,,,,,
0,0,12,phase_2,purple_triangle,stop,red,0.0,0-SSD,go-1,4,,,,,,
0,0,12,phase_2,purple_rhombus,stop,red,0.0,0-SSD,go-1,4,,,,,,
2,769.0,12,phase_2,blue_triangle,go,,,,go-2,1,,,,,,
1,733.0,12,phase_2,blue_pentagon,go,,,,go-2,1,,,,,,
2,808.0,12,phase_2,purple_rhombus,go,,,,go-1,1,,,,,,
0,0,12,phase_2,purple_triangle,stop,red,0.0,0-SSD,go-1,4,,,,,,
1,634.0,13,phase_2,purple_pentagon,go,,,,go-1,1,,,,,,
1,777.0,13,phase_2,blue_circle,go,,,,go-2,1,,,,,,
2,662.0,13,phase_2,blue_rhombus,go,,,,go-2,1,,,,,,
1,739.0,13,phase_2,blue_circle,go,,,,go-2,1,,,,,,
2,726.0,13,phase_2,purple_triangle,go,,,,go-1,1,,,,,,
2,723.0,13,phase_2,purple_rhombus,stop,green,550.0,tracking-SSD,go-1,3,,,,,,
1,742.0,13,phase_2,blue_pentagon,go,,,,go-2,1,,,,,,
0,0,13,phase_2,blue_pentagon,stop,red,0.0,0-SSD,go-2,4,,,,,,
1,659.0,13,phase_2,blue_pentagon,go,,,,go-2,1,,,,,,
2,702.0,13,phase_2,purple_rhombus,go,,,,go-1,1,,,,,,
0,0,13,phase_2,blue_pentagon,stop,red,0.0,0-SSD,go-2,4,,,,,,
1,685.0,13,phase_2,purple_pentagon,go,,,,go-1,1,,,,,,
2,772.0,13,phase_2,blue_rhombus,go,,,,go-2,1,,,,,,
0,0,13,phase_2,blue_triangle,stop,green,500.0,tracking-SSD,go-2,4,,,,,,
0,0,13,phase_2,purple_triangle,stop,green,550.0,tracking-SSD,go-1,4,,,,,,
2,833.0,13,phase_2,blue_rhombus,go,,,,go-2,1,,,,,,
1,762.0,13,phase_2,blue_pentagon,go,,,,go-2,1,,,,,,
1,794.0,13,phase_2,blue_circle,go,,,,go-2,1,,,,,,
1,859.0,13,phase_2,blue_pentagon,go,,,,go-2,1,,,,,,
1,777.0,13,phase_2,purple_pentagon,go,,,,go-1,1,,,,,,
1,831.0,13,phase_2,blue_circle,go,,,,go-2,1,,,,,,
1,817.0,13,phase_2,blue_circle,go,,,,go-2,1,,,,,,
2,780.0,13,phase_2,purple_triangle,go,,,,go-1,1,,,,,,
2,836.0,13,phase_2,purple_rhombus,go,,,,go-1,1,,,,,,
0,0,13,phase_2,blue_triangle,stop,red,0.0,0-SSD,go-2,4,,,,,,
1,842.0,13,phase_2,purple_pentagon,stop,green,600.0,tracking-SSD,go-1,3,,,,,,
2,805.0,13,phase_2,purple_triangle,go,,,,go-1,1,,,,,,
0,0,13,phase_2,blue_triangle,stop,green,550.0,tracking-SSD,go-2,4,,,,,,
0,0,13,phase_2,purple_circle,stop,red,0.0,0-SSD,go-1,4,,,,,,
1,720.0,13,phase_2,blue_circle,stop,green,600.0,tracking-SSD,go-2,3,,,,,,
1,763.0,13,phase_2,purple_circle,go,,,,go-1,1,,,,,,
2,962.0,13,phase_2,purple_rhombus,go,,,,go-1,1,,,,,,
2,757.0,13,phase_2,purple_triangle,go,,,,go-1,1,,,,,,
2,834.0,13,phase_2,blue_triangle,go,,,,go-2,1,,,,,,
2,888.0,13,phase_2,blue_rhombus,go,,,,go-2,1,,,,,,
1,784.0,13,phase_2,purple_circle,go,,,,go-1,1,,,,,,
2,849.0,13,phase_2,purple_rhombus,stop,green,550.0,tracking-SSD,go-1,3,,,,,,
0,0,13,phase_2,blue_rhombus,stop,green,500.0,tracking-SSD,go-2,4,,,,,,
2,923.0,13,phase_2,purple_rhombus,go,,,,go-1,1,,,,,,
2,797.0,13,phase_2,blue_rhombus,go,,,,go-2,1,,,,,,
0,0,13,phase_2,purple_triangle,stop,red,0.0,0-SSD,go-1,4,,,,,,
2,727.0,13,phase_2,purple_triangle,go,,,,go-1,1,,,,,,
1,633.0,13,phase_2,purple_circle,go,,,,go-1,1,,,,,,
1,891.0,13,phase_2,purple_circle,go,,,,go-1,1,,,,,,
1,844.0,13,phase_2,blue_pentagon,go,,,,go-2,1,,,,,,
0,0,13,phase_2,blue_circle,stop,red,0.0,0-SSD,go-2,4,,,,,,
0,0,13,phase_2,purple_triangle,stop,red,0.0,0-SSD,go-1,4,,,,,,
0,0,13,phase_2,purple_pentagon,stop,red,0.0,0-SSD,go-1,4,,,,,,
2,600.0,14,phase_2,purple_triangle,go,,,,go-1,1,,,,,,
0,0,14,phase_2,purple_pentagon,stop,red,0.0,0-SSD,go-1,4,,,,,,
0,0,14,phase_2,blue_triangle,stop,red,0.0,0-SSD,go-2,4,,,,,,
2,638.0,14,phase_2,blue_triangle,stop,green,550.0,tracking-SSD,go-2,3,,,,,,
2,624.0,14,phase_2,blue_triangle,go,,,,go-2,1,,,,,,
0,0,14,phase_2,purple_pentagon,stop,red,0.0,0-SSD,go-1,4,,,,,,
0,0,14,phase_2,purple_pentagon,stop,red,0.0,0-SSD,go-1,4,,,,,,
0,0,14,phase_2,blue_triangle,stop,red,0.0,0-SSD,go-2,4,,,,,,
2,693.0,14,phase_2,blue_triangle,go,,,,go-2,1,,,,,,
1,748.0,14,phase_2,purple_circle,go,,,,go-1,1,,,,,,
0,0,14,phase_2,purple_rhombus,stop,green,500.0,tracking-SSD,go-1,4,,,,,,
1,652.0,14,phase_2,blue_circle,go,,,,go-2,1,,,,,,
1,773.0,14,phase_2,blue_circle,go,,,,go-2,1,,,,,,
1,748.0,14,phase_2,blue_rhombus,go,,,,go-2,2,,,,,,
1,757.0,14,phase_2,blue_pentagon,go,,,,go-2,1,,,,,,
1,777.0,14,phase_2,purple_pentagon,go,,,,go-1,1,,,,,,
1,639.0,14,phase_2,purple_pentagon,go,,,,go-1,1,,,,,,
0,0,14,phase_2,blue_rhombus,stop,red,0.0,0-SSD,go-2,4,,,,,,
2,747.0,14,phase_2,purple_rhombus,go,,,,go-1,1,,,,,,
2,823.0,14,phase_2,purple_triangle,go,,,,go-1,1,,,,,,
1,843.0,14,phase_2,blue_circle,go,,,,go-2,1,,,,,,
0,0,14,phase_2,blue_pentagon,stop,red,0.0,0-SSD,go-2,4,,,,,,
2,782.0,14,phase_2,purple_rhombus,go,,,,go-1,1,,,,,,
1,779.0,14,phase_2,blue_circle,stop,green,550.0,tracking-SSD,go-2,3,,,,,,
1,778.0,14,phase_2,blue_circle,go,,,,go-2,1,,,,,,
0,0,14,phase_2,purple_pentagon,stop,green,500.0,tracking-SSD,go-1,4,,,,,,
2,682.0,14,phase_2,blue_triangle,go,,,,go-2,1,,,,,,
1,612.0,14,phase_2,blue_pentagon,stop,green,550.0,tracking-SSD,go-2,3,,,,,,
1,688.0,14,phase_2,purple_circle,go,,,,go-1,1,,,,,,
2,652.0,14,phase_2,blue_triangle,go,,,,go-2,1,,,,,,
2,480.0,14,phase_2,purple_triangle,stop,green,500.0,tracking-SSD,go-1,3,,,,,,
1,556.0,14,phase_2,purple_pentagon,go,,,,go-1,1,,,,,,
2,631.0,14,phase_2,blue_rhombus,go,,,,go-2,1,,,,,,
2,652.0,14,phase_2,purple_rhombus,go,,,,go-1,1,,,,,,
2,504.0,14,phase_2,blue_rhombus,stop,green,450.0,tracking-SSD,go-2,3,,,,,,
0,0,14,phase_2,purple_circle,stop,red,0.0,0-SSD,go-1,4,,,,,,
2,441.0,14,phase_2,purple_triangle,go,,,,go-1,1,,,,,,
1,540.0,14,phase_2,blue_pentagon,go,,,,go-2,1,,,,,,
2,605.0,14,phase_2,purple_rhombus,stop,green,400.0,tracking-SSD,go-1,3,,,,,,
1,535.0,14,phase_2,blue_circle,go,,,,go-2,1,,,,,,
1,465.0,14,phase_2,purple_circle,go,,,,go-1,1,,,,,,
2,530.0,14,phase_2,blue_rhombus,go,,,,go-2,1,,,,,,
2,628.0,14,phase_2,purple_rhombus,go,,,,go-1,1,,,,,,
1,537.0,14,phase_2,blue_pentagon,go,,,,go-2,1,,,,,,
2,377.0,14,phase_2,purple_triangle,go,,,,go-1,1,,,,,,
1,441.0,14,phase_2,purple_circle,go,,,,go-1,1,,,,,,
1,405.0,14,phase_2,blue_circle,go,,,,go-2,1,,,,,,
2,594.0,14,phase_2,purple_rhombus,go,,,,go-1,1,,,,,,
2,408.0,15,phase_2,blue_triangle,go,,,,go-2,1,,,,,,
1,451.0,15,phase_2,blue_pentagon,go,,,,go-2,1,,,,,,
2,459.0,15,phase_2,purple_rhombus,go,,,,go-1,1,,,,,,
2,525.0,15,phase_2,blue_rhombus,go,,,,go-2,1,,,,,,
1,444.0,15,phase_2,blue_circle,go,,,,go-2,1,,,,,,
1,441.0,15,phase_2,purple_pentagon,go,,,,go-1,1,,,,,,
0,0,15,phase_2,blue_circle,stop,red,0.0,0-SSD,go-2,4,,,,,,
2,358.0,15,phase_2,purple_triangle,go,,,,go-1,1,,,,,,
1,446.0,15,phase_2,blue_pentagon,go,,,,go-2,1,,,,,,
0,0,15,phase_2,blue_rhombus,stop,red,0.0,0-SSD,go-2,4,,,,,,
1,487.0,15,phase_2,blue_circle,stop,green,350.0,tracking-SSD,go-2,3,,,,,,
1,473.0,15,phase_2,blue_circle,stop,green,300.0,tracking-SSD,go-2,3,,,,,,
2,425.0,15,phase_2,purple_rhombus,go,,,,go-1,1,,,,,,
1,581.0,15,phase_2,blue_pentagon,go,,,,go-2,1,,,,,,
2,444.0,15,phase_2,blue_rhombus,stop,green,250.0,tracking-SSD,go-2,3,,,,,,
2,498.0,15,phase_2,blue_rhombus,go,,,,go-2,1,,,,,,
1,472.0,15,phase_2,blue_circle,stop,red,0.0,0-SSD,go-2,3,,,,,,
1,358.0,15,phase_2,purple_pentagon,stop,green,200.0,tracking-SSD,go-1,3,,,,,,
2,434.0,15,phase_2,blue_triangle,go,,,,go-2,1,,,,,,
1,386.0,15,phase_2,purple_rhombus,go,,,,go-1,2,,,,,,
1,475.0,15,phase_2,blue_rhombus,go,,,,go-2,2,,,,,,
1,473.0,15,phase_2,purple_circle,stop,red,0.0,0-SSD,go-1,3,,,,,,
1,550.0,15,phase_2,blue_pentagon,go,,,,go-2,1,,,,,,
1,401.0,15,phase_2,purple_pentagon,go,,,,go-1,1,,,,,,
2,421.0,15,phase_2,purple_triangle,go,,,,go-1,1,,,,,,
1,373.0,15,phase_2,purple_pentagon,go,,,,go-1,1,,,,,,
1,449.0,15,phase_2,purple_rhombus,go,,,,go-1,2,,,,,,
0,0,15,phase_2,blue_circle,stop,red,0.0,0-SSD,go-2,4,,,,,,
1,421.0,15,phase_2,purple_circle,go,,,,go-1,1,,,,,,
1,565.0,15,phase_2,purple_triangle,stop,red,0.0,0-SSD,go-1,3,,,,,,
2,540.0,15,phase_2,purple_rhombus,go,,,,go-1,1,,,,,,
1,504.0,15,phase_2,blue_circle,stop,green,150.0,tracking-SSD,go-2,3,,,,,,
2,366.0,15,phase_2,purple_circle,stop,green,100.0,tracking-SSD,go-1,3,,,,,,
0,0,15,phase_2,purple_triangle,stop,red,0.0,0-SSD,go-1,4,,,,,,
2,373.0,15,phase_2,blue_rhombus,go,,,,go-2,1,,,,,,
0,0,15,phase_2,purple_pentagon,stop,green,50.0,tracking-SSD,go-1,4,,,,,,
2,381.0,15,phase_2,blue_circle,go,,,,go-2,2,,,,,,
2,311.0,15,phase_2,blue_triangle,go,,,,go-2,1,,,,,,
2,366.0,15,phase_2,purple_triangle,go,,,,go-1,1,,,,,,
1,532.0,15,phase_2,purple_rhombus,go,,,,go-1,2,,,,,,
2,373.0,15,phase_2,blue_triangle,go,,,,go-2,1,,,,,,
2,370.0,15,phase_2,purple_triangle,go,,,,go-1,1,,,,,,
1,560.0,15,phase_2,purple_pentagon,stop,green,100.0,tracking-SSD,go-1,3,,,,,,
2,378.0,15,phase_2,blue_pentagon,go,,,,go-2,2,,,,,,
1,487.0,15,phase_2,purple_circle,go,,,,go-1,1,,,,,,
2,508.0,15,phase_2,purple_pentagon,stop,red,0.0,0-SSD,go-1,3,,,,,,
2,371.0,15,phase_2,blue_triangle,go,,,,go-2,1,,,,,,
2,356.0,15,phase_2,purple_triangle,go,,,,go-1,1,,,,,,
2,646.0,16,phase_2,blue_rhombus,go,,,,go-2,1,,,,,,
0,0,16,phase_2,purple_circle,stop,red,0.0,0-SSD,go-1,4,,,,,,
2,291.0,16,phase_2,purple_triangle,go,,,,go-1,1,,,,,,
2,322.0,16,phase_2,purple_triangle,go,,,,go-1,1,,,,,,
2,534.0,16,phase_2,purple_rhombus,go,,,,go-1,1,,,,,,
2,453.0,16,phase_2,blue_rhombus,go,,,,go-2,1,,,,,,
2,337.0,16,phase_2,purple_rhombus,go,,,,go-1,1,,,,,,
1,548.0,16,phase_2,blue_rhombus,stop,green,50.0,tracking-SSD,go-2,3,,,,,,
1,432.0,16,phase_2,blue_circle,stop,red,0.0,0-SSD,go-2,3,,,,,,
1,362.0,16,phase_2,purple_rhombus,go,,,,go-1,2,,,,,,
2,362.0,16,phase_2,blue_rhombus,go,,,,go-2,1,,,,,,
1,528.0,16,phase_2,purple_triangle,stop,green,0.0,tracking-SSD,go-1,3,,,,,,
1,300.0,16,phase_2,blue_pentagon,go,,,,go-2,1,,,,,,
2,602.0,16,phase_2,blue_triangle,stop,red,0.0,0-SSD,go-2,3,,,,,,
1,510.0,16,phase_2,blue_circle,go,,,,go-2,1,,,,,,
1,327.0,16,phase_2,blue_rhombus,go,,,,go-2,2,,,,,,
1,471.0,16,phase_2,purple_pentagon,go,,,,go-1,1,,,,,,
1,457.0,16,phase_2,blue_circle,go,,,,go-2,1,,,,,,
0,0,16,phase_2,blue_pentagon,stop,red,0.0,0-SSD,go-2,4,,,,,,
2,328.0,16,phase_2,purple_triangle,go,,,,go-1,1,,,,,,
1,450.0,16,phase_2,blue_circle,go,,,,go-2,1,,,,,,
1,447.0,16,phase_2,blue_pentagon,go,,,,go-2,1,,,,,,
2,500.0,16,phase_2,purple_rhombus,go,,,,go-1,1,,,,,,
2,318.0,16,phase_2,blue_triangle,go,,,,go-2,1,,,,,,
1,484.0,16,phase_2,purple_rhombus,stop,green,0.0,tracking-SSD,go-1,3,,,,,,
1,495.0,16,phase_2,blue_circle,stop,green,0.0,tracking-SSD,go-2,3,,,,,,
2,278.0,16,phase_2,purple_triangle,go,,,,go-1,1,,,,,,
1,411.0,16,phase_2,purple_circle,stop,red,0.0,0-SSD,go-1,3,,,,,,
2,307.0,16,phase_2,purple_triangle,go,,,,go-1,1,,,,,,
2,439.0,16,phase_2,purple_rhombus,go,,,,go-1,1,,,,,,
1,515.0,16,phase_2,purple_pentagon,stop,red,0.0,0-SSD,go-1,3,,,,,,
1,501.0,16,phase_2,purple_pentagon,go,,,,go-1,1,,,,,,
1,498.0,16,phase_2,blue_circle,go,,,,go-2,1,,,,,,
2,429.0,16,phase_2,purple_triangle,go,,,,go-1,1,,,,,,
2,315.0,16,phase_2,blue_triangle,go,,,,go-2,1,,,,,,
1,448.0,16,phase_2,blue_pentagon,go,,,,go-2,1,,,,,,
2,535.0,16,phase_2,blue_triangle,stop,red,0.0,0-SSD,go-2,3,,,,,,
0,0,16,phase_2,purple_circle,stop,green,0.0,tracking-SSD,go-1,4,,,,,,
2,442.0,16,phase_2,purple_circle,go,,,,go-1,2,,,,,,
0,0,16,phase_2,blue_triangle,stop,green,50.0,tracking-SSD,go-2,4,,,,,,
0,0,16,phase_2,blue_pentagon,stop,green,100.0,tracking-SSD,go-2,4,,,,,,
1,344.0,16,phase_2,blue_pentagon,go,,,,go-2,1,,,,,,
1,442.0,16,phase_2,purple_circle,go,,,,go-1,1,,,,,,
2,338.0,16,phase_2,purple_rhombus,stop,green,150.0,tracking-SSD,go-1,3,,,,,,
0,0,16,phase_2,purple_pentagon,stop,red,0.0,0-SSD,go-1,4,,,,,,
1,503.0,16,phase_2,purple_circle,go,,,,go-1,1,,,,,,
1,578.0,16,phase_2,blue_pentagon,go,,,,go-2,1,,,,,,
1,386.0,16,phase_2,blue_pentagon,go,,,,go-2,1,,,,,,
2,420.0,17,phase_2,purple_triangle,go,,,,go-1,1,,,,,,
1,417.0,17,phase_2,purple_circle,go,,,,go-1,1,,,,,,
1,550.0,17,phase_2,blue_rhombus,stop,red,0.0,0-SSD,go-2,3,,,,,,
0,0,17,phase_2,purple_circle,stop,green,100.0,tracking-SSD,go-1,4,,,,,,
2,434.0,17,phase_2,purple_rhombus,go,,,,go-1,1,,,,,,
1,510.0,17,phase_2,blue_pentagon,go,,,,go-2,1,,,,,,
1,588.0,17,phase_2,purple_rhombus,go,,,,go-1,2,,,,,,
2,373.0,17,phase_2,blue_rhombus,go,,,,go-2,1,,,,,,
1,493.0,17,phase_2,purple_circle,stop,green,150.0,tracking-SSD,go-1,3,,,,,,
1,446.0,17,phase_2,purple_circle,go,,,,go-1,1,,,,,,
0,0,17,phase_2,purple_pentagon,stop,green,100.0,tracking-SSD,go-1,4,,,,,,
2,283.0,17,phase_2,purple_triangle,stop,green,150.0,tracking-SSD,go-1,3,,,,,,
2,517.0,17,phase_2,blue_rhombus,go,,,,go-2,1,,,,,,
1,414.0,17,phase_2,blue_circle,go,,,,go-2,1,,,,,,
1,355.0,17,phase_2,blue_circle,go,,,,go-2,1,,,,,,
1,543.0,17,phase_2,blue_pentagon,stop,red,0.0,0-SSD,go-2,3,,,,,,
1,507.0,17,phase_2,purple_circle,go,,,,go-1,1,,,,,,
2,347.0,17,phase_2,purple_triangle,go,,,,go-1,1,,,,,,
0,0,17,phase_2,purple_circle,stop,red,0.0,0-SSD,go-1,4,,,,,,
2,320.0,17,phase_2,purple_triangle,go,,,,go-1,1,,,,,,
1,463.0,17,phase_2,purple_pentagon,go,,,,go-1,1,,,,,,
0,0,17,phase_2,blue_triangle,stop,green,100.0,tracking-SSD,go-2,4,,,,,,
1,525.0,17,phase_2,purple_circle,go,,,,go-1,1,,,,,,
2,501.0,17,phase_2,blue_rhombus,go,,,,go-2,1,,,,,,
1,498.0,17,phase_2,blue_pentagon,go,,,,go-2,1,,,,,,
2,383.0,17,phase_2,blue_triangle,stop,green,150.0,tracking-SSD,go-2,3,,,,,,
1,437.0,17,phase_2,blue_rhombus,go,,,,go-2,2,,,,,,
2,389.0,17,phase_2,purple_triangle,go,,,,go-1,1,,,,,,
0,0,17,phase_2,purple_rhombus,stop,red,0.0,0-SSD,go-1,4,,,,,,
2,317.0,17,phase_2,blue_triangle,stop,green,100.0,tracking-SSD,go-2,3,,,,,,
0,0,17,phase_2,blue_triangle,stop,red,0.0,0-SSD,go-2,4,,,,,,
2,604.0,17,phase_2,blue_rhombus,go,,,,go-2,1,,,,,,
0,0,17,phase_2,purple_pentagon,stop,red,0.0,0-SSD,go-1,4,,,,,,
1,418.0,17,phase_2,purple_circle,go,,,,go-1,1,,,,,,
2,451.0,17,phase_2,blue_rhombus,go,,,,go-2,1,,,,,,
0,0,17,phase_2,purple_pentagon,stop,red,0.0,0-SSD,go-1,4,,,,,,
1,512.0,17,phase_2,purple_pentagon,go,,,,go-1,1,,,,,,
2,341.0,17,phase_2,purple_triangle,go,,,,go-1,1,,,,,,
1,418.0,17,phase_2,blue_circle,go,,,,go-2,1,,,,,,
2,381.0,17,phase_2,purple_triangle,go,,,,go-1,1,,,,,,
0,0,17,phase_2,blue_pentagon,stop,red,0.0,0-SSD,go-2,4,,,,,,
2,342.0,17,phase_2,blue_rhombus,go,,,,go-2,1,,,,,,
1,373.0,17,phase_2,blue_pentagon,go,,,,go-2,1,,,,,,
0,0,17,phase_2,blue_rhombus,stop,green,50.0,tracking-SSD,go-2,4,,,,,,
2,368.0,17,phase_2,blue_triangle,go,,,,go-2,1,,,,,,
1,478.0,17,phase_2,purple_pentagon,go,,,,go-1,1,,,,,,
1,464.0,17,phase_2,blue_pentagon,go,,,,go-2,1,,,,,,
2,428.0,17,phase_2,blue_circle,go,,,,go-2,2,,,,,,
0,0,1,phase_3,,,,,,,,,,blue_square,go-2,red_square,0-SSD
,922.0,1,phase_3,,,,,,,,blue_square,go-2,blue_square,go-2,green_square,tracking-SSD
,1435.0,1,phase_3,,,,,,,,blue_square,go-2,purple_square,go-1,blue_square,go-2
,2295.0,1,phase_3,,,,,,,,purple_square,go-1,purple_square,go-1,green_square,tracking-SSD
,727.0,1,phase_3,,,,,,,,green_square,tracking-SSD,red_square,0-SSD,green_square,tracking-SSD
,1160.0,1,phase_3,,,,,,,,red_square,0-SSD,purple_square,go-1,red_square,0-SSD
0,0,1,phase_3,,,,,,,,,,red_square,0-SSD,purple_square,go-1
0,0,1,phase_3,,,,,,,,,,green_square,tracking-SSD,red_square,0-SSD
0,0,1,phase_3,,,,,,,,,,blue_square,go-2,purple_square,go-1
,1421.0,1,phase_3,,,,,,,,purple_square,go-1,green_square,tracking-SSD,purple_square,go-1
,900.0,1,phase_3,,,,,,,,blue_square,go-2,red_square,0-SSD,blue_square,go-2
,681.0,1,phase_3,,,,,,,,blue_square,go-2,green_square,tracking-SSD,blue_square,go-2
,1252.0,2,phase_3,,,,,,,,purple_square,go-1,purple_square,go-1,red_square,0-SSD
,1461.0,2,phase_3,,,,,,,,green_square,tracking-SSD,purple_square,go-1,green_square,tracking-SSD
,624.0,2,phase_3,,,,,,,,red_square,0-SSD,blue_square,go-2,red_square,0-SSD
0,0,2,phase_3,,,,,,,,,,purple_square,go-1,blue_square,go-2
0,0,2,phase_3,,,,,,,,,,red_square,0-SSD,green_square,tracking-SSD
0,0,2,phase_3,,,,,,,,,,blue_square,go-2,green_square,tracking-SSD
0,0,2,phase_3,,,,,,,,,,green_square,tracking-SSD,blue_square,go-2
0,0,2,phase_3,,,,,,,,,,green_square,tracking-SSD,purple_square,go-1
0,0,2,phase_3,,,,,,,,,,red_square,0-SSD,purple_square,go-1
,2560.0,2,phase_3,,,,,,,,blue_square,go-2,red_square,0-SSD,blue_square,go-2
0,0,2,phase_3,,,,,,,,,,green_square,tracking-SSD,red_square,0-SSD
,1584.0,2,phase_3,,,,,,,,blue_square,go-2,blue_square,go-2,purple_square,go-1
0,0,3,phase_3,,,,,,,,,,purple_square,go-1,red_square,0-SSD
,2845.0,3,phase_3,,,,,,,,blue_square,go-2,purple_square,go-1,blue_square,go-2
,871.0,3,phase_3,,,,,,,,green_square,tracking-SSD,purple_square,go-1,green_square,tracking-SSD
0,0,3,phase_3,,,,,,,,,,red_square,0-SSD,green_square,tracking-SSD
,1143.0,3,phase_3,,,,,,,,green_square,tracking-SSD,blue_square,go-2,green_square,tracking-SSD
,396.0,3,phase_3,,,,,,,,blue_square,go-2,blue_square,go-2,red_square,0-SSD
0,0,3,phase_3,,,,,,,,,,red_square,0-SSD,blue_square,go-2
0,0,3,phase_3,,,,,,,,,,green_square,tracking-SSD,purple_square,go-1
,1249.0,3,phase_3,,,,,,,,red_square,0-SSD,green_square,tracking-SSD,red_square,0-SSD
0,0,3,phase_3,,,,,,,,,,green_square,tracking-SSD,blue_square,go-2
,1184.0,3,phase_3,,,,,,,,red_square,0-SSD,red_square,0-SSD,purple_square,go-1
,843.0,3,phase_3,,,,,,,,blue_square,go-2,blue_square,go-2,purple_square,go-1
,1241.0,4,phase_3,,,,,,,,blue_square,go-2,blue_square,go-2,green_square,tracking-SSD
0,0,4,phase_3,,,,,,,,,,purple_square,go-1,red_square,0-SSD
,478.0,4,phase_3,,,,,,,,green_square,tracking-SSD,purple_square,go-1,green_square,tracking-SSD
,857.0,4,phase_3,,,,,,,,blue_square,go-2,purple_square,go-1,blue_square,go-2
,931.0,4,phase_3,,,,,,,,green_square,tracking-SSD,red_square,0-SSD,green_square,tracking-SSD
,1185.0,4,phase_3,,,,,,,,blue_square,go-2,blue_square,go-2,red_square,0-SSD
,855.0,4,phase_3,,,,,,,,blue_square,go-2,blue_square,go-2,purple_square,go-1
,29.0,4,phase_3,,,,,,,,purple_square,go-1,red_square,0-SSD,purple_square,go-1
,1273.0,4,phase_3,,,,,,,,purple_square,go-1,green_square,tracking-SSD,purple_square,go-1
,751.0,4,phase_3,,,,,,,,red_square,0-SSD,red_square,0-SSD,blue_square,go-2
,341.0,4,phase_3,,,,,,,,green_square,tracking-SSD,green_square,tracking-SSD,red_square,0-SSD
,639.0,4,phase_3,,,,,,,,blue_square,go-2,green_square,tracking-SSD,blue_square,go-2
0,0,5,phase_3,,,,,,,,,,purple_square,go-1,red_square,0-SSD
0,0,5,phase_3,,,,,,,,,,red_square,0-SSD,green_square,tracking-SSD
0,0,5,phase_3,,,,,,,,,,purple_square,go-1,green_square,tracking-SSD
0,0,5,phase_3,,,,,,,,,,blue_square,go-2,red_square,0-SSD
0,0,5,phase_3,,,,,,,,,,blue_square,go-2,green_square,tracking-SSD
0,0,5,phase_3,,,,,,,,,,purple_square,go-1,blue_square,go-2
0,0,5,phase_3,,,,,,,,,,red_square,0-SSD,blue_square,go-2
,1165.0,5,phase_3,,,,,,,,purple_square,go-1,green_square,tracking-SSD,purple_square,go-1
,800.0,5,phase_3,,,,,,,,blue_square,go-2,blue_square,go-2,purple_square,go-1
0,0,5,phase_3,,,,,,,,,,red_square,0-SSD,purple_square,go-1
,2198.0,5,phase_3,,,,,,,,green_square,tracking-SSD,green_square,tracking-SSD,red_square,0-SSD
,1518.0,5,phase_3,,,,,,,,green_square,tracking-SSD,green_square,tracking-SSD,blue_square,go-2
