response,reaction_time,block,which_phase,stim,stop_signal_trial_type,stop_signal_stimulus,SSD,SSD_type,condition,accuracy,chosen_stim,chosen_cond,stim_left,cond_left,stim_right,cond_right
2,442.0,1,phase_2,red_triangle,go,,,,go-2,1,,,,,,
2,518.0,1,phase_2,red_rhombus,go,,,,go-2,1,,,,,,
2,551.0,1,phase_2,green_triangle,go,,,,go-1,1,,,,,,
2,470.0,1,phase_2,red_rhombus,go,,,,go-2,1,,,,,,
0,0,1,phase_2,green_circle,stop,blue,0.0,0-SSD,go-1,4,,,,,,
0,0,1,phase_2,green_circle,stop,blue,0.0,0-SSD,go-1,4,,,,,,
0,0,1,phase_2,red_triangle,stop,blue,0.0,0-SSD,go-2,4,,,,,,
2,587.0,1,phase_2,green_rhombus,stop,purple,250.0,tracking-SSD,go-1,3,,,,,,
2,619.0,1,phase_2,red_triangle,go,,,,go-2,1,,,,,,
0,0,1,phase_2,green_triangle,stop,purple,200.0,tracking-SSD,go-1,4,,,,,,
0,0,1,phase_2,green_rhombus,go,,,,go-1,2,,,,,,
2,421.0,1,phase_2,red_pentagon,go,,,,go-2,2,,,,,,
2,488.0,1,phase_2,green_rhombus,go,,,,go-1,1,,,,,,
0,0,1,phase_2,red_pentagon,stop,blue,0.0,0-SSD,go-2,4,,,,,,
1,529.0,1,phase_2,green_pentagon,go,,,,go-1,1,,,,,,
1,438.0,1,phase_2,red_pentagon,go,,,,go-2,1,,,,,,
1,447.0,1,phase_2,green_circle,go,,,,go-1,1,,,,,,
0,0,1,phase_2,red_triangle,stop,blue,0.0,0-SSD,go-2,4,,,,,,
0,0,1,phase_2,green_circle,stop,blue,0.0,0-SSD,go-1,4,,,,,,
1,499.0,1,phase_2,red_circle,go,,,,go-2,1,,,,,,
1,430.0,1,phase_2,red_pentagon,go,,,,go-2,1,,,,,,
2,585.0,1,phase_2,green_rhombus,go,,,,go-1,1,,,,,,
2,528.0,1,phase_2,green_rhombus,go,,,,go-1,1,,,,,,
2,526.0,1,phase_2,red_rhombus,go,,,,go-2,1,,,,,,
2,468.0,1,phase_2,red_triangle,go,,,,go-2,1,,,,,,
1,510.0,1,phase_2,green_pentagon,stop,purple,250.0,tracking-SSD,go-1,3,,,,,,
0,0,1,phase_2,red_pentagon,stop,purple,200.0,tracking-SSD,go-2,4,,,,,,
2,494.0,1,phase_2,red_rhombus,go,,,,go-2,1,,,,,,
2,548.0,1,phase_2,red_rhombus,go,,,,go-2,1,,,,,,
1,602.0,1,phase_2,red_circle,go,,,,go-2,1,,,,,,
2,546.0,1,phase_2,green_triangle,go,,,,go-1,1,,,,,,
1,566.0,1,phase_2,green_pentagon,go,,,,go-1,1,,,,,,
2,508.0,1,phase_2,red_triangle,stop,purple,250.0,tracking-SSD,go-2,3,,,,,,
1,585.0,1,phase_2,red_circle,go,,,,go-2,1,,,,,,
1,494.0,1,phase_2,green_pentagon,go,,,,go-1,1,,,,,,
0,0,1,phase_2,green_triangle,stop,purple,200.0,tracking-SSD,go-1,4,,,,,,
0,0,1,phase_2,red_pentagon,stop,purple,250.0,tracking-SSD,go-2,4,,,,,,
0,0,1,phase_2,green_pentagon,stop,blue,0.0,0-SSD,go-1,4,,,,,,
1,495.0,1,phase_2,green_circle,go,,,,go-1,1,,,,,,
1,448.0,1,phase_2,green_circle,go,,,,go-1,1,,,,,,
1,580.0,1,phase_2,green_circle,go,,,,go-1,1,,,,,,
1,375.0,1,phase_2,green_circle,go,,,,go-1,1,,,,,,
0,0,1,phase_2,red_triangle,stop,blue,0.0,0-SSD,go-2,4,,,,,,
2,518.0,1,phase_2,green_triangle,go,,,,go-1,1,,,,,,
1,516.0,1,phase_2,red_circle,go,,,,go-2,1,,,,,,
0,0,1,phase_2,red_pentagon,stop,purple,300.0,tracking-SSD,go-2,4,,,,,,
2,523.0,1,phase_2,red_rhombus,go,,,,go-2,1,,,,,,
2,633.0,1,phase_2,green_rhombus,go,,,,go-1,1,,,,,,
2,510.0,2,phase_2,red_triangle,go,,,,go-2,1,,,,,,
0,0,2,phase_2,green_rhombus,stop,blue,0.0,0-SSD,go-1,4,,,,,,
1,505.0,2,phase_2,red_pentagon,go,,,,go-2,1,,,,,,
1,435.0,2,phase_2,green_pentagon,go,,,,go-1,1,,,,,,
1,535.0,2,phase_2,green_circle,go,,,,go-1,1,,,,,,
0,0,2,phase_2,green_circle,stop,blue,0.0,0-SSD,go-1,4,,,,,,
0,0,2,phase_2,red_circle,stop,blue,0.0,0-SSD,go-2,4,,,,,,
2,506.0,2,phase_2,red_rhombus,stop,purple,350.0,tracking-SSD,go-2,3,,,,,,
2,493.0,2,phase_2,red_rhombus,go,,,,go-2,1,,,,,,
2,403.0,2,phase_2,red_triangle,stop,purple,300.0,tracking-SSD,go-2,3,,,,,,
2,523.0,2,phase_2,red_rhombus,go,,,,go-2,1,,,,,,
1,420.0,2,phase_2,red_circle,go,,,,go-2,1,,,,,,
1,520.0,2,phase_2,red_pentagon,go,,,,go-2,1,,,,,,
0,0,2,phase_2,green_triangle,stop,purple,250.0,tracking-SSD,go-1,4,,,,,,
1,516.0,2,phase_2,red_pentagon,go,,,,go-2,1,,,,,,
2,490.0,2,phase_2,red_rhombus,go,,,,go-2,1,,,,,,
0,0,2,phase_2,green_triangle,stop,blue,0.0,0-SSD,go-1,4,,,,,,
2,520.0,2,phase_2,green_rhombus,go,,,,go-1,1,,,,,,
2,496.0,2,phase_2,green_rhombus,stop,purple,300.0,tracking-SSD,go-1,3,,,,,,
0,0,2,phase_2,red_circle,stop,purple,250.0,tracking-SSD,go-2,4,,,,,,
1,727.0,2,phase_2,red_pentagon,go,,,,go-2,1,,,,,,
1,466.0,2,phase_2,red_pentagon,go,,,,go-2,1,,,,,,
0,0,2,phase_2,red_pentagon,stop,blue,0.0,0-SSD,go-2,4,,,,,,
1,540.0,2,phase_2,green_circle,go,,,,go-1,1,,,,,,
2,537.0,2,phase_2,green_rhombus,go,,,,go-1,1,,,,,,
2,433.0,2,phase_2,green_pentagon,go,,,,go-1,2,,,,,,
1,577.0,2,phase_2,red_circle,go,,,,go-2,1,,,,,,
0,0,2,phase_2,red_rhombus,stop,blue,0.0,0-SSD,go-2,4,,,,,,
1,472.0,2,phase_2,green_circle,go,,,,go-1,1,,,,,,
1,480.0,2,phase_2,red_circle,go,,,,go-2,1,,,,,,
1,456.0,2,phase_2,red_pentagon,go,,,,go-2,1,,,,,,
0,0,2,phase_2,green_pentagon,stop,blue,0.0,0-SSD,go-1,4,,,,,,
1,485.0,2,phase_2,red_pentagon,stop,purple,300.0,tracking-SSD,go-2,3,,,,,,
2,866.0,2,phase_2,green_triangle,go,,,,go-1,1,,,,,,
2,481.0,2,phase_2,red_triangle,go,,,,go-2,1,,,,,,
2,513.0,2,phase_2,green_triangle,go,,,,go-1,1,,,,,,
2,476.0,2,phase_2,green_rhombus,go,,,,go-1,1,,,,,,
1,463.0,2,phase_2,green_circle,go,,,,go-1,1,,,,,,
2,428.0,2,phase_2,green_rhombus,go,,,,go-1,1,,,,,,
2,584.0,2,phase_2,green_rhombus,go,,,,go-1,1,,,,,,
2,525.0,2,phase_2,green_triangle,go,,,,go-1,1,,,,,,
2,421.0,2,phase_2,green_triangle,stop,purple,250.0,tracking-SSD,go-1,3,,,,,,
1,577.0,2,phase_2,red_circle,go,,,,go-2,1,,,,,,
2,531.0,2,phase_2,green_triangle,go,,,,go-1,1,,,,,,
2,472.0,2,phase_2,green_triangle,go,,,,go-1,1,,,,,,
1,447.0,2,phase_2,red_circle,go,,,,go-2,1,,,,,,
0,0,2,phase_2,red_triangle,stop,blue,0.0,0-SSD,go-2,4,,,,,,
1,453.0,2,phase_2,green_pentagon,stop,purple,200.0,tracking-SSD,go-1,3,,,,,,
1,454.0,3,phase_2,red_circle,go,,,,go-2,1,,,,,,
1,417.0,3,phase_2,green_circle,go,,,,go-1,1,,,,,,
0,0,3,phase_2,green_pentagon,stop,purple,150.0,tracking-SSD,go-1,4,,,,,,
1,446.0,3,phase_2,red_pentagon,go,,,,go-2,1,,,,,,
1,400.0,3,phase_2,green_pentagon,go,,,,go-1,1,,,,,,
0,0,3,phase_2,red_rhombus,stop,blue,0.0,0-SSD,go-2,4,,,,,,
1,464.0,3,phase_2,red_circle,go,,,,go-2,1,,,,,,
1,395.0,3,phase_2,green_circle,go,,,,go-1,1,,,,,,
1,528.0,3,phase_2,green_circle,go,,,,go-1,1,,,,,,
1,459.0,3,phase_2,green_rhombus,go,,,,go-1,2,,,,,,
1,479.0,3,phase_2,red_pentagon,go,,,,go-2,1,,,,,,
1,534.0,3,phase_2,green_pentagon,go,,,,go-1,1,,,,,,
2,498.0,3,phase_2,green_triangle,go,,,,go-1,1,,,,,,
0,0,3,phase_2,red_rhombus,stop,purple,200.0,tracking-SSD,go-2,4,,,,,,
1,506.0,3,phase_2,green_circle,stop,purple,250.0,tracking-SSD,go-1,3,,,,,,
0,0,3,phase_2,green_rhombus,stop,blue,0.0,0-SSD,go-1,4,,,,,,
0,0,3,phase_2,red_triangle,stop,blue,0.0,0-SSD,go-2,4,,,,,,
2,489.0,3,phase_2,red_rhombus,go,,,,go-2,1,,,,,,
1,511.0,3,phase_2,green_pentagon,go,,,,go-1,1,,,,,,
1,689.0,3,phase_2,red_pentagon,go,,,,go-2,1,,,,,,
2,507.0,3,phase_2,green_rhombus,go,,,,go-1,1,,,,,,
2,493.0,3,phase_2,red_rhombus,go,,,,go-2,1,,,,,,
2,468.0,3,phase_2,red_rhombus,go,,,,go-2,1,,,,,,
1,444.0,3,phase_2,green_circle,go,,,,go-1,1,,,,,,
0,0,3,phase_2,green_triangle,stop,purple,200.0,tracking-SSD,go-1,4,,,,,,
2,475.0,3,phase_2,red_triangle,go,,,,go-2,1,,,,,,
2,406.0,3,phase_2,green_rhombus,go,,,,go-1,1,,,,,,
2,416.0,3,phase_2,green_rhombus,go,,,,go-1,1,,,,,,
2,447.0,3,phase_2,green_triangle,go,,,,go-1,1,,,,,,
1,479.0,3,phase_2,red_pentagon,go,,,,go-2,1,,,,,,
2,490.0,3,phase_2,red_triangle,go,,,,go-2,1,,,,,,
1,465.0,3,phase_2,red_circle,go,,,,go-2,1,,,,,,
1,386.0,3,phase_2,red_circle,go,,,,go-2,1,,,,,,
1,384.0,3,phase_2,green_rhombus,go,,,,go-1,2,,,,,,
1,439.0,3,phase_2,red_pentagon,go,,,,go-2,1,,,,,,
2,459.0,3,phase_2,red_rhombus,stop,purple,250.0,tracking-SSD,go-2,3,,,,,,
1,424.0,3,phase_2,green_circle,go,,,,go-1,1,,,,,,
0,0,3,phase_2,red_triangle,stop,purple,200.0,tracking-SSD,go-2,4,,,,,,
1,475.0,3,phase_2,red_pentagon,stop,purple,250.0,tracking-SSD,go-2,3,,,,,,
0,0,3,phase_2,red_triangle,stop,blue,0.0,0-SSD,go-2,4,,,,,,
2,504.0,3,phase_2,red_triangle,go,,,,go-2,1,,,,,,
0,0,3,phase_2,green_triangle,stop,blue,0.0,0-SSD,go-1,4,,,,,,
0,0,3,phase_2,green_pentagon,stop,purple,200.0,tracking-SSD,go-1,4,,,,,,
2,485.0,3,phase_2,red_triangle,go,,,,go-2,1,,,,,,
0,0,3,phase_2,red_circle,stop,blue,0.0,0-SSD,go-2,4,,,,,,
0,0,3,phase_2,green_circle,stop,blue,0.0,0-SSD,go-1,4,,,,,,
1,556.0,3,phase_2,green_pentagon,go,,,,go-1,1,,,,,,
0,0,3,phase_2,green_triangle,stop,blue,0.0,0-SSD,go-1,4,,,,,,
0,0,4,phase_2,red_rhombus,stop,blue,0.0,0-SSD,go-2,4,,,,,,
2,485.0,4,phase_2,green_triangle,go,,,,go-1,1,,,,,,
1,550.0,4,phase_2,red_pentagon,go,,,,go-2,1,,,,,,
0,0,4,phase_2,green_rhombus,stop,purple,250.0,tracking-SSD,go-1,4,,,,,,
0,0,4,phase_2,red_rhombus,stop,blue,0.0,0-SSD,go-2,4,,,,,,
1,500.0,4,phase_2,red_pentagon,go,,,,go-2,1,,,,,,
2,566.0,4,phase_2,green_rhombus,go,,,,go-1,1,,,,,,
0,0,4,phase_2,red_rhombus,stop,blue,0.0,0-SSD,go-2,4,,,,,,
2,504.0,4,phase_2,green_triangle,go,,,,go-1,1,,,,,,
2,491.0,4,phase_2,red_rhombus,go,,,,go-2,1,,,,,,
1,488.0,4,phase_2,green_circle,go,,,,go-1,1,,,,,,
2,508.0,4,phase_2,green_rhombus,go,,,,go-1,1,,,,,,
2,417.0,4,phase_2,green_rhombus,go,,,,go-1,1,,,,,,
0,0,4,phase_2,green_circle,stop,blue,0.0,0-SSD,go-1,4,,,,,,
1,435.0,4,phase_2,red_circle,stop,purple,300.0,tracking-SSD,go-2,3,,,,,,
2,490.0,4,phase_2,green_triangle,go,,,,go-1,1,,,,,,
2,465.0,4,phase_2,red_triangle,stop,purple,250.0,tracking-SSD,go-2,3,,,,,,
2,722.0,4,phase_2,red_triangle,go,,,,go-2,1,,,,,,
1,562.0,4,phase_2,green_circle,go,,,,go-1,1,,,,,,
0,0,4,phase_2,green_pentagon,stop,blue,0.0,0-SSD,go-1,4,,,,,,
0,0,4,phase_2,red_triangle,stop,purple,200.0,tracking-SSD,go-2,4,,,,,,
2,703.0,4,phase_2,red_triangle,go,,,,go-2,1,,,,,,
1,463.0,4,phase_2,red_pentagon,go,,,,go-2,1,,,,,,
1,440.0,4,phase_2,red_pentagon,go,,,,go-2,1,,,,,,
0,0,4,phase_2,green_rhombus,stop,purple,250.0,tracking-SSD,go-1,4,,,,,,
1,436.0,4,phase_2,red_pentagon,go,,,,go-2,1,,,,,,
2,534.0,4,phase_2,green_triangle,go,,,,go-1,1,,,,,,
0,0,4,phase_2,green_triangle,stop,blue,0.0,0-SSD,go-1,4,,,,,,
1,575.0,4,phase_2,green_circle,stop,purple,300.0,tracking-SSD,go-1,3,,,,,,
2,594.0,4,phase_2,red_triangle,go,,,,go-2,1,,,,,,
1,569.0,4,phase_2,green_circle,go,,,,go-1,1,,,,,,
1,365.0,4,phase_2,red_circle,go,,,,go-2,1,,,,,,
2,452.0,4,phase_2,green_triangle,go,,,,go-1,1,,,,,,
1,495.0,4,phase_2,green_pentagon,go,,,,go-1,1,,,,,,
1,559.0,4,phase_2,green_pentagon,go,,,,go-1,1,,,,,,
0,0,4,phase_2,green_rhombus,stop,blue,0.0,0-SSD,go-1,4,,,,,,
1,578.0,4,phase_2,red_pentagon,go,,,,go-2,1,,,,,,
1,428.0,4,phase_2,red_pentagon,stop,purple,250.0,tracking-SSD,go-2,3,,,,,,
0,0,4,phase_2,red_circle,stop,blue,0.0,0-SSD,go-2,4,,,,,,
1,504.0,4,phase_2,red_circle,go,,,,go-2,1,,,,,,
2,480.0,4,phase_2,red_triangle,go,,,,go-2,1,,,,,,
2,478.0,4,phase_2,red_rhombus,go,,,,go-2,1,,,,,,
1,475.0,4,phase_2,red_pentagon,go,,,,go-2,1,,,,,,
1,450.0,4,phase_2,green_circle,go,,,,go-1,1,,,,,,
1,404.0,4,phase_2,green_circle,go,,,,go-1,1,,,,,,
1,481.0,4,phase_2,green_pentagon,go,,,,go-1,1,,,,,,
2,569.0,4,phase_2,red_rhombus,go,,,,go-2,1,,,,,,
1,430.0,4,phase_2,green_circle,stop,purple,200.0,tracking-SSD,go-1,3,,,,,,
2,511.0,5,phase_2,green_rhombus,go,,,,go-1,1,,,,,,
2,474.0,5,phase_2,green_triangle,go,,,,go-1,1,,,,,,
2,405.0,5,phase_2,green_triangle,go,,,,go-1,1,,,,,,
1,449.0,5,phase_2,red_rhombus,go,,,,go-2,2,,,,,,
2,436.0,5,phase_2,red_triangle,go,,,,go-2,1,,,,,,
0,0,5,phase_2,green_rhombus,stop,blue,0.0,0-SSD,go-1,4,,,,,,
2,433.0,5,phase_2,green_rhombus,go,,,,go-1,1,,,,,,
1,407.0,5,phase_2,red_circle,go,,,,go-2,1,,,,,,
0,0,5,phase_2,red_rhombus,stop,purple,150.0,tracking-SSD,go-2,4,,,,,,
0,0,5,phase_2,red_circle,stop,purple,200.0,tracking-SSD,go-2,4,,,,,,
1,467.0,5,phase_2,red_rhombus,go,,,,go-2,2,,,,,,
2,476.0,5,phase_2,red_triangle,go,,,,go-2,1,,,,,,
1,541.0,5,phase_2,red_pentagon,go,,,,go-2,1,,,,,,
2,494.0,5,phase_2,green_triangle,stop,purple,250.0,tracking-SSD,go-1,3,,,,,,
2,547.0,5,phase_2,green_triangle,go,,,,go-1,1,,,,,,
1,523.0,5,phase_2,green_pentagon,go,,,,go-1,1,,,,,,
2,533.0,5,phase_2,red_triangle,go,,,,go-2,1,,,,,,
2,542.0,5,phase_2,green_rhombus,go,,,,go-1,1,,,,,,
1,472.0,5,phase_2,red_circle,go,,,,go-2,1,,,,,,
1,480.0,5,phase_2,green_pentagon,go,,,,go-1,1,,,,,,
1,534.0,5,phase_2,red_pentagon,go,,,,go-2,1,,,,,,
2,521.0,5,phase_2,green_triangle,go,,,,go-1,1,,,,,,
1,438.0,5,phase_2,red_circle,go,,,,go-2,1,,,,,,
2,470.0,5,phase_2,red_triangle,go,,,,go-2,1,,,,,,
0,0,5,phase_2,red_pentagon,stop,blue,0.0,0-SSD,go-2,4,,,,,,
0,0,5,phase_2,green_triangle,stop,blue,0.0,0-SSD,go-1,4,,,,,,
2,451.0,5,phase_2,red_rhombus,go,,,,go-2,1,,,,,,
0,0,5,phase_2,green_rhombus,stop,blue,0.0,0-SSD,go-1,4,,,,,,
1,469.0,5,phase_2,red_circle,go,,,,go-2,1,,,,,,
2,444.0,5,phase_2,green_circle,go,,,,go-1,2,,,,,,
1,452.0,5,phase_2,green_circle,go,,,,go-1,1,,,,,,
0,0,5,phase_2,red_rhombus,stop,purple,200.0,tracking-SSD,go-2,4,,,,,,
0,0,5,phase_2,red_pentagon,stop,blue,0.0,0-SSD,go-2,4,,,,,,
2,593.0,5,phase_2,green_rhombus,stop,purple,250.0,tracking-SSD,go-1,3,,,,,,
0,0,5,phase_2,red_pentagon,stop,blue,0.0,0-SSD,go-2,4,,,,,,
0,0,5,phase_2,green_pentagon,stop,purple,200.0,tracking-SSD,go-1,4,,,,,,
2,541.0,5,phase_2,red_triangle,go,,,,go-2,1,,,,,,
1,527.0,5,phase_2,green_pentagon,go,,,,go-1,1,,,,,,
0,0,5,phase_2,green_circle,stop,blue,0.0,0-SSD,go-1,4,,,,,,
1,523.0,5,phase_2,green_pentagon,go,,,,go-1,1,,,,,,
1,520.0,5,phase_2,green_circle,go,,,,go-1,1,,,,,,
2,531.0,5,phase_2,red_rhombus,go,,,,go-2,1,,,,,,
1,484.0,5,phase_2,red_pentagon,go,,,,go-2,1,,,,,,
1,448.0,5,phase_2,green_circle,go,,,,go-1,1,,,,,,
0,0,5,phase_2,red_circle,stop,blue,0.0,0-SSD,go-2,4,,,,,,
1,578.0,5,phase_2,red_pentagon,stop,purple,250.0,tracking-SSD,go-2,3,,,,,,
0,0,5,phase_2,green_triangle,stop,purple,200.0,tracking-SSD,go-1,4,,,,,,
1,540.0,5,phase_2,green_circle,go,,,,go-1,1,,,,,,
2,578.0,6,phase_2,red_rhombus,stop,purple,250.0,tracking-SSD,go-2,3,,,,,,
1,485.0,6,phase_2,red_pentagon,go,,,,go-2,1,,,,,,
0,0,6,phase_2,red_circle,stop,blue,0.0,0-SSD,go-2,4,,,,,,
1,491.0,6,phase_2,red_circle,go,,,,go-2,1,,,,,,
1,468.0,6,phase_2,green_circle,go,,,,go-1,1,,,,,,
2,476.0,6,phase_2,red_triangle,go,,,,go-2,1,,,,,,
1,495.0,6,phase_2,green_pentagon,go,,,,go-1,1,,,,,,
0,0,6,phase_2,red_pentagon,stop,blue,0.0,0-SSD,go-2,4,,,,,,
2,469.0,6,phase_2,red_triangle,go,,,,go-2,1,,,,,,
2,480.0,6,phase_2,green_triangle,go,,,,go-1,1,,,,,,
0,0,6,phase_2,red_circle,stop,blue,0.0,0-SSD,go-2,4,,,,,,
2,452.0,6,phase_2,red_rhombus,go,,,,go-2,1,,,,,,
2,472.0,6,phase_2,red_rhombus,go,,,,go-2,1,,,,,,
2,449.0,6,phase_2,red_rhombus,go,,,,go-2,1,,,,,,
2,459.0,6,phase_2,green_triangle,go,,,,go-1,1,,,,,,
1,568.0,6,phase_2,red_pentagon,go,,,,go-2,1,,,,,,
1,363.0,6,phase_2,red_pentagon,go,,,,go-2,1,,,,,,
0,0,6,phase_2,green_rhombus,stop,blue,0.0,0-SSD,go-1,4,,,,,,
2,527.0,6,phase_2,green_triangle,stop,purple,200.0,tracking-SSD,go-1,3,,,,,,
2,592.0,6,phase_2,red_triangle,go,,,,go-2,1,,,,,,
0,0,6,phase_2,red_pentagon,stop,blue,0.0,0-SSD,go-2,4,,,,,,
0,0,6,phase_2,green_triangle,stop,blue,0.0,0-SSD,go-1,4,,,,,,
1,471.0,6,phase_2,green_pentagon,go,,,,go-1,1,,,,,,
0,0,6,phase_2,green_rhombus,stop,blue,0.0,0-SSD,go-1,4,,,,,,
1,478.0,6,phase_2,red_pentagon,go,,,,go-2,1,,,,,,
1,464.0,6,phase_2,green_pentagon,go,,,,go-1,1,,,,,,
1,427.0,6,phase_2,green_pentagon,go,,,,go-1,1,,,,,,
2,482.0,6,phase_2,red_triangle,go,,,,go-2,1,,,,,,
2,423.0,6,phase_2,red_rhombus,go,,,,go-2,1,,,,,,
1,533.0,6,phase_2,green_pentagon,go,,,,go-1,1,,,,,,
1,497.0,6,phase_2,green_circle,go,,,,go-1,1,,,,,,
1,483.0,6,phase_2,green_rhombus,go,,,,go-1,2,,,,,,
1,469.0,6,phase_2,green_circle,go,,,,go-1,1,,,,,,
0,0,6,phase_2,red_triangle,stop,purple,150.0,tracking-SSD,go-2,4,,,,,,
0,0,6,phase_2,red_circle,stop,purple,200.0,tracking-SSD,go-2,4,,,,,,
2,474.0,6,phase_2,green_rhombus,go,,,,go-1,1,,,,,,
0,0,6,phase_2,green_circle,stop,purple,250.0,tracking-SSD,go-1,4,,,,,,
0,0,6,phase_2,green_triangle,stop,purple,300.0,tracking-SSD,go-1,4,,,,,,
1,534.0,6,phase_2,red_pentagon,go,,,,go-2,1,,,,,,
2,521.0,6,phase_2,green_rhombus,go,,,,go-1,1,,,,,,
2,564.0,6,phase_2,red_triangle,stop,purple,350.0,tracking-SSD,go-2,3,,,,,,
2,606.0,6,phase_2,red_triangle,go,,,,go-2,1,,,,,,
2,402.0,6,phase_2,green_rhombus,go,,,,go-1,1,,,,,,
1,511.0,6,phase_2,green_circle,go,,,,go-1,1,,,,,,
1,555.0,6,phase_2,red_circle,go,,,,go-2,1,,,,,,
2,508.0,6,phase_2,green_rhombus,stop,purple,300.0,tracking-SSD,go-1,3,,,,,,
1,517.0,6,phase_2,green_circle,go,,,,go-1,1,,,,,,
0,0,6,phase_2,green_circle,stop,blue,0.0,0-SSD,go-1,4,,,,,,
2,500.0,7,phase_2,red_rhombus,go,,,,go-2,1,,,,,,
1,452.0,7,phase_2,red_circle,go,,,,go-2,1,,,,,,
1,417.0,7,phase_2,green_triangle,stop,purple,250.0,tracking-SSD,go-1,3,,,,,,
1,583.0,7,phase_2,red_circle,go,,,,go-2,1,,,,,,
2,480.0,7,phase_2,green_triangle,go,,,,go-1,1,,,,,,
1,445.0,7,phase_2,green_circle,go,,,,go-1,1,,,,,,
2,554.0,7,phase_2,red_triangle,stop,purple,200.0,tracking-SSD,go-2,3,,,,,,
0,0,7,phase_2,red_pentagon,stop,purple,150.0,tracking-SSD,go-2,4,,,,,,
1,482.0,7,phase_2,red_pentagon,go,,,,go-2,1,,,,,,
1,457.0,7,phase_2,red_pentagon,go,,,,go-2,1,,,,,,
0,0,7,phase_2,green_circle,stop,blue,0.0,0-SSD,go-1,4,,,,,,
1,532.0,7,phase_2,green_circle,go,,,,go-1,1,,,,,,
1,427.0,7,phase_2,green_circle,go,,,,go-1,1,,,,,,
1,380.0,7,phase_2,green_circle,go,,,,go-1,1,,,,,,
1,479.0,7,phase_2,green_rhombus,go,,,,go-1,2,,,,,,
1,568.0,7,phase_2,green_pentagon,go,,,,go-1,1,,,,,,
2,465.0,7,phase_2,green_triangle,stop,purple,200.0,tracking-SSD,go-1,3,,,,,,
0,0,7,phase_2,red_pentagon,stop,blue,0.0,0-SSD,go-2,4,,,,,,
2,526.0,7,phase_2,red_rhombus,go,,,,go-2,1,,,,,,
0,0,7,phase_2,green_pentagon,stop,purple,150.0,tracking-SSD,go-1,4,,,,,,
0,0,7,phase_2,red_rhombus,stop,blue,0.0,0-SSD,go-2,4,,,,,,
1,530.0,7,phase_2,green_circle,go,,,,go-1,1,,,,,,
2,505.0,7,phase_2,green_rhombus,go,,,,go-1,1,,,,,,
2,424.0,7,phase_2,green_triangle,go,,,,go-1,1,,,,,,
1,500.0,7,phase_2,red_pentagon,go,,,,go-2,1,,,,,,
1,442.0,7,phase_2,red_circle,go,,,,go-2,1,,,,,,
0,0,7,phase_2,red_pentagon,stop,purple,200.0,tracking-SSD,go-2,4,,,,,,
1,449.0,7,phase_2,red_circle,go,,,,go-2,1,,,,,,
1,479.0,7,phase_2,green_pentagon,go,,,,go-1,1,,,,,,
2,466.0,7,phase_2,green_triangle,stop,purple,250.0,tracking-SSD,go-1,3,,,,,,
2,453.0,7,phase_2,red_triangle,go,,,,go-2,1,,,,,,
1,451.0,7,phase_2,red_circle,go,,,,go-2,1,,,,,,
0,0,7,phase_2,green_triangle,stop,blue,0.0,0-SSD,go-1,4,,,,,,
2,514.0,7,phase_2,red_triangle,go,,,,go-2,1,,,,,,
2,376.0,7,phase_2,red_triangle,go,,,,go-2,1,,,,,,
2,430.0,7,phase_2,red_rhombus,stop,purple,200.0,tracking-SSD,go-2,3,,,,,,
1,528.0,7,phase_2,green_pentagon,go,,,,go-1,1,,,,,,
1,481.0,7,phase_2,green_pentagon,go,,,,go-1,1,,,,,,
0,0,7,phase_2,green_rhombus,stop,blue,0.0,0-SSD,go-1,4,,,,,,
2,499.0,7,phase_2,green_rhombus,go,,,,go-1,1,,,,,,
2,507.0,7,phase_2,red_triangle,go,,,,go-2,1,,,,,,
1,572.0,7,phase_2,red_pentagon,go,,,,go-2,1,,,,,,
0,0,7,phase_2,red_rhombus,stop,blue,0.0,0-SSD,go-2,4,,,,,,
0,0,7,phase_2,red_circle,stop,blue,0.0,0-SSD,go-2,4,,,,,,
2,486.0,7,phase_2,green_triangle,go,,,,go-1,1,,,,,,
0,0,7,phase_2,green_rhombus,stop,blue,0.0,0-SSD,go-1,4,,,,,,
2,481.0,7,phase_2,red_rhombus,go,,,,go-2,1,,,,,,
2,422.0,7,phase_2,green_rhombus,go,,,,go-1,1,,,,,,
2,409.0,8,phase_2,red_rhombus,go,,,,go-2,1,,,,,,
2,441.0,8,phase_2,red_rhombus,go,,,,go-2,1,,,,,,
2,449.0,8,phase_2,red_rhombus,go,,,,go-2,1,,,,,,
1,481.0,8,phase_2,red_pentagon,go,,,,go-2,1,,,,,,
2,535.0,8,phase_2,red_rhombus,go,,,,go-2,1,,,,,,
1,476.0,8,phase_2,green_pentagon,go,,,,go-1,1,,,,,,
1,407.0,8,phase_2,green_pentagon,go,,,,go-1,1,,,,,,
0,0,8,phase_2,red_rhombus,stop,blue,0.0,0-SSD,go-2,4,,,,,,
1,503.0,8,phase_2,red_circle,go,,,,go-2,1,,,,,,
1,434.0,8,phase_2,red_pentagon,go,,,,go-2,1,,,,,,
1,409.0,8,phase_2,green_pentagon,go,,,,go-1,1,,,,,,
2,552.0,8,phase_2,red_rhombus,go,,,,go-2,1,,,,,,
2,482.0,8,phase_2,red_triangle,go,,,,go-2,1,,,,,,
0,0,8,phase_2,red_rhombus,stop,blue,0.0,0-SSD,go-2,4,,,,,,
1,534.0,8,phase_2,green_pentagon,go,,,,go-1,1,,,,,,
0,0,8,phase_2,green_triangle,stop,purple,150.0,tracking-SSD,go-1,4,,,,,,
1,483.0,8,phase_2,green_circle,go,,,,go-1,1,,,,,,
1,424.0,8,phase_2,green_circle,go,,,,go-1,1,,,,,,
1,433.0,8,phase_2,green_triangle,go,,,,go-1,2,,,,,,
1,465.0,8,phase_2,red_pentagon,go,,,,go-2,1,,,,,,
2,451.0,8,phase_2,red_triangle,go,,,,go-2,1,,,,,,
0,0,8,phase_2,red_circle,stop,blue,0.0,0-SSD,go-2,4,,,,,,
1,458.0,8,phase_2,green_circle,go,,,,go-1,1,,,,,,
1,377.0,8,phase_2,red_circle,stop,purple,200.0,tracking-SSD,go-2,3,,,,,,
1,421.0,8,phase_2,green_pentagon,go,,,,go-1,1,,,,,,
0,0,8,phase_2,green_triangle,stop,blue,0.0,0-SSD,go-1,4,,,,,,
2,450.0,8,phase_2,red_rhombus,go,,,,go-2,1,,,,,,
0,0,8,phase_2,green_triangle,stop,blue,0.0,0-SSD,go-1,4,,,,,,
2,681.0,8,phase_2,green_triangle,go,,,,go-1,1,,,,,,
2,568.0,8,phase_2,green_circle,go,,,,go-1,2,,,,,,
0,0,8,phase_2,red_circle,stop,purple,150.0,tracking-SSD,go-2,4,,,,,,
0,0,8,phase_2,green_circle,stop,purple,200.0,tracking-SSD,go-1,4,,,,,,
0,0,8,phase_2,green_pentagon,stop,blue,0.0,0-SSD,go-1,4,,,,,,
1,457.0,8,phase_2,red_triangle,go,,,,go-2,2,,,,,,
1,578.0,8,phase_2,green_circle,go,,,,go-1,1,,,,,,
2,474.0,8,phase_2,green_rhombus,go,,,,go-1,1,,,,,,
2,461.0,8,phase_2,green_rhombus,stop,purple,250.0,tracking-SSD,go-1,3,,,,,,
2,492.0,8,phase_2,green_triangle,go,,,,go-1,1,,,,,,
2,523.0,8,phase_2,red_triangle,go,,,,go-2,1,,,,,,
1,521.0,8,phase_2,red_pentagon,go,,,,go-2,1,,,,,,
2,474.0,8,phase_2,red_triangle,go,,,,go-2,1,,,,,,
0,0,8,phase_2,green_circle,stop,purple,200.0,tracking-SSD,go-1,4,,,,,,
0,0,8,phase_2,red_circle,stop,blue,0.0,0-SSD,go-2,4,,,,,,
1,489.0,8,phase_2,green_pentagon,go,,,,go-1,1,,,,,,
2,464.0,8,phase_2,green_rhombus,go,,,,go-1,1,,,,,,
0,0,8,phase_2,red_pentagon,stop,purple,250.0,tracking-SSD,go-2,4,,,,,,
0,0,8,phase_2,green_rhombus,stop,blue,0.0,0-SSD,go-1,4,,,,,,
2,481.0,8,phase_2,red_triangle,stop,purple,300.0,tracking-SSD,go-2,3,,,,,,
0,0,9,phase_2,green_pentagon,stop,purple,250.0,tracking-SSD,go-1,4,,,,,,
2,395.0,9,phase_2,red_rhombus,go,,,,go-2,1,,,,,,
2,392.0,9,phase_2,red_rhombus,go,,,,go-2,1,,,,,,
2,412.0,9,phase_2,green_rhombus,stop,purple,300.0,tracking-SSD,go-1,3,,,,,,
1,489.0,9,phase_2,green_pentagon,go,,,,go-1,1,,,,,,
1,430.0,9,phase_2,red_rhombus,go,,,,go-2,2,,,,,,
2,451.0,9,phase_2,green_rhombus,go,,,,go-1,1,,,,,,
1,414.0,9,phase_2,red_circle,go,,,,go-2,1,,,,,,
2,389.0,9,phase_2,green_triangle,go,,,,go-1,1,,,,,,
1,454.0,9,phase_2,red_pentagon,go,,,,go-2,1,,,,,,
0,0,9,phase_2,green_circle,stop,blue,0.0,0-SSD,go-1,4,,,,,,
1,503.0,9,phase_2,green_pentagon,go,,,,go-1,1,,,,,,
2,468.0,9,phase_2,green_triangle,go,,,,go-1,1,,,,,,
1,499.0,9,phase_2,green_pentagon,go,,,,go-1,1,,,,,,
2,497.0,9,phase_2,red_triangle,go,,,,go-2,1,,,,,,
0,0,9,phase_2,green_rhombus,stop,blue,0.0,0-SSD,go-1,4,,,,,,
1,503.0,9,phase_2,red_circle,stop,purple,250.0,tracking-SSD,go-2,3,,,,,,
0,0,9,phase_2,green_circle,stop,purple,200.0,tracking-SSD,go-1,4,,,,,,
1,453.0,9,phase_2,red_circle,go,,,,go-2,1,,,,,,
1,419.0,9,phase_2,green_circle,go,,,,go-1,1,,,,,,
1,405.0,9,phase_2,red_pentagon,stop,purple,250.0,tracking-SSD,go-2,3,,,,,,
1,447.0,9,phase_2,red_circle,go,,,,go-2,1,,,,,,
0,0,9,phase_2,green_circle,stop,blue,0.0,0-SSD,go-1,4,,,,,,
1,600.0,9,phase_2,red_pentagon,go,,,,go-2,1,,,,,,
1,452.0,9,phase_2,green_rhombus,go,,,,go-1,2,,,,,,
0,0,9,phase_2,red_rhombus,stop,blue,0.0,0-SSD,go-2,4,,,,,,
1,502.0,9,phase_2,green_pentagon,go,,,,go-1,1,,,,,,
2,454.0,9,phase_2,green_triangle,go,,,,go-1,1,,,,,,
2,430.0,9,phase_2,red_triangle,go,,,,go-2,1,,,,,,
0,0,9,phase_2,red_circle,stop,blue,0.0,0-SSD,go-2,4,,,,,,
2,436.0,9,phase_2,green_rhombus,stop,purple,200.0,tracking-SSD,go-1,3,,,,,,
1,456.0,9,phase_2,red_pentagon,go,,,,go-2,1,,,,,,
0,0,9,phase_2,red_triangle,stop,blue,0.0,0-SSD,go-2,4,,,,,,
0,0,9,phase_2,red_pentagon,stop,purple,150.0,tracking-SSD,go-2,4,,,,,,
0,0,9,phase_2,red_circle,stop,purple,200.0,tracking-SSD,go-2,4,,,,,,
0,0,9,phase_2,green_rhombus,stop,blue,0.0,0-SSD,go-1,4,,,,,,
0,0,9,phase_2,red_triangle,stop,blue,0.0,0-SSD,go-2,4,,,,,,
1,554.0,9,phase_2,red_pentagon,go,,,,go-2,1,,,,,,
2,541.0,9,phase_2,green_rhombus,go,,,,go-1,1,,,,,,
2,494.0,9,phase_2,red_triangle,go,,,,go-2,1,,,,,,
2,470.0,9,phase_2,green_triangle,go,,,,go-1,1,,,,,,
2,422.0,9,phase_2,green_triangle,go,,,,go-1,1,,,,,,
2,588.0,9,phase_2,green_rhombus,go,,,,go-1,1,,,,,,
2,530.0,9,phase_2,red_triangle,go,,,,go-2,1,,,,,,
1,505.0,9,phase_2,red_circle,go,,,,go-2,1,,,,,,
1,513.0,9,phase_2,green_circle,go,,,,go-1,1,,,,,,
1,556.0,9,phase_2,red_pentagon,go,,,,go-2,1,,,,,,
2,419.0,9,phase_2,green_triangle,go,,,,go-1,1,,,,,,
2,442.0,10,phase_2,green_rhombus,stop,purple,250.0,tracking-SSD,go-1,3,,,,,,
2,395.0,10,phase_2,red_triangle,go,,,,go-2,1,,,,,,
2,438.0,10,phase_2,red_rhombus,stop,purple,200.0,tracking-SSD,go-2,3,,,,,,
1,536.0,10,phase_2,red_circle,go,,,,go-2,1,,,,,,
0,0,10,phase_2,red_pentagon,stop,blue,0.0,0-SSD,go-2,4,,,,,,
0,0,10,phase_2,red_rhombus,stop,purple,150.0,tracking-SSD,go-2,4,,,,,,
2,506.0,10,phase_2,red_triangle,go,,,,go-2,1,,,,,,
2,380.0,10,phase_2,green_triangle,go,,,,go-1,1,,,,,,
2,366.0,10,phase_2,red_rhombus,go,,,,go-2,1,,,,,,
1,431.0,10,phase_2,red_circle,go,,,,go-2,1,,,,,,
2,429.0,10,phase_2,red_triangle,go,,,,go-2,1,,,,,,
2,449.0,10,phase_2,red_triangle,go,,,,go-2,1,,,,,,
0,0,10,phase_2,red_pentagon,stop,blue,0.0,0-SSD,go-2,4,,,,,,
2,432.0,10,phase_2,red_triangle,go,,,,go-2,1,,,,,,
0,0,10,phase_2,red_pentagon,stop,purple,200.0,tracking-SSD,go-2,4,,,,,,
2,371.0,10,phase_2,red_rhombus,go,,,,go-2,1,,,,,,
2,425.0,10,phase_2,green_triangle,go,,,,go-1,1,,,,,,
0,0,10,phase_2,green_circle,stop,blue,0.0,0-SSD,go-1,4,,,,,,
0,0,10,phase_2,red_triangle,stop,blue,0.0,0-SSD,go-2,4,,,,,,
1,508.0,10,phase_2,green_pentagon,go,,,,go-1,1,,,,,,
2,426.0,10,phase_2,red_triangle,go,,,,go-2,1,,,,,,
2,412.0,10,phase_2,green_rhombus,stop,purple,250.0,tracking-SSD,go-1,3,,,,,,
1,489.0,10,phase_2,green_circle,go,,,,go-1,1,,,,,,
2,486.0,10,phase_2,green_rhombus,go,,,,go-1,1,,,,,,
2,450.0,10,phase_2,red_rhombus,go,,,,go-2,1,,,,,,
2,415.0,10,phase_2,green_rhombus,go,,,,go-1,1,,,,,,
1,458.0,10,phase_2,red_pentagon,go,,,,go-2,1,,,,,,
0,0,10,phase_2,green_pentagon,stop,purple,200.0,tracking-SSD,go-1,4,,,,,,
1,420.0,10,phase_2,red_circle,stop,purple,250.0,tracking-SSD,go-2,3,,,,,,
1,518.0,10,phase_2,red_circle,go,,,,go-2,1,,,,,,
0,0,10,phase_2,green_circle,stop,blue,0.0,0-SSD,go-1,4,,,,,,
2,480.0,10,phase_2,green_rhombus,stop,purple,200.0,tracking-SSD,go-1,3,,,,,,
1,555.0,10,phase_2,green_circle,go,,,,go-1,1,,,,,,
0,0,10,phase_2,red_circle,stop,blue,0.0,0-SSD,go-2,4,,,,,,
2,495.0,10,phase_2,green_triangle,go,,,,go-1,1,,,,,,
1,459.0,10,phase_2,green_circle,go,,,,go-1,1,,,,,,
1,512.0,10,phase_2,green_pentagon,go,,,,go-1,1,,,,,,
1,430.0,10,phase_2,green_circle,go,,,,go-1,1,,,,,,
1,374.0,10,phase_2,red_triangle,go,,,,go-2,2,,,,,,
1,395.0,10,phase_2,red_pentagon,go,,,,go-2,1,,,,,,
1,392.0,10,phase_2,green_pentagon,go,,,,go-1,1,,,,,,
0,0,10,phase_2,green_circle,stop,blue,0.0,0-SSD,go-1,4,,,,,,
0,0,10,phase_2,green_rhombus,stop,blue,0.0,0-SSD,go-1,4,,,,,,
1,497.0,10,phase_2,green_pentagon,go,,,,go-1,1,,,,,,
1,382.0,10,phase_2,red_pentagon,go,,,,go-2,1,,,,,,
1,424.0,10,phase_2,green_pentagon,go,,,,go-1,1,,,,,,
2,456.0,10,phase_2,green_triangle,go,,,,go-1,1,,,,,,
2,397.0,10,phase_2,green_rhombus,go,,,,go-1,1,,,,,,
1,565.0,11,phase_2,green_pentagon,go,,,,go-1,1,,,,,,
0,0,11,phase_2,green_pentagon,stop,blue,0.0,0-SSD,go-1,4,,,,,,
0,0,11,phase_2,red_rhombus,stop,blue,0.0,0-SSD,go-2,4,,,,,,
2,366.0,11,phase_2,green_triangle,go,,,,go-1,1,,,,,,
1,397.0,11,phase_2,red_circle,go,,,,go-2,1,,,,,,
0,0,11,phase_2,red_rhombus,stop,purple,150.0,tracking-SSD,go-2,4,,,,,,
2,417.0,11,phase_2,green_rhombus,go,,,,go-1,1,,,,,,
0,0,11,phase_2,green_rhombus,stop,blue,0.0,0-SSD,go-1,4,,,,,,
2,459.0,11,phase_2,green_triangle,go,,,,go-1,1,,,,,,
0,0,11,phase_2,red_rhombus,stop,purple,200.0,tracking-SSD,go-2,4,,,,,,
1,432.0,11,phase_2,red_circle,go,,,,go-2,1,,,,,,
0,0,11,phase_2,red_triangle,stop,blue,0.0,0-SSD,go-2,4,,,,,,
2,417.0,11,phase_2,green_rhombus,go,,,,go-1,1,,,,,,
1,482.0,11,phase_2,green_pentagon,go,,,,go-1,1,,,,,,
1,445.0,11,phase_2,green_circle,stop,purple,250.0,tracking-SSD,go-1,3,,,,,,
1,454.0,11,phase_2,green_pentagon,go,,,,go-1,1,,,,,,
1,372.0,11,phase_2,red_circle,go,,,,go-2,1,,,,,,
0,0,11,phase_2,red_triangle,stop,blue,0.0,0-SSD,go-2,4,,,,,,
1,458.0,11,phase_2,red_circle,go,,,,go-2,1,,,,,,
0,0,11,phase_2,green_triangle,stop,purple,200.0,tracking-SSD,go-1,4,,,,,,
2,454.0,11,phase_2,red_circle,go,,,,go-2,2,,,,,,
2,462.0,11,phase_2,green_rhombus,go,,,,go-1,1,,,,,,
2,515.0,11,phase_2,red_rhombus,go,,,,go-2,1,,,,,,
1,424.0,11,phase_2,green_circle,go,,,,go-1,1,,,,,,
1,433.0,11,phase_2,green_pentagon,go,,,,go-1,1,,,,,,
1,566.0,11,phase_2,green_pentagon,go,,,,go-1,1,,,,,,
1,440.0,11,phase_2,green_pentagon,go,,,,go-1,1,,,,,,
1,505.0,11,phase_2,green_circle,go,,,,go-1,1,,,,,,
1,412.0,11,phase_2,red_pentagon,go,,,,go-2,1,,,,,,
1,364.0,11,phase_2,red_rhombus,go,,,,go-2,2,,,,,,
2,395.0,11,phase_2,green_triangle,stop,purple,250.0,tracking-SSD,go-1,3,,,,,,
0,0,11,phase_2,red_pentagon,stop,blue,0.0,0-SSD,go-2,4,,,,,,
1,469.0,11,phase_2,green_circle,go,,,,go-1,1,,,,,,
2,523.0,11,phase_2,red_triangle,go,,,,go-2,1,,,,,,
1,475.0,11,phase_2,red_circle,go,,,,go-2,1,,,,,,
1,350.0,11,phase_2,red_pentagon,go,,,,go-2,1,,,,,,
0,0,11,phase_2,green_pentagon,stop,blue,0.0,0-SSD,go-1,4,,,,,,
0,0,11,phase_2,red_rhombus,stop,purple,200.0,tracking-SSD,go-2,4,,,,,,
1,499.0,11,phase_2,red_circle,go,,,,go-2,1,,,,,,
2,429.0,11,phase_2,red_rhombus,go,,,,go-2,1,,,,,,
2,404.0,11,phase_2,red_triangle,go,,,,go-2,1,,,,,,
2,368.0,11,phase_2,red_triangle,stop,purple,250.0,tracking-SSD,go-2,3,,,,,,
1,489.0,11,phase_2,green_pentagon,go,,,,go-1,1,,,,,,
0,0,11,phase_2,green_circle,stop,blue,0.0,0-SSD,go-1,4,,,,,,
2,416.0,11,phase_2,red_triangle,go,,,,go-2,1,,,,,,
2,380.0,11,phase_2,red_triangle,go,,,,go-2,1,,,,,,
0,0,11,phase_2,green_rhombus,stop,purple,200.0,tracking-SSD,go-1,4,,,,,,
2,409.0,11,phase_2,green_triangle,go,,,,go-1,1,,,,,,
1,522.0,12,phase_2,red_pentagon,go,,,,go-2,1,,,,,,
2,542.0,12,phase_2,red_rhombus,go,,,,go-2,1,,,,,,
1,381.0,12,phase_2,green_rhombus,go,,,,go-1,2,,,,,,
1,436.0,12,phase_2,red_circle,go,,,,go-2,1,,,,,,
1,489.0,12,phase_2,green_pentagon,go,,,,go-1,1,,,,,,
1,431.0,12,phase_2,red_circle,go,,,,go-2,1,,,,,,
2,406.0,12,phase_2,green_rhombus,stop,purple,250.0,tracking-SSD,go-1,3,,,,,,
1,460.0,12,phase_2,green_circle,go,,,,go-1,1,,,,,,
1,513.0,12,phase_2,red_pentagon,go,,,,go-2,1,,,,,,
0,0,12,phase_2,green_triangle,stop,blue,0.0,0-SSD,go-1,4,,,,,,
2,407.0,12,phase_2,green_triangle,go,,,,go-1,1,,,,,,
2,437.0,12,phase_2,red_triangle,go,,,,go-2,1,,,,,,
1,480.0,12,phase_2,green_rhombus,go,,,,go-1,2,,,,,,
2,434.0,12,phase_2,red_triangle,go,,,,go-2,1,,,,,,
1,567.0,12,phase_2,red_circle,go,,,,go-2,1,,,,,,
0,0,12,phase_2,red_pentagon,stop,blue,0.0,0-SSD,go-2,4,,,,,,
0,0,12,phase_2,green_pentagon,stop,blue,0.0,0-SSD,go-1,4,,,,,,
0,0,12,phase_2,green_pentagon,stop,purple,200.0,tracking-SSD,go-1,4,,,,,,
2,437.0,12,phase_2,red_rhombus,go,,,,go-2,1,,,,,,
1,535.0,12,phase_2,green_pentagon,go,,,,go-1,1,,,,,,
0,0,12,phase_2,green_triangle,stop,purple,250.0,tracking-SSD,go-1,4,,,,,,
1,497.0,12,phase_2,red_circle,go,,,,go-2,1,,,,,,
1,404.0,12,phase_2,green_circle,go,,,,go-1,1,,,,,,
2,480.0,12,phase_2,green_rhombus,go,,,,go-1,1,,,,,,
2,477.0,12,phase_2,green_triangle,go,,,,go-1,1,,,,,,
2,373.0,12,phase_2,red_triangle,go,,,,go-2,1,,,,,,
0,0,12,phase_2,green_triangle,stop,blue,0.0,0-SSD,go-1,4,,,,,,
2,447.0,12,phase_2,red_rhombus,go,,,,go-2,1,,,,,,
2,434.0,12,phase_2,green_rhombus,stop,purple,300.0,tracking-SSD,go-1,3,,,,,,
1,476.0,12,phase_2,red_pentagon,stop,purple,250.0,tracking-SSD,go-2,3,,,,,,
0,0,12,phase_2,red_circle,stop,blue,0.0,0-SSD,go-2,4,,,,,,
1,642.0,12,phase_2,green_circle,go,,,,go-1,1,,,,,,
1,392.0,12,phase_2,green_triangle,go,,,,go-1,2,,,,,,
0,0,12,phase_2,red_triangle,stop,blue,0.0,0-SSD,go-2,4,,,,,,
2,524.0,12,phase_2,green_triangle,go,,,,go-1,1,,,,,,
1,488.0,12,phase_2,green_circle,go,,,,go-1,1,,,,,,
2,554.0,12,phase_2,red_rhombus,go,,,,go-2,1,,,,,,
1,529.0,12,phase_2,red_pentagon,stop,purple,200.0,tracking-SSD,go-2,3,,,,,,
1,560.0,12,phase_2,red_circle,go,,,,go-2,1,,,,,,
0,0,12,phase_2,red_rhombus,stop,blue,0.0,0-SSD,go-2,4,,,,,,
1,464.0,12,phase_2,green_circle,go,,,,go-1,1,,,,,,
0,0,12,phase_2,red_triangle,stop,purple,150.0,tracking-SSD,go-2,4,,,,,,
1,482.0,12,phase_2,green_pentagon,go,,,,go-1,1,,,,,,
1,434.0,12,phase_2,red_pentagon,go,,,,go-2,1,,,,,,
0,0,12,phase_2,green_pentagon,stop,blue,0.0,0-SSD,go-1,4,,,,,,
1,419.0,12,phase_2,red_circle,go,,,,go-2,1,,,,,,
0,0,12,phase_2,red_rhombus,stop,purple,200.0,tracking-SSD,go-2,4,,,,,,
2,469.0,12,phase_2,green_rhombus,go,,,,go-1,1,,,,,,
1,499.0,13,phase_2,green_pentagon,go,,,,go-1,1,,,,,,
1,395.0,13,phase_2,green_pentagon,stop,purple,250.0,tracking-SSD,go-1,3,,,,,,
1,448.0,13,phase_2,red_circle,go,,,,go-2,1,,,,,,
1,423.0,13,phase_2,green_pentagon,go,,,,go-1,1,,,,,,
1,342.0,13,phase_2,green_pentagon,go,,,,go-1,1,,,,,,
2,440.0,13,phase_2,red_rhombus,go,,,,go-2,1,,,,,,
1,393.0,13,phase_2,red_pentagon,go,,,,go-2,1,,,,,,
2,379.0,13,phase_2,red_triangle,go,,,,go-2,1,,,,,,
1,489.0,13,phase_2,red_pentagon,go,,,,go-2,1,,,,,,
0,0,13,phase_2,red_rhombus,stop,blue,0.0,0-SSD,go-2,4,,,,,,
0,0,13,phase_2,green_triangle,stop,blue,0.0,0-SSD,go-1,4,,,,,,
0,0,13,phase_2,red_rhombus,stop,blue,0.0,0-SSD,go-2,4,,,,,,
1,411.0,13,phase_2,green_pentagon,stop,purple,200.0,tracking-SSD,go-1,3,,,,,,
0,0,13,phase_2,red_pentagon,stop,purple,150.0,tracking-SSD,go-2,4,,,,,,
1,485.0,13,phase_2,red_pentagon,go,,,,go-2,1,,,,,,
2,437.0,13,phase_2,green_rhombus,go,,,,go-1,1,,,,,,
0,0,13,phase_2,green_triangle,stop,blue,0.0,0-SSD,go-1,4,,,,,,
1,511.0,13,phase_2,red_circle,go,,,,go-2,1,,,,,,
1,485.0,13,phase_2,red_circle,go,,,,go-2,1,,,,,,
1,403.0,13,phase_2,red_rhombus,go,,,,go-2,2,,,,,,
0,0,13,phase_2,red_circle,stop,blue,0.0,0-SSD,go-2,4,,,,,,
1,410.0,13,phase_2,red_circle,go,,,,go-2,1,,,,,,
2,431.0,13,phase_2,green_rhombus,go,,,,go-1,1,,,,,,
1,530.0,13,phase_2,green_circle,go,,,,go-1,1,,,,,,
1,426.0,13,phase_2,green_pentagon,go,,,,go-1,1,,,,,,
2,479.0,13,phase_2,red_rhombus,go,,,,go-2,1,,,,,,
2,365.0,13,phase_2,red_triangle,stop,purple,200.0,tracking-SSD,go-2,3,,,,,,
2,397.0,13,phase_2,red_triangle,go,,,,go-2,1,,,,,,
2,474.0,13,phase_2,red_rhombus,go,,,,go-2,1,,,,,,
2,405.0,13,phase_2,green_rhombus,go,,,,go-1,1,,,,,,
0,0,13,phase_2,red_triangle,stop,blue,0.0,0-SSD,go-2,4,,,,,,
0,0,13,phase_2,green_rhombus,stop,blue,0.0,0-SSD,go-1,4,,,,,,
1,442.0,13,phase_2,red_circle,go,,,,go-2,1,,,,,,
0,0,13,phase_2,red_circle,stop,purple,150.0,tracking-SSD,go-2,4,,,,,,
1,717.0,13,phase_2,green_pentagon,go,,,,go-1,1,,,,,,
2,457.0,13,phase_2,green_rhombus,go,,,,go-1,1,,,,,,
2,499.0,13,phase_2,red_triangle,go,,,,go-2,1,,,,,,
1,440.0,13,phase_2,green_circle,go,,,,go-1,1,,,,,,
2,370.0,13,phase_2,green_triangle,go,,,,go-1,1,,,,,,
1,457.0,13,phase_2,green_circle,go,,,,go-1,1,,,,,,
1,421.0,13,phase_2,green_circle,stop,purple,200.0,tracking-SSD,go-1,3,,,,,,
1,430.0,13,phase_2,green_triangle,go,,,,go-1,2,,,,,,
2,394.0,13,phase_2,red_triangle,go,,,,go-2,1,,,,,,
0,0,13,phase_2,green_triangle,stop,blue,0.0,0-SSD,go-1,4,,,,,,
0,0,13,phase_2,green_circle,stop,purple,150.0,tracking-SSD,go-1,4,,,,,,
2,442.0,13,phase_2,green_rhombus,go,,,,go-1,1,,,,,,
2,360.0,13,phase_2,red_triangle,stop,purple,200.0,tracking-SSD,go-2,3,,,,,,
1,403.0,13,phase_2,green_pentagon,go,,,,go-1,1,,,,,,
1,420.0,14,phase_2,red_pentagon,go,,,,go-2,1,,,,,,
2,485.0,14,phase_2,red_triangle,go,,,,go-2,1,,,,,,
2,382.0,14,phase_2,red_triangle,go,,,,go-2,1,,,,,,
2,345.0,14,phase_2,red_triangle,stop,purple,150.0,tracking-SSD,go-2,3,,,,,,
0,0,14,phase_2,green_rhombus,stop,blue,0.0,0-SSD,go-1,4,,,,,,
0,0,14,phase_2,green_pentagon,stop,blue,0.0,0-SSD,go-1,4,,,,,,
2,450.0,14,phase_2,green_triangle,go,,,,go-1,1,,,,,,
1,403.0,14,phase_2,red_pentagon,go,,,,go-2,1,,,,,,
2,423.0,14,phase_2,green_triangle,go,,,,go-1,1,,,,,,
0,0,14,phase_2,red_circle,stop,blue,0.0,0-SSD,go-2,4,,,,,,
1,440.0,14,phase_2,red_rhombus,go,,,,go-2,2,,,,,,
2,392.0,14,phase_2,green_rhombus,go,,,,go-1,1,,,,,,
2,503.0,14,phase_2,red_rhombus,go,,,,go-2,1,,,,,,
1,421.0,14,phase_2,red_circle,go,,,,go-2,1,,,,,,
1,509.0,14,phase_2,red_pentagon,go,,,,go-2,1,,,,,,
0,0,14,phase_2,red_triangle,stop,blue,0.0,0-SSD,go-2,4,,,,,,
0,0,14,phase_2,green_pentagon,stop,purple,100.0,tracking-SSD,go-1,4,,,,,,
1,570.0,14,phase_2,red_pentagon,go,,,,go-2,1,,,,,,
2,477.0,14,phase_2,green_rhombus,go,,,,go-1,1,,,,,,
0,0,14,phase_2,red_rhombus,stop,purple,150.0,tracking-SSD,go-2,4,,,,,,
2,427.0,14,phase_2,green_rhombus,go,,,,go-1,1,,,,,,
1,550.0,14,phase_2,green_pentagon,go,,,,go-1,1,,,,,,
2,525.0,14,phase_2,red_triangle,go,,,,go-2,1,,,,,,
1,499.0,14,phase_2,green_pentagon,go,,,,go-1,1,,,,,,
2,452.0,14,phase_2,green_rhombus,go,,,,go-1,1,,,,,,
1,450.0,14,phase_2,green_circle,go,,,,go-1,1,,,,,,
2,548.0,14,phase_2,green_triangle,go,,,,go-1,1,,,,,,
0,0,14,phase_2,red_circle,stop,blue,0.0,0-SSD,go-2,4,,,,,,
0,0,14,phase_2,red_triangle,stop,blue,0.0,0-SSD,go-2,4,,,,,,
0,0,14,phase_2,red_circle,stop,purple,200.0,tracking-SSD,go-2,4,,,,,,
2,482.0,14,phase_2,red_triangle,stop,purple,250.0,tracking-SSD,go-2,3,,,,,,
1,513.0,14,phase_2,green_circle,go,,,,go-1,1,,,,,,
1,499.0,14,phase_2,green_circle,go,,,,go-1,1,,,,,,
2,429.0,14,phase_2,red_triangle,go,,,,go-2,1,,,,,,
1,451.0,14,phase_2,red_pentagon,go,,,,go-2,1,,,,,,
0,0,14,phase_2,green_pentagon,stop,blue,0.0,0-SSD,go-1,4,,,,,,
2,435.0,14,phase_2,green_triangle,go,,,,go-1,1,,,,,,
1,433.0,14,phase_2,red_pentagon,go,,,,go-2,1,,,,,,
2,408.0,14,phase_2,red_rhombus,go,,,,go-2,1,,,,,,
0,0,14,phase_2,green_circle,stop,purple,200.0,tracking-SSD,go-1,4,,,,,,
1,650.0,14,phase_2,red_circle,go,,,,go-2,1,,,,,,
2,468.0,14,phase_2,red_rhombus,go,,,,go-2,1,,,,,,
1,443.0,14,phase_2,green_circle,go,,,,go-1,1,,,,,,
2,362.0,14,phase_2,green_circle,go,,,,go-1,2,,,,,,
0,0,14,phase_2,green_rhombus,stop,blue,0.0,0-SSD,go-1,4,,,,,,
2,379.0,14,phase_2,green_rhombus,stop,purple,250.0,tracking-SSD,go-1,3,,,,,,
1,445.0,14,phase_2,green_circle,stop,purple,200.0,tracking-SSD,go-1,3,,,,,,
1,576.0,14,phase_2,green_pentagon,go,,,,go-1,1,,,,,,
2,510.0,15,phase_2,red_rhombus,go,,,,go-2,1,,,,,,
1,441.0,15,phase_2,red_pentagon,go,,,,go-2,1,,,,,,
0,0,15,phase_2,red_pentagon,stop,blue,0.0,0-SSD,go-2,4,,,,,,
1,481.0,15,phase_2,green_circle,go,,,,go-1,1,,,,,,
1,501.0,15,phase_2,green_pentagon,stop,purple,150.0,tracking-SSD,go-1,3,,,,,,
1,421.0,15,phase_2,green_circle,go,,,,go-1,1,,,,,,
2,474.0,15,phase_2,red_triangle,go,,,,go-2,1,,,,,,
0,0,15,phase_2,green_circle,stop,blue,0.0,0-SSD,go-1,4,,,,,,
0,0,15,phase_2,green_triangle,stop,blue,0.0,0-SSD,go-1,4,,,,,,
1,513.0,15,phase_2,green_pentagon,go,,,,go-1,1,,,,,,
0,0,15,phase_2,red_triangle,stop,blue,0.0,0-SSD,go-2,4,,,,,,
0,0,15,phase_2,red_circle,stop,blue,0.0,0-SSD,go-2,4,,,,,,
1,405.0,15,phase_2,green_circle,go,,,,go-1,1,,,,,,
2,470.0,15,phase_2,red_triangle,go,,,,go-2,1,,,,,,
1,434.0,15,phase_2,red_pentagon,go,,,,go-2,1,,,,,,
1,487.0,15,phase_2,green_pentagon,go,,,,go-1,1,,,,,,
1,462.0,15,phase_2,green_circle,go,,,,go-1,1,,,,,,
2,437.0,15,phase_2,red_triangle,go,,,,go-2,1,,,,,,
2,366.0,15,phase_2,red_rhombus,go,,,,go-2,1,,,,,,
1,410.0,15,phase_2,green_circle,go,,,,go-1,1,,,,,,
0,0,15,phase_2,red_triangle,stop,purple,100.0,tracking-SSD,go-2,4,,,,,,
0,0,15,phase_2,red_pentagon,stop,purple,150.0,tracking-SSD,go-2,4,,,,,,
2,413.0,15,phase_2,green_rhombus,go,,,,go-1,1,,,,,,
1,432.0,15,phase_2,green_circle,go,,,,go-1,1,,,,,,
2,397.0,15,phase_2,red_triangle,go,,,,go-2,1,,,,,,
2,462.0,15,phase_2,green_rhombus,stop,purple,200.0,tracking-SSD,go-1,3,,,,,,
0,0,15,phase_2,red_rhombus,stop,purple,150.0,tracking-SSD,go-2,4,,,,,,
1,400.0,15,phase_2,red_circle,go,,,,go-2,1,,,,,,
2,442.0,15,phase_2,green_triangle,go,,,,go-1,1,,,,,,
2,407.0,15,phase_2,green_circle,stop,purple,200.0,tracking-SSD,go-1,3,,,,,,
0,0,15,phase_2,red_circle,stop,purple,150.0,tracking-SSD,go-2,4,,,,,,
2,468.0,15,phase_2,green_rhombus,go,,,,go-1,1,,,,,,
0,0,15,phase_2,green_pentagon,stop,blue,0.0,0-SSD,go-1,4,,,,,,
1,599.0,15,phase_2,green_pentagon,go,,,,go-1,1,,,,,,
2,472.0,15,phase_2,red_rhombus,go,,,,go-2,1,,,,,,
0,0,15,phase_2,green_rhombus,stop,purple,200.0,tracking-SSD,go-1,4,,,,,,
1,501.0,15,phase_2,red_circle,go,,,,go-2,1,,,,,,
2,465.0,15,phase_2,red_rhombus,go,,,,go-2,1,,,,,,
2,384.0,15,phase_2,green_rhombus,go,,,,go-1,1,,,,,,
2,505.0,15,phase_2,green_triangle,go,,,,go-1,1,,,,,,
2,379.0,15,phase_2,green_triangle,go,,,,go-1,1,,,,,,
2,365.0,15,phase_2,green_triangle,go,,,,go-1,1,,,,,,
1,374.0,15,phase_2,red_triangle,stop,blue,0.0,0-SSD,go-2,3,,,,,,
2,507.0,15,phase_2,red_rhombus,go,,,,go-2,1,,,,,,
2,414.0,15,phase_2,red_pentagon,go,,,,go-2,2,,,,,,
1,389.0,15,phase_2,red_pentagon,go,,,,go-2,1,,,,,,
1,398.0,15,phase_2,red_pentagon,go,,,,go-2,1,,,,,,
0,0,15,phase_2,green_rhombus,stop,blue,0.0,0-SSD,go-1,4,,,,,,
0,0,16,phase_2,red_pentagon,stop,blue,0.0,0-SSD,go-2,4,,,,,,
1,429.0,16,phase_2,green_triangle,go,,,,go-1,2,,,,,,
0,0,16,phase_2,red_triangle,stop,blue,0.0,0-SSD,go-2,4,,,,,,
0,0,16,phase_2,green_rhombus,stop,blue,0.0,0-SSD,go-1,4,,,,,,
2,411.0,16,phase_2,red_triangle,stop,purple,250.0,tracking-SSD,go-2,3,,,,,,
1,419.0,16,phase_2,green_circle,go,,,,go-1,1,,,,,,
1,585.0,16,phase_2,red_rhombus,go,,,,go-2,2,,,,,,
2,425.0,16,phase_2,red_pentagon,go,,,,go-2,2,,,,,,
1,411.0,16,phase_2,green_circle,go,,,,go-1,1,,,,,,
1,375.0,16,phase_2,red_pentagon,stop,purple,200.0,tracking-SSD,go-2,3,,,,,,
1,428.0,16,phase_2,green_circle,go,,,,go-1,1,,,,,,
2,437.0,16,phase_2,red_rhombus,go,,,,go-2,1,,,,,,
2,457.0,16,phase_2,red_rhombus,go,,,,go-2,1,,,,,,
2,376.0,16,phase_2,green_triangle,stop,purple,150.0,tracking-SSD,go-1,3,,,,,,
2,386.0,16,phase_2,red_rhombus,go,,,,go-2,1,,,,,,
0,0,16,phase_2,green_pentagon,stop,blue,0.0,0-SSD,go-1,4,,,,,,
1,368.0,16,phase_2,red_circle,go,,,,go-2,1,,,,,,
0,0,16,phase_2,red_pentagon,stop,purple,100.0,tracking-SSD,go-2,4,,,,,,
1,419.0,16,phase_2,red_triangle,go,,,,go-2,2,,,,,,
1,440.0,16,phase_2,red_pentagon,go,,,,go-2,1,,,,,,
1,504.0,16,phase_2,green_pentagon,go,,,,go-1,1,,,,,,
2,445.0,16,phase_2,green_rhombus,go,,,,go-1,1,,,,,,
2,363.0,16,phase_2,green_triangle,stop,purple,150.0,tracking-SSD,go-1,3,,,,,,
2,395.0,16,phase_2,red_rhombus,go,,,,go-2,1,,,,,,
2,393.0,16,phase_2,red_pentagon,go,,,,go-2,2,,,,,,
1,570.0,16,phase_2,red_circle,go,,,,go-2,1,,,,,,
2,432.0,16,phase_2,green_triangle,go,,,,go-1,1,,,,,,
2,418.0,16,phase_2,green_triangle,go,,,,go-1,1,,,,,,
2,394.0,16,phase_2,red_triangle,go,,,,go-2,1,,,,,,
1,414.0,16,phase_2,red_circle,go,,,,go-2,1,,,,,,
2,547.0,16,phase_2,green_rhombus,go,,,,go-1,1,,,,,,
1,477.0,16,phase_2,red_circle,go,,,,go-2,1,,,,,,
2,418.0,16,phase_2,green_triangle,go,,,,go-1,1,,,,,,
2,471.0,16,phase_2,red_triangle,go,,,,go-2,1,,,,,,
0,0,16,phase_2,red_rhombus,stop,blue,0.0,0-SSD,go-2,4,,,,,,
0,0,16,phase_2,red_circle,stop,blue,0.0,0-SSD,go-2,4,,,,,,
2,452.0,16,phase_2,green_pentagon,go,,,,go-1,2,,,,,,
1,472.0,16,phase_2,green_pentagon,go,,,,go-1,1,,,,,,
0,0,16,phase_2,green_circle,stop,blue,0.0,0-SSD,go-1,4,,,,,,
2,423.0,16,phase_2,green_rhombus,go,,,,go-1,1,,,,,,
0,0,16,phase_2,green_pentagon,stop,purple,100.0,tracking-SSD,go-1,4,,,,,,
0,0,16,phase_2,green_rhombus,stop,blue,0.0,0-SSD,go-1,4,,,,,,
0,0,16,phase_2,green_circle,stop,purple,150.0,tracking-SSD,go-1,4,,,,,,
1,752.0,16,phase_2,green_pentagon,go,,,,go-1,1,,,,,,
1,434.0,16,phase_2,red_rhombus,go,,,,go-2,2,,,,,,
0,0,16,phase_2,red_circle,stop,purple,200.0,tracking-SSD,go-2,4,,,,,,
1,441.0,16,phase_2,green_circle,go,,,,go-1,1,,,,,,
2,517.0,16,phase_2,green_triangle,go,,,,go-1,1,,,,,,
1,466.0,17,phase_2,red_circle,stop,purple,250.0,tracking-SSD,go-2,3,,,,,,
1,519.0,17,phase_2,green_pentagon,go,,,,go-1,1,,,,,,
1,404.0,17,phase_2,red_circle,go,,,,go-2,1,,,,,,
1,379.0,17,phase_2,red_rhombus,go,,,,go-2,2,,,,,,
2,399.0,17,phase_2,green_triangle,stop,purple,200.0,tracking-SSD,go-1,3,,,,,,
1,452.0,17,phase_2,red_circle,go,,,,go-2,1,,,,,,
0,0,17,phase_2,red_rhombus,stop,blue,0.0,0-SSD,go-2,4,,,,,,
0,0,17,phase_2,red_triangle,stop,blue,0.0,0-SSD,go-2,4,,,,,,
2,456.0,17,phase_2,red_triangle,go,,,,go-2,1,,,,,,
0,0,17,phase_2,green_triangle,stop,blue,0.0,0-SSD,go-1,4,,,,,,
1,407.0,17,phase_2,green_circle,go,,,,go-1,1,,,,,,
2,471.0,17,phase_2,green_pentagon,go,,,,go-1,2,,,,,,
2,514.0,17,phase_2,green_triangle,go,,,,go-1,1,,,,,,
1,477.0,17,phase_2,green_pentagon,go,,,,go-1,1,,,,,,
2,418.0,17,phase_2,green_triangle,go,,,,go-1,1,,,,,,
2,393.0,17,phase_2,red_rhombus,go,,,,go-2,1,,,,,,
1,480.0,17,phase_2,red_pentagon,stop,purple,150.0,tracking-SSD,go-2,3,,,,,,
1,455.0,17,phase_2,red_pentagon,go,,,,go-2,1,,,,,,
2,442.0,17,phase_2,green_triangle,go,,,,go-1,1,,,,,,
0,0,17,phase_2,green_triangle,stop,purple,100.0,tracking-SSD,go-1,4,,,,,,
2,414.0,17,phase_2,red_triangle,stop,purple,150.0,tracking-SSD,go-2,3,,,,,,
2,435.0,17,phase_2,green_rhombus,stop,purple,100.0,tracking-SSD,go-1,3,,,,,,
2,443.0,17,phase_2,red_rhombus,go,,,,go-2,1,,,,,,
2,396.0,17,phase_2,green_circle,go,,,,go-1,2,,,,,,
1,529.0,17,phase_2,green_pentagon,go,,,,go-1,1,,,,,,
2,549.0,17,phase_2,red_rhombus,go,,,,go-2,1,,,,,,
1,423.0,17,phase_2,red_circle,go,,,,go-2,1,,,,,,
1,444.0,17,phase_2,red_circle,go,,,,go-2,1,,,,,,
2,452.0,17,phase_2,green_triangle,go,,,,go-1,1,,,,,,
1,439.0,17,phase_2,green_circle,go,,,,go-1,1,,,,,,
0,0,17,phase_2,green_pentagon,stop,purple,50.0,tracking-SSD,go-1,4,,,,,,
2,592.0,17,phase_2,green_rhombus,stop,blue,0.0,0-SSD,go-1,3,,,,,,
1,487.0,17,phase_2,red_pentagon,go,,,,go-2,1,,,,,,
1,473.0,17,phase_2,green_circle,go,,,,go-1,1,,,,,,
0,0,17,phase_2,red_rhombus,stop,blue,0.0,0-SSD,go-2,4,,,,,,
2,424.0,17,phase_2,green_rhombus,go,,,,go-1,1,,,,,,
0,0,17,phase_2,red_rhombus,stop,purple,100.0,tracking-SSD,go-2,4,,,,,,
1,487.0,17,phase_2,green_circle,go,,,,go-1,1,,,,,,
1,564.0,17,phase_2,green_pentagon,go,,,,go-1,1,,,,,,
1,404.0,17,phase_2,red_pentagon,go,,,,go-2,1,,,,,,
0,0,17,phase_2,green_pentagon,stop,blue,0.0,0-SSD,go-1,4,,,,,,
1,490.0,17,phase_2,red_circle,go,,,,go-2,1,,,,,,
0,0,17,phase_2,red_triangle,stop,blue,0.0,0-SSD,go-2,4,,,,,,
1,575.0,17,phase_2,red_pentagon,go,,,,go-2,1,,,,,,
0,0,17,phase_2,green_circle,stop,blue,0.0,0-SSD,go-1,4,,,,,,
2,435.0,17,phase_2,green_triangle,go,,,,go-1,1,,,,,,
2,489.0,17,phase_2,red_rhombus,go,,,,go-2,1,,,,,,
2,374.0,17,phase_2,red_rhombus,go,,,,go-2,1,,,,,,
,859.0,1,phase_3,,,,,,,,blue_square,0-SSD,green_square,go-1,blue_square,0-SSD
,954.0,1,phase_3,,,,,,,,blue_square,0-SSD,red_square,go-2,blue_square,0-SSD
,960.0,1,phase_3,,,,,,,,red_square,go-2,red_square,go-2,purple_square,tracking-SSD
,1283.0,1,phase_3,,,,,,,,green_square,go-1,green_square,go-1,purple_square,tracking-SSD
,850.0,1,phase_3,,,,,,,,blue_square,0-SSD,blue_square,0-SSD,purple_square,tracking-SSD
,1240.0,1,phase_3,,,,,,,,green_square,go-1,green_square,go-1,red_square,go-2
,1381.0,1,phase_3,,,,,,,,blue_square,0-SSD,blue_square,0-SSD,red_square,go-2
,1726.0,1,phase_3,,,,,,,,blue_square,0-SSD,blue_square,0-SSD,green_square,go-1
,957.0,1,phase_3,,,,,,,,green_square,go-1,purple_square,tracking-SSD,green_square,go-1
,953.0,1,phase_3,,,,,,,,blue_square,0-SSD,purple_square,tracking-SSD,blue_square,0-SSD
,1679.0,1,phase_3,,,,,,,,red_square,go-2,red_square,go-2,green_square,go-1
,955.0,1,phase_3,,,,,,,,red_square,go-2,purple_square,tracking-SSD,red_square,go-2
,1051.0,2,phase_3,,,,,,,,blue_square,0-SSD,green_square,go-1,blue_square,0-SSD
,1384.0,2,phase_3,,,,,,,,green_square,go-1,green_square,go-1,purple_square,tracking-SSD
,1998.0,2,phase_3,,,,,,,,blue_square,0-SSD,red_square,go-2,blue_square,0-SSD
,1500.0,2,phase_3,,,,,,,,red_square,go-2,red_square,go-2,purple_square,tracking-SSD
,1742.0,2,phase_3,,,,,,,,green_square,go-1,green_square,go-1,red_square,go-2
,1085.0,2,phase_3,,,,,,,,blue_square,0-SSD,blue_square,0-SSD,purple_square,tracking-SSD
,1217.0,2,phase_3,,,,,,,,blue_square,0-SSD,purple_square,tracking-SSD,blue_square,0-SSD
,1178.0,2,phase_3,,,,,,,,blue_square,0-SSD,blue_square,0-SSD,green_square,go-1
,1331.0,2,phase_3,,,,,,,,blue_square,0-SSD,blue_square,0-SSD,red_square,go-2
,1339.0,2,phase_3,,,,,,,,red_square,go-2,red_square,go-2,green_square,go-1
,1265.0,2,phase_3,,,,,,,,green_square,go-1,purple_square,tracking-SSD,green_square,go-1
,1104.0,2,phase_3,,,,,,,,red_square,go-2,purple_square,tracking-SSD,red_square,go-2
,1128.0,3,phase_3,,,,,,,,red_square,go-2,red_square,go-2,purple_square,tracking-SSD
,1078.0,3,phase_3,,,,,,,,blue_square,0-SSD,red_square,go-2,blue_square,0-SSD
,691.0,3,phase_3,,,,,,,,green_square,go-1,green_square,go-1,purple_square,tracking-SSD
,1632.0,3,phase_3,,,,,,,,red_square,go-2,green_square,go-1,red_square,go-2
,615.0,3,phase_3,,,,,,,,blue_square,0-SSD,blue_square,0-SSD,purple_square,tracking-SSD
,1455.0,3,phase_3,,,,,,,,blue_square,0-SSD,green_square,go-1,blue_square,0-SSD
,2486.0,3,phase_3,,,,,,,,red_square,go-2,red_square,go-2,green_square,go-1
,1501.0,3,phase_3,,,,,,,,blue_square,0-SSD,blue_square,0-SSD,green_square,go-1
,1194.0,3,phase_3,,,,,,,,red_square,go-2,purple_square,tracking-SSD,red_square,go-2
,750.0,3,phase_3,,,,,,,,blue_square,0-SSD,purple_square,tracking-SSD,blue_square,0-SSD
,690.0,3,phase_3,,,,,,,,blue_square,0-SSD,blue_square,0-SSD,red_square,go-2
,742.0,3,phase_3,,,,,,,,green_square,go-1,purple_square,tracking-SSD,green_square,go-1
,1444.0,4,phase_3,,,,,,,,red_square,go-2,red_square,go-2,purple_square,tracking-SSD
,1193.0,4,phase_3,,,,,,,,blue_square,0-SSD,blue_square,0-SSD,purple_square,tracking-SSD
,1177.0,4,phase_3,,,,,,,,blue_square,0-SSD,red_square,go-2,blue_square,0-SSD
,1206.0,4,phase_3,,,,,,,,blue_square,0-SSD,green_square,go-1,blue_square,0-SSD
,753.0,4,phase_3,,,,,,,,green_square,go-1,green_square,go-1,purple_square,tracking-SSD
,994.0,4,phase_3,,,,,,,,green_square,go-1,green_square,go-1,red_square,go-2
,1305.0,4,phase_3,,,,,,,,green_square,go-1,purple_square,tracking-SSD,green_square,go-1
,1324.0,4,phase_3,,,,,,,,blue_square,0-SSD,blue_square,0-SSD,green_square,go-1
,1882.0,4,phase_3,,,,,,,,blue_square,0-SSD,purple_square,tracking-SSD,blue_square,0-SSD
,2125.0,4,phase_3,,,,,,,,green_square,go-1,red_square,go-2,green_square,go-1
,1963.0,4,phase_3,,,,,,,,red_square,go-2,purple_square,tracking-SSD,red_square,go-2
,778.0,4,phase_3,,,,,,,,blue_square,0-SSD,blue_square,0-SSD,red_square,go-2
,802.0,5,phase_3,,,,,,,,red_square,go-2,red_square,go-2,purple_square,tracking-SSD
,776.0,5,phase_3,,,,,,,,green_square,go-1,green_square,go-1,red_square,go-2
,872.0,5,phase_3,,,,,,,,blue_square,0-SSD,blue_square,0-SSD,purple_square,tracking-SSD
,665.0,5,phase_3,,,,,,,,green_square,go-1,green_square,go-1,purple_square,tracking-SSD
,582.0,5,phase_3,,,,,,,,blue_square,0-SSD,red_square,go-2,blue_square,0-SSD
,758.0,5,phase_3,,,,,,,,blue_square,0-SSD,green_square,go-1,blue_square,0-SSD
,1271.0,5,phase_3,,,,,,,,blue_square,0-SSD,blue_square,0-SSD,red_square,go-2
,625.0,5,phase_3,,,,,,,,blue_square,0-SSD,purple_square,tracking-SSD,blue_square,0-SSD
,620.0,5,phase_3,,,,,,,,green_square,go-1,purple_square,tracking-SSD,green_square,go-1
,807.0,5,phase_3,,,,,,,,green_square,go-1,red_square,go-2,green_square,go-1
,1141.0,5,phase_3,,,,,,,,blue_square,0-SSD,blue_square,0-SSD,green_square,go-1
,1519.0,5,phase_3,,,,,,,,red_square,go-2,purple_square,tracking-SSD,red_square,go-2
