response,reaction_time,block,which_phase,stim,stop_signal_trial_type,stop_signal_stimulus,SSD,SSD_type,condition,accuracy,chosen_stim,chosen_cond,stim_left,cond_left,stim_right,cond_right
2,409.0,1,phase_2,red_pentagon,go,,,,go-1,2,,,,,,
2,452.0,1,phase_2,red_rhombus,stop,green,250.0,tracking-SSD,go-1,3,,,,,,
1,495.0,1,phase_2,blue_triangle,go,,,,go-2,1,,,,,,
2,572.0,1,phase_2,red_rhombus,go,,,,go-1,1,,,,,,
1,490.0,1,phase_2,blue_triangle,go,,,,go-2,1,,,,,,
2,487.0,1,phase_2,red_rhombus,go,,,,go-1,1,,,,,,
2,418.0,1,phase_2,red_rhombus,go,,,,go-1,1,,,,,,
0,0,1,phase_2,blue_circle,stop,purple,0.0,0-SSD,go-2,4,,,,,,
1,527.0,1,phase_2,red_triangle,go,,,,go-1,1,,,,,,
1,513.0,1,phase_2,red_pentagon,stop,green,200.0,tracking-SSD,go-1,3,,,,,,
2,758.0,1,phase_2,red_rhombus,go,,,,go-1,1,,,,,,
2,339.0,1,phase_2,red_rhombus,go,,,,go-1,1,,,,,,
2,426.0,1,phase_2,blue_pentagon,go,,,,go-2,2,,,,,,
1,639.0,1,phase_2,blue_pentagon,go,,,,go-2,1,,,,,,
0,0,1,phase_2,blue_triangle,stop,green,150.0,tracking-SSD,go-2,4,,,,,,
2,521.0,1,phase_2,red_circle,stop,green,200.0,tracking-SSD,go-1,3,,,,,,
1,698.0,1,phase_2,red_rhombus,go,,,,go-1,2,,,,,,
0,0,1,phase_2,blue_pentagon,stop,purple,0.0,0-SSD,go-2,4,,,,,,
1,525.0,1,phase_2,red_triangle,go,,,,go-1,1,,,,,,
2,445.0,1,phase_2,blue_circle,go,,,,go-2,1,,,,,,
1,544.0,1,phase_2,red_triangle,go,,,,go-1,1,,,,,,
1,441.0,1,phase_2,blue_rhombus,go,,,,go-2,2,,,,,,
1,404.0,1,phase_2,red_pentagon,go,,,,go-1,1,,,,,,
0,0,1,phase_2,blue_pentagon,stop,purple,0.0,0-SSD,go-2,4,,,,,,
1,536.0,1,phase_2,blue_triangle,go,,,,go-2,1,,,,,,
2,420.0,1,phase_2,blue_circle,go,,,,go-2,1,,,,,,
1,464.0,1,phase_2,blue_triangle,go,,,,go-2,1,,,,,,
0,0,1,phase_2,red_circle,stop,green,150.0,tracking-SSD,go-1,4,,,,,,
1,740.0,1,phase_2,blue_pentagon,go,,,,go-2,1,,,,,,
2,424.0,1,phase_2,blue_circle,go,,,,go-2,1,,,,,,
1,488.0,1,phase_2,blue_triangle,stop,green,200.0,tracking-SSD,go-2,3,,,,,,
2,519.0,1,phase_2,blue_circle,go,,,,go-2,1,,,,,,
1,529.0,1,phase_2,red_triangle,go,,,,go-1,1,,,,,,
2,481.0,1,phase_2,red_rhombus,go,,,,go-1,1,,,,,,
0,0,1,phase_2,red_pentagon,stop,purple,0.0,0-SSD,go-1,4,,,,,,
0,0,1,phase_2,red_circle,stop,purple,0.0,0-SSD,go-1,4,,,,,,
1,678.0,1,phase_2,blue_pentagon,go,,,,go-2,1,,,,,,
1,429.0,1,phase_2,blue_triangle,go,,,,go-2,1,,,,,,
2,381.0,1,phase_2,red_circle,go,,,,go-1,1,,,,,,
0,0,1,phase_2,red_pentagon,stop,purple,0.0,0-SSD,go-1,4,,,,,,
0,0,1,phase_2,blue_circle,stop,green,150.0,tracking-SSD,go-2,4,,,,,,
2,691.0,1,phase_2,red_triangle,go,,,,go-1,2,,,,,,
2,497.0,1,phase_2,blue_circle,go,,,,go-2,1,,,,,,
2,393.0,1,phase_2,blue_circle,go,,,,go-2,1,,,,,,
2,481.0,1,phase_2,red_rhombus,go,,,,go-1,1,,,,,,
0,0,1,phase_2,blue_rhombus,stop,purple,0.0,0-SSD,go-2,4,,,,,,
2,386.0,1,phase_2,blue_rhombus,stop,green,200.0,tracking-SSD,go-2,3,,,,,,
0,0,1,phase_2,red_pentagon,stop,purple,0.0,0-SSD,go-1,4,,,,,,
1,510.0,2,phase_2,red_triangle,go,,,,go-1,1,,,,,,
2,518.0,2,phase_2,blue_circle,go,,,,go-2,1,,,,,,
0,0,2,phase_2,blue_rhombus,stop,purple,0.0,0-SSD,go-2,4,,,,,,
1,569.0,2,phase_2,red_triangle,go,,,,go-1,1,,,,,,
2,422.0,2,phase_2,red_circle,stop,green,150.0,tracking-SSD,go-1,3,,,,,,
0,0,2,phase_2,blue_circle,stop,purple,0.0,0-SSD,go-2,4,,,,,,
2,428.0,2,phase_2,red_pentagon,go,,,,go-1,2,,,,,,
0,0,2,phase_2,red_triangle,stop,purple,0.0,0-SSD,go-1,4,,,,,,
0,0,2,phase_2,red_rhombus,stop,green,100.0,tracking-SSD,go-1,4,,,,,,
2,367.0,2,phase_2,red_rhombus,go,,,,go-1,1,,,,,,
0,0,2,phase_2,blue_circle,stop,green,150.0,tracking-SSD,go-2,4,,,,,,
2,361.0,2,phase_2,blue_circle,go,,,,go-2,1,,,,,,
0,0,2,phase_2,blue_rhombus,stop,green,200.0,tracking-SSD,go-2,4,,,,,,
2,391.0,2,phase_2,blue_circle,go,,,,go-2,1,,,,,,
1,749.0,2,phase_2,blue_triangle,go,,,,go-2,1,,,,,,
2,590.0,2,phase_2,blue_pentagon,go,,,,go-2,2,,,,,,
2,509.0,2,phase_2,red_rhombus,go,,,,go-1,1,,,,,,
2,417.0,2,phase_2,red_pentagon,go,,,,go-1,2,,,,,,
1,449.0,2,phase_2,red_pentagon,go,,,,go-1,1,,,,,,
2,493.0,2,phase_2,blue_circle,stop,green,250.0,tracking-SSD,go-2,3,,,,,,
2,467.0,2,phase_2,blue_rhombus,go,,,,go-2,1,,,,,,
0,0,2,phase_2,red_circle,stop,purple,0.0,0-SSD,go-1,4,,,,,,
0,0,2,phase_2,red_triangle,stop,green,200.0,tracking-SSD,go-1,4,,,,,,
0,0,2,phase_2,red_pentagon,stop,purple,0.0,0-SSD,go-1,4,,,,,,
1,787.0,2,phase_2,blue_pentagon,go,,,,go-2,1,,,,,,
2,468.0,2,phase_2,red_circle,go,,,,go-1,1,,,,,,
1,523.0,2,phase_2,blue_triangle,go,,,,go-2,1,,,,,,
2,408.0,2,phase_2,red_pentagon,go,,,,go-1,2,,,,,,
1,495.0,2,phase_2,blue_pentagon,go,,,,go-2,1,,,,,,
1,594.0,2,phase_2,blue_pentagon,go,,,,go-2,1,,,,,,
0,0,2,phase_2,red_rhombus,stop,purple,0.0,0-SSD,go-1,4,,,,,,
2,613.0,2,phase_2,red_rhombus,stop,green,250.0,tracking-SSD,go-1,3,,,,,,
2,499.0,2,phase_2,blue_circle,go,,,,go-2,1,,,,,,
1,575.0,2,phase_2,red_rhombus,go,,,,go-1,2,,,,,,
1,473.0,2,phase_2,red_pentagon,go,,,,go-1,1,,,,,,
1,493.0,2,phase_2,red_triangle,go,,,,go-1,1,,,,,,
1,693.0,2,phase_2,blue_pentagon,go,,,,go-2,1,,,,,,
1,410.0,2,phase_2,red_triangle,go,,,,go-1,1,,,,,,
2,351.0,2,phase_2,red_circle,go,,,,go-1,1,,,,,,
2,383.0,2,phase_2,red_circle,go,,,,go-1,1,,,,,,
0,0,2,phase_2,blue_triangle,stop,purple,0.0,0-SSD,go-2,4,,,,,,
1,648.0,2,phase_2,blue_triangle,go,,,,go-2,1,,,,,,
1,375.0,2,phase_2,blue_triangle,go,,,,go-2,1,,,,,,
1,734.0,2,phase_2,red_rhombus,go,,,,go-1,2,,,,,,
1,440.0,2,phase_2,blue_triangle,go,,,,go-2,1,,,,,,
2,527.0,2,phase_2,blue_rhombus,go,,,,go-2,1,,,,,,
0,0,2,phase_2,blue_rhombus,stop,purple,0.0,0-SSD,go-2,4,,,,,,
0,0,2,phase_2,blue_pentagon,stop,green,200.0,tracking-SSD,go-2,4,,,,,,
2,488.0,3,phase_2,red_rhombus,go,,,,go-1,1,,,,,,
2,396.0,3,phase_2,blue_rhombus,stop,green,250.0,tracking-SSD,go-2,3,,,,,,
2,472.0,3,phase_2,blue_circle,go,,,,go-2,1,,,,,,
0,0,3,phase_2,red_triangle,stop,purple,0.0,0-SSD,go-1,4,,,,,,
0,0,3,phase_2,blue_triangle,stop,green,200.0,tracking-SSD,go-2,4,,,,,,
1,444.0,3,phase_2,blue_triangle,go,,,,go-2,1,,,,,,
2,633.0,3,phase_2,red_pentagon,go,,,,go-1,2,,,,,,
2,406.0,3,phase_2,blue_rhombus,go,,,,go-2,1,,,,,,
2,392.0,3,phase_2,red_circle,go,,,,go-1,1,,,,,,
2,402.0,3,phase_2,red_circle,go,,,,go-1,1,,,,,,
2,400.0,3,phase_2,blue_circle,stop,green,250.0,tracking-SSD,go-2,3,,,,,,
1,420.0,3,phase_2,red_triangle,go,,,,go-1,1,,,,,,
0,0,3,phase_2,blue_pentagon,stop,purple,0.0,0-SSD,go-2,4,,,,,,
1,550.0,3,phase_2,blue_triangle,go,,,,go-2,1,,,,,,
1,424.0,3,phase_2,blue_triangle,go,,,,go-2,1,,,,,,
2,580.0,3,phase_2,blue_pentagon,go,,,,go-2,2,,,,,,
2,543.0,3,phase_2,red_circle,go,,,,go-1,1,,,,,,
0,0,3,phase_2,blue_triangle,stop,purple,0.0,0-SSD,go-2,4,,,,,,
0,0,3,phase_2,blue_pentagon,stop,purple,0.0,0-SSD,go-2,4,,,,,,
1,604.0,3,phase_2,red_rhombus,go,,,,go-1,2,,,,,,
2,557.0,3,phase_2,red_rhombus,go,,,,go-1,1,,,,,,
1,430.0,3,phase_2,red_circle,go,,,,go-1,2,,,,,,
1,733.0,3,phase_2,blue_pentagon,go,,,,go-2,1,,,,,,
2,460.0,3,phase_2,blue_triangle,go,,,,go-2,2,,,,,,
2,413.0,3,phase_2,blue_circle,go,,,,go-2,1,,,,,,
1,659.0,3,phase_2,blue_pentagon,go,,,,go-2,1,,,,,,
2,397.0,3,phase_2,blue_circle,go,,,,go-2,1,,,,,,
1,597.0,3,phase_2,blue_rhombus,go,,,,go-2,2,,,,,,
2,583.0,3,phase_2,blue_rhombus,go,,,,go-2,1,,,,,,
0,0,3,phase_2,red_triangle,stop,green,200.0,tracking-SSD,go-1,4,,,,,,
1,500.0,3,phase_2,red_triangle,go,,,,go-1,1,,,,,,
0,0,3,phase_2,blue_triangle,stop,green,250.0,tracking-SSD,go-2,4,,,,,,
2,461.0,3,phase_2,red_rhombus,go,,,,go-1,1,,,,,,
1,685.0,3,phase_2,red_pentagon,go,,,,go-1,1,,,,,,
2,582.0,3,phase_2,red_pentagon,go,,,,go-1,2,,,,,,
1,613.0,3,phase_2,blue_triangle,go,,,,go-2,1,,,,,,
2,543.0,3,phase_2,red_rhombus,go,,,,go-1,1,,,,,,
2,473.0,3,phase_2,red_rhombus,go,,,,go-1,1,,,,,,
1,662.0,3,phase_2,blue_pentagon,go,,,,go-2,1,,,,,,
1,716.0,3,phase_2,blue_rhombus,go,,,,go-2,2,,,,,,
0,0,3,phase_2,blue_circle,stop,purple,0.0,0-SSD,go-2,4,,,,,,
1,621.0,3,phase_2,red_circle,stop,green,300.0,tracking-SSD,go-1,3,,,,,,
0,0,3,phase_2,red_pentagon,stop,green,250.0,tracking-SSD,go-1,4,,,,,,
0,0,3,phase_2,red_pentagon,stop,purple,0.0,0-SSD,go-1,4,,,,,,
0,0,3,phase_2,red_circle,stop,purple,0.0,0-SSD,go-1,4,,,,,,
0,0,3,phase_2,red_rhombus,stop,purple,0.0,0-SSD,go-1,4,,,,,,
2,643.0,3,phase_2,red_circle,go,,,,go-1,1,,,,,,
1,583.0,3,phase_2,red_pentagon,stop,green,300.0,tracking-SSD,go-1,3,,,,,,
1,521.0,4,phase_2,blue_triangle,go,,,,go-2,1,,,,,,
0,0,4,phase_2,red_pentagon,stop,purple,0.0,0-SSD,go-1,4,,,,,,
2,629.0,4,phase_2,blue_rhombus,go,,,,go-2,1,,,,,,
1,425.0,4,phase_2,blue_circle,stop,green,250.0,tracking-SSD,go-2,3,,,,,,
1,501.0,4,phase_2,red_triangle,go,,,,go-1,1,,,,,,
2,556.0,4,phase_2,blue_circle,go,,,,go-2,1,,,,,,
0,0,4,phase_2,red_triangle,stop,green,200.0,tracking-SSD,go-1,4,,,,,,
2,552.0,4,phase_2,red_rhombus,go,,,,go-1,1,,,,,,
1,596.0,4,phase_2,red_pentagon,go,,,,go-1,1,,,,,,
2,471.0,4,phase_2,blue_circle,go,,,,go-2,1,,,,,,
0,0,4,phase_2,red_circle,stop,purple,0.0,0-SSD,go-1,4,,,,,,
2,624.0,4,phase_2,red_rhombus,go,,,,go-1,1,,,,,,
0,0,4,phase_2,blue_triangle,stop,green,250.0,tracking-SSD,go-2,4,,,,,,
0,0,4,phase_2,blue_triangle,stop,purple,0.0,0-SSD,go-2,4,,,,,,
0,0,4,phase_2,blue_circle,stop,green,300.0,tracking-SSD,go-2,4,,,,,,
2,626.0,4,phase_2,blue_rhombus,go,,,,go-2,1,,,,,,
2,533.0,4,phase_2,red_circle,go,,,,go-1,1,,,,,,
1,463.0,4,phase_2,blue_triangle,go,,,,go-2,1,,,,,,
2,573.0,4,phase_2,red_circle,go,,,,go-1,1,,,,,,
2,414.0,4,phase_2,blue_circle,go,,,,go-2,1,,,,,,
1,523.0,4,phase_2,blue_pentagon,go,,,,go-2,1,,,,,,
0,0,4,phase_2,blue_triangle,stop,green,350.0,tracking-SSD,go-2,4,,,,,,
1,543.0,4,phase_2,red_pentagon,go,,,,go-1,1,,,,,,
1,495.0,4,phase_2,red_pentagon,go,,,,go-1,1,,,,,,
2,606.0,4,phase_2,red_rhombus,go,,,,go-1,1,,,,,,
0,0,4,phase_2,red_pentagon,stop,green,400.0,tracking-SSD,go-1,4,,,,,,
1,646.0,4,phase_2,red_pentagon,go,,,,go-1,1,,,,,,
1,497.0,4,phase_2,blue_pentagon,go,,,,go-2,1,,,,,,
2,495.0,4,phase_2,blue_triangle,go,,,,go-2,2,,,,,,
1,707.0,4,phase_2,red_pentagon,stop,green,450.0,tracking-SSD,go-1,3,,,,,,
2,446.0,4,phase_2,blue_rhombus,go,,,,go-2,1,,,,,,
2,332.0,4,phase_2,blue_circle,go,,,,go-2,1,,,,,,
0,0,4,phase_2,red_circle,stop,purple,0.0,0-SSD,go-1,4,,,,,,
2,506.0,4,phase_2,red_rhombus,go,,,,go-1,1,,,,,,
0,0,4,phase_2,blue_circle,stop,purple,0.0,0-SSD,go-2,4,,,,,,
1,504.0,4,phase_2,red_triangle,go,,,,go-1,1,,,,,,
1,683.0,4,phase_2,red_rhombus,stop,green,400.0,tracking-SSD,go-1,3,,,,,,
1,522.0,4,phase_2,red_pentagon,go,,,,go-1,1,,,,,,
1,610.0,4,phase_2,red_triangle,go,,,,go-1,1,,,,,,
1,564.0,4,phase_2,blue_triangle,go,,,,go-2,1,,,,,,
0,0,4,phase_2,blue_pentagon,stop,purple,0.0,0-SSD,go-2,4,,,,,,
2,594.0,4,phase_2,blue_circle,go,,,,go-2,1,,,,,,
1,467.0,4,phase_2,red_rhombus,go,,,,go-1,2,,,,,,
2,599.0,4,phase_2,blue_rhombus,go,,,,go-2,1,,,,,,
2,833.0,4,phase_2,red_rhombus,go,,,,go-1,1,,,,,,
0,0,4,phase_2,red_rhombus,stop,purple,0.0,0-SSD,go-1,4,,,,,,
0,0,4,phase_2,blue_triangle,stop,purple,0.0,0-SSD,go-2,4,,,,,,
1,568.0,4,phase_2,blue_pentagon,go,,,,go-2,1,,,,,,
0,0,5,phase_2,blue_circle,stop,purple,0.0,0-SSD,go-2,4,,,,,,
1,586.0,5,phase_2,red_pentagon,go,,,,go-1,1,,,,,,
1,640.0,5,phase_2,red_pentagon,stop,green,350.0,tracking-SSD,go-1,3,,,,,,
2,469.0,5,phase_2,red_rhombus,stop,green,300.0,tracking-SSD,go-1,3,,,,,,
0,0,5,phase_2,blue_circle,stop,green,250.0,tracking-SSD,go-2,4,,,,,,
0,0,5,phase_2,red_pentagon,stop,purple,0.0,0-SSD,go-1,4,,,,,,
2,530.0,5,phase_2,red_rhombus,go,,,,go-1,1,,,,,,
1,617.0,5,phase_2,blue_pentagon,go,,,,go-2,1,,,,,,
0,0,5,phase_2,red_rhombus,stop,purple,0.0,0-SSD,go-1,4,,,,,,
1,612.0,5,phase_2,red_triangle,go,,,,go-1,1,,,,,,
1,542.0,5,phase_2,blue_pentagon,go,,,,go-2,1,,,,,,
2,416.0,5,phase_2,red_circle,go,,,,go-1,1,,,,,,
1,571.0,5,phase_2,red_rhombus,go,,,,go-1,2,,,,,,
2,547.0,5,phase_2,blue_circle,go,,,,go-2,1,,,,,,
1,747.0,5,phase_2,blue_rhombus,go,,,,go-2,2,,,,,,
0,0,5,phase_2,blue_circle,stop,purple,0.0,0-SSD,go-2,4,,,,,,
2,529.0,5,phase_2,blue_rhombus,go,,,,go-2,1,,,,,,
2,380.0,5,phase_2,red_rhombus,go,,,,go-1,1,,,,,,
2,356.0,5,phase_2,blue_rhombus,go,,,,go-2,1,,,,,,
1,578.0,5,phase_2,red_triangle,go,,,,go-1,1,,,,,,
1,565.0,5,phase_2,red_pentagon,go,,,,go-1,1,,,,,,
1,745.0,5,phase_2,red_pentagon,go,,,,go-1,1,,,,,,
1,528.0,5,phase_2,blue_triangle,go,,,,go-2,1,,,,,,
1,380.0,5,phase_2,blue_triangle,go,,,,go-2,1,,,,,,
1,399.0,5,phase_2,blue_triangle,go,,,,go-2,1,,,,,,
2,487.0,5,phase_2,blue_circle,go,,,,go-2,1,,,,,,
2,340.0,5,phase_2,red_circle,go,,,,go-1,1,,,,,,
1,631.0,5,phase_2,red_pentagon,go,,,,go-1,1,,,,,,
1,425.0,5,phase_2,blue_pentagon,go,,,,go-2,1,,,,,,
1,524.0,5,phase_2,blue_pentagon,stop,green,300.0,tracking-SSD,go-2,3,,,,,,
1,500.0,5,phase_2,blue_triangle,go,,,,go-2,1,,,,,,
2,407.0,5,phase_2,red_triangle,go,,,,go-1,2,,,,,,
2,561.0,5,phase_2,blue_rhombus,go,,,,go-2,1,,,,,,
0,0,5,phase_2,blue_circle,stop,purple,0.0,0-SSD,go-2,4,,,,,,
0,0,5,phase_2,red_rhombus,stop,purple,0.0,0-SSD,go-1,4,,,,,,
0,0,5,phase_2,blue_circle,stop,purple,0.0,0-SSD,go-2,4,,,,,,
1,586.0,5,phase_2,blue_pentagon,go,,,,go-2,1,,,,,,
1,527.0,5,phase_2,blue_triangle,go,,,,go-2,1,,,,,,
0,0,5,phase_2,blue_pentagon,stop,green,250.0,tracking-SSD,go-2,4,,,,,,
0,0,5,phase_2,red_rhombus,stop,green,300.0,tracking-SSD,go-1,4,,,,,,
1,814.0,5,phase_2,red_triangle,go,,,,go-1,1,,,,,,
1,418.0,5,phase_2,red_triangle,go,,,,go-1,1,,,,,,
1,472.0,5,phase_2,blue_triangle,go,,,,go-2,1,,,,,,
2,628.0,5,phase_2,red_circle,go,,,,go-1,1,,,,,,
1,491.0,5,phase_2,red_triangle,go,,,,go-1,1,,,,,,
2,658.0,5,phase_2,red_circle,stop,green,350.0,tracking-SSD,go-1,3,,,,,,
0,0,5,phase_2,red_circle,stop,purple,0.0,0-SSD,go-1,4,,,,,,
0,0,5,phase_2,blue_rhombus,stop,green,300.0,tracking-SSD,go-2,4,,,,,,
2,499.0,6,phase_2,red_rhombus,go,,,,go-1,1,,,,,,
2,361.0,6,phase_2,blue_circle,stop,green,350.0,tracking-SSD,go-2,3,,,,,,
1,549.0,6,phase_2,red_pentagon,go,,,,go-1,1,,,,,,
1,660.0,6,phase_2,blue_pentagon,go,,,,go-2,1,,,,,,
1,400.0,6,phase_2,red_triangle,go,,,,go-1,1,,,,,,
1,376.0,6,phase_2,blue_triangle,go,,,,go-2,1,,,,,,
2,655.0,6,phase_2,blue_rhombus,go,,,,go-2,1,,,,,,
1,585.0,6,phase_2,red_pentagon,go,,,,go-1,1,,,,,,
1,436.0,6,phase_2,red_triangle,go,,,,go-1,1,,,,,,
1,761.0,6,phase_2,red_rhombus,go,,,,go-1,2,,,,,,
0,0,6,phase_2,red_rhombus,stop,purple,0.0,0-SSD,go-1,4,,,,,,
1,654.0,6,phase_2,blue_rhombus,go,,,,go-2,2,,,,,,
1,673.0,6,phase_2,blue_pentagon,stop,green,300.0,tracking-SSD,go-2,3,,,,,,
0,0,6,phase_2,blue_triangle,stop,green,250.0,tracking-SSD,go-2,4,,,,,,
0,0,6,phase_2,red_pentagon,stop,green,300.0,tracking-SSD,go-1,4,,,,,,
2,476.0,6,phase_2,red_circle,go,,,,go-1,1,,,,,,
2,373.0,6,phase_2,blue_circle,go,,,,go-2,1,,,,,,
1,427.0,6,phase_2,blue_rhombus,go,,,,go-2,2,,,,,,
0,0,6,phase_2,red_circle,stop,purple,0.0,0-SSD,go-1,4,,,,,,
2,470.0,6,phase_2,red_circle,stop,green,350.0,tracking-SSD,go-1,3,,,,,,
0,0,6,phase_2,red_pentagon,stop,green,300.0,tracking-SSD,go-1,4,,,,,,
1,490.0,6,phase_2,blue_triangle,go,,,,go-2,1,,,,,,
1,464.0,6,phase_2,blue_triangle,go,,,,go-2,1,,,,,,
2,619.0,6,phase_2,blue_pentagon,go,,,,go-2,2,,,,,,
1,539.0,6,phase_2,blue_pentagon,go,,,,go-2,1,,,,,,
1,604.0,6,phase_2,red_triangle,go,,,,go-1,1,,,,,,
0,0,6,phase_2,blue_pentagon,stop,purple,0.0,0-SSD,go-2,4,,,,,,
1,431.0,6,phase_2,red_triangle,go,,,,go-1,1,,,,,,
2,946.0,6,phase_2,red_rhombus,go,,,,go-1,1,,,,,,
2,381.0,6,phase_2,blue_circle,go,,,,go-2,1,,,,,,
2,515.0,6,phase_2,red_rhombus,go,,,,go-1,1,,,,,,
2,468.0,6,phase_2,blue_circle,go,,,,go-2,1,,,,,,
1,680.0,6,phase_2,red_triangle,go,,,,go-1,1,,,,,,
2,531.0,6,phase_2,red_rhombus,go,,,,go-1,1,,,,,,
0,0,6,phase_2,red_triangle,stop,purple,0.0,0-SSD,go-1,4,,,,,,
1,650.0,6,phase_2,red_pentagon,go,,,,go-1,1,,,,,,
1,930.0,6,phase_2,blue_rhombus,go,,,,go-2,2,,,,,,
1,579.0,6,phase_2,blue_pentagon,go,,,,go-2,1,,,,,,
1,498.0,6,phase_2,blue_triangle,go,,,,go-2,1,,,,,,
1,529.0,6,phase_2,blue_pentagon,go,,,,go-2,1,,,,,,
2,448.0,6,phase_2,red_circle,stop,green,350.0,tracking-SSD,go-1,3,,,,,,
0,0,6,phase_2,blue_rhombus,stop,purple,0.0,0-SSD,go-2,4,,,,,,
0,0,6,phase_2,blue_rhombus,stop,purple,0.0,0-SSD,go-2,4,,,,,,
2,543.0,6,phase_2,blue_circle,stop,green,300.0,tracking-SSD,go-2,3,,,,,,
0,0,6,phase_2,red_circle,stop,purple,0.0,0-SSD,go-1,4,,,,,,
2,584.0,6,phase_2,red_circle,go,,,,go-1,1,,,,,,
2,402.0,6,phase_2,red_circle,go,,,,go-1,1,,,,,,
0,0,6,phase_2,blue_triangle,stop,purple,0.0,0-SSD,go-2,4,,,,,,
2,431.0,7,phase_2,blue_circle,go,,,,go-2,1,,,,,,
2,508.0,7,phase_2,blue_rhombus,go,,,,go-2,1,,,,,,
2,393.0,7,phase_2,blue_circle,go,,,,go-2,1,,,,,,
1,480.0,7,phase_2,blue_triangle,go,,,,go-2,1,,,,,,
1,514.0,7,phase_2,red_pentagon,go,,,,go-1,1,,,,,,
1,443.0,7,phase_2,blue_triangle,go,,,,go-2,1,,,,,,
1,452.0,7,phase_2,red_triangle,go,,,,go-1,1,,,,,,
1,472.0,7,phase_2,red_rhombus,go,,,,go-1,2,,,,,,
1,515.0,7,phase_2,blue_pentagon,go,,,,go-2,1,,,,,,
1,616.0,7,phase_2,red_pentagon,go,,,,go-1,1,,,,,,
1,377.0,7,phase_2,red_pentagon,go,,,,go-1,1,,,,,,
0,0,7,phase_2,red_pentagon,stop,purple,0.0,0-SSD,go-1,4,,,,,,
0,0,7,phase_2,red_rhombus,stop,purple,0.0,0-SSD,go-1,4,,,,,,
1,675.0,7,phase_2,blue_pentagon,go,,,,go-2,1,,,,,,
1,560.0,7,phase_2,red_triangle,go,,,,go-1,1,,,,,,
2,512.0,7,phase_2,red_rhombus,go,,,,go-1,1,,,,,,
0,0,7,phase_2,blue_circle,stop,purple,0.0,0-SSD,go-2,4,,,,,,
0,0,7,phase_2,red_triangle,stop,green,250.0,tracking-SSD,go-1,4,,,,,,
2,651.0,7,phase_2,red_rhombus,go,,,,go-1,1,,,,,,
0,0,7,phase_2,red_pentagon,stop,green,300.0,tracking-SSD,go-1,4,,,,,,
2,478.0,7,phase_2,blue_circle,stop,green,350.0,tracking-SSD,go-2,3,,,,,,
1,565.0,7,phase_2,red_rhombus,go,,,,go-1,2,,,,,,
0,0,7,phase_2,blue_circle,stop,purple,0.0,0-SSD,go-2,4,,,,,,
0,0,7,phase_2,blue_rhombus,stop,green,300.0,tracking-SSD,go-2,4,,,,,,
2,524.0,7,phase_2,blue_rhombus,go,,,,go-2,1,,,,,,
0,0,7,phase_2,red_triangle,stop,purple,0.0,0-SSD,go-1,4,,,,,,
1,678.0,7,phase_2,blue_triangle,go,,,,go-2,1,,,,,,
0,0,7,phase_2,blue_circle,stop,purple,0.0,0-SSD,go-2,4,,,,,,
1,729.0,7,phase_2,red_pentagon,go,,,,go-1,1,,,,,,
2,693.0,7,phase_2,red_rhombus,go,,,,go-1,1,,,,,,
1,612.0,7,phase_2,red_pentagon,go,,,,go-1,1,,,,,,
1,621.0,7,phase_2,red_pentagon,go,,,,go-1,1,,,,,,
2,888.0,7,phase_2,blue_rhombus,go,,,,go-2,1,,,,,,
2,559.0,7,phase_2,red_rhombus,go,,,,go-1,1,,,,,,
2,547.0,7,phase_2,red_circle,go,,,,go-1,1,,,,,,
0,0,7,phase_2,red_triangle,stop,purple,0.0,0-SSD,go-1,4,,,,,,
1,712.0,7,phase_2,blue_triangle,go,,,,go-2,1,,,,,,
1,383.0,7,phase_2,red_triangle,stop,green,350.0,tracking-SSD,go-1,3,,,,,,
2,425.0,7,phase_2,red_circle,go,,,,go-1,1,,,,,,
2,378.0,7,phase_2,blue_circle,go,,,,go-2,1,,,,,,
2,364.0,7,phase_2,blue_circle,stop,green,300.0,tracking-SSD,go-2,3,,,,,,
1,474.0,7,phase_2,blue_triangle,go,,,,go-2,1,,,,,,
0,0,7,phase_2,red_pentagon,stop,green,250.0,tracking-SSD,go-1,4,,,,,,
2,492.0,7,phase_2,blue_circle,go,,,,go-2,1,,,,,,
0,0,7,phase_2,blue_triangle,stop,purple,0.0,0-SSD,go-2,4,,,,,,
2,555.0,7,phase_2,blue_rhombus,go,,,,go-2,1,,,,,,
2,418.0,7,phase_2,blue_circle,stop,green,300.0,tracking-SSD,go-2,3,,,,,,
1,653.0,7,phase_2,blue_pentagon,go,,,,go-2,1,,,,,,
0,0,8,phase_2,blue_triangle,stop,purple,0.0,0-SSD,go-2,4,,,,,,
2,429.0,8,phase_2,blue_circle,go,,,,go-2,1,,,,,,
2,483.0,8,phase_2,blue_circle,go,,,,go-2,1,,,,,,
0,0,8,phase_2,red_rhombus,stop,purple,0.0,0-SSD,go-1,4,,,,,,
0,0,8,phase_2,blue_pentagon,stop,purple,0.0,0-SSD,go-2,4,,,,,,
1,655.0,8,phase_2,red_pentagon,go,,,,go-1,1,,,,,,
2,295.0,8,phase_2,red_circle,go,,,,go-1,1,,,,,,
1,664.0,8,phase_2,red_pentagon,go,,,,go-1,1,,,,,,
1,481.0,8,phase_2,red_pentagon,go,,,,go-1,1,,,,,,
2,828.0,8,phase_2,red_triangle,go,,,,go-1,2,,,,,,
2,353.0,8,phase_2,red_triangle,go,,,,go-1,2,,,,,,
2,419.0,8,phase_2,blue_circle,go,,,,go-2,1,,,,,,
2,405.0,8,phase_2,blue_rhombus,go,,,,go-2,1,,,,,,
0,0,8,phase_2,red_pentagon,stop,purple,0.0,0-SSD,go-1,4,,,,,,
2,433.0,8,phase_2,red_circle,go,,,,go-1,1,,,,,,
0,0,8,phase_2,red_circle,stop,purple,0.0,0-SSD,go-1,4,,,,,,
1,565.0,8,phase_2,red_triangle,go,,,,go-1,1,,,,,,
2,551.0,8,phase_2,blue_rhombus,go,,,,go-2,1,,,,,,
2,414.0,8,phase_2,blue_triangle,go,,,,go-2,2,,,,,,
2,389.0,8,phase_2,blue_circle,go,,,,go-2,1,,,,,,
2,690.0,8,phase_2,blue_rhombus,go,,,,go-2,1,,,,,,
2,418.0,8,phase_2,blue_rhombus,stop,green,250.0,tracking-SSD,go-2,3,,,,,,
2,438.0,8,phase_2,blue_pentagon,go,,,,go-2,2,,,,,,
2,570.0,8,phase_2,red_circle,go,,,,go-1,1,,,,,,
0,0,8,phase_2,blue_pentagon,stop,purple,0.0,0-SSD,go-2,4,,,,,,
0,0,8,phase_2,blue_pentagon,stop,green,200.0,tracking-SSD,go-2,4,,,,,,
1,732.0,8,phase_2,blue_triangle,go,,,,go-2,1,,,,,,
0,0,8,phase_2,blue_pentagon,stop,green,250.0,tracking-SSD,go-2,4,,,,,,
1,557.0,8,phase_2,red_triangle,stop,green,300.0,tracking-SSD,go-1,3,,,,,,
0,0,8,phase_2,red_rhombus,stop,green,250.0,tracking-SSD,go-1,4,,,,,,
0,0,8,phase_2,red_triangle,stop,green,300.0,tracking-SSD,go-1,4,,,,,,
2,664.0,8,phase_2,blue_rhombus,go,,,,go-2,1,,,,,,
0,0,8,phase_2,red_rhombus,stop,purple,0.0,0-SSD,go-1,4,,,,,,
0,0,8,phase_2,blue_circle,stop,green,350.0,tracking-SSD,go-2,4,,,,,,
1,601.0,8,phase_2,blue_triangle,go,,,,go-2,1,,,,,,
1,453.0,8,phase_2,red_triangle,go,,,,go-1,1,,,,,,
2,541.0,8,phase_2,blue_rhombus,go,,,,go-2,1,,,,,,
1,673.0,8,phase_2,red_pentagon,stop,green,400.0,tracking-SSD,go-1,3,,,,,,
2,580.0,8,phase_2,red_circle,go,,,,go-1,1,,,,,,
1,521.0,8,phase_2,red_rhombus,go,,,,go-1,2,,,,,,
2,664.0,8,phase_2,blue_rhombus,go,,,,go-2,1,,,,,,
2,506.0,8,phase_2,red_circle,go,,,,go-1,1,,,,,,
1,705.0,8,phase_2,blue_triangle,go,,,,go-2,1,,,,,,
1,680.0,8,phase_2,blue_pentagon,go,,,,go-2,1,,,,,,
0,0,8,phase_2,blue_triangle,stop,purple,0.0,0-SSD,go-2,4,,,,,,
2,642.0,8,phase_2,red_rhombus,go,,,,go-1,1,,,,,,
1,574.0,8,phase_2,red_pentagon,go,,,,go-1,1,,,,,,
2,548.0,8,phase_2,red_circle,go,,,,go-1,1,,,,,,
2,510.0,9,phase_2,red_rhombus,go,,,,go-1,1,,,,,,
2,519.0,9,phase_2,blue_circle,go,,,,go-2,1,,,,,,
2,563.0,9,phase_2,red_rhombus,go,,,,go-1,1,,,,,,
1,537.0,9,phase_2,red_pentagon,go,,,,go-1,1,,,,,,
1,636.0,9,phase_2,red_triangle,go,,,,go-1,1,,,,,,
1,724.0,9,phase_2,blue_pentagon,stop,green,350.0,tracking-SSD,go-2,3,,,,,,
2,598.0,9,phase_2,red_rhombus,stop,green,300.0,tracking-SSD,go-1,3,,,,,,
2,539.0,9,phase_2,blue_circle,go,,,,go-2,1,,,,,,
0,0,9,phase_2,blue_triangle,stop,green,250.0,tracking-SSD,go-2,4,,,,,,
1,570.0,9,phase_2,red_pentagon,go,,,,go-1,1,,,,,,
2,544.0,9,phase_2,red_circle,go,,,,go-1,1,,,,,,
2,518.0,9,phase_2,red_rhombus,go,,,,go-1,1,,,,,,
2,144.0,9,phase_2,red_pentagon,stop,purple,0.0,0-SSD,go-1,3,,,,,,
1,603.0,9,phase_2,red_triangle,go,,,,go-1,1,,,,,,
0,0,9,phase_2,red_rhombus,stop,purple,0.0,0-SSD,go-1,4,,,,,,
0,0,9,phase_2,red_triangle,stop,purple,0.0,0-SSD,go-1,4,,,,,,
0,0,9,phase_2,blue_triangle,stop,green,300.0,tracking-SSD,go-2,4,,,,,,
0,0,9,phase_2,red_rhombus,stop,purple,0.0,0-SSD,go-1,4,,,,,,
1,671.0,9,phase_2,blue_pentagon,go,,,,go-2,1,,,,,,
0,0,9,phase_2,blue_circle,stop,purple,0.0,0-SSD,go-2,4,,,,,,
1,520.0,9,phase_2,blue_pentagon,go,,,,go-2,1,,,,,,
0,0,9,phase_2,blue_circle,stop,purple,0.0,0-SSD,go-2,4,,,,,,
2,470.0,9,phase_2,red_rhombus,go,,,,go-1,1,,,,,,
2,401.0,9,phase_2,red_rhombus,stop,green,350.0,tracking-SSD,go-1,3,,,,,,
1,567.0,9,phase_2,red_circle,go,,,,go-1,2,,,,,,
2,463.0,9,phase_2,red_circle,go,,,,go-1,1,,,,,,
2,495.0,9,phase_2,blue_circle,go,,,,go-2,1,,,,,,
1,582.0,9,phase_2,red_triangle,stop,green,300.0,tracking-SSD,go-1,3,,,,,,
2,536.0,9,phase_2,blue_circle,go,,,,go-2,1,,,,,,
1,557.0,9,phase_2,blue_pentagon,go,,,,go-2,1,,,,,,
1,577.0,9,phase_2,red_pentagon,go,,,,go-1,1,,,,,,
2,439.0,9,phase_2,red_circle,go,,,,go-1,1,,,,,,
0,0,9,phase_2,blue_rhombus,stop,green,250.0,tracking-SSD,go-2,4,,,,,,
2,626.0,9,phase_2,blue_pentagon,go,,,,go-2,2,,,,,,
0,0,9,phase_2,blue_pentagon,stop,purple,0.0,0-SSD,go-2,4,,,,,,
1,735.0,9,phase_2,blue_triangle,go,,,,go-2,1,,,,,,
2,552.0,9,phase_2,blue_rhombus,go,,,,go-2,1,,,,,,
2,1202.0,9,phase_2,blue_circle,go,,,,go-2,1,,,,,,
0,0,9,phase_2,blue_rhombus,stop,purple,0.0,0-SSD,go-2,4,,,,,,
2,422.0,9,phase_2,blue_circle,go,,,,go-2,1,,,,,,
1,497.0,9,phase_2,red_triangle,go,,,,go-1,1,,,,,,
1,562.0,9,phase_2,red_triangle,go,,,,go-1,1,,,,,,
1,402.0,9,phase_2,blue_triangle,go,,,,go-2,1,,,,,,
2,580.0,9,phase_2,blue_rhombus,go,,,,go-2,1,,,,,,
1,623.0,9,phase_2,red_pentagon,go,,,,go-1,1,,,,,,
1,890.0,9,phase_2,blue_triangle,go,,,,go-2,1,,,,,,
1,640.0,9,phase_2,blue_pentagon,go,,,,go-2,1,,,,,,
1,437.0,9,phase_2,red_triangle,stop,green,300.0,tracking-SSD,go-1,3,,,,,,
1,477.0,10,phase_2,red_pentagon,go,,,,go-1,1,,,,,,
1,497.0,10,phase_2,red_triangle,stop,green,250.0,tracking-SSD,go-1,3,,,,,,
1,742.0,10,phase_2,blue_triangle,stop,purple,0.0,0-SSD,go-2,3,,,,,,
0,0,10,phase_2,blue_pentagon,stop,purple,0.0,0-SSD,go-2,4,,,,,,
1,491.0,10,phase_2,blue_rhombus,go,,,,go-2,2,,,,,,
2,510.0,10,phase_2,red_circle,go,,,,go-1,1,,,,,,
2,394.0,10,phase_2,blue_circle,go,,,,go-2,1,,,,,,
0,0,10,phase_2,red_rhombus,stop,purple,0.0,0-SSD,go-1,4,,,,,,
2,727.0,10,phase_2,red_rhombus,go,,,,go-1,1,,,,,,
0,0,10,phase_2,blue_circle,stop,green,200.0,tracking-SSD,go-2,4,,,,,,
2,466.0,10,phase_2,red_circle,go,,,,go-1,1,,,,,,
2,462.0,10,phase_2,red_rhombus,go,,,,go-1,1,,,,,,
2,437.0,10,phase_2,blue_circle,stop,green,250.0,tracking-SSD,go-2,3,,,,,,
0,0,10,phase_2,red_pentagon,stop,green,200.0,tracking-SSD,go-1,4,,,,,,
1,1344.0,10,phase_2,blue_pentagon,go,,,,go-2,1,,,,,,
2,543.0,10,phase_2,blue_rhombus,go,,,,go-2,1,,,,,,
2,664.0,10,phase_2,red_rhombus,go,,,,go-1,1,,,,,,
1,525.0,10,phase_2,blue_pentagon,go,,,,go-2,1,,,,,,
2,490.0,10,phase_2,blue_circle,go,,,,go-2,1,,,,,,
2,422.0,10,phase_2,blue_circle,stop,green,250.0,tracking-SSD,go-2,3,,,,,,
2,520.0,10,phase_2,red_rhombus,go,,,,go-1,1,,,,,,
2,416.0,10,phase_2,red_rhombus,go,,,,go-1,1,,,,,,
0,0,10,phase_2,red_triangle,stop,green,200.0,tracking-SSD,go-1,4,,,,,,
1,457.0,10,phase_2,blue_triangle,go,,,,go-2,1,,,,,,
1,423.0,10,phase_2,red_triangle,stop,green,250.0,tracking-SSD,go-1,3,,,,,,
2,420.0,10,phase_2,blue_circle,go,,,,go-2,1,,,,,,
2,563.0,10,phase_2,blue_rhombus,go,,,,go-2,1,,,,,,
2,358.0,10,phase_2,blue_rhombus,go,,,,go-2,1,,,,,,
1,445.0,10,phase_2,blue_triangle,go,,,,go-2,1,,,,,,
2,545.0,10,phase_2,red_circle,go,,,,go-1,1,,,,,,
0,0,10,phase_2,red_pentagon,stop,purple,0.0,0-SSD,go-1,4,,,,,,
1,609.0,10,phase_2,red_triangle,go,,,,go-1,1,,,,,,
1,764.0,10,phase_2,blue_pentagon,go,,,,go-2,1,,,,,,
1,570.0,10,phase_2,red_pentagon,go,,,,go-1,1,,,,,,
1,500.0,10,phase_2,red_pentagon,go,,,,go-1,1,,,,,,
2,677.0,10,phase_2,red_rhombus,go,,,,go-1,1,,,,,,
1,461.0,10,phase_2,blue_triangle,go,,,,go-2,1,,,,,,
2,380.0,10,phase_2,blue_circle,go,,,,go-2,1,,,,,,
0,0,10,phase_2,red_pentagon,stop,purple,0.0,0-SSD,go-1,4,,,,,,
1,667.0,10,phase_2,red_triangle,go,,,,go-1,1,,,,,,
2,1116.0,10,phase_2,red_rhombus,go,,,,go-1,1,,,,,,
1,495.0,10,phase_2,blue_triangle,go,,,,go-2,1,,,,,,
2,1628.0,10,phase_2,blue_circle,stop,green,200.0,tracking-SSD,go-2,3,,,,,,
1,570.0,10,phase_2,red_triangle,go,,,,go-1,1,,,,,,
1,669.0,10,phase_2,blue_pentagon,go,,,,go-2,1,,,,,,
0,0,10,phase_2,blue_circle,stop,purple,0.0,0-SSD,go-2,4,,,,,,
0,0,10,phase_2,red_triangle,stop,purple,0.0,0-SSD,go-1,4,,,,,,
0,0,10,phase_2,blue_pentagon,stop,purple,0.0,0-SSD,go-2,4,,,,,,
0,0,11,phase_2,red_rhombus,stop,green,150.0,tracking-SSD,go-1,4,,,,,,
0,0,11,phase_2,blue_triangle,stop,purple,0.0,0-SSD,go-2,4,,,,,,
0,0,11,phase_2,blue_rhombus,stop,purple,0.0,0-SSD,go-2,4,,,,,,
1,615.0,11,phase_2,red_pentagon,go,,,,go-1,1,,,,,,
0,0,11,phase_2,blue_pentagon,stop,green,200.0,tracking-SSD,go-2,4,,,,,,
1,578.0,11,phase_2,red_triangle,go,,,,go-1,1,,,,,,
1,384.0,11,phase_2,red_pentagon,go,,,,go-1,1,,,,,,
2,439.0,11,phase_2,blue_circle,go,,,,go-2,1,,,,,,
1,526.0,11,phase_2,red_pentagon,go,,,,go-1,1,,,,,,
2,557.0,11,phase_2,red_circle,go,,,,go-1,1,,,,,,
1,623.0,11,phase_2,blue_triangle,go,,,,go-2,1,,,,,,
0,0,11,phase_2,red_rhombus,stop,purple,0.0,0-SSD,go-1,4,,,,,,
2,472.0,11,phase_2,blue_circle,go,,,,go-2,1,,,,,,
2,65.0,11,phase_2,blue_triangle,go,,,,go-2,2,,,,,,
2,468.0,11,phase_2,blue_rhombus,go,,,,go-2,1,,,,,,
2,623.0,11,phase_2,blue_circle,go,,,,go-2,1,,,,,,
1,463.0,11,phase_2,red_triangle,stop,green,250.0,tracking-SSD,go-1,3,,,,,,
1,619.0,11,phase_2,blue_pentagon,go,,,,go-2,1,,,,,,
1,437.0,11,phase_2,blue_pentagon,go,,,,go-2,1,,,,,,
1,492.0,11,phase_2,red_pentagon,go,,,,go-1,1,,,,,,
0,0,11,phase_2,red_triangle,stop,purple,0.0,0-SSD,go-1,4,,,,,,
0,0,11,phase_2,blue_rhombus,stop,purple,0.0,0-SSD,go-2,4,,,,,,
2,632.0,11,phase_2,red_rhombus,go,,,,go-1,1,,,,,,
2,415.0,11,phase_2,blue_rhombus,go,,,,go-2,1,,,,,,
2,514.0,11,phase_2,red_circle,go,,,,go-1,1,,,,,,
1,535.0,11,phase_2,blue_pentagon,stop,green,200.0,tracking-SSD,go-2,3,,,,,,
0,0,11,phase_2,red_rhombus,stop,green,150.0,tracking-SSD,go-1,4,,,,,,
2,713.0,11,phase_2,red_rhombus,go,,,,go-1,1,,,,,,
2,531.0,11,phase_2,red_circle,go,,,,go-1,1,,,,,,
0,0,11,phase_2,blue_pentagon,stop,green,200.0,tracking-SSD,go-2,4,,,,,,
2,447.0,11,phase_2,red_pentagon,go,,,,go-1,2,,,,,,
2,467.0,11,phase_2,blue_circle,go,,,,go-2,1,,,,,,
2,679.0,11,phase_2,red_circle,go,,,,go-1,1,,,,,,
1,473.0,11,phase_2,blue_triangle,go,,,,go-2,1,,,,,,
0,0,11,phase_2,blue_circle,stop,purple,0.0,0-SSD,go-2,4,,,,,,
0,0,11,phase_2,blue_rhombus,stop,green,250.0,tracking-SSD,go-2,4,,,,,,
1,454.0,11,phase_2,blue_triangle,go,,,,go-2,1,,,,,,
1,452.0,11,phase_2,red_triangle,go,,,,go-1,1,,,,,,
2,664.0,11,phase_2,blue_rhombus,go,,,,go-2,1,,,,,,
1,470.0,11,phase_2,blue_triangle,go,,,,go-2,1,,,,,,
0,0,11,phase_2,red_rhombus,stop,purple,0.0,0-SSD,go-1,4,,,,,,
0,0,11,phase_2,red_pentagon,stop,green,300.0,tracking-SSD,go-1,4,,,,,,
1,531.0,11,phase_2,blue_triangle,go,,,,go-2,1,,,,,,
2,642.0,11,phase_2,red_circle,go,,,,go-1,1,,,,,,
2,583.0,11,phase_2,blue_circle,go,,,,go-2,1,,,,,,
0,0,11,phase_2,red_pentagon,stop,purple,0.0,0-SSD,go-1,4,,,,,,
2,466.0,11,phase_2,red_circle,go,,,,go-1,1,,,,,,
1,487.0,11,phase_2,red_triangle,go,,,,go-1,1,,,,,,
2,486.0,12,phase_2,blue_circle,go,,,,go-2,1,,,,,,
2,361.0,12,phase_2,blue_circle,stop,green,350.0,tracking-SSD,go-2,3,,,,,,
2,380.0,12,phase_2,red_circle,go,,,,go-1,1,,,,,,
2,435.0,12,phase_2,blue_pentagon,go,,,,go-2,2,,,,,,
2,557.0,12,phase_2,red_rhombus,go,,,,go-1,1,,,,,,
1,576.0,12,phase_2,red_triangle,go,,,,go-1,1,,,,,,
1,653.0,12,phase_2,blue_pentagon,go,,,,go-2,1,,,,,,
0,0,12,phase_2,blue_triangle,stop,purple,0.0,0-SSD,go-2,4,,,,,,
0,0,12,phase_2,red_rhombus,stop,purple,0.0,0-SSD,go-1,4,,,,,,
2,657.0,12,phase_2,blue_circle,go,,,,go-2,1,,,,,,
1,531.0,12,phase_2,red_pentagon,go,,,,go-1,1,,,,,,
0,0,12,phase_2,red_rhombus,stop,purple,0.0,0-SSD,go-1,4,,,,,,
1,649.0,12,phase_2,blue_pentagon,go,,,,go-2,1,,,,,,
1,580.0,12,phase_2,red_triangle,stop,green,300.0,tracking-SSD,go-1,3,,,,,,
2,532.0,12,phase_2,red_rhombus,go,,,,go-1,1,,,,,,
2,451.0,12,phase_2,red_rhombus,go,,,,go-1,1,,,,,,
2,382.0,12,phase_2,red_rhombus,go,,,,go-1,1,,,,,,
0,0,12,phase_2,blue_triangle,stop,purple,0.0,0-SSD,go-2,4,,,,,,
0,0,12,phase_2,blue_rhombus,stop,purple,0.0,0-SSD,go-2,4,,,,,,
0,0,12,phase_2,red_circle,stop,purple,0.0,0-SSD,go-1,4,,,,,,
1,575.0,12,phase_2,blue_pentagon,go,,,,go-2,1,,,,,,
0,0,12,phase_2,red_pentagon,stop,green,250.0,tracking-SSD,go-1,4,,,,,,
0,0,12,phase_2,red_triangle,stop,green,300.0,tracking-SSD,go-1,4,,,,,,
0,0,12,phase_2,blue_circle,stop,purple,0.0,0-SSD,go-2,4,,,,,,
1,1038.0,12,phase_2,red_pentagon,go,,,,go-1,1,,,,,,
2,541.0,12,phase_2,red_circle,go,,,,go-1,1,,,,,,
1,526.0,12,phase_2,blue_triangle,go,,,,go-2,1,,,,,,
0,0,12,phase_2,red_triangle,stop,purple,0.0,0-SSD,go-1,4,,,,,,
2,657.0,12,phase_2,blue_circle,go,,,,go-2,1,,,,,,
1,498.0,12,phase_2,red_triangle,go,,,,go-1,1,,,,,,
2,541.0,12,phase_2,blue_triangle,go,,,,go-2,2,,,,,,
2,493.0,12,phase_2,red_rhombus,go,,,,go-1,1,,,,,,
2,470.0,12,phase_2,red_circle,go,,,,go-1,1,,,,,,
1,469.0,12,phase_2,red_pentagon,go,,,,go-1,1,,,,,,
2,522.0,12,phase_2,blue_rhombus,go,,,,go-2,1,,,,,,
2,543.0,12,phase_2,blue_circle,go,,,,go-2,1,,,,,,
2,427.0,12,phase_2,blue_triangle,go,,,,go-2,2,,,,,,
1,605.0,12,phase_2,red_pentagon,go,,,,go-1,1,,,,,,
2,602.0,12,phase_2,blue_circle,go,,,,go-2,1,,,,,,
1,476.0,12,phase_2,blue_pentagon,stop,green,350.0,tracking-SSD,go-2,3,,,,,,
1,530.0,12,phase_2,blue_triangle,go,,,,go-2,1,,,,,,
2,572.0,12,phase_2,blue_rhombus,go,,,,go-2,1,,,,,,
1,581.0,12,phase_2,red_pentagon,go,,,,go-1,1,,,,,,
0,0,12,phase_2,red_rhombus,stop,green,300.0,tracking-SSD,go-1,4,,,,,,
0,0,12,phase_2,blue_rhombus,stop,green,350.0,tracking-SSD,go-2,4,,,,,,
1,698.0,12,phase_2,blue_pentagon,go,,,,go-2,1,,,,,,
2,492.0,12,phase_2,blue_circle,stop,green,400.0,tracking-SSD,go-2,3,,,,,,
1,557.0,12,phase_2,red_triangle,go,,,,go-1,1,,,,,,
2,521.0,13,phase_2,red_circle,go,,,,go-1,1,,,,,,
0,0,13,phase_2,blue_triangle,stop,purple,0.0,0-SSD,go-2,4,,,,,,
1,526.0,13,phase_2,blue_rhombus,go,,,,go-2,2,,,,,,
2,445.0,13,phase_2,red_circle,go,,,,go-1,1,,,,,,
1,456.0,13,phase_2,red_triangle,stop,green,350.0,tracking-SSD,go-1,3,,,,,,
0,0,13,phase_2,red_circle,stop,purple,0.0,0-SSD,go-1,4,,,,,,
2,529.0,13,phase_2,red_circle,go,,,,go-1,1,,,,,,
0,0,13,phase_2,red_rhombus,stop,purple,0.0,0-SSD,go-1,4,,,,,,
1,447.0,13,phase_2,red_triangle,go,,,,go-1,1,,,,,,
1,456.0,13,phase_2,red_triangle,go,,,,go-1,1,,,,,,
1,441.0,13,phase_2,red_triangle,go,,,,go-1,1,,,,,,
2,541.0,13,phase_2,blue_pentagon,go,,,,go-2,2,,,,,,
1,448.0,13,phase_2,blue_rhombus,stop,green,300.0,tracking-SSD,go-2,3,,,,,,
0,0,13,phase_2,red_rhombus,stop,purple,0.0,0-SSD,go-1,4,,,,,,
2,533.0,13,phase_2,blue_rhombus,go,,,,go-2,1,,,,,,
0,0,13,phase_2,red_triangle,stop,green,250.0,tracking-SSD,go-1,4,,,,,,
1,821.0,13,phase_2,blue_pentagon,go,,,,go-2,1,,,,,,
1,447.0,13,phase_2,blue_rhombus,go,,,,go-2,2,,,,,,
1,411.0,13,phase_2,red_pentagon,go,,,,go-1,1,,,,,,
1,567.0,13,phase_2,blue_triangle,go,,,,go-2,1,,,,,,
2,473.0,13,phase_2,blue_rhombus,go,,,,go-2,1,,,,,,
1,718.0,13,phase_2,red_pentagon,go,,,,go-1,1,,,,,,
2,536.0,13,phase_2,red_circle,go,,,,go-1,1,,,,,,
2,432.0,13,phase_2,blue_circle,go,,,,go-2,1,,,,,,
0,0,13,phase_2,blue_pentagon,stop,purple,0.0,0-SSD,go-2,4,,,,,,
0,0,13,phase_2,blue_pentagon,stop,purple,0.0,0-SSD,go-2,4,,,,,,
1,516.0,13,phase_2,red_triangle,go,,,,go-1,1,,,,,,
2,502.0,13,phase_2,red_rhombus,go,,,,go-1,1,,,,,,
1,624.0,13,phase_2,blue_pentagon,go,,,,go-2,1,,,,,,
2,531.0,13,phase_2,red_rhombus,go,,,,go-1,1,,,,,,
1,596.0,13,phase_2,red_pentagon,go,,,,go-1,1,,,,,,
2,696.0,13,phase_2,red_triangle,go,,,,go-1,2,,,,,,
1,502.0,13,phase_2,red_triangle,go,,,,go-1,1,,,,,,
2,522.0,13,phase_2,blue_rhombus,go,,,,go-2,1,,,,,,
2,611.0,13,phase_2,red_circle,go,,,,go-1,1,,,,,,
2,474.0,13,phase_2,blue_circle,stop,green,300.0,tracking-SSD,go-2,3,,,,,,
2,596.0,13,phase_2,blue_rhombus,go,,,,go-2,1,,,,,,
2,367.0,13,phase_2,blue_circle,stop,green,250.0,tracking-SSD,go-2,3,,,,,,
2,522.0,13,phase_2,blue_rhombus,go,,,,go-2,1,,,,,,
1,621.0,13,phase_2,blue_pentagon,go,,,,go-2,1,,,,,,
1,484.0,13,phase_2,blue_circle,go,,,,go-2,2,,,,,,
0,0,13,phase_2,blue_pentagon,stop,purple,0.0,0-SSD,go-2,4,,,,,,
0,0,13,phase_2,blue_pentagon,stop,green,200.0,tracking-SSD,go-2,4,,,,,,
2,522.0,13,phase_2,blue_circle,go,,,,go-2,1,,,,,,
0,0,13,phase_2,red_triangle,stop,green,250.0,tracking-SSD,go-1,4,,,,,,
2,572.0,13,phase_2,red_circle,stop,green,300.0,tracking-SSD,go-1,3,,,,,,
1,513.0,13,phase_2,blue_pentagon,go,,,,go-2,1,,,,,,
0,0,13,phase_2,red_triangle,stop,purple,0.0,0-SSD,go-1,4,,,,,,
0,0,14,phase_2,red_pentagon,stop,purple,0.0,0-SSD,go-1,4,,,,,,
0,0,14,phase_2,blue_triangle,stop,purple,0.0,0-SSD,go-2,4,,,,,,
0,0,14,phase_2,red_triangle,stop,green,250.0,tracking-SSD,go-1,4,,,,,,
0,0,14,phase_2,blue_pentagon,stop,green,300.0,tracking-SSD,go-2,4,,,,,,
2,657.0,14,phase_2,blue_rhombus,go,,,,go-2,1,,,,,,
0,0,14,phase_2,red_rhombus,stop,purple,0.0,0-SSD,go-1,4,,,,,,
2,506.0,14,phase_2,red_rhombus,go,,,,go-1,1,,,,,,
2,548.0,14,phase_2,blue_rhombus,go,,,,go-2,1,,,,,,
1,624.0,14,phase_2,blue_pentagon,go,,,,go-2,1,,,,,,
0,0,14,phase_2,blue_rhombus,stop,purple,0.0,0-SSD,go-2,4,,,,,,
1,697.0,14,phase_2,red_triangle,go,,,,go-1,1,,,,,,
2,549.0,14,phase_2,blue_circle,stop,green,350.0,tracking-SSD,go-2,3,,,,,,
1,501.0,14,phase_2,blue_triangle,go,,,,go-2,1,,,,,,
2,792.0,14,phase_2,red_circle,go,,,,go-1,1,,,,,,
2,362.0,14,phase_2,blue_circle,go,,,,go-2,1,,,,,,
2,596.0,14,phase_2,red_rhombus,go,,,,go-1,1,,,,,,
1,447.0,14,phase_2,blue_pentagon,go,,,,go-2,1,,,,,,
2,73.0,14,phase_2,red_rhombus,stop,purple,0.0,0-SSD,go-1,3,,,,,,
2,871.0,14,phase_2,red_circle,go,,,,go-1,1,,,,,,
0,0,14,phase_2,red_circle,stop,purple,0.0,0-SSD,go-1,4,,,,,,
2,461.0,14,phase_2,blue_circle,go,,,,go-2,1,,,,,,
1,572.0,14,phase_2,blue_triangle,stop,green,300.0,tracking-SSD,go-2,3,,,,,,
0,0,14,phase_2,red_rhombus,stop,green,250.0,tracking-SSD,go-1,4,,,,,,
0,0,14,phase_2,blue_pentagon,stop,green,300.0,tracking-SSD,go-2,4,,,,,,
1,620.0,14,phase_2,blue_pentagon,go,,,,go-2,1,,,,,,
1,528.0,14,phase_2,red_triangle,go,,,,go-1,1,,,,,,
2,492.0,14,phase_2,red_circle,go,,,,go-1,1,,,,,,
2,365.0,14,phase_2,red_circle,go,,,,go-1,1,,,,,,
1,565.0,14,phase_2,red_rhombus,go,,,,go-1,2,,,,,,
1,461.0,14,phase_2,blue_triangle,go,,,,go-2,1,,,,,,
1,651.0,14,phase_2,blue_rhombus,go,,,,go-2,2,,,,,,
0,0,14,phase_2,blue_pentagon,stop,purple,0.0,0-SSD,go-2,4,,,,,,
0,0,14,phase_2,red_rhombus,go,,,,go-1,2,,,,,,
1,721.0,14,phase_2,red_triangle,go,,,,go-1,1,,,,,,
1,504.0,14,phase_2,red_rhombus,go,,,,go-1,2,,,,,,
2,536.0,14,phase_2,blue_circle,go,,,,go-2,1,,,,,,
1,523.0,14,phase_2,red_triangle,stop,green,350.0,tracking-SSD,go-1,3,,,,,,
1,643.0,14,phase_2,blue_pentagon,go,,,,go-2,1,,,,,,
1,630.0,14,phase_2,blue_pentagon,go,,,,go-2,1,,,,,,
1,549.0,14,phase_2,red_pentagon,go,,,,go-1,1,,,,,,
1,558.0,14,phase_2,blue_triangle,go,,,,go-2,1,,,,,,
1,510.0,14,phase_2,blue_pentagon,go,,,,go-2,1,,,,,,
0,0,14,phase_2,blue_pentagon,stop,purple,0.0,0-SSD,go-2,4,,,,,,
2,673.0,14,phase_2,red_circle,stop,green,300.0,tracking-SSD,go-1,3,,,,,,
2,636.0,14,phase_2,red_circle,go,,,,go-1,1,,,,,,
2,375.0,14,phase_2,red_circle,go,,,,go-1,1,,,,,,
1,564.0,14,phase_2,red_triangle,go,,,,go-1,1,,,,,,
1,527.0,14,phase_2,blue_triangle,go,,,,go-2,1,,,,,,
1,588.0,15,phase_2,blue_triangle,go,,,,go-2,1,,,,,,
0,0,15,phase_2,blue_circle,stop,purple,0.0,0-SSD,go-2,4,,,,,,
1,594.0,15,phase_2,blue_circle,go,,,,go-2,2,,,,,,
0,0,15,phase_2,blue_rhombus,stop,purple,0.0,0-SSD,go-2,4,,,,,,
0,0,15,phase_2,blue_pentagon,stop,green,250.0,tracking-SSD,go-2,4,,,,,,
0,0,15,phase_2,blue_rhombus,stop,purple,0.0,0-SSD,go-2,4,,,,,,
0,0,15,phase_2,red_triangle,stop,purple,0.0,0-SSD,go-1,4,,,,,,
1,831.0,15,phase_2,red_rhombus,go,,,,go-1,2,,,,,,
2,456.0,15,phase_2,blue_rhombus,go,,,,go-2,1,,,,,,
2,545.0,15,phase_2,blue_circle,go,,,,go-2,1,,,,,,
0,0,15,phase_2,blue_pentagon,stop,green,300.0,tracking-SSD,go-2,4,,,,,,
0,0,15,phase_2,blue_pentagon,stop,green,350.0,tracking-SSD,go-2,4,,,,,,
2,842.0,15,phase_2,red_pentagon,go,,,,go-1,2,,,,,,
1,557.0,15,phase_2,blue_triangle,go,,,,go-2,1,,,,,,
1,476.0,15,phase_2,blue_pentagon,go,,,,go-2,1,,,,,,
1,394.0,15,phase_2,red_pentagon,go,,,,go-1,1,,,,,,
1,527.0,15,phase_2,red_rhombus,go,,,,go-1,2,,,,,,
2,458.0,15,phase_2,red_rhombus,stop,green,400.0,tracking-SSD,go-1,3,,,,,,
2,456.0,15,phase_2,red_circle,go,,,,go-1,1,,,,,,
2,430.0,15,phase_2,red_rhombus,go,,,,go-1,1,,,,,,
1,540.0,15,phase_2,red_triangle,go,,,,go-1,1,,,,,,
1,526.0,15,phase_2,red_triangle,go,,,,go-1,1,,,,,,
0,0,15,phase_2,red_triangle,stop,purple,0.0,0-SSD,go-1,4,,,,,,
1,522.0,15,phase_2,blue_triangle,stop,green,350.0,tracking-SSD,go-2,3,,,,,,
1,418.0,15,phase_2,blue_triangle,go,,,,go-2,1,,,,,,
2,540.0,15,phase_2,blue_rhombus,go,,,,go-2,1,,,,,,
1,527.0,15,phase_2,red_triangle,stop,green,300.0,tracking-SSD,go-1,3,,,,,,
0,0,15,phase_2,red_pentagon,stop,purple,0.0,0-SSD,go-1,4,,,,,,
2,523.0,15,phase_2,blue_circle,go,,,,go-2,1,,,,,,
2,519.0,15,phase_2,blue_rhombus,go,,,,go-2,1,,,,,,
2,449.0,15,phase_2,blue_circle,go,,,,go-2,1,,,,,,
2,1020.0,15,phase_2,red_rhombus,go,,,,go-1,1,,,,,,
1,658.0,15,phase_2,blue_circle,go,,,,go-2,2,,,,,,
1,532.0,15,phase_2,blue_pentagon,go,,,,go-2,1,,,,,,
1,743.0,15,phase_2,red_pentagon,go,,,,go-1,1,,,,,,
0,0,15,phase_2,blue_pentagon,stop,purple,0.0,0-SSD,go-2,4,,,,,,
2,682.0,15,phase_2,red_circle,go,,,,go-1,1,,,,,,
1,534.0,15,phase_2,red_pentagon,go,,,,go-1,1,,,,,,
2,768.0,15,phase_2,red_rhombus,go,,,,go-1,1,,,,,,
2,461.0,15,phase_2,red_circle,go,,,,go-1,1,,,,,,
0,0,15,phase_2,red_pentagon,stop,purple,0.0,0-SSD,go-1,4,,,,,,
0,0,15,phase_2,red_rhombus,stop,green,250.0,tracking-SSD,go-1,4,,,,,,
2,881.0,15,phase_2,red_triangle,go,,,,go-1,2,,,,,,
2,395.0,15,phase_2,red_circle,stop,green,300.0,tracking-SSD,go-1,3,,,,,,
1,471.0,15,phase_2,red_triangle,go,,,,go-1,1,,,,,,
1,423.0,15,phase_2,blue_triangle,go,,,,go-2,1,,,,,,
2,567.0,15,phase_2,blue_circle,go,,,,go-2,1,,,,,,
1,587.0,15,phase_2,blue_circle,go,,,,go-2,2,,,,,,
0,0,16,phase_2,blue_pentagon,stop,purple,0.0,0-SSD,go-2,4,,,,,,
1,991.0,16,phase_2,red_triangle,go,,,,go-1,1,,,,,,
0,0,16,phase_2,red_circle,stop,purple,0.0,0-SSD,go-1,4,,,,,,
1,492.0,16,phase_2,blue_rhombus,go,,,,go-2,2,,,,,,
2,513.0,16,phase_2,red_rhombus,go,,,,go-1,1,,,,,,
1,645.0,16,phase_2,red_pentagon,go,,,,go-1,1,,,,,,
1,485.0,16,phase_2,blue_triangle,go,,,,go-2,1,,,,,,
2,403.0,16,phase_2,blue_circle,go,,,,go-2,1,,,,,,
0,0,16,phase_2,red_triangle,stop,purple,0.0,0-SSD,go-1,4,,,,,,
0,0,16,phase_2,blue_rhombus,stop,green,250.0,tracking-SSD,go-2,4,,,,,,
2,419.0,16,phase_2,blue_circle,go,,,,go-2,1,,,,,,
2,451.0,16,phase_2,red_circle,stop,green,300.0,tracking-SSD,go-1,3,,,,,,
0,0,16,phase_2,blue_triangle,stop,purple,0.0,0-SSD,go-2,4,,,,,,
1,715.0,16,phase_2,red_pentagon,go,,,,go-1,1,,,,,,
2,476.0,16,phase_2,red_circle,go,,,,go-1,1,,,,,,
0,0,16,phase_2,blue_rhombus,stop,purple,0.0,0-SSD,go-2,4,,,,,,
0,0,16,phase_2,red_pentagon,stop,green,250.0,tracking-SSD,go-1,4,,,,,,
1,648.0,16,phase_2,red_pentagon,go,,,,go-1,1,,,,,,
1,634.0,16,phase_2,red_triangle,go,,,,go-1,1,,,,,,
1,553.0,16,phase_2,blue_triangle,go,,,,go-2,1,,,,,,
2,595.0,16,phase_2,red_rhombus,go,,,,go-1,1,,,,,,
2,548.0,16,phase_2,red_circle,go,,,,go-1,1,,,,,,
1,489.0,16,phase_2,blue_triangle,go,,,,go-2,1,,,,,,
1,588.0,16,phase_2,blue_triangle,go,,,,go-2,1,,,,,,
2,427.0,16,phase_2,red_circle,stop,green,300.0,tracking-SSD,go-1,3,,,,,,
1,707.0,16,phase_2,red_pentagon,go,,,,go-1,1,,,,,,
1,503.0,16,phase_2,blue_pentagon,go,,,,go-2,1,,,,,,
0,0,16,phase_2,red_rhombus,stop,purple,0.0,0-SSD,go-1,4,,,,,,
0,0,16,phase_2,blue_triangle,stop,purple,0.0,0-SSD,go-2,4,,,,,,
1,766.0,16,phase_2,red_pentagon,go,,,,go-1,1,,,,,,
2,572.0,16,phase_2,blue_circle,go,,,,go-2,1,,,,,,
2,402.0,16,phase_2,red_rhombus,stop,green,250.0,tracking-SSD,go-1,3,,,,,,
2,523.0,16,phase_2,red_rhombus,go,,,,go-1,1,,,,,,
2,599.0,16,phase_2,red_circle,go,,,,go-1,1,,,,,,
0,0,16,phase_2,blue_pentagon,stop,green,200.0,tracking-SSD,go-2,4,,,,,,
2,537.0,16,phase_2,blue_rhombus,go,,,,go-2,1,,,,,,
2,445.0,16,phase_2,blue_rhombus,go,,,,go-2,1,,,,,,
1,566.0,16,phase_2,blue_triangle,stop,green,250.0,tracking-SSD,go-2,3,,,,,,
2,598.0,16,phase_2,blue_rhombus,go,,,,go-2,1,,,,,,
0,0,16,phase_2,blue_circle,stop,green,200.0,tracking-SSD,go-2,4,,,,,,
1,661.0,16,phase_2,blue_pentagon,go,,,,go-2,1,,,,,,
1,579.0,16,phase_2,red_triangle,go,,,,go-1,1,,,,,,
1,655.0,16,phase_2,red_pentagon,go,,,,go-1,1,,,,,,
1,573.0,16,phase_2,blue_pentagon,go,,,,go-2,1,,,,,,
1,616.0,16,phase_2,red_triangle,go,,,,go-1,1,,,,,,
1,467.0,16,phase_2,blue_circle,go,,,,go-2,2,,,,,,
0,0,16,phase_2,red_rhombus,stop,purple,0.0,0-SSD,go-1,4,,,,,,
2,530.0,16,phase_2,blue_circle,go,,,,go-2,1,,,,,,
0,0,17,phase_2,red_triangle,stop,green,250.0,tracking-SSD,go-1,4,,,,,,
2,563.0,17,phase_2,blue_rhombus,go,,,,go-2,1,,,,,,
1,448.0,17,phase_2,blue_triangle,go,,,,go-2,1,,,,,,
2,806.0,17,phase_2,red_rhombus,go,,,,go-1,1,,,,,,
1,522.0,17,phase_2,red_pentagon,go,,,,go-1,1,,,,,,
0,0,17,phase_2,red_circle,stop,purple,0.0,0-SSD,go-1,4,,,,,,
2,606.0,17,phase_2,red_circle,go,,,,go-1,1,,,,,,
1,627.0,17,phase_2,blue_triangle,go,,,,go-2,1,,,,,,
1,444.0,17,phase_2,red_triangle,go,,,,go-1,1,,,,,,
0,0,17,phase_2,blue_circle,stop,purple,0.0,0-SSD,go-2,4,,,,,,
2,619.0,17,phase_2,red_rhombus,go,,,,go-1,1,,,,,,
1,762.0,17,phase_2,blue_pentagon,go,,,,go-2,1,,,,,,
0,0,17,phase_2,red_circle,stop,purple,0.0,0-SSD,go-1,4,,,,,,
0,0,17,phase_2,blue_triangle,stop,purple,0.0,0-SSD,go-2,4,,,,,,
2,520.0,17,phase_2,red_circle,stop,green,300.0,tracking-SSD,go-1,3,,,,,,
2,1024.0,17,phase_2,blue_rhombus,go,,,,go-2,1,,,,,,
1,402.0,17,phase_2,blue_triangle,go,,,,go-2,1,,,,,,
2,455.0,17,phase_2,red_pentagon,go,,,,go-1,2,,,,,,
1,408.0,17,phase_2,red_pentagon,go,,,,go-1,1,,,,,,
2,697.0,17,phase_2,blue_rhombus,go,,,,go-2,1,,,,,,
1,537.0,17,phase_2,blue_pentagon,stop,green,250.0,tracking-SSD,go-2,3,,,,,,
1,489.0,17,phase_2,red_rhombus,go,,,,go-1,2,,,,,,
0,0,17,phase_2,red_triangle,stop,green,200.0,tracking-SSD,go-1,4,,,,,,
0,0,17,phase_2,blue_circle,stop,green,250.0,tracking-SSD,go-2,4,,,,,,
2,628.0,17,phase_2,red_rhombus,go,,,,go-1,1,,,,,,
2,356.0,17,phase_2,red_rhombus,go,,,,go-1,1,,,,,,
0,0,17,phase_2,red_pentagon,stop,purple,0.0,0-SSD,go-1,4,,,,,,
0,0,17,phase_2,blue_pentagon,stop,green,300.0,tracking-SSD,go-2,4,,,,,,
0,0,17,phase_2,red_triangle,stop,green,350.0,tracking-SSD,go-1,4,,,,,,
2,516.0,17,phase_2,red_circle,go,,,,go-1,1,,,,,,
0,0,17,phase_2,red_triangle,stop,purple,0.0,0-SSD,go-1,4,,,,,,
0,0,17,phase_2,blue_rhombus,stop,purple,0.0,0-SSD,go-2,4,,,,,,
2,575.0,17,phase_2,blue_circle,go,,,,go-2,1,,,,,,
2,448.0,17,phase_2,red_circle,go,,,,go-1,1,,,,,,
0,0,17,phase_2,blue_triangle,stop,purple,0.0,0-SSD,go-2,4,,,,,,
2,522.0,17,phase_2,blue_rhombus,go,,,,go-2,1,,,,,,
1,496.0,17,phase_2,blue_triangle,stop,green,400.0,tracking-SSD,go-2,3,,,,,,
1,450.0,17,phase_2,red_triangle,go,,,,go-1,1,,,,,,
2,402.0,17,phase_2,red_circle,go,,,,go-1,1,,,,,,
1,534.0,17,phase_2,blue_pentagon,go,,,,go-2,1,,,,,,
2,599.0,17,phase_2,blue_pentagon,go,,,,go-2,2,,,,,,
2,608.0,17,phase_2,blue_circle,go,,,,go-2,1,,,,,,
1,583.0,17,phase_2,red_pentagon,go,,,,go-1,1,,,,,,
2,580.0,17,phase_2,blue_rhombus,go,,,,go-2,1,,,,,,
2,510.0,17,phase_2,blue_circle,go,,,,go-2,1,,,,,,
1,665.0,17,phase_2,red_pentagon,go,,,,go-1,1,,,,,,
2,640.0,17,phase_2,blue_rhombus,go,,,,go-2,1,,,,,,
1,581.0,17,phase_2,blue_pentagon,go,,,,go-2,1,,,,,,
,971.0,1,phase_3,,,,,,,,red_square,go-1,red_square,go-1,green_square,tracking-SSD
,572.0,1,phase_3,,,,,,,,purple_square,0-SSD,red_square,go-1,purple_square,0-SSD
,659.0,1,phase_3,,,,,,,,purple_square,0-SSD,blue_square,go-2,purple_square,0-SSD
,507.0,1,phase_3,,,,,,,,blue_square,go-2,blue_square,go-2,green_square,tracking-SSD
,604.0,1,phase_3,,,,,,,,purple_square,0-SSD,purple_square,0-SSD,green_square,tracking-SSD
,510.0,1,phase_3,,,,,,,,blue_square,go-2,red_square,go-1,blue_square,go-2
,482.0,1,phase_3,,,,,,,,purple_square,0-SSD,purple_square,0-SSD,red_square,go-1
,422.0,1,phase_3,,,,,,,,blue_square,go-2,purple_square,0-SSD,blue_square,go-2
,396.0,1,phase_3,,,,,,,,blue_square,go-2,blue_square,go-2,red_square,go-1
,402.0,1,phase_3,,,,,,,,blue_square,go-2,green_square,tracking-SSD,blue_square,go-2
,555.0,1,phase_3,,,,,,,,purple_square,0-SSD,green_square,tracking-SSD,purple_square,0-SSD
,911.0,1,phase_3,,,,,,,,green_square,tracking-SSD,green_square,tracking-SSD,red_square,go-1
,611.0,2,phase_3,,,,,,,,purple_square,0-SSD,purple_square,0-SSD,green_square,tracking-SSD
,518.0,2,phase_3,,,,,,,,blue_square,go-2,red_square,go-1,blue_square,go-2
,569.0,2,phase_3,,,,,,,,red_square,go-1,red_square,go-1,green_square,tracking-SSD
,485.0,2,phase_3,,,,,,,,blue_square,go-2,blue_square,go-2,green_square,tracking-SSD
,368.0,2,phase_3,,,,,,,,purple_square,0-SSD,blue_square,go-2,purple_square,0-SSD
,365.0,2,phase_3,,,,,,,,red_square,go-1,red_square,go-1,purple_square,0-SSD
,348.0,2,phase_3,,,,,,,,red_square,go-1,blue_square,go-2,red_square,go-1
,682.0,2,phase_3,,,,,,,,purple_square,0-SSD,purple_square,0-SSD,red_square,go-1
,442.0,2,phase_3,,,,,,,,blue_square,go-2,purple_square,0-SSD,blue_square,go-2
,426.0,2,phase_3,,,,,,,,blue_square,go-2,green_square,tracking-SSD,blue_square,go-2
,420.0,2,phase_3,,,,,,,,purple_square,0-SSD,green_square,tracking-SSD,purple_square,0-SSD
,508.0,2,phase_3,,,,,,,,red_square,go-1,green_square,tracking-SSD,red_square,go-1
,578.0,3,phase_3,,,,,,,,purple_square,0-SSD,purple_square,0-SSD,green_square,tracking-SSD
,383.0,3,phase_3,,,,,,,,purple_square,0-SSD,red_square,go-1,purple_square,0-SSD
,389.0,3,phase_3,,,,,,,,purple_square,0-SSD,blue_square,go-2,purple_square,0-SSD
,442.0,3,phase_3,,,,,,,,green_square,tracking-SSD,blue_square,go-2,green_square,tracking-SSD
,392.0,3,phase_3,,,,,,,,blue_square,go-2,red_square,go-1,blue_square,go-2
,489.0,3,phase_3,,,,,,,,red_square,go-1,red_square,go-1,green_square,tracking-SSD
,508.0,3,phase_3,,,,,,,,purple_square,0-SSD,purple_square,0-SSD,red_square,go-1
,446.0,3,phase_3,,,,,,,,blue_square,go-2,blue_square,go-2,red_square,go-1
,342.0,3,phase_3,,,,,,,,blue_square,go-2,purple_square,0-SSD,blue_square,go-2
,314.0,3,phase_3,,,,,,,,blue_square,go-2,green_square,tracking-SSD,blue_square,go-2
,546.0,3,phase_3,,,,,,,,red_square,go-1,green_square,tracking-SSD,red_square,go-1
,340.0,3,phase_3,,,,,,,,purple_square,0-SSD,green_square,tracking-SSD,purple_square,0-SSD
,476.0,4,phase_3,,,,,,,,blue_square,go-2,blue_square,go-2,purple_square,0-SSD
,336.0,4,phase_3,,,,,,,,green_square,tracking-SSD,purple_square,0-SSD,green_square,tracking-SSD
,489.0,4,phase_3,,,,,,,,blue_square,go-2,red_square,go-1,blue_square,go-2
,247.0,4,phase_3,,,,,,,,red_square,go-1,red_square,go-1,purple_square,0-SSD
,232.0,4,phase_3,,,,,,,,green_square,tracking-SSD,blue_square,go-2,green_square,tracking-SSD
,228.0,4,phase_3,,,,,,,,green_square,tracking-SSD,red_square,go-1,green_square,tracking-SSD
,134.0,4,phase_3,,,,,,,,red_square,go-1,blue_square,go-2,red_square,go-1
,309.0,4,phase_3,,,,,,,,purple_square,0-SSD,purple_square,0-SSD,red_square,go-1
,204.0,4,phase_3,,,,,,,,red_square,go-1,green_square,tracking-SSD,red_square,go-1
,86.0,4,phase_3,,,,,,,,blue_square,go-2,green_square,tracking-SSD,blue_square,go-2
,240.0,4,phase_3,,,,,,,,purple_square,0-SSD,green_square,tracking-SSD,purple_square,0-SSD
,303.0,4,phase_3,,,,,,,,purple_square,0-SSD,purple_square,0-SSD,blue_square,go-2
,353.0,5,phase_3,,,,,,,,purple_square,0-SSD,red_square,go-1,purple_square,0-SSD
,292.0,5,phase_3,,,,,,,,purple_square,0-SSD,purple_square,0-SSD,green_square,tracking-SSD
,142.0,5,phase_3,,,,,,,,green_square,tracking-SSD,blue_square,go-2,green_square,tracking-SSD
,273.0,5,phase_3,,,,,,,,red_square,go-1,red_square,go-1,blue_square,go-2
,280.0,5,phase_3,,,,,,,,purple_square,0-SSD,blue_square,go-2,purple_square,0-SSD
,321.0,5,phase_3,,,,,,,,red_square,go-1,red_square,go-1,green_square,tracking-SSD
,226.0,5,phase_3,,,,,,,,purple_square,0-SSD,green_square,tracking-SSD,purple_square,0-SSD
,503.0,5,phase_3,,,,,,,,blue_square,go-2,green_square,tracking-SSD,blue_square,go-2
,386.0,5,phase_3,,,,,,,,blue_square,go-2,purple_square,0-SSD,blue_square,go-2
,302.0,5,phase_3,,,,,,,,red_square,go-1,blue_square,go-2,red_square,go-1
,377.0,5,phase_3,,,,,,,,red_square,go-1,green_square,tracking-SSD,red_square,go-1
,407.0,5,phase_3,,,,,,,,purple_square,0-SSD,purple_square,0-SSD,red_square,go-1
