response,reaction_time,block,which_phase,stim,stop_signal_trial_type,stop_signal_stimulus,SSD,SSD_type,condition,accuracy,chosen_stim,chosen_cond,stim_left,cond_left,stim_right,cond_right
2,486.0,1,phase_2,blue_triangle,go,,,,go-1,1,,,,,,
1,472.0,1,phase_2,blue_rhombus,go,,,,go-1,1,,,,,,
1,628.0,1,phase_2,blue_rhombus,go,,,,go-1,1,,,,,,
2,615.0,1,phase_2,purple_pentagon,go,,,,go-2,1,,,,,,
1,521.0,1,phase_2,purple_circle,go,,,,go-2,1,,,,,,
0,0,1,phase_2,purple_pentagon,stop,green,0.0,0-SSD,go-2,4,,,,,,
1,450.0,1,phase_2,blue_circle,go,,,,go-1,1,,,,,,
2,706.0,1,phase_2,purple_triangle,go,,,,go-2,1,,,,,,
2,444.0,1,phase_2,blue_pentagon,go,,,,go-1,1,,,,,,
1,375.0,1,phase_2,blue_circle,stop,red,250.0,tracking-SSD,go-1,3,,,,,,
0,0,1,phase_2,blue_pentagon,stop,red,200.0,tracking-SSD,go-1,4,,,,,,
0,0,1,phase_2,purple_rhombus,stop,red,250.0,tracking-SSD,go-2,4,,,,,,
1,546.0,1,phase_2,purple_rhombus,go,,,,go-2,1,,,,,,
2,703.0,1,phase_2,purple_triangle,go,,,,go-2,1,,,,,,
2,486.0,1,phase_2,purple_pentagon,go,,,,go-2,1,,,,,,
0,0,1,phase_2,blue_rhombus,stop,green,0.0,0-SSD,go-1,4,,,,,,
1,403.0,1,phase_2,purple_circle,go,,,,go-2,1,,,,,,
2,480.0,1,phase_2,purple_triangle,go,,,,go-2,1,,,,,,
2,467.0,1,phase_2,purple_pentagon,stop,red,300.0,tracking-SSD,go-2,3,,,,,,
1,487.0,1,phase_2,blue_circle,go,,,,go-1,1,,,,,,
2,686.0,1,phase_2,blue_triangle,go,,,,go-1,1,,,,,,
1,593.0,1,phase_2,blue_circle,go,,,,go-1,1,,,,,,
0,0,1,phase_2,purple_circle,stop,green,0.0,0-SSD,go-2,4,,,,,,
2,501.0,1,phase_2,blue_triangle,go,,,,go-1,1,,,,,,
2,531.0,1,phase_2,purple_triangle,go,,,,go-2,1,,,,,,
1,776.0,1,phase_2,purple_rhombus,go,,,,go-2,1,,,,,,
0,0,1,phase_2,purple_circle,stop,green,0.0,0-SSD,go-2,4,,,,,,
1,446.0,1,phase_2,purple_rhombus,go,,,,go-2,1,,,,,,
0,0,1,phase_2,blue_triangle,stop,green,0.0,0-SSD,go-1,4,,,,,,
0,0,1,phase_2,purple_rhombus,stop,red,250.0,tracking-SSD,go-2,4,,,,,,
2,531.0,1,phase_2,purple_pentagon,go,,,,go-2,1,,,,,,
1,573.0,1,phase_2,blue_rhombus,go,,,,go-1,1,,,,,,
1,505.0,1,phase_2,blue_circle,go,,,,go-1,1,,,,,,
2,559.0,1,phase_2,purple_triangle,go,,,,go-2,1,,,,,,
1,702.0,1,phase_2,blue_rhombus,stop,red,300.0,tracking-SSD,go-1,3,,,,,,
0,0,1,phase_2,purple_pentagon,stop,green,0.0,0-SSD,go-2,4,,,,,,
2,483.0,1,phase_2,blue_pentagon,go,,,,go-1,1,,,,,,
1,458.0,1,phase_2,purple_circle,stop,red,250.0,tracking-SSD,go-2,3,,,,,,
0,0,1,phase_2,blue_pentagon,stop,green,0.0,0-SSD,go-1,4,,,,,,
1,498.0,1,phase_2,blue_circle,go,,,,go-1,1,,,,,,
1,586.0,1,phase_2,blue_rhombus,go,,,,go-1,1,,,,,,
2,517.0,1,phase_2,blue_pentagon,go,,,,go-1,1,,,,,,
2,740.0,1,phase_2,purple_triangle,go,,,,go-2,1,,,,,,
1,783.0,1,phase_2,blue_rhombus,go,,,,go-1,1,,,,,,
2,521.0,1,phase_2,purple_triangle,go,,,,go-2,1,,,,,,
0,0,1,phase_2,blue_pentagon,stop,red,200.0,tracking-SSD,go-1,4,,,,,,
0,0,1,phase_2,blue_triangle,stop,green,0.0,0-SSD,go-1,4,,,,,,
1,469.0,1,phase_2,purple_circle,go,,,,go-2,1,,,,,,
1,420.0,2,phase_2,purple_circle,go,,,,go-2,1,,,,,,
2,395.0,2,phase_2,blue_rhombus,stop,red,250.0,tracking-SSD,go-1,3,,,,,,
2,474.0,2,phase_2,blue_triangle,go,,,,go-1,1,,,,,,
0,0,2,phase_2,purple_pentagon,stop,green,0.0,0-SSD,go-2,4,,,,,,
2,537.0,2,phase_2,blue_triangle,go,,,,go-1,1,,,,,,
1,579.0,2,phase_2,blue_rhombus,go,,,,go-1,1,,,,,,
2,521.0,2,phase_2,blue_triangle,go,,,,go-1,1,,,,,,
0,0,2,phase_2,blue_pentagon,stop,red,200.0,tracking-SSD,go-1,4,,,,,,
2,425.0,2,phase_2,purple_pentagon,go,,,,go-2,1,,,,,,
2,648.0,2,phase_2,purple_triangle,go,,,,go-2,1,,,,,,
1,522.0,2,phase_2,purple_rhombus,go,,,,go-2,1,,,,,,
2,542.0,2,phase_2,purple_triangle,go,,,,go-2,1,,,,,,
0,0,2,phase_2,purple_circle,stop,green,0.0,0-SSD,go-2,4,,,,,,
1,572.0,2,phase_2,purple_rhombus,go,,,,go-2,1,,,,,,
0,0,2,phase_2,blue_triangle,stop,green,0.0,0-SSD,go-1,4,,,,,,
1,446.0,2,phase_2,purple_circle,go,,,,go-2,1,,,,,,
2,510.0,2,phase_2,purple_rhombus,go,,,,go-2,2,,,,,,
2,395.0,2,phase_2,purple_pentagon,stop,red,250.0,tracking-SSD,go-2,3,,,,,,
1,517.0,2,phase_2,purple_circle,go,,,,go-2,1,,,,,,
0,0,2,phase_2,purple_triangle,stop,red,200.0,tracking-SSD,go-2,4,,,,,,
1,479.0,2,phase_2,blue_circle,go,,,,go-1,1,,,,,,
0,0,2,phase_2,blue_circle,stop,red,250.0,tracking-SSD,go-1,4,,,,,,
1,619.0,2,phase_2,blue_circle,go,,,,go-1,1,,,,,,
0,0,2,phase_2,purple_triangle,stop,green,0.0,0-SSD,go-2,4,,,,,,
2,492.0,2,phase_2,blue_triangle,go,,,,go-1,1,,,,,,
2,591.0,2,phase_2,purple_pentagon,go,,,,go-2,1,,,,,,
1,633.0,2,phase_2,blue_rhombus,go,,,,go-1,1,,,,,,
2,495.0,2,phase_2,purple_pentagon,go,,,,go-2,1,,,,,,
0,0,2,phase_2,blue_rhombus,stop,green,0.0,0-SSD,go-1,4,,,,,,
1,502.0,2,phase_2,blue_circle,go,,,,go-1,1,,,,,,
0,0,2,phase_2,blue_triangle,stop,green,0.0,0-SSD,go-1,4,,,,,,
1,655.0,2,phase_2,purple_rhombus,go,,,,go-2,1,,,,,,
2,483.0,2,phase_2,purple_triangle,go,,,,go-2,1,,,,,,
1,549.0,2,phase_2,blue_circle,go,,,,go-1,1,,,,,,
2,491.0,2,phase_2,blue_pentagon,go,,,,go-1,1,,,,,,
1,590.0,2,phase_2,purple_rhombus,go,,,,go-2,1,,,,,,
0,0,2,phase_2,purple_rhombus,stop,red,300.0,tracking-SSD,go-2,4,,,,,,
2,441.0,2,phase_2,blue_pentagon,go,,,,go-1,1,,,,,,
2,551.0,2,phase_2,purple_pentagon,go,,,,go-2,1,,,,,,
0,0,2,phase_2,blue_rhombus,go,,,,go-1,2,,,,,,
0,0,2,phase_2,blue_rhombus,stop,green,0.0,0-SSD,go-1,4,,,,,,
2,476.0,2,phase_2,purple_pentagon,go,,,,go-2,1,,,,,,
2,498.0,2,phase_2,blue_pentagon,stop,red,350.0,tracking-SSD,go-1,3,,,,,,
1,508.0,2,phase_2,blue_circle,go,,,,go-1,1,,,,,,
1,596.0,2,phase_2,blue_circle,go,,,,go-1,1,,,,,,
0,0,2,phase_2,purple_triangle,stop,green,0.0,0-SSD,go-2,4,,,,,,
0,0,2,phase_2,purple_pentagon,stop,red,300.0,tracking-SSD,go-2,4,,,,,,
1,510.0,2,phase_2,blue_circle,go,,,,go-1,1,,,,,,
2,465.0,3,phase_2,purple_pentagon,go,,,,go-2,1,,,,,,
1,519.0,3,phase_2,purple_rhombus,go,,,,go-2,1,,,,,,
1,483.0,3,phase_2,blue_rhombus,go,,,,go-1,1,,,,,,
1,470.0,3,phase_2,purple_circle,stop,red,350.0,tracking-SSD,go-2,3,,,,,,
1,569.0,3,phase_2,purple_rhombus,go,,,,go-2,1,,,,,,
2,432.0,3,phase_2,blue_pentagon,go,,,,go-1,1,,,,,,
1,474.0,3,phase_2,purple_circle,go,,,,go-2,1,,,,,,
1,484.0,3,phase_2,blue_rhombus,go,,,,go-1,1,,,,,,
1,741.0,3,phase_2,blue_circle,go,,,,go-1,1,,,,,,
2,389.0,3,phase_2,blue_pentagon,stop,red,300.0,tracking-SSD,go-1,3,,,,,,
2,375.0,3,phase_2,blue_triangle,stop,red,250.0,tracking-SSD,go-1,3,,,,,,
1,700.0,3,phase_2,blue_rhombus,go,,,,go-1,1,,,,,,
2,641.0,3,phase_2,blue_triangle,go,,,,go-1,1,,,,,,
2,504.0,3,phase_2,purple_triangle,go,,,,go-2,1,,,,,,
1,670.0,3,phase_2,blue_rhombus,go,,,,go-1,1,,,,,,
0,0,3,phase_2,purple_pentagon,stop,green,0.0,0-SSD,go-2,4,,,,,,
0,0,3,phase_2,blue_rhombus,go,,,,go-1,2,,,,,,
1,552.0,3,phase_2,purple_circle,go,,,,go-2,1,,,,,,
0,0,3,phase_2,purple_triangle,stop,red,200.0,tracking-SSD,go-2,4,,,,,,
1,524.0,3,phase_2,purple_rhombus,go,,,,go-2,1,,,,,,
1,443.0,3,phase_2,purple_circle,go,,,,go-2,1,,,,,,
2,621.0,3,phase_2,blue_triangle,go,,,,go-1,1,,,,,,
0,0,3,phase_2,purple_rhombus,stop,red,250.0,tracking-SSD,go-2,4,,,,,,
2,584.0,3,phase_2,blue_triangle,go,,,,go-1,1,,,,,,
2,492.0,3,phase_2,purple_triangle,go,,,,go-2,1,,,,,,
1,557.0,3,phase_2,blue_rhombus,go,,,,go-1,1,,,,,,
0,0,3,phase_2,purple_pentagon,stop,green,0.0,0-SSD,go-2,4,,,,,,
0,0,3,phase_2,purple_circle,stop,green,0.0,0-SSD,go-2,4,,,,,,
0,0,3,phase_2,blue_pentagon,stop,red,300.0,tracking-SSD,go-1,4,,,,,,
2,581.0,3,phase_2,blue_triangle,go,,,,go-1,1,,,,,,
2,477.0,3,phase_2,blue_pentagon,go,,,,go-1,1,,,,,,
1,464.0,3,phase_2,purple_circle,go,,,,go-2,1,,,,,,
2,508.0,3,phase_2,blue_pentagon,go,,,,go-1,1,,,,,,
2,415.0,3,phase_2,blue_pentagon,go,,,,go-1,1,,,,,,
0,0,3,phase_2,blue_pentagon,stop,green,0.0,0-SSD,go-1,4,,,,,,
1,433.0,3,phase_2,purple_circle,go,,,,go-2,1,,,,,,
2,667.0,3,phase_2,purple_triangle,go,,,,go-2,1,,,,,,
2,450.0,3,phase_2,blue_rhombus,go,,,,go-1,2,,,,,,
2,650.0,3,phase_2,purple_triangle,go,,,,go-2,1,,,,,,
0,0,3,phase_2,purple_triangle,stop,green,0.0,0-SSD,go-2,4,,,,,,
2,567.0,3,phase_2,blue_triangle,stop,red,350.0,tracking-SSD,go-1,3,,,,,,
1,463.0,3,phase_2,purple_circle,go,,,,go-2,1,,,,,,
2,427.0,3,phase_2,purple_pentagon,go,,,,go-2,1,,,,,,
1,458.0,3,phase_2,purple_circle,go,,,,go-2,1,,,,,,
0,0,3,phase_2,blue_circle,stop,green,0.0,0-SSD,go-1,4,,,,,,
2,487.0,3,phase_2,purple_rhombus,stop,red,300.0,tracking-SSD,go-2,3,,,,,,
0,0,3,phase_2,blue_pentagon,stop,green,0.0,0-SSD,go-1,4,,,,,,
0,0,3,phase_2,blue_circle,stop,green,0.0,0-SSD,go-1,4,,,,,,
2,387.0,4,phase_2,blue_pentagon,go,,,,go-1,1,,,,,,
1,385.0,4,phase_2,blue_circle,go,,,,go-1,1,,,,,,
2,574.0,4,phase_2,purple_triangle,go,,,,go-2,1,,,,,,
2,483.0,4,phase_2,blue_rhombus,go,,,,go-1,2,,,,,,
1,469.0,4,phase_2,purple_rhombus,go,,,,go-2,1,,,,,,
2,478.0,4,phase_2,purple_triangle,go,,,,go-2,1,,,,,,
2,566.0,4,phase_2,blue_pentagon,go,,,,go-1,1,,,,,,
2,428.0,4,phase_2,purple_pentagon,go,,,,go-2,1,,,,,,
1,393.0,4,phase_2,blue_circle,go,,,,go-1,1,,,,,,
0,0,4,phase_2,purple_triangle,stop,green,0.0,0-SSD,go-2,4,,,,,,
1,525.0,4,phase_2,purple_rhombus,go,,,,go-2,1,,,,,,
1,444.0,4,phase_2,blue_circle,go,,,,go-1,1,,,,,,
2,420.0,4,phase_2,blue_pentagon,go,,,,go-1,1,,,,,,
1,721.0,4,phase_2,purple_rhombus,go,,,,go-2,1,,,,,,
2,461.0,4,phase_2,purple_triangle,go,,,,go-2,1,,,,,,
0,0,4,phase_2,blue_rhombus,stop,green,0.0,0-SSD,go-1,4,,,,,,
1,467.0,4,phase_2,blue_circle,go,,,,go-1,1,,,,,,
1,555.0,4,phase_2,blue_circle,go,,,,go-1,1,,,,,,
0,0,4,phase_2,blue_rhombus,stop,red,250.0,tracking-SSD,go-1,4,,,,,,
1,506.0,4,phase_2,purple_rhombus,go,,,,go-2,1,,,,,,
2,447.0,4,phase_2,purple_triangle,stop,red,300.0,tracking-SSD,go-2,3,,,,,,
1,457.0,4,phase_2,purple_circle,go,,,,go-2,1,,,,,,
0,0,4,phase_2,purple_pentagon,stop,green,0.0,0-SSD,go-2,4,,,,,,
1,440.0,4,phase_2,blue_triangle,go,,,,go-1,2,,,,,,
0,0,4,phase_2,purple_circle,stop,green,0.0,0-SSD,go-2,4,,,,,,
1,438.0,4,phase_2,purple_circle,go,,,,go-2,1,,,,,,
0,0,4,phase_2,blue_rhombus,stop,green,0.0,0-SSD,go-1,4,,,,,,
2,501.0,4,phase_2,blue_pentagon,go,,,,go-1,1,,,,,,
2,499.0,4,phase_2,blue_pentagon,go,,,,go-1,1,,,,,,
1,440.0,4,phase_2,blue_circle,go,,,,go-1,1,,,,,,
2,482.0,4,phase_2,purple_triangle,go,,,,go-2,1,,,,,,
0,0,4,phase_2,purple_triangle,stop,red,250.0,tracking-SSD,go-2,4,,,,,,
0,0,4,phase_2,blue_circle,stop,red,300.0,tracking-SSD,go-1,4,,,,,,
0,0,4,phase_2,purple_rhombus,stop,red,350.0,tracking-SSD,go-2,4,,,,,,
2,846.0,4,phase_2,blue_triangle,go,,,,go-1,1,,,,,,
1,562.0,4,phase_2,purple_rhombus,stop,red,400.0,tracking-SSD,go-2,3,,,,,,
0,0,4,phase_2,blue_triangle,stop,red,350.0,tracking-SSD,go-1,4,,,,,,
0,0,4,phase_2,purple_triangle,stop,green,0.0,0-SSD,go-2,4,,,,,,
0,0,4,phase_2,blue_rhombus,stop,green,0.0,0-SSD,go-1,4,,,,,,
1,597.0,4,phase_2,purple_circle,go,,,,go-2,1,,,,,,
2,740.0,4,phase_2,purple_pentagon,go,,,,go-2,1,,,,,,
0,0,4,phase_2,blue_rhombus,stop,green,0.0,0-SSD,go-1,4,,,,,,
2,487.0,4,phase_2,purple_pentagon,go,,,,go-2,1,,,,,,
2,508.0,4,phase_2,blue_pentagon,go,,,,go-1,1,,,,,,
1,428.0,4,phase_2,blue_circle,stop,red,400.0,tracking-SSD,go-1,3,,,,,,
2,505.0,4,phase_2,blue_pentagon,go,,,,go-1,1,,,,,,
2,817.0,4,phase_2,purple_pentagon,go,,,,go-2,1,,,,,,
2,568.0,4,phase_2,purple_triangle,go,,,,go-2,1,,,,,,
1,702.0,5,phase_2,purple_rhombus,go,,,,go-2,1,,,,,,
2,373.0,5,phase_2,blue_pentagon,go,,,,go-1,1,,,,,,
0,0,5,phase_2,blue_rhombus,stop,green,0.0,0-SSD,go-1,4,,,,,,
1,436.0,5,phase_2,purple_circle,go,,,,go-2,1,,,,,,
1,672.0,5,phase_2,purple_circle,go,,,,go-2,1,,,,,,
1,365.0,5,phase_2,purple_circle,stop,red,350.0,tracking-SSD,go-2,3,,,,,,
2,622.0,5,phase_2,purple_triangle,go,,,,go-2,1,,,,,,
0,0,5,phase_2,blue_triangle,stop,green,0.0,0-SSD,go-1,4,,,,,,
0,0,5,phase_2,purple_triangle,stop,green,0.0,0-SSD,go-2,4,,,,,,
2,458.0,5,phase_2,purple_pentagon,go,,,,go-2,1,,,,,,
0,0,5,phase_2,purple_pentagon,stop,green,0.0,0-SSD,go-2,4,,,,,,
0,0,5,phase_2,purple_triangle,stop,green,0.0,0-SSD,go-2,4,,,,,,
2,439.0,5,phase_2,purple_pentagon,go,,,,go-2,1,,,,,,
2,482.0,5,phase_2,blue_pentagon,go,,,,go-1,1,,,,,,
1,605.0,5,phase_2,purple_rhombus,go,,,,go-2,1,,,,,,
1,613.0,5,phase_2,blue_circle,go,,,,go-1,1,,,,,,
0,0,5,phase_2,blue_rhombus,stop,green,0.0,0-SSD,go-1,4,,,,,,
0,0,5,phase_2,blue_rhombus,stop,green,0.0,0-SSD,go-1,4,,,,,,
2,428.0,5,phase_2,blue_pentagon,stop,red,300.0,tracking-SSD,go-1,3,,,,,,
2,482.0,5,phase_2,blue_pentagon,go,,,,go-1,1,,,,,,
1,447.0,5,phase_2,blue_circle,go,,,,go-1,1,,,,,,
1,726.0,5,phase_2,purple_circle,go,,,,go-2,1,,,,,,
1,409.0,5,phase_2,purple_circle,stop,red,250.0,tracking-SSD,go-2,3,,,,,,
2,418.0,5,phase_2,purple_triangle,go,,,,go-2,1,,,,,,
0,0,5,phase_2,blue_triangle,stop,red,200.0,tracking-SSD,go-1,4,,,,,,
1,639.0,5,phase_2,blue_circle,go,,,,go-1,1,,,,,,
1,513.0,5,phase_2,blue_circle,go,,,,go-1,1,,,,,,
2,589.0,5,phase_2,purple_rhombus,go,,,,go-2,2,,,,,,
2,442.0,5,phase_2,blue_triangle,go,,,,go-1,1,,,,,,
0,0,5,phase_2,purple_pentagon,stop,red,250.0,tracking-SSD,go-2,4,,,,,,
2,538.0,5,phase_2,purple_triangle,go,,,,go-2,1,,,,,,
1,636.0,5,phase_2,blue_circle,go,,,,go-1,1,,,,,,
1,623.0,5,phase_2,purple_rhombus,go,,,,go-2,1,,,,,,
2,508.0,5,phase_2,purple_pentagon,go,,,,go-2,1,,,,,,
1,404.0,5,phase_2,blue_rhombus,go,,,,go-1,1,,,,,,
1,391.0,5,phase_2,blue_rhombus,go,,,,go-1,1,,,,,,
1,478.0,5,phase_2,blue_circle,go,,,,go-1,1,,,,,,
2,476.0,5,phase_2,purple_triangle,go,,,,go-2,1,,,,,,
1,450.0,5,phase_2,blue_rhombus,stop,red,300.0,tracking-SSD,go-1,3,,,,,,
2,628.0,5,phase_2,blue_triangle,go,,,,go-1,1,,,,,,
0,0,5,phase_2,blue_pentagon,stop,red,250.0,tracking-SSD,go-1,4,,,,,,
1,592.0,5,phase_2,purple_rhombus,go,,,,go-2,1,,,,,,
2,465.0,5,phase_2,purple_triangle,stop,red,300.0,tracking-SSD,go-2,3,,,,,,
1,665.0,5,phase_2,purple_rhombus,go,,,,go-2,1,,,,,,
0,0,5,phase_2,purple_circle,stop,green,0.0,0-SSD,go-2,4,,,,,,
2,694.0,5,phase_2,blue_triangle,go,,,,go-1,1,,,,,,
2,534.0,5,phase_2,blue_pentagon,go,,,,go-1,1,,,,,,
2,632.0,5,phase_2,blue_pentagon,go,,,,go-1,1,,,,,,
0,0,6,phase_2,blue_triangle,stop,green,0.0,0-SSD,go-1,4,,,,,,
1,553.0,6,phase_2,blue_rhombus,go,,,,go-1,1,,,,,,
0,0,6,phase_2,purple_pentagon,stop,red,250.0,tracking-SSD,go-2,4,,,,,,
1,932.0,6,phase_2,purple_rhombus,go,,,,go-2,1,,,,,,
1,537.0,6,phase_2,blue_rhombus,go,,,,go-1,1,,,,,,
1,512.0,6,phase_2,purple_circle,go,,,,go-2,1,,,,,,
0,0,6,phase_2,purple_triangle,stop,green,0.0,0-SSD,go-2,4,,,,,,
0,0,6,phase_2,blue_triangle,stop,red,300.0,tracking-SSD,go-1,4,,,,,,
2,414.0,6,phase_2,blue_pentagon,go,,,,go-1,1,,,,,,
2,548.0,6,phase_2,blue_triangle,go,,,,go-1,1,,,,,,
1,533.0,6,phase_2,purple_rhombus,go,,,,go-2,1,,,,,,
1,487.0,6,phase_2,blue_circle,go,,,,go-1,1,,,,,,
1,440.0,6,phase_2,blue_circle,go,,,,go-1,1,,,,,,
1,360.0,6,phase_2,purple_circle,go,,,,go-2,1,,,,,,
2,582.0,6,phase_2,purple_pentagon,go,,,,go-2,1,,,,,,
1,489.0,6,phase_2,purple_rhombus,go,,,,go-2,1,,,,,,
2,454.0,6,phase_2,blue_pentagon,go,,,,go-1,1,,,,,,
1,395.0,6,phase_2,blue_circle,stop,red,350.0,tracking-SSD,go-1,3,,,,,,
0,0,6,phase_2,blue_circle,stop,green,0.0,0-SSD,go-1,4,,,,,,
1,807.0,6,phase_2,purple_rhombus,go,,,,go-2,1,,,,,,
2,467.0,6,phase_2,blue_pentagon,stop,red,300.0,tracking-SSD,go-1,3,,,,,,
0,0,6,phase_2,blue_pentagon,stop,green,0.0,0-SSD,go-1,4,,,,,,
1,655.0,6,phase_2,blue_rhombus,go,,,,go-1,1,,,,,,
2,619.0,6,phase_2,purple_triangle,go,,,,go-2,1,,,,,,
1,459.0,6,phase_2,blue_rhombus,go,,,,go-1,1,,,,,,
2,535.0,6,phase_2,blue_triangle,go,,,,go-1,1,,,,,,
2,623.0,6,phase_2,purple_triangle,go,,,,go-2,1,,,,,,
0,0,6,phase_2,blue_pentagon,stop,green,0.0,0-SSD,go-1,4,,,,,,
0,0,6,phase_2,purple_rhombus,stop,green,0.0,0-SSD,go-2,4,,,,,,
0,0,6,phase_2,purple_triangle,stop,green,0.0,0-SSD,go-2,4,,,,,,
2,469.0,6,phase_2,purple_pentagon,go,,,,go-2,1,,,,,,
1,511.0,6,phase_2,purple_rhombus,go,,,,go-2,1,,,,,,
2,497.0,6,phase_2,purple_triangle,go,,,,go-2,1,,,,,,
2,449.0,6,phase_2,blue_pentagon,go,,,,go-1,1,,,,,,
0,0,6,phase_2,purple_triangle,stop,red,250.0,tracking-SSD,go-2,4,,,,,,
2,512.0,6,phase_2,purple_pentagon,go,,,,go-2,1,,,,,,
2,476.0,6,phase_2,blue_pentagon,stop,red,300.0,tracking-SSD,go-1,3,,,,,,
1,475.0,6,phase_2,purple_circle,go,,,,go-2,1,,,,,,
1,698.0,6,phase_2,purple_rhombus,go,,,,go-2,1,,,,,,
1,493.0,6,phase_2,blue_circle,go,,,,go-1,1,,,,,,
1,514.0,6,phase_2,blue_circle,go,,,,go-1,1,,,,,,
1,714.0,6,phase_2,blue_rhombus,go,,,,go-1,1,,,,,,
1,555.0,6,phase_2,blue_circle,go,,,,go-1,1,,,,,,
0,0,6,phase_2,purple_circle,stop,red,250.0,tracking-SSD,go-2,4,,,,,,
2,461.0,6,phase_2,purple_pentagon,go,,,,go-2,1,,,,,,
0,0,6,phase_2,purple_triangle,stop,red,300.0,tracking-SSD,go-2,4,,,,,,
0,0,6,phase_2,purple_triangle,stop,green,0.0,0-SSD,go-2,4,,,,,,
1,499.0,6,phase_2,blue_circle,go,,,,go-1,1,,,,,,
1,465.0,7,phase_2,purple_circle,go,,,,go-2,1,,,,,,
0,0,7,phase_2,purple_triangle,stop,green,0.0,0-SSD,go-2,4,,,,,,
2,629.0,7,phase_2,blue_triangle,go,,,,go-1,1,,,,,,
2,570.0,7,phase_2,blue_pentagon,go,,,,go-1,1,,,,,,
2,422.0,7,phase_2,blue_rhombus,go,,,,go-1,2,,,,,,
1,398.0,7,phase_2,blue_circle,go,,,,go-1,1,,,,,,
1,610.0,7,phase_2,blue_rhombus,go,,,,go-1,1,,,,,,
2,506.0,7,phase_2,blue_triangle,stop,red,350.0,tracking-SSD,go-1,3,,,,,,
2,593.0,7,phase_2,purple_pentagon,go,,,,go-2,1,,,,,,
0,0,7,phase_2,blue_rhombus,stop,green,0.0,0-SSD,go-1,4,,,,,,
1,523.0,7,phase_2,blue_rhombus,go,,,,go-1,1,,,,,,
1,452.0,7,phase_2,blue_circle,go,,,,go-1,1,,,,,,
0,0,7,phase_2,blue_pentagon,stop,green,0.0,0-SSD,go-1,4,,,,,,
1,470.0,7,phase_2,blue_rhombus,stop,red,300.0,tracking-SSD,go-1,3,,,,,,
1,457.0,7,phase_2,purple_rhombus,go,,,,go-2,1,,,,,,
2,635.0,7,phase_2,purple_triangle,go,,,,go-2,1,,,,,,
0,0,7,phase_2,blue_circle,stop,green,0.0,0-SSD,go-1,4,,,,,,
2,450.0,7,phase_2,purple_triangle,go,,,,go-2,1,,,,,,
0,0,7,phase_2,purple_circle,stop,green,0.0,0-SSD,go-2,4,,,,,,
2,422.0,7,phase_2,purple_pentagon,go,,,,go-2,1,,,,,,
2,871.0,7,phase_2,blue_triangle,go,,,,go-1,1,,,,,,
0,0,7,phase_2,purple_circle,stop,red,250.0,tracking-SSD,go-2,4,,,,,,
0,0,7,phase_2,purple_rhombus,stop,green,0.0,0-SSD,go-2,4,,,,,,
0,0,7,phase_2,purple_pentagon,stop,green,0.0,0-SSD,go-2,4,,,,,,
1,636.0,7,phase_2,purple_rhombus,go,,,,go-2,1,,,,,,
2,364.0,7,phase_2,blue_pentagon,go,,,,go-1,1,,,,,,
1,485.0,7,phase_2,blue_circle,stop,red,300.0,tracking-SSD,go-1,3,,,,,,
2,530.0,7,phase_2,blue_triangle,go,,,,go-1,1,,,,,,
2,561.0,7,phase_2,purple_pentagon,go,,,,go-2,1,,,,,,
0,0,7,phase_2,blue_triangle,stop,red,250.0,tracking-SSD,go-1,4,,,,,,
1,499.0,7,phase_2,blue_circle,go,,,,go-1,1,,,,,,
0,0,7,phase_2,blue_pentagon,stop,green,0.0,0-SSD,go-1,4,,,,,,
1,597.0,7,phase_2,blue_circle,go,,,,go-1,1,,,,,,
1,561.0,7,phase_2,blue_rhombus,go,,,,go-1,1,,,,,,
1,570.0,7,phase_2,purple_rhombus,go,,,,go-2,1,,,,,,
1,748.0,7,phase_2,purple_circle,go,,,,go-2,1,,,,,,
0,0,7,phase_2,purple_triangle,stop,red,300.0,tracking-SSD,go-2,4,,,,,,
0,0,7,phase_2,purple_rhombus,stop,red,350.0,tracking-SSD,go-2,4,,,,,,
1,481.0,7,phase_2,blue_circle,go,,,,go-1,1,,,,,,
2,512.0,7,phase_2,purple_pentagon,go,,,,go-2,1,,,,,,
2,634.0,7,phase_2,blue_triangle,go,,,,go-1,1,,,,,,
1,609.0,7,phase_2,purple_rhombus,go,,,,go-2,1,,,,,,
2,393.0,7,phase_2,blue_pentagon,go,,,,go-1,1,,,,,,
0,0,7,phase_2,purple_triangle,stop,red,400.0,tracking-SSD,go-2,4,,,,,,
2,511.0,7,phase_2,purple_pentagon,go,,,,go-2,1,,,,,,
2,701.0,7,phase_2,purple_triangle,go,,,,go-2,1,,,,,,
1,428.0,7,phase_2,purple_circle,go,,,,go-2,1,,,,,,
2,549.0,7,phase_2,purple_pentagon,go,,,,go-2,1,,,,,,
2,398.0,8,phase_2,purple_pentagon,go,,,,go-2,1,,,,,,
1,395.0,8,phase_2,purple_circle,go,,,,go-2,1,,,,,,
2,460.0,8,phase_2,purple_pentagon,go,,,,go-2,1,,,,,,
2,458.0,8,phase_2,blue_pentagon,go,,,,go-1,1,,,,,,
2,546.0,8,phase_2,purple_rhombus,go,,,,go-2,2,,,,,,
2,441.0,8,phase_2,blue_triangle,go,,,,go-1,1,,,,,,
1,663.0,8,phase_2,purple_rhombus,go,,,,go-2,1,,,,,,
1,402.0,8,phase_2,blue_circle,go,,,,go-1,1,,,,,,
2,411.0,8,phase_2,blue_pentagon,go,,,,go-1,1,,,,,,
1,544.0,8,phase_2,purple_circle,go,,,,go-2,1,,,,,,
1,711.0,8,phase_2,blue_rhombus,go,,,,go-1,1,,,,,,
0,0,8,phase_2,blue_triangle,stop,green,0.0,0-SSD,go-1,4,,,,,,
2,392.0,8,phase_2,blue_pentagon,go,,,,go-1,1,,,,,,
1,526.0,8,phase_2,purple_circle,go,,,,go-2,1,,,,,,
2,434.0,8,phase_2,blue_pentagon,go,,,,go-1,1,,,,,,
1,477.0,8,phase_2,blue_circle,go,,,,go-1,1,,,,,,
2,430.0,8,phase_2,purple_pentagon,stop,red,450.0,tracking-SSD,go-2,3,,,,,,
2,461.0,8,phase_2,blue_triangle,go,,,,go-1,1,,,,,,
1,470.0,8,phase_2,purple_circle,go,,,,go-2,1,,,,,,
2,380.0,8,phase_2,purple_pentagon,stop,red,400.0,tracking-SSD,go-2,3,,,,,,
1,479.0,8,phase_2,blue_rhombus,stop,red,350.0,tracking-SSD,go-1,3,,,,,,
2,544.0,8,phase_2,purple_triangle,go,,,,go-2,1,,,,,,
0,0,8,phase_2,purple_rhombus,stop,red,300.0,tracking-SSD,go-2,4,,,,,,
1,721.0,8,phase_2,purple_rhombus,go,,,,go-2,1,,,,,,
1,450.0,8,phase_2,purple_rhombus,go,,,,go-2,1,,,,,,
2,615.0,8,phase_2,blue_pentagon,go,,,,go-1,1,,,,,,
0,0,8,phase_2,blue_pentagon,stop,green,0.0,0-SSD,go-1,4,,,,,,
0,0,8,phase_2,purple_rhombus,stop,green,0.0,0-SSD,go-2,4,,,,,,
2,371.0,8,phase_2,blue_pentagon,go,,,,go-1,1,,,,,,
2,437.0,8,phase_2,blue_triangle,stop,red,350.0,tracking-SSD,go-1,3,,,,,,
0,0,8,phase_2,blue_rhombus,stop,green,0.0,0-SSD,go-1,4,,,,,,
1,476.0,8,phase_2,purple_circle,go,,,,go-2,1,,,,,,
1,485.0,8,phase_2,blue_circle,go,,,,go-1,1,,,,,,
0,0,8,phase_2,blue_triangle,stop,green,0.0,0-SSD,go-1,4,,,,,,
2,436.0,8,phase_2,blue_triangle,stop,red,300.0,tracking-SSD,go-1,3,,,,,,
0,0,8,phase_2,purple_triangle,stop,green,0.0,0-SSD,go-2,4,,,,,,
2,578.0,8,phase_2,purple_triangle,go,,,,go-2,1,,,,,,
1,464.0,8,phase_2,blue_rhombus,go,,,,go-1,1,,,,,,
1,607.0,8,phase_2,blue_rhombus,go,,,,go-1,1,,,,,,
1,459.0,8,phase_2,blue_circle,go,,,,go-1,1,,,,,,
1,468.0,8,phase_2,blue_circle,stop,red,250.0,tracking-SSD,go-1,3,,,,,,
2,465.0,8,phase_2,purple_pentagon,go,,,,go-2,1,,,,,,
2,507.0,8,phase_2,purple_triangle,go,,,,go-2,1,,,,,,
0,0,8,phase_2,purple_rhombus,stop,red,200.0,tracking-SSD,go-2,4,,,,,,
2,761.0,8,phase_2,purple_triangle,go,,,,go-2,1,,,,,,
0,0,8,phase_2,purple_circle,stop,green,0.0,0-SSD,go-2,4,,,,,,
2,509.0,8,phase_2,blue_triangle,go,,,,go-1,1,,,,,,
0,0,8,phase_2,purple_circle,stop,green,0.0,0-SSD,go-2,4,,,,,,
0,0,9,phase_2,blue_circle,stop,green,0.0,0-SSD,go-1,4,,,,,,
1,373.0,9,phase_2,purple_circle,go,,,,go-2,1,,,,,,
1,348.0,9,phase_2,blue_circle,go,,,,go-1,1,,,,,,
2,436.0,9,phase_2,purple_pentagon,go,,,,go-2,1,,,,,,
1,580.0,9,phase_2,purple_rhombus,go,,,,go-2,1,,,,,,
2,611.0,9,phase_2,blue_triangle,go,,,,go-1,1,,,,,,
2,383.0,9,phase_2,purple_triangle,stop,red,250.0,tracking-SSD,go-2,3,,,,,,
2,527.0,9,phase_2,purple_triangle,go,,,,go-2,1,,,,,,
0,0,9,phase_2,blue_rhombus,stop,red,200.0,tracking-SSD,go-1,4,,,,,,
2,398.0,9,phase_2,purple_triangle,go,,,,go-2,1,,,,,,
1,483.0,9,phase_2,blue_circle,go,,,,go-1,1,,,,,,
0,0,9,phase_2,purple_pentagon,stop,red,250.0,tracking-SSD,go-2,4,,,,,,
0,0,9,phase_2,blue_pentagon,stop,red,300.0,tracking-SSD,go-1,4,,,,,,
0,0,9,phase_2,blue_pentagon,stop,green,0.0,0-SSD,go-1,4,,,,,,
2,566.0,9,phase_2,blue_pentagon,go,,,,go-1,1,,,,,,
2,506.0,9,phase_2,purple_pentagon,go,,,,go-2,1,,,,,,
1,526.0,9,phase_2,blue_circle,go,,,,go-1,1,,,,,,
0,0,9,phase_2,blue_pentagon,stop,red,350.0,tracking-SSD,go-1,4,,,,,,
2,476.0,9,phase_2,purple_pentagon,go,,,,go-2,1,,,,,,
1,474.0,9,phase_2,purple_circle,go,,,,go-2,1,,,,,,
2,549.0,9,phase_2,purple_pentagon,go,,,,go-2,1,,,,,,
2,784.0,9,phase_2,blue_triangle,go,,,,go-1,1,,,,,,
1,545.0,9,phase_2,blue_rhombus,go,,,,go-1,1,,,,,,
1,542.0,9,phase_2,blue_rhombus,go,,,,go-1,1,,,,,,
1,586.0,9,phase_2,purple_circle,go,,,,go-2,1,,,,,,
0,0,9,phase_2,purple_circle,stop,green,0.0,0-SSD,go-2,4,,,,,,
1,502.0,9,phase_2,purple_rhombus,go,,,,go-2,1,,,,,,
1,410.0,9,phase_2,purple_rhombus,go,,,,go-2,1,,,,,,
1,374.0,9,phase_2,purple_rhombus,go,,,,go-2,1,,,,,,
1,396.0,9,phase_2,purple_rhombus,go,,,,go-2,1,,,,,,
2,618.0,9,phase_2,purple_triangle,go,,,,go-2,1,,,,,,
1,403.0,9,phase_2,blue_circle,go,,,,go-1,1,,,,,,
2,469.0,9,phase_2,blue_triangle,go,,,,go-1,1,,,,,,
1,545.0,9,phase_2,blue_rhombus,go,,,,go-1,1,,,,,,
2,554.0,9,phase_2,blue_triangle,go,,,,go-1,1,,,,,,
0,0,9,phase_2,purple_circle,stop,green,0.0,0-SSD,go-2,4,,,,,,
0,0,9,phase_2,purple_circle,stop,green,0.0,0-SSD,go-2,4,,,,,,
2,547.0,9,phase_2,blue_triangle,go,,,,go-1,1,,,,,,
1,521.0,9,phase_2,blue_rhombus,go,,,,go-1,1,,,,,,
2,452.0,9,phase_2,purple_triangle,stop,red,400.0,tracking-SSD,go-2,3,,,,,,
2,382.0,9,phase_2,blue_triangle,stop,red,350.0,tracking-SSD,go-1,3,,,,,,
1,415.0,9,phase_2,blue_rhombus,go,,,,go-1,1,,,,,,
2,459.0,9,phase_2,purple_triangle,stop,red,300.0,tracking-SSD,go-2,3,,,,,,
0,0,9,phase_2,blue_pentagon,stop,green,0.0,0-SSD,go-1,4,,,,,,
2,521.0,9,phase_2,purple_pentagon,go,,,,go-2,1,,,,,,
0,0,9,phase_2,purple_rhombus,stop,green,0.0,0-SSD,go-2,4,,,,,,
2,450.0,9,phase_2,blue_pentagon,go,,,,go-1,1,,,,,,
0,0,9,phase_2,blue_circle,stop,green,0.0,0-SSD,go-1,4,,,,,,
1,454.0,10,phase_2,purple_circle,stop,red,250.0,tracking-SSD,go-2,3,,,,,,
2,451.0,10,phase_2,purple_pentagon,go,,,,go-2,1,,,,,,
1,696.0,10,phase_2,blue_rhombus,go,,,,go-1,1,,,,,,
0,0,10,phase_2,blue_triangle,stop,red,200.0,tracking-SSD,go-1,4,,,,,,
1,559.0,10,phase_2,blue_rhombus,go,,,,go-1,1,,,,,,
2,512.0,10,phase_2,purple_pentagon,go,,,,go-2,1,,,,,,
1,475.0,10,phase_2,blue_rhombus,go,,,,go-1,1,,,,,,
0,0,10,phase_2,blue_pentagon,stop,green,0.0,0-SSD,go-1,4,,,,,,
2,426.0,10,phase_2,purple_triangle,go,,,,go-2,1,,,,,,
2,379.0,10,phase_2,purple_pentagon,go,,,,go-2,1,,,,,,
0,0,10,phase_2,purple_pentagon,stop,red,250.0,tracking-SSD,go-2,4,,,,,,
0,0,10,phase_2,blue_triangle,stop,red,300.0,tracking-SSD,go-1,4,,,,,,
1,483.0,10,phase_2,blue_rhombus,go,,,,go-1,1,,,,,,
1,627.0,10,phase_2,purple_rhombus,go,,,,go-2,1,,,,,,
1,456.0,10,phase_2,blue_circle,go,,,,go-1,1,,,,,,
1,689.0,10,phase_2,blue_rhombus,go,,,,go-1,1,,,,,,
2,406.0,10,phase_2,purple_triangle,go,,,,go-2,1,,,,,,
0,0,10,phase_2,blue_triangle,stop,green,0.0,0-SSD,go-1,4,,,,,,
2,378.0,10,phase_2,blue_pentagon,stop,red,350.0,tracking-SSD,go-1,3,,,,,,
0,0,10,phase_2,blue_rhombus,stop,green,0.0,0-SSD,go-1,4,,,,,,
2,555.0,10,phase_2,purple_triangle,go,,,,go-2,1,,,,,,
2,406.0,10,phase_2,purple_pentagon,stop,red,300.0,tracking-SSD,go-2,3,,,,,,
1,448.0,10,phase_2,purple_circle,go,,,,go-2,1,,,,,,
2,513.0,10,phase_2,blue_triangle,go,,,,go-1,1,,,,,,
1,567.0,10,phase_2,purple_circle,go,,,,go-2,1,,,,,,
2,520.0,10,phase_2,purple_triangle,go,,,,go-2,1,,,,,,
1,618.0,10,phase_2,blue_rhombus,go,,,,go-1,1,,,,,,
1,469.0,10,phase_2,blue_rhombus,go,,,,go-1,1,,,,,,
2,433.0,10,phase_2,purple_pentagon,go,,,,go-2,1,,,,,,
1,408.0,10,phase_2,blue_circle,go,,,,go-1,1,,,,,,
2,486.0,10,phase_2,purple_triangle,go,,,,go-2,1,,,,,,
1,719.0,10,phase_2,purple_rhombus,go,,,,go-2,1,,,,,,
1,570.0,10,phase_2,purple_circle,go,,,,go-2,1,,,,,,
0,0,10,phase_2,blue_triangle,stop,green,0.0,0-SSD,go-1,4,,,,,,
1,407.0,10,phase_2,blue_circle,go,,,,go-1,1,,,,,,
1,394.0,10,phase_2,blue_circle,go,,,,go-1,1,,,,,,
0,0,10,phase_2,purple_pentagon,stop,green,0.0,0-SSD,go-2,4,,,,,,
2,422.0,10,phase_2,blue_triangle,stop,red,250.0,tracking-SSD,go-1,3,,,,,,
1,487.0,10,phase_2,purple_circle,go,,,,go-2,1,,,,,,
0,0,10,phase_2,purple_rhombus,stop,green,0.0,0-SSD,go-2,4,,,,,,
0,0,10,phase_2,purple_circle,stop,red,200.0,tracking-SSD,go-2,4,,,,,,
2,468.0,10,phase_2,blue_pentagon,go,,,,go-1,1,,,,,,
1,387.0,10,phase_2,blue_circle,go,,,,go-1,1,,,,,,
1,609.0,10,phase_2,blue_rhombus,go,,,,go-1,1,,,,,,
2,753.0,10,phase_2,blue_pentagon,go,,,,go-1,1,,,,,,
0,0,10,phase_2,purple_triangle,stop,green,0.0,0-SSD,go-2,4,,,,,,
0,0,10,phase_2,purple_pentagon,stop,green,0.0,0-SSD,go-2,4,,,,,,
1,521.0,10,phase_2,purple_circle,go,,,,go-2,1,,,,,,
2,409.0,11,phase_2,purple_rhombus,go,,,,go-2,2,,,,,,
2,385.0,11,phase_2,purple_pentagon,go,,,,go-2,1,,,,,,
1,405.0,11,phase_2,blue_circle,go,,,,go-1,1,,,,,,
0,0,11,phase_2,purple_rhombus,stop,red,250.0,tracking-SSD,go-2,4,,,,,,
1,468.0,11,phase_2,purple_triangle,go,,,,go-2,2,,,,,,
1,398.0,11,phase_2,blue_circle,go,,,,go-1,1,,,,,,
0,0,11,phase_2,purple_rhombus,stop,green,0.0,0-SSD,go-2,4,,,,,,
2,460.0,11,phase_2,blue_pentagon,go,,,,go-1,1,,,,,,
2,470.0,11,phase_2,purple_triangle,go,,,,go-2,1,,,,,,
0,0,11,phase_2,purple_pentagon,stop,red,300.0,tracking-SSD,go-2,4,,,,,,
2,422.0,11,phase_2,blue_pentagon,go,,,,go-1,1,,,,,,
2,543.0,11,phase_2,purple_rhombus,go,,,,go-2,2,,,,,,
1,427.0,11,phase_2,blue_circle,go,,,,go-1,1,,,,,,
1,773.0,11,phase_2,blue_rhombus,go,,,,go-1,1,,,,,,
1,468.0,11,phase_2,blue_circle,go,,,,go-1,1,,,,,,
1,511.0,11,phase_2,blue_triangle,go,,,,go-1,2,,,,,,
1,406.0,11,phase_2,blue_circle,stop,red,350.0,tracking-SSD,go-1,3,,,,,,
2,403.0,11,phase_2,purple_pentagon,go,,,,go-2,1,,,,,,
2,593.0,11,phase_2,blue_triangle,go,,,,go-1,1,,,,,,
1,479.0,11,phase_2,purple_circle,go,,,,go-2,1,,,,,,
0,0,11,phase_2,blue_triangle,stop,green,0.0,0-SSD,go-1,4,,,,,,
0,0,11,phase_2,purple_circle,stop,green,0.0,0-SSD,go-2,4,,,,,,
1,586.0,11,phase_2,blue_rhombus,go,,,,go-1,1,,,,,,
0,0,11,phase_2,purple_circle,stop,green,0.0,0-SSD,go-2,4,,,,,,
0,0,11,phase_2,purple_circle,stop,green,0.0,0-SSD,go-2,4,,,,,,
1,645.0,11,phase_2,blue_rhombus,go,,,,go-1,1,,,,,,
1,406.0,11,phase_2,blue_rhombus,go,,,,go-1,1,,,,,,
0,0,11,phase_2,blue_pentagon,stop,green,0.0,0-SSD,go-1,4,,,,,,
2,414.0,11,phase_2,purple_pentagon,go,,,,go-2,1,,,,,,
0,0,11,phase_2,blue_triangle,stop,red,300.0,tracking-SSD,go-1,4,,,,,,
2,455.0,11,phase_2,blue_triangle,go,,,,go-1,1,,,,,,
1,531.0,11,phase_2,purple_rhombus,go,,,,go-2,1,,,,,,
0,0,11,phase_2,blue_triangle,stop,green,0.0,0-SSD,go-1,4,,,,,,
1,470.0,11,phase_2,purple_circle,go,,,,go-2,1,,,,,,
0,0,11,phase_2,blue_triangle,stop,red,350.0,tracking-SSD,go-1,4,,,,,,
2,532.0,11,phase_2,blue_pentagon,go,,,,go-1,1,,,,,,
2,541.0,11,phase_2,purple_pentagon,stop,red,400.0,tracking-SSD,go-2,3,,,,,,
1,459.0,11,phase_2,purple_circle,go,,,,go-2,1,,,,,,
0,0,11,phase_2,blue_pentagon,stop,green,0.0,0-SSD,go-1,4,,,,,,
1,422.0,11,phase_2,purple_circle,go,,,,go-2,1,,,,,,
2,970.0,11,phase_2,blue_triangle,go,,,,go-1,1,,,,,,
1,563.0,11,phase_2,purple_rhombus,go,,,,go-2,1,,,,,,
1,425.0,11,phase_2,purple_rhombus,go,,,,go-2,1,,,,,,
2,559.0,11,phase_2,blue_triangle,stop,red,350.0,tracking-SSD,go-1,3,,,,,,
1,467.0,11,phase_2,purple_rhombus,stop,red,300.0,tracking-SSD,go-2,3,,,,,,
2,441.0,11,phase_2,purple_pentagon,go,,,,go-2,1,,,,,,
2,540.0,11,phase_2,purple_pentagon,go,,,,go-2,1,,,,,,
2,605.0,11,phase_2,blue_triangle,go,,,,go-1,1,,,,,,
1,397.0,12,phase_2,purple_circle,go,,,,go-2,1,,,,,,
0,0,12,phase_2,blue_rhombus,stop,green,0.0,0-SSD,go-1,4,,,,,,
1,450.0,12,phase_2,purple_circle,go,,,,go-2,1,,,,,,
1,424.0,12,phase_2,blue_circle,go,,,,go-1,1,,,,,,
1,423.0,12,phase_2,purple_circle,go,,,,go-2,1,,,,,,
2,645.0,12,phase_2,blue_triangle,go,,,,go-1,1,,,,,,
1,575.0,12,phase_2,blue_rhombus,go,,,,go-1,1,,,,,,
1,426.0,12,phase_2,blue_circle,stop,red,250.0,tracking-SSD,go-1,3,,,,,,
2,536.0,12,phase_2,blue_pentagon,go,,,,go-1,1,,,,,,
0,0,12,phase_2,purple_triangle,stop,green,0.0,0-SSD,go-2,4,,,,,,
2,621.0,12,phase_2,blue_triangle,go,,,,go-1,1,,,,,,
2,596.0,12,phase_2,purple_pentagon,go,,,,go-2,1,,,,,,
2,380.0,12,phase_2,purple_triangle,go,,,,go-2,1,,,,,,
2,309.0,12,phase_2,blue_triangle,go,,,,go-1,1,,,,,,
0,0,12,phase_2,purple_pentagon,stop,red,200.0,tracking-SSD,go-2,4,,,,,,
2,464.0,12,phase_2,blue_pentagon,stop,red,250.0,tracking-SSD,go-1,3,,,,,,
1,551.0,12,phase_2,purple_rhombus,go,,,,go-2,1,,,,,,
1,448.0,12,phase_2,blue_circle,go,,,,go-1,1,,,,,,
2,1019.0,12,phase_2,purple_pentagon,go,,,,go-2,1,,,,,,
1,465.0,12,phase_2,purple_rhombus,go,,,,go-2,1,,,,,,
0,0,12,phase_2,purple_circle,stop,red,200.0,tracking-SSD,go-2,4,,,,,,
0,0,12,phase_2,purple_pentagon,stop,green,0.0,0-SSD,go-2,4,,,,,,
2,549.0,12,phase_2,purple_triangle,go,,,,go-2,1,,,,,,
1,456.0,12,phase_2,purple_circle,go,,,,go-2,1,,,,,,
0,0,12,phase_2,blue_rhombus,stop,green,0.0,0-SSD,go-1,4,,,,,,
0,0,12,phase_2,blue_triangle,stop,green,0.0,0-SSD,go-1,4,,,,,,
2,551.0,12,phase_2,blue_triangle,go,,,,go-1,1,,,,,,
2,392.0,12,phase_2,blue_rhombus,go,,,,go-1,2,,,,,,
2,422.0,12,phase_2,purple_pentagon,go,,,,go-2,1,,,,,,
1,375.0,12,phase_2,purple_circle,stop,red,250.0,tracking-SSD,go-2,3,,,,,,
1,653.0,12,phase_2,blue_rhombus,go,,,,go-1,1,,,,,,
2,539.0,12,phase_2,blue_triangle,go,,,,go-1,1,,,,,,
1,560.0,12,phase_2,purple_circle,go,,,,go-2,1,,,,,,
0,0,12,phase_2,blue_rhombus,stop,red,200.0,tracking-SSD,go-1,4,,,,,,
2,533.0,12,phase_2,blue_pentagon,go,,,,go-1,1,,,,,,
1,497.0,12,phase_2,purple_rhombus,go,,,,go-2,1,,,,,,
0,0,12,phase_2,purple_pentagon,stop,green,0.0,0-SSD,go-2,4,,,,,,
2,461.0,12,phase_2,purple_pentagon,stop,red,250.0,tracking-SSD,go-2,3,,,,,,
2,592.0,12,phase_2,purple_triangle,go,,,,go-2,1,,,,,,
1,533.0,12,phase_2,blue_rhombus,go,,,,go-1,1,,,,,,
0,0,12,phase_2,blue_rhombus,stop,green,0.0,0-SSD,go-1,4,,,,,,
0,0,12,phase_2,purple_triangle,stop,green,0.0,0-SSD,go-2,4,,,,,,
1,436.0,12,phase_2,purple_circle,go,,,,go-2,1,,,,,,
2,523.0,12,phase_2,blue_triangle,go,,,,go-1,1,,,,,,
2,351.0,12,phase_2,blue_pentagon,go,,,,go-1,1,,,,,,
0,0,12,phase_2,blue_rhombus,stop,red,200.0,tracking-SSD,go-1,4,,,,,,
1,425.0,12,phase_2,purple_circle,go,,,,go-2,1,,,,,,
2,412.0,12,phase_2,blue_pentagon,go,,,,go-1,1,,,,,,
2,465.0,13,phase_2,blue_pentagon,go,,,,go-1,1,,,,,,
1,451.0,13,phase_2,purple_circle,go,,,,go-2,1,,,,,,
0,0,13,phase_2,blue_triangle,stop,green,0.0,0-SSD,go-1,4,,,,,,
2,345.0,13,phase_2,purple_rhombus,stop,red,250.0,tracking-SSD,go-2,3,,,,,,
0,0,13,phase_2,purple_circle,stop,green,0.0,0-SSD,go-2,4,,,,,,
2,520.0,13,phase_2,blue_triangle,go,,,,go-1,1,,,,,,
1,629.0,13,phase_2,purple_rhombus,go,,,,go-2,1,,,,,,
0,0,13,phase_2,blue_triangle,stop,red,200.0,tracking-SSD,go-1,4,,,,,,
2,435.0,13,phase_2,purple_pentagon,stop,red,250.0,tracking-SSD,go-2,3,,,,,,
2,410.0,13,phase_2,purple_pentagon,go,,,,go-2,1,,,,,,
1,452.0,13,phase_2,blue_rhombus,go,,,,go-1,1,,,,,,
1,460.0,13,phase_2,purple_circle,go,,,,go-2,1,,,,,,
2,581.0,13,phase_2,purple_triangle,go,,,,go-2,1,,,,,,
2,444.0,13,phase_2,blue_triangle,stop,red,200.0,tracking-SSD,go-1,3,,,,,,
2,475.0,13,phase_2,blue_pentagon,go,,,,go-1,1,,,,,,
1,496.0,13,phase_2,purple_rhombus,go,,,,go-2,1,,,,,,
2,493.0,13,phase_2,purple_triangle,go,,,,go-2,1,,,,,,
0,0,13,phase_2,purple_rhombus,stop,green,0.0,0-SSD,go-2,4,,,,,,
1,408.0,13,phase_2,blue_circle,go,,,,go-1,1,,,,,,
2,373.0,13,phase_2,blue_pentagon,go,,,,go-1,1,,,,,,
1,417.0,13,phase_2,blue_rhombus,go,,,,go-1,1,,,,,,
1,493.0,13,phase_2,blue_circle,go,,,,go-1,1,,,,,,
1,412.0,13,phase_2,blue_circle,go,,,,go-1,1,,,,,,
2,443.0,13,phase_2,blue_pentagon,go,,,,go-1,1,,,,,,
2,406.0,13,phase_2,purple_pentagon,go,,,,go-2,1,,,,,,
1,405.0,13,phase_2,blue_rhombus,go,,,,go-1,1,,,,,,
0,0,13,phase_2,purple_rhombus,stop,green,0.0,0-SSD,go-2,4,,,,,,
1,444.0,13,phase_2,blue_rhombus,go,,,,go-1,1,,,,,,
2,644.0,13,phase_2,blue_pentagon,go,,,,go-1,1,,,,,,
0,0,13,phase_2,blue_pentagon,stop,green,0.0,0-SSD,go-1,4,,,,,,
2,495.0,13,phase_2,purple_triangle,go,,,,go-2,1,,,,,,
2,514.0,13,phase_2,purple_triangle,go,,,,go-2,1,,,,,,
0,0,13,phase_2,purple_pentagon,stop,red,150.0,tracking-SSD,go-2,4,,,,,,
1,384.0,13,phase_2,blue_circle,stop,red,200.0,tracking-SSD,go-1,3,,,,,,
1,506.0,13,phase_2,purple_rhombus,go,,,,go-2,1,,,,,,
2,470.0,13,phase_2,purple_pentagon,go,,,,go-2,1,,,,,,
0,0,13,phase_2,purple_circle,stop,green,0.0,0-SSD,go-2,4,,,,,,
0,0,13,phase_2,blue_triangle,stop,red,150.0,tracking-SSD,go-1,4,,,,,,
0,0,13,phase_2,purple_circle,stop,red,200.0,tracking-SSD,go-2,4,,,,,,
1,548.0,13,phase_2,purple_circle,go,,,,go-2,1,,,,,,
2,456.0,13,phase_2,blue_pentagon,go,,,,go-1,1,,,,,,
2,499.0,13,phase_2,blue_triangle,go,,,,go-1,1,,,,,,
0,0,13,phase_2,blue_triangle,stop,green,0.0,0-SSD,go-1,4,,,,,,
2,427.0,13,phase_2,purple_triangle,go,,,,go-2,1,,,,,,
0,0,13,phase_2,blue_circle,stop,green,0.0,0-SSD,go-1,4,,,,,,
1,436.0,13,phase_2,purple_circle,go,,,,go-2,1,,,,,,
1,602.0,13,phase_2,purple_rhombus,go,,,,go-2,1,,,,,,
1,442.0,13,phase_2,blue_rhombus,go,,,,go-1,1,,,,,,
2,454.0,14,phase_2,purple_triangle,go,,,,go-2,1,,,,,,
2,339.0,14,phase_2,purple_pentagon,go,,,,go-2,1,,,,,,
2,539.0,14,phase_2,blue_triangle,go,,,,go-1,1,,,,,,
1,481.0,14,phase_2,purple_circle,stop,red,250.0,tracking-SSD,go-2,3,,,,,,
1,435.0,14,phase_2,purple_circle,go,,,,go-2,1,,,,,,
2,410.0,14,phase_2,purple_triangle,go,,,,go-2,1,,,,,,
0,0,14,phase_2,purple_rhombus,stop,green,0.0,0-SSD,go-2,4,,,,,,
1,528.0,14,phase_2,purple_circle,go,,,,go-2,1,,,,,,
1,470.0,14,phase_2,blue_rhombus,go,,,,go-1,1,,,,,,
2,569.0,14,phase_2,purple_triangle,go,,,,go-2,1,,,,,,
2,409.0,14,phase_2,purple_triangle,go,,,,go-2,1,,,,,,
0,0,14,phase_2,blue_circle,stop,green,0.0,0-SSD,go-1,4,,,,,,
1,472.0,14,phase_2,purple_circle,go,,,,go-2,1,,,,,,
1,548.0,14,phase_2,blue_rhombus,go,,,,go-1,1,,,,,,
1,581.0,14,phase_2,purple_circle,go,,,,go-2,1,,,,,,
2,736.0,14,phase_2,blue_triangle,go,,,,go-1,1,,,,,,
0,0,14,phase_2,purple_rhombus,stop,red,200.0,tracking-SSD,go-2,4,,,,,,
2,415.0,14,phase_2,blue_triangle,go,,,,go-1,1,,,,,,
2,334.0,14,phase_2,blue_triangle,go,,,,go-1,1,,,,,,
1,388.0,14,phase_2,purple_circle,go,,,,go-2,1,,,,,,
2,375.0,14,phase_2,blue_pentagon,go,,,,go-1,1,,,,,,
0,0,14,phase_2,purple_rhombus,stop,red,250.0,tracking-SSD,go-2,4,,,,,,
1,471.0,14,phase_2,blue_circle,go,,,,go-1,1,,,,,,
2,503.0,14,phase_2,purple_triangle,go,,,,go-2,1,,,,,,
1,592.0,14,phase_2,blue_rhombus,go,,,,go-1,1,,,,,,
2,465.0,14,phase_2,purple_pentagon,go,,,,go-2,1,,,,,,
1,440.0,14,phase_2,blue_rhombus,go,,,,go-1,1,,,,,,
1,426.0,14,phase_2,blue_rhombus,stop,red,300.0,tracking-SSD,go-1,3,,,,,,
2,492.0,14,phase_2,blue_pentagon,go,,,,go-1,1,,,,,,
0,0,14,phase_2,blue_pentagon,stop,green,0.0,0-SSD,go-1,4,,,,,,
1,464.0,14,phase_2,blue_rhombus,go,,,,go-1,1,,,,,,
0,0,14,phase_2,purple_circle,stop,green,0.0,0-SSD,go-2,4,,,,,,
2,482.0,14,phase_2,blue_pentagon,stop,red,250.0,tracking-SSD,go-1,3,,,,,,
1,536.0,14,phase_2,blue_rhombus,go,,,,go-1,1,,,,,,
0,0,14,phase_2,blue_pentagon,stop,green,0.0,0-SSD,go-1,4,,,,,,
2,464.0,14,phase_2,purple_triangle,go,,,,go-2,1,,,,,,
2,463.0,14,phase_2,blue_pentagon,go,,,,go-1,1,,,,,,
0,0,14,phase_2,purple_circle,stop,green,0.0,0-SSD,go-2,4,,,,,,
1,1290.0,14,phase_2,purple_rhombus,go,,,,go-2,1,,,,,,
2,410.0,14,phase_2,blue_pentagon,go,,,,go-1,1,,,,,,
0,0,14,phase_2,purple_pentagon,stop,green,0.0,0-SSD,go-2,4,,,,,,
0,0,14,phase_2,purple_pentagon,stop,red,200.0,tracking-SSD,go-2,4,,,,,,
0,0,14,phase_2,blue_triangle,stop,red,250.0,tracking-SSD,go-1,4,,,,,,
2,501.0,14,phase_2,purple_pentagon,go,,,,go-2,1,,,,,,
1,802.0,14,phase_2,purple_circle,go,,,,go-2,1,,,,,,
1,418.0,14,phase_2,blue_circle,go,,,,go-1,1,,,,,,
0,0,14,phase_2,blue_rhombus,stop,red,300.0,tracking-SSD,go-1,4,,,,,,
0,0,14,phase_2,blue_triangle,stop,green,0.0,0-SSD,go-1,4,,,,,,
2,419.0,15,phase_2,purple_triangle,go,,,,go-2,1,,,,,,
2,416.0,15,phase_2,purple_pentagon,stop,red,350.0,tracking-SSD,go-2,3,,,,,,
2,560.0,15,phase_2,purple_pentagon,go,,,,go-2,1,,,,,,
0,0,15,phase_2,blue_circle,stop,green,0.0,0-SSD,go-1,4,,,,,,
1,499.0,15,phase_2,blue_rhombus,go,,,,go-1,1,,,,,,
2,563.0,15,phase_2,blue_triangle,go,,,,go-1,1,,,,,,
2,437.0,15,phase_2,blue_pentagon,go,,,,go-1,1,,,,,,
2,412.0,15,phase_2,purple_pentagon,go,,,,go-2,1,,,,,,
2,500.0,15,phase_2,blue_triangle,go,,,,go-1,1,,,,,,
2,387.0,15,phase_2,purple_pentagon,go,,,,go-2,1,,,,,,
1,633.0,15,phase_2,blue_rhombus,go,,,,go-1,1,,,,,,
1,586.0,15,phase_2,blue_circle,go,,,,go-1,1,,,,,,
1,392.0,15,phase_2,purple_circle,go,,,,go-2,1,,,,,,
2,862.0,15,phase_2,blue_pentagon,go,,,,go-1,1,,,,,,
0,0,15,phase_2,blue_rhombus,stop,red,300.0,tracking-SSD,go-1,4,,,,,,
1,375.0,15,phase_2,blue_rhombus,go,,,,go-1,1,,,,,,
1,384.0,15,phase_2,blue_rhombus,stop,red,350.0,tracking-SSD,go-1,3,,,,,,
2,494.0,15,phase_2,purple_triangle,go,,,,go-2,1,,,,,,
1,446.0,15,phase_2,blue_circle,go,,,,go-1,1,,,,,,
2,376.0,15,phase_2,blue_pentagon,go,,,,go-1,1,,,,,,
1,420.0,15,phase_2,purple_rhombus,go,,,,go-2,1,,,,,,
0,0,15,phase_2,purple_rhombus,stop,green,0.0,0-SSD,go-2,4,,,,,,
1,402.0,15,phase_2,purple_circle,go,,,,go-2,1,,,,,,
2,478.0,15,phase_2,purple_pentagon,go,,,,go-2,1,,,,,,
0,0,15,phase_2,purple_triangle,stop,red,300.0,tracking-SSD,go-2,4,,,,,,
1,552.0,15,phase_2,blue_rhombus,go,,,,go-1,1,,,,,,
2,595.0,15,phase_2,purple_pentagon,go,,,,go-2,1,,,,,,
0,0,15,phase_2,purple_rhombus,stop,green,0.0,0-SSD,go-2,4,,,,,,
1,432.0,15,phase_2,blue_circle,go,,,,go-1,1,,,,,,
1,474.0,15,phase_2,blue_rhombus,stop,red,350.0,tracking-SSD,go-1,3,,,,,,
0,0,15,phase_2,blue_triangle,stop,green,0.0,0-SSD,go-1,4,,,,,,
1,650.0,15,phase_2,blue_circle,go,,,,go-1,1,,,,,,
2,546.0,15,phase_2,blue_triangle,go,,,,go-1,1,,,,,,
2,419.0,15,phase_2,blue_pentagon,go,,,,go-1,1,,,,,,
1,395.0,15,phase_2,purple_circle,stop,red,300.0,tracking-SSD,go-2,3,,,,,,
0,0,15,phase_2,purple_pentagon,stop,green,0.0,0-SSD,go-2,4,,,,,,
2,345.0,15,phase_2,purple_triangle,go,,,,go-2,1,,,,,,
2,366.0,15,phase_2,purple_triangle,go,,,,go-2,1,,,,,,
1,419.0,15,phase_2,purple_circle,go,,,,go-2,1,,,,,,
1,698.0,15,phase_2,purple_rhombus,go,,,,go-2,1,,,,,,
2,459.0,15,phase_2,purple_rhombus,go,,,,go-2,2,,,,,,
0,0,15,phase_2,blue_triangle,stop,green,0.0,0-SSD,go-1,4,,,,,,
0,0,15,phase_2,purple_circle,stop,green,0.0,0-SSD,go-2,4,,,,,,
0,0,15,phase_2,blue_pentagon,stop,red,250.0,tracking-SSD,go-1,4,,,,,,
1,474.0,15,phase_2,purple_circle,stop,red,300.0,tracking-SSD,go-2,3,,,,,,
2,628.0,15,phase_2,purple_triangle,go,,,,go-2,1,,,,,,
0,0,15,phase_2,blue_triangle,stop,green,0.0,0-SSD,go-1,4,,,,,,
1,442.0,15,phase_2,blue_circle,go,,,,go-1,1,,,,,,
1,431.0,16,phase_2,purple_rhombus,go,,,,go-2,1,,,,,,
2,384.0,16,phase_2,blue_triangle,go,,,,go-1,1,,,,,,
2,415.0,16,phase_2,purple_triangle,go,,,,go-2,1,,,,,,
0,0,16,phase_2,blue_rhombus,stop,green,0.0,0-SSD,go-1,4,,,,,,
0,0,16,phase_2,purple_circle,stop,red,250.0,tracking-SSD,go-2,4,,,,,,
1,441.0,16,phase_2,blue_circle,go,,,,go-1,1,,,,,,
1,383.0,16,phase_2,blue_circle,stop,red,300.0,tracking-SSD,go-1,3,,,,,,
0,0,16,phase_2,purple_circle,stop,green,0.0,0-SSD,go-2,4,,,,,,
0,0,16,phase_2,purple_pentagon,stop,green,0.0,0-SSD,go-2,4,,,,,,
2,386.0,16,phase_2,blue_pentagon,go,,,,go-1,1,,,,,,
2,361.0,16,phase_2,blue_pentagon,go,,,,go-1,1,,,,,,
1,415.0,16,phase_2,blue_circle,go,,,,go-1,1,,,,,,
1,434.0,16,phase_2,purple_circle,go,,,,go-2,1,,,,,,
1,454.0,16,phase_2,purple_rhombus,go,,,,go-2,1,,,,,,
2,418.0,16,phase_2,blue_pentagon,go,,,,go-1,1,,,,,,
0,0,16,phase_2,purple_circle,stop,red,250.0,tracking-SSD,go-2,4,,,,,,
2,514.0,16,phase_2,purple_pentagon,go,,,,go-2,1,,,,,,
0,0,16,phase_2,purple_triangle,stop,green,0.0,0-SSD,go-2,4,,,,,,
1,520.0,16,phase_2,purple_rhombus,go,,,,go-2,1,,,,,,
0,0,16,phase_2,purple_triangle,stop,red,300.0,tracking-SSD,go-2,4,,,,,,
1,481.0,16,phase_2,blue_circle,go,,,,go-1,1,,,,,,
1,491.0,16,phase_2,blue_rhombus,go,,,,go-1,1,,,,,,
2,612.0,16,phase_2,purple_triangle,go,,,,go-2,1,,,,,,
2,519.0,16,phase_2,purple_pentagon,stop,red,350.0,tracking-SSD,go-2,3,,,,,,
0,0,16,phase_2,blue_rhombus,stop,green,0.0,0-SSD,go-1,4,,,,,,
1,436.0,16,phase_2,purple_circle,go,,,,go-2,1,,,,,,
1,534.0,16,phase_2,blue_rhombus,go,,,,go-1,1,,,,,,
2,532.0,16,phase_2,blue_pentagon,go,,,,go-1,1,,,,,,
2,586.0,16,phase_2,blue_pentagon,go,,,,go-1,1,,,,,,
2,448.0,16,phase_2,blue_triangle,go,,,,go-1,1,,,,,,
2,401.0,16,phase_2,purple_pentagon,go,,,,go-2,1,,,,,,
0,0,16,phase_2,purple_triangle,stop,green,0.0,0-SSD,go-2,4,,,,,,
1,464.0,16,phase_2,blue_circle,go,,,,go-1,1,,,,,,
0,0,16,phase_2,blue_circle,stop,green,0.0,0-SSD,go-1,4,,,,,,
0,0,16,phase_2,blue_rhombus,stop,green,0.0,0-SSD,go-1,4,,,,,,
0,0,16,phase_2,blue_triangle,stop,red,300.0,tracking-SSD,go-1,4,,,,,,
2,566.0,16,phase_2,purple_triangle,go,,,,go-2,1,,,,,,
2,417.0,16,phase_2,purple_pentagon,go,,,,go-2,1,,,,,,
2,447.0,16,phase_2,blue_triangle,stop,red,350.0,tracking-SSD,go-1,3,,,,,,
0,0,16,phase_2,blue_rhombus,stop,red,300.0,tracking-SSD,go-1,4,,,,,,
2,701.0,16,phase_2,blue_pentagon,go,,,,go-1,1,,,,,,
2,507.0,16,phase_2,purple_pentagon,go,,,,go-2,1,,,,,,
2,493.0,16,phase_2,blue_triangle,go,,,,go-1,1,,,,,,
1,491.0,16,phase_2,purple_rhombus,go,,,,go-2,1,,,,,,
1,500.0,16,phase_2,purple_rhombus,go,,,,go-2,1,,,,,,
1,576.0,16,phase_2,blue_rhombus,go,,,,go-1,1,,,,,,
1,460.0,16,phase_2,purple_circle,go,,,,go-2,1,,,,,,
2,458.0,16,phase_2,purple_triangle,go,,,,go-2,1,,,,,,
2,374.0,17,phase_2,blue_pentagon,go,,,,go-1,1,,,,,,
2,317.0,17,phase_2,blue_pentagon,go,,,,go-1,1,,,,,,
2,348.0,17,phase_2,purple_pentagon,go,,,,go-2,1,,,,,,
0,0,17,phase_2,blue_rhombus,stop,green,0.0,0-SSD,go-1,4,,,,,,
1,479.0,17,phase_2,purple_rhombus,stop,red,350.0,tracking-SSD,go-2,3,,,,,,
1,430.0,17,phase_2,purple_rhombus,go,,,,go-2,1,,,,,,
0,0,17,phase_2,blue_triangle,stop,red,300.0,tracking-SSD,go-1,4,,,,,,
1,447.0,17,phase_2,blue_circle,go,,,,go-1,1,,,,,,
1,467.0,17,phase_2,blue_rhombus,go,,,,go-1,1,,,,,,
2,465.0,17,phase_2,purple_pentagon,go,,,,go-2,1,,,,,,
2,564.0,17,phase_2,purple_pentagon,go,,,,go-2,1,,,,,,
1,438.0,17,phase_2,blue_circle,go,,,,go-1,1,,,,,,
2,693.0,17,phase_2,blue_triangle,go,,,,go-1,1,,,,,,
2,409.0,17,phase_2,purple_triangle,go,,,,go-2,1,,,,,,
0,0,17,phase_2,blue_triangle,stop,green,0.0,0-SSD,go-1,4,,,,,,
1,562.0,17,phase_2,blue_rhombus,go,,,,go-1,1,,,,,,
2,537.0,17,phase_2,blue_triangle,go,,,,go-1,1,,,,,,
2,422.0,17,phase_2,blue_pentagon,go,,,,go-1,1,,,,,,
1,431.0,17,phase_2,purple_circle,go,,,,go-2,1,,,,,,
2,428.0,17,phase_2,blue_pentagon,go,,,,go-1,1,,,,,,
1,414.0,17,phase_2,purple_circle,go,,,,go-2,1,,,,,,
1,412.0,17,phase_2,blue_circle,go,,,,go-1,1,,,,,,
1,398.0,17,phase_2,purple_circle,stop,red,350.0,tracking-SSD,go-2,3,,,,,,
0,0,17,phase_2,purple_circle,stop,green,0.0,0-SSD,go-2,4,,,,,,
1,449.0,17,phase_2,purple_circle,go,,,,go-2,1,,,,,,
2,402.0,17,phase_2,purple_triangle,go,,,,go-2,1,,,,,,
0,0,17,phase_2,blue_rhombus,stop,red,300.0,tracking-SSD,go-1,4,,,,,,
1,476.0,17,phase_2,purple_circle,go,,,,go-2,1,,,,,,
2,732.0,17,phase_2,blue_triangle,go,,,,go-1,1,,,,,,
0,0,17,phase_2,purple_triangle,stop,green,0.0,0-SSD,go-2,4,,,,,,
2,670.0,17,phase_2,purple_pentagon,go,,,,go-2,1,,,,,,
0,0,17,phase_2,purple_rhombus,stop,green,0.0,0-SSD,go-2,4,,,,,,
1,451.0,17,phase_2,purple_rhombus,stop,red,350.0,tracking-SSD,go-2,3,,,,,,
1,504.0,17,phase_2,blue_rhombus,go,,,,go-1,1,,,,,,
2,480.0,17,phase_2,blue_pentagon,go,,,,go-1,1,,,,,,
1,433.0,17,phase_2,blue_rhombus,stop,red,300.0,tracking-SSD,go-1,3,,,,,,
0,0,17,phase_2,blue_triangle,stop,green,0.0,0-SSD,go-1,4,,,,,,
2,371.0,17,phase_2,blue_pentagon,go,,,,go-1,1,,,,,,
2,424.0,17,phase_2,purple_pentagon,go,,,,go-2,1,,,,,,
1,434.0,17,phase_2,blue_circle,go,,,,go-1,1,,,,,,
2,510.0,17,phase_2,purple_triangle,go,,,,go-2,1,,,,,,
2,428.0,17,phase_2,blue_triangle,stop,red,250.0,tracking-SSD,go-1,3,,,,,,
0,0,17,phase_2,blue_triangle,stop,green,0.0,0-SSD,go-1,4,,,,,,
0,0,17,phase_2,purple_rhombus,stop,red,200.0,tracking-SSD,go-2,4,,,,,,
2,545.0,17,phase_2,purple_pentagon,go,,,,go-2,1,,,,,,
1,543.0,17,phase_2,purple_circle,go,,,,go-2,1,,,,,,
1,529.0,17,phase_2,purple_circle,go,,,,go-2,1,,,,,,
0,0,17,phase_2,purple_rhombus,stop,green,0.0,0-SSD,go-2,4,,,,,,
,700.0,1,phase_3,,,,,,,,blue_square,go-1,blue_square,go-1,green_square,0-SSD
,931.0,1,phase_3,,,,,,,,red_square,tracking-SSD,purple_square,go-2,red_square,tracking-SSD
,837.0,1,phase_3,,,,,,,,blue_square,go-1,blue_square,go-1,purple_square,go-2
,1767.0,1,phase_3,,,,,,,,red_square,tracking-SSD,blue_square,go-1,red_square,tracking-SSD
,862.0,1,phase_3,,,,,,,,red_square,tracking-SSD,green_square,0-SSD,red_square,tracking-SSD
,1882.0,1,phase_3,,,,,,,,purple_square,go-2,purple_square,go-2,green_square,0-SSD
,740.0,1,phase_3,,,,,,,,blue_square,go-1,green_square,0-SSD,blue_square,go-1
,1883.0,1,phase_3,,,,,,,,green_square,0-SSD,green_square,0-SSD,purple_square,go-2
,1453.0,1,phase_3,,,,,,,,blue_square,go-1,purple_square,go-2,blue_square,go-1
,1211.0,1,phase_3,,,,,,,,red_square,tracking-SSD,red_square,tracking-SSD,purple_square,go-2
,1455.0,1,phase_3,,,,,,,,red_square,tracking-SSD,red_square,tracking-SSD,green_square,0-SSD
,956.0,1,phase_3,,,,,,,,blue_square,go-1,red_square,tracking-SSD,blue_square,go-1
,2164.0,2,phase_3,,,,,,,,blue_square,go-1,blue_square,go-1,purple_square,go-2
,2037.0,2,phase_3,,,,,,,,purple_square,go-2,purple_square,go-2,green_square,0-SSD
,671.0,2,phase_3,,,,,,,,red_square,tracking-SSD,blue_square,go-1,red_square,tracking-SSD
,667.0,2,phase_3,,,,,,,,red_square,tracking-SSD,green_square,0-SSD,red_square,tracking-SSD
,1563.0,2,phase_3,,,,,,,,blue_square,go-1,blue_square,go-1,green_square,0-SSD
,1502.0,2,phase_3,,,,,,,,red_square,tracking-SSD,purple_square,go-2,red_square,tracking-SSD
,709.0,2,phase_3,,,,,,,,green_square,0-SSD,green_square,0-SSD,purple_square,go-2
,671.0,2,phase_3,,,,,,,,blue_square,go-1,purple_square,go-2,blue_square,go-1
,589.0,2,phase_3,,,,,,,,blue_square,go-1,green_square,0-SSD,blue_square,go-1
,809.0,2,phase_3,,,,,,,,red_square,tracking-SSD,red_square,tracking-SSD,purple_square,go-2
,895.0,2,phase_3,,,,,,,,red_square,tracking-SSD,red_square,tracking-SSD,green_square,0-SSD
,1600.0,2,phase_3,,,,,,,,red_square,tracking-SSD,red_square,tracking-SSD,blue_square,go-1
,993.0,3,phase_3,,,,,,,,blue_square,go-1,blue_square,go-1,green_square,0-SSD
,809.0,3,phase_3,,,,,,,,red_square,tracking-SSD,purple_square,go-2,red_square,tracking-SSD
,996.0,3,phase_3,,,,,,,,red_square,tracking-SSD,green_square,0-SSD,red_square,tracking-SSD
,1858.0,3,phase_3,,,,,,,,blue_square,go-1,blue_square,go-1,purple_square,go-2
,1156.0,3,phase_3,,,,,,,,purple_square,go-2,purple_square,go-2,green_square,0-SSD
,1198.0,3,phase_3,,,,,,,,red_square,tracking-SSD,blue_square,go-1,red_square,tracking-SSD
,1001.0,3,phase_3,,,,,,,,purple_square,go-2,green_square,0-SSD,purple_square,go-2
,951.0,3,phase_3,,,,,,,,red_square,tracking-SSD,red_square,tracking-SSD,purple_square,go-2
,643.0,3,phase_3,,,,,,,,blue_square,go-1,green_square,0-SSD,blue_square,go-1
,595.0,3,phase_3,,,,,,,,red_square,tracking-SSD,red_square,tracking-SSD,green_square,0-SSD
,590.0,3,phase_3,,,,,,,,blue_square,go-1,purple_square,go-2,blue_square,go-1
,1227.0,3,phase_3,,,,,,,,red_square,tracking-SSD,red_square,tracking-SSD,blue_square,go-1
,960.0,4,phase_3,,,,,,,,red_square,tracking-SSD,purple_square,go-2,red_square,tracking-SSD
,988.0,4,phase_3,,,,,,,,blue_square,go-1,blue_square,go-1,green_square,0-SSD
,501.0,4,phase_3,,,,,,,,green_square,0-SSD,green_square,0-SSD,red_square,tracking-SSD
,1059.0,4,phase_3,,,,,,,,blue_square,go-1,blue_square,go-1,purple_square,go-2
,1886.0,4,phase_3,,,,,,,,purple_square,go-2,purple_square,go-2,green_square,0-SSD
,892.0,4,phase_3,,,,,,,,red_square,tracking-SSD,blue_square,go-1,red_square,tracking-SSD
,562.0,4,phase_3,,,,,,,,blue_square,go-1,purple_square,go-2,blue_square,go-1
,860.0,4,phase_3,,,,,,,,red_square,tracking-SSD,red_square,tracking-SSD,blue_square,go-1
,823.0,4,phase_3,,,,,,,,red_square,tracking-SSD,red_square,tracking-SSD,green_square,0-SSD
,435.0,4,phase_3,,,,,,,,blue_square,go-1,green_square,0-SSD,blue_square,go-1
,543.0,4,phase_3,,,,,,,,red_square,tracking-SSD,red_square,tracking-SSD,purple_square,go-2
,1137.0,4,phase_3,,,,,,,,purple_square,go-2,green_square,0-SSD,purple_square,go-2
,1083.0,5,phase_3,,,,,,,,red_square,tracking-SSD,blue_square,go-1,red_square,tracking-SSD
,574.0,5,phase_3,,,,,,,,blue_square,go-1,blue_square,go-1,green_square,0-SSD
,952.0,5,phase_3,,,,,,,,green_square,0-SSD,purple_square,go-2,green_square,0-SSD
,836.0,5,phase_3,,,,,,,,red_square,tracking-SSD,purple_square,go-2,red_square,tracking-SSD
,876.0,5,phase_3,,,,,,,,blue_square,go-1,blue_square,go-1,purple_square,go-2
,837.0,5,phase_3,,,,,,,,red_square,tracking-SSD,green_square,0-SSD,red_square,tracking-SSD
,1115.0,5,phase_3,,,,,,,,blue_square,go-1,green_square,0-SSD,blue_square,go-1
,952.0,5,phase_3,,,,,,,,red_square,tracking-SSD,red_square,tracking-SSD,blue_square,go-1
,531.0,5,phase_3,,,,,,,,red_square,tracking-SSD,red_square,tracking-SSD,purple_square,go-2
,1687.0,5,phase_3,,,,,,,,purple_square,go-2,green_square,0-SSD,purple_square,go-2
,850.0,5,phase_3,,,,,,,,red_square,tracking-SSD,red_square,tracking-SSD,green_square,0-SSD
,518.0,5,phase_3,,,,,,,,blue_square,go-1,purple_square,go-2,blue_square,go-1
