response,reaction_time,block,which_phase,stim,stop_signal_trial_type,stop_signal_stimulus,SSD,SSD_type,condition,accuracy,chosen_stim,chosen_cond,stim_left,cond_left,stim_right,cond_right
0,0,1,phase_2,red_triangle,stop,blue,0.0,0-SSD,go-2,4,,,,,,
1,384.0,1,phase_2,purple_pentagon,go,,,,go-1,2,,,,,,
0,0,1,phase_2,purple_circle,stop,blue,0.0,0-SSD,go-1,4,,,,,,
2,481.0,1,phase_2,red_pentagon,go,,,,go-2,1,,,,,,
2,399.0,1,phase_2,purple_circle,stop,green,250.0,tracking-SSD,go-1,3,,,,,,
2,375.0,1,phase_2,red_circle,go,,,,go-2,1,,,,,,
1,361.0,1,phase_2,purple_triangle,go,,,,go-1,1,,,,,,
1,437.0,1,phase_2,red_rhombus,go,,,,go-2,1,,,,,,
0,0,1,phase_2,purple_rhombus,stop,blue,0.0,0-SSD,go-1,4,,,,,,
2,342.0,1,phase_2,purple_circle,go,,,,go-1,1,,,,,,
1,486.0,1,phase_2,purple_pentagon,go,,,,go-1,2,,,,,,
1,416.0,1,phase_2,red_rhombus,go,,,,go-2,1,,,,,,
0,0,1,phase_2,red_circle,stop,blue,0.0,0-SSD,go-2,4,,,,,,
1,467.0,1,phase_2,purple_triangle,stop,green,200.0,tracking-SSD,go-1,3,,,,,,
2,499.0,1,phase_2,purple_pentagon,go,,,,go-1,1,,,,,,
1,541.0,1,phase_2,red_triangle,go,,,,go-2,1,,,,,,
2,449.0,1,phase_2,red_pentagon,go,,,,go-2,1,,,,,,
1,435.0,1,phase_2,red_rhombus,stop,green,150.0,tracking-SSD,go-2,3,,,,,,
1,466.0,1,phase_2,purple_triangle,go,,,,go-1,1,,,,,,
0,0,1,phase_2,purple_pentagon,stop,blue,0.0,0-SSD,go-1,4,,,,,,
2,383.0,1,phase_2,red_circle,go,,,,go-2,1,,,,,,
0,0,1,phase_2,red_circle,stop,green,100.0,tracking-SSD,go-2,4,,,,,,
1,458.0,1,phase_2,red_triangle,go,,,,go-2,1,,,,,,
2,444.0,1,phase_2,purple_rhombus,go,,,,go-1,2,,,,,,
2,396.0,1,phase_2,purple_circle,go,,,,go-1,1,,,,,,
2,440.0,1,phase_2,red_circle,go,,,,go-2,1,,,,,,
1,414.0,1,phase_2,purple_rhombus,go,,,,go-1,1,,,,,,
1,355.0,1,phase_2,purple_rhombus,go,,,,go-1,1,,,,,,
2,477.0,1,phase_2,red_pentagon,go,,,,go-2,1,,,,,,
2,474.0,1,phase_2,red_circle,go,,,,go-2,1,,,,,,
0,0,1,phase_2,red_pentagon,stop,green,150.0,tracking-SSD,go-2,4,,,,,,
1,414.0,1,phase_2,purple_rhombus,go,,,,go-1,1,,,,,,
1,366.0,1,phase_2,purple_triangle,go,,,,go-1,1,,,,,,
2,454.0,1,phase_2,red_pentagon,go,,,,go-2,1,,,,,,
2,383.0,1,phase_2,red_circle,go,,,,go-2,1,,,,,,
2,426.0,1,phase_2,red_triangle,go,,,,go-2,2,,,,,,
0,0,1,phase_2,purple_pentagon,stop,blue,0.0,0-SSD,go-1,4,,,,,,
2,365.0,1,phase_2,purple_triangle,stop,green,200.0,tracking-SSD,go-1,3,,,,,,
2,543.0,1,phase_2,purple_pentagon,go,,,,go-1,1,,,,,,
0,0,1,phase_2,red_triangle,stop,blue,0.0,0-SSD,go-2,4,,,,,,
1,358.0,1,phase_2,red_triangle,stop,green,150.0,tracking-SSD,go-2,3,,,,,,
2,468.0,1,phase_2,red_rhombus,go,,,,go-2,2,,,,,,
1,534.0,1,phase_2,purple_rhombus,go,,,,go-1,1,,,,,,
2,441.0,1,phase_2,purple_circle,go,,,,go-1,1,,,,,,
1,371.0,1,phase_2,purple_triangle,go,,,,go-1,1,,,,,,
1,368.0,1,phase_2,red_rhombus,go,,,,go-2,1,,,,,,
1,411.0,1,phase_2,purple_rhombus,stop,green,100.0,tracking-SSD,go-1,3,,,,,,
0,0,1,phase_2,red_pentagon,stop,blue,0.0,0-SSD,go-2,4,,,,,,
1,510.0,2,phase_2,red_triangle,go,,,,go-2,1,,,,,,
1,350.0,2,phase_2,purple_triangle,go,,,,go-1,1,,,,,,
2,417.0,2,phase_2,red_circle,go,,,,go-2,1,,,,,,
0,0,2,phase_2,red_circle,stop,blue,0.0,0-SSD,go-2,4,,,,,,
2,390.0,2,phase_2,red_circle,go,,,,go-2,1,,,,,,
1,387.0,2,phase_2,purple_pentagon,go,,,,go-1,2,,,,,,
2,530.0,2,phase_2,red_circle,go,,,,go-2,1,,,,,,
2,584.0,2,phase_2,red_pentagon,go,,,,go-2,1,,,,,,
1,491.0,2,phase_2,red_rhombus,go,,,,go-2,1,,,,,,
0,0,2,phase_2,red_circle,stop,green,50.0,tracking-SSD,go-2,4,,,,,,
2,398.0,2,phase_2,purple_rhombus,go,,,,go-1,2,,,,,,
0,0,2,phase_2,purple_pentagon,stop,green,100.0,tracking-SSD,go-1,4,,,,,,
2,561.0,2,phase_2,purple_pentagon,go,,,,go-1,1,,,,,,
2,457.0,2,phase_2,red_circle,go,,,,go-2,1,,,,,,
1,410.0,2,phase_2,red_rhombus,stop,blue,0.0,0-SSD,go-2,3,,,,,,
2,520.0,2,phase_2,purple_pentagon,go,,,,go-1,1,,,,,,
1,496.0,2,phase_2,purple_rhombus,go,,,,go-1,1,,,,,,
1,438.0,2,phase_2,red_triangle,go,,,,go-2,1,,,,,,
1,390.0,2,phase_2,purple_triangle,go,,,,go-1,1,,,,,,
2,365.0,2,phase_2,purple_pentagon,go,,,,go-1,1,,,,,,
1,407.0,2,phase_2,red_circle,go,,,,go-2,2,,,,,,
1,382.0,2,phase_2,red_circle,go,,,,go-2,2,,,,,,
2,536.0,2,phase_2,red_pentagon,stop,green,150.0,tracking-SSD,go-2,3,,,,,,
1,568.0,2,phase_2,purple_triangle,stop,green,100.0,tracking-SSD,go-1,3,,,,,,
0,0,2,phase_2,red_triangle,stop,blue,0.0,0-SSD,go-2,4,,,,,,
0,0,2,phase_2,purple_triangle,stop,green,50.0,tracking-SSD,go-1,4,,,,,,
0,0,2,phase_2,purple_pentagon,stop,blue,0.0,0-SSD,go-1,4,,,,,,
2,369.0,2,phase_2,purple_rhombus,go,,,,go-1,2,,,,,,
2,579.0,2,phase_2,purple_pentagon,go,,,,go-1,1,,,,,,
2,520.0,2,phase_2,red_circle,go,,,,go-2,1,,,,,,
0,0,2,phase_2,red_triangle,stop,blue,0.0,0-SSD,go-2,4,,,,,,
2,472.0,2,phase_2,red_rhombus,go,,,,go-2,2,,,,,,
1,470.0,2,phase_2,purple_triangle,go,,,,go-1,1,,,,,,
0,0,2,phase_2,purple_circle,stop,blue,0.0,0-SSD,go-1,4,,,,,,
1,543.0,2,phase_2,purple_rhombus,go,,,,go-1,1,,,,,,
0,0,2,phase_2,purple_rhombus,stop,blue,0.0,0-SSD,go-1,4,,,,,,
1,370.0,2,phase_2,purple_rhombus,stop,green,100.0,tracking-SSD,go-1,3,,,,,,
1,402.0,2,phase_2,purple_rhombus,stop,blue,0.0,0-SSD,go-1,3,,,,,,
2,500.0,2,phase_2,red_pentagon,go,,,,go-2,1,,,,,,
0,0,2,phase_2,red_circle,stop,green,50.0,tracking-SSD,go-2,4,,,,,,
1,405.0,2,phase_2,purple_triangle,go,,,,go-1,1,,,,,,
0,0,2,phase_2,red_rhombus,stop,green,100.0,tracking-SSD,go-2,4,,,,,,
1,367.0,2,phase_2,red_triangle,go,,,,go-2,1,,,,,,
1,398.0,2,phase_2,red_rhombus,go,,,,go-2,1,,,,,,
1,385.0,2,phase_2,purple_pentagon,go,,,,go-1,2,,,,,,
1,529.0,2,phase_2,purple_triangle,go,,,,go-1,1,,,,,,
2,358.0,2,phase_2,purple_circle,go,,,,go-1,1,,,,,,
2,379.0,2,phase_2,red_pentagon,go,,,,go-2,1,,,,,,
1,453.0,3,phase_2,purple_triangle,stop,green,150.0,tracking-SSD,go-1,3,,,,,,
2,462.0,3,phase_2,purple_pentagon,go,,,,go-1,1,,,,,,
0,0,3,phase_2,red_rhombus,stop,green,100.0,tracking-SSD,go-2,4,,,,,,
2,480.0,3,phase_2,purple_circle,go,,,,go-1,1,,,,,,
1,444.0,3,phase_2,purple_pentagon,go,,,,go-1,2,,,,,,
1,565.0,3,phase_2,red_rhombus,go,,,,go-2,1,,,,,,
1,463.0,3,phase_2,purple_rhombus,go,,,,go-1,1,,,,,,
0,0,3,phase_2,purple_triangle,stop,blue,0.0,0-SSD,go-1,4,,,,,,
2,424.0,3,phase_2,purple_circle,go,,,,go-1,1,,,,,,
1,446.0,3,phase_2,red_triangle,go,,,,go-2,1,,,,,,
0,0,3,phase_2,red_rhombus,stop,blue,0.0,0-SSD,go-2,4,,,,,,
2,431.0,3,phase_2,red_circle,go,,,,go-2,1,,,,,,
0,0,3,phase_2,purple_pentagon,stop,blue,0.0,0-SSD,go-1,4,,,,,,
1,314.0,3,phase_2,purple_triangle,stop,green,150.0,tracking-SSD,go-1,3,,,,,,
1,380.0,3,phase_2,red_triangle,go,,,,go-2,1,,,,,,
2,390.0,3,phase_2,red_circle,go,,,,go-2,1,,,,,,
1,399.0,3,phase_2,red_pentagon,go,,,,go-2,2,,,,,,
1,384.0,3,phase_2,purple_triangle,go,,,,go-1,1,,,,,,
1,370.0,3,phase_2,purple_triangle,go,,,,go-1,1,,,,,,
0,0,3,phase_2,red_pentagon,stop,green,100.0,tracking-SSD,go-2,4,,,,,,
0,0,3,phase_2,red_pentagon,stop,blue,0.0,0-SSD,go-2,4,,,,,,
0,0,3,phase_2,red_circle,stop,blue,0.0,0-SSD,go-2,4,,,,,,
1,473.0,3,phase_2,red_pentagon,go,,,,go-2,2,,,,,,
2,402.0,3,phase_2,purple_pentagon,go,,,,go-1,1,,,,,,
1,468.0,3,phase_2,red_triangle,go,,,,go-2,1,,,,,,
2,477.0,3,phase_2,purple_rhombus,go,,,,go-1,2,,,,,,
1,508.0,3,phase_2,purple_triangle,go,,,,go-1,1,,,,,,
2,416.0,3,phase_2,purple_circle,stop,green,150.0,tracking-SSD,go-1,3,,,,,,
2,514.0,3,phase_2,purple_pentagon,go,,,,go-1,1,,,,,,
2,422.0,3,phase_2,purple_circle,go,,,,go-1,1,,,,,,
0,0,3,phase_2,red_circle,stop,blue,0.0,0-SSD,go-2,4,,,,,,
2,416.0,3,phase_2,red_pentagon,go,,,,go-2,1,,,,,,
0,0,3,phase_2,purple_pentagon,stop,green,100.0,tracking-SSD,go-1,4,,,,,,
1,569.0,3,phase_2,purple_rhombus,go,,,,go-1,1,,,,,,
1,534.0,3,phase_2,purple_triangle,go,,,,go-1,1,,,,,,
2,431.0,3,phase_2,red_rhombus,go,,,,go-2,2,,,,,,
2,485.0,3,phase_2,red_pentagon,stop,green,150.0,tracking-SSD,go-2,3,,,,,,
0,0,3,phase_2,purple_rhombus,stop,blue,0.0,0-SSD,go-1,4,,,,,,
2,615.0,3,phase_2,red_circle,go,,,,go-2,1,,,,,,
1,512.0,3,phase_2,purple_rhombus,go,,,,go-1,1,,,,,,
1,543.0,3,phase_2,red_rhombus,go,,,,go-2,1,,,,,,
2,405.0,3,phase_2,red_circle,go,,,,go-2,1,,,,,,
0,0,3,phase_2,red_rhombus,stop,green,100.0,tracking-SSD,go-2,4,,,,,,
0,0,3,phase_2,purple_rhombus,stop,blue,0.0,0-SSD,go-1,4,,,,,,
2,401.0,3,phase_2,red_triangle,go,,,,go-2,2,,,,,,
2,510.0,3,phase_2,red_circle,go,,,,go-2,1,,,,,,
2,451.0,3,phase_2,purple_circle,go,,,,go-1,1,,,,,,
1,415.0,3,phase_2,red_triangle,go,,,,go-2,1,,,,,,
2,522.0,4,phase_2,red_pentagon,go,,,,go-2,1,,,,,,
0,0,4,phase_2,red_rhombus,stop,blue,0.0,0-SSD,go-2,4,,,,,,
1,427.0,4,phase_2,purple_rhombus,go,,,,go-1,1,,,,,,
2,571.0,4,phase_2,purple_pentagon,go,,,,go-1,1,,,,,,
2,478.0,4,phase_2,purple_circle,go,,,,go-1,1,,,,,,
1,431.0,4,phase_2,purple_rhombus,go,,,,go-1,1,,,,,,
0,0,4,phase_2,red_rhombus,stop,blue,0.0,0-SSD,go-2,4,,,,,,
0,0,4,phase_2,purple_pentagon,stop,blue,0.0,0-SSD,go-1,4,,,,,,
0,0,4,phase_2,purple_triangle,stop,blue,0.0,0-SSD,go-1,4,,,,,,
2,410.0,4,phase_2,purple_circle,stop,green,150.0,tracking-SSD,go-1,3,,,,,,
1,430.0,4,phase_2,purple_rhombus,stop,green,100.0,tracking-SSD,go-1,3,,,,,,
1,439.0,4,phase_2,purple_rhombus,go,,,,go-1,1,,,,,,
1,391.0,4,phase_2,red_triangle,go,,,,go-2,1,,,,,,
1,412.0,4,phase_2,purple_pentagon,go,,,,go-1,2,,,,,,
0,0,4,phase_2,red_pentagon,stop,green,50.0,tracking-SSD,go-2,4,,,,,,
2,512.0,4,phase_2,red_circle,go,,,,go-2,1,,,,,,
1,521.0,4,phase_2,red_rhombus,go,,,,go-2,1,,,,,,
1,440.0,4,phase_2,red_rhombus,go,,,,go-2,1,,,,,,
0,0,4,phase_2,purple_pentagon,stop,blue,0.0,0-SSD,go-1,4,,,,,,
1,526.0,4,phase_2,purple_rhombus,go,,,,go-1,1,,,,,,
1,592.0,4,phase_2,red_rhombus,go,,,,go-2,1,,,,,,
0,0,4,phase_2,red_triangle,stop,blue,0.0,0-SSD,go-2,4,,,,,,
0,0,4,phase_2,purple_circle,stop,green,100.0,tracking-SSD,go-1,4,,,,,,
1,439.0,4,phase_2,purple_triangle,go,,,,go-1,1,,,,,,
2,437.0,4,phase_2,purple_circle,go,,,,go-1,1,,,,,,
0,0,4,phase_2,red_rhombus,stop,blue,0.0,0-SSD,go-2,4,,,,,,
1,467.0,4,phase_2,red_triangle,go,,,,go-2,1,,,,,,
0,0,4,phase_2,purple_rhombus,stop,blue,0.0,0-SSD,go-1,4,,,,,,
2,496.0,4,phase_2,purple_pentagon,stop,green,150.0,tracking-SSD,go-1,3,,,,,,
2,426.0,4,phase_2,red_pentagon,go,,,,go-2,1,,,,,,
1,390.0,4,phase_2,red_circle,go,,,,go-2,2,,,,,,
2,534.0,4,phase_2,purple_circle,go,,,,go-1,1,,,,,,
2,387.0,4,phase_2,red_circle,go,,,,go-2,1,,,,,,
1,328.0,4,phase_2,purple_triangle,go,,,,go-1,1,,,,,,
1,404.0,4,phase_2,purple_triangle,go,,,,go-1,1,,,,,,
2,369.0,4,phase_2,red_pentagon,go,,,,go-2,1,,,,,,
2,536.0,4,phase_2,purple_circle,go,,,,go-1,1,,,,,,
1,375.0,4,phase_2,red_triangle,go,,,,go-2,1,,,,,,
1,304.0,4,phase_2,purple_triangle,go,,,,go-1,1,,,,,,
2,404.0,4,phase_2,purple_circle,go,,,,go-1,1,,,,,,
2,581.0,4,phase_2,purple_pentagon,go,,,,go-1,1,,,,,,
1,411.0,4,phase_2,red_triangle,stop,green,100.0,tracking-SSD,go-2,3,,,,,,
2,509.0,4,phase_2,red_pentagon,go,,,,go-2,1,,,,,,
1,383.0,4,phase_2,red_triangle,stop,green,50.0,tracking-SSD,go-2,3,,,,,,
1,369.0,4,phase_2,red_triangle,stop,green,0.0,tracking-SSD,go-2,3,,,,,,
2,389.0,4,phase_2,red_circle,go,,,,go-2,1,,,,,,
1,421.0,4,phase_2,red_pentagon,go,,,,go-2,2,,,,,,
1,453.0,4,phase_2,red_circle,go,,,,go-2,2,,,,,,
2,385.0,5,phase_2,red_rhombus,go,,,,go-2,2,,,,,,
2,417.0,5,phase_2,purple_pentagon,go,,,,go-1,1,,,,,,
1,472.0,5,phase_2,purple_triangle,go,,,,go-1,1,,,,,,
1,380.0,5,phase_2,red_triangle,go,,,,go-2,1,,,,,,
1,355.0,5,phase_2,red_triangle,go,,,,go-2,1,,,,,,
1,387.0,5,phase_2,red_triangle,stop,green,0.0,tracking-SSD,go-2,3,,,,,,
1,396.0,5,phase_2,red_rhombus,go,,,,go-2,1,,,,,,
0,0,5,phase_2,red_rhombus,stop,green,0.0,tracking-SSD,go-2,4,,,,,,
2,437.0,5,phase_2,red_pentagon,go,,,,go-2,1,,,,,,
1,425.0,5,phase_2,red_triangle,go,,,,go-2,1,,,,,,
2,490.0,5,phase_2,red_rhombus,go,,,,go-2,2,,,,,,
1,363.0,5,phase_2,purple_triangle,go,,,,go-1,1,,,,,,
2,383.0,5,phase_2,purple_pentagon,go,,,,go-1,1,,,,,,
2,381.0,5,phase_2,red_pentagon,go,,,,go-2,1,,,,,,
1,595.0,5,phase_2,purple_rhombus,go,,,,go-1,1,,,,,,
2,469.0,5,phase_2,purple_pentagon,go,,,,go-1,1,,,,,,
2,444.0,5,phase_2,purple_pentagon,go,,,,go-1,1,,,,,,
2,508.0,5,phase_2,red_circle,go,,,,go-2,1,,,,,,
1,551.0,5,phase_2,red_rhombus,go,,,,go-2,1,,,,,,
2,436.0,5,phase_2,red_circle,go,,,,go-2,1,,,,,,
1,388.0,5,phase_2,purple_rhombus,go,,,,go-1,1,,,,,,
2,431.0,5,phase_2,purple_circle,go,,,,go-1,1,,,,,,
2,429.0,5,phase_2,purple_pentagon,go,,,,go-1,1,,,,,,
2,428.0,5,phase_2,red_pentagon,go,,,,go-2,1,,,,,,
1,392.0,5,phase_2,red_circle,stop,blue,0.0,0-SSD,go-2,3,,,,,,
2,412.0,5,phase_2,red_pentagon,stop,green,50.0,tracking-SSD,go-2,3,,,,,,
0,0,5,phase_2,purple_triangle,stop,blue,0.0,0-SSD,go-1,4,,,,,,
0,0,5,phase_2,red_circle,stop,blue,0.0,0-SSD,go-2,4,,,,,,
1,471.0,5,phase_2,purple_triangle,go,,,,go-1,1,,,,,,
2,368.0,5,phase_2,purple_circle,go,,,,go-1,1,,,,,,
2,332.0,5,phase_2,red_circle,go,,,,go-2,1,,,,,,
1,385.0,5,phase_2,red_pentagon,go,,,,go-2,2,,,,,,
0,0,5,phase_2,purple_triangle,stop,blue,0.0,0-SSD,go-1,4,,,,,,
0,0,5,phase_2,purple_rhombus,stop,green,0.0,tracking-SSD,go-1,4,,,,,,
2,300.0,5,phase_2,purple_circle,go,,,,go-1,1,,,,,,
0,0,5,phase_2,purple_rhombus,stop,green,50.0,tracking-SSD,go-1,4,,,,,,
2,373.0,5,phase_2,purple_triangle,go,,,,go-1,2,,,,,,
1,494.0,5,phase_2,purple_rhombus,stop,green,100.0,tracking-SSD,go-1,3,,,,,,
2,414.0,5,phase_2,red_circle,stop,blue,0.0,0-SSD,go-2,3,,,,,,
1,401.0,5,phase_2,red_triangle,go,,,,go-2,1,,,,,,
1,386.0,5,phase_2,red_triangle,stop,green,50.0,tracking-SSD,go-2,3,,,,,,
0,0,5,phase_2,purple_pentagon,stop,blue,0.0,0-SSD,go-1,4,,,,,,
0,0,5,phase_2,red_rhombus,stop,blue,0.0,0-SSD,go-2,4,,,,,,
0,0,5,phase_2,purple_pentagon,stop,green,0.0,tracking-SSD,go-1,4,,,,,,
2,468.0,5,phase_2,purple_circle,go,,,,go-1,1,,,,,,
2,398.0,5,phase_2,purple_rhombus,go,,,,go-1,2,,,,,,
2,507.0,5,phase_2,red_circle,go,,,,go-2,1,,,,,,
0,0,5,phase_2,purple_circle,stop,blue,0.0,0-SSD,go-1,4,,,,,,
0,0,6,phase_2,red_circle,stop,green,50.0,tracking-SSD,go-2,4,,,,,,
1,340.0,6,phase_2,purple_triangle,go,,,,go-1,1,,,,,,
2,404.0,6,phase_2,red_rhombus,go,,,,go-2,2,,,,,,
2,549.0,6,phase_2,purple_pentagon,go,,,,go-1,1,,,,,,
2,434.0,6,phase_2,purple_pentagon,go,,,,go-1,1,,,,,,
2,330.0,6,phase_2,purple_pentagon,go,,,,go-1,1,,,,,,
0,0,6,phase_2,red_pentagon,stop,blue,0.0,0-SSD,go-2,4,,,,,,
2,359.0,6,phase_2,purple_pentagon,go,,,,go-1,1,,,,,,
0,0,6,phase_2,purple_circle,stop,blue,0.0,0-SSD,go-1,4,,,,,,
2,388.0,6,phase_2,red_pentagon,stop,green,100.0,tracking-SSD,go-2,3,,,,,,
1,374.0,6,phase_2,purple_circle,go,,,,go-1,2,,,,,,
2,384.0,6,phase_2,purple_circle,go,,,,go-1,1,,,,,,
0,0,6,phase_2,purple_circle,stop,blue,0.0,0-SSD,go-1,4,,,,,,
2,413.0,6,phase_2,red_rhombus,go,,,,go-2,2,,,,,,
0,0,6,phase_2,red_triangle,stop,blue,0.0,0-SSD,go-2,4,,,,,,
0,0,6,phase_2,purple_pentagon,stop,blue,0.0,0-SSD,go-1,4,,,,,,
1,339.0,6,phase_2,red_triangle,go,,,,go-2,1,,,,,,
1,369.0,6,phase_2,red_rhombus,go,,,,go-2,1,,,,,,
0,0,6,phase_2,red_circle,stop,blue,0.0,0-SSD,go-2,4,,,,,,
1,398.0,6,phase_2,red_triangle,stop,green,50.0,tracking-SSD,go-2,3,,,,,,
1,406.0,6,phase_2,red_triangle,go,,,,go-2,1,,,,,,
0,0,6,phase_2,purple_circle,stop,green,0.0,tracking-SSD,go-1,4,,,,,,
1,390.0,6,phase_2,purple_triangle,go,,,,go-1,1,,,,,,
0,0,6,phase_2,red_triangle,stop,blue,0.0,0-SSD,go-2,4,,,,,,
2,419.0,6,phase_2,red_pentagon,go,,,,go-2,1,,,,,,
0,0,6,phase_2,purple_rhombus,stop,blue,0.0,0-SSD,go-1,4,,,,,,
1,346.0,6,phase_2,red_rhombus,go,,,,go-2,1,,,,,,
1,411.0,6,phase_2,red_rhombus,go,,,,go-2,1,,,,,,
1,374.0,6,phase_2,red_rhombus,go,,,,go-2,1,,,,,,
2,395.0,6,phase_2,purple_circle,go,,,,go-1,1,,,,,,
1,371.0,6,phase_2,red_rhombus,go,,,,go-2,1,,,,,,
2,470.0,6,phase_2,red_circle,go,,,,go-2,1,,,,,,
1,389.0,6,phase_2,red_triangle,go,,,,go-2,1,,,,,,
2,420.0,6,phase_2,red_pentagon,go,,,,go-2,1,,,,,,
2,408.0,6,phase_2,red_circle,go,,,,go-2,1,,,,,,
1,371.0,6,phase_2,purple_triangle,stop,green,50.0,tracking-SSD,go-1,3,,,,,,
1,347.0,6,phase_2,red_triangle,stop,green,0.0,tracking-SSD,go-2,3,,,,,,
1,344.0,6,phase_2,purple_triangle,go,,,,go-1,1,,,,,,
1,330.0,6,phase_2,red_triangle,go,,,,go-2,1,,,,,,
1,417.0,6,phase_2,purple_pentagon,stop,green,0.0,tracking-SSD,go-1,3,,,,,,
1,313.0,6,phase_2,red_rhombus,go,,,,go-2,1,,,,,,
1,333.0,6,phase_2,purple_rhombus,go,,,,go-1,1,,,,,,
1,445.0,6,phase_2,purple_rhombus,stop,green,0.0,tracking-SSD,go-1,3,,,,,,
2,531.0,6,phase_2,purple_pentagon,go,,,,go-1,1,,,,,,
2,451.0,6,phase_2,purple_pentagon,go,,,,go-1,1,,,,,,
2,560.0,6,phase_2,purple_circle,go,,,,go-1,1,,,,,,
2,379.0,6,phase_2,purple_circle,go,,,,go-1,1,,,,,,
1,377.0,6,phase_2,purple_rhombus,go,,,,go-1,1,,,,,,
0,0,7,phase_2,purple_circle,stop,green,0.0,tracking-SSD,go-1,4,,,,,,
0,0,7,phase_2,purple_rhombus,stop,green,50.0,tracking-SSD,go-1,4,,,,,,
1,347.0,7,phase_2,red_circle,go,,,,go-2,2,,,,,,
1,368.0,7,phase_2,purple_triangle,go,,,,go-1,1,,,,,,
1,413.0,7,phase_2,red_pentagon,stop,green,100.0,tracking-SSD,go-2,3,,,,,,
1,410.0,7,phase_2,red_rhombus,go,,,,go-2,1,,,,,,
2,408.0,7,phase_2,purple_pentagon,go,,,,go-1,1,,,,,,
2,394.0,7,phase_2,purple_triangle,go,,,,go-1,2,,,,,,
1,527.0,7,phase_2,purple_circle,go,,,,go-1,2,,,,,,
1,333.0,7,phase_2,red_triangle,go,,,,go-2,1,,,,,,
2,353.0,7,phase_2,purple_pentagon,go,,,,go-1,1,,,,,,
1,429.0,7,phase_2,purple_rhombus,go,,,,go-1,1,,,,,,
1,370.0,7,phase_2,purple_triangle,go,,,,go-1,1,,,,,,
2,412.0,7,phase_2,red_circle,go,,,,go-2,1,,,,,,
2,388.0,7,phase_2,purple_triangle,go,,,,go-1,2,,,,,,
2,408.0,7,phase_2,red_circle,stop,blue,0.0,0-SSD,go-2,3,,,,,,
2,428.0,7,phase_2,red_pentagon,go,,,,go-2,1,,,,,,
2,415.0,7,phase_2,red_pentagon,go,,,,go-2,1,,,,,,
1,415.0,7,phase_2,red_circle,go,,,,go-2,2,,,,,,
0,0,7,phase_2,purple_pentagon,stop,green,50.0,tracking-SSD,go-1,4,,,,,,
2,309.0,7,phase_2,red_triangle,go,,,,go-2,2,,,,,,
1,532.0,7,phase_2,red_rhombus,go,,,,go-2,1,,,,,,
2,429.0,7,phase_2,purple_pentagon,go,,,,go-1,1,,,,,,
2,392.0,7,phase_2,red_pentagon,stop,green,100.0,tracking-SSD,go-2,3,,,,,,
0,0,7,phase_2,red_rhombus,stop,green,50.0,tracking-SSD,go-2,4,,,,,,
1,421.0,7,phase_2,red_triangle,go,,,,go-2,1,,,,,,
0,0,7,phase_2,red_circle,stop,green,100.0,tracking-SSD,go-2,4,,,,,,
2,519.0,7,phase_2,red_pentagon,go,,,,go-2,1,,,,,,
2,437.0,7,phase_2,purple_triangle,go,,,,go-1,2,,,,,,
1,311.0,7,phase_2,purple_triangle,stop,green,150.0,tracking-SSD,go-1,3,,,,,,
0,0,7,phase_2,purple_rhombus,stop,blue,0.0,0-SSD,go-1,4,,,,,,
1,352.0,7,phase_2,red_circle,go,,,,go-2,2,,,,,,
1,360.0,7,phase_2,purple_circle,stop,blue,0.0,0-SSD,go-1,3,,,,,,
0,0,7,phase_2,purple_triangle,stop,blue,0.0,0-SSD,go-1,4,,,,,,
0,0,7,phase_2,purple_circle,stop,blue,0.0,0-SSD,go-1,4,,,,,,
0,0,7,phase_2,red_rhombus,stop,blue,0.0,0-SSD,go-2,4,,,,,,
0,0,7,phase_2,red_triangle,stop,blue,0.0,0-SSD,go-2,4,,,,,,
2,449.0,7,phase_2,red_pentagon,go,,,,go-2,1,,,,,,
2,378.0,7,phase_2,red_pentagon,go,,,,go-2,1,,,,,,
1,386.0,7,phase_2,red_circle,go,,,,go-2,2,,,,,,
1,419.0,7,phase_2,purple_rhombus,go,,,,go-1,1,,,,,,
1,382.0,7,phase_2,purple_rhombus,go,,,,go-1,1,,,,,,
2,447.0,7,phase_2,purple_triangle,go,,,,go-1,2,,,,,,
0,0,7,phase_2,red_rhombus,stop,blue,0.0,0-SSD,go-2,4,,,,,,
2,385.0,7,phase_2,purple_circle,go,,,,go-1,1,,,,,,
2,405.0,7,phase_2,red_rhombus,go,,,,go-2,2,,,,,,
1,381.0,7,phase_2,purple_rhombus,go,,,,go-1,1,,,,,,
1,266.0,7,phase_2,purple_pentagon,go,,,,go-1,2,,,,,,
2,398.0,8,phase_2,purple_rhombus,go,,,,go-1,2,,,,,,
1,339.0,8,phase_2,red_rhombus,go,,,,go-2,1,,,,,,
2,427.0,8,phase_2,red_pentagon,go,,,,go-2,1,,,,,,
1,390.0,8,phase_2,purple_rhombus,go,,,,go-1,1,,,,,,
1,389.0,8,phase_2,red_rhombus,go,,,,go-2,1,,,,,,
2,385.0,8,phase_2,red_circle,stop,green,100.0,tracking-SSD,go-2,3,,,,,,
2,428.0,8,phase_2,purple_rhombus,go,,,,go-1,2,,,,,,
0,0,8,phase_2,purple_rhombus,stop,blue,0.0,0-SSD,go-1,4,,,,,,
1,378.0,8,phase_2,purple_circle,go,,,,go-1,2,,,,,,
1,365.0,8,phase_2,red_pentagon,go,,,,go-2,2,,,,,,
2,430.0,8,phase_2,red_pentagon,stop,green,50.0,tracking-SSD,go-2,3,,,,,,
2,371.0,8,phase_2,red_circle,go,,,,go-2,1,,,,,,
2,537.0,8,phase_2,red_pentagon,go,,,,go-2,1,,,,,,
2,388.0,8,phase_2,purple_circle,go,,,,go-1,1,,,,,,
1,397.0,8,phase_2,purple_pentagon,stop,green,0.0,tracking-SSD,go-1,3,,,,,,
1,496.0,8,phase_2,purple_triangle,go,,,,go-1,1,,,,,,
1,392.0,8,phase_2,red_rhombus,stop,green,0.0,tracking-SSD,go-2,3,,,,,,
2,491.0,8,phase_2,purple_pentagon,go,,,,go-1,1,,,,,,
2,465.0,8,phase_2,purple_pentagon,stop,green,0.0,tracking-SSD,go-1,3,,,,,,
0,0,8,phase_2,purple_triangle,stop,blue,0.0,0-SSD,go-1,4,,,,,,
1,416.0,8,phase_2,red_triangle,go,,,,go-2,1,,,,,,
1,446.0,8,phase_2,red_rhombus,go,,,,go-2,1,,,,,,
1,1400.0,8,phase_2,purple_triangle,stop,green,0.0,tracking-SSD,go-1,3,,,,,,
1,464.0,8,phase_2,red_pentagon,stop,blue,0.0,0-SSD,go-2,3,,,,,,
1,507.0,8,phase_2,purple_triangle,stop,blue,0.0,0-SSD,go-1,3,,,,,,
1,494.0,8,phase_2,purple_pentagon,go,,,,go-1,2,,,,,,
1,671.0,8,phase_2,red_triangle,stop,blue,0.0,0-SSD,go-2,3,,,,,,
0,0,8,phase_2,red_circle,stop,blue,0.0,0-SSD,go-2,4,,,,,,
2,361.0,8,phase_2,red_circle,go,,,,go-2,1,,,,,,
2,347.0,8,phase_2,purple_circle,go,,,,go-1,1,,,,,,
1,459.0,8,phase_2,red_rhombus,go,,,,go-2,1,,,,,,
1,433.0,8,phase_2,red_triangle,go,,,,go-2,1,,,,,,
1,374.0,8,phase_2,purple_rhombus,go,,,,go-1,1,,,,,,
2,439.0,8,phase_2,purple_circle,go,,,,go-1,1,,,,,,
1,369.0,8,phase_2,purple_triangle,go,,,,go-1,1,,,,,,
2,344.0,8,phase_2,red_circle,go,,,,go-2,1,,,,,,
2,476.0,8,phase_2,red_circle,stop,green,0.0,tracking-SSD,go-2,3,,,,,,
1,374.0,8,phase_2,purple_triangle,go,,,,go-1,1,,,,,,
2,416.0,8,phase_2,red_pentagon,go,,,,go-2,1,,,,,,
1,381.0,8,phase_2,red_triangle,stop,blue,0.0,0-SSD,go-2,3,,,,,,
1,379.0,8,phase_2,purple_rhombus,go,,,,go-1,1,,,,,,
1,308.0,8,phase_2,red_pentagon,go,,,,go-2,2,,,,,,
0,0,8,phase_2,purple_pentagon,stop,green,0.0,tracking-SSD,go-1,4,,,,,,
2,336.0,8,phase_2,red_rhombus,go,,,,go-2,2,,,,,,
2,503.0,8,phase_2,purple_circle,go,,,,go-1,1,,,,,,
2,501.0,8,phase_2,purple_circle,stop,blue,0.0,0-SSD,go-1,3,,,,,,
1,387.0,8,phase_2,red_triangle,go,,,,go-2,1,,,,,,
1,406.0,8,phase_2,purple_triangle,go,,,,go-1,1,,,,,,
1,464.0,9,phase_2,purple_triangle,stop,blue,0.0,0-SSD,go-1,3,,,,,,
2,452.0,9,phase_2,red_pentagon,go,,,,go-2,1,,,,,,
0,0,9,phase_2,red_triangle,stop,green,50.0,tracking-SSD,go-2,4,,,,,,
1,392.0,9,phase_2,red_circle,go,,,,go-2,2,,,,,,
1,389.0,9,phase_2,purple_rhombus,go,,,,go-1,1,,,,,,
1,465.0,9,phase_2,purple_pentagon,go,,,,go-1,2,,,,,,
0,0,9,phase_2,purple_pentagon,stop,blue,0.0,0-SSD,go-1,4,,,,,,
2,404.0,9,phase_2,red_pentagon,go,,,,go-2,1,,,,,,
1,424.0,9,phase_2,purple_circle,go,,,,go-1,2,,,,,,
1,376.0,9,phase_2,purple_rhombus,go,,,,go-1,1,,,,,,
2,407.0,9,phase_2,red_pentagon,go,,,,go-2,1,,,,,,
2,685.0,9,phase_2,purple_circle,stop,green,100.0,tracking-SSD,go-1,3,,,,,,
2,403.0,9,phase_2,purple_pentagon,stop,green,50.0,tracking-SSD,go-1,3,,,,,,
1,242.0,9,phase_2,purple_pentagon,go,,,,go-1,2,,,,,,
2,476.0,9,phase_2,red_triangle,go,,,,go-2,2,,,,,,
0,0,9,phase_2,purple_rhombus,stop,blue,0.0,0-SSD,go-1,4,,,,,,
2,448.0,9,phase_2,red_rhombus,go,,,,go-2,2,,,,,,
0,0,9,phase_2,purple_pentagon,stop,blue,0.0,0-SSD,go-1,4,,,,,,
1,398.0,9,phase_2,red_rhombus,go,,,,go-2,1,,,,,,
2,475.0,9,phase_2,red_circle,go,,,,go-2,1,,,,,,
2,393.0,9,phase_2,red_pentagon,go,,,,go-2,1,,,,,,
2,369.0,9,phase_2,red_circle,go,,,,go-2,1,,,,,,
2,344.0,9,phase_2,purple_circle,go,,,,go-1,1,,,,,,
1,387.0,9,phase_2,red_triangle,stop,blue,0.0,0-SSD,go-2,3,,,,,,
0,0,9,phase_2,red_pentagon,stop,green,0.0,tracking-SSD,go-2,4,,,,,,
2,416.0,9,phase_2,red_pentagon,go,,,,go-2,1,,,,,,
2,402.0,9,phase_2,red_circle,go,,,,go-2,1,,,,,,
2,377.0,9,phase_2,purple_circle,go,,,,go-1,1,,,,,,
1,397.0,9,phase_2,red_triangle,go,,,,go-2,1,,,,,,
1,394.0,9,phase_2,purple_triangle,stop,green,50.0,tracking-SSD,go-1,3,,,,,,
1,302.0,9,phase_2,purple_rhombus,go,,,,go-1,1,,,,,,
1,446.0,9,phase_2,purple_triangle,go,,,,go-1,1,,,,,,
1,433.0,9,phase_2,red_rhombus,stop,blue,0.0,0-SSD,go-2,3,,,,,,
2,431.0,9,phase_2,red_circle,stop,green,0.0,tracking-SSD,go-2,3,,,,,,
1,518.0,9,phase_2,purple_triangle,go,,,,go-1,1,,,,,,
0,0,9,phase_2,red_circle,stop,blue,0.0,0-SSD,go-2,4,,,,,,
2,447.0,9,phase_2,purple_circle,go,,,,go-1,1,,,,,,
1,467.0,9,phase_2,red_triangle,go,,,,go-2,1,,,,,,
1,431.0,9,phase_2,red_rhombus,go,,,,go-2,1,,,,,,
1,373.0,9,phase_2,purple_triangle,go,,,,go-1,1,,,,,,
2,292.0,9,phase_2,purple_rhombus,go,,,,go-1,2,,,,,,
1,335.0,9,phase_2,purple_triangle,go,,,,go-1,1,,,,,,
2,432.0,9,phase_2,purple_pentagon,go,,,,go-1,1,,,,,,
1,465.0,9,phase_2,red_rhombus,stop,blue,0.0,0-SSD,go-2,3,,,,,,
0,0,9,phase_2,red_triangle,stop,green,0.0,tracking-SSD,go-2,4,,,,,,
1,527.0,9,phase_2,purple_rhombus,go,,,,go-1,1,,,,,,
1,378.0,9,phase_2,purple_rhombus,stop,green,50.0,tracking-SSD,go-1,3,,,,,,
2,431.0,9,phase_2,red_circle,go,,,,go-2,1,,,,,,
1,431.0,10,phase_2,purple_rhombus,stop,green,0.0,tracking-SSD,go-1,3,,,,,,
0,0,10,phase_2,purple_rhombus,stop,blue,0.0,0-SSD,go-1,4,,,,,,
1,369.0,10,phase_2,red_triangle,go,,,,go-2,1,,,,,,
2,367.0,10,phase_2,red_circle,go,,,,go-2,1,,,,,,
1,387.0,10,phase_2,purple_pentagon,go,,,,go-1,2,,,,,,
1,429.0,10,phase_2,red_triangle,stop,green,0.0,tracking-SSD,go-2,3,,,,,,
0,0,10,phase_2,red_triangle,stop,green,0.0,tracking-SSD,go-2,4,,,,,,
1,413.0,10,phase_2,purple_rhombus,go,,,,go-1,1,,,,,,
2,501.0,10,phase_2,red_pentagon,go,,,,go-2,1,,,,,,
1,488.0,10,phase_2,red_triangle,go,,,,go-2,1,,,,,,
0,0,10,phase_2,red_circle,stop,green,50.0,tracking-SSD,go-2,4,,,,,,
2,462.0,10,phase_2,red_pentagon,go,,,,go-2,1,,,,,,
2,460.0,10,phase_2,purple_pentagon,go,,,,go-1,1,,,,,,
1,345.0,10,phase_2,red_triangle,go,,,,go-2,1,,,,,,
2,320.0,10,phase_2,red_circle,stop,green,100.0,tracking-SSD,go-2,3,,,,,,
2,351.0,10,phase_2,red_circle,go,,,,go-2,1,,,,,,
1,404.0,10,phase_2,purple_triangle,stop,green,50.0,tracking-SSD,go-1,3,,,,,,
1,347.0,10,phase_2,red_rhombus,go,,,,go-2,1,,,,,,
2,457.0,10,phase_2,purple_rhombus,go,,,,go-1,2,,,,,,
2,546.0,10,phase_2,purple_circle,go,,,,go-1,1,,,,,,
1,454.0,10,phase_2,purple_triangle,go,,,,go-1,1,,,,,,
2,451.0,10,phase_2,purple_pentagon,go,,,,go-1,1,,,,,,
1,392.0,10,phase_2,red_pentagon,stop,blue,0.0,0-SSD,go-2,3,,,,,,
1,390.0,10,phase_2,purple_pentagon,go,,,,go-1,2,,,,,,
1,467.0,10,phase_2,red_triangle,go,,,,go-2,1,,,,,,
0,0,10,phase_2,purple_triangle,stop,green,0.0,tracking-SSD,go-1,4,,,,,,
1,529.0,10,phase_2,purple_rhombus,go,,,,go-1,1,,,,,,
2,414.0,10,phase_2,purple_pentagon,go,,,,go-1,1,,,,,,
1,434.0,10,phase_2,red_rhombus,go,,,,go-2,1,,,,,,
1,455.0,10,phase_2,red_rhombus,go,,,,go-2,1,,,,,,
0,0,10,phase_2,red_pentagon,stop,blue,0.0,0-SSD,go-2,4,,,,,,
1,393.0,10,phase_2,red_triangle,stop,blue,0.0,0-SSD,go-2,3,,,,,,
2,356.0,10,phase_2,purple_pentagon,stop,blue,0.0,0-SSD,go-1,3,,,,,,
0,0,10,phase_2,purple_rhombus,stop,blue,0.0,0-SSD,go-1,4,,,,,,
0,0,10,phase_2,purple_triangle,stop,green,50.0,tracking-SSD,go-1,4,,,,,,
2,293.0,10,phase_2,purple_circle,go,,,,go-1,1,,,,,,
0,0,10,phase_2,purple_rhombus,stop,blue,0.0,0-SSD,go-1,4,,,,,,
1,355.0,10,phase_2,red_circle,go,,,,go-2,2,,,,,,
2,554.0,10,phase_2,red_pentagon,go,,,,go-2,1,,,,,,
2,428.0,10,phase_2,purple_circle,go,,,,go-1,1,,,,,,
1,527.0,10,phase_2,red_rhombus,go,,,,go-2,1,,,,,,
2,501.0,10,phase_2,purple_circle,go,,,,go-1,1,,,,,,
2,387.0,10,phase_2,red_circle,go,,,,go-2,1,,,,,,
2,362.0,10,phase_2,red_circle,go,,,,go-2,1,,,,,,
1,381.0,10,phase_2,red_pentagon,stop,blue,0.0,0-SSD,go-2,3,,,,,,
2,526.0,10,phase_2,purple_circle,go,,,,go-1,1,,,,,,
1,534.0,10,phase_2,purple_triangle,go,,,,go-1,1,,,,,,
1,441.0,10,phase_2,purple_rhombus,go,,,,go-1,1,,,,,,
1,386.0,11,phase_2,red_rhombus,go,,,,go-2,1,,,,,,
2,384.0,11,phase_2,purple_circle,go,,,,go-1,1,,,,,,
1,381.0,11,phase_2,red_rhombus,go,,,,go-2,1,,,,,,
1,423.0,11,phase_2,purple_circle,stop,blue,0.0,0-SSD,go-1,3,,,,,,
2,366.0,11,phase_2,red_triangle,go,,,,go-2,2,,,,,,
1,375.0,11,phase_2,purple_triangle,go,,,,go-1,1,,,,,,
2,350.0,11,phase_2,red_pentagon,go,,,,go-2,1,,,,,,
2,348.0,11,phase_2,red_pentagon,go,,,,go-2,1,,,,,,
1,379.0,11,phase_2,red_circle,stop,green,100.0,tracking-SSD,go-2,3,,,,,,
2,410.0,11,phase_2,red_triangle,stop,blue,0.0,0-SSD,go-2,3,,,,,,
1,463.0,11,phase_2,red_circle,go,,,,go-2,2,,,,,,
2,517.0,11,phase_2,purple_circle,go,,,,go-1,1,,,,,,
1,447.0,11,phase_2,red_rhombus,stop,blue,0.0,0-SSD,go-2,3,,,,,,
1,421.0,11,phase_2,red_triangle,go,,,,go-2,1,,,,,,
1,455.0,11,phase_2,purple_rhombus,stop,blue,0.0,0-SSD,go-1,3,,,,,,
1,409.0,11,phase_2,purple_rhombus,go,,,,go-1,1,,,,,,
0,0,11,phase_2,red_pentagon,stop,green,50.0,tracking-SSD,go-2,4,,,,,,
2,426.0,11,phase_2,red_pentagon,stop,green,100.0,tracking-SSD,go-2,3,,,,,,
1,413.0,11,phase_2,red_triangle,go,,,,go-2,1,,,,,,
1,433.0,11,phase_2,red_rhombus,go,,,,go-2,1,,,,,,
1,396.0,11,phase_2,red_triangle,go,,,,go-2,1,,,,,,
1,348.0,11,phase_2,purple_triangle,go,,,,go-1,1,,,,,,
1,334.0,11,phase_2,red_triangle,go,,,,go-2,1,,,,,,
2,410.0,11,phase_2,red_circle,stop,green,50.0,tracking-SSD,go-2,3,,,,,,
0,0,11,phase_2,purple_pentagon,stop,green,0.0,tracking-SSD,go-1,4,,,,,,
1,496.0,11,phase_2,purple_rhombus,go,,,,go-1,1,,,,,,
2,414.0,11,phase_2,purple_circle,go,,,,go-1,1,,,,,,
0,0,11,phase_2,purple_pentagon,stop,blue,0.0,0-SSD,go-1,4,,,,,,
1,420.0,11,phase_2,red_rhombus,go,,,,go-2,1,,,,,,
2,305.0,11,phase_2,purple_circle,go,,,,go-1,1,,,,,,
1,382.0,11,phase_2,red_pentagon,stop,blue,0.0,0-SSD,go-2,3,,,,,,
2,414.0,11,phase_2,purple_pentagon,go,,,,go-1,1,,,,,,
1,422.0,11,phase_2,purple_triangle,go,,,,go-1,1,,,,,,
1,408.0,11,phase_2,red_triangle,go,,,,go-2,1,,,,,,
2,394.0,11,phase_2,red_circle,go,,,,go-2,1,,,,,,
1,392.0,11,phase_2,purple_pentagon,go,,,,go-1,2,,,,,,
0,0,11,phase_2,red_rhombus,stop,blue,0.0,0-SSD,go-2,4,,,,,,
2,533.0,11,phase_2,purple_pentagon,stop,green,50.0,tracking-SSD,go-1,3,,,,,,
1,383.0,11,phase_2,purple_triangle,go,,,,go-1,1,,,,,,
2,438.0,11,phase_2,purple_circle,go,,,,go-1,1,,,,,,
1,503.0,11,phase_2,purple_triangle,go,,,,go-1,1,,,,,,
2,467.0,11,phase_2,red_pentagon,go,,,,go-2,1,,,,,,
2,454.0,11,phase_2,red_circle,go,,,,go-2,1,,,,,,
1,373.0,11,phase_2,purple_rhombus,stop,green,0.0,tracking-SSD,go-1,3,,,,,,
1,404.0,11,phase_2,purple_pentagon,go,,,,go-1,2,,,,,,
1,548.0,11,phase_2,purple_rhombus,go,,,,go-1,1,,,,,,
2,432.0,11,phase_2,purple_circle,stop,blue,0.0,0-SSD,go-1,3,,,,,,
0,0,11,phase_2,purple_rhombus,stop,green,0.0,tracking-SSD,go-1,4,,,,,,
2,385.0,12,phase_2,purple_pentagon,go,,,,go-1,1,,,,,,
2,339.0,12,phase_2,red_pentagon,stop,green,50.0,tracking-SSD,go-2,3,,,,,,
2,258.0,12,phase_2,purple_triangle,go,,,,go-1,2,,,,,,
2,504.0,12,phase_2,red_rhombus,go,,,,go-2,2,,,,,,
0,0,12,phase_2,purple_triangle,stop,blue,0.0,0-SSD,go-1,4,,,,,,
1,409.0,12,phase_2,purple_triangle,go,,,,go-1,1,,,,,,
2,473.0,12,phase_2,purple_rhombus,go,,,,go-1,2,,,,,,
1,392.0,12,phase_2,red_rhombus,go,,,,go-2,1,,,,,,
2,479.0,12,phase_2,red_pentagon,stop,green,0.0,tracking-SSD,go-2,3,,,,,,
2,431.0,12,phase_2,red_circle,go,,,,go-2,1,,,,,,
2,429.0,12,phase_2,red_rhombus,go,,,,go-2,2,,,,,,
1,381.0,12,phase_2,red_triangle,go,,,,go-2,1,,,,,,
1,368.0,12,phase_2,red_rhombus,go,,,,go-2,1,,,,,,
1,388.0,12,phase_2,purple_triangle,stop,green,0.0,tracking-SSD,go-1,3,,,,,,
2,362.0,12,phase_2,purple_circle,go,,,,go-1,1,,,,,,
0,0,12,phase_2,red_pentagon,stop,blue,0.0,0-SSD,go-2,4,,,,,,
0,0,12,phase_2,purple_rhombus,go,,,,go-1,2,,,,,,
1,379.0,12,phase_2,purple_triangle,go,,,,go-1,1,,,,,,
0,0,12,phase_2,purple_rhombus,stop,blue,0.0,0-SSD,go-1,4,,,,,,
1,362.0,12,phase_2,purple_pentagon,go,,,,go-1,2,,,,,,
1,247.0,12,phase_2,purple_pentagon,stop,green,0.0,tracking-SSD,go-1,3,,,,,,
1,390.0,12,phase_2,purple_rhombus,go,,,,go-1,1,,,,,,
1,489.0,12,phase_2,red_rhombus,go,,,,go-2,1,,,,,,
1,397.0,12,phase_2,purple_rhombus,go,,,,go-1,1,,,,,,
1,372.0,12,phase_2,red_rhombus,go,,,,go-2,1,,,,,,
2,482.0,12,phase_2,red_pentagon,stop,blue,0.0,0-SSD,go-2,3,,,,,,
0,0,12,phase_2,red_pentagon,stop,blue,0.0,0-SSD,go-2,4,,,,,,
1,420.0,12,phase_2,red_triangle,go,,,,go-2,1,,,,,,
2,383.0,12,phase_2,purple_pentagon,go,,,,go-1,1,,,,,,
2,504.0,12,phase_2,red_circle,go,,,,go-2,1,,,,,,
1,379.0,12,phase_2,red_triangle,go,,,,go-2,1,,,,,,
2,376.0,12,phase_2,purple_circle,go,,,,go-1,1,,,,,,
0,0,12,phase_2,red_circle,stop,green,0.0,tracking-SSD,go-2,4,,,,,,
1,427.0,12,phase_2,red_rhombus,go,,,,go-2,1,,,,,,
2,391.0,12,phase_2,purple_circle,go,,,,go-1,1,,,,,,
0,0,12,phase_2,purple_pentagon,stop,blue,0.0,0-SSD,go-1,4,,,,,,
0,0,12,phase_2,red_circle,stop,blue,0.0,0-SSD,go-2,4,,,,,,
2,338.0,12,phase_2,purple_circle,go,,,,go-1,1,,,,,,
0,0,12,phase_2,purple_circle,stop,blue,0.0,0-SSD,go-1,4,,,,,,
2,356.0,12,phase_2,purple_circle,go,,,,go-1,1,,,,,,
2,386.0,12,phase_2,red_circle,stop,green,50.0,tracking-SSD,go-2,3,,,,,,
1,407.0,12,phase_2,red_pentagon,go,,,,go-2,2,,,,,,
1,382.0,12,phase_2,purple_triangle,stop,green,0.0,tracking-SSD,go-1,3,,,,,,
1,424.0,12,phase_2,red_triangle,go,,,,go-2,1,,,,,,
2,343.0,12,phase_2,purple_circle,go,,,,go-1,1,,,,,,
0,0,12,phase_2,purple_triangle,stop,green,0.0,tracking-SSD,go-1,4,,,,,,
2,405.0,12,phase_2,red_triangle,go,,,,go-2,2,,,,,,
2,458.0,12,phase_2,red_pentagon,go,,,,go-2,1,,,,,,
2,443.0,13,phase_2,red_pentagon,stop,green,50.0,tracking-SSD,go-2,3,,,,,,
2,407.0,13,phase_2,red_pentagon,go,,,,go-2,1,,,,,,
1,405.0,13,phase_2,red_triangle,go,,,,go-2,1,,,,,,
0,0,13,phase_2,red_circle,stop,blue,0.0,0-SSD,go-2,4,,,,,,
2,367.0,13,phase_2,purple_pentagon,go,,,,go-1,1,,,,,,
1,386.0,13,phase_2,purple_circle,stop,green,0.0,tracking-SSD,go-1,3,,,,,,
1,296.0,13,phase_2,purple_triangle,go,,,,go-1,1,,,,,,
2,361.0,13,phase_2,purple_circle,go,,,,go-1,1,,,,,,
0,0,13,phase_2,purple_pentagon,stop,green,0.0,tracking-SSD,go-1,4,,,,,,
0,0,13,phase_2,purple_triangle,stop,blue,0.0,0-SSD,go-1,4,,,,,,
1,523.0,13,phase_2,purple_rhombus,go,,,,go-1,1,,,,,,
2,362.0,13,phase_2,purple_circle,go,,,,go-1,1,,,,,,
2,337.0,13,phase_2,red_circle,go,,,,go-2,1,,,,,,
1,391.0,13,phase_2,red_pentagon,stop,green,50.0,tracking-SSD,go-2,3,,,,,,
2,410.0,13,phase_2,purple_circle,go,,,,go-1,1,,,,,,
1,364.0,13,phase_2,purple_triangle,go,,,,go-1,1,,,,,,
2,396.0,13,phase_2,purple_circle,go,,,,go-1,1,,,,,,
2,483.0,13,phase_2,red_pentagon,go,,,,go-2,1,,,,,,
1,380.0,13,phase_2,red_rhombus,go,,,,go-2,1,,,,,,
1,355.0,13,phase_2,purple_rhombus,go,,,,go-1,1,,,,,,
0,0,13,phase_2,red_rhombus,stop,blue,0.0,0-SSD,go-2,4,,,,,,
1,383.0,13,phase_2,purple_pentagon,stop,blue,0.0,0-SSD,go-1,3,,,,,,
1,414.0,13,phase_2,red_rhombus,go,,,,go-2,1,,,,,,
0,0,13,phase_2,purple_triangle,stop,blue,0.0,0-SSD,go-1,4,,,,,,
0,0,13,phase_2,red_rhombus,stop,blue,0.0,0-SSD,go-2,4,,,,,,
1,351.0,13,phase_2,purple_pentagon,go,,,,go-1,2,,,,,,
0,0,13,phase_2,red_circle,stop,green,0.0,tracking-SSD,go-2,4,,,,,,
1,370.0,13,phase_2,red_pentagon,go,,,,go-2,2,,,,,,
2,513.0,13,phase_2,red_circle,go,,,,go-2,1,,,,,,
2,398.0,13,phase_2,purple_pentagon,go,,,,go-1,1,,,,,,
1,429.0,13,phase_2,purple_triangle,go,,,,go-1,1,,,,,,
1,405.0,13,phase_2,red_triangle,go,,,,go-2,1,,,,,,
1,403.0,13,phase_2,red_rhombus,go,,,,go-2,1,,,,,,
1,522.0,13,phase_2,purple_rhombus,stop,blue,0.0,0-SSD,go-1,3,,,,,,
1,396.0,13,phase_2,red_rhombus,go,,,,go-2,1,,,,,,
1,327.0,13,phase_2,red_rhombus,go,,,,go-2,1,,,,,,
1,437.0,13,phase_2,purple_rhombus,stop,green,50.0,tracking-SSD,go-1,3,,,,,,
1,412.0,13,phase_2,purple_triangle,stop,green,0.0,tracking-SSD,go-1,3,,,,,,
2,476.0,13,phase_2,purple_circle,go,,,,go-1,1,,,,,,
2,373.0,13,phase_2,red_circle,go,,,,go-2,1,,,,,,
0,0,13,phase_2,red_triangle,stop,green,0.0,tracking-SSD,go-2,4,,,,,,
2,492.0,13,phase_2,red_triangle,go,,,,go-2,2,,,,,,
1,467.0,13,phase_2,red_rhombus,go,,,,go-2,1,,,,,,
2,396.0,13,phase_2,purple_circle,go,,,,go-1,1,,,,,,
0,0,13,phase_2,red_triangle,stop,blue,0.0,0-SSD,go-2,4,,,,,,
2,582.0,13,phase_2,purple_pentagon,go,,,,go-1,1,,,,,,
1,535.0,13,phase_2,purple_triangle,go,,,,go-1,1,,,,,,
2,465.0,13,phase_2,red_pentagon,go,,,,go-2,1,,,,,,
2,421.0,14,phase_2,red_rhombus,go,,,,go-2,2,,,,,,
2,474.0,14,phase_2,red_rhombus,go,,,,go-2,2,,,,,,
2,573.0,14,phase_2,red_pentagon,stop,blue,0.0,0-SSD,go-2,3,,,,,,
1,435.0,14,phase_2,red_triangle,go,,,,go-2,1,,,,,,
1,366.0,14,phase_2,purple_triangle,go,,,,go-1,1,,,,,,
0,0,14,phase_2,purple_pentagon,stop,green,50.0,tracking-SSD,go-1,4,,,,,,
1,361.0,14,phase_2,red_triangle,go,,,,go-2,1,,,,,,
1,414.0,14,phase_2,purple_pentagon,go,,,,go-1,2,,,,,,
1,400.0,14,phase_2,red_rhombus,go,,,,go-2,1,,,,,,
2,387.0,14,phase_2,red_circle,stop,green,100.0,tracking-SSD,go-2,3,,,,,,
1,452.0,14,phase_2,red_rhombus,go,,,,go-2,1,,,,,,
1,473.0,14,phase_2,purple_triangle,go,,,,go-1,1,,,,,,
0,0,14,phase_2,purple_circle,stop,blue,0.0,0-SSD,go-1,4,,,,,,
2,422.0,14,phase_2,red_pentagon,go,,,,go-2,1,,,,,,
2,397.0,14,phase_2,red_circle,go,,,,go-2,1,,,,,,
2,394.0,14,phase_2,purple_circle,go,,,,go-1,1,,,,,,
1,369.0,14,phase_2,red_rhombus,go,,,,go-2,1,,,,,,
1,366.0,14,phase_2,purple_triangle,stop,green,50.0,tracking-SSD,go-1,3,,,,,,
2,420.0,14,phase_2,purple_pentagon,go,,,,go-1,1,,,,,,
1,428.0,14,phase_2,purple_rhombus,go,,,,go-1,1,,,,,,
0,0,14,phase_2,purple_circle,stop,green,0.0,tracking-SSD,go-1,4,,,,,,
2,390.0,14,phase_2,purple_pentagon,go,,,,go-1,1,,,,,,
1,545.0,14,phase_2,red_rhombus,go,,,,go-2,1,,,,,,
1,396.0,14,phase_2,purple_pentagon,go,,,,go-1,2,,,,,,
1,405.0,14,phase_2,red_triangle,go,,,,go-2,1,,,,,,
2,324.0,14,phase_2,purple_circle,go,,,,go-1,1,,,,,,
1,401.0,14,phase_2,purple_triangle,go,,,,go-1,1,,,,,,
2,399.0,14,phase_2,purple_circle,go,,,,go-1,1,,,,,,
1,386.0,14,phase_2,purple_rhombus,stop,blue,0.0,0-SSD,go-1,3,,,,,,
1,383.0,14,phase_2,red_rhombus,stop,green,50.0,tracking-SSD,go-2,3,,,,,,
1,370.0,14,phase_2,red_rhombus,stop,blue,0.0,0-SSD,go-2,3,,,,,,
0,0,14,phase_2,red_pentagon,stop,green,0.0,tracking-SSD,go-2,4,,,,,,
0,0,14,phase_2,purple_circle,stop,blue,0.0,0-SSD,go-1,4,,,,,,
0,0,14,phase_2,purple_triangle,stop,green,50.0,tracking-SSD,go-1,4,,,,,,
1,394.0,14,phase_2,purple_circle,go,,,,go-1,2,,,,,,
2,436.0,14,phase_2,purple_pentagon,go,,,,go-1,1,,,,,,
1,355.0,14,phase_2,red_triangle,go,,,,go-2,1,,,,,,
2,352.0,14,phase_2,red_circle,stop,green,100.0,tracking-SSD,go-2,3,,,,,,
1,406.0,14,phase_2,red_rhombus,go,,,,go-2,1,,,,,,
0,0,14,phase_2,purple_triangle,stop,blue,0.0,0-SSD,go-1,4,,,,,,
0,0,14,phase_2,red_circle,stop,blue,0.0,0-SSD,go-2,4,,,,,,
2,478.0,14,phase_2,purple_pentagon,go,,,,go-1,1,,,,,,
2,441.0,14,phase_2,red_circle,go,,,,go-2,1,,,,,,
0,0,14,phase_2,red_triangle,stop,blue,0.0,0-SSD,go-2,4,,,,,,
1,458.0,14,phase_2,purple_triangle,go,,,,go-1,1,,,,,,
2,433.0,14,phase_2,red_pentagon,go,,,,go-2,1,,,,,,
1,399.0,14,phase_2,purple_pentagon,go,,,,go-1,2,,,,,,
2,361.0,14,phase_2,red_rhombus,go,,,,go-2,2,,,,,,
0,0,15,phase_2,red_pentagon,stop,green,50.0,tracking-SSD,go-2,4,,,,,,
1,429.0,15,phase_2,red_triangle,stop,green,100.0,tracking-SSD,go-2,3,,,,,,
0,0,15,phase_2,purple_pentagon,stop,green,50.0,tracking-SSD,go-1,4,,,,,,
1,378.0,15,phase_2,purple_triangle,go,,,,go-1,1,,,,,,
1,387.0,15,phase_2,red_rhombus,go,,,,go-2,1,,,,,,
1,363.0,15,phase_2,red_pentagon,go,,,,go-2,2,,,,,,
0,0,15,phase_2,red_pentagon,stop,blue,0.0,0-SSD,go-2,4,,,,,,
2,436.0,15,phase_2,purple_circle,go,,,,go-1,1,,,,,,
1,411.0,15,phase_2,purple_triangle,go,,,,go-1,1,,,,,,
1,399.0,15,phase_2,purple_rhombus,go,,,,go-1,1,,,,,,
1,385.0,15,phase_2,purple_pentagon,go,,,,go-1,2,,,,,,
2,416.0,15,phase_2,red_circle,stop,green,100.0,tracking-SSD,go-2,3,,,,,,
1,403.0,15,phase_2,red_rhombus,go,,,,go-2,1,,,,,,
2,345.0,15,phase_2,purple_circle,go,,,,go-1,1,,,,,,
2,444.0,15,phase_2,purple_circle,go,,,,go-1,1,,,,,,
1,384.0,15,phase_2,red_triangle,stop,blue,0.0,0-SSD,go-2,3,,,,,,
2,416.0,15,phase_2,red_pentagon,go,,,,go-2,1,,,,,,
2,425.0,15,phase_2,purple_pentagon,go,,,,go-1,1,,,,,,
1,491.0,15,phase_2,purple_triangle,go,,,,go-1,1,,,,,,
2,387.0,15,phase_2,purple_pentagon,stop,green,50.0,tracking-SSD,go-1,3,,,,,,
2,384.0,15,phase_2,purple_circle,go,,,,go-1,1,,,,,,
0,0,15,phase_2,red_triangle,stop,green,0.0,tracking-SSD,go-2,4,,,,,,
0,0,15,phase_2,purple_rhombus,stop,green,50.0,tracking-SSD,go-1,4,,,,,,
1,343.0,15,phase_2,red_triangle,go,,,,go-2,1,,,,,,
0,0,15,phase_2,purple_circle,stop,blue,0.0,0-SSD,go-1,4,,,,,,
0,0,15,phase_2,red_circle,stop,blue,0.0,0-SSD,go-2,4,,,,,,
1,357.0,15,phase_2,purple_rhombus,go,,,,go-1,1,,,,,,
2,332.0,15,phase_2,red_circle,go,,,,go-2,1,,,,,,
0,0,15,phase_2,purple_circle,stop,blue,0.0,0-SSD,go-1,4,,,,,,
1,462.0,15,phase_2,red_triangle,go,,,,go-2,1,,,,,,
2,460.0,15,phase_2,red_rhombus,go,,,,go-2,2,,,,,,
1,402.0,15,phase_2,red_pentagon,go,,,,go-2,2,,,,,,
2,533.0,15,phase_2,red_pentagon,go,,,,go-2,1,,,,,,
1,407.0,15,phase_2,purple_rhombus,go,,,,go-1,1,,,,,,
2,415.0,15,phase_2,purple_circle,go,,,,go-1,1,,,,,,
1,379.0,15,phase_2,red_triangle,go,,,,go-2,1,,,,,,
2,399.0,15,phase_2,red_rhombus,go,,,,go-2,2,,,,,,
0,0,15,phase_2,purple_rhombus,stop,blue,0.0,0-SSD,go-1,4,,,,,,
2,450.0,15,phase_2,red_pentagon,go,,,,go-2,1,,,,,,
2,357.0,15,phase_2,purple_circle,stop,blue,0.0,0-SSD,go-1,3,,,,,,
1,445.0,15,phase_2,purple_triangle,go,,,,go-1,1,,,,,,
1,555.0,15,phase_2,purple_rhombus,go,,,,go-1,1,,,,,,
2,462.0,15,phase_2,red_circle,go,,,,go-2,1,,,,,,
2,538.0,15,phase_2,red_pentagon,go,,,,go-2,1,,,,,,
1,401.0,15,phase_2,purple_triangle,stop,green,100.0,tracking-SSD,go-1,3,,,,,,
1,511.0,15,phase_2,red_rhombus,go,,,,go-2,1,,,,,,
0,0,15,phase_2,red_rhombus,stop,blue,0.0,0-SSD,go-2,4,,,,,,
1,416.0,15,phase_2,purple_triangle,go,,,,go-1,1,,,,,,
1,363.0,16,phase_2,purple_rhombus,go,,,,go-1,1,,,,,,
1,384.0,16,phase_2,red_triangle,go,,,,go-2,1,,,,,,
1,358.0,16,phase_2,red_rhombus,go,,,,go-2,1,,,,,,
1,367.0,16,phase_2,purple_triangle,go,,,,go-1,1,,,,,,
1,342.0,16,phase_2,purple_rhombus,go,,,,go-1,1,,,,,,
2,441.0,16,phase_2,purple_circle,go,,,,go-1,1,,,,,,
2,405.0,16,phase_2,red_rhombus,go,,,,go-2,2,,,,,,
1,390.0,16,phase_2,red_triangle,stop,blue,0.0,0-SSD,go-2,3,,,,,,
0,0,16,phase_2,red_pentagon,stop,green,50.0,tracking-SSD,go-2,4,,,,,,
1,385.0,16,phase_2,purple_pentagon,go,,,,go-1,2,,,,,,
0,0,16,phase_2,purple_rhombus,stop,blue,0.0,0-SSD,go-1,4,,,,,,
2,358.0,16,phase_2,purple_circle,go,,,,go-1,1,,,,,,
1,378.0,16,phase_2,red_triangle,go,,,,go-2,1,,,,,,
1,353.0,16,phase_2,purple_rhombus,stop,green,100.0,tracking-SSD,go-1,3,,,,,,
1,373.0,16,phase_2,red_triangle,stop,blue,0.0,0-SSD,go-2,3,,,,,,
1,337.0,16,phase_2,red_triangle,go,,,,go-2,1,,,,,,
2,402.0,16,phase_2,red_circle,go,,,,go-2,1,,,,,,
2,376.0,16,phase_2,purple_circle,go,,,,go-1,1,,,,,,
0,0,16,phase_2,red_pentagon,stop,blue,0.0,0-SSD,go-2,4,,,,,,
0,0,16,phase_2,purple_rhombus,stop,blue,0.0,0-SSD,go-1,4,,,,,,
1,392.0,16,phase_2,purple_pentagon,go,,,,go-1,2,,,,,,
1,311.0,16,phase_2,red_pentagon,go,,,,go-2,2,,,,,,
2,397.0,16,phase_2,red_pentagon,stop,green,50.0,tracking-SSD,go-2,3,,,,,,
1,428.0,16,phase_2,purple_triangle,go,,,,go-1,1,,,,,,
2,426.0,16,phase_2,red_circle,go,,,,go-2,1,,,,,,
1,435.0,16,phase_2,red_triangle,go,,,,go-2,1,,,,,,
2,444.0,16,phase_2,purple_circle,go,,,,go-1,1,,,,,,
0,0,16,phase_2,red_triangle,stop,green,0.0,tracking-SSD,go-2,4,,,,,,
1,541.0,16,phase_2,red_rhombus,go,,,,go-2,1,,,,,,
1,403.0,16,phase_2,purple_rhombus,go,,,,go-1,1,,,,,,
1,389.0,16,phase_2,red_rhombus,go,,,,go-2,1,,,,,,
2,387.0,16,phase_2,red_circle,go,,,,go-2,1,,,,,,
2,316.0,16,phase_2,purple_circle,stop,green,50.0,tracking-SSD,go-1,3,,,,,,
2,347.0,16,phase_2,purple_circle,go,,,,go-1,1,,,,,,
0,0,16,phase_2,purple_rhombus,stop,green,0.0,tracking-SSD,go-1,4,,,,,,
2,431.0,16,phase_2,purple_pentagon,go,,,,go-1,1,,,,,,
0,0,16,phase_2,red_circle,stop,blue,0.0,0-SSD,go-2,4,,,,,,
1,337.0,16,phase_2,red_circle,go,,,,go-2,2,,,,,,
1,390.0,16,phase_2,red_triangle,go,,,,go-2,1,,,,,,
0,0,16,phase_2,purple_circle,stop,blue,0.0,0-SSD,go-1,4,,,,,,
0,0,16,phase_2,purple_triangle,stop,blue,0.0,0-SSD,go-1,4,,,,,,
2,316.0,16,phase_2,purple_pentagon,go,,,,go-1,1,,,,,,
2,325.0,16,phase_2,purple_pentagon,go,,,,go-1,1,,,,,,
2,344.0,16,phase_2,purple_pentagon,go,,,,go-1,1,,,,,,
2,353.0,16,phase_2,red_pentagon,go,,,,go-2,1,,,,,,
1,497.0,16,phase_2,red_rhombus,go,,,,go-2,1,,,,,,
1,382.0,16,phase_2,red_pentagon,stop,green,50.0,tracking-SSD,go-2,3,,,,,,
1,391.0,16,phase_2,purple_triangle,stop,green,0.0,tracking-SSD,go-1,3,,,,,,
2,420.0,17,phase_2,purple_pentagon,go,,,,go-1,1,,,,,,
2,350.0,17,phase_2,red_pentagon,go,,,,go-2,1,,,,,,
1,416.0,17,phase_2,red_circle,stop,green,0.0,tracking-SSD,go-2,3,,,,,,
2,323.0,17,phase_2,purple_pentagon,stop,green,0.0,tracking-SSD,go-1,3,,,,,,
2,288.0,17,phase_2,red_pentagon,go,,,,go-2,1,,,,,,
1,363.0,17,phase_2,red_circle,go,,,,go-2,2,,,,,,
2,361.0,17,phase_2,purple_pentagon,go,,,,go-1,1,,,,,,
2,337.0,17,phase_2,purple_rhombus,go,,,,go-1,2,,,,,,
2,400.0,17,phase_2,purple_pentagon,go,,,,go-1,1,,,,,,
2,454.0,17,phase_2,red_rhombus,stop,green,0.0,tracking-SSD,go-2,3,,,,,,
2,474.0,17,phase_2,red_circle,go,,,,go-2,1,,,,,,
2,472.0,17,phase_2,purple_circle,go,,,,go-1,1,,,,,,
0,0,17,phase_2,purple_rhombus,stop,blue,0.0,0-SSD,go-1,4,,,,,,
2,500.0,17,phase_2,red_circle,go,,,,go-2,1,,,,,,
2,375.0,17,phase_2,red_circle,stop,blue,0.0,0-SSD,go-2,3,,,,,,
1,394.0,17,phase_2,red_triangle,go,,,,go-2,1,,,,,,
0,0,17,phase_2,red_circle,stop,blue,0.0,0-SSD,go-2,4,,,,,,
1,366.0,17,phase_2,purple_rhombus,go,,,,go-1,1,,,,,,
2,499.0,17,phase_2,red_circle,go,,,,go-2,1,,,,,,
2,429.0,17,phase_2,red_triangle,go,,,,go-2,2,,,,,,
1,381.0,17,phase_2,red_triangle,go,,,,go-2,1,,,,,,
1,334.0,17,phase_2,red_triangle,go,,,,go-2,1,,,,,,
0,0,17,phase_2,red_circle,stop,green,0.0,tracking-SSD,go-2,4,,,,,,
2,272.0,17,phase_2,purple_circle,go,,,,go-1,1,,,,,,
1,506.0,17,phase_2,purple_rhombus,go,,,,go-1,1,,,,,,
1,379.0,17,phase_2,red_pentagon,go,,,,go-2,2,,,,,,
1,399.0,17,phase_2,purple_triangle,go,,,,go-1,1,,,,,,
1,386.0,17,phase_2,red_rhombus,go,,,,go-2,1,,,,,,
1,293.0,17,phase_2,purple_triangle,go,,,,go-1,1,,,,,,
1,370.0,17,phase_2,red_pentagon,go,,,,go-2,2,,,,,,
1,412.0,17,phase_2,purple_triangle,stop,green,50.0,tracking-SSD,go-1,3,,,,,,
1,410.0,17,phase_2,red_rhombus,go,,,,go-2,1,,,,,,
0,0,17,phase_2,purple_rhombus,stop,blue,0.0,0-SSD,go-1,4,,,,,,
0,0,17,phase_2,purple_pentagon,stop,green,0.0,tracking-SSD,go-1,4,,,,,,
0,0,17,phase_2,red_triangle,stop,green,50.0,tracking-SSD,go-2,4,,,,,,
0,0,17,phase_2,red_circle,stop,blue,0.0,0-SSD,go-2,4,,,,,,
0,0,17,phase_2,purple_circle,stop,blue,0.0,0-SSD,go-1,4,,,,,,
1,451.0,17,phase_2,purple_triangle,go,,,,go-1,1,,,,,,
0,0,17,phase_2,red_rhombus,stop,blue,0.0,0-SSD,go-2,4,,,,,,
1,356.0,17,phase_2,red_rhombus,go,,,,go-2,1,,,,,,
1,387.0,17,phase_2,purple_triangle,go,,,,go-1,1,,,,,,
2,373.0,17,phase_2,purple_pentagon,go,,,,go-1,1,,,,,,
0,0,17,phase_2,purple_triangle,stop,blue,0.0,0-SSD,go-1,4,,,,,,
2,425.0,17,phase_2,purple_pentagon,go,,,,go-1,1,,,,,,
1,422.0,17,phase_2,purple_rhombus,stop,green,100.0,tracking-SSD,go-1,3,,,,,,
1,375.0,17,phase_2,purple_rhombus,go,,,,go-1,1,,,,,,
2,428.0,17,phase_2,red_pentagon,go,,,,go-2,1,,,,,,
1,369.0,17,phase_2,purple_triangle,go,,,,go-1,1,,,,,,
,521.0,1,phase_3,,,,,,,,red_square,go-2,red_square,go-2,green_square,tracking-SSD
,662.0,1,phase_3,,,,,,,,blue_square,0-SSD,blue_square,0-SSD,green_square,tracking-SSD
,556.0,1,phase_3,,,,,,,,purple_square,go-1,purple_square,go-1,red_square,go-2
,384.0,1,phase_3,,,,,,,,purple_square,go-1,purple_square,go-1,blue_square,0-SSD
,526.0,1,phase_3,,,,,,,,purple_square,go-1,purple_square,go-1,green_square,tracking-SSD
,432.0,1,phase_3,,,,,,,,blue_square,0-SSD,red_square,go-2,blue_square,0-SSD
,507.0,1,phase_3,,,,,,,,blue_square,0-SSD,blue_square,0-SSD,purple_square,go-1
,580.0,1,phase_3,,,,,,,,blue_square,0-SSD,blue_square,0-SSD,red_square,go-2
,667.0,1,phase_3,,,,,,,,blue_square,0-SSD,green_square,tracking-SSD,blue_square,0-SSD
,405.0,1,phase_3,,,,,,,,red_square,go-2,green_square,tracking-SSD,red_square,go-2
,456.0,1,phase_3,,,,,,,,purple_square,go-1,green_square,tracking-SSD,purple_square,go-1
,462.0,1,phase_3,,,,,,,,purple_square,go-1,red_square,go-2,purple_square,go-1
,454.0,2,phase_3,,,,,,,,red_square,go-2,red_square,go-2,blue_square,0-SSD
,483.0,2,phase_3,,,,,,,,purple_square,go-1,purple_square,go-1,red_square,go-2
,570.0,2,phase_3,,,,,,,,blue_square,0-SSD,purple_square,go-1,blue_square,0-SSD
,431.0,2,phase_3,,,,,,,,green_square,tracking-SSD,blue_square,0-SSD,green_square,tracking-SSD
0,0,2,phase_3,,,,,,,,,,purple_square,go-1,green_square,tracking-SSD
,332.0,2,phase_3,,,,,,,,red_square,go-2,red_square,go-2,green_square,tracking-SSD
,282.0,2,phase_3,,,,,,,,purple_square,go-1,red_square,go-2,purple_square,go-1
,413.0,2,phase_3,,,,,,,,purple_square,go-1,green_square,tracking-SSD,purple_square,go-1
,307.0,2,phase_3,,,,,,,,blue_square,0-SSD,green_square,tracking-SSD,blue_square,0-SSD
,292.0,2,phase_3,,,,,,,,red_square,go-2,blue_square,0-SSD,red_square,go-2
,276.0,2,phase_3,,,,,,,,red_square,go-2,green_square,tracking-SSD,red_square,go-2
,867.0,2,phase_3,,,,,,,,purple_square,go-1,blue_square,0-SSD,purple_square,go-1
,320.0,3,phase_3,,,,,,,,blue_square,0-SSD,purple_square,go-1,blue_square,0-SSD
,303.0,3,phase_3,,,,,,,,red_square,go-2,red_square,go-2,green_square,tracking-SSD
,400.0,3,phase_3,,,,,,,,red_square,go-2,red_square,go-2,blue_square,0-SSD
,398.0,3,phase_3,,,,,,,,purple_square,go-1,purple_square,go-1,green_square,tracking-SSD
,460.0,3,phase_3,,,,,,,,purple_square,go-1,purple_square,go-1,red_square,go-2
,468.0,3,phase_3,,,,,,,,blue_square,0-SSD,blue_square,0-SSD,green_square,tracking-SSD
,351.0,3,phase_3,,,,,,,,purple_square,go-1,green_square,tracking-SSD,purple_square,go-1
,391.0,3,phase_3,,,,,,,,red_square,go-2,green_square,tracking-SSD,red_square,go-2
,353.0,3,phase_3,,,,,,,,purple_square,go-1,red_square,go-2,purple_square,go-1
,360.0,3,phase_3,,,,,,,,red_square,go-2,blue_square,0-SSD,red_square,go-2
,446.0,3,phase_3,,,,,,,,purple_square,go-1,blue_square,0-SSD,purple_square,go-1
,1138.0,3,phase_3,,,,,,,,blue_square,0-SSD,green_square,tracking-SSD,blue_square,0-SSD
,329.0,4,phase_3,,,,,,,,red_square,go-2,red_square,go-2,green_square,tracking-SSD
,268.0,4,phase_3,,,,,,,,red_square,go-2,purple_square,go-1,red_square,go-2
,296.0,4,phase_3,,,,,,,,blue_square,0-SSD,purple_square,go-1,blue_square,0-SSD
,316.0,4,phase_3,,,,,,,,blue_square,0-SSD,blue_square,0-SSD,green_square,tracking-SSD
,198.0,4,phase_3,,,,,,,,green_square,tracking-SSD,purple_square,go-1,green_square,tracking-SSD
,2601.0,4,phase_3,,,,,,,,red_square,go-2,red_square,go-2,blue_square,0-SSD
,437.0,4,phase_3,,,,,,,,blue_square,0-SSD,blue_square,0-SSD,purple_square,go-1
,364.0,4,phase_3,,,,,,,,red_square,go-2,green_square,tracking-SSD,red_square,go-2
,293.0,4,phase_3,,,,,,,,purple_square,go-1,green_square,tracking-SSD,purple_square,go-1
,300.0,4,phase_3,,,,,,,,purple_square,go-1,red_square,go-2,purple_square,go-1
,689.0,4,phase_3,,,,,,,,red_square,go-2,blue_square,0-SSD,red_square,go-2
,1034.0,4,phase_3,,,,,,,,blue_square,0-SSD,green_square,tracking-SSD,blue_square,0-SSD
,408.0,5,phase_3,,,,,,,,blue_square,0-SSD,blue_square,0-SSD,green_square,tracking-SSD
0,0,5,phase_3,,,,,,,,,,red_square,go-2,blue_square,0-SSD
,343.0,5,phase_3,,,,,,,,purple_square,go-1,purple_square,go-1,red_square,go-2
,384.0,5,phase_3,,,,,,,,purple_square,go-1,purple_square,go-1,green_square,tracking-SSD
,1167.0,5,phase_3,,,,,,,,purple_square,go-1,purple_square,go-1,blue_square,0-SSD
,454.0,5,phase_3,,,,,,,,red_square,go-2,red_square,go-2,green_square,tracking-SSD
,383.0,5,phase_3,,,,,,,,red_square,go-2,red_square,go-2,purple_square,go-1
,288.0,5,phase_3,,,,,,,,red_square,go-2,green_square,tracking-SSD,red_square,go-2
,441.0,5,phase_3,,,,,,,,red_square,go-2,blue_square,0-SSD,red_square,go-2
,516.0,5,phase_3,,,,,,,,purple_square,go-1,green_square,tracking-SSD,purple_square,go-1
,353.0,5,phase_3,,,,,,,,blue_square,0-SSD,blue_square,0-SSD,purple_square,go-1
0,0,5,phase_3,,,,,,,,,,green_square,tracking-SSD,blue_square,0-SSD
