response,reaction_time,block,which_phase,stim,stop_signal_trial_type,stop_signal_stimulus,SSD,SSD_type,condition,accuracy,chosen_stim,chosen_cond,stim_left,cond_left,stim_right,cond_right
2,566.0,1,phase_2,purple_pentagon,stop,green,250.0,tracking-SSD,go-2,3,,,,,,
1,474.0,1,phase_2,purple_circle,go,,,,go-2,1,,,,,,
2,506.0,1,phase_2,purple_rhombus,go,,,,go-2,1,,,,,,
1,390.0,1,phase_2,blue_triangle,stop,green,200.0,tracking-SSD,go-1,3,,,,,,
2,524.0,1,phase_2,blue_rhombus,go,,,,go-1,1,,,,,,
0,0,1,phase_2,blue_pentagon,stop,red,0.0,0-SSD,go-1,4,,,,,,
2,587.0,1,phase_2,blue_rhombus,go,,,,go-1,1,,,,,,
0,0,1,phase_2,blue_circle,stop,green,150.0,tracking-SSD,go-1,4,,,,,,
0,0,1,phase_2,purple_rhombus,stop,green,200.0,tracking-SSD,go-2,4,,,,,,
1,413.0,1,phase_2,purple_circle,go,,,,go-2,1,,,,,,
2,546.0,1,phase_2,blue_rhombus,go,,,,go-1,1,,,,,,
2,532.0,1,phase_2,blue_pentagon,go,,,,go-1,1,,,,,,
2,497.0,1,phase_2,purple_rhombus,go,,,,go-2,1,,,,,,
1,472.0,1,phase_2,purple_circle,go,,,,go-2,1,,,,,,
1,470.0,1,phase_2,blue_circle,go,,,,go-1,1,,,,,,
2,479.0,1,phase_2,blue_rhombus,stop,green,250.0,tracking-SSD,go-1,3,,,,,,
1,545.0,1,phase_2,blue_triangle,go,,,,go-1,1,,,,,,
2,520.0,1,phase_2,blue_pentagon,go,,,,go-1,1,,,,,,
0,0,1,phase_2,blue_circle,stop,red,0.0,0-SSD,go-1,4,,,,,,
2,550.0,1,phase_2,purple_pentagon,go,,,,go-2,1,,,,,,
0,0,1,phase_2,blue_triangle,stop,green,200.0,tracking-SSD,go-1,4,,,,,,
0,0,1,phase_2,purple_triangle,stop,red,0.0,0-SSD,go-2,4,,,,,,
2,599.0,1,phase_2,purple_pentagon,go,,,,go-2,1,,,,,,
2,462.0,1,phase_2,blue_rhombus,go,,,,go-1,1,,,,,,
1,427.0,1,phase_2,purple_triangle,go,,,,go-2,1,,,,,,
0,0,1,phase_2,blue_pentagon,stop,red,0.0,0-SSD,go-1,4,,,,,,
1,455.0,1,phase_2,blue_circle,go,,,,go-1,1,,,,,,
2,475.0,1,phase_2,blue_pentagon,go,,,,go-1,1,,,,,,
0,0,1,phase_2,purple_rhombus,stop,green,250.0,tracking-SSD,go-2,4,,,,,,
1,482.0,1,phase_2,purple_triangle,stop,green,300.0,tracking-SSD,go-2,3,,,,,,
2,749.0,1,phase_2,purple_pentagon,go,,,,go-2,1,,,,,,
1,556.0,1,phase_2,blue_triangle,go,,,,go-1,1,,,,,,
0,0,1,phase_2,purple_circle,stop,red,0.0,0-SSD,go-2,4,,,,,,
1,473.0,1,phase_2,blue_circle,go,,,,go-1,1,,,,,,
2,494.0,1,phase_2,blue_pentagon,go,,,,go-1,1,,,,,,
1,469.0,1,phase_2,purple_circle,go,,,,go-2,1,,,,,,
0,0,1,phase_2,purple_circle,stop,red,0.0,0-SSD,go-2,4,,,,,,
2,509.0,1,phase_2,purple_rhombus,go,,,,go-2,1,,,,,,
0,0,1,phase_2,blue_rhombus,stop,red,0.0,0-SSD,go-1,4,,,,,,
0,0,1,phase_2,purple_pentagon,stop,red,0.0,0-SSD,go-2,4,,,,,,
1,493.0,1,phase_2,purple_triangle,go,,,,go-2,1,,,,,,
1,423.0,1,phase_2,purple_triangle,go,,,,go-2,1,,,,,,
1,499.0,1,phase_2,purple_triangle,go,,,,go-2,1,,,,,,
1,407.0,1,phase_2,blue_triangle,go,,,,go-1,1,,,,,,
1,315.0,1,phase_2,purple_triangle,go,,,,go-2,1,,,,,,
2,550.0,1,phase_2,purple_pentagon,go,,,,go-2,1,,,,,,
1,491.0,1,phase_2,blue_circle,go,,,,go-1,1,,,,,,
2,635.0,1,phase_2,blue_rhombus,go,,,,go-1,1,,,,,,
0,0,2,phase_2,blue_circle,stop,red,0.0,0-SSD,go-1,4,,,,,,
2,531.0,2,phase_2,purple_rhombus,go,,,,go-2,1,,,,,,
1,483.0,2,phase_2,purple_circle,go,,,,go-2,1,,,,,,
2,505.0,2,phase_2,purple_pentagon,go,,,,go-2,1,,,,,,
2,481.0,2,phase_2,blue_pentagon,go,,,,go-1,1,,,,,,
0,0,2,phase_2,purple_pentagon,stop,red,0.0,0-SSD,go-2,4,,,,,,
1,407.0,2,phase_2,blue_circle,go,,,,go-1,1,,,,,,
0,0,2,phase_2,blue_triangle,stop,red,0.0,0-SSD,go-1,4,,,,,,
2,515.0,2,phase_2,purple_rhombus,go,,,,go-2,1,,,,,,
2,379.0,2,phase_2,blue_triangle,go,,,,go-1,2,,,,,,
2,534.0,2,phase_2,blue_pentagon,go,,,,go-1,1,,,,,,
2,443.0,2,phase_2,blue_pentagon,stop,green,250.0,tracking-SSD,go-1,3,,,,,,
1,474.0,2,phase_2,blue_circle,go,,,,go-1,1,,,,,,
2,619.0,2,phase_2,blue_pentagon,go,,,,go-1,1,,,,,,
1,494.0,2,phase_2,blue_triangle,go,,,,go-1,1,,,,,,
2,548.0,2,phase_2,purple_rhombus,go,,,,go-2,1,,,,,,
0,0,2,phase_2,blue_circle,stop,red,0.0,0-SSD,go-1,4,,,,,,
1,454.0,2,phase_2,blue_triangle,go,,,,go-1,1,,,,,,
2,507.0,2,phase_2,blue_pentagon,go,,,,go-1,1,,,,,,
0,0,2,phase_2,purple_rhombus,stop,red,0.0,0-SSD,go-2,4,,,,,,
1,481.0,2,phase_2,purple_triangle,go,,,,go-2,1,,,,,,
2,534.0,2,phase_2,purple_pentagon,go,,,,go-2,1,,,,,,
1,521.0,2,phase_2,purple_circle,go,,,,go-2,1,,,,,,
1,395.0,2,phase_2,purple_triangle,go,,,,go-2,1,,,,,,
1,382.0,2,phase_2,blue_pentagon,go,,,,go-1,2,,,,,,
1,571.0,2,phase_2,blue_circle,go,,,,go-1,1,,,,,,
0,0,2,phase_2,blue_triangle,stop,red,0.0,0-SSD,go-1,4,,,,,,
1,678.0,2,phase_2,purple_triangle,go,,,,go-2,1,,,,,,
2,529.0,2,phase_2,purple_rhombus,go,,,,go-2,1,,,,,,
0,0,2,phase_2,purple_circle,stop,red,0.0,0-SSD,go-2,4,,,,,,
2,515.0,2,phase_2,purple_rhombus,go,,,,go-2,1,,,,,,
2,490.0,2,phase_2,blue_pentagon,go,,,,go-1,1,,,,,,
0,0,2,phase_2,blue_triangle,stop,green,200.0,tracking-SSD,go-1,4,,,,,,
0,0,2,phase_2,purple_rhombus,stop,green,250.0,tracking-SSD,go-2,4,,,,,,
0,0,2,phase_2,purple_pentagon,stop,red,0.0,0-SSD,go-2,4,,,,,,
1,548.0,2,phase_2,blue_circle,go,,,,go-1,1,,,,,,
2,580.0,2,phase_2,blue_rhombus,go,,,,go-1,1,,,,,,
1,431.0,2,phase_2,purple_circle,go,,,,go-2,1,,,,,,
1,417.0,2,phase_2,blue_circle,stop,green,300.0,tracking-SSD,go-1,3,,,,,,
0,0,2,phase_2,purple_triangle,stop,green,250.0,tracking-SSD,go-2,4,,,,,,
1,549.0,2,phase_2,purple_triangle,go,,,,go-2,1,,,,,,
1,389.0,2,phase_2,purple_triangle,stop,green,300.0,tracking-SSD,go-2,3,,,,,,
0,0,2,phase_2,purple_rhombus,stop,green,250.0,tracking-SSD,go-2,4,,,,,,
2,676.0,2,phase_2,purple_rhombus,go,,,,go-2,1,,,,,,
0,0,2,phase_2,blue_rhombus,stop,green,300.0,tracking-SSD,go-1,4,,,,,,
2,696.0,2,phase_2,blue_rhombus,go,,,,go-1,1,,,,,,
1,479.0,2,phase_2,purple_circle,go,,,,go-2,1,,,,,,
2,511.0,2,phase_2,blue_pentagon,go,,,,go-1,1,,,,,,
0,0,3,phase_2,purple_pentagon,stop,red,0.0,0-SSD,go-2,4,,,,,,
2,655.0,3,phase_2,purple_rhombus,go,,,,go-2,1,,,,,,
1,686.0,3,phase_2,purple_circle,stop,green,350.0,tracking-SSD,go-2,3,,,,,,
1,481.0,3,phase_2,purple_circle,go,,,,go-2,1,,,,,,
1,367.0,3,phase_2,purple_circle,stop,green,300.0,tracking-SSD,go-2,3,,,,,,
1,566.0,3,phase_2,blue_triangle,go,,,,go-1,1,,,,,,
0,0,3,phase_2,blue_rhombus,stop,green,250.0,tracking-SSD,go-1,4,,,,,,
2,484.0,3,phase_2,blue_pentagon,go,,,,go-1,1,,,,,,
2,436.0,3,phase_2,purple_pentagon,go,,,,go-2,1,,,,,,
1,480.0,3,phase_2,blue_triangle,go,,,,go-1,1,,,,,,
2,488.0,3,phase_2,blue_rhombus,stop,green,300.0,tracking-SSD,go-1,3,,,,,,
1,430.0,3,phase_2,blue_triangle,go,,,,go-1,1,,,,,,
1,428.0,3,phase_2,blue_triangle,go,,,,go-1,1,,,,,,
2,629.0,3,phase_2,blue_rhombus,go,,,,go-1,1,,,,,,
2,458.0,3,phase_2,blue_triangle,stop,green,250.0,tracking-SSD,go-1,3,,,,,,
2,703.0,3,phase_2,purple_rhombus,go,,,,go-2,1,,,,,,
0,0,3,phase_2,blue_rhombus,stop,green,200.0,tracking-SSD,go-1,4,,,,,,
0,0,3,phase_2,blue_rhombus,stop,red,0.0,0-SSD,go-1,4,,,,,,
2,695.0,3,phase_2,blue_pentagon,go,,,,go-1,1,,,,,,
0,0,3,phase_2,blue_triangle,stop,red,0.0,0-SSD,go-1,4,,,,,,
2,556.0,3,phase_2,purple_pentagon,go,,,,go-2,1,,,,,,
0,0,3,phase_2,purple_pentagon,stop,red,0.0,0-SSD,go-2,4,,,,,,
1,561.0,3,phase_2,purple_circle,go,,,,go-2,1,,,,,,
0,0,3,phase_2,blue_pentagon,stop,red,0.0,0-SSD,go-1,4,,,,,,
1,512.0,3,phase_2,purple_triangle,go,,,,go-2,1,,,,,,
0,0,3,phase_2,purple_pentagon,stop,red,0.0,0-SSD,go-2,4,,,,,,
2,664.0,3,phase_2,blue_pentagon,go,,,,go-1,1,,,,,,
1,470.0,3,phase_2,blue_circle,go,,,,go-1,1,,,,,,
1,435.0,3,phase_2,purple_circle,go,,,,go-2,1,,,,,,
1,569.0,3,phase_2,blue_circle,go,,,,go-1,1,,,,,,
2,701.0,3,phase_2,purple_rhombus,go,,,,go-2,1,,,,,,
1,496.0,3,phase_2,purple_triangle,go,,,,go-2,1,,,,,,
2,438.0,3,phase_2,purple_pentagon,go,,,,go-2,1,,,,,,
1,570.0,3,phase_2,purple_triangle,go,,,,go-2,1,,,,,,
2,522.0,3,phase_2,blue_rhombus,go,,,,go-1,1,,,,,,
1,531.0,3,phase_2,blue_triangle,go,,,,go-1,1,,,,,,
0,0,3,phase_2,purple_circle,stop,green,250.0,tracking-SSD,go-2,4,,,,,,
2,549.0,3,phase_2,purple_rhombus,go,,,,go-2,1,,,,,,
0,0,3,phase_2,blue_triangle,stop,red,0.0,0-SSD,go-1,4,,,,,,
2,534.0,3,phase_2,blue_pentagon,go,,,,go-1,1,,,,,,
0,0,3,phase_2,purple_circle,stop,red,0.0,0-SSD,go-2,4,,,,,,
2,507.0,3,phase_2,purple_rhombus,go,,,,go-2,1,,,,,,
1,595.0,3,phase_2,blue_circle,go,,,,go-1,1,,,,,,
2,480.0,3,phase_2,purple_rhombus,stop,green,300.0,tracking-SSD,go-2,3,,,,,,
2,547.0,3,phase_2,blue_pentagon,go,,,,go-1,1,,,,,,
1,590.0,3,phase_2,purple_circle,go,,,,go-2,1,,,,,,
1,476.0,3,phase_2,purple_circle,go,,,,go-2,1,,,,,,
1,554.0,3,phase_2,blue_triangle,go,,,,go-1,1,,,,,,
2,1061.0,4,phase_2,purple_rhombus,go,,,,go-2,1,,,,,,
2,598.0,4,phase_2,blue_pentagon,go,,,,go-1,1,,,,,,
2,429.0,4,phase_2,blue_pentagon,go,,,,go-1,1,,,,,,
2,471.0,4,phase_2,purple_pentagon,go,,,,go-2,1,,,,,,
2,616.0,4,phase_2,blue_rhombus,go,,,,go-1,1,,,,,,
0,0,4,phase_2,purple_rhombus,stop,red,0.0,0-SSD,go-2,4,,,,,,
1,521.0,4,phase_2,blue_circle,go,,,,go-1,1,,,,,,
1,475.0,4,phase_2,purple_triangle,stop,green,250.0,tracking-SSD,go-2,3,,,,,,
2,608.0,4,phase_2,purple_rhombus,go,,,,go-2,1,,,,,,
1,415.0,4,phase_2,blue_circle,go,,,,go-1,1,,,,,,
1,470.0,4,phase_2,blue_triangle,go,,,,go-1,1,,,,,,
2,491.0,4,phase_2,blue_pentagon,go,,,,go-1,1,,,,,,
1,500.0,4,phase_2,purple_circle,go,,,,go-2,1,,,,,,
1,519.0,4,phase_2,blue_circle,go,,,,go-1,1,,,,,,
0,0,4,phase_2,blue_triangle,stop,red,0.0,0-SSD,go-1,4,,,,,,
1,391.0,4,phase_2,blue_circle,stop,green,200.0,tracking-SSD,go-1,3,,,,,,
0,0,4,phase_2,blue_triangle,stop,red,0.0,0-SSD,go-1,4,,,,,,
1,556.0,4,phase_2,purple_circle,go,,,,go-2,1,,,,,,
0,0,4,phase_2,blue_rhombus,stop,green,150.0,tracking-SSD,go-1,4,,,,,,
2,541.0,4,phase_2,purple_rhombus,go,,,,go-2,1,,,,,,
2,403.0,4,phase_2,blue_circle,go,,,,go-1,2,,,,,,
2,536.0,4,phase_2,purple_pentagon,go,,,,go-2,1,,,,,,
1,534.0,4,phase_2,purple_triangle,go,,,,go-2,1,,,,,,
1,431.0,4,phase_2,purple_triangle,go,,,,go-2,1,,,,,,
0,0,4,phase_2,blue_triangle,stop,red,0.0,0-SSD,go-1,4,,,,,,
0,0,4,phase_2,purple_rhombus,stop,red,0.0,0-SSD,go-2,4,,,,,,
1,504.0,4,phase_2,purple_rhombus,go,,,,go-2,2,,,,,,
0,0,4,phase_2,purple_rhombus,stop,red,0.0,0-SSD,go-2,4,,,,,,
2,646.0,4,phase_2,blue_pentagon,go,,,,go-1,1,,,,,,
1,577.0,4,phase_2,purple_rhombus,go,,,,go-2,2,,,,,,
1,530.0,4,phase_2,blue_circle,go,,,,go-1,1,,,,,,
0,0,4,phase_2,purple_triangle,stop,red,0.0,0-SSD,go-2,4,,,,,,
2,594.0,4,phase_2,blue_pentagon,go,,,,go-1,1,,,,,,
1,795.0,4,phase_2,blue_triangle,go,,,,go-1,1,,,,,,
0,0,4,phase_2,blue_circle,stop,red,0.0,0-SSD,go-1,4,,,,,,
2,543.0,4,phase_2,blue_pentagon,go,,,,go-1,1,,,,,,
0,0,4,phase_2,purple_triangle,stop,green,200.0,tracking-SSD,go-2,4,,,,,,
2,583.0,4,phase_2,blue_pentagon,go,,,,go-1,1,,,,,,
1,584.0,4,phase_2,blue_triangle,go,,,,go-1,1,,,,,,
0,0,4,phase_2,blue_circle,stop,green,250.0,tracking-SSD,go-1,4,,,,,,
1,569.0,4,phase_2,blue_circle,stop,green,300.0,tracking-SSD,go-1,3,,,,,,
2,589.0,4,phase_2,purple_pentagon,go,,,,go-2,1,,,,,,
0,0,4,phase_2,purple_circle,stop,green,250.0,tracking-SSD,go-2,4,,,,,,
2,517.0,4,phase_2,purple_rhombus,go,,,,go-2,1,,,,,,
0,0,4,phase_2,purple_triangle,stop,green,300.0,tracking-SSD,go-2,4,,,,,,
2,513.0,4,phase_2,purple_pentagon,go,,,,go-2,1,,,,,,
2,433.0,4,phase_2,purple_pentagon,go,,,,go-2,1,,,,,,
2,509.0,4,phase_2,purple_rhombus,go,,,,go-2,1,,,,,,
1,577.0,5,phase_2,purple_circle,go,,,,go-2,1,,,,,,
1,440.0,5,phase_2,purple_triangle,go,,,,go-2,1,,,,,,
2,472.0,5,phase_2,purple_rhombus,go,,,,go-2,1,,,,,,
2,549.0,5,phase_2,purple_pentagon,go,,,,go-2,1,,,,,,
0,0,5,phase_2,purple_pentagon,stop,red,0.0,0-SSD,go-2,4,,,,,,
2,545.0,5,phase_2,purple_rhombus,go,,,,go-2,1,,,,,,
2,440.0,5,phase_2,purple_rhombus,stop,green,350.0,tracking-SSD,go-2,3,,,,,,
2,573.0,5,phase_2,blue_rhombus,go,,,,go-1,1,,,,,,
1,672.0,5,phase_2,purple_triangle,go,,,,go-2,1,,,,,,
0,0,5,phase_2,blue_circle,stop,green,300.0,tracking-SSD,go-1,4,,,,,,
2,534.0,5,phase_2,purple_pentagon,go,,,,go-2,1,,,,,,
2,633.0,5,phase_2,purple_rhombus,go,,,,go-2,1,,,,,,
1,698.0,5,phase_2,purple_triangle,go,,,,go-2,1,,,,,,
1,470.0,5,phase_2,blue_triangle,go,,,,go-1,1,,,,,,
2,469.0,5,phase_2,blue_pentagon,go,,,,go-1,1,,,,,,
2,478.0,5,phase_2,purple_rhombus,go,,,,go-2,1,,,,,,
2,463.0,5,phase_2,blue_rhombus,go,,,,go-1,1,,,,,,
1,518.0,5,phase_2,purple_circle,stop,green,350.0,tracking-SSD,go-2,3,,,,,,
0,0,5,phase_2,blue_pentagon,stop,red,0.0,0-SSD,go-1,4,,,,,,
1,490.0,5,phase_2,purple_circle,stop,green,300.0,tracking-SSD,go-2,3,,,,,,
1,522.0,5,phase_2,blue_circle,go,,,,go-1,1,,,,,,
0,0,5,phase_2,blue_triangle,stop,red,0.0,0-SSD,go-1,4,,,,,,
0,0,5,phase_2,purple_circle,stop,red,0.0,0-SSD,go-2,4,,,,,,
2,538.0,5,phase_2,blue_rhombus,go,,,,go-1,1,,,,,,
2,502.0,5,phase_2,blue_pentagon,go,,,,go-1,1,,,,,,
1,556.0,5,phase_2,purple_circle,go,,,,go-2,1,,,,,,
0,0,5,phase_2,blue_triangle,stop,green,250.0,tracking-SSD,go-1,4,,,,,,
2,540.0,5,phase_2,purple_rhombus,go,,,,go-2,1,,,,,,
0,0,5,phase_2,blue_triangle,stop,green,300.0,tracking-SSD,go-1,4,,,,,,
1,681.0,5,phase_2,purple_triangle,go,,,,go-2,1,,,,,,
0,0,5,phase_2,blue_triangle,stop,red,0.0,0-SSD,go-1,4,,,,,,
1,498.0,5,phase_2,blue_circle,go,,,,go-1,1,,,,,,
1,508.0,5,phase_2,blue_circle,go,,,,go-1,1,,,,,,
0,0,5,phase_2,purple_triangle,stop,red,0.0,0-SSD,go-2,4,,,,,,
1,492.0,5,phase_2,blue_triangle,go,,,,go-1,1,,,,,,
2,525.0,5,phase_2,blue_pentagon,go,,,,go-1,1,,,,,,
2,601.0,5,phase_2,blue_pentagon,go,,,,go-1,1,,,,,,
2,530.0,5,phase_2,blue_rhombus,go,,,,go-1,1,,,,,,
2,472.0,5,phase_2,purple_pentagon,go,,,,go-2,1,,,,,,
2,470.0,5,phase_2,blue_pentagon,go,,,,go-1,1,,,,,,
2,388.0,5,phase_2,blue_pentagon,go,,,,go-1,1,,,,,,
0,0,5,phase_2,blue_circle,stop,red,0.0,0-SSD,go-1,4,,,,,,
2,542.0,5,phase_2,purple_rhombus,stop,green,350.0,tracking-SSD,go-2,3,,,,,,
0,0,5,phase_2,blue_circle,stop,green,300.0,tracking-SSD,go-1,4,,,,,,
2,547.0,5,phase_2,purple_pentagon,go,,,,go-2,1,,,,,,
2,433.0,5,phase_2,purple_circle,go,,,,go-2,2,,,,,,
0,0,5,phase_2,purple_rhombus,stop,red,0.0,0-SSD,go-2,4,,,,,,
1,462.0,5,phase_2,blue_triangle,go,,,,go-1,1,,,,,,
2,533.0,6,phase_2,purple_rhombus,go,,,,go-2,1,,,,,,
2,497.0,6,phase_2,purple_pentagon,stop,green,350.0,tracking-SSD,go-2,3,,,,,,
1,494.0,6,phase_2,blue_circle,go,,,,go-1,1,,,,,,
2,493.0,6,phase_2,purple_pentagon,go,,,,go-2,1,,,,,,
0,0,6,phase_2,purple_rhombus,stop,red,0.0,0-SSD,go-2,4,,,,,,
0,0,6,phase_2,blue_circle,stop,red,0.0,0-SSD,go-1,4,,,,,,
2,576.0,6,phase_2,blue_pentagon,go,,,,go-1,1,,,,,,
0,0,6,phase_2,blue_rhombus,stop,red,0.0,0-SSD,go-1,4,,,,,,
1,481.0,6,phase_2,purple_rhombus,go,,,,go-2,2,,,,,,
1,435.0,6,phase_2,blue_triangle,go,,,,go-1,1,,,,,,
2,510.0,6,phase_2,purple_pentagon,go,,,,go-2,1,,,,,,
1,587.0,6,phase_2,blue_circle,go,,,,go-1,1,,,,,,
1,584.0,6,phase_2,purple_triangle,go,,,,go-2,1,,,,,,
1,436.0,6,phase_2,blue_triangle,go,,,,go-1,1,,,,,,
1,455.0,6,phase_2,purple_triangle,go,,,,go-2,1,,,,,,
1,453.0,6,phase_2,purple_triangle,go,,,,go-2,1,,,,,,
1,383.0,6,phase_2,purple_triangle,go,,,,go-2,1,,,,,,
2,538.0,6,phase_2,blue_rhombus,go,,,,go-1,1,,,,,,
1,524.0,6,phase_2,blue_circle,stop,green,300.0,tracking-SSD,go-1,3,,,,,,
0,0,6,phase_2,purple_pentagon,stop,green,250.0,tracking-SSD,go-2,4,,,,,,
2,532.0,6,phase_2,blue_rhombus,go,,,,go-1,1,,,,,,
0,0,6,phase_2,purple_circle,stop,green,300.0,tracking-SSD,go-2,4,,,,,,
1,540.0,6,phase_2,blue_triangle,go,,,,go-1,1,,,,,,
1,458.0,6,phase_2,blue_circle,stop,green,350.0,tracking-SSD,go-1,3,,,,,,
1,546.0,6,phase_2,purple_triangle,go,,,,go-2,1,,,,,,
0,0,6,phase_2,purple_rhombus,stop,green,300.0,tracking-SSD,go-2,4,,,,,,
1,564.0,6,phase_2,blue_circle,go,,,,go-1,1,,,,,,
2,540.0,6,phase_2,purple_pentagon,go,,,,go-2,1,,,,,,
0,0,6,phase_2,blue_triangle,stop,red,0.0,0-SSD,go-1,4,,,,,,
2,502.0,6,phase_2,blue_rhombus,go,,,,go-1,1,,,,,,
2,466.0,6,phase_2,purple_triangle,go,,,,go-2,2,,,,,,
0,0,6,phase_2,purple_pentagon,stop,red,0.0,0-SSD,go-2,4,,,,,,
2,754.0,6,phase_2,blue_pentagon,go,,,,go-1,1,,,,,,
1,504.0,6,phase_2,blue_circle,stop,green,350.0,tracking-SSD,go-1,3,,,,,,
2,570.0,6,phase_2,blue_rhombus,go,,,,go-1,1,,,,,,
2,545.0,6,phase_2,blue_rhombus,go,,,,go-1,1,,,,,,
0,0,6,phase_2,purple_pentagon,stop,red,0.0,0-SSD,go-2,4,,,,,,
1,462.0,6,phase_2,blue_circle,go,,,,go-1,1,,,,,,
2,549.0,6,phase_2,blue_pentagon,go,,,,go-1,1,,,,,,
1,502.0,6,phase_2,purple_circle,go,,,,go-2,1,,,,,,
0,0,6,phase_2,purple_pentagon,stop,red,0.0,0-SSD,go-2,4,,,,,,
2,610.0,6,phase_2,purple_rhombus,go,,,,go-2,1,,,,,,
1,529.0,6,phase_2,blue_circle,go,,,,go-1,1,,,,,,
2,571.0,6,phase_2,purple_rhombus,go,,,,go-2,1,,,,,,
2,511.0,6,phase_2,purple_pentagon,go,,,,go-2,1,,,,,,
1,801.0,6,phase_2,blue_triangle,stop,green,300.0,tracking-SSD,go-1,3,,,,,,
0,0,6,phase_2,blue_triangle,stop,red,0.0,0-SSD,go-1,4,,,,,,
1,540.0,6,phase_2,purple_circle,go,,,,go-2,1,,,,,,
0,0,7,phase_2,purple_pentagon,stop,red,0.0,0-SSD,go-2,4,,,,,,
2,665.0,7,phase_2,blue_pentagon,go,,,,go-1,1,,,,,,
1,584.0,7,phase_2,blue_triangle,go,,,,go-1,1,,,,,,
0,0,7,phase_2,purple_circle,stop,red,0.0,0-SSD,go-2,4,,,,,,
0,0,7,phase_2,blue_rhombus,stop,red,0.0,0-SSD,go-1,4,,,,,,
1,578.0,7,phase_2,purple_circle,go,,,,go-2,1,,,,,,
1,429.0,7,phase_2,purple_circle,stop,green,250.0,tracking-SSD,go-2,3,,,,,,
2,483.0,7,phase_2,purple_pentagon,go,,,,go-2,1,,,,,,
2,604.0,7,phase_2,purple_rhombus,go,,,,go-2,1,,,,,,
0,0,7,phase_2,blue_rhombus,stop,green,200.0,tracking-SSD,go-1,4,,,,,,
1,521.0,7,phase_2,purple_triangle,go,,,,go-2,1,,,,,,
0,0,7,phase_2,blue_pentagon,stop,green,250.0,tracking-SSD,go-1,4,,,,,,
0,0,7,phase_2,blue_triangle,stop,red,0.0,0-SSD,go-1,4,,,,,,
1,615.0,7,phase_2,purple_circle,go,,,,go-2,1,,,,,,
2,601.0,7,phase_2,purple_rhombus,go,,,,go-2,1,,,,,,
2,522.0,7,phase_2,blue_pentagon,go,,,,go-1,1,,,,,,
1,609.0,7,phase_2,purple_circle,go,,,,go-2,1,,,,,,
1,438.0,7,phase_2,purple_circle,go,,,,go-2,1,,,,,,
0,0,7,phase_2,blue_rhombus,stop,red,0.0,0-SSD,go-1,4,,,,,,
2,569.0,7,phase_2,blue_rhombus,go,,,,go-1,1,,,,,,
2,500.0,7,phase_2,purple_pentagon,stop,green,300.0,tracking-SSD,go-2,3,,,,,,
0,0,7,phase_2,blue_triangle,stop,green,250.0,tracking-SSD,go-1,4,,,,,,
0,0,7,phase_2,purple_pentagon,stop,green,300.0,tracking-SSD,go-2,4,,,,,,
1,673.0,7,phase_2,purple_triangle,go,,,,go-2,1,,,,,,
1,524.0,7,phase_2,blue_circle,go,,,,go-1,1,,,,,,
1,421.0,7,phase_2,blue_triangle,go,,,,go-1,1,,,,,,
2,452.0,7,phase_2,blue_pentagon,go,,,,go-1,1,,,,,,
2,496.0,7,phase_2,blue_rhombus,go,,,,go-1,1,,,,,,
1,438.0,7,phase_2,purple_triangle,go,,,,go-2,1,,,,,,
1,503.0,7,phase_2,blue_circle,go,,,,go-1,1,,,,,,
2,546.0,7,phase_2,purple_rhombus,go,,,,go-2,1,,,,,,
2,532.0,7,phase_2,purple_circle,go,,,,go-2,2,,,,,,
1,540.0,7,phase_2,blue_circle,go,,,,go-1,1,,,,,,
2,515.0,7,phase_2,blue_pentagon,go,,,,go-1,1,,,,,,
0,0,7,phase_2,purple_rhombus,stop,green,350.0,tracking-SSD,go-2,4,,,,,,
2,444.0,7,phase_2,purple_pentagon,go,,,,go-2,1,,,,,,
1,508.0,7,phase_2,purple_triangle,go,,,,go-2,1,,,,,,
0,0,7,phase_2,purple_circle,stop,red,0.0,0-SSD,go-2,4,,,,,,
1,525.0,7,phase_2,blue_triangle,go,,,,go-1,1,,,,,,
0,0,7,phase_2,blue_triangle,stop,red,0.0,0-SSD,go-1,4,,,,,,
0,0,7,phase_2,purple_rhombus,stop,red,0.0,0-SSD,go-2,4,,,,,,
1,901.0,7,phase_2,blue_rhombus,go,,,,go-1,2,,,,,,
2,549.0,7,phase_2,blue_pentagon,go,,,,go-1,1,,,,,,
2,513.0,7,phase_2,blue_rhombus,stop,green,400.0,tracking-SSD,go-1,3,,,,,,
1,578.0,7,phase_2,purple_circle,go,,,,go-2,1,,,,,,
1,575.0,7,phase_2,blue_triangle,go,,,,go-1,1,,,,,,
2,586.0,7,phase_2,purple_pentagon,go,,,,go-2,1,,,,,,
1,966.0,7,phase_2,blue_triangle,go,,,,go-1,1,,,,,,
0,0,8,phase_2,blue_rhombus,stop,green,350.0,tracking-SSD,go-1,4,,,,,,
1,509.0,8,phase_2,blue_circle,go,,,,go-1,1,,,,,,
2,641.0,8,phase_2,purple_rhombus,go,,,,go-2,1,,,,,,
1,492.0,8,phase_2,purple_circle,stop,green,400.0,tracking-SSD,go-2,3,,,,,,
2,479.0,8,phase_2,blue_pentagon,go,,,,go-1,1,,,,,,
1,443.0,8,phase_2,purple_circle,stop,green,350.0,tracking-SSD,go-2,3,,,,,,
2,552.0,8,phase_2,purple_rhombus,go,,,,go-2,1,,,,,,
1,583.0,8,phase_2,purple_circle,go,,,,go-2,1,,,,,,
1,503.0,8,phase_2,blue_triangle,go,,,,go-1,1,,,,,,
2,411.0,8,phase_2,blue_pentagon,stop,green,300.0,tracking-SSD,go-1,3,,,,,,
0,0,8,phase_2,blue_triangle,stop,red,0.0,0-SSD,go-1,4,,,,,,
1,395.0,8,phase_2,purple_circle,go,,,,go-2,1,,,,,,
0,0,8,phase_2,blue_rhombus,stop,red,0.0,0-SSD,go-1,4,,,,,,
0,0,8,phase_2,purple_circle,stop,red,0.0,0-SSD,go-2,4,,,,,,
2,468.0,8,phase_2,purple_pentagon,go,,,,go-2,1,,,,,,
2,443.0,8,phase_2,purple_pentagon,stop,green,250.0,tracking-SSD,go-2,3,,,,,,
2,406.0,8,phase_2,purple_pentagon,go,,,,go-2,1,,,,,,
2,618.0,8,phase_2,blue_rhombus,go,,,,go-1,1,,,,,,
0,0,8,phase_2,blue_circle,stop,green,200.0,tracking-SSD,go-1,4,,,,,,
0,0,8,phase_2,purple_triangle,stop,red,0.0,0-SSD,go-2,4,,,,,,
2,568.0,8,phase_2,blue_pentagon,go,,,,go-1,1,,,,,,
1,498.0,8,phase_2,purple_triangle,go,,,,go-2,1,,,,,,
1,506.0,8,phase_2,blue_triangle,go,,,,go-1,1,,,,,,
2,572.0,8,phase_2,purple_pentagon,stop,green,250.0,tracking-SSD,go-2,3,,,,,,
2,660.0,8,phase_2,purple_rhombus,go,,,,go-2,1,,,,,,
2,489.0,8,phase_2,blue_rhombus,go,,,,go-1,1,,,,,,
2,521.0,8,phase_2,purple_rhombus,go,,,,go-2,1,,,,,,
0,0,8,phase_2,purple_triangle,stop,red,0.0,0-SSD,go-2,4,,,,,,
0,0,8,phase_2,blue_rhombus,stop,red,0.0,0-SSD,go-1,4,,,,,,
2,526.0,8,phase_2,blue_pentagon,go,,,,go-1,1,,,,,,
1,456.0,8,phase_2,blue_triangle,go,,,,go-1,1,,,,,,
2,554.0,8,phase_2,blue_rhombus,go,,,,go-1,1,,,,,,
0,0,8,phase_2,blue_triangle,stop,green,200.0,tracking-SSD,go-1,4,,,,,,
1,483.0,8,phase_2,purple_circle,go,,,,go-2,1,,,,,,
1,448.0,8,phase_2,purple_triangle,go,,,,go-2,1,,,,,,
2,479.0,8,phase_2,purple_pentagon,go,,,,go-2,1,,,,,,
1,454.0,8,phase_2,purple_circle,go,,,,go-2,1,,,,,,
1,531.0,8,phase_2,purple_triangle,go,,,,go-2,1,,,,,,
1,573.0,8,phase_2,blue_triangle,go,,,,go-1,1,,,,,,
2,469.0,8,phase_2,blue_pentagon,go,,,,go-1,1,,,,,,
1,444.0,8,phase_2,blue_circle,go,,,,go-1,1,,,,,,
2,601.0,8,phase_2,purple_pentagon,go,,,,go-2,1,,,,,,
1,553.0,8,phase_2,blue_triangle,go,,,,go-1,1,,,,,,
0,0,8,phase_2,blue_circle,stop,red,0.0,0-SSD,go-1,4,,,,,,
2,527.0,8,phase_2,purple_pentagon,go,,,,go-2,1,,,,,,
1,513.0,8,phase_2,blue_circle,go,,,,go-1,1,,,,,,
0,0,8,phase_2,purple_rhombus,stop,red,0.0,0-SSD,go-2,4,,,,,,
1,430.0,8,phase_2,blue_rhombus,go,,,,go-1,2,,,,,,
2,477.0,9,phase_2,blue_pentagon,go,,,,go-1,1,,,,,,
1,452.0,9,phase_2,purple_triangle,go,,,,go-2,1,,,,,,
1,405.0,9,phase_2,purple_triangle,go,,,,go-2,1,,,,,,
2,470.0,9,phase_2,purple_pentagon,go,,,,go-2,1,,,,,,
1,411.0,9,phase_2,blue_circle,stop,green,250.0,tracking-SSD,go-1,3,,,,,,
2,431.0,9,phase_2,blue_pentagon,go,,,,go-1,1,,,,,,
0,0,9,phase_2,blue_rhombus,stop,green,200.0,tracking-SSD,go-1,4,,,,,,
2,528.0,9,phase_2,blue_pentagon,go,,,,go-1,1,,,,,,
1,491.0,9,phase_2,blue_circle,go,,,,go-1,1,,,,,,
2,555.0,9,phase_2,blue_rhombus,go,,,,go-1,1,,,,,,
1,530.0,9,phase_2,purple_circle,go,,,,go-2,1,,,,,,
2,517.0,9,phase_2,purple_pentagon,go,,,,go-2,1,,,,,,
2,514.0,9,phase_2,blue_pentagon,go,,,,go-1,1,,,,,,
2,535.0,9,phase_2,blue_rhombus,go,,,,go-1,1,,,,,,
1,555.0,9,phase_2,purple_circle,go,,,,go-2,1,,,,,,
2,452.0,9,phase_2,blue_rhombus,go,,,,go-1,1,,,,,,
1,438.0,9,phase_2,purple_rhombus,stop,green,250.0,tracking-SSD,go-2,3,,,,,,
1,638.0,9,phase_2,purple_rhombus,go,,,,go-2,2,,,,,,
0,0,9,phase_2,purple_triangle,stop,green,200.0,tracking-SSD,go-2,4,,,,,,
1,488.0,9,phase_2,blue_triangle,go,,,,go-1,1,,,,,,
2,498.0,9,phase_2,blue_pentagon,go,,,,go-1,1,,,,,,
2,495.0,9,phase_2,purple_rhombus,go,,,,go-2,1,,,,,,
1,604.0,9,phase_2,blue_circle,go,,,,go-1,1,,,,,,
0,0,9,phase_2,purple_rhombus,stop,red,0.0,0-SSD,go-2,4,,,,,,
1,589.0,9,phase_2,blue_triangle,go,,,,go-1,1,,,,,,
0,0,9,phase_2,purple_circle,stop,red,0.0,0-SSD,go-2,4,,,,,,
1,505.0,9,phase_2,purple_triangle,go,,,,go-2,1,,,,,,
0,0,9,phase_2,blue_pentagon,stop,red,0.0,0-SSD,go-1,4,,,,,,
0,0,9,phase_2,blue_triangle,stop,red,0.0,0-SSD,go-1,4,,,,,,
1,474.0,9,phase_2,blue_circle,stop,green,250.0,tracking-SSD,go-1,3,,,,,,
2,506.0,9,phase_2,purple_pentagon,go,,,,go-2,1,,,,,,
0,0,9,phase_2,blue_circle,stop,red,0.0,0-SSD,go-1,4,,,,,,
1,591.0,9,phase_2,purple_circle,go,,,,go-2,1,,,,,,
1,409.0,9,phase_2,purple_circle,go,,,,go-2,1,,,,,,
1,419.0,9,phase_2,purple_circle,go,,,,go-2,1,,,,,,
1,450.0,9,phase_2,blue_triangle,stop,green,200.0,tracking-SSD,go-1,3,,,,,,
2,606.0,9,phase_2,purple_pentagon,go,,,,go-2,1,,,,,,
0,0,9,phase_2,blue_rhombus,stop,red,0.0,0-SSD,go-1,4,,,,,,
2,568.0,9,phase_2,blue_rhombus,go,,,,go-1,1,,,,,,
0,0,9,phase_2,purple_circle,stop,green,150.0,tracking-SSD,go-2,4,,,,,,
1,508.0,9,phase_2,blue_triangle,go,,,,go-1,1,,,,,,
1,505.0,9,phase_2,blue_triangle,go,,,,go-1,1,,,,,,
2,491.0,9,phase_2,purple_rhombus,go,,,,go-2,1,,,,,,
0,0,9,phase_2,purple_pentagon,stop,red,0.0,0-SSD,go-2,4,,,,,,
2,544.0,9,phase_2,purple_rhombus,go,,,,go-2,1,,,,,,
1,428.0,9,phase_2,blue_triangle,go,,,,go-1,1,,,,,,
2,515.0,9,phase_2,purple_pentagon,stop,green,200.0,tracking-SSD,go-2,3,,,,,,
0,0,9,phase_2,purple_triangle,stop,red,0.0,0-SSD,go-2,4,,,,,,
2,478.0,10,phase_2,blue_pentagon,go,,,,go-1,1,,,,,,
2,452.0,10,phase_2,purple_rhombus,go,,,,go-2,1,,,,,,
2,394.0,10,phase_2,purple_rhombus,go,,,,go-2,1,,,,,,
2,640.0,10,phase_2,blue_pentagon,go,,,,go-1,1,,,,,,
2,379.0,10,phase_2,purple_triangle,go,,,,go-2,2,,,,,,
1,399.0,10,phase_2,blue_circle,go,,,,go-1,1,,,,,,
1,408.0,10,phase_2,blue_triangle,go,,,,go-1,1,,,,,,
0,0,10,phase_2,blue_circle,stop,red,0.0,0-SSD,go-1,4,,,,,,
0,0,10,phase_2,blue_pentagon,stop,green,150.0,tracking-SSD,go-1,4,,,,,,
1,469.0,10,phase_2,purple_circle,go,,,,go-2,1,,,,,,
2,499.0,10,phase_2,purple_pentagon,go,,,,go-2,1,,,,,,
1,406.0,10,phase_2,blue_circle,go,,,,go-1,1,,,,,,
2,437.0,10,phase_2,blue_rhombus,go,,,,go-1,1,,,,,,
0,0,10,phase_2,blue_rhombus,stop,green,200.0,tracking-SSD,go-1,4,,,,,,
2,500.0,10,phase_2,purple_pentagon,stop,green,250.0,tracking-SSD,go-2,3,,,,,,
2,587.0,10,phase_2,purple_pentagon,stop,green,200.0,tracking-SSD,go-2,3,,,,,,
2,518.0,10,phase_2,purple_rhombus,go,,,,go-2,1,,,,,,
2,436.0,10,phase_2,purple_rhombus,go,,,,go-2,1,,,,,,
1,512.0,10,phase_2,purple_circle,go,,,,go-2,1,,,,,,
1,409.0,10,phase_2,purple_triangle,go,,,,go-2,1,,,,,,
0,0,10,phase_2,blue_circle,stop,green,150.0,tracking-SSD,go-1,4,,,,,,
1,370.0,10,phase_2,blue_triangle,go,,,,go-1,1,,,,,,
1,323.0,10,phase_2,blue_triangle,stop,green,200.0,tracking-SSD,go-1,3,,,,,,
1,400.0,10,phase_2,purple_circle,go,,,,go-2,1,,,,,,
1,444.0,10,phase_2,purple_pentagon,stop,green,150.0,tracking-SSD,go-2,3,,,,,,
0,0,10,phase_2,blue_triangle,stop,red,0.0,0-SSD,go-1,4,,,,,,
1,517.0,10,phase_2,purple_circle,go,,,,go-2,1,,,,,,
2,593.0,10,phase_2,blue_rhombus,go,,,,go-1,1,,,,,,
1,524.0,10,phase_2,purple_triangle,go,,,,go-2,1,,,,,,
2,476.0,10,phase_2,purple_rhombus,go,,,,go-2,1,,,,,,
0,0,10,phase_2,purple_rhombus,stop,red,0.0,0-SSD,go-2,4,,,,,,
1,493.0,10,phase_2,purple_triangle,go,,,,go-2,1,,,,,,
0,0,10,phase_2,purple_pentagon,stop,red,0.0,0-SSD,go-2,4,,,,,,
1,488.0,10,phase_2,blue_triangle,go,,,,go-1,1,,,,,,
0,0,10,phase_2,purple_pentagon,stop,green,100.0,tracking-SSD,go-2,4,,,,,,
0,0,10,phase_2,blue_triangle,stop,red,0.0,0-SSD,go-1,4,,,,,,
2,515.0,10,phase_2,blue_pentagon,go,,,,go-1,1,,,,,,
0,0,10,phase_2,blue_rhombus,stop,red,0.0,0-SSD,go-1,4,,,,,,
1,578.0,10,phase_2,blue_triangle,go,,,,go-1,1,,,,,,
1,395.0,10,phase_2,blue_triangle,go,,,,go-1,1,,,,,,
2,528.0,10,phase_2,blue_pentagon,go,,,,go-1,1,,,,,,
1,527.0,10,phase_2,blue_circle,go,,,,go-1,1,,,,,,
0,0,10,phase_2,purple_rhombus,stop,red,0.0,0-SSD,go-2,4,,,,,,
2,545.0,10,phase_2,blue_pentagon,go,,,,go-1,1,,,,,,
1,576.0,10,phase_2,blue_circle,go,,,,go-1,1,,,,,,
1,439.0,10,phase_2,purple_circle,go,,,,go-2,1,,,,,,
0,0,10,phase_2,purple_circle,stop,red,0.0,0-SSD,go-2,4,,,,,,
2,524.0,10,phase_2,purple_rhombus,go,,,,go-2,1,,,,,,
1,477.0,11,phase_2,purple_circle,go,,,,go-2,1,,,,,,
1,374.0,11,phase_2,purple_triangle,go,,,,go-2,1,,,,,,
0,0,11,phase_2,blue_triangle,stop,green,150.0,tracking-SSD,go-1,4,,,,,,
0,0,11,phase_2,purple_rhombus,stop,green,200.0,tracking-SSD,go-2,4,,,,,,
2,490.0,11,phase_2,blue_rhombus,go,,,,go-1,1,,,,,,
2,464.0,11,phase_2,purple_pentagon,go,,,,go-2,1,,,,,,
1,596.0,11,phase_2,blue_triangle,go,,,,go-1,1,,,,,,
1,448.0,11,phase_2,blue_triangle,go,,,,go-1,1,,,,,,
0,0,11,phase_2,blue_triangle,stop,red,0.0,0-SSD,go-1,4,,,,,,
2,502.0,11,phase_2,purple_pentagon,go,,,,go-2,1,,,,,,
1,590.0,11,phase_2,purple_triangle,go,,,,go-2,1,,,,,,
2,363.0,11,phase_2,purple_pentagon,go,,,,go-2,1,,,,,,
1,416.0,11,phase_2,blue_circle,go,,,,go-1,1,,,,,,
2,436.0,11,phase_2,blue_pentagon,go,,,,go-1,1,,,,,,
0,0,11,phase_2,purple_rhombus,stop,red,0.0,0-SSD,go-2,4,,,,,,
2,656.0,11,phase_2,blue_rhombus,go,,,,go-1,1,,,,,,
2,373.0,11,phase_2,blue_pentagon,stop,green,250.0,tracking-SSD,go-1,3,,,,,,
2,381.0,11,phase_2,blue_circle,stop,green,200.0,tracking-SSD,go-1,3,,,,,,
1,581.0,11,phase_2,blue_triangle,go,,,,go-1,1,,,,,,
1,432.0,11,phase_2,purple_triangle,go,,,,go-2,1,,,,,,
1,474.0,11,phase_2,blue_circle,go,,,,go-1,1,,,,,,
2,685.0,11,phase_2,purple_rhombus,go,,,,go-2,1,,,,,,
1,583.0,11,phase_2,purple_circle,go,,,,go-2,1,,,,,,
2,468.0,11,phase_2,purple_pentagon,go,,,,go-2,1,,,,,,
1,521.0,11,phase_2,blue_triangle,go,,,,go-1,1,,,,,,
2,429.0,11,phase_2,blue_pentagon,go,,,,go-1,1,,,,,,
0,0,11,phase_2,blue_triangle,stop,red,0.0,0-SSD,go-1,4,,,,,,
1,494.0,11,phase_2,blue_circle,go,,,,go-1,1,,,,,,
0,0,11,phase_2,purple_circle,stop,red,0.0,0-SSD,go-2,4,,,,,,
0,0,11,phase_2,purple_pentagon,stop,red,0.0,0-SSD,go-2,4,,,,,,
0,0,11,phase_2,purple_circle,stop,green,150.0,tracking-SSD,go-2,4,,,,,,
0,0,11,phase_2,blue_circle,stop,red,0.0,0-SSD,go-1,4,,,,,,
0,0,11,phase_2,blue_triangle,stop,red,0.0,0-SSD,go-1,4,,,,,,
1,378.0,11,phase_2,blue_triangle,go,,,,go-1,1,,,,,,
0,0,11,phase_2,purple_pentagon,stop,green,200.0,tracking-SSD,go-2,4,,,,,,
2,418.0,11,phase_2,purple_pentagon,stop,green,250.0,tracking-SSD,go-2,3,,,,,,
1,516.0,11,phase_2,purple_circle,go,,,,go-2,1,,,,,,
1,401.0,11,phase_2,blue_rhombus,go,,,,go-1,2,,,,,,
2,545.0,11,phase_2,blue_rhombus,stop,green,200.0,tracking-SSD,go-1,3,,,,,,
2,452.0,11,phase_2,blue_rhombus,go,,,,go-1,1,,,,,,
2,418.0,11,phase_2,purple_rhombus,go,,,,go-2,1,,,,,,
2,450.0,11,phase_2,purple_rhombus,go,,,,go-2,1,,,,,,
2,436.0,11,phase_2,blue_rhombus,go,,,,go-1,1,,,,,,
0,0,11,phase_2,purple_pentagon,stop,red,0.0,0-SSD,go-2,4,,,,,,
2,533.0,11,phase_2,blue_rhombus,go,,,,go-1,1,,,,,,
2,709.0,11,phase_2,purple_pentagon,go,,,,go-2,1,,,,,,
2,381.0,11,phase_2,purple_circle,go,,,,go-2,2,,,,,,
1,378.0,11,phase_2,purple_circle,go,,,,go-2,1,,,,,,
2,510.0,12,phase_2,blue_pentagon,go,,,,go-1,1,,,,,,
1,473.0,12,phase_2,blue_circle,go,,,,go-1,1,,,,,,
2,472.0,12,phase_2,purple_rhombus,go,,,,go-2,1,,,,,,
0,0,12,phase_2,purple_circle,stop,green,150.0,tracking-SSD,go-2,4,,,,,,
1,455.0,12,phase_2,blue_triangle,stop,green,200.0,tracking-SSD,go-1,3,,,,,,
0,0,12,phase_2,purple_rhombus,stop,green,150.0,tracking-SSD,go-2,4,,,,,,
2,472.0,12,phase_2,purple_rhombus,go,,,,go-2,1,,,,,,
1,514.0,12,phase_2,purple_circle,go,,,,go-2,1,,,,,,
0,0,12,phase_2,purple_pentagon,stop,red,0.0,0-SSD,go-2,4,,,,,,
2,409.0,12,phase_2,blue_rhombus,go,,,,go-1,1,,,,,,
0,0,12,phase_2,blue_circle,stop,red,0.0,0-SSD,go-1,4,,,,,,
0,0,12,phase_2,blue_triangle,stop,red,0.0,0-SSD,go-1,4,,,,,,
0,0,12,phase_2,blue_triangle,stop,red,0.0,0-SSD,go-1,4,,,,,,
2,499.0,12,phase_2,blue_pentagon,go,,,,go-1,1,,,,,,
1,577.0,12,phase_2,blue_triangle,go,,,,go-1,1,,,,,,
2,450.0,12,phase_2,blue_rhombus,go,,,,go-1,1,,,,,,
1,404.0,12,phase_2,purple_triangle,go,,,,go-2,1,,,,,,
1,401.0,12,phase_2,blue_circle,go,,,,go-1,1,,,,,,
2,544.0,12,phase_2,purple_rhombus,go,,,,go-2,1,,,,,,
0,0,12,phase_2,purple_triangle,stop,red,0.0,0-SSD,go-2,4,,,,,,
1,765.0,12,phase_2,blue_triangle,go,,,,go-1,1,,,,,,
2,504.0,12,phase_2,purple_pentagon,stop,green,200.0,tracking-SSD,go-2,3,,,,,,
2,546.0,12,phase_2,purple_rhombus,go,,,,go-2,1,,,,,,
1,554.0,12,phase_2,purple_triangle,stop,green,150.0,tracking-SSD,go-2,3,,,,,,
1,675.0,12,phase_2,blue_triangle,stop,red,0.0,0-SSD,go-1,3,,,,,,
2,516.0,12,phase_2,purple_rhombus,go,,,,go-2,1,,,,,,
1,446.0,12,phase_2,blue_circle,go,,,,go-1,1,,,,,,
2,467.0,12,phase_2,purple_pentagon,go,,,,go-2,1,,,,,,
1,532.0,12,phase_2,purple_triangle,go,,,,go-2,1,,,,,,
2,452.0,12,phase_2,purple_pentagon,go,,,,go-2,1,,,,,,
1,483.0,12,phase_2,purple_circle,go,,,,go-2,1,,,,,,
0,0,12,phase_2,blue_rhombus,stop,green,100.0,tracking-SSD,go-1,4,,,,,,
2,500.0,12,phase_2,blue_circle,go,,,,go-1,2,,,,,,
1,532.0,12,phase_2,purple_circle,go,,,,go-2,1,,,,,,
2,541.0,12,phase_2,blue_rhombus,go,,,,go-1,1,,,,,,
1,594.0,12,phase_2,blue_triangle,go,,,,go-1,1,,,,,,
0,0,12,phase_2,purple_pentagon,stop,red,0.0,0-SSD,go-2,4,,,,,,
2,566.0,12,phase_2,purple_pentagon,go,,,,go-2,1,,,,,,
2,486.0,12,phase_2,blue_rhombus,go,,,,go-1,1,,,,,,
1,630.0,12,phase_2,blue_triangle,go,,,,go-1,1,,,,,,
2,495.0,12,phase_2,blue_pentagon,go,,,,go-1,1,,,,,,
2,458.0,12,phase_2,purple_pentagon,go,,,,go-2,1,,,,,,
0,0,12,phase_2,blue_circle,stop,green,150.0,tracking-SSD,go-1,4,,,,,,
0,0,12,phase_2,blue_rhombus,stop,green,200.0,tracking-SSD,go-1,4,,,,,,
2,440.0,12,phase_2,blue_pentagon,go,,,,go-1,1,,,,,,
1,585.0,12,phase_2,purple_circle,go,,,,go-2,1,,,,,,
2,773.0,12,phase_2,purple_pentagon,go,,,,go-2,1,,,,,,
0,0,12,phase_2,purple_circle,stop,red,0.0,0-SSD,go-2,4,,,,,,
1,522.0,13,phase_2,blue_circle,go,,,,go-1,1,,,,,,
2,463.0,13,phase_2,purple_pentagon,go,,,,go-2,1,,,,,,
1,394.0,13,phase_2,purple_triangle,go,,,,go-2,1,,,,,,
1,470.0,13,phase_2,purple_triangle,go,,,,go-2,1,,,,,,
2,412.0,13,phase_2,blue_rhombus,stop,red,0.0,0-SSD,go-1,3,,,,,,
2,409.0,13,phase_2,blue_triangle,go,,,,go-1,2,,,,,,
0,0,13,phase_2,blue_pentagon,stop,green,250.0,tracking-SSD,go-1,4,,,,,,
1,393.0,13,phase_2,purple_triangle,go,,,,go-2,1,,,,,,
0,0,13,phase_2,purple_rhombus,stop,red,0.0,0-SSD,go-2,4,,,,,,
1,434.0,13,phase_2,blue_triangle,go,,,,go-1,1,,,,,,
2,554.0,13,phase_2,purple_pentagon,go,,,,go-2,1,,,,,,
2,495.0,13,phase_2,purple_pentagon,go,,,,go-2,1,,,,,,
2,561.0,13,phase_2,purple_rhombus,go,,,,go-2,1,,,,,,
2,401.0,13,phase_2,purple_rhombus,go,,,,go-2,1,,,,,,
0,0,13,phase_2,purple_circle,stop,red,0.0,0-SSD,go-2,4,,,,,,
2,476.0,13,phase_2,blue_rhombus,go,,,,go-1,1,,,,,,
2,428.0,13,phase_2,purple_pentagon,stop,green,300.0,tracking-SSD,go-2,3,,,,,,
1,562.0,13,phase_2,purple_circle,go,,,,go-2,1,,,,,,
0,0,13,phase_2,purple_circle,stop,red,0.0,0-SSD,go-2,4,,,,,,
1,534.0,13,phase_2,purple_circle,go,,,,go-2,1,,,,,,
1,453.0,13,phase_2,blue_circle,stop,green,250.0,tracking-SSD,go-1,3,,,,,,
1,427.0,13,phase_2,purple_triangle,go,,,,go-2,1,,,,,,
0,0,13,phase_2,blue_rhombus,stop,green,200.0,tracking-SSD,go-1,4,,,,,,
1,434.0,13,phase_2,blue_triangle,go,,,,go-1,1,,,,,,
2,499.0,13,phase_2,purple_pentagon,go,,,,go-2,1,,,,,,
0,0,13,phase_2,purple_triangle,stop,red,0.0,0-SSD,go-2,4,,,,,,
1,438.0,13,phase_2,blue_circle,go,,,,go-1,1,,,,,,
1,480.0,13,phase_2,blue_triangle,go,,,,go-1,1,,,,,,
0,0,13,phase_2,purple_rhombus,stop,green,250.0,tracking-SSD,go-2,4,,,,,,
0,0,13,phase_2,blue_circle,stop,red,0.0,0-SSD,go-1,4,,,,,,
1,405.0,13,phase_2,blue_triangle,go,,,,go-1,1,,,,,,
1,472.0,13,phase_2,blue_triangle,go,,,,go-1,1,,,,,,
2,536.0,13,phase_2,purple_pentagon,stop,green,300.0,tracking-SSD,go-2,3,,,,,,
2,478.0,13,phase_2,purple_pentagon,go,,,,go-2,1,,,,,,
2,498.0,13,phase_2,blue_pentagon,go,,,,go-1,1,,,,,,
0,0,13,phase_2,blue_circle,stop,red,0.0,0-SSD,go-1,4,,,,,,
2,437.0,13,phase_2,blue_rhombus,go,,,,go-1,1,,,,,,
2,491.0,13,phase_2,blue_rhombus,go,,,,go-1,1,,,,,,
2,512.0,13,phase_2,blue_rhombus,stop,green,250.0,tracking-SSD,go-1,3,,,,,,
2,454.0,13,phase_2,blue_rhombus,go,,,,go-1,1,,,,,,
2,441.0,13,phase_2,blue_circle,go,,,,go-1,2,,,,,,
1,551.0,13,phase_2,purple_circle,go,,,,go-2,1,,,,,,
0,0,13,phase_2,blue_circle,stop,red,0.0,0-SSD,go-1,4,,,,,,
2,534.0,13,phase_2,blue_rhombus,go,,,,go-1,1,,,,,,
1,520.0,13,phase_2,purple_triangle,go,,,,go-2,1,,,,,,
0,0,13,phase_2,purple_pentagon,stop,green,200.0,tracking-SSD,go-2,4,,,,,,
2,606.0,13,phase_2,purple_pentagon,go,,,,go-2,1,,,,,,
2,525.0,13,phase_2,blue_pentagon,go,,,,go-1,1,,,,,,
2,545.0,14,phase_2,purple_rhombus,go,,,,go-2,1,,,,,,
1,598.0,14,phase_2,purple_circle,go,,,,go-2,1,,,,,,
2,438.0,14,phase_2,blue_pentagon,stop,green,250.0,tracking-SSD,go-1,3,,,,,,
1,368.0,14,phase_2,blue_rhombus,go,,,,go-1,2,,,,,,
2,501.0,14,phase_2,blue_rhombus,go,,,,go-1,1,,,,,,
1,476.0,14,phase_2,purple_triangle,go,,,,go-2,1,,,,,,
1,518.0,14,phase_2,purple_circle,go,,,,go-2,1,,,,,,
1,459.0,14,phase_2,purple_triangle,go,,,,go-2,1,,,,,,
0,0,14,phase_2,purple_pentagon,stop,red,0.0,0-SSD,go-2,4,,,,,,
1,522.0,14,phase_2,blue_triangle,go,,,,go-1,1,,,,,,
2,508.0,14,phase_2,blue_pentagon,go,,,,go-1,1,,,,,,
0,0,14,phase_2,purple_pentagon,stop,red,0.0,0-SSD,go-2,4,,,,,,
2,581.0,14,phase_2,purple_rhombus,go,,,,go-2,1,,,,,,
2,522.0,14,phase_2,blue_rhombus,go,,,,go-1,1,,,,,,
1,510.0,14,phase_2,purple_triangle,go,,,,go-2,1,,,,,,
0,0,14,phase_2,blue_circle,stop,red,0.0,0-SSD,go-1,4,,,,,,
1,494.0,14,phase_2,blue_triangle,go,,,,go-1,1,,,,,,
1,482.0,14,phase_2,purple_triangle,go,,,,go-2,1,,,,,,
0,0,14,phase_2,blue_rhombus,stop,green,200.0,tracking-SSD,go-1,4,,,,,,
1,387.0,14,phase_2,purple_rhombus,go,,,,go-2,2,,,,,,
2,531.0,14,phase_2,blue_pentagon,go,,,,go-1,1,,,,,,
2,450.0,14,phase_2,purple_pentagon,go,,,,go-2,1,,,,,,
0,0,14,phase_2,purple_triangle,stop,green,250.0,tracking-SSD,go-2,4,,,,,,
1,489.0,14,phase_2,blue_triangle,go,,,,go-1,1,,,,,,
1,464.0,14,phase_2,purple_triangle,go,,,,go-2,1,,,,,,
1,427.0,14,phase_2,blue_triangle,go,,,,go-1,1,,,,,,
2,549.0,14,phase_2,purple_rhombus,go,,,,go-2,1,,,,,,
1,525.0,14,phase_2,purple_triangle,go,,,,go-2,1,,,,,,
2,511.0,14,phase_2,purple_rhombus,go,,,,go-2,1,,,,,,
2,474.0,14,phase_2,blue_rhombus,go,,,,go-1,1,,,,,,
2,620.0,14,phase_2,purple_pentagon,stop,green,300.0,tracking-SSD,go-2,3,,,,,,
1,550.0,14,phase_2,blue_circle,go,,,,go-1,1,,,,,,
0,0,14,phase_2,purple_circle,stop,red,0.0,0-SSD,go-2,4,,,,,,
0,0,14,phase_2,blue_pentagon,stop,red,0.0,0-SSD,go-1,4,,,,,,
0,0,14,phase_2,blue_circle,stop,green,250.0,tracking-SSD,go-1,4,,,,,,
2,462.0,14,phase_2,purple_rhombus,go,,,,go-2,1,,,,,,
0,0,14,phase_2,purple_circle,stop,green,300.0,tracking-SSD,go-2,4,,,,,,
0,0,14,phase_2,blue_pentagon,stop,red,0.0,0-SSD,go-1,4,,,,,,
0,0,14,phase_2,purple_pentagon,stop,red,0.0,0-SSD,go-2,4,,,,,,
1,530.0,14,phase_2,blue_triangle,go,,,,go-1,1,,,,,,
1,652.0,14,phase_2,blue_circle,stop,green,350.0,tracking-SSD,go-1,3,,,,,,
1,491.0,14,phase_2,blue_circle,go,,,,go-1,1,,,,,,
0,0,14,phase_2,blue_pentagon,stop,red,0.0,0-SSD,go-1,4,,,,,,
2,532.0,14,phase_2,purple_rhombus,go,,,,go-2,1,,,,,,
2,777.0,14,phase_2,blue_pentagon,go,,,,go-1,1,,,,,,
1,819.0,14,phase_2,blue_circle,go,,,,go-1,1,,,,,,
1,580.0,14,phase_2,purple_circle,stop,green,300.0,tracking-SSD,go-2,3,,,,,,
1,487.0,14,phase_2,blue_circle,go,,,,go-1,1,,,,,,
1,454.0,15,phase_2,purple_circle,go,,,,go-2,1,,,,,,
2,429.0,15,phase_2,blue_pentagon,stop,green,250.0,tracking-SSD,go-1,3,,,,,,
0,0,15,phase_2,purple_pentagon,stop,red,0.0,0-SSD,go-2,4,,,,,,
0,0,15,phase_2,blue_rhombus,stop,red,0.0,0-SSD,go-1,4,,,,,,
2,556.0,15,phase_2,purple_pentagon,go,,,,go-2,1,,,,,,
1,451.0,15,phase_2,blue_triangle,go,,,,go-1,1,,,,,,
1,505.0,15,phase_2,blue_circle,go,,,,go-1,1,,,,,,
1,424.0,15,phase_2,blue_circle,go,,,,go-1,1,,,,,,
1,399.0,15,phase_2,blue_triangle,stop,green,200.0,tracking-SSD,go-1,3,,,,,,
0,0,15,phase_2,purple_triangle,stop,green,150.0,tracking-SSD,go-2,4,,,,,,
1,542.0,15,phase_2,purple_circle,go,,,,go-2,1,,,,,,
0,0,15,phase_2,purple_rhombus,stop,red,0.0,0-SSD,go-2,4,,,,,,
2,570.0,15,phase_2,purple_rhombus,go,,,,go-2,1,,,,,,
0,0,15,phase_2,purple_circle,stop,green,200.0,tracking-SSD,go-2,4,,,,,,
1,464.0,15,phase_2,purple_triangle,go,,,,go-2,1,,,,,,
1,461.0,15,phase_2,purple_rhombus,go,,,,go-2,2,,,,,,
2,459.0,15,phase_2,blue_pentagon,stop,green,250.0,tracking-SSD,go-1,3,,,,,,
2,445.0,15,phase_2,blue_pentagon,go,,,,go-1,1,,,,,,
0,0,15,phase_2,blue_triangle,stop,red,0.0,0-SSD,go-1,4,,,,,,
1,519.0,15,phase_2,blue_circle,go,,,,go-1,1,,,,,,
2,530.0,15,phase_2,blue_rhombus,go,,,,go-1,1,,,,,,
1,471.0,15,phase_2,blue_triangle,go,,,,go-1,1,,,,,,
0,0,15,phase_2,blue_pentagon,stop,red,0.0,0-SSD,go-1,4,,,,,,
0,0,15,phase_2,purple_pentagon,stop,red,0.0,0-SSD,go-2,4,,,,,,
1,499.0,15,phase_2,purple_triangle,go,,,,go-2,1,,,,,,
0,0,15,phase_2,purple_rhombus,stop,green,200.0,tracking-SSD,go-2,4,,,,,,
1,629.0,15,phase_2,purple_triangle,go,,,,go-2,1,,,,,,
2,671.0,15,phase_2,blue_rhombus,go,,,,go-1,1,,,,,,
2,556.0,15,phase_2,blue_pentagon,go,,,,go-1,1,,,,,,
1,587.0,15,phase_2,blue_circle,go,,,,go-1,1,,,,,,
0,0,15,phase_2,blue_triangle,stop,red,0.0,0-SSD,go-1,4,,,,,,
2,515.0,15,phase_2,blue_rhombus,go,,,,go-1,1,,,,,,
2,568.0,15,phase_2,purple_rhombus,go,,,,go-2,1,,,,,,
1,576.0,15,phase_2,purple_circle,go,,,,go-2,1,,,,,,
2,686.0,15,phase_2,purple_pentagon,go,,,,go-2,1,,,,,,
1,830.0,15,phase_2,purple_triangle,go,,,,go-2,1,,,,,,
2,467.0,15,phase_2,purple_pentagon,stop,green,250.0,tracking-SSD,go-2,3,,,,,,
1,375.0,15,phase_2,blue_triangle,go,,,,go-1,1,,,,,,
2,429.0,15,phase_2,purple_rhombus,go,,,,go-2,1,,,,,,
2,471.0,15,phase_2,blue_rhombus,go,,,,go-1,1,,,,,,
1,502.0,15,phase_2,purple_triangle,go,,,,go-2,1,,,,,,
1,533.0,15,phase_2,blue_circle,go,,,,go-1,1,,,,,,
0,0,15,phase_2,purple_circle,stop,red,0.0,0-SSD,go-2,4,,,,,,
2,471.0,15,phase_2,purple_pentagon,go,,,,go-2,1,,,,,,
1,447.0,15,phase_2,blue_circle,stop,green,200.0,tracking-SSD,go-1,3,,,,,,
2,489.0,15,phase_2,blue_pentagon,go,,,,go-1,1,,,,,,
2,442.0,15,phase_2,blue_rhombus,go,,,,go-1,1,,,,,,
1,528.0,15,phase_2,purple_circle,go,,,,go-2,1,,,,,,
2,455.0,16,phase_2,blue_triangle,stop,red,0.0,0-SSD,go-1,3,,,,,,
1,610.0,16,phase_2,blue_triangle,go,,,,go-1,1,,,,,,
1,517.0,16,phase_2,blue_circle,go,,,,go-1,1,,,,,,
1,413.0,16,phase_2,purple_circle,go,,,,go-2,1,,,,,,
2,501.0,16,phase_2,blue_pentagon,go,,,,go-1,1,,,,,,
2,577.0,16,phase_2,purple_pentagon,go,,,,go-2,1,,,,,,
0,0,16,phase_2,purple_triangle,stop,red,0.0,0-SSD,go-2,4,,,,,,
0,0,16,phase_2,purple_circle,stop,green,150.0,tracking-SSD,go-2,4,,,,,,
2,469.0,16,phase_2,purple_pentagon,go,,,,go-2,1,,,,,,
2,477.0,16,phase_2,purple_pentagon,go,,,,go-2,1,,,,,,
0,0,16,phase_2,blue_rhombus,stop,red,0.0,0-SSD,go-1,4,,,,,,
0,0,16,phase_2,purple_rhombus,stop,green,200.0,tracking-SSD,go-2,4,,,,,,
1,550.0,16,phase_2,blue_circle,go,,,,go-1,1,,,,,,
1,559.0,16,phase_2,blue_triangle,go,,,,go-1,1,,,,,,
2,456.0,16,phase_2,purple_rhombus,go,,,,go-2,1,,,,,,
0,0,16,phase_2,purple_pentagon,stop,green,250.0,tracking-SSD,go-2,4,,,,,,
2,531.0,16,phase_2,blue_pentagon,stop,green,300.0,tracking-SSD,go-1,3,,,,,,
2,632.0,16,phase_2,blue_rhombus,go,,,,go-1,1,,,,,,
1,527.0,16,phase_2,blue_triangle,go,,,,go-1,1,,,,,,
1,492.0,16,phase_2,purple_triangle,go,,,,go-2,1,,,,,,
2,478.0,16,phase_2,blue_rhombus,go,,,,go-1,1,,,,,,
1,520.0,16,phase_2,blue_circle,go,,,,go-1,1,,,,,,
2,495.0,16,phase_2,blue_rhombus,stop,green,250.0,tracking-SSD,go-1,3,,,,,,
1,514.0,16,phase_2,purple_triangle,go,,,,go-2,1,,,,,,
1,490.0,16,phase_2,blue_triangle,go,,,,go-1,1,,,,,,
2,512.0,16,phase_2,blue_rhombus,go,,,,go-1,1,,,,,,
2,442.0,16,phase_2,blue_pentagon,go,,,,go-1,1,,,,,,
1,620.0,16,phase_2,purple_triangle,stop,red,0.0,0-SSD,go-2,3,,,,,,
1,595.0,16,phase_2,purple_circle,go,,,,go-2,1,,,,,,
2,571.0,16,phase_2,purple_pentagon,go,,,,go-2,1,,,,,,
1,682.0,16,phase_2,purple_triangle,go,,,,go-2,1,,,,,,
0,0,16,phase_2,blue_pentagon,stop,red,0.0,0-SSD,go-1,4,,,,,,
1,497.0,16,phase_2,blue_circle,go,,,,go-1,1,,,,,,
2,619.0,16,phase_2,purple_rhombus,go,,,,go-2,1,,,,,,
2,560.0,16,phase_2,blue_pentagon,go,,,,go-1,1,,,,,,
2,547.0,16,phase_2,blue_triangle,go,,,,go-1,2,,,,,,
2,544.0,16,phase_2,purple_rhombus,go,,,,go-2,1,,,,,,
1,621.0,16,phase_2,purple_circle,go,,,,go-2,1,,,,,,
0,0,16,phase_2,purple_circle,stop,red,0.0,0-SSD,go-2,4,,,,,,
0,0,16,phase_2,blue_triangle,stop,green,200.0,tracking-SSD,go-1,4,,,,,,
0,0,16,phase_2,blue_pentagon,stop,green,250.0,tracking-SSD,go-1,4,,,,,,
0,0,16,phase_2,blue_pentagon,stop,red,0.0,0-SSD,go-1,4,,,,,,
1,499.0,16,phase_2,blue_circle,go,,,,go-1,1,,,,,,
2,811.0,16,phase_2,purple_rhombus,go,,,,go-2,1,,,,,,
0,0,16,phase_2,purple_circle,stop,green,300.0,tracking-SSD,go-2,4,,,,,,
0,0,16,phase_2,purple_circle,stop,red,0.0,0-SSD,go-2,4,,,,,,
2,512.0,16,phase_2,purple_rhombus,go,,,,go-2,1,,,,,,
2,521.0,16,phase_2,purple_rhombus,go,,,,go-2,1,,,,,,
0,0,17,phase_2,blue_pentagon,stop,red,0.0,0-SSD,go-1,4,,,,,,
0,0,17,phase_2,purple_pentagon,stop,red,0.0,0-SSD,go-2,4,,,,,,
1,518.0,17,phase_2,purple_circle,go,,,,go-2,1,,,,,,
2,503.0,17,phase_2,purple_pentagon,stop,green,350.0,tracking-SSD,go-2,3,,,,,,
2,455.0,17,phase_2,blue_pentagon,go,,,,go-1,1,,,,,,
1,509.0,17,phase_2,blue_triangle,go,,,,go-1,1,,,,,,
1,474.0,17,phase_2,purple_triangle,go,,,,go-2,1,,,,,,
2,518.0,17,phase_2,purple_rhombus,stop,green,300.0,tracking-SSD,go-2,3,,,,,,
0,0,17,phase_2,purple_circle,stop,red,0.0,0-SSD,go-2,4,,,,,,
2,512.0,17,phase_2,purple_pentagon,go,,,,go-2,1,,,,,,
2,442.0,17,phase_2,purple_rhombus,go,,,,go-2,1,,,,,,
1,439.0,17,phase_2,blue_triangle,go,,,,go-1,1,,,,,,
2,438.0,17,phase_2,purple_rhombus,go,,,,go-2,1,,,,,,
1,648.0,17,phase_2,blue_circle,stop,green,250.0,tracking-SSD,go-1,3,,,,,,
2,398.0,17,phase_2,purple_rhombus,go,,,,go-2,1,,,,,,
2,520.0,17,phase_2,blue_rhombus,go,,,,go-1,1,,,,,,
1,440.0,17,phase_2,purple_circle,go,,,,go-2,1,,,,,,
1,439.0,17,phase_2,blue_circle,go,,,,go-1,1,,,,,,
2,661.0,17,phase_2,purple_rhombus,go,,,,go-2,1,,,,,,
0,0,17,phase_2,purple_triangle,stop,red,0.0,0-SSD,go-2,4,,,,,,
1,578.0,17,phase_2,purple_circle,go,,,,go-2,1,,,,,,
1,554.0,17,phase_2,purple_triangle,go,,,,go-2,1,,,,,,
0,0,17,phase_2,blue_triangle,stop,red,0.0,0-SSD,go-1,4,,,,,,
0,0,17,phase_2,blue_pentagon,stop,red,0.0,0-SSD,go-1,4,,,,,,
2,571.0,17,phase_2,blue_pentagon,go,,,,go-1,1,,,,,,
0,0,17,phase_2,blue_triangle,stop,red,0.0,0-SSD,go-1,4,,,,,,
0,0,17,phase_2,blue_pentagon,stop,green,200.0,tracking-SSD,go-1,4,,,,,,
0,0,17,phase_2,purple_rhombus,stop,green,250.0,tracking-SSD,go-2,4,,,,,,
0,0,17,phase_2,purple_circle,stop,red,0.0,0-SSD,go-2,4,,,,,,
1,606.0,17,phase_2,purple_circle,go,,,,go-2,1,,,,,,
1,636.0,17,phase_2,purple_triangle,go,,,,go-2,1,,,,,,
1,611.0,17,phase_2,blue_triangle,go,,,,go-1,1,,,,,,
2,542.0,17,phase_2,blue_rhombus,go,,,,go-1,1,,,,,,
2,439.0,17,phase_2,blue_pentagon,go,,,,go-1,1,,,,,,
1,528.0,17,phase_2,blue_circle,go,,,,go-1,1,,,,,,
1,637.0,17,phase_2,blue_triangle,go,,,,go-1,1,,,,,,
2,849.0,17,phase_2,blue_rhombus,go,,,,go-1,1,,,,,,
2,689.0,17,phase_2,purple_rhombus,go,,,,go-2,1,,,,,,
2,517.0,17,phase_2,purple_rhombus,go,,,,go-2,1,,,,,,
2,549.0,17,phase_2,blue_pentagon,stop,green,300.0,tracking-SSD,go-1,3,,,,,,
1,513.0,17,phase_2,blue_triangle,go,,,,go-1,1,,,,,,
1,444.0,17,phase_2,blue_circle,go,,,,go-1,1,,,,,,
2,475.0,17,phase_2,blue_pentagon,stop,green,250.0,tracking-SSD,go-1,3,,,,,,
1,417.0,17,phase_2,purple_circle,go,,,,go-2,1,,,,,,
2,540.0,17,phase_2,blue_pentagon,go,,,,go-1,1,,,,,,
1,436.0,17,phase_2,purple_triangle,go,,,,go-2,1,,,,,,
2,547.0,17,phase_2,purple_rhombus,stop,green,200.0,tracking-SSD,go-2,3,,,,,,
2,421.0,17,phase_2,blue_circle,go,,,,go-1,2,,,,,,
,701.0,1,phase_3,,,,,,,,purple_square,go-2,blue_square,go-1,purple_square,go-2
,718.0,1,phase_3,,,,,,,,purple_square,go-2,purple_square,go-2,green_square,tracking-SSD
,714.0,1,phase_3,,,,,,,,green_square,tracking-SSD,red_square,0-SSD,green_square,tracking-SSD
,653.0,1,phase_3,,,,,,,,blue_square,go-1,blue_square,go-1,red_square,0-SSD
,549.0,1,phase_3,,,,,,,,blue_square,go-1,blue_square,go-1,green_square,tracking-SSD
,713.0,1,phase_3,,,,,,,,purple_square,go-2,purple_square,go-2,red_square,0-SSD
,607.0,1,phase_3,,,,,,,,red_square,0-SSD,green_square,tracking-SSD,red_square,0-SSD
,636.0,1,phase_3,,,,,,,,blue_square,go-1,red_square,0-SSD,blue_square,go-1
,553.0,1,phase_3,,,,,,,,purple_square,go-2,red_square,0-SSD,purple_square,go-2
,683.0,1,phase_3,,,,,,,,purple_square,go-2,purple_square,go-2,blue_square,go-1
,624.0,1,phase_3,,,,,,,,blue_square,go-1,green_square,tracking-SSD,blue_square,go-1
,630.0,1,phase_3,,,,,,,,purple_square,go-2,green_square,tracking-SSD,purple_square,go-2
,2018.0,2,phase_3,,,,,,,,green_square,tracking-SSD,red_square,0-SSD,green_square,tracking-SSD
,596.0,2,phase_3,,,,,,,,purple_square,go-2,purple_square,go-2,red_square,0-SSD
,682.0,2,phase_3,,,,,,,,blue_square,go-1,blue_square,go-1,red_square,0-SSD
,531.0,2,phase_3,,,,,,,,purple_square,go-2,blue_square,go-1,purple_square,go-2
,482.0,2,phase_3,,,,,,,,blue_square,go-1,blue_square,go-1,green_square,tracking-SSD
,523.0,2,phase_3,,,,,,,,purple_square,go-2,purple_square,go-2,green_square,tracking-SSD
,799.0,2,phase_3,,,,,,,,purple_square,go-2,purple_square,go-2,blue_square,go-1
,570.0,2,phase_3,,,,,,,,purple_square,go-2,red_square,0-SSD,purple_square,go-2
,634.0,2,phase_3,,,,,,,,purple_square,go-2,green_square,tracking-SSD,purple_square,go-2
,809.0,2,phase_3,,,,,,,,blue_square,go-1,red_square,0-SSD,blue_square,go-1
,1041.0,2,phase_3,,,,,,,,green_square,tracking-SSD,green_square,tracking-SSD,red_square,0-SSD
,632.0,2,phase_3,,,,,,,,blue_square,go-1,green_square,tracking-SSD,blue_square,go-1
,836.0,3,phase_3,,,,,,,,green_square,tracking-SSD,red_square,0-SSD,green_square,tracking-SSD
,640.0,3,phase_3,,,,,,,,purple_square,go-2,blue_square,go-1,purple_square,go-2
,523.0,3,phase_3,,,,,,,,blue_square,go-1,blue_square,go-1,green_square,tracking-SSD
,710.0,3,phase_3,,,,,,,,blue_square,go-1,blue_square,go-1,red_square,0-SSD
,570.0,3,phase_3,,,,,,,,purple_square,go-2,purple_square,go-2,red_square,0-SSD
,555.0,3,phase_3,,,,,,,,purple_square,go-2,purple_square,go-2,green_square,tracking-SSD
,528.0,3,phase_3,,,,,,,,purple_square,go-2,red_square,0-SSD,purple_square,go-2
,772.0,3,phase_3,,,,,,,,red_square,0-SSD,green_square,tracking-SSD,red_square,0-SSD
,598.0,3,phase_3,,,,,,,,blue_square,go-1,red_square,0-SSD,blue_square,go-1
,549.0,3,phase_3,,,,,,,,blue_square,go-1,green_square,tracking-SSD,blue_square,go-1
,679.0,3,phase_3,,,,,,,,purple_square,go-2,purple_square,go-2,blue_square,go-1
,563.0,3,phase_3,,,,,,,,purple_square,go-2,green_square,tracking-SSD,purple_square,go-2
,601.0,4,phase_3,,,,,,,,purple_square,go-2,purple_square,go-2,green_square,tracking-SSD
,708.0,4,phase_3,,,,,,,,blue_square,go-1,blue_square,go-1,red_square,0-SSD
,524.0,4,phase_3,,,,,,,,purple_square,go-2,purple_square,go-2,red_square,0-SSD
,676.0,4,phase_3,,,,,,,,red_square,0-SSD,red_square,0-SSD,green_square,tracking-SSD
,537.0,4,phase_3,,,,,,,,blue_square,go-1,blue_square,go-1,green_square,tracking-SSD
,656.0,4,phase_3,,,,,,,,purple_square,go-2,blue_square,go-1,purple_square,go-2
,1338.0,4,phase_3,,,,,,,,blue_square,go-1,red_square,0-SSD,blue_square,go-1
,703.0,4,phase_3,,,,,,,,blue_square,go-1,green_square,tracking-SSD,blue_square,go-1
,610.0,4,phase_3,,,,,,,,red_square,0-SSD,green_square,tracking-SSD,red_square,0-SSD
,796.0,4,phase_3,,,,,,,,purple_square,go-2,purple_square,go-2,blue_square,go-1
,613.0,4,phase_3,,,,,,,,purple_square,go-2,red_square,0-SSD,purple_square,go-2
,630.0,4,phase_3,,,,,,,,purple_square,go-2,green_square,tracking-SSD,purple_square,go-2
,589.0,5,phase_3,,,,,,,,blue_square,go-1,blue_square,go-1,red_square,0-SSD
,617.0,5,phase_3,,,,,,,,blue_square,go-1,blue_square,go-1,green_square,tracking-SSD
,569.0,5,phase_3,,,,,,,,purple_square,go-2,purple_square,go-2,green_square,tracking-SSD
,563.0,5,phase_3,,,,,,,,purple_square,go-2,blue_square,go-1,purple_square,go-2
,606.0,5,phase_3,,,,,,,,purple_square,go-2,purple_square,go-2,red_square,0-SSD
,960.0,5,phase_3,,,,,,,,red_square,0-SSD,red_square,0-SSD,green_square,tracking-SSD
,740.0,5,phase_3,,,,,,,,blue_square,go-1,red_square,0-SSD,blue_square,go-1
,591.0,5,phase_3,,,,,,,,purple_square,go-2,red_square,0-SSD,purple_square,go-2
,699.0,5,phase_3,,,,,,,,blue_square,go-1,green_square,tracking-SSD,blue_square,go-1
,841.0,5,phase_3,,,,,,,,purple_square,go-2,purple_square,go-2,blue_square,go-1
,544.0,5,phase_3,,,,,,,,purple_square,go-2,green_square,tracking-SSD,purple_square,go-2
,934.0,5,phase_3,,,,,,,,red_square,0-SSD,green_square,tracking-SSD,red_square,0-SSD
