response,reaction_time,block,which_phase,stim,stop_signal_trial_type,stop_signal_stimulus,SSD,SSD_type,condition,accuracy,chosen_stim,chosen_cond,stim_left,cond_left,stim_right,cond_right
2,588.0,1,phase_2,purple_pentagon,go,,,,go-2,1,,,,,,
2,474.0,1,phase_2,purple_circle,go,,,,go-2,1,,,,,,
1,562.0,1,phase_2,green_rhombus,go,,,,go-1,1,,,,,,
1,457.0,1,phase_2,green_triangle,go,,,,go-1,1,,,,,,
2,434.0,1,phase_2,purple_pentagon,go,,,,go-2,1,,,,,,
0,0,1,phase_2,green_triangle,stop,red,0.0,0-SSD,go-1,4,,,,,,
1,563.0,1,phase_2,green_triangle,go,,,,go-1,1,,,,,,
0,0,1,phase_2,green_pentagon,stop,blue,250.0,tracking-SSD,go-1,4,,,,,,
0,0,1,phase_2,green_rhombus,stop,red,0.0,0-SSD,go-1,4,,,,,,
1,826.0,1,phase_2,purple_rhombus,go,,,,go-2,1,,,,,,
2,666.0,1,phase_2,purple_pentagon,go,,,,go-2,1,,,,,,
2,471.0,1,phase_2,green_circle,stop,blue,300.0,tracking-SSD,go-1,3,,,,,,
0,0,1,phase_2,green_circle,stop,red,0.0,0-SSD,go-1,4,,,,,,
1,601.0,1,phase_2,purple_triangle,stop,blue,250.0,tracking-SSD,go-2,3,,,,,,
0,0,1,phase_2,purple_triangle,stop,red,0.0,0-SSD,go-2,4,,,,,,
2,789.0,1,phase_2,green_pentagon,go,,,,go-1,1,,,,,,
2,605.0,1,phase_2,green_pentagon,go,,,,go-1,1,,,,,,
2,480.0,1,phase_2,green_circle,go,,,,go-1,1,,,,,,
0,0,1,phase_2,green_rhombus,stop,blue,200.0,tracking-SSD,go-1,4,,,,,,
1,645.0,1,phase_2,green_triangle,go,,,,go-1,1,,,,,,
0,0,1,phase_2,purple_circle,stop,red,0.0,0-SSD,go-2,4,,,,,,
2,564.0,1,phase_2,purple_pentagon,stop,blue,250.0,tracking-SSD,go-2,3,,,,,,
2,763.0,1,phase_2,purple_circle,go,,,,go-2,1,,,,,,
2,525.0,1,phase_2,green_circle,go,,,,go-1,1,,,,,,
2,590.0,1,phase_2,purple_circle,go,,,,go-2,1,,,,,,
0,0,1,phase_2,purple_rhombus,stop,blue,200.0,tracking-SSD,go-2,4,,,,,,
1,573.0,1,phase_2,green_rhombus,go,,,,go-1,1,,,,,,
1,492.0,1,phase_2,green_rhombus,go,,,,go-1,1,,,,,,
2,569.0,1,phase_2,purple_circle,go,,,,go-2,1,,,,,,
1,645.0,1,phase_2,purple_rhombus,go,,,,go-2,1,,,,,,
2,677.0,1,phase_2,purple_circle,go,,,,go-2,1,,,,,,
0,0,1,phase_2,purple_rhombus,stop,red,0.0,0-SSD,go-2,4,,,,,,
2,705.0,1,phase_2,green_pentagon,go,,,,go-1,1,,,,,,
1,568.0,1,phase_2,green_rhombus,go,,,,go-1,1,,,,,,
1,555.0,1,phase_2,green_rhombus,go,,,,go-1,1,,,,,,
0,0,1,phase_2,purple_pentagon,stop,red,0.0,0-SSD,go-2,4,,,,,,
2,427.0,1,phase_2,purple_pentagon,go,,,,go-2,1,,,,,,
2,481.0,1,phase_2,purple_circle,go,,,,go-2,1,,,,,,
2,760.0,1,phase_2,purple_rhombus,go,,,,go-2,2,,,,,,
1,611.0,1,phase_2,green_triangle,go,,,,go-1,1,,,,,,
0,0,1,phase_2,purple_triangle,stop,blue,250.0,tracking-SSD,go-2,4,,,,,,
2,617.0,1,phase_2,purple_circle,go,,,,go-2,1,,,,,,
0,0,1,phase_2,green_pentagon,stop,red,0.0,0-SSD,go-1,4,,,,,,
1,601.0,1,phase_2,green_triangle,go,,,,go-1,1,,,,,,
1,768.0,1,phase_2,purple_triangle,go,,,,go-2,1,,,,,,
1,428.0,1,phase_2,green_triangle,go,,,,go-1,1,,,,,,
1,404.0,1,phase_2,purple_triangle,go,,,,go-2,1,,,,,,
2,536.0,1,phase_2,green_pentagon,stop,blue,300.0,tracking-SSD,go-1,3,,,,,,
1,903.0,2,phase_2,purple_rhombus,go,,,,go-2,1,,,,,,
1,474.0,2,phase_2,purple_triangle,go,,,,go-2,1,,,,,,
0,0,2,phase_2,purple_rhombus,stop,red,0.0,0-SSD,go-2,4,,,,,,
2,471.0,2,phase_2,green_circle,go,,,,go-1,1,,,,,,
2,480.0,2,phase_2,green_triangle,go,,,,go-1,2,,,,,,
2,680.0,2,phase_2,purple_pentagon,go,,,,go-2,1,,,,,,
2,756.0,2,phase_2,purple_pentagon,go,,,,go-2,1,,,,,,
1,485.0,2,phase_2,purple_triangle,go,,,,go-2,1,,,,,,
2,573.0,2,phase_2,purple_pentagon,go,,,,go-2,1,,,,,,
0,0,2,phase_2,purple_rhombus,stop,blue,250.0,tracking-SSD,go-2,4,,,,,,
2,593.0,2,phase_2,green_pentagon,go,,,,go-1,1,,,,,,
2,522.0,2,phase_2,purple_circle,go,,,,go-2,1,,,,,,
1,655.0,2,phase_2,green_rhombus,go,,,,go-1,1,,,,,,
2,495.0,2,phase_2,purple_circle,go,,,,go-2,1,,,,,,
1,605.0,2,phase_2,green_rhombus,stop,blue,300.0,tracking-SSD,go-1,3,,,,,,
1,512.0,2,phase_2,green_triangle,go,,,,go-1,1,,,,,,
2,509.0,2,phase_2,green_circle,go,,,,go-1,1,,,,,,
0,0,2,phase_2,purple_rhombus,stop,red,0.0,0-SSD,go-2,4,,,,,,
0,0,2,phase_2,purple_circle,stop,red,0.0,0-SSD,go-2,4,,,,,,
1,513.0,2,phase_2,purple_triangle,go,,,,go-2,1,,,,,,
2,579.0,2,phase_2,green_pentagon,go,,,,go-1,1,,,,,,
1,611.0,2,phase_2,green_triangle,stop,blue,250.0,tracking-SSD,go-1,3,,,,,,
0,0,2,phase_2,purple_pentagon,stop,blue,200.0,tracking-SSD,go-2,4,,,,,,
2,506.0,2,phase_2,purple_circle,go,,,,go-2,1,,,,,,
2,471.0,2,phase_2,green_circle,go,,,,go-1,1,,,,,,
2,492.0,2,phase_2,green_circle,go,,,,go-1,1,,,,,,
2,468.0,2,phase_2,green_circle,go,,,,go-1,1,,,,,,
2,477.0,2,phase_2,purple_circle,go,,,,go-2,1,,,,,,
2,395.0,2,phase_2,green_circle,go,,,,go-1,1,,,,,,
2,573.0,2,phase_2,purple_pentagon,go,,,,go-2,1,,,,,,
2,390.0,2,phase_2,green_pentagon,stop,blue,250.0,tracking-SSD,go-1,3,,,,,,
0,0,2,phase_2,purple_circle,stop,red,0.0,0-SSD,go-2,4,,,,,,
1,578.0,2,phase_2,green_rhombus,go,,,,go-1,1,,,,,,
0,0,2,phase_2,purple_triangle,stop,blue,200.0,tracking-SSD,go-2,4,,,,,,
2,641.0,2,phase_2,green_pentagon,go,,,,go-1,1,,,,,,
2,583.0,2,phase_2,green_pentagon,go,,,,go-1,1,,,,,,
0,0,2,phase_2,green_rhombus,stop,red,0.0,0-SSD,go-1,4,,,,,,
0,0,2,phase_2,purple_pentagon,stop,blue,250.0,tracking-SSD,go-2,4,,,,,,
1,611.0,2,phase_2,green_rhombus,go,,,,go-1,1,,,,,,
1,586.0,2,phase_2,purple_triangle,go,,,,go-2,1,,,,,,
1,393.0,2,phase_2,green_triangle,go,,,,go-1,1,,,,,,
2,660.0,2,phase_2,green_pentagon,stop,blue,300.0,tracking-SSD,go-1,3,,,,,,
0,0,2,phase_2,green_triangle,stop,red,0.0,0-SSD,go-1,4,,,,,,
1,634.0,2,phase_2,purple_rhombus,go,,,,go-2,1,,,,,,
1,407.0,2,phase_2,purple_rhombus,go,,,,go-2,1,,,,,,
0,0,2,phase_2,green_triangle,stop,red,0.0,0-SSD,go-1,4,,,,,,
0,0,2,phase_2,green_triangle,stop,red,0.0,0-SSD,go-1,4,,,,,,
1,660.0,2,phase_2,purple_rhombus,go,,,,go-2,1,,,,,,
2,521.0,3,phase_2,purple_circle,go,,,,go-2,1,,,,,,
2,395.0,3,phase_2,purple_circle,stop,blue,250.0,tracking-SSD,go-2,3,,,,,,
1,774.0,3,phase_2,green_rhombus,go,,,,go-1,1,,,,,,
1,524.0,3,phase_2,purple_triangle,go,,,,go-2,1,,,,,,
1,512.0,3,phase_2,green_triangle,go,,,,go-1,1,,,,,,
0,0,3,phase_2,green_rhombus,stop,red,0.0,0-SSD,go-1,4,,,,,,
2,506.0,3,phase_2,green_pentagon,go,,,,go-1,1,,,,,,
2,604.0,3,phase_2,green_rhombus,go,,,,go-1,2,,,,,,
1,615.0,3,phase_2,purple_triangle,go,,,,go-2,1,,,,,,
2,591.0,3,phase_2,purple_pentagon,go,,,,go-2,1,,,,,,
0,0,3,phase_2,green_rhombus,stop,red,0.0,0-SSD,go-1,4,,,,,,
0,0,3,phase_2,purple_triangle,stop,blue,200.0,tracking-SSD,go-2,4,,,,,,
1,505.0,3,phase_2,purple_triangle,go,,,,go-2,1,,,,,,
1,648.0,3,phase_2,green_rhombus,stop,blue,250.0,tracking-SSD,go-1,3,,,,,,
2,691.0,3,phase_2,green_pentagon,go,,,,go-1,1,,,,,,
2,498.0,3,phase_2,green_circle,go,,,,go-1,1,,,,,,
0,0,3,phase_2,green_pentagon,stop,blue,200.0,tracking-SSD,go-1,4,,,,,,
2,495.0,3,phase_2,purple_pentagon,go,,,,go-2,1,,,,,,
2,909.0,3,phase_2,green_circle,go,,,,go-1,1,,,,,,
1,536.0,3,phase_2,green_triangle,go,,,,go-1,1,,,,,,
0,0,3,phase_2,green_rhombus,stop,red,0.0,0-SSD,go-1,4,,,,,,
2,532.0,3,phase_2,purple_pentagon,go,,,,go-2,1,,,,,,
1,496.0,3,phase_2,green_triangle,go,,,,go-1,1,,,,,,
2,494.0,3,phase_2,purple_circle,go,,,,go-2,1,,,,,,
1,615.0,3,phase_2,purple_rhombus,go,,,,go-2,1,,,,,,
2,533.0,3,phase_2,purple_pentagon,go,,,,go-2,1,,,,,,
1,598.0,3,phase_2,purple_triangle,stop,blue,250.0,tracking-SSD,go-2,3,,,,,,
1,630.0,3,phase_2,purple_rhombus,go,,,,go-2,1,,,,,,
2,447.0,3,phase_2,purple_circle,go,,,,go-2,1,,,,,,
2,726.0,3,phase_2,green_pentagon,go,,,,go-1,1,,,,,,
0,0,3,phase_2,purple_pentagon,stop,red,0.0,0-SSD,go-2,4,,,,,,
0,0,3,phase_2,purple_rhombus,stop,red,0.0,0-SSD,go-2,4,,,,,,
0,0,3,phase_2,purple_rhombus,stop,blue,200.0,tracking-SSD,go-2,4,,,,,,
1,492.0,3,phase_2,purple_triangle,go,,,,go-2,1,,,,,,
2,579.0,3,phase_2,purple_circle,go,,,,go-2,1,,,,,,
2,566.0,3,phase_2,green_pentagon,stop,blue,250.0,tracking-SSD,go-1,3,,,,,,
0,0,3,phase_2,purple_circle,stop,red,0.0,0-SSD,go-2,4,,,,,,
1,551.0,3,phase_2,green_triangle,go,,,,go-1,1,,,,,,
1,583.0,3,phase_2,green_triangle,stop,blue,200.0,tracking-SSD,go-1,3,,,,,,
2,480.0,3,phase_2,green_circle,go,,,,go-1,1,,,,,,
2,420.0,3,phase_2,green_circle,go,,,,go-1,1,,,,,,
2,453.0,3,phase_2,green_circle,go,,,,go-1,1,,,,,,
2,372.0,3,phase_2,green_circle,go,,,,go-1,1,,,,,,
0,0,3,phase_2,purple_rhombus,stop,red,0.0,0-SSD,go-2,4,,,,,,
1,560.0,3,phase_2,purple_triangle,go,,,,go-2,1,,,,,,
2,535.0,3,phase_2,purple_pentagon,go,,,,go-2,1,,,,,,
2,464.0,3,phase_2,green_pentagon,go,,,,go-1,1,,,,,,
0,0,3,phase_2,green_rhombus,stop,red,0.0,0-SSD,go-1,4,,,,,,
2,409.0,4,phase_2,purple_circle,go,,,,go-2,1,,,,,,
1,520.0,4,phase_2,green_triangle,go,,,,go-1,1,,,,,,
1,529.0,4,phase_2,green_rhombus,go,,,,go-1,1,,,,,,
0,0,4,phase_2,green_rhombus,stop,blue,150.0,tracking-SSD,go-1,4,,,,,,
2,538.0,4,phase_2,green_pentagon,go,,,,go-1,1,,,,,,
1,536.0,4,phase_2,green_rhombus,go,,,,go-1,1,,,,,,
0,0,4,phase_2,green_circle,stop,red,0.0,0-SSD,go-1,4,,,,,,
0,0,4,phase_2,green_circle,stop,red,0.0,0-SSD,go-1,4,,,,,,
2,506.0,4,phase_2,green_circle,go,,,,go-1,1,,,,,,
2,595.0,4,phase_2,green_pentagon,go,,,,go-1,1,,,,,,
0,0,4,phase_2,purple_circle,stop,red,0.0,0-SSD,go-2,4,,,,,,
0,0,4,phase_2,green_triangle,stop,blue,200.0,tracking-SSD,go-1,4,,,,,,
0,0,4,phase_2,green_circle,stop,red,0.0,0-SSD,go-1,4,,,,,,
1,563.0,4,phase_2,purple_triangle,go,,,,go-2,1,,,,,,
1,459.0,4,phase_2,green_triangle,go,,,,go-1,1,,,,,,
2,467.0,4,phase_2,purple_pentagon,go,,,,go-2,1,,,,,,
1,533.0,4,phase_2,purple_rhombus,go,,,,go-2,1,,,,,,
0,0,4,phase_2,green_rhombus,stop,red,0.0,0-SSD,go-1,4,,,,,,
2,516.0,4,phase_2,purple_pentagon,go,,,,go-2,1,,,,,,
1,525.0,4,phase_2,purple_rhombus,go,,,,go-2,1,,,,,,
2,433.0,4,phase_2,green_circle,go,,,,go-1,1,,,,,,
0,0,4,phase_2,purple_pentagon,stop,red,0.0,0-SSD,go-2,4,,,,,,
1,530.0,4,phase_2,purple_rhombus,go,,,,go-2,1,,,,,,
1,551.0,4,phase_2,green_triangle,stop,blue,250.0,tracking-SSD,go-1,3,,,,,,
2,516.0,4,phase_2,green_pentagon,go,,,,go-1,1,,,,,,
1,592.0,4,phase_2,purple_rhombus,go,,,,go-2,1,,,,,,
0,0,4,phase_2,green_triangle,stop,blue,200.0,tracking-SSD,go-1,4,,,,,,
2,440.0,4,phase_2,purple_circle,go,,,,go-2,1,,,,,,
0,0,4,phase_2,purple_triangle,stop,blue,250.0,tracking-SSD,go-2,4,,,,,,
1,415.0,4,phase_2,green_rhombus,go,,,,go-1,1,,,,,,
2,536.0,4,phase_2,purple_pentagon,go,,,,go-2,1,,,,,,
1,578.0,4,phase_2,purple_triangle,go,,,,go-2,1,,,,,,
0,0,4,phase_2,purple_pentagon,stop,red,0.0,0-SSD,go-2,4,,,,,,
1,552.0,4,phase_2,green_rhombus,go,,,,go-1,1,,,,,,
2,472.0,4,phase_2,green_circle,go,,,,go-1,1,,,,,,
1,480.0,4,phase_2,green_triangle,go,,,,go-1,1,,,,,,
0,0,4,phase_2,purple_pentagon,stop,blue,300.0,tracking-SSD,go-2,4,,,,,,
2,453.0,4,phase_2,purple_pentagon,go,,,,go-2,1,,,,,,
2,440.0,4,phase_2,purple_pentagon,go,,,,go-2,1,,,,,,
2,516.0,4,phase_2,purple_circle,stop,blue,350.0,tracking-SSD,go-2,3,,,,,,
2,469.0,4,phase_2,purple_circle,stop,blue,300.0,tracking-SSD,go-2,3,,,,,,
0,0,4,phase_2,purple_triangle,stop,red,0.0,0-SSD,go-2,4,,,,,,
1,553.0,4,phase_2,green_rhombus,go,,,,go-1,1,,,,,,
1,507.0,4,phase_2,green_triangle,go,,,,go-1,1,,,,,,
1,403.0,4,phase_2,green_triangle,go,,,,go-1,1,,,,,,
2,456.0,4,phase_2,purple_circle,go,,,,go-2,1,,,,,,
1,543.0,4,phase_2,purple_rhombus,go,,,,go-2,1,,,,,,
2,564.0,4,phase_2,purple_pentagon,go,,,,go-2,1,,,,,,
2,432.0,5,phase_2,green_pentagon,go,,,,go-1,1,,,,,,
2,396.0,5,phase_2,green_circle,go,,,,go-1,1,,,,,,
2,483.0,5,phase_2,purple_pentagon,go,,,,go-2,1,,,,,,
1,638.0,5,phase_2,purple_rhombus,go,,,,go-2,1,,,,,,
2,434.0,5,phase_2,purple_circle,go,,,,go-2,1,,,,,,
2,465.0,5,phase_2,purple_circle,stop,blue,250.0,tracking-SSD,go-2,3,,,,,,
1,496.0,5,phase_2,purple_rhombus,go,,,,go-2,1,,,,,,
2,527.0,5,phase_2,green_pentagon,go,,,,go-1,1,,,,,,
2,535.0,5,phase_2,green_pentagon,go,,,,go-1,1,,,,,,
2,444.0,5,phase_2,purple_pentagon,stop,blue,200.0,tracking-SSD,go-2,3,,,,,,
0,0,5,phase_2,green_rhombus,stop,blue,150.0,tracking-SSD,go-1,4,,,,,,
1,518.0,5,phase_2,purple_triangle,go,,,,go-2,1,,,,,,
2,527.0,5,phase_2,purple_circle,go,,,,go-2,1,,,,,,
1,548.0,5,phase_2,green_triangle,go,,,,go-1,1,,,,,,
1,557.0,5,phase_2,purple_rhombus,stop,blue,200.0,tracking-SSD,go-2,3,,,,,,
0,0,5,phase_2,purple_triangle,stop,red,0.0,0-SSD,go-2,4,,,,,,
0,0,5,phase_2,green_circle,stop,blue,150.0,tracking-SSD,go-1,4,,,,,,
0,0,5,phase_2,purple_circle,stop,red,0.0,0-SSD,go-2,4,,,,,,
2,468.0,5,phase_2,purple_circle,go,,,,go-2,1,,,,,,
1,478.0,5,phase_2,purple_triangle,go,,,,go-2,1,,,,,,
1,477.0,5,phase_2,green_triangle,go,,,,go-1,1,,,,,,
0,0,5,phase_2,green_circle,stop,red,0.0,0-SSD,go-1,4,,,,,,
1,551.0,5,phase_2,green_rhombus,go,,,,go-1,1,,,,,,
1,583.0,5,phase_2,green_rhombus,go,,,,go-1,1,,,,,,
1,457.0,5,phase_2,green_rhombus,go,,,,go-1,1,,,,,,
1,579.0,5,phase_2,green_triangle,stop,blue,200.0,tracking-SSD,go-1,3,,,,,,
0,0,5,phase_2,green_triangle,stop,blue,150.0,tracking-SSD,go-1,4,,,,,,
1,652.0,5,phase_2,green_rhombus,go,,,,go-1,1,,,,,,
1,516.0,5,phase_2,purple_rhombus,go,,,,go-2,1,,,,,,
2,504.0,5,phase_2,purple_circle,go,,,,go-2,1,,,,,,
2,423.0,5,phase_2,green_pentagon,go,,,,go-1,1,,,,,,
2,577.0,5,phase_2,green_circle,go,,,,go-1,1,,,,,,
2,373.0,5,phase_2,purple_circle,go,,,,go-2,1,,,,,,
0,0,5,phase_2,purple_triangle,stop,red,0.0,0-SSD,go-2,4,,,,,,
0,0,5,phase_2,green_circle,stop,red,0.0,0-SSD,go-1,4,,,,,,
1,581.0,5,phase_2,green_rhombus,go,,,,go-1,1,,,,,,
0,0,5,phase_2,green_rhombus,stop,red,0.0,0-SSD,go-1,4,,,,,,
1,486.0,5,phase_2,purple_triangle,go,,,,go-2,1,,,,,,
2,405.0,5,phase_2,purple_pentagon,go,,,,go-2,1,,,,,,
2,414.0,5,phase_2,green_pentagon,go,,,,go-1,1,,,,,,
2,379.0,5,phase_2,purple_pentagon,go,,,,go-2,1,,,,,,
0,0,5,phase_2,purple_rhombus,stop,red,0.0,0-SSD,go-2,4,,,,,,
1,441.0,5,phase_2,green_triangle,go,,,,go-1,1,,,,,,
2,507.0,5,phase_2,purple_pentagon,go,,,,go-2,1,,,,,,
2,436.0,5,phase_2,purple_pentagon,stop,blue,200.0,tracking-SSD,go-2,3,,,,,,
2,458.0,5,phase_2,green_pentagon,go,,,,go-1,1,,,,,,
0,0,5,phase_2,green_triangle,stop,red,0.0,0-SSD,go-1,4,,,,,,
1,508.0,5,phase_2,purple_triangle,go,,,,go-2,1,,,,,,
0,0,6,phase_2,green_rhombus,stop,red,0.0,0-SSD,go-1,4,,,,,,
2,485.0,6,phase_2,purple_circle,go,,,,go-2,1,,,,,,
1,561.0,6,phase_2,purple_rhombus,go,,,,go-2,1,,,,,,
2,401.0,6,phase_2,green_pentagon,go,,,,go-1,1,,,,,,
0,0,6,phase_2,purple_triangle,stop,red,0.0,0-SSD,go-2,4,,,,,,
2,409.0,6,phase_2,green_circle,go,,,,go-1,1,,,,,,
1,508.0,6,phase_2,purple_triangle,go,,,,go-2,1,,,,,,
2,449.0,6,phase_2,purple_pentagon,go,,,,go-2,1,,,,,,
0,0,6,phase_2,purple_triangle,stop,red,0.0,0-SSD,go-2,4,,,,,,
2,478.0,6,phase_2,purple_circle,go,,,,go-2,1,,,,,,
2,533.0,6,phase_2,purple_pentagon,go,,,,go-2,1,,,,,,
0,0,6,phase_2,purple_pentagon,stop,red,0.0,0-SSD,go-2,4,,,,,,
1,561.0,6,phase_2,purple_rhombus,go,,,,go-2,1,,,,,,
1,448.0,6,phase_2,green_triangle,go,,,,go-1,1,,,,,,
1,446.0,6,phase_2,purple_triangle,go,,,,go-2,1,,,,,,
2,489.0,6,phase_2,green_circle,go,,,,go-1,1,,,,,,
1,598.0,6,phase_2,green_triangle,go,,,,go-1,1,,,,,,
2,528.0,6,phase_2,purple_pentagon,go,,,,go-2,1,,,,,,
2,436.0,6,phase_2,green_pentagon,go,,,,go-1,1,,,,,,
0,0,6,phase_2,green_rhombus,stop,red,0.0,0-SSD,go-1,4,,,,,,
2,465.0,6,phase_2,green_circle,go,,,,go-1,1,,,,,,
1,574.0,6,phase_2,green_rhombus,go,,,,go-1,1,,,,,,
2,526.0,6,phase_2,purple_pentagon,go,,,,go-2,1,,,,,,
2,435.0,6,phase_2,green_circle,go,,,,go-1,1,,,,,,
0,0,6,phase_2,green_pentagon,stop,blue,150.0,tracking-SSD,go-1,4,,,,,,
2,431.0,6,phase_2,purple_pentagon,stop,blue,200.0,tracking-SSD,go-2,3,,,,,,
2,484.0,6,phase_2,green_circle,go,,,,go-1,1,,,,,,
2,515.0,6,phase_2,green_pentagon,go,,,,go-1,1,,,,,,
2,377.0,6,phase_2,purple_pentagon,go,,,,go-2,1,,,,,,
1,398.0,6,phase_2,green_rhombus,go,,,,go-1,1,,,,,,
1,532.0,6,phase_2,green_triangle,go,,,,go-1,1,,,,,,
0,0,6,phase_2,green_circle,stop,red,0.0,0-SSD,go-1,4,,,,,,
0,0,6,phase_2,purple_circle,stop,blue,150.0,tracking-SSD,go-2,4,,,,,,
0,0,6,phase_2,purple_rhombus,stop,red,0.0,0-SSD,go-2,4,,,,,,
0,0,6,phase_2,purple_circle,stop,blue,200.0,tracking-SSD,go-2,4,,,,,,
2,464.0,6,phase_2,purple_circle,go,,,,go-2,1,,,,,,
0,0,6,phase_2,green_rhombus,stop,blue,250.0,tracking-SSD,go-1,4,,,,,,
0,0,6,phase_2,green_triangle,stop,blue,300.0,tracking-SSD,go-1,4,,,,,,
1,647.0,6,phase_2,green_triangle,go,,,,go-1,1,,,,,,
0,0,6,phase_2,green_pentagon,stop,red,0.0,0-SSD,go-1,4,,,,,,
0,0,6,phase_2,purple_rhombus,stop,blue,350.0,tracking-SSD,go-2,4,,,,,,
1,686.0,6,phase_2,purple_rhombus,go,,,,go-2,1,,,,,,
1,583.0,6,phase_2,purple_triangle,go,,,,go-2,1,,,,,,
1,535.0,6,phase_2,purple_triangle,go,,,,go-2,1,,,,,,
1,578.0,6,phase_2,green_rhombus,go,,,,go-1,1,,,,,,
1,632.0,6,phase_2,purple_triangle,go,,,,go-2,1,,,,,,
2,472.0,6,phase_2,green_circle,go,,,,go-1,1,,,,,,
1,863.0,6,phase_2,green_rhombus,stop,blue,400.0,tracking-SSD,go-1,3,,,,,,
2,533.0,7,phase_2,green_pentagon,go,,,,go-1,1,,,,,,
0,0,7,phase_2,green_circle,stop,red,0.0,0-SSD,go-1,4,,,,,,
0,0,7,phase_2,purple_rhombus,stop,red,0.0,0-SSD,go-2,4,,,,,,
0,0,7,phase_2,purple_triangle,stop,red,0.0,0-SSD,go-2,4,,,,,,
0,0,7,phase_2,green_rhombus,stop,red,0.0,0-SSD,go-1,4,,,,,,
1,567.0,7,phase_2,green_triangle,go,,,,go-1,1,,,,,,
2,642.0,7,phase_2,purple_rhombus,go,,,,go-2,2,,,,,,
2,539.0,7,phase_2,green_circle,go,,,,go-1,1,,,,,,
1,548.0,7,phase_2,purple_rhombus,go,,,,go-2,1,,,,,,
1,421.0,7,phase_2,green_rhombus,go,,,,go-1,1,,,,,,
1,566.0,7,phase_2,purple_triangle,go,,,,go-2,1,,,,,,
2,484.0,7,phase_2,purple_pentagon,go,,,,go-2,1,,,,,,
1,528.0,7,phase_2,green_rhombus,go,,,,go-1,1,,,,,,
1,391.0,7,phase_2,green_rhombus,go,,,,go-1,1,,,,,,
0,0,7,phase_2,purple_circle,stop,red,0.0,0-SSD,go-2,4,,,,,,
1,533.0,7,phase_2,purple_triangle,go,,,,go-2,1,,,,,,
1,395.0,7,phase_2,purple_triangle,go,,,,go-2,1,,,,,,
0,0,7,phase_2,green_rhombus,stop,red,0.0,0-SSD,go-1,4,,,,,,
2,457.0,7,phase_2,purple_circle,go,,,,go-2,1,,,,,,
2,556.0,7,phase_2,green_pentagon,go,,,,go-1,1,,,,,,
2,453.0,7,phase_2,green_circle,go,,,,go-1,1,,,,,,
2,562.0,7,phase_2,purple_pentagon,stop,blue,350.0,tracking-SSD,go-2,3,,,,,,
1,425.0,7,phase_2,purple_triangle,go,,,,go-2,1,,,,,,
0,0,7,phase_2,purple_pentagon,stop,blue,300.0,tracking-SSD,go-2,4,,,,,,
2,409.0,7,phase_2,green_circle,go,,,,go-1,1,,,,,,
0,0,7,phase_2,green_triangle,stop,red,0.0,0-SSD,go-1,4,,,,,,
1,640.0,7,phase_2,green_rhombus,go,,,,go-1,1,,,,,,
1,423.0,7,phase_2,green_pentagon,go,,,,go-1,2,,,,,,
2,488.0,7,phase_2,green_pentagon,go,,,,go-1,1,,,,,,
1,587.0,7,phase_2,purple_triangle,go,,,,go-2,1,,,,,,
1,573.0,7,phase_2,green_triangle,go,,,,go-1,1,,,,,,
2,459.0,7,phase_2,green_circle,stop,blue,350.0,tracking-SSD,go-1,3,,,,,,
1,670.0,7,phase_2,purple_rhombus,go,,,,go-2,1,,,,,,
2,476.0,7,phase_2,green_circle,go,,,,go-1,1,,,,,,
2,462.0,7,phase_2,purple_pentagon,go,,,,go-2,1,,,,,,
2,449.0,7,phase_2,purple_circle,go,,,,go-2,1,,,,,,
2,571.0,7,phase_2,green_pentagon,go,,,,go-1,1,,,,,,
1,500.0,7,phase_2,purple_triangle,go,,,,go-2,1,,,,,,
1,587.0,7,phase_2,green_rhombus,stop,blue,300.0,tracking-SSD,go-1,3,,,,,,
2,416.0,7,phase_2,green_circle,stop,blue,250.0,tracking-SSD,go-1,3,,,,,,
2,380.0,7,phase_2,green_circle,stop,blue,200.0,tracking-SSD,go-1,3,,,,,,
0,0,7,phase_2,purple_pentagon,stop,red,0.0,0-SSD,go-2,4,,,,,,
2,409.0,7,phase_2,green_rhombus,go,,,,go-1,2,,,,,,
2,464.0,7,phase_2,purple_circle,go,,,,go-2,1,,,,,,
0,0,7,phase_2,purple_pentagon,stop,blue,150.0,tracking-SSD,go-2,4,,,,,,
0,0,7,phase_2,purple_pentagon,stop,blue,200.0,tracking-SSD,go-2,4,,,,,,
1,489.0,7,phase_2,purple_triangle,go,,,,go-2,1,,,,,,
1,466.0,7,phase_2,purple_triangle,go,,,,go-2,1,,,,,,
0,0,8,phase_2,purple_triangle,stop,red,0.0,0-SSD,go-2,4,,,,,,
0,0,8,phase_2,green_triangle,stop,red,0.0,0-SSD,go-1,4,,,,,,
1,573.0,8,phase_2,purple_rhombus,go,,,,go-2,1,,,,,,
1,548.0,8,phase_2,green_triangle,go,,,,go-1,1,,,,,,
0,0,8,phase_2,purple_rhombus,stop,blue,250.0,tracking-SSD,go-2,4,,,,,,
1,408.0,8,phase_2,purple_rhombus,go,,,,go-2,1,,,,,,
2,372.0,8,phase_2,green_pentagon,go,,,,go-1,1,,,,,,
2,427.0,8,phase_2,purple_circle,go,,,,go-2,1,,,,,,
1,537.0,8,phase_2,green_rhombus,go,,,,go-1,1,,,,,,
2,491.0,8,phase_2,purple_circle,go,,,,go-2,1,,,,,,
0,0,8,phase_2,green_rhombus,stop,red,0.0,0-SSD,go-1,4,,,,,,
2,453.0,8,phase_2,green_pentagon,stop,blue,300.0,tracking-SSD,go-1,3,,,,,,
1,472.0,8,phase_2,green_triangle,go,,,,go-1,1,,,,,,
2,458.0,8,phase_2,green_circle,go,,,,go-1,1,,,,,,
2,590.0,8,phase_2,green_pentagon,go,,,,go-1,1,,,,,,
2,430.0,8,phase_2,green_pentagon,go,,,,go-1,1,,,,,,
1,440.0,8,phase_2,green_triangle,go,,,,go-1,1,,,,,,
2,494.0,8,phase_2,green_circle,go,,,,go-1,1,,,,,,
2,569.0,8,phase_2,purple_pentagon,go,,,,go-2,1,,,,,,
1,443.0,8,phase_2,purple_triangle,go,,,,go-2,1,,,,,,
2,496.0,8,phase_2,purple_pentagon,go,,,,go-2,1,,,,,,
0,0,8,phase_2,green_rhombus,stop,blue,250.0,tracking-SSD,go-1,4,,,,,,
2,459.0,8,phase_2,purple_pentagon,go,,,,go-2,1,,,,,,
1,569.0,8,phase_2,green_rhombus,go,,,,go-1,1,,,,,,
2,352.0,8,phase_2,green_pentagon,stop,blue,300.0,tracking-SSD,go-1,3,,,,,,
0,0,8,phase_2,purple_circle,stop,red,0.0,0-SSD,go-2,4,,,,,,
0,0,8,phase_2,purple_circle,stop,blue,250.0,tracking-SSD,go-2,4,,,,,,
2,391.0,8,phase_2,purple_triangle,go,,,,go-2,2,,,,,,
1,512.0,8,phase_2,green_triangle,go,,,,go-1,1,,,,,,
1,690.0,8,phase_2,green_rhombus,go,,,,go-1,1,,,,,,
0,0,8,phase_2,green_circle,stop,red,0.0,0-SSD,go-1,4,,,,,,
1,482.0,8,phase_2,purple_triangle,go,,,,go-2,1,,,,,,
1,707.0,8,phase_2,purple_rhombus,stop,blue,300.0,tracking-SSD,go-2,3,,,,,,
1,366.0,8,phase_2,green_triangle,go,,,,go-1,1,,,,,,
0,0,8,phase_2,purple_triangle,stop,red,0.0,0-SSD,go-2,4,,,,,,
0,0,8,phase_2,green_pentagon,stop,red,0.0,0-SSD,go-1,4,,,,,,
2,596.0,8,phase_2,purple_pentagon,go,,,,go-2,1,,,,,,
2,391.0,8,phase_2,purple_circle,go,,,,go-2,1,,,,,,
2,522.0,8,phase_2,purple_pentagon,go,,,,go-2,1,,,,,,
2,442.0,8,phase_2,green_circle,stop,blue,250.0,tracking-SSD,go-1,3,,,,,,
1,452.0,8,phase_2,purple_rhombus,go,,,,go-2,1,,,,,,
2,426.0,8,phase_2,green_circle,go,,,,go-1,1,,,,,,
2,548.0,8,phase_2,green_pentagon,go,,,,go-1,1,,,,,,
0,0,8,phase_2,purple_circle,stop,red,0.0,0-SSD,go-2,4,,,,,,
1,622.0,8,phase_2,purple_rhombus,stop,blue,200.0,tracking-SSD,go-2,3,,,,,,
1,416.0,8,phase_2,purple_rhombus,go,,,,go-2,1,,,,,,
1,526.0,8,phase_2,purple_triangle,go,,,,go-2,1,,,,,,
2,479.0,8,phase_2,green_circle,go,,,,go-1,1,,,,,,
2,442.0,9,phase_2,purple_circle,go,,,,go-2,1,,,,,,
2,396.0,9,phase_2,green_circle,go,,,,go-1,1,,,,,,
0,0,9,phase_2,purple_triangle,stop,red,0.0,0-SSD,go-2,4,,,,,,
0,0,9,phase_2,green_circle,stop,red,0.0,0-SSD,go-1,4,,,,,,
0,0,9,phase_2,purple_rhombus,stop,red,0.0,0-SSD,go-2,4,,,,,,
2,634.0,9,phase_2,purple_pentagon,go,,,,go-2,1,,,,,,
1,598.0,9,phase_2,purple_rhombus,go,,,,go-2,1,,,,,,
1,518.0,9,phase_2,purple_triangle,go,,,,go-2,1,,,,,,
2,585.0,9,phase_2,purple_circle,stop,blue,150.0,tracking-SSD,go-2,3,,,,,,
2,345.0,9,phase_2,green_circle,go,,,,go-1,1,,,,,,
2,399.0,9,phase_2,green_circle,go,,,,go-1,1,,,,,,
1,500.0,9,phase_2,green_rhombus,go,,,,go-1,1,,,,,,
2,474.0,9,phase_2,purple_pentagon,go,,,,go-2,1,,,,,,
1,426.0,9,phase_2,purple_triangle,go,,,,go-2,1,,,,,,
2,468.0,9,phase_2,purple_circle,go,,,,go-2,1,,,,,,
0,0,9,phase_2,green_pentagon,stop,blue,100.0,tracking-SSD,go-1,4,,,,,,
2,453.0,9,phase_2,purple_circle,go,,,,go-2,1,,,,,,
2,484.0,9,phase_2,green_pentagon,go,,,,go-1,1,,,,,,
1,503.0,9,phase_2,green_triangle,stop,blue,150.0,tracking-SSD,go-1,3,,,,,,
2,546.0,9,phase_2,purple_circle,go,,,,go-2,1,,,,,,
1,532.0,9,phase_2,green_triangle,go,,,,go-1,1,,,,,,
0,0,9,phase_2,purple_pentagon,stop,blue,100.0,tracking-SSD,go-2,4,,,,,,
0,0,9,phase_2,green_rhombus,stop,red,0.0,0-SSD,go-1,4,,,,,,
0,0,9,phase_2,purple_rhombus,stop,red,0.0,0-SSD,go-2,4,,,,,,
1,592.0,9,phase_2,purple_rhombus,go,,,,go-2,1,,,,,,
2,567.0,9,phase_2,green_pentagon,go,,,,go-1,1,,,,,,
0,0,9,phase_2,green_triangle,stop,red,0.0,0-SSD,go-1,4,,,,,,
0,0,9,phase_2,green_rhombus,stop,blue,150.0,tracking-SSD,go-1,4,,,,,,
1,604.0,9,phase_2,green_rhombus,go,,,,go-1,1,,,,,,
1,659.0,9,phase_2,green_triangle,go,,,,go-1,1,,,,,,
2,464.0,9,phase_2,purple_pentagon,go,,,,go-2,1,,,,,,
2,574.0,9,phase_2,green_circle,go,,,,go-1,1,,,,,,
2,460.0,9,phase_2,purple_pentagon,go,,,,go-2,1,,,,,,
1,492.0,9,phase_2,green_rhombus,go,,,,go-1,1,,,,,,
0,0,9,phase_2,purple_triangle,stop,red,0.0,0-SSD,go-2,4,,,,,,
1,432.0,9,phase_2,purple_triangle,go,,,,go-2,1,,,,,,
2,486.0,9,phase_2,purple_pentagon,go,,,,go-2,1,,,,,,
0,0,9,phase_2,green_circle,stop,red,0.0,0-SSD,go-1,4,,,,,,
1,493.0,9,phase_2,green_triangle,go,,,,go-1,1,,,,,,
2,524.0,9,phase_2,green_pentagon,go,,,,go-1,1,,,,,,
2,454.0,9,phase_2,green_pentagon,go,,,,go-1,1,,,,,,
0,0,9,phase_2,purple_circle,stop,blue,200.0,tracking-SSD,go-2,4,,,,,,
1,719.0,9,phase_2,purple_rhombus,go,,,,go-2,1,,,,,,
1,425.0,9,phase_2,green_triangle,go,,,,go-1,1,,,,,,
2,446.0,9,phase_2,purple_rhombus,go,,,,go-2,2,,,,,,
0,0,9,phase_2,green_pentagon,stop,blue,250.0,tracking-SSD,go-1,4,,,,,,
1,531.0,9,phase_2,purple_triangle,stop,blue,300.0,tracking-SSD,go-2,3,,,,,,
1,843.0,9,phase_2,green_rhombus,go,,,,go-1,1,,,,,,
1,622.0,10,phase_2,green_rhombus,go,,,,go-1,1,,,,,,
2,428.0,10,phase_2,purple_circle,stop,blue,250.0,tracking-SSD,go-2,3,,,,,,
2,639.0,10,phase_2,green_pentagon,go,,,,go-1,1,,,,,,
2,434.0,10,phase_2,purple_pentagon,go,,,,go-2,1,,,,,,
0,0,10,phase_2,purple_rhombus,stop,red,0.0,0-SSD,go-2,4,,,,,,
0,0,10,phase_2,green_circle,stop,blue,200.0,tracking-SSD,go-1,4,,,,,,
1,471.0,10,phase_2,purple_rhombus,go,,,,go-2,1,,,,,,
1,492.0,10,phase_2,green_rhombus,go,,,,go-1,1,,,,,,
2,534.0,10,phase_2,purple_pentagon,go,,,,go-2,1,,,,,,
1,453.0,10,phase_2,green_rhombus,go,,,,go-1,1,,,,,,
2,439.0,10,phase_2,green_circle,go,,,,go-1,1,,,,,,
0,0,10,phase_2,purple_pentagon,stop,red,0.0,0-SSD,go-2,4,,,,,,
1,446.0,10,phase_2,purple_triangle,go,,,,go-2,1,,,,,,
2,590.0,10,phase_2,purple_pentagon,go,,,,go-2,1,,,,,,
1,486.0,10,phase_2,green_rhombus,stop,blue,250.0,tracking-SSD,go-1,3,,,,,,
2,506.0,10,phase_2,green_circle,go,,,,go-1,1,,,,,,
0,0,10,phase_2,green_circle,stop,red,0.0,0-SSD,go-1,4,,,,,,
1,523.0,10,phase_2,purple_triangle,go,,,,go-2,1,,,,,,
2,475.0,10,phase_2,purple_pentagon,go,,,,go-2,1,,,,,,
1,439.0,10,phase_2,purple_rhombus,go,,,,go-2,1,,,,,,
1,347.0,10,phase_2,purple_triangle,stop,blue,200.0,tracking-SSD,go-2,3,,,,,,
1,580.0,10,phase_2,green_rhombus,go,,,,go-1,1,,,,,,
2,477.0,10,phase_2,green_circle,go,,,,go-1,1,,,,,,
1,508.0,10,phase_2,purple_triangle,stop,blue,150.0,tracking-SSD,go-2,3,,,,,,
1,483.0,10,phase_2,purple_rhombus,go,,,,go-2,1,,,,,,
0,0,10,phase_2,green_triangle,stop,blue,100.0,tracking-SSD,go-1,4,,,,,,
0,0,10,phase_2,purple_circle,stop,red,0.0,0-SSD,go-2,4,,,,,,
0,0,10,phase_2,purple_rhombus,stop,red,0.0,0-SSD,go-2,4,,,,,,
0,0,10,phase_2,green_triangle,stop,red,0.0,0-SSD,go-1,4,,,,,,
0,0,10,phase_2,green_triangle,stop,red,0.0,0-SSD,go-1,4,,,,,,
1,605.0,10,phase_2,green_triangle,go,,,,go-1,1,,,,,,
0,0,10,phase_2,green_pentagon,stop,red,0.0,0-SSD,go-1,4,,,,,,
2,702.0,10,phase_2,green_pentagon,go,,,,go-1,1,,,,,,
2,429.0,10,phase_2,purple_pentagon,go,,,,go-2,1,,,,,,
2,426.0,10,phase_2,purple_pentagon,go,,,,go-2,1,,,,,,
1,527.0,10,phase_2,purple_triangle,stop,blue,150.0,tracking-SSD,go-2,3,,,,,,
1,411.0,10,phase_2,purple_triangle,go,,,,go-2,1,,,,,,
1,408.0,10,phase_2,green_rhombus,go,,,,go-1,1,,,,,,
2,451.0,10,phase_2,green_circle,go,,,,go-1,1,,,,,,
1,437.0,10,phase_2,purple_triangle,go,,,,go-2,1,,,,,,
2,424.0,10,phase_2,purple_circle,go,,,,go-2,1,,,,,,
2,511.0,10,phase_2,green_pentagon,go,,,,go-1,1,,,,,,
2,453.0,10,phase_2,purple_pentagon,go,,,,go-2,1,,,,,,
1,418.0,10,phase_2,green_triangle,go,,,,go-1,1,,,,,,
1,572.0,10,phase_2,green_rhombus,go,,,,go-1,1,,,,,,
2,469.0,10,phase_2,purple_circle,go,,,,go-2,1,,,,,,
2,443.0,10,phase_2,green_circle,go,,,,go-1,1,,,,,,
0,0,10,phase_2,green_circle,stop,blue,100.0,tracking-SSD,go-1,4,,,,,,
1,577.0,11,phase_2,purple_rhombus,go,,,,go-2,1,,,,,,
1,394.0,11,phase_2,green_rhombus,go,,,,go-1,1,,,,,,
0,0,11,phase_2,green_triangle,stop,red,0.0,0-SSD,go-1,4,,,,,,
2,422.0,11,phase_2,green_circle,go,,,,go-1,1,,,,,,
1,443.0,11,phase_2,green_rhombus,go,,,,go-1,1,,,,,,
2,519.0,11,phase_2,purple_pentagon,go,,,,go-2,1,,,,,,
2,394.0,11,phase_2,green_circle,stop,blue,150.0,tracking-SSD,go-1,3,,,,,,
1,470.0,11,phase_2,purple_triangle,go,,,,go-2,1,,,,,,
0,0,11,phase_2,green_circle,stop,red,0.0,0-SSD,go-1,4,,,,,,
2,523.0,11,phase_2,purple_pentagon,go,,,,go-2,1,,,,,,
1,396.0,11,phase_2,green_triangle,go,,,,go-1,1,,,,,,
0,0,11,phase_2,purple_circle,stop,red,0.0,0-SSD,go-2,4,,,,,,
1,571.0,11,phase_2,green_rhombus,go,,,,go-1,1,,,,,,
1,400.0,11,phase_2,green_rhombus,go,,,,go-1,1,,,,,,
1,409.0,11,phase_2,green_rhombus,go,,,,go-1,1,,,,,,
0,0,11,phase_2,purple_pentagon,stop,red,0.0,0-SSD,go-2,4,,,,,,
1,561.0,11,phase_2,purple_rhombus,go,,,,go-2,1,,,,,,
2,581.0,11,phase_2,green_pentagon,go,,,,go-1,1,,,,,,
2,387.0,11,phase_2,green_pentagon,go,,,,go-1,1,,,,,,
1,509.0,11,phase_2,purple_rhombus,go,,,,go-2,1,,,,,,
0,0,11,phase_2,green_triangle,stop,blue,100.0,tracking-SSD,go-1,4,,,,,,
0,0,11,phase_2,green_circle,stop,red,0.0,0-SSD,go-1,4,,,,,,
2,571.0,11,phase_2,green_pentagon,go,,,,go-1,1,,,,,,
2,355.0,11,phase_2,green_circle,go,,,,go-1,1,,,,,,
2,432.0,11,phase_2,purple_pentagon,go,,,,go-2,1,,,,,,
0,0,11,phase_2,purple_rhombus,stop,red,0.0,0-SSD,go-2,4,,,,,,
0,0,11,phase_2,green_triangle,stop,red,0.0,0-SSD,go-1,4,,,,,,
0,0,11,phase_2,purple_triangle,stop,blue,150.0,tracking-SSD,go-2,4,,,,,,
2,444.0,11,phase_2,green_circle,go,,,,go-1,1,,,,,,
2,385.0,11,phase_2,purple_circle,go,,,,go-2,1,,,,,,
2,393.0,11,phase_2,purple_pentagon,go,,,,go-2,1,,,,,,
1,357.0,11,phase_2,purple_triangle,stop,blue,200.0,tracking-SSD,go-2,3,,,,,,
2,545.0,11,phase_2,purple_circle,stop,blue,150.0,tracking-SSD,go-2,3,,,,,,
1,442.0,11,phase_2,purple_triangle,go,,,,go-2,1,,,,,,
0,0,11,phase_2,purple_rhombus,stop,red,0.0,0-SSD,go-2,4,,,,,,
0,0,11,phase_2,green_circle,stop,blue,100.0,tracking-SSD,go-1,4,,,,,,
1,469.0,11,phase_2,green_triangle,go,,,,go-1,1,,,,,,
0,0,11,phase_2,green_circle,stop,blue,150.0,tracking-SSD,go-1,4,,,,,,
0,0,11,phase_2,purple_triangle,stop,blue,200.0,tracking-SSD,go-2,4,,,,,,
2,595.0,11,phase_2,purple_pentagon,go,,,,go-2,1,,,,,,
1,470.0,11,phase_2,green_triangle,go,,,,go-1,1,,,,,,
2,537.0,11,phase_2,green_pentagon,go,,,,go-1,1,,,,,,
2,422.0,11,phase_2,purple_pentagon,go,,,,go-2,1,,,,,,
2,477.0,11,phase_2,green_circle,go,,,,go-1,1,,,,,,
1,407.0,11,phase_2,purple_triangle,go,,,,go-2,1,,,,,,
1,640.0,11,phase_2,purple_rhombus,go,,,,go-2,1,,,,,,
2,449.0,11,phase_2,purple_pentagon,go,,,,go-2,1,,,,,,
1,391.0,11,phase_2,purple_rhombus,go,,,,go-2,1,,,,,,
0,0,12,phase_2,purple_pentagon,stop,blue,250.0,tracking-SSD,go-2,4,,,,,,
1,441.0,12,phase_2,green_triangle,go,,,,go-1,1,,,,,,
2,460.0,12,phase_2,purple_pentagon,go,,,,go-2,1,,,,,,
1,459.0,12,phase_2,green_rhombus,stop,blue,300.0,tracking-SSD,go-1,3,,,,,,
0,0,12,phase_2,green_circle,stop,red,0.0,0-SSD,go-1,4,,,,,,
1,476.0,12,phase_2,green_pentagon,go,,,,go-1,2,,,,,,
0,0,12,phase_2,green_rhombus,stop,red,0.0,0-SSD,go-1,4,,,,,,
1,605.0,12,phase_2,purple_triangle,stop,blue,250.0,tracking-SSD,go-2,3,,,,,,
0,0,12,phase_2,green_triangle,stop,blue,200.0,tracking-SSD,go-1,4,,,,,,
0,0,12,phase_2,purple_rhombus,stop,blue,250.0,tracking-SSD,go-2,4,,,,,,
0,0,12,phase_2,purple_rhombus,stop,red,0.0,0-SSD,go-2,4,,,,,,
2,540.0,12,phase_2,purple_circle,go,,,,go-2,1,,,,,,
1,537.0,12,phase_2,green_rhombus,go,,,,go-1,1,,,,,,
2,613.0,12,phase_2,purple_pentagon,go,,,,go-2,1,,,,,,
1,487.0,12,phase_2,purple_triangle,go,,,,go-2,1,,,,,,
2,485.0,12,phase_2,green_circle,go,,,,go-1,1,,,,,,
1,494.0,12,phase_2,green_triangle,go,,,,go-1,1,,,,,,
2,547.0,12,phase_2,purple_pentagon,go,,,,go-2,1,,,,,,
1,535.0,12,phase_2,purple_rhombus,go,,,,go-2,1,,,,,,
0,0,12,phase_2,purple_circle,stop,red,0.0,0-SSD,go-2,4,,,,,,
2,508.0,12,phase_2,green_pentagon,go,,,,go-1,1,,,,,,
1,573.0,12,phase_2,green_triangle,go,,,,go-1,1,,,,,,
2,447.0,12,phase_2,purple_circle,go,,,,go-2,1,,,,,,
1,546.0,12,phase_2,purple_rhombus,stop,blue,300.0,tracking-SSD,go-2,3,,,,,,
1,464.0,12,phase_2,purple_triangle,go,,,,go-2,1,,,,,,
2,429.0,12,phase_2,purple_circle,go,,,,go-2,1,,,,,,
2,449.0,12,phase_2,green_circle,go,,,,go-1,1,,,,,,
1,459.0,12,phase_2,purple_triangle,go,,,,go-2,1,,,,,,
0,0,12,phase_2,green_pentagon,stop,red,0.0,0-SSD,go-1,4,,,,,,
2,468.0,12,phase_2,green_circle,go,,,,go-1,1,,,,,,
0,0,12,phase_2,green_rhombus,stop,red,0.0,0-SSD,go-1,4,,,,,,
0,0,12,phase_2,purple_triangle,stop,red,0.0,0-SSD,go-2,4,,,,,,
1,517.0,12,phase_2,purple_rhombus,go,,,,go-2,1,,,,,,
2,447.0,12,phase_2,purple_circle,go,,,,go-2,1,,,,,,
1,433.0,12,phase_2,green_triangle,go,,,,go-1,1,,,,,,
2,466.0,12,phase_2,green_circle,go,,,,go-1,1,,,,,,
2,452.0,12,phase_2,purple_circle,go,,,,go-2,1,,,,,,
2,371.0,12,phase_2,green_circle,stop,blue,250.0,tracking-SSD,go-1,3,,,,,,
2,559.0,12,phase_2,green_pentagon,go,,,,go-1,1,,,,,,
2,421.0,12,phase_2,purple_pentagon,go,,,,go-2,1,,,,,,
2,442.0,12,phase_2,purple_pentagon,go,,,,go-2,1,,,,,,
2,418.0,12,phase_2,green_pentagon,go,,,,go-1,1,,,,,,
1,461.0,12,phase_2,green_triangle,stop,blue,200.0,tracking-SSD,go-1,3,,,,,,
2,514.0,12,phase_2,purple_pentagon,go,,,,go-2,1,,,,,,
1,557.0,12,phase_2,green_rhombus,go,,,,go-1,1,,,,,,
0,0,12,phase_2,purple_triangle,stop,red,0.0,0-SSD,go-2,4,,,,,,
1,530.0,12,phase_2,green_rhombus,go,,,,go-1,1,,,,,,
1,415.0,12,phase_2,green_rhombus,go,,,,go-1,1,,,,,,
0,0,13,phase_2,green_triangle,stop,blue,150.0,tracking-SSD,go-1,4,,,,,,
1,529.0,13,phase_2,green_rhombus,go,,,,go-1,1,,,,,,
1,369.0,13,phase_2,green_rhombus,stop,blue,200.0,tracking-SSD,go-1,3,,,,,,
2,424.0,13,phase_2,purple_circle,go,,,,go-2,1,,,,,,
2,354.0,13,phase_2,green_circle,go,,,,go-1,1,,,,,,
0,0,13,phase_2,purple_circle,stop,red,0.0,0-SSD,go-2,4,,,,,,
1,461.0,13,phase_2,purple_rhombus,go,,,,go-2,1,,,,,,
0,0,13,phase_2,green_triangle,stop,red,0.0,0-SSD,go-1,4,,,,,,
0,0,13,phase_2,green_circle,stop,red,0.0,0-SSD,go-1,4,,,,,,
0,0,13,phase_2,green_triangle,stop,blue,150.0,tracking-SSD,go-1,4,,,,,,
2,473.0,13,phase_2,green_circle,go,,,,go-1,1,,,,,,
1,437.0,13,phase_2,green_rhombus,go,,,,go-1,1,,,,,,
1,413.0,13,phase_2,purple_rhombus,stop,blue,200.0,tracking-SSD,go-2,3,,,,,,
1,489.0,13,phase_2,green_triangle,go,,,,go-1,1,,,,,,
2,566.0,13,phase_2,purple_pentagon,go,,,,go-2,1,,,,,,
2,385.0,13,phase_2,green_pentagon,go,,,,go-1,1,,,,,,
2,415.0,13,phase_2,purple_pentagon,go,,,,go-2,1,,,,,,
1,593.0,13,phase_2,purple_rhombus,stop,blue,150.0,tracking-SSD,go-2,3,,,,,,
0,0,13,phase_2,green_pentagon,stop,blue,100.0,tracking-SSD,go-1,4,,,,,,
0,0,13,phase_2,green_rhombus,stop,red,0.0,0-SSD,go-1,4,,,,,,
0,0,13,phase_2,purple_circle,stop,red,0.0,0-SSD,go-2,4,,,,,,
1,461.0,13,phase_2,green_triangle,go,,,,go-1,1,,,,,,
0,0,13,phase_2,purple_rhombus,stop,red,0.0,0-SSD,go-2,4,,,,,,
1,803.0,13,phase_2,purple_triangle,go,,,,go-2,1,,,,,,
0,0,13,phase_2,purple_rhombus,stop,red,0.0,0-SSD,go-2,4,,,,,,
1,427.0,13,phase_2,green_triangle,go,,,,go-1,1,,,,,,
1,402.0,13,phase_2,purple_triangle,go,,,,go-2,1,,,,,,
1,412.0,13,phase_2,green_triangle,go,,,,go-1,1,,,,,,
2,567.0,13,phase_2,purple_pentagon,go,,,,go-2,1,,,,,,
0,0,13,phase_2,green_rhombus,stop,red,0.0,0-SSD,go-1,4,,,,,,
2,415.0,13,phase_2,purple_circle,go,,,,go-2,1,,,,,,
2,447.0,13,phase_2,purple_circle,stop,blue,150.0,tracking-SSD,go-2,3,,,,,,
1,457.0,13,phase_2,green_pentagon,go,,,,go-1,2,,,,,,
2,523.0,13,phase_2,purple_pentagon,go,,,,go-2,1,,,,,,
2,443.0,13,phase_2,purple_circle,go,,,,go-2,1,,,,,,
2,351.0,13,phase_2,purple_pentagon,go,,,,go-2,1,,,,,,
2,383.0,13,phase_2,purple_pentagon,go,,,,go-2,1,,,,,,
1,594.0,13,phase_2,purple_rhombus,go,,,,go-2,1,,,,,,
1,490.0,13,phase_2,green_triangle,go,,,,go-1,1,,,,,,
0,0,13,phase_2,purple_circle,stop,blue,100.0,tracking-SSD,go-2,4,,,,,,
2,372.0,13,phase_2,green_circle,go,,,,go-1,1,,,,,,
1,505.0,13,phase_2,purple_rhombus,go,,,,go-2,1,,,,,,
2,558.0,13,phase_2,purple_pentagon,go,,,,go-2,1,,,,,,
2,432.0,13,phase_2,green_pentagon,go,,,,go-1,1,,,,,,
1,452.0,13,phase_2,green_triangle,go,,,,go-1,1,,,,,,
2,573.0,13,phase_2,purple_pentagon,go,,,,go-2,1,,,,,,
2,436.0,13,phase_2,green_circle,go,,,,go-1,1,,,,,,
1,469.0,13,phase_2,green_triangle,go,,,,go-1,1,,,,,,
2,399.0,14,phase_2,green_circle,go,,,,go-1,1,,,,,,
1,408.0,14,phase_2,purple_triangle,go,,,,go-2,1,,,,,,
1,373.0,14,phase_2,purple_triangle,go,,,,go-2,1,,,,,,
1,302.0,14,phase_2,purple_triangle,go,,,,go-2,1,,,,,,
2,436.0,14,phase_2,green_circle,go,,,,go-1,1,,,,,,
1,548.0,14,phase_2,purple_rhombus,stop,blue,150.0,tracking-SSD,go-2,3,,,,,,
1,376.0,14,phase_2,purple_rhombus,go,,,,go-2,1,,,,,,
1,408.0,14,phase_2,purple_rhombus,stop,blue,100.0,tracking-SSD,go-2,3,,,,,,
2,429.0,14,phase_2,purple_pentagon,go,,,,go-2,1,,,,,,
2,302.0,14,phase_2,green_circle,go,,,,go-1,1,,,,,,
0,0,14,phase_2,green_circle,stop,blue,50.0,tracking-SSD,go-1,4,,,,,,
1,535.0,14,phase_2,green_triangle,go,,,,go-1,1,,,,,,
2,398.0,14,phase_2,green_circle,go,,,,go-1,1,,,,,,
2,533.0,14,phase_2,green_pentagon,go,,,,go-1,1,,,,,,
1,486.0,14,phase_2,purple_triangle,stop,blue,100.0,tracking-SSD,go-2,3,,,,,,
0,0,14,phase_2,purple_rhombus,stop,red,0.0,0-SSD,go-2,4,,,,,,
2,447.0,14,phase_2,purple_circle,go,,,,go-2,1,,,,,,
0,0,14,phase_2,purple_pentagon,stop,red,0.0,0-SSD,go-2,4,,,,,,
1,555.0,14,phase_2,green_triangle,go,,,,go-1,1,,,,,,
0,0,14,phase_2,purple_pentagon,stop,blue,50.0,tracking-SSD,go-2,4,,,,,,
1,551.0,14,phase_2,purple_rhombus,go,,,,go-2,1,,,,,,
1,516.0,14,phase_2,purple_triangle,go,,,,go-2,1,,,,,,
2,637.0,14,phase_2,purple_pentagon,go,,,,go-2,1,,,,,,
2,412.0,14,phase_2,purple_pentagon,go,,,,go-2,1,,,,,,
2,354.0,14,phase_2,green_circle,go,,,,go-1,1,,,,,,
0,0,14,phase_2,purple_rhombus,stop,red,0.0,0-SSD,go-2,4,,,,,,
0,0,14,phase_2,green_rhombus,stop,blue,100.0,tracking-SSD,go-1,4,,,,,,
0,0,14,phase_2,green_rhombus,stop,red,0.0,0-SSD,go-1,4,,,,,,
2,456.0,14,phase_2,green_circle,go,,,,go-1,1,,,,,,
2,442.0,14,phase_2,green_pentagon,go,,,,go-1,1,,,,,,
1,475.0,14,phase_2,purple_triangle,go,,,,go-2,1,,,,,,
0,0,14,phase_2,green_rhombus,stop,red,0.0,0-SSD,go-1,4,,,,,,
2,581.0,14,phase_2,green_circle,go,,,,go-1,1,,,,,,
2,388.0,14,phase_2,green_circle,stop,blue,150.0,tracking-SSD,go-1,3,,,,,,
0,0,14,phase_2,purple_circle,stop,red,0.0,0-SSD,go-2,4,,,,,,
0,0,14,phase_2,green_pentagon,stop,blue,100.0,tracking-SSD,go-1,4,,,,,,
1,526.0,14,phase_2,green_rhombus,go,,,,go-1,1,,,,,,
1,421.0,14,phase_2,purple_pentagon,go,,,,go-2,2,,,,,,
1,453.0,14,phase_2,purple_rhombus,go,,,,go-2,1,,,,,,
0,0,14,phase_2,green_triangle,stop,red,0.0,0-SSD,go-1,4,,,,,,
0,0,14,phase_2,green_triangle,stop,red,0.0,0-SSD,go-1,4,,,,,,
2,502.0,14,phase_2,green_pentagon,go,,,,go-1,1,,,,,,
1,476.0,14,phase_2,green_triangle,go,,,,go-1,1,,,,,,
2,418.0,14,phase_2,purple_pentagon,go,,,,go-2,1,,,,,,
2,663.0,14,phase_2,purple_circle,go,,,,go-2,1,,,,,,
1,448.0,14,phase_2,green_triangle,go,,,,go-1,1,,,,,,
2,491.0,14,phase_2,purple_pentagon,go,,,,go-2,1,,,,,,
1,534.0,14,phase_2,green_rhombus,go,,,,go-1,1,,,,,,
0,0,15,phase_2,purple_rhombus,stop,blue,150.0,tracking-SSD,go-2,4,,,,,,
0,0,15,phase_2,green_rhombus,stop,red,0.0,0-SSD,go-1,4,,,,,,
1,516.0,15,phase_2,green_triangle,go,,,,go-1,1,,,,,,
2,468.0,15,phase_2,green_circle,go,,,,go-1,1,,,,,,
1,456.0,15,phase_2,purple_rhombus,go,,,,go-2,1,,,,,,
0,0,15,phase_2,purple_circle,stop,red,0.0,0-SSD,go-2,4,,,,,,
2,507.0,15,phase_2,purple_pentagon,go,,,,go-2,1,,,,,,
2,370.0,15,phase_2,purple_pentagon,go,,,,go-2,1,,,,,,
1,424.0,15,phase_2,green_triangle,go,,,,go-1,1,,,,,,
2,399.0,15,phase_2,purple_pentagon,go,,,,go-2,1,,,,,,
1,498.0,15,phase_2,green_rhombus,go,,,,go-1,1,,,,,,
2,619.0,15,phase_2,green_pentagon,go,,,,go-1,1,,,,,,
2,413.0,15,phase_2,purple_pentagon,go,,,,go-2,1,,,,,,
2,389.0,15,phase_2,green_pentagon,stop,blue,200.0,tracking-SSD,go-1,3,,,,,,
2,386.0,15,phase_2,purple_pentagon,go,,,,go-2,1,,,,,,
2,485.0,15,phase_2,purple_circle,go,,,,go-2,1,,,,,,
0,0,15,phase_2,purple_circle,stop,red,0.0,0-SSD,go-2,4,,,,,,
0,0,15,phase_2,green_triangle,stop,blue,150.0,tracking-SSD,go-1,4,,,,,,
0,0,15,phase_2,green_circle,stop,blue,200.0,tracking-SSD,go-1,4,,,,,,
0,0,15,phase_2,green_pentagon,stop,red,0.0,0-SSD,go-1,4,,,,,,
2,473.0,15,phase_2,purple_pentagon,go,,,,go-2,1,,,,,,
1,572.0,15,phase_2,purple_rhombus,go,,,,go-2,1,,,,,,
0,0,15,phase_2,purple_rhombus,stop,red,0.0,0-SSD,go-2,4,,,,,,
2,476.0,15,phase_2,purple_pentagon,go,,,,go-2,1,,,,,,
2,451.0,15,phase_2,purple_circle,go,,,,go-2,1,,,,,,
2,416.0,15,phase_2,green_circle,go,,,,go-1,1,,,,,,
1,480.0,15,phase_2,purple_triangle,stop,blue,250.0,tracking-SSD,go-2,3,,,,,,
0,0,15,phase_2,green_pentagon,stop,red,0.0,0-SSD,go-1,4,,,,,,
0,0,15,phase_2,purple_circle,stop,red,0.0,0-SSD,go-2,4,,,,,,
2,450.0,15,phase_2,green_rhombus,go,,,,go-1,2,,,,,,
1,481.0,15,phase_2,green_triangle,go,,,,go-1,1,,,,,,
1,377.0,15,phase_2,green_triangle,stop,blue,200.0,tracking-SSD,go-1,3,,,,,,
1,622.0,15,phase_2,purple_rhombus,go,,,,go-2,1,,,,,,
1,462.0,15,phase_2,purple_triangle,go,,,,go-2,1,,,,,,
2,483.0,15,phase_2,green_circle,go,,,,go-1,1,,,,,,
2,480.0,15,phase_2,green_circle,go,,,,go-1,1,,,,,,
1,601.0,15,phase_2,purple_rhombus,go,,,,go-2,1,,,,,,
1,396.0,15,phase_2,purple_triangle,go,,,,go-2,1,,,,,,
1,539.0,15,phase_2,green_rhombus,go,,,,go-1,1,,,,,,
2,548.0,15,phase_2,purple_pentagon,go,,,,go-2,1,,,,,,
1,501.0,15,phase_2,green_triangle,go,,,,go-1,1,,,,,,
1,453.0,15,phase_2,green_triangle,go,,,,go-1,1,,,,,,
1,451.0,15,phase_2,green_triangle,go,,,,go-1,1,,,,,,
2,515.0,15,phase_2,green_circle,go,,,,go-1,1,,,,,,
2,412.0,15,phase_2,purple_circle,stop,blue,150.0,tracking-SSD,go-2,3,,,,,,
1,725.0,15,phase_2,green_rhombus,go,,,,go-1,1,,,,,,
1,418.0,15,phase_2,purple_triangle,stop,blue,100.0,tracking-SSD,go-2,3,,,,,,
0,0,15,phase_2,green_rhombus,stop,red,0.0,0-SSD,go-1,4,,,,,,
2,498.0,16,phase_2,green_pentagon,go,,,,go-1,1,,,,,,
2,383.0,16,phase_2,purple_pentagon,go,,,,go-2,1,,,,,,
1,415.0,16,phase_2,green_triangle,go,,,,go-1,1,,,,,,
2,526.0,16,phase_2,green_circle,go,,,,go-1,1,,,,,,
1,490.0,16,phase_2,purple_triangle,go,,,,go-2,1,,,,,,
1,375.0,16,phase_2,purple_triangle,go,,,,go-2,1,,,,,,
2,427.0,16,phase_2,green_rhombus,go,,,,go-1,2,,,,,,
0,0,16,phase_2,purple_triangle,stop,red,0.0,0-SSD,go-2,4,,,,,,
2,456.0,16,phase_2,green_circle,go,,,,go-1,1,,,,,,
1,432.0,16,phase_2,green_triangle,go,,,,go-1,1,,,,,,
1,519.0,16,phase_2,purple_rhombus,go,,,,go-2,1,,,,,,
2,516.0,16,phase_2,green_pentagon,go,,,,go-1,1,,,,,,
2,536.0,16,phase_2,green_pentagon,go,,,,go-1,1,,,,,,
1,465.0,16,phase_2,purple_rhombus,go,,,,go-2,1,,,,,,
2,543.0,16,phase_2,green_circle,go,,,,go-1,1,,,,,,
0,0,16,phase_2,green_circle,stop,red,0.0,0-SSD,go-1,4,,,,,,
2,751.0,16,phase_2,green_pentagon,go,,,,go-1,1,,,,,,
0,0,16,phase_2,green_rhombus,stop,red,0.0,0-SSD,go-1,4,,,,,,
1,487.0,16,phase_2,purple_triangle,go,,,,go-2,1,,,,,,
2,541.0,16,phase_2,green_pentagon,go,,,,go-1,1,,,,,,
2,439.0,16,phase_2,purple_circle,go,,,,go-2,1,,,,,,
0,0,16,phase_2,purple_pentagon,stop,red,0.0,0-SSD,go-2,4,,,,,,
2,435.0,16,phase_2,purple_pentagon,go,,,,go-2,1,,,,,,
1,409.0,16,phase_2,purple_triangle,go,,,,go-2,1,,,,,,
2,498.0,16,phase_2,purple_pentagon,go,,,,go-2,1,,,,,,
0,0,16,phase_2,purple_rhombus,stop,blue,50.0,tracking-SSD,go-2,4,,,,,,
2,413.0,16,phase_2,green_pentagon,go,,,,go-1,1,,,,,,
0,0,16,phase_2,green_rhombus,stop,red,0.0,0-SSD,go-1,4,,,,,,
2,545.0,16,phase_2,purple_circle,go,,,,go-2,1,,,,,,
2,396.0,16,phase_2,purple_pentagon,stop,blue,100.0,tracking-SSD,go-2,3,,,,,,
0,0,16,phase_2,green_rhombus,stop,red,0.0,0-SSD,go-1,4,,,,,,
0,0,16,phase_2,green_pentagon,stop,blue,50.0,tracking-SSD,go-1,4,,,,,,
0,0,16,phase_2,purple_circle,stop,blue,100.0,tracking-SSD,go-2,4,,,,,,
0,0,16,phase_2,purple_circle,stop,red,0.0,0-SSD,go-2,4,,,,,,
1,508.0,16,phase_2,purple_rhombus,go,,,,go-2,1,,,,,,
2,405.0,16,phase_2,green_circle,go,,,,go-1,1,,,,,,
0,0,16,phase_2,green_triangle,stop,blue,150.0,tracking-SSD,go-1,4,,,,,,
2,399.0,16,phase_2,purple_circle,go,,,,go-2,1,,,,,,
1,622.0,16,phase_2,purple_triangle,go,,,,go-2,1,,,,,,
2,529.0,16,phase_2,purple_circle,go,,,,go-2,1,,,,,,
0,0,16,phase_2,green_rhombus,go,,,,go-1,2,,,,,,
2,468.0,16,phase_2,green_circle,go,,,,go-1,1,,,,,,
1,533.0,16,phase_2,green_triangle,stop,blue,200.0,tracking-SSD,go-1,3,,,,,,
1,373.0,16,phase_2,green_triangle,stop,blue,150.0,tracking-SSD,go-1,3,,,,,,
1,439.0,16,phase_2,purple_rhombus,go,,,,go-2,1,,,,,,
1,380.0,16,phase_2,purple_rhombus,stop,blue,100.0,tracking-SSD,go-2,3,,,,,,
0,0,16,phase_2,purple_rhombus,stop,red,0.0,0-SSD,go-2,4,,,,,,
1,520.0,16,phase_2,green_triangle,go,,,,go-1,1,,,,,,
0,0,17,phase_2,purple_pentagon,stop,blue,50.0,tracking-SSD,go-2,4,,,,,,
1,473.0,17,phase_2,green_rhombus,go,,,,go-1,1,,,,,,
2,449.0,17,phase_2,purple_circle,go,,,,go-2,1,,,,,,
1,537.0,17,phase_2,purple_rhombus,go,,,,go-2,1,,,,,,
1,366.0,17,phase_2,purple_rhombus,go,,,,go-2,1,,,,,,
1,488.0,17,phase_2,purple_triangle,stop,blue,100.0,tracking-SSD,go-2,3,,,,,,
1,552.0,17,phase_2,green_rhombus,go,,,,go-1,1,,,,,,
1,516.0,17,phase_2,purple_triangle,go,,,,go-2,1,,,,,,
2,378.0,17,phase_2,purple_pentagon,go,,,,go-2,1,,,,,,
0,0,17,phase_2,purple_rhombus,stop,blue,50.0,tracking-SSD,go-2,4,,,,,,
2,441.0,17,phase_2,green_pentagon,go,,,,go-1,1,,,,,,
0,0,17,phase_2,green_circle,stop,blue,100.0,tracking-SSD,go-1,4,,,,,,
2,491.0,17,phase_2,purple_pentagon,go,,,,go-2,1,,,,,,
0,0,17,phase_2,purple_circle,stop,red,0.0,0-SSD,go-2,4,,,,,,
1,475.0,17,phase_2,purple_rhombus,go,,,,go-2,1,,,,,,
2,641.0,17,phase_2,purple_pentagon,go,,,,go-2,1,,,,,,
2,414.0,17,phase_2,green_pentagon,stop,blue,150.0,tracking-SSD,go-1,3,,,,,,
2,490.0,17,phase_2,green_circle,go,,,,go-1,1,,,,,,
2,386.0,17,phase_2,green_circle,go,,,,go-1,1,,,,,,
2,338.0,17,phase_2,green_circle,go,,,,go-1,1,,,,,,
2,493.0,17,phase_2,purple_pentagon,go,,,,go-2,1,,,,,,
2,434.0,17,phase_2,purple_pentagon,go,,,,go-2,1,,,,,,
0,0,17,phase_2,green_triangle,stop,red,0.0,0-SSD,go-1,4,,,,,,
1,497.0,17,phase_2,purple_rhombus,go,,,,go-2,1,,,,,,
2,449.0,17,phase_2,green_circle,go,,,,go-1,1,,,,,,
1,571.0,17,phase_2,green_triangle,go,,,,go-1,1,,,,,,
1,320.0,17,phase_2,purple_triangle,go,,,,go-2,1,,,,,,
1,352.0,17,phase_2,green_triangle,go,,,,go-1,1,,,,,,
0,0,17,phase_2,purple_rhombus,stop,red,0.0,0-SSD,go-2,4,,,,,,
2,797.0,17,phase_2,green_pentagon,go,,,,go-1,1,,,,,,
0,0,17,phase_2,green_rhombus,stop,red,0.0,0-SSD,go-1,4,,,,,,
0,0,17,phase_2,purple_pentagon,stop,red,0.0,0-SSD,go-2,4,,,,,,
1,553.0,17,phase_2,green_rhombus,go,,,,go-1,1,,,,,,
2,573.0,17,phase_2,purple_pentagon,go,,,,go-2,1,,,,,,
0,0,17,phase_2,green_pentagon,stop,red,0.0,0-SSD,go-1,4,,,,,,
1,522.0,17,phase_2,purple_rhombus,go,,,,go-2,1,,,,,,
2,407.0,17,phase_2,purple_circle,go,,,,go-2,1,,,,,,
2,507.0,17,phase_2,purple_circle,stop,blue,100.0,tracking-SSD,go-2,3,,,,,,
1,560.0,17,phase_2,green_triangle,go,,,,go-1,1,,,,,,
1,535.0,17,phase_2,green_triangle,go,,,,go-1,1,,,,,,
0,0,17,phase_2,green_triangle,stop,blue,50.0,tracking-SSD,go-1,4,,,,,,
2,417.0,17,phase_2,green_circle,go,,,,go-1,1,,,,,,
2,427.0,17,phase_2,green_circle,go,,,,go-1,1,,,,,,
0,0,17,phase_2,green_triangle,stop,red,0.0,0-SSD,go-1,4,,,,,,
0,0,17,phase_2,purple_rhombus,stop,red,0.0,0-SSD,go-2,4,,,,,,
1,429.0,17,phase_2,purple_triangle,go,,,,go-2,1,,,,,,
2,516.0,17,phase_2,green_circle,stop,blue,100.0,tracking-SSD,go-1,3,,,,,,
1,718.0,17,phase_2,green_triangle,go,,,,go-1,1,,,,,,
,645.0,1,phase_3,,,,,,,,green_square,go-1,green_square,go-1,blue_square,tracking-SSD
,866.0,1,phase_3,,,,,,,,blue_square,tracking-SSD,red_square,0-SSD,blue_square,tracking-SSD
,658.0,1,phase_3,,,,,,,,blue_square,tracking-SSD,purple_square,go-2,blue_square,tracking-SSD
,866.0,1,phase_3,,,,,,,,purple_square,go-2,purple_square,go-2,red_square,0-SSD
,457.0,1,phase_3,,,,,,,,green_square,go-1,green_square,go-1,red_square,0-SSD
,419.0,1,phase_3,,,,,,,,green_square,go-1,green_square,go-1,purple_square,go-2
,797.0,1,phase_3,,,,,,,,blue_square,tracking-SSD,blue_square,tracking-SSD,purple_square,go-2
,838.0,1,phase_3,,,,,,,,blue_square,tracking-SSD,blue_square,tracking-SSD,red_square,0-SSD
,429.0,1,phase_3,,,,,,,,green_square,go-1,red_square,0-SSD,green_square,go-1
,897.0,1,phase_3,,,,,,,,purple_square,go-2,red_square,0-SSD,purple_square,go-2
,488.0,1,phase_3,,,,,,,,green_square,go-1,blue_square,tracking-SSD,green_square,go-1
,392.0,1,phase_3,,,,,,,,green_square,go-1,purple_square,go-2,green_square,go-1
,803.0,2,phase_3,,,,,,,,purple_square,go-2,purple_square,go-2,red_square,0-SSD
,585.0,2,phase_3,,,,,,,,green_square,go-1,green_square,go-1,red_square,0-SSD
,545.0,2,phase_3,,,,,,,,green_square,go-1,green_square,go-1,purple_square,go-2
,688.0,2,phase_3,,,,,,,,blue_square,tracking-SSD,red_square,0-SSD,blue_square,tracking-SSD
,458.0,2,phase_3,,,,,,,,blue_square,tracking-SSD,green_square,go-1,blue_square,tracking-SSD
,646.0,2,phase_3,,,,,,,,blue_square,tracking-SSD,purple_square,go-2,blue_square,tracking-SSD
,563.0,2,phase_3,,,,,,,,green_square,go-1,red_square,0-SSD,green_square,go-1
,761.0,2,phase_3,,,,,,,,red_square,0-SSD,red_square,0-SSD,purple_square,go-2
,564.0,2,phase_3,,,,,,,,green_square,go-1,purple_square,go-2,green_square,go-1
,1012.0,2,phase_3,,,,,,,,green_square,go-1,blue_square,tracking-SSD,green_square,go-1
,1287.0,2,phase_3,,,,,,,,red_square,0-SSD,blue_square,tracking-SSD,red_square,0-SSD
,1125.0,2,phase_3,,,,,,,,purple_square,go-2,blue_square,tracking-SSD,purple_square,go-2
,903.0,3,phase_3,,,,,,,,red_square,0-SSD,purple_square,go-2,red_square,0-SSD
,538.0,3,phase_3,,,,,,,,green_square,go-1,green_square,go-1,red_square,0-SSD
,1051.0,3,phase_3,,,,,,,,blue_square,tracking-SSD,purple_square,go-2,blue_square,tracking-SSD
,484.0,3,phase_3,,,,,,,,green_square,go-1,green_square,go-1,blue_square,tracking-SSD
,435.0,3,phase_3,,,,,,,,green_square,go-1,green_square,go-1,purple_square,go-2
,576.0,3,phase_3,,,,,,,,blue_square,tracking-SSD,red_square,0-SSD,blue_square,tracking-SSD
,516.0,3,phase_3,,,,,,,,green_square,go-1,red_square,0-SSD,green_square,go-1
,647.0,3,phase_3,,,,,,,,blue_square,tracking-SSD,blue_square,tracking-SSD,purple_square,go-2
,811.0,3,phase_3,,,,,,,,red_square,0-SSD,red_square,0-SSD,purple_square,go-2
,1065.0,3,phase_3,,,,,,,,blue_square,tracking-SSD,blue_square,tracking-SSD,red_square,0-SSD
,487.0,3,phase_3,,,,,,,,green_square,go-1,purple_square,go-2,green_square,go-1
,651.0,3,phase_3,,,,,,,,green_square,go-1,blue_square,tracking-SSD,green_square,go-1
,498.0,4,phase_3,,,,,,,,green_square,go-1,green_square,go-1,red_square,0-SSD
,718.0,4,phase_3,,,,,,,,blue_square,tracking-SSD,red_square,0-SSD,blue_square,tracking-SSD
,443.0,4,phase_3,,,,,,,,green_square,go-1,green_square,go-1,purple_square,go-2
,1127.0,4,phase_3,,,,,,,,red_square,0-SSD,purple_square,go-2,red_square,0-SSD
,693.0,4,phase_3,,,,,,,,blue_square,tracking-SSD,purple_square,go-2,blue_square,tracking-SSD
,622.0,4,phase_3,,,,,,,,green_square,go-1,green_square,go-1,blue_square,tracking-SSD
,460.0,4,phase_3,,,,,,,,red_square,0-SSD,red_square,0-SSD,green_square,go-1
,602.0,4,phase_3,,,,,,,,green_square,go-1,blue_square,tracking-SSD,green_square,go-1
,1126.0,4,phase_3,,,,,,,,purple_square,go-2,blue_square,tracking-SSD,purple_square,go-2
,717.0,4,phase_3,,,,,,,,green_square,go-1,purple_square,go-2,green_square,go-1
,769.0,4,phase_3,,,,,,,,red_square,0-SSD,red_square,0-SSD,purple_square,go-2
,663.0,4,phase_3,,,,,,,,red_square,0-SSD,blue_square,tracking-SSD,red_square,0-SSD
,690.0,5,phase_3,,,,,,,,red_square,0-SSD,red_square,0-SSD,blue_square,tracking-SSD
,572.0,5,phase_3,,,,,,,,green_square,go-1,green_square,go-1,red_square,0-SSD
,758.0,5,phase_3,,,,,,,,red_square,0-SSD,purple_square,go-2,red_square,0-SSD
,439.0,5,phase_3,,,,,,,,green_square,go-1,green_square,go-1,purple_square,go-2
,974.0,5,phase_3,,,,,,,,blue_square,tracking-SSD,purple_square,go-2,blue_square,tracking-SSD
,677.0,5,phase_3,,,,,,,,blue_square,tracking-SSD,green_square,go-1,blue_square,tracking-SSD
,843.0,5,phase_3,,,,,,,,red_square,0-SSD,red_square,0-SSD,purple_square,go-2
,736.0,5,phase_3,,,,,,,,green_square,go-1,blue_square,tracking-SSD,green_square,go-1
,754.0,5,phase_3,,,,,,,,green_square,go-1,red_square,0-SSD,green_square,go-1
,1042.0,5,phase_3,,,,,,,,green_square,go-1,purple_square,go-2,green_square,go-1
,993.0,5,phase_3,,,,,,,,blue_square,tracking-SSD,blue_square,tracking-SSD,purple_square,go-2
,910.0,5,phase_3,,,,,,,,red_square,0-SSD,blue_square,tracking-SSD,red_square,0-SSD
