response,reaction_time,block,which_phase,stim,stop_signal_trial_type,stop_signal_stimulus,SSD,SSD_type,condition,accuracy,chosen_stim,chosen_cond,stim_left,cond_left,stim_right,cond_right
2,746.0,1,phase_2,blue_rhombus,go,,,,go-2,2,,,,,,
0,0,1,phase_2,green_rhombus,stop,purple,0.0,0-SSD,go-1,4,,,,,,
2,538.0,1,phase_2,green_triangle,go,,,,go-1,1,,,,,,
1,537.0,1,phase_2,green_pentagon,go,,,,go-1,1,,,,,,
2,421.0,1,phase_2,blue_triangle,go,,,,go-2,1,,,,,,
2,453.0,1,phase_2,green_triangle,go,,,,go-1,1,,,,,,
1,664.0,1,phase_2,green_rhombus,go,,,,go-1,1,,,,,,
1,506.0,1,phase_2,green_pentagon,go,,,,go-1,1,,,,,,
2,526.0,1,phase_2,blue_triangle,go,,,,go-2,1,,,,,,
1,435.0,1,phase_2,blue_pentagon,go,,,,go-2,1,,,,,,
2,445.0,1,phase_2,green_circle,go,,,,go-1,1,,,,,,
1,554.0,1,phase_2,green_pentagon,stop,red,250.0,tracking-SSD,go-1,3,,,,,,
2,430.0,1,phase_2,green_triangle,go,,,,go-1,1,,,,,,
0,0,1,phase_2,blue_rhombus,stop,purple,0.0,0-SSD,go-2,4,,,,,,
0,0,1,phase_2,green_circle,stop,purple,0.0,0-SSD,go-1,4,,,,,,
2,537.0,1,phase_2,blue_triangle,go,,,,go-2,1,,,,,,
1,839.0,1,phase_2,blue_pentagon,go,,,,go-2,1,,,,,,
2,512.0,1,phase_2,green_triangle,go,,,,go-1,1,,,,,,
1,644.0,1,phase_2,blue_pentagon,go,,,,go-2,1,,,,,,
0,0,1,phase_2,blue_circle,stop,purple,0.0,0-SSD,go-2,4,,,,,,
2,404.0,1,phase_2,green_circle,go,,,,go-1,1,,,,,,
0,0,1,phase_2,green_pentagon,stop,purple,0.0,0-SSD,go-1,4,,,,,,
2,456.0,1,phase_2,blue_circle,go,,,,go-2,1,,,,,,
0,0,1,phase_2,blue_rhombus,stop,purple,0.0,0-SSD,go-2,4,,,,,,
2,462.0,1,phase_2,green_circle,stop,red,200.0,tracking-SSD,go-1,3,,,,,,
1,608.0,1,phase_2,green_rhombus,go,,,,go-1,1,,,,,,
1,594.0,1,phase_2,blue_rhombus,go,,,,go-2,1,,,,,,
2,479.0,1,phase_2,blue_circle,go,,,,go-2,1,,,,,,
0,0,1,phase_2,blue_pentagon,stop,red,150.0,tracking-SSD,go-2,4,,,,,,
1,553.0,1,phase_2,blue_pentagon,go,,,,go-2,1,,,,,,
2,519.0,1,phase_2,blue_triangle,go,,,,go-2,1,,,,,,
2,448.0,1,phase_2,green_triangle,go,,,,go-1,1,,,,,,
1,513.0,1,phase_2,green_pentagon,go,,,,go-1,1,,,,,,
2,500.0,1,phase_2,green_rhombus,go,,,,go-1,2,,,,,,
0,0,1,phase_2,blue_circle,stop,purple,0.0,0-SSD,go-2,4,,,,,,
1,1081.0,1,phase_2,blue_rhombus,go,,,,go-2,1,,,,,,
1,528.0,1,phase_2,green_rhombus,go,,,,go-1,1,,,,,,
1,492.0,1,phase_2,blue_rhombus,go,,,,go-2,1,,,,,,
0,0,1,phase_2,green_triangle,stop,purple,0.0,0-SSD,go-1,4,,,,,,
2,432.0,1,phase_2,blue_circle,stop,red,200.0,tracking-SSD,go-2,3,,,,,,
1,508.0,1,phase_2,green_rhombus,go,,,,go-1,1,,,,,,
0,0,1,phase_2,blue_circle,stop,red,150.0,tracking-SSD,go-2,4,,,,,,
1,526.0,1,phase_2,blue_pentagon,go,,,,go-2,1,,,,,,
2,434.0,1,phase_2,green_circle,go,,,,go-1,1,,,,,,
0,0,1,phase_2,green_circle,stop,red,200.0,tracking-SSD,go-1,4,,,,,,
2,633.0,1,phase_2,blue_triangle,go,,,,go-2,1,,,,,,
0,0,1,phase_2,green_pentagon,stop,red,250.0,tracking-SSD,go-1,4,,,,,,
2,562.0,1,phase_2,blue_triangle,stop,red,300.0,tracking-SSD,go-2,3,,,,,,
2,533.0,2,phase_2,green_circle,go,,,,go-1,1,,,,,,
1,475.0,2,phase_2,blue_rhombus,stop,red,250.0,tracking-SSD,go-2,3,,,,,,
1,810.0,2,phase_2,blue_pentagon,stop,red,200.0,tracking-SSD,go-2,3,,,,,,
2,381.0,2,phase_2,blue_triangle,go,,,,go-2,1,,,,,,
2,480.0,2,phase_2,blue_triangle,go,,,,go-2,1,,,,,,
2,510.0,2,phase_2,blue_circle,go,,,,go-2,1,,,,,,
2,451.0,2,phase_2,blue_circle,go,,,,go-2,1,,,,,,
0,0,2,phase_2,blue_rhombus,stop,purple,0.0,0-SSD,go-2,4,,,,,,
2,492.0,2,phase_2,green_rhombus,go,,,,go-1,2,,,,,,
1,512.0,2,phase_2,blue_pentagon,go,,,,go-2,1,,,,,,
2,486.0,2,phase_2,blue_circle,go,,,,go-2,1,,,,,,
2,663.0,2,phase_2,green_triangle,go,,,,go-1,1,,,,,,
1,503.0,2,phase_2,blue_rhombus,go,,,,go-2,1,,,,,,
2,479.0,2,phase_2,green_circle,stop,red,150.0,tracking-SSD,go-1,3,,,,,,
1,398.0,2,phase_2,blue_rhombus,go,,,,go-2,1,,,,,,
0,0,2,phase_2,green_rhombus,stop,red,100.0,tracking-SSD,go-1,4,,,,,,
0,0,2,phase_2,blue_circle,stop,purple,0.0,0-SSD,go-2,4,,,,,,
1,650.0,2,phase_2,green_pentagon,go,,,,go-1,1,,,,,,
1,434.0,2,phase_2,green_pentagon,go,,,,go-1,1,,,,,,
0,0,2,phase_2,green_pentagon,stop,purple,0.0,0-SSD,go-1,4,,,,,,
2,519.0,2,phase_2,blue_circle,stop,red,150.0,tracking-SSD,go-2,3,,,,,,
1,506.0,2,phase_2,blue_pentagon,go,,,,go-2,1,,,,,,
1,447.0,2,phase_2,green_pentagon,go,,,,go-1,1,,,,,,
0,0,2,phase_2,green_rhombus,stop,red,100.0,tracking-SSD,go-1,4,,,,,,
2,645.0,2,phase_2,green_triangle,go,,,,go-1,1,,,,,,
0,0,2,phase_2,green_circle,stop,purple,0.0,0-SSD,go-1,4,,,,,,
1,685.0,2,phase_2,green_pentagon,go,,,,go-1,1,,,,,,
2,603.0,2,phase_2,green_circle,go,,,,go-1,1,,,,,,
0,0,2,phase_2,green_triangle,stop,purple,0.0,0-SSD,go-1,4,,,,,,
1,644.0,2,phase_2,blue_triangle,go,,,,go-2,2,,,,,,
1,472.0,2,phase_2,green_pentagon,go,,,,go-1,1,,,,,,
1,650.0,2,phase_2,blue_pentagon,go,,,,go-2,1,,,,,,
2,568.0,2,phase_2,green_triangle,go,,,,go-1,1,,,,,,
1,588.0,2,phase_2,blue_rhombus,go,,,,go-2,1,,,,,,
0,0,2,phase_2,blue_triangle,stop,purple,0.0,0-SSD,go-2,4,,,,,,
1,640.0,2,phase_2,blue_rhombus,go,,,,go-2,1,,,,,,
2,580.0,2,phase_2,blue_triangle,go,,,,go-2,1,,,,,,
2,522.0,2,phase_2,green_circle,go,,,,go-1,1,,,,,,
0,0,2,phase_2,blue_circle,stop,purple,0.0,0-SSD,go-2,4,,,,,,
2,597.0,2,phase_2,blue_triangle,go,,,,go-2,1,,,,,,
1,561.0,2,phase_2,green_rhombus,go,,,,go-1,1,,,,,,
2,446.0,2,phase_2,blue_circle,go,,,,go-2,1,,,,,,
0,0,2,phase_2,blue_pentagon,stop,red,150.0,tracking-SSD,go-2,4,,,,,,
2,465.0,2,phase_2,green_rhombus,go,,,,go-1,2,,,,,,
1,486.0,2,phase_2,green_rhombus,go,,,,go-1,1,,,,,,
2,551.0,2,phase_2,green_triangle,go,,,,go-1,1,,,,,,
0,0,2,phase_2,green_triangle,stop,purple,0.0,0-SSD,go-1,4,,,,,,
0,0,2,phase_2,green_pentagon,stop,red,200.0,tracking-SSD,go-1,4,,,,,,
2,746.0,3,phase_2,blue_circle,stop,red,250.0,tracking-SSD,go-2,3,,,,,,
1,497.0,3,phase_2,green_rhombus,stop,red,200.0,tracking-SSD,go-1,3,,,,,,
0,0,3,phase_2,blue_circle,stop,purple,0.0,0-SSD,go-2,4,,,,,,
1,648.0,3,phase_2,blue_pentagon,go,,,,go-2,1,,,,,,
2,388.0,3,phase_2,green_circle,go,,,,go-1,1,,,,,,
2,486.0,3,phase_2,blue_rhombus,go,,,,go-2,2,,,,,,
0,0,3,phase_2,green_circle,stop,purple,0.0,0-SSD,go-1,4,,,,,,
0,0,3,phase_2,green_rhombus,stop,purple,0.0,0-SSD,go-1,4,,,,,,
0,0,3,phase_2,blue_triangle,stop,purple,0.0,0-SSD,go-2,4,,,,,,
2,409.0,3,phase_2,green_circle,go,,,,go-1,1,,,,,,
1,598.0,3,phase_2,blue_rhombus,go,,,,go-2,1,,,,,,
1,471.0,3,phase_2,green_pentagon,go,,,,go-1,1,,,,,,
1,547.0,3,phase_2,blue_pentagon,go,,,,go-2,1,,,,,,
1,612.0,3,phase_2,green_triangle,go,,,,go-1,2,,,,,,
2,520.0,3,phase_2,blue_circle,go,,,,go-2,1,,,,,,
0,0,3,phase_2,green_rhombus,stop,red,150.0,tracking-SSD,go-1,4,,,,,,
2,425.0,3,phase_2,blue_triangle,stop,red,200.0,tracking-SSD,go-2,3,,,,,,
2,480.0,3,phase_2,blue_triangle,go,,,,go-2,1,,,,,,
1,477.0,3,phase_2,green_pentagon,go,,,,go-1,1,,,,,,
2,475.0,3,phase_2,green_circle,go,,,,go-1,1,,,,,,
2,494.0,3,phase_2,green_triangle,go,,,,go-1,1,,,,,,
2,592.0,3,phase_2,green_circle,go,,,,go-1,1,,,,,,
1,523.0,3,phase_2,blue_pentagon,stop,red,150.0,tracking-SSD,go-2,3,,,,,,
2,836.0,3,phase_2,blue_triangle,go,,,,go-2,1,,,,,,
2,452.0,3,phase_2,green_triangle,go,,,,go-1,1,,,,,,
1,494.0,3,phase_2,green_pentagon,go,,,,go-1,1,,,,,,
2,525.0,3,phase_2,green_circle,go,,,,go-1,1,,,,,,
1,478.0,3,phase_2,blue_rhombus,go,,,,go-2,1,,,,,,
0,0,3,phase_2,green_triangle,stop,red,100.0,tracking-SSD,go-1,4,,,,,,
2,395.0,3,phase_2,blue_triangle,go,,,,go-2,1,,,,,,
1,527.0,3,phase_2,blue_pentagon,go,,,,go-2,1,,,,,,
2,705.0,3,phase_2,green_triangle,go,,,,go-1,1,,,,,,
1,511.0,3,phase_2,blue_rhombus,go,,,,go-2,1,,,,,,
1,577.0,3,phase_2,blue_pentagon,go,,,,go-2,1,,,,,,
1,508.0,3,phase_2,green_pentagon,go,,,,go-1,1,,,,,,
0,0,3,phase_2,green_pentagon,stop,purple,0.0,0-SSD,go-1,4,,,,,,
2,571.0,3,phase_2,green_circle,go,,,,go-1,1,,,,,,
2,692.0,3,phase_2,blue_triangle,go,,,,go-2,1,,,,,,
0,0,3,phase_2,blue_rhombus,stop,red,150.0,tracking-SSD,go-2,4,,,,,,
0,0,3,phase_2,green_rhombus,go,,,,go-1,2,,,,,,
0,0,3,phase_2,blue_rhombus,stop,purple,0.0,0-SSD,go-2,4,,,,,,
0,0,3,phase_2,green_circle,stop,red,200.0,tracking-SSD,go-1,4,,,,,,
2,590.0,3,phase_2,blue_rhombus,go,,,,go-2,2,,,,,,
1,464.0,3,phase_2,blue_rhombus,go,,,,go-2,1,,,,,,
2,484.0,3,phase_2,green_circle,go,,,,go-1,1,,,,,,
0,0,3,phase_2,green_pentagon,stop,purple,0.0,0-SSD,go-1,4,,,,,,
1,368.0,3,phase_2,blue_pentagon,go,,,,go-2,1,,,,,,
1,1603.0,3,phase_2,blue_triangle,stop,purple,0.0,0-SSD,go-2,3,,,,,,
2,545.0,4,phase_2,green_triangle,go,,,,go-1,1,,,,,,
2,475.0,4,phase_2,blue_circle,go,,,,go-2,1,,,,,,
1,517.0,4,phase_2,green_rhombus,go,,,,go-1,1,,,,,,
0,0,4,phase_2,blue_rhombus,stop,purple,0.0,0-SSD,go-2,4,,,,,,
2,490.0,4,phase_2,blue_circle,go,,,,go-2,1,,,,,,
1,712.0,4,phase_2,blue_rhombus,go,,,,go-2,1,,,,,,
0,0,4,phase_2,green_circle,stop,purple,0.0,0-SSD,go-1,4,,,,,,
1,494.0,4,phase_2,blue_rhombus,go,,,,go-2,1,,,,,,
1,411.0,4,phase_2,blue_rhombus,go,,,,go-2,1,,,,,,
1,522.0,4,phase_2,blue_pentagon,go,,,,go-2,1,,,,,,
0,0,4,phase_2,blue_pentagon,stop,purple,0.0,0-SSD,go-2,4,,,,,,
1,528.0,4,phase_2,blue_rhombus,go,,,,go-2,1,,,,,,
0,0,4,phase_2,green_triangle,stop,purple,0.0,0-SSD,go-1,4,,,,,,
1,524.0,4,phase_2,blue_rhombus,stop,red,250.0,tracking-SSD,go-2,3,,,,,,
1,1590.0,4,phase_2,green_pentagon,go,,,,go-1,1,,,,,,
0,0,4,phase_2,green_rhombus,stop,red,200.0,tracking-SSD,go-1,4,,,,,,
2,537.0,4,phase_2,blue_circle,go,,,,go-2,1,,,,,,
1,345.0,4,phase_2,green_triangle,stop,purple,0.0,0-SSD,go-1,3,,,,,,
0,0,4,phase_2,green_triangle,go,,,,go-1,2,,,,,,
2,521.0,4,phase_2,green_circle,go,,,,go-1,1,,,,,,
2,642.0,4,phase_2,blue_triangle,go,,,,go-2,1,,,,,,
2,798.0,4,phase_2,green_triangle,go,,,,go-1,1,,,,,,
0,0,4,phase_2,green_pentagon,go,,,,go-1,2,,,,,,
1,1603.0,4,phase_2,green_circle,stop,red,250.0,tracking-SSD,go-1,3,,,,,,
0,0,4,phase_2,blue_rhombus,stop,purple,0.0,0-SSD,go-2,4,,,,,,
0,0,4,phase_2,blue_pentagon,stop,purple,0.0,0-SSD,go-2,4,,,,,,
0,0,4,phase_2,green_circle,stop,red,200.0,tracking-SSD,go-1,4,,,,,,
0,0,4,phase_2,blue_circle,stop,red,250.0,tracking-SSD,go-2,4,,,,,,
0,0,4,phase_2,green_pentagon,go,,,,go-1,2,,,,,,
0,0,4,phase_2,green_circle,go,,,,go-1,2,,,,,,
2,607.0,4,phase_2,blue_pentagon,go,,,,go-2,2,,,,,,
2,424.0,4,phase_2,green_triangle,go,,,,go-1,1,,,,,,
2,342.0,4,phase_2,green_circle,go,,,,go-1,1,,,,,,
0,0,4,phase_2,green_pentagon,go,,,,go-1,2,,,,,,
2,496.0,4,phase_2,blue_circle,go,,,,go-2,1,,,,,,
1,516.0,4,phase_2,blue_rhombus,go,,,,go-2,1,,,,,,
2,604.0,4,phase_2,blue_triangle,stop,red,300.0,tracking-SSD,go-2,3,,,,,,
0,0,4,phase_2,green_circle,stop,purple,0.0,0-SSD,go-1,4,,,,,,
1,475.0,4,phase_2,green_pentagon,go,,,,go-1,1,,,,,,
1,857.0,4,phase_2,green_pentagon,go,,,,go-1,1,,,,,,
2,551.0,4,phase_2,blue_triangle,go,,,,go-2,1,,,,,,
2,401.0,4,phase_2,blue_triangle,go,,,,go-2,1,,,,,,
1,523.0,4,phase_2,green_rhombus,stop,red,250.0,tracking-SSD,go-1,3,,,,,,
2,497.0,4,phase_2,blue_triangle,stop,red,200.0,tracking-SSD,go-2,3,,,,,,
1,563.0,4,phase_2,blue_rhombus,go,,,,go-2,1,,,,,,
1,470.0,4,phase_2,green_pentagon,go,,,,go-1,1,,,,,,
1,490.0,4,phase_2,green_pentagon,go,,,,go-1,1,,,,,,
1,465.0,4,phase_2,blue_triangle,go,,,,go-2,2,,,,,,
0,0,5,phase_2,blue_circle,stop,purple,0.0,0-SSD,go-2,4,,,,,,
1,541.0,5,phase_2,green_pentagon,go,,,,go-1,1,,,,,,
2,414.0,5,phase_2,green_triangle,go,,,,go-1,1,,,,,,
2,434.0,5,phase_2,green_triangle,go,,,,go-1,1,,,,,,
2,488.0,5,phase_2,blue_circle,go,,,,go-2,1,,,,,,
0,0,5,phase_2,blue_circle,stop,red,150.0,tracking-SSD,go-2,4,,,,,,
1,392.0,5,phase_2,green_rhombus,stop,red,200.0,tracking-SSD,go-1,3,,,,,,
0,0,5,phase_2,blue_triangle,stop,red,150.0,tracking-SSD,go-2,4,,,,,,
0,0,5,phase_2,green_pentagon,stop,red,200.0,tracking-SSD,go-1,4,,,,,,
2,734.0,5,phase_2,blue_rhombus,go,,,,go-2,2,,,,,,
1,517.0,5,phase_2,blue_rhombus,go,,,,go-2,1,,,,,,
2,571.0,5,phase_2,blue_triangle,stop,red,250.0,tracking-SSD,go-2,3,,,,,,
1,524.0,5,phase_2,green_pentagon,go,,,,go-1,1,,,,,,
1,589.0,5,phase_2,blue_pentagon,go,,,,go-2,1,,,,,,
1,677.0,5,phase_2,green_pentagon,go,,,,go-1,1,,,,,,
1,1438.0,5,phase_2,blue_pentagon,go,,,,go-2,1,,,,,,
2,727.0,5,phase_2,green_triangle,go,,,,go-1,1,,,,,,
0,0,5,phase_2,blue_circle,stop,purple,0.0,0-SSD,go-2,4,,,,,,
0,0,5,phase_2,green_circle,go,,,,go-1,2,,,,,,
0,0,5,phase_2,green_pentagon,stop,purple,0.0,0-SSD,go-1,4,,,,,,
1,529.0,5,phase_2,blue_rhombus,go,,,,go-2,1,,,,,,
2,650.0,5,phase_2,blue_circle,go,,,,go-2,1,,,,,,
1,748.0,5,phase_2,green_rhombus,go,,,,go-1,1,,,,,,
2,488.0,5,phase_2,green_circle,go,,,,go-1,1,,,,,,
0,0,5,phase_2,blue_triangle,stop,purple,0.0,0-SSD,go-2,4,,,,,,
0,0,5,phase_2,green_rhombus,stop,red,200.0,tracking-SSD,go-1,4,,,,,,
2,593.0,5,phase_2,green_circle,go,,,,go-1,1,,,,,,
2,512.0,5,phase_2,blue_circle,go,,,,go-2,1,,,,,,
1,499.0,5,phase_2,blue_pentagon,go,,,,go-2,1,,,,,,
0,0,5,phase_2,green_triangle,stop,purple,0.0,0-SSD,go-1,4,,,,,,
0,0,5,phase_2,green_rhombus,go,,,,go-1,2,,,,,,
1,673.0,5,phase_2,blue_rhombus,stop,red,250.0,tracking-SSD,go-2,3,,,,,,
1,591.0,5,phase_2,blue_rhombus,stop,purple,0.0,0-SSD,go-2,3,,,,,,
2,442.0,5,phase_2,blue_circle,go,,,,go-2,1,,,,,,
1,631.0,5,phase_2,blue_pentagon,go,,,,go-2,1,,,,,,
0,0,5,phase_2,green_circle,stop,purple,0.0,0-SSD,go-1,4,,,,,,
2,401.0,5,phase_2,blue_triangle,go,,,,go-2,1,,,,,,
1,679.0,5,phase_2,green_rhombus,go,,,,go-1,1,,,,,,
1,531.0,5,phase_2,blue_pentagon,go,,,,go-2,1,,,,,,
1,405.0,5,phase_2,green_pentagon,go,,,,go-1,1,,,,,,
1,447.0,5,phase_2,green_rhombus,stop,red,200.0,tracking-SSD,go-1,3,,,,,,
1,546.0,5,phase_2,green_rhombus,go,,,,go-1,1,,,,,,
1,419.0,5,phase_2,blue_pentagon,go,,,,go-2,1,,,,,,
2,462.0,5,phase_2,green_triangle,go,,,,go-1,1,,,,,,
2,527.0,5,phase_2,blue_triangle,go,,,,go-2,1,,,,,,
2,469.0,5,phase_2,green_triangle,go,,,,go-1,1,,,,,,
0,0,5,phase_2,green_triangle,stop,purple,0.0,0-SSD,go-1,4,,,,,,
2,511.0,5,phase_2,blue_circle,go,,,,go-2,1,,,,,,
1,949.0,6,phase_2,blue_pentagon,go,,,,go-2,1,,,,,,
1,734.0,6,phase_2,blue_pentagon,go,,,,go-2,1,,,,,,
2,383.0,6,phase_2,green_circle,go,,,,go-1,1,,,,,,
2,483.0,6,phase_2,blue_circle,go,,,,go-2,1,,,,,,
2,514.0,6,phase_2,blue_circle,go,,,,go-2,1,,,,,,
1,635.0,6,phase_2,blue_pentagon,go,,,,go-2,1,,,,,,
0,0,6,phase_2,blue_circle,stop,purple,0.0,0-SSD,go-2,4,,,,,,
2,630.0,6,phase_2,blue_triangle,go,,,,go-2,1,,,,,,
0,0,6,phase_2,green_rhombus,stop,purple,0.0,0-SSD,go-1,4,,,,,,
2,456.0,6,phase_2,green_rhombus,go,,,,go-1,2,,,,,,
2,600.0,6,phase_2,blue_triangle,go,,,,go-2,1,,,,,,
1,553.0,6,phase_2,green_pentagon,go,,,,go-1,1,,,,,,
2,460.0,6,phase_2,green_circle,go,,,,go-1,1,,,,,,
0,0,6,phase_2,blue_rhombus,stop,red,150.0,tracking-SSD,go-2,4,,,,,,
0,0,6,phase_2,green_triangle,stop,purple,0.0,0-SSD,go-1,4,,,,,,
2,577.0,6,phase_2,blue_triangle,go,,,,go-2,1,,,,,,
2,496.0,6,phase_2,blue_circle,go,,,,go-2,1,,,,,,
0,0,6,phase_2,blue_triangle,stop,purple,0.0,0-SSD,go-2,4,,,,,,
2,685.0,6,phase_2,green_triangle,go,,,,go-1,1,,,,,,
0,0,6,phase_2,blue_rhombus,stop,purple,0.0,0-SSD,go-2,4,,,,,,
0,0,6,phase_2,blue_circle,stop,red,200.0,tracking-SSD,go-2,4,,,,,,
2,478.0,6,phase_2,green_circle,go,,,,go-1,1,,,,,,
1,532.0,6,phase_2,green_pentagon,go,,,,go-1,1,,,,,,
0,0,6,phase_2,green_triangle,stop,red,250.0,tracking-SSD,go-1,4,,,,,,
2,406.0,6,phase_2,green_circle,go,,,,go-1,1,,,,,,
2,652.0,6,phase_2,blue_triangle,go,,,,go-2,1,,,,,,
1,594.0,6,phase_2,green_rhombus,stop,red,300.0,tracking-SSD,go-1,3,,,,,,
2,457.0,6,phase_2,green_circle,stop,red,250.0,tracking-SSD,go-1,3,,,,,,
0,0,6,phase_2,blue_pentagon,stop,red,200.0,tracking-SSD,go-2,4,,,,,,
0,0,6,phase_2,green_pentagon,stop,purple,0.0,0-SSD,go-1,4,,,,,,
0,0,6,phase_2,blue_circle,stop,red,250.0,tracking-SSD,go-2,4,,,,,,
1,675.0,6,phase_2,green_rhombus,go,,,,go-1,1,,,,,,
2,808.0,6,phase_2,green_rhombus,go,,,,go-1,2,,,,,,
1,569.0,6,phase_2,green_pentagon,go,,,,go-1,1,,,,,,
1,511.0,6,phase_2,green_rhombus,go,,,,go-1,1,,,,,,
2,510.0,6,phase_2,blue_triangle,go,,,,go-2,1,,,,,,
0,0,6,phase_2,green_rhombus,stop,purple,0.0,0-SSD,go-1,4,,,,,,
1,596.0,6,phase_2,blue_pentagon,go,,,,go-2,1,,,,,,
2,503.0,6,phase_2,blue_triangle,go,,,,go-2,1,,,,,,
2,467.0,6,phase_2,green_triangle,go,,,,go-1,1,,,,,,
1,577.0,6,phase_2,blue_rhombus,go,,,,go-2,1,,,,,,
1,631.0,6,phase_2,blue_pentagon,go,,,,go-2,1,,,,,,
1,482.0,6,phase_2,green_pentagon,stop,red,300.0,tracking-SSD,go-1,3,,,,,,
1,469.0,6,phase_2,green_pentagon,go,,,,go-1,1,,,,,,
1,692.0,6,phase_2,blue_rhombus,go,,,,go-2,1,,,,,,
2,555.0,6,phase_2,green_circle,go,,,,go-1,1,,,,,,
2,620.0,6,phase_2,green_triangle,go,,,,go-1,1,,,,,,
0,0,6,phase_2,blue_rhombus,stop,purple,0.0,0-SSD,go-2,4,,,,,,
2,611.0,7,phase_2,blue_triangle,go,,,,go-2,1,,,,,,
2,452.0,7,phase_2,green_circle,go,,,,go-1,1,,,,,,
2,427.0,7,phase_2,blue_triangle,go,,,,go-2,1,,,,,,
2,491.0,7,phase_2,green_circle,go,,,,go-1,1,,,,,,
1,444.0,7,phase_2,green_pentagon,go,,,,go-1,1,,,,,,
2,397.0,7,phase_2,blue_circle,go,,,,go-2,1,,,,,,
0,0,7,phase_2,green_circle,stop,purple,0.0,0-SSD,go-1,4,,,,,,
1,505.0,7,phase_2,blue_rhombus,go,,,,go-2,1,,,,,,
1,470.0,7,phase_2,green_pentagon,stop,red,250.0,tracking-SSD,go-1,3,,,,,,
1,536.0,7,phase_2,green_rhombus,go,,,,go-1,1,,,,,,
0,0,7,phase_2,blue_circle,stop,purple,0.0,0-SSD,go-2,4,,,,,,
1,409.0,7,phase_2,blue_triangle,go,,,,go-2,2,,,,,,
2,440.0,7,phase_2,green_triangle,go,,,,go-1,1,,,,,,
2,416.0,7,phase_2,green_triangle,go,,,,go-1,1,,,,,,
1,537.0,7,phase_2,blue_pentagon,go,,,,go-2,1,,,,,,
2,489.0,7,phase_2,green_triangle,go,,,,go-1,1,,,,,,
0,0,7,phase_2,blue_rhombus,stop,red,200.0,tracking-SSD,go-2,4,,,,,,
2,472.0,7,phase_2,green_circle,go,,,,go-1,1,,,,,,
0,0,7,phase_2,green_pentagon,stop,purple,0.0,0-SSD,go-1,4,,,,,,
2,480.0,7,phase_2,green_pentagon,go,,,,go-1,2,,,,,,
1,521.0,7,phase_2,green_pentagon,go,,,,go-1,1,,,,,,
0,0,7,phase_2,green_pentagon,stop,purple,0.0,0-SSD,go-1,4,,,,,,
2,618.0,7,phase_2,blue_triangle,go,,,,go-2,1,,,,,,
0,0,7,phase_2,blue_pentagon,stop,purple,0.0,0-SSD,go-2,4,,,,,,
1,591.0,7,phase_2,green_rhombus,stop,red,250.0,tracking-SSD,go-1,3,,,,,,
0,0,7,phase_2,blue_rhombus,stop,red,200.0,tracking-SSD,go-2,4,,,,,,
2,486.0,7,phase_2,blue_triangle,go,,,,go-2,1,,,,,,
1,517.0,7,phase_2,green_circle,go,,,,go-1,2,,,,,,
2,505.0,7,phase_2,blue_circle,go,,,,go-2,1,,,,,,
0,0,7,phase_2,blue_rhombus,stop,purple,0.0,0-SSD,go-2,4,,,,,,
0,0,7,phase_2,green_pentagon,stop,red,250.0,tracking-SSD,go-1,4,,,,,,
1,611.0,7,phase_2,blue_rhombus,go,,,,go-2,1,,,,,,
0,0,7,phase_2,green_pentagon,stop,purple,0.0,0-SSD,go-1,4,,,,,,
1,595.0,7,phase_2,blue_rhombus,go,,,,go-2,1,,,,,,
1,547.0,7,phase_2,green_rhombus,go,,,,go-1,1,,,,,,
2,456.0,7,phase_2,blue_circle,go,,,,go-2,1,,,,,,
2,408.0,7,phase_2,green_triangle,go,,,,go-1,1,,,,,,
2,585.0,7,phase_2,blue_circle,go,,,,go-2,1,,,,,,
1,481.0,7,phase_2,blue_pentagon,go,,,,go-2,1,,,,,,
0,0,7,phase_2,blue_circle,stop,purple,0.0,0-SSD,go-2,4,,,,,,
2,633.0,7,phase_2,blue_circle,go,,,,go-2,1,,,,,,
0,0,7,phase_2,blue_triangle,stop,red,300.0,tracking-SSD,go-2,4,,,,,,
1,573.0,7,phase_2,blue_rhombus,stop,red,350.0,tracking-SSD,go-2,3,,,,,,
2,997.0,7,phase_2,green_triangle,go,,,,go-1,1,,,,,,
2,444.0,7,phase_2,green_triangle,stop,red,300.0,tracking-SSD,go-1,3,,,,,,
1,511.0,7,phase_2,green_rhombus,go,,,,go-1,1,,,,,,
1,700.0,7,phase_2,green_rhombus,go,,,,go-1,1,,,,,,
1,507.0,7,phase_2,blue_pentagon,go,,,,go-2,1,,,,,,
2,510.0,8,phase_2,blue_circle,go,,,,go-2,1,,,,,,
1,474.0,8,phase_2,green_pentagon,go,,,,go-1,1,,,,,,
0,0,8,phase_2,blue_triangle,stop,purple,0.0,0-SSD,go-2,4,,,,,,
0,0,8,phase_2,green_pentagon,stop,purple,0.0,0-SSD,go-1,4,,,,,,
2,568.0,8,phase_2,green_triangle,stop,red,250.0,tracking-SSD,go-1,3,,,,,,
0,0,8,phase_2,green_pentagon,stop,purple,0.0,0-SSD,go-1,4,,,,,,
1,540.0,8,phase_2,blue_rhombus,go,,,,go-2,1,,,,,,
0,0,8,phase_2,blue_triangle,stop,purple,0.0,0-SSD,go-2,4,,,,,,
2,402.0,8,phase_2,blue_circle,stop,red,200.0,tracking-SSD,go-2,3,,,,,,
2,479.0,8,phase_2,blue_circle,go,,,,go-2,1,,,,,,
1,488.0,8,phase_2,blue_triangle,go,,,,go-2,2,,,,,,
2,586.0,8,phase_2,green_triangle,go,,,,go-1,1,,,,,,
0,0,8,phase_2,blue_pentagon,stop,purple,0.0,0-SSD,go-2,4,,,,,,
1,493.0,8,phase_2,blue_pentagon,go,,,,go-2,1,,,,,,
2,446.0,8,phase_2,blue_circle,go,,,,go-2,1,,,,,,
2,455.0,8,phase_2,green_circle,go,,,,go-1,1,,,,,,
1,622.0,8,phase_2,blue_rhombus,go,,,,go-2,1,,,,,,
2,473.0,8,phase_2,green_circle,go,,,,go-1,1,,,,,,
0,0,8,phase_2,green_rhombus,stop,purple,0.0,0-SSD,go-1,4,,,,,,
0,0,8,phase_2,blue_pentagon,stop,red,150.0,tracking-SSD,go-2,4,,,,,,
2,466.0,8,phase_2,blue_triangle,go,,,,go-2,1,,,,,,
1,564.0,8,phase_2,blue_rhombus,go,,,,go-2,1,,,,,,
1,506.0,8,phase_2,blue_pentagon,go,,,,go-2,1,,,,,,
2,548.0,8,phase_2,green_triangle,go,,,,go-1,1,,,,,,
0,0,8,phase_2,blue_triangle,stop,red,200.0,tracking-SSD,go-2,4,,,,,,
1,612.0,8,phase_2,green_rhombus,go,,,,go-1,1,,,,,,
1,485.0,8,phase_2,blue_rhombus,go,,,,go-2,1,,,,,,
2,539.0,8,phase_2,green_circle,stop,red,250.0,tracking-SSD,go-1,3,,,,,,
2,674.0,8,phase_2,green_triangle,go,,,,go-1,1,,,,,,
2,537.0,8,phase_2,green_circle,go,,,,go-1,1,,,,,,
1,727.0,8,phase_2,blue_rhombus,go,,,,go-2,1,,,,,,
0,0,8,phase_2,blue_rhombus,stop,red,200.0,tracking-SSD,go-2,4,,,,,,
1,564.0,8,phase_2,green_pentagon,go,,,,go-1,1,,,,,,
0,0,8,phase_2,green_pentagon,stop,red,250.0,tracking-SSD,go-1,4,,,,,,
0,0,8,phase_2,green_pentagon,go,,,,go-1,2,,,,,,
1,670.0,8,phase_2,blue_rhombus,go,,,,go-2,1,,,,,,
0,0,8,phase_2,blue_circle,stop,purple,0.0,0-SSD,go-2,4,,,,,,
2,439.0,8,phase_2,blue_circle,go,,,,go-2,1,,,,,,
1,684.0,8,phase_2,green_rhombus,go,,,,go-1,1,,,,,,
2,468.0,8,phase_2,green_circle,go,,,,go-1,1,,,,,,
1,455.0,8,phase_2,green_pentagon,stop,red,300.0,tracking-SSD,go-1,3,,,,,,
2,429.0,8,phase_2,blue_triangle,go,,,,go-2,1,,,,,,
1,550.0,8,phase_2,green_pentagon,go,,,,go-1,1,,,,,,
0,0,8,phase_2,green_circle,stop,purple,0.0,0-SSD,go-1,4,,,,,,
0,0,8,phase_2,green_rhombus,go,,,,go-1,2,,,,,,
2,127.0,8,phase_2,blue_triangle,go,,,,go-2,1,,,,,,
1,529.0,8,phase_2,green_rhombus,go,,,,go-1,1,,,,,,
1,437.0,8,phase_2,green_triangle,go,,,,go-1,2,,,,,,
2,410.0,9,phase_2,green_circle,go,,,,go-1,1,,,,,,
2,452.0,9,phase_2,green_circle,go,,,,go-1,1,,,,,,
0,0,9,phase_2,green_triangle,stop,purple,0.0,0-SSD,go-1,4,,,,,,
0,0,9,phase_2,blue_pentagon,stop,red,250.0,tracking-SSD,go-2,4,,,,,,
2,398.0,9,phase_2,blue_rhombus,stop,red,300.0,tracking-SSD,go-2,3,,,,,,
2,376.0,9,phase_2,blue_rhombus,go,,,,go-2,2,,,,,,
2,430.0,9,phase_2,green_triangle,go,,,,go-1,1,,,,,,
2,406.0,9,phase_2,green_circle,go,,,,go-1,1,,,,,,
0,0,9,phase_2,blue_triangle,stop,purple,0.0,0-SSD,go-2,4,,,,,,
0,0,9,phase_2,blue_triangle,stop,purple,0.0,0-SSD,go-2,4,,,,,,
2,465.0,9,phase_2,green_circle,go,,,,go-1,1,,,,,,
1,610.0,9,phase_2,green_rhombus,go,,,,go-1,1,,,,,,
1,473.0,9,phase_2,green_pentagon,go,,,,go-1,1,,,,,,
2,481.0,9,phase_2,green_triangle,go,,,,go-1,1,,,,,,
0,0,9,phase_2,green_rhombus,stop,red,250.0,tracking-SSD,go-1,4,,,,,,
2,454.0,9,phase_2,blue_triangle,stop,red,300.0,tracking-SSD,go-2,3,,,,,,
0,0,9,phase_2,green_rhombus,stop,purple,0.0,0-SSD,go-1,4,,,,,,
0,0,9,phase_2,blue_triangle,stop,purple,0.0,0-SSD,go-2,4,,,,,,
0,0,9,phase_2,green_pentagon,stop,purple,0.0,0-SSD,go-1,4,,,,,,
0,0,9,phase_2,blue_circle,stop,purple,0.0,0-SSD,go-2,4,,,,,,
0,0,9,phase_2,green_pentagon,stop,purple,0.0,0-SSD,go-1,4,,,,,,
2,452.0,9,phase_2,blue_circle,go,,,,go-2,1,,,,,,
2,494.0,9,phase_2,blue_triangle,go,,,,go-2,1,,,,,,
2,446.0,9,phase_2,green_triangle,go,,,,go-1,1,,,,,,
2,410.0,9,phase_2,green_triangle,stop,red,250.0,tracking-SSD,go-1,3,,,,,,
1,554.0,9,phase_2,green_rhombus,go,,,,go-1,1,,,,,,
1,507.0,9,phase_2,blue_pentagon,go,,,,go-2,1,,,,,,
1,493.0,9,phase_2,blue_rhombus,go,,,,go-2,1,,,,,,
2,558.0,9,phase_2,blue_circle,go,,,,go-2,1,,,,,,
2,521.0,9,phase_2,blue_triangle,go,,,,go-2,1,,,,,,
1,879.0,9,phase_2,green_rhombus,go,,,,go-1,1,,,,,,
1,786.0,9,phase_2,green_pentagon,go,,,,go-1,1,,,,,,
2,548.0,9,phase_2,blue_circle,go,,,,go-2,1,,,,,,
1,128.0,9,phase_2,blue_rhombus,go,,,,go-2,1,,,,,,
0,0,9,phase_2,blue_pentagon,stop,red,200.0,tracking-SSD,go-2,4,,,,,,
1,586.0,9,phase_2,green_rhombus,go,,,,go-1,1,,,,,,
2,392.0,9,phase_2,blue_circle,go,,,,go-2,1,,,,,,
1,513.0,9,phase_2,blue_pentagon,go,,,,go-2,1,,,,,,
2,454.0,9,phase_2,blue_triangle,go,,,,go-2,1,,,,,,
2,496.0,9,phase_2,green_circle,go,,,,go-1,1,,,,,,
2,471.0,9,phase_2,green_circle,go,,,,go-1,1,,,,,,
1,513.0,9,phase_2,blue_pentagon,go,,,,go-2,1,,,,,,
1,421.0,9,phase_2,blue_pentagon,go,,,,go-2,1,,,,,,
1,576.0,9,phase_2,blue_pentagon,go,,,,go-2,1,,,,,,
1,506.0,9,phase_2,green_rhombus,stop,red,250.0,tracking-SSD,go-1,3,,,,,,
2,370.0,9,phase_2,green_circle,go,,,,go-1,1,,,,,,
1,357.0,9,phase_2,green_rhombus,stop,red,200.0,tracking-SSD,go-1,3,,,,,,
1,434.0,9,phase_2,blue_pentagon,go,,,,go-2,1,,,,,,
0,0,10,phase_2,blue_triangle,stop,purple,0.0,0-SSD,go-2,4,,,,,,
0,0,10,phase_2,blue_rhombus,stop,purple,0.0,0-SSD,go-2,4,,,,,,
2,562.0,10,phase_2,green_circle,go,,,,go-1,1,,,,,,
2,548.0,10,phase_2,green_circle,stop,red,150.0,tracking-SSD,go-1,3,,,,,,
2,354.0,10,phase_2,blue_triangle,go,,,,go-2,1,,,,,,
2,363.0,10,phase_2,green_circle,go,,,,go-1,1,,,,,,
1,417.0,10,phase_2,green_pentagon,go,,,,go-1,1,,,,,,
1,426.0,10,phase_2,blue_circle,go,,,,go-2,2,,,,,,
2,513.0,10,phase_2,blue_triangle,go,,,,go-2,1,,,,,,
0,0,10,phase_2,blue_triangle,stop,red,100.0,tracking-SSD,go-2,4,,,,,,
2,328.0,10,phase_2,blue_rhombus,go,,,,go-2,2,,,,,,
2,729.0,10,phase_2,blue_circle,stop,red,150.0,tracking-SSD,go-2,3,,,,,,
0,0,10,phase_2,green_triangle,stop,red,100.0,tracking-SSD,go-1,4,,,,,,
1,522.0,10,phase_2,blue_pentagon,go,,,,go-2,1,,,,,,
2,519.0,10,phase_2,blue_triangle,go,,,,go-2,1,,,,,,
1,563.0,10,phase_2,blue_rhombus,go,,,,go-2,1,,,,,,
2,515.0,10,phase_2,blue_triangle,go,,,,go-2,1,,,,,,
0,0,10,phase_2,blue_rhombus,stop,red,150.0,tracking-SSD,go-2,4,,,,,,
2,488.0,10,phase_2,green_triangle,go,,,,go-1,1,,,,,,
0,0,10,phase_2,green_circle,go,,,,go-1,2,,,,,,
1,842.0,10,phase_2,green_pentagon,go,,,,go-1,1,,,,,,
0,0,10,phase_2,green_circle,stop,purple,0.0,0-SSD,go-1,4,,,,,,
0,0,10,phase_2,green_pentagon,stop,purple,0.0,0-SSD,go-1,4,,,,,,
2,440.0,10,phase_2,blue_triangle,go,,,,go-2,1,,,,,,
2,853.0,10,phase_2,green_triangle,go,,,,go-1,1,,,,,,
1,549.0,10,phase_2,blue_rhombus,go,,,,go-2,1,,,,,,
1,467.0,10,phase_2,green_pentagon,go,,,,go-1,1,,,,,,
2,453.0,10,phase_2,green_triangle,go,,,,go-1,1,,,,,,
1,450.0,10,phase_2,blue_rhombus,go,,,,go-2,1,,,,,,
0,0,10,phase_2,green_pentagon,stop,purple,0.0,0-SSD,go-1,4,,,,,,
1,535.0,10,phase_2,green_rhombus,go,,,,go-1,1,,,,,,
0,0,10,phase_2,blue_circle,stop,purple,0.0,0-SSD,go-2,4,,,,,,
1,440.0,10,phase_2,blue_pentagon,go,,,,go-2,1,,,,,,
1,493.0,10,phase_2,green_pentagon,go,,,,go-1,1,,,,,,
2,401.0,10,phase_2,blue_circle,stop,red,200.0,tracking-SSD,go-2,3,,,,,,
1,557.0,10,phase_2,blue_pentagon,stop,purple,0.0,0-SSD,go-2,3,,,,,,
1,576.0,10,phase_2,green_rhombus,go,,,,go-1,1,,,,,,
0,0,10,phase_2,green_circle,stop,purple,0.0,0-SSD,go-1,4,,,,,,
1,595.0,10,phase_2,blue_rhombus,go,,,,go-2,1,,,,,,
0,0,10,phase_2,green_circle,go,,,,go-1,2,,,,,,
1,434.0,10,phase_2,blue_triangle,go,,,,go-2,2,,,,,,
1,442.0,10,phase_2,green_pentagon,go,,,,go-1,1,,,,,,
1,418.0,10,phase_2,blue_pentagon,go,,,,go-2,1,,,,,,
0,0,10,phase_2,green_rhombus,stop,red,150.0,tracking-SSD,go-1,4,,,,,,
0,0,10,phase_2,green_pentagon,stop,red,200.0,tracking-SSD,go-1,4,,,,,,
1,523.0,10,phase_2,green_rhombus,go,,,,go-1,1,,,,,,
1,509.0,10,phase_2,blue_rhombus,go,,,,go-2,1,,,,,,
2,540.0,10,phase_2,green_circle,go,,,,go-1,1,,,,,,
2,374.0,11,phase_2,green_circle,stop,red,250.0,tracking-SSD,go-1,3,,,,,,
2,360.0,11,phase_2,blue_circle,go,,,,go-2,1,,,,,,
2,505.0,11,phase_2,green_triangle,go,,,,go-1,1,,,,,,
0,0,11,phase_2,green_rhombus,stop,purple,0.0,0-SSD,go-1,4,,,,,,
2,410.0,11,phase_2,green_circle,go,,,,go-1,1,,,,,,
2,485.0,11,phase_2,blue_rhombus,go,,,,go-2,2,,,,,,
1,472.0,11,phase_2,green_pentagon,go,,,,go-1,1,,,,,,
2,458.0,11,phase_2,green_circle,go,,,,go-1,1,,,,,,
1,478.0,11,phase_2,green_pentagon,go,,,,go-1,1,,,,,,
1,521.0,11,phase_2,green_rhombus,stop,red,200.0,tracking-SSD,go-1,3,,,,,,
2,451.0,11,phase_2,blue_circle,go,,,,go-2,1,,,,,,
0,0,11,phase_2,blue_rhombus,stop,red,150.0,tracking-SSD,go-2,4,,,,,,
0,0,11,phase_2,blue_pentagon,stop,purple,0.0,0-SSD,go-2,4,,,,,,
1,1030.0,11,phase_2,green_triangle,stop,purple,0.0,0-SSD,go-1,3,,,,,,
1,533.0,11,phase_2,green_pentagon,go,,,,go-1,1,,,,,,
1,475.0,11,phase_2,green_pentagon,go,,,,go-1,1,,,,,,
2,540.0,11,phase_2,green_circle,stop,red,200.0,tracking-SSD,go-1,3,,,,,,
1,582.0,11,phase_2,green_pentagon,go,,,,go-1,1,,,,,,
2,546.0,11,phase_2,blue_circle,go,,,,go-2,1,,,,,,
0,0,11,phase_2,blue_pentagon,stop,purple,0.0,0-SSD,go-2,4,,,,,,
2,486.0,11,phase_2,blue_triangle,go,,,,go-2,1,,,,,,
2,573.0,11,phase_2,blue_circle,go,,,,go-2,1,,,,,,
1,424.0,11,phase_2,blue_pentagon,go,,,,go-2,1,,,,,,
2,478.0,11,phase_2,green_triangle,go,,,,go-1,1,,,,,,
1,577.0,11,phase_2,green_rhombus,go,,,,go-1,1,,,,,,
0,0,11,phase_2,blue_triangle,stop,red,150.0,tracking-SSD,go-2,4,,,,,,
1,472.0,11,phase_2,blue_rhombus,go,,,,go-2,1,,,,,,
2,593.0,11,phase_2,blue_circle,go,,,,go-2,1,,,,,,
1,826.0,11,phase_2,green_rhombus,go,,,,go-1,1,,,,,,
2,688.0,11,phase_2,blue_triangle,go,,,,go-2,1,,,,,,
1,484.0,11,phase_2,green_rhombus,go,,,,go-1,1,,,,,,
1,877.0,11,phase_2,blue_triangle,stop,red,200.0,tracking-SSD,go-2,3,,,,,,
2,998.0,11,phase_2,blue_triangle,go,,,,go-2,1,,,,,,
0,0,11,phase_2,green_circle,stop,purple,0.0,0-SSD,go-1,4,,,,,,
2,577.0,11,phase_2,green_triangle,go,,,,go-1,1,,,,,,
2,586.0,11,phase_2,green_triangle,go,,,,go-1,1,,,,,,
2,167.0,11,phase_2,blue_triangle,stop,red,150.0,tracking-SSD,go-2,3,,,,,,
0,0,11,phase_2,blue_rhombus,stop,purple,0.0,0-SSD,go-2,4,,,,,,
1,556.0,11,phase_2,blue_rhombus,go,,,,go-2,1,,,,,,
0,0,11,phase_2,blue_rhombus,stop,purple,0.0,0-SSD,go-2,4,,,,,,
1,698.0,11,phase_2,blue_pentagon,go,,,,go-2,1,,,,,,
1,1168.0,11,phase_2,green_pentagon,go,,,,go-1,1,,,,,,
2,445.0,11,phase_2,blue_circle,go,,,,go-2,1,,,,,,
1,521.0,11,phase_2,blue_pentagon,go,,,,go-2,1,,,,,,
1,542.0,11,phase_2,blue_pentagon,go,,,,go-2,1,,,,,,
1,888.0,11,phase_2,green_rhombus,go,,,,go-1,1,,,,,,
0,0,11,phase_2,green_triangle,stop,red,100.0,tracking-SSD,go-1,4,,,,,,
0,0,11,phase_2,green_circle,stop,purple,0.0,0-SSD,go-1,4,,,,,,
2,487.0,12,phase_2,blue_circle,go,,,,go-2,1,,,,,,
0,0,12,phase_2,green_pentagon,stop,purple,0.0,0-SSD,go-1,4,,,,,,
0,0,12,phase_2,green_triangle,stop,purple,0.0,0-SSD,go-1,4,,,,,,
2,547.0,12,phase_2,green_circle,go,,,,go-1,1,,,,,,
2,635.0,12,phase_2,green_circle,go,,,,go-1,1,,,,,,
1,700.0,12,phase_2,green_rhombus,go,,,,go-1,1,,,,,,
0,0,12,phase_2,green_triangle,stop,red,150.0,tracking-SSD,go-1,4,,,,,,
2,514.0,12,phase_2,green_triangle,go,,,,go-1,1,,,,,,
0,0,12,phase_2,green_pentagon,stop,purple,0.0,0-SSD,go-1,4,,,,,,
2,430.0,12,phase_2,green_triangle,go,,,,go-1,1,,,,,,
0,0,12,phase_2,blue_triangle,stop,purple,0.0,0-SSD,go-2,4,,,,,,
2,458.0,12,phase_2,green_triangle,go,,,,go-1,1,,,,,,
2,455.0,12,phase_2,green_triangle,go,,,,go-1,1,,,,,,
1,655.0,12,phase_2,blue_pentagon,go,,,,go-2,1,,,,,,
2,462.0,12,phase_2,blue_circle,stop,red,200.0,tracking-SSD,go-2,3,,,,,,
1,448.0,12,phase_2,blue_pentagon,go,,,,go-2,1,,,,,,
1,592.0,12,phase_2,blue_pentagon,go,,,,go-2,1,,,,,,
2,488.0,12,phase_2,blue_triangle,go,,,,go-2,1,,,,,,
0,0,12,phase_2,blue_rhombus,stop,red,150.0,tracking-SSD,go-2,4,,,,,,
0,0,12,phase_2,green_triangle,stop,red,200.0,tracking-SSD,go-1,4,,,,,,
2,436.0,12,phase_2,green_circle,go,,,,go-1,1,,,,,,
1,422.0,12,phase_2,blue_rhombus,stop,red,250.0,tracking-SSD,go-2,3,,,,,,
1,532.0,12,phase_2,blue_pentagon,go,,,,go-2,1,,,,,,
2,518.0,12,phase_2,green_triangle,go,,,,go-1,1,,,,,,
2,448.0,12,phase_2,green_circle,go,,,,go-1,1,,,,,,
1,468.0,12,phase_2,green_triangle,go,,,,go-1,2,,,,,,
1,544.0,12,phase_2,blue_rhombus,go,,,,go-2,1,,,,,,
1,541.0,12,phase_2,green_rhombus,go,,,,go-1,1,,,,,,
1,583.0,12,phase_2,green_rhombus,go,,,,go-1,1,,,,,,
1,738.0,12,phase_2,green_rhombus,go,,,,go-1,1,,,,,,
2,422.0,12,phase_2,green_circle,go,,,,go-1,1,,,,,,
1,498.0,12,phase_2,blue_pentagon,stop,red,200.0,tracking-SSD,go-2,3,,,,,,
0,0,12,phase_2,blue_circle,stop,purple,0.0,0-SSD,go-2,4,,,,,,
0,0,12,phase_2,green_pentagon,stop,red,150.0,tracking-SSD,go-1,4,,,,,,
2,390.0,12,phase_2,green_circle,stop,red,200.0,tracking-SSD,go-1,3,,,,,,
2,613.0,12,phase_2,blue_triangle,go,,,,go-2,1,,,,,,
1,474.0,12,phase_2,blue_pentagon,go,,,,go-2,1,,,,,,
1,482.0,12,phase_2,blue_rhombus,go,,,,go-2,1,,,,,,
1,458.0,12,phase_2,blue_pentagon,go,,,,go-2,1,,,,,,
2,501.0,12,phase_2,blue_circle,go,,,,go-2,1,,,,,,
0,0,12,phase_2,green_rhombus,stop,purple,0.0,0-SSD,go-1,4,,,,,,
1,567.0,12,phase_2,blue_rhombus,go,,,,go-2,1,,,,,,
0,0,12,phase_2,blue_circle,stop,purple,0.0,0-SSD,go-2,4,,,,,,
1,493.0,12,phase_2,green_rhombus,go,,,,go-1,1,,,,,,
1,490.0,12,phase_2,blue_rhombus,go,,,,go-2,1,,,,,,
2,431.0,12,phase_2,blue_circle,go,,,,go-2,1,,,,,,
0,0,12,phase_2,blue_pentagon,stop,purple,0.0,0-SSD,go-2,4,,,,,,
2,494.0,12,phase_2,blue_pentagon,go,,,,go-2,2,,,,,,
2,588.0,13,phase_2,green_triangle,go,,,,go-1,1,,,,,,
0,0,13,phase_2,green_rhombus,stop,red,150.0,tracking-SSD,go-1,4,,,,,,
2,731.0,13,phase_2,green_triangle,go,,,,go-1,1,,,,,,
1,573.0,13,phase_2,green_rhombus,go,,,,go-1,1,,,,,,
1,694.0,13,phase_2,green_rhombus,go,,,,go-1,1,,,,,,
0,0,13,phase_2,blue_pentagon,stop,purple,0.0,0-SSD,go-2,4,,,,,,
2,452.0,13,phase_2,blue_circle,go,,,,go-2,1,,,,,,
0,0,13,phase_2,blue_pentagon,stop,purple,0.0,0-SSD,go-2,4,,,,,,
2,458.0,13,phase_2,blue_triangle,stop,red,200.0,tracking-SSD,go-2,3,,,,,,
0,0,13,phase_2,blue_triangle,stop,purple,0.0,0-SSD,go-2,4,,,,,,
0,0,13,phase_2,green_triangle,stop,purple,0.0,0-SSD,go-1,4,,,,,,
0,0,13,phase_2,blue_rhombus,stop,red,150.0,tracking-SSD,go-2,4,,,,,,
0,0,13,phase_2,green_pentagon,stop,red,200.0,tracking-SSD,go-1,4,,,,,,
1,583.0,13,phase_2,blue_pentagon,go,,,,go-2,1,,,,,,
2,559.0,13,phase_2,green_triangle,go,,,,go-1,1,,,,,,
2,478.0,13,phase_2,blue_circle,go,,,,go-2,1,,,,,,
2,453.0,13,phase_2,blue_circle,go,,,,go-2,1,,,,,,
1,631.0,13,phase_2,blue_triangle,go,,,,go-2,2,,,,,,
2,427.0,13,phase_2,blue_triangle,go,,,,go-2,1,,,,,,
0,0,13,phase_2,green_rhombus,stop,purple,0.0,0-SSD,go-1,4,,,,,,
1,702.0,13,phase_2,green_pentagon,go,,,,go-1,1,,,,,,
0,0,13,phase_2,blue_circle,stop,purple,0.0,0-SSD,go-2,4,,,,,,
1,652.0,13,phase_2,green_pentagon,go,,,,go-1,1,,,,,,
2,504.0,13,phase_2,green_circle,go,,,,go-1,1,,,,,,
0,0,13,phase_2,green_pentagon,stop,red,250.0,tracking-SSD,go-1,4,,,,,,
2,465.0,13,phase_2,green_circle,go,,,,go-1,1,,,,,,
1,462.0,13,phase_2,blue_pentagon,stop,red,300.0,tracking-SSD,go-2,3,,,,,,
1,505.0,13,phase_2,green_rhombus,go,,,,go-1,1,,,,,,
2,480.0,13,phase_2,blue_circle,go,,,,go-2,1,,,,,,
0,0,13,phase_2,blue_circle,stop,red,250.0,tracking-SSD,go-2,4,,,,,,
0,0,13,phase_2,blue_triangle,go,,,,go-2,2,,,,,,
2,720.0,13,phase_2,green_circle,stop,red,300.0,tracking-SSD,go-1,3,,,,,,
2,1010.0,13,phase_2,blue_rhombus,go,,,,go-2,2,,,,,,
1,479.0,13,phase_2,green_rhombus,go,,,,go-1,1,,,,,,
1,476.0,13,phase_2,green_rhombus,go,,,,go-1,1,,,,,,
1,495.0,13,phase_2,blue_pentagon,go,,,,go-2,1,,,,,,
1,561.0,13,phase_2,blue_pentagon,go,,,,go-2,1,,,,,,
1,524.0,13,phase_2,blue_rhombus,go,,,,go-2,1,,,,,,
0,0,13,phase_2,green_triangle,stop,purple,0.0,0-SSD,go-1,4,,,,,,
1,509.0,13,phase_2,blue_pentagon,go,,,,go-2,1,,,,,,
2,482.0,13,phase_2,green_circle,go,,,,go-1,1,,,,,,
1,503.0,13,phase_2,green_rhombus,go,,,,go-1,1,,,,,,
2,444.0,13,phase_2,blue_triangle,go,,,,go-2,1,,,,,,
0,0,13,phase_2,green_triangle,stop,purple,0.0,0-SSD,go-1,4,,,,,,
1,1080.0,13,phase_2,green_rhombus,go,,,,go-1,1,,,,,,
1,526.0,13,phase_2,blue_pentagon,go,,,,go-2,1,,,,,,
2,603.0,13,phase_2,blue_circle,go,,,,go-2,1,,,,,,
2,554.0,13,phase_2,green_circle,go,,,,go-1,1,,,,,,
1,993.0,14,phase_2,green_pentagon,go,,,,go-1,1,,,,,,
2,496.0,14,phase_2,green_triangle,go,,,,go-1,1,,,,,,
2,560.0,14,phase_2,green_circle,go,,,,go-1,1,,,,,,
1,446.0,14,phase_2,green_pentagon,stop,red,250.0,tracking-SSD,go-1,3,,,,,,
2,658.0,14,phase_2,green_triangle,go,,,,go-1,1,,,,,,
2,498.0,14,phase_2,blue_circle,go,,,,go-2,1,,,,,,
2,461.0,14,phase_2,blue_triangle,go,,,,go-2,1,,,,,,
2,504.0,14,phase_2,green_circle,go,,,,go-1,1,,,,,,
0,0,14,phase_2,blue_rhombus,stop,purple,0.0,0-SSD,go-2,4,,,,,,
0,0,14,phase_2,blue_circle,stop,purple,0.0,0-SSD,go-2,4,,,,,,
0,0,14,phase_2,blue_pentagon,stop,purple,0.0,0-SSD,go-2,4,,,,,,
2,518.0,14,phase_2,blue_circle,go,,,,go-2,1,,,,,,
2,559.0,14,phase_2,green_circle,go,,,,go-1,1,,,,,,
1,692.0,14,phase_2,blue_pentagon,go,,,,go-2,1,,,,,,
1,554.0,14,phase_2,blue_pentagon,go,,,,go-2,1,,,,,,
0,0,14,phase_2,green_triangle,stop,red,200.0,tracking-SSD,go-1,4,,,,,,
1,639.0,14,phase_2,blue_pentagon,go,,,,go-2,1,,,,,,
1,501.0,14,phase_2,green_rhombus,go,,,,go-1,1,,,,,,
1,498.0,14,phase_2,blue_pentagon,go,,,,go-2,1,,,,,,
2,508.0,14,phase_2,blue_triangle,go,,,,go-2,1,,,,,,
1,527.0,14,phase_2,green_pentagon,go,,,,go-1,1,,,,,,
2,446.0,14,phase_2,blue_triangle,stop,red,250.0,tracking-SSD,go-2,3,,,,,,
1,499.0,14,phase_2,blue_rhombus,go,,,,go-2,1,,,,,,
2,598.0,14,phase_2,blue_triangle,go,,,,go-2,1,,,,,,
0,0,14,phase_2,green_triangle,stop,red,200.0,tracking-SSD,go-1,4,,,,,,
0,0,14,phase_2,green_rhombus,stop,purple,0.0,0-SSD,go-1,4,,,,,,
0,0,14,phase_2,blue_circle,stop,purple,0.0,0-SSD,go-2,4,,,,,,
2,407.0,14,phase_2,green_rhombus,go,,,,go-1,2,,,,,,
1,540.0,14,phase_2,blue_pentagon,stop,red,250.0,tracking-SSD,go-2,3,,,,,,
2,684.0,14,phase_2,blue_circle,go,,,,go-2,1,,,,,,
1,962.0,14,phase_2,green_rhombus,go,,,,go-1,1,,,,,,
2,488.0,14,phase_2,green_circle,stop,red,200.0,tracking-SSD,go-1,3,,,,,,
0,0,14,phase_2,green_rhombus,stop,purple,0.0,0-SSD,go-1,4,,,,,,
1,494.0,14,phase_2,green_pentagon,go,,,,go-1,1,,,,,,
2,637.0,14,phase_2,green_circle,go,,,,go-1,1,,,,,,
0,0,14,phase_2,blue_circle,stop,red,150.0,tracking-SSD,go-2,4,,,,,,
0,0,14,phase_2,green_pentagon,stop,purple,0.0,0-SSD,go-1,4,,,,,,
1,798.0,14,phase_2,green_triangle,go,,,,go-1,2,,,,,,
1,492.0,14,phase_2,blue_rhombus,go,,,,go-2,1,,,,,,
2,546.0,14,phase_2,blue_circle,go,,,,go-2,1,,,,,,
1,656.0,14,phase_2,blue_rhombus,go,,,,go-2,1,,,,,,
0,0,14,phase_2,green_rhombus,stop,purple,0.0,0-SSD,go-1,4,,,,,,
2,618.0,14,phase_2,green_triangle,go,,,,go-1,1,,,,,,
2,761.0,14,phase_2,green_triangle,go,,,,go-1,1,,,,,,
2,500.0,14,phase_2,green_triangle,go,,,,go-1,1,,,,,,
1,723.0,14,phase_2,blue_rhombus,go,,,,go-2,1,,,,,,
1,845.0,14,phase_2,blue_pentagon,go,,,,go-2,1,,,,,,
0,0,14,phase_2,blue_rhombus,stop,red,200.0,tracking-SSD,go-2,4,,,,,,
2,488.0,15,phase_2,blue_circle,go,,,,go-2,1,,,,,,
1,643.0,15,phase_2,blue_triangle,stop,red,250.0,tracking-SSD,go-2,3,,,,,,
0,0,15,phase_2,blue_triangle,stop,purple,0.0,0-SSD,go-2,4,,,,,,
1,558.0,15,phase_2,green_pentagon,go,,,,go-1,1,,,,,,
2,556.0,15,phase_2,blue_circle,go,,,,go-2,1,,,,,,
1,677.0,15,phase_2,green_rhombus,go,,,,go-1,1,,,,,,
0,0,15,phase_2,blue_triangle,go,,,,go-2,2,,,,,,
2,470.0,15,phase_2,blue_circle,go,,,,go-2,1,,,,,,
1,558.0,15,phase_2,blue_pentagon,stop,red,200.0,tracking-SSD,go-2,3,,,,,,
1,949.0,15,phase_2,blue_circle,stop,purple,0.0,0-SSD,go-2,3,,,,,,
2,385.0,15,phase_2,blue_triangle,go,,,,go-2,1,,,,,,
0,0,15,phase_2,green_triangle,stop,purple,0.0,0-SSD,go-1,4,,,,,,
2,423.0,15,phase_2,green_circle,go,,,,go-1,1,,,,,,
1,612.0,15,phase_2,green_rhombus,go,,,,go-1,1,,,,,,
2,474.0,15,phase_2,green_circle,go,,,,go-1,1,,,,,,
1,674.0,15,phase_2,blue_rhombus,go,,,,go-2,1,,,,,,
2,739.0,15,phase_2,green_triangle,go,,,,go-1,1,,,,,,
0,0,15,phase_2,blue_pentagon,go,,,,go-2,2,,,,,,
0,0,15,phase_2,blue_pentagon,stop,red,150.0,tracking-SSD,go-2,4,,,,,,
0,0,15,phase_2,green_triangle,go,,,,go-1,2,,,,,,
1,459.0,15,phase_2,blue_rhombus,go,,,,go-2,1,,,,,,
2,581.0,15,phase_2,green_triangle,go,,,,go-1,1,,,,,,
0,0,15,phase_2,green_rhombus,stop,purple,0.0,0-SSD,go-1,4,,,,,,
1,429.0,15,phase_2,green_pentagon,go,,,,go-1,1,,,,,,
1,719.0,15,phase_2,blue_rhombus,go,,,,go-2,1,,,,,,
2,492.0,15,phase_2,green_circle,stop,red,200.0,tracking-SSD,go-1,3,,,,,,
2,377.0,15,phase_2,blue_circle,go,,,,go-2,1,,,,,,
2,543.0,15,phase_2,blue_circle,go,,,,go-2,1,,,,,,
1,450.0,15,phase_2,green_pentagon,go,,,,go-1,1,,,,,,
1,571.0,15,phase_2,blue_rhombus,go,,,,go-2,1,,,,,,
0,0,15,phase_2,green_rhombus,stop,red,150.0,tracking-SSD,go-1,4,,,,,,
0,0,15,phase_2,green_pentagon,stop,red,200.0,tracking-SSD,go-1,4,,,,,,
2,611.0,15,phase_2,blue_triangle,go,,,,go-2,1,,,,,,
0,0,15,phase_2,green_rhombus,stop,purple,0.0,0-SSD,go-1,4,,,,,,
2,788.0,15,phase_2,green_circle,go,,,,go-1,1,,,,,,
0,0,15,phase_2,blue_pentagon,stop,purple,0.0,0-SSD,go-2,4,,,,,,
2,626.0,15,phase_2,blue_triangle,go,,,,go-2,1,,,,,,
0,0,15,phase_2,blue_triangle,stop,purple,0.0,0-SSD,go-2,4,,,,,,
1,498.0,15,phase_2,blue_pentagon,go,,,,go-2,1,,,,,,
1,496.0,15,phase_2,green_rhombus,go,,,,go-1,1,,,,,,
0,0,15,phase_2,green_pentagon,stop,purple,0.0,0-SSD,go-1,4,,,,,,
0,0,15,phase_2,blue_rhombus,stop,red,250.0,tracking-SSD,go-2,4,,,,,,
1,623.0,15,phase_2,blue_rhombus,go,,,,go-2,1,,,,,,
1,463.0,15,phase_2,green_pentagon,stop,red,300.0,tracking-SSD,go-1,3,,,,,,
2,405.0,15,phase_2,green_circle,go,,,,go-1,1,,,,,,
1,459.0,15,phase_2,green_pentagon,go,,,,go-1,1,,,,,,
2,433.0,15,phase_2,green_triangle,go,,,,go-1,1,,,,,,
2,748.0,15,phase_2,green_circle,go,,,,go-1,1,,,,,,
2,601.0,16,phase_2,green_circle,go,,,,go-1,1,,,,,,
1,859.0,16,phase_2,blue_rhombus,go,,,,go-2,1,,,,,,
2,430.0,16,phase_2,blue_circle,stop,red,250.0,tracking-SSD,go-2,3,,,,,,
0,0,16,phase_2,green_circle,stop,red,200.0,tracking-SSD,go-1,4,,,,,,
1,449.0,16,phase_2,blue_pentagon,stop,red,250.0,tracking-SSD,go-2,3,,,,,,
1,481.0,16,phase_2,green_rhombus,go,,,,go-1,1,,,,,,
2,479.0,16,phase_2,blue_rhombus,go,,,,go-2,2,,,,,,
2,476.0,16,phase_2,blue_circle,go,,,,go-2,1,,,,,,
1,440.0,16,phase_2,blue_pentagon,go,,,,go-2,1,,,,,,
2,573.0,16,phase_2,blue_circle,go,,,,go-2,1,,,,,,
1,615.0,16,phase_2,blue_rhombus,go,,,,go-2,1,,,,,,
1,601.0,16,phase_2,blue_rhombus,go,,,,go-2,1,,,,,,
0,0,16,phase_2,green_rhombus,stop,red,200.0,tracking-SSD,go-1,4,,,,,,
2,529.0,16,phase_2,green_triangle,stop,red,250.0,tracking-SSD,go-1,3,,,,,,
2,425.0,16,phase_2,green_triangle,go,,,,go-1,1,,,,,,
0,0,16,phase_2,blue_circle,stop,purple,0.0,0-SSD,go-2,4,,,,,,
2,555.0,16,phase_2,blue_triangle,go,,,,go-2,1,,,,,,
0,0,16,phase_2,blue_circle,stop,red,200.0,tracking-SSD,go-2,4,,,,,,
0,0,16,phase_2,blue_triangle,stop,purple,0.0,0-SSD,go-2,4,,,,,,
1,581.0,16,phase_2,blue_rhombus,go,,,,go-2,1,,,,,,
1,454.0,16,phase_2,blue_pentagon,go,,,,go-2,1,,,,,,
0,0,16,phase_2,green_pentagon,stop,purple,0.0,0-SSD,go-1,4,,,,,,
2,584.0,16,phase_2,green_triangle,go,,,,go-1,1,,,,,,
1,469.0,16,phase_2,green_pentagon,go,,,,go-1,1,,,,,,
2,748.0,16,phase_2,green_triangle,go,,,,go-1,1,,,,,,
2,880.0,16,phase_2,blue_circle,go,,,,go-2,1,,,,,,
1,506.0,16,phase_2,blue_rhombus,go,,,,go-2,1,,,,,,
2,504.0,16,phase_2,blue_triangle,go,,,,go-2,1,,,,,,
2,456.0,16,phase_2,green_triangle,go,,,,go-1,1,,,,,,
1,421.0,16,phase_2,blue_pentagon,stop,red,250.0,tracking-SSD,go-2,3,,,,,,
2,451.0,16,phase_2,green_triangle,go,,,,go-1,1,,,,,,
1,596.0,16,phase_2,blue_rhombus,go,,,,go-2,1,,,,,,
1,470.0,16,phase_2,green_pentagon,go,,,,go-1,1,,,,,,
0,0,16,phase_2,blue_triangle,stop,purple,0.0,0-SSD,go-2,4,,,,,,
2,453.0,16,phase_2,blue_circle,go,,,,go-2,1,,,,,,
1,529.0,16,phase_2,green_triangle,go,,,,go-1,2,,,,,,
2,594.0,16,phase_2,green_circle,go,,,,go-1,1,,,,,,
1,580.0,16,phase_2,green_rhombus,go,,,,go-1,1,,,,,,
0,0,16,phase_2,green_circle,stop,purple,0.0,0-SSD,go-1,4,,,,,,
0,0,16,phase_2,green_pentagon,stop,purple,0.0,0-SSD,go-1,4,,,,,,
1,786.0,16,phase_2,green_pentagon,go,,,,go-1,1,,,,,,
1,468.0,16,phase_2,green_rhombus,go,,,,go-1,1,,,,,,
1,511.0,16,phase_2,blue_pentagon,go,,,,go-2,1,,,,,,
1,879.0,16,phase_2,green_rhombus,go,,,,go-1,1,,,,,,
0,0,16,phase_2,green_triangle,stop,red,200.0,tracking-SSD,go-1,4,,,,,,
0,0,16,phase_2,green_pentagon,stop,purple,0.0,0-SSD,go-1,4,,,,,,
0,0,16,phase_2,blue_pentagon,stop,purple,0.0,0-SSD,go-2,4,,,,,,
2,499.0,16,phase_2,green_circle,go,,,,go-1,1,,,,,,
2,792.0,17,phase_2,blue_pentagon,go,,,,go-2,2,,,,,,
1,485.0,17,phase_2,green_rhombus,go,,,,go-1,1,,,,,,
0,0,17,phase_2,blue_circle,stop,purple,0.0,0-SSD,go-2,4,,,,,,
1,469.0,17,phase_2,blue_rhombus,stop,red,250.0,tracking-SSD,go-2,3,,,,,,
2,399.0,17,phase_2,green_triangle,go,,,,go-1,1,,,,,,
0,0,17,phase_2,blue_triangle,stop,purple,0.0,0-SSD,go-2,4,,,,,,
2,428.0,17,phase_2,green_circle,stop,red,200.0,tracking-SSD,go-1,3,,,,,,
0,0,17,phase_2,green_rhombus,stop,purple,0.0,0-SSD,go-1,4,,,,,,
1,592.0,17,phase_2,blue_rhombus,go,,,,go-2,1,,,,,,
0,0,17,phase_2,blue_triangle,stop,purple,0.0,0-SSD,go-2,4,,,,,,
0,0,17,phase_2,blue_circle,stop,red,150.0,tracking-SSD,go-2,4,,,,,,
0,0,17,phase_2,green_triangle,stop,red,200.0,tracking-SSD,go-1,4,,,,,,
1,526.0,17,phase_2,green_pentagon,go,,,,go-1,1,,,,,,
1,479.0,17,phase_2,green_triangle,go,,,,go-1,2,,,,,,
1,554.0,17,phase_2,green_pentagon,stop,red,250.0,tracking-SSD,go-1,3,,,,,,
2,484.0,17,phase_2,blue_circle,go,,,,go-2,1,,,,,,
2,560.0,17,phase_2,blue_circle,go,,,,go-2,1,,,,,,
0,0,17,phase_2,blue_triangle,stop,purple,0.0,0-SSD,go-2,4,,,,,,
1,533.0,17,phase_2,blue_rhombus,go,,,,go-2,1,,,,,,
2,484.0,17,phase_2,blue_circle,go,,,,go-2,1,,,,,,
1,618.0,17,phase_2,blue_pentagon,go,,,,go-2,1,,,,,,
0,0,17,phase_2,green_triangle,stop,purple,0.0,0-SSD,go-1,4,,,,,,
1,557.0,17,phase_2,blue_rhombus,go,,,,go-2,1,,,,,,
2,791.0,17,phase_2,green_triangle,go,,,,go-1,1,,,,,,
0,0,17,phase_2,green_pentagon,stop,purple,0.0,0-SSD,go-1,4,,,,,,
2,560.0,17,phase_2,blue_circle,go,,,,go-2,1,,,,,,
1,580.0,17,phase_2,green_pentagon,go,,,,go-1,1,,,,,,
2,622.0,17,phase_2,green_circle,go,,,,go-1,1,,,,,,
1,621.0,17,phase_2,blue_pentagon,go,,,,go-2,1,,,,,,
1,640.0,17,phase_2,green_rhombus,go,,,,go-1,1,,,,,,
2,615.0,17,phase_2,blue_circle,go,,,,go-2,1,,,,,,
1,759.0,17,phase_2,blue_triangle,go,,,,go-2,2,,,,,,
1,486.0,17,phase_2,green_rhombus,go,,,,go-1,1,,,,,,
2,562.0,17,phase_2,green_triangle,go,,,,go-1,1,,,,,,
0,0,17,phase_2,green_circle,stop,purple,0.0,0-SSD,go-1,4,,,,,,
1,962.0,17,phase_2,blue_rhombus,go,,,,go-2,1,,,,,,
0,0,17,phase_2,blue_pentagon,stop,red,200.0,tracking-SSD,go-2,4,,,,,,
2,473.0,17,phase_2,green_circle,go,,,,go-1,1,,,,,,
1,527.0,17,phase_2,green_pentagon,go,,,,go-1,1,,,,,,
2,480.0,17,phase_2,blue_triangle,go,,,,go-2,1,,,,,,
1,511.0,17,phase_2,green_pentagon,go,,,,go-1,1,,,,,,
2,609.0,17,phase_2,blue_circle,go,,,,go-2,1,,,,,,
1,528.0,17,phase_2,green_rhombus,go,,,,go-1,1,,,,,,
0,0,17,phase_2,green_triangle,stop,red,250.0,tracking-SSD,go-1,4,,,,,,
1,478.0,17,phase_2,green_pentagon,go,,,,go-1,1,,,,,,
1,903.0,17,phase_2,green_rhombus,go,,,,go-1,1,,,,,,
1,405.0,17,phase_2,blue_rhombus,go,,,,go-2,1,,,,,,
2,785.0,17,phase_2,blue_pentagon,stop,red,300.0,tracking-SSD,go-2,3,,,,,,
,690.0,1,phase_3,,,,,,,,green_square,go-1,green_square,go-1,red_square,tracking-SSD
,774.0,1,phase_3,,,,,,,,blue_square,go-2,blue_square,go-2,red_square,tracking-SSD
,1095.0,1,phase_3,,,,,,,,green_square,go-1,green_square,go-1,purple_square,0-SSD
,945.0,1,phase_3,,,,,,,,blue_square,go-2,green_square,go-1,blue_square,go-2
,412.0,1,phase_3,,,,,,,,blue_square,go-2,blue_square,go-2,purple_square,0-SSD
,1038.0,1,phase_3,,,,,,,,red_square,tracking-SSD,purple_square,0-SSD,red_square,tracking-SSD
,808.0,1,phase_3,,,,,,,,blue_square,go-2,blue_square,go-2,green_square,go-1
,883.0,1,phase_3,,,,,,,,blue_square,go-2,purple_square,0-SSD,blue_square,go-2
,765.0,1,phase_3,,,,,,,,green_square,go-1,red_square,tracking-SSD,green_square,go-1
,739.0,1,phase_3,,,,,,,,green_square,go-1,purple_square,0-SSD,green_square,go-1
,836.0,1,phase_3,,,,,,,,red_square,tracking-SSD,red_square,tracking-SSD,purple_square,0-SSD
,786.0,1,phase_3,,,,,,,,blue_square,go-2,red_square,tracking-SSD,blue_square,go-2
,645.0,2,phase_3,,,,,,,,green_square,go-1,green_square,go-1,red_square,tracking-SSD
,629.0,2,phase_3,,,,,,,,green_square,go-1,green_square,go-1,purple_square,0-SSD
,951.0,2,phase_3,,,,,,,,blue_square,go-2,blue_square,go-2,purple_square,0-SSD
,993.0,2,phase_3,,,,,,,,red_square,tracking-SSD,purple_square,0-SSD,red_square,tracking-SSD
,1022.0,2,phase_3,,,,,,,,blue_square,go-2,green_square,go-1,blue_square,go-2
,746.0,2,phase_3,,,,,,,,blue_square,go-2,blue_square,go-2,red_square,tracking-SSD
,720.0,2,phase_3,,,,,,,,red_square,tracking-SSD,red_square,tracking-SSD,purple_square,0-SSD
,828.0,2,phase_3,,,,,,,,green_square,go-1,red_square,tracking-SSD,green_square,go-1
,2130.0,2,phase_3,,,,,,,,blue_square,go-2,purple_square,0-SSD,blue_square,go-2
,528.0,2,phase_3,,,,,,,,blue_square,go-2,red_square,tracking-SSD,blue_square,go-2
,590.0,2,phase_3,,,,,,,,green_square,go-1,purple_square,0-SSD,green_square,go-1
,900.0,2,phase_3,,,,,,,,blue_square,go-2,blue_square,go-2,green_square,go-1
,521.0,3,phase_3,,,,,,,,blue_square,go-2,blue_square,go-2,red_square,tracking-SSD
,1057.0,3,phase_3,,,,,,,,red_square,tracking-SSD,purple_square,0-SSD,red_square,tracking-SSD
,669.0,3,phase_3,,,,,,,,green_square,go-1,green_square,go-1,purple_square,0-SSD
,554.0,3,phase_3,,,,,,,,blue_square,go-2,blue_square,go-2,purple_square,0-SSD
,762.0,3,phase_3,,,,,,,,green_square,go-1,green_square,go-1,red_square,tracking-SSD
,701.0,3,phase_3,,,,,,,,blue_square,go-2,green_square,go-1,blue_square,go-2
,1564.0,3,phase_3,,,,,,,,red_square,tracking-SSD,red_square,tracking-SSD,purple_square,0-SSD
,996.0,3,phase_3,,,,,,,,blue_square,go-2,blue_square,go-2,green_square,go-1
,553.0,3,phase_3,,,,,,,,blue_square,go-2,red_square,tracking-SSD,blue_square,go-2
,483.0,3,phase_3,,,,,,,,red_square,tracking-SSD,red_square,tracking-SSD,green_square,go-1
,1176.0,3,phase_3,,,,,,,,blue_square,go-2,purple_square,0-SSD,blue_square,go-2
,766.0,3,phase_3,,,,,,,,green_square,go-1,purple_square,0-SSD,green_square,go-1
,611.0,4,phase_3,,,,,,,,green_square,go-1,green_square,go-1,red_square,tracking-SSD
,596.0,4,phase_3,,,,,,,,green_square,go-1,green_square,go-1,purple_square,0-SSD
,726.0,4,phase_3,,,,,,,,blue_square,go-2,blue_square,go-2,red_square,tracking-SSD
,710.0,4,phase_3,,,,,,,,red_square,tracking-SSD,purple_square,0-SSD,red_square,tracking-SSD
,638.0,4,phase_3,,,,,,,,blue_square,go-2,blue_square,go-2,purple_square,0-SSD
,1489.0,4,phase_3,,,,,,,,blue_square,go-2,green_square,go-1,blue_square,go-2
,718.0,4,phase_3,,,,,,,,blue_square,go-2,red_square,tracking-SSD,blue_square,go-2
,659.0,4,phase_3,,,,,,,,green_square,go-1,red_square,tracking-SSD,green_square,go-1
,891.0,4,phase_3,,,,,,,,red_square,tracking-SSD,red_square,tracking-SSD,purple_square,0-SSD
,650.0,4,phase_3,,,,,,,,blue_square,go-2,blue_square,go-2,green_square,go-1
,1501.0,4,phase_3,,,,,,,,green_square,go-1,purple_square,0-SSD,green_square,go-1
,1372.0,4,phase_3,,,,,,,,blue_square,go-2,purple_square,0-SSD,blue_square,go-2
,916.0,5,phase_3,,,,,,,,blue_square,go-2,blue_square,go-2,red_square,tracking-SSD
,507.0,5,phase_3,,,,,,,,green_square,go-1,green_square,go-1,red_square,tracking-SSD
,412.0,5,phase_3,,,,,,,,green_square,go-1,green_square,go-1,purple_square,0-SSD
,374.0,5,phase_3,,,,,,,,blue_square,go-2,blue_square,go-2,purple_square,0-SSD
0,0,5,phase_3,,,,,,,,,,green_square,go-1,blue_square,go-2
,2853.0,5,phase_3,,,,,,,,red_square,tracking-SSD,purple_square,0-SSD,red_square,tracking-SSD
,620.0,5,phase_3,,,,,,,,blue_square,go-2,red_square,tracking-SSD,blue_square,go-2
,514.0,5,phase_3,,,,,,,,blue_square,go-2,purple_square,0-SSD,blue_square,go-2
,712.0,5,phase_3,,,,,,,,green_square,go-1,red_square,tracking-SSD,green_square,go-1
,787.0,5,phase_3,,,,,,,,red_square,tracking-SSD,red_square,tracking-SSD,purple_square,0-SSD
,692.0,5,phase_3,,,,,,,,blue_square,go-2,blue_square,go-2,green_square,go-1
,542.0,5,phase_3,,,,,,,,green_square,go-1,purple_square,0-SSD,green_square,go-1
