response,reaction_time,block,which_phase,stim,stop_signal_trial_type,stop_signal_stimulus,SSD,SSD_type,condition,accuracy,chosen_stim,chosen_cond,stim_left,cond_left,stim_right,cond_right
2,690.0,1,phase_2,purple_rhombus,go,,,,go-2,2,,,,,,
2,631.0,1,phase_2,green_pentagon,go,,,,go-1,1,,,,,,
1,639.0,1,phase_2,purple_rhombus,go,,,,go-2,1,,,,,,
0,0,1,phase_2,purple_pentagon,stop,red,0.0,0-SSD,go-2,4,,,,,,
2,556.0,1,phase_2,purple_circle,go,,,,go-2,1,,,,,,
2,452.0,1,phase_2,green_circle,go,,,,go-1,1,,,,,,
2,518.0,1,phase_2,purple_circle,go,,,,go-2,1,,,,,,
2,549.0,1,phase_2,purple_pentagon,go,,,,go-2,1,,,,,,
1,614.0,1,phase_2,green_triangle,go,,,,go-1,1,,,,,,
2,601.0,1,phase_2,green_pentagon,go,,,,go-1,1,,,,,,
1,610.0,1,phase_2,purple_triangle,go,,,,go-2,1,,,,,,
0,0,1,phase_2,green_rhombus,stop,red,0.0,0-SSD,go-1,4,,,,,,
1,550.0,1,phase_2,green_triangle,go,,,,go-1,1,,,,,,
0,0,1,phase_2,purple_circle,stop,blue,250.0,tracking-SSD,go-2,4,,,,,,
2,512.0,1,phase_2,green_pentagon,go,,,,go-1,1,,,,,,
1,520.0,1,phase_2,green_triangle,go,,,,go-1,1,,,,,,
0,0,1,phase_2,purple_rhombus,stop,red,0.0,0-SSD,go-2,4,,,,,,
1,548.0,1,phase_2,green_triangle,go,,,,go-1,1,,,,,,
2,547.0,1,phase_2,purple_circle,stop,blue,300.0,tracking-SSD,go-2,3,,,,,,
0,0,1,phase_2,purple_circle,stop,red,0.0,0-SSD,go-2,4,,,,,,
0,0,1,phase_2,green_circle,stop,red,0.0,0-SSD,go-1,4,,,,,,
2,538.0,1,phase_2,green_circle,go,,,,go-1,1,,,,,,
0,0,1,phase_2,purple_triangle,stop,blue,250.0,tracking-SSD,go-2,4,,,,,,
2,534.0,1,phase_2,green_rhombus,go,,,,go-1,2,,,,,,
0,0,1,phase_2,green_triangle,stop,blue,300.0,tracking-SSD,go-1,4,,,,,,
2,664.0,1,phase_2,green_circle,go,,,,go-1,1,,,,,,
1,562.0,1,phase_2,green_triangle,go,,,,go-1,1,,,,,,
0,0,1,phase_2,green_rhombus,stop,red,0.0,0-SSD,go-1,4,,,,,,
1,670.0,1,phase_2,purple_rhombus,go,,,,go-2,1,,,,,,
1,465.0,1,phase_2,purple_triangle,go,,,,go-2,1,,,,,,
2,644.0,1,phase_2,purple_pentagon,go,,,,go-2,1,,,,,,
2,597.0,1,phase_2,purple_pentagon,go,,,,go-2,1,,,,,,
0,0,1,phase_2,green_rhombus,stop,blue,350.0,tracking-SSD,go-1,4,,,,,,
2,581.0,1,phase_2,purple_pentagon,go,,,,go-2,1,,,,,,
1,680.0,1,phase_2,green_rhombus,go,,,,go-1,1,,,,,,
1,632.0,1,phase_2,purple_rhombus,go,,,,go-2,1,,,,,,
2,607.0,1,phase_2,green_pentagon,go,,,,go-1,1,,,,,,
2,582.0,1,phase_2,purple_circle,stop,blue,400.0,tracking-SSD,go-2,3,,,,,,
0,0,1,phase_2,green_rhombus,stop,blue,350.0,tracking-SSD,go-1,4,,,,,,
2,589.0,1,phase_2,purple_circle,go,,,,go-2,1,,,,,,
0,0,1,phase_2,green_circle,stop,red,0.0,0-SSD,go-1,4,,,,,,
2,665.0,1,phase_2,purple_pentagon,go,,,,go-2,1,,,,,,
2,594.0,1,phase_2,green_pentagon,stop,blue,400.0,tracking-SSD,go-1,3,,,,,,
1,727.0,1,phase_2,green_triangle,go,,,,go-1,1,,,,,,
0,0,1,phase_2,purple_rhombus,stop,red,0.0,0-SSD,go-2,4,,,,,,
1,688.0,1,phase_2,purple_triangle,go,,,,go-2,1,,,,,,
2,686.0,1,phase_2,purple_pentagon,go,,,,go-2,1,,,,,,
1,594.0,1,phase_2,green_triangle,go,,,,go-1,1,,,,,,
1,972.0,2,phase_2,green_triangle,go,,,,go-1,1,,,,,,
1,645.0,2,phase_2,purple_rhombus,go,,,,go-2,1,,,,,,
0,0,2,phase_2,green_triangle,stop,red,0.0,0-SSD,go-1,4,,,,,,
0,0,2,phase_2,green_triangle,stop,red,0.0,0-SSD,go-1,4,,,,,,
1,662.0,2,phase_2,green_rhombus,go,,,,go-1,1,,,,,,
1,964.0,2,phase_2,purple_triangle,go,,,,go-2,1,,,,,,
1,501.0,2,phase_2,green_triangle,go,,,,go-1,1,,,,,,
0,0,2,phase_2,purple_pentagon,stop,red,0.0,0-SSD,go-2,4,,,,,,
2,407.0,2,phase_2,green_circle,go,,,,go-1,1,,,,,,
1,451.0,2,phase_2,green_pentagon,go,,,,go-1,2,,,,,,
1,573.0,2,phase_2,green_triangle,stop,blue,350.0,tracking-SSD,go-1,3,,,,,,
2,595.0,2,phase_2,green_circle,go,,,,go-1,1,,,,,,
0,0,2,phase_2,green_circle,stop,red,0.0,0-SSD,go-1,4,,,,,,
1,399.0,2,phase_2,green_triangle,go,,,,go-1,1,,,,,,
1,478.0,2,phase_2,green_triangle,go,,,,go-1,1,,,,,,
0,0,2,phase_2,green_pentagon,stop,red,0.0,0-SSD,go-1,4,,,,,,
2,508.0,2,phase_2,purple_pentagon,go,,,,go-2,1,,,,,,
2,495.0,2,phase_2,purple_circle,go,,,,go-2,1,,,,,,
2,527.0,2,phase_2,purple_circle,go,,,,go-2,1,,,,,,
2,481.0,2,phase_2,green_circle,go,,,,go-1,1,,,,,,
2,446.0,2,phase_2,purple_rhombus,stop,blue,300.0,tracking-SSD,go-2,3,,,,,,
2,545.0,2,phase_2,green_pentagon,go,,,,go-1,1,,,,,,
2,374.0,2,phase_2,purple_pentagon,go,,,,go-2,1,,,,,,
1,508.0,2,phase_2,purple_rhombus,go,,,,go-2,1,,,,,,
1,598.0,2,phase_2,purple_rhombus,go,,,,go-2,1,,,,,,
1,470.0,2,phase_2,green_rhombus,stop,blue,250.0,tracking-SSD,go-1,3,,,,,,
0,0,2,phase_2,purple_pentagon,stop,blue,200.0,tracking-SSD,go-2,4,,,,,,
0,0,2,phase_2,green_pentagon,stop,blue,250.0,tracking-SSD,go-1,4,,,,,,
0,0,2,phase_2,green_triangle,stop,blue,300.0,tracking-SSD,go-1,4,,,,,,
2,542.0,2,phase_2,purple_pentagon,go,,,,go-2,1,,,,,,
1,404.0,2,phase_2,purple_triangle,go,,,,go-2,1,,,,,,
2,674.0,2,phase_2,green_circle,go,,,,go-1,1,,,,,,
2,616.0,2,phase_2,purple_pentagon,go,,,,go-2,1,,,,,,
2,422.0,2,phase_2,purple_circle,stop,blue,350.0,tracking-SSD,go-2,3,,,,,,
0,0,2,phase_2,purple_rhombus,stop,red,0.0,0-SSD,go-2,4,,,,,,
2,598.0,2,phase_2,purple_circle,go,,,,go-2,1,,,,,,
2,596.0,2,phase_2,green_rhombus,go,,,,go-1,2,,,,,,
2,471.0,2,phase_2,purple_circle,go,,,,go-2,1,,,,,,
1,604.0,2,phase_2,green_rhombus,go,,,,go-1,1,,,,,,
0,0,2,phase_2,purple_rhombus,stop,red,0.0,0-SSD,go-2,4,,,,,,
1,568.0,2,phase_2,purple_triangle,go,,,,go-2,1,,,,,,
2,566.0,2,phase_2,purple_pentagon,go,,,,go-2,1,,,,,,
0,0,2,phase_2,purple_rhombus,stop,blue,300.0,tracking-SSD,go-2,4,,,,,,
2,538.0,2,phase_2,green_pentagon,go,,,,go-1,1,,,,,,
0,0,2,phase_2,purple_circle,stop,red,0.0,0-SSD,go-2,4,,,,,,
2,579.0,2,phase_2,green_circle,go,,,,go-1,1,,,,,,
1,599.0,2,phase_2,purple_rhombus,go,,,,go-2,1,,,,,,
1,618.0,2,phase_2,green_triangle,go,,,,go-1,1,,,,,,
2,419.0,3,phase_2,green_circle,go,,,,go-1,1,,,,,,
0,0,3,phase_2,purple_circle,stop,red,0.0,0-SSD,go-2,4,,,,,,
2,415.0,3,phase_2,purple_circle,go,,,,go-2,1,,,,,,
1,457.0,3,phase_2,green_triangle,go,,,,go-1,1,,,,,,
1,558.0,3,phase_2,green_rhombus,go,,,,go-1,1,,,,,,
0,0,3,phase_2,green_pentagon,stop,red,0.0,0-SSD,go-1,4,,,,,,
2,442.0,3,phase_2,purple_circle,go,,,,go-2,1,,,,,,
1,542.0,3,phase_2,green_rhombus,go,,,,go-1,1,,,,,,
2,607.0,3,phase_2,purple_pentagon,go,,,,go-2,1,,,,,,
1,572.0,3,phase_2,purple_triangle,go,,,,go-2,1,,,,,,
1,535.0,3,phase_2,purple_triangle,go,,,,go-2,1,,,,,,
2,466.0,3,phase_2,green_circle,go,,,,go-1,1,,,,,,
1,554.0,3,phase_2,purple_rhombus,stop,blue,350.0,tracking-SSD,go-2,3,,,,,,
2,507.0,3,phase_2,green_circle,go,,,,go-1,1,,,,,,
1,561.0,3,phase_2,green_rhombus,go,,,,go-1,1,,,,,,
0,0,3,phase_2,purple_pentagon,stop,red,0.0,0-SSD,go-2,4,,,,,,
1,523.0,3,phase_2,purple_triangle,go,,,,go-2,1,,,,,,
1,509.0,3,phase_2,purple_rhombus,go,,,,go-2,1,,,,,,
2,461.0,3,phase_2,purple_circle,go,,,,go-2,1,,,,,,
1,460.0,3,phase_2,purple_triangle,go,,,,go-2,1,,,,,,
0,0,3,phase_2,purple_rhombus,stop,red,0.0,0-SSD,go-2,4,,,,,,
1,566.0,3,phase_2,purple_triangle,go,,,,go-2,1,,,,,,
2,496.0,3,phase_2,green_pentagon,stop,blue,300.0,tracking-SSD,go-1,3,,,,,,
2,382.0,3,phase_2,green_circle,go,,,,go-1,1,,,,,,
1,447.0,3,phase_2,green_pentagon,go,,,,go-1,2,,,,,,
2,525.0,3,phase_2,purple_pentagon,go,,,,go-2,1,,,,,,
1,612.0,3,phase_2,green_triangle,stop,blue,250.0,tracking-SSD,go-1,3,,,,,,
2,509.0,3,phase_2,green_pentagon,go,,,,go-1,1,,,,,,
2,541.0,3,phase_2,green_rhombus,go,,,,go-1,2,,,,,,
0,0,3,phase_2,green_rhombus,stop,blue,200.0,tracking-SSD,go-1,4,,,,,,
1,582.0,3,phase_2,purple_rhombus,go,,,,go-2,1,,,,,,
0,0,3,phase_2,green_pentagon,stop,red,0.0,0-SSD,go-1,4,,,,,,
0,0,3,phase_2,green_pentagon,stop,red,0.0,0-SSD,go-1,4,,,,,,
2,598.0,3,phase_2,purple_circle,go,,,,go-2,1,,,,,,
1,505.0,3,phase_2,purple_triangle,go,,,,go-2,1,,,,,,
1,593.0,3,phase_2,purple_rhombus,go,,,,go-2,1,,,,,,
1,511.0,3,phase_2,green_triangle,go,,,,go-1,1,,,,,,
0,0,3,phase_2,purple_circle,stop,blue,250.0,tracking-SSD,go-2,4,,,,,,
0,0,3,phase_2,green_pentagon,stop,red,0.0,0-SSD,go-1,4,,,,,,
0,0,3,phase_2,purple_rhombus,stop,red,0.0,0-SSD,go-2,4,,,,,,
0,0,3,phase_2,green_triangle,stop,blue,300.0,tracking-SSD,go-1,4,,,,,,
1,714.0,3,phase_2,purple_pentagon,go,,,,go-2,2,,,,,,
2,555.0,3,phase_2,green_circle,go,,,,go-1,1,,,,,,
2,530.0,3,phase_2,green_circle,go,,,,go-1,1,,,,,,
1,640.0,3,phase_2,green_triangle,go,,,,go-1,1,,,,,,
0,0,3,phase_2,purple_pentagon,stop,blue,350.0,tracking-SSD,go-2,4,,,,,,
1,556.0,3,phase_2,green_triangle,go,,,,go-1,1,,,,,,
1,565.0,3,phase_2,purple_rhombus,stop,blue,400.0,tracking-SSD,go-2,3,,,,,,
0,0,4,phase_2,green_pentagon,stop,red,0.0,0-SSD,go-1,4,,,,,,
0,0,4,phase_2,green_circle,stop,red,0.0,0-SSD,go-1,4,,,,,,
0,0,4,phase_2,green_circle,stop,red,0.0,0-SSD,go-1,4,,,,,,
1,605.0,4,phase_2,green_rhombus,go,,,,go-1,1,,,,,,
2,638.0,4,phase_2,purple_pentagon,go,,,,go-2,1,,,,,,
2,534.0,4,phase_2,purple_pentagon,go,,,,go-2,1,,,,,,
1,531.0,4,phase_2,green_triangle,go,,,,go-1,1,,,,,,
2,495.0,4,phase_2,purple_pentagon,go,,,,go-2,1,,,,,,
2,550.0,4,phase_2,green_circle,go,,,,go-1,1,,,,,,
1,538.0,4,phase_2,green_rhombus,go,,,,go-1,1,,,,,,
1,581.0,4,phase_2,purple_triangle,stop,blue,350.0,tracking-SSD,go-2,3,,,,,,
0,0,4,phase_2,purple_triangle,stop,red,0.0,0-SSD,go-2,4,,,,,,
0,0,4,phase_2,purple_pentagon,stop,red,0.0,0-SSD,go-2,4,,,,,,
2,586.0,4,phase_2,purple_circle,go,,,,go-2,1,,,,,,
0,0,4,phase_2,green_circle,stop,red,0.0,0-SSD,go-1,4,,,,,,
2,618.0,4,phase_2,green_pentagon,go,,,,go-1,1,,,,,,
1,637.0,4,phase_2,purple_rhombus,go,,,,go-2,1,,,,,,
2,534.0,4,phase_2,purple_circle,stop,blue,300.0,tracking-SSD,go-2,3,,,,,,
0,0,4,phase_2,purple_rhombus,stop,blue,250.0,tracking-SSD,go-2,4,,,,,,
1,565.0,4,phase_2,purple_triangle,go,,,,go-2,1,,,,,,
0,0,4,phase_2,green_rhombus,stop,blue,300.0,tracking-SSD,go-1,4,,,,,,
0,0,4,phase_2,purple_triangle,stop,red,0.0,0-SSD,go-2,4,,,,,,
2,559.0,4,phase_2,green_pentagon,stop,blue,350.0,tracking-SSD,go-1,3,,,,,,
1,534.0,4,phase_2,green_triangle,go,,,,go-1,1,,,,,,
0,0,4,phase_2,green_pentagon,stop,blue,300.0,tracking-SSD,go-1,4,,,,,,
1,621.0,4,phase_2,green_rhombus,go,,,,go-1,1,,,,,,
2,528.0,4,phase_2,green_circle,go,,,,go-1,1,,,,,,
1,483.0,4,phase_2,green_triangle,go,,,,go-1,1,,,,,,
2,526.0,4,phase_2,purple_pentagon,go,,,,go-2,1,,,,,,
1,536.0,4,phase_2,green_rhombus,go,,,,go-1,1,,,,,,
1,544.0,4,phase_2,green_triangle,go,,,,go-1,1,,,,,,
0,0,4,phase_2,purple_rhombus,stop,red,0.0,0-SSD,go-2,4,,,,,,
2,573.0,4,phase_2,green_circle,go,,,,go-1,1,,,,,,
1,537.0,4,phase_2,purple_rhombus,go,,,,go-2,1,,,,,,
0,0,4,phase_2,purple_circle,stop,blue,350.0,tracking-SSD,go-2,4,,,,,,
2,589.0,4,phase_2,green_pentagon,go,,,,go-1,1,,,,,,
1,563.0,4,phase_2,purple_rhombus,go,,,,go-2,1,,,,,,
2,595.0,4,phase_2,green_circle,go,,,,go-1,1,,,,,,
2,570.0,4,phase_2,purple_pentagon,go,,,,go-2,1,,,,,,
1,467.0,4,phase_2,purple_triangle,go,,,,go-2,1,,,,,,
1,567.0,4,phase_2,purple_rhombus,go,,,,go-2,1,,,,,,
2,553.0,4,phase_2,purple_circle,go,,,,go-2,1,,,,,,
1,462.0,4,phase_2,purple_triangle,go,,,,go-2,1,,,,,,
2,549.0,4,phase_2,purple_circle,go,,,,go-2,1,,,,,,
1,524.0,4,phase_2,purple_pentagon,go,,,,go-2,2,,,,,,
1,489.0,4,phase_2,green_triangle,stop,blue,400.0,tracking-SSD,go-1,3,,,,,,
1,656.0,4,phase_2,green_rhombus,go,,,,go-1,1,,,,,,
1,564.0,4,phase_2,green_triangle,go,,,,go-1,1,,,,,,
0,0,5,phase_2,purple_rhombus,stop,blue,350.0,tracking-SSD,go-2,4,,,,,,
1,462.0,5,phase_2,green_rhombus,go,,,,go-1,1,,,,,,
0,0,5,phase_2,green_pentagon,stop,red,0.0,0-SSD,go-1,4,,,,,,
2,503.0,5,phase_2,green_pentagon,go,,,,go-1,1,,,,,,
0,0,5,phase_2,purple_rhombus,stop,red,0.0,0-SSD,go-2,4,,,,,,
2,523.0,5,phase_2,purple_circle,go,,,,go-2,1,,,,,,
1,531.0,5,phase_2,green_rhombus,go,,,,go-1,1,,,,,,
2,517.0,5,phase_2,purple_pentagon,stop,blue,400.0,tracking-SSD,go-2,3,,,,,,
2,503.0,5,phase_2,green_pentagon,go,,,,go-1,1,,,,,,
1,557.0,5,phase_2,purple_triangle,go,,,,go-2,1,,,,,,
2,522.0,5,phase_2,purple_circle,go,,,,go-2,1,,,,,,
0,0,5,phase_2,green_rhombus,stop,red,0.0,0-SSD,go-1,4,,,,,,
1,471.0,5,phase_2,purple_triangle,go,,,,go-2,1,,,,,,
2,503.0,5,phase_2,green_pentagon,go,,,,go-1,1,,,,,,
2,580.0,5,phase_2,purple_circle,go,,,,go-2,1,,,,,,
1,466.0,5,phase_2,purple_triangle,go,,,,go-2,1,,,,,,
2,430.0,5,phase_2,green_circle,stop,blue,350.0,tracking-SSD,go-1,3,,,,,,
2,495.0,5,phase_2,green_rhombus,stop,blue,300.0,tracking-SSD,go-1,3,,,,,,
0,0,5,phase_2,green_triangle,stop,blue,250.0,tracking-SSD,go-1,4,,,,,,
1,535.0,5,phase_2,green_pentagon,go,,,,go-1,2,,,,,,
1,409.0,5,phase_2,purple_triangle,go,,,,go-2,1,,,,,,
0,0,5,phase_2,purple_rhombus,stop,red,0.0,0-SSD,go-2,4,,,,,,
1,529.0,5,phase_2,green_rhombus,go,,,,go-1,1,,,,,,
2,492.0,5,phase_2,green_circle,go,,,,go-1,1,,,,,,
0,0,5,phase_2,purple_triangle,stop,red,0.0,0-SSD,go-2,4,,,,,,
0,0,5,phase_2,green_pentagon,stop,red,0.0,0-SSD,go-1,4,,,,,,
2,576.0,5,phase_2,purple_pentagon,go,,,,go-2,1,,,,,,
1,595.0,5,phase_2,purple_rhombus,go,,,,go-2,1,,,,,,
2,840.0,5,phase_2,green_triangle,go,,,,go-1,2,,,,,,
2,534.0,5,phase_2,green_pentagon,go,,,,go-1,1,,,,,,
1,509.0,5,phase_2,purple_triangle,go,,,,go-2,1,,,,,,
2,541.0,5,phase_2,green_circle,go,,,,go-1,1,,,,,,
1,415.0,5,phase_2,green_triangle,go,,,,go-1,1,,,,,,
0,0,5,phase_2,purple_pentagon,stop,blue,300.0,tracking-SSD,go-2,4,,,,,,
2,524.0,5,phase_2,purple_pentagon,go,,,,go-2,1,,,,,,
2,667.0,5,phase_2,green_circle,go,,,,go-1,1,,,,,,
0,0,5,phase_2,green_triangle,stop,red,0.0,0-SSD,go-1,4,,,,,,
1,540.0,5,phase_2,purple_rhombus,go,,,,go-2,1,,,,,,
1,492.0,5,phase_2,green_rhombus,go,,,,go-1,1,,,,,,
1,446.0,5,phase_2,purple_triangle,stop,blue,350.0,tracking-SSD,go-2,3,,,,,,
2,522.0,5,phase_2,purple_circle,go,,,,go-2,1,,,,,,
2,497.0,5,phase_2,green_circle,go,,,,go-1,1,,,,,,
2,495.0,5,phase_2,green_circle,stop,blue,300.0,tracking-SSD,go-1,3,,,,,,
2,438.0,5,phase_2,purple_circle,go,,,,go-2,1,,,,,,
0,0,5,phase_2,purple_circle,stop,red,0.0,0-SSD,go-2,4,,,,,,
1,511.0,5,phase_2,green_triangle,go,,,,go-1,1,,,,,,
2,598.0,5,phase_2,purple_pentagon,go,,,,go-2,1,,,,,,
1,676.0,5,phase_2,purple_rhombus,go,,,,go-2,1,,,,,,
2,532.0,6,phase_2,green_circle,go,,,,go-1,1,,,,,,
2,418.0,6,phase_2,green_circle,stop,blue,250.0,tracking-SSD,go-1,3,,,,,,
1,573.0,6,phase_2,purple_triangle,go,,,,go-2,1,,,,,,
1,413.0,6,phase_2,purple_triangle,go,,,,go-2,1,,,,,,
1,411.0,6,phase_2,green_rhombus,go,,,,go-1,1,,,,,,
0,0,6,phase_2,purple_triangle,stop,red,0.0,0-SSD,go-2,4,,,,,,
2,575.0,6,phase_2,green_pentagon,go,,,,go-1,1,,,,,,
2,459.0,6,phase_2,green_circle,go,,,,go-1,1,,,,,,
2,469.0,6,phase_2,purple_pentagon,go,,,,go-2,1,,,,,,
0,0,6,phase_2,purple_pentagon,stop,blue,200.0,tracking-SSD,go-2,4,,,,,,
2,399.0,6,phase_2,purple_pentagon,go,,,,go-2,1,,,,,,
2,486.0,6,phase_2,purple_circle,go,,,,go-2,1,,,,,,
1,562.0,6,phase_2,purple_rhombus,go,,,,go-2,1,,,,,,
2,549.0,6,phase_2,green_pentagon,go,,,,go-1,1,,,,,,
2,579.0,6,phase_2,purple_circle,go,,,,go-2,1,,,,,,
0,0,6,phase_2,purple_circle,stop,blue,250.0,tracking-SSD,go-2,4,,,,,,
0,0,6,phase_2,green_circle,stop,red,0.0,0-SSD,go-1,4,,,,,,
2,393.0,6,phase_2,green_pentagon,go,,,,go-1,1,,,,,,
1,379.0,6,phase_2,purple_triangle,go,,,,go-2,1,,,,,,
2,457.0,6,phase_2,purple_circle,go,,,,go-2,1,,,,,,
0,0,6,phase_2,green_rhombus,stop,red,0.0,0-SSD,go-1,4,,,,,,
2,553.0,6,phase_2,green_pentagon,go,,,,go-1,1,,,,,,
1,450.0,6,phase_2,purple_triangle,go,,,,go-2,1,,,,,,
2,492.0,6,phase_2,green_pentagon,go,,,,go-1,1,,,,,,
2,748.0,6,phase_2,green_rhombus,go,,,,go-1,2,,,,,,
1,554.0,6,phase_2,purple_triangle,go,,,,go-2,1,,,,,,
1,484.0,6,phase_2,green_triangle,go,,,,go-1,1,,,,,,
2,482.0,6,phase_2,green_pentagon,go,,,,go-1,1,,,,,,
0,0,6,phase_2,purple_triangle,stop,red,0.0,0-SSD,go-2,4,,,,,,
2,532.0,6,phase_2,purple_circle,go,,,,go-2,1,,,,,,
2,429.0,6,phase_2,green_circle,go,,,,go-1,1,,,,,,
0,0,6,phase_2,purple_triangle,stop,red,0.0,0-SSD,go-2,4,,,,,,
2,593.0,6,phase_2,purple_pentagon,go,,,,go-2,1,,,,,,
2,489.0,6,phase_2,purple_circle,go,,,,go-2,1,,,,,,
1,554.0,6,phase_2,green_rhombus,go,,,,go-1,1,,,,,,
2,686.0,6,phase_2,purple_rhombus,go,,,,go-2,2,,,,,,
1,673.0,6,phase_2,green_triangle,stop,blue,300.0,tracking-SSD,go-1,3,,,,,,
2,648.0,6,phase_2,green_pentagon,stop,blue,250.0,tracking-SSD,go-1,3,,,,,,
0,0,6,phase_2,purple_triangle,stop,red,0.0,0-SSD,go-2,4,,,,,,
0,0,6,phase_2,purple_rhombus,stop,blue,200.0,tracking-SSD,go-2,4,,,,,,
1,629.0,6,phase_2,purple_rhombus,go,,,,go-2,1,,,,,,
2,480.0,6,phase_2,green_triangle,go,,,,go-1,2,,,,,,
2,399.0,6,phase_2,green_circle,go,,,,go-1,1,,,,,,
0,0,6,phase_2,green_rhombus,stop,blue,250.0,tracking-SSD,go-1,4,,,,,,
1,607.0,6,phase_2,purple_rhombus,stop,blue,300.0,tracking-SSD,go-2,3,,,,,,
0,0,6,phase_2,green_rhombus,stop,red,0.0,0-SSD,go-1,4,,,,,,
2,569.0,6,phase_2,green_pentagon,go,,,,go-1,1,,,,,,
0,0,6,phase_2,green_rhombus,stop,red,0.0,0-SSD,go-1,4,,,,,,
0,0,7,phase_2,green_triangle,stop,red,0.0,0-SSD,go-1,4,,,,,,
1,496.0,7,phase_2,purple_triangle,go,,,,go-2,1,,,,,,
2,560.0,7,phase_2,purple_circle,go,,,,go-2,1,,,,,,
2,468.0,7,phase_2,purple_circle,go,,,,go-2,1,,,,,,
1,455.0,7,phase_2,purple_triangle,go,,,,go-2,1,,,,,,
1,666.0,7,phase_2,green_rhombus,go,,,,go-1,1,,,,,,
2,506.0,7,phase_2,green_circle,go,,,,go-1,1,,,,,,
2,559.0,7,phase_2,green_pentagon,go,,,,go-1,1,,,,,,
2,500.0,7,phase_2,purple_pentagon,go,,,,go-2,1,,,,,,
2,454.0,7,phase_2,purple_pentagon,go,,,,go-2,1,,,,,,
0,0,7,phase_2,purple_pentagon,stop,red,0.0,0-SSD,go-2,4,,,,,,
1,505.0,7,phase_2,green_triangle,go,,,,go-1,1,,,,,,
0,0,7,phase_2,purple_triangle,stop,red,0.0,0-SSD,go-2,4,,,,,,
1,490.0,7,phase_2,green_rhombus,go,,,,go-1,1,,,,,,
1,533.0,7,phase_2,green_rhombus,go,,,,go-1,1,,,,,,
0,0,7,phase_2,green_triangle,stop,red,0.0,0-SSD,go-1,4,,,,,,
2,575.0,7,phase_2,purple_circle,stop,blue,250.0,tracking-SSD,go-2,3,,,,,,
2,471.0,7,phase_2,green_circle,go,,,,go-1,1,,,,,,
0,0,7,phase_2,purple_circle,stop,red,0.0,0-SSD,go-2,4,,,,,,
0,0,7,phase_2,green_pentagon,stop,red,0.0,0-SSD,go-1,4,,,,,,
2,453.0,7,phase_2,green_circle,go,,,,go-1,1,,,,,,
2,529.0,7,phase_2,green_pentagon,go,,,,go-1,1,,,,,,
2,527.0,7,phase_2,purple_pentagon,go,,,,go-2,1,,,,,,
2,559.0,7,phase_2,purple_pentagon,go,,,,go-2,1,,,,,,
1,591.0,7,phase_2,green_rhombus,go,,,,go-1,1,,,,,,
1,645.0,7,phase_2,purple_rhombus,go,,,,go-2,1,,,,,,
0,0,7,phase_2,green_circle,stop,blue,200.0,tracking-SSD,go-1,4,,,,,,
1,552.0,7,phase_2,purple_rhombus,go,,,,go-2,1,,,,,,
2,527.0,7,phase_2,green_circle,go,,,,go-1,1,,,,,,
1,526.0,7,phase_2,purple_triangle,go,,,,go-2,1,,,,,,
0,0,7,phase_2,purple_rhombus,stop,blue,250.0,tracking-SSD,go-2,4,,,,,,
2,588.0,7,phase_2,purple_pentagon,go,,,,go-2,1,,,,,,
2,427.0,7,phase_2,purple_pentagon,go,,,,go-2,1,,,,,,
1,651.0,7,phase_2,green_triangle,stop,blue,300.0,tracking-SSD,go-1,3,,,,,,
2,649.0,7,phase_2,purple_pentagon,go,,,,go-2,1,,,,,,
1,635.0,7,phase_2,purple_rhombus,go,,,,go-2,1,,,,,,
1,678.0,7,phase_2,green_rhombus,go,,,,go-1,1,,,,,,
0,0,7,phase_2,purple_pentagon,stop,red,0.0,0-SSD,go-2,4,,,,,,
1,596.0,7,phase_2,green_rhombus,go,,,,go-1,1,,,,,,
1,627.0,7,phase_2,green_triangle,stop,blue,250.0,tracking-SSD,go-1,3,,,,,,
0,0,7,phase_2,green_triangle,stop,blue,200.0,tracking-SSD,go-1,4,,,,,,
1,521.0,7,phase_2,green_triangle,go,,,,go-1,1,,,,,,
0,0,7,phase_2,green_circle,stop,red,0.0,0-SSD,go-1,4,,,,,,
1,561.0,7,phase_2,green_triangle,go,,,,go-1,1,,,,,,
0,0,7,phase_2,purple_circle,stop,blue,250.0,tracking-SSD,go-2,4,,,,,,
1,545.0,7,phase_2,green_rhombus,go,,,,go-1,1,,,,,,
0,0,7,phase_2,purple_rhombus,stop,blue,300.0,tracking-SSD,go-2,4,,,,,,
2,519.0,7,phase_2,purple_circle,go,,,,go-2,1,,,,,,
0,0,8,phase_2,green_rhombus,stop,red,0.0,0-SSD,go-1,4,,,,,,
1,587.0,8,phase_2,purple_triangle,go,,,,go-2,1,,,,,,
1,528.0,8,phase_2,green_triangle,go,,,,go-1,1,,,,,,
1,547.0,8,phase_2,green_rhombus,go,,,,go-1,1,,,,,,
2,489.0,8,phase_2,purple_circle,go,,,,go-2,1,,,,,,
1,531.0,8,phase_2,green_triangle,go,,,,go-1,1,,,,,,
2,631.0,8,phase_2,green_pentagon,go,,,,go-1,1,,,,,,
1,504.0,8,phase_2,green_rhombus,go,,,,go-1,1,,,,,,
0,0,8,phase_2,purple_rhombus,stop,red,0.0,0-SSD,go-2,4,,,,,,
0,0,8,phase_2,purple_circle,stop,red,0.0,0-SSD,go-2,4,,,,,,
2,699.0,8,phase_2,purple_pentagon,go,,,,go-2,1,,,,,,
2,450.0,8,phase_2,purple_pentagon,stop,blue,350.0,tracking-SSD,go-2,3,,,,,,
1,594.0,8,phase_2,green_rhombus,go,,,,go-1,1,,,,,,
0,0,8,phase_2,purple_pentagon,stop,red,0.0,0-SSD,go-2,4,,,,,,
2,613.0,8,phase_2,purple_circle,go,,,,go-2,1,,,,,,
2,465.0,8,phase_2,green_circle,go,,,,go-1,1,,,,,,
1,575.0,8,phase_2,green_triangle,go,,,,go-1,1,,,,,,
2,550.0,8,phase_2,purple_circle,go,,,,go-2,1,,,,,,
0,0,8,phase_2,green_circle,stop,red,0.0,0-SSD,go-1,4,,,,,,
0,0,8,phase_2,purple_triangle,stop,red,0.0,0-SSD,go-2,4,,,,,,
0,0,8,phase_2,green_pentagon,stop,red,0.0,0-SSD,go-1,4,,,,,,
2,518.0,8,phase_2,purple_circle,go,,,,go-2,1,,,,,,
1,503.0,8,phase_2,green_triangle,go,,,,go-1,1,,,,,,
1,536.0,8,phase_2,green_triangle,go,,,,go-1,1,,,,,,
1,523.0,8,phase_2,green_rhombus,go,,,,go-1,1,,,,,,
0,0,8,phase_2,green_triangle,stop,red,0.0,0-SSD,go-1,4,,,,,,
2,474.0,8,phase_2,purple_circle,stop,blue,300.0,tracking-SSD,go-2,3,,,,,,
0,0,8,phase_2,purple_circle,stop,blue,250.0,tracking-SSD,go-2,4,,,,,,
1,560.0,8,phase_2,purple_triangle,go,,,,go-2,1,,,,,,
1,435.0,8,phase_2,purple_triangle,go,,,,go-2,1,,,,,,
2,534.0,8,phase_2,purple_pentagon,go,,,,go-2,1,,,,,,
2,486.0,8,phase_2,green_circle,go,,,,go-1,1,,,,,,
1,585.0,8,phase_2,purple_rhombus,go,,,,go-2,1,,,,,,
1,494.0,8,phase_2,green_triangle,stop,blue,300.0,tracking-SSD,go-1,3,,,,,,
1,560.0,8,phase_2,green_triangle,go,,,,go-1,1,,,,,,
2,411.0,8,phase_2,purple_circle,go,,,,go-2,1,,,,,,
0,0,8,phase_2,green_rhombus,stop,blue,250.0,tracking-SSD,go-1,4,,,,,,
1,484.0,8,phase_2,purple_rhombus,go,,,,go-2,1,,,,,,
2,516.0,8,phase_2,green_pentagon,stop,blue,300.0,tracking-SSD,go-1,3,,,,,,
2,547.0,8,phase_2,purple_pentagon,go,,,,go-2,1,,,,,,
1,533.0,8,phase_2,purple_rhombus,go,,,,go-2,1,,,,,,
2,565.0,8,phase_2,green_circle,go,,,,go-1,1,,,,,,
0,0,8,phase_2,purple_pentagon,stop,blue,250.0,tracking-SSD,go-2,4,,,,,,
0,0,8,phase_2,green_rhombus,stop,blue,300.0,tracking-SSD,go-1,4,,,,,,
2,569.0,8,phase_2,green_pentagon,go,,,,go-1,1,,,,,,
2,635.0,8,phase_2,purple_pentagon,go,,,,go-2,1,,,,,,
1,531.0,8,phase_2,green_rhombus,go,,,,go-1,1,,,,,,
2,776.0,8,phase_2,purple_pentagon,go,,,,go-2,1,,,,,,
1,555.0,9,phase_2,purple_rhombus,go,,,,go-2,1,,,,,,
2,384.0,9,phase_2,purple_pentagon,go,,,,go-2,1,,,,,,
2,550.0,9,phase_2,green_circle,go,,,,go-1,1,,,,,,
2,401.0,9,phase_2,green_circle,stop,blue,350.0,tracking-SSD,go-1,3,,,,,,
1,500.0,9,phase_2,green_triangle,stop,blue,300.0,tracking-SSD,go-1,3,,,,,,
2,497.0,9,phase_2,green_circle,go,,,,go-1,1,,,,,,
2,496.0,9,phase_2,green_pentagon,go,,,,go-1,1,,,,,,
2,550.0,9,phase_2,purple_pentagon,stop,blue,250.0,tracking-SSD,go-2,3,,,,,,
0,0,9,phase_2,green_pentagon,stop,red,0.0,0-SSD,go-1,4,,,,,,
2,510.0,9,phase_2,green_pentagon,go,,,,go-1,1,,,,,,
2,405.0,9,phase_2,purple_pentagon,go,,,,go-2,1,,,,,,
2,504.0,9,phase_2,purple_circle,go,,,,go-2,1,,,,,,
0,0,9,phase_2,purple_pentagon,stop,red,0.0,0-SSD,go-2,4,,,,,,
1,567.0,9,phase_2,purple_triangle,go,,,,go-2,1,,,,,,
2,497.0,9,phase_2,purple_pentagon,go,,,,go-2,1,,,,,,
1,606.0,9,phase_2,green_rhombus,go,,,,go-1,1,,,,,,
2,502.0,9,phase_2,green_circle,go,,,,go-1,1,,,,,,
0,0,9,phase_2,purple_triangle,stop,blue,200.0,tracking-SSD,go-2,4,,,,,,
1,565.0,9,phase_2,green_rhombus,go,,,,go-1,1,,,,,,
0,0,9,phase_2,green_rhombus,stop,red,0.0,0-SSD,go-1,4,,,,,,
2,462.0,9,phase_2,green_circle,go,,,,go-1,1,,,,,,
1,493.0,9,phase_2,purple_triangle,go,,,,go-2,1,,,,,,
2,501.0,9,phase_2,purple_circle,go,,,,go-2,1,,,,,,
1,555.0,9,phase_2,green_triangle,go,,,,go-1,1,,,,,,
0,0,9,phase_2,green_rhombus,stop,red,0.0,0-SSD,go-1,4,,,,,,
1,540.0,9,phase_2,purple_rhombus,go,,,,go-2,1,,,,,,
1,424.0,9,phase_2,green_rhombus,go,,,,go-1,1,,,,,,
0,0,9,phase_2,purple_pentagon,stop,red,0.0,0-SSD,go-2,4,,,,,,
2,522.0,9,phase_2,green_circle,go,,,,go-1,1,,,,,,
1,452.0,9,phase_2,purple_triangle,stop,blue,250.0,tracking-SSD,go-2,3,,,,,,
1,574.0,9,phase_2,purple_triangle,go,,,,go-2,1,,,,,,
0,0,9,phase_2,green_rhombus,stop,red,0.0,0-SSD,go-1,4,,,,,,
1,456.0,9,phase_2,green_rhombus,go,,,,go-1,1,,,,,,
1,521.0,9,phase_2,green_rhombus,go,,,,go-1,1,,,,,,
0,0,9,phase_2,purple_circle,stop,red,0.0,0-SSD,go-2,4,,,,,,
1,540.0,9,phase_2,green_triangle,go,,,,go-1,1,,,,,,
0,0,9,phase_2,purple_pentagon,stop,blue,200.0,tracking-SSD,go-2,4,,,,,,
2,500.0,9,phase_2,green_pentagon,go,,,,go-1,1,,,,,,
1,565.0,9,phase_2,purple_rhombus,go,,,,go-2,1,,,,,,
2,620.0,9,phase_2,purple_circle,go,,,,go-2,1,,,,,,
2,437.0,9,phase_2,green_circle,go,,,,go-1,1,,,,,,
2,468.0,9,phase_2,purple_circle,go,,,,go-2,1,,,,,,
1,500.0,9,phase_2,green_triangle,stop,blue,250.0,tracking-SSD,go-1,3,,,,,,
1,407.0,9,phase_2,purple_triangle,go,,,,go-2,1,,,,,,
0,0,9,phase_2,green_triangle,stop,blue,200.0,tracking-SSD,go-1,4,,,,,,
2,559.0,9,phase_2,purple_pentagon,go,,,,go-2,1,,,,,,
0,0,9,phase_2,purple_rhombus,stop,red,0.0,0-SSD,go-2,4,,,,,,
1,599.0,9,phase_2,purple_triangle,go,,,,go-2,1,,,,,,
0,0,10,phase_2,purple_circle,stop,red,0.0,0-SSD,go-2,4,,,,,,
2,496.0,10,phase_2,purple_pentagon,go,,,,go-2,1,,,,,,
2,505.0,10,phase_2,purple_rhombus,go,,,,go-2,2,,,,,,
1,549.0,10,phase_2,purple_rhombus,go,,,,go-2,1,,,,,,
1,535.0,10,phase_2,green_pentagon,go,,,,go-1,2,,,,,,
2,543.0,10,phase_2,purple_circle,go,,,,go-2,1,,,,,,
1,484.0,10,phase_2,purple_triangle,go,,,,go-2,1,,,,,,
1,573.0,10,phase_2,green_rhombus,go,,,,go-1,1,,,,,,
1,638.0,10,phase_2,purple_triangle,stop,blue,250.0,tracking-SSD,go-2,3,,,,,,
0,0,10,phase_2,green_pentagon,stop,blue,200.0,tracking-SSD,go-1,4,,,,,,
2,464.0,10,phase_2,purple_pentagon,go,,,,go-2,1,,,,,,
1,472.0,10,phase_2,green_triangle,go,,,,go-1,1,,,,,,
1,549.0,10,phase_2,purple_rhombus,go,,,,go-2,1,,,,,,
1,445.0,10,phase_2,purple_rhombus,go,,,,go-2,1,,,,,,
1,588.0,10,phase_2,green_rhombus,stop,blue,250.0,tracking-SSD,go-1,3,,,,,,
0,0,10,phase_2,purple_pentagon,stop,red,0.0,0-SSD,go-2,4,,,,,,
0,0,10,phase_2,green_circle,stop,red,0.0,0-SSD,go-1,4,,,,,,
2,537.0,10,phase_2,purple_pentagon,go,,,,go-2,1,,,,,,
2,511.0,10,phase_2,purple_circle,go,,,,go-2,1,,,,,,
1,464.0,10,phase_2,green_triangle,go,,,,go-1,1,,,,,,
2,505.0,10,phase_2,green_circle,go,,,,go-1,1,,,,,,
0,0,10,phase_2,purple_circle,stop,blue,200.0,tracking-SSD,go-2,4,,,,,,
1,535.0,10,phase_2,purple_rhombus,go,,,,go-2,1,,,,,,
2,510.0,10,phase_2,green_pentagon,go,,,,go-1,1,,,,,,
1,462.0,10,phase_2,purple_circle,stop,blue,250.0,tracking-SSD,go-2,3,,,,,,
0,0,10,phase_2,green_rhombus,stop,blue,200.0,tracking-SSD,go-1,4,,,,,,
2,595.0,10,phase_2,purple_pentagon,go,,,,go-2,1,,,,,,
2,502.0,10,phase_2,green_pentagon,go,,,,go-1,1,,,,,,
0,0,10,phase_2,green_rhombus,stop,red,0.0,0-SSD,go-1,4,,,,,,
0,0,10,phase_2,green_circle,stop,blue,250.0,tracking-SSD,go-1,4,,,,,,
1,573.0,10,phase_2,purple_triangle,go,,,,go-2,1,,,,,,
2,514.0,10,phase_2,green_pentagon,go,,,,go-1,1,,,,,,
2,546.0,10,phase_2,purple_circle,go,,,,go-2,1,,,,,,
1,543.0,10,phase_2,green_triangle,go,,,,go-1,1,,,,,,
0,0,10,phase_2,green_rhombus,stop,red,0.0,0-SSD,go-1,4,,,,,,
1,560.0,10,phase_2,green_triangle,go,,,,go-1,1,,,,,,
1,523.0,10,phase_2,green_triangle,go,,,,go-1,1,,,,,,
2,578.0,10,phase_2,green_circle,go,,,,go-1,1,,,,,,
0,0,10,phase_2,purple_circle,stop,red,0.0,0-SSD,go-2,4,,,,,,
1,449.0,10,phase_2,green_triangle,go,,,,go-1,1,,,,,,
1,469.0,10,phase_2,purple_triangle,stop,blue,300.0,tracking-SSD,go-2,3,,,,,,
2,433.0,10,phase_2,green_pentagon,go,,,,go-1,1,,,,,,
1,565.0,10,phase_2,green_rhombus,go,,,,go-1,1,,,,,,
0,0,10,phase_2,green_pentagon,stop,red,0.0,0-SSD,go-1,4,,,,,,
1,571.0,10,phase_2,purple_rhombus,go,,,,go-2,1,,,,,,
2,557.0,10,phase_2,purple_circle,go,,,,go-2,1,,,,,,
0,0,10,phase_2,purple_triangle,stop,red,0.0,0-SSD,go-2,4,,,,,,
1,710.0,10,phase_2,green_triangle,go,,,,go-1,1,,,,,,
2,498.0,11,phase_2,green_pentagon,go,,,,go-1,1,,,,,,
0,0,11,phase_2,green_triangle,stop,red,0.0,0-SSD,go-1,4,,,,,,
0,0,11,phase_2,purple_rhombus,stop,red,0.0,0-SSD,go-2,4,,,,,,
2,503.0,11,phase_2,green_pentagon,go,,,,go-1,1,,,,,,
2,499.0,11,phase_2,purple_pentagon,go,,,,go-2,1,,,,,,
1,553.0,11,phase_2,purple_triangle,go,,,,go-2,1,,,,,,
0,0,11,phase_2,purple_pentagon,stop,red,0.0,0-SSD,go-2,4,,,,,,
0,0,11,phase_2,green_triangle,stop,blue,250.0,tracking-SSD,go-1,4,,,,,,
1,365.0,11,phase_2,green_triangle,go,,,,go-1,1,,,,,,
1,632.0,11,phase_2,purple_rhombus,go,,,,go-2,1,,,,,,
2,629.0,11,phase_2,green_circle,stop,blue,300.0,tracking-SSD,go-1,3,,,,,,
1,638.0,11,phase_2,purple_triangle,go,,,,go-2,1,,,,,,
2,546.0,11,phase_2,purple_pentagon,go,,,,go-2,1,,,,,,
0,0,11,phase_2,purple_circle,stop,red,0.0,0-SSD,go-2,4,,,,,,
2,417.0,11,phase_2,green_circle,go,,,,go-1,1,,,,,,
2,403.0,11,phase_2,green_circle,stop,blue,250.0,tracking-SSD,go-1,3,,,,,,
1,512.0,11,phase_2,purple_pentagon,go,,,,go-2,2,,,,,,
0,0,11,phase_2,purple_rhombus,stop,blue,200.0,tracking-SSD,go-2,4,,,,,,
1,631.0,11,phase_2,green_triangle,go,,,,go-1,1,,,,,,
1,663.0,11,phase_2,purple_rhombus,go,,,,go-2,1,,,,,,
2,548.0,11,phase_2,purple_circle,go,,,,go-2,1,,,,,,
0,0,11,phase_2,green_rhombus,stop,red,0.0,0-SSD,go-1,4,,,,,,
2,520.0,11,phase_2,green_circle,go,,,,go-1,1,,,,,,
2,473.0,11,phase_2,green_circle,go,,,,go-1,1,,,,,,
1,515.0,11,phase_2,purple_triangle,go,,,,go-2,1,,,,,,
2,591.0,11,phase_2,purple_pentagon,go,,,,go-2,1,,,,,,
2,521.0,11,phase_2,green_pentagon,go,,,,go-1,1,,,,,,
2,563.0,11,phase_2,green_circle,go,,,,go-1,1,,,,,,
1,673.0,11,phase_2,green_triangle,go,,,,go-1,1,,,,,,
0,0,11,phase_2,purple_triangle,stop,red,0.0,0-SSD,go-2,4,,,,,,
2,444.0,11,phase_2,green_circle,stop,blue,250.0,tracking-SSD,go-1,3,,,,,,
0,0,11,phase_2,green_rhombus,stop,red,0.0,0-SSD,go-1,4,,,,,,
1,608.0,11,phase_2,green_rhombus,go,,,,go-1,1,,,,,,
2,527.0,11,phase_2,purple_circle,go,,,,go-2,1,,,,,,
0,0,11,phase_2,purple_pentagon,stop,blue,200.0,tracking-SSD,go-2,4,,,,,,
1,512.0,11,phase_2,green_triangle,go,,,,go-1,1,,,,,,
2,566.0,11,phase_2,purple_pentagon,go,,,,go-2,1,,,,,,
0,0,11,phase_2,purple_triangle,stop,blue,250.0,tracking-SSD,go-2,4,,,,,,
2,594.0,11,phase_2,green_pentagon,go,,,,go-1,1,,,,,,
1,580.0,11,phase_2,purple_triangle,go,,,,go-2,1,,,,,,
2,488.0,11,phase_2,green_circle,go,,,,go-1,1,,,,,,
1,621.0,11,phase_2,purple_rhombus,go,,,,go-2,1,,,,,,
1,461.0,11,phase_2,purple_rhombus,go,,,,go-2,1,,,,,,
1,582.0,11,phase_2,green_rhombus,go,,,,go-1,1,,,,,,
0,0,11,phase_2,green_rhombus,stop,red,0.0,0-SSD,go-1,4,,,,,,
2,509.0,11,phase_2,purple_circle,stop,blue,300.0,tracking-SSD,go-2,3,,,,,,
1,574.0,11,phase_2,purple_rhombus,go,,,,go-2,1,,,,,,
2,527.0,11,phase_2,green_pentagon,go,,,,go-1,1,,,,,,
2,522.0,12,phase_2,purple_pentagon,go,,,,go-2,1,,,,,,
1,621.0,12,phase_2,purple_rhombus,go,,,,go-2,1,,,,,,
2,415.0,12,phase_2,green_circle,go,,,,go-1,1,,,,,,
0,0,12,phase_2,green_circle,stop,red,0.0,0-SSD,go-1,4,,,,,,
1,501.0,12,phase_2,green_triangle,go,,,,go-1,1,,,,,,
1,431.0,12,phase_2,green_triangle,stop,blue,250.0,tracking-SSD,go-1,3,,,,,,
1,451.0,12,phase_2,green_circle,go,,,,go-1,2,,,,,,
1,583.0,12,phase_2,purple_rhombus,go,,,,go-2,1,,,,,,
0,0,12,phase_2,purple_rhombus,stop,red,0.0,0-SSD,go-2,4,,,,,,
1,488.0,12,phase_2,purple_rhombus,go,,,,go-2,1,,,,,,
1,406.0,12,phase_2,green_rhombus,go,,,,go-1,1,,,,,,
0,0,12,phase_2,purple_circle,stop,blue,200.0,tracking-SSD,go-2,4,,,,,,
1,560.0,12,phase_2,purple_triangle,stop,blue,250.0,tracking-SSD,go-2,3,,,,,,
2,490.0,12,phase_2,purple_circle,go,,,,go-2,1,,,,,,
1,555.0,12,phase_2,green_rhombus,go,,,,go-1,1,,,,,,
2,529.0,12,phase_2,green_pentagon,go,,,,go-1,1,,,,,,
1,561.0,12,phase_2,purple_triangle,go,,,,go-2,1,,,,,,
0,0,12,phase_2,purple_pentagon,stop,red,0.0,0-SSD,go-2,4,,,,,,
2,544.0,12,phase_2,green_pentagon,go,,,,go-1,1,,,,,,
1,521.0,12,phase_2,purple_rhombus,go,,,,go-2,1,,,,,,
1,766.0,12,phase_2,green_pentagon,go,,,,go-1,2,,,,,,
0,0,12,phase_2,purple_pentagon,stop,blue,200.0,tracking-SSD,go-2,4,,,,,,
1,469.0,12,phase_2,green_circle,go,,,,go-1,2,,,,,,
1,500.0,12,phase_2,green_rhombus,go,,,,go-1,1,,,,,,
0,0,12,phase_2,green_triangle,stop,blue,250.0,tracking-SSD,go-1,4,,,,,,
1,596.0,12,phase_2,purple_rhombus,go,,,,go-2,1,,,,,,
0,0,12,phase_2,green_pentagon,stop,red,0.0,0-SSD,go-1,4,,,,,,
1,504.0,12,phase_2,purple_rhombus,go,,,,go-2,1,,,,,,
1,467.0,12,phase_2,green_rhombus,go,,,,go-1,1,,,,,,
1,454.0,12,phase_2,purple_circle,go,,,,go-2,2,,,,,,
2,609.0,12,phase_2,green_pentagon,go,,,,go-1,1,,,,,,
2,460.0,12,phase_2,green_pentagon,stop,blue,300.0,tracking-SSD,go-1,3,,,,,,
0,0,12,phase_2,purple_circle,stop,red,0.0,0-SSD,go-2,4,,,,,,
2,568.0,12,phase_2,purple_circle,go,,,,go-2,1,,,,,,
0,0,12,phase_2,green_circle,stop,red,0.0,0-SSD,go-1,4,,,,,,
0,0,12,phase_2,purple_triangle,stop,blue,250.0,tracking-SSD,go-2,4,,,,,,
1,561.0,12,phase_2,purple_rhombus,go,,,,go-2,1,,,,,,
1,626.0,12,phase_2,purple_triangle,go,,,,go-2,1,,,,,,
1,634.0,12,phase_2,green_triangle,go,,,,go-1,1,,,,,,
0,0,12,phase_2,purple_pentagon,stop,red,0.0,0-SSD,go-2,4,,,,,,
0,0,12,phase_2,green_triangle,stop,red,0.0,0-SSD,go-1,4,,,,,,
1,548.0,12,phase_2,green_triangle,go,,,,go-1,1,,,,,,
1,466.0,12,phase_2,purple_triangle,go,,,,go-2,1,,,,,,
1,396.0,12,phase_2,purple_triangle,go,,,,go-2,1,,,,,,
2,473.0,12,phase_2,green_circle,go,,,,go-1,1,,,,,,
2,425.0,12,phase_2,green_pentagon,go,,,,go-1,1,,,,,,
2,434.0,12,phase_2,purple_circle,go,,,,go-2,1,,,,,,
2,488.0,12,phase_2,green_pentagon,stop,blue,300.0,tracking-SSD,go-1,3,,,,,,
2,375.0,13,phase_2,green_circle,go,,,,go-1,1,,,,,,
0,0,13,phase_2,purple_pentagon,stop,red,0.0,0-SSD,go-2,4,,,,,,
2,393.0,13,phase_2,green_pentagon,go,,,,go-1,1,,,,,,
2,503.0,13,phase_2,purple_circle,go,,,,go-2,1,,,,,,
2,479.0,13,phase_2,purple_rhombus,go,,,,go-2,2,,,,,,
2,408.0,13,phase_2,green_rhombus,go,,,,go-1,2,,,,,,
0,0,13,phase_2,green_pentagon,stop,red,0.0,0-SSD,go-1,4,,,,,,
0,0,13,phase_2,purple_pentagon,stop,red,0.0,0-SSD,go-2,4,,,,,,
2,411.0,13,phase_2,purple_rhombus,stop,blue,250.0,tracking-SSD,go-2,3,,,,,,
1,499.0,13,phase_2,purple_rhombus,go,,,,go-2,1,,,,,,
2,574.0,13,phase_2,green_pentagon,go,,,,go-1,1,,,,,,
1,483.0,13,phase_2,purple_triangle,go,,,,go-2,1,,,,,,
1,536.0,13,phase_2,green_rhombus,go,,,,go-1,1,,,,,,
0,0,13,phase_2,green_circle,stop,red,0.0,0-SSD,go-1,4,,,,,,
2,587.0,13,phase_2,purple_pentagon,go,,,,go-2,1,,,,,,
0,0,13,phase_2,purple_rhombus,stop,red,0.0,0-SSD,go-2,4,,,,,,
0,0,13,phase_2,green_rhombus,stop,blue,200.0,tracking-SSD,go-1,4,,,,,,
1,557.0,13,phase_2,purple_triangle,go,,,,go-2,1,,,,,,
1,543.0,13,phase_2,green_rhombus,go,,,,go-1,1,,,,,,
0,0,13,phase_2,green_circle,stop,blue,250.0,tracking-SSD,go-1,4,,,,,,
2,561.0,13,phase_2,green_pentagon,stop,blue,300.0,tracking-SSD,go-1,3,,,,,,
1,524.0,13,phase_2,purple_rhombus,go,,,,go-2,1,,,,,,
2,533.0,13,phase_2,green_circle,go,,,,go-1,1,,,,,,
1,677.0,13,phase_2,green_triangle,go,,,,go-1,1,,,,,,
1,472.0,13,phase_2,purple_triangle,go,,,,go-2,1,,,,,,
2,481.0,13,phase_2,green_pentagon,go,,,,go-1,1,,,,,,
2,477.0,13,phase_2,purple_pentagon,go,,,,go-2,1,,,,,,
1,632.0,13,phase_2,green_rhombus,go,,,,go-1,1,,,,,,
1,528.0,13,phase_2,purple_triangle,go,,,,go-2,1,,,,,,
0,0,13,phase_2,purple_circle,stop,blue,250.0,tracking-SSD,go-2,4,,,,,,
2,468.0,13,phase_2,green_circle,stop,blue,300.0,tracking-SSD,go-1,3,,,,,,
2,600.0,13,phase_2,purple_pentagon,go,,,,go-2,1,,,,,,
2,462.0,13,phase_2,purple_circle,go,,,,go-2,1,,,,,,
0,0,13,phase_2,green_pentagon,stop,red,0.0,0-SSD,go-1,4,,,,,,
1,536.0,13,phase_2,green_triangle,go,,,,go-1,1,,,,,,
1,456.0,13,phase_2,green_triangle,go,,,,go-1,1,,,,,,
2,521.0,13,phase_2,purple_circle,go,,,,go-2,1,,,,,,
2,484.0,13,phase_2,green_circle,go,,,,go-1,1,,,,,,
2,695.0,13,phase_2,green_triangle,go,,,,go-1,2,,,,,,
1,479.0,13,phase_2,green_triangle,go,,,,go-1,1,,,,,,
0,0,13,phase_2,purple_rhombus,stop,blue,250.0,tracking-SSD,go-2,4,,,,,,
0,0,13,phase_2,green_triangle,stop,red,0.0,0-SSD,go-1,4,,,,,,
0,0,13,phase_2,purple_rhombus,stop,red,0.0,0-SSD,go-2,4,,,,,,
2,503.0,13,phase_2,green_circle,go,,,,go-1,1,,,,,,
1,522.0,13,phase_2,purple_triangle,go,,,,go-2,1,,,,,,
1,453.0,13,phase_2,purple_triangle,stop,blue,300.0,tracking-SSD,go-2,3,,,,,,
2,450.0,13,phase_2,purple_circle,go,,,,go-2,1,,,,,,
2,538.0,13,phase_2,purple_pentagon,go,,,,go-2,1,,,,,,
2,466.0,14,phase_2,green_pentagon,stop,blue,250.0,tracking-SSD,go-1,3,,,,,,
2,452.0,14,phase_2,purple_pentagon,go,,,,go-2,1,,,,,,
2,528.0,14,phase_2,green_circle,go,,,,go-1,1,,,,,,
1,379.0,14,phase_2,green_triangle,stop,blue,200.0,tracking-SSD,go-1,3,,,,,,
0,0,14,phase_2,green_rhombus,stop,blue,150.0,tracking-SSD,go-1,4,,,,,,
2,510.0,14,phase_2,purple_circle,go,,,,go-2,1,,,,,,
1,665.0,14,phase_2,purple_triangle,go,,,,go-2,1,,,,,,
2,549.0,14,phase_2,green_pentagon,go,,,,go-1,1,,,,,,
2,491.0,14,phase_2,purple_circle,go,,,,go-2,1,,,,,,
1,657.0,14,phase_2,purple_rhombus,go,,,,go-2,1,,,,,,
2,599.0,14,phase_2,purple_pentagon,go,,,,go-2,1,,,,,,
0,0,14,phase_2,purple_pentagon,stop,blue,200.0,tracking-SSD,go-2,4,,,,,,
2,424.0,14,phase_2,green_pentagon,go,,,,go-1,1,,,,,,
2,433.0,14,phase_2,purple_pentagon,stop,blue,250.0,tracking-SSD,go-2,3,,,,,,
2,464.0,14,phase_2,purple_circle,go,,,,go-2,1,,,,,,
1,529.0,14,phase_2,green_triangle,go,,,,go-1,1,,,,,,
1,437.0,14,phase_2,purple_triangle,go,,,,go-2,1,,,,,,
0,0,14,phase_2,purple_circle,stop,red,0.0,0-SSD,go-2,4,,,,,,
0,0,14,phase_2,purple_triangle,stop,blue,200.0,tracking-SSD,go-2,4,,,,,,
2,485.0,14,phase_2,green_circle,go,,,,go-1,1,,,,,,
0,0,14,phase_2,green_pentagon,stop,red,0.0,0-SSD,go-1,4,,,,,,
2,536.0,14,phase_2,green_pentagon,go,,,,go-1,1,,,,,,
1,624.0,14,phase_2,purple_rhombus,go,,,,go-2,1,,,,,,
0,0,14,phase_2,purple_triangle,stop,red,0.0,0-SSD,go-2,4,,,,,,
2,450.0,14,phase_2,purple_circle,go,,,,go-2,1,,,,,,
2,537.0,14,phase_2,green_circle,go,,,,go-1,1,,,,,,
2,502.0,14,phase_2,green_circle,go,,,,go-1,1,,,,,,
1,600.0,14,phase_2,green_rhombus,go,,,,go-1,1,,,,,,
1,666.0,14,phase_2,green_rhombus,go,,,,go-1,1,,,,,,
1,563.0,14,phase_2,green_triangle,go,,,,go-1,1,,,,,,
1,539.0,14,phase_2,purple_triangle,go,,,,go-2,1,,,,,,
0,0,14,phase_2,green_triangle,stop,red,0.0,0-SSD,go-1,4,,,,,,
0,0,14,phase_2,green_triangle,stop,red,0.0,0-SSD,go-1,4,,,,,,
1,566.0,14,phase_2,purple_triangle,go,,,,go-2,1,,,,,,
0,0,14,phase_2,purple_circle,stop,blue,250.0,tracking-SSD,go-2,4,,,,,,
0,0,14,phase_2,purple_rhombus,stop,red,0.0,0-SSD,go-2,4,,,,,,
0,0,14,phase_2,green_pentagon,stop,red,0.0,0-SSD,go-1,4,,,,,,
2,468.0,14,phase_2,purple_pentagon,go,,,,go-2,1,,,,,,
1,581.0,14,phase_2,green_rhombus,go,,,,go-1,1,,,,,,
1,612.0,14,phase_2,green_rhombus,go,,,,go-1,1,,,,,,
1,431.0,14,phase_2,green_rhombus,go,,,,go-1,1,,,,,,
1,428.0,14,phase_2,green_rhombus,go,,,,go-1,1,,,,,,
2,505.0,14,phase_2,green_circle,stop,blue,300.0,tracking-SSD,go-1,3,,,,,,
1,503.0,14,phase_2,purple_rhombus,go,,,,go-2,1,,,,,,
2,500.0,14,phase_2,green_pentagon,go,,,,go-1,1,,,,,,
2,588.0,14,phase_2,purple_circle,go,,,,go-2,1,,,,,,
0,0,14,phase_2,purple_rhombus,stop,red,0.0,0-SSD,go-2,4,,,,,,
2,515.0,14,phase_2,purple_triangle,go,,,,go-2,2,,,,,,
2,453.0,15,phase_2,green_pentagon,go,,,,go-1,1,,,,,,
1,508.0,15,phase_2,purple_triangle,stop,blue,250.0,tracking-SSD,go-2,3,,,,,,
1,483.0,15,phase_2,purple_triangle,go,,,,go-2,1,,,,,,
2,424.0,15,phase_2,purple_pentagon,go,,,,go-2,1,,,,,,
2,478.0,15,phase_2,green_circle,go,,,,go-1,1,,,,,,
2,407.0,15,phase_2,green_circle,go,,,,go-1,1,,,,,,
0,0,15,phase_2,green_pentagon,stop,red,0.0,0-SSD,go-1,4,,,,,,
2,458.0,15,phase_2,green_pentagon,go,,,,go-1,1,,,,,,
1,421.0,15,phase_2,purple_triangle,stop,blue,200.0,tracking-SSD,go-2,3,,,,,,
0,0,15,phase_2,purple_pentagon,stop,red,0.0,0-SSD,go-2,4,,,,,,
0,0,15,phase_2,purple_rhombus,stop,red,0.0,0-SSD,go-2,4,,,,,,
1,550.0,15,phase_2,green_rhombus,go,,,,go-1,1,,,,,,
1,412.0,15,phase_2,purple_rhombus,go,,,,go-2,1,,,,,,
1,477.0,15,phase_2,green_triangle,go,,,,go-1,1,,,,,,
0,0,15,phase_2,purple_triangle,stop,red,0.0,0-SSD,go-2,4,,,,,,
2,404.0,15,phase_2,green_pentagon,go,,,,go-1,1,,,,,,
2,413.0,15,phase_2,green_circle,go,,,,go-1,1,,,,,,
0,0,15,phase_2,green_circle,stop,blue,150.0,tracking-SSD,go-1,4,,,,,,
2,419.0,15,phase_2,purple_circle,stop,blue,200.0,tracking-SSD,go-2,3,,,,,,
1,529.0,15,phase_2,green_rhombus,go,,,,go-1,1,,,,,,
2,549.0,15,phase_2,green_circle,go,,,,go-1,1,,,,,,
1,559.0,15,phase_2,purple_rhombus,go,,,,go-2,1,,,,,,
2,545.0,15,phase_2,purple_circle,go,,,,go-2,1,,,,,,
0,0,15,phase_2,purple_triangle,stop,red,0.0,0-SSD,go-2,4,,,,,,
2,495.0,15,phase_2,green_circle,go,,,,go-1,1,,,,,,
1,538.0,15,phase_2,purple_rhombus,go,,,,go-2,1,,,,,,
1,626.0,15,phase_2,green_triangle,go,,,,go-1,1,,,,,,
0,0,15,phase_2,green_pentagon,stop,blue,150.0,tracking-SSD,go-1,4,,,,,,
1,576.0,15,phase_2,purple_rhombus,go,,,,go-2,1,,,,,,
1,551.0,15,phase_2,purple_triangle,go,,,,go-2,1,,,,,,
1,526.0,15,phase_2,green_triangle,go,,,,go-1,1,,,,,,
0,0,15,phase_2,green_pentagon,stop,red,0.0,0-SSD,go-1,4,,,,,,
0,0,15,phase_2,green_pentagon,stop,blue,200.0,tracking-SSD,go-1,4,,,,,,
2,754.0,15,phase_2,green_circle,go,,,,go-1,1,,,,,,
0,0,15,phase_2,purple_rhombus,stop,blue,250.0,tracking-SSD,go-2,4,,,,,,
1,513.0,15,phase_2,purple_rhombus,go,,,,go-2,1,,,,,,
0,0,15,phase_2,green_circle,stop,red,0.0,0-SSD,go-1,4,,,,,,
1,541.0,15,phase_2,purple_triangle,go,,,,go-2,1,,,,,,
1,449.0,15,phase_2,green_triangle,go,,,,go-1,1,,,,,,
1,469.0,15,phase_2,purple_rhombus,go,,,,go-2,1,,,,,,
2,523.0,15,phase_2,purple_circle,go,,,,go-2,1,,,,,,
1,453.0,15,phase_2,purple_pentagon,go,,,,go-2,2,,,,,,
2,551.0,15,phase_2,green_pentagon,go,,,,go-1,1,,,,,,
2,527.0,15,phase_2,purple_pentagon,go,,,,go-2,1,,,,,,
1,535.0,15,phase_2,purple_rhombus,go,,,,go-2,1,,,,,,
1,499.0,15,phase_2,purple_triangle,go,,,,go-2,1,,,,,,
2,563.0,15,phase_2,green_circle,stop,blue,300.0,tracking-SSD,go-1,3,,,,,,
0,0,15,phase_2,green_rhombus,stop,red,0.0,0-SSD,go-1,4,,,,,,
2,486.0,16,phase_2,purple_pentagon,go,,,,go-2,1,,,,,,
2,507.0,16,phase_2,green_rhombus,stop,blue,250.0,tracking-SSD,go-1,3,,,,,,
1,527.0,16,phase_2,purple_triangle,go,,,,go-2,1,,,,,,
1,480.0,16,phase_2,green_rhombus,go,,,,go-1,1,,,,,,
2,557.0,16,phase_2,green_circle,go,,,,go-1,1,,,,,,
1,452.0,16,phase_2,purple_triangle,go,,,,go-2,1,,,,,,
1,449.0,16,phase_2,green_triangle,go,,,,go-1,1,,,,,,
2,538.0,16,phase_2,purple_pentagon,go,,,,go-2,1,,,,,,
1,591.0,16,phase_2,purple_rhombus,go,,,,go-2,1,,,,,,
0,0,16,phase_2,purple_triangle,stop,blue,200.0,tracking-SSD,go-2,4,,,,,,
0,0,16,phase_2,green_triangle,stop,blue,250.0,tracking-SSD,go-1,4,,,,,,
2,505.0,16,phase_2,purple_circle,go,,,,go-2,1,,,,,,
0,0,16,phase_2,green_pentagon,stop,red,0.0,0-SSD,go-1,4,,,,,,
2,511.0,16,phase_2,purple_circle,go,,,,go-2,1,,,,,,
1,486.0,16,phase_2,purple_rhombus,go,,,,go-2,1,,,,,,
2,595.0,16,phase_2,purple_circle,stop,blue,300.0,tracking-SSD,go-2,3,,,,,,
2,549.0,16,phase_2,purple_pentagon,go,,,,go-2,1,,,,,,
0,0,16,phase_2,green_circle,stop,red,0.0,0-SSD,go-1,4,,,,,,
0,0,16,phase_2,green_circle,stop,red,0.0,0-SSD,go-1,4,,,,,,
2,746.0,16,phase_2,green_pentagon,go,,,,go-1,1,,,,,,
0,0,16,phase_2,green_rhombus,stop,blue,250.0,tracking-SSD,go-1,4,,,,,,
0,0,16,phase_2,purple_triangle,stop,red,0.0,0-SSD,go-2,4,,,,,,
1,550.0,16,phase_2,green_rhombus,go,,,,go-1,1,,,,,,
2,581.0,16,phase_2,purple_pentagon,go,,,,go-2,1,,,,,,
1,567.0,16,phase_2,green_triangle,go,,,,go-1,1,,,,,,
1,676.0,16,phase_2,purple_triangle,stop,blue,300.0,tracking-SSD,go-2,3,,,,,,
0,0,16,phase_2,purple_triangle,stop,red,0.0,0-SSD,go-2,4,,,,,,
1,697.0,16,phase_2,purple_rhombus,go,,,,go-2,1,,,,,,
2,515.0,16,phase_2,purple_circle,go,,,,go-2,1,,,,,,
2,502.0,16,phase_2,purple_circle,go,,,,go-2,1,,,,,,
1,612.0,16,phase_2,green_rhombus,go,,,,go-1,1,,,,,,
2,631.0,16,phase_2,green_pentagon,go,,,,go-1,1,,,,,,
2,517.0,16,phase_2,green_pentagon,go,,,,go-1,1,,,,,,
1,637.0,16,phase_2,green_triangle,go,,,,go-1,1,,,,,,
0,0,16,phase_2,green_triangle,stop,blue,250.0,tracking-SSD,go-1,4,,,,,,
0,0,16,phase_2,purple_pentagon,stop,red,0.0,0-SSD,go-2,4,,,,,,
2,506.0,16,phase_2,green_circle,go,,,,go-1,1,,,,,,
2,494.0,16,phase_2,green_pentagon,go,,,,go-1,1,,,,,,
0,0,16,phase_2,green_circle,stop,red,0.0,0-SSD,go-1,4,,,,,,
1,544.0,16,phase_2,green_rhombus,go,,,,go-1,1,,,,,,
1,610.0,16,phase_2,green_rhombus,go,,,,go-1,1,,,,,,
1,573.0,16,phase_2,purple_triangle,stop,blue,300.0,tracking-SSD,go-2,3,,,,,,
0,0,16,phase_2,purple_pentagon,stop,red,0.0,0-SSD,go-2,4,,,,,,
2,388.0,16,phase_2,purple_circle,go,,,,go-2,1,,,,,,
1,599.0,16,phase_2,green_rhombus,go,,,,go-1,1,,,,,,
1,484.0,16,phase_2,purple_rhombus,go,,,,go-2,1,,,,,,
2,492.0,16,phase_2,green_circle,go,,,,go-1,1,,,,,,
2,512.0,16,phase_2,purple_pentagon,go,,,,go-2,1,,,,,,
2,476.0,17,phase_2,green_circle,go,,,,go-1,1,,,,,,
2,473.0,17,phase_2,purple_circle,go,,,,go-2,1,,,,,,
1,505.0,17,phase_2,green_triangle,go,,,,go-1,1,,,,,,
0,0,17,phase_2,green_rhombus,stop,red,0.0,0-SSD,go-1,4,,,,,,
2,567.0,17,phase_2,purple_pentagon,go,,,,go-2,1,,,,,,
1,564.0,17,phase_2,purple_triangle,go,,,,go-2,1,,,,,,
2,482.0,17,phase_2,green_rhombus,go,,,,go-1,2,,,,,,
2,558.0,17,phase_2,purple_pentagon,go,,,,go-2,1,,,,,,
0,0,17,phase_2,purple_pentagon,stop,red,0.0,0-SSD,go-2,4,,,,,,
2,464.0,17,phase_2,green_circle,go,,,,go-1,1,,,,,,
2,394.0,17,phase_2,green_circle,stop,blue,250.0,tracking-SSD,go-1,3,,,,,,
0,0,17,phase_2,purple_rhombus,stop,blue,200.0,tracking-SSD,go-2,4,,,,,,
1,580.0,17,phase_2,green_rhombus,go,,,,go-1,1,,,,,,
1,510.0,17,phase_2,purple_triangle,go,,,,go-2,1,,,,,,
1,542.0,17,phase_2,purple_rhombus,go,,,,go-2,1,,,,,,
2,461.0,17,phase_2,purple_circle,go,,,,go-2,1,,,,,,
2,424.0,17,phase_2,green_circle,stop,blue,250.0,tracking-SSD,go-1,3,,,,,,
0,0,17,phase_2,purple_triangle,stop,blue,200.0,tracking-SSD,go-2,4,,,,,,
0,0,17,phase_2,green_triangle,stop,red,0.0,0-SSD,go-1,4,,,,,,
1,507.0,17,phase_2,green_triangle,go,,,,go-1,1,,,,,,
2,447.0,17,phase_2,purple_circle,go,,,,go-2,1,,,,,,
2,479.0,17,phase_2,green_pentagon,go,,,,go-1,1,,,,,,
0,0,17,phase_2,purple_circle,stop,red,0.0,0-SSD,go-2,4,,,,,,
1,485.0,17,phase_2,green_rhombus,go,,,,go-1,1,,,,,,
2,629.0,17,phase_2,green_pentagon,stop,blue,250.0,tracking-SSD,go-1,3,,,,,,
1,502.0,17,phase_2,green_triangle,go,,,,go-1,1,,,,,,
2,477.0,17,phase_2,purple_pentagon,go,,,,go-2,1,,,,,,
1,542.0,17,phase_2,green_rhombus,go,,,,go-1,1,,,,,,
1,540.0,17,phase_2,purple_triangle,go,,,,go-2,1,,,,,,
1,504.0,17,phase_2,green_triangle,go,,,,go-1,1,,,,,,
1,411.0,17,phase_2,green_triangle,go,,,,go-1,1,,,,,,
1,464.0,17,phase_2,green_triangle,go,,,,go-1,1,,,,,,
0,0,17,phase_2,purple_circle,stop,blue,200.0,tracking-SSD,go-2,4,,,,,,
0,0,17,phase_2,purple_pentagon,stop,red,0.0,0-SSD,go-2,4,,,,,,
1,502.0,17,phase_2,purple_rhombus,go,,,,go-2,1,,,,,,
2,443.0,17,phase_2,purple_pentagon,stop,blue,250.0,tracking-SSD,go-2,3,,,,,,
0,0,17,phase_2,green_pentagon,stop,red,0.0,0-SSD,go-1,4,,,,,,
1,460.0,17,phase_2,purple_triangle,go,,,,go-2,1,,,,,,
2,526.0,17,phase_2,purple_circle,go,,,,go-2,1,,,,,,
0,0,17,phase_2,purple_pentagon,stop,red,0.0,0-SSD,go-2,4,,,,,,
0,0,17,phase_2,green_rhombus,stop,red,0.0,0-SSD,go-1,4,,,,,,
2,563.0,17,phase_2,purple_pentagon,go,,,,go-2,1,,,,,,
0,0,17,phase_2,green_rhombus,stop,blue,200.0,tracking-SSD,go-1,4,,,,,,
2,546.0,17,phase_2,green_circle,go,,,,go-1,1,,,,,,
1,487.0,17,phase_2,green_rhombus,go,,,,go-1,1,,,,,,
2,495.0,17,phase_2,green_circle,go,,,,go-1,1,,,,,,
1,561.0,17,phase_2,purple_rhombus,go,,,,go-2,1,,,,,,
2,479.0,17,phase_2,purple_pentagon,go,,,,go-2,1,,,,,,
,960.0,1,phase_3,,,,,,,,red_square,0-SSD,green_square,go-1,red_square,0-SSD
,798.0,1,phase_3,,,,,,,,blue_square,tracking-SSD,purple_square,go-2,blue_square,tracking-SSD
,1423.0,1,phase_3,,,,,,,,green_square,go-1,green_square,go-1,purple_square,go-2
,711.0,1,phase_3,,,,,,,,red_square,0-SSD,red_square,0-SSD,blue_square,tracking-SSD
,661.0,1,phase_3,,,,,,,,blue_square,tracking-SSD,green_square,go-1,blue_square,tracking-SSD
,735.0,1,phase_3,,,,,,,,red_square,0-SSD,purple_square,go-2,red_square,0-SSD
,1080.0,1,phase_3,,,,,,,,green_square,go-1,purple_square,go-2,green_square,go-1
,851.0,1,phase_3,,,,,,,,red_square,0-SSD,red_square,0-SSD,green_square,go-1
,1015.0,1,phase_3,,,,,,,,blue_square,tracking-SSD,blue_square,tracking-SSD,green_square,go-1
,775.0,1,phase_3,,,,,,,,blue_square,tracking-SSD,blue_square,tracking-SSD,purple_square,go-2
,679.0,1,phase_3,,,,,,,,red_square,0-SSD,red_square,0-SSD,purple_square,go-2
,698.0,1,phase_3,,,,,,,,red_square,0-SSD,blue_square,tracking-SSD,red_square,0-SSD
,613.0,2,phase_3,,,,,,,,red_square,0-SSD,green_square,go-1,red_square,0-SSD
,573.0,2,phase_3,,,,,,,,blue_square,tracking-SSD,green_square,go-1,blue_square,tracking-SSD
,964.0,2,phase_3,,,,,,,,green_square,go-1,green_square,go-1,purple_square,go-2
,746.0,2,phase_3,,,,,,,,blue_square,tracking-SSD,red_square,0-SSD,blue_square,tracking-SSD
,640.0,2,phase_3,,,,,,,,red_square,0-SSD,purple_square,go-2,red_square,0-SSD
,737.0,2,phase_3,,,,,,,,blue_square,tracking-SSD,purple_square,go-2,blue_square,tracking-SSD
,891.0,2,phase_3,,,,,,,,red_square,0-SSD,blue_square,tracking-SSD,red_square,0-SSD
,997.0,2,phase_3,,,,,,,,green_square,go-1,purple_square,go-2,green_square,go-1
,959.0,2,phase_3,,,,,,,,blue_square,tracking-SSD,blue_square,tracking-SSD,purple_square,go-2
,776.0,2,phase_3,,,,,,,,red_square,0-SSD,red_square,0-SSD,purple_square,go-2
,624.0,2,phase_3,,,,,,,,red_square,0-SSD,red_square,0-SSD,green_square,go-1
,587.0,2,phase_3,,,,,,,,blue_square,tracking-SSD,blue_square,tracking-SSD,green_square,go-1
,915.0,3,phase_3,,,,,,,,green_square,go-1,green_square,go-1,purple_square,go-2
,628.0,3,phase_3,,,,,,,,blue_square,tracking-SSD,green_square,go-1,blue_square,tracking-SSD
,590.0,3,phase_3,,,,,,,,red_square,0-SSD,red_square,0-SSD,blue_square,tracking-SSD
,631.0,3,phase_3,,,,,,,,blue_square,tracking-SSD,purple_square,go-2,blue_square,tracking-SSD
,649.0,3,phase_3,,,,,,,,red_square,0-SSD,purple_square,go-2,red_square,0-SSD
,588.0,3,phase_3,,,,,,,,red_square,0-SSD,green_square,go-1,red_square,0-SSD
,506.0,3,phase_3,,,,,,,,red_square,0-SSD,red_square,0-SSD,green_square,go-1
,490.0,3,phase_3,,,,,,,,red_square,0-SSD,blue_square,tracking-SSD,red_square,0-SSD
,563.0,3,phase_3,,,,,,,,blue_square,tracking-SSD,blue_square,tracking-SSD,green_square,go-1
,796.0,3,phase_3,,,,,,,,blue_square,tracking-SSD,blue_square,tracking-SSD,purple_square,go-2
,1039.0,3,phase_3,,,,,,,,green_square,go-1,purple_square,go-2,green_square,go-1
,607.0,3,phase_3,,,,,,,,red_square,0-SSD,red_square,0-SSD,purple_square,go-2
,667.0,4,phase_3,,,,,,,,red_square,0-SSD,purple_square,go-2,red_square,0-SSD
,741.0,4,phase_3,,,,,,,,green_square,go-1,green_square,go-1,purple_square,go-2
,601.0,4,phase_3,,,,,,,,blue_square,tracking-SSD,purple_square,go-2,blue_square,tracking-SSD
,608.0,4,phase_3,,,,,,,,blue_square,tracking-SSD,red_square,0-SSD,blue_square,tracking-SSD
,614.0,4,phase_3,,,,,,,,blue_square,tracking-SSD,green_square,go-1,blue_square,tracking-SSD
,891.0,4,phase_3,,,,,,,,green_square,go-1,green_square,go-1,red_square,0-SSD
,1067.0,4,phase_3,,,,,,,,blue_square,tracking-SSD,blue_square,tracking-SSD,purple_square,go-2
,995.0,4,phase_3,,,,,,,,blue_square,tracking-SSD,blue_square,tracking-SSD,green_square,go-1
,754.0,4,phase_3,,,,,,,,green_square,go-1,purple_square,go-2,green_square,go-1
,739.0,4,phase_3,,,,,,,,red_square,0-SSD,red_square,0-SSD,purple_square,go-2
,487.0,4,phase_3,,,,,,,,red_square,0-SSD,red_square,0-SSD,green_square,go-1
,775.0,4,phase_3,,,,,,,,red_square,0-SSD,blue_square,tracking-SSD,red_square,0-SSD
,1163.0,5,phase_3,,,,,,,,blue_square,tracking-SSD,green_square,go-1,blue_square,tracking-SSD
,1361.0,5,phase_3,,,,,,,,green_square,go-1,green_square,go-1,red_square,0-SSD
,839.0,5,phase_3,,,,,,,,green_square,go-1,green_square,go-1,purple_square,go-2
,903.0,5,phase_3,,,,,,,,red_square,0-SSD,red_square,0-SSD,blue_square,tracking-SSD
,493.0,5,phase_3,,,,,,,,red_square,0-SSD,purple_square,go-2,red_square,0-SSD
,635.0,5,phase_3,,,,,,,,blue_square,tracking-SSD,purple_square,go-2,blue_square,tracking-SSD
,1070.0,5,phase_3,,,,,,,,red_square,0-SSD,blue_square,tracking-SSD,red_square,0-SSD
,480.0,5,phase_3,,,,,,,,red_square,0-SSD,red_square,0-SSD,purple_square,go-2
,892.0,5,phase_3,,,,,,,,green_square,go-1,purple_square,go-2,green_square,go-1
,956.0,5,phase_3,,,,,,,,blue_square,tracking-SSD,blue_square,tracking-SSD,purple_square,go-2
,613.0,5,phase_3,,,,,,,,blue_square,tracking-SSD,blue_square,tracking-SSD,green_square,go-1
,462.0,5,phase_3,,,,,,,,red_square,0-SSD,red_square,0-SSD,green_square,go-1
