response,reaction_time,block,which_phase,stim,stop_signal_trial_type,stop_signal_stimulus,SSD,SSD_type,condition,accuracy,chosen_stim,chosen_cond,stim_left,cond_left,stim_right,cond_right
2,486.0,1,phase_2,red_rhombus,stop,blue,0.0,0-SSD,go-2,3,,,,,,
2,349.0,1,phase_2,red_triangle,stop,green,250.0,tracking-SSD,go-2,3,,,,,,
2,482.0,1,phase_2,red_rhombus,go,,,,go-2,1,,,,,,
1,468.0,1,phase_2,red_circle,go,,,,go-2,1,,,,,,
1,375.0,1,phase_2,purple_circle,go,,,,go-1,1,,,,,,
0,0,1,phase_2,red_pentagon,stop,blue,0.0,0-SSD,go-2,4,,,,,,
2,316.0,1,phase_2,purple_triangle,go,,,,go-1,1,,,,,,
1,303.0,1,phase_2,purple_pentagon,stop,blue,0.0,0-SSD,go-1,3,,,,,,
1,412.0,1,phase_2,red_circle,go,,,,go-2,1,,,,,,
2,387.0,1,phase_2,purple_triangle,go,,,,go-1,1,,,,,,
1,690.0,1,phase_2,red_pentagon,go,,,,go-2,1,,,,,,
0,0,1,phase_2,red_circle,stop,blue,0.0,0-SSD,go-2,4,,,,,,
1,359.0,1,phase_2,red_triangle,go,,,,go-2,2,,,,,,
2,324.0,1,phase_2,red_triangle,stop,green,200.0,tracking-SSD,go-2,3,,,,,,
1,512.0,1,phase_2,purple_circle,go,,,,go-1,1,,,,,,
2,442.0,1,phase_2,red_rhombus,go,,,,go-2,1,,,,,,
1,429.0,1,phase_2,purple_circle,go,,,,go-1,1,,,,,,
0,0,1,phase_2,purple_pentagon,stop,blue,0.0,0-SSD,go-1,4,,,,,,
2,300.0,1,phase_2,purple_pentagon,stop,green,150.0,tracking-SSD,go-1,3,,,,,,
0,0,1,phase_2,red_circle,stop,green,100.0,tracking-SSD,go-2,4,,,,,,
2,452.0,1,phase_2,purple_pentagon,go,,,,go-1,2,,,,,,
2,417.0,1,phase_2,purple_rhombus,go,,,,go-1,1,,,,,,
2,380.0,1,phase_2,purple_pentagon,go,,,,go-1,2,,,,,,
1,468.0,1,phase_2,red_circle,go,,,,go-2,1,,,,,,
0,0,1,phase_2,red_rhombus,stop,blue,0.0,0-SSD,go-2,4,,,,,,
2,361.0,1,phase_2,red_rhombus,go,,,,go-2,1,,,,,,
2,393.0,1,phase_2,purple_rhombus,go,,,,go-1,1,,,,,,
1,412.0,1,phase_2,purple_triangle,go,,,,go-1,2,,,,,,
0,0,1,phase_2,purple_triangle,stop,green,150.0,tracking-SSD,go-1,4,,,,,,
2,408.0,1,phase_2,red_triangle,go,,,,go-2,1,,,,,,
2,506.0,1,phase_2,purple_circle,go,,,,go-1,2,,,,,,
2,493.0,1,phase_2,purple_rhombus,go,,,,go-1,1,,,,,,
2,512.0,1,phase_2,red_pentagon,go,,,,go-2,2,,,,,,
0,0,1,phase_2,purple_circle,stop,blue,0.0,0-SSD,go-1,4,,,,,,
2,327.0,1,phase_2,purple_circle,go,,,,go-1,2,,,,,,
1,438.0,1,phase_2,purple_triangle,go,,,,go-1,2,,,,,,
2,435.0,1,phase_2,red_pentagon,go,,,,go-2,2,,,,,,
2,612.0,1,phase_2,purple_triangle,go,,,,go-1,1,,,,,,
2,654.0,1,phase_2,red_rhombus,go,,,,go-2,1,,,,,,
2,327.0,1,phase_2,red_triangle,stop,green,200.0,tracking-SSD,go-2,3,,,,,,
0,0,1,phase_2,purple_pentagon,stop,blue,0.0,0-SSD,go-1,4,,,,,,
1,366.0,1,phase_2,red_rhombus,go,,,,go-2,2,,,,,,
2,329.0,1,phase_2,purple_rhombus,stop,green,150.0,tracking-SSD,go-1,3,,,,,,
2,406.0,1,phase_2,red_pentagon,go,,,,go-2,2,,,,,,
1,459.0,1,phase_2,red_circle,go,,,,go-2,1,,,,,,
0,0,1,phase_2,purple_rhombus,stop,green,100.0,tracking-SSD,go-1,4,,,,,,
2,321.0,1,phase_2,purple_pentagon,go,,,,go-1,2,,,,,,
2,410.0,1,phase_2,red_triangle,go,,,,go-2,1,,,,,,
2,330.0,2,phase_2,purple_rhombus,go,,,,go-1,1,,,,,,
0,0,2,phase_2,purple_rhombus,stop,blue,0.0,0-SSD,go-1,4,,,,,,
2,327.0,2,phase_2,red_circle,go,,,,go-2,2,,,,,,
1,381.0,2,phase_2,purple_rhombus,go,,,,go-1,2,,,,,,
2,457.0,2,phase_2,red_pentagon,stop,green,150.0,tracking-SSD,go-2,3,,,,,,
2,343.0,2,phase_2,purple_triangle,go,,,,go-1,1,,,,,,
2,375.0,2,phase_2,red_pentagon,go,,,,go-2,2,,,,,,
1,384.0,2,phase_2,purple_pentagon,go,,,,go-1,1,,,,,,
0,0,2,phase_2,red_triangle,stop,green,100.0,tracking-SSD,go-2,4,,,,,,
2,313.0,2,phase_2,purple_triangle,go,,,,go-1,1,,,,,,
0,0,2,phase_2,red_triangle,stop,blue,0.0,0-SSD,go-2,4,,,,,,
0,0,2,phase_2,purple_pentagon,stop,blue,0.0,0-SSD,go-1,4,,,,,,
2,396.0,2,phase_2,purple_triangle,go,,,,go-1,1,,,,,,
2,359.0,2,phase_2,red_pentagon,go,,,,go-2,2,,,,,,
2,459.0,2,phase_2,purple_triangle,go,,,,go-1,1,,,,,,
1,468.0,2,phase_2,red_rhombus,go,,,,go-2,2,,,,,,
2,455.0,2,phase_2,red_pentagon,go,,,,go-2,2,,,,,,
2,430.0,2,phase_2,purple_triangle,go,,,,go-1,1,,,,,,
1,439.0,2,phase_2,purple_circle,go,,,,go-1,1,,,,,,
2,707.0,2,phase_2,purple_rhombus,go,,,,go-1,1,,,,,,
2,333.0,2,phase_2,purple_pentagon,stop,green,150.0,tracking-SSD,go-1,3,,,,,,
0,0,2,phase_2,red_circle,stop,blue,0.0,0-SSD,go-2,4,,,,,,
1,317.0,2,phase_2,red_circle,go,,,,go-2,1,,,,,,
2,517.0,2,phase_2,red_triangle,go,,,,go-2,1,,,,,,
2,403.0,2,phase_2,purple_circle,go,,,,go-1,2,,,,,,
2,536.0,2,phase_2,red_rhombus,go,,,,go-2,1,,,,,,
1,433.0,2,phase_2,red_pentagon,go,,,,go-2,1,,,,,,
1,307.0,2,phase_2,purple_circle,stop,green,100.0,tracking-SSD,go-1,3,,,,,,
2,462.0,2,phase_2,red_triangle,go,,,,go-2,1,,,,,,
2,381.0,2,phase_2,red_triangle,go,,,,go-2,1,,,,,,
1,502.0,2,phase_2,purple_pentagon,go,,,,go-1,1,,,,,,
0,0,2,phase_2,red_pentagon,stop,blue,0.0,0-SSD,go-2,4,,,,,,
0,0,2,phase_2,purple_rhombus,stop,blue,0.0,0-SSD,go-1,4,,,,,,
0,0,2,phase_2,red_triangle,stop,green,50.0,tracking-SSD,go-2,4,,,,,,
2,393.0,2,phase_2,purple_rhombus,go,,,,go-1,1,,,,,,
0,0,2,phase_2,purple_circle,stop,green,100.0,tracking-SSD,go-1,4,,,,,,
1,411.0,2,phase_2,purple_circle,go,,,,go-1,1,,,,,,
1,374.0,2,phase_2,red_circle,go,,,,go-2,1,,,,,,
2,372.0,2,phase_2,red_rhombus,go,,,,go-2,1,,,,,,
2,369.0,2,phase_2,red_rhombus,go,,,,go-2,1,,,,,,
0,0,2,phase_2,red_rhombus,stop,blue,0.0,0-SSD,go-2,4,,,,,,
2,286.0,2,phase_2,purple_pentagon,go,,,,go-1,2,,,,,,
1,463.0,2,phase_2,red_circle,go,,,,go-2,1,,,,,,
0,0,2,phase_2,purple_circle,stop,blue,0.0,0-SSD,go-1,4,,,,,,
2,324.0,2,phase_2,purple_triangle,go,,,,go-1,1,,,,,,
0,0,2,phase_2,red_rhombus,stop,green,150.0,tracking-SSD,go-2,4,,,,,,
2,341.0,2,phase_2,purple_pentagon,stop,green,200.0,tracking-SSD,go-1,3,,,,,,
1,350.0,2,phase_2,red_circle,go,,,,go-2,1,,,,,,
2,421.0,3,phase_2,red_triangle,go,,,,go-2,1,,,,,,
2,328.0,3,phase_2,purple_triangle,go,,,,go-1,1,,,,,,
2,359.0,3,phase_2,purple_pentagon,stop,blue,0.0,0-SSD,go-1,3,,,,,,
0,0,3,phase_2,red_pentagon,stop,blue,0.0,0-SSD,go-2,4,,,,,,
2,421.0,3,phase_2,purple_rhombus,go,,,,go-1,1,,,,,,
1,397.0,3,phase_2,red_circle,go,,,,go-2,1,,,,,,
1,360.0,3,phase_2,red_triangle,go,,,,go-2,2,,,,,,
2,312.0,3,phase_2,purple_pentagon,go,,,,go-1,2,,,,,,
2,445.0,3,phase_2,purple_rhombus,go,,,,go-1,1,,,,,,
0,0,3,phase_2,purple_circle,stop,blue,0.0,0-SSD,go-1,4,,,,,,
1,306.0,3,phase_2,red_circle,go,,,,go-2,1,,,,,,
0,0,3,phase_2,purple_rhombus,stop,blue,0.0,0-SSD,go-1,4,,,,,,
2,345.0,3,phase_2,purple_triangle,stop,green,150.0,tracking-SSD,go-1,3,,,,,,
2,286.0,3,phase_2,purple_pentagon,go,,,,go-1,2,,,,,,
0,0,3,phase_2,red_rhombus,stop,blue,0.0,0-SSD,go-2,4,,,,,,
1,327.0,3,phase_2,red_circle,go,,,,go-2,1,,,,,,
2,368.0,3,phase_2,red_pentagon,go,,,,go-2,2,,,,,,
1,400.0,3,phase_2,purple_circle,stop,green,100.0,tracking-SSD,go-1,3,,,,,,
2,353.0,3,phase_2,red_pentagon,go,,,,go-2,2,,,,,,
2,553.0,3,phase_2,purple_pentagon,go,,,,go-1,2,,,,,,
0,0,3,phase_2,red_triangle,stop,green,50.0,tracking-SSD,go-2,4,,,,,,
0,0,3,phase_2,purple_rhombus,stop,green,100.0,tracking-SSD,go-1,4,,,,,,
1,399.0,3,phase_2,red_pentagon,go,,,,go-2,1,,,,,,
1,408.0,3,phase_2,purple_circle,go,,,,go-1,1,,,,,,
1,405.0,3,phase_2,purple_pentagon,go,,,,go-1,1,,,,,,
2,582.0,3,phase_2,red_triangle,stop,green,150.0,tracking-SSD,go-2,3,,,,,,
2,850.0,3,phase_2,purple_rhombus,go,,,,go-1,1,,,,,,
2,421.0,3,phase_2,purple_circle,go,,,,go-1,2,,,,,,
0,0,3,phase_2,purple_triangle,stop,blue,0.0,0-SSD,go-1,4,,,,,,
1,383.0,3,phase_2,red_rhombus,go,,,,go-2,2,,,,,,
2,504.0,3,phase_2,red_pentagon,go,,,,go-2,2,,,,,,
0,0,3,phase_2,red_triangle,stop,green,100.0,tracking-SSD,go-2,4,,,,,,
2,446.0,3,phase_2,purple_rhombus,go,,,,go-1,1,,,,,,
2,365.0,3,phase_2,purple_rhombus,go,,,,go-1,1,,,,,,
2,463.0,3,phase_2,red_rhombus,go,,,,go-2,1,,,,,,
1,629.0,3,phase_2,red_pentagon,go,,,,go-2,1,,,,,,
2,820.0,3,phase_2,purple_triangle,go,,,,go-1,1,,,,,,
2,470.0,3,phase_2,purple_rhombus,go,,,,go-1,1,,,,,,
1,344.0,3,phase_2,purple_triangle,go,,,,go-1,2,,,,,,
2,375.0,3,phase_2,purple_rhombus,stop,green,150.0,tracking-SSD,go-1,3,,,,,,
0,0,3,phase_2,red_circle,stop,blue,0.0,0-SSD,go-2,4,,,,,,
2,483.0,3,phase_2,red_triangle,go,,,,go-2,1,,,,,,
1,368.0,3,phase_2,purple_circle,go,,,,go-1,1,,,,,,
1,455.0,3,phase_2,red_circle,go,,,,go-2,1,,,,,,
2,397.0,3,phase_2,red_pentagon,stop,green,100.0,tracking-SSD,go-2,3,,,,,,
0,0,3,phase_2,red_circle,stop,blue,0.0,0-SSD,go-2,4,,,,,,
1,405.0,3,phase_2,red_triangle,go,,,,go-2,2,,,,,,
1,436.0,3,phase_2,red_circle,go,,,,go-2,1,,,,,,
0,0,4,phase_2,red_pentagon,stop,green,50.0,tracking-SSD,go-2,4,,,,,,
0,0,4,phase_2,red_triangle,stop,blue,0.0,0-SSD,go-2,4,,,,,,
2,326.0,4,phase_2,red_triangle,go,,,,go-2,1,,,,,,
2,379.0,4,phase_2,red_triangle,stop,green,100.0,tracking-SSD,go-2,3,,,,,,
0,0,4,phase_2,purple_pentagon,stop,blue,0.0,0-SSD,go-1,4,,,,,,
0,0,4,phase_2,red_pentagon,stop,blue,0.0,0-SSD,go-2,4,,,,,,
1,474.0,4,phase_2,red_rhombus,go,,,,go-2,2,,,,,,
2,439.0,4,phase_2,purple_triangle,go,,,,go-1,1,,,,,,
2,312.0,4,phase_2,red_triangle,go,,,,go-2,1,,,,,,
0,0,4,phase_2,red_circle,stop,green,50.0,tracking-SSD,go-2,4,,,,,,
2,442.0,4,phase_2,purple_triangle,go,,,,go-1,1,,,,,,
2,350.0,4,phase_2,purple_rhombus,go,,,,go-1,1,,,,,,
2,415.0,4,phase_2,purple_rhombus,stop,green,100.0,tracking-SSD,go-1,3,,,,,,
2,401.0,4,phase_2,red_rhombus,go,,,,go-2,1,,,,,,
0,0,4,phase_2,red_triangle,stop,green,50.0,tracking-SSD,go-2,4,,,,,,
1,319.0,4,phase_2,purple_circle,go,,,,go-1,1,,,,,,
0,0,4,phase_2,purple_triangle,stop,blue,0.0,0-SSD,go-1,4,,,,,,
1,371.0,4,phase_2,purple_circle,go,,,,go-1,1,,,,,,
1,368.0,4,phase_2,red_circle,go,,,,go-2,1,,,,,,
1,366.0,4,phase_2,red_pentagon,go,,,,go-2,1,,,,,,
1,385.0,4,phase_2,red_circle,go,,,,go-2,1,,,,,,
2,349.0,4,phase_2,purple_rhombus,go,,,,go-1,1,,,,,,
1,404.0,4,phase_2,purple_rhombus,stop,green,100.0,tracking-SSD,go-1,3,,,,,,
2,401.0,4,phase_2,red_pentagon,go,,,,go-2,2,,,,,,
0,0,4,phase_2,purple_rhombus,stop,green,50.0,tracking-SSD,go-1,4,,,,,,
1,406.0,4,phase_2,purple_triangle,go,,,,go-1,2,,,,,,
2,540.0,4,phase_2,red_pentagon,go,,,,go-2,2,,,,,,
0,0,4,phase_2,red_pentagon,stop,blue,0.0,0-SSD,go-2,4,,,,,,
0,0,4,phase_2,purple_pentagon,stop,blue,0.0,0-SSD,go-1,4,,,,,,
2,409.0,4,phase_2,purple_circle,go,,,,go-1,2,,,,,,
2,665.0,4,phase_2,red_rhombus,go,,,,go-2,1,,,,,,
2,1393.0,4,phase_2,red_triangle,go,,,,go-2,1,,,,,,
0,0,4,phase_2,purple_circle,stop,blue,0.0,0-SSD,go-1,4,,,,,,
1,421.0,4,phase_2,purple_circle,go,,,,go-1,1,,,,,,
2,488.0,4,phase_2,red_pentagon,go,,,,go-2,2,,,,,,
2,755.0,4,phase_2,purple_rhombus,go,,,,go-1,1,,,,,,
0,0,4,phase_2,purple_pentagon,stop,green,100.0,tracking-SSD,go-1,4,,,,,,
1,561.0,4,phase_2,red_circle,go,,,,go-2,1,,,,,,
1,310.0,4,phase_2,red_circle,go,,,,go-2,1,,,,,,
2,400.0,4,phase_2,purple_pentagon,go,,,,go-1,2,,,,,,
1,352.0,4,phase_2,red_circle,go,,,,go-2,1,,,,,,
1,360.0,4,phase_2,purple_rhombus,go,,,,go-1,2,,,,,,
0,0,4,phase_2,red_triangle,stop,blue,0.0,0-SSD,go-2,4,,,,,,
2,491.0,4,phase_2,purple_pentagon,go,,,,go-1,2,,,,,,
1,410.0,4,phase_2,purple_circle,go,,,,go-1,1,,,,,,
2,395.0,4,phase_2,purple_rhombus,go,,,,go-1,1,,,,,,
2,494.0,4,phase_2,purple_rhombus,go,,,,go-1,1,,,,,,
1,436.0,4,phase_2,red_triangle,go,,,,go-2,2,,,,,,
0,0,5,phase_2,red_triangle,stop,blue,0.0,0-SSD,go-2,4,,,,,,
0,0,5,phase_2,purple_pentagon,stop,blue,0.0,0-SSD,go-1,4,,,,,,
0,0,5,phase_2,purple_circle,stop,blue,0.0,0-SSD,go-1,4,,,,,,
2,368.0,5,phase_2,purple_circle,go,,,,go-1,2,,,,,,
2,737.0,5,phase_2,red_rhombus,go,,,,go-2,1,,,,,,
2,420.0,5,phase_2,purple_rhombus,go,,,,go-1,1,,,,,,
2,384.0,5,phase_2,purple_rhombus,go,,,,go-1,1,,,,,,
1,505.0,5,phase_2,red_pentagon,go,,,,go-2,1,,,,,,
1,457.0,5,phase_2,purple_triangle,go,,,,go-1,2,,,,,,
0,0,5,phase_2,red_rhombus,stop,green,150.0,tracking-SSD,go-2,4,,,,,,
1,579.0,5,phase_2,purple_pentagon,go,,,,go-1,1,,,,,,
2,643.0,5,phase_2,red_rhombus,go,,,,go-2,1,,,,,,
2,394.0,5,phase_2,red_rhombus,stop,green,200.0,tracking-SSD,go-2,3,,,,,,
2,739.0,5,phase_2,red_triangle,go,,,,go-2,1,,,,,,
2,320.0,5,phase_2,red_triangle,go,,,,go-2,1,,,,,,
2,364.0,5,phase_2,red_triangle,stop,green,150.0,tracking-SSD,go-2,3,,,,,,
1,665.0,5,phase_2,red_pentagon,go,,,,go-2,1,,,,,,
1,336.0,5,phase_2,purple_circle,go,,,,go-1,1,,,,,,
1,367.0,5,phase_2,purple_circle,go,,,,go-1,1,,,,,,
1,398.0,5,phase_2,purple_triangle,go,,,,go-1,2,,,,,,
2,677.0,5,phase_2,purple_pentagon,go,,,,go-1,2,,,,,,
2,561.0,5,phase_2,red_rhombus,go,,,,go-2,1,,,,,,
1,448.0,5,phase_2,red_circle,stop,green,100.0,tracking-SSD,go-2,3,,,,,,
2,559.0,5,phase_2,red_rhombus,go,,,,go-2,1,,,,,,
2,411.0,5,phase_2,purple_rhombus,go,,,,go-1,1,,,,,,
1,465.0,5,phase_2,purple_triangle,go,,,,go-1,2,,,,,,
0,0,5,phase_2,red_pentagon,stop,blue,0.0,0-SSD,go-2,4,,,,,,
0,0,5,phase_2,purple_triangle,stop,green,50.0,tracking-SSD,go-1,4,,,,,,
1,491.0,5,phase_2,red_circle,go,,,,go-2,1,,,,,,
2,544.0,5,phase_2,purple_rhombus,go,,,,go-1,1,,,,,,
0,0,5,phase_2,red_rhombus,stop,blue,0.0,0-SSD,go-2,4,,,,,,
0,0,5,phase_2,red_circle,stop,blue,0.0,0-SSD,go-2,4,,,,,,
1,391.0,5,phase_2,purple_circle,stop,green,100.0,tracking-SSD,go-1,3,,,,,,
1,355.0,5,phase_2,red_circle,go,,,,go-2,1,,,,,,
2,520.0,5,phase_2,purple_pentagon,go,,,,go-1,2,,,,,,
2,461.0,5,phase_2,purple_triangle,go,,,,go-1,1,,,,,,
1,402.0,5,phase_2,purple_circle,go,,,,go-1,1,,,,,,
2,446.0,5,phase_2,purple_pentagon,go,,,,go-1,2,,,,,,
0,0,5,phase_2,purple_pentagon,stop,blue,0.0,0-SSD,go-1,4,,,,,,
2,665.0,5,phase_2,red_rhombus,go,,,,go-2,1,,,,,,
0,0,5,phase_2,purple_pentagon,stop,green,50.0,tracking-SSD,go-1,4,,,,,,
2,480.0,5,phase_2,red_pentagon,go,,,,go-2,2,,,,,,
0,0,5,phase_2,purple_circle,stop,blue,0.0,0-SSD,go-1,4,,,,,,
0,0,5,phase_2,purple_circle,stop,green,100.0,tracking-SSD,go-1,4,,,,,,
1,430.0,5,phase_2,red_pentagon,go,,,,go-2,1,,,,,,
2,642.0,5,phase_2,red_triangle,go,,,,go-2,1,,,,,,
2,545.0,5,phase_2,red_triangle,go,,,,go-2,1,,,,,,
2,420.0,5,phase_2,red_triangle,go,,,,go-2,1,,,,,,
2,713.0,6,phase_2,purple_rhombus,go,,,,go-1,1,,,,,,
2,419.0,6,phase_2,red_pentagon,go,,,,go-2,2,,,,,,
0,0,6,phase_2,red_triangle,stop,blue,0.0,0-SSD,go-2,4,,,,,,
1,347.0,6,phase_2,red_circle,go,,,,go-2,1,,,,,,
2,559.0,6,phase_2,red_rhombus,go,,,,go-2,1,,,,,,
2,510.0,6,phase_2,red_triangle,go,,,,go-2,1,,,,,,
1,520.0,6,phase_2,red_pentagon,go,,,,go-2,1,,,,,,
1,417.0,6,phase_2,purple_circle,go,,,,go-1,1,,,,,,
1,359.0,6,phase_2,red_circle,stop,green,150.0,tracking-SSD,go-2,3,,,,,,
2,683.0,6,phase_2,purple_pentagon,go,,,,go-1,2,,,,,,
1,399.0,6,phase_2,purple_circle,go,,,,go-1,1,,,,,,
2,565.0,6,phase_2,purple_triangle,go,,,,go-1,1,,,,,,
2,484.0,6,phase_2,red_triangle,go,,,,go-2,1,,,,,,
0,0,6,phase_2,purple_rhombus,stop,green,100.0,tracking-SSD,go-1,4,,,,,,
2,355.0,6,phase_2,purple_pentagon,go,,,,go-1,2,,,,,,
0,0,6,phase_2,red_triangle,stop,blue,0.0,0-SSD,go-2,4,,,,,,
0,0,6,phase_2,red_circle,stop,blue,0.0,0-SSD,go-2,4,,,,,,
0,0,6,phase_2,purple_rhombus,stop,blue,0.0,0-SSD,go-1,4,,,,,,
0,0,6,phase_2,purple_rhombus,stop,blue,0.0,0-SSD,go-1,4,,,,,,
0,0,6,phase_2,red_triangle,stop,green,150.0,tracking-SSD,go-2,4,,,,,,
1,510.0,6,phase_2,purple_circle,go,,,,go-1,1,,,,,,
1,349.0,6,phase_2,purple_circle,go,,,,go-1,1,,,,,,
2,461.0,6,phase_2,red_rhombus,go,,,,go-2,1,,,,,,
1,346.0,6,phase_2,red_pentagon,go,,,,go-2,1,,,,,,
1,401.0,6,phase_2,purple_pentagon,stop,green,200.0,tracking-SSD,go-1,3,,,,,,
2,500.0,6,phase_2,red_triangle,go,,,,go-2,1,,,,,,
0,0,6,phase_2,purple_pentagon,stop,green,150.0,tracking-SSD,go-1,4,,,,,,
1,449.0,6,phase_2,purple_pentagon,go,,,,go-1,1,,,,,,
2,402.0,6,phase_2,purple_rhombus,stop,green,200.0,tracking-SSD,go-1,3,,,,,,
2,400.0,6,phase_2,purple_rhombus,go,,,,go-1,1,,,,,,
1,389.0,6,phase_2,red_circle,go,,,,go-2,1,,,,,,
0,0,6,phase_2,purple_rhombus,stop,blue,0.0,0-SSD,go-1,4,,,,,,
1,340.0,6,phase_2,red_circle,stop,green,150.0,tracking-SSD,go-2,3,,,,,,
1,316.0,6,phase_2,purple_circle,go,,,,go-1,1,,,,,,
2,605.0,6,phase_2,red_triangle,go,,,,go-2,1,,,,,,
0,0,6,phase_2,red_triangle,stop,blue,0.0,0-SSD,go-2,4,,,,,,
0,0,6,phase_2,purple_pentagon,stop,blue,0.0,0-SSD,go-1,4,,,,,,
1,340.0,6,phase_2,purple_pentagon,go,,,,go-1,1,,,,,,
2,551.0,6,phase_2,purple_rhombus,go,,,,go-1,1,,,,,,
2,424.0,6,phase_2,red_pentagon,go,,,,go-2,2,,,,,,
2,556.0,6,phase_2,purple_triangle,go,,,,go-1,1,,,,,,
1,419.0,6,phase_2,red_circle,go,,,,go-2,1,,,,,,
1,371.0,6,phase_2,red_pentagon,go,,,,go-2,1,,,,,,
1,346.0,6,phase_2,purple_triangle,go,,,,go-1,2,,,,,,
2,535.0,6,phase_2,red_rhombus,go,,,,go-2,1,,,,,,
0,0,6,phase_2,red_rhombus,stop,green,100.0,tracking-SSD,go-2,4,,,,,,
1,341.0,6,phase_2,red_circle,go,,,,go-2,1,,,,,,
2,542.0,6,phase_2,purple_triangle,go,,,,go-1,1,,,,,,
1,363.0,7,phase_2,red_rhombus,go,,,,go-2,2,,,,,,
1,441.0,7,phase_2,purple_circle,go,,,,go-1,1,,,,,,
2,428.0,7,phase_2,purple_triangle,go,,,,go-1,1,,,,,,
1,448.0,7,phase_2,red_circle,go,,,,go-2,1,,,,,,
1,423.0,7,phase_2,purple_circle,go,,,,go-1,1,,,,,,
0,0,7,phase_2,red_pentagon,stop,blue,0.0,0-SSD,go-2,4,,,,,,
1,430.0,7,phase_2,red_pentagon,go,,,,go-2,1,,,,,,
1,519.0,7,phase_2,purple_circle,go,,,,go-1,1,,,,,,
1,493.0,7,phase_2,red_circle,go,,,,go-2,1,,,,,,
1,525.0,7,phase_2,purple_pentagon,go,,,,go-1,1,,,,,,
2,535.0,7,phase_2,purple_rhombus,go,,,,go-1,1,,,,,,
2,443.0,7,phase_2,red_triangle,go,,,,go-2,1,,,,,,
1,599.0,7,phase_2,red_pentagon,go,,,,go-2,1,,,,,,
0,0,7,phase_2,red_rhombus,stop,green,150.0,tracking-SSD,go-2,4,,,,,,
2,481.0,7,phase_2,red_rhombus,stop,green,200.0,tracking-SSD,go-2,3,,,,,,
1,467.0,7,phase_2,red_pentagon,go,,,,go-2,1,,,,,,
0,0,7,phase_2,red_triangle,stop,green,150.0,tracking-SSD,go-2,4,,,,,,
2,552.0,7,phase_2,red_rhombus,go,,,,go-2,1,,,,,,
0,0,7,phase_2,red_circle,stop,blue,0.0,0-SSD,go-2,4,,,,,,
2,513.0,7,phase_2,red_triangle,go,,,,go-2,1,,,,,,
0,0,7,phase_2,purple_circle,stop,blue,0.0,0-SSD,go-1,4,,,,,,
1,576.0,7,phase_2,purple_pentagon,go,,,,go-1,1,,,,,,
1,405.0,7,phase_2,red_circle,stop,green,200.0,tracking-SSD,go-2,3,,,,,,
2,526.0,7,phase_2,purple_rhombus,go,,,,go-1,1,,,,,,
0,0,7,phase_2,purple_rhombus,stop,green,150.0,tracking-SSD,go-1,4,,,,,,
2,342.0,7,phase_2,purple_rhombus,go,,,,go-1,1,,,,,,
2,329.0,7,phase_2,purple_pentagon,go,,,,go-1,2,,,,,,
0,0,7,phase_2,purple_triangle,stop,green,200.0,tracking-SSD,go-1,4,,,,,,
0,0,7,phase_2,red_triangle,stop,blue,0.0,0-SSD,go-2,4,,,,,,
1,389.0,7,phase_2,purple_rhombus,stop,green,250.0,tracking-SSD,go-1,3,,,,,,
1,330.0,7,phase_2,purple_pentagon,go,,,,go-1,1,,,,,,
0,0,7,phase_2,purple_pentagon,stop,blue,0.0,0-SSD,go-1,4,,,,,,
1,539.0,7,phase_2,red_pentagon,go,,,,go-2,1,,,,,,
2,345.0,7,phase_2,purple_triangle,go,,,,go-1,1,,,,,,
2,434.0,7,phase_2,red_triangle,go,,,,go-2,1,,,,,,
2,352.0,7,phase_2,red_triangle,go,,,,go-2,1,,,,,,
1,383.0,7,phase_2,purple_rhombus,go,,,,go-1,2,,,,,,
1,357.0,7,phase_2,red_pentagon,go,,,,go-2,1,,,,,,
0,0,7,phase_2,purple_circle,stop,blue,0.0,0-SSD,go-1,4,,,,,,
1,557.0,7,phase_2,purple_circle,go,,,,go-1,1,,,,,,
1,431.0,7,phase_2,red_circle,go,,,,go-2,1,,,,,,
1,441.0,7,phase_2,purple_rhombus,go,,,,go-1,2,,,,,,
2,586.0,7,phase_2,red_triangle,go,,,,go-2,1,,,,,,
0,0,7,phase_2,red_circle,stop,blue,0.0,0-SSD,go-2,4,,,,,,
1,447.0,7,phase_2,red_triangle,go,,,,go-2,2,,,,,,
0,0,7,phase_2,purple_pentagon,stop,blue,0.0,0-SSD,go-1,4,,,,,,
2,723.0,7,phase_2,purple_triangle,go,,,,go-1,1,,,,,,
2,462.0,7,phase_2,purple_rhombus,stop,green,200.0,tracking-SSD,go-1,3,,,,,,
0,0,8,phase_2,red_pentagon,stop,blue,0.0,0-SSD,go-2,4,,,,,,
1,608.0,8,phase_2,purple_rhombus,go,,,,go-1,2,,,,,,
2,414.0,8,phase_2,purple_triangle,go,,,,go-1,1,,,,,,
1,536.0,8,phase_2,red_circle,go,,,,go-2,1,,,,,,
0,0,8,phase_2,red_pentagon,stop,blue,0.0,0-SSD,go-2,4,,,,,,
2,431.0,8,phase_2,purple_triangle,go,,,,go-1,1,,,,,,
1,506.0,8,phase_2,purple_pentagon,go,,,,go-1,1,,,,,,
2,370.0,8,phase_2,purple_circle,go,,,,go-1,2,,,,,,
1,355.0,8,phase_2,red_circle,go,,,,go-2,1,,,,,,
2,442.0,8,phase_2,purple_triangle,go,,,,go-1,1,,,,,,
2,653.0,8,phase_2,purple_rhombus,go,,,,go-1,1,,,,,,
1,426.0,8,phase_2,red_pentagon,go,,,,go-2,1,,,,,,
0,0,8,phase_2,purple_rhombus,stop,blue,0.0,0-SSD,go-1,4,,,,,,
1,421.0,8,phase_2,red_pentagon,go,,,,go-2,1,,,,,,
2,452.0,8,phase_2,red_triangle,stop,green,150.0,tracking-SSD,go-2,3,,,,,,
0,0,8,phase_2,purple_rhombus,stop,blue,0.0,0-SSD,go-1,4,,,,,,
0,0,8,phase_2,red_rhombus,stop,blue,0.0,0-SSD,go-2,4,,,,,,
0,0,8,phase_2,red_pentagon,stop,blue,0.0,0-SSD,go-2,4,,,,,,
1,398.0,8,phase_2,purple_triangle,go,,,,go-1,2,,,,,,
1,486.0,8,phase_2,purple_pentagon,go,,,,go-1,1,,,,,,
0,0,8,phase_2,red_circle,stop,green,100.0,tracking-SSD,go-2,4,,,,,,
0,0,8,phase_2,purple_circle,stop,blue,0.0,0-SSD,go-1,4,,,,,,
1,482.0,8,phase_2,red_circle,go,,,,go-2,1,,,,,,
0,0,8,phase_2,red_circle,stop,green,150.0,tracking-SSD,go-2,4,,,,,,
1,354.0,8,phase_2,purple_circle,stop,green,200.0,tracking-SSD,go-1,3,,,,,,
2,362.0,8,phase_2,red_rhombus,go,,,,go-2,1,,,,,,
1,383.0,8,phase_2,red_triangle,go,,,,go-2,2,,,,,,
1,731.0,8,phase_2,purple_pentagon,go,,,,go-1,1,,,,,,
2,492.0,8,phase_2,red_triangle,go,,,,go-2,1,,,,,,
1,321.0,8,phase_2,purple_circle,stop,green,150.0,tracking-SSD,go-1,3,,,,,,
2,386.0,8,phase_2,red_triangle,go,,,,go-2,1,,,,,,
1,474.0,8,phase_2,red_circle,go,,,,go-2,1,,,,,,
2,909.0,8,phase_2,purple_triangle,go,,,,go-1,1,,,,,,
2,491.0,8,phase_2,red_rhombus,go,,,,go-2,1,,,,,,
2,512.0,8,phase_2,purple_triangle,go,,,,go-1,1,,,,,,
2,419.0,8,phase_2,purple_rhombus,go,,,,go-1,1,,,,,,
0,0,8,phase_2,purple_rhombus,stop,blue,0.0,0-SSD,go-1,4,,,,,,
2,559.0,8,phase_2,purple_rhombus,go,,,,go-1,1,,,,,,
2,534.0,8,phase_2,red_triangle,go,,,,go-2,1,,,,,,
1,477.0,8,phase_2,red_pentagon,stop,green,100.0,tracking-SSD,go-2,3,,,,,,
2,383.0,8,phase_2,red_circle,go,,,,go-2,2,,,,,,
0,0,8,phase_2,purple_pentagon,stop,green,50.0,tracking-SSD,go-1,4,,,,,,
1,323.0,8,phase_2,purple_rhombus,go,,,,go-1,2,,,,,,
2,612.0,8,phase_2,red_rhombus,go,,,,go-2,1,,,,,,
2,498.0,8,phase_2,red_triangle,go,,,,go-2,1,,,,,,
1,484.0,8,phase_2,purple_pentagon,go,,,,go-1,1,,,,,,
1,335.0,8,phase_2,red_pentagon,go,,,,go-2,1,,,,,,
1,467.0,8,phase_2,purple_circle,stop,green,100.0,tracking-SSD,go-1,3,,,,,,
0,0,9,phase_2,red_pentagon,stop,green,50.0,tracking-SSD,go-2,4,,,,,,
2,519.0,9,phase_2,purple_rhombus,go,,,,go-1,1,,,,,,
2,404.0,9,phase_2,purple_rhombus,go,,,,go-1,1,,,,,,
1,435.0,9,phase_2,purple_triangle,go,,,,go-1,2,,,,,,
2,434.0,9,phase_2,red_pentagon,go,,,,go-2,2,,,,,,
2,578.0,9,phase_2,red_rhombus,go,,,,go-2,1,,,,,,
1,395.0,9,phase_2,red_triangle,go,,,,go-2,2,,,,,,
1,394.0,9,phase_2,red_circle,go,,,,go-2,1,,,,,,
2,505.0,9,phase_2,red_triangle,go,,,,go-2,1,,,,,,
2,333.0,9,phase_2,purple_rhombus,go,,,,go-1,1,,,,,,
0,0,9,phase_2,purple_pentagon,stop,green,100.0,tracking-SSD,go-1,4,,,,,,
1,350.0,9,phase_2,purple_circle,go,,,,go-1,1,,,,,,
2,528.0,9,phase_2,purple_triangle,go,,,,go-1,1,,,,,,
1,413.0,9,phase_2,red_circle,go,,,,go-2,1,,,,,,
0,0,9,phase_2,purple_rhombus,stop,blue,0.0,0-SSD,go-1,4,,,,,,
2,475.0,9,phase_2,purple_triangle,go,,,,go-1,1,,,,,,
2,418.0,9,phase_2,red_triangle,go,,,,go-2,1,,,,,,
2,618.0,9,phase_2,purple_rhombus,go,,,,go-1,1,,,,,,
0,0,9,phase_2,red_triangle,stop,green,150.0,tracking-SSD,go-2,4,,,,,,
0,0,9,phase_2,red_pentagon,stop,blue,0.0,0-SSD,go-2,4,,,,,,
2,509.0,9,phase_2,red_triangle,go,,,,go-2,1,,,,,,
1,506.0,9,phase_2,purple_pentagon,go,,,,go-1,1,,,,,,
2,549.0,9,phase_2,red_triangle,go,,,,go-2,1,,,,,,
0,0,9,phase_2,purple_rhombus,stop,blue,0.0,0-SSD,go-1,4,,,,,,
1,487.0,9,phase_2,purple_circle,go,,,,go-1,1,,,,,,
2,745.0,9,phase_2,red_pentagon,go,,,,go-2,2,,,,,,
1,359.0,9,phase_2,red_triangle,go,,,,go-2,2,,,,,,
2,548.0,9,phase_2,red_rhombus,go,,,,go-2,1,,,,,,
1,432.0,9,phase_2,red_circle,go,,,,go-2,1,,,,,,
1,385.0,9,phase_2,purple_circle,stop,green,200.0,tracking-SSD,go-1,3,,,,,,
2,417.0,9,phase_2,red_pentagon,go,,,,go-2,2,,,,,,
0,0,9,phase_2,red_pentagon,stop,green,150.0,tracking-SSD,go-2,4,,,,,,
1,366.0,9,phase_2,purple_circle,go,,,,go-1,1,,,,,,
2,533.0,9,phase_2,purple_rhombus,go,,,,go-1,1,,,,,,
2,408.0,9,phase_2,purple_circle,go,,,,go-1,2,,,,,,
1,383.0,9,phase_2,purple_circle,go,,,,go-1,1,,,,,,
0,0,9,phase_2,purple_pentagon,stop,blue,0.0,0-SSD,go-1,4,,,,,,
1,355.0,9,phase_2,purple_circle,stop,green,200.0,tracking-SSD,go-1,3,,,,,,
0,0,9,phase_2,red_rhombus,stop,blue,0.0,0-SSD,go-2,4,,,,,,
2,474.0,9,phase_2,red_pentagon,stop,green,150.0,tracking-SSD,go-2,3,,,,,,
0,0,9,phase_2,purple_rhombus,stop,blue,0.0,0-SSD,go-1,4,,,,,,
1,346.0,9,phase_2,purple_circle,go,,,,go-1,1,,,,,,
0,0,9,phase_2,purple_circle,stop,green,100.0,tracking-SSD,go-1,4,,,,,,
0,0,9,phase_2,red_triangle,stop,blue,0.0,0-SSD,go-2,4,,,,,,
1,408.0,9,phase_2,purple_rhombus,go,,,,go-1,2,,,,,,
1,405.0,9,phase_2,red_pentagon,go,,,,go-2,1,,,,,,
0,0,9,phase_2,red_triangle,stop,blue,0.0,0-SSD,go-2,4,,,,,,
1,357.0,9,phase_2,red_pentagon,go,,,,go-2,1,,,,,,
1,455.0,10,phase_2,purple_circle,go,,,,go-1,1,,,,,,
1,418.0,10,phase_2,red_pentagon,go,,,,go-2,1,,,,,,
2,517.0,10,phase_2,red_rhombus,stop,green,150.0,tracking-SSD,go-2,3,,,,,,
2,380.0,10,phase_2,purple_rhombus,go,,,,go-1,1,,,,,,
2,636.0,10,phase_2,purple_triangle,go,,,,go-1,1,,,,,,
0,0,10,phase_2,red_pentagon,stop,blue,0.0,0-SSD,go-2,4,,,,,,
2,564.0,10,phase_2,red_rhombus,go,,,,go-2,1,,,,,,
0,0,10,phase_2,red_pentagon,stop,blue,0.0,0-SSD,go-2,4,,,,,,
2,423.0,10,phase_2,purple_rhombus,go,,,,go-1,1,,,,,,
1,308.0,10,phase_2,red_circle,go,,,,go-2,1,,,,,,
1,362.0,10,phase_2,red_pentagon,stop,green,100.0,tracking-SSD,go-2,3,,,,,,
1,360.0,10,phase_2,purple_rhombus,go,,,,go-1,2,,,,,,
1,391.0,10,phase_2,purple_pentagon,go,,,,go-1,1,,,,,,
0,0,10,phase_2,purple_circle,stop,green,50.0,tracking-SSD,go-1,4,,,,,,
0,0,10,phase_2,purple_triangle,stop,green,100.0,tracking-SSD,go-1,4,,,,,,
0,0,10,phase_2,red_triangle,stop,blue,0.0,0-SSD,go-2,4,,,,,,
2,404.0,10,phase_2,red_triangle,go,,,,go-2,1,,,,,,
0,0,10,phase_2,purple_rhombus,stop,blue,0.0,0-SSD,go-1,4,,,,,,
1,578.0,10,phase_2,purple_pentagon,go,,,,go-1,1,,,,,,
1,430.0,10,phase_2,red_circle,go,,,,go-2,1,,,,,,
1,427.0,10,phase_2,red_rhombus,go,,,,go-2,2,,,,,,
2,492.0,10,phase_2,purple_rhombus,go,,,,go-1,1,,,,,,
0,0,10,phase_2,red_triangle,stop,green,150.0,tracking-SSD,go-2,4,,,,,,
0,0,10,phase_2,purple_triangle,stop,blue,0.0,0-SSD,go-1,4,,,,,,
1,495.0,10,phase_2,purple_circle,stop,green,200.0,tracking-SSD,go-1,3,,,,,,
1,324.0,10,phase_2,red_circle,go,,,,go-2,1,,,,,,
2,491.0,10,phase_2,purple_rhombus,go,,,,go-1,1,,,,,,
1,409.0,10,phase_2,red_circle,go,,,,go-2,1,,,,,,
1,383.0,10,phase_2,purple_pentagon,go,,,,go-1,1,,,,,,
1,505.0,10,phase_2,red_circle,go,,,,go-2,1,,,,,,
2,457.0,10,phase_2,red_triangle,go,,,,go-2,1,,,,,,
2,579.0,10,phase_2,purple_rhombus,go,,,,go-1,1,,,,,,
2,531.0,10,phase_2,purple_triangle,go,,,,go-1,1,,,,,,
1,428.0,10,phase_2,purple_pentagon,go,,,,go-1,1,,,,,,
0,0,10,phase_2,purple_circle,stop,green,150.0,tracking-SSD,go-1,4,,,,,,
2,738.0,10,phase_2,red_rhombus,go,,,,go-2,1,,,,,,
1,478.0,10,phase_2,red_triangle,go,,,,go-2,2,,,,,,
2,373.0,10,phase_2,purple_triangle,go,,,,go-1,1,,,,,,
0,0,10,phase_2,purple_circle,stop,blue,0.0,0-SSD,go-1,4,,,,,,
1,414.0,10,phase_2,red_pentagon,go,,,,go-2,1,,,,,,
0,0,10,phase_2,red_triangle,stop,blue,0.0,0-SSD,go-2,4,,,,,,
1,432.0,10,phase_2,purple_pentagon,go,,,,go-1,1,,,,,,
1,385.0,10,phase_2,red_circle,go,,,,go-2,1,,,,,,
2,438.0,10,phase_2,red_triangle,go,,,,go-2,1,,,,,,
2,391.0,10,phase_2,red_rhombus,stop,green,200.0,tracking-SSD,go-2,3,,,,,,
0,0,10,phase_2,purple_pentagon,stop,blue,0.0,0-SSD,go-1,4,,,,,,
1,387.0,10,phase_2,purple_circle,go,,,,go-1,1,,,,,,
1,406.0,10,phase_2,red_pentagon,go,,,,go-2,1,,,,,,
2,409.0,11,phase_2,purple_triangle,go,,,,go-1,1,,,,,,
1,441.0,11,phase_2,red_circle,go,,,,go-2,1,,,,,,
0,0,11,phase_2,red_triangle,stop,green,150.0,tracking-SSD,go-2,4,,,,,,
2,502.0,11,phase_2,red_pentagon,stop,green,200.0,tracking-SSD,go-2,3,,,,,,
2,466.0,11,phase_2,purple_triangle,go,,,,go-1,1,,,,,,
2,621.0,11,phase_2,red_rhombus,go,,,,go-2,1,,,,,,
2,586.0,11,phase_2,red_triangle,go,,,,go-2,1,,,,,,
0,0,11,phase_2,red_triangle,stop,blue,0.0,0-SSD,go-2,4,,,,,,
2,265.0,11,phase_2,red_circle,go,,,,go-2,2,,,,,,
0,0,11,phase_2,purple_rhombus,stop,green,150.0,tracking-SSD,go-1,4,,,,,,
0,0,11,phase_2,red_pentagon,stop,blue,0.0,0-SSD,go-2,4,,,,,,
1,382.0,11,phase_2,red_pentagon,go,,,,go-2,1,,,,,,
1,390.0,11,phase_2,red_pentagon,go,,,,go-2,1,,,,,,
1,432.0,11,phase_2,purple_circle,go,,,,go-1,1,,,,,,
1,441.0,11,phase_2,purple_circle,go,,,,go-1,1,,,,,,
2,427.0,11,phase_2,red_triangle,go,,,,go-2,1,,,,,,
0,0,11,phase_2,purple_circle,stop,blue,0.0,0-SSD,go-1,4,,,,,,
1,366.0,11,phase_2,red_pentagon,go,,,,go-2,1,,,,,,
1,397.0,11,phase_2,purple_rhombus,go,,,,go-1,2,,,,,,
0,0,11,phase_2,red_rhombus,stop,green,200.0,tracking-SSD,go-2,4,,,,,,
1,449.0,11,phase_2,red_pentagon,go,,,,go-2,1,,,,,,
1,423.0,11,phase_2,purple_circle,go,,,,go-1,1,,,,,,
1,489.0,11,phase_2,purple_circle,go,,,,go-1,1,,,,,,
2,485.0,11,phase_2,purple_triangle,go,,,,go-1,1,,,,,,
0,0,11,phase_2,purple_triangle,stop,blue,0.0,0-SSD,go-1,4,,,,,,
1,571.0,11,phase_2,red_pentagon,go,,,,go-2,1,,,,,,
2,501.0,11,phase_2,purple_triangle,go,,,,go-1,1,,,,,,
2,409.0,11,phase_2,purple_triangle,go,,,,go-1,1,,,,,,
2,394.0,11,phase_2,purple_triangle,stop,green,250.0,tracking-SSD,go-1,3,,,,,,
2,493.0,11,phase_2,purple_rhombus,go,,,,go-1,1,,,,,,
1,468.0,11,phase_2,red_pentagon,go,,,,go-2,1,,,,,,
1,511.0,11,phase_2,red_pentagon,go,,,,go-2,1,,,,,,
1,509.0,11,phase_2,purple_circle,go,,,,go-1,1,,,,,,
1,416.0,11,phase_2,purple_rhombus,go,,,,go-1,2,,,,,,
2,560.0,11,phase_2,purple_triangle,stop,green,200.0,tracking-SSD,go-1,3,,,,,,
0,0,11,phase_2,purple_rhombus,stop,blue,0.0,0-SSD,go-1,4,,,,,,
0,0,11,phase_2,red_circle,stop,blue,0.0,0-SSD,go-2,4,,,,,,
1,361.0,11,phase_2,red_circle,go,,,,go-2,1,,,,,,
0,0,11,phase_2,purple_rhombus,stop,green,150.0,tracking-SSD,go-1,4,,,,,,
0,0,11,phase_2,purple_rhombus,stop,blue,0.0,0-SSD,go-1,4,,,,,,
2,363.0,11,phase_2,red_rhombus,go,,,,go-2,1,,,,,,
1,609.0,11,phase_2,purple_pentagon,go,,,,go-1,1,,,,,,
1,359.0,11,phase_2,red_pentagon,go,,,,go-2,1,,,,,,
0,0,11,phase_2,red_circle,stop,blue,0.0,0-SSD,go-2,4,,,,,,
1,319.0,11,phase_2,red_circle,stop,green,200.0,tracking-SSD,go-2,3,,,,,,
2,396.0,11,phase_2,red_rhombus,go,,,,go-2,1,,,,,,
2,325.0,11,phase_2,purple_rhombus,go,,,,go-1,1,,,,,,
2,403.0,11,phase_2,purple_pentagon,go,,,,go-1,2,,,,,,
0,0,12,phase_2,red_pentagon,stop,blue,0.0,0-SSD,go-2,4,,,,,,
2,363.0,12,phase_2,purple_rhombus,stop,green,150.0,tracking-SSD,go-1,3,,,,,,
0,0,12,phase_2,purple_rhombus,stop,blue,0.0,0-SSD,go-1,4,,,,,,
2,359.0,12,phase_2,red_circle,go,,,,go-2,2,,,,,,
0,0,12,phase_2,red_triangle,stop,green,100.0,tracking-SSD,go-2,4,,,,,,
2,556.0,12,phase_2,purple_triangle,go,,,,go-1,1,,,,,,
1,554.0,12,phase_2,purple_circle,go,,,,go-1,1,,,,,,
2,562.0,12,phase_2,red_triangle,go,,,,go-2,1,,,,,,
0,0,12,phase_2,red_rhombus,stop,green,150.0,tracking-SSD,go-2,4,,,,,,
2,457.0,12,phase_2,red_triangle,go,,,,go-2,1,,,,,,
1,521.0,12,phase_2,red_circle,go,,,,go-2,1,,,,,,
0,0,12,phase_2,purple_pentagon,stop,blue,0.0,0-SSD,go-1,4,,,,,,
2,403.0,12,phase_2,purple_triangle,go,,,,go-1,1,,,,,,
2,468.0,12,phase_2,purple_pentagon,go,,,,go-1,2,,,,,,
2,466.0,12,phase_2,red_triangle,go,,,,go-2,1,,,,,,
0,0,12,phase_2,red_rhombus,stop,green,200.0,tracking-SSD,go-2,4,,,,,,
2,505.0,12,phase_2,red_triangle,stop,green,250.0,tracking-SSD,go-2,3,,,,,,
2,547.0,12,phase_2,red_rhombus,go,,,,go-2,1,,,,,,
1,377.0,12,phase_2,purple_pentagon,go,,,,go-1,1,,,,,,
2,443.0,12,phase_2,purple_triangle,go,,,,go-1,1,,,,,,
1,417.0,12,phase_2,red_circle,go,,,,go-2,1,,,,,,
1,574.0,12,phase_2,red_pentagon,go,,,,go-2,1,,,,,,
0,0,12,phase_2,red_circle,stop,blue,0.0,0-SSD,go-2,4,,,,,,
2,377.0,12,phase_2,purple_circle,go,,,,go-1,2,,,,,,
0,0,12,phase_2,purple_circle,stop,blue,0.0,0-SSD,go-1,4,,,,,,
1,317.0,12,phase_2,red_circle,go,,,,go-2,1,,,,,,
2,516.0,12,phase_2,red_rhombus,go,,,,go-2,1,,,,,,
1,378.0,12,phase_2,red_triangle,go,,,,go-2,2,,,,,,
1,456.0,12,phase_2,red_pentagon,go,,,,go-2,1,,,,,,
2,453.0,12,phase_2,purple_pentagon,go,,,,go-1,2,,,,,,
1,372.0,12,phase_2,purple_pentagon,stop,green,200.0,tracking-SSD,go-1,3,,,,,,
0,0,12,phase_2,purple_rhombus,stop,green,150.0,tracking-SSD,go-1,4,,,,,,
1,400.0,12,phase_2,purple_circle,go,,,,go-1,1,,,,,,
2,723.0,12,phase_2,purple_rhombus,go,,,,go-1,1,,,,,,
1,564.0,12,phase_2,red_pentagon,go,,,,go-2,1,,,,,,
1,370.0,12,phase_2,purple_pentagon,stop,green,200.0,tracking-SSD,go-1,3,,,,,,
2,356.0,12,phase_2,purple_rhombus,go,,,,go-1,1,,,,,,
2,387.0,12,phase_2,purple_rhombus,go,,,,go-1,1,,,,,,
1,384.0,12,phase_2,purple_circle,go,,,,go-1,1,,,,,,
2,495.0,12,phase_2,red_triangle,go,,,,go-2,1,,,,,,
1,494.0,12,phase_2,red_circle,go,,,,go-2,1,,,,,,
1,321.0,12,phase_2,purple_circle,go,,,,go-1,1,,,,,,
0,0,12,phase_2,red_rhombus,stop,blue,0.0,0-SSD,go-2,4,,,,,,
1,339.0,12,phase_2,purple_pentagon,go,,,,go-1,1,,,,,,
2,573.0,12,phase_2,purple_rhombus,go,,,,go-1,1,,,,,,
0,0,12,phase_2,red_triangle,stop,blue,0.0,0-SSD,go-2,4,,,,,,
0,0,12,phase_2,purple_pentagon,stop,blue,0.0,0-SSD,go-1,4,,,,,,
1,365.0,12,phase_2,red_triangle,go,,,,go-2,2,,,,,,
2,421.0,13,phase_2,red_triangle,go,,,,go-2,1,,,,,,
2,486.0,13,phase_2,red_rhombus,go,,,,go-2,1,,,,,,
1,371.0,13,phase_2,red_circle,go,,,,go-2,1,,,,,,
1,437.0,13,phase_2,purple_circle,go,,,,go-1,1,,,,,,
0,0,13,phase_2,purple_triangle,stop,green,150.0,tracking-SSD,go-1,4,,,,,,
0,0,13,phase_2,red_circle,stop,blue,0.0,0-SSD,go-2,4,,,,,,
0,0,13,phase_2,purple_circle,stop,blue,0.0,0-SSD,go-1,4,,,,,,
2,470.0,13,phase_2,purple_rhombus,go,,,,go-1,1,,,,,,
2,424.0,13,phase_2,red_pentagon,go,,,,go-2,2,,,,,,
2,364.0,13,phase_2,purple_rhombus,go,,,,go-1,1,,,,,,
1,441.0,13,phase_2,purple_pentagon,go,,,,go-1,1,,,,,,
1,429.0,13,phase_2,red_pentagon,stop,green,200.0,tracking-SSD,go-2,3,,,,,,
2,415.0,13,phase_2,red_triangle,go,,,,go-2,1,,,,,,
1,493.0,13,phase_2,purple_circle,go,,,,go-1,1,,,,,,
0,0,13,phase_2,red_rhombus,stop,blue,0.0,0-SSD,go-2,4,,,,,,
2,319.0,13,phase_2,red_triangle,stop,green,150.0,tracking-SSD,go-2,3,,,,,,
1,339.0,13,phase_2,purple_circle,go,,,,go-1,1,,,,,,
2,830.0,13,phase_2,purple_rhombus,go,,,,go-1,1,,,,,,
1,413.0,13,phase_2,purple_pentagon,go,,,,go-1,1,,,,,,
2,365.0,13,phase_2,red_circle,go,,,,go-2,2,,,,,,
1,508.0,13,phase_2,red_pentagon,go,,,,go-2,1,,,,,,
1,393.0,13,phase_2,purple_pentagon,go,,,,go-1,1,,,,,,
0,0,13,phase_2,purple_rhombus,stop,green,100.0,tracking-SSD,go-1,4,,,,,,
1,343.0,13,phase_2,purple_triangle,go,,,,go-1,2,,,,,,
0,0,13,phase_2,purple_rhombus,stop,green,150.0,tracking-SSD,go-1,4,,,,,,
2,450.0,13,phase_2,red_rhombus,go,,,,go-2,1,,,,,,
2,538.0,13,phase_2,red_triangle,go,,,,go-2,1,,,,,,
2,377.0,13,phase_2,red_triangle,go,,,,go-2,1,,,,,,
2,387.0,13,phase_2,purple_rhombus,go,,,,go-1,1,,,,,,
1,418.0,13,phase_2,red_triangle,go,,,,go-2,2,,,,,,
1,348.0,13,phase_2,purple_circle,stop,green,200.0,tracking-SSD,go-1,3,,,,,,
0,0,13,phase_2,red_pentagon,stop,blue,0.0,0-SSD,go-2,4,,,,,,
1,321.0,13,phase_2,red_circle,go,,,,go-2,1,,,,,,
1,318.0,13,phase_2,red_rhombus,stop,green,150.0,tracking-SSD,go-2,3,,,,,,
1,349.0,13,phase_2,purple_triangle,go,,,,go-1,2,,,,,,
0,0,13,phase_2,purple_circle,stop,blue,0.0,0-SSD,go-1,4,,,,,,
0,0,13,phase_2,purple_triangle,stop,blue,0.0,0-SSD,go-1,4,,,,,,
1,386.0,13,phase_2,purple_circle,go,,,,go-1,1,,,,,,
2,531.0,13,phase_2,red_triangle,go,,,,go-2,1,,,,,,
2,292.0,13,phase_2,red_pentagon,go,,,,go-2,2,,,,,,
1,368.0,13,phase_2,purple_circle,go,,,,go-1,1,,,,,,
1,367.0,13,phase_2,red_pentagon,go,,,,go-2,1,,,,,,
2,432.0,13,phase_2,purple_triangle,go,,,,go-1,1,,,,,,
0,0,13,phase_2,red_pentagon,stop,blue,0.0,0-SSD,go-2,4,,,,,,
1,293.0,13,phase_2,red_rhombus,go,,,,go-2,2,,,,,,
0,0,13,phase_2,purple_rhombus,stop,blue,0.0,0-SSD,go-1,4,,,,,,
0,0,13,phase_2,red_pentagon,stop,green,100.0,tracking-SSD,go-2,4,,,,,,
1,454.0,13,phase_2,purple_pentagon,go,,,,go-1,1,,,,,,
2,385.0,14,phase_2,red_triangle,go,,,,go-2,1,,,,,,
1,429.0,14,phase_2,red_circle,go,,,,go-2,1,,,,,,
2,461.0,14,phase_2,purple_rhombus,go,,,,go-1,1,,,,,,
0,0,14,phase_2,red_pentagon,stop,blue,0.0,0-SSD,go-2,4,,,,,,
1,400.0,14,phase_2,red_circle,go,,,,go-2,1,,,,,,
2,386.0,14,phase_2,purple_rhombus,go,,,,go-1,1,,,,,,
0,0,14,phase_2,purple_circle,stop,blue,0.0,0-SSD,go-1,4,,,,,,
2,470.0,14,phase_2,red_pentagon,go,,,,go-2,2,,,,,,
1,446.0,14,phase_2,red_circle,go,,,,go-2,1,,,,,,
2,478.0,14,phase_2,purple_triangle,go,,,,go-1,1,,,,,,
2,508.0,14,phase_2,red_triangle,stop,green,150.0,tracking-SSD,go-2,3,,,,,,
0,0,14,phase_2,purple_triangle,stop,green,100.0,tracking-SSD,go-1,4,,,,,,
2,424.0,14,phase_2,red_triangle,go,,,,go-2,1,,,,,,
0,0,14,phase_2,purple_pentagon,stop,blue,0.0,0-SSD,go-1,4,,,,,,
2,465.0,14,phase_2,red_rhombus,go,,,,go-2,1,,,,,,
1,396.0,14,phase_2,purple_circle,go,,,,go-1,1,,,,,,
2,507.0,14,phase_2,purple_triangle,go,,,,go-1,1,,,,,,
2,403.0,14,phase_2,purple_triangle,go,,,,go-1,1,,,,,,
2,580.0,14,phase_2,purple_rhombus,go,,,,go-1,1,,,,,,
1,433.0,14,phase_2,red_pentagon,go,,,,go-2,1,,,,,,
1,362.0,14,phase_2,red_circle,go,,,,go-2,1,,,,,,
2,359.0,14,phase_2,purple_pentagon,go,,,,go-1,2,,,,,,
1,357.0,14,phase_2,purple_pentagon,go,,,,go-1,1,,,,,,
1,421.0,14,phase_2,red_pentagon,stop,green,150.0,tracking-SSD,go-2,3,,,,,,
1,386.0,14,phase_2,purple_circle,go,,,,go-1,1,,,,,,
1,349.0,14,phase_2,red_circle,go,,,,go-2,1,,,,,,
0,0,14,phase_2,red_rhombus,stop,green,100.0,tracking-SSD,go-2,4,,,,,,
0,0,14,phase_2,red_triangle,stop,blue,0.0,0-SSD,go-2,4,,,,,,
2,386.0,14,phase_2,red_pentagon,go,,,,go-2,2,,,,,,
1,350.0,14,phase_2,purple_pentagon,go,,,,go-1,1,,,,,,
1,382.0,14,phase_2,purple_triangle,go,,,,go-1,2,,,,,,
1,379.0,14,phase_2,purple_circle,go,,,,go-1,1,,,,,,
2,512.0,14,phase_2,red_rhombus,go,,,,go-2,1,,,,,,
0,0,14,phase_2,red_rhombus,stop,blue,0.0,0-SSD,go-2,4,,,,,,
1,429.0,14,phase_2,purple_triangle,go,,,,go-1,2,,,,,,
0,0,14,phase_2,purple_rhombus,stop,green,150.0,tracking-SSD,go-1,4,,,,,,
2,546.0,14,phase_2,purple_rhombus,go,,,,go-1,1,,,,,,
2,521.0,14,phase_2,red_rhombus,go,,,,go-2,1,,,,,,
2,518.0,14,phase_2,red_rhombus,go,,,,go-2,1,,,,,,
2,325.0,14,phase_2,purple_rhombus,stop,green,200.0,tracking-SSD,go-1,3,,,,,,
1,446.0,14,phase_2,red_circle,stop,green,150.0,tracking-SSD,go-2,3,,,,,,
0,0,14,phase_2,purple_circle,stop,green,100.0,tracking-SSD,go-1,4,,,,,,
0,0,14,phase_2,red_circle,stop,blue,0.0,0-SSD,go-2,4,,,,,,
2,517.0,14,phase_2,red_pentagon,go,,,,go-2,2,,,,,,
0,0,14,phase_2,purple_triangle,stop,blue,0.0,0-SSD,go-1,4,,,,,,
2,412.0,14,phase_2,red_triangle,go,,,,go-2,1,,,,,,
1,465.0,14,phase_2,purple_pentagon,go,,,,go-1,1,,,,,,
0,0,14,phase_2,purple_pentagon,stop,blue,0.0,0-SSD,go-1,4,,,,,,
1,396.0,15,phase_2,purple_circle,go,,,,go-1,1,,,,,,
2,449.0,15,phase_2,purple_triangle,go,,,,go-1,1,,,,,,
0,0,15,phase_2,purple_rhombus,stop,blue,0.0,0-SSD,go-1,4,,,,,,
1,434.0,15,phase_2,red_triangle,go,,,,go-2,2,,,,,,
2,522.0,15,phase_2,red_rhombus,go,,,,go-2,1,,,,,,
2,338.0,15,phase_2,purple_rhombus,go,,,,go-1,1,,,,,,
1,449.0,15,phase_2,red_triangle,stop,green,150.0,tracking-SSD,go-2,3,,,,,,
1,390.0,15,phase_2,purple_triangle,go,,,,go-1,2,,,,,,
1,344.0,15,phase_2,red_circle,go,,,,go-2,1,,,,,,
1,341.0,15,phase_2,purple_circle,go,,,,go-1,1,,,,,,
0,0,15,phase_2,purple_pentagon,stop,green,100.0,tracking-SSD,go-1,4,,,,,,
2,583.0,15,phase_2,purple_triangle,go,,,,go-1,1,,,,,,
2,603.0,15,phase_2,purple_triangle,go,,,,go-1,1,,,,,,
2,622.0,15,phase_2,red_rhombus,go,,,,go-2,1,,,,,,
0,0,15,phase_2,red_pentagon,stop,blue,0.0,0-SSD,go-2,4,,,,,,
0,0,15,phase_2,purple_circle,stop,blue,0.0,0-SSD,go-1,4,,,,,,
1,435.0,15,phase_2,purple_pentagon,go,,,,go-1,1,,,,,,
2,466.0,15,phase_2,purple_triangle,go,,,,go-1,1,,,,,,
1,565.0,15,phase_2,red_pentagon,go,,,,go-2,1,,,,,,
0,0,15,phase_2,purple_circle,stop,green,150.0,tracking-SSD,go-1,4,,,,,,
2,514.0,15,phase_2,purple_rhombus,go,,,,go-1,1,,,,,,
0,0,15,phase_2,red_triangle,stop,blue,0.0,0-SSD,go-2,4,,,,,,
1,465.0,15,phase_2,red_circle,go,,,,go-2,1,,,,,,
2,451.0,15,phase_2,red_pentagon,go,,,,go-2,2,,,,,,
2,538.0,15,phase_2,purple_rhombus,go,,,,go-1,1,,,,,,
0,0,15,phase_2,red_circle,stop,blue,0.0,0-SSD,go-2,4,,,,,,
1,590.0,15,phase_2,purple_pentagon,go,,,,go-1,1,,,,,,
2,464.0,15,phase_2,red_rhombus,stop,green,200.0,tracking-SSD,go-2,3,,,,,,
0,0,15,phase_2,purple_pentagon,stop,green,150.0,tracking-SSD,go-1,4,,,,,,
1,404.0,15,phase_2,red_rhombus,go,,,,go-2,2,,,,,,
1,480.0,15,phase_2,red_circle,stop,green,200.0,tracking-SSD,go-2,3,,,,,,
1,532.0,15,phase_2,red_pentagon,go,,,,go-2,1,,,,,,
0,0,15,phase_2,red_triangle,stop,green,150.0,tracking-SSD,go-2,4,,,,,,
1,550.0,15,phase_2,red_circle,go,,,,go-2,1,,,,,,
2,514.0,15,phase_2,purple_rhombus,go,,,,go-1,1,,,,,,
0,0,15,phase_2,purple_circle,stop,blue,0.0,0-SSD,go-1,4,,,,,,
1,418.0,15,phase_2,red_circle,go,,,,go-2,1,,,,,,
2,348.0,15,phase_2,purple_rhombus,go,,,,go-1,1,,,,,,
1,492.0,15,phase_2,red_pentagon,go,,,,go-2,1,,,,,,
1,501.0,15,phase_2,purple_pentagon,go,,,,go-1,1,,,,,,
2,566.0,15,phase_2,red_rhombus,go,,,,go-2,1,,,,,,
0,0,15,phase_2,purple_circle,stop,blue,0.0,0-SSD,go-1,4,,,,,,
0,0,15,phase_2,red_triangle,stop,blue,0.0,0-SSD,go-2,4,,,,,,
2,514.0,15,phase_2,red_triangle,go,,,,go-2,1,,,,,,
1,421.0,15,phase_2,purple_pentagon,go,,,,go-1,1,,,,,,
2,575.0,15,phase_2,red_rhombus,go,,,,go-2,1,,,,,,
0,0,15,phase_2,purple_triangle,stop,green,200.0,tracking-SSD,go-1,4,,,,,,
2,594.0,15,phase_2,red_pentagon,go,,,,go-2,2,,,,,,
1,453.0,16,phase_2,red_circle,go,,,,go-2,1,,,,,,
2,405.0,16,phase_2,red_pentagon,go,,,,go-2,2,,,,,,
1,369.0,16,phase_2,red_circle,stop,green,250.0,tracking-SSD,go-2,3,,,,,,
1,355.0,16,phase_2,red_circle,go,,,,go-2,1,,,,,,
2,443.0,16,phase_2,purple_triangle,go,,,,go-1,1,,,,,,
0,0,16,phase_2,purple_pentagon,stop,blue,0.0,0-SSD,go-1,4,,,,,,
1,370.0,16,phase_2,purple_triangle,stop,green,200.0,tracking-SSD,go-1,3,,,,,,
1,322.0,16,phase_2,red_triangle,go,,,,go-2,2,,,,,,
0,0,16,phase_2,purple_rhombus,stop,blue,0.0,0-SSD,go-1,4,,,,,,
1,362.0,16,phase_2,purple_circle,stop,green,150.0,tracking-SSD,go-1,3,,,,,,
1,325.0,16,phase_2,red_rhombus,go,,,,go-2,2,,,,,,
0,0,16,phase_2,red_circle,stop,blue,0.0,0-SSD,go-2,4,,,,,,
1,343.0,16,phase_2,purple_rhombus,go,,,,go-1,2,,,,,,
2,419.0,16,phase_2,purple_triangle,go,,,,go-1,1,,,,,,
1,564.0,16,phase_2,red_pentagon,go,,,,go-2,1,,,,,,
0,0,16,phase_2,red_circle,stop,green,100.0,tracking-SSD,go-2,4,,,,,,
1,434.0,16,phase_2,purple_circle,go,,,,go-1,1,,,,,,
2,522.0,16,phase_2,red_pentagon,go,,,,go-2,2,,,,,,
0,0,16,phase_2,red_triangle,stop,blue,0.0,0-SSD,go-2,4,,,,,,
1,303.0,16,phase_2,red_circle,go,,,,go-2,1,,,,,,
1,356.0,16,phase_2,purple_triangle,go,,,,go-1,2,,,,,,
0,0,16,phase_2,purple_rhombus,stop,green,150.0,tracking-SSD,go-1,4,,,,,,
2,666.0,16,phase_2,purple_triangle,go,,,,go-1,1,,,,,,
0,0,16,phase_2,purple_rhombus,stop,blue,0.0,0-SSD,go-1,4,,,,,,
2,493.0,16,phase_2,red_rhombus,go,,,,go-2,1,,,,,,
0,0,16,phase_2,red_circle,stop,blue,0.0,0-SSD,go-2,4,,,,,,
2,532.0,16,phase_2,red_pentagon,go,,,,go-2,2,,,,,,
1,428.0,16,phase_2,red_pentagon,go,,,,go-2,1,,,,,,
2,460.0,16,phase_2,purple_rhombus,go,,,,go-1,1,,,,,,
1,480.0,16,phase_2,purple_circle,stop,green,200.0,tracking-SSD,go-1,3,,,,,,
1,556.0,16,phase_2,red_pentagon,go,,,,go-2,1,,,,,,
0,0,16,phase_2,red_triangle,stop,green,150.0,tracking-SSD,go-2,4,,,,,,
2,630.0,16,phase_2,purple_rhombus,go,,,,go-1,1,,,,,,
2,470.0,16,phase_2,red_rhombus,go,,,,go-2,1,,,,,,
2,467.0,16,phase_2,purple_rhombus,go,,,,go-1,1,,,,,,
1,386.0,16,phase_2,red_triangle,go,,,,go-2,2,,,,,,
1,450.0,16,phase_2,red_pentagon,stop,green,200.0,tracking-SSD,go-2,3,,,,,,
2,526.0,16,phase_2,purple_rhombus,go,,,,go-1,1,,,,,,
2,524.0,16,phase_2,purple_triangle,go,,,,go-1,1,,,,,,
2,421.0,16,phase_2,purple_triangle,go,,,,go-1,1,,,,,,
1,474.0,16,phase_2,purple_pentagon,go,,,,go-1,1,,,,,,
2,517.0,16,phase_2,red_rhombus,go,,,,go-2,1,,,,,,
0,0,16,phase_2,purple_circle,stop,blue,0.0,0-SSD,go-1,4,,,,,,
1,353.0,16,phase_2,purple_circle,go,,,,go-1,1,,,,,,
1,352.0,16,phase_2,purple_pentagon,go,,,,go-1,1,,,,,,
1,371.0,16,phase_2,purple_pentagon,go,,,,go-1,1,,,,,,
1,459.0,16,phase_2,red_pentagon,go,,,,go-2,1,,,,,,
0,0,16,phase_2,red_triangle,stop,blue,0.0,0-SSD,go-2,4,,,,,,
0,0,17,phase_2,red_triangle,stop,blue,0.0,0-SSD,go-2,4,,,,,,
2,360.0,17,phase_2,red_triangle,go,,,,go-2,1,,,,,,
0,0,17,phase_2,red_pentagon,stop,blue,0.0,0-SSD,go-2,4,,,,,,
0,0,17,phase_2,purple_triangle,stop,blue,0.0,0-SSD,go-1,4,,,,,,
1,499.0,17,phase_2,red_pentagon,stop,green,150.0,tracking-SSD,go-2,3,,,,,,
0,0,17,phase_2,red_circle,stop,blue,0.0,0-SSD,go-2,4,,,,,,
0,0,17,phase_2,purple_triangle,stop,green,100.0,tracking-SSD,go-1,4,,,,,,
2,469.0,17,phase_2,red_rhombus,go,,,,go-2,1,,,,,,
2,488.0,17,phase_2,purple_rhombus,go,,,,go-1,1,,,,,,
1,509.0,17,phase_2,red_pentagon,go,,,,go-2,1,,,,,,
2,494.0,17,phase_2,red_rhombus,go,,,,go-2,1,,,,,,
0,0,17,phase_2,purple_triangle,stop,green,150.0,tracking-SSD,go-1,4,,,,,,
2,366.0,17,phase_2,purple_triangle,go,,,,go-1,1,,,,,,
2,588.0,17,phase_2,purple_rhombus,go,,,,go-1,1,,,,,,
1,417.0,17,phase_2,purple_circle,go,,,,go-1,1,,,,,,
0,0,17,phase_2,purple_rhombus,stop,blue,0.0,0-SSD,go-1,4,,,,,,
1,480.0,17,phase_2,red_circle,go,,,,go-2,1,,,,,,
2,522.0,17,phase_2,red_rhombus,go,,,,go-2,1,,,,,,
1,418.0,17,phase_2,purple_circle,go,,,,go-1,1,,,,,,
1,472.0,17,phase_2,red_triangle,go,,,,go-2,2,,,,,,
1,491.0,17,phase_2,purple_circle,go,,,,go-1,1,,,,,,
1,387.0,17,phase_2,red_circle,go,,,,go-2,1,,,,,,
2,373.0,17,phase_2,red_triangle,stop,green,200.0,tracking-SSD,go-2,3,,,,,,
1,415.0,17,phase_2,red_circle,go,,,,go-2,1,,,,,,
1,786.0,17,phase_2,red_pentagon,go,,,,go-2,1,,,,,,
1,569.0,17,phase_2,purple_pentagon,go,,,,go-1,1,,,,,,
2,487.0,17,phase_2,purple_rhombus,go,,,,go-1,1,,,,,,
1,473.0,17,phase_2,red_circle,go,,,,go-2,1,,,,,,
1,370.0,17,phase_2,purple_circle,stop,green,150.0,tracking-SSD,go-1,3,,,,,,
1,480.0,17,phase_2,purple_pentagon,go,,,,go-1,1,,,,,,
2,533.0,17,phase_2,purple_rhombus,go,,,,go-1,1,,,,,,
2,441.0,17,phase_2,purple_rhombus,go,,,,go-1,1,,,,,,
1,349.0,17,phase_2,red_triangle,go,,,,go-2,2,,,,,,
1,357.0,17,phase_2,red_circle,go,,,,go-2,1,,,,,,
0,0,17,phase_2,purple_rhombus,stop,blue,0.0,0-SSD,go-1,4,,,,,,
2,319.0,17,phase_2,purple_rhombus,go,,,,go-1,1,,,,,,
0,0,17,phase_2,red_pentagon,stop,blue,0.0,0-SSD,go-2,4,,,,,,
1,404.0,17,phase_2,red_rhombus,go,,,,go-2,2,,,,,,
0,0,17,phase_2,red_pentagon,stop,green,100.0,tracking-SSD,go-2,4,,,,,,
1,455.0,17,phase_2,red_circle,go,,,,go-2,1,,,,,,
1,430.0,17,phase_2,purple_pentagon,go,,,,go-1,1,,,,,,
1,427.0,17,phase_2,purple_pentagon,go,,,,go-1,1,,,,,,
2,491.0,17,phase_2,purple_triangle,go,,,,go-1,1,,,,,,
1,624.0,17,phase_2,purple_pentagon,go,,,,go-1,1,,,,,,
0,0,17,phase_2,purple_circle,stop,blue,0.0,0-SSD,go-1,4,,,,,,
2,428.0,17,phase_2,red_pentagon,stop,green,150.0,tracking-SSD,go-2,3,,,,,,
2,313.0,17,phase_2,red_triangle,go,,,,go-2,1,,,,,,
0,0,17,phase_2,purple_triangle,stop,green,100.0,tracking-SSD,go-1,4,,,,,,
,1139.0,1,phase_3,,,,,,,,red_square,go-2,purple_square,go-1,red_square,go-2
,1720.0,1,phase_3,,,,,,,,green_square,tracking-SSD,blue_square,0-SSD,green_square,tracking-SSD
,737.0,1,phase_3,,,,,,,,purple_square,go-1,purple_square,go-1,blue_square,0-SSD
,665.0,1,phase_3,,,,,,,,green_square,tracking-SSD,purple_square,go-1,green_square,tracking-SSD
,717.0,1,phase_3,,,,,,,,red_square,go-2,red_square,go-2,blue_square,0-SSD
,870.0,1,phase_3,,,,,,,,red_square,go-2,red_square,go-2,green_square,tracking-SSD
,1000.0,1,phase_3,,,,,,,,green_square,tracking-SSD,green_square,tracking-SSD,purple_square,go-1
,726.0,1,phase_3,,,,,,,,green_square,tracking-SSD,green_square,tracking-SSD,blue_square,0-SSD
,711.0,1,phase_3,,,,,,,,red_square,go-2,green_square,tracking-SSD,red_square,go-2
,886.0,1,phase_3,,,,,,,,red_square,go-2,blue_square,0-SSD,red_square,go-2
,1006.0,1,phase_3,,,,,,,,purple_square,go-1,blue_square,0-SSD,purple_square,go-1
,698.0,1,phase_3,,,,,,,,red_square,go-2,red_square,go-2,purple_square,go-1
,555.0,2,phase_3,,,,,,,,green_square,tracking-SSD,blue_square,0-SSD,green_square,tracking-SSD
,1327.0,2,phase_3,,,,,,,,red_square,go-2,purple_square,go-1,red_square,go-2
,670.0,2,phase_3,,,,,,,,red_square,go-2,red_square,go-2,green_square,tracking-SSD
,598.0,2,phase_3,,,,,,,,red_square,go-2,red_square,go-2,blue_square,0-SSD
,2045.0,2,phase_3,,,,,,,,blue_square,0-SSD,purple_square,go-1,blue_square,0-SSD
,1297.0,2,phase_3,,,,,,,,purple_square,go-1,purple_square,go-1,green_square,tracking-SSD
,1394.0,2,phase_3,,,,,,,,red_square,go-2,blue_square,0-SSD,red_square,go-2
,749.0,2,phase_3,,,,,,,,red_square,go-2,green_square,tracking-SSD,red_square,go-2
,2444.0,2,phase_3,,,,,,,,red_square,go-2,red_square,go-2,purple_square,go-1
,785.0,2,phase_3,,,,,,,,purple_square,go-1,blue_square,0-SSD,purple_square,go-1
,2424.0,2,phase_3,,,,,,,,purple_square,go-1,green_square,tracking-SSD,purple_square,go-1
,1801.0,2,phase_3,,,,,,,,green_square,tracking-SSD,green_square,tracking-SSD,blue_square,0-SSD
,757.0,3,phase_3,,,,,,,,purple_square,go-1,purple_square,go-1,green_square,tracking-SSD
,572.0,3,phase_3,,,,,,,,green_square,tracking-SSD,red_square,go-2,green_square,tracking-SSD
,1704.0,3,phase_3,,,,,,,,red_square,go-2,purple_square,go-1,red_square,go-2
,1082.0,3,phase_3,,,,,,,,red_square,go-2,red_square,go-2,blue_square,0-SSD
,942.0,3,phase_3,,,,,,,,purple_square,go-1,purple_square,go-1,blue_square,0-SSD
,780.0,3,phase_3,,,,,,,,green_square,tracking-SSD,blue_square,0-SSD,green_square,tracking-SSD
,722.0,3,phase_3,,,,,,,,blue_square,0-SSD,green_square,tracking-SSD,blue_square,0-SSD
,727.0,3,phase_3,,,,,,,,purple_square,go-1,blue_square,0-SSD,purple_square,go-1
,633.0,3,phase_3,,,,,,,,red_square,go-2,green_square,tracking-SSD,red_square,go-2
,909.0,3,phase_3,,,,,,,,red_square,go-2,blue_square,0-SSD,red_square,go-2
,1142.0,3,phase_3,,,,,,,,red_square,go-2,red_square,go-2,purple_square,go-1
0,0,3,phase_3,,,,,,,,,,green_square,tracking-SSD,purple_square,go-1
,667.0,4,phase_3,,,,,,,,red_square,go-2,red_square,go-2,green_square,tracking-SSD
,999.0,4,phase_3,,,,,,,,red_square,go-2,red_square,go-2,blue_square,0-SSD
,927.0,4,phase_3,,,,,,,,green_square,tracking-SSD,purple_square,go-1,green_square,tracking-SSD
,529.0,4,phase_3,,,,,,,,green_square,tracking-SSD,blue_square,0-SSD,green_square,tracking-SSD
,637.0,4,phase_3,,,,,,,,red_square,go-2,purple_square,go-1,red_square,go-2
,419.0,4,phase_3,,,,,,,,purple_square,go-1,purple_square,go-1,blue_square,0-SSD
,696.0,4,phase_3,,,,,,,,red_square,go-2,red_square,go-2,purple_square,go-1
,500.0,4,phase_3,,,,,,,,purple_square,go-1,green_square,tracking-SSD,purple_square,go-1
,609.0,4,phase_3,,,,,,,,purple_square,go-1,blue_square,0-SSD,purple_square,go-1
,1212.0,4,phase_3,,,,,,,,blue_square,0-SSD,green_square,tracking-SSD,blue_square,0-SSD
,779.0,4,phase_3,,,,,,,,red_square,go-2,green_square,tracking-SSD,red_square,go-2
,820.0,4,phase_3,,,,,,,,red_square,go-2,blue_square,0-SSD,red_square,go-2
,476.0,5,phase_3,,,,,,,,purple_square,go-1,purple_square,go-1,blue_square,0-SSD
,662.0,5,phase_3,,,,,,,,red_square,go-2,red_square,go-2,blue_square,0-SSD
,850.0,5,phase_3,,,,,,,,red_square,go-2,purple_square,go-1,red_square,go-2
,552.0,5,phase_3,,,,,,,,red_square,go-2,red_square,go-2,green_square,tracking-SSD
,763.0,5,phase_3,,,,,,,,purple_square,go-1,purple_square,go-1,green_square,tracking-SSD
,645.0,5,phase_3,,,,,,,,green_square,tracking-SSD,blue_square,0-SSD,green_square,tracking-SSD
,1226.0,5,phase_3,,,,,,,,red_square,go-2,blue_square,0-SSD,red_square,go-2
,1030.0,5,phase_3,,,,,,,,red_square,go-2,red_square,go-2,purple_square,go-1
,1780.0,5,phase_3,,,,,,,,purple_square,go-1,green_square,tracking-SSD,purple_square,go-1
,1202.0,5,phase_3,,,,,,,,purple_square,go-1,blue_square,0-SSD,purple_square,go-1
,635.0,5,phase_3,,,,,,,,green_square,tracking-SSD,green_square,tracking-SSD,blue_square,0-SSD
,551.0,5,phase_3,,,,,,,,green_square,tracking-SSD,green_square,tracking-SSD,red_square,go-2
