response,reaction_time,block,which_phase,stim,stop_signal_trial_type,stop_signal_stimulus,SSD,SSD_type,condition,accuracy,chosen_stim,chosen_cond,stim_left,cond_left,stim_right,cond_right
0,0,1,phase_2,red_circle,stop,green,250.0,tracking-SSD,go-1,4,,,,,,
0,0,1,phase_2,red_triangle,stop,blue,0.0,0-SSD,go-1,4,,,,,,
0,0,1,phase_2,purple_triangle,stop,green,300.0,tracking-SSD,go-2,4,,,,,,
2,716.0,1,phase_2,purple_triangle,go,,,,go-2,1,,,,,,
1,634.0,1,phase_2,red_pentagon,go,,,,go-1,1,,,,,,
1,755.0,1,phase_2,red_pentagon,go,,,,go-1,1,,,,,,
2,551.0,1,phase_2,purple_triangle,go,,,,go-2,1,,,,,,
2,559.0,1,phase_2,purple_triangle,go,,,,go-2,1,,,,,,
2,604.0,1,phase_2,red_triangle,go,,,,go-1,1,,,,,,
1,623.0,1,phase_2,purple_pentagon,go,,,,go-2,1,,,,,,
1,891.0,1,phase_2,red_rhombus,go,,,,go-1,1,,,,,,
0,0,1,phase_2,purple_rhombus,stop,blue,0.0,0-SSD,go-2,4,,,,,,
2,763.0,1,phase_2,red_circle,go,,,,go-1,1,,,,,,
2,594.0,1,phase_2,purple_circle,go,,,,go-2,1,,,,,,
0,0,1,phase_2,red_rhombus,stop,green,350.0,tracking-SSD,go-1,4,,,,,,
2,746.0,1,phase_2,purple_triangle,go,,,,go-2,1,,,,,,
0,0,1,phase_2,red_circle,stop,blue,0.0,0-SSD,go-1,4,,,,,,
1,708.0,1,phase_2,red_rhombus,go,,,,go-1,1,,,,,,
0,0,1,phase_2,purple_circle,stop,green,400.0,tracking-SSD,go-2,4,,,,,,
1,658.0,1,phase_2,red_rhombus,go,,,,go-1,1,,,,,,
2,747.0,1,phase_2,red_circle,go,,,,go-1,1,,,,,,
1,643.0,1,phase_2,red_pentagon,stop,green,450.0,tracking-SSD,go-1,3,,,,,,
0,0,1,phase_2,red_pentagon,stop,green,400.0,tracking-SSD,go-1,4,,,,,,
0,0,1,phase_2,purple_rhombus,stop,green,450.0,tracking-SSD,go-2,4,,,,,,
0,0,1,phase_2,purple_rhombus,stop,green,500.0,tracking-SSD,go-2,4,,,,,,
1,647.0,1,phase_2,purple_rhombus,go,,,,go-2,1,,,,,,
0,0,1,phase_2,red_circle,stop,blue,0.0,0-SSD,go-1,4,,,,,,
1,755.0,1,phase_2,purple_rhombus,go,,,,go-2,1,,,,,,
1,719.0,1,phase_2,red_rhombus,go,,,,go-1,1,,,,,,
2,581.0,1,phase_2,purple_circle,go,,,,go-2,1,,,,,,
2,714.0,1,phase_2,purple_triangle,go,,,,go-2,1,,,,,,
0,0,1,phase_2,purple_rhombus,stop,blue,0.0,0-SSD,go-2,4,,,,,,
1,552.0,1,phase_2,purple_pentagon,go,,,,go-2,1,,,,,,
1,617.0,1,phase_2,red_pentagon,go,,,,go-1,1,,,,,,
1,615.0,1,phase_2,purple_pentagon,go,,,,go-2,1,,,,,,
0,0,1,phase_2,purple_pentagon,stop,blue,0.0,0-SSD,go-2,4,,,,,,
0,0,1,phase_2,purple_circle,stop,blue,0.0,0-SSD,go-2,4,,,,,,
2,778.0,1,phase_2,purple_triangle,go,,,,go-2,1,,,,,,
2,765.0,1,phase_2,red_circle,go,,,,go-1,1,,,,,,
1,581.0,1,phase_2,purple_rhombus,go,,,,go-2,1,,,,,,
1,645.0,1,phase_2,purple_pentagon,go,,,,go-2,1,,,,,,
1,677.0,1,phase_2,red_pentagon,go,,,,go-1,1,,,,,,
2,665.0,1,phase_2,purple_triangle,go,,,,go-2,1,,,,,,
2,493.0,1,phase_2,red_triangle,go,,,,go-1,1,,,,,,
1,626.0,1,phase_2,red_pentagon,go,,,,go-1,1,,,,,,
1,613.0,1,phase_2,red_triangle,go,,,,go-1,2,,,,,,
0,0,1,phase_2,red_circle,stop,blue,0.0,0-SSD,go-1,4,,,,,,
2,721.0,1,phase_2,red_circle,go,,,,go-1,1,,,,,,
0,0,2,phase_2,red_rhombus,stop,blue,0.0,0-SSD,go-1,4,,,,,,
0,0,2,phase_2,purple_pentagon,stop,blue,0.0,0-SSD,go-2,4,,,,,,
2,710.0,2,phase_2,red_circle,go,,,,go-1,1,,,,,,
0,0,2,phase_2,red_pentagon,stop,blue,0.0,0-SSD,go-1,4,,,,,,
0,0,2,phase_2,purple_pentagon,stop,blue,0.0,0-SSD,go-2,4,,,,,,
2,805.0,2,phase_2,red_triangle,go,,,,go-1,1,,,,,,
2,746.0,2,phase_2,red_triangle,go,,,,go-1,1,,,,,,
1,698.0,2,phase_2,red_rhombus,go,,,,go-1,1,,,,,,
1,764.0,2,phase_2,purple_pentagon,stop,green,550.0,tracking-SSD,go-2,3,,,,,,
1,773.0,2,phase_2,purple_rhombus,go,,,,go-2,1,,,,,,
2,737.0,2,phase_2,purple_triangle,go,,,,go-2,1,,,,,,
1,543.0,2,phase_2,red_rhombus,go,,,,go-1,1,,,,,,
0,0,2,phase_2,purple_rhombus,stop,blue,0.0,0-SSD,go-2,4,,,,,,
1,653.0,2,phase_2,red_rhombus,stop,green,500.0,tracking-SSD,go-1,3,,,,,,
2,852.0,2,phase_2,red_triangle,go,,,,go-1,1,,,,,,
2,739.0,2,phase_2,purple_circle,go,,,,go-2,1,,,,,,
0,0,2,phase_2,red_triangle,stop,green,450.0,tracking-SSD,go-1,4,,,,,,
2,677.0,2,phase_2,purple_circle,go,,,,go-2,1,,,,,,
1,776.0,2,phase_2,red_rhombus,go,,,,go-1,1,,,,,,
2,786.0,2,phase_2,purple_triangle,go,,,,go-2,1,,,,,,
2,727.0,2,phase_2,purple_circle,go,,,,go-2,1,,,,,,
2,747.0,2,phase_2,purple_triangle,go,,,,go-2,1,,,,,,
2,643.0,2,phase_2,red_circle,go,,,,go-1,1,,,,,,
2,753.0,2,phase_2,purple_triangle,go,,,,go-2,1,,,,,,
2,684.0,2,phase_2,purple_circle,go,,,,go-2,1,,,,,,
1,738.0,2,phase_2,red_pentagon,go,,,,go-1,1,,,,,,
2,735.0,2,phase_2,red_circle,go,,,,go-1,1,,,,,,
2,542.0,2,phase_2,purple_triangle,go,,,,go-2,1,,,,,,
1,596.0,2,phase_2,purple_pentagon,go,,,,go-2,1,,,,,,
1,694.0,2,phase_2,purple_rhombus,go,,,,go-2,1,,,,,,
2,603.0,2,phase_2,red_pentagon,stop,green,500.0,tracking-SSD,go-1,3,,,,,,
1,837.0,2,phase_2,red_pentagon,go,,,,go-1,1,,,,,,
2,610.0,2,phase_2,purple_circle,stop,green,450.0,tracking-SSD,go-2,3,,,,,,
2,843.0,2,phase_2,purple_triangle,go,,,,go-2,1,,,,,,
1,785.0,2,phase_2,purple_pentagon,go,,,,go-2,1,,,,,,
0,0,2,phase_2,purple_rhombus,stop,blue,0.0,0-SSD,go-2,4,,,,,,
0,0,2,phase_2,purple_rhombus,stop,green,400.0,tracking-SSD,go-2,4,,,,,,
0,0,2,phase_2,purple_triangle,stop,green,450.0,tracking-SSD,go-2,4,,,,,,
2,776.0,2,phase_2,purple_circle,go,,,,go-2,1,,,,,,
1,763.0,2,phase_2,red_pentagon,go,,,,go-1,1,,,,,,
2,828.0,2,phase_2,red_triangle,stop,green,500.0,tracking-SSD,go-1,3,,,,,,
2,1039.0,2,phase_2,red_circle,go,,,,go-1,1,,,,,,
2,554.0,2,phase_2,purple_circle,go,,,,go-2,1,,,,,,
2,711.0,2,phase_2,red_circle,go,,,,go-1,1,,,,,,
0,0,2,phase_2,red_rhombus,stop,blue,0.0,0-SSD,go-1,4,,,,,,
0,0,2,phase_2,red_rhombus,stop,blue,0.0,0-SSD,go-1,4,,,,,,
1,726.0,2,phase_2,red_pentagon,go,,,,go-1,1,,,,,,
1,713.0,2,phase_2,red_pentagon,go,,,,go-1,1,,,,,,
0,0,3,phase_2,purple_triangle,go,,,,go-2,2,,,,,,
0,0,3,phase_2,red_pentagon,stop,blue,0.0,0-SSD,go-1,4,,,,,,
1,831.0,3,phase_2,red_rhombus,go,,,,go-1,1,,,,,,
2,705.0,3,phase_2,red_circle,go,,,,go-1,1,,,,,,
0,0,3,phase_2,red_rhombus,stop,blue,0.0,0-SSD,go-1,4,,,,,,
1,814.0,3,phase_2,purple_pentagon,go,,,,go-2,1,,,,,,
2,598.0,3,phase_2,purple_triangle,stop,green,450.0,tracking-SSD,go-2,3,,,,,,
0,0,3,phase_2,red_pentagon,stop,blue,0.0,0-SSD,go-1,4,,,,,,
2,672.0,3,phase_2,red_circle,go,,,,go-1,1,,,,,,
0,0,3,phase_2,purple_circle,stop,blue,0.0,0-SSD,go-2,4,,,,,,
2,546.0,3,phase_2,red_rhombus,go,,,,go-1,2,,,,,,
2,622.0,3,phase_2,purple_triangle,go,,,,go-2,1,,,,,,
0,0,3,phase_2,red_rhombus,stop,green,400.0,tracking-SSD,go-1,4,,,,,,
2,650.0,3,phase_2,red_triangle,go,,,,go-1,1,,,,,,
2,625.0,3,phase_2,purple_circle,go,,,,go-2,1,,,,,,
1,625.0,3,phase_2,purple_rhombus,go,,,,go-2,1,,,,,,
0,0,3,phase_2,red_circle,stop,blue,0.0,0-SSD,go-1,4,,,,,,
1,586.0,3,phase_2,red_rhombus,stop,green,450.0,tracking-SSD,go-1,3,,,,,,
1,618.0,3,phase_2,red_pentagon,go,,,,go-1,1,,,,,,
2,570.0,3,phase_2,purple_circle,go,,,,go-2,1,,,,,,
1,580.0,3,phase_2,purple_pentagon,go,,,,go-2,1,,,,,,
0,0,3,phase_2,purple_triangle,stop,blue,0.0,0-SSD,go-2,4,,,,,,
1,598.0,3,phase_2,purple_pentagon,go,,,,go-2,1,,,,,,
0,0,3,phase_2,purple_triangle,stop,blue,0.0,0-SSD,go-2,4,,,,,,
0,0,3,phase_2,red_rhombus,stop,green,400.0,tracking-SSD,go-1,4,,,,,,
2,705.0,3,phase_2,red_triangle,go,,,,go-1,1,,,,,,
2,758.0,3,phase_2,purple_circle,go,,,,go-2,1,,,,,,
2,722.0,3,phase_2,purple_circle,go,,,,go-2,1,,,,,,
2,416.0,3,phase_2,purple_circle,stop,green,450.0,tracking-SSD,go-2,3,,,,,,
2,571.0,3,phase_2,red_circle,go,,,,go-1,1,,,,,,
2,648.0,3,phase_2,purple_circle,go,,,,go-2,1,,,,,,
2,600.0,3,phase_2,purple_triangle,stop,green,400.0,tracking-SSD,go-2,3,,,,,,
1,643.0,3,phase_2,red_pentagon,go,,,,go-1,1,,,,,,
2,732.0,3,phase_2,red_triangle,go,,,,go-1,1,,,,,,
1,662.0,3,phase_2,purple_pentagon,go,,,,go-2,1,,,,,,
2,705.0,3,phase_2,red_triangle,go,,,,go-1,1,,,,,,
1,702.0,3,phase_2,red_rhombus,go,,,,go-1,1,,,,,,
2,755.0,3,phase_2,purple_triangle,go,,,,go-2,1,,,,,,
1,641.0,3,phase_2,purple_rhombus,go,,,,go-2,1,,,,,,
0,0,3,phase_2,purple_rhombus,stop,blue,0.0,0-SSD,go-2,4,,,,,,
1,817.0,3,phase_2,red_rhombus,go,,,,go-1,1,,,,,,
0,0,3,phase_2,red_pentagon,stop,green,350.0,tracking-SSD,go-1,4,,,,,,
1,588.0,3,phase_2,purple_pentagon,go,,,,go-2,1,,,,,,
1,665.0,3,phase_2,red_pentagon,go,,,,go-1,1,,,,,,
2,686.0,3,phase_2,purple_circle,go,,,,go-2,1,,,,,,
1,551.0,3,phase_2,red_pentagon,go,,,,go-1,1,,,,,,
1,457.0,3,phase_2,purple_rhombus,stop,green,400.0,tracking-SSD,go-2,3,,,,,,
2,805.0,3,phase_2,red_triangle,go,,,,go-1,1,,,,,,
1,780.0,4,phase_2,red_pentagon,go,,,,go-1,1,,,,,,
1,462.0,4,phase_2,purple_pentagon,go,,,,go-2,1,,,,,,
2,595.0,4,phase_2,purple_triangle,go,,,,go-2,1,,,,,,
1,784.0,4,phase_2,red_rhombus,go,,,,go-1,1,,,,,,
1,636.0,4,phase_2,red_pentagon,go,,,,go-1,1,,,,,,
2,690.0,4,phase_2,red_circle,go,,,,go-1,1,,,,,,
1,542.0,4,phase_2,purple_rhombus,go,,,,go-2,1,,,,,,
1,574.0,4,phase_2,purple_rhombus,go,,,,go-2,1,,,,,,
1,638.0,4,phase_2,purple_pentagon,go,,,,go-2,1,,,,,,
0,0,4,phase_2,red_triangle,stop,green,350.0,tracking-SSD,go-1,4,,,,,,
1,713.0,4,phase_2,red_rhombus,go,,,,go-1,1,,,,,,
2,622.0,4,phase_2,purple_triangle,go,,,,go-2,1,,,,,,
0,0,4,phase_2,purple_circle,stop,blue,0.0,0-SSD,go-2,4,,,,,,
2,686.0,4,phase_2,red_circle,go,,,,go-1,1,,,,,,
2,548.0,4,phase_2,purple_circle,stop,green,400.0,tracking-SSD,go-2,3,,,,,,
0,0,4,phase_2,red_pentagon,stop,green,350.0,tracking-SSD,go-1,4,,,,,,
1,792.0,4,phase_2,red_triangle,go,,,,go-1,2,,,,,,
0,0,4,phase_2,red_rhombus,stop,blue,0.0,0-SSD,go-1,4,,,,,,
1,798.0,4,phase_2,red_pentagon,go,,,,go-1,1,,,,,,
2,662.0,4,phase_2,purple_triangle,go,,,,go-2,1,,,,,,
2,738.0,4,phase_2,purple_circle,go,,,,go-2,1,,,,,,
2,589.0,4,phase_2,red_circle,go,,,,go-1,1,,,,,,
1,732.0,4,phase_2,red_pentagon,go,,,,go-1,1,,,,,,
1,697.0,4,phase_2,red_rhombus,go,,,,go-1,1,,,,,,
0,0,4,phase_2,red_pentagon,stop,blue,0.0,0-SSD,go-1,4,,,,,,
2,693.0,4,phase_2,purple_circle,go,,,,go-2,1,,,,,,
1,692.0,4,phase_2,purple_pentagon,go,,,,go-2,1,,,,,,
2,745.0,4,phase_2,red_circle,go,,,,go-1,1,,,,,,
1,732.0,4,phase_2,purple_rhombus,go,,,,go-2,1,,,,,,
2,595.0,4,phase_2,red_circle,go,,,,go-1,1,,,,,,
2,762.0,4,phase_2,purple_triangle,stop,green,400.0,tracking-SSD,go-2,3,,,,,,
1,705.0,4,phase_2,red_rhombus,go,,,,go-1,1,,,,,,
0,0,4,phase_2,red_triangle,stop,blue,0.0,0-SSD,go-1,4,,,,,,
0,0,4,phase_2,purple_triangle,stop,green,350.0,tracking-SSD,go-2,4,,,,,,
2,969.0,4,phase_2,purple_triangle,go,,,,go-2,1,,,,,,
1,754.0,4,phase_2,purple_rhombus,go,,,,go-2,1,,,,,,
0,0,4,phase_2,purple_circle,stop,blue,0.0,0-SSD,go-2,4,,,,,,
0,0,4,phase_2,red_pentagon,stop,blue,0.0,0-SSD,go-1,4,,,,,,
0,0,4,phase_2,purple_triangle,stop,blue,0.0,0-SSD,go-2,4,,,,,,
2,744.0,4,phase_2,red_circle,go,,,,go-1,1,,,,,,
2,743.0,4,phase_2,purple_triangle,go,,,,go-2,1,,,,,,
2,685.0,4,phase_2,purple_triangle,go,,,,go-2,1,,,,,,
1,717.0,4,phase_2,red_rhombus,go,,,,go-1,1,,,,,,
0,0,4,phase_2,purple_rhombus,stop,blue,0.0,0-SSD,go-2,4,,,,,,
0,0,4,phase_2,purple_rhombus,stop,green,400.0,tracking-SSD,go-2,4,,,,,,
0,0,4,phase_2,red_pentagon,stop,green,450.0,tracking-SSD,go-1,4,,,,,,
2,573.0,4,phase_2,purple_circle,go,,,,go-2,1,,,,,,
1,683.0,4,phase_2,red_pentagon,stop,green,500.0,tracking-SSD,go-1,3,,,,,,
2,656.0,5,phase_2,purple_triangle,go,,,,go-2,1,,,,,,
2,508.0,5,phase_2,red_triangle,go,,,,go-1,1,,,,,,
1,753.0,5,phase_2,red_rhombus,go,,,,go-1,1,,,,,,
0,0,5,phase_2,purple_rhombus,stop,blue,0.0,0-SSD,go-2,4,,,,,,
1,648.0,5,phase_2,purple_pentagon,go,,,,go-2,1,,,,,,
2,747.0,5,phase_2,purple_circle,go,,,,go-2,1,,,,,,
1,609.0,5,phase_2,purple_pentagon,go,,,,go-2,1,,,,,,
0,0,5,phase_2,red_triangle,stop,green,450.0,tracking-SSD,go-1,4,,,,,,
1,1000.0,5,phase_2,red_triangle,go,,,,go-1,2,,,,,,
1,706.0,5,phase_2,purple_rhombus,go,,,,go-2,1,,,,,,
2,671.0,5,phase_2,purple_circle,go,,,,go-2,1,,,,,,
1,647.0,5,phase_2,red_pentagon,stop,green,500.0,tracking-SSD,go-1,3,,,,,,
0,0,5,phase_2,purple_pentagon,stop,green,450.0,tracking-SSD,go-2,4,,,,,,
0,0,5,phase_2,red_triangle,stop,blue,0.0,0-SSD,go-1,4,,,,,,
2,662.0,5,phase_2,red_triangle,go,,,,go-1,1,,,,,,
2,670.0,5,phase_2,red_circle,go,,,,go-1,1,,,,,,
1,748.0,5,phase_2,red_triangle,stop,green,500.0,tracking-SSD,go-1,3,,,,,,
1,1038.0,5,phase_2,red_rhombus,go,,,,go-1,1,,,,,,
2,676.0,5,phase_2,purple_triangle,go,,,,go-2,1,,,,,,
1,720.0,5,phase_2,red_rhombus,go,,,,go-1,1,,,,,,
1,526.0,5,phase_2,purple_rhombus,go,,,,go-2,1,,,,,,
0,0,5,phase_2,red_pentagon,stop,blue,0.0,0-SSD,go-1,4,,,,,,
1,634.0,5,phase_2,purple_pentagon,go,,,,go-2,1,,,,,,
0,0,5,phase_2,purple_circle,stop,blue,0.0,0-SSD,go-2,4,,,,,,
2,585.0,5,phase_2,purple_circle,go,,,,go-2,1,,,,,,
1,651.0,5,phase_2,red_triangle,stop,green,450.0,tracking-SSD,go-1,3,,,,,,
0,0,5,phase_2,purple_pentagon,stop,blue,0.0,0-SSD,go-2,4,,,,,,
2,893.0,5,phase_2,red_triangle,go,,,,go-1,1,,,,,,
2,541.0,5,phase_2,purple_triangle,go,,,,go-2,1,,,,,,
2,652.0,5,phase_2,red_circle,go,,,,go-1,1,,,,,,
0,0,5,phase_2,red_triangle,stop,blue,0.0,0-SSD,go-1,4,,,,,,
0,0,5,phase_2,purple_rhombus,stop,green,400.0,tracking-SSD,go-2,4,,,,,,
1,691.0,5,phase_2,red_rhombus,go,,,,go-1,1,,,,,,
0,0,5,phase_2,red_pentagon,stop,blue,0.0,0-SSD,go-1,4,,,,,,
1,778.0,5,phase_2,purple_pentagon,stop,green,450.0,tracking-SSD,go-2,3,,,,,,
2,640.0,5,phase_2,red_circle,go,,,,go-1,1,,,,,,
2,671.0,5,phase_2,purple_circle,go,,,,go-2,1,,,,,,
1,871.0,5,phase_2,purple_rhombus,go,,,,go-2,1,,,,,,
1,576.0,5,phase_2,purple_rhombus,go,,,,go-2,1,,,,,,
2,587.0,5,phase_2,purple_circle,go,,,,go-2,1,,,,,,
0,0,5,phase_2,purple_pentagon,stop,blue,0.0,0-SSD,go-2,4,,,,,,
1,661.0,5,phase_2,red_pentagon,go,,,,go-1,1,,,,,,
1,558.0,5,phase_2,red_pentagon,go,,,,go-1,1,,,,,,
2,544.0,5,phase_2,red_circle,go,,,,go-1,1,,,,,,
1,610.0,5,phase_2,purple_rhombus,stop,green,400.0,tracking-SSD,go-2,3,,,,,,
2,608.0,5,phase_2,purple_circle,go,,,,go-2,1,,,,,,
1,797.0,5,phase_2,red_rhombus,go,,,,go-1,1,,,,,,
2,717.0,5,phase_2,red_circle,go,,,,go-1,1,,,,,,
1,690.0,6,phase_2,purple_pentagon,go,,,,go-2,1,,,,,,
0,0,6,phase_2,purple_triangle,stop,green,350.0,tracking-SSD,go-2,4,,,,,,
0,0,6,phase_2,red_pentagon,stop,green,400.0,tracking-SSD,go-1,4,,,,,,
2,616.0,6,phase_2,purple_circle,go,,,,go-2,1,,,,,,
1,692.0,6,phase_2,purple_rhombus,go,,,,go-2,1,,,,,,
1,666.0,6,phase_2,red_pentagon,go,,,,go-1,1,,,,,,
1,552.0,6,phase_2,purple_pentagon,go,,,,go-2,1,,,,,,
0,0,6,phase_2,red_pentagon,stop,blue,0.0,0-SSD,go-1,4,,,,,,
1,684.0,6,phase_2,purple_pentagon,go,,,,go-2,1,,,,,,
0,0,6,phase_2,red_circle,stop,blue,0.0,0-SSD,go-1,4,,,,,,
1,747.0,6,phase_2,purple_rhombus,go,,,,go-2,1,,,,,,
1,789.0,6,phase_2,red_rhombus,stop,green,450.0,tracking-SSD,go-1,3,,,,,,
2,631.0,6,phase_2,purple_circle,go,,,,go-2,1,,,,,,
1,707.0,6,phase_2,red_rhombus,go,,,,go-1,1,,,,,,
1,705.0,6,phase_2,purple_rhombus,go,,,,go-2,1,,,,,,
2,805.0,6,phase_2,purple_triangle,go,,,,go-2,1,,,,,,
2,689.0,6,phase_2,red_rhombus,go,,,,go-1,2,,,,,,
0,0,6,phase_2,purple_circle,stop,blue,0.0,0-SSD,go-2,4,,,,,,
2,730.0,6,phase_2,purple_circle,go,,,,go-2,1,,,,,,
1,705.0,6,phase_2,red_rhombus,go,,,,go-1,1,,,,,,
1,590.0,6,phase_2,red_triangle,go,,,,go-1,2,,,,,,
2,666.0,6,phase_2,red_circle,go,,,,go-1,1,,,,,,
0,0,6,phase_2,purple_pentagon,stop,blue,0.0,0-SSD,go-2,4,,,,,,
2,628.0,6,phase_2,purple_circle,go,,,,go-2,1,,,,,,
0,0,6,phase_2,purple_triangle,stop,green,400.0,tracking-SSD,go-2,4,,,,,,
2,669.0,6,phase_2,red_triangle,go,,,,go-1,1,,,,,,
1,689.0,6,phase_2,red_pentagon,go,,,,go-1,1,,,,,,
1,619.0,6,phase_2,red_pentagon,stop,green,450.0,tracking-SSD,go-1,3,,,,,,
1,706.0,6,phase_2,red_rhombus,go,,,,go-1,1,,,,,,
0,0,6,phase_2,purple_rhombus,stop,green,400.0,tracking-SSD,go-2,4,,,,,,
0,0,6,phase_2,purple_triangle,stop,green,450.0,tracking-SSD,go-2,4,,,,,,
2,937.0,6,phase_2,red_triangle,go,,,,go-1,1,,,,,,
1,845.0,6,phase_2,purple_pentagon,go,,,,go-2,1,,,,,,
0,0,6,phase_2,red_triangle,stop,blue,0.0,0-SSD,go-1,4,,,,,,
0,0,6,phase_2,red_circle,stop,blue,0.0,0-SSD,go-1,4,,,,,,
2,568.0,6,phase_2,purple_circle,go,,,,go-2,1,,,,,,
2,679.0,6,phase_2,red_circle,go,,,,go-1,1,,,,,,
0,0,6,phase_2,purple_circle,stop,blue,0.0,0-SSD,go-2,4,,,,,,
1,785.0,6,phase_2,purple_rhombus,go,,,,go-2,1,,,,,,
2,716.0,6,phase_2,purple_pentagon,go,,,,go-2,2,,,,,,
1,871.0,6,phase_2,purple_rhombus,go,,,,go-2,1,,,,,,
0,0,6,phase_2,purple_triangle,stop,blue,0.0,0-SSD,go-2,4,,,,,,
2,834.0,6,phase_2,red_triangle,go,,,,go-1,1,,,,,,
1,608.0,6,phase_2,red_rhombus,go,,,,go-1,1,,,,,,
1,673.0,6,phase_2,red_pentagon,go,,,,go-1,1,,,,,,
2,558.0,6,phase_2,red_triangle,go,,,,go-1,1,,,,,,
2,478.0,6,phase_2,red_triangle,go,,,,go-1,1,,,,,,
2,644.0,6,phase_2,red_circle,stop,green,500.0,tracking-SSD,go-1,3,,,,,,
0,0,7,phase_2,purple_triangle,stop,blue,0.0,0-SSD,go-2,4,,,,,,
0,0,7,phase_2,red_pentagon,stop,blue,0.0,0-SSD,go-1,4,,,,,,
2,608.0,7,phase_2,red_circle,stop,green,450.0,tracking-SSD,go-1,3,,,,,,
1,820.0,7,phase_2,purple_rhombus,go,,,,go-2,1,,,,,,
1,715.0,7,phase_2,red_pentagon,go,,,,go-1,1,,,,,,
2,635.0,7,phase_2,red_circle,go,,,,go-1,1,,,,,,
2,688.0,7,phase_2,purple_circle,go,,,,go-2,1,,,,,,
2,665.0,7,phase_2,red_triangle,go,,,,go-1,1,,,,,,
2,584.0,7,phase_2,red_triangle,go,,,,go-1,1,,,,,,
2,569.0,7,phase_2,red_circle,go,,,,go-1,1,,,,,,
2,421.0,7,phase_2,purple_triangle,go,,,,go-2,1,,,,,,
2,452.0,7,phase_2,red_circle,stop,green,400.0,tracking-SSD,go-1,3,,,,,,
0,0,7,phase_2,red_rhombus,stop,green,350.0,tracking-SSD,go-1,4,,,,,,
2,729.0,7,phase_2,red_circle,go,,,,go-1,1,,,,,,
2,523.0,7,phase_2,purple_triangle,go,,,,go-2,1,,,,,,
2,521.0,7,phase_2,red_triangle,go,,,,go-1,1,,,,,,
0,0,7,phase_2,purple_pentagon,stop,green,400.0,tracking-SSD,go-2,4,,,,,,
0,0,7,phase_2,purple_rhombus,stop,green,450.0,tracking-SSD,go-2,4,,,,,,
1,649.0,7,phase_2,purple_pentagon,go,,,,go-2,1,,,,,,
0,0,7,phase_2,purple_triangle,stop,blue,0.0,0-SSD,go-2,4,,,,,,
1,745.0,7,phase_2,purple_rhombus,go,,,,go-2,1,,,,,,
0,0,7,phase_2,red_pentagon,stop,blue,0.0,0-SSD,go-1,4,,,,,,
0,0,7,phase_2,red_pentagon,stop,blue,0.0,0-SSD,go-1,4,,,,,,
2,751.0,7,phase_2,purple_triangle,go,,,,go-2,1,,,,,,
1,751.0,7,phase_2,purple_rhombus,go,,,,go-2,1,,,,,,
2,737.0,7,phase_2,red_triangle,go,,,,go-1,1,,,,,,
2,622.0,7,phase_2,purple_triangle,go,,,,go-2,1,,,,,,
0,0,7,phase_2,purple_pentagon,stop,blue,0.0,0-SSD,go-2,4,,,,,,
1,652.0,7,phase_2,purple_pentagon,go,,,,go-2,1,,,,,,
1,536.0,7,phase_2,purple_pentagon,stop,green,500.0,tracking-SSD,go-2,3,,,,,,
0,0,7,phase_2,purple_circle,stop,blue,0.0,0-SSD,go-2,4,,,,,,
1,758.0,7,phase_2,purple_rhombus,go,,,,go-2,1,,,,,,
1,756.0,7,phase_2,purple_pentagon,go,,,,go-2,1,,,,,,
1,631.0,7,phase_2,red_pentagon,go,,,,go-1,1,,,,,,
1,742.0,7,phase_2,red_rhombus,go,,,,go-1,1,,,,,,
1,548.0,7,phase_2,purple_rhombus,go,,,,go-2,1,,,,,,
1,603.0,7,phase_2,red_rhombus,go,,,,go-1,1,,,,,,
2,634.0,7,phase_2,red_circle,go,,,,go-1,1,,,,,,
2,586.0,7,phase_2,red_circle,go,,,,go-1,1,,,,,,
1,730.0,7,phase_2,purple_rhombus,go,,,,go-2,1,,,,,,
2,604.0,7,phase_2,red_circle,go,,,,go-1,1,,,,,,
2,523.0,7,phase_2,red_circle,go,,,,go-1,1,,,,,,
1,723.0,7,phase_2,purple_pentagon,go,,,,go-2,1,,,,,,
0,0,7,phase_2,red_rhombus,stop,blue,0.0,0-SSD,go-1,4,,,,,,
0,0,7,phase_2,purple_triangle,stop,green,450.0,tracking-SSD,go-2,4,,,,,,
0,0,7,phase_2,red_triangle,stop,green,500.0,tracking-SSD,go-1,4,,,,,,
2,578.0,7,phase_2,purple_circle,go,,,,go-2,1,,,,,,
1,620.0,7,phase_2,red_rhombus,go,,,,go-1,1,,,,,,
2,679.0,8,phase_2,red_triangle,stop,green,550.0,tracking-SSD,go-1,3,,,,,,
0,0,8,phase_2,purple_circle,stop,blue,0.0,0-SSD,go-2,4,,,,,,
1,664.0,8,phase_2,red_pentagon,go,,,,go-1,1,,,,,,
2,763.0,8,phase_2,red_triangle,go,,,,go-1,1,,,,,,
1,707.0,8,phase_2,purple_rhombus,go,,,,go-2,1,,,,,,
1,626.0,8,phase_2,purple_rhombus,go,,,,go-2,1,,,,,,
2,623.0,8,phase_2,red_triangle,go,,,,go-1,1,,,,,,
2,554.0,8,phase_2,purple_triangle,go,,,,go-2,1,,,,,,
0,0,8,phase_2,red_pentagon,stop,blue,0.0,0-SSD,go-1,4,,,,,,
1,775.0,8,phase_2,purple_pentagon,go,,,,go-2,1,,,,,,
2,670.0,8,phase_2,red_circle,stop,green,500.0,tracking-SSD,go-1,3,,,,,,
1,850.0,8,phase_2,purple_pentagon,go,,,,go-2,1,,,,,,
2,611.0,8,phase_2,red_circle,go,,,,go-1,1,,,,,,
2,788.0,8,phase_2,purple_triangle,go,,,,go-2,1,,,,,,
1,753.0,8,phase_2,red_rhombus,go,,,,go-1,1,,,,,,
1,671.0,8,phase_2,red_pentagon,go,,,,go-1,1,,,,,,
0,0,8,phase_2,purple_circle,stop,green,450.0,tracking-SSD,go-2,4,,,,,,
0,0,8,phase_2,purple_rhombus,stop,blue,0.0,0-SSD,go-2,4,,,,,,
0,0,8,phase_2,purple_circle,stop,blue,0.0,0-SSD,go-2,4,,,,,,
2,1044.0,8,phase_2,purple_triangle,go,,,,go-2,1,,,,,,
0,0,8,phase_2,red_triangle,stop,blue,0.0,0-SSD,go-1,4,,,,,,
2,464.0,8,phase_2,purple_triangle,go,,,,go-2,1,,,,,,
1,687.0,8,phase_2,purple_rhombus,go,,,,go-2,1,,,,,,
1,550.0,8,phase_2,red_triangle,go,,,,go-1,2,,,,,,
0,0,8,phase_2,purple_rhombus,stop,blue,0.0,0-SSD,go-2,4,,,,,,
1,781.0,8,phase_2,red_pentagon,stop,green,500.0,tracking-SSD,go-1,3,,,,,,
1,822.0,8,phase_2,red_rhombus,go,,,,go-1,1,,,,,,
2,551.0,8,phase_2,red_circle,go,,,,go-1,1,,,,,,
2,605.0,8,phase_2,purple_circle,stop,green,450.0,tracking-SSD,go-2,3,,,,,,
1,592.0,8,phase_2,red_pentagon,go,,,,go-1,1,,,,,,
2,625.0,8,phase_2,purple_circle,go,,,,go-2,1,,,,,,
1,658.0,8,phase_2,purple_rhombus,go,,,,go-2,1,,,,,,
2,600.0,8,phase_2,red_circle,go,,,,go-1,1,,,,,,
0,0,8,phase_2,red_rhombus,stop,blue,0.0,0-SSD,go-1,4,,,,,,
1,699.0,8,phase_2,red_pentagon,go,,,,go-1,1,,,,,,
2,630.0,8,phase_2,purple_triangle,stop,green,400.0,tracking-SSD,go-2,3,,,,,,
0,0,8,phase_2,red_circle,stop,green,350.0,tracking-SSD,go-1,4,,,,,,
0,0,8,phase_2,purple_pentagon,stop,green,400.0,tracking-SSD,go-2,4,,,,,,
1,724.0,8,phase_2,purple_rhombus,go,,,,go-2,1,,,,,,
1,654.0,8,phase_2,red_rhombus,go,,,,go-1,1,,,,,,
0,0,8,phase_2,red_triangle,stop,blue,0.0,0-SSD,go-1,4,,,,,,
2,650.0,8,phase_2,purple_circle,go,,,,go-2,1,,,,,,
1,670.0,8,phase_2,red_pentagon,go,,,,go-1,1,,,,,,
1,487.0,8,phase_2,purple_pentagon,go,,,,go-2,1,,,,,,
2,565.0,8,phase_2,purple_triangle,go,,,,go-2,1,,,,,,
1,686.0,8,phase_2,red_rhombus,go,,,,go-1,1,,,,,,
1,628.0,8,phase_2,purple_pentagon,go,,,,go-2,1,,,,,,
2,580.0,8,phase_2,red_circle,go,,,,go-1,1,,,,,,
2,589.0,9,phase_2,red_circle,stop,green,450.0,tracking-SSD,go-1,3,,,,,,
1,711.0,9,phase_2,red_rhombus,go,,,,go-1,1,,,,,,
1,494.0,9,phase_2,red_rhombus,go,,,,go-1,1,,,,,,
1,650.0,9,phase_2,red_pentagon,go,,,,go-1,1,,,,,,
0,0,9,phase_2,purple_triangle,stop,blue,0.0,0-SSD,go-2,4,,,,,,
0,0,9,phase_2,purple_rhombus,stop,green,400.0,tracking-SSD,go-2,4,,,,,,
2,834.0,9,phase_2,purple_triangle,go,,,,go-2,1,,,,,,
2,606.0,9,phase_2,red_circle,go,,,,go-1,1,,,,,,
0,0,9,phase_2,red_triangle,stop,blue,0.0,0-SSD,go-1,4,,,,,,
0,0,9,phase_2,red_circle,stop,blue,0.0,0-SSD,go-1,4,,,,,,
2,665.0,9,phase_2,red_triangle,stop,green,450.0,tracking-SSD,go-1,3,,,,,,
1,642.0,9,phase_2,purple_rhombus,go,,,,go-2,1,,,,,,
2,740.0,9,phase_2,purple_circle,go,,,,go-2,1,,,,,,
1,636.0,9,phase_2,red_pentagon,go,,,,go-1,1,,,,,,
2,735.0,9,phase_2,purple_triangle,go,,,,go-2,1,,,,,,
0,0,9,phase_2,purple_rhombus,stop,green,400.0,tracking-SSD,go-2,4,,,,,,
1,640.0,9,phase_2,red_pentagon,go,,,,go-1,1,,,,,,
2,514.0,9,phase_2,red_circle,go,,,,go-1,1,,,,,,
2,567.0,9,phase_2,purple_circle,go,,,,go-2,1,,,,,,
1,589.0,9,phase_2,red_rhombus,go,,,,go-1,1,,,,,,
1,586.0,9,phase_2,purple_rhombus,stop,green,450.0,tracking-SSD,go-2,3,,,,,,
1,719.0,9,phase_2,red_pentagon,go,,,,go-1,1,,,,,,
2,558.0,9,phase_2,purple_triangle,go,,,,go-2,1,,,,,,
2,669.0,9,phase_2,purple_circle,go,,,,go-2,1,,,,,,
0,0,9,phase_2,purple_triangle,stop,blue,0.0,0-SSD,go-2,4,,,,,,
1,800.0,9,phase_2,red_rhombus,go,,,,go-1,1,,,,,,
2,642.0,9,phase_2,purple_triangle,go,,,,go-2,1,,,,,,
1,762.0,9,phase_2,red_rhombus,go,,,,go-1,1,,,,,,
0,0,9,phase_2,purple_pentagon,stop,blue,0.0,0-SSD,go-2,4,,,,,,
1,769.0,9,phase_2,purple_pentagon,go,,,,go-2,1,,,,,,
1,586.0,9,phase_2,purple_rhombus,go,,,,go-2,1,,,,,,
1,550.0,9,phase_2,purple_pentagon,go,,,,go-2,1,,,,,,
1,469.0,9,phase_2,purple_pentagon,go,,,,go-2,1,,,,,,
1,489.0,9,phase_2,red_pentagon,go,,,,go-1,1,,,,,,
2,790.0,9,phase_2,red_triangle,go,,,,go-1,1,,,,,,
0,0,9,phase_2,red_circle,stop,blue,0.0,0-SSD,go-1,4,,,,,,
2,707.0,9,phase_2,purple_circle,go,,,,go-2,1,,,,,,
0,0,9,phase_2,red_rhombus,stop,blue,0.0,0-SSD,go-1,4,,,,,,
2,635.0,9,phase_2,red_circle,go,,,,go-1,1,,,,,,
1,554.0,9,phase_2,purple_triangle,go,,,,go-2,2,,,,,,
2,585.0,9,phase_2,red_triangle,stop,green,400.0,tracking-SSD,go-1,3,,,,,,
0,0,9,phase_2,red_triangle,stop,green,350.0,tracking-SSD,go-1,4,,,,,,
2,660.0,9,phase_2,purple_circle,go,,,,go-2,1,,,,,,
1,861.0,9,phase_2,red_pentagon,go,,,,go-1,1,,,,,,
2,723.0,9,phase_2,red_circle,go,,,,go-1,1,,,,,,
0,0,9,phase_2,purple_pentagon,stop,blue,0.0,0-SSD,go-2,4,,,,,,
2,808.0,9,phase_2,purple_rhombus,go,,,,go-2,2,,,,,,
1,805.0,9,phase_2,purple_pentagon,stop,green,400.0,tracking-SSD,go-2,3,,,,,,
2,646.0,10,phase_2,purple_circle,go,,,,go-2,1,,,,,,
2,654.0,10,phase_2,red_triangle,go,,,,go-1,1,,,,,,
1,584.0,10,phase_2,red_rhombus,go,,,,go-1,1,,,,,,
2,683.0,10,phase_2,red_circle,go,,,,go-1,1,,,,,,
0,0,10,phase_2,purple_circle,stop,blue,0.0,0-SSD,go-2,4,,,,,,
2,690.0,10,phase_2,purple_circle,go,,,,go-2,1,,,,,,
0,0,10,phase_2,purple_triangle,stop,blue,0.0,0-SSD,go-2,4,,,,,,
2,573.0,10,phase_2,purple_triangle,go,,,,go-2,1,,,,,,
1,638.0,10,phase_2,purple_pentagon,go,,,,go-2,1,,,,,,
1,728.0,10,phase_2,purple_pentagon,go,,,,go-2,1,,,,,,
0,0,10,phase_2,purple_pentagon,stop,green,350.0,tracking-SSD,go-2,4,,,,,,
2,646.0,10,phase_2,red_triangle,go,,,,go-1,1,,,,,,
2,1003.0,10,phase_2,purple_circle,go,,,,go-2,1,,,,,,
1,573.0,10,phase_2,red_rhombus,go,,,,go-1,1,,,,,,
1,548.0,10,phase_2,red_circle,go,,,,go-1,2,,,,,,
2,635.0,10,phase_2,red_triangle,go,,,,go-1,1,,,,,,
0,0,10,phase_2,red_rhombus,stop,blue,0.0,0-SSD,go-1,4,,,,,,
2,732.0,10,phase_2,red_triangle,go,,,,go-1,1,,,,,,
2,582.0,10,phase_2,purple_rhombus,stop,green,400.0,tracking-SSD,go-2,3,,,,,,
2,625.0,10,phase_2,purple_triangle,go,,,,go-2,1,,,,,,
1,758.0,10,phase_2,purple_rhombus,go,,,,go-2,1,,,,,,
0,0,10,phase_2,red_triangle,stop,blue,0.0,0-SSD,go-1,4,,,,,,
2,708.0,10,phase_2,red_circle,go,,,,go-1,1,,,,,,
1,763.0,10,phase_2,red_rhombus,stop,green,350.0,tracking-SSD,go-1,3,,,,,,
0,0,10,phase_2,red_rhombus,stop,green,300.0,tracking-SSD,go-1,4,,,,,,
0,0,10,phase_2,purple_pentagon,stop,blue,0.0,0-SSD,go-2,4,,,,,,
2,655.0,10,phase_2,purple_triangle,go,,,,go-2,1,,,,,,
2,676.0,10,phase_2,purple_rhombus,go,,,,go-2,2,,,,,,
1,493.0,10,phase_2,purple_pentagon,go,,,,go-2,1,,,,,,
0,0,10,phase_2,red_pentagon,stop,blue,0.0,0-SSD,go-1,4,,,,,,
2,453.0,10,phase_2,red_circle,stop,green,350.0,tracking-SSD,go-1,3,,,,,,
1,574.0,10,phase_2,red_rhombus,go,,,,go-1,1,,,,,,
1,652.0,10,phase_2,red_pentagon,go,,,,go-1,1,,,,,,
0,0,10,phase_2,purple_triangle,stop,green,300.0,tracking-SSD,go-2,4,,,,,,
1,591.0,10,phase_2,red_rhombus,stop,green,350.0,tracking-SSD,go-1,3,,,,,,
0,0,10,phase_2,purple_pentagon,stop,blue,0.0,0-SSD,go-2,4,,,,,,
2,587.0,10,phase_2,red_triangle,go,,,,go-1,1,,,,,,
2,607.0,10,phase_2,purple_circle,go,,,,go-2,1,,,,,,
1,662.0,10,phase_2,red_pentagon,go,,,,go-1,1,,,,,,
1,726.0,10,phase_2,red_rhombus,go,,,,go-1,1,,,,,,
1,624.0,10,phase_2,purple_pentagon,go,,,,go-2,1,,,,,,
2,564.0,10,phase_2,purple_triangle,go,,,,go-2,1,,,,,,
2,687.0,10,phase_2,purple_circle,go,,,,go-2,1,,,,,,
1,436.0,10,phase_2,purple_pentagon,go,,,,go-2,1,,,,,,
0,0,10,phase_2,red_rhombus,stop,blue,0.0,0-SSD,go-1,4,,,,,,
2,624.0,10,phase_2,red_circle,go,,,,go-1,1,,,,,,
2,599.0,10,phase_2,red_circle,go,,,,go-1,1,,,,,,
0,0,10,phase_2,purple_pentagon,stop,green,300.0,tracking-SSD,go-2,4,,,,,,
0,0,11,phase_2,red_triangle,stop,blue,0.0,0-SSD,go-1,4,,,,,,
2,620.0,11,phase_2,red_circle,go,,,,go-1,1,,,,,,
2,437.0,11,phase_2,red_circle,stop,green,350.0,tracking-SSD,go-1,3,,,,,,
2,558.0,11,phase_2,red_triangle,go,,,,go-1,1,,,,,,
1,534.0,11,phase_2,purple_rhombus,go,,,,go-2,1,,,,,,
0,0,11,phase_2,purple_rhombus,stop,blue,0.0,0-SSD,go-2,4,,,,,,
2,518.0,11,phase_2,purple_circle,go,,,,go-2,1,,,,,,
1,526.0,11,phase_2,red_pentagon,go,,,,go-1,1,,,,,,
2,490.0,11,phase_2,red_triangle,go,,,,go-1,1,,,,,,
1,601.0,11,phase_2,red_rhombus,stop,green,300.0,tracking-SSD,go-1,3,,,,,,
1,440.0,11,phase_2,purple_rhombus,go,,,,go-2,1,,,,,,
2,450.0,11,phase_2,purple_triangle,go,,,,go-2,1,,,,,,
0,0,11,phase_2,purple_circle,stop,blue,0.0,0-SSD,go-2,4,,,,,,
2,412.0,11,phase_2,purple_circle,go,,,,go-2,1,,,,,,
1,465.0,11,phase_2,red_triangle,go,,,,go-1,2,,,,,,
2,554.0,11,phase_2,red_pentagon,go,,,,go-1,2,,,,,,
1,697.0,11,phase_2,red_pentagon,go,,,,go-1,1,,,,,,
2,492.0,11,phase_2,purple_circle,go,,,,go-2,1,,,,,,
0,0,11,phase_2,red_circle,stop,blue,0.0,0-SSD,go-1,4,,,,,,
1,701.0,11,phase_2,purple_rhombus,go,,,,go-2,1,,,,,,
1,530.0,11,phase_2,purple_rhombus,go,,,,go-2,1,,,,,,
0,0,11,phase_2,red_circle,stop,green,250.0,tracking-SSD,go-1,4,,,,,,
0,0,11,phase_2,purple_rhombus,stop,blue,0.0,0-SSD,go-2,4,,,,,,
0,0,11,phase_2,purple_rhombus,stop,green,300.0,tracking-SSD,go-2,4,,,,,,
1,644.0,11,phase_2,purple_pentagon,go,,,,go-2,1,,,,,,
0,0,11,phase_2,red_pentagon,stop,blue,0.0,0-SSD,go-1,4,,,,,,
2,527.0,11,phase_2,purple_circle,go,,,,go-2,1,,,,,,
2,525.0,11,phase_2,purple_circle,go,,,,go-2,1,,,,,,
1,579.0,11,phase_2,purple_rhombus,go,,,,go-2,1,,,,,,
1,622.0,11,phase_2,red_pentagon,go,,,,go-1,1,,,,,,
1,495.0,11,phase_2,red_pentagon,go,,,,go-1,1,,,,,,
1,538.0,11,phase_2,purple_circle,go,,,,go-2,2,,,,,,
1,693.0,11,phase_2,purple_pentagon,go,,,,go-2,1,,,,,,
2,692.0,11,phase_2,purple_triangle,stop,green,350.0,tracking-SSD,go-2,3,,,,,,
1,655.0,11,phase_2,red_pentagon,go,,,,go-1,1,,,,,,
1,697.0,11,phase_2,red_rhombus,go,,,,go-1,1,,,,,,
1,593.0,11,phase_2,red_pentagon,go,,,,go-1,1,,,,,,
0,0,11,phase_2,purple_triangle,stop,green,300.0,tracking-SSD,go-2,4,,,,,,
2,566.0,11,phase_2,red_triangle,go,,,,go-1,1,,,,,,
1,587.0,11,phase_2,red_pentagon,go,,,,go-1,1,,,,,,
0,0,11,phase_2,purple_rhombus,stop,green,350.0,tracking-SSD,go-2,4,,,,,,
0,0,11,phase_2,red_circle,stop,blue,0.0,0-SSD,go-1,4,,,,,,
2,657.0,11,phase_2,red_triangle,go,,,,go-1,1,,,,,,
1,621.0,11,phase_2,purple_pentagon,go,,,,go-2,1,,,,,,
0,0,11,phase_2,purple_rhombus,stop,blue,0.0,0-SSD,go-2,4,,,,,,
2,539.0,11,phase_2,red_triangle,go,,,,go-1,1,,,,,,
2,424.0,11,phase_2,red_triangle,stop,green,400.0,tracking-SSD,go-1,3,,,,,,
2,556.0,11,phase_2,purple_triangle,go,,,,go-2,1,,,,,,
1,769.0,12,phase_2,purple_pentagon,go,,,,go-2,1,,,,,,
1,451.0,12,phase_2,purple_pentagon,go,,,,go-2,1,,,,,,
1,527.0,12,phase_2,red_pentagon,go,,,,go-1,1,,,,,,
1,468.0,12,phase_2,red_pentagon,go,,,,go-1,1,,,,,,
2,544.0,12,phase_2,purple_triangle,stop,green,350.0,tracking-SSD,go-2,3,,,,,,
1,553.0,12,phase_2,red_rhombus,go,,,,go-1,1,,,,,,
2,416.0,12,phase_2,red_triangle,go,,,,go-1,1,,,,,,
2,515.0,12,phase_2,red_triangle,go,,,,go-1,1,,,,,,
1,514.0,12,phase_2,red_pentagon,stop,green,300.0,tracking-SSD,go-1,3,,,,,,
0,0,12,phase_2,red_pentagon,stop,blue,0.0,0-SSD,go-1,4,,,,,,
0,0,12,phase_2,purple_circle,stop,green,250.0,tracking-SSD,go-2,4,,,,,,
1,653.0,12,phase_2,red_pentagon,go,,,,go-1,1,,,,,,
2,537.0,12,phase_2,red_circle,go,,,,go-1,1,,,,,,
0,0,12,phase_2,purple_rhombus,stop,blue,0.0,0-SSD,go-2,4,,,,,,
0,0,12,phase_2,purple_triangle,stop,green,300.0,tracking-SSD,go-2,4,,,,,,
2,585.0,12,phase_2,purple_triangle,go,,,,go-2,1,,,,,,
0,0,12,phase_2,purple_circle,stop,blue,0.0,0-SSD,go-2,4,,,,,,
0,0,12,phase_2,red_circle,stop,blue,0.0,0-SSD,go-1,4,,,,,,
2,579.0,12,phase_2,red_triangle,go,,,,go-1,1,,,,,,
2,575.0,12,phase_2,purple_circle,go,,,,go-2,1,,,,,,
2,564.0,12,phase_2,purple_circle,go,,,,go-2,1,,,,,,
1,596.0,12,phase_2,red_pentagon,stop,green,350.0,tracking-SSD,go-1,3,,,,,,
0,0,12,phase_2,purple_pentagon,stop,blue,0.0,0-SSD,go-2,4,,,,,,
2,636.0,12,phase_2,purple_circle,go,,,,go-2,1,,,,,,
2,611.0,12,phase_2,red_triangle,go,,,,go-1,1,,,,,,
1,709.0,12,phase_2,red_rhombus,go,,,,go-1,1,,,,,,
0,0,12,phase_2,purple_rhombus,stop,blue,0.0,0-SSD,go-2,4,,,,,,
2,637.0,12,phase_2,purple_circle,go,,,,go-2,1,,,,,,
1,681.0,12,phase_2,red_rhombus,go,,,,go-1,1,,,,,,
2,588.0,12,phase_2,purple_triangle,go,,,,go-2,1,,,,,,
1,675.0,12,phase_2,red_rhombus,go,,,,go-1,1,,,,,,
2,627.0,12,phase_2,purple_circle,go,,,,go-2,1,,,,,,
0,0,12,phase_2,red_circle,stop,green,300.0,tracking-SSD,go-1,4,,,,,,
1,701.0,12,phase_2,purple_rhombus,go,,,,go-2,1,,,,,,
2,733.0,12,phase_2,purple_triangle,go,,,,go-2,1,,,,,,
0,0,12,phase_2,red_rhombus,stop,blue,0.0,0-SSD,go-1,4,,,,,,
1,639.0,12,phase_2,purple_pentagon,go,,,,go-2,1,,,,,,
2,637.0,12,phase_2,purple_triangle,go,,,,go-2,1,,,,,,
1,670.0,12,phase_2,red_pentagon,go,,,,go-1,1,,,,,,
2,623.0,12,phase_2,purple_triangle,go,,,,go-2,1,,,,,,
1,655.0,12,phase_2,red_rhombus,go,,,,go-1,1,,,,,,
0,0,12,phase_2,red_triangle,stop,blue,0.0,0-SSD,go-1,4,,,,,,
1,830.0,12,phase_2,red_rhombus,go,,,,go-1,1,,,,,,
0,0,12,phase_2,purple_circle,stop,green,350.0,tracking-SSD,go-2,4,,,,,,
2,892.0,12,phase_2,red_circle,go,,,,go-1,1,,,,,,
1,777.0,12,phase_2,red_rhombus,stop,green,400.0,tracking-SSD,go-1,3,,,,,,
1,493.0,12,phase_2,purple_pentagon,go,,,,go-2,1,,,,,,
2,524.0,12,phase_2,purple_rhombus,go,,,,go-2,2,,,,,,
1,746.0,13,phase_2,red_triangle,go,,,,go-1,2,,,,,,
1,732.0,13,phase_2,red_rhombus,go,,,,go-1,1,,,,,,
1,741.0,13,phase_2,purple_pentagon,go,,,,go-2,1,,,,,,
0,0,13,phase_2,red_pentagon,stop,blue,0.0,0-SSD,go-1,4,,,,,,
2,601.0,13,phase_2,red_circle,go,,,,go-1,1,,,,,,
1,451.0,13,phase_2,purple_rhombus,go,,,,go-2,1,,,,,,
0,0,13,phase_2,red_triangle,stop,blue,0.0,0-SSD,go-1,4,,,,,,
2,516.0,13,phase_2,purple_circle,go,,,,go-2,1,,,,,,
2,569.0,13,phase_2,red_triangle,go,,,,go-1,1,,,,,,
1,657.0,13,phase_2,purple_pentagon,go,,,,go-2,1,,,,,,
0,0,13,phase_2,red_rhombus,stop,blue,0.0,0-SSD,go-1,4,,,,,,
2,585.0,13,phase_2,red_triangle,go,,,,go-1,1,,,,,,
0,0,13,phase_2,red_triangle,stop,blue,0.0,0-SSD,go-1,4,,,,,,
1,479.0,13,phase_2,purple_rhombus,go,,,,go-2,1,,,,,,
2,533.0,13,phase_2,purple_circle,go,,,,go-2,1,,,,,,
2,631.0,13,phase_2,red_triangle,go,,,,go-1,1,,,,,,
2,437.0,13,phase_2,red_triangle,go,,,,go-1,1,,,,,,
0,0,13,phase_2,purple_pentagon,stop,green,350.0,tracking-SSD,go-2,4,,,,,,
1,702.0,13,phase_2,purple_rhombus,go,,,,go-2,1,,,,,,
2,543.0,13,phase_2,purple_circle,go,,,,go-2,1,,,,,,
2,598.0,13,phase_2,purple_triangle,go,,,,go-2,1,,,,,,
2,606.0,13,phase_2,purple_circle,stop,green,400.0,tracking-SSD,go-2,3,,,,,,
1,616.0,13,phase_2,purple_rhombus,go,,,,go-2,1,,,,,,
0,0,13,phase_2,red_pentagon,stop,green,350.0,tracking-SSD,go-1,4,,,,,,
2,622.0,13,phase_2,red_circle,go,,,,go-1,1,,,,,,
1,574.0,13,phase_2,purple_rhombus,stop,green,400.0,tracking-SSD,go-2,3,,,,,,
2,594.0,13,phase_2,purple_circle,go,,,,go-2,1,,,,,,
1,502.0,13,phase_2,purple_rhombus,go,,,,go-2,1,,,,,,
0,0,13,phase_2,purple_triangle,stop,blue,0.0,0-SSD,go-2,4,,,,,,
0,0,13,phase_2,purple_rhombus,stop,green,350.0,tracking-SSD,go-2,4,,,,,,
0,0,13,phase_2,purple_circle,stop,blue,0.0,0-SSD,go-2,4,,,,,,
1,729.0,13,phase_2,purple_pentagon,go,,,,go-2,1,,,,,,
1,546.0,13,phase_2,purple_pentagon,go,,,,go-2,1,,,,,,
1,476.0,13,phase_2,red_pentagon,go,,,,go-1,1,,,,,,
1,485.0,13,phase_2,red_rhombus,go,,,,go-1,1,,,,,,
2,584.0,13,phase_2,red_triangle,stop,green,400.0,tracking-SSD,go-1,3,,,,,,
0,0,13,phase_2,purple_circle,stop,blue,0.0,0-SSD,go-2,4,,,,,,
1,637.0,13,phase_2,red_pentagon,go,,,,go-1,1,,,,,,
1,600.0,13,phase_2,red_rhombus,stop,green,350.0,tracking-SSD,go-1,3,,,,,,
0,0,13,phase_2,purple_circle,stop,blue,0.0,0-SSD,go-2,4,,,,,,
2,595.0,13,phase_2,red_circle,go,,,,go-1,1,,,,,,
1,649.0,13,phase_2,red_pentagon,go,,,,go-1,1,,,,,,
2,590.0,13,phase_2,purple_circle,go,,,,go-2,1,,,,,,
0,0,13,phase_2,red_rhombus,stop,green,300.0,tracking-SSD,go-1,4,,,,,,
2,687.0,13,phase_2,purple_triangle,go,,,,go-2,1,,,,,,
1,650.0,13,phase_2,red_pentagon,go,,,,go-1,1,,,,,,
2,692.0,13,phase_2,red_triangle,go,,,,go-1,1,,,,,,
1,600.0,13,phase_2,red_pentagon,go,,,,go-1,1,,,,,,
1,533.0,14,phase_2,purple_pentagon,go,,,,go-2,1,,,,,,
1,621.0,14,phase_2,purple_rhombus,go,,,,go-2,1,,,,,,
0,0,14,phase_2,purple_rhombus,stop,blue,0.0,0-SSD,go-2,4,,,,,,
1,514.0,14,phase_2,purple_pentagon,go,,,,go-2,1,,,,,,
1,500.0,14,phase_2,red_rhombus,go,,,,go-1,1,,,,,,
2,722.0,14,phase_2,purple_triangle,stop,green,350.0,tracking-SSD,go-2,3,,,,,,
1,652.0,14,phase_2,red_pentagon,go,,,,go-1,1,,,,,,
0,0,14,phase_2,red_pentagon,stop,blue,0.0,0-SSD,go-1,4,,,,,,
1,523.0,14,phase_2,purple_pentagon,go,,,,go-2,1,,,,,,
1,408.0,14,phase_2,red_pentagon,go,,,,go-1,1,,,,,,
1,406.0,14,phase_2,purple_rhombus,go,,,,go-2,1,,,,,,
2,459.0,14,phase_2,purple_circle,go,,,,go-2,1,,,,,,
1,424.0,14,phase_2,red_rhombus,go,,,,go-1,1,,,,,,
2,545.0,14,phase_2,red_circle,go,,,,go-1,1,,,,,,
0,0,14,phase_2,purple_triangle,stop,blue,0.0,0-SSD,go-2,4,,,,,,
0,0,14,phase_2,red_triangle,stop,green,300.0,tracking-SSD,go-1,4,,,,,,
1,503.0,14,phase_2,red_rhombus,go,,,,go-1,1,,,,,,
1,556.0,14,phase_2,purple_pentagon,stop,green,350.0,tracking-SSD,go-2,3,,,,,,
0,0,14,phase_2,red_circle,stop,blue,0.0,0-SSD,go-1,4,,,,,,
1,573.0,14,phase_2,purple_pentagon,go,,,,go-2,1,,,,,,
0,0,14,phase_2,red_pentagon,stop,blue,0.0,0-SSD,go-1,4,,,,,,
1,546.0,14,phase_2,red_rhombus,go,,,,go-1,1,,,,,,
1,487.0,14,phase_2,purple_pentagon,go,,,,go-2,1,,,,,,
0,0,14,phase_2,red_rhombus,stop,green,300.0,tracking-SSD,go-1,4,,,,,,
2,685.0,14,phase_2,red_triangle,go,,,,go-1,1,,,,,,
2,593.0,14,phase_2,purple_circle,go,,,,go-2,1,,,,,,
2,500.0,14,phase_2,red_circle,go,,,,go-1,1,,,,,,
2,430.0,14,phase_2,red_circle,go,,,,go-1,1,,,,,,
0,0,14,phase_2,red_circle,stop,green,350.0,tracking-SSD,go-1,4,,,,,,
2,728.0,14,phase_2,red_triangle,go,,,,go-1,1,,,,,,
2,479.0,14,phase_2,purple_circle,stop,green,400.0,tracking-SSD,go-2,3,,,,,,
1,622.0,14,phase_2,purple_pentagon,go,,,,go-2,1,,,,,,
1,687.0,14,phase_2,red_rhombus,go,,,,go-1,1,,,,,,
1,573.0,14,phase_2,red_rhombus,go,,,,go-1,1,,,,,,
2,705.0,14,phase_2,red_triangle,go,,,,go-1,1,,,,,,
0,0,14,phase_2,purple_triangle,stop,blue,0.0,0-SSD,go-2,4,,,,,,
2,611.0,14,phase_2,red_circle,go,,,,go-1,1,,,,,,
2,484.0,14,phase_2,purple_circle,go,,,,go-2,1,,,,,,
2,482.0,14,phase_2,red_circle,go,,,,go-1,1,,,,,,
0,0,14,phase_2,purple_triangle,stop,green,350.0,tracking-SSD,go-2,4,,,,,,
2,522.0,14,phase_2,purple_triangle,go,,,,go-2,1,,,,,,
0,0,14,phase_2,red_triangle,stop,blue,0.0,0-SSD,go-1,4,,,,,,
2,429.0,14,phase_2,purple_circle,go,,,,go-2,1,,,,,,
0,0,14,phase_2,purple_rhombus,stop,blue,0.0,0-SSD,go-2,4,,,,,,
2,546.0,14,phase_2,purple_triangle,go,,,,go-2,1,,,,,,
0,0,14,phase_2,red_rhombus,stop,green,400.0,tracking-SSD,go-1,4,,,,,,
2,688.0,14,phase_2,purple_triangle,go,,,,go-2,1,,,,,,
1,631.0,14,phase_2,purple_pentagon,go,,,,go-2,1,,,,,,
1,622.0,15,phase_2,red_pentagon,stop,green,450.0,tracking-SSD,go-1,3,,,,,,
0,0,15,phase_2,purple_circle,stop,blue,0.0,0-SSD,go-2,4,,,,,,
2,549.0,15,phase_2,red_circle,stop,green,400.0,tracking-SSD,go-1,3,,,,,,
2,569.0,15,phase_2,red_triangle,go,,,,go-1,1,,,,,,
2,702.0,15,phase_2,purple_circle,go,,,,go-2,1,,,,,,
1,687.0,15,phase_2,purple_rhombus,go,,,,go-2,1,,,,,,
1,651.0,15,phase_2,red_rhombus,go,,,,go-1,1,,,,,,
1,717.0,15,phase_2,purple_pentagon,stop,green,350.0,tracking-SSD,go-2,3,,,,,,
1,657.0,15,phase_2,red_rhombus,go,,,,go-1,1,,,,,,
2,644.0,15,phase_2,red_triangle,go,,,,go-1,1,,,,,,
0,0,15,phase_2,red_rhombus,stop,blue,0.0,0-SSD,go-1,4,,,,,,
2,628.0,15,phase_2,red_circle,go,,,,go-1,1,,,,,,
1,558.0,15,phase_2,purple_rhombus,go,,,,go-2,1,,,,,,
1,668.0,15,phase_2,red_pentagon,go,,,,go-1,1,,,,,,
2,678.0,15,phase_2,purple_triangle,go,,,,go-2,1,,,,,,
2,585.0,15,phase_2,red_triangle,go,,,,go-1,1,,,,,,
0,0,15,phase_2,purple_rhombus,stop,green,300.0,tracking-SSD,go-2,4,,,,,,
1,795.0,15,phase_2,red_rhombus,go,,,,go-1,1,,,,,,
0,0,15,phase_2,purple_circle,stop,blue,0.0,0-SSD,go-2,4,,,,,,
1,508.0,15,phase_2,red_pentagon,go,,,,go-1,1,,,,,,
2,685.0,15,phase_2,purple_triangle,go,,,,go-2,1,,,,,,
1,526.0,15,phase_2,red_pentagon,go,,,,go-1,1,,,,,,
1,444.0,15,phase_2,purple_pentagon,go,,,,go-2,1,,,,,,
2,543.0,15,phase_2,purple_triangle,stop,green,350.0,tracking-SSD,go-2,3,,,,,,
1,574.0,15,phase_2,purple_rhombus,go,,,,go-2,1,,,,,,
2,605.0,15,phase_2,purple_triangle,go,,,,go-2,1,,,,,,
2,614.0,15,phase_2,purple_circle,go,,,,go-2,1,,,,,,
0,0,15,phase_2,purple_pentagon,stop,blue,0.0,0-SSD,go-2,4,,,,,,
1,497.0,15,phase_2,purple_pentagon,go,,,,go-2,1,,,,,,
0,0,15,phase_2,red_pentagon,stop,green,300.0,tracking-SSD,go-1,4,,,,,,
1,570.0,15,phase_2,purple_rhombus,go,,,,go-2,1,,,,,,
2,477.0,15,phase_2,red_triangle,stop,green,350.0,tracking-SSD,go-1,3,,,,,,
0,0,15,phase_2,red_pentagon,stop,blue,0.0,0-SSD,go-1,4,,,,,,
1,551.0,15,phase_2,red_rhombus,go,,,,go-1,1,,,,,,
2,616.0,15,phase_2,purple_circle,go,,,,go-2,1,,,,,,
2,648.0,15,phase_2,red_triangle,go,,,,go-1,1,,,,,,
1,566.0,15,phase_2,red_rhombus,go,,,,go-1,1,,,,,,
0,0,15,phase_2,purple_circle,stop,blue,0.0,0-SSD,go-2,4,,,,,,
0,0,15,phase_2,red_rhombus,stop,blue,0.0,0-SSD,go-1,4,,,,,,
2,615.0,15,phase_2,red_circle,go,,,,go-1,1,,,,,,
0,0,15,phase_2,red_triangle,stop,blue,0.0,0-SSD,go-1,4,,,,,,
1,486.0,15,phase_2,red_pentagon,go,,,,go-1,1,,,,,,
2,483.0,15,phase_2,purple_circle,go,,,,go-2,1,,,,,,
1,492.0,15,phase_2,purple_pentagon,go,,,,go-2,1,,,,,,
2,466.0,15,phase_2,red_circle,go,,,,go-1,1,,,,,,
1,442.0,15,phase_2,purple_triangle,stop,green,300.0,tracking-SSD,go-2,3,,,,,,
2,575.0,15,phase_2,purple_circle,go,,,,go-2,1,,,,,,
2,482.0,15,phase_2,purple_triangle,go,,,,go-2,1,,,,,,
1,667.0,16,phase_2,red_pentagon,go,,,,go-1,1,,,,,,
1,441.0,16,phase_2,red_pentagon,go,,,,go-1,1,,,,,,
1,709.0,16,phase_2,red_rhombus,go,,,,go-1,1,,,,,,
1,402.0,16,phase_2,red_pentagon,go,,,,go-1,1,,,,,,
2,378.0,16,phase_2,purple_triangle,stop,green,250.0,tracking-SSD,go-2,3,,,,,,
0,0,16,phase_2,red_rhombus,stop,green,200.0,tracking-SSD,go-1,4,,,,,,
2,450.0,16,phase_2,purple_pentagon,go,,,,go-2,2,,,,,,
1,470.0,16,phase_2,purple_pentagon,go,,,,go-2,1,,,,,,
0,0,16,phase_2,red_triangle,stop,blue,0.0,0-SSD,go-1,4,,,,,,
1,624.0,16,phase_2,purple_rhombus,go,,,,go-2,1,,,,,,
2,509.0,16,phase_2,red_triangle,go,,,,go-1,1,,,,,,
0,0,16,phase_2,purple_circle,stop,blue,0.0,0-SSD,go-2,4,,,,,,
1,594.0,16,phase_2,purple_pentagon,go,,,,go-2,1,,,,,,
2,467.0,16,phase_2,purple_triangle,go,,,,go-2,1,,,,,,
2,566.0,16,phase_2,purple_triangle,go,,,,go-2,1,,,,,,
0,0,16,phase_2,red_circle,stop,blue,0.0,0-SSD,go-1,4,,,,,,
0,0,16,phase_2,red_circle,stop,green,250.0,tracking-SSD,go-1,4,,,,,,
0,0,16,phase_2,purple_rhombus,stop,blue,0.0,0-SSD,go-2,4,,,,,,
2,397.0,16,phase_2,red_circle,stop,green,300.0,tracking-SSD,go-1,3,,,,,,
2,599.0,16,phase_2,purple_triangle,go,,,,go-2,1,,,,,,
1,427.0,16,phase_2,red_rhombus,go,,,,go-1,1,,,,,,
2,593.0,16,phase_2,purple_triangle,stop,green,250.0,tracking-SSD,go-2,3,,,,,,
0,0,16,phase_2,red_triangle,stop,green,200.0,tracking-SSD,go-1,4,,,,,,
1,466.0,16,phase_2,purple_pentagon,go,,,,go-2,1,,,,,,
0,0,16,phase_2,purple_circle,stop,blue,0.0,0-SSD,go-2,4,,,,,,
1,619.0,16,phase_2,red_rhombus,go,,,,go-1,1,,,,,,
1,593.0,16,phase_2,purple_rhombus,go,,,,go-2,1,,,,,,
0,0,16,phase_2,red_pentagon,stop,blue,0.0,0-SSD,go-1,4,,,,,,
1,465.0,16,phase_2,purple_rhombus,go,,,,go-2,1,,,,,,
1,552.0,16,phase_2,red_rhombus,go,,,,go-1,1,,,,,,
1,595.0,16,phase_2,purple_rhombus,stop,green,250.0,tracking-SSD,go-2,3,,,,,,
2,648.0,16,phase_2,red_triangle,go,,,,go-1,1,,,,,,
1,600.0,16,phase_2,purple_pentagon,go,,,,go-2,1,,,,,,
2,587.0,16,phase_2,purple_circle,go,,,,go-2,1,,,,,,
2,674.0,16,phase_2,red_circle,go,,,,go-1,1,,,,,,
0,0,16,phase_2,red_circle,stop,blue,0.0,0-SSD,go-1,4,,,,,,
1,637.0,16,phase_2,red_pentagon,go,,,,go-1,1,,,,,,
2,611.0,16,phase_2,purple_circle,go,,,,go-2,1,,,,,,
0,0,16,phase_2,purple_triangle,stop,blue,0.0,0-SSD,go-2,4,,,,,,
0,0,16,phase_2,purple_circle,stop,green,200.0,tracking-SSD,go-2,4,,,,,,
1,625.0,16,phase_2,purple_pentagon,go,,,,go-2,1,,,,,,
2,533.0,16,phase_2,red_circle,go,,,,go-1,1,,,,,,
2,687.0,16,phase_2,red_triangle,go,,,,go-1,1,,,,,,
1,596.0,16,phase_2,red_rhombus,go,,,,go-1,1,,,,,,
1,661.0,16,phase_2,red_pentagon,go,,,,go-1,1,,,,,,
2,590.0,16,phase_2,purple_triangle,go,,,,go-2,1,,,,,,
2,758.0,16,phase_2,purple_circle,go,,,,go-2,1,,,,,,
1,642.0,16,phase_2,red_rhombus,go,,,,go-1,1,,,,,,
1,589.0,17,phase_2,purple_pentagon,go,,,,go-2,1,,,,,,
0,0,17,phase_2,red_triangle,stop,blue,0.0,0-SSD,go-1,4,,,,,,
0,0,17,phase_2,purple_circle,stop,green,250.0,tracking-SSD,go-2,4,,,,,,
2,480.0,17,phase_2,red_circle,go,,,,go-1,1,,,,,,
0,0,17,phase_2,purple_circle,stop,blue,0.0,0-SSD,go-2,4,,,,,,
1,632.0,17,phase_2,red_rhombus,go,,,,go-1,1,,,,,,
2,484.0,17,phase_2,purple_circle,go,,,,go-2,1,,,,,,
1,515.0,17,phase_2,purple_pentagon,go,,,,go-2,1,,,,,,
1,534.0,17,phase_2,red_rhombus,go,,,,go-1,1,,,,,,
1,577.0,17,phase_2,red_rhombus,go,,,,go-1,1,,,,,,
1,473.0,17,phase_2,purple_rhombus,go,,,,go-2,1,,,,,,
0,0,17,phase_2,red_pentagon,stop,blue,0.0,0-SSD,go-1,4,,,,,,
1,478.0,17,phase_2,red_pentagon,go,,,,go-1,1,,,,,,
1,476.0,17,phase_2,red_pentagon,go,,,,go-1,1,,,,,,
2,496.0,17,phase_2,red_triangle,go,,,,go-1,1,,,,,,
1,573.0,17,phase_2,purple_rhombus,go,,,,go-2,1,,,,,,
0,0,17,phase_2,red_circle,stop,green,300.0,tracking-SSD,go-1,4,,,,,,
1,499.0,17,phase_2,red_pentagon,go,,,,go-1,1,,,,,,
1,554.0,17,phase_2,purple_pentagon,go,,,,go-2,1,,,,,,
0,0,17,phase_2,purple_circle,stop,blue,0.0,0-SSD,go-2,4,,,,,,
0,0,17,phase_2,red_pentagon,stop,blue,0.0,0-SSD,go-1,4,,,,,,
0,0,17,phase_2,red_rhombus,stop,blue,0.0,0-SSD,go-1,4,,,,,,
1,510.0,17,phase_2,red_rhombus,go,,,,go-1,1,,,,,,
0,0,17,phase_2,purple_circle,stop,blue,0.0,0-SSD,go-2,4,,,,,,
1,561.0,17,phase_2,purple_rhombus,go,,,,go-2,1,,,,,,
1,660.0,17,phase_2,red_triangle,go,,,,go-1,2,,,,,,
0,0,17,phase_2,purple_circle,stop,blue,0.0,0-SSD,go-2,4,,,,,,
2,599.0,17,phase_2,purple_triangle,go,,,,go-2,1,,,,,,
2,439.0,17,phase_2,red_circle,stop,green,350.0,tracking-SSD,go-1,3,,,,,,
0,0,17,phase_2,purple_circle,stop,green,300.0,tracking-SSD,go-2,4,,,,,,
2,658.0,17,phase_2,purple_triangle,go,,,,go-2,1,,,,,,
2,510.0,17,phase_2,purple_triangle,stop,green,350.0,tracking-SSD,go-2,3,,,,,,
1,598.0,17,phase_2,red_rhombus,go,,,,go-1,1,,,,,,
0,0,17,phase_2,purple_rhombus,stop,green,300.0,tracking-SSD,go-2,4,,,,,,
2,728.0,17,phase_2,purple_circle,go,,,,go-2,1,,,,,,
2,524.0,17,phase_2,red_triangle,stop,green,350.0,tracking-SSD,go-1,3,,,,,,
2,668.0,17,phase_2,red_triangle,go,,,,go-1,1,,,,,,
1,688.0,17,phase_2,purple_pentagon,go,,,,go-2,1,,,,,,
1,472.0,17,phase_2,purple_pentagon,go,,,,go-2,1,,,,,,
1,435.0,17,phase_2,purple_pentagon,go,,,,go-2,1,,,,,,
1,422.0,17,phase_2,purple_rhombus,go,,,,go-2,1,,,,,,
1,465.0,17,phase_2,red_rhombus,go,,,,go-1,1,,,,,,
1,395.0,17,phase_2,red_pentagon,go,,,,go-1,1,,,,,,
2,380.0,17,phase_2,red_triangle,go,,,,go-1,1,,,,,,
2,434.0,17,phase_2,red_triangle,stop,green,300.0,tracking-SSD,go-1,3,,,,,,
2,420.0,17,phase_2,purple_triangle,go,,,,go-2,1,,,,,,
1,598.0,17,phase_2,red_circle,go,,,,go-1,2,,,,,,
2,618.0,17,phase_2,purple_triangle,go,,,,go-2,1,,,,,,
,1039.0,1,phase_3,,,,,,,,red_square,go-1,red_square,go-1,green_square,tracking-SSD
,1101.0,1,phase_3,,,,,,,,red_square,go-1,red_square,go-1,purple_square,go-2
,1827.0,1,phase_3,,,,,,,,blue_square,0-SSD,blue_square,0-SSD,green_square,tracking-SSD
,889.0,1,phase_3,,,,,,,,red_square,go-1,red_square,go-1,blue_square,0-SSD
,996.0,1,phase_3,,,,,,,,purple_square,go-2,purple_square,go-2,blue_square,0-SSD
,801.0,1,phase_3,,,,,,,,purple_square,go-2,purple_square,go-2,green_square,tracking-SSD
,1302.0,1,phase_3,,,,,,,,purple_square,go-2,blue_square,0-SSD,purple_square,go-2
,1556.0,1,phase_3,,,,,,,,purple_square,go-2,green_square,tracking-SSD,purple_square,go-2
,1327.0,1,phase_3,,,,,,,,red_square,go-1,blue_square,0-SSD,red_square,go-1
,1301.0,1,phase_3,,,,,,,,red_square,go-1,green_square,tracking-SSD,red_square,go-1
,1600.0,1,phase_3,,,,,,,,green_square,tracking-SSD,green_square,tracking-SSD,blue_square,0-SSD
,1415.0,1,phase_3,,,,,,,,red_square,go-1,purple_square,go-2,red_square,go-1
,835.0,2,phase_3,,,,,,,,red_square,go-1,red_square,go-1,blue_square,0-SSD
,1439.0,2,phase_3,,,,,,,,purple_square,go-2,purple_square,go-2,green_square,tracking-SSD
,1018.0,2,phase_3,,,,,,,,purple_square,go-2,purple_square,go-2,blue_square,0-SSD
,1193.0,2,phase_3,,,,,,,,red_square,go-1,red_square,go-1,green_square,tracking-SSD
,885.0,2,phase_3,,,,,,,,red_square,go-1,red_square,go-1,purple_square,go-2
,1276.0,2,phase_3,,,,,,,,green_square,tracking-SSD,blue_square,0-SSD,green_square,tracking-SSD
,1452.0,2,phase_3,,,,,,,,red_square,go-1,purple_square,go-2,red_square,go-1
,963.0,2,phase_3,,,,,,,,red_square,go-1,blue_square,0-SSD,red_square,go-1
,767.0,2,phase_3,,,,,,,,purple_square,go-2,blue_square,0-SSD,purple_square,go-2
,977.0,2,phase_3,,,,,,,,purple_square,go-2,green_square,tracking-SSD,purple_square,go-2
,1061.0,2,phase_3,,,,,,,,green_square,tracking-SSD,green_square,tracking-SSD,blue_square,0-SSD
,630.0,2,phase_3,,,,,,,,red_square,go-1,green_square,tracking-SSD,red_square,go-1
,899.0,3,phase_3,,,,,,,,green_square,tracking-SSD,blue_square,0-SSD,green_square,tracking-SSD
,556.0,3,phase_3,,,,,,,,red_square,go-1,red_square,go-1,green_square,tracking-SSD
,832.0,3,phase_3,,,,,,,,purple_square,go-2,purple_square,go-2,green_square,tracking-SSD
,761.0,3,phase_3,,,,,,,,red_square,go-1,red_square,go-1,blue_square,0-SSD
,1329.0,3,phase_3,,,,,,,,red_square,go-1,red_square,go-1,purple_square,go-2
,1123.0,3,phase_3,,,,,,,,purple_square,go-2,purple_square,go-2,blue_square,0-SSD
,1141.0,3,phase_3,,,,,,,,red_square,go-1,blue_square,0-SSD,red_square,go-1
,990.0,3,phase_3,,,,,,,,red_square,go-1,purple_square,go-2,red_square,go-1
,1279.0,3,phase_3,,,,,,,,purple_square,go-2,blue_square,0-SSD,purple_square,go-2
,1219.0,3,phase_3,,,,,,,,purple_square,go-2,green_square,tracking-SSD,purple_square,go-2
,1719.0,3,phase_3,,,,,,,,green_square,tracking-SSD,green_square,tracking-SSD,blue_square,0-SSD
,905.0,3,phase_3,,,,,,,,red_square,go-1,green_square,tracking-SSD,red_square,go-1
,915.0,4,phase_3,,,,,,,,red_square,go-1,red_square,go-1,purple_square,go-2
,720.0,4,phase_3,,,,,,,,purple_square,go-2,purple_square,go-2,green_square,tracking-SSD
,647.0,4,phase_3,,,,,,,,red_square,go-1,red_square,go-1,green_square,tracking-SSD
,1263.0,4,phase_3,,,,,,,,blue_square,0-SSD,blue_square,0-SSD,green_square,tracking-SSD
,842.0,4,phase_3,,,,,,,,red_square,go-1,red_square,go-1,blue_square,0-SSD
,725.0,4,phase_3,,,,,,,,purple_square,go-2,purple_square,go-2,blue_square,0-SSD
,755.0,4,phase_3,,,,,,,,purple_square,go-2,green_square,tracking-SSD,purple_square,go-2
,581.0,4,phase_3,,,,,,,,purple_square,go-2,blue_square,0-SSD,purple_square,go-2
,632.0,4,phase_3,,,,,,,,purple_square,go-2,purple_square,go-2,red_square,go-1
,989.0,4,phase_3,,,,,,,,red_square,go-1,green_square,tracking-SSD,red_square,go-1
,669.0,4,phase_3,,,,,,,,red_square,go-1,blue_square,0-SSD,red_square,go-1
,2993.0,4,phase_3,,,,,,,,blue_square,0-SSD,green_square,tracking-SSD,blue_square,0-SSD
,769.0,5,phase_3,,,,,,,,blue_square,0-SSD,blue_square,0-SSD,green_square,tracking-SSD
,2059.0,5,phase_3,,,,,,,,purple_square,go-2,purple_square,go-2,green_square,tracking-SSD
,2234.0,5,phase_3,,,,,,,,red_square,go-1,red_square,go-1,purple_square,go-2
,994.0,5,phase_3,,,,,,,,red_square,go-1,red_square,go-1,blue_square,0-SSD
,978.0,5,phase_3,,,,,,,,purple_square,go-2,purple_square,go-2,blue_square,0-SSD
,838.0,5,phase_3,,,,,,,,red_square,go-1,red_square,go-1,green_square,tracking-SSD
,959.0,5,phase_3,,,,,,,,red_square,go-1,purple_square,go-2,red_square,go-1
,729.0,5,phase_3,,,,,,,,red_square,go-1,blue_square,0-SSD,red_square,go-1
,982.0,5,phase_3,,,,,,,,purple_square,go-2,blue_square,0-SSD,purple_square,go-2
,1215.0,5,phase_3,,,,,,,,green_square,tracking-SSD,green_square,tracking-SSD,blue_square,0-SSD
,883.0,5,phase_3,,,,,,,,red_square,go-1,green_square,tracking-SSD,red_square,go-1
,857.0,5,phase_3,,,,,,,,purple_square,go-2,green_square,tracking-SSD,purple_square,go-2
