response,reaction_time,block,which_phase,stim,stop_signal_trial_type,stop_signal_stimulus,SSD,SSD_type,condition,accuracy,chosen_stim,chosen_cond,stim_left,cond_left,stim_right,cond_right
0,0,1,phase_2,blue_triangle,stop,purple,0.0,0-SSD,go-2,4,,,,,,
2,620.0,1,phase_2,green_rhombus,go,,,,go-1,1,,,,,,
1,539.0,1,phase_2,green_circle,go,,,,go-1,1,,,,,,
1,503.0,1,phase_2,blue_circle,stop,red,250.0,tracking-SSD,go-2,3,,,,,,
2,523.0,1,phase_2,blue_pentagon,go,,,,go-2,1,,,,,,
0,0,1,phase_2,green_rhombus,stop,purple,0.0,0-SSD,go-1,4,,,,,,
1,428.0,1,phase_2,blue_circle,go,,,,go-2,1,,,,,,
2,541.0,1,phase_2,green_pentagon,stop,red,200.0,tracking-SSD,go-1,3,,,,,,
1,403.0,1,phase_2,blue_rhombus,go,,,,go-2,2,,,,,,
2,648.0,1,phase_2,blue_pentagon,go,,,,go-2,1,,,,,,
1,544.0,1,phase_2,blue_circle,go,,,,go-2,1,,,,,,
0,0,1,phase_2,green_triangle,stop,red,150.0,tracking-SSD,go-1,4,,,,,,
1,427.0,1,phase_2,green_rhombus,go,,,,go-1,2,,,,,,
0,0,1,phase_2,blue_triangle,stop,red,200.0,tracking-SSD,go-2,4,,,,,,
1,479.0,1,phase_2,green_circle,go,,,,go-1,1,,,,,,
1,578.0,1,phase_2,blue_circle,go,,,,go-2,1,,,,,,
2,464.0,1,phase_2,green_rhombus,go,,,,go-1,1,,,,,,
0,0,1,phase_2,blue_rhombus,stop,red,250.0,tracking-SSD,go-2,4,,,,,,
1,606.0,1,phase_2,green_rhombus,go,,,,go-1,2,,,,,,
1,470.0,1,phase_2,green_triangle,go,,,,go-1,1,,,,,,
1,569.0,1,phase_2,green_triangle,go,,,,go-1,1,,,,,,
1,567.0,1,phase_2,blue_circle,go,,,,go-2,1,,,,,,
1,475.0,1,phase_2,blue_triangle,go,,,,go-2,1,,,,,,
1,441.0,1,phase_2,green_triangle,go,,,,go-1,1,,,,,,
1,381.0,1,phase_2,green_triangle,go,,,,go-1,1,,,,,,
0,0,1,phase_2,blue_triangle,stop,purple,0.0,0-SSD,go-2,4,,,,,,
0,0,1,phase_2,blue_rhombus,stop,purple,0.0,0-SSD,go-2,4,,,,,,
2,509.0,1,phase_2,blue_circle,go,,,,go-2,2,,,,,,
2,643.0,1,phase_2,blue_rhombus,go,,,,go-2,1,,,,,,
1,640.0,1,phase_2,blue_circle,go,,,,go-2,1,,,,,,
2,571.0,1,phase_2,green_pentagon,go,,,,go-1,1,,,,,,
2,658.0,1,phase_2,blue_rhombus,go,,,,go-2,1,,,,,,
2,531.0,1,phase_2,green_pentagon,go,,,,go-1,1,,,,,,
0,0,1,phase_2,green_pentagon,stop,purple,0.0,0-SSD,go-1,4,,,,,,
2,573.0,1,phase_2,green_rhombus,go,,,,go-1,1,,,,,,
1,458.0,1,phase_2,blue_triangle,go,,,,go-2,1,,,,,,
0,0,1,phase_2,green_triangle,stop,purple,0.0,0-SSD,go-1,4,,,,,,
2,520.0,1,phase_2,green_pentagon,stop,red,300.0,tracking-SSD,go-1,3,,,,,,
0,0,1,phase_2,blue_pentagon,stop,purple,0.0,0-SSD,go-2,4,,,,,,
2,594.0,1,phase_2,green_pentagon,go,,,,go-1,1,,,,,,
0,0,1,phase_2,green_circle,stop,purple,0.0,0-SSD,go-1,4,,,,,,
2,522.0,1,phase_2,blue_rhombus,go,,,,go-2,1,,,,,,
1,599.0,1,phase_2,blue_circle,go,,,,go-2,1,,,,,,
2,564.0,1,phase_2,blue_pentagon,stop,red,250.0,tracking-SSD,go-2,3,,,,,,
2,551.0,1,phase_2,blue_pentagon,go,,,,go-2,1,,,,,,
1,503.0,1,phase_2,green_triangle,go,,,,go-1,1,,,,,,
0,0,1,phase_2,green_pentagon,stop,red,200.0,tracking-SSD,go-1,4,,,,,,
1,543.0,1,phase_2,green_circle,go,,,,go-1,1,,,,,,
1,521.0,2,phase_2,blue_triangle,stop,red,250.0,tracking-SSD,go-2,3,,,,,,
1,486.0,2,phase_2,blue_triangle,go,,,,go-2,1,,,,,,
2,596.0,2,phase_2,green_rhombus,go,,,,go-1,1,,,,,,
0,0,2,phase_2,green_pentagon,stop,red,200.0,tracking-SSD,go-1,4,,,,,,
2,547.0,2,phase_2,blue_pentagon,go,,,,go-2,1,,,,,,
1,533.0,2,phase_2,blue_triangle,go,,,,go-2,1,,,,,,
1,430.0,2,phase_2,blue_triangle,go,,,,go-2,1,,,,,,
1,575.0,2,phase_2,blue_circle,go,,,,go-2,1,,,,,,
2,505.0,2,phase_2,blue_rhombus,go,,,,go-2,1,,,,,,
2,581.0,2,phase_2,green_circle,go,,,,go-1,2,,,,,,
1,657.0,2,phase_2,green_circle,go,,,,go-1,1,,,,,,
0,0,2,phase_2,green_pentagon,stop,purple,0.0,0-SSD,go-1,4,,,,,,
0,0,2,phase_2,green_rhombus,stop,purple,0.0,0-SSD,go-1,4,,,,,,
1,582.0,2,phase_2,green_circle,go,,,,go-1,1,,,,,,
1,581.0,2,phase_2,blue_triangle,go,,,,go-2,1,,,,,,
2,533.0,2,phase_2,green_pentagon,go,,,,go-1,1,,,,,,
2,620.0,2,phase_2,green_rhombus,go,,,,go-1,1,,,,,,
0,0,2,phase_2,green_rhombus,stop,red,250.0,tracking-SSD,go-1,4,,,,,,
1,458.0,2,phase_2,blue_triangle,go,,,,go-2,1,,,,,,
0,0,2,phase_2,green_circle,stop,red,300.0,tracking-SSD,go-1,4,,,,,,
0,0,2,phase_2,blue_triangle,stop,purple,0.0,0-SSD,go-2,4,,,,,,
2,553.0,2,phase_2,green_pentagon,go,,,,go-1,1,,,,,,
0,0,2,phase_2,blue_pentagon,stop,purple,0.0,0-SSD,go-2,4,,,,,,
2,673.0,2,phase_2,green_rhombus,go,,,,go-1,1,,,,,,
1,592.0,2,phase_2,green_triangle,go,,,,go-1,1,,,,,,
1,467.0,2,phase_2,green_triangle,go,,,,go-1,1,,,,,,
0,0,2,phase_2,green_circle,stop,purple,0.0,0-SSD,go-1,4,,,,,,
0,0,2,phase_2,blue_circle,stop,purple,0.0,0-SSD,go-2,4,,,,,,
0,0,2,phase_2,blue_circle,stop,red,350.0,tracking-SSD,go-2,4,,,,,,
1,473.0,2,phase_2,blue_triangle,stop,red,400.0,tracking-SSD,go-2,3,,,,,,
0,0,2,phase_2,green_pentagon,stop,purple,0.0,0-SSD,go-1,4,,,,,,
1,593.0,2,phase_2,blue_circle,go,,,,go-2,1,,,,,,
2,681.0,2,phase_2,blue_rhombus,stop,red,350.0,tracking-SSD,go-2,3,,,,,,
2,646.0,2,phase_2,blue_pentagon,go,,,,go-2,1,,,,,,
0,0,2,phase_2,blue_rhombus,stop,purple,0.0,0-SSD,go-2,4,,,,,,
1,543.0,2,phase_2,blue_circle,go,,,,go-2,1,,,,,,
1,597.0,2,phase_2,blue_triangle,go,,,,go-2,1,,,,,,
2,461.0,2,phase_2,blue_pentagon,go,,,,go-2,1,,,,,,
2,674.0,2,phase_2,green_rhombus,go,,,,go-1,1,,,,,,
2,683.0,2,phase_2,blue_pentagon,go,,,,go-2,1,,,,,,
2,514.0,2,phase_2,green_pentagon,go,,,,go-1,1,,,,,,
2,714.0,2,phase_2,green_rhombus,go,,,,go-1,1,,,,,,
2,533.0,2,phase_2,blue_rhombus,go,,,,go-2,1,,,,,,
2,498.0,2,phase_2,green_rhombus,go,,,,go-1,1,,,,,,
1,563.0,2,phase_2,green_triangle,go,,,,go-1,1,,,,,,
2,552.0,2,phase_2,green_pentagon,go,,,,go-1,1,,,,,,
1,595.0,2,phase_2,green_circle,stop,red,300.0,tracking-SSD,go-1,3,,,,,,
1,560.0,2,phase_2,blue_circle,go,,,,go-2,1,,,,,,
1,623.0,3,phase_2,blue_circle,stop,red,250.0,tracking-SSD,go-2,3,,,,,,
2,475.0,3,phase_2,blue_rhombus,go,,,,go-2,1,,,,,,
2,462.0,3,phase_2,blue_pentagon,go,,,,go-2,1,,,,,,
0,0,3,phase_2,blue_rhombus,stop,purple,0.0,0-SSD,go-2,4,,,,,,
0,0,3,phase_2,green_rhombus,stop,purple,0.0,0-SSD,go-1,4,,,,,,
2,491.0,3,phase_2,blue_pentagon,go,,,,go-2,1,,,,,,
2,490.0,3,phase_2,blue_pentagon,go,,,,go-2,1,,,,,,
2,465.0,3,phase_2,blue_pentagon,go,,,,go-2,1,,,,,,
1,519.0,3,phase_2,green_triangle,go,,,,go-1,1,,,,,,
0,0,3,phase_2,blue_triangle,stop,purple,0.0,0-SSD,go-2,4,,,,,,
1,436.0,3,phase_2,green_triangle,go,,,,go-1,1,,,,,,
1,601.0,3,phase_2,green_circle,go,,,,go-1,1,,,,,,
1,442.0,3,phase_2,green_circle,go,,,,go-1,1,,,,,,
0,0,3,phase_2,green_rhombus,stop,red,200.0,tracking-SSD,go-1,4,,,,,,
1,425.0,3,phase_2,blue_triangle,go,,,,go-2,1,,,,,,
2,470.0,3,phase_2,green_rhombus,go,,,,go-1,1,,,,,,
1,636.0,3,phase_2,green_circle,stop,red,250.0,tracking-SSD,go-1,3,,,,,,
1,443.0,3,phase_2,blue_circle,go,,,,go-2,1,,,,,,
1,462.0,3,phase_2,green_triangle,go,,,,go-1,1,,,,,,
2,494.0,3,phase_2,green_rhombus,go,,,,go-1,1,,,,,,
2,514.0,3,phase_2,blue_pentagon,go,,,,go-2,1,,,,,,
1,364.0,3,phase_2,green_triangle,go,,,,go-1,1,,,,,,
2,464.0,3,phase_2,blue_pentagon,go,,,,go-2,1,,,,,,
2,552.0,3,phase_2,green_rhombus,go,,,,go-1,1,,,,,,
2,504.0,3,phase_2,blue_rhombus,go,,,,go-2,1,,,,,,
1,536.0,3,phase_2,blue_circle,go,,,,go-2,1,,,,,,
0,0,3,phase_2,green_triangle,stop,purple,0.0,0-SSD,go-1,4,,,,,,
0,0,3,phase_2,green_pentagon,stop,purple,0.0,0-SSD,go-1,4,,,,,,
2,609.0,3,phase_2,green_pentagon,go,,,,go-1,1,,,,,,
1,449.0,3,phase_2,blue_triangle,stop,red,200.0,tracking-SSD,go-2,3,,,,,,
0,0,3,phase_2,green_pentagon,stop,purple,0.0,0-SSD,go-1,4,,,,,,
2,467.0,3,phase_2,green_circle,go,,,,go-1,2,,,,,,
0,0,3,phase_2,blue_pentagon,stop,red,150.0,tracking-SSD,go-2,4,,,,,,
1,530.0,3,phase_2,green_circle,go,,,,go-1,1,,,,,,
1,505.0,3,phase_2,blue_triangle,stop,red,200.0,tracking-SSD,go-2,3,,,,,,
0,0,3,phase_2,green_circle,stop,red,150.0,tracking-SSD,go-1,4,,,,,,
0,0,3,phase_2,blue_pentagon,stop,purple,0.0,0-SSD,go-2,4,,,,,,
1,410.0,3,phase_2,blue_triangle,go,,,,go-2,1,,,,,,
1,520.0,3,phase_2,green_circle,go,,,,go-1,1,,,,,,
1,393.0,3,phase_2,green_triangle,stop,red,200.0,tracking-SSD,go-1,3,,,,,,
1,436.0,3,phase_2,green_rhombus,go,,,,go-1,2,,,,,,
2,568.0,3,phase_2,green_rhombus,go,,,,go-1,1,,,,,,
0,0,3,phase_2,blue_circle,stop,purple,0.0,0-SSD,go-2,4,,,,,,
2,532.0,3,phase_2,blue_rhombus,go,,,,go-2,1,,,,,,
1,450.0,3,phase_2,blue_triangle,go,,,,go-2,1,,,,,,
2,549.0,3,phase_2,blue_rhombus,go,,,,go-2,1,,,,,,
2,457.0,3,phase_2,blue_pentagon,go,,,,go-2,1,,,,,,
1,612.0,3,phase_2,green_circle,go,,,,go-1,1,,,,,,
1,600.0,4,phase_2,blue_circle,go,,,,go-2,1,,,,,,
2,541.0,4,phase_2,blue_pentagon,go,,,,go-2,1,,,,,,
1,517.0,4,phase_2,green_triangle,go,,,,go-1,1,,,,,,
0,0,4,phase_2,blue_rhombus,stop,red,150.0,tracking-SSD,go-2,4,,,,,,
1,591.0,4,phase_2,green_circle,go,,,,go-1,1,,,,,,
2,566.0,4,phase_2,blue_pentagon,go,,,,go-2,1,,,,,,
1,473.0,4,phase_2,blue_circle,go,,,,go-2,1,,,,,,
1,594.0,4,phase_2,green_circle,go,,,,go-1,1,,,,,,
1,468.0,4,phase_2,green_circle,go,,,,go-1,1,,,,,,
2,590.0,4,phase_2,blue_rhombus,go,,,,go-2,1,,,,,,
1,486.0,4,phase_2,blue_triangle,go,,,,go-2,1,,,,,,
2,553.0,4,phase_2,green_pentagon,stop,red,200.0,tracking-SSD,go-1,3,,,,,,
1,415.0,4,phase_2,blue_circle,go,,,,go-2,1,,,,,,
2,547.0,4,phase_2,green_pentagon,go,,,,go-1,1,,,,,,
0,0,4,phase_2,green_rhombus,stop,red,150.0,tracking-SSD,go-1,4,,,,,,
0,0,4,phase_2,blue_pentagon,stop,red,200.0,tracking-SSD,go-2,4,,,,,,
0,0,4,phase_2,green_rhombus,stop,purple,0.0,0-SSD,go-1,4,,,,,,
2,517.0,4,phase_2,green_pentagon,go,,,,go-1,1,,,,,,
1,537.0,4,phase_2,blue_circle,go,,,,go-2,1,,,,,,
2,536.0,4,phase_2,green_rhombus,go,,,,go-1,1,,,,,,
1,466.0,4,phase_2,green_triangle,go,,,,go-1,1,,,,,,
1,476.0,4,phase_2,green_triangle,go,,,,go-1,1,,,,,,
2,430.0,4,phase_2,green_rhombus,go,,,,go-1,1,,,,,,
2,619.0,4,phase_2,blue_pentagon,go,,,,go-2,1,,,,,,
2,503.0,4,phase_2,green_pentagon,go,,,,go-1,1,,,,,,
2,491.0,4,phase_2,green_pentagon,stop,red,250.0,tracking-SSD,go-1,3,,,,,,
0,0,4,phase_2,blue_triangle,stop,purple,0.0,0-SSD,go-2,4,,,,,,
0,0,4,phase_2,blue_circle,stop,purple,0.0,0-SSD,go-2,4,,,,,,
2,584.0,4,phase_2,blue_pentagon,go,,,,go-2,1,,,,,,
1,469.0,4,phase_2,blue_triangle,stop,red,200.0,tracking-SSD,go-2,3,,,,,,
0,0,4,phase_2,blue_rhombus,stop,purple,0.0,0-SSD,go-2,4,,,,,,
1,443.0,4,phase_2,blue_triangle,go,,,,go-2,1,,,,,,
2,610.0,4,phase_2,blue_rhombus,go,,,,go-2,1,,,,,,
1,441.0,4,phase_2,green_triangle,go,,,,go-1,1,,,,,,
2,528.0,4,phase_2,green_rhombus,go,,,,go-1,1,,,,,,
0,0,4,phase_2,green_pentagon,stop,purple,0.0,0-SSD,go-1,4,,,,,,
1,479.0,4,phase_2,blue_triangle,go,,,,go-2,1,,,,,,
2,533.0,4,phase_2,green_rhombus,go,,,,go-1,1,,,,,,
2,497.0,4,phase_2,green_pentagon,go,,,,go-1,1,,,,,,
0,0,4,phase_2,blue_circle,stop,purple,0.0,0-SSD,go-2,4,,,,,,
0,0,4,phase_2,green_rhombus,stop,purple,0.0,0-SSD,go-1,4,,,,,,
1,546.0,4,phase_2,blue_triangle,go,,,,go-2,1,,,,,,
0,0,4,phase_2,green_circle,stop,purple,0.0,0-SSD,go-1,4,,,,,,
2,587.0,4,phase_2,blue_rhombus,go,,,,go-2,1,,,,,,
1,360.0,4,phase_2,green_triangle,stop,red,150.0,tracking-SSD,go-1,3,,,,,,
0,0,4,phase_2,blue_circle,stop,red,100.0,tracking-SSD,go-2,4,,,,,,
2,525.0,4,phase_2,blue_triangle,go,,,,go-2,2,,,,,,
1,612.0,4,phase_2,green_circle,go,,,,go-1,1,,,,,,
1,544.0,5,phase_2,green_circle,go,,,,go-1,1,,,,,,
1,609.0,5,phase_2,green_triangle,go,,,,go-1,1,,,,,,
1,506.0,5,phase_2,green_triangle,go,,,,go-1,1,,,,,,
1,413.0,5,phase_2,green_triangle,go,,,,go-1,1,,,,,,
1,568.0,5,phase_2,blue_circle,go,,,,go-2,1,,,,,,
0,0,5,phase_2,blue_circle,stop,purple,0.0,0-SSD,go-2,4,,,,,,
0,0,5,phase_2,blue_triangle,stop,red,150.0,tracking-SSD,go-2,4,,,,,,
1,594.0,5,phase_2,green_circle,go,,,,go-1,1,,,,,,
2,591.0,5,phase_2,green_rhombus,go,,,,go-1,1,,,,,,
2,623.0,5,phase_2,blue_pentagon,go,,,,go-2,1,,,,,,
2,553.0,5,phase_2,blue_rhombus,go,,,,go-2,1,,,,,,
2,651.0,5,phase_2,blue_rhombus,go,,,,go-2,1,,,,,,
2,536.0,5,phase_2,blue_pentagon,go,,,,go-2,1,,,,,,
0,0,5,phase_2,green_rhombus,stop,red,200.0,tracking-SSD,go-1,4,,,,,,
1,723.0,5,phase_2,blue_triangle,go,,,,go-2,1,,,,,,
1,473.0,5,phase_2,green_triangle,go,,,,go-1,1,,,,,,
1,605.0,5,phase_2,green_circle,go,,,,go-1,1,,,,,,
2,558.0,5,phase_2,green_rhombus,go,,,,go-1,1,,,,,,
2,512.0,5,phase_2,green_pentagon,go,,,,go-1,1,,,,,,
1,635.0,5,phase_2,blue_circle,go,,,,go-2,1,,,,,,
0,0,5,phase_2,blue_rhombus,stop,purple,0.0,0-SSD,go-2,4,,,,,,
0,0,5,phase_2,blue_triangle,stop,purple,0.0,0-SSD,go-2,4,,,,,,
1,514.0,5,phase_2,green_circle,go,,,,go-1,1,,,,,,
0,0,5,phase_2,green_rhombus,stop,red,250.0,tracking-SSD,go-1,4,,,,,,
1,600.0,5,phase_2,blue_triangle,go,,,,go-2,1,,,,,,
2,620.0,5,phase_2,blue_pentagon,go,,,,go-2,1,,,,,,
2,516.0,5,phase_2,blue_pentagon,go,,,,go-2,1,,,,,,
2,637.0,5,phase_2,green_rhombus,go,,,,go-1,1,,,,,,
2,522.0,5,phase_2,blue_pentagon,go,,,,go-2,1,,,,,,
2,521.0,5,phase_2,blue_pentagon,go,,,,go-2,1,,,,,,
0,0,5,phase_2,green_pentagon,stop,purple,0.0,0-SSD,go-1,4,,,,,,
0,0,5,phase_2,green_triangle,stop,purple,0.0,0-SSD,go-1,4,,,,,,
0,0,5,phase_2,green_circle,stop,purple,0.0,0-SSD,go-1,4,,,,,,
2,601.0,5,phase_2,green_rhombus,go,,,,go-1,1,,,,,,
2,554.0,5,phase_2,blue_pentagon,go,,,,go-2,1,,,,,,
1,405.0,5,phase_2,blue_triangle,go,,,,go-2,1,,,,,,
2,537.0,5,phase_2,blue_rhombus,stop,red,300.0,tracking-SSD,go-2,3,,,,,,
2,512.0,5,phase_2,blue_rhombus,go,,,,go-2,1,,,,,,
1,420.0,5,phase_2,blue_triangle,stop,red,250.0,tracking-SSD,go-2,3,,,,,,
1,542.0,5,phase_2,green_circle,go,,,,go-1,1,,,,,,
2,584.0,5,phase_2,green_pentagon,go,,,,go-1,1,,,,,,
0,0,5,phase_2,blue_circle,stop,purple,0.0,0-SSD,go-2,4,,,,,,
0,0,5,phase_2,green_pentagon,stop,purple,0.0,0-SSD,go-1,4,,,,,,
1,542.0,5,phase_2,blue_circle,go,,,,go-2,1,,,,,,
1,498.0,5,phase_2,blue_triangle,stop,red,200.0,tracking-SSD,go-2,3,,,,,,
1,495.0,5,phase_2,green_circle,go,,,,go-1,1,,,,,,
0,0,5,phase_2,green_pentagon,stop,red,150.0,tracking-SSD,go-1,4,,,,,,
0,0,5,phase_2,green_rhombus,stop,red,200.0,tracking-SSD,go-1,4,,,,,,
2,576.0,6,phase_2,blue_pentagon,go,,,,go-2,1,,,,,,
2,586.0,6,phase_2,green_rhombus,go,,,,go-1,1,,,,,,
1,538.0,6,phase_2,green_circle,go,,,,go-1,1,,,,,,
0,0,6,phase_2,blue_circle,stop,purple,0.0,0-SSD,go-2,4,,,,,,
2,589.0,6,phase_2,green_pentagon,go,,,,go-1,1,,,,,,
1,552.0,6,phase_2,blue_circle,go,,,,go-2,1,,,,,,
2,652.0,6,phase_2,green_pentagon,go,,,,go-1,1,,,,,,
2,492.0,6,phase_2,blue_pentagon,go,,,,go-2,1,,,,,,
1,433.0,6,phase_2,green_triangle,go,,,,go-1,1,,,,,,
1,409.0,6,phase_2,blue_triangle,go,,,,go-2,1,,,,,,
2,485.0,6,phase_2,green_pentagon,go,,,,go-1,1,,,,,,
2,504.0,6,phase_2,green_pentagon,go,,,,go-1,1,,,,,,
1,412.0,6,phase_2,green_triangle,go,,,,go-1,1,,,,,,
1,600.0,6,phase_2,green_circle,go,,,,go-1,1,,,,,,
2,733.0,6,phase_2,blue_rhombus,go,,,,go-2,1,,,,,,
1,461.0,6,phase_2,blue_triangle,stop,red,250.0,tracking-SSD,go-2,3,,,,,,
1,391.0,6,phase_2,blue_triangle,stop,red,200.0,tracking-SSD,go-2,3,,,,,,
1,377.0,6,phase_2,blue_triangle,go,,,,go-2,1,,,,,,
2,577.0,6,phase_2,blue_rhombus,go,,,,go-2,1,,,,,,
2,530.0,6,phase_2,green_pentagon,go,,,,go-1,1,,,,,,
0,0,6,phase_2,blue_pentagon,stop,red,150.0,tracking-SSD,go-2,4,,,,,,
2,490.0,6,phase_2,blue_triangle,go,,,,go-2,2,,,,,,
2,453.0,6,phase_2,green_circle,go,,,,go-1,2,,,,,,
0,0,6,phase_2,blue_rhombus,stop,purple,0.0,0-SSD,go-2,4,,,,,,
1,505.0,6,phase_2,blue_circle,go,,,,go-2,1,,,,,,
0,0,6,phase_2,green_rhombus,stop,purple,0.0,0-SSD,go-1,4,,,,,,
2,624.0,6,phase_2,blue_rhombus,go,,,,go-2,1,,,,,,
1,587.0,6,phase_2,green_circle,go,,,,go-1,1,,,,,,
1,438.0,6,phase_2,blue_triangle,go,,,,go-2,1,,,,,,
0,0,6,phase_2,green_rhombus,stop,purple,0.0,0-SSD,go-1,4,,,,,,
1,401.0,6,phase_2,green_circle,go,,,,go-1,1,,,,,,
1,455.0,6,phase_2,green_circle,stop,red,200.0,tracking-SSD,go-1,3,,,,,,
0,0,6,phase_2,green_rhombus,stop,purple,0.0,0-SSD,go-1,4,,,,,,
1,483.0,6,phase_2,green_circle,go,,,,go-1,1,,,,,,
0,0,6,phase_2,blue_pentagon,stop,purple,0.0,0-SSD,go-2,4,,,,,,
1,446.0,6,phase_2,blue_circle,go,,,,go-2,1,,,,,,
2,588.0,6,phase_2,blue_pentagon,go,,,,go-2,1,,,,,,
1,576.0,6,phase_2,blue_triangle,go,,,,go-2,1,,,,,,
0,0,6,phase_2,green_rhombus,stop,purple,0.0,0-SSD,go-1,4,,,,,,
2,515.0,6,phase_2,green_pentagon,go,,,,go-1,1,,,,,,
0,0,6,phase_2,blue_triangle,stop,purple,0.0,0-SSD,go-2,4,,,,,,
1,522.0,6,phase_2,blue_circle,stop,red,150.0,tracking-SSD,go-2,3,,,,,,
0,0,6,phase_2,green_triangle,stop,red,100.0,tracking-SSD,go-1,4,,,,,,
1,358.0,6,phase_2,blue_triangle,go,,,,go-2,1,,,,,,
1,502.0,6,phase_2,blue_rhombus,go,,,,go-2,2,,,,,,
2,533.0,6,phase_2,green_rhombus,stop,red,150.0,tracking-SSD,go-1,3,,,,,,
0,0,6,phase_2,green_pentagon,stop,red,100.0,tracking-SSD,go-1,4,,,,,,
2,551.0,6,phase_2,green_rhombus,go,,,,go-1,1,,,,,,
0,0,7,phase_2,green_pentagon,stop,purple,0.0,0-SSD,go-1,4,,,,,,
2,452.0,7,phase_2,green_pentagon,go,,,,go-1,1,,,,,,
1,551.0,7,phase_2,green_circle,go,,,,go-1,1,,,,,,
1,458.0,7,phase_2,blue_circle,go,,,,go-2,1,,,,,,
2,557.0,7,phase_2,blue_triangle,go,,,,go-2,2,,,,,,
2,476.0,7,phase_2,green_pentagon,go,,,,go-1,1,,,,,,
1,372.0,7,phase_2,blue_pentagon,stop,red,150.0,tracking-SSD,go-2,3,,,,,,
0,0,7,phase_2,blue_triangle,stop,purple,0.0,0-SSD,go-2,4,,,,,,
1,491.0,7,phase_2,green_triangle,go,,,,go-1,1,,,,,,
0,0,7,phase_2,blue_triangle,stop,purple,0.0,0-SSD,go-2,4,,,,,,
1,486.0,7,phase_2,green_circle,go,,,,go-1,1,,,,,,
2,483.0,7,phase_2,green_rhombus,go,,,,go-1,1,,,,,,
0,0,7,phase_2,green_circle,stop,red,100.0,tracking-SSD,go-1,4,,,,,,
0,0,7,phase_2,green_pentagon,stop,purple,0.0,0-SSD,go-1,4,,,,,,
2,656.0,7,phase_2,blue_pentagon,go,,,,go-2,1,,,,,,
0,0,7,phase_2,green_triangle,stop,purple,0.0,0-SSD,go-1,4,,,,,,
1,360.0,7,phase_2,blue_rhombus,go,,,,go-2,2,,,,,,
1,561.0,7,phase_2,green_circle,go,,,,go-1,1,,,,,,
1,593.0,7,phase_2,blue_circle,go,,,,go-2,1,,,,,,
1,410.0,7,phase_2,blue_circle,go,,,,go-2,1,,,,,,
2,654.0,7,phase_2,green_rhombus,go,,,,go-1,1,,,,,,
0,0,7,phase_2,blue_rhombus,stop,red,150.0,tracking-SSD,go-2,4,,,,,,
1,515.0,7,phase_2,blue_triangle,go,,,,go-2,1,,,,,,
2,625.0,7,phase_2,blue_rhombus,go,,,,go-2,1,,,,,,
0,0,7,phase_2,blue_pentagon,stop,red,200.0,tracking-SSD,go-2,4,,,,,,
1,552.0,7,phase_2,green_circle,go,,,,go-1,1,,,,,,
2,608.0,7,phase_2,green_rhombus,go,,,,go-1,1,,,,,,
1,369.0,7,phase_2,blue_rhombus,go,,,,go-2,2,,,,,,
2,558.0,7,phase_2,blue_pentagon,go,,,,go-2,1,,,,,,
2,466.0,7,phase_2,blue_pentagon,go,,,,go-2,1,,,,,,
1,385.0,7,phase_2,blue_triangle,go,,,,go-2,1,,,,,,
2,539.0,7,phase_2,blue_rhombus,go,,,,go-2,1,,,,,,
1,424.0,7,phase_2,blue_triangle,go,,,,go-2,1,,,,,,
2,636.0,7,phase_2,green_rhombus,stop,red,250.0,tracking-SSD,go-1,3,,,,,,
1,521.0,7,phase_2,blue_circle,stop,red,200.0,tracking-SSD,go-2,3,,,,,,
2,531.0,7,phase_2,green_pentagon,go,,,,go-1,1,,,,,,
2,663.0,7,phase_2,green_circle,go,,,,go-1,2,,,,,,
1,1504.0,7,phase_2,green_rhombus,stop,red,150.0,tracking-SSD,go-1,3,,,,,,
1,580.0,7,phase_2,green_circle,go,,,,go-1,1,,,,,,
0,0,7,phase_2,blue_circle,stop,purple,0.0,0-SSD,go-2,4,,,,,,
1,395.0,7,phase_2,green_pentagon,go,,,,go-1,2,,,,,,
2,483.0,7,phase_2,green_rhombus,go,,,,go-1,1,,,,,,
1,492.0,7,phase_2,blue_triangle,go,,,,go-2,1,,,,,,
1,1018.0,7,phase_2,green_pentagon,stop,red,100.0,tracking-SSD,go-1,3,,,,,,
1,430.0,7,phase_2,blue_triangle,go,,,,go-2,1,,,,,,
0,0,7,phase_2,green_triangle,stop,purple,0.0,0-SSD,go-1,4,,,,,,
2,470.0,7,phase_2,green_rhombus,go,,,,go-1,1,,,,,,
0,0,7,phase_2,blue_triangle,stop,purple,0.0,0-SSD,go-2,4,,,,,,
0,0,8,phase_2,green_circle,stop,purple,0.0,0-SSD,go-1,4,,,,,,
0,0,8,phase_2,green_pentagon,stop,purple,0.0,0-SSD,go-1,4,,,,,,
1,460.0,8,phase_2,blue_triangle,go,,,,go-2,1,,,,,,
0,0,8,phase_2,blue_rhombus,stop,red,50.0,tracking-SSD,go-2,4,,,,,,
1,378.0,8,phase_2,green_pentagon,go,,,,go-1,2,,,,,,
0,0,8,phase_2,green_triangle,stop,purple,0.0,0-SSD,go-1,4,,,,,,
2,643.0,8,phase_2,green_pentagon,go,,,,go-1,1,,,,,,
0,0,8,phase_2,blue_pentagon,stop,red,100.0,tracking-SSD,go-2,4,,,,,,
1,324.0,8,phase_2,green_rhombus,go,,,,go-1,2,,,,,,
2,467.0,8,phase_2,blue_pentagon,stop,red,150.0,tracking-SSD,go-2,3,,,,,,
0,0,8,phase_2,green_rhombus,stop,red,100.0,tracking-SSD,go-1,4,,,,,,
2,529.0,8,phase_2,green_rhombus,go,,,,go-1,1,,,,,,
0,0,8,phase_2,green_circle,stop,purple,0.0,0-SSD,go-1,4,,,,,,
2,457.0,8,phase_2,blue_circle,go,,,,go-2,2,,,,,,
1,377.0,8,phase_2,green_circle,go,,,,go-1,1,,,,,,
0,0,8,phase_2,blue_pentagon,stop,purple,0.0,0-SSD,go-2,4,,,,,,
2,462.0,8,phase_2,blue_rhombus,go,,,,go-2,1,,,,,,
1,471.0,8,phase_2,blue_circle,go,,,,go-2,1,,,,,,
2,593.0,8,phase_2,green_pentagon,go,,,,go-1,1,,,,,,
1,366.0,8,phase_2,green_pentagon,stop,red,150.0,tracking-SSD,go-1,3,,,,,,
1,351.0,8,phase_2,blue_triangle,go,,,,go-2,1,,,,,,
1,450.0,8,phase_2,green_triangle,go,,,,go-1,1,,,,,,
0,0,8,phase_2,blue_circle,stop,red,100.0,tracking-SSD,go-2,4,,,,,,
1,468.0,8,phase_2,green_triangle,go,,,,go-1,1,,,,,,
1,375.0,8,phase_2,blue_triangle,go,,,,go-2,1,,,,,,
0,0,8,phase_2,blue_rhombus,stop,purple,0.0,0-SSD,go-2,4,,,,,,
1,426.0,8,phase_2,green_rhombus,go,,,,go-1,2,,,,,,
0,0,8,phase_2,blue_rhombus,stop,purple,0.0,0-SSD,go-2,4,,,,,,
1,511.0,8,phase_2,green_circle,go,,,,go-1,1,,,,,,
1,486.0,8,phase_2,green_triangle,stop,red,150.0,tracking-SSD,go-1,3,,,,,,
1,394.0,8,phase_2,blue_triangle,go,,,,go-2,1,,,,,,
1,560.0,8,phase_2,blue_circle,go,,,,go-2,1,,,,,,
2,546.0,8,phase_2,blue_pentagon,go,,,,go-2,1,,,,,,
2,532.0,8,phase_2,blue_circle,go,,,,go-2,2,,,,,,
1,451.0,8,phase_2,green_triangle,go,,,,go-1,1,,,,,,
0,0,8,phase_2,blue_rhombus,stop,purple,0.0,0-SSD,go-2,4,,,,,,
1,446.0,8,phase_2,green_circle,go,,,,go-1,1,,,,,,
0,0,8,phase_2,green_pentagon,stop,red,100.0,tracking-SSD,go-1,4,,,,,,
1,362.0,8,phase_2,blue_triangle,go,,,,go-2,1,,,,,,
1,360.0,8,phase_2,blue_triangle,go,,,,go-2,1,,,,,,
1,469.0,8,phase_2,green_rhombus,go,,,,go-1,2,,,,,,
1,433.0,8,phase_2,blue_triangle,go,,,,go-2,1,,,,,,
1,509.0,8,phase_2,green_rhombus,go,,,,go-1,2,,,,,,
1,484.0,8,phase_2,green_circle,go,,,,go-1,1,,,,,,
1,494.0,8,phase_2,blue_rhombus,go,,,,go-2,2,,,,,,
2,592.0,8,phase_2,blue_pentagon,go,,,,go-2,1,,,,,,
2,556.0,8,phase_2,green_pentagon,go,,,,go-1,1,,,,,,
1,486.0,8,phase_2,blue_circle,go,,,,go-2,1,,,,,,
1,487.0,9,phase_2,green_circle,go,,,,go-1,1,,,,,,
0,0,9,phase_2,blue_pentagon,stop,purple,0.0,0-SSD,go-2,4,,,,,,
1,427.0,9,phase_2,green_rhombus,go,,,,go-1,2,,,,,,
0,0,9,phase_2,blue_circle,stop,purple,0.0,0-SSD,go-2,4,,,,,,
1,467.0,9,phase_2,blue_triangle,go,,,,go-2,1,,,,,,
2,611.0,9,phase_2,blue_rhombus,go,,,,go-2,1,,,,,,
1,485.0,9,phase_2,blue_triangle,go,,,,go-2,1,,,,,,
1,605.0,9,phase_2,green_circle,go,,,,go-1,1,,,,,,
1,490.0,9,phase_2,green_triangle,go,,,,go-1,1,,,,,,
1,499.0,9,phase_2,blue_triangle,go,,,,go-2,1,,,,,,
2,541.0,9,phase_2,blue_pentagon,stop,red,150.0,tracking-SSD,go-2,3,,,,,,
2,562.0,9,phase_2,blue_rhombus,go,,,,go-2,1,,,,,,
0,0,9,phase_2,green_pentagon,stop,red,100.0,tracking-SSD,go-1,4,,,,,,
1,590.0,9,phase_2,blue_circle,go,,,,go-2,1,,,,,,
0,0,9,phase_2,green_pentagon,stop,purple,0.0,0-SSD,go-1,4,,,,,,
0,0,9,phase_2,green_pentagon,stop,red,150.0,tracking-SSD,go-1,4,,,,,,
0,0,9,phase_2,blue_circle,stop,red,200.0,tracking-SSD,go-2,4,,,,,,
2,683.0,9,phase_2,green_pentagon,go,,,,go-1,1,,,,,,
0,0,9,phase_2,blue_triangle,stop,purple,0.0,0-SSD,go-2,4,,,,,,
1,565.0,9,phase_2,green_circle,go,,,,go-1,1,,,,,,
2,473.0,9,phase_2,blue_pentagon,go,,,,go-2,1,,,,,,
1,584.0,9,phase_2,green_rhombus,go,,,,go-1,2,,,,,,
2,548.0,9,phase_2,blue_rhombus,go,,,,go-2,1,,,,,,
1,489.0,9,phase_2,blue_triangle,go,,,,go-2,1,,,,,,
2,576.0,9,phase_2,green_pentagon,go,,,,go-1,1,,,,,,
0,0,9,phase_2,blue_triangle,stop,purple,0.0,0-SSD,go-2,4,,,,,,
2,639.0,9,phase_2,blue_rhombus,go,,,,go-2,1,,,,,,
1,468.0,9,phase_2,green_triangle,go,,,,go-1,1,,,,,,
1,600.0,9,phase_2,green_circle,stop,red,250.0,tracking-SSD,go-1,3,,,,,,
0,0,9,phase_2,green_circle,stop,purple,0.0,0-SSD,go-1,4,,,,,,
1,517.0,9,phase_2,blue_triangle,go,,,,go-2,1,,,,,,
1,581.0,9,phase_2,blue_triangle,stop,red,200.0,tracking-SSD,go-2,3,,,,,,
1,703.0,9,phase_2,green_circle,go,,,,go-1,1,,,,,,
2,677.0,9,phase_2,green_rhombus,go,,,,go-1,1,,,,,,
2,573.0,9,phase_2,green_rhombus,go,,,,go-1,1,,,,,,
0,0,9,phase_2,green_rhombus,stop,purple,0.0,0-SSD,go-1,4,,,,,,
0,0,9,phase_2,green_pentagon,stop,purple,0.0,0-SSD,go-1,4,,,,,,
0,0,9,phase_2,blue_pentagon,stop,red,150.0,tracking-SSD,go-2,4,,,,,,
2,609.0,9,phase_2,blue_rhombus,go,,,,go-2,1,,,,,,
1,516.0,9,phase_2,green_circle,go,,,,go-1,1,,,,,,
2,580.0,9,phase_2,blue_pentagon,go,,,,go-2,1,,,,,,
1,567.0,9,phase_2,blue_circle,go,,,,go-2,1,,,,,,
2,621.0,9,phase_2,blue_rhombus,go,,,,go-2,1,,,,,,
1,472.0,9,phase_2,green_circle,go,,,,go-1,1,,,,,,
1,458.0,9,phase_2,green_triangle,go,,,,go-1,1,,,,,,
2,581.0,9,phase_2,blue_pentagon,go,,,,go-2,1,,,,,,
2,568.0,9,phase_2,green_rhombus,go,,,,go-1,1,,,,,,
1,499.0,9,phase_2,green_triangle,stop,red,200.0,tracking-SSD,go-1,3,,,,,,
0,0,10,phase_2,green_pentagon,stop,purple,0.0,0-SSD,go-1,4,,,,,,
1,507.0,10,phase_2,blue_triangle,go,,,,go-2,1,,,,,,
0,0,10,phase_2,green_pentagon,stop,purple,0.0,0-SSD,go-1,4,,,,,,
2,593.0,10,phase_2,green_pentagon,go,,,,go-1,1,,,,,,
1,511.0,10,phase_2,blue_triangle,go,,,,go-2,1,,,,,,
2,542.0,10,phase_2,green_pentagon,go,,,,go-1,1,,,,,,
1,483.0,10,phase_2,green_rhombus,go,,,,go-1,2,,,,,,
2,537.0,10,phase_2,green_pentagon,go,,,,go-1,1,,,,,,
2,467.0,10,phase_2,blue_pentagon,go,,,,go-2,1,,,,,,
1,543.0,10,phase_2,blue_circle,go,,,,go-2,1,,,,,,
1,833.0,10,phase_2,green_triangle,go,,,,go-1,1,,,,,,
1,493.0,10,phase_2,green_triangle,go,,,,go-1,1,,,,,,
0,0,10,phase_2,blue_rhombus,stop,red,150.0,tracking-SSD,go-2,4,,,,,,
1,500.0,10,phase_2,green_triangle,go,,,,go-1,1,,,,,,
1,577.0,10,phase_2,green_circle,go,,,,go-1,1,,,,,,
1,485.0,10,phase_2,green_circle,go,,,,go-1,1,,,,,,
2,482.0,10,phase_2,blue_pentagon,go,,,,go-2,1,,,,,,
1,548.0,10,phase_2,blue_rhombus,go,,,,go-2,2,,,,,,
0,0,10,phase_2,blue_circle,stop,purple,0.0,0-SSD,go-2,4,,,,,,
2,498.0,10,phase_2,blue_pentagon,go,,,,go-2,1,,,,,,
2,586.0,10,phase_2,blue_rhombus,stop,red,200.0,tracking-SSD,go-2,3,,,,,,
1,561.0,10,phase_2,green_circle,go,,,,go-1,1,,,,,,
0,0,10,phase_2,blue_rhombus,stop,purple,0.0,0-SSD,go-2,4,,,,,,
1,499.0,10,phase_2,blue_triangle,go,,,,go-2,1,,,,,,
2,621.0,10,phase_2,green_pentagon,go,,,,go-1,1,,,,,,
0,0,10,phase_2,green_rhombus,stop,red,150.0,tracking-SSD,go-1,4,,,,,,
1,492.0,10,phase_2,blue_circle,go,,,,go-2,1,,,,,,
1,692.0,10,phase_2,green_triangle,go,,,,go-1,1,,,,,,
2,689.0,10,phase_2,blue_rhombus,go,,,,go-2,1,,,,,,
0,0,10,phase_2,green_triangle,stop,red,200.0,tracking-SSD,go-1,4,,,,,,
1,550.0,10,phase_2,blue_circle,go,,,,go-2,1,,,,,,
2,592.0,10,phase_2,green_pentagon,go,,,,go-1,1,,,,,,
0,0,10,phase_2,green_rhombus,stop,purple,0.0,0-SSD,go-1,4,,,,,,
1,575.0,10,phase_2,green_triangle,stop,red,250.0,tracking-SSD,go-1,3,,,,,,
2,640.0,10,phase_2,blue_rhombus,go,,,,go-2,1,,,,,,
0,0,10,phase_2,green_rhombus,stop,red,200.0,tracking-SSD,go-1,4,,,,,,
0,0,10,phase_2,green_triangle,stop,purple,0.0,0-SSD,go-1,4,,,,,,
1,488.0,10,phase_2,green_triangle,go,,,,go-1,1,,,,,,
2,619.0,10,phase_2,green_pentagon,go,,,,go-1,1,,,,,,
0,0,10,phase_2,blue_circle,stop,purple,0.0,0-SSD,go-2,4,,,,,,
0,0,10,phase_2,blue_rhombus,stop,red,250.0,tracking-SSD,go-2,4,,,,,,
0,0,10,phase_2,blue_rhombus,stop,purple,0.0,0-SSD,go-2,4,,,,,,
1,496.0,10,phase_2,blue_triangle,go,,,,go-2,1,,,,,,
2,594.0,10,phase_2,blue_circle,go,,,,go-2,2,,,,,,
1,548.0,10,phase_2,blue_circle,go,,,,go-2,1,,,,,,
2,613.0,10,phase_2,blue_pentagon,stop,red,300.0,tracking-SSD,go-2,3,,,,,,
1,521.0,10,phase_2,blue_circle,go,,,,go-2,1,,,,,,
1,496.0,10,phase_2,green_circle,go,,,,go-1,1,,,,,,
2,579.0,11,phase_2,blue_pentagon,go,,,,go-2,1,,,,,,
2,531.0,11,phase_2,green_rhombus,go,,,,go-1,1,,,,,,
2,528.0,11,phase_2,green_rhombus,go,,,,go-1,1,,,,,,
2,504.0,11,phase_2,blue_pentagon,stop,red,250.0,tracking-SSD,go-2,3,,,,,,
1,548.0,11,phase_2,green_triangle,go,,,,go-1,1,,,,,,
2,578.0,11,phase_2,green_pentagon,go,,,,go-1,1,,,,,,
2,633.0,11,phase_2,blue_rhombus,go,,,,go-2,1,,,,,,
1,541.0,11,phase_2,green_circle,stop,red,200.0,tracking-SSD,go-1,3,,,,,,
2,572.0,11,phase_2,green_circle,go,,,,go-1,2,,,,,,
2,547.0,11,phase_2,blue_pentagon,go,,,,go-2,1,,,,,,
2,476.0,11,phase_2,blue_pentagon,go,,,,go-2,1,,,,,,
1,496.0,11,phase_2,green_triangle,go,,,,go-1,1,,,,,,
2,549.0,11,phase_2,green_pentagon,go,,,,go-1,1,,,,,,
1,423.0,11,phase_2,green_triangle,go,,,,go-1,1,,,,,,
0,0,11,phase_2,green_triangle,stop,purple,0.0,0-SSD,go-1,4,,,,,,
1,475.0,11,phase_2,blue_triangle,stop,red,150.0,tracking-SSD,go-2,3,,,,,,
1,426.0,11,phase_2,blue_triangle,go,,,,go-2,1,,,,,,
0,0,11,phase_2,green_triangle,stop,red,100.0,tracking-SSD,go-1,4,,,,,,
1,567.0,11,phase_2,blue_circle,go,,,,go-2,1,,,,,,
2,576.0,11,phase_2,green_pentagon,go,,,,go-1,1,,,,,,
2,598.0,11,phase_2,green_rhombus,go,,,,go-1,1,,,,,,
1,437.0,11,phase_2,blue_circle,go,,,,go-2,1,,,,,,
2,895.0,11,phase_2,blue_rhombus,go,,,,go-2,1,,,,,,
0,0,11,phase_2,blue_triangle,stop,red,150.0,tracking-SSD,go-2,4,,,,,,
0,0,11,phase_2,blue_triangle,go,,,,go-2,2,,,,,,
1,618.0,11,phase_2,blue_circle,go,,,,go-2,1,,,,,,
0,0,11,phase_2,green_triangle,stop,purple,0.0,0-SSD,go-1,4,,,,,,
1,535.0,11,phase_2,green_circle,stop,red,200.0,tracking-SSD,go-1,3,,,,,,
1,612.0,11,phase_2,green_rhombus,go,,,,go-1,2,,,,,,
0,0,11,phase_2,blue_rhombus,stop,purple,0.0,0-SSD,go-2,4,,,,,,
2,529.0,11,phase_2,blue_pentagon,go,,,,go-2,1,,,,,,
0,0,11,phase_2,green_pentagon,stop,red,150.0,tracking-SSD,go-1,4,,,,,,
0,0,11,phase_2,blue_rhombus,stop,red,200.0,tracking-SSD,go-2,4,,,,,,
2,657.0,11,phase_2,green_rhombus,go,,,,go-1,1,,,,,,
1,496.0,11,phase_2,blue_circle,go,,,,go-2,1,,,,,,
0,0,11,phase_2,green_pentagon,stop,purple,0.0,0-SSD,go-1,4,,,,,,
1,504.0,11,phase_2,blue_triangle,go,,,,go-2,1,,,,,,
1,512.0,11,phase_2,blue_circle,go,,,,go-2,1,,,,,,
0,0,11,phase_2,blue_circle,stop,purple,0.0,0-SSD,go-2,4,,,,,,
1,484.0,11,phase_2,blue_circle,go,,,,go-2,1,,,,,,
1,448.0,11,phase_2,green_rhombus,go,,,,go-1,2,,,,,,
0,0,11,phase_2,blue_circle,stop,purple,0.0,0-SSD,go-2,4,,,,,,
2,488.0,11,phase_2,green_rhombus,go,,,,go-1,1,,,,,,
2,654.0,11,phase_2,green_rhombus,go,,,,go-1,1,,,,,,
1,516.0,11,phase_2,green_triangle,go,,,,go-1,1,,,,,,
0,0,11,phase_2,blue_pentagon,stop,purple,0.0,0-SSD,go-2,4,,,,,,
0,0,11,phase_2,green_circle,stop,purple,0.0,0-SSD,go-1,4,,,,,,
2,823.0,11,phase_2,blue_pentagon,go,,,,go-2,1,,,,,,
2,600.0,12,phase_2,green_rhombus,go,,,,go-1,1,,,,,,
1,406.0,12,phase_2,green_triangle,stop,red,250.0,tracking-SSD,go-1,3,,,,,,
0,0,12,phase_2,green_rhombus,stop,purple,0.0,0-SSD,go-1,4,,,,,,
1,525.0,12,phase_2,green_circle,go,,,,go-1,1,,,,,,
2,523.0,12,phase_2,green_rhombus,go,,,,go-1,1,,,,,,
0,0,12,phase_2,green_triangle,stop,purple,0.0,0-SSD,go-1,4,,,,,,
0,0,12,phase_2,blue_pentagon,stop,purple,0.0,0-SSD,go-2,4,,,,,,
1,458.0,12,phase_2,blue_triangle,go,,,,go-2,1,,,,,,
1,455.0,12,phase_2,blue_triangle,go,,,,go-2,1,,,,,,
1,476.0,12,phase_2,blue_circle,go,,,,go-2,1,,,,,,
1,485.0,12,phase_2,green_rhombus,go,,,,go-1,2,,,,,,
2,470.0,12,phase_2,green_pentagon,go,,,,go-1,1,,,,,,
1,535.0,12,phase_2,green_circle,go,,,,go-1,1,,,,,,
1,487.0,12,phase_2,blue_circle,go,,,,go-2,1,,,,,,
2,575.0,12,phase_2,blue_rhombus,go,,,,go-2,1,,,,,,
2,708.0,12,phase_2,blue_rhombus,go,,,,go-2,1,,,,,,
0,0,12,phase_2,blue_circle,stop,red,200.0,tracking-SSD,go-2,4,,,,,,
1,961.0,12,phase_2,blue_triangle,go,,,,go-2,1,,,,,,
1,497.0,12,phase_2,green_circle,go,,,,go-1,1,,,,,,
2,607.0,12,phase_2,blue_pentagon,go,,,,go-2,1,,,,,,
0,0,12,phase_2,blue_pentagon,stop,purple,0.0,0-SSD,go-2,4,,,,,,
2,580.0,12,phase_2,blue_rhombus,go,,,,go-2,1,,,,,,
1,431.0,12,phase_2,blue_triangle,go,,,,go-2,1,,,,,,
2,563.0,12,phase_2,green_pentagon,go,,,,go-1,1,,,,,,
1,426.0,12,phase_2,green_triangle,go,,,,go-1,1,,,,,,
2,513.0,12,phase_2,blue_rhombus,go,,,,go-2,1,,,,,,
0,0,12,phase_2,green_rhombus,stop,red,250.0,tracking-SSD,go-1,4,,,,,,
0,0,12,phase_2,green_pentagon,stop,purple,0.0,0-SSD,go-1,4,,,,,,
2,596.0,12,phase_2,green_rhombus,go,,,,go-1,1,,,,,,
1,483.0,12,phase_2,blue_circle,go,,,,go-2,1,,,,,,
2,502.0,12,phase_2,green_pentagon,go,,,,go-1,1,,,,,,
2,545.0,12,phase_2,blue_pentagon,stop,red,300.0,tracking-SSD,go-2,3,,,,,,
1,508.0,12,phase_2,green_triangle,go,,,,go-1,1,,,,,,
2,787.0,12,phase_2,green_circle,go,,,,go-1,2,,,,,,
1,515.0,12,phase_2,green_triangle,go,,,,go-1,1,,,,,,
2,614.0,12,phase_2,blue_rhombus,stop,red,250.0,tracking-SSD,go-2,3,,,,,,
1,522.0,12,phase_2,green_circle,go,,,,go-1,1,,,,,,
1,407.0,12,phase_2,blue_triangle,go,,,,go-2,1,,,,,,
1,393.0,12,phase_2,blue_triangle,go,,,,go-2,1,,,,,,
1,402.0,12,phase_2,green_triangle,stop,red,200.0,tracking-SSD,go-1,3,,,,,,
0,0,12,phase_2,blue_circle,stop,red,150.0,tracking-SSD,go-2,4,,,,,,
0,0,12,phase_2,green_pentagon,stop,red,200.0,tracking-SSD,go-1,4,,,,,,
0,0,12,phase_2,blue_pentagon,stop,purple,0.0,0-SSD,go-2,4,,,,,,
0,0,12,phase_2,green_circle,stop,purple,0.0,0-SSD,go-1,4,,,,,,
1,660.0,12,phase_2,blue_circle,go,,,,go-2,1,,,,,,
2,656.0,12,phase_2,green_pentagon,go,,,,go-1,1,,,,,,
0,0,12,phase_2,blue_pentagon,stop,purple,0.0,0-SSD,go-2,4,,,,,,
1,415.0,12,phase_2,blue_rhombus,go,,,,go-2,2,,,,,,
1,510.0,13,phase_2,blue_triangle,go,,,,go-2,1,,,,,,
2,597.0,13,phase_2,blue_pentagon,go,,,,go-2,1,,,,,,
2,538.0,13,phase_2,green_rhombus,go,,,,go-1,1,,,,,,
1,479.0,13,phase_2,green_circle,go,,,,go-1,1,,,,,,
1,488.0,13,phase_2,blue_circle,go,,,,go-2,1,,,,,,
1,496.0,13,phase_2,blue_rhombus,go,,,,go-2,2,,,,,,
2,572.0,13,phase_2,blue_triangle,go,,,,go-2,2,,,,,,
2,625.0,13,phase_2,blue_rhombus,stop,red,250.0,tracking-SSD,go-2,3,,,,,,
0,0,13,phase_2,green_triangle,stop,red,200.0,tracking-SSD,go-1,4,,,,,,
2,756.0,13,phase_2,green_rhombus,go,,,,go-1,1,,,,,,
1,494.0,13,phase_2,green_circle,go,,,,go-1,1,,,,,,
2,593.0,13,phase_2,green_rhombus,go,,,,go-1,1,,,,,,
2,568.0,13,phase_2,blue_rhombus,go,,,,go-2,1,,,,,,
1,408.0,13,phase_2,blue_triangle,go,,,,go-2,1,,,,,,
0,0,13,phase_2,green_triangle,stop,purple,0.0,0-SSD,go-1,4,,,,,,
0,0,13,phase_2,blue_pentagon,stop,purple,0.0,0-SSD,go-2,4,,,,,,
1,603.0,13,phase_2,blue_triangle,go,,,,go-2,1,,,,,,
1,555.0,13,phase_2,blue_circle,go,,,,go-2,1,,,,,,
1,497.0,13,phase_2,green_circle,go,,,,go-1,1,,,,,,
0,0,13,phase_2,blue_circle,stop,purple,0.0,0-SSD,go-2,4,,,,,,
1,447.0,13,phase_2,blue_circle,stop,red,250.0,tracking-SSD,go-2,3,,,,,,
0,0,13,phase_2,blue_circle,stop,red,200.0,tracking-SSD,go-2,4,,,,,,
1,790.0,13,phase_2,green_rhombus,go,,,,go-1,2,,,,,,
2,608.0,13,phase_2,blue_pentagon,go,,,,go-2,1,,,,,,
2,560.0,13,phase_2,blue_pentagon,go,,,,go-2,1,,,,,,
2,512.0,13,phase_2,green_pentagon,go,,,,go-1,1,,,,,,
0,0,13,phase_2,green_triangle,stop,purple,0.0,0-SSD,go-1,4,,,,,,
0,0,13,phase_2,green_circle,stop,purple,0.0,0-SSD,go-1,4,,,,,,
0,0,13,phase_2,blue_triangle,stop,purple,0.0,0-SSD,go-2,4,,,,,,
0,0,13,phase_2,blue_pentagon,stop,red,250.0,tracking-SSD,go-2,4,,,,,,
2,602.0,13,phase_2,green_pentagon,go,,,,go-1,1,,,,,,
2,531.0,13,phase_2,green_pentagon,stop,red,300.0,tracking-SSD,go-1,3,,,,,,
2,551.0,13,phase_2,blue_rhombus,go,,,,go-2,1,,,,,,
2,616.0,13,phase_2,green_rhombus,go,,,,go-1,1,,,,,,
1,467.0,13,phase_2,blue_triangle,go,,,,go-2,1,,,,,,
2,567.0,13,phase_2,green_pentagon,go,,,,go-1,1,,,,,,
2,497.0,13,phase_2,blue_pentagon,go,,,,go-2,1,,,,,,
1,561.0,13,phase_2,green_circle,go,,,,go-1,1,,,,,,
1,546.0,13,phase_2,green_triangle,go,,,,go-1,1,,,,,,
2,500.0,13,phase_2,green_pentagon,go,,,,go-1,1,,,,,,
1,396.0,13,phase_2,green_triangle,go,,,,go-1,1,,,,,,
1,449.0,13,phase_2,green_circle,stop,red,250.0,tracking-SSD,go-1,3,,,,,,
1,379.0,13,phase_2,green_circle,stop,red,200.0,tracking-SSD,go-1,3,,,,,,
2,612.0,13,phase_2,green_rhombus,go,,,,go-1,1,,,,,,
0,0,13,phase_2,blue_triangle,stop,purple,0.0,0-SSD,go-2,4,,,,,,
2,552.0,13,phase_2,blue_rhombus,go,,,,go-2,1,,,,,,
2,482.0,13,phase_2,blue_pentagon,go,,,,go-2,1,,,,,,
0,0,13,phase_2,green_rhombus,stop,purple,0.0,0-SSD,go-1,4,,,,,,
2,520.0,14,phase_2,green_rhombus,go,,,,go-1,1,,,,,,
2,575.0,14,phase_2,green_rhombus,go,,,,go-1,1,,,,,,
2,471.0,14,phase_2,blue_rhombus,go,,,,go-2,1,,,,,,
1,524.0,14,phase_2,blue_triangle,go,,,,go-2,1,,,,,,
1,386.0,14,phase_2,green_triangle,go,,,,go-1,1,,,,,,
1,429.0,14,phase_2,blue_triangle,go,,,,go-2,1,,,,,,
1,415.0,14,phase_2,green_triangle,go,,,,go-1,1,,,,,,
1,379.0,14,phase_2,green_triangle,stop,red,150.0,tracking-SSD,go-1,3,,,,,,
1,433.0,14,phase_2,green_rhombus,go,,,,go-1,2,,,,,,
1,475.0,14,phase_2,green_circle,go,,,,go-1,1,,,,,,
2,372.0,14,phase_2,blue_pentagon,go,,,,go-2,1,,,,,,
2,448.0,14,phase_2,blue_pentagon,stop,red,100.0,tracking-SSD,go-2,3,,,,,,
0,0,14,phase_2,blue_pentagon,stop,red,50.0,tracking-SSD,go-2,4,,,,,,
2,634.0,14,phase_2,blue_rhombus,go,,,,go-2,1,,,,,,
0,0,14,phase_2,blue_circle,stop,red,100.0,tracking-SSD,go-2,4,,,,,,
1,471.0,14,phase_2,blue_triangle,go,,,,go-2,1,,,,,,
1,423.0,14,phase_2,green_triangle,go,,,,go-1,1,,,,,,
2,433.0,14,phase_2,blue_circle,go,,,,go-2,2,,,,,,
1,340.0,14,phase_2,green_pentagon,stop,red,150.0,tracking-SSD,go-1,3,,,,,,
2,517.0,14,phase_2,green_pentagon,go,,,,go-1,1,,,,,,
1,459.0,14,phase_2,green_circle,go,,,,go-1,1,,,,,,
1,479.0,14,phase_2,blue_circle,go,,,,go-2,1,,,,,,
0,0,14,phase_2,green_triangle,stop,purple,0.0,0-SSD,go-1,4,,,,,,
0,0,14,phase_2,blue_circle,stop,purple,0.0,0-SSD,go-2,4,,,,,,
1,325.0,14,phase_2,blue_rhombus,go,,,,go-2,2,,,,,,
1,479.0,14,phase_2,blue_circle,go,,,,go-2,1,,,,,,
2,499.0,14,phase_2,green_circle,go,,,,go-1,2,,,,,,
1,441.0,14,phase_2,blue_triangle,go,,,,go-2,1,,,,,,
1,360.0,14,phase_2,green_circle,go,,,,go-1,1,,,,,,
1,481.0,14,phase_2,green_circle,go,,,,go-1,1,,,,,,
1,478.0,14,phase_2,blue_rhombus,go,,,,go-2,2,,,,,,
0,0,14,phase_2,green_rhombus,stop,red,100.0,tracking-SSD,go-1,4,,,,,,
0,0,14,phase_2,green_rhombus,stop,red,150.0,tracking-SSD,go-1,4,,,,,,
0,0,14,phase_2,blue_triangle,stop,purple,0.0,0-SSD,go-2,4,,,,,,
0,0,14,phase_2,blue_pentagon,stop,red,200.0,tracking-SSD,go-2,4,,,,,,
0,0,14,phase_2,blue_pentagon,stop,purple,0.0,0-SSD,go-2,4,,,,,,
1,384.0,14,phase_2,green_pentagon,go,,,,go-1,2,,,,,,
2,583.0,14,phase_2,blue_rhombus,go,,,,go-2,1,,,,,,
1,436.0,14,phase_2,green_triangle,go,,,,go-1,1,,,,,,
1,557.0,14,phase_2,blue_circle,go,,,,go-2,1,,,,,,
0,0,14,phase_2,green_triangle,stop,purple,0.0,0-SSD,go-1,4,,,,,,
2,574.0,14,phase_2,green_rhombus,go,,,,go-1,1,,,,,,
2,402.0,14,phase_2,blue_rhombus,go,,,,go-2,1,,,,,,
0,0,14,phase_2,blue_circle,stop,purple,0.0,0-SSD,go-2,4,,,,,,
0,0,14,phase_2,green_pentagon,stop,purple,0.0,0-SSD,go-1,4,,,,,,
0,0,14,phase_2,green_pentagon,stop,purple,0.0,0-SSD,go-1,4,,,,,,
2,494.0,14,phase_2,green_pentagon,go,,,,go-1,1,,,,,,
2,479.0,14,phase_2,blue_pentagon,go,,,,go-2,1,,,,,,
2,510.0,15,phase_2,green_pentagon,go,,,,go-1,1,,,,,,
2,609.0,15,phase_2,green_rhombus,go,,,,go-1,1,,,,,,
0,0,15,phase_2,green_circle,stop,purple,0.0,0-SSD,go-1,4,,,,,,
2,491.0,15,phase_2,blue_pentagon,go,,,,go-2,1,,,,,,
1,410.0,15,phase_2,blue_triangle,go,,,,go-2,1,,,,,,
0,0,15,phase_2,blue_triangle,stop,purple,0.0,0-SSD,go-2,4,,,,,,
2,516.0,15,phase_2,green_rhombus,go,,,,go-1,1,,,,,,
1,457.0,15,phase_2,green_circle,go,,,,go-1,1,,,,,,
2,556.0,15,phase_2,blue_rhombus,go,,,,go-2,1,,,,,,
1,432.0,15,phase_2,green_triangle,go,,,,go-1,1,,,,,,
2,452.0,15,phase_2,blue_pentagon,go,,,,go-2,1,,,,,,
0,0,15,phase_2,green_rhombus,stop,purple,0.0,0-SSD,go-1,4,,,,,,
1,615.0,15,phase_2,green_pentagon,stop,purple,0.0,0-SSD,go-1,3,,,,,,
1,477.0,15,phase_2,green_triangle,stop,red,250.0,tracking-SSD,go-1,3,,,,,,
1,509.0,15,phase_2,blue_triangle,go,,,,go-2,1,,,,,,
0,0,15,phase_2,green_pentagon,stop,red,200.0,tracking-SSD,go-1,4,,,,,,
0,0,15,phase_2,blue_rhombus,stop,red,250.0,tracking-SSD,go-2,4,,,,,,
0,0,15,phase_2,blue_rhombus,stop,red,300.0,tracking-SSD,go-2,4,,,,,,
2,656.0,15,phase_2,blue_pentagon,go,,,,go-2,1,,,,,,
0,0,15,phase_2,blue_triangle,stop,purple,0.0,0-SSD,go-2,4,,,,,,
1,461.0,15,phase_2,green_triangle,go,,,,go-1,1,,,,,,
1,593.0,15,phase_2,green_circle,go,,,,go-1,1,,,,,,
2,590.0,15,phase_2,green_pentagon,go,,,,go-1,1,,,,,,
1,497.0,15,phase_2,blue_circle,go,,,,go-2,1,,,,,,
1,461.0,15,phase_2,blue_triangle,stop,red,350.0,tracking-SSD,go-2,3,,,,,,
1,426.0,15,phase_2,green_triangle,stop,red,300.0,tracking-SSD,go-1,3,,,,,,
1,468.0,15,phase_2,blue_triangle,go,,,,go-2,1,,,,,,
2,623.0,15,phase_2,green_rhombus,go,,,,go-1,1,,,,,,
2,553.0,15,phase_2,blue_rhombus,go,,,,go-2,1,,,,,,
1,484.0,15,phase_2,green_circle,go,,,,go-1,1,,,,,,
2,504.0,15,phase_2,green_pentagon,go,,,,go-1,1,,,,,,
1,399.0,15,phase_2,green_rhombus,go,,,,go-1,2,,,,,,
1,532.0,15,phase_2,green_circle,go,,,,go-1,1,,,,,,
1,620.0,15,phase_2,blue_circle,go,,,,go-2,1,,,,,,
0,0,15,phase_2,blue_triangle,stop,purple,0.0,0-SSD,go-2,4,,,,,,
1,458.0,15,phase_2,blue_circle,go,,,,go-2,1,,,,,,
2,522.0,15,phase_2,blue_rhombus,go,,,,go-2,1,,,,,,
0,0,15,phase_2,green_rhombus,stop,purple,0.0,0-SSD,go-1,4,,,,,,
1,461.0,15,phase_2,blue_circle,go,,,,go-2,1,,,,,,
1,470.0,15,phase_2,green_rhombus,go,,,,go-1,2,,,,,,
1,572.0,15,phase_2,green_circle,go,,,,go-1,1,,,,,,
2,782.0,15,phase_2,blue_triangle,go,,,,go-2,2,,,,,,
2,532.0,15,phase_2,green_pentagon,go,,,,go-1,1,,,,,,
0,0,15,phase_2,blue_circle,stop,purple,0.0,0-SSD,go-2,4,,,,,,
2,550.0,15,phase_2,blue_pentagon,go,,,,go-2,1,,,,,,
2,503.0,15,phase_2,blue_pentagon,stop,red,250.0,tracking-SSD,go-2,3,,,,,,
2,487.0,15,phase_2,blue_pentagon,go,,,,go-2,1,,,,,,
0,0,15,phase_2,green_circle,stop,red,200.0,tracking-SSD,go-1,4,,,,,,
1,600.0,16,phase_2,blue_triangle,go,,,,go-2,1,,,,,,
2,732.0,16,phase_2,blue_pentagon,go,,,,go-2,1,,,,,,
1,572.0,16,phase_2,green_circle,stop,red,250.0,tracking-SSD,go-1,3,,,,,,
0,0,16,phase_2,green_rhombus,stop,purple,0.0,0-SSD,go-1,4,,,,,,
1,511.0,16,phase_2,green_circle,go,,,,go-1,1,,,,,,
0,0,16,phase_2,blue_rhombus,stop,purple,0.0,0-SSD,go-2,4,,,,,,
0,0,16,phase_2,blue_rhombus,stop,purple,0.0,0-SSD,go-2,4,,,,,,
1,468.0,16,phase_2,blue_circle,go,,,,go-2,1,,,,,,
1,544.0,16,phase_2,green_circle,stop,red,200.0,tracking-SSD,go-1,3,,,,,,
2,587.0,16,phase_2,blue_pentagon,go,,,,go-2,1,,,,,,
2,551.0,16,phase_2,blue_pentagon,go,,,,go-2,1,,,,,,
0,0,16,phase_2,green_triangle,stop,purple,0.0,0-SSD,go-1,4,,,,,,
0,0,16,phase_2,blue_triangle,stop,red,150.0,tracking-SSD,go-2,4,,,,,,
1,430.0,16,phase_2,green_triangle,go,,,,go-1,1,,,,,,
1,450.0,16,phase_2,green_triangle,go,,,,go-1,1,,,,,,
2,595.0,16,phase_2,blue_rhombus,go,,,,go-2,1,,,,,,
2,524.0,16,phase_2,blue_rhombus,go,,,,go-2,1,,,,,,
1,511.0,16,phase_2,blue_circle,go,,,,go-2,1,,,,,,
1,452.0,16,phase_2,green_circle,go,,,,go-1,1,,,,,,
2,495.0,16,phase_2,green_pentagon,go,,,,go-1,1,,,,,,
2,593.0,16,phase_2,green_pentagon,go,,,,go-1,1,,,,,,
1,511.0,16,phase_2,blue_circle,stop,red,200.0,tracking-SSD,go-2,3,,,,,,
1,475.0,16,phase_2,blue_circle,go,,,,go-2,1,,,,,,
0,0,16,phase_2,blue_pentagon,stop,purple,0.0,0-SSD,go-2,4,,,,,,
1,560.0,16,phase_2,blue_pentagon,go,,,,go-2,2,,,,,,
2,568.0,16,phase_2,green_pentagon,go,,,,go-1,1,,,,,,
1,477.0,16,phase_2,blue_triangle,go,,,,go-2,1,,,,,,
1,541.0,16,phase_2,blue_circle,go,,,,go-2,1,,,,,,
0,0,16,phase_2,green_pentagon,stop,red,150.0,tracking-SSD,go-1,4,,,,,,
2,706.0,16,phase_2,green_rhombus,go,,,,go-1,1,,,,,,
2,546.0,16,phase_2,green_rhombus,go,,,,go-1,1,,,,,,
2,532.0,16,phase_2,blue_pentagon,stop,red,200.0,tracking-SSD,go-2,3,,,,,,
0,0,16,phase_2,blue_triangle,stop,purple,0.0,0-SSD,go-2,4,,,,,,
2,583.0,16,phase_2,green_rhombus,go,,,,go-1,1,,,,,,
2,614.0,16,phase_2,green_rhombus,go,,,,go-1,1,,,,,,
2,623.0,16,phase_2,green_pentagon,go,,,,go-1,1,,,,,,
1,417.0,16,phase_2,green_triangle,go,,,,go-1,1,,,,,,
0,0,16,phase_2,green_pentagon,stop,purple,0.0,0-SSD,go-1,4,,,,,,
1,513.0,16,phase_2,blue_circle,go,,,,go-2,1,,,,,,
0,0,16,phase_2,green_circle,stop,red,150.0,tracking-SSD,go-1,4,,,,,,
1,509.0,16,phase_2,blue_circle,go,,,,go-2,1,,,,,,
1,607.0,16,phase_2,green_triangle,go,,,,go-1,1,,,,,,
1,571.0,16,phase_2,blue_triangle,go,,,,go-2,1,,,,,,
0,0,16,phase_2,blue_rhombus,stop,red,200.0,tracking-SSD,go-2,4,,,,,,
1,633.0,16,phase_2,blue_triangle,go,,,,go-2,1,,,,,,
0,0,16,phase_2,green_rhombus,stop,purple,0.0,0-SSD,go-1,4,,,,,,
1,561.0,16,phase_2,green_triangle,go,,,,go-1,1,,,,,,
2,524.0,16,phase_2,green_rhombus,go,,,,go-1,1,,,,,,
2,612.0,17,phase_2,blue_pentagon,go,,,,go-2,1,,,,,,
1,566.0,17,phase_2,green_triangle,go,,,,go-1,1,,,,,,
2,586.0,17,phase_2,green_rhombus,go,,,,go-1,1,,,,,,
0,0,17,phase_2,blue_pentagon,stop,purple,0.0,0-SSD,go-2,4,,,,,,
1,455.0,17,phase_2,blue_triangle,go,,,,go-2,1,,,,,,
0,0,17,phase_2,green_rhombus,stop,red,250.0,tracking-SSD,go-1,4,,,,,,
0,0,17,phase_2,green_triangle,stop,purple,0.0,0-SSD,go-1,4,,,,,,
1,504.0,17,phase_2,green_triangle,go,,,,go-1,1,,,,,,
1,445.0,17,phase_2,green_triangle,go,,,,go-1,1,,,,,,
2,533.0,17,phase_2,green_rhombus,stop,red,300.0,tracking-SSD,go-1,3,,,,,,
1,462.0,17,phase_2,green_triangle,go,,,,go-1,1,,,,,,
2,673.0,17,phase_2,blue_rhombus,go,,,,go-2,1,,,,,,
1,414.0,17,phase_2,green_rhombus,go,,,,go-1,2,,,,,,
2,783.0,17,phase_2,green_pentagon,go,,,,go-1,1,,,,,,
1,421.0,17,phase_2,blue_triangle,go,,,,go-2,1,,,,,,
2,813.0,17,phase_2,blue_pentagon,go,,,,go-2,1,,,,,,
2,596.0,17,phase_2,green_pentagon,stop,red,250.0,tracking-SSD,go-1,3,,,,,,
1,594.0,17,phase_2,green_triangle,go,,,,go-1,1,,,,,,
1,388.0,17,phase_2,green_triangle,go,,,,go-1,1,,,,,,
0,0,17,phase_2,blue_pentagon,stop,purple,0.0,0-SSD,go-2,4,,,,,,
2,598.0,17,phase_2,blue_rhombus,go,,,,go-2,1,,,,,,
0,0,17,phase_2,green_circle,stop,purple,0.0,0-SSD,go-1,4,,,,,,
0,0,17,phase_2,blue_rhombus,stop,purple,0.0,0-SSD,go-2,4,,,,,,
2,535.0,17,phase_2,blue_rhombus,go,,,,go-2,1,,,,,,
2,689.0,17,phase_2,blue_rhombus,go,,,,go-2,1,,,,,,
2,720.0,17,phase_2,green_pentagon,go,,,,go-1,1,,,,,,
1,492.0,17,phase_2,blue_circle,stop,red,200.0,tracking-SSD,go-2,3,,,,,,
2,568.0,17,phase_2,blue_rhombus,go,,,,go-2,1,,,,,,
1,465.0,17,phase_2,green_triangle,go,,,,go-1,1,,,,,,
1,631.0,17,phase_2,blue_circle,go,,,,go-2,1,,,,,,
1,561.0,17,phase_2,green_circle,go,,,,go-1,1,,,,,,
2,784.0,17,phase_2,blue_rhombus,go,,,,go-2,1,,,,,,
1,635.0,17,phase_2,blue_circle,go,,,,go-2,1,,,,,,
2,599.0,17,phase_2,blue_pentagon,stop,red,150.0,tracking-SSD,go-2,3,,,,,,
0,0,17,phase_2,green_circle,stop,red,100.0,tracking-SSD,go-1,4,,,,,,
0,0,17,phase_2,blue_pentagon,stop,red,150.0,tracking-SSD,go-2,4,,,,,,
2,624.0,17,phase_2,green_rhombus,go,,,,go-1,1,,,,,,
1,442.0,17,phase_2,blue_triangle,go,,,,go-2,1,,,,,,
1,451.0,17,phase_2,green_triangle,go,,,,go-1,1,,,,,,
2,516.0,17,phase_2,blue_circle,go,,,,go-2,2,,,,,,
0,0,17,phase_2,blue_circle,go,,,,go-2,2,,,,,,
1,500.0,17,phase_2,green_circle,go,,,,go-1,1,,,,,,
0,0,17,phase_2,green_circle,stop,purple,0.0,0-SSD,go-1,4,,,,,,
1,473.0,17,phase_2,green_circle,go,,,,go-1,1,,,,,,
0,0,17,phase_2,blue_circle,stop,red,200.0,tracking-SSD,go-2,4,,,,,,
2,579.0,17,phase_2,blue_pentagon,go,,,,go-2,1,,,,,,
0,0,17,phase_2,blue_pentagon,stop,purple,0.0,0-SSD,go-2,4,,,,,,
0,0,17,phase_2,green_pentagon,stop,purple,0.0,0-SSD,go-1,4,,,,,,
,768.0,1,phase_3,,,,,,,,purple_square,0-SSD,purple_square,0-SSD,red_square,tracking-SSD
,1089.0,1,phase_3,,,,,,,,blue_square,go-2,blue_square,go-2,purple_square,0-SSD
,804.0,1,phase_3,,,,,,,,blue_square,go-2,blue_square,go-2,red_square,tracking-SSD
,563.0,1,phase_3,,,,,,,,blue_square,go-2,green_square,go-1,blue_square,go-2
,1133.0,1,phase_3,,,,,,,,green_square,go-1,green_square,go-1,red_square,tracking-SSD
,825.0,1,phase_3,,,,,,,,green_square,go-1,green_square,go-1,purple_square,0-SSD
,596.0,1,phase_3,,,,,,,,blue_square,go-2,purple_square,0-SSD,blue_square,go-2
,737.0,1,phase_3,,,,,,,,blue_square,go-2,blue_square,go-2,green_square,go-1
,845.0,1,phase_3,,,,,,,,blue_square,go-2,red_square,tracking-SSD,blue_square,go-2
,953.0,1,phase_3,,,,,,,,red_square,tracking-SSD,red_square,tracking-SSD,purple_square,0-SSD
,904.0,1,phase_3,,,,,,,,green_square,go-1,purple_square,0-SSD,green_square,go-1
,1215.0,1,phase_3,,,,,,,,green_square,go-1,red_square,tracking-SSD,green_square,go-1
,769.0,2,phase_3,,,,,,,,green_square,go-1,green_square,go-1,red_square,tracking-SSD
,617.0,2,phase_3,,,,,,,,red_square,tracking-SSD,blue_square,go-2,red_square,tracking-SSD
,568.0,2,phase_3,,,,,,,,green_square,go-1,green_square,go-1,purple_square,0-SSD
,619.0,2,phase_3,,,,,,,,blue_square,go-2,blue_square,go-2,purple_square,0-SSD
,660.0,2,phase_3,,,,,,,,blue_square,go-2,green_square,go-1,blue_square,go-2
,1129.0,2,phase_3,,,,,,,,red_square,tracking-SSD,purple_square,0-SSD,red_square,tracking-SSD
,944.0,2,phase_3,,,,,,,,blue_square,go-2,blue_square,go-2,green_square,go-1
,1108.0,2,phase_3,,,,,,,,purple_square,0-SSD,purple_square,0-SSD,green_square,go-1
,812.0,2,phase_3,,,,,,,,blue_square,go-2,red_square,tracking-SSD,blue_square,go-2
,818.0,2,phase_3,,,,,,,,blue_square,go-2,purple_square,0-SSD,blue_square,go-2
,814.0,2,phase_3,,,,,,,,red_square,tracking-SSD,red_square,tracking-SSD,green_square,go-1
,652.0,2,phase_3,,,,,,,,purple_square,0-SSD,red_square,tracking-SSD,purple_square,0-SSD
,734.0,3,phase_3,,,,,,,,blue_square,go-2,blue_square,go-2,purple_square,0-SSD
,583.0,3,phase_3,,,,,,,,red_square,tracking-SSD,blue_square,go-2,red_square,tracking-SSD
,714.0,3,phase_3,,,,,,,,green_square,go-1,green_square,go-1,purple_square,0-SSD
,776.0,3,phase_3,,,,,,,,red_square,tracking-SSD,purple_square,0-SSD,red_square,tracking-SSD
,883.0,3,phase_3,,,,,,,,blue_square,go-2,green_square,go-1,blue_square,go-2
,698.0,3,phase_3,,,,,,,,green_square,go-1,green_square,go-1,red_square,tracking-SSD
,694.0,3,phase_3,,,,,,,,blue_square,go-2,purple_square,0-SSD,blue_square,go-2
,847.0,3,phase_3,,,,,,,,red_square,tracking-SSD,red_square,tracking-SSD,green_square,go-1
,911.0,3,phase_3,,,,,,,,purple_square,0-SSD,red_square,tracking-SSD,purple_square,0-SSD
,804.0,3,phase_3,,,,,,,,green_square,go-1,blue_square,go-2,green_square,go-1
,1002.0,3,phase_3,,,,,,,,green_square,go-1,purple_square,0-SSD,green_square,go-1
,909.0,3,phase_3,,,,,,,,blue_square,go-2,red_square,tracking-SSD,blue_square,go-2
,724.0,4,phase_3,,,,,,,,blue_square,go-2,green_square,go-1,blue_square,go-2
,674.0,4,phase_3,,,,,,,,red_square,tracking-SSD,green_square,go-1,red_square,tracking-SSD
,546.0,4,phase_3,,,,,,,,blue_square,go-2,blue_square,go-2,purple_square,0-SSD
,699.0,4,phase_3,,,,,,,,purple_square,0-SSD,purple_square,0-SSD,red_square,tracking-SSD
,470.0,4,phase_3,,,,,,,,blue_square,go-2,blue_square,go-2,red_square,tracking-SSD
,646.0,4,phase_3,,,,,,,,green_square,go-1,green_square,go-1,purple_square,0-SSD
,877.0,4,phase_3,,,,,,,,purple_square,0-SSD,red_square,tracking-SSD,purple_square,0-SSD
,794.0,4,phase_3,,,,,,,,green_square,go-1,red_square,tracking-SSD,green_square,go-1
,824.0,4,phase_3,,,,,,,,blue_square,go-2,red_square,tracking-SSD,blue_square,go-2
,774.0,4,phase_3,,,,,,,,blue_square,go-2,blue_square,go-2,green_square,go-1
,736.0,4,phase_3,,,,,,,,green_square,go-1,purple_square,0-SSD,green_square,go-1
,867.0,4,phase_3,,,,,,,,blue_square,go-2,purple_square,0-SSD,blue_square,go-2
,1017.0,5,phase_3,,,,,,,,green_square,go-1,green_square,go-1,purple_square,0-SSD
,606.0,5,phase_3,,,,,,,,blue_square,go-2,blue_square,go-2,purple_square,0-SSD
,579.0,5,phase_3,,,,,,,,blue_square,go-2,blue_square,go-2,red_square,tracking-SSD
,1024.0,5,phase_3,,,,,,,,green_square,go-1,green_square,go-1,red_square,tracking-SSD
,603.0,5,phase_3,,,,,,,,blue_square,go-2,green_square,go-1,blue_square,go-2
,690.0,5,phase_3,,,,,,,,red_square,tracking-SSD,purple_square,0-SSD,red_square,tracking-SSD
,730.0,5,phase_3,,,,,,,,blue_square,go-2,blue_square,go-2,green_square,go-1
,1378.0,5,phase_3,,,,,,,,purple_square,0-SSD,red_square,tracking-SSD,purple_square,0-SSD
,777.0,5,phase_3,,,,,,,,green_square,go-1,purple_square,0-SSD,green_square,go-1
,930.0,5,phase_3,,,,,,,,green_square,go-1,red_square,tracking-SSD,green_square,go-1
,915.0,5,phase_3,,,,,,,,blue_square,go-2,purple_square,0-SSD,blue_square,go-2
,765.0,5,phase_3,,,,,,,,blue_square,go-2,red_square,tracking-SSD,blue_square,go-2
