response,reaction_time,block,which_phase,stim,stop_signal_trial_type,stop_signal_stimulus,SSD,SSD_type,condition,accuracy,chosen_stim,chosen_cond,stim_left,cond_left,stim_right,cond_right
0,0,1,phase_2,red_triangle,stop,purple,0.0,0-SSD,go-1,4,,,,,,
1,450.0,1,phase_2,red_pentagon,go,,,,go-1,1,,,,,,
0,0,1,phase_2,green_rhombus,stop,blue,250.0,tracking-SSD,go-2,4,,,,,,
1,581.0,1,phase_2,green_triangle,go,,,,go-2,1,,,,,,
1,410.0,1,phase_2,red_pentagon,go,,,,go-1,1,,,,,,
1,521.0,1,phase_2,red_pentagon,stop,blue,300.0,tracking-SSD,go-1,3,,,,,,
2,530.0,1,phase_2,red_rhombus,go,,,,go-1,1,,,,,,
1,517.0,1,phase_2,green_triangle,go,,,,go-2,1,,,,,,
1,437.0,1,phase_2,red_triangle,go,,,,go-1,1,,,,,,
1,626.0,1,phase_2,green_pentagon,go,,,,go-2,1,,,,,,
2,533.0,1,phase_2,red_circle,go,,,,go-1,1,,,,,,
0,0,1,phase_2,red_circle,stop,purple,0.0,0-SSD,go-1,4,,,,,,
1,517.0,1,phase_2,red_pentagon,go,,,,go-1,1,,,,,,
1,414.0,1,phase_2,green_pentagon,go,,,,go-2,1,,,,,,
1,457.0,1,phase_2,red_pentagon,go,,,,go-1,1,,,,,,
2,488.0,1,phase_2,red_circle,go,,,,go-1,1,,,,,,
2,407.0,1,phase_2,red_circle,go,,,,go-1,1,,,,,,
1,540.0,1,phase_2,green_triangle,go,,,,go-2,1,,,,,,
2,720.0,1,phase_2,red_rhombus,go,,,,go-1,1,,,,,,
0,0,1,phase_2,red_triangle,stop,purple,0.0,0-SSD,go-1,4,,,,,,
1,545.0,1,phase_2,red_pentagon,go,,,,go-1,1,,,,,,
2,510.0,1,phase_2,red_circle,stop,blue,250.0,tracking-SSD,go-1,3,,,,,,
0,0,1,phase_2,red_triangle,stop,purple,0.0,0-SSD,go-1,4,,,,,,
2,595.0,1,phase_2,red_rhombus,go,,,,go-1,1,,,,,,
0,0,1,phase_2,green_rhombus,stop,blue,200.0,tracking-SSD,go-2,4,,,,,,
2,546.0,1,phase_2,green_rhombus,go,,,,go-2,1,,,,,,
0,0,1,phase_2,green_triangle,stop,purple,0.0,0-SSD,go-2,4,,,,,,
0,0,1,phase_2,green_circle,stop,purple,0.0,0-SSD,go-2,4,,,,,,
1,494.0,1,phase_2,green_triangle,go,,,,go-2,1,,,,,,
2,491.0,1,phase_2,green_circle,go,,,,go-2,1,,,,,,
0,0,1,phase_2,red_pentagon,stop,blue,250.0,tracking-SSD,go-1,4,,,,,,
2,444.0,1,phase_2,red_circle,go,,,,go-1,1,,,,,,
1,576.0,1,phase_2,red_triangle,go,,,,go-1,1,,,,,,
2,552.0,1,phase_2,green_circle,go,,,,go-2,1,,,,,,
1,683.0,1,phase_2,green_triangle,stop,blue,300.0,tracking-SSD,go-2,3,,,,,,
0,0,1,phase_2,green_rhombus,stop,purple,0.0,0-SSD,go-2,4,,,,,,
2,375.0,1,phase_2,green_circle,go,,,,go-2,1,,,,,,
2,407.0,1,phase_2,green_circle,go,,,,go-2,1,,,,,,
1,529.0,1,phase_2,green_pentagon,stop,blue,250.0,tracking-SSD,go-2,3,,,,,,
2,809.0,1,phase_2,green_rhombus,go,,,,go-2,1,,,,,,
1,615.0,1,phase_2,green_pentagon,go,,,,go-2,1,,,,,,
1,512.0,1,phase_2,red_pentagon,go,,,,go-1,1,,,,,,
1,577.0,1,phase_2,green_triangle,go,,,,go-2,1,,,,,,
2,519.0,1,phase_2,red_circle,go,,,,go-1,1,,,,,,
0,0,1,phase_2,green_rhombus,stop,purple,0.0,0-SSD,go-2,4,,,,,,
0,0,1,phase_2,red_rhombus,stop,blue,200.0,tracking-SSD,go-1,4,,,,,,
2,645.0,1,phase_2,green_rhombus,go,,,,go-2,1,,,,,,
2,586.0,1,phase_2,green_rhombus,go,,,,go-2,1,,,,,,
2,566.0,2,phase_2,green_rhombus,go,,,,go-2,1,,,,,,
2,473.0,2,phase_2,red_circle,go,,,,go-1,1,,,,,,
0,0,2,phase_2,red_pentagon,stop,purple,0.0,0-SSD,go-1,4,,,,,,
1,727.0,2,phase_2,green_pentagon,stop,blue,250.0,tracking-SSD,go-2,3,,,,,,
2,602.0,2,phase_2,green_rhombus,go,,,,go-2,1,,,,,,
0,0,2,phase_2,green_circle,stop,purple,0.0,0-SSD,go-2,4,,,,,,
0,0,2,phase_2,red_triangle,stop,blue,200.0,tracking-SSD,go-1,4,,,,,,
1,559.0,2,phase_2,green_pentagon,go,,,,go-2,1,,,,,,
2,479.0,2,phase_2,green_circle,go,,,,go-2,1,,,,,,
2,668.0,2,phase_2,green_rhombus,go,,,,go-2,1,,,,,,
1,553.0,2,phase_2,red_triangle,go,,,,go-1,1,,,,,,
1,731.0,2,phase_2,red_pentagon,go,,,,go-1,1,,,,,,
0,0,2,phase_2,red_pentagon,stop,purple,0.0,0-SSD,go-1,4,,,,,,
2,536.0,2,phase_2,red_circle,go,,,,go-1,1,,,,,,
1,523.0,2,phase_2,red_triangle,go,,,,go-1,1,,,,,,
1,498.0,2,phase_2,red_triangle,go,,,,go-1,1,,,,,,
0,0,2,phase_2,green_rhombus,stop,purple,0.0,0-SSD,go-2,4,,,,,,
1,516.0,2,phase_2,green_pentagon,go,,,,go-2,1,,,,,,
2,423.0,2,phase_2,red_circle,go,,,,go-1,1,,,,,,
1,478.0,2,phase_2,green_rhombus,go,,,,go-2,2,,,,,,
2,588.0,2,phase_2,green_circle,go,,,,go-2,1,,,,,,
1,484.0,2,phase_2,green_triangle,go,,,,go-2,1,,,,,,
1,516.0,2,phase_2,red_pentagon,go,,,,go-1,1,,,,,,
1,569.0,2,phase_2,green_triangle,go,,,,go-2,1,,,,,,
1,443.0,2,phase_2,green_triangle,go,,,,go-2,1,,,,,,
1,419.0,2,phase_2,green_triangle,go,,,,go-2,1,,,,,,
2,529.0,2,phase_2,red_rhombus,go,,,,go-1,1,,,,,,
1,539.0,2,phase_2,red_pentagon,go,,,,go-1,1,,,,,,
0,0,2,phase_2,green_rhombus,stop,blue,250.0,tracking-SSD,go-2,4,,,,,,
0,0,2,phase_2,red_rhombus,stop,purple,0.0,0-SSD,go-1,4,,,,,,
2,421.0,2,phase_2,red_triangle,go,,,,go-1,2,,,,,,
2,452.0,2,phase_2,red_circle,stop,blue,300.0,tracking-SSD,go-1,3,,,,,,
1,563.0,2,phase_2,green_pentagon,go,,,,go-2,1,,,,,,
2,527.0,2,phase_2,red_rhombus,go,,,,go-1,1,,,,,,
2,502.0,2,phase_2,red_rhombus,go,,,,go-1,1,,,,,,
2,421.0,2,phase_2,red_rhombus,go,,,,go-1,1,,,,,,
1,587.0,2,phase_2,green_pentagon,go,,,,go-2,1,,,,,,
0,0,2,phase_2,red_circle,stop,purple,0.0,0-SSD,go-1,4,,,,,,
2,404.0,2,phase_2,red_circle,stop,blue,250.0,tracking-SSD,go-1,3,,,,,,
0,0,2,phase_2,green_triangle,stop,purple,0.0,0-SSD,go-2,4,,,,,,
0,0,2,phase_2,red_pentagon,stop,blue,200.0,tracking-SSD,go-1,4,,,,,,
2,476.0,2,phase_2,green_triangle,go,,,,go-2,2,,,,,,
0,0,2,phase_2,green_circle,stop,purple,0.0,0-SSD,go-2,4,,,,,,
2,415.0,2,phase_2,green_circle,stop,blue,250.0,tracking-SSD,go-2,3,,,,,,
2,694.0,2,phase_2,green_circle,go,,,,go-2,1,,,,,,
1,432.0,2,phase_2,red_triangle,go,,,,go-1,1,,,,,,
0,0,2,phase_2,green_rhombus,stop,blue,200.0,tracking-SSD,go-2,4,,,,,,
1,596.0,2,phase_2,red_pentagon,go,,,,go-1,1,,,,,,
2,488.0,3,phase_2,red_circle,go,,,,go-1,1,,,,,,
2,395.0,3,phase_2,green_triangle,go,,,,go-2,2,,,,,,
2,516.0,3,phase_2,green_circle,go,,,,go-2,1,,,,,,
2,537.0,3,phase_2,green_circle,stop,blue,250.0,tracking-SSD,go-2,3,,,,,,
1,535.0,3,phase_2,red_triangle,go,,,,go-1,1,,,,,,
1,419.0,3,phase_2,red_triangle,stop,blue,200.0,tracking-SSD,go-1,3,,,,,,
2,462.0,3,phase_2,green_circle,go,,,,go-2,1,,,,,,
1,527.0,3,phase_2,green_rhombus,go,,,,go-2,2,,,,,,
2,524.0,3,phase_2,green_circle,go,,,,go-2,1,,,,,,
1,624.0,3,phase_2,red_pentagon,go,,,,go-1,1,,,,,,
2,431.0,3,phase_2,green_rhombus,go,,,,go-2,1,,,,,,
1,349.0,3,phase_2,red_pentagon,go,,,,go-1,1,,,,,,
0,0,3,phase_2,red_pentagon,stop,purple,0.0,0-SSD,go-1,4,,,,,,
1,457.0,3,phase_2,red_triangle,go,,,,go-1,1,,,,,,
1,444.0,3,phase_2,green_triangle,go,,,,go-2,1,,,,,,
1,632.0,3,phase_2,green_pentagon,go,,,,go-2,1,,,,,,
2,450.0,3,phase_2,red_circle,stop,blue,150.0,tracking-SSD,go-1,3,,,,,,
1,503.0,3,phase_2,red_triangle,go,,,,go-1,1,,,,,,
1,422.0,3,phase_2,red_rhombus,go,,,,go-1,2,,,,,,
2,454.0,3,phase_2,red_circle,go,,,,go-1,1,,,,,,
1,509.0,3,phase_2,red_pentagon,go,,,,go-1,1,,,,,,
0,0,3,phase_2,green_rhombus,stop,blue,100.0,tracking-SSD,go-2,4,,,,,,
1,628.0,3,phase_2,green_triangle,go,,,,go-2,1,,,,,,
2,469.0,3,phase_2,red_rhombus,go,,,,go-1,1,,,,,,
2,387.0,3,phase_2,green_circle,go,,,,go-2,1,,,,,,
0,0,3,phase_2,red_circle,stop,blue,150.0,tracking-SSD,go-1,4,,,,,,
1,438.0,3,phase_2,green_triangle,go,,,,go-2,1,,,,,,
2,413.0,3,phase_2,red_circle,go,,,,go-1,1,,,,,,
1,557.0,3,phase_2,red_pentagon,go,,,,go-1,1,,,,,,
1,487.0,3,phase_2,red_pentagon,go,,,,go-1,1,,,,,,
2,541.0,3,phase_2,red_rhombus,go,,,,go-1,1,,,,,,
2,481.0,3,phase_2,green_rhombus,stop,blue,200.0,tracking-SSD,go-2,3,,,,,,
1,592.0,3,phase_2,green_pentagon,go,,,,go-2,1,,,,,,
1,567.0,3,phase_2,red_pentagon,go,,,,go-1,1,,,,,,
2,430.0,3,phase_2,red_circle,stop,blue,150.0,tracking-SSD,go-1,3,,,,,,
0,0,3,phase_2,green_rhombus,stop,purple,0.0,0-SSD,go-2,4,,,,,,
1,502.0,3,phase_2,red_triangle,go,,,,go-1,1,,,,,,
0,0,3,phase_2,red_triangle,stop,purple,0.0,0-SSD,go-1,4,,,,,,
0,0,3,phase_2,green_circle,stop,blue,100.0,tracking-SSD,go-2,4,,,,,,
0,0,3,phase_2,red_rhombus,stop,purple,0.0,0-SSD,go-1,4,,,,,,
2,483.0,3,phase_2,green_rhombus,go,,,,go-2,1,,,,,,
0,0,3,phase_2,green_rhombus,stop,purple,0.0,0-SSD,go-2,4,,,,,,
1,545.0,3,phase_2,green_pentagon,go,,,,go-2,1,,,,,,
1,486.0,3,phase_2,green_triangle,go,,,,go-2,1,,,,,,
0,0,3,phase_2,green_pentagon,stop,purple,0.0,0-SSD,go-2,4,,,,,,
2,348.0,3,phase_2,green_rhombus,go,,,,go-2,1,,,,,,
0,0,3,phase_2,red_triangle,stop,purple,0.0,0-SSD,go-1,4,,,,,,
0,0,3,phase_2,green_pentagon,stop,purple,0.0,0-SSD,go-2,4,,,,,,
0,0,4,phase_2,green_pentagon,stop,blue,150.0,tracking-SSD,go-2,4,,,,,,
2,395.0,4,phase_2,red_circle,go,,,,go-1,1,,,,,,
1,538.0,4,phase_2,green_pentagon,go,,,,go-2,1,,,,,,
1,345.0,4,phase_2,red_pentagon,go,,,,go-1,1,,,,,,
2,365.0,4,phase_2,green_circle,go,,,,go-2,1,,,,,,
1,362.0,4,phase_2,red_rhombus,stop,blue,200.0,tracking-SSD,go-1,3,,,,,,
0,0,4,phase_2,red_triangle,stop,purple,0.0,0-SSD,go-1,4,,,,,,
2,379.0,4,phase_2,green_circle,stop,purple,0.0,0-SSD,go-2,3,,,,,,
2,399.0,4,phase_2,red_circle,go,,,,go-1,1,,,,,,
1,499.0,4,phase_2,green_triangle,go,,,,go-2,1,,,,,,
0,0,4,phase_2,red_triangle,stop,purple,0.0,0-SSD,go-1,4,,,,,,
0,0,4,phase_2,green_pentagon,stop,purple,0.0,0-SSD,go-2,4,,,,,,
2,389.0,4,phase_2,red_rhombus,go,,,,go-1,1,,,,,,
2,409.0,4,phase_2,green_rhombus,stop,blue,150.0,tracking-SSD,go-2,3,,,,,,
2,441.0,4,phase_2,green_rhombus,go,,,,go-2,1,,,,,,
2,416.0,4,phase_2,red_pentagon,go,,,,go-1,2,,,,,,
1,492.0,4,phase_2,green_pentagon,go,,,,go-2,1,,,,,,
1,658.0,4,phase_2,red_triangle,go,,,,go-1,1,,,,,,
0,0,4,phase_2,red_triangle,stop,blue,100.0,tracking-SSD,go-1,4,,,,,,
1,442.0,4,phase_2,green_pentagon,stop,blue,150.0,tracking-SSD,go-2,3,,,,,,
0,0,4,phase_2,red_triangle,stop,blue,100.0,tracking-SSD,go-1,4,,,,,,
2,449.0,4,phase_2,green_circle,go,,,,go-2,1,,,,,,
1,504.0,4,phase_2,red_pentagon,go,,,,go-1,1,,,,,,
0,0,4,phase_2,red_pentagon,stop,purple,0.0,0-SSD,go-1,4,,,,,,
2,387.0,4,phase_2,green_rhombus,go,,,,go-2,1,,,,,,
2,406.0,4,phase_2,red_rhombus,go,,,,go-1,1,,,,,,
2,528.0,4,phase_2,red_circle,go,,,,go-1,1,,,,,,
2,436.0,4,phase_2,green_pentagon,go,,,,go-2,2,,,,,,
1,399.0,4,phase_2,red_pentagon,go,,,,go-1,1,,,,,,
0,0,4,phase_2,green_rhombus,stop,purple,0.0,0-SSD,go-2,4,,,,,,
2,417.0,4,phase_2,green_circle,go,,,,go-2,1,,,,,,
2,369.0,4,phase_2,red_rhombus,go,,,,go-1,1,,,,,,
2,389.0,4,phase_2,green_triangle,go,,,,go-2,2,,,,,,
1,364.0,4,phase_2,green_triangle,go,,,,go-2,1,,,,,,
2,463.0,4,phase_2,red_circle,go,,,,go-1,1,,,,,,
2,607.0,4,phase_2,red_rhombus,go,,,,go-1,1,,,,,,
1,424.0,4,phase_2,green_triangle,go,,,,go-2,1,,,,,,
1,590.0,4,phase_2,red_pentagon,go,,,,go-1,1,,,,,,
0,0,4,phase_2,red_triangle,stop,purple,0.0,0-SSD,go-1,4,,,,,,
2,472.0,4,phase_2,red_circle,stop,blue,150.0,tracking-SSD,go-1,3,,,,,,
2,436.0,4,phase_2,green_circle,go,,,,go-2,1,,,,,,
2,378.0,4,phase_2,green_circle,go,,,,go-2,1,,,,,,
2,386.0,4,phase_2,green_triangle,go,,,,go-2,2,,,,,,
0,0,4,phase_2,green_rhombus,stop,purple,0.0,0-SSD,go-2,4,,,,,,
0,0,4,phase_2,green_rhombus,stop,blue,100.0,tracking-SSD,go-2,4,,,,,,
2,491.0,4,phase_2,red_rhombus,go,,,,go-1,1,,,,,,
2,477.0,4,phase_2,red_circle,go,,,,go-1,1,,,,,,
2,453.0,4,phase_2,green_triangle,go,,,,go-2,2,,,,,,
0,0,5,phase_2,red_rhombus,stop,purple,0.0,0-SSD,go-1,4,,,,,,
1,362.0,5,phase_2,red_rhombus,go,,,,go-1,2,,,,,,
1,359.0,5,phase_2,green_pentagon,go,,,,go-2,1,,,,,,
2,424.0,5,phase_2,red_triangle,stop,blue,150.0,tracking-SSD,go-1,3,,,,,,
0,0,5,phase_2,red_circle,stop,blue,100.0,tracking-SSD,go-1,4,,,,,,
2,397.0,5,phase_2,red_pentagon,go,,,,go-1,2,,,,,,
0,0,5,phase_2,red_triangle,stop,purple,0.0,0-SSD,go-1,4,,,,,,
2,437.0,5,phase_2,red_circle,go,,,,go-1,1,,,,,,
1,525.0,5,phase_2,red_triangle,go,,,,go-1,1,,,,,,
2,353.0,5,phase_2,green_rhombus,go,,,,go-2,1,,,,,,
2,453.0,5,phase_2,green_pentagon,go,,,,go-2,2,,,,,,
2,438.0,5,phase_2,red_rhombus,go,,,,go-1,1,,,,,,
2,459.0,5,phase_2,green_circle,go,,,,go-2,1,,,,,,
1,345.0,5,phase_2,red_circle,stop,blue,150.0,tracking-SSD,go-1,3,,,,,,
0,0,5,phase_2,green_circle,stop,blue,100.0,tracking-SSD,go-2,4,,,,,,
0,0,5,phase_2,green_rhombus,stop,blue,150.0,tracking-SSD,go-2,4,,,,,,
2,462.0,5,phase_2,red_circle,go,,,,go-1,1,,,,,,
2,381.0,5,phase_2,red_triangle,go,,,,go-1,2,,,,,,
0,0,5,phase_2,green_pentagon,stop,purple,0.0,0-SSD,go-2,4,,,,,,
1,488.0,5,phase_2,green_pentagon,go,,,,go-2,1,,,,,,
2,485.0,5,phase_2,green_rhombus,go,,,,go-2,1,,,,,,
0,0,5,phase_2,green_triangle,stop,purple,0.0,0-SSD,go-2,4,,,,,,
2,482.0,5,phase_2,green_triangle,go,,,,go-2,2,,,,,,
2,456.0,5,phase_2,red_circle,go,,,,go-1,1,,,,,,
0,0,5,phase_2,green_circle,stop,purple,0.0,0-SSD,go-2,4,,,,,,
2,453.0,5,phase_2,red_triangle,go,,,,go-1,2,,,,,,
1,485.0,5,phase_2,green_rhombus,go,,,,go-2,2,,,,,,
1,730.0,5,phase_2,red_triangle,go,,,,go-1,1,,,,,,
1,626.0,5,phase_2,red_pentagon,go,,,,go-1,1,,,,,,
1,499.0,5,phase_2,green_pentagon,go,,,,go-2,1,,,,,,
1,407.0,5,phase_2,red_pentagon,stop,blue,200.0,tracking-SSD,go-1,3,,,,,,
1,506.0,5,phase_2,green_triangle,go,,,,go-2,1,,,,,,
0,0,5,phase_2,green_rhombus,stop,blue,150.0,tracking-SSD,go-2,4,,,,,,
0,0,5,phase_2,red_pentagon,stop,purple,0.0,0-SSD,go-1,4,,,,,,
0,0,5,phase_2,red_rhombus,stop,purple,0.0,0-SSD,go-1,4,,,,,,
2,463.0,5,phase_2,green_rhombus,go,,,,go-2,1,,,,,,
2,483.0,5,phase_2,green_circle,go,,,,go-2,1,,,,,,
1,504.0,5,phase_2,red_triangle,go,,,,go-1,1,,,,,,
1,445.0,5,phase_2,green_rhombus,stop,blue,200.0,tracking-SSD,go-2,3,,,,,,
2,589.0,5,phase_2,red_circle,go,,,,go-1,1,,,,,,
1,475.0,5,phase_2,red_pentagon,go,,,,go-1,1,,,,,,
2,483.0,5,phase_2,green_circle,go,,,,go-2,1,,,,,,
0,0,5,phase_2,green_circle,stop,purple,0.0,0-SSD,go-2,4,,,,,,
2,535.0,5,phase_2,red_rhombus,go,,,,go-1,1,,,,,,
1,645.0,5,phase_2,green_triangle,go,,,,go-2,1,,,,,,
1,519.0,5,phase_2,green_pentagon,go,,,,go-2,1,,,,,,
2,392.0,5,phase_2,red_triangle,go,,,,go-1,2,,,,,,
1,435.0,5,phase_2,green_pentagon,go,,,,go-2,1,,,,,,
2,442.0,6,phase_2,green_circle,go,,,,go-2,1,,,,,,
2,373.0,6,phase_2,green_circle,go,,,,go-2,1,,,,,,
1,428.0,6,phase_2,green_triangle,go,,,,go-2,1,,,,,,
0,0,6,phase_2,red_rhombus,stop,purple,0.0,0-SSD,go-1,4,,,,,,
0,0,6,phase_2,red_pentagon,stop,purple,0.0,0-SSD,go-1,4,,,,,,
1,489.0,6,phase_2,green_triangle,go,,,,go-2,1,,,,,,
2,396.0,6,phase_2,green_circle,go,,,,go-2,1,,,,,,
0,0,6,phase_2,red_triangle,stop,purple,0.0,0-SSD,go-1,4,,,,,,
2,482.0,6,phase_2,red_circle,go,,,,go-1,1,,,,,,
1,447.0,6,phase_2,red_pentagon,go,,,,go-1,1,,,,,,
1,467.0,6,phase_2,red_triangle,stop,blue,150.0,tracking-SSD,go-1,3,,,,,,
2,420.0,6,phase_2,green_circle,go,,,,go-2,1,,,,,,
0,0,6,phase_2,green_rhombus,stop,blue,100.0,tracking-SSD,go-2,4,,,,,,
1,470.0,6,phase_2,red_pentagon,go,,,,go-1,1,,,,,,
2,434.0,6,phase_2,red_rhombus,go,,,,go-1,1,,,,,,
1,544.0,6,phase_2,red_pentagon,go,,,,go-1,1,,,,,,
2,430.0,6,phase_2,red_pentagon,stop,blue,150.0,tracking-SSD,go-1,3,,,,,,
0,0,6,phase_2,green_pentagon,stop,blue,100.0,tracking-SSD,go-2,4,,,,,,
2,503.0,6,phase_2,red_rhombus,go,,,,go-1,1,,,,,,
2,478.0,6,phase_2,green_circle,go,,,,go-2,1,,,,,,
1,520.0,6,phase_2,green_triangle,go,,,,go-2,1,,,,,,
0,0,6,phase_2,green_pentagon,stop,purple,0.0,0-SSD,go-2,4,,,,,,
0,0,6,phase_2,green_triangle,stop,purple,0.0,0-SSD,go-2,4,,,,,,
2,378.0,6,phase_2,red_circle,go,,,,go-1,1,,,,,,
0,0,6,phase_2,green_triangle,stop,purple,0.0,0-SSD,go-2,4,,,,,,
1,430.0,6,phase_2,green_rhombus,go,,,,go-2,2,,,,,,
1,551.0,6,phase_2,green_pentagon,go,,,,go-2,1,,,,,,
1,436.0,6,phase_2,red_pentagon,stop,blue,150.0,tracking-SSD,go-1,3,,,,,,
2,480.0,6,phase_2,green_rhombus,go,,,,go-2,1,,,,,,
2,501.0,6,phase_2,red_circle,go,,,,go-1,1,,,,,,
2,397.0,6,phase_2,red_rhombus,go,,,,go-1,1,,,,,,
2,316.0,6,phase_2,green_circle,stop,blue,100.0,tracking-SSD,go-2,3,,,,,,
2,358.0,6,phase_2,red_pentagon,go,,,,go-1,2,,,,,,
0,0,6,phase_2,red_rhombus,stop,blue,50.0,tracking-SSD,go-1,4,,,,,,
1,612.0,6,phase_2,green_triangle,go,,,,go-2,1,,,,,,
1,374.0,6,phase_2,green_rhombus,go,,,,go-2,2,,,,,,
2,461.0,6,phase_2,red_rhombus,go,,,,go-1,1,,,,,,
1,583.0,6,phase_2,red_triangle,go,,,,go-1,1,,,,,,
1,525.0,6,phase_2,red_pentagon,go,,,,go-1,1,,,,,,
2,489.0,6,phase_2,red_circle,go,,,,go-1,1,,,,,,
1,420.0,6,phase_2,red_triangle,go,,,,go-1,1,,,,,,
2,416.0,6,phase_2,green_triangle,go,,,,go-2,2,,,,,,
1,403.0,6,phase_2,green_triangle,go,,,,go-2,1,,,,,,
2,479.0,6,phase_2,green_rhombus,stop,blue,100.0,tracking-SSD,go-2,3,,,,,,
0,0,6,phase_2,green_circle,stop,purple,0.0,0-SSD,go-2,4,,,,,,
2,508.0,6,phase_2,red_rhombus,go,,,,go-1,1,,,,,,
0,0,6,phase_2,red_circle,stop,purple,0.0,0-SSD,go-1,4,,,,,,
1,494.0,6,phase_2,green_pentagon,go,,,,go-2,1,,,,,,
2,499.0,7,phase_2,red_circle,go,,,,go-1,1,,,,,,
1,440.0,7,phase_2,green_pentagon,go,,,,go-2,1,,,,,,
1,381.0,7,phase_2,green_triangle,go,,,,go-2,1,,,,,,
0,0,7,phase_2,green_pentagon,stop,blue,50.0,tracking-SSD,go-2,4,,,,,,
0,0,7,phase_2,red_rhombus,stop,blue,100.0,tracking-SSD,go-1,4,,,,,,
1,364.0,7,phase_2,green_pentagon,go,,,,go-2,1,,,,,,
1,473.0,7,phase_2,green_rhombus,go,,,,go-2,2,,,,,,
0,0,7,phase_2,green_pentagon,stop,purple,0.0,0-SSD,go-2,4,,,,,,
0,0,7,phase_2,green_pentagon,stop,purple,0.0,0-SSD,go-2,4,,,,,,
2,408.0,7,phase_2,red_pentagon,go,,,,go-1,2,,,,,,
1,385.0,7,phase_2,red_pentagon,go,,,,go-1,1,,,,,,
1,336.0,7,phase_2,red_rhombus,go,,,,go-1,2,,,,,,
0,0,7,phase_2,green_circle,stop,blue,150.0,tracking-SSD,go-2,4,,,,,,
0,0,7,phase_2,green_triangle,stop,purple,0.0,0-SSD,go-2,4,,,,,,
2,385.0,7,phase_2,green_circle,go,,,,go-2,1,,,,,,
1,541.0,7,phase_2,red_triangle,go,,,,go-1,1,,,,,,
1,470.0,7,phase_2,red_pentagon,go,,,,go-1,1,,,,,,
2,445.0,7,phase_2,red_rhombus,go,,,,go-1,1,,,,,,
1,476.0,7,phase_2,green_triangle,go,,,,go-2,1,,,,,,
1,463.0,7,phase_2,green_rhombus,go,,,,go-2,2,,,,,,
2,607.0,7,phase_2,green_rhombus,go,,,,go-2,1,,,,,,
0,0,7,phase_2,green_triangle,stop,blue,200.0,tracking-SSD,go-2,4,,,,,,
2,433.0,7,phase_2,red_pentagon,stop,blue,250.0,tracking-SSD,go-1,3,,,,,,
2,520.0,7,phase_2,red_circle,go,,,,go-1,1,,,,,,
2,710.0,7,phase_2,green_rhombus,go,,,,go-2,1,,,,,,
1,651.0,7,phase_2,red_triangle,go,,,,go-1,1,,,,,,
1,569.0,7,phase_2,red_pentagon,go,,,,go-1,1,,,,,,
2,387.0,7,phase_2,green_rhombus,go,,,,go-2,1,,,,,,
2,453.0,7,phase_2,green_pentagon,go,,,,go-2,2,,,,,,
1,643.0,7,phase_2,green_triangle,go,,,,go-2,1,,,,,,
1,404.0,7,phase_2,red_triangle,go,,,,go-1,1,,,,,,
1,525.0,7,phase_2,red_pentagon,go,,,,go-1,1,,,,,,
1,466.0,7,phase_2,red_rhombus,go,,,,go-1,2,,,,,,
0,0,7,phase_2,red_rhombus,stop,blue,200.0,tracking-SSD,go-1,4,,,,,,
2,461.0,7,phase_2,red_circle,go,,,,go-1,1,,,,,,
2,426.0,7,phase_2,green_circle,go,,,,go-2,1,,,,,,
2,389.0,7,phase_2,red_circle,stop,blue,250.0,tracking-SSD,go-1,3,,,,,,
0,0,7,phase_2,red_circle,stop,purple,0.0,0-SSD,go-1,4,,,,,,
1,532.0,7,phase_2,green_triangle,go,,,,go-2,1,,,,,,
0,0,7,phase_2,red_circle,stop,purple,0.0,0-SSD,go-1,4,,,,,,
2,686.0,7,phase_2,green_rhombus,go,,,,go-2,1,,,,,,
0,0,7,phase_2,red_triangle,stop,purple,0.0,0-SSD,go-1,4,,,,,,
0,0,7,phase_2,green_circle,stop,purple,0.0,0-SSD,go-2,4,,,,,,
1,544.0,7,phase_2,green_triangle,go,,,,go-2,1,,,,,,
1,374.0,7,phase_2,red_triangle,go,,,,go-1,1,,,,,,
0,0,7,phase_2,red_rhombus,stop,purple,0.0,0-SSD,go-1,4,,,,,,
2,426.0,7,phase_2,green_circle,stop,blue,200.0,tracking-SSD,go-2,3,,,,,,
2,434.0,7,phase_2,red_circle,go,,,,go-1,1,,,,,,
0,0,8,phase_2,red_triangle,stop,purple,0.0,0-SSD,go-1,4,,,,,,
1,395.0,8,phase_2,red_circle,go,,,,go-1,2,,,,,,
0,0,8,phase_2,red_pentagon,stop,purple,0.0,0-SSD,go-1,4,,,,,,
2,311.0,8,phase_2,red_circle,stop,blue,150.0,tracking-SSD,go-1,3,,,,,,
2,365.0,8,phase_2,green_rhombus,go,,,,go-2,1,,,,,,
2,418.0,8,phase_2,red_circle,go,,,,go-1,1,,,,,,
1,404.0,8,phase_2,red_rhombus,go,,,,go-1,2,,,,,,
1,324.0,8,phase_2,green_pentagon,go,,,,go-2,1,,,,,,
1,344.0,8,phase_2,red_pentagon,go,,,,go-1,1,,,,,,
0,0,8,phase_2,green_circle,stop,blue,100.0,tracking-SSD,go-2,4,,,,,,
0,0,8,phase_2,red_triangle,stop,blue,150.0,tracking-SSD,go-1,4,,,,,,
2,303.0,8,phase_2,red_pentagon,go,,,,go-1,2,,,,,,
0,0,8,phase_2,green_rhombus,stop,purple,0.0,0-SSD,go-2,4,,,,,,
0,0,8,phase_2,red_circle,stop,blue,200.0,tracking-SSD,go-1,4,,,,,,
0,0,8,phase_2,green_rhombus,stop,purple,0.0,0-SSD,go-2,4,,,,,,
1,360.0,8,phase_2,green_circle,go,,,,go-2,2,,,,,,
1,426.0,8,phase_2,red_triangle,go,,,,go-1,1,,,,,,
2,570.0,8,phase_2,green_rhombus,go,,,,go-2,1,,,,,,
2,399.0,8,phase_2,green_pentagon,stop,blue,250.0,tracking-SSD,go-2,3,,,,,,
2,386.0,8,phase_2,green_triangle,go,,,,go-2,2,,,,,,
2,574.0,8,phase_2,green_rhombus,go,,,,go-2,1,,,,,,
1,392.0,8,phase_2,red_triangle,go,,,,go-1,1,,,,,,
1,366.0,8,phase_2,red_triangle,go,,,,go-1,1,,,,,,
1,455.0,8,phase_2,green_pentagon,go,,,,go-2,1,,,,,,
1,486.0,8,phase_2,red_rhombus,go,,,,go-1,2,,,,,,
0,0,8,phase_2,red_pentagon,stop,purple,0.0,0-SSD,go-1,4,,,,,,
2,368.0,8,phase_2,red_circle,go,,,,go-1,1,,,,,,
1,534.0,8,phase_2,red_pentagon,go,,,,go-1,1,,,,,,
2,520.0,8,phase_2,green_rhombus,go,,,,go-2,1,,,,,,
0,0,8,phase_2,red_pentagon,stop,blue,200.0,tracking-SSD,go-1,4,,,,,,
2,413.0,8,phase_2,red_circle,go,,,,go-1,1,,,,,,
0,0,8,phase_2,green_triangle,stop,purple,0.0,0-SSD,go-2,4,,,,,,
1,544.0,8,phase_2,green_triangle,go,,,,go-2,1,,,,,,
2,575.0,8,phase_2,red_rhombus,go,,,,go-1,1,,,,,,
2,381.0,8,phase_2,green_pentagon,go,,,,go-2,2,,,,,,
1,345.0,8,phase_2,green_triangle,go,,,,go-2,1,,,,,,
2,421.0,8,phase_2,green_rhombus,go,,,,go-2,1,,,,,,
2,441.0,8,phase_2,green_circle,stop,blue,250.0,tracking-SSD,go-2,3,,,,,,
2,483.0,8,phase_2,green_rhombus,go,,,,go-2,1,,,,,,
1,358.0,8,phase_2,green_pentagon,go,,,,go-2,1,,,,,,
2,399.0,8,phase_2,green_pentagon,go,,,,go-2,2,,,,,,
2,386.0,8,phase_2,green_triangle,stop,blue,200.0,tracking-SSD,go-2,3,,,,,,
0,0,8,phase_2,green_circle,stop,purple,0.0,0-SSD,go-2,4,,,,,,
2,415.0,8,phase_2,green_circle,go,,,,go-2,1,,,,,,
0,0,8,phase_2,red_triangle,stop,purple,0.0,0-SSD,go-1,4,,,,,,
1,455.0,8,phase_2,red_rhombus,go,,,,go-1,2,,,,,,
2,463.0,8,phase_2,red_triangle,go,,,,go-1,2,,,,,,
2,416.0,8,phase_2,red_circle,go,,,,go-1,1,,,,,,
1,599.0,9,phase_2,red_triangle,go,,,,go-1,1,,,,,,
0,0,9,phase_2,red_pentagon,stop,purple,0.0,0-SSD,go-1,4,,,,,,
2,324.0,9,phase_2,green_circle,go,,,,go-2,1,,,,,,
2,379.0,9,phase_2,green_rhombus,go,,,,go-2,1,,,,,,
1,411.0,9,phase_2,red_triangle,go,,,,go-1,1,,,,,,
0,0,9,phase_2,red_circle,stop,purple,0.0,0-SSD,go-1,4,,,,,,
2,363.0,9,phase_2,red_pentagon,go,,,,go-1,2,,,,,,
0,0,9,phase_2,green_circle,stop,blue,150.0,tracking-SSD,go-2,4,,,,,,
0,0,9,phase_2,green_triangle,stop,purple,0.0,0-SSD,go-2,4,,,,,,
2,344.0,9,phase_2,red_circle,go,,,,go-1,1,,,,,,
2,365.0,9,phase_2,red_circle,stop,blue,200.0,tracking-SSD,go-1,3,,,,,,
0,0,9,phase_2,green_triangle,stop,purple,0.0,0-SSD,go-2,4,,,,,,
1,382.0,9,phase_2,green_pentagon,stop,blue,150.0,tracking-SSD,go-2,3,,,,,,
2,425.0,9,phase_2,red_circle,go,,,,go-1,1,,,,,,
0,0,9,phase_2,red_rhombus,stop,purple,0.0,0-SSD,go-1,4,,,,,,
2,352.0,9,phase_2,red_triangle,go,,,,go-1,2,,,,,,
1,372.0,9,phase_2,green_pentagon,go,,,,go-2,1,,,,,,
2,347.0,9,phase_2,red_triangle,go,,,,go-1,2,,,,,,
1,355.0,9,phase_2,red_triangle,stop,blue,100.0,tracking-SSD,go-1,3,,,,,,
2,522.0,9,phase_2,green_circle,go,,,,go-2,1,,,,,,
2,554.0,9,phase_2,green_rhombus,go,,,,go-2,1,,,,,,
2,449.0,9,phase_2,red_circle,go,,,,go-1,1,,,,,,
2,525.0,9,phase_2,green_rhombus,go,,,,go-2,1,,,,,,
2,344.0,9,phase_2,green_pentagon,go,,,,go-2,2,,,,,,
1,419.0,9,phase_2,red_triangle,go,,,,go-1,1,,,,,,
1,530.0,9,phase_2,green_rhombus,go,,,,go-2,2,,,,,,
2,471.0,9,phase_2,red_rhombus,go,,,,go-1,1,,,,,,
2,436.0,9,phase_2,red_triangle,go,,,,go-1,2,,,,,,
1,444.0,9,phase_2,green_triangle,go,,,,go-2,1,,,,,,
2,577.0,9,phase_2,red_circle,go,,,,go-1,1,,,,,,
0,0,9,phase_2,green_rhombus,stop,blue,50.0,tracking-SSD,go-2,4,,,,,,
2,359.0,9,phase_2,red_rhombus,go,,,,go-1,1,,,,,,
0,0,9,phase_2,green_triangle,stop,blue,100.0,tracking-SSD,go-2,4,,,,,,
1,376.0,9,phase_2,green_rhombus,go,,,,go-2,2,,,,,,
0,0,9,phase_2,green_pentagon,stop,purple,0.0,0-SSD,go-2,4,,,,,,
2,372.0,9,phase_2,green_circle,go,,,,go-2,1,,,,,,
2,437.0,9,phase_2,red_rhombus,stop,blue,150.0,tracking-SSD,go-1,3,,,,,,
2,445.0,9,phase_2,green_pentagon,go,,,,go-2,2,,,,,,
2,476.0,9,phase_2,red_circle,go,,,,go-1,1,,,,,,
1,531.0,9,phase_2,green_pentagon,go,,,,go-2,1,,,,,,
2,360.0,9,phase_2,red_triangle,go,,,,go-1,2,,,,,,
0,0,9,phase_2,green_pentagon,stop,purple,0.0,0-SSD,go-2,4,,,,,,
0,0,9,phase_2,red_pentagon,stop,blue,100.0,tracking-SSD,go-1,4,,,,,,
2,353.0,9,phase_2,green_rhombus,go,,,,go-2,1,,,,,,
2,406.0,9,phase_2,red_circle,go,,,,go-1,1,,,,,,
0,0,9,phase_2,red_rhombus,stop,purple,0.0,0-SSD,go-1,4,,,,,,
2,311.0,9,phase_2,green_pentagon,go,,,,go-2,2,,,,,,
1,387.0,9,phase_2,green_pentagon,go,,,,go-2,1,,,,,,
1,363.0,10,phase_2,green_pentagon,stop,blue,150.0,tracking-SSD,go-2,3,,,,,,
0,0,10,phase_2,red_circle,stop,purple,0.0,0-SSD,go-1,4,,,,,,
2,425.0,10,phase_2,green_rhombus,go,,,,go-2,1,,,,,,
2,389.0,10,phase_2,red_circle,go,,,,go-1,1,,,,,,
2,511.0,10,phase_2,red_rhombus,go,,,,go-1,1,,,,,,
2,519.0,10,phase_2,red_pentagon,go,,,,go-1,2,,,,,,
0,0,10,phase_2,red_pentagon,stop,purple,0.0,0-SSD,go-1,4,,,,,,
1,458.0,10,phase_2,red_rhombus,go,,,,go-1,2,,,,,,
2,456.0,10,phase_2,red_triangle,go,,,,go-1,2,,,,,,
1,431.0,10,phase_2,green_pentagon,go,,,,go-2,1,,,,,,
1,361.0,10,phase_2,green_rhombus,go,,,,go-2,2,,,,,,
0,0,10,phase_2,green_triangle,stop,purple,0.0,0-SSD,go-2,4,,,,,,
1,560.0,10,phase_2,green_triangle,go,,,,go-2,1,,,,,,
1,535.0,10,phase_2,green_pentagon,go,,,,go-2,1,,,,,,
2,432.0,10,phase_2,green_circle,stop,blue,100.0,tracking-SSD,go-2,3,,,,,,
2,395.0,10,phase_2,red_triangle,go,,,,go-1,2,,,,,,
0,0,10,phase_2,red_pentagon,stop,blue,50.0,tracking-SSD,go-1,4,,,,,,
2,570.0,10,phase_2,red_rhombus,go,,,,go-1,1,,,,,,
2,387.0,10,phase_2,green_triangle,go,,,,go-2,2,,,,,,
1,565.0,10,phase_2,green_rhombus,go,,,,go-2,2,,,,,,
0,0,10,phase_2,green_rhombus,stop,blue,100.0,tracking-SSD,go-2,4,,,,,,
2,571.0,10,phase_2,green_rhombus,go,,,,go-2,1,,,,,,
2,400.0,10,phase_2,green_rhombus,go,,,,go-2,1,,,,,,
0,0,10,phase_2,red_pentagon,stop,blue,150.0,tracking-SSD,go-1,4,,,,,,
1,497.0,10,phase_2,green_triangle,go,,,,go-2,1,,,,,,
2,437.0,10,phase_2,green_circle,go,,,,go-2,1,,,,,,
1,514.0,10,phase_2,red_triangle,stop,blue,200.0,tracking-SSD,go-1,3,,,,,,
2,432.0,10,phase_2,red_circle,go,,,,go-1,1,,,,,,
0,0,10,phase_2,green_triangle,stop,purple,0.0,0-SSD,go-2,4,,,,,,
2,406.0,10,phase_2,red_triangle,stop,blue,150.0,tracking-SSD,go-1,3,,,,,,
1,526.0,10,phase_2,green_pentagon,go,,,,go-2,1,,,,,,
0,0,10,phase_2,red_pentagon,stop,purple,0.0,0-SSD,go-1,4,,,,,,
2,432.0,10,phase_2,green_triangle,go,,,,go-2,2,,,,,,
2,552.0,10,phase_2,red_circle,go,,,,go-1,1,,,,,,
1,483.0,10,phase_2,red_triangle,go,,,,go-1,1,,,,,,
2,412.0,10,phase_2,green_circle,go,,,,go-2,1,,,,,,
2,409.0,10,phase_2,red_circle,go,,,,go-1,1,,,,,,
2,317.0,10,phase_2,red_circle,go,,,,go-1,1,,,,,,
0,0,10,phase_2,green_rhombus,stop,purple,0.0,0-SSD,go-2,4,,,,,,
2,380.0,10,phase_2,red_rhombus,go,,,,go-1,1,,,,,,
0,0,10,phase_2,green_triangle,stop,blue,100.0,tracking-SSD,go-2,4,,,,,,
2,442.0,10,phase_2,red_circle,go,,,,go-1,1,,,,,,
2,429.0,10,phase_2,green_pentagon,go,,,,go-2,2,,,,,,
0,0,10,phase_2,green_pentagon,stop,purple,0.0,0-SSD,go-2,4,,,,,,
1,346.0,10,phase_2,red_pentagon,stop,purple,0.0,0-SSD,go-1,3,,,,,,
2,365.0,10,phase_2,green_circle,go,,,,go-2,1,,,,,,
2,510.0,10,phase_2,red_rhombus,go,,,,go-1,1,,,,,,
2,440.0,10,phase_2,red_circle,go,,,,go-1,1,,,,,,
2,387.0,11,phase_2,green_triangle,stop,blue,150.0,tracking-SSD,go-2,3,,,,,,
0,0,11,phase_2,green_triangle,stop,blue,100.0,tracking-SSD,go-2,4,,,,,,
2,450.0,11,phase_2,green_circle,go,,,,go-2,1,,,,,,
2,491.0,11,phase_2,green_circle,go,,,,go-2,1,,,,,,
2,434.0,11,phase_2,green_circle,go,,,,go-2,1,,,,,,
0,0,11,phase_2,green_pentagon,stop,purple,0.0,0-SSD,go-2,4,,,,,,
0,0,11,phase_2,green_pentagon,stop,purple,0.0,0-SSD,go-2,4,,,,,,
2,460.0,11,phase_2,red_triangle,go,,,,go-1,2,,,,,,
1,445.0,11,phase_2,green_rhombus,go,,,,go-2,2,,,,,,
1,379.0,11,phase_2,red_triangle,go,,,,go-1,1,,,,,,
1,342.0,11,phase_2,red_triangle,go,,,,go-1,1,,,,,,
0,0,11,phase_2,red_pentagon,stop,purple,0.0,0-SSD,go-1,4,,,,,,
0,0,11,phase_2,green_circle,stop,purple,0.0,0-SSD,go-2,4,,,,,,
2,370.0,11,phase_2,red_circle,go,,,,go-1,1,,,,,,
2,346.0,11,phase_2,red_triangle,go,,,,go-1,2,,,,,,
0,0,11,phase_2,green_pentagon,stop,purple,0.0,0-SSD,go-2,4,,,,,,
1,363.0,11,phase_2,red_pentagon,go,,,,go-1,1,,,,,,
2,473.0,11,phase_2,green_circle,go,,,,go-2,1,,,,,,
1,471.0,11,phase_2,red_pentagon,go,,,,go-1,1,,,,,,
2,536.0,11,phase_2,green_rhombus,go,,,,go-2,1,,,,,,
0,0,11,phase_2,red_circle,stop,purple,0.0,0-SSD,go-1,4,,,,,,
2,385.0,11,phase_2,green_rhombus,go,,,,go-2,1,,,,,,
2,394.0,11,phase_2,red_rhombus,go,,,,go-1,1,,,,,,
2,358.0,11,phase_2,red_pentagon,stop,blue,150.0,tracking-SSD,go-1,3,,,,,,
0,0,11,phase_2,green_circle,stop,blue,100.0,tracking-SSD,go-2,4,,,,,,
1,704.0,11,phase_2,red_triangle,go,,,,go-1,1,,,,,,
2,308.0,11,phase_2,green_rhombus,stop,blue,150.0,tracking-SSD,go-2,3,,,,,,
2,373.0,11,phase_2,green_pentagon,go,,,,go-2,2,,,,,,
1,460.0,11,phase_2,green_triangle,go,,,,go-2,1,,,,,,
1,426.0,11,phase_2,red_rhombus,go,,,,go-1,2,,,,,,
1,491.0,11,phase_2,green_pentagon,go,,,,go-2,1,,,,,,
0,0,11,phase_2,red_triangle,stop,blue,100.0,tracking-SSD,go-1,4,,,,,,
2,430.0,11,phase_2,red_rhombus,go,,,,go-1,1,,,,,,
0,0,11,phase_2,red_circle,stop,blue,150.0,tracking-SSD,go-1,4,,,,,,
0,0,11,phase_2,red_pentagon,stop,purple,0.0,0-SSD,go-1,4,,,,,,
2,404.0,11,phase_2,green_rhombus,go,,,,go-2,1,,,,,,
2,423.0,11,phase_2,red_rhombus,go,,,,go-1,1,,,,,,
2,409.0,11,phase_2,red_rhombus,go,,,,go-1,1,,,,,,
2,487.0,11,phase_2,green_circle,go,,,,go-2,1,,,,,,
2,429.0,11,phase_2,green_rhombus,go,,,,go-2,1,,,,,,
1,505.0,11,phase_2,green_pentagon,go,,,,go-2,1,,,,,,
0,0,11,phase_2,red_rhombus,stop,purple,0.0,0-SSD,go-1,4,,,,,,
1,388.0,11,phase_2,red_triangle,go,,,,go-1,1,,,,,,
1,407.0,11,phase_2,green_pentagon,go,,,,go-2,1,,,,,,
1,439.0,11,phase_2,green_triangle,go,,,,go-2,1,,,,,,
2,560.0,11,phase_2,red_circle,stop,blue,200.0,tracking-SSD,go-1,3,,,,,,
2,412.0,11,phase_2,red_triangle,go,,,,go-1,2,,,,,,
2,476.0,11,phase_2,red_circle,go,,,,go-1,1,,,,,,
2,329.0,12,phase_2,green_rhombus,go,,,,go-2,1,,,,,,
2,383.0,12,phase_2,red_triangle,go,,,,go-1,2,,,,,,
2,483.0,12,phase_2,green_rhombus,go,,,,go-2,1,,,,,,
1,367.0,12,phase_2,red_triangle,go,,,,go-1,1,,,,,,
1,400.0,12,phase_2,green_triangle,go,,,,go-2,1,,,,,,
0,0,12,phase_2,green_circle,stop,purple,0.0,0-SSD,go-2,4,,,,,,
0,0,12,phase_2,red_rhombus,stop,purple,0.0,0-SSD,go-1,4,,,,,,
1,447.0,12,phase_2,red_pentagon,go,,,,go-1,1,,,,,,
0,0,12,phase_2,red_rhombus,stop,purple,0.0,0-SSD,go-1,4,,,,,,
2,295.0,12,phase_2,green_circle,stop,blue,150.0,tracking-SSD,go-2,3,,,,,,
2,427.0,12,phase_2,red_triangle,go,,,,go-1,2,,,,,,
2,414.0,12,phase_2,red_rhombus,go,,,,go-1,1,,,,,,
1,422.0,12,phase_2,red_pentagon,go,,,,go-1,1,,,,,,
0,0,12,phase_2,red_circle,stop,purple,0.0,0-SSD,go-1,4,,,,,,
2,351.0,12,phase_2,green_circle,go,,,,go-2,1,,,,,,
0,0,12,phase_2,red_circle,stop,blue,100.0,tracking-SSD,go-1,4,,,,,,
0,0,12,phase_2,red_pentagon,stop,blue,150.0,tracking-SSD,go-1,4,,,,,,
0,0,12,phase_2,green_pentagon,stop,purple,0.0,0-SSD,go-2,4,,,,,,
1,373.0,12,phase_2,green_triangle,go,,,,go-2,1,,,,,,
2,327.0,12,phase_2,red_circle,go,,,,go-1,1,,,,,,
0,0,12,phase_2,red_triangle,stop,purple,0.0,0-SSD,go-1,4,,,,,,
2,321.0,12,phase_2,green_pentagon,stop,blue,200.0,tracking-SSD,go-2,3,,,,,,
1,566.0,12,phase_2,green_triangle,go,,,,go-2,1,,,,,,
2,461.0,12,phase_2,red_rhombus,stop,blue,150.0,tracking-SSD,go-1,3,,,,,,
2,448.0,12,phase_2,red_circle,go,,,,go-1,1,,,,,,
0,0,12,phase_2,green_pentagon,stop,blue,100.0,tracking-SSD,go-2,4,,,,,,
2,443.0,12,phase_2,green_circle,go,,,,go-2,1,,,,,,
1,452.0,12,phase_2,green_pentagon,go,,,,go-2,1,,,,,,
0,0,12,phase_2,green_rhombus,stop,purple,0.0,0-SSD,go-2,4,,,,,,
2,324.0,12,phase_2,red_circle,go,,,,go-1,1,,,,,,
2,400.0,12,phase_2,red_rhombus,go,,,,go-1,1,,,,,,
2,431.0,12,phase_2,red_pentagon,go,,,,go-1,2,,,,,,
1,517.0,12,phase_2,green_triangle,go,,,,go-2,1,,,,,,
2,369.0,12,phase_2,red_circle,stop,blue,150.0,tracking-SSD,go-1,3,,,,,,
1,390.0,12,phase_2,green_triangle,go,,,,go-2,1,,,,,,
1,499.0,12,phase_2,red_pentagon,go,,,,go-1,1,,,,,,
1,530.0,12,phase_2,red_pentagon,go,,,,go-1,1,,,,,,
1,584.0,12,phase_2,green_rhombus,go,,,,go-2,2,,,,,,
1,885.0,12,phase_2,green_pentagon,go,,,,go-2,1,,,,,,
2,433.0,12,phase_2,green_triangle,go,,,,go-2,2,,,,,,
1,497.0,12,phase_2,green_rhombus,go,,,,go-2,2,,,,,,
2,473.0,12,phase_2,red_circle,go,,,,go-1,1,,,,,,
1,436.0,12,phase_2,red_triangle,go,,,,go-1,1,,,,,,
0,0,12,phase_2,green_circle,stop,purple,0.0,0-SSD,go-2,4,,,,,,
2,285.0,12,phase_2,red_triangle,go,,,,go-1,2,,,,,,
1,373.0,12,phase_2,green_rhombus,go,,,,go-2,2,,,,,,
0,0,12,phase_2,green_pentagon,stop,blue,100.0,tracking-SSD,go-2,4,,,,,,
2,358.0,12,phase_2,green_rhombus,go,,,,go-2,1,,,,,,
2,419.0,13,phase_2,red_circle,go,,,,go-1,1,,,,,,
0,0,13,phase_2,red_pentagon,stop,purple,0.0,0-SSD,go-1,4,,,,,,
0,0,13,phase_2,red_triangle,stop,blue,150.0,tracking-SSD,go-1,4,,,,,,
0,0,13,phase_2,green_rhombus,stop,purple,0.0,0-SSD,go-2,4,,,,,,
2,421.0,13,phase_2,red_triangle,go,,,,go-1,2,,,,,,
2,721.0,13,phase_2,red_rhombus,go,,,,go-1,1,,,,,,
0,0,13,phase_2,green_pentagon,stop,purple,0.0,0-SSD,go-2,4,,,,,,
1,367.0,13,phase_2,red_triangle,go,,,,go-1,1,,,,,,
1,433.0,13,phase_2,green_pentagon,go,,,,go-2,1,,,,,,
1,375.0,13,phase_2,red_pentagon,go,,,,go-1,1,,,,,,
2,338.0,13,phase_2,red_circle,go,,,,go-1,1,,,,,,
2,639.0,13,phase_2,red_rhombus,go,,,,go-1,1,,,,,,
2,445.0,13,phase_2,red_pentagon,go,,,,go-1,2,,,,,,
1,319.0,13,phase_2,green_pentagon,stop,blue,200.0,tracking-SSD,go-2,3,,,,,,
2,418.0,13,phase_2,green_circle,go,,,,go-2,1,,,,,,
1,482.0,13,phase_2,green_rhombus,go,,,,go-2,2,,,,,,
1,536.0,13,phase_2,green_triangle,stop,blue,150.0,tracking-SSD,go-2,3,,,,,,
2,657.0,13,phase_2,red_rhombus,go,,,,go-1,1,,,,,,
0,0,13,phase_2,green_triangle,stop,blue,100.0,tracking-SSD,go-2,4,,,,,,
2,370.0,13,phase_2,green_circle,go,,,,go-2,1,,,,,,
2,402.0,13,phase_2,green_pentagon,go,,,,go-2,2,,,,,,
0,0,13,phase_2,red_triangle,stop,blue,150.0,tracking-SSD,go-1,4,,,,,,
2,329.0,13,phase_2,green_pentagon,go,,,,go-2,2,,,,,,
0,0,13,phase_2,red_triangle,stop,blue,200.0,tracking-SSD,go-1,4,,,,,,
0,0,13,phase_2,red_triangle,stop,purple,0.0,0-SSD,go-1,4,,,,,,
2,446.0,13,phase_2,green_rhombus,go,,,,go-2,1,,,,,,
0,0,13,phase_2,red_rhombus,stop,purple,0.0,0-SSD,go-1,4,,,,,,
1,496.0,13,phase_2,red_triangle,go,,,,go-1,1,,,,,,
1,393.0,13,phase_2,green_circle,go,,,,go-2,2,,,,,,
2,424.0,13,phase_2,red_circle,go,,,,go-1,1,,,,,,
2,400.0,13,phase_2,green_circle,go,,,,go-2,1,,,,,,
2,486.0,13,phase_2,green_rhombus,go,,,,go-2,1,,,,,,
2,395.0,13,phase_2,green_circle,go,,,,go-2,1,,,,,,
2,403.0,13,phase_2,green_rhombus,go,,,,go-2,1,,,,,,
1,614.0,13,phase_2,green_pentagon,go,,,,go-2,1,,,,,,
1,488.0,13,phase_2,red_pentagon,go,,,,go-1,1,,,,,,
2,351.0,13,phase_2,red_circle,go,,,,go-1,1,,,,,,
2,382.0,13,phase_2,red_circle,go,,,,go-1,1,,,,,,
1,482.0,13,phase_2,green_pentagon,go,,,,go-2,1,,,,,,
1,389.0,13,phase_2,red_rhombus,go,,,,go-1,2,,,,,,
0,0,13,phase_2,green_rhombus,stop,purple,0.0,0-SSD,go-2,4,,,,,,
0,0,13,phase_2,red_triangle,stop,purple,0.0,0-SSD,go-1,4,,,,,,
2,346.0,13,phase_2,green_triangle,go,,,,go-2,2,,,,,,
2,433.0,13,phase_2,green_circle,go,,,,go-2,1,,,,,,
0,0,13,phase_2,green_rhombus,stop,purple,0.0,0-SSD,go-2,4,,,,,,
2,305.0,13,phase_2,green_triangle,stop,blue,250.0,tracking-SSD,go-2,3,,,,,,
0,0,13,phase_2,red_pentagon,stop,blue,200.0,tracking-SSD,go-1,4,,,,,,
2,502.0,13,phase_2,red_circle,go,,,,go-1,1,,,,,,
1,420.0,14,phase_2,red_rhombus,stop,blue,250.0,tracking-SSD,go-1,3,,,,,,
0,0,14,phase_2,red_rhombus,stop,purple,0.0,0-SSD,go-1,4,,,,,,
2,403.0,14,phase_2,red_pentagon,go,,,,go-1,2,,,,,,
1,356.0,14,phase_2,green_rhombus,go,,,,go-2,2,,,,,,
2,433.0,14,phase_2,red_circle,stop,blue,200.0,tracking-SSD,go-1,3,,,,,,
0,0,14,phase_2,green_triangle,stop,purple,0.0,0-SSD,go-2,4,,,,,,
2,427.0,14,phase_2,green_circle,go,,,,go-2,1,,,,,,
2,402.0,14,phase_2,green_rhombus,go,,,,go-2,1,,,,,,
2,399.0,14,phase_2,green_triangle,go,,,,go-2,2,,,,,,
2,442.0,14,phase_2,red_circle,go,,,,go-1,1,,,,,,
1,406.0,14,phase_2,red_triangle,go,,,,go-1,1,,,,,,
1,358.0,14,phase_2,green_rhombus,go,,,,go-2,2,,,,,,
2,501.0,14,phase_2,red_pentagon,go,,,,go-1,2,,,,,,
0,0,14,phase_2,green_rhombus,stop,blue,150.0,tracking-SSD,go-2,4,,,,,,
0,0,14,phase_2,green_circle,stop,purple,0.0,0-SSD,go-2,4,,,,,,
2,438.0,14,phase_2,red_triangle,stop,blue,200.0,tracking-SSD,go-1,3,,,,,,
2,458.0,14,phase_2,green_circle,go,,,,go-2,1,,,,,,
2,478.0,14,phase_2,red_circle,go,,,,go-1,1,,,,,,
1,452.0,14,phase_2,red_triangle,go,,,,go-1,1,,,,,,
1,371.0,14,phase_2,green_triangle,go,,,,go-2,1,,,,,,
1,426.0,14,phase_2,green_pentagon,go,,,,go-2,1,,,,,,
1,467.0,14,phase_2,green_triangle,go,,,,go-2,1,,,,,,
1,376.0,14,phase_2,green_triangle,go,,,,go-2,1,,,,,,
2,463.0,14,phase_2,red_circle,go,,,,go-1,1,,,,,,
0,0,14,phase_2,green_triangle,stop,purple,0.0,0-SSD,go-2,4,,,,,,
2,391.0,14,phase_2,red_pentagon,stop,blue,150.0,tracking-SSD,go-1,3,,,,,,
1,500.0,14,phase_2,green_pentagon,go,,,,go-2,1,,,,,,
1,475.0,14,phase_2,red_pentagon,go,,,,go-1,1,,,,,,
1,359.0,14,phase_2,red_pentagon,go,,,,go-1,1,,,,,,
1,369.0,14,phase_2,red_pentagon,go,,,,go-1,1,,,,,,
1,345.0,14,phase_2,green_rhombus,stop,blue,100.0,tracking-SSD,go-2,3,,,,,,
1,487.0,14,phase_2,red_pentagon,go,,,,go-1,1,,,,,,
0,0,14,phase_2,red_circle,stop,purple,0.0,0-SSD,go-1,4,,,,,,
0,0,14,phase_2,green_triangle,stop,purple,0.0,0-SSD,go-2,4,,,,,,
0,0,14,phase_2,red_rhombus,stop,purple,0.0,0-SSD,go-1,4,,,,,,
1,376.0,14,phase_2,red_pentagon,go,,,,go-1,1,,,,,,
2,609.0,14,phase_2,green_rhombus,go,,,,go-2,1,,,,,,
2,417.0,14,phase_2,red_circle,go,,,,go-1,1,,,,,,
1,414.0,14,phase_2,red_rhombus,go,,,,go-1,2,,,,,,
1,377.0,14,phase_2,red_triangle,go,,,,go-1,1,,,,,,
1,409.0,14,phase_2,green_rhombus,go,,,,go-2,2,,,,,,
0,0,14,phase_2,green_rhombus,stop,blue,50.0,tracking-SSD,go-2,4,,,,,,
0,0,14,phase_2,red_pentagon,stop,purple,0.0,0-SSD,go-1,4,,,,,,
2,355.0,14,phase_2,green_pentagon,go,,,,go-2,2,,,,,,
2,398.0,14,phase_2,green_circle,go,,,,go-2,1,,,,,,
2,363.0,14,phase_2,green_circle,go,,,,go-2,1,,,,,,
2,393.0,14,phase_2,red_circle,go,,,,go-1,1,,,,,,
0,0,14,phase_2,green_triangle,stop,blue,100.0,tracking-SSD,go-2,4,,,,,,
1,419.0,15,phase_2,red_triangle,stop,blue,150.0,tracking-SSD,go-1,3,,,,,,
1,394.0,15,phase_2,green_triangle,go,,,,go-2,1,,,,,,
2,470.0,15,phase_2,red_circle,go,,,,go-1,1,,,,,,
0,0,15,phase_2,green_rhombus,stop,blue,100.0,tracking-SSD,go-2,4,,,,,,
2,443.0,15,phase_2,red_circle,go,,,,go-1,1,,,,,,
0,0,15,phase_2,red_circle,stop,purple,0.0,0-SSD,go-1,4,,,,,,
2,380.0,15,phase_2,green_circle,go,,,,go-2,1,,,,,,
1,434.0,15,phase_2,green_pentagon,go,,,,go-2,1,,,,,,
2,420.0,15,phase_2,green_circle,go,,,,go-2,1,,,,,,
1,317.0,15,phase_2,green_pentagon,go,,,,go-2,1,,,,,,
2,302.0,15,phase_2,red_pentagon,go,,,,go-1,2,,,,,,
0,0,15,phase_2,green_rhombus,stop,purple,0.0,0-SSD,go-2,4,,,,,,
2,410.0,15,phase_2,red_circle,stop,blue,150.0,tracking-SSD,go-1,3,,,,,,
2,317.0,15,phase_2,red_circle,go,,,,go-1,1,,,,,,
0,0,15,phase_2,green_triangle,stop,blue,100.0,tracking-SSD,go-2,4,,,,,,
1,415.0,15,phase_2,green_rhombus,go,,,,go-2,2,,,,,,
2,580.0,15,phase_2,green_rhombus,go,,,,go-2,1,,,,,,
1,555.0,15,phase_2,green_pentagon,go,,,,go-2,1,,,,,,
2,518.0,15,phase_2,red_circle,stop,blue,150.0,tracking-SSD,go-1,3,,,,,,
0,0,15,phase_2,red_triangle,stop,purple,0.0,0-SSD,go-1,4,,,,,,
0,0,15,phase_2,red_rhombus,stop,blue,100.0,tracking-SSD,go-1,4,,,,,,
2,433.0,15,phase_2,red_circle,go,,,,go-1,1,,,,,,
2,374.0,15,phase_2,green_circle,go,,,,go-2,1,,,,,,
1,427.0,15,phase_2,green_triangle,go,,,,go-2,1,,,,,,
1,391.0,15,phase_2,green_pentagon,go,,,,go-2,1,,,,,,
1,489.0,15,phase_2,green_triangle,go,,,,go-2,1,,,,,,
2,454.0,15,phase_2,red_triangle,go,,,,go-1,2,,,,,,
2,518.0,15,phase_2,red_rhombus,go,,,,go-1,1,,,,,,
0,0,15,phase_2,green_pentagon,stop,blue,150.0,tracking-SSD,go-2,4,,,,,,
2,435.0,15,phase_2,red_triangle,go,,,,go-1,2,,,,,,
2,590.0,15,phase_2,green_rhombus,go,,,,go-2,1,,,,,,
0,0,15,phase_2,green_circle,stop,purple,0.0,0-SSD,go-2,4,,,,,,
1,495.0,15,phase_2,green_triangle,go,,,,go-2,1,,,,,,
1,470.0,15,phase_2,green_rhombus,go,,,,go-2,2,,,,,,
1,445.0,15,phase_2,red_pentagon,go,,,,go-1,1,,,,,,
1,419.0,15,phase_2,green_pentagon,stop,blue,200.0,tracking-SSD,go-2,3,,,,,,
2,428.0,15,phase_2,red_circle,go,,,,go-1,1,,,,,,
2,415.0,15,phase_2,red_pentagon,go,,,,go-1,2,,,,,,
2,547.0,15,phase_2,green_rhombus,go,,,,go-2,1,,,,,,
0,0,15,phase_2,green_rhombus,stop,purple,0.0,0-SSD,go-2,4,,,,,,
0,0,15,phase_2,red_triangle,stop,purple,0.0,0-SSD,go-1,4,,,,,,
0,0,15,phase_2,red_triangle,stop,purple,0.0,0-SSD,go-1,4,,,,,,
1,481.0,15,phase_2,red_pentagon,go,,,,go-1,1,,,,,,
2,534.0,15,phase_2,red_rhombus,go,,,,go-1,1,,,,,,
0,0,15,phase_2,green_pentagon,stop,purple,0.0,0-SSD,go-2,4,,,,,,
1,438.0,15,phase_2,red_pentagon,go,,,,go-1,1,,,,,,
2,493.0,15,phase_2,red_rhombus,go,,,,go-1,1,,,,,,
2,479.0,15,phase_2,red_triangle,go,,,,go-1,2,,,,,,
1,487.0,16,phase_2,red_rhombus,go,,,,go-1,2,,,,,,
0,0,16,phase_2,red_pentagon,stop,purple,0.0,0-SSD,go-1,4,,,,,,
2,303.0,16,phase_2,red_circle,go,,,,go-1,1,,,,,,
1,413.0,16,phase_2,green_rhombus,go,,,,go-2,2,,,,,,
2,467.0,16,phase_2,green_rhombus,go,,,,go-2,1,,,,,,
0,0,16,phase_2,red_triangle,stop,blue,150.0,tracking-SSD,go-1,4,,,,,,
1,472.0,16,phase_2,green_pentagon,go,,,,go-2,1,,,,,,
2,380.0,16,phase_2,red_circle,go,,,,go-1,1,,,,,,
1,456.0,16,phase_2,green_pentagon,stop,blue,200.0,tracking-SSD,go-2,3,,,,,,
2,421.0,16,phase_2,green_circle,go,,,,go-2,1,,,,,,
1,394.0,16,phase_2,red_triangle,stop,blue,150.0,tracking-SSD,go-1,3,,,,,,
0,0,16,phase_2,green_rhombus,go,,,,go-2,2,,,,,,
0,0,16,phase_2,green_pentagon,stop,blue,100.0,tracking-SSD,go-2,4,,,,,,
2,342.0,16,phase_2,red_circle,go,,,,go-1,1,,,,,,
0,0,16,phase_2,red_rhombus,stop,purple,0.0,0-SSD,go-1,4,,,,,,
2,360.0,16,phase_2,green_triangle,go,,,,go-2,2,,,,,,
2,469.0,16,phase_2,red_rhombus,go,,,,go-1,1,,,,,,
0,0,16,phase_2,green_rhombus,stop,purple,0.0,0-SSD,go-2,4,,,,,,
1,420.0,16,phase_2,red_pentagon,go,,,,go-1,1,,,,,,
1,316.0,16,phase_2,green_rhombus,go,,,,go-2,2,,,,,,
1,640.0,16,phase_2,green_pentagon,go,,,,go-2,1,,,,,,
2,412.0,16,phase_2,green_circle,go,,,,go-2,1,,,,,,
2,476.0,16,phase_2,red_pentagon,go,,,,go-1,2,,,,,,
1,541.0,16,phase_2,red_triangle,go,,,,go-1,1,,,,,,
2,449.0,16,phase_2,red_circle,go,,,,go-1,1,,,,,,
2,391.0,16,phase_2,red_circle,go,,,,go-1,1,,,,,,
1,445.0,16,phase_2,red_triangle,go,,,,go-1,1,,,,,,
1,453.0,16,phase_2,red_pentagon,go,,,,go-1,1,,,,,,
1,407.0,16,phase_2,green_pentagon,go,,,,go-2,1,,,,,,
0,0,16,phase_2,green_triangle,stop,purple,0.0,0-SSD,go-2,4,,,,,,
0,0,16,phase_2,green_circle,stop,purple,0.0,0-SSD,go-2,4,,,,,,
1,490.0,16,phase_2,red_triangle,go,,,,go-1,1,,,,,,
0,0,16,phase_2,red_pentagon,stop,purple,0.0,0-SSD,go-1,4,,,,,,
2,483.0,16,phase_2,green_rhombus,go,,,,go-2,1,,,,,,
0,0,16,phase_2,green_pentagon,stop,blue,150.0,tracking-SSD,go-2,4,,,,,,
2,422.0,16,phase_2,red_triangle,go,,,,go-1,2,,,,,,
2,476.0,16,phase_2,green_pentagon,go,,,,go-2,2,,,,,,
0,0,16,phase_2,green_rhombus,stop,purple,0.0,0-SSD,go-2,4,,,,,,
2,381.0,16,phase_2,red_circle,stop,blue,200.0,tracking-SSD,go-1,3,,,,,,
2,379.0,16,phase_2,green_triangle,stop,blue,150.0,tracking-SSD,go-2,3,,,,,,
2,399.0,16,phase_2,green_rhombus,go,,,,go-2,1,,,,,,
2,543.0,16,phase_2,red_circle,go,,,,go-1,1,,,,,,
1,473.0,16,phase_2,red_triangle,go,,,,go-1,1,,,,,,
0,0,16,phase_2,red_triangle,stop,blue,100.0,tracking-SSD,go-1,4,,,,,,
2,355.0,16,phase_2,green_triangle,go,,,,go-2,2,,,,,,
0,0,16,phase_2,red_circle,stop,purple,0.0,0-SSD,go-1,4,,,,,,
2,385.0,16,phase_2,green_circle,go,,,,go-2,1,,,,,,
1,495.0,16,phase_2,green_rhombus,go,,,,go-2,2,,,,,,
0,0,17,phase_2,green_triangle,stop,blue,150.0,tracking-SSD,go-2,4,,,,,,
0,0,17,phase_2,green_triangle,stop,purple,0.0,0-SSD,go-2,4,,,,,,
1,382.0,17,phase_2,red_rhombus,go,,,,go-1,2,,,,,,
2,424.0,17,phase_2,red_rhombus,go,,,,go-1,1,,,,,,
0,0,17,phase_2,green_pentagon,stop,purple,0.0,0-SSD,go-2,4,,,,,,
2,521.0,17,phase_2,red_circle,stop,blue,200.0,tracking-SSD,go-1,3,,,,,,
1,440.0,17,phase_2,green_pentagon,go,,,,go-2,1,,,,,,
0,0,17,phase_2,red_pentagon,stop,blue,150.0,tracking-SSD,go-1,4,,,,,,
2,310.0,17,phase_2,red_circle,go,,,,go-1,1,,,,,,
2,431.0,17,phase_2,green_rhombus,go,,,,go-2,1,,,,,,
2,451.0,17,phase_2,red_circle,go,,,,go-1,1,,,,,,
2,607.0,17,phase_2,red_triangle,go,,,,go-1,2,,,,,,
1,379.0,17,phase_2,red_pentagon,stop,blue,200.0,tracking-SSD,go-1,3,,,,,,
1,444.0,17,phase_2,green_pentagon,stop,blue,150.0,tracking-SSD,go-2,3,,,,,,
2,497.0,17,phase_2,green_circle,go,,,,go-2,1,,,,,,
1,518.0,17,phase_2,green_triangle,go,,,,go-2,1,,,,,,
1,413.0,17,phase_2,green_triangle,go,,,,go-2,1,,,,,,
1,412.0,17,phase_2,red_triangle,go,,,,go-1,1,,,,,,
2,409.0,17,phase_2,green_pentagon,go,,,,go-2,2,,,,,,
1,429.0,17,phase_2,green_pentagon,go,,,,go-2,1,,,,,,
1,370.0,17,phase_2,green_pentagon,go,,,,go-2,1,,,,,,
2,503.0,17,phase_2,red_circle,go,,,,go-1,1,,,,,,
0,0,17,phase_2,red_rhombus,stop,purple,0.0,0-SSD,go-1,4,,,,,,
0,0,17,phase_2,red_circle,stop,purple,0.0,0-SSD,go-1,4,,,,,,
2,720.0,17,phase_2,red_rhombus,go,,,,go-1,1,,,,,,
0,0,17,phase_2,red_circle,stop,blue,100.0,tracking-SSD,go-1,4,,,,,,
1,401.0,17,phase_2,green_circle,go,,,,go-2,2,,,,,,
1,398.0,17,phase_2,red_rhombus,go,,,,go-1,2,,,,,,
2,417.0,17,phase_2,green_triangle,go,,,,go-2,2,,,,,,
2,471.0,17,phase_2,red_circle,go,,,,go-1,1,,,,,,
2,400.0,17,phase_2,red_circle,go,,,,go-1,1,,,,,,
0,0,17,phase_2,green_pentagon,stop,purple,0.0,0-SSD,go-2,4,,,,,,
1,486.0,17,phase_2,green_rhombus,go,,,,go-2,2,,,,,,
2,550.0,17,phase_2,green_triangle,go,,,,go-2,2,,,,,,
2,615.0,17,phase_2,green_rhombus,go,,,,go-2,1,,,,,,
1,545.0,17,phase_2,green_pentagon,go,,,,go-2,1,,,,,,
2,441.0,17,phase_2,red_circle,go,,,,go-1,1,,,,,,
0,0,17,phase_2,green_triangle,stop,blue,150.0,tracking-SSD,go-2,4,,,,,,
1,482.0,17,phase_2,green_triangle,go,,,,go-2,1,,,,,,
1,412.0,17,phase_2,red_rhombus,go,,,,go-1,2,,,,,,
1,533.0,17,phase_2,red_pentagon,go,,,,go-1,1,,,,,,
1,507.0,17,phase_2,red_rhombus,go,,,,go-1,2,,,,,,
0,0,17,phase_2,green_circle,stop,blue,200.0,tracking-SSD,go-2,4,,,,,,
1,402.0,17,phase_2,red_triangle,go,,,,go-1,1,,,,,,
0,0,17,phase_2,red_pentagon,stop,purple,0.0,0-SSD,go-1,4,,,,,,
0,0,17,phase_2,red_rhombus,stop,purple,0.0,0-SSD,go-1,4,,,,,,
2,427.0,17,phase_2,green_rhombus,go,,,,go-2,1,,,,,,
0,0,17,phase_2,green_triangle,stop,purple,0.0,0-SSD,go-2,4,,,,,,
,1218.0,1,phase_3,,,,,,,,blue_square,tracking-SSD,purple_square,0-SSD,blue_square,tracking-SSD
0,0,1,phase_3,,,,,,,,,,red_square,go-1,green_square,go-2
0,0,1,phase_3,,,,,,,,,,green_square,go-2,purple_square,0-SSD
0,0,1,phase_3,,,,,,,,,,red_square,go-1,purple_square,0-SSD
0,0,1,phase_3,,,,,,,,,,red_square,go-1,blue_square,tracking-SSD
0,0,1,phase_3,,,,,,,,,,green_square,go-2,blue_square,tracking-SSD
0,0,1,phase_3,,,,,,,,,,green_square,go-2,red_square,go-1
0,0,1,phase_3,,,,,,,,,,blue_square,tracking-SSD,green_square,go-2
0,0,1,phase_3,,,,,,,,,,purple_square,0-SSD,green_square,go-2
0,0,1,phase_3,,,,,,,,,,blue_square,tracking-SSD,red_square,go-1
,590.0,1,phase_3,,,,,,,,blue_square,tracking-SSD,blue_square,tracking-SSD,purple_square,0-SSD
,821.0,1,phase_3,,,,,,,,purple_square,0-SSD,purple_square,0-SSD,red_square,go-1
,1927.0,2,phase_3,,,,,,,,blue_square,tracking-SSD,purple_square,0-SSD,blue_square,tracking-SSD
,652.0,2,phase_3,,,,,,,,red_square,go-1,red_square,go-1,blue_square,tracking-SSD
,738.0,2,phase_3,,,,,,,,red_square,go-1,red_square,go-1,green_square,go-2
,553.0,2,phase_3,,,,,,,,purple_square,0-SSD,green_square,go-2,purple_square,0-SSD
,694.0,2,phase_3,,,,,,,,purple_square,0-SSD,red_square,go-1,purple_square,0-SSD
,860.0,2,phase_3,,,,,,,,blue_square,tracking-SSD,green_square,go-2,blue_square,tracking-SSD
,1091.0,2,phase_3,,,,,,,,blue_square,tracking-SSD,blue_square,tracking-SSD,green_square,go-2
,671.0,2,phase_3,,,,,,,,red_square,go-1,green_square,go-2,red_square,go-1
,802.0,2,phase_3,,,,,,,,blue_square,tracking-SSD,blue_square,tracking-SSD,red_square,go-1
,1135.0,2,phase_3,,,,,,,,purple_square,0-SSD,purple_square,0-SSD,green_square,go-2
,1276.0,2,phase_3,,,,,,,,purple_square,0-SSD,blue_square,tracking-SSD,purple_square,0-SSD
,1352.0,2,phase_3,,,,,,,,red_square,go-1,purple_square,0-SSD,red_square,go-1
0,0,3,phase_3,,,,,,,,,,purple_square,0-SSD,blue_square,tracking-SSD
0,0,3,phase_3,,,,,,,,,,red_square,go-1,purple_square,0-SSD
0,0,3,phase_3,,,,,,,,,,green_square,go-2,blue_square,tracking-SSD
0,0,3,phase_3,,,,,,,,,,green_square,go-2,purple_square,0-SSD
0,0,3,phase_3,,,,,,,,,,red_square,go-1,green_square,go-2
0,0,3,phase_3,,,,,,,,,,red_square,go-1,blue_square,tracking-SSD
0,0,3,phase_3,,,,,,,,,,green_square,go-2,red_square,go-1
0,0,3,phase_3,,,,,,,,,,blue_square,tracking-SSD,green_square,go-2
0,0,3,phase_3,,,,,,,,,,blue_square,tracking-SSD,purple_square,0-SSD
0,0,3,phase_3,,,,,,,,,,purple_square,0-SSD,red_square,go-1
0,0,3,phase_3,,,,,,,,,,purple_square,0-SSD,green_square,go-2
0,0,3,phase_3,,,,,,,,,,blue_square,tracking-SSD,red_square,go-1
,657.0,4,phase_3,,,,,,,,red_square,go-1,red_square,go-1,green_square,go-2
,652.0,4,phase_3,,,,,,,,purple_square,0-SSD,green_square,go-2,purple_square,0-SSD
,760.0,4,phase_3,,,,,,,,purple_square,0-SSD,red_square,go-1,purple_square,0-SSD
,836.0,4,phase_3,,,,,,,,blue_square,tracking-SSD,red_square,go-1,blue_square,tracking-SSD
,1100.0,4,phase_3,,,,,,,,purple_square,0-SSD,purple_square,0-SSD,blue_square,tracking-SSD
,712.0,4,phase_3,,,,,,,,blue_square,tracking-SSD,green_square,go-2,blue_square,tracking-SSD
,866.0,4,phase_3,,,,,,,,purple_square,0-SSD,purple_square,0-SSD,red_square,go-1
,714.0,4,phase_3,,,,,,,,red_square,go-1,green_square,go-2,red_square,go-1
,765.0,4,phase_3,,,,,,,,blue_square,tracking-SSD,blue_square,tracking-SSD,green_square,go-2
,694.0,4,phase_3,,,,,,,,purple_square,0-SSD,purple_square,0-SSD,green_square,go-2
,891.0,4,phase_3,,,,,,,,blue_square,tracking-SSD,blue_square,tracking-SSD,red_square,go-1
,863.0,4,phase_3,,,,,,,,purple_square,0-SSD,blue_square,tracking-SSD,purple_square,0-SSD
,600.0,5,phase_3,,,,,,,,red_square,go-1,red_square,go-1,green_square,go-2
,662.0,5,phase_3,,,,,,,,blue_square,tracking-SSD,green_square,go-2,blue_square,tracking-SSD
,737.0,5,phase_3,,,,,,,,purple_square,0-SSD,red_square,go-1,purple_square,0-SSD
,766.0,5,phase_3,,,,,,,,blue_square,tracking-SSD,red_square,go-1,blue_square,tracking-SSD
,1120.0,5,phase_3,,,,,,,,purple_square,0-SSD,purple_square,0-SSD,blue_square,tracking-SSD
,1218.0,5,phase_3,,,,,,,,purple_square,0-SSD,green_square,go-2,purple_square,0-SSD
,842.0,5,phase_3,,,,,,,,red_square,go-1,green_square,go-2,red_square,go-1
,950.0,5,phase_3,,,,,,,,purple_square,0-SSD,blue_square,tracking-SSD,purple_square,0-SSD
,1002.0,5,phase_3,,,,,,,,red_square,go-1,blue_square,tracking-SSD,red_square,go-1
,987.0,5,phase_3,,,,,,,,purple_square,0-SSD,purple_square,0-SSD,green_square,go-2
,1173.0,5,phase_3,,,,,,,,blue_square,tracking-SSD,blue_square,tracking-SSD,green_square,go-2
,1146.0,5,phase_3,,,,,,,,purple_square,0-SSD,purple_square,0-SSD,red_square,go-1
