response,reaction_time,block,which_phase,stim,stop_signal_trial_type,stop_signal_stimulus,SSD,SSD_type,condition,accuracy,chosen_stim,chosen_cond,stim_left,cond_left,stim_right,cond_right
0,0,1,phase_2,red_circle,stop,green,0.0,0-SSD,go-2,4,,,,,,
1,452.0,1,phase_2,red_triangle,go,,,,go-2,1,,,,,,
0,0,1,phase_2,blue_pentagon,stop,green,0.0,0-SSD,go-1,4,,,,,,
2,559.0,1,phase_2,blue_rhombus,go,,,,go-1,1,,,,,,
1,389.0,1,phase_2,red_triangle,go,,,,go-2,1,,,,,,
2,534.0,1,phase_2,blue_rhombus,go,,,,go-1,1,,,,,,
0,0,1,phase_2,blue_pentagon,stop,green,0.0,0-SSD,go-1,4,,,,,,
2,465.0,1,phase_2,red_circle,go,,,,go-2,1,,,,,,
2,507.0,1,phase_2,red_circle,go,,,,go-2,1,,,,,,
1,483.0,1,phase_2,red_pentagon,go,,,,go-2,1,,,,,,
2,639.0,1,phase_2,red_rhombus,go,,,,go-2,1,,,,,,
1,525.0,1,phase_2,red_triangle,go,,,,go-2,1,,,,,,
2,615.0,1,phase_2,blue_circle,stop,purple,250.0,tracking-SSD,go-1,3,,,,,,
0,0,1,phase_2,red_circle,stop,green,0.0,0-SSD,go-2,4,,,,,,
2,636.0,1,phase_2,blue_rhombus,go,,,,go-1,1,,,,,,
0,0,1,phase_2,blue_pentagon,stop,green,0.0,0-SSD,go-1,4,,,,,,
0,0,1,phase_2,red_rhombus,stop,green,0.0,0-SSD,go-2,4,,,,,,
0,0,1,phase_2,red_pentagon,stop,purple,200.0,tracking-SSD,go-2,4,,,,,,
0,0,1,phase_2,blue_pentagon,stop,purple,250.0,tracking-SSD,go-1,4,,,,,,
2,862.0,1,phase_2,blue_circle,go,,,,go-1,1,,,,,,
1,387.0,1,phase_2,blue_triangle,stop,purple,300.0,tracking-SSD,go-1,3,,,,,,
2,452.0,1,phase_2,blue_pentagon,go,,,,go-1,2,,,,,,
2,494.0,1,phase_2,blue_circle,go,,,,go-1,1,,,,,,
0,0,1,phase_2,red_rhombus,stop,purple,250.0,tracking-SSD,go-2,4,,,,,,
2,547.0,1,phase_2,red_circle,go,,,,go-2,1,,,,,,
0,0,1,phase_2,red_pentagon,stop,green,0.0,0-SSD,go-2,4,,,,,,
2,643.0,1,phase_2,red_rhombus,go,,,,go-2,1,,,,,,
2,764.0,1,phase_2,red_circle,go,,,,go-2,1,,,,,,
1,547.0,1,phase_2,blue_rhombus,stop,purple,300.0,tracking-SSD,go-1,3,,,,,,
2,512.0,1,phase_2,blue_rhombus,go,,,,go-1,1,,,,,,
1,487.0,1,phase_2,blue_triangle,go,,,,go-1,1,,,,,,
1,418.0,1,phase_2,blue_triangle,go,,,,go-1,1,,,,,,
1,472.0,1,phase_2,blue_rhombus,go,,,,go-1,2,,,,,,
2,470.0,1,phase_2,red_rhombus,go,,,,go-2,1,,,,,,
1,638.0,1,phase_2,red_pentagon,go,,,,go-2,1,,,,,,
1,568.0,1,phase_2,blue_triangle,go,,,,go-1,1,,,,,,
2,397.0,1,phase_2,blue_circle,go,,,,go-1,1,,,,,,
2,552.0,1,phase_2,red_circle,go,,,,go-2,1,,,,,,
1,414.0,1,phase_2,blue_triangle,go,,,,go-1,1,,,,,,
2,436.0,1,phase_2,blue_rhombus,go,,,,go-1,1,,,,,,
1,556.0,1,phase_2,red_pentagon,go,,,,go-2,1,,,,,,
1,464.0,1,phase_2,blue_triangle,go,,,,go-1,1,,,,,,
0,0,1,phase_2,red_triangle,stop,purple,250.0,tracking-SSD,go-2,4,,,,,,
2,504.0,1,phase_2,red_circle,go,,,,go-2,1,,,,,,
1,468.0,1,phase_2,red_triangle,stop,purple,300.0,tracking-SSD,go-2,3,,,,,,
1,689.0,1,phase_2,blue_pentagon,go,,,,go-1,1,,,,,,
0,0,1,phase_2,blue_pentagon,stop,green,0.0,0-SSD,go-1,4,,,,,,
1,538.0,1,phase_2,red_triangle,go,,,,go-2,1,,,,,,
1,589.0,2,phase_2,blue_pentagon,go,,,,go-1,1,,,,,,
1,710.0,2,phase_2,red_pentagon,go,,,,go-2,1,,,,,,
2,539.0,2,phase_2,blue_circle,stop,purple,250.0,tracking-SSD,go-1,3,,,,,,
1,447.0,2,phase_2,red_triangle,go,,,,go-2,1,,,,,,
1,400.0,2,phase_2,blue_triangle,stop,purple,200.0,tracking-SSD,go-1,3,,,,,,
2,545.0,2,phase_2,blue_circle,go,,,,go-1,1,,,,,,
0,0,2,phase_2,red_pentagon,stop,purple,150.0,tracking-SSD,go-2,4,,,,,,
2,507.0,2,phase_2,blue_rhombus,go,,,,go-1,1,,,,,,
1,383.0,2,phase_2,red_circle,go,,,,go-2,2,,,,,,
2,640.0,2,phase_2,red_circle,go,,,,go-2,1,,,,,,
1,457.0,2,phase_2,blue_pentagon,go,,,,go-1,1,,,,,,
2,489.0,2,phase_2,blue_circle,go,,,,go-1,1,,,,,,
2,700.0,2,phase_2,red_rhombus,go,,,,go-2,1,,,,,,
1,495.0,2,phase_2,red_triangle,go,,,,go-2,1,,,,,,
1,539.0,2,phase_2,red_triangle,go,,,,go-2,1,,,,,,
2,458.0,2,phase_2,red_rhombus,go,,,,go-2,1,,,,,,
0,0,2,phase_2,red_pentagon,stop,green,0.0,0-SSD,go-2,4,,,,,,
0,0,2,phase_2,red_triangle,stop,green,0.0,0-SSD,go-2,4,,,,,,
2,484.0,2,phase_2,red_rhombus,go,,,,go-2,1,,,,,,
0,0,2,phase_2,blue_pentagon,stop,green,0.0,0-SSD,go-1,4,,,,,,
1,604.0,2,phase_2,blue_pentagon,go,,,,go-1,1,,,,,,
1,545.0,2,phase_2,blue_triangle,go,,,,go-1,1,,,,,,
2,408.0,2,phase_2,red_circle,go,,,,go-2,1,,,,,,
2,506.0,2,phase_2,blue_circle,go,,,,go-1,1,,,,,,
1,402.0,2,phase_2,red_triangle,go,,,,go-2,1,,,,,,
2,490.0,2,phase_2,red_circle,go,,,,go-2,1,,,,,,
1,543.0,2,phase_2,red_triangle,go,,,,go-2,1,,,,,,
1,418.0,2,phase_2,blue_triangle,go,,,,go-1,1,,,,,,
2,437.0,2,phase_2,blue_rhombus,go,,,,go-1,1,,,,,,
1,547.0,2,phase_2,red_pentagon,go,,,,go-2,1,,,,,,
2,522.0,2,phase_2,blue_rhombus,go,,,,go-1,1,,,,,,
1,644.0,2,phase_2,blue_pentagon,go,,,,go-1,1,,,,,,
2,451.0,2,phase_2,blue_circle,go,,,,go-1,1,,,,,,
0,0,2,phase_2,red_rhombus,stop,purple,200.0,tracking-SSD,go-2,4,,,,,,
1,548.0,2,phase_2,red_triangle,stop,purple,250.0,tracking-SSD,go-2,3,,,,,,
2,523.0,2,phase_2,blue_circle,go,,,,go-1,1,,,,,,
0,0,2,phase_2,blue_rhombus,stop,green,0.0,0-SSD,go-1,4,,,,,,
0,0,2,phase_2,blue_circle,stop,purple,200.0,tracking-SSD,go-1,4,,,,,,
0,0,2,phase_2,blue_rhombus,stop,green,0.0,0-SSD,go-1,4,,,,,,
0,0,2,phase_2,red_pentagon,stop,green,0.0,0-SSD,go-2,4,,,,,,
0,0,2,phase_2,red_pentagon,stop,green,0.0,0-SSD,go-2,4,,,,,,
0,0,2,phase_2,red_pentagon,stop,purple,250.0,tracking-SSD,go-2,4,,,,,,
2,553.0,2,phase_2,blue_rhombus,go,,,,go-1,1,,,,,,
1,518.0,2,phase_2,blue_triangle,stop,purple,300.0,tracking-SSD,go-1,3,,,,,,
2,661.0,2,phase_2,red_rhombus,go,,,,go-2,1,,,,,,
0,0,2,phase_2,blue_triangle,stop,green,0.0,0-SSD,go-1,4,,,,,,
2,545.0,2,phase_2,blue_rhombus,go,,,,go-1,1,,,,,,
1,385.0,2,phase_2,red_circle,go,,,,go-2,2,,,,,,
2,398.0,3,phase_2,blue_pentagon,stop,purple,250.0,tracking-SSD,go-1,3,,,,,,
2,586.0,3,phase_2,blue_rhombus,go,,,,go-1,1,,,,,,
2,381.0,3,phase_2,blue_rhombus,go,,,,go-1,1,,,,,,
1,425.0,3,phase_2,red_circle,stop,purple,200.0,tracking-SSD,go-2,3,,,,,,
1,503.0,3,phase_2,blue_triangle,go,,,,go-1,1,,,,,,
0,0,3,phase_2,red_pentagon,stop,green,0.0,0-SSD,go-2,4,,,,,,
0,0,3,phase_2,red_triangle,stop,purple,150.0,tracking-SSD,go-2,4,,,,,,
2,440.0,3,phase_2,red_circle,stop,purple,200.0,tracking-SSD,go-2,3,,,,,,
0,0,3,phase_2,blue_rhombus,stop,green,0.0,0-SSD,go-1,4,,,,,,
0,0,3,phase_2,blue_triangle,stop,green,0.0,0-SSD,go-1,4,,,,,,
0,0,3,phase_2,blue_rhombus,stop,purple,150.0,tracking-SSD,go-1,4,,,,,,
2,612.0,3,phase_2,red_rhombus,go,,,,go-2,1,,,,,,
1,510.0,3,phase_2,red_circle,go,,,,go-2,2,,,,,,
1,441.0,3,phase_2,blue_circle,go,,,,go-1,2,,,,,,
2,539.0,3,phase_2,red_pentagon,go,,,,go-2,2,,,,,,
2,390.0,3,phase_2,red_rhombus,go,,,,go-2,1,,,,,,
0,0,3,phase_2,blue_triangle,stop,green,0.0,0-SSD,go-1,4,,,,,,
2,544.0,3,phase_2,red_rhombus,go,,,,go-2,1,,,,,,
1,689.0,3,phase_2,blue_pentagon,go,,,,go-1,1,,,,,,
0,0,3,phase_2,red_circle,stop,green,0.0,0-SSD,go-2,4,,,,,,
2,583.0,3,phase_2,blue_circle,go,,,,go-1,1,,,,,,
1,524.0,3,phase_2,red_triangle,go,,,,go-2,1,,,,,,
1,613.0,3,phase_2,red_triangle,go,,,,go-2,1,,,,,,
2,419.0,3,phase_2,blue_rhombus,go,,,,go-1,1,,,,,,
2,395.0,3,phase_2,red_rhombus,go,,,,go-2,1,,,,,,
0,0,3,phase_2,blue_triangle,stop,green,0.0,0-SSD,go-1,4,,,,,,
1,503.0,3,phase_2,blue_triangle,go,,,,go-1,1,,,,,,
1,411.0,3,phase_2,red_pentagon,go,,,,go-2,1,,,,,,
1,599.0,3,phase_2,blue_pentagon,go,,,,go-1,1,,,,,,
2,428.0,3,phase_2,red_circle,go,,,,go-2,1,,,,,,
2,448.0,3,phase_2,blue_rhombus,stop,purple,200.0,tracking-SSD,go-1,3,,,,,,
2,391.0,3,phase_2,red_rhombus,go,,,,go-2,1,,,,,,
1,457.0,3,phase_2,red_triangle,go,,,,go-2,1,,,,,,
2,409.0,3,phase_2,red_circle,stop,green,0.0,0-SSD,go-2,3,,,,,,
2,452.0,3,phase_2,red_rhombus,stop,purple,150.0,tracking-SSD,go-2,3,,,,,,
2,505.0,3,phase_2,red_pentagon,go,,,,go-2,2,,,,,,
1,447.0,3,phase_2,blue_triangle,go,,,,go-1,1,,,,,,
2,479.0,3,phase_2,red_circle,go,,,,go-2,1,,,,,,
1,442.0,3,phase_2,blue_triangle,go,,,,go-1,1,,,,,,
2,417.0,3,phase_2,blue_circle,go,,,,go-1,1,,,,,,
2,369.0,3,phase_2,red_pentagon,go,,,,go-2,2,,,,,,
1,569.0,3,phase_2,blue_pentagon,go,,,,go-1,1,,,,,,
1,534.0,3,phase_2,blue_pentagon,stop,purple,100.0,tracking-SSD,go-1,3,,,,,,
2,486.0,3,phase_2,blue_circle,go,,,,go-1,1,,,,,,
0,0,3,phase_2,red_circle,stop,green,0.0,0-SSD,go-2,4,,,,,,
1,425.0,3,phase_2,blue_pentagon,go,,,,go-1,1,,,,,,
1,548.0,3,phase_2,blue_triangle,go,,,,go-1,1,,,,,,
1,534.0,3,phase_2,red_pentagon,go,,,,go-2,1,,,,,,
2,544.0,4,phase_2,blue_circle,go,,,,go-1,1,,,,,,
1,463.0,4,phase_2,red_triangle,go,,,,go-2,1,,,,,,
1,438.0,4,phase_2,blue_triangle,go,,,,go-1,1,,,,,,
1,581.0,4,phase_2,red_triangle,go,,,,go-2,1,,,,,,
1,614.0,4,phase_2,red_triangle,stop,green,0.0,0-SSD,go-2,3,,,,,,
1,432.0,4,phase_2,blue_triangle,go,,,,go-1,1,,,,,,
2,419.0,4,phase_2,red_pentagon,stop,green,0.0,0-SSD,go-2,3,,,,,,
2,720.0,4,phase_2,red_rhombus,go,,,,go-2,1,,,,,,
0,0,4,phase_2,red_triangle,stop,purple,50.0,tracking-SSD,go-2,4,,,,,,
0,0,4,phase_2,blue_rhombus,stop,purple,100.0,tracking-SSD,go-1,4,,,,,,
2,523.0,4,phase_2,blue_circle,go,,,,go-1,1,,,,,,
1,477.0,4,phase_2,blue_rhombus,go,,,,go-1,2,,,,,,
2,418.0,4,phase_2,red_pentagon,go,,,,go-2,2,,,,,,
2,460.0,4,phase_2,red_circle,go,,,,go-2,1,,,,,,
1,571.0,4,phase_2,blue_pentagon,go,,,,go-1,1,,,,,,
1,490.0,4,phase_2,red_triangle,go,,,,go-2,1,,,,,,
2,554.0,4,phase_2,blue_circle,go,,,,go-1,1,,,,,,
2,461.0,4,phase_2,blue_rhombus,stop,purple,150.0,tracking-SSD,go-1,3,,,,,,
1,562.0,4,phase_2,red_triangle,go,,,,go-2,1,,,,,,
2,739.0,4,phase_2,blue_circle,go,,,,go-1,1,,,,,,
1,581.0,4,phase_2,blue_pentagon,go,,,,go-1,1,,,,,,
0,0,4,phase_2,red_circle,stop,purple,100.0,tracking-SSD,go-2,4,,,,,,
0,0,4,phase_2,red_circle,stop,purple,150.0,tracking-SSD,go-2,4,,,,,,
1,484.0,4,phase_2,blue_triangle,stop,purple,200.0,tracking-SSD,go-1,3,,,,,,
2,537.0,4,phase_2,blue_rhombus,go,,,,go-1,1,,,,,,
2,390.0,4,phase_2,blue_pentagon,go,,,,go-1,2,,,,,,
2,556.0,4,phase_2,blue_circle,go,,,,go-1,1,,,,,,
1,599.0,4,phase_2,red_pentagon,go,,,,go-2,1,,,,,,
2,518.0,4,phase_2,red_rhombus,go,,,,go-2,1,,,,,,
0,0,4,phase_2,red_triangle,stop,green,0.0,0-SSD,go-2,4,,,,,,
1,435.0,4,phase_2,red_triangle,go,,,,go-2,1,,,,,,
2,466.0,4,phase_2,red_pentagon,go,,,,go-2,2,,,,,,
0,0,4,phase_2,blue_rhombus,stop,green,0.0,0-SSD,go-1,4,,,,,,
2,529.0,4,phase_2,red_circle,go,,,,go-2,1,,,,,,
0,0,4,phase_2,blue_circle,stop,green,0.0,0-SSD,go-1,4,,,,,,
0,0,4,phase_2,blue_circle,stop,green,0.0,0-SSD,go-1,4,,,,,,
2,602.0,4,phase_2,blue_rhombus,go,,,,go-1,1,,,,,,
0,0,4,phase_2,blue_circle,stop,purple,150.0,tracking-SSD,go-1,4,,,,,,
2,1070.0,4,phase_2,red_rhombus,go,,,,go-2,1,,,,,,
1,437.0,4,phase_2,blue_triangle,go,,,,go-1,1,,,,,,
2,480.0,4,phase_2,blue_pentagon,go,,,,go-1,2,,,,,,
0,0,4,phase_2,red_rhombus,stop,green,0.0,0-SSD,go-2,4,,,,,,
2,578.0,4,phase_2,red_rhombus,go,,,,go-2,1,,,,,,
1,575.0,4,phase_2,red_pentagon,go,,,,go-2,1,,,,,,
2,506.0,4,phase_2,blue_rhombus,go,,,,go-1,1,,,,,,
1,649.0,4,phase_2,red_pentagon,go,,,,go-2,1,,,,,,
1,557.0,4,phase_2,red_pentagon,stop,purple,200.0,tracking-SSD,go-2,3,,,,,,
0,0,4,phase_2,blue_pentagon,stop,green,0.0,0-SSD,go-1,4,,,,,,
2,712.0,5,phase_2,blue_pentagon,go,,,,go-1,2,,,,,,
2,586.0,5,phase_2,blue_rhombus,go,,,,go-1,1,,,,,,
1,495.0,5,phase_2,red_triangle,go,,,,go-2,1,,,,,,
1,492.0,5,phase_2,red_triangle,go,,,,go-2,1,,,,,,
1,512.0,5,phase_2,red_rhombus,stop,purple,150.0,tracking-SSD,go-2,3,,,,,,
1,420.0,5,phase_2,red_triangle,go,,,,go-2,1,,,,,,
1,521.0,5,phase_2,blue_triangle,go,,,,go-1,1,,,,,,
2,384.0,5,phase_2,blue_circle,go,,,,go-1,1,,,,,,
1,585.0,5,phase_2,red_pentagon,go,,,,go-2,1,,,,,,
0,0,5,phase_2,red_triangle,stop,green,0.0,0-SSD,go-2,4,,,,,,
2,480.0,5,phase_2,red_circle,go,,,,go-2,1,,,,,,
0,0,5,phase_2,red_circle,stop,purple,100.0,tracking-SSD,go-2,4,,,,,,
1,667.0,5,phase_2,blue_pentagon,go,,,,go-1,1,,,,,,
2,496.0,5,phase_2,red_rhombus,go,,,,go-2,1,,,,,,
1,538.0,5,phase_2,red_triangle,stop,purple,150.0,tracking-SSD,go-2,3,,,,,,
1,660.0,5,phase_2,blue_pentagon,go,,,,go-1,1,,,,,,
2,479.0,5,phase_2,red_rhombus,go,,,,go-2,1,,,,,,
2,487.0,5,phase_2,red_rhombus,go,,,,go-2,1,,,,,,
0,0,5,phase_2,blue_rhombus,stop,green,0.0,0-SSD,go-1,4,,,,,,
0,0,5,phase_2,blue_pentagon,stop,green,0.0,0-SSD,go-1,4,,,,,,
2,469.0,5,phase_2,blue_circle,go,,,,go-1,1,,,,,,
0,0,5,phase_2,blue_pentagon,stop,purple,100.0,tracking-SSD,go-1,4,,,,,,
1,498.0,5,phase_2,blue_triangle,go,,,,go-1,1,,,,,,
2,608.0,5,phase_2,blue_rhombus,go,,,,go-1,1,,,,,,
1,605.0,5,phase_2,blue_pentagon,go,,,,go-1,1,,,,,,
2,514.0,5,phase_2,blue_rhombus,stop,purple,150.0,tracking-SSD,go-1,3,,,,,,
0,0,5,phase_2,blue_rhombus,stop,purple,100.0,tracking-SSD,go-1,4,,,,,,
0,0,5,phase_2,red_pentagon,stop,green,0.0,0-SSD,go-2,4,,,,,,
0,0,5,phase_2,blue_circle,stop,green,0.0,0-SSD,go-1,4,,,,,,
1,573.0,5,phase_2,blue_pentagon,go,,,,go-1,1,,,,,,
2,503.0,5,phase_2,red_rhombus,go,,,,go-2,1,,,,,,
2,490.0,5,phase_2,red_pentagon,stop,purple,150.0,tracking-SSD,go-2,3,,,,,,
2,488.0,5,phase_2,blue_rhombus,go,,,,go-1,1,,,,,,
1,487.0,5,phase_2,blue_triangle,go,,,,go-1,1,,,,,,
1,563.0,5,phase_2,red_triangle,go,,,,go-2,1,,,,,,
2,405.0,5,phase_2,red_circle,go,,,,go-2,1,,,,,,
2,492.0,5,phase_2,blue_circle,go,,,,go-1,1,,,,,,
2,512.0,5,phase_2,red_circle,go,,,,go-2,1,,,,,,
2,466.0,5,phase_2,red_circle,go,,,,go-2,1,,,,,,
0,0,5,phase_2,red_pentagon,stop,green,0.0,0-SSD,go-2,4,,,,,,
1,415.0,5,phase_2,red_triangle,go,,,,go-2,1,,,,,,
2,469.0,5,phase_2,red_rhombus,go,,,,go-2,1,,,,,,
0,0,5,phase_2,red_circle,stop,green,0.0,0-SSD,go-2,4,,,,,,
2,520.0,5,phase_2,blue_circle,stop,purple,100.0,tracking-SSD,go-1,3,,,,,,
1,405.0,5,phase_2,blue_triangle,go,,,,go-1,1,,,,,,
0,0,5,phase_2,blue_pentagon,stop,green,0.0,0-SSD,go-1,4,,,,,,
1,435.0,5,phase_2,blue_triangle,go,,,,go-1,1,,,,,,
2,454.0,5,phase_2,red_circle,go,,,,go-2,1,,,,,,
1,578.0,6,phase_2,red_pentagon,go,,,,go-2,1,,,,,,
0,0,6,phase_2,red_triangle,stop,purple,50.0,tracking-SSD,go-2,4,,,,,,
2,540.0,6,phase_2,blue_pentagon,go,,,,go-1,2,,,,,,
1,786.0,6,phase_2,red_pentagon,go,,,,go-2,1,,,,,,
1,503.0,6,phase_2,blue_triangle,go,,,,go-1,1,,,,,,
1,534.0,6,phase_2,red_pentagon,go,,,,go-2,1,,,,,,
2,409.0,6,phase_2,red_circle,go,,,,go-2,1,,,,,,
0,0,6,phase_2,red_rhombus,stop,purple,100.0,tracking-SSD,go-2,4,,,,,,
1,472.0,6,phase_2,red_triangle,go,,,,go-2,1,,,,,,
0,0,6,phase_2,red_rhombus,stop,purple,150.0,tracking-SSD,go-2,4,,,,,,
0,0,6,phase_2,red_circle,stop,green,0.0,0-SSD,go-2,4,,,,,,
0,0,6,phase_2,blue_pentagon,stop,green,0.0,0-SSD,go-1,4,,,,,,
2,509.0,6,phase_2,red_pentagon,go,,,,go-2,2,,,,,,
2,439.0,6,phase_2,red_circle,go,,,,go-2,1,,,,,,
0,0,6,phase_2,red_circle,stop,green,0.0,0-SSD,go-2,4,,,,,,
1,671.0,6,phase_2,red_pentagon,go,,,,go-2,1,,,,,,
1,421.0,6,phase_2,blue_triangle,go,,,,go-1,1,,,,,,
1,565.0,6,phase_2,red_triangle,stop,purple,200.0,tracking-SSD,go-2,3,,,,,,
2,472.0,6,phase_2,red_rhombus,go,,,,go-2,1,,,,,,
0,0,6,phase_2,blue_rhombus,stop,purple,150.0,tracking-SSD,go-1,4,,,,,,
1,433.0,6,phase_2,blue_rhombus,go,,,,go-1,2,,,,,,
2,689.0,6,phase_2,red_circle,go,,,,go-2,1,,,,,,
2,632.0,6,phase_2,blue_circle,go,,,,go-1,1,,,,,,
2,404.0,6,phase_2,blue_circle,go,,,,go-1,1,,,,,,
0,0,6,phase_2,red_triangle,stop,green,0.0,0-SSD,go-2,4,,,,,,
0,0,6,phase_2,blue_circle,stop,green,0.0,0-SSD,go-1,4,,,,,,
2,554.0,6,phase_2,blue_circle,go,,,,go-1,1,,,,,,
0,0,6,phase_2,red_pentagon,stop,green,0.0,0-SSD,go-2,4,,,,,,
1,484.0,6,phase_2,blue_triangle,go,,,,go-1,1,,,,,,
2,559.0,6,phase_2,blue_circle,go,,,,go-1,1,,,,,,
2,546.0,6,phase_2,blue_rhombus,go,,,,go-1,1,,,,,,
2,443.0,6,phase_2,red_rhombus,go,,,,go-2,1,,,,,,
2,486.0,6,phase_2,blue_rhombus,stop,purple,200.0,tracking-SSD,go-1,3,,,,,,
2,395.0,6,phase_2,red_rhombus,go,,,,go-2,1,,,,,,
1,425.0,6,phase_2,red_circle,go,,,,go-2,2,,,,,,
2,536.0,6,phase_2,red_circle,go,,,,go-2,1,,,,,,
0,0,6,phase_2,blue_pentagon,stop,green,0.0,0-SSD,go-1,4,,,,,,
2,465.0,6,phase_2,blue_rhombus,go,,,,go-1,1,,,,,,
1,498.0,6,phase_2,red_triangle,go,,,,go-2,1,,,,,,
1,596.0,6,phase_2,blue_triangle,go,,,,go-1,1,,,,,,
2,458.0,6,phase_2,blue_pentagon,go,,,,go-1,2,,,,,,
1,636.0,6,phase_2,blue_pentagon,go,,,,go-1,1,,,,,,
1,566.0,6,phase_2,blue_triangle,go,,,,go-1,1,,,,,,
0,0,6,phase_2,blue_rhombus,stop,purple,150.0,tracking-SSD,go-1,4,,,,,,
0,0,6,phase_2,blue_pentagon,stop,green,0.0,0-SSD,go-1,4,,,,,,
0,0,6,phase_2,blue_triangle,stop,purple,200.0,tracking-SSD,go-1,4,,,,,,
2,480.0,6,phase_2,blue_rhombus,go,,,,go-1,1,,,,,,
1,578.0,6,phase_2,red_triangle,go,,,,go-2,1,,,,,,
2,544.0,7,phase_2,blue_circle,stop,purple,250.0,tracking-SSD,go-1,3,,,,,,
1,542.0,7,phase_2,red_pentagon,go,,,,go-2,1,,,,,,
0,0,7,phase_2,blue_circle,stop,green,0.0,0-SSD,go-1,4,,,,,,
1,447.0,7,phase_2,red_rhombus,go,,,,go-2,2,,,,,,
0,0,7,phase_2,blue_rhombus,stop,green,0.0,0-SSD,go-1,4,,,,,,
1,398.0,7,phase_2,blue_triangle,go,,,,go-1,1,,,,,,
2,575.0,7,phase_2,blue_rhombus,go,,,,go-1,1,,,,,,
2,483.0,7,phase_2,red_rhombus,go,,,,go-2,1,,,,,,
2,446.0,7,phase_2,blue_rhombus,go,,,,go-1,1,,,,,,
1,556.0,7,phase_2,red_triangle,go,,,,go-2,1,,,,,,
1,421.0,7,phase_2,red_triangle,go,,,,go-2,1,,,,,,
0,0,7,phase_2,blue_circle,stop,purple,200.0,tracking-SSD,go-1,4,,,,,,
2,484.0,7,phase_2,red_circle,go,,,,go-2,1,,,,,,
2,403.0,7,phase_2,red_pentagon,stop,purple,250.0,tracking-SSD,go-2,3,,,,,,
0,0,7,phase_2,red_pentagon,stop,green,0.0,0-SSD,go-2,4,,,,,,
0,0,7,phase_2,blue_rhombus,stop,green,0.0,0-SSD,go-1,4,,,,,,
2,519.0,7,phase_2,blue_circle,go,,,,go-1,1,,,,,,
1,438.0,7,phase_2,blue_triangle,go,,,,go-1,1,,,,,,
2,502.0,7,phase_2,red_pentagon,stop,purple,200.0,tracking-SSD,go-2,3,,,,,,
1,535.0,7,phase_2,blue_triangle,go,,,,go-1,1,,,,,,
2,466.0,7,phase_2,blue_rhombus,go,,,,go-1,1,,,,,,
2,464.0,7,phase_2,red_circle,go,,,,go-2,1,,,,,,
1,406.0,7,phase_2,red_triangle,go,,,,go-2,1,,,,,,
2,493.0,7,phase_2,red_circle,go,,,,go-2,1,,,,,,
2,490.0,7,phase_2,red_rhombus,stop,purple,150.0,tracking-SSD,go-2,3,,,,,,
1,420.0,7,phase_2,blue_triangle,go,,,,go-1,1,,,,,,
2,429.0,7,phase_2,red_circle,go,,,,go-2,1,,,,,,
1,450.0,7,phase_2,blue_triangle,go,,,,go-1,1,,,,,,
2,449.0,7,phase_2,red_rhombus,go,,,,go-2,1,,,,,,
0,0,7,phase_2,red_triangle,stop,green,0.0,0-SSD,go-2,4,,,,,,
2,444.0,7,phase_2,blue_pentagon,go,,,,go-1,2,,,,,,
0,0,7,phase_2,red_pentagon,stop,green,0.0,0-SSD,go-2,4,,,,,,
1,574.0,7,phase_2,red_pentagon,go,,,,go-2,1,,,,,,
1,470.0,7,phase_2,blue_triangle,go,,,,go-1,1,,,,,,
2,467.0,7,phase_2,red_circle,go,,,,go-2,1,,,,,,
1,409.0,7,phase_2,blue_triangle,go,,,,go-1,1,,,,,,
2,541.0,7,phase_2,blue_pentagon,go,,,,go-1,2,,,,,,
2,448.0,7,phase_2,red_circle,stop,purple,100.0,tracking-SSD,go-2,3,,,,,,
1,469.0,7,phase_2,red_triangle,go,,,,go-2,1,,,,,,
0,0,7,phase_2,blue_rhombus,stop,purple,50.0,tracking-SSD,go-1,4,,,,,,
2,510.0,7,phase_2,red_circle,go,,,,go-2,1,,,,,,
1,644.0,7,phase_2,blue_pentagon,go,,,,go-1,1,,,,,,
0,0,7,phase_2,blue_rhombus,stop,purple,100.0,tracking-SSD,go-1,4,,,,,,
2,459.0,7,phase_2,blue_circle,go,,,,go-1,1,,,,,,
0,0,7,phase_2,red_pentagon,stop,green,0.0,0-SSD,go-2,4,,,,,,
1,409.0,7,phase_2,blue_rhombus,go,,,,go-1,2,,,,,,
2,463.0,7,phase_2,red_pentagon,go,,,,go-2,2,,,,,,
0,0,7,phase_2,blue_pentagon,stop,green,0.0,0-SSD,go-1,4,,,,,,
2,566.0,8,phase_2,blue_rhombus,go,,,,go-1,1,,,,,,
2,486.0,8,phase_2,blue_rhombus,go,,,,go-1,1,,,,,,
1,574.0,8,phase_2,red_pentagon,go,,,,go-2,1,,,,,,
2,470.0,8,phase_2,blue_rhombus,go,,,,go-1,1,,,,,,
1,457.0,8,phase_2,blue_triangle,go,,,,go-1,1,,,,,,
1,431.0,8,phase_2,blue_triangle,go,,,,go-1,1,,,,,,
2,463.0,8,phase_2,red_circle,go,,,,go-2,1,,,,,,
0,0,8,phase_2,blue_triangle,stop,green,0.0,0-SSD,go-1,4,,,,,,
1,594.0,8,phase_2,red_pentagon,go,,,,go-2,1,,,,,,
0,0,8,phase_2,red_triangle,stop,green,0.0,0-SSD,go-2,4,,,,,,
2,511.0,8,phase_2,red_circle,go,,,,go-2,1,,,,,,
1,486.0,8,phase_2,red_pentagon,go,,,,go-2,1,,,,,,
2,552.0,8,phase_2,red_rhombus,go,,,,go-2,1,,,,,,
0,0,8,phase_2,blue_pentagon,stop,purple,150.0,tracking-SSD,go-1,4,,,,,,
0,0,8,phase_2,blue_rhombus,stop,green,0.0,0-SSD,go-1,4,,,,,,
2,510.0,8,phase_2,blue_pentagon,go,,,,go-1,2,,,,,,
2,586.0,8,phase_2,blue_circle,go,,,,go-1,1,,,,,,
0,0,8,phase_2,blue_circle,stop,green,0.0,0-SSD,go-1,4,,,,,,
2,537.0,8,phase_2,blue_circle,go,,,,go-1,1,,,,,,
2,489.0,8,phase_2,red_circle,go,,,,go-2,1,,,,,,
1,442.0,8,phase_2,blue_triangle,go,,,,go-1,1,,,,,,
0,0,8,phase_2,red_circle,stop,green,0.0,0-SSD,go-2,4,,,,,,
2,482.0,8,phase_2,red_rhombus,go,,,,go-2,1,,,,,,
0,0,8,phase_2,red_triangle,stop,purple,200.0,tracking-SSD,go-2,4,,,,,,
2,489.0,8,phase_2,red_pentagon,go,,,,go-2,2,,,,,,
1,611.0,8,phase_2,red_pentagon,stop,purple,250.0,tracking-SSD,go-2,3,,,,,,
1,564.0,8,phase_2,blue_pentagon,go,,,,go-1,1,,,,,,
1,528.0,8,phase_2,blue_triangle,go,,,,go-1,1,,,,,,
0,0,8,phase_2,blue_triangle,stop,purple,200.0,tracking-SSD,go-1,4,,,,,,
0,0,8,phase_2,red_circle,stop,green,0.0,0-SSD,go-2,4,,,,,,
2,692.0,8,phase_2,red_rhombus,go,,,,go-2,1,,,,,,
0,0,8,phase_2,blue_triangle,stop,green,0.0,0-SSD,go-1,4,,,,,,
1,418.0,8,phase_2,blue_triangle,stop,purple,250.0,tracking-SSD,go-1,3,,,,,,
2,539.0,8,phase_2,blue_rhombus,go,,,,go-1,1,,,,,,
2,548.0,8,phase_2,red_rhombus,go,,,,go-2,1,,,,,,
0,0,8,phase_2,red_circle,stop,purple,200.0,tracking-SSD,go-2,4,,,,,,
2,623.0,8,phase_2,blue_circle,go,,,,go-1,1,,,,,,
1,394.0,8,phase_2,red_pentagon,go,,,,go-2,1,,,,,,
1,459.0,8,phase_2,blue_pentagon,go,,,,go-1,1,,,,,,
2,683.0,8,phase_2,red_rhombus,go,,,,go-2,1,,,,,,
2,546.0,8,phase_2,red_circle,go,,,,go-2,1,,,,,,
1,510.0,8,phase_2,red_triangle,stop,purple,250.0,tracking-SSD,go-2,3,,,,,,
1,664.0,8,phase_2,blue_pentagon,go,,,,go-1,1,,,,,,
0,0,8,phase_2,red_circle,stop,green,0.0,0-SSD,go-2,4,,,,,,
0,0,8,phase_2,blue_rhombus,stop,purple,200.0,tracking-SSD,go-1,4,,,,,,
2,513.0,8,phase_2,blue_rhombus,go,,,,go-1,1,,,,,,
1,567.0,8,phase_2,red_pentagon,go,,,,go-2,1,,,,,,
1,452.0,8,phase_2,red_triangle,go,,,,go-2,1,,,,,,
0,0,9,phase_2,red_pentagon,stop,green,0.0,0-SSD,go-2,4,,,,,,
2,496.0,9,phase_2,red_circle,go,,,,go-2,1,,,,,,
2,358.0,9,phase_2,red_circle,stop,purple,250.0,tracking-SSD,go-2,3,,,,,,
1,367.0,9,phase_2,red_rhombus,go,,,,go-2,2,,,,,,
1,443.0,9,phase_2,red_triangle,go,,,,go-2,1,,,,,,
2,508.0,9,phase_2,red_circle,stop,green,0.0,0-SSD,go-2,3,,,,,,
1,494.0,9,phase_2,red_pentagon,stop,purple,200.0,tracking-SSD,go-2,3,,,,,,
2,424.0,9,phase_2,blue_rhombus,go,,,,go-1,1,,,,,,
1,455.0,9,phase_2,red_circle,go,,,,go-2,2,,,,,,
1,509.0,9,phase_2,blue_pentagon,go,,,,go-1,1,,,,,,
2,405.0,9,phase_2,red_pentagon,go,,,,go-2,2,,,,,,
1,493.0,9,phase_2,blue_triangle,go,,,,go-1,1,,,,,,
2,389.0,9,phase_2,red_rhombus,go,,,,go-2,1,,,,,,
1,442.0,9,phase_2,blue_pentagon,go,,,,go-1,1,,,,,,
2,430.0,9,phase_2,blue_circle,stop,purple,150.0,tracking-SSD,go-1,3,,,,,,
1,382.0,9,phase_2,red_pentagon,go,,,,go-2,1,,,,,,
2,368.0,9,phase_2,blue_circle,go,,,,go-1,1,,,,,,
1,444.0,9,phase_2,blue_rhombus,stop,purple,100.0,tracking-SSD,go-1,3,,,,,,
2,543.0,9,phase_2,blue_rhombus,go,,,,go-1,1,,,,,,
0,0,9,phase_2,blue_rhombus,stop,green,0.0,0-SSD,go-1,4,,,,,,
1,448.0,9,phase_2,red_triangle,go,,,,go-2,1,,,,,,
1,648.0,9,phase_2,red_triangle,stop,green,0.0,0-SSD,go-2,3,,,,,,
1,410.0,9,phase_2,blue_triangle,go,,,,go-1,1,,,,,,
1,419.0,9,phase_2,red_triangle,go,,,,go-2,1,,,,,,
0,0,9,phase_2,red_triangle,stop,green,0.0,0-SSD,go-2,4,,,,,,
2,506.0,9,phase_2,blue_pentagon,stop,purple,50.0,tracking-SSD,go-1,3,,,,,,
2,458.0,9,phase_2,red_circle,go,,,,go-2,1,,,,,,
1,445.0,9,phase_2,blue_rhombus,go,,,,go-1,2,,,,,,
2,545.0,9,phase_2,red_circle,go,,,,go-2,1,,,,,,
1,622.0,9,phase_2,blue_pentagon,go,,,,go-1,1,,,,,,
2,518.0,9,phase_2,blue_rhombus,go,,,,go-1,1,,,,,,
2,526.0,9,phase_2,blue_circle,go,,,,go-1,1,,,,,,
1,569.0,9,phase_2,red_triangle,go,,,,go-2,1,,,,,,
0,0,9,phase_2,red_pentagon,stop,purple,0.0,tracking-SSD,go-2,4,,,,,,
2,711.0,9,phase_2,red_rhombus,stop,purple,50.0,tracking-SSD,go-2,3,,,,,,
1,474.0,9,phase_2,red_triangle,go,,,,go-2,1,,,,,,
2,483.0,9,phase_2,blue_rhombus,go,,,,go-1,1,,,,,,
0,0,9,phase_2,blue_pentagon,stop,green,0.0,0-SSD,go-1,4,,,,,,
1,376.0,9,phase_2,blue_rhombus,go,,,,go-1,2,,,,,,
2,521.0,9,phase_2,red_pentagon,go,,,,go-2,2,,,,,,
0,0,9,phase_2,blue_pentagon,stop,green,0.0,0-SSD,go-1,4,,,,,,
2,496.0,9,phase_2,blue_rhombus,go,,,,go-1,1,,,,,,
0,0,9,phase_2,blue_circle,stop,green,0.0,0-SSD,go-1,4,,,,,,
2,569.0,9,phase_2,red_circle,go,,,,go-2,1,,,,,,
1,353.0,9,phase_2,blue_triangle,go,,,,go-1,1,,,,,,
2,464.0,9,phase_2,blue_circle,go,,,,go-1,1,,,,,,
0,0,9,phase_2,blue_triangle,stop,purple,0.0,tracking-SSD,go-1,4,,,,,,
1,483.0,9,phase_2,red_triangle,go,,,,go-2,1,,,,,,
0,0,10,phase_2,red_rhombus,stop,purple,50.0,tracking-SSD,go-2,4,,,,,,
1,451.0,10,phase_2,blue_triangle,go,,,,go-1,1,,,,,,
1,392.0,10,phase_2,blue_triangle,go,,,,go-1,1,,,,,,
2,413.0,10,phase_2,red_rhombus,go,,,,go-2,1,,,,,,
1,479.0,10,phase_2,red_circle,go,,,,go-2,2,,,,,,
1,431.0,10,phase_2,blue_triangle,go,,,,go-1,1,,,,,,
2,360.0,10,phase_2,red_rhombus,go,,,,go-2,1,,,,,,
2,393.0,10,phase_2,blue_pentagon,go,,,,go-1,2,,,,,,
0,0,10,phase_2,blue_rhombus,stop,green,0.0,0-SSD,go-1,4,,,,,,
0,0,10,phase_2,red_pentagon,stop,purple,100.0,tracking-SSD,go-2,4,,,,,,
2,410.0,10,phase_2,red_pentagon,go,,,,go-2,2,,,,,,
2,430.0,10,phase_2,red_circle,go,,,,go-2,1,,,,,,
0,0,10,phase_2,blue_circle,stop,purple,150.0,tracking-SSD,go-1,4,,,,,,
2,480.0,10,phase_2,red_pentagon,go,,,,go-2,2,,,,,,
1,468.0,10,phase_2,blue_pentagon,go,,,,go-1,1,,,,,,
1,454.0,10,phase_2,red_pentagon,go,,,,go-2,1,,,,,,
2,947.0,10,phase_2,red_rhombus,go,,,,go-2,1,,,,,,
0,0,10,phase_2,blue_rhombus,stop,green,0.0,0-SSD,go-1,4,,,,,,
2,492.0,10,phase_2,blue_circle,go,,,,go-1,1,,,,,,
1,422.0,10,phase_2,red_triangle,stop,purple,200.0,tracking-SSD,go-2,3,,,,,,
2,476.0,10,phase_2,blue_circle,go,,,,go-1,1,,,,,,
2,654.0,10,phase_2,blue_rhombus,go,,,,go-1,1,,,,,,
2,450.0,10,phase_2,red_circle,go,,,,go-2,1,,,,,,
0,0,10,phase_2,red_pentagon,stop,green,0.0,0-SSD,go-2,4,,,,,,
0,0,10,phase_2,red_circle,stop,purple,150.0,tracking-SSD,go-2,4,,,,,,
2,511.0,10,phase_2,blue_circle,go,,,,go-1,1,,,,,,
1,507.0,10,phase_2,red_pentagon,go,,,,go-2,1,,,,,,
2,403.0,10,phase_2,red_triangle,go,,,,go-2,2,,,,,,
1,457.0,10,phase_2,red_triangle,go,,,,go-2,1,,,,,,
0,0,10,phase_2,red_circle,stop,green,0.0,0-SSD,go-2,4,,,,,,
1,418.0,10,phase_2,blue_triangle,stop,purple,200.0,tracking-SSD,go-1,3,,,,,,
1,427.0,10,phase_2,red_triangle,go,,,,go-2,1,,,,,,
2,357.0,10,phase_2,blue_rhombus,go,,,,go-1,1,,,,,,
1,366.0,10,phase_2,blue_triangle,go,,,,go-1,1,,,,,,
1,442.0,10,phase_2,blue_rhombus,go,,,,go-1,2,,,,,,
2,519.0,10,phase_2,blue_pentagon,go,,,,go-1,2,,,,,,
2,382.0,10,phase_2,red_pentagon,go,,,,go-2,2,,,,,,
0,0,10,phase_2,red_pentagon,stop,green,0.0,0-SSD,go-2,4,,,,,,
1,489.0,10,phase_2,blue_pentagon,go,,,,go-1,1,,,,,,
2,488.0,10,phase_2,red_rhombus,go,,,,go-2,1,,,,,,
0,0,10,phase_2,blue_rhombus,stop,green,0.0,0-SSD,go-1,4,,,,,,
0,0,10,phase_2,blue_circle,stop,green,0.0,0-SSD,go-1,4,,,,,,
0,0,10,phase_2,red_triangle,stop,green,0.0,0-SSD,go-2,4,,,,,,
1,400.0,10,phase_2,blue_triangle,stop,purple,150.0,tracking-SSD,go-1,3,,,,,,
2,408.0,10,phase_2,red_circle,go,,,,go-2,1,,,,,,
1,416.0,10,phase_2,blue_triangle,go,,,,go-1,1,,,,,,
0,0,10,phase_2,blue_rhombus,stop,purple,100.0,tracking-SSD,go-1,4,,,,,,
2,467.0,10,phase_2,blue_circle,go,,,,go-1,1,,,,,,
0,0,11,phase_2,red_circle,stop,purple,150.0,tracking-SSD,go-2,4,,,,,,
0,0,11,phase_2,blue_pentagon,stop,purple,200.0,tracking-SSD,go-1,4,,,,,,
2,505.0,11,phase_2,blue_rhombus,go,,,,go-1,1,,,,,,
2,445.0,11,phase_2,red_rhombus,go,,,,go-2,1,,,,,,
2,366.0,11,phase_2,blue_pentagon,go,,,,go-1,2,,,,,,
2,542.0,11,phase_2,red_rhombus,go,,,,go-2,1,,,,,,
0,0,11,phase_2,red_rhombus,stop,purple,250.0,tracking-SSD,go-2,4,,,,,,
1,548.0,11,phase_2,red_pentagon,go,,,,go-2,1,,,,,,
0,0,11,phase_2,red_rhombus,stop,green,0.0,0-SSD,go-2,4,,,,,,
1,500.0,11,phase_2,red_triangle,go,,,,go-2,1,,,,,,
2,430.0,11,phase_2,red_pentagon,go,,,,go-2,2,,,,,,
0,0,11,phase_2,blue_circle,go,,,,go-1,2,,,,,,
1,539.0,11,phase_2,blue_pentagon,stop,purple,300.0,tracking-SSD,go-1,3,,,,,,
2,524.0,11,phase_2,red_circle,go,,,,go-2,1,,,,,,
0,0,11,phase_2,red_pentagon,stop,green,0.0,0-SSD,go-2,4,,,,,,
1,418.0,11,phase_2,blue_triangle,go,,,,go-1,1,,,,,,
2,550.0,11,phase_2,red_rhombus,go,,,,go-2,1,,,,,,
1,482.0,11,phase_2,red_triangle,stop,purple,250.0,tracking-SSD,go-2,3,,,,,,
1,479.0,11,phase_2,red_triangle,go,,,,go-2,1,,,,,,
0,0,11,phase_2,red_circle,stop,purple,200.0,tracking-SSD,go-2,4,,,,,,
0,0,11,phase_2,blue_rhombus,stop,purple,250.0,tracking-SSD,go-1,4,,,,,,
1,393.0,11,phase_2,blue_triangle,go,,,,go-1,1,,,,,,
2,558.0,11,phase_2,red_circle,go,,,,go-2,1,,,,,,
1,658.0,11,phase_2,red_pentagon,go,,,,go-2,1,,,,,,
0,0,11,phase_2,red_pentagon,stop,green,0.0,0-SSD,go-2,4,,,,,,
2,596.0,11,phase_2,blue_rhombus,go,,,,go-1,1,,,,,,
2,493.0,11,phase_2,blue_pentagon,go,,,,go-1,2,,,,,,
2,502.0,11,phase_2,red_circle,go,,,,go-2,1,,,,,,
0,0,11,phase_2,blue_rhombus,stop,green,0.0,0-SSD,go-1,4,,,,,,
2,509.0,11,phase_2,blue_circle,go,,,,go-1,1,,,,,,
0,0,11,phase_2,blue_triangle,stop,green,0.0,0-SSD,go-1,4,,,,,,
2,426.0,11,phase_2,red_circle,go,,,,go-2,1,,,,,,
2,468.0,11,phase_2,red_pentagon,go,,,,go-2,2,,,,,,
2,443.0,11,phase_2,blue_pentagon,go,,,,go-1,2,,,,,,
1,530.0,11,phase_2,blue_pentagon,go,,,,go-1,1,,,,,,
1,482.0,11,phase_2,red_triangle,go,,,,go-2,1,,,,,,
0,0,11,phase_2,blue_triangle,stop,green,0.0,0-SSD,go-1,4,,,,,,
1,389.0,11,phase_2,blue_triangle,go,,,,go-1,1,,,,,,
1,432.0,11,phase_2,red_triangle,go,,,,go-2,1,,,,,,
1,418.0,11,phase_2,blue_triangle,go,,,,go-1,1,,,,,,
2,426.0,11,phase_2,blue_rhombus,go,,,,go-1,1,,,,,,
2,683.0,11,phase_2,blue_circle,stop,purple,300.0,tracking-SSD,go-1,3,,,,,,
2,479.0,11,phase_2,red_circle,go,,,,go-2,1,,,,,,
1,465.0,11,phase_2,blue_rhombus,go,,,,go-1,2,,,,,,
1,440.0,11,phase_2,blue_triangle,go,,,,go-1,1,,,,,,
0,0,11,phase_2,red_circle,stop,green,0.0,0-SSD,go-2,4,,,,,,
0,0,11,phase_2,blue_circle,stop,green,0.0,0-SSD,go-1,4,,,,,,
2,478.0,11,phase_2,blue_rhombus,go,,,,go-1,1,,,,,,
0,0,12,phase_2,blue_rhombus,stop,green,0.0,0-SSD,go-1,4,,,,,,
1,508.0,12,phase_2,blue_triangle,go,,,,go-1,1,,,,,,
2,427.0,12,phase_2,red_circle,go,,,,go-2,1,,,,,,
2,447.0,12,phase_2,blue_circle,go,,,,go-1,1,,,,,,
1,557.0,12,phase_2,blue_pentagon,go,,,,go-1,1,,,,,,
1,476.0,12,phase_2,blue_triangle,stop,purple,250.0,tracking-SSD,go-1,3,,,,,,
2,419.0,12,phase_2,red_circle,go,,,,go-2,1,,,,,,
1,506.0,12,phase_2,red_pentagon,go,,,,go-2,1,,,,,,
2,559.0,12,phase_2,red_rhombus,go,,,,go-2,1,,,,,,
0,0,12,phase_2,blue_pentagon,stop,green,0.0,0-SSD,go-1,4,,,,,,
1,476.0,12,phase_2,blue_triangle,go,,,,go-1,1,,,,,,
1,418.0,12,phase_2,red_triangle,go,,,,go-2,1,,,,,,
2,427.0,12,phase_2,red_pentagon,stop,purple,200.0,tracking-SSD,go-2,3,,,,,,
1,503.0,12,phase_2,red_triangle,go,,,,go-2,1,,,,,,
2,433.0,12,phase_2,blue_circle,go,,,,go-1,1,,,,,,
2,577.0,12,phase_2,blue_circle,stop,purple,150.0,tracking-SSD,go-1,3,,,,,,
2,451.0,12,phase_2,red_circle,go,,,,go-2,1,,,,,,
1,391.0,12,phase_2,blue_rhombus,go,,,,go-1,2,,,,,,
2,513.0,12,phase_2,blue_rhombus,go,,,,go-1,1,,,,,,
2,511.0,12,phase_2,blue_circle,go,,,,go-1,1,,,,,,
2,429.0,12,phase_2,red_circle,go,,,,go-2,1,,,,,,
0,0,12,phase_2,red_rhombus,stop,green,0.0,0-SSD,go-2,4,,,,,,
2,604.0,12,phase_2,red_rhombus,go,,,,go-2,1,,,,,,
1,490.0,12,phase_2,blue_pentagon,go,,,,go-1,1,,,,,,
2,543.0,12,phase_2,blue_rhombus,go,,,,go-1,1,,,,,,
0,0,12,phase_2,red_triangle,stop,purple,100.0,tracking-SSD,go-2,4,,,,,,
2,436.0,12,phase_2,red_rhombus,go,,,,go-2,1,,,,,,
1,446.0,12,phase_2,red_pentagon,go,,,,go-2,1,,,,,,
1,500.0,12,phase_2,blue_triangle,go,,,,go-1,1,,,,,,
0,0,12,phase_2,blue_circle,stop,green,0.0,0-SSD,go-1,4,,,,,,
0,0,12,phase_2,blue_pentagon,stop,green,0.0,0-SSD,go-1,4,,,,,,
1,471.0,12,phase_2,blue_triangle,go,,,,go-1,1,,,,,,
1,537.0,12,phase_2,blue_pentagon,go,,,,go-1,1,,,,,,
1,444.0,12,phase_2,red_pentagon,go,,,,go-2,1,,,,,,
0,0,12,phase_2,red_rhombus,stop,green,0.0,0-SSD,go-2,4,,,,,,
1,439.0,12,phase_2,red_triangle,go,,,,go-2,1,,,,,,
2,730.0,12,phase_2,blue_circle,go,,,,go-1,1,,,,,,
0,0,12,phase_2,red_pentagon,stop,green,0.0,0-SSD,go-2,4,,,,,,
1,433.0,12,phase_2,blue_pentagon,go,,,,go-1,1,,,,,,
2,508.0,12,phase_2,red_circle,stop,purple,150.0,tracking-SSD,go-2,3,,,,,,
1,460.0,12,phase_2,blue_triangle,stop,purple,100.0,tracking-SSD,go-1,3,,,,,,
0,0,12,phase_2,red_rhombus,stop,purple,50.0,tracking-SSD,go-2,4,,,,,,
1,422.0,12,phase_2,red_triangle,go,,,,go-2,1,,,,,,
0,0,12,phase_2,red_pentagon,stop,green,0.0,0-SSD,go-2,4,,,,,,
2,440.0,12,phase_2,red_circle,go,,,,go-2,1,,,,,,
1,470.0,12,phase_2,blue_rhombus,go,,,,go-1,2,,,,,,
2,580.0,12,phase_2,red_rhombus,go,,,,go-2,1,,,,,,
1,420.0,12,phase_2,blue_triangle,stop,purple,100.0,tracking-SSD,go-1,3,,,,,,
1,510.0,13,phase_2,red_pentagon,go,,,,go-2,1,,,,,,
0,0,13,phase_2,blue_triangle,stop,purple,50.0,tracking-SSD,go-1,4,,,,,,
0,0,13,phase_2,blue_rhombus,stop,purple,100.0,tracking-SSD,go-1,4,,,,,,
2,415.0,13,phase_2,blue_rhombus,go,,,,go-1,1,,,,,,
1,492.0,13,phase_2,red_circle,go,,,,go-2,2,,,,,,
2,456.0,13,phase_2,blue_circle,go,,,,go-1,1,,,,,,
0,0,13,phase_2,red_rhombus,stop,purple,150.0,tracking-SSD,go-2,4,,,,,,
2,450.0,13,phase_2,blue_circle,go,,,,go-1,1,,,,,,
0,0,13,phase_2,red_rhombus,stop,green,0.0,0-SSD,go-2,4,,,,,,
1,457.0,13,phase_2,red_triangle,go,,,,go-2,1,,,,,,
1,397.0,13,phase_2,red_triangle,go,,,,go-2,1,,,,,,
0,0,13,phase_2,blue_pentagon,stop,green,0.0,0-SSD,go-1,4,,,,,,
1,607.0,13,phase_2,blue_pentagon,go,,,,go-1,1,,,,,,
2,459.0,13,phase_2,blue_triangle,go,,,,go-1,2,,,,,,
2,524.0,13,phase_2,blue_rhombus,go,,,,go-1,1,,,,,,
2,464.0,13,phase_2,red_circle,go,,,,go-2,1,,,,,,
0,0,13,phase_2,red_triangle,stop,green,0.0,0-SSD,go-2,4,,,,,,
2,526.0,13,phase_2,red_circle,stop,purple,200.0,tracking-SSD,go-2,3,,,,,,
2,479.0,13,phase_2,red_circle,stop,purple,150.0,tracking-SSD,go-2,3,,,,,,
0,0,13,phase_2,blue_circle,stop,green,0.0,0-SSD,go-1,4,,,,,,
1,441.0,13,phase_2,blue_triangle,go,,,,go-1,1,,,,,,
1,551.0,13,phase_2,blue_pentagon,go,,,,go-1,1,,,,,,
1,460.0,13,phase_2,blue_pentagon,go,,,,go-1,1,,,,,,
2,479.0,13,phase_2,blue_circle,go,,,,go-1,1,,,,,,
2,488.0,13,phase_2,red_rhombus,go,,,,go-2,1,,,,,,
1,553.0,13,phase_2,red_pentagon,go,,,,go-2,1,,,,,,
1,427.0,13,phase_2,blue_rhombus,go,,,,go-1,2,,,,,,
1,424.0,13,phase_2,red_pentagon,go,,,,go-2,1,,,,,,
1,467.0,13,phase_2,blue_triangle,go,,,,go-1,1,,,,,,
2,441.0,13,phase_2,red_circle,go,,,,go-2,1,,,,,,
0,0,13,phase_2,blue_triangle,stop,purple,100.0,tracking-SSD,go-1,4,,,,,,
2,449.0,13,phase_2,blue_circle,go,,,,go-1,1,,,,,,
1,693.0,13,phase_2,red_pentagon,go,,,,go-2,1,,,,,,
2,454.0,13,phase_2,blue_triangle,go,,,,go-1,2,,,,,,
0,0,13,phase_2,red_pentagon,stop,purple,150.0,tracking-SSD,go-2,4,,,,,,
0,0,13,phase_2,blue_pentagon,stop,green,0.0,0-SSD,go-1,4,,,,,,
1,604.0,13,phase_2,red_pentagon,go,,,,go-2,1,,,,,,
2,468.0,13,phase_2,blue_rhombus,go,,,,go-1,1,,,,,,
1,488.0,13,phase_2,red_triangle,go,,,,go-2,1,,,,,,
0,0,13,phase_2,blue_circle,stop,green,0.0,0-SSD,go-1,4,,,,,,
1,575.0,13,phase_2,red_rhombus,go,,,,go-2,2,,,,,,
0,0,13,phase_2,red_circle,stop,green,0.0,0-SSD,go-2,4,,,,,,
0,0,13,phase_2,red_triangle,stop,green,0.0,0-SSD,go-2,4,,,,,,
0,0,13,phase_2,blue_rhombus,stop,purple,200.0,tracking-SSD,go-1,4,,,,,,
1,421.0,13,phase_2,blue_triangle,go,,,,go-1,1,,,,,,
2,497.0,13,phase_2,red_rhombus,go,,,,go-2,1,,,,,,
1,618.0,13,phase_2,red_pentagon,go,,,,go-2,1,,,,,,
2,638.0,13,phase_2,red_rhombus,go,,,,go-2,1,,,,,,
2,521.0,14,phase_2,red_circle,stop,purple,250.0,tracking-SSD,go-2,3,,,,,,
0,0,14,phase_2,blue_rhombus,stop,purple,200.0,tracking-SSD,go-1,4,,,,,,
1,483.0,14,phase_2,blue_triangle,go,,,,go-1,1,,,,,,
2,447.0,14,phase_2,red_pentagon,go,,,,go-2,2,,,,,,
2,389.0,14,phase_2,blue_rhombus,go,,,,go-1,1,,,,,,
1,397.0,14,phase_2,blue_triangle,go,,,,go-1,1,,,,,,
2,428.0,14,phase_2,red_rhombus,go,,,,go-2,1,,,,,,
2,403.0,14,phase_2,red_circle,go,,,,go-2,1,,,,,,
1,491.0,14,phase_2,red_triangle,go,,,,go-2,1,,,,,,
1,399.0,14,phase_2,red_triangle,go,,,,go-2,1,,,,,,
1,350.0,14,phase_2,blue_triangle,go,,,,go-1,1,,,,,,
1,381.0,14,phase_2,red_triangle,go,,,,go-2,1,,,,,,
0,0,14,phase_2,blue_circle,stop,green,0.0,0-SSD,go-1,4,,,,,,
0,0,14,phase_2,red_rhombus,stop,green,0.0,0-SSD,go-2,4,,,,,,
1,431.0,14,phase_2,blue_triangle,go,,,,go-1,1,,,,,,
1,518.0,14,phase_2,blue_rhombus,go,,,,go-1,2,,,,,,
2,627.0,14,phase_2,red_pentagon,go,,,,go-2,2,,,,,,
0,0,14,phase_2,blue_rhombus,stop,green,0.0,0-SSD,go-1,4,,,,,,
1,577.0,14,phase_2,red_circle,go,,,,go-2,2,,,,,,
1,452.0,14,phase_2,red_pentagon,stop,purple,250.0,tracking-SSD,go-2,3,,,,,,
0,0,14,phase_2,blue_triangle,stop,green,0.0,0-SSD,go-1,4,,,,,,
2,547.0,14,phase_2,red_rhombus,go,,,,go-2,1,,,,,,
1,398.0,14,phase_2,red_triangle,go,,,,go-2,1,,,,,,
2,419.0,14,phase_2,red_circle,go,,,,go-2,1,,,,,,
2,574.0,14,phase_2,blue_rhombus,go,,,,go-1,1,,,,,,
2,459.0,14,phase_2,red_rhombus,go,,,,go-2,1,,,,,,
1,400.0,14,phase_2,blue_circle,go,,,,go-1,2,,,,,,
1,577.0,14,phase_2,blue_pentagon,go,,,,go-1,1,,,,,,
1,439.0,14,phase_2,red_triangle,go,,,,go-2,1,,,,,,
2,449.0,14,phase_2,red_circle,stop,purple,200.0,tracking-SSD,go-2,3,,,,,,
2,457.0,14,phase_2,blue_pentagon,go,,,,go-1,2,,,,,,
2,567.0,14,phase_2,red_circle,go,,,,go-2,1,,,,,,
2,845.0,14,phase_2,blue_rhombus,go,,,,go-1,1,,,,,,
2,528.0,14,phase_2,blue_circle,go,,,,go-1,1,,,,,,
0,0,14,phase_2,blue_rhombus,stop,purple,150.0,tracking-SSD,go-1,4,,,,,,
0,0,14,phase_2,red_pentagon,stop,green,0.0,0-SSD,go-2,4,,,,,,
1,544.0,14,phase_2,red_pentagon,go,,,,go-2,1,,,,,,
2,574.0,14,phase_2,blue_circle,go,,,,go-1,1,,,,,,
0,0,14,phase_2,red_pentagon,stop,green,0.0,0-SSD,go-2,4,,,,,,
0,0,14,phase_2,red_rhombus,stop,purple,200.0,tracking-SSD,go-2,4,,,,,,
0,0,14,phase_2,blue_circle,stop,green,0.0,0-SSD,go-1,4,,,,,,
1,475.0,14,phase_2,red_triangle,go,,,,go-2,1,,,,,,
1,472.0,14,phase_2,blue_triangle,stop,purple,250.0,tracking-SSD,go-1,3,,,,,,
0,0,14,phase_2,red_pentagon,stop,green,0.0,0-SSD,go-2,4,,,,,,
1,646.0,14,phase_2,blue_pentagon,go,,,,go-1,1,,,,,,
1,588.0,14,phase_2,blue_pentagon,stop,purple,200.0,tracking-SSD,go-1,3,,,,,,
1,439.0,14,phase_2,blue_pentagon,go,,,,go-1,1,,,,,,
2,493.0,14,phase_2,blue_circle,go,,,,go-1,1,,,,,,
0,0,15,phase_2,red_pentagon,stop,green,0.0,0-SSD,go-2,4,,,,,,
1,428.0,15,phase_2,red_triangle,go,,,,go-2,1,,,,,,
0,0,15,phase_2,blue_pentagon,stop,green,0.0,0-SSD,go-1,4,,,,,,
1,400.0,15,phase_2,red_triangle,go,,,,go-2,1,,,,,,
2,454.0,15,phase_2,red_circle,stop,purple,150.0,tracking-SSD,go-2,3,,,,,,
2,609.0,15,phase_2,blue_rhombus,go,,,,go-1,1,,,,,,
0,0,15,phase_2,blue_pentagon,stop,green,0.0,0-SSD,go-1,4,,,,,,
2,514.0,15,phase_2,blue_rhombus,go,,,,go-1,1,,,,,,
0,0,15,phase_2,red_rhombus,stop,green,0.0,0-SSD,go-2,4,,,,,,
2,498.0,15,phase_2,blue_circle,go,,,,go-1,1,,,,,,
2,449.0,15,phase_2,red_circle,go,,,,go-2,1,,,,,,
2,413.0,15,phase_2,red_circle,go,,,,go-2,1,,,,,,
1,568.0,15,phase_2,blue_pentagon,go,,,,go-1,1,,,,,,
2,453.0,15,phase_2,red_circle,go,,,,go-2,1,,,,,,
1,473.0,15,phase_2,blue_triangle,go,,,,go-1,1,,,,,,
2,482.0,15,phase_2,red_circle,go,,,,go-2,1,,,,,,
1,761.0,15,phase_2,red_pentagon,go,,,,go-2,1,,,,,,
0,0,15,phase_2,red_pentagon,stop,purple,100.0,tracking-SSD,go-2,4,,,,,,
2,541.0,15,phase_2,blue_rhombus,go,,,,go-1,1,,,,,,
1,439.0,15,phase_2,red_triangle,go,,,,go-2,1,,,,,,
0,0,15,phase_2,red_pentagon,stop,green,0.0,0-SSD,go-2,4,,,,,,
2,478.0,15,phase_2,blue_pentagon,go,,,,go-1,2,,,,,,
2,430.0,15,phase_2,blue_triangle,go,,,,go-1,2,,,,,,
2,473.0,15,phase_2,blue_rhombus,go,,,,go-1,1,,,,,,
1,539.0,15,phase_2,blue_triangle,stop,purple,150.0,tracking-SSD,go-1,3,,,,,,
1,479.0,15,phase_2,red_triangle,go,,,,go-2,1,,,,,,
1,578.0,15,phase_2,red_pentagon,go,,,,go-2,1,,,,,,
0,0,15,phase_2,blue_rhombus,stop,green,0.0,0-SSD,go-1,4,,,,,,
1,583.0,15,phase_2,red_rhombus,go,,,,go-2,2,,,,,,
0,0,15,phase_2,blue_triangle,stop,purple,100.0,tracking-SSD,go-1,4,,,,,,
2,488.0,15,phase_2,red_circle,go,,,,go-2,1,,,,,,
0,0,15,phase_2,red_pentagon,stop,green,0.0,0-SSD,go-2,4,,,,,,
2,529.0,15,phase_2,red_circle,go,,,,go-2,1,,,,,,
1,785.0,15,phase_2,red_pentagon,go,,,,go-2,1,,,,,,
2,478.0,15,phase_2,blue_rhombus,go,,,,go-1,1,,,,,,
1,600.0,15,phase_2,blue_pentagon,go,,,,go-1,1,,,,,,
2,485.0,15,phase_2,blue_rhombus,go,,,,go-1,1,,,,,,
1,417.0,15,phase_2,blue_triangle,stop,purple,150.0,tracking-SSD,go-1,3,,,,,,
0,0,15,phase_2,red_circle,stop,purple,100.0,tracking-SSD,go-2,4,,,,,,
0,0,15,phase_2,blue_circle,stop,green,0.0,0-SSD,go-1,4,,,,,,
1,410.0,15,phase_2,red_triangle,go,,,,go-2,1,,,,,,
2,419.0,15,phase_2,blue_rhombus,go,,,,go-1,1,,,,,,
1,396.0,15,phase_2,blue_triangle,go,,,,go-1,1,,,,,,
1,439.0,15,phase_2,blue_circle,go,,,,go-1,2,,,,,,
2,471.0,15,phase_2,blue_rhombus,go,,,,go-1,1,,,,,,
0,0,15,phase_2,red_circle,stop,purple,150.0,tracking-SSD,go-2,4,,,,,,
1,387.0,15,phase_2,red_triangle,go,,,,go-2,1,,,,,,
2,519.0,15,phase_2,blue_rhombus,stop,purple,200.0,tracking-SSD,go-1,3,,,,,,
0,0,16,phase_2,red_triangle,stop,green,0.0,0-SSD,go-2,4,,,,,,
1,440.0,16,phase_2,red_triangle,go,,,,go-2,1,,,,,,
2,482.0,16,phase_2,blue_circle,go,,,,go-1,1,,,,,,
0,0,16,phase_2,blue_rhombus,stop,green,0.0,0-SSD,go-1,4,,,,,,
1,364.0,16,phase_2,blue_triangle,go,,,,go-1,1,,,,,,
2,430.0,16,phase_2,red_pentagon,go,,,,go-2,2,,,,,,
0,0,16,phase_2,blue_circle,stop,green,0.0,0-SSD,go-1,4,,,,,,
0,0,16,phase_2,blue_rhombus,stop,green,0.0,0-SSD,go-1,4,,,,,,
1,422.0,16,phase_2,blue_triangle,go,,,,go-1,1,,,,,,
2,521.0,16,phase_2,blue_pentagon,go,,,,go-1,2,,,,,,
2,530.0,16,phase_2,red_rhombus,go,,,,go-2,1,,,,,,
1,461.0,16,phase_2,blue_triangle,stop,purple,150.0,tracking-SSD,go-1,3,,,,,,
1,492.0,16,phase_2,blue_triangle,stop,green,0.0,0-SSD,go-1,3,,,,,,
2,444.0,16,phase_2,red_circle,go,,,,go-2,1,,,,,,
1,407.0,16,phase_2,red_triangle,go,,,,go-2,1,,,,,,
2,451.0,16,phase_2,blue_pentagon,go,,,,go-1,2,,,,,,
0,0,16,phase_2,blue_pentagon,stop,purple,100.0,tracking-SSD,go-1,4,,,,,,
2,492.0,16,phase_2,red_circle,go,,,,go-2,1,,,,,,
1,433.0,16,phase_2,blue_triangle,go,,,,go-1,1,,,,,,
2,487.0,16,phase_2,red_rhombus,go,,,,go-2,1,,,,,,
1,418.0,16,phase_2,red_triangle,go,,,,go-2,1,,,,,,
2,405.0,16,phase_2,red_circle,go,,,,go-2,1,,,,,,
0,0,16,phase_2,red_rhombus,stop,purple,150.0,tracking-SSD,go-2,4,,,,,,
1,433.0,16,phase_2,red_pentagon,go,,,,go-2,1,,,,,,
2,565.0,16,phase_2,blue_rhombus,go,,,,go-1,1,,,,,,
2,497.0,16,phase_2,red_rhombus,stop,purple,200.0,tracking-SSD,go-2,3,,,,,,
1,494.0,16,phase_2,red_circle,go,,,,go-2,2,,,,,,
0,0,16,phase_2,red_triangle,stop,green,0.0,0-SSD,go-2,4,,,,,,
2,478.0,16,phase_2,blue_circle,go,,,,go-1,1,,,,,,
1,397.0,16,phase_2,red_triangle,go,,,,go-2,1,,,,,,
2,428.0,16,phase_2,blue_circle,go,,,,go-1,1,,,,,,
1,436.0,16,phase_2,blue_pentagon,go,,,,go-1,1,,,,,,
0,0,16,phase_2,red_pentagon,stop,green,0.0,0-SSD,go-2,4,,,,,,
0,0,16,phase_2,blue_pentagon,stop,purple,150.0,tracking-SSD,go-1,4,,,,,,
2,564.0,16,phase_2,blue_rhombus,go,,,,go-1,1,,,,,,
2,506.0,16,phase_2,blue_rhombus,stop,purple,200.0,tracking-SSD,go-1,3,,,,,,
1,369.0,16,phase_2,blue_rhombus,go,,,,go-1,2,,,,,,
0,0,16,phase_2,red_circle,stop,green,0.0,0-SSD,go-2,4,,,,,,
2,509.0,16,phase_2,red_rhombus,go,,,,go-2,1,,,,,,
0,0,16,phase_2,red_circle,stop,purple,150.0,tracking-SSD,go-2,4,,,,,,
2,628.0,16,phase_2,blue_circle,go,,,,go-1,1,,,,,,
1,704.0,16,phase_2,blue_pentagon,go,,,,go-1,1,,,,,,
1,634.0,16,phase_2,red_triangle,go,,,,go-2,1,,,,,,
1,621.0,16,phase_2,red_pentagon,go,,,,go-2,1,,,,,,
1,483.0,16,phase_2,blue_pentagon,go,,,,go-1,1,,,,,,
1,504.0,16,phase_2,red_pentagon,go,,,,go-2,1,,,,,,
2,602.0,16,phase_2,blue_rhombus,go,,,,go-1,1,,,,,,
2,532.0,16,phase_2,red_circle,stop,purple,200.0,tracking-SSD,go-2,3,,,,,,
0,0,17,phase_2,red_triangle,stop,purple,150.0,tracking-SSD,go-2,4,,,,,,
1,464.0,17,phase_2,blue_triangle,stop,purple,200.0,tracking-SSD,go-1,3,,,,,,
0,0,17,phase_2,blue_pentagon,stop,green,0.0,0-SSD,go-1,4,,,,,,
2,482.0,17,phase_2,blue_circle,go,,,,go-1,1,,,,,,
2,412.0,17,phase_2,red_circle,stop,purple,150.0,tracking-SSD,go-2,3,,,,,,
2,634.0,17,phase_2,red_rhombus,go,,,,go-2,1,,,,,,
0,0,17,phase_2,blue_pentagon,stop,purple,100.0,tracking-SSD,go-1,4,,,,,,
2,438.0,17,phase_2,red_circle,go,,,,go-2,1,,,,,,
2,423.0,17,phase_2,red_circle,go,,,,go-2,1,,,,,,
2,410.0,17,phase_2,blue_circle,go,,,,go-1,1,,,,,,
1,441.0,17,phase_2,red_triangle,go,,,,go-2,1,,,,,,
2,439.0,17,phase_2,blue_rhombus,go,,,,go-1,1,,,,,,
2,516.0,17,phase_2,red_circle,go,,,,go-2,1,,,,,,
0,0,17,phase_2,red_pentagon,stop,purple,150.0,tracking-SSD,go-2,4,,,,,,
1,443.0,17,phase_2,blue_pentagon,go,,,,go-1,1,,,,,,
2,486.0,17,phase_2,blue_triangle,go,,,,go-1,2,,,,,,
1,427.0,17,phase_2,red_triangle,go,,,,go-2,1,,,,,,
2,447.0,17,phase_2,blue_rhombus,go,,,,go-1,1,,,,,,
1,545.0,17,phase_2,blue_pentagon,go,,,,go-1,1,,,,,,
0,0,17,phase_2,red_pentagon,stop,green,0.0,0-SSD,go-2,4,,,,,,
1,450.0,17,phase_2,blue_pentagon,go,,,,go-1,1,,,,,,
0,0,17,phase_2,blue_rhombus,stop,green,0.0,0-SSD,go-1,4,,,,,,
2,478.0,17,phase_2,red_circle,go,,,,go-2,1,,,,,,
2,498.0,17,phase_2,red_circle,go,,,,go-2,1,,,,,,
1,416.0,17,phase_2,red_triangle,go,,,,go-2,1,,,,,,
1,571.0,17,phase_2,red_pentagon,go,,,,go-2,1,,,,,,
1,423.0,17,phase_2,red_pentagon,go,,,,go-2,1,,,,,,
2,443.0,17,phase_2,blue_circle,go,,,,go-1,1,,,,,,
2,586.0,17,phase_2,red_rhombus,go,,,,go-2,1,,,,,,
0,0,17,phase_2,blue_circle,stop,green,0.0,0-SSD,go-1,4,,,,,,
2,581.0,17,phase_2,blue_rhombus,go,,,,go-1,1,,,,,,
0,0,17,phase_2,red_pentagon,stop,green,0.0,0-SSD,go-2,4,,,,,,
2,386.0,17,phase_2,red_pentagon,stop,purple,200.0,tracking-SSD,go-2,3,,,,,,
1,461.0,17,phase_2,red_triangle,go,,,,go-2,1,,,,,,
1,481.0,17,phase_2,red_triangle,go,,,,go-2,1,,,,,,
0,0,17,phase_2,red_rhombus,stop,green,0.0,0-SSD,go-2,4,,,,,,
1,700.0,17,phase_2,blue_pentagon,go,,,,go-1,1,,,,,,
1,497.0,17,phase_2,blue_triangle,go,,,,go-1,1,,,,,,
0,0,17,phase_2,blue_rhombus,stop,purple,150.0,tracking-SSD,go-1,4,,,,,,
2,548.0,17,phase_2,red_rhombus,go,,,,go-2,1,,,,,,
0,0,17,phase_2,blue_circle,stop,purple,200.0,tracking-SSD,go-1,4,,,,,,
2,496.0,17,phase_2,blue_rhombus,go,,,,go-1,1,,,,,,
0,0,17,phase_2,blue_rhombus,stop,green,0.0,0-SSD,go-1,4,,,,,,
1,493.0,17,phase_2,red_triangle,go,,,,go-2,1,,,,,,
1,422.0,17,phase_2,blue_triangle,go,,,,go-1,1,,,,,,
1,385.0,17,phase_2,blue_triangle,go,,,,go-1,1,,,,,,
2,406.0,17,phase_2,blue_rhombus,go,,,,go-1,1,,,,,,
0,0,17,phase_2,red_circle,stop,green,0.0,0-SSD,go-2,4,,,,,,
,565.0,1,phase_3,,,,,,,,blue_square,go-1,blue_square,go-1,green_square,0-SSD
,505.0,1,phase_3,,,,,,,,blue_square,go-1,blue_square,go-1,purple_square,tracking-SSD
,1626.0,1,phase_3,,,,,,,,purple_square,tracking-SSD,red_square,go-2,purple_square,tracking-SSD
,879.0,1,phase_3,,,,,,,,green_square,0-SSD,red_square,go-2,green_square,0-SSD
,514.0,1,phase_3,,,,,,,,blue_square,go-1,blue_square,go-1,red_square,go-2
,577.0,1,phase_3,,,,,,,,green_square,0-SSD,green_square,0-SSD,purple_square,tracking-SSD
,506.0,1,phase_3,,,,,,,,blue_square,go-1,purple_square,tracking-SSD,blue_square,go-1
,569.0,1,phase_3,,,,,,,,green_square,0-SSD,green_square,0-SSD,red_square,go-2
,429.0,1,phase_3,,,,,,,,blue_square,go-1,red_square,go-2,blue_square,go-1
,977.0,1,phase_3,,,,,,,,blue_square,go-1,green_square,0-SSD,blue_square,go-1
,1647.0,1,phase_3,,,,,,,,purple_square,tracking-SSD,purple_square,tracking-SSD,red_square,go-2
,765.0,1,phase_3,,,,,,,,green_square,0-SSD,purple_square,tracking-SSD,green_square,0-SSD
,712.0,2,phase_3,,,,,,,,blue_square,go-1,blue_square,go-1,purple_square,tracking-SSD
,437.0,2,phase_3,,,,,,,,blue_square,go-1,blue_square,go-1,red_square,go-2
,737.0,2,phase_3,,,,,,,,green_square,0-SSD,green_square,0-SSD,purple_square,tracking-SSD
,710.0,2,phase_3,,,,,,,,red_square,go-2,red_square,go-2,purple_square,tracking-SSD
,886.0,2,phase_3,,,,,,,,green_square,0-SSD,red_square,go-2,green_square,0-SSD
,554.0,2,phase_3,,,,,,,,blue_square,go-1,blue_square,go-1,green_square,0-SSD
,944.0,2,phase_3,,,,,,,,purple_square,tracking-SSD,purple_square,tracking-SSD,red_square,go-2
,838.0,2,phase_3,,,,,,,,green_square,0-SSD,purple_square,tracking-SSD,green_square,0-SSD
,553.0,2,phase_3,,,,,,,,blue_square,go-1,purple_square,tracking-SSD,blue_square,go-1
,673.0,2,phase_3,,,,,,,,blue_square,go-1,green_square,0-SSD,blue_square,go-1
,522.0,2,phase_3,,,,,,,,green_square,0-SSD,green_square,0-SSD,red_square,go-2
,461.0,2,phase_3,,,,,,,,blue_square,go-1,red_square,go-2,blue_square,go-1
,578.0,3,phase_3,,,,,,,,blue_square,go-1,blue_square,go-1,purple_square,tracking-SSD
,810.0,3,phase_3,,,,,,,,purple_square,tracking-SSD,red_square,go-2,purple_square,tracking-SSD
,446.0,3,phase_3,,,,,,,,green_square,0-SSD,green_square,0-SSD,purple_square,tracking-SSD
,532.0,3,phase_3,,,,,,,,blue_square,go-1,blue_square,go-1,green_square,0-SSD
,560.0,3,phase_3,,,,,,,,green_square,0-SSD,red_square,go-2,green_square,0-SSD
,398.0,3,phase_3,,,,,,,,blue_square,go-1,blue_square,go-1,red_square,go-2
,856.0,3,phase_3,,,,,,,,purple_square,tracking-SSD,purple_square,tracking-SSD,red_square,go-2
,581.0,3,phase_3,,,,,,,,blue_square,go-1,green_square,0-SSD,blue_square,go-1
,465.0,3,phase_3,,,,,,,,blue_square,go-1,purple_square,tracking-SSD,blue_square,go-1
,450.0,3,phase_3,,,,,,,,green_square,0-SSD,purple_square,tracking-SSD,green_square,0-SSD
,410.0,3,phase_3,,,,,,,,green_square,0-SSD,green_square,0-SSD,red_square,go-2
,452.0,3,phase_3,,,,,,,,blue_square,go-1,red_square,go-2,blue_square,go-1
,982.0,4,phase_3,,,,,,,,purple_square,tracking-SSD,red_square,go-2,purple_square,tracking-SSD
,370.0,4,phase_3,,,,,,,,blue_square,go-1,blue_square,go-1,red_square,go-2
,658.0,4,phase_3,,,,,,,,blue_square,go-1,blue_square,go-1,green_square,0-SSD
,778.0,4,phase_3,,,,,,,,green_square,0-SSD,green_square,0-SSD,purple_square,tracking-SSD
,683.0,4,phase_3,,,,,,,,green_square,0-SSD,red_square,go-2,green_square,0-SSD
,926.0,4,phase_3,,,,,,,,blue_square,go-1,blue_square,go-1,purple_square,tracking-SSD
,742.0,4,phase_3,,,,,,,,blue_square,go-1,red_square,go-2,blue_square,go-1
,568.0,4,phase_3,,,,,,,,green_square,0-SSD,green_square,0-SSD,red_square,go-2
,992.0,4,phase_3,,,,,,,,purple_square,tracking-SSD,purple_square,tracking-SSD,red_square,go-2
,594.0,4,phase_3,,,,,,,,green_square,0-SSD,purple_square,tracking-SSD,green_square,0-SSD
,859.0,4,phase_3,,,,,,,,blue_square,go-1,green_square,0-SSD,blue_square,go-1
,551.0,4,phase_3,,,,,,,,blue_square,go-1,purple_square,tracking-SSD,blue_square,go-1
,521.0,5,phase_3,,,,,,,,green_square,0-SSD,green_square,0-SSD,purple_square,tracking-SSD
,472.0,5,phase_3,,,,,,,,blue_square,go-1,blue_square,go-1,purple_square,tracking-SSD
,817.0,5,phase_3,,,,,,,,green_square,0-SSD,red_square,go-2,green_square,0-SSD
,442.0,5,phase_3,,,,,,,,blue_square,go-1,blue_square,go-1,red_square,go-2
,639.0,5,phase_3,,,,,,,,blue_square,go-1,blue_square,go-1,green_square,0-SSD
,691.0,5,phase_3,,,,,,,,purple_square,tracking-SSD,red_square,go-2,purple_square,tracking-SSD
,788.0,5,phase_3,,,,,,,,green_square,0-SSD,purple_square,tracking-SSD,green_square,0-SSD
,570.0,5,phase_3,,,,,,,,blue_square,go-1,red_square,go-2,blue_square,go-1
,442.0,5,phase_3,,,,,,,,blue_square,go-1,green_square,0-SSD,blue_square,go-1
,438.0,5,phase_3,,,,,,,,blue_square,go-1,purple_square,tracking-SSD,blue_square,go-1
,455.0,5,phase_3,,,,,,,,green_square,0-SSD,green_square,0-SSD,red_square,go-2
,586.0,5,phase_3,,,,,,,,purple_square,tracking-SSD,purple_square,tracking-SSD,red_square,go-2
