response,reaction_time,block,which_phase,stim,stop_signal_trial_type,stop_signal_stimulus,SSD,SSD_type,condition,accuracy,chosen_stim,chosen_cond,stim_left,cond_left,stim_right,cond_right
1,521.0,1,phase_2,red_triangle,go,,,,go-2,1,,,,,,
1,428.0,1,phase_2,red_triangle,go,,,,go-2,1,,,,,,
1,482.0,1,phase_2,green_pentagon,go,,,,go-1,1,,,,,,
1,502.0,1,phase_2,green_pentagon,go,,,,go-1,1,,,,,,
1,432.0,1,phase_2,green_rhombus,stop,purple,250.0,tracking-SSD,go-1,3,,,,,,
1,712.0,1,phase_2,green_triangle,stop,blue,0.0,0-SSD,go-1,3,,,,,,
0,0,1,phase_2,red_pentagon,stop,blue,0.0,0-SSD,go-2,4,,,,,,
1,640.0,1,phase_2,green_rhombus,go,,,,go-1,2,,,,,,
2,435.0,1,phase_2,red_circle,go,,,,go-2,1,,,,,,
2,533.0,1,phase_2,red_rhombus,go,,,,go-2,1,,,,,,
2,497.0,1,phase_2,red_rhombus,go,,,,go-2,1,,,,,,
1,450.0,1,phase_2,green_triangle,stop,blue,0.0,0-SSD,go-1,3,,,,,,
2,594.0,1,phase_2,green_circle,go,,,,go-1,1,,,,,,
0,0,1,phase_2,red_pentagon,stop,purple,200.0,tracking-SSD,go-2,4,,,,,,
2,555.0,1,phase_2,green_rhombus,go,,,,go-1,1,,,,,,
1,732.0,1,phase_2,red_pentagon,go,,,,go-2,1,,,,,,
2,439.0,1,phase_2,green_rhombus,go,,,,go-1,1,,,,,,
2,425.0,1,phase_2,green_rhombus,go,,,,go-1,1,,,,,,
0,0,1,phase_2,red_pentagon,stop,purple,250.0,tracking-SSD,go-2,4,,,,,,
2,476.0,1,phase_2,green_circle,go,,,,go-1,1,,,,,,
1,610.0,1,phase_2,green_triangle,stop,purple,300.0,tracking-SSD,go-1,3,,,,,,
2,449.0,1,phase_2,green_circle,go,,,,go-1,1,,,,,,
2,516.0,1,phase_2,green_circle,stop,purple,250.0,tracking-SSD,go-1,3,,,,,,
1,468.0,1,phase_2,green_triangle,go,,,,go-1,1,,,,,,
2,647.0,1,phase_2,red_rhombus,go,,,,go-2,1,,,,,,
0,0,1,phase_2,red_circle,stop,blue,0.0,0-SSD,go-2,4,,,,,,
2,541.0,1,phase_2,red_rhombus,go,,,,go-2,1,,,,,,
1,460.0,1,phase_2,red_triangle,stop,purple,200.0,tracking-SSD,go-2,3,,,,,,
2,479.0,1,phase_2,red_pentagon,go,,,,go-2,2,,,,,,
1,691.0,1,phase_2,green_pentagon,go,,,,go-1,1,,,,,,
2,610.0,1,phase_2,red_rhombus,go,,,,go-2,1,,,,,,
2,348.0,1,phase_2,red_circle,go,,,,go-2,1,,,,,,
1,437.0,1,phase_2,red_triangle,go,,,,go-2,1,,,,,,
1,558.0,1,phase_2,red_triangle,stop,purple,150.0,tracking-SSD,go-2,3,,,,,,
0,0,1,phase_2,red_triangle,stop,blue,0.0,0-SSD,go-2,4,,,,,,
1,633.0,1,phase_2,green_pentagon,go,,,,go-1,1,,,,,,
1,485.0,1,phase_2,green_triangle,go,,,,go-1,1,,,,,,
0,0,1,phase_2,green_triangle,stop,blue,0.0,0-SSD,go-1,4,,,,,,
1,694.0,1,phase_2,red_pentagon,go,,,,go-2,1,,,,,,
0,0,1,phase_2,red_pentagon,stop,blue,0.0,0-SSD,go-2,4,,,,,,
2,465.0,1,phase_2,green_circle,go,,,,go-1,1,,,,,,
2,407.0,1,phase_2,green_rhombus,go,,,,go-1,1,,,,,,
1,495.0,1,phase_2,red_pentagon,go,,,,go-2,1,,,,,,
0,0,1,phase_2,green_circle,stop,blue,0.0,0-SSD,go-1,4,,,,,,
0,0,1,phase_2,green_rhombus,stop,purple,100.0,tracking-SSD,go-1,4,,,,,,
2,432.0,1,phase_2,green_circle,go,,,,go-1,1,,,,,,
2,429.0,1,phase_2,red_circle,go,,,,go-2,1,,,,,,
2,347.0,1,phase_2,red_circle,go,,,,go-2,1,,,,,,
2,420.0,2,phase_2,green_circle,go,,,,go-1,1,,,,,,
1,520.0,2,phase_2,green_pentagon,go,,,,go-1,1,,,,,,
1,449.0,2,phase_2,red_rhombus,stop,purple,150.0,tracking-SSD,go-2,3,,,,,,
2,471.0,2,phase_2,red_circle,go,,,,go-2,1,,,,,,
0,0,2,phase_2,green_triangle,stop,blue,0.0,0-SSD,go-1,4,,,,,,
2,424.0,2,phase_2,red_circle,go,,,,go-2,1,,,,,,
1,578.0,2,phase_2,red_pentagon,go,,,,go-2,1,,,,,,
1,533.0,2,phase_2,green_rhombus,go,,,,go-1,2,,,,,,
0,0,2,phase_2,green_triangle,stop,purple,100.0,tracking-SSD,go-1,4,,,,,,
1,551.0,2,phase_2,red_triangle,go,,,,go-2,1,,,,,,
1,470.0,2,phase_2,green_triangle,go,,,,go-1,1,,,,,,
2,500.0,2,phase_2,green_circle,stop,purple,150.0,tracking-SSD,go-1,3,,,,,,
0,0,2,phase_2,red_rhombus,stop,blue,0.0,0-SSD,go-2,4,,,,,,
0,0,2,phase_2,green_circle,stop,blue,0.0,0-SSD,go-1,4,,,,,,
2,461.0,2,phase_2,red_rhombus,go,,,,go-2,1,,,,,,
2,539.0,2,phase_2,green_circle,go,,,,go-1,1,,,,,,
1,423.0,2,phase_2,red_pentagon,go,,,,go-2,1,,,,,,
2,724.0,2,phase_2,red_rhombus,go,,,,go-2,1,,,,,,
1,565.0,2,phase_2,green_pentagon,go,,,,go-1,1,,,,,,
1,585.0,2,phase_2,red_triangle,go,,,,go-2,1,,,,,,
2,448.0,2,phase_2,green_circle,stop,purple,100.0,tracking-SSD,go-1,3,,,,,,
2,602.0,2,phase_2,green_rhombus,go,,,,go-1,1,,,,,,
1,420.0,2,phase_2,green_pentagon,go,,,,go-1,1,,,,,,
1,462.0,2,phase_2,red_rhombus,go,,,,go-2,2,,,,,,
1,617.0,2,phase_2,green_triangle,go,,,,go-1,1,,,,,,
2,356.0,2,phase_2,red_circle,stop,purple,50.0,tracking-SSD,go-2,3,,,,,,
0,0,2,phase_2,red_rhombus,stop,blue,0.0,0-SSD,go-2,4,,,,,,
2,858.0,2,phase_2,green_rhombus,go,,,,go-1,1,,,,,,
1,518.0,2,phase_2,red_triangle,go,,,,go-2,1,,,,,,
1,573.0,2,phase_2,green_pentagon,go,,,,go-1,1,,,,,,
2,457.0,2,phase_2,red_circle,go,,,,go-2,1,,,,,,
2,444.0,2,phase_2,green_circle,go,,,,go-1,1,,,,,,
1,531.0,2,phase_2,green_triangle,go,,,,go-1,1,,,,,,
0,0,2,phase_2,red_triangle,stop,purple,0.0,tracking-SSD,go-2,4,,,,,,
1,730.0,2,phase_2,green_triangle,go,,,,go-1,1,,,,,,
2,379.0,2,phase_2,green_pentagon,go,,,,go-1,2,,,,,,
0,0,2,phase_2,red_circle,stop,blue,0.0,0-SSD,go-2,4,,,,,,
0,0,2,phase_2,green_rhombus,stop,purple,50.0,tracking-SSD,go-1,4,,,,,,
1,585.0,2,phase_2,red_pentagon,go,,,,go-2,1,,,,,,
1,449.0,2,phase_2,green_pentagon,go,,,,go-1,1,,,,,,
2,481.0,2,phase_2,red_circle,go,,,,go-2,1,,,,,,
0,0,2,phase_2,green_pentagon,stop,blue,0.0,0-SSD,go-1,4,,,,,,
1,543.0,2,phase_2,red_pentagon,go,,,,go-2,1,,,,,,
0,0,2,phase_2,red_pentagon,stop,blue,0.0,0-SSD,go-2,4,,,,,,
2,538.0,2,phase_2,red_rhombus,go,,,,go-2,1,,,,,,
2,480.0,2,phase_2,red_triangle,stop,purple,100.0,tracking-SSD,go-2,3,,,,,,
0,0,2,phase_2,green_triangle,stop,blue,0.0,0-SSD,go-1,4,,,,,,
2,508.0,2,phase_2,red_rhombus,go,,,,go-2,1,,,,,,
1,577.0,3,phase_2,red_pentagon,go,,,,go-2,1,,,,,,
0,0,3,phase_2,red_pentagon,stop,purple,50.0,tracking-SSD,go-2,4,,,,,,
2,380.0,3,phase_2,green_rhombus,go,,,,go-1,1,,,,,,
1,693.0,3,phase_2,red_pentagon,go,,,,go-2,1,,,,,,
2,354.0,3,phase_2,green_rhombus,go,,,,go-1,1,,,,,,
1,485.0,3,phase_2,red_pentagon,go,,,,go-2,1,,,,,,
1,439.0,3,phase_2,red_triangle,go,,,,go-2,1,,,,,,
2,391.0,3,phase_2,red_circle,go,,,,go-2,1,,,,,,
1,569.0,3,phase_2,green_rhombus,go,,,,go-1,2,,,,,,
0,0,3,phase_2,red_circle,stop,purple,100.0,tracking-SSD,go-2,4,,,,,,
2,464.0,3,phase_2,red_circle,go,,,,go-2,1,,,,,,
2,440.0,3,phase_2,green_circle,stop,purple,150.0,tracking-SSD,go-1,3,,,,,,
0,0,3,phase_2,green_rhombus,stop,blue,0.0,0-SSD,go-1,4,,,,,,
1,333.0,3,phase_2,green_triangle,go,,,,go-1,1,,,,,,
2,420.0,3,phase_2,red_rhombus,go,,,,go-2,1,,,,,,
0,0,3,phase_2,red_pentagon,stop,blue,0.0,0-SSD,go-2,4,,,,,,
0,0,3,phase_2,red_triangle,stop,purple,100.0,tracking-SSD,go-2,4,,,,,,
0,0,3,phase_2,green_pentagon,stop,blue,0.0,0-SSD,go-1,4,,,,,,
0,0,3,phase_2,red_pentagon,stop,blue,0.0,0-SSD,go-2,4,,,,,,
1,490.0,3,phase_2,green_triangle,go,,,,go-1,1,,,,,,
2,385.0,3,phase_2,red_circle,go,,,,go-2,1,,,,,,
0,0,3,phase_2,green_circle,stop,blue,0.0,0-SSD,go-1,4,,,,,,
0,0,3,phase_2,green_circle,stop,purple,150.0,tracking-SSD,go-1,4,,,,,,
1,401.0,3,phase_2,green_triangle,go,,,,go-1,1,,,,,,
2,590.0,3,phase_2,red_circle,stop,blue,0.0,0-SSD,go-2,3,,,,,,
2,384.0,3,phase_2,red_rhombus,go,,,,go-2,1,,,,,,
1,528.0,3,phase_2,red_triangle,go,,,,go-2,1,,,,,,
2,368.0,3,phase_2,green_rhombus,go,,,,go-1,1,,,,,,
1,569.0,3,phase_2,red_rhombus,go,,,,go-2,2,,,,,,
2,388.0,3,phase_2,green_rhombus,go,,,,go-1,1,,,,,,
1,453.0,3,phase_2,red_triangle,go,,,,go-2,1,,,,,,
1,497.0,3,phase_2,green_triangle,go,,,,go-1,1,,,,,,
2,472.0,3,phase_2,red_rhombus,go,,,,go-2,1,,,,,,
2,290.0,3,phase_2,green_triangle,go,,,,go-1,2,,,,,,
1,536.0,3,phase_2,green_triangle,stop,purple,200.0,tracking-SSD,go-1,3,,,,,,
1,375.0,3,phase_2,green_triangle,go,,,,go-1,1,,,,,,
2,406.0,3,phase_2,red_pentagon,stop,blue,0.0,0-SSD,go-2,3,,,,,,
2,370.0,3,phase_2,green_circle,go,,,,go-1,1,,,,,,
1,413.0,3,phase_2,green_triangle,stop,blue,0.0,0-SSD,go-1,3,,,,,,
2,558.0,3,phase_2,green_pentagon,go,,,,go-1,2,,,,,,
0,0,3,phase_2,green_pentagon,stop,purple,150.0,tracking-SSD,go-1,4,,,,,,
2,338.0,3,phase_2,green_circle,go,,,,go-1,1,,,,,,
1,393.0,3,phase_2,red_rhombus,stop,purple,200.0,tracking-SSD,go-2,3,,,,,,
1,603.0,3,phase_2,green_pentagon,go,,,,go-1,1,,,,,,
2,602.0,3,phase_2,red_rhombus,go,,,,go-2,1,,,,,,
1,544.0,3,phase_2,red_pentagon,go,,,,go-2,1,,,,,,
2,462.0,3,phase_2,green_circle,go,,,,go-1,1,,,,,,
2,337.0,3,phase_2,red_circle,go,,,,go-2,1,,,,,,
1,499.0,4,phase_2,green_rhombus,go,,,,go-1,2,,,,,,
2,520.0,4,phase_2,red_circle,stop,purple,150.0,tracking-SSD,go-2,3,,,,,,
2,338.0,4,phase_2,green_circle,go,,,,go-1,1,,,,,,
2,439.0,4,phase_2,red_rhombus,go,,,,go-2,1,,,,,,
1,561.0,4,phase_2,red_pentagon,go,,,,go-2,1,,,,,,
1,367.0,4,phase_2,red_triangle,go,,,,go-2,1,,,,,,
1,488.0,4,phase_2,red_rhombus,go,,,,go-2,2,,,,,,
0,0,4,phase_2,red_rhombus,stop,purple,100.0,tracking-SSD,go-2,4,,,,,,
2,405.0,4,phase_2,red_circle,go,,,,go-2,1,,,,,,
1,629.0,4,phase_2,green_pentagon,go,,,,go-1,1,,,,,,
0,0,4,phase_2,red_triangle,stop,blue,0.0,0-SSD,go-2,4,,,,,,
0,0,4,phase_2,green_triangle,stop,blue,0.0,0-SSD,go-1,4,,,,,,
2,398.0,4,phase_2,red_circle,go,,,,go-2,1,,,,,,
0,0,4,phase_2,red_rhombus,stop,blue,0.0,0-SSD,go-2,4,,,,,,
2,539.0,4,phase_2,green_circle,go,,,,go-1,1,,,,,,
1,436.0,4,phase_2,red_pentagon,stop,blue,0.0,0-SSD,go-2,3,,,,,,
0,0,4,phase_2,green_rhombus,stop,blue,0.0,0-SSD,go-1,4,,,,,,
0,0,4,phase_2,red_rhombus,stop,purple,150.0,tracking-SSD,go-2,4,,,,,,
1,722.0,4,phase_2,green_pentagon,go,,,,go-1,1,,,,,,
2,697.0,4,phase_2,red_triangle,go,,,,go-2,2,,,,,,
2,572.0,4,phase_2,red_circle,go,,,,go-2,1,,,,,,
0,0,4,phase_2,green_pentagon,stop,purple,200.0,tracking-SSD,go-1,4,,,,,,
1,648.0,4,phase_2,green_triangle,go,,,,go-1,1,,,,,,
1,477.0,4,phase_2,green_triangle,go,,,,go-1,1,,,,,,
1,396.0,4,phase_2,green_rhombus,go,,,,go-1,2,,,,,,
2,428.0,4,phase_2,red_circle,go,,,,go-2,1,,,,,,
2,550.0,4,phase_2,red_triangle,go,,,,go-2,2,,,,,,
2,457.0,4,phase_2,green_triangle,go,,,,go-1,2,,,,,,
2,444.0,4,phase_2,green_pentagon,go,,,,go-1,2,,,,,,
2,577.0,4,phase_2,green_rhombus,go,,,,go-1,1,,,,,,
0,0,4,phase_2,green_pentagon,stop,blue,0.0,0-SSD,go-1,4,,,,,,
2,447.0,4,phase_2,red_circle,go,,,,go-2,1,,,,,,
1,614.0,4,phase_2,red_pentagon,go,,,,go-2,1,,,,,,
1,555.0,4,phase_2,red_triangle,go,,,,go-2,1,,,,,,
1,879.0,4,phase_2,green_pentagon,go,,,,go-1,1,,,,,,
0,0,4,phase_2,red_pentagon,stop,blue,0.0,0-SSD,go-2,4,,,,,,
1,593.0,4,phase_2,green_pentagon,stop,purple,250.0,tracking-SSD,go-1,3,,,,,,
0,0,4,phase_2,red_rhombus,go,,,,go-2,2,,,,,,
2,824.0,4,phase_2,red_circle,go,,,,go-2,1,,,,,,
1,620.0,4,phase_2,green_triangle,stop,blue,0.0,0-SSD,go-1,3,,,,,,
2,425.0,4,phase_2,green_circle,go,,,,go-1,1,,,,,,
2,357.0,4,phase_2,green_triangle,go,,,,go-1,2,,,,,,
1,624.0,4,phase_2,green_triangle,stop,purple,200.0,tracking-SSD,go-1,3,,,,,,
2,532.0,4,phase_2,red_circle,go,,,,go-2,1,,,,,,
1,654.0,4,phase_2,green_rhombus,go,,,,go-1,2,,,,,,
1,516.0,4,phase_2,red_pentagon,stop,purple,150.0,tracking-SSD,go-2,3,,,,,,
2,592.0,4,phase_2,green_rhombus,go,,,,go-1,1,,,,,,
0,0,4,phase_2,green_circle,stop,purple,100.0,tracking-SSD,go-1,4,,,,,,
1,645.0,5,phase_2,green_pentagon,go,,,,go-1,1,,,,,,
1,473.0,5,phase_2,red_pentagon,go,,,,go-2,1,,,,,,
2,515.0,5,phase_2,green_triangle,go,,,,go-1,2,,,,,,
2,536.0,5,phase_2,red_rhombus,go,,,,go-2,1,,,,,,
1,568.0,5,phase_2,red_pentagon,go,,,,go-2,1,,,,,,
2,465.0,5,phase_2,green_circle,stop,purple,150.0,tracking-SSD,go-1,3,,,,,,
1,868.0,5,phase_2,green_pentagon,go,,,,go-1,1,,,,,,
1,529.0,5,phase_2,green_triangle,go,,,,go-1,1,,,,,,
2,471.0,5,phase_2,red_pentagon,go,,,,go-2,2,,,,,,
0,0,5,phase_2,green_rhombus,stop,purple,100.0,tracking-SSD,go-1,4,,,,,,
1,501.0,5,phase_2,red_triangle,go,,,,go-2,1,,,,,,
2,509.0,5,phase_2,green_circle,go,,,,go-1,1,,,,,,
1,586.0,5,phase_2,red_triangle,go,,,,go-2,1,,,,,,
1,493.0,5,phase_2,green_triangle,go,,,,go-1,1,,,,,,
1,582.0,5,phase_2,green_pentagon,go,,,,go-1,1,,,,,,
2,525.0,5,phase_2,green_circle,go,,,,go-1,1,,,,,,
2,511.0,5,phase_2,green_circle,go,,,,go-1,1,,,,,,
0,0,5,phase_2,red_pentagon,stop,purple,150.0,tracking-SSD,go-2,4,,,,,,
0,0,5,phase_2,red_circle,stop,purple,200.0,tracking-SSD,go-2,4,,,,,,
0,0,5,phase_2,green_rhombus,stop,blue,0.0,0-SSD,go-1,4,,,,,,
1,445.0,5,phase_2,red_triangle,go,,,,go-2,1,,,,,,
1,510.0,5,phase_2,red_pentagon,stop,purple,250.0,tracking-SSD,go-2,3,,,,,,
2,541.0,5,phase_2,green_rhombus,stop,purple,200.0,tracking-SSD,go-1,3,,,,,,
2,572.0,5,phase_2,green_rhombus,go,,,,go-1,1,,,,,,
1,435.0,5,phase_2,red_triangle,go,,,,go-2,1,,,,,,
1,580.0,5,phase_2,green_pentagon,stop,purple,150.0,tracking-SSD,go-1,3,,,,,,
2,576.0,5,phase_2,red_circle,stop,blue,0.0,0-SSD,go-2,3,,,,,,
2,372.0,5,phase_2,red_triangle,go,,,,go-2,2,,,,,,
1,606.0,5,phase_2,red_triangle,go,,,,go-2,1,,,,,,
1,345.0,5,phase_2,red_triangle,go,,,,go-2,1,,,,,,
0,0,5,phase_2,green_triangle,stop,blue,0.0,0-SSD,go-1,4,,,,,,
0,0,5,phase_2,red_circle,stop,blue,0.0,0-SSD,go-2,4,,,,,,
0,0,5,phase_2,red_pentagon,stop,blue,0.0,0-SSD,go-2,4,,,,,,
2,853.0,5,phase_2,red_circle,go,,,,go-2,1,,,,,,
1,355.0,5,phase_2,green_rhombus,go,,,,go-1,2,,,,,,
1,510.0,5,phase_2,green_pentagon,go,,,,go-1,1,,,,,,
1,474.0,5,phase_2,green_rhombus,go,,,,go-1,2,,,,,,
0,0,5,phase_2,red_rhombus,stop,purple,100.0,tracking-SSD,go-2,4,,,,,,
2,694.0,5,phase_2,red_rhombus,go,,,,go-2,1,,,,,,
1,715.0,5,phase_2,green_triangle,go,,,,go-1,1,,,,,,
2,498.0,5,phase_2,red_rhombus,go,,,,go-2,1,,,,,,
2,664.0,5,phase_2,red_rhombus,go,,,,go-2,1,,,,,,
2,718.0,5,phase_2,green_circle,go,,,,go-1,1,,,,,,
0,0,5,phase_2,green_circle,stop,blue,0.0,0-SSD,go-1,4,,,,,,
0,0,5,phase_2,red_circle,stop,blue,0.0,0-SSD,go-2,4,,,,,,
2,576.0,5,phase_2,red_rhombus,go,,,,go-2,1,,,,,,
1,686.0,5,phase_2,green_pentagon,stop,blue,0.0,0-SSD,go-1,3,,,,,,
2,550.0,5,phase_2,green_circle,go,,,,go-1,1,,,,,,
1,588.0,6,phase_2,green_rhombus,go,,,,go-1,2,,,,,,
1,394.0,6,phase_2,red_triangle,go,,,,go-2,1,,,,,,
2,470.0,6,phase_2,green_circle,stop,purple,150.0,tracking-SSD,go-1,3,,,,,,
2,458.0,6,phase_2,red_circle,go,,,,go-2,1,,,,,,
0,0,6,phase_2,red_rhombus,stop,purple,100.0,tracking-SSD,go-2,4,,,,,,
0,0,6,phase_2,green_pentagon,stop,purple,150.0,tracking-SSD,go-1,4,,,,,,
1,576.0,6,phase_2,red_pentagon,go,,,,go-2,1,,,,,,
2,382.0,6,phase_2,green_rhombus,go,,,,go-1,1,,,,,,
2,390.0,6,phase_2,red_circle,stop,purple,200.0,tracking-SSD,go-2,3,,,,,,
0,0,6,phase_2,red_circle,stop,purple,150.0,tracking-SSD,go-2,4,,,,,,
0,0,6,phase_2,red_rhombus,stop,blue,0.0,0-SSD,go-2,4,,,,,,
2,530.0,6,phase_2,green_circle,stop,purple,200.0,tracking-SSD,go-1,3,,,,,,
2,425.0,6,phase_2,green_rhombus,go,,,,go-1,1,,,,,,
1,400.0,6,phase_2,red_triangle,go,,,,go-2,1,,,,,,
2,398.0,6,phase_2,green_triangle,go,,,,go-1,2,,,,,,
1,475.0,6,phase_2,green_triangle,go,,,,go-1,1,,,,,,
0,0,6,phase_2,red_triangle,stop,blue,0.0,0-SSD,go-2,4,,,,,,
1,640.0,6,phase_2,red_pentagon,go,,,,go-2,1,,,,,,
2,389.0,6,phase_2,red_circle,go,,,,go-2,1,,,,,,
0,0,6,phase_2,green_rhombus,stop,blue,0.0,0-SSD,go-1,4,,,,,,
1,531.0,6,phase_2,red_triangle,go,,,,go-2,1,,,,,,
2,731.0,6,phase_2,red_rhombus,go,,,,go-2,1,,,,,,
1,504.0,6,phase_2,red_pentagon,go,,,,go-2,1,,,,,,
1,468.0,6,phase_2,red_triangle,go,,,,go-2,1,,,,,,
0,0,6,phase_2,green_pentagon,stop,purple,150.0,tracking-SSD,go-1,4,,,,,,
0,0,6,phase_2,red_circle,stop,blue,0.0,0-SSD,go-2,4,,,,,,
0,0,6,phase_2,green_pentagon,stop,blue,0.0,0-SSD,go-1,4,,,,,,
1,582.0,6,phase_2,green_triangle,go,,,,go-1,1,,,,,,
1,410.0,6,phase_2,green_triangle,go,,,,go-1,1,,,,,,
2,396.0,6,phase_2,green_pentagon,go,,,,go-1,2,,,,,,
2,642.0,6,phase_2,green_rhombus,go,,,,go-1,1,,,,,,
1,617.0,6,phase_2,green_pentagon,go,,,,go-1,1,,,,,,
2,513.0,6,phase_2,red_circle,go,,,,go-2,1,,,,,,
1,623.0,6,phase_2,green_pentagon,go,,,,go-1,1,,,,,,
0,0,6,phase_2,green_circle,stop,blue,0.0,0-SSD,go-1,4,,,,,,
1,551.0,6,phase_2,red_rhombus,go,,,,go-2,2,,,,,,
2,617.0,6,phase_2,red_circle,go,,,,go-2,1,,,,,,
1,514.0,6,phase_2,red_triangle,stop,purple,200.0,tracking-SSD,go-2,3,,,,,,
1,848.0,6,phase_2,green_pentagon,go,,,,go-1,1,,,,,,
2,600.0,6,phase_2,green_rhombus,go,,,,go-1,1,,,,,,
2,766.0,6,phase_2,red_rhombus,go,,,,go-2,1,,,,,,
0,0,6,phase_2,red_circle,stop,blue,0.0,0-SSD,go-2,4,,,,,,
2,492.0,6,phase_2,red_circle,go,,,,go-2,1,,,,,,
2,647.0,6,phase_2,green_triangle,go,,,,go-1,2,,,,,,
1,633.0,6,phase_2,red_pentagon,go,,,,go-2,1,,,,,,
1,541.0,6,phase_2,green_pentagon,go,,,,go-1,1,,,,,,
0,0,6,phase_2,green_triangle,stop,blue,0.0,0-SSD,go-1,4,,,,,,
2,683.0,6,phase_2,green_rhombus,go,,,,go-1,1,,,,,,
1,577.0,7,phase_2,red_pentagon,go,,,,go-2,1,,,,,,
2,474.0,7,phase_2,green_circle,stop,purple,150.0,tracking-SSD,go-1,3,,,,,,
1,472.0,7,phase_2,red_pentagon,go,,,,go-2,1,,,,,,
1,593.0,7,phase_2,green_pentagon,go,,,,go-1,1,,,,,,
2,569.0,7,phase_2,red_rhombus,go,,,,go-2,1,,,,,,
1,544.0,7,phase_2,red_pentagon,go,,,,go-2,1,,,,,,
2,463.0,7,phase_2,red_circle,go,,,,go-2,1,,,,,,
0,0,7,phase_2,green_rhombus,stop,purple,100.0,tracking-SSD,go-1,4,,,,,,
0,0,7,phase_2,green_circle,stop,blue,0.0,0-SSD,go-1,4,,,,,,
1,568.0,7,phase_2,green_triangle,stop,purple,150.0,tracking-SSD,go-1,3,,,,,,
2,521.0,7,phase_2,green_pentagon,go,,,,go-1,2,,,,,,
1,487.0,7,phase_2,green_pentagon,go,,,,go-1,1,,,,,,
2,575.0,7,phase_2,red_rhombus,go,,,,go-2,1,,,,,,
1,606.0,7,phase_2,green_pentagon,go,,,,go-1,1,,,,,,
0,0,7,phase_2,red_rhombus,stop,blue,0.0,0-SSD,go-2,4,,,,,,
1,511.0,7,phase_2,red_pentagon,go,,,,go-2,1,,,,,,
1,530.0,7,phase_2,green_pentagon,go,,,,go-1,1,,,,,,
1,517.0,7,phase_2,green_triangle,go,,,,go-1,1,,,,,,
1,492.0,7,phase_2,green_pentagon,go,,,,go-1,1,,,,,,
2,456.0,7,phase_2,green_rhombus,go,,,,go-1,1,,,,,,
1,544.0,7,phase_2,green_triangle,go,,,,go-1,1,,,,,,
0,0,7,phase_2,red_circle,stop,blue,0.0,0-SSD,go-2,4,,,,,,
0,0,7,phase_2,red_rhombus,stop,blue,0.0,0-SSD,go-2,4,,,,,,
2,403.0,7,phase_2,red_circle,go,,,,go-2,1,,,,,,
1,424.0,7,phase_2,red_triangle,stop,purple,100.0,tracking-SSD,go-2,3,,,,,,
2,354.0,7,phase_2,red_circle,go,,,,go-2,1,,,,,,
1,531.0,7,phase_2,red_rhombus,go,,,,go-2,2,,,,,,
0,0,7,phase_2,red_circle,stop,purple,50.0,tracking-SSD,go-2,4,,,,,,
0,0,7,phase_2,green_rhombus,stop,blue,0.0,0-SSD,go-1,4,,,,,,
2,490.0,7,phase_2,green_circle,go,,,,go-1,1,,,,,,
2,487.0,7,phase_2,green_rhombus,go,,,,go-1,1,,,,,,
0,0,7,phase_2,red_rhombus,stop,purple,100.0,tracking-SSD,go-2,4,,,,,,
1,516.0,7,phase_2,red_triangle,stop,purple,150.0,tracking-SSD,go-2,3,,,,,,
2,490.0,7,phase_2,red_circle,go,,,,go-2,1,,,,,,
1,477.0,7,phase_2,red_triangle,go,,,,go-2,1,,,,,,
1,441.0,7,phase_2,red_triangle,go,,,,go-2,1,,,,,,
2,428.0,7,phase_2,green_circle,go,,,,go-1,1,,,,,,
1,494.0,7,phase_2,red_rhombus,go,,,,go-2,2,,,,,,
1,480.0,7,phase_2,green_triangle,go,,,,go-1,1,,,,,,
0,0,7,phase_2,green_triangle,stop,purple,100.0,tracking-SSD,go-1,4,,,,,,
0,0,7,phase_2,green_triangle,stop,blue,0.0,0-SSD,go-1,4,,,,,,
1,462.0,7,phase_2,green_triangle,go,,,,go-1,1,,,,,,
0,0,7,phase_2,red_pentagon,stop,blue,0.0,0-SSD,go-2,4,,,,,,
2,381.0,7,phase_2,red_circle,go,,,,go-2,1,,,,,,
0,0,7,phase_2,green_rhombus,stop,blue,0.0,0-SSD,go-1,4,,,,,,
2,409.0,7,phase_2,red_circle,go,,,,go-2,1,,,,,,
1,463.0,7,phase_2,green_triangle,go,,,,go-1,1,,,,,,
1,562.0,7,phase_2,green_pentagon,go,,,,go-1,1,,,,,,
1,556.0,8,phase_2,red_rhombus,stop,purple,150.0,tracking-SSD,go-2,3,,,,,,
0,0,8,phase_2,green_rhombus,stop,blue,0.0,0-SSD,go-1,4,,,,,,
2,451.0,8,phase_2,green_circle,go,,,,go-1,1,,,,,,
1,506.0,8,phase_2,green_rhombus,go,,,,go-1,2,,,,,,
1,605.0,8,phase_2,red_triangle,go,,,,go-2,1,,,,,,
0,0,8,phase_2,green_rhombus,stop,blue,0.0,0-SSD,go-1,4,,,,,,
2,747.0,8,phase_2,red_rhombus,go,,,,go-2,1,,,,,,
2,587.0,8,phase_2,green_rhombus,go,,,,go-1,1,,,,,,
2,471.0,8,phase_2,green_rhombus,stop,purple,100.0,tracking-SSD,go-1,3,,,,,,
1,390.0,8,phase_2,red_triangle,go,,,,go-2,1,,,,,,
1,433.0,8,phase_2,red_triangle,go,,,,go-2,1,,,,,,
2,419.0,8,phase_2,green_rhombus,go,,,,go-1,1,,,,,,
2,417.0,8,phase_2,green_circle,stop,purple,50.0,tracking-SSD,go-1,3,,,,,,
1,583.0,8,phase_2,green_pentagon,go,,,,go-1,1,,,,,,
2,423.0,8,phase_2,green_circle,go,,,,go-1,1,,,,,,
1,443.0,8,phase_2,green_rhombus,go,,,,go-1,2,,,,,,
0,0,8,phase_2,red_pentagon,stop,purple,0.0,tracking-SSD,go-2,4,,,,,,
1,720.0,8,phase_2,red_pentagon,go,,,,go-2,1,,,,,,
0,0,8,phase_2,red_triangle,stop,purple,50.0,tracking-SSD,go-2,4,,,,,,
1,367.0,8,phase_2,red_triangle,go,,,,go-2,1,,,,,,
2,500.0,8,phase_2,red_circle,go,,,,go-2,1,,,,,,
0,0,8,phase_2,red_triangle,stop,blue,0.0,0-SSD,go-2,4,,,,,,
1,417.0,8,phase_2,red_circle,go,,,,go-2,2,,,,,,
2,584.0,8,phase_2,red_triangle,go,,,,go-2,2,,,,,,
2,457.0,8,phase_2,green_circle,stop,purple,100.0,tracking-SSD,go-1,3,,,,,,
2,355.0,8,phase_2,red_circle,go,,,,go-2,1,,,,,,
1,397.0,8,phase_2,green_triangle,stop,blue,0.0,0-SSD,go-1,3,,,,,,
1,588.0,8,phase_2,red_pentagon,go,,,,go-2,1,,,,,,
2,438.0,8,phase_2,green_circle,go,,,,go-1,1,,,,,,
2,436.0,8,phase_2,red_circle,go,,,,go-2,1,,,,,,
1,466.0,8,phase_2,red_pentagon,go,,,,go-2,1,,,,,,
2,375.0,8,phase_2,green_rhombus,go,,,,go-1,1,,,,,,
1,406.0,8,phase_2,red_circle,go,,,,go-2,2,,,,,,
1,403.0,8,phase_2,green_triangle,go,,,,go-1,1,,,,,,
0,0,8,phase_2,red_pentagon,stop,blue,0.0,0-SSD,go-2,4,,,,,,
0,0,8,phase_2,green_triangle,stop,blue,0.0,0-SSD,go-1,4,,,,,,
2,657.0,8,phase_2,green_rhombus,go,,,,go-1,1,,,,,,
0,0,8,phase_2,red_pentagon,stop,blue,0.0,0-SSD,go-2,4,,,,,,
1,506.0,8,phase_2,red_triangle,go,,,,go-2,1,,,,,,
2,504.0,8,phase_2,green_circle,go,,,,go-1,1,,,,,,
2,445.0,8,phase_2,red_circle,go,,,,go-2,1,,,,,,
1,376.0,8,phase_2,green_pentagon,go,,,,go-1,1,,,,,,
2,386.0,8,phase_2,green_pentagon,go,,,,go-1,2,,,,,,
1,518.0,8,phase_2,green_triangle,go,,,,go-1,1,,,,,,
0,0,8,phase_2,red_pentagon,stop,blue,0.0,0-SSD,go-2,4,,,,,,
2,434.0,8,phase_2,green_pentagon,go,,,,go-1,2,,,,,,
0,0,8,phase_2,red_rhombus,stop,purple,50.0,tracking-SSD,go-2,4,,,,,,
0,0,8,phase_2,green_pentagon,stop,purple,100.0,tracking-SSD,go-1,4,,,,,,
2,657.0,9,phase_2,green_rhombus,go,,,,go-1,1,,,,,,
2,564.0,9,phase_2,green_rhombus,go,,,,go-1,1,,,,,,
1,539.0,9,phase_2,red_pentagon,go,,,,go-2,1,,,,,,
0,0,9,phase_2,green_rhombus,stop,blue,0.0,0-SSD,go-1,4,,,,,,
1,467.0,9,phase_2,green_triangle,go,,,,go-1,1,,,,,,
2,464.0,9,phase_2,green_pentagon,go,,,,go-1,2,,,,,,
2,485.0,9,phase_2,green_circle,stop,purple,150.0,tracking-SSD,go-1,3,,,,,,
2,369.0,9,phase_2,green_rhombus,go,,,,go-1,1,,,,,,
1,569.0,9,phase_2,red_triangle,go,,,,go-2,1,,,,,,
2,477.0,9,phase_2,green_circle,go,,,,go-1,1,,,,,,
1,563.0,9,phase_2,red_pentagon,go,,,,go-2,1,,,,,,
0,0,9,phase_2,green_triangle,stop,purple,100.0,tracking-SSD,go-1,4,,,,,,
0,0,9,phase_2,green_rhombus,stop,blue,0.0,0-SSD,go-1,4,,,,,,
0,0,9,phase_2,red_triangle,stop,blue,0.0,0-SSD,go-2,4,,,,,,
2,521.0,9,phase_2,green_rhombus,go,,,,go-1,1,,,,,,
1,337.0,9,phase_2,red_pentagon,go,,,,go-2,1,,,,,,
2,458.0,9,phase_2,red_circle,go,,,,go-2,1,,,,,,
1,513.0,9,phase_2,red_pentagon,stop,purple,150.0,tracking-SSD,go-2,3,,,,,,
0,0,9,phase_2,red_circle,stop,purple,100.0,tracking-SSD,go-2,4,,,,,,
2,429.0,9,phase_2,red_circle,go,,,,go-2,1,,,,,,
1,426.0,9,phase_2,green_circle,go,,,,go-1,2,,,,,,
2,311.0,9,phase_2,green_circle,go,,,,go-1,1,,,,,,
0,0,9,phase_2,green_rhombus,stop,purple,150.0,tracking-SSD,go-1,4,,,,,,
1,466.0,9,phase_2,red_pentagon,stop,purple,200.0,tracking-SSD,go-2,3,,,,,,
1,498.0,9,phase_2,red_triangle,go,,,,go-2,1,,,,,,
0,0,9,phase_2,red_circle,stop,blue,0.0,0-SSD,go-2,4,,,,,,
2,437.0,9,phase_2,green_pentagon,go,,,,go-1,2,,,,,,
2,491.0,9,phase_2,green_circle,go,,,,go-1,1,,,,,,
2,612.0,9,phase_2,green_rhombus,go,,,,go-1,1,,,,,,
0,0,9,phase_2,green_circle,stop,blue,0.0,0-SSD,go-1,4,,,,,,
1,337.0,9,phase_2,red_circle,go,,,,go-2,2,,,,,,
1,514.0,9,phase_2,green_pentagon,go,,,,go-1,1,,,,,,
0,0,9,phase_2,green_pentagon,stop,purple,150.0,tracking-SSD,go-1,4,,,,,,
2,622.0,9,phase_2,green_circle,go,,,,go-1,1,,,,,,
1,563.0,9,phase_2,red_triangle,go,,,,go-2,1,,,,,,
0,0,9,phase_2,red_rhombus,stop,blue,0.0,0-SSD,go-2,4,,,,,,
2,862.0,9,phase_2,green_triangle,go,,,,go-1,2,,,,,,
2,511.0,9,phase_2,red_rhombus,go,,,,go-2,1,,,,,,
1,496.0,9,phase_2,red_triangle,go,,,,go-2,1,,,,,,
1,381.0,9,phase_2,red_triangle,stop,purple,200.0,tracking-SSD,go-2,3,,,,,,
1,502.0,9,phase_2,red_triangle,go,,,,go-2,1,,,,,,
1,444.0,9,phase_2,red_triangle,go,,,,go-2,1,,,,,,
2,464.0,9,phase_2,red_pentagon,go,,,,go-2,2,,,,,,
0,0,9,phase_2,green_triangle,stop,blue,0.0,0-SSD,go-1,4,,,,,,
2,551.0,9,phase_2,green_rhombus,go,,,,go-1,1,,,,,,
1,537.0,9,phase_2,red_pentagon,go,,,,go-2,1,,,,,,
1,512.0,9,phase_2,red_pentagon,go,,,,go-2,1,,,,,,
0,0,9,phase_2,red_rhombus,stop,blue,0.0,0-SSD,go-2,4,,,,,,
0,0,10,phase_2,green_triangle,stop,blue,0.0,0-SSD,go-1,4,,,,,,
0,0,10,phase_2,red_rhombus,stop,blue,0.0,0-SSD,go-2,4,,,,,,
1,608.0,10,phase_2,green_triangle,go,,,,go-1,1,,,,,,
2,482.0,10,phase_2,red_circle,stop,purple,150.0,tracking-SSD,go-2,3,,,,,,
1,345.0,10,phase_2,green_triangle,go,,,,go-1,1,,,,,,
1,409.0,10,phase_2,green_pentagon,go,,,,go-1,1,,,,,,
1,508.0,10,phase_2,red_rhombus,go,,,,go-2,2,,,,,,
2,584.0,10,phase_2,red_rhombus,go,,,,go-2,1,,,,,,
1,493.0,10,phase_2,green_pentagon,go,,,,go-1,1,,,,,,
1,434.0,10,phase_2,red_rhombus,go,,,,go-2,2,,,,,,
2,488.0,10,phase_2,green_circle,stop,purple,100.0,tracking-SSD,go-1,3,,,,,,
2,419.0,10,phase_2,green_circle,go,,,,go-1,1,,,,,,
0,0,10,phase_2,red_triangle,stop,blue,0.0,0-SSD,go-2,4,,,,,,
2,515.0,10,phase_2,green_pentagon,go,,,,go-1,2,,,,,,
2,647.0,10,phase_2,red_rhombus,go,,,,go-2,1,,,,,,
2,453.0,10,phase_2,green_circle,go,,,,go-1,1,,,,,,
1,518.0,10,phase_2,red_rhombus,go,,,,go-2,2,,,,,,
0,0,10,phase_2,red_pentagon,stop,purple,50.0,tracking-SSD,go-2,4,,,,,,
1,683.0,10,phase_2,green_triangle,go,,,,go-1,1,,,,,,
1,637.0,10,phase_2,red_triangle,go,,,,go-2,1,,,,,,
2,408.0,10,phase_2,red_circle,go,,,,go-2,1,,,,,,
2,575.0,10,phase_2,green_rhombus,go,,,,go-1,1,,,,,,
1,427.0,10,phase_2,red_triangle,go,,,,go-2,1,,,,,,
2,390.0,10,phase_2,red_pentagon,go,,,,go-2,2,,,,,,
2,433.0,10,phase_2,green_circle,go,,,,go-1,1,,,,,,
1,598.0,10,phase_2,green_pentagon,go,,,,go-1,1,,,,,,
0,0,10,phase_2,green_circle,stop,purple,100.0,tracking-SSD,go-1,4,,,,,,
0,0,10,phase_2,green_rhombus,stop,blue,0.0,0-SSD,go-1,4,,,,,,
1,501.0,10,phase_2,green_triangle,go,,,,go-1,1,,,,,,
2,600.0,10,phase_2,red_rhombus,go,,,,go-2,1,,,,,,
1,619.0,10,phase_2,green_pentagon,go,,,,go-1,1,,,,,,
1,516.0,10,phase_2,green_rhombus,go,,,,go-1,2,,,,,,
2,525.0,10,phase_2,red_rhombus,go,,,,go-2,1,,,,,,
0,0,10,phase_2,green_circle,stop,blue,0.0,0-SSD,go-1,4,,,,,,
1,532.0,10,phase_2,red_pentagon,go,,,,go-2,1,,,,,,
0,0,10,phase_2,red_pentagon,stop,blue,0.0,0-SSD,go-2,4,,,,,,
0,0,10,phase_2,green_pentagon,stop,blue,0.0,0-SSD,go-1,4,,,,,,
0,0,10,phase_2,red_pentagon,stop,blue,0.0,0-SSD,go-2,4,,,,,,
2,443.0,10,phase_2,red_rhombus,stop,purple,150.0,tracking-SSD,go-2,3,,,,,,
0,0,10,phase_2,red_triangle,stop,purple,100.0,tracking-SSD,go-2,4,,,,,,
2,472.0,10,phase_2,red_circle,go,,,,go-2,1,,,,,,
2,514.0,10,phase_2,green_circle,stop,purple,150.0,tracking-SSD,go-1,3,,,,,,
2,355.0,10,phase_2,green_circle,go,,,,go-1,1,,,,,,
1,520.0,10,phase_2,green_triangle,go,,,,go-1,1,,,,,,
2,451.0,10,phase_2,red_pentagon,go,,,,go-2,2,,,,,,
1,493.0,10,phase_2,red_triangle,go,,,,go-2,1,,,,,,
1,490.0,10,phase_2,red_triangle,go,,,,go-2,1,,,,,,
2,386.0,10,phase_2,green_circle,stop,purple,100.0,tracking-SSD,go-1,3,,,,,,
2,589.0,11,phase_2,green_circle,go,,,,go-1,1,,,,,,
0,0,11,phase_2,green_circle,stop,blue,0.0,0-SSD,go-1,4,,,,,,
1,370.0,11,phase_2,red_rhombus,go,,,,go-2,2,,,,,,
0,0,11,phase_2,red_pentagon,stop,blue,0.0,0-SSD,go-2,4,,,,,,
0,0,11,phase_2,green_triangle,stop,purple,50.0,tracking-SSD,go-1,4,,,,,,
2,736.0,11,phase_2,green_pentagon,go,,,,go-1,2,,,,,,
2,654.0,11,phase_2,red_rhombus,go,,,,go-2,1,,,,,,
1,482.0,11,phase_2,red_triangle,go,,,,go-2,1,,,,,,
1,469.0,11,phase_2,red_triangle,go,,,,go-2,1,,,,,,
0,0,11,phase_2,green_pentagon,stop,purple,100.0,tracking-SSD,go-1,4,,,,,,
1,543.0,11,phase_2,red_pentagon,go,,,,go-2,1,,,,,,
2,900.0,11,phase_2,red_rhombus,go,,,,go-2,1,,,,,,
1,504.0,11,phase_2,red_pentagon,go,,,,go-2,1,,,,,,
0,0,11,phase_2,green_circle,stop,blue,0.0,0-SSD,go-1,4,,,,,,
1,769.0,11,phase_2,green_pentagon,go,,,,go-1,1,,,,,,
1,519.0,11,phase_2,green_pentagon,go,,,,go-1,1,,,,,,
1,449.0,11,phase_2,red_triangle,go,,,,go-2,1,,,,,,
1,437.0,11,phase_2,red_triangle,go,,,,go-2,1,,,,,,
2,502.0,11,phase_2,green_rhombus,go,,,,go-1,1,,,,,,
1,375.0,11,phase_2,red_triangle,go,,,,go-2,1,,,,,,
2,588.0,11,phase_2,green_rhombus,go,,,,go-1,1,,,,,,
1,506.0,11,phase_2,red_pentagon,stop,purple,150.0,tracking-SSD,go-2,3,,,,,,
2,402.0,11,phase_2,red_rhombus,go,,,,go-2,1,,,,,,
0,0,11,phase_2,red_pentagon,stop,purple,100.0,tracking-SSD,go-2,4,,,,,,
0,0,11,phase_2,red_circle,stop,blue,0.0,0-SSD,go-2,4,,,,,,
2,409.0,11,phase_2,green_circle,go,,,,go-1,1,,,,,,
1,360.0,11,phase_2,green_triangle,go,,,,go-1,1,,,,,,
2,436.0,11,phase_2,red_circle,go,,,,go-2,1,,,,,,
2,345.0,11,phase_2,red_circle,go,,,,go-2,1,,,,,,
1,377.0,11,phase_2,green_rhombus,go,,,,go-1,2,,,,,,
1,544.0,11,phase_2,green_triangle,go,,,,go-1,1,,,,,,
2,475.0,11,phase_2,red_circle,stop,purple,150.0,tracking-SSD,go-2,3,,,,,,
0,0,11,phase_2,green_rhombus,stop,blue,0.0,0-SSD,go-1,4,,,,,,
0,0,11,phase_2,green_triangle,stop,blue,0.0,0-SSD,go-1,4,,,,,,
2,456.0,11,phase_2,green_circle,go,,,,go-1,1,,,,,,
2,432.0,11,phase_2,green_triangle,go,,,,go-1,2,,,,,,
0,0,11,phase_2,red_rhombus,stop,purple,100.0,tracking-SSD,go-2,4,,,,,,
2,539.0,11,phase_2,red_rhombus,go,,,,go-2,1,,,,,,
0,0,11,phase_2,red_rhombus,stop,blue,0.0,0-SSD,go-2,4,,,,,,
1,422.0,11,phase_2,red_pentagon,go,,,,go-2,1,,,,,,
1,510.0,11,phase_2,green_triangle,go,,,,go-1,1,,,,,,
2,350.0,11,phase_2,green_pentagon,stop,purple,150.0,tracking-SSD,go-1,3,,,,,,
2,472.0,11,phase_2,green_circle,go,,,,go-1,1,,,,,,
1,526.0,11,phase_2,green_triangle,go,,,,go-1,1,,,,,,
0,0,11,phase_2,red_circle,stop,blue,0.0,0-SSD,go-2,4,,,,,,
2,419.0,11,phase_2,green_circle,go,,,,go-1,1,,,,,,
1,473.0,11,phase_2,red_pentagon,go,,,,go-2,1,,,,,,
0,0,11,phase_2,green_rhombus,stop,purple,100.0,tracking-SSD,go-1,4,,,,,,
2,533.0,12,phase_2,green_circle,go,,,,go-1,1,,,,,,
1,339.0,12,phase_2,red_triangle,stop,purple,150.0,tracking-SSD,go-2,3,,,,,,
1,438.0,12,phase_2,red_triangle,stop,purple,100.0,tracking-SSD,go-2,3,,,,,,
2,357.0,12,phase_2,red_circle,go,,,,go-2,1,,,,,,
1,377.0,12,phase_2,green_triangle,stop,purple,50.0,tracking-SSD,go-1,3,,,,,,
1,375.0,12,phase_2,green_pentagon,go,,,,go-1,1,,,,,,
1,317.0,12,phase_2,green_circle,go,,,,go-1,2,,,,,,
1,484.0,12,phase_2,green_triangle,go,,,,go-1,1,,,,,,
2,369.0,12,phase_2,green_circle,stop,blue,0.0,0-SSD,go-1,3,,,,,,
2,378.0,12,phase_2,red_circle,go,,,,go-2,1,,,,,,
1,511.0,12,phase_2,red_rhombus,go,,,,go-2,2,,,,,,
2,463.0,12,phase_2,red_rhombus,go,,,,go-2,1,,,,,,
1,393.0,12,phase_2,red_circle,go,,,,go-2,2,,,,,,
2,502.0,12,phase_2,green_pentagon,go,,,,go-1,2,,,,,,
1,376.0,12,phase_2,green_pentagon,go,,,,go-1,1,,,,,,
2,566.0,12,phase_2,green_circle,go,,,,go-1,1,,,,,,
0,0,12,phase_2,red_rhombus,stop,purple,0.0,tracking-SSD,go-2,4,,,,,,
1,481.0,12,phase_2,green_pentagon,go,,,,go-1,1,,,,,,
2,400.0,12,phase_2,red_pentagon,go,,,,go-2,2,,,,,,
0,0,12,phase_2,green_pentagon,stop,purple,50.0,tracking-SSD,go-1,4,,,,,,
2,418.0,12,phase_2,red_circle,go,,,,go-2,1,,,,,,
1,584.0,12,phase_2,red_triangle,go,,,,go-2,1,,,,,,
1,457.0,12,phase_2,green_rhombus,go,,,,go-1,2,,,,,,
0,0,12,phase_2,green_triangle,stop,blue,0.0,0-SSD,go-1,4,,,,,,
0,0,12,phase_2,red_pentagon,stop,purple,100.0,tracking-SSD,go-2,4,,,,,,
2,461.0,12,phase_2,green_circle,go,,,,go-1,1,,,,,,
1,480.0,12,phase_2,green_triangle,go,,,,go-1,1,,,,,,
1,433.0,12,phase_2,red_rhombus,go,,,,go-2,2,,,,,,
0,0,12,phase_2,green_triangle,stop,blue,0.0,0-SSD,go-1,4,,,,,,
1,541.0,12,phase_2,green_pentagon,go,,,,go-1,1,,,,,,
0,0,12,phase_2,red_rhombus,stop,blue,0.0,0-SSD,go-2,4,,,,,,
0,0,12,phase_2,green_circle,stop,blue,0.0,0-SSD,go-1,4,,,,,,
2,567.0,12,phase_2,green_rhombus,go,,,,go-1,1,,,,,,
1,462.0,12,phase_2,green_triangle,go,,,,go-1,1,,,,,,
1,753.0,12,phase_2,green_pentagon,go,,,,go-1,1,,,,,,
2,559.0,12,phase_2,red_rhombus,go,,,,go-2,1,,,,,,
0,0,12,phase_2,green_triangle,stop,purple,150.0,tracking-SSD,go-1,4,,,,,,
1,555.0,12,phase_2,red_rhombus,go,,,,go-2,2,,,,,,
1,383.0,12,phase_2,red_pentagon,go,,,,go-2,1,,,,,,
0,0,12,phase_2,red_circle,stop,blue,0.0,0-SSD,go-2,4,,,,,,
0,0,12,phase_2,red_rhombus,stop,blue,0.0,0-SSD,go-2,4,,,,,,
1,588.0,12,phase_2,green_pentagon,go,,,,go-1,1,,,,,,
0,0,12,phase_2,red_triangle,stop,blue,0.0,0-SSD,go-2,4,,,,,,
2,575.0,12,phase_2,red_rhombus,go,,,,go-2,1,,,,,,
2,538.0,12,phase_2,red_rhombus,go,,,,go-2,1,,,,,,
1,502.0,12,phase_2,red_pentagon,go,,,,go-2,1,,,,,,
1,567.0,12,phase_2,red_triangle,go,,,,go-2,1,,,,,,
2,509.0,12,phase_2,green_circle,stop,purple,200.0,tracking-SSD,go-1,3,,,,,,
2,623.0,13,phase_2,green_rhombus,go,,,,go-1,1,,,,,,
1,609.0,13,phase_2,green_pentagon,go,,,,go-1,1,,,,,,
1,437.0,13,phase_2,red_pentagon,go,,,,go-2,1,,,,,,
2,344.0,13,phase_2,green_rhombus,go,,,,go-1,1,,,,,,
1,389.0,13,phase_2,red_circle,go,,,,go-2,2,,,,,,
2,386.0,13,phase_2,red_circle,go,,,,go-2,1,,,,,,
1,530.0,13,phase_2,green_rhombus,go,,,,go-1,2,,,,,,
0,0,13,phase_2,green_rhombus,stop,purple,150.0,tracking-SSD,go-1,4,,,,,,
0,0,13,phase_2,green_pentagon,stop,purple,200.0,tracking-SSD,go-1,4,,,,,,
2,500.0,13,phase_2,green_circle,go,,,,go-1,1,,,,,,
1,689.0,13,phase_2,green_pentagon,go,,,,go-1,1,,,,,,
1,462.0,13,phase_2,red_pentagon,go,,,,go-2,1,,,,,,
2,381.0,13,phase_2,green_circle,go,,,,go-1,1,,,,,,
2,345.0,13,phase_2,green_circle,stop,purple,250.0,tracking-SSD,go-1,3,,,,,,
0,0,13,phase_2,red_pentagon,stop,blue,0.0,0-SSD,go-2,4,,,,,,
1,556.0,13,phase_2,red_pentagon,go,,,,go-2,1,,,,,,
1,485.0,13,phase_2,red_pentagon,stop,purple,200.0,tracking-SSD,go-2,3,,,,,,
2,381.0,13,phase_2,green_rhombus,go,,,,go-1,1,,,,,,
2,424.0,13,phase_2,green_triangle,go,,,,go-1,2,,,,,,
1,568.0,13,phase_2,red_triangle,go,,,,go-2,1,,,,,,
0,0,13,phase_2,red_triangle,stop,blue,0.0,0-SSD,go-2,4,,,,,,
0,0,13,phase_2,green_triangle,stop,blue,0.0,0-SSD,go-1,4,,,,,,
2,617.0,13,phase_2,green_rhombus,go,,,,go-1,1,,,,,,
2,614.0,13,phase_2,red_rhombus,go,,,,go-2,1,,,,,,
0,0,13,phase_2,green_rhombus,stop,blue,0.0,0-SSD,go-1,4,,,,,,
0,0,13,phase_2,green_triangle,stop,blue,0.0,0-SSD,go-1,4,,,,,,
2,628.0,13,phase_2,green_rhombus,go,,,,go-1,1,,,,,,
1,448.0,13,phase_2,red_triangle,stop,purple,150.0,tracking-SSD,go-2,3,,,,,,
1,501.0,13,phase_2,red_triangle,go,,,,go-2,1,,,,,,
0,0,13,phase_2,red_rhombus,stop,blue,0.0,0-SSD,go-2,4,,,,,,
0,0,13,phase_2,red_pentagon,stop,purple,100.0,tracking-SSD,go-2,4,,,,,,
2,451.0,13,phase_2,green_circle,go,,,,go-1,1,,,,,,
2,483.0,13,phase_2,red_circle,stop,purple,150.0,tracking-SSD,go-2,3,,,,,,
1,400.0,13,phase_2,red_triangle,go,,,,go-2,1,,,,,,
1,600.0,13,phase_2,red_pentagon,go,,,,go-2,1,,,,,,
0,0,13,phase_2,green_triangle,stop,blue,0.0,0-SSD,go-1,4,,,,,,
2,358.0,13,phase_2,green_triangle,go,,,,go-1,2,,,,,,
1,458.0,13,phase_2,red_rhombus,go,,,,go-2,2,,,,,,
1,589.0,13,phase_2,red_pentagon,go,,,,go-2,1,,,,,,
0,0,13,phase_2,red_circle,stop,blue,0.0,0-SSD,go-2,4,,,,,,
1,450.0,13,phase_2,red_circle,go,,,,go-2,2,,,,,,
1,638.0,13,phase_2,red_pentagon,go,,,,go-2,1,,,,,,
1,626.0,13,phase_2,green_triangle,go,,,,go-1,1,,,,,,
2,419.0,13,phase_2,green_circle,stop,purple,100.0,tracking-SSD,go-1,3,,,,,,
2,450.0,13,phase_2,red_circle,go,,,,go-2,1,,,,,,
2,368.0,13,phase_2,green_circle,go,,,,go-1,1,,,,,,
2,626.0,13,phase_2,green_rhombus,go,,,,go-1,1,,,,,,
1,511.0,13,phase_2,red_triangle,go,,,,go-2,1,,,,,,
1,667.0,14,phase_2,green_pentagon,go,,,,go-1,1,,,,,,
1,418.0,14,phase_2,red_triangle,stop,purple,50.0,tracking-SSD,go-2,3,,,,,,
1,505.0,14,phase_2,red_pentagon,go,,,,go-2,1,,,,,,
2,378.0,14,phase_2,green_circle,go,,,,go-1,1,,,,,,
1,354.0,14,phase_2,red_rhombus,go,,,,go-2,2,,,,,,
2,553.0,14,phase_2,green_rhombus,go,,,,go-1,1,,,,,,
2,516.0,14,phase_2,red_circle,go,,,,go-2,1,,,,,,
0,0,14,phase_2,green_pentagon,stop,blue,0.0,0-SSD,go-1,4,,,,,,
2,501.0,14,phase_2,red_pentagon,go,,,,go-2,2,,,,,,
0,0,14,phase_2,red_triangle,stop,blue,0.0,0-SSD,go-2,4,,,,,,
1,518.0,14,phase_2,green_triangle,go,,,,go-1,1,,,,,,
1,358.0,14,phase_2,red_triangle,go,,,,go-2,1,,,,,,
1,367.0,14,phase_2,green_triangle,go,,,,go-1,1,,,,,,
2,532.0,14,phase_2,green_rhombus,go,,,,go-1,1,,,,,,
2,395.0,14,phase_2,red_circle,go,,,,go-2,1,,,,,,
2,584.0,14,phase_2,green_rhombus,go,,,,go-1,1,,,,,,
2,525.0,14,phase_2,green_circle,go,,,,go-1,1,,,,,,
1,533.0,14,phase_2,red_triangle,go,,,,go-2,1,,,,,,
1,384.0,14,phase_2,red_triangle,go,,,,go-2,1,,,,,,
0,0,14,phase_2,green_triangle,stop,blue,0.0,0-SSD,go-1,4,,,,,,
0,0,14,phase_2,red_circle,stop,blue,0.0,0-SSD,go-2,4,,,,,,
1,750.0,14,phase_2,red_pentagon,go,,,,go-2,1,,,,,,
0,0,14,phase_2,green_circle,stop,purple,0.0,tracking-SSD,go-1,4,,,,,,
2,711.0,14,phase_2,green_rhombus,go,,,,go-1,1,,,,,,
1,450.0,14,phase_2,green_circle,go,,,,go-1,2,,,,,,
2,494.0,14,phase_2,red_circle,go,,,,go-2,1,,,,,,
0,0,14,phase_2,red_circle,stop,purple,50.0,tracking-SSD,go-2,4,,,,,,
0,0,14,phase_2,green_pentagon,stop,purple,100.0,tracking-SSD,go-1,4,,,,,,
1,475.0,14,phase_2,red_triangle,go,,,,go-2,1,,,,,,
2,551.0,14,phase_2,red_rhombus,go,,,,go-2,1,,,,,,
2,583.0,14,phase_2,green_rhombus,go,,,,go-1,1,,,,,,
0,0,14,phase_2,green_pentagon,stop,blue,0.0,0-SSD,go-1,4,,,,,,
2,409.0,14,phase_2,green_rhombus,go,,,,go-1,1,,,,,,
0,0,14,phase_2,red_pentagon,stop,blue,0.0,0-SSD,go-2,4,,,,,,
0,0,14,phase_2,red_pentagon,stop,purple,150.0,tracking-SSD,go-2,4,,,,,,
1,492.0,14,phase_2,red_triangle,go,,,,go-2,1,,,,,,
2,477.0,14,phase_2,red_rhombus,go,,,,go-2,1,,,,,,
1,532.0,14,phase_2,green_pentagon,go,,,,go-1,1,,,,,,
0,0,14,phase_2,green_triangle,stop,blue,0.0,0-SSD,go-1,4,,,,,,
1,594.0,14,phase_2,green_pentagon,go,,,,go-1,1,,,,,,
2,536.0,14,phase_2,red_rhombus,go,,,,go-2,1,,,,,,
1,386.0,14,phase_2,red_pentagon,go,,,,go-2,1,,,,,,
2,552.0,14,phase_2,red_rhombus,stop,purple,200.0,tracking-SSD,go-2,3,,,,,,
2,392.0,14,phase_2,green_rhombus,stop,purple,150.0,tracking-SSD,go-1,3,,,,,,
1,412.0,14,phase_2,green_triangle,go,,,,go-1,1,,,,,,
0,0,14,phase_2,red_circle,stop,blue,0.0,0-SSD,go-2,4,,,,,,
2,440.0,14,phase_2,green_circle,go,,,,go-1,1,,,,,,
2,337.0,14,phase_2,green_circle,stop,purple,100.0,tracking-SSD,go-1,3,,,,,,
0,0,15,phase_2,red_circle,stop,blue,0.0,0-SSD,go-2,4,,,,,,
2,395.0,15,phase_2,green_pentagon,go,,,,go-1,2,,,,,,
1,538.0,15,phase_2,green_pentagon,go,,,,go-1,1,,,,,,
2,514.0,15,phase_2,green_rhombus,go,,,,go-1,1,,,,,,
2,501.0,15,phase_2,red_circle,go,,,,go-2,1,,,,,,
1,475.0,15,phase_2,red_triangle,go,,,,go-2,1,,,,,,
0,0,15,phase_2,red_pentagon,stop,purple,50.0,tracking-SSD,go-2,4,,,,,,
2,392.0,15,phase_2,green_circle,go,,,,go-1,1,,,,,,
0,0,15,phase_2,red_pentagon,stop,purple,100.0,tracking-SSD,go-2,4,,,,,,
1,556.0,15,phase_2,green_pentagon,go,,,,go-1,1,,,,,,
2,374.0,15,phase_2,red_circle,go,,,,go-2,1,,,,,,
0,0,15,phase_2,green_pentagon,stop,blue,0.0,0-SSD,go-1,4,,,,,,
1,436.0,15,phase_2,green_rhombus,go,,,,go-1,2,,,,,,
1,411.0,15,phase_2,red_circle,go,,,,go-2,2,,,,,,
1,476.0,15,phase_2,green_triangle,stop,purple,150.0,tracking-SSD,go-1,3,,,,,,
1,361.0,15,phase_2,red_triangle,go,,,,go-2,1,,,,,,
0,0,15,phase_2,green_circle,stop,blue,0.0,0-SSD,go-1,4,,,,,,
2,469.0,15,phase_2,red_circle,go,,,,go-2,1,,,,,,
1,488.0,15,phase_2,red_pentagon,go,,,,go-2,1,,,,,,
0,0,15,phase_2,green_triangle,stop,purple,100.0,tracking-SSD,go-1,4,,,,,,
2,406.0,15,phase_2,green_circle,go,,,,go-1,1,,,,,,
1,560.0,15,phase_2,red_pentagon,go,,,,go-2,1,,,,,,
0,0,15,phase_2,red_rhombus,go,,,,go-2,2,,,,,,
1,544.0,15,phase_2,green_triangle,go,,,,go-1,1,,,,,,
2,474.0,15,phase_2,green_circle,go,,,,go-1,1,,,,,,
1,483.0,15,phase_2,red_triangle,go,,,,go-2,1,,,,,,
0,0,15,phase_2,green_triangle,stop,blue,0.0,0-SSD,go-1,4,,,,,,
0,0,15,phase_2,green_rhombus,stop,blue,0.0,0-SSD,go-1,4,,,,,,
2,373.0,15,phase_2,red_circle,go,,,,go-2,1,,,,,,
1,450.0,15,phase_2,green_pentagon,go,,,,go-1,1,,,,,,
1,392.0,15,phase_2,red_triangle,go,,,,go-2,1,,,,,,
0,0,15,phase_2,red_triangle,stop,blue,0.0,0-SSD,go-2,4,,,,,,
2,532.0,15,phase_2,green_rhombus,stop,purple,150.0,tracking-SSD,go-1,3,,,,,,
2,327.0,15,phase_2,green_circle,go,,,,go-1,1,,,,,,
0,0,15,phase_2,red_triangle,stop,blue,0.0,0-SSD,go-2,4,,,,,,
1,389.0,15,phase_2,red_pentagon,go,,,,go-2,1,,,,,,
0,0,15,phase_2,red_rhombus,stop,blue,0.0,0-SSD,go-2,4,,,,,,
1,361.0,15,phase_2,green_triangle,go,,,,go-1,1,,,,,,
0,0,15,phase_2,green_rhombus,stop,purple,100.0,tracking-SSD,go-1,4,,,,,,
2,357.0,15,phase_2,red_circle,go,,,,go-2,1,,,,,,
2,321.0,15,phase_2,red_rhombus,stop,purple,150.0,tracking-SSD,go-2,3,,,,,,
1,397.0,15,phase_2,green_rhombus,go,,,,go-1,2,,,,,,
1,405.0,15,phase_2,green_triangle,go,,,,go-1,1,,,,,,
1,414.0,15,phase_2,green_rhombus,go,,,,go-1,2,,,,,,
0,0,15,phase_2,red_pentagon,stop,purple,100.0,tracking-SSD,go-2,4,,,,,,
2,366.0,15,phase_2,red_pentagon,go,,,,go-2,2,,,,,,
2,746.0,15,phase_2,red_rhombus,go,,,,go-2,1,,,,,,
2,519.0,15,phase_2,green_rhombus,go,,,,go-1,1,,,,,,
1,454.0,16,phase_2,red_pentagon,go,,,,go-2,1,,,,,,
1,553.0,16,phase_2,red_triangle,go,,,,go-2,1,,,,,,
1,449.0,16,phase_2,red_pentagon,go,,,,go-2,1,,,,,,
2,389.0,16,phase_2,green_circle,go,,,,go-1,1,,,,,,
0,0,16,phase_2,red_rhombus,stop,purple,150.0,tracking-SSD,go-2,4,,,,,,
1,474.0,16,phase_2,green_triangle,go,,,,go-1,1,,,,,,
1,630.0,16,phase_2,green_pentagon,go,,,,go-1,1,,,,,,
0,0,16,phase_2,green_triangle,stop,blue,0.0,0-SSD,go-1,4,,,,,,
0,0,16,phase_2,red_circle,stop,purple,200.0,tracking-SSD,go-2,4,,,,,,
2,418.0,16,phase_2,red_circle,go,,,,go-2,1,,,,,,
0,0,16,phase_2,green_pentagon,stop,blue,0.0,0-SSD,go-1,4,,,,,,
0,0,16,phase_2,green_triangle,stop,blue,0.0,0-SSD,go-1,4,,,,,,
0,0,16,phase_2,red_circle,stop,blue,0.0,0-SSD,go-2,4,,,,,,
1,566.0,16,phase_2,green_pentagon,stop,purple,250.0,tracking-SSD,go-1,3,,,,,,
1,361.0,16,phase_2,green_pentagon,go,,,,go-1,1,,,,,,
1,403.0,16,phase_2,red_pentagon,go,,,,go-2,1,,,,,,
1,366.0,16,phase_2,red_rhombus,go,,,,go-2,2,,,,,,
2,433.0,16,phase_2,green_rhombus,stop,purple,200.0,tracking-SSD,go-1,3,,,,,,
2,475.0,16,phase_2,green_circle,go,,,,go-1,1,,,,,,
0,0,16,phase_2,red_triangle,stop,blue,0.0,0-SSD,go-2,4,,,,,,
0,0,16,phase_2,red_rhombus,stop,blue,0.0,0-SSD,go-2,4,,,,,,
2,399.0,16,phase_2,red_rhombus,go,,,,go-2,1,,,,,,
2,497.0,16,phase_2,red_rhombus,go,,,,go-2,1,,,,,,
2,383.0,16,phase_2,green_triangle,go,,,,go-1,2,,,,,,
0,0,16,phase_2,green_circle,stop,purple,150.0,tracking-SSD,go-1,4,,,,,,
2,378.0,16,phase_2,green_triangle,go,,,,go-1,2,,,,,,
1,363.0,16,phase_2,green_triangle,go,,,,go-1,1,,,,,,
1,417.0,16,phase_2,green_triangle,go,,,,go-1,1,,,,,,
2,449.0,16,phase_2,green_circle,go,,,,go-1,1,,,,,,
1,536.0,16,phase_2,red_pentagon,go,,,,go-2,1,,,,,,
0,0,16,phase_2,red_pentagon,stop,blue,0.0,0-SSD,go-2,4,,,,,,
0,0,16,phase_2,red_rhombus,stop,purple,200.0,tracking-SSD,go-2,4,,,,,,
0,0,16,phase_2,green_rhombus,stop,blue,0.0,0-SSD,go-1,4,,,,,,
2,516.0,16,phase_2,red_circle,go,,,,go-2,1,,,,,,
2,378.0,16,phase_2,red_triangle,go,,,,go-2,2,,,,,,
1,577.0,16,phase_2,green_pentagon,go,,,,go-1,1,,,,,,
2,507.0,16,phase_2,red_circle,go,,,,go-2,1,,,,,,
1,572.0,16,phase_2,red_triangle,go,,,,go-2,1,,,,,,
2,649.0,16,phase_2,green_rhombus,go,,,,go-1,1,,,,,,
2,556.0,16,phase_2,red_circle,go,,,,go-2,1,,,,,,
2,621.0,16,phase_2,green_rhombus,go,,,,go-1,1,,,,,,
2,573.0,16,phase_2,red_rhombus,go,,,,go-2,1,,,,,,
1,617.0,16,phase_2,green_pentagon,go,,,,go-1,1,,,,,,
1,682.0,16,phase_2,green_triangle,stop,purple,250.0,tracking-SSD,go-1,3,,,,,,
2,566.0,16,phase_2,green_rhombus,go,,,,go-1,1,,,,,,
1,540.0,16,phase_2,red_pentagon,go,,,,go-2,1,,,,,,
2,515.0,16,phase_2,green_circle,go,,,,go-1,1,,,,,,
2,479.0,16,phase_2,red_circle,stop,purple,200.0,tracking-SSD,go-2,3,,,,,,
1,533.0,17,phase_2,red_pentagon,stop,purple,150.0,tracking-SSD,go-2,3,,,,,,
0,0,17,phase_2,green_rhombus,stop,purple,100.0,tracking-SSD,go-1,4,,,,,,
2,360.0,17,phase_2,green_rhombus,go,,,,go-1,1,,,,,,
0,0,17,phase_2,green_rhombus,stop,blue,0.0,0-SSD,go-1,4,,,,,,
1,457.0,17,phase_2,red_pentagon,go,,,,go-2,1,,,,,,
2,442.0,17,phase_2,green_rhombus,go,,,,go-1,1,,,,,,
1,484.0,17,phase_2,green_triangle,go,,,,go-1,1,,,,,,
1,425.0,17,phase_2,green_triangle,go,,,,go-1,1,,,,,,
0,0,17,phase_2,red_triangle,stop,blue,0.0,0-SSD,go-2,4,,,,,,
1,410.0,17,phase_2,green_pentagon,go,,,,go-1,1,,,,,,
1,519.0,17,phase_2,red_pentagon,go,,,,go-2,1,,,,,,
0,0,17,phase_2,red_pentagon,stop,blue,0.0,0-SSD,go-2,4,,,,,,
2,435.0,17,phase_2,red_circle,go,,,,go-2,1,,,,,,
2,399.0,17,phase_2,red_pentagon,go,,,,go-2,2,,,,,,
2,486.0,17,phase_2,green_circle,go,,,,go-1,1,,,,,,
1,518.0,17,phase_2,red_rhombus,stop,purple,150.0,tracking-SSD,go-2,3,,,,,,
2,537.0,17,phase_2,green_circle,go,,,,go-1,1,,,,,,
2,456.0,17,phase_2,red_circle,go,,,,go-2,1,,,,,,
1,577.0,17,phase_2,red_triangle,go,,,,go-2,1,,,,,,
0,0,17,phase_2,green_rhombus,stop,purple,100.0,tracking-SSD,go-1,4,,,,,,
2,551.0,17,phase_2,red_circle,go,,,,go-2,1,,,,,,
1,503.0,17,phase_2,red_pentagon,go,,,,go-2,1,,,,,,
0,0,17,phase_2,green_rhombus,stop,blue,0.0,0-SSD,go-1,4,,,,,,
1,577.0,17,phase_2,red_pentagon,go,,,,go-2,1,,,,,,
0,0,17,phase_2,red_circle,stop,blue,0.0,0-SSD,go-2,4,,,,,,
0,0,17,phase_2,red_pentagon,stop,purple,150.0,tracking-SSD,go-2,4,,,,,,
2,422.0,17,phase_2,green_circle,go,,,,go-1,1,,,,,,
1,555.0,17,phase_2,green_triangle,go,,,,go-1,1,,,,,,
1,563.0,17,phase_2,red_pentagon,go,,,,go-2,1,,,,,,
0,0,17,phase_2,red_rhombus,stop,purple,200.0,tracking-SSD,go-2,4,,,,,,
0,0,17,phase_2,red_rhombus,go,,,,go-2,2,,,,,,
1,499.0,17,phase_2,red_triangle,go,,,,go-2,1,,,,,,
0,0,17,phase_2,green_triangle,stop,blue,0.0,0-SSD,go-1,4,,,,,,
2,437.0,17,phase_2,red_circle,go,,,,go-2,1,,,,,,
2,469.0,17,phase_2,green_circle,go,,,,go-1,1,,,,,,
1,557.0,17,phase_2,red_triangle,go,,,,go-2,1,,,,,,
0,0,17,phase_2,red_triangle,stop,blue,0.0,0-SSD,go-2,4,,,,,,
2,754.0,17,phase_2,red_rhombus,go,,,,go-2,1,,,,,,
2,392.0,17,phase_2,green_triangle,go,,,,go-1,2,,,,,,
0,0,17,phase_2,green_circle,stop,purple,250.0,tracking-SSD,go-1,4,,,,,,
1,623.0,17,phase_2,green_triangle,go,,,,go-1,1,,,,,,
2,575.0,17,phase_2,green_circle,go,,,,go-1,1,,,,,,
2,381.0,17,phase_2,green_triangle,go,,,,go-1,2,,,,,,
1,536.0,17,phase_2,green_pentagon,go,,,,go-1,1,,,,,,
1,466.0,17,phase_2,green_pentagon,go,,,,go-1,1,,,,,,
0,0,17,phase_2,green_rhombus,stop,purple,300.0,tracking-SSD,go-1,4,,,,,,
2,934.0,17,phase_2,red_rhombus,go,,,,go-2,1,,,,,,
1,436.0,17,phase_2,green_circle,stop,blue,0.0,0-SSD,go-1,3,,,,,,
,644.0,1,phase_3,,,,,,,,blue_square,0-SSD,green_square,go-1,blue_square,0-SSD
,515.0,1,phase_3,,,,,,,,red_square,go-2,red_square,go-2,blue_square,0-SSD
,747.0,1,phase_3,,,,,,,,red_square,go-2,green_square,go-1,red_square,go-2
,776.0,1,phase_3,,,,,,,,purple_square,tracking-SSD,red_square,go-2,purple_square,tracking-SSD
,725.0,1,phase_3,,,,,,,,purple_square,tracking-SSD,green_square,go-1,purple_square,tracking-SSD
,609.0,1,phase_3,,,,,,,,purple_square,tracking-SSD,blue_square,0-SSD,purple_square,tracking-SSD
,762.0,1,phase_3,,,,,,,,purple_square,tracking-SSD,purple_square,tracking-SSD,green_square,go-1
,555.0,1,phase_3,,,,,,,,red_square,go-2,red_square,go-2,green_square,go-1
,574.0,1,phase_3,,,,,,,,purple_square,tracking-SSD,purple_square,tracking-SSD,blue_square,0-SSD
,907.0,1,phase_3,,,,,,,,red_square,go-2,purple_square,tracking-SSD,red_square,go-2
,553.0,1,phase_3,,,,,,,,red_square,go-2,blue_square,0-SSD,red_square,go-2
,583.0,1,phase_3,,,,,,,,blue_square,0-SSD,blue_square,0-SSD,green_square,go-1
,892.0,2,phase_3,,,,,,,,purple_square,tracking-SSD,blue_square,0-SSD,purple_square,tracking-SSD
,708.0,2,phase_3,,,,,,,,purple_square,tracking-SSD,green_square,go-1,purple_square,tracking-SSD
,646.0,2,phase_3,,,,,,,,red_square,go-2,red_square,go-2,purple_square,tracking-SSD
,473.0,2,phase_3,,,,,,,,red_square,go-2,green_square,go-1,red_square,go-2
,458.0,2,phase_3,,,,,,,,red_square,go-2,red_square,go-2,blue_square,0-SSD
,454.0,2,phase_3,,,,,,,,blue_square,0-SSD,green_square,go-1,blue_square,0-SSD
,539.0,2,phase_3,,,,,,,,purple_square,tracking-SSD,purple_square,tracking-SSD,green_square,go-1
,591.0,2,phase_3,,,,,,,,red_square,go-2,blue_square,0-SSD,red_square,go-2
,452.0,2,phase_3,,,,,,,,red_square,go-2,red_square,go-2,green_square,go-1
,480.0,2,phase_3,,,,,,,,red_square,go-2,purple_square,tracking-SSD,red_square,go-2
,533.0,2,phase_3,,,,,,,,purple_square,tracking-SSD,purple_square,tracking-SSD,blue_square,0-SSD
,427.0,2,phase_3,,,,,,,,green_square,go-1,blue_square,0-SSD,green_square,go-1
,836.0,3,phase_3,,,,,,,,green_square,go-1,green_square,go-1,blue_square,0-SSD
,551.0,3,phase_3,,,,,,,,red_square,go-2,red_square,go-2,blue_square,0-SSD
,535.0,3,phase_3,,,,,,,,purple_square,tracking-SSD,red_square,go-2,purple_square,tracking-SSD
,464.0,3,phase_3,,,,,,,,red_square,go-2,green_square,go-1,red_square,go-2
,674.0,3,phase_3,,,,,,,,purple_square,tracking-SSD,green_square,go-1,purple_square,tracking-SSD
,522.0,3,phase_3,,,,,,,,purple_square,tracking-SSD,blue_square,0-SSD,purple_square,tracking-SSD
,573.0,3,phase_3,,,,,,,,purple_square,tracking-SSD,purple_square,tracking-SSD,blue_square,0-SSD
,637.0,3,phase_3,,,,,,,,purple_square,tracking-SSD,purple_square,tracking-SSD,green_square,go-1
0,0,3,phase_3,,,,,,,,,,red_square,go-2,green_square,go-1
,1382.0,3,phase_3,,,,,,,,blue_square,0-SSD,blue_square,0-SSD,green_square,go-1
,794.0,3,phase_3,,,,,,,,red_square,go-2,blue_square,0-SSD,red_square,go-2
0,0,3,phase_3,,,,,,,,,,purple_square,tracking-SSD,red_square,go-2
,1040.0,4,phase_3,,,,,,,,red_square,go-2,red_square,go-2,blue_square,0-SSD
,901.0,4,phase_3,,,,,,,,red_square,go-2,red_square,go-2,purple_square,tracking-SSD
,548.0,4,phase_3,,,,,,,,purple_square,tracking-SSD,green_square,go-1,purple_square,tracking-SSD
,2006.0,4,phase_3,,,,,,,,blue_square,0-SSD,green_square,go-1,blue_square,0-SSD
,810.0,4,phase_3,,,,,,,,purple_square,tracking-SSD,blue_square,0-SSD,purple_square,tracking-SSD
,771.0,4,phase_3,,,,,,,,red_square,go-2,green_square,go-1,red_square,go-2
,576.0,4,phase_3,,,,,,,,purple_square,tracking-SSD,purple_square,tracking-SSD,green_square,go-1
,550.0,4,phase_3,,,,,,,,red_square,go-2,red_square,go-2,green_square,go-1
,1736.0,4,phase_3,,,,,,,,blue_square,0-SSD,blue_square,0-SSD,green_square,go-1
,607.0,4,phase_3,,,,,,,,purple_square,tracking-SSD,purple_square,tracking-SSD,blue_square,0-SSD
,525.0,4,phase_3,,,,,,,,red_square,go-2,purple_square,tracking-SSD,red_square,go-2
,475.0,4,phase_3,,,,,,,,red_square,go-2,blue_square,0-SSD,red_square,go-2
,589.0,5,phase_3,,,,,,,,red_square,go-2,green_square,go-1,red_square,go-2
,606.0,5,phase_3,,,,,,,,green_square,go-1,green_square,go-1,blue_square,0-SSD
,916.0,5,phase_3,,,,,,,,red_square,go-2,red_square,go-2,blue_square,0-SSD
,833.0,5,phase_3,,,,,,,,purple_square,tracking-SSD,blue_square,0-SSD,purple_square,tracking-SSD
0,0,5,phase_3,,,,,,,,,,red_square,go-2,purple_square,tracking-SSD
,543.0,5,phase_3,,,,,,,,purple_square,tracking-SSD,green_square,go-1,purple_square,tracking-SSD
,1080.0,5,phase_3,,,,,,,,purple_square,tracking-SSD,purple_square,tracking-SSD,blue_square,0-SSD
,985.0,5,phase_3,,,,,,,,red_square,go-2,purple_square,tracking-SSD,red_square,go-2
,621.0,5,phase_3,,,,,,,,red_square,go-2,red_square,go-2,green_square,go-1
,605.0,5,phase_3,,,,,,,,red_square,go-2,blue_square,0-SSD,red_square,go-2
,1466.0,5,phase_3,,,,,,,,blue_square,0-SSD,blue_square,0-SSD,green_square,go-1
,596.0,5,phase_3,,,,,,,,green_square,go-1,purple_square,tracking-SSD,green_square,go-1
