response,reaction_time,block,which_phase,stim,stop_signal_trial_type,stop_signal_stimulus,SSD,SSD_type,condition,accuracy,chosen_stim,chosen_cond,stim_left,cond_left,stim_right,cond_right
1,476.0,1,phase_2,purple_circle,go,,,,go-2,1,,,,,,
2,541.0,1,phase_2,red_triangle,go,,,,go-1,1,,,,,,
1,427.0,1,phase_2,purple_circle,go,,,,go-2,1,,,,,,
0,0,1,phase_2,red_rhombus,stop,blue,250.0,tracking-SSD,go-1,4,,,,,,
1,636.0,1,phase_2,red_rhombus,go,,,,go-1,1,,,,,,
1,419.0,1,phase_2,purple_rhombus,go,,,,go-2,1,,,,,,
2,484.0,1,phase_2,purple_triangle,go,,,,go-2,1,,,,,,
2,392.0,1,phase_2,purple_triangle,go,,,,go-2,1,,,,,,
0,0,1,phase_2,purple_triangle,stop,green,0.0,0-SSD,go-2,4,,,,,,
2,409.0,1,phase_2,purple_triangle,go,,,,go-2,1,,,,,,
2,519.0,1,phase_2,purple_pentagon,go,,,,go-2,1,,,,,,
2,392.0,1,phase_2,red_pentagon,go,,,,go-1,1,,,,,,
0,0,1,phase_2,red_pentagon,stop,green,0.0,0-SSD,go-1,4,,,,,,
1,421.0,1,phase_2,red_circle,go,,,,go-1,1,,,,,,
2,419.0,1,phase_2,red_triangle,go,,,,go-1,1,,,,,,
2,405.0,1,phase_2,purple_triangle,go,,,,go-2,1,,,,,,
0,0,1,phase_2,red_pentagon,stop,green,0.0,0-SSD,go-1,4,,,,,,
0,0,1,phase_2,red_rhombus,stop,green,0.0,0-SSD,go-1,4,,,,,,
2,431.0,1,phase_2,red_triangle,go,,,,go-1,1,,,,,,
1,744.0,1,phase_2,red_pentagon,go,,,,go-1,2,,,,,,
2,573.0,1,phase_2,red_rhombus,stop,blue,300.0,tracking-SSD,go-1,3,,,,,,
0,0,1,phase_2,red_rhombus,stop,blue,250.0,tracking-SSD,go-1,4,,,,,,
2,804.0,1,phase_2,purple_pentagon,go,,,,go-2,1,,,,,,
2,397.0,1,phase_2,purple_pentagon,stop,blue,300.0,tracking-SSD,go-2,3,,,,,,
2,530.0,1,phase_2,red_triangle,go,,,,go-1,1,,,,,,
0,0,1,phase_2,purple_triangle,stop,green,0.0,0-SSD,go-2,4,,,,,,
0,0,1,phase_2,red_rhombus,stop,green,0.0,0-SSD,go-1,4,,,,,,
2,558.0,1,phase_2,red_pentagon,go,,,,go-1,1,,,,,,
1,443.0,1,phase_2,purple_circle,go,,,,go-2,1,,,,,,
1,453.0,1,phase_2,purple_circle,go,,,,go-2,1,,,,,,
2,496.0,1,phase_2,red_pentagon,go,,,,go-1,1,,,,,,
1,472.0,1,phase_2,purple_circle,go,,,,go-2,1,,,,,,
1,458.0,1,phase_2,red_circle,go,,,,go-1,1,,,,,,
2,455.0,1,phase_2,purple_pentagon,go,,,,go-2,1,,,,,,
1,420.0,1,phase_2,red_circle,go,,,,go-1,1,,,,,,
1,462.0,1,phase_2,red_circle,go,,,,go-1,1,,,,,,
2,572.0,1,phase_2,purple_rhombus,go,,,,go-2,2,,,,,,
1,446.0,1,phase_2,red_rhombus,go,,,,go-1,1,,,,,,
0,0,1,phase_2,red_rhombus,stop,blue,250.0,tracking-SSD,go-1,4,,,,,,
2,521.0,1,phase_2,red_triangle,go,,,,go-1,1,,,,,,
1,462.0,1,phase_2,purple_circle,stop,blue,300.0,tracking-SSD,go-2,3,,,,,,
1,527.0,1,phase_2,red_circle,go,,,,go-1,1,,,,,,
0,0,1,phase_2,purple_rhombus,stop,blue,250.0,tracking-SSD,go-2,4,,,,,,
0,0,1,phase_2,purple_circle,stop,green,0.0,0-SSD,go-2,4,,,,,,
2,622.0,1,phase_2,purple_pentagon,go,,,,go-2,1,,,,,,
0,0,1,phase_2,purple_pentagon,stop,green,0.0,0-SSD,go-2,4,,,,,,
1,560.0,1,phase_2,purple_rhombus,go,,,,go-2,1,,,,,,
0,0,1,phase_2,purple_triangle,stop,blue,300.0,tracking-SSD,go-2,4,,,,,,
0,0,2,phase_2,purple_triangle,stop,green,0.0,0-SSD,go-2,4,,,,,,
2,643.0,2,phase_2,purple_pentagon,go,,,,go-2,1,,,,,,
1,494.0,2,phase_2,red_circle,go,,,,go-1,1,,,,,,
2,480.0,2,phase_2,purple_triangle,go,,,,go-2,1,,,,,,
2,545.0,2,phase_2,purple_pentagon,go,,,,go-2,1,,,,,,
2,565.0,2,phase_2,purple_pentagon,go,,,,go-2,1,,,,,,
1,461.0,2,phase_2,red_rhombus,go,,,,go-1,1,,,,,,
2,493.0,2,phase_2,purple_triangle,go,,,,go-2,1,,,,,,
2,513.0,2,phase_2,red_triangle,go,,,,go-1,1,,,,,,
2,410.0,2,phase_2,purple_triangle,stop,blue,350.0,tracking-SSD,go-2,3,,,,,,
1,475.0,2,phase_2,red_circle,go,,,,go-1,1,,,,,,
0,0,2,phase_2,purple_pentagon,stop,blue,300.0,tracking-SSD,go-2,4,,,,,,
0,0,2,phase_2,red_rhombus,stop,green,0.0,0-SSD,go-1,4,,,,,,
2,604.0,2,phase_2,red_pentagon,go,,,,go-1,1,,,,,,
1,624.0,2,phase_2,red_rhombus,go,,,,go-1,1,,,,,,
1,452.0,2,phase_2,purple_circle,go,,,,go-2,1,,,,,,
0,0,2,phase_2,purple_circle,stop,green,0.0,0-SSD,go-2,4,,,,,,
2,694.0,2,phase_2,red_pentagon,go,,,,go-1,1,,,,,,
1,501.0,2,phase_2,red_circle,go,,,,go-1,1,,,,,,
1,510.0,2,phase_2,red_rhombus,stop,blue,350.0,tracking-SSD,go-1,3,,,,,,
1,552.0,2,phase_2,red_rhombus,go,,,,go-1,1,,,,,,
2,584.0,2,phase_2,purple_pentagon,go,,,,go-2,1,,,,,,
2,490.0,2,phase_2,purple_triangle,go,,,,go-2,1,,,,,,
0,0,2,phase_2,purple_triangle,stop,green,0.0,0-SSD,go-2,4,,,,,,
1,454.0,2,phase_2,purple_circle,go,,,,go-2,1,,,,,,
2,620.0,2,phase_2,purple_pentagon,go,,,,go-2,1,,,,,,
0,0,2,phase_2,purple_circle,stop,green,0.0,0-SSD,go-2,4,,,,,,
1,505.0,2,phase_2,purple_circle,stop,blue,300.0,tracking-SSD,go-2,3,,,,,,
2,492.0,2,phase_2,red_pentagon,go,,,,go-1,1,,,,,,
2,501.0,2,phase_2,purple_triangle,go,,,,go-2,1,,,,,,
2,533.0,2,phase_2,red_triangle,go,,,,go-1,1,,,,,,
1,508.0,2,phase_2,red_rhombus,go,,,,go-1,1,,,,,,
1,460.0,2,phase_2,purple_rhombus,go,,,,go-2,1,,,,,,
1,356.0,2,phase_2,red_rhombus,go,,,,go-1,1,,,,,,
0,0,2,phase_2,red_circle,stop,blue,250.0,tracking-SSD,go-1,4,,,,,,
1,431.0,2,phase_2,purple_rhombus,go,,,,go-2,1,,,,,,
1,495.0,2,phase_2,red_circle,stop,blue,300.0,tracking-SSD,go-1,3,,,,,,
1,482.0,2,phase_2,purple_rhombus,go,,,,go-2,1,,,,,,
1,480.0,2,phase_2,purple_circle,go,,,,go-2,1,,,,,,
1,479.0,2,phase_2,red_triangle,go,,,,go-1,2,,,,,,
2,555.0,2,phase_2,purple_triangle,stop,blue,250.0,tracking-SSD,go-2,3,,,,,,
0,0,2,phase_2,red_circle,stop,green,0.0,0-SSD,go-1,4,,,,,,
1,753.0,2,phase_2,red_rhombus,go,,,,go-1,1,,,,,,
0,0,2,phase_2,red_pentagon,stop,blue,200.0,tracking-SSD,go-1,4,,,,,,
0,0,2,phase_2,red_rhombus,stop,green,0.0,0-SSD,go-1,4,,,,,,
2,924.0,2,phase_2,purple_triangle,go,,,,go-2,1,,,,,,
0,0,2,phase_2,red_pentagon,stop,green,0.0,0-SSD,go-1,4,,,,,,
2,492.0,2,phase_2,red_pentagon,go,,,,go-1,1,,,,,,
2,612.0,3,phase_2,red_pentagon,go,,,,go-1,1,,,,,,
0,0,3,phase_2,purple_rhombus,stop,green,0.0,0-SSD,go-2,4,,,,,,
2,450.0,3,phase_2,purple_triangle,go,,,,go-2,1,,,,,,
2,694.0,3,phase_2,red_rhombus,go,,,,go-1,2,,,,,,
2,456.0,3,phase_2,red_triangle,go,,,,go-1,1,,,,,,
0,0,3,phase_2,red_rhombus,stop,blue,250.0,tracking-SSD,go-1,4,,,,,,
1,477.0,3,phase_2,purple_circle,go,,,,go-2,1,,,,,,
2,485.0,3,phase_2,purple_pentagon,stop,blue,300.0,tracking-SSD,go-2,3,,,,,,
1,787.0,3,phase_2,red_triangle,go,,,,go-1,2,,,,,,
1,526.0,3,phase_2,red_rhombus,go,,,,go-1,1,,,,,,
1,581.0,3,phase_2,purple_rhombus,go,,,,go-2,1,,,,,,
2,691.0,3,phase_2,red_triangle,go,,,,go-1,1,,,,,,
1,497.0,3,phase_2,red_circle,go,,,,go-1,1,,,,,,
2,484.0,3,phase_2,purple_pentagon,go,,,,go-2,1,,,,,,
2,425.0,3,phase_2,red_pentagon,stop,blue,250.0,tracking-SSD,go-1,3,,,,,,
1,467.0,3,phase_2,purple_circle,go,,,,go-2,1,,,,,,
2,510.0,3,phase_2,purple_pentagon,go,,,,go-2,1,,,,,,
0,0,3,phase_2,purple_circle,stop,blue,200.0,tracking-SSD,go-2,4,,,,,,
1,809.0,3,phase_2,purple_triangle,go,,,,go-2,2,,,,,,
0,0,3,phase_2,red_rhombus,stop,blue,250.0,tracking-SSD,go-1,4,,,,,,
1,456.0,3,phase_2,purple_circle,go,,,,go-2,1,,,,,,
1,532.0,3,phase_2,purple_rhombus,go,,,,go-2,1,,,,,,
2,418.0,3,phase_2,purple_pentagon,go,,,,go-2,1,,,,,,
2,472.0,3,phase_2,purple_rhombus,go,,,,go-2,2,,,,,,
1,436.0,3,phase_2,red_rhombus,go,,,,go-1,1,,,,,,
0,0,3,phase_2,red_triangle,stop,green,0.0,0-SSD,go-1,4,,,,,,
2,432.0,3,phase_2,red_triangle,go,,,,go-1,1,,,,,,
0,0,3,phase_2,purple_pentagon,stop,green,0.0,0-SSD,go-2,4,,,,,,
1,438.0,3,phase_2,red_circle,go,,,,go-1,1,,,,,,
1,447.0,3,phase_2,red_circle,stop,blue,300.0,tracking-SSD,go-1,3,,,,,,
1,446.0,3,phase_2,purple_circle,go,,,,go-2,1,,,,,,
1,410.0,3,phase_2,purple_circle,stop,blue,250.0,tracking-SSD,go-2,3,,,,,,
1,509.0,3,phase_2,red_circle,go,,,,go-1,1,,,,,,
2,461.0,3,phase_2,red_triangle,go,,,,go-1,1,,,,,,
0,0,3,phase_2,red_pentagon,stop,green,0.0,0-SSD,go-1,4,,,,,,
2,501.0,3,phase_2,red_pentagon,go,,,,go-1,1,,,,,,
0,0,3,phase_2,red_triangle,stop,green,0.0,0-SSD,go-1,4,,,,,,
2,429.0,3,phase_2,red_pentagon,go,,,,go-1,1,,,,,,
2,504.0,3,phase_2,purple_triangle,go,,,,go-2,1,,,,,,
0,0,3,phase_2,purple_pentagon,stop,green,0.0,0-SSD,go-2,4,,,,,,
1,546.0,3,phase_2,purple_circle,go,,,,go-2,1,,,,,,
2,487.0,3,phase_2,red_triangle,go,,,,go-1,1,,,,,,
2,385.0,3,phase_2,purple_triangle,go,,,,go-2,1,,,,,,
0,0,3,phase_2,purple_pentagon,stop,green,0.0,0-SSD,go-2,4,,,,,,
1,494.0,3,phase_2,purple_rhombus,go,,,,go-2,1,,,,,,
0,0,3,phase_2,red_rhombus,stop,green,0.0,0-SSD,go-1,4,,,,,,
0,0,3,phase_2,purple_circle,stop,blue,200.0,tracking-SSD,go-2,4,,,,,,
1,475.0,3,phase_2,red_rhombus,go,,,,go-1,1,,,,,,
1,500.0,4,phase_2,red_rhombus,go,,,,go-1,1,,,,,,
1,442.0,4,phase_2,red_circle,go,,,,go-1,1,,,,,,
0,0,4,phase_2,red_pentagon,stop,blue,250.0,tracking-SSD,go-1,4,,,,,,
1,541.0,4,phase_2,purple_rhombus,go,,,,go-2,1,,,,,,
1,402.0,4,phase_2,purple_rhombus,stop,blue,300.0,tracking-SSD,go-2,3,,,,,,
2,501.0,4,phase_2,red_triangle,go,,,,go-1,1,,,,,,
2,601.0,4,phase_2,purple_pentagon,stop,blue,250.0,tracking-SSD,go-2,3,,,,,,
0,0,4,phase_2,red_rhombus,stop,green,0.0,0-SSD,go-1,4,,,,,,
0,0,4,phase_2,red_circle,stop,blue,200.0,tracking-SSD,go-1,4,,,,,,
2,481.0,4,phase_2,red_rhombus,go,,,,go-1,2,,,,,,
1,467.0,4,phase_2,red_rhombus,go,,,,go-1,1,,,,,,
2,590.0,4,phase_2,purple_pentagon,go,,,,go-2,1,,,,,,
2,578.0,4,phase_2,red_triangle,go,,,,go-1,1,,,,,,
2,588.0,4,phase_2,red_pentagon,go,,,,go-1,1,,,,,,
0,0,4,phase_2,purple_triangle,stop,blue,250.0,tracking-SSD,go-2,4,,,,,,
2,518.0,4,phase_2,purple_pentagon,go,,,,go-2,1,,,,,,
1,447.0,4,phase_2,red_circle,go,,,,go-1,1,,,,,,
1,412.0,4,phase_2,purple_circle,go,,,,go-2,1,,,,,,
1,454.0,4,phase_2,purple_circle,go,,,,go-2,1,,,,,,
2,519.0,4,phase_2,purple_triangle,stop,blue,300.0,tracking-SSD,go-2,3,,,,,,
1,473.0,4,phase_2,purple_circle,go,,,,go-2,1,,,,,,
1,570.0,4,phase_2,purple_circle,go,,,,go-2,1,,,,,,
0,0,4,phase_2,purple_rhombus,stop,green,0.0,0-SSD,go-2,4,,,,,,
2,520.0,4,phase_2,red_pentagon,go,,,,go-1,1,,,,,,
1,474.0,4,phase_2,purple_rhombus,go,,,,go-2,1,,,,,,
2,471.0,4,phase_2,red_pentagon,go,,,,go-1,1,,,,,,
2,549.0,4,phase_2,purple_triangle,go,,,,go-2,1,,,,,,
2,546.0,4,phase_2,red_triangle,stop,blue,250.0,tracking-SSD,go-1,3,,,,,,
2,534.0,4,phase_2,purple_pentagon,go,,,,go-2,1,,,,,,
2,499.0,4,phase_2,red_rhombus,go,,,,go-1,2,,,,,,
2,475.0,4,phase_2,red_triangle,go,,,,go-1,1,,,,,,
2,506.0,4,phase_2,purple_pentagon,go,,,,go-2,1,,,,,,
0,0,4,phase_2,red_rhombus,stop,green,0.0,0-SSD,go-1,4,,,,,,
1,489.0,4,phase_2,purple_circle,go,,,,go-2,1,,,,,,
2,476.0,4,phase_2,red_pentagon,go,,,,go-1,1,,,,,,
0,0,4,phase_2,purple_triangle,stop,green,0.0,0-SSD,go-2,4,,,,,,
1,493.0,4,phase_2,purple_circle,go,,,,go-2,1,,,,,,
0,0,4,phase_2,red_triangle,stop,green,0.0,0-SSD,go-1,4,,,,,,
2,489.0,4,phase_2,purple_pentagon,go,,,,go-2,1,,,,,,
2,486.0,4,phase_2,red_triangle,go,,,,go-1,1,,,,,,
2,440.0,4,phase_2,purple_triangle,go,,,,go-2,1,,,,,,
1,427.0,4,phase_2,red_circle,go,,,,go-1,1,,,,,,
1,391.0,4,phase_2,red_circle,stop,blue,200.0,tracking-SSD,go-1,3,,,,,,
2,512.0,4,phase_2,red_rhombus,go,,,,go-1,2,,,,,,
0,0,4,phase_2,purple_triangle,stop,green,0.0,0-SSD,go-2,4,,,,,,
0,0,4,phase_2,red_rhombus,stop,green,0.0,0-SSD,go-1,4,,,,,,
0,0,4,phase_2,purple_pentagon,stop,green,0.0,0-SSD,go-2,4,,,,,,
1,470.0,4,phase_2,purple_circle,go,,,,go-2,1,,,,,,
2,567.0,5,phase_2,purple_pentagon,go,,,,go-2,1,,,,,,
2,453.0,5,phase_2,purple_triangle,go,,,,go-2,1,,,,,,
0,0,5,phase_2,purple_circle,stop,blue,150.0,tracking-SSD,go-2,4,,,,,,
2,539.0,5,phase_2,red_pentagon,stop,blue,200.0,tracking-SSD,go-1,3,,,,,,
2,413.0,5,phase_2,purple_pentagon,go,,,,go-2,1,,,,,,
0,0,5,phase_2,red_circle,stop,green,0.0,0-SSD,go-1,4,,,,,,
1,432.0,5,phase_2,purple_rhombus,go,,,,go-2,1,,,,,,
2,474.0,5,phase_2,red_triangle,go,,,,go-1,1,,,,,,
1,449.0,5,phase_2,purple_circle,go,,,,go-2,1,,,,,,
1,493.0,5,phase_2,purple_circle,go,,,,go-2,1,,,,,,
0,0,5,phase_2,red_pentagon,stop,blue,150.0,tracking-SSD,go-1,4,,,,,,
1,456.0,5,phase_2,red_rhombus,go,,,,go-1,1,,,,,,
1,409.0,5,phase_2,red_rhombus,stop,blue,200.0,tracking-SSD,go-1,3,,,,,,
2,510.0,5,phase_2,purple_triangle,go,,,,go-2,1,,,,,,
0,0,5,phase_2,purple_triangle,stop,blue,150.0,tracking-SSD,go-2,4,,,,,,
2,561.0,5,phase_2,red_pentagon,go,,,,go-1,1,,,,,,
1,670.0,5,phase_2,purple_rhombus,go,,,,go-2,1,,,,,,
0,0,5,phase_2,purple_pentagon,stop,green,0.0,0-SSD,go-2,4,,,,,,
2,554.0,5,phase_2,red_pentagon,go,,,,go-1,1,,,,,,
2,438.0,5,phase_2,purple_pentagon,go,,,,go-2,1,,,,,,
0,0,5,phase_2,purple_circle,stop,blue,200.0,tracking-SSD,go-2,4,,,,,,
0,0,5,phase_2,purple_pentagon,stop,blue,250.0,tracking-SSD,go-2,4,,,,,,
1,422.0,5,phase_2,purple_rhombus,go,,,,go-2,1,,,,,,
2,375.0,5,phase_2,red_circle,go,,,,go-1,2,,,,,,
1,406.0,5,phase_2,red_circle,go,,,,go-1,1,,,,,,
1,347.0,5,phase_2,red_circle,go,,,,go-1,1,,,,,,
1,536.0,5,phase_2,purple_rhombus,go,,,,go-2,1,,,,,,
2,500.0,5,phase_2,purple_triangle,go,,,,go-2,1,,,,,,
2,453.0,5,phase_2,purple_triangle,go,,,,go-2,1,,,,,,
0,0,5,phase_2,red_rhombus,stop,green,0.0,0-SSD,go-1,4,,,,,,
1,493.0,5,phase_2,red_circle,go,,,,go-1,1,,,,,,
0,0,5,phase_2,purple_pentagon,stop,green,0.0,0-SSD,go-2,4,,,,,,
2,703.0,5,phase_2,red_triangle,go,,,,go-1,1,,,,,,
0,0,5,phase_2,purple_circle,stop,green,0.0,0-SSD,go-2,4,,,,,,
1,417.0,5,phase_2,red_circle,stop,blue,300.0,tracking-SSD,go-1,3,,,,,,
1,741.0,5,phase_2,purple_rhombus,go,,,,go-2,1,,,,,,
2,592.0,5,phase_2,purple_pentagon,go,,,,go-2,1,,,,,,
1,477.0,5,phase_2,red_rhombus,go,,,,go-1,1,,,,,,
2,498.0,5,phase_2,red_triangle,go,,,,go-1,1,,,,,,
2,417.0,5,phase_2,red_triangle,go,,,,go-1,1,,,,,,
2,402.0,5,phase_2,red_triangle,go,,,,go-1,1,,,,,,
2,401.0,5,phase_2,red_triangle,go,,,,go-1,1,,,,,,
0,0,5,phase_2,red_circle,stop,green,0.0,0-SSD,go-1,4,,,,,,
1,476.0,5,phase_2,red_rhombus,go,,,,go-1,1,,,,,,
1,429.0,5,phase_2,purple_rhombus,go,,,,go-2,1,,,,,,
2,707.0,5,phase_2,red_pentagon,go,,,,go-1,1,,,,,,
0,0,5,phase_2,purple_triangle,stop,green,0.0,0-SSD,go-2,4,,,,,,
0,0,5,phase_2,red_rhombus,stop,green,0.0,0-SSD,go-1,4,,,,,,
2,679.0,6,phase_2,purple_pentagon,go,,,,go-2,1,,,,,,
0,0,6,phase_2,red_rhombus,stop,green,0.0,0-SSD,go-1,4,,,,,,
0,0,6,phase_2,purple_circle,stop,green,0.0,0-SSD,go-2,4,,,,,,
1,424.0,6,phase_2,purple_circle,go,,,,go-2,1,,,,,,
2,378.0,6,phase_2,red_pentagon,go,,,,go-1,1,,,,,,
1,409.0,6,phase_2,purple_rhombus,go,,,,go-2,1,,,,,,
0,0,6,phase_2,red_rhombus,stop,green,0.0,0-SSD,go-1,4,,,,,,
1,415.0,6,phase_2,purple_circle,go,,,,go-2,1,,,,,,
2,446.0,6,phase_2,purple_triangle,go,,,,go-2,1,,,,,,
0,0,6,phase_2,purple_rhombus,stop,green,0.0,0-SSD,go-2,4,,,,,,
2,330.0,6,phase_2,red_triangle,stop,blue,250.0,tracking-SSD,go-1,3,,,,,,
1,531.0,6,phase_2,red_rhombus,go,,,,go-1,1,,,,,,
2,596.0,6,phase_2,red_pentagon,go,,,,go-1,1,,,,,,
0,0,6,phase_2,purple_triangle,stop,green,0.0,0-SSD,go-2,4,,,,,,
1,490.0,6,phase_2,red_pentagon,go,,,,go-1,2,,,,,,
2,476.0,6,phase_2,red_pentagon,go,,,,go-1,1,,,,,,
1,653.0,6,phase_2,purple_rhombus,stop,blue,200.0,tracking-SSD,go-2,3,,,,,,
0,0,6,phase_2,purple_pentagon,stop,green,0.0,0-SSD,go-2,4,,,,,,
1,491.0,6,phase_2,red_circle,go,,,,go-1,1,,,,,,
0,0,6,phase_2,red_circle,stop,blue,150.0,tracking-SSD,go-1,4,,,,,,
1,441.0,6,phase_2,purple_circle,go,,,,go-2,1,,,,,,
2,462.0,6,phase_2,red_triangle,go,,,,go-1,1,,,,,,
1,470.0,6,phase_2,red_circle,go,,,,go-1,1,,,,,,
2,491.0,6,phase_2,red_triangle,go,,,,go-1,1,,,,,,
2,399.0,6,phase_2,purple_triangle,stop,blue,200.0,tracking-SSD,go-2,3,,,,,,
0,0,6,phase_2,purple_rhombus,stop,blue,150.0,tracking-SSD,go-2,4,,,,,,
2,643.0,6,phase_2,purple_pentagon,go,,,,go-2,1,,,,,,
2,505.0,6,phase_2,purple_triangle,go,,,,go-2,1,,,,,,
0,0,6,phase_2,purple_triangle,stop,blue,200.0,tracking-SSD,go-2,4,,,,,,
1,409.0,6,phase_2,purple_rhombus,go,,,,go-2,1,,,,,,
2,454.0,6,phase_2,purple_pentagon,go,,,,go-2,1,,,,,,
1,452.0,6,phase_2,red_circle,go,,,,go-1,1,,,,,,
2,460.0,6,phase_2,red_triangle,go,,,,go-1,1,,,,,,
2,402.0,6,phase_2,red_circle,go,,,,go-1,2,,,,,,
1,354.0,6,phase_2,red_circle,go,,,,go-1,1,,,,,,
2,399.0,6,phase_2,red_rhombus,stop,blue,250.0,tracking-SSD,go-1,3,,,,,,
0,0,6,phase_2,red_triangle,stop,blue,200.0,tracking-SSD,go-1,4,,,,,,
2,857.0,6,phase_2,purple_pentagon,go,,,,go-2,1,,,,,,
1,595.0,6,phase_2,purple_rhombus,go,,,,go-2,1,,,,,,
2,964.0,6,phase_2,red_rhombus,go,,,,go-1,2,,,,,,
0,0,6,phase_2,red_triangle,stop,green,0.0,0-SSD,go-1,4,,,,,,
2,476.0,6,phase_2,purple_pentagon,go,,,,go-2,1,,,,,,
2,655.0,6,phase_2,red_pentagon,go,,,,go-1,1,,,,,,
1,473.0,6,phase_2,red_circle,go,,,,go-1,1,,,,,,
1,381.0,6,phase_2,purple_circle,go,,,,go-2,1,,,,,,
0,0,6,phase_2,red_pentagon,stop,green,0.0,0-SSD,go-1,4,,,,,,
2,479.0,6,phase_2,purple_triangle,go,,,,go-2,1,,,,,,
1,623.0,6,phase_2,purple_rhombus,go,,,,go-2,1,,,,,,
2,691.0,7,phase_2,purple_pentagon,go,,,,go-2,1,,,,,,
1,452.0,7,phase_2,red_rhombus,stop,blue,250.0,tracking-SSD,go-1,3,,,,,,
2,529.0,7,phase_2,red_pentagon,go,,,,go-1,1,,,,,,
0,0,7,phase_2,red_triangle,stop,green,0.0,0-SSD,go-1,4,,,,,,
2,478.0,7,phase_2,purple_pentagon,go,,,,go-2,1,,,,,,
2,566.0,7,phase_2,purple_triangle,stop,blue,200.0,tracking-SSD,go-2,3,,,,,,
2,507.0,7,phase_2,red_triangle,go,,,,go-1,1,,,,,,
0,0,7,phase_2,purple_pentagon,stop,blue,150.0,tracking-SSD,go-2,4,,,,,,
2,604.0,7,phase_2,red_triangle,go,,,,go-1,1,,,,,,
2,478.0,7,phase_2,red_triangle,go,,,,go-1,1,,,,,,
0,0,7,phase_2,purple_triangle,stop,green,0.0,0-SSD,go-2,4,,,,,,
2,404.0,7,phase_2,purple_triangle,go,,,,go-2,1,,,,,,
1,494.0,7,phase_2,red_circle,go,,,,go-1,1,,,,,,
2,536.0,7,phase_2,purple_pentagon,stop,blue,200.0,tracking-SSD,go-2,3,,,,,,
1,467.0,7,phase_2,purple_circle,go,,,,go-2,1,,,,,,
0,0,7,phase_2,red_pentagon,stop,blue,150.0,tracking-SSD,go-1,4,,,,,,
2,564.0,7,phase_2,purple_pentagon,go,,,,go-2,1,,,,,,
2,516.0,7,phase_2,red_triangle,go,,,,go-1,1,,,,,,
1,436.0,7,phase_2,purple_circle,go,,,,go-2,1,,,,,,
0,0,7,phase_2,red_circle,stop,green,0.0,0-SSD,go-1,4,,,,,,
2,339.0,7,phase_2,purple_triangle,go,,,,go-2,1,,,,,,
2,584.0,7,phase_2,red_rhombus,go,,,,go-1,2,,,,,,
0,0,7,phase_2,red_pentagon,stop,green,0.0,0-SSD,go-1,4,,,,,,
1,457.0,7,phase_2,red_circle,go,,,,go-1,1,,,,,,
2,511.0,7,phase_2,purple_pentagon,go,,,,go-2,1,,,,,,
0,0,7,phase_2,purple_rhombus,stop,green,0.0,0-SSD,go-2,4,,,,,,
0,0,7,phase_2,purple_rhombus,stop,green,0.0,0-SSD,go-2,4,,,,,,
0,0,7,phase_2,purple_rhombus,stop,blue,200.0,tracking-SSD,go-2,4,,,,,,
2,536.0,7,phase_2,red_pentagon,go,,,,go-1,1,,,,,,
1,511.0,7,phase_2,purple_rhombus,go,,,,go-2,1,,,,,,
1,564.0,7,phase_2,red_circle,stop,blue,250.0,tracking-SSD,go-1,3,,,,,,
2,629.0,7,phase_2,red_triangle,go,,,,go-1,1,,,,,,
1,425.0,7,phase_2,red_pentagon,go,,,,go-1,2,,,,,,
0,0,7,phase_2,red_rhombus,stop,green,0.0,0-SSD,go-1,4,,,,,,
0,0,7,phase_2,purple_rhombus,stop,green,0.0,0-SSD,go-2,4,,,,,,
1,499.0,7,phase_2,purple_rhombus,go,,,,go-2,1,,,,,,
2,407.0,7,phase_2,purple_triangle,go,,,,go-2,1,,,,,,
1,450.0,7,phase_2,red_circle,go,,,,go-1,1,,,,,,
2,550.0,7,phase_2,purple_rhombus,go,,,,go-2,2,,,,,,
1,459.0,7,phase_2,purple_circle,go,,,,go-2,1,,,,,,
1,389.0,7,phase_2,red_circle,go,,,,go-1,1,,,,,,
2,657.0,7,phase_2,red_triangle,go,,,,go-1,1,,,,,,
1,396.0,7,phase_2,red_circle,stop,blue,200.0,tracking-SSD,go-1,3,,,,,,
1,629.0,7,phase_2,purple_circle,go,,,,go-2,1,,,,,,
1,525.0,7,phase_2,red_rhombus,go,,,,go-1,1,,,,,,
2,535.0,7,phase_2,red_pentagon,go,,,,go-1,1,,,,,,
1,387.0,7,phase_2,purple_circle,go,,,,go-2,1,,,,,,
1,452.0,7,phase_2,purple_rhombus,go,,,,go-2,1,,,,,,
1,600.0,8,phase_2,red_rhombus,go,,,,go-1,1,,,,,,
2,530.0,8,phase_2,red_triangle,go,,,,go-1,1,,,,,,
1,393.0,8,phase_2,purple_circle,go,,,,go-2,1,,,,,,
1,412.0,8,phase_2,purple_circle,stop,blue,150.0,tracking-SSD,go-2,3,,,,,,
1,433.0,8,phase_2,red_circle,go,,,,go-1,1,,,,,,
1,364.0,8,phase_2,red_circle,go,,,,go-1,1,,,,,,
0,0,8,phase_2,purple_rhombus,stop,green,0.0,0-SSD,go-2,4,,,,,,
1,415.0,8,phase_2,purple_rhombus,go,,,,go-2,1,,,,,,
2,423.0,8,phase_2,red_triangle,go,,,,go-1,1,,,,,,
0,0,8,phase_2,purple_rhombus,stop,green,0.0,0-SSD,go-2,4,,,,,,
2,555.0,8,phase_2,red_pentagon,go,,,,go-1,1,,,,,,
0,0,8,phase_2,purple_pentagon,stop,green,0.0,0-SSD,go-2,4,,,,,,
2,372.0,8,phase_2,red_pentagon,go,,,,go-1,1,,,,,,
0,0,8,phase_2,red_pentagon,stop,green,0.0,0-SSD,go-1,4,,,,,,
1,366.0,8,phase_2,purple_circle,go,,,,go-2,1,,,,,,
1,409.0,8,phase_2,red_circle,go,,,,go-1,1,,,,,,
0,0,8,phase_2,red_pentagon,stop,green,0.0,0-SSD,go-1,4,,,,,,
2,404.0,8,phase_2,red_pentagon,go,,,,go-1,1,,,,,,
2,367.0,8,phase_2,purple_pentagon,go,,,,go-2,1,,,,,,
0,0,8,phase_2,red_rhombus,stop,green,0.0,0-SSD,go-1,4,,,,,,
0,0,8,phase_2,red_triangle,stop,blue,100.0,tracking-SSD,go-1,4,,,,,,
2,485.0,8,phase_2,red_triangle,go,,,,go-1,1,,,,,,
2,572.0,8,phase_2,purple_pentagon,go,,,,go-2,1,,,,,,
1,445.0,8,phase_2,red_circle,stop,blue,150.0,tracking-SSD,go-1,3,,,,,,
0,0,8,phase_2,purple_circle,stop,blue,100.0,tracking-SSD,go-2,4,,,,,,
0,0,8,phase_2,red_rhombus,stop,blue,150.0,tracking-SSD,go-1,4,,,,,,
2,393.0,8,phase_2,purple_pentagon,go,,,,go-2,1,,,,,,
2,401.0,8,phase_2,purple_pentagon,go,,,,go-2,1,,,,,,
1,421.0,8,phase_2,purple_circle,go,,,,go-2,1,,,,,,
2,476.0,8,phase_2,purple_pentagon,go,,,,go-2,1,,,,,,
1,552.0,8,phase_2,red_rhombus,go,,,,go-1,1,,,,,,
1,460.0,8,phase_2,red_rhombus,go,,,,go-1,1,,,,,,
2,468.0,8,phase_2,red_triangle,go,,,,go-1,1,,,,,,
2,397.0,8,phase_2,purple_triangle,stop,blue,200.0,tracking-SSD,go-2,3,,,,,,
1,372.0,8,phase_2,red_circle,go,,,,go-1,1,,,,,,
1,382.0,8,phase_2,purple_triangle,go,,,,go-2,2,,,,,,
1,414.0,8,phase_2,purple_rhombus,go,,,,go-2,1,,,,,,
2,412.0,8,phase_2,purple_triangle,go,,,,go-2,1,,,,,,
2,512.0,8,phase_2,purple_pentagon,go,,,,go-2,1,,,,,,
0,0,8,phase_2,purple_rhombus,stop,blue,150.0,tracking-SSD,go-2,4,,,,,,
1,596.0,8,phase_2,purple_rhombus,go,,,,go-2,1,,,,,,
1,527.0,8,phase_2,red_circle,go,,,,go-1,1,,,,,,
0,0,8,phase_2,red_triangle,stop,green,0.0,0-SSD,go-1,4,,,,,,
1,490.0,8,phase_2,red_rhombus,go,,,,go-1,1,,,,,,
0,0,8,phase_2,red_triangle,stop,blue,200.0,tracking-SSD,go-1,4,,,,,,
1,462.0,8,phase_2,purple_circle,go,,,,go-2,1,,,,,,
2,437.0,8,phase_2,purple_triangle,go,,,,go-2,1,,,,,,
0,0,8,phase_2,purple_triangle,stop,green,0.0,0-SSD,go-2,4,,,,,,
1,499.0,9,phase_2,purple_rhombus,go,,,,go-2,1,,,,,,
2,518.0,9,phase_2,red_pentagon,go,,,,go-1,1,,,,,,
1,437.0,9,phase_2,red_circle,stop,blue,250.0,tracking-SSD,go-1,3,,,,,,
2,526.0,9,phase_2,purple_pentagon,go,,,,go-2,1,,,,,,
0,0,9,phase_2,purple_triangle,stop,green,0.0,0-SSD,go-2,4,,,,,,
2,432.0,9,phase_2,red_pentagon,go,,,,go-1,1,,,,,,
1,486.0,9,phase_2,purple_rhombus,go,,,,go-2,1,,,,,,
2,505.0,9,phase_2,purple_pentagon,go,,,,go-2,1,,,,,,
2,481.0,9,phase_2,red_rhombus,go,,,,go-1,2,,,,,,
1,444.0,9,phase_2,purple_circle,go,,,,go-2,1,,,,,,
2,441.0,9,phase_2,purple_triangle,go,,,,go-2,1,,,,,,
1,405.0,9,phase_2,red_triangle,go,,,,go-1,2,,,,,,
1,447.0,9,phase_2,red_rhombus,go,,,,go-1,1,,,,,,
1,412.0,9,phase_2,red_circle,go,,,,go-1,1,,,,,,
0,0,9,phase_2,purple_pentagon,stop,green,0.0,0-SSD,go-2,4,,,,,,
1,374.0,9,phase_2,red_circle,go,,,,go-1,1,,,,,,
1,574.0,9,phase_2,red_rhombus,go,,,,go-1,1,,,,,,
1,391.0,9,phase_2,purple_rhombus,go,,,,go-2,1,,,,,,
1,411.0,9,phase_2,purple_circle,go,,,,go-2,1,,,,,,
1,363.0,9,phase_2,purple_pentagon,go,,,,go-2,2,,,,,,
0,0,9,phase_2,red_rhombus,stop,blue,200.0,tracking-SSD,go-1,4,,,,,,
0,0,9,phase_2,red_triangle,stop,green,0.0,0-SSD,go-1,4,,,,,,
2,570.0,9,phase_2,red_pentagon,go,,,,go-1,1,,,,,,
0,0,9,phase_2,red_pentagon,stop,green,0.0,0-SSD,go-1,4,,,,,,
2,420.0,9,phase_2,red_triangle,stop,blue,250.0,tracking-SSD,go-1,3,,,,,,
2,406.0,9,phase_2,purple_triangle,stop,blue,200.0,tracking-SSD,go-2,3,,,,,,
1,404.0,9,phase_2,purple_circle,go,,,,go-2,1,,,,,,
1,369.0,9,phase_2,red_rhombus,go,,,,go-1,1,,,,,,
1,480.0,9,phase_2,purple_circle,go,,,,go-2,1,,,,,,
1,343.0,9,phase_2,purple_circle,go,,,,go-2,1,,,,,,
0,0,9,phase_2,purple_triangle,stop,green,0.0,0-SSD,go-2,4,,,,,,
1,461.0,9,phase_2,purple_triangle,go,,,,go-2,2,,,,,,
0,0,9,phase_2,red_rhombus,stop,green,0.0,0-SSD,go-1,4,,,,,,
0,0,9,phase_2,purple_triangle,stop,blue,150.0,tracking-SSD,go-2,4,,,,,,
1,398.0,9,phase_2,red_circle,go,,,,go-1,1,,,,,,
1,564.0,9,phase_2,red_rhombus,go,,,,go-1,1,,,,,,
2,527.0,9,phase_2,red_pentagon,go,,,,go-1,1,,,,,,
2,492.0,9,phase_2,purple_triangle,go,,,,go-2,1,,,,,,
1,501.0,9,phase_2,purple_circle,go,,,,go-2,1,,,,,,
1,454.0,9,phase_2,red_rhombus,go,,,,go-1,1,,,,,,
2,383.0,9,phase_2,purple_circle,stop,blue,200.0,tracking-SSD,go-2,3,,,,,,
1,348.0,9,phase_2,purple_triangle,go,,,,go-2,2,,,,,,
2,481.0,9,phase_2,red_pentagon,go,,,,go-1,1,,,,,,
0,0,9,phase_2,red_pentagon,stop,blue,150.0,tracking-SSD,go-1,4,,,,,,
0,0,9,phase_2,purple_circle,stop,blue,200.0,tracking-SSD,go-2,4,,,,,,
1,496.0,9,phase_2,red_rhombus,go,,,,go-1,1,,,,,,
0,0,9,phase_2,purple_pentagon,stop,green,0.0,0-SSD,go-2,4,,,,,,
0,0,9,phase_2,red_triangle,stop,green,0.0,0-SSD,go-1,4,,,,,,
0,0,10,phase_2,red_triangle,stop,blue,250.0,tracking-SSD,go-1,4,,,,,,
1,475.0,10,phase_2,purple_rhombus,go,,,,go-2,1,,,,,,
1,472.0,10,phase_2,red_triangle,go,,,,go-1,2,,,,,,
2,481.0,10,phase_2,purple_triangle,go,,,,go-2,1,,,,,,
1,389.0,10,phase_2,red_pentagon,stop,blue,300.0,tracking-SSD,go-1,3,,,,,,
0,0,10,phase_2,red_rhombus,stop,green,0.0,0-SSD,go-1,4,,,,,,
1,418.0,10,phase_2,purple_circle,go,,,,go-2,1,,,,,,
2,460.0,10,phase_2,red_pentagon,go,,,,go-1,1,,,,,,
1,458.0,10,phase_2,red_rhombus,go,,,,go-1,1,,,,,,
2,491.0,10,phase_2,purple_pentagon,go,,,,go-2,1,,,,,,
2,421.0,10,phase_2,purple_pentagon,go,,,,go-2,1,,,,,,
1,408.0,10,phase_2,red_circle,go,,,,go-1,1,,,,,,
1,384.0,10,phase_2,purple_circle,go,,,,go-2,1,,,,,,
2,596.0,10,phase_2,purple_triangle,go,,,,go-2,1,,,,,,
1,414.0,10,phase_2,purple_circle,go,,,,go-2,1,,,,,,
2,467.0,10,phase_2,red_pentagon,go,,,,go-1,1,,,,,,
1,521.0,10,phase_2,red_rhombus,go,,,,go-1,1,,,,,,
2,452.0,10,phase_2,purple_pentagon,stop,blue,250.0,tracking-SSD,go-2,3,,,,,,
1,831.0,10,phase_2,purple_rhombus,go,,,,go-2,1,,,,,,
2,469.0,10,phase_2,red_triangle,go,,,,go-1,1,,,,,,
2,488.0,10,phase_2,red_rhombus,go,,,,go-1,2,,,,,,
2,555.0,10,phase_2,red_pentagon,go,,,,go-1,1,,,,,,
0,0,10,phase_2,purple_triangle,stop,green,0.0,0-SSD,go-2,4,,,,,,
1,470.0,10,phase_2,purple_circle,go,,,,go-2,1,,,,,,
1,501.0,10,phase_2,red_circle,stop,blue,200.0,tracking-SSD,go-1,3,,,,,,
2,521.0,10,phase_2,red_pentagon,go,,,,go-1,1,,,,,,
0,0,10,phase_2,purple_circle,stop,green,0.0,0-SSD,go-2,4,,,,,,
1,584.0,10,phase_2,red_triangle,go,,,,go-1,2,,,,,,
1,468.0,10,phase_2,purple_rhombus,go,,,,go-2,1,,,,,,
0,0,10,phase_2,red_triangle,stop,green,0.0,0-SSD,go-1,4,,,,,,
1,476.0,10,phase_2,red_circle,go,,,,go-1,1,,,,,,
0,0,10,phase_2,red_rhombus,stop,green,0.0,0-SSD,go-1,4,,,,,,
2,551.0,10,phase_2,red_pentagon,go,,,,go-1,1,,,,,,
0,0,10,phase_2,purple_circle,stop,blue,150.0,tracking-SSD,go-2,4,,,,,,
0,0,10,phase_2,purple_pentagon,stop,blue,200.0,tracking-SSD,go-2,4,,,,,,
0,0,10,phase_2,red_pentagon,stop,green,0.0,0-SSD,go-1,4,,,,,,
1,846.0,10,phase_2,purple_rhombus,go,,,,go-2,1,,,,,,
1,517.0,10,phase_2,purple_circle,go,,,,go-2,1,,,,,,
1,414.0,10,phase_2,red_circle,stop,blue,250.0,tracking-SSD,go-1,3,,,,,,
2,637.0,10,phase_2,red_triangle,go,,,,go-1,1,,,,,,
2,398.0,10,phase_2,purple_triangle,go,,,,go-2,1,,,,,,
2,385.0,10,phase_2,purple_triangle,stop,blue,200.0,tracking-SSD,go-2,3,,,,,,
1,383.0,10,phase_2,red_rhombus,go,,,,go-1,1,,,,,,
1,604.0,10,phase_2,purple_rhombus,go,,,,go-2,1,,,,,,
1,467.0,10,phase_2,purple_circle,go,,,,go-2,1,,,,,,
0,0,10,phase_2,purple_pentagon,stop,green,0.0,0-SSD,go-2,4,,,,,,
1,475.0,10,phase_2,red_triangle,go,,,,go-1,2,,,,,,
0,0,10,phase_2,purple_rhombus,stop,green,0.0,0-SSD,go-2,4,,,,,,
0,0,11,phase_2,red_circle,stop,green,0.0,0-SSD,go-1,4,,,,,,
1,509.0,11,phase_2,purple_rhombus,go,,,,go-2,1,,,,,,
1,382.0,11,phase_2,red_rhombus,go,,,,go-1,1,,,,,,
1,346.0,11,phase_2,red_rhombus,stop,blue,150.0,tracking-SSD,go-1,3,,,,,,
0,0,11,phase_2,red_rhombus,stop,green,0.0,0-SSD,go-1,4,,,,,,
1,578.0,11,phase_2,purple_circle,go,,,,go-2,1,,,,,,
1,418.0,11,phase_2,purple_rhombus,go,,,,go-2,1,,,,,,
1,404.0,11,phase_2,purple_rhombus,go,,,,go-2,1,,,,,,
2,502.0,11,phase_2,purple_pentagon,go,,,,go-2,1,,,,,,
1,511.0,11,phase_2,red_rhombus,go,,,,go-1,1,,,,,,
2,567.0,11,phase_2,red_triangle,go,,,,go-1,1,,,,,,
0,0,11,phase_2,purple_triangle,stop,green,0.0,0-SSD,go-2,4,,,,,,
0,0,11,phase_2,purple_pentagon,stop,blue,100.0,tracking-SSD,go-2,4,,,,,,
1,536.0,11,phase_2,purple_rhombus,go,,,,go-2,1,,,,,,
1,500.0,11,phase_2,red_circle,go,,,,go-1,1,,,,,,
2,554.0,11,phase_2,red_triangle,go,,,,go-1,1,,,,,,
1,518.0,11,phase_2,red_circle,go,,,,go-1,1,,,,,,
2,494.0,11,phase_2,purple_triangle,go,,,,go-2,1,,,,,,
1,874.0,11,phase_2,red_triangle,go,,,,go-1,2,,,,,,
1,456.0,11,phase_2,red_circle,go,,,,go-1,1,,,,,,
1,397.0,11,phase_2,purple_triangle,go,,,,go-2,2,,,,,,
0,0,11,phase_2,purple_pentagon,stop,blue,150.0,tracking-SSD,go-2,4,,,,,,
1,482.0,11,phase_2,red_circle,go,,,,go-1,1,,,,,,
1,424.0,11,phase_2,purple_circle,go,,,,go-2,1,,,,,,
1,410.0,11,phase_2,red_circle,go,,,,go-1,1,,,,,,
2,374.0,11,phase_2,red_pentagon,go,,,,go-1,1,,,,,,
1,382.0,11,phase_2,purple_triangle,go,,,,go-2,2,,,,,,
0,0,11,phase_2,red_pentagon,stop,green,0.0,0-SSD,go-1,4,,,,,,
2,511.0,11,phase_2,red_pentagon,stop,blue,200.0,tracking-SSD,go-1,3,,,,,,
0,0,11,phase_2,purple_pentagon,stop,green,0.0,0-SSD,go-2,4,,,,,,
2,541.0,11,phase_2,red_pentagon,go,,,,go-1,1,,,,,,
0,0,11,phase_2,red_triangle,stop,blue,150.0,tracking-SSD,go-1,4,,,,,,
0,0,11,phase_2,red_circle,stop,green,0.0,0-SSD,go-1,4,,,,,,
1,420.0,11,phase_2,purple_circle,go,,,,go-2,1,,,,,,
2,518.0,11,phase_2,red_pentagon,go,,,,go-1,1,,,,,,
2,516.0,11,phase_2,red_triangle,go,,,,go-1,1,,,,,,
1,458.0,11,phase_2,purple_circle,stop,blue,200.0,tracking-SSD,go-2,3,,,,,,
2,511.0,11,phase_2,purple_pentagon,go,,,,go-2,1,,,,,,
1,767.0,11,phase_2,purple_rhombus,go,,,,go-2,1,,,,,,
2,630.0,11,phase_2,purple_triangle,go,,,,go-2,1,,,,,,
1,605.0,11,phase_2,purple_rhombus,go,,,,go-2,1,,,,,,
0,0,11,phase_2,purple_pentagon,stop,green,0.0,0-SSD,go-2,4,,,,,,
2,511.0,11,phase_2,purple_pentagon,go,,,,go-2,1,,,,,,
0,0,11,phase_2,purple_circle,stop,blue,150.0,tracking-SSD,go-2,4,,,,,,
0,0,11,phase_2,red_rhombus,stop,blue,200.0,tracking-SSD,go-1,4,,,,,,
0,0,11,phase_2,purple_triangle,stop,green,0.0,0-SSD,go-2,4,,,,,,
1,636.0,11,phase_2,red_rhombus,go,,,,go-1,1,,,,,,
2,634.0,11,phase_2,red_triangle,go,,,,go-1,1,,,,,,
0,0,12,phase_2,purple_triangle,stop,green,0.0,0-SSD,go-2,4,,,,,,
1,350.0,12,phase_2,purple_triangle,stop,blue,250.0,tracking-SSD,go-2,3,,,,,,
2,551.0,12,phase_2,red_triangle,go,,,,go-1,1,,,,,,
1,357.0,12,phase_2,purple_circle,go,,,,go-2,1,,,,,,
1,389.0,12,phase_2,red_circle,go,,,,go-1,1,,,,,,
1,487.0,12,phase_2,purple_rhombus,go,,,,go-2,1,,,,,,
2,495.0,12,phase_2,red_pentagon,go,,,,go-1,1,,,,,,
0,0,12,phase_2,purple_pentagon,stop,blue,200.0,tracking-SSD,go-2,4,,,,,,
1,389.0,12,phase_2,red_circle,go,,,,go-1,1,,,,,,
2,646.0,12,phase_2,red_pentagon,go,,,,go-1,1,,,,,,
0,0,12,phase_2,purple_circle,stop,green,0.0,0-SSD,go-2,4,,,,,,
0,0,12,phase_2,red_pentagon,stop,green,0.0,0-SSD,go-1,4,,,,,,
0,0,12,phase_2,purple_rhombus,stop,green,0.0,0-SSD,go-2,4,,,,,,
2,456.0,12,phase_2,purple_pentagon,go,,,,go-2,1,,,,,,
0,0,12,phase_2,red_triangle,stop,green,0.0,0-SSD,go-1,4,,,,,,
0,0,12,phase_2,purple_triangle,stop,green,0.0,0-SSD,go-2,4,,,,,,
2,504.0,12,phase_2,purple_triangle,go,,,,go-2,1,,,,,,
1,389.0,12,phase_2,purple_pentagon,go,,,,go-2,2,,,,,,
2,408.0,12,phase_2,purple_pentagon,go,,,,go-2,1,,,,,,
1,530.0,12,phase_2,purple_rhombus,go,,,,go-2,1,,,,,,
2,438.0,12,phase_2,red_pentagon,go,,,,go-1,1,,,,,,
2,492.0,12,phase_2,red_triangle,go,,,,go-1,1,,,,,,
2,421.0,12,phase_2,purple_triangle,go,,,,go-2,1,,,,,,
1,418.0,12,phase_2,purple_circle,stop,blue,250.0,tracking-SSD,go-2,3,,,,,,
2,438.0,12,phase_2,red_pentagon,stop,blue,200.0,tracking-SSD,go-1,3,,,,,,
2,492.0,12,phase_2,red_triangle,go,,,,go-1,1,,,,,,
1,468.0,12,phase_2,purple_rhombus,go,,,,go-2,1,,,,,,
2,397.0,12,phase_2,purple_circle,go,,,,go-2,2,,,,,,
2,463.0,12,phase_2,purple_triangle,go,,,,go-2,1,,,,,,
1,449.0,12,phase_2,red_circle,go,,,,go-1,1,,,,,,
1,356.0,12,phase_2,purple_circle,stop,blue,150.0,tracking-SSD,go-2,3,,,,,,
1,286.0,12,phase_2,red_circle,go,,,,go-1,1,,,,,,
1,340.0,12,phase_2,red_circle,go,,,,go-1,1,,,,,,
2,551.0,12,phase_2,purple_pentagon,go,,,,go-2,1,,,,,,
2,426.0,12,phase_2,purple_pentagon,go,,,,go-2,1,,,,,,
0,0,12,phase_2,red_rhombus,stop,green,0.0,0-SSD,go-1,4,,,,,,
2,535.0,12,phase_2,red_pentagon,go,,,,go-1,1,,,,,,
2,453.0,12,phase_2,purple_triangle,go,,,,go-2,1,,,,,,
0,0,12,phase_2,red_rhombus,stop,green,0.0,0-SSD,go-1,4,,,,,,
1,426.0,12,phase_2,purple_circle,go,,,,go-2,1,,,,,,
2,490.0,12,phase_2,purple_rhombus,go,,,,go-2,2,,,,,,
0,0,12,phase_2,red_circle,stop,blue,100.0,tracking-SSD,go-1,4,,,,,,
0,0,12,phase_2,red_rhombus,stop,blue,150.0,tracking-SSD,go-1,4,,,,,,
1,441.0,12,phase_2,red_rhombus,go,,,,go-1,1,,,,,,
1,426.0,12,phase_2,red_rhombus,go,,,,go-1,1,,,,,,
1,480.0,12,phase_2,red_triangle,go,,,,go-1,2,,,,,,
0,0,12,phase_2,red_rhombus,stop,blue,200.0,tracking-SSD,go-1,4,,,,,,
2,487.0,12,phase_2,red_rhombus,go,,,,go-1,2,,,,,,
1,555.0,13,phase_2,red_circle,go,,,,go-1,1,,,,,,
1,417.0,13,phase_2,purple_triangle,go,,,,go-2,2,,,,,,
2,607.0,13,phase_2,purple_pentagon,go,,,,go-2,1,,,,,,
1,401.0,13,phase_2,purple_circle,go,,,,go-2,1,,,,,,
2,501.0,13,phase_2,purple_pentagon,go,,,,go-2,1,,,,,,
1,397.0,13,phase_2,red_circle,go,,,,go-1,1,,,,,,
2,518.0,13,phase_2,red_triangle,go,,,,go-1,1,,,,,,
1,538.0,13,phase_2,purple_rhombus,go,,,,go-2,1,,,,,,
1,481.0,13,phase_2,red_rhombus,go,,,,go-1,1,,,,,,
1,422.0,13,phase_2,red_rhombus,go,,,,go-1,1,,,,,,
2,509.0,13,phase_2,purple_pentagon,go,,,,go-2,1,,,,,,
2,484.0,13,phase_2,purple_triangle,go,,,,go-2,1,,,,,,
2,438.0,13,phase_2,red_pentagon,stop,blue,250.0,tracking-SSD,go-1,3,,,,,,
0,0,13,phase_2,purple_triangle,stop,green,0.0,0-SSD,go-2,4,,,,,,
2,422.0,13,phase_2,purple_triangle,go,,,,go-2,1,,,,,,
0,0,13,phase_2,purple_rhombus,stop,green,0.0,0-SSD,go-2,4,,,,,,
1,439.0,13,phase_2,red_circle,go,,,,go-1,1,,,,,,
0,0,13,phase_2,purple_pentagon,stop,green,0.0,0-SSD,go-2,4,,,,,,
2,366.0,13,phase_2,red_pentagon,go,,,,go-1,1,,,,,,
1,397.0,13,phase_2,red_rhombus,go,,,,go-1,1,,,,,,
0,0,13,phase_2,red_pentagon,stop,blue,200.0,tracking-SSD,go-1,4,,,,,,
0,0,13,phase_2,purple_rhombus,stop,green,0.0,0-SSD,go-2,4,,,,,,
2,501.0,13,phase_2,red_pentagon,go,,,,go-1,1,,,,,,
1,455.0,13,phase_2,red_rhombus,go,,,,go-1,1,,,,,,
1,475.0,13,phase_2,red_rhombus,go,,,,go-1,1,,,,,,
1,483.0,13,phase_2,purple_circle,stop,blue,250.0,tracking-SSD,go-2,3,,,,,,
1,446.0,13,phase_2,red_rhombus,go,,,,go-1,1,,,,,,
1,421.0,13,phase_2,purple_circle,go,,,,go-2,1,,,,,,
2,520.0,13,phase_2,purple_pentagon,stop,blue,200.0,tracking-SSD,go-2,3,,,,,,
0,0,13,phase_2,red_triangle,stop,green,0.0,0-SSD,go-1,4,,,,,,
2,471.0,13,phase_2,purple_triangle,go,,,,go-2,1,,,,,,
1,389.0,13,phase_2,red_circle,go,,,,go-1,1,,,,,,
1,421.0,13,phase_2,red_rhombus,go,,,,go-1,1,,,,,,
0,0,13,phase_2,red_triangle,stop,green,0.0,0-SSD,go-1,4,,,,,,
2,450.0,13,phase_2,purple_triangle,go,,,,go-2,1,,,,,,
1,459.0,13,phase_2,purple_rhombus,go,,,,go-2,1,,,,,,
0,0,13,phase_2,red_circle,stop,green,0.0,0-SSD,go-1,4,,,,,,
1,432.0,13,phase_2,purple_circle,go,,,,go-2,1,,,,,,
0,0,13,phase_2,red_pentagon,stop,blue,150.0,tracking-SSD,go-1,4,,,,,,
0,0,13,phase_2,red_pentagon,stop,green,0.0,0-SSD,go-1,4,,,,,,
2,515.0,13,phase_2,red_triangle,go,,,,go-1,1,,,,,,
1,433.0,13,phase_2,red_circle,go,,,,go-1,1,,,,,,
0,0,13,phase_2,purple_rhombus,stop,blue,200.0,tracking-SSD,go-2,4,,,,,,
2,564.0,13,phase_2,purple_triangle,go,,,,go-2,1,,,,,,
2,448.0,13,phase_2,purple_triangle,go,,,,go-2,1,,,,,,
0,0,13,phase_2,red_pentagon,stop,blue,250.0,tracking-SSD,go-1,4,,,,,,
1,432.0,13,phase_2,purple_circle,stop,blue,300.0,tracking-SSD,go-2,3,,,,,,
1,384.0,13,phase_2,purple_circle,go,,,,go-2,1,,,,,,
1,397.0,14,phase_2,purple_rhombus,go,,,,go-2,1,,,,,,
1,462.0,14,phase_2,red_pentagon,go,,,,go-1,2,,,,,,
1,414.0,14,phase_2,purple_circle,stop,blue,250.0,tracking-SSD,go-2,3,,,,,,
1,458.0,14,phase_2,red_rhombus,go,,,,go-1,1,,,,,,
1,432.0,14,phase_2,purple_rhombus,go,,,,go-2,1,,,,,,
1,418.0,14,phase_2,purple_circle,stop,blue,200.0,tracking-SSD,go-2,3,,,,,,
1,371.0,14,phase_2,purple_circle,go,,,,go-2,1,,,,,,
2,525.0,14,phase_2,purple_triangle,go,,,,go-2,1,,,,,,
1,524.0,14,phase_2,red_circle,go,,,,go-1,1,,,,,,
1,420.0,14,phase_2,red_triangle,go,,,,go-1,2,,,,,,
0,0,14,phase_2,purple_circle,stop,green,0.0,0-SSD,go-2,4,,,,,,
1,449.0,14,phase_2,purple_circle,go,,,,go-2,1,,,,,,
0,0,14,phase_2,purple_triangle,stop,green,0.0,0-SSD,go-2,4,,,,,,
2,364.0,14,phase_2,red_triangle,go,,,,go-1,1,,,,,,
2,373.0,14,phase_2,red_triangle,go,,,,go-1,1,,,,,,
2,439.0,14,phase_2,purple_rhombus,go,,,,go-2,2,,,,,,
0,0,14,phase_2,red_circle,stop,blue,150.0,tracking-SSD,go-1,4,,,,,,
1,469.0,14,phase_2,purple_rhombus,go,,,,go-2,1,,,,,,
1,400.0,14,phase_2,red_rhombus,go,,,,go-1,1,,,,,,
0,0,14,phase_2,red_circle,stop,green,0.0,0-SSD,go-1,4,,,,,,
1,361.0,14,phase_2,red_rhombus,go,,,,go-1,1,,,,,,
1,516.0,14,phase_2,purple_rhombus,stop,blue,200.0,tracking-SSD,go-2,3,,,,,,
0,0,14,phase_2,purple_triangle,stop,green,0.0,0-SSD,go-2,4,,,,,,
1,421.0,14,phase_2,red_rhombus,go,,,,go-1,1,,,,,,
1,395.0,14,phase_2,purple_rhombus,go,,,,go-2,1,,,,,,
0,0,14,phase_2,purple_rhombus,stop,green,0.0,0-SSD,go-2,4,,,,,,
0,0,14,phase_2,red_triangle,stop,green,0.0,0-SSD,go-1,4,,,,,,
2,343.0,14,phase_2,red_triangle,go,,,,go-1,1,,,,,,
2,375.0,14,phase_2,purple_pentagon,go,,,,go-2,1,,,,,,
2,349.0,14,phase_2,red_pentagon,go,,,,go-1,1,,,,,,
2,515.0,14,phase_2,purple_triangle,go,,,,go-2,1,,,,,,
0,0,14,phase_2,red_pentagon,stop,blue,150.0,tracking-SSD,go-1,4,,,,,,
1,374.0,14,phase_2,red_circle,stop,blue,200.0,tracking-SSD,go-1,3,,,,,,
0,0,14,phase_2,purple_pentagon,stop,blue,150.0,tracking-SSD,go-2,4,,,,,,
2,438.0,14,phase_2,purple_triangle,go,,,,go-2,1,,,,,,
1,357.0,14,phase_2,red_circle,go,,,,go-1,1,,,,,,
2,444.0,14,phase_2,purple_pentagon,go,,,,go-2,1,,,,,,
0,0,14,phase_2,red_pentagon,stop,green,0.0,0-SSD,go-1,4,,,,,,
2,450.0,14,phase_2,red_pentagon,go,,,,go-1,1,,,,,,
2,404.0,14,phase_2,red_pentagon,go,,,,go-1,1,,,,,,
1,367.0,14,phase_2,purple_circle,go,,,,go-2,1,,,,,,
1,422.0,14,phase_2,purple_rhombus,go,,,,go-2,1,,,,,,
0,0,14,phase_2,red_pentagon,stop,green,0.0,0-SSD,go-1,4,,,,,,
2,451.0,14,phase_2,purple_pentagon,go,,,,go-2,1,,,,,,
1,347.0,14,phase_2,red_pentagon,go,,,,go-1,2,,,,,,
1,536.0,14,phase_2,red_circle,stop,blue,200.0,tracking-SSD,go-1,3,,,,,,
2,545.0,14,phase_2,red_triangle,go,,,,go-1,1,,,,,,
2,419.0,14,phase_2,purple_triangle,go,,,,go-2,1,,,,,,
0,0,15,phase_2,purple_triangle,stop,blue,150.0,tracking-SSD,go-2,4,,,,,,
0,0,15,phase_2,purple_triangle,stop,green,0.0,0-SSD,go-2,4,,,,,,
2,438.0,15,phase_2,purple_pentagon,go,,,,go-2,1,,,,,,
2,604.0,15,phase_2,red_pentagon,go,,,,go-1,1,,,,,,
2,558.0,15,phase_2,red_triangle,stop,blue,200.0,tracking-SSD,go-1,3,,,,,,
1,600.0,15,phase_2,red_rhombus,go,,,,go-1,1,,,,,,
1,452.0,15,phase_2,purple_circle,go,,,,go-2,1,,,,,,
1,495.0,15,phase_2,red_rhombus,go,,,,go-1,1,,,,,,
1,369.0,15,phase_2,red_rhombus,go,,,,go-1,1,,,,,,
0,0,15,phase_2,purple_pentagon,stop,green,0.0,0-SSD,go-2,4,,,,,,
1,398.0,15,phase_2,purple_rhombus,go,,,,go-2,1,,,,,,
2,463.0,15,phase_2,red_pentagon,go,,,,go-1,1,,,,,,
0,0,15,phase_2,red_circle,stop,green,0.0,0-SSD,go-1,4,,,,,,
0,0,15,phase_2,purple_pentagon,stop,blue,150.0,tracking-SSD,go-2,4,,,,,,
1,387.0,15,phase_2,red_triangle,go,,,,go-1,2,,,,,,
2,486.0,15,phase_2,purple_pentagon,go,,,,go-2,1,,,,,,
2,473.0,15,phase_2,purple_pentagon,go,,,,go-2,1,,,,,,
2,470.0,15,phase_2,purple_pentagon,go,,,,go-2,1,,,,,,
0,0,15,phase_2,purple_triangle,stop,green,0.0,0-SSD,go-2,4,,,,,,
1,431.0,15,phase_2,purple_rhombus,go,,,,go-2,1,,,,,,
1,440.0,15,phase_2,red_circle,go,,,,go-1,1,,,,,,
1,425.0,15,phase_2,red_rhombus,go,,,,go-1,1,,,,,,
2,379.0,15,phase_2,purple_pentagon,stop,blue,200.0,tracking-SSD,go-2,3,,,,,,
0,0,15,phase_2,purple_triangle,stop,green,0.0,0-SSD,go-2,4,,,,,,
0,0,15,phase_2,red_circle,stop,green,0.0,0-SSD,go-1,4,,,,,,
1,405.0,15,phase_2,red_circle,go,,,,go-1,1,,,,,,
1,368.0,15,phase_2,purple_circle,go,,,,go-2,1,,,,,,
2,522.0,15,phase_2,purple_triangle,go,,,,go-2,1,,,,,,
2,520.0,15,phase_2,purple_pentagon,go,,,,go-2,1,,,,,,
1,484.0,15,phase_2,red_rhombus,go,,,,go-1,1,,,,,,
1,336.0,15,phase_2,red_circle,go,,,,go-1,1,,,,,,
1,344.0,15,phase_2,red_circle,go,,,,go-1,1,,,,,,
0,0,15,phase_2,red_pentagon,stop,blue,150.0,tracking-SSD,go-1,4,,,,,,
1,395.0,15,phase_2,purple_circle,stop,blue,200.0,tracking-SSD,go-2,3,,,,,,
2,461.0,15,phase_2,red_rhombus,go,,,,go-1,2,,,,,,
0,0,15,phase_2,red_rhombus,stop,green,0.0,0-SSD,go-1,4,,,,,,
1,444.0,15,phase_2,red_rhombus,go,,,,go-1,1,,,,,,
1,441.0,15,phase_2,purple_circle,go,,,,go-2,1,,,,,,
1,382.0,15,phase_2,purple_rhombus,go,,,,go-2,1,,,,,,
1,368.0,15,phase_2,purple_circle,go,,,,go-2,1,,,,,,
2,400.0,15,phase_2,red_triangle,stop,blue,150.0,tracking-SSD,go-1,3,,,,,,
0,0,15,phase_2,red_triangle,stop,green,0.0,0-SSD,go-1,4,,,,,,
2,395.0,15,phase_2,purple_rhombus,go,,,,go-2,2,,,,,,
1,370.0,15,phase_2,purple_circle,go,,,,go-2,1,,,,,,
2,389.0,15,phase_2,red_triangle,go,,,,go-1,1,,,,,,
2,387.0,15,phase_2,red_triangle,go,,,,go-1,1,,,,,,
2,385.0,15,phase_2,purple_triangle,go,,,,go-2,1,,,,,,
0,0,15,phase_2,red_pentagon,stop,blue,100.0,tracking-SSD,go-1,4,,,,,,
0,0,16,phase_2,red_circle,stop,green,0.0,0-SSD,go-1,4,,,,,,
1,372.0,16,phase_2,red_pentagon,go,,,,go-1,2,,,,,,
2,424.0,16,phase_2,purple_triangle,go,,,,go-2,1,,,,,,
1,399.0,16,phase_2,purple_circle,go,,,,go-2,1,,,,,,
1,408.0,16,phase_2,red_circle,go,,,,go-1,1,,,,,,
2,383.0,16,phase_2,red_pentagon,go,,,,go-1,1,,,,,,
1,357.0,16,phase_2,purple_circle,go,,,,go-2,1,,,,,,
0,0,16,phase_2,purple_triangle,stop,green,0.0,0-SSD,go-2,4,,,,,,
1,387.0,16,phase_2,red_triangle,go,,,,go-1,2,,,,,,
2,407.0,16,phase_2,red_triangle,go,,,,go-1,1,,,,,,
1,359.0,16,phase_2,red_circle,go,,,,go-1,1,,,,,,
2,356.0,16,phase_2,red_triangle,stop,blue,150.0,tracking-SSD,go-1,3,,,,,,
1,432.0,16,phase_2,purple_rhombus,go,,,,go-2,1,,,,,,
0,0,16,phase_2,purple_triangle,stop,green,0.0,0-SSD,go-2,4,,,,,,
0,0,16,phase_2,red_circle,stop,blue,100.0,tracking-SSD,go-1,4,,,,,,
0,0,16,phase_2,red_pentagon,stop,green,0.0,0-SSD,go-1,4,,,,,,
1,400.0,16,phase_2,purple_rhombus,go,,,,go-2,1,,,,,,
0,0,16,phase_2,red_pentagon,stop,blue,150.0,tracking-SSD,go-1,4,,,,,,
0,0,16,phase_2,red_pentagon,stop,green,0.0,0-SSD,go-1,4,,,,,,
1,450.0,16,phase_2,purple_rhombus,go,,,,go-2,1,,,,,,
0,0,16,phase_2,purple_pentagon,stop,blue,200.0,tracking-SSD,go-2,4,,,,,,
1,456.0,16,phase_2,purple_pentagon,go,,,,go-2,2,,,,,,
2,453.0,16,phase_2,red_pentagon,go,,,,go-1,1,,,,,,
2,485.0,16,phase_2,purple_pentagon,go,,,,go-2,1,,,,,,
1,414.0,16,phase_2,purple_circle,stop,blue,250.0,tracking-SSD,go-2,3,,,,,,
0,0,16,phase_2,red_circle,stop,green,0.0,0-SSD,go-1,4,,,,,,
2,477.0,16,phase_2,red_triangle,go,,,,go-1,1,,,,,,
1,373.0,16,phase_2,red_rhombus,go,,,,go-1,1,,,,,,
1,495.0,16,phase_2,purple_circle,go,,,,go-2,1,,,,,,
2,447.0,16,phase_2,purple_pentagon,go,,,,go-2,1,,,,,,
0,0,16,phase_2,purple_pentagon,stop,green,0.0,0-SSD,go-2,4,,,,,,
0,0,16,phase_2,purple_circle,stop,green,0.0,0-SSD,go-2,4,,,,,,
1,374.0,16,phase_2,purple_circle,go,,,,go-2,1,,,,,,
2,382.0,16,phase_2,red_triangle,go,,,,go-1,1,,,,,,
2,402.0,16,phase_2,purple_triangle,go,,,,go-2,1,,,,,,
1,468.0,16,phase_2,red_rhombus,go,,,,go-1,1,,,,,,
1,476.0,16,phase_2,purple_rhombus,go,,,,go-2,1,,,,,,
2,429.0,16,phase_2,purple_pentagon,go,,,,go-2,1,,,,,,
1,583.0,16,phase_2,red_rhombus,go,,,,go-1,1,,,,,,
2,435.0,16,phase_2,red_rhombus,go,,,,go-1,2,,,,,,
1,376.0,16,phase_2,purple_rhombus,stop,blue,200.0,tracking-SSD,go-2,3,,,,,,
2,464.0,16,phase_2,purple_triangle,go,,,,go-2,1,,,,,,
0,0,16,phase_2,red_triangle,stop,blue,150.0,tracking-SSD,go-1,4,,,,,,
1,413.0,16,phase_2,purple_circle,stop,blue,200.0,tracking-SSD,go-2,3,,,,,,
1,388.0,16,phase_2,red_rhombus,go,,,,go-1,1,,,,,,
1,442.0,16,phase_2,purple_rhombus,go,,,,go-2,1,,,,,,
2,518.0,16,phase_2,red_triangle,go,,,,go-1,1,,,,,,
1,425.0,16,phase_2,red_rhombus,go,,,,go-1,1,,,,,,
0,0,17,phase_2,purple_rhombus,stop,blue,150.0,tracking-SSD,go-2,4,,,,,,
1,427.0,17,phase_2,purple_circle,go,,,,go-2,1,,,,,,
1,391.0,17,phase_2,red_pentagon,go,,,,go-1,2,,,,,,
2,545.0,17,phase_2,purple_triangle,stop,blue,200.0,tracking-SSD,go-2,3,,,,,,
1,623.0,17,phase_2,red_rhombus,go,,,,go-1,1,,,,,,
1,417.0,17,phase_2,purple_circle,go,,,,go-2,1,,,,,,
2,516.0,17,phase_2,red_triangle,go,,,,go-1,1,,,,,,
1,402.0,17,phase_2,purple_pentagon,go,,,,go-2,2,,,,,,
0,0,17,phase_2,red_circle,stop,green,0.0,0-SSD,go-1,4,,,,,,
0,0,17,phase_2,purple_triangle,stop,blue,150.0,tracking-SSD,go-2,4,,,,,,
1,540.0,17,phase_2,red_rhombus,go,,,,go-1,1,,,,,,
1,424.0,17,phase_2,red_rhombus,go,,,,go-1,1,,,,,,
2,388.0,17,phase_2,purple_pentagon,go,,,,go-2,1,,,,,,
1,498.0,17,phase_2,purple_circle,go,,,,go-2,1,,,,,,
2,407.0,17,phase_2,red_pentagon,go,,,,go-1,1,,,,,,
1,416.0,17,phase_2,red_rhombus,go,,,,go-1,1,,,,,,
2,491.0,17,phase_2,red_triangle,go,,,,go-1,1,,,,,,
0,0,17,phase_2,red_rhombus,stop,blue,200.0,tracking-SSD,go-1,4,,,,,,
1,451.0,17,phase_2,red_circle,go,,,,go-1,1,,,,,,
2,585.0,17,phase_2,purple_pentagon,go,,,,go-2,1,,,,,,
0,0,17,phase_2,red_pentagon,stop,green,0.0,0-SSD,go-1,4,,,,,,
1,457.0,17,phase_2,red_rhombus,go,,,,go-1,1,,,,,,
2,410.0,17,phase_2,red_triangle,go,,,,go-1,1,,,,,,
1,430.0,17,phase_2,red_rhombus,stop,blue,250.0,tracking-SSD,go-1,3,,,,,,
2,429.0,17,phase_2,purple_pentagon,go,,,,go-2,1,,,,,,
0,0,17,phase_2,purple_triangle,stop,green,0.0,0-SSD,go-2,4,,,,,,
0,0,17,phase_2,red_pentagon,stop,green,0.0,0-SSD,go-1,4,,,,,,
1,346.0,17,phase_2,red_pentagon,stop,blue,200.0,tracking-SSD,go-1,3,,,,,,
0,0,17,phase_2,purple_triangle,stop,green,0.0,0-SSD,go-2,4,,,,,,
0,0,17,phase_2,purple_triangle,stop,green,0.0,0-SSD,go-2,4,,,,,,
2,554.0,17,phase_2,purple_pentagon,go,,,,go-2,1,,,,,,
1,395.0,17,phase_2,red_circle,go,,,,go-1,1,,,,,,
2,484.0,17,phase_2,red_pentagon,go,,,,go-1,1,,,,,,
1,358.0,17,phase_2,purple_circle,go,,,,go-2,1,,,,,,
1,411.0,17,phase_2,purple_rhombus,go,,,,go-2,1,,,,,,
0,0,17,phase_2,red_circle,stop,green,0.0,0-SSD,go-1,4,,,,,,
0,0,17,phase_2,purple_triangle,stop,green,0.0,0-SSD,go-2,4,,,,,,
2,632.0,17,phase_2,purple_triangle,go,,,,go-2,1,,,,,,
1,427.0,17,phase_2,purple_circle,stop,blue,150.0,tracking-SSD,go-2,3,,,,,,
1,402.0,17,phase_2,red_rhombus,go,,,,go-1,1,,,,,,
1,458.0,17,phase_2,red_circle,go,,,,go-1,1,,,,,,
1,434.0,17,phase_2,red_rhombus,go,,,,go-1,1,,,,,,
0,0,17,phase_2,red_circle,stop,blue,100.0,tracking-SSD,go-1,4,,,,,,
2,533.0,17,phase_2,purple_triangle,go,,,,go-2,1,,,,,,
2,452.0,17,phase_2,purple_triangle,go,,,,go-2,1,,,,,,
1,383.0,17,phase_2,purple_circle,go,,,,go-2,1,,,,,,
1,414.0,17,phase_2,purple_rhombus,go,,,,go-2,1,,,,,,
2,559.0,17,phase_2,purple_pentagon,go,,,,go-2,1,,,,,,
,600.0,1,phase_3,,,,,,,,green_square,0-SSD,red_square,go-1,green_square,0-SSD
,662.0,1,phase_3,,,,,,,,green_square,0-SSD,green_square,0-SSD,blue_square,tracking-SSD
,635.0,1,phase_3,,,,,,,,blue_square,tracking-SSD,red_square,go-1,blue_square,tracking-SSD
,901.0,1,phase_3,,,,,,,,green_square,0-SSD,purple_square,go-2,green_square,0-SSD
,919.0,1,phase_3,,,,,,,,purple_square,go-2,red_square,go-1,purple_square,go-2
,621.0,1,phase_3,,,,,,,,blue_square,tracking-SSD,purple_square,go-2,blue_square,tracking-SSD
,493.0,1,phase_3,,,,,,,,blue_square,tracking-SSD,blue_square,tracking-SSD,green_square,0-SSD
,679.0,1,phase_3,,,,,,,,purple_square,go-2,purple_square,go-2,red_square,go-1
,1126.0,1,phase_3,,,,,,,,blue_square,tracking-SSD,blue_square,tracking-SSD,purple_square,go-2
,536.0,1,phase_3,,,,,,,,green_square,0-SSD,green_square,0-SSD,red_square,go-1
,453.0,1,phase_3,,,,,,,,green_square,0-SSD,green_square,0-SSD,purple_square,go-2
,571.0,1,phase_3,,,,,,,,blue_square,tracking-SSD,blue_square,tracking-SSD,red_square,go-1
,578.0,2,phase_3,,,,,,,,purple_square,go-2,red_square,go-1,purple_square,go-2
,517.0,2,phase_3,,,,,,,,green_square,0-SSD,green_square,0-SSD,blue_square,tracking-SSD
,412.0,2,phase_3,,,,,,,,green_square,0-SSD,red_square,go-1,green_square,0-SSD
,476.0,2,phase_3,,,,,,,,blue_square,tracking-SSD,red_square,go-1,blue_square,tracking-SSD
,730.0,2,phase_3,,,,,,,,green_square,0-SSD,purple_square,go-2,green_square,0-SSD
,557.0,2,phase_3,,,,,,,,blue_square,tracking-SSD,purple_square,go-2,blue_square,tracking-SSD
,518.0,2,phase_3,,,,,,,,blue_square,tracking-SSD,blue_square,tracking-SSD,red_square,go-1
,705.0,2,phase_3,,,,,,,,purple_square,go-2,green_square,0-SSD,purple_square,go-2
,464.0,2,phase_3,,,,,,,,green_square,0-SSD,green_square,0-SSD,red_square,go-1
,438.0,2,phase_3,,,,,,,,green_square,0-SSD,blue_square,tracking-SSD,green_square,0-SSD
,647.0,2,phase_3,,,,,,,,purple_square,go-2,blue_square,tracking-SSD,purple_square,go-2
,418.0,2,phase_3,,,,,,,,purple_square,go-2,purple_square,go-2,red_square,go-1
,545.0,3,phase_3,,,,,,,,purple_square,go-2,red_square,go-1,purple_square,go-2
,686.0,3,phase_3,,,,,,,,blue_square,tracking-SSD,red_square,go-1,blue_square,tracking-SSD
,648.0,3,phase_3,,,,,,,,green_square,0-SSD,purple_square,go-2,green_square,0-SSD
,543.0,3,phase_3,,,,,,,,purple_square,go-2,purple_square,go-2,blue_square,tracking-SSD
,864.0,3,phase_3,,,,,,,,green_square,0-SSD,green_square,0-SSD,blue_square,tracking-SSD
,478.0,3,phase_3,,,,,,,,green_square,0-SSD,red_square,go-1,green_square,0-SSD
,395.0,3,phase_3,,,,,,,,blue_square,tracking-SSD,blue_square,tracking-SSD,red_square,go-1
,390.0,3,phase_3,,,,,,,,blue_square,tracking-SSD,blue_square,tracking-SSD,purple_square,go-2
,543.0,3,phase_3,,,,,,,,green_square,0-SSD,blue_square,tracking-SSD,green_square,0-SSD
,348.0,3,phase_3,,,,,,,,green_square,0-SSD,green_square,0-SSD,purple_square,go-2
,365.0,3,phase_3,,,,,,,,green_square,0-SSD,green_square,0-SSD,red_square,go-1
,519.0,3,phase_3,,,,,,,,red_square,go-1,purple_square,go-2,red_square,go-1
,640.0,4,phase_3,,,,,,,,purple_square,go-2,red_square,go-1,purple_square,go-2
,456.0,4,phase_3,,,,,,,,green_square,0-SSD,green_square,0-SSD,blue_square,tracking-SSD
,474.0,4,phase_3,,,,,,,,blue_square,tracking-SSD,purple_square,go-2,blue_square,tracking-SSD
,539.0,4,phase_3,,,,,,,,blue_square,tracking-SSD,red_square,go-1,blue_square,tracking-SSD
,781.0,4,phase_3,,,,,,,,purple_square,go-2,purple_square,go-2,green_square,0-SSD
,585.0,4,phase_3,,,,,,,,green_square,0-SSD,red_square,go-1,green_square,0-SSD
,873.0,4,phase_3,,,,,,,,purple_square,go-2,purple_square,go-2,red_square,go-1
,464.0,4,phase_3,,,,,,,,red_square,go-1,blue_square,tracking-SSD,red_square,go-1
,594.0,4,phase_3,,,,,,,,green_square,0-SSD,green_square,0-SSD,purple_square,go-2
,556.0,4,phase_3,,,,,,,,blue_square,tracking-SSD,blue_square,tracking-SSD,green_square,0-SSD
,473.0,4,phase_3,,,,,,,,green_square,0-SSD,green_square,0-SSD,red_square,go-1
,851.0,4,phase_3,,,,,,,,purple_square,go-2,blue_square,tracking-SSD,purple_square,go-2
,881.0,5,phase_3,,,,,,,,purple_square,go-2,purple_square,go-2,blue_square,tracking-SSD
,943.0,5,phase_3,,,,,,,,green_square,0-SSD,green_square,0-SSD,blue_square,tracking-SSD
,478.0,5,phase_3,,,,,,,,blue_square,tracking-SSD,red_square,go-1,blue_square,tracking-SSD
,529.0,5,phase_3,,,,,,,,purple_square,go-2,purple_square,go-2,green_square,0-SSD
,535.0,5,phase_3,,,,,,,,green_square,0-SSD,red_square,go-1,green_square,0-SSD
,688.0,5,phase_3,,,,,,,,purple_square,go-2,red_square,go-1,purple_square,go-2
,594.0,5,phase_3,,,,,,,,green_square,0-SSD,green_square,0-SSD,purple_square,go-2
,567.0,5,phase_3,,,,,,,,green_square,0-SSD,green_square,0-SSD,red_square,go-1
,518.0,5,phase_3,,,,,,,,red_square,go-1,blue_square,tracking-SSD,red_square,go-1
,728.0,5,phase_3,,,,,,,,purple_square,go-2,purple_square,go-2,red_square,go-1
,1139.0,5,phase_3,,,,,,,,blue_square,tracking-SSD,blue_square,tracking-SSD,green_square,0-SSD
,594.0,5,phase_3,,,,,,,,blue_square,tracking-SSD,blue_square,tracking-SSD,purple_square,go-2
