response,reaction_time,block,which_phase,stim,stop_signal_trial_type,stop_signal_stimulus,SSD,SSD_type,condition,accuracy,chosen_stim,chosen_cond,stim_left,cond_left,stim_right,cond_right
0,0,1,phase_2,red_rhombus,stop,purple,250.0,tracking-SSD,go-1,4,,,,,,
2,463.0,1,phase_2,green_circle,go,,,,go-2,1,,,,,,
2,427.0,1,phase_2,red_circle,go,,,,go-1,1,,,,,,
2,639.0,1,phase_2,red_rhombus,go,,,,go-1,1,,,,,,
2,502.0,1,phase_2,green_pentagon,stop,purple,300.0,tracking-SSD,go-2,3,,,,,,
1,905.0,1,phase_2,red_pentagon,go,,,,go-1,1,,,,,,
2,521.0,1,phase_2,green_rhombus,go,,,,go-2,1,,,,,,
1,552.0,1,phase_2,green_pentagon,go,,,,go-2,1,,,,,,
0,0,1,phase_2,red_pentagon,stop,blue,0.0,0-SSD,go-1,4,,,,,,
1,638.0,1,phase_2,green_triangle,stop,purple,250.0,tracking-SSD,go-2,3,,,,,,
1,556.0,1,phase_2,red_triangle,go,,,,go-1,1,,,,,,
0,0,1,phase_2,red_triangle,stop,purple,200.0,tracking-SSD,go-1,4,,,,,,
1,506.0,1,phase_2,red_triangle,go,,,,go-1,1,,,,,,
0,0,1,phase_2,green_pentagon,stop,blue,0.0,0-SSD,go-2,4,,,,,,
1,513.0,1,phase_2,green_triangle,stop,purple,250.0,tracking-SSD,go-2,3,,,,,,
2,724.0,1,phase_2,green_rhombus,go,,,,go-2,1,,,,,,
2,519.0,1,phase_2,red_rhombus,go,,,,go-1,1,,,,,,
1,573.0,1,phase_2,green_pentagon,go,,,,go-2,1,,,,,,
1,582.0,1,phase_2,green_triangle,go,,,,go-2,1,,,,,,
2,523.0,1,phase_2,red_circle,go,,,,go-1,1,,,,,,
2,610.0,1,phase_2,red_circle,go,,,,go-1,1,,,,,,
0,0,1,phase_2,red_circle,stop,blue,0.0,0-SSD,go-1,4,,,,,,
0,0,1,phase_2,red_triangle,stop,purple,200.0,tracking-SSD,go-1,4,,,,,,
2,479.0,1,phase_2,green_rhombus,go,,,,go-2,1,,,,,,
2,478.0,1,phase_2,red_circle,go,,,,go-1,1,,,,,,
0,0,1,phase_2,red_triangle,stop,purple,250.0,tracking-SSD,go-1,4,,,,,,
0,0,1,phase_2,red_rhombus,stop,blue,0.0,0-SSD,go-1,4,,,,,,
1,549.0,1,phase_2,green_pentagon,go,,,,go-2,1,,,,,,
2,536.0,1,phase_2,green_circle,go,,,,go-2,1,,,,,,
2,589.0,1,phase_2,red_rhombus,go,,,,go-1,1,,,,,,
0,0,1,phase_2,red_triangle,stop,blue,0.0,0-SSD,go-1,4,,,,,,
2,484.0,1,phase_2,green_rhombus,go,,,,go-2,1,,,,,,
2,515.0,1,phase_2,green_circle,go,,,,go-2,1,,,,,,
2,592.0,1,phase_2,green_rhombus,go,,,,go-2,1,,,,,,
2,500.0,1,phase_2,green_circle,go,,,,go-2,1,,,,,,
1,633.0,1,phase_2,red_pentagon,go,,,,go-1,1,,,,,,
1,598.0,1,phase_2,red_pentagon,go,,,,go-1,1,,,,,,
2,551.0,1,phase_2,red_circle,go,,,,go-1,1,,,,,,
1,673.0,1,phase_2,red_pentagon,go,,,,go-1,1,,,,,,
0,0,1,phase_2,green_triangle,stop,blue,0.0,0-SSD,go-2,4,,,,,,
0,0,1,phase_2,green_circle,stop,blue,0.0,0-SSD,go-2,4,,,,,,
1,475.0,1,phase_2,green_triangle,go,,,,go-2,1,,,,,,
1,596.0,1,phase_2,red_pentagon,go,,,,go-1,1,,,,,,
2,504.0,1,phase_2,green_circle,go,,,,go-2,1,,,,,,
2,558.0,1,phase_2,red_rhombus,go,,,,go-1,1,,,,,,
0,0,1,phase_2,green_pentagon,stop,blue,0.0,0-SSD,go-2,4,,,,,,
0,0,1,phase_2,green_triangle,stop,purple,300.0,tracking-SSD,go-2,4,,,,,,
2,494.0,1,phase_2,green_rhombus,go,,,,go-2,1,,,,,,
1,667.0,2,phase_2,red_pentagon,go,,,,go-1,1,,,,,,
0,0,2,phase_2,green_rhombus,stop,blue,0.0,0-SSD,go-2,4,,,,,,
2,562.0,2,phase_2,green_rhombus,go,,,,go-2,1,,,,,,
0,0,2,phase_2,green_circle,stop,blue,0.0,0-SSD,go-2,4,,,,,,
1,580.0,2,phase_2,green_pentagon,go,,,,go-2,1,,,,,,
0,0,2,phase_2,red_triangle,stop,purple,350.0,tracking-SSD,go-1,4,,,,,,
0,0,2,phase_2,green_rhombus,stop,blue,0.0,0-SSD,go-2,4,,,,,,
1,573.0,2,phase_2,green_triangle,stop,purple,400.0,tracking-SSD,go-2,3,,,,,,
0,0,2,phase_2,green_pentagon,stop,purple,350.0,tracking-SSD,go-2,4,,,,,,
2,624.0,2,phase_2,red_rhombus,go,,,,go-1,1,,,,,,
2,476.0,2,phase_2,green_rhombus,go,,,,go-2,1,,,,,,
1,643.0,2,phase_2,red_pentagon,go,,,,go-1,1,,,,,,
1,606.0,2,phase_2,green_pentagon,go,,,,go-2,1,,,,,,
0,0,2,phase_2,red_circle,stop,blue,0.0,0-SSD,go-1,4,,,,,,
1,501.0,2,phase_2,green_triangle,go,,,,go-2,1,,,,,,
2,464.0,2,phase_2,green_circle,go,,,,go-2,1,,,,,,
2,508.0,2,phase_2,red_circle,go,,,,go-1,1,,,,,,
0,0,2,phase_2,red_circle,stop,blue,0.0,0-SSD,go-1,4,,,,,,
2,492.0,2,phase_2,red_circle,stop,purple,400.0,tracking-SSD,go-1,3,,,,,,
2,569.0,2,phase_2,green_rhombus,stop,purple,350.0,tracking-SSD,go-2,3,,,,,,
1,568.0,2,phase_2,red_triangle,go,,,,go-1,1,,,,,,
2,542.0,2,phase_2,red_rhombus,go,,,,go-1,1,,,,,,
2,518.0,2,phase_2,green_circle,go,,,,go-2,1,,,,,,
2,673.0,2,phase_2,green_rhombus,go,,,,go-2,1,,,,,,
0,0,2,phase_2,red_triangle,stop,purple,300.0,tracking-SSD,go-1,4,,,,,,
1,702.0,2,phase_2,red_pentagon,go,,,,go-1,1,,,,,,
0,0,2,phase_2,red_triangle,stop,blue,0.0,0-SSD,go-1,4,,,,,,
2,586.0,2,phase_2,red_rhombus,go,,,,go-1,1,,,,,,
1,561.0,2,phase_2,red_triangle,go,,,,go-1,1,,,,,,
2,536.0,2,phase_2,red_circle,go,,,,go-1,1,,,,,,
1,613.0,2,phase_2,red_pentagon,go,,,,go-1,1,,,,,,
1,678.0,2,phase_2,green_pentagon,go,,,,go-2,1,,,,,,
2,664.0,2,phase_2,red_circle,go,,,,go-1,1,,,,,,
0,0,2,phase_2,red_rhombus,stop,purple,350.0,tracking-SSD,go-1,4,,,,,,
1,614.0,2,phase_2,green_triangle,go,,,,go-2,1,,,,,,
1,645.0,2,phase_2,red_pentagon,go,,,,go-1,1,,,,,,
1,732.0,2,phase_2,red_triangle,go,,,,go-1,1,,,,,,
2,482.0,2,phase_2,green_rhombus,stop,purple,400.0,tracking-SSD,go-2,3,,,,,,
1,660.0,2,phase_2,green_triangle,go,,,,go-2,1,,,,,,
1,535.0,2,phase_2,green_pentagon,go,,,,go-2,1,,,,,,
1,591.0,2,phase_2,green_pentagon,go,,,,go-2,1,,,,,,
0,0,2,phase_2,red_circle,stop,blue,0.0,0-SSD,go-1,4,,,,,,
2,506.0,2,phase_2,green_circle,go,,,,go-2,1,,,,,,
1,639.0,2,phase_2,red_pentagon,go,,,,go-1,1,,,,,,
1,681.0,2,phase_2,green_triangle,go,,,,go-2,1,,,,,,
1,679.0,2,phase_2,red_triangle,go,,,,go-1,1,,,,,,
0,0,2,phase_2,green_rhombus,stop,blue,0.0,0-SSD,go-2,4,,,,,,
2,528.0,2,phase_2,green_circle,go,,,,go-2,1,,,,,,
0,0,3,phase_2,red_triangle,stop,blue,0.0,0-SSD,go-1,4,,,,,,
2,576.0,3,phase_2,red_rhombus,go,,,,go-1,1,,,,,,
2,551.0,3,phase_2,red_circle,go,,,,go-1,1,,,,,,
2,458.0,3,phase_2,red_rhombus,go,,,,go-1,1,,,,,,
1,479.0,3,phase_2,green_triangle,go,,,,go-2,1,,,,,,
1,544.0,3,phase_2,red_triangle,go,,,,go-1,1,,,,,,
1,620.0,3,phase_2,green_pentagon,go,,,,go-2,1,,,,,,
2,495.0,3,phase_2,red_circle,stop,purple,350.0,tracking-SSD,go-1,3,,,,,,
0,0,3,phase_2,green_pentagon,stop,blue,0.0,0-SSD,go-2,4,,,,,,
1,581.0,3,phase_2,green_triangle,go,,,,go-2,1,,,,,,
0,0,3,phase_2,red_rhombus,stop,purple,300.0,tracking-SSD,go-1,4,,,,,,
0,0,3,phase_2,green_triangle,stop,blue,0.0,0-SSD,go-2,4,,,,,,
0,0,3,phase_2,red_circle,stop,blue,0.0,0-SSD,go-1,4,,,,,,
2,537.0,3,phase_2,green_circle,stop,purple,350.0,tracking-SSD,go-2,3,,,,,,
1,638.0,3,phase_2,red_triangle,go,,,,go-1,1,,,,,,
2,669.0,3,phase_2,red_circle,go,,,,go-1,1,,,,,,
2,554.0,3,phase_2,red_rhombus,go,,,,go-1,1,,,,,,
0,0,3,phase_2,green_circle,stop,blue,0.0,0-SSD,go-2,4,,,,,,
0,0,3,phase_2,green_pentagon,stop,purple,300.0,tracking-SSD,go-2,4,,,,,,
0,0,3,phase_2,green_rhombus,stop,blue,0.0,0-SSD,go-2,4,,,,,,
2,514.0,3,phase_2,green_circle,stop,purple,350.0,tracking-SSD,go-2,3,,,,,,
1,691.0,3,phase_2,green_triangle,go,,,,go-2,1,,,,,,
1,676.0,3,phase_2,red_pentagon,go,,,,go-1,1,,,,,,
1,719.0,3,phase_2,red_pentagon,go,,,,go-1,1,,,,,,
2,706.0,3,phase_2,green_rhombus,go,,,,go-2,1,,,,,,
2,591.0,3,phase_2,green_circle,go,,,,go-2,1,,,,,,
1,689.0,3,phase_2,green_triangle,go,,,,go-2,1,,,,,,
0,0,3,phase_2,green_pentagon,stop,purple,300.0,tracking-SSD,go-2,4,,,,,,
0,0,3,phase_2,red_circle,stop,purple,350.0,tracking-SSD,go-1,4,,,,,,
0,0,3,phase_2,red_rhombus,stop,blue,0.0,0-SSD,go-1,4,,,,,,
1,692.0,3,phase_2,red_pentagon,go,,,,go-1,1,,,,,,
1,644.0,3,phase_2,green_pentagon,go,,,,go-2,1,,,,,,
1,699.0,3,phase_2,red_pentagon,go,,,,go-1,1,,,,,,
1,674.0,3,phase_2,green_pentagon,go,,,,go-2,1,,,,,,
2,695.0,3,phase_2,green_rhombus,go,,,,go-2,1,,,,,,
2,771.0,3,phase_2,red_pentagon,go,,,,go-1,2,,,,,,
2,678.0,3,phase_2,green_circle,go,,,,go-2,1,,,,,,
2,914.0,3,phase_2,red_rhombus,go,,,,go-1,1,,,,,,
2,563.0,3,phase_2,red_circle,go,,,,go-1,1,,,,,,
2,504.0,3,phase_2,green_rhombus,go,,,,go-2,1,,,,,,
1,503.0,3,phase_2,red_triangle,go,,,,go-1,1,,,,,,
1,443.0,3,phase_2,red_triangle,go,,,,go-1,1,,,,,,
1,396.0,3,phase_2,green_triangle,go,,,,go-2,1,,,,,,
1,607.0,3,phase_2,green_pentagon,go,,,,go-2,1,,,,,,
2,570.0,3,phase_2,green_rhombus,go,,,,go-2,1,,,,,,
2,513.0,3,phase_2,red_circle,stop,purple,400.0,tracking-SSD,go-1,3,,,,,,
2,590.0,3,phase_2,green_rhombus,go,,,,go-2,1,,,,,,
0,0,3,phase_2,red_triangle,stop,blue,0.0,0-SSD,go-1,4,,,,,,
1,624.0,4,phase_2,red_triangle,go,,,,go-1,1,,,,,,
1,565.0,4,phase_2,green_pentagon,go,,,,go-2,1,,,,,,
1,686.0,4,phase_2,green_triangle,go,,,,go-2,1,,,,,,
0,0,4,phase_2,green_pentagon,stop,blue,0.0,0-SSD,go-2,4,,,,,,
2,650.0,4,phase_2,red_rhombus,go,,,,go-1,1,,,,,,
2,534.0,4,phase_2,red_circle,go,,,,go-1,1,,,,,,
0,0,4,phase_2,red_triangle,stop,blue,0.0,0-SSD,go-1,4,,,,,,
0,0,4,phase_2,green_circle,stop,blue,0.0,0-SSD,go-2,4,,,,,,
1,955.0,4,phase_2,green_pentagon,go,,,,go-2,1,,,,,,
2,492.0,4,phase_2,green_circle,stop,purple,350.0,tracking-SSD,go-2,3,,,,,,
0,0,4,phase_2,green_circle,stop,purple,300.0,tracking-SSD,go-2,4,,,,,,
0,0,4,phase_2,green_circle,stop,purple,350.0,tracking-SSD,go-2,4,,,,,,
1,641.0,4,phase_2,green_triangle,go,,,,go-2,1,,,,,,
1,673.0,4,phase_2,red_triangle,go,,,,go-1,1,,,,,,
2,638.0,4,phase_2,red_rhombus,go,,,,go-1,1,,,,,,
0,0,4,phase_2,red_rhombus,stop,blue,0.0,0-SSD,go-1,4,,,,,,
1,622.0,4,phase_2,green_pentagon,go,,,,go-2,1,,,,,,
2,587.0,4,phase_2,red_circle,go,,,,go-1,1,,,,,,
2,687.0,4,phase_2,red_circle,go,,,,go-1,1,,,,,,
2,651.0,4,phase_2,green_rhombus,go,,,,go-2,1,,,,,,
0,0,4,phase_2,red_pentagon,stop,purple,400.0,tracking-SSD,go-1,4,,,,,,
2,680.0,4,phase_2,red_rhombus,go,,,,go-1,1,,,,,,
2,757.0,4,phase_2,red_rhombus,go,,,,go-1,1,,,,,,
2,654.0,4,phase_2,red_rhombus,go,,,,go-1,1,,,,,,
2,719.0,4,phase_2,red_circle,go,,,,go-1,1,,,,,,
2,581.0,4,phase_2,red_rhombus,stop,purple,450.0,tracking-SSD,go-1,3,,,,,,
2,747.0,4,phase_2,green_rhombus,go,,,,go-2,1,,,,,,
1,509.0,4,phase_2,green_triangle,go,,,,go-2,1,,,,,,
2,586.0,4,phase_2,green_circle,go,,,,go-2,1,,,,,,
0,0,4,phase_2,green_circle,stop,blue,0.0,0-SSD,go-2,4,,,,,,
2,593.0,4,phase_2,green_circle,go,,,,go-2,1,,,,,,
1,602.0,4,phase_2,red_pentagon,go,,,,go-1,1,,,,,,
0,0,4,phase_2,green_triangle,stop,blue,0.0,0-SSD,go-2,4,,,,,,
0,0,4,phase_2,red_rhombus,stop,purple,400.0,tracking-SSD,go-1,4,,,,,,
0,0,4,phase_2,red_triangle,stop,blue,0.0,0-SSD,go-1,4,,,,,,
1,538.0,4,phase_2,red_triangle,go,,,,go-1,1,,,,,,
1,761.0,4,phase_2,green_pentagon,go,,,,go-2,1,,,,,,
1,533.0,4,phase_2,red_triangle,go,,,,go-1,1,,,,,,
0,0,4,phase_2,red_pentagon,stop,purple,450.0,tracking-SSD,go-1,4,,,,,,
2,595.0,4,phase_2,green_circle,go,,,,go-2,1,,,,,,
2,753.0,4,phase_2,green_rhombus,go,,,,go-2,1,,,,,,
1,615.0,4,phase_2,green_triangle,go,,,,go-2,1,,,,,,
1,635.0,4,phase_2,green_pentagon,go,,,,go-2,1,,,,,,
2,622.0,4,phase_2,red_rhombus,go,,,,go-1,1,,,,,,
1,597.0,4,phase_2,green_pentagon,stop,purple,500.0,tracking-SSD,go-2,3,,,,,,
1,663.0,4,phase_2,red_pentagon,go,,,,go-1,1,,,,,,
1,581.0,4,phase_2,green_triangle,go,,,,go-2,1,,,,,,
0,0,4,phase_2,red_pentagon,stop,blue,0.0,0-SSD,go-1,4,,,,,,
1,477.0,5,phase_2,green_triangle,go,,,,go-2,1,,,,,,
0,0,5,phase_2,red_circle,stop,blue,0.0,0-SSD,go-1,4,,,,,,
1,618.0,5,phase_2,red_triangle,stop,purple,450.0,tracking-SSD,go-1,3,,,,,,
1,649.0,5,phase_2,red_pentagon,go,,,,go-1,1,,,,,,
2,658.0,5,phase_2,red_rhombus,go,,,,go-1,1,,,,,,
2,577.0,5,phase_2,green_rhombus,go,,,,go-2,1,,,,,,
2,654.0,5,phase_2,red_rhombus,go,,,,go-1,1,,,,,,
0,0,5,phase_2,green_pentagon,stop,purple,400.0,tracking-SSD,go-2,4,,,,,,
2,673.0,5,phase_2,green_circle,go,,,,go-2,1,,,,,,
2,737.0,5,phase_2,red_rhombus,go,,,,go-1,1,,,,,,
2,522.0,5,phase_2,red_rhombus,go,,,,go-1,1,,,,,,
1,554.0,5,phase_2,red_triangle,stop,purple,450.0,tracking-SSD,go-1,3,,,,,,
1,800.0,5,phase_2,red_pentagon,go,,,,go-1,1,,,,,,
1,551.0,5,phase_2,green_rhombus,go,,,,go-2,2,,,,,,
1,560.0,5,phase_2,green_pentagon,go,,,,go-2,1,,,,,,
0,0,5,phase_2,red_triangle,stop,blue,0.0,0-SSD,go-1,4,,,,,,
2,611.0,5,phase_2,green_rhombus,stop,purple,400.0,tracking-SSD,go-2,3,,,,,,
2,476.0,5,phase_2,green_pentagon,go,,,,go-2,2,,,,,,
2,619.0,5,phase_2,red_circle,go,,,,go-1,1,,,,,,
1,596.0,5,phase_2,red_pentagon,go,,,,go-1,1,,,,,,
0,0,5,phase_2,red_rhombus,stop,blue,0.0,0-SSD,go-1,4,,,,,,
0,0,5,phase_2,green_circle,stop,blue,0.0,0-SSD,go-2,4,,,,,,
1,668.0,5,phase_2,green_pentagon,go,,,,go-2,1,,,,,,
1,632.0,5,phase_2,green_pentagon,go,,,,go-2,1,,,,,,
1,540.0,5,phase_2,green_triangle,go,,,,go-2,1,,,,,,
2,617.0,5,phase_2,green_circle,go,,,,go-2,1,,,,,,
1,580.0,5,phase_2,green_triangle,go,,,,go-2,1,,,,,,
1,603.0,5,phase_2,red_triangle,go,,,,go-1,1,,,,,,
1,588.0,5,phase_2,red_pentagon,go,,,,go-1,1,,,,,,
0,0,5,phase_2,green_triangle,stop,blue,0.0,0-SSD,go-2,4,,,,,,
0,0,5,phase_2,red_pentagon,stop,purple,350.0,tracking-SSD,go-1,4,,,,,,
0,0,5,phase_2,red_circle,stop,purple,400.0,tracking-SSD,go-1,4,,,,,,
2,760.0,5,phase_2,green_rhombus,go,,,,go-2,1,,,,,,
0,0,5,phase_2,green_triangle,stop,purple,450.0,tracking-SSD,go-2,4,,,,,,
2,879.0,5,phase_2,green_rhombus,go,,,,go-2,1,,,,,,
1,732.0,5,phase_2,red_pentagon,go,,,,go-1,1,,,,,,
2,538.0,5,phase_2,red_circle,go,,,,go-1,1,,,,,,
2,457.0,5,phase_2,green_circle,stop,purple,500.0,tracking-SSD,go-2,3,,,,,,
2,690.0,5,phase_2,red_rhombus,go,,,,go-1,1,,,,,,
2,519.0,5,phase_2,green_rhombus,go,,,,go-2,1,,,,,,
1,640.0,5,phase_2,green_pentagon,go,,,,go-2,1,,,,,,
0,0,5,phase_2,green_circle,stop,blue,0.0,0-SSD,go-2,4,,,,,,
2,534.0,5,phase_2,red_circle,go,,,,go-1,1,,,,,,
0,0,5,phase_2,red_triangle,stop,blue,0.0,0-SSD,go-1,4,,,,,,
1,575.0,5,phase_2,green_triangle,go,,,,go-2,1,,,,,,
2,572.0,5,phase_2,red_circle,go,,,,go-1,1,,,,,,
0,0,5,phase_2,green_triangle,stop,blue,0.0,0-SSD,go-2,4,,,,,,
2,657.0,5,phase_2,red_circle,go,,,,go-1,1,,,,,,
0,0,6,phase_2,green_circle,stop,blue,0.0,0-SSD,go-2,4,,,,,,
2,655.0,6,phase_2,green_circle,go,,,,go-2,1,,,,,,
1,563.0,6,phase_2,green_triangle,go,,,,go-2,1,,,,,,
1,628.0,6,phase_2,red_pentagon,go,,,,go-1,1,,,,,,
2,604.0,6,phase_2,green_circle,stop,purple,450.0,tracking-SSD,go-2,3,,,,,,
1,511.0,6,phase_2,green_triangle,go,,,,go-2,1,,,,,,
0,0,6,phase_2,red_pentagon,stop,blue,0.0,0-SSD,go-1,4,,,,,,
1,574.0,6,phase_2,green_pentagon,go,,,,go-2,1,,,,,,
0,0,6,phase_2,red_rhombus,stop,purple,400.0,tracking-SSD,go-1,4,,,,,,
2,625.0,6,phase_2,green_rhombus,go,,,,go-2,1,,,,,,
2,590.0,6,phase_2,red_rhombus,go,,,,go-1,1,,,,,,
1,643.0,6,phase_2,green_pentagon,go,,,,go-2,1,,,,,,
2,620.0,6,phase_2,red_rhombus,go,,,,go-1,1,,,,,,
1,560.0,6,phase_2,green_triangle,go,,,,go-2,1,,,,,,
2,456.0,6,phase_2,red_circle,stop,purple,450.0,tracking-SSD,go-1,3,,,,,,
0,0,6,phase_2,green_rhombus,stop,blue,0.0,0-SSD,go-2,4,,,,,,
2,577.0,6,phase_2,red_rhombus,stop,purple,400.0,tracking-SSD,go-1,3,,,,,,
0,0,6,phase_2,red_pentagon,stop,blue,0.0,0-SSD,go-1,4,,,,,,
0,0,6,phase_2,green_rhombus,stop,blue,0.0,0-SSD,go-2,4,,,,,,
1,604.0,6,phase_2,red_triangle,go,,,,go-1,1,,,,,,
2,691.0,6,phase_2,green_rhombus,go,,,,go-2,1,,,,,,
1,610.0,6,phase_2,red_triangle,go,,,,go-1,1,,,,,,
0,0,6,phase_2,green_pentagon,stop,purple,350.0,tracking-SSD,go-2,4,,,,,,
1,830.0,6,phase_2,green_pentagon,go,,,,go-2,1,,,,,,
2,580.0,6,phase_2,red_circle,go,,,,go-1,1,,,,,,
1,521.0,6,phase_2,red_pentagon,go,,,,go-1,1,,,,,,
1,699.0,6,phase_2,red_pentagon,go,,,,go-1,1,,,,,,
0,0,6,phase_2,green_circle,stop,blue,0.0,0-SSD,go-2,4,,,,,,
1,604.0,6,phase_2,red_triangle,go,,,,go-1,1,,,,,,
1,523.0,6,phase_2,red_triangle,go,,,,go-1,1,,,,,,
1,587.0,6,phase_2,green_triangle,go,,,,go-2,1,,,,,,
0,0,6,phase_2,red_circle,stop,blue,0.0,0-SSD,go-1,4,,,,,,
2,559.0,6,phase_2,green_circle,go,,,,go-2,1,,,,,,
2,581.0,6,phase_2,red_circle,stop,purple,400.0,tracking-SSD,go-1,3,,,,,,
1,625.0,6,phase_2,red_pentagon,go,,,,go-1,1,,,,,,
1,621.0,6,phase_2,green_pentagon,go,,,,go-2,1,,,,,,
0,0,6,phase_2,green_triangle,stop,purple,350.0,tracking-SSD,go-2,4,,,,,,
1,516.0,6,phase_2,red_triangle,go,,,,go-1,1,,,,,,
2,603.0,6,phase_2,green_rhombus,go,,,,go-2,1,,,,,,
1,612.0,6,phase_2,red_triangle,go,,,,go-1,1,,,,,,
2,677.0,6,phase_2,green_rhombus,go,,,,go-2,1,,,,,,
2,696.0,6,phase_2,green_rhombus,go,,,,go-2,1,,,,,,
1,661.0,6,phase_2,red_triangle,go,,,,go-1,1,,,,,,
1,512.0,6,phase_2,red_pentagon,go,,,,go-1,1,,,,,,
0,0,6,phase_2,red_circle,stop,blue,0.0,0-SSD,go-1,4,,,,,,
2,519.0,6,phase_2,red_rhombus,go,,,,go-1,1,,,,,,
2,472.0,6,phase_2,green_circle,go,,,,go-2,1,,,,,,
2,403.0,6,phase_2,green_circle,stop,purple,400.0,tracking-SSD,go-2,3,,,,,,
1,499.0,7,phase_2,green_triangle,go,,,,go-2,1,,,,,,
0,0,7,phase_2,red_rhombus,stop,blue,0.0,0-SSD,go-1,4,,,,,,
0,0,7,phase_2,red_circle,stop,purple,350.0,tracking-SSD,go-1,4,,,,,,
2,606.0,7,phase_2,green_rhombus,go,,,,go-2,1,,,,,,
0,0,7,phase_2,red_triangle,stop,purple,400.0,tracking-SSD,go-1,4,,,,,,
1,602.0,7,phase_2,red_triangle,go,,,,go-1,1,,,,,,
2,632.0,7,phase_2,green_circle,go,,,,go-2,1,,,,,,
2,698.0,7,phase_2,red_circle,go,,,,go-1,1,,,,,,
2,708.0,7,phase_2,green_rhombus,go,,,,go-2,1,,,,,,
0,0,7,phase_2,red_pentagon,stop,blue,0.0,0-SSD,go-1,4,,,,,,
2,512.0,7,phase_2,green_rhombus,go,,,,go-2,1,,,,,,
2,418.0,7,phase_2,green_circle,go,,,,go-2,1,,,,,,
2,528.0,7,phase_2,green_pentagon,go,,,,go-2,2,,,,,,
0,0,7,phase_2,red_pentagon,stop,blue,0.0,0-SSD,go-1,4,,,,,,
1,602.0,7,phase_2,red_triangle,go,,,,go-1,1,,,,,,
2,611.0,7,phase_2,green_rhombus,go,,,,go-2,1,,,,,,
2,620.0,7,phase_2,green_circle,stop,purple,450.0,tracking-SSD,go-2,3,,,,,,
0,0,7,phase_2,green_circle,stop,blue,0.0,0-SSD,go-2,4,,,,,,
1,739.0,7,phase_2,red_pentagon,go,,,,go-1,1,,,,,,
1,545.0,7,phase_2,red_pentagon,go,,,,go-1,1,,,,,,
0,0,7,phase_2,green_pentagon,stop,blue,0.0,0-SSD,go-2,4,,,,,,
2,553.0,7,phase_2,green_rhombus,stop,purple,400.0,tracking-SSD,go-2,3,,,,,,
2,538.0,7,phase_2,green_rhombus,go,,,,go-2,1,,,,,,
2,614.0,7,phase_2,red_circle,go,,,,go-1,1,,,,,,
2,702.0,7,phase_2,red_circle,go,,,,go-1,1,,,,,,
1,599.0,7,phase_2,red_pentagon,go,,,,go-1,1,,,,,,
2,586.0,7,phase_2,red_circle,stop,purple,350.0,tracking-SSD,go-1,3,,,,,,
1,505.0,7,phase_2,red_triangle,go,,,,go-1,1,,,,,,
1,605.0,7,phase_2,red_triangle,go,,,,go-1,1,,,,,,
2,614.0,7,phase_2,green_circle,go,,,,go-2,1,,,,,,
1,623.0,7,phase_2,red_triangle,go,,,,go-1,1,,,,,,
2,610.0,7,phase_2,green_rhombus,go,,,,go-2,1,,,,,,
0,0,7,phase_2,red_rhombus,stop,blue,0.0,0-SSD,go-1,4,,,,,,
1,582.0,7,phase_2,red_pentagon,go,,,,go-1,1,,,,,,
1,547.0,7,phase_2,green_pentagon,go,,,,go-2,1,,,,,,
0,0,7,phase_2,green_triangle,stop,purple,300.0,tracking-SSD,go-2,4,,,,,,
1,519.0,7,phase_2,green_triangle,go,,,,go-2,1,,,,,,
1,584.0,7,phase_2,red_triangle,go,,,,go-1,1,,,,,,
1,593.0,7,phase_2,green_pentagon,go,,,,go-2,1,,,,,,
1,534.0,7,phase_2,red_rhombus,go,,,,go-1,2,,,,,,
0,0,7,phase_2,green_circle,stop,blue,0.0,0-SSD,go-2,4,,,,,,
1,521.0,7,phase_2,green_triangle,go,,,,go-2,1,,,,,,
0,0,7,phase_2,green_circle,stop,purple,350.0,tracking-SSD,go-2,4,,,,,,
2,616.0,7,phase_2,red_rhombus,go,,,,go-1,1,,,,,,
0,0,7,phase_2,green_rhombus,stop,blue,0.0,0-SSD,go-2,4,,,,,,
1,579.0,7,phase_2,green_pentagon,go,,,,go-2,1,,,,,,
1,408.0,7,phase_2,red_pentagon,go,,,,go-1,1,,,,,,
1,451.0,7,phase_2,red_triangle,stop,purple,400.0,tracking-SSD,go-1,3,,,,,,
1,488.0,8,phase_2,green_pentagon,go,,,,go-2,1,,,,,,
1,475.0,8,phase_2,green_rhombus,stop,purple,350.0,tracking-SSD,go-2,3,,,,,,
2,596.0,8,phase_2,green_circle,go,,,,go-2,1,,,,,,
1,593.0,8,phase_2,green_pentagon,go,,,,go-2,1,,,,,,
1,590.0,8,phase_2,red_pentagon,go,,,,go-1,1,,,,,,
2,644.0,8,phase_2,red_circle,go,,,,go-1,1,,,,,,
0,0,8,phase_2,red_triangle,stop,blue,0.0,0-SSD,go-1,4,,,,,,
2,550.0,8,phase_2,green_rhombus,go,,,,go-2,1,,,,,,
0,0,8,phase_2,green_rhombus,stop,blue,0.0,0-SSD,go-2,4,,,,,,
2,600.0,8,phase_2,red_rhombus,go,,,,go-1,1,,,,,,
2,487.0,8,phase_2,red_circle,stop,purple,300.0,tracking-SSD,go-1,3,,,,,,
0,0,8,phase_2,green_circle,stop,blue,0.0,0-SSD,go-2,4,,,,,,
1,583.0,8,phase_2,green_pentagon,go,,,,go-2,1,,,,,,
2,469.0,8,phase_2,green_circle,go,,,,go-2,1,,,,,,
1,500.0,8,phase_2,green_triangle,go,,,,go-2,1,,,,,,
1,589.0,8,phase_2,red_triangle,go,,,,go-1,1,,,,,,
1,565.0,8,phase_2,green_triangle,go,,,,go-2,1,,,,,,
2,495.0,8,phase_2,red_circle,go,,,,go-1,1,,,,,,
2,560.0,8,phase_2,red_circle,go,,,,go-1,1,,,,,,
1,558.0,8,phase_2,red_triangle,go,,,,go-1,1,,,,,,
0,0,8,phase_2,red_rhombus,stop,purple,250.0,tracking-SSD,go-1,4,,,,,,
1,520.0,8,phase_2,red_pentagon,go,,,,go-1,1,,,,,,
0,0,8,phase_2,red_pentagon,stop,blue,0.0,0-SSD,go-1,4,,,,,,
1,505.0,8,phase_2,red_pentagon,go,,,,go-1,1,,,,,,
2,581.0,8,phase_2,red_rhombus,stop,purple,300.0,tracking-SSD,go-1,3,,,,,,
1,679.0,8,phase_2,green_pentagon,go,,,,go-2,1,,,,,,
2,565.0,8,phase_2,green_rhombus,go,,,,go-2,1,,,,,,
0,0,8,phase_2,green_circle,stop,blue,0.0,0-SSD,go-2,4,,,,,,
1,527.0,8,phase_2,red_triangle,go,,,,go-1,1,,,,,,
2,648.0,8,phase_2,green_rhombus,go,,,,go-2,1,,,,,,
0,0,8,phase_2,red_pentagon,stop,blue,0.0,0-SSD,go-1,4,,,,,,
1,632.0,8,phase_2,green_pentagon,go,,,,go-2,1,,,,,,
1,451.0,8,phase_2,red_triangle,go,,,,go-1,1,,,,,,
0,0,8,phase_2,green_circle,stop,purple,250.0,tracking-SSD,go-2,4,,,,,,
1,502.0,8,phase_2,red_pentagon,go,,,,go-1,1,,,,,,
2,511.0,8,phase_2,red_circle,go,,,,go-1,1,,,,,,
2,509.0,8,phase_2,green_rhombus,go,,,,go-2,1,,,,,,
1,495.0,8,phase_2,green_pentagon,go,,,,go-2,1,,,,,,
0,0,8,phase_2,red_circle,stop,blue,0.0,0-SSD,go-1,4,,,,,,
0,0,8,phase_2,green_circle,stop,purple,300.0,tracking-SSD,go-2,4,,,,,,
1,533.0,8,phase_2,red_triangle,go,,,,go-1,1,,,,,,
1,507.0,8,phase_2,green_triangle,go,,,,go-2,1,,,,,,
0,0,8,phase_2,red_triangle,stop,purple,350.0,tracking-SSD,go-1,4,,,,,,
0,0,8,phase_2,green_triangle,stop,blue,0.0,0-SSD,go-2,4,,,,,,
1,557.0,8,phase_2,red_triangle,go,,,,go-1,1,,,,,,
2,658.0,8,phase_2,red_rhombus,go,,,,go-1,1,,,,,,
2,667.0,8,phase_2,green_rhombus,go,,,,go-2,1,,,,,,
2,519.0,8,phase_2,green_rhombus,stop,purple,400.0,tracking-SSD,go-2,3,,,,,,
0,0,9,phase_2,green_pentagon,stop,blue,0.0,0-SSD,go-2,4,,,,,,
2,532.0,9,phase_2,red_circle,go,,,,go-1,1,,,,,,
0,0,9,phase_2,green_triangle,stop,blue,0.0,0-SSD,go-2,4,,,,,,
1,518.0,9,phase_2,red_triangle,go,,,,go-1,1,,,,,,
1,459.0,9,phase_2,green_triangle,go,,,,go-2,1,,,,,,
1,605.0,9,phase_2,red_triangle,go,,,,go-1,1,,,,,,
0,0,9,phase_2,red_rhombus,stop,blue,0.0,0-SSD,go-1,4,,,,,,
0,0,9,phase_2,red_rhombus,stop,blue,0.0,0-SSD,go-1,4,,,,,,
1,456.0,9,phase_2,green_triangle,go,,,,go-2,1,,,,,,
1,532.0,9,phase_2,red_pentagon,go,,,,go-1,1,,,,,,
1,531.0,9,phase_2,green_pentagon,stop,purple,350.0,tracking-SSD,go-2,3,,,,,,
0,0,9,phase_2,red_rhombus,stop,blue,0.0,0-SSD,go-1,4,,,,,,
1,539.0,9,phase_2,red_pentagon,stop,purple,300.0,tracking-SSD,go-1,3,,,,,,
0,0,9,phase_2,red_triangle,stop,purple,250.0,tracking-SSD,go-1,4,,,,,,
2,494.0,9,phase_2,green_circle,go,,,,go-2,1,,,,,,
1,603.0,9,phase_2,green_triangle,go,,,,go-2,1,,,,,,
1,524.0,9,phase_2,green_triangle,go,,,,go-2,1,,,,,,
0,0,9,phase_2,red_pentagon,stop,blue,0.0,0-SSD,go-1,4,,,,,,
1,567.0,9,phase_2,red_pentagon,go,,,,go-1,1,,,,,,
1,632.0,9,phase_2,red_pentagon,go,,,,go-1,1,,,,,,
2,651.0,9,phase_2,red_circle,go,,,,go-1,1,,,,,,
2,603.0,9,phase_2,green_circle,go,,,,go-2,1,,,,,,
0,0,9,phase_2,green_pentagon,stop,blue,0.0,0-SSD,go-2,4,,,,,,
1,566.0,9,phase_2,red_rhombus,go,,,,go-1,2,,,,,,
2,621.0,9,phase_2,red_rhombus,go,,,,go-1,1,,,,,,
0,0,9,phase_2,red_rhombus,stop,purple,300.0,tracking-SSD,go-1,4,,,,,,
1,583.0,9,phase_2,red_pentagon,go,,,,go-1,1,,,,,,
2,603.0,9,phase_2,red_circle,go,,,,go-1,1,,,,,,
2,591.0,9,phase_2,green_rhombus,go,,,,go-2,1,,,,,,
1,611.0,9,phase_2,red_pentagon,go,,,,go-1,1,,,,,,
2,619.0,9,phase_2,red_rhombus,go,,,,go-1,1,,,,,,
2,616.0,9,phase_2,red_rhombus,go,,,,go-1,1,,,,,,
1,570.0,9,phase_2,green_triangle,go,,,,go-2,1,,,,,,
0,0,9,phase_2,green_circle,stop,purple,350.0,tracking-SSD,go-2,4,,,,,,
1,632.0,9,phase_2,green_pentagon,go,,,,go-2,1,,,,,,
2,584.0,9,phase_2,green_rhombus,go,,,,go-2,1,,,,,,
2,671.0,9,phase_2,red_circle,go,,,,go-1,1,,,,,,
2,580.0,9,phase_2,green_circle,go,,,,go-2,1,,,,,,
0,0,9,phase_2,green_circle,stop,purple,400.0,tracking-SSD,go-2,4,,,,,,
1,631.0,9,phase_2,red_pentagon,stop,purple,450.0,tracking-SSD,go-1,3,,,,,,
2,595.0,9,phase_2,green_circle,go,,,,go-2,1,,,,,,
0,0,9,phase_2,green_rhombus,stop,purple,400.0,tracking-SSD,go-2,4,,,,,,
2,647.0,9,phase_2,green_rhombus,go,,,,go-2,1,,,,,,
1,657.0,9,phase_2,green_triangle,go,,,,go-2,1,,,,,,
1,678.0,9,phase_2,green_triangle,go,,,,go-2,1,,,,,,
0,0,9,phase_2,green_triangle,stop,blue,0.0,0-SSD,go-2,4,,,,,,
2,627.0,9,phase_2,red_circle,go,,,,go-1,1,,,,,,
2,613.0,9,phase_2,green_circle,go,,,,go-2,1,,,,,,
2,555.0,10,phase_2,green_circle,go,,,,go-2,1,,,,,,
1,508.0,10,phase_2,green_triangle,go,,,,go-2,1,,,,,,
1,563.0,10,phase_2,green_triangle,go,,,,go-2,1,,,,,,
2,470.0,10,phase_2,red_circle,stop,purple,450.0,tracking-SSD,go-1,3,,,,,,
1,591.0,10,phase_2,green_triangle,go,,,,go-2,1,,,,,,
2,554.0,10,phase_2,green_rhombus,go,,,,go-2,1,,,,,,
2,484.0,10,phase_2,red_circle,go,,,,go-1,1,,,,,,
1,572.0,10,phase_2,red_triangle,go,,,,go-1,1,,,,,,
2,636.0,10,phase_2,red_circle,go,,,,go-1,1,,,,,,
2,601.0,10,phase_2,red_circle,go,,,,go-1,1,,,,,,
2,688.0,10,phase_2,red_circle,go,,,,go-1,1,,,,,,
0,0,10,phase_2,red_pentagon,stop,purple,400.0,tracking-SSD,go-1,4,,,,,,
0,0,10,phase_2,green_pentagon,stop,purple,450.0,tracking-SSD,go-2,4,,,,,,
2,512.0,10,phase_2,green_circle,go,,,,go-2,1,,,,,,
1,510.0,10,phase_2,red_triangle,go,,,,go-1,1,,,,,,
2,587.0,10,phase_2,green_rhombus,go,,,,go-2,1,,,,,,
1,686.0,10,phase_2,green_pentagon,go,,,,go-2,1,,,,,,
1,650.0,10,phase_2,green_triangle,go,,,,go-2,1,,,,,,
1,682.0,10,phase_2,green_pentagon,stop,purple,500.0,tracking-SSD,go-2,3,,,,,,
2,612.0,10,phase_2,green_circle,go,,,,go-2,1,,,,,,
0,0,10,phase_2,red_triangle,stop,blue,0.0,0-SSD,go-1,4,,,,,,
0,0,10,phase_2,green_rhombus,stop,blue,0.0,0-SSD,go-2,4,,,,,,
1,641.0,10,phase_2,green_pentagon,stop,purple,450.0,tracking-SSD,go-2,3,,,,,,
2,570.0,10,phase_2,red_rhombus,go,,,,go-1,1,,,,,,
2,624.0,10,phase_2,red_rhombus,go,,,,go-1,1,,,,,,
0,0,10,phase_2,green_pentagon,stop,blue,0.0,0-SSD,go-2,4,,,,,,
1,641.0,10,phase_2,red_triangle,go,,,,go-1,1,,,,,,
2,638.0,10,phase_2,green_rhombus,go,,,,go-2,1,,,,,,
2,569.0,10,phase_2,red_rhombus,go,,,,go-1,1,,,,,,
0,0,10,phase_2,green_pentagon,stop,blue,0.0,0-SSD,go-2,4,,,,,,
0,0,10,phase_2,red_pentagon,stop,blue,0.0,0-SSD,go-1,4,,,,,,
1,674.0,10,phase_2,red_triangle,go,,,,go-1,1,,,,,,
0,0,10,phase_2,green_rhombus,stop,blue,0.0,0-SSD,go-2,4,,,,,,
0,0,10,phase_2,red_rhombus,stop,blue,0.0,0-SSD,go-1,4,,,,,,
1,587.0,10,phase_2,green_triangle,go,,,,go-2,1,,,,,,
1,517.0,10,phase_2,red_triangle,stop,purple,400.0,tracking-SSD,go-1,3,,,,,,
1,639.0,10,phase_2,green_pentagon,go,,,,go-2,1,,,,,,
1,692.0,10,phase_2,red_pentagon,go,,,,go-1,1,,,,,,
2,588.0,10,phase_2,green_rhombus,go,,,,go-2,1,,,,,,
0,0,10,phase_2,green_circle,stop,purple,350.0,tracking-SSD,go-2,4,,,,,,
2,594.0,10,phase_2,red_circle,go,,,,go-1,1,,,,,,
1,648.0,10,phase_2,green_triangle,go,,,,go-2,1,,,,,,
2,577.0,10,phase_2,red_circle,go,,,,go-1,1,,,,,,
0,0,10,phase_2,red_pentagon,stop,blue,0.0,0-SSD,go-1,4,,,,,,
1,506.0,10,phase_2,red_pentagon,go,,,,go-1,1,,,,,,
2,627.0,10,phase_2,green_rhombus,go,,,,go-2,1,,,,,,
2,546.0,10,phase_2,red_circle,stop,purple,400.0,tracking-SSD,go-1,3,,,,,,
2,634.0,10,phase_2,red_rhombus,go,,,,go-1,1,,,,,,
2,601.0,11,phase_2,green_circle,stop,purple,350.0,tracking-SSD,go-2,3,,,,,,
2,498.0,11,phase_2,green_circle,go,,,,go-2,1,,,,,,
2,506.0,11,phase_2,green_rhombus,go,,,,go-2,1,,,,,,
1,604.0,11,phase_2,green_pentagon,go,,,,go-2,1,,,,,,
2,749.0,11,phase_2,red_rhombus,go,,,,go-1,1,,,,,,
1,656.0,11,phase_2,red_triangle,go,,,,go-1,1,,,,,,
0,0,11,phase_2,green_circle,stop,blue,0.0,0-SSD,go-2,4,,,,,,
1,675.0,11,phase_2,green_pentagon,go,,,,go-2,1,,,,,,
2,615.0,11,phase_2,green_rhombus,go,,,,go-2,1,,,,,,
1,489.0,11,phase_2,red_triangle,go,,,,go-1,1,,,,,,
2,499.0,11,phase_2,green_circle,go,,,,go-2,1,,,,,,
0,0,11,phase_2,green_triangle,stop,blue,0.0,0-SSD,go-2,4,,,,,,
1,506.0,11,phase_2,red_triangle,go,,,,go-1,1,,,,,,
1,560.0,11,phase_2,green_triangle,go,,,,go-2,1,,,,,,
1,580.0,11,phase_2,red_pentagon,go,,,,go-1,1,,,,,,
1,701.0,11,phase_2,red_pentagon,go,,,,go-1,1,,,,,,
1,598.0,11,phase_2,red_triangle,go,,,,go-1,1,,,,,,
2,674.0,11,phase_2,red_circle,go,,,,go-1,1,,,,,,
2,649.0,11,phase_2,green_circle,go,,,,go-2,1,,,,,,
2,613.0,11,phase_2,green_rhombus,go,,,,go-2,1,,,,,,
2,656.0,11,phase_2,red_rhombus,go,,,,go-1,1,,,,,,
2,632.0,11,phase_2,red_rhombus,go,,,,go-1,1,,,,,,
0,0,11,phase_2,green_triangle,stop,purple,300.0,tracking-SSD,go-2,4,,,,,,
1,943.0,11,phase_2,green_pentagon,go,,,,go-2,1,,,,,,
1,681.0,11,phase_2,red_pentagon,go,,,,go-1,1,,,,,,
2,464.0,11,phase_2,green_circle,go,,,,go-2,1,,,,,,
1,664.0,11,phase_2,green_pentagon,go,,,,go-2,1,,,,,,
0,0,11,phase_2,green_pentagon,stop,blue,0.0,0-SSD,go-2,4,,,,,,
2,637.0,11,phase_2,green_rhombus,go,,,,go-2,1,,,,,,
2,600.0,11,phase_2,red_circle,go,,,,go-1,1,,,,,,
2,576.0,11,phase_2,green_circle,go,,,,go-2,1,,,,,,
0,0,11,phase_2,green_circle,stop,blue,0.0,0-SSD,go-2,4,,,,,,
1,550.0,11,phase_2,red_pentagon,stop,purple,350.0,tracking-SSD,go-1,3,,,,,,
0,0,11,phase_2,green_rhombus,stop,purple,300.0,tracking-SSD,go-2,4,,,,,,
0,0,11,phase_2,green_pentagon,stop,purple,350.0,tracking-SSD,go-2,4,,,,,,
1,611.0,11,phase_2,green_triangle,go,,,,go-2,1,,,,,,
2,575.0,11,phase_2,red_rhombus,stop,purple,400.0,tracking-SSD,go-1,3,,,,,,
0,0,11,phase_2,red_rhombus,stop,blue,0.0,0-SSD,go-1,4,,,,,,
2,513.0,11,phase_2,red_circle,go,,,,go-1,1,,,,,,
0,0,11,phase_2,red_pentagon,stop,blue,0.0,0-SSD,go-1,4,,,,,,
1,598.0,11,phase_2,green_triangle,go,,,,go-2,1,,,,,,
0,0,11,phase_2,red_pentagon,stop,purple,350.0,tracking-SSD,go-1,4,,,,,,
1,604.0,11,phase_2,red_triangle,go,,,,go-1,1,,,,,,
0,0,11,phase_2,red_circle,stop,blue,0.0,0-SSD,go-1,4,,,,,,
2,542.0,11,phase_2,red_rhombus,go,,,,go-1,1,,,,,,
2,597.0,11,phase_2,red_rhombus,stop,purple,400.0,tracking-SSD,go-1,3,,,,,,
0,0,11,phase_2,red_triangle,stop,blue,0.0,0-SSD,go-1,4,,,,,,
1,591.0,11,phase_2,red_triangle,go,,,,go-1,1,,,,,,
0,0,12,phase_2,green_rhombus,stop,blue,0.0,0-SSD,go-2,4,,,,,,
0,0,12,phase_2,green_triangle,stop,blue,0.0,0-SSD,go-2,4,,,,,,
2,517.0,12,phase_2,green_rhombus,stop,purple,350.0,tracking-SSD,go-2,3,,,,,,
2,650.0,12,phase_2,red_circle,go,,,,go-1,1,,,,,,
1,749.0,12,phase_2,green_pentagon,go,,,,go-2,1,,,,,,
0,0,12,phase_2,red_circle,stop,purple,300.0,tracking-SSD,go-1,4,,,,,,
2,654.0,12,phase_2,green_rhombus,go,,,,go-2,1,,,,,,
0,0,12,phase_2,green_triangle,stop,purple,350.0,tracking-SSD,go-2,4,,,,,,
2,660.0,12,phase_2,green_rhombus,go,,,,go-2,1,,,,,,
1,647.0,12,phase_2,red_pentagon,go,,,,go-1,1,,,,,,
0,0,12,phase_2,red_rhombus,stop,blue,0.0,0-SSD,go-1,4,,,,,,
1,562.0,12,phase_2,green_triangle,go,,,,go-2,1,,,,,,
0,0,12,phase_2,red_pentagon,stop,blue,0.0,0-SSD,go-1,4,,,,,,
1,591.0,12,phase_2,red_pentagon,go,,,,go-1,1,,,,,,
1,622.0,12,phase_2,green_triangle,go,,,,go-2,1,,,,,,
1,540.0,12,phase_2,green_triangle,go,,,,go-2,1,,,,,,
1,695.0,12,phase_2,red_triangle,go,,,,go-1,1,,,,,,
1,626.0,12,phase_2,green_pentagon,go,,,,go-2,1,,,,,,
2,724.0,12,phase_2,red_circle,go,,,,go-1,1,,,,,,
2,621.0,12,phase_2,red_circle,go,,,,go-1,1,,,,,,
1,618.0,12,phase_2,green_triangle,go,,,,go-2,1,,,,,,
0,0,12,phase_2,red_rhombus,stop,purple,400.0,tracking-SSD,go-1,4,,,,,,
2,657.0,12,phase_2,green_rhombus,go,,,,go-2,1,,,,,,
2,587.0,12,phase_2,red_circle,go,,,,go-1,1,,,,,,
0,0,12,phase_2,red_triangle,stop,blue,0.0,0-SSD,go-1,4,,,,,,
1,527.0,12,phase_2,green_triangle,go,,,,go-2,1,,,,,,
1,536.0,12,phase_2,green_pentagon,stop,purple,450.0,tracking-SSD,go-2,3,,,,,,
2,580.0,12,phase_2,red_rhombus,stop,purple,400.0,tracking-SSD,go-1,3,,,,,,
2,566.0,12,phase_2,green_rhombus,stop,purple,350.0,tracking-SSD,go-2,3,,,,,,
1,608.0,12,phase_2,red_triangle,go,,,,go-1,1,,,,,,
2,651.0,12,phase_2,red_circle,go,,,,go-1,1,,,,,,
2,649.0,12,phase_2,red_circle,go,,,,go-1,1,,,,,,
1,547.0,12,phase_2,red_triangle,go,,,,go-1,1,,,,,,
2,668.0,12,phase_2,green_circle,go,,,,go-2,1,,,,,,
2,654.0,12,phase_2,red_rhombus,go,,,,go-1,1,,,,,,
0,0,12,phase_2,red_pentagon,stop,purple,300.0,tracking-SSD,go-1,4,,,,,,
1,615.0,12,phase_2,green_pentagon,go,,,,go-2,1,,,,,,
1,748.0,12,phase_2,green_pentagon,go,,,,go-2,1,,,,,,
1,453.0,12,phase_2,green_pentagon,go,,,,go-2,1,,,,,,
0,0,12,phase_2,red_rhombus,stop,blue,0.0,0-SSD,go-1,4,,,,,,
1,504.0,12,phase_2,red_pentagon,go,,,,go-1,1,,,,,,
0,0,12,phase_2,green_circle,stop,blue,0.0,0-SSD,go-2,4,,,,,,
2,499.0,12,phase_2,green_circle,go,,,,go-2,1,,,,,,
0,0,12,phase_2,green_rhombus,stop,blue,0.0,0-SSD,go-2,4,,,,,,
2,516.0,12,phase_2,red_circle,go,,,,go-1,1,,,,,,
1,536.0,12,phase_2,green_triangle,go,,,,go-2,1,,,,,,
1,636.0,12,phase_2,red_pentagon,go,,,,go-1,1,,,,,,
2,521.0,12,phase_2,red_circle,go,,,,go-1,1,,,,,,
2,543.0,13,phase_2,green_rhombus,go,,,,go-2,1,,,,,,
0,0,13,phase_2,green_rhombus,stop,blue,0.0,0-SSD,go-2,4,,,,,,
2,471.0,13,phase_2,red_rhombus,go,,,,go-1,1,,,,,,
1,526.0,13,phase_2,green_triangle,go,,,,go-2,1,,,,,,
1,569.0,13,phase_2,red_pentagon,stop,purple,350.0,tracking-SSD,go-1,3,,,,,,
2,465.0,13,phase_2,green_circle,go,,,,go-2,1,,,,,,
2,586.0,13,phase_2,red_circle,go,,,,go-1,1,,,,,,
2,505.0,13,phase_2,red_circle,go,,,,go-1,1,,,,,,
2,513.0,13,phase_2,green_circle,stop,purple,300.0,tracking-SSD,go-2,3,,,,,,
0,0,13,phase_2,red_rhombus,stop,purple,250.0,tracking-SSD,go-1,4,,,,,,
0,0,13,phase_2,green_rhombus,stop,purple,300.0,tracking-SSD,go-2,4,,,,,,
1,630.0,13,phase_2,red_pentagon,go,,,,go-1,1,,,,,,
2,537.0,13,phase_2,red_circle,go,,,,go-1,1,,,,,,
2,636.0,13,phase_2,red_circle,go,,,,go-1,1,,,,,,
1,578.0,13,phase_2,red_pentagon,go,,,,go-1,1,,,,,,
1,564.0,13,phase_2,green_triangle,go,,,,go-2,1,,,,,,
1,550.0,13,phase_2,green_triangle,go,,,,go-2,1,,,,,,
1,592.0,13,phase_2,green_pentagon,go,,,,go-2,1,,,,,,
2,601.0,13,phase_2,red_circle,go,,,,go-1,1,,,,,,
0,0,13,phase_2,red_rhombus,stop,blue,0.0,0-SSD,go-1,4,,,,,,
1,539.0,13,phase_2,red_triangle,stop,purple,350.0,tracking-SSD,go-1,3,,,,,,
2,594.0,13,phase_2,red_circle,go,,,,go-1,1,,,,,,
2,602.0,13,phase_2,green_rhombus,go,,,,go-2,1,,,,,,
0,0,13,phase_2,red_pentagon,stop,purple,300.0,tracking-SSD,go-1,4,,,,,,
0,0,13,phase_2,red_pentagon,stop,blue,0.0,0-SSD,go-1,4,,,,,,
0,0,13,phase_2,red_triangle,stop,blue,0.0,0-SSD,go-1,4,,,,,,
2,604.0,13,phase_2,green_circle,go,,,,go-2,1,,,,,,
1,567.0,13,phase_2,green_triangle,go,,,,go-2,1,,,,,,
1,475.0,13,phase_2,green_triangle,go,,,,go-2,1,,,,,,
0,0,13,phase_2,green_circle,stop,blue,0.0,0-SSD,go-2,4,,,,,,
1,639.0,13,phase_2,red_pentagon,go,,,,go-1,1,,,,,,
2,547.0,13,phase_2,green_circle,stop,purple,350.0,tracking-SSD,go-2,3,,,,,,
2,623.0,13,phase_2,green_rhombus,go,,,,go-2,1,,,,,,
0,0,13,phase_2,green_rhombus,stop,blue,0.0,0-SSD,go-2,4,,,,,,
1,518.0,13,phase_2,red_pentagon,go,,,,go-1,1,,,,,,
0,0,13,phase_2,green_triangle,stop,purple,300.0,tracking-SSD,go-2,4,,,,,,
0,0,13,phase_2,red_triangle,stop,blue,0.0,0-SSD,go-1,4,,,,,,
1,499.0,13,phase_2,red_triangle,go,,,,go-1,1,,,,,,
0,0,13,phase_2,green_pentagon,stop,blue,0.0,0-SSD,go-2,4,,,,,,
1,583.0,13,phase_2,red_triangle,go,,,,go-1,1,,,,,,
1,559.0,13,phase_2,red_pentagon,go,,,,go-1,1,,,,,,
1,511.0,13,phase_2,green_pentagon,go,,,,go-2,1,,,,,,
2,645.0,13,phase_2,red_rhombus,go,,,,go-1,1,,,,,,
1,698.0,13,phase_2,green_triangle,go,,,,go-2,1,,,,,,
2,549.0,13,phase_2,green_circle,go,,,,go-2,1,,,,,,
2,569.0,13,phase_2,green_rhombus,go,,,,go-2,1,,,,,,
1,578.0,13,phase_2,red_pentagon,go,,,,go-1,1,,,,,,
2,656.0,13,phase_2,green_rhombus,go,,,,go-2,1,,,,,,
0,0,14,phase_2,red_pentagon,stop,blue,0.0,0-SSD,go-1,4,,,,,,
2,463.0,14,phase_2,red_circle,stop,purple,350.0,tracking-SSD,go-1,3,,,,,,
1,506.0,14,phase_2,red_triangle,go,,,,go-1,1,,,,,,
2,550.0,14,phase_2,red_rhombus,go,,,,go-1,1,,,,,,
2,480.0,14,phase_2,red_circle,go,,,,go-1,1,,,,,,
2,579.0,14,phase_2,red_circle,go,,,,go-1,1,,,,,,
0,0,14,phase_2,green_rhombus,stop,blue,0.0,0-SSD,go-2,4,,,,,,
0,0,14,phase_2,green_pentagon,stop,purple,300.0,tracking-SSD,go-2,4,,,,,,
2,561.0,14,phase_2,red_rhombus,go,,,,go-1,1,,,,,,
2,614.0,14,phase_2,green_circle,go,,,,go-2,1,,,,,,
0,0,14,phase_2,green_triangle,stop,purple,350.0,tracking-SSD,go-2,4,,,,,,
1,552.0,14,phase_2,red_pentagon,go,,,,go-1,1,,,,,,
2,538.0,14,phase_2,green_rhombus,go,,,,go-2,1,,,,,,
2,592.0,14,phase_2,green_circle,go,,,,go-2,1,,,,,,
1,522.0,14,phase_2,red_triangle,go,,,,go-1,1,,,,,,
1,654.0,14,phase_2,red_triangle,stop,purple,400.0,tracking-SSD,go-1,3,,,,,,
1,629.0,14,phase_2,green_pentagon,go,,,,go-2,1,,,,,,
1,571.0,14,phase_2,red_triangle,go,,,,go-1,1,,,,,,
0,0,14,phase_2,green_pentagon,stop,blue,0.0,0-SSD,go-2,4,,,,,,
1,669.0,14,phase_2,green_triangle,go,,,,go-2,1,,,,,,
2,621.0,14,phase_2,red_rhombus,go,,,,go-1,1,,,,,,
1,574.0,14,phase_2,green_pentagon,go,,,,go-2,1,,,,,,
2,639.0,14,phase_2,green_circle,go,,,,go-2,1,,,,,,
1,524.0,14,phase_2,red_triangle,go,,,,go-1,1,,,,,,
1,691.0,14,phase_2,green_pentagon,go,,,,go-2,1,,,,,,
1,665.0,14,phase_2,green_pentagon,go,,,,go-2,1,,,,,,
2,707.0,14,phase_2,green_rhombus,go,,,,go-2,1,,,,,,
1,693.0,14,phase_2,green_pentagon,go,,,,go-2,1,,,,,,
0,0,14,phase_2,green_circle,stop,blue,0.0,0-SSD,go-2,4,,,,,,
2,578.0,14,phase_2,green_circle,stop,purple,350.0,tracking-SSD,go-2,3,,,,,,
1,688.0,14,phase_2,green_triangle,go,,,,go-2,1,,,,,,
0,0,14,phase_2,red_circle,stop,purple,300.0,tracking-SSD,go-1,4,,,,,,
2,739.0,14,phase_2,green_rhombus,go,,,,go-2,1,,,,,,
0,0,14,phase_2,green_pentagon,stop,purple,350.0,tracking-SSD,go-2,4,,,,,,
1,1062.0,14,phase_2,green_triangle,go,,,,go-2,1,,,,,,
2,541.0,14,phase_2,red_circle,stop,purple,400.0,tracking-SSD,go-1,3,,,,,,
2,628.0,14,phase_2,red_rhombus,go,,,,go-1,1,,,,,,
1,626.0,14,phase_2,red_pentagon,go,,,,go-1,1,,,,,,
2,635.0,14,phase_2,green_rhombus,go,,,,go-2,1,,,,,,
2,611.0,14,phase_2,red_rhombus,go,,,,go-1,1,,,,,,
0,0,14,phase_2,green_rhombus,stop,blue,0.0,0-SSD,go-2,4,,,,,,
2,594.0,14,phase_2,red_circle,go,,,,go-1,1,,,,,,
0,0,14,phase_2,red_triangle,stop,blue,0.0,0-SSD,go-1,4,,,,,,
0,0,14,phase_2,red_triangle,stop,blue,0.0,0-SSD,go-1,4,,,,,,
2,475.0,14,phase_2,red_circle,go,,,,go-1,1,,,,,,
1,528.0,14,phase_2,green_triangle,go,,,,go-2,1,,,,,,
0,0,14,phase_2,red_rhombus,stop,blue,0.0,0-SSD,go-1,4,,,,,,
1,525.0,14,phase_2,red_pentagon,go,,,,go-1,1,,,,,,
0,0,15,phase_2,red_pentagon,stop,blue,0.0,0-SSD,go-1,4,,,,,,
1,541.0,15,phase_2,red_triangle,stop,purple,350.0,tracking-SSD,go-1,3,,,,,,
2,493.0,15,phase_2,green_circle,go,,,,go-2,1,,,,,,
2,514.0,15,phase_2,green_circle,go,,,,go-2,1,,,,,,
1,590.0,15,phase_2,green_triangle,go,,,,go-2,1,,,,,,
0,0,15,phase_2,green_rhombus,stop,purple,300.0,tracking-SSD,go-2,4,,,,,,
1,608.0,15,phase_2,red_pentagon,go,,,,go-1,1,,,,,,
1,650.0,15,phase_2,green_triangle,go,,,,go-2,1,,,,,,
2,569.0,15,phase_2,green_rhombus,go,,,,go-2,1,,,,,,
2,612.0,15,phase_2,green_rhombus,go,,,,go-2,1,,,,,,
2,531.0,15,phase_2,red_circle,go,,,,go-1,1,,,,,,
2,562.0,15,phase_2,green_circle,stop,purple,350.0,tracking-SSD,go-2,3,,,,,,
1,751.0,15,phase_2,red_pentagon,go,,,,go-1,1,,,,,,
0,0,15,phase_2,green_pentagon,stop,blue,0.0,0-SSD,go-2,4,,,,,,
2,624.0,15,phase_2,green_circle,go,,,,go-2,1,,,,,,
2,632.0,15,phase_2,red_rhombus,go,,,,go-1,1,,,,,,
2,551.0,15,phase_2,red_circle,go,,,,go-1,1,,,,,,
2,559.0,15,phase_2,green_circle,go,,,,go-2,1,,,,,,
2,601.0,15,phase_2,red_circle,go,,,,go-1,1,,,,,,
1,533.0,15,phase_2,red_pentagon,go,,,,go-1,1,,,,,,
0,0,15,phase_2,red_triangle,stop,blue,0.0,0-SSD,go-1,4,,,,,,
1,585.0,15,phase_2,green_pentagon,go,,,,go-2,1,,,,,,
1,560.0,15,phase_2,red_pentagon,go,,,,go-1,1,,,,,,
0,0,15,phase_2,red_rhombus,stop,blue,0.0,0-SSD,go-1,4,,,,,,
1,826.0,15,phase_2,red_pentagon,go,,,,go-1,1,,,,,,
1,553.0,15,phase_2,green_pentagon,go,,,,go-2,1,,,,,,
0,0,15,phase_2,green_rhombus,stop,purple,300.0,tracking-SSD,go-2,4,,,,,,
2,649.0,15,phase_2,red_rhombus,go,,,,go-1,1,,,,,,
2,646.0,15,phase_2,red_rhombus,go,,,,go-1,1,,,,,,
1,600.0,15,phase_2,green_triangle,go,,,,go-2,1,,,,,,
0,0,15,phase_2,green_triangle,stop,blue,0.0,0-SSD,go-2,4,,,,,,
1,549.0,15,phase_2,green_triangle,go,,,,go-2,1,,,,,,
2,739.0,15,phase_2,red_circle,go,,,,go-1,1,,,,,,
0,0,15,phase_2,red_triangle,stop,purple,350.0,tracking-SSD,go-1,4,,,,,,
2,554.0,15,phase_2,red_rhombus,go,,,,go-1,1,,,,,,
1,572.0,15,phase_2,red_triangle,go,,,,go-1,1,,,,,,
1,626.0,15,phase_2,red_triangle,go,,,,go-1,1,,,,,,
0,0,15,phase_2,red_rhombus,stop,blue,0.0,0-SSD,go-1,4,,,,,,
1,486.0,15,phase_2,red_triangle,stop,purple,400.0,tracking-SSD,go-1,3,,,,,,
1,799.0,15,phase_2,green_pentagon,go,,,,go-2,1,,,,,,
0,0,15,phase_2,red_pentagon,stop,purple,350.0,tracking-SSD,go-1,4,,,,,,
0,0,15,phase_2,green_triangle,stop,blue,0.0,0-SSD,go-2,4,,,,,,
2,656.0,15,phase_2,green_rhombus,stop,purple,400.0,tracking-SSD,go-2,3,,,,,,
0,0,15,phase_2,green_pentagon,stop,blue,0.0,0-SSD,go-2,4,,,,,,
2,673.0,15,phase_2,green_circle,go,,,,go-2,1,,,,,,
2,570.0,15,phase_2,green_circle,go,,,,go-2,1,,,,,,
2,668.0,15,phase_2,red_circle,go,,,,go-1,1,,,,,,
2,621.0,15,phase_2,green_rhombus,go,,,,go-2,1,,,,,,
1,577.0,16,phase_2,green_pentagon,go,,,,go-2,1,,,,,,
2,642.0,16,phase_2,red_rhombus,go,,,,go-1,1,,,,,,
1,944.0,16,phase_2,red_triangle,go,,,,go-1,1,,,,,,
0,0,16,phase_2,red_pentagon,stop,blue,0.0,0-SSD,go-1,4,,,,,,
0,0,16,phase_2,red_triangle,stop,purple,350.0,tracking-SSD,go-1,4,,,,,,
1,689.0,16,phase_2,green_triangle,go,,,,go-2,1,,,,,,
2,663.0,16,phase_2,green_rhombus,go,,,,go-2,1,,,,,,
2,559.0,16,phase_2,red_circle,stop,purple,400.0,tracking-SSD,go-1,3,,,,,,
0,0,16,phase_2,green_circle,stop,blue,0.0,0-SSD,go-2,4,,,,,,
1,532.0,16,phase_2,red_triangle,go,,,,go-1,1,,,,,,
0,0,16,phase_2,green_circle,stop,blue,0.0,0-SSD,go-2,4,,,,,,
0,0,16,phase_2,green_rhombus,stop,blue,0.0,0-SSD,go-2,4,,,,,,
1,638.0,16,phase_2,red_pentagon,go,,,,go-1,1,,,,,,
0,0,16,phase_2,red_circle,stop,blue,0.0,0-SSD,go-1,4,,,,,,
2,587.0,16,phase_2,red_rhombus,go,,,,go-1,1,,,,,,
0,0,16,phase_2,green_rhombus,stop,purple,350.0,tracking-SSD,go-2,4,,,,,,
2,559.0,16,phase_2,green_circle,go,,,,go-2,1,,,,,,
2,513.0,16,phase_2,green_circle,go,,,,go-2,1,,,,,,
1,621.0,16,phase_2,red_pentagon,go,,,,go-1,1,,,,,,
1,574.0,16,phase_2,red_pentagon,go,,,,go-1,1,,,,,,
1,605.0,16,phase_2,green_triangle,go,,,,go-2,1,,,,,,
1,614.0,16,phase_2,green_pentagon,go,,,,go-2,1,,,,,,
2,555.0,16,phase_2,red_circle,go,,,,go-1,1,,,,,,
2,698.0,16,phase_2,green_circle,go,,,,go-2,1,,,,,,
0,0,16,phase_2,green_rhombus,go,,,,go-2,2,,,,,,
1,582.0,16,phase_2,red_pentagon,go,,,,go-1,1,,,,,,
1,647.0,16,phase_2,green_pentagon,go,,,,go-2,1,,,,,,
1,622.0,16,phase_2,red_pentagon,go,,,,go-1,1,,,,,,
2,619.0,16,phase_2,green_rhombus,go,,,,go-2,1,,,,,,
2,638.0,16,phase_2,red_circle,go,,,,go-1,1,,,,,,
0,0,16,phase_2,red_rhombus,stop,purple,400.0,tracking-SSD,go-1,4,,,,,,
0,0,16,phase_2,red_triangle,stop,blue,0.0,0-SSD,go-1,4,,,,,,
1,507.0,16,phase_2,green_triangle,stop,purple,450.0,tracking-SSD,go-2,3,,,,,,
2,605.0,16,phase_2,red_circle,go,,,,go-1,1,,,,,,
1,806.0,16,phase_2,green_triangle,go,,,,go-2,1,,,,,,
2,646.0,16,phase_2,red_rhombus,go,,,,go-1,1,,,,,,
1,587.0,16,phase_2,red_pentagon,go,,,,go-1,1,,,,,,
1,439.0,16,phase_2,green_rhombus,stop,purple,400.0,tracking-SSD,go-2,3,,,,,,
1,705.0,16,phase_2,green_triangle,go,,,,go-2,1,,,,,,
2,523.0,16,phase_2,green_circle,go,,,,go-2,1,,,,,,
1,543.0,16,phase_2,green_pentagon,stop,purple,350.0,tracking-SSD,go-2,3,,,,,,
0,0,16,phase_2,red_triangle,stop,blue,0.0,0-SSD,go-1,4,,,,,,
0,0,16,phase_2,green_rhombus,stop,blue,0.0,0-SSD,go-2,4,,,,,,
1,581.0,16,phase_2,green_pentagon,go,,,,go-2,1,,,,,,
1,611.0,16,phase_2,green_triangle,go,,,,go-2,1,,,,,,
2,496.0,16,phase_2,red_circle,stop,purple,300.0,tracking-SSD,go-1,3,,,,,,
1,573.0,16,phase_2,red_triangle,go,,,,go-1,1,,,,,,
2,627.0,16,phase_2,red_rhombus,go,,,,go-1,1,,,,,,
0,0,17,phase_2,red_rhombus,stop,purple,250.0,tracking-SSD,go-1,4,,,,,,
1,553.0,17,phase_2,green_triangle,go,,,,go-2,1,,,,,,
2,550.0,17,phase_2,red_circle,go,,,,go-1,1,,,,,,
2,615.0,17,phase_2,red_circle,go,,,,go-1,1,,,,,,
0,0,17,phase_2,green_rhombus,stop,blue,0.0,0-SSD,go-2,4,,,,,,
1,587.0,17,phase_2,green_pentagon,go,,,,go-2,1,,,,,,
2,573.0,17,phase_2,red_circle,go,,,,go-1,1,,,,,,
0,0,17,phase_2,red_circle,stop,blue,0.0,0-SSD,go-1,4,,,,,,
1,568.0,17,phase_2,red_triangle,go,,,,go-1,1,,,,,,
1,633.0,17,phase_2,green_pentagon,go,,,,go-2,1,,,,,,
2,586.0,17,phase_2,green_rhombus,go,,,,go-2,1,,,,,,
2,662.0,17,phase_2,green_rhombus,go,,,,go-2,1,,,,,,
1,626.0,17,phase_2,green_triangle,go,,,,go-2,1,,,,,,
0,0,17,phase_2,red_rhombus,stop,purple,300.0,tracking-SSD,go-1,4,,,,,,
2,677.0,17,phase_2,red_rhombus,go,,,,go-1,1,,,,,,
1,754.0,17,phase_2,green_pentagon,go,,,,go-2,1,,,,,,
1,740.0,17,phase_2,red_pentagon,go,,,,go-1,1,,,,,,
0,0,17,phase_2,green_rhombus,stop,blue,0.0,0-SSD,go-2,4,,,,,,
1,543.0,17,phase_2,green_triangle,go,,,,go-2,1,,,,,,
0,0,17,phase_2,green_triangle,stop,blue,0.0,0-SSD,go-2,4,,,,,,
2,594.0,17,phase_2,green_rhombus,stop,purple,350.0,tracking-SSD,go-2,3,,,,,,
2,557.0,17,phase_2,red_circle,go,,,,go-1,1,,,,,,
1,544.0,17,phase_2,red_triangle,go,,,,go-1,1,,,,,,
2,530.0,17,phase_2,red_circle,go,,,,go-1,1,,,,,,
0,0,17,phase_2,red_circle,stop,purple,300.0,tracking-SSD,go-1,4,,,,,,
2,615.0,17,phase_2,red_circle,go,,,,go-1,1,,,,,,
2,658.0,17,phase_2,red_rhombus,go,,,,go-1,1,,,,,,
2,700.0,17,phase_2,green_circle,go,,,,go-2,1,,,,,,
0,0,17,phase_2,green_pentagon,stop,purple,350.0,tracking-SSD,go-2,4,,,,,,
1,627.0,17,phase_2,red_triangle,go,,,,go-1,1,,,,,,
1,850.0,17,phase_2,green_pentagon,go,,,,go-2,1,,,,,,
1,599.0,17,phase_2,green_triangle,go,,,,go-2,1,,,,,,
2,529.0,17,phase_2,green_circle,go,,,,go-2,1,,,,,,
2,516.0,17,phase_2,red_circle,go,,,,go-1,1,,,,,,
0,0,17,phase_2,red_rhombus,stop,blue,0.0,0-SSD,go-1,4,,,,,,
0,0,17,phase_2,red_triangle,stop,blue,0.0,0-SSD,go-1,4,,,,,,
1,643.0,17,phase_2,red_pentagon,go,,,,go-1,1,,,,,,
1,674.0,17,phase_2,green_triangle,go,,,,go-2,1,,,,,,
1,536.0,17,phase_2,green_pentagon,stop,purple,400.0,tracking-SSD,go-2,3,,,,,,
1,590.0,17,phase_2,green_pentagon,go,,,,go-2,1,,,,,,
1,690.0,17,phase_2,red_triangle,go,,,,go-1,1,,,,,,
1,609.0,17,phase_2,red_pentagon,go,,,,go-1,1,,,,,,
0,0,17,phase_2,green_pentagon,stop,blue,0.0,0-SSD,go-2,4,,,,,,
2,502.0,17,phase_2,green_rhombus,go,,,,go-2,1,,,,,,
1,533.0,17,phase_2,red_pentagon,stop,purple,350.0,tracking-SSD,go-1,3,,,,,,
0,0,17,phase_2,red_triangle,stop,blue,0.0,0-SSD,go-1,4,,,,,,
2,607.0,17,phase_2,green_circle,go,,,,go-2,1,,,,,,
0,0,17,phase_2,green_rhombus,stop,purple,300.0,tracking-SSD,go-2,4,,,,,,
,1229.0,1,phase_3,,,,,,,,purple_square,tracking-SSD,red_square,go-1,purple_square,tracking-SSD
,1067.0,1,phase_3,,,,,,,,purple_square,tracking-SSD,blue_square,0-SSD,purple_square,tracking-SSD
,2470.0,1,phase_3,,,,,,,,blue_square,0-SSD,red_square,go-1,blue_square,0-SSD
,687.0,1,phase_3,,,,,,,,green_square,go-2,red_square,go-1,green_square,go-2
,592.0,1,phase_3,,,,,,,,green_square,go-2,green_square,go-2,blue_square,0-SSD
,949.0,1,phase_3,,,,,,,,green_square,go-2,green_square,go-2,purple_square,tracking-SSD
,979.0,1,phase_3,,,,,,,,green_square,go-2,purple_square,tracking-SSD,green_square,go-2
,1041.0,1,phase_3,,,,,,,,purple_square,tracking-SSD,purple_square,tracking-SSD,blue_square,0-SSD
,642.0,1,phase_3,,,,,,,,red_square,go-1,purple_square,tracking-SSD,red_square,go-1
,729.0,1,phase_3,,,,,,,,green_square,go-2,green_square,go-2,red_square,go-1
,623.0,1,phase_3,,,,,,,,red_square,go-1,blue_square,0-SSD,red_square,go-1
,810.0,1,phase_3,,,,,,,,green_square,go-2,blue_square,0-SSD,green_square,go-2
,1106.0,2,phase_3,,,,,,,,purple_square,tracking-SSD,red_square,go-1,purple_square,tracking-SSD
,662.0,2,phase_3,,,,,,,,purple_square,tracking-SSD,blue_square,0-SSD,purple_square,tracking-SSD
,1107.0,2,phase_3,,,,,,,,purple_square,tracking-SSD,green_square,go-2,purple_square,tracking-SSD
,732.0,2,phase_3,,,,,,,,red_square,go-1,red_square,go-1,blue_square,0-SSD
,896.0,2,phase_3,,,,,,,,green_square,go-2,red_square,go-1,green_square,go-2
,554.0,2,phase_3,,,,,,,,green_square,go-2,green_square,go-2,blue_square,0-SSD
,685.0,2,phase_3,,,,,,,,green_square,go-2,blue_square,0-SSD,green_square,go-2
,782.0,2,phase_3,,,,,,,,red_square,go-1,blue_square,0-SSD,red_square,go-1
,1137.0,2,phase_3,,,,,,,,green_square,go-2,green_square,go-2,red_square,go-1
,874.0,2,phase_3,,,,,,,,green_square,go-2,purple_square,tracking-SSD,green_square,go-2
,566.0,2,phase_3,,,,,,,,purple_square,tracking-SSD,purple_square,tracking-SSD,red_square,go-1
,629.0,2,phase_3,,,,,,,,purple_square,tracking-SSD,purple_square,tracking-SSD,blue_square,0-SSD
,735.0,3,phase_3,,,,,,,,purple_square,tracking-SSD,blue_square,0-SSD,purple_square,tracking-SSD
,776.0,3,phase_3,,,,,,,,purple_square,tracking-SSD,red_square,go-1,purple_square,tracking-SSD
,568.0,3,phase_3,,,,,,,,red_square,go-1,red_square,go-1,blue_square,0-SSD
,800.0,3,phase_3,,,,,,,,green_square,go-2,green_square,go-2,blue_square,0-SSD
,750.0,3,phase_3,,,,,,,,green_square,go-2,red_square,go-1,green_square,go-2
,1050.0,3,phase_3,,,,,,,,green_square,go-2,green_square,go-2,purple_square,tracking-SSD
,1011.0,3,phase_3,,,,,,,,purple_square,tracking-SSD,purple_square,tracking-SSD,red_square,go-1
,894.0,3,phase_3,,,,,,,,green_square,go-2,green_square,go-2,red_square,go-1
,473.0,3,phase_3,,,,,,,,green_square,go-2,blue_square,0-SSD,green_square,go-2
,605.0,3,phase_3,,,,,,,,green_square,go-2,purple_square,tracking-SSD,green_square,go-2
,689.0,3,phase_3,,,,,,,,purple_square,tracking-SSD,purple_square,tracking-SSD,blue_square,0-SSD
,618.0,3,phase_3,,,,,,,,red_square,go-1,blue_square,0-SSD,red_square,go-1
,948.0,4,phase_3,,,,,,,,green_square,go-2,red_square,go-1,green_square,go-2
,494.0,4,phase_3,,,,,,,,green_square,go-2,green_square,go-2,purple_square,tracking-SSD
,546.0,4,phase_3,,,,,,,,purple_square,tracking-SSD,red_square,go-1,purple_square,tracking-SSD
,530.0,4,phase_3,,,,,,,,purple_square,tracking-SSD,blue_square,0-SSD,purple_square,tracking-SSD
,659.0,4,phase_3,,,,,,,,red_square,go-1,red_square,go-1,blue_square,0-SSD
,599.0,4,phase_3,,,,,,,,green_square,go-2,green_square,go-2,blue_square,0-SSD
,1012.0,4,phase_3,,,,,,,,red_square,go-1,blue_square,0-SSD,red_square,go-1
,1422.0,4,phase_3,,,,,,,,purple_square,tracking-SSD,purple_square,tracking-SSD,red_square,go-1
,743.0,4,phase_3,,,,,,,,green_square,go-2,purple_square,tracking-SSD,green_square,go-2
,627.0,4,phase_3,,,,,,,,green_square,go-2,blue_square,0-SSD,green_square,go-2
,791.0,4,phase_3,,,,,,,,green_square,go-2,green_square,go-2,red_square,go-1
,932.0,4,phase_3,,,,,,,,purple_square,tracking-SSD,purple_square,tracking-SSD,blue_square,0-SSD
,790.0,5,phase_3,,,,,,,,red_square,go-1,red_square,go-1,blue_square,0-SSD
,1000.0,5,phase_3,,,,,,,,purple_square,tracking-SSD,red_square,go-1,purple_square,tracking-SSD
,1264.0,5,phase_3,,,,,,,,green_square,go-2,red_square,go-1,green_square,go-2
,1001.0,5,phase_3,,,,,,,,purple_square,tracking-SSD,blue_square,0-SSD,purple_square,tracking-SSD
,1042.0,5,phase_3,,,,,,,,green_square,go-2,green_square,go-2,blue_square,0-SSD
,880.0,5,phase_3,,,,,,,,green_square,go-2,green_square,go-2,purple_square,tracking-SSD
,797.0,5,phase_3,,,,,,,,green_square,go-2,blue_square,0-SSD,green_square,go-2
,961.0,5,phase_3,,,,,,,,green_square,go-2,green_square,go-2,red_square,go-1
,822.0,5,phase_3,,,,,,,,purple_square,tracking-SSD,purple_square,tracking-SSD,blue_square,0-SSD
,1211.0,5,phase_3,,,,,,,,purple_square,tracking-SSD,purple_square,tracking-SSD,red_square,go-1
,971.0,5,phase_3,,,,,,,,red_square,go-1,blue_square,0-SSD,red_square,go-1
,921.0,5,phase_3,,,,,,,,green_square,go-2,purple_square,tracking-SSD,green_square,go-2
