response,reaction_time,block,which_phase,stim,stop_signal_trial_type,stop_signal_stimulus,SSD,SSD_type,condition,accuracy,chosen_stim,chosen_cond,stim_left,cond_left,stim_right,cond_right
0,0,1,phase_2,red_circle,stop,green,0.0,0-SSD,go-2,4,,,,,,
1,539.0,1,phase_2,blue_pentagon,go,,,,go-1,1,,,,,,
1,627.0,1,phase_2,blue_rhombus,stop,purple,250.0,tracking-SSD,go-1,3,,,,,,
1,974.0,1,phase_2,red_rhombus,go,,,,go-2,1,,,,,,
2,533.0,1,phase_2,red_triangle,stop,purple,200.0,tracking-SSD,go-2,3,,,,,,
2,620.0,1,phase_2,red_circle,go,,,,go-2,1,,,,,,
0,0,1,phase_2,red_pentagon,stop,purple,150.0,tracking-SSD,go-2,4,,,,,,
1,749.0,1,phase_2,blue_pentagon,go,,,,go-1,1,,,,,,
1,477.0,1,phase_2,blue_pentagon,go,,,,go-1,1,,,,,,
2,486.0,1,phase_2,red_circle,go,,,,go-2,1,,,,,,
0,0,1,phase_2,red_circle,stop,green,0.0,0-SSD,go-2,4,,,,,,
1,594.0,1,phase_2,red_rhombus,go,,,,go-2,1,,,,,,
2,614.0,1,phase_2,red_triangle,go,,,,go-2,1,,,,,,
2,510.0,1,phase_2,red_triangle,go,,,,go-2,1,,,,,,
0,0,1,phase_2,blue_pentagon,stop,purple,200.0,tracking-SSD,go-1,4,,,,,,
1,574.0,1,phase_2,blue_pentagon,go,,,,go-1,1,,,,,,
0,0,1,phase_2,red_rhombus,stop,purple,250.0,tracking-SSD,go-2,4,,,,,,
1,615.0,1,phase_2,blue_rhombus,go,,,,go-1,1,,,,,,
2,511.0,1,phase_2,blue_circle,go,,,,go-1,1,,,,,,
0,0,1,phase_2,blue_circle,stop,green,0.0,0-SSD,go-1,4,,,,,,
1,663.0,1,phase_2,red_rhombus,go,,,,go-2,1,,,,,,
2,515.0,1,phase_2,blue_circle,go,,,,go-1,1,,,,,,
1,422.0,1,phase_2,red_triangle,go,,,,go-2,2,,,,,,
2,802.0,1,phase_2,blue_triangle,go,,,,go-1,1,,,,,,
1,597.0,1,phase_2,red_pentagon,go,,,,go-2,1,,,,,,
1,685.0,1,phase_2,blue_rhombus,go,,,,go-1,1,,,,,,
0,0,1,phase_2,red_triangle,stop,green,0.0,0-SSD,go-2,4,,,,,,
2,623.0,1,phase_2,blue_triangle,go,,,,go-1,1,,,,,,
2,441.0,1,phase_2,blue_triangle,go,,,,go-1,1,,,,,,
2,416.0,1,phase_2,red_triangle,stop,purple,300.0,tracking-SSD,go-2,3,,,,,,
2,672.0,1,phase_2,red_circle,go,,,,go-2,1,,,,,,
0,0,1,phase_2,blue_pentagon,stop,purple,250.0,tracking-SSD,go-1,4,,,,,,
1,578.0,1,phase_2,red_rhombus,go,,,,go-2,1,,,,,,
1,553.0,1,phase_2,red_pentagon,go,,,,go-2,1,,,,,,
2,561.0,1,phase_2,blue_triangle,go,,,,go-1,1,,,,,,
1,548.0,1,phase_2,blue_rhombus,go,,,,go-1,1,,,,,,
1,614.0,1,phase_2,blue_pentagon,go,,,,go-1,1,,,,,,
0,0,1,phase_2,blue_rhombus,stop,green,0.0,0-SSD,go-1,4,,,,,,
0,0,1,phase_2,blue_rhombus,stop,green,0.0,0-SSD,go-1,4,,,,,,
2,540.0,1,phase_2,blue_circle,go,,,,go-1,1,,,,,,
1,604.0,1,phase_2,blue_rhombus,go,,,,go-1,1,,,,,,
0,0,1,phase_2,blue_circle,stop,green,0.0,0-SSD,go-1,4,,,,,,
1,712.0,1,phase_2,red_triangle,go,,,,go-2,2,,,,,,
2,564.0,1,phase_2,red_circle,go,,,,go-2,1,,,,,,
0,0,1,phase_2,red_pentagon,stop,green,0.0,0-SSD,go-2,4,,,,,,
0,0,1,phase_2,blue_pentagon,stop,purple,300.0,tracking-SSD,go-1,4,,,,,,
2,625.0,1,phase_2,red_triangle,go,,,,go-2,1,,,,,,
2,453.0,1,phase_2,red_circle,go,,,,go-2,1,,,,,,
2,487.0,2,phase_2,blue_triangle,go,,,,go-1,1,,,,,,
2,416.0,2,phase_2,blue_circle,go,,,,go-1,1,,,,,,
2,471.0,2,phase_2,red_circle,go,,,,go-2,1,,,,,,
0,0,2,phase_2,red_rhombus,stop,green,0.0,0-SSD,go-2,4,,,,,,
2,456.0,2,phase_2,blue_circle,go,,,,go-1,1,,,,,,
0,0,2,phase_2,blue_rhombus,stop,green,0.0,0-SSD,go-1,4,,,,,,
1,619.0,2,phase_2,blue_rhombus,go,,,,go-1,1,,,,,,
1,593.0,2,phase_2,red_pentagon,go,,,,go-2,1,,,,,,
1,490.0,2,phase_2,blue_pentagon,go,,,,go-1,1,,,,,,
1,579.0,2,phase_2,red_rhombus,go,,,,go-2,1,,,,,,
1,565.0,2,phase_2,red_pentagon,stop,purple,350.0,tracking-SSD,go-2,3,,,,,,
0,0,2,phase_2,blue_triangle,stop,green,0.0,0-SSD,go-1,4,,,,,,
0,0,2,phase_2,red_pentagon,stop,purple,300.0,tracking-SSD,go-2,4,,,,,,
0,0,2,phase_2,blue_rhombus,stop,purple,350.0,tracking-SSD,go-1,4,,,,,,
2,555.0,2,phase_2,blue_circle,go,,,,go-1,1,,,,,,
2,620.0,2,phase_2,blue_triangle,go,,,,go-1,1,,,,,,
2,461.0,2,phase_2,red_triangle,go,,,,go-2,1,,,,,,
0,0,2,phase_2,red_circle,stop,green,0.0,0-SSD,go-2,4,,,,,,
2,511.0,2,phase_2,blue_triangle,go,,,,go-1,1,,,,,,
0,0,2,phase_2,red_circle,stop,green,0.0,0-SSD,go-2,4,,,,,,
2,496.0,2,phase_2,red_triangle,stop,purple,400.0,tracking-SSD,go-2,3,,,,,,
0,0,2,phase_2,red_triangle,stop,green,0.0,0-SSD,go-2,4,,,,,,
1,591.0,2,phase_2,blue_rhombus,go,,,,go-1,1,,,,,,
2,589.0,2,phase_2,red_triangle,go,,,,go-2,1,,,,,,
2,665.0,2,phase_2,red_triangle,go,,,,go-2,1,,,,,,
0,0,2,phase_2,red_pentagon,stop,purple,350.0,tracking-SSD,go-2,4,,,,,,
2,662.0,2,phase_2,red_rhombus,go,,,,go-2,2,,,,,,
0,0,2,phase_2,blue_circle,stop,green,0.0,0-SSD,go-1,4,,,,,,
1,669.0,2,phase_2,blue_rhombus,go,,,,go-1,1,,,,,,
1,554.0,2,phase_2,blue_pentagon,stop,purple,400.0,tracking-SSD,go-1,3,,,,,,
0,0,2,phase_2,blue_triangle,stop,green,0.0,0-SSD,go-1,4,,,,,,
2,515.0,2,phase_2,blue_circle,go,,,,go-1,1,,,,,,
1,737.0,2,phase_2,red_rhombus,go,,,,go-2,1,,,,,,
2,510.0,2,phase_2,red_triangle,go,,,,go-2,1,,,,,,
1,609.0,2,phase_2,red_pentagon,go,,,,go-2,1,,,,,,
2,459.0,2,phase_2,blue_circle,stop,purple,350.0,tracking-SSD,go-1,3,,,,,,
1,761.0,2,phase_2,red_pentagon,go,,,,go-2,1,,,,,,
1,625.0,2,phase_2,blue_pentagon,go,,,,go-1,1,,,,,,
1,543.0,2,phase_2,red_rhombus,go,,,,go-2,1,,,,,,
1,574.0,2,phase_2,blue_rhombus,go,,,,go-1,1,,,,,,
2,527.0,2,phase_2,red_circle,go,,,,go-2,1,,,,,,
1,492.0,2,phase_2,blue_pentagon,go,,,,go-1,1,,,,,,
2,477.0,2,phase_2,blue_circle,go,,,,go-1,1,,,,,,
1,599.0,2,phase_2,red_pentagon,go,,,,go-2,1,,,,,,
1,540.0,2,phase_2,red_rhombus,go,,,,go-2,1,,,,,,
2,403.0,2,phase_2,blue_circle,go,,,,go-1,1,,,,,,
0,0,2,phase_2,blue_triangle,stop,purple,300.0,tracking-SSD,go-1,4,,,,,,
1,625.0,2,phase_2,red_pentagon,go,,,,go-2,1,,,,,,
1,509.0,3,phase_2,red_triangle,go,,,,go-2,2,,,,,,
1,586.0,3,phase_2,red_pentagon,go,,,,go-2,1,,,,,,
2,482.0,3,phase_2,blue_circle,go,,,,go-1,1,,,,,,
0,0,3,phase_2,blue_triangle,stop,green,0.0,0-SSD,go-1,4,,,,,,
2,544.0,3,phase_2,blue_triangle,stop,purple,350.0,tracking-SSD,go-1,3,,,,,,
0,0,3,phase_2,red_rhombus,stop,purple,300.0,tracking-SSD,go-2,4,,,,,,
0,0,3,phase_2,blue_pentagon,stop,green,0.0,0-SSD,go-1,4,,,,,,
2,379.0,3,phase_2,red_circle,stop,purple,350.0,tracking-SSD,go-2,3,,,,,,
0,0,3,phase_2,blue_rhombus,stop,green,0.0,0-SSD,go-1,4,,,,,,
0,0,3,phase_2,red_pentagon,stop,green,0.0,0-SSD,go-2,4,,,,,,
2,665.0,3,phase_2,blue_circle,go,,,,go-1,1,,,,,,
1,605.0,3,phase_2,red_pentagon,go,,,,go-2,1,,,,,,
1,547.0,3,phase_2,blue_pentagon,go,,,,go-1,1,,,,,,
2,521.0,3,phase_2,red_triangle,go,,,,go-2,1,,,,,,
2,823.0,3,phase_2,blue_triangle,go,,,,go-1,1,,,,,,
1,798.0,3,phase_2,blue_rhombus,go,,,,go-1,1,,,,,,
2,505.0,3,phase_2,blue_circle,go,,,,go-1,1,,,,,,
1,603.0,3,phase_2,red_rhombus,go,,,,go-2,1,,,,,,
1,590.0,3,phase_2,blue_pentagon,go,,,,go-1,1,,,,,,
1,970.0,3,phase_2,blue_rhombus,go,,,,go-1,1,,,,,,
2,417.0,3,phase_2,red_circle,go,,,,go-2,1,,,,,,
2,436.0,3,phase_2,blue_circle,go,,,,go-1,1,,,,,,
0,0,3,phase_2,red_circle,stop,purple,300.0,tracking-SSD,go-2,4,,,,,,
2,521.0,3,phase_2,red_triangle,stop,purple,350.0,tracking-SSD,go-2,3,,,,,,
1,1037.0,3,phase_2,red_pentagon,go,,,,go-2,1,,,,,,
2,528.0,3,phase_2,blue_triangle,go,,,,go-1,1,,,,,,
1,548.0,3,phase_2,red_rhombus,go,,,,go-2,1,,,,,,
2,546.0,3,phase_2,blue_circle,go,,,,go-1,1,,,,,,
0,0,3,phase_2,blue_rhombus,stop,purple,300.0,tracking-SSD,go-1,4,,,,,,
0,0,3,phase_2,blue_circle,stop,green,0.0,0-SSD,go-1,4,,,,,,
1,574.0,3,phase_2,blue_rhombus,go,,,,go-1,1,,,,,,
0,0,3,phase_2,red_circle,stop,green,0.0,0-SSD,go-2,4,,,,,,
2,444.0,3,phase_2,blue_rhombus,go,,,,go-1,2,,,,,,
1,556.0,3,phase_2,blue_pentagon,go,,,,go-1,1,,,,,,
2,587.0,3,phase_2,red_triangle,go,,,,go-2,1,,,,,,
1,618.0,3,phase_2,red_pentagon,go,,,,go-2,1,,,,,,
2,649.0,3,phase_2,red_triangle,go,,,,go-2,1,,,,,,
1,715.0,3,phase_2,blue_rhombus,go,,,,go-1,1,,,,,,
2,455.0,3,phase_2,blue_circle,go,,,,go-1,1,,,,,,
1,576.0,3,phase_2,red_rhombus,go,,,,go-2,1,,,,,,
2,507.0,3,phase_2,red_triangle,go,,,,go-2,1,,,,,,
1,537.0,3,phase_2,red_rhombus,go,,,,go-2,1,,,,,,
0,0,3,phase_2,red_pentagon,stop,green,0.0,0-SSD,go-2,4,,,,,,
1,668.0,3,phase_2,red_pentagon,go,,,,go-2,1,,,,,,
2,486.0,3,phase_2,blue_triangle,stop,purple,350.0,tracking-SSD,go-1,3,,,,,,
0,0,3,phase_2,blue_pentagon,stop,purple,300.0,tracking-SSD,go-1,4,,,,,,
2,528.0,3,phase_2,red_triangle,go,,,,go-2,1,,,,,,
0,0,3,phase_2,red_circle,stop,green,0.0,0-SSD,go-2,4,,,,,,
1,611.0,4,phase_2,blue_rhombus,go,,,,go-1,1,,,,,,
2,508.0,4,phase_2,blue_triangle,go,,,,go-1,1,,,,,,
1,529.0,4,phase_2,blue_rhombus,go,,,,go-1,1,,,,,,
1,650.0,4,phase_2,red_pentagon,go,,,,go-2,1,,,,,,
1,536.0,4,phase_2,red_pentagon,go,,,,go-2,1,,,,,,
2,444.0,4,phase_2,blue_circle,go,,,,go-1,1,,,,,,
1,554.0,4,phase_2,red_rhombus,go,,,,go-2,1,,,,,,
2,462.0,4,phase_2,red_circle,go,,,,go-2,1,,,,,,
2,763.0,4,phase_2,red_triangle,go,,,,go-2,1,,,,,,
2,479.0,4,phase_2,red_circle,stop,purple,350.0,tracking-SSD,go-2,3,,,,,,
1,601.0,4,phase_2,red_pentagon,go,,,,go-2,1,,,,,,
2,374.0,4,phase_2,blue_rhombus,go,,,,go-1,2,,,,,,
2,754.0,4,phase_2,red_triangle,go,,,,go-2,1,,,,,,
1,674.0,4,phase_2,red_rhombus,go,,,,go-2,1,,,,,,
1,503.0,4,phase_2,red_rhombus,go,,,,go-2,1,,,,,,
0,0,4,phase_2,red_triangle,stop,green,0.0,0-SSD,go-2,4,,,,,,
2,499.0,4,phase_2,blue_circle,go,,,,go-1,1,,,,,,
2,462.0,4,phase_2,red_triangle,go,,,,go-2,1,,,,,,
0,0,4,phase_2,blue_pentagon,stop,green,0.0,0-SSD,go-1,4,,,,,,
0,0,4,phase_2,red_triangle,stop,green,0.0,0-SSD,go-2,4,,,,,,
1,523.0,4,phase_2,blue_pentagon,go,,,,go-1,1,,,,,,
1,486.0,4,phase_2,red_pentagon,go,,,,go-2,1,,,,,,
2,427.0,4,phase_2,blue_triangle,go,,,,go-1,1,,,,,,
2,503.0,4,phase_2,blue_pentagon,go,,,,go-1,2,,,,,,
0,0,4,phase_2,blue_rhombus,stop,purple,300.0,tracking-SSD,go-1,4,,,,,,
0,0,4,phase_2,blue_circle,stop,green,0.0,0-SSD,go-1,4,,,,,,
1,644.0,4,phase_2,blue_rhombus,go,,,,go-1,1,,,,,,
0,0,4,phase_2,red_circle,stop,purple,350.0,tracking-SSD,go-2,4,,,,,,
1,550.0,4,phase_2,blue_rhombus,go,,,,go-1,1,,,,,,
0,0,4,phase_2,blue_circle,stop,green,0.0,0-SSD,go-1,4,,,,,,
2,759.0,4,phase_2,red_circle,go,,,,go-2,1,,,,,,
2,520.0,4,phase_2,blue_triangle,go,,,,go-1,1,,,,,,
2,517.0,4,phase_2,blue_circle,go,,,,go-1,1,,,,,,
2,403.0,4,phase_2,red_triangle,go,,,,go-2,1,,,,,,
2,445.0,4,phase_2,blue_circle,stop,purple,400.0,tracking-SSD,go-1,3,,,,,,
1,624.0,4,phase_2,blue_pentagon,go,,,,go-1,1,,,,,,
1,600.0,4,phase_2,red_pentagon,stop,purple,350.0,tracking-SSD,go-2,3,,,,,,
0,0,4,phase_2,blue_circle,stop,green,0.0,0-SSD,go-1,4,,,,,,
1,526.0,4,phase_2,red_pentagon,go,,,,go-2,1,,,,,,
0,0,4,phase_2,red_pentagon,stop,purple,300.0,tracking-SSD,go-2,4,,,,,,
1,635.0,4,phase_2,blue_pentagon,go,,,,go-1,1,,,,,,
2,689.0,4,phase_2,red_triangle,go,,,,go-2,1,,,,,,
0,0,4,phase_2,blue_triangle,stop,purple,350.0,tracking-SSD,go-1,4,,,,,,
2,537.0,4,phase_2,blue_circle,stop,purple,400.0,tracking-SSD,go-1,3,,,,,,
0,0,4,phase_2,red_rhombus,stop,green,0.0,0-SSD,go-2,4,,,,,,
0,0,4,phase_2,red_triangle,stop,green,0.0,0-SSD,go-2,4,,,,,,
1,634.0,4,phase_2,red_rhombus,go,,,,go-2,1,,,,,,
2,799.0,4,phase_2,blue_rhombus,go,,,,go-1,2,,,,,,
1,554.0,5,phase_2,blue_rhombus,go,,,,go-1,1,,,,,,
2,507.0,5,phase_2,red_triangle,go,,,,go-2,1,,,,,,
2,584.0,5,phase_2,red_triangle,go,,,,go-2,1,,,,,,
1,671.0,5,phase_2,red_rhombus,go,,,,go-2,1,,,,,,
1,646.0,5,phase_2,blue_pentagon,go,,,,go-1,1,,,,,,
1,542.0,5,phase_2,red_pentagon,go,,,,go-2,1,,,,,,
1,540.0,5,phase_2,blue_pentagon,go,,,,go-1,1,,,,,,
1,493.0,5,phase_2,red_pentagon,go,,,,go-2,1,,,,,,
0,0,5,phase_2,red_triangle,stop,green,0.0,0-SSD,go-2,4,,,,,,
2,568.0,5,phase_2,red_triangle,go,,,,go-2,1,,,,,,
0,0,5,phase_2,red_pentagon,stop,green,0.0,0-SSD,go-2,4,,,,,,
0,0,5,phase_2,red_circle,stop,green,0.0,0-SSD,go-2,4,,,,,,
0,0,5,phase_2,red_rhombus,stop,purple,350.0,tracking-SSD,go-2,4,,,,,,
0,0,5,phase_2,blue_rhombus,stop,green,0.0,0-SSD,go-1,4,,,,,,
2,702.0,5,phase_2,blue_triangle,stop,purple,400.0,tracking-SSD,go-1,3,,,,,,
2,529.0,5,phase_2,blue_circle,go,,,,go-1,1,,,,,,
1,999.0,5,phase_2,red_rhombus,go,,,,go-2,1,,,,,,
1,570.0,5,phase_2,red_pentagon,go,,,,go-2,1,,,,,,
2,523.0,5,phase_2,blue_rhombus,go,,,,go-1,2,,,,,,
1,664.0,5,phase_2,red_pentagon,go,,,,go-2,1,,,,,,
0,0,5,phase_2,red_circle,go,,,,go-2,2,,,,,,
2,522.0,5,phase_2,red_triangle,go,,,,go-2,1,,,,,,
2,374.0,5,phase_2,blue_circle,go,,,,go-1,1,,,,,,
2,439.0,5,phase_2,blue_rhombus,stop,purple,350.0,tracking-SSD,go-1,3,,,,,,
1,797.0,5,phase_2,red_rhombus,go,,,,go-2,1,,,,,,
0,0,5,phase_2,blue_rhombus,stop,green,0.0,0-SSD,go-1,4,,,,,,
0,0,5,phase_2,blue_pentagon,stop,green,0.0,0-SSD,go-1,4,,,,,,
1,533.0,5,phase_2,blue_rhombus,go,,,,go-1,1,,,,,,
0,0,5,phase_2,blue_triangle,stop,purple,300.0,tracking-SSD,go-1,4,,,,,,
0,0,5,phase_2,blue_circle,stop,green,0.0,0-SSD,go-1,4,,,,,,
1,661.0,5,phase_2,blue_rhombus,go,,,,go-1,1,,,,,,
2,579.0,5,phase_2,blue_circle,go,,,,go-1,1,,,,,,
2,655.0,5,phase_2,blue_circle,go,,,,go-1,1,,,,,,
2,450.0,5,phase_2,blue_circle,stop,purple,350.0,tracking-SSD,go-1,3,,,,,,
2,672.0,5,phase_2,blue_circle,go,,,,go-1,1,,,,,,
2,423.0,5,phase_2,blue_circle,go,,,,go-1,1,,,,,,
1,578.0,5,phase_2,red_rhombus,go,,,,go-2,1,,,,,,
0,0,5,phase_2,red_triangle,stop,green,0.0,0-SSD,go-2,4,,,,,,
1,731.0,5,phase_2,blue_pentagon,go,,,,go-1,1,,,,,,
2,571.0,5,phase_2,blue_circle,go,,,,go-1,1,,,,,,
0,0,5,phase_2,red_triangle,stop,purple,300.0,tracking-SSD,go-2,4,,,,,,
2,1005.0,5,phase_2,blue_triangle,go,,,,go-1,1,,,,,,
2,552.0,5,phase_2,red_triangle,go,,,,go-2,1,,,,,,
2,369.0,5,phase_2,red_circle,go,,,,go-2,1,,,,,,
1,423.0,5,phase_2,red_pentagon,stop,purple,350.0,tracking-SSD,go-2,3,,,,,,
0,0,5,phase_2,red_pentagon,stop,purple,300.0,tracking-SSD,go-2,4,,,,,,
1,577.0,5,phase_2,blue_pentagon,go,,,,go-1,1,,,,,,
2,553.0,5,phase_2,red_triangle,go,,,,go-2,1,,,,,,
1,555.0,6,phase_2,red_pentagon,go,,,,go-2,1,,,,,,
2,361.0,6,phase_2,blue_circle,go,,,,go-1,1,,,,,,
0,0,6,phase_2,blue_rhombus,stop,purple,350.0,tracking-SSD,go-1,4,,,,,,
0,0,6,phase_2,red_triangle,stop,green,0.0,0-SSD,go-2,4,,,,,,
0,0,6,phase_2,blue_circle,stop,green,0.0,0-SSD,go-1,4,,,,,,
0,0,6,phase_2,red_circle,stop,green,0.0,0-SSD,go-2,4,,,,,,
1,576.0,6,phase_2,red_pentagon,stop,purple,400.0,tracking-SSD,go-2,3,,,,,,
1,856.0,6,phase_2,blue_rhombus,go,,,,go-1,1,,,,,,
2,381.0,6,phase_2,blue_triangle,stop,purple,350.0,tracking-SSD,go-1,3,,,,,,
2,446.0,6,phase_2,blue_triangle,go,,,,go-1,1,,,,,,
2,443.0,6,phase_2,red_rhombus,go,,,,go-2,2,,,,,,
2,565.0,6,phase_2,red_circle,stop,purple,300.0,tracking-SSD,go-2,3,,,,,,
1,640.0,6,phase_2,red_pentagon,go,,,,go-2,1,,,,,,
1,727.0,6,phase_2,blue_rhombus,go,,,,go-1,1,,,,,,
0,0,6,phase_2,blue_rhombus,stop,green,0.0,0-SSD,go-1,4,,,,,,
2,543.0,6,phase_2,blue_circle,go,,,,go-1,1,,,,,,
1,575.0,6,phase_2,red_pentagon,go,,,,go-2,1,,,,,,
1,583.0,6,phase_2,blue_pentagon,go,,,,go-1,1,,,,,,
2,985.0,6,phase_2,blue_triangle,go,,,,go-1,1,,,,,,
0,0,6,phase_2,red_circle,stop,green,0.0,0-SSD,go-2,4,,,,,,
2,587.0,6,phase_2,blue_triangle,go,,,,go-1,1,,,,,,
2,450.0,6,phase_2,blue_triangle,go,,,,go-1,1,,,,,,
2,472.0,6,phase_2,red_circle,go,,,,go-2,1,,,,,,
1,525.0,6,phase_2,blue_triangle,stop,green,0.0,0-SSD,go-1,3,,,,,,
1,691.0,6,phase_2,red_rhombus,go,,,,go-2,1,,,,,,
0,0,6,phase_2,blue_triangle,stop,green,0.0,0-SSD,go-1,4,,,,,,
0,0,6,phase_2,red_rhombus,stop,green,0.0,0-SSD,go-2,4,,,,,,
0,0,6,phase_2,blue_pentagon,stop,purple,250.0,tracking-SSD,go-1,4,,,,,,
2,626.0,6,phase_2,blue_triangle,go,,,,go-1,1,,,,,,
1,782.0,6,phase_2,blue_pentagon,go,,,,go-1,1,,,,,,
1,578.0,6,phase_2,red_pentagon,go,,,,go-2,1,,,,,,
2,541.0,6,phase_2,red_triangle,go,,,,go-2,1,,,,,,
1,550.0,6,phase_2,blue_pentagon,go,,,,go-1,1,,,,,,
1,447.0,6,phase_2,red_pentagon,go,,,,go-2,1,,,,,,
2,545.0,6,phase_2,red_circle,stop,purple,300.0,tracking-SSD,go-2,3,,,,,,
1,565.0,6,phase_2,blue_pentagon,go,,,,go-1,1,,,,,,
1,777.0,6,phase_2,blue_rhombus,go,,,,go-1,1,,,,,,
0,0,6,phase_2,blue_triangle,stop,purple,250.0,tracking-SSD,go-1,4,,,,,,
2,559.0,6,phase_2,red_circle,go,,,,go-2,1,,,,,,
2,500.0,6,phase_2,red_circle,go,,,,go-2,1,,,,,,
2,431.0,6,phase_2,red_circle,go,,,,go-2,1,,,,,,
2,654.0,6,phase_2,red_triangle,go,,,,go-2,1,,,,,,
1,629.0,6,phase_2,red_rhombus,go,,,,go-2,1,,,,,,
0,0,6,phase_2,red_pentagon,stop,purple,300.0,tracking-SSD,go-2,4,,,,,,
2,568.0,6,phase_2,red_circle,go,,,,go-2,1,,,,,,
1,453.0,6,phase_2,blue_rhombus,go,,,,go-1,1,,,,,,
1,551.0,6,phase_2,red_rhombus,go,,,,go-2,1,,,,,,
1,425.0,6,phase_2,blue_rhombus,go,,,,go-1,1,,,,,,
0,0,7,phase_2,red_triangle,stop,green,0.0,0-SSD,go-2,4,,,,,,
1,610.0,7,phase_2,blue_rhombus,go,,,,go-1,1,,,,,,
2,517.0,7,phase_2,red_triangle,go,,,,go-2,1,,,,,,
1,390.0,7,phase_2,blue_rhombus,stop,purple,350.0,tracking-SSD,go-1,3,,,,,,
2,457.0,7,phase_2,red_triangle,stop,purple,300.0,tracking-SSD,go-2,3,,,,,,
2,465.0,7,phase_2,blue_circle,stop,purple,250.0,tracking-SSD,go-1,3,,,,,,
0,0,7,phase_2,red_pentagon,stop,purple,200.0,tracking-SSD,go-2,4,,,,,,
1,617.0,7,phase_2,red_pentagon,go,,,,go-2,1,,,,,,
0,0,7,phase_2,red_circle,stop,green,0.0,0-SSD,go-2,4,,,,,,
1,511.0,7,phase_2,blue_pentagon,go,,,,go-1,1,,,,,,
2,542.0,7,phase_2,red_triangle,go,,,,go-2,1,,,,,,
2,483.0,7,phase_2,red_triangle,go,,,,go-2,1,,,,,,
2,435.0,7,phase_2,blue_circle,go,,,,go-1,1,,,,,,
2,466.0,7,phase_2,red_triangle,go,,,,go-2,1,,,,,,
1,385.0,7,phase_2,blue_rhombus,go,,,,go-1,1,,,,,,
2,653.0,7,phase_2,blue_circle,go,,,,go-1,1,,,,,,
0,0,7,phase_2,red_triangle,stop,green,0.0,0-SSD,go-2,4,,,,,,
2,546.0,7,phase_2,red_triangle,go,,,,go-2,1,,,,,,
2,499.0,7,phase_2,blue_triangle,go,,,,go-1,1,,,,,,
2,429.0,7,phase_2,blue_rhombus,go,,,,go-1,2,,,,,,
2,730.0,7,phase_2,red_circle,go,,,,go-2,1,,,,,,
0,0,7,phase_2,blue_circle,stop,purple,250.0,tracking-SSD,go-1,4,,,,,,
1,646.0,7,phase_2,red_pentagon,go,,,,go-2,1,,,,,,
1,509.0,7,phase_2,red_pentagon,go,,,,go-2,1,,,,,,
1,621.0,7,phase_2,blue_pentagon,go,,,,go-1,1,,,,,,
2,484.0,7,phase_2,red_triangle,go,,,,go-2,1,,,,,,
0,0,7,phase_2,red_rhombus,stop,purple,300.0,tracking-SSD,go-2,4,,,,,,
0,0,7,phase_2,blue_circle,stop,green,0.0,0-SSD,go-1,4,,,,,,
2,465.0,7,phase_2,red_circle,stop,purple,350.0,tracking-SSD,go-2,3,,,,,,
2,598.0,7,phase_2,red_circle,go,,,,go-2,1,,,,,,
0,0,7,phase_2,blue_rhombus,stop,green,0.0,0-SSD,go-1,4,,,,,,
1,570.0,7,phase_2,blue_pentagon,go,,,,go-1,1,,,,,,
1,669.0,7,phase_2,blue_pentagon,go,,,,go-1,1,,,,,,
0,0,7,phase_2,red_circle,stop,green,0.0,0-SSD,go-2,4,,,,,,
2,507.0,7,phase_2,red_circle,go,,,,go-2,1,,,,,,
1,706.0,7,phase_2,blue_rhombus,go,,,,go-1,1,,,,,,
2,557.0,7,phase_2,red_circle,go,,,,go-2,1,,,,,,
0,0,7,phase_2,blue_rhombus,stop,green,0.0,0-SSD,go-1,4,,,,,,
2,620.0,7,phase_2,blue_triangle,go,,,,go-1,1,,,,,,
2,585.0,7,phase_2,blue_triangle,go,,,,go-1,1,,,,,,
1,594.0,7,phase_2,blue_rhombus,go,,,,go-1,1,,,,,,
2,952.0,7,phase_2,blue_pentagon,go,,,,go-1,2,,,,,,
0,0,7,phase_2,blue_pentagon,stop,green,0.0,0-SSD,go-1,4,,,,,,
1,723.0,7,phase_2,blue_rhombus,go,,,,go-1,1,,,,,,
1,664.0,7,phase_2,red_rhombus,go,,,,go-2,1,,,,,,
1,560.0,7,phase_2,red_pentagon,go,,,,go-2,1,,,,,,
0,0,7,phase_2,blue_pentagon,stop,purple,300.0,tracking-SSD,go-1,4,,,,,,
1,465.0,7,phase_2,red_rhombus,go,,,,go-2,1,,,,,,
1,634.0,8,phase_2,blue_rhombus,go,,,,go-1,1,,,,,,
2,552.0,8,phase_2,blue_triangle,go,,,,go-1,1,,,,,,
1,494.0,8,phase_2,blue_pentagon,stop,purple,350.0,tracking-SSD,go-1,3,,,,,,
1,446.0,8,phase_2,blue_pentagon,go,,,,go-1,1,,,,,,
0,0,8,phase_2,blue_circle,stop,green,0.0,0-SSD,go-1,4,,,,,,
2,351.0,8,phase_2,red_pentagon,stop,purple,300.0,tracking-SSD,go-2,3,,,,,,
2,922.0,8,phase_2,red_rhombus,go,,,,go-2,2,,,,,,
0,0,8,phase_2,red_triangle,stop,green,0.0,0-SSD,go-2,4,,,,,,
2,613.0,8,phase_2,red_triangle,go,,,,go-2,1,,,,,,
1,543.0,8,phase_2,red_rhombus,go,,,,go-2,1,,,,,,
2,552.0,8,phase_2,blue_circle,stop,purple,250.0,tracking-SSD,go-1,3,,,,,,
0,0,8,phase_2,red_pentagon,stop,green,0.0,0-SSD,go-2,4,,,,,,
0,0,8,phase_2,blue_pentagon,stop,purple,200.0,tracking-SSD,go-1,4,,,,,,
1,681.0,8,phase_2,blue_pentagon,go,,,,go-1,1,,,,,,
0,0,8,phase_2,blue_rhombus,stop,green,0.0,0-SSD,go-1,4,,,,,,
2,507.0,8,phase_2,blue_circle,go,,,,go-1,1,,,,,,
2,752.0,8,phase_2,blue_circle,go,,,,go-1,1,,,,,,
0,0,8,phase_2,red_rhombus,stop,purple,250.0,tracking-SSD,go-2,4,,,,,,
2,569.0,8,phase_2,red_circle,go,,,,go-2,1,,,,,,
0,0,8,phase_2,blue_pentagon,stop,green,0.0,0-SSD,go-1,4,,,,,,
2,632.0,8,phase_2,blue_triangle,go,,,,go-1,1,,,,,,
2,562.0,8,phase_2,red_triangle,go,,,,go-2,1,,,,,,
1,604.0,8,phase_2,blue_rhombus,go,,,,go-1,1,,,,,,
1,523.0,8,phase_2,blue_pentagon,go,,,,go-1,1,,,,,,
2,488.0,8,phase_2,blue_triangle,go,,,,go-1,1,,,,,,
0,0,8,phase_2,blue_triangle,stop,green,0.0,0-SSD,go-1,4,,,,,,
2,543.0,8,phase_2,blue_circle,go,,,,go-1,1,,,,,,
1,563.0,8,phase_2,red_rhombus,go,,,,go-2,1,,,,,,
2,516.0,8,phase_2,blue_triangle,go,,,,go-1,1,,,,,,
0,0,8,phase_2,red_circle,stop,green,0.0,0-SSD,go-2,4,,,,,,
1,600.0,8,phase_2,red_rhombus,go,,,,go-2,1,,,,,,
2,553.0,8,phase_2,red_circle,go,,,,go-2,1,,,,,,
1,663.0,8,phase_2,red_pentagon,go,,,,go-2,1,,,,,,
2,492.0,8,phase_2,blue_triangle,go,,,,go-1,1,,,,,,
2,523.0,8,phase_2,blue_triangle,go,,,,go-1,1,,,,,,
2,565.0,8,phase_2,red_triangle,go,,,,go-2,1,,,,,,
0,0,8,phase_2,red_circle,stop,green,0.0,0-SSD,go-2,4,,,,,,
1,549.0,8,phase_2,red_rhombus,go,,,,go-2,1,,,,,,
1,469.0,8,phase_2,red_pentagon,go,,,,go-2,1,,,,,,
2,500.0,8,phase_2,blue_circle,stop,purple,300.0,tracking-SSD,go-1,3,,,,,,
2,555.0,8,phase_2,blue_circle,go,,,,go-1,1,,,,,,
1,564.0,8,phase_2,red_pentagon,go,,,,go-2,1,,,,,,
1,483.0,8,phase_2,red_rhombus,stop,purple,250.0,tracking-SSD,go-2,3,,,,,,
1,593.0,8,phase_2,red_rhombus,go,,,,go-2,1,,,,,,
2,432.0,8,phase_2,red_triangle,go,,,,go-2,1,,,,,,
2,609.0,8,phase_2,blue_circle,go,,,,go-1,1,,,,,,
0,0,8,phase_2,red_rhombus,stop,purple,200.0,tracking-SSD,go-2,4,,,,,,
1,403.0,8,phase_2,red_pentagon,go,,,,go-2,1,,,,,,
1,613.0,9,phase_2,blue_pentagon,go,,,,go-1,1,,,,,,
1,396.0,9,phase_2,red_pentagon,go,,,,go-2,1,,,,,,
2,597.0,9,phase_2,red_circle,go,,,,go-2,1,,,,,,
0,0,9,phase_2,red_pentagon,stop,green,0.0,0-SSD,go-2,4,,,,,,
0,0,9,phase_2,red_pentagon,stop,purple,250.0,tracking-SSD,go-2,4,,,,,,
2,544.0,9,phase_2,red_circle,go,,,,go-2,1,,,,,,
2,487.0,9,phase_2,red_circle,stop,purple,300.0,tracking-SSD,go-2,3,,,,,,
2,462.0,9,phase_2,red_triangle,go,,,,go-2,1,,,,,,
1,460.0,9,phase_2,blue_pentagon,go,,,,go-1,1,,,,,,
1,873.0,9,phase_2,blue_rhombus,go,,,,go-1,1,,,,,,
2,611.0,9,phase_2,red_triangle,go,,,,go-2,1,,,,,,
2,475.0,9,phase_2,blue_triangle,stop,purple,250.0,tracking-SSD,go-1,3,,,,,,
0,0,9,phase_2,blue_rhombus,stop,purple,200.0,tracking-SSD,go-1,4,,,,,,
1,583.0,9,phase_2,blue_rhombus,go,,,,go-1,1,,,,,,
0,0,9,phase_2,blue_circle,stop,purple,250.0,tracking-SSD,go-1,4,,,,,,
2,567.0,9,phase_2,blue_circle,go,,,,go-1,1,,,,,,
0,0,9,phase_2,blue_pentagon,stop,green,0.0,0-SSD,go-1,4,,,,,,
2,471.0,9,phase_2,red_circle,go,,,,go-2,1,,,,,,
1,514.0,9,phase_2,red_pentagon,go,,,,go-2,1,,,,,,
2,580.0,9,phase_2,red_triangle,go,,,,go-2,1,,,,,,
0,0,9,phase_2,blue_triangle,stop,green,0.0,0-SSD,go-1,4,,,,,,
0,0,9,phase_2,red_triangle,stop,green,0.0,0-SSD,go-2,4,,,,,,
2,494.0,9,phase_2,blue_circle,go,,,,go-1,1,,,,,,
1,616.0,9,phase_2,red_rhombus,go,,,,go-2,1,,,,,,
1,545.0,9,phase_2,blue_rhombus,go,,,,go-1,1,,,,,,
0,0,9,phase_2,blue_triangle,stop,purple,300.0,tracking-SSD,go-1,4,,,,,,
1,507.0,9,phase_2,red_pentagon,go,,,,go-2,1,,,,,,
1,448.0,9,phase_2,red_pentagon,go,,,,go-2,1,,,,,,
2,570.0,9,phase_2,red_circle,stop,purple,350.0,tracking-SSD,go-2,3,,,,,,
2,499.0,9,phase_2,blue_circle,go,,,,go-1,1,,,,,,
1,541.0,9,phase_2,red_pentagon,stop,purple,300.0,tracking-SSD,go-2,3,,,,,,
1,572.0,9,phase_2,blue_rhombus,go,,,,go-1,1,,,,,,
1,548.0,9,phase_2,red_rhombus,go,,,,go-2,1,,,,,,
2,478.0,9,phase_2,red_circle,go,,,,go-2,1,,,,,,
2,375.0,9,phase_2,blue_triangle,go,,,,go-1,1,,,,,,
1,585.0,9,phase_2,red_pentagon,go,,,,go-2,1,,,,,,
2,324.0,9,phase_2,blue_triangle,go,,,,go-1,1,,,,,,
0,0,9,phase_2,blue_triangle,stop,green,0.0,0-SSD,go-1,4,,,,,,
0,0,9,phase_2,red_rhombus,stop,green,0.0,0-SSD,go-2,4,,,,,,
2,578.0,9,phase_2,blue_circle,go,,,,go-1,1,,,,,,
0,0,9,phase_2,red_circle,stop,green,0.0,0-SSD,go-2,4,,,,,,
1,561.0,9,phase_2,blue_pentagon,go,,,,go-1,1,,,,,,
2,536.0,9,phase_2,red_triangle,go,,,,go-2,1,,,,,,
1,500.0,9,phase_2,blue_rhombus,go,,,,go-1,1,,,,,,
0,0,9,phase_2,blue_rhombus,stop,green,0.0,0-SSD,go-1,4,,,,,,
1,473.0,9,phase_2,red_rhombus,go,,,,go-2,1,,,,,,
1,481.0,9,phase_2,blue_rhombus,go,,,,go-1,1,,,,,,
2,502.0,9,phase_2,blue_triangle,go,,,,go-1,1,,,,,,
1,577.0,10,phase_2,blue_rhombus,go,,,,go-1,1,,,,,,
2,496.0,10,phase_2,red_circle,go,,,,go-2,1,,,,,,
2,650.0,10,phase_2,blue_triangle,go,,,,go-1,1,,,,,,
2,378.0,10,phase_2,blue_circle,go,,,,go-1,1,,,,,,
2,499.0,10,phase_2,blue_circle,go,,,,go-1,1,,,,,,
2,428.0,10,phase_2,red_triangle,go,,,,go-2,1,,,,,,
2,438.0,10,phase_2,red_circle,go,,,,go-2,1,,,,,,
2,367.0,10,phase_2,red_triangle,go,,,,go-2,1,,,,,,
0,0,10,phase_2,red_triangle,stop,green,0.0,0-SSD,go-2,4,,,,,,
1,566.0,10,phase_2,red_rhombus,stop,purple,250.0,tracking-SSD,go-2,3,,,,,,
2,361.0,10,phase_2,red_pentagon,go,,,,go-2,2,,,,,,
1,583.0,10,phase_2,red_pentagon,go,,,,go-2,1,,,,,,
1,513.0,10,phase_2,blue_rhombus,go,,,,go-1,1,,,,,,
0,0,10,phase_2,blue_pentagon,stop,purple,200.0,tracking-SSD,go-1,4,,,,,,
2,620.0,10,phase_2,blue_circle,go,,,,go-1,1,,,,,,
0,0,10,phase_2,red_rhombus,stop,purple,250.0,tracking-SSD,go-2,4,,,,,,
2,570.0,10,phase_2,blue_circle,go,,,,go-1,1,,,,,,
0,0,10,phase_2,red_pentagon,stop,green,0.0,0-SSD,go-2,4,,,,,,
0,0,10,phase_2,blue_pentagon,stop,green,0.0,0-SSD,go-1,4,,,,,,
2,495.0,10,phase_2,red_circle,stop,purple,300.0,tracking-SSD,go-2,3,,,,,,
2,548.0,10,phase_2,red_triangle,go,,,,go-2,1,,,,,,
0,0,10,phase_2,blue_circle,stop,purple,250.0,tracking-SSD,go-1,4,,,,,,
2,543.0,10,phase_2,red_circle,go,,,,go-2,1,,,,,,
1,653.0,10,phase_2,red_rhombus,go,,,,go-2,1,,,,,,
1,471.0,10,phase_2,red_pentagon,go,,,,go-2,1,,,,,,
0,0,10,phase_2,blue_rhombus,stop,green,0.0,0-SSD,go-1,4,,,,,,
2,465.0,10,phase_2,red_triangle,go,,,,go-2,1,,,,,,
0,0,10,phase_2,red_rhombus,stop,purple,300.0,tracking-SSD,go-2,4,,,,,,
1,741.0,10,phase_2,blue_pentagon,go,,,,go-1,1,,,,,,
1,481.0,10,phase_2,red_rhombus,go,,,,go-2,1,,,,,,
1,557.0,10,phase_2,blue_pentagon,go,,,,go-1,1,,,,,,
2,509.0,10,phase_2,blue_triangle,go,,,,go-1,1,,,,,,
2,798.0,10,phase_2,blue_triangle,go,,,,go-1,1,,,,,,
1,773.0,10,phase_2,blue_pentagon,go,,,,go-1,1,,,,,,
0,0,10,phase_2,blue_triangle,stop,green,0.0,0-SSD,go-1,4,,,,,,
2,388.0,10,phase_2,blue_triangle,go,,,,go-1,1,,,,,,
2,476.0,10,phase_2,blue_circle,go,,,,go-1,1,,,,,,
1,598.0,10,phase_2,blue_pentagon,stop,purple,350.0,tracking-SSD,go-1,3,,,,,,
1,539.0,10,phase_2,red_rhombus,go,,,,go-2,1,,,,,,
1,548.0,10,phase_2,red_pentagon,go,,,,go-2,1,,,,,,
2,671.0,10,phase_2,blue_triangle,go,,,,go-1,1,,,,,,
2,409.0,10,phase_2,red_triangle,go,,,,go-2,1,,,,,,
1,586.0,10,phase_2,red_rhombus,go,,,,go-2,1,,,,,,
1,607.0,10,phase_2,blue_rhombus,go,,,,go-1,1,,,,,,
0,0,10,phase_2,blue_pentagon,stop,green,0.0,0-SSD,go-1,4,,,,,,
0,0,10,phase_2,red_circle,stop,green,0.0,0-SSD,go-2,4,,,,,,
0,0,10,phase_2,red_rhombus,stop,green,0.0,0-SSD,go-2,4,,,,,,
2,473.0,10,phase_2,blue_circle,stop,purple,300.0,tracking-SSD,go-1,3,,,,,,
2,621.0,11,phase_2,red_circle,go,,,,go-2,1,,,,,,
2,530.0,11,phase_2,blue_triangle,go,,,,go-1,1,,,,,,
2,583.0,11,phase_2,blue_rhombus,go,,,,go-1,2,,,,,,
2,591.0,11,phase_2,blue_circle,go,,,,go-1,1,,,,,,
1,479.0,11,phase_2,blue_rhombus,go,,,,go-1,1,,,,,,
2,521.0,11,phase_2,red_circle,go,,,,go-2,1,,,,,,
1,608.0,11,phase_2,blue_rhombus,go,,,,go-1,1,,,,,,
2,380.0,11,phase_2,blue_circle,go,,,,go-1,1,,,,,,
2,569.0,11,phase_2,blue_triangle,go,,,,go-1,1,,,,,,
2,534.0,11,phase_2,red_circle,go,,,,go-2,1,,,,,,
2,395.0,11,phase_2,red_triangle,go,,,,go-2,1,,,,,,
0,0,11,phase_2,blue_triangle,stop,green,0.0,0-SSD,go-1,4,,,,,,
1,559.0,11,phase_2,red_rhombus,go,,,,go-2,1,,,,,,
2,511.0,11,phase_2,red_triangle,stop,purple,250.0,tracking-SSD,go-2,3,,,,,,
1,521.0,11,phase_2,red_rhombus,go,,,,go-2,1,,,,,,
0,0,11,phase_2,red_rhombus,stop,purple,200.0,tracking-SSD,go-2,4,,,,,,
0,0,11,phase_2,red_pentagon,stop,purple,250.0,tracking-SSD,go-2,4,,,,,,
2,412.0,11,phase_2,red_triangle,stop,purple,300.0,tracking-SSD,go-2,3,,,,,,
0,0,11,phase_2,blue_triangle,stop,purple,250.0,tracking-SSD,go-1,4,,,,,,
0,0,11,phase_2,red_rhombus,stop,green,0.0,0-SSD,go-2,4,,,,,,
2,495.0,11,phase_2,red_circle,go,,,,go-2,1,,,,,,
1,459.0,11,phase_2,blue_pentagon,go,,,,go-1,1,,,,,,
1,457.0,11,phase_2,blue_pentagon,go,,,,go-1,1,,,,,,
0,0,11,phase_2,blue_circle,stop,purple,300.0,tracking-SSD,go-1,4,,,,,,
2,485.0,11,phase_2,blue_pentagon,stop,purple,350.0,tracking-SSD,go-1,3,,,,,,
2,528.0,11,phase_2,red_triangle,go,,,,go-2,1,,,,,,
1,761.0,11,phase_2,blue_pentagon,go,,,,go-1,1,,,,,,
2,591.0,11,phase_2,red_triangle,go,,,,go-2,1,,,,,,
1,600.0,11,phase_2,blue_pentagon,go,,,,go-1,1,,,,,,
1,496.0,11,phase_2,red_pentagon,go,,,,go-2,1,,,,,,
2,562.0,11,phase_2,blue_triangle,go,,,,go-1,1,,,,,,
1,503.0,11,phase_2,red_rhombus,go,,,,go-2,1,,,,,,
1,681.0,11,phase_2,red_pentagon,go,,,,go-2,1,,,,,,
1,588.0,11,phase_2,red_rhombus,go,,,,go-2,1,,,,,,
0,0,11,phase_2,red_circle,stop,green,0.0,0-SSD,go-2,4,,,,,,
1,673.0,11,phase_2,blue_rhombus,go,,,,go-1,1,,,,,,
2,411.0,11,phase_2,blue_triangle,go,,,,go-1,1,,,,,,
2,431.0,11,phase_2,red_circle,go,,,,go-2,1,,,,,,
1,486.0,11,phase_2,blue_rhombus,go,,,,go-1,1,,,,,,
1,505.0,11,phase_2,red_pentagon,go,,,,go-2,1,,,,,,
0,0,11,phase_2,blue_pentagon,stop,green,0.0,0-SSD,go-1,4,,,,,,
2,500.0,11,phase_2,blue_circle,go,,,,go-1,1,,,,,,
0,0,11,phase_2,blue_pentagon,stop,green,0.0,0-SSD,go-1,4,,,,,,
0,0,11,phase_2,red_pentagon,stop,green,0.0,0-SSD,go-2,4,,,,,,
0,0,11,phase_2,blue_rhombus,stop,purple,300.0,tracking-SSD,go-1,4,,,,,,
0,0,11,phase_2,blue_circle,stop,green,0.0,0-SSD,go-1,4,,,,,,
0,0,11,phase_2,red_triangle,stop,green,0.0,0-SSD,go-2,4,,,,,,
2,496.0,11,phase_2,red_circle,go,,,,go-2,1,,,,,,
1,577.0,12,phase_2,red_pentagon,go,,,,go-2,1,,,,,,
2,609.0,12,phase_2,blue_pentagon,go,,,,go-1,2,,,,,,
0,0,12,phase_2,blue_triangle,stop,green,0.0,0-SSD,go-1,4,,,,,,
1,504.0,12,phase_2,red_pentagon,go,,,,go-2,1,,,,,,
1,579.0,12,phase_2,blue_rhombus,go,,,,go-1,1,,,,,,
0,0,12,phase_2,red_triangle,stop,green,0.0,0-SSD,go-2,4,,,,,,
1,654.0,12,phase_2,red_pentagon,go,,,,go-2,1,,,,,,
1,696.0,12,phase_2,red_triangle,go,,,,go-2,2,,,,,,
1,650.0,12,phase_2,blue_pentagon,go,,,,go-1,1,,,,,,
1,680.0,12,phase_2,red_pentagon,go,,,,go-2,1,,,,,,
0,0,12,phase_2,red_rhombus,stop,purple,350.0,tracking-SSD,go-2,4,,,,,,
0,0,12,phase_2,red_pentagon,stop,green,0.0,0-SSD,go-2,4,,,,,,
2,503.0,12,phase_2,red_circle,go,,,,go-2,1,,,,,,
1,593.0,12,phase_2,red_pentagon,go,,,,go-2,1,,,,,,
2,501.0,12,phase_2,red_circle,go,,,,go-2,1,,,,,,
1,644.0,12,phase_2,red_rhombus,go,,,,go-2,1,,,,,,
2,529.0,12,phase_2,red_circle,stop,purple,400.0,tracking-SSD,go-2,3,,,,,,
1,695.0,12,phase_2,blue_rhombus,go,,,,go-1,1,,,,,,
0,0,12,phase_2,blue_triangle,stop,purple,350.0,tracking-SSD,go-1,4,,,,,,
2,546.0,12,phase_2,blue_triangle,go,,,,go-1,1,,,,,,
2,610.0,12,phase_2,blue_triangle,go,,,,go-1,1,,,,,,
2,551.0,12,phase_2,blue_triangle,go,,,,go-1,1,,,,,,
1,583.0,12,phase_2,blue_rhombus,go,,,,go-1,1,,,,,,
2,593.0,12,phase_2,red_circle,go,,,,go-2,1,,,,,,
0,0,12,phase_2,red_rhombus,stop,green,0.0,0-SSD,go-2,4,,,,,,
2,521.0,12,phase_2,blue_circle,go,,,,go-1,1,,,,,,
2,991.0,12,phase_2,red_triangle,go,,,,go-2,1,,,,,,
2,449.0,12,phase_2,red_triangle,stop,purple,400.0,tracking-SSD,go-2,3,,,,,,
1,570.0,12,phase_2,blue_pentagon,go,,,,go-1,1,,,,,,
0,0,12,phase_2,red_circle,stop,green,0.0,0-SSD,go-2,4,,,,,,
2,532.0,12,phase_2,blue_circle,stop,purple,350.0,tracking-SSD,go-1,3,,,,,,
0,0,12,phase_2,blue_rhombus,stop,green,0.0,0-SSD,go-1,4,,,,,,
1,549.0,12,phase_2,red_pentagon,go,,,,go-2,1,,,,,,
0,0,12,phase_2,red_rhombus,stop,purple,300.0,tracking-SSD,go-2,4,,,,,,
1,644.0,12,phase_2,blue_pentagon,go,,,,go-1,1,,,,,,
0,0,12,phase_2,blue_triangle,stop,green,0.0,0-SSD,go-1,4,,,,,,
0,0,12,phase_2,blue_circle,stop,green,0.0,0-SSD,go-1,4,,,,,,
2,603.0,12,phase_2,blue_circle,go,,,,go-1,1,,,,,,
1,601.0,12,phase_2,blue_pentagon,go,,,,go-1,1,,,,,,
2,418.0,12,phase_2,blue_circle,go,,,,go-1,1,,,,,,
2,561.0,12,phase_2,red_triangle,go,,,,go-2,1,,,,,,
2,492.0,12,phase_2,red_circle,go,,,,go-2,1,,,,,,
0,0,12,phase_2,blue_rhombus,stop,purple,350.0,tracking-SSD,go-1,4,,,,,,
2,489.0,12,phase_2,blue_triangle,go,,,,go-1,1,,,,,,
2,587.0,12,phase_2,red_circle,go,,,,go-2,1,,,,,,
0,0,12,phase_2,blue_rhombus,stop,purple,400.0,tracking-SSD,go-1,4,,,,,,
1,695.0,12,phase_2,red_rhombus,go,,,,go-2,1,,,,,,
1,535.0,12,phase_2,blue_rhombus,go,,,,go-1,1,,,,,,
2,588.0,13,phase_2,blue_triangle,go,,,,go-1,1,,,,,,
1,653.0,13,phase_2,red_rhombus,go,,,,go-2,1,,,,,,
2,594.0,13,phase_2,red_triangle,go,,,,go-2,1,,,,,,
1,501.0,13,phase_2,blue_rhombus,go,,,,go-1,1,,,,,,
1,500.0,13,phase_2,blue_rhombus,stop,purple,450.0,tracking-SSD,go-1,3,,,,,,
2,544.0,13,phase_2,blue_triangle,go,,,,go-1,1,,,,,,
2,496.0,13,phase_2,blue_triangle,stop,purple,400.0,tracking-SSD,go-1,3,,,,,,
2,437.0,13,phase_2,red_triangle,go,,,,go-2,1,,,,,,
2,569.0,13,phase_2,red_triangle,go,,,,go-2,1,,,,,,
2,443.0,13,phase_2,red_circle,go,,,,go-2,1,,,,,,
1,520.0,13,phase_2,blue_rhombus,go,,,,go-1,1,,,,,,
2,540.0,13,phase_2,blue_circle,go,,,,go-1,1,,,,,,
1,514.0,13,phase_2,red_pentagon,go,,,,go-2,1,,,,,,
2,726.0,13,phase_2,red_triangle,go,,,,go-2,1,,,,,,
2,625.0,13,phase_2,red_circle,stop,purple,350.0,tracking-SSD,go-2,3,,,,,,
0,0,13,phase_2,red_pentagon,stop,purple,300.0,tracking-SSD,go-2,4,,,,,,
0,0,13,phase_2,red_pentagon,stop,green,0.0,0-SSD,go-2,4,,,,,,
1,550.0,13,phase_2,blue_pentagon,go,,,,go-1,1,,,,,,
0,0,13,phase_2,red_rhombus,stop,green,0.0,0-SSD,go-2,4,,,,,,
1,1074.0,13,phase_2,blue_pentagon,go,,,,go-1,1,,,,,,
0,0,13,phase_2,red_rhombus,stop,green,0.0,0-SSD,go-2,4,,,,,,
0,0,13,phase_2,red_rhombus,stop,purple,350.0,tracking-SSD,go-2,4,,,,,,
2,473.0,13,phase_2,blue_circle,go,,,,go-1,1,,,,,,
1,481.0,13,phase_2,blue_pentagon,go,,,,go-1,1,,,,,,
2,907.0,13,phase_2,red_triangle,go,,,,go-2,1,,,,,,
2,477.0,13,phase_2,red_triangle,go,,,,go-2,1,,,,,,
1,566.0,13,phase_2,blue_pentagon,go,,,,go-1,1,,,,,,
1,554.0,13,phase_2,blue_rhombus,go,,,,go-1,1,,,,,,
0,0,13,phase_2,blue_circle,stop,green,0.0,0-SSD,go-1,4,,,,,,
2,483.0,13,phase_2,blue_circle,go,,,,go-1,1,,,,,,
2,491.0,13,phase_2,red_circle,go,,,,go-2,1,,,,,,
1,523.0,13,phase_2,blue_pentagon,go,,,,go-1,1,,,,,,
2,568.0,13,phase_2,red_circle,stop,purple,400.0,tracking-SSD,go-2,3,,,,,,
1,679.0,13,phase_2,red_rhombus,go,,,,go-2,1,,,,,,
0,0,13,phase_2,blue_circle,stop,green,0.0,0-SSD,go-1,4,,,,,,
2,516.0,13,phase_2,red_triangle,go,,,,go-2,1,,,,,,
1,480.0,13,phase_2,red_pentagon,go,,,,go-2,1,,,,,,
1,477.0,13,phase_2,blue_pentagon,go,,,,go-1,1,,,,,,
0,0,13,phase_2,blue_circle,stop,green,0.0,0-SSD,go-1,4,,,,,,
1,540.0,13,phase_2,red_rhombus,go,,,,go-2,1,,,,,,
1,572.0,13,phase_2,red_pentagon,go,,,,go-2,1,,,,,,
0,0,13,phase_2,blue_circle,stop,green,0.0,0-SSD,go-1,4,,,,,,
2,656.0,13,phase_2,red_triangle,go,,,,go-2,1,,,,,,
2,518.0,13,phase_2,blue_circle,go,,,,go-1,1,,,,,,
1,775.0,13,phase_2,blue_rhombus,go,,,,go-1,1,,,,,,
0,0,13,phase_2,red_pentagon,stop,green,0.0,0-SSD,go-2,4,,,,,,
2,469.0,13,phase_2,blue_triangle,stop,purple,350.0,tracking-SSD,go-1,3,,,,,,
1,534.0,13,phase_2,blue_rhombus,stop,purple,300.0,tracking-SSD,go-1,3,,,,,,
2,554.0,14,phase_2,blue_triangle,go,,,,go-1,1,,,,,,
2,485.0,14,phase_2,red_circle,stop,purple,250.0,tracking-SSD,go-2,3,,,,,,
1,898.0,14,phase_2,red_rhombus,go,,,,go-2,1,,,,,,
0,0,14,phase_2,blue_triangle,stop,green,0.0,0-SSD,go-1,4,,,,,,
2,466.0,14,phase_2,red_triangle,go,,,,go-2,1,,,,,,
0,0,14,phase_2,blue_triangle,stop,purple,200.0,tracking-SSD,go-1,4,,,,,,
2,575.0,14,phase_2,red_pentagon,go,,,,go-2,2,,,,,,
0,0,14,phase_2,red_circle,stop,purple,250.0,tracking-SSD,go-2,4,,,,,,
2,580.0,14,phase_2,red_circle,go,,,,go-2,1,,,,,,
0,0,14,phase_2,blue_pentagon,stop,purple,300.0,tracking-SSD,go-1,4,,,,,,
0,0,14,phase_2,red_circle,stop,green,0.0,0-SSD,go-2,4,,,,,,
1,540.0,14,phase_2,red_pentagon,go,,,,go-2,1,,,,,,
2,480.0,14,phase_2,blue_circle,go,,,,go-1,1,,,,,,
1,612.0,14,phase_2,red_pentagon,go,,,,go-2,1,,,,,,
1,463.0,14,phase_2,red_pentagon,go,,,,go-2,1,,,,,,
1,518.0,14,phase_2,red_rhombus,go,,,,go-2,1,,,,,,
1,641.0,14,phase_2,blue_pentagon,go,,,,go-1,1,,,,,,
1,571.0,14,phase_2,blue_rhombus,go,,,,go-1,1,,,,,,
1,479.0,14,phase_2,blue_rhombus,go,,,,go-1,1,,,,,,
2,533.0,14,phase_2,red_circle,go,,,,go-2,1,,,,,,
1,508.0,14,phase_2,blue_pentagon,go,,,,go-1,1,,,,,,
1,506.0,14,phase_2,red_pentagon,stop,purple,350.0,tracking-SSD,go-2,3,,,,,,
2,480.0,14,phase_2,blue_circle,go,,,,go-1,1,,,,,,
1,477.0,14,phase_2,blue_rhombus,go,,,,go-1,1,,,,,,
1,690.0,14,phase_2,red_rhombus,go,,,,go-2,1,,,,,,
2,676.0,14,phase_2,blue_triangle,stop,purple,300.0,tracking-SSD,go-1,3,,,,,,
2,619.0,14,phase_2,red_triangle,go,,,,go-2,1,,,,,,
1,470.0,14,phase_2,blue_rhombus,go,,,,go-1,1,,,,,,
0,0,14,phase_2,blue_pentagon,stop,green,0.0,0-SSD,go-1,4,,,,,,
2,667.0,14,phase_2,blue_triangle,go,,,,go-1,1,,,,,,
1,552.0,14,phase_2,blue_rhombus,go,,,,go-1,1,,,,,,
1,563.0,14,phase_2,red_pentagon,go,,,,go-2,1,,,,,,
2,538.0,14,phase_2,blue_circle,go,,,,go-1,1,,,,,,
0,0,14,phase_2,red_rhombus,stop,purple,250.0,tracking-SSD,go-2,4,,,,,,
0,0,14,phase_2,red_pentagon,stop,green,0.0,0-SSD,go-2,4,,,,,,
2,464.0,14,phase_2,blue_triangle,stop,purple,300.0,tracking-SSD,go-1,3,,,,,,
2,507.0,14,phase_2,blue_triangle,go,,,,go-1,1,,,,,,
2,493.0,14,phase_2,red_triangle,go,,,,go-2,1,,,,,,
2,603.0,14,phase_2,red_rhombus,go,,,,go-2,2,,,,,,
1,747.0,14,phase_2,blue_rhombus,go,,,,go-1,1,,,,,,
0,0,14,phase_2,red_circle,stop,green,0.0,0-SSD,go-2,4,,,,,,
2,663.0,14,phase_2,red_circle,go,,,,go-2,1,,,,,,
2,514.0,14,phase_2,blue_circle,go,,,,go-1,1,,,,,,
0,0,14,phase_2,blue_triangle,stop,green,0.0,0-SSD,go-1,4,,,,,,
0,0,14,phase_2,blue_pentagon,stop,green,0.0,0-SSD,go-1,4,,,,,,
1,586.0,14,phase_2,blue_rhombus,go,,,,go-1,1,,,,,,
0,0,14,phase_2,red_circle,stop,green,0.0,0-SSD,go-2,4,,,,,,
2,527.0,14,phase_2,red_triangle,go,,,,go-2,1,,,,,,
0,0,15,phase_2,red_rhombus,stop,green,0.0,0-SSD,go-2,4,,,,,,
1,609.0,15,phase_2,red_pentagon,go,,,,go-2,1,,,,,,
1,697.0,15,phase_2,blue_rhombus,go,,,,go-1,1,,,,,,
0,0,15,phase_2,blue_circle,stop,green,0.0,0-SSD,go-1,4,,,,,,
1,604.0,15,phase_2,red_rhombus,go,,,,go-2,1,,,,,,
2,588.0,15,phase_2,red_circle,go,,,,go-2,1,,,,,,
0,0,15,phase_2,blue_pentagon,stop,green,0.0,0-SSD,go-1,4,,,,,,
1,552.0,15,phase_2,blue_pentagon,go,,,,go-1,1,,,,,,
0,0,15,phase_2,red_circle,stop,green,0.0,0-SSD,go-2,4,,,,,,
2,604.0,15,phase_2,red_triangle,go,,,,go-2,1,,,,,,
0,0,15,phase_2,blue_circle,stop,purple,250.0,tracking-SSD,go-1,4,,,,,,
2,553.0,15,phase_2,blue_triangle,go,,,,go-1,1,,,,,,
2,428.0,15,phase_2,red_triangle,go,,,,go-2,1,,,,,,
2,504.0,15,phase_2,blue_triangle,go,,,,go-1,1,,,,,,
1,436.0,15,phase_2,red_pentagon,go,,,,go-2,1,,,,,,
1,580.0,15,phase_2,red_rhombus,go,,,,go-2,1,,,,,,
1,510.0,15,phase_2,red_pentagon,go,,,,go-2,1,,,,,,
1,497.0,15,phase_2,blue_pentagon,stop,purple,300.0,tracking-SSD,go-1,3,,,,,,
1,437.0,15,phase_2,red_pentagon,go,,,,go-2,1,,,,,,
1,616.0,15,phase_2,blue_rhombus,go,,,,go-1,1,,,,,,
0,0,15,phase_2,blue_triangle,stop,green,0.0,0-SSD,go-1,4,,,,,,
0,0,15,phase_2,red_circle,stop,purple,250.0,tracking-SSD,go-2,4,,,,,,
2,507.0,15,phase_2,red_circle,go,,,,go-2,1,,,,,,
0,0,15,phase_2,red_rhombus,stop,green,0.0,0-SSD,go-2,4,,,,,,
0,0,15,phase_2,blue_triangle,stop,purple,300.0,tracking-SSD,go-1,4,,,,,,
2,667.0,15,phase_2,red_circle,stop,purple,350.0,tracking-SSD,go-2,3,,,,,,
0,0,15,phase_2,blue_triangle,stop,purple,300.0,tracking-SSD,go-1,4,,,,,,
2,561.0,15,phase_2,red_triangle,go,,,,go-2,1,,,,,,
2,524.0,15,phase_2,blue_triangle,go,,,,go-1,1,,,,,,
1,533.0,15,phase_2,blue_pentagon,go,,,,go-1,1,,,,,,
1,643.0,15,phase_2,red_rhombus,go,,,,go-2,1,,,,,,
1,561.0,15,phase_2,red_rhombus,stop,purple,350.0,tracking-SSD,go-2,3,,,,,,
1,807.0,15,phase_2,blue_rhombus,go,,,,go-1,1,,,,,,
1,433.0,15,phase_2,blue_pentagon,go,,,,go-1,1,,,,,,
2,531.0,15,phase_2,blue_circle,go,,,,go-1,1,,,,,,
2,585.0,15,phase_2,blue_circle,go,,,,go-1,1,,,,,,
2,549.0,15,phase_2,blue_triangle,go,,,,go-1,1,,,,,,
2,569.0,15,phase_2,red_circle,go,,,,go-2,1,,,,,,
0,0,15,phase_2,red_triangle,stop,green,0.0,0-SSD,go-2,4,,,,,,
2,508.0,15,phase_2,blue_rhombus,go,,,,go-1,2,,,,,,
1,516.0,15,phase_2,red_rhombus,go,,,,go-2,1,,,,,,
1,626.0,15,phase_2,red_pentagon,go,,,,go-2,1,,,,,,
1,568.0,15,phase_2,red_pentagon,stop,purple,300.0,tracking-SSD,go-2,3,,,,,,
2,609.0,15,phase_2,blue_triangle,go,,,,go-1,1,,,,,,
2,585.0,15,phase_2,blue_circle,go,,,,go-1,1,,,,,,
0,0,15,phase_2,blue_rhombus,stop,green,0.0,0-SSD,go-1,4,,,,,,
1,534.0,15,phase_2,blue_pentagon,go,,,,go-1,1,,,,,,
2,554.0,15,phase_2,red_circle,go,,,,go-2,1,,,,,,
0,0,16,phase_2,blue_pentagon,stop,green,0.0,0-SSD,go-1,4,,,,,,
1,735.0,16,phase_2,red_rhombus,go,,,,go-2,1,,,,,,
1,507.0,16,phase_2,red_pentagon,go,,,,go-2,1,,,,,,
1,786.0,16,phase_2,red_pentagon,go,,,,go-2,1,,,,,,
1,672.0,16,phase_2,red_rhombus,stop,purple,250.0,tracking-SSD,go-2,3,,,,,,
0,0,16,phase_2,red_circle,stop,green,0.0,0-SSD,go-2,4,,,,,,
2,543.0,16,phase_2,blue_triangle,go,,,,go-1,1,,,,,,
2,1058.0,16,phase_2,red_circle,go,,,,go-2,1,,,,,,
2,438.0,16,phase_2,red_circle,go,,,,go-2,1,,,,,,
0,0,16,phase_2,blue_triangle,stop,green,0.0,0-SSD,go-1,4,,,,,,
2,612.0,16,phase_2,blue_circle,go,,,,go-1,1,,,,,,
1,599.0,16,phase_2,blue_rhombus,go,,,,go-1,1,,,,,,
1,518.0,16,phase_2,blue_rhombus,go,,,,go-1,1,,,,,,
2,560.0,16,phase_2,blue_circle,go,,,,go-1,1,,,,,,
2,885.0,16,phase_2,blue_triangle,go,,,,go-1,1,,,,,,
2,533.0,16,phase_2,red_triangle,go,,,,go-2,1,,,,,,
0,0,16,phase_2,red_rhombus,stop,green,0.0,0-SSD,go-2,4,,,,,,
0,0,16,phase_2,blue_circle,stop,green,0.0,0-SSD,go-1,4,,,,,,
1,492.0,16,phase_2,blue_rhombus,go,,,,go-1,1,,,,,,
0,0,16,phase_2,blue_pentagon,stop,green,0.0,0-SSD,go-1,4,,,,,,
2,655.0,16,phase_2,red_circle,go,,,,go-2,1,,,,,,
1,708.0,16,phase_2,red_pentagon,go,,,,go-2,1,,,,,,
1,469.0,16,phase_2,blue_pentagon,go,,,,go-1,1,,,,,,
0,0,16,phase_2,blue_triangle,stop,purple,200.0,tracking-SSD,go-1,4,,,,,,
0,0,16,phase_2,red_triangle,stop,purple,250.0,tracking-SSD,go-2,4,,,,,,
1,710.0,16,phase_2,blue_rhombus,go,,,,go-1,1,,,,,,
2,954.0,16,phase_2,red_triangle,go,,,,go-2,1,,,,,,
1,468.0,16,phase_2,blue_pentagon,go,,,,go-1,1,,,,,,
0,0,16,phase_2,red_pentagon,stop,green,0.0,0-SSD,go-2,4,,,,,,
2,520.0,16,phase_2,red_triangle,stop,purple,300.0,tracking-SSD,go-2,3,,,,,,
2,495.0,16,phase_2,blue_circle,go,,,,go-1,1,,,,,,
2,503.0,16,phase_2,blue_circle,go,,,,go-1,1,,,,,,
2,489.0,16,phase_2,red_triangle,go,,,,go-2,1,,,,,,
2,419.0,16,phase_2,red_rhombus,go,,,,go-2,2,,,,,,
1,766.0,16,phase_2,red_pentagon,go,,,,go-2,1,,,,,,
2,527.0,16,phase_2,blue_triangle,go,,,,go-1,1,,,,,,
1,625.0,16,phase_2,red_pentagon,go,,,,go-2,1,,,,,,
0,0,16,phase_2,red_circle,stop,green,0.0,0-SSD,go-2,4,,,,,,
1,554.0,16,phase_2,blue_rhombus,go,,,,go-1,1,,,,,,
2,754.0,16,phase_2,blue_triangle,go,,,,go-1,1,,,,,,
0,0,16,phase_2,blue_circle,stop,purple,250.0,tracking-SSD,go-1,4,,,,,,
2,548.0,16,phase_2,red_circle,go,,,,go-2,1,,,,,,
1,703.0,16,phase_2,blue_rhombus,go,,,,go-1,1,,,,,,
1,532.0,16,phase_2,blue_rhombus,stop,purple,300.0,tracking-SSD,go-1,3,,,,,,
1,935.0,16,phase_2,red_pentagon,go,,,,go-2,1,,,,,,
1,448.0,16,phase_2,red_pentagon,go,,,,go-2,1,,,,,,
0,0,16,phase_2,blue_rhombus,stop,purple,250.0,tracking-SSD,go-1,4,,,,,,
1,567.0,16,phase_2,red_triangle,stop,purple,300.0,tracking-SSD,go-2,3,,,,,,
2,813.0,17,phase_2,red_triangle,go,,,,go-2,1,,,,,,
0,0,17,phase_2,red_pentagon,stop,green,0.0,0-SSD,go-2,4,,,,,,
2,528.0,17,phase_2,red_circle,stop,purple,250.0,tracking-SSD,go-2,3,,,,,,
1,694.0,17,phase_2,blue_pentagon,go,,,,go-1,1,,,,,,
1,670.0,17,phase_2,blue_rhombus,go,,,,go-1,1,,,,,,
2,611.0,17,phase_2,blue_triangle,go,,,,go-1,1,,,,,,
1,608.0,17,phase_2,blue_rhombus,go,,,,go-1,1,,,,,,
1,527.0,17,phase_2,red_rhombus,go,,,,go-2,1,,,,,,
0,0,17,phase_2,red_triangle,stop,green,0.0,0-SSD,go-2,4,,,,,,
2,510.0,17,phase_2,red_circle,go,,,,go-2,1,,,,,,
0,0,17,phase_2,blue_circle,stop,green,0.0,0-SSD,go-1,4,,,,,,
1,629.0,17,phase_2,blue_rhombus,go,,,,go-1,1,,,,,,
1,615.0,17,phase_2,red_pentagon,go,,,,go-2,1,,,,,,
0,0,17,phase_2,blue_pentagon,stop,green,0.0,0-SSD,go-1,4,,,,,,
1,577.0,17,phase_2,blue_pentagon,go,,,,go-1,1,,,,,,
2,506.0,17,phase_2,blue_circle,go,,,,go-1,1,,,,,,
1,808.0,17,phase_2,red_pentagon,go,,,,go-2,1,,,,,,
0,0,17,phase_2,blue_triangle,stop,green,0.0,0-SSD,go-1,4,,,,,,
2,544.0,17,phase_2,blue_circle,go,,,,go-1,1,,,,,,
1,620.0,17,phase_2,blue_rhombus,go,,,,go-1,1,,,,,,
2,539.0,17,phase_2,red_triangle,go,,,,go-2,1,,,,,,
2,515.0,17,phase_2,blue_circle,go,,,,go-1,1,,,,,,
1,591.0,17,phase_2,red_pentagon,go,,,,go-2,1,,,,,,
2,611.0,17,phase_2,blue_triangle,go,,,,go-1,1,,,,,,
1,485.0,17,phase_2,red_rhombus,go,,,,go-2,1,,,,,,
0,0,17,phase_2,blue_pentagon,stop,purple,200.0,tracking-SSD,go-1,4,,,,,,
1,524.0,17,phase_2,red_pentagon,go,,,,go-2,1,,,,,,
1,521.0,17,phase_2,red_rhombus,go,,,,go-2,1,,,,,,
0,0,17,phase_2,red_circle,stop,purple,250.0,tracking-SSD,go-2,4,,,,,,
1,687.0,17,phase_2,red_pentagon,go,,,,go-2,1,,,,,,
2,706.0,17,phase_2,red_rhombus,go,,,,go-2,2,,,,,,
2,557.0,17,phase_2,blue_triangle,go,,,,go-1,1,,,,,,
0,0,17,phase_2,red_triangle,stop,green,0.0,0-SSD,go-2,4,,,,,,
1,607.0,17,phase_2,blue_pentagon,go,,,,go-1,1,,,,,,
1,492.0,17,phase_2,red_pentagon,go,,,,go-2,1,,,,,,
2,534.0,17,phase_2,red_circle,go,,,,go-2,1,,,,,,
2,431.0,17,phase_2,blue_circle,stop,purple,300.0,tracking-SSD,go-1,3,,,,,,
0,0,17,phase_2,red_triangle,stop,purple,250.0,tracking-SSD,go-2,4,,,,,,
0,0,17,phase_2,red_triangle,stop,green,0.0,0-SSD,go-2,4,,,,,,
0,0,17,phase_2,blue_circle,stop,green,0.0,0-SSD,go-1,4,,,,,,
1,523.0,17,phase_2,blue_rhombus,stop,purple,300.0,tracking-SSD,go-1,3,,,,,,
0,0,17,phase_2,red_triangle,stop,purple,250.0,tracking-SSD,go-2,4,,,,,,
1,687.0,17,phase_2,blue_rhombus,go,,,,go-1,1,,,,,,
1,571.0,17,phase_2,red_rhombus,go,,,,go-2,1,,,,,,
2,455.0,17,phase_2,red_triangle,go,,,,go-2,1,,,,,,
2,477.0,17,phase_2,blue_circle,go,,,,go-1,1,,,,,,
2,475.0,17,phase_2,blue_circle,go,,,,go-1,1,,,,,,
1,405.0,17,phase_2,blue_rhombus,stop,purple,300.0,tracking-SSD,go-1,3,,,,,,
,1375.0,1,phase_3,,,,,,,,red_square,go-2,red_square,go-2,purple_square,tracking-SSD
,1179.0,1,phase_3,,,,,,,,blue_square,go-1,blue_square,go-1,green_square,0-SSD
,860.0,1,phase_3,,,,,,,,blue_square,go-1,blue_square,go-1,red_square,go-2
,879.0,1,phase_3,,,,,,,,blue_square,go-1,blue_square,go-1,purple_square,tracking-SSD
,1110.0,1,phase_3,,,,,,,,red_square,go-2,red_square,go-2,green_square,0-SSD
,1376.0,1,phase_3,,,,,,,,purple_square,tracking-SSD,green_square,0-SSD,purple_square,tracking-SSD
,1765.0,1,phase_3,,,,,,,,red_square,go-2,red_square,go-2,blue_square,go-1
,1108.0,1,phase_3,,,,,,,,red_square,go-2,purple_square,tracking-SSD,red_square,go-2
,1272.0,1,phase_3,,,,,,,,purple_square,tracking-SSD,purple_square,tracking-SSD,blue_square,go-1
,1910.0,1,phase_3,,,,,,,,purple_square,tracking-SSD,purple_square,tracking-SSD,green_square,0-SSD
,848.0,1,phase_3,,,,,,,,red_square,go-2,green_square,0-SSD,red_square,go-2
0,0,1,phase_3,,,,,,,,,,green_square,0-SSD,blue_square,go-1
,700.0,2,phase_3,,,,,,,,blue_square,go-1,blue_square,go-1,green_square,0-SSD
,910.0,2,phase_3,,,,,,,,red_square,go-2,red_square,go-2,green_square,0-SSD
,815.0,2,phase_3,,,,,,,,red_square,go-2,blue_square,go-1,red_square,go-2
,1307.0,2,phase_3,,,,,,,,blue_square,go-1,blue_square,go-1,purple_square,tracking-SSD
,1077.0,2,phase_3,,,,,,,,purple_square,tracking-SSD,green_square,0-SSD,purple_square,tracking-SSD
,623.0,2,phase_3,,,,,,,,red_square,go-2,red_square,go-2,purple_square,tracking-SSD
,990.0,2,phase_3,,,,,,,,red_square,go-2,red_square,go-2,blue_square,go-1
,952.0,2,phase_3,,,,,,,,blue_square,go-1,green_square,0-SSD,blue_square,go-1
,1093.0,2,phase_3,,,,,,,,purple_square,tracking-SSD,purple_square,tracking-SSD,green_square,0-SSD
,831.0,2,phase_3,,,,,,,,red_square,go-2,green_square,0-SSD,red_square,go-2
,1208.0,2,phase_3,,,,,,,,blue_square,go-1,purple_square,tracking-SSD,blue_square,go-1
,799.0,2,phase_3,,,,,,,,red_square,go-2,purple_square,tracking-SSD,red_square,go-2
,780.0,3,phase_3,,,,,,,,red_square,go-2,blue_square,go-1,red_square,go-2
,537.0,3,phase_3,,,,,,,,red_square,go-2,red_square,go-2,green_square,0-SSD
,1792.0,3,phase_3,,,,,,,,green_square,0-SSD,blue_square,go-1,green_square,0-SSD
,607.0,3,phase_3,,,,,,,,red_square,go-2,red_square,go-2,purple_square,tracking-SSD
,805.0,3,phase_3,,,,,,,,purple_square,tracking-SSD,green_square,0-SSD,purple_square,tracking-SSD
,1667.0,3,phase_3,,,,,,,,purple_square,tracking-SSD,blue_square,go-1,purple_square,tracking-SSD
,864.0,3,phase_3,,,,,,,,red_square,go-2,red_square,go-2,blue_square,go-1
,1073.0,3,phase_3,,,,,,,,purple_square,tracking-SSD,purple_square,tracking-SSD,blue_square,go-1
,1013.0,3,phase_3,,,,,,,,green_square,0-SSD,green_square,0-SSD,blue_square,go-1
,682.0,3,phase_3,,,,,,,,purple_square,tracking-SSD,purple_square,tracking-SSD,green_square,0-SSD
,801.0,3,phase_3,,,,,,,,red_square,go-2,purple_square,tracking-SSD,red_square,go-2
,786.0,3,phase_3,,,,,,,,red_square,go-2,green_square,0-SSD,red_square,go-2
,690.0,4,phase_3,,,,,,,,green_square,0-SSD,blue_square,go-1,green_square,0-SSD
,663.0,4,phase_3,,,,,,,,red_square,go-2,red_square,go-2,purple_square,tracking-SSD
,580.0,4,phase_3,,,,,,,,red_square,go-2,blue_square,go-1,red_square,go-2
,1386.0,4,phase_3,,,,,,,,purple_square,tracking-SSD,green_square,0-SSD,purple_square,tracking-SSD
,1235.0,4,phase_3,,,,,,,,purple_square,tracking-SSD,blue_square,go-1,purple_square,tracking-SSD
,972.0,4,phase_3,,,,,,,,red_square,go-2,red_square,go-2,green_square,0-SSD
,652.0,4,phase_3,,,,,,,,green_square,0-SSD,purple_square,tracking-SSD,green_square,0-SSD
,1311.0,4,phase_3,,,,,,,,green_square,0-SSD,green_square,0-SSD,blue_square,go-1
,699.0,4,phase_3,,,,,,,,red_square,go-2,green_square,0-SSD,red_square,go-2
,784.0,4,phase_3,,,,,,,,red_square,go-2,red_square,go-2,blue_square,go-1
,621.0,4,phase_3,,,,,,,,red_square,go-2,purple_square,tracking-SSD,red_square,go-2
,1326.0,4,phase_3,,,,,,,,purple_square,tracking-SSD,purple_square,tracking-SSD,blue_square,go-1
,949.0,5,phase_3,,,,,,,,red_square,go-2,red_square,go-2,green_square,0-SSD
,776.0,5,phase_3,,,,,,,,purple_square,tracking-SSD,blue_square,go-1,purple_square,tracking-SSD
,840.0,5,phase_3,,,,,,,,red_square,go-2,blue_square,go-1,red_square,go-2
,677.0,5,phase_3,,,,,,,,red_square,go-2,red_square,go-2,purple_square,tracking-SSD
,1021.0,5,phase_3,,,,,,,,purple_square,tracking-SSD,green_square,0-SSD,purple_square,tracking-SSD
,1310.0,5,phase_3,,,,,,,,green_square,0-SSD,blue_square,go-1,green_square,0-SSD
,821.0,5,phase_3,,,,,,,,red_square,go-2,green_square,0-SSD,red_square,go-2
,603.0,5,phase_3,,,,,,,,red_square,go-2,red_square,go-2,blue_square,go-1
,1669.0,5,phase_3,,,,,,,,green_square,0-SSD,green_square,0-SSD,blue_square,go-1
,775.0,5,phase_3,,,,,,,,green_square,0-SSD,purple_square,tracking-SSD,green_square,0-SSD
,623.0,5,phase_3,,,,,,,,purple_square,tracking-SSD,purple_square,tracking-SSD,blue_square,go-1
,709.0,5,phase_3,,,,,,,,red_square,go-2,purple_square,tracking-SSD,red_square,go-2
