raw_reward_magnitude,stim_reward,stepwise_reward_magnitude,paired_with_stopping,stim_location,response,reaction_time,block,num_trial_presentations,which_phase,stop_signal_trial_type,left_SSD,right_SSD,accuracy,chosen_bidding_amount,chosen_bidding_level,possible_bid_1,possible_bid_2,possible_bid_3,possible_bid_4,possible_bid_5,possible_bid_6,color_text,shape_text
0.0,2.0,0.0,0.0,2.0,2.0,369.7879840619862,1.0,1.0,phase_1,,,,,,,,,,,,,green,cross
88.0,6.0,1.0,1.0,1.0,1.0,360.7332590036094,1.0,1.0,phase_1,,,,,,,,,,,,,magenta,triangle
42.0,5.0,0.5,1.0,2.0,2.0,323.2915527187288,1.0,1.0,phase_1,,,,,,,,,,,,,white,I
95.0,2.0,1.0,0.0,3.0,3.0,357.7316156588495,1.0,1.0,phase_1,,,,,,,,,,,,,green,cross
30.0,1.0,0.5,0.0,1.0,1.0,328.4762641415,1.0,1.0,phase_1,,,,,,,,,,,,,cyan,circle
68.0,1.0,0.5,0.0,1.0,1.0,335.9735431149602,1.0,1.0,phase_1,,,,,,,,,,,,,cyan,circle
26.0,1.0,0.5,0.0,3.0,3.0,359.7618229687214,1.0,1.0,phase_1,,,,,,,,,,,,,cyan,circle
224.0,7.0,2.0,1.0,4.0,4.0,392.9035919718444,1.0,1.0,phase_1,,,,,,,,,,,,,gray,hexagon
222.0,7.0,2.0,1.0,4.0,4.0,373.4458708204329,1.0,1.0,phase_1,,,,,,,,,,,,,gray,hexagon
417.0,8.0,4.0,1.0,4.0,4.0,361.2241931259632,1.0,1.0,phase_1,,,,,,,,,,,,,yellow,flipped triangle
0.0,7.0,0.0,1.0,4.0,4.0,327.8550137765705,1.0,1.0,phase_1,,,,,,,,,,,,,gray,hexagon
211.0,3.0,2.0,0.0,4.0,4.0,388.6319939047098,1.0,1.0,phase_1,,,,,,,,,,,,,blue,diamond
411.0,4.0,4.0,0.0,4.0,4.0,333.2937769591808,1.0,1.0,phase_1,,,,,,,,,,,,,orange,square
54.0,5.0,0.5,1.0,4.0,4.0,320.1976078562438,1.0,1.0,phase_1,,,,,,,,,,,,,white,I
208.0,3.0,2.0,0.0,1.0,1.0,356.5714778378606,1.0,1.0,phase_1,,,,,,,,,,,,,blue,diamond
62.0,1.0,0.5,0.0,4.0,4.0,389.2666548490524,1.0,1.0,phase_1,,,,,,,,,,,,,cyan,circle
41.0,1.0,0.5,0.0,1.0,1.0,263.6553468182683,1.0,1.0,phase_1,,,,,,,,,,,,,cyan,circle
389.0,4.0,4.0,0.0,4.0,4.0,355.7321070693433,1.0,1.0,phase_1,,,,,,,,,,,,,orange,square
118.0,6.0,1.0,1.0,1.0,1.0,299.907588865608,1.0,1.0,phase_1,,,,,,,,,,,,,magenta,triangle
209.0,3.0,2.0,0.0,2.0,2.0,344.3172550760209,1.0,1.0,phase_1,,,,,,,,,,,,,blue,diamond
0.0,1.0,0.0,0.0,3.0,3.0,369.0011817961931,1.0,1.0,phase_1,,,,,,,,,,,,,cyan,circle
100.0,6.0,1.0,1.0,4.0,4.0,325.9341400116682,1.0,1.0,phase_1,,,,,,,,,,,,,magenta,triangle
224.0,3.0,2.0,0.0,1.0,1.0,248.6974340863526,1.0,1.0,phase_1,,,,,,,,,,,,,blue,diamond
0.0,8.0,0.0,1.0,1.0,1.0,316.3703097961843,1.0,1.0,phase_1,,,,,,,,,,,,,yellow,flipped triangle
37.0,1.0,0.5,0.0,4.0,4.0,335.7376200146973,1.0,1.0,phase_1,,,,,,,,,,,,,cyan,circle
205.0,7.0,2.0,1.0,1.0,1.0,258.3095440641045,1.0,1.0,phase_1,,,,,,,,,,,,,gray,hexagon
424.0,4.0,4.0,0.0,1.0,1.0,271.509928163141,1.0,1.0,phase_1,,,,,,,,,,,,,orange,square
191.0,7.0,2.0,1.0,2.0,2.0,303.8301980122924,1.0,1.0,phase_1,,,,,,,,,,,,,gray,hexagon
62.0,1.0,0.5,0.0,2.0,2.0,327.2726219147444,1.0,1.0,phase_1,,,,,,,,,,,,,cyan,circle
0.0,1.0,0.0,0.0,2.0,2.0,304.1461440734565,1.0,1.0,phase_1,,,,,,,,,,,,,cyan,circle
29.0,5.0,0.5,1.0,2.0,2.0,354.040278121829,1.0,1.0,phase_1,,,,,,,,,,,,,white,I
114.0,6.0,1.0,1.0,4.0,4.0,374.405053909868,1.0,1.0,phase_1,,,,,,,,,,,,,magenta,triangle
189.0,3.0,2.0,0.0,2.0,2.0,466.4800772443414,1.0,1.0,phase_1,,,,,,,,,,,,,blue,diamond
70.0,1.0,0.5,0.0,2.0,2.0,342.3770540393889,1.0,1.0,phase_1,,,,,,,,,,,,,cyan,circle
382.0,8.0,4.0,1.0,4.0,4.0,487.5131389126181,1.0,1.0,phase_1,,,,,,,,,,,,,yellow,flipped triangle
0.0,6.0,0.0,1.0,4.0,4.0,322.1235517412424,1.0,1.0,phase_1,,,,,,,,,,,,,magenta,triangle
63.0,5.0,0.5,1.0,4.0,4.0,320.0420010834932,1.0,1.0,phase_1,,,,,,,,,,,,,white,I
175.0,3.0,2.0,0.0,1.0,1.0,312.8517749719322,1.0,1.0,phase_1,,,,,,,,,,,,,blue,diamond
85.0,6.0,1.0,1.0,3.0,3.0,320.7221277989447,1.0,1.0,phase_1,,,,,,,,,,,,,magenta,triangle
206.0,3.0,2.0,0.0,3.0,3.0,344.1119263879955,1.0,1.0,phase_1,,,,,,,,,,,,,blue,diamond
383.0,8.0,4.0,1.0,1.0,1.0,344.8946257121861,1.0,1.0,phase_1,,,,,,,,,,,,,yellow,flipped triangle
103.0,2.0,1.0,0.0,1.0,1.0,292.8776103071868,1.0,1.0,phase_1,,,,,,,,,,,,,green,cross
394.0,4.0,4.0,0.0,3.0,3.0,382.4970512650907,1.0,1.0,phase_1,,,,,,,,,,,,,orange,square
406.0,8.0,4.0,1.0,2.0,2.0,293.194789905101,1.0,1.0,phase_1,,,,,,,,,,,,,yellow,flipped triangle
0.0,5.0,0.0,1.0,1.0,1.0,236.0165542922914,1.0,1.0,phase_1,,,,,,,,,,,,,white,I
33.0,5.0,0.5,1.0,2.0,2.0,267.9787157103419,1.0,1.0,phase_1,,,,,,,,,,,,,white,I
425.0,8.0,4.0,1.0,3.0,3.0,348.4197831712663,1.0,1.0,phase_1,,,,,,,,,,,,,yellow,flipped triangle
78.0,6.0,1.0,1.0,1.0,1.0,272.1680477261543,1.0,1.0,phase_1,,,,,,,,,,,,,magenta,triangle
196.0,7.0,2.0,1.0,2.0,2.0,292.6998110488057,1.0,1.0,phase_1,,,,,,,,,,,,,gray,hexagon
98.0,2.0,1.0,0.0,2.0,2.0,327.8762400150299,1.0,1.0,phase_1,,,,,,,,,,,,,green,cross
119.0,6.0,1.0,1.0,4.0,4.0,373.3592419885099,1.0,1.0,phase_1,,,,,,,,,,,,,magenta,triangle
121.0,2.0,1.0,0.0,1.0,1.0,330.5532042868435,1.0,1.0,phase_1,,,,,,,,,,,,,green,cross
198.0,3.0,2.0,0.0,2.0,2.0,332.3275460861623,1.0,1.0,phase_1,,,,,,,,,,,,,blue,diamond
395.0,8.0,4.0,1.0,4.0,4.0,320.9905447438359,1.0,1.0,phase_1,,,,,,,,,,,,,yellow,flipped triangle
390.0,4.0,4.0,0.0,2.0,2.0,307.8133915551007,1.0,1.0,phase_1,,,,,,,,,,,,,orange,square
396.0,4.0,4.0,0.0,3.0,3.0,365.6029417179525,1.0,1.0,phase_1,,,,,,,,,,,,,orange,square
187.0,3.0,2.0,0.0,3.0,3.0,322.4415476433933,1.0,1.0,phase_1,,,,,,,,,,,,,blue,diamond
191.0,3.0,2.0,0.0,2.0,2.0,288.5151864029467,1.0,1.0,phase_1,,,,,,,,,,,,,blue,diamond
216.0,3.0,2.0,0.0,4.0,4.0,320.9958421066403,1.0,1.0,phase_1,,,,,,,,,,,,,blue,diamond
96.0,2.0,1.0,0.0,3.0,3.0,333.0047111958265,1.0,1.0,phase_1,,,,,,,,,,,,,green,cross
393.0,4.0,4.0,0.0,1.0,1.0,321.6103473678231,1.0,1.0,phase_1,,,,,,,,,,,,,orange,square
178.0,3.0,2.0,0.0,2.0,2.0,300.4851532168686,1.0,1.0,phase_1,,,,,,,,,,,,,blue,diamond
405.0,8.0,4.0,1.0,2.0,2.0,304.8853920772671,1.0,1.0,phase_1,,,,,,,,,,,,,yellow,flipped triangle
0.0,2.0,0.0,0.0,1.0,1.0,282.0421839132905,1.0,1.0,phase_1,,,,,,,,,,,,,green,cross
396.0,8.0,4.0,1.0,2.0,2.0,279.1936597786844,1.0,1.0,phase_1,,,,,,,,,,,,,yellow,flipped triangle
0.0,7.0,0.0,1.0,3.0,3.0,461.8573850020766,1.0,1.0,phase_1,,,,,,,,,,,,,gray,hexagon
42.0,1.0,0.5,0.0,4.0,4.0,329.0051589719951,1.0,1.0,phase_1,,,,,,,,,,,,,cyan,circle
0.0,4.0,0.0,0.0,1.0,1.0,273.114126175642,1.0,1.0,phase_1,,,,,,,,,,,,,orange,square
47.0,5.0,0.5,1.0,3.0,3.0,304.2204701341688,1.0,1.0,phase_1,,,,,,,,,,,,,white,I
0.0,7.0,0.0,1.0,4.0,4.0,328.2339689321816,1.0,1.0,phase_1,,,,,,,,,,,,,gray,hexagon
377.0,8.0,4.0,1.0,2.0,2.0,263.842849060893,1.0,1.0,phase_1,,,,,,,,,,,,,yellow,flipped triangle
377.0,4.0,4.0,0.0,3.0,3.0,294.6757259778678,1.0,1.0,phase_1,,,,,,,,,,,,,orange,square
90.0,2.0,1.0,0.0,4.0,4.0,320.9607661701739,1.0,1.0,phase_1,,,,,,,,,,,,,green,cross
0.0,7.0,0.0,1.0,2.0,2.0,306.9952228106558,1.0,1.0,phase_1,,,,,,,,,,,,,gray,hexagon
32.0,1.0,0.5,0.0,1.0,1.0,262.6957972534001,1.0,1.0,phase_1,,,,,,,,,,,,,cyan,circle
196.0,3.0,2.0,0.0,4.0,4.0,420.036306604743,1.0,1.0,phase_1,,,,,,,,,,,,,blue,diamond
58.0,1.0,0.5,0.0,2.0,2.0,289.0414278954267,1.0,1.0,phase_1,,,,,,,,,,,,,cyan,circle
0.0,1.0,0.0,0.0,1.0,1.0,252.29069171473378,1.0,1.0,phase_1,,,,,,,,,,,,,cyan,circle
0.0,5.0,0.0,1.0,1.0,1.0,276.1047091335058,1.0,1.0,phase_1,,,,,,,,,,,,,white,I
382.0,4.0,4.0,0.0,2.0,2.0,300.1171429641545,1.0,1.0,phase_1,,,,,,,,,,,,,orange,square
0.0,6.0,0.0,1.0,2.0,2.0,299.7793490067124,1.0,1.0,phase_1,,,,,,,,,,,,,magenta,triangle
389.0,8.0,4.0,1.0,3.0,3.0,333.2413639873266,1.0,1.0,phase_1,,,,,,,,,,,,,yellow,flipped triangle
192.0,7.0,2.0,1.0,3.0,3.0,401.9322488456964,1.0,1.0,phase_1,,,,,,,,,,,,,gray,hexagon
29.0,1.0,0.5,0.0,3.0,3.0,324.7430073097348,1.0,1.0,phase_1,,,,,,,,,,,,,cyan,circle
412.0,4.0,4.0,0.0,2.0,2.0,255.9928111732006,1.0,1.0,phase_1,,,,,,,,,,,,,orange,square
86.0,2.0,1.0,0.0,1.0,1.0,279.2588258162141,1.0,1.0,phase_1,,,,,,,,,,,,,green,cross
52.0,1.0,0.5,0.0,2.0,2.0,280.2990260533988,1.0,1.0,phase_1,,,,,,,,,,,,,cyan,circle
52.0,5.0,0.5,1.0,3.0,3.0,337.4046203680336,1.0,1.0,phase_1,,,,,,,,,,,,,white,I
0.0,8.0,0.0,1.0,4.0,4.0,341.7415581643581,1.0,1.0,phase_1,,,,,,,,,,,,,yellow,flipped triangle
206.0,7.0,2.0,1.0,4.0,4.0,419.9191769585013,1.0,1.0,phase_1,,,,,,,,,,,,,gray,hexagon
33.0,5.0,0.5,1.0,2.0,2.0,273.7845717929303,1.0,1.0,phase_1,,,,,,,,,,,,,white,I
58.0,1.0,0.5,0.0,1.0,1.0,273.2949191704392,1.0,1.0,phase_1,,,,,,,,,,,,,cyan,circle
0.0,4.0,0.0,0.0,1.0,1.0,309.7969968803227,1.0,1.0,phase_1,,,,,,,,,,,,,orange,square
62.0,5.0,0.5,1.0,2.0,2.0,310.4774798266589,1.0,1.0,phase_1,,,,,,,,,,,,,white,I
205.0,3.0,2.0,0.0,1.0,1.0,329.981682356447,1.0,1.0,phase_1,,,,,,,,,,,,,blue,diamond
0.0,1.0,0.0,0.0,1.0,1.0,374.5178962126374,1.0,1.0,phase_1,,,,,,,,,,,,,cyan,circle
0.0,6.0,0.0,1.0,2.0,2.0,341.2561640143394,1.0,1.0,phase_1,,,,,,,,,,,,,magenta,triangle
416.0,4.0,4.0,0.0,3.0,3.0,346.0138700902462,1.0,1.0,phase_1,,,,,,,,,,,,,orange,square
400.0,4.0,4.0,0.0,3.0,3.0,324.6961561962962,1.0,1.0,phase_1,,,,,,,,,,,,,orange,square
84.0,6.0,1.0,1.0,2.0,2.0,312.0614909566939,1.0,1.0,phase_1,,,,,,,,,,,,,magenta,triangle
186.0,3.0,2.0,0.0,1.0,1.0,354.2584390379488,2.0,1.0,phase_1,,,,,,,,,,,,,blue,diamond
58.0,5.0,0.5,1.0,4.0,4.0,352.9220200143754,2.0,1.0,phase_1,,,,,,,,,,,,,white,I
208.0,7.0,2.0,1.0,4.0,4.0,378.6571938544512,2.0,1.0,phase_1,,,,,,,,,,,,,gray,hexagon
110.0,2.0,1.0,0.0,4.0,4.0,276.9903042353689,2.0,1.0,phase_1,,,,,,,,,,,,,green,cross
378.0,8.0,4.0,1.0,1.0,1.0,263.3271468803286,2.0,1.0,phase_1,,,,,,,,,,,,,yellow,flipped triangle
401.0,4.0,4.0,0.0,4.0,4.0,320.1077738776803,2.0,1.0,phase_1,,,,,,,,,,,,,orange,square
406.0,8.0,4.0,1.0,2.0,2.0,263.9694679528475,2.0,1.0,phase_1,,,,,,,,,,,,,yellow,flipped triangle
0.0,3.0,0.0,0.0,1.0,1.0,275.6755570881068,2.0,1.0,phase_1,,,,,,,,,,,,,blue,diamond
33.0,1.0,0.5,0.0,3.0,3.0,287.5994872301817,2.0,1.0,phase_1,,,,,,,,,,,,,cyan,circle
400.0,4.0,4.0,0.0,3.0,3.0,312.7898187376559,2.0,1.0,phase_1,,,,,,,,,,,,,orange,square
54.0,1.0,0.5,0.0,2.0,2.0,288.5289937257767,2.0,1.0,phase_1,,,,,,,,,,,,,cyan,circle
73.0,5.0,0.5,1.0,3.0,3.0,311.8725870735943,2.0,1.0,phase_1,,,,,,,,,,,,,white,I
98.0,6.0,1.0,1.0,1.0,1.0,258.2464390434325,2.0,1.0,phase_1,,,,,,,,,,,,,magenta,triangle
383.0,4.0,4.0,0.0,1.0,1.0,346.7626622878015,2.0,1.0,phase_1,,,,,,,,,,,,,orange,square
114.0,2.0,1.0,0.0,1.0,1.0,249.7136630117893,2.0,1.0,phase_1,,,,,,,,,,,,,green,cross
98.0,6.0,1.0,1.0,3.0,3.0,336.0946527682245,2.0,1.0,phase_1,,,,,,,,,,,,,magenta,triangle
175.0,7.0,2.0,1.0,4.0,4.0,337.0809950865805,2.0,1.0,phase_1,,,,,,,,,,,,,gray,hexagon
0.0,5.0,0.0,1.0,2.0,2.0,271.3860711082816,2.0,1.0,phase_1,,,,,,,,,,,,,white,I
196.0,7.0,2.0,1.0,2.0,2.0,319.6712750941515,2.0,1.0,phase_1,,,,,,,,,,,,,gray,hexagon
0.0,8.0,0.0,1.0,2.0,2.0,283.1434393301606,2.0,1.0,phase_1,,,,,,,,,,,,,yellow,flipped triangle
84.0,2.0,1.0,0.0,4.0,4.0,384.4366939738393,2.0,1.0,phase_1,,,,,,,,,,,,,green,cross
85.0,2.0,1.0,0.0,2.0,2.0,275.8298539556563,2.0,1.0,phase_1,,,,,,,,,,,,,green,cross
0.0,4.0,0.0,0.0,3.0,3.0,351.5768181532621,2.0,1.0,phase_1,,,,,,,,,,,,,orange,square
98.0,6.0,1.0,1.0,2.0,2.0,274.9942233785987,2.0,1.0,phase_1,,,,,,,,,,,,,magenta,triangle
55.0,5.0,0.5,1.0,1.0,1.0,274.6354257687926,2.0,1.0,phase_1,,,,,,,,,,,,,white,I
400.0,8.0,4.0,1.0,1.0,1.0,320.4638888128102,2.0,1.0,phase_1,,,,,,,,,,,,,yellow,flipped triangle
196.0,7.0,2.0,1.0,1.0,1.0,277.2421301342547,2.0,1.0,phase_1,,,,,,,,,,,,,gray,hexagon
0.0,2.0,0.0,0.0,4.0,4.0,411.9900818914175,2.0,1.0,phase_1,,,,,,,,,,,,,green,cross
422.0,4.0,4.0,0.0,2.0,2.0,268.1692764163017,2.0,1.0,phase_1,,,,,,,,,,,,,orange,square
0.0,7.0,0.0,1.0,1.0,1.0,288.5536160320043,2.0,1.0,phase_1,,,,,,,,,,,,,gray,hexagon
0.0,2.0,0.0,0.0,4.0,4.0,313.7050182558596,2.0,1.0,phase_1,,,,,,,,,,,,,green,cross
84.0,6.0,1.0,1.0,4.0,4.0,345.5191347748041,2.0,1.0,phase_1,,,,,,,,,,,,,magenta,triangle
188.0,7.0,2.0,1.0,4.0,4.0,325.5457333289087,2.0,1.0,phase_1,,,,,,,,,,,,,gray,hexagon
0.0,7.0,0.0,1.0,2.0,2.0,279.7676036134362,2.0,1.0,phase_1,,,,,,,,,,,,,gray,hexagon
79.0,6.0,1.0,1.0,2.0,2.0,272.4025812931359,2.0,1.0,phase_1,,,,,,,,,,,,,magenta,triangle
210.0,7.0,2.0,1.0,2.0,2.0,280.161639675498,2.0,1.0,phase_1,,,,,,,,,,,,,gray,hexagon
186.0,3.0,2.0,0.0,3.0,3.0,363.313240930438,2.0,1.0,phase_1,,,,,,,,,,,,,blue,diamond
124.0,6.0,1.0,1.0,1.0,1.0,259.0708630159497,2.0,1.0,phase_1,,,,,,,,,,,,,magenta,triangle
191.0,3.0,2.0,0.0,3.0,3.0,306.1331426724791,2.0,1.0,phase_1,,,,,,,,,,,,,blue,diamond
50.0,5.0,0.5,1.0,4.0,4.0,363.9205703511834,2.0,1.0,phase_1,,,,,,,,,,,,,white,I
222.0,3.0,2.0,0.0,2.0,2.0,274.4775768369436,2.0,1.0,phase_1,,,,,,,,,,,,,blue,diamond
0.0,3.0,0.0,0.0,1.0,1.0,275.7853642106056,2.0,1.0,phase_1,,,,,,,,,,,,,blue,diamond
417.0,4.0,4.0,0.0,1.0,1.0,298.0475570075214,2.0,1.0,phase_1,,,,,,,,,,,,,orange,square
406.0,4.0,4.0,0.0,2.0,2.0,277.0702582783997,2.0,1.0,phase_1,,,,,,,,,,,,,orange,square
0.0,2.0,0.0,0.0,1.0,1.0,265.0148151442408,2.0,1.0,phase_1,,,,,,,,,,,,,green,cross
422.0,8.0,4.0,1.0,3.0,3.0,344.5468638092279,2.0,1.0,phase_1,,,,,,,,,,,,,yellow,flipped triangle
0.0,5.0,0.0,1.0,2.0,2.0,279.0614129044115,2.0,1.0,phase_1,,,,,,,,,,,,,white,I
418.0,4.0,4.0,0.0,4.0,4.0,354.9946299754083,2.0,1.0,phase_1,,,,,,,,,,,,,orange,square
112.0,6.0,1.0,1.0,2.0,2.0,257.3838992975652,2.0,1.0,phase_1,,,,,,,,,,,,,magenta,triangle
0.0,4.0,0.0,0.0,2.0,2.0,265.0607130490243,2.0,1.0,phase_1,,,,,,,,,,,,,orange,square
0.0,3.0,0.0,0.0,4.0,4.0,337.3699146322906,2.0,1.0,phase_1,,,,,,,,,,,,,blue,diamond
94.0,2.0,1.0,0.0,3.0,3.0,416.8177940882742,2.0,1.0,phase_1,,,,,,,,,,,,,green,cross
47.0,1.0,0.5,0.0,4.0,4.0,323.7990611232817,2.0,1.0,phase_1,,,,,,,,,,,,,cyan,circle
203.0,7.0,2.0,1.0,3.0,3.0,316.4822501130402,2.0,1.0,phase_1,,,,,,,,,,,,,gray,hexagon
118.0,2.0,1.0,0.0,2.0,2.0,293.3019041083753,2.0,1.0,phase_1,,,,,,,,,,,,,green,cross
0.0,2.0,0.0,0.0,4.0,4.0,347.1487662754953,2.0,1.0,phase_1,,,,,,,,,,,,,green,cross
41.0,5.0,0.5,1.0,3.0,3.0,317.6721320487559,2.0,1.0,phase_1,,,,,,,,,,,,,white,I
94.0,6.0,1.0,1.0,3.0,3.0,348.8669549115002,2.0,1.0,phase_1,,,,,,,,,,,,,magenta,triangle
0.0,2.0,0.0,0.0,4.0,4.0,317.4224710091948,2.0,1.0,phase_1,,,,,,,,,,,,,green,cross
390.0,8.0,4.0,1.0,3.0,3.0,316.4019319228828,2.0,1.0,phase_1,,,,,,,,,,,,,yellow,flipped triangle
0.0,5.0,0.0,1.0,4.0,4.0,341.0362000577152,2.0,1.0,phase_1,,,,,,,,,,,,,white,I
51.0,5.0,0.5,1.0,3.0,3.0,317.5477972254157,2.0,1.0,phase_1,,,,,,,,,,,,,white,I
26.0,5.0,0.5,1.0,3.0,3.0,308.662821073085,2.0,1.0,phase_1,,,,,,,,,,,,,white,I
424.0,8.0,4.0,1.0,2.0,2.0,299.6056680567562,2.0,1.0,phase_1,,,,,,,,,,,,,yellow,flipped triangle
175.0,3.0,2.0,0.0,3.0,3.0,300.62588583678,2.0,1.0,phase_1,,,,,,,,,,,,,blue,diamond
105.0,2.0,1.0,0.0,4.0,4.0,331.0911618173122,2.0,1.0,phase_1,,,,,,,,,,,,,green,cross
204.0,3.0,2.0,0.0,4.0,4.0,465.867422055453,2.0,1.0,phase_1,,,,,,,,,,,,,blue,diamond
0.0,8.0,0.0,1.0,4.0,4.0,324.5151918381452,2.0,1.0,phase_1,,,,,,,,,,,,,yellow,flipped triangle
204.0,7.0,2.0,1.0,3.0,3.0,300.4227760247886,2.0,1.0,phase_1,,,,,,,,,,,,,gray,hexagon
0.0,2.0,0.0,0.0,1.0,1.0,279.2619662359357,2.0,1.0,phase_1,,,,,,,,,,,,,green,cross
0.0,4.0,0.0,0.0,2.0,2.0,301.1089726351201,2.0,1.0,phase_1,,,,,,,,,,,,,orange,square
0.0,4.0,0.0,0.0,2.0,2.0,291.9953763484955,2.0,1.0,phase_1,,,,,,,,,,,,,orange,square
376.0,4.0,4.0,0.0,1.0,1.0,267.35406415537,2.0,1.0,phase_1,,,,,,,,,,,,,orange,square
0.0,3.0,0.0,0.0,4.0,4.0,336.5265387110412,2.0,1.0,phase_1,,,,,,,,,,,,,blue,diamond
103.0,6.0,1.0,1.0,2.0,2.0,316.8552787974477,2.0,1.0,phase_1,,,,,,,,,,,,,magenta,triangle
198.0,7.0,2.0,1.0,3.0,3.0,336.0945978201926,2.0,1.0,phase_1,,,,,,,,,,,,,gray,hexagon
411.0,8.0,4.0,1.0,4.0,4.0,358.8768420740962,2.0,1.0,phase_1,,,,,,,,,,,,,yellow,flipped triangle
88.0,2.0,1.0,0.0,1.0,1.0,292.1639657579362,2.0,1.0,phase_1,,,,,,,,,,,,,green,cross
188.0,3.0,2.0,0.0,4.0,4.0,341.3164247758686,2.0,1.0,phase_1,,,,,,,,,,,,,blue,diamond
0.0,1.0,0.0,0.0,3.0,3.0,341.7203859426081,2.0,1.0,phase_1,,,,,,,,,,,,,cyan,circle
103.0,6.0,1.0,1.0,2.0,2.0,271.3364269584417,2.0,1.0,phase_1,,,,,,,,,,,,,magenta,triangle
101.0,6.0,1.0,1.0,4.0,4.0,283.7991560809314,2.0,1.0,phase_1,,,,,,,,,,,,,magenta,triangle
389.0,8.0,4.0,1.0,3.0,3.0,332.7557831071317,2.0,1.0,phase_1,,,,,,,,,,,,,yellow,flipped triangle
65.0,1.0,0.5,0.0,3.0,3.0,308.6842941120267,2.0,1.0,phase_1,,,,,,,,,,,,,cyan,circle
190.0,3.0,2.0,0.0,2.0,2.0,285.0896012969315,2.0,1.0,phase_1,,,,,,,,,,,,,blue,diamond
203.0,3.0,2.0,0.0,3.0,3.0,310.3630221448838,2.0,1.0,phase_1,,,,,,,,,,,,,blue,diamond
30.0,5.0,0.5,1.0,4.0,4.0,352.8918661177158,2.0,1.0,phase_1,,,,,,,,,,,,,white,I
395.0,8.0,4.0,1.0,4.0,4.0,345.4526518471539,2.0,1.0,phase_1,,,,,,,,,,,,,yellow,flipped triangle
0.0,5.0,0.0,1.0,2.0,2.0,346.3037838228047,2.0,1.0,phase_1,,,,,,,,,,,,,white,I
74.0,5.0,0.5,1.0,1.0,1.0,312.9214639775455,2.0,1.0,phase_1,,,,,,,,,,,,,white,I
382.0,4.0,4.0,0.0,2.0,2.0,312.6654252409935,2.0,1.0,phase_1,,,,,,,,,,,,,orange,square
214.0,7.0,2.0,1.0,4.0,4.0,326.4275738038122,2.0,1.0,phase_1,,,,,,,,,,,,,gray,hexagon
186.0,7.0,2.0,1.0,4.0,4.0,360.8025531284511,2.0,1.0,phase_1,,,,,,,,,,,,,gray,hexagon
409.0,4.0,4.0,0.0,1.0,1.0,300.6563410162925,2.0,1.0,phase_1,,,,,,,,,,,,,orange,square
400.0,8.0,4.0,1.0,1.0,1.0,280.0849028863013,2.0,1.0,phase_1,,,,,,,,,,,,,yellow,flipped triangle
221.0,7.0,2.0,1.0,2.0,2.0,281.1451600864529,2.0,1.0,phase_1,,,,,,,,,,,,,gray,hexagon
0.0,8.0,0.0,1.0,4.0,4.0,313.7842686846852,2.0,1.0,phase_1,,,,,,,,,,,,,yellow,flipped triangle
101.0,2.0,1.0,0.0,1.0,1.0,352.3565349169075,2.0,1.0,phase_1,,,,,,,,,,,,,green,cross
412.0,8.0,4.0,1.0,3.0,3.0,307.7534660696983,2.0,1.0,phase_1,,,,,,,,,,,,,yellow,flipped triangle
222.0,7.0,2.0,1.0,3.0,3.0,342.0105502009392,2.0,1.0,phase_1,,,,,,,,,,,,,gray,hexagon
0.0,3.0,0.0,0.0,4.0,4.0,350.1228610984981,3.0,1.0,phase_1,,,,,,,,,,,,,blue,diamond
199.0,7.0,2.0,1.0,1.0,1.0,253.40204080566758,3.0,1.0,phase_1,,,,,,,,,,,,,gray,hexagon
95.0,6.0,1.0,1.0,2.0,2.0,285.8553221449256,3.0,1.0,phase_1,,,,,,,,,,,,,magenta,triangle
209.0,7.0,2.0,1.0,1.0,1.0,400.6143677979707,3.0,1.0,phase_1,,,,,,,,,,,,,gray,hexagon
0.0,3.0,0.0,0.0,1.0,1.0,323.3570200391114,3.0,1.0,phase_1,,,,,,,,,,,,,blue,diamond
210.0,3.0,2.0,0.0,3.0,3.0,398.348581045866,3.0,1.0,phase_1,,,,,,,,,,,,,blue,diamond
96.0,6.0,1.0,1.0,3.0,3.0,380.1617040298879,3.0,1.0,phase_1,,,,,,,,,,,,,magenta,triangle
0.0,6.0,0.0,1.0,4.0,4.0,334.0144800022244,3.0,1.0,phase_1,,,,,,,,,,,,,magenta,triangle
389.0,4.0,4.0,0.0,4.0,4.0,400.853450410068,3.0,1.0,phase_1,,,,,,,,,,,,,orange,square
101.0,2.0,1.0,0.0,2.0,2.0,303.28274006024,3.0,1.0,phase_1,,,,,,,,,,,,,green,cross
403.0,4.0,4.0,0.0,3.0,3.0,359.0808510780334,3.0,1.0,phase_1,,,,,,,,,,,,,orange,square
416.0,8.0,4.0,1.0,1.0,1.0,313.8126460835337,3.0,1.0,phase_1,,,,,,,,,,,,,yellow,flipped triangle
385.0,8.0,4.0,1.0,3.0,3.0,302.3015819489956,3.0,1.0,phase_1,,,,,,,,,,,,,yellow,flipped triangle
0.0,6.0,0.0,1.0,2.0,2.0,305.6775289587676,3.0,1.0,phase_1,,,,,,,,,,,,,magenta,triangle
100.0,2.0,1.0,0.0,1.0,1.0,293.6009611003101,3.0,1.0,phase_1,,,,,,,,,,,,,green,cross
0.0,6.0,0.0,1.0,2.0,2.0,282.3649519123137,3.0,1.0,phase_1,,,,,,,,,,,,,magenta,triangle
211.0,7.0,2.0,1.0,2.0,2.0,302.7062830515206,3.0,1.0,phase_1,,,,,,,,,,,,,gray,hexagon
395.0,4.0,4.0,0.0,1.0,1.0,306.2416231259703,3.0,1.0,phase_1,,,,,,,,,,,,,orange,square
59.0,5.0,0.5,1.0,3.0,3.0,306.2549456954002,3.0,1.0,phase_1,,,,,,,,,,,,,white,I
382.0,4.0,4.0,0.0,1.0,1.0,293.7932959757745,3.0,1.0,phase_1,,,,,,,,,,,,,orange,square
74.0,1.0,0.5,0.0,3.0,3.0,308.5370729677379,3.0,1.0,phase_1,,,,,,,,,,,,,cyan,circle
0.0,6.0,0.0,1.0,3.0,3.0,342.463833745569,3.0,1.0,phase_1,,,,,,,,,,,,,magenta,triangle
385.0,4.0,4.0,0.0,4.0,4.0,411.1141939647496,3.0,1.0,phase_1,,,,,,,,,,,,,orange,square
65.0,1.0,0.5,0.0,3.0,3.0,306.8307028152048,3.0,1.0,phase_1,,,,,,,,,,,,,cyan,circle
376.0,8.0,4.0,1.0,4.0,4.0,329.6351619064808,3.0,1.0,phase_1,,,,,,,,,,,,,yellow,flipped triangle
39.0,5.0,0.5,1.0,4.0,4.0,334.3533207662403,3.0,1.0,phase_1,,,,,,,,,,,,,white,I
411.0,4.0,4.0,0.0,2.0,2.0,297.3775626160204,3.0,1.0,phase_1,,,,,,,,,,,,,orange,square
175.0,7.0,2.0,1.0,4.0,4.0,367.1511388383806,3.0,1.0,phase_1,,,,,,,,,,,,,gray,hexagon
199.0,7.0,2.0,1.0,1.0,1.0,321.6276308521628,3.0,1.0,phase_1,,,,,,,,,,,,,gray,hexagon
183.0,7.0,2.0,1.0,3.0,3.0,321.6371675953269,3.0,1.0,phase_1,,,,,,,,,,,,,gray,hexagon
98.0,2.0,1.0,0.0,4.0,4.0,325.5570288747549,3.0,1.0,phase_1,,,,,,,,,,,,,green,cross
98.0,2.0,1.0,0.0,3.0,3.0,348.8833410665393,3.0,1.0,phase_1,,,,,,,,,,,,,green,cross
219.0,3.0,2.0,0.0,3.0,3.0,426.9843539223075,3.0,2.0,phase_1,,,,,,,,,,,,,blue,diamond
58.0,5.0,0.5,1.0,1.0,1.0,458.7706229649484,3.0,1.0,phase_1,,,,,,,,,,,,,white,I
0.0,3.0,0.0,0.0,2.0,2.0,395.840719807893,3.0,1.0,phase_1,,,,,,,,,,,,,blue,diamond
59.0,1.0,0.5,0.0,3.0,3.0,349.7996390797198,3.0,1.0,phase_1,,,,,,,,,,,,,cyan,circle
105.0,6.0,1.0,1.0,2.0,2.0,415.8847308717668,3.0,1.0,phase_1,,,,,,,,,,,,,magenta,triangle
0.0,7.0,0.0,1.0,2.0,2.0,405.6998952291906,3.0,1.0,phase_1,,,,,,,,,,,,,gray,hexagon
65.0,5.0,0.5,1.0,2.0,2.0,306.4311281777918,3.0,1.0,phase_1,,,,,,,,,,,,,white,I
113.0,2.0,1.0,0.0,2.0,2.0,297.1971090883016,3.0,1.0,phase_1,,,,,,,,,,,,,green,cross
40.0,1.0,0.5,0.0,4.0,4.0,647.4730423651636,3.0,1.0,phase_1,,,,,,,,,,,,,cyan,circle
210.0,3.0,2.0,0.0,4.0,4.0,366.2082310765981,3.0,1.0,phase_1,,,,,,,,,,,,,blue,diamond
55.0,1.0,0.5,0.0,1.0,1.0,366.4845232851803,3.0,1.0,phase_1,,,,,,,,,,,,,cyan,circle
119.0,2.0,1.0,0.0,4.0,4.0,419.69186579808587,3.0,1.0,phase_1,,,,,,,,,,,,,green,cross
388.0,8.0,4.0,1.0,4.0,4.0,365.7137746922672,3.0,1.0,phase_1,,,,,,,,,,,,,yellow,flipped triangle
0.0,4.0,0.0,0.0,4.0,4.0,333.9727502316236,3.0,1.0,phase_1,,,,,,,,,,,,,orange,square
0.0,7.0,0.0,1.0,3.0,3.0,424.7166700661182,3.0,1.0,phase_1,,,,,,,,,,,,,gray,hexagon
416.0,4.0,4.0,0.0,1.0,1.0,332.7626618556678,3.0,1.0,phase_1,,,,,,,,,,,,,orange,square
101.0,6.0,1.0,1.0,4.0,4.0,400.2849711105227,3.0,1.0,phase_1,,,,,,,,,,,,,magenta,triangle
70.0,5.0,0.5,1.0,4.0,4.0,310.2293158881366,3.0,1.0,phase_1,,,,,,,,,,,,,white,I
0.0,1.0,0.0,0.0,1.0,1.0,337.5079561956227,3.0,1.0,phase_1,,,,,,,,,,,,,cyan,circle
69.0,1.0,0.5,0.0,2.0,2.0,277.459864038974,3.0,1.0,phase_1,,,,,,,,,,,,,cyan,circle
44.0,5.0,0.5,1.0,3.0,3.0,381.1963186599314,3.0,1.0,phase_1,,,,,,,,,,,,,white,I
88.0,6.0,1.0,1.0,1.0,1.0,638.8745508156717,3.0,1.0,phase_1,,,,,,,,,,,,,magenta,triangle
218.0,7.0,2.0,1.0,4.0,4.0,369.4356423802674,3.0,1.0,phase_1,,,,,,,,,,,,,gray,hexagon
37.0,5.0,0.5,1.0,1.0,1.0,329.4118200428784,3.0,1.0,phase_1,,,,,,,,,,,,,white,I
394.0,8.0,4.0,1.0,2.0,2.0,318.194200284779,3.0,1.0,phase_1,,,,,,,,,,,,,yellow,flipped triangle
59.0,1.0,0.5,0.0,1.0,1.0,375.3512888215482,3.0,1.0,phase_1,,,,,,,,,,,,,cyan,circle
177.0,7.0,2.0,1.0,3.0,3.0,351.8785070627928,3.0,1.0,phase_1,,,,,,,,,,,,,gray,hexagon
0.0,1.0,0.0,0.0,4.0,4.0,343.2280831038952,3.0,1.0,phase_1,,,,,,,,,,,,,cyan,circle
425.0,4.0,4.0,0.0,3.0,3.0,407.267453148961,3.0,1.0,phase_1,,,,,,,,,,,,,orange,square
92.0,6.0,1.0,1.0,4.0,4.0,329.4755527749657,3.0,1.0,phase_1,,,,,,,,,,,,,magenta,triangle
203.0,3.0,2.0,0.0,4.0,4.0,342.8126601502299,3.0,1.0,phase_1,,,,,,,,,,,,,blue,diamond
88.0,2.0,1.0,0.0,4.0,4.0,330.4911768063903,3.0,1.0,phase_1,,,,,,,,,,,,,green,cross
0.0,8.0,0.0,1.0,2.0,2.0,342.1337329782545,3.0,1.0,phase_1,,,,,,,,,,,,,yellow,flipped triangle
196.0,3.0,2.0,0.0,4.0,4.0,322.7724102325737,3.0,1.0,phase_1,,,,,,,,,,,,,blue,diamond
218.0,3.0,2.0,0.0,2.0,2.0,367.7245620638132,3.0,1.0,phase_1,,,,,,,,,,,,,blue,diamond
178.0,7.0,2.0,1.0,3.0,3.0,399.039554875344,3.0,1.0,phase_1,,,,,,,,,,,,,gray,hexagon
191.0,7.0,2.0,1.0,3.0,3.0,358.0077029764652,3.0,1.0,phase_1,,,,,,,,,,,,,gray,hexagon
59.0,1.0,0.5,0.0,4.0,4.0,366.6592417284846,3.0,1.0,phase_1,,,,,,,,,,,,,cyan,circle
187.0,7.0,2.0,1.0,1.0,1.0,333.6236239410937,3.0,1.0,phase_1,,,,,,,,,,,,,gray,hexagon
222.0,3.0,2.0,0.0,1.0,1.0,300.2188513055444,3.0,1.0,phase_1,,,,,,,,,,,,,blue,diamond
26.0,5.0,0.5,1.0,3.0,3.0,337.6567373052239,3.0,1.0,phase_1,,,,,,,,,,,,,white,I
414.0,4.0,4.0,0.0,4.0,4.0,336.6527520120144,3.0,1.0,phase_1,,,,,,,,,,,,,orange,square
87.0,2.0,1.0,0.0,1.0,1.0,324.5307756587863,3.0,1.0,phase_1,,,,,,,,,,,,,green,cross
0.0,2.0,0.0,0.0,1.0,1.0,337.0286081917584,3.0,1.0,phase_1,,,,,,,,,,,,,green,cross
0.0,3.0,0.0,0.0,3.0,3.0,338.1903632543981,3.0,1.0,phase_1,,,,,,,,,,,,,blue,diamond
412.0,4.0,4.0,0.0,4.0,4.0,342.0974262990057,3.0,1.0,phase_1,,,,,,,,,,,,,orange,square
203.0,7.0,2.0,1.0,2.0,2.0,285.0018199533224,3.0,1.0,phase_1,,,,,,,,,,,,,gray,hexagon
409.0,8.0,4.0,1.0,4.0,4.0,328.3684463240206,3.0,1.0,phase_1,,,,,,,,,,,,,yellow,flipped triangle
92.0,6.0,1.0,1.0,4.0,4.0,429.9750071950257,3.0,1.0,phase_1,,,,,,,,,,,,,magenta,triangle
218.0,3.0,2.0,0.0,1.0,1.0,284.532755613327,3.0,1.0,phase_1,,,,,,,,,,,,,blue,diamond
0.0,8.0,0.0,1.0,1.0,1.0,296.3329018093645,3.0,1.0,phase_1,,,,,,,,,,,,,yellow,flipped triangle
106.0,2.0,1.0,0.0,4.0,4.0,329.5192080549896,3.0,1.0,phase_1,,,,,,,,,,,,,green,cross
199.0,3.0,2.0,0.0,4.0,4.0,333.8653333485126,3.0,1.0,phase_1,,,,,,,,,,,,,blue,diamond
105.0,6.0,1.0,1.0,2.0,2.0,285.655053332448,3.0,1.0,phase_1,,,,,,,,,,,,,magenta,triangle
401.0,8.0,4.0,1.0,4.0,4.0,403.2626571133733,3.0,1.0,phase_1,,,,,,,,,,,,,yellow,flipped triangle
62.0,5.0,0.5,1.0,1.0,1.0,323.3737321570515,3.0,1.0,phase_1,,,,,,,,,,,,,white,I
183.0,3.0,2.0,0.0,4.0,4.0,347.1501832827925,3.0,1.0,phase_1,,,,,,,,,,,,,blue,diamond
39.0,1.0,0.5,0.0,1.0,1.0,366.3929421454668,3.0,1.0,phase_1,,,,,,,,,,,,,cyan,circle
0.0,6.0,0.0,1.0,2.0,2.0,336.4347219467163,3.0,1.0,phase_1,,,,,,,,,,,,,magenta,triangle
214.0,3.0,2.0,0.0,3.0,3.0,348.4907178208232,3.0,1.0,phase_1,,,,,,,,,,,,,blue,diamond
0.0,6.0,0.0,1.0,3.0,3.0,334.3700421974063,3.0,1.0,phase_1,,,,,,,,,,,,,magenta,triangle
63.0,1.0,0.5,0.0,3.0,3.0,314.6532070823014,3.0,1.0,phase_1,,,,,,,,,,,,,cyan,circle
0.0,1.0,0.0,0.0,4.0,4.0,327.8342606499791,3.0,1.0,phase_1,,,,,,,,,,,,,cyan,circle
121.0,6.0,1.0,1.0,3.0,3.0,360.3172320872545,3.0,1.0,phase_1,,,,,,,,,,,,,magenta,triangle
411.0,8.0,4.0,1.0,1.0,1.0,362.81693354249,3.0,1.0,phase_1,,,,,,,,,,,,,yellow,flipped triangle
36.0,5.0,0.5,1.0,1.0,1.0,337.8335139714181,3.0,1.0,phase_1,,,,,,,,,,,,,white,I
59.0,5.0,0.5,1.0,4.0,4.0,338.4124296717345,3.0,1.0,phase_1,,,,,,,,,,,,,white,I
98.0,2.0,1.0,0.0,4.0,4.0,331.3516112975776,3.0,1.0,phase_1,,,,,,,,,,,,,green,cross
0.0,2.0,0.0,0.0,1.0,1.0,343.2685360312462,4.0,1.0,phase_1,,,,,,,,,,,,,green,cross
101.0,2.0,1.0,0.0,3.0,3.0,303.0784958973527,4.0,1.0,phase_1,,,,,,,,,,,,,green,cross
69.0,5.0,0.5,1.0,2.0,2.0,277.1049560979008,4.0,1.0,phase_1,,,,,,,,,,,,,white,I
0.0,8.0,0.0,1.0,4.0,4.0,302.0586781203747,4.0,1.0,phase_1,,,,,,,,,,,,,yellow,flipped triangle
406.0,4.0,4.0,0.0,3.0,3.0,291.8492443859577,4.0,1.0,phase_1,,,,,,,,,,,,,orange,square
416.0,8.0,4.0,1.0,1.0,1.0,237.6630282960832,4.0,1.0,phase_1,,,,,,,,,,,,,yellow,flipped triangle
414.0,8.0,4.0,1.0,2.0,2.0,283.2586597651243,4.0,1.0,phase_1,,,,,,,,,,,,,yellow,flipped triangle
218.0,7.0,2.0,1.0,1.0,1.0,327.3173989728093,4.0,1.0,phase_1,,,,,,,,,,,,,gray,hexagon
393.0,8.0,4.0,1.0,2.0,2.0,314.461471978575,4.0,1.0,phase_1,,,,,,,,,,,,,yellow,flipped triangle
42.0,5.0,0.5,1.0,1.0,1.0,318.1066513061523,4.0,1.0,phase_1,,,,,,,,,,,,,white,I
199.0,3.0,2.0,0.0,1.0,1.0,330.934798810631,4.0,1.0,phase_1,,,,,,,,,,,,,blue,diamond
50.0,1.0,0.5,0.0,1.0,1.0,294.0580537542701,4.0,1.0,phase_1,,,,,,,,,,,,,cyan,circle
32.0,5.0,0.5,1.0,1.0,1.0,261.3413138315081,4.0,1.0,phase_1,,,,,,,,,,,,,white,I
33.0,1.0,0.5,0.0,4.0,4.0,354.5087911188602,4.0,1.0,phase_1,,,,,,,,,,,,,cyan,circle
395.0,4.0,4.0,0.0,3.0,3.0,321.5341842733323,4.0,1.0,phase_1,,,,,,,,,,,,,orange,square
0.0,7.0,0.0,1.0,1.0,1.0,340.4416893608868,4.0,1.0,phase_1,,,,,,,,,,,,,gray,hexagon
98.0,6.0,1.0,1.0,3.0,3.0,311.1561359837651,4.0,1.0,phase_1,,,,,,,,,,,,,magenta,triangle
30.0,5.0,0.5,1.0,1.0,1.0,311.0830369405448,4.0,1.0,phase_1,,,,,,,,,,,,,white,I
0.0,1.0,0.0,0.0,1.0,1.0,298.2140048407018,4.0,1.0,phase_1,,,,,,,,,,,,,cyan,circle
90.0,6.0,1.0,1.0,4.0,4.0,336.0347780399024,4.0,1.0,phase_1,,,,,,,,,,,,,magenta,triangle
92.0,2.0,1.0,0.0,3.0,3.0,343.5760741122067,4.0,1.0,phase_1,,,,,,,,,,,,,green,cross
408.0,4.0,4.0,0.0,1.0,1.0,278.3491048030555,4.0,1.0,phase_1,,,,,,,,,,,,,orange,square
26.0,1.0,0.5,0.0,2.0,2.0,277.3486622609198,4.0,1.0,phase_1,,,,,,,,,,,,,cyan,circle
382.0,8.0,4.0,1.0,3.0,3.0,358.8672112673521,4.0,1.0,phase_1,,,,,,,,,,,,,yellow,flipped triangle
396.0,8.0,4.0,1.0,1.0,1.0,290.4023788869381,4.0,1.0,phase_1,,,,,,,,,,,,,yellow,flipped triangle
84.0,2.0,1.0,0.0,2.0,2.0,278.8886651396751,4.0,1.0,phase_1,,,,,,,,,,,,,green,cross
0.0,8.0,0.0,1.0,2.0,2.0,335.3333408012986,4.0,1.0,phase_1,,,,,,,,,,,,,yellow,flipped triangle
121.0,2.0,1.0,0.0,3.0,3.0,396.5475000441074,4.0,1.0,phase_1,,,,,,,,,,,,,green,cross
65.0,5.0,0.5,1.0,4.0,4.0,352.55784727633,4.0,1.0,phase_1,,,,,,,,,,,,,white,I
186.0,7.0,2.0,1.0,3.0,3.0,339.7353058680892,4.0,1.0,phase_1,,,,,,,,,,,,,gray,hexagon
105.0,2.0,1.0,0.0,3.0,3.0,339.2571536824107,4.0,1.0,phase_1,,,,,,,,,,,,,green,cross
73.0,1.0,0.5,0.0,4.0,4.0,396.484456025064,4.0,1.0,phase_1,,,,,,,,,,,,,cyan,circle
196.0,3.0,2.0,0.0,2.0,2.0,273.808057885617,4.0,1.0,phase_1,,,,,,,,,,,,,blue,diamond
110.0,6.0,1.0,1.0,2.0,2.0,297.1793892793357,4.0,1.0,phase_1,,,,,,,,,,,,,magenta,triangle
0.0,5.0,0.0,1.0,4.0,4.0,340.6491680070758,4.0,1.0,phase_1,,,,,,,,,,,,,white,I
78.0,2.0,1.0,0.0,4.0,4.0,353.83041203022,4.0,1.0,phase_1,,,,,,,,,,,,,green,cross
103.0,2.0,1.0,0.0,2.0,2.0,284.9124660715461,4.0,1.0,phase_1,,,,,,,,,,,,,green,cross
121.0,6.0,1.0,1.0,1.0,1.0,334.1358378529548,4.0,1.0,phase_1,,,,,,,,,,,,,magenta,triangle
382.0,8.0,4.0,1.0,2.0,2.0,297.1884119324386,4.0,1.0,phase_1,,,,,,,,,,,,,yellow,flipped triangle
408.0,8.0,4.0,1.0,3.0,3.0,276.9136363640427,4.0,1.0,phase_1,,,,,,,,,,,,,yellow,flipped triangle
48.0,5.0,0.5,1.0,1.0,1.0,269.1422589123249,4.0,1.0,phase_1,,,,,,,,,,,,,white,I
0.0,8.0,0.0,1.0,1.0,1.0,296.3247899897396,4.0,1.0,phase_1,,,,,,,,,,,,,yellow,flipped triangle
0.0,5.0,0.0,1.0,4.0,4.0,305.3429159335792,4.0,1.0,phase_1,,,,,,,,,,,,,white,I
123.0,6.0,1.0,1.0,1.0,1.0,669.3223146721721,4.0,1.0,phase_1,,,,,,,,,,,,,magenta,triangle
388.0,4.0,4.0,0.0,4.0,4.0,443.862478248775,4.0,1.0,phase_1,,,,,,,,,,,,,orange,square
94.0,6.0,1.0,1.0,1.0,1.0,341.4227268658578,4.0,1.0,phase_1,,,,,,,,,,,,,magenta,triangle
189.0,7.0,2.0,1.0,2.0,2.0,296.5066418983042,4.0,1.0,phase_1,,,,,,,,,,,,,gray,hexagon
396.0,4.0,4.0,0.0,2.0,2.0,277.4950321763754,4.0,1.0,phase_1,,,,,,,,,,,,,orange,square
219.0,7.0,2.0,1.0,2.0,2.0,308.9697379618883,4.0,1.0,phase_1,,,,,,,,,,,,,gray,hexagon
0.0,1.0,0.0,0.0,4.0,4.0,379.0404619649052,4.0,1.0,phase_1,,,,,,,,,,,,,cyan,circle
44.0,1.0,0.5,0.0,4.0,4.0,500.64007192850113,4.0,1.0,phase_1,,,,,,,,,,,,,cyan,circle
48.0,1.0,0.5,0.0,3.0,3.0,358.7699746713042,4.0,1.0,phase_1,,,,,,,,,,,,,cyan,circle
79.0,6.0,1.0,1.0,1.0,1.0,301.3333850540221,4.0,1.0,phase_1,,,,,,,,,,,,,magenta,triangle
68.0,5.0,0.5,1.0,2.0,2.0,326.4434328302741,4.0,1.0,phase_1,,,,,,,,,,,,,white,I
94.0,2.0,1.0,0.0,1.0,1.0,269.0264480188489,4.0,1.0,phase_1,,,,,,,,,,,,,green,cross
30.0,1.0,0.5,0.0,2.0,2.0,281.3734132796526,4.0,1.0,phase_1,,,,,,,,,,,,,cyan,circle
0.0,4.0,0.0,0.0,1.0,1.0,236.5196868777275,4.0,1.0,phase_1,,,,,,,,,,,,,orange,square
221.0,3.0,2.0,0.0,1.0,1.0,281.7493476904928,4.0,1.0,phase_1,,,,,,,,,,,,,blue,diamond
112.0,2.0,1.0,0.0,1.0,1.0,248.4364262782037,4.0,1.0,phase_1,,,,,,,,,,,,,green,cross
0.0,3.0,0.0,0.0,3.0,3.0,363.3299069479108,4.0,1.0,phase_1,,,,,,,,,,,,,blue,diamond
187.0,3.0,2.0,0.0,3.0,3.0,318.9273630268872,4.0,1.0,phase_1,,,,,,,,,,,,,blue,diamond
0.0,7.0,0.0,1.0,1.0,1.0,304.9645838327706,4.0,1.0,phase_1,,,,,,,,,,,,,gray,hexagon
192.0,3.0,2.0,0.0,2.0,2.0,274.0859407931566,4.0,1.0,phase_1,,,,,,,,,,,,,blue,diamond
0.0,3.0,0.0,0.0,2.0,2.0,387.381284032017,4.0,1.0,phase_1,,,,,,,,,,,,,blue,diamond
0.0,5.0,0.0,1.0,3.0,3.0,362.5051309354603,4.0,1.0,phase_1,,,,,,,,,,,,,white,I
79.0,2.0,1.0,0.0,3.0,3.0,329.6318491920829,4.0,1.0,phase_1,,,,,,,,,,,,,green,cross
86.0,6.0,1.0,1.0,4.0,4.0,367.9419849067926,4.0,1.0,phase_1,,,,,,,,,,,,,magenta,triangle
101.0,6.0,1.0,1.0,3.0,3.0,298.7027401104569,4.0,1.0,phase_1,,,,,,,,,,,,,magenta,triangle
405.0,4.0,4.0,0.0,2.0,2.0,297.448081895709,4.0,1.0,phase_1,,,,,,,,,,,,,orange,square
106.0,6.0,1.0,1.0,3.0,3.0,309.9171710200608,4.0,1.0,phase_1,,,,,,,,,,,,,magenta,triangle
0.0,5.0,0.0,1.0,3.0,3.0,347.2861652262509,4.0,1.0,phase_1,,,,,,,,,,,,,white,I
0.0,4.0,0.0,0.0,4.0,4.0,303.3402278088033,4.0,1.0,phase_1,,,,,,,,,,,,,orange,square
418.0,8.0,4.0,1.0,3.0,3.0,322.9359271936118,4.0,1.0,phase_1,,,,,,,,,,,,,yellow,flipped triangle
378.0,4.0,4.0,0.0,4.0,4.0,360.2388077415526,4.0,1.0,phase_1,,,,,,,,,,,,,orange,square
79.0,2.0,1.0,0.0,2.0,2.0,244.9331539683044,4.0,1.0,phase_1,,,,,,,,,,,,,green,cross
87.0,6.0,1.0,1.0,3.0,3.0,314.467438030988,4.0,1.0,phase_1,,,,,,,,,,,,,magenta,triangle
42.0,1.0,0.5,0.0,3.0,3.0,314.6261624060571,4.0,1.0,phase_1,,,,,,,,,,,,,cyan,circle
412.0,8.0,4.0,1.0,4.0,4.0,294.8047588579356,4.0,1.0,phase_1,,,,,,,,,,,,,yellow,flipped triangle
395.0,8.0,4.0,1.0,1.0,1.0,294.5020939223468,4.0,1.0,phase_1,,,,,,,,,,,,,yellow,flipped triangle
123.0,2.0,1.0,0.0,3.0,3.0,295.5297147855162,4.0,1.0,phase_1,,,,,,,,,,,,,green,cross
39.0,1.0,0.5,0.0,2.0,2.0,318.2993228547275,4.0,1.0,phase_1,,,,,,,,,,,,,cyan,circle
40.0,5.0,0.5,1.0,2.0,2.0,330.0543259829283,4.0,1.0,phase_1,,,,,,,,,,,,,white,I
59.0,5.0,0.5,1.0,3.0,3.0,343.2355807162821,4.0,1.0,phase_1,,,,,,,,,,,,,white,I
73.0,1.0,0.5,0.0,4.0,4.0,363.6833396740258,4.0,1.0,phase_1,,,,,,,,,,,,,cyan,circle
216.0,7.0,2.0,1.0,1.0,1.0,363.7942797504365,4.0,1.0,phase_1,,,,,,,,,,,,,gray,hexagon
210.0,7.0,2.0,1.0,1.0,1.0,308.6366131901741,4.0,1.0,phase_1,,,,,,,,,,,,,gray,hexagon
51.0,1.0,0.5,0.0,2.0,2.0,353.7641437724232,4.0,1.0,phase_1,,,,,,,,,,,,,cyan,circle
73.0,5.0,0.5,1.0,2.0,2.0,341.5470221079886,4.0,1.0,phase_1,,,,,,,,,,,,,white,I
36.0,1.0,0.5,0.0,1.0,1.0,288.975833915174,4.0,1.0,phase_1,,,,,,,,,,,,,cyan,circle
0.0,4.0,0.0,0.0,4.0,4.0,346.8374446965754,4.0,1.0,phase_1,,,,,,,,,,,,,orange,square
0.0,6.0,0.0,1.0,4.0,4.0,323.75386403873557,4.0,2.0,phase_1,,,,,,,,,,,,,magenta,triangle
190.0,7.0,2.0,1.0,2.0,2.0,402.3258369415998,4.0,1.0,phase_1,,,,,,,,,,,,,gray,hexagon
124.0,2.0,1.0,0.0,2.0,2.0,313.9026048593223,4.0,1.0,phase_1,,,,,,,,,,,,,green,cross
187.0,7.0,2.0,1.0,1.0,1.0,301.5103717334568,4.0,1.0,phase_1,,,,,,,,,,,,,gray,hexagon
39.0,5.0,0.5,1.0,4.0,4.0,361.3602593541145,4.0,1.0,phase_1,,,,,,,,,,,,,white,I
92.0,2.0,1.0,0.0,2.0,2.0,361.6849021054804,4.0,1.0,phase_1,,,,,,,,,,,,,green,cross
113.0,6.0,1.0,1.0,3.0,3.0,437.9637339152396,4.0,1.0,phase_1,,,,,,,,,,,,,magenta,triangle
395.0,4.0,4.0,0.0,2.0,2.0,314.7970708087086,4.0,1.0,phase_1,,,,,,,,,,,,,orange,square
177.0,3.0,2.0,0.0,1.0,1.0,295.9156767465174,4.0,1.0,phase_1,,,,,,,,,,,,,blue,diamond
403.0,8.0,4.0,1.0,1.0,1.0,327.077959664166,4.0,1.0,phase_1,,,,,,,,,,,,,yellow,flipped triangle
0.0,5.0,0.5,1.0,5.0,5.0,591.6829071938992,1.0,1.0,phase_2,stop,250.0,250.0,3.0,,,,,,,,,white,I
0.0,6.0,1.0,1.0,6.0,6.0,651.4520649798214,1.0,1.0,phase_2,go,200.0,250.0,1.0,,,,,,,,,magenta,triangle
0.0,7.0,2.0,1.0,5.0,0.0,0.0,1.0,1.0,phase_2,stop,200.0,250.0,4.0,,,,,,,,,gray,hexagon
0.0,6.0,1.0,1.0,5.0,0.0,0.0,1.0,1.0,phase_2,stop,250.0,250.0,4.0,,,,,,,,,magenta,triangle
0.0,4.0,4.0,0.0,5.0,5.0,934.9600533023475,1.0,1.0,phase_2,go,300.0,250.0,1.0,,,,,,,,,orange,square
0.0,1.0,0.5,0.0,6.0,6.0,529.2655527591705,1.0,1.0,phase_2,go,300.0,250.0,1.0,,,,,,,,,cyan,circle
0.0,5.0,0.5,1.0,5.0,0.0,0.0,1.0,1.0,phase_2,stop,300.0,250.0,4.0,,,,,,,,,white,I
0.0,5.0,0.5,1.0,5.0,0.0,0.0,1.0,1.0,phase_2,stop,350.0,250.0,4.0,,,,,,,,,white,I
0.0,8.0,4.0,1.0,5.0,0.0,0.0,1.0,1.0,phase_2,stop,400.0,250.0,4.0,,,,,,,,,yellow,flipped triangle
0.0,3.0,2.0,0.0,5.0,5.0,734.9602389149368,1.0,1.0,phase_2,go,450.0,250.0,1.0,,,,,,,,,blue,diamond
0.0,4.0,4.0,0.0,5.0,5.0,801.9568556919694,1.0,1.0,phase_2,go,450.0,250.0,1.0,,,,,,,,,orange,square
0.0,3.0,2.0,0.0,5.0,5.0,284.7037478350103,1.0,1.0,phase_2,go,450.0,250.0,1.0,,,,,,,,,blue,diamond
0.0,3.0,2.0,0.0,5.0,5.0,534.0766180306673,1.0,1.0,phase_2,go,450.0,250.0,1.0,,,,,,,,,blue,diamond
0.0,6.0,1.0,1.0,5.0,5.0,758.4327673539519,1.0,1.0,phase_2,go,450.0,250.0,1.0,,,,,,,,,magenta,triangle
0.0,2.0,1.0,0.0,5.0,5.0,411.7344012483954,1.0,1.0,phase_2,go,450.0,250.0,1.0,,,,,,,,,green,cross
0.0,8.0,4.0,1.0,5.0,5.0,276.759291999042,1.0,1.0,phase_2,stop,450.0,250.0,3.0,,,,,,,,,yellow,flipped triangle
0.0,1.0,0.5,0.0,5.0,5.0,502.7838731184602,1.0,1.0,phase_2,go,400.0,250.0,1.0,,,,,,,,,cyan,circle
0.0,3.0,2.0,0.0,5.0,5.0,730.8128969743848,1.0,1.0,phase_2,go,400.0,250.0,1.0,,,,,,,,,blue,diamond
0.0,5.0,0.5,1.0,5.0,5.0,494.6149671450257,1.0,1.0,phase_2,go,400.0,250.0,1.0,,,,,,,,,white,I
0.0,7.0,2.0,1.0,5.0,5.0,318.2190088555217,1.0,1.0,phase_2,stop,400.0,250.0,3.0,,,,,,,,,gray,hexagon
0.0,4.0,4.0,0.0,6.0,6.0,483.1543122418225,1.0,1.0,phase_2,go,350.0,250.0,1.0,,,,,,,,,orange,square
0.0,8.0,4.0,1.0,6.0,0.0,0.0,1.0,1.0,phase_2,stop,350.0,250.0,4.0,,,,,,,,,yellow,flipped triangle
0.0,3.0,2.0,0.0,5.0,5.0,901.6361557878554,1.0,1.0,phase_2,go,350.0,300.0,1.0,,,,,,,,,blue,diamond
0.0,6.0,1.0,1.0,6.0,0.0,0.0,1.0,1.0,phase_2,stop,350.0,300.0,4.0,,,,,,,,,magenta,triangle
0.0,3.0,2.0,0.0,5.0,5.0,981.7049982957542,1.0,1.0,phase_2,go,350.0,350.0,1.0,,,,,,,,,blue,diamond
0.0,7.0,2.0,1.0,5.0,0.0,0.0,1.0,1.0,phase_2,stop,350.0,350.0,4.0,,,,,,,,,gray,hexagon
0.0,6.0,1.0,1.0,6.0,0.0,0.0,1.0,1.0,phase_2,stop,400.0,350.0,4.0,,,,,,,,,magenta,triangle
0.0,6.0,1.0,1.0,5.0,5.0,839.1021289862692,1.0,1.0,phase_2,go,400.0,400.0,1.0,,,,,,,,,magenta,triangle
0.0,8.0,4.0,1.0,6.0,0.0,0.0,1.0,1.0,phase_2,stop,400.0,400.0,4.0,,,,,,,,,yellow,flipped triangle
0.0,7.0,2.0,1.0,5.0,0.0,0.0,1.0,1.0,phase_2,stop,400.0,450.0,4.0,,,,,,,,,gray,hexagon
0.0,3.0,2.0,0.0,5.0,5.0,930.9201301075518,1.0,1.0,phase_2,go,450.0,450.0,1.0,,,,,,,,,blue,diamond
0.0,4.0,4.0,0.0,5.0,5.0,1123.0171658098698,1.0,1.0,phase_2,go,450.0,450.0,1.0,,,,,,,,,orange,square
0.0,1.0,0.5,0.0,5.0,5.0,932.7851482667028,1.0,1.0,phase_2,go,450.0,450.0,1.0,,,,,,,,,cyan,circle
0.0,4.0,4.0,0.0,5.0,5.0,644.7391211986542,1.0,1.0,phase_2,go,450.0,450.0,1.0,,,,,,,,,orange,square
0.0,6.0,1.0,1.0,6.0,0.0,0.0,1.0,1.0,phase_2,stop,450.0,450.0,4.0,,,,,,,,,magenta,triangle
0.0,4.0,4.0,0.0,6.0,6.0,769.1878750920296,1.0,1.0,phase_2,go,450.0,500.0,1.0,,,,,,,,,orange,square
0.0,8.0,4.0,1.0,5.0,5.0,1424.3014859966934,2.0,1.0,phase_2,go,450.0,500.0,1.0,,,,,,,,,yellow,flipped triangle
0.0,3.0,2.0,0.0,5.0,5.0,808.5454707033932,2.0,1.0,phase_2,go,450.0,500.0,1.0,,,,,,,,,blue,diamond
0.0,4.0,4.0,0.0,6.0,6.0,560.0948259234428,2.0,1.0,phase_2,go,450.0,500.0,1.0,,,,,,,,,orange,square
0.0,2.0,1.0,0.0,5.0,5.0,457.7456098049879,2.0,1.0,phase_2,go,450.0,500.0,1.0,,,,,,,,,green,cross
0.0,1.0,0.5,0.0,5.0,5.0,436.9852356612682,2.0,1.0,phase_2,go,450.0,500.0,1.0,,,,,,,,,cyan,circle
0.0,1.0,0.5,0.0,6.0,6.0,429.0795852430165,2.0,1.0,phase_2,go,450.0,500.0,1.0,,,,,,,,,cyan,circle
0.0,4.0,4.0,0.0,6.0,6.0,493.9026739448309,2.0,1.0,phase_2,go,450.0,500.0,1.0,,,,,,,,,orange,square
0.0,5.0,0.5,1.0,5.0,5.0,483.9864480309188,2.0,1.0,phase_2,stop,450.0,500.0,3.0,,,,,,,,,white,I
0.0,8.0,4.0,1.0,5.0,5.0,465.9340097568929,2.0,1.0,phase_2,go,400.0,500.0,1.0,,,,,,,,,yellow,flipped triangle
0.0,7.0,2.0,1.0,6.0,6.0,376.2526232749223,2.0,1.0,phase_2,stop,400.0,500.0,3.0,,,,,,,,,gray,hexagon
0.0,7.0,2.0,1.0,6.0,6.0,780.227072071284,2.0,1.0,phase_2,go,400.0,450.0,1.0,,,,,,,,,gray,hexagon
0.0,4.0,4.0,0.0,6.0,6.0,546.2735863402486,2.0,1.0,phase_2,go,400.0,450.0,1.0,,,,,,,,,orange,square
0.0,1.0,0.5,0.0,6.0,6.0,952.2603801451625,2.0,1.0,phase_2,go,400.0,450.0,1.0,,,,,,,,,cyan,circle
0.0,8.0,4.0,1.0,5.0,5.0,514.5163349807262,2.0,1.0,phase_2,go,400.0,450.0,1.0,,,,,,,,,yellow,flipped triangle
0.0,8.0,4.0,1.0,6.0,0.0,0.0,2.0,1.0,phase_2,stop,400.0,450.0,4.0,,,,,,,,,yellow,flipped triangle
0.0,3.0,2.0,0.0,6.0,6.0,873.1443490833044,2.0,1.0,phase_2,go,400.0,500.0,1.0,,,,,,,,,blue,diamond
0.0,4.0,4.0,0.0,6.0,6.0,536.0909239389002,2.0,1.0,phase_2,go,400.0,500.0,1.0,,,,,,,,,orange,square
0.0,4.0,4.0,0.0,6.0,6.0,888.1764579564333,2.0,1.0,phase_2,go,400.0,500.0,1.0,,,,,,,,,orange,square
0.0,6.0,1.0,1.0,6.0,6.0,751.4955848455429,2.0,1.0,phase_2,go,400.0,500.0,1.0,,,,,,,,,magenta,triangle
0.0,6.0,1.0,1.0,6.0,0.0,0.0,2.0,1.0,phase_2,stop,400.0,500.0,4.0,,,,,,,,,magenta,triangle
0.0,2.0,1.0,0.0,6.0,6.0,1285.126050002873,2.0,1.0,phase_2,go,400.0,550.0,1.0,,,,,,,,,green,cross
0.0,7.0,2.0,1.0,6.0,0.0,0.0,2.0,1.0,phase_2,stop,400.0,550.0,4.0,,,,,,,,,gray,hexagon
0.0,1.0,0.5,0.0,5.0,5.0,545.0446479953825,2.0,1.0,phase_2,go,400.0,600.0,1.0,,,,,,,,,cyan,circle
0.0,4.0,4.0,0.0,5.0,5.0,879.3351920321584,2.0,1.0,phase_2,go,400.0,600.0,1.0,,,,,,,,,orange,square
0.0,7.0,2.0,1.0,5.0,5.0,804.3982349336147,2.0,1.0,phase_2,go,400.0,600.0,1.0,,,,,,,,,gray,hexagon
0.0,2.0,1.0,0.0,5.0,5.0,501.0231100022793,2.0,1.0,phase_2,go,400.0,600.0,1.0,,,,,,,,,green,cross
0.0,7.0,2.0,1.0,6.0,6.0,918.8000769354404,2.0,1.0,phase_2,go,400.0,600.0,1.0,,,,,,,,,gray,hexagon
0.0,4.0,4.0,0.0,5.0,5.0,973.546807654202,2.0,1.0,phase_2,go,400.0,600.0,1.0,,,,,,,,,orange,square
0.0,7.0,2.0,1.0,6.0,6.0,309.788950253278,2.0,1.0,phase_2,stop,400.0,600.0,3.0,,,,,,,,,gray,hexagon
0.0,7.0,2.0,1.0,6.0,6.0,648.0516991578043,2.0,1.0,phase_2,stop,400.0,550.0,3.0,,,,,,,,,gray,hexagon
0.0,2.0,1.0,0.0,6.0,6.0,956.4125370234252,2.0,1.0,phase_2,go,400.0,500.0,1.0,,,,,,,,,green,cross
0.0,2.0,1.0,0.0,5.0,5.0,640.9111940301955,2.0,1.0,phase_2,go,400.0,500.0,1.0,,,,,,,,,green,cross
0.0,6.0,1.0,1.0,5.0,0.0,0.0,2.0,1.0,phase_2,stop,400.0,500.0,4.0,,,,,,,,,magenta,triangle
0.0,6.0,1.0,1.0,5.0,0.0,0.0,2.0,1.0,phase_2,stop,450.0,500.0,4.0,,,,,,,,,magenta,triangle
0.0,1.0,0.5,0.0,5.0,5.0,878.8324557244778,2.0,1.0,phase_2,go,500.0,500.0,1.0,,,,,,,,,cyan,circle
0.0,7.0,2.0,1.0,5.0,0.0,0.0,2.0,1.0,phase_2,stop,500.0,500.0,4.0,,,,,,,,,gray,hexagon
0.0,6.0,1.0,1.0,5.0,5.0,428.1895570456981,3.0,1.0,phase_2,stop,550.0,500.0,3.0,,,,,,,,,magenta,triangle
0.0,5.0,0.5,1.0,5.0,5.0,482.0856540463865,3.0,1.0,phase_2,stop,500.0,500.0,3.0,,,,,,,,,white,I
0.0,4.0,4.0,0.0,6.0,6.0,768.4189770370722,3.0,1.0,phase_2,go,450.0,500.0,1.0,,,,,,,,,orange,square
0.0,3.0,2.0,0.0,5.0,5.0,575.3828580491245,3.0,1.0,phase_2,go,450.0,500.0,1.0,,,,,,,,,blue,diamond
0.0,1.0,0.5,0.0,6.0,6.0,462.2933780774474,3.0,1.0,phase_2,go,450.0,500.0,1.0,,,,,,,,,cyan,circle
0.0,5.0,0.5,1.0,5.0,5.0,407.8040299937129,3.0,1.0,phase_2,go,450.0,500.0,1.0,,,,,,,,,white,I
0.0,5.0,0.5,1.0,6.0,6.0,296.1834529414773,3.0,1.0,phase_2,go,450.0,500.0,1.0,,,,,,,,,white,I
0.0,6.0,1.0,1.0,6.0,6.0,356.5626256167888,3.0,1.0,phase_2,go,450.0,500.0,1.0,,,,,,,,,magenta,triangle
0.0,6.0,1.0,1.0,5.0,5.0,298.1067141517997,3.0,1.0,phase_2,stop,450.0,500.0,3.0,,,,,,,,,magenta,triangle
0.0,4.0,4.0,0.0,6.0,6.0,321.0155721753835,3.0,1.0,phase_2,go,400.0,500.0,1.0,,,,,,,,,orange,square
0.0,2.0,1.0,0.0,5.0,5.0,561.4710729569197,3.0,1.0,phase_2,go,400.0,500.0,1.0,,,,,,,,,green,cross
0.0,1.0,0.5,0.0,6.0,6.0,548.7099383026361,3.0,1.0,phase_2,go,400.0,500.0,1.0,,,,,,,,,cyan,circle
0.0,8.0,4.0,1.0,6.0,6.0,423.5388496890664,3.0,1.0,phase_2,stop,400.0,500.0,3.0,,,,,,,,,yellow,flipped triangle
0.0,7.0,2.0,1.0,6.0,6.0,593.6882821843028,3.0,1.0,phase_2,stop,400.0,450.0,3.0,,,,,,,,,gray,hexagon
0.0,2.0,1.0,0.0,5.0,5.0,752.2069159895182,3.0,1.0,phase_2,go,400.0,400.0,1.0,,,,,,,,,green,cross
0.0,5.0,0.5,1.0,5.0,0.0,0.0,3.0,1.0,phase_2,stop,400.0,400.0,4.0,,,,,,,,,white,I
0.0,2.0,1.0,0.0,6.0,6.0,318.1449859403074,3.0,1.0,phase_2,go,450.0,400.0,1.0,,,,,,,,,green,cross
0.0,8.0,4.0,1.0,5.0,0.0,0.0,3.0,1.0,phase_2,stop,450.0,400.0,4.0,,,,,,,,,yellow,flipped triangle
0.0,8.0,4.0,1.0,5.0,5.0,588.264140766114,3.0,1.0,phase_2,stop,500.0,400.0,3.0,,,,,,,,,yellow,flipped triangle
0.0,2.0,1.0,0.0,6.0,6.0,610.2161617018282,3.0,1.0,phase_2,go,450.0,400.0,1.0,,,,,,,,,green,cross
0.0,2.0,1.0,0.0,5.0,5.0,660.0173339247704,3.0,1.0,phase_2,go,450.0,400.0,1.0,,,,,,,,,green,cross
0.0,8.0,4.0,1.0,6.0,0.0,0.0,3.0,1.0,phase_2,stop,450.0,400.0,4.0,,,,,,,,,yellow,flipped triangle
0.0,5.0,0.5,1.0,5.0,5.0,368.5722751542926,3.0,1.0,phase_2,stop,450.0,450.0,3.0,,,,,,,,,white,I
0.0,1.0,0.5,0.0,5.0,5.0,726.1549830436707,3.0,1.0,phase_2,go,400.0,450.0,1.0,,,,,,,,,cyan,circle
0.0,8.0,4.0,1.0,5.0,5.0,457.2916110046208,3.0,1.0,phase_2,stop,400.0,450.0,3.0,,,,,,,,,yellow,flipped triangle
0.0,6.0,1.0,1.0,5.0,0.0,0.0,3.0,1.0,phase_2,stop,350.0,450.0,4.0,,,,,,,,,magenta,triangle
0.0,2.0,1.0,0.0,5.0,5.0,777.6562799699605,3.0,1.0,phase_2,go,400.0,450.0,1.0,,,,,,,,,green,cross
0.0,1.0,0.5,0.0,5.0,5.0,1149.6556247584522,3.0,1.0,phase_2,go,400.0,450.0,1.0,,,,,,,,,cyan,circle
0.0,1.0,0.5,0.0,6.0,6.0,729.7326633706689,3.0,1.0,phase_2,go,400.0,450.0,1.0,,,,,,,,,cyan,circle
0.0,3.0,2.0,0.0,6.0,6.0,778.7453532218933,3.0,1.0,phase_2,go,400.0,450.0,1.0,,,,,,,,,blue,diamond
0.0,4.0,4.0,0.0,6.0,6.0,799.6752262115479,3.0,1.0,phase_2,go,400.0,450.0,1.0,,,,,,,,,orange,square
0.0,6.0,1.0,1.0,6.0,0.0,0.0,3.0,1.0,phase_2,stop,400.0,450.0,4.0,,,,,,,,,magenta,triangle
0.0,5.0,0.5,1.0,5.0,5.0,758.8475691154599,3.0,1.0,phase_2,go,400.0,500.0,1.0,,,,,,,,,white,I
0.0,2.0,1.0,0.0,5.0,5.0,622.9913015849888,3.0,1.0,phase_2,go,400.0,500.0,1.0,,,,,,,,,green,cross
0.0,4.0,4.0,0.0,5.0,5.0,805.4842851124704,3.0,1.0,phase_2,go,400.0,500.0,1.0,,,,,,,,,orange,square
0.0,6.0,1.0,1.0,6.0,6.0,523.2803612016141,3.0,1.0,phase_2,stop,400.0,500.0,3.0,,,,,,,,,magenta,triangle
0.0,5.0,0.5,1.0,5.0,5.0,642.1954310499132,4.0,1.0,phase_2,stop,400.0,450.0,3.0,,,,,,,,,white,I
0.0,6.0,1.0,1.0,5.0,5.0,567.049213219434,4.0,1.0,phase_2,go,350.0,450.0,1.0,,,,,,,,,magenta,triangle
0.0,6.0,1.0,1.0,5.0,0.0,0.0,4.0,1.0,phase_2,stop,350.0,450.0,4.0,,,,,,,,,magenta,triangle
0.0,2.0,1.0,0.0,6.0,6.0,732.9560033977032,4.0,1.0,phase_2,go,400.0,450.0,1.0,,,,,,,,,green,cross
0.0,2.0,1.0,0.0,5.0,5.0,834.9322378635406,4.0,1.0,phase_2,go,400.0,450.0,1.0,,,,,,,,,green,cross
0.0,4.0,4.0,0.0,6.0,6.0,712.7085258252919,4.0,1.0,phase_2,go,400.0,450.0,1.0,,,,,,,,,orange,square
0.0,1.0,0.5,0.0,5.0,5.0,545.393296983093,4.0,1.0,phase_2,go,400.0,450.0,1.0,,,,,,,,,cyan,circle
0.0,8.0,4.0,1.0,6.0,6.0,510.96266275271773,4.0,1.0,phase_2,stop,400.0,450.0,3.0,,,,,,,,,yellow,flipped triangle
0.0,1.0,0.5,0.0,6.0,6.0,682.5902150012553,4.0,1.0,phase_2,go,400.0,400.0,1.0,,,,,,,,,cyan,circle
0.0,2.0,1.0,0.0,6.0,6.0,559.3651062808931,4.0,1.0,phase_2,go,400.0,400.0,1.0,,,,,,,,,green,cross
0.0,7.0,2.0,1.0,5.0,0.0,0.0,4.0,1.0,phase_2,stop,400.0,400.0,4.0,,,,,,,,,gray,hexagon
0.0,7.0,2.0,1.0,5.0,0.0,0.0,4.0,1.0,phase_2,stop,450.0,400.0,4.0,,,,,,,,,gray,hexagon
0.0,4.0,4.0,0.0,6.0,6.0,517.3417618498206,4.0,1.0,phase_2,go,500.0,400.0,1.0,,,,,,,,,orange,square
0.0,4.0,4.0,0.0,5.0,5.0,808.365082833916,4.0,1.0,phase_2,go,500.0,400.0,1.0,,,,,,,,,orange,square
0.0,2.0,1.0,0.0,6.0,6.0,586.8199998512864,4.0,1.0,phase_2,go,500.0,400.0,1.0,,,,,,,,,green,cross
0.0,8.0,4.0,1.0,5.0,5.0,533.5763390175998,4.0,1.0,phase_2,stop,500.0,400.0,3.0,,,,,,,,,yellow,flipped triangle
0.0,2.0,1.0,0.0,6.0,6.0,713.7783356010914,4.0,1.0,phase_2,go,450.0,400.0,1.0,,,,,,,,,green,cross
0.0,3.0,2.0,0.0,6.0,6.0,692.4825087189674,4.0,1.0,phase_2,go,450.0,400.0,1.0,,,,,,,,,blue,diamond
0.0,5.0,0.5,1.0,6.0,6.0,869.6698467247188,4.0,1.0,phase_2,stop,450.0,400.0,3.0,,,,,,,,,white,I
0.0,8.0,4.0,1.0,5.0,5.0,770.456129219383,4.0,1.0,phase_2,go,450.0,350.0,1.0,,,,,,,,,yellow,flipped triangle
0.0,5.0,0.5,1.0,6.0,0.0,0.0,4.0,1.0,phase_2,stop,450.0,350.0,4.0,,,,,,,,,white,I
0.0,3.0,2.0,0.0,6.0,6.0,749.8951968736947,4.0,1.0,phase_2,go,450.0,400.0,1.0,,,,,,,,,blue,diamond
0.0,7.0,2.0,1.0,6.0,6.0,977.9814002104104,4.0,1.0,phase_2,go,450.0,400.0,1.0,,,,,,,,,gray,hexagon
0.0,5.0,0.5,1.0,6.0,0.0,0.0,4.0,1.0,phase_2,stop,450.0,400.0,4.0,,,,,,,,,white,I
0.0,8.0,4.0,1.0,5.0,0.0,0.0,4.0,1.0,phase_2,stop,450.0,450.0,4.0,,,,,,,,,yellow,flipped triangle
0.0,6.0,1.0,1.0,5.0,5.0,886.2431207671762,4.0,1.0,phase_2,go,500.0,450.0,1.0,,,,,,,,,magenta,triangle
0.0,6.0,1.0,1.0,5.0,0.0,0.0,4.0,1.0,phase_2,stop,500.0,450.0,4.0,,,,,,,,,magenta,triangle
0.0,7.0,2.0,1.0,5.0,0.0,0.0,4.0,1.0,phase_2,stop,550.0,450.0,4.0,,,,,,,,,gray,hexagon
0.0,6.0,1.0,1.0,6.0,0.0,0.0,4.0,1.0,phase_2,stop,600.0,450.0,4.0,,,,,,,,,magenta,triangle
0.0,3.0,2.0,0.0,6.0,6.0,857.3830309323967,4.0,1.0,phase_2,go,600.0,500.0,1.0,,,,,,,,,blue,diamond
0.0,6.0,1.0,1.0,5.0,0.0,0.0,4.0,1.0,phase_2,stop,600.0,500.0,4.0,,,,,,,,,magenta,triangle
0.0,7.0,2.0,1.0,5.0,5.0,948.322475887835,4.0,1.0,phase_2,go,650.0,500.0,1.0,,,,,,,,,gray,hexagon
0.0,1.0,0.5,0.0,6.0,6.0,851.4132280834019,4.0,1.0,phase_2,go,650.0,500.0,1.0,,,,,,,,,cyan,circle
0.0,8.0,4.0,1.0,6.0,0.0,0.0,4.0,1.0,phase_2,stop,650.0,500.0,4.0,,,,,,,,,yellow,flipped triangle
0.0,3.0,2.0,0.0,6.0,6.0,830.6135330349207,4.0,1.0,phase_2,go,650.0,550.0,1.0,,,,,,,,,blue,diamond
0.0,5.0,0.5,1.0,6.0,6.0,672.3411758430302,4.0,1.0,phase_2,stop,650.0,550.0,3.0,,,,,,,,,white,I
0.0,2.0,1.0,0.0,5.0,5.0,832.0751669816673,5.0,1.0,phase_2,go,650.0,500.0,1.0,,,,,,,,,green,cross
0.0,3.0,2.0,0.0,5.0,5.0,372.3258129321039,5.0,1.0,phase_2,go,650.0,500.0,1.0,,,,,,,,,blue,diamond
0.0,5.0,0.5,1.0,6.0,6.0,507.2075189091265,5.0,1.0,phase_2,go,650.0,500.0,1.0,,,,,,,,,white,I
0.0,5.0,0.5,1.0,5.0,5.0,669.7556930594146,5.0,1.0,phase_2,stop,650.0,500.0,3.0,,,,,,,,,white,I
0.0,3.0,2.0,0.0,5.0,5.0,376.5493710525334,5.0,1.0,phase_2,go,600.0,500.0,1.0,,,,,,,,,blue,diamond
0.0,1.0,0.5,0.0,6.0,6.0,681.0663542710245,5.0,1.0,phase_2,go,600.0,500.0,1.0,,,,,,,,,cyan,circle
0.0,4.0,4.0,0.0,5.0,5.0,557.3546569794416,5.0,1.0,phase_2,go,600.0,500.0,1.0,,,,,,,,,orange,square
0.0,1.0,0.5,0.0,5.0,5.0,567.1711880713701,5.0,1.0,phase_2,go,600.0,500.0,1.0,,,,,,,,,cyan,circle
0.0,8.0,4.0,1.0,5.0,5.0,637.875416316092,5.0,1.0,phase_2,go,600.0,500.0,1.0,,,,,,,,,yellow,flipped triangle
0.0,5.0,0.5,1.0,5.0,5.0,569.5612607523799,5.0,1.0,phase_2,stop,600.0,500.0,3.0,,,,,,,,,white,I
0.0,8.0,4.0,1.0,6.0,6.0,618.5909379273653,5.0,1.0,phase_2,stop,550.0,500.0,3.0,,,,,,,,,yellow,flipped triangle
0.0,3.0,2.0,0.0,5.0,5.0,642.3536702059209,5.0,1.0,phase_2,go,550.0,450.0,1.0,,,,,,,,,blue,diamond
0.0,3.0,2.0,0.0,6.0,6.0,650.0061708502471,5.0,1.0,phase_2,go,550.0,450.0,1.0,,,,,,,,,blue,diamond
0.0,4.0,4.0,0.0,5.0,5.0,327.7262900955975,5.0,1.0,phase_2,go,550.0,450.0,1.0,,,,,,,,,orange,square
0.0,4.0,4.0,0.0,6.0,6.0,552.5042051449418,5.0,1.0,phase_2,go,550.0,450.0,1.0,,,,,,,,,orange,square
0.0,1.0,0.5,0.0,5.0,5.0,642.4122708849609,5.0,1.0,phase_2,go,550.0,450.0,1.0,,,,,,,,,cyan,circle
0.0,6.0,1.0,1.0,5.0,5.0,666.7963960207999,5.0,1.0,phase_2,stop,550.0,450.0,3.0,,,,,,,,,magenta,triangle
0.0,7.0,2.0,1.0,5.0,5.0,845.9531688131392,5.0,1.0,phase_2,go,500.0,450.0,1.0,,,,,,,,,gray,hexagon
0.0,3.0,2.0,0.0,5.0,5.0,669.3497709929943,5.0,1.0,phase_2,go,500.0,450.0,1.0,,,,,,,,,blue,diamond
0.0,8.0,4.0,1.0,5.0,0.0,0.0,5.0,1.0,phase_2,stop,500.0,450.0,4.0,,,,,,,,,yellow,flipped triangle
0.0,7.0,2.0,1.0,5.0,5.0,690.6413887627423,5.0,1.0,phase_2,go,550.0,450.0,1.0,,,,,,,,,gray,hexagon
0.0,1.0,0.5,0.0,6.0,6.0,706.5655556507409,5.0,1.0,phase_2,go,550.0,450.0,1.0,,,,,,,,,cyan,circle
0.0,8.0,4.0,1.0,6.0,6.0,357.0023500360548,5.0,1.0,phase_2,stop,550.0,450.0,3.0,,,,,,,,,yellow,flipped triangle
0.0,3.0,2.0,0.0,5.0,5.0,681.5579440444708,5.0,1.0,phase_2,go,550.0,400.0,1.0,,,,,,,,,blue,diamond
0.0,4.0,4.0,0.0,6.0,6.0,840.7800262793899,5.0,1.0,phase_2,go,550.0,400.0,1.0,,,,,,,,,orange,square
0.0,4.0,4.0,0.0,6.0,6.0,731.7514522001147,5.0,1.0,phase_2,go,550.0,400.0,1.0,,,,,,,,,orange,square
0.0,8.0,4.0,1.0,6.0,6.0,527.2122677415609,5.0,1.0,phase_2,stop,550.0,400.0,3.0,,,,,,,,,yellow,flipped triangle
0.0,8.0,4.0,1.0,5.0,5.0,710.8916011638939,5.0,1.0,phase_2,go,550.0,350.0,1.0,,,,,,,,,yellow,flipped triangle
0.0,2.0,1.0,0.0,6.0,6.0,677.2415810264647,5.0,1.0,phase_2,go,550.0,350.0,1.0,,,,,,,,,green,cross
0.0,3.0,2.0,0.0,5.0,5.0,767.1115281991661,5.0,1.0,phase_2,go,550.0,350.0,1.0,,,,,,,,,blue,diamond
0.0,7.0,2.0,1.0,5.0,0.0,0.0,5.0,1.0,phase_2,stop,550.0,350.0,4.0,,,,,,,,,gray,hexagon
0.0,7.0,2.0,1.0,6.0,0.0,0.0,5.0,1.0,phase_2,stop,600.0,350.0,4.0,,,,,,,,,gray,hexagon
0.0,2.0,1.0,0.0,6.0,6.0,1040.550896897912,5.0,1.0,phase_2,go,600.0,400.0,1.0,,,,,,,,,green,cross
0.0,2.0,1.0,0.0,6.0,6.0,825.0256292521954,5.0,1.0,phase_2,go,600.0,400.0,1.0,,,,,,,,,green,cross
0.0,2.0,1.0,0.0,5.0,5.0,1005.6631681509316,5.0,1.0,phase_2,go,600.0,400.0,1.0,,,,,,,,,green,cross
0.0,3.0,2.0,0.0,6.0,6.0,916.6487860493362,5.0,1.0,phase_2,go,600.0,400.0,1.0,,,,,,,,,blue,diamond
0.0,3.0,2.0,0.0,6.0,6.0,539.9249522015452,6.0,1.0,phase_2,go,600.0,400.0,1.0,,,,,,,,,blue,diamond
0.0,1.0,0.5,0.0,5.0,5.0,271.6473434120416,6.0,1.0,phase_2,go,600.0,400.0,1.0,,,,,,,,,cyan,circle
0.0,1.0,0.5,0.0,6.0,6.0,529.6713202260435,6.0,1.0,phase_2,go,600.0,400.0,1.0,,,,,,,,,cyan,circle
0.0,8.0,4.0,1.0,6.0,0.0,0.0,6.0,1.0,phase_2,stop,600.0,400.0,4.0,,,,,,,,,yellow,flipped triangle
0.0,2.0,1.0,0.0,5.0,5.0,261.6807441227138,6.0,1.0,phase_2,go,600.0,450.0,1.0,,,,,,,,,green,cross
0.0,4.0,4.0,0.0,5.0,5.0,724.9866998754442,6.0,1.0,phase_2,go,600.0,450.0,1.0,,,,,,,,,orange,square
0.0,2.0,1.0,0.0,5.0,5.0,757.8254048712552,6.0,1.0,phase_2,go,600.0,450.0,1.0,,,,,,,,,green,cross
0.0,5.0,0.5,1.0,6.0,6.0,548.0673634447157,6.0,1.0,phase_2,stop,600.0,450.0,3.0,,,,,,,,,white,I
0.0,6.0,1.0,1.0,6.0,6.0,786.3873839378357,6.0,1.0,phase_2,go,600.0,400.0,1.0,,,,,,,,,magenta,triangle
0.0,7.0,2.0,1.0,6.0,0.0,0.0,6.0,1.0,phase_2,stop,600.0,400.0,4.0,,,,,,,,,gray,hexagon
0.0,5.0,0.5,1.0,5.0,5.0,683.2750192843378,6.0,1.0,phase_2,go,600.0,450.0,1.0,,,,,,,,,white,I
0.0,7.0,2.0,1.0,6.0,0.0,0.0,6.0,1.0,phase_2,stop,600.0,450.0,4.0,,,,,,,,,gray,hexagon
0.0,2.0,1.0,0.0,6.0,6.0,800.5956481210887,6.0,1.0,phase_2,go,600.0,500.0,1.0,,,,,,,,,green,cross
0.0,5.0,0.5,1.0,6.0,0.0,0.0,6.0,1.0,phase_2,stop,600.0,500.0,4.0,,,,,,,,,white,I
0.0,2.0,1.0,0.0,6.0,6.0,697.6667796261609,6.0,1.0,phase_2,go,600.0,550.0,1.0,,,,,,,,,green,cross
0.0,7.0,2.0,1.0,6.0,6.0,779.214926995337,6.0,1.0,phase_2,go,600.0,550.0,1.0,,,,,,,,,gray,hexagon
0.0,8.0,4.0,1.0,6.0,6.0,305.9054990299046,6.0,1.0,phase_2,stop,600.0,550.0,3.0,,,,,,,,,yellow,flipped triangle
0.0,5.0,0.5,1.0,6.0,6.0,609.4700996764004,6.0,1.0,phase_2,stop,600.0,500.0,3.0,,,,,,,,,white,I
0.0,5.0,0.5,1.0,6.0,6.0,771.9530141912401,6.0,1.0,phase_2,go,600.0,450.0,1.0,,,,,,,,,white,I
0.0,1.0,0.5,0.0,6.0,6.0,600.4891870543361,6.0,1.0,phase_2,go,600.0,450.0,1.0,,,,,,,,,cyan,circle
0.0,3.0,2.0,0.0,6.0,6.0,804.9305439926684,6.0,1.0,phase_2,go,600.0,450.0,1.0,,,,,,,,,blue,diamond
0.0,4.0,4.0,0.0,5.0,5.0,638.3052607998252,6.0,1.0,phase_2,go,600.0,450.0,1.0,,,,,,,,,orange,square
0.0,6.0,1.0,1.0,6.0,0.0,0.0,6.0,1.0,phase_2,stop,600.0,450.0,4.0,,,,,,,,,magenta,triangle
0.0,1.0,0.5,0.0,5.0,5.0,605.9928759932518,6.0,1.0,phase_2,go,600.0,500.0,1.0,,,,,,,,,cyan,circle
0.0,5.0,0.5,1.0,6.0,6.0,522.1274518407881,6.0,1.0,phase_2,stop,600.0,500.0,3.0,,,,,,,,,white,I
0.0,3.0,2.0,0.0,6.0,6.0,640.2956279926002,6.0,1.0,phase_2,go,600.0,450.0,1.0,,,,,,,,,blue,diamond
0.0,6.0,1.0,1.0,5.0,5.0,655.2068679593503,6.0,1.0,phase_2,stop,600.0,450.0,3.0,,,,,,,,,magenta,triangle
0.0,4.0,4.0,0.0,5.0,5.0,688.7890147045255,6.0,1.0,phase_2,go,550.0,450.0,1.0,,,,,,,,,orange,square
0.0,7.0,2.0,1.0,6.0,0.0,0.0,6.0,1.0,phase_2,stop,550.0,450.0,4.0,,,,,,,,,gray,hexagon
0.0,3.0,2.0,0.0,5.0,5.0,678.0731840990484,6.0,1.0,phase_2,go,550.0,500.0,1.0,,,,,,,,,blue,diamond
0.0,4.0,4.0,0.0,6.0,6.0,733.794323168695,6.0,1.0,phase_2,go,550.0,500.0,1.0,,,,,,,,,orange,square
0.0,3.0,2.0,0.0,6.0,6.0,714.7657559253275,6.0,1.0,phase_2,go,550.0,500.0,1.0,,,,,,,,,blue,diamond
0.0,8.0,4.0,1.0,6.0,0.0,0.0,6.0,1.0,phase_2,stop,550.0,500.0,4.0,,,,,,,,,yellow,flipped triangle
0.0,5.0,0.5,1.0,6.0,6.0,342.6681719720363,6.0,1.0,phase_2,stop,550.0,550.0,3.0,,,,,,,,,white,I
0.0,4.0,4.0,0.0,5.0,5.0,268.2031998410821,6.0,1.0,phase_2,go,550.0,500.0,1.0,,,,,,,,,orange,square
0.0,2.0,1.0,0.0,5.0,5.0,748.6360482871532,6.0,1.0,phase_2,go,550.0,500.0,1.0,,,,,,,,,green,cross
0.0,8.0,4.0,1.0,5.0,5.0,531.7030223086476,7.0,1.0,phase_2,stop,550.0,500.0,3.0,,,,,,,,,yellow,flipped triangle
0.0,8.0,4.0,1.0,5.0,5.0,622.9597050696611,7.0,1.0,phase_2,stop,500.0,500.0,3.0,,,,,,,,,yellow,flipped triangle
0.0,1.0,0.5,0.0,5.0,5.0,657.0797180756927,7.0,1.0,phase_2,go,450.0,500.0,1.0,,,,,,,,,cyan,circle
0.0,6.0,1.0,1.0,5.0,5.0,343.7460530549288,7.0,1.0,phase_2,stop,450.0,500.0,3.0,,,,,,,,,magenta,triangle
0.0,8.0,4.0,1.0,5.0,5.0,1416.95795673877,7.0,1.0,phase_2,go,400.0,500.0,1.0,,,,,,,,,yellow,flipped triangle
0.0,5.0,0.5,1.0,5.0,5.0,1089.1560148447752,7.0,1.0,phase_2,stop,400.0,500.0,3.0,,,,,,,,,white,I
0.0,7.0,2.0,1.0,5.0,0.0,0.0,7.0,1.0,phase_2,stop,350.0,500.0,4.0,,,,,,,,,gray,hexagon
0.0,1.0,0.5,0.0,5.0,5.0,764.5136308856308,7.0,1.0,phase_2,go,400.0,500.0,1.0,,,,,,,,,cyan,circle
0.0,6.0,1.0,1.0,6.0,6.0,552.6067661121488,7.0,1.0,phase_2,stop,400.0,500.0,3.0,,,,,,,,,magenta,triangle
0.0,1.0,0.5,0.0,6.0,6.0,743.9962499774992,7.0,1.0,phase_2,go,400.0,450.0,1.0,,,,,,,,,cyan,circle
0.0,1.0,0.5,0.0,6.0,6.0,1185.6206371448934,7.0,1.0,phase_2,go,400.0,450.0,1.0,,,,,,,,,cyan,circle
0.0,3.0,2.0,0.0,5.0,5.0,641.8633577413857,7.0,1.0,phase_2,go,400.0,450.0,1.0,,,,,,,,,blue,diamond
0.0,3.0,2.0,0.0,6.0,6.0,680.5266356095672,7.0,1.0,phase_2,go,400.0,450.0,1.0,,,,,,,,,blue,diamond
0.0,6.0,1.0,1.0,5.0,5.0,690.2276198379695,7.0,1.0,phase_2,go,400.0,450.0,1.0,,,,,,,,,magenta,triangle
0.0,5.0,0.5,1.0,6.0,0.0,0.0,7.0,1.0,phase_2,stop,400.0,450.0,4.0,,,,,,,,,white,I
0.0,2.0,1.0,0.0,6.0,6.0,625.1782877370715,7.0,1.0,phase_2,go,400.0,500.0,1.0,,,,,,,,,green,cross
0.0,1.0,0.5,0.0,5.0,5.0,639.079179149121,7.0,1.0,phase_2,go,400.0,500.0,1.0,,,,,,,,,cyan,circle
0.0,5.0,0.5,1.0,6.0,6.0,582.8402959741652,7.0,1.0,phase_2,stop,400.0,500.0,3.0,,,,,,,,,white,I
0.0,5.0,0.5,1.0,6.0,6.0,571.3191200047731,7.0,1.0,phase_2,stop,400.0,450.0,3.0,,,,,,,,,white,I
0.0,7.0,2.0,1.0,5.0,0.0,0.0,7.0,1.0,phase_2,stop,400.0,400.0,4.0,,,,,,,,,gray,hexagon
0.0,3.0,2.0,0.0,6.0,6.0,660.7231479138136,7.0,1.0,phase_2,go,450.0,400.0,1.0,,,,,,,,,blue,diamond
0.0,4.0,4.0,0.0,5.0,5.0,391.5166091173887,7.0,1.0,phase_2,go,450.0,400.0,1.0,,,,,,,,,orange,square
0.0,8.0,4.0,1.0,6.0,0.0,0.0,7.0,1.0,phase_2,stop,450.0,400.0,4.0,,,,,,,,,yellow,flipped triangle
0.0,2.0,1.0,0.0,5.0,5.0,498.4340751543641,7.0,1.0,phase_2,go,450.0,450.0,1.0,,,,,,,,,green,cross
0.0,8.0,4.0,1.0,5.0,5.0,520.6266683526337,7.0,1.0,phase_2,stop,450.0,450.0,3.0,,,,,,,,,yellow,flipped triangle
0.0,2.0,1.0,0.0,5.0,5.0,666.503288783133,7.0,1.0,phase_2,go,400.0,450.0,1.0,,,,,,,,,green,cross
0.0,5.0,0.5,1.0,5.0,5.0,838.9256941154599,7.0,1.0,phase_2,go,400.0,450.0,1.0,,,,,,,,,white,I
0.0,6.0,1.0,1.0,5.0,0.0,0.0,7.0,1.0,phase_2,stop,400.0,450.0,4.0,,,,,,,,,magenta,triangle
0.0,1.0,0.5,0.0,6.0,6.0,645.841334015131,7.0,1.0,phase_2,go,450.0,450.0,1.0,,,,,,,,,cyan,circle
0.0,1.0,0.5,0.0,6.0,6.0,781.3811916857958,7.0,1.0,phase_2,go,450.0,450.0,1.0,,,,,,,,,cyan,circle
0.0,5.0,0.5,1.0,6.0,0.0,0.0,7.0,1.0,phase_2,stop,450.0,450.0,4.0,,,,,,,,,white,I
0.0,4.0,4.0,0.0,5.0,5.0,772.1016919240355,7.0,1.0,phase_2,go,450.0,500.0,1.0,,,,,,,,,orange,square
0.0,2.0,1.0,0.0,6.0,6.0,652.0818206481636,7.0,1.0,phase_2,go,450.0,500.0,1.0,,,,,,,,,green,cross
0.0,4.0,4.0,0.0,6.0,6.0,786.8471113033593,7.0,1.0,phase_2,go,450.0,500.0,1.0,,,,,,,,,orange,square
0.0,7.0,2.0,1.0,6.0,0.0,0.0,7.0,1.0,phase_2,stop,450.0,500.0,4.0,,,,,,,,,gray,hexagon
0.0,7.0,2.0,1.0,5.0,5.0,474.7361410409212,7.0,1.0,phase_2,stop,450.0,550.0,3.0,,,,,,,,,gray,hexagon
0.0,2.0,1.0,0.0,5.0,5.0,354.755237698555,8.0,1.0,phase_2,go,400.0,550.0,1.0,,,,,,,,,green,cross
0.0,5.0,0.5,1.0,6.0,6.0,242.4456612206995,8.0,1.0,phase_2,go,400.0,550.0,1.0,,,,,,,,,white,I
0.0,8.0,4.0,1.0,6.0,6.0,280.0782113336026,8.0,1.0,phase_2,go,400.0,550.0,1.0,,,,,,,,,yellow,flipped triangle
0.0,4.0,4.0,0.0,5.0,5.0,243.3632528409361,8.0,1.0,phase_2,go,400.0,550.0,1.0,,,,,,,,,orange,square
0.0,1.0,0.5,0.0,6.0,6.0,281.3115729950368,8.0,1.0,phase_2,go,400.0,550.0,1.0,,,,,,,,,cyan,circle
0.0,6.0,1.0,1.0,6.0,6.0,506.2785828486085,8.0,1.0,phase_2,stop,400.0,550.0,3.0,,,,,,,,,magenta,triangle
0.0,5.0,0.5,1.0,6.0,0.0,0.0,8.0,1.0,phase_2,stop,400.0,500.0,4.0,,,,,,,,,white,I
0.0,3.0,2.0,0.0,5.0,5.0,505.81891695037484,8.0,1.0,phase_2,go,400.0,550.0,1.0,,,,,,,,,blue,diamond
0.0,1.0,0.5,0.0,5.0,5.0,394.3656049668789,8.0,1.0,phase_2,go,400.0,550.0,1.0,,,,,,,,,cyan,circle
0.0,7.0,2.0,1.0,6.0,6.0,297.3447013646364,8.0,1.0,phase_2,stop,400.0,550.0,3.0,,,,,,,,,gray,hexagon
0.0,7.0,2.0,1.0,6.0,6.0,590.4092555865645,8.0,1.0,phase_2,stop,400.0,500.0,3.0,,,,,,,,,gray,hexagon
0.0,7.0,2.0,1.0,6.0,6.0,295.9452704526484,8.0,1.0,phase_2,stop,400.0,450.0,3.0,,,,,,,,,gray,hexagon
0.0,2.0,1.0,0.0,6.0,6.0,353.5705548711121,8.0,1.0,phase_2,go,400.0,400.0,1.0,,,,,,,,,green,cross
0.0,6.0,1.0,1.0,6.0,6.0,489.8561798036098,8.0,1.0,phase_2,stop,400.0,400.0,3.0,,,,,,,,,magenta,triangle
0.0,3.0,2.0,0.0,6.0,6.0,658.9729660190642,8.0,1.0,phase_2,go,400.0,350.0,1.0,,,,,,,,,blue,diamond
0.0,4.0,4.0,0.0,5.0,5.0,534.2325130477548,8.0,1.0,phase_2,go,400.0,350.0,1.0,,,,,,,,,orange,square
0.0,6.0,1.0,1.0,6.0,0.0,0.0,8.0,1.0,phase_2,stop,400.0,350.0,4.0,,,,,,,,,magenta,triangle
0.0,1.0,0.5,0.0,6.0,6.0,596.565721090883,8.0,1.0,phase_2,go,400.0,400.0,1.0,,,,,,,,,cyan,circle
0.0,3.0,2.0,0.0,6.0,6.0,740.3496452607214,8.0,1.0,phase_2,go,400.0,400.0,1.0,,,,,,,,,blue,diamond
0.0,5.0,0.5,1.0,5.0,5.0,563.7660915963352,8.0,1.0,phase_2,stop,400.0,400.0,3.0,,,,,,,,,white,I
0.0,8.0,4.0,1.0,6.0,6.0,765.5448657460511,8.0,1.0,phase_2,go,350.0,400.0,1.0,,,,,,,,,yellow,flipped triangle
0.0,3.0,2.0,0.0,6.0,6.0,622.2529308870435,8.0,1.0,phase_2,go,350.0,400.0,1.0,,,,,,,,,blue,diamond
0.0,6.0,1.0,1.0,6.0,0.0,0.0,8.0,1.0,phase_2,stop,350.0,400.0,4.0,,,,,,,,,magenta,triangle
0.0,1.0,0.5,0.0,5.0,5.0,601.0604472830892,8.0,1.0,phase_2,go,350.0,450.0,1.0,,,,,,,,,cyan,circle
0.0,2.0,1.0,0.0,6.0,6.0,263.4220840409398,8.0,1.0,phase_2,go,350.0,450.0,1.0,,,,,,,,,green,cross
0.0,7.0,2.0,1.0,5.0,0.0,0.0,8.0,1.0,phase_2,stop,350.0,450.0,4.0,,,,,,,,,gray,hexagon
0.0,2.0,1.0,0.0,6.0,6.0,624.7266461141407,8.0,1.0,phase_2,go,400.0,450.0,1.0,,,,,,,,,green,cross
0.0,3.0,2.0,0.0,6.0,6.0,287.6011286862194,8.0,1.0,phase_2,go,400.0,450.0,1.0,,,,,,,,,blue,diamond
0.0,8.0,4.0,1.0,6.0,6.0,594.7840963490307,8.0,1.0,phase_2,stop,400.0,450.0,3.0,,,,,,,,,yellow,flipped triangle
0.0,6.0,1.0,1.0,6.0,0.0,0.0,8.0,1.0,phase_2,stop,400.0,400.0,4.0,,,,,,,,,magenta,triangle
0.0,1.0,0.5,0.0,5.0,5.0,550.7721910253167,8.0,1.0,phase_2,go,400.0,450.0,1.0,,,,,,,,,cyan,circle
0.0,7.0,2.0,1.0,5.0,5.0,289.0722169540822,8.0,1.0,phase_2,go,400.0,450.0,1.0,,,,,,,,,gray,hexagon
0.0,7.0,2.0,1.0,6.0,6.0,537.5163028948009,8.0,1.0,phase_2,stop,400.0,450.0,3.0,,,,,,,,,gray,hexagon
0.0,4.0,4.0,0.0,6.0,6.0,666.3826340809464,8.0,1.0,phase_2,go,400.0,400.0,1.0,,,,,,,,,orange,square
0.0,5.0,0.5,1.0,5.0,0.0,0.0,8.0,1.0,phase_2,stop,400.0,400.0,4.0,,,,,,,,,white,I
0.0,8.0,4.0,1.0,6.0,6.0,499.646957963705,8.0,1.0,phase_2,stop,450.0,400.0,3.0,,,,,,,,,yellow,flipped triangle
0.0,3.0,2.0,0.0,7.0,1.0,4538.7613591738045,1.0,1.0,phase_3,,,,,34.0,1.0,34.0,170.0,68.0,136.0,102.0,204.0,blue,diamond
0.0,1.0,0.5,0.0,7.0,2.0,4447.064599022269,1.0,1.0,phase_3,,,,,195.0,5.0,117.0,195.0,234.0,156.0,39.0,78.0,cyan,circle
0.0,8.0,4.0,1.0,7.0,5.0,4630.678140092641,1.0,1.0,phase_3,,,,,136.0,4.0,68.0,34.0,170.0,204.0,136.0,102.0,yellow,flipped triangle
0.0,4.0,4.0,0.0,7.0,6.0,3286.547957919538,1.0,2.0,phase_3,,,,,156.0,4.0,39.0,78.0,117.0,234.0,195.0,156.0,orange,square
0.0,4.0,4.0,0.0,7.0,1.0,2660.5424219742417,1.0,1.0,phase_3,,,,,147.0,3.0,147.0,49.0,245.0,294.0,196.0,98.0,orange,square
0.0,7.0,2.0,1.0,7.0,6.0,3347.861791960895,1.0,1.0,phase_3,,,,,98.0,2.0,245.0,294.0,49.0,147.0,196.0,98.0,gray,hexagon
0.0,3.0,2.0,0.0,7.0,1.0,3832.2953223250806,1.0,1.0,phase_3,,,,,98.0,2.0,98.0,49.0,245.0,294.0,196.0,147.0,blue,diamond
0.0,3.0,2.0,0.0,7.0,1.0,3247.6089308038354,1.0,1.0,phase_3,,,,,147.0,3.0,147.0,294.0,196.0,49.0,98.0,245.0,blue,diamond
0.0,2.0,1.0,0.0,7.0,4.0,2594.1096236929297,1.0,1.0,phase_3,,,,,132.0,3.0,44.0,88.0,220.0,132.0,176.0,264.0,green,cross
0.0,8.0,4.0,1.0,7.0,1.0,2696.002392098308,1.0,1.0,phase_3,,,,,132.0,3.0,132.0,264.0,220.0,44.0,88.0,176.0,yellow,flipped triangle
0.0,2.0,1.0,0.0,7.0,3.0,3957.1433989331126,1.0,1.0,phase_3,,,,,102.0,3.0,136.0,204.0,102.0,68.0,170.0,34.0,green,cross
0.0,4.0,4.0,0.0,7.0,6.0,3087.4925390817225,1.0,1.0,phase_3,,,,,39.0,1.0,78.0,195.0,156.0,117.0,234.0,39.0,orange,square
0.0,8.0,4.0,1.0,7.0,4.0,2671.987786889076,1.0,1.0,phase_3,,,,,156.0,4.0,117.0,39.0,78.0,156.0,195.0,234.0,yellow,flipped triangle
0.0,2.0,1.0,0.0,7.0,6.0,3437.7572680823505,1.0,1.0,phase_3,,,,,162.0,3.0,108.0,324.0,216.0,270.0,54.0,162.0,green,cross
0.0,8.0,4.0,1.0,7.0,1.0,1597.229884006083,1.0,1.0,phase_3,,,,,162.0,3.0,162.0,216.0,108.0,324.0,54.0,270.0,yellow,flipped triangle
0.0,6.0,1.0,1.0,7.0,4.0,1573.836767114699,1.0,1.0,phase_3,,,,,196.0,4.0,98.0,147.0,49.0,196.0,245.0,294.0,magenta,triangle
0.0,5.0,0.5,1.0,7.0,5.0,3365.3277209959924,1.0,1.0,phase_3,,,,,132.0,3.0,220.0,44.0,264.0,88.0,132.0,176.0,white,I
0.0,4.0,4.0,0.0,7.0,6.0,2894.617772195488,1.0,1.0,phase_3,,,,,132.0,3.0,44.0,264.0,220.0,176.0,88.0,132.0,orange,square
0.0,8.0,4.0,1.0,7.0,1.0,2162.0002309791744,1.0,1.0,phase_3,,,,,170.0,5.0,170.0,204.0,136.0,102.0,68.0,34.0,yellow,flipped triangle
0.0,2.0,1.0,0.0,7.0,6.0,2457.374644000083,1.0,1.0,phase_3,,,,,147.0,3.0,294.0,196.0,245.0,98.0,49.0,147.0,green,cross
0.0,2.0,1.0,0.0,7.0,6.0,2299.927558284253,2.0,1.0,phase_3,,,,,147.0,3.0,49.0,245.0,196.0,98.0,294.0,147.0,green,cross
0.0,8.0,4.0,1.0,7.0,6.0,1713.762289844453,2.0,1.0,phase_3,,,,,162.0,3.0,324.0,270.0,216.0,54.0,108.0,162.0,yellow,flipped triangle
0.0,4.0,4.0,0.0,7.0,2.0,1916.8612454086544,2.0,1.0,phase_3,,,,,136.0,4.0,34.0,136.0,102.0,68.0,204.0,170.0,orange,square
0.0,6.0,1.0,1.0,7.0,2.0,1784.9694872274997,2.0,1.0,phase_3,,,,,196.0,4.0,147.0,196.0,294.0,98.0,245.0,49.0,magenta,triangle
0.0,2.0,1.0,0.0,7.0,2.0,2357.3026517406106,2.0,1.0,phase_3,,,,,88.0,2.0,176.0,88.0,132.0,264.0,220.0,44.0,green,cross
0.0,5.0,0.5,1.0,7.0,4.0,2290.4106392525136,2.0,1.0,phase_3,,,,,102.0,3.0,170.0,136.0,34.0,102.0,68.0,204.0,white,I
0.0,1.0,0.5,0.0,7.0,5.0,1226.129692979157,2.0,1.0,phase_3,,,,,162.0,3.0,54.0,216.0,324.0,108.0,162.0,270.0,cyan,circle
0.0,1.0,0.5,0.0,7.0,4.0,1437.6716380938888,2.0,1.0,phase_3,,,,,132.0,3.0,44.0,264.0,220.0,132.0,88.0,176.0,cyan,circle
0.0,3.0,2.0,0.0,7.0,6.0,944.4136442616582,2.0,1.0,phase_3,,,,,54.0,1.0,216.0,270.0,162.0,108.0,324.0,54.0,blue,diamond
0.0,3.0,2.0,0.0,7.0,2.0,2217.5734848715365,2.0,1.0,phase_3,,,,,117.0,3.0,39.0,117.0,195.0,156.0,234.0,78.0,blue,diamond
0.0,6.0,1.0,1.0,7.0,3.0,1376.569074112922,2.0,1.0,phase_3,,,,,156.0,4.0,117.0,195.0,156.0,78.0,39.0,234.0,magenta,triangle
0.0,7.0,2.0,1.0,7.0,6.0,1817.564097698778,2.0,1.0,phase_3,,,,,220.0,5.0,132.0,176.0,88.0,264.0,44.0,220.0,gray,hexagon
0.0,6.0,1.0,1.0,7.0,5.0,1974.8057373799384,2.0,1.0,phase_3,,,,,108.0,2.0,324.0,270.0,162.0,54.0,108.0,216.0,magenta,triangle
0.0,4.0,4.0,0.0,7.0,5.0,1076.838735025376,2.0,1.0,phase_3,,,,,170.0,5.0,204.0,102.0,136.0,68.0,170.0,34.0,orange,square
0.0,8.0,4.0,1.0,7.0,2.0,1449.441711883992,2.0,1.0,phase_3,,,,,117.0,3.0,156.0,117.0,234.0,39.0,195.0,78.0,yellow,flipped triangle
0.0,7.0,2.0,1.0,7.0,4.0,2417.093575932085,2.0,1.0,phase_3,,,,,39.0,1.0,234.0,78.0,117.0,39.0,195.0,156.0,gray,hexagon
0.0,6.0,1.0,1.0,7.0,1.0,1245.605390984565,2.0,1.0,phase_3,,,,,156.0,4.0,156.0,39.0,78.0,117.0,234.0,195.0,magenta,triangle
0.0,4.0,4.0,0.0,7.0,1.0,2003.061382099986,2.0,1.0,phase_3,,,,,132.0,3.0,132.0,88.0,220.0,264.0,176.0,44.0,orange,square
0.0,7.0,2.0,1.0,7.0,3.0,1888.0498348735275,2.0,1.0,phase_3,,,,,170.0,5.0,204.0,34.0,170.0,68.0,136.0,102.0,gray,hexagon
0.0,1.0,0.5,0.0,7.0,3.0,2139.396748971194,2.0,1.0,phase_3,,,,,49.0,1.0,98.0,147.0,49.0,196.0,245.0,294.0,cyan,circle
0.0,5.0,0.5,1.0,7.0,6.0,1272.5200019776819,3.0,1.0,phase_3,,,,,156.0,4.0,117.0,195.0,39.0,234.0,78.0,156.0,white,I
0.0,3.0,2.0,0.0,7.0,2.0,1262.8250527195632,3.0,1.0,phase_3,,,,,170.0,5.0,34.0,170.0,136.0,204.0,68.0,102.0,blue,diamond
0.0,4.0,4.0,0.0,7.0,5.0,1172.497435938567,3.0,1.0,phase_3,,,,,294.0,6.0,49.0,245.0,98.0,147.0,294.0,196.0,orange,square
0.0,3.0,2.0,0.0,7.0,1.0,221.0744926705956,3.0,1.0,phase_3,,,,,270.0,5.0,270.0,54.0,216.0,162.0,108.0,324.0,blue,diamond
0.0,8.0,4.0,1.0,7.0,5.0,683.4481968544424,3.0,1.0,phase_3,,,,,147.0,3.0,245.0,49.0,196.0,294.0,147.0,98.0,yellow,flipped triangle
0.0,2.0,1.0,0.0,7.0,4.0,1078.2655240036547,3.0,1.0,phase_3,,,,,102.0,3.0,204.0,68.0,170.0,102.0,34.0,136.0,green,cross
0.0,4.0,4.0,0.0,7.0,6.0,1087.606803048402,3.0,1.0,phase_3,,,,,54.0,1.0,162.0,216.0,270.0,108.0,324.0,54.0,orange,square
0.0,5.0,0.5,1.0,7.0,2.0,1260.7939299196005,3.0,1.0,phase_3,,,,,78.0,2.0,234.0,78.0,156.0,39.0,195.0,117.0,white,I
0.0,5.0,0.5,1.0,7.0,3.0,1990.3807528316972,3.0,1.0,phase_3,,,,,108.0,2.0,54.0,216.0,108.0,162.0,270.0,324.0,white,I
0.0,7.0,2.0,1.0,7.0,6.0,1094.1082816570995,3.0,1.0,phase_3,,,,,98.0,2.0,245.0,49.0,196.0,147.0,294.0,98.0,gray,hexagon
0.0,5.0,0.5,1.0,7.0,4.0,2834.683991037309,3.0,1.0,phase_3,,,,,204.0,6.0,102.0,68.0,34.0,204.0,170.0,136.0,white,I
0.0,4.0,4.0,0.0,7.0,4.0,2523.7109372392297,3.0,1.0,phase_3,,,,,108.0,2.0,54.0,162.0,216.0,108.0,270.0,324.0,orange,square
0.0,8.0,4.0,1.0,7.0,1.0,1633.771683089435,3.0,1.0,phase_3,,,,,176.0,4.0,176.0,220.0,132.0,264.0,88.0,44.0,yellow,flipped triangle
0.0,6.0,1.0,1.0,7.0,5.0,2163.7876499444246,3.0,1.0,phase_3,,,,,176.0,4.0,264.0,132.0,220.0,44.0,176.0,88.0,magenta,triangle
0.0,2.0,1.0,0.0,7.0,6.0,1199.9687026254833,3.0,1.0,phase_3,,,,,108.0,2.0,324.0,162.0,270.0,54.0,216.0,108.0,green,cross
0.0,6.0,1.0,1.0,7.0,2.0,1817.1286289580169,3.0,1.0,phase_3,,,,,162.0,3.0,270.0,162.0,324.0,108.0,216.0,54.0,magenta,triangle
0.0,1.0,0.5,0.0,7.0,5.0,1100.2745321020484,3.0,1.0,phase_3,,,,,132.0,3.0,44.0,88.0,220.0,264.0,132.0,176.0,cyan,circle
0.0,5.0,0.5,1.0,7.0,3.0,1821.5209227055311,3.0,1.0,phase_3,,,,,196.0,4.0,98.0,49.0,196.0,294.0,147.0,245.0,white,I
0.0,1.0,0.5,0.0,7.0,2.0,2045.5706692300737,3.0,1.0,phase_3,,,,,117.0,3.0,195.0,117.0,156.0,234.0,39.0,78.0,cyan,circle
0.0,7.0,2.0,1.0,7.0,6.0,1318.955642171204,3.0,1.0,phase_3,,,,,204.0,6.0,170.0,68.0,34.0,102.0,136.0,204.0,gray,hexagon
0.0,1.0,0.5,0.0,7.0,6.0,1281.6698499955237,4.0,1.0,phase_3,,,,,294.0,6.0,49.0,196.0,98.0,147.0,245.0,294.0,cyan,circle
0.0,7.0,2.0,1.0,7.0,2.0,1253.627056721598,4.0,1.0,phase_3,,,,,117.0,3.0,195.0,117.0,78.0,39.0,156.0,234.0,gray,hexagon
0.0,5.0,0.5,1.0,7.0,5.0,1376.3547562994063,4.0,1.0,phase_3,,,,,88.0,2.0,132.0,44.0,220.0,176.0,88.0,264.0,white,I
0.0,5.0,0.5,1.0,7.0,4.0,1016.9380763545632,4.0,1.0,phase_3,,,,,108.0,2.0,324.0,54.0,216.0,108.0,162.0,270.0,white,I
0.0,6.0,1.0,1.0,7.0,4.0,1589.8430729284885,4.0,1.0,phase_3,,,,,170.0,5.0,68.0,102.0,204.0,170.0,34.0,136.0,magenta,triangle
0.0,7.0,2.0,1.0,7.0,6.0,1943.7318765558305,4.0,1.0,phase_3,,,,,270.0,5.0,162.0,216.0,108.0,54.0,324.0,270.0,gray,hexagon
0.0,3.0,2.0,0.0,7.0,5.0,2089.539577718824,4.0,1.0,phase_3,,,,,117.0,3.0,195.0,78.0,39.0,234.0,117.0,156.0,blue,diamond
0.0,2.0,1.0,0.0,7.0,6.0,1785.671389196068,4.0,1.0,phase_3,,,,,156.0,4.0,39.0,234.0,78.0,117.0,195.0,156.0,green,cross
0.0,1.0,0.5,0.0,7.0,1.0,2048.307138029486,4.0,1.0,phase_3,,,,,216.0,4.0,216.0,270.0,162.0,324.0,108.0,54.0,cyan,circle
0.0,7.0,2.0,1.0,7.0,2.0,2045.7158088684082,4.0,1.0,phase_3,,,,,88.0,2.0,132.0,88.0,176.0,264.0,44.0,220.0,gray,hexagon
0.0,6.0,1.0,1.0,7.0,3.0,1418.935584835708,4.0,1.0,phase_3,,,,,170.0,5.0,136.0,68.0,170.0,102.0,34.0,204.0,magenta,triangle
0.0,2.0,1.0,0.0,7.0,2.0,1757.3161842301488,4.0,1.0,phase_3,,,,,195.0,5.0,117.0,195.0,78.0,156.0,234.0,39.0,green,cross
0.0,3.0,2.0,0.0,7.0,3.0,1643.64862581715,4.0,1.0,phase_3,,,,,132.0,3.0,264.0,220.0,132.0,44.0,176.0,88.0,blue,diamond
0.0,1.0,0.5,0.0,7.0,4.0,1026.7929378896952,4.0,1.0,phase_3,,,,,170.0,5.0,136.0,68.0,204.0,170.0,102.0,34.0,cyan,circle
0.0,6.0,1.0,1.0,7.0,1.0,971.240360289812,4.0,1.0,phase_3,,,,,176.0,4.0,176.0,220.0,44.0,132.0,88.0,264.0,magenta,triangle
0.0,8.0,4.0,1.0,7.0,4.0,1354.3757773004472,4.0,1.0,phase_3,,,,,196.0,4.0,147.0,294.0,245.0,196.0,98.0,49.0,yellow,flipped triangle
0.0,5.0,0.5,1.0,7.0,6.0,1220.9084117785096,4.0,1.0,phase_3,,,,,196.0,4.0,245.0,294.0,147.0,49.0,98.0,196.0,white,I
0.0,7.0,2.0,1.0,7.0,6.0,1900.1610903069377,4.0,1.0,phase_3,,,,,216.0,4.0,54.0,270.0,162.0,108.0,324.0,216.0,gray,hexagon
0.0,1.0,0.5,0.0,7.0,6.0,1092.0650740154088,4.0,1.0,phase_3,,,,,204.0,6.0,170.0,68.0,136.0,34.0,102.0,204.0,cyan,circle
0.0,3.0,2.0,0.0,7.0,5.0,1282.976753078401,4.0,1.0,phase_3,,,,,264.0,6.0,220.0,176.0,88.0,132.0,264.0,44.0,blue,diamond
