raw_reward_magnitude,stim_reward,stepwise_reward_magnitude,paired_with_stopping,stim_location,response,reaction_time,block,num_trial_presentations,which_phase,stop_signal_trial_type,left_SSD,right_SSD,accuracy,chosen_bidding_amount,chosen_bidding_level,possible_bid_1,possible_bid_2,possible_bid_3,possible_bid_4,possible_bid_5,possible_bid_6,color_text,shape_text
0.0,3.0,0.0,0.0,3.0,3.0,429.5546960001957,1.0,1.0,phase_1,,,,,,,,,,,,,white,cross
77.0,6.0,2.0,1.0,4.0,4.0,381.8726350000361,1.0,1.0,phase_1,,,,,,,,,,,,,yellow,flipped triangle
414.0,4.0,4.0,0.0,4.0,4.0,336.5458860007493,1.0,1.0,phase_1,,,,,,,,,,,,,green,I
89.0,2.0,2.0,0.0,1.0,1.0,330.5393730006472,1.0,1.0,phase_1,,,,,,,,,,,,,magenta,hexagon
96.0,6.0,2.0,1.0,3.0,3.0,337.7285839997057,1.0,1.0,phase_1,,,,,,,,,,,,,yellow,flipped triangle
111.0,6.0,2.0,1.0,2.0,2.0,329.4027310003002,1.0,1.0,phase_1,,,,,,,,,,,,,yellow,flipped triangle
386.0,4.0,4.0,0.0,4.0,4.0,342.9913439995289,1.0,1.0,phase_1,,,,,,,,,,,,,green,I
420.0,4.0,4.0,0.0,3.0,3.0,283.9465329998347,1.0,1.0,phase_1,,,,,,,,,,,,,green,I
396.0,4.0,4.0,0.0,1.0,1.0,329.4647259990597,1.0,1.0,phase_1,,,,,,,,,,,,,green,I
0.0,3.0,0.0,0.0,3.0,3.0,288.507543000378,1.0,1.0,phase_1,,,,,,,,,,,,,white,cross
105.0,2.0,2.0,0.0,4.0,4.0,263.254464000056,1.0,1.0,phase_1,,,,,,,,,,,,,magenta,hexagon
423.0,4.0,4.0,0.0,4.0,4.0,320.4029999997146,1.0,1.0,phase_1,,,,,,,,,,,,,green,I
391.0,8.0,4.0,1.0,1.0,1.0,301.2590279995493,1.0,1.0,phase_1,,,,,,,,,,,,,orange,diamond
80.0,6.0,2.0,1.0,3.0,3.0,324.5224109996343,1.0,1.0,phase_1,,,,,,,,,,,,,yellow,flipped triangle
66.0,5.0,1.0,1.0,4.0,4.0,345.7453720002377,1.0,1.0,phase_1,,,,,,,,,,,,,blue,square
222.0,7.0,3.0,1.0,3.0,3.0,244.1816049995395,1.0,1.0,phase_1,,,,,,,,,,,,,cyan,triangle
211.0,3.0,3.0,0.0,1.0,1.0,356.7450720001943,1.0,1.0,phase_1,,,,,,,,,,,,,white,cross
40.0,5.0,1.0,1.0,1.0,1.0,299.6979309991729,1.0,1.0,phase_1,,,,,,,,,,,,,blue,square
0.0,5.0,0.0,1.0,1.0,1.0,324.2549569986295,1.0,1.0,phase_1,,,,,,,,,,,,,blue,square
53.0,5.0,1.0,1.0,2.0,2.0,323.3654010000464,1.0,1.0,phase_1,,,,,,,,,,,,,blue,square
70.0,5.0,1.0,1.0,1.0,1.0,325.9932040000421,1.0,1.0,phase_1,,,,,,,,,,,,,blue,square
58.0,5.0,1.0,1.0,3.0,3.0,324.8321639985079,1.0,1.0,phase_1,,,,,,,,,,,,,blue,square
114.0,2.0,2.0,0.0,1.0,1.0,313.8581910006905,1.0,1.0,phase_1,,,,,,,,,,,,,magenta,hexagon
195.0,7.0,3.0,1.0,1.0,1.0,294.9469559989666,1.0,1.0,phase_1,,,,,,,,,,,,,cyan,triangle
398.0,4.0,4.0,0.0,2.0,2.0,305.6715229995461,1.0,1.0,phase_1,,,,,,,,,,,,,green,I
66.0,1.0,1.0,0.0,4.0,4.0,359.7708839988627,1.0,1.0,phase_1,,,,,,,,,,,,,gray,circle
0.0,5.0,0.0,1.0,3.0,3.0,331.5799309984868,1.0,1.0,phase_1,,,,,,,,,,,,,blue,square
100.0,6.0,2.0,1.0,2.0,2.0,364.1967549992841,1.0,1.0,phase_1,,,,,,,,,,,,,yellow,flipped triangle
177.0,7.0,3.0,1.0,2.0,2.0,397.6728490015375,1.0,1.0,phase_1,,,,,,,,,,,,,cyan,triangle
82.0,6.0,2.0,1.0,2.0,2.0,307.1014739998645,1.0,1.0,phase_1,,,,,,,,,,,,,yellow,flipped triangle
0.0,8.0,0.0,1.0,3.0,3.0,309.76754799849,1.0,1.0,phase_1,,,,,,,,,,,,,orange,diamond
0.0,7.0,0.0,1.0,1.0,1.0,402.0767029996932,1.0,1.0,phase_1,,,,,,,,,,,,,cyan,triangle
385.0,4.0,4.0,0.0,1.0,1.0,285.6970350003394,1.0,1.0,phase_1,,,,,,,,,,,,,green,I
58.0,1.0,1.0,0.0,3.0,3.0,313.0118919998494,1.0,1.0,phase_1,,,,,,,,,,,,,gray,circle
0.0,5.0,0.0,1.0,1.0,1.0,355.1047729997663,1.0,1.0,phase_1,,,,,,,,,,,,,blue,square
81.0,2.0,2.0,0.0,3.0,3.0,276.7142709999461,1.0,1.0,phase_1,,,,,,,,,,,,,magenta,hexagon
192.0,7.0,3.0,1.0,3.0,3.0,303.3325000014883,1.0,1.0,phase_1,,,,,,,,,,,,,cyan,triangle
183.0,7.0,3.0,1.0,3.0,3.0,300.1028190010402,1.0,1.0,phase_1,,,,,,,,,,,,,cyan,triangle
188.0,7.0,3.0,1.0,1.0,1.0,462.2230820004915,1.0,1.0,phase_1,,,,,,,,,,,,,cyan,triangle
206.0,3.0,3.0,0.0,2.0,2.0,280.4535960003704,1.0,1.0,phase_1,,,,,,,,,,,,,white,cross
0.0,6.0,0.0,1.0,1.0,1.0,279.3574110000918,1.0,1.0,phase_1,,,,,,,,,,,,,yellow,flipped triangle
48.0,5.0,1.0,1.0,3.0,3.0,258.475073000227,1.0,1.0,phase_1,,,,,,,,,,,,,blue,square
69.0,1.0,1.0,0.0,3.0,3.0,317.9111419995024,1.0,1.0,phase_1,,,,,,,,,,,,,gray,circle
405.0,8.0,4.0,1.0,4.0,4.0,272.9343949995382,1.0,1.0,phase_1,,,,,,,,,,,,,orange,diamond
182.0,3.0,3.0,0.0,4.0,4.0,316.6187919996446,1.0,1.0,phase_1,,,,,,,,,,,,,white,cross
414.0,4.0,4.0,0.0,3.0,3.0,297.1964370008209,1.0,1.0,phase_1,,,,,,,,,,,,,green,I
118.0,6.0,2.0,1.0,3.0,3.0,296.4134949997969,1.0,1.0,phase_1,,,,,,,,,,,,,yellow,flipped triangle
386.0,8.0,4.0,1.0,2.0,2.0,341.575329999614,1.0,1.0,phase_1,,,,,,,,,,,,,orange,diamond
0.0,8.0,0.0,1.0,1.0,1.0,240.4241590011224,1.0,1.0,phase_1,,,,,,,,,,,,,orange,diamond
94.0,6.0,2.0,1.0,2.0,2.0,329.5971329989697,1.0,1.0,phase_1,,,,,,,,,,,,,yellow,flipped triangle
414.0,8.0,4.0,1.0,2.0,2.0,318.4414589995867,1.0,1.0,phase_1,,,,,,,,,,,,,orange,diamond
75.0,5.0,1.0,1.0,4.0,4.0,330.041072998938,1.0,1.0,phase_1,,,,,,,,,,,,,blue,square
203.0,7.0,3.0,1.0,2.0,2.0,285.2328480003052,1.0,1.0,phase_1,,,,,,,,,,,,,cyan,triangle
376.0,8.0,4.0,1.0,2.0,2.0,278.1977380000171,1.0,1.0,phase_1,,,,,,,,,,,,,orange,diamond
408.0,8.0,4.0,1.0,2.0,2.0,309.9557759996969,1.0,1.0,phase_1,,,,,,,,,,,,,orange,diamond
377.0,8.0,4.0,1.0,3.0,3.0,359.0671900001325,1.0,1.0,phase_1,,,,,,,,,,,,,orange,diamond
27.0,5.0,1.0,1.0,4.0,4.0,291.0689500004082,1.0,1.0,phase_1,,,,,,,,,,,,,blue,square
396.0,8.0,4.0,1.0,1.0,1.0,299.9145750000025,1.0,1.0,phase_1,,,,,,,,,,,,,orange,diamond
182.0,3.0,3.0,0.0,2.0,2.0,300.4043609998916,1.0,1.0,phase_1,,,,,,,,,,,,,white,cross
0.0,3.0,0.0,0.0,2.0,2.0,292.1660960000736,1.0,1.0,phase_1,,,,,,,,,,,,,white,cross
67.0,1.0,1.0,0.0,2.0,2.0,304.3035910013714,1.0,1.0,phase_1,,,,,,,,,,,,,gray,circle
0.0,1.0,0.0,0.0,1.0,1.0,312.8078390000155,1.0,1.0,phase_1,,,,,,,,,,,,,gray,circle
80.0,2.0,2.0,0.0,1.0,1.0,291.6892670000379,1.0,1.0,phase_1,,,,,,,,,,,,,magenta,hexagon
123.0,6.0,2.0,1.0,3.0,3.0,326.1465990017314,1.0,1.0,phase_1,,,,,,,,,,,,,yellow,flipped triangle
34.0,5.0,1.0,1.0,3.0,3.0,316.3700080003764,1.0,1.0,phase_1,,,,,,,,,,,,,blue,square
39.0,5.0,1.0,1.0,2.0,2.0,284.1097569998965,1.0,1.0,phase_1,,,,,,,,,,,,,blue,square
416.0,4.0,4.0,0.0,2.0,2.0,305.3801340010977,1.0,1.0,phase_1,,,,,,,,,,,,,green,I
0.0,4.0,0.0,0.0,4.0,4.0,342.5502450008935,1.0,2.0,phase_1,,,,,,,,,,,,,green,I
69.0,5.0,1.0,1.0,2.0,2.0,362.9726729996037,1.0,1.0,phase_1,,,,,,,,,,,,,blue,square
215.0,3.0,3.0,0.0,3.0,3.0,342.9971969999315,1.0,1.0,phase_1,,,,,,,,,,,,,white,cross
99.0,6.0,2.0,1.0,1.0,1.0,344.8049340004218,1.0,1.0,phase_1,,,,,,,,,,,,,yellow,flipped triangle
99.0,2.0,2.0,0.0,3.0,3.0,334.6241790004569,1.0,1.0,phase_1,,,,,,,,,,,,,magenta,hexagon
214.0,7.0,3.0,1.0,4.0,4.0,334.3372770013957,1.0,1.0,phase_1,,,,,,,,,,,,,cyan,triangle
211.0,7.0,3.0,1.0,1.0,1.0,298.0310700004338,1.0,1.0,phase_1,,,,,,,,,,,,,cyan,triangle
69.0,5.0,1.0,1.0,4.0,4.0,334.5797389993095,1.0,1.0,phase_1,,,,,,,,,,,,,blue,square
84.0,6.0,2.0,1.0,4.0,4.0,314.4858810010191,1.0,1.0,phase_1,,,,,,,,,,,,,yellow,flipped triangle
0.0,4.0,0.0,0.0,1.0,1.0,314.0727959998912,1.0,1.0,phase_1,,,,,,,,,,,,,green,I
385.0,8.0,4.0,1.0,2.0,2.0,356.3620529985201,1.0,1.0,phase_1,,,,,,,,,,,,,orange,diamond
408.0,8.0,4.0,1.0,1.0,1.0,350.1076319989806,1.0,1.0,phase_1,,,,,,,,,,,,,orange,diamond
216.0,3.0,3.0,0.0,1.0,1.0,335.9502219991555,1.0,1.0,phase_1,,,,,,,,,,,,,white,cross
69.0,1.0,1.0,0.0,3.0,3.0,338.5491219996765,1.0,1.0,phase_1,,,,,,,,,,,,,gray,circle
175.0,3.0,3.0,0.0,3.0,3.0,373.5220439994009,1.0,1.0,phase_1,,,,,,,,,,,,,white,cross
103.0,6.0,2.0,1.0,2.0,2.0,325.8077869995759,1.0,1.0,phase_1,,,,,,,,,,,,,yellow,flipped triangle
0.0,5.0,0.0,1.0,1.0,1.0,341.1146630005532,1.0,1.0,phase_1,,,,,,,,,,,,,blue,square
41.0,1.0,1.0,0.0,4.0,4.0,337.6028509992466,1.0,1.0,phase_1,,,,,,,,,,,,,gray,circle
383.0,4.0,4.0,0.0,1.0,1.0,331.3310260000435,1.0,1.0,phase_1,,,,,,,,,,,,,green,I
414.0,8.0,4.0,1.0,3.0,3.0,352.700826999353,1.0,1.0,phase_1,,,,,,,,,,,,,orange,diamond
123.0,2.0,2.0,0.0,4.0,4.0,309.8370740008249,1.0,1.0,phase_1,,,,,,,,,,,,,magenta,hexagon
182.0,7.0,3.0,1.0,2.0,2.0,331.4532389995293,1.0,1.0,phase_1,,,,,,,,,,,,,cyan,triangle
82.0,2.0,2.0,0.0,2.0,2.0,276.4030460002686,1.0,1.0,phase_1,,,,,,,,,,,,,magenta,hexagon
67.0,5.0,1.0,1.0,3.0,3.0,275.0948280008742,1.0,1.0,phase_1,,,,,,,,,,,,,blue,square
69.0,1.0,1.0,0.0,1.0,1.0,321.739881999747,1.0,2.0,phase_1,,,,,,,,,,,,,gray,circle
176.0,3.0,3.0,0.0,3.0,3.0,290.3893820002849,1.0,1.0,phase_1,,,,,,,,,,,,,white,cross
0.0,3.0,0.0,0.0,2.0,2.0,298.8111960003152,1.0,1.0,phase_1,,,,,,,,,,,,,white,cross
0.0,2.0,0.0,0.0,4.0,4.0,411.3295409988495,1.0,1.0,phase_1,,,,,,,,,,,,,magenta,hexagon
82.0,6.0,2.0,1.0,1.0,1.0,302.3449329994037,1.0,1.0,phase_1,,,,,,,,,,,,,yellow,flipped triangle
415.0,8.0,4.0,1.0,1.0,1.0,322.1547119992465,1.0,1.0,phase_1,,,,,,,,,,,,,orange,diamond
64.0,5.0,1.0,1.0,4.0,4.0,347.0686290002049,1.0,1.0,phase_1,,,,,,,,,,,,,blue,square
0.0,1.0,0.0,0.0,1.0,1.0,244.7470699989935,1.0,1.0,phase_1,,,,,,,,,,,,,gray,circle
0.0,4.0,0.0,0.0,1.0,1.0,370.1241210001171,1.0,1.0,phase_1,,,,,,,,,,,,,green,I
380.0,4.0,4.0,0.0,2.0,2.0,330.1158520007448,2.0,1.0,phase_1,,,,,,,,,,,,,green,I
205.0,3.0,3.0,0.0,1.0,1.0,299.4952879998891,2.0,1.0,phase_1,,,,,,,,,,,,,white,cross
221.0,7.0,3.0,1.0,1.0,1.0,266.4804100004403,2.0,1.0,phase_1,,,,,,,,,,,,,cyan,triangle
194.0,7.0,3.0,1.0,3.0,3.0,302.2508709982503,2.0,1.0,phase_1,,,,,,,,,,,,,cyan,triangle
416.0,4.0,4.0,0.0,4.0,4.0,321.2338720004482,2.0,1.0,phase_1,,,,,,,,,,,,,green,I
0.0,2.0,0.0,0.0,2.0,2.0,288.0278430002363,2.0,1.0,phase_1,,,,,,,,,,,,,magenta,hexagon
123.0,2.0,2.0,0.0,2.0,2.0,346.3355950007099,2.0,1.0,phase_1,,,,,,,,,,,,,magenta,hexagon
40.0,1.0,1.0,0.0,2.0,2.0,288.246733998676,2.0,1.0,phase_1,,,,,,,,,,,,,gray,circle
75.0,1.0,1.0,0.0,2.0,2.0,326.2766200004989,2.0,1.0,phase_1,,,,,,,,,,,,,gray,circle
204.0,3.0,3.0,0.0,1.0,1.0,395.6455139996251,2.0,1.0,phase_1,,,,,,,,,,,,,white,cross
114.0,6.0,2.0,1.0,1.0,1.0,338.1882239991682,2.0,1.0,phase_1,,,,,,,,,,,,,yellow,flipped triangle
77.0,6.0,2.0,1.0,1.0,1.0,292.8399829997943,2.0,1.0,phase_1,,,,,,,,,,,,,yellow,flipped triangle
25.0,5.0,1.0,1.0,3.0,3.0,340.2022259997466,2.0,1.0,phase_1,,,,,,,,,,,,,blue,square
424.0,8.0,4.0,1.0,1.0,1.0,305.0220790009916,2.0,1.0,phase_1,,,,,,,,,,,,,orange,diamond
102.0,6.0,2.0,1.0,2.0,2.0,351.1801460008428,2.0,2.0,phase_1,,,,,,,,,,,,,yellow,flipped triangle
0.0,5.0,0.0,1.0,1.0,1.0,316.5142090001609,2.0,1.0,phase_1,,,,,,,,,,,,,blue,square
27.0,5.0,1.0,1.0,4.0,4.0,375.1279099997191,2.0,1.0,phase_1,,,,,,,,,,,,,blue,square
101.0,6.0,2.0,1.0,1.0,1.0,329.3240069997409,2.0,1.0,phase_1,,,,,,,,,,,,,yellow,flipped triangle
0.0,8.0,0.0,1.0,4.0,4.0,342.8643490005925,2.0,1.0,phase_1,,,,,,,,,,,,,orange,diamond
378.0,8.0,4.0,1.0,3.0,3.0,390.047634999064,2.0,1.0,phase_1,,,,,,,,,,,,,orange,diamond
0.0,3.0,0.0,0.0,3.0,3.0,330.345333999503,2.0,1.0,phase_1,,,,,,,,,,,,,white,cross
195.0,3.0,3.0,0.0,2.0,2.0,289.8491109990573,2.0,1.0,phase_1,,,,,,,,,,,,,white,cross
90.0,2.0,2.0,0.0,1.0,1.0,277.4022369994782,2.0,1.0,phase_1,,,,,,,,,,,,,magenta,hexagon
380.0,8.0,4.0,1.0,1.0,1.0,322.4319459986873,2.0,1.0,phase_1,,,,,,,,,,,,,orange,diamond
0.0,8.0,0.0,1.0,4.0,4.0,301.1063779995311,2.0,1.0,phase_1,,,,,,,,,,,,,orange,diamond
224.0,3.0,3.0,0.0,3.0,3.0,314.8495529985666,2.0,1.0,phase_1,,,,,,,,,,,,,white,cross
412.0,8.0,4.0,1.0,4.0,4.0,289.895919000628,2.0,1.0,phase_1,,,,,,,,,,,,,orange,diamond
216.0,7.0,3.0,1.0,2.0,2.0,314.1305270000885,2.0,1.0,phase_1,,,,,,,,,,,,,cyan,triangle
96.0,2.0,2.0,0.0,2.0,2.0,383.1540860010136,2.0,1.0,phase_1,,,,,,,,,,,,,magenta,hexagon
402.0,8.0,4.0,1.0,3.0,3.0,403.4434329987562,2.0,1.0,phase_1,,,,,,,,,,,,,orange,diamond
70.0,1.0,1.0,0.0,4.0,4.0,497.8475480002089,2.0,1.0,phase_1,,,,,,,,,,,,,gray,circle
35.0,1.0,1.0,0.0,1.0,1.0,528.589561001354,2.0,1.0,phase_1,,,,,,,,,,,,,gray,circle
113.0,6.0,2.0,1.0,3.0,3.0,325.5317089988239,2.0,1.0,phase_1,,,,,,,,,,,,,yellow,flipped triangle
86.0,6.0,2.0,1.0,4.0,4.0,274.3538390004687,2.0,1.0,phase_1,,,,,,,,,,,,,yellow,flipped triangle
378.0,4.0,4.0,0.0,2.0,2.0,361.1447409984976,2.0,1.0,phase_1,,,,,,,,,,,,,green,I
109.0,6.0,2.0,1.0,4.0,4.0,338.8648569998622,2.0,2.0,phase_1,,,,,,,,,,,,,yellow,flipped triangle
0.0,1.0,0.0,0.0,3.0,3.0,343.5900260010385,2.0,1.0,phase_1,,,,,,,,,,,,,gray,circle
380.0,8.0,4.0,1.0,4.0,4.0,272.6343750000524,2.0,1.0,phase_1,,,,,,,,,,,,,orange,diamond
36.0,5.0,1.0,1.0,4.0,4.0,309.6962239997083,2.0,1.0,phase_1,,,,,,,,,,,,,blue,square
0.0,1.0,0.0,0.0,2.0,2.0,353.1077919997187,2.0,1.0,phase_1,,,,,,,,,,,,,gray,circle
195.0,7.0,3.0,1.0,3.0,3.0,308.0190590007987,2.0,1.0,phase_1,,,,,,,,,,,,,cyan,triangle
201.0,7.0,3.0,1.0,1.0,1.0,357.6427589996456,2.0,1.0,phase_1,,,,,,,,,,,,,cyan,triangle
0.0,6.0,0.0,1.0,4.0,4.0,365.3063570000086,2.0,1.0,phase_1,,,,,,,,,,,,,yellow,flipped triangle
95.0,6.0,2.0,1.0,3.0,3.0,300.484723999034,2.0,1.0,phase_1,,,,,,,,,,,,,yellow,flipped triangle
193.0,7.0,3.0,1.0,2.0,2.0,332.6138339998579,2.0,1.0,phase_1,,,,,,,,,,,,,cyan,triangle
58.0,1.0,1.0,0.0,1.0,1.0,356.5151749990036,2.0,1.0,phase_1,,,,,,,,,,,,,gray,circle
182.0,7.0,3.0,1.0,2.0,2.0,281.839975999901,2.0,1.0,phase_1,,,,,,,,,,,,,cyan,triangle
222.0,3.0,3.0,0.0,2.0,2.0,289.1043630006606,2.0,1.0,phase_1,,,,,,,,,,,,,white,cross
0.0,1.0,0.0,0.0,4.0,4.0,383.1245439996564,2.0,1.0,phase_1,,,,,,,,,,,,,gray,circle
185.0,7.0,3.0,1.0,4.0,4.0,295.1668610003253,2.0,1.0,phase_1,,,,,,,,,,,,,cyan,triangle
408.0,4.0,4.0,0.0,1.0,1.0,347.1953970001777,2.0,1.0,phase_1,,,,,,,,,,,,,green,I
35.0,5.0,1.0,1.0,1.0,1.0,359.0384790004464,2.0,1.0,phase_1,,,,,,,,,,,,,blue,square
0.0,4.0,0.0,0.0,2.0,2.0,262.5305479996314,2.0,1.0,phase_1,,,,,,,,,,,,,green,I
105.0,6.0,2.0,1.0,4.0,4.0,364.0166320001299,2.0,1.0,phase_1,,,,,,,,,,,,,yellow,flipped triangle
61.0,1.0,1.0,0.0,4.0,4.0,260.7246030001988,2.0,2.0,phase_1,,,,,,,,,,,,,gray,circle
123.0,6.0,2.0,1.0,2.0,2.0,260.7651960006478,2.0,1.0,phase_1,,,,,,,,,,,,,yellow,flipped triangle
221.0,3.0,3.0,0.0,3.0,3.0,354.7625689989218,2.0,1.0,phase_1,,,,,,,,,,,,,white,cross
41.0,5.0,1.0,1.0,2.0,2.0,321.1561549996986,2.0,1.0,phase_1,,,,,,,,,,,,,blue,square
422.0,4.0,4.0,0.0,3.0,3.0,330.1583899992693,2.0,1.0,phase_1,,,,,,,,,,,,,green,I
403.0,4.0,4.0,0.0,2.0,2.0,321.4307819998794,2.0,1.0,phase_1,,,,,,,,,,,,,green,I
402.0,4.0,4.0,0.0,2.0,2.0,308.9999980002176,2.0,1.0,phase_1,,,,,,,,,,,,,green,I
101.0,2.0,2.0,0.0,4.0,4.0,264.7977569995419,2.0,1.0,phase_1,,,,,,,,,,,,,magenta,hexagon
61.0,5.0,1.0,1.0,2.0,2.0,288.5821150011907,2.0,1.0,phase_1,,,,,,,,,,,,,blue,square
184.0,7.0,3.0,1.0,3.0,3.0,322.1449410011701,2.0,1.0,phase_1,,,,,,,,,,,,,cyan,triangle
212.0,7.0,3.0,1.0,3.0,3.0,314.7864490001666,2.0,1.0,phase_1,,,,,,,,,,,,,cyan,triangle
383.0,8.0,4.0,1.0,2.0,2.0,289.4901380004739,2.0,1.0,phase_1,,,,,,,,,,,,,orange,diamond
423.0,8.0,4.0,1.0,4.0,4.0,327.3803339998267,2.0,2.0,phase_1,,,,,,,,,,,,,orange,diamond
410.0,4.0,4.0,0.0,2.0,2.0,312.8755310008273,2.0,1.0,phase_1,,,,,,,,,,,,,green,I
49.0,1.0,1.0,0.0,3.0,3.0,373.0127290000382,2.0,1.0,phase_1,,,,,,,,,,,,,gray,circle
0.0,6.0,0.0,1.0,4.0,4.0,295.1068590009527,2.0,1.0,phase_1,,,,,,,,,,,,,yellow,flipped triangle
63.0,1.0,1.0,0.0,2.0,2.0,326.4761909995286,2.0,1.0,phase_1,,,,,,,,,,,,,gray,circle
0.0,2.0,0.0,0.0,4.0,4.0,305.9809549995407,2.0,1.0,phase_1,,,,,,,,,,,,,magenta,hexagon
89.0,2.0,2.0,0.0,2.0,2.0,270.5454219994863,2.0,1.0,phase_1,,,,,,,,,,,,,magenta,hexagon
201.0,3.0,3.0,0.0,4.0,4.0,327.4062979999144,2.0,1.0,phase_1,,,,,,,,,,,,,white,cross
69.0,1.0,1.0,0.0,4.0,4.0,329.1013550006028,2.0,1.0,phase_1,,,,,,,,,,,,,gray,circle
186.0,7.0,3.0,1.0,1.0,1.0,399.4429979993583,2.0,1.0,phase_1,,,,,,,,,,,,,cyan,triangle
98.0,6.0,2.0,1.0,4.0,4.0,298.1351959988387,2.0,1.0,phase_1,,,,,,,,,,,,,yellow,flipped triangle
214.0,3.0,3.0,0.0,2.0,2.0,266.3566800001717,2.0,1.0,phase_1,,,,,,,,,,,,,white,cross
224.0,7.0,3.0,1.0,3.0,3.0,288.6265489996731,2.0,1.0,phase_1,,,,,,,,,,,,,cyan,triangle
105.0,6.0,2.0,1.0,2.0,2.0,342.1850760005327,2.0,1.0,phase_1,,,,,,,,,,,,,yellow,flipped triangle
114.0,2.0,2.0,0.0,1.0,1.0,480.7366039985936,2.0,1.0,phase_1,,,,,,,,,,,,,magenta,hexagon
26.0,5.0,1.0,1.0,1.0,1.0,320.6915369992202,2.0,1.0,phase_1,,,,,,,,,,,,,blue,square
82.0,2.0,2.0,0.0,3.0,3.0,355.0481929996749,2.0,1.0,phase_1,,,,,,,,,,,,,magenta,hexagon
86.0,2.0,2.0,0.0,1.0,1.0,302.3617750004632,2.0,1.0,phase_1,,,,,,,,,,,,,magenta,hexagon
105.0,2.0,2.0,0.0,3.0,3.0,300.4440929998964,2.0,1.0,phase_1,,,,,,,,,,,,,magenta,hexagon
403.0,4.0,4.0,0.0,4.0,4.0,302.0590479991369,2.0,1.0,phase_1,,,,,,,,,,,,,green,I
121.0,2.0,2.0,0.0,4.0,4.0,347.6984159988205,2.0,1.0,phase_1,,,,,,,,,,,,,magenta,hexagon
0.0,7.0,0.0,1.0,4.0,4.0,324.6927330001199,2.0,1.0,phase_1,,,,,,,,,,,,,cyan,triangle
25.0,1.0,1.0,0.0,3.0,3.0,314.2213339997397,2.0,1.0,phase_1,,,,,,,,,,,,,gray,circle
0.0,7.0,0.0,1.0,1.0,1.0,370.5983939998987,2.0,1.0,phase_1,,,,,,,,,,,,,cyan,triangle
111.0,6.0,2.0,1.0,4.0,4.0,314.4252199999755,2.0,1.0,phase_1,,,,,,,,,,,,,yellow,flipped triangle
403.0,8.0,4.0,1.0,3.0,3.0,292.9638370005705,2.0,1.0,phase_1,,,,,,,,,,,,,orange,diamond
402.0,4.0,4.0,0.0,4.0,4.0,337.9834650004341,2.0,1.0,phase_1,,,,,,,,,,,,,green,I
0.0,7.0,0.0,1.0,1.0,1.0,351.0692679992644,2.0,1.0,phase_1,,,,,,,,,,,,,cyan,triangle
185.0,3.0,3.0,0.0,3.0,3.0,319.7200119993795,2.0,1.0,phase_1,,,,,,,,,,,,,white,cross
111.0,2.0,2.0,0.0,4.0,4.0,297.1977779998269,2.0,1.0,phase_1,,,,,,,,,,,,,magenta,hexagon
402.0,8.0,4.0,1.0,4.0,4.0,329.6983870004624,2.0,1.0,phase_1,,,,,,,,,,,,,orange,diamond
382.0,4.0,4.0,0.0,3.0,3.0,355.3705920003267,2.0,1.0,phase_1,,,,,,,,,,,,,green,I
58.0,5.0,1.0,1.0,1.0,1.0,330.5015199985064,2.0,1.0,phase_1,,,,,,,,,,,,,blue,square
186.0,7.0,3.0,1.0,2.0,2.0,322.9001279996737,2.0,1.0,phase_1,,,,,,,,,,,,,cyan,triangle
382.0,4.0,4.0,0.0,3.0,3.0,347.03050600001,3.0,1.0,phase_1,,,,,,,,,,,,,green,I
105.0,6.0,2.0,1.0,3.0,3.0,707.6764410012402,3.0,1.0,phase_1,,,,,,,,,,,,,yellow,flipped triangle
408.0,4.0,4.0,0.0,1.0,1.0,301.801166999212,3.0,1.0,phase_1,,,,,,,,,,,,,green,I
0.0,5.0,0.0,1.0,3.0,3.0,261.4710590005416,3.0,1.0,phase_1,,,,,,,,,,,,,blue,square
212.0,3.0,3.0,0.0,2.0,2.0,306.7344879982556,3.0,1.0,phase_1,,,,,,,,,,,,,white,cross
41.0,5.0,1.0,1.0,4.0,4.0,249.2388660011784,3.0,1.0,phase_1,,,,,,,,,,,,,blue,square
101.0,6.0,2.0,1.0,4.0,4.0,306.6840069986938,3.0,1.0,phase_1,,,,,,,,,,,,,yellow,flipped triangle
82.0,2.0,2.0,0.0,4.0,4.0,343.3286409999709,3.0,1.0,phase_1,,,,,,,,,,,,,magenta,hexagon
188.0,3.0,3.0,0.0,4.0,4.0,298.9951969993853,3.0,1.0,phase_1,,,,,,,,,,,,,white,cross
420.0,8.0,4.0,1.0,1.0,1.0,375.2950439993583,3.0,1.0,phase_1,,,,,,,,,,,,,orange,diamond
32.0,1.0,1.0,0.0,2.0,2.0,321.7327900001692,3.0,1.0,phase_1,,,,,,,,,,,,,gray,circle
175.0,7.0,3.0,1.0,4.0,4.0,309.7526550009206,3.0,1.0,phase_1,,,,,,,,,,,,,cyan,triangle
94.0,2.0,2.0,0.0,3.0,3.0,464.3936370011943,3.0,1.0,phase_1,,,,,,,,,,,,,magenta,hexagon
392.0,4.0,4.0,0.0,4.0,4.0,334.8695929998939,3.0,1.0,phase_1,,,,,,,,,,,,,green,I
0.0,1.0,0.0,0.0,1.0,1.0,354.2172969991952,3.0,1.0,phase_1,,,,,,,,,,,,,gray,circle
26.0,1.0,1.0,0.0,1.0,1.0,335.2174520005064,3.0,1.0,phase_1,,,,,,,,,,,,,gray,circle
63.0,5.0,1.0,1.0,2.0,2.0,256.8384500009415,3.0,1.0,phase_1,,,,,,,,,,,,,blue,square
53.0,1.0,1.0,0.0,3.0,3.0,288.5834549997526,3.0,1.0,phase_1,,,,,,,,,,,,,gray,circle
193.0,3.0,3.0,0.0,2.0,2.0,312.9945190012222,3.0,1.0,phase_1,,,,,,,,,,,,,white,cross
391.0,8.0,4.0,1.0,4.0,4.0,257.4399269997229,3.0,1.0,phase_1,,,,,,,,,,,,,orange,diamond
391.0,4.0,4.0,0.0,1.0,1.0,383.056091999606,3.0,2.0,phase_1,,,,,,,,,,,,,green,I
117.0,6.0,2.0,1.0,1.0,1.0,346.5748979997443,3.0,1.0,phase_1,,,,,,,,,,,,,yellow,flipped triangle
0.0,7.0,0.0,1.0,3.0,3.0,339.6839140004886,3.0,1.0,phase_1,,,,,,,,,,,,,cyan,triangle
188.0,3.0,3.0,0.0,4.0,4.0,306.5440259997558,3.0,1.0,phase_1,,,,,,,,,,,,,white,cross
60.0,1.0,1.0,0.0,2.0,2.0,292.2762460002559,3.0,1.0,phase_1,,,,,,,,,,,,,gray,circle
390.0,8.0,4.0,1.0,3.0,3.0,284.98655599833,3.0,1.0,phase_1,,,,,,,,,,,,,orange,diamond
36.0,1.0,1.0,0.0,1.0,1.0,317.0175310006016,3.0,1.0,phase_1,,,,,,,,,,,,,gray,circle
32.0,5.0,1.0,1.0,4.0,4.0,329.0207409991126,3.0,1.0,phase_1,,,,,,,,,,,,,blue,square
64.0,1.0,1.0,0.0,2.0,2.0,261.3131939997402,3.0,1.0,phase_1,,,,,,,,,,,,,gray,circle
77.0,2.0,2.0,0.0,2.0,2.0,318.8700290011184,3.0,1.0,phase_1,,,,,,,,,,,,,magenta,hexagon
0.0,7.0,0.0,1.0,4.0,4.0,322.2284189996571,3.0,1.0,phase_1,,,,,,,,,,,,,cyan,triangle
102.0,2.0,2.0,0.0,3.0,3.0,398.3502039991435,3.0,1.0,phase_1,,,,,,,,,,,,,magenta,hexagon
376.0,4.0,4.0,0.0,1.0,1.0,334.2028499992011,3.0,1.0,phase_1,,,,,,,,,,,,,green,I
0.0,1.0,0.0,0.0,1.0,1.0,254.40236900067248,3.0,2.0,phase_1,,,,,,,,,,,,,gray,circle
48.0,1.0,1.0,0.0,3.0,3.0,391.7487710004934,3.0,1.0,phase_1,,,,,,,,,,,,,gray,circle
94.0,2.0,2.0,0.0,3.0,3.0,366.9765049999114,3.0,1.0,phase_1,,,,,,,,,,,,,magenta,hexagon
0.0,4.0,0.0,0.0,1.0,1.0,380.4151029999048,3.0,1.0,phase_1,,,,,,,,,,,,,green,I
45.0,5.0,1.0,1.0,1.0,1.0,335.767932001545,3.0,1.0,phase_1,,,,,,,,,,,,,blue,square
186.0,3.0,3.0,0.0,1.0,1.0,325.6652559994109,3.0,1.0,phase_1,,,,,,,,,,,,,white,cross
0.0,7.0,0.0,1.0,2.0,2.0,346.1799309989146,3.0,1.0,phase_1,,,,,,,,,,,,,cyan,triangle
0.0,3.0,0.0,0.0,2.0,2.0,414.7812800001702,3.0,1.0,phase_1,,,,,,,,,,,,,white,cross
424.0,4.0,4.0,0.0,2.0,2.0,317.7755770011572,3.0,1.0,phase_1,,,,,,,,,,,,,green,I
416.0,8.0,4.0,1.0,3.0,3.0,0.18829299915519998,3.0,2.0,phase_1,,,,,,,,,,,,,orange,diamond
0.0,4.0,0.0,0.0,2.0,2.0,307.0747469992056,3.0,1.0,phase_1,,,,,,,,,,,,,green,I
202.0,7.0,3.0,1.0,1.0,1.0,363.2817240013537,3.0,1.0,phase_1,,,,,,,,,,,,,cyan,triangle
45.0,1.0,1.0,0.0,1.0,1.0,388.260731999253,3.0,1.0,phase_1,,,,,,,,,,,,,gray,circle
380.0,4.0,4.0,0.0,3.0,3.0,362.9103890016267,3.0,1.0,phase_1,,,,,,,,,,,,,green,I
382.0,8.0,4.0,1.0,3.0,3.0,319.4251180011633,3.0,1.0,phase_1,,,,,,,,,,,,,orange,diamond
177.0,3.0,3.0,0.0,1.0,1.0,0.1911780000227,3.0,2.0,phase_1,,,,,,,,,,,,,white,cross
0.0,1.0,0.0,0.0,2.0,2.0,341.622632000508,3.0,1.0,phase_1,,,,,,,,,,,,,gray,circle
391.0,4.0,4.0,0.0,2.0,2.0,367.3056139996333,3.0,1.0,phase_1,,,,,,,,,,,,,green,I
109.0,2.0,2.0,0.0,3.0,3.0,354.6725989999686,3.0,1.0,phase_1,,,,,,,,,,,,,magenta,hexagon
0.0,2.0,0.0,0.0,2.0,2.0,390.6751740014442,3.0,1.0,phase_1,,,,,,,,,,,,,magenta,hexagon
185.0,3.0,3.0,0.0,3.0,3.0,413.4408149984665,3.0,1.0,phase_1,,,,,,,,,,,,,white,cross
416.0,8.0,4.0,1.0,4.0,4.0,392.5236949999089,3.0,1.0,phase_1,,,,,,,,,,,,,orange,diamond
84.0,2.0,2.0,0.0,2.0,2.0,289.6849640001164,3.0,1.0,phase_1,,,,,,,,,,,,,magenta,hexagon
185.0,7.0,3.0,1.0,4.0,4.0,335.6789260014921,3.0,1.0,phase_1,,,,,,,,,,,,,cyan,triangle
217.0,3.0,3.0,0.0,4.0,4.0,339.3795489992044,3.0,1.0,phase_1,,,,,,,,,,,,,white,cross
36.0,5.0,1.0,1.0,1.0,1.0,314.7824500010756,3.0,1.0,phase_1,,,,,,,,,,,,,blue,square
201.0,7.0,3.0,1.0,2.0,2.0,268.9993379990483,3.0,1.0,phase_1,,,,,,,,,,,,,cyan,triangle
89.0,6.0,2.0,1.0,2.0,2.0,303.230307999911,3.0,1.0,phase_1,,,,,,,,,,,,,yellow,flipped triangle
49.0,5.0,1.0,1.0,2.0,2.0,270.4267819990491,3.0,1.0,phase_1,,,,,,,,,,,,,blue,square
0.0,7.0,0.0,1.0,2.0,2.0,273.6833359995216,3.0,1.0,phase_1,,,,,,,,,,,,,cyan,triangle
201.0,3.0,3.0,0.0,1.0,1.0,307.0582330001343,3.0,1.0,phase_1,,,,,,,,,,,,,white,cross
224.0,3.0,3.0,0.0,2.0,2.0,294.6705920003296,3.0,1.0,phase_1,,,,,,,,,,,,,white,cross
423.0,8.0,4.0,1.0,4.0,4.0,365.627717001189,3.0,1.0,phase_1,,,,,,,,,,,,,orange,diamond
415.0,4.0,4.0,0.0,3.0,3.0,306.6605050007638,3.0,1.0,phase_1,,,,,,,,,,,,,green,I
218.0,3.0,3.0,0.0,4.0,4.0,332.8675780012418,3.0,1.0,phase_1,,,,,,,,,,,,,white,cross
69.0,5.0,1.0,1.0,3.0,3.0,306.9717729995318,3.0,1.0,phase_1,,,,,,,,,,,,,blue,square
0.0,6.0,0.0,1.0,1.0,1.0,329.8750650010333,3.0,1.0,phase_1,,,,,,,,,,,,,yellow,flipped triangle
202.0,3.0,3.0,0.0,2.0,2.0,354.3633379995299,3.0,1.0,phase_1,,,,,,,,,,,,,white,cross
0.0,6.0,0.0,1.0,4.0,4.0,301.0466550003912,3.0,1.0,phase_1,,,,,,,,,,,,,yellow,flipped triangle
194.0,3.0,3.0,0.0,1.0,1.0,310.0175700001273,3.0,1.0,phase_1,,,,,,,,,,,,,white,cross
28.0,1.0,1.0,0.0,4.0,4.0,321.2483749994135,3.0,1.0,phase_1,,,,,,,,,,,,,gray,circle
48.0,1.0,1.0,0.0,4.0,4.0,321.6417650000949,3.0,1.0,phase_1,,,,,,,,,,,,,gray,circle
52.0,5.0,1.0,1.0,3.0,3.0,348.091032999946,3.0,1.0,phase_1,,,,,,,,,,,,,blue,square
0.0,8.0,0.0,1.0,3.0,3.0,416.3147989984281,3.0,1.0,phase_1,,,,,,,,,,,,,orange,diamond
188.0,7.0,3.0,1.0,3.0,3.0,361.5198440002132,3.0,1.0,phase_1,,,,,,,,,,,,,cyan,triangle
0.0,7.0,0.0,1.0,2.0,2.0,323.8282060010533,3.0,1.0,phase_1,,,,,,,,,,,,,cyan,triangle
224.0,3.0,3.0,0.0,1.0,1.0,314.4713689998752,3.0,2.0,phase_1,,,,,,,,,,,,,white,cross
70.0,5.0,1.0,1.0,1.0,1.0,294.6032239997294,3.0,1.0,phase_1,,,,,,,,,,,,,blue,square
0.0,8.0,0.0,1.0,3.0,3.0,329.3515750010556,3.0,1.0,phase_1,,,,,,,,,,,,,orange,diamond
95.0,2.0,2.0,0.0,1.0,1.0,272.976104000918,3.0,1.0,phase_1,,,,,,,,,,,,,magenta,hexagon
39.0,1.0,1.0,0.0,1.0,1.0,304.9793519985542,3.0,1.0,phase_1,,,,,,,,,,,,,gray,circle
44.0,1.0,1.0,0.0,4.0,4.0,0.2537500004109,3.0,2.0,phase_1,,,,,,,,,,,,,gray,circle
409.0,4.0,4.0,0.0,4.0,4.0,309.9941879991092,3.0,1.0,phase_1,,,,,,,,,,,,,green,I
410.0,8.0,4.0,1.0,2.0,2.0,374.7349470013432,3.0,1.0,phase_1,,,,,,,,,,,,,orange,diamond
113.0,2.0,2.0,0.0,3.0,3.0,397.8694809993612,3.0,1.0,phase_1,,,,,,,,,,,,,magenta,hexagon
198.0,7.0,3.0,1.0,1.0,1.0,320.5476679995627,3.0,2.0,phase_1,,,,,,,,,,,,,cyan,triangle
44.0,5.0,1.0,1.0,2.0,2.0,288.8084549995255,3.0,1.0,phase_1,,,,,,,,,,,,,blue,square
34.0,1.0,1.0,0.0,3.0,3.0,310.1754179988347,3.0,1.0,phase_1,,,,,,,,,,,,,gray,circle
27.0,1.0,1.0,0.0,4.0,4.0,359.4934600005217,3.0,1.0,phase_1,,,,,,,,,,,,,gray,circle
217.0,7.0,3.0,1.0,3.0,3.0,335.8649509991664,3.0,1.0,phase_1,,,,,,,,,,,,,cyan,triangle
82.0,6.0,2.0,1.0,3.0,3.0,322.6241969987313,3.0,1.0,phase_1,,,,,,,,,,,,,yellow,flipped triangle
28.0,5.0,1.0,1.0,3.0,3.0,312.5557340008527,3.0,1.0,phase_1,,,,,,,,,,,,,blue,square
212.0,3.0,3.0,0.0,4.0,4.0,325.8873430004314,3.0,1.0,phase_1,,,,,,,,,,,,,white,cross
54.0,1.0,1.0,0.0,1.0,1.0,441.096110998842,3.0,1.0,phase_1,,,,,,,,,,,,,gray,circle
393.0,4.0,4.0,0.0,1.0,1.0,337.6671139994869,3.0,1.0,phase_1,,,,,,,,,,,,,green,I
0.0,4.0,0.0,0.0,3.0,3.0,280.165335001584,3.0,1.0,phase_1,,,,,,,,,,,,,green,I
204.0,7.0,3.0,1.0,4.0,4.0,363.6058760002925,3.0,1.0,phase_1,,,,,,,,,,,,,cyan,triangle
199.0,7.0,3.0,1.0,2.0,2.0,300.4815949989279,4.0,1.0,phase_1,,,,,,,,,,,,,cyan,triangle
105.0,2.0,2.0,0.0,2.0,2.0,258.5682649987575,4.0,1.0,phase_1,,,,,,,,,,,,,magenta,hexagon
0.0,6.0,0.0,1.0,2.0,2.0,259.258915000828,4.0,1.0,phase_1,,,,,,,,,,,,,yellow,flipped triangle
94.0,6.0,2.0,1.0,4.0,4.0,270.00862199929537,4.0,1.0,phase_1,,,,,,,,,,,,,yellow,flipped triangle
54.0,5.0,1.0,1.0,2.0,2.0,246.1517390001972,4.0,1.0,phase_1,,,,,,,,,,,,,blue,square
0.0,8.0,0.0,1.0,2.0,2.0,303.3657139985735,4.0,1.0,phase_1,,,,,,,,,,,,,orange,diamond
106.0,6.0,2.0,1.0,1.0,1.0,45.1365700009773,4.0,2.0,phase_1,,,,,,,,,,,,,yellow,flipped triangle
0.0,1.0,0.0,0.0,2.0,2.0,587.7950530011731,4.0,1.0,phase_1,,,,,,,,,,,,,gray,circle
97.0,2.0,2.0,0.0,4.0,4.0,453.1886029999441,4.0,1.0,phase_1,,,,,,,,,,,,,magenta,hexagon
0.0,6.0,0.0,1.0,2.0,2.0,274.4844310000189,4.0,1.0,phase_1,,,,,,,,,,,,,yellow,flipped triangle
212.0,7.0,3.0,1.0,4.0,4.0,319.4753810003021,4.0,1.0,phase_1,,,,,,,,,,,,,cyan,triangle
403.0,8.0,4.0,1.0,1.0,1.0,376.7186799996125,4.0,1.0,phase_1,,,,,,,,,,,,,orange,diamond
33.0,1.0,1.0,0.0,1.0,1.0,330.8038060004037,4.0,1.0,phase_1,,,,,,,,,,,,,gray,circle
60.0,5.0,1.0,1.0,1.0,1.0,322.141646000091,4.0,1.0,phase_1,,,,,,,,,,,,,blue,square
195.0,3.0,3.0,0.0,3.0,3.0,0.1923300005728,4.0,2.0,phase_1,,,,,,,,,,,,,white,cross
69.0,5.0,1.0,1.0,1.0,1.0,311.049367999658,4.0,1.0,phase_1,,,,,,,,,,,,,blue,square
203.0,3.0,3.0,0.0,4.0,4.0,469.2458839999744,4.0,1.0,phase_1,,,,,,,,,,,,,white,cross
77.0,2.0,2.0,0.0,3.0,3.0,355.9845750005479,4.0,1.0,phase_1,,,,,,,,,,,,,magenta,hexagon
55.0,5.0,1.0,1.0,2.0,2.0,314.7960320002312,4.0,1.0,phase_1,,,,,,,,,,,,,blue,square
70.0,1.0,1.0,0.0,3.0,3.0,311.1364920005144,4.0,1.0,phase_1,,,,,,,,,,,,,gray,circle
33.0,5.0,1.0,1.0,3.0,3.0,271.1841640011698,4.0,1.0,phase_1,,,,,,,,,,,,,blue,square
215.0,7.0,3.0,1.0,1.0,1.0,291.1325060013041,4.0,1.0,phase_1,,,,,,,,,,,,,cyan,triangle
100.0,2.0,2.0,0.0,2.0,2.0,270.9014499996556,4.0,1.0,phase_1,,,,,,,,,,,,,magenta,hexagon
176.0,7.0,3.0,1.0,4.0,4.0,347.7248220006004,4.0,1.0,phase_1,,,,,,,,,,,,,cyan,triangle
415.0,4.0,4.0,0.0,4.0,4.0,325.5412670005171,4.0,1.0,phase_1,,,,,,,,,,,,,green,I
56.0,1.0,1.0,0.0,1.0,1.0,306.1542149989691,4.0,1.0,phase_1,,,,,,,,,,,,,gray,circle
409.0,8.0,4.0,1.0,1.0,1.0,318.3443049983907,4.0,1.0,phase_1,,,,,,,,,,,,,orange,diamond
392.0,8.0,4.0,1.0,3.0,3.0,339.0396730010252,4.0,1.0,phase_1,,,,,,,,,,,,,orange,diamond
90.0,6.0,2.0,1.0,4.0,4.0,388.2043479989079,4.0,1.0,phase_1,,,,,,,,,,,,,yellow,flipped triangle
98.0,2.0,2.0,0.0,4.0,4.0,317.4287580004602,4.0,1.0,phase_1,,,,,,,,,,,,,magenta,hexagon
378.0,4.0,4.0,0.0,3.0,3.0,388.4570879999955,4.0,1.0,phase_1,,,,,,,,,,,,,green,I
0.0,1.0,0.0,0.0,4.0,4.0,318.3135090002906,4.0,1.0,phase_1,,,,,,,,,,,,,gray,circle
0.0,3.0,0.0,0.0,4.0,4.0,368.1885770001827,4.0,1.0,phase_1,,,,,,,,,,,,,white,cross
48.0,5.0,1.0,1.0,3.0,3.0,712.7607500005979,4.0,1.0,phase_1,,,,,,,,,,,,,blue,square
0.0,6.0,0.0,1.0,4.0,4.0,297.5549500006309,4.0,1.0,phase_1,,,,,,,,,,,,,yellow,flipped triangle
377.0,4.0,4.0,0.0,3.0,3.0,301.2061970002833,4.0,1.0,phase_1,,,,,,,,,,,,,green,I
41.0,1.0,1.0,0.0,2.0,2.0,322.0302459994855,4.0,1.0,phase_1,,,,,,,,,,,,,gray,circle
120.0,6.0,2.0,1.0,2.0,2.0,291.1031530002219,4.0,1.0,phase_1,,,,,,,,,,,,,yellow,flipped triangle
0.0,5.0,0.0,1.0,1.0,1.0,358.7196970001969,4.0,1.0,phase_1,,,,,,,,,,,,,blue,square
114.0,6.0,2.0,1.0,1.0,1.0,315.5729780010006,4.0,1.0,phase_1,,,,,,,,,,,,,yellow,flipped triangle
103.0,2.0,2.0,0.0,1.0,1.0,424.0234570006578,4.0,1.0,phase_1,,,,,,,,,,,,,magenta,hexagon
205.0,7.0,3.0,1.0,1.0,1.0,316.4000199994916,4.0,1.0,phase_1,,,,,,,,,,,,,cyan,triangle
55.0,1.0,1.0,0.0,4.0,4.0,470.7969020000746,4.0,1.0,phase_1,,,,,,,,,,,,,gray,circle
27.0,1.0,1.0,0.0,2.0,2.0,325.3729339994606,4.0,1.0,phase_1,,,,,,,,,,,,,gray,circle
390.0,4.0,4.0,0.0,2.0,2.0,325.0220360005187,4.0,1.0,phase_1,,,,,,,,,,,,,green,I
0.0,2.0,0.0,0.0,3.0,3.0,350.6459960008214,4.0,1.0,phase_1,,,,,,,,,,,,,magenta,hexagon
0.0,2.0,0.0,0.0,4.0,4.0,362.0971569998801,4.0,1.0,phase_1,,,,,,,,,,,,,magenta,hexagon
0.0,2.0,0.0,0.0,3.0,3.0,304.9520349995873,4.0,1.0,phase_1,,,,,,,,,,,,,magenta,hexagon
412.0,4.0,4.0,0.0,1.0,1.0,420.4614079990278,4.0,1.0,phase_1,,,,,,,,,,,,,green,I
97.0,6.0,2.0,1.0,3.0,3.0,376.8970839992107,4.0,1.0,phase_1,,,,,,,,,,,,,yellow,flipped triangle
52.0,1.0,1.0,0.0,3.0,3.0,399.7789470013231,4.0,1.0,phase_1,,,,,,,,,,,,,gray,circle
101.0,2.0,2.0,0.0,4.0,4.0,296.0349909990327,4.0,1.0,phase_1,,,,,,,,,,,,,magenta,hexagon
218.0,7.0,3.0,1.0,2.0,2.0,285.0592360009614,4.0,1.0,phase_1,,,,,,,,,,,,,cyan,triangle
184.0,3.0,3.0,0.0,4.0,4.0,378.21592399996,4.0,1.0,phase_1,,,,,,,,,,,,,white,cross
186.0,3.0,3.0,0.0,3.0,3.0,308.4396379999816,4.0,1.0,phase_1,,,,,,,,,,,,,white,cross
118.0,2.0,2.0,0.0,2.0,2.0,367.4316800006636,4.0,1.0,phase_1,,,,,,,,,,,,,magenta,hexagon
403.0,8.0,4.0,1.0,2.0,2.0,243.6886460000096,4.0,1.0,phase_1,,,,,,,,,,,,,orange,diamond
0.0,2.0,0.0,0.0,3.0,3.0,309.6206809987052,4.0,1.0,phase_1,,,,,,,,,,,,,magenta,hexagon
0.0,8.0,0.0,1.0,4.0,4.0,288.3282019993203,4.0,1.0,phase_1,,,,,,,,,,,,,orange,diamond
89.0,6.0,2.0,1.0,1.0,1.0,333.1041660003393,4.0,1.0,phase_1,,,,,,,,,,,,,yellow,flipped triangle
56.0,5.0,1.0,1.0,4.0,4.0,333.6625600004481,4.0,1.0,phase_1,,,,,,,,,,,,,blue,square
0.0,2.0,0.0,0.0,2.0,2.0,359.166924999954,4.0,1.0,phase_1,,,,,,,,,,,,,magenta,hexagon
0.0,5.0,0.0,1.0,4.0,4.0,470.7523990000481,4.0,1.0,phase_1,,,,,,,,,,,,,blue,square
0.0,2.0,0.0,0.0,4.0,4.0,382.6843860006192,4.0,1.0,phase_1,,,,,,,,,,,,,magenta,hexagon
224.0,7.0,3.0,1.0,4.0,4.0,381.0971399998379,4.0,1.0,phase_1,,,,,,,,,,,,,cyan,triangle
199.0,3.0,3.0,0.0,4.0,4.0,392.6078659987979,4.0,1.0,phase_1,,,,,,,,,,,,,white,cross
0.0,8.0,0.0,1.0,2.0,2.0,0.19202700059390002,4.0,2.0,phase_1,,,,,,,,,,,,,orange,diamond
224.0,7.0,3.0,1.0,4.0,4.0,386.6313629987417,4.0,1.0,phase_1,,,,,,,,,,,,,cyan,triangle
120.0,2.0,2.0,0.0,4.0,4.0,349.8250780012313,4.0,1.0,phase_1,,,,,,,,,,,,,magenta,hexagon
0.0,6.0,0.0,1.0,3.0,3.0,452.1583820005617,4.0,1.0,phase_1,,,,,,,,,,,,,yellow,flipped triangle
121.0,6.0,2.0,1.0,3.0,3.0,317.4608009994699,4.0,1.0,phase_1,,,,,,,,,,,,,yellow,flipped triangle
0.0,8.0,0.0,1.0,2.0,2.0,331.392420001066,4.0,1.0,phase_1,,,,,,,,,,,,,orange,diamond
81.0,6.0,2.0,1.0,1.0,1.0,388.1561399994098,4.0,1.0,phase_1,,,,,,,,,,,,,yellow,flipped triangle
423.0,4.0,4.0,0.0,1.0,1.0,356.657197999084,4.0,1.0,phase_1,,,,,,,,,,,,,green,I
0.0,3.0,0.0,0.0,2.0,2.0,311.6075680009089,4.0,1.0,phase_1,,,,,,,,,,,,,white,cross
0.0,7.0,0.0,1.0,4.0,4.0,343.217714000275,4.0,1.0,phase_1,,,,,,,,,,,,,cyan,triangle
393.0,8.0,4.0,1.0,2.0,2.0,354.5241669999086,4.0,1.0,phase_1,,,,,,,,,,,,,orange,diamond
192.0,3.0,3.0,0.0,3.0,3.0,358.4329309996974,4.0,1.0,phase_1,,,,,,,,,,,,,white,cross
183.0,3.0,3.0,0.0,1.0,1.0,334.8889669996424,4.0,1.0,phase_1,,,,,,,,,,,,,white,cross
403.0,4.0,4.0,0.0,4.0,4.0,492.020923000382,4.0,1.0,phase_1,,,,,,,,,,,,,green,I
117.0,2.0,2.0,0.0,1.0,1.0,379.8033030016086,4.0,1.0,phase_1,,,,,,,,,,,,,magenta,hexagon
0.0,4.0,0.0,0.0,4.0,4.0,404.6863319999829,4.0,1.0,phase_1,,,,,,,,,,,,,green,I
0.0,5.0,0.0,1.0,1.0,1.0,371.0523829995509,4.0,1.0,phase_1,,,,,,,,,,,,,blue,square
0.0,3.0,0.0,0.0,3.0,3.0,326.0095469995576,4.0,1.0,phase_1,,,,,,,,,,,,,white,cross
405.0,4.0,4.0,0.0,3.0,3.0,0.19522100046739999,4.0,2.0,phase_1,,,,,,,,,,,,,green,I
0.0,3.0,0.0,0.0,4.0,4.0,529.7309349989519,4.0,1.0,phase_1,,,,,,,,,,,,,white,cross
0.0,5.0,0.0,1.0,4.0,4.0,509.1222310002195,4.0,1.0,phase_1,,,,,,,,,,,,,blue,square
0.0,4.0,0.0,0.0,1.0,1.0,350.7548420002422,4.0,1.0,phase_1,,,,,,,,,,,,,green,I
111.0,2.0,2.0,0.0,2.0,2.0,298.3173420016101,4.0,1.0,phase_1,,,,,,,,,,,,,magenta,hexagon
198.0,3.0,3.0,0.0,2.0,2.0,273.9991590005957,4.0,1.0,phase_1,,,,,,,,,,,,,white,cross
378.0,8.0,4.0,1.0,1.0,1.0,399.1591869998956,4.0,1.0,phase_1,,,,,,,,,,,,,orange,diamond
398.0,8.0,4.0,1.0,4.0,4.0,354.5954820001498,4.0,1.0,phase_1,,,,,,,,,,,,,orange,diamond
106.0,2.0,2.0,0.0,1.0,1.0,297.1200810006849,4.0,1.0,phase_1,,,,,,,,,,,,,magenta,hexagon
0.0,4.0,0.0,0.0,2.0,2.0,322.7824160003365,4.0,1.0,phase_1,,,,,,,,,,,,,green,I
0.0,6.0,0.0,1.0,3.0,3.0,346.2932429993088,4.0,1.0,phase_1,,,,,,,,,,,,,yellow,flipped triangle
206.0,7.0,3.0,1.0,4.0,4.0,333.7237619998632,4.0,1.0,phase_1,,,,,,,,,,,,,cyan,triangle
36.0,1.0,1.0,0.0,2.0,2.0,504.2993150000257,4.0,1.0,phase_1,,,,,,,,,,,,,gray,circle
422.0,8.0,4.0,1.0,2.0,2.0,321.2591130013607,4.0,1.0,phase_1,,,,,,,,,,,,,orange,diamond
415.0,8.0,4.0,1.0,4.0,4.0,0.1947349992406,4.0,2.0,phase_1,,,,,,,,,,,,,orange,diamond
382.0,8.0,4.0,1.0,3.0,3.0,528.939272999196,4.0,1.0,phase_1,,,,,,,,,,,,,orange,diamond
0.0,5.0,1.0,1.0,5.0,0.0,0.0,1.0,1.0,phase_2,stop,250.0,250.0,4.0,,,,,,,,,blue,square
0.0,3.0,3.0,0.0,5.0,5.0,273.2981740009563,1.0,1.0,phase_2,go,300.0,250.0,1.0,,,,,,,,,white,cross
0.0,7.0,3.0,1.0,5.0,5.0,289.5639719990868,1.0,1.0,phase_2,go,300.0,250.0,1.0,,,,,,,,,cyan,triangle
0.0,4.0,4.0,0.0,5.0,5.0,334.8603609993006,1.0,1.0,phase_2,go,300.0,250.0,1.0,,,,,,,,,green,I
0.0,8.0,4.0,1.0,6.0,6.0,287.3045140004251,1.0,1.0,phase_2,go,300.0,250.0,1.0,,,,,,,,,orange,diamond
0.0,8.0,4.0,1.0,6.0,6.0,515.8700880001561,1.0,1.0,phase_2,stop,300.0,250.0,3.0,,,,,,,,,orange,diamond
0.0,6.0,2.0,1.0,5.0,0.0,0.0,1.0,1.0,phase_2,stop,300.0,200.0,4.0,,,,,,,,,yellow,flipped triangle
0.0,4.0,4.0,0.0,5.0,5.0,739.4517379998433,1.0,1.0,phase_2,go,350.0,200.0,1.0,,,,,,,,,green,I
0.0,4.0,4.0,0.0,6.0,6.0,235.066232000463,1.0,1.0,phase_2,go,350.0,200.0,1.0,,,,,,,,,green,I
0.0,8.0,4.0,1.0,6.0,6.0,313.5840829982044,1.0,1.0,phase_2,stop,350.0,200.0,3.0,,,,,,,,,orange,diamond
0.0,3.0,3.0,0.0,5.0,5.0,329.7524730005534,1.0,1.0,phase_2,go,350.0,150.0,1.0,,,,,,,,,white,cross
0.0,4.0,4.0,0.0,6.0,6.0,619.2249949999677,1.0,1.0,phase_2,go,350.0,150.0,1.0,,,,,,,,,green,I
0.0,6.0,2.0,1.0,5.0,5.0,304.6516160011379,1.0,1.0,phase_2,go,350.0,150.0,1.0,,,,,,,,,yellow,flipped triangle
0.0,8.0,4.0,1.0,5.0,5.0,421.098078999421,1.0,1.0,phase_2,go,350.0,150.0,1.0,,,,,,,,,orange,diamond
0.0,3.0,3.0,0.0,6.0,6.0,499.2419410009461,1.0,1.0,phase_2,go,350.0,150.0,1.0,,,,,,,,,white,cross
0.0,3.0,3.0,0.0,5.0,5.0,420.869166000557,1.0,1.0,phase_2,go,350.0,150.0,1.0,,,,,,,,,white,cross
0.0,3.0,3.0,0.0,5.0,5.0,356.4449819987203,1.0,1.0,phase_2,go,350.0,150.0,1.0,,,,,,,,,white,cross
0.0,6.0,2.0,1.0,5.0,5.0,370.2735919996485,1.0,1.0,phase_2,stop,350.0,150.0,3.0,,,,,,,,,yellow,flipped triangle
0.0,3.0,3.0,0.0,6.0,6.0,693.0056649998733,1.0,1.0,phase_2,go,300.0,150.0,1.0,,,,,,,,,white,cross
0.0,7.0,3.0,1.0,5.0,0.0,0.0,1.0,1.0,phase_2,stop,300.0,150.0,4.0,,,,,,,,,cyan,triangle
0.0,3.0,3.0,0.0,6.0,6.0,449.5798340012698,1.0,1.0,phase_2,go,350.0,150.0,1.0,,,,,,,,,white,cross
0.0,5.0,1.0,1.0,5.0,5.0,201.2505509992479,1.0,1.0,phase_2,go,350.0,150.0,1.0,,,,,,,,,blue,square
0.0,2.0,2.0,0.0,5.0,5.0,325.7335389989748,1.0,1.0,phase_2,go,350.0,150.0,1.0,,,,,,,,,magenta,hexagon
0.0,3.0,3.0,0.0,6.0,6.0,248.2336310004029,1.0,1.0,phase_2,go,350.0,150.0,1.0,,,,,,,,,white,cross
0.0,4.0,4.0,0.0,6.0,5.0,136.7448689998127,1.0,1.0,phase_2,go,350.0,150.0,2.0,,,,,,,,,green,I
0.0,6.0,2.0,1.0,5.0,5.0,371.1831699984032,1.0,1.0,phase_2,stop,350.0,150.0,3.0,,,,,,,,,yellow,flipped triangle
0.0,7.0,3.0,1.0,6.0,0.0,0.0,1.0,1.0,phase_2,stop,300.0,150.0,4.0,,,,,,,,,cyan,triangle
0.0,2.0,2.0,0.0,6.0,6.0,523.677997998675,1.0,1.0,phase_2,go,300.0,200.0,1.0,,,,,,,,,magenta,hexagon
0.0,2.0,2.0,0.0,5.0,5.0,487.0391419990483,1.0,1.0,phase_2,go,300.0,200.0,1.0,,,,,,,,,magenta,hexagon
0.0,1.0,1.0,0.0,6.0,6.0,376.0367900013079,1.0,1.0,phase_2,go,300.0,200.0,1.0,,,,,,,,,gray,circle
0.0,4.0,4.0,0.0,6.0,6.0,411.9530049993045,1.0,1.0,phase_2,go,300.0,200.0,1.0,,,,,,,,,green,I
0.0,1.0,1.0,0.0,5.0,5.0,320.9278559988888,1.0,1.0,phase_2,go,300.0,200.0,1.0,,,,,,,,,gray,circle
0.0,7.0,3.0,1.0,5.0,6.0,316.725757000313,1.0,1.0,phase_2,stop,300.0,200.0,3.0,,,,,,,,,cyan,triangle
0.0,4.0,4.0,0.0,6.0,6.0,412.839778999114,1.0,1.0,phase_2,go,250.0,200.0,1.0,,,,,,,,,green,I
0.0,6.0,2.0,1.0,6.0,6.0,437.4031659990578,1.0,1.0,phase_2,stop,250.0,200.0,3.0,,,,,,,,,yellow,flipped triangle
0.0,5.0,1.0,1.0,5.0,0.0,0.0,1.0,1.0,phase_2,stop,250.0,150.0,4.0,,,,,,,,,blue,square
0.0,6.0,2.0,1.0,6.0,6.0,560.9388769989891,2.0,1.0,phase_2,go,300.0,150.0,1.0,,,,,,,,,yellow,flipped triangle
0.0,6.0,2.0,1.0,6.0,6.0,495.7598839991988,2.0,1.0,phase_2,go,300.0,150.0,1.0,,,,,,,,,yellow,flipped triangle
0.0,7.0,3.0,1.0,6.0,6.0,382.1846329992695,2.0,1.0,phase_2,stop,300.0,150.0,3.0,,,,,,,,,cyan,triangle
0.0,7.0,3.0,1.0,5.0,0.0,0.0,2.0,1.0,phase_2,stop,300.0,100.0,4.0,,,,,,,,,cyan,triangle
0.0,5.0,1.0,1.0,6.0,0.0,0.0,2.0,1.0,phase_2,stop,350.0,100.0,4.0,,,,,,,,,blue,square
0.0,1.0,1.0,0.0,5.0,5.0,429.0733779998845,2.0,1.0,phase_2,go,350.0,150.0,1.0,,,,,,,,,gray,circle
0.0,5.0,1.0,1.0,6.0,0.0,0.0,2.0,1.0,phase_2,stop,350.0,150.0,4.0,,,,,,,,,blue,square
0.0,4.0,4.0,0.0,5.0,5.0,566.4219970003614,2.0,1.0,phase_2,go,350.0,200.0,1.0,,,,,,,,,green,I
0.0,6.0,2.0,1.0,6.0,0.0,0.0,2.0,1.0,phase_2,stop,350.0,200.0,4.0,,,,,,,,,yellow,flipped triangle
0.0,7.0,3.0,1.0,5.0,5.0,375.505226000314,2.0,1.0,phase_2,go,350.0,250.0,1.0,,,,,,,,,cyan,triangle
0.0,2.0,2.0,0.0,6.0,6.0,435.6467549987428,2.0,1.0,phase_2,go,350.0,250.0,1.0,,,,,,,,,magenta,hexagon
0.0,2.0,2.0,0.0,5.0,5.0,537.1985050005605,2.0,1.0,phase_2,go,350.0,250.0,1.0,,,,,,,,,magenta,hexagon
0.0,7.0,3.0,1.0,5.0,5.0,444.691751999926,2.0,1.0,phase_2,go,350.0,250.0,1.0,,,,,,,,,cyan,triangle
0.0,6.0,2.0,1.0,6.0,6.0,347.277318000124,2.0,1.0,phase_2,stop,350.0,250.0,3.0,,,,,,,,,yellow,flipped triangle
0.0,6.0,2.0,1.0,6.0,0.0,0.0,2.0,1.0,phase_2,stop,350.0,200.0,4.0,,,,,,,,,yellow,flipped triangle
0.0,8.0,4.0,1.0,5.0,0.0,0.0,2.0,1.0,phase_2,stop,350.0,250.0,4.0,,,,,,,,,orange,diamond
0.0,1.0,1.0,0.0,6.0,6.0,664.647600000535,2.0,1.0,phase_2,go,400.0,250.0,1.0,,,,,,,,,gray,circle
0.0,1.0,1.0,0.0,5.0,5.0,415.7975879988953,2.0,1.0,phase_2,go,400.0,250.0,1.0,,,,,,,,,gray,circle
0.0,5.0,1.0,1.0,5.0,5.0,307.3611539984995,2.0,1.0,phase_2,stop,400.0,250.0,3.0,,,,,,,,,blue,square
0.0,3.0,3.0,0.0,5.0,5.0,723.8134110011742,2.0,1.0,phase_2,go,350.0,250.0,1.0,,,,,,,,,white,cross
0.0,7.0,3.0,1.0,6.0,6.0,624.4251469997835,2.0,1.0,phase_2,go,350.0,250.0,1.0,,,,,,,,,cyan,triangle
0.0,3.0,3.0,0.0,5.0,5.0,419.367754000632,2.0,1.0,phase_2,go,350.0,250.0,1.0,,,,,,,,,white,cross
0.0,7.0,3.0,1.0,6.0,6.0,239.8223750005854,2.0,1.0,phase_2,go,350.0,250.0,1.0,,,,,,,,,cyan,triangle
0.0,7.0,3.0,1.0,6.0,0.0,0.0,2.0,1.0,phase_2,stop,350.0,250.0,4.0,,,,,,,,,cyan,triangle
0.0,2.0,2.0,0.0,6.0,6.0,525.2467129994329,2.0,1.0,phase_2,go,350.0,300.0,1.0,,,,,,,,,magenta,hexagon
0.0,2.0,2.0,0.0,6.0,6.0,503.8885169997229,2.0,1.0,phase_2,go,350.0,300.0,1.0,,,,,,,,,magenta,hexagon
0.0,2.0,2.0,0.0,6.0,6.0,569.9584140002116,2.0,1.0,phase_2,go,350.0,300.0,1.0,,,,,,,,,magenta,hexagon
0.0,3.0,3.0,0.0,6.0,6.0,346.4217870005086,2.0,1.0,phase_2,go,350.0,300.0,1.0,,,,,,,,,white,cross
0.0,5.0,1.0,1.0,6.0,0.0,0.0,2.0,1.0,phase_2,stop,350.0,300.0,4.0,,,,,,,,,blue,square
0.0,2.0,2.0,0.0,5.0,5.0,551.4019929996721,2.0,1.0,phase_2,go,350.0,350.0,1.0,,,,,,,,,magenta,hexagon
0.0,3.0,3.0,0.0,6.0,6.0,380.7569500004319,2.0,1.0,phase_2,go,350.0,350.0,1.0,,,,,,,,,white,cross
0.0,2.0,2.0,0.0,5.0,5.0,273.2708750008896,2.0,1.0,phase_2,go,350.0,350.0,1.0,,,,,,,,,magenta,hexagon
0.0,6.0,2.0,1.0,5.0,5.0,260.8404900001915,2.0,1.0,phase_2,go,350.0,350.0,1.0,,,,,,,,,yellow,flipped triangle
0.0,7.0,3.0,1.0,6.0,6.0,260.4649969998718,2.0,1.0,phase_2,stop,350.0,350.0,3.0,,,,,,,,,cyan,triangle
0.0,3.0,3.0,0.0,6.0,6.0,330.4054540003562,2.0,1.0,phase_2,go,350.0,300.0,1.0,,,,,,,,,white,cross
0.0,3.0,3.0,0.0,6.0,6.0,310.3621370009932,2.0,1.0,phase_2,go,350.0,300.0,1.0,,,,,,,,,white,cross
0.0,1.0,1.0,0.0,5.0,5.0,368.1046700003207,3.0,1.0,phase_2,go,350.0,300.0,1.0,,,,,,,,,gray,circle
0.0,5.0,1.0,1.0,6.0,0.0,0.0,3.0,1.0,phase_2,stop,350.0,300.0,4.0,,,,,,,,,blue,square
0.0,3.0,3.0,0.0,6.0,6.0,530.9191669985012,3.0,1.0,phase_2,go,350.0,350.0,1.0,,,,,,,,,white,cross
0.0,3.0,3.0,0.0,5.0,5.0,632.847357999708,3.0,1.0,phase_2,go,350.0,350.0,1.0,,,,,,,,,white,cross
0.0,6.0,2.0,1.0,6.0,6.0,328.4590169987496,3.0,1.0,phase_2,stop,350.0,350.0,3.0,,,,,,,,,yellow,flipped triangle
0.0,1.0,1.0,0.0,6.0,6.0,320.3974890002428,3.0,1.0,phase_2,go,350.0,300.0,1.0,,,,,,,,,gray,circle
0.0,4.0,4.0,0.0,6.0,6.0,332.4185649998981,3.0,1.0,phase_2,go,350.0,300.0,1.0,,,,,,,,,green,I
0.0,7.0,3.0,1.0,5.0,5.0,434.8190469991095,3.0,1.0,phase_2,stop,350.0,300.0,3.0,,,,,,,,,cyan,triangle
0.0,8.0,4.0,1.0,6.0,6.0,434.1759559993079,3.0,1.0,phase_2,go,300.0,300.0,1.0,,,,,,,,,orange,diamond
0.0,2.0,2.0,0.0,5.0,5.0,458.6917870001343,3.0,1.0,phase_2,go,300.0,300.0,1.0,,,,,,,,,magenta,hexagon
0.0,7.0,3.0,1.0,6.0,0.0,0.0,3.0,1.0,phase_2,stop,300.0,300.0,4.0,,,,,,,,,cyan,triangle
0.0,4.0,4.0,0.0,6.0,6.0,347.6998290007032,3.0,1.0,phase_2,go,300.0,350.0,1.0,,,,,,,,,green,I
0.0,7.0,3.0,1.0,6.0,0.0,0.0,3.0,1.0,phase_2,stop,300.0,350.0,4.0,,,,,,,,,cyan,triangle
0.0,1.0,1.0,0.0,6.0,6.0,516.8639330004225,3.0,1.0,phase_2,go,300.0,400.0,1.0,,,,,,,,,gray,circle
0.0,1.0,1.0,0.0,5.0,5.0,458.7085999992268,3.0,1.0,phase_2,go,300.0,400.0,1.0,,,,,,,,,gray,circle
0.0,4.0,4.0,0.0,6.0,6.0,249.0295560000959,3.0,1.0,phase_2,go,300.0,400.0,1.0,,,,,,,,,green,I
0.0,4.0,4.0,0.0,6.0,6.0,351.4139550006803,3.0,1.0,phase_2,go,300.0,400.0,1.0,,,,,,,,,green,I
0.0,5.0,1.0,1.0,6.0,6.0,272.4113370004488,3.0,1.0,phase_2,go,300.0,400.0,1.0,,,,,,,,,blue,square
0.0,4.0,4.0,0.0,6.0,6.0,293.5984430005192,3.0,1.0,phase_2,go,300.0,400.0,1.0,,,,,,,,,green,I
0.0,1.0,1.0,0.0,5.0,5.0,373.2939740002621,3.0,1.0,phase_2,go,300.0,400.0,1.0,,,,,,,,,gray,circle
0.0,7.0,3.0,1.0,6.0,6.0,351.0189129992795,3.0,1.0,phase_2,go,300.0,400.0,1.0,,,,,,,,,cyan,triangle
0.0,5.0,1.0,1.0,5.0,0.0,0.0,3.0,1.0,phase_2,stop,300.0,400.0,4.0,,,,,,,,,blue,square
0.0,7.0,3.0,1.0,5.0,0.0,0.0,3.0,1.0,phase_2,stop,350.0,400.0,4.0,,,,,,,,,cyan,triangle
0.0,8.0,4.0,1.0,5.0,5.0,342.593723000391,3.0,1.0,phase_2,stop,400.0,400.0,3.0,,,,,,,,,orange,diamond
0.0,4.0,4.0,0.0,5.0,5.0,616.6727729996637,3.0,1.0,phase_2,go,350.0,400.0,1.0,,,,,,,,,green,I
0.0,6.0,2.0,1.0,5.0,0.0,0.0,3.0,1.0,phase_2,stop,350.0,400.0,4.0,,,,,,,,,yellow,flipped triangle
0.0,7.0,3.0,1.0,6.0,0.0,0.0,3.0,1.0,phase_2,stop,400.0,400.0,4.0,,,,,,,,,cyan,triangle
0.0,8.0,4.0,1.0,6.0,6.0,608.0408960006025,3.0,1.0,phase_2,go,400.0,450.0,1.0,,,,,,,,,orange,diamond
0.0,8.0,4.0,1.0,6.0,6.0,497.1625029993447,3.0,1.0,phase_2,go,400.0,450.0,1.0,,,,,,,,,orange,diamond
0.0,3.0,3.0,0.0,5.0,5.0,452.9669809999177,3.0,1.0,phase_2,go,400.0,450.0,1.0,,,,,,,,,white,cross
0.0,8.0,4.0,1.0,5.0,5.0,599.2759069995373,3.0,1.0,phase_2,stop,400.0,450.0,3.0,,,,,,,,,orange,diamond
0.0,8.0,4.0,1.0,6.0,6.0,530.9051450003608,3.0,1.0,phase_2,go,350.0,450.0,1.0,,,,,,,,,orange,diamond
0.0,7.0,3.0,1.0,5.0,0.0,0.0,3.0,1.0,phase_2,stop,350.0,450.0,4.0,,,,,,,,,cyan,triangle
0.0,3.0,3.0,0.0,6.0,6.0,556.6102390002925,3.0,1.0,phase_2,go,400.0,450.0,1.0,,,,,,,,,white,cross
0.0,3.0,3.0,0.0,6.0,6.0,423.3279379986925,3.0,1.0,phase_2,go,400.0,450.0,1.0,,,,,,,,,white,cross
0.0,4.0,4.0,0.0,5.0,5.0,601.7044499985786,3.0,1.0,phase_2,go,400.0,450.0,1.0,,,,,,,,,green,I
0.0,8.0,4.0,1.0,6.0,6.0,419.4970469998225,4.0,1.0,phase_2,stop,400.0,450.0,3.0,,,,,,,,,orange,diamond
0.0,6.0,2.0,1.0,5.0,5.0,372.5155159991118,4.0,1.0,phase_2,stop,400.0,400.0,3.0,,,,,,,,,yellow,flipped triangle
0.0,3.0,3.0,0.0,5.0,5.0,1423.081684999488,4.0,1.0,phase_2,go,350.0,400.0,1.0,,,,,,,,,white,cross
0.0,7.0,3.0,1.0,6.0,0.0,0.0,4.0,1.0,phase_2,stop,350.0,400.0,4.0,,,,,,,,,cyan,triangle
0.0,3.0,3.0,0.0,6.0,6.0,354.307219000475,4.0,1.0,phase_2,go,350.0,450.0,1.0,,,,,,,,,white,cross
0.0,5.0,1.0,1.0,5.0,0.0,0.0,4.0,1.0,phase_2,stop,350.0,450.0,4.0,,,,,,,,,blue,square
0.0,6.0,2.0,1.0,6.0,0.0,0.0,4.0,1.0,phase_2,stop,400.0,450.0,4.0,,,,,,,,,yellow,flipped triangle
0.0,6.0,2.0,1.0,5.0,0.0,0.0,4.0,1.0,phase_2,stop,400.0,500.0,4.0,,,,,,,,,yellow,flipped triangle
0.0,2.0,2.0,0.0,6.0,6.0,456.213403998845,4.0,1.0,phase_2,go,450.0,500.0,1.0,,,,,,,,,magenta,hexagon
0.0,8.0,4.0,1.0,6.0,0.0,0.0,4.0,1.0,phase_2,stop,450.0,500.0,4.0,,,,,,,,,orange,diamond
0.0,1.0,1.0,0.0,6.0,6.0,687.0967939994443,4.0,1.0,phase_2,go,450.0,550.0,1.0,,,,,,,,,gray,circle
0.0,1.0,1.0,0.0,5.0,5.0,573.3167850012251,4.0,1.0,phase_2,go,450.0,550.0,1.0,,,,,,,,,gray,circle
0.0,3.0,3.0,0.0,5.0,5.0,956.4978880007402,4.0,1.0,phase_2,go,450.0,550.0,1.0,,,,,,,,,white,cross
0.0,4.0,4.0,0.0,5.0,5.0,606.4558540001599,4.0,1.0,phase_2,go,450.0,550.0,1.0,,,,,,,,,green,I
0.0,2.0,2.0,0.0,5.0,5.0,304.025264998927,4.0,1.0,phase_2,go,450.0,550.0,1.0,,,,,,,,,magenta,hexagon
0.0,6.0,2.0,1.0,5.0,5.0,297.1229279992258,4.0,1.0,phase_2,stop,450.0,550.0,3.0,,,,,,,,,yellow,flipped triangle
0.0,8.0,4.0,1.0,5.0,0.0,0.0,4.0,1.0,phase_2,stop,400.0,550.0,4.0,,,,,,,,,orange,diamond
0.0,7.0,3.0,1.0,6.0,6.0,679.673508999258,4.0,1.0,phase_2,stop,450.0,550.0,3.0,,,,,,,,,cyan,triangle
0.0,7.0,3.0,1.0,5.0,5.0,711.6398329999356,4.0,1.0,phase_2,go,450.0,500.0,1.0,,,,,,,,,cyan,triangle
0.0,5.0,1.0,1.0,5.0,0.0,0.0,4.0,1.0,phase_2,stop,450.0,500.0,4.0,,,,,,,,,blue,square
0.0,3.0,3.0,0.0,5.0,5.0,796.3700579985016,4.0,1.0,phase_2,go,500.0,500.0,1.0,,,,,,,,,white,cross
0.0,6.0,2.0,1.0,6.0,6.0,320.9079329990345,4.0,1.0,phase_2,go,500.0,500.0,1.0,,,,,,,,,yellow,flipped triangle
0.0,4.0,4.0,0.0,6.0,6.0,557.9355259997101,4.0,1.0,phase_2,go,500.0,500.0,1.0,,,,,,,,,green,I
0.0,6.0,2.0,1.0,6.0,6.0,436.4012950009055,4.0,1.0,phase_2,stop,500.0,500.0,3.0,,,,,,,,,yellow,flipped triangle
0.0,2.0,2.0,0.0,5.0,0.0,0.0,4.0,1.0,phase_2,go,500.0,450.0,5.0,,,,,,,,,magenta,hexagon
0.0,4.0,4.0,0.0,5.0,5.0,672.7369580003142,4.0,1.0,phase_2,go,500.0,450.0,1.0,,,,,,,,,green,I
0.0,5.0,1.0,1.0,6.0,0.0,0.0,4.0,1.0,phase_2,stop,500.0,450.0,4.0,,,,,,,,,blue,square
0.0,5.0,1.0,1.0,5.0,0.0,0.0,4.0,1.0,phase_2,stop,500.0,500.0,4.0,,,,,,,,,blue,square
0.0,7.0,3.0,1.0,6.0,6.0,596.9536600005085,4.0,1.0,phase_2,stop,550.0,500.0,3.0,,,,,,,,,cyan,triangle
0.0,1.0,1.0,0.0,6.0,6.0,587.6635650001845,4.0,1.0,phase_2,go,550.0,450.0,1.0,,,,,,,,,gray,circle
0.0,6.0,2.0,1.0,5.0,5.0,759.7570840007393,4.0,1.0,phase_2,stop,550.0,450.0,3.0,,,,,,,,,yellow,flipped triangle
0.0,4.0,4.0,0.0,6.0,6.0,321.8122470007074,4.0,1.0,phase_2,go,500.0,450.0,1.0,,,,,,,,,green,I
0.0,2.0,2.0,0.0,6.0,5.0,37.4862070002564,4.0,1.0,phase_2,go,500.0,450.0,2.0,,,,,,,,,magenta,hexagon
0.0,6.0,2.0,1.0,6.0,5.0,0.194365000425,4.0,1.0,phase_2,stop,500.0,450.0,3.0,,,,,,,,,yellow,flipped triangle
0.0,3.0,3.0,0.0,6.0,5.0,75.4177580001851,4.0,1.0,phase_2,go,500.0,400.0,2.0,,,,,,,,,white,cross
0.0,3.0,3.0,0.0,6.0,6.0,908.4997379995912,4.0,1.0,phase_2,go,500.0,400.0,1.0,,,,,,,,,white,cross
0.0,1.0,1.0,0.0,5.0,5.0,298.6135129995091,5.0,1.0,phase_2,go,500.0,400.0,1.0,,,,,,,,,gray,circle
0.0,8.0,4.0,1.0,6.0,6.0,307.5504640000872,5.0,1.0,phase_2,stop,500.0,400.0,3.0,,,,,,,,,orange,diamond
0.0,7.0,3.0,1.0,5.0,5.0,286.1794630007352,5.0,1.0,phase_2,stop,500.0,350.0,3.0,,,,,,,,,cyan,triangle
0.0,2.0,2.0,0.0,6.0,6.0,513.076547998935,5.0,1.0,phase_2,go,450.0,350.0,1.0,,,,,,,,,magenta,hexagon
0.0,6.0,2.0,1.0,6.0,0.0,0.0,5.0,1.0,phase_2,stop,450.0,350.0,4.0,,,,,,,,,yellow,flipped triangle
0.0,1.0,1.0,0.0,5.0,5.0,660.1708990001498,5.0,1.0,phase_2,go,450.0,400.0,1.0,,,,,,,,,gray,circle
0.0,7.0,3.0,1.0,5.0,5.0,541.1005450005177,5.0,1.0,phase_2,stop,450.0,400.0,3.0,,,,,,,,,cyan,triangle
0.0,3.0,3.0,0.0,6.0,6.0,721.3087099989934,5.0,1.0,phase_2,go,400.0,400.0,1.0,,,,,,,,,white,cross
0.0,8.0,4.0,1.0,6.0,5.0,328.8728219995391,5.0,1.0,phase_2,go,400.0,400.0,2.0,,,,,,,,,orange,diamond
0.0,6.0,2.0,1.0,6.0,6.0,328.2353380000131,5.0,1.0,phase_2,stop,400.0,400.0,3.0,,,,,,,,,yellow,flipped triangle
0.0,1.0,1.0,0.0,5.0,5.0,247.4559299989778,5.0,1.0,phase_2,go,400.0,350.0,1.0,,,,,,,,,gray,circle
0.0,1.0,1.0,0.0,6.0,6.0,308.739924999827,5.0,1.0,phase_2,go,400.0,350.0,1.0,,,,,,,,,gray,circle
0.0,8.0,4.0,1.0,5.0,5.0,463.3970419999969,5.0,1.0,phase_2,stop,400.0,350.0,3.0,,,,,,,,,orange,diamond
0.0,4.0,4.0,0.0,5.0,5.0,479.017229999954,5.0,1.0,phase_2,go,350.0,350.0,1.0,,,,,,,,,green,I
0.0,2.0,2.0,0.0,6.0,6.0,286.3313859998015,5.0,1.0,phase_2,go,350.0,350.0,1.0,,,,,,,,,magenta,hexagon
0.0,1.0,1.0,0.0,6.0,6.0,307.7833000006649,5.0,1.0,phase_2,go,350.0,350.0,1.0,,,,,,,,,gray,circle
0.0,8.0,4.0,1.0,5.0,0.0,0.0,5.0,1.0,phase_2,stop,350.0,350.0,4.0,,,,,,,,,orange,diamond
0.0,4.0,4.0,0.0,5.0,5.0,572.1514649994788,5.0,1.0,phase_2,go,400.0,350.0,1.0,,,,,,,,,green,I
0.0,1.0,1.0,0.0,5.0,5.0,467.876229000467,5.0,1.0,phase_2,go,400.0,350.0,1.0,,,,,,,,,gray,circle
0.0,1.0,1.0,0.0,5.0,5.0,606.2363109995204,5.0,1.0,phase_2,go,400.0,350.0,1.0,,,,,,,,,gray,circle
0.0,8.0,4.0,1.0,5.0,5.0,609.2247710002994,5.0,1.0,phase_2,stop,400.0,350.0,3.0,,,,,,,,,orange,diamond
0.0,3.0,3.0,0.0,6.0,6.0,380.2556360005837,5.0,1.0,phase_2,go,350.0,350.0,1.0,,,,,,,,,white,cross
0.0,4.0,4.0,0.0,5.0,5.0,662.3618049998186,5.0,1.0,phase_2,go,350.0,350.0,1.0,,,,,,,,,green,I
0.0,8.0,4.0,1.0,6.0,6.0,404.855819999284,5.0,1.0,phase_2,stop,350.0,350.0,3.0,,,,,,,,,orange,diamond
0.0,5.0,1.0,1.0,5.0,5.0,642.1110430001136,5.0,1.0,phase_2,go,350.0,300.0,1.0,,,,,,,,,blue,square
0.0,3.0,3.0,0.0,6.0,6.0,386.5675569995801,5.0,1.0,phase_2,go,350.0,300.0,1.0,,,,,,,,,white,cross
0.0,3.0,3.0,0.0,5.0,5.0,659.043527999529,5.0,1.0,phase_2,go,350.0,300.0,1.0,,,,,,,,,white,cross
0.0,7.0,3.0,1.0,5.0,5.0,423.4715779984981,5.0,1.0,phase_2,stop,350.0,300.0,3.0,,,,,,,,,cyan,triangle
0.0,2.0,2.0,0.0,5.0,5.0,536.1853099984728,5.0,1.0,phase_2,go,300.0,300.0,1.0,,,,,,,,,magenta,hexagon
0.0,4.0,4.0,0.0,5.0,5.0,312.555438000345,5.0,1.0,phase_2,go,300.0,300.0,1.0,,,,,,,,,green,I
0.0,3.0,3.0,0.0,5.0,5.0,323.7080050002987,5.0,1.0,phase_2,go,300.0,300.0,1.0,,,,,,,,,white,cross
0.0,2.0,2.0,0.0,6.0,6.0,288.764214999901,5.0,1.0,phase_2,go,300.0,300.0,1.0,,,,,,,,,magenta,hexagon
0.0,6.0,2.0,1.0,5.0,5.0,359.6037639999849,5.0,1.0,phase_2,go,300.0,300.0,1.0,,,,,,,,,yellow,flipped triangle
0.0,4.0,4.0,0.0,5.0,5.0,303.8691580004524,5.0,1.0,phase_2,go,300.0,300.0,1.0,,,,,,,,,green,I
0.0,8.0,4.0,1.0,5.0,5.0,347.2362889988289,5.0,1.0,phase_2,stop,300.0,300.0,3.0,,,,,,,,,orange,diamond
0.0,2.0,2.0,0.0,5.0,5.0,325.9278009991249,5.0,1.0,phase_2,go,250.0,300.0,1.0,,,,,,,,,magenta,hexagon
0.0,7.0,3.0,1.0,5.0,5.0,315.4044160000921,6.0,1.0,phase_2,stop,250.0,300.0,3.0,,,,,,,,,cyan,triangle
0.0,1.0,1.0,0.0,6.0,6.0,576.8944390001707,6.0,1.0,phase_2,go,200.0,300.0,1.0,,,,,,,,,gray,circle
0.0,2.0,2.0,0.0,5.0,5.0,428.7709799991717,6.0,1.0,phase_2,go,200.0,300.0,1.0,,,,,,,,,magenta,hexagon
0.0,5.0,1.0,1.0,5.0,5.0,377.5766170001589,6.0,1.0,phase_2,stop,200.0,300.0,3.0,,,,,,,,,blue,square
0.0,8.0,4.0,1.0,5.0,5.0,352.184863999355,6.0,1.0,phase_2,stop,150.0,300.0,3.0,,,,,,,,,orange,diamond
0.0,8.0,4.0,1.0,5.0,0.0,0.0,6.0,1.0,phase_2,stop,100.0,300.0,4.0,,,,,,,,,orange,diamond
0.0,6.0,2.0,1.0,5.0,5.0,514.5423409994692,6.0,1.0,phase_2,go,150.0,300.0,1.0,,,,,,,,,yellow,flipped triangle
0.0,5.0,1.0,1.0,6.0,0.0,0.0,6.0,1.0,phase_2,stop,150.0,300.0,4.0,,,,,,,,,blue,square
0.0,2.0,2.0,0.0,6.0,6.0,460.7388959993841,6.0,1.0,phase_2,go,150.0,350.0,1.0,,,,,,,,,magenta,hexagon
0.0,4.0,4.0,0.0,5.0,5.0,636.2355309993291,6.0,1.0,phase_2,go,150.0,350.0,1.0,,,,,,,,,green,I
0.0,5.0,1.0,1.0,5.0,5.0,352.9921560002549,6.0,1.0,phase_2,go,150.0,350.0,1.0,,,,,,,,,blue,square
0.0,6.0,2.0,1.0,5.0,0.0,0.0,6.0,1.0,phase_2,stop,150.0,350.0,4.0,,,,,,,,,yellow,flipped triangle
0.0,2.0,2.0,0.0,6.0,6.0,1040.1707319997513,6.0,1.0,phase_2,go,200.0,350.0,1.0,,,,,,,,,magenta,hexagon
0.0,8.0,4.0,1.0,6.0,6.0,460.0179299995943,6.0,1.0,phase_2,stop,200.0,350.0,3.0,,,,,,,,,orange,diamond
0.0,5.0,1.0,1.0,6.0,0.0,0.0,6.0,1.0,phase_2,stop,200.0,300.0,4.0,,,,,,,,,blue,square
0.0,7.0,3.0,1.0,6.0,6.0,356.79207999965,6.0,1.0,phase_2,go,200.0,350.0,1.0,,,,,,,,,cyan,triangle
0.0,6.0,2.0,1.0,5.0,0.0,0.0,6.0,1.0,phase_2,stop,200.0,350.0,4.0,,,,,,,,,yellow,flipped triangle
0.0,1.0,1.0,0.0,6.0,6.0,459.0963789996749,6.0,1.0,phase_2,go,250.0,350.0,1.0,,,,,,,,,gray,circle
0.0,4.0,4.0,0.0,5.0,5.0,385.1720790007675,6.0,1.0,phase_2,go,250.0,350.0,1.0,,,,,,,,,green,I
0.0,8.0,4.0,1.0,5.0,5.0,767.9842769994139,6.0,1.0,phase_2,stop,250.0,350.0,3.0,,,,,,,,,orange,diamond
0.0,7.0,3.0,1.0,5.0,0.0,0.0,6.0,1.0,phase_2,stop,200.0,350.0,4.0,,,,,,,,,cyan,triangle
0.0,8.0,4.0,1.0,5.0,0.0,0.0,6.0,1.0,phase_2,stop,250.0,350.0,4.0,,,,,,,,,orange,diamond
0.0,1.0,1.0,0.0,6.0,6.0,532.5780290004332,6.0,1.0,phase_2,go,300.0,350.0,1.0,,,,,,,,,gray,circle
0.0,8.0,4.0,1.0,6.0,0.0,0.0,6.0,1.0,phase_2,stop,300.0,350.0,4.0,,,,,,,,,orange,diamond
0.0,1.0,1.0,0.0,6.0,6.0,768.0873760000395,6.0,1.0,phase_2,go,300.0,400.0,1.0,,,,,,,,,gray,circle
0.0,6.0,2.0,1.0,5.0,5.0,314.9591950004833,6.0,1.0,phase_2,stop,300.0,400.0,3.0,,,,,,,,,yellow,flipped triangle
0.0,6.0,2.0,1.0,5.0,0.0,0.0,6.0,1.0,phase_2,stop,250.0,400.0,4.0,,,,,,,,,yellow,flipped triangle
0.0,4.0,4.0,0.0,6.0,6.0,446.9692610000493,6.0,1.0,phase_2,go,300.0,400.0,1.0,,,,,,,,,green,I
0.0,2.0,2.0,0.0,6.0,6.0,366.4807549994293,6.0,1.0,phase_2,go,300.0,400.0,1.0,,,,,,,,,magenta,hexagon
0.0,7.0,3.0,1.0,6.0,6.0,495.5043720001413,6.0,1.0,phase_2,stop,300.0,400.0,3.0,,,,,,,,,cyan,triangle
0.0,4.0,4.0,0.0,6.0,6.0,761.8495030001213,6.0,1.0,phase_2,go,300.0,350.0,1.0,,,,,,,,,green,I
0.0,5.0,1.0,1.0,6.0,6.0,382.4276220002502,6.0,1.0,phase_2,go,300.0,350.0,1.0,,,,,,,,,blue,square
0.0,6.0,2.0,1.0,6.0,6.0,460.5151079995266,6.0,1.0,phase_2,stop,300.0,350.0,3.0,,,,,,,,,yellow,flipped triangle
0.0,8.0,4.0,1.0,5.0,5.0,486.7991729988716,6.0,1.0,phase_2,stop,300.0,300.0,3.0,,,,,,,,,orange,diamond
0.0,1.0,1.0,0.0,6.0,6.0,698.0844650006475,6.0,1.0,phase_2,go,250.0,300.0,1.0,,,,,,,,,gray,circle
0.0,4.0,4.0,0.0,5.0,5.0,679.9648630003503,6.0,1.0,phase_2,go,250.0,300.0,1.0,,,,,,,,,green,I
0.0,4.0,4.0,0.0,5.0,5.0,500.987122000879,7.0,1.0,phase_2,go,250.0,300.0,1.0,,,,,,,,,green,I
0.0,7.0,3.0,1.0,6.0,0.0,0.0,7.0,1.0,phase_2,stop,250.0,300.0,4.0,,,,,,,,,cyan,triangle
0.0,6.0,2.0,1.0,6.0,6.0,336.5724579998641,7.0,1.0,phase_2,stop,250.0,350.0,3.0,,,,,,,,,yellow,flipped triangle
0.0,5.0,1.0,1.0,6.0,6.0,269.8521760012227,7.0,1.0,phase_2,stop,250.0,300.0,3.0,,,,,,,,,blue,square
0.0,5.0,1.0,1.0,6.0,6.0,349.7233420002885,7.0,1.0,phase_2,go,250.0,250.0,1.0,,,,,,,,,blue,square
0.0,5.0,1.0,1.0,6.0,6.0,392.070046000299,7.0,1.0,phase_2,stop,250.0,250.0,3.0,,,,,,,,,blue,square
0.0,2.0,2.0,0.0,6.0,6.0,496.9028710002021,7.0,1.0,phase_2,go,250.0,200.0,1.0,,,,,,,,,magenta,hexagon
0.0,8.0,4.0,1.0,6.0,0.0,0.0,7.0,1.0,phase_2,stop,250.0,200.0,4.0,,,,,,,,,orange,diamond
0.0,8.0,4.0,1.0,5.0,5.0,385.8507639997697,7.0,1.0,phase_2,go,250.0,250.0,1.0,,,,,,,,,orange,diamond
0.0,3.0,3.0,0.0,5.0,5.0,399.043604000326,7.0,1.0,phase_2,go,250.0,250.0,1.0,,,,,,,,,white,cross
0.0,5.0,1.0,1.0,6.0,6.0,306.5861320010299,7.0,1.0,phase_2,stop,250.0,250.0,3.0,,,,,,,,,blue,square
0.0,1.0,1.0,0.0,5.0,5.0,588.9611410002544,7.0,1.0,phase_2,go,250.0,200.0,1.0,,,,,,,,,gray,circle
0.0,3.0,3.0,0.0,6.0,6.0,345.0188869992416,7.0,1.0,phase_2,go,250.0,200.0,1.0,,,,,,,,,white,cross
0.0,7.0,3.0,1.0,5.0,0.0,0.0,7.0,1.0,phase_2,stop,250.0,200.0,4.0,,,,,,,,,cyan,triangle
0.0,2.0,2.0,0.0,5.0,5.0,594.8850559998391,7.0,1.0,phase_2,go,300.0,200.0,1.0,,,,,,,,,magenta,hexagon
0.0,8.0,4.0,1.0,6.0,6.0,714.7469610008557,7.0,1.0,phase_2,go,300.0,200.0,1.0,,,,,,,,,orange,diamond
0.0,2.0,2.0,0.0,5.0,5.0,516.3907899986953,7.0,1.0,phase_2,go,300.0,200.0,1.0,,,,,,,,,magenta,hexagon
0.0,2.0,2.0,0.0,5.0,5.0,468.831678999777,7.0,1.0,phase_2,go,300.0,200.0,1.0,,,,,,,,,magenta,hexagon
0.0,5.0,1.0,1.0,5.0,0.0,0.0,7.0,1.0,phase_2,stop,300.0,200.0,4.0,,,,,,,,,blue,square
0.0,3.0,3.0,0.0,5.0,5.0,462.4530469991441,7.0,1.0,phase_2,go,350.0,200.0,1.0,,,,,,,,,white,cross
0.0,4.0,4.0,0.0,6.0,6.0,584.3573080001079,7.0,1.0,phase_2,go,350.0,200.0,1.0,,,,,,,,,green,I
0.0,5.0,1.0,1.0,5.0,5.0,339.9375549997785,7.0,1.0,phase_2,stop,350.0,200.0,3.0,,,,,,,,,blue,square
0.0,4.0,4.0,0.0,5.0,5.0,575.8233870001277,7.0,1.0,phase_2,go,300.0,200.0,1.0,,,,,,,,,green,I
0.0,5.0,1.0,1.0,5.0,0.0,0.0,7.0,1.0,phase_2,stop,300.0,200.0,4.0,,,,,,,,,blue,square
0.0,3.0,3.0,0.0,5.0,5.0,614.2634900006669,7.0,1.0,phase_2,go,350.0,200.0,1.0,,,,,,,,,white,cross
0.0,1.0,1.0,0.0,5.0,5.0,625.7163880000007,7.0,1.0,phase_2,go,350.0,200.0,1.0,,,,,,,,,gray,circle
0.0,3.0,3.0,0.0,5.0,5.0,477.1085530010168,7.0,1.0,phase_2,go,350.0,200.0,1.0,,,,,,,,,white,cross
0.0,8.0,4.0,1.0,5.0,5.0,324.4576830002188,7.0,1.0,phase_2,stop,350.0,200.0,3.0,,,,,,,,,orange,diamond
0.0,1.0,1.0,0.0,6.0,6.0,366.174234999562,7.0,1.0,phase_2,go,300.0,200.0,1.0,,,,,,,,,gray,circle
0.0,1.0,1.0,0.0,6.0,6.0,572.5359009993554,7.0,1.0,phase_2,go,300.0,200.0,1.0,,,,,,,,,gray,circle
0.0,8.0,4.0,1.0,5.0,0.0,0.0,7.0,1.0,phase_2,stop,300.0,200.0,4.0,,,,,,,,,orange,diamond
0.0,7.0,3.0,1.0,5.0,5.0,605.3064970001287,7.0,1.0,phase_2,go,350.0,200.0,1.0,,,,,,,,,cyan,triangle
0.0,5.0,1.0,1.0,6.0,6.0,820.7914040012838,7.0,1.0,phase_2,go,350.0,200.0,1.0,,,,,,,,,blue,square
0.0,2.0,2.0,0.0,5.0,5.0,317.6610059999802,7.0,1.0,phase_2,go,350.0,200.0,1.0,,,,,,,,,magenta,hexagon
0.0,2.0,2.0,0.0,6.0,6.0,314.7059059992898,7.0,1.0,phase_2,go,350.0,200.0,1.0,,,,,,,,,magenta,hexagon
0.0,8.0,4.0,1.0,6.0,6.0,304.852489998666,7.0,1.0,phase_2,stop,350.0,200.0,3.0,,,,,,,,,orange,diamond
0.0,1.0,1.0,0.0,6.0,2.0,823.7737599993125,8.0,1.0,phase_2,go,350.0,150.0,2.0,,,,,,,,,gray,circle
0.0,1.0,1.0,0.0,5.0,5.0,261.9071079989226,8.0,1.0,phase_2,go,350.0,150.0,1.0,,,,,,,,,gray,circle
0.0,3.0,3.0,0.0,5.0,5.0,321.0494549985014,8.0,1.0,phase_2,go,350.0,150.0,1.0,,,,,,,,,white,cross
0.0,2.0,2.0,0.0,6.0,6.0,275.116054001046,8.0,1.0,phase_2,go,350.0,150.0,1.0,,,,,,,,,magenta,hexagon
0.0,1.0,1.0,0.0,6.0,6.0,356.403670999498,8.0,1.0,phase_2,go,350.0,150.0,1.0,,,,,,,,,gray,circle
0.0,6.0,2.0,1.0,6.0,6.0,343.9244029996189,8.0,1.0,phase_2,go,350.0,150.0,1.0,,,,,,,,,yellow,flipped triangle
0.0,1.0,1.0,0.0,5.0,5.0,332.9167270003381,8.0,1.0,phase_2,go,350.0,150.0,1.0,,,,,,,,,gray,circle
0.0,5.0,1.0,1.0,6.0,6.0,245.0833049988432,8.0,1.0,phase_2,stop,350.0,150.0,3.0,,,,,,,,,blue,square
0.0,6.0,2.0,1.0,5.0,5.0,372.7893399991444,8.0,1.0,phase_2,go,350.0,100.0,1.0,,,,,,,,,yellow,flipped triangle
0.0,5.0,1.0,1.0,6.0,0.0,0.0,8.0,1.0,phase_2,stop,350.0,100.0,4.0,,,,,,,,,blue,square
0.0,1.0,1.0,0.0,5.0,5.0,315.6613780010957,8.0,1.0,phase_2,go,350.0,150.0,1.0,,,,,,,,,gray,circle
0.0,2.0,2.0,0.0,5.0,5.0,326.4223739988665,8.0,1.0,phase_2,go,350.0,150.0,1.0,,,,,,,,,magenta,hexagon
0.0,5.0,1.0,1.0,5.0,5.0,443.9273990010406,8.0,1.0,phase_2,stop,350.0,150.0,3.0,,,,,,,,,blue,square
0.0,8.0,4.0,1.0,6.0,0.0,0.0,8.0,1.0,phase_2,stop,300.0,150.0,4.0,,,,,,,,,orange,diamond
0.0,4.0,4.0,0.0,6.0,6.0,340.2938639992499,8.0,1.0,phase_2,go,300.0,200.0,1.0,,,,,,,,,green,I
0.0,5.0,1.0,1.0,5.0,5.0,442.0935959988128,8.0,1.0,phase_2,stop,300.0,200.0,3.0,,,,,,,,,blue,square
0.0,1.0,1.0,0.0,5.0,5.0,522.0041350003157,8.0,1.0,phase_2,go,250.0,200.0,1.0,,,,,,,,,gray,circle
0.0,5.0,1.0,1.0,5.0,5.0,312.139797000782,8.0,1.0,phase_2,stop,250.0,200.0,3.0,,,,,,,,,blue,square
0.0,6.0,2.0,1.0,5.0,0.0,0.0,8.0,1.0,phase_2,stop,200.0,200.0,4.0,,,,,,,,,yellow,flipped triangle
0.0,4.0,4.0,0.0,5.0,5.0,682.8645059995324,8.0,1.0,phase_2,go,250.0,200.0,1.0,,,,,,,,,green,I
0.0,6.0,2.0,1.0,6.0,6.0,334.3410819998098,8.0,1.0,phase_2,stop,250.0,200.0,3.0,,,,,,,,,yellow,flipped triangle
0.0,2.0,2.0,0.0,6.0,6.0,604.4846380009403,8.0,1.0,phase_2,go,250.0,150.0,1.0,,,,,,,,,magenta,hexagon
0.0,4.0,4.0,0.0,6.0,6.0,472.5868789992091,8.0,1.0,phase_2,go,250.0,150.0,1.0,,,,,,,,,green,I
0.0,1.0,1.0,0.0,6.0,6.0,407.6965809999819,8.0,1.0,phase_2,go,250.0,150.0,1.0,,,,,,,,,gray,circle
0.0,7.0,3.0,1.0,5.0,0.0,0.0,8.0,1.0,phase_2,stop,250.0,150.0,4.0,,,,,,,,,cyan,triangle
0.0,4.0,4.0,0.0,6.0,6.0,544.3544239988114,8.0,1.0,phase_2,go,300.0,150.0,1.0,,,,,,,,,green,I
0.0,7.0,3.0,1.0,6.0,0.0,0.0,8.0,1.0,phase_2,stop,300.0,150.0,4.0,,,,,,,,,cyan,triangle
0.0,6.0,2.0,1.0,6.0,0.0,0.0,8.0,1.0,phase_2,stop,300.0,200.0,4.0,,,,,,,,,yellow,flipped triangle
0.0,7.0,3.0,1.0,6.0,0.0,0.0,8.0,1.0,phase_2,stop,300.0,250.0,4.0,,,,,,,,,cyan,triangle
0.0,2.0,2.0,0.0,5.0,5.0,443.0065269989427,8.0,1.0,phase_2,go,300.0,300.0,1.0,,,,,,,,,magenta,hexagon
0.0,2.0,2.0,0.0,6.0,6.0,274.4990139999572,8.0,1.0,phase_2,go,300.0,300.0,1.0,,,,,,,,,magenta,hexagon
0.0,5.0,1.0,1.0,6.0,0.0,0.0,8.0,1.0,phase_2,stop,300.0,300.0,4.0,,,,,,,,,blue,square
0.0,2.0,2.0,0.0,5.0,5.0,479.9590620004892,8.0,1.0,phase_2,go,300.0,350.0,1.0,,,,,,,,,magenta,hexagon
0.0,8.0,4.0,1.0,5.0,0.0,0.0,8.0,1.0,phase_2,stop,300.0,350.0,4.0,,,,,,,,,orange,diamond
0.0,5.0,1.0,1.0,5.0,5.0,312.0500500008347,8.0,1.0,phase_2,go,350.0,350.0,1.0,,,,,,,,,blue,square
0.0,5.0,1.0,1.0,6.0,6.0,357.8765349993773,8.0,1.0,phase_2,go,350.0,350.0,1.0,,,,,,,,,blue,square
0.0,5.0,1.0,1.0,7.0,3.0,1240.3637699999308,1.0,1.0,phase_3,,,,,216.0,4.0,162.0,108.0,216.0,270.0,54.0,324.0,blue,square
0.0,1.0,1.0,0.0,7.0,4.0,1169.7901539999975,1.0,1.0,phase_3,,,,,68.0,2.0,34.0,136.0,170.0,68.0,204.0,102.0,gray,circle
0.0,2.0,2.0,0.0,7.0,5.0,834.6206940000229,1.0,1.0,phase_3,,,,,102.0,3.0,170.0,136.0,204.0,68.0,102.0,34.0,magenta,hexagon
0.0,6.0,2.0,1.0,7.0,2.0,665.0037629999588,1.0,1.0,phase_3,,,,,220.0,5.0,88.0,220.0,44.0,264.0,176.0,132.0,yellow,flipped triangle
0.0,5.0,1.0,1.0,7.0,3.0,1948.4979269998348,1.0,1.0,phase_3,,,,,44.0,1.0,220.0,176.0,44.0,132.0,88.0,264.0,blue,square
0.0,7.0,3.0,1.0,7.0,5.0,1162.6333259998771,1.0,1.0,phase_3,,,,,245.0,5.0,294.0,196.0,49.0,98.0,245.0,147.0,cyan,triangle
0.0,2.0,2.0,0.0,7.0,5.0,1444.521270999985,1.0,1.0,phase_3,,,,,132.0,3.0,44.0,176.0,220.0,264.0,132.0,88.0,magenta,hexagon
0.0,4.0,4.0,0.0,7.0,2.0,444.97801600005,1.0,1.0,phase_3,,,,,294.0,6.0,147.0,294.0,196.0,49.0,245.0,98.0,green,I
0.0,8.0,4.0,1.0,7.0,5.0,481.5448939998532,1.0,1.0,phase_3,,,,,156.0,4.0,195.0,117.0,234.0,39.0,156.0,78.0,orange,diamond
0.0,2.0,2.0,0.0,7.0,1.0,504.6094179999727,1.0,1.0,phase_3,,,,,270.0,5.0,270.0,216.0,324.0,54.0,108.0,162.0,magenta,hexagon
0.0,7.0,3.0,1.0,7.0,2.0,536.943613999938,1.0,1.0,phase_3,,,,,136.0,4.0,102.0,136.0,68.0,170.0,34.0,204.0,cyan,triangle
0.0,1.0,1.0,0.0,7.0,5.0,428.7706790000811,1.0,1.0,phase_3,,,,,220.0,5.0,264.0,88.0,176.0,44.0,220.0,132.0,gray,circle
0.0,8.0,4.0,1.0,7.0,1.0,397.1546540001327,1.0,1.0,phase_3,,,,,39.0,1.0,39.0,195.0,117.0,234.0,78.0,156.0,orange,diamond
0.0,5.0,1.0,1.0,7.0,6.0,337.8561299998637,1.0,1.0,phase_3,,,,,102.0,3.0,34.0,68.0,170.0,136.0,204.0,102.0,blue,square
0.0,5.0,1.0,1.0,7.0,2.0,308.70424800014,1.0,1.0,phase_3,,,,,220.0,5.0,132.0,220.0,44.0,176.0,88.0,264.0,blue,square
0.0,4.0,4.0,0.0,7.0,5.0,375.5380990000958,1.0,1.0,phase_3,,,,,204.0,6.0,102.0,34.0,136.0,170.0,204.0,68.0,green,I
0.0,7.0,3.0,1.0,7.0,2.0,1107.5018890001047,1.0,1.0,phase_3,,,,,147.0,3.0,196.0,147.0,49.0,245.0,294.0,98.0,cyan,triangle
0.0,6.0,2.0,1.0,7.0,5.0,255.26685899990298,1.0,1.0,phase_3,,,,,108.0,2.0,216.0,270.0,324.0,54.0,108.0,162.0,yellow,flipped triangle
0.0,2.0,2.0,0.0,7.0,6.0,433.5669199999756,1.0,1.0,phase_3,,,,,147.0,3.0,49.0,294.0,196.0,98.0,245.0,147.0,magenta,hexagon
0.0,8.0,4.0,1.0,7.0,1.0,1694.266065999955,1.0,1.0,phase_3,,,,,264.0,6.0,264.0,88.0,176.0,220.0,44.0,132.0,orange,diamond
0.0,3.0,3.0,0.0,7.0,5.0,1270.5464579998988,2.0,1.0,phase_3,,,,,196.0,4.0,294.0,147.0,98.0,245.0,196.0,49.0,white,cross
0.0,3.0,3.0,0.0,7.0,1.0,316.5153570000711,2.0,1.0,phase_3,,,,,195.0,5.0,195.0,156.0,39.0,78.0,117.0,234.0,white,cross
0.0,1.0,1.0,0.0,7.0,5.0,249.1230619998532,2.0,1.0,phase_3,,,,,170.0,5.0,68.0,102.0,136.0,204.0,170.0,34.0,gray,circle
0.0,8.0,4.0,1.0,7.0,4.0,726.4449480001076,2.0,1.0,phase_3,,,,,170.0,5.0,204.0,102.0,34.0,170.0,68.0,136.0,orange,diamond
0.0,5.0,1.0,1.0,7.0,6.0,1807.90828399995,2.0,1.0,phase_3,,,,,98.0,2.0,245.0,294.0,196.0,147.0,49.0,98.0,blue,square
0.0,3.0,3.0,0.0,7.0,2.0,635.05831700013,2.0,1.0,phase_3,,,,,88.0,2.0,264.0,88.0,176.0,44.0,220.0,132.0,white,cross
0.0,5.0,1.0,1.0,7.0,1.0,1873.3591079999317,2.0,1.0,phase_3,,,,,195.0,5.0,195.0,117.0,39.0,78.0,234.0,156.0,blue,square
0.0,8.0,4.0,1.0,7.0,6.0,648.4268699998665,2.0,1.0,phase_3,,,,,102.0,3.0,34.0,68.0,136.0,204.0,170.0,102.0,orange,diamond
0.0,5.0,1.0,1.0,7.0,5.0,301.055050000059,2.0,1.0,phase_3,,,,,34.0,1.0,68.0,170.0,136.0,102.0,34.0,204.0,blue,square
0.0,3.0,3.0,0.0,7.0,4.0,731.2789410000278,2.0,1.0,phase_3,,,,,54.0,1.0,270.0,216.0,108.0,54.0,324.0,162.0,white,cross
0.0,1.0,1.0,0.0,7.0,6.0,956.1023960000056,2.0,1.0,phase_3,,,,,147.0,3.0,245.0,196.0,49.0,294.0,98.0,147.0,gray,circle
0.0,6.0,2.0,1.0,7.0,4.0,869.9818760001108,2.0,1.0,phase_3,,,,,176.0,4.0,264.0,44.0,220.0,176.0,88.0,132.0,yellow,flipped triangle
0.0,6.0,2.0,1.0,7.0,4.0,1354.876977999993,2.0,1.0,phase_3,,,,,147.0,3.0,245.0,196.0,49.0,147.0,294.0,98.0,yellow,flipped triangle
0.0,1.0,1.0,0.0,7.0,2.0,1400.8295670000734,2.0,1.0,phase_3,,,,,156.0,4.0,39.0,156.0,234.0,195.0,78.0,117.0,gray,circle
0.0,3.0,3.0,0.0,7.0,5.0,1402.3133339999276,2.0,1.0,phase_3,,,,,54.0,1.0,324.0,162.0,216.0,270.0,54.0,108.0,white,cross
0.0,7.0,3.0,1.0,7.0,3.0,758.8084260000869,2.0,1.0,phase_3,,,,,270.0,5.0,216.0,54.0,270.0,324.0,162.0,108.0,cyan,triangle
0.0,8.0,4.0,1.0,7.0,3.0,2751.3726090001,2.0,1.0,phase_3,,,,,196.0,4.0,294.0,245.0,196.0,147.0,49.0,98.0,orange,diamond
0.0,7.0,3.0,1.0,7.0,4.0,1032.1073330001127,2.0,1.0,phase_3,,,,,34.0,1.0,204.0,136.0,68.0,34.0,170.0,102.0,cyan,triangle
0.0,3.0,3.0,0.0,7.0,2.0,2113.6121989998173,2.0,1.0,phase_3,,,,,34.0,1.0,68.0,34.0,136.0,102.0,204.0,170.0,white,cross
0.0,4.0,4.0,0.0,7.0,4.0,1328.141880999965,2.0,1.0,phase_3,,,,,324.0,6.0,270.0,54.0,216.0,324.0,162.0,108.0,green,I
0.0,2.0,2.0,0.0,7.0,4.0,1069.3765890000575,3.0,1.0,phase_3,,,,,44.0,1.0,264.0,220.0,176.0,44.0,132.0,88.0,magenta,hexagon
0.0,2.0,2.0,0.0,7.0,3.0,1417.7662849999706,3.0,1.0,phase_3,,,,,195.0,5.0,39.0,78.0,195.0,234.0,117.0,156.0,magenta,hexagon
0.0,6.0,2.0,1.0,7.0,6.0,1545.4379159998552,3.0,1.0,phase_3,,,,,136.0,4.0,102.0,34.0,204.0,170.0,68.0,136.0,yellow,flipped triangle
0.0,7.0,3.0,1.0,7.0,1.0,535.5688129998271,3.0,1.0,phase_3,,,,,117.0,3.0,117.0,78.0,234.0,39.0,195.0,156.0,cyan,triangle
0.0,7.0,3.0,1.0,7.0,5.0,1916.3599020000677,3.0,1.0,phase_3,,,,,176.0,4.0,220.0,132.0,264.0,44.0,176.0,88.0,cyan,triangle
0.0,2.0,2.0,0.0,7.0,5.0,1031.3694270000724,3.0,1.0,phase_3,,,,,68.0,2.0,170.0,102.0,136.0,204.0,68.0,34.0,magenta,hexagon
0.0,6.0,2.0,1.0,7.0,4.0,1547.280118999879,3.0,1.0,phase_3,,,,,156.0,4.0,195.0,117.0,39.0,156.0,234.0,78.0,yellow,flipped triangle
0.0,3.0,3.0,0.0,7.0,1.0,278.3052849999876,3.0,1.0,phase_3,,,,,34.0,1.0,34.0,68.0,136.0,204.0,170.0,102.0,white,cross
0.0,6.0,2.0,1.0,7.0,5.0,0.1945070000601,3.0,1.0,phase_3,,,,,108.0,2.0,54.0,162.0,216.0,270.0,108.0,324.0,yellow,flipped triangle
0.0,6.0,2.0,1.0,7.0,5.0,808.4063140001945,3.0,1.0,phase_3,,,,,34.0,1.0,170.0,102.0,68.0,136.0,34.0,204.0,yellow,flipped triangle
0.0,4.0,4.0,0.0,7.0,3.0,1925.4228360000525,3.0,1.0,phase_3,,,,,78.0,2.0,195.0,39.0,78.0,117.0,156.0,234.0,green,I
0.0,1.0,1.0,0.0,7.0,4.0,1353.3910639998794,3.0,1.0,phase_3,,,,,324.0,6.0,216.0,108.0,270.0,324.0,54.0,162.0,gray,circle
0.0,3.0,3.0,0.0,7.0,3.0,2275.1936080001087,3.0,1.0,phase_3,,,,,98.0,2.0,49.0,294.0,98.0,196.0,245.0,147.0,white,cross
0.0,4.0,4.0,0.0,7.0,5.0,1205.76820999986,3.0,1.0,phase_3,,,,,78.0,2.0,156.0,117.0,234.0,195.0,78.0,39.0,green,I
0.0,5.0,1.0,1.0,7.0,4.0,1106.4456909998626,3.0,1.0,phase_3,,,,,270.0,5.0,162.0,216.0,108.0,270.0,54.0,324.0,blue,square
0.0,5.0,1.0,1.0,7.0,3.0,1074.2784080000547,3.0,1.0,phase_3,,,,,98.0,2.0,294.0,49.0,98.0,147.0,245.0,196.0,blue,square
0.0,8.0,4.0,1.0,7.0,3.0,1096.4305330001023,3.0,1.0,phase_3,,,,,176.0,4.0,132.0,44.0,176.0,88.0,220.0,264.0,orange,diamond
0.0,4.0,4.0,0.0,7.0,3.0,964.6699570000692,3.0,1.0,phase_3,,,,,270.0,5.0,216.0,162.0,270.0,54.0,324.0,108.0,green,I
0.0,1.0,1.0,0.0,7.0,6.0,1595.5403630000546,3.0,1.0,phase_3,,,,,156.0,4.0,117.0,234.0,39.0,78.0,195.0,156.0,gray,circle
0.0,2.0,2.0,0.0,7.0,3.0,1362.7418440000838,3.0,1.0,phase_3,,,,,156.0,4.0,234.0,195.0,156.0,39.0,117.0,78.0,magenta,hexagon
0.0,3.0,3.0,0.0,7.0,5.0,2662.0476969999345,4.0,1.0,phase_3,,,,,132.0,3.0,176.0,220.0,88.0,44.0,132.0,264.0,white,cross
0.0,8.0,4.0,1.0,7.0,4.0,1665.118055999983,4.0,1.0,phase_3,,,,,216.0,4.0,270.0,54.0,324.0,216.0,108.0,162.0,orange,diamond
0.0,4.0,4.0,0.0,7.0,1.0,1752.4204720000398,4.0,1.0,phase_3,,,,,136.0,4.0,136.0,102.0,68.0,204.0,170.0,34.0,green,I
0.0,4.0,4.0,0.0,7.0,6.0,1318.4823340000094,4.0,1.0,phase_3,,,,,88.0,2.0,220.0,264.0,44.0,176.0,132.0,88.0,green,I
0.0,8.0,4.0,1.0,7.0,2.0,1623.2142750000094,4.0,1.0,phase_3,,,,,162.0,3.0,270.0,162.0,324.0,54.0,108.0,216.0,orange,diamond
0.0,4.0,4.0,0.0,7.0,5.0,1159.0635530001236,4.0,1.0,phase_3,,,,,49.0,1.0,245.0,147.0,294.0,196.0,49.0,98.0,green,I
0.0,3.0,3.0,0.0,7.0,2.0,1422.741950000045,4.0,1.0,phase_3,,,,,195.0,5.0,39.0,195.0,234.0,156.0,78.0,117.0,white,cross
0.0,7.0,3.0,1.0,7.0,5.0,453.0045120000068,4.0,1.0,phase_3,,,,,264.0,6.0,132.0,220.0,88.0,176.0,264.0,44.0,cyan,triangle
0.0,4.0,4.0,0.0,7.0,1.0,1815.8443960001025,4.0,1.0,phase_3,,,,,132.0,3.0,132.0,176.0,220.0,44.0,88.0,264.0,green,I
0.0,7.0,3.0,1.0,7.0,4.0,1343.6304679999012,4.0,1.0,phase_3,,,,,195.0,5.0,156.0,78.0,117.0,195.0,234.0,39.0,cyan,triangle
0.0,5.0,1.0,1.0,7.0,2.0,605.7033790000332,4.0,1.0,phase_3,,,,,156.0,4.0,195.0,156.0,78.0,234.0,39.0,117.0,blue,square
0.0,1.0,1.0,0.0,7.0,3.0,1165.5858250001074,4.0,1.0,phase_3,,,,,147.0,3.0,98.0,196.0,147.0,49.0,245.0,294.0,gray,circle
0.0,1.0,1.0,0.0,7.0,6.0,721.2696760000199,4.0,1.0,phase_3,,,,,108.0,2.0,270.0,216.0,324.0,162.0,54.0,108.0,gray,circle
0.0,2.0,2.0,0.0,7.0,1.0,574.833389000105,4.0,1.0,phase_3,,,,,108.0,2.0,108.0,270.0,162.0,54.0,324.0,216.0,magenta,hexagon
0.0,2.0,2.0,0.0,7.0,6.0,573.4796639999331,4.0,1.0,phase_3,,,,,147.0,3.0,98.0,294.0,245.0,196.0,49.0,147.0,magenta,hexagon
0.0,1.0,1.0,0.0,7.0,6.0,1273.8301009999304,4.0,1.0,phase_3,,,,,176.0,4.0,220.0,44.0,264.0,132.0,88.0,176.0,gray,circle
0.0,6.0,2.0,1.0,7.0,4.0,1792.981004000012,4.0,1.0,phase_3,,,,,196.0,4.0,98.0,147.0,245.0,196.0,49.0,294.0,yellow,flipped triangle
0.0,6.0,2.0,1.0,7.0,5.0,1028.4973499999523,4.0,1.0,phase_3,,,,,78.0,2.0,117.0,156.0,39.0,234.0,78.0,195.0,yellow,flipped triangle
0.0,8.0,4.0,1.0,7.0,2.0,1468.8826679998783,4.0,1.0,phase_3,,,,,98.0,2.0,147.0,98.0,196.0,49.0,245.0,294.0,orange,diamond
0.0,7.0,3.0,1.0,7.0,6.0,1850.335765999944,4.0,1.0,phase_3,,,,,270.0,5.0,54.0,324.0,108.0,162.0,216.0,270.0,cyan,triangle
