raw_reward_magnitude,stim_reward,stepwise_reward_magnitude,paired_with_stopping,stim_location,response,reaction_time,block,num_trial_presentations,which_phase,stop_signal_trial_type,left_SSD,right_SSD,accuracy,chosen_bidding_amount,chosen_bidding_level,possible_bid_1,possible_bid_2,possible_bid_3,possible_bid_4,possible_bid_5,possible_bid_6,color_text,shape_text
207.0,3.0,3.0,0.0,3.0,3.0,405.4976460174657,1.0,1.0,phase_1,,,,,,,,,,,,,blue,square
0.0,1.0,0.0,0.0,2.0,2.0,452.4182729946915,1.0,1.0,phase_1,,,,,,,,,,,,,green,flipped triangle
42.0,5.0,1.0,1.0,4.0,4.0,406.0989050194621,1.0,1.0,phase_1,,,,,,,,,,,,,white,circle
31.0,5.0,1.0,1.0,4.0,4.0,350.2647159912158,1.0,1.0,phase_1,,,,,,,,,,,,,white,circle
109.0,2.0,2.0,0.0,1.0,1.0,361.6188330051955,1.0,1.0,phase_1,,,,,,,,,,,,,cyan,diamond
0.0,8.0,0.0,1.0,3.0,3.0,329.1620670061093,1.0,1.0,phase_1,,,,,,,,,,,,,yellow,I
413.0,4.0,4.0,0.0,2.0,2.0,341.4930780127179,1.0,1.0,phase_1,,,,,,,,,,,,,magenta,hexagon
216.0,7.0,3.0,1.0,2.0,2.0,353.2364100101404,1.0,1.0,phase_1,,,,,,,,,,,,,orange,triangle
0.0,7.0,0.0,1.0,3.0,3.0,353.9866170031018,1.0,1.0,phase_1,,,,,,,,,,,,,orange,triangle
415.0,8.0,4.0,1.0,2.0,2.0,356.5751249843742,1.0,1.0,phase_1,,,,,,,,,,,,,yellow,I
0.0,2.0,0.0,0.0,3.0,3.0,321.52094898629,1.0,1.0,phase_1,,,,,,,,,,,,,cyan,diamond
384.0,8.0,4.0,1.0,1.0,1.0,343.8515510060824,1.0,1.0,phase_1,,,,,,,,,,,,,yellow,I
100.0,2.0,2.0,0.0,1.0,1.0,323.0034800071735,1.0,1.0,phase_1,,,,,,,,,,,,,cyan,diamond
178.0,7.0,3.0,1.0,3.0,3.0,310.8574000070803,1.0,1.0,phase_1,,,,,,,,,,,,,orange,triangle
0.0,3.0,0.0,0.0,3.0,3.0,300.0537389889359,1.0,1.0,phase_1,,,,,,,,,,,,,blue,square
37.0,1.0,1.0,0.0,1.0,1.0,300.2264089882374,1.0,1.0,phase_1,,,,,,,,,,,,,green,flipped triangle
387.0,8.0,4.0,1.0,2.0,2.0,288.6281060054898,1.0,1.0,phase_1,,,,,,,,,,,,,yellow,I
62.0,5.0,1.0,1.0,1.0,1.0,292.2316510230303,1.0,1.0,phase_1,,,,,,,,,,,,,white,circle
115.0,2.0,2.0,0.0,2.0,2.0,312.9165960126556,1.0,1.0,phase_1,,,,,,,,,,,,,cyan,diamond
0.0,8.0,0.0,1.0,1.0,1.0,290.3770660050213,1.0,1.0,phase_1,,,,,,,,,,,,,yellow,I
205.0,3.0,3.0,0.0,2.0,2.0,279.8117630009074,1.0,1.0,phase_1,,,,,,,,,,,,,blue,square
40.0,5.0,1.0,1.0,3.0,3.0,316.1636820004787,1.0,1.0,phase_1,,,,,,,,,,,,,white,circle
414.0,4.0,4.0,0.0,2.0,2.0,329.376493988093,1.0,1.0,phase_1,,,,,,,,,,,,,magenta,hexagon
115.0,6.0,2.0,1.0,2.0,2.0,327.3090689908713,1.0,1.0,phase_1,,,,,,,,,,,,,gray,cross
422.0,4.0,4.0,0.0,1.0,1.0,295.5695899727288,1.0,1.0,phase_1,,,,,,,,,,,,,magenta,hexagon
91.0,6.0,2.0,1.0,2.0,2.0,316.5255149942823,1.0,1.0,phase_1,,,,,,,,,,,,,gray,cross
0.0,1.0,0.0,0.0,4.0,4.0,296.2422140117269,1.0,1.0,phase_1,,,,,,,,,,,,,green,flipped triangle
121.0,6.0,2.0,1.0,4.0,4.0,354.103624005802,1.0,1.0,phase_1,,,,,,,,,,,,,gray,cross
113.0,6.0,2.0,1.0,3.0,3.0,309.7682369989343,1.0,1.0,phase_1,,,,,,,,,,,,,gray,cross
0.0,7.0,0.0,1.0,4.0,4.0,307.8460299875587,1.0,1.0,phase_1,,,,,,,,,,,,,orange,triangle
0.0,1.0,0.0,0.0,2.0,2.0,332.3952319915406,1.0,1.0,phase_1,,,,,,,,,,,,,green,flipped triangle
81.0,6.0,2.0,1.0,4.0,4.0,274.967546982225,1.0,1.0,phase_1,,,,,,,,,,,,,gray,cross
0.0,7.0,0.0,1.0,2.0,2.0,319.8454669909552,1.0,1.0,phase_1,,,,,,,,,,,,,orange,triangle
27.0,5.0,1.0,1.0,1.0,1.0,335.1633800193667,1.0,1.0,phase_1,,,,,,,,,,,,,white,circle
0.0,1.0,0.0,0.0,3.0,3.0,291.7591010045726,1.0,1.0,phase_1,,,,,,,,,,,,,green,flipped triangle
193.0,7.0,3.0,1.0,3.0,3.0,292.4028509878553,1.0,1.0,phase_1,,,,,,,,,,,,,orange,triangle
186.0,7.0,3.0,1.0,2.0,2.0,324.7119430161547,1.0,1.0,phase_1,,,,,,,,,,,,,orange,triangle
175.0,3.0,3.0,0.0,2.0,2.0,304.5538479927927,1.0,1.0,phase_1,,,,,,,,,,,,,blue,square
82.0,2.0,2.0,0.0,4.0,4.0,281.3219289819244,1.0,1.0,phase_1,,,,,,,,,,,,,cyan,diamond
101.0,6.0,2.0,1.0,3.0,3.0,291.3032379874494,1.0,1.0,phase_1,,,,,,,,,,,,,gray,cross
98.0,2.0,2.0,0.0,4.0,4.0,292.6104539947118,1.0,1.0,phase_1,,,,,,,,,,,,,cyan,diamond
0.0,3.0,0.0,0.0,1.0,1.0,384.4185800116975,1.0,1.0,phase_1,,,,,,,,,,,,,blue,square
28.0,5.0,1.0,1.0,4.0,4.0,339.9442060035653,1.0,1.0,phase_1,,,,,,,,,,,,,white,circle
399.0,4.0,4.0,0.0,1.0,1.0,317.4705359851941,1.0,1.0,phase_1,,,,,,,,,,,,,magenta,hexagon
213.0,7.0,3.0,1.0,4.0,4.0,271.5361230075359,1.0,1.0,phase_1,,,,,,,,,,,,,orange,triangle
0.0,5.0,0.0,1.0,4.0,4.0,282.5915470020845,1.0,1.0,phase_1,,,,,,,,,,,,,white,circle
0.0,4.0,0.0,0.0,3.0,3.0,305.4521079757251,1.0,1.0,phase_1,,,,,,,,,,,,,magenta,hexagon
0.0,2.0,0.0,0.0,3.0,3.0,271.7632800049614,1.0,1.0,phase_1,,,,,,,,,,,,,cyan,diamond
191.0,7.0,3.0,1.0,2.0,2.0,283.7101010081824,1.0,1.0,phase_1,,,,,,,,,,,,,orange,triangle
0.0,8.0,0.0,1.0,3.0,3.0,333.8877959758974,1.0,1.0,phase_1,,,,,,,,,,,,,yellow,I
0.0,6.0,0.0,1.0,3.0,3.0,292.0523019856773,1.0,1.0,phase_1,,,,,,,,,,,,,gray,cross
183.0,7.0,3.0,1.0,1.0,1.0,337.5236800056882,1.0,1.0,phase_1,,,,,,,,,,,,,orange,triangle
377.0,8.0,4.0,1.0,1.0,1.0,314.3590039981063,1.0,1.0,phase_1,,,,,,,,,,,,,yellow,I
70.0,5.0,1.0,1.0,3.0,3.0,285.0496760220267,1.0,1.0,phase_1,,,,,,,,,,,,,white,circle
27.0,1.0,1.0,0.0,3.0,3.0,306.5994679927826,1.0,1.0,phase_1,,,,,,,,,,,,,green,flipped triangle
198.0,7.0,3.0,1.0,2.0,2.0,338.7010659789666,1.0,1.0,phase_1,,,,,,,,,,,,,orange,triangle
0.0,6.0,0.0,1.0,2.0,2.0,321.1658470099792,1.0,1.0,phase_1,,,,,,,,,,,,,gray,cross
207.0,7.0,3.0,1.0,1.0,1.0,306.8523369729519,1.0,1.0,phase_1,,,,,,,,,,,,,orange,triangle
412.0,8.0,4.0,1.0,2.0,2.0,311.0571409924887,1.0,1.0,phase_1,,,,,,,,,,,,,yellow,I
221.0,7.0,3.0,1.0,1.0,1.0,344.6946479962207,1.0,1.0,phase_1,,,,,,,,,,,,,orange,triangle
216.0,3.0,3.0,0.0,4.0,4.0,323.2191189890727,1.0,1.0,phase_1,,,,,,,,,,,,,blue,square
124.0,2.0,2.0,0.0,2.0,2.0,287.6712139986921,1.0,1.0,phase_1,,,,,,,,,,,,,cyan,diamond
395.0,4.0,4.0,0.0,4.0,4.0,331.499232997885,1.0,1.0,phase_1,,,,,,,,,,,,,magenta,hexagon
0.0,4.0,0.0,0.0,3.0,3.0,320.8364809979684,1.0,1.0,phase_1,,,,,,,,,,,,,magenta,hexagon
0.0,6.0,0.0,1.0,2.0,2.0,321.7644429823849,1.0,1.0,phase_1,,,,,,,,,,,,,gray,cross
62.0,1.0,1.0,0.0,1.0,1.0,337.4516839976422,1.0,1.0,phase_1,,,,,,,,,,,,,green,flipped triangle
26.0,5.0,1.0,1.0,4.0,4.0,314.4093639857601,1.0,1.0,phase_1,,,,,,,,,,,,,white,circle
386.0,8.0,4.0,1.0,4.0,4.0,301.3433390005957,1.0,1.0,phase_1,,,,,,,,,,,,,yellow,I
101.0,2.0,2.0,0.0,2.0,2.0,312.369838997256,1.0,1.0,phase_1,,,,,,,,,,,,,cyan,diamond
44.0,1.0,1.0,0.0,4.0,4.0,281.2186669907532,1.0,1.0,phase_1,,,,,,,,,,,,,green,flipped triangle
78.0,2.0,2.0,0.0,1.0,1.0,357.1405519905966,1.0,1.0,phase_1,,,,,,,,,,,,,cyan,diamond
88.0,6.0,2.0,1.0,1.0,1.0,345.9045740019064,1.0,1.0,phase_1,,,,,,,,,,,,,gray,cross
100.0,2.0,2.0,0.0,2.0,2.0,309.5337850099895,1.0,1.0,phase_1,,,,,,,,,,,,,cyan,diamond
0.0,1.0,0.0,0.0,2.0,2.0,313.0578630079981,1.0,1.0,phase_1,,,,,,,,,,,,,green,flipped triangle
122.0,2.0,2.0,0.0,3.0,3.0,312.232355994638,1.0,1.0,phase_1,,,,,,,,,,,,,cyan,diamond
0.0,2.0,0.0,0.0,4.0,4.0,302.0909479819238,1.0,1.0,phase_1,,,,,,,,,,,,,cyan,diamond
384.0,4.0,4.0,0.0,4.0,4.0,290.6728999805636,1.0,1.0,phase_1,,,,,,,,,,,,,magenta,hexagon
193.0,3.0,3.0,0.0,1.0,1.0,327.6799639861565,1.0,1.0,phase_1,,,,,,,,,,,,,blue,square
216.0,3.0,3.0,0.0,2.0,2.0,279.0989490167703,1.0,1.0,phase_1,,,,,,,,,,,,,blue,square
416.0,4.0,4.0,0.0,3.0,3.0,315.9781840222422,1.0,1.0,phase_1,,,,,,,,,,,,,magenta,hexagon
376.0,8.0,4.0,1.0,4.0,4.0,317.8907269902993,1.0,1.0,phase_1,,,,,,,,,,,,,yellow,I
415.0,4.0,4.0,0.0,3.0,3.0,259.9477100011427,1.0,1.0,phase_1,,,,,,,,,,,,,magenta,hexagon
214.0,3.0,3.0,0.0,4.0,4.0,326.6284670098685,1.0,1.0,phase_1,,,,,,,,,,,,,blue,square
56.0,5.0,1.0,1.0,3.0,3.0,296.5258079930208,1.0,1.0,phase_1,,,,,,,,,,,,,white,circle
413.0,8.0,4.0,1.0,2.0,2.0,374.676157021895,1.0,1.0,phase_1,,,,,,,,,,,,,yellow,I
414.0,8.0,4.0,1.0,2.0,2.0,329.016050993232,1.0,1.0,phase_1,,,,,,,,,,,,,yellow,I
70.0,1.0,1.0,0.0,4.0,4.0,297.8104850044474,1.0,1.0,phase_1,,,,,,,,,,,,,green,flipped triangle
27.0,5.0,1.0,1.0,2.0,2.0,296.5768039866816,1.0,1.0,phase_1,,,,,,,,,,,,,white,circle
196.0,3.0,3.0,0.0,3.0,3.0,297.1147789794486,1.0,1.0,phase_1,,,,,,,,,,,,,blue,square
381.0,8.0,4.0,1.0,3.0,3.0,329.8642029985785,1.0,1.0,phase_1,,,,,,,,,,,,,yellow,I
222.0,7.0,3.0,1.0,1.0,1.0,320.9154279902577,1.0,1.0,phase_1,,,,,,,,,,,,,orange,triangle
0.0,4.0,0.0,0.0,2.0,2.0,342.452509998111,1.0,1.0,phase_1,,,,,,,,,,,,,magenta,hexagon
420.0,4.0,4.0,0.0,1.0,1.0,312.3838469909969,1.0,1.0,phase_1,,,,,,,,,,,,,magenta,hexagon
412.0,4.0,4.0,0.0,2.0,2.0,302.4400289868936,1.0,1.0,phase_1,,,,,,,,,,,,,magenta,hexagon
424.0,8.0,4.0,1.0,4.0,4.0,269.3392910005059,1.0,1.0,phase_1,,,,,,,,,,,,,yellow,I
98.0,6.0,2.0,1.0,2.0,2.0,325.076663022628,1.0,1.0,phase_1,,,,,,,,,,,,,gray,cross
44.0,1.0,1.0,0.0,2.0,2.0,334.5152160036377,1.0,1.0,phase_1,,,,,,,,,,,,,green,flipped triangle
113.0,2.0,2.0,0.0,2.0,2.0,326.9691610184964,1.0,1.0,phase_1,,,,,,,,,,,,,cyan,diamond
224.0,7.0,3.0,1.0,1.0,1.0,357.8525060147512,1.0,1.0,phase_1,,,,,,,,,,,,,orange,triangle
396.0,4.0,4.0,0.0,4.0,4.0,339.8303730064071,1.0,1.0,phase_1,,,,,,,,,,,,,magenta,hexagon
55.0,5.0,1.0,1.0,3.0,3.0,392.9582349956035,2.0,1.0,phase_1,,,,,,,,,,,,,white,circle
392.0,4.0,4.0,0.0,2.0,2.0,328.1173539871815,2.0,1.0,phase_1,,,,,,,,,,,,,magenta,hexagon
0.0,1.0,0.0,0.0,3.0,3.0,284.5874190097675,2.0,1.0,phase_1,,,,,,,,,,,,,green,flipped triangle
0.0,2.0,0.0,0.0,1.0,1.0,328.9992789796088,2.0,1.0,phase_1,,,,,,,,,,,,,cyan,diamond
90.0,2.0,2.0,0.0,3.0,3.0,296.760693017859,2.0,1.0,phase_1,,,,,,,,,,,,,cyan,diamond
222.0,3.0,3.0,0.0,4.0,4.0,316.4525999745819,2.0,1.0,phase_1,,,,,,,,,,,,,blue,square
98.0,2.0,2.0,0.0,3.0,3.0,309.5477200113237,2.0,1.0,phase_1,,,,,,,,,,,,,cyan,diamond
213.0,7.0,3.0,1.0,3.0,3.0,309.0586189937312,2.0,1.0,phase_1,,,,,,,,,,,,,orange,triangle
413.0,4.0,4.0,0.0,2.0,2.0,319.2463210143614,2.0,1.0,phase_1,,,,,,,,,,,,,magenta,hexagon
88.0,2.0,2.0,0.0,1.0,1.0,319.1398249764461,2.0,1.0,phase_1,,,,,,,,,,,,,cyan,diamond
81.0,6.0,2.0,1.0,2.0,2.0,364.7233649971895,2.0,1.0,phase_1,,,,,,,,,,,,,gray,cross
107.0,6.0,2.0,1.0,4.0,4.0,289.7469039889984,2.0,1.0,phase_1,,,,,,,,,,,,,gray,cross
0.0,2.0,0.0,0.0,3.0,3.0,276.8644710013177,2.0,1.0,phase_1,,,,,,,,,,,,,cyan,diamond
222.0,7.0,3.0,1.0,3.0,3.0,310.7007530052215,2.0,1.0,phase_1,,,,,,,,,,,,,orange,triangle
50.0,5.0,1.0,1.0,3.0,3.0,325.6460300181061,2.0,1.0,phase_1,,,,,,,,,,,,,white,circle
0.0,6.0,0.0,1.0,3.0,3.0,325.6881340057589,2.0,1.0,phase_1,,,,,,,,,,,,,gray,cross
193.0,3.0,3.0,0.0,1.0,1.0,357.7195010147989,2.0,1.0,phase_1,,,,,,,,,,,,,blue,square
382.0,4.0,4.0,0.0,4.0,4.0,311.5273720177356,2.0,1.0,phase_1,,,,,,,,,,,,,magenta,hexagon
66.0,5.0,1.0,1.0,4.0,4.0,335.0972560001537,2.0,1.0,phase_1,,,,,,,,,,,,,white,circle
399.0,8.0,4.0,1.0,2.0,2.0,346.287760999985,2.0,1.0,phase_1,,,,,,,,,,,,,yellow,I
416.0,8.0,4.0,1.0,3.0,3.0,325.3106519987341,2.0,1.0,phase_1,,,,,,,,,,,,,yellow,I
82.0,6.0,2.0,1.0,3.0,3.0,325.2248099888675,2.0,1.0,phase_1,,,,,,,,,,,,,gray,cross
0.0,5.0,0.0,1.0,2.0,2.0,339.5495380100328,2.0,1.0,phase_1,,,,,,,,,,,,,white,circle
420.0,8.0,4.0,1.0,2.0,2.0,329.2529520113021,2.0,1.0,phase_1,,,,,,,,,,,,,yellow,I
415.0,4.0,4.0,0.0,1.0,1.0,341.4090730075259,2.0,1.0,phase_1,,,,,,,,,,,,,magenta,hexagon
52.0,5.0,1.0,1.0,1.0,1.0,340.3478630061727,2.0,1.0,phase_1,,,,,,,,,,,,,white,circle
49.0,1.0,1.0,0.0,4.0,4.0,316.7546069889795,2.0,1.0,phase_1,,,,,,,,,,,,,green,flipped triangle
381.0,4.0,4.0,0.0,3.0,3.0,285.4318010213319,2.0,1.0,phase_1,,,,,,,,,,,,,magenta,hexagon
42.0,1.0,1.0,0.0,2.0,2.0,328.501704003429,2.0,1.0,phase_1,,,,,,,,,,,,,green,flipped triangle
38.0,5.0,1.0,1.0,1.0,1.0,320.5544980010018,2.0,1.0,phase_1,,,,,,,,,,,,,white,circle
107.0,2.0,2.0,0.0,2.0,2.0,320.5861790047493,2.0,1.0,phase_1,,,,,,,,,,,,,cyan,diamond
386.0,4.0,4.0,0.0,1.0,1.0,293.2857709820382,2.0,1.0,phase_1,,,,,,,,,,,,,magenta,hexagon
387.0,4.0,4.0,0.0,2.0,2.0,313.8426050136331,2.0,1.0,phase_1,,,,,,,,,,,,,magenta,hexagon
102.0,6.0,2.0,1.0,4.0,4.0,315.6765039893798,2.0,1.0,phase_1,,,,,,,,,,,,,gray,cross
218.0,7.0,3.0,1.0,3.0,3.0,328.6581489956006,2.0,1.0,phase_1,,,,,,,,,,,,,orange,triangle
190.0,3.0,3.0,0.0,3.0,3.0,339.3540940014645,2.0,1.0,phase_1,,,,,,,,,,,,,blue,square
182.0,7.0,3.0,1.0,4.0,4.0,329.2195730027742,2.0,1.0,phase_1,,,,,,,,,,,,,orange,triangle
55.0,5.0,1.0,1.0,1.0,1.0,362.7069680078421,2.0,1.0,phase_1,,,,,,,,,,,,,white,circle
34.0,5.0,1.0,1.0,2.0,2.0,321.3799130171537,2.0,1.0,phase_1,,,,,,,,,,,,,white,circle
413.0,4.0,4.0,0.0,3.0,3.0,299.1869659745134,2.0,1.0,phase_1,,,,,,,,,,,,,magenta,hexagon
0.0,5.0,0.0,1.0,3.0,3.0,307.9181100183632,2.0,1.0,phase_1,,,,,,,,,,,,,white,circle
67.0,1.0,1.0,0.0,3.0,3.0,317.7155910234432,2.0,1.0,phase_1,,,,,,,,,,,,,green,flipped triangle
91.0,2.0,2.0,0.0,4.0,4.0,305.6075560161844,2.0,1.0,phase_1,,,,,,,,,,,,,cyan,diamond
113.0,2.0,2.0,0.0,4.0,4.0,315.8356680069119,2.0,1.0,phase_1,,,,,,,,,,,,,cyan,diamond
57.0,1.0,1.0,0.0,3.0,3.0,308.5554980207234,2.0,1.0,phase_1,,,,,,,,,,,,,green,flipped triangle
221.0,3.0,3.0,0.0,4.0,4.0,319.2918190034106,2.0,1.0,phase_1,,,,,,,,,,,,,blue,square
393.0,8.0,4.0,1.0,1.0,1.0,318.6052980017848,2.0,1.0,phase_1,,,,,,,,,,,,,yellow,I
392.0,8.0,4.0,1.0,3.0,3.0,306.6308609850239,2.0,1.0,phase_1,,,,,,,,,,,,,yellow,I
57.0,5.0,1.0,1.0,3.0,3.0,299.9466850014869,2.0,1.0,phase_1,,,,,,,,,,,,,white,circle
116.0,6.0,2.0,1.0,2.0,2.0,377.861254994059,2.0,1.0,phase_1,,,,,,,,,,,,,gray,cross
96.0,2.0,2.0,0.0,4.0,4.0,307.5272209825925,2.0,1.0,phase_1,,,,,,,,,,,,,cyan,diamond
119.0,6.0,2.0,1.0,2.0,2.0,330.6650480080861,2.0,1.0,phase_1,,,,,,,,,,,,,gray,cross
124.0,6.0,2.0,1.0,2.0,2.0,380.2094759885221,2.0,1.0,phase_1,,,,,,,,,,,,,gray,cross
68.0,1.0,1.0,0.0,3.0,3.0,324.653268995462,2.0,1.0,phase_1,,,,,,,,,,,,,green,flipped triangle
113.0,6.0,2.0,1.0,4.0,4.0,274.8131199914496,2.0,1.0,phase_1,,,,,,,,,,,,,gray,cross
0.0,3.0,0.0,0.0,4.0,4.0,335.9689160133712,2.0,1.0,phase_1,,,,,,,,,,,,,blue,square
44.0,5.0,1.0,1.0,2.0,2.0,323.1725429941434,2.0,1.0,phase_1,,,,,,,,,,,,,white,circle
27.0,1.0,1.0,0.0,1.0,1.0,323.7415649928152,2.0,1.0,phase_1,,,,,,,,,,,,,green,flipped triangle
95.0,2.0,2.0,0.0,4.0,4.0,278.8890579831786,2.0,1.0,phase_1,,,,,,,,,,,,,cyan,diamond
40.0,1.0,1.0,0.0,1.0,1.0,324.0626839979086,2.0,1.0,phase_1,,,,,,,,,,,,,green,flipped triangle
186.0,7.0,3.0,1.0,1.0,1.0,313.5431419941596,2.0,1.0,phase_1,,,,,,,,,,,,,orange,triangle
0.0,8.0,0.0,1.0,2.0,2.0,313.2058409973979,2.0,1.0,phase_1,,,,,,,,,,,,,yellow,I
386.0,4.0,4.0,0.0,1.0,1.0,329.4268769968766,2.0,1.0,phase_1,,,,,,,,,,,,,magenta,hexagon
55.0,1.0,1.0,0.0,3.0,3.0,306.1928550014272,2.0,1.0,phase_1,,,,,,,,,,,,,green,flipped triangle
221.0,7.0,3.0,1.0,4.0,4.0,273.0903750052675,2.0,1.0,phase_1,,,,,,,,,,,,,orange,triangle
113.0,2.0,2.0,0.0,1.0,1.0,282.8430509835016,2.0,1.0,phase_1,,,,,,,,,,,,,cyan,diamond
393.0,8.0,4.0,1.0,1.0,1.0,295.9998509904835,2.0,1.0,phase_1,,,,,,,,,,,,,yellow,I
413.0,4.0,4.0,0.0,4.0,4.0,294.9253339902498,2.0,1.0,phase_1,,,,,,,,,,,,,magenta,hexagon
86.0,2.0,2.0,0.0,3.0,3.0,295.8361910132225,2.0,1.0,phase_1,,,,,,,,,,,,,cyan,diamond
213.0,3.0,3.0,0.0,3.0,3.0,317.9826120031066,2.0,1.0,phase_1,,,,,,,,,,,,,blue,square
56.0,1.0,1.0,0.0,2.0,2.0,364.7205689921975,2.0,1.0,phase_1,,,,,,,,,,,,,green,flipped triangle
424.0,4.0,4.0,0.0,4.0,4.0,311.9426289922558,2.0,1.0,phase_1,,,,,,,,,,,,,magenta,hexagon
375.0,8.0,4.0,1.0,4.0,4.0,289.3834049755241,2.0,1.0,phase_1,,,,,,,,,,,,,yellow,I
39.0,1.0,1.0,0.0,3.0,3.0,302.0458550017793,2.0,1.0,phase_1,,,,,,,,,,,,,green,flipped triangle
47.0,1.0,1.0,0.0,4.0,4.0,287.8004699887242,2.0,1.0,phase_1,,,,,,,,,,,,,green,flipped triangle
389.0,8.0,4.0,1.0,4.0,4.0,336.8952799937688,2.0,1.0,phase_1,,,,,,,,,,,,,yellow,I
95.0,6.0,2.0,1.0,3.0,3.0,369.6317200083285,2.0,1.0,phase_1,,,,,,,,,,,,,gray,cross
0.0,7.0,0.0,1.0,3.0,3.0,335.8117990137543,2.0,1.0,phase_1,,,,,,,,,,,,,orange,triangle
420.0,4.0,4.0,0.0,4.0,4.0,329.6381870168261,2.0,1.0,phase_1,,,,,,,,,,,,,magenta,hexagon
199.0,7.0,3.0,1.0,1.0,1.0,364.7780419851187,2.0,1.0,phase_1,,,,,,,,,,,,,orange,triangle
0.0,4.0,0.0,0.0,1.0,1.0,365.2727809967473,2.0,1.0,phase_1,,,,,,,,,,,,,magenta,hexagon
403.0,4.0,4.0,0.0,4.0,4.0,316.7182489996776,2.0,1.0,phase_1,,,,,,,,,,,,,magenta,hexagon
72.0,1.0,1.0,0.0,2.0,2.0,395.6413209962193,2.0,1.0,phase_1,,,,,,,,,,,,,green,flipped triangle
31.0,1.0,1.0,0.0,1.0,1.0,354.5550660055596,2.0,1.0,phase_1,,,,,,,,,,,,,green,flipped triangle
78.0,2.0,2.0,0.0,2.0,2.0,333.1329969805665,2.0,1.0,phase_1,,,,,,,,,,,,,cyan,diamond
393.0,4.0,4.0,0.0,3.0,3.0,310.5910800222773,2.0,1.0,phase_1,,,,,,,,,,,,,magenta,hexagon
83.0,6.0,2.0,1.0,2.0,2.0,344.5889120048377,2.0,1.0,phase_1,,,,,,,,,,,,,gray,cross
0.0,6.0,0.0,1.0,3.0,3.0,313.223695004126,2.0,1.0,phase_1,,,,,,,,,,,,,gray,cross
0.0,5.0,0.0,1.0,2.0,2.0,335.5342379945796,2.0,1.0,phase_1,,,,,,,,,,,,,white,circle
186.0,3.0,3.0,0.0,1.0,1.0,360.8020259998739,2.0,1.0,phase_1,,,,,,,,,,,,,blue,square
96.0,6.0,2.0,1.0,1.0,1.0,393.0459580151364,2.0,1.0,phase_1,,,,,,,,,,,,,gray,cross
77.0,6.0,2.0,1.0,1.0,1.0,361.0447210085112,2.0,1.0,phase_1,,,,,,,,,,,,,gray,cross
38.0,1.0,1.0,0.0,2.0,2.0,362.5851690012496,2.0,1.0,phase_1,,,,,,,,,,,,,green,flipped triangle
46.0,5.0,1.0,1.0,2.0,2.0,317.7886569756083,2.0,1.0,phase_1,,,,,,,,,,,,,white,circle
391.0,4.0,4.0,0.0,4.0,4.0,363.1765549944248,2.0,1.0,phase_1,,,,,,,,,,,,,magenta,hexagon
0.0,3.0,0.0,0.0,4.0,4.0,305.7823839772027,2.0,1.0,phase_1,,,,,,,,,,,,,blue,square
402.0,4.0,4.0,0.0,2.0,2.0,333.1642219854984,2.0,1.0,phase_1,,,,,,,,,,,,,magenta,hexagon
55.0,5.0,1.0,1.0,1.0,1.0,346.1059789988212,2.0,1.0,phase_1,,,,,,,,,,,,,white,circle
41.0,1.0,1.0,0.0,3.0,3.0,303.0491340032313,2.0,1.0,phase_1,,,,,,,,,,,,,green,flipped triangle
402.0,8.0,4.0,1.0,1.0,1.0,357.8818799869623,2.0,1.0,phase_1,,,,,,,,,,,,,yellow,I
181.0,7.0,3.0,1.0,1.0,1.0,436.6745639999863,3.0,1.0,phase_1,,,,,,,,,,,,,orange,triangle
73.0,1.0,1.0,0.0,1.0,1.0,345.5695569864474,3.0,1.0,phase_1,,,,,,,,,,,,,green,flipped triangle
40.0,5.0,1.0,1.0,4.0,4.0,335.0810020056087,3.0,1.0,phase_1,,,,,,,,,,,,,white,circle
120.0,2.0,2.0,0.0,3.0,3.0,323.1708809908014,3.0,1.0,phase_1,,,,,,,,,,,,,cyan,diamond
71.0,1.0,1.0,0.0,1.0,1.0,342.3913980077486,3.0,1.0,phase_1,,,,,,,,,,,,,green,flipped triangle
72.0,5.0,1.0,1.0,4.0,4.0,326.2287840188946,3.0,1.0,phase_1,,,,,,,,,,,,,white,circle
37.0,5.0,1.0,1.0,2.0,2.0,292.6211209851317,3.0,1.0,phase_1,,,,,,,,,,,,,white,circle
0.0,3.0,0.0,0.0,2.0,2.0,327.2937430010643,3.0,1.0,phase_1,,,,,,,,,,,,,blue,square
0.0,6.0,0.0,1.0,4.0,4.0,294.7852669749409,3.0,1.0,phase_1,,,,,,,,,,,,,gray,cross
35.0,5.0,1.0,1.0,2.0,2.0,295.2949059836101,3.0,1.0,phase_1,,,,,,,,,,,,,white,circle
0.0,7.0,0.0,1.0,3.0,3.0,340.0244649965316,3.0,1.0,phase_1,,,,,,,,,,,,,orange,triangle
214.0,7.0,3.0,1.0,2.0,2.0,337.8283329948317,3.0,1.0,phase_1,,,,,,,,,,,,,orange,triangle
0.0,4.0,0.0,0.0,1.0,1.0,349.4001679937355,3.0,1.0,phase_1,,,,,,,,,,,,,magenta,hexagon
57.0,5.0,1.0,1.0,1.0,1.0,349.5856840163469,3.0,1.0,phase_1,,,,,,,,,,,,,white,circle
83.0,2.0,2.0,0.0,1.0,1.0,330.0163600069936,3.0,1.0,phase_1,,,,,,,,,,,,,cyan,diamond
405.0,4.0,4.0,0.0,1.0,1.0,330.6504280189983,3.0,1.0,phase_1,,,,,,,,,,,,,magenta,hexagon
219.0,7.0,3.0,1.0,2.0,2.0,331.903158017667,3.0,1.0,phase_1,,,,,,,,,,,,,orange,triangle
90.0,6.0,2.0,1.0,3.0,3.0,318.0574989819433,3.0,1.0,phase_1,,,,,,,,,,,,,gray,cross
175.0,3.0,3.0,0.0,2.0,2.0,333.9364839775953,3.0,1.0,phase_1,,,,,,,,,,,,,blue,square
47.0,5.0,1.0,1.0,1.0,1.0,342.1458970115054,3.0,1.0,phase_1,,,,,,,,,,,,,white,circle
55.0,1.0,1.0,0.0,4.0,4.0,365.2307890006341,3.0,1.0,phase_1,,,,,,,,,,,,,green,flipped triangle
405.0,8.0,4.0,1.0,3.0,3.0,324.2079500050749,3.0,1.0,phase_1,,,,,,,,,,,,,yellow,I
0.0,8.0,0.0,1.0,4.0,4.0,322.4422509956639,3.0,1.0,phase_1,,,,,,,,,,,,,yellow,I
0.0,7.0,0.0,1.0,4.0,4.0,309.7825029981322,3.0,1.0,phase_1,,,,,,,,,,,,,orange,triangle
386.0,8.0,4.0,1.0,3.0,3.0,336.5478980122134,3.0,1.0,phase_1,,,,,,,,,,,,,yellow,I
222.0,3.0,3.0,0.0,3.0,3.0,324.9749090173282,3.0,1.0,phase_1,,,,,,,,,,,,,blue,square
0.0,2.0,0.0,0.0,1.0,1.0,371.6074859839864,3.0,1.0,phase_1,,,,,,,,,,,,,cyan,diamond
389.0,4.0,4.0,0.0,2.0,2.0,345.4218120023142,3.0,1.0,phase_1,,,,,,,,,,,,,magenta,hexagon
187.0,3.0,3.0,0.0,4.0,4.0,324.2535869940184,3.0,1.0,phase_1,,,,,,,,,,,,,blue,square
67.0,5.0,1.0,1.0,4.0,4.0,328.9381139911711,3.0,1.0,phase_1,,,,,,,,,,,,,white,circle
93.0,2.0,2.0,0.0,4.0,4.0,303.1183519924525,3.0,1.0,phase_1,,,,,,,,,,,,,cyan,diamond
402.0,8.0,4.0,1.0,1.0,1.0,382.2453049942851,3.0,1.0,phase_1,,,,,,,,,,,,,yellow,I
115.0,6.0,2.0,1.0,2.0,2.0,363.645617995644,3.0,1.0,phase_1,,,,,,,,,,,,,gray,cross
415.0,8.0,4.0,1.0,1.0,1.0,353.4454369801096,3.0,1.0,phase_1,,,,,,,,,,,,,yellow,I
64.0,5.0,1.0,1.0,4.0,4.0,316.309685993474,3.0,1.0,phase_1,,,,,,,,,,,,,white,circle
0.0,5.0,0.0,1.0,3.0,3.0,296.1644089955371,3.0,1.0,phase_1,,,,,,,,,,,,,white,circle
205.0,7.0,3.0,1.0,1.0,1.0,340.2438650082331,3.0,1.0,phase_1,,,,,,,,,,,,,orange,triangle
0.0,8.0,0.0,1.0,2.0,2.0,364.0914579737,3.0,1.0,phase_1,,,,,,,,,,,,,yellow,I
44.0,5.0,1.0,1.0,2.0,2.0,378.4190049918834,3.0,1.0,phase_1,,,,,,,,,,,,,white,circle
211.0,7.0,3.0,1.0,3.0,3.0,357.1982449793722,3.0,1.0,phase_1,,,,,,,,,,,,,orange,triangle
175.0,7.0,3.0,1.0,4.0,4.0,308.5218079795595,3.0,1.0,phase_1,,,,,,,,,,,,,orange,triangle
0.0,5.0,0.0,1.0,2.0,2.0,343.9561210107058,3.0,1.0,phase_1,,,,,,,,,,,,,white,circle
35.0,1.0,1.0,0.0,1.0,1.0,343.0797899782192,3.0,1.0,phase_1,,,,,,,,,,,,,green,flipped triangle
387.0,4.0,4.0,0.0,3.0,3.0,320.9544550045393,3.0,1.0,phase_1,,,,,,,,,,,,,magenta,hexagon
74.0,1.0,1.0,0.0,2.0,2.0,370.1394190138671,3.0,1.0,phase_1,,,,,,,,,,,,,green,flipped triangle
81.0,2.0,2.0,0.0,1.0,1.0,326.258090994088,3.0,1.0,phase_1,,,,,,,,,,,,,cyan,diamond
52.0,1.0,1.0,0.0,3.0,3.0,346.8091469840146,3.0,1.0,phase_1,,,,,,,,,,,,,green,flipped triangle
122.0,6.0,2.0,1.0,3.0,3.0,325.1421619788743,3.0,1.0,phase_1,,,,,,,,,,,,,gray,cross
218.0,3.0,3.0,0.0,1.0,1.0,349.3076699960511,3.0,1.0,phase_1,,,,,,,,,,,,,blue,square
211.0,3.0,3.0,0.0,1.0,1.0,383.3303760038689,3.0,1.0,phase_1,,,,,,,,,,,,,blue,square
182.0,3.0,3.0,0.0,4.0,4.0,339.7994650003966,3.0,1.0,phase_1,,,,,,,,,,,,,blue,square
91.0,2.0,2.0,0.0,4.0,4.0,302.976231003413,3.0,1.0,phase_1,,,,,,,,,,,,,cyan,diamond
420.0,8.0,4.0,1.0,3.0,3.0,328.3651119854767,3.0,1.0,phase_1,,,,,,,,,,,,,yellow,I
28.0,1.0,1.0,0.0,1.0,1.0,348.8386270182673,3.0,1.0,phase_1,,,,,,,,,,,,,green,flipped triangle
396.0,8.0,4.0,1.0,2.0,2.0,328.0149550118949,3.0,1.0,phase_1,,,,,,,,,,,,,yellow,I
422.0,8.0,4.0,1.0,4.0,4.0,305.3775760054122,3.0,1.0,phase_1,,,,,,,,,,,,,yellow,I
0.0,1.0,0.0,0.0,2.0,2.0,350.6934049946721,3.0,1.0,phase_1,,,,,,,,,,,,,green,flipped triangle
49.0,5.0,1.0,1.0,1.0,1.0,362.5714599911589,3.0,1.0,phase_1,,,,,,,,,,,,,white,circle
0.0,8.0,0.0,1.0,2.0,2.0,354.9812230048701,3.0,1.0,phase_1,,,,,,,,,,,,,yellow,I
413.0,8.0,4.0,1.0,4.0,4.0,308.8783449784387,3.0,1.0,phase_1,,,,,,,,,,,,,yellow,I
410.0,8.0,4.0,1.0,1.0,1.0,333.2629750075284,3.0,1.0,phase_1,,,,,,,,,,,,,yellow,I
393.0,4.0,4.0,0.0,3.0,3.0,323.8812209747266,3.0,1.0,phase_1,,,,,,,,,,,,,magenta,hexagon
0.0,5.0,0.0,1.0,1.0,1.0,335.2716249937657,3.0,1.0,phase_1,,,,,,,,,,,,,white,circle
190.0,7.0,3.0,1.0,2.0,2.0,321.9186589994933,3.0,1.0,phase_1,,,,,,,,,,,,,orange,triangle
190.0,3.0,3.0,0.0,1.0,1.0,344.4329929770902,3.0,1.0,phase_1,,,,,,,,,,,,,blue,square
213.0,3.0,3.0,0.0,2.0,2.0,344.742291024886,3.0,1.0,phase_1,,,,,,,,,,,,,blue,square
205.0,3.0,3.0,0.0,2.0,2.0,313.596203981433,3.0,1.0,phase_1,,,,,,,,,,,,,blue,square
183.0,7.0,3.0,1.0,3.0,3.0,337.2389949799981,3.0,1.0,phase_1,,,,,,,,,,,,,orange,triangle
89.0,2.0,2.0,0.0,3.0,3.0,313.2122709939722,3.0,1.0,phase_1,,,,,,,,,,,,,cyan,diamond
193.0,7.0,3.0,1.0,1.0,1.0,369.490714976564,3.0,1.0,phase_1,,,,,,,,,,,,,orange,triangle
50.0,1.0,1.0,0.0,4.0,4.0,362.5603080145083,3.0,1.0,phase_1,,,,,,,,,,,,,green,flipped triangle
0.0,8.0,0.0,1.0,1.0,1.0,350.663423014339,3.0,1.0,phase_1,,,,,,,,,,,,,yellow,I
39.0,5.0,1.0,1.0,1.0,1.0,361.6297300031874,3.0,1.0,phase_1,,,,,,,,,,,,,white,circle
108.0,6.0,2.0,1.0,3.0,3.0,348.7982549995649,3.0,1.0,phase_1,,,,,,,,,,,,,gray,cross
391.0,8.0,4.0,1.0,3.0,3.0,329.8074630147312,3.0,1.0,phase_1,,,,,,,,,,,,,yellow,I
114.0,6.0,2.0,1.0,1.0,1.0,351.5385940263513,3.0,1.0,phase_1,,,,,,,,,,,,,gray,cross
114.0,2.0,2.0,0.0,1.0,1.0,328.3871999883558,3.0,1.0,phase_1,,,,,,,,,,,,,cyan,diamond
40.0,1.0,1.0,0.0,2.0,2.0,363.4386860067025,3.0,1.0,phase_1,,,,,,,,,,,,,green,flipped triangle
0.0,4.0,0.0,0.0,4.0,4.0,299.3627449905034,3.0,1.0,phase_1,,,,,,,,,,,,,magenta,hexagon
377.0,8.0,4.0,1.0,1.0,1.0,299.1161630197894,3.0,1.0,phase_1,,,,,,,,,,,,,yellow,I
0.0,2.0,0.0,0.0,1.0,1.0,330.6680690147914,3.0,1.0,phase_1,,,,,,,,,,,,,cyan,diamond
185.0,7.0,3.0,1.0,3.0,3.0,330.7625770103186,3.0,1.0,phase_1,,,,,,,,,,,,,orange,triangle
405.0,8.0,4.0,1.0,1.0,1.0,312.0391629927326,3.0,1.0,phase_1,,,,,,,,,,,,,yellow,I
46.0,1.0,1.0,0.0,4.0,4.0,298.7028009956702,3.0,1.0,phase_1,,,,,,,,,,,,,green,flipped triangle
402.0,4.0,4.0,0.0,1.0,1.0,302.6296650059521,3.0,1.0,phase_1,,,,,,,,,,,,,magenta,hexagon
0.0,4.0,0.0,0.0,1.0,1.0,358.7317950150464,3.0,1.0,phase_1,,,,,,,,,,,,,magenta,hexagon
196.0,7.0,3.0,1.0,3.0,3.0,324.5073159923777,3.0,1.0,phase_1,,,,,,,,,,,,,orange,triangle
66.0,1.0,1.0,0.0,4.0,4.0,312.2302530100569,3.0,1.0,phase_1,,,,,,,,,,,,,green,flipped triangle
216.0,7.0,3.0,1.0,4.0,4.0,323.9318590203766,3.0,1.0,phase_1,,,,,,,,,,,,,orange,triangle
89.0,6.0,2.0,1.0,4.0,4.0,337.1206409938168,3.0,1.0,phase_1,,,,,,,,,,,,,gray,cross
82.0,6.0,2.0,1.0,1.0,1.0,358.6263100150972,3.0,1.0,phase_1,,,,,,,,,,,,,gray,cross
199.0,3.0,3.0,0.0,3.0,3.0,394.9117780139204,3.0,1.0,phase_1,,,,,,,,,,,,,blue,square
0.0,8.0,0.0,1.0,4.0,4.0,339.6160679985769,3.0,1.0,phase_1,,,,,,,,,,,,,yellow,I
113.0,6.0,2.0,1.0,4.0,4.0,315.9826940100174,3.0,1.0,phase_1,,,,,,,,,,,,,gray,cross
64.0,1.0,1.0,0.0,1.0,1.0,388.3813850115984,3.0,1.0,phase_1,,,,,,,,,,,,,green,flipped triangle
387.0,8.0,4.0,1.0,4.0,4.0,311.6389810165856,3.0,1.0,phase_1,,,,,,,,,,,,,yellow,I
109.0,6.0,2.0,1.0,1.0,1.0,336.5500039944891,3.0,1.0,phase_1,,,,,,,,,,,,,gray,cross
81.0,2.0,2.0,0.0,1.0,1.0,346.9025520025752,3.0,1.0,phase_1,,,,,,,,,,,,,cyan,diamond
34.0,1.0,1.0,0.0,4.0,4.0,303.1875430024229,3.0,1.0,phase_1,,,,,,,,,,,,,green,flipped triangle
177.0,7.0,3.0,1.0,4.0,4.0,314.3077490094583,3.0,1.0,phase_1,,,,,,,,,,,,,orange,triangle
403.0,8.0,4.0,1.0,2.0,2.0,419.0473950002342,4.0,1.0,phase_1,,,,,,,,,,,,,yellow,I
219.0,3.0,3.0,0.0,1.0,1.0,349.4494759943336,4.0,1.0,phase_1,,,,,,,,,,,,,blue,square
46.0,5.0,1.0,1.0,2.0,2.0,337.8635289845988,4.0,1.0,phase_1,,,,,,,,,,,,,white,circle
190.0,7.0,3.0,1.0,2.0,2.0,306.0784960107412,4.0,1.0,phase_1,,,,,,,,,,,,,orange,triangle
108.0,2.0,2.0,0.0,2.0,2.0,315.719635982532,4.0,1.0,phase_1,,,,,,,,,,,,,cyan,diamond
71.0,5.0,1.0,1.0,3.0,3.0,342.226576001849,4.0,1.0,phase_1,,,,,,,,,,,,,white,circle
55.0,1.0,1.0,0.0,2.0,2.0,313.4903949976433,4.0,1.0,phase_1,,,,,,,,,,,,,green,flipped triangle
0.0,7.0,0.0,1.0,2.0,2.0,312.3723099997733,4.0,1.0,phase_1,,,,,,,,,,,,,orange,triangle
224.0,3.0,3.0,0.0,3.0,3.0,313.4556879813317,4.0,1.0,phase_1,,,,,,,,,,,,,blue,square
0.0,3.0,0.0,0.0,3.0,3.0,314.2542179848533,4.0,1.0,phase_1,,,,,,,,,,,,,blue,square
221.0,3.0,3.0,0.0,2.0,2.0,325.6285160023253,4.0,1.0,phase_1,,,,,,,,,,,,,blue,square
205.0,7.0,3.0,1.0,4.0,4.0,317.4730740138329,4.0,1.0,phase_1,,,,,,,,,,,,,orange,triangle
202.0,3.0,3.0,0.0,4.0,4.0,284.1716679977253,4.0,1.0,phase_1,,,,,,,,,,,,,blue,square
183.0,3.0,3.0,0.0,4.0,4.0,316.3638030237052,4.0,1.0,phase_1,,,,,,,,,,,,,blue,square
105.0,2.0,2.0,0.0,3.0,3.0,320.9455229807645,4.0,1.0,phase_1,,,,,,,,,,,,,cyan,diamond
377.0,4.0,4.0,0.0,4.0,4.0,309.7624719957821,4.0,1.0,phase_1,,,,,,,,,,,,,magenta,hexagon
0.0,7.0,0.0,1.0,2.0,2.0,366.7383450083434,4.0,1.0,phase_1,,,,,,,,,,,,,orange,triangle
186.0,3.0,3.0,0.0,4.0,4.0,297.0193490036763,4.0,1.0,phase_1,,,,,,,,,,,,,blue,square
424.0,8.0,4.0,1.0,2.0,2.0,318.9783309935592,4.0,1.0,phase_1,,,,,,,,,,,,,yellow,I
115.0,2.0,2.0,0.0,3.0,3.0,300.499992998084,4.0,1.0,phase_1,,,,,,,,,,,,,cyan,diamond
175.0,7.0,3.0,1.0,3.0,3.0,319.8103820031974,4.0,1.0,phase_1,,,,,,,,,,,,,orange,triangle
116.0,2.0,2.0,0.0,3.0,3.0,332.1895010012667,4.0,1.0,phase_1,,,,,,,,,,,,,cyan,diamond
0.0,7.0,0.0,1.0,2.0,2.0,378.8114730268717,4.0,1.0,phase_1,,,,,,,,,,,,,orange,triangle
119.0,2.0,2.0,0.0,2.0,2.0,340.9485949960071,4.0,1.0,phase_1,,,,,,,,,,,,,cyan,diamond
102.0,2.0,2.0,0.0,4.0,4.0,283.7186270044185,4.0,1.0,phase_1,,,,,,,,,,,,,cyan,diamond
190.0,7.0,3.0,1.0,2.0,2.0,297.3399650072679,4.0,1.0,phase_1,,,,,,,,,,,,,orange,triangle
0.0,2.0,0.0,0.0,2.0,2.0,317.3439099919051,4.0,1.0,phase_1,,,,,,,,,,,,,cyan,diamond
113.0,2.0,2.0,0.0,4.0,4.0,297.7643789781723,4.0,1.0,phase_1,,,,,,,,,,,,,cyan,diamond
0.0,4.0,0.0,0.0,3.0,3.0,309.7508230130188,4.0,1.0,phase_1,,,,,,,,,,,,,magenta,hexagon
177.0,3.0,3.0,0.0,1.0,1.0,367.2443539835512,4.0,1.0,phase_1,,,,,,,,,,,,,blue,square
0.0,8.0,0.0,1.0,3.0,3.0,301.0863160016015,4.0,1.0,phase_1,,,,,,,,,,,,,yellow,I
424.0,4.0,4.0,0.0,3.0,3.0,296.2036810058635,4.0,1.0,phase_1,,,,,,,,,,,,,magenta,hexagon
100.0,6.0,2.0,1.0,3.0,3.0,312.7668870147317,4.0,1.0,phase_1,,,,,,,,,,,,,gray,cross
121.0,2.0,2.0,0.0,2.0,2.0,344.3563779874239,4.0,1.0,phase_1,,,,,,,,,,,,,cyan,diamond
190.0,3.0,3.0,0.0,3.0,3.0,325.813053001184,4.0,1.0,phase_1,,,,,,,,,,,,,blue,square
61.0,1.0,1.0,0.0,3.0,3.0,292.4558939994313,4.0,1.0,phase_1,,,,,,,,,,,,,green,flipped triangle
0.0,3.0,0.0,0.0,4.0,4.0,323.7268489901908,4.0,1.0,phase_1,,,,,,,,,,,,,blue,square
86.0,6.0,2.0,1.0,1.0,1.0,391.7765560036059,4.0,1.0,phase_1,,,,,,,,,,,,,gray,cross
105.0,6.0,2.0,1.0,4.0,4.0,326.2100800056942,4.0,1.0,phase_1,,,,,,,,,,,,,gray,cross
0.0,2.0,0.0,0.0,2.0,2.0,313.5232719941996,4.0,1.0,phase_1,,,,,,,,,,,,,cyan,diamond
0.0,6.0,0.0,1.0,2.0,2.0,325.9624320198782,4.0,1.0,phase_1,,,,,,,,,,,,,gray,cross
60.0,1.0,1.0,0.0,4.0,4.0,292.2487769974395,4.0,1.0,phase_1,,,,,,,,,,,,,green,flipped triangle
74.0,5.0,1.0,1.0,3.0,3.0,329.2315339786,4.0,1.0,phase_1,,,,,,,,,,,,,white,circle
376.0,4.0,4.0,0.0,3.0,3.0,327.1416219940875,4.0,1.0,phase_1,,,,,,,,,,,,,magenta,hexagon
200.0,7.0,3.0,1.0,4.0,4.0,316.1656650190707,4.0,1.0,phase_1,,,,,,,,,,,,,orange,triangle
73.0,5.0,1.0,1.0,4.0,4.0,295.1378680008929,4.0,1.0,phase_1,,,,,,,,,,,,,white,circle
191.0,3.0,3.0,0.0,3.0,3.0,366.6843329847324,4.0,1.0,phase_1,,,,,,,,,,,,,blue,square
78.0,6.0,2.0,1.0,1.0,1.0,374.6469419857021,4.0,1.0,phase_1,,,,,,,,,,,,,gray,cross
0.0,3.0,0.0,0.0,4.0,4.0,311.8783679965418,4.0,1.0,phase_1,,,,,,,,,,,,,blue,square
0.0,6.0,0.0,1.0,2.0,2.0,341.5044730063528,4.0,1.0,phase_1,,,,,,,,,,,,,gray,cross
77.0,2.0,2.0,0.0,1.0,1.0,321.7574480222538,4.0,1.0,phase_1,,,,,,,,,,,,,cyan,diamond
202.0,7.0,3.0,1.0,4.0,4.0,277.0660609821789,4.0,1.0,phase_1,,,,,,,,,,,,,orange,triangle
0.0,5.0,0.0,1.0,4.0,4.0,309.8787839990109,4.0,1.0,phase_1,,,,,,,,,,,,,white,circle
0.0,6.0,0.0,1.0,4.0,4.0,300.2569069794845,4.0,1.0,phase_1,,,,,,,,,,,,,gray,cross
0.0,2.0,0.0,0.0,1.0,1.0,321.3337890047114,4.0,1.0,phase_1,,,,,,,,,,,,,cyan,diamond
0.0,3.0,0.0,0.0,1.0,1.0,334.0176659985445,4.0,1.0,phase_1,,,,,,,,,,,,,blue,square
200.0,3.0,3.0,0.0,1.0,1.0,324.2049399996176,4.0,1.0,phase_1,,,,,,,,,,,,,blue,square
78.0,6.0,2.0,1.0,2.0,2.0,348.8202829903457,4.0,1.0,phase_1,,,,,,,,,,,,,gray,cross
0.0,1.0,0.0,0.0,2.0,2.0,337.8565130115021,4.0,1.0,phase_1,,,,,,,,,,,,,green,flipped triangle
98.0,6.0,2.0,1.0,3.0,3.0,317.900642985478,4.0,1.0,phase_1,,,,,,,,,,,,,gray,cross
0.0,4.0,0.0,0.0,2.0,2.0,324.6076999930665,4.0,1.0,phase_1,,,,,,,,,,,,,magenta,hexagon
0.0,1.0,0.0,0.0,2.0,2.0,302.9110399947967,4.0,1.0,phase_1,,,,,,,,,,,,,green,flipped triangle
187.0,7.0,3.0,1.0,4.0,4.0,294.3851680029183,4.0,1.0,phase_1,,,,,,,,,,,,,orange,triangle
408.0,8.0,4.0,1.0,4.0,4.0,295.4651539912447,4.0,1.0,phase_1,,,,,,,,,,,,,yellow,I
185.0,3.0,3.0,0.0,4.0,4.0,276.8444560060743,4.0,1.0,phase_1,,,,,,,,,,,,,blue,square
219.0,7.0,3.0,1.0,2.0,2.0,320.299751998391,4.0,1.0,phase_1,,,,,,,,,,,,,orange,triangle
61.0,5.0,1.0,1.0,2.0,2.0,313.5416109871585,4.0,1.0,phase_1,,,,,,,,,,,,,white,circle
395.0,8.0,4.0,1.0,4.0,4.0,303.1808679807,4.0,1.0,phase_1,,,,,,,,,,,,,yellow,I
0.0,7.0,0.0,1.0,4.0,4.0,313.5611299949232,4.0,1.0,phase_1,,,,,,,,,,,,,orange,triangle
413.0,8.0,4.0,1.0,3.0,3.0,306.3471060013398,4.0,1.0,phase_1,,,,,,,,,,,,,yellow,I
26.0,1.0,1.0,0.0,2.0,2.0,329.5610350032802,4.0,1.0,phase_1,,,,,,,,,,,,,green,flipped triangle
100.0,6.0,2.0,1.0,4.0,4.0,294.5848520030267,4.0,1.0,phase_1,,,,,,,,,,,,,gray,cross
93.0,6.0,2.0,1.0,1.0,1.0,317.1446950000245,4.0,1.0,phase_1,,,,,,,,,,,,,gray,cross
0.0,6.0,0.0,1.0,2.0,2.0,326.3455280102789,4.0,1.0,phase_1,,,,,,,,,,,,,gray,cross
183.0,3.0,3.0,0.0,1.0,1.0,342.9022130148951,4.0,1.0,phase_1,,,,,,,,,,,,,blue,square
120.0,6.0,2.0,1.0,4.0,4.0,272.2283959737979,4.0,1.0,phase_1,,,,,,,,,,,,,gray,cross
60.0,5.0,1.0,1.0,3.0,3.0,310.1236649963539,4.0,1.0,phase_1,,,,,,,,,,,,,white,circle
41.0,5.0,1.0,1.0,3.0,3.0,328.2606239954475,4.0,1.0,phase_1,,,,,,,,,,,,,white,circle
405.0,4.0,4.0,0.0,2.0,2.0,334.8600549797993,4.0,1.0,phase_1,,,,,,,,,,,,,magenta,hexagon
181.0,3.0,3.0,0.0,2.0,2.0,358.452896005474,4.0,1.0,phase_1,,,,,,,,,,,,,blue,square
377.0,4.0,4.0,0.0,2.0,2.0,325.1322300056927,4.0,1.0,phase_1,,,,,,,,,,,,,magenta,hexagon
0.0,3.0,0.0,0.0,4.0,4.0,303.362112987088,4.0,1.0,phase_1,,,,,,,,,,,,,blue,square
410.0,4.0,4.0,0.0,1.0,1.0,362.7160559990443,4.0,1.0,phase_1,,,,,,,,,,,,,magenta,hexagon
46.0,1.0,1.0,0.0,2.0,2.0,341.2541270081419,4.0,1.0,phase_1,,,,,,,,,,,,,green,flipped triangle
0.0,5.0,0.0,1.0,4.0,4.0,296.9961239723488,4.0,1.0,phase_1,,,,,,,,,,,,,white,circle
382.0,8.0,4.0,1.0,3.0,3.0,328.374631004408,4.0,1.0,phase_1,,,,,,,,,,,,,yellow,I
82.0,2.0,2.0,0.0,3.0,3.0,295.7225709978957,4.0,1.0,phase_1,,,,,,,,,,,,,cyan,diamond
57.0,1.0,1.0,0.0,3.0,3.0,321.1036679858807,4.0,1.0,phase_1,,,,,,,,,,,,,green,flipped triangle
0.0,5.0,0.0,1.0,2.0,2.0,355.4722149856388,4.0,1.0,phase_1,,,,,,,,,,,,,white,circle
198.0,3.0,3.0,0.0,2.0,2.0,322.842765977839,4.0,1.0,phase_1,,,,,,,,,,,,,blue,square
408.0,4.0,4.0,0.0,3.0,3.0,301.4799260126892,4.0,1.0,phase_1,,,,,,,,,,,,,magenta,hexagon
178.0,3.0,3.0,0.0,2.0,2.0,333.1828170048538,4.0,1.0,phase_1,,,,,,,,,,,,,blue,square
219.0,3.0,3.0,0.0,3.0,3.0,289.7798670164775,4.0,1.0,phase_1,,,,,,,,,,,,,blue,square
375.0,4.0,4.0,0.0,1.0,1.0,379.2467800085433,4.0,1.0,phase_1,,,,,,,,,,,,,magenta,hexagon
413.0,8.0,4.0,1.0,3.0,3.0,359.4243669940624,4.0,1.0,phase_1,,,,,,,,,,,,,yellow,I
0.0,4.0,0.0,0.0,1.0,1.0,357.4793750012759,4.0,1.0,phase_1,,,,,,,,,,,,,magenta,hexagon
0.0,1.0,0.0,0.0,4.0,4.0,334.5276260224636,4.0,1.0,phase_1,,,,,,,,,,,,,green,flipped triangle
113.0,6.0,2.0,1.0,3.0,3.0,323.5686030238867,4.0,1.0,phase_1,,,,,,,,,,,,,gray,cross
68.0,5.0,1.0,1.0,2.0,2.0,336.2725329934619,4.0,1.0,phase_1,,,,,,,,,,,,,white,circle
91.0,6.0,2.0,1.0,1.0,1.0,329.2509790044278,4.0,1.0,phase_1,,,,,,,,,,,,,gray,cross
0.0,7.0,3.0,1.0,6.0,6.0,592.6864620123524,1.0,1.0,phase_2,stop,250.0,250.0,3.0,,,,,,,,,orange,triangle
0.0,8.0,4.0,1.0,6.0,6.0,437.991694023367,1.0,1.0,phase_2,stop,250.0,200.0,3.0,,,,,,,,,yellow,I
0.0,4.0,4.0,0.0,6.0,6.0,577.0091709855478,1.0,1.0,phase_2,go,250.0,150.0,1.0,,,,,,,,,magenta,hexagon
0.0,1.0,1.0,0.0,5.0,5.0,441.4908510225359,1.0,1.0,phase_2,go,250.0,150.0,1.0,,,,,,,,,green,flipped triangle
0.0,4.0,4.0,0.0,6.0,6.0,556.5379929903429,1.0,1.0,phase_2,go,250.0,150.0,1.0,,,,,,,,,magenta,hexagon
0.0,4.0,4.0,0.0,6.0,6.0,366.8673130159732,1.0,1.0,phase_2,go,250.0,150.0,1.0,,,,,,,,,magenta,hexagon
0.0,5.0,1.0,1.0,5.0,5.0,332.6526729797479,1.0,1.0,phase_2,go,250.0,150.0,1.0,,,,,,,,,white,circle
0.0,5.0,1.0,1.0,5.0,5.0,376.1307740060147,1.0,1.0,phase_2,stop,250.0,150.0,3.0,,,,,,,,,white,circle
0.0,2.0,2.0,0.0,6.0,6.0,488.6818199884146,1.0,1.0,phase_2,go,200.0,150.0,1.0,,,,,,,,,cyan,diamond
0.0,6.0,2.0,1.0,5.0,5.0,504.1084919939749,1.0,1.0,phase_2,go,200.0,150.0,1.0,,,,,,,,,gray,cross
0.0,7.0,3.0,1.0,5.0,0.0,0.0,1.0,1.0,phase_2,stop,200.0,150.0,4.0,,,,,,,,,orange,triangle
0.0,2.0,2.0,0.0,6.0,6.0,529.0152789966669,1.0,1.0,phase_2,go,250.0,150.0,1.0,,,,,,,,,cyan,diamond
0.0,7.0,3.0,1.0,5.0,0.0,0.0,1.0,1.0,phase_2,stop,250.0,150.0,4.0,,,,,,,,,orange,triangle
0.0,1.0,1.0,0.0,6.0,6.0,471.0768430086318,1.0,1.0,phase_2,go,300.0,150.0,1.0,,,,,,,,,green,flipped triangle
0.0,8.0,4.0,1.0,6.0,0.0,0.0,1.0,1.0,phase_2,stop,300.0,150.0,4.0,,,,,,,,,yellow,I
0.0,5.0,1.0,1.0,6.0,0.0,0.0,1.0,1.0,phase_2,stop,300.0,200.0,4.0,,,,,,,,,white,circle
0.0,1.0,1.0,0.0,6.0,6.0,596.9523040112108,1.0,1.0,phase_2,go,300.0,250.0,1.0,,,,,,,,,green,flipped triangle
0.0,6.0,2.0,1.0,5.0,0.0,0.0,1.0,1.0,phase_2,stop,300.0,250.0,4.0,,,,,,,,,gray,cross
0.0,2.0,2.0,0.0,6.0,6.0,613.2946670113597,1.0,1.0,phase_2,go,350.0,250.0,1.0,,,,,,,,,cyan,diamond
0.0,8.0,4.0,1.0,6.0,0.0,0.0,1.0,1.0,phase_2,stop,350.0,250.0,4.0,,,,,,,,,yellow,I
0.0,1.0,1.0,0.0,5.0,5.0,487.839287990937,1.0,1.0,phase_2,go,350.0,300.0,1.0,,,,,,,,,green,flipped triangle
0.0,2.0,2.0,0.0,5.0,5.0,600.9080320072826,1.0,1.0,phase_2,go,350.0,300.0,1.0,,,,,,,,,cyan,diamond
0.0,8.0,4.0,1.0,5.0,5.0,444.997776998207,1.0,1.0,phase_2,stop,350.0,300.0,3.0,,,,,,,,,yellow,I
0.0,3.0,3.0,0.0,6.0,6.0,715.1445510098711,1.0,1.0,phase_2,go,300.0,300.0,1.0,,,,,,,,,blue,square
0.0,8.0,4.0,1.0,5.0,5.0,675.4291389952414,1.0,1.0,phase_2,go,300.0,300.0,1.0,,,,,,,,,yellow,I
0.0,1.0,1.0,0.0,6.0,6.0,720.9171660069842,1.0,1.0,phase_2,go,300.0,300.0,1.0,,,,,,,,,green,flipped triangle
0.0,5.0,1.0,1.0,6.0,0.0,0.0,1.0,1.0,phase_2,stop,300.0,300.0,4.0,,,,,,,,,white,circle
0.0,4.0,4.0,0.0,5.0,5.0,439.5280089811422,1.0,1.0,phase_2,go,300.0,350.0,1.0,,,,,,,,,magenta,hexagon
0.0,3.0,3.0,0.0,5.0,5.0,610.4078899952583,1.0,1.0,phase_2,go,300.0,350.0,1.0,,,,,,,,,blue,square
0.0,1.0,1.0,0.0,5.0,5.0,641.1619799910113,1.0,1.0,phase_2,go,300.0,350.0,1.0,,,,,,,,,green,flipped triangle
0.0,7.0,3.0,1.0,5.0,5.0,745.1117299788166,1.0,1.0,phase_2,go,300.0,350.0,1.0,,,,,,,,,orange,triangle
0.0,1.0,1.0,0.0,6.0,6.0,530.3825610026252,1.0,1.0,phase_2,go,300.0,350.0,1.0,,,,,,,,,green,flipped triangle
0.0,7.0,3.0,1.0,6.0,6.0,453.1948730000295,1.0,1.0,phase_2,stop,300.0,350.0,3.0,,,,,,,,,orange,triangle
0.0,8.0,4.0,1.0,6.0,0.0,0.0,1.0,1.0,phase_2,stop,300.0,300.0,4.0,,,,,,,,,yellow,I
0.0,6.0,2.0,1.0,5.0,0.0,0.0,1.0,1.0,phase_2,stop,300.0,350.0,4.0,,,,,,,,,gray,cross
0.0,4.0,4.0,0.0,5.0,5.0,716.4491469739005,1.0,1.0,phase_2,go,350.0,350.0,1.0,,,,,,,,,magenta,hexagon
0.0,6.0,2.0,1.0,5.0,5.0,682.6996069867164,2.0,1.0,phase_2,go,350.0,350.0,1.0,,,,,,,,,gray,cross
0.0,5.0,1.0,1.0,5.0,5.0,434.368544985773,2.0,1.0,phase_2,go,350.0,350.0,1.0,,,,,,,,,white,circle
0.0,1.0,1.0,0.0,6.0,6.0,379.9451809900347,2.0,1.0,phase_2,go,350.0,350.0,1.0,,,,,,,,,green,flipped triangle
0.0,3.0,3.0,0.0,6.0,6.0,350.6219109985977,2.0,1.0,phase_2,go,350.0,350.0,1.0,,,,,,,,,blue,square
0.0,4.0,4.0,0.0,6.0,6.0,361.5822489955462,2.0,1.0,phase_2,go,350.0,350.0,1.0,,,,,,,,,magenta,hexagon
0.0,2.0,2.0,0.0,5.0,5.0,284.4596699869726,2.0,1.0,phase_2,go,350.0,350.0,1.0,,,,,,,,,cyan,diamond
0.0,7.0,3.0,1.0,5.0,5.0,329.1452279954683,2.0,1.0,phase_2,stop,350.0,350.0,3.0,,,,,,,,,orange,triangle
0.0,5.0,1.0,1.0,5.0,5.0,430.8607149869203,2.0,1.0,phase_2,stop,300.0,350.0,3.0,,,,,,,,,white,circle
0.0,8.0,4.0,1.0,5.0,0.0,0.0,2.0,1.0,phase_2,stop,250.0,350.0,4.0,,,,,,,,,yellow,I
0.0,2.0,2.0,0.0,5.0,5.0,689.0322859981097,2.0,1.0,phase_2,go,300.0,350.0,1.0,,,,,,,,,cyan,diamond
0.0,8.0,4.0,1.0,6.0,0.0,0.0,2.0,1.0,phase_2,stop,300.0,350.0,4.0,,,,,,,,,yellow,I
0.0,5.0,1.0,1.0,5.0,5.0,435.9596940048504,2.0,1.0,phase_2,stop,300.0,400.0,3.0,,,,,,,,,white,circle
0.0,3.0,3.0,0.0,6.0,6.0,839.6583460271358,2.0,1.0,phase_2,go,250.0,400.0,1.0,,,,,,,,,blue,square
0.0,4.0,4.0,0.0,5.0,5.0,774.6154050109908,2.0,1.0,phase_2,go,250.0,400.0,1.0,,,,,,,,,magenta,hexagon
0.0,5.0,1.0,1.0,6.0,0.0,0.0,2.0,1.0,phase_2,stop,250.0,400.0,4.0,,,,,,,,,white,circle
0.0,6.0,2.0,1.0,5.0,0.0,0.0,2.0,1.0,phase_2,stop,250.0,450.0,4.0,,,,,,,,,gray,cross
0.0,3.0,3.0,0.0,6.0,6.0,754.3137249886058,2.0,1.0,phase_2,go,300.0,450.0,1.0,,,,,,,,,blue,square
0.0,7.0,3.0,1.0,5.0,0.0,0.0,2.0,1.0,phase_2,stop,300.0,450.0,4.0,,,,,,,,,orange,triangle
0.0,6.0,2.0,1.0,6.0,6.0,1023.0177050107161,2.0,1.0,phase_2,go,350.0,450.0,1.0,,,,,,,,,gray,cross
0.0,1.0,1.0,0.0,6.0,6.0,823.6123880196828,2.0,1.0,phase_2,go,350.0,450.0,1.0,,,,,,,,,green,flipped triangle
0.0,6.0,2.0,1.0,6.0,0.0,0.0,2.0,1.0,phase_2,stop,350.0,450.0,4.0,,,,,,,,,gray,cross
0.0,4.0,4.0,0.0,5.0,5.0,667.0655990019441,2.0,1.0,phase_2,go,350.0,500.0,1.0,,,,,,,,,magenta,hexagon
0.0,6.0,2.0,1.0,6.0,6.0,526.2949450116139,2.0,1.0,phase_2,stop,350.0,500.0,3.0,,,,,,,,,gray,cross
0.0,3.0,3.0,0.0,5.0,5.0,734.6378439979162,2.0,1.0,phase_2,go,350.0,450.0,1.0,,,,,,,,,blue,square
0.0,8.0,4.0,1.0,5.0,0.0,0.0,2.0,1.0,phase_2,stop,350.0,450.0,4.0,,,,,,,,,yellow,I
0.0,6.0,2.0,1.0,6.0,6.0,755.1149679929949,2.0,1.0,phase_2,go,400.0,450.0,1.0,,,,,,,,,gray,cross
0.0,4.0,4.0,0.0,5.0,5.0,655.5628550122492,2.0,1.0,phase_2,go,400.0,450.0,1.0,,,,,,,,,magenta,hexagon
0.0,3.0,3.0,0.0,5.0,5.0,541.5765829966404,2.0,1.0,phase_2,go,400.0,450.0,1.0,,,,,,,,,blue,square
0.0,8.0,4.0,1.0,5.0,0.0,0.0,2.0,1.0,phase_2,stop,400.0,450.0,4.0,,,,,,,,,yellow,I
0.0,4.0,4.0,0.0,5.0,5.0,623.361816018587,2.0,1.0,phase_2,go,450.0,450.0,1.0,,,,,,,,,magenta,hexagon
0.0,8.0,4.0,1.0,5.0,5.0,444.559133000439,2.0,1.0,phase_2,stop,450.0,450.0,3.0,,,,,,,,,yellow,I
0.0,7.0,3.0,1.0,5.0,0.0,0.0,2.0,1.0,phase_2,stop,400.0,450.0,4.0,,,,,,,,,orange,triangle
0.0,4.0,4.0,0.0,6.0,6.0,750.353053008439,2.0,1.0,phase_2,go,450.0,450.0,1.0,,,,,,,,,magenta,hexagon
0.0,7.0,3.0,1.0,6.0,6.0,741.215521004051,2.0,1.0,phase_2,go,450.0,450.0,1.0,,,,,,,,,orange,triangle
0.0,3.0,3.0,0.0,6.0,6.0,613.8471229933202,2.0,1.0,phase_2,go,450.0,450.0,1.0,,,,,,,,,blue,square
0.0,3.0,3.0,0.0,5.0,5.0,796.9242660037708,2.0,1.0,phase_2,go,450.0,450.0,1.0,,,,,,,,,blue,square
0.0,8.0,4.0,1.0,5.0,5.0,492.9409769829362,3.0,1.0,phase_2,stop,450.0,450.0,3.0,,,,,,,,,yellow,I
0.0,5.0,1.0,1.0,5.0,5.0,516.8177849845961,3.0,1.0,phase_2,stop,400.0,450.0,3.0,,,,,,,,,white,circle
0.0,2.0,2.0,0.0,5.0,5.0,642.7548399951775,3.0,1.0,phase_2,go,350.0,450.0,1.0,,,,,,,,,cyan,diamond
0.0,7.0,3.0,1.0,5.0,0.0,0.0,3.0,1.0,phase_2,stop,350.0,450.0,4.0,,,,,,,,,orange,triangle
0.0,4.0,4.0,0.0,6.0,6.0,309.381878003478,3.0,1.0,phase_2,go,400.0,450.0,1.0,,,,,,,,,magenta,hexagon
0.0,5.0,1.0,1.0,5.0,0.0,0.0,3.0,1.0,phase_2,stop,400.0,450.0,4.0,,,,,,,,,white,circle
0.0,6.0,2.0,1.0,6.0,0.0,0.0,3.0,1.0,phase_2,stop,450.0,450.0,4.0,,,,,,,,,gray,cross
0.0,2.0,2.0,0.0,6.0,6.0,601.2061739747878,3.0,1.0,phase_2,go,450.0,500.0,1.0,,,,,,,,,cyan,diamond
0.0,1.0,1.0,0.0,5.0,5.0,605.1707089936826,3.0,1.0,phase_2,go,450.0,500.0,1.0,,,,,,,,,green,flipped triangle
0.0,5.0,1.0,1.0,6.0,6.0,570.2310960041359,3.0,1.0,phase_2,stop,450.0,500.0,3.0,,,,,,,,,white,circle
0.0,3.0,3.0,0.0,5.0,5.0,592.1859240042977,3.0,1.0,phase_2,go,450.0,450.0,1.0,,,,,,,,,blue,square
0.0,7.0,3.0,1.0,6.0,6.0,660.0476400053594,3.0,1.0,phase_2,go,450.0,450.0,1.0,,,,,,,,,orange,triangle
0.0,2.0,2.0,0.0,5.0,5.0,480.8153620106168,3.0,1.0,phase_2,go,450.0,450.0,1.0,,,,,,,,,cyan,diamond
0.0,5.0,1.0,1.0,5.0,5.0,439.4056489982176,3.0,1.0,phase_2,stop,450.0,450.0,3.0,,,,,,,,,white,circle
0.0,7.0,3.0,1.0,5.0,0.0,0.0,3.0,1.0,phase_2,stop,400.0,450.0,4.0,,,,,,,,,orange,triangle
0.0,5.0,1.0,1.0,6.0,6.0,476.9386939879041,3.0,1.0,phase_2,stop,450.0,450.0,3.0,,,,,,,,,white,circle
0.0,8.0,4.0,1.0,5.0,5.0,630.1693869754672,3.0,1.0,phase_2,go,450.0,400.0,1.0,,,,,,,,,yellow,I
0.0,3.0,3.0,0.0,5.0,5.0,646.6504890122451,3.0,1.0,phase_2,go,450.0,400.0,1.0,,,,,,,,,blue,square
0.0,7.0,3.0,1.0,5.0,5.0,509.54744999762625,3.0,1.0,phase_2,stop,450.0,400.0,3.0,,,,,,,,,orange,triangle
0.0,3.0,3.0,0.0,6.0,6.0,691.4154300175142,3.0,1.0,phase_2,go,400.0,400.0,1.0,,,,,,,,,blue,square
0.0,4.0,4.0,0.0,5.0,5.0,657.067388005089,3.0,1.0,phase_2,go,400.0,400.0,1.0,,,,,,,,,magenta,hexagon
0.0,1.0,1.0,0.0,5.0,5.0,435.3033069928642,3.0,1.0,phase_2,go,400.0,400.0,1.0,,,,,,,,,green,flipped triangle
0.0,6.0,2.0,1.0,6.0,6.0,347.0807689882349,3.0,1.0,phase_2,stop,400.0,400.0,3.0,,,,,,,,,gray,cross
0.0,2.0,2.0,0.0,6.0,6.0,423.0148100177757,3.0,1.0,phase_2,go,400.0,350.0,1.0,,,,,,,,,cyan,diamond
0.0,7.0,3.0,1.0,6.0,6.0,391.4559370023198,3.0,1.0,phase_2,stop,400.0,350.0,3.0,,,,,,,,,orange,triangle
0.0,7.0,3.0,1.0,5.0,0.0,0.0,3.0,1.0,phase_2,stop,400.0,300.0,4.0,,,,,,,,,orange,triangle
0.0,4.0,4.0,0.0,6.0,6.0,661.4839719841257,3.0,1.0,phase_2,go,450.0,300.0,1.0,,,,,,,,,magenta,hexagon
0.0,2.0,2.0,0.0,5.0,5.0,414.7969300101977,3.0,1.0,phase_2,go,450.0,300.0,1.0,,,,,,,,,cyan,diamond
0.0,1.0,1.0,0.0,5.0,5.0,362.5801150046754,3.0,1.0,phase_2,go,450.0,300.0,1.0,,,,,,,,,green,flipped triangle
0.0,5.0,1.0,1.0,6.0,6.0,285.51367399632,3.0,1.0,phase_2,stop,450.0,300.0,3.0,,,,,,,,,white,circle
0.0,6.0,2.0,1.0,5.0,5.0,511.3958849979099,3.0,1.0,phase_2,stop,450.0,250.0,3.0,,,,,,,,,gray,cross
0.0,5.0,1.0,1.0,6.0,6.0,791.7055010038894,3.0,1.0,phase_2,go,400.0,250.0,1.0,,,,,,,,,white,circle
0.0,2.0,2.0,0.0,6.0,6.0,678.1743289902806,3.0,1.0,phase_2,go,400.0,250.0,1.0,,,,,,,,,cyan,diamond
0.0,2.0,2.0,0.0,6.0,6.0,746.0573790012859,3.0,1.0,phase_2,go,400.0,250.0,1.0,,,,,,,,,cyan,diamond
0.0,3.0,3.0,0.0,5.0,5.0,446.5927709825337,3.0,1.0,phase_2,go,400.0,250.0,1.0,,,,,,,,,blue,square
0.0,8.0,4.0,1.0,5.0,5.0,369.2898830049671,3.0,1.0,phase_2,stop,400.0,250.0,3.0,,,,,,,,,yellow,I
0.0,3.0,3.0,0.0,6.0,6.0,777.5482240249403,4.0,1.0,phase_2,go,350.0,250.0,1.0,,,,,,,,,blue,square
0.0,8.0,4.0,1.0,5.0,5.0,362.8102820075582,4.0,1.0,phase_2,go,350.0,250.0,1.0,,,,,,,,,yellow,I
0.0,3.0,3.0,0.0,6.0,6.0,321.3479660043958,4.0,1.0,phase_2,go,350.0,250.0,1.0,,,,,,,,,blue,square
0.0,2.0,2.0,0.0,5.0,5.0,329.0541360038332,4.0,1.0,phase_2,go,350.0,250.0,1.0,,,,,,,,,cyan,diamond
0.0,2.0,2.0,0.0,6.0,6.0,299.7865899815224,4.0,1.0,phase_2,go,350.0,250.0,1.0,,,,,,,,,cyan,diamond
0.0,7.0,3.0,1.0,6.0,6.0,399.6690049825702,4.0,1.0,phase_2,go,350.0,250.0,1.0,,,,,,,,,orange,triangle
0.0,4.0,4.0,0.0,6.0,6.0,446.6781509981956,4.0,1.0,phase_2,go,350.0,250.0,1.0,,,,,,,,,magenta,hexagon
0.0,7.0,3.0,1.0,6.0,6.0,302.0126330084167,4.0,1.0,phase_2,stop,350.0,250.0,3.0,,,,,,,,,orange,triangle
0.0,2.0,2.0,0.0,5.0,5.0,334.7318560117855,4.0,1.0,phase_2,go,350.0,200.0,1.0,,,,,,,,,cyan,diamond
0.0,8.0,4.0,1.0,6.0,0.0,0.0,4.0,1.0,phase_2,stop,350.0,200.0,4.0,,,,,,,,,yellow,I
0.0,6.0,2.0,1.0,6.0,0.0,0.0,4.0,1.0,phase_2,stop,350.0,250.0,4.0,,,,,,,,,gray,cross
0.0,1.0,1.0,0.0,5.0,5.0,459.568460995797,4.0,1.0,phase_2,go,350.0,300.0,1.0,,,,,,,,,green,flipped triangle
0.0,7.0,3.0,1.0,6.0,0.0,0.0,4.0,1.0,phase_2,stop,350.0,300.0,4.0,,,,,,,,,orange,triangle
0.0,2.0,2.0,0.0,5.0,5.0,408.4608120028861,4.0,1.0,phase_2,go,350.0,350.0,1.0,,,,,,,,,cyan,diamond
0.0,4.0,4.0,0.0,6.0,6.0,623.1636370066553,4.0,1.0,phase_2,go,350.0,350.0,1.0,,,,,,,,,magenta,hexagon
0.0,1.0,1.0,0.0,6.0,6.0,398.1550580065232,4.0,1.0,phase_2,go,350.0,350.0,1.0,,,,,,,,,green,flipped triangle
0.0,7.0,3.0,1.0,5.0,0.0,0.0,4.0,1.0,phase_2,stop,350.0,350.0,4.0,,,,,,,,,orange,triangle
0.0,2.0,2.0,0.0,5.0,5.0,419.6975770173594,4.0,1.0,phase_2,go,400.0,350.0,1.0,,,,,,,,,cyan,diamond
0.0,5.0,1.0,1.0,6.0,0.0,0.0,4.0,1.0,phase_2,stop,400.0,350.0,4.0,,,,,,,,,white,circle
0.0,6.0,2.0,1.0,5.0,5.0,458.8418529892806,4.0,1.0,phase_2,stop,400.0,400.0,3.0,,,,,,,,,gray,cross
0.0,1.0,1.0,0.0,5.0,5.0,696.7947949888185,4.0,1.0,phase_2,go,350.0,400.0,1.0,,,,,,,,,green,flipped triangle
0.0,3.0,3.0,0.0,6.0,6.0,660.3032760031056,4.0,1.0,phase_2,go,350.0,400.0,1.0,,,,,,,,,blue,square
0.0,2.0,2.0,0.0,6.0,6.0,448.7414670002181,4.0,1.0,phase_2,go,350.0,400.0,1.0,,,,,,,,,cyan,diamond
0.0,6.0,2.0,1.0,5.0,5.0,530.0948410003912,4.0,1.0,phase_2,stop,350.0,400.0,3.0,,,,,,,,,gray,cross
0.0,4.0,4.0,0.0,6.0,6.0,606.1514359898865,4.0,1.0,phase_2,go,300.0,400.0,1.0,,,,,,,,,magenta,hexagon
0.0,3.0,3.0,0.0,6.0,6.0,439.6186669764574,4.0,1.0,phase_2,go,300.0,400.0,1.0,,,,,,,,,blue,square
0.0,7.0,3.0,1.0,6.0,6.0,675.7019509968814,4.0,1.0,phase_2,go,300.0,400.0,1.0,,,,,,,,,orange,triangle
0.0,8.0,4.0,1.0,5.0,5.0,349.8298100021202,4.0,1.0,phase_2,stop,300.0,400.0,3.0,,,,,,,,,yellow,I
0.0,2.0,2.0,0.0,5.0,5.0,733.6039049841929,4.0,1.0,phase_2,go,250.0,400.0,1.0,,,,,,,,,cyan,diamond
0.0,6.0,2.0,1.0,6.0,6.0,591.2117999978364,4.0,1.0,phase_2,go,250.0,400.0,1.0,,,,,,,,,gray,cross
0.0,5.0,1.0,1.0,6.0,6.0,466.598550992785,4.0,1.0,phase_2,stop,250.0,400.0,3.0,,,,,,,,,white,circle
0.0,1.0,1.0,0.0,6.0,6.0,634.289200999774,4.0,1.0,phase_2,go,250.0,350.0,1.0,,,,,,,,,green,flipped triangle
0.0,4.0,4.0,0.0,6.0,6.0,479.9935170158278,4.0,1.0,phase_2,go,250.0,350.0,1.0,,,,,,,,,magenta,hexagon
0.0,4.0,4.0,0.0,6.0,6.0,457.2976180061232,4.0,1.0,phase_2,go,250.0,350.0,1.0,,,,,,,,,magenta,hexagon
0.0,1.0,1.0,0.0,6.0,6.0,617.4912230053451,4.0,1.0,phase_2,go,250.0,350.0,1.0,,,,,,,,,green,flipped triangle
0.0,3.0,3.0,0.0,5.0,5.0,573.5701349913143,4.0,1.0,phase_2,go,250.0,350.0,1.0,,,,,,,,,blue,square
0.0,2.0,2.0,0.0,6.0,6.0,375.3222280065529,5.0,1.0,phase_2,go,250.0,350.0,1.0,,,,,,,,,cyan,diamond
0.0,6.0,2.0,1.0,5.0,5.0,362.7204990189057,5.0,1.0,phase_2,stop,250.0,350.0,3.0,,,,,,,,,gray,cross
0.0,3.0,3.0,0.0,6.0,6.0,353.7256609997712,5.0,1.0,phase_2,go,200.0,350.0,1.0,,,,,,,,,blue,square
0.0,3.0,3.0,0.0,6.0,6.0,397.1344259916805,5.0,1.0,phase_2,go,200.0,350.0,1.0,,,,,,,,,blue,square
0.0,1.0,1.0,0.0,5.0,5.0,576.9130999979097,5.0,1.0,phase_2,go,200.0,350.0,1.0,,,,,,,,,green,flipped triangle
0.0,5.0,1.0,1.0,6.0,6.0,411.6454570030328,5.0,1.0,phase_2,stop,200.0,350.0,3.0,,,,,,,,,white,circle
0.0,8.0,4.0,1.0,6.0,6.0,499.654407001799,5.0,1.0,phase_2,go,200.0,300.0,1.0,,,,,,,,,yellow,I
0.0,1.0,1.0,0.0,6.0,6.0,512.5108990177978,5.0,1.0,phase_2,go,200.0,300.0,1.0,,,,,,,,,green,flipped triangle
0.0,5.0,1.0,1.0,6.0,6.0,448.6375320120714,5.0,1.0,phase_2,stop,200.0,300.0,3.0,,,,,,,,,white,circle
0.0,5.0,1.0,1.0,5.0,5.0,652.5108570058364,5.0,1.0,phase_2,go,200.0,250.0,1.0,,,,,,,,,white,circle
0.0,8.0,4.0,1.0,5.0,5.0,616.0473189956974,5.0,1.0,phase_2,go,200.0,250.0,1.0,,,,,,,,,yellow,I
0.0,2.0,2.0,0.0,6.0,6.0,429.4485930004157,5.0,1.0,phase_2,go,200.0,250.0,1.0,,,,,,,,,cyan,diamond
0.0,7.0,3.0,1.0,6.0,0.0,0.0,5.0,1.0,phase_2,stop,200.0,250.0,4.0,,,,,,,,,orange,triangle
0.0,3.0,3.0,0.0,6.0,6.0,531.8219519976992,5.0,1.0,phase_2,go,200.0,300.0,1.0,,,,,,,,,blue,square
0.0,1.0,1.0,0.0,5.0,5.0,664.084576012101,5.0,1.0,phase_2,go,200.0,300.0,1.0,,,,,,,,,green,flipped triangle
0.0,8.0,4.0,1.0,5.0,0.0,0.0,5.0,1.0,phase_2,stop,200.0,300.0,4.0,,,,,,,,,yellow,I
0.0,8.0,4.0,1.0,6.0,6.0,283.2561729883309,5.0,1.0,phase_2,stop,250.0,300.0,3.0,,,,,,,,,yellow,I
0.0,4.0,4.0,0.0,5.0,5.0,554.9778930144385,5.0,1.0,phase_2,go,250.0,250.0,1.0,,,,,,,,,magenta,hexagon
0.0,6.0,2.0,1.0,5.0,5.0,353.4559950057883,5.0,1.0,phase_2,stop,250.0,250.0,3.0,,,,,,,,,gray,cross
0.0,3.0,3.0,0.0,5.0,5.0,600.5456679849885,5.0,1.0,phase_2,go,200.0,250.0,1.0,,,,,,,,,blue,square
0.0,5.0,1.0,1.0,5.0,5.0,447.7089100109879,5.0,1.0,phase_2,go,200.0,250.0,1.0,,,,,,,,,white,circle
0.0,1.0,1.0,0.0,6.0,6.0,478.7175280216615,5.0,1.0,phase_2,go,200.0,250.0,1.0,,,,,,,,,green,flipped triangle
0.0,1.0,1.0,0.0,6.0,6.0,370.5500420182943,5.0,1.0,phase_2,go,200.0,250.0,1.0,,,,,,,,,green,flipped triangle
0.0,8.0,4.0,1.0,6.0,6.0,346.2148389953654,5.0,1.0,phase_2,stop,200.0,250.0,3.0,,,,,,,,,yellow,I
0.0,6.0,2.0,1.0,6.0,0.0,0.0,5.0,1.0,phase_2,stop,200.0,200.0,4.0,,,,,,,,,gray,cross
0.0,3.0,3.0,0.0,5.0,5.0,394.9726979772094,5.0,1.0,phase_2,go,200.0,250.0,1.0,,,,,,,,,blue,square
0.0,4.0,4.0,0.0,5.0,5.0,418.3432399877347,5.0,1.0,phase_2,go,200.0,250.0,1.0,,,,,,,,,magenta,hexagon
0.0,8.0,4.0,1.0,6.0,0.0,0.0,5.0,1.0,phase_2,stop,200.0,250.0,4.0,,,,,,,,,yellow,I
0.0,6.0,2.0,1.0,6.0,0.0,0.0,5.0,1.0,phase_2,stop,200.0,300.0,4.0,,,,,,,,,gray,cross
0.0,3.0,3.0,0.0,6.0,6.0,646.7464070010465,5.0,1.0,phase_2,go,200.0,350.0,1.0,,,,,,,,,blue,square
0.0,4.0,4.0,0.0,6.0,6.0,398.7769640225451,5.0,1.0,phase_2,go,200.0,350.0,1.0,,,,,,,,,magenta,hexagon
0.0,6.0,2.0,1.0,6.0,6.0,419.7172510030214,5.0,1.0,phase_2,stop,200.0,350.0,3.0,,,,,,,,,gray,cross
0.0,7.0,3.0,1.0,6.0,0.0,0.0,5.0,1.0,phase_2,stop,200.0,300.0,4.0,,,,,,,,,orange,triangle
0.0,5.0,1.0,1.0,6.0,0.0,0.0,5.0,1.0,phase_2,stop,200.0,350.0,4.0,,,,,,,,,white,circle
0.0,1.0,1.0,0.0,5.0,5.0,444.4059939996805,5.0,1.0,phase_2,go,200.0,400.0,1.0,,,,,,,,,green,flipped triangle
0.0,2.0,2.0,0.0,6.0,6.0,524.5583769865334,5.0,1.0,phase_2,go,200.0,400.0,1.0,,,,,,,,,cyan,diamond
0.0,2.0,2.0,0.0,6.0,6.0,402.9597960179671,6.0,1.0,phase_2,go,200.0,400.0,1.0,,,,,,,,,cyan,diamond
0.0,7.0,3.0,1.0,5.0,5.0,322.258525993675,6.0,1.0,phase_2,stop,200.0,400.0,3.0,,,,,,,,,orange,triangle
0.0,8.0,4.0,1.0,5.0,0.0,0.0,6.0,1.0,phase_2,stop,150.0,400.0,4.0,,,,,,,,,yellow,I
0.0,8.0,4.0,1.0,6.0,6.0,357.0622949919197,6.0,1.0,phase_2,stop,200.0,400.0,3.0,,,,,,,,,yellow,I
0.0,7.0,3.0,1.0,6.0,6.0,561.9763899885584,6.0,1.0,phase_2,go,200.0,350.0,1.0,,,,,,,,,orange,triangle
0.0,2.0,2.0,0.0,5.0,5.0,406.9909680110868,6.0,1.0,phase_2,go,200.0,350.0,1.0,,,,,,,,,cyan,diamond
0.0,6.0,2.0,1.0,6.0,6.0,394.8421120003331,6.0,1.0,phase_2,go,200.0,350.0,1.0,,,,,,,,,gray,cross
0.0,3.0,3.0,0.0,5.0,5.0,360.8193999971263,6.0,1.0,phase_2,go,200.0,350.0,1.0,,,,,,,,,blue,square
0.0,8.0,4.0,1.0,5.0,5.0,364.8804769909475,6.0,1.0,phase_2,go,200.0,350.0,1.0,,,,,,,,,yellow,I
0.0,4.0,4.0,0.0,5.0,5.0,375.9256880148314,6.0,1.0,phase_2,go,200.0,350.0,1.0,,,,,,,,,magenta,hexagon
0.0,2.0,2.0,0.0,5.0,5.0,399.8745639983099,6.0,1.0,phase_2,go,200.0,350.0,1.0,,,,,,,,,cyan,diamond
0.0,2.0,2.0,0.0,6.0,6.0,468.6862000089604,6.0,1.0,phase_2,go,200.0,350.0,1.0,,,,,,,,,cyan,diamond
0.0,8.0,4.0,1.0,6.0,6.0,412.385423987871,6.0,1.0,phase_2,stop,200.0,350.0,3.0,,,,,,,,,yellow,I
0.0,8.0,4.0,1.0,6.0,0.0,0.0,6.0,1.0,phase_2,stop,200.0,300.0,4.0,,,,,,,,,yellow,I
0.0,7.0,3.0,1.0,6.0,6.0,373.4298560011666,6.0,1.0,phase_2,stop,200.0,350.0,3.0,,,,,,,,,orange,triangle
0.0,1.0,1.0,0.0,6.0,6.0,606.0107419907581,6.0,1.0,phase_2,go,200.0,300.0,1.0,,,,,,,,,green,flipped triangle
0.0,5.0,1.0,1.0,5.0,5.0,447.622343985131,6.0,1.0,phase_2,go,200.0,300.0,1.0,,,,,,,,,white,circle
0.0,2.0,2.0,0.0,6.0,6.0,326.0452649847138,6.0,1.0,phase_2,go,200.0,300.0,1.0,,,,,,,,,cyan,diamond
0.0,5.0,1.0,1.0,6.0,6.0,396.1723009997513,6.0,1.0,phase_2,go,200.0,300.0,1.0,,,,,,,,,white,circle
0.0,5.0,1.0,1.0,5.0,0.0,0.0,6.0,1.0,phase_2,stop,200.0,300.0,4.0,,,,,,,,,white,circle
0.0,1.0,1.0,0.0,6.0,6.0,495.2137779910117,6.0,1.0,phase_2,go,250.0,300.0,1.0,,,,,,,,,green,flipped triangle
0.0,3.0,3.0,0.0,5.0,5.0,510.5219249962829,6.0,1.0,phase_2,go,250.0,300.0,1.0,,,,,,,,,blue,square
0.0,4.0,4.0,0.0,5.0,5.0,519.706101011252,6.0,1.0,phase_2,go,250.0,300.0,1.0,,,,,,,,,magenta,hexagon
0.0,1.0,1.0,0.0,5.0,5.0,467.7631829981692,6.0,1.0,phase_2,go,250.0,300.0,1.0,,,,,,,,,green,flipped triangle
0.0,8.0,4.0,1.0,5.0,5.0,386.6114350093994,6.0,1.0,phase_2,stop,250.0,300.0,3.0,,,,,,,,,yellow,I
0.0,5.0,1.0,1.0,5.0,0.0,0.0,6.0,1.0,phase_2,stop,200.0,300.0,4.0,,,,,,,,,white,circle
0.0,5.0,1.0,1.0,6.0,0.0,0.0,6.0,1.0,phase_2,stop,250.0,300.0,4.0,,,,,,,,,white,circle
0.0,3.0,3.0,0.0,6.0,6.0,639.8276340041775,6.0,1.0,phase_2,go,250.0,350.0,1.0,,,,,,,,,blue,square
0.0,1.0,1.0,0.0,6.0,6.0,524.7885269927792,6.0,1.0,phase_2,go,250.0,350.0,1.0,,,,,,,,,green,flipped triangle
0.0,3.0,3.0,0.0,5.0,5.0,414.5960799942259,6.0,1.0,phase_2,go,250.0,350.0,1.0,,,,,,,,,blue,square
0.0,5.0,1.0,1.0,5.0,5.0,381.1789350002073,6.0,1.0,phase_2,stop,250.0,350.0,3.0,,,,,,,,,white,circle
0.0,4.0,4.0,0.0,6.0,6.0,540.0382179941516,6.0,1.0,phase_2,go,200.0,350.0,1.0,,,,,,,,,magenta,hexagon
0.0,4.0,4.0,0.0,5.0,5.0,574.0727149823215,6.0,1.0,phase_2,go,200.0,350.0,1.0,,,,,,,,,magenta,hexagon
0.0,7.0,3.0,1.0,6.0,6.0,449.9341920018196,6.0,1.0,phase_2,go,200.0,350.0,1.0,,,,,,,,,orange,triangle
0.0,3.0,3.0,0.0,6.0,6.0,443.2293260178994,6.0,1.0,phase_2,go,200.0,350.0,1.0,,,,,,,,,blue,square
0.0,7.0,3.0,1.0,5.0,5.0,327.842873026384,6.0,1.0,phase_2,stop,200.0,350.0,3.0,,,,,,,,,orange,triangle
0.0,7.0,3.0,1.0,6.0,6.0,520.5961390165612,7.0,1.0,phase_2,go,150.0,350.0,1.0,,,,,,,,,orange,triangle
0.0,6.0,2.0,1.0,6.0,6.0,374.4816379912663,7.0,1.0,phase_2,stop,150.0,350.0,3.0,,,,,,,,,gray,cross
0.0,3.0,3.0,0.0,5.0,5.0,399.3388380040414,7.0,1.0,phase_2,go,150.0,300.0,1.0,,,,,,,,,blue,square
0.0,6.0,2.0,1.0,5.0,0.0,0.0,7.0,1.0,phase_2,stop,150.0,300.0,4.0,,,,,,,,,gray,cross
0.0,6.0,2.0,1.0,5.0,0.0,0.0,7.0,1.0,phase_2,stop,200.0,300.0,4.0,,,,,,,,,gray,cross
0.0,5.0,1.0,1.0,5.0,5.0,399.7459889797028,7.0,1.0,phase_2,stop,250.0,300.0,3.0,,,,,,,,,white,circle
0.0,2.0,2.0,0.0,5.0,5.0,547.1130409860052,7.0,1.0,phase_2,go,200.0,300.0,1.0,,,,,,,,,cyan,diamond
0.0,8.0,4.0,1.0,6.0,6.0,392.0748390082735,7.0,1.0,phase_2,stop,200.0,300.0,3.0,,,,,,,,,yellow,I
0.0,8.0,4.0,1.0,6.0,6.0,602.8079380048439,7.0,1.0,phase_2,go,200.0,250.0,1.0,,,,,,,,,yellow,I
0.0,6.0,2.0,1.0,6.0,6.0,436.3597420160658,7.0,1.0,phase_2,go,200.0,250.0,1.0,,,,,,,,,gray,cross
0.0,4.0,4.0,0.0,5.0,5.0,683.1733229919337,7.0,1.0,phase_2,go,200.0,250.0,1.0,,,,,,,,,magenta,hexagon
0.0,7.0,3.0,1.0,6.0,6.0,404.5796880091075,7.0,1.0,phase_2,stop,200.0,250.0,3.0,,,,,,,,,orange,triangle
0.0,1.0,1.0,0.0,6.0,6.0,573.0058719927911,7.0,1.0,phase_2,go,200.0,200.0,1.0,,,,,,,,,green,flipped triangle
0.0,2.0,2.0,0.0,5.0,5.0,427.6749290002044,7.0,1.0,phase_2,go,200.0,200.0,1.0,,,,,,,,,cyan,diamond
0.0,1.0,1.0,0.0,5.0,5.0,382.4535089952405,7.0,1.0,phase_2,go,200.0,200.0,1.0,,,,,,,,,green,flipped triangle
0.0,5.0,1.0,1.0,6.0,6.0,495.6075469963252,7.0,1.0,phase_2,go,200.0,200.0,1.0,,,,,,,,,white,circle
0.0,7.0,3.0,1.0,5.0,0.0,0.0,7.0,1.0,phase_2,stop,200.0,200.0,4.0,,,,,,,,,orange,triangle
0.0,2.0,2.0,0.0,5.0,5.0,565.8890409977175,7.0,1.0,phase_2,go,250.0,200.0,1.0,,,,,,,,,cyan,diamond
0.0,7.0,3.0,1.0,5.0,0.0,0.0,7.0,1.0,phase_2,stop,250.0,200.0,4.0,,,,,,,,,orange,triangle
0.0,5.0,1.0,1.0,6.0,0.0,0.0,7.0,1.0,phase_2,stop,300.0,200.0,4.0,,,,,,,,,white,circle
0.0,1.0,1.0,0.0,6.0,6.0,511.9731139857322,7.0,1.0,phase_2,go,300.0,250.0,1.0,,,,,,,,,green,flipped triangle
0.0,4.0,4.0,0.0,6.0,6.0,489.7996399959083,7.0,1.0,phase_2,go,300.0,250.0,1.0,,,,,,,,,magenta,hexagon
0.0,7.0,3.0,1.0,6.0,0.0,0.0,7.0,1.0,phase_2,stop,300.0,250.0,4.0,,,,,,,,,orange,triangle
0.0,8.0,4.0,1.0,6.0,6.0,458.1403850170318,7.0,1.0,phase_2,stop,300.0,300.0,3.0,,,,,,,,,yellow,I
0.0,7.0,3.0,1.0,5.0,5.0,661.5320949931629,7.0,1.0,phase_2,go,300.0,250.0,1.0,,,,,,,,,orange,triangle
0.0,3.0,3.0,0.0,6.0,6.0,609.9500750133302,7.0,1.0,phase_2,go,300.0,250.0,1.0,,,,,,,,,blue,square
0.0,5.0,1.0,1.0,6.0,6.0,507.15214398223907,7.0,1.0,phase_2,go,300.0,250.0,1.0,,,,,,,,,white,circle
0.0,6.0,2.0,1.0,5.0,5.0,543.8331459881738,7.0,1.0,phase_2,go,300.0,250.0,1.0,,,,,,,,,gray,cross
0.0,1.0,1.0,0.0,5.0,5.0,507.2836610197555,7.0,1.0,phase_2,go,300.0,250.0,1.0,,,,,,,,,green,flipped triangle
0.0,1.0,1.0,0.0,5.0,5.0,455.2782779792323,7.0,1.0,phase_2,go,300.0,250.0,1.0,,,,,,,,,green,flipped triangle
0.0,1.0,1.0,0.0,5.0,5.0,499.3122470041271,7.0,1.0,phase_2,go,300.0,250.0,1.0,,,,,,,,,green,flipped triangle
0.0,8.0,4.0,1.0,6.0,0.0,0.0,7.0,1.0,phase_2,stop,300.0,250.0,4.0,,,,,,,,,yellow,I
0.0,6.0,2.0,1.0,6.0,0.0,0.0,7.0,1.0,phase_2,stop,300.0,300.0,4.0,,,,,,,,,gray,cross
0.0,4.0,4.0,0.0,6.0,6.0,467.442975990707,7.0,1.0,phase_2,go,300.0,350.0,1.0,,,,,,,,,magenta,hexagon
0.0,4.0,4.0,0.0,5.0,5.0,400.9825410030316,7.0,1.0,phase_2,go,300.0,350.0,1.0,,,,,,,,,magenta,hexagon
0.0,4.0,4.0,0.0,5.0,5.0,444.8143249901477,7.0,1.0,phase_2,go,300.0,350.0,1.0,,,,,,,,,magenta,hexagon
0.0,2.0,2.0,0.0,6.0,6.0,393.6656410223804,8.0,1.0,phase_2,go,300.0,350.0,1.0,,,,,,,,,cyan,diamond
0.0,4.0,4.0,0.0,5.0,5.0,365.0670380156953,8.0,1.0,phase_2,go,300.0,350.0,1.0,,,,,,,,,magenta,hexagon
0.0,1.0,1.0,0.0,6.0,6.0,316.9971470197197,8.0,1.0,phase_2,go,300.0,350.0,1.0,,,,,,,,,green,flipped triangle
0.0,2.0,2.0,0.0,5.0,5.0,352.8077979863155,8.0,1.0,phase_2,go,300.0,350.0,1.0,,,,,,,,,cyan,diamond
0.0,7.0,3.0,1.0,5.0,0.0,0.0,8.0,1.0,phase_2,stop,300.0,350.0,4.0,,,,,,,,,orange,triangle
0.0,4.0,4.0,0.0,5.0,5.0,410.0081640062853,8.0,1.0,phase_2,go,350.0,350.0,1.0,,,,,,,,,magenta,hexagon
0.0,8.0,4.0,1.0,6.0,6.0,444.3475840089377,8.0,1.0,phase_2,stop,350.0,350.0,3.0,,,,,,,,,yellow,I
0.0,6.0,2.0,1.0,5.0,5.0,470.8096789836418,8.0,1.0,phase_2,stop,350.0,300.0,3.0,,,,,,,,,gray,cross
0.0,3.0,3.0,0.0,5.0,5.0,584.2319619841874,8.0,1.0,phase_2,go,300.0,300.0,1.0,,,,,,,,,blue,square
0.0,6.0,2.0,1.0,6.0,6.0,503.69478002539836,8.0,1.0,phase_2,stop,300.0,300.0,3.0,,,,,,,,,gray,cross
0.0,8.0,4.0,1.0,5.0,5.0,608.0175199895166,8.0,1.0,phase_2,go,300.0,250.0,1.0,,,,,,,,,yellow,I
0.0,7.0,3.0,1.0,6.0,0.0,0.0,8.0,1.0,phase_2,stop,300.0,250.0,4.0,,,,,,,,,orange,triangle
0.0,1.0,1.0,0.0,5.0,5.0,583.6109650263097,8.0,1.0,phase_2,go,300.0,300.0,1.0,,,,,,,,,green,flipped triangle
0.0,6.0,2.0,1.0,5.0,0.0,0.0,8.0,1.0,phase_2,stop,300.0,300.0,4.0,,,,,,,,,gray,cross
0.0,2.0,2.0,0.0,6.0,6.0,623.1126869970467,8.0,1.0,phase_2,go,350.0,300.0,1.0,,,,,,,,,cyan,diamond
0.0,3.0,3.0,0.0,6.0,6.0,645.086150005227,8.0,1.0,phase_2,go,350.0,300.0,1.0,,,,,,,,,blue,square
0.0,4.0,4.0,0.0,5.0,5.0,522.9555059922859,8.0,1.0,phase_2,go,350.0,300.0,1.0,,,,,,,,,magenta,hexagon
0.0,4.0,4.0,0.0,6.0,6.0,486.804244981613,8.0,1.0,phase_2,go,350.0,300.0,1.0,,,,,,,,,magenta,hexagon
0.0,1.0,1.0,0.0,5.0,5.0,345.6001000013202,8.0,1.0,phase_2,go,350.0,300.0,1.0,,,,,,,,,green,flipped triangle
0.0,2.0,2.0,0.0,5.0,5.0,399.0915590256918,8.0,1.0,phase_2,go,350.0,300.0,1.0,,,,,,,,,cyan,diamond
0.0,5.0,1.0,1.0,5.0,5.0,482.06759899039747,8.0,1.0,phase_2,stop,350.0,300.0,3.0,,,,,,,,,white,circle
0.0,3.0,3.0,0.0,5.0,5.0,413.6248019931372,8.0,1.0,phase_2,go,300.0,300.0,1.0,,,,,,,,,blue,square
0.0,7.0,3.0,1.0,5.0,0.0,0.0,8.0,1.0,phase_2,stop,300.0,300.0,4.0,,,,,,,,,orange,triangle
0.0,6.0,2.0,1.0,6.0,0.0,0.0,8.0,1.0,phase_2,stop,350.0,300.0,4.0,,,,,,,,,gray,cross
0.0,6.0,2.0,1.0,6.0,6.0,461.5669390186667,8.0,1.0,phase_2,stop,350.0,350.0,3.0,,,,,,,,,gray,cross
0.0,4.0,4.0,0.0,6.0,6.0,550.0226540025324,8.0,1.0,phase_2,go,350.0,300.0,1.0,,,,,,,,,magenta,hexagon
0.0,3.0,3.0,0.0,5.0,5.0,631.6223650064785,8.0,1.0,phase_2,go,350.0,300.0,1.0,,,,,,,,,blue,square
0.0,6.0,2.0,1.0,5.0,0.0,0.0,8.0,1.0,phase_2,stop,350.0,300.0,4.0,,,,,,,,,gray,cross
0.0,2.0,2.0,0.0,6.0,6.0,541.7661670071539,8.0,1.0,phase_2,go,400.0,300.0,1.0,,,,,,,,,cyan,diamond
0.0,6.0,2.0,1.0,5.0,0.0,0.0,8.0,1.0,phase_2,stop,400.0,300.0,4.0,,,,,,,,,gray,cross
0.0,6.0,2.0,1.0,5.0,5.0,535.7373440056108,8.0,1.0,phase_2,go,450.0,300.0,1.0,,,,,,,,,gray,cross
0.0,5.0,1.0,1.0,5.0,5.0,626.5081999881659,8.0,1.0,phase_2,stop,450.0,300.0,3.0,,,,,,,,,white,circle
0.0,5.0,1.0,1.0,6.0,0.0,0.0,8.0,1.0,phase_2,stop,400.0,300.0,4.0,,,,,,,,,white,circle
0.0,3.0,3.0,0.0,5.0,5.0,536.6272179817315,8.0,1.0,phase_2,go,400.0,350.0,1.0,,,,,,,,,blue,square
0.0,8.0,4.0,1.0,5.0,5.0,637.4889939907007,8.0,1.0,phase_2,go,400.0,350.0,1.0,,,,,,,,,yellow,I
0.0,5.0,1.0,1.0,5.0,0.0,0.0,8.0,1.0,phase_2,stop,400.0,350.0,4.0,,,,,,,,,white,circle
0.0,1.0,1.0,0.0,7.0,4.0,4423.880247981288,1.0,2.0,phase_3,,,,,170.0,5.0,136.0,102.0,34.0,170.0,204.0,68.0,green,flipped triangle
0.0,4.0,4.0,0.0,7.0,6.0,4479.574917990249,1.0,2.0,phase_3,,,,,196.0,4.0,49.0,98.0,294.0,147.0,245.0,196.0,magenta,hexagon
0.0,2.0,2.0,0.0,7.0,4.0,2779.990184993949,1.0,2.0,phase_3,,,,,170.0,5.0,34.0,68.0,204.0,170.0,102.0,136.0,cyan,diamond
0.0,4.0,4.0,0.0,7.0,6.0,4376.933338004164,1.0,1.0,phase_3,,,,,162.0,3.0,324.0,108.0,270.0,54.0,216.0,162.0,magenta,hexagon
0.0,1.0,1.0,0.0,7.0,6.0,4553.290265001124,1.0,1.0,phase_3,,,,,216.0,4.0,162.0,324.0,270.0,54.0,108.0,216.0,green,flipped triangle
0.0,8.0,4.0,1.0,7.0,3.0,916.2774930009618,1.0,2.0,phase_3,,,,,196.0,4.0,98.0,147.0,196.0,294.0,49.0,245.0,yellow,I
0.0,8.0,4.0,1.0,7.0,5.0,1832.329747005133,1.0,1.0,phase_3,,,,,195.0,5.0,234.0,78.0,117.0,156.0,195.0,39.0,yellow,I
0.0,2.0,2.0,0.0,7.0,2.0,4407.492266007466,1.0,1.0,phase_3,,,,,216.0,4.0,162.0,216.0,324.0,54.0,108.0,270.0,cyan,diamond
0.0,6.0,2.0,1.0,7.0,1.0,3334.8451319907326,1.0,1.0,phase_3,,,,,204.0,6.0,204.0,68.0,136.0,34.0,170.0,102.0,gray,cross
0.0,4.0,4.0,0.0,7.0,1.0,4268.023223005002,1.0,1.0,phase_3,,,,,204.0,6.0,204.0,136.0,170.0,68.0,34.0,102.0,magenta,hexagon
0.0,3.0,3.0,0.0,7.0,3.0,434.0429870062507,1.0,2.0,phase_3,,,,,176.0,4.0,220.0,264.0,176.0,44.0,132.0,88.0,blue,square
0.0,1.0,1.0,0.0,7.0,3.0,2742.181222012732,1.0,1.0,phase_3,,,,,162.0,3.0,54.0,108.0,162.0,270.0,216.0,324.0,green,flipped triangle
0.0,2.0,2.0,0.0,7.0,5.0,2110.5772930022795,1.0,1.0,phase_3,,,,,196.0,4.0,294.0,49.0,245.0,147.0,196.0,98.0,cyan,diamond
0.0,6.0,2.0,1.0,7.0,6.0,1585.9294139954727,1.0,1.0,phase_3,,,,,234.0,6.0,156.0,78.0,39.0,195.0,117.0,234.0,gray,cross
0.0,1.0,1.0,0.0,7.0,6.0,3624.597224988975,1.0,1.0,phase_3,,,,,156.0,4.0,117.0,195.0,39.0,234.0,78.0,156.0,green,flipped triangle
0.0,7.0,3.0,1.0,7.0,4.0,634.9262119911145,1.0,2.0,phase_3,,,,,162.0,3.0,324.0,54.0,270.0,162.0,216.0,108.0,orange,triangle
0.0,8.0,4.0,1.0,7.0,4.0,2669.66178099392,1.0,1.0,phase_3,,,,,204.0,6.0,136.0,68.0,102.0,204.0,170.0,34.0,yellow,I
0.0,6.0,2.0,1.0,7.0,1.0,4654.51960300561,1.0,1.0,phase_3,,,,,270.0,5.0,270.0,162.0,324.0,108.0,216.0,54.0,gray,cross
0.0,4.0,4.0,0.0,7.0,3.0,3810.7977590116207,1.0,1.0,phase_3,,,,,204.0,6.0,136.0,102.0,204.0,34.0,170.0,68.0,magenta,hexagon
0.0,4.0,4.0,0.0,7.0,1.0,2710.5715140060056,1.0,1.0,phase_3,,,,,195.0,5.0,195.0,156.0,78.0,117.0,234.0,39.0,magenta,hexagon
0.0,2.0,2.0,0.0,7.0,2.0,1525.5669030011632,2.0,1.0,phase_3,,,,,196.0,4.0,98.0,196.0,294.0,49.0,147.0,245.0,cyan,diamond
0.0,7.0,3.0,1.0,7.0,3.0,2371.7992740275804,2.0,1.0,phase_3,,,,,170.0,5.0,34.0,136.0,170.0,68.0,102.0,204.0,orange,triangle
0.0,2.0,2.0,0.0,7.0,3.0,2429.49195401161,2.0,1.0,phase_3,,,,,176.0,4.0,44.0,220.0,176.0,264.0,132.0,88.0,cyan,diamond
0.0,8.0,4.0,1.0,7.0,1.0,293.9490349963307,2.0,2.0,phase_3,,,,,176.0,4.0,176.0,132.0,44.0,264.0,88.0,220.0,yellow,I
0.0,4.0,4.0,0.0,7.0,3.0,2545.684719982092,2.0,1.0,phase_3,,,,,195.0,5.0,39.0,78.0,195.0,117.0,156.0,234.0,magenta,hexagon
0.0,2.0,2.0,0.0,7.0,6.0,2750.8120459970087,2.0,1.0,phase_3,,,,,162.0,3.0,216.0,54.0,270.0,324.0,108.0,162.0,cyan,diamond
0.0,3.0,3.0,0.0,7.0,2.0,2301.453361986205,2.0,1.0,phase_3,,,,,170.0,5.0,136.0,170.0,204.0,102.0,34.0,68.0,blue,square
0.0,5.0,1.0,1.0,7.0,5.0,3628.0341499950737,2.0,1.0,phase_3,,,,,147.0,3.0,245.0,196.0,294.0,49.0,147.0,98.0,white,circle
0.0,7.0,3.0,1.0,7.0,5.0,2708.4488529944792,2.0,1.0,phase_3,,,,,147.0,3.0,98.0,294.0,196.0,49.0,147.0,245.0,orange,triangle
0.0,1.0,1.0,0.0,7.0,2.0,1879.4098849757572,2.0,1.0,phase_3,,,,,176.0,4.0,220.0,176.0,264.0,132.0,44.0,88.0,green,flipped triangle
0.0,8.0,4.0,1.0,7.0,4.0,3407.1265989914536,2.0,1.0,phase_3,,,,,156.0,4.0,117.0,78.0,195.0,156.0,234.0,39.0,yellow,I
0.0,6.0,2.0,1.0,7.0,6.0,2339.410015993053,2.0,1.0,phase_3,,,,,234.0,6.0,39.0,78.0,117.0,195.0,156.0,234.0,gray,cross
0.0,8.0,4.0,1.0,7.0,4.0,2398.857680003857,2.0,1.0,phase_3,,,,,162.0,3.0,324.0,216.0,54.0,162.0,108.0,270.0,yellow,I
0.0,6.0,2.0,1.0,7.0,4.0,2601.0413100011647,2.0,1.0,phase_3,,,,,270.0,5.0,54.0,108.0,216.0,270.0,162.0,324.0,gray,cross
0.0,3.0,3.0,0.0,7.0,6.0,3208.9608859969303,2.0,1.0,phase_3,,,,,195.0,5.0,39.0,117.0,78.0,156.0,234.0,195.0,blue,square
0.0,3.0,3.0,0.0,7.0,6.0,1594.349046004936,2.0,1.0,phase_3,,,,,196.0,4.0,147.0,49.0,294.0,98.0,245.0,196.0,blue,square
0.0,6.0,2.0,1.0,7.0,3.0,2176.429371989798,2.0,1.0,phase_3,,,,,245.0,5.0,147.0,49.0,245.0,196.0,294.0,98.0,gray,cross
0.0,2.0,2.0,0.0,7.0,4.0,2391.464107990032,2.0,1.0,phase_3,,,,,156.0,4.0,195.0,78.0,39.0,156.0,117.0,234.0,cyan,diamond
0.0,8.0,4.0,1.0,7.0,1.0,1908.8579670060424,2.0,1.0,phase_3,,,,,196.0,4.0,196.0,245.0,294.0,147.0,49.0,98.0,yellow,I
0.0,8.0,4.0,1.0,7.0,4.0,3633.158349985024,2.0,1.0,phase_3,,,,,170.0,5.0,68.0,102.0,136.0,170.0,204.0,34.0,yellow,I
0.0,5.0,1.0,1.0,7.0,3.0,2418.7489399919286,3.0,1.0,phase_3,,,,,170.0,5.0,34.0,68.0,170.0,136.0,102.0,204.0,white,circle
0.0,4.0,4.0,0.0,7.0,3.0,2902.0493180141784,3.0,1.0,phase_3,,,,,176.0,4.0,88.0,264.0,176.0,132.0,220.0,44.0,magenta,hexagon
0.0,5.0,1.0,1.0,7.0,4.0,2028.9427319949027,3.0,1.0,phase_3,,,,,195.0,5.0,156.0,117.0,39.0,195.0,78.0,234.0,white,circle
0.0,7.0,3.0,1.0,7.0,5.0,2053.2536929822527,3.0,1.0,phase_3,,,,,196.0,4.0,49.0,147.0,245.0,294.0,196.0,98.0,orange,triangle
0.0,1.0,1.0,0.0,7.0,3.0,3944.548542000121,3.0,1.0,phase_3,,,,,170.0,5.0,68.0,136.0,170.0,204.0,102.0,34.0,green,flipped triangle
0.0,3.0,3.0,0.0,7.0,5.0,237.0300719921942,3.0,2.0,phase_3,,,,,162.0,3.0,54.0,270.0,216.0,108.0,162.0,324.0,blue,square
0.0,4.0,4.0,0.0,7.0,4.0,3140.6729049922437,3.0,1.0,phase_3,,,,,176.0,4.0,132.0,264.0,220.0,176.0,44.0,88.0,magenta,hexagon
0.0,6.0,2.0,1.0,7.0,3.0,3573.118364001857,3.0,1.0,phase_3,,,,,264.0,6.0,176.0,220.0,264.0,44.0,132.0,88.0,gray,cross
0.0,6.0,2.0,1.0,7.0,2.0,2615.7740879862104,3.0,1.0,phase_3,,,,,204.0,6.0,136.0,204.0,102.0,34.0,170.0,68.0,gray,cross
0.0,3.0,3.0,0.0,7.0,2.0,2682.41181600024,3.0,1.0,phase_3,,,,,176.0,4.0,88.0,176.0,132.0,264.0,44.0,220.0,blue,square
0.0,8.0,4.0,1.0,7.0,2.0,3351.245123980334,3.0,1.0,phase_3,,,,,176.0,4.0,264.0,176.0,132.0,88.0,44.0,220.0,yellow,I
0.0,5.0,1.0,1.0,7.0,5.0,2133.867501019268,3.0,1.0,phase_3,,,,,196.0,4.0,294.0,49.0,98.0,147.0,196.0,245.0,white,circle
0.0,3.0,3.0,0.0,7.0,3.0,3912.690393975936,3.0,1.0,phase_3,,,,,195.0,5.0,117.0,234.0,195.0,78.0,39.0,156.0,blue,square
0.0,4.0,4.0,0.0,7.0,1.0,3530.4404969792813,3.0,1.0,phase_3,,,,,162.0,3.0,162.0,324.0,270.0,108.0,54.0,216.0,magenta,hexagon
0.0,2.0,2.0,0.0,7.0,6.0,2677.183556021191,3.0,1.0,phase_3,,,,,170.0,5.0,136.0,204.0,34.0,68.0,102.0,170.0,cyan,diamond
0.0,1.0,1.0,0.0,7.0,1.0,2610.724502999801,3.0,1.0,phase_3,,,,,176.0,4.0,176.0,264.0,44.0,220.0,88.0,132.0,green,flipped triangle
0.0,8.0,4.0,1.0,7.0,3.0,4051.781486021355,3.0,1.0,phase_3,,,,,162.0,3.0,54.0,324.0,162.0,108.0,216.0,270.0,yellow,I
0.0,1.0,1.0,0.0,7.0,5.0,4016.127092007082,3.0,1.0,phase_3,,,,,156.0,4.0,117.0,195.0,234.0,39.0,156.0,78.0,green,flipped triangle
0.0,3.0,3.0,0.0,7.0,5.0,4374.359552981332,3.0,1.0,phase_3,,,,,162.0,3.0,54.0,108.0,324.0,270.0,162.0,216.0,blue,square
0.0,3.0,3.0,0.0,7.0,4.0,1815.1055130001623,3.0,1.0,phase_3,,,,,170.0,5.0,204.0,102.0,136.0,170.0,68.0,34.0,blue,square
0.0,7.0,3.0,1.0,7.0,5.0,2091.277095983969,4.0,1.0,phase_3,,,,,162.0,3.0,270.0,324.0,216.0,54.0,162.0,108.0,orange,triangle
0.0,1.0,1.0,0.0,7.0,6.0,1865.8566719968803,4.0,1.0,phase_3,,,,,196.0,4.0,147.0,49.0,294.0,245.0,98.0,196.0,green,flipped triangle
0.0,5.0,1.0,1.0,7.0,6.0,2374.945098999888,4.0,1.0,phase_3,,,,,162.0,3.0,54.0,216.0,108.0,270.0,324.0,162.0,white,circle
0.0,5.0,1.0,1.0,7.0,6.0,1924.9194810108747,4.0,1.0,phase_3,,,,,162.0,3.0,108.0,270.0,54.0,324.0,216.0,162.0,white,circle
0.0,5.0,1.0,1.0,7.0,5.0,2052.398895000806,4.0,1.0,phase_3,,,,,170.0,5.0,204.0,68.0,136.0,102.0,170.0,34.0,white,circle
0.0,7.0,3.0,1.0,7.0,1.0,4491.788683983032,4.0,1.0,phase_3,,,,,176.0,4.0,176.0,132.0,88.0,264.0,44.0,220.0,orange,triangle
0.0,5.0,1.0,1.0,7.0,4.0,1935.2129419858104,4.0,2.0,phase_3,,,,,156.0,4.0,78.0,234.0,39.0,156.0,195.0,117.0,white,circle
0.0,6.0,2.0,1.0,7.0,3.0,2679.0075800090563,4.0,1.0,phase_3,,,,,220.0,5.0,88.0,176.0,220.0,132.0,44.0,264.0,gray,cross
0.0,7.0,3.0,1.0,7.0,3.0,2872.45597699075,4.0,1.0,phase_3,,,,,170.0,5.0,102.0,136.0,170.0,68.0,34.0,204.0,orange,triangle
0.0,5.0,1.0,1.0,7.0,6.0,2470.795614994131,4.0,1.0,phase_3,,,,,176.0,4.0,220.0,264.0,132.0,44.0,88.0,176.0,white,circle
0.0,4.0,4.0,0.0,7.0,1.0,4347.624551010085,4.0,1.0,phase_3,,,,,196.0,4.0,196.0,147.0,49.0,98.0,245.0,294.0,magenta,hexagon
0.0,5.0,1.0,1.0,7.0,6.0,3117.83995499718,4.0,1.0,phase_3,,,,,176.0,4.0,88.0,44.0,220.0,132.0,264.0,176.0,white,circle
0.0,7.0,3.0,1.0,7.0,4.0,3994.364147016313,4.0,1.0,phase_3,,,,,156.0,4.0,78.0,39.0,234.0,156.0,195.0,117.0,orange,triangle
0.0,2.0,2.0,0.0,7.0,4.0,3879.5872470072936,4.0,1.0,phase_3,,,,,156.0,4.0,195.0,234.0,78.0,156.0,117.0,39.0,cyan,diamond
0.0,6.0,2.0,1.0,7.0,3.0,2316.6404069925197,4.0,1.0,phase_3,,,,,245.0,5.0,147.0,294.0,245.0,98.0,49.0,196.0,gray,cross
0.0,1.0,1.0,0.0,7.0,6.0,2969.004306010902,4.0,1.0,phase_3,,,,,147.0,3.0,294.0,98.0,49.0,196.0,245.0,147.0,green,flipped triangle
0.0,3.0,3.0,0.0,7.0,6.0,939.2647770000622,4.0,2.0,phase_3,,,,,147.0,3.0,294.0,49.0,98.0,196.0,245.0,147.0,blue,square
0.0,7.0,3.0,1.0,7.0,1.0,2298.868687998038,4.0,1.0,phase_3,,,,,176.0,4.0,176.0,220.0,264.0,132.0,88.0,44.0,orange,triangle
0.0,2.0,2.0,0.0,7.0,6.0,2325.9824849956203,4.0,1.0,phase_3,,,,,176.0,4.0,132.0,264.0,88.0,220.0,44.0,176.0,cyan,diamond
0.0,7.0,3.0,1.0,7.0,1.0,3574.421914992854,4.0,1.0,phase_3,,,,,117.0,3.0,117.0,234.0,195.0,156.0,39.0,78.0,orange,triangle
