raw_reward_magnitude,stim_reward,stepwise_reward_magnitude,paired_with_stopping,quadrant,response,reaction_time,block,num_trial_presentations,which_part,stop_signal_trial_type,left_SSD,right_SSD,accuracy,chosen_bidding_amount,chosen_bidding_level,possible_bid_1,possible_bid_2,possible_bid_3,possible_bid_4,possible_bid_5,possible_bid_6,color_text,shape_text
0.0,1.0,0.0,0.0,4.0,4.0,425.9979469934478,1.0,1.0,part_1,,,,,,,,,,,,,cyan,triangle
101.0,2.0,2.0,0.0,3.0,3.0,369.1340619989205,1.0,1.0,part_1,,,,,,,,,,,,,green,hexagon
47.0,5.0,1.0,1.0,3.0,3.0,380.204537010286,1.0,1.0,part_1,,,,,,,,,,,,,orange,flipped triangle
79.0,2.0,2.0,0.0,3.0,3.0,356.6753849736415,1.0,1.0,part_1,,,,,,,,,,,,,green,hexagon
401.0,4.0,4.0,0.0,3.0,3.0,339.0030349837616,1.0,1.0,part_1,,,,,,,,,,,,,yellow,circle
0.0,8.0,0.0,1.0,3.0,3.0,439.1763310122769,1.0,1.0,part_1,,,,,,,,,,,,,white,I
399.0,8.0,4.0,1.0,1.0,1.0,394.2330979916733,1.0,1.0,part_1,,,,,,,,,,,,,white,I
116.0,2.0,2.0,0.0,3.0,3.0,362.5177659851033,1.0,1.0,part_1,,,,,,,,,,,,,green,hexagon
188.0,3.0,3.0,0.0,3.0,3.0,351.0918900137767,1.0,1.0,part_1,,,,,,,,,,,,,gray,square
0.0,6.0,0.0,1.0,3.0,3.0,329.3341399985365,1.0,1.0,part_1,,,,,,,,,,,,,magenta,diamond
406.0,4.0,4.0,0.0,2.0,2.0,395.8849140035454,1.0,1.0,part_1,,,,,,,,,,,,,yellow,circle
383.0,8.0,4.0,1.0,1.0,1.0,327.2848800115753,1.0,1.0,part_1,,,,,,,,,,,,,white,I
201.0,7.0,3.0,1.0,1.0,1.0,351.972439995734,1.0,1.0,part_1,,,,,,,,,,,,,blue,cross
379.0,4.0,4.0,0.0,1.0,1.0,316.5379799902439,1.0,1.0,part_1,,,,,,,,,,,,,yellow,circle
182.0,7.0,3.0,1.0,4.0,4.0,340.4434810217935,1.0,1.0,part_1,,,,,,,,,,,,,blue,cross
219.0,3.0,3.0,0.0,3.0,3.0,363.3790780149866,1.0,1.0,part_1,,,,,,,,,,,,,gray,square
406.0,4.0,4.0,0.0,2.0,2.0,319.7921499959193,1.0,1.0,part_1,,,,,,,,,,,,,yellow,circle
383.0,4.0,4.0,0.0,2.0,2.0,331.5823849989101,1.0,1.0,part_1,,,,,,,,,,,,,yellow,circle
379.0,4.0,4.0,0.0,4.0,4.0,376.4069919998292,1.0,1.0,part_1,,,,,,,,,,,,,yellow,circle
0.0,8.0,0.0,1.0,3.0,3.0,333.1228640163317,1.0,1.0,part_1,,,,,,,,,,,,,white,I
75.0,1.0,1.0,0.0,3.0,3.0,344.4690130127128,1.0,1.0,part_1,,,,,,,,,,,,,cyan,triangle
408.0,4.0,4.0,0.0,2.0,2.0,287.1795280079823,1.0,1.0,part_1,,,,,,,,,,,,,yellow,circle
38.0,1.0,1.0,0.0,1.0,1.0,359.3832100159488,1.0,1.0,part_1,,,,,,,,,,,,,cyan,triangle
27.0,1.0,1.0,0.0,2.0,2.0,292.512276006164,1.0,1.0,part_1,,,,,,,,,,,,,cyan,triangle
0.0,6.0,0.0,1.0,1.0,1.0,334.5266219985205,1.0,1.0,part_1,,,,,,,,,,,,,magenta,diamond
408.0,8.0,4.0,1.0,3.0,3.0,322.963372018421,1.0,1.0,part_1,,,,,,,,,,,,,white,I
387.0,8.0,4.0,1.0,2.0,2.0,316.2802220031153,1.0,1.0,part_1,,,,,,,,,,,,,white,I
0.0,4.0,0.0,0.0,1.0,1.0,293.43684599734837,1.0,1.0,part_1,,,,,,,,,,,,,yellow,circle
405.0,8.0,4.0,1.0,2.0,2.0,315.8626749936957,1.0,1.0,part_1,,,,,,,,,,,,,white,I
72.0,5.0,1.0,1.0,4.0,4.0,359.4782259897329,1.0,1.0,part_1,,,,,,,,,,,,,orange,flipped triangle
49.0,1.0,1.0,0.0,3.0,3.0,316.88416399993,1.0,1.0,part_1,,,,,,,,,,,,,cyan,triangle
90.0,6.0,2.0,1.0,4.0,4.0,327.2182600048836,1.0,1.0,part_1,,,,,,,,,,,,,magenta,diamond
404.0,4.0,4.0,0.0,2.0,2.0,296.8234889849555,1.0,1.0,part_1,,,,,,,,,,,,,yellow,circle
119.0,2.0,2.0,0.0,2.0,2.0,318.2349179987795,1.0,1.0,part_1,,,,,,,,,,,,,green,hexagon
52.0,5.0,1.0,1.0,3.0,3.0,361.9391030224506,1.0,1.0,part_1,,,,,,,,,,,,,orange,flipped triangle
78.0,6.0,2.0,1.0,4.0,4.0,352.1078189951367,1.0,1.0,part_1,,,,,,,,,,,,,magenta,diamond
207.0,7.0,3.0,1.0,2.0,2.0,295.4994949977845,1.0,1.0,part_1,,,,,,,,,,,,,blue,cross
0.0,2.0,0.0,0.0,1.0,1.0,331.5795559901744,1.0,1.0,part_1,,,,,,,,,,,,,green,hexagon
98.0,6.0,2.0,1.0,3.0,3.0,321.8893790035508,1.0,1.0,part_1,,,,,,,,,,,,,magenta,diamond
0.0,3.0,0.0,0.0,3.0,3.0,342.4309300025925,1.0,1.0,part_1,,,,,,,,,,,,,gray,square
68.0,1.0,1.0,0.0,1.0,1.0,320.2025780046824,1.0,1.0,part_1,,,,,,,,,,,,,cyan,triangle
207.0,3.0,3.0,0.0,2.0,2.0,301.6144649882335,1.0,1.0,part_1,,,,,,,,,,,,,gray,square
405.0,4.0,4.0,0.0,4.0,4.0,344.0451119968202,1.0,1.0,part_1,,,,,,,,,,,,,yellow,circle
392.0,4.0,4.0,0.0,4.0,4.0,356.3382220163475,1.0,1.0,part_1,,,,,,,,,,,,,yellow,circle
410.0,4.0,4.0,0.0,1.0,1.0,301.5434270200785,1.0,1.0,part_1,,,,,,,,,,,,,yellow,circle
0.0,7.0,0.0,1.0,3.0,3.0,369.1146800119895,1.0,1.0,part_1,,,,,,,,,,,,,blue,cross
188.0,7.0,3.0,1.0,3.0,3.0,350.6038149935193,1.0,1.0,part_1,,,,,,,,,,,,,blue,cross
68.0,1.0,1.0,0.0,1.0,1.0,372.8988940129056,1.0,1.0,part_1,,,,,,,,,,,,,cyan,triangle
405.0,4.0,4.0,0.0,3.0,3.0,362.1057420095894,1.0,1.0,part_1,,,,,,,,,,,,,yellow,circle
120.0,2.0,2.0,0.0,1.0,1.0,282.1104720060248,1.0,1.0,part_1,,,,,,,,,,,,,green,hexagon
207.0,7.0,3.0,1.0,3.0,3.0,317.232691013487,1.0,1.0,part_1,,,,,,,,,,,,,blue,cross
0.0,3.0,0.0,0.0,2.0,2.0,316.732627019519,1.0,1.0,part_1,,,,,,,,,,,,,gray,square
51.0,1.0,1.0,0.0,1.0,1.0,317.9809539869893,1.0,1.0,part_1,,,,,,,,,,,,,cyan,triangle
0.0,4.0,0.0,0.0,1.0,1.0,293.5684749973006,1.0,1.0,part_1,,,,,,,,,,,,,yellow,circle
402.0,4.0,4.0,0.0,1.0,1.0,305.6848160049412,1.0,1.0,part_1,,,,,,,,,,,,,yellow,circle
194.0,3.0,3.0,0.0,4.0,4.0,400.1921599847264,1.0,1.0,part_1,,,,,,,,,,,,,gray,square
80.0,6.0,2.0,1.0,3.0,3.0,363.04990900680417,1.0,1.0,part_1,,,,,,,,,,,,,magenta,diamond
55.0,5.0,1.0,1.0,2.0,2.0,340.5365820217412,1.0,1.0,part_1,,,,,,,,,,,,,orange,flipped triangle
0.0,7.0,0.0,1.0,4.0,4.0,334.275155008072,1.0,1.0,part_1,,,,,,,,,,,,,blue,cross
384.0,8.0,4.0,1.0,4.0,4.0,353.2748009893112,1.0,1.0,part_1,,,,,,,,,,,,,white,I
178.0,3.0,3.0,0.0,4.0,4.0,398.8453040074091,1.0,1.0,part_1,,,,,,,,,,,,,gray,square
33.0,1.0,1.0,0.0,2.0,2.0,334.8735220206436,1.0,1.0,part_1,,,,,,,,,,,,,cyan,triangle
101.0,2.0,2.0,0.0,1.0,1.0,302.9301050119102,1.0,1.0,part_1,,,,,,,,,,,,,green,hexagon
0.0,1.0,0.0,0.0,2.0,2.0,345.7210519991349,1.0,1.0,part_1,,,,,,,,,,,,,cyan,triangle
205.0,7.0,3.0,1.0,4.0,4.0,333.6202000209596,1.0,1.0,part_1,,,,,,,,,,,,,blue,cross
121.0,2.0,2.0,0.0,4.0,4.0,302.0698559994343,1.0,1.0,part_1,,,,,,,,,,,,,green,hexagon
384.0,8.0,4.0,1.0,1.0,1.0,345.3973009891342,1.0,1.0,part_1,,,,,,,,,,,,,white,I
96.0,2.0,2.0,0.0,2.0,2.0,316.7260269983671,1.0,1.0,part_1,,,,,,,,,,,,,green,hexagon
402.0,8.0,4.0,1.0,2.0,2.0,303.7151170137804,1.0,1.0,part_1,,,,,,,,,,,,,white,I
75.0,5.0,1.0,1.0,4.0,4.0,359.2747009824961,1.0,1.0,part_1,,,,,,,,,,,,,orange,flipped triangle
47.0,5.0,1.0,1.0,2.0,2.0,361.4428430155385,1.0,1.0,part_1,,,,,,,,,,,,,orange,flipped triangle
61.0,5.0,1.0,1.0,2.0,2.0,338.1562809809111,1.0,1.0,part_1,,,,,,,,,,,,,orange,flipped triangle
101.0,6.0,2.0,1.0,2.0,2.0,304.1148520132992,1.0,1.0,part_1,,,,,,,,,,,,,magenta,diamond
190.0,3.0,3.0,0.0,1.0,1.0,351.6021889809053,1.0,1.0,part_1,,,,,,,,,,,,,gray,square
399.0,8.0,4.0,1.0,4.0,4.0,350.798717001453,1.0,1.0,part_1,,,,,,,,,,,,,white,I
28.0,5.0,1.0,1.0,4.0,4.0,362.3534310027025,1.0,1.0,part_1,,,,,,,,,,,,,orange,flipped triangle
195.0,3.0,3.0,0.0,1.0,1.0,320.0316450092941,1.0,1.0,part_1,,,,,,,,,,,,,gray,square
41.0,5.0,1.0,1.0,4.0,4.0,321.9605850172229,1.0,1.0,part_1,,,,,,,,,,,,,orange,flipped triangle
84.0,6.0,2.0,1.0,3.0,3.0,352.6400350092444,1.0,1.0,part_1,,,,,,,,,,,,,magenta,diamond
0.0,7.0,0.0,1.0,1.0,1.0,366.5104969986714,1.0,1.0,part_1,,,,,,,,,,,,,blue,cross
0.0,6.0,0.0,1.0,3.0,3.0,342.6759630092419,1.0,1.0,part_1,,,,,,,,,,,,,magenta,diamond
380.0,4.0,4.0,0.0,4.0,4.0,321.3715839956421,1.0,1.0,part_1,,,,,,,,,,,,,yellow,circle
91.0,2.0,2.0,0.0,2.0,2.0,313.6720990005415,1.0,1.0,part_1,,,,,,,,,,,,,green,hexagon
209.0,7.0,3.0,1.0,1.0,1.0,301.7315759789198,1.0,1.0,part_1,,,,,,,,,,,,,blue,cross
387.0,4.0,4.0,0.0,4.0,4.0,382.4537570180837,1.0,1.0,part_1,,,,,,,,,,,,,yellow,circle
410.0,8.0,4.0,1.0,1.0,1.0,289.7762339853216,1.0,1.0,part_1,,,,,,,,,,,,,white,I
223.0,3.0,3.0,0.0,1.0,1.0,256.7690630094148,1.0,1.0,part_1,,,,,,,,,,,,,gray,square
112.0,2.0,2.0,0.0,2.0,2.0,294.2163569969125,1.0,1.0,part_1,,,,,,,,,,,,,green,hexagon
0.0,6.0,0.0,1.0,3.0,3.0,339.0855249890592,1.0,1.0,part_1,,,,,,,,,,,,,magenta,diamond
0.0,7.0,0.0,1.0,1.0,1.0,306.2902860110625,1.0,1.0,part_1,,,,,,,,,,,,,blue,cross
417.0,4.0,4.0,0.0,3.0,3.0,362.3816840117797,1.0,1.0,part_1,,,,,,,,,,,,,yellow,circle
182.0,3.0,3.0,0.0,3.0,3.0,350.1441960106604,1.0,1.0,part_1,,,,,,,,,,,,,gray,square
406.0,4.0,4.0,0.0,4.0,4.0,329.8403249937109,1.0,1.0,part_1,,,,,,,,,,,,,yellow,circle
0.0,8.0,0.0,1.0,1.0,1.0,293.7378909846302,1.0,1.0,part_1,,,,,,,,,,,,,white,I
109.0,2.0,2.0,0.0,1.0,1.0,331.9025769887957,1.0,1.0,part_1,,,,,,,,,,,,,green,hexagon
393.0,4.0,4.0,0.0,1.0,1.0,285.57162400102237,1.0,1.0,part_1,,,,,,,,,,,,,yellow,circle
121.0,6.0,2.0,1.0,4.0,4.0,340.9423980046995,1.0,1.0,part_1,,,,,,,,,,,,,magenta,diamond
399.0,4.0,4.0,0.0,4.0,4.0,330.7553129852749,1.0,1.0,part_1,,,,,,,,,,,,,yellow,circle
0.0,7.0,0.0,1.0,2.0,2.0,329.5506720023695,1.0,1.0,part_1,,,,,,,,,,,,,blue,cross
387.0,4.0,4.0,0.0,2.0,2.0,309.493302978808,1.0,1.0,part_1,,,,,,,,,,,,,yellow,circle
0.0,4.0,0.0,0.0,2.0,2.0,414.1412060125731,2.0,1.0,part_1,,,,,,,,,,,,,yellow,circle
406.0,8.0,4.0,1.0,3.0,3.0,312.6700890134088,2.0,1.0,part_1,,,,,,,,,,,,,white,I
84.0,6.0,2.0,1.0,3.0,3.0,313.1239320209715,2.0,1.0,part_1,,,,,,,,,,,,,magenta,diamond
419.0,8.0,4.0,1.0,4.0,4.0,334.7957710211631,2.0,1.0,part_1,,,,,,,,,,,,,white,I
0.0,5.0,0.0,1.0,2.0,2.0,336.9180559820961,2.0,1.0,part_1,,,,,,,,,,,,,orange,flipped triangle
94.0,2.0,2.0,0.0,1.0,1.0,305.7675010059029,2.0,1.0,part_1,,,,,,,,,,,,,green,hexagon
178.0,3.0,3.0,0.0,3.0,3.0,339.6392430004198,2.0,1.0,part_1,,,,,,,,,,,,,gray,square
413.0,8.0,4.0,1.0,3.0,3.0,360.65582401352,2.0,1.0,part_1,,,,,,,,,,,,,white,I
0.0,5.0,0.0,1.0,4.0,4.0,325.8500749943778,2.0,1.0,part_1,,,,,,,,,,,,,orange,flipped triangle
392.0,4.0,4.0,0.0,2.0,2.0,305.7458270050119,2.0,1.0,part_1,,,,,,,,,,,,,yellow,circle
404.0,4.0,4.0,0.0,3.0,3.0,315.7283329928759,2.0,1.0,part_1,,,,,,,,,,,,,yellow,circle
0.0,2.0,0.0,0.0,4.0,4.0,274.329737003427,2.0,1.0,part_1,,,,,,,,,,,,,green,hexagon
32.0,1.0,1.0,0.0,4.0,4.0,308.8065830233972,2.0,1.0,part_1,,,,,,,,,,,,,cyan,triangle
92.0,6.0,2.0,1.0,4.0,4.0,319.3772439844906,2.0,1.0,part_1,,,,,,,,,,,,,magenta,diamond
0.0,3.0,0.0,0.0,1.0,1.0,329.5878279895987,2.0,1.0,part_1,,,,,,,,,,,,,gray,square
92.0,2.0,2.0,0.0,4.0,4.0,299.2049899767153,2.0,1.0,part_1,,,,,,,,,,,,,green,hexagon
223.0,7.0,3.0,1.0,1.0,1.0,318.3933660038747,2.0,1.0,part_1,,,,,,,,,,,,,blue,cross
96.0,2.0,2.0,0.0,4.0,4.0,310.8265869959723,2.0,1.0,part_1,,,,,,,,,,,,,green,hexagon
78.0,6.0,2.0,1.0,2.0,2.0,309.0026759891771,2.0,1.0,part_1,,,,,,,,,,,,,magenta,diamond
189.0,3.0,3.0,0.0,1.0,1.0,252.47390099684708,2.0,1.0,part_1,,,,,,,,,,,,,gray,square
0.0,2.0,0.0,0.0,1.0,1.0,344.892875989899,2.0,1.0,part_1,,,,,,,,,,,,,green,hexagon
387.0,8.0,4.0,1.0,1.0,1.0,345.031844015466,2.0,1.0,part_1,,,,,,,,,,,,,white,I
50.0,1.0,1.0,0.0,3.0,3.0,359.2411999998148,2.0,1.0,part_1,,,,,,,,,,,,,cyan,triangle
66.0,1.0,1.0,0.0,1.0,1.0,257.3635620065033,2.0,1.0,part_1,,,,,,,,,,,,,cyan,triangle
33.0,1.0,1.0,0.0,1.0,1.0,235.8099709963426,2.0,1.0,part_1,,,,,,,,,,,,,cyan,triangle
412.0,8.0,4.0,1.0,4.0,4.0,349.6576829929836,2.0,1.0,part_1,,,,,,,,,,,,,white,I
413.0,4.0,4.0,0.0,4.0,4.0,350.0565130088944,2.0,1.0,part_1,,,,,,,,,,,,,yellow,circle
84.0,2.0,2.0,0.0,3.0,3.0,336.3218810118269,2.0,1.0,part_1,,,,,,,,,,,,,green,hexagon
195.0,3.0,3.0,0.0,3.0,3.0,325.3480740240775,2.0,1.0,part_1,,,,,,,,,,,,,gray,square
82.0,6.0,2.0,1.0,1.0,1.0,316.1676689924206,2.0,1.0,part_1,,,,,,,,,,,,,magenta,diamond
199.0,3.0,3.0,0.0,2.0,2.0,315.3119510097895,2.0,1.0,part_1,,,,,,,,,,,,,gray,square
392.0,8.0,4.0,1.0,4.0,4.0,308.2229479914531,2.0,1.0,part_1,,,,,,,,,,,,,white,I
224.0,7.0,3.0,1.0,2.0,2.0,365.4269379912875,2.0,1.0,part_1,,,,,,,,,,,,,blue,cross
121.0,2.0,2.0,0.0,1.0,1.0,260.5899490008596,2.0,1.0,part_1,,,,,,,,,,,,,green,hexagon
387.0,4.0,4.0,0.0,3.0,3.0,355.2242000005208,2.0,1.0,part_1,,,,,,,,,,,,,yellow,circle
179.0,3.0,3.0,0.0,4.0,4.0,320.9602510032709,2.0,1.0,part_1,,,,,,,,,,,,,gray,square
0.0,3.0,0.0,0.0,1.0,1.0,308.8443030137568,2.0,1.0,part_1,,,,,,,,,,,,,gray,square
93.0,6.0,2.0,1.0,2.0,2.0,308.1085179874208,2.0,1.0,part_1,,,,,,,,,,,,,magenta,diamond
405.0,8.0,4.0,1.0,3.0,3.0,332.6075240038335,2.0,1.0,part_1,,,,,,,,,,,,,white,I
61.0,1.0,1.0,0.0,4.0,4.0,378.8488889986183,2.0,1.0,part_1,,,,,,,,,,,,,cyan,triangle
203.0,7.0,3.0,1.0,4.0,4.0,311.0354230157099,2.0,1.0,part_1,,,,,,,,,,,,,blue,cross
38.0,1.0,1.0,0.0,2.0,2.0,325.3214590076823,2.0,1.0,part_1,,,,,,,,,,,,,cyan,triangle
101.0,6.0,2.0,1.0,4.0,4.0,324.6092490153387,2.0,1.0,part_1,,,,,,,,,,,,,magenta,diamond
201.0,3.0,3.0,0.0,2.0,2.0,311.7748940130695,2.0,1.0,part_1,,,,,,,,,,,,,gray,square
201.0,7.0,3.0,1.0,3.0,3.0,380.869774002349,2.0,1.0,part_1,,,,,,,,,,,,,blue,cross
93.0,2.0,2.0,0.0,4.0,4.0,348.3219729969278,2.0,1.0,part_1,,,,,,,,,,,,,green,hexagon
52.0,1.0,1.0,0.0,1.0,1.0,328.1321910035331,2.0,1.0,part_1,,,,,,,,,,,,,cyan,triangle
84.0,2.0,2.0,0.0,2.0,2.0,303.976747993147,2.0,1.0,part_1,,,,,,,,,,,,,green,hexagon
51.0,5.0,1.0,1.0,3.0,3.0,348.4385850024409,2.0,1.0,part_1,,,,,,,,,,,,,orange,flipped triangle
421.0,4.0,4.0,0.0,4.0,4.0,318.2609049836173,2.0,1.0,part_1,,,,,,,,,,,,,yellow,circle
121.0,6.0,2.0,1.0,3.0,3.0,361.4554870000575,2.0,1.0,part_1,,,,,,,,,,,,,magenta,diamond
189.0,3.0,3.0,0.0,2.0,2.0,327.8776119987014,2.0,1.0,part_1,,,,,,,,,,,,,gray,square
421.0,8.0,4.0,1.0,1.0,1.0,327.6790480013005,2.0,1.0,part_1,,,,,,,,,,,,,white,I
0.0,8.0,0.0,1.0,1.0,1.0,285.4492049955297,2.0,1.0,part_1,,,,,,,,,,,,,white,I
50.0,1.0,1.0,0.0,1.0,1.0,273.89608300291,2.0,1.0,part_1,,,,,,,,,,,,,cyan,triangle
0.0,1.0,0.0,0.0,2.0,2.0,306.1549290141556,2.0,1.0,part_1,,,,,,,,,,,,,cyan,triangle
52.0,5.0,1.0,1.0,2.0,2.0,296.3677940133493,2.0,1.0,part_1,,,,,,,,,,,,,orange,flipped triangle
55.0,5.0,1.0,1.0,1.0,1.0,277.7573720086366,2.0,1.0,part_1,,,,,,,,,,,,,orange,flipped triangle
216.0,3.0,3.0,0.0,3.0,3.0,389.5827929954976,2.0,1.0,part_1,,,,,,,,,,,,,gray,square
410.0,8.0,4.0,1.0,4.0,4.0,357.5111480022315,2.0,1.0,part_1,,,,,,,,,,,,,white,I
419.0,8.0,4.0,1.0,2.0,2.0,308.8140040053986,2.0,1.0,part_1,,,,,,,,,,,,,white,I
85.0,2.0,2.0,0.0,3.0,3.0,456.1644560017157,2.0,1.0,part_1,,,,,,,,,,,,,green,hexagon
41.0,1.0,1.0,0.0,4.0,4.0,378.3146879868582,2.0,1.0,part_1,,,,,,,,,,,,,cyan,triangle
112.0,2.0,2.0,0.0,3.0,3.0,358.9305439963937,2.0,1.0,part_1,,,,,,,,,,,,,green,hexagon
412.0,8.0,4.0,1.0,3.0,3.0,346.7330440180376,2.0,1.0,part_1,,,,,,,,,,,,,white,I
425.0,8.0,4.0,1.0,1.0,1.0,345.96998101915227,2.0,1.0,part_1,,,,,,,,,,,,,white,I
122.0,2.0,2.0,0.0,3.0,3.0,325.073798012454,2.0,1.0,part_1,,,,,,,,,,,,,green,hexagon
115.0,2.0,2.0,0.0,2.0,2.0,294.4037860142998,2.0,1.0,part_1,,,,,,,,,,,,,green,hexagon
74.0,1.0,1.0,0.0,2.0,2.0,280.5412349989638,2.0,1.0,part_1,,,,,,,,,,,,,cyan,triangle
380.0,8.0,4.0,1.0,3.0,3.0,337.3419269919395,2.0,1.0,part_1,,,,,,,,,,,,,white,I
209.0,3.0,3.0,0.0,2.0,2.0,304.30402100319037,2.0,1.0,part_1,,,,,,,,,,,,,gray,square
0.0,3.0,0.0,0.0,2.0,2.0,306.6018199897371,2.0,1.0,part_1,,,,,,,,,,,,,gray,square
184.0,7.0,3.0,1.0,2.0,2.0,349.4194090017117,2.0,1.0,part_1,,,,,,,,,,,,,blue,cross
204.0,3.0,3.0,0.0,2.0,2.0,296.5419729880523,2.0,1.0,part_1,,,,,,,,,,,,,gray,square
0.0,1.0,0.0,0.0,1.0,1.0,305.9863719972782,2.0,1.0,part_1,,,,,,,,,,,,,cyan,triangle
0.0,1.0,0.0,0.0,1.0,1.0,298.3620669983793,2.0,1.0,part_1,,,,,,,,,,,,,cyan,triangle
189.0,7.0,3.0,1.0,1.0,1.0,355.6281659984961,2.0,1.0,part_1,,,,,,,,,,,,,blue,cross
91.0,6.0,2.0,1.0,3.0,3.0,390.232304984238,2.0,1.0,part_1,,,,,,,,,,,,,magenta,diamond
112.0,6.0,2.0,1.0,4.0,4.0,376.3767769851256,2.0,1.0,part_1,,,,,,,,,,,,,magenta,diamond
72.0,1.0,1.0,0.0,4.0,4.0,342.0334929833188,2.0,1.0,part_1,,,,,,,,,,,,,cyan,triangle
107.0,6.0,2.0,1.0,2.0,2.0,357.7309009851888,2.0,1.0,part_1,,,,,,,,,,,,,magenta,diamond
0.0,3.0,0.0,0.0,4.0,4.0,346.4707410021219,2.0,1.0,part_1,,,,,,,,,,,,,gray,square
376.0,8.0,4.0,1.0,1.0,1.0,334.9814350076485,2.0,1.0,part_1,,,,,,,,,,,,,white,I
210.0,7.0,3.0,1.0,2.0,2.0,337.4406289949547,2.0,1.0,part_1,,,,,,,,,,,,,blue,cross
389.0,8.0,4.0,1.0,3.0,3.0,369.1066770115867,2.0,1.0,part_1,,,,,,,,,,,,,white,I
55.0,1.0,1.0,0.0,4.0,4.0,368.461099016713,2.0,1.0,part_1,,,,,,,,,,,,,cyan,triangle
63.0,1.0,1.0,0.0,3.0,3.0,346.4208969962783,2.0,1.0,part_1,,,,,,,,,,,,,cyan,triangle
225.0,3.0,3.0,0.0,1.0,1.0,349.3343209847808,2.0,1.0,part_1,,,,,,,,,,,,,gray,square
68.0,5.0,1.0,1.0,4.0,4.0,369.8094330029562,2.0,1.0,part_1,,,,,,,,,,,,,orange,flipped triangle
225.0,7.0,3.0,1.0,1.0,1.0,281.2322969839442,2.0,1.0,part_1,,,,,,,,,,,,,blue,cross
84.0,2.0,2.0,0.0,3.0,3.0,370.859272981761,2.0,1.0,part_1,,,,,,,,,,,,,green,hexagon
0.0,3.0,0.0,0.0,1.0,1.0,292.978129000403,2.0,1.0,part_1,,,,,,,,,,,,,gray,square
51.0,1.0,1.0,0.0,1.0,1.0,341.9919509906322,2.0,1.0,part_1,,,,,,,,,,,,,cyan,triangle
404.0,8.0,4.0,1.0,4.0,4.0,373.2910550024826,2.0,1.0,part_1,,,,,,,,,,,,,white,I
202.0,3.0,3.0,0.0,4.0,4.0,354.5763440197333,2.0,1.0,part_1,,,,,,,,,,,,,gray,square
0.0,8.0,0.0,1.0,1.0,1.0,298.6602720047813,2.0,1.0,part_1,,,,,,,,,,,,,white,I
35.0,1.0,1.0,0.0,3.0,3.0,344.7653599723708,2.0,1.0,part_1,,,,,,,,,,,,,cyan,triangle
0.0,7.0,0.0,1.0,3.0,3.0,341.6862669982947,2.0,1.0,part_1,,,,,,,,,,,,,blue,cross
45.0,5.0,1.0,1.0,1.0,1.0,298.1134110013954,2.0,1.0,part_1,,,,,,,,,,,,,orange,flipped triangle
0.0,4.0,0.0,0.0,2.0,2.0,322.3813709919341,2.0,1.0,part_1,,,,,,,,,,,,,yellow,circle
0.0,8.0,0.0,1.0,2.0,2.0,349.5133070100564,3.0,1.0,part_1,,,,,,,,,,,,,white,I
47.0,1.0,1.0,0.0,2.0,2.0,314.0273579920176,3.0,1.0,part_1,,,,,,,,,,,,,cyan,triangle
84.0,6.0,2.0,1.0,1.0,1.0,293.2539260073099,3.0,1.0,part_1,,,,,,,,,,,,,magenta,diamond
417.0,4.0,4.0,0.0,1.0,1.0,341.7138769873418,3.0,1.0,part_1,,,,,,,,,,,,,yellow,circle
38.0,5.0,1.0,1.0,2.0,2.0,339.1597789886873,3.0,1.0,part_1,,,,,,,,,,,,,orange,flipped triangle
390.0,4.0,4.0,0.0,1.0,1.0,350.7510949857533,3.0,1.0,part_1,,,,,,,,,,,,,yellow,circle
0.0,3.0,0.0,0.0,2.0,2.0,338.8309730216861,3.0,1.0,part_1,,,,,,,,,,,,,gray,square
28.0,1.0,1.0,0.0,3.0,3.0,365.6393330020364,3.0,1.0,part_1,,,,,,,,,,,,,cyan,triangle
210.0,3.0,3.0,0.0,4.0,4.0,367.5181940197944,3.0,1.0,part_1,,,,,,,,,,,,,gray,square
0.0,8.0,0.0,1.0,4.0,4.0,364.0065030194819,3.0,1.0,part_1,,,,,,,,,,,,,white,I
181.0,3.0,3.0,0.0,4.0,4.0,309.3047099828254,3.0,1.0,part_1,,,,,,,,,,,,,gray,square
0.0,4.0,0.0,0.0,3.0,3.0,334.7878849890549,3.0,1.0,part_1,,,,,,,,,,,,,yellow,circle
0.0,5.0,0.0,1.0,3.0,3.0,347.0547320030164,3.0,1.0,part_1,,,,,,,,,,,,,orange,flipped triangle
406.0,8.0,4.0,1.0,3.0,3.0,335.4346239939332,3.0,1.0,part_1,,,,,,,,,,,,,white,I
44.0,5.0,1.0,1.0,3.0,3.0,334.1862319794018,3.0,1.0,part_1,,,,,,,,,,,,,orange,flipped triangle
419.0,4.0,4.0,0.0,1.0,1.0,337.2121650027111,3.0,1.0,part_1,,,,,,,,,,,,,yellow,circle
412.0,4.0,4.0,0.0,3.0,3.0,324.3321120098699,3.0,1.0,part_1,,,,,,,,,,,,,yellow,circle
206.0,3.0,3.0,0.0,2.0,2.0,314.8241180169862,3.0,1.0,part_1,,,,,,,,,,,,,gray,square
90.0,2.0,2.0,0.0,4.0,4.0,337.908278015675,3.0,1.0,part_1,,,,,,,,,,,,,green,hexagon
202.0,7.0,3.0,1.0,2.0,2.0,312.7379880170338,3.0,1.0,part_1,,,,,,,,,,,,,blue,cross
0.0,6.0,0.0,1.0,1.0,1.0,336.5818720194511,3.0,1.0,part_1,,,,,,,,,,,,,magenta,diamond
80.0,2.0,2.0,0.0,4.0,4.0,360.7903810043353,3.0,1.0,part_1,,,,,,,,,,,,,green,hexagon
45.0,1.0,1.0,0.0,2.0,2.0,294.5940349891316,3.0,1.0,part_1,,,,,,,,,,,,,cyan,triangle
376.0,4.0,4.0,0.0,2.0,2.0,305.7890700001735,3.0,1.0,part_1,,,,,,,,,,,,,yellow,circle
0.0,5.0,0.0,1.0,4.0,4.0,317.1285779972095,3.0,1.0,part_1,,,,,,,,,,,,,orange,flipped triangle
384.0,4.0,4.0,0.0,3.0,3.0,361.0669240006245,3.0,1.0,part_1,,,,,,,,,,,,,yellow,circle
182.0,3.0,3.0,0.0,1.0,1.0,328.6617750127334,3.0,1.0,part_1,,,,,,,,,,,,,gray,square
384.0,4.0,4.0,0.0,3.0,3.0,328.6062560218852,3.0,1.0,part_1,,,,,,,,,,,,,yellow,circle
182.0,7.0,3.0,1.0,4.0,4.0,397.0093179959804,3.0,1.0,part_1,,,,,,,,,,,,,blue,cross
120.0,6.0,2.0,1.0,1.0,1.0,342.3831529798917,3.0,1.0,part_1,,,,,,,,,,,,,magenta,diamond
0.0,2.0,0.0,0.0,4.0,4.0,334.4805050001014,3.0,1.0,part_1,,,,,,,,,,,,,green,hexagon
201.0,3.0,3.0,0.0,3.0,3.0,353.0770619981922,3.0,1.0,part_1,,,,,,,,,,,,,gray,square
0.0,1.0,0.0,0.0,2.0,2.0,345.7902690279297,3.0,1.0,part_1,,,,,,,,,,,,,cyan,triangle
0.0,2.0,0.0,0.0,4.0,4.0,347.6270529790781,3.0,1.0,part_1,,,,,,,,,,,,,green,hexagon
379.0,8.0,4.0,1.0,1.0,1.0,332.2553519974462,3.0,1.0,part_1,,,,,,,,,,,,,white,I
422.0,8.0,4.0,1.0,2.0,2.0,289.3583319964818,3.0,1.0,part_1,,,,,,,,,,,,,white,I
0.0,1.0,0.0,0.0,1.0,1.0,299.7063700167928,3.0,1.0,part_1,,,,,,,,,,,,,cyan,triangle
28.0,1.0,1.0,0.0,4.0,4.0,357.645420008339,3.0,1.0,part_1,,,,,,,,,,,,,cyan,triangle
387.0,8.0,4.0,1.0,4.0,4.0,360.5233069974929,3.0,1.0,part_1,,,,,,,,,,,,,white,I
204.0,7.0,3.0,1.0,1.0,1.0,338.8193840219173,3.0,1.0,part_1,,,,,,,,,,,,,blue,cross
0.0,6.0,0.0,1.0,1.0,1.0,372.9801150038838,3.0,1.0,part_1,,,,,,,,,,,,,magenta,diamond
33.0,5.0,1.0,1.0,2.0,2.0,336.8014589941595,3.0,1.0,part_1,,,,,,,,,,,,,orange,flipped triangle
68.0,5.0,1.0,1.0,3.0,3.0,349.6986969839781,3.0,1.0,part_1,,,,,,,,,,,,,orange,flipped triangle
38.0,1.0,1.0,0.0,1.0,1.0,340.3379879891872,3.0,1.0,part_1,,,,,,,,,,,,,cyan,triangle
52.0,1.0,1.0,0.0,3.0,3.0,364.2403539852239,3.0,1.0,part_1,,,,,,,,,,,,,cyan,triangle
0.0,7.0,0.0,1.0,2.0,2.0,329.5729199890047,3.0,1.0,part_1,,,,,,,,,,,,,blue,cross
379.0,8.0,4.0,1.0,2.0,2.0,329.8902020032983,3.0,1.0,part_1,,,,,,,,,,,,,white,I
62.0,5.0,1.0,1.0,4.0,4.0,353.5584240162279,3.0,1.0,part_1,,,,,,,,,,,,,orange,flipped triangle
0.0,1.0,0.0,0.0,3.0,3.0,353.9012319815811,3.0,1.0,part_1,,,,,,,,,,,,,cyan,triangle
419.0,4.0,4.0,0.0,1.0,1.0,307.6012530073058,3.0,1.0,part_1,,,,,,,,,,,,,yellow,circle
88.0,6.0,2.0,1.0,4.0,4.0,333.396703004837,3.0,1.0,part_1,,,,,,,,,,,,,magenta,diamond
122.0,6.0,2.0,1.0,2.0,2.0,344.2436190089211,3.0,1.0,part_1,,,,,,,,,,,,,magenta,diamond
193.0,7.0,3.0,1.0,2.0,2.0,323.5363900021184,3.0,1.0,part_1,,,,,,,,,,,,,blue,cross
192.0,7.0,3.0,1.0,1.0,1.0,548.0338899942581,3.0,1.0,part_1,,,,,,,,,,,,,blue,cross
184.0,3.0,3.0,0.0,2.0,2.0,298.8774719997309,3.0,1.0,part_1,,,,,,,,,,,,,gray,square
47.0,1.0,1.0,0.0,2.0,2.0,287.7460150048136,3.0,1.0,part_1,,,,,,,,,,,,,cyan,triangle
59.0,5.0,1.0,1.0,4.0,4.0,291.5531990001909,3.0,1.0,part_1,,,,,,,,,,,,,orange,flipped triangle
199.0,3.0,3.0,0.0,1.0,1.0,311.8626619980205,3.0,1.0,part_1,,,,,,,,,,,,,gray,square
211.0,3.0,3.0,0.0,4.0,4.0,323.5552859841846,3.0,1.0,part_1,,,,,,,,,,,,,gray,square
74.0,5.0,1.0,1.0,4.0,4.0,338.4453489852603,3.0,1.0,part_1,,,,,,,,,,,,,orange,flipped triangle
211.0,7.0,3.0,1.0,4.0,4.0,305.4519500001333,3.0,1.0,part_1,,,,,,,,,,,,,blue,cross
0.0,5.0,0.0,1.0,1.0,1.0,326.4306460041553,3.0,1.0,part_1,,,,,,,,,,,,,orange,flipped triangle
207.0,3.0,3.0,0.0,4.0,4.0,359.8453470040113,3.0,1.0,part_1,,,,,,,,,,,,,gray,square
0.0,6.0,0.0,1.0,1.0,1.0,303.995180001948,3.0,1.0,part_1,,,,,,,,,,,,,magenta,diamond
121.0,6.0,2.0,1.0,1.0,1.0,329.9162499897647,3.0,1.0,part_1,,,,,,,,,,,,,magenta,diamond
406.0,8.0,4.0,1.0,2.0,2.0,353.7155580124818,3.0,1.0,part_1,,,,,,,,,,,,,white,I
207.0,7.0,3.0,1.0,3.0,3.0,341.5854259801563,3.0,1.0,part_1,,,,,,,,,,,,,blue,cross
205.0,3.0,3.0,0.0,2.0,2.0,295.4349830106366,3.0,1.0,part_1,,,,,,,,,,,,,gray,square
79.0,6.0,2.0,1.0,2.0,2.0,317.411292984616,3.0,1.0,part_1,,,,,,,,,,,,,magenta,diamond
194.0,7.0,3.0,1.0,1.0,1.0,332.9967629979364,3.0,1.0,part_1,,,,,,,,,,,,,blue,cross
380.0,4.0,4.0,0.0,4.0,4.0,333.3049310022034,3.0,1.0,part_1,,,,,,,,,,,,,yellow,circle
66.0,1.0,1.0,0.0,3.0,3.0,345.1170500193257,3.0,1.0,part_1,,,,,,,,,,,,,cyan,triangle
206.0,7.0,3.0,1.0,4.0,4.0,398.2547420018818,3.0,1.0,part_1,,,,,,,,,,,,,blue,cross
96.0,6.0,2.0,1.0,1.0,1.0,312.9532180028036,3.0,1.0,part_1,,,,,,,,,,,,,magenta,diamond
58.0,1.0,1.0,0.0,3.0,3.0,311.3906059879809,3.0,1.0,part_1,,,,,,,,,,,,,cyan,triangle
207.0,3.0,3.0,0.0,1.0,1.0,310.1486800005659,3.0,1.0,part_1,,,,,,,,,,,,,gray,square
28.0,5.0,1.0,1.0,1.0,1.0,326.1694090033415,3.0,1.0,part_1,,,,,,,,,,,,,orange,flipped triangle
0.0,7.0,0.0,1.0,1.0,1.0,322.8411270247306,3.0,1.0,part_1,,,,,,,,,,,,,blue,cross
422.0,4.0,4.0,0.0,2.0,2.0,338.0375939887017,3.0,1.0,part_1,,,,,,,,,,,,,yellow,circle
51.0,1.0,1.0,0.0,4.0,4.0,373.079040000448,3.0,1.0,part_1,,,,,,,,,,,,,cyan,triangle
210.0,3.0,3.0,0.0,1.0,1.0,326.7155139765236,3.0,1.0,part_1,,,,,,,,,,,,,gray,square
417.0,8.0,4.0,1.0,4.0,4.0,313.8692229986191,3.0,1.0,part_1,,,,,,,,,,,,,white,I
412.0,4.0,4.0,0.0,3.0,3.0,302.7031279925722,3.0,1.0,part_1,,,,,,,,,,,,,yellow,circle
49.0,5.0,1.0,1.0,3.0,3.0,326.0764850128907,3.0,1.0,part_1,,,,,,,,,,,,,orange,flipped triangle
190.0,7.0,3.0,1.0,2.0,2.0,397.5374189903959,3.0,1.0,part_1,,,,,,,,,,,,,blue,cross
183.0,7.0,3.0,1.0,4.0,4.0,293.5104150092229,3.0,1.0,part_1,,,,,,,,,,,,,blue,cross
0.0,2.0,0.0,0.0,3.0,3.0,298.0359959765337,3.0,1.0,part_1,,,,,,,,,,,,,green,hexagon
0.0,5.0,0.0,1.0,2.0,2.0,298.1085249921307,3.0,1.0,part_1,,,,,,,,,,,,,orange,flipped triangle
0.0,8.0,0.0,1.0,2.0,2.0,351.0218860174063,3.0,1.0,part_1,,,,,,,,,,,,,white,I
109.0,6.0,2.0,1.0,4.0,4.0,329.8728499794379,3.0,1.0,part_1,,,,,,,,,,,,,magenta,diamond
195.0,7.0,3.0,1.0,1.0,1.0,374.8152529879007,3.0,1.0,part_1,,,,,,,,,,,,,blue,cross
389.0,4.0,4.0,0.0,3.0,3.0,345.4197839892003,3.0,1.0,part_1,,,,,,,,,,,,,yellow,circle
104.0,6.0,2.0,1.0,2.0,2.0,342.2244320099707,3.0,1.0,part_1,,,,,,,,,,,,,magenta,diamond
125.0,2.0,2.0,0.0,2.0,2.0,333.0094100092537,3.0,1.0,part_1,,,,,,,,,,,,,green,hexagon
92.0,6.0,2.0,1.0,3.0,3.0,380.6871529959608,3.0,1.0,part_1,,,,,,,,,,,,,magenta,diamond
94.0,6.0,2.0,1.0,4.0,4.0,369.4602999894414,3.0,1.0,part_1,,,,,,,,,,,,,magenta,diamond
35.0,5.0,1.0,1.0,1.0,1.0,355.0455899967346,3.0,1.0,part_1,,,,,,,,,,,,,orange,flipped triangle
179.0,7.0,3.0,1.0,3.0,3.0,368.8859370013233,3.0,1.0,part_1,,,,,,,,,,,,,blue,cross
55.0,1.0,1.0,0.0,3.0,3.0,381.9522140256595,3.0,1.0,part_1,,,,,,,,,,,,,cyan,triangle
0.0,7.0,0.0,1.0,2.0,2.0,304.7297610028181,3.0,1.0,part_1,,,,,,,,,,,,,blue,cross
0.0,3.0,0.0,0.0,3.0,3.0,470.0996130122803,4.0,1.0,part_1,,,,,,,,,,,,,gray,square
404.0,8.0,4.0,1.0,2.0,2.0,301.2858389993198,4.0,1.0,part_1,,,,,,,,,,,,,white,I
32.0,5.0,1.0,1.0,3.0,3.0,334.9390320072416,4.0,1.0,part_1,,,,,,,,,,,,,orange,flipped triangle
0.0,1.0,0.0,0.0,2.0,2.0,346.7753129953053,4.0,1.0,part_1,,,,,,,,,,,,,cyan,triangle
96.0,6.0,2.0,1.0,4.0,4.0,507.8951329924166,4.0,1.0,part_1,,,,,,,,,,,,,magenta,diamond
216.0,7.0,3.0,1.0,3.0,3.0,350.2130479901097,4.0,1.0,part_1,,,,,,,,,,,,,blue,cross
425.0,4.0,4.0,0.0,1.0,1.0,338.9714410004671,4.0,1.0,part_1,,,,,,,,,,,,,yellow,circle
199.0,7.0,3.0,1.0,2.0,2.0,306.9343839888461,4.0,1.0,part_1,,,,,,,,,,,,,blue,cross
62.0,1.0,1.0,0.0,2.0,2.0,327.8504179907031,4.0,1.0,part_1,,,,,,,,,,,,,cyan,triangle
0.0,5.0,0.0,1.0,2.0,2.0,342.6475790038239,4.0,1.0,part_1,,,,,,,,,,,,,orange,flipped triangle
116.0,6.0,2.0,1.0,3.0,3.0,343.0066090077162,4.0,1.0,part_1,,,,,,,,,,,,,magenta,diamond
115.0,6.0,2.0,1.0,3.0,3.0,331.7491860070731,4.0,1.0,part_1,,,,,,,,,,,,,magenta,diamond
90.0,6.0,2.0,1.0,2.0,2.0,343.5551220027264,4.0,1.0,part_1,,,,,,,,,,,,,magenta,diamond
195.0,7.0,3.0,1.0,3.0,3.0,278.3802060002927,4.0,1.0,part_1,,,,,,,,,,,,,blue,cross
0.0,8.0,0.0,1.0,3.0,3.0,355.2979909873102,4.0,1.0,part_1,,,,,,,,,,,,,white,I
92.0,2.0,2.0,0.0,4.0,4.0,346.1268179817125,4.0,1.0,part_1,,,,,,,,,,,,,green,hexagon
49.0,5.0,1.0,1.0,4.0,4.0,312.279303005198,4.0,1.0,part_1,,,,,,,,,,,,,orange,flipped triangle
210.0,7.0,3.0,1.0,3.0,3.0,357.4076219811104,4.0,1.0,part_1,,,,,,,,,,,,,blue,cross
401.0,8.0,4.0,1.0,2.0,2.0,355.5760520102922,4.0,1.0,part_1,,,,,,,,,,,,,white,I
0.0,3.0,0.0,0.0,3.0,3.0,333.5329169931356,4.0,1.0,part_1,,,,,,,,,,,,,gray,square
390.0,8.0,4.0,1.0,2.0,2.0,311.4680059952661,4.0,1.0,part_1,,,,,,,,,,,,,white,I
64.0,5.0,1.0,1.0,3.0,3.0,344.4947449897881,4.0,1.0,part_1,,,,,,,,,,,,,orange,flipped triangle
66.0,5.0,1.0,1.0,1.0,1.0,360.8694589929655,4.0,1.0,part_1,,,,,,,,,,,,,orange,flipped triangle
121.0,2.0,2.0,0.0,3.0,3.0,292.3976549936924,4.0,1.0,part_1,,,,,,,,,,,,,green,hexagon
199.0,7.0,3.0,1.0,2.0,2.0,337.2129589843098,4.0,1.0,part_1,,,,,,,,,,,,,blue,cross
178.0,7.0,3.0,1.0,3.0,3.0,318.7798829749226,4.0,1.0,part_1,,,,,,,,,,,,,blue,cross
192.0,3.0,3.0,0.0,4.0,4.0,304.4419910002034,4.0,1.0,part_1,,,,,,,,,,,,,gray,square
50.0,5.0,1.0,1.0,2.0,2.0,318.1711259821895,4.0,1.0,part_1,,,,,,,,,,,,,orange,flipped triangle
44.0,1.0,1.0,0.0,2.0,2.0,316.4755729958415,4.0,1.0,part_1,,,,,,,,,,,,,cyan,triangle
49.0,1.0,1.0,0.0,4.0,4.0,354.4916719838511,4.0,1.0,part_1,,,,,,,,,,,,,cyan,triangle
0.0,7.0,0.0,1.0,4.0,4.0,339.211198996054,4.0,1.0,part_1,,,,,,,,,,,,,blue,cross
90.0,2.0,2.0,0.0,1.0,1.0,355.0956030085217,4.0,1.0,part_1,,,,,,,,,,,,,green,hexagon
417.0,8.0,4.0,1.0,3.0,3.0,378.5739180166274,4.0,1.0,part_1,,,,,,,,,,,,,white,I
221.0,7.0,3.0,1.0,4.0,4.0,323.1455429922789,4.0,1.0,part_1,,,,,,,,,,,,,blue,cross
59.0,1.0,1.0,0.0,2.0,2.0,363.7257719819899,4.0,1.0,part_1,,,,,,,,,,,,,cyan,triangle
112.0,6.0,2.0,1.0,2.0,2.0,353.6430440144613,4.0,1.0,part_1,,,,,,,,,,,,,magenta,diamond
189.0,7.0,3.0,1.0,4.0,4.0,391.0474159929435,4.0,1.0,part_1,,,,,,,,,,,,,blue,cross
0.0,4.0,0.0,0.0,3.0,3.0,347.7888560155406,4.0,1.0,part_1,,,,,,,,,,,,,yellow,circle
219.0,7.0,3.0,1.0,1.0,1.0,322.1735719998833,4.0,1.0,part_1,,,,,,,,,,,,,blue,cross
399.0,4.0,4.0,0.0,1.0,1.0,292.0996390166692,4.0,1.0,part_1,,,,,,,,,,,,,yellow,circle
51.0,5.0,1.0,1.0,1.0,1.0,357.7301729819737,4.0,1.0,part_1,,,,,,,,,,,,,orange,flipped triangle
27.0,1.0,1.0,0.0,4.0,4.0,348.3855070080608,4.0,1.0,part_1,,,,,,,,,,,,,cyan,triangle
178.0,7.0,3.0,1.0,3.0,3.0,334.7039739892352,4.0,1.0,part_1,,,,,,,,,,,,,blue,cross
219.0,7.0,3.0,1.0,4.0,4.0,359.5215220120735,4.0,1.0,part_1,,,,,,,,,,,,,blue,cross
119.0,6.0,2.0,1.0,1.0,1.0,325.9081259893719,4.0,1.0,part_1,,,,,,,,,,,,,magenta,diamond
112.0,6.0,2.0,1.0,1.0,1.0,351.9470960018225,4.0,1.0,part_1,,,,,,,,,,,,,magenta,diamond
82.0,2.0,2.0,0.0,4.0,4.0,348.3834619983099,4.0,1.0,part_1,,,,,,,,,,,,,green,hexagon
203.0,3.0,3.0,0.0,2.0,2.0,349.5719719794579,4.0,1.0,part_1,,,,,,,,,,,,,gray,square
104.0,2.0,2.0,0.0,3.0,3.0,327.1583890018519,4.0,1.0,part_1,,,,,,,,,,,,,green,hexagon
0.0,6.0,0.0,1.0,2.0,2.0,327.9466349922586,4.0,1.0,part_1,,,,,,,,,,,,,magenta,diamond
51.0,5.0,1.0,1.0,2.0,2.0,362.0997830003034,4.0,1.0,part_1,,,,,,,,,,,,,orange,flipped triangle
392.0,8.0,4.0,1.0,4.0,4.0,340.1158130145632,4.0,1.0,part_1,,,,,,,,,,,,,white,I
64.0,1.0,1.0,0.0,4.0,4.0,343.7122050090693,4.0,1.0,part_1,,,,,,,,,,,,,cyan,triangle
0.0,1.0,0.0,0.0,4.0,4.0,363.533819996519,4.0,1.0,part_1,,,,,,,,,,,,,cyan,triangle
0.0,5.0,0.0,1.0,2.0,2.0,310.0632609857712,4.0,1.0,part_1,,,,,,,,,,,,,orange,flipped triangle
88.0,2.0,2.0,0.0,4.0,4.0,344.9124640028458,4.0,1.0,part_1,,,,,,,,,,,,,green,hexagon
0.0,6.0,0.0,1.0,1.0,1.0,366.707517998293,4.0,1.0,part_1,,,,,,,,,,,,,magenta,diamond
38.0,5.0,1.0,1.0,1.0,1.0,332.0422490069177,4.0,1.0,part_1,,,,,,,,,,,,,orange,flipped triangle
380.0,8.0,4.0,1.0,1.0,1.0,310.5778800090775,4.0,1.0,part_1,,,,,,,,,,,,,white,I
112.0,2.0,2.0,0.0,1.0,1.0,324.0002320089843,4.0,1.0,part_1,,,,,,,,,,,,,green,hexagon
410.0,4.0,4.0,0.0,2.0,2.0,355.564413999673,4.0,1.0,part_1,,,,,,,,,,,,,yellow,circle
38.0,5.0,1.0,1.0,1.0,1.0,325.7540040067397,4.0,1.0,part_1,,,,,,,,,,,,,orange,flipped triangle
0.0,6.0,0.0,1.0,2.0,2.0,293.2464359910227,4.0,1.0,part_1,,,,,,,,,,,,,magenta,diamond
0.0,4.0,0.0,0.0,4.0,4.0,369.5573849836364,4.0,1.0,part_1,,,,,,,,,,,,,yellow,circle
78.0,2.0,2.0,0.0,2.0,2.0,350.0851490243803,4.0,1.0,part_1,,,,,,,,,,,,,green,hexagon
63.0,5.0,1.0,1.0,2.0,2.0,361.8338920059614,4.0,1.0,part_1,,,,,,,,,,,,,orange,flipped triangle
78.0,2.0,2.0,0.0,2.0,2.0,294.1672980086878,4.0,1.0,part_1,,,,,,,,,,,,,green,hexagon
96.0,2.0,2.0,0.0,4.0,4.0,374.6471619815565,4.0,1.0,part_1,,,,,,,,,,,,,green,hexagon
0.0,2.0,0.0,0.0,2.0,2.0,364.3036800203845,4.0,1.0,part_1,,,,,,,,,,,,,green,hexagon
0.0,8.0,0.0,1.0,2.0,2.0,304.903985990677,4.0,1.0,part_1,,,,,,,,,,,,,white,I
107.0,2.0,2.0,0.0,1.0,1.0,365.0213340006303,4.0,1.0,part_1,,,,,,,,,,,,,green,hexagon
115.0,6.0,2.0,1.0,1.0,1.0,332.1856139809824,4.0,1.0,part_1,,,,,,,,,,,,,magenta,diamond
98.0,2.0,2.0,0.0,2.0,2.0,306.6068599873688,4.0,1.0,part_1,,,,,,,,,,,,,green,hexagon
219.0,3.0,3.0,0.0,4.0,4.0,409.0016050031408,4.0,1.0,part_1,,,,,,,,,,,,,gray,square
0.0,2.0,0.0,0.0,3.0,3.0,310.003113001585,4.0,1.0,part_1,,,,,,,,,,,,,green,hexagon
221.0,3.0,3.0,0.0,3.0,3.0,353.1874239852186,4.0,1.0,part_1,,,,,,,,,,,,,gray,square
115.0,2.0,2.0,0.0,1.0,1.0,287.9297460021917,4.0,1.0,part_1,,,,,,,,,,,,,green,hexagon
181.0,7.0,3.0,1.0,2.0,2.0,297.9649630142376,4.0,1.0,part_1,,,,,,,,,,,,,blue,cross
114.0,6.0,2.0,1.0,3.0,3.0,343.2572459860239,4.0,1.0,part_1,,,,,,,,,,,,,magenta,diamond
0.0,5.0,0.0,1.0,3.0,3.0,303.2735509914346,4.0,1.0,part_1,,,,,,,,,,,,,orange,flipped triangle
125.0,6.0,2.0,1.0,2.0,2.0,357.133600016823,4.0,1.0,part_1,,,,,,,,,,,,,magenta,diamond
0.0,4.0,0.0,0.0,2.0,2.0,346.4636320131831,4.0,1.0,part_1,,,,,,,,,,,,,yellow,circle
0.0,2.0,0.0,0.0,2.0,2.0,323.4498369856737,4.0,1.0,part_1,,,,,,,,,,,,,green,hexagon
85.0,6.0,2.0,1.0,1.0,1.0,280.6285510014277,4.0,1.0,part_1,,,,,,,,,,,,,magenta,diamond
50.0,5.0,1.0,1.0,3.0,3.0,350.4575730185024,4.0,1.0,part_1,,,,,,,,,,,,,orange,flipped triangle
183.0,3.0,3.0,0.0,3.0,3.0,352.2193880053237,4.0,1.0,part_1,,,,,,,,,,,,,gray,square
193.0,3.0,3.0,0.0,1.0,1.0,318.3718300133478,4.0,1.0,part_1,,,,,,,,,,,,,gray,square
58.0,5.0,1.0,1.0,1.0,1.0,270.5066739872563,4.0,1.0,part_1,,,,,,,,,,,,,orange,flipped triangle
0.0,2.0,0.0,0.0,4.0,4.0,337.7562929817941,4.0,1.0,part_1,,,,,,,,,,,,,green,hexagon
224.0,3.0,3.0,0.0,3.0,3.0,350.5874359980225,4.0,1.0,part_1,,,,,,,,,,,,,gray,square
33.0,5.0,1.0,1.0,4.0,4.0,363.8601730053779,4.0,1.0,part_1,,,,,,,,,,,,,orange,flipped triangle
96.0,6.0,2.0,1.0,1.0,1.0,317.3750159912742,4.0,1.0,part_1,,,,,,,,,,,,,magenta,diamond
27.0,5.0,1.0,1.0,2.0,2.0,329.115495987935,4.0,1.0,part_1,,,,,,,,,,,,,orange,flipped triangle
0.0,4.0,0.0,0.0,4.0,4.0,322.2058399987872,4.0,1.0,part_1,,,,,,,,,,,,,yellow,circle
393.0,8.0,4.0,1.0,3.0,3.0,332.0027799927629,4.0,1.0,part_1,,,,,,,,,,,,,white,I
114.0,2.0,2.0,0.0,1.0,1.0,311.0877849976532,4.0,1.0,part_1,,,,,,,,,,,,,green,hexagon
27.0,5.0,1.0,1.0,3.0,3.0,346.2823389854748,4.0,1.0,part_1,,,,,,,,,,,,,orange,flipped triangle
0.0,4.0,0.0,0.0,1.0,1.0,324.3237709975801,4.0,1.0,part_1,,,,,,,,,,,,,yellow,circle
66.0,5.0,1.0,1.0,1.0,1.0,313.1927489885129,4.0,1.0,part_1,,,,,,,,,,,,,orange,flipped triangle
0.0,5.0,0.0,1.0,4.0,4.0,324.0921609976794,4.0,1.0,part_1,,,,,,,,,,,,,orange,flipped triangle
0.0,5.0,1.0,1.0,5.0,0.0,0.0,1.0,0.0,part_2,stop,250.0,250.0,4.0,,,,,,,,,orange,flipped triangle
0.0,4.0,4.0,0.0,5.0,5.0,475.9429859986994,1.0,0.0,part_2,go,300.0,250.0,1.0,,,,,,,,,yellow,circle
0.0,2.0,2.0,0.0,5.0,5.0,521.7330319865141,1.0,0.0,part_2,go,300.0,250.0,1.0,,,,,,,,,green,hexagon
0.0,6.0,2.0,1.0,5.0,0.0,0.0,1.0,0.0,part_2,stop,300.0,250.0,4.0,,,,,,,,,magenta,diamond
0.0,7.0,3.0,1.0,5.0,5.0,463.7559470138512,1.0,0.0,part_2,stop,350.0,250.0,3.0,,,,,,,,,blue,cross
0.0,4.0,4.0,0.0,6.0,6.0,442.130396986613,1.0,0.0,part_2,go,300.0,250.0,1.0,,,,,,,,,yellow,circle
0.0,6.0,2.0,1.0,5.0,0.0,0.0,1.0,0.0,part_2,stop,300.0,250.0,4.0,,,,,,,,,magenta,diamond
0.0,6.0,2.0,1.0,6.0,6.0,548.8718450069427,1.0,0.0,part_2,go,350.0,250.0,1.0,,,,,,,,,magenta,diamond
0.0,5.0,1.0,1.0,5.0,0.0,0.0,1.0,0.0,part_2,stop,350.0,250.0,4.0,,,,,,,,,orange,flipped triangle
0.0,8.0,4.0,1.0,6.0,6.0,411.3785859954078,1.0,0.0,part_2,stop,400.0,250.0,3.0,,,,,,,,,white,I
0.0,6.0,2.0,1.0,5.0,5.0,538.614871999016,1.0,0.0,part_2,stop,400.0,200.0,3.0,,,,,,,,,magenta,diamond
0.0,3.0,3.0,0.0,6.0,6.0,560.9838259988464,1.0,0.0,part_2,go,350.0,200.0,1.0,,,,,,,,,gray,square
0.0,5.0,1.0,1.0,6.0,6.0,313.2326810155064,1.0,0.0,part_2,stop,350.0,200.0,3.0,,,,,,,,,orange,flipped triangle
0.0,7.0,3.0,1.0,5.0,5.0,292.8679960023146,1.0,0.0,part_2,stop,350.0,150.0,3.0,,,,,,,,,blue,cross
0.0,2.0,2.0,0.0,5.0,5.0,609.146007016534,1.0,0.0,part_2,go,300.0,150.0,1.0,,,,,,,,,green,hexagon
0.0,6.0,2.0,1.0,5.0,0.0,0.0,1.0,0.0,part_2,stop,300.0,150.0,4.0,,,,,,,,,magenta,diamond
0.0,2.0,2.0,0.0,5.0,5.0,249.9074620136525,1.0,0.0,part_2,go,350.0,150.0,1.0,,,,,,,,,green,hexagon
0.0,2.0,2.0,0.0,6.0,6.0,282.8439889999572,1.0,0.0,part_2,go,350.0,150.0,1.0,,,,,,,,,green,hexagon
0.0,3.0,3.0,0.0,6.0,6.0,464.3117100058589,1.0,0.0,part_2,go,350.0,150.0,1.0,,,,,,,,,gray,square
0.0,2.0,2.0,0.0,6.0,6.0,239.6578029729426,1.0,0.0,part_2,go,350.0,150.0,1.0,,,,,,,,,green,hexagon
0.0,4.0,4.0,0.0,6.0,6.0,368.5255279997363,1.0,0.0,part_2,go,350.0,150.0,1.0,,,,,,,,,yellow,circle
0.0,4.0,4.0,0.0,6.0,6.0,346.2830510106869,1.0,0.0,part_2,go,350.0,150.0,1.0,,,,,,,,,yellow,circle
0.0,1.0,1.0,0.0,5.0,5.0,302.4457690189592,1.0,0.0,part_2,go,350.0,150.0,1.0,,,,,,,,,cyan,triangle
0.0,3.0,3.0,0.0,5.0,5.0,359.4617370108608,1.0,0.0,part_2,go,350.0,150.0,1.0,,,,,,,,,gray,square
0.0,8.0,4.0,1.0,5.0,5.0,661.5629520092625,1.0,0.0,part_2,go,350.0,150.0,1.0,,,,,,,,,white,I
0.0,6.0,2.0,1.0,6.0,6.0,222.0839989895466,1.0,0.0,part_2,stop,350.0,150.0,3.0,,,,,,,,,magenta,diamond
0.0,2.0,2.0,0.0,6.0,6.0,301.319054007763,1.0,0.0,part_2,go,350.0,100.0,1.0,,,,,,,,,green,hexagon
0.0,3.0,3.0,0.0,6.0,6.0,294.4386129966005,1.0,0.0,part_2,go,350.0,100.0,1.0,,,,,,,,,gray,square
0.0,7.0,3.0,1.0,6.0,6.0,249.0636220027227,1.0,0.0,part_2,stop,350.0,100.0,3.0,,,,,,,,,blue,cross
0.0,5.0,1.0,1.0,5.0,5.0,273.0128840194084,1.0,0.0,part_2,stop,350.0,50.0,3.0,,,,,,,,,orange,flipped triangle
0.0,1.0,1.0,0.0,5.0,5.0,193.0981990008149,1.0,0.0,part_2,go,300.0,50.0,1.0,,,,,,,,,cyan,triangle
0.0,5.0,1.0,1.0,6.0,6.0,272.5749750097748,1.0,0.0,part_2,stop,300.0,50.0,3.0,,,,,,,,,orange,flipped triangle
0.0,8.0,4.0,1.0,6.0,6.0,364.4978200027253,1.0,0.0,part_2,go,300.0,0.0,1.0,,,,,,,,,white,I
0.0,6.0,2.0,1.0,6.0,6.0,354.811464989325,1.0,0.0,part_2,go,300.0,0.0,1.0,,,,,,,,,magenta,diamond
0.0,1.0,1.0,0.0,6.0,6.0,423.7252619932405,1.0,0.0,part_2,go,300.0,0.0,1.0,,,,,,,,,cyan,triangle
0.0,1.0,1.0,0.0,6.0,6.0,243.3596180053427,1.0,0.0,part_2,go,300.0,0.0,1.0,,,,,,,,,cyan,triangle
0.0,2.0,2.0,0.0,6.0,6.0,489.3065649957862,2.0,0.0,part_2,go,300.0,0.0,1.0,,,,,,,,,green,hexagon
0.0,3.0,3.0,0.0,6.0,6.0,443.4108480054419,2.0,0.0,part_2,go,300.0,0.0,1.0,,,,,,,,,gray,square
0.0,8.0,4.0,1.0,5.0,0.0,0.0,2.0,0.0,part_2,stop,300.0,0.0,4.0,,,,,,,,,white,I
0.0,4.0,4.0,0.0,6.0,6.0,568.3116019936278,2.0,0.0,part_2,go,350.0,0.0,1.0,,,,,,,,,yellow,circle
0.0,4.0,4.0,0.0,6.0,6.0,639.3764600215945,2.0,0.0,part_2,go,350.0,0.0,1.0,,,,,,,,,yellow,circle
0.0,7.0,3.0,1.0,6.0,0.0,0.0,2.0,0.0,part_2,stop,350.0,0.0,4.0,,,,,,,,,blue,cross
0.0,3.0,3.0,0.0,6.0,6.0,505.3860970074311,2.0,0.0,part_2,go,350.0,50.0,1.0,,,,,,,,,gray,square
0.0,8.0,4.0,1.0,5.0,0.0,0.0,2.0,0.0,part_2,stop,350.0,50.0,4.0,,,,,,,,,white,I
0.0,6.0,2.0,1.0,6.0,0.0,0.0,2.0,0.0,part_2,stop,400.0,50.0,4.0,,,,,,,,,magenta,diamond
0.0,2.0,2.0,0.0,5.0,5.0,519.5305290108081,2.0,0.0,part_2,go,400.0,100.0,1.0,,,,,,,,,green,hexagon
0.0,7.0,3.0,1.0,6.0,6.0,645.5279749934562,2.0,0.0,part_2,go,400.0,100.0,1.0,,,,,,,,,blue,cross
0.0,1.0,1.0,0.0,5.0,5.0,668.0128930020146,2.0,0.0,part_2,go,400.0,100.0,1.0,,,,,,,,,cyan,triangle
0.0,4.0,4.0,0.0,5.0,5.0,746.8020159867592,2.0,0.0,part_2,go,400.0,100.0,1.0,,,,,,,,,yellow,circle
0.0,8.0,4.0,1.0,5.0,0.0,0.0,2.0,0.0,part_2,stop,400.0,100.0,4.0,,,,,,,,,white,I
0.0,1.0,1.0,0.0,6.0,6.0,760.5935620085802,2.0,0.0,part_2,go,450.0,100.0,1.0,,,,,,,,,cyan,triangle
0.0,3.0,3.0,0.0,6.0,6.0,636.9474270031787,2.0,0.0,part_2,go,450.0,100.0,1.0,,,,,,,,,gray,square
0.0,6.0,2.0,1.0,5.0,0.0,0.0,2.0,0.0,part_2,stop,450.0,100.0,4.0,,,,,,,,,magenta,diamond
0.0,2.0,2.0,0.0,6.0,6.0,682.9394119849894,2.0,0.0,part_2,go,500.0,100.0,1.0,,,,,,,,,green,hexagon
0.0,2.0,2.0,0.0,6.0,6.0,696.3926809839904,2.0,0.0,part_2,go,500.0,100.0,1.0,,,,,,,,,green,hexagon
0.0,4.0,4.0,0.0,5.0,5.0,739.5260880002752,2.0,0.0,part_2,go,500.0,100.0,1.0,,,,,,,,,yellow,circle
0.0,2.0,2.0,0.0,6.0,6.0,660.9630010207184,2.0,0.0,part_2,go,500.0,100.0,1.0,,,,,,,,,green,hexagon
0.0,6.0,2.0,1.0,6.0,6.0,586.0355870099738,2.0,0.0,part_2,go,500.0,100.0,1.0,,,,,,,,,magenta,diamond
0.0,7.0,3.0,1.0,5.0,0.0,0.0,2.0,0.0,part_2,stop,500.0,100.0,4.0,,,,,,,,,blue,cross
0.0,1.0,1.0,0.0,6.0,6.0,651.9744170072954,2.0,0.0,part_2,go,550.0,100.0,1.0,,,,,,,,,cyan,triangle
0.0,5.0,1.0,1.0,6.0,0.0,0.0,2.0,0.0,part_2,stop,550.0,100.0,4.0,,,,,,,,,orange,flipped triangle
0.0,4.0,4.0,0.0,5.0,5.0,789.0256429964211,2.0,0.0,part_2,go,550.0,150.0,1.0,,,,,,,,,yellow,circle
0.0,4.0,4.0,0.0,6.0,6.0,780.3989780077245,2.0,0.0,part_2,go,550.0,150.0,1.0,,,,,,,,,yellow,circle
0.0,5.0,1.0,1.0,6.0,0.0,0.0,2.0,0.0,part_2,stop,550.0,150.0,4.0,,,,,,,,,orange,flipped triangle
0.0,4.0,4.0,0.0,6.0,6.0,626.9925940141547,2.0,0.0,part_2,go,550.0,200.0,1.0,,,,,,,,,yellow,circle
0.0,6.0,2.0,1.0,5.0,0.0,0.0,2.0,0.0,part_2,stop,550.0,200.0,4.0,,,,,,,,,magenta,diamond
0.0,7.0,3.0,1.0,5.0,5.0,662.0268969854806,2.0,0.0,part_2,stop,600.0,200.0,3.0,,,,,,,,,blue,cross
0.0,8.0,4.0,1.0,5.0,0.0,0.0,2.0,0.0,part_2,stop,550.0,200.0,4.0,,,,,,,,,white,I
0.0,1.0,1.0,0.0,5.0,5.0,809.8922429780941,2.0,0.0,part_2,go,600.0,200.0,1.0,,,,,,,,,cyan,triangle
0.0,4.0,4.0,0.0,5.0,5.0,754.59720598883,2.0,0.0,part_2,go,600.0,200.0,1.0,,,,,,,,,yellow,circle
0.0,6.0,2.0,1.0,6.0,0.0,0.0,2.0,0.0,part_2,stop,600.0,200.0,4.0,,,,,,,,,magenta,diamond
0.0,5.0,1.0,1.0,5.0,0.0,0.0,2.0,0.0,part_2,stop,600.0,250.0,4.0,,,,,,,,,orange,flipped triangle
0.0,5.0,1.0,1.0,5.0,5.0,361.1605750047602,3.0,0.0,part_2,stop,650.0,250.0,3.0,,,,,,,,,orange,flipped triangle
0.0,3.0,3.0,0.0,5.0,5.0,702.1491760096978,3.0,0.0,part_2,go,600.0,250.0,1.0,,,,,,,,,gray,square
0.0,4.0,4.0,0.0,5.0,5.0,724.0064429934137,3.0,0.0,part_2,go,600.0,250.0,1.0,,,,,,,,,yellow,circle
0.0,3.0,3.0,0.0,5.0,5.0,546.9448259973433,3.0,0.0,part_2,go,600.0,250.0,1.0,,,,,,,,,gray,square
0.0,5.0,1.0,1.0,6.0,0.0,0.0,3.0,0.0,part_2,stop,600.0,250.0,4.0,,,,,,,,,orange,flipped triangle
0.0,6.0,2.0,1.0,5.0,5.0,713.5057440027595,3.0,0.0,part_2,stop,600.0,300.0,3.0,,,,,,,,,magenta,diamond
0.0,8.0,4.0,1.0,6.0,0.0,0.0,3.0,0.0,part_2,stop,550.0,300.0,4.0,,,,,,,,,white,I
0.0,4.0,4.0,0.0,6.0,6.0,672.1232559939381,3.0,0.0,part_2,go,550.0,350.0,1.0,,,,,,,,,yellow,circle
0.0,4.0,4.0,0.0,6.0,6.0,547.8247150022071,3.0,0.0,part_2,go,550.0,350.0,1.0,,,,,,,,,yellow,circle
0.0,1.0,1.0,0.0,5.0,5.0,618.2250699785072,3.0,0.0,part_2,go,550.0,350.0,1.0,,,,,,,,,cyan,triangle
0.0,4.0,4.0,0.0,6.0,6.0,347.0035480277147,3.0,0.0,part_2,go,550.0,350.0,1.0,,,,,,,,,yellow,circle
0.0,6.0,2.0,1.0,6.0,0.0,0.0,3.0,0.0,part_2,stop,550.0,350.0,4.0,,,,,,,,,magenta,diamond
0.0,3.0,3.0,0.0,5.0,5.0,802.4125609954353,3.0,0.0,part_2,go,550.0,400.0,1.0,,,,,,,,,gray,square
0.0,1.0,1.0,0.0,6.0,6.0,731.6361670091283,3.0,0.0,part_2,go,550.0,400.0,1.0,,,,,,,,,cyan,triangle
0.0,3.0,3.0,0.0,5.0,5.0,744.5230020093732,3.0,0.0,part_2,go,550.0,400.0,1.0,,,,,,,,,gray,square
0.0,2.0,2.0,0.0,5.0,5.0,767.6353650167584,3.0,0.0,part_2,go,550.0,400.0,1.0,,,,,,,,,green,hexagon
0.0,5.0,1.0,1.0,6.0,0.0,0.0,3.0,0.0,part_2,stop,550.0,400.0,4.0,,,,,,,,,orange,flipped triangle
0.0,5.0,1.0,1.0,6.0,0.0,0.0,3.0,0.0,part_2,stop,550.0,450.0,4.0,,,,,,,,,orange,flipped triangle
0.0,7.0,3.0,1.0,6.0,0.0,0.0,3.0,0.0,part_2,stop,550.0,500.0,4.0,,,,,,,,,blue,cross
0.0,5.0,1.0,1.0,5.0,5.0,747.3824319895357,3.0,0.0,part_2,go,550.0,550.0,1.0,,,,,,,,,orange,flipped triangle
0.0,1.0,1.0,0.0,5.0,5.0,752.2259519901127,3.0,0.0,part_2,go,550.0,550.0,1.0,,,,,,,,,cyan,triangle
0.0,3.0,3.0,0.0,5.0,5.0,753.1879750022199,3.0,0.0,part_2,go,550.0,550.0,1.0,,,,,,,,,gray,square
0.0,1.0,1.0,0.0,6.0,6.0,754.4522430107463,3.0,0.0,part_2,go,550.0,550.0,1.0,,,,,,,,,cyan,triangle
0.0,3.0,3.0,0.0,5.0,5.0,639.6388069842942,3.0,0.0,part_2,go,550.0,550.0,1.0,,,,,,,,,gray,square
0.0,6.0,2.0,1.0,6.0,6.0,755.40956898476,3.0,0.0,part_2,go,550.0,550.0,1.0,,,,,,,,,magenta,diamond
0.0,8.0,4.0,1.0,6.0,0.0,0.0,3.0,0.0,part_2,stop,550.0,550.0,4.0,,,,,,,,,white,I
0.0,2.0,2.0,0.0,5.0,5.0,753.513222996844,3.0,0.0,part_2,go,550.0,600.0,1.0,,,,,,,,,green,hexagon
0.0,8.0,4.0,1.0,5.0,0.0,0.0,3.0,0.0,part_2,stop,550.0,600.0,4.0,,,,,,,,,white,I
0.0,7.0,3.0,1.0,5.0,0.0,0.0,3.0,0.0,part_2,stop,600.0,600.0,4.0,,,,,,,,,blue,cross
0.0,4.0,4.0,0.0,5.0,5.0,950.3234940057156,3.0,0.0,part_2,go,650.0,600.0,1.0,,,,,,,,,yellow,circle
0.0,7.0,3.0,1.0,6.0,0.0,0.0,3.0,0.0,part_2,stop,650.0,600.0,4.0,,,,,,,,,blue,cross
0.0,2.0,2.0,0.0,5.0,5.0,548.083839006722,3.0,0.0,part_2,go,650.0,650.0,1.0,,,,,,,,,green,hexagon
0.0,7.0,3.0,1.0,6.0,6.0,728.3391700184438,3.0,0.0,part_2,go,650.0,650.0,1.0,,,,,,,,,blue,cross
0.0,5.0,1.0,1.0,5.0,5.0,638.1682939827442,3.0,0.0,part_2,stop,650.0,650.0,3.0,,,,,,,,,orange,flipped triangle
0.0,4.0,4.0,0.0,5.0,5.0,581.956245994661,3.0,0.0,part_2,go,600.0,650.0,1.0,,,,,,,,,yellow,circle
0.0,8.0,4.0,1.0,5.0,5.0,625.9699870133772,3.0,0.0,part_2,go,600.0,650.0,1.0,,,,,,,,,white,I
0.0,2.0,2.0,0.0,5.0,5.0,308.7005060224328,4.0,0.0,part_2,go,600.0,650.0,1.0,,,,,,,,,green,hexagon
0.0,1.0,1.0,0.0,6.0,6.0,284.7974479955155,4.0,0.0,part_2,go,600.0,650.0,1.0,,,,,,,,,cyan,triangle
0.0,8.0,4.0,1.0,5.0,5.0,285.6559059873689,4.0,0.0,part_2,stop,600.0,650.0,3.0,,,,,,,,,white,I
0.0,8.0,4.0,1.0,6.0,6.0,233.3720829919912,4.0,0.0,part_2,go,550.0,650.0,1.0,,,,,,,,,white,I
0.0,2.0,2.0,0.0,6.0,6.0,289.3131839809939,4.0,0.0,part_2,go,550.0,650.0,1.0,,,,,,,,,green,hexagon
0.0,7.0,3.0,1.0,5.0,5.0,301.1337309726514,4.0,0.0,part_2,go,550.0,650.0,1.0,,,,,,,,,blue,cross
0.0,8.0,4.0,1.0,6.0,6.0,301.2285330041777,4.0,0.0,part_2,stop,550.0,650.0,3.0,,,,,,,,,white,I
0.0,7.0,3.0,1.0,6.0,6.0,246.0455489926971,4.0,0.0,part_2,stop,550.0,600.0,3.0,,,,,,,,,blue,cross
0.0,1.0,1.0,0.0,5.0,5.0,269.9761789990589,4.0,0.0,part_2,go,550.0,550.0,1.0,,,,,,,,,cyan,triangle
0.0,8.0,4.0,1.0,6.0,6.0,280.3587069793138,4.0,0.0,part_2,stop,550.0,550.0,3.0,,,,,,,,,white,I
0.0,8.0,4.0,1.0,6.0,6.0,234.8445589886978,4.0,0.0,part_2,stop,550.0,500.0,3.0,,,,,,,,,white,I
0.0,3.0,3.0,0.0,5.0,5.0,272.4731710040942,4.0,0.0,part_2,go,550.0,450.0,1.0,,,,,,,,,gray,square
0.0,8.0,4.0,1.0,6.0,6.0,237.0300689944997,4.0,0.0,part_2,stop,550.0,450.0,3.0,,,,,,,,,white,I
0.0,1.0,1.0,0.0,6.0,6.0,248.6154189973604,4.0,0.0,part_2,go,550.0,400.0,1.0,,,,,,,,,cyan,triangle
0.0,7.0,3.0,1.0,6.0,5.0,206.3996810175012,4.0,0.0,part_2,stop,550.0,400.0,3.0,,,,,,,,,blue,cross
0.0,3.0,3.0,0.0,5.0,5.0,295.8712769905105,4.0,0.0,part_2,go,550.0,350.0,1.0,,,,,,,,,gray,square
0.0,8.0,4.0,1.0,6.0,6.0,409.3868700147141,4.0,0.0,part_2,stop,550.0,350.0,3.0,,,,,,,,,white,I
0.0,2.0,2.0,0.0,5.0,5.0,297.6939200016204,4.0,0.0,part_2,go,550.0,300.0,1.0,,,,,,,,,green,hexagon
0.0,8.0,4.0,1.0,6.0,6.0,334.6775189856998,4.0,0.0,part_2,go,550.0,300.0,1.0,,,,,,,,,white,I
0.0,6.0,2.0,1.0,6.0,6.0,301.5644309925847,4.0,0.0,part_2,go,550.0,300.0,1.0,,,,,,,,,magenta,diamond
0.0,6.0,2.0,1.0,5.0,5.0,549.1429870016873,4.0,0.0,part_2,stop,550.0,300.0,3.0,,,,,,,,,magenta,diamond
0.0,7.0,3.0,1.0,5.0,5.0,346.3070819852873,4.0,0.0,part_2,go,500.0,300.0,1.0,,,,,,,,,blue,cross
0.0,1.0,1.0,0.0,5.0,5.0,395.0158350053243,4.0,0.0,part_2,go,500.0,300.0,1.0,,,,,,,,,cyan,triangle
0.0,8.0,4.0,1.0,6.0,6.0,268.1177689810283,4.0,0.0,part_2,stop,500.0,300.0,3.0,,,,,,,,,white,I
0.0,3.0,3.0,0.0,5.0,5.0,292.6822799781803,4.0,0.0,part_2,go,500.0,250.0,1.0,,,,,,,,,gray,square
0.0,4.0,4.0,0.0,6.0,6.0,260.832988016773,4.0,0.0,part_2,go,500.0,250.0,1.0,,,,,,,,,yellow,circle
0.0,3.0,3.0,0.0,6.0,6.0,342.7320119808428,4.0,0.0,part_2,go,500.0,250.0,1.0,,,,,,,,,gray,square
0.0,5.0,1.0,1.0,5.0,5.0,273.5677850141655,4.0,0.0,part_2,go,500.0,250.0,1.0,,,,,,,,,orange,flipped triangle
0.0,1.0,1.0,0.0,5.0,5.0,319.4752749986946,4.0,0.0,part_2,go,500.0,250.0,1.0,,,,,,,,,cyan,triangle
0.0,8.0,4.0,1.0,6.0,6.0,298.7493810069281,4.0,0.0,part_2,stop,500.0,250.0,3.0,,,,,,,,,white,I
0.0,5.0,1.0,1.0,6.0,6.0,319.017474015709,4.0,0.0,part_2,stop,500.0,200.0,3.0,,,,,,,,,orange,flipped triangle
0.0,2.0,2.0,0.0,5.0,5.0,456.3422579958569,4.0,0.0,part_2,go,500.0,150.0,1.0,,,,,,,,,green,hexagon
0.0,6.0,2.0,1.0,5.0,5.0,545.9619750035927,4.0,0.0,part_2,stop,500.0,150.0,3.0,,,,,,,,,magenta,diamond
0.0,8.0,4.0,1.0,5.0,5.0,458.902965998277,4.0,0.0,part_2,go,450.0,150.0,1.0,,,,,,,,,white,I
0.0,2.0,2.0,0.0,6.0,6.0,503.3345670090057,4.0,0.0,part_2,go,450.0,150.0,1.0,,,,,,,,,green,hexagon
0.0,3.0,3.0,0.0,6.0,6.0,585.7116440020036,4.0,0.0,part_2,go,450.0,150.0,1.0,,,,,,,,,gray,square
0.0,8.0,4.0,1.0,6.0,0.0,0.0,5.0,0.0,part_2,stop,450.0,150.0,4.0,,,,,,,,,white,I
0.0,3.0,3.0,0.0,6.0,6.0,495.7260999944992,5.0,0.0,part_2,go,450.0,200.0,1.0,,,,,,,,,gray,square
0.0,2.0,2.0,0.0,5.0,5.0,373.4266170067712,5.0,0.0,part_2,go,450.0,200.0,1.0,,,,,,,,,green,hexagon
0.0,7.0,3.0,1.0,6.0,6.0,363.0451100179925,5.0,0.0,part_2,go,450.0,200.0,1.0,,,,,,,,,blue,cross
0.0,4.0,4.0,0.0,6.0,6.0,508.7077589996625,5.0,0.0,part_2,go,450.0,200.0,1.0,,,,,,,,,yellow,circle
0.0,5.0,1.0,1.0,5.0,5.0,509.3799169990234,5.0,0.0,part_2,stop,450.0,200.0,3.0,,,,,,,,,orange,flipped triangle
0.0,3.0,3.0,0.0,6.0,6.0,533.6897820234299,5.0,0.0,part_2,go,400.0,200.0,1.0,,,,,,,,,gray,square
0.0,6.0,2.0,1.0,5.0,0.0,0.0,5.0,0.0,part_2,stop,400.0,200.0,4.0,,,,,,,,,magenta,diamond
0.0,7.0,3.0,1.0,5.0,5.0,668.876226991415,5.0,0.0,part_2,go,450.0,200.0,1.0,,,,,,,,,blue,cross
0.0,2.0,2.0,0.0,5.0,5.0,456.4508599869441,5.0,0.0,part_2,go,450.0,200.0,1.0,,,,,,,,,green,hexagon
0.0,4.0,4.0,0.0,5.0,5.0,278.4544780151918,5.0,0.0,part_2,go,450.0,200.0,1.0,,,,,,,,,yellow,circle
0.0,1.0,1.0,0.0,6.0,6.0,315.1754990103654,5.0,0.0,part_2,go,450.0,200.0,1.0,,,,,,,,,cyan,triangle
0.0,2.0,2.0,0.0,6.0,6.0,323.6366659984924,5.0,0.0,part_2,go,450.0,200.0,1.0,,,,,,,,,green,hexagon
0.0,3.0,3.0,0.0,5.0,5.0,684.677652985556,5.0,0.0,part_2,go,450.0,200.0,1.0,,,,,,,,,gray,square
0.0,6.0,2.0,1.0,6.0,0.0,0.0,5.0,0.0,part_2,stop,450.0,200.0,4.0,,,,,,,,,magenta,diamond
0.0,4.0,4.0,0.0,5.0,5.0,417.0382129959762,5.0,0.0,part_2,go,450.0,250.0,1.0,,,,,,,,,yellow,circle
0.0,1.0,1.0,0.0,6.0,6.0,293.5262359969783,5.0,0.0,part_2,go,450.0,250.0,1.0,,,,,,,,,cyan,triangle
0.0,8.0,4.0,1.0,6.0,6.0,355.2564239944331,5.0,0.0,part_2,stop,450.0,250.0,3.0,,,,,,,,,white,I
0.0,8.0,4.0,1.0,5.0,5.0,363.1120210047811,5.0,0.0,part_2,stop,450.0,200.0,3.0,,,,,,,,,white,I
0.0,6.0,2.0,1.0,6.0,6.0,388.874382013455,5.0,0.0,part_2,stop,400.0,200.0,3.0,,,,,,,,,magenta,diamond
0.0,8.0,4.0,1.0,6.0,6.0,498.8831259834114,5.0,0.0,part_2,go,400.0,150.0,1.0,,,,,,,,,white,I
0.0,5.0,1.0,1.0,6.0,6.0,478.559609997319,5.0,0.0,part_2,go,400.0,150.0,1.0,,,,,,,,,orange,flipped triangle
0.0,4.0,4.0,0.0,6.0,6.0,313.9609470090363,5.0,0.0,part_2,go,400.0,150.0,1.0,,,,,,,,,yellow,circle
0.0,8.0,4.0,1.0,5.0,5.0,479.4636229926254,5.0,0.0,part_2,stop,400.0,150.0,3.0,,,,,,,,,white,I
0.0,7.0,3.0,1.0,6.0,0.0,0.0,5.0,0.0,part_2,stop,350.0,150.0,4.0,,,,,,,,,blue,cross
0.0,5.0,1.0,1.0,5.0,5.0,508.07610998163,5.0,0.0,part_2,stop,350.0,200.0,3.0,,,,,,,,,orange,flipped triangle
0.0,3.0,3.0,0.0,6.0,6.0,597.2749960201327,5.0,0.0,part_2,go,300.0,200.0,1.0,,,,,,,,,gray,square
0.0,7.0,3.0,1.0,5.0,5.0,326.9353100040462,5.0,0.0,part_2,stop,300.0,200.0,3.0,,,,,,,,,blue,cross
0.0,6.0,2.0,1.0,5.0,5.0,449.552510981448,5.0,0.0,part_2,go,250.0,200.0,1.0,,,,,,,,,magenta,diamond
0.0,5.0,1.0,1.0,5.0,0.0,0.0,5.0,0.0,part_2,stop,250.0,200.0,4.0,,,,,,,,,orange,flipped triangle
0.0,2.0,2.0,0.0,6.0,6.0,601.0790959990118,5.0,0.0,part_2,go,300.0,200.0,1.0,,,,,,,,,green,hexagon
0.0,3.0,3.0,0.0,6.0,6.0,445.4112669918686,5.0,0.0,part_2,go,300.0,200.0,1.0,,,,,,,,,gray,square
0.0,1.0,1.0,0.0,6.0,6.0,533.4700859966688,5.0,0.0,part_2,go,300.0,200.0,1.0,,,,,,,,,cyan,triangle
0.0,7.0,3.0,1.0,6.0,6.0,318.6422580038197,5.0,0.0,part_2,stop,300.0,200.0,3.0,,,,,,,,,blue,cross
0.0,5.0,1.0,1.0,5.0,5.0,367.0149559911806,5.0,0.0,part_2,stop,300.0,150.0,3.0,,,,,,,,,orange,flipped triangle
0.0,7.0,3.0,1.0,5.0,5.0,568.2887730072252,5.0,0.0,part_2,go,250.0,150.0,1.0,,,,,,,,,blue,cross
0.0,2.0,2.0,0.0,5.0,5.0,515.291101008188,6.0,0.0,part_2,go,250.0,150.0,1.0,,,,,,,,,green,hexagon
0.0,5.0,1.0,1.0,5.0,0.0,0.0,6.0,0.0,part_2,stop,250.0,150.0,4.0,,,,,,,,,orange,flipped triangle
0.0,3.0,3.0,0.0,5.0,5.0,462.9293210164178,6.0,0.0,part_2,go,300.0,150.0,1.0,,,,,,,,,gray,square
0.0,7.0,3.0,1.0,5.0,5.0,451.7114290210884,6.0,0.0,part_2,stop,300.0,150.0,3.0,,,,,,,,,blue,cross
0.0,3.0,3.0,0.0,5.0,5.0,461.9310759881045,6.0,0.0,part_2,go,250.0,150.0,1.0,,,,,,,,,gray,square
0.0,4.0,4.0,0.0,5.0,5.0,418.875053001102,6.0,0.0,part_2,go,250.0,150.0,1.0,,,,,,,,,yellow,circle
0.0,4.0,4.0,0.0,5.0,5.0,387.0849419909064,6.0,0.0,part_2,go,250.0,150.0,1.0,,,,,,,,,yellow,circle
0.0,4.0,4.0,0.0,5.0,5.0,422.5838179991115,6.0,0.0,part_2,go,250.0,150.0,1.0,,,,,,,,,yellow,circle
0.0,7.0,3.0,1.0,5.0,0.0,0.0,6.0,0.0,part_2,stop,250.0,150.0,4.0,,,,,,,,,blue,cross
0.0,6.0,2.0,1.0,6.0,6.0,492.6126490172464,6.0,0.0,part_2,go,300.0,150.0,1.0,,,,,,,,,magenta,diamond
0.0,8.0,4.0,1.0,5.0,0.0,0.0,6.0,0.0,part_2,stop,300.0,150.0,4.0,,,,,,,,,white,I
0.0,1.0,1.0,0.0,6.0,6.0,263.6187780008185,6.0,0.0,part_2,go,350.0,150.0,1.0,,,,,,,,,cyan,triangle
0.0,5.0,1.0,1.0,5.0,5.0,429.1040550160687,6.0,0.0,part_2,stop,350.0,150.0,3.0,,,,,,,,,orange,flipped triangle
0.0,1.0,1.0,0.0,5.0,5.0,511.7697750101797,6.0,0.0,part_2,go,300.0,150.0,1.0,,,,,,,,,cyan,triangle
0.0,6.0,2.0,1.0,5.0,5.0,263.9350570098031,6.0,0.0,part_2,stop,300.0,150.0,3.0,,,,,,,,,magenta,diamond
0.0,7.0,3.0,1.0,5.0,0.0,0.0,6.0,0.0,part_2,stop,250.0,150.0,4.0,,,,,,,,,blue,cross
0.0,2.0,2.0,0.0,5.0,5.0,245.0428039883263,6.0,0.0,part_2,go,300.0,150.0,1.0,,,,,,,,,green,hexagon
0.0,2.0,2.0,0.0,6.0,6.0,289.0910130226984,6.0,0.0,part_2,go,300.0,150.0,1.0,,,,,,,,,green,hexagon
0.0,1.0,1.0,0.0,6.0,6.0,423.5903189983219,6.0,0.0,part_2,go,300.0,150.0,1.0,,,,,,,,,cyan,triangle
0.0,4.0,4.0,0.0,6.0,6.0,336.8307389901019,6.0,0.0,part_2,go,300.0,150.0,1.0,,,,,,,,,yellow,circle
0.0,6.0,2.0,1.0,6.0,0.0,0.0,6.0,0.0,part_2,stop,300.0,150.0,4.0,,,,,,,,,magenta,diamond
0.0,3.0,3.0,0.0,6.0,6.0,505.2111310069449,6.0,0.0,part_2,go,300.0,200.0,1.0,,,,,,,,,gray,square
0.0,7.0,3.0,1.0,6.0,6.0,305.425375001505,6.0,0.0,part_2,stop,300.0,200.0,3.0,,,,,,,,,blue,cross
0.0,5.0,1.0,1.0,6.0,6.0,634.4054480141494,6.0,0.0,part_2,go,300.0,150.0,1.0,,,,,,,,,orange,flipped triangle
0.0,2.0,2.0,0.0,6.0,6.0,260.8887740061618,6.0,0.0,part_2,go,300.0,150.0,1.0,,,,,,,,,green,hexagon
0.0,5.0,1.0,1.0,6.0,6.0,251.81108902324922,6.0,0.0,part_2,go,300.0,150.0,1.0,,,,,,,,,orange,flipped triangle
0.0,1.0,1.0,0.0,5.0,5.0,296.1476990021765,6.0,0.0,part_2,go,300.0,150.0,1.0,,,,,,,,,cyan,triangle
0.0,6.0,2.0,1.0,5.0,5.0,326.2389349984005,6.0,0.0,part_2,stop,300.0,150.0,3.0,,,,,,,,,magenta,diamond
0.0,2.0,2.0,0.0,6.0,6.0,240.3912069858051,6.0,0.0,part_2,go,250.0,150.0,1.0,,,,,,,,,green,hexagon
0.0,1.0,1.0,0.0,6.0,6.0,353.1598739791661,6.0,0.0,part_2,go,250.0,150.0,1.0,,,,,,,,,cyan,triangle
0.0,5.0,1.0,1.0,6.0,6.0,312.656849011546,6.0,0.0,part_2,go,250.0,150.0,1.0,,,,,,,,,orange,flipped triangle
0.0,2.0,2.0,0.0,5.0,5.0,479.3772870034445,6.0,0.0,part_2,go,250.0,150.0,1.0,,,,,,,,,green,hexagon
0.0,6.0,2.0,1.0,6.0,6.0,460.3620739944745,6.0,0.0,part_2,go,250.0,150.0,1.0,,,,,,,,,magenta,diamond
0.0,4.0,4.0,0.0,6.0,6.0,323.1700290052686,6.0,0.0,part_2,go,250.0,150.0,1.0,,,,,,,,,yellow,circle
0.0,1.0,1.0,0.0,5.0,5.0,336.7342989949975,6.0,0.0,part_2,go,250.0,150.0,1.0,,,,,,,,,cyan,triangle
0.0,2.0,2.0,0.0,6.0,6.0,272.7111929852981,6.0,0.0,part_2,go,250.0,150.0,1.0,,,,,,,,,green,hexagon
0.0,3.0,3.0,0.0,5.0,5.0,369.0017159970011,7.0,0.0,part_2,go,250.0,150.0,1.0,,,,,,,,,gray,square
0.0,7.0,3.0,1.0,5.0,5.0,314.6111439855303,7.0,0.0,part_2,stop,250.0,150.0,3.0,,,,,,,,,blue,cross
0.0,4.0,4.0,0.0,6.0,6.0,414.8379329999443,7.0,0.0,part_2,go,200.0,150.0,1.0,,,,,,,,,yellow,circle
0.0,6.0,2.0,1.0,5.0,0.0,0.0,7.0,0.0,part_2,stop,200.0,150.0,4.0,,,,,,,,,magenta,diamond
0.0,3.0,3.0,0.0,5.0,5.0,397.7238109800964,7.0,0.0,part_2,go,250.0,150.0,1.0,,,,,,,,,gray,square
0.0,5.0,1.0,1.0,6.0,0.0,0.0,7.0,0.0,part_2,stop,250.0,150.0,4.0,,,,,,,,,orange,flipped triangle
0.0,1.0,1.0,0.0,5.0,5.0,387.7864879905246,7.0,0.0,part_2,go,250.0,200.0,1.0,,,,,,,,,cyan,triangle
0.0,7.0,3.0,1.0,5.0,5.0,377.8682239935733,7.0,0.0,part_2,go,250.0,200.0,1.0,,,,,,,,,blue,cross
0.0,2.0,2.0,0.0,6.0,6.0,478.4710139792878,7.0,0.0,part_2,go,250.0,200.0,1.0,,,,,,,,,green,hexagon
0.0,7.0,3.0,1.0,6.0,0.0,0.0,7.0,0.0,part_2,stop,250.0,200.0,4.0,,,,,,,,,blue,cross
0.0,8.0,4.0,1.0,5.0,5.0,447.9850759962573,7.0,0.0,part_2,go,250.0,250.0,1.0,,,,,,,,,white,I
0.0,2.0,2.0,0.0,5.0,5.0,535.0644130085129,7.0,0.0,part_2,go,250.0,250.0,1.0,,,,,,,,,green,hexagon
0.0,1.0,1.0,0.0,6.0,6.0,414.0625839936547,7.0,0.0,part_2,go,250.0,250.0,1.0,,,,,,,,,cyan,triangle
0.0,8.0,4.0,1.0,5.0,0.0,0.0,7.0,0.0,part_2,stop,250.0,250.0,4.0,,,,,,,,,white,I
0.0,3.0,3.0,0.0,6.0,6.0,460.0132229970768,7.0,0.0,part_2,go,300.0,250.0,1.0,,,,,,,,,gray,square
0.0,4.0,4.0,0.0,5.0,5.0,527.6082089985721,7.0,0.0,part_2,go,300.0,250.0,1.0,,,,,,,,,yellow,circle
0.0,1.0,1.0,0.0,5.0,5.0,374.1185420076363,7.0,0.0,part_2,go,300.0,250.0,1.0,,,,,,,,,cyan,triangle
0.0,5.0,1.0,1.0,6.0,6.0,337.8214480180759,7.0,0.0,part_2,stop,300.0,250.0,3.0,,,,,,,,,orange,flipped triangle
0.0,7.0,3.0,1.0,5.0,5.0,484.2675500258337,7.0,0.0,part_2,go,300.0,200.0,1.0,,,,,,,,,blue,cross
0.0,1.0,1.0,0.0,6.0,6.0,373.2657989894505,7.0,0.0,part_2,go,300.0,200.0,1.0,,,,,,,,,cyan,triangle
0.0,3.0,3.0,0.0,6.0,6.0,409.4142910034861,7.0,0.0,part_2,go,300.0,200.0,1.0,,,,,,,,,gray,square
0.0,5.0,1.0,1.0,6.0,6.0,389.3106709874701,7.0,0.0,part_2,stop,300.0,200.0,3.0,,,,,,,,,orange,flipped triangle
0.0,3.0,3.0,0.0,5.0,5.0,378.489021997666,7.0,0.0,part_2,go,300.0,150.0,1.0,,,,,,,,,gray,square
0.0,5.0,1.0,1.0,6.0,6.0,367.1982880041469,7.0,0.0,part_2,go,300.0,150.0,1.0,,,,,,,,,orange,flipped triangle
0.0,2.0,2.0,0.0,5.0,5.0,447.5939550029579,7.0,0.0,part_2,go,300.0,150.0,1.0,,,,,,,,,green,hexagon
0.0,6.0,2.0,1.0,6.0,0.0,0.0,7.0,0.0,part_2,stop,300.0,150.0,4.0,,,,,,,,,magenta,diamond
0.0,1.0,1.0,0.0,5.0,5.0,505.59771800180897,7.0,0.0,part_2,go,300.0,200.0,1.0,,,,,,,,,cyan,triangle
0.0,4.0,4.0,0.0,5.0,5.0,324.3735169817228,7.0,0.0,part_2,go,300.0,200.0,1.0,,,,,,,,,yellow,circle
0.0,7.0,3.0,1.0,6.0,0.0,0.0,7.0,0.0,part_2,stop,300.0,200.0,4.0,,,,,,,,,blue,cross
0.0,6.0,2.0,1.0,5.0,0.0,0.0,7.0,0.0,part_2,stop,300.0,250.0,4.0,,,,,,,,,magenta,diamond
0.0,3.0,3.0,0.0,6.0,6.0,495.6961969728581,7.0,0.0,part_2,go,350.0,250.0,1.0,,,,,,,,,gray,square
0.0,5.0,1.0,1.0,5.0,0.0,0.0,7.0,0.0,part_2,stop,350.0,250.0,4.0,,,,,,,,,orange,flipped triangle
0.0,8.0,4.0,1.0,5.0,5.0,418.647874990711,7.0,0.0,part_2,go,400.0,250.0,1.0,,,,,,,,,white,I
0.0,6.0,2.0,1.0,5.0,5.0,441.7750550201162,7.0,0.0,part_2,stop,400.0,250.0,3.0,,,,,,,,,magenta,diamond
0.0,3.0,3.0,0.0,5.0,5.0,557.9215750040021,7.0,0.0,part_2,go,350.0,250.0,1.0,,,,,,,,,gray,square
0.0,1.0,1.0,0.0,6.0,6.0,634.3644000007771,7.0,0.0,part_2,go,350.0,250.0,1.0,,,,,,,,,cyan,triangle
0.0,6.0,2.0,1.0,6.0,6.0,447.3116439767182,8.0,0.0,part_2,go,350.0,250.0,1.0,,,,,,,,,magenta,diamond
0.0,8.0,4.0,1.0,5.0,5.0,301.8791019858327,8.0,0.0,part_2,stop,350.0,250.0,3.0,,,,,,,,,white,I
0.0,5.0,1.0,1.0,5.0,0.0,0.0,8.0,0.0,part_2,stop,300.0,250.0,4.0,,,,,,,,,orange,flipped triangle
0.0,4.0,4.0,0.0,5.0,5.0,453.6989500047639,8.0,0.0,part_2,go,350.0,250.0,1.0,,,,,,,,,yellow,circle
0.0,8.0,4.0,1.0,6.0,6.0,443.2941949926317,8.0,0.0,part_2,stop,350.0,250.0,3.0,,,,,,,,,white,I
0.0,2.0,2.0,0.0,6.0,6.0,500.74220600072294,8.0,0.0,part_2,go,350.0,200.0,1.0,,,,,,,,,green,hexagon
0.0,2.0,2.0,0.0,6.0,6.0,408.6228680098429,8.0,0.0,part_2,go,350.0,200.0,1.0,,,,,,,,,green,hexagon
0.0,3.0,3.0,0.0,5.0,5.0,378.0111789819784,8.0,0.0,part_2,go,350.0,200.0,1.0,,,,,,,,,gray,square
0.0,4.0,4.0,0.0,6.0,6.0,366.9596109830308,8.0,0.0,part_2,go,350.0,200.0,1.0,,,,,,,,,yellow,circle
0.0,5.0,1.0,1.0,6.0,6.0,308.9018079917878,8.0,0.0,part_2,go,350.0,200.0,1.0,,,,,,,,,orange,flipped triangle
0.0,1.0,1.0,0.0,5.0,5.0,399.3952670134604,8.0,0.0,part_2,go,350.0,200.0,1.0,,,,,,,,,cyan,triangle
0.0,1.0,1.0,0.0,5.0,5.0,359.4065840006806,8.0,0.0,part_2,go,350.0,200.0,1.0,,,,,,,,,cyan,triangle
0.0,7.0,3.0,1.0,6.0,6.0,356.337099976372,8.0,0.0,part_2,stop,350.0,200.0,3.0,,,,,,,,,blue,cross
0.0,3.0,3.0,0.0,6.0,6.0,403.6779509915504,8.0,0.0,part_2,go,350.0,150.0,1.0,,,,,,,,,gray,square
0.0,4.0,4.0,0.0,5.0,5.0,447.7137250069063,8.0,0.0,part_2,go,350.0,150.0,1.0,,,,,,,,,yellow,circle
0.0,7.0,3.0,1.0,6.0,0.0,0.0,8.0,0.0,part_2,stop,350.0,150.0,4.0,,,,,,,,,blue,cross
0.0,4.0,4.0,0.0,6.0,6.0,408.2503610115964,8.0,0.0,part_2,go,350.0,200.0,1.0,,,,,,,,,yellow,circle
0.0,5.0,1.0,1.0,5.0,5.0,375.1208359899465,8.0,0.0,part_2,stop,350.0,200.0,3.0,,,,,,,,,orange,flipped triangle
0.0,8.0,4.0,1.0,5.0,5.0,451.8148990173358,8.0,0.0,part_2,stop,300.0,200.0,3.0,,,,,,,,,white,I
0.0,1.0,1.0,0.0,6.0,6.0,678.5368649871089,8.0,0.0,part_2,go,250.0,200.0,1.0,,,,,,,,,cyan,triangle
0.0,8.0,4.0,1.0,6.0,0.0,0.0,8.0,0.0,part_2,stop,250.0,200.0,4.0,,,,,,,,,white,I
0.0,5.0,1.0,1.0,5.0,0.0,0.0,8.0,0.0,part_2,stop,250.0,250.0,4.0,,,,,,,,,orange,flipped triangle
0.0,6.0,2.0,1.0,5.0,0.0,0.0,8.0,0.0,part_2,stop,300.0,250.0,4.0,,,,,,,,,magenta,diamond
0.0,1.0,1.0,0.0,5.0,5.0,414.1109600022901,8.0,0.0,part_2,go,350.0,250.0,1.0,,,,,,,,,cyan,triangle
0.0,6.0,2.0,1.0,5.0,0.0,0.0,8.0,0.0,part_2,stop,350.0,250.0,4.0,,,,,,,,,magenta,diamond
0.0,7.0,3.0,1.0,6.0,0.0,0.0,8.0,0.0,part_2,stop,400.0,250.0,4.0,,,,,,,,,blue,cross
0.0,5.0,1.0,1.0,6.0,6.0,435.8213009836618,8.0,0.0,part_2,go,400.0,300.0,1.0,,,,,,,,,orange,flipped triangle
0.0,7.0,3.0,1.0,5.0,5.0,604.7513340017758,8.0,0.0,part_2,stop,400.0,300.0,3.0,,,,,,,,,blue,cross
0.0,3.0,3.0,0.0,6.0,6.0,349.9845990154426,8.0,0.0,part_2,go,350.0,300.0,1.0,,,,,,,,,gray,square
0.0,4.0,4.0,0.0,5.0,5.0,269.5742019859608,8.0,0.0,part_2,go,350.0,300.0,1.0,,,,,,,,,yellow,circle
0.0,7.0,3.0,1.0,5.0,5.0,283.8380470057018,8.0,0.0,part_2,stop,350.0,300.0,3.0,,,,,,,,,blue,cross
0.0,7.0,3.0,1.0,6.0,0.0,0.0,8.0,0.0,part_2,stop,300.0,300.0,4.0,,,,,,,,,blue,cross
0.0,2.0,2.0,0.0,5.0,5.0,477.2031470201909,8.0,0.0,part_2,go,300.0,350.0,1.0,,,,,,,,,green,hexagon
0.0,6.0,2.0,1.0,6.0,6.0,308.2515279820654,8.0,0.0,part_2,stop,300.0,350.0,3.0,,,,,,,,,magenta,diamond
0.0,6.0,2.0,1.0,6.0,6.0,580.0379389838781,8.0,0.0,part_2,stop,300.0,300.0,3.0,,,,,,,,,magenta,diamond
0.0,8.0,4.0,1.0,5.0,0.0,0.0,8.0,0.0,part_2,stop,300.0,250.0,4.0,,,,,,,,,white,I
0.0,2.0,2.0,0.0,7.0,5.0,2323.4223290055525,1.0,1.0,part_3,go,0.0,0.0,0.0,234.0,6.0,117.0,195.0,39.0,78.0,234.0,156.0,green,hexagon
0.0,4.0,4.0,0.0,7.0,2.0,1727.690683997935,1.0,1.0,part_3,go,0.0,0.0,0.0,68.0,2.0,102.0,68.0,136.0,170.0,204.0,34.0,yellow,circle
0.0,7.0,3.0,1.0,7.0,4.0,2091.7736629780848,1.0,1.0,part_3,go,0.0,0.0,0.0,204.0,6.0,170.0,102.0,136.0,204.0,34.0,68.0,blue,cross
0.0,8.0,4.0,1.0,7.0,2.0,1191.0439950006548,1.0,1.0,part_3,go,0.0,0.0,0.0,234.0,6.0,78.0,234.0,156.0,39.0,117.0,195.0,white,I
0.0,6.0,2.0,1.0,7.0,6.0,1024.2067340004724,1.0,1.0,part_3,go,0.0,0.0,0.0,156.0,4.0,117.0,195.0,78.0,39.0,234.0,156.0,magenta,diamond
0.0,3.0,3.0,0.0,7.0,5.0,1158.5770600067915,1.0,1.0,part_3,go,0.0,0.0,0.0,88.0,2.0,44.0,132.0,176.0,264.0,88.0,220.0,gray,square
0.0,5.0,1.0,1.0,7.0,1.0,945.7042609865312,1.0,1.0,part_3,go,0.0,0.0,0.0,324.0,6.0,324.0,162.0,216.0,270.0,108.0,54.0,orange,flipped triangle
0.0,6.0,2.0,1.0,7.0,4.0,957.9185009934008,1.0,1.0,part_3,go,0.0,0.0,0.0,34.0,1.0,170.0,204.0,102.0,34.0,136.0,68.0,magenta,diamond
0.0,2.0,2.0,0.0,7.0,6.0,1040.1917929993942,1.0,1.0,part_3,go,0.0,0.0,0.0,176.0,4.0,132.0,264.0,220.0,44.0,88.0,176.0,green,hexagon
0.0,2.0,2.0,0.0,7.0,2.0,1998.0777370219585,1.0,1.0,part_3,go,0.0,0.0,0.0,264.0,6.0,44.0,264.0,220.0,176.0,88.0,132.0,green,hexagon
0.0,5.0,1.0,1.0,7.0,6.0,1242.6086909836158,1.0,1.0,part_3,go,0.0,0.0,0.0,264.0,6.0,132.0,44.0,176.0,88.0,220.0,264.0,orange,flipped triangle
0.0,6.0,2.0,1.0,7.0,2.0,1065.7104830024764,1.0,1.0,part_3,go,0.0,0.0,0.0,88.0,2.0,44.0,88.0,264.0,132.0,220.0,176.0,magenta,diamond
0.0,1.0,1.0,0.0,7.0,3.0,1278.636714007007,1.0,1.0,part_3,go,0.0,0.0,0.0,195.0,5.0,117.0,234.0,195.0,78.0,156.0,39.0,cyan,triangle
0.0,8.0,4.0,1.0,7.0,1.0,1605.7822029979434,1.0,1.0,part_3,go,0.0,0.0,0.0,264.0,6.0,264.0,176.0,44.0,88.0,132.0,220.0,white,I
0.0,3.0,3.0,0.0,7.0,5.0,1014.1070620156825,1.0,1.0,part_3,go,0.0,0.0,0.0,136.0,4.0,34.0,204.0,170.0,102.0,136.0,68.0,gray,square
0.0,5.0,1.0,1.0,7.0,1.0,1092.9514580057005,1.0,1.0,part_3,go,0.0,0.0,0.0,102.0,3.0,102.0,34.0,204.0,136.0,68.0,170.0,orange,flipped triangle
0.0,3.0,3.0,0.0,7.0,2.0,2082.386915019015,1.0,1.0,part_3,go,0.0,0.0,0.0,216.0,4.0,270.0,216.0,108.0,324.0,162.0,54.0,gray,square
0.0,7.0,3.0,1.0,7.0,3.0,1679.4207520142663,1.0,1.0,part_3,go,0.0,0.0,0.0,220.0,5.0,88.0,176.0,220.0,264.0,132.0,44.0,blue,cross
0.0,6.0,2.0,1.0,7.0,3.0,1141.6637999936938,1.0,1.0,part_3,go,0.0,0.0,0.0,324.0,6.0,108.0,54.0,324.0,216.0,162.0,270.0,magenta,diamond
0.0,1.0,1.0,0.0,7.0,1.0,2648.369228001684,1.0,1.0,part_3,go,0.0,0.0,0.0,132.0,3.0,132.0,176.0,88.0,220.0,44.0,264.0,cyan,triangle
0.0,2.0,2.0,0.0,7.0,3.0,2409.10179700586,2.0,1.0,part_3,go,0.0,0.0,0.0,204.0,6.0,102.0,34.0,204.0,136.0,170.0,68.0,green,hexagon
0.0,3.0,3.0,0.0,7.0,5.0,1318.472868995741,2.0,1.0,part_3,go,0.0,0.0,0.0,196.0,4.0,294.0,98.0,49.0,147.0,196.0,245.0,gray,square
0.0,2.0,2.0,0.0,7.0,6.0,804.5017870026641,2.0,1.0,part_3,go,0.0,0.0,0.0,324.0,6.0,108.0,162.0,54.0,216.0,270.0,324.0,green,hexagon
0.0,6.0,2.0,1.0,7.0,1.0,1054.3769930081908,2.0,1.0,part_3,go,0.0,0.0,0.0,176.0,4.0,176.0,132.0,88.0,264.0,44.0,220.0,magenta,diamond
0.0,8.0,4.0,1.0,7.0,3.0,1537.6344700052869,2.0,1.0,part_3,go,0.0,0.0,0.0,54.0,1.0,270.0,108.0,54.0,324.0,162.0,216.0,white,I
0.0,5.0,1.0,1.0,7.0,4.0,1435.96317601623,2.0,1.0,part_3,go,0.0,0.0,0.0,88.0,2.0,44.0,264.0,176.0,88.0,220.0,132.0,orange,flipped triangle
0.0,8.0,4.0,1.0,7.0,6.0,877.2990040015429,2.0,1.0,part_3,go,0.0,0.0,0.0,136.0,4.0,102.0,68.0,170.0,204.0,34.0,136.0,white,I
0.0,4.0,4.0,0.0,7.0,3.0,1314.2614180105738,2.0,1.0,part_3,go,0.0,0.0,0.0,204.0,6.0,68.0,170.0,204.0,34.0,102.0,136.0,yellow,circle
0.0,7.0,3.0,1.0,7.0,1.0,1341.208452009596,2.0,1.0,part_3,go,0.0,0.0,0.0,147.0,3.0,147.0,196.0,294.0,49.0,245.0,98.0,blue,cross
0.0,7.0,3.0,1.0,7.0,6.0,1116.9426810229195,2.0,1.0,part_3,go,0.0,0.0,0.0,234.0,6.0,156.0,195.0,78.0,117.0,39.0,234.0,blue,cross
0.0,7.0,3.0,1.0,7.0,6.0,1206.576938013313,2.0,1.0,part_3,go,0.0,0.0,0.0,117.0,3.0,195.0,78.0,234.0,156.0,39.0,117.0,blue,cross
0.0,1.0,1.0,0.0,7.0,2.0,1018.0674080038443,2.0,1.0,part_3,go,0.0,0.0,0.0,294.0,6.0,98.0,294.0,147.0,196.0,245.0,49.0,cyan,triangle
0.0,4.0,4.0,0.0,7.0,4.0,1037.529547000304,2.0,1.0,part_3,go,0.0,0.0,0.0,270.0,5.0,324.0,216.0,162.0,270.0,108.0,54.0,yellow,circle
0.0,8.0,4.0,1.0,7.0,6.0,453.957783000078,2.0,1.0,part_3,go,0.0,0.0,0.0,78.0,2.0,195.0,39.0,156.0,117.0,234.0,78.0,white,I
0.0,3.0,3.0,0.0,7.0,1.0,827.4016839859542,2.0,1.0,part_3,go,0.0,0.0,0.0,176.0,4.0,176.0,220.0,44.0,132.0,264.0,88.0,gray,square
0.0,3.0,3.0,0.0,7.0,1.0,907.7420739922673,2.0,1.0,part_3,go,0.0,0.0,0.0,39.0,1.0,39.0,234.0,156.0,195.0,117.0,78.0,gray,square
0.0,4.0,4.0,0.0,7.0,4.0,851.6422969987616,2.0,1.0,part_3,go,0.0,0.0,0.0,162.0,3.0,54.0,216.0,270.0,162.0,324.0,108.0,yellow,circle
0.0,6.0,2.0,1.0,7.0,2.0,507.18725100159645,2.0,1.0,part_3,go,0.0,0.0,0.0,294.0,6.0,98.0,294.0,147.0,196.0,49.0,245.0,magenta,diamond
0.0,1.0,1.0,0.0,7.0,1.0,722.095528995851,2.0,1.0,part_3,go,0.0,0.0,0.0,117.0,3.0,117.0,78.0,156.0,39.0,195.0,234.0,cyan,triangle
0.0,2.0,2.0,0.0,7.0,6.0,474.8927420005202,2.0,1.0,part_3,go,0.0,0.0,0.0,78.0,2.0,156.0,39.0,117.0,234.0,195.0,78.0,green,hexagon
0.0,5.0,1.0,1.0,7.0,4.0,543.5040990123525,3.0,1.0,part_3,go,0.0,0.0,0.0,34.0,1.0,204.0,136.0,102.0,34.0,68.0,170.0,orange,flipped triangle
0.0,4.0,4.0,0.0,7.0,2.0,306.5054549952037,3.0,1.0,part_3,go,0.0,0.0,0.0,132.0,3.0,220.0,132.0,44.0,264.0,88.0,176.0,yellow,circle
0.0,6.0,2.0,1.0,7.0,5.0,387.0689070026856,3.0,1.0,part_3,go,0.0,0.0,0.0,108.0,2.0,162.0,216.0,270.0,324.0,108.0,54.0,magenta,diamond
0.0,1.0,1.0,0.0,7.0,1.0,285.2975050045643,3.0,1.0,part_3,go,0.0,0.0,0.0,102.0,3.0,102.0,204.0,68.0,136.0,34.0,170.0,cyan,triangle
0.0,6.0,2.0,1.0,7.0,5.0,245.3386260021943,3.0,1.0,part_3,go,0.0,0.0,0.0,195.0,5.0,234.0,39.0,78.0,156.0,195.0,117.0,magenta,diamond
0.0,3.0,3.0,0.0,7.0,2.0,245.5784390040207,3.0,1.0,part_3,go,0.0,0.0,0.0,49.0,1.0,294.0,49.0,147.0,98.0,245.0,196.0,gray,square
0.0,1.0,1.0,0.0,7.0,1.0,525.2108779968694,3.0,1.0,part_3,go,0.0,0.0,0.0,147.0,3.0,147.0,245.0,294.0,98.0,196.0,49.0,cyan,triangle
0.0,8.0,4.0,1.0,7.0,5.0,336.836303002201,3.0,1.0,part_3,go,0.0,0.0,0.0,294.0,6.0,196.0,147.0,98.0,49.0,294.0,245.0,white,I
0.0,7.0,3.0,1.0,7.0,6.0,481.4592089969665,3.0,1.0,part_3,go,0.0,0.0,0.0,88.0,2.0,264.0,132.0,220.0,176.0,44.0,88.0,blue,cross
0.0,1.0,1.0,0.0,7.0,1.0,307.1267869963776,3.0,1.0,part_3,go,0.0,0.0,0.0,204.0,6.0,204.0,34.0,170.0,136.0,68.0,102.0,cyan,triangle
0.0,7.0,3.0,1.0,7.0,6.0,306.2584410072304,3.0,1.0,part_3,go,0.0,0.0,0.0,270.0,5.0,216.0,162.0,54.0,324.0,108.0,270.0,blue,cross
0.0,2.0,2.0,0.0,7.0,1.0,610.7962740061339,3.0,1.0,part_3,go,0.0,0.0,0.0,216.0,4.0,216.0,270.0,54.0,162.0,324.0,108.0,green,hexagon
0.0,4.0,4.0,0.0,7.0,6.0,499.9134120007511,3.0,1.0,part_3,go,0.0,0.0,0.0,220.0,5.0,132.0,176.0,88.0,44.0,264.0,220.0,yellow,circle
0.0,2.0,2.0,0.0,7.0,3.0,423.7259360088501,3.0,1.0,part_3,go,0.0,0.0,0.0,245.0,5.0,49.0,147.0,245.0,196.0,294.0,98.0,green,hexagon
0.0,3.0,3.0,0.0,7.0,6.0,491.9098120008129,3.0,1.0,part_3,go,0.0,0.0,0.0,39.0,1.0,78.0,195.0,234.0,156.0,117.0,39.0,gray,square
0.0,8.0,4.0,1.0,7.0,5.0,345.9605550160631,3.0,1.0,part_3,go,0.0,0.0,0.0,108.0,2.0,216.0,162.0,54.0,324.0,108.0,270.0,white,I
0.0,5.0,1.0,1.0,7.0,2.0,502.2710829798598,3.0,1.0,part_3,go,0.0,0.0,0.0,195.0,5.0,39.0,195.0,156.0,78.0,234.0,117.0,orange,flipped triangle
0.0,7.0,3.0,1.0,7.0,1.0,338.4861219965387,3.0,1.0,part_3,go,0.0,0.0,0.0,108.0,2.0,108.0,270.0,324.0,162.0,54.0,216.0,blue,cross
0.0,4.0,4.0,0.0,7.0,5.0,672.6613190257922,3.0,1.0,part_3,go,0.0,0.0,0.0,196.0,4.0,147.0,294.0,245.0,49.0,196.0,98.0,yellow,circle
0.0,4.0,4.0,0.0,7.0,2.0,363.3546180208213,3.0,1.0,part_3,go,0.0,0.0,0.0,49.0,1.0,98.0,49.0,294.0,245.0,196.0,147.0,yellow,circle
0.0,1.0,1.0,0.0,7.0,4.0,621.8307910021394,4.0,1.0,part_3,go,0.0,0.0,0.0,216.0,4.0,54.0,270.0,108.0,216.0,162.0,324.0,cyan,triangle
0.0,8.0,4.0,1.0,7.0,3.0,464.0657220152206,4.0,1.0,part_3,go,0.0,0.0,0.0,136.0,4.0,34.0,68.0,136.0,204.0,102.0,170.0,white,I
0.0,6.0,2.0,1.0,7.0,6.0,238.7903240160085,4.0,1.0,part_3,go,0.0,0.0,0.0,204.0,6.0,68.0,136.0,34.0,102.0,170.0,204.0,magenta,diamond
0.0,8.0,4.0,1.0,7.0,5.0,300.1300810137763,4.0,1.0,part_3,go,0.0,0.0,0.0,88.0,2.0,132.0,220.0,264.0,176.0,88.0,44.0,white,I
0.0,5.0,1.0,1.0,7.0,3.0,319.161636987701,4.0,1.0,part_3,go,0.0,0.0,0.0,98.0,2.0,49.0,196.0,98.0,245.0,147.0,294.0,orange,flipped triangle
0.0,2.0,2.0,0.0,7.0,2.0,311.8764619866851,4.0,1.0,part_3,go,0.0,0.0,0.0,98.0,2.0,196.0,98.0,245.0,294.0,147.0,49.0,green,hexagon
0.0,7.0,3.0,1.0,7.0,1.0,505.44233300024644,4.0,1.0,part_3,go,0.0,0.0,0.0,245.0,5.0,245.0,49.0,147.0,294.0,196.0,98.0,blue,cross
0.0,1.0,1.0,0.0,7.0,5.0,52.7576729946304,4.0,1.0,part_3,go,0.0,0.0,0.0,108.0,2.0,270.0,216.0,54.0,162.0,108.0,324.0,cyan,triangle
0.0,6.0,2.0,1.0,7.0,1.0,1385.3836680063978,4.0,1.0,part_3,go,0.0,0.0,0.0,196.0,4.0,196.0,98.0,49.0,245.0,147.0,294.0,magenta,diamond
0.0,5.0,1.0,1.0,7.0,5.0,774.8178399924655,4.0,1.0,part_3,go,0.0,0.0,0.0,195.0,5.0,117.0,234.0,156.0,78.0,195.0,39.0,orange,flipped triangle
0.0,3.0,3.0,0.0,7.0,6.0,1061.156342009781,4.0,1.0,part_3,go,0.0,0.0,0.0,324.0,6.0,162.0,54.0,108.0,216.0,270.0,324.0,gray,square
0.0,5.0,1.0,1.0,7.0,2.0,510.9725029906258,4.0,1.0,part_3,go,0.0,0.0,0.0,324.0,6.0,216.0,324.0,54.0,108.0,270.0,162.0,orange,flipped triangle
0.0,4.0,4.0,0.0,7.0,1.0,429.3636410147883,4.0,1.0,part_3,go,0.0,0.0,0.0,234.0,6.0,234.0,195.0,156.0,39.0,117.0,78.0,yellow,circle
0.0,3.0,3.0,0.0,7.0,4.0,1285.8964859915432,4.0,1.0,part_3,go,0.0,0.0,0.0,34.0,1.0,102.0,136.0,68.0,34.0,170.0,204.0,gray,square
0.0,4.0,4.0,0.0,7.0,6.0,1336.0038829850964,4.0,1.0,part_3,go,0.0,0.0,0.0,156.0,4.0,117.0,234.0,39.0,78.0,195.0,156.0,yellow,circle
0.0,5.0,1.0,1.0,7.0,1.0,604.982609016588,4.0,1.0,part_3,go,0.0,0.0,0.0,49.0,1.0,49.0,294.0,98.0,245.0,147.0,196.0,orange,flipped triangle
0.0,8.0,4.0,1.0,7.0,6.0,289.9849400273524,4.0,1.0,part_3,go,0.0,0.0,0.0,294.0,6.0,147.0,98.0,49.0,196.0,245.0,294.0,white,I
0.0,1.0,1.0,0.0,7.0,3.0,1373.1522460002452,4.0,1.0,part_3,go,0.0,0.0,0.0,220.0,5.0,88.0,44.0,220.0,176.0,264.0,132.0,cyan,triangle
0.0,7.0,3.0,1.0,7.0,1.0,1168.5843889717944,4.0,1.0,part_3,go,0.0,0.0,0.0,34.0,1.0,34.0,136.0,68.0,204.0,170.0,102.0,blue,cross
0.0,2.0,2.0,0.0,7.0,4.0,955.082061002031,4.0,1.0,part_3,go,0.0,0.0,0.0,34.0,1.0,170.0,136.0,102.0,34.0,68.0,204.0,green,hexagon
