raw_reward_magnitude,stim_reward,stepwise_reward_magnitude,paired_with_stopping,stim_location,response,reaction_time,block,num_trial_presentations,which_phase,stop_signal_trial_type,left_SSD,right_SSD,accuracy,chosen_bidding_amount,chosen_bidding_level,possible_bid_1,possible_bid_2,possible_bid_3,possible_bid_4,possible_bid_5,possible_bid_6,color_text,shape_text
105.0,6.0,2.0,1.0,1.0,1.0,313.3680250030011,1.0,1.0,phase_1,,,,,,,,,,,,,orange,cross
54.0,5.0,1.0,1.0,4.0,4.0,292.461313016247,1.0,1.0,phase_1,,,,,,,,,,,,,gray,diamond
106.0,6.0,2.0,1.0,2.0,2.0,256.7907240008935,1.0,1.0,phase_1,,,,,,,,,,,,,orange,cross
63.0,1.0,1.0,0.0,3.0,3.0,293.580538011156,1.0,1.0,phase_1,,,,,,,,,,,,,cyan,circle
39.0,5.0,1.0,1.0,3.0,3.0,305.4514660034328,1.0,1.0,phase_1,,,,,,,,,,,,,gray,diamond
47.0,5.0,1.0,1.0,3.0,3.0,305.3748189704492,1.0,1.0,phase_1,,,,,,,,,,,,,gray,diamond
67.0,5.0,1.0,1.0,1.0,1.0,284.852779994253,1.0,1.0,phase_1,,,,,,,,,,,,,gray,diamond
194.0,3.0,3.0,0.0,3.0,3.0,271.1696600308642,1.0,1.0,phase_1,,,,,,,,,,,,,white,triangle
115.0,2.0,2.0,0.0,1.0,1.0,250.8415569900535,1.0,1.0,phase_1,,,,,,,,,,,,,magenta,flipped triangle
0.0,1.0,0.0,0.0,1.0,1.0,297.3048440180719,1.0,1.0,phase_1,,,,,,,,,,,,,cyan,circle
0.0,6.0,0.0,1.0,3.0,3.0,316.678975999821,1.0,1.0,phase_1,,,,,,,,,,,,,orange,cross
198.0,3.0,3.0,0.0,3.0,3.0,288.0192439770326,1.0,1.0,phase_1,,,,,,,,,,,,,white,triangle
403.0,8.0,4.0,1.0,3.0,3.0,296.0784279857762,1.0,1.0,phase_1,,,,,,,,,,,,,blue,I
0.0,5.0,0.0,1.0,1.0,1.0,295.8474400220439,1.0,1.0,phase_1,,,,,,,,,,,,,gray,diamond
75.0,6.0,2.0,1.0,4.0,4.0,277.5799140217714,1.0,1.0,phase_1,,,,,,,,,,,,,orange,cross
59.0,1.0,1.0,0.0,1.0,1.0,342.2780350083485,1.0,1.0,phase_1,,,,,,,,,,,,,cyan,circle
181.0,3.0,3.0,0.0,1.0,1.0,312.5260519445874,1.0,1.0,phase_1,,,,,,,,,,,,,white,triangle
87.0,2.0,2.0,0.0,4.0,4.0,310.5697400169447,1.0,2.0,phase_1,,,,,,,,,,,,,magenta,flipped triangle
0.0,4.0,0.0,0.0,1.0,1.0,325.3306939732283,1.0,1.0,phase_1,,,,,,,,,,,,,green,hexagon
221.0,7.0,3.0,1.0,1.0,1.0,303.621700964868,1.0,1.0,phase_1,,,,,,,,,,,,,yellow,square
391.0,8.0,4.0,1.0,1.0,1.0,315.4803650104441,1.0,1.0,phase_1,,,,,,,,,,,,,blue,I
206.0,7.0,3.0,1.0,2.0,2.0,394.3642529775388,1.0,1.0,phase_1,,,,,,,,,,,,,yellow,square
394.0,8.0,4.0,1.0,4.0,4.0,347.855890984647,1.0,1.0,phase_1,,,,,,,,,,,,,blue,I
423.0,4.0,4.0,0.0,2.0,2.0,339.0537219820544,1.0,1.0,phase_1,,,,,,,,,,,,,green,hexagon
206.0,3.0,3.0,0.0,3.0,3.0,306.9744019885547,1.0,1.0,phase_1,,,,,,,,,,,,,white,triangle
0.0,3.0,0.0,0.0,1.0,1.0,397.2904320107773,1.0,1.0,phase_1,,,,,,,,,,,,,white,triangle
0.0,1.0,0.0,0.0,1.0,1.0,285.3081079665571,1.0,1.0,phase_1,,,,,,,,,,,,,cyan,circle
78.0,6.0,2.0,1.0,4.0,4.0,326.6173350275494,1.0,1.0,phase_1,,,,,,,,,,,,,orange,cross
403.0,4.0,4.0,0.0,4.0,4.0,319.1669260268099,1.0,1.0,phase_1,,,,,,,,,,,,,green,hexagon
100.0,2.0,2.0,0.0,1.0,1.0,310.0096139824018,1.0,2.0,phase_1,,,,,,,,,,,,,magenta,flipped triangle
25.0,1.0,1.0,0.0,3.0,3.0,332.8974499600008,1.0,1.0,phase_1,,,,,,,,,,,,,cyan,circle
213.0,3.0,3.0,0.0,2.0,2.0,342.4736710148863,1.0,1.0,phase_1,,,,,,,,,,,,,white,triangle
28.0,5.0,1.0,1.0,2.0,2.0,356.806379975751,1.0,1.0,phase_1,,,,,,,,,,,,,gray,diamond
396.0,4.0,4.0,0.0,1.0,1.0,301.2983999797143,1.0,1.0,phase_1,,,,,,,,,,,,,green,hexagon
108.0,6.0,2.0,1.0,2.0,2.0,346.6733479872346,1.0,1.0,phase_1,,,,,,,,,,,,,orange,cross
0.0,8.0,0.0,1.0,1.0,1.0,300.8403200074099,1.0,1.0,phase_1,,,,,,,,,,,,,blue,I
0.0,3.0,0.0,0.0,1.0,1.0,323.3188329613767,1.0,1.0,phase_1,,,,,,,,,,,,,white,triangle
0.0,6.0,0.0,1.0,2.0,2.0,280.8701220201328,1.0,1.0,phase_1,,,,,,,,,,,,,orange,cross
0.0,5.0,0.0,1.0,3.0,3.0,334.0409370139241,1.0,1.0,phase_1,,,,,,,,,,,,,gray,diamond
394.0,4.0,4.0,0.0,1.0,1.0,269.6871979860589,1.0,1.0,phase_1,,,,,,,,,,,,,green,hexagon
0.0,6.0,0.0,1.0,4.0,4.0,271.5221570106223,1.0,1.0,phase_1,,,,,,,,,,,,,orange,cross
391.0,4.0,4.0,0.0,2.0,2.0,260.3299799957312,1.0,1.0,phase_1,,,,,,,,,,,,,green,hexagon
403.0,4.0,4.0,0.0,1.0,1.0,294.370554969646,1.0,1.0,phase_1,,,,,,,,,,,,,green,hexagon
120.0,2.0,2.0,0.0,4.0,4.0,250.1209990005009,1.0,1.0,phase_1,,,,,,,,,,,,,magenta,flipped triangle
0.0,7.0,0.0,1.0,4.0,4.0,302.9955790261738,1.0,1.0,phase_1,,,,,,,,,,,,,yellow,square
47.0,1.0,1.0,0.0,1.0,1.0,236.5438559791073,1.0,1.0,phase_1,,,,,,,,,,,,,cyan,circle
52.0,5.0,1.0,1.0,1.0,1.0,273.3311210176907,1.0,1.0,phase_1,,,,,,,,,,,,,gray,diamond
96.0,6.0,2.0,1.0,1.0,1.0,282.5714320060797,1.0,1.0,phase_1,,,,,,,,,,,,,orange,cross
106.0,6.0,2.0,1.0,2.0,2.0,305.6873149471357,1.0,1.0,phase_1,,,,,,,,,,,,,orange,cross
0.0,8.0,0.0,1.0,2.0,2.0,320.5164859537035,1.0,1.0,phase_1,,,,,,,,,,,,,blue,I
47.0,5.0,1.0,1.0,2.0,2.0,295.1048499671742,1.0,1.0,phase_1,,,,,,,,,,,,,gray,diamond
102.0,2.0,2.0,0.0,2.0,2.0,309.1496420092881,1.0,1.0,phase_1,,,,,,,,,,,,,magenta,flipped triangle
87.0,6.0,2.0,1.0,2.0,2.0,285.2460310095921,1.0,1.0,phase_1,,,,,,,,,,,,,orange,cross
120.0,6.0,2.0,1.0,2.0,2.0,300.0367680215277,1.0,1.0,phase_1,,,,,,,,,,,,,orange,cross
94.0,2.0,2.0,0.0,3.0,3.0,312.7722170320339,1.0,1.0,phase_1,,,,,,,,,,,,,magenta,flipped triangle
44.0,5.0,1.0,1.0,2.0,2.0,301.2708789901808,1.0,1.0,phase_1,,,,,,,,,,,,,gray,diamond
388.0,4.0,4.0,0.0,1.0,1.0,275.8103670203127,1.0,1.0,phase_1,,,,,,,,,,,,,green,hexagon
81.0,2.0,2.0,0.0,1.0,1.0,291.9346209964715,1.0,1.0,phase_1,,,,,,,,,,,,,magenta,flipped triangle
50.0,1.0,1.0,0.0,2.0,2.0,280.5054219788871,1.0,1.0,phase_1,,,,,,,,,,,,,cyan,circle
183.0,7.0,3.0,1.0,3.0,3.0,302.6250340044498,1.0,2.0,phase_1,,,,,,,,,,,,,yellow,square
178.0,3.0,3.0,0.0,1.0,1.0,369.7063299478031,1.0,2.0,phase_1,,,,,,,,,,,,,white,triangle
382.0,4.0,4.0,0.0,4.0,4.0,313.8937670155428,1.0,1.0,phase_1,,,,,,,,,,,,,green,hexagon
0.0,5.0,0.0,1.0,4.0,4.0,374.6946069877594,1.0,1.0,phase_1,,,,,,,,,,,,,gray,diamond
206.0,7.0,3.0,1.0,4.0,4.0,352.9303339892067,1.0,1.0,phase_1,,,,,,,,,,,,,yellow,square
386.0,8.0,4.0,1.0,2.0,2.0,296.6603920212947,1.0,1.0,phase_1,,,,,,,,,,,,,blue,I
63.0,1.0,1.0,0.0,2.0,2.0,337.5548049807548,1.0,1.0,phase_1,,,,,,,,,,,,,cyan,circle
0.0,1.0,0.0,0.0,3.0,3.0,340.1494860299863,1.0,1.0,phase_1,,,,,,,,,,,,,cyan,circle
381.0,8.0,4.0,1.0,2.0,2.0,298.0918800458312,1.0,1.0,phase_1,,,,,,,,,,,,,blue,I
0.0,4.0,0.0,0.0,3.0,3.0,364.7471019648947,1.0,1.0,phase_1,,,,,,,,,,,,,green,hexagon
117.0,6.0,2.0,1.0,2.0,2.0,306.2620980199426,1.0,1.0,phase_1,,,,,,,,,,,,,orange,cross
81.0,6.0,2.0,1.0,2.0,2.0,296.0556279867887,1.0,1.0,phase_1,,,,,,,,,,,,,orange,cross
382.0,8.0,4.0,1.0,1.0,1.0,345.8395270281471,1.0,1.0,phase_1,,,,,,,,,,,,,blue,I
0.0,7.0,0.0,1.0,3.0,3.0,333.335815987084,1.0,1.0,phase_1,,,,,,,,,,,,,yellow,square
111.0,6.0,2.0,1.0,4.0,4.0,367.9652910213917,1.0,1.0,phase_1,,,,,,,,,,,,,orange,cross
423.0,8.0,4.0,1.0,4.0,4.0,331.6398149472661,1.0,1.0,phase_1,,,,,,,,,,,,,blue,I
0.0,6.0,0.0,1.0,2.0,2.0,313.1653289892711,1.0,1.0,phase_1,,,,,,,,,,,,,orange,cross
54.0,5.0,1.0,1.0,1.0,1.0,332.8666469897143,1.0,1.0,phase_1,,,,,,,,,,,,,gray,diamond
0.0,3.0,0.0,0.0,4.0,4.0,344.8811360285617,1.0,1.0,phase_1,,,,,,,,,,,,,white,triangle
94.0,6.0,2.0,1.0,3.0,3.0,337.6922759925946,1.0,1.0,phase_1,,,,,,,,,,,,,orange,cross
413.0,8.0,4.0,1.0,4.0,4.0,372.9929330293089,1.0,1.0,phase_1,,,,,,,,,,,,,blue,I
179.0,7.0,3.0,1.0,3.0,3.0,405.721396964509,1.0,1.0,phase_1,,,,,,,,,,,,,yellow,square
96.0,2.0,2.0,0.0,1.0,1.0,305.0056379870511,1.0,1.0,phase_1,,,,,,,,,,,,,magenta,flipped triangle
116.0,6.0,2.0,1.0,3.0,3.0,338.8479499844834,1.0,1.0,phase_1,,,,,,,,,,,,,orange,cross
0.0,3.0,0.0,0.0,3.0,3.0,407.0336300064809,1.0,1.0,phase_1,,,,,,,,,,,,,white,triangle
104.0,6.0,2.0,1.0,4.0,4.0,307.8349860152229,1.0,1.0,phase_1,,,,,,,,,,,,,orange,cross
117.0,6.0,2.0,1.0,4.0,4.0,407.5664560077712,1.0,1.0,phase_1,,,,,,,,,,,,,orange,cross
206.0,7.0,3.0,1.0,3.0,3.0,343.0333569995127,1.0,1.0,phase_1,,,,,,,,,,,,,yellow,square
195.0,7.0,3.0,1.0,3.0,3.0,395.5710079753771,1.0,1.0,phase_1,,,,,,,,,,,,,yellow,square
220.0,7.0,3.0,1.0,4.0,4.0,285.6714680092409,1.0,1.0,phase_1,,,,,,,,,,,,,yellow,square
201.0,7.0,3.0,1.0,4.0,4.0,320.8792619989253,1.0,1.0,phase_1,,,,,,,,,,,,,yellow,square
413.0,4.0,4.0,0.0,2.0,2.0,343.9032839960418,1.0,2.0,phase_1,,,,,,,,,,,,,green,hexagon
39.0,1.0,1.0,0.0,4.0,4.0,445.344592037145,1.0,1.0,phase_1,,,,,,,,,,,,,cyan,circle
198.0,7.0,3.0,1.0,4.0,4.0,342.7785219973884,1.0,1.0,phase_1,,,,,,,,,,,,,yellow,square
63.0,5.0,1.0,1.0,2.0,2.0,335.5264650308527,1.0,1.0,phase_1,,,,,,,,,,,,,gray,diamond
220.0,3.0,3.0,0.0,2.0,2.0,309.2759029823355,1.0,1.0,phase_1,,,,,,,,,,,,,white,triangle
98.0,6.0,2.0,1.0,2.0,2.0,299.6142799966037,1.0,1.0,phase_1,,,,,,,,,,,,,orange,cross
28.0,5.0,1.0,1.0,1.0,1.0,379.8526489990763,1.0,1.0,phase_1,,,,,,,,,,,,,gray,diamond
195.0,3.0,3.0,0.0,2.0,2.0,378.3578360453248,1.0,1.0,phase_1,,,,,,,,,,,,,white,triangle
0.0,2.0,0.0,0.0,1.0,1.0,350.1173810218461,1.0,1.0,phase_1,,,,,,,,,,,,,magenta,flipped triangle
28.0,1.0,1.0,0.0,1.0,1.0,359.3726760009303,1.0,1.0,phase_1,,,,,,,,,,,,,cyan,circle
59.0,1.0,1.0,0.0,2.0,2.0,317.3211989924311,2.0,1.0,phase_1,,,,,,,,,,,,,cyan,circle
421.0,8.0,4.0,1.0,3.0,3.0,314.4944320083596,2.0,1.0,phase_1,,,,,,,,,,,,,blue,I
108.0,2.0,2.0,0.0,2.0,2.0,307.4335230048746,2.0,1.0,phase_1,,,,,,,,,,,,,magenta,flipped triangle
418.0,8.0,4.0,1.0,1.0,1.0,281.4462030073628,2.0,1.0,phase_1,,,,,,,,,,,,,blue,I
64.0,5.0,1.0,1.0,3.0,3.0,330.4212549701333,2.0,1.0,phase_1,,,,,,,,,,,,,gray,diamond
413.0,8.0,4.0,1.0,4.0,4.0,286.1091049853712,2.0,1.0,phase_1,,,,,,,,,,,,,blue,I
0.0,1.0,0.0,0.0,3.0,3.0,354.4655520236119,2.0,1.0,phase_1,,,,,,,,,,,,,cyan,circle
178.0,7.0,3.0,1.0,1.0,1.0,272.6415859651752,2.0,1.0,phase_1,,,,,,,,,,,,,yellow,square
0.0,7.0,0.0,1.0,1.0,1.0,377.4060840369202,2.0,1.0,phase_1,,,,,,,,,,,,,yellow,square
381.0,4.0,4.0,0.0,3.0,3.0,356.9695129990577,2.0,1.0,phase_1,,,,,,,,,,,,,green,hexagon
0.0,6.0,0.0,1.0,1.0,1.0,309.1564389760606,2.0,1.0,phase_1,,,,,,,,,,,,,orange,cross
109.0,2.0,2.0,0.0,2.0,2.0,331.2971839914098,2.0,1.0,phase_1,,,,,,,,,,,,,magenta,flipped triangle
68.0,5.0,1.0,1.0,4.0,4.0,380.9609989984892,2.0,1.0,phase_1,,,,,,,,,,,,,gray,diamond
206.0,3.0,3.0,0.0,2.0,2.0,377.4107940262183,2.0,1.0,phase_1,,,,,,,,,,,,,white,triangle
0.0,1.0,0.0,0.0,2.0,2.0,366.2012239801697,2.0,1.0,phase_1,,,,,,,,,,,,,cyan,circle
47.0,1.0,1.0,0.0,4.0,4.0,371.8779410119168,2.0,1.0,phase_1,,,,,,,,,,,,,cyan,circle
220.0,7.0,3.0,1.0,1.0,1.0,359.8720229929313,2.0,1.0,phase_1,,,,,,,,,,,,,yellow,square
403.0,8.0,4.0,1.0,1.0,1.0,360.5962150031701,2.0,1.0,phase_1,,,,,,,,,,,,,blue,I
201.0,3.0,3.0,0.0,1.0,1.0,323.4703469788655,2.0,1.0,phase_1,,,,,,,,,,,,,white,triangle
416.0,8.0,4.0,1.0,3.0,3.0,414.1223460319452,2.0,1.0,phase_1,,,,,,,,,,,,,blue,I
396.0,8.0,4.0,1.0,1.0,1.0,328.5739429993555,2.0,1.0,phase_1,,,,,,,,,,,,,blue,I
196.0,7.0,3.0,1.0,2.0,2.0,404.1893509565852,2.0,1.0,phase_1,,,,,,,,,,,,,yellow,square
413.0,4.0,4.0,0.0,4.0,4.0,352.3370710317977,2.0,1.0,phase_1,,,,,,,,,,,,,green,hexagon
48.0,5.0,1.0,1.0,1.0,1.0,383.511064981576,2.0,1.0,phase_1,,,,,,,,,,,,,gray,diamond
379.0,4.0,4.0,0.0,1.0,1.0,328.8869180250913,2.0,1.0,phase_1,,,,,,,,,,,,,green,hexagon
44.0,5.0,1.0,1.0,2.0,2.0,327.0160139654763,2.0,1.0,phase_1,,,,,,,,,,,,,gray,diamond
0.0,3.0,0.0,0.0,2.0,2.0,305.5334910168312,2.0,1.0,phase_1,,,,,,,,,,,,,white,triangle
0.0,4.0,0.0,0.0,4.0,4.0,330.260866030585,2.0,1.0,phase_1,,,,,,,,,,,,,green,hexagon
85.0,6.0,2.0,1.0,2.0,2.0,276.3433660147711,2.0,1.0,phase_1,,,,,,,,,,,,,orange,cross
0.0,1.0,0.0,0.0,3.0,3.0,307.5623390031978,2.0,1.0,phase_1,,,,,,,,,,,,,cyan,circle
403.0,8.0,4.0,1.0,4.0,4.0,296.4984129648655,2.0,1.0,phase_1,,,,,,,,,,,,,blue,I
417.0,4.0,4.0,0.0,2.0,2.0,278.639447002206,2.0,1.0,phase_1,,,,,,,,,,,,,green,hexagon
106.0,2.0,2.0,0.0,1.0,1.0,320.56111696874717,2.0,1.0,phase_1,,,,,,,,,,,,,magenta,flipped triangle
212.0,7.0,3.0,1.0,3.0,3.0,312.4333790037781,2.0,1.0,phase_1,,,,,,,,,,,,,yellow,square
392.0,8.0,4.0,1.0,4.0,4.0,412.9475019872188,2.0,1.0,phase_1,,,,,,,,,,,,,blue,I
181.0,7.0,3.0,1.0,4.0,4.0,312.4690399854444,2.0,1.0,phase_1,,,,,,,,,,,,,yellow,square
73.0,5.0,1.0,1.0,3.0,3.0,304.1471929755062,2.0,1.0,phase_1,,,,,,,,,,,,,gray,diamond
110.0,2.0,2.0,0.0,4.0,4.0,311.8945619789883,2.0,1.0,phase_1,,,,,,,,,,,,,magenta,flipped triangle
383.0,4.0,4.0,0.0,3.0,3.0,323.4558980329893,2.0,1.0,phase_1,,,,,,,,,,,,,green,hexagon
206.0,3.0,3.0,0.0,3.0,3.0,361.3834479474462,2.0,1.0,phase_1,,,,,,,,,,,,,white,triangle
117.0,2.0,2.0,0.0,3.0,3.0,337.8500730032101,2.0,1.0,phase_1,,,,,,,,,,,,,magenta,flipped triangle
0.0,5.0,0.0,1.0,4.0,4.0,339.7512459778227,2.0,1.0,phase_1,,,,,,,,,,,,,gray,diamond
0.0,2.0,0.0,0.0,2.0,2.0,305.3348860121332,2.0,1.0,phase_1,,,,,,,,,,,,,magenta,flipped triangle
39.0,5.0,1.0,1.0,3.0,3.0,316.6992950136773,2.0,1.0,phase_1,,,,,,,,,,,,,gray,diamond
0.0,1.0,0.0,0.0,3.0,3.0,296.6477900044992,2.0,1.0,phase_1,,,,,,,,,,,,,cyan,circle
97.0,2.0,2.0,0.0,3.0,3.0,309.5070620183833,2.0,1.0,phase_1,,,,,,,,,,,,,magenta,flipped triangle
70.0,1.0,1.0,0.0,1.0,1.0,342.4367199768312,2.0,1.0,phase_1,,,,,,,,,,,,,cyan,circle
378.0,8.0,4.0,1.0,2.0,2.0,411.1150419921614,2.0,1.0,phase_1,,,,,,,,,,,,,blue,I
0.0,8.0,0.0,1.0,1.0,1.0,340.7591020222753,2.0,1.0,phase_1,,,,,,,,,,,,,blue,I
115.0,6.0,2.0,1.0,1.0,1.0,330.1811069832183,2.0,1.0,phase_1,,,,,,,,,,,,,orange,cross
419.0,8.0,4.0,1.0,1.0,1.0,352.7916879975237,2.0,2.0,phase_1,,,,,,,,,,,,,blue,I
38.0,5.0,1.0,1.0,2.0,2.0,333.4219079697504,2.0,1.0,phase_1,,,,,,,,,,,,,gray,diamond
201.0,3.0,3.0,0.0,4.0,4.0,355.1244789850898,2.0,2.0,phase_1,,,,,,,,,,,,,white,triangle
54.0,1.0,1.0,0.0,2.0,2.0,288.7703850283287,2.0,1.0,phase_1,,,,,,,,,,,,,cyan,circle
408.0,8.0,4.0,1.0,1.0,1.0,393.4941019979305,2.0,1.0,phase_1,,,,,,,,,,,,,blue,I
43.0,5.0,1.0,1.0,4.0,4.0,481.1286170152016,2.0,1.0,phase_1,,,,,,,,,,,,,gray,diamond
194.0,7.0,3.0,1.0,2.0,2.0,315.7279610168189,2.0,1.0,phase_1,,,,,,,,,,,,,yellow,square
39.0,1.0,1.0,0.0,1.0,1.0,436.4065069821663,2.0,1.0,phase_1,,,,,,,,,,,,,cyan,circle
111.0,2.0,2.0,0.0,3.0,3.0,393.0711969733238,2.0,1.0,phase_1,,,,,,,,,,,,,magenta,flipped triangle
116.0,6.0,2.0,1.0,3.0,3.0,350.5421309964731,2.0,1.0,phase_1,,,,,,,,,,,,,orange,cross
77.0,6.0,2.0,1.0,4.0,4.0,385.2727010380476,2.0,1.0,phase_1,,,,,,,,,,,,,orange,cross
393.0,8.0,4.0,1.0,2.0,2.0,305.4440930136479,2.0,1.0,phase_1,,,,,,,,,,,,,blue,I
200.0,7.0,3.0,1.0,2.0,2.0,383.2094569806941,2.0,1.0,phase_1,,,,,,,,,,,,,yellow,square
0.0,5.0,0.0,1.0,4.0,4.0,553.0926680075936,2.0,1.0,phase_1,,,,,,,,,,,,,gray,diamond
181.0,7.0,3.0,1.0,1.0,1.0,397.6136179990135,2.0,1.0,phase_1,,,,,,,,,,,,,yellow,square
0.0,6.0,0.0,1.0,4.0,4.0,355.2684690221213,2.0,1.0,phase_1,,,,,,,,,,,,,orange,cross
0.0,3.0,0.0,0.0,3.0,3.0,465.8975260099396,2.0,1.0,phase_1,,,,,,,,,,,,,white,triangle
0.0,7.0,0.0,1.0,2.0,2.0,297.7208700031042,2.0,1.0,phase_1,,,,,,,,,,,,,yellow,square
182.0,3.0,3.0,0.0,1.0,1.0,307.6388689805753,2.0,1.0,phase_1,,,,,,,,,,,,,white,triangle
48.0,1.0,1.0,0.0,4.0,4.0,334.8373810295015,2.0,1.0,phase_1,,,,,,,,,,,,,cyan,circle
50.0,5.0,1.0,1.0,1.0,1.0,334.3593720346689,2.0,1.0,phase_1,,,,,,,,,,,,,gray,diamond
0.0,7.0,0.0,1.0,1.0,1.0,301.1454190127551,2.0,1.0,phase_1,,,,,,,,,,,,,yellow,square
30.0,1.0,1.0,0.0,2.0,2.0,309.7824900178239,2.0,1.0,phase_1,,,,,,,,,,,,,cyan,circle
60.0,1.0,1.0,0.0,2.0,2.0,425.1174689852632,2.0,1.0,phase_1,,,,,,,,,,,,,cyan,circle
38.0,1.0,1.0,0.0,2.0,2.0,355.6077770190313,2.0,1.0,phase_1,,,,,,,,,,,,,cyan,circle
379.0,8.0,4.0,1.0,3.0,3.0,333.5217439453117,2.0,1.0,phase_1,,,,,,,,,,,,,blue,I
213.0,3.0,3.0,0.0,4.0,4.0,383.145168016199,2.0,1.0,phase_1,,,,,,,,,,,,,white,triangle
405.0,4.0,4.0,0.0,1.0,1.0,312.5245370320044,2.0,1.0,phase_1,,,,,,,,,,,,,green,hexagon
0.0,4.0,0.0,0.0,3.0,3.0,369.8415349936113,2.0,1.0,phase_1,,,,,,,,,,,,,green,hexagon
93.0,2.0,2.0,0.0,3.0,3.0,395.8314610063098,2.0,1.0,phase_1,,,,,,,,,,,,,magenta,flipped triangle
44.0,1.0,1.0,0.0,2.0,2.0,329.1210659663193,2.0,1.0,phase_1,,,,,,,,,,,,,cyan,circle
221.0,7.0,3.0,1.0,2.0,2.0,314.3184750224463,2.0,1.0,phase_1,,,,,,,,,,,,,yellow,square
378.0,4.0,4.0,0.0,4.0,4.0,292.7837720490061,2.0,1.0,phase_1,,,,,,,,,,,,,green,hexagon
0.0,8.0,0.0,1.0,1.0,1.0,338.7188449851237,2.0,1.0,phase_1,,,,,,,,,,,,,blue,I
0.0,1.0,0.0,0.0,1.0,1.0,417.5602130126208,2.0,1.0,phase_1,,,,,,,,,,,,,cyan,circle
64.0,1.0,1.0,0.0,4.0,4.0,364.3532579881139,2.0,1.0,phase_1,,,,,,,,,,,,,cyan,circle
75.0,2.0,2.0,0.0,2.0,2.0,321.5214569936506,2.0,1.0,phase_1,,,,,,,,,,,,,magenta,flipped triangle
182.0,7.0,3.0,1.0,3.0,3.0,464.8751380154863,2.0,1.0,phase_1,,,,,,,,,,,,,yellow,square
25.0,5.0,1.0,1.0,4.0,4.0,340.8288690261543,2.0,1.0,phase_1,,,,,,,,,,,,,gray,diamond
59.0,1.0,1.0,0.0,4.0,4.0,333.5086310398765,2.0,1.0,phase_1,,,,,,,,,,,,,cyan,circle
221.0,3.0,3.0,0.0,2.0,2.0,412.5132050248794,2.0,1.0,phase_1,,,,,,,,,,,,,white,triangle
217.0,3.0,3.0,0.0,1.0,1.0,355.1362139987759,2.0,1.0,phase_1,,,,,,,,,,,,,white,triangle
0.0,2.0,0.0,0.0,3.0,3.0,310.1428850204684,2.0,1.0,phase_1,,,,,,,,,,,,,magenta,flipped triangle
47.0,1.0,1.0,0.0,4.0,4.0,400.2779430011287,2.0,1.0,phase_1,,,,,,,,,,,,,cyan,circle
0.0,7.0,0.0,1.0,3.0,3.0,367.6159160095267,2.0,1.0,phase_1,,,,,,,,,,,,,yellow,square
191.0,7.0,3.0,1.0,3.0,3.0,289.3650800106115,2.0,1.0,phase_1,,,,,,,,,,,,,yellow,square
418.0,4.0,4.0,0.0,3.0,3.0,338.2699870271608,2.0,1.0,phase_1,,,,,,,,,,,,,green,hexagon
391.0,4.0,4.0,0.0,3.0,3.0,301.2172320159152,2.0,1.0,phase_1,,,,,,,,,,,,,green,hexagon
120.0,2.0,2.0,0.0,1.0,1.0,334.9199770018458,2.0,1.0,phase_1,,,,,,,,,,,,,magenta,flipped triangle
185.0,3.0,3.0,0.0,2.0,2.0,317.1229930012487,2.0,1.0,phase_1,,,,,,,,,,,,,white,triangle
189.0,7.0,3.0,1.0,4.0,4.0,367.786260030698,3.0,1.0,phase_1,,,,,,,,,,,,,yellow,square
185.0,7.0,3.0,1.0,2.0,2.0,300.5942829768173,3.0,1.0,phase_1,,,,,,,,,,,,,yellow,square
392.0,4.0,4.0,0.0,4.0,4.0,278.8950860267505,3.0,1.0,phase_1,,,,,,,,,,,,,green,hexagon
198.0,7.0,3.0,1.0,1.0,1.0,321.7156670289114,3.0,1.0,phase_1,,,,,,,,,,,,,yellow,square
0.0,5.0,0.0,1.0,4.0,4.0,333.98287295131007,3.0,1.0,phase_1,,,,,,,,,,,,,gray,diamond
47.0,5.0,1.0,1.0,2.0,2.0,266.6549929999746,3.0,1.0,phase_1,,,,,,,,,,,,,gray,diamond
215.0,7.0,3.0,1.0,3.0,3.0,300.8353640325367,3.0,1.0,phase_1,,,,,,,,,,,,,yellow,square
52.0,5.0,1.0,1.0,2.0,2.0,300.9838520083576,3.0,1.0,phase_1,,,,,,,,,,,,,gray,diamond
47.0,5.0,1.0,1.0,2.0,2.0,316.2457310245372,3.0,1.0,phase_1,,,,,,,,,,,,,gray,diamond
384.0,8.0,4.0,1.0,2.0,2.0,302.6692679850384,3.0,1.0,phase_1,,,,,,,,,,,,,blue,I
423.0,8.0,4.0,1.0,2.0,2.0,316.9731390080414,3.0,1.0,phase_1,,,,,,,,,,,,,blue,I
97.0,6.0,2.0,1.0,4.0,4.0,307.2936970274895,3.0,1.0,phase_1,,,,,,,,,,,,,orange,cross
110.0,6.0,2.0,1.0,1.0,1.0,353.0240500112995,3.0,1.0,phase_1,,,,,,,,,,,,,orange,cross
0.0,4.0,0.0,0.0,3.0,3.0,439.781382039655,3.0,1.0,phase_1,,,,,,,,,,,,,green,hexagon
393.0,4.0,4.0,0.0,3.0,3.0,342.1612280071713,3.0,1.0,phase_1,,,,,,,,,,,,,green,hexagon
217.0,7.0,3.0,1.0,3.0,3.0,328.9893440087326,3.0,1.0,phase_1,,,,,,,,,,,,,yellow,square
196.0,7.0,3.0,1.0,3.0,3.0,317.4435339751653,3.0,1.0,phase_1,,,,,,,,,,,,,yellow,square
408.0,4.0,4.0,0.0,1.0,1.0,375.9576360462233,3.0,1.0,phase_1,,,,,,,,,,,,,green,hexagon
221.0,3.0,3.0,0.0,3.0,3.0,334.2041579890065,3.0,1.0,phase_1,,,,,,,,,,,,,white,triangle
377.0,8.0,4.0,1.0,2.0,2.0,297.4817409995012,3.0,1.0,phase_1,,,,,,,,,,,,,blue,I
109.0,6.0,2.0,1.0,1.0,1.0,309.8377619753591,3.0,2.0,phase_1,,,,,,,,,,,,,orange,cross
221.0,3.0,3.0,0.0,1.0,1.0,354.3378810281865,3.0,1.0,phase_1,,,,,,,,,,,,,white,triangle
30.0,5.0,1.0,1.0,1.0,1.0,300.7079140515998,3.0,1.0,phase_1,,,,,,,,,,,,,gray,diamond
82.0,2.0,2.0,0.0,3.0,3.0,381.9636940024793,3.0,1.0,phase_1,,,,,,,,,,,,,magenta,flipped triangle
379.0,4.0,4.0,0.0,2.0,2.0,254.7749459627084,3.0,1.0,phase_1,,,,,,,,,,,,,green,hexagon
73.0,1.0,1.0,0.0,4.0,4.0,337.7829790115356,3.0,1.0,phase_1,,,,,,,,,,,,,cyan,circle
97.0,6.0,2.0,1.0,1.0,1.0,278.5189949790947,3.0,1.0,phase_1,,,,,,,,,,,,,orange,cross
412.0,8.0,4.0,1.0,1.0,1.0,381.2835999997332,3.0,1.0,phase_1,,,,,,,,,,,,,blue,I
73.0,5.0,1.0,1.0,4.0,4.0,396.1630149860866,3.0,1.0,phase_1,,,,,,,,,,,,,gray,diamond
213.0,7.0,3.0,1.0,4.0,4.0,348.7696649972349,3.0,1.0,phase_1,,,,,,,,,,,,,yellow,square
0.0,5.0,0.0,1.0,4.0,4.0,339.8715039948001,3.0,1.0,phase_1,,,,,,,,,,,,,gray,diamond
221.0,3.0,3.0,0.0,3.0,3.0,327.8582699713297,3.0,1.0,phase_1,,,,,,,,,,,,,white,triangle
401.0,4.0,4.0,0.0,3.0,3.0,420.8657490089535,3.0,1.0,phase_1,,,,,,,,,,,,,green,hexagon
0.0,3.0,0.0,0.0,1.0,1.0,316.27282401314,3.0,1.0,phase_1,,,,,,,,,,,,,white,triangle
97.0,2.0,2.0,0.0,4.0,4.0,306.0792380128987,3.0,1.0,phase_1,,,,,,,,,,,,,magenta,flipped triangle
0.0,6.0,0.0,1.0,4.0,4.0,333.0349990283139,3.0,1.0,phase_1,,,,,,,,,,,,,orange,cross
0.0,8.0,0.0,1.0,1.0,1.0,340.4492370318621,3.0,1.0,phase_1,,,,,,,,,,,,,blue,I
41.0,5.0,1.0,1.0,3.0,3.0,343.569805030711,3.0,1.0,phase_1,,,,,,,,,,,,,gray,diamond
407.0,4.0,4.0,0.0,3.0,3.0,433.5791929624975,3.0,1.0,phase_1,,,,,,,,,,,,,green,hexagon
0.0,1.0,0.0,0.0,1.0,1.0,409.2974030063487,3.0,1.0,phase_1,,,,,,,,,,,,,cyan,circle
26.0,1.0,1.0,0.0,3.0,3.0,346.760198008269,3.0,1.0,phase_1,,,,,,,,,,,,,cyan,circle
54.0,1.0,1.0,0.0,2.0,2.0,357.968783006072,3.0,1.0,phase_1,,,,,,,,,,,,,cyan,circle
0.0,2.0,0.0,0.0,1.0,1.0,314.0347159933299,3.0,1.0,phase_1,,,,,,,,,,,,,magenta,flipped triangle
104.0,2.0,2.0,0.0,3.0,3.0,369.9942899984307,3.0,1.0,phase_1,,,,,,,,,,,,,magenta,flipped triangle
94.0,2.0,2.0,0.0,3.0,3.0,333.6481130099855,3.0,1.0,phase_1,,,,,,,,,,,,,magenta,flipped triangle
177.0,3.0,3.0,0.0,2.0,2.0,311.8615830317139,3.0,1.0,phase_1,,,,,,,,,,,,,white,triangle
98.0,2.0,2.0,0.0,4.0,4.0,336.7817079997621,3.0,1.0,phase_1,,,,,,,,,,,,,magenta,flipped triangle
31.0,5.0,1.0,1.0,4.0,4.0,395.1320619671605,3.0,1.0,phase_1,,,,,,,,,,,,,gray,diamond
221.0,3.0,3.0,0.0,4.0,4.0,360.8133629895746,3.0,1.0,phase_1,,,,,,,,,,,,,white,triangle
55.0,1.0,1.0,0.0,1.0,1.0,417.40498598665,3.0,1.0,phase_1,,,,,,,,,,,,,cyan,circle
120.0,6.0,2.0,1.0,3.0,3.0,337.0635579922236,3.0,1.0,phase_1,,,,,,,,,,,,,orange,cross
68.0,1.0,1.0,0.0,3.0,3.0,417.0188719872385,3.0,1.0,phase_1,,,,,,,,,,,,,cyan,circle
205.0,3.0,3.0,0.0,1.0,1.0,383.3315339870751,3.0,1.0,phase_1,,,,,,,,,,,,,white,triangle
383.0,8.0,4.0,1.0,3.0,3.0,331.1526710167527,3.0,1.0,phase_1,,,,,,,,,,,,,blue,I
0.0,8.0,0.0,1.0,3.0,3.0,467.3584949923679,3.0,1.0,phase_1,,,,,,,,,,,,,blue,I
179.0,3.0,3.0,0.0,3.0,3.0,319.6804309845902,3.0,1.0,phase_1,,,,,,,,,,,,,white,triangle
114.0,6.0,2.0,1.0,1.0,1.0,340.4981400235556,3.0,1.0,phase_1,,,,,,,,,,,,,orange,cross
190.0,7.0,3.0,1.0,2.0,2.0,318.6989990063011,3.0,1.0,phase_1,,,,,,,,,,,,,yellow,square
213.0,7.0,3.0,1.0,1.0,1.0,379.2944309534505,3.0,1.0,phase_1,,,,,,,,,,,,,yellow,square
213.0,3.0,3.0,0.0,3.0,3.0,299.952792993281,3.0,1.0,phase_1,,,,,,,,,,,,,white,triangle
0.0,7.0,0.0,1.0,2.0,2.0,400.7516049896367,3.0,1.0,phase_1,,,,,,,,,,,,,yellow,square
67.0,1.0,1.0,0.0,3.0,3.0,320.5880839959718,3.0,1.0,phase_1,,,,,,,,,,,,,cyan,circle
65.0,1.0,1.0,0.0,4.0,4.0,333.0462080193683,3.0,1.0,phase_1,,,,,,,,,,,,,cyan,circle
85.0,6.0,2.0,1.0,1.0,1.0,333.0494039691984,3.0,1.0,phase_1,,,,,,,,,,,,,orange,cross
412.0,4.0,4.0,0.0,3.0,3.0,322.1977300127037,3.0,1.0,phase_1,,,,,,,,,,,,,green,hexagon
0.0,4.0,0.0,0.0,3.0,3.0,301.8415810074657,3.0,1.0,phase_1,,,,,,,,,,,,,green,hexagon
78.0,2.0,2.0,0.0,4.0,4.0,337.0633040321991,3.0,1.0,phase_1,,,,,,,,,,,,,magenta,flipped triangle
415.0,8.0,4.0,1.0,2.0,2.0,336.7883570026606,3.0,1.0,phase_1,,,,,,,,,,,,,blue,I
212.0,3.0,3.0,0.0,4.0,4.0,380.4412269964814,3.0,1.0,phase_1,,,,,,,,,,,,,white,triangle
43.0,1.0,1.0,0.0,2.0,2.0,403.1271470012143,3.0,1.0,phase_1,,,,,,,,,,,,,cyan,circle
423.0,4.0,4.0,0.0,4.0,4.0,293.0965030100196,3.0,1.0,phase_1,,,,,,,,,,,,,green,hexagon
184.0,3.0,3.0,0.0,4.0,4.0,371.2050059693865,3.0,1.0,phase_1,,,,,,,,,,,,,white,triangle
381.0,8.0,4.0,1.0,4.0,4.0,297.0805079676211,3.0,1.0,phase_1,,,,,,,,,,,,,blue,I
77.0,2.0,2.0,0.0,3.0,3.0,363.07736299932,3.0,1.0,phase_1,,,,,,,,,,,,,magenta,flipped triangle
0.0,5.0,0.0,1.0,2.0,2.0,274.8873940436169,3.0,1.0,phase_1,,,,,,,,,,,,,gray,diamond
102.0,6.0,2.0,1.0,4.0,4.0,442.7013859967701,3.0,1.0,phase_1,,,,,,,,,,,,,orange,cross
403.0,4.0,4.0,0.0,2.0,2.0,350.7602920290082,3.0,1.0,phase_1,,,,,,,,,,,,,green,hexagon
401.0,4.0,4.0,0.0,4.0,4.0,317.8324780310504,3.0,1.0,phase_1,,,,,,,,,,,,,green,hexagon
41.0,1.0,1.0,0.0,3.0,3.0,353.495891962666,3.0,1.0,phase_1,,,,,,,,,,,,,cyan,circle
59.0,5.0,1.0,1.0,3.0,3.0,277.1944230189547,3.0,1.0,phase_1,,,,,,,,,,,,,gray,diamond
81.0,6.0,2.0,1.0,3.0,3.0,390.9298759535886,3.0,1.0,phase_1,,,,,,,,,,,,,orange,cross
391.0,8.0,4.0,1.0,4.0,4.0,377.4111639941111,3.0,1.0,phase_1,,,,,,,,,,,,,blue,I
213.0,7.0,3.0,1.0,1.0,1.0,345.4322990146465,3.0,1.0,phase_1,,,,,,,,,,,,,yellow,square
189.0,3.0,3.0,0.0,2.0,2.0,321.0072860238142,3.0,1.0,phase_1,,,,,,,,,,,,,white,triangle
388.0,8.0,4.0,1.0,2.0,2.0,312.7429729793221,3.0,1.0,phase_1,,,,,,,,,,,,,blue,I
110.0,6.0,2.0,1.0,3.0,3.0,312.4106019968167,3.0,1.0,phase_1,,,,,,,,,,,,,orange,cross
183.0,3.0,3.0,0.0,1.0,1.0,312.4897369998507,3.0,1.0,phase_1,,,,,,,,,,,,,white,triangle
78.0,2.0,2.0,0.0,1.0,1.0,312.9372330149635,3.0,1.0,phase_1,,,,,,,,,,,,,magenta,flipped triangle
114.0,2.0,2.0,0.0,4.0,4.0,403.58683897648,3.0,1.0,phase_1,,,,,,,,,,,,,magenta,flipped triangle
407.0,8.0,4.0,1.0,1.0,1.0,279.7803629655391,3.0,1.0,phase_1,,,,,,,,,,,,,blue,I
33.0,5.0,1.0,1.0,4.0,4.0,328.8641510298475,3.0,1.0,phase_1,,,,,,,,,,,,,gray,diamond
123.0,2.0,2.0,0.0,2.0,2.0,315.4439140344038,3.0,1.0,phase_1,,,,,,,,,,,,,magenta,flipped triangle
190.0,3.0,3.0,0.0,4.0,4.0,292.709172994364,3.0,1.0,phase_1,,,,,,,,,,,,,white,triangle
416.0,4.0,4.0,0.0,3.0,3.0,339.755994034931,3.0,1.0,phase_1,,,,,,,,,,,,,green,hexagon
189.0,7.0,3.0,1.0,2.0,2.0,304.5267590205185,3.0,1.0,phase_1,,,,,,,,,,,,,yellow,square
415.0,4.0,4.0,0.0,2.0,2.0,317.0270919799804,3.0,1.0,phase_1,,,,,,,,,,,,,green,hexagon
100.0,6.0,2.0,1.0,3.0,3.0,366.6448820149526,3.0,1.0,phase_1,,,,,,,,,,,,,orange,cross
64.0,1.0,1.0,0.0,1.0,1.0,373.9233490196056,3.0,1.0,phase_1,,,,,,,,,,,,,cyan,circle
105.0,2.0,2.0,0.0,2.0,2.0,307.5300219934433,3.0,1.0,phase_1,,,,,,,,,,,,,magenta,flipped triangle
0.0,2.0,0.0,0.0,4.0,4.0,321.9904020079411,3.0,1.0,phase_1,,,,,,,,,,,,,magenta,flipped triangle
181.0,3.0,3.0,0.0,4.0,4.0,349.1316420258954,4.0,1.0,phase_1,,,,,,,,,,,,,white,triangle
90.0,2.0,2.0,0.0,4.0,4.0,319.2638079635799,4.0,1.0,phase_1,,,,,,,,,,,,,magenta,flipped triangle
70.0,5.0,1.0,1.0,1.0,1.0,315.605370036792,4.0,1.0,phase_1,,,,,,,,,,,,,gray,diamond
0.0,8.0,0.0,1.0,3.0,3.0,320.8738770335912,4.0,1.0,phase_1,,,,,,,,,,,,,blue,I
0.0,2.0,0.0,0.0,2.0,2.0,298.2132289907895,4.0,1.0,phase_1,,,,,,,,,,,,,magenta,flipped triangle
82.0,6.0,2.0,1.0,4.0,4.0,307.506290031597,4.0,1.0,phase_1,,,,,,,,,,,,,orange,cross
377.0,4.0,4.0,0.0,3.0,3.0,311.2528009805828,4.0,1.0,phase_1,,,,,,,,,,,,,green,hexagon
178.0,3.0,3.0,0.0,1.0,1.0,288.445136975497,4.0,1.0,phase_1,,,,,,,,,,,,,white,triangle
85.0,2.0,2.0,0.0,2.0,2.0,275.4824849544093,4.0,1.0,phase_1,,,,,,,,,,,,,magenta,flipped triangle
178.0,7.0,3.0,1.0,4.0,4.0,275.9336209855973,4.0,1.0,phase_1,,,,,,,,,,,,,yellow,square
221.0,7.0,3.0,1.0,1.0,1.0,287.8117629443295,4.0,1.0,phase_1,,,,,,,,,,,,,yellow,square
116.0,2.0,2.0,0.0,2.0,2.0,377.3407699773088,4.0,1.0,phase_1,,,,,,,,,,,,,magenta,flipped triangle
91.0,2.0,2.0,0.0,1.0,1.0,276.327722996939,4.0,1.0,phase_1,,,,,,,,,,,,,magenta,flipped triangle
63.0,5.0,1.0,1.0,3.0,3.0,344.9735150206834,4.0,1.0,phase_1,,,,,,,,,,,,,gray,diamond
65.0,1.0,1.0,0.0,3.0,3.0,404.3730310513638,4.0,1.0,phase_1,,,,,,,,,,,,,cyan,circle
110.0,2.0,2.0,0.0,1.0,1.0,281.7267079954035,4.0,1.0,phase_1,,,,,,,,,,,,,magenta,flipped triangle
421.0,4.0,4.0,0.0,1.0,1.0,293.0276810075156,4.0,1.0,phase_1,,,,,,,,,,,,,green,hexagon
116.0,2.0,2.0,0.0,4.0,4.0,350.5870150402188,4.0,1.0,phase_1,,,,,,,,,,,,,magenta,flipped triangle
405.0,4.0,4.0,0.0,4.0,4.0,315.8474329975433,4.0,1.0,phase_1,,,,,,,,,,,,,green,hexagon
26.0,5.0,1.0,1.0,2.0,2.0,284.33486900758,4.0,1.0,phase_1,,,,,,,,,,,,,gray,diamond
0.0,2.0,0.0,0.0,4.0,4.0,359.8114569904282,4.0,1.0,phase_1,,,,,,,,,,,,,magenta,flipped triangle
0.0,2.0,0.0,0.0,3.0,3.0,326.316708989907,4.0,1.0,phase_1,,,,,,,,,,,,,magenta,flipped triangle
0.0,3.0,0.0,0.0,2.0,2.0,350.4639209713787,4.0,1.0,phase_1,,,,,,,,,,,,,white,triangle
90.0,6.0,2.0,1.0,3.0,3.0,318.0913549731485,4.0,1.0,phase_1,,,,,,,,,,,,,orange,cross
405.0,8.0,4.0,1.0,3.0,3.0,332.2837220039218,4.0,1.0,phase_1,,,,,,,,,,,,,blue,I
0.0,8.0,0.0,1.0,3.0,3.0,395.9704769658856,4.0,1.0,phase_1,,,,,,,,,,,,,blue,I
28.0,1.0,1.0,0.0,3.0,3.0,333.1593559705652,4.0,1.0,phase_1,,,,,,,,,,,,,cyan,circle
419.0,4.0,4.0,0.0,1.0,1.0,341.4343869662843,4.0,2.0,phase_1,,,,,,,,,,,,,green,hexagon
387.0,8.0,4.0,1.0,1.0,1.0,334.1208269703202,4.0,1.0,phase_1,,,,,,,,,,,,,blue,I
78.0,6.0,2.0,1.0,3.0,3.0,367.9898270056583,4.0,1.0,phase_1,,,,,,,,,,,,,orange,cross
196.0,3.0,3.0,0.0,2.0,2.0,311.4710029913112,4.0,1.0,phase_1,,,,,,,,,,,,,white,triangle
65.0,5.0,1.0,1.0,1.0,1.0,276.0011040372774,4.0,1.0,phase_1,,,,,,,,,,,,,gray,diamond
81.0,2.0,2.0,0.0,4.0,4.0,434.8112600273452,4.0,1.0,phase_1,,,,,,,,,,,,,magenta,flipped triangle
94.0,6.0,2.0,1.0,4.0,4.0,435.3534139809198,4.0,1.0,phase_1,,,,,,,,,,,,,orange,cross
405.0,8.0,4.0,1.0,3.0,3.0,338.3055450394749,4.0,1.0,phase_1,,,,,,,,,,,,,blue,I
0.0,2.0,0.0,0.0,3.0,3.0,401.9289209973067,4.0,1.0,phase_1,,,,,,,,,,,,,magenta,flipped triangle
417.0,8.0,4.0,1.0,3.0,3.0,325.8664830354973,4.0,1.0,phase_1,,,,,,,,,,,,,blue,I
52.0,1.0,1.0,0.0,1.0,1.0,290.9445809782482,4.0,1.0,phase_1,,,,,,,,,,,,,cyan,circle
52.0,1.0,1.0,0.0,4.0,4.0,471.2184100062586,4.0,1.0,phase_1,,,,,,,,,,,,,cyan,circle
0.0,3.0,0.0,0.0,1.0,1.0,384.8987320088781,4.0,1.0,phase_1,,,,,,,,,,,,,white,triangle
0.0,4.0,0.0,0.0,3.0,3.0,396.623051026836,4.0,1.0,phase_1,,,,,,,,,,,,,green,hexagon
44.0,1.0,1.0,0.0,3.0,3.0,350.2121570054441,4.0,1.0,phase_1,,,,,,,,,,,,,cyan,circle
387.0,4.0,4.0,0.0,1.0,1.0,328.3952479832805,4.0,1.0,phase_1,,,,,,,,,,,,,green,hexagon
0.0,5.0,0.0,1.0,3.0,3.0,316.9313539983704,4.0,1.0,phase_1,,,,,,,,,,,,,gray,diamond
0.0,2.0,0.0,0.0,4.0,4.0,342.6823909976519,4.0,1.0,phase_1,,,,,,,,,,,,,magenta,flipped triangle
55.0,5.0,1.0,1.0,4.0,4.0,408.3787329727784,4.0,1.0,phase_1,,,,,,,,,,,,,gray,diamond
0.0,1.0,0.0,0.0,1.0,1.0,309.9840640206821,4.0,1.0,phase_1,,,,,,,,,,,,,cyan,circle
33.0,1.0,1.0,0.0,1.0,1.0,341.6468579671345,4.0,1.0,phase_1,,,,,,,,,,,,,cyan,circle
0.0,7.0,0.0,1.0,4.0,4.0,345.4866259708069,4.0,1.0,phase_1,,,,,,,,,,,,,yellow,square
220.0,3.0,3.0,0.0,1.0,1.0,364.4462280208245,4.0,1.0,phase_1,,,,,,,,,,,,,white,triangle
65.0,5.0,1.0,1.0,3.0,3.0,399.3856830056757,4.0,1.0,phase_1,,,,,,,,,,,,,gray,diamond
184.0,7.0,3.0,1.0,2.0,2.0,346.3407910312526,4.0,1.0,phase_1,,,,,,,,,,,,,yellow,square
0.0,6.0,0.0,1.0,3.0,3.0,348.288164997939,4.0,1.0,phase_1,,,,,,,,,,,,,orange,cross
97.0,2.0,2.0,0.0,1.0,1.0,289.517319004517,4.0,1.0,phase_1,,,,,,,,,,,,,magenta,flipped triangle
200.0,3.0,3.0,0.0,4.0,4.0,379.8201309982687,4.0,1.0,phase_1,,,,,,,,,,,,,white,triangle
0.0,8.0,0.0,1.0,3.0,3.0,368.0746300378814,4.0,1.0,phase_1,,,,,,,,,,,,,blue,I
0.0,6.0,0.0,1.0,1.0,1.0,294.1451300284825,4.0,1.0,phase_1,,,,,,,,,,,,,orange,cross
106.0,2.0,2.0,0.0,3.0,3.0,301.7307909904048,4.0,1.0,phase_1,,,,,,,,,,,,,magenta,flipped triangle
201.0,7.0,3.0,1.0,1.0,1.0,372.5769890006631,4.0,1.0,phase_1,,,,,,,,,,,,,yellow,square
64.0,5.0,1.0,1.0,4.0,4.0,404.4504020130262,4.0,1.0,phase_1,,,,,,,,,,,,,gray,diamond
198.0,3.0,3.0,0.0,4.0,4.0,348.9536960260011,4.0,1.0,phase_1,,,,,,,,,,,,,white,triangle
0.0,5.0,0.0,1.0,2.0,2.0,258.9654339826666,4.0,1.0,phase_1,,,,,,,,,,,,,gray,diamond
0.0,4.0,0.0,0.0,4.0,4.0,320.3822450013831,4.0,1.0,phase_1,,,,,,,,,,,,,green,hexagon
0.0,3.0,0.0,0.0,3.0,3.0,384.352218999993,4.0,1.0,phase_1,,,,,,,,,,,,,white,triangle
189.0,3.0,3.0,0.0,3.0,3.0,339.5511130220257,4.0,1.0,phase_1,,,,,,,,,,,,,white,triangle
97.0,6.0,2.0,1.0,1.0,1.0,295.1583769754506,4.0,1.0,phase_1,,,,,,,,,,,,,orange,cross
221.0,7.0,3.0,1.0,2.0,2.0,298.7694640178233,4.0,1.0,phase_1,,,,,,,,,,,,,yellow,square
419.0,8.0,4.0,1.0,4.0,4.0,351.9276789738796,4.0,1.0,phase_1,,,,,,,,,,,,,blue,I
401.0,8.0,4.0,1.0,3.0,3.0,307.6489680097438,4.0,1.0,phase_1,,,,,,,,,,,,,blue,I
379.0,8.0,4.0,1.0,2.0,2.0,410.6510090059601,4.0,1.0,phase_1,,,,,,,,,,,,,blue,I
196.0,3.0,3.0,0.0,2.0,2.0,398.8279739860445,4.0,1.0,phase_1,,,,,,,,,,,,,white,triangle
93.0,6.0,2.0,1.0,3.0,3.0,346.6149070300162,4.0,1.0,phase_1,,,,,,,,,,,,,orange,cross
413.0,4.0,4.0,0.0,2.0,2.0,313.6703289928846,4.0,2.0,phase_1,,,,,,,,,,,,,green,hexagon
91.0,6.0,2.0,1.0,1.0,1.0,382.9484590096399,4.0,1.0,phase_1,,,,,,,,,,,,,orange,cross
386.0,4.0,4.0,0.0,4.0,4.0,356.4494989695959,4.0,1.0,phase_1,,,,,,,,,,,,,green,hexagon
0.0,4.0,0.0,0.0,1.0,1.0,315.3588399873115,4.0,1.0,phase_1,,,,,,,,,,,,,green,hexagon
205.0,7.0,3.0,1.0,1.0,1.0,358.3238110295497,4.0,1.0,phase_1,,,,,,,,,,,,,yellow,square
381.0,4.0,4.0,0.0,2.0,2.0,269.9760409886949,4.0,1.0,phase_1,,,,,,,,,,,,,green,hexagon
47.0,1.0,1.0,0.0,4.0,4.0,349.2158859735355,4.0,1.0,phase_1,,,,,,,,,,,,,cyan,circle
413.0,8.0,4.0,1.0,3.0,3.0,374.3220659671351,4.0,1.0,phase_1,,,,,,,,,,,,,blue,I
401.0,8.0,4.0,1.0,4.0,4.0,506.92828197497874,4.0,1.0,phase_1,,,,,,,,,,,,,blue,I
215.0,3.0,3.0,0.0,3.0,3.0,511.131489998661,4.0,1.0,phase_1,,,,,,,,,,,,,white,triangle
73.0,1.0,1.0,0.0,1.0,1.0,499.9505000305362,4.0,1.0,phase_1,,,,,,,,,,,,,cyan,circle
60.0,5.0,1.0,1.0,1.0,1.0,308.2339070388116,4.0,2.0,phase_1,,,,,,,,,,,,,gray,diamond
31.0,1.0,1.0,0.0,3.0,3.0,434.2414730344899,4.0,1.0,phase_1,,,,,,,,,,,,,cyan,circle
0.0,7.0,0.0,1.0,4.0,4.0,354.3682239833288,4.0,1.0,phase_1,,,,,,,,,,,,,yellow,square
117.0,2.0,2.0,0.0,2.0,2.0,299.5925370487384,4.0,1.0,phase_1,,,,,,,,,,,,,magenta,flipped triangle
419.0,4.0,4.0,0.0,2.0,2.0,296.7513920157216,4.0,1.0,phase_1,,,,,,,,,,,,,green,hexagon
59.0,5.0,1.0,1.0,4.0,4.0,391.9570930302143,4.0,1.0,phase_1,,,,,,,,,,,,,gray,diamond
0.0,8.0,0.0,1.0,3.0,3.0,410.6018919846974,4.0,1.0,phase_1,,,,,,,,,,,,,blue,I
191.0,3.0,3.0,0.0,4.0,4.0,379.0981859783642,4.0,1.0,phase_1,,,,,,,,,,,,,white,triangle
59.0,5.0,1.0,1.0,3.0,3.0,343.9562270068563,4.0,1.0,phase_1,,,,,,,,,,,,,gray,diamond
0.0,4.0,0.0,0.0,3.0,3.0,369.4806230487302,4.0,1.0,phase_1,,,,,,,,,,,,,green,hexagon
384.0,4.0,4.0,0.0,4.0,4.0,371.798702981323,4.0,1.0,phase_1,,,,,,,,,,,,,green,hexagon
0.0,6.0,0.0,1.0,3.0,3.0,357.1422780514695,4.0,1.0,phase_1,,,,,,,,,,,,,orange,cross
123.0,6.0,2.0,1.0,2.0,2.0,312.6905779936351,4.0,1.0,phase_1,,,,,,,,,,,,,orange,cross
177.0,7.0,3.0,1.0,4.0,4.0,336.7322720005177,4.0,1.0,phase_1,,,,,,,,,,,,,yellow,square
85.0,2.0,2.0,0.0,2.0,2.0,303.5909309983253,4.0,1.0,phase_1,,,,,,,,,,,,,magenta,flipped triangle
0.0,7.0,0.0,1.0,3.0,3.0,317.9500660044141,4.0,1.0,phase_1,,,,,,,,,,,,,yellow,square
221.0,7.0,3.0,1.0,4.0,4.0,393.2883130037226,4.0,1.0,phase_1,,,,,,,,,,,,,yellow,square
0.0,2.0,2.0,0.0,5.0,5.0,326.5501229907386,1.0,1.0,phase_2,go,250.0,250.0,1.0,,,,,,,,,magenta,flipped triangle
0.0,2.0,2.0,0.0,6.0,6.0,697.3606280516833,1.0,1.0,phase_2,go,250.0,250.0,1.0,,,,,,,,,magenta,flipped triangle
0.0,7.0,3.0,1.0,5.0,0.0,0.0,1.0,1.0,phase_2,stop,250.0,250.0,4.0,,,,,,,,,yellow,square
0.0,4.0,4.0,0.0,5.0,5.0,551.6747409710661,1.0,1.0,phase_2,go,300.0,250.0,1.0,,,,,,,,,green,hexagon
0.0,8.0,4.0,1.0,6.0,6.0,506.5006020013243,1.0,1.0,phase_2,stop,300.0,250.0,3.0,,,,,,,,,blue,I
0.0,3.0,3.0,0.0,6.0,6.0,497.9478229652159,1.0,1.0,phase_2,go,300.0,200.0,1.0,,,,,,,,,white,triangle
0.0,1.0,1.0,0.0,5.0,5.0,725.368031009566,1.0,1.0,phase_2,go,300.0,200.0,1.0,,,,,,,,,cyan,circle
0.0,1.0,1.0,0.0,6.0,6.0,734.03202497866,1.0,1.0,phase_2,go,300.0,200.0,1.0,,,,,,,,,cyan,circle
0.0,1.0,1.0,0.0,6.0,6.0,532.5262429541908,1.0,1.0,phase_2,go,300.0,200.0,1.0,,,,,,,,,cyan,circle
0.0,2.0,2.0,0.0,5.0,5.0,547.022130980622,1.0,1.0,phase_2,go,300.0,200.0,1.0,,,,,,,,,magenta,flipped triangle
0.0,7.0,3.0,1.0,6.0,0.0,0.0,1.0,1.0,phase_2,stop,300.0,200.0,4.0,,,,,,,,,yellow,square
0.0,4.0,4.0,0.0,6.0,6.0,425.1409369753673,1.0,1.0,phase_2,go,300.0,250.0,1.0,,,,,,,,,green,hexagon
0.0,4.0,4.0,0.0,5.0,5.0,965.8389660180546,1.0,1.0,phase_2,go,300.0,250.0,1.0,,,,,,,,,green,hexagon
0.0,5.0,1.0,1.0,6.0,0.0,0.0,1.0,1.0,phase_2,stop,300.0,250.0,4.0,,,,,,,,,gray,diamond
0.0,3.0,3.0,0.0,6.0,6.0,461.2092869938351,1.0,1.0,phase_2,go,300.0,300.0,1.0,,,,,,,,,white,triangle
0.0,2.0,2.0,0.0,5.0,5.0,901.9705249811524,1.0,1.0,phase_2,go,300.0,300.0,1.0,,,,,,,,,magenta,flipped triangle
0.0,1.0,1.0,0.0,6.0,6.0,888.1674059666693,1.0,1.0,phase_2,go,300.0,300.0,1.0,,,,,,,,,cyan,circle
0.0,6.0,2.0,1.0,6.0,0.0,0.0,1.0,1.0,phase_2,stop,300.0,300.0,4.0,,,,,,,,,orange,cross
0.0,5.0,1.0,1.0,5.0,5.0,518.2828999822959,1.0,1.0,phase_2,stop,300.0,350.0,3.0,,,,,,,,,gray,diamond
0.0,8.0,4.0,1.0,5.0,5.0,599.8182810144499,1.0,1.0,phase_2,go,250.0,350.0,1.0,,,,,,,,,blue,I
0.0,2.0,2.0,0.0,6.0,6.0,859.0214230353013,1.0,1.0,phase_2,go,250.0,350.0,1.0,,,,,,,,,magenta,flipped triangle
0.0,8.0,4.0,1.0,6.0,6.0,756.0152360238135,1.0,1.0,phase_2,go,250.0,350.0,1.0,,,,,,,,,blue,I
0.0,8.0,4.0,1.0,6.0,6.0,544.230728992261,1.0,1.0,phase_2,stop,250.0,350.0,3.0,,,,,,,,,blue,I
0.0,1.0,1.0,0.0,6.0,6.0,660.4457100038417,1.0,1.0,phase_2,go,250.0,300.0,1.0,,,,,,,,,cyan,circle
0.0,4.0,4.0,0.0,6.0,6.0,860.0428609643131,1.0,1.0,phase_2,go,250.0,300.0,1.0,,,,,,,,,green,hexagon
0.0,8.0,4.0,1.0,5.0,0.0,0.0,1.0,1.0,phase_2,stop,250.0,300.0,4.0,,,,,,,,,blue,I
0.0,1.0,1.0,0.0,5.0,5.0,772.5836279569194,1.0,1.0,phase_2,go,300.0,300.0,1.0,,,,,,,,,cyan,circle
0.0,2.0,2.0,0.0,6.0,6.0,1147.8297599824143,1.0,1.0,phase_2,go,300.0,300.0,1.0,,,,,,,,,magenta,flipped triangle
0.0,5.0,1.0,1.0,6.0,0.0,0.0,1.0,1.0,phase_2,stop,300.0,300.0,4.0,,,,,,,,,gray,diamond
0.0,3.0,3.0,0.0,6.0,6.0,788.775869004894,1.0,1.0,phase_2,go,300.0,350.0,1.0,,,,,,,,,white,triangle
0.0,3.0,3.0,0.0,6.0,6.0,527.2973449900746,1.0,1.0,phase_2,go,300.0,350.0,1.0,,,,,,,,,white,triangle
0.0,1.0,1.0,0.0,6.0,6.0,834.1472249594517,1.0,1.0,phase_2,go,300.0,350.0,1.0,,,,,,,,,cyan,circle
0.0,7.0,3.0,1.0,5.0,0.0,0.0,1.0,1.0,phase_2,stop,300.0,350.0,4.0,,,,,,,,,yellow,square
0.0,3.0,3.0,0.0,5.0,5.0,782.1025409502909,1.0,1.0,phase_2,go,350.0,350.0,1.0,,,,,,,,,white,triangle
0.0,7.0,3.0,1.0,6.0,0.0,0.0,1.0,1.0,phase_2,stop,350.0,350.0,4.0,,,,,,,,,yellow,square
0.0,5.0,1.0,1.0,6.0,6.0,768.769058980979,1.0,1.0,phase_2,go,350.0,400.0,1.0,,,,,,,,,gray,diamond
0.0,8.0,4.0,1.0,5.0,5.0,245.3878159867599,2.0,1.0,phase_2,go,350.0,400.0,1.0,,,,,,,,,blue,I
0.0,4.0,4.0,0.0,5.0,5.0,369.5340449921787,2.0,1.0,phase_2,go,350.0,400.0,1.0,,,,,,,,,green,hexagon
0.0,6.0,2.0,1.0,5.0,5.0,337.4777630087919,2.0,1.0,phase_2,go,350.0,400.0,1.0,,,,,,,,,orange,cross
0.0,6.0,2.0,1.0,5.0,5.0,312.7176240086555,2.0,1.0,phase_2,stop,350.0,400.0,3.0,,,,,,,,,orange,cross
0.0,8.0,4.0,1.0,6.0,6.0,339.7242259816266,2.0,1.0,phase_2,stop,300.0,400.0,3.0,,,,,,,,,blue,I
0.0,1.0,1.0,0.0,5.0,5.0,461.8089289870113,2.0,1.0,phase_2,go,300.0,350.0,1.0,,,,,,,,,cyan,circle
0.0,4.0,4.0,0.0,6.0,6.0,340.5499899527058,2.0,1.0,phase_2,go,300.0,350.0,1.0,,,,,,,,,green,hexagon
0.0,1.0,1.0,0.0,6.0,6.0,398.564142989926,2.0,1.0,phase_2,go,300.0,350.0,1.0,,,,,,,,,cyan,circle
0.0,4.0,4.0,0.0,6.0,6.0,395.7840990042314,2.0,1.0,phase_2,go,300.0,350.0,1.0,,,,,,,,,green,hexagon
0.0,4.0,4.0,0.0,5.0,5.0,524.3944139801897,2.0,1.0,phase_2,go,300.0,350.0,1.0,,,,,,,,,green,hexagon
0.0,8.0,4.0,1.0,5.0,5.0,410.0858150050044,2.0,1.0,phase_2,stop,300.0,350.0,3.0,,,,,,,,,blue,I
0.0,2.0,2.0,0.0,5.0,5.0,522.7833780227229,2.0,1.0,phase_2,go,250.0,350.0,1.0,,,,,,,,,magenta,flipped triangle
0.0,4.0,4.0,0.0,5.0,5.0,547.760835965164,2.0,1.0,phase_2,go,250.0,350.0,1.0,,,,,,,,,green,hexagon
0.0,6.0,2.0,1.0,5.0,5.0,478.4660899895243,2.0,1.0,phase_2,go,250.0,350.0,1.0,,,,,,,,,orange,cross
0.0,4.0,4.0,0.0,5.0,5.0,560.9681059722789,2.0,1.0,phase_2,go,250.0,350.0,1.0,,,,,,,,,green,hexagon
0.0,4.0,4.0,0.0,6.0,6.0,548.7684909603558,2.0,1.0,phase_2,go,250.0,350.0,1.0,,,,,,,,,green,hexagon
0.0,3.0,3.0,0.0,6.0,6.0,358.0083640408702,2.0,1.0,phase_2,go,250.0,350.0,1.0,,,,,,,,,white,triangle
0.0,7.0,3.0,1.0,6.0,6.0,372.5800809916109,2.0,1.0,phase_2,stop,250.0,350.0,3.0,,,,,,,,,yellow,square
0.0,4.0,4.0,0.0,6.0,6.0,539.5987349911593,2.0,1.0,phase_2,go,250.0,300.0,1.0,,,,,,,,,green,hexagon
0.0,2.0,2.0,0.0,5.0,5.0,472.6274629938416,2.0,1.0,phase_2,go,250.0,300.0,1.0,,,,,,,,,magenta,flipped triangle
0.0,6.0,2.0,1.0,6.0,6.0,350.1100590219721,2.0,1.0,phase_2,stop,250.0,300.0,3.0,,,,,,,,,orange,cross
0.0,4.0,4.0,0.0,6.0,6.0,332.6242939801886,2.0,1.0,phase_2,go,250.0,250.0,1.0,,,,,,,,,green,hexagon
0.0,2.0,2.0,0.0,5.0,5.0,339.7017049719579,2.0,1.0,phase_2,go,250.0,250.0,1.0,,,,,,,,,magenta,flipped triangle
0.0,7.0,3.0,1.0,5.0,5.0,477.315146010369,2.0,1.0,phase_2,go,250.0,250.0,1.0,,,,,,,,,yellow,square
0.0,3.0,3.0,0.0,5.0,5.0,444.4364889641292,2.0,1.0,phase_2,go,250.0,250.0,1.0,,,,,,,,,white,triangle
0.0,1.0,1.0,0.0,6.0,6.0,503.0063799931668,2.0,1.0,phase_2,go,250.0,250.0,1.0,,,,,,,,,cyan,circle
0.0,6.0,2.0,1.0,5.0,5.0,512.262670963537,2.0,1.0,phase_2,stop,250.0,250.0,3.0,,,,,,,,,orange,cross
0.0,4.0,4.0,0.0,6.0,6.0,345.8787080016918,2.0,1.0,phase_2,go,200.0,250.0,1.0,,,,,,,,,green,hexagon
0.0,2.0,2.0,0.0,6.0,6.0,515.3603150392883,2.0,1.0,phase_2,go,200.0,250.0,1.0,,,,,,,,,magenta,flipped triangle
0.0,4.0,4.0,0.0,6.0,6.0,435.8138400129974,2.0,1.0,phase_2,go,200.0,250.0,1.0,,,,,,,,,green,hexagon
0.0,3.0,3.0,0.0,5.0,5.0,684.0964950388297,2.0,1.0,phase_2,go,200.0,250.0,1.0,,,,,,,,,white,triangle
0.0,6.0,2.0,1.0,5.0,0.0,0.0,2.0,1.0,phase_2,stop,200.0,250.0,4.0,,,,,,,,,orange,cross
0.0,7.0,3.0,1.0,5.0,5.0,498.2450699899345,2.0,1.0,phase_2,stop,250.0,250.0,3.0,,,,,,,,,yellow,square
0.0,1.0,1.0,0.0,5.0,5.0,551.5426859492436,2.0,1.0,phase_2,go,200.0,250.0,1.0,,,,,,,,,cyan,circle
0.0,7.0,3.0,1.0,5.0,5.0,675.9458119631745,2.0,1.0,phase_2,go,200.0,250.0,1.0,,,,,,,,,yellow,square
0.0,5.0,1.0,1.0,5.0,0.0,0.0,2.0,1.0,phase_2,stop,200.0,250.0,4.0,,,,,,,,,gray,diamond
0.0,5.0,1.0,1.0,6.0,6.0,357.0844780188054,3.0,1.0,phase_2,go,250.0,250.0,1.0,,,,,,,,,gray,diamond
0.0,7.0,3.0,1.0,5.0,5.0,494.3935709889047,3.0,1.0,phase_2,stop,250.0,250.0,3.0,,,,,,,,,yellow,square
0.0,8.0,4.0,1.0,6.0,6.0,452.3648000322282,3.0,1.0,phase_2,go,200.0,250.0,1.0,,,,,,,,,blue,I
0.0,8.0,4.0,1.0,5.0,0.0,0.0,3.0,1.0,phase_2,stop,200.0,250.0,4.0,,,,,,,,,blue,I
0.0,5.0,1.0,1.0,5.0,5.0,315.6961349886842,3.0,1.0,phase_2,go,250.0,250.0,1.0,,,,,,,,,gray,diamond
0.0,2.0,2.0,0.0,6.0,6.0,405.6872500223107,3.0,1.0,phase_2,go,250.0,250.0,1.0,,,,,,,,,magenta,flipped triangle
0.0,1.0,1.0,0.0,6.0,6.0,496.7692400095984,3.0,1.0,phase_2,go,250.0,250.0,1.0,,,,,,,,,cyan,circle
0.0,4.0,4.0,0.0,6.0,6.0,366.1512439721264,3.0,1.0,phase_2,go,250.0,250.0,1.0,,,,,,,,,green,hexagon
0.0,5.0,1.0,1.0,5.0,0.0,0.0,3.0,1.0,phase_2,stop,250.0,250.0,4.0,,,,,,,,,gray,diamond
0.0,7.0,3.0,1.0,5.0,5.0,342.5467600463889,3.0,1.0,phase_2,stop,300.0,250.0,3.0,,,,,,,,,yellow,square
0.0,3.0,3.0,0.0,5.0,5.0,345.5157319549471,3.0,1.0,phase_2,go,250.0,250.0,1.0,,,,,,,,,white,triangle
0.0,6.0,2.0,1.0,5.0,0.0,0.0,3.0,1.0,phase_2,stop,250.0,250.0,4.0,,,,,,,,,orange,cross
0.0,2.0,2.0,0.0,5.0,5.0,548.495120019652,3.0,1.0,phase_2,go,300.0,250.0,1.0,,,,,,,,,magenta,flipped triangle
0.0,4.0,4.0,0.0,6.0,6.0,304.1631529922597,3.0,1.0,phase_2,go,300.0,250.0,1.0,,,,,,,,,green,hexagon
0.0,8.0,4.0,1.0,6.0,6.0,394.6846079779789,3.0,1.0,phase_2,stop,300.0,250.0,3.0,,,,,,,,,blue,I
0.0,7.0,3.0,1.0,5.0,5.0,350.9183690184727,3.0,1.0,phase_2,stop,300.0,200.0,3.0,,,,,,,,,yellow,square
0.0,3.0,3.0,0.0,6.0,6.0,406.2981309834867,3.0,1.0,phase_2,go,250.0,200.0,1.0,,,,,,,,,white,triangle
0.0,6.0,2.0,1.0,6.0,6.0,348.6127760261297,3.0,1.0,phase_2,stop,250.0,200.0,3.0,,,,,,,,,orange,cross
0.0,3.0,3.0,0.0,5.0,5.0,544.9619209975936,3.0,1.0,phase_2,go,250.0,150.0,1.0,,,,,,,,,white,triangle
0.0,1.0,1.0,0.0,5.0,5.0,361.7786130052991,3.0,1.0,phase_2,go,250.0,150.0,1.0,,,,,,,,,cyan,circle
0.0,7.0,3.0,1.0,6.0,6.0,364.4970059976913,3.0,1.0,phase_2,go,250.0,150.0,1.0,,,,,,,,,yellow,square
0.0,3.0,3.0,0.0,5.0,5.0,578.3843410317786,3.0,1.0,phase_2,go,250.0,150.0,1.0,,,,,,,,,white,triangle
0.0,5.0,1.0,1.0,5.0,5.0,411.6573780192993,3.0,1.0,phase_2,stop,250.0,150.0,3.0,,,,,,,,,gray,diamond
0.0,5.0,1.0,1.0,6.0,6.0,344.2253129906021,3.0,1.0,phase_2,stop,200.0,150.0,3.0,,,,,,,,,gray,diamond
0.0,5.0,1.0,1.0,5.0,5.0,257.0441919961013,3.0,1.0,phase_2,go,200.0,100.0,1.0,,,,,,,,,gray,diamond
0.0,2.0,2.0,0.0,5.0,5.0,581.3570370082743,3.0,1.0,phase_2,go,200.0,100.0,1.0,,,,,,,,,magenta,flipped triangle
0.0,6.0,2.0,1.0,5.0,5.0,513.7934550293721,3.0,1.0,phase_2,go,200.0,100.0,1.0,,,,,,,,,orange,cross
0.0,5.0,1.0,1.0,5.0,5.0,383.5644229548052,3.0,1.0,phase_2,stop,200.0,100.0,3.0,,,,,,,,,gray,diamond
0.0,7.0,3.0,1.0,6.0,6.0,619.334043993149,3.0,1.0,phase_2,go,150.0,100.0,1.0,,,,,,,,,yellow,square
0.0,4.0,4.0,0.0,5.0,5.0,326.6857469570823,3.0,1.0,phase_2,go,150.0,100.0,1.0,,,,,,,,,green,hexagon
0.0,6.0,2.0,1.0,6.0,0.0,0.0,3.0,1.0,phase_2,stop,150.0,100.0,4.0,,,,,,,,,orange,cross
0.0,2.0,2.0,0.0,5.0,5.0,295.5648530041799,3.0,1.0,phase_2,go,150.0,150.0,1.0,,,,,,,,,magenta,flipped triangle
0.0,3.0,3.0,0.0,6.0,6.0,353.9900130126625,3.0,1.0,phase_2,go,150.0,150.0,1.0,,,,,,,,,white,triangle
0.0,5.0,1.0,1.0,6.0,0.0,0.0,3.0,1.0,phase_2,stop,150.0,150.0,4.0,,,,,,,,,gray,diamond
0.0,6.0,2.0,1.0,5.0,5.0,308.4354400052689,3.0,1.0,phase_2,stop,150.0,200.0,3.0,,,,,,,,,orange,cross
0.0,6.0,2.0,1.0,5.0,0.0,0.0,3.0,1.0,phase_2,stop,100.0,200.0,4.0,,,,,,,,,orange,cross
0.0,1.0,1.0,0.0,5.0,5.0,456.1181360040791,4.0,1.0,phase_2,go,150.0,200.0,1.0,,,,,,,,,cyan,circle
0.0,8.0,4.0,1.0,6.0,0.0,0.0,4.0,1.0,phase_2,stop,150.0,200.0,4.0,,,,,,,,,blue,I
0.0,7.0,3.0,1.0,5.0,5.0,286.7652309942059,4.0,1.0,phase_2,go,150.0,250.0,1.0,,,,,,,,,yellow,square
0.0,6.0,2.0,1.0,6.0,0.0,0.0,4.0,1.0,phase_2,stop,150.0,250.0,4.0,,,,,,,,,orange,cross
0.0,8.0,4.0,1.0,6.0,6.0,376.9094829913229,4.0,1.0,phase_2,go,150.0,300.0,1.0,,,,,,,,,blue,I
0.0,6.0,2.0,1.0,5.0,5.0,491.2483069929294,4.0,1.0,phase_2,go,150.0,300.0,1.0,,,,,,,,,orange,cross
0.0,6.0,2.0,1.0,6.0,6.0,490.9526139963418,4.0,1.0,phase_2,stop,150.0,300.0,3.0,,,,,,,,,orange,cross
0.0,7.0,3.0,1.0,5.0,0.0,0.0,4.0,1.0,phase_2,stop,150.0,250.0,4.0,,,,,,,,,yellow,square
0.0,3.0,3.0,0.0,5.0,5.0,448.28100502491,4.0,1.0,phase_2,go,200.0,250.0,1.0,,,,,,,,,white,triangle
0.0,4.0,4.0,0.0,5.0,5.0,405.3984800120815,4.0,1.0,phase_2,go,200.0,250.0,1.0,,,,,,,,,green,hexagon
0.0,2.0,2.0,0.0,5.0,5.0,441.2632440216839,4.0,1.0,phase_2,go,200.0,250.0,1.0,,,,,,,,,magenta,flipped triangle
0.0,6.0,2.0,1.0,5.0,5.0,441.9457969488576,4.0,1.0,phase_2,stop,200.0,250.0,3.0,,,,,,,,,orange,cross
0.0,1.0,1.0,0.0,5.0,5.0,635.6232539983466,4.0,1.0,phase_2,go,150.0,250.0,1.0,,,,,,,,,cyan,circle
0.0,5.0,1.0,1.0,6.0,6.0,354.3949089944362,4.0,1.0,phase_2,stop,150.0,250.0,3.0,,,,,,,,,gray,diamond
0.0,4.0,4.0,0.0,6.0,6.0,486.8990709655918,4.0,1.0,phase_2,go,150.0,200.0,1.0,,,,,,,,,green,hexagon
0.0,1.0,1.0,0.0,5.0,5.0,490.1704659569077,4.0,1.0,phase_2,go,150.0,200.0,1.0,,,,,,,,,cyan,circle
0.0,1.0,1.0,0.0,6.0,6.0,333.2742430502549,4.0,1.0,phase_2,go,150.0,200.0,1.0,,,,,,,,,cyan,circle
0.0,1.0,1.0,0.0,5.0,5.0,369.7089189663529,4.0,1.0,phase_2,go,150.0,200.0,1.0,,,,,,,,,cyan,circle
0.0,2.0,2.0,0.0,6.0,6.0,344.1064789658412,4.0,1.0,phase_2,go,150.0,200.0,1.0,,,,,,,,,magenta,flipped triangle
0.0,1.0,1.0,0.0,5.0,5.0,535.6075629824772,4.0,1.0,phase_2,go,150.0,200.0,1.0,,,,,,,,,cyan,circle
0.0,1.0,1.0,0.0,5.0,5.0,495.0571800000034,4.0,1.0,phase_2,go,150.0,200.0,1.0,,,,,,,,,cyan,circle
0.0,7.0,3.0,1.0,5.0,0.0,0.0,4.0,1.0,phase_2,stop,150.0,200.0,4.0,,,,,,,,,yellow,square
0.0,7.0,3.0,1.0,6.0,6.0,406.731721945107,4.0,1.0,phase_2,stop,200.0,200.0,3.0,,,,,,,,,yellow,square
0.0,6.0,2.0,1.0,6.0,0.0,0.0,4.0,1.0,phase_2,stop,200.0,150.0,4.0,,,,,,,,,orange,cross
0.0,1.0,1.0,0.0,5.0,5.0,386.3238120102323,4.0,1.0,phase_2,go,200.0,200.0,1.0,,,,,,,,,cyan,circle
0.0,7.0,3.0,1.0,6.0,0.0,0.0,4.0,1.0,phase_2,stop,200.0,200.0,4.0,,,,,,,,,yellow,square
0.0,8.0,4.0,1.0,5.0,0.0,0.0,4.0,1.0,phase_2,stop,200.0,250.0,4.0,,,,,,,,,blue,I
0.0,8.0,4.0,1.0,5.0,5.0,512.2736769844778,4.0,1.0,phase_2,go,250.0,250.0,1.0,,,,,,,,,blue,I
0.0,5.0,1.0,1.0,5.0,5.0,434.0986020397395,4.0,1.0,phase_2,stop,250.0,250.0,3.0,,,,,,,,,gray,diamond
0.0,8.0,4.0,1.0,6.0,6.0,423.5619460232556,4.0,1.0,phase_2,stop,200.0,250.0,3.0,,,,,,,,,blue,I
0.0,7.0,3.0,1.0,6.0,6.0,578.8448880193755,4.0,1.0,phase_2,go,200.0,200.0,1.0,,,,,,,,,yellow,square
0.0,7.0,3.0,1.0,6.0,0.0,0.0,4.0,1.0,phase_2,stop,200.0,200.0,4.0,,,,,,,,,yellow,square
0.0,5.0,1.0,1.0,5.0,5.0,392.8670630557462,4.0,1.0,phase_2,stop,200.0,250.0,3.0,,,,,,,,,gray,diamond
0.0,5.0,1.0,1.0,5.0,0.0,0.0,4.0,1.0,phase_2,stop,150.0,250.0,4.0,,,,,,,,,gray,diamond
0.0,1.0,1.0,0.0,6.0,6.0,514.6698460448533,4.0,1.0,phase_2,go,200.0,250.0,1.0,,,,,,,,,cyan,circle
0.0,5.0,1.0,1.0,6.0,0.0,0.0,4.0,1.0,phase_2,stop,200.0,250.0,4.0,,,,,,,,,gray,diamond
0.0,3.0,3.0,0.0,5.0,5.0,490.8009500359185,5.0,1.0,phase_2,go,200.0,300.0,1.0,,,,,,,,,white,triangle
0.0,3.0,3.0,0.0,6.0,6.0,322.6622230140492,5.0,1.0,phase_2,go,200.0,300.0,1.0,,,,,,,,,white,triangle
0.0,1.0,1.0,0.0,6.0,6.0,401.8142109853215,5.0,1.0,phase_2,go,200.0,300.0,1.0,,,,,,,,,cyan,circle
0.0,2.0,2.0,0.0,5.0,5.0,391.7895749909803,5.0,1.0,phase_2,go,200.0,300.0,1.0,,,,,,,,,magenta,flipped triangle
0.0,6.0,2.0,1.0,6.0,6.0,418.4992680093273,5.0,1.0,phase_2,stop,200.0,300.0,3.0,,,,,,,,,orange,cross
0.0,2.0,2.0,0.0,6.0,6.0,519.7464230004698,5.0,1.0,phase_2,go,200.0,250.0,1.0,,,,,,,,,magenta,flipped triangle
0.0,5.0,1.0,1.0,5.0,5.0,249.0692210267298,5.0,1.0,phase_2,go,200.0,250.0,1.0,,,,,,,,,gray,diamond
0.0,3.0,3.0,0.0,6.0,6.0,375.7424929644912,5.0,1.0,phase_2,go,200.0,250.0,1.0,,,,,,,,,white,triangle
0.0,3.0,3.0,0.0,5.0,5.0,309.526662051212,5.0,1.0,phase_2,go,200.0,250.0,1.0,,,,,,,,,white,triangle
0.0,4.0,4.0,0.0,6.0,6.0,306.7713740165345,5.0,1.0,phase_2,go,200.0,250.0,1.0,,,,,,,,,green,hexagon
0.0,1.0,1.0,0.0,6.0,6.0,377.9900200315751,5.0,1.0,phase_2,go,200.0,250.0,1.0,,,,,,,,,cyan,circle
0.0,3.0,3.0,0.0,5.0,5.0,274.8410750064067,5.0,1.0,phase_2,go,200.0,250.0,1.0,,,,,,,,,white,triangle
0.0,5.0,1.0,1.0,5.0,5.0,320.9506890270859,5.0,1.0,phase_2,stop,200.0,250.0,3.0,,,,,,,,,gray,diamond
0.0,3.0,3.0,0.0,6.0,6.0,370.1377420220524,5.0,1.0,phase_2,go,150.0,250.0,1.0,,,,,,,,,white,triangle
0.0,7.0,3.0,1.0,5.0,5.0,323.4408620046451,5.0,1.0,phase_2,stop,150.0,250.0,3.0,,,,,,,,,yellow,square
0.0,5.0,1.0,1.0,5.0,0.0,0.0,5.0,1.0,phase_2,stop,100.0,250.0,4.0,,,,,,,,,gray,diamond
0.0,2.0,2.0,0.0,5.0,5.0,507.8726830543019,5.0,1.0,phase_2,go,150.0,250.0,1.0,,,,,,,,,magenta,flipped triangle
0.0,1.0,1.0,0.0,6.0,6.0,315.9837910206988,5.0,1.0,phase_2,go,150.0,250.0,1.0,,,,,,,,,cyan,circle
0.0,8.0,4.0,1.0,5.0,5.0,383.3010079688392,5.0,1.0,phase_2,go,150.0,250.0,1.0,,,,,,,,,blue,I
0.0,2.0,2.0,0.0,6.0,6.0,363.0675699678249,5.0,1.0,phase_2,go,150.0,250.0,1.0,,,,,,,,,magenta,flipped triangle
0.0,2.0,2.0,0.0,5.0,5.0,319.3547520204447,5.0,1.0,phase_2,go,150.0,250.0,1.0,,,,,,,,,magenta,flipped triangle
0.0,8.0,4.0,1.0,5.0,5.0,293.7189200310968,5.0,1.0,phase_2,stop,150.0,250.0,3.0,,,,,,,,,blue,I
0.0,6.0,2.0,1.0,6.0,6.0,308.280719036702,5.0,1.0,phase_2,stop,100.0,250.0,3.0,,,,,,,,,orange,cross
0.0,2.0,2.0,0.0,6.0,6.0,554.1984779993072,5.0,1.0,phase_2,go,100.0,200.0,1.0,,,,,,,,,magenta,flipped triangle
0.0,2.0,2.0,0.0,5.0,5.0,399.8053609975613,5.0,1.0,phase_2,go,100.0,200.0,1.0,,,,,,,,,magenta,flipped triangle
0.0,4.0,4.0,0.0,5.0,5.0,365.2884199982509,5.0,1.0,phase_2,go,100.0,200.0,1.0,,,,,,,,,green,hexagon
0.0,3.0,3.0,0.0,5.0,5.0,355.8655540109612,5.0,1.0,phase_2,go,100.0,200.0,1.0,,,,,,,,,white,triangle
0.0,1.0,1.0,0.0,5.0,5.0,265.4370670206845,5.0,1.0,phase_2,go,100.0,200.0,1.0,,,,,,,,,cyan,circle
0.0,7.0,3.0,1.0,6.0,6.0,426.86708801193157,5.0,1.0,phase_2,go,100.0,200.0,1.0,,,,,,,,,yellow,square
0.0,5.0,1.0,1.0,6.0,6.0,390.6472059898078,5.0,1.0,phase_2,stop,100.0,200.0,3.0,,,,,,,,,gray,diamond
0.0,3.0,3.0,0.0,6.0,6.0,481.9215669995174,5.0,1.0,phase_2,go,100.0,150.0,1.0,,,,,,,,,white,triangle
0.0,4.0,4.0,0.0,6.0,6.0,326.8493569921702,5.0,1.0,phase_2,go,100.0,150.0,1.0,,,,,,,,,green,hexagon
0.0,3.0,3.0,0.0,5.0,5.0,498.0063200346194,5.0,1.0,phase_2,go,100.0,150.0,1.0,,,,,,,,,white,triangle
0.0,2.0,2.0,0.0,6.0,6.0,316.5737839881331,5.0,1.0,phase_2,go,100.0,150.0,1.0,,,,,,,,,magenta,flipped triangle
0.0,4.0,4.0,0.0,5.0,5.0,349.504766985774,5.0,1.0,phase_2,go,100.0,150.0,1.0,,,,,,,,,green,hexagon
0.0,7.0,3.0,1.0,5.0,0.0,0.0,5.0,1.0,phase_2,stop,100.0,150.0,4.0,,,,,,,,,yellow,square
0.0,8.0,4.0,1.0,5.0,5.0,449.6392690343782,6.0,1.0,phase_2,stop,150.0,150.0,3.0,,,,,,,,,blue,I
0.0,3.0,3.0,0.0,6.0,6.0,270.1223389594815,6.0,1.0,phase_2,go,100.0,150.0,1.0,,,,,,,,,white,triangle
0.0,4.0,4.0,0.0,5.0,5.0,528.0079009826295,6.0,1.0,phase_2,go,100.0,150.0,1.0,,,,,,,,,green,hexagon
0.0,2.0,2.0,0.0,5.0,5.0,552.2658069967292,6.0,1.0,phase_2,go,100.0,150.0,1.0,,,,,,,,,magenta,flipped triangle
0.0,4.0,4.0,0.0,5.0,5.0,405.9250160353258,6.0,1.0,phase_2,go,100.0,150.0,1.0,,,,,,,,,green,hexagon
0.0,3.0,3.0,0.0,6.0,6.0,365.5163060175255,6.0,1.0,phase_2,go,100.0,150.0,1.0,,,,,,,,,white,triangle
0.0,8.0,4.0,1.0,5.0,5.0,297.3595829680562,6.0,1.0,phase_2,stop,100.0,150.0,3.0,,,,,,,,,blue,I
0.0,7.0,3.0,1.0,5.0,0.0,0.0,6.0,1.0,phase_2,stop,50.0,150.0,4.0,,,,,,,,,yellow,square
0.0,8.0,4.0,1.0,6.0,6.0,330.7587020099163,6.0,1.0,phase_2,stop,100.0,150.0,3.0,,,,,,,,,blue,I
0.0,4.0,4.0,0.0,5.0,5.0,398.4612170024775,6.0,1.0,phase_2,go,100.0,100.0,1.0,,,,,,,,,green,hexagon
0.0,6.0,2.0,1.0,6.0,0.0,0.0,6.0,1.0,phase_2,stop,100.0,100.0,4.0,,,,,,,,,orange,cross
0.0,8.0,4.0,1.0,6.0,0.0,0.0,6.0,1.0,phase_2,stop,100.0,150.0,4.0,,,,,,,,,blue,I
0.0,1.0,1.0,0.0,5.0,5.0,459.2693449812941,6.0,1.0,phase_2,go,100.0,200.0,1.0,,,,,,,,,cyan,circle
0.0,5.0,1.0,1.0,6.0,0.0,0.0,6.0,1.0,phase_2,stop,100.0,200.0,4.0,,,,,,,,,gray,diamond
0.0,3.0,3.0,0.0,6.0,6.0,527.4965529679321,6.0,1.0,phase_2,go,100.0,250.0,1.0,,,,,,,,,white,triangle
0.0,8.0,4.0,1.0,5.0,0.0,0.0,6.0,1.0,phase_2,stop,100.0,250.0,4.0,,,,,,,,,blue,I
0.0,5.0,1.0,1.0,5.0,5.0,577.0840609911829,6.0,1.0,phase_2,go,150.0,250.0,1.0,,,,,,,,,gray,diamond
0.0,6.0,2.0,1.0,6.0,6.0,520.7527169841342,6.0,1.0,phase_2,stop,150.0,250.0,3.0,,,,,,,,,orange,cross
0.0,1.0,1.0,0.0,5.0,5.0,598.1995059992187,6.0,1.0,phase_2,go,150.0,200.0,1.0,,,,,,,,,cyan,circle
0.0,6.0,2.0,1.0,5.0,0.0,0.0,6.0,1.0,phase_2,stop,150.0,200.0,4.0,,,,,,,,,orange,cross
0.0,6.0,2.0,1.0,5.0,5.0,635.7652610167861,6.0,1.0,phase_2,go,200.0,200.0,1.0,,,,,,,,,orange,cross
0.0,8.0,4.0,1.0,6.0,0.0,0.0,6.0,1.0,phase_2,stop,200.0,200.0,4.0,,,,,,,,,blue,I
0.0,5.0,1.0,1.0,5.0,0.0,0.0,6.0,1.0,phase_2,stop,200.0,250.0,4.0,,,,,,,,,gray,diamond
0.0,8.0,4.0,1.0,6.0,6.0,321.8273179954849,6.0,1.0,phase_2,stop,250.0,250.0,3.0,,,,,,,,,blue,I
0.0,1.0,1.0,0.0,6.0,6.0,478.6848020157777,6.0,1.0,phase_2,go,250.0,200.0,1.0,,,,,,,,,cyan,circle
0.0,3.0,3.0,0.0,6.0,6.0,422.7683669887483,6.0,1.0,phase_2,go,250.0,200.0,1.0,,,,,,,,,white,triangle
0.0,2.0,2.0,0.0,6.0,6.0,412.8660019487142,6.0,1.0,phase_2,go,250.0,200.0,1.0,,,,,,,,,magenta,flipped triangle
0.0,5.0,1.0,1.0,6.0,6.0,391.5250860154629,6.0,1.0,phase_2,stop,250.0,200.0,3.0,,,,,,,,,gray,diamond
0.0,2.0,2.0,0.0,6.0,6.0,492.9792009643279,6.0,1.0,phase_2,go,250.0,150.0,1.0,,,,,,,,,magenta,flipped triangle
0.0,5.0,1.0,1.0,6.0,0.0,0.0,6.0,1.0,phase_2,stop,250.0,150.0,4.0,,,,,,,,,gray,diamond
0.0,3.0,3.0,0.0,5.0,5.0,362.8957120236009,6.0,1.0,phase_2,go,250.0,200.0,1.0,,,,,,,,,white,triangle
0.0,7.0,3.0,1.0,6.0,0.0,0.0,6.0,1.0,phase_2,stop,250.0,200.0,4.0,,,,,,,,,yellow,square
0.0,5.0,1.0,1.0,5.0,5.0,431.6029750043526,6.0,1.0,phase_2,go,250.0,250.0,1.0,,,,,,,,,gray,diamond
0.0,2.0,2.0,0.0,5.0,5.0,365.7297110185027,6.0,1.0,phase_2,go,250.0,250.0,1.0,,,,,,,,,magenta,flipped triangle
0.0,5.0,1.0,1.0,6.0,0.0,0.0,6.0,1.0,phase_2,stop,250.0,250.0,4.0,,,,,,,,,gray,diamond
0.0,8.0,4.0,1.0,5.0,5.0,356.4205990405753,6.0,1.0,phase_2,stop,250.0,300.0,3.0,,,,,,,,,blue,I
0.0,7.0,3.0,1.0,6.0,6.0,258.9254569611512,7.0,1.0,phase_2,go,200.0,300.0,1.0,,,,,,,,,yellow,square
0.0,6.0,2.0,1.0,6.0,6.0,335.1916840183548,7.0,1.0,phase_2,stop,200.0,300.0,3.0,,,,,,,,,orange,cross
0.0,4.0,4.0,0.0,5.0,5.0,304.18014101451257,7.0,1.0,phase_2,go,200.0,250.0,1.0,,,,,,,,,green,hexagon
0.0,1.0,1.0,0.0,6.0,6.0,349.0391270024702,7.0,1.0,phase_2,go,200.0,250.0,1.0,,,,,,,,,cyan,circle
0.0,6.0,2.0,1.0,6.0,6.0,317.3139119753614,7.0,1.0,phase_2,stop,200.0,250.0,3.0,,,,,,,,,orange,cross
0.0,2.0,2.0,0.0,6.0,6.0,453.9206630433909,7.0,1.0,phase_2,go,200.0,200.0,1.0,,,,,,,,,magenta,flipped triangle
0.0,7.0,3.0,1.0,6.0,0.0,0.0,7.0,1.0,phase_2,stop,200.0,200.0,4.0,,,,,,,,,yellow,square
0.0,5.0,1.0,1.0,6.0,6.0,388.4742509690113,7.0,1.0,phase_2,stop,200.0,250.0,3.0,,,,,,,,,gray,diamond
0.0,5.0,1.0,1.0,5.0,0.0,0.0,7.0,1.0,phase_2,stop,200.0,200.0,4.0,,,,,,,,,gray,diamond
0.0,2.0,2.0,0.0,6.0,6.0,502.55723000736907,7.0,1.0,phase_2,go,250.0,200.0,1.0,,,,,,,,,magenta,flipped triangle
0.0,6.0,2.0,1.0,6.0,0.0,0.0,7.0,1.0,phase_2,stop,250.0,200.0,4.0,,,,,,,,,orange,cross
0.0,1.0,1.0,0.0,5.0,5.0,548.5254129744135,7.0,1.0,phase_2,go,250.0,250.0,1.0,,,,,,,,,cyan,circle
0.0,3.0,3.0,0.0,5.0,5.0,669.4665430113673,7.0,1.0,phase_2,go,250.0,250.0,1.0,,,,,,,,,white,triangle
0.0,1.0,1.0,0.0,6.0,6.0,492.954493034631,7.0,1.0,phase_2,go,250.0,250.0,1.0,,,,,,,,,cyan,circle
0.0,6.0,2.0,1.0,6.0,6.0,457.5135359773412,7.0,1.0,phase_2,stop,250.0,250.0,3.0,,,,,,,,,orange,cross
0.0,6.0,2.0,1.0,5.0,5.0,552.284560049884,7.0,1.0,phase_2,go,250.0,200.0,1.0,,,,,,,,,orange,cross
0.0,4.0,4.0,0.0,5.0,5.0,474.041166016832,7.0,1.0,phase_2,go,250.0,200.0,1.0,,,,,,,,,green,hexagon
0.0,8.0,4.0,1.0,5.0,5.0,664.2505229683593,7.0,1.0,phase_2,go,250.0,200.0,1.0,,,,,,,,,blue,I
0.0,2.0,2.0,0.0,5.0,5.0,508.0989570124075,7.0,1.0,phase_2,go,250.0,200.0,1.0,,,,,,,,,magenta,flipped triangle
0.0,3.0,3.0,0.0,6.0,6.0,506.5158380311914,7.0,1.0,phase_2,go,250.0,200.0,1.0,,,,,,,,,white,triangle
0.0,8.0,4.0,1.0,5.0,5.0,431.393971957732,7.0,1.0,phase_2,stop,250.0,200.0,3.0,,,,,,,,,blue,I
0.0,7.0,3.0,1.0,6.0,6.0,341.3778379908763,7.0,1.0,phase_2,stop,200.0,200.0,3.0,,,,,,,,,yellow,square
0.0,4.0,4.0,0.0,6.0,6.0,522.4698609672487,7.0,1.0,phase_2,go,200.0,150.0,1.0,,,,,,,,,green,hexagon
0.0,4.0,4.0,0.0,5.0,5.0,467.3344690236263,7.0,1.0,phase_2,go,200.0,150.0,1.0,,,,,,,,,green,hexagon
0.0,7.0,3.0,1.0,6.0,0.0,0.0,7.0,1.0,phase_2,stop,200.0,150.0,4.0,,,,,,,,,yellow,square
0.0,8.0,4.0,1.0,6.0,0.0,0.0,7.0,1.0,phase_2,stop,200.0,200.0,4.0,,,,,,,,,blue,I
0.0,4.0,4.0,0.0,6.0,6.0,583.5663300240412,7.0,1.0,phase_2,go,200.0,250.0,1.0,,,,,,,,,green,hexagon
0.0,6.0,2.0,1.0,5.0,0.0,0.0,7.0,1.0,phase_2,stop,200.0,250.0,4.0,,,,,,,,,orange,cross
0.0,6.0,2.0,1.0,5.0,5.0,515.1688290061429,7.0,1.0,phase_2,go,250.0,250.0,1.0,,,,,,,,,orange,cross
0.0,8.0,4.0,1.0,5.0,5.0,417.9064520285465,7.0,1.0,phase_2,stop,250.0,250.0,3.0,,,,,,,,,blue,I
0.0,2.0,2.0,0.0,6.0,6.0,381.3686450012028,7.0,1.0,phase_2,go,200.0,250.0,1.0,,,,,,,,,magenta,flipped triangle
0.0,8.0,4.0,1.0,5.0,0.0,0.0,7.0,1.0,phase_2,stop,200.0,250.0,4.0,,,,,,,,,blue,I
0.0,5.0,1.0,1.0,6.0,6.0,419.47197902482,7.0,1.0,phase_2,stop,250.0,250.0,3.0,,,,,,,,,gray,diamond
0.0,7.0,3.0,1.0,5.0,0.0,0.0,7.0,1.0,phase_2,stop,250.0,200.0,4.0,,,,,,,,,yellow,square
0.0,5.0,1.0,1.0,6.0,6.0,530.8319890173152,7.0,1.0,phase_2,go,300.0,200.0,1.0,,,,,,,,,gray,diamond
0.0,1.0,1.0,0.0,5.0,5.0,422.2361629945226,7.0,1.0,phase_2,go,300.0,200.0,1.0,,,,,,,,,cyan,circle
0.0,8.0,4.0,1.0,6.0,6.0,339.4117809948511,8.0,1.0,phase_2,stop,300.0,200.0,3.0,,,,,,,,,blue,I
0.0,8.0,4.0,1.0,6.0,6.0,328.5580039955675,8.0,1.0,phase_2,go,300.0,150.0,1.0,,,,,,,,,blue,I
0.0,8.0,4.0,1.0,5.0,5.0,345.0528949615545,8.0,1.0,phase_2,stop,300.0,150.0,3.0,,,,,,,,,blue,I
0.0,7.0,3.0,1.0,5.0,0.0,0.0,8.0,1.0,phase_2,stop,250.0,150.0,4.0,,,,,,,,,yellow,square
0.0,1.0,1.0,0.0,6.0,6.0,424.4590169982984,8.0,1.0,phase_2,go,300.0,150.0,1.0,,,,,,,,,cyan,circle
0.0,2.0,2.0,0.0,6.0,6.0,527.9195039765909,8.0,1.0,phase_2,go,300.0,150.0,1.0,,,,,,,,,magenta,flipped triangle
0.0,3.0,3.0,0.0,5.0,5.0,382.0655029849149,8.0,1.0,phase_2,go,300.0,150.0,1.0,,,,,,,,,white,triangle
0.0,8.0,4.0,1.0,6.0,0.0,0.0,8.0,1.0,phase_2,stop,300.0,150.0,4.0,,,,,,,,,blue,I
0.0,5.0,1.0,1.0,6.0,0.0,0.0,8.0,1.0,phase_2,stop,300.0,200.0,4.0,,,,,,,,,gray,diamond
0.0,6.0,2.0,1.0,6.0,0.0,0.0,8.0,1.0,phase_2,stop,300.0,250.0,4.0,,,,,,,,,orange,cross
0.0,5.0,1.0,1.0,5.0,5.0,282.6975559582934,8.0,1.0,phase_2,go,300.0,300.0,1.0,,,,,,,,,gray,diamond
0.0,1.0,1.0,0.0,6.0,6.0,349.0747600444592,8.0,1.0,phase_2,go,300.0,300.0,1.0,,,,,,,,,cyan,circle
0.0,4.0,4.0,0.0,6.0,6.0,387.4180430429987,8.0,1.0,phase_2,go,300.0,300.0,1.0,,,,,,,,,green,hexagon
0.0,6.0,2.0,1.0,6.0,6.0,387.5583909684792,8.0,1.0,phase_2,stop,300.0,300.0,3.0,,,,,,,,,orange,cross
0.0,4.0,4.0,0.0,6.0,6.0,339.8012749967165,8.0,1.0,phase_2,go,300.0,250.0,1.0,,,,,,,,,green,hexagon
0.0,7.0,3.0,1.0,6.0,0.0,0.0,8.0,1.0,phase_2,stop,300.0,250.0,4.0,,,,,,,,,yellow,square
0.0,3.0,3.0,0.0,5.0,5.0,412.0707080001011,8.0,1.0,phase_2,go,300.0,300.0,1.0,,,,,,,,,white,triangle
0.0,7.0,3.0,1.0,5.0,5.0,364.3366349861026,8.0,1.0,phase_2,stop,300.0,300.0,3.0,,,,,,,,,yellow,square
0.0,7.0,3.0,1.0,6.0,0.0,0.0,8.0,1.0,phase_2,stop,250.0,300.0,4.0,,,,,,,,,yellow,square
0.0,4.0,4.0,0.0,5.0,5.0,437.9489459679462,8.0,1.0,phase_2,go,250.0,350.0,1.0,,,,,,,,,green,hexagon
0.0,2.0,2.0,0.0,6.0,6.0,594.4293439970352,8.0,1.0,phase_2,go,250.0,350.0,1.0,,,,,,,,,magenta,flipped triangle
0.0,7.0,3.0,1.0,6.0,6.0,593.147054023575,8.0,1.0,phase_2,go,250.0,350.0,1.0,,,,,,,,,yellow,square
0.0,3.0,3.0,0.0,6.0,6.0,448.0863700155169,8.0,1.0,phase_2,go,250.0,350.0,1.0,,,,,,,,,white,triangle
0.0,6.0,2.0,1.0,6.0,6.0,361.4212829852476,8.0,1.0,phase_2,go,250.0,350.0,1.0,,,,,,,,,orange,cross
0.0,5.0,1.0,1.0,6.0,6.0,349.850014958065,8.0,1.0,phase_2,stop,250.0,350.0,3.0,,,,,,,,,gray,diamond
0.0,2.0,2.0,0.0,5.0,5.0,531.359035987407,8.0,1.0,phase_2,go,250.0,300.0,1.0,,,,,,,,,magenta,flipped triangle
0.0,6.0,2.0,1.0,5.0,5.0,417.54672100069,8.0,1.0,phase_2,stop,250.0,300.0,3.0,,,,,,,,,orange,cross
0.0,4.0,4.0,0.0,5.0,5.0,497.4196490366012,8.0,1.0,phase_2,go,200.0,300.0,1.0,,,,,,,,,green,hexagon
0.0,3.0,3.0,0.0,6.0,6.0,478.1976899830624,8.0,1.0,phase_2,go,200.0,300.0,1.0,,,,,,,,,white,triangle
0.0,3.0,3.0,0.0,5.0,5.0,420.6883830484003,8.0,1.0,phase_2,go,200.0,300.0,1.0,,,,,,,,,white,triangle
0.0,6.0,2.0,1.0,5.0,5.0,378.1479540048167,8.0,1.0,phase_2,go,200.0,300.0,1.0,,,,,,,,,orange,cross
0.0,3.0,3.0,0.0,5.0,5.0,649.8998110182583,8.0,1.0,phase_2,go,200.0,300.0,1.0,,,,,,,,,white,triangle
0.0,2.0,2.0,0.0,6.0,6.0,447.8441349929198,8.0,1.0,phase_2,go,200.0,300.0,1.0,,,,,,,,,magenta,flipped triangle
0.0,7.0,3.0,1.0,5.0,5.0,312.2798550175503,8.0,1.0,phase_2,stop,200.0,300.0,3.0,,,,,,,,,yellow,square
0.0,1.0,1.0,0.0,5.0,5.0,619.2949230317026,8.0,1.0,phase_2,go,150.0,300.0,1.0,,,,,,,,,cyan,circle
0.0,8.0,4.0,1.0,6.0,0.0,0.0,8.0,1.0,phase_2,stop,150.0,300.0,4.0,,,,,,,,,blue,I
0.0,2.0,2.0,0.0,7.0,5.0,2380.733564030379,1.0,1.0,phase_3,,,,,234.0,6.0,117.0,195.0,39.0,78.0,234.0,156.0,magenta,flipped triangle
0.0,4.0,4.0,0.0,7.0,5.0,2722.9311380069703,1.0,1.0,phase_3,,,,,204.0,6.0,102.0,68.0,136.0,170.0,204.0,34.0,green,hexagon
0.0,7.0,3.0,1.0,7.0,2.0,3546.682244981639,1.0,1.0,phase_3,,,,,102.0,3.0,170.0,102.0,136.0,204.0,34.0,68.0,yellow,square
0.0,8.0,4.0,1.0,7.0,5.0,1993.9478309825065,1.0,1.0,phase_3,,,,,117.0,3.0,78.0,234.0,156.0,39.0,117.0,195.0,blue,I
0.0,6.0,2.0,1.0,7.0,6.0,2730.1202819799078,1.0,1.0,phase_3,,,,,156.0,4.0,117.0,195.0,78.0,39.0,234.0,156.0,orange,cross
0.0,3.0,3.0,0.0,7.0,6.0,2122.7176169632003,1.0,1.0,phase_3,,,,,220.0,5.0,44.0,132.0,176.0,264.0,88.0,220.0,white,triangle
0.0,5.0,1.0,1.0,7.0,3.0,3957.988278008997,1.0,1.0,phase_3,,,,,216.0,4.0,324.0,162.0,216.0,270.0,108.0,54.0,gray,diamond
0.0,6.0,2.0,1.0,7.0,5.0,3670.726557029411,1.0,1.0,phase_3,,,,,136.0,4.0,170.0,204.0,102.0,34.0,136.0,68.0,orange,cross
0.0,2.0,2.0,0.0,7.0,2.0,2972.7252760203555,1.0,1.0,phase_3,,,,,264.0,6.0,132.0,264.0,220.0,44.0,88.0,176.0,magenta,flipped triangle
0.0,2.0,2.0,0.0,7.0,3.0,2369.1667689708997,1.0,1.0,phase_3,,,,,220.0,5.0,44.0,264.0,220.0,176.0,88.0,132.0,magenta,flipped triangle
0.0,5.0,1.0,1.0,7.0,6.0,2479.946054983884,1.0,1.0,phase_3,,,,,264.0,6.0,132.0,44.0,176.0,88.0,220.0,264.0,gray,diamond
0.0,6.0,2.0,1.0,7.0,5.0,3662.694436963648,1.0,1.0,phase_3,,,,,220.0,5.0,44.0,88.0,264.0,132.0,220.0,176.0,orange,cross
0.0,1.0,1.0,0.0,7.0,2.0,2099.22250197269,1.0,1.0,phase_3,,,,,234.0,6.0,117.0,234.0,195.0,78.0,156.0,39.0,cyan,circle
0.0,8.0,4.0,1.0,7.0,5.0,3452.4137870175764,1.0,1.0,phase_3,,,,,132.0,3.0,264.0,176.0,44.0,88.0,132.0,220.0,blue,I
0.0,3.0,3.0,0.0,7.0,2.0,2307.8309850534424,1.0,1.0,phase_3,,,,,204.0,6.0,34.0,204.0,170.0,102.0,136.0,68.0,white,triangle
0.0,5.0,1.0,1.0,7.0,5.0,2891.7168299667537,1.0,1.0,phase_3,,,,,68.0,2.0,102.0,34.0,204.0,136.0,68.0,170.0,gray,diamond
0.0,3.0,3.0,0.0,7.0,2.0,2442.9146889597178,1.0,1.0,phase_3,,,,,216.0,4.0,270.0,216.0,108.0,324.0,162.0,54.0,white,triangle
0.0,7.0,3.0,1.0,7.0,1.0,3650.486494007055,1.0,1.0,phase_3,,,,,88.0,2.0,88.0,176.0,220.0,264.0,132.0,44.0,yellow,square
0.0,6.0,2.0,1.0,7.0,1.0,3794.9478970258497,1.0,1.0,phase_3,,,,,108.0,2.0,108.0,54.0,324.0,216.0,162.0,270.0,orange,cross
0.0,1.0,1.0,0.0,7.0,1.0,4326.743898040149,1.0,1.0,phase_3,,,,,132.0,3.0,132.0,176.0,88.0,220.0,44.0,264.0,cyan,circle
0.0,2.0,2.0,0.0,7.0,3.0,2061.9186559924856,2.0,1.0,phase_3,,,,,204.0,6.0,102.0,34.0,204.0,136.0,170.0,68.0,magenta,flipped triangle
0.0,3.0,3.0,0.0,7.0,4.0,2532.200876972638,2.0,1.0,phase_3,,,,,147.0,3.0,294.0,98.0,49.0,147.0,196.0,245.0,white,triangle
0.0,2.0,2.0,0.0,7.0,2.0,3647.519809019286,2.0,1.0,phase_3,,,,,162.0,3.0,108.0,162.0,54.0,216.0,270.0,324.0,magenta,flipped triangle
0.0,6.0,2.0,1.0,7.0,3.0,2916.495880985167,2.0,1.0,phase_3,,,,,88.0,2.0,176.0,132.0,88.0,264.0,44.0,220.0,orange,cross
0.0,8.0,4.0,1.0,7.0,4.0,2974.695880955551,2.0,1.0,phase_3,,,,,324.0,6.0,270.0,108.0,54.0,324.0,162.0,216.0,blue,I
0.0,5.0,1.0,1.0,7.0,6.0,3080.0227249856107,2.0,1.0,phase_3,,,,,132.0,3.0,44.0,264.0,176.0,88.0,220.0,132.0,gray,diamond
0.0,8.0,4.0,1.0,7.0,4.0,4249.330580991227,2.0,1.0,phase_3,,,,,204.0,6.0,102.0,68.0,170.0,204.0,34.0,136.0,blue,I
0.0,4.0,4.0,0.0,7.0,2.0,3144.8807929991744,2.0,1.0,phase_3,,,,,170.0,5.0,68.0,170.0,204.0,34.0,102.0,136.0,green,hexagon
0.0,7.0,3.0,1.0,7.0,6.0,2293.285906955134,2.0,1.0,phase_3,,,,,98.0,2.0,147.0,196.0,294.0,49.0,245.0,98.0,yellow,square
0.0,7.0,3.0,1.0,7.0,2.0,2767.76883204002,2.0,1.0,phase_3,,,,,195.0,5.0,156.0,195.0,78.0,117.0,39.0,234.0,yellow,square
0.0,7.0,3.0,1.0,7.0,4.0,3496.903933002613,2.0,1.0,phase_3,,,,,156.0,4.0,195.0,78.0,234.0,156.0,39.0,117.0,yellow,square
0.0,1.0,1.0,0.0,7.0,5.0,3847.276556014549,2.0,1.0,phase_3,,,,,245.0,5.0,98.0,294.0,147.0,196.0,245.0,49.0,cyan,circle
0.0,4.0,4.0,0.0,7.0,2.0,3535.812518035528,2.0,1.0,phase_3,,,,,216.0,4.0,324.0,216.0,162.0,270.0,108.0,54.0,green,hexagon
0.0,8.0,4.0,1.0,7.0,1.0,3578.3965929877013,2.0,1.0,phase_3,,,,,195.0,5.0,195.0,39.0,156.0,117.0,234.0,78.0,blue,I
0.0,3.0,3.0,0.0,7.0,6.0,1666.626382037066,2.0,1.0,phase_3,,,,,88.0,2.0,176.0,220.0,44.0,132.0,264.0,88.0,white,triangle
0.0,3.0,3.0,0.0,7.0,6.0,2582.730319991242,2.0,1.0,phase_3,,,,,78.0,2.0,39.0,234.0,156.0,195.0,117.0,78.0,white,triangle
0.0,4.0,4.0,0.0,7.0,4.0,3266.690126969479,2.0,1.0,phase_3,,,,,162.0,3.0,54.0,216.0,270.0,162.0,324.0,108.0,green,hexagon
0.0,6.0,2.0,1.0,7.0,6.0,3256.4977920264937,2.0,1.0,phase_3,,,,,245.0,5.0,98.0,294.0,147.0,196.0,49.0,245.0,orange,cross
0.0,1.0,1.0,0.0,7.0,1.0,3235.7103260001168,2.0,1.0,phase_3,,,,,117.0,3.0,117.0,78.0,156.0,39.0,195.0,234.0,cyan,circle
0.0,2.0,2.0,0.0,7.0,5.0,3406.633567006793,2.0,1.0,phase_3,,,,,195.0,5.0,156.0,39.0,117.0,234.0,195.0,78.0,magenta,flipped triangle
0.0,5.0,1.0,1.0,7.0,3.0,1502.9521799879149,3.0,1.0,phase_3,,,,,102.0,3.0,204.0,136.0,102.0,34.0,68.0,170.0,gray,diamond
0.0,4.0,4.0,0.0,7.0,6.0,1491.275060980115,3.0,1.0,phase_3,,,,,176.0,4.0,220.0,132.0,44.0,264.0,88.0,176.0,green,hexagon
0.0,6.0,2.0,1.0,7.0,1.0,1580.2164259948768,3.0,1.0,phase_3,,,,,162.0,3.0,162.0,216.0,270.0,324.0,108.0,54.0,orange,cross
0.0,1.0,1.0,0.0,7.0,2.0,1526.833630981855,3.0,1.0,phase_3,,,,,204.0,6.0,102.0,204.0,68.0,136.0,34.0,170.0,cyan,circle
0.0,6.0,2.0,1.0,7.0,6.0,1732.0893790456466,3.0,1.0,phase_3,,,,,117.0,3.0,234.0,39.0,78.0,156.0,195.0,117.0,orange,cross
0.0,3.0,3.0,0.0,7.0,6.0,3248.623917985242,3.0,1.0,phase_3,,,,,196.0,4.0,294.0,49.0,147.0,98.0,245.0,196.0,white,triangle
0.0,1.0,1.0,0.0,7.0,2.0,2645.3271679929458,3.0,1.0,phase_3,,,,,245.0,5.0,147.0,245.0,294.0,98.0,196.0,49.0,cyan,circle
0.0,8.0,4.0,1.0,7.0,5.0,2217.030335043092,3.0,1.0,phase_3,,,,,294.0,6.0,196.0,147.0,98.0,49.0,294.0,245.0,blue,I
0.0,7.0,3.0,1.0,7.0,2.0,2756.8543839734048,3.0,1.0,phase_3,,,,,132.0,3.0,264.0,132.0,220.0,176.0,44.0,88.0,yellow,square
0.0,1.0,1.0,0.0,7.0,1.0,4065.4441990191117,3.0,1.0,phase_3,,,,,204.0,6.0,204.0,34.0,170.0,136.0,68.0,102.0,cyan,circle
0.0,7.0,3.0,1.0,7.0,5.0,4025.643932982348,3.0,1.0,phase_3,,,,,108.0,2.0,216.0,162.0,54.0,324.0,108.0,270.0,yellow,square
0.0,2.0,2.0,0.0,7.0,6.0,3246.455246990081,3.0,1.0,phase_3,,,,,108.0,2.0,216.0,270.0,54.0,162.0,324.0,108.0,magenta,flipped triangle
0.0,4.0,4.0,0.0,7.0,2.0,2797.5011880043894,3.0,1.0,phase_3,,,,,176.0,4.0,132.0,176.0,88.0,44.0,264.0,220.0,green,hexagon
0.0,2.0,2.0,0.0,7.0,4.0,3094.219513994176,3.0,1.0,phase_3,,,,,196.0,4.0,49.0,147.0,245.0,196.0,294.0,98.0,magenta,flipped triangle
0.0,3.0,3.0,0.0,7.0,4.0,3477.6566709624603,3.0,1.0,phase_3,,,,,156.0,4.0,78.0,195.0,234.0,156.0,117.0,39.0,white,triangle
0.0,8.0,4.0,1.0,7.0,6.0,2125.887098023668,3.0,1.0,phase_3,,,,,270.0,5.0,216.0,162.0,54.0,324.0,108.0,270.0,blue,I
0.0,5.0,1.0,1.0,7.0,5.0,2794.040597975254,3.0,1.0,phase_3,,,,,234.0,6.0,39.0,195.0,156.0,78.0,234.0,117.0,gray,diamond
0.0,7.0,3.0,1.0,7.0,1.0,3749.037485045847,3.0,1.0,phase_3,,,,,108.0,2.0,108.0,270.0,324.0,162.0,54.0,216.0,yellow,square
0.0,4.0,4.0,0.0,7.0,6.0,1883.759618038312,3.0,1.0,phase_3,,,,,98.0,2.0,147.0,294.0,245.0,49.0,196.0,98.0,green,hexagon
0.0,4.0,4.0,0.0,7.0,1.0,1275.4951320239345,3.0,1.0,phase_3,,,,,98.0,2.0,98.0,49.0,294.0,245.0,196.0,147.0,green,hexagon
0.0,1.0,1.0,0.0,7.0,4.0,2649.3950160220265,4.0,1.0,phase_3,,,,,216.0,4.0,54.0,270.0,108.0,216.0,162.0,324.0,cyan,circle
0.0,8.0,4.0,1.0,7.0,3.0,2326.925184985157,4.0,1.0,phase_3,,,,,136.0,4.0,34.0,68.0,136.0,204.0,102.0,170.0,blue,I
0.0,6.0,2.0,1.0,7.0,6.0,3025.7571280235425,4.0,1.0,phase_3,,,,,204.0,6.0,68.0,136.0,34.0,102.0,170.0,204.0,orange,cross
0.0,8.0,4.0,1.0,7.0,5.0,3161.96413396392,4.0,1.0,phase_3,,,,,88.0,2.0,132.0,220.0,264.0,176.0,88.0,44.0,blue,I
0.0,5.0,1.0,1.0,7.0,3.0,2618.7960830284283,4.0,1.0,phase_3,,,,,98.0,2.0,49.0,196.0,98.0,245.0,147.0,294.0,gray,diamond
0.0,2.0,2.0,0.0,7.0,5.0,2191.73940399196,4.0,1.0,phase_3,,,,,147.0,3.0,196.0,98.0,245.0,294.0,147.0,49.0,magenta,flipped triangle
0.0,7.0,3.0,1.0,7.0,1.0,2298.964046989568,4.0,1.0,phase_3,,,,,245.0,5.0,245.0,49.0,147.0,294.0,196.0,98.0,yellow,square
0.0,1.0,1.0,0.0,7.0,3.0,2333.6900310241617,4.0,1.0,phase_3,,,,,54.0,1.0,270.0,216.0,54.0,162.0,108.0,324.0,cyan,circle
0.0,6.0,2.0,1.0,7.0,2.0,3480.0449769827537,4.0,1.0,phase_3,,,,,98.0,2.0,196.0,98.0,49.0,245.0,147.0,294.0,orange,cross
0.0,5.0,1.0,1.0,7.0,1.0,3212.195457017515,4.0,1.0,phase_3,,,,,117.0,3.0,117.0,234.0,156.0,78.0,195.0,39.0,gray,diamond
0.0,3.0,3.0,0.0,7.0,1.0,2445.287829032168,4.0,1.0,phase_3,,,,,162.0,3.0,162.0,54.0,108.0,216.0,270.0,324.0,white,triangle
0.0,5.0,1.0,1.0,7.0,5.0,2314.056990959216,4.0,1.0,phase_3,,,,,270.0,5.0,216.0,324.0,54.0,108.0,270.0,162.0,gray,diamond
0.0,4.0,4.0,0.0,7.0,1.0,3831.204022979364,4.0,1.0,phase_3,,,,,234.0,6.0,234.0,195.0,156.0,39.0,117.0,78.0,green,hexagon
0.0,3.0,3.0,0.0,7.0,6.0,3160.4183519957587,4.0,1.0,phase_3,,,,,204.0,6.0,102.0,136.0,68.0,34.0,170.0,204.0,white,triangle
0.0,4.0,4.0,0.0,7.0,3.0,3304.7240379964933,4.0,1.0,phase_3,,,,,39.0,1.0,117.0,234.0,39.0,78.0,195.0,156.0,green,hexagon
0.0,5.0,1.0,1.0,7.0,1.0,1641.2518419674598,4.0,1.0,phase_3,,,,,49.0,1.0,49.0,294.0,98.0,245.0,147.0,196.0,gray,diamond
0.0,8.0,4.0,1.0,7.0,1.0,2455.443110025953,4.0,1.0,phase_3,,,,,147.0,3.0,147.0,98.0,49.0,196.0,245.0,294.0,blue,I
0.0,1.0,1.0,0.0,7.0,3.0,2961.042621987872,4.0,1.0,phase_3,,,,,220.0,5.0,88.0,44.0,220.0,176.0,264.0,132.0,cyan,circle
0.0,7.0,3.0,1.0,7.0,6.0,1805.1702239899896,4.0,1.0,phase_3,,,,,102.0,3.0,34.0,136.0,68.0,204.0,170.0,102.0,yellow,square
0.0,2.0,2.0,0.0,7.0,2.0,2750.1934560132213,4.0,1.0,phase_3,,,,,136.0,4.0,170.0,136.0,102.0,34.0,68.0,204.0,magenta,flipped triangle
