raw_reward_magnitude,stim_reward,stepwise_reward_magnitude,paired_with_stopping,stim_location,response,reaction_time,block,num_trial_presentations,which_phase,stop_signal_trial_type,left_SSD,right_SSD,accuracy,chosen_bidding_amount,chosen_bidding_level,possible_bid_1,possible_bid_2,possible_bid_3,possible_bid_4,possible_bid_5,possible_bid_6,color_text,shape_text
217.0,7.0,3.0,1.0,4.0,4.0,665.7365230003052,1.0,1.0,phase_1,,,,,,,,,,,,,blue,flipped triangle
0.0,3.0,0.0,0.0,3.0,3.0,426.3909069995861,1.0,1.0,phase_1,,,,,,,,,,,,,gray,circle
0.0,6.0,0.0,1.0,2.0,2.0,384.2099180001241,1.0,1.0,phase_1,,,,,,,,,,,,,yellow,diamond
0.0,8.0,0.0,1.0,2.0,2.0,418.6526000003141,1.0,1.0,phase_1,,,,,,,,,,,,,green,square
100.0,2.0,2.0,0.0,2.0,2.0,409.2550329996811,1.0,1.0,phase_1,,,,,,,,,,,,,magenta,hexagon
114.0,6.0,2.0,1.0,1.0,1.0,432.2421580000082,1.0,1.0,phase_1,,,,,,,,,,,,,yellow,diamond
96.0,6.0,2.0,1.0,4.0,4.0,376.9296770001347,1.0,1.0,phase_1,,,,,,,,,,,,,yellow,diamond
114.0,2.0,2.0,0.0,3.0,3.0,423.77300499993,1.0,1.0,phase_1,,,,,,,,,,,,,magenta,hexagon
68.0,1.0,1.0,0.0,4.0,4.0,365.5432149998887,1.0,1.0,phase_1,,,,,,,,,,,,,orange,triangle
121.0,6.0,2.0,1.0,1.0,1.0,356.0537640000802,1.0,1.0,phase_1,,,,,,,,,,,,,yellow,diamond
0.0,7.0,0.0,1.0,2.0,2.0,368.3179310000923,1.0,1.0,phase_1,,,,,,,,,,,,,blue,flipped triangle
82.0,6.0,2.0,1.0,1.0,1.0,358.1436610002129,1.0,1.0,phase_1,,,,,,,,,,,,,yellow,diamond
41.0,1.0,1.0,0.0,3.0,3.0,381.7749999998341,1.0,1.0,phase_1,,,,,,,,,,,,,orange,triangle
0.0,5.0,0.0,1.0,4.0,4.0,334.2056040000898,1.0,1.0,phase_1,,,,,,,,,,,,,white,cross
193.0,7.0,3.0,1.0,3.0,3.0,380.9690369998861,1.0,1.0,phase_1,,,,,,,,,,,,,blue,flipped triangle
87.0,6.0,2.0,1.0,3.0,3.0,447.5311349997355,1.0,1.0,phase_1,,,,,,,,,,,,,yellow,diamond
0.0,4.0,0.0,0.0,1.0,1.0,348.1340939997608,1.0,1.0,phase_1,,,,,,,,,,,,,cyan,I
0.0,2.0,0.0,0.0,3.0,3.0,351.1965769998824,1.0,1.0,phase_1,,,,,,,,,,,,,magenta,hexagon
408.0,8.0,4.0,1.0,2.0,2.0,393.9035509997666,1.0,1.0,phase_1,,,,,,,,,,,,,green,square
401.0,4.0,4.0,0.0,1.0,1.0,519.6957809998821,1.0,1.0,phase_1,,,,,,,,,,,,,cyan,I
100.0,6.0,2.0,1.0,2.0,2.0,371.7160810001587,1.0,1.0,phase_1,,,,,,,,,,,,,yellow,diamond
51.0,1.0,1.0,0.0,3.0,3.0,364.879220000148,1.0,1.0,phase_1,,,,,,,,,,,,,orange,triangle
421.0,8.0,4.0,1.0,1.0,1.0,384.935139999925,1.0,1.0,phase_1,,,,,,,,,,,,,green,square
215.0,7.0,3.0,1.0,3.0,3.0,364.1206170000259,1.0,1.0,phase_1,,,,,,,,,,,,,blue,flipped triangle
101.0,6.0,2.0,1.0,4.0,4.0,465.033996999864,1.0,1.0,phase_1,,,,,,,,,,,,,yellow,diamond
191.0,3.0,3.0,0.0,2.0,2.0,366.335163000258,1.0,1.0,phase_1,,,,,,,,,,,,,gray,circle
87.0,2.0,2.0,0.0,4.0,4.0,401.2138009998125,1.0,1.0,phase_1,,,,,,,,,,,,,magenta,hexagon
413.0,8.0,4.0,1.0,4.0,4.0,346.0945850001735,1.0,1.0,phase_1,,,,,,,,,,,,,green,square
48.0,5.0,1.0,1.0,2.0,2.0,433.665425000072,1.0,1.0,phase_1,,,,,,,,,,,,,white,cross
52.0,5.0,1.0,1.0,1.0,1.0,387.4533279999923,1.0,1.0,phase_1,,,,,,,,,,,,,white,cross
70.0,5.0,1.0,1.0,2.0,2.0,358.0375390001791,1.0,1.0,phase_1,,,,,,,,,,,,,white,cross
0.0,2.0,0.0,0.0,4.0,4.0,347.108025000125,1.0,1.0,phase_1,,,,,,,,,,,,,magenta,hexagon
72.0,1.0,1.0,0.0,4.0,4.0,402.1453750001456,1.0,1.0,phase_1,,,,,,,,,,,,,orange,triangle
0.0,4.0,0.0,0.0,4.0,4.0,412.9014479999568,1.0,1.0,phase_1,,,,,,,,,,,,,cyan,I
413.0,4.0,4.0,0.0,2.0,2.0,348.4833630000139,1.0,1.0,phase_1,,,,,,,,,,,,,cyan,I
66.0,1.0,1.0,0.0,4.0,4.0,560.9916919997886,1.0,1.0,phase_1,,,,,,,,,,,,,orange,triangle
87.0,2.0,2.0,0.0,3.0,3.0,326.4501109997582,1.0,1.0,phase_1,,,,,,,,,,,,,magenta,hexagon
87.0,2.0,2.0,0.0,2.0,2.0,392.9047050000918,1.0,1.0,phase_1,,,,,,,,,,,,,magenta,hexagon
37.0,1.0,1.0,0.0,2.0,2.0,315.7676740001989,1.0,1.0,phase_1,,,,,,,,,,,,,orange,triangle
0.0,7.0,0.0,1.0,2.0,2.0,351.9300140001178,1.0,1.0,phase_1,,,,,,,,,,,,,blue,flipped triangle
222.0,7.0,3.0,1.0,2.0,2.0,361.0092889998668,1.0,1.0,phase_1,,,,,,,,,,,,,blue,flipped triangle
78.0,6.0,2.0,1.0,1.0,1.0,439.13631000032177,1.0,1.0,phase_1,,,,,,,,,,,,,yellow,diamond
68.0,5.0,1.0,1.0,3.0,3.0,420.1780700000199,1.0,1.0,phase_1,,,,,,,,,,,,,white,cross
211.0,7.0,3.0,1.0,1.0,1.0,511.1865530002433,1.0,1.0,phase_1,,,,,,,,,,,,,blue,flipped triangle
175.0,7.0,3.0,1.0,3.0,3.0,443.8849419998405,1.0,1.0,phase_1,,,,,,,,,,,,,blue,flipped triangle
181.0,3.0,3.0,0.0,1.0,1.0,422.0398709999244,1.0,1.0,phase_1,,,,,,,,,,,,,gray,circle
56.0,1.0,1.0,0.0,3.0,3.0,341.7460599998776,1.0,1.0,phase_1,,,,,,,,,,,,,orange,triangle
64.0,1.0,1.0,0.0,1.0,1.0,488.8133079998624,1.0,1.0,phase_1,,,,,,,,,,,,,orange,triangle
413.0,8.0,4.0,1.0,1.0,1.0,581.6154260000985,1.0,1.0,phase_1,,,,,,,,,,,,,green,square
99.0,6.0,2.0,1.0,2.0,2.0,432.5439740000547,1.0,1.0,phase_1,,,,,,,,,,,,,yellow,diamond
30.0,5.0,1.0,1.0,4.0,4.0,546.5209409999261,1.0,1.0,phase_1,,,,,,,,,,,,,white,cross
114.0,6.0,2.0,1.0,1.0,1.0,447.5847300000168,1.0,1.0,phase_1,,,,,,,,,,,,,yellow,diamond
215.0,7.0,3.0,1.0,1.0,1.0,459.5228130001487,1.0,1.0,phase_1,,,,,,,,,,,,,blue,flipped triangle
180.0,3.0,3.0,0.0,2.0,2.0,345.4477430000224,1.0,1.0,phase_1,,,,,,,,,,,,,gray,circle
0.0,6.0,0.0,1.0,4.0,4.0,327.0153099997515,1.0,1.0,phase_1,,,,,,,,,,,,,yellow,diamond
107.0,2.0,2.0,0.0,4.0,4.0,447.6403859998754,1.0,2.0,phase_1,,,,,,,,,,,,,magenta,hexagon
80.0,2.0,2.0,0.0,4.0,4.0,405.82200299968457,1.0,1.0,phase_1,,,,,,,,,,,,,magenta,hexagon
114.0,2.0,2.0,0.0,4.0,4.0,362.9642060000151,1.0,1.0,phase_1,,,,,,,,,,,,,magenta,hexagon
188.0,3.0,3.0,0.0,2.0,2.0,350.0906899998881,1.0,1.0,phase_1,,,,,,,,,,,,,gray,circle
27.0,1.0,1.0,0.0,2.0,2.0,508.3199739997326,1.0,1.0,phase_1,,,,,,,,,,,,,orange,triangle
110.0,2.0,2.0,0.0,1.0,1.0,383.1380999999965,1.0,1.0,phase_1,,,,,,,,,,,,,magenta,hexagon
78.0,2.0,2.0,0.0,4.0,4.0,746.806662000381,1.0,1.0,phase_1,,,,,,,,,,,,,magenta,hexagon
221.0,7.0,3.0,1.0,4.0,4.0,487.4148940002669,1.0,1.0,phase_1,,,,,,,,,,,,,blue,flipped triangle
215.0,3.0,3.0,0.0,4.0,4.0,523.4435809998104,1.0,1.0,phase_1,,,,,,,,,,,,,gray,circle
99.0,2.0,2.0,0.0,1.0,1.0,568.9835529997254,1.0,1.0,phase_1,,,,,,,,,,,,,magenta,hexagon
181.0,7.0,3.0,1.0,4.0,4.0,510.6707770000867,1.0,1.0,phase_1,,,,,,,,,,,,,blue,flipped triangle
92.0,6.0,2.0,1.0,4.0,4.0,398.5685170000579,1.0,1.0,phase_1,,,,,,,,,,,,,yellow,diamond
224.0,7.0,3.0,1.0,4.0,4.0,412.8533359998982,1.0,1.0,phase_1,,,,,,,,,,,,,blue,flipped triangle
199.0,3.0,3.0,0.0,2.0,2.0,366.7274560002624,1.0,1.0,phase_1,,,,,,,,,,,,,gray,circle
0.0,7.0,0.0,1.0,1.0,1.0,413.2732309999483,1.0,1.0,phase_1,,,,,,,,,,,,,blue,flipped triangle
122.0,6.0,2.0,1.0,4.0,4.0,366.5832010001395,1.0,1.0,phase_1,,,,,,,,,,,,,yellow,diamond
380.0,4.0,4.0,0.0,3.0,3.0,413.176791999831,1.0,1.0,phase_1,,,,,,,,,,,,,cyan,I
213.0,3.0,3.0,0.0,3.0,3.0,484.1077779997249,1.0,1.0,phase_1,,,,,,,,,,,,,gray,circle
0.0,5.0,0.0,1.0,1.0,1.0,524.8451749998821,1.0,1.0,phase_1,,,,,,,,,,,,,white,cross
215.0,3.0,3.0,0.0,1.0,1.0,450.3582109996387,1.0,1.0,phase_1,,,,,,,,,,,,,gray,circle
94.0,6.0,2.0,1.0,1.0,1.0,350.5300739998347,1.0,1.0,phase_1,,,,,,,,,,,,,yellow,diamond
223.0,3.0,3.0,0.0,2.0,2.0,438.462784999956,1.0,1.0,phase_1,,,,,,,,,,,,,gray,circle
68.0,1.0,1.0,0.0,4.0,4.0,395.5856200000198,1.0,1.0,phase_1,,,,,,,,,,,,,orange,triangle
404.0,4.0,4.0,0.0,1.0,1.0,496.2944380004046,1.0,1.0,phase_1,,,,,,,,,,,,,cyan,I
0.0,6.0,0.0,1.0,2.0,2.0,371.1753299999145,1.0,1.0,phase_1,,,,,,,,,,,,,yellow,diamond
0.0,2.0,0.0,0.0,4.0,4.0,349.5366450001711,1.0,1.0,phase_1,,,,,,,,,,,,,magenta,hexagon
0.0,4.0,0.0,0.0,4.0,4.0,406.9678539999586,1.0,1.0,phase_1,,,,,,,,,,,,,cyan,I
417.0,4.0,4.0,0.0,1.0,1.0,418.3235599998625,1.0,1.0,phase_1,,,,,,,,,,,,,cyan,I
81.0,6.0,2.0,1.0,4.0,4.0,474.3150509998486,1.0,1.0,phase_1,,,,,,,,,,,,,yellow,diamond
120.0,6.0,2.0,1.0,1.0,1.0,511.50306299996373,1.0,1.0,phase_1,,,,,,,,,,,,,yellow,diamond
218.0,7.0,3.0,1.0,1.0,1.0,557.1196079999936,1.0,1.0,phase_1,,,,,,,,,,,,,blue,flipped triangle
0.0,2.0,0.0,0.0,3.0,3.0,423.3876899997995,1.0,1.0,phase_1,,,,,,,,,,,,,magenta,hexagon
211.0,3.0,3.0,0.0,1.0,1.0,510.547760999998,1.0,1.0,phase_1,,,,,,,,,,,,,gray,circle
109.0,2.0,2.0,0.0,2.0,2.0,500.6068820002838,1.0,1.0,phase_1,,,,,,,,,,,,,magenta,hexagon
52.0,1.0,1.0,0.0,1.0,1.0,469.5758600000772,1.0,1.0,phase_1,,,,,,,,,,,,,orange,triangle
197.0,3.0,3.0,0.0,1.0,1.0,583.1886239998312,1.0,1.0,phase_1,,,,,,,,,,,,,gray,circle
390.0,4.0,4.0,0.0,2.0,2.0,546.9669369999792,1.0,1.0,phase_1,,,,,,,,,,,,,cyan,I
415.0,8.0,4.0,1.0,1.0,1.0,400.7854630003749,1.0,1.0,phase_1,,,,,,,,,,,,,green,square
0.0,6.0,0.0,1.0,1.0,1.0,424.6438770001077,1.0,1.0,phase_1,,,,,,,,,,,,,yellow,diamond
212.0,3.0,3.0,0.0,2.0,2.0,358.3651369999643,1.0,1.0,phase_1,,,,,,,,,,,,,gray,circle
46.0,5.0,1.0,1.0,2.0,2.0,372.2304549996806,1.0,1.0,phase_1,,,,,,,,,,,,,white,cross
87.0,6.0,2.0,1.0,2.0,2.0,358.1451000000015,1.0,1.0,phase_1,,,,,,,,,,,,,yellow,diamond
91.0,2.0,2.0,0.0,2.0,2.0,325.7107570002517,1.0,1.0,phase_1,,,,,,,,,,,,,magenta,hexagon
381.0,8.0,4.0,1.0,4.0,4.0,362.1108879997337,1.0,1.0,phase_1,,,,,,,,,,,,,green,square
79.0,6.0,2.0,1.0,3.0,3.0,404.769363000014,1.0,1.0,phase_1,,,,,,,,,,,,,yellow,diamond
378.0,8.0,4.0,1.0,3.0,3.0,382.7998320002734,2.0,1.0,phase_1,,,,,,,,,,,,,green,square
414.0,8.0,4.0,1.0,4.0,4.0,331.3013530000717,2.0,1.0,phase_1,,,,,,,,,,,,,green,square
183.0,7.0,3.0,1.0,3.0,3.0,331.1203250000289,2.0,1.0,phase_1,,,,,,,,,,,,,blue,flipped triangle
64.0,5.0,1.0,1.0,1.0,1.0,331.9262220002201,2.0,1.0,phase_1,,,,,,,,,,,,,white,cross
0.0,5.0,0.0,1.0,3.0,3.0,375.6173950000629,2.0,1.0,phase_1,,,,,,,,,,,,,white,cross
0.0,1.0,0.0,0.0,1.0,1.0,420.1874489999682,2.0,2.0,phase_1,,,,,,,,,,,,,orange,triangle
61.0,1.0,1.0,0.0,3.0,3.0,345.0830670003597,2.0,1.0,phase_1,,,,,,,,,,,,,orange,triangle
383.0,4.0,4.0,0.0,4.0,4.0,443.6354079998637,2.0,1.0,phase_1,,,,,,,,,,,,,cyan,I
0.0,5.0,0.0,1.0,2.0,2.0,445.936459999757,2.0,1.0,phase_1,,,,,,,,,,,,,white,cross
408.0,4.0,4.0,0.0,3.0,3.0,399.9018740000792,2.0,1.0,phase_1,,,,,,,,,,,,,cyan,I
0.0,8.0,0.0,1.0,1.0,1.0,358.6919450003734,2.0,1.0,phase_1,,,,,,,,,,,,,green,square
105.0,2.0,2.0,0.0,3.0,3.0,378.4844809997594,2.0,1.0,phase_1,,,,,,,,,,,,,magenta,hexagon
404.0,8.0,4.0,1.0,3.0,3.0,359.5352570000614,2.0,1.0,phase_1,,,,,,,,,,,,,green,square
0.0,6.0,0.0,1.0,2.0,2.0,449.9240579998513,2.0,1.0,phase_1,,,,,,,,,,,,,yellow,diamond
0.0,2.0,0.0,0.0,1.0,1.0,661.7949279998356,2.0,1.0,phase_1,,,,,,,,,,,,,magenta,hexagon
0.0,3.0,0.0,0.0,4.0,4.0,426.5790029999152,2.0,1.0,phase_1,,,,,,,,,,,,,gray,circle
217.0,3.0,3.0,0.0,1.0,1.0,620.7205480000084,2.0,1.0,phase_1,,,,,,,,,,,,,gray,circle
0.0,6.0,0.0,1.0,3.0,3.0,438.1995939997978,2.0,1.0,phase_1,,,,,,,,,,,,,yellow,diamond
103.0,2.0,2.0,0.0,4.0,4.0,383.1939110000348,2.0,1.0,phase_1,,,,,,,,,,,,,magenta,hexagon
402.0,8.0,4.0,1.0,2.0,2.0,370.6638059998113,2.0,1.0,phase_1,,,,,,,,,,,,,green,square
376.0,8.0,4.0,1.0,3.0,3.0,397.2124010001607,2.0,1.0,phase_1,,,,,,,,,,,,,green,square
92.0,2.0,2.0,0.0,3.0,3.0,397.567601999981,2.0,1.0,phase_1,,,,,,,,,,,,,magenta,hexagon
0.0,5.0,0.0,1.0,3.0,3.0,474.182638000002,2.0,1.0,phase_1,,,,,,,,,,,,,white,cross
30.0,1.0,1.0,0.0,3.0,3.0,363.9371399999618,2.0,1.0,phase_1,,,,,,,,,,,,,orange,triangle
26.0,1.0,1.0,0.0,4.0,4.0,362.7487089997885,2.0,1.0,phase_1,,,,,,,,,,,,,orange,triangle
380.0,8.0,4.0,1.0,3.0,3.0,446.2061620001805,2.0,1.0,phase_1,,,,,,,,,,,,,green,square
64.0,1.0,1.0,0.0,4.0,4.0,479.9608739999712,2.0,1.0,phase_1,,,,,,,,,,,,,orange,triangle
0.0,2.0,0.0,0.0,1.0,1.0,353.3642829997916,2.0,1.0,phase_1,,,,,,,,,,,,,magenta,hexagon
201.0,3.0,3.0,0.0,3.0,3.0,358.0026360000374,2.0,1.0,phase_1,,,,,,,,,,,,,gray,circle
0.0,7.0,0.0,1.0,2.0,2.0,567.2569029998158,2.0,1.0,phase_1,,,,,,,,,,,,,blue,flipped triangle
386.0,8.0,4.0,1.0,3.0,3.0,401.9669410004098,2.0,1.0,phase_1,,,,,,,,,,,,,green,square
402.0,4.0,4.0,0.0,4.0,4.0,436.422795999988,2.0,1.0,phase_1,,,,,,,,,,,,,cyan,I
378.0,4.0,4.0,0.0,3.0,3.0,393.7225419999777,2.0,1.0,phase_1,,,,,,,,,,,,,cyan,I
416.0,8.0,4.0,1.0,2.0,2.0,438.4138880000137,2.0,1.0,phase_1,,,,,,,,,,,,,green,square
88.0,6.0,2.0,1.0,2.0,2.0,405.756934999772,2.0,1.0,phase_1,,,,,,,,,,,,,yellow,diamond
179.0,7.0,3.0,1.0,1.0,1.0,551.3821079998706,2.0,1.0,phase_1,,,,,,,,,,,,,blue,flipped triangle
181.0,3.0,3.0,0.0,3.0,3.0,504.3520199997147,2.0,1.0,phase_1,,,,,,,,,,,,,gray,circle
197.0,7.0,3.0,1.0,2.0,2.0,451.3107239999954,2.0,1.0,phase_1,,,,,,,,,,,,,blue,flipped triangle
44.0,5.0,1.0,1.0,3.0,3.0,426.6195550003431,2.0,1.0,phase_1,,,,,,,,,,,,,white,cross
198.0,3.0,3.0,0.0,4.0,4.0,395.9511089997249,2.0,1.0,phase_1,,,,,,,,,,,,,gray,circle
0.0,3.0,0.0,0.0,4.0,4.0,487.7925020000475,2.0,1.0,phase_1,,,,,,,,,,,,,gray,circle
424.0,8.0,4.0,1.0,2.0,2.0,364.4676839999192,2.0,1.0,phase_1,,,,,,,,,,,,,green,square
37.0,5.0,1.0,1.0,2.0,2.0,453.6023519999617,2.0,1.0,phase_1,,,,,,,,,,,,,white,cross
0.0,8.0,0.0,1.0,3.0,3.0,383.956290000242,2.0,1.0,phase_1,,,,,,,,,,,,,green,square
0.0,7.0,0.0,1.0,2.0,2.0,463.7561869999445,2.0,1.0,phase_1,,,,,,,,,,,,,blue,flipped triangle
0.0,7.0,0.0,1.0,4.0,4.0,622.2648650000338,2.0,1.0,phase_1,,,,,,,,,,,,,blue,flipped triangle
41.0,5.0,1.0,1.0,4.0,4.0,352.8122929997153,2.0,1.0,phase_1,,,,,,,,,,,,,white,cross
0.0,8.0,0.0,1.0,4.0,4.0,411.4907020002647,2.0,1.0,phase_1,,,,,,,,,,,,,green,square
199.0,3.0,3.0,0.0,4.0,4.0,443.8486980002381,2.0,1.0,phase_1,,,,,,,,,,,,,gray,circle
103.0,6.0,2.0,1.0,2.0,2.0,366.0601540000243,2.0,1.0,phase_1,,,,,,,,,,,,,yellow,diamond
0.0,8.0,0.0,1.0,3.0,3.0,354.5240450002893,2.0,1.0,phase_1,,,,,,,,,,,,,green,square
221.0,3.0,3.0,0.0,4.0,4.0,503.6062559997845,2.0,1.0,phase_1,,,,,,,,,,,,,gray,circle
413.0,4.0,4.0,0.0,2.0,2.0,346.8426599997656,2.0,1.0,phase_1,,,,,,,,,,,,,cyan,I
109.0,6.0,2.0,1.0,4.0,4.0,458.5450449999371,2.0,1.0,phase_1,,,,,,,,,,,,,yellow,diamond
0.0,7.0,0.0,1.0,1.0,1.0,404.7110999999859,2.0,1.0,phase_1,,,,,,,,,,,,,blue,flipped triangle
0.0,6.0,0.0,1.0,1.0,1.0,379.9528869999449,2.0,1.0,phase_1,,,,,,,,,,,,,yellow,diamond
89.0,2.0,2.0,0.0,3.0,3.0,380.9925139998995,2.0,1.0,phase_1,,,,,,,,,,,,,magenta,hexagon
51.0,5.0,1.0,1.0,2.0,2.0,471.0239759997421,2.0,1.0,phase_1,,,,,,,,,,,,,white,cross
0.0,8.0,0.0,1.0,1.0,1.0,415.9216550001474,2.0,2.0,phase_1,,,,,,,,,,,,,green,square
97.0,6.0,2.0,1.0,1.0,1.0,395.3738769996562,2.0,1.0,phase_1,,,,,,,,,,,,,yellow,diamond
74.0,5.0,1.0,1.0,1.0,1.0,374.916060999567,2.0,1.0,phase_1,,,,,,,,,,,,,white,cross
188.0,7.0,3.0,1.0,2.0,2.0,361.4410500003941,2.0,1.0,phase_1,,,,,,,,,,,,,blue,flipped triangle
56.0,1.0,1.0,0.0,1.0,1.0,374.6551580002233,2.0,1.0,phase_1,,,,,,,,,,,,,orange,triangle
0.0,3.0,0.0,0.0,2.0,2.0,466.8082119997052,2.0,1.0,phase_1,,,,,,,,,,,,,gray,circle
178.0,7.0,3.0,1.0,4.0,4.0,441.4910830000735,2.0,1.0,phase_1,,,,,,,,,,,,,blue,flipped triangle
96.0,2.0,2.0,0.0,2.0,2.0,397.8494850002789,2.0,1.0,phase_1,,,,,,,,,,,,,magenta,hexagon
74.0,1.0,1.0,0.0,2.0,2.0,420.6271050002215,2.0,1.0,phase_1,,,,,,,,,,,,,orange,triangle
26.0,5.0,1.0,1.0,3.0,3.0,401.1234349995902,2.0,1.0,phase_1,,,,,,,,,,,,,white,cross
0.0,1.0,0.0,0.0,4.0,4.0,581.6898399998536,2.0,1.0,phase_1,,,,,,,,,,,,,orange,triangle
101.0,6.0,2.0,1.0,3.0,3.0,436.1531619997549,2.0,1.0,phase_1,,,,,,,,,,,,,yellow,diamond
80.0,6.0,2.0,1.0,3.0,3.0,347.4154339996858,2.0,1.0,phase_1,,,,,,,,,,,,,yellow,diamond
101.0,6.0,2.0,1.0,4.0,4.0,404.1821840000921,2.0,1.0,phase_1,,,,,,,,,,,,,yellow,diamond
392.0,8.0,4.0,1.0,3.0,3.0,390.037977999782,2.0,1.0,phase_1,,,,,,,,,,,,,green,square
48.0,5.0,1.0,1.0,4.0,4.0,379.4425399996726,2.0,1.0,phase_1,,,,,,,,,,,,,white,cross
30.0,5.0,1.0,1.0,1.0,1.0,435.4320929996902,2.0,1.0,phase_1,,,,,,,,,,,,,white,cross
376.0,8.0,4.0,1.0,4.0,4.0,608.8077340000382,2.0,1.0,phase_1,,,,,,,,,,,,,green,square
100.0,2.0,2.0,0.0,4.0,4.0,394.97200100004187,2.0,1.0,phase_1,,,,,,,,,,,,,magenta,hexagon
417.0,8.0,4.0,1.0,3.0,3.0,474.2912599999727,2.0,1.0,phase_1,,,,,,,,,,,,,green,square
223.0,7.0,3.0,1.0,2.0,2.0,460.7158110002274,2.0,1.0,phase_1,,,,,,,,,,,,,blue,flipped triangle
420.0,8.0,4.0,1.0,4.0,4.0,531.3383299999259,2.0,1.0,phase_1,,,,,,,,,,,,,green,square
70.0,1.0,1.0,0.0,2.0,2.0,362.9837329999645,2.0,1.0,phase_1,,,,,,,,,,,,,orange,triangle
0.0,4.0,0.0,0.0,3.0,3.0,364.3982029998369,2.0,1.0,phase_1,,,,,,,,,,,,,cyan,I
74.0,1.0,1.0,0.0,3.0,3.0,399.1106889998264,2.0,1.0,phase_1,,,,,,,,,,,,,orange,triangle
415.0,4.0,4.0,0.0,2.0,2.0,455.7923229999687,2.0,1.0,phase_1,,,,,,,,,,,,,cyan,I
396.0,8.0,4.0,1.0,3.0,3.0,376.5186050000011,2.0,1.0,phase_1,,,,,,,,,,,,,green,square
199.0,7.0,3.0,1.0,4.0,4.0,397.9407040001206,2.0,1.0,phase_1,,,,,,,,,,,,,blue,flipped triangle
0.0,6.0,0.0,1.0,1.0,1.0,475.6177910003316,2.0,1.0,phase_1,,,,,,,,,,,,,yellow,diamond
386.0,4.0,4.0,0.0,3.0,3.0,423.9467029997286,2.0,1.0,phase_1,,,,,,,,,,,,,cyan,I
55.0,5.0,1.0,1.0,3.0,3.0,413.2494789996599,2.0,1.0,phase_1,,,,,,,,,,,,,white,cross
401.0,8.0,4.0,1.0,1.0,1.0,390.2142100000674,2.0,1.0,phase_1,,,,,,,,,,,,,green,square
207.0,7.0,3.0,1.0,1.0,1.0,425.0842189999275,2.0,1.0,phase_1,,,,,,,,,,,,,blue,flipped triangle
0.0,8.0,0.0,1.0,1.0,1.0,426.5954150000652,2.0,1.0,phase_1,,,,,,,,,,,,,green,square
0.0,3.0,0.0,0.0,1.0,1.0,457.2451159997399,2.0,1.0,phase_1,,,,,,,,,,,,,gray,circle
0.0,7.0,0.0,1.0,3.0,3.0,370.2990229999159,2.0,1.0,phase_1,,,,,,,,,,,,,blue,flipped triangle
0.0,4.0,0.0,0.0,3.0,3.0,504.383247000078,2.0,1.0,phase_1,,,,,,,,,,,,,cyan,I
57.0,5.0,1.0,1.0,4.0,4.0,426.0807760001626,2.0,1.0,phase_1,,,,,,,,,,,,,white,cross
0.0,2.0,0.0,0.0,1.0,1.0,451.3368490001994,2.0,1.0,phase_1,,,,,,,,,,,,,magenta,hexagon
416.0,4.0,4.0,0.0,1.0,1.0,416.4911399998345,2.0,1.0,phase_1,,,,,,,,,,,,,cyan,I
122.0,2.0,2.0,0.0,4.0,4.0,373.9714499997717,2.0,1.0,phase_1,,,,,,,,,,,,,magenta,hexagon
28.0,5.0,1.0,1.0,4.0,4.0,484.841218999918,2.0,1.0,phase_1,,,,,,,,,,,,,white,cross
0.0,3.0,0.0,0.0,1.0,1.0,521.3812880001569,3.0,1.0,phase_1,,,,,,,,,,,,,gray,circle
108.0,2.0,2.0,0.0,1.0,1.0,363.2680599998821,3.0,1.0,phase_1,,,,,,,,,,,,,magenta,hexagon
392.0,4.0,4.0,0.0,1.0,1.0,383.3288629998606,3.0,1.0,phase_1,,,,,,,,,,,,,cyan,I
390.0,4.0,4.0,0.0,1.0,1.0,631.7491590002646,3.0,1.0,phase_1,,,,,,,,,,,,,cyan,I
221.0,3.0,3.0,0.0,4.0,4.0,580.447355999695,3.0,1.0,phase_1,,,,,,,,,,,,,gray,circle
408.0,4.0,4.0,0.0,1.0,1.0,465.9665789999963,3.0,1.0,phase_1,,,,,,,,,,,,,cyan,I
45.0,1.0,1.0,0.0,4.0,4.0,399.5106390002547,3.0,1.0,phase_1,,,,,,,,,,,,,orange,triangle
66.0,1.0,1.0,0.0,1.0,1.0,510.6840429998556,3.0,1.0,phase_1,,,,,,,,,,,,,orange,triangle
392.0,8.0,4.0,1.0,4.0,4.0,409.6070629998394,3.0,1.0,phase_1,,,,,,,,,,,,,green,square
0.0,2.0,0.0,0.0,4.0,4.0,335.1600229998439,3.0,1.0,phase_1,,,,,,,,,,,,,magenta,hexagon
397.0,4.0,4.0,0.0,2.0,2.0,365.7191479996982,3.0,1.0,phase_1,,,,,,,,,,,,,cyan,I
176.0,3.0,3.0,0.0,4.0,4.0,381.1787220001861,3.0,1.0,phase_1,,,,,,,,,,,,,gray,circle
114.0,6.0,2.0,1.0,2.0,2.0,378.7224989996502,3.0,1.0,phase_1,,,,,,,,,,,,,yellow,diamond
56.0,1.0,1.0,0.0,4.0,4.0,569.9630389999584,3.0,1.0,phase_1,,,,,,,,,,,,,orange,triangle
66.0,5.0,1.0,1.0,2.0,2.0,458.8072100000318,3.0,1.0,phase_1,,,,,,,,,,,,,white,cross
82.0,2.0,2.0,0.0,3.0,3.0,897.5223900001765,3.0,1.0,phase_1,,,,,,,,,,,,,magenta,hexagon
211.0,7.0,3.0,1.0,1.0,1.0,427.9722279998168,3.0,1.0,phase_1,,,,,,,,,,,,,blue,flipped triangle
37.0,5.0,1.0,1.0,3.0,3.0,305.9160589996281,3.0,1.0,phase_1,,,,,,,,,,,,,white,cross
36.0,1.0,1.0,0.0,1.0,1.0,427.3348940000687,3.0,1.0,phase_1,,,,,,,,,,,,,orange,triangle
92.0,2.0,2.0,0.0,4.0,4.0,438.0527059997803,3.0,1.0,phase_1,,,,,,,,,,,,,magenta,hexagon
0.0,5.0,0.0,1.0,2.0,2.0,452.331487000265,3.0,1.0,phase_1,,,,,,,,,,,,,white,cross
381.0,4.0,4.0,0.0,2.0,2.0,530.9116570001606,3.0,1.0,phase_1,,,,,,,,,,,,,cyan,I
0.0,2.0,0.0,0.0,1.0,1.0,443.0585509999218,3.0,1.0,phase_1,,,,,,,,,,,,,magenta,hexagon
121.0,2.0,2.0,0.0,1.0,1.0,362.8229880000617,3.0,1.0,phase_1,,,,,,,,,,,,,magenta,hexagon
0.0,4.0,0.0,0.0,4.0,4.0,373.0917689999842,3.0,1.0,phase_1,,,,,,,,,,,,,cyan,I
0.0,8.0,0.0,1.0,4.0,4.0,442.2167500001706,3.0,1.0,phase_1,,,,,,,,,,,,,green,square
46.0,5.0,1.0,1.0,2.0,2.0,453.8543270000446,3.0,1.0,phase_1,,,,,,,,,,,,,white,cross
191.0,7.0,3.0,1.0,2.0,2.0,341.8951340004241,3.0,1.0,phase_1,,,,,,,,,,,,,blue,flipped triangle
421.0,4.0,4.0,0.0,4.0,4.0,398.3751380001195,3.0,1.0,phase_1,,,,,,,,,,,,,cyan,I
36.0,5.0,1.0,1.0,1.0,1.0,379.8740150000412,3.0,1.0,phase_1,,,,,,,,,,,,,white,cross
207.0,3.0,3.0,0.0,4.0,4.0,523.6134769997989,3.0,1.0,phase_1,,,,,,,,,,,,,gray,circle
107.0,6.0,2.0,1.0,3.0,3.0,358.8508259999798,3.0,2.0,phase_1,,,,,,,,,,,,,yellow,diamond
193.0,3.0,3.0,0.0,1.0,1.0,424.5204169997123,3.0,2.0,phase_1,,,,,,,,,,,,,gray,circle
74.0,5.0,1.0,1.0,1.0,1.0,391.3067729999966,3.0,1.0,phase_1,,,,,,,,,,,,,white,cross
206.0,7.0,3.0,1.0,3.0,3.0,347.7708880000136,3.0,1.0,phase_1,,,,,,,,,,,,,blue,flipped triangle
183.0,3.0,3.0,0.0,3.0,3.0,405.0507329998254,3.0,1.0,phase_1,,,,,,,,,,,,,gray,circle
424.0,4.0,4.0,0.0,3.0,3.0,372.2155740001653,3.0,1.0,phase_1,,,,,,,,,,,,,cyan,I
39.0,1.0,1.0,0.0,2.0,2.0,417.9942499999924,3.0,1.0,phase_1,,,,,,,,,,,,,orange,triangle
124.0,2.0,2.0,0.0,2.0,2.0,393.8431799997488,3.0,1.0,phase_1,,,,,,,,,,,,,magenta,hexagon
0.0,3.0,0.0,0.0,1.0,1.0,496.9873310001276,3.0,1.0,phase_1,,,,,,,,,,,,,gray,circle
212.0,7.0,3.0,1.0,1.0,1.0,398.7736730000506,3.0,1.0,phase_1,,,,,,,,,,,,,blue,flipped triangle
0.0,5.0,0.0,1.0,1.0,1.0,429.0578799996183,3.0,1.0,phase_1,,,,,,,,,,,,,white,cross
182.0,3.0,3.0,0.0,3.0,3.0,420.8044189999782,3.0,1.0,phase_1,,,,,,,,,,,,,gray,circle
376.0,4.0,4.0,0.0,1.0,1.0,410.163883000223,3.0,1.0,phase_1,,,,,,,,,,,,,cyan,I
50.0,5.0,1.0,1.0,4.0,4.0,532.565416000125,3.0,1.0,phase_1,,,,,,,,,,,,,white,cross
397.0,8.0,4.0,1.0,2.0,2.0,599.5793980000599,3.0,1.0,phase_1,,,,,,,,,,,,,green,square
211.0,3.0,3.0,0.0,2.0,2.0,511.8541390002065,3.0,1.0,phase_1,,,,,,,,,,,,,gray,circle
118.0,2.0,2.0,0.0,1.0,1.0,399.3633889999728,3.0,1.0,phase_1,,,,,,,,,,,,,magenta,hexagon
408.0,8.0,4.0,1.0,1.0,1.0,379.772236000008,3.0,1.0,phase_1,,,,,,,,,,,,,green,square
78.0,6.0,2.0,1.0,4.0,4.0,413.8280390002364,3.0,2.0,phase_1,,,,,,,,,,,,,yellow,diamond
0.0,3.0,0.0,0.0,2.0,2.0,491.0774589998254,3.0,1.0,phase_1,,,,,,,,,,,,,gray,circle
46.0,1.0,1.0,0.0,3.0,3.0,517.7324259998386,3.0,1.0,phase_1,,,,,,,,,,,,,orange,triangle
68.0,5.0,1.0,1.0,4.0,4.0,437.2403139996095,3.0,1.0,phase_1,,,,,,,,,,,,,white,cross
0.0,6.0,0.0,1.0,2.0,2.0,390.4993350001859,3.0,1.0,phase_1,,,,,,,,,,,,,yellow,diamond
57.0,1.0,1.0,0.0,1.0,1.0,372.8475259999868,3.0,1.0,phase_1,,,,,,,,,,,,,orange,triangle
91.0,6.0,2.0,1.0,2.0,2.0,415.1690610001424,3.0,1.0,phase_1,,,,,,,,,,,,,yellow,diamond
182.0,7.0,3.0,1.0,4.0,4.0,437.4172339998949,3.0,1.0,phase_1,,,,,,,,,,,,,blue,flipped triangle
0.0,1.0,0.0,0.0,2.0,2.0,373.2565959999192,3.0,1.0,phase_1,,,,,,,,,,,,,orange,triangle
50.0,1.0,1.0,0.0,2.0,2.0,382.5140899998587,3.0,1.0,phase_1,,,,,,,,,,,,,orange,triangle
211.0,3.0,3.0,0.0,1.0,1.0,564.334879999933,3.0,1.0,phase_1,,,,,,,,,,,,,gray,circle
120.0,2.0,2.0,0.0,1.0,1.0,351.2935869998728,3.0,1.0,phase_1,,,,,,,,,,,,,magenta,hexagon
107.0,6.0,2.0,1.0,4.0,4.0,350.864379000086,3.0,1.0,phase_1,,,,,,,,,,,,,yellow,diamond
122.0,2.0,2.0,0.0,3.0,3.0,992.4500870001792,3.0,1.0,phase_1,,,,,,,,,,,,,magenta,hexagon
30.0,1.0,1.0,0.0,1.0,1.0,959.9552399999992,3.0,1.0,phase_1,,,,,,,,,,,,,orange,triangle
199.0,7.0,3.0,1.0,4.0,4.0,500.19360199985385,3.0,1.0,phase_1,,,,,,,,,,,,,blue,flipped triangle
387.0,8.0,4.0,1.0,2.0,2.0,408.9204410001912,3.0,1.0,phase_1,,,,,,,,,,,,,green,square
205.0,7.0,3.0,1.0,3.0,3.0,436.056883999754,3.0,1.0,phase_1,,,,,,,,,,,,,blue,flipped triangle
62.0,1.0,1.0,0.0,1.0,1.0,387.0474049999757,3.0,1.0,phase_1,,,,,,,,,,,,,orange,triangle
420.0,8.0,4.0,1.0,3.0,3.0,377.7783939999608,3.0,1.0,phase_1,,,,,,,,,,,,,green,square
79.0,2.0,2.0,0.0,3.0,3.0,414.3418460002976,3.0,1.0,phase_1,,,,,,,,,,,,,magenta,hexagon
0.0,1.0,0.0,0.0,2.0,2.0,437.8941340000892,3.0,1.0,phase_1,,,,,,,,,,,,,orange,triangle
100.0,6.0,2.0,1.0,1.0,1.0,460.5117670002983,3.0,1.0,phase_1,,,,,,,,,,,,,yellow,diamond
413.0,4.0,4.0,0.0,4.0,4.0,469.590473000153,3.0,2.0,phase_1,,,,,,,,,,,,,cyan,I
124.0,6.0,2.0,1.0,3.0,3.0,380.0969679996342,3.0,1.0,phase_1,,,,,,,,,,,,,yellow,diamond
197.0,7.0,3.0,1.0,3.0,3.0,383.0729699998301,3.0,1.0,phase_1,,,,,,,,,,,,,blue,flipped triangle
51.0,5.0,1.0,1.0,2.0,2.0,407.4181860000863,3.0,1.0,phase_1,,,,,,,,,,,,,white,cross
178.0,3.0,3.0,0.0,1.0,1.0,418.5673470001347,3.0,1.0,phase_1,,,,,,,,,,,,,gray,circle
392.0,4.0,4.0,0.0,2.0,2.0,394.7780789999342,3.0,1.0,phase_1,,,,,,,,,,,,,cyan,I
0.0,1.0,0.0,0.0,2.0,2.0,409.1474250003557,3.0,1.0,phase_1,,,,,,,,,,,,,orange,triangle
114.0,2.0,2.0,0.0,2.0,2.0,349.7921659995882,3.0,1.0,phase_1,,,,,,,,,,,,,magenta,hexagon
413.0,8.0,4.0,1.0,3.0,3.0,597.6483559998087,3.0,1.0,phase_1,,,,,,,,,,,,,green,square
198.0,7.0,3.0,1.0,3.0,3.0,351.8718790001003,3.0,1.0,phase_1,,,,,,,,,,,,,blue,flipped triangle
0.0,4.0,0.0,0.0,4.0,4.0,455.4096810002193,3.0,1.0,phase_1,,,,,,,,,,,,,cyan,I
192.0,3.0,3.0,0.0,1.0,1.0,738.0641930003549,3.0,1.0,phase_1,,,,,,,,,,,,,gray,circle
45.0,5.0,1.0,1.0,4.0,4.0,387.8254039996136,3.0,1.0,phase_1,,,,,,,,,,,,,white,cross
56.0,5.0,1.0,1.0,3.0,3.0,423.9263730000857,3.0,1.0,phase_1,,,,,,,,,,,,,white,cross
0.0,8.0,0.0,1.0,4.0,4.0,377.0328939999672,3.0,1.0,phase_1,,,,,,,,,,,,,green,square
48.0,1.0,1.0,0.0,1.0,1.0,414.1547950002859,3.0,1.0,phase_1,,,,,,,,,,,,,orange,triangle
390.0,8.0,4.0,1.0,4.0,4.0,447.6681259998258,3.0,1.0,phase_1,,,,,,,,,,,,,green,square
414.0,4.0,4.0,0.0,2.0,2.0,388.6308169999211,3.0,1.0,phase_1,,,,,,,,,,,,,cyan,I
64.0,5.0,1.0,1.0,1.0,1.0,378.7521009999182,3.0,1.0,phase_1,,,,,,,,,,,,,white,cross
0.0,8.0,0.0,1.0,4.0,4.0,446.6520290002336,3.0,1.0,phase_1,,,,,,,,,,,,,green,square
48.0,1.0,1.0,0.0,3.0,3.0,417.5700880000477,3.0,1.0,phase_1,,,,,,,,,,,,,orange,triangle
409.0,8.0,4.0,1.0,1.0,1.0,472.4909460001072,3.0,1.0,phase_1,,,,,,,,,,,,,green,square
39.0,1.0,1.0,0.0,2.0,2.0,381.0448680001173,3.0,1.0,phase_1,,,,,,,,,,,,,orange,triangle
197.0,3.0,3.0,0.0,3.0,3.0,404.210552999757,3.0,1.0,phase_1,,,,,,,,,,,,,gray,circle
0.0,1.0,0.0,0.0,2.0,2.0,430.771464999907,3.0,1.0,phase_1,,,,,,,,,,,,,orange,triangle
384.0,8.0,4.0,1.0,4.0,4.0,419.3272610000349,3.0,1.0,phase_1,,,,,,,,,,,,,green,square
0.0,3.0,0.0,0.0,3.0,3.0,442.0667340000364,3.0,1.0,phase_1,,,,,,,,,,,,,gray,circle
39.0,5.0,1.0,1.0,3.0,3.0,386.8686159999015,3.0,1.0,phase_1,,,,,,,,,,,,,white,cross
218.0,3.0,3.0,0.0,3.0,3.0,383.5741419998157,4.0,1.0,phase_1,,,,,,,,,,,,,gray,circle
384.0,4.0,4.0,0.0,3.0,3.0,317.7588270000342,4.0,1.0,phase_1,,,,,,,,,,,,,cyan,I
178.0,3.0,3.0,0.0,3.0,3.0,398.1425720003244,4.0,1.0,phase_1,,,,,,,,,,,,,gray,circle
88.0,2.0,2.0,0.0,1.0,1.0,441.6363870000168,4.0,1.0,phase_1,,,,,,,,,,,,,magenta,hexagon
375.0,8.0,4.0,1.0,4.0,4.0,320.2984839999772,4.0,1.0,phase_1,,,,,,,,,,,,,green,square
122.0,6.0,2.0,1.0,2.0,2.0,375.6905149998601,4.0,1.0,phase_1,,,,,,,,,,,,,yellow,diamond
110.0,6.0,2.0,1.0,3.0,3.0,365.102841999942,4.0,1.0,phase_1,,,,,,,,,,,,,yellow,diamond
0.0,3.0,0.0,0.0,1.0,1.0,365.7489830002305,4.0,1.0,phase_1,,,,,,,,,,,,,gray,circle
44.0,1.0,1.0,0.0,2.0,2.0,376.8724149999798,4.0,1.0,phase_1,,,,,,,,,,,,,orange,triangle
35.0,1.0,1.0,0.0,2.0,2.0,375.781095000093,4.0,1.0,phase_1,,,,,,,,,,,,,orange,triangle
97.0,2.0,2.0,0.0,1.0,1.0,424.0593280001121,4.0,1.0,phase_1,,,,,,,,,,,,,magenta,hexagon
188.0,3.0,3.0,0.0,2.0,2.0,423.9451929997813,4.0,1.0,phase_1,,,,,,,,,,,,,gray,circle
176.0,7.0,3.0,1.0,4.0,4.0,627.2930540003472,4.0,1.0,phase_1,,,,,,,,,,,,,blue,flipped triangle
35.0,5.0,1.0,1.0,1.0,1.0,425.703515999885,4.0,1.0,phase_1,,,,,,,,,,,,,white,cross
46.0,1.0,1.0,0.0,2.0,2.0,345.2415520000613,4.0,1.0,phase_1,,,,,,,,,,,,,orange,triangle
107.0,2.0,2.0,0.0,2.0,2.0,367.1834270003273,4.0,1.0,phase_1,,,,,,,,,,,,,magenta,hexagon
101.0,2.0,2.0,0.0,4.0,4.0,472.7548250002655,4.0,1.0,phase_1,,,,,,,,,,,,,magenta,hexagon
0.0,5.0,0.0,1.0,4.0,4.0,371.2512820002303,4.0,1.0,phase_1,,,,,,,,,,,,,white,cross
201.0,7.0,3.0,1.0,2.0,2.0,334.5571370000471,4.0,1.0,phase_1,,,,,,,,,,,,,blue,flipped triangle
56.0,5.0,1.0,1.0,3.0,3.0,461.7015599997103,4.0,1.0,phase_1,,,,,,,,,,,,,white,cross
0.0,1.0,0.0,0.0,2.0,2.0,383.7360060001629,4.0,1.0,phase_1,,,,,,,,,,,,,orange,triangle
396.0,8.0,4.0,1.0,1.0,1.0,595.2136669998254,4.0,1.0,phase_1,,,,,,,,,,,,,green,square
381.0,8.0,4.0,1.0,2.0,2.0,351.179602999764,4.0,1.0,phase_1,,,,,,,,,,,,,green,square
101.0,2.0,2.0,0.0,3.0,3.0,351.37029099996647,4.0,1.0,phase_1,,,,,,,,,,,,,magenta,hexagon
393.0,4.0,4.0,0.0,4.0,4.0,372.1645890000218,4.0,1.0,phase_1,,,,,,,,,,,,,cyan,I
220.0,3.0,3.0,0.0,4.0,4.0,812.3250809999263,4.0,1.0,phase_1,,,,,,,,,,,,,gray,circle
108.0,6.0,2.0,1.0,3.0,3.0,364.2200379999849,4.0,1.0,phase_1,,,,,,,,,,,,,yellow,diamond
35.0,1.0,1.0,0.0,1.0,1.0,556.0641259999102,4.0,1.0,phase_1,,,,,,,,,,,,,orange,triangle
27.0,5.0,1.0,1.0,3.0,3.0,578.4597880001456,4.0,1.0,phase_1,,,,,,,,,,,,,white,cross
396.0,4.0,4.0,0.0,4.0,4.0,555.7310770000186,4.0,1.0,phase_1,,,,,,,,,,,,,cyan,I
93.0,2.0,2.0,0.0,3.0,3.0,386.649916999886,4.0,1.0,phase_1,,,,,,,,,,,,,magenta,hexagon
94.0,2.0,2.0,0.0,1.0,1.0,613.9537019998897,4.0,1.0,phase_1,,,,,,,,,,,,,magenta,hexagon
387.0,4.0,4.0,0.0,1.0,1.0,479.4119409998529,4.0,1.0,phase_1,,,,,,,,,,,,,cyan,I
118.0,6.0,2.0,1.0,1.0,1.0,414.1871510000783,4.0,1.0,phase_1,,,,,,,,,,,,,yellow,diamond
220.0,7.0,3.0,1.0,2.0,2.0,380.8470679996389,4.0,1.0,phase_1,,,,,,,,,,,,,blue,flipped triangle
408.0,4.0,4.0,0.0,3.0,3.0,336.3035070001388,4.0,1.0,phase_1,,,,,,,,,,,,,cyan,I
0.0,4.0,0.0,0.0,1.0,1.0,379.0292770004271,4.0,1.0,phase_1,,,,,,,,,,,,,cyan,I
178.0,7.0,3.0,1.0,3.0,3.0,424.9773599999571,4.0,1.0,phase_1,,,,,,,,,,,,,blue,flipped triangle
192.0,7.0,3.0,1.0,3.0,3.0,404.2263110000021,4.0,1.0,phase_1,,,,,,,,,,,,,blue,flipped triangle
56.0,5.0,1.0,1.0,2.0,2.0,436.8478549999963,4.0,1.0,phase_1,,,,,,,,,,,,,white,cross
375.0,4.0,4.0,0.0,3.0,3.0,361.1313920000611,4.0,1.0,phase_1,,,,,,,,,,,,,cyan,I
376.0,4.0,4.0,0.0,2.0,2.0,347.9196869998304,4.0,1.0,phase_1,,,,,,,,,,,,,cyan,I
181.0,7.0,3.0,1.0,1.0,1.0,847.6996710001004,4.0,1.0,phase_1,,,,,,,,,,,,,blue,flipped triangle
180.0,7.0,3.0,1.0,2.0,2.0,476.8011139999544,4.0,1.0,phase_1,,,,,,,,,,,,,blue,flipped triangle
0.0,7.0,0.0,1.0,2.0,2.0,498.0911479997303,4.0,1.0,phase_1,,,,,,,,,,,,,blue,flipped triangle
0.0,1.0,0.0,0.0,3.0,3.0,489.0146330003517,4.0,1.0,phase_1,,,,,,,,,,,,,orange,triangle
28.0,1.0,1.0,0.0,4.0,4.0,755.6594939997012,4.0,1.0,phase_1,,,,,,,,,,,,,orange,triangle
224.0,3.0,3.0,0.0,1.0,1.0,408.3757849998619,4.0,1.0,phase_1,,,,,,,,,,,,,gray,circle
0.0,2.0,0.0,0.0,1.0,1.0,408.4198999998989,4.0,1.0,phase_1,,,,,,,,,,,,,magenta,hexagon
381.0,4.0,4.0,0.0,3.0,3.0,375.7120259997464,4.0,1.0,phase_1,,,,,,,,,,,,,cyan,I
61.0,5.0,1.0,1.0,1.0,1.0,422.2565469999608,4.0,1.0,phase_1,,,,,,,,,,,,,white,cross
0.0,6.0,0.0,1.0,2.0,2.0,522.1580639999956,4.0,1.0,phase_1,,,,,,,,,,,,,yellow,diamond
0.0,4.0,0.0,0.0,1.0,1.0,390.8194669998011,4.0,1.0,phase_1,,,,,,,,,,,,,cyan,I
72.0,5.0,1.0,1.0,3.0,3.0,335.3771450001659,4.0,1.0,phase_1,,,,,,,,,,,,,white,cross
0.0,1.0,0.0,0.0,2.0,2.0,369.3805550001343,4.0,1.0,phase_1,,,,,,,,,,,,,orange,triangle
0.0,5.0,0.0,1.0,3.0,3.0,539.6638709999024,4.0,1.0,phase_1,,,,,,,,,,,,,white,cross
175.0,3.0,3.0,0.0,3.0,3.0,413.1976450003094,4.0,1.0,phase_1,,,,,,,,,,,,,gray,circle
206.0,3.0,3.0,0.0,2.0,2.0,367.8604669999004,4.0,1.0,phase_1,,,,,,,,,,,,,gray,circle
406.0,4.0,4.0,0.0,4.0,4.0,404.4246319999729,4.0,1.0,phase_1,,,,,,,,,,,,,cyan,I
105.0,6.0,2.0,1.0,3.0,3.0,608.5933639997165,4.0,1.0,phase_1,,,,,,,,,,,,,yellow,diamond
37.0,1.0,1.0,0.0,3.0,3.0,507.84510899984525,4.0,1.0,phase_1,,,,,,,,,,,,,orange,triangle
87.0,6.0,2.0,1.0,2.0,2.0,371.2722010000107,4.0,1.0,phase_1,,,,,,,,,,,,,yellow,diamond
0.0,4.0,0.0,0.0,2.0,2.0,438.5798469998008,4.0,1.0,phase_1,,,,,,,,,,,,,cyan,I
420.0,4.0,4.0,0.0,2.0,2.0,359.5626920000541,4.0,1.0,phase_1,,,,,,,,,,,,,cyan,I
423.0,8.0,4.0,1.0,1.0,1.0,578.6130989999947,4.0,1.0,phase_1,,,,,,,,,,,,,green,square
78.0,2.0,2.0,0.0,2.0,2.0,429.1522809999151,4.0,1.0,phase_1,,,,,,,,,,,,,magenta,hexagon
0.0,1.0,0.0,0.0,4.0,4.0,375.7418690001941,4.0,1.0,phase_1,,,,,,,,,,,,,orange,triangle
420.0,4.0,4.0,0.0,4.0,4.0,464.1531699999177,4.0,1.0,phase_1,,,,,,,,,,,,,cyan,I
55.0,1.0,1.0,0.0,3.0,3.0,378.3046470002773,4.0,1.0,phase_1,,,,,,,,,,,,,orange,triangle
211.0,7.0,3.0,1.0,2.0,2.0,367.1614230001978,4.0,1.0,phase_1,,,,,,,,,,,,,blue,flipped triangle
89.0,6.0,2.0,1.0,4.0,4.0,423.4453730000496,4.0,1.0,phase_1,,,,,,,,,,,,,yellow,diamond
396.0,4.0,4.0,0.0,3.0,3.0,355.1806709997436,4.0,1.0,phase_1,,,,,,,,,,,,,cyan,I
179.0,3.0,3.0,0.0,4.0,4.0,511.3148710001951,4.0,1.0,phase_1,,,,,,,,,,,,,gray,circle
408.0,8.0,4.0,1.0,1.0,1.0,425.1824569996643,4.0,1.0,phase_1,,,,,,,,,,,,,green,square
393.0,8.0,4.0,1.0,2.0,2.0,356.7893960002948,4.0,1.0,phase_1,,,,,,,,,,,,,green,square
404.0,8.0,4.0,1.0,2.0,2.0,389.2534459996568,4.0,1.0,phase_1,,,,,,,,,,,,,green,square
221.0,7.0,3.0,1.0,1.0,1.0,898.0469650000487,4.0,1.0,phase_1,,,,,,,,,,,,,blue,flipped triangle
404.0,4.0,4.0,0.0,4.0,4.0,536.4500519999638,4.0,1.0,phase_1,,,,,,,,,,,,,cyan,I
406.0,8.0,4.0,1.0,4.0,4.0,382.7986889996282,4.0,1.0,phase_1,,,,,,,,,,,,,green,square
205.0,3.0,3.0,0.0,4.0,4.0,371.0224289998223,4.0,1.0,phase_1,,,,,,,,,,,,,gray,circle
222.0,3.0,3.0,0.0,2.0,2.0,425.8685589998094,4.0,1.0,phase_1,,,,,,,,,,,,,gray,circle
0.0,7.0,0.0,1.0,3.0,3.0,441.5850639998098,4.0,1.0,phase_1,,,,,,,,,,,,,blue,flipped triangle
409.0,4.0,4.0,0.0,4.0,4.0,351.5699139998105,4.0,1.0,phase_1,,,,,,,,,,,,,cyan,I
81.0,2.0,2.0,0.0,1.0,1.0,476.5234000001328,4.0,1.0,phase_1,,,,,,,,,,,,,magenta,hexagon
92.0,6.0,2.0,1.0,2.0,2.0,395.9868100000676,4.0,1.0,phase_1,,,,,,,,,,,,,yellow,diamond
39.0,5.0,1.0,1.0,2.0,2.0,488.7738579996039,4.0,1.0,phase_1,,,,,,,,,,,,,white,cross
51.0,1.0,1.0,0.0,4.0,4.0,665.1653690000785,4.0,1.0,phase_1,,,,,,,,,,,,,orange,triangle
390.0,8.0,4.0,1.0,1.0,1.0,430.7581089997256,4.0,1.0,phase_1,,,,,,,,,,,,,green,square
188.0,7.0,3.0,1.0,1.0,1.0,455.823533000057,4.0,1.0,phase_1,,,,,,,,,,,,,blue,flipped triangle
62.0,5.0,1.0,1.0,1.0,1.0,388.7537310001789,4.0,1.0,phase_1,,,,,,,,,,,,,white,cross
423.0,4.0,4.0,0.0,1.0,1.0,363.7790199995834,4.0,1.0,phase_1,,,,,,,,,,,,,cyan,I
213.0,7.0,3.0,1.0,2.0,2.0,442.3324449999199,4.0,1.0,phase_1,,,,,,,,,,,,,blue,flipped triangle
0.0,5.0,0.0,1.0,2.0,2.0,380.1743779999924,4.0,1.0,phase_1,,,,,,,,,,,,,white,cross
66.0,5.0,1.0,1.0,4.0,4.0,479.5946169997478,4.0,1.0,phase_1,,,,,,,,,,,,,white,cross
188.0,7.0,3.0,1.0,4.0,4.0,376.9956490000368,4.0,1.0,phase_1,,,,,,,,,,,,,blue,flipped triangle
93.0,6.0,2.0,1.0,3.0,3.0,514.9679449996256,4.0,1.0,phase_1,,,,,,,,,,,,,yellow,diamond
383.0,8.0,4.0,1.0,2.0,2.0,584.5702160004294,4.0,1.0,phase_1,,,,,,,,,,,,,green,square
35.0,5.0,1.0,1.0,4.0,4.0,435.221595999792,4.0,1.0,phase_1,,,,,,,,,,,,,white,cross
188.0,3.0,3.0,0.0,3.0,3.0,538.9673250001579,4.0,1.0,phase_1,,,,,,,,,,,,,gray,circle
101.0,2.0,2.0,0.0,2.0,2.0,515.9523319998698,4.0,1.0,phase_1,,,,,,,,,,,,,magenta,hexagon
0.0,8.0,4.0,1.0,5.0,5.0,1064.635949000149,1.0,1.0,phase_2,go,250.0,250.0,1.0,,,,,,,,,green,square
0.0,3.0,3.0,0.0,6.0,6.0,346.9885179997618,1.0,1.0,phase_2,go,250.0,250.0,1.0,,,,,,,,,gray,circle
0.0,4.0,4.0,0.0,6.0,6.0,583.2558719998815,1.0,1.0,phase_2,go,250.0,250.0,1.0,,,,,,,,,cyan,I
0.0,7.0,3.0,1.0,6.0,6.0,583.4379370003262,1.0,1.0,phase_2,go,250.0,250.0,1.0,,,,,,,,,blue,flipped triangle
0.0,4.0,4.0,0.0,5.0,5.0,948.3929520001766,1.0,1.0,phase_2,go,250.0,250.0,1.0,,,,,,,,,cyan,I
0.0,2.0,2.0,0.0,5.0,5.0,777.7532390000488,1.0,1.0,phase_2,go,250.0,250.0,1.0,,,,,,,,,magenta,hexagon
0.0,7.0,3.0,1.0,5.0,5.0,871.1529190004512,1.0,1.0,phase_2,go,250.0,250.0,1.0,,,,,,,,,blue,flipped triangle
0.0,6.0,2.0,1.0,5.0,0.0,0.0,1.0,1.0,phase_2,stop,250.0,250.0,4.0,,,,,,,,,yellow,diamond
0.0,8.0,4.0,1.0,6.0,0.0,0.0,1.0,1.0,phase_2,stop,300.0,250.0,4.0,,,,,,,,,green,square
0.0,2.0,2.0,0.0,6.0,6.0,1007.9303720003736,1.0,1.0,phase_2,go,300.0,300.0,1.0,,,,,,,,,magenta,hexagon
0.0,4.0,4.0,0.0,6.0,6.0,738.9227779995053,1.0,1.0,phase_2,go,300.0,300.0,1.0,,,,,,,,,cyan,I
0.0,6.0,2.0,1.0,5.0,0.0,0.0,1.0,1.0,phase_2,stop,300.0,300.0,4.0,,,,,,,,,yellow,diamond
0.0,2.0,2.0,0.0,6.0,6.0,728.1518159998086,1.0,1.0,phase_2,go,350.0,300.0,1.0,,,,,,,,,magenta,hexagon
0.0,6.0,2.0,1.0,5.0,0.0,0.0,1.0,1.0,phase_2,stop,350.0,300.0,4.0,,,,,,,,,yellow,diamond
0.0,6.0,2.0,1.0,6.0,0.0,0.0,1.0,1.0,phase_2,stop,400.0,300.0,4.0,,,,,,,,,yellow,diamond
0.0,6.0,2.0,1.0,5.0,0.0,0.0,1.0,1.0,phase_2,stop,400.0,350.0,4.0,,,,,,,,,yellow,diamond
0.0,1.0,1.0,0.0,6.0,6.0,945.9818779996568,1.0,1.0,phase_2,go,450.0,350.0,1.0,,,,,,,,,orange,triangle
0.0,8.0,4.0,1.0,6.0,0.0,0.0,1.0,1.0,phase_2,stop,450.0,350.0,4.0,,,,,,,,,green,square
0.0,6.0,2.0,1.0,6.0,0.0,0.0,1.0,1.0,phase_2,stop,450.0,400.0,4.0,,,,,,,,,yellow,diamond
0.0,2.0,2.0,0.0,6.0,6.0,900.6069550005122,1.0,1.0,phase_2,go,450.0,450.0,1.0,,,,,,,,,magenta,hexagon
0.0,6.0,2.0,1.0,6.0,0.0,0.0,1.0,1.0,phase_2,stop,450.0,450.0,4.0,,,,,,,,,yellow,diamond
0.0,3.0,3.0,0.0,5.0,5.0,790.0628830002461,1.0,1.0,phase_2,go,450.0,500.0,1.0,,,,,,,,,gray,circle
0.0,6.0,2.0,1.0,6.0,0.0,0.0,1.0,1.0,phase_2,stop,450.0,500.0,4.0,,,,,,,,,yellow,diamond
0.0,2.0,2.0,0.0,5.0,5.0,726.2845850000303,1.0,1.0,phase_2,go,450.0,550.0,1.0,,,,,,,,,magenta,hexagon
0.0,3.0,3.0,0.0,5.0,5.0,896.8306050001047,1.0,1.0,phase_2,go,450.0,550.0,1.0,,,,,,,,,gray,circle
0.0,3.0,3.0,0.0,5.0,5.0,795.4099250000581,1.0,1.0,phase_2,go,450.0,550.0,1.0,,,,,,,,,gray,circle
0.0,7.0,3.0,1.0,6.0,0.0,0.0,1.0,1.0,phase_2,stop,450.0,550.0,4.0,,,,,,,,,blue,flipped triangle
0.0,4.0,4.0,0.0,6.0,6.0,717.7176390005116,1.0,1.0,phase_2,go,450.0,600.0,1.0,,,,,,,,,cyan,I
0.0,3.0,3.0,0.0,6.0,6.0,1001.871987999948,1.0,1.0,phase_2,go,450.0,600.0,1.0,,,,,,,,,gray,circle
0.0,7.0,3.0,1.0,6.0,6.0,708.5312080007498,1.0,1.0,phase_2,stop,450.0,600.0,3.0,,,,,,,,,blue,flipped triangle
0.0,4.0,4.0,0.0,5.0,5.0,1417.0614959994057,1.0,1.0,phase_2,go,450.0,550.0,1.0,,,,,,,,,cyan,I
0.0,5.0,1.0,1.0,6.0,0.0,0.0,1.0,1.0,phase_2,stop,450.0,550.0,4.0,,,,,,,,,white,cross
0.0,8.0,4.0,1.0,6.0,6.0,746.452505999514,1.0,1.0,phase_2,stop,450.0,600.0,3.0,,,,,,,,,green,square
0.0,4.0,4.0,0.0,6.0,6.0,1127.580018000117,1.0,1.0,phase_2,go,450.0,550.0,1.0,,,,,,,,,cyan,I
0.0,8.0,4.0,1.0,5.0,0.0,0.0,1.0,1.0,phase_2,stop,450.0,550.0,4.0,,,,,,,,,green,square
0.0,8.0,4.0,1.0,6.0,0.0,0.0,1.0,1.0,phase_2,stop,500.0,550.0,4.0,,,,,,,,,green,square
0.0,6.0,2.0,1.0,6.0,0.0,0.0,2.0,1.0,phase_2,stop,500.0,600.0,4.0,,,,,,,,,yellow,diamond
0.0,4.0,4.0,0.0,5.0,5.0,395.3855319996364,2.0,1.0,phase_2,go,500.0,650.0,1.0,,,,,,,,,cyan,I
0.0,8.0,4.0,1.0,5.0,5.0,431.4506299997447,2.0,1.0,phase_2,stop,500.0,650.0,3.0,,,,,,,,,green,square
0.0,3.0,3.0,0.0,6.0,6.0,496.3338180004939,2.0,1.0,phase_2,go,450.0,650.0,1.0,,,,,,,,,gray,circle
0.0,2.0,2.0,0.0,5.0,5.0,433.00318899946427,2.0,1.0,phase_2,go,450.0,650.0,1.0,,,,,,,,,magenta,hexagon
0.0,7.0,3.0,1.0,5.0,5.0,321.1364310000135,2.0,1.0,phase_2,stop,450.0,650.0,3.0,,,,,,,,,blue,flipped triangle
0.0,1.0,1.0,0.0,5.0,5.0,1478.3091469998908,2.0,1.0,phase_2,go,400.0,650.0,1.0,,,,,,,,,orange,triangle
0.0,4.0,4.0,0.0,5.0,5.0,467.21729199998657,2.0,1.0,phase_2,go,400.0,650.0,1.0,,,,,,,,,cyan,I
0.0,5.0,1.0,1.0,5.0,5.0,425.0165639996339,2.0,1.0,phase_2,stop,400.0,650.0,3.0,,,,,,,,,white,cross
0.0,1.0,1.0,0.0,6.0,6.0,549.8225040000762,2.0,1.0,phase_2,go,350.0,650.0,1.0,,,,,,,,,orange,triangle
0.0,3.0,3.0,0.0,5.0,5.0,525.2674920002391,2.0,1.0,phase_2,go,350.0,650.0,1.0,,,,,,,,,gray,circle
0.0,2.0,2.0,0.0,6.0,6.0,597.3483830002806,2.0,1.0,phase_2,go,350.0,650.0,1.0,,,,,,,,,magenta,hexagon
0.0,6.0,2.0,1.0,5.0,5.0,461.6794699995807,2.0,1.0,phase_2,stop,350.0,650.0,3.0,,,,,,,,,yellow,diamond
0.0,1.0,1.0,0.0,6.0,6.0,564.3422399998599,2.0,1.0,phase_2,go,300.0,650.0,1.0,,,,,,,,,orange,triangle
0.0,8.0,4.0,1.0,5.0,5.0,497.9365090002829,2.0,1.0,phase_2,stop,300.0,650.0,3.0,,,,,,,,,green,square
0.0,3.0,3.0,0.0,5.0,5.0,743.2467280004857,2.0,1.0,phase_2,go,250.0,650.0,1.0,,,,,,,,,gray,circle
0.0,2.0,2.0,0.0,6.0,6.0,601.6557990005822,2.0,1.0,phase_2,go,250.0,650.0,1.0,,,,,,,,,magenta,hexagon
0.0,5.0,1.0,1.0,6.0,6.0,373.9367130001483,2.0,1.0,phase_2,go,250.0,650.0,1.0,,,,,,,,,white,cross
0.0,7.0,3.0,1.0,6.0,6.0,670.7302799995887,2.0,1.0,phase_2,stop,250.0,650.0,3.0,,,,,,,,,blue,flipped triangle
0.0,8.0,4.0,1.0,5.0,5.0,693.3205320001434,2.0,1.0,phase_2,go,250.0,600.0,1.0,,,,,,,,,green,square
0.0,2.0,2.0,0.0,5.0,5.0,512.9044430004797,2.0,1.0,phase_2,go,250.0,600.0,1.0,,,,,,,,,magenta,hexagon
0.0,4.0,4.0,0.0,6.0,6.0,796.9443910005793,2.0,1.0,phase_2,go,250.0,600.0,1.0,,,,,,,,,cyan,I
0.0,1.0,1.0,0.0,5.0,5.0,695.8573900001284,2.0,1.0,phase_2,go,250.0,600.0,1.0,,,,,,,,,orange,triangle
0.0,2.0,2.0,0.0,6.0,6.0,670.7968999999139,2.0,1.0,phase_2,go,250.0,600.0,1.0,,,,,,,,,magenta,hexagon
0.0,3.0,3.0,0.0,6.0,6.0,753.6853649999102,2.0,1.0,phase_2,go,250.0,600.0,1.0,,,,,,,,,gray,circle
0.0,8.0,4.0,1.0,5.0,0.0,0.0,2.0,1.0,phase_2,stop,250.0,600.0,4.0,,,,,,,,,green,square
0.0,3.0,3.0,0.0,6.0,6.0,875.6805460006944,2.0,1.0,phase_2,go,300.0,600.0,1.0,,,,,,,,,gray,circle
0.0,2.0,2.0,0.0,5.0,5.0,496.896442000434,2.0,1.0,phase_2,go,300.0,600.0,1.0,,,,,,,,,magenta,hexagon
0.0,6.0,2.0,1.0,5.0,5.0,338.3702849996552,2.0,1.0,phase_2,stop,300.0,600.0,3.0,,,,,,,,,yellow,diamond
0.0,3.0,3.0,0.0,6.0,6.0,529.3142470000021,2.0,1.0,phase_2,go,250.0,600.0,1.0,,,,,,,,,gray,circle
0.0,7.0,3.0,1.0,5.0,5.0,354.8961180003971,2.0,1.0,phase_2,stop,250.0,600.0,3.0,,,,,,,,,blue,flipped triangle
0.0,5.0,1.0,1.0,5.0,0.0,0.0,2.0,1.0,phase_2,stop,200.0,600.0,4.0,,,,,,,,,white,cross
0.0,5.0,1.0,1.0,5.0,0.0,0.0,2.0,1.0,phase_2,stop,250.0,600.0,4.0,,,,,,,,,white,cross
0.0,4.0,4.0,0.0,5.0,5.0,748.8403930001368,2.0,1.0,phase_2,go,300.0,600.0,1.0,,,,,,,,,cyan,I
0.0,5.0,1.0,1.0,6.0,6.0,387.6100220004446,2.0,1.0,phase_2,stop,300.0,600.0,3.0,,,,,,,,,white,cross
0.0,2.0,2.0,0.0,6.0,6.0,546.7934610005614,2.0,1.0,phase_2,go,300.0,550.0,1.0,,,,,,,,,magenta,hexagon
0.0,4.0,4.0,0.0,6.0,6.0,1018.7433679993774,3.0,1.0,phase_2,go,300.0,550.0,1.0,,,,,,,,,cyan,I
0.0,6.0,2.0,1.0,5.0,5.0,264.1155430001163,3.0,1.0,phase_2,go,300.0,550.0,1.0,,,,,,,,,yellow,diamond
0.0,1.0,1.0,0.0,6.0,6.0,234.7322129999156,3.0,1.0,phase_2,go,300.0,550.0,1.0,,,,,,,,,orange,triangle
0.0,1.0,1.0,0.0,6.0,6.0,313.0286460000206,3.0,1.0,phase_2,go,300.0,550.0,1.0,,,,,,,,,orange,triangle
0.0,8.0,4.0,1.0,5.0,5.0,282.2041649997118,3.0,1.0,phase_2,stop,300.0,550.0,3.0,,,,,,,,,green,square
0.0,8.0,4.0,1.0,6.0,6.0,316.3519330000781,3.0,1.0,phase_2,stop,250.0,550.0,3.0,,,,,,,,,green,square
0.0,7.0,3.0,1.0,6.0,6.0,315.232907999416,3.0,1.0,phase_2,stop,250.0,500.0,3.0,,,,,,,,,blue,flipped triangle
0.0,1.0,1.0,0.0,5.0,5.0,237.6965209996342,3.0,1.0,phase_2,go,250.0,450.0,1.0,,,,,,,,,orange,triangle
0.0,6.0,2.0,1.0,5.0,5.0,274.3343409993031,3.0,1.0,phase_2,go,250.0,450.0,1.0,,,,,,,,,yellow,diamond
0.0,4.0,4.0,0.0,6.0,6.0,282.1305070001472,3.0,1.0,phase_2,go,250.0,450.0,1.0,,,,,,,,,cyan,I
0.0,4.0,4.0,0.0,5.0,5.0,295.4106499992122,3.0,1.0,phase_2,go,250.0,450.0,1.0,,,,,,,,,cyan,I
0.0,5.0,1.0,1.0,6.0,6.0,253.45616300000978,3.0,1.0,phase_2,stop,250.0,450.0,3.0,,,,,,,,,white,cross
0.0,7.0,3.0,1.0,5.0,5.0,331.9517300005827,3.0,1.0,phase_2,stop,250.0,400.0,3.0,,,,,,,,,blue,flipped triangle
0.0,1.0,1.0,0.0,5.0,5.0,454.6886240004824,3.0,1.0,phase_2,go,200.0,400.0,1.0,,,,,,,,,orange,triangle
0.0,8.0,4.0,1.0,6.0,6.0,435.8475789995282,3.0,1.0,phase_2,go,200.0,400.0,1.0,,,,,,,,,green,square
0.0,4.0,4.0,0.0,5.0,5.0,289.824287000556,3.0,1.0,phase_2,go,200.0,400.0,1.0,,,,,,,,,cyan,I
0.0,3.0,3.0,0.0,5.0,5.0,347.31002099943,3.0,1.0,phase_2,go,200.0,400.0,1.0,,,,,,,,,gray,circle
0.0,3.0,3.0,0.0,6.0,6.0,290.8627769993472,3.0,1.0,phase_2,go,200.0,400.0,1.0,,,,,,,,,gray,circle
0.0,1.0,1.0,0.0,5.0,5.0,326.2748479992297,3.0,1.0,phase_2,go,200.0,400.0,1.0,,,,,,,,,orange,triangle
0.0,5.0,1.0,1.0,6.0,6.0,304.4993409994276,3.0,1.0,phase_2,stop,200.0,400.0,3.0,,,,,,,,,white,cross
0.0,8.0,4.0,1.0,6.0,6.0,371.2538199997652,3.0,1.0,phase_2,stop,200.0,350.0,3.0,,,,,,,,,green,square
0.0,3.0,3.0,0.0,6.0,6.0,404.3548449999434,3.0,1.0,phase_2,go,200.0,300.0,1.0,,,,,,,,,gray,circle
0.0,1.0,1.0,0.0,5.0,5.0,293.5636600004727,3.0,1.0,phase_2,go,200.0,300.0,1.0,,,,,,,,,orange,triangle
0.0,1.0,1.0,0.0,5.0,5.0,306.4918660002149,3.0,1.0,phase_2,go,200.0,300.0,1.0,,,,,,,,,orange,triangle
0.0,4.0,4.0,0.0,6.0,6.0,376.2094660005459,3.0,1.0,phase_2,go,200.0,300.0,1.0,,,,,,,,,cyan,I
0.0,7.0,3.0,1.0,5.0,5.0,362.8336629999467,3.0,1.0,phase_2,stop,200.0,300.0,3.0,,,,,,,,,blue,flipped triangle
0.0,5.0,1.0,1.0,5.0,0.0,0.0,3.0,1.0,phase_2,stop,150.0,300.0,4.0,,,,,,,,,white,cross
0.0,2.0,2.0,0.0,5.0,5.0,409.873872999924,3.0,1.0,phase_2,go,200.0,300.0,1.0,,,,,,,,,magenta,hexagon
0.0,6.0,2.0,1.0,6.0,6.0,321.3812549993236,3.0,1.0,phase_2,stop,200.0,300.0,3.0,,,,,,,,,yellow,diamond
0.0,6.0,2.0,1.0,5.0,5.0,435.0242789996628,3.0,1.0,phase_2,go,200.0,250.0,1.0,,,,,,,,,yellow,diamond
0.0,4.0,4.0,0.0,5.0,5.0,369.814450999911,3.0,1.0,phase_2,go,200.0,250.0,1.0,,,,,,,,,cyan,I
0.0,1.0,1.0,0.0,5.0,5.0,371.2105889999293,3.0,1.0,phase_2,go,200.0,250.0,1.0,,,,,,,,,orange,triangle
0.0,7.0,3.0,1.0,6.0,6.0,371.0845750001681,3.0,1.0,phase_2,stop,200.0,250.0,3.0,,,,,,,,,blue,flipped triangle
0.0,6.0,2.0,1.0,6.0,6.0,381.3022630001796,3.0,1.0,phase_2,stop,200.0,200.0,3.0,,,,,,,,,yellow,diamond
0.0,1.0,1.0,0.0,5.0,5.0,291.406643999835,3.0,1.0,phase_2,go,200.0,150.0,1.0,,,,,,,,,orange,triangle
0.0,6.0,2.0,1.0,5.0,5.0,363.5652439998011,3.0,1.0,phase_2,go,200.0,150.0,1.0,,,,,,,,,yellow,diamond
0.0,5.0,1.0,1.0,5.0,5.0,339.1634709996651,4.0,1.0,phase_2,go,200.0,150.0,1.0,,,,,,,,,white,cross
0.0,7.0,3.0,1.0,5.0,5.0,460.7422119997864,4.0,1.0,phase_2,stop,200.0,150.0,3.0,,,,,,,,,blue,flipped triangle
0.0,5.0,1.0,1.0,5.0,5.0,328.9595879996341,4.0,1.0,phase_2,stop,150.0,150.0,3.0,,,,,,,,,white,cross
0.0,7.0,3.0,1.0,5.0,5.0,307.877580999957,4.0,1.0,phase_2,stop,100.0,150.0,3.0,,,,,,,,,blue,flipped triangle
0.0,2.0,2.0,0.0,5.0,5.0,387.2711599997274,4.0,1.0,phase_2,go,50.0,150.0,1.0,,,,,,,,,magenta,hexagon
0.0,5.0,1.0,1.0,6.0,6.0,397.0607230003224,4.0,1.0,phase_2,stop,50.0,150.0,3.0,,,,,,,,,white,cross
0.0,7.0,3.0,1.0,6.0,6.0,375.6634530000156,4.0,1.0,phase_2,stop,50.0,100.0,3.0,,,,,,,,,blue,flipped triangle
0.0,3.0,3.0,0.0,6.0,6.0,556.8116550002742,4.0,1.0,phase_2,go,50.0,50.0,1.0,,,,,,,,,gray,circle
0.0,4.0,4.0,0.0,6.0,6.0,343.4443689993713,4.0,1.0,phase_2,go,50.0,50.0,1.0,,,,,,,,,cyan,I
0.0,8.0,4.0,1.0,6.0,0.0,0.0,4.0,1.0,phase_2,stop,50.0,50.0,4.0,,,,,,,,,green,square
0.0,6.0,2.0,1.0,6.0,0.0,0.0,4.0,1.0,phase_2,stop,50.0,100.0,4.0,,,,,,,,,yellow,diamond
0.0,6.0,2.0,1.0,6.0,0.0,0.0,4.0,1.0,phase_2,stop,50.0,150.0,4.0,,,,,,,,,yellow,diamond
0.0,2.0,2.0,0.0,5.0,5.0,369.6151639996969,4.0,1.0,phase_2,go,50.0,200.0,1.0,,,,,,,,,magenta,hexagon
0.0,4.0,4.0,0.0,5.0,5.0,289.8297050005567,4.0,1.0,phase_2,go,50.0,200.0,1.0,,,,,,,,,cyan,I
0.0,1.0,1.0,0.0,6.0,6.0,440.0954430002457,4.0,1.0,phase_2,go,50.0,200.0,1.0,,,,,,,,,orange,triangle
0.0,8.0,4.0,1.0,5.0,0.0,0.0,4.0,1.0,phase_2,stop,50.0,200.0,4.0,,,,,,,,,green,square
0.0,8.0,4.0,1.0,6.0,6.0,543.3815300002607,4.0,1.0,phase_2,go,100.0,200.0,1.0,,,,,,,,,green,square
0.0,4.0,4.0,0.0,6.0,6.0,330.2907389997926,4.0,1.0,phase_2,go,100.0,200.0,1.0,,,,,,,,,cyan,I
0.0,5.0,1.0,1.0,6.0,6.0,554.3759399997725,4.0,1.0,phase_2,go,100.0,200.0,1.0,,,,,,,,,white,cross
0.0,8.0,4.0,1.0,5.0,0.0,0.0,4.0,1.0,phase_2,stop,100.0,200.0,4.0,,,,,,,,,green,square
0.0,1.0,1.0,0.0,5.0,5.0,633.6962300001687,4.0,1.0,phase_2,go,150.0,200.0,1.0,,,,,,,,,orange,triangle
0.0,7.0,3.0,1.0,6.0,6.0,559.1766219995407,4.0,1.0,phase_2,go,150.0,200.0,1.0,,,,,,,,,blue,flipped triangle
0.0,1.0,1.0,0.0,6.0,6.0,390.9527840005466,4.0,1.0,phase_2,go,150.0,200.0,1.0,,,,,,,,,orange,triangle
0.0,8.0,4.0,1.0,5.0,5.0,334.1834499997276,4.0,1.0,phase_2,stop,150.0,200.0,3.0,,,,,,,,,green,square
0.0,6.0,2.0,1.0,5.0,0.0,0.0,4.0,1.0,phase_2,stop,100.0,200.0,4.0,,,,,,,,,yellow,diamond
0.0,8.0,4.0,1.0,5.0,0.0,0.0,4.0,1.0,phase_2,stop,150.0,200.0,4.0,,,,,,,,,green,square
0.0,4.0,4.0,0.0,5.0,5.0,484.3333079998047,4.0,1.0,phase_2,go,200.0,200.0,1.0,,,,,,,,,cyan,I
0.0,5.0,1.0,1.0,5.0,5.0,382.3737390002861,4.0,1.0,phase_2,stop,200.0,200.0,3.0,,,,,,,,,white,cross
0.0,2.0,2.0,0.0,5.0,5.0,350.7947699999931,4.0,1.0,phase_2,go,150.0,200.0,1.0,,,,,,,,,magenta,hexagon
0.0,1.0,1.0,0.0,6.0,6.0,325.7075929996063,4.0,1.0,phase_2,go,150.0,200.0,1.0,,,,,,,,,orange,triangle
0.0,7.0,3.0,1.0,6.0,6.0,318.7189959999159,4.0,1.0,phase_2,go,150.0,200.0,1.0,,,,,,,,,blue,flipped triangle
0.0,1.0,1.0,0.0,6.0,6.0,376.7251149993171,4.0,1.0,phase_2,go,150.0,200.0,1.0,,,,,,,,,orange,triangle
0.0,7.0,3.0,1.0,6.0,6.0,385.6506590000208,4.0,1.0,phase_2,go,150.0,200.0,1.0,,,,,,,,,blue,flipped triangle
0.0,6.0,2.0,1.0,5.0,0.0,0.0,4.0,1.0,phase_2,stop,150.0,200.0,4.0,,,,,,,,,yellow,diamond
0.0,5.0,1.0,1.0,6.0,0.0,0.0,4.0,1.0,phase_2,stop,200.0,200.0,4.0,,,,,,,,,white,cross
0.0,7.0,3.0,1.0,5.0,5.0,276.0048039999674,4.0,1.0,phase_2,stop,200.0,250.0,3.0,,,,,,,,,blue,flipped triangle
0.0,1.0,1.0,0.0,5.0,5.0,913.0147559999386,5.0,1.0,phase_2,go,150.0,250.0,1.0,,,,,,,,,orange,triangle
0.0,5.0,1.0,1.0,5.0,5.0,326.5723570002592,5.0,1.0,phase_2,stop,150.0,250.0,3.0,,,,,,,,,white,cross
0.0,2.0,2.0,0.0,5.0,5.0,319.9736080005095,5.0,1.0,phase_2,go,100.0,250.0,1.0,,,,,,,,,magenta,hexagon
0.0,7.0,3.0,1.0,6.0,6.0,273.9852439999595,5.0,1.0,phase_2,stop,100.0,250.0,3.0,,,,,,,,,blue,flipped triangle
0.0,1.0,1.0,0.0,6.0,6.0,307.3686399993676,5.0,1.0,phase_2,go,100.0,200.0,1.0,,,,,,,,,orange,triangle
0.0,7.0,3.0,1.0,5.0,5.0,356.4123589994779,5.0,1.0,phase_2,go,100.0,200.0,1.0,,,,,,,,,blue,flipped triangle
0.0,5.0,1.0,1.0,6.0,6.0,342.7283609998994,5.0,1.0,phase_2,stop,100.0,200.0,3.0,,,,,,,,,white,cross
0.0,3.0,3.0,0.0,5.0,5.0,379.3704919999072,5.0,1.0,phase_2,go,100.0,150.0,1.0,,,,,,,,,gray,circle
0.0,7.0,3.0,1.0,5.0,5.0,423.036960999525,5.0,1.0,phase_2,stop,100.0,150.0,3.0,,,,,,,,,blue,flipped triangle
0.0,8.0,4.0,1.0,6.0,0.0,0.0,5.0,1.0,phase_2,stop,50.0,150.0,4.0,,,,,,,,,green,square
0.0,8.0,4.0,1.0,6.0,0.0,0.0,5.0,1.0,phase_2,stop,50.0,200.0,4.0,,,,,,,,,green,square
0.0,3.0,3.0,0.0,5.0,5.0,372.3219909998079,5.0,1.0,phase_2,go,50.0,250.0,1.0,,,,,,,,,gray,circle
0.0,3.0,3.0,0.0,5.0,5.0,404.1646470004707,5.0,1.0,phase_2,go,50.0,250.0,1.0,,,,,,,,,gray,circle
0.0,8.0,4.0,1.0,5.0,5.0,372.4542680001832,5.0,1.0,phase_2,go,50.0,250.0,1.0,,,,,,,,,green,square
0.0,2.0,2.0,0.0,5.0,5.0,384.1239829998812,5.0,1.0,phase_2,go,50.0,250.0,1.0,,,,,,,,,magenta,hexagon
0.0,1.0,1.0,0.0,5.0,5.0,386.7008659999555,5.0,1.0,phase_2,go,50.0,250.0,1.0,,,,,,,,,orange,triangle
0.0,7.0,3.0,1.0,5.0,0.0,0.0,5.0,1.0,phase_2,stop,50.0,250.0,4.0,,,,,,,,,blue,flipped triangle
0.0,6.0,2.0,1.0,6.0,6.0,408.1422179997389,5.0,1.0,phase_2,stop,100.0,250.0,3.0,,,,,,,,,yellow,diamond
0.0,3.0,3.0,0.0,5.0,5.0,498.9027220008211,5.0,1.0,phase_2,go,100.0,200.0,1.0,,,,,,,,,gray,circle
0.0,4.0,4.0,0.0,6.0,6.0,469.7808290002285,5.0,1.0,phase_2,go,100.0,200.0,1.0,,,,,,,,,cyan,I
0.0,6.0,2.0,1.0,6.0,6.0,613.3189760003006,5.0,1.0,phase_2,go,100.0,200.0,1.0,,,,,,,,,yellow,diamond
0.0,3.0,3.0,0.0,6.0,6.0,354.7145989996352,5.0,1.0,phase_2,go,100.0,200.0,1.0,,,,,,,,,gray,circle
0.0,1.0,1.0,0.0,6.0,6.0,400.4580450000503,5.0,1.0,phase_2,go,100.0,200.0,1.0,,,,,,,,,orange,triangle
0.0,4.0,4.0,0.0,6.0,6.0,391.2001320004492,5.0,1.0,phase_2,go,100.0,200.0,1.0,,,,,,,,,cyan,I
0.0,8.0,4.0,1.0,5.0,5.0,358.9780020001853,5.0,1.0,phase_2,go,100.0,200.0,1.0,,,,,,,,,green,square
0.0,3.0,3.0,0.0,6.0,6.0,459.6280050000132,5.0,1.0,phase_2,go,100.0,200.0,1.0,,,,,,,,,gray,circle
0.0,7.0,3.0,1.0,5.0,5.0,406.7049750001388,5.0,1.0,phase_2,go,100.0,200.0,1.0,,,,,,,,,blue,flipped triangle
0.0,5.0,1.0,1.0,6.0,6.0,374.4059290002042,5.0,1.0,phase_2,stop,100.0,200.0,3.0,,,,,,,,,white,cross
0.0,6.0,2.0,1.0,5.0,5.0,397.7359959999376,5.0,1.0,phase_2,go,100.0,150.0,1.0,,,,,,,,,yellow,diamond
0.0,6.0,2.0,1.0,6.0,0.0,0.0,5.0,1.0,phase_2,stop,100.0,150.0,4.0,,,,,,,,,yellow,diamond
0.0,3.0,3.0,0.0,6.0,6.0,568.287932000203,5.0,1.0,phase_2,go,100.0,200.0,1.0,,,,,,,,,gray,circle
0.0,1.0,1.0,0.0,6.0,6.0,445.4300859997602,5.0,1.0,phase_2,go,100.0,200.0,1.0,,,,,,,,,orange,triangle
0.0,2.0,2.0,0.0,5.0,5.0,388.0828199999087,5.0,1.0,phase_2,go,100.0,200.0,1.0,,,,,,,,,magenta,hexagon
0.0,7.0,3.0,1.0,5.0,0.0,0.0,5.0,1.0,phase_2,stop,100.0,200.0,4.0,,,,,,,,,blue,flipped triangle
0.0,2.0,2.0,0.0,6.0,6.0,523.0374140001004,5.0,1.0,phase_2,go,150.0,200.0,1.0,,,,,,,,,magenta,hexagon
0.0,5.0,1.0,1.0,5.0,5.0,356.9302180003433,5.0,1.0,phase_2,stop,150.0,200.0,3.0,,,,,,,,,white,cross
0.0,5.0,1.0,1.0,5.0,5.0,473.301337000521,6.0,1.0,phase_2,go,100.0,200.0,1.0,,,,,,,,,white,cross
0.0,1.0,1.0,0.0,5.0,5.0,386.232459999519,6.0,1.0,phase_2,go,100.0,200.0,1.0,,,,,,,,,orange,triangle
0.0,7.0,3.0,1.0,6.0,6.0,396.7786599996543,6.0,1.0,phase_2,stop,100.0,200.0,3.0,,,,,,,,,blue,flipped triangle
0.0,8.0,4.0,1.0,6.0,0.0,0.0,6.0,1.0,phase_2,stop,100.0,150.0,4.0,,,,,,,,,green,square
0.0,6.0,2.0,1.0,5.0,5.0,298.5900470002889,6.0,1.0,phase_2,stop,100.0,200.0,3.0,,,,,,,,,yellow,diamond
0.0,3.0,3.0,0.0,5.0,5.0,490.6690970001364,6.0,1.0,phase_2,go,50.0,200.0,1.0,,,,,,,,,gray,circle
0.0,3.0,3.0,0.0,6.0,6.0,435.0814720000926,6.0,1.0,phase_2,go,50.0,200.0,1.0,,,,,,,,,gray,circle
0.0,7.0,3.0,1.0,6.0,6.0,458.5887389994241,6.0,1.0,phase_2,go,50.0,200.0,1.0,,,,,,,,,blue,flipped triangle
0.0,7.0,3.0,1.0,5.0,5.0,311.1947100005636,6.0,1.0,phase_2,go,50.0,200.0,1.0,,,,,,,,,blue,flipped triangle
0.0,5.0,1.0,1.0,5.0,5.0,672.5052470001174,6.0,1.0,phase_2,stop,50.0,200.0,3.0,,,,,,,,,white,cross
0.0,4.0,4.0,0.0,5.0,5.0,559.5705499999895,6.0,1.0,phase_2,go,0.0,200.0,1.0,,,,,,,,,cyan,I
0.0,1.0,1.0,0.0,6.0,6.0,426.1338559999785,6.0,1.0,phase_2,go,0.0,200.0,1.0,,,,,,,,,orange,triangle
0.0,1.0,1.0,0.0,5.0,5.0,494.8827309999615,6.0,1.0,phase_2,go,0.0,200.0,1.0,,,,,,,,,orange,triangle
0.0,2.0,2.0,0.0,6.0,6.0,392.3601159995087,6.0,1.0,phase_2,go,0.0,200.0,1.0,,,,,,,,,magenta,hexagon
0.0,8.0,4.0,1.0,6.0,0.0,0.0,6.0,1.0,phase_2,stop,0.0,200.0,4.0,,,,,,,,,green,square
0.0,7.0,3.0,1.0,5.0,0.0,0.0,6.0,1.0,phase_2,stop,0.0,250.0,4.0,,,,,,,,,blue,flipped triangle
0.0,5.0,1.0,1.0,5.0,0.0,0.0,6.0,1.0,phase_2,stop,50.0,250.0,4.0,,,,,,,,,white,cross
0.0,2.0,2.0,0.0,6.0,6.0,711.0116209996704,6.0,1.0,phase_2,go,100.0,250.0,1.0,,,,,,,,,magenta,hexagon
0.0,5.0,1.0,1.0,5.0,0.0,0.0,6.0,1.0,phase_2,stop,100.0,250.0,4.0,,,,,,,,,white,cross
0.0,5.0,1.0,1.0,6.0,0.0,0.0,6.0,1.0,phase_2,stop,150.0,250.0,4.0,,,,,,,,,white,cross
0.0,3.0,3.0,0.0,5.0,5.0,436.1562120002418,6.0,1.0,phase_2,go,150.0,300.0,1.0,,,,,,,,,gray,circle
0.0,5.0,1.0,1.0,5.0,5.0,515.5943479994676,6.0,1.0,phase_2,go,150.0,300.0,1.0,,,,,,,,,white,cross
0.0,6.0,2.0,1.0,5.0,5.0,368.4296900000845,6.0,1.0,phase_2,go,150.0,300.0,1.0,,,,,,,,,yellow,diamond
0.0,2.0,2.0,0.0,6.0,6.0,528.7836699999389,6.0,1.0,phase_2,go,150.0,300.0,1.0,,,,,,,,,magenta,hexagon
0.0,7.0,3.0,1.0,6.0,6.0,394.5112620003783,6.0,1.0,phase_2,stop,150.0,300.0,3.0,,,,,,,,,blue,flipped triangle
0.0,7.0,3.0,1.0,5.0,0.0,0.0,6.0,1.0,phase_2,stop,150.0,250.0,4.0,,,,,,,,,blue,flipped triangle
0.0,3.0,3.0,0.0,5.0,5.0,496.178351000708,6.0,1.0,phase_2,go,200.0,250.0,1.0,,,,,,,,,gray,circle
0.0,8.0,4.0,1.0,6.0,6.0,463.5162750000745,6.0,1.0,phase_2,stop,200.0,250.0,3.0,,,,,,,,,green,square
0.0,4.0,4.0,0.0,5.0,5.0,690.5522699998983,6.0,1.0,phase_2,go,200.0,200.0,1.0,,,,,,,,,cyan,I
0.0,2.0,2.0,0.0,6.0,6.0,521.4201689996116,6.0,1.0,phase_2,go,200.0,200.0,1.0,,,,,,,,,magenta,hexagon
0.0,2.0,2.0,0.0,5.0,5.0,422.5082940001812,6.0,1.0,phase_2,go,200.0,200.0,1.0,,,,,,,,,magenta,hexagon
0.0,7.0,3.0,1.0,6.0,0.0,0.0,6.0,1.0,phase_2,stop,200.0,200.0,4.0,,,,,,,,,blue,flipped triangle
0.0,1.0,1.0,0.0,5.0,5.0,433.8767169992934,6.0,1.0,phase_2,go,200.0,250.0,1.0,,,,,,,,,orange,triangle
0.0,4.0,4.0,0.0,5.0,5.0,513.3660390001751,6.0,1.0,phase_2,go,200.0,250.0,1.0,,,,,,,,,cyan,I
0.0,8.0,4.0,1.0,5.0,0.0,0.0,6.0,1.0,phase_2,stop,200.0,250.0,4.0,,,,,,,,,green,square
0.0,6.0,2.0,1.0,6.0,0.0,0.0,6.0,1.0,phase_2,stop,250.0,250.0,4.0,,,,,,,,,yellow,diamond
0.0,5.0,1.0,1.0,5.0,5.0,339.5853889996942,7.0,1.0,phase_2,stop,250.0,300.0,3.0,,,,,,,,,white,cross
0.0,4.0,4.0,0.0,6.0,6.0,444.3021279994354,7.0,1.0,phase_2,go,200.0,300.0,1.0,,,,,,,,,cyan,I
0.0,6.0,2.0,1.0,6.0,6.0,397.2726470001362,7.0,1.0,phase_2,go,200.0,300.0,1.0,,,,,,,,,yellow,diamond
0.0,8.0,4.0,1.0,5.0,5.0,344.0947240005698,7.0,1.0,phase_2,stop,200.0,300.0,3.0,,,,,,,,,green,square
0.0,2.0,2.0,0.0,5.0,5.0,354.3517660000361,7.0,1.0,phase_2,go,150.0,300.0,1.0,,,,,,,,,magenta,hexagon
0.0,8.0,4.0,1.0,6.0,6.0,560.5324369998925,7.0,1.0,phase_2,go,150.0,300.0,1.0,,,,,,,,,green,square
0.0,4.0,4.0,0.0,6.0,6.0,411.932481999429,7.0,1.0,phase_2,go,150.0,300.0,1.0,,,,,,,,,cyan,I
0.0,3.0,3.0,0.0,5.0,5.0,334.2995040002279,7.0,1.0,phase_2,go,150.0,300.0,1.0,,,,,,,,,gray,circle
0.0,3.0,3.0,0.0,5.0,5.0,630.5444770005124,7.0,1.0,phase_2,go,150.0,300.0,1.0,,,,,,,,,gray,circle
0.0,5.0,1.0,1.0,5.0,5.0,336.8672619999415,7.0,1.0,phase_2,stop,150.0,300.0,3.0,,,,,,,,,white,cross
0.0,3.0,3.0,0.0,6.0,6.0,371.6516949998549,7.0,1.0,phase_2,go,100.0,300.0,1.0,,,,,,,,,gray,circle
0.0,7.0,3.0,1.0,6.0,6.0,374.8068340000827,7.0,1.0,phase_2,stop,100.0,300.0,3.0,,,,,,,,,blue,flipped triangle
0.0,5.0,1.0,1.0,6.0,6.0,778.3274619996519,7.0,1.0,phase_2,go,100.0,250.0,1.0,,,,,,,,,white,cross
0.0,5.0,1.0,1.0,6.0,0.0,0.0,7.0,1.0,phase_2,stop,100.0,250.0,4.0,,,,,,,,,white,cross
0.0,1.0,1.0,0.0,5.0,5.0,489.8161050005001,7.0,1.0,phase_2,go,100.0,300.0,1.0,,,,,,,,,orange,triangle
0.0,6.0,2.0,1.0,6.0,6.0,466.9297150003331,7.0,1.0,phase_2,go,100.0,300.0,1.0,,,,,,,,,yellow,diamond
0.0,4.0,4.0,0.0,5.0,5.0,389.5819439994739,7.0,1.0,phase_2,go,100.0,300.0,1.0,,,,,,,,,cyan,I
0.0,8.0,4.0,1.0,5.0,5.0,341.958524999427,7.0,1.0,phase_2,stop,100.0,300.0,3.0,,,,,,,,,green,square
0.0,6.0,2.0,1.0,6.0,6.0,445.5845169995882,7.0,1.0,phase_2,stop,50.0,300.0,3.0,,,,,,,,,yellow,diamond
0.0,7.0,3.0,1.0,6.0,0.0,0.0,7.0,1.0,phase_2,stop,50.0,250.0,4.0,,,,,,,,,blue,flipped triangle
0.0,2.0,2.0,0.0,6.0,6.0,491.87354499918,7.0,1.0,phase_2,go,50.0,300.0,1.0,,,,,,,,,magenta,hexagon
0.0,4.0,4.0,0.0,5.0,5.0,458.0914739999571,7.0,1.0,phase_2,go,50.0,300.0,1.0,,,,,,,,,cyan,I
0.0,4.0,4.0,0.0,5.0,5.0,414.5621580000806,7.0,1.0,phase_2,go,50.0,300.0,1.0,,,,,,,,,cyan,I
0.0,3.0,3.0,0.0,6.0,6.0,438.3068609995462,7.0,1.0,phase_2,go,50.0,300.0,1.0,,,,,,,,,gray,circle
0.0,1.0,1.0,0.0,5.0,5.0,316.7498210004851,7.0,1.0,phase_2,go,50.0,300.0,1.0,,,,,,,,,orange,triangle
0.0,3.0,3.0,0.0,6.0,6.0,429.6563620000597,7.0,1.0,phase_2,go,50.0,300.0,1.0,,,,,,,,,gray,circle
0.0,3.0,3.0,0.0,5.0,5.0,363.8176109998312,7.0,1.0,phase_2,go,50.0,300.0,1.0,,,,,,,,,gray,circle
0.0,2.0,2.0,0.0,5.0,5.0,476.4997550000771,7.0,1.0,phase_2,go,50.0,300.0,1.0,,,,,,,,,magenta,hexagon
0.0,2.0,2.0,0.0,6.0,6.0,554.2300089991841,7.0,1.0,phase_2,go,50.0,300.0,1.0,,,,,,,,,magenta,hexagon
0.0,6.0,2.0,1.0,5.0,0.0,0.0,7.0,1.0,phase_2,stop,50.0,300.0,4.0,,,,,,,,,yellow,diamond
0.0,4.0,4.0,0.0,6.0,6.0,400.6893739997395,7.0,1.0,phase_2,go,100.0,300.0,1.0,,,,,,,,,cyan,I
0.0,2.0,2.0,0.0,5.0,5.0,593.0093559991292,7.0,1.0,phase_2,go,100.0,300.0,1.0,,,,,,,,,magenta,hexagon
0.0,2.0,2.0,0.0,5.0,5.0,514.2264950000026,7.0,1.0,phase_2,go,100.0,300.0,1.0,,,,,,,,,magenta,hexagon
0.0,1.0,1.0,0.0,5.0,5.0,481.6886299995531,7.0,1.0,phase_2,go,100.0,300.0,1.0,,,,,,,,,orange,triangle
0.0,8.0,4.0,1.0,6.0,6.0,405.4864449999513,7.0,1.0,phase_2,go,100.0,300.0,1.0,,,,,,,,,green,square
0.0,7.0,3.0,1.0,5.0,5.0,311.981496000044,7.0,1.0,phase_2,stop,100.0,300.0,3.0,,,,,,,,,blue,flipped triangle
0.0,6.0,2.0,1.0,6.0,6.0,430.0261759999557,8.0,1.0,phase_2,stop,50.0,300.0,3.0,,,,,,,,,yellow,diamond
0.0,7.0,3.0,1.0,6.0,6.0,374.8448890000873,8.0,1.0,phase_2,stop,50.0,250.0,3.0,,,,,,,,,blue,flipped triangle
0.0,2.0,2.0,0.0,6.0,6.0,435.5581780000648,8.0,1.0,phase_2,go,50.0,200.0,1.0,,,,,,,,,magenta,hexagon
0.0,4.0,4.0,0.0,5.0,5.0,469.3957529998442,8.0,1.0,phase_2,go,50.0,200.0,1.0,,,,,,,,,cyan,I
0.0,2.0,2.0,0.0,6.0,6.0,445.2307130004556,8.0,1.0,phase_2,go,50.0,200.0,1.0,,,,,,,,,magenta,hexagon
0.0,1.0,1.0,0.0,6.0,6.0,540.0434210005187,8.0,1.0,phase_2,go,50.0,200.0,1.0,,,,,,,,,orange,triangle
0.0,3.0,3.0,0.0,5.0,5.0,639.7891699998581,8.0,1.0,phase_2,go,50.0,200.0,1.0,,,,,,,,,gray,circle
0.0,2.0,2.0,0.0,6.0,6.0,417.92661599993147,8.0,1.0,phase_2,go,50.0,200.0,1.0,,,,,,,,,magenta,hexagon
0.0,8.0,4.0,1.0,6.0,6.0,437.1937320001962,8.0,1.0,phase_2,stop,50.0,200.0,3.0,,,,,,,,,green,square
0.0,6.0,2.0,1.0,5.0,0.0,0.0,8.0,1.0,phase_2,stop,50.0,150.0,4.0,,,,,,,,,yellow,diamond
0.0,5.0,1.0,1.0,6.0,6.0,495.0815810007043,8.0,1.0,phase_2,stop,100.0,150.0,3.0,,,,,,,,,white,cross
0.0,8.0,4.0,1.0,5.0,5.0,679.7409260007043,8.0,1.0,phase_2,go,100.0,100.0,1.0,,,,,,,,,green,square
0.0,5.0,1.0,1.0,6.0,6.0,387.4213959998087,8.0,1.0,phase_2,stop,100.0,100.0,3.0,,,,,,,,,white,cross
0.0,4.0,4.0,0.0,6.0,6.0,600.8937830001742,8.0,1.0,phase_2,go,100.0,50.0,1.0,,,,,,,,,cyan,I
0.0,5.0,1.0,1.0,6.0,0.0,0.0,8.0,1.0,phase_2,stop,100.0,50.0,4.0,,,,,,,,,white,cross
0.0,6.0,2.0,1.0,6.0,0.0,0.0,8.0,1.0,phase_2,stop,100.0,100.0,4.0,,,,,,,,,yellow,diamond
0.0,8.0,4.0,1.0,6.0,0.0,0.0,8.0,1.0,phase_2,stop,100.0,150.0,4.0,,,,,,,,,green,square
0.0,2.0,2.0,0.0,5.0,5.0,466.8914469993979,8.0,1.0,phase_2,go,100.0,200.0,1.0,,,,,,,,,magenta,hexagon
0.0,5.0,1.0,1.0,5.0,5.0,433.8018010002997,8.0,1.0,phase_2,go,100.0,200.0,1.0,,,,,,,,,white,cross
0.0,1.0,1.0,0.0,6.0,6.0,446.9867119996706,8.0,1.0,phase_2,go,100.0,200.0,1.0,,,,,,,,,orange,triangle
0.0,1.0,1.0,0.0,6.0,6.0,439.5242979999239,8.0,1.0,phase_2,go,100.0,200.0,1.0,,,,,,,,,orange,triangle
0.0,3.0,3.0,0.0,6.0,6.0,706.9857409996985,8.0,1.0,phase_2,go,100.0,200.0,1.0,,,,,,,,,gray,circle
0.0,3.0,3.0,0.0,6.0,6.0,643.0772639996576,8.0,1.0,phase_2,go,100.0,200.0,1.0,,,,,,,,,gray,circle
0.0,8.0,4.0,1.0,5.0,5.0,349.7400349997406,8.0,1.0,phase_2,stop,100.0,200.0,3.0,,,,,,,,,green,square
0.0,6.0,2.0,1.0,5.0,5.0,440.7973039997159,8.0,1.0,phase_2,stop,50.0,200.0,3.0,,,,,,,,,yellow,diamond
0.0,1.0,1.0,0.0,6.0,6.0,723.3084119998239,8.0,1.0,phase_2,go,0.0,200.0,1.0,,,,,,,,,orange,triangle
0.0,5.0,1.0,1.0,6.0,0.0,0.0,8.0,1.0,phase_2,stop,0.0,200.0,4.0,,,,,,,,,white,cross
0.0,7.0,3.0,1.0,5.0,0.0,0.0,8.0,1.0,phase_2,stop,0.0,250.0,4.0,,,,,,,,,blue,flipped triangle
0.0,5.0,1.0,1.0,6.0,6.0,670.1686720007274,8.0,1.0,phase_2,go,50.0,250.0,1.0,,,,,,,,,white,cross
0.0,1.0,1.0,0.0,6.0,6.0,746.9138579999708,8.0,1.0,phase_2,go,50.0,250.0,1.0,,,,,,,,,orange,triangle
0.0,3.0,3.0,0.0,5.0,5.0,368.0581119997441,8.0,1.0,phase_2,go,50.0,250.0,1.0,,,,,,,,,gray,circle
0.0,4.0,4.0,0.0,5.0,5.0,381.324494999717,8.0,1.0,phase_2,go,50.0,250.0,1.0,,,,,,,,,cyan,I
0.0,5.0,1.0,1.0,5.0,5.0,490.4566529994554,8.0,1.0,phase_2,go,50.0,250.0,1.0,,,,,,,,,white,cross
0.0,4.0,4.0,0.0,6.0,6.0,448.9606729994193,8.0,1.0,phase_2,go,50.0,250.0,1.0,,,,,,,,,cyan,I
0.0,2.0,2.0,0.0,6.0,6.0,461.9097550003062,8.0,1.0,phase_2,go,50.0,250.0,1.0,,,,,,,,,magenta,hexagon
0.0,4.0,4.0,0.0,6.0,6.0,405.184491,8.0,1.0,phase_2,go,50.0,250.0,1.0,,,,,,,,,cyan,I
0.0,1.0,1.0,0.0,7.0,3.0,1638.7390270000424,1.0,1.0,phase_3,,,,,220.0,5.0,264.0,132.0,220.0,44.0,176.0,88.0,orange,triangle
0.0,6.0,2.0,1.0,7.0,6.0,2311.681693999958,1.0,1.0,phase_3,,,,,234.0,6.0,78.0,39.0,117.0,156.0,195.0,234.0,yellow,diamond
0.0,3.0,3.0,0.0,7.0,4.0,2109.067065999966,1.0,1.0,phase_3,,,,,136.0,4.0,34.0,204.0,68.0,136.0,102.0,170.0,gray,circle
0.0,4.0,4.0,0.0,7.0,1.0,2955.2968730000657,1.0,1.0,phase_3,,,,,176.0,4.0,176.0,88.0,264.0,44.0,220.0,132.0,cyan,I
0.0,4.0,4.0,0.0,7.0,6.0,2834.266822000018,1.0,1.0,phase_3,,,,,176.0,4.0,132.0,264.0,220.0,88.0,44.0,176.0,cyan,I
0.0,7.0,3.0,1.0,7.0,4.0,2486.648067000033,1.0,1.0,phase_3,,,,,294.0,6.0,49.0,245.0,98.0,294.0,147.0,196.0,blue,flipped triangle
0.0,3.0,3.0,0.0,7.0,6.0,2755.188289999978,1.0,1.0,phase_3,,,,,136.0,4.0,68.0,34.0,102.0,204.0,170.0,136.0,gray,circle
0.0,2.0,2.0,0.0,7.0,6.0,4310.470776999978,1.0,1.0,phase_3,,,,,245.0,5.0,147.0,98.0,49.0,294.0,196.0,245.0,magenta,hexagon
0.0,8.0,4.0,1.0,7.0,1.0,4506.0116889999335,1.0,1.0,phase_3,,,,,195.0,5.0,195.0,117.0,78.0,156.0,234.0,39.0,green,square
0.0,4.0,4.0,0.0,7.0,4.0,2228.935971999931,1.0,1.0,phase_3,,,,,136.0,4.0,204.0,68.0,34.0,136.0,170.0,102.0,cyan,I
0.0,1.0,1.0,0.0,7.0,6.0,3679.270309000003,1.0,1.0,phase_3,,,,,162.0,3.0,270.0,324.0,216.0,108.0,54.0,162.0,orange,triangle
0.0,8.0,4.0,1.0,7.0,4.0,2212.3184689999107,1.0,1.0,phase_3,,,,,196.0,4.0,147.0,245.0,294.0,196.0,49.0,98.0,green,square
0.0,2.0,2.0,0.0,7.0,2.0,2524.130409999998,1.0,1.0,phase_3,,,,,264.0,6.0,220.0,264.0,44.0,132.0,88.0,176.0,magenta,hexagon
0.0,7.0,3.0,1.0,7.0,5.0,2108.98280899994,1.0,1.0,phase_3,,,,,234.0,6.0,39.0,78.0,117.0,195.0,234.0,156.0,blue,flipped triangle
0.0,2.0,2.0,0.0,7.0,5.0,3226.7480460000115,1.0,1.0,phase_3,,,,,234.0,6.0,39.0,78.0,156.0,117.0,234.0,195.0,magenta,hexagon
0.0,7.0,3.0,1.0,7.0,1.0,2313.791049000088,1.0,1.0,phase_3,,,,,324.0,6.0,324.0,54.0,216.0,162.0,108.0,270.0,blue,flipped triangle
0.0,5.0,1.0,1.0,7.0,2.0,3330.1798129999725,1.0,1.0,phase_3,,,,,117.0,3.0,156.0,117.0,234.0,195.0,39.0,78.0,white,cross
0.0,1.0,1.0,0.0,7.0,4.0,2071.397191999949,1.0,1.0,phase_3,,,,,176.0,4.0,44.0,88.0,132.0,176.0,220.0,264.0,orange,triangle
0.0,5.0,1.0,1.0,7.0,6.0,3307.007492000025,1.0,1.0,phase_3,,,,,108.0,2.0,324.0,54.0,162.0,216.0,270.0,108.0,white,cross
0.0,7.0,3.0,1.0,7.0,6.0,3028.3583560000125,1.0,1.0,phase_3,,,,,324.0,6.0,108.0,270.0,162.0,54.0,216.0,324.0,blue,flipped triangle
0.0,6.0,2.0,1.0,7.0,3.0,3809.057494000058,2.0,1.0,phase_3,,,,,176.0,4.0,88.0,132.0,176.0,264.0,44.0,220.0,yellow,diamond
0.0,8.0,4.0,1.0,7.0,4.0,3014.174914000023,2.0,1.0,phase_3,,,,,234.0,6.0,156.0,78.0,39.0,234.0,195.0,117.0,green,square
0.0,8.0,4.0,1.0,7.0,1.0,2463.468014999989,2.0,1.0,phase_3,,,,,162.0,3.0,162.0,216.0,108.0,270.0,54.0,324.0,green,square
0.0,1.0,1.0,0.0,7.0,6.0,4614.201368999943,2.0,1.0,phase_3,,,,,216.0,4.0,54.0,108.0,162.0,324.0,270.0,216.0,orange,triangle
0.0,7.0,3.0,1.0,7.0,5.0,1685.570208999934,2.0,1.0,phase_3,,,,,264.0,6.0,44.0,220.0,88.0,176.0,264.0,132.0,blue,flipped triangle
0.0,6.0,2.0,1.0,7.0,6.0,1731.160568000064,2.0,1.0,phase_3,,,,,196.0,4.0,245.0,49.0,98.0,294.0,147.0,196.0,yellow,diamond
0.0,1.0,1.0,0.0,7.0,2.0,1730.3596859999288,2.0,1.0,phase_3,,,,,147.0,3.0,196.0,147.0,98.0,245.0,49.0,294.0,orange,triangle
0.0,6.0,2.0,1.0,7.0,1.0,4453.734680999901,2.0,1.0,phase_3,,,,,294.0,6.0,294.0,196.0,49.0,147.0,245.0,98.0,yellow,diamond
0.0,3.0,3.0,0.0,7.0,3.0,3671.538428000076,2.0,1.0,phase_3,,,,,108.0,2.0,162.0,54.0,108.0,216.0,270.0,324.0,gray,circle
0.0,8.0,4.0,1.0,7.0,4.0,3735.842656000045,2.0,1.0,phase_3,,,,,196.0,4.0,245.0,147.0,49.0,196.0,294.0,98.0,green,square
0.0,4.0,4.0,0.0,7.0,3.0,3928.1559059999154,2.0,1.0,phase_3,,,,,216.0,4.0,162.0,54.0,216.0,270.0,108.0,324.0,cyan,I
0.0,3.0,3.0,0.0,7.0,1.0,2334.422473000018,2.0,1.0,phase_3,,,,,117.0,3.0,117.0,234.0,78.0,195.0,156.0,39.0,gray,circle
0.0,6.0,2.0,1.0,7.0,5.0,2514.911798000071,2.0,1.0,phase_3,,,,,162.0,3.0,324.0,54.0,108.0,270.0,162.0,216.0,yellow,diamond
0.0,6.0,2.0,1.0,7.0,6.0,2088.2627570000523,2.0,1.0,phase_3,,,,,170.0,5.0,102.0,204.0,68.0,34.0,136.0,170.0,yellow,diamond
0.0,2.0,2.0,0.0,7.0,1.0,3933.278164999933,2.0,1.0,phase_3,,,,,264.0,6.0,264.0,44.0,176.0,88.0,220.0,132.0,magenta,hexagon
0.0,1.0,1.0,0.0,7.0,5.0,1912.9163159999507,2.0,1.0,phase_3,,,,,136.0,4.0,170.0,34.0,102.0,204.0,136.0,68.0,orange,triangle
0.0,8.0,4.0,1.0,7.0,5.0,4477.149360999988,2.0,1.0,phase_3,,,,,264.0,6.0,176.0,88.0,132.0,220.0,264.0,44.0,green,square
0.0,3.0,3.0,0.0,7.0,3.0,2179.754756999955,2.0,1.0,phase_3,,,,,147.0,3.0,294.0,98.0,147.0,49.0,245.0,196.0,gray,circle
0.0,8.0,4.0,1.0,7.0,4.0,1177.7461450000146,2.0,2.0,phase_3,,,,,170.0,5.0,102.0,68.0,34.0,170.0,204.0,136.0,green,square
0.0,1.0,1.0,0.0,7.0,6.0,3620.24342299992,2.0,1.0,phase_3,,,,,196.0,4.0,49.0,245.0,98.0,294.0,147.0,196.0,orange,triangle
0.0,5.0,1.0,1.0,7.0,6.0,2878.749434000042,3.0,1.0,phase_3,,,,,117.0,3.0,195.0,78.0,234.0,39.0,156.0,117.0,white,cross
0.0,6.0,2.0,1.0,7.0,5.0,1825.483100999918,3.0,1.0,phase_3,,,,,170.0,5.0,204.0,102.0,136.0,34.0,170.0,68.0,yellow,diamond
0.0,2.0,2.0,0.0,7.0,6.0,1726.3192679999977,3.0,1.0,phase_3,,,,,204.0,6.0,34.0,102.0,170.0,136.0,68.0,204.0,magenta,hexagon
0.0,7.0,3.0,1.0,7.0,3.0,2420.85044800001,3.0,1.0,phase_3,,,,,294.0,6.0,147.0,49.0,294.0,245.0,196.0,98.0,blue,flipped triangle
0.0,4.0,4.0,0.0,7.0,2.0,3706.3465709999264,3.0,1.0,phase_3,,,,,196.0,4.0,147.0,196.0,294.0,98.0,49.0,245.0,cyan,I
0.0,6.0,2.0,1.0,7.0,1.0,2322.564992000025,3.0,1.0,phase_3,,,,,162.0,3.0,162.0,54.0,324.0,108.0,270.0,216.0,yellow,diamond
0.0,8.0,4.0,1.0,7.0,2.0,3383.911665000028,3.0,1.0,phase_3,,,,,170.0,5.0,136.0,170.0,102.0,68.0,204.0,34.0,green,square
0.0,5.0,1.0,1.0,7.0,4.0,2683.959350000009,3.0,1.0,phase_3,,,,,216.0,4.0,108.0,324.0,162.0,216.0,270.0,54.0,white,cross
0.0,4.0,4.0,0.0,7.0,5.0,3102.8543520000085,3.0,1.0,phase_3,,,,,216.0,4.0,270.0,54.0,162.0,324.0,216.0,108.0,cyan,I
0.0,1.0,1.0,0.0,7.0,2.0,3938.288392000004,3.0,1.0,phase_3,,,,,170.0,5.0,204.0,170.0,136.0,68.0,34.0,102.0,orange,triangle
0.0,7.0,3.0,1.0,7.0,4.0,3632.659198000056,3.0,1.0,phase_3,,,,,234.0,6.0,117.0,78.0,39.0,234.0,195.0,156.0,blue,flipped triangle
0.0,3.0,3.0,0.0,7.0,1.0,3049.087587000031,3.0,1.0,phase_3,,,,,117.0,3.0,117.0,234.0,78.0,156.0,39.0,195.0,gray,circle
0.0,4.0,4.0,0.0,7.0,5.0,2322.3224829999936,3.0,1.0,phase_3,,,,,195.0,5.0,156.0,117.0,234.0,78.0,195.0,39.0,cyan,I
0.0,5.0,1.0,1.0,7.0,5.0,2040.0867979999475,3.0,1.0,phase_3,,,,,204.0,6.0,102.0,68.0,34.0,136.0,204.0,170.0,white,cross
0.0,8.0,4.0,1.0,7.0,2.0,2010.1040179999927,3.0,1.0,phase_3,,,,,216.0,4.0,108.0,216.0,324.0,54.0,270.0,162.0,green,square
0.0,3.0,3.0,0.0,7.0,2.0,2325.187139999912,3.0,1.0,phase_3,,,,,132.0,3.0,44.0,132.0,264.0,88.0,176.0,220.0,gray,circle
0.0,3.0,3.0,0.0,7.0,4.0,2695.771505000039,3.0,1.0,phase_3,,,,,147.0,3.0,294.0,245.0,196.0,147.0,49.0,98.0,gray,circle
0.0,2.0,2.0,0.0,7.0,4.0,2878.8348639999413,3.0,1.0,phase_3,,,,,204.0,6.0,68.0,102.0,170.0,204.0,34.0,136.0,magenta,hexagon
0.0,5.0,1.0,1.0,7.0,2.0,1460.2547110000614,3.0,1.0,phase_3,,,,,147.0,3.0,49.0,147.0,294.0,245.0,98.0,196.0,white,cross
0.0,6.0,2.0,1.0,7.0,3.0,3496.0142630000064,3.0,1.0,phase_3,,,,,195.0,5.0,234.0,117.0,195.0,39.0,156.0,78.0,yellow,diamond
0.0,2.0,2.0,0.0,7.0,5.0,4004.737281999951,4.0,1.0,phase_3,,,,,294.0,6.0,98.0,147.0,196.0,49.0,294.0,245.0,magenta,hexagon
0.0,5.0,1.0,1.0,7.0,2.0,1539.528938999979,4.0,1.0,phase_3,,,,,176.0,4.0,264.0,176.0,132.0,44.0,220.0,88.0,white,cross
0.0,3.0,3.0,0.0,7.0,3.0,3170.586133000029,4.0,1.0,phase_3,,,,,108.0,2.0,270.0,162.0,108.0,54.0,324.0,216.0,gray,circle
0.0,1.0,1.0,0.0,7.0,1.0,3299.94526400003,4.0,1.0,phase_3,,,,,195.0,5.0,195.0,78.0,234.0,156.0,39.0,117.0,orange,triangle
0.0,8.0,4.0,1.0,7.0,1.0,2385.4710000000523,4.0,1.0,phase_3,,,,,176.0,4.0,176.0,88.0,220.0,132.0,44.0,264.0,green,square
0.0,5.0,1.0,1.0,7.0,3.0,2670.647522999957,4.0,1.0,phase_3,,,,,147.0,3.0,294.0,98.0,147.0,196.0,245.0,49.0,white,cross
0.0,2.0,2.0,0.0,7.0,6.0,1735.6047360000275,4.0,1.0,phase_3,,,,,324.0,6.0,54.0,216.0,108.0,270.0,162.0,324.0,magenta,hexagon
0.0,3.0,3.0,0.0,7.0,1.0,3876.211581999996,4.0,1.0,phase_3,,,,,176.0,4.0,176.0,44.0,88.0,264.0,132.0,220.0,gray,circle
0.0,2.0,2.0,0.0,7.0,6.0,4516.121069000064,4.0,1.0,phase_3,,,,,234.0,6.0,39.0,78.0,195.0,117.0,156.0,234.0,magenta,hexagon
0.0,7.0,3.0,1.0,7.0,4.0,3416.6231229999084,4.0,1.0,phase_3,,,,,204.0,6.0,34.0,68.0,136.0,204.0,170.0,102.0,blue,flipped triangle
0.0,1.0,1.0,0.0,7.0,3.0,3114.5437089999177,4.0,1.0,phase_3,,,,,156.0,4.0,117.0,234.0,156.0,39.0,195.0,78.0,orange,triangle
0.0,7.0,3.0,1.0,7.0,6.0,2127.590822000002,4.0,1.0,phase_3,,,,,204.0,6.0,170.0,136.0,102.0,34.0,68.0,204.0,blue,flipped triangle
0.0,4.0,4.0,0.0,7.0,4.0,2351.387313000032,4.0,1.0,phase_3,,,,,156.0,4.0,234.0,39.0,117.0,156.0,78.0,195.0,cyan,I
0.0,5.0,1.0,1.0,7.0,1.0,2568.887661999952,4.0,1.0,phase_3,,,,,132.0,3.0,132.0,88.0,44.0,264.0,176.0,220.0,white,cross
0.0,2.0,2.0,0.0,7.0,1.0,1714.258991999941,4.0,1.0,phase_3,,,,,324.0,6.0,324.0,54.0,216.0,270.0,108.0,162.0,magenta,hexagon
0.0,6.0,2.0,1.0,7.0,6.0,2367.355803999999,4.0,1.0,phase_3,,,,,176.0,4.0,220.0,88.0,132.0,264.0,44.0,176.0,yellow,diamond
0.0,4.0,4.0,0.0,7.0,2.0,3516.55112200001,4.0,1.0,phase_3,,,,,147.0,3.0,49.0,147.0,98.0,196.0,245.0,294.0,cyan,I
0.0,7.0,3.0,1.0,7.0,1.0,2392.272773000059,4.0,1.0,phase_3,,,,,264.0,6.0,264.0,176.0,44.0,88.0,132.0,220.0,blue,flipped triangle
0.0,5.0,1.0,1.0,7.0,4.0,3113.350426999886,4.0,1.0,phase_3,,,,,136.0,4.0,102.0,68.0,34.0,136.0,170.0,204.0,white,cross
0.0,4.0,4.0,0.0,7.0,5.0,1799.3060149999565,4.0,1.0,phase_3,,,,,136.0,4.0,204.0,68.0,102.0,34.0,136.0,170.0,cyan,I
