raw_reward_magnitude,stim_reward,stepwise_reward_magnitude,paired_with_stopping,stim_location,response,reaction_time,block,num_trial_presentations,which_phase,stop_signal_trial_type,left_SSD,right_SSD,accuracy,chosen_bidding_amount,chosen_bidding_level,possible_bid_1,possible_bid_2,possible_bid_3,possible_bid_4,possible_bid_5,possible_bid_6,color_text,shape_text
387.0,4.0,4.0,0.0,2.0,2.0,368.74029899991,1.0,1.0,phase_1,,,,,,,,,,,,,green,square
208.0,7.0,2.0,1.0,3.0,3.0,392.4366880000889,1.0,1.0,phase_1,,,,,,,,,,,,,gray,hexagon
401.0,8.0,4.0,1.0,1.0,1.0,348.4723310002664,1.0,1.0,phase_1,,,,,,,,,,,,,white,diamond
111.0,6.0,1.0,1.0,3.0,3.0,347.5315269997736,1.0,1.0,phase_1,,,,,,,,,,,,,blue,cross
379.0,4.0,4.0,0.0,4.0,4.0,397.6572569999916,1.0,1.0,phase_1,,,,,,,,,,,,,green,square
221.0,3.0,2.0,0.0,3.0,3.0,359.6762349998244,1.0,1.0,phase_1,,,,,,,,,,,,,cyan,I
0.0,1.0,0.0,0.0,4.0,4.0,339.0066150004713,1.0,1.0,phase_1,,,,,,,,,,,,,yellow,circle
197.0,7.0,2.0,1.0,2.0,2.0,395.569678999891,1.0,1.0,phase_1,,,,,,,,,,,,,gray,hexagon
68.0,5.0,0.5,1.0,1.0,1.0,383.982362000097,1.0,1.0,phase_1,,,,,,,,,,,,,magenta,flipped triangle
0.0,6.0,0.0,1.0,2.0,2.0,363.5936549999314,1.0,1.0,phase_1,,,,,,,,,,,,,blue,cross
198.0,7.0,2.0,1.0,2.0,2.0,320.0005049993706,1.0,1.0,phase_1,,,,,,,,,,,,,gray,hexagon
0.0,2.0,0.0,0.0,3.0,3.0,288.7104270002965,1.0,1.0,phase_1,,,,,,,,,,,,,orange,triangle
91.0,2.0,1.0,0.0,3.0,3.0,355.3949910001392,1.0,1.0,phase_1,,,,,,,,,,,,,orange,triangle
76.0,2.0,1.0,0.0,4.0,4.0,321.8257380003706,1.0,1.0,phase_1,,,,,,,,,,,,,orange,triangle
50.0,5.0,0.5,1.0,3.0,3.0,353.990113000691,1.0,1.0,phase_1,,,,,,,,,,,,,magenta,flipped triangle
189.0,7.0,2.0,1.0,2.0,2.0,275.7902690000264,1.0,1.0,phase_1,,,,,,,,,,,,,gray,hexagon
182.0,7.0,2.0,1.0,1.0,1.0,268.2466249998469,1.0,1.0,phase_1,,,,,,,,,,,,,gray,hexagon
55.0,1.0,0.5,0.0,3.0,3.0,267.1212499999456,1.0,1.0,phase_1,,,,,,,,,,,,,yellow,circle
93.0,6.0,1.0,1.0,3.0,3.0,359.7669679993487,1.0,1.0,phase_1,,,,,,,,,,,,,blue,cross
0.0,2.0,0.0,0.0,2.0,2.0,325.581556000543,1.0,1.0,phase_1,,,,,,,,,,,,,orange,triangle
41.0,1.0,0.5,0.0,1.0,1.0,279.1652960004285,1.0,1.0,phase_1,,,,,,,,,,,,,yellow,circle
0.0,5.0,0.0,1.0,2.0,2.0,357.8329350002605,1.0,1.0,phase_1,,,,,,,,,,,,,magenta,flipped triangle
424.0,4.0,4.0,0.0,3.0,3.0,291.9872580005176,1.0,1.0,phase_1,,,,,,,,,,,,,green,square
42.0,1.0,0.5,0.0,1.0,1.0,339.236460000393,1.0,1.0,phase_1,,,,,,,,,,,,,yellow,circle
94.0,6.0,1.0,1.0,2.0,2.0,293.172556999707,1.0,1.0,phase_1,,,,,,,,,,,,,blue,cross
94.0,2.0,1.0,0.0,3.0,3.0,305.6768550004562,1.0,1.0,phase_1,,,,,,,,,,,,,orange,triangle
111.0,2.0,1.0,0.0,1.0,1.0,352.172333999988,1.0,1.0,phase_1,,,,,,,,,,,,,orange,triangle
35.0,1.0,0.5,0.0,1.0,1.0,364.6469159994012,1.0,1.0,phase_1,,,,,,,,,,,,,yellow,circle
0.0,6.0,0.0,1.0,3.0,3.0,293.5447079998994,1.0,1.0,phase_1,,,,,,,,,,,,,blue,cross
189.0,3.0,2.0,0.0,1.0,1.0,306.6815749998568,1.0,1.0,phase_1,,,,,,,,,,,,,cyan,I
210.0,7.0,2.0,1.0,2.0,2.0,240.9880699997302,1.0,1.0,phase_1,,,,,,,,,,,,,gray,hexagon
120.0,2.0,1.0,0.0,3.0,3.0,231.8601819997638,1.0,1.0,phase_1,,,,,,,,,,,,,orange,triangle
416.0,8.0,4.0,1.0,4.0,4.0,321.4970049994008,1.0,1.0,phase_1,,,,,,,,,,,,,white,diamond
388.0,8.0,4.0,1.0,3.0,3.0,296.212068999921,1.0,1.0,phase_1,,,,,,,,,,,,,white,diamond
59.0,5.0,0.5,1.0,2.0,2.0,263.3636049995402,1.0,1.0,phase_1,,,,,,,,,,,,,magenta,flipped triangle
0.0,6.0,0.0,1.0,3.0,3.0,289.5540330000585,1.0,1.0,phase_1,,,,,,,,,,,,,blue,cross
202.0,3.0,2.0,0.0,4.0,4.0,354.495001000032,1.0,1.0,phase_1,,,,,,,,,,,,,cyan,I
94.0,6.0,1.0,1.0,1.0,1.0,221.9396919999781,1.0,1.0,phase_1,,,,,,,,,,,,,blue,cross
400.0,8.0,4.0,1.0,4.0,4.0,355.8292580000852,1.0,1.0,phase_1,,,,,,,,,,,,,white,diamond
189.0,3.0,2.0,0.0,1.0,1.0,390.458015999684,1.0,1.0,phase_1,,,,,,,,,,,,,cyan,I
0.0,3.0,0.0,0.0,1.0,1.0,315.1971489996867,1.0,1.0,phase_1,,,,,,,,,,,,,cyan,I
0.0,8.0,0.0,1.0,1.0,1.0,312.9154039997956,1.0,1.0,phase_1,,,,,,,,,,,,,white,diamond
95.0,2.0,1.0,0.0,1.0,1.0,314.641746000234,1.0,1.0,phase_1,,,,,,,,,,,,,orange,triangle
387.0,8.0,4.0,1.0,2.0,2.0,280.3510020003159,1.0,1.0,phase_1,,,,,,,,,,,,,white,diamond
381.0,4.0,4.0,0.0,2.0,2.0,313.9662240000689,1.0,1.0,phase_1,,,,,,,,,,,,,green,square
394.0,4.0,4.0,0.0,4.0,4.0,314.5030280002174,1.0,1.0,phase_1,,,,,,,,,,,,,green,square
0.0,2.0,0.0,0.0,3.0,3.0,317.2235090005415,1.0,1.0,phase_1,,,,,,,,,,,,,orange,triangle
71.0,5.0,0.5,1.0,4.0,4.0,396.6363910003565,1.0,1.0,phase_1,,,,,,,,,,,,,magenta,flipped triangle
98.0,2.0,1.0,0.0,3.0,3.0,318.1677570000829,1.0,1.0,phase_1,,,,,,,,,,,,,orange,triangle
55.0,5.0,0.5,1.0,2.0,2.0,338.5897449998083,1.0,1.0,phase_1,,,,,,,,,,,,,magenta,flipped triangle
379.0,8.0,4.0,1.0,2.0,2.0,367.0265880000443,1.0,2.0,phase_1,,,,,,,,,,,,,white,diamond
80.0,6.0,1.0,1.0,4.0,4.0,410.9278779997112,1.0,1.0,phase_1,,,,,,,,,,,,,blue,cross
38.0,5.0,0.5,1.0,1.0,1.0,298.4768340002119,1.0,1.0,phase_1,,,,,,,,,,,,,magenta,flipped triangle
0.0,5.0,0.0,1.0,4.0,4.0,335.2870110002186,1.0,1.0,phase_1,,,,,,,,,,,,,magenta,flipped triangle
197.0,3.0,2.0,0.0,4.0,4.0,335.5409400001008,1.0,1.0,phase_1,,,,,,,,,,,,,cyan,I
71.0,1.0,0.5,0.0,4.0,4.0,336.3481469996259,1.0,1.0,phase_1,,,,,,,,,,,,,yellow,circle
88.0,6.0,1.0,1.0,1.0,1.0,309.8199739997653,1.0,1.0,phase_1,,,,,,,,,,,,,blue,cross
26.0,1.0,0.5,0.0,4.0,4.0,378.04689999939,1.0,1.0,phase_1,,,,,,,,,,,,,yellow,circle
411.0,8.0,4.0,1.0,1.0,1.0,311.0554069999125,1.0,1.0,phase_1,,,,,,,,,,,,,white,diamond
178.0,7.0,2.0,1.0,4.0,4.0,335.0424749996818,1.0,1.0,phase_1,,,,,,,,,,,,,gray,hexagon
208.0,3.0,2.0,0.0,3.0,3.0,315.4388820003078,1.0,1.0,phase_1,,,,,,,,,,,,,cyan,I
82.0,6.0,1.0,1.0,3.0,3.0,305.1350400000956,1.0,1.0,phase_1,,,,,,,,,,,,,blue,cross
0.0,4.0,0.0,0.0,4.0,4.0,347.3701120001351,1.0,1.0,phase_1,,,,,,,,,,,,,green,square
33.0,5.0,0.5,1.0,4.0,4.0,382.85987099970947,1.0,1.0,phase_1,,,,,,,,,,,,,magenta,flipped triangle
70.0,5.0,0.5,1.0,4.0,4.0,282.8946290001113,1.0,1.0,phase_1,,,,,,,,,,,,,magenta,flipped triangle
54.0,5.0,0.5,1.0,3.0,3.0,315.5926790004741,1.0,1.0,phase_1,,,,,,,,,,,,,magenta,flipped triangle
118.0,6.0,1.0,1.0,1.0,1.0,261.6487240002243,1.0,1.0,phase_1,,,,,,,,,,,,,blue,cross
416.0,4.0,4.0,0.0,3.0,3.0,320.7311539999864,1.0,1.0,phase_1,,,,,,,,,,,,,green,square
390.0,8.0,4.0,1.0,2.0,2.0,248.9923789999011,1.0,1.0,phase_1,,,,,,,,,,,,,white,diamond
199.0,7.0,2.0,1.0,1.0,1.0,272.6903919992764,1.0,1.0,phase_1,,,,,,,,,,,,,gray,hexagon
213.0,3.0,2.0,0.0,4.0,4.0,276.2550489997011,1.0,1.0,phase_1,,,,,,,,,,,,,cyan,I
221.0,7.0,2.0,1.0,3.0,3.0,311.6422410002997,1.0,1.0,phase_1,,,,,,,,,,,,,gray,hexagon
390.0,4.0,4.0,0.0,1.0,1.0,253.3513309999762,1.0,1.0,phase_1,,,,,,,,,,,,,green,square
415.0,4.0,4.0,0.0,2.0,2.0,262.9723170002762,1.0,1.0,phase_1,,,,,,,,,,,,,green,square
190.0,7.0,2.0,1.0,4.0,4.0,252.88045600063919,1.0,1.0,phase_1,,,,,,,,,,,,,gray,hexagon
409.0,8.0,4.0,1.0,4.0,4.0,459.886589999769,1.0,1.0,phase_1,,,,,,,,,,,,,white,diamond
420.0,4.0,4.0,0.0,1.0,1.0,366.1319249995358,1.0,1.0,phase_1,,,,,,,,,,,,,green,square
95.0,6.0,1.0,1.0,3.0,3.0,280.8119219998843,1.0,1.0,phase_1,,,,,,,,,,,,,blue,cross
77.0,6.0,1.0,1.0,4.0,4.0,291.3625370001682,1.0,1.0,phase_1,,,,,,,,,,,,,blue,cross
197.0,3.0,2.0,0.0,1.0,1.0,281.8705209992913,1.0,1.0,phase_1,,,,,,,,,,,,,cyan,I
0.0,8.0,0.0,1.0,3.0,3.0,338.7567319996378,1.0,1.0,phase_1,,,,,,,,,,,,,white,diamond
43.0,1.0,0.5,0.0,2.0,2.0,294.3730369997865,1.0,1.0,phase_1,,,,,,,,,,,,,yellow,circle
411.0,4.0,4.0,0.0,4.0,4.0,505.1152699998056,1.0,1.0,phase_1,,,,,,,,,,,,,green,square
72.0,1.0,0.5,0.0,4.0,4.0,403.6728000000948,1.0,1.0,phase_1,,,,,,,,,,,,,yellow,circle
59.0,5.0,0.5,1.0,1.0,1.0,272.2040210001069,1.0,1.0,phase_1,,,,,,,,,,,,,magenta,flipped triangle
55.0,1.0,0.5,0.0,3.0,3.0,349.3273459998818,1.0,2.0,phase_1,,,,,,,,,,,,,yellow,circle
394.0,8.0,4.0,1.0,2.0,2.0,315.3353560001051,1.0,1.0,phase_1,,,,,,,,,,,,,white,diamond
0.0,5.0,0.0,1.0,4.0,4.0,298.5060900000462,1.0,1.0,phase_1,,,,,,,,,,,,,magenta,flipped triangle
0.0,7.0,0.0,1.0,1.0,1.0,240.9935470004711,1.0,1.0,phase_1,,,,,,,,,,,,,gray,hexagon
0.0,6.0,0.0,1.0,4.0,4.0,340.3613190002943,1.0,1.0,phase_1,,,,,,,,,,,,,blue,cross
0.0,6.0,0.0,1.0,2.0,2.0,342.9711329999918,1.0,1.0,phase_1,,,,,,,,,,,,,blue,cross
410.0,8.0,4.0,1.0,3.0,3.0,354.100679000112,1.0,1.0,phase_1,,,,,,,,,,,,,white,diamond
0.0,7.0,0.0,1.0,3.0,3.0,352.7383720002035,1.0,1.0,phase_1,,,,,,,,,,,,,gray,hexagon
118.0,2.0,1.0,0.0,1.0,1.0,424.7863800001141,1.0,1.0,phase_1,,,,,,,,,,,,,orange,triangle
107.0,2.0,1.0,0.0,1.0,1.0,443.3018379995701,1.0,1.0,phase_1,,,,,,,,,,,,,orange,triangle
36.0,5.0,0.5,1.0,2.0,2.0,300.4282570000214,1.0,1.0,phase_1,,,,,,,,,,,,,magenta,flipped triangle
400.0,8.0,4.0,1.0,4.0,4.0,332.5375439999334,1.0,1.0,phase_1,,,,,,,,,,,,,white,diamond
410.0,4.0,4.0,0.0,1.0,1.0,292.4655580000035,1.0,1.0,phase_1,,,,,,,,,,,,,green,square
413.0,8.0,4.0,1.0,4.0,4.0,383.3471869993445,1.0,1.0,phase_1,,,,,,,,,,,,,white,diamond
223.0,3.0,2.0,0.0,2.0,2.0,345.5423230007,1.0,1.0,phase_1,,,,,,,,,,,,,cyan,I
26.0,5.0,0.5,1.0,3.0,3.0,408.0865820005783,2.0,1.0,phase_1,,,,,,,,,,,,,magenta,flipped triangle
205.0,3.0,2.0,0.0,1.0,1.0,378.7285230000634,2.0,1.0,phase_1,,,,,,,,,,,,,cyan,I
93.0,6.0,1.0,1.0,3.0,3.0,367.8440319999936,2.0,1.0,phase_1,,,,,,,,,,,,,blue,cross
0.0,8.0,0.0,1.0,4.0,4.0,366.4342840002064,2.0,1.0,phase_1,,,,,,,,,,,,,white,diamond
394.0,8.0,4.0,1.0,2.0,2.0,289.4426109996857,2.0,1.0,phase_1,,,,,,,,,,,,,white,diamond
193.0,3.0,2.0,0.0,4.0,4.0,445.1177350001671,2.0,1.0,phase_1,,,,,,,,,,,,,cyan,I
178.0,7.0,2.0,1.0,1.0,1.0,401.6331040002114,2.0,1.0,phase_1,,,,,,,,,,,,,gray,hexagon
61.0,5.0,0.5,1.0,4.0,4.0,356.7829180001354,2.0,1.0,phase_1,,,,,,,,,,,,,magenta,flipped triangle
384.0,8.0,4.0,1.0,2.0,2.0,382.5350400002207,2.0,1.0,phase_1,,,,,,,,,,,,,white,diamond
189.0,7.0,2.0,1.0,1.0,1.0,356.0533909994774,2.0,1.0,phase_1,,,,,,,,,,,,,gray,hexagon
67.0,5.0,0.5,1.0,4.0,4.0,348.1203920000553,2.0,1.0,phase_1,,,,,,,,,,,,,magenta,flipped triangle
95.0,2.0,1.0,0.0,1.0,1.0,372.7633680000508,2.0,1.0,phase_1,,,,,,,,,,,,,orange,triangle
86.0,2.0,1.0,0.0,3.0,3.0,301.8023139993602,2.0,1.0,phase_1,,,,,,,,,,,,,orange,triangle
95.0,6.0,1.0,1.0,2.0,2.0,313.9145649993224,2.0,1.0,phase_1,,,,,,,,,,,,,blue,cross
47.0,1.0,0.5,0.0,4.0,4.0,460.2319220002755,2.0,1.0,phase_1,,,,,,,,,,,,,yellow,circle
82.0,2.0,1.0,0.0,3.0,3.0,340.6258730001354,2.0,1.0,phase_1,,,,,,,,,,,,,orange,triangle
0.0,1.0,0.0,0.0,1.0,1.0,337.7916940007708,2.0,1.0,phase_1,,,,,,,,,,,,,yellow,circle
38.0,1.0,0.5,0.0,2.0,2.0,306.5983329997834,2.0,1.0,phase_1,,,,,,,,,,,,,yellow,circle
125.0,6.0,1.0,1.0,2.0,2.0,398.7242200000764,2.0,1.0,phase_1,,,,,,,,,,,,,blue,cross
109.0,6.0,1.0,1.0,2.0,2.0,365.256402000341,2.0,1.0,phase_1,,,,,,,,,,,,,blue,cross
205.0,7.0,2.0,1.0,3.0,3.0,351.579614000002,2.0,1.0,phase_1,,,,,,,,,,,,,gray,hexagon
62.0,1.0,0.5,0.0,4.0,4.0,310.7650709998779,2.0,1.0,phase_1,,,,,,,,,,,,,yellow,circle
217.0,7.0,2.0,1.0,2.0,2.0,352.4073210001006,2.0,1.0,phase_1,,,,,,,,,,,,,gray,hexagon
0.0,4.0,0.0,0.0,4.0,4.0,356.5358599998944,2.0,1.0,phase_1,,,,,,,,,,,,,green,square
417.0,4.0,4.0,0.0,3.0,3.0,364.501962999384,2.0,1.0,phase_1,,,,,,,,,,,,,green,square
0.0,3.0,0.0,0.0,4.0,4.0,403.2840270001543,2.0,1.0,phase_1,,,,,,,,,,,,,cyan,I
384.0,4.0,4.0,0.0,1.0,1.0,322.9883700005302,2.0,1.0,phase_1,,,,,,,,,,,,,green,square
195.0,7.0,2.0,1.0,1.0,1.0,381.1689249996561,2.0,2.0,phase_1,,,,,,,,,,,,,gray,hexagon
396.0,8.0,4.0,1.0,1.0,1.0,321.8263540002226,2.0,1.0,phase_1,,,,,,,,,,,,,white,diamond
0.0,5.0,0.0,1.0,4.0,4.0,311.2268810000387,2.0,1.0,phase_1,,,,,,,,,,,,,magenta,flipped triangle
192.0,3.0,2.0,0.0,2.0,2.0,315.580485999817,2.0,1.0,phase_1,,,,,,,,,,,,,cyan,I
0.0,6.0,0.0,1.0,1.0,1.0,369.4599149994246,2.0,1.0,phase_1,,,,,,,,,,,,,blue,cross
0.0,7.0,0.0,1.0,4.0,4.0,374.1059710000627,2.0,1.0,phase_1,,,,,,,,,,,,,gray,hexagon
180.0,7.0,2.0,1.0,3.0,3.0,328.0460010000752,2.0,1.0,phase_1,,,,,,,,,,,,,gray,hexagon
0.0,4.0,0.0,0.0,3.0,3.0,340.064863000407,2.0,1.0,phase_1,,,,,,,,,,,,,green,square
0.0,7.0,0.0,1.0,1.0,1.0,539.4790190002823,2.0,1.0,phase_1,,,,,,,,,,,,,gray,hexagon
407.0,4.0,4.0,0.0,1.0,1.0,383.7029870001061,2.0,1.0,phase_1,,,,,,,,,,,,,green,square
384.0,8.0,4.0,1.0,3.0,3.0,316.8238779999228,2.0,1.0,phase_1,,,,,,,,,,,,,white,diamond
118.0,6.0,1.0,1.0,4.0,4.0,373.031909999554,2.0,1.0,phase_1,,,,,,,,,,,,,blue,cross
110.0,6.0,1.0,1.0,4.0,4.0,455.7223729998441,2.0,1.0,phase_1,,,,,,,,,,,,,blue,cross
104.0,6.0,1.0,1.0,4.0,4.0,351.8062229995848,2.0,1.0,phase_1,,,,,,,,,,,,,blue,cross
396.0,4.0,4.0,0.0,2.0,2.0,285.0369010002396,2.0,1.0,phase_1,,,,,,,,,,,,,green,square
95.0,2.0,1.0,0.0,3.0,3.0,297.9645969999183,2.0,1.0,phase_1,,,,,,,,,,,,,orange,triangle
0.0,2.0,0.0,0.0,2.0,2.0,342.6261900003737,2.0,1.0,phase_1,,,,,,,,,,,,,orange,triangle
0.0,1.0,0.0,0.0,4.0,4.0,387.652811999942,2.0,1.0,phase_1,,,,,,,,,,,,,yellow,circle
59.0,1.0,0.5,0.0,4.0,4.0,413.2324759993935,2.0,1.0,phase_1,,,,,,,,,,,,,yellow,circle
107.0,6.0,1.0,1.0,3.0,3.0,313.546478999342,2.0,1.0,phase_1,,,,,,,,,,,,,blue,cross
0.0,8.0,0.0,1.0,2.0,2.0,321.0570020000887,2.0,1.0,phase_1,,,,,,,,,,,,,white,diamond
93.0,2.0,1.0,0.0,4.0,4.0,355.5330769995635,2.0,1.0,phase_1,,,,,,,,,,,,,orange,triangle
49.0,5.0,0.5,1.0,1.0,1.0,585.5622339995534,2.0,1.0,phase_1,,,,,,,,,,,,,magenta,flipped triangle
114.0,6.0,1.0,1.0,4.0,4.0,392.7819869995801,2.0,1.0,phase_1,,,,,,,,,,,,,blue,cross
181.0,7.0,2.0,1.0,3.0,3.0,346.1745600006907,2.0,1.0,phase_1,,,,,,,,,,,,,gray,hexagon
0.0,3.0,0.0,0.0,1.0,1.0,317.5308879999647,2.0,1.0,phase_1,,,,,,,,,,,,,cyan,I
382.0,8.0,4.0,1.0,1.0,1.0,408.1647570001223,2.0,1.0,phase_1,,,,,,,,,,,,,white,diamond
202.0,7.0,2.0,1.0,4.0,4.0,475.2153029994588,2.0,1.0,phase_1,,,,,,,,,,,,,gray,hexagon
65.0,1.0,0.5,0.0,1.0,1.0,397.5271220006107,2.0,1.0,phase_1,,,,,,,,,,,,,yellow,circle
195.0,3.0,2.0,0.0,3.0,3.0,337.7119229999152,2.0,1.0,phase_1,,,,,,,,,,,,,cyan,I
0.0,8.0,0.0,1.0,3.0,3.0,388.1777759997931,2.0,1.0,phase_1,,,,,,,,,,,,,white,diamond
35.0,5.0,0.5,1.0,2.0,2.0,296.9719869997789,2.0,1.0,phase_1,,,,,,,,,,,,,magenta,flipped triangle
0.0,2.0,0.0,0.0,3.0,3.0,362.7445439997245,2.0,1.0,phase_1,,,,,,,,,,,,,orange,triangle
0.0,5.0,0.0,1.0,2.0,2.0,364.8023979994832,2.0,1.0,phase_1,,,,,,,,,,,,,magenta,flipped triangle
109.0,2.0,1.0,0.0,2.0,2.0,396.6415220002091,2.0,1.0,phase_1,,,,,,,,,,,,,orange,triangle
392.0,4.0,4.0,0.0,1.0,1.0,422.3437919999924,2.0,1.0,phase_1,,,,,,,,,,,,,green,square
404.0,4.0,4.0,0.0,2.0,2.0,420.1407640002799,2.0,1.0,phase_1,,,,,,,,,,,,,green,square
392.0,8.0,4.0,1.0,1.0,1.0,380.0281339999856,2.0,1.0,phase_1,,,,,,,,,,,,,white,diamond
195.0,7.0,2.0,1.0,1.0,1.0,356.6746290007359,2.0,1.0,phase_1,,,,,,,,,,,,,gray,hexagon
417.0,8.0,4.0,1.0,3.0,3.0,301.9283140001789,2.0,1.0,phase_1,,,,,,,,,,,,,white,diamond
384.0,8.0,4.0,1.0,3.0,3.0,359.5629659994301,2.0,2.0,phase_1,,,,,,,,,,,,,white,diamond
33.0,1.0,0.5,0.0,2.0,2.0,348.3391589998064,2.0,1.0,phase_1,,,,,,,,,,,,,yellow,circle
190.0,3.0,2.0,0.0,3.0,3.0,372.6244729996324,2.0,1.0,phase_1,,,,,,,,,,,,,cyan,I
125.0,2.0,1.0,0.0,2.0,2.0,334.2501779998201,2.0,1.0,phase_1,,,,,,,,,,,,,orange,triangle
424.0,8.0,4.0,1.0,1.0,1.0,350.5826769996929,2.0,1.0,phase_1,,,,,,,,,,,,,white,diamond
74.0,5.0,0.5,1.0,1.0,1.0,393.9973480000844,2.0,1.0,phase_1,,,,,,,,,,,,,magenta,flipped triangle
0.0,6.0,0.0,1.0,3.0,3.0,359.2343789996448,2.0,1.0,phase_1,,,,,,,,,,,,,blue,cross
74.0,1.0,0.5,0.0,4.0,4.0,371.3251540002602,2.0,1.0,phase_1,,,,,,,,,,,,,yellow,circle
0.0,4.0,0.0,0.0,2.0,2.0,340.8696850001433,2.0,1.0,phase_1,,,,,,,,,,,,,green,square
76.0,2.0,1.0,0.0,4.0,4.0,419.5140419997187,2.0,1.0,phase_1,,,,,,,,,,,,,orange,triangle
408.0,8.0,4.0,1.0,1.0,1.0,360.653717999412,2.0,1.0,phase_1,,,,,,,,,,,,,white,diamond
38.0,5.0,0.5,1.0,2.0,2.0,388.6226989998249,2.0,1.0,phase_1,,,,,,,,,,,,,magenta,flipped triangle
75.0,2.0,1.0,0.0,4.0,4.0,332.4517540004308,2.0,1.0,phase_1,,,,,,,,,,,,,orange,triangle
115.0,2.0,1.0,0.0,2.0,2.0,330.1393120000284,2.0,1.0,phase_1,,,,,,,,,,,,,orange,triangle
379.0,8.0,4.0,1.0,3.0,3.0,356.0922870001377,2.0,1.0,phase_1,,,,,,,,,,,,,white,diamond
118.0,2.0,1.0,0.0,4.0,4.0,375.3207950003343,2.0,1.0,phase_1,,,,,,,,,,,,,orange,triangle
84.0,6.0,1.0,1.0,2.0,2.0,289.7590480006329,2.0,1.0,phase_1,,,,,,,,,,,,,blue,cross
394.0,4.0,4.0,0.0,4.0,4.0,353.9979320003112,2.0,1.0,phase_1,,,,,,,,,,,,,green,square
0.0,7.0,0.0,1.0,1.0,1.0,346.5966039993873,2.0,1.0,phase_1,,,,,,,,,,,,,gray,hexagon
0.0,2.0,0.0,0.0,4.0,4.0,332.3741679996601,2.0,1.0,phase_1,,,,,,,,,,,,,orange,triangle
102.0,6.0,1.0,1.0,1.0,1.0,355.784463999953,2.0,1.0,phase_1,,,,,,,,,,,,,blue,cross
66.0,1.0,0.5,0.0,2.0,2.0,355.3837119998206,2.0,1.0,phase_1,,,,,,,,,,,,,yellow,circle
400.0,4.0,4.0,0.0,3.0,3.0,323.1601580000642,2.0,1.0,phase_1,,,,,,,,,,,,,green,square
28.0,5.0,0.5,1.0,4.0,4.0,358.8134419997004,2.0,1.0,phase_1,,,,,,,,,,,,,magenta,flipped triangle
187.0,3.0,2.0,0.0,4.0,4.0,328.8175669995326,2.0,1.0,phase_1,,,,,,,,,,,,,cyan,I
404.0,8.0,4.0,1.0,2.0,2.0,347.0872429998053,2.0,1.0,phase_1,,,,,,,,,,,,,white,diamond
88.0,6.0,1.0,1.0,4.0,4.0,362.8827780003121,2.0,1.0,phase_1,,,,,,,,,,,,,blue,cross
122.0,6.0,1.0,1.0,3.0,3.0,384.5097039993561,2.0,1.0,phase_1,,,,,,,,,,,,,blue,cross
416.0,4.0,4.0,0.0,2.0,2.0,360.5624570000145,2.0,1.0,phase_1,,,,,,,,,,,,,green,square
216.0,3.0,2.0,0.0,2.0,2.0,359.916462000001,2.0,1.0,phase_1,,,,,,,,,,,,,cyan,I
0.0,1.0,0.0,0.0,3.0,3.0,353.5052960005487,2.0,1.0,phase_1,,,,,,,,,,,,,yellow,circle
182.0,3.0,2.0,0.0,2.0,2.0,319.2537679997258,2.0,1.0,phase_1,,,,,,,,,,,,,cyan,I
36.0,1.0,0.5,0.0,3.0,3.0,339.7954299998673,2.0,1.0,phase_1,,,,,,,,,,,,,yellow,circle
0.0,3.0,0.0,0.0,4.0,4.0,475.601787999949,3.0,1.0,phase_1,,,,,,,,,,,,,cyan,I
70.0,1.0,0.5,0.0,2.0,2.0,326.591541000198,3.0,1.0,phase_1,,,,,,,,,,,,,yellow,circle
413.0,8.0,4.0,1.0,4.0,4.0,338.383046000672,3.0,1.0,phase_1,,,,,,,,,,,,,white,diamond
86.0,6.0,1.0,1.0,4.0,4.0,331.018065000535,3.0,1.0,phase_1,,,,,,,,,,,,,blue,cross
95.0,6.0,1.0,1.0,1.0,1.0,318.6568370001623,3.0,1.0,phase_1,,,,,,,,,,,,,blue,cross
43.0,5.0,0.5,1.0,3.0,3.0,377.0024369996463,3.0,1.0,phase_1,,,,,,,,,,,,,magenta,flipped triangle
114.0,2.0,1.0,0.0,3.0,3.0,366.3988660000541,3.0,1.0,phase_1,,,,,,,,,,,,,orange,triangle
410.0,8.0,4.0,1.0,4.0,4.0,318.4796000005008,3.0,1.0,phase_1,,,,,,,,,,,,,white,diamond
219.0,7.0,2.0,1.0,3.0,3.0,356.3818369993896,3.0,1.0,phase_1,,,,,,,,,,,,,gray,hexagon
0.0,6.0,0.0,1.0,2.0,2.0,320.9745650001423,3.0,1.0,phase_1,,,,,,,,,,,,,blue,cross
42.0,5.0,0.5,1.0,4.0,4.0,410.2116119993297,3.0,1.0,phase_1,,,,,,,,,,,,,magenta,flipped triangle
80.0,2.0,1.0,0.0,2.0,2.0,356.6483000004155,3.0,1.0,phase_1,,,,,,,,,,,,,orange,triangle
56.0,5.0,0.5,1.0,3.0,3.0,311.4995340001769,3.0,1.0,phase_1,,,,,,,,,,,,,magenta,flipped triangle
210.0,3.0,2.0,0.0,3.0,3.0,370.2367380001305,3.0,1.0,phase_1,,,,,,,,,,,,,cyan,I
198.0,3.0,2.0,0.0,2.0,2.0,290.9588789998452,3.0,1.0,phase_1,,,,,,,,,,,,,cyan,I
386.0,4.0,4.0,0.0,4.0,4.0,338.3394590000534,3.0,1.0,phase_1,,,,,,,,,,,,,green,square
86.0,6.0,1.0,1.0,1.0,1.0,347.0930530002079,3.0,1.0,phase_1,,,,,,,,,,,,,blue,cross
415.0,8.0,4.0,1.0,1.0,1.0,382.0079140004964,3.0,1.0,phase_1,,,,,,,,,,,,,white,diamond
0.0,1.0,0.0,0.0,4.0,4.0,406.6399159992215,3.0,1.0,phase_1,,,,,,,,,,,,,yellow,circle
0.0,7.0,0.0,1.0,2.0,2.0,339.5493090001764,3.0,1.0,phase_1,,,,,,,,,,,,,gray,hexagon
39.0,5.0,0.5,1.0,3.0,3.0,284.6563859993694,3.0,1.0,phase_1,,,,,,,,,,,,,magenta,flipped triangle
0.0,8.0,0.0,1.0,4.0,4.0,337.4948119999317,3.0,1.0,phase_1,,,,,,,,,,,,,white,diamond
388.0,4.0,4.0,0.0,1.0,1.0,319.8240430001533,3.0,1.0,phase_1,,,,,,,,,,,,,green,square
122.0,6.0,1.0,1.0,3.0,3.0,294.4562560005579,3.0,1.0,phase_1,,,,,,,,,,,,,blue,cross
421.0,8.0,4.0,1.0,3.0,3.0,353.9825170000767,3.0,1.0,phase_1,,,,,,,,,,,,,white,diamond
386.0,8.0,4.0,1.0,2.0,2.0,319.8612859996501,3.0,1.0,phase_1,,,,,,,,,,,,,white,diamond
0.0,2.0,0.0,0.0,4.0,4.0,295.5407819999891,3.0,1.0,phase_1,,,,,,,,,,,,,orange,triangle
409.0,8.0,4.0,1.0,2.0,2.0,341.2935510004899,3.0,1.0,phase_1,,,,,,,,,,,,,white,diamond
222.0,7.0,2.0,1.0,4.0,4.0,364.7459769999841,3.0,1.0,phase_1,,,,,,,,,,,,,gray,hexagon
91.0,6.0,1.0,1.0,1.0,1.0,323.13053100006067,3.0,1.0,phase_1,,,,,,,,,,,,,blue,cross
55.0,5.0,0.5,1.0,4.0,4.0,320.9248510001998,3.0,1.0,phase_1,,,,,,,,,,,,,magenta,flipped triangle
0.0,4.0,0.0,0.0,4.0,4.0,309.5104069998342,3.0,1.0,phase_1,,,,,,,,,,,,,green,square
208.0,3.0,2.0,0.0,1.0,1.0,310.432068999944,3.0,1.0,phase_1,,,,,,,,,,,,,cyan,I
409.0,4.0,4.0,0.0,4.0,4.0,333.2617469995966,3.0,1.0,phase_1,,,,,,,,,,,,,green,square
121.0,2.0,1.0,0.0,3.0,3.0,333.67729600013257,3.0,1.0,phase_1,,,,,,,,,,,,,orange,triangle
217.0,3.0,2.0,0.0,2.0,2.0,280.9806479999679,3.0,1.0,phase_1,,,,,,,,,,,,,cyan,I
27.0,1.0,0.5,0.0,4.0,4.0,281.2244050001027,3.0,1.0,phase_1,,,,,,,,,,,,,yellow,circle
0.0,8.0,0.0,1.0,4.0,4.0,358.2933179995962,3.0,1.0,phase_1,,,,,,,,,,,,,white,diamond
122.0,2.0,1.0,0.0,2.0,2.0,405.8084349999262,3.0,1.0,phase_1,,,,,,,,,,,,,orange,triangle
178.0,3.0,2.0,0.0,4.0,4.0,340.0793729997531,3.0,1.0,phase_1,,,,,,,,,,,,,cyan,I
184.0,7.0,2.0,1.0,4.0,4.0,386.1766449999777,3.0,1.0,phase_1,,,,,,,,,,,,,gray,hexagon
61.0,1.0,0.5,0.0,3.0,3.0,305.1341899999897,3.0,2.0,phase_1,,,,,,,,,,,,,yellow,circle
216.0,7.0,2.0,1.0,3.0,3.0,305.5010839998431,3.0,1.0,phase_1,,,,,,,,,,,,,gray,hexagon
210.0,3.0,2.0,0.0,3.0,3.0,364.4465349998427,3.0,1.0,phase_1,,,,,,,,,,,,,cyan,I
0.0,8.0,0.0,1.0,4.0,4.0,331.9356869997136,3.0,1.0,phase_1,,,,,,,,,,,,,white,diamond
115.0,6.0,1.0,1.0,2.0,2.0,306.3633619995016,3.0,1.0,phase_1,,,,,,,,,,,,,blue,cross
187.0,7.0,2.0,1.0,2.0,2.0,397.4074429997927,3.0,1.0,phase_1,,,,,,,,,,,,,gray,hexagon
59.0,1.0,0.5,0.0,3.0,3.0,397.3029850003513,3.0,1.0,phase_1,,,,,,,,,,,,,yellow,circle
117.0,2.0,1.0,0.0,4.0,4.0,356.1217950000355,3.0,1.0,phase_1,,,,,,,,,,,,,orange,triangle
219.0,3.0,2.0,0.0,2.0,2.0,389.3262530000356,3.0,1.0,phase_1,,,,,,,,,,,,,cyan,I
397.0,4.0,4.0,0.0,4.0,4.0,368.5615920003329,3.0,1.0,phase_1,,,,,,,,,,,,,green,square
0.0,5.0,0.0,1.0,3.0,3.0,310.471005999716,3.0,1.0,phase_1,,,,,,,,,,,,,magenta,flipped triangle
54.0,1.0,0.5,0.0,1.0,1.0,583.0088660004549,3.0,1.0,phase_1,,,,,,,,,,,,,yellow,circle
66.0,5.0,0.5,1.0,1.0,1.0,413.6682460002703,3.0,1.0,phase_1,,,,,,,,,,,,,magenta,flipped triangle
0.0,4.0,0.0,0.0,3.0,3.0,629.7665410002082,3.0,1.0,phase_1,,,,,,,,,,,,,green,square
190.0,7.0,2.0,1.0,1.0,1.0,438.3458309994239,3.0,1.0,phase_1,,,,,,,,,,,,,gray,hexagon
117.0,6.0,1.0,1.0,3.0,3.0,339.6887400003834,3.0,1.0,phase_1,,,,,,,,,,,,,blue,cross
217.0,7.0,2.0,1.0,4.0,4.0,373.1853829995089,3.0,1.0,phase_1,,,,,,,,,,,,,gray,hexagon
0.0,7.0,0.0,1.0,3.0,3.0,305.3944610001053,3.0,1.0,phase_1,,,,,,,,,,,,,gray,hexagon
200.0,3.0,2.0,0.0,1.0,1.0,429.4622589995924,3.0,1.0,phase_1,,,,,,,,,,,,,cyan,I
57.0,1.0,0.5,0.0,3.0,3.0,297.1208019998812,3.0,1.0,phase_1,,,,,,,,,,,,,yellow,circle
176.0,7.0,2.0,1.0,4.0,4.0,364.1840059999595,3.0,1.0,phase_1,,,,,,,,,,,,,gray,hexagon
398.0,8.0,4.0,1.0,4.0,4.0,372.1358120001241,3.0,1.0,phase_1,,,,,,,,,,,,,white,diamond
0.0,1.0,0.0,0.0,2.0,2.0,296.7000580001695,3.0,1.0,phase_1,,,,,,,,,,,,,yellow,circle
49.0,1.0,0.5,0.0,1.0,1.0,305.4152659997271,3.0,1.0,phase_1,,,,,,,,,,,,,yellow,circle
0.0,7.0,0.0,1.0,2.0,2.0,329.7576850000041,3.0,1.0,phase_1,,,,,,,,,,,,,gray,hexagon
190.0,3.0,2.0,0.0,3.0,3.0,317.949315000078,3.0,1.0,phase_1,,,,,,,,,,,,,cyan,I
213.0,7.0,2.0,1.0,2.0,2.0,330.1417869997749,3.0,1.0,phase_1,,,,,,,,,,,,,gray,hexagon
413.0,4.0,4.0,0.0,1.0,1.0,323.5014029996819,3.0,2.0,phase_1,,,,,,,,,,,,,green,square
400.0,4.0,4.0,0.0,4.0,4.0,331.8366909998076,3.0,1.0,phase_1,,,,,,,,,,,,,green,square
200.0,7.0,2.0,1.0,4.0,4.0,348.1013179998626,3.0,1.0,phase_1,,,,,,,,,,,,,gray,hexagon
27.0,5.0,0.5,1.0,3.0,3.0,355.5530780004119,3.0,1.0,phase_1,,,,,,,,,,,,,magenta,flipped triangle
416.0,8.0,4.0,1.0,3.0,3.0,335.3159529997356,3.0,1.0,phase_1,,,,,,,,,,,,,white,diamond
0.0,5.0,0.0,1.0,3.0,3.0,335.984811000344,3.0,1.0,phase_1,,,,,,,,,,,,,magenta,flipped triangle
212.0,3.0,2.0,0.0,3.0,3.0,336.4054699995904,3.0,1.0,phase_1,,,,,,,,,,,,,cyan,I
0.0,2.0,0.0,0.0,3.0,3.0,349.6413129996654,3.0,1.0,phase_1,,,,,,,,,,,,,orange,triangle
197.0,3.0,2.0,0.0,4.0,4.0,361.6424029996778,3.0,1.0,phase_1,,,,,,,,,,,,,cyan,I
0.0,5.0,0.0,1.0,1.0,1.0,349.1247209994981,3.0,1.0,phase_1,,,,,,,,,,,,,magenta,flipped triangle
41.0,5.0,0.5,1.0,1.0,1.0,328.5500530000718,3.0,1.0,phase_1,,,,,,,,,,,,,magenta,flipped triangle
217.0,3.0,2.0,0.0,1.0,1.0,316.982769999413,3.0,1.0,phase_1,,,,,,,,,,,,,cyan,I
197.0,7.0,2.0,1.0,2.0,2.0,372.3680909997711,3.0,1.0,phase_1,,,,,,,,,,,,,gray,hexagon
212.0,3.0,2.0,0.0,1.0,1.0,340.2897070000108,3.0,1.0,phase_1,,,,,,,,,,,,,cyan,I
219.0,3.0,2.0,0.0,3.0,3.0,327.6707090008131,3.0,1.0,phase_1,,,,,,,,,,,,,cyan,I
401.0,4.0,4.0,0.0,3.0,3.0,377.3910999998406,3.0,1.0,phase_1,,,,,,,,,,,,,green,square
0.0,3.0,0.0,0.0,4.0,4.0,396.8747359995177,3.0,1.0,phase_1,,,,,,,,,,,,,cyan,I
392.0,8.0,4.0,1.0,2.0,2.0,319.7134339998229,3.0,1.0,phase_1,,,,,,,,,,,,,white,diamond
42.0,1.0,0.5,0.0,1.0,1.0,330.4204440000831,3.0,1.0,phase_1,,,,,,,,,,,,,yellow,circle
384.0,4.0,4.0,0.0,2.0,2.0,356.49640200063,3.0,1.0,phase_1,,,,,,,,,,,,,green,square
193.0,7.0,2.0,1.0,1.0,1.0,344.2136280000341,3.0,1.0,phase_1,,,,,,,,,,,,,gray,hexagon
210.0,7.0,2.0,1.0,2.0,2.0,376.9207730001653,3.0,2.0,phase_1,,,,,,,,,,,,,gray,hexagon
0.0,6.0,0.0,1.0,1.0,1.0,367.3501129997021,3.0,1.0,phase_1,,,,,,,,,,,,,blue,cross
45.0,5.0,0.5,1.0,3.0,3.0,303.2365850003771,3.0,1.0,phase_1,,,,,,,,,,,,,magenta,flipped triangle
421.0,4.0,4.0,0.0,3.0,3.0,347.4050330005411,3.0,1.0,phase_1,,,,,,,,,,,,,green,square
219.0,7.0,2.0,1.0,3.0,3.0,372.0326479997311,3.0,1.0,phase_1,,,,,,,,,,,,,gray,hexagon
410.0,4.0,4.0,0.0,2.0,2.0,359.366637999301,3.0,1.0,phase_1,,,,,,,,,,,,,green,square
72.0,5.0,0.5,1.0,2.0,2.0,370.9599800004071,3.0,1.0,phase_1,,,,,,,,,,,,,magenta,flipped triangle
181.0,3.0,2.0,0.0,4.0,4.0,448.6179129999073,3.0,1.0,phase_1,,,,,,,,,,,,,cyan,I
122.0,2.0,1.0,0.0,2.0,2.0,371.858883000641,3.0,1.0,phase_1,,,,,,,,,,,,,orange,triangle
184.0,3.0,2.0,0.0,4.0,4.0,429.7656199996709,3.0,1.0,phase_1,,,,,,,,,,,,,cyan,I
67.0,1.0,0.5,0.0,2.0,2.0,362.2280429999591,3.0,1.0,phase_1,,,,,,,,,,,,,yellow,circle
0.0,6.0,0.0,1.0,1.0,1.0,347.2644720004609,4.0,1.0,phase_1,,,,,,,,,,,,,blue,cross
420.0,8.0,4.0,1.0,4.0,4.0,334.0053310002986,4.0,1.0,phase_1,,,,,,,,,,,,,white,diamond
0.0,3.0,0.0,0.0,2.0,2.0,280.9399320003649,4.0,1.0,phase_1,,,,,,,,,,,,,cyan,I
0.0,2.0,0.0,0.0,4.0,4.0,255.3232380005283,4.0,1.0,phase_1,,,,,,,,,,,,,orange,triangle
26.0,5.0,0.5,1.0,3.0,3.0,334.8896890001924,4.0,1.0,phase_1,,,,,,,,,,,,,magenta,flipped triangle
121.0,6.0,1.0,1.0,2.0,2.0,313.2631140006197,4.0,1.0,phase_1,,,,,,,,,,,,,blue,cross
0.0,4.0,0.0,0.0,1.0,1.0,292.8146510002989,4.0,1.0,phase_1,,,,,,,,,,,,,green,square
0.0,1.0,0.0,0.0,3.0,3.0,325.7479659996534,4.0,1.0,phase_1,,,,,,,,,,,,,yellow,circle
381.0,8.0,4.0,1.0,1.0,1.0,317.7533759999278,4.0,1.0,phase_1,,,,,,,,,,,,,white,diamond
397.0,8.0,4.0,1.0,3.0,3.0,359.5253329995103,4.0,1.0,phase_1,,,,,,,,,,,,,white,diamond
377.0,8.0,4.0,1.0,4.0,4.0,331.3116790004642,4.0,1.0,phase_1,,,,,,,,,,,,,white,diamond
0.0,8.0,0.0,1.0,1.0,1.0,317.2713980002299,4.0,1.0,phase_1,,,,,,,,,,,,,white,diamond
31.0,5.0,0.5,1.0,4.0,4.0,309.3059700004232,4.0,1.0,phase_1,,,,,,,,,,,,,magenta,flipped triangle
187.0,3.0,2.0,0.0,1.0,1.0,363.2084810005835,4.0,1.0,phase_1,,,,,,,,,,,,,cyan,I
56.0,1.0,0.5,0.0,3.0,3.0,284.8389609998776,4.0,1.0,phase_1,,,,,,,,,,,,,yellow,circle
121.0,6.0,1.0,1.0,2.0,2.0,263.9530139995258,4.0,1.0,phase_1,,,,,,,,,,,,,blue,cross
45.0,1.0,0.5,0.0,2.0,2.0,354.8146339999221,4.0,1.0,phase_1,,,,,,,,,,,,,yellow,circle
120.0,6.0,1.0,1.0,3.0,3.0,323.9697019998857,4.0,1.0,phase_1,,,,,,,,,,,,,blue,cross
408.0,4.0,4.0,0.0,3.0,3.0,336.0791049999534,4.0,2.0,phase_1,,,,,,,,,,,,,green,square
377.0,4.0,4.0,0.0,3.0,3.0,343.305311000222,4.0,1.0,phase_1,,,,,,,,,,,,,green,square
88.0,2.0,1.0,0.0,2.0,2.0,309.8780820000684,4.0,1.0,phase_1,,,,,,,,,,,,,orange,triangle
75.0,2.0,1.0,0.0,4.0,4.0,348.7601900005757,4.0,1.0,phase_1,,,,,,,,,,,,,orange,triangle
176.0,3.0,2.0,0.0,2.0,2.0,356.5775349998148,4.0,1.0,phase_1,,,,,,,,,,,,,cyan,I
392.0,4.0,4.0,0.0,3.0,3.0,358.4764340002948,4.0,1.0,phase_1,,,,,,,,,,,,,green,square
121.0,2.0,1.0,0.0,4.0,4.0,347.1885740000289,4.0,1.0,phase_1,,,,,,,,,,,,,orange,triangle
187.0,7.0,2.0,1.0,4.0,4.0,360.5613689996971,4.0,1.0,phase_1,,,,,,,,,,,,,gray,hexagon
28.0,1.0,0.5,0.0,4.0,4.0,347.476879000169,4.0,1.0,phase_1,,,,,,,,,,,,,yellow,circle
94.0,2.0,1.0,0.0,1.0,1.0,340.6183030001557,4.0,1.0,phase_1,,,,,,,,,,,,,orange,triangle
0.0,4.0,0.0,0.0,4.0,4.0,338.0237950004812,4.0,1.0,phase_1,,,,,,,,,,,,,green,square
212.0,7.0,2.0,1.0,4.0,4.0,352.6252129995555,4.0,1.0,phase_1,,,,,,,,,,,,,gray,hexagon
195.0,3.0,2.0,0.0,1.0,1.0,331.2635540005431,4.0,1.0,phase_1,,,,,,,,,,,,,cyan,I
39.0,1.0,0.5,0.0,3.0,3.0,261.0919529997773,4.0,1.0,phase_1,,,,,,,,,,,,,yellow,circle
0.0,2.0,0.0,0.0,2.0,2.0,253.694545000144,4.0,1.0,phase_1,,,,,,,,,,,,,orange,triangle
180.0,3.0,2.0,0.0,2.0,2.0,298.8972270004524,4.0,1.0,phase_1,,,,,,,,,,,,,cyan,I
51.0,1.0,0.5,0.0,2.0,2.0,331.5757199998188,4.0,1.0,phase_1,,,,,,,,,,,,,yellow,circle
0.0,7.0,0.0,1.0,3.0,3.0,344.6486330003608,4.0,1.0,phase_1,,,,,,,,,,,,,gray,hexagon
31.0,1.0,0.5,0.0,1.0,1.0,397.7139519993216,4.0,1.0,phase_1,,,,,,,,,,,,,yellow,circle
76.0,6.0,1.0,1.0,4.0,4.0,331.4877390002948,4.0,1.0,phase_1,,,,,,,,,,,,,blue,cross
121.0,2.0,1.0,0.0,3.0,3.0,322.8475289997732,4.0,1.0,phase_1,,,,,,,,,,,,,orange,triangle
75.0,6.0,1.0,1.0,2.0,2.0,302.2531000005983,4.0,1.0,phase_1,,,,,,,,,,,,,blue,cross
0.0,3.0,0.0,0.0,3.0,3.0,257.48573700002447,4.0,1.0,phase_1,,,,,,,,,,,,,cyan,I
50.0,1.0,0.5,0.0,3.0,3.0,348.4464819994173,4.0,1.0,phase_1,,,,,,,,,,,,,yellow,circle
84.0,2.0,1.0,0.0,4.0,4.0,379.2702280006779,4.0,1.0,phase_1,,,,,,,,,,,,,orange,triangle
98.0,6.0,1.0,1.0,1.0,1.0,289.3770919999952,4.0,1.0,phase_1,,,,,,,,,,,,,blue,cross
0.0,3.0,0.0,0.0,1.0,1.0,401.7813159998695,4.0,1.0,phase_1,,,,,,,,,,,,,cyan,I
43.0,5.0,0.5,1.0,1.0,1.0,393.0282669998632,4.0,1.0,phase_1,,,,,,,,,,,,,magenta,flipped triangle
102.0,2.0,1.0,0.0,1.0,1.0,380.487682000421,4.0,1.0,phase_1,,,,,,,,,,,,,orange,triangle
51.0,5.0,0.5,1.0,1.0,1.0,347.4431289996573,4.0,1.0,phase_1,,,,,,,,,,,,,magenta,flipped triangle
26.0,1.0,0.5,0.0,4.0,4.0,348.0081879997669,4.0,1.0,phase_1,,,,,,,,,,,,,yellow,circle
42.0,5.0,0.5,1.0,2.0,2.0,281.4576559994748,4.0,1.0,phase_1,,,,,,,,,,,,,magenta,flipped triangle
77.0,2.0,1.0,0.0,1.0,1.0,306.3824040000327,4.0,1.0,phase_1,,,,,,,,,,,,,orange,triangle
65.0,5.0,0.5,1.0,1.0,1.0,307.3226520000389,4.0,1.0,phase_1,,,,,,,,,,,,,magenta,flipped triangle
68.0,1.0,0.5,0.0,2.0,2.0,293.5390479997295,4.0,1.0,phase_1,,,,,,,,,,,,,yellow,circle
379.0,4.0,4.0,0.0,2.0,2.0,318.4042989996669,4.0,1.0,phase_1,,,,,,,,,,,,,green,square
51.0,5.0,0.5,1.0,2.0,2.0,306.8173199999364,4.0,1.0,phase_1,,,,,,,,,,,,,magenta,flipped triangle
76.0,6.0,1.0,1.0,4.0,4.0,287.3647750002419,4.0,1.0,phase_1,,,,,,,,,,,,,blue,cross
413.0,4.0,4.0,0.0,4.0,4.0,377.0255610006643,4.0,1.0,phase_1,,,,,,,,,,,,,green,square
93.0,6.0,1.0,1.0,1.0,1.0,301.1209709993636,4.0,1.0,phase_1,,,,,,,,,,,,,blue,cross
93.0,2.0,1.0,0.0,1.0,1.0,309.0945300000385,4.0,1.0,phase_1,,,,,,,,,,,,,orange,triangle
0.0,7.0,0.0,1.0,1.0,1.0,380.0136790005126,4.0,1.0,phase_1,,,,,,,,,,,,,gray,hexagon
47.0,5.0,0.5,1.0,3.0,3.0,332.9741440002181,4.0,1.0,phase_1,,,,,,,,,,,,,magenta,flipped triangle
43.0,1.0,0.5,0.0,2.0,2.0,269.0333419996022,4.0,1.0,phase_1,,,,,,,,,,,,,yellow,circle
93.0,2.0,1.0,0.0,4.0,4.0,358.1830079992869,4.0,2.0,phase_1,,,,,,,,,,,,,orange,triangle
0.0,8.0,0.0,1.0,3.0,3.0,338.1673539997791,4.0,1.0,phase_1,,,,,,,,,,,,,white,diamond
0.0,1.0,0.0,0.0,2.0,2.0,305.649619000178,4.0,1.0,phase_1,,,,,,,,,,,,,yellow,circle
0.0,5.0,0.0,1.0,3.0,3.0,304.7645229999034,4.0,1.0,phase_1,,,,,,,,,,,,,magenta,flipped triangle
382.0,4.0,4.0,0.0,3.0,3.0,351.8891639996582,4.0,1.0,phase_1,,,,,,,,,,,,,green,square
121.0,6.0,1.0,1.0,1.0,1.0,351.4049129998966,4.0,1.0,phase_1,,,,,,,,,,,,,blue,cross
0.0,5.0,0.0,1.0,3.0,3.0,318.54297999962,4.0,1.0,phase_1,,,,,,,,,,,,,magenta,flipped triangle
0.0,1.0,0.0,0.0,4.0,4.0,330.711696000435,4.0,1.0,phase_1,,,,,,,,,,,,,yellow,circle
0.0,4.0,0.0,0.0,4.0,4.0,304.8758639997686,4.0,1.0,phase_1,,,,,,,,,,,,,green,square
104.0,2.0,1.0,0.0,2.0,2.0,298.0518909998864,4.0,1.0,phase_1,,,,,,,,,,,,,orange,triangle
223.0,7.0,2.0,1.0,1.0,1.0,321.4523489996281,4.0,1.0,phase_1,,,,,,,,,,,,,gray,hexagon
398.0,4.0,4.0,0.0,2.0,2.0,433.3528870001828,4.0,1.0,phase_1,,,,,,,,,,,,,green,square
110.0,2.0,1.0,0.0,2.0,2.0,396.9258959996296,4.0,1.0,phase_1,,,,,,,,,,,,,orange,triangle
199.0,3.0,2.0,0.0,3.0,3.0,296.6928999994707,4.0,1.0,phase_1,,,,,,,,,,,,,cyan,I
57.0,5.0,0.5,1.0,2.0,2.0,387.1023030005744,4.0,1.0,phase_1,,,,,,,,,,,,,magenta,flipped triangle
197.0,7.0,2.0,1.0,2.0,2.0,354.2277169999579,4.0,1.0,phase_1,,,,,,,,,,,,,gray,hexagon
0.0,3.0,0.0,0.0,3.0,3.0,290.2744430002713,4.0,1.0,phase_1,,,,,,,,,,,,,cyan,I
59.0,5.0,0.5,1.0,2.0,2.0,231.46757799986509,4.0,1.0,phase_1,,,,,,,,,,,,,magenta,flipped triangle
62.0,5.0,0.5,1.0,4.0,4.0,403.59678599998,4.0,1.0,phase_1,,,,,,,,,,,,,magenta,flipped triangle
51.0,1.0,0.5,0.0,1.0,1.0,348.0682979998164,4.0,1.0,phase_1,,,,,,,,,,,,,yellow,circle
0.0,1.0,0.0,0.0,2.0,2.0,300.7930180001494,4.0,1.0,phase_1,,,,,,,,,,,,,yellow,circle
208.0,7.0,2.0,1.0,3.0,3.0,334.5038859997657,4.0,1.0,phase_1,,,,,,,,,,,,,gray,hexagon
59.0,1.0,0.5,0.0,1.0,1.0,268.0551230005221,4.0,1.0,phase_1,,,,,,,,,,,,,yellow,circle
384.0,4.0,4.0,0.0,4.0,4.0,393.6284339997655,4.0,1.0,phase_1,,,,,,,,,,,,,green,square
88.0,2.0,1.0,0.0,2.0,2.0,291.2303460007024,4.0,1.0,phase_1,,,,,,,,,,,,,orange,triangle
38.0,1.0,0.5,0.0,3.0,3.0,325.7069949995639,4.0,1.0,phase_1,,,,,,,,,,,,,yellow,circle
192.0,7.0,2.0,1.0,1.0,1.0,339.305728999534,4.0,1.0,phase_1,,,,,,,,,,,,,gray,hexagon
178.0,3.0,2.0,0.0,4.0,4.0,338.120156999139,4.0,1.0,phase_1,,,,,,,,,,,,,cyan,I
409.0,4.0,4.0,0.0,1.0,1.0,319.2477270004019,4.0,1.0,phase_1,,,,,,,,,,,,,green,square
86.0,2.0,1.0,0.0,1.0,1.0,351.9446970003628,4.0,1.0,phase_1,,,,,,,,,,,,,orange,triangle
407.0,8.0,4.0,1.0,1.0,1.0,365.3180940000311,4.0,1.0,phase_1,,,,,,,,,,,,,white,diamond
222.0,3.0,2.0,0.0,2.0,2.0,351.6848409999511,4.0,1.0,phase_1,,,,,,,,,,,,,cyan,I
212.0,7.0,2.0,1.0,3.0,3.0,333.1076980002763,4.0,1.0,phase_1,,,,,,,,,,,,,gray,hexagon
0.0,3.0,0.0,0.0,3.0,3.0,375.448396000138,4.0,1.0,phase_1,,,,,,,,,,,,,cyan,I
392.0,4.0,4.0,0.0,1.0,1.0,239.834353000333,4.0,1.0,phase_1,,,,,,,,,,,,,green,square
0.0,4.0,0.0,0.0,2.0,2.0,277.8446479997001,4.0,1.0,phase_1,,,,,,,,,,,,,green,square
75.0,6.0,1.0,1.0,2.0,2.0,345.2229619997524,4.0,1.0,phase_1,,,,,,,,,,,,,blue,cross
392.0,8.0,4.0,1.0,3.0,3.0,311.4134119996379,4.0,1.0,phase_1,,,,,,,,,,,,,white,diamond
0.0,7.0,2.0,1.0,5.0,0.0,0.0,1.0,1.0,phase_2,stop,250.0,250.0,4.0,,,,,,,,,gray,hexagon
0.0,1.0,0.5,0.0,6.0,6.0,442.3252810001941,1.0,1.0,phase_2,go,300.0,250.0,1.0,,,,,,,,,yellow,circle
0.0,6.0,1.0,1.0,5.0,5.0,297.2807679998368,1.0,1.0,phase_2,go,300.0,250.0,1.0,,,,,,,,,blue,cross
0.0,5.0,0.5,1.0,5.0,5.0,387.1999909997612,1.0,1.0,phase_2,stop,300.0,250.0,3.0,,,,,,,,,magenta,flipped triangle
0.0,3.0,2.0,0.0,6.0,6.0,579.0348279997488,1.0,1.0,phase_2,go,250.0,250.0,1.0,,,,,,,,,cyan,I
0.0,1.0,0.5,0.0,6.0,6.0,532.3930240001573,1.0,1.0,phase_2,go,250.0,250.0,1.0,,,,,,,,,yellow,circle
0.0,6.0,1.0,1.0,5.0,5.0,411.5952749998541,1.0,1.0,phase_2,stop,250.0,250.0,3.0,,,,,,,,,blue,cross
0.0,6.0,1.0,1.0,6.0,6.0,323.2668040000135,1.0,1.0,phase_2,go,200.0,250.0,1.0,,,,,,,,,blue,cross
0.0,3.0,2.0,0.0,6.0,6.0,694.714612000098,1.0,1.0,phase_2,go,200.0,250.0,1.0,,,,,,,,,cyan,I
0.0,7.0,2.0,1.0,5.0,0.0,0.0,1.0,1.0,phase_2,stop,200.0,250.0,4.0,,,,,,,,,gray,hexagon
0.0,5.0,0.5,1.0,5.0,5.0,595.3597170000648,1.0,1.0,phase_2,go,250.0,250.0,1.0,,,,,,,,,magenta,flipped triangle
0.0,1.0,0.5,0.0,5.0,5.0,390.8711849999235,1.0,1.0,phase_2,go,250.0,250.0,1.0,,,,,,,,,yellow,circle
0.0,3.0,2.0,0.0,5.0,5.0,562.6041870000336,1.0,1.0,phase_2,go,250.0,250.0,1.0,,,,,,,,,cyan,I
0.0,6.0,1.0,1.0,6.0,0.0,0.0,1.0,1.0,phase_2,stop,250.0,250.0,4.0,,,,,,,,,blue,cross
0.0,3.0,2.0,0.0,6.0,6.0,562.186813000153,1.0,1.0,phase_2,go,250.0,300.0,1.0,,,,,,,,,cyan,I
0.0,7.0,2.0,1.0,5.0,5.0,540.7581499994194,1.0,1.0,phase_2,go,250.0,300.0,1.0,,,,,,,,,gray,hexagon
0.0,2.0,1.0,0.0,5.0,5.0,511.67641000029107,1.0,1.0,phase_2,go,250.0,300.0,1.0,,,,,,,,,orange,triangle
0.0,1.0,0.5,0.0,5.0,5.0,533.0152660008025,1.0,1.0,phase_2,go,250.0,300.0,1.0,,,,,,,,,yellow,circle
0.0,3.0,2.0,0.0,5.0,5.0,398.6507059998985,1.0,1.0,phase_2,go,250.0,300.0,1.0,,,,,,,,,cyan,I
0.0,6.0,1.0,1.0,5.0,5.0,376.1861689999932,1.0,1.0,phase_2,stop,250.0,300.0,3.0,,,,,,,,,blue,cross
0.0,5.0,0.5,1.0,5.0,0.0,0.0,1.0,1.0,phase_2,stop,200.0,300.0,4.0,,,,,,,,,magenta,flipped triangle
0.0,5.0,0.5,1.0,6.0,6.0,445.7951839995075,1.0,1.0,phase_2,stop,250.0,300.0,3.0,,,,,,,,,magenta,flipped triangle
0.0,3.0,2.0,0.0,5.0,5.0,583.5934609995093,1.0,1.0,phase_2,go,250.0,250.0,1.0,,,,,,,,,cyan,I
0.0,5.0,0.5,1.0,5.0,5.0,596.1406540000098,1.0,1.0,phase_2,go,250.0,250.0,1.0,,,,,,,,,magenta,flipped triangle
0.0,6.0,1.0,1.0,6.0,0.0,0.0,1.0,1.0,phase_2,stop,250.0,250.0,4.0,,,,,,,,,blue,cross
0.0,7.0,2.0,1.0,5.0,5.0,504.49285700051405,1.0,1.0,phase_2,go,250.0,300.0,1.0,,,,,,,,,gray,hexagon
0.0,4.0,4.0,0.0,6.0,6.0,496.6795890004505,1.0,1.0,phase_2,go,250.0,300.0,1.0,,,,,,,,,green,square
0.0,6.0,1.0,1.0,6.0,0.0,0.0,1.0,1.0,phase_2,stop,250.0,300.0,4.0,,,,,,,,,blue,cross
0.0,4.0,4.0,0.0,6.0,6.0,507.38680100039346,1.0,1.0,phase_2,go,250.0,350.0,1.0,,,,,,,,,green,square
0.0,2.0,1.0,0.0,5.0,5.0,499.7670089996973,1.0,1.0,phase_2,go,250.0,350.0,1.0,,,,,,,,,orange,triangle
0.0,4.0,4.0,0.0,5.0,5.0,454.2792410002221,1.0,1.0,phase_2,go,250.0,350.0,1.0,,,,,,,,,green,square
0.0,5.0,0.5,1.0,5.0,5.0,365.1784749999933,1.0,1.0,phase_2,stop,250.0,350.0,3.0,,,,,,,,,magenta,flipped triangle
0.0,7.0,2.0,1.0,6.0,0.0,0.0,1.0,1.0,phase_2,stop,200.0,350.0,4.0,,,,,,,,,gray,hexagon
0.0,4.0,4.0,0.0,6.0,6.0,532.9730290004591,1.0,1.0,phase_2,go,200.0,400.0,1.0,,,,,,,,,green,square
0.0,6.0,1.0,1.0,6.0,6.0,321.4192969999203,1.0,1.0,phase_2,stop,200.0,400.0,3.0,,,,,,,,,blue,cross
0.0,6.0,1.0,1.0,6.0,6.0,523.7809969994487,1.0,1.0,phase_2,stop,200.0,350.0,3.0,,,,,,,,,blue,cross
0.0,1.0,0.5,0.0,5.0,5.0,507.0750960003352,2.0,1.0,phase_2,go,200.0,300.0,1.0,,,,,,,,,yellow,circle
0.0,7.0,2.0,1.0,6.0,6.0,404.0482469999915,2.0,1.0,phase_2,stop,200.0,300.0,3.0,,,,,,,,,gray,hexagon
0.0,2.0,1.0,0.0,5.0,5.0,382.8140020004866,2.0,1.0,phase_2,go,200.0,250.0,1.0,,,,,,,,,orange,triangle
0.0,3.0,2.0,0.0,5.0,5.0,509.41717000023345,2.0,1.0,phase_2,go,200.0,250.0,1.0,,,,,,,,,cyan,I
0.0,4.0,4.0,0.0,5.0,5.0,364.4676559997606,2.0,1.0,phase_2,go,200.0,250.0,1.0,,,,,,,,,green,square
0.0,6.0,1.0,1.0,5.0,0.0,0.0,2.0,1.0,phase_2,stop,200.0,250.0,4.0,,,,,,,,,blue,cross
0.0,8.0,4.0,1.0,5.0,0.0,0.0,2.0,1.0,phase_2,stop,250.0,250.0,4.0,,,,,,,,,white,diamond
0.0,8.0,4.0,1.0,5.0,0.0,0.0,2.0,1.0,phase_2,stop,300.0,250.0,4.0,,,,,,,,,white,diamond
0.0,4.0,4.0,0.0,6.0,6.0,409.9398879998261,2.0,1.0,phase_2,go,350.0,250.0,1.0,,,,,,,,,green,square
0.0,7.0,2.0,1.0,5.0,5.0,547.3724619996574,2.0,1.0,phase_2,go,350.0,250.0,1.0,,,,,,,,,gray,hexagon
0.0,4.0,4.0,0.0,6.0,6.0,492.2055860006367,2.0,1.0,phase_2,go,350.0,250.0,1.0,,,,,,,,,green,square
0.0,4.0,4.0,0.0,5.0,5.0,505.49088699972344,2.0,1.0,phase_2,go,350.0,250.0,1.0,,,,,,,,,green,square
0.0,3.0,2.0,0.0,6.0,6.0,663.3586030002334,2.0,1.0,phase_2,go,350.0,250.0,1.0,,,,,,,,,cyan,I
0.0,5.0,0.5,1.0,6.0,6.0,391.4651040004173,2.0,1.0,phase_2,go,350.0,250.0,1.0,,,,,,,,,magenta,flipped triangle
0.0,2.0,1.0,0.0,6.0,6.0,516.6549670002496,2.0,1.0,phase_2,go,350.0,250.0,1.0,,,,,,,,,orange,triangle
0.0,3.0,2.0,0.0,6.0,6.0,474.9342869999964,2.0,1.0,phase_2,go,350.0,250.0,1.0,,,,,,,,,cyan,I
0.0,6.0,1.0,1.0,6.0,6.0,362.5367560007362,2.0,1.0,phase_2,stop,350.0,250.0,3.0,,,,,,,,,blue,cross
0.0,8.0,4.0,1.0,5.0,0.0,0.0,2.0,1.0,phase_2,stop,350.0,200.0,4.0,,,,,,,,,white,diamond
0.0,1.0,0.5,0.0,6.0,6.0,602.0482300000367,2.0,1.0,phase_2,go,400.0,200.0,1.0,,,,,,,,,yellow,circle
0.0,7.0,2.0,1.0,6.0,6.0,366.8775710002592,2.0,1.0,phase_2,stop,400.0,200.0,3.0,,,,,,,,,gray,hexagon
0.0,1.0,0.5,0.0,6.0,6.0,602.4945529998149,2.0,1.0,phase_2,go,400.0,150.0,1.0,,,,,,,,,yellow,circle
0.0,6.0,1.0,1.0,6.0,0.0,0.0,2.0,1.0,phase_2,stop,400.0,150.0,4.0,,,,,,,,,blue,cross
0.0,3.0,2.0,0.0,5.0,5.0,335.9172689997649,2.0,1.0,phase_2,go,400.0,200.0,1.0,,,,,,,,,cyan,I
0.0,2.0,1.0,0.0,6.0,6.0,460.5194759997175,2.0,1.0,phase_2,go,400.0,200.0,1.0,,,,,,,,,orange,triangle
0.0,2.0,1.0,0.0,6.0,6.0,355.8185039992168,2.0,1.0,phase_2,go,400.0,200.0,1.0,,,,,,,,,orange,triangle
0.0,8.0,4.0,1.0,5.0,5.0,549.8129469997366,2.0,1.0,phase_2,stop,400.0,200.0,3.0,,,,,,,,,white,diamond
0.0,8.0,4.0,1.0,6.0,6.0,598.073561000092,2.0,1.0,phase_2,go,350.0,200.0,1.0,,,,,,,,,white,diamond
0.0,7.0,2.0,1.0,5.0,0.0,0.0,2.0,1.0,phase_2,stop,350.0,200.0,4.0,,,,,,,,,gray,hexagon
0.0,5.0,0.5,1.0,5.0,5.0,587.1884260004663,2.0,1.0,phase_2,stop,400.0,200.0,3.0,,,,,,,,,magenta,flipped triangle
0.0,5.0,0.5,1.0,5.0,5.0,735.2544389996183,2.0,1.0,phase_2,go,350.0,200.0,1.0,,,,,,,,,magenta,flipped triangle
0.0,2.0,1.0,0.0,6.0,6.0,556.5248660004727,2.0,1.0,phase_2,go,350.0,200.0,1.0,,,,,,,,,orange,triangle
0.0,2.0,1.0,0.0,5.0,5.0,552.6476880004338,2.0,1.0,phase_2,go,350.0,200.0,1.0,,,,,,,,,orange,triangle
0.0,3.0,2.0,0.0,5.0,5.0,534.7668030008208,2.0,1.0,phase_2,go,350.0,200.0,1.0,,,,,,,,,cyan,I
0.0,5.0,0.5,1.0,6.0,6.0,297.5401379999312,2.0,1.0,phase_2,go,350.0,200.0,1.0,,,,,,,,,magenta,flipped triangle
0.0,6.0,1.0,1.0,6.0,6.0,547.5490740000168,2.0,1.0,phase_2,go,350.0,200.0,1.0,,,,,,,,,blue,cross
0.0,7.0,2.0,1.0,6.0,6.0,368.3916109994243,2.0,1.0,phase_2,stop,350.0,200.0,3.0,,,,,,,,,gray,hexagon
0.0,4.0,4.0,0.0,5.0,5.0,873.2747220001329,3.0,1.0,phase_2,go,350.0,150.0,1.0,,,,,,,,,green,square
0.0,4.0,4.0,0.0,5.0,5.0,388.4512880003967,3.0,1.0,phase_2,go,350.0,150.0,1.0,,,,,,,,,green,square
0.0,8.0,4.0,1.0,6.0,6.0,314.2794030000004,3.0,1.0,phase_2,stop,350.0,150.0,3.0,,,,,,,,,white,diamond
0.0,1.0,0.5,0.0,6.0,6.0,538.8145610004358,3.0,1.0,phase_2,go,350.0,100.0,1.0,,,,,,,,,yellow,circle
0.0,7.0,2.0,1.0,5.0,5.0,371.0886500002743,3.0,1.0,phase_2,go,350.0,100.0,1.0,,,,,,,,,gray,hexagon
0.0,5.0,0.5,1.0,6.0,0.0,0.0,3.0,1.0,phase_2,stop,350.0,100.0,4.0,,,,,,,,,magenta,flipped triangle
0.0,7.0,2.0,1.0,6.0,0.0,0.0,3.0,1.0,phase_2,stop,350.0,150.0,4.0,,,,,,,,,gray,hexagon
0.0,8.0,4.0,1.0,5.0,5.0,430.2102049996392,3.0,1.0,phase_2,go,350.0,200.0,1.0,,,,,,,,,white,diamond
0.0,3.0,2.0,0.0,5.0,5.0,477.2137979998661,3.0,1.0,phase_2,go,350.0,200.0,1.0,,,,,,,,,cyan,I
0.0,5.0,0.5,1.0,5.0,5.0,444.9422560001039,3.0,1.0,phase_2,stop,350.0,200.0,3.0,,,,,,,,,magenta,flipped triangle
0.0,6.0,1.0,1.0,5.0,0.0,0.0,3.0,1.0,phase_2,stop,300.0,200.0,4.0,,,,,,,,,blue,cross
0.0,2.0,1.0,0.0,6.0,6.0,554.1957929999626,3.0,1.0,phase_2,go,350.0,200.0,1.0,,,,,,,,,orange,triangle
0.0,5.0,0.5,1.0,5.0,0.0,0.0,3.0,1.0,phase_2,stop,350.0,200.0,4.0,,,,,,,,,magenta,flipped triangle
0.0,6.0,1.0,1.0,6.0,0.0,0.0,3.0,1.0,phase_2,stop,400.0,200.0,4.0,,,,,,,,,blue,cross
0.0,7.0,2.0,1.0,5.0,0.0,0.0,3.0,1.0,phase_2,stop,400.0,250.0,4.0,,,,,,,,,gray,hexagon
0.0,1.0,0.5,0.0,6.0,6.0,548.8451210003404,3.0,1.0,phase_2,go,450.0,250.0,1.0,,,,,,,,,yellow,circle
0.0,8.0,4.0,1.0,6.0,0.0,0.0,3.0,1.0,phase_2,stop,450.0,250.0,4.0,,,,,,,,,white,diamond
0.0,3.0,2.0,0.0,6.0,6.0,527.4726320003538,3.0,1.0,phase_2,go,450.0,300.0,1.0,,,,,,,,,cyan,I
0.0,2.0,1.0,0.0,5.0,5.0,752.013263999288,3.0,1.0,phase_2,go,450.0,300.0,1.0,,,,,,,,,orange,triangle
0.0,2.0,1.0,0.0,5.0,5.0,459.7413700003017,3.0,1.0,phase_2,go,450.0,300.0,1.0,,,,,,,,,orange,triangle
0.0,7.0,2.0,1.0,5.0,5.0,314.6226920007393,3.0,1.0,phase_2,go,450.0,300.0,1.0,,,,,,,,,gray,hexagon
0.0,7.0,2.0,1.0,5.0,5.0,554.5329490005315,3.0,1.0,phase_2,stop,450.0,300.0,3.0,,,,,,,,,gray,hexagon
0.0,6.0,1.0,1.0,5.0,0.0,0.0,3.0,1.0,phase_2,stop,400.0,300.0,4.0,,,,,,,,,blue,cross
0.0,4.0,4.0,0.0,5.0,5.0,766.7469649995837,3.0,1.0,phase_2,go,450.0,300.0,1.0,,,,,,,,,green,square
0.0,4.0,4.0,0.0,6.0,6.0,599.3835350000154,3.0,1.0,phase_2,go,450.0,300.0,1.0,,,,,,,,,green,square
0.0,1.0,0.5,0.0,6.0,6.0,378.0173559998729,3.0,1.0,phase_2,go,450.0,300.0,1.0,,,,,,,,,yellow,circle
0.0,5.0,0.5,1.0,6.0,6.0,388.2188429997768,3.0,1.0,phase_2,stop,450.0,300.0,3.0,,,,,,,,,magenta,flipped triangle
0.0,1.0,0.5,0.0,5.0,5.0,662.1351560006588,3.0,1.0,phase_2,go,450.0,250.0,1.0,,,,,,,,,yellow,circle
0.0,5.0,0.5,1.0,6.0,0.0,0.0,3.0,1.0,phase_2,stop,450.0,250.0,4.0,,,,,,,,,magenta,flipped triangle
0.0,1.0,0.5,0.0,6.0,6.0,1334.8485299993629,3.0,1.0,phase_2,go,450.0,300.0,1.0,,,,,,,,,yellow,circle
0.0,7.0,2.0,1.0,6.0,6.0,526.7571140002474,3.0,1.0,phase_2,go,450.0,300.0,1.0,,,,,,,,,gray,hexagon
0.0,2.0,1.0,0.0,5.0,5.0,356.9354459996248,3.0,1.0,phase_2,go,450.0,300.0,1.0,,,,,,,,,orange,triangle
0.0,2.0,1.0,0.0,5.0,5.0,448.2389969998621,3.0,1.0,phase_2,go,450.0,300.0,1.0,,,,,,,,,orange,triangle
0.0,7.0,2.0,1.0,6.0,6.0,451.0989959999278,3.0,1.0,phase_2,stop,450.0,300.0,3.0,,,,,,,,,gray,hexagon
0.0,3.0,2.0,0.0,6.0,6.0,563.805417000367,3.0,1.0,phase_2,go,450.0,250.0,1.0,,,,,,,,,cyan,I
0.0,8.0,4.0,1.0,5.0,5.0,587.9436259992872,3.0,1.0,phase_2,stop,450.0,250.0,3.0,,,,,,,,,white,diamond
0.0,5.0,0.5,1.0,6.0,6.0,448.8259589998051,4.0,1.0,phase_2,stop,400.0,250.0,3.0,,,,,,,,,magenta,flipped triangle
0.0,6.0,1.0,1.0,6.0,0.0,0.0,4.0,1.0,phase_2,stop,400.0,200.0,4.0,,,,,,,,,blue,cross
0.0,4.0,4.0,0.0,5.0,5.0,1013.41921599942,4.0,1.0,phase_2,go,400.0,250.0,1.0,,,,,,,,,green,square
0.0,8.0,4.0,1.0,5.0,0.0,0.0,4.0,1.0,phase_2,stop,400.0,250.0,4.0,,,,,,,,,white,diamond
0.0,4.0,4.0,0.0,6.0,6.0,463.426160000381,4.0,1.0,phase_2,go,450.0,250.0,1.0,,,,,,,,,green,square
0.0,8.0,4.0,1.0,6.0,6.0,341.5106239999659,4.0,1.0,phase_2,stop,450.0,250.0,3.0,,,,,,,,,white,diamond
0.0,3.0,2.0,0.0,5.0,5.0,509.2227750001257,4.0,1.0,phase_2,go,450.0,200.0,1.0,,,,,,,,,cyan,I
0.0,1.0,0.5,0.0,5.0,5.0,543.8616870005717,4.0,1.0,phase_2,go,450.0,200.0,1.0,,,,,,,,,yellow,circle
0.0,7.0,2.0,1.0,5.0,0.0,0.0,4.0,1.0,phase_2,stop,450.0,200.0,4.0,,,,,,,,,gray,hexagon
0.0,8.0,4.0,1.0,6.0,0.0,0.0,4.0,1.0,phase_2,stop,500.0,200.0,4.0,,,,,,,,,white,diamond
0.0,1.0,0.5,0.0,5.0,5.0,472.2149150002224,4.0,1.0,phase_2,go,500.0,250.0,1.0,,,,,,,,,yellow,circle
0.0,7.0,2.0,1.0,5.0,5.0,604.3149019997145,4.0,1.0,phase_2,stop,500.0,250.0,3.0,,,,,,,,,gray,hexagon
0.0,1.0,0.5,0.0,5.0,5.0,606.5236399999776,4.0,1.0,phase_2,go,450.0,250.0,1.0,,,,,,,,,yellow,circle
0.0,6.0,1.0,1.0,6.0,0.0,0.0,4.0,1.0,phase_2,stop,450.0,250.0,4.0,,,,,,,,,blue,cross
0.0,4.0,4.0,0.0,5.0,5.0,538.5441629996421,4.0,1.0,phase_2,go,450.0,300.0,1.0,,,,,,,,,green,square
0.0,3.0,2.0,0.0,5.0,5.0,552.3877790001279,4.0,1.0,phase_2,go,450.0,300.0,1.0,,,,,,,,,cyan,I
0.0,5.0,0.5,1.0,5.0,5.0,431.7551280000771,4.0,1.0,phase_2,go,450.0,300.0,1.0,,,,,,,,,magenta,flipped triangle
0.0,5.0,0.5,1.0,6.0,0.0,0.0,4.0,1.0,phase_2,stop,450.0,300.0,4.0,,,,,,,,,magenta,flipped triangle
0.0,7.0,2.0,1.0,6.0,0.0,0.0,4.0,1.0,phase_2,stop,450.0,350.0,4.0,,,,,,,,,gray,hexagon
0.0,3.0,2.0,0.0,6.0,6.0,657.0336579998184,4.0,1.0,phase_2,go,450.0,400.0,1.0,,,,,,,,,cyan,I
0.0,7.0,2.0,1.0,5.0,5.0,514.0824000000066,4.0,1.0,phase_2,go,450.0,400.0,1.0,,,,,,,,,gray,hexagon
0.0,8.0,4.0,1.0,6.0,6.0,479.8160790005568,4.0,1.0,phase_2,stop,450.0,400.0,3.0,,,,,,,,,white,diamond
0.0,5.0,0.5,1.0,6.0,6.0,503.5806850000881,4.0,1.0,phase_2,go,450.0,350.0,1.0,,,,,,,,,magenta,flipped triangle
0.0,4.0,4.0,0.0,6.0,6.0,590.776132999963,4.0,1.0,phase_2,go,450.0,350.0,1.0,,,,,,,,,green,square
0.0,2.0,1.0,0.0,5.0,5.0,516.1485810003796,4.0,1.0,phase_2,go,450.0,350.0,1.0,,,,,,,,,orange,triangle
0.0,8.0,4.0,1.0,5.0,5.0,367.5791600007869,4.0,1.0,phase_2,stop,450.0,350.0,3.0,,,,,,,,,white,diamond
0.0,4.0,4.0,0.0,6.0,6.0,562.113536000652,4.0,1.0,phase_2,go,400.0,350.0,1.0,,,,,,,,,green,square
0.0,2.0,1.0,0.0,5.0,5.0,339.2468970005211,4.0,1.0,phase_2,go,400.0,350.0,1.0,,,,,,,,,orange,triangle
0.0,5.0,0.5,1.0,6.0,6.0,418.3624580000469,4.0,1.0,phase_2,stop,400.0,350.0,3.0,,,,,,,,,magenta,flipped triangle
0.0,1.0,0.5,0.0,5.0,5.0,599.9481130002096,4.0,1.0,phase_2,go,400.0,300.0,1.0,,,,,,,,,yellow,circle
0.0,3.0,2.0,0.0,6.0,6.0,530.9498890001123,4.0,1.0,phase_2,go,400.0,300.0,1.0,,,,,,,,,cyan,I
0.0,5.0,0.5,1.0,6.0,6.0,376.2416910003594,4.0,1.0,phase_2,go,400.0,300.0,1.0,,,,,,,,,magenta,flipped triangle
0.0,2.0,1.0,0.0,5.0,5.0,422.8419070004747,4.0,1.0,phase_2,go,400.0,300.0,1.0,,,,,,,,,orange,triangle
0.0,7.0,2.0,1.0,6.0,0.0,0.0,4.0,1.0,phase_2,stop,400.0,300.0,4.0,,,,,,,,,gray,hexagon
0.0,6.0,1.0,1.0,6.0,0.0,0.0,4.0,1.0,phase_2,stop,400.0,350.0,4.0,,,,,,,,,blue,cross
0.0,1.0,0.5,0.0,5.0,5.0,615.5269390001195,4.0,1.0,phase_2,go,400.0,400.0,1.0,,,,,,,,,yellow,circle
0.0,8.0,4.0,1.0,6.0,6.0,513.8501700002962,5.0,1.0,phase_2,go,400.0,400.0,1.0,,,,,,,,,white,diamond
0.0,3.0,2.0,0.0,6.0,6.0,513.7845439994635,5.0,1.0,phase_2,go,400.0,400.0,1.0,,,,,,,,,cyan,I
0.0,6.0,1.0,1.0,5.0,5.0,507.42235599955166,5.0,1.0,phase_2,go,400.0,400.0,1.0,,,,,,,,,blue,cross
0.0,2.0,1.0,0.0,6.0,6.0,470.8117730006051,5.0,1.0,phase_2,go,400.0,400.0,1.0,,,,,,,,,orange,triangle
0.0,2.0,1.0,0.0,6.0,6.0,550.9774570000445,5.0,1.0,phase_2,go,400.0,400.0,1.0,,,,,,,,,orange,triangle
0.0,5.0,0.5,1.0,5.0,5.0,350.3804880001553,5.0,1.0,phase_2,stop,400.0,400.0,3.0,,,,,,,,,magenta,flipped triangle
0.0,3.0,2.0,0.0,5.0,5.0,543.6217059996125,5.0,1.0,phase_2,go,350.0,400.0,1.0,,,,,,,,,cyan,I
0.0,1.0,0.5,0.0,5.0,5.0,451.484586999868,5.0,1.0,phase_2,go,350.0,400.0,1.0,,,,,,,,,yellow,circle
0.0,2.0,1.0,0.0,6.0,6.0,322.0161260005625,5.0,1.0,phase_2,go,350.0,400.0,1.0,,,,,,,,,orange,triangle
0.0,2.0,1.0,0.0,6.0,6.0,363.7021239992464,5.0,1.0,phase_2,go,350.0,400.0,1.0,,,,,,,,,orange,triangle
0.0,3.0,2.0,0.0,6.0,6.0,368.385264000608,5.0,1.0,phase_2,go,350.0,400.0,1.0,,,,,,,,,cyan,I
0.0,1.0,0.5,0.0,6.0,6.0,467.259095999907,5.0,1.0,phase_2,go,350.0,400.0,1.0,,,,,,,,,yellow,circle
0.0,2.0,1.0,0.0,6.0,6.0,414.3051940000077,5.0,1.0,phase_2,go,350.0,400.0,1.0,,,,,,,,,orange,triangle
0.0,4.0,4.0,0.0,5.0,5.0,312.0506350005598,5.0,1.0,phase_2,go,350.0,400.0,1.0,,,,,,,,,green,square
0.0,4.0,4.0,0.0,5.0,5.0,314.9723830001676,5.0,1.0,phase_2,go,350.0,400.0,1.0,,,,,,,,,green,square
0.0,7.0,2.0,1.0,5.0,0.0,0.0,5.0,1.0,phase_2,stop,350.0,400.0,4.0,,,,,,,,,gray,hexagon
0.0,8.0,4.0,1.0,6.0,0.0,0.0,5.0,1.0,phase_2,stop,400.0,400.0,4.0,,,,,,,,,white,diamond
0.0,3.0,2.0,0.0,6.0,6.0,550.566288000482,5.0,1.0,phase_2,go,400.0,450.0,1.0,,,,,,,,,cyan,I
0.0,3.0,2.0,0.0,5.0,5.0,730.6722069997704,5.0,1.0,phase_2,go,400.0,450.0,1.0,,,,,,,,,cyan,I
0.0,4.0,4.0,0.0,5.0,5.0,747.637785999359,5.0,1.0,phase_2,go,400.0,450.0,1.0,,,,,,,,,green,square
0.0,2.0,1.0,0.0,5.0,5.0,484.9126660001275,5.0,1.0,phase_2,go,400.0,450.0,1.0,,,,,,,,,orange,triangle
0.0,8.0,4.0,1.0,6.0,6.0,351.4837839993561,5.0,1.0,phase_2,go,400.0,450.0,1.0,,,,,,,,,white,diamond
0.0,8.0,4.0,1.0,5.0,5.0,488.73653299961,5.0,1.0,phase_2,stop,400.0,450.0,3.0,,,,,,,,,white,diamond
0.0,8.0,4.0,1.0,6.0,6.0,637.8952080003728,5.0,1.0,phase_2,go,350.0,450.0,1.0,,,,,,,,,white,diamond
0.0,6.0,1.0,1.0,5.0,5.0,374.9144840003282,5.0,1.0,phase_2,stop,350.0,450.0,3.0,,,,,,,,,blue,cross
0.0,5.0,0.5,1.0,6.0,6.0,522.7669600008085,5.0,1.0,phase_2,stop,300.0,450.0,3.0,,,,,,,,,magenta,flipped triangle
0.0,5.0,0.5,1.0,6.0,6.0,515.8763809995435,5.0,1.0,phase_2,stop,300.0,400.0,3.0,,,,,,,,,magenta,flipped triangle
0.0,8.0,4.0,1.0,5.0,5.0,731.2255300003017,5.0,1.0,phase_2,go,300.0,350.0,1.0,,,,,,,,,white,diamond
0.0,5.0,0.5,1.0,5.0,0.0,0.0,5.0,1.0,phase_2,stop,300.0,350.0,4.0,,,,,,,,,magenta,flipped triangle
0.0,2.0,1.0,0.0,6.0,6.0,631.1679090003963,5.0,1.0,phase_2,go,350.0,350.0,1.0,,,,,,,,,orange,triangle
0.0,6.0,1.0,1.0,5.0,0.0,0.0,5.0,1.0,phase_2,stop,350.0,350.0,4.0,,,,,,,,,blue,cross
0.0,4.0,4.0,0.0,6.0,6.0,550.2730449998126,5.0,1.0,phase_2,go,400.0,350.0,1.0,,,,,,,,,green,square
0.0,8.0,4.0,1.0,5.0,5.0,363.9907579999999,5.0,1.0,phase_2,stop,400.0,350.0,3.0,,,,,,,,,white,diamond
0.0,5.0,0.5,1.0,5.0,5.0,518.1153419998736,5.0,1.0,phase_2,go,350.0,350.0,1.0,,,,,,,,,magenta,flipped triangle
0.0,5.0,0.5,1.0,6.0,0.0,0.0,5.0,1.0,phase_2,stop,350.0,350.0,4.0,,,,,,,,,magenta,flipped triangle
0.0,8.0,4.0,1.0,6.0,0.0,0.0,5.0,1.0,phase_2,stop,350.0,400.0,4.0,,,,,,,,,white,diamond
0.0,5.0,0.5,1.0,6.0,6.0,565.2091980000478,6.0,1.0,phase_2,stop,350.0,450.0,3.0,,,,,,,,,magenta,flipped triangle
0.0,8.0,4.0,1.0,6.0,6.0,598.7574869996024,6.0,1.0,phase_2,go,350.0,400.0,1.0,,,,,,,,,white,diamond
0.0,5.0,0.5,1.0,5.0,0.0,0.0,6.0,1.0,phase_2,stop,350.0,400.0,4.0,,,,,,,,,magenta,flipped triangle
0.0,8.0,4.0,1.0,6.0,6.0,608.5082110002986,6.0,1.0,phase_2,stop,400.0,400.0,3.0,,,,,,,,,white,diamond
0.0,2.0,1.0,0.0,6.0,6.0,623.7709289998747,6.0,1.0,phase_2,go,400.0,350.0,1.0,,,,,,,,,orange,triangle
0.0,4.0,4.0,0.0,5.0,5.0,578.7513360000958,6.0,1.0,phase_2,go,400.0,350.0,1.0,,,,,,,,,green,square
0.0,2.0,1.0,0.0,5.0,5.0,589.8003109996353,6.0,1.0,phase_2,go,400.0,350.0,1.0,,,,,,,,,orange,triangle
0.0,4.0,4.0,0.0,5.0,5.0,309.9079610001354,6.0,1.0,phase_2,go,400.0,350.0,1.0,,,,,,,,,green,square
0.0,3.0,2.0,0.0,6.0,6.0,468.2439029993475,6.0,1.0,phase_2,go,400.0,350.0,1.0,,,,,,,,,cyan,I
0.0,7.0,2.0,1.0,6.0,0.0,0.0,6.0,1.0,phase_2,stop,400.0,350.0,4.0,,,,,,,,,gray,hexagon
0.0,7.0,2.0,1.0,6.0,0.0,0.0,6.0,1.0,phase_2,stop,400.0,400.0,4.0,,,,,,,,,gray,hexagon
0.0,8.0,4.0,1.0,5.0,5.0,640.7020919996285,6.0,1.0,phase_2,go,400.0,450.0,1.0,,,,,,,,,white,diamond
0.0,3.0,2.0,0.0,6.0,6.0,618.9559679996819,6.0,1.0,phase_2,go,400.0,450.0,1.0,,,,,,,,,cyan,I
0.0,3.0,2.0,0.0,6.0,6.0,565.0477090002823,6.0,1.0,phase_2,go,400.0,450.0,1.0,,,,,,,,,cyan,I
0.0,1.0,0.5,0.0,5.0,5.0,610.458467999706,6.0,1.0,phase_2,go,400.0,450.0,1.0,,,,,,,,,yellow,circle
0.0,6.0,1.0,1.0,5.0,5.0,497.7940479993776,6.0,1.0,phase_2,stop,400.0,450.0,3.0,,,,,,,,,blue,cross
0.0,4.0,4.0,0.0,6.0,6.0,598.4871210002893,6.0,1.0,phase_2,go,350.0,450.0,1.0,,,,,,,,,green,square
0.0,4.0,4.0,0.0,6.0,6.0,733.5433190000913,6.0,1.0,phase_2,go,350.0,450.0,1.0,,,,,,,,,green,square
0.0,4.0,4.0,0.0,6.0,6.0,510.9798759995101,6.0,1.0,phase_2,go,350.0,450.0,1.0,,,,,,,,,green,square
0.0,1.0,0.5,0.0,5.0,5.0,543.2791080002062,6.0,1.0,phase_2,go,350.0,450.0,1.0,,,,,,,,,yellow,circle
0.0,8.0,4.0,1.0,6.0,6.0,611.2890449994666,6.0,1.0,phase_2,stop,350.0,450.0,3.0,,,,,,,,,white,diamond
0.0,1.0,0.5,0.0,5.0,5.0,623.3476500001416,6.0,1.0,phase_2,go,350.0,400.0,1.0,,,,,,,,,yellow,circle
0.0,7.0,2.0,1.0,5.0,0.0,0.0,6.0,1.0,phase_2,stop,350.0,400.0,4.0,,,,,,,,,gray,hexagon
0.0,2.0,1.0,0.0,6.0,6.0,685.8209720003288,6.0,1.0,phase_2,go,400.0,400.0,1.0,,,,,,,,,orange,triangle
0.0,1.0,0.5,0.0,5.0,5.0,482.465091999984,6.0,1.0,phase_2,go,400.0,400.0,1.0,,,,,,,,,yellow,circle
0.0,6.0,1.0,1.0,6.0,6.0,326.8059519996313,6.0,1.0,phase_2,go,400.0,400.0,1.0,,,,,,,,,blue,cross
0.0,6.0,1.0,1.0,5.0,5.0,586.9291799999701,6.0,1.0,phase_2,go,400.0,400.0,1.0,,,,,,,,,blue,cross
0.0,2.0,1.0,0.0,6.0,6.0,493.8285930002166,6.0,1.0,phase_2,go,400.0,400.0,1.0,,,,,,,,,orange,triangle
0.0,2.0,1.0,0.0,5.0,5.0,406.9116849996135,6.0,1.0,phase_2,go,400.0,400.0,1.0,,,,,,,,,orange,triangle
0.0,5.0,0.5,1.0,5.0,5.0,373.6439419999442,6.0,1.0,phase_2,stop,400.0,400.0,3.0,,,,,,,,,magenta,flipped triangle
0.0,5.0,0.5,1.0,5.0,0.0,0.0,6.0,1.0,phase_2,stop,350.0,400.0,4.0,,,,,,,,,magenta,flipped triangle
0.0,6.0,1.0,1.0,5.0,0.0,0.0,6.0,1.0,phase_2,stop,400.0,400.0,4.0,,,,,,,,,blue,cross
0.0,3.0,2.0,0.0,5.0,5.0,489.6475460000147,6.0,1.0,phase_2,go,450.0,400.0,1.0,,,,,,,,,cyan,I
0.0,6.0,1.0,1.0,6.0,6.0,344.9574360001861,6.0,1.0,phase_2,stop,450.0,400.0,3.0,,,,,,,,,blue,cross
0.0,7.0,2.0,1.0,5.0,0.0,0.0,6.0,1.0,phase_2,stop,450.0,350.0,4.0,,,,,,,,,gray,hexagon
0.0,3.0,2.0,0.0,6.0,6.0,527.4440229995889,6.0,1.0,phase_2,go,500.0,350.0,1.0,,,,,,,,,cyan,I
0.0,2.0,1.0,0.0,5.0,5.0,515.7125059995451,7.0,1.0,phase_2,go,500.0,350.0,1.0,,,,,,,,,orange,triangle
0.0,2.0,1.0,0.0,5.0,5.0,394.7419280002577,7.0,1.0,phase_2,go,500.0,350.0,1.0,,,,,,,,,orange,triangle
0.0,7.0,2.0,1.0,5.0,5.0,404.7295860000304,7.0,1.0,phase_2,stop,500.0,350.0,3.0,,,,,,,,,gray,hexagon
0.0,3.0,2.0,0.0,5.0,5.0,518.2137250003507,7.0,1.0,phase_2,go,450.0,350.0,1.0,,,,,,,,,cyan,I
0.0,3.0,2.0,0.0,5.0,5.0,617.8334459991675,7.0,1.0,phase_2,go,450.0,350.0,1.0,,,,,,,,,cyan,I
0.0,1.0,0.5,0.0,6.0,6.0,452.0676740003182,7.0,1.0,phase_2,go,450.0,350.0,1.0,,,,,,,,,yellow,circle
0.0,6.0,1.0,1.0,5.0,5.0,297.4268260004464,7.0,1.0,phase_2,stop,450.0,350.0,3.0,,,,,,,,,blue,cross
0.0,6.0,1.0,1.0,5.0,5.0,578.4237429998029,7.0,1.0,phase_2,go,400.0,350.0,1.0,,,,,,,,,blue,cross
0.0,1.0,0.5,0.0,6.0,6.0,332.8695000000152,7.0,1.0,phase_2,go,400.0,350.0,1.0,,,,,,,,,yellow,circle
0.0,1.0,0.5,0.0,5.0,5.0,341.2557880001259,7.0,1.0,phase_2,go,400.0,350.0,1.0,,,,,,,,,yellow,circle
0.0,8.0,4.0,1.0,5.0,0.0,0.0,7.0,1.0,phase_2,stop,400.0,350.0,4.0,,,,,,,,,white,diamond
0.0,8.0,4.0,1.0,5.0,5.0,511.24153199998545,7.0,1.0,phase_2,stop,450.0,350.0,3.0,,,,,,,,,white,diamond
0.0,1.0,0.5,0.0,6.0,6.0,523.5873049996371,7.0,1.0,phase_2,go,400.0,350.0,1.0,,,,,,,,,yellow,circle
0.0,3.0,2.0,0.0,5.0,5.0,696.5865069996653,7.0,1.0,phase_2,go,400.0,350.0,1.0,,,,,,,,,cyan,I
0.0,3.0,2.0,0.0,6.0,6.0,562.9745090000142,7.0,1.0,phase_2,go,400.0,350.0,1.0,,,,,,,,,cyan,I
0.0,7.0,2.0,1.0,6.0,6.0,470.8315329999095,7.0,1.0,phase_2,go,400.0,350.0,1.0,,,,,,,,,gray,hexagon
0.0,7.0,2.0,1.0,6.0,6.0,451.5193849993011,7.0,1.0,phase_2,stop,400.0,350.0,3.0,,,,,,,,,gray,hexagon
0.0,1.0,0.5,0.0,6.0,6.0,518.666709000172,7.0,1.0,phase_2,go,400.0,300.0,1.0,,,,,,,,,yellow,circle
0.0,8.0,4.0,1.0,5.0,5.0,341.5318560000742,7.0,1.0,phase_2,stop,400.0,300.0,3.0,,,,,,,,,white,diamond
0.0,8.0,4.0,1.0,6.0,0.0,0.0,7.0,1.0,phase_2,stop,350.0,300.0,4.0,,,,,,,,,white,diamond
0.0,5.0,0.5,1.0,6.0,0.0,0.0,7.0,1.0,phase_2,stop,350.0,350.0,4.0,,,,,,,,,magenta,flipped triangle
0.0,7.0,2.0,1.0,6.0,6.0,654.8955639991618,7.0,1.0,phase_2,go,350.0,400.0,1.0,,,,,,,,,gray,hexagon
0.0,4.0,4.0,0.0,6.0,6.0,569.011342999147,7.0,1.0,phase_2,go,350.0,400.0,1.0,,,,,,,,,green,square
0.0,6.0,1.0,1.0,5.0,5.0,331.3676060006401,7.0,1.0,phase_2,stop,350.0,400.0,3.0,,,,,,,,,blue,cross
0.0,3.0,2.0,0.0,6.0,6.0,524.9777239987452,7.0,1.0,phase_2,go,300.0,400.0,1.0,,,,,,,,,cyan,I
0.0,1.0,0.5,0.0,6.0,6.0,501.5946700004861,7.0,1.0,phase_2,go,300.0,400.0,1.0,,,,,,,,,yellow,circle
0.0,1.0,0.5,0.0,5.0,5.0,460.3213859991228,7.0,1.0,phase_2,go,300.0,400.0,1.0,,,,,,,,,yellow,circle
0.0,1.0,0.5,0.0,5.0,5.0,347.2904120008024,7.0,1.0,phase_2,go,300.0,400.0,1.0,,,,,,,,,yellow,circle
0.0,2.0,1.0,0.0,6.0,6.0,266.5897579990997,7.0,1.0,phase_2,go,300.0,400.0,1.0,,,,,,,,,orange,triangle
0.0,7.0,2.0,1.0,5.0,5.0,322.9537090010126,7.0,1.0,phase_2,stop,300.0,400.0,3.0,,,,,,,,,gray,hexagon
0.0,7.0,2.0,1.0,6.0,6.0,302.090457000304,7.0,1.0,phase_2,stop,250.0,400.0,3.0,,,,,,,,,gray,hexagon
0.0,4.0,4.0,0.0,6.0,6.0,528.1725439999718,7.0,1.0,phase_2,go,250.0,350.0,1.0,,,,,,,,,green,square
0.0,6.0,1.0,1.0,6.0,0.0,0.0,7.0,1.0,phase_2,stop,250.0,350.0,4.0,,,,,,,,,blue,cross
0.0,4.0,4.0,0.0,6.0,6.0,477.387978000479,7.0,1.0,phase_2,go,250.0,400.0,1.0,,,,,,,,,green,square
0.0,5.0,0.5,1.0,6.0,6.0,520.2886789993499,7.0,1.0,phase_2,stop,250.0,400.0,3.0,,,,,,,,,magenta,flipped triangle
0.0,2.0,1.0,0.0,6.0,6.0,668.3769160008524,7.0,1.0,phase_2,go,250.0,350.0,1.0,,,,,,,,,orange,triangle
0.0,4.0,4.0,0.0,5.0,5.0,386.9462879993079,8.0,1.0,phase_2,go,250.0,350.0,1.0,,,,,,,,,green,square
0.0,1.0,0.5,0.0,5.0,5.0,344.2655229991942,8.0,1.0,phase_2,go,250.0,350.0,1.0,,,,,,,,,yellow,circle
0.0,1.0,0.5,0.0,6.0,6.0,397.1288789998652,8.0,1.0,phase_2,go,250.0,350.0,1.0,,,,,,,,,yellow,circle
0.0,7.0,2.0,1.0,6.0,0.0,0.0,8.0,1.0,phase_2,stop,250.0,350.0,4.0,,,,,,,,,gray,hexagon
0.0,8.0,4.0,1.0,5.0,0.0,0.0,8.0,1.0,phase_2,stop,250.0,400.0,4.0,,,,,,,,,white,diamond
0.0,6.0,1.0,1.0,6.0,6.0,512.4170599992794,8.0,1.0,phase_2,go,300.0,400.0,1.0,,,,,,,,,blue,cross
0.0,1.0,0.5,0.0,6.0,6.0,379.4200969987287,8.0,1.0,phase_2,go,300.0,400.0,1.0,,,,,,,,,yellow,circle
0.0,5.0,0.5,1.0,6.0,6.0,322.5428100013232,8.0,1.0,phase_2,stop,300.0,400.0,3.0,,,,,,,,,magenta,flipped triangle
0.0,1.0,0.5,0.0,6.0,6.0,547.7202830006718,8.0,1.0,phase_2,go,300.0,350.0,1.0,,,,,,,,,yellow,circle
0.0,4.0,4.0,0.0,6.0,6.0,632.1141570006148,8.0,1.0,phase_2,go,300.0,350.0,1.0,,,,,,,,,green,square
0.0,3.0,2.0,0.0,5.0,5.0,481.8769070006965,8.0,1.0,phase_2,go,300.0,350.0,1.0,,,,,,,,,cyan,I
0.0,6.0,1.0,1.0,5.0,0.0,0.0,8.0,1.0,phase_2,stop,300.0,350.0,4.0,,,,,,,,,blue,cross
0.0,8.0,4.0,1.0,6.0,6.0,474.260379000043,8.0,1.0,phase_2,stop,350.0,350.0,3.0,,,,,,,,,white,diamond
0.0,4.0,4.0,0.0,5.0,5.0,590.5856839999615,8.0,1.0,phase_2,go,350.0,300.0,1.0,,,,,,,,,green,square
0.0,6.0,1.0,1.0,5.0,5.0,612.5420490006945,8.0,1.0,phase_2,go,350.0,300.0,1.0,,,,,,,,,blue,cross
0.0,3.0,2.0,0.0,5.0,5.0,487.4107089999597,8.0,1.0,phase_2,go,350.0,300.0,1.0,,,,,,,,,cyan,I
0.0,8.0,4.0,1.0,6.0,6.0,296.1487010015844,8.0,1.0,phase_2,stop,350.0,300.0,3.0,,,,,,,,,white,diamond
0.0,2.0,1.0,0.0,6.0,6.0,335.2308190005715,8.0,1.0,phase_2,go,350.0,250.0,1.0,,,,,,,,,orange,triangle
0.0,3.0,2.0,0.0,5.0,5.0,448.2146309983363,8.0,1.0,phase_2,go,350.0,250.0,1.0,,,,,,,,,cyan,I
0.0,4.0,4.0,0.0,5.0,5.0,489.4349349997355,8.0,1.0,phase_2,go,350.0,250.0,1.0,,,,,,,,,green,square
0.0,6.0,1.0,1.0,5.0,5.0,437.9722730009234,8.0,1.0,phase_2,stop,350.0,250.0,3.0,,,,,,,,,blue,cross
0.0,4.0,4.0,0.0,5.0,5.0,594.3873240012181,8.0,1.0,phase_2,go,300.0,250.0,1.0,,,,,,,,,green,square
0.0,6.0,1.0,1.0,6.0,0.0,0.0,8.0,1.0,phase_2,stop,300.0,250.0,4.0,,,,,,,,,blue,cross
0.0,5.0,0.5,1.0,5.0,0.0,0.0,8.0,1.0,phase_2,stop,300.0,300.0,4.0,,,,,,,,,magenta,flipped triangle
0.0,7.0,2.0,1.0,6.0,0.0,0.0,8.0,1.0,phase_2,stop,350.0,300.0,4.0,,,,,,,,,gray,hexagon
0.0,2.0,1.0,0.0,5.0,5.0,486.2917049995303,8.0,1.0,phase_2,go,350.0,350.0,1.0,,,,,,,,,orange,triangle
0.0,4.0,4.0,0.0,6.0,6.0,477.5247049983591,8.0,1.0,phase_2,go,350.0,350.0,1.0,,,,,,,,,green,square
0.0,5.0,0.5,1.0,5.0,5.0,330.9773429991764,8.0,1.0,phase_2,stop,350.0,350.0,3.0,,,,,,,,,magenta,flipped triangle
0.0,4.0,4.0,0.0,5.0,5.0,577.9437480014167,8.0,1.0,phase_2,go,300.0,350.0,1.0,,,,,,,,,green,square
0.0,2.0,1.0,0.0,5.0,5.0,390.2435979998699,8.0,1.0,phase_2,go,300.0,350.0,1.0,,,,,,,,,orange,triangle
0.0,8.0,4.0,1.0,6.0,6.0,318.9395869994769,8.0,1.0,phase_2,stop,300.0,350.0,3.0,,,,,,,,,white,diamond
0.0,7.0,2.0,1.0,6.0,0.0,0.0,8.0,1.0,phase_2,stop,300.0,300.0,4.0,,,,,,,,,gray,hexagon
0.0,8.0,4.0,1.0,5.0,5.0,569.5232119996945,8.0,1.0,phase_2,go,300.0,350.0,1.0,,,,,,,,,white,diamond
0.0,1.0,0.5,0.0,6.0,6.0,515.7179380003072,8.0,1.0,phase_2,go,300.0,350.0,1.0,,,,,,,,,yellow,circle
0.0,2.0,1.0,0.0,6.0,6.0,572.8856059995451,8.0,1.0,phase_2,go,300.0,350.0,1.0,,,,,,,,,orange,triangle
0.0,8.0,4.0,1.0,5.0,5.0,357.3902680000174,8.0,1.0,phase_2,stop,300.0,350.0,3.0,,,,,,,,,white,diamond
0.0,4.0,4.0,0.0,7.0,5.0,1430.0237869992998,1.0,2.0,phase_3,,,,,170.0,5.0,102.0,34.0,136.0,204.0,170.0,68.0,green,square
0.0,1.0,0.5,0.0,7.0,2.0,3015.2046109997173,1.0,1.0,phase_3,,,,,136.0,4.0,34.0,136.0,102.0,204.0,170.0,68.0,yellow,circle
0.0,4.0,4.0,0.0,7.0,4.0,1597.2806509998918,1.0,1.0,phase_3,,,,,234.0,6.0,39.0,156.0,78.0,234.0,117.0,195.0,green,square
0.0,1.0,0.5,0.0,7.0,2.0,2400.1606199999515,1.0,1.0,phase_3,,,,,39.0,1.0,195.0,39.0,156.0,117.0,234.0,78.0,yellow,circle
0.0,2.0,1.0,0.0,7.0,1.0,1420.1909720013646,1.0,1.0,phase_3,,,,,136.0,4.0,136.0,170.0,34.0,102.0,204.0,68.0,orange,triangle
0.0,4.0,4.0,0.0,7.0,5.0,1513.8641529993038,1.0,1.0,phase_3,,,,,102.0,3.0,170.0,68.0,204.0,136.0,102.0,34.0,green,square
0.0,1.0,0.5,0.0,7.0,2.0,1489.7420029992643,1.0,1.0,phase_3,,,,,156.0,4.0,117.0,156.0,78.0,39.0,234.0,195.0,yellow,circle
0.0,5.0,0.5,1.0,7.0,5.0,1886.181431000296,1.0,1.0,phase_3,,,,,44.0,1.0,220.0,132.0,264.0,176.0,44.0,88.0,magenta,flipped triangle
0.0,3.0,2.0,0.0,7.0,1.0,999.5917180003744,1.0,1.0,phase_3,,,,,270.0,5.0,270.0,54.0,162.0,108.0,216.0,324.0,cyan,I
0.0,8.0,4.0,1.0,7.0,5.0,1034.6068259987078,1.0,1.0,phase_3,,,,,102.0,3.0,68.0,34.0,204.0,170.0,102.0,136.0,white,diamond
0.0,8.0,4.0,1.0,7.0,4.0,1992.2413820004292,1.0,1.0,phase_3,,,,,156.0,4.0,117.0,39.0,234.0,156.0,78.0,195.0,white,diamond
0.0,3.0,2.0,0.0,7.0,5.0,1250.0365889991372,1.0,1.0,phase_3,,,,,264.0,6.0,220.0,44.0,88.0,176.0,264.0,132.0,cyan,I
0.0,2.0,1.0,0.0,7.0,1.0,1822.4691939994957,1.0,1.0,phase_3,,,,,220.0,5.0,220.0,132.0,176.0,264.0,88.0,44.0,orange,triangle
0.0,4.0,4.0,0.0,7.0,4.0,1264.3828990003383,1.0,1.0,phase_3,,,,,88.0,2.0,264.0,220.0,44.0,88.0,132.0,176.0,green,square
0.0,6.0,1.0,1.0,7.0,5.0,1588.5523189990636,1.0,1.0,phase_3,,,,,136.0,4.0,102.0,68.0,34.0,204.0,136.0,170.0,blue,cross
0.0,3.0,2.0,0.0,7.0,6.0,746.5288980001787,1.0,1.0,phase_3,,,,,54.0,1.0,108.0,270.0,162.0,216.0,324.0,54.0,cyan,I
0.0,1.0,0.5,0.0,7.0,1.0,1516.1486680008238,1.0,1.0,phase_3,,,,,170.0,5.0,170.0,34.0,204.0,102.0,136.0,68.0,yellow,circle
0.0,5.0,0.5,1.0,7.0,5.0,1267.0382340002109,1.0,1.0,phase_3,,,,,108.0,2.0,216.0,162.0,54.0,270.0,108.0,324.0,magenta,flipped triangle
0.0,2.0,1.0,0.0,7.0,6.0,2437.8943080009776,1.0,1.0,phase_3,,,,,195.0,5.0,39.0,234.0,117.0,156.0,78.0,195.0,orange,triangle
0.0,1.0,0.5,0.0,7.0,4.0,1586.0765739998897,1.0,1.0,phase_3,,,,,324.0,6.0,216.0,108.0,54.0,324.0,270.0,162.0,yellow,circle
0.0,1.0,0.5,0.0,7.0,2.0,1503.2298130008712,2.0,1.0,phase_3,,,,,44.0,1.0,176.0,44.0,132.0,264.0,88.0,220.0,yellow,circle
0.0,4.0,4.0,0.0,7.0,4.0,1581.4798030005477,2.0,1.0,phase_3,,,,,234.0,6.0,156.0,195.0,117.0,234.0,78.0,39.0,green,square
0.0,8.0,4.0,1.0,7.0,6.0,1434.566965999693,2.0,1.0,phase_3,,,,,195.0,5.0,234.0,117.0,78.0,156.0,39.0,195.0,white,diamond
0.0,2.0,1.0,0.0,7.0,3.0,1885.7284450004956,2.0,1.0,phase_3,,,,,216.0,4.0,54.0,270.0,216.0,324.0,162.0,108.0,orange,triangle
0.0,7.0,2.0,1.0,7.0,5.0,1202.977306998946,2.0,1.0,phase_3,,,,,245.0,5.0,196.0,98.0,49.0,294.0,245.0,147.0,gray,hexagon
0.0,7.0,2.0,1.0,7.0,6.0,1799.5609939989663,2.0,1.0,phase_3,,,,,78.0,2.0,117.0,195.0,39.0,234.0,156.0,78.0,gray,hexagon
0.0,2.0,1.0,0.0,7.0,2.0,1011.4698510005835,2.0,1.0,phase_3,,,,,136.0,4.0,34.0,136.0,204.0,102.0,68.0,170.0,orange,triangle
0.0,8.0,4.0,1.0,7.0,2.0,1980.96846000044,2.0,1.0,phase_3,,,,,132.0,3.0,88.0,132.0,220.0,264.0,176.0,44.0,white,diamond
0.0,2.0,1.0,0.0,7.0,4.0,1141.3117929987493,2.0,1.0,phase_3,,,,,39.0,1.0,234.0,195.0,78.0,39.0,156.0,117.0,orange,triangle
0.0,5.0,0.5,1.0,7.0,6.0,1003.3741740007829,2.0,1.0,phase_3,,,,,170.0,5.0,136.0,204.0,102.0,68.0,34.0,170.0,magenta,flipped triangle
0.0,8.0,4.0,1.0,7.0,1.0,1252.2418389999077,2.0,1.0,phase_3,,,,,162.0,3.0,162.0,216.0,324.0,270.0,108.0,54.0,white,diamond
0.0,5.0,0.5,1.0,7.0,5.0,941.1108259992034,2.0,1.0,phase_3,,,,,234.0,6.0,117.0,195.0,78.0,39.0,234.0,156.0,magenta,flipped triangle
0.0,5.0,0.5,1.0,7.0,3.0,1873.784503999559,2.0,1.0,phase_3,,,,,162.0,3.0,270.0,216.0,162.0,108.0,324.0,54.0,magenta,flipped triangle
0.0,6.0,1.0,1.0,7.0,6.0,1368.8668340000731,2.0,1.0,phase_3,,,,,39.0,1.0,78.0,117.0,156.0,234.0,195.0,39.0,blue,cross
0.0,4.0,4.0,0.0,7.0,1.0,2025.631735999923,2.0,1.0,phase_3,,,,,162.0,3.0,162.0,324.0,270.0,216.0,54.0,108.0,green,square
0.0,6.0,1.0,1.0,7.0,6.0,1144.5640030015056,2.0,1.0,phase_3,,,,,264.0,6.0,220.0,176.0,132.0,88.0,44.0,264.0,blue,cross
0.0,6.0,1.0,1.0,7.0,3.0,1834.3832199989265,2.0,1.0,phase_3,,,,,102.0,3.0,34.0,68.0,102.0,170.0,204.0,136.0,blue,cross
0.0,2.0,1.0,0.0,7.0,3.0,1588.0074350006907,2.0,1.0,phase_3,,,,,147.0,3.0,98.0,294.0,147.0,196.0,49.0,245.0,orange,triangle
0.0,7.0,2.0,1.0,7.0,6.0,575.8704290001333,2.0,1.0,phase_3,,,,,216.0,4.0,54.0,270.0,108.0,162.0,324.0,216.0,gray,hexagon
0.0,6.0,1.0,1.0,7.0,5.0,2138.8798390016746,2.0,1.0,phase_3,,,,,88.0,2.0,264.0,220.0,44.0,132.0,88.0,176.0,blue,cross
0.0,3.0,2.0,0.0,7.0,6.0,1632.6432939986262,3.0,1.0,phase_3,,,,,132.0,3.0,176.0,220.0,264.0,88.0,44.0,132.0,cyan,I
0.0,3.0,2.0,0.0,7.0,1.0,1079.0029969994066,3.0,1.0,phase_3,,,,,68.0,2.0,68.0,136.0,34.0,102.0,204.0,170.0,cyan,I
0.0,5.0,0.5,1.0,7.0,2.0,1410.8142580007552,3.0,1.0,phase_3,,,,,34.0,1.0,136.0,34.0,170.0,68.0,204.0,102.0,magenta,flipped triangle
0.0,5.0,0.5,1.0,7.0,3.0,1376.565414999277,3.0,1.0,phase_3,,,,,98.0,2.0,294.0,196.0,98.0,147.0,245.0,49.0,magenta,flipped triangle
0.0,2.0,1.0,0.0,7.0,4.0,1555.0355399991531,3.0,1.0,phase_3,,,,,98.0,2.0,147.0,196.0,294.0,98.0,245.0,49.0,orange,triangle
0.0,8.0,4.0,1.0,7.0,3.0,1567.5497819993325,3.0,1.0,phase_3,,,,,204.0,6.0,136.0,102.0,204.0,34.0,68.0,170.0,white,diamond
0.0,7.0,2.0,1.0,7.0,5.0,1481.649131001177,3.0,1.0,phase_3,,,,,102.0,3.0,136.0,68.0,34.0,204.0,102.0,170.0,gray,hexagon
0.0,7.0,2.0,1.0,7.0,6.0,1288.3016910000151,3.0,1.0,phase_3,,,,,88.0,2.0,44.0,264.0,132.0,176.0,220.0,88.0,gray,hexagon
0.0,6.0,1.0,1.0,7.0,5.0,887.5043150001147,3.0,1.0,phase_3,,,,,162.0,3.0,216.0,108.0,270.0,54.0,162.0,324.0,blue,cross
0.0,6.0,1.0,1.0,7.0,1.0,627.302716999111,3.0,1.0,phase_3,,,,,147.0,3.0,147.0,294.0,245.0,196.0,98.0,49.0,blue,cross
0.0,3.0,2.0,0.0,7.0,5.0,901.6749710008298,3.0,1.0,phase_3,,,,,196.0,4.0,294.0,49.0,147.0,98.0,196.0,245.0,cyan,I
0.0,5.0,0.5,1.0,7.0,6.0,1182.020805999855,3.0,1.0,phase_3,,,,,220.0,5.0,132.0,44.0,176.0,88.0,264.0,220.0,magenta,flipped triangle
0.0,6.0,1.0,1.0,7.0,4.0,1207.7828630008298,3.0,1.0,phase_3,,,,,147.0,3.0,196.0,245.0,98.0,147.0,294.0,49.0,blue,cross
0.0,7.0,2.0,1.0,7.0,1.0,1082.4847920011962,3.0,1.0,phase_3,,,,,39.0,1.0,39.0,234.0,78.0,156.0,117.0,195.0,gray,hexagon
0.0,1.0,0.5,0.0,7.0,5.0,918.0662329999903,3.0,1.0,phase_3,,,,,294.0,6.0,98.0,147.0,196.0,245.0,294.0,49.0,yellow,circle
0.0,1.0,0.5,0.0,7.0,4.0,918.6352329998044,3.0,1.0,phase_3,,,,,220.0,5.0,88.0,176.0,132.0,220.0,264.0,44.0,yellow,circle
0.0,1.0,0.5,0.0,7.0,3.0,781.7098570012604,3.0,1.0,phase_3,,,,,162.0,3.0,54.0,216.0,162.0,270.0,324.0,108.0,yellow,circle
0.0,2.0,1.0,0.0,7.0,2.0,773.6403570015682,3.0,1.0,phase_3,,,,,176.0,4.0,132.0,176.0,44.0,88.0,264.0,220.0,orange,triangle
0.0,7.0,2.0,1.0,7.0,6.0,1113.1296250005107,3.0,1.0,phase_3,,,,,196.0,4.0,49.0,245.0,294.0,147.0,98.0,196.0,gray,hexagon
0.0,4.0,4.0,0.0,7.0,4.0,1046.5292540011433,3.0,1.0,phase_3,,,,,196.0,4.0,245.0,147.0,49.0,196.0,294.0,98.0,green,square
0.0,5.0,0.5,1.0,7.0,4.0,867.7087259984546,4.0,1.0,phase_3,,,,,39.0,1.0,117.0,156.0,78.0,39.0,234.0,195.0,magenta,flipped triangle
0.0,8.0,4.0,1.0,7.0,2.0,1045.5918299994664,4.0,1.0,phase_3,,,,,264.0,6.0,176.0,264.0,44.0,132.0,220.0,88.0,white,diamond
0.0,4.0,4.0,0.0,7.0,6.0,1146.9621639989782,4.0,1.0,phase_3,,,,,196.0,4.0,49.0,245.0,294.0,147.0,98.0,196.0,green,square
0.0,3.0,2.0,0.0,7.0,4.0,1204.3379330007156,4.0,1.0,phase_3,,,,,34.0,1.0,136.0,170.0,204.0,34.0,68.0,102.0,cyan,I
0.0,7.0,2.0,1.0,7.0,2.0,1207.3703259993636,4.0,1.0,phase_3,,,,,220.0,5.0,132.0,220.0,44.0,88.0,176.0,264.0,gray,hexagon
0.0,4.0,4.0,0.0,7.0,3.0,1105.176338000092,4.0,1.0,phase_3,,,,,176.0,4.0,132.0,88.0,176.0,44.0,264.0,220.0,green,square
0.0,6.0,1.0,1.0,7.0,6.0,1118.4168090003368,4.0,1.0,phase_3,,,,,162.0,3.0,324.0,108.0,216.0,270.0,54.0,162.0,blue,cross
0.0,7.0,2.0,1.0,7.0,2.0,1302.3450330001651,4.0,1.0,phase_3,,,,,216.0,4.0,270.0,216.0,324.0,54.0,162.0,108.0,gray,hexagon
0.0,4.0,4.0,0.0,7.0,5.0,1198.4842339988973,4.0,1.0,phase_3,,,,,162.0,3.0,270.0,54.0,216.0,324.0,162.0,108.0,green,square
0.0,2.0,1.0,0.0,7.0,4.0,1653.881549000289,4.0,1.0,phase_3,,,,,270.0,5.0,108.0,162.0,54.0,270.0,216.0,324.0,orange,triangle
0.0,7.0,2.0,1.0,7.0,5.0,988.5910480006714,4.0,1.0,phase_3,,,,,170.0,5.0,102.0,204.0,136.0,68.0,170.0,34.0,gray,hexagon
0.0,8.0,4.0,1.0,7.0,4.0,1037.4533220001467,4.0,1.0,phase_3,,,,,98.0,2.0,245.0,147.0,294.0,98.0,49.0,196.0,white,diamond
0.0,8.0,4.0,1.0,7.0,2.0,843.3251030000974,4.0,1.0,phase_3,,,,,108.0,2.0,162.0,108.0,216.0,270.0,324.0,54.0,white,diamond
0.0,3.0,2.0,0.0,7.0,4.0,1081.8945699993492,4.0,1.0,phase_3,,,,,195.0,5.0,234.0,156.0,117.0,195.0,39.0,78.0,cyan,I
0.0,8.0,4.0,1.0,7.0,1.0,530.3047940014949,4.0,1.0,phase_3,,,,,196.0,4.0,196.0,98.0,49.0,294.0,245.0,147.0,white,diamond
0.0,5.0,0.5,1.0,7.0,6.0,906.2123700005033,4.0,1.0,phase_3,,,,,98.0,2.0,294.0,245.0,196.0,147.0,49.0,98.0,magenta,flipped triangle
0.0,6.0,1.0,1.0,7.0,2.0,961.6162079983042,4.0,1.0,phase_3,,,,,78.0,2.0,117.0,78.0,234.0,156.0,195.0,39.0,blue,cross
0.0,3.0,2.0,0.0,7.0,4.0,739.5640059985453,4.0,1.0,phase_3,,,,,98.0,2.0,245.0,147.0,196.0,98.0,49.0,294.0,cyan,I
0.0,3.0,2.0,0.0,7.0,2.0,820.2016539999022,4.0,1.0,phase_3,,,,,195.0,5.0,156.0,195.0,78.0,234.0,117.0,39.0,cyan,I
0.0,1.0,0.5,0.0,7.0,5.0,752.2433840003941,4.0,1.0,phase_3,,,,,147.0,3.0,49.0,196.0,245.0,98.0,147.0,294.0,yellow,circle
