raw_reward_magnitude,stim_reward,stepwise_reward_magnitude,paired_with_stopping,quadrant,response,reaction_time,block,num_trial_presentations,which_part,stop_signal_trial_type,left_SSD,right_SSD,accuracy,chosen_bidding_amount,chosen_bidding_level,possible_bid_1,possible_bid_2,possible_bid_3,possible_bid_4,possible_bid_5,possible_bid_6,color_text,shape_text
381.0,4.0,4.0,0.0,2.0,2.0,385.6267129995103,1.0,1.0,part_1,,,,,,,,,,,,,green,flipped triangle
190.0,7.0,3.0,1.0,3.0,3.0,440.9655700001167,1.0,1.0,part_1,,,,,,,,,,,,,orange,cross
415.0,8.0,4.0,1.0,4.0,4.0,317.4149610003951,1.0,1.0,part_1,,,,,,,,,,,,,white,I
0.0,7.0,0.0,1.0,4.0,4.0,420.9407510006713,1.0,1.0,part_1,,,,,,,,,,,,,orange,cross
78.0,2.0,2.0,0.0,1.0,1.0,376.5780550002091,1.0,1.0,part_1,,,,,,,,,,,,,gray,diamond
111.0,6.0,2.0,1.0,4.0,4.0,365.1534799992078,1.0,1.0,part_1,,,,,,,,,,,,,yellow,triangle
190.0,3.0,3.0,0.0,3.0,3.0,319.7818890002963,1.0,1.0,part_1,,,,,,,,,,,,,magenta,circle
118.0,6.0,2.0,1.0,3.0,3.0,391.0239420001744,1.0,1.0,part_1,,,,,,,,,,,,,yellow,triangle
97.0,6.0,2.0,1.0,2.0,2.0,368.1021689990302,1.0,1.0,part_1,,,,,,,,,,,,,yellow,triangle
409.0,4.0,4.0,0.0,1.0,1.0,323.9549059999262,1.0,1.0,part_1,,,,,,,,,,,,,green,flipped triangle
196.0,3.0,3.0,0.0,3.0,3.0,314.4368060002307,1.0,1.0,part_1,,,,,,,,,,,,,magenta,circle
31.0,1.0,1.0,0.0,1.0,1.0,325.1447279999411,1.0,1.0,part_1,,,,,,,,,,,,,blue,square
392.0,4.0,4.0,0.0,3.0,3.0,300.7314220012631,1.0,1.0,part_1,,,,,,,,,,,,,green,flipped triangle
61.0,5.0,1.0,1.0,3.0,3.0,327.5966019991756,1.0,1.0,part_1,,,,,,,,,,,,,cyan,hexagon
0.0,5.0,0.0,1.0,3.0,3.0,323.6264670013042,1.0,1.0,part_1,,,,,,,,,,,,,cyan,hexagon
0.0,8.0,0.0,1.0,3.0,3.0,271.5493060004519,1.0,1.0,part_1,,,,,,,,,,,,,white,I
97.0,2.0,2.0,0.0,4.0,4.0,303.1840719995671,1.0,1.0,part_1,,,,,,,,,,,,,gray,diamond
110.0,2.0,2.0,0.0,3.0,3.0,350.0458849994174,1.0,1.0,part_1,,,,,,,,,,,,,gray,diamond
0.0,1.0,0.0,0.0,4.0,4.0,340.9765280011925,1.0,1.0,part_1,,,,,,,,,,,,,blue,square
414.0,4.0,4.0,0.0,1.0,1.0,375.4908080009045,1.0,1.0,part_1,,,,,,,,,,,,,green,flipped triangle
413.0,8.0,4.0,1.0,1.0,1.0,373.7650870007201,1.0,1.0,part_1,,,,,,,,,,,,,white,I
115.0,2.0,2.0,0.0,3.0,3.0,327.7715989988792,1.0,1.0,part_1,,,,,,,,,,,,,gray,diamond
72.0,1.0,1.0,0.0,2.0,2.0,294.4036009994306,1.0,1.0,part_1,,,,,,,,,,,,,blue,square
0.0,6.0,0.0,1.0,1.0,1.0,299.2515219993947,1.0,1.0,part_1,,,,,,,,,,,,,yellow,triangle
48.0,5.0,1.0,1.0,2.0,2.0,332.875165000587,1.0,1.0,part_1,,,,,,,,,,,,,cyan,hexagon
96.0,2.0,2.0,0.0,1.0,1.0,455.2600699989853,1.0,1.0,part_1,,,,,,,,,,,,,gray,diamond
392.0,8.0,4.0,1.0,2.0,2.0,345.9993619999295,1.0,1.0,part_1,,,,,,,,,,,,,white,I
176.0,7.0,3.0,1.0,1.0,1.0,319.8644049989525,1.0,1.0,part_1,,,,,,,,,,,,,orange,cross
0.0,6.0,0.0,1.0,1.0,1.0,332.8232470012153,1.0,1.0,part_1,,,,,,,,,,,,,yellow,triangle
123.0,6.0,2.0,1.0,4.0,4.0,390.8273199995165,1.0,2.0,part_1,,,,,,,,,,,,,yellow,triangle
0.0,5.0,0.0,1.0,1.0,1.0,404.4641700002103,1.0,1.0,part_1,,,,,,,,,,,,,cyan,hexagon
419.0,8.0,4.0,1.0,4.0,4.0,356.6908180000609,1.0,1.0,part_1,,,,,,,,,,,,,white,I
176.0,7.0,3.0,1.0,2.0,2.0,324.8973059999116,1.0,1.0,part_1,,,,,,,,,,,,,orange,cross
175.0,7.0,3.0,1.0,1.0,1.0,415.6672520002757,1.0,1.0,part_1,,,,,,,,,,,,,orange,cross
0.0,5.0,0.0,1.0,3.0,3.0,349.5118169994384,1.0,1.0,part_1,,,,,,,,,,,,,cyan,hexagon
0.0,4.0,0.0,0.0,2.0,2.0,316.5167229999497,1.0,1.0,part_1,,,,,,,,,,,,,green,flipped triangle
74.0,1.0,1.0,0.0,4.0,4.0,317.2953249995771,1.0,1.0,part_1,,,,,,,,,,,,,blue,square
82.0,2.0,2.0,0.0,4.0,4.0,371.4543800015235,1.0,1.0,part_1,,,,,,,,,,,,,gray,diamond
0.0,1.0,0.0,0.0,2.0,2.0,342.0171870002377,1.0,1.0,part_1,,,,,,,,,,,,,blue,square
182.0,3.0,3.0,0.0,2.0,2.0,319.8715979997359,1.0,1.0,part_1,,,,,,,,,,,,,magenta,circle
407.0,4.0,4.0,0.0,2.0,2.0,319.3135170004098,1.0,1.0,part_1,,,,,,,,,,,,,green,flipped triangle
92.0,2.0,2.0,0.0,1.0,1.0,343.487483998615,1.0,1.0,part_1,,,,,,,,,,,,,gray,diamond
0.0,6.0,0.0,1.0,3.0,3.0,331.2010489989916,1.0,1.0,part_1,,,,,,,,,,,,,yellow,triangle
0.0,5.0,0.0,1.0,4.0,4.0,379.1693659986777,1.0,1.0,part_1,,,,,,,,,,,,,cyan,hexagon
102.0,6.0,2.0,1.0,2.0,2.0,344.7618800000782,1.0,1.0,part_1,,,,,,,,,,,,,yellow,triangle
384.0,8.0,4.0,1.0,4.0,4.0,331.7310440015717,1.0,1.0,part_1,,,,,,,,,,,,,white,I
0.0,7.0,0.0,1.0,1.0,1.0,331.6153640007542,1.0,1.0,part_1,,,,,,,,,,,,,orange,cross
423.0,4.0,4.0,0.0,4.0,4.0,369.9732639997819,1.0,1.0,part_1,,,,,,,,,,,,,green,flipped triangle
28.0,1.0,1.0,0.0,4.0,4.0,356.8182330000127,1.0,1.0,part_1,,,,,,,,,,,,,blue,square
0.0,4.0,0.0,0.0,1.0,1.0,347.6623090009525,1.0,1.0,part_1,,,,,,,,,,,,,green,flipped triangle
72.0,5.0,1.0,1.0,3.0,3.0,347.898443998929,1.0,1.0,part_1,,,,,,,,,,,,,cyan,hexagon
401.0,8.0,4.0,1.0,3.0,3.0,415.8430700008466,1.0,1.0,part_1,,,,,,,,,,,,,white,I
53.0,1.0,1.0,0.0,4.0,4.0,335.1340789995447,1.0,1.0,part_1,,,,,,,,,,,,,blue,square
197.0,3.0,3.0,0.0,2.0,2.0,313.1609900010517,1.0,1.0,part_1,,,,,,,,,,,,,magenta,circle
189.0,3.0,3.0,0.0,4.0,4.0,359.6729849996336,1.0,1.0,part_1,,,,,,,,,,,,,magenta,circle
0.0,3.0,0.0,0.0,1.0,1.0,326.6149410010257,1.0,1.0,part_1,,,,,,,,,,,,,magenta,circle
181.0,7.0,3.0,1.0,3.0,3.0,340.0624919995607,1.0,1.0,part_1,,,,,,,,,,,,,orange,cross
384.0,4.0,4.0,0.0,2.0,2.0,341.0397010011365,1.0,1.0,part_1,,,,,,,,,,,,,green,flipped triangle
403.0,4.0,4.0,0.0,1.0,1.0,385.9187070011103,1.0,1.0,part_1,,,,,,,,,,,,,green,flipped triangle
37.0,1.0,1.0,0.0,1.0,1.0,363.7465289993997,1.0,1.0,part_1,,,,,,,,,,,,,blue,square
388.0,8.0,4.0,1.0,1.0,1.0,338.5136260003492,1.0,1.0,part_1,,,,,,,,,,,,,white,I
0.0,1.0,0.0,0.0,4.0,4.0,331.2813829998049,1.0,1.0,part_1,,,,,,,,,,,,,blue,square
62.0,1.0,1.0,0.0,4.0,4.0,319.5927960005065,1.0,1.0,part_1,,,,,,,,,,,,,blue,square
408.0,8.0,4.0,1.0,4.0,4.0,319.0446230000816,1.0,1.0,part_1,,,,,,,,,,,,,white,I
186.0,7.0,3.0,1.0,4.0,4.0,310.389682999812,1.0,1.0,part_1,,,,,,,,,,,,,orange,cross
34.0,5.0,1.0,1.0,2.0,2.0,354.6279110014438,1.0,1.0,part_1,,,,,,,,,,,,,cyan,hexagon
220.0,7.0,3.0,1.0,3.0,3.0,342.8865009991568,1.0,1.0,part_1,,,,,,,,,,,,,orange,cross
217.0,3.0,3.0,0.0,3.0,3.0,433.1150149992027,1.0,1.0,part_1,,,,,,,,,,,,,magenta,circle
0.0,3.0,0.0,0.0,1.0,1.0,369.1511580000224,1.0,1.0,part_1,,,,,,,,,,,,,magenta,circle
388.0,8.0,4.0,1.0,3.0,3.0,450.513793999562,1.0,2.0,part_1,,,,,,,,,,,,,white,I
74.0,5.0,1.0,1.0,3.0,3.0,359.6630690008169,1.0,1.0,part_1,,,,,,,,,,,,,cyan,hexagon
102.0,6.0,2.0,1.0,3.0,3.0,326.3069139993604,1.0,1.0,part_1,,,,,,,,,,,,,yellow,triangle
422.0,4.0,4.0,0.0,4.0,4.0,462.9497080004512,1.0,1.0,part_1,,,,,,,,,,,,,green,flipped triangle
51.0,5.0,1.0,1.0,1.0,1.0,383.9250019991596,1.0,1.0,part_1,,,,,,,,,,,,,cyan,hexagon
189.0,7.0,3.0,1.0,1.0,1.0,359.1968869986885,1.0,1.0,part_1,,,,,,,,,,,,,orange,cross
180.0,7.0,3.0,1.0,3.0,3.0,347.7851129991904,1.0,1.0,part_1,,,,,,,,,,,,,orange,cross
0.0,2.0,0.0,0.0,2.0,2.0,350.2175909998186,1.0,1.0,part_1,,,,,,,,,,,,,gray,diamond
51.0,5.0,1.0,1.0,3.0,3.0,340.3226789996552,1.0,1.0,part_1,,,,,,,,,,,,,cyan,hexagon
198.0,7.0,3.0,1.0,2.0,2.0,409.9915330007206,1.0,1.0,part_1,,,,,,,,,,,,,orange,cross
123.0,2.0,2.0,0.0,2.0,2.0,383.7952059984673,1.0,1.0,part_1,,,,,,,,,,,,,gray,diamond
225.0,7.0,3.0,1.0,1.0,1.0,363.6091959997429,1.0,1.0,part_1,,,,,,,,,,,,,orange,cross
90.0,2.0,2.0,0.0,3.0,3.0,332.5035899997601,1.0,1.0,part_1,,,,,,,,,,,,,gray,diamond
35.0,1.0,1.0,0.0,3.0,3.0,363.6958589995629,1.0,1.0,part_1,,,,,,,,,,,,,blue,square
38.0,1.0,1.0,0.0,3.0,3.0,311.4101739993202,1.0,1.0,part_1,,,,,,,,,,,,,blue,square
74.0,1.0,1.0,0.0,3.0,3.0,345.6888860000617,1.0,1.0,part_1,,,,,,,,,,,,,blue,square
0.0,2.0,0.0,0.0,4.0,4.0,377.7102180010843,1.0,1.0,part_1,,,,,,,,,,,,,gray,diamond
420.0,4.0,4.0,0.0,3.0,3.0,343.5133380007755,1.0,1.0,part_1,,,,,,,,,,,,,green,flipped triangle
0.0,3.0,0.0,0.0,2.0,2.0,332.3602189993835,1.0,1.0,part_1,,,,,,,,,,,,,magenta,circle
0.0,6.0,0.0,1.0,2.0,2.0,401.6293869990477,1.0,1.0,part_1,,,,,,,,,,,,,yellow,triangle
105.0,2.0,2.0,0.0,2.0,2.0,426.5187099990726,1.0,1.0,part_1,,,,,,,,,,,,,gray,diamond
0.0,3.0,0.0,0.0,2.0,2.0,369.4479380010307,1.0,1.0,part_1,,,,,,,,,,,,,magenta,circle
179.0,3.0,3.0,0.0,4.0,4.0,337.8352550007548,1.0,1.0,part_1,,,,,,,,,,,,,magenta,circle
61.0,1.0,1.0,0.0,3.0,3.0,324.1481360000762,1.0,1.0,part_1,,,,,,,,,,,,,blue,square
0.0,5.0,0.0,1.0,1.0,1.0,369.2735229997197,1.0,1.0,part_1,,,,,,,,,,,,,cyan,hexagon
0.0,8.0,0.0,1.0,4.0,4.0,335.7621320010366,1.0,1.0,part_1,,,,,,,,,,,,,white,I
376.0,8.0,4.0,1.0,4.0,4.0,315.6339140005002,1.0,1.0,part_1,,,,,,,,,,,,,white,I
384.0,8.0,4.0,1.0,2.0,2.0,314.1898619996937,1.0,1.0,part_1,,,,,,,,,,,,,white,I
114.0,2.0,2.0,0.0,4.0,4.0,352.6624639998772,1.0,1.0,part_1,,,,,,,,,,,,,gray,diamond
123.0,6.0,2.0,1.0,1.0,1.0,371.8057650003175,1.0,1.0,part_1,,,,,,,,,,,,,yellow,triangle
415.0,4.0,4.0,0.0,4.0,4.0,316.0635519998322,1.0,1.0,part_1,,,,,,,,,,,,,green,flipped triangle
123.0,2.0,2.0,0.0,1.0,1.0,448.7075199995161,2.0,1.0,part_1,,,,,,,,,,,,,gray,diamond
211.0,3.0,3.0,0.0,4.0,4.0,313.5327849995519,2.0,1.0,part_1,,,,,,,,,,,,,magenta,circle
92.0,6.0,2.0,1.0,4.0,4.0,384.9795020014426,2.0,1.0,part_1,,,,,,,,,,,,,yellow,triangle
382.0,8.0,4.0,1.0,1.0,1.0,315.8170840015373,2.0,1.0,part_1,,,,,,,,,,,,,white,I
37.0,1.0,1.0,0.0,3.0,3.0,363.9289430011558,2.0,1.0,part_1,,,,,,,,,,,,,blue,square
0.0,7.0,0.0,1.0,1.0,1.0,327.6527630005148,2.0,1.0,part_1,,,,,,,,,,,,,orange,cross
217.0,7.0,3.0,1.0,1.0,1.0,365.0144640014332,2.0,1.0,part_1,,,,,,,,,,,,,orange,cross
68.0,5.0,1.0,1.0,1.0,1.0,362.2357889998966,2.0,1.0,part_1,,,,,,,,,,,,,cyan,hexagon
64.0,1.0,1.0,0.0,3.0,3.0,341.9447079995734,2.0,1.0,part_1,,,,,,,,,,,,,blue,square
396.0,4.0,4.0,0.0,2.0,2.0,353.5072640006547,2.0,1.0,part_1,,,,,,,,,,,,,green,flipped triangle
95.0,2.0,2.0,0.0,2.0,2.0,356.18353199970437,2.0,1.0,part_1,,,,,,,,,,,,,gray,diamond
109.0,2.0,2.0,0.0,1.0,1.0,367.8959809985827,2.0,1.0,part_1,,,,,,,,,,,,,gray,diamond
81.0,2.0,2.0,0.0,3.0,3.0,368.0805519998102,2.0,1.0,part_1,,,,,,,,,,,,,gray,diamond
0.0,1.0,0.0,0.0,1.0,1.0,310.2194889997918,2.0,1.0,part_1,,,,,,,,,,,,,blue,square
82.0,6.0,2.0,1.0,1.0,1.0,334.9732549995678,2.0,1.0,part_1,,,,,,,,,,,,,yellow,triangle
207.0,3.0,3.0,0.0,3.0,3.0,323.582945000453,2.0,1.0,part_1,,,,,,,,,,,,,magenta,circle
0.0,2.0,0.0,0.0,1.0,1.0,315.2915480004594,2.0,1.0,part_1,,,,,,,,,,,,,gray,diamond
179.0,3.0,3.0,0.0,4.0,4.0,357.6781170013419,2.0,1.0,part_1,,,,,,,,,,,,,magenta,circle
387.0,8.0,4.0,1.0,4.0,4.0,336.502294998354,2.0,1.0,part_1,,,,,,,,,,,,,white,I
115.0,6.0,2.0,1.0,3.0,3.0,348.4862820005219,2.0,1.0,part_1,,,,,,,,,,,,,yellow,triangle
194.0,3.0,3.0,0.0,2.0,2.0,314.2479250000178,2.0,1.0,part_1,,,,,,,,,,,,,magenta,circle
43.0,5.0,1.0,1.0,3.0,3.0,351.7742380008712,2.0,1.0,part_1,,,,,,,,,,,,,cyan,hexagon
54.0,1.0,1.0,0.0,1.0,1.0,397.0161540000845,2.0,1.0,part_1,,,,,,,,,,,,,blue,square
51.0,5.0,1.0,1.0,1.0,1.0,325.83882399922,2.0,1.0,part_1,,,,,,,,,,,,,cyan,hexagon
37.0,5.0,1.0,1.0,4.0,4.0,352.3723849993985,2.0,1.0,part_1,,,,,,,,,,,,,cyan,hexagon
83.0,6.0,2.0,1.0,3.0,3.0,319.901288001347,2.0,1.0,part_1,,,,,,,,,,,,,yellow,triangle
185.0,3.0,3.0,0.0,4.0,4.0,388.2792189997417,2.0,1.0,part_1,,,,,,,,,,,,,magenta,circle
113.0,2.0,2.0,0.0,1.0,1.0,388.6810829990281,2.0,1.0,part_1,,,,,,,,,,,,,gray,diamond
0.0,6.0,0.0,1.0,2.0,2.0,318.5921259992028,2.0,1.0,part_1,,,,,,,,,,,,,yellow,triangle
91.0,2.0,2.0,0.0,3.0,3.0,364.0283540007658,2.0,1.0,part_1,,,,,,,,,,,,,gray,diamond
410.0,4.0,4.0,0.0,1.0,1.0,355.5670259993349,2.0,1.0,part_1,,,,,,,,,,,,,green,flipped triangle
394.0,8.0,4.0,1.0,2.0,2.0,341.7558700002701,2.0,1.0,part_1,,,,,,,,,,,,,white,I
214.0,7.0,3.0,1.0,2.0,2.0,368.5091650004324,2.0,1.0,part_1,,,,,,,,,,,,,orange,cross
57.0,5.0,1.0,1.0,1.0,1.0,323.996827000883,2.0,1.0,part_1,,,,,,,,,,,,,cyan,hexagon
103.0,6.0,2.0,1.0,1.0,1.0,312.5932050006668,2.0,1.0,part_1,,,,,,,,,,,,,yellow,triangle
77.0,2.0,2.0,0.0,2.0,2.0,335.3455109991046,2.0,1.0,part_1,,,,,,,,,,,,,gray,diamond
214.0,7.0,3.0,1.0,3.0,3.0,366.7395819993544,2.0,1.0,part_1,,,,,,,,,,,,,orange,cross
29.0,1.0,1.0,0.0,2.0,2.0,333.9490609996574,2.0,1.0,part_1,,,,,,,,,,,,,blue,square
118.0,2.0,2.0,0.0,4.0,4.0,336.482265000086,2.0,1.0,part_1,,,,,,,,,,,,,gray,diamond
30.0,5.0,1.0,1.0,1.0,1.0,349.4071599998278,2.0,1.0,part_1,,,,,,,,,,,,,cyan,hexagon
215.0,3.0,3.0,0.0,1.0,1.0,357.5843709986657,2.0,1.0,part_1,,,,,,,,,,,,,magenta,circle
0.0,6.0,0.0,1.0,2.0,2.0,335.9370599973772,2.0,1.0,part_1,,,,,,,,,,,,,yellow,triangle
115.0,2.0,2.0,0.0,3.0,3.0,381.8324759995448,2.0,1.0,part_1,,,,,,,,,,,,,gray,diamond
205.0,7.0,3.0,1.0,1.0,1.0,348.049397001887,2.0,1.0,part_1,,,,,,,,,,,,,orange,cross
0.0,5.0,0.0,1.0,3.0,3.0,327.5704109983053,2.0,1.0,part_1,,,,,,,,,,,,,cyan,hexagon
117.0,6.0,2.0,1.0,3.0,3.0,339.4615069992142,2.0,1.0,part_1,,,,,,,,,,,,,yellow,triangle
74.0,5.0,1.0,1.0,3.0,3.0,305.67896499997,2.0,1.0,part_1,,,,,,,,,,,,,cyan,hexagon
69.0,5.0,1.0,1.0,1.0,1.0,373.1018420003238,2.0,1.0,part_1,,,,,,,,,,,,,cyan,hexagon
415.0,8.0,4.0,1.0,3.0,3.0,332.7116660002502,2.0,1.0,part_1,,,,,,,,,,,,,white,I
34.0,1.0,1.0,0.0,1.0,1.0,333.4926290008297,2.0,1.0,part_1,,,,,,,,,,,,,blue,square
222.0,7.0,3.0,1.0,2.0,2.0,366.1952939983166,2.0,1.0,part_1,,,,,,,,,,,,,orange,cross
45.0,1.0,1.0,0.0,1.0,1.0,344.9394529998244,2.0,1.0,part_1,,,,,,,,,,,,,blue,square
0.0,5.0,0.0,1.0,4.0,4.0,331.12295200044167,2.0,1.0,part_1,,,,,,,,,,,,,cyan,hexagon
215.0,7.0,3.0,1.0,2.0,2.0,354.4124420004664,2.0,1.0,part_1,,,,,,,,,,,,,orange,cross
93.0,2.0,2.0,0.0,1.0,1.0,399.432871996396,2.0,1.0,part_1,,,,,,,,,,,,,gray,diamond
198.0,7.0,3.0,1.0,2.0,2.0,366.2180339997576,2.0,1.0,part_1,,,,,,,,,,,,,orange,cross
95.0,6.0,2.0,1.0,4.0,4.0,461.5826180015574,2.0,1.0,part_1,,,,,,,,,,,,,yellow,triangle
0.0,2.0,0.0,0.0,1.0,1.0,369.5378600023105,2.0,1.0,part_1,,,,,,,,,,,,,gray,diamond
60.0,1.0,1.0,0.0,2.0,2.0,345.5234510001901,2.0,1.0,part_1,,,,,,,,,,,,,blue,square
29.0,5.0,1.0,1.0,4.0,4.0,303.6762980009371,2.0,1.0,part_1,,,,,,,,,,,,,cyan,hexagon
383.0,8.0,4.0,1.0,1.0,1.0,301.5019500016933,2.0,1.0,part_1,,,,,,,,,,,,,white,I
214.0,3.0,3.0,0.0,1.0,1.0,348.5299300009501,2.0,1.0,part_1,,,,,,,,,,,,,magenta,circle
215.0,7.0,3.0,1.0,2.0,2.0,359.0057970031921,2.0,1.0,part_1,,,,,,,,,,,,,orange,cross
68.0,1.0,1.0,0.0,2.0,2.0,359.2096350002975,2.0,1.0,part_1,,,,,,,,,,,,,blue,square
0.0,1.0,0.0,0.0,4.0,4.0,328.7143590023333,2.0,1.0,part_1,,,,,,,,,,,,,blue,square
382.0,4.0,4.0,0.0,4.0,4.0,372.6806750019023,2.0,1.0,part_1,,,,,,,,,,,,,green,flipped triangle
75.0,5.0,1.0,1.0,3.0,3.0,339.4876940001268,2.0,1.0,part_1,,,,,,,,,,,,,cyan,hexagon
0.0,8.0,0.0,1.0,4.0,4.0,306.82280900146,2.0,1.0,part_1,,,,,,,,,,,,,white,I
114.0,6.0,2.0,1.0,3.0,3.0,352.0550180001009,2.0,1.0,part_1,,,,,,,,,,,,,yellow,triangle
65.0,5.0,1.0,1.0,2.0,2.0,332.5951019978674,2.0,1.0,part_1,,,,,,,,,,,,,cyan,hexagon
116.0,2.0,2.0,0.0,2.0,2.0,319.3750489990634,2.0,1.0,part_1,,,,,,,,,,,,,gray,diamond
55.0,1.0,1.0,0.0,1.0,1.0,311.6519269970013,2.0,1.0,part_1,,,,,,,,,,,,,blue,square
0.0,2.0,0.0,0.0,3.0,3.0,311.2677410026663,2.0,1.0,part_1,,,,,,,,,,,,,gray,diamond
376.0,4.0,4.0,0.0,4.0,4.0,323.8873789996432,2.0,1.0,part_1,,,,,,,,,,,,,green,flipped triangle
0.0,3.0,0.0,0.0,3.0,3.0,331.6714180000417,2.0,1.0,part_1,,,,,,,,,,,,,magenta,circle
0.0,1.0,0.0,0.0,1.0,1.0,370.124463999673,2.0,1.0,part_1,,,,,,,,,,,,,blue,square
0.0,1.0,0.0,0.0,1.0,1.0,336.5302910024184,2.0,1.0,part_1,,,,,,,,,,,,,blue,square
43.0,1.0,1.0,0.0,4.0,4.0,299.9466830005985,2.0,1.0,part_1,,,,,,,,,,,,,blue,square
91.0,6.0,2.0,1.0,4.0,4.0,349.0124689997174,2.0,1.0,part_1,,,,,,,,,,,,,yellow,triangle
109.0,6.0,2.0,1.0,1.0,1.0,325.2236500011349,2.0,1.0,part_1,,,,,,,,,,,,,yellow,triangle
215.0,3.0,3.0,0.0,3.0,3.0,315.2873110011569,2.0,1.0,part_1,,,,,,,,,,,,,magenta,circle
96.0,6.0,2.0,1.0,2.0,2.0,314.0647179970983,2.0,1.0,part_1,,,,,,,,,,,,,yellow,triangle
413.0,4.0,4.0,0.0,3.0,3.0,315.9557159997348,2.0,1.0,part_1,,,,,,,,,,,,,green,flipped triangle
388.0,4.0,4.0,0.0,1.0,1.0,306.1753449983371,2.0,1.0,part_1,,,,,,,,,,,,,green,flipped triangle
0.0,4.0,0.0,0.0,3.0,3.0,307.5247300002957,2.0,1.0,part_1,,,,,,,,,,,,,green,flipped triangle
78.0,6.0,2.0,1.0,4.0,4.0,315.785501999926,2.0,1.0,part_1,,,,,,,,,,,,,yellow,triangle
222.0,3.0,3.0,0.0,3.0,3.0,338.595589997567,2.0,1.0,part_1,,,,,,,,,,,,,magenta,circle
403.0,8.0,4.0,1.0,3.0,3.0,321.3679610016697,2.0,1.0,part_1,,,,,,,,,,,,,white,I
423.0,4.0,4.0,0.0,1.0,1.0,339.6457880007801,2.0,1.0,part_1,,,,,,,,,,,,,green,flipped triangle
408.0,4.0,4.0,0.0,2.0,2.0,385.8411159999377,2.0,1.0,part_1,,,,,,,,,,,,,green,flipped triangle
414.0,8.0,4.0,1.0,3.0,3.0,311.4939300030528,2.0,1.0,part_1,,,,,,,,,,,,,white,I
29.0,1.0,1.0,0.0,2.0,2.0,377.5058460014406,2.0,1.0,part_1,,,,,,,,,,,,,blue,square
77.0,6.0,2.0,1.0,1.0,1.0,312.0054099999834,2.0,1.0,part_1,,,,,,,,,,,,,yellow,triangle
179.0,7.0,3.0,1.0,3.0,3.0,334.5308370007842,2.0,1.0,part_1,,,,,,,,,,,,,orange,cross
213.0,7.0,3.0,1.0,3.0,3.0,309.2091830003483,2.0,1.0,part_1,,,,,,,,,,,,,orange,cross
195.0,7.0,3.0,1.0,4.0,4.0,333.5397869996086,2.0,2.0,part_1,,,,,,,,,,,,,orange,cross
0.0,7.0,0.0,1.0,4.0,4.0,379.2023639980471,2.0,1.0,part_1,,,,,,,,,,,,,orange,cross
0.0,4.0,0.0,0.0,3.0,3.0,322.5000400016142,2.0,1.0,part_1,,,,,,,,,,,,,green,flipped triangle
182.0,7.0,3.0,1.0,3.0,3.0,379.3078759990749,2.0,1.0,part_1,,,,,,,,,,,,,orange,cross
57.0,1.0,1.0,0.0,4.0,4.0,327.5735210008861,2.0,1.0,part_1,,,,,,,,,,,,,blue,square
178.0,7.0,3.0,1.0,4.0,4.0,372.9915199983225,3.0,1.0,part_1,,,,,,,,,,,,,orange,cross
198.0,3.0,3.0,0.0,2.0,2.0,361.1356990004424,3.0,1.0,part_1,,,,,,,,,,,,,magenta,circle
51.0,1.0,1.0,0.0,4.0,4.0,319.4140250016062,3.0,1.0,part_1,,,,,,,,,,,,,blue,square
0.0,3.0,0.0,0.0,3.0,3.0,331.9843019999098,3.0,1.0,part_1,,,,,,,,,,,,,magenta,circle
383.0,8.0,4.0,1.0,3.0,3.0,333.4889249999833,3.0,1.0,part_1,,,,,,,,,,,,,white,I
394.0,4.0,4.0,0.0,4.0,4.0,332.204783000634,3.0,1.0,part_1,,,,,,,,,,,,,green,flipped triangle
116.0,6.0,2.0,1.0,1.0,1.0,356.6966139987926,3.0,1.0,part_1,,,,,,,,,,,,,yellow,triangle
85.0,2.0,2.0,0.0,1.0,1.0,402.1834830018633,3.0,1.0,part_1,,,,,,,,,,,,,gray,diamond
40.0,1.0,1.0,0.0,4.0,4.0,354.9872300027346,3.0,1.0,part_1,,,,,,,,,,,,,blue,square
0.0,6.0,0.0,1.0,2.0,2.0,456.6644299993641,3.0,1.0,part_1,,,,,,,,,,,,,yellow,triangle
399.0,8.0,4.0,1.0,4.0,4.0,336.339888999646,3.0,1.0,part_1,,,,,,,,,,,,,white,I
40.0,5.0,1.0,1.0,4.0,4.0,345.2564819999679,3.0,1.0,part_1,,,,,,,,,,,,,cyan,hexagon
220.0,3.0,3.0,0.0,3.0,3.0,347.8095940008643,3.0,1.0,part_1,,,,,,,,,,,,,magenta,circle
82.0,6.0,2.0,1.0,4.0,4.0,327.2231829978409,3.0,1.0,part_1,,,,,,,,,,,,,yellow,triangle
41.0,5.0,1.0,1.0,2.0,2.0,334.8115170010715,3.0,1.0,part_1,,,,,,,,,,,,,cyan,hexagon
113.0,6.0,2.0,1.0,1.0,1.0,336.3984969982994,3.0,1.0,part_1,,,,,,,,,,,,,yellow,triangle
62.0,5.0,1.0,1.0,4.0,4.0,326.4228789994376,3.0,1.0,part_1,,,,,,,,,,,,,cyan,hexagon
0.0,5.0,0.0,1.0,1.0,1.0,485.7213920004142,3.0,1.0,part_1,,,,,,,,,,,,,cyan,hexagon
221.0,3.0,3.0,0.0,2.0,2.0,363.5284159972798,3.0,1.0,part_1,,,,,,,,,,,,,magenta,circle
48.0,1.0,1.0,0.0,3.0,3.0,387.022925002384,3.0,1.0,part_1,,,,,,,,,,,,,blue,square
54.0,5.0,1.0,1.0,2.0,2.0,350.8818579975923,3.0,1.0,part_1,,,,,,,,,,,,,cyan,hexagon
419.0,4.0,4.0,0.0,1.0,1.0,398.0710740033828,3.0,1.0,part_1,,,,,,,,,,,,,green,flipped triangle
55.0,5.0,1.0,1.0,4.0,4.0,372.920152000006,3.0,1.0,part_1,,,,,,,,,,,,,cyan,hexagon
202.0,3.0,3.0,0.0,2.0,2.0,408.8471089999075,3.0,1.0,part_1,,,,,,,,,,,,,magenta,circle
220.0,7.0,3.0,1.0,1.0,1.0,377.2092670005804,3.0,1.0,part_1,,,,,,,,,,,,,orange,cross
212.0,3.0,3.0,0.0,1.0,1.0,362.6648339995881,3.0,1.0,part_1,,,,,,,,,,,,,magenta,circle
37.0,1.0,1.0,0.0,1.0,1.0,593.1260739998834,3.0,1.0,part_1,,,,,,,,,,,,,blue,square
0.0,4.0,0.0,0.0,2.0,2.0,390.4928349984402,3.0,1.0,part_1,,,,,,,,,,,,,green,flipped triangle
415.0,4.0,4.0,0.0,2.0,2.0,345.3792760010401,3.0,1.0,part_1,,,,,,,,,,,,,green,flipped triangle
0.0,8.0,0.0,1.0,3.0,3.0,331.6303789979429,3.0,1.0,part_1,,,,,,,,,,,,,white,I
225.0,7.0,3.0,1.0,4.0,4.0,366.0126039976603,3.0,1.0,part_1,,,,,,,,,,,,,orange,cross
408.0,4.0,4.0,0.0,3.0,3.0,389.9233529991761,3.0,1.0,part_1,,,,,,,,,,,,,green,flipped triangle
0.0,7.0,0.0,1.0,1.0,1.0,459.8879690020112,3.0,1.0,part_1,,,,,,,,,,,,,orange,cross
185.0,7.0,3.0,1.0,1.0,1.0,392.4151200008055,3.0,1.0,part_1,,,,,,,,,,,,,orange,cross
35.0,5.0,1.0,1.0,3.0,3.0,347.2328440002457,3.0,1.0,part_1,,,,,,,,,,,,,cyan,hexagon
38.0,5.0,1.0,1.0,1.0,1.0,359.5009939999727,3.0,1.0,part_1,,,,,,,,,,,,,cyan,hexagon
91.0,2.0,2.0,0.0,4.0,4.0,359.8524210028699,3.0,1.0,part_1,,,,,,,,,,,,,gray,diamond
0.0,8.0,0.0,1.0,2.0,2.0,338.1391570001142,3.0,1.0,part_1,,,,,,,,,,,,,white,I
378.0,4.0,4.0,0.0,3.0,3.0,328.3941760018933,3.0,1.0,part_1,,,,,,,,,,,,,green,flipped triangle
65.0,5.0,1.0,1.0,2.0,2.0,340.895179000654,3.0,1.0,part_1,,,,,,,,,,,,,cyan,hexagon
393.0,8.0,4.0,1.0,4.0,4.0,340.8537680006702,3.0,1.0,part_1,,,,,,,,,,,,,white,I
0.0,3.0,0.0,0.0,4.0,4.0,361.3700940004491,3.0,1.0,part_1,,,,,,,,,,,,,magenta,circle
66.0,1.0,1.0,0.0,2.0,2.0,293.7541339997551,3.0,1.0,part_1,,,,,,,,,,,,,blue,square
194.0,7.0,3.0,1.0,4.0,4.0,339.9901750017307,3.0,1.0,part_1,,,,,,,,,,,,,orange,cross
82.0,2.0,2.0,0.0,3.0,3.0,342.7624510004534,3.0,1.0,part_1,,,,,,,,,,,,,gray,diamond
213.0,3.0,3.0,0.0,2.0,2.0,362.6935739994223,3.0,1.0,part_1,,,,,,,,,,,,,magenta,circle
423.0,8.0,4.0,1.0,3.0,3.0,306.8098820003797,3.0,1.0,part_1,,,,,,,,,,,,,white,I
123.0,2.0,2.0,0.0,3.0,3.0,391.2960369998473,3.0,1.0,part_1,,,,,,,,,,,,,gray,diamond
85.0,6.0,2.0,1.0,3.0,3.0,353.5901340001146,3.0,1.0,part_1,,,,,,,,,,,,,yellow,triangle
388.0,4.0,4.0,0.0,3.0,3.0,331.5833749984449,3.0,1.0,part_1,,,,,,,,,,,,,green,flipped triangle
45.0,5.0,1.0,1.0,3.0,3.0,332.5758819992188,3.0,1.0,part_1,,,,,,,,,,,,,cyan,hexagon
390.0,8.0,4.0,1.0,4.0,4.0,377.870479998819,3.0,1.0,part_1,,,,,,,,,,,,,white,I
65.0,1.0,1.0,0.0,1.0,1.0,524.3314649997046,3.0,1.0,part_1,,,,,,,,,,,,,blue,square
191.0,7.0,3.0,1.0,4.0,4.0,356.2942570024461,3.0,1.0,part_1,,,,,,,,,,,,,orange,cross
97.0,6.0,2.0,1.0,2.0,2.0,348.3128150000993,3.0,1.0,part_1,,,,,,,,,,,,,yellow,triangle
195.0,3.0,3.0,0.0,1.0,1.0,348.5898840008303,3.0,1.0,part_1,,,,,,,,,,,,,magenta,circle
399.0,4.0,4.0,0.0,4.0,4.0,474.3615309998858,3.0,1.0,part_1,,,,,,,,,,,,,green,flipped triangle
79.0,2.0,2.0,0.0,2.0,2.0,362.5906870001927,3.0,1.0,part_1,,,,,,,,,,,,,gray,diamond
414.0,4.0,4.0,0.0,3.0,3.0,348.9374350028811,3.0,1.0,part_1,,,,,,,,,,,,,green,flipped triangle
176.0,3.0,3.0,0.0,1.0,1.0,352.4575060000643,3.0,1.0,part_1,,,,,,,,,,,,,magenta,circle
390.0,4.0,4.0,0.0,2.0,2.0,475.3708749994985,3.0,1.0,part_1,,,,,,,,,,,,,green,flipped triangle
31.0,5.0,1.0,1.0,1.0,1.0,353.124592002132,3.0,1.0,part_1,,,,,,,,,,,,,cyan,hexagon
95.0,6.0,2.0,1.0,3.0,3.0,340.0794109984417,3.0,1.0,part_1,,,,,,,,,,,,,yellow,triangle
105.0,6.0,2.0,1.0,1.0,1.0,328.1009970014565,3.0,1.0,part_1,,,,,,,,,,,,,yellow,triangle
90.0,6.0,2.0,1.0,2.0,2.0,354.5601379992149,3.0,1.0,part_1,,,,,,,,,,,,,yellow,triangle
0.0,2.0,0.0,0.0,3.0,3.0,364.1586970006756,3.0,1.0,part_1,,,,,,,,,,,,,gray,diamond
0.0,1.0,0.0,0.0,4.0,4.0,319.1659289987001,3.0,1.0,part_1,,,,,,,,,,,,,blue,square
186.0,3.0,3.0,0.0,4.0,4.0,357.2681709993048,3.0,1.0,part_1,,,,,,,,,,,,,magenta,circle
0.0,2.0,0.0,0.0,1.0,1.0,376.023027998599,3.0,1.0,part_1,,,,,,,,,,,,,gray,diamond
0.0,3.0,0.0,0.0,3.0,3.0,343.6875999977928,3.0,1.0,part_1,,,,,,,,,,,,,magenta,circle
415.0,8.0,4.0,1.0,4.0,4.0,335.9115339990239,3.0,1.0,part_1,,,,,,,,,,,,,white,I
397.0,8.0,4.0,1.0,3.0,3.0,322.9485429983469,3.0,1.0,part_1,,,,,,,,,,,,,white,I
0.0,4.0,0.0,0.0,2.0,2.0,344.5771690021502,3.0,1.0,part_1,,,,,,,,,,,,,green,flipped triangle
0.0,4.0,0.0,0.0,2.0,2.0,348.7821850030741,3.0,1.0,part_1,,,,,,,,,,,,,green,flipped triangle
0.0,2.0,0.0,0.0,4.0,4.0,326.8945589989016,3.0,1.0,part_1,,,,,,,,,,,,,gray,diamond
378.0,8.0,4.0,1.0,2.0,2.0,335.9804519968747,3.0,1.0,part_1,,,,,,,,,,,,,white,I
28.0,5.0,1.0,1.0,2.0,2.0,326.2748090019158,3.0,1.0,part_1,,,,,,,,,,,,,cyan,hexagon
65.0,1.0,1.0,0.0,3.0,3.0,303.9924490003614,3.0,1.0,part_1,,,,,,,,,,,,,blue,square
383.0,4.0,4.0,0.0,2.0,2.0,328.4143040000344,3.0,1.0,part_1,,,,,,,,,,,,,green,flipped triangle
85.0,2.0,2.0,0.0,2.0,2.0,373.5747020000417,3.0,1.0,part_1,,,,,,,,,,,,,gray,diamond
410.0,8.0,4.0,1.0,3.0,3.0,326.2094120000256,3.0,1.0,part_1,,,,,,,,,,,,,white,I
197.0,7.0,3.0,1.0,2.0,2.0,352.046274998429,3.0,1.0,part_1,,,,,,,,,,,,,orange,cross
175.0,3.0,3.0,0.0,2.0,2.0,350.4847609983699,3.0,1.0,part_1,,,,,,,,,,,,,magenta,circle
423.0,8.0,4.0,1.0,2.0,2.0,338.6219149979297,3.0,1.0,part_1,,,,,,,,,,,,,white,I
60.0,5.0,1.0,1.0,2.0,2.0,365.1176650018897,3.0,1.0,part_1,,,,,,,,,,,,,cyan,hexagon
196.0,7.0,3.0,1.0,4.0,4.0,333.1139309993887,3.0,1.0,part_1,,,,,,,,,,,,,orange,cross
414.0,8.0,4.0,1.0,1.0,1.0,532.3615340021206,3.0,2.0,part_1,,,,,,,,,,,,,white,I
0.0,8.0,0.0,1.0,1.0,1.0,455.8073900007002,3.0,1.0,part_1,,,,,,,,,,,,,white,I
415.0,8.0,4.0,1.0,3.0,3.0,354.1807719993812,3.0,1.0,part_1,,,,,,,,,,,,,white,I
69.0,1.0,1.0,0.0,2.0,2.0,492.5624610004888,3.0,1.0,part_1,,,,,,,,,,,,,blue,square
409.0,8.0,4.0,1.0,1.0,1.0,389.3272419991263,3.0,1.0,part_1,,,,,,,,,,,,,white,I
221.0,7.0,3.0,1.0,1.0,1.0,456.4229560019157,3.0,1.0,part_1,,,,,,,,,,,,,orange,cross
207.0,3.0,3.0,0.0,4.0,4.0,382.5039969997306,3.0,1.0,part_1,,,,,,,,,,,,,magenta,circle
198.0,3.0,3.0,0.0,2.0,2.0,381.3350740019814,3.0,1.0,part_1,,,,,,,,,,,,,magenta,circle
187.0,3.0,3.0,0.0,4.0,4.0,327.8791769989766,3.0,1.0,part_1,,,,,,,,,,,,,magenta,circle
386.0,4.0,4.0,0.0,4.0,4.0,413.7164370004029,3.0,1.0,part_1,,,,,,,,,,,,,green,flipped triangle
178.0,3.0,3.0,0.0,1.0,1.0,380.677787001332,3.0,1.0,part_1,,,,,,,,,,,,,magenta,circle
43.0,5.0,1.0,1.0,4.0,4.0,339.7159259984619,3.0,1.0,part_1,,,,,,,,,,,,,cyan,hexagon
0.0,6.0,0.0,1.0,2.0,2.0,385.1027080017957,3.0,1.0,part_1,,,,,,,,,,,,,yellow,triangle
85.0,6.0,2.0,1.0,1.0,1.0,372.3147780001454,3.0,1.0,part_1,,,,,,,,,,,,,yellow,triangle
176.0,3.0,3.0,0.0,4.0,4.0,411.0670539994316,4.0,1.0,part_1,,,,,,,,,,,,,magenta,circle
383.0,4.0,4.0,0.0,3.0,3.0,389.6262119997118,4.0,1.0,part_1,,,,,,,,,,,,,green,flipped triangle
207.0,7.0,3.0,1.0,3.0,3.0,388.8141450006515,4.0,1.0,part_1,,,,,,,,,,,,,orange,cross
0.0,3.0,0.0,0.0,4.0,4.0,334.6724629991513,4.0,1.0,part_1,,,,,,,,,,,,,magenta,circle
83.0,2.0,2.0,0.0,2.0,2.0,458.5801229986828,4.0,1.0,part_1,,,,,,,,,,,,,gray,diamond
94.0,6.0,2.0,1.0,4.0,4.0,335.2397779999592,4.0,1.0,part_1,,,,,,,,,,,,,yellow,triangle
122.0,2.0,2.0,0.0,4.0,4.0,367.5331049998931,4.0,1.0,part_1,,,,,,,,,,,,,gray,diamond
94.0,2.0,2.0,0.0,1.0,1.0,347.927716000413,4.0,1.0,part_1,,,,,,,,,,,,,gray,diamond
103.0,2.0,2.0,0.0,4.0,4.0,348.6398489985731,4.0,1.0,part_1,,,,,,,,,,,,,gray,diamond
0.0,6.0,0.0,1.0,3.0,3.0,322.9536389990244,4.0,1.0,part_1,,,,,,,,,,,,,yellow,triangle
102.0,2.0,2.0,0.0,1.0,1.0,426.3166919990908,4.0,1.0,part_1,,,,,,,,,,,,,gray,diamond
384.0,4.0,4.0,0.0,3.0,3.0,315.3134239983046,4.0,1.0,part_1,,,,,,,,,,,,,green,flipped triangle
389.0,4.0,4.0,0.0,4.0,4.0,329.2365630004497,4.0,1.0,part_1,,,,,,,,,,,,,green,flipped triangle
0.0,8.0,0.0,1.0,3.0,3.0,341.1022609980136,4.0,1.0,part_1,,,,,,,,,,,,,white,I
30.0,1.0,1.0,0.0,4.0,4.0,359.5232779989601,4.0,1.0,part_1,,,,,,,,,,,,,blue,square
102.0,2.0,2.0,0.0,3.0,3.0,371.8590969983779,4.0,1.0,part_1,,,,,,,,,,,,,gray,diamond
115.0,6.0,2.0,1.0,2.0,2.0,395.5284149997169,4.0,1.0,part_1,,,,,,,,,,,,,yellow,triangle
37.0,5.0,1.0,1.0,1.0,1.0,405.6080520022078,4.0,1.0,part_1,,,,,,,,,,,,,cyan,hexagon
29.0,5.0,1.0,1.0,4.0,4.0,339.18475199971,4.0,1.0,part_1,,,,,,,,,,,,,cyan,hexagon
0.0,4.0,0.0,0.0,2.0,2.0,466.43887399841327,4.0,1.0,part_1,,,,,,,,,,,,,green,flipped triangle
211.0,7.0,3.0,1.0,3.0,3.0,318.1029660008789,4.0,1.0,part_1,,,,,,,,,,,,,orange,cross
0.0,5.0,0.0,1.0,3.0,3.0,378.0383270022867,4.0,1.0,part_1,,,,,,,,,,,,,cyan,hexagon
422.0,8.0,4.0,1.0,2.0,2.0,377.0307179984229,4.0,1.0,part_1,,,,,,,,,,,,,white,I
202.0,7.0,3.0,1.0,1.0,1.0,401.8965659997775,4.0,1.0,part_1,,,,,,,,,,,,,orange,cross
387.0,4.0,4.0,0.0,2.0,2.0,380.1963950027129,4.0,1.0,part_1,,,,,,,,,,,,,green,flipped triangle
220.0,3.0,3.0,0.0,1.0,1.0,368.2370880014787,4.0,1.0,part_1,,,,,,,,,,,,,magenta,circle
64.0,5.0,1.0,1.0,3.0,3.0,336.611107999488,4.0,1.0,part_1,,,,,,,,,,,,,cyan,hexagon
220.0,7.0,3.0,1.0,4.0,4.0,334.9721710001176,4.0,1.0,part_1,,,,,,,,,,,,,orange,cross
0.0,1.0,0.0,0.0,3.0,3.0,345.3933879973192,4.0,1.0,part_1,,,,,,,,,,,,,blue,square
212.0,7.0,3.0,1.0,4.0,4.0,349.0688689998933,4.0,1.0,part_1,,,,,,,,,,,,,orange,cross
122.0,6.0,2.0,1.0,4.0,4.0,358.5839659972407,4.0,1.0,part_1,,,,,,,,,,,,,yellow,triangle
0.0,1.0,0.0,0.0,3.0,3.0,348.6081600021862,4.0,1.0,part_1,,,,,,,,,,,,,blue,square
0.0,5.0,0.0,1.0,3.0,3.0,384.6470420030528,4.0,1.0,part_1,,,,,,,,,,,,,cyan,hexagon
53.0,5.0,1.0,1.0,4.0,4.0,340.4250009989482,4.0,1.0,part_1,,,,,,,,,,,,,cyan,hexagon
93.0,6.0,2.0,1.0,2.0,2.0,352.1122860001924,4.0,1.0,part_1,,,,,,,,,,,,,yellow,triangle
381.0,8.0,4.0,1.0,1.0,1.0,394.9243550014216,4.0,1.0,part_1,,,,,,,,,,,,,white,I
37.0,5.0,1.0,1.0,1.0,1.0,394.2119489984179,4.0,1.0,part_1,,,,,,,,,,,,,cyan,hexagon
95.0,2.0,2.0,0.0,3.0,3.0,328.0778940024902,4.0,1.0,part_1,,,,,,,,,,,,,gray,diamond
181.0,3.0,3.0,0.0,2.0,2.0,364.3087780001224,4.0,1.0,part_1,,,,,,,,,,,,,magenta,circle
0.0,2.0,0.0,0.0,2.0,2.0,338.9420560015423,4.0,1.0,part_1,,,,,,,,,,,,,gray,diamond
41.0,1.0,1.0,0.0,2.0,2.0,452.6781709973875,4.0,1.0,part_1,,,,,,,,,,,,,blue,square
0.0,7.0,0.0,1.0,2.0,2.0,389.1999400002532,4.0,1.0,part_1,,,,,,,,,,,,,orange,cross
41.0,1.0,1.0,0.0,4.0,4.0,332.1946900032344,4.0,1.0,part_1,,,,,,,,,,,,,blue,square
117.0,2.0,2.0,0.0,4.0,4.0,310.8005169997341,4.0,1.0,part_1,,,,,,,,,,,,,gray,diamond
393.0,4.0,4.0,0.0,3.0,3.0,352.0747920010763,4.0,1.0,part_1,,,,,,,,,,,,,green,flipped triangle
110.0,6.0,2.0,1.0,2.0,2.0,430.3391260000353,4.0,1.0,part_1,,,,,,,,,,,,,yellow,triangle
40.0,5.0,1.0,1.0,2.0,2.0,386.0596599988639,4.0,1.0,part_1,,,,,,,,,,,,,cyan,hexagon
0.0,3.0,0.0,0.0,2.0,2.0,339.8742149984173,4.0,1.0,part_1,,,,,,,,,,,,,magenta,circle
420.0,8.0,4.0,1.0,1.0,1.0,443.027314999199,4.0,1.0,part_1,,,,,,,,,,,,,white,I
75.0,1.0,1.0,0.0,2.0,2.0,363.9710040006321,4.0,1.0,part_1,,,,,,,,,,,,,blue,square
40.0,1.0,1.0,0.0,3.0,3.0,318.6587400014105,4.0,1.0,part_1,,,,,,,,,,,,,blue,square
123.0,6.0,2.0,1.0,2.0,2.0,344.3626959997345,4.0,1.0,part_1,,,,,,,,,,,,,yellow,triangle
0.0,7.0,0.0,1.0,2.0,2.0,389.1979529980744,4.0,1.0,part_1,,,,,,,,,,,,,orange,cross
0.0,8.0,0.0,1.0,2.0,2.0,367.642209999758,4.0,1.0,part_1,,,,,,,,,,,,,white,I
180.0,3.0,3.0,0.0,3.0,3.0,354.7924769991368,4.0,1.0,part_1,,,,,,,,,,,,,magenta,circle
397.0,4.0,4.0,0.0,1.0,1.0,353.7969130011333,4.0,1.0,part_1,,,,,,,,,,,,,green,flipped triangle
191.0,3.0,3.0,0.0,1.0,1.0,448.3636590011883,4.0,1.0,part_1,,,,,,,,,,,,,magenta,circle
37.0,1.0,1.0,0.0,1.0,1.0,377.6877349991991,4.0,1.0,part_1,,,,,,,,,,,,,blue,square
220.0,3.0,3.0,0.0,4.0,4.0,389.9685659998795,4.0,1.0,part_1,,,,,,,,,,,,,magenta,circle
225.0,3.0,3.0,0.0,1.0,1.0,394.136406997859,4.0,1.0,part_1,,,,,,,,,,,,,magenta,circle
408.0,8.0,4.0,1.0,2.0,2.0,483.6954560014419,4.0,1.0,part_1,,,,,,,,,,,,,white,I
401.0,4.0,4.0,0.0,1.0,1.0,350.5379870002798,4.0,1.0,part_1,,,,,,,,,,,,,green,flipped triangle
0.0,6.0,0.0,1.0,4.0,4.0,362.8182789980201,4.0,1.0,part_1,,,,,,,,,,,,,yellow,triangle
409.0,8.0,4.0,1.0,1.0,1.0,359.6420789981494,4.0,1.0,part_1,,,,,,,,,,,,,white,I
97.0,2.0,2.0,0.0,2.0,2.0,371.5075029977015,4.0,1.0,part_1,,,,,,,,,,,,,gray,diamond
207.0,7.0,3.0,1.0,2.0,2.0,363.81557599816,4.0,1.0,part_1,,,,,,,,,,,,,orange,cross
214.0,3.0,3.0,0.0,3.0,3.0,363.249508998706,4.0,1.0,part_1,,,,,,,,,,,,,magenta,circle
77.0,2.0,2.0,0.0,4.0,4.0,349.6793180020177,4.0,1.0,part_1,,,,,,,,,,,,,gray,diamond
0.0,4.0,0.0,0.0,4.0,4.0,374.9335239990614,4.0,1.0,part_1,,,,,,,,,,,,,green,flipped triangle
0.0,4.0,0.0,0.0,1.0,1.0,362.1521870009019,4.0,1.0,part_1,,,,,,,,,,,,,green,flipped triangle
51.0,1.0,1.0,0.0,3.0,3.0,344.480845000362,4.0,1.0,part_1,,,,,,,,,,,,,blue,square
111.0,2.0,2.0,0.0,4.0,4.0,356.1541349990875,4.0,1.0,part_1,,,,,,,,,,,,,gray,diamond
0.0,2.0,0.0,0.0,2.0,2.0,331.6326950007351,4.0,1.0,part_1,,,,,,,,,,,,,gray,diamond
77.0,6.0,2.0,1.0,3.0,3.0,321.658300999843,4.0,1.0,part_1,,,,,,,,,,,,,yellow,triangle
409.0,4.0,4.0,0.0,2.0,2.0,357.2190660015621,4.0,1.0,part_1,,,,,,,,,,,,,green,flipped triangle
91.0,6.0,2.0,1.0,1.0,1.0,376.4769650006201,4.0,1.0,part_1,,,,,,,,,,,,,yellow,triangle
41.0,5.0,1.0,1.0,4.0,4.0,347.2400009995908,4.0,1.0,part_1,,,,,,,,,,,,,cyan,hexagon
205.0,3.0,3.0,0.0,3.0,3.0,348.4194189986738,4.0,1.0,part_1,,,,,,,,,,,,,magenta,circle
0.0,8.0,0.0,1.0,2.0,2.0,334.7236539993901,4.0,1.0,part_1,,,,,,,,,,,,,white,I
415.0,4.0,4.0,0.0,1.0,1.0,392.667566997261,4.0,1.0,part_1,,,,,,,,,,,,,green,flipped triangle
407.0,8.0,4.0,1.0,2.0,2.0,360.0583320003352,4.0,1.0,part_1,,,,,,,,,,,,,white,I
66.0,5.0,1.0,1.0,4.0,4.0,302.557399001671,4.0,1.0,part_1,,,,,,,,,,,,,cyan,hexagon
415.0,4.0,4.0,0.0,4.0,4.0,323.9105180000479,4.0,1.0,part_1,,,,,,,,,,,,,green,flipped triangle
179.0,7.0,3.0,1.0,4.0,4.0,327.8714699990814,4.0,1.0,part_1,,,,,,,,,,,,,orange,cross
51.0,1.0,1.0,0.0,2.0,2.0,359.5364639986655,4.0,1.0,part_1,,,,,,,,,,,,,blue,square
386.0,8.0,4.0,1.0,2.0,2.0,336.4907420000236,4.0,1.0,part_1,,,,,,,,,,,,,white,I
37.0,5.0,1.0,1.0,2.0,2.0,360.74815900065,4.0,1.0,part_1,,,,,,,,,,,,,cyan,hexagon
0.0,7.0,0.0,1.0,2.0,2.0,330.6752530006633,4.0,1.0,part_1,,,,,,,,,,,,,orange,cross
0.0,8.0,0.0,1.0,2.0,2.0,331.1566880001919,4.0,1.0,part_1,,,,,,,,,,,,,white,I
389.0,8.0,4.0,1.0,2.0,2.0,329.5937980001326,4.0,1.0,part_1,,,,,,,,,,,,,white,I
0.0,7.0,0.0,1.0,3.0,3.0,340.8105689995864,4.0,1.0,part_1,,,,,,,,,,,,,orange,cross
396.0,8.0,4.0,1.0,1.0,1.0,422.480909001024,4.0,1.0,part_1,,,,,,,,,,,,,white,I
125.0,6.0,2.0,1.0,4.0,4.0,356.55583599873347,4.0,1.0,part_1,,,,,,,,,,,,,yellow,triangle
187.0,7.0,3.0,1.0,2.0,2.0,308.9264829977765,4.0,1.0,part_1,,,,,,,,,,,,,orange,cross
225.0,3.0,3.0,0.0,1.0,1.0,399.9077640000905,4.0,1.0,part_1,,,,,,,,,,,,,magenta,circle
79.0,6.0,2.0,1.0,2.0,2.0,356.0716120009601,4.0,1.0,part_1,,,,,,,,,,,,,yellow,triangle
81.0,6.0,2.0,1.0,3.0,3.0,333.8172399999166,4.0,1.0,part_1,,,,,,,,,,,,,yellow,triangle
0.0,7.0,0.0,1.0,1.0,1.0,401.0072339988255,4.0,1.0,part_1,,,,,,,,,,,,,orange,cross
125.0,2.0,2.0,0.0,2.0,2.0,366.973787000461,4.0,1.0,part_1,,,,,,,,,,,,,gray,diamond
43.0,1.0,1.0,0.0,1.0,1.0,371.7505370004801,4.0,1.0,part_1,,,,,,,,,,,,,blue,square
0.0,3.0,3.0,0.0,5.0,5.0,683.3777959982399,1.0,0.0,part_2,go,250.0,250.0,1.0,,,,,,,,,magenta,circle
0.0,8.0,4.0,1.0,5.0,0.0,0.0,1.0,0.0,part_2,stop,250.0,250.0,4.0,,,,,,,,,white,I
0.0,3.0,3.0,0.0,5.0,5.0,425.6866100004117,1.0,0.0,part_2,go,300.0,250.0,1.0,,,,,,,,,magenta,circle
0.0,5.0,1.0,1.0,6.0,6.0,505.4367610027839,1.0,0.0,part_2,stop,300.0,250.0,3.0,,,,,,,,,cyan,hexagon
0.0,6.0,2.0,1.0,6.0,0.0,0.0,1.0,0.0,part_2,stop,300.0,200.0,4.0,,,,,,,,,yellow,triangle
0.0,4.0,4.0,0.0,6.0,6.0,649.9237200005155,1.0,0.0,part_2,go,300.0,250.0,1.0,,,,,,,,,green,flipped triangle
0.0,6.0,2.0,1.0,5.0,5.0,504.3812119984068,1.0,0.0,part_2,stop,300.0,250.0,3.0,,,,,,,,,yellow,triangle
0.0,7.0,3.0,1.0,6.0,6.0,464.9461740009428,1.0,0.0,part_2,go,250.0,250.0,1.0,,,,,,,,,orange,cross
0.0,8.0,4.0,1.0,5.0,0.0,0.0,1.0,0.0,part_2,stop,250.0,250.0,4.0,,,,,,,,,white,I
0.0,7.0,3.0,1.0,5.0,5.0,732.0199370005867,1.0,0.0,part_2,go,300.0,250.0,1.0,,,,,,,,,orange,cross
0.0,6.0,2.0,1.0,5.0,5.0,744.3270100011432,1.0,0.0,part_2,go,300.0,250.0,1.0,,,,,,,,,yellow,triangle
0.0,7.0,3.0,1.0,5.0,5.0,389.7899549992871,1.0,0.0,part_2,stop,300.0,250.0,3.0,,,,,,,,,orange,cross
0.0,4.0,4.0,0.0,6.0,6.0,746.9742199973552,1.0,0.0,part_2,go,250.0,250.0,1.0,,,,,,,,,green,flipped triangle
0.0,1.0,1.0,0.0,6.0,6.0,522.4217420000059,1.0,0.0,part_2,go,250.0,250.0,1.0,,,,,,,,,blue,square
0.0,3.0,3.0,0.0,5.0,5.0,882.8038689971436,1.0,0.0,part_2,go,250.0,250.0,1.0,,,,,,,,,magenta,circle
0.0,6.0,2.0,1.0,6.0,0.0,0.0,1.0,0.0,part_2,stop,250.0,250.0,4.0,,,,,,,,,yellow,triangle
0.0,8.0,4.0,1.0,6.0,0.0,0.0,1.0,0.0,part_2,stop,250.0,300.0,4.0,,,,,,,,,white,I
0.0,6.0,2.0,1.0,6.0,0.0,0.0,1.0,0.0,part_2,stop,250.0,350.0,4.0,,,,,,,,,yellow,triangle
0.0,4.0,4.0,0.0,6.0,6.0,662.291873999493,1.0,0.0,part_2,go,250.0,400.0,1.0,,,,,,,,,green,flipped triangle
0.0,2.0,2.0,0.0,5.0,5.0,790.0389550013642,1.0,0.0,part_2,go,250.0,400.0,1.0,,,,,,,,,gray,diamond
0.0,4.0,4.0,0.0,6.0,6.0,586.1222659987106,1.0,0.0,part_2,go,250.0,400.0,1.0,,,,,,,,,green,flipped triangle
0.0,2.0,2.0,0.0,6.0,6.0,338.0135289989994,1.0,0.0,part_2,go,250.0,400.0,1.0,,,,,,,,,gray,diamond
0.0,3.0,3.0,0.0,5.0,5.0,632.5709980010288,1.0,0.0,part_2,go,250.0,400.0,1.0,,,,,,,,,magenta,circle
0.0,2.0,2.0,0.0,6.0,6.0,465.55229599835,1.0,0.0,part_2,go,250.0,400.0,1.0,,,,,,,,,gray,diamond
0.0,2.0,2.0,0.0,5.0,5.0,622.0608440016804,1.0,0.0,part_2,go,250.0,400.0,1.0,,,,,,,,,gray,diamond
0.0,8.0,4.0,1.0,5.0,5.0,376.7454499975429,1.0,0.0,part_2,stop,250.0,400.0,3.0,,,,,,,,,white,I
0.0,6.0,2.0,1.0,6.0,0.0,0.0,1.0,0.0,part_2,stop,200.0,400.0,4.0,,,,,,,,,yellow,triangle
0.0,7.0,3.0,1.0,5.0,5.0,816.487092000898,1.0,0.0,part_2,go,200.0,450.0,1.0,,,,,,,,,orange,cross
0.0,1.0,1.0,0.0,5.0,5.0,436.2887940005748,1.0,0.0,part_2,go,200.0,450.0,1.0,,,,,,,,,blue,square
0.0,3.0,3.0,0.0,5.0,5.0,323.4967730022617,1.0,0.0,part_2,go,200.0,450.0,1.0,,,,,,,,,magenta,circle
0.0,3.0,3.0,0.0,6.0,6.0,425.8960839979409,1.0,0.0,part_2,go,200.0,450.0,1.0,,,,,,,,,magenta,circle
0.0,5.0,1.0,1.0,6.0,6.0,474.6321369966608,1.0,0.0,part_2,stop,200.0,450.0,3.0,,,,,,,,,cyan,hexagon
0.0,1.0,1.0,0.0,5.0,5.0,887.8202779997082,1.0,0.0,part_2,go,200.0,400.0,1.0,,,,,,,,,blue,square
0.0,8.0,4.0,1.0,5.0,5.0,845.4572580012609,1.0,0.0,part_2,go,200.0,400.0,1.0,,,,,,,,,white,I
0.0,5.0,1.0,1.0,5.0,0.0,0.0,1.0,0.0,part_2,stop,200.0,400.0,4.0,,,,,,,,,cyan,hexagon
0.0,7.0,3.0,1.0,5.0,0.0,0.0,1.0,0.0,part_2,stop,250.0,400.0,4.0,,,,,,,,,orange,cross
0.0,5.0,1.0,1.0,6.0,0.0,0.0,2.0,0.0,part_2,stop,300.0,400.0,4.0,,,,,,,,,cyan,hexagon
0.0,4.0,4.0,0.0,6.0,6.0,1116.4088059995263,2.0,0.0,part_2,go,300.0,450.0,1.0,,,,,,,,,green,flipped triangle
0.0,4.0,4.0,0.0,5.0,5.0,506.91342600111966,2.0,0.0,part_2,go,300.0,450.0,1.0,,,,,,,,,green,flipped triangle
0.0,4.0,4.0,0.0,6.0,6.0,406.5621919980913,2.0,0.0,part_2,go,300.0,450.0,1.0,,,,,,,,,green,flipped triangle
0.0,1.0,1.0,0.0,5.0,5.0,319.5079379984236,2.0,0.0,part_2,go,300.0,450.0,1.0,,,,,,,,,blue,square
0.0,7.0,3.0,1.0,5.0,5.0,611.8079090010724,2.0,0.0,part_2,go,300.0,450.0,1.0,,,,,,,,,orange,cross
0.0,6.0,2.0,1.0,5.0,5.0,453.7222449980618,2.0,0.0,part_2,stop,300.0,450.0,3.0,,,,,,,,,yellow,triangle
0.0,7.0,3.0,1.0,6.0,0.0,0.0,2.0,0.0,part_2,stop,250.0,450.0,4.0,,,,,,,,,orange,cross
0.0,7.0,3.0,1.0,6.0,0.0,0.0,2.0,0.0,part_2,stop,250.0,500.0,4.0,,,,,,,,,orange,cross
0.0,1.0,1.0,0.0,6.0,6.0,536.4260280002782,2.0,0.0,part_2,go,250.0,550.0,1.0,,,,,,,,,blue,square
0.0,3.0,3.0,0.0,5.0,5.0,636.7512670003634,2.0,0.0,part_2,go,250.0,550.0,1.0,,,,,,,,,magenta,circle
0.0,2.0,2.0,0.0,6.0,6.0,382.131083002605,2.0,0.0,part_2,go,250.0,550.0,1.0,,,,,,,,,gray,diamond
0.0,7.0,3.0,1.0,5.0,5.0,395.3854940009478,2.0,0.0,part_2,stop,250.0,550.0,3.0,,,,,,,,,orange,cross
0.0,8.0,4.0,1.0,6.0,6.0,685.6643840001198,2.0,0.0,part_2,go,200.0,550.0,1.0,,,,,,,,,white,I
0.0,2.0,2.0,0.0,5.0,5.0,518.9898759999778,2.0,0.0,part_2,go,200.0,550.0,1.0,,,,,,,,,gray,diamond
0.0,5.0,1.0,1.0,5.0,0.0,0.0,2.0,0.0,part_2,stop,200.0,550.0,4.0,,,,,,,,,cyan,hexagon
0.0,4.0,4.0,0.0,5.0,5.0,824.2284370026027,2.0,0.0,part_2,go,250.0,550.0,1.0,,,,,,,,,green,flipped triangle
0.0,2.0,2.0,0.0,6.0,6.0,669.1629250017286,2.0,0.0,part_2,go,250.0,550.0,1.0,,,,,,,,,gray,diamond
0.0,7.0,3.0,1.0,6.0,6.0,689.6474370005308,2.0,0.0,part_2,go,250.0,550.0,1.0,,,,,,,,,orange,cross
0.0,3.0,3.0,0.0,6.0,6.0,735.5006680008955,2.0,0.0,part_2,go,250.0,550.0,1.0,,,,,,,,,magenta,circle
0.0,3.0,3.0,0.0,5.0,5.0,669.1825349989813,2.0,0.0,part_2,go,250.0,550.0,1.0,,,,,,,,,magenta,circle
0.0,4.0,4.0,0.0,6.0,6.0,354.7931749999407,2.0,0.0,part_2,go,250.0,550.0,1.0,,,,,,,,,green,flipped triangle
0.0,1.0,1.0,0.0,5.0,5.0,503.92492999890237,2.0,0.0,part_2,go,250.0,550.0,1.0,,,,,,,,,blue,square
0.0,6.0,2.0,1.0,6.0,6.0,436.5542359992105,2.0,0.0,part_2,go,250.0,550.0,1.0,,,,,,,,,yellow,triangle
0.0,8.0,4.0,1.0,6.0,6.0,494.8642140006996,2.0,0.0,part_2,go,250.0,550.0,1.0,,,,,,,,,white,I
0.0,7.0,3.0,1.0,6.0,6.0,349.2084930003329,2.0,0.0,part_2,stop,250.0,550.0,3.0,,,,,,,,,orange,cross
0.0,1.0,1.0,0.0,6.0,6.0,708.8932920014486,2.0,0.0,part_2,go,250.0,500.0,1.0,,,,,,,,,blue,square
0.0,6.0,2.0,1.0,6.0,0.0,0.0,2.0,0.0,part_2,stop,250.0,500.0,4.0,,,,,,,,,yellow,triangle
0.0,8.0,4.0,1.0,6.0,6.0,731.1500220021117,2.0,0.0,part_2,go,250.0,550.0,1.0,,,,,,,,,white,I
0.0,1.0,1.0,0.0,6.0,6.0,686.6148209992389,2.0,0.0,part_2,go,250.0,550.0,1.0,,,,,,,,,blue,square
0.0,7.0,3.0,1.0,6.0,0.0,0.0,2.0,0.0,part_2,stop,250.0,550.0,4.0,,,,,,,,,orange,cross
0.0,2.0,2.0,0.0,5.0,5.0,779.4417650002288,2.0,0.0,part_2,go,250.0,600.0,1.0,,,,,,,,,gray,diamond
0.0,4.0,4.0,0.0,5.0,5.0,332.2080329999153,2.0,0.0,part_2,go,250.0,600.0,1.0,,,,,,,,,green,flipped triangle
0.0,5.0,1.0,1.0,6.0,6.0,544.5526919975237,2.0,0.0,part_2,go,250.0,600.0,1.0,,,,,,,,,cyan,hexagon
0.0,2.0,2.0,0.0,5.0,5.0,683.7919039971894,2.0,0.0,part_2,go,250.0,600.0,1.0,,,,,,,,,gray,diamond
0.0,3.0,3.0,0.0,5.0,5.0,635.865886000829,2.0,0.0,part_2,go,250.0,600.0,1.0,,,,,,,,,magenta,circle
0.0,5.0,1.0,1.0,6.0,6.0,585.5851300002541,3.0,0.0,part_2,stop,250.0,600.0,3.0,,,,,,,,,cyan,hexagon
0.0,1.0,1.0,0.0,6.0,6.0,808.209603997966,3.0,0.0,part_2,go,250.0,550.0,1.0,,,,,,,,,blue,square
0.0,1.0,1.0,0.0,5.0,5.0,755.2275039997767,3.0,0.0,part_2,go,250.0,550.0,1.0,,,,,,,,,blue,square
0.0,4.0,4.0,0.0,5.0,5.0,621.0945139973774,3.0,0.0,part_2,go,250.0,550.0,1.0,,,,,,,,,green,flipped triangle
0.0,6.0,2.0,1.0,5.0,0.0,0.0,3.0,0.0,part_2,stop,250.0,550.0,4.0,,,,,,,,,yellow,triangle
0.0,1.0,1.0,0.0,5.0,5.0,511.48077999823727,3.0,0.0,part_2,go,300.0,550.0,1.0,,,,,,,,,blue,square
0.0,6.0,2.0,1.0,5.0,0.0,0.0,3.0,0.0,part_2,stop,300.0,550.0,4.0,,,,,,,,,yellow,triangle
0.0,8.0,4.0,1.0,6.0,6.0,543.8939100022253,3.0,0.0,part_2,stop,350.0,550.0,3.0,,,,,,,,,white,I
0.0,5.0,1.0,1.0,5.0,0.0,0.0,3.0,0.0,part_2,stop,350.0,500.0,4.0,,,,,,,,,cyan,hexagon
0.0,3.0,3.0,0.0,5.0,5.0,715.6703069995274,3.0,0.0,part_2,go,400.0,500.0,1.0,,,,,,,,,magenta,circle
0.0,2.0,2.0,0.0,5.0,5.0,814.9414279978373,3.0,0.0,part_2,go,400.0,500.0,1.0,,,,,,,,,gray,diamond
0.0,3.0,3.0,0.0,5.0,5.0,795.3829489997588,3.0,0.0,part_2,go,400.0,500.0,1.0,,,,,,,,,magenta,circle
0.0,4.0,4.0,0.0,5.0,5.0,921.8914209996,3.0,0.0,part_2,go,400.0,500.0,1.0,,,,,,,,,green,flipped triangle
0.0,5.0,1.0,1.0,6.0,0.0,0.0,3.0,0.0,part_2,stop,400.0,500.0,4.0,,,,,,,,,cyan,hexagon
0.0,5.0,1.0,1.0,6.0,0.0,0.0,3.0,0.0,part_2,stop,400.0,550.0,4.0,,,,,,,,,cyan,hexagon
0.0,3.0,3.0,0.0,6.0,6.0,698.4917990012036,3.0,0.0,part_2,go,400.0,600.0,1.0,,,,,,,,,magenta,circle
0.0,1.0,1.0,0.0,6.0,6.0,329.3901280012505,3.0,0.0,part_2,go,400.0,600.0,1.0,,,,,,,,,blue,square
0.0,6.0,2.0,1.0,6.0,0.0,0.0,3.0,0.0,part_2,stop,400.0,600.0,4.0,,,,,,,,,yellow,triangle
0.0,3.0,3.0,0.0,5.0,5.0,900.7948389989906,3.0,0.0,part_2,go,400.0,650.0,1.0,,,,,,,,,magenta,circle
0.0,3.0,3.0,0.0,5.0,5.0,870.6813150020025,3.0,0.0,part_2,go,400.0,650.0,1.0,,,,,,,,,magenta,circle
0.0,4.0,4.0,0.0,5.0,5.0,834.7647720001987,3.0,0.0,part_2,go,400.0,650.0,1.0,,,,,,,,,green,flipped triangle
0.0,4.0,4.0,0.0,5.0,5.0,603.5281449985632,3.0,0.0,part_2,go,400.0,650.0,1.0,,,,,,,,,green,flipped triangle
0.0,6.0,2.0,1.0,6.0,6.0,478.0953709996538,3.0,0.0,part_2,stop,400.0,650.0,3.0,,,,,,,,,yellow,triangle
0.0,7.0,3.0,1.0,6.0,0.0,0.0,3.0,0.0,part_2,stop,400.0,600.0,4.0,,,,,,,,,orange,cross
0.0,5.0,1.0,1.0,5.0,5.0,883.5666249979113,3.0,0.0,part_2,go,400.0,650.0,1.0,,,,,,,,,cyan,hexagon
0.0,8.0,4.0,1.0,6.0,6.0,729.6960269995907,3.0,0.0,part_2,stop,400.0,650.0,3.0,,,,,,,,,white,I
0.0,2.0,2.0,0.0,5.0,5.0,863.8941110002634,3.0,0.0,part_2,go,400.0,600.0,1.0,,,,,,,,,gray,diamond
0.0,7.0,3.0,1.0,5.0,0.0,0.0,3.0,0.0,part_2,stop,400.0,600.0,4.0,,,,,,,,,orange,cross
0.0,2.0,2.0,0.0,6.0,6.0,821.9022039993433,3.0,0.0,part_2,go,450.0,600.0,1.0,,,,,,,,,gray,diamond
0.0,3.0,3.0,0.0,5.0,5.0,774.2797209975834,3.0,0.0,part_2,go,450.0,600.0,1.0,,,,,,,,,magenta,circle
0.0,3.0,3.0,0.0,6.0,6.0,408.5262160006095,3.0,0.0,part_2,go,450.0,600.0,1.0,,,,,,,,,magenta,circle
0.0,4.0,4.0,0.0,5.0,5.0,676.1953720015299,3.0,0.0,part_2,go,450.0,600.0,1.0,,,,,,,,,green,flipped triangle
0.0,7.0,3.0,1.0,5.0,0.0,0.0,3.0,0.0,part_2,stop,450.0,600.0,4.0,,,,,,,,,orange,cross
0.0,3.0,3.0,0.0,6.0,6.0,778.8396340001782,3.0,0.0,part_2,go,500.0,600.0,1.0,,,,,,,,,magenta,circle
0.0,3.0,3.0,0.0,6.0,6.0,678.3019810027326,3.0,0.0,part_2,go,500.0,600.0,1.0,,,,,,,,,magenta,circle
0.0,6.0,2.0,1.0,6.0,6.0,783.4569029982958,3.0,0.0,part_2,go,500.0,600.0,1.0,,,,,,,,,yellow,triangle
0.0,1.0,1.0,0.0,5.0,5.0,515.3747970034601,4.0,0.0,part_2,go,500.0,600.0,1.0,,,,,,,,,blue,square
0.0,7.0,3.0,1.0,5.0,5.0,439.5863880017714,4.0,0.0,part_2,stop,500.0,600.0,3.0,,,,,,,,,orange,cross
0.0,6.0,2.0,1.0,6.0,6.0,528.6801910006034,4.0,0.0,part_2,stop,450.0,600.0,3.0,,,,,,,,,yellow,triangle
0.0,4.0,4.0,0.0,5.0,5.0,758.4169680012565,4.0,0.0,part_2,go,450.0,550.0,1.0,,,,,,,,,green,flipped triangle
0.0,3.0,3.0,0.0,6.0,6.0,498.4243680009967,4.0,0.0,part_2,go,450.0,550.0,1.0,,,,,,,,,magenta,circle
0.0,5.0,1.0,1.0,5.0,0.0,0.0,4.0,0.0,part_2,stop,450.0,550.0,4.0,,,,,,,,,cyan,hexagon
0.0,8.0,4.0,1.0,6.0,6.0,444.543440000416,4.0,0.0,part_2,stop,500.0,550.0,3.0,,,,,,,,,white,I
0.0,2.0,2.0,0.0,6.0,6.0,332.0060799997009,4.0,0.0,part_2,go,500.0,500.0,1.0,,,,,,,,,gray,diamond
0.0,1.0,1.0,0.0,5.0,5.0,366.0661430003529,4.0,0.0,part_2,go,500.0,500.0,1.0,,,,,,,,,blue,square
0.0,6.0,2.0,1.0,5.0,5.0,343.6817660003726,4.0,0.0,part_2,go,500.0,500.0,1.0,,,,,,,,,yellow,triangle
0.0,3.0,3.0,0.0,6.0,6.0,502.9089510026097,4.0,0.0,part_2,go,500.0,500.0,1.0,,,,,,,,,magenta,circle
0.0,2.0,2.0,0.0,6.0,6.0,355.4698449988791,4.0,0.0,part_2,go,500.0,500.0,1.0,,,,,,,,,gray,diamond
0.0,5.0,1.0,1.0,6.0,6.0,470.5623879999621,4.0,0.0,part_2,go,500.0,500.0,1.0,,,,,,,,,cyan,hexagon
0.0,4.0,4.0,0.0,5.0,5.0,346.6312500022468,4.0,0.0,part_2,go,500.0,500.0,1.0,,,,,,,,,green,flipped triangle
0.0,7.0,3.0,1.0,6.0,6.0,482.2321749998082,4.0,0.0,part_2,stop,500.0,500.0,3.0,,,,,,,,,orange,cross
0.0,6.0,2.0,1.0,5.0,0.0,0.0,4.0,0.0,part_2,stop,500.0,450.0,4.0,,,,,,,,,yellow,triangle
0.0,4.0,4.0,0.0,5.0,5.0,652.6042400000733,4.0,0.0,part_2,go,550.0,450.0,1.0,,,,,,,,,green,flipped triangle
0.0,1.0,1.0,0.0,5.0,5.0,305.910525003128,4.0,0.0,part_2,go,550.0,450.0,1.0,,,,,,,,,blue,square
0.0,1.0,1.0,0.0,6.0,6.0,305.7583769987104,4.0,0.0,part_2,go,550.0,450.0,1.0,,,,,,,,,blue,square
0.0,7.0,3.0,1.0,5.0,5.0,299.1889999975683,4.0,0.0,part_2,stop,550.0,450.0,3.0,,,,,,,,,orange,cross
0.0,3.0,3.0,0.0,6.0,6.0,636.0497099994973,4.0,0.0,part_2,go,500.0,450.0,1.0,,,,,,,,,magenta,circle
0.0,3.0,3.0,0.0,5.0,5.0,322.4010749981971,4.0,0.0,part_2,go,500.0,450.0,1.0,,,,,,,,,magenta,circle
0.0,6.0,2.0,1.0,5.0,5.0,309.8388739999791,4.0,0.0,part_2,stop,500.0,450.0,3.0,,,,,,,,,yellow,triangle
0.0,3.0,3.0,0.0,5.0,5.0,805.8388950012159,4.0,0.0,part_2,go,450.0,450.0,1.0,,,,,,,,,magenta,circle
0.0,7.0,3.0,1.0,5.0,5.0,707.935369999177,4.0,0.0,part_2,go,450.0,450.0,1.0,,,,,,,,,orange,cross
0.0,8.0,4.0,1.0,6.0,6.0,380.3292289994715,4.0,0.0,part_2,stop,450.0,450.0,3.0,,,,,,,,,white,I
0.0,7.0,3.0,1.0,6.0,0.0,0.0,4.0,0.0,part_2,stop,450.0,400.0,4.0,,,,,,,,,orange,cross
0.0,7.0,3.0,1.0,5.0,0.0,0.0,4.0,0.0,part_2,stop,450.0,450.0,4.0,,,,,,,,,orange,cross
0.0,6.0,2.0,1.0,6.0,6.0,633.1357029994251,4.0,0.0,part_2,go,500.0,450.0,1.0,,,,,,,,,yellow,triangle
0.0,7.0,3.0,1.0,6.0,6.0,438.5487719991943,4.0,0.0,part_2,stop,500.0,450.0,3.0,,,,,,,,,orange,cross
0.0,5.0,1.0,1.0,5.0,0.0,0.0,4.0,0.0,part_2,stop,500.0,400.0,4.0,,,,,,,,,cyan,hexagon
0.0,2.0,2.0,0.0,5.0,5.0,756.5253709981334,4.0,0.0,part_2,go,550.0,400.0,1.0,,,,,,,,,gray,diamond
0.0,7.0,3.0,1.0,6.0,0.0,0.0,4.0,0.0,part_2,stop,550.0,400.0,4.0,,,,,,,,,orange,cross
0.0,6.0,2.0,1.0,6.0,6.0,376.9203340016247,4.0,0.0,part_2,stop,550.0,450.0,3.0,,,,,,,,,yellow,triangle
0.0,5.0,1.0,1.0,6.0,6.0,690.2900419991056,4.0,0.0,part_2,go,550.0,400.0,1.0,,,,,,,,,cyan,hexagon
0.0,5.0,1.0,1.0,5.0,5.0,624.4003520005208,4.0,0.0,part_2,stop,550.0,400.0,3.0,,,,,,,,,cyan,hexagon
0.0,3.0,3.0,0.0,6.0,6.0,397.0601199980592,5.0,0.0,part_2,go,500.0,400.0,1.0,,,,,,,,,magenta,circle
0.0,6.0,2.0,1.0,6.0,6.0,319.6026659970812,5.0,0.0,part_2,stop,500.0,400.0,3.0,,,,,,,,,yellow,triangle
0.0,4.0,4.0,0.0,5.0,5.0,331.5861230003065,5.0,0.0,part_2,go,500.0,350.0,1.0,,,,,,,,,green,flipped triangle
0.0,7.0,3.0,1.0,5.0,5.0,306.5687820017047,5.0,0.0,part_2,stop,500.0,350.0,3.0,,,,,,,,,orange,cross
0.0,2.0,2.0,0.0,6.0,6.0,703.1907400014461,5.0,0.0,part_2,go,450.0,350.0,1.0,,,,,,,,,gray,diamond
0.0,1.0,1.0,0.0,5.0,5.0,581.155972002307,5.0,0.0,part_2,go,450.0,350.0,1.0,,,,,,,,,blue,square
0.0,6.0,2.0,1.0,5.0,5.0,636.3941490017169,5.0,0.0,part_2,go,450.0,350.0,1.0,,,,,,,,,yellow,triangle
0.0,8.0,4.0,1.0,5.0,5.0,343.2652190022054,5.0,0.0,part_2,stop,450.0,350.0,3.0,,,,,,,,,white,I
0.0,6.0,2.0,1.0,6.0,6.0,332.7005099999951,5.0,0.0,part_2,stop,400.0,350.0,3.0,,,,,,,,,yellow,triangle
0.0,8.0,4.0,1.0,5.0,5.0,715.6785119987035,5.0,0.0,part_2,go,400.0,300.0,1.0,,,,,,,,,white,I
0.0,2.0,2.0,0.0,5.0,5.0,706.9848460014327,5.0,0.0,part_2,go,400.0,300.0,1.0,,,,,,,,,gray,diamond
0.0,7.0,3.0,1.0,6.0,0.0,0.0,5.0,0.0,part_2,stop,400.0,300.0,4.0,,,,,,,,,orange,cross
0.0,5.0,1.0,1.0,6.0,6.0,449.7916569998779,5.0,0.0,part_2,stop,400.0,350.0,3.0,,,,,,,,,cyan,hexagon
0.0,4.0,4.0,0.0,6.0,6.0,708.0176609997579,5.0,0.0,part_2,go,400.0,300.0,1.0,,,,,,,,,green,flipped triangle
0.0,1.0,1.0,0.0,5.0,5.0,643.8593029997719,5.0,0.0,part_2,go,400.0,300.0,1.0,,,,,,,,,blue,square
0.0,4.0,4.0,0.0,5.0,5.0,678.0716590001248,5.0,0.0,part_2,go,400.0,300.0,1.0,,,,,,,,,green,flipped triangle
0.0,6.0,2.0,1.0,5.0,0.0,0.0,5.0,0.0,part_2,stop,400.0,300.0,4.0,,,,,,,,,yellow,triangle
0.0,5.0,1.0,1.0,6.0,0.0,0.0,5.0,0.0,part_2,stop,450.0,300.0,4.0,,,,,,,,,cyan,hexagon
0.0,4.0,4.0,0.0,5.0,5.0,397.0911569995223,5.0,0.0,part_2,go,450.0,350.0,1.0,,,,,,,,,green,flipped triangle
0.0,8.0,4.0,1.0,6.0,6.0,318.9104160010174,5.0,0.0,part_2,stop,450.0,350.0,3.0,,,,,,,,,white,I
0.0,4.0,4.0,0.0,5.0,5.0,628.3461279999756,5.0,0.0,part_2,go,450.0,300.0,1.0,,,,,,,,,green,flipped triangle
0.0,2.0,2.0,0.0,6.0,6.0,534.7312509984476,5.0,0.0,part_2,go,450.0,300.0,1.0,,,,,,,,,gray,diamond
0.0,2.0,2.0,0.0,6.0,6.0,379.3899430020246,5.0,0.0,part_2,go,450.0,300.0,1.0,,,,,,,,,gray,diamond
0.0,4.0,4.0,0.0,6.0,6.0,326.1086230013461,5.0,0.0,part_2,go,450.0,300.0,1.0,,,,,,,,,green,flipped triangle
0.0,8.0,4.0,1.0,6.0,6.0,337.995376001345,5.0,0.0,part_2,stop,450.0,300.0,3.0,,,,,,,,,white,I
0.0,5.0,1.0,1.0,5.0,5.0,527.0677799999248,5.0,0.0,part_2,stop,450.0,250.0,3.0,,,,,,,,,cyan,hexagon
0.0,1.0,1.0,0.0,6.0,6.0,832.060005999665,5.0,0.0,part_2,go,400.0,250.0,1.0,,,,,,,,,blue,square
0.0,8.0,4.0,1.0,5.0,0.0,0.0,5.0,0.0,part_2,stop,400.0,250.0,4.0,,,,,,,,,white,I
0.0,4.0,4.0,0.0,5.0,5.0,360.835275001591,5.0,0.0,part_2,go,450.0,250.0,1.0,,,,,,,,,green,flipped triangle
0.0,2.0,2.0,0.0,6.0,6.0,340.4379590028838,5.0,0.0,part_2,go,450.0,250.0,1.0,,,,,,,,,gray,diamond
0.0,5.0,1.0,1.0,6.0,6.0,352.7542679985345,5.0,0.0,part_2,stop,450.0,250.0,3.0,,,,,,,,,cyan,hexagon
0.0,1.0,1.0,0.0,5.0,5.0,580.7707940002729,5.0,0.0,part_2,go,450.0,200.0,1.0,,,,,,,,,blue,square
0.0,8.0,4.0,1.0,5.0,0.0,0.0,5.0,0.0,part_2,stop,450.0,200.0,4.0,,,,,,,,,white,I
0.0,8.0,4.0,1.0,5.0,5.0,668.4267219970934,5.0,0.0,part_2,go,500.0,200.0,1.0,,,,,,,,,white,I
0.0,5.0,1.0,1.0,6.0,0.0,0.0,5.0,0.0,part_2,stop,500.0,200.0,4.0,,,,,,,,,cyan,hexagon
0.0,8.0,4.0,1.0,6.0,0.0,0.0,5.0,0.0,part_2,stop,500.0,250.0,4.0,,,,,,,,,white,I
0.0,2.0,2.0,0.0,5.0,5.0,360.5908550016465,6.0,0.0,part_2,go,500.0,300.0,1.0,,,,,,,,,gray,diamond
0.0,2.0,2.0,0.0,5.0,5.0,460.1683529981528,6.0,0.0,part_2,go,500.0,300.0,1.0,,,,,,,,,gray,diamond
0.0,2.0,2.0,0.0,5.0,5.0,408.0219200004649,6.0,0.0,part_2,go,500.0,300.0,1.0,,,,,,,,,gray,diamond
0.0,1.0,1.0,0.0,6.0,6.0,461.9785260001663,6.0,0.0,part_2,go,500.0,300.0,1.0,,,,,,,,,blue,square
0.0,4.0,4.0,0.0,6.0,6.0,330.6781840001349,6.0,0.0,part_2,go,500.0,300.0,1.0,,,,,,,,,green,flipped triangle
0.0,3.0,3.0,0.0,6.0,6.0,1093.631866999203,6.0,0.0,part_2,go,500.0,300.0,1.0,,,,,,,,,magenta,circle
0.0,4.0,4.0,0.0,6.0,6.0,477.9742919999989,6.0,0.0,part_2,go,500.0,300.0,1.0,,,,,,,,,green,flipped triangle
0.0,8.0,4.0,1.0,5.0,5.0,518.908703001216,6.0,0.0,part_2,stop,500.0,300.0,3.0,,,,,,,,,white,I
0.0,7.0,3.0,1.0,5.0,5.0,570.7471189998614,6.0,0.0,part_2,stop,450.0,300.0,3.0,,,,,,,,,orange,cross
0.0,1.0,1.0,0.0,5.0,5.0,661.9386989987106,6.0,0.0,part_2,go,400.0,300.0,1.0,,,,,,,,,blue,square
0.0,4.0,4.0,0.0,6.0,6.0,516.5948309986561,6.0,0.0,part_2,go,400.0,300.0,1.0,,,,,,,,,green,flipped triangle
0.0,7.0,3.0,1.0,6.0,6.0,389.1604540003754,6.0,0.0,part_2,stop,400.0,300.0,3.0,,,,,,,,,orange,cross
0.0,8.0,4.0,1.0,5.0,0.0,0.0,6.0,0.0,part_2,stop,400.0,250.0,4.0,,,,,,,,,white,I
0.0,1.0,1.0,0.0,6.0,6.0,675.189882000268,6.0,0.0,part_2,go,450.0,250.0,1.0,,,,,,,,,blue,square
0.0,1.0,1.0,0.0,6.0,6.0,606.664651997562,6.0,0.0,part_2,go,450.0,250.0,1.0,,,,,,,,,blue,square
0.0,6.0,2.0,1.0,6.0,6.0,326.908311999432,6.0,0.0,part_2,stop,450.0,250.0,3.0,,,,,,,,,yellow,triangle
0.0,8.0,4.0,1.0,6.0,6.0,325.082741001097,6.0,0.0,part_2,stop,450.0,200.0,3.0,,,,,,,,,white,I
0.0,7.0,3.0,1.0,6.0,0.0,0.0,6.0,0.0,part_2,stop,450.0,150.0,4.0,,,,,,,,,orange,cross
0.0,1.0,1.0,0.0,6.0,6.0,657.2937380005897,6.0,0.0,part_2,go,450.0,200.0,1.0,,,,,,,,,blue,square
0.0,3.0,3.0,0.0,6.0,6.0,714.4434990004811,6.0,0.0,part_2,go,450.0,200.0,1.0,,,,,,,,,magenta,circle
0.0,8.0,4.0,1.0,6.0,6.0,368.0516389977128,6.0,0.0,part_2,go,450.0,200.0,1.0,,,,,,,,,white,I
0.0,1.0,1.0,0.0,5.0,5.0,534.9603860013303,6.0,0.0,part_2,go,450.0,200.0,1.0,,,,,,,,,blue,square
0.0,5.0,1.0,1.0,5.0,5.0,298.0706569978792,6.0,0.0,part_2,stop,450.0,200.0,3.0,,,,,,,,,cyan,hexagon
0.0,5.0,1.0,1.0,5.0,5.0,580.1588860012998,6.0,0.0,part_2,go,400.0,200.0,1.0,,,,,,,,,cyan,hexagon
0.0,3.0,3.0,0.0,5.0,5.0,572.5970839994261,6.0,0.0,part_2,go,400.0,200.0,1.0,,,,,,,,,magenta,circle
0.0,2.0,2.0,0.0,6.0,6.0,547.6658520019555,6.0,0.0,part_2,go,400.0,200.0,1.0,,,,,,,,,gray,diamond
0.0,2.0,2.0,0.0,6.0,6.0,347.7984860001015,6.0,0.0,part_2,go,400.0,200.0,1.0,,,,,,,,,gray,diamond
0.0,1.0,1.0,0.0,6.0,6.0,315.8713179982442,6.0,0.0,part_2,go,400.0,200.0,1.0,,,,,,,,,blue,square
0.0,7.0,3.0,1.0,5.0,5.0,710.8905839995714,6.0,0.0,part_2,stop,400.0,200.0,3.0,,,,,,,,,orange,cross
0.0,7.0,3.0,1.0,6.0,6.0,798.6256340009277,6.0,0.0,part_2,go,350.0,200.0,1.0,,,,,,,,,orange,cross
0.0,7.0,3.0,1.0,5.0,5.0,293.3258849989215,6.0,0.0,part_2,go,350.0,200.0,1.0,,,,,,,,,orange,cross
0.0,8.0,4.0,1.0,5.0,5.0,275.3450670024904,6.0,0.0,part_2,stop,350.0,200.0,3.0,,,,,,,,,white,I
0.0,7.0,3.0,1.0,5.0,0.0,0.0,6.0,0.0,part_2,stop,300.0,200.0,4.0,,,,,,,,,orange,cross
0.0,6.0,2.0,1.0,6.0,0.0,0.0,6.0,0.0,part_2,stop,350.0,200.0,4.0,,,,,,,,,yellow,triangle
0.0,5.0,1.0,1.0,5.0,5.0,521.6712789988378,6.0,0.0,part_2,go,350.0,250.0,1.0,,,,,,,,,cyan,hexagon
0.0,8.0,4.0,1.0,5.0,0.0,0.0,6.0,0.0,part_2,stop,350.0,250.0,4.0,,,,,,,,,white,I
0.0,3.0,3.0,0.0,6.0,6.0,994.444037998619,7.0,0.0,part_2,go,400.0,250.0,1.0,,,,,,,,,magenta,circle
0.0,6.0,2.0,1.0,5.0,5.0,322.9907989989442,7.0,0.0,part_2,stop,400.0,250.0,3.0,,,,,,,,,yellow,triangle
0.0,5.0,1.0,1.0,5.0,5.0,336.3781179978105,7.0,0.0,part_2,stop,350.0,250.0,3.0,,,,,,,,,cyan,hexagon
0.0,6.0,2.0,1.0,6.0,6.0,535.9929449987249,7.0,0.0,part_2,go,300.0,250.0,1.0,,,,,,,,,yellow,triangle
0.0,5.0,1.0,1.0,6.0,6.0,336.8264359996828,7.0,0.0,part_2,stop,300.0,250.0,3.0,,,,,,,,,cyan,hexagon
0.0,1.0,1.0,0.0,6.0,6.0,481.035400996916,7.0,0.0,part_2,go,300.0,200.0,1.0,,,,,,,,,blue,square
0.0,2.0,2.0,0.0,5.0,5.0,440.6092839999473,7.0,0.0,part_2,go,300.0,200.0,1.0,,,,,,,,,gray,diamond
0.0,8.0,4.0,1.0,5.0,5.0,328.1606729979103,7.0,0.0,part_2,stop,300.0,200.0,3.0,,,,,,,,,white,I
0.0,2.0,2.0,0.0,5.0,5.0,554.7552040006849,7.0,0.0,part_2,go,250.0,200.0,1.0,,,,,,,,,gray,diamond
0.0,8.0,4.0,1.0,5.0,0.0,0.0,7.0,0.0,part_2,stop,250.0,200.0,4.0,,,,,,,,,white,I
0.0,2.0,2.0,0.0,5.0,5.0,545.0553380032943,7.0,0.0,part_2,go,300.0,200.0,1.0,,,,,,,,,gray,diamond
0.0,6.0,2.0,1.0,5.0,5.0,398.6504829990736,7.0,0.0,part_2,go,300.0,200.0,1.0,,,,,,,,,yellow,triangle
0.0,2.0,2.0,0.0,6.0,6.0,330.4508920009539,7.0,0.0,part_2,go,300.0,200.0,1.0,,,,,,,,,gray,diamond
0.0,5.0,1.0,1.0,5.0,5.0,296.5191340008459,7.0,0.0,part_2,stop,300.0,200.0,3.0,,,,,,,,,cyan,hexagon
0.0,2.0,2.0,0.0,5.0,5.0,354.4233120010176,7.0,0.0,part_2,go,250.0,200.0,1.0,,,,,,,,,gray,diamond
0.0,1.0,1.0,0.0,6.0,6.0,297.8463449981063,7.0,0.0,part_2,go,250.0,200.0,1.0,,,,,,,,,blue,square
0.0,6.0,2.0,1.0,5.0,5.0,270.6256339988613,7.0,0.0,part_2,stop,250.0,200.0,3.0,,,,,,,,,yellow,triangle
0.0,5.0,1.0,1.0,5.0,5.0,321.773806001147,7.0,0.0,part_2,stop,200.0,200.0,3.0,,,,,,,,,cyan,hexagon
0.0,3.0,3.0,0.0,6.0,6.0,348.1407950021093,7.0,0.0,part_2,go,150.0,200.0,1.0,,,,,,,,,magenta,circle
0.0,2.0,2.0,0.0,5.0,5.0,302.0962369992048,7.0,0.0,part_2,go,150.0,200.0,1.0,,,,,,,,,gray,diamond
0.0,5.0,1.0,1.0,5.0,5.0,520.6158239998331,7.0,0.0,part_2,go,150.0,200.0,1.0,,,,,,,,,cyan,hexagon
0.0,1.0,1.0,0.0,5.0,5.0,293.8568079989636,7.0,0.0,part_2,go,150.0,200.0,1.0,,,,,,,,,blue,square
0.0,6.0,2.0,1.0,5.0,5.0,327.6615159993525,7.0,0.0,part_2,stop,150.0,200.0,3.0,,,,,,,,,yellow,triangle
0.0,5.0,1.0,1.0,6.0,6.0,544.1988009988563,7.0,0.0,part_2,go,100.0,200.0,1.0,,,,,,,,,cyan,hexagon
0.0,8.0,4.0,1.0,6.0,6.0,309.8897710005985,7.0,0.0,part_2,stop,100.0,200.0,3.0,,,,,,,,,white,I
0.0,1.0,1.0,0.0,6.0,6.0,454.1700270019646,7.0,0.0,part_2,go,100.0,150.0,1.0,,,,,,,,,blue,square
0.0,3.0,3.0,0.0,6.0,6.0,329.2769079998834,7.0,0.0,part_2,go,100.0,150.0,1.0,,,,,,,,,magenta,circle
0.0,5.0,1.0,1.0,5.0,5.0,319.5177970010263,7.0,0.0,part_2,go,100.0,150.0,1.0,,,,,,,,,cyan,hexagon
0.0,2.0,2.0,0.0,6.0,6.0,311.4268880017334,7.0,0.0,part_2,go,100.0,150.0,1.0,,,,,,,,,gray,diamond
0.0,8.0,4.0,1.0,5.0,0.0,0.0,7.0,0.0,part_2,stop,100.0,150.0,4.0,,,,,,,,,white,I
0.0,6.0,2.0,1.0,5.0,5.0,447.1775390011316,7.0,0.0,part_2,go,150.0,150.0,1.0,,,,,,,,,yellow,triangle
0.0,8.0,4.0,1.0,6.0,0.0,0.0,7.0,0.0,part_2,stop,150.0,150.0,4.0,,,,,,,,,white,I
0.0,5.0,1.0,1.0,5.0,0.0,0.0,7.0,0.0,part_2,stop,150.0,200.0,4.0,,,,,,,,,cyan,hexagon
0.0,1.0,1.0,0.0,5.0,5.0,425.7547090019216,7.0,0.0,part_2,go,200.0,200.0,1.0,,,,,,,,,blue,square
0.0,7.0,3.0,1.0,6.0,0.0,0.0,7.0,0.0,part_2,stop,200.0,200.0,4.0,,,,,,,,,orange,cross
0.0,1.0,1.0,0.0,6.0,6.0,360.2230779979436,7.0,0.0,part_2,go,200.0,250.0,1.0,,,,,,,,,blue,square
0.0,8.0,4.0,1.0,6.0,6.0,558.8217670010636,8.0,0.0,part_2,stop,200.0,250.0,3.0,,,,,,,,,white,I
0.0,8.0,4.0,1.0,6.0,0.0,0.0,8.0,0.0,part_2,stop,200.0,200.0,4.0,,,,,,,,,white,I
0.0,2.0,2.0,0.0,5.0,5.0,401.9944009996834,8.0,0.0,part_2,go,200.0,250.0,1.0,,,,,,,,,gray,diamond
0.0,4.0,4.0,0.0,5.0,5.0,379.6175729985407,8.0,0.0,part_2,go,200.0,250.0,1.0,,,,,,,,,green,flipped triangle
0.0,6.0,2.0,1.0,5.0,5.0,302.514543000143,8.0,0.0,part_2,stop,200.0,250.0,3.0,,,,,,,,,yellow,triangle
0.0,8.0,4.0,1.0,6.0,6.0,351.9130060012685,8.0,0.0,part_2,go,150.0,250.0,1.0,,,,,,,,,white,I
0.0,6.0,2.0,1.0,5.0,0.0,0.0,8.0,0.0,part_2,stop,150.0,250.0,4.0,,,,,,,,,yellow,triangle
0.0,8.0,4.0,1.0,5.0,5.0,387.2464180021779,8.0,0.0,part_2,go,200.0,250.0,1.0,,,,,,,,,white,I
0.0,4.0,4.0,0.0,6.0,6.0,386.58124399808,8.0,0.0,part_2,go,200.0,250.0,1.0,,,,,,,,,green,flipped triangle
0.0,1.0,1.0,0.0,5.0,5.0,309.9551809973491,8.0,0.0,part_2,go,200.0,250.0,1.0,,,,,,,,,blue,square
0.0,6.0,2.0,1.0,5.0,5.0,318.8483249978162,8.0,0.0,part_2,stop,200.0,250.0,3.0,,,,,,,,,yellow,triangle
0.0,5.0,1.0,1.0,6.0,0.0,0.0,8.0,0.0,part_2,stop,150.0,250.0,4.0,,,,,,,,,cyan,hexagon
0.0,2.0,2.0,0.0,6.0,6.0,446.9622109972988,8.0,0.0,part_2,go,150.0,300.0,1.0,,,,,,,,,gray,diamond
0.0,2.0,2.0,0.0,6.0,6.0,433.0619409993232,8.0,0.0,part_2,go,150.0,300.0,1.0,,,,,,,,,gray,diamond
0.0,3.0,3.0,0.0,5.0,5.0,303.1429689981451,8.0,0.0,part_2,go,150.0,300.0,1.0,,,,,,,,,magenta,circle
0.0,4.0,4.0,0.0,6.0,6.0,573.2517779979389,8.0,0.0,part_2,go,150.0,300.0,1.0,,,,,,,,,green,flipped triangle
0.0,7.0,3.0,1.0,6.0,6.0,345.4839010009891,8.0,0.0,part_2,stop,150.0,300.0,3.0,,,,,,,,,orange,cross
0.0,5.0,1.0,1.0,6.0,0.0,0.0,8.0,0.0,part_2,stop,150.0,250.0,4.0,,,,,,,,,cyan,hexagon
0.0,7.0,3.0,1.0,5.0,5.0,394.3160419985361,8.0,0.0,part_2,go,150.0,300.0,1.0,,,,,,,,,orange,cross
0.0,3.0,3.0,0.0,6.0,6.0,519.4777990000148,8.0,0.0,part_2,go,150.0,300.0,1.0,,,,,,,,,magenta,circle
0.0,5.0,1.0,1.0,6.0,0.0,0.0,8.0,0.0,part_2,stop,150.0,300.0,4.0,,,,,,,,,cyan,hexagon
0.0,2.0,2.0,0.0,6.0,6.0,689.6189489998505,8.0,0.0,part_2,go,150.0,350.0,1.0,,,,,,,,,gray,diamond
0.0,3.0,3.0,0.0,6.0,6.0,451.8497529970773,8.0,0.0,part_2,go,150.0,350.0,1.0,,,,,,,,,magenta,circle
0.0,1.0,1.0,0.0,6.0,6.0,309.3146219980554,8.0,0.0,part_2,go,150.0,350.0,1.0,,,,,,,,,blue,square
0.0,4.0,4.0,0.0,5.0,5.0,355.6019679999735,8.0,0.0,part_2,go,150.0,350.0,1.0,,,,,,,,,green,flipped triangle
0.0,4.0,4.0,0.0,6.0,6.0,276.2585079981363,8.0,0.0,part_2,go,150.0,350.0,1.0,,,,,,,,,green,flipped triangle
0.0,3.0,3.0,0.0,5.0,5.0,323.9383899999666,8.0,0.0,part_2,go,150.0,350.0,1.0,,,,,,,,,magenta,circle
0.0,7.0,3.0,1.0,6.0,6.0,388.9698629973281,8.0,0.0,part_2,stop,150.0,350.0,3.0,,,,,,,,,orange,cross
0.0,3.0,3.0,0.0,6.0,6.0,390.832152999792,8.0,0.0,part_2,go,150.0,300.0,1.0,,,,,,,,,magenta,circle
0.0,4.0,4.0,0.0,6.0,6.0,312.9841410009248,8.0,0.0,part_2,go,150.0,300.0,1.0,,,,,,,,,green,flipped triangle
0.0,8.0,4.0,1.0,5.0,5.0,280.0837130016589,8.0,0.0,part_2,stop,150.0,300.0,3.0,,,,,,,,,white,I
0.0,5.0,1.0,1.0,5.0,0.0,0.0,8.0,0.0,part_2,stop,100.0,300.0,4.0,,,,,,,,,cyan,hexagon
0.0,4.0,4.0,0.0,6.0,6.0,393.9643850026186,8.0,0.0,part_2,go,150.0,300.0,1.0,,,,,,,,,green,flipped triangle
0.0,1.0,1.0,0.0,5.0,5.0,498.8370239989308,8.0,0.0,part_2,go,150.0,300.0,1.0,,,,,,,,,blue,square
0.0,6.0,2.0,1.0,6.0,6.0,331.0776350008382,8.0,0.0,part_2,stop,150.0,300.0,3.0,,,,,,,,,yellow,triangle
0.0,4.0,4.0,0.0,6.0,6.0,485.4916420008521,8.0,0.0,part_2,go,150.0,250.0,1.0,,,,,,,,,green,flipped triangle
0.0,2.0,2.0,0.0,7.0,2.0,1857.3850259999745,1.0,2.0,part_3,go,0.0,0.0,0.0,147.0,3.0,196.0,147.0,245.0,294.0,49.0,98.0,gray,diamond
0.0,7.0,3.0,1.0,7.0,4.0,2197.1212179996655,1.0,1.0,part_3,go,0.0,0.0,0.0,102.0,3.0,68.0,204.0,34.0,102.0,136.0,170.0,orange,cross
0.0,8.0,4.0,1.0,7.0,1.0,2306.373704002908,1.0,1.0,part_3,go,0.0,0.0,0.0,108.0,2.0,108.0,270.0,162.0,216.0,324.0,54.0,white,I
0.0,2.0,2.0,0.0,7.0,5.0,2972.782376997202,1.0,1.0,part_3,go,0.0,0.0,0.0,108.0,2.0,324.0,162.0,270.0,216.0,108.0,54.0,gray,diamond
0.0,2.0,2.0,0.0,7.0,3.0,2031.7268270009663,1.0,1.0,part_3,go,0.0,0.0,0.0,117.0,3.0,195.0,234.0,117.0,78.0,156.0,39.0,gray,diamond
0.0,1.0,1.0,0.0,7.0,2.0,1829.0381349979723,1.0,1.0,part_3,go,0.0,0.0,0.0,132.0,3.0,220.0,132.0,264.0,44.0,176.0,88.0,blue,square
0.0,6.0,2.0,1.0,7.0,2.0,2067.2996350003814,1.0,1.0,part_3,go,0.0,0.0,0.0,102.0,3.0,204.0,102.0,34.0,68.0,136.0,170.0,yellow,triangle
0.0,3.0,3.0,0.0,7.0,6.0,1962.925346000702,1.0,1.0,part_3,go,0.0,0.0,0.0,102.0,3.0,34.0,68.0,136.0,204.0,170.0,102.0,magenta,circle
0.0,6.0,2.0,1.0,7.0,4.0,1820.798343000206,1.0,1.0,part_3,go,0.0,0.0,0.0,34.0,1.0,102.0,68.0,136.0,34.0,170.0,204.0,yellow,triangle
0.0,8.0,4.0,1.0,7.0,2.0,1427.0156929997029,1.0,1.0,part_3,go,0.0,0.0,0.0,49.0,1.0,196.0,49.0,294.0,245.0,147.0,98.0,white,I
0.0,5.0,1.0,1.0,7.0,1.0,1901.1354570029653,1.0,1.0,part_3,go,0.0,0.0,0.0,195.0,5.0,195.0,78.0,234.0,117.0,156.0,39.0,cyan,hexagon
0.0,7.0,3.0,1.0,7.0,5.0,2319.7129880027205,1.0,1.0,part_3,go,0.0,0.0,0.0,108.0,2.0,270.0,162.0,216.0,54.0,108.0,324.0,orange,cross
0.0,3.0,3.0,0.0,7.0,6.0,1091.88757100128,1.0,1.0,part_3,go,0.0,0.0,0.0,162.0,3.0,270.0,216.0,108.0,324.0,54.0,162.0,magenta,circle
0.0,6.0,2.0,1.0,7.0,2.0,2298.2920829999784,1.0,1.0,part_3,go,0.0,0.0,0.0,220.0,5.0,44.0,220.0,88.0,264.0,176.0,132.0,yellow,triangle
0.0,3.0,3.0,0.0,7.0,4.0,1241.572372000519,1.0,1.0,part_3,go,0.0,0.0,0.0,88.0,2.0,44.0,132.0,176.0,88.0,220.0,264.0,magenta,circle
0.0,8.0,4.0,1.0,7.0,2.0,1522.5546850015237,1.0,1.0,part_3,go,0.0,0.0,0.0,88.0,2.0,176.0,88.0,264.0,220.0,132.0,44.0,white,I
0.0,1.0,1.0,0.0,7.0,4.0,1381.1371849988063,1.0,1.0,part_3,go,0.0,0.0,0.0,196.0,4.0,98.0,49.0,294.0,196.0,147.0,245.0,blue,square
0.0,8.0,4.0,1.0,7.0,1.0,1952.1317440012351,1.0,1.0,part_3,go,0.0,0.0,0.0,216.0,4.0,216.0,54.0,162.0,270.0,324.0,108.0,white,I
0.0,2.0,2.0,0.0,7.0,4.0,1192.0186810020823,1.0,1.0,part_3,go,0.0,0.0,0.0,204.0,6.0,34.0,68.0,136.0,204.0,170.0,102.0,gray,diamond
0.0,1.0,1.0,0.0,7.0,4.0,1470.5760889992234,1.0,1.0,part_3,go,0.0,0.0,0.0,195.0,5.0,39.0,78.0,156.0,195.0,234.0,117.0,blue,square
0.0,3.0,3.0,0.0,7.0,4.0,2531.2444400005916,2.0,1.0,part_3,go,0.0,0.0,0.0,204.0,6.0,136.0,68.0,102.0,204.0,34.0,170.0,magenta,circle
0.0,6.0,2.0,1.0,7.0,5.0,2991.056127997581,2.0,1.0,part_3,go,0.0,0.0,0.0,78.0,2.0,234.0,117.0,195.0,39.0,78.0,156.0,yellow,triangle
0.0,1.0,1.0,0.0,7.0,3.0,2125.6130670008133,2.0,1.0,part_3,go,0.0,0.0,0.0,147.0,3.0,294.0,245.0,147.0,98.0,196.0,49.0,blue,square
0.0,5.0,1.0,1.0,7.0,1.0,2209.8639119976724,2.0,1.0,part_3,go,0.0,0.0,0.0,170.0,5.0,170.0,136.0,204.0,68.0,102.0,34.0,cyan,hexagon
0.0,8.0,4.0,1.0,7.0,5.0,1365.4064399997878,2.0,1.0,part_3,go,0.0,0.0,0.0,176.0,4.0,264.0,44.0,88.0,220.0,176.0,132.0,white,I
0.0,7.0,3.0,1.0,7.0,4.0,1906.9179250000159,2.0,1.0,part_3,go,0.0,0.0,0.0,54.0,1.0,324.0,216.0,162.0,54.0,108.0,270.0,orange,cross
0.0,3.0,3.0,0.0,7.0,2.0,2040.5989139981102,2.0,1.0,part_3,go,0.0,0.0,0.0,54.0,1.0,108.0,54.0,216.0,162.0,270.0,324.0,magenta,circle
0.0,8.0,4.0,1.0,7.0,4.0,1233.7656449999486,2.0,1.0,part_3,go,0.0,0.0,0.0,156.0,4.0,117.0,39.0,195.0,156.0,78.0,234.0,white,I
0.0,5.0,1.0,1.0,7.0,1.0,1501.7366240026604,2.0,1.0,part_3,go,0.0,0.0,0.0,49.0,1.0,49.0,196.0,245.0,147.0,294.0,98.0,cyan,hexagon
0.0,3.0,3.0,0.0,7.0,6.0,1942.6932169990323,2.0,1.0,part_3,go,0.0,0.0,0.0,44.0,1.0,176.0,88.0,264.0,132.0,220.0,44.0,magenta,circle
0.0,1.0,1.0,0.0,7.0,4.0,1350.1717819999612,2.0,1.0,part_3,go,0.0,0.0,0.0,170.0,5.0,204.0,34.0,102.0,170.0,136.0,68.0,blue,square
0.0,6.0,2.0,1.0,7.0,1.0,3579.033352998522,2.0,1.0,part_3,go,0.0,0.0,0.0,245.0,5.0,245.0,147.0,196.0,49.0,294.0,98.0,yellow,triangle
0.0,7.0,3.0,1.0,7.0,4.0,1205.8573700014676,2.0,1.0,part_3,go,0.0,0.0,0.0,234.0,6.0,195.0,78.0,156.0,234.0,39.0,117.0,orange,cross
0.0,7.0,3.0,1.0,7.0,6.0,1307.1717659986462,2.0,1.0,part_3,go,0.0,0.0,0.0,147.0,3.0,294.0,49.0,245.0,196.0,98.0,147.0,orange,cross
0.0,2.0,2.0,0.0,7.0,2.0,1924.7988360002637,2.0,1.0,part_3,go,0.0,0.0,0.0,98.0,2.0,294.0,98.0,147.0,245.0,49.0,196.0,gray,diamond
0.0,2.0,2.0,0.0,7.0,5.0,1895.607246999134,2.0,1.0,part_3,go,0.0,0.0,0.0,68.0,2.0,170.0,204.0,34.0,136.0,68.0,102.0,gray,diamond
0.0,4.0,4.0,0.0,7.0,5.0,1750.029947997973,2.0,1.0,part_3,go,0.0,0.0,0.0,132.0,3.0,88.0,264.0,220.0,44.0,132.0,176.0,green,flipped triangle
0.0,7.0,3.0,1.0,7.0,4.0,1106.529782002326,2.0,1.0,part_3,go,0.0,0.0,0.0,132.0,3.0,176.0,264.0,88.0,132.0,44.0,220.0,orange,cross
0.0,2.0,2.0,0.0,7.0,3.0,1628.279513999587,2.0,1.0,part_3,go,0.0,0.0,0.0,162.0,3.0,324.0,108.0,162.0,216.0,270.0,54.0,gray,diamond
0.0,4.0,4.0,0.0,7.0,2.0,1866.2870209991524,2.0,1.0,part_3,go,0.0,0.0,0.0,204.0,6.0,170.0,204.0,68.0,34.0,102.0,136.0,green,flipped triangle
0.0,6.0,2.0,1.0,7.0,3.0,1532.853732998774,3.0,1.0,part_3,go,0.0,0.0,0.0,162.0,3.0,216.0,54.0,162.0,270.0,324.0,108.0,yellow,triangle
0.0,4.0,4.0,0.0,7.0,1.0,1446.3750079994495,3.0,1.0,part_3,go,0.0,0.0,0.0,196.0,4.0,196.0,245.0,98.0,294.0,147.0,49.0,green,flipped triangle
0.0,3.0,3.0,0.0,7.0,4.0,1545.9439780024695,3.0,1.0,part_3,go,0.0,0.0,0.0,234.0,6.0,195.0,39.0,156.0,234.0,78.0,117.0,magenta,circle
0.0,5.0,1.0,1.0,7.0,2.0,2236.7449650009803,3.0,1.0,part_3,go,0.0,0.0,0.0,216.0,4.0,270.0,216.0,162.0,324.0,54.0,108.0,cyan,hexagon
0.0,4.0,4.0,0.0,7.0,4.0,1707.4651690018072,3.0,1.0,part_3,go,0.0,0.0,0.0,195.0,5.0,78.0,234.0,117.0,195.0,39.0,156.0,green,flipped triangle
0.0,7.0,3.0,1.0,7.0,1.0,1518.8016850006534,3.0,1.0,part_3,go,0.0,0.0,0.0,68.0,2.0,68.0,102.0,34.0,136.0,204.0,170.0,orange,cross
0.0,7.0,3.0,1.0,7.0,1.0,1530.4027070014854,3.0,1.0,part_3,go,0.0,0.0,0.0,39.0,1.0,39.0,234.0,195.0,156.0,117.0,78.0,orange,cross
0.0,1.0,1.0,0.0,7.0,5.0,1699.44223100174,3.0,1.0,part_3,go,0.0,0.0,0.0,78.0,2.0,39.0,195.0,156.0,234.0,78.0,117.0,blue,square
0.0,8.0,4.0,1.0,7.0,3.0,3524.111898001138,3.0,1.0,part_3,go,0.0,0.0,0.0,170.0,5.0,68.0,204.0,170.0,136.0,102.0,34.0,white,I
0.0,3.0,3.0,0.0,7.0,1.0,2453.125872001692,3.0,1.0,part_3,go,0.0,0.0,0.0,98.0,2.0,98.0,196.0,294.0,147.0,49.0,245.0,magenta,circle
0.0,3.0,3.0,0.0,7.0,5.0,1063.126987999567,3.0,1.0,part_3,go,0.0,0.0,0.0,49.0,1.0,98.0,147.0,196.0,294.0,49.0,245.0,magenta,circle
0.0,7.0,3.0,1.0,7.0,6.0,1513.383886001975,3.0,1.0,part_3,go,0.0,0.0,0.0,49.0,1.0,98.0,196.0,245.0,294.0,147.0,49.0,orange,cross
0.0,5.0,1.0,1.0,7.0,4.0,1763.0899850009882,3.0,1.0,part_3,go,0.0,0.0,0.0,136.0,4.0,68.0,170.0,34.0,136.0,204.0,102.0,cyan,hexagon
0.0,8.0,4.0,1.0,7.0,1.0,2074.641856001108,3.0,1.0,part_3,go,0.0,0.0,0.0,49.0,1.0,49.0,98.0,147.0,196.0,294.0,245.0,white,I
0.0,5.0,1.0,1.0,7.0,3.0,1965.024391000043,3.0,1.0,part_3,go,0.0,0.0,0.0,245.0,5.0,147.0,49.0,245.0,98.0,196.0,294.0,cyan,hexagon
0.0,4.0,4.0,0.0,7.0,5.0,1402.6857120006753,3.0,1.0,part_3,go,0.0,0.0,0.0,156.0,4.0,78.0,39.0,117.0,195.0,156.0,234.0,green,flipped triangle
0.0,2.0,2.0,0.0,7.0,4.0,1992.0479580032409,3.0,1.0,part_3,go,0.0,0.0,0.0,132.0,3.0,44.0,220.0,176.0,132.0,88.0,264.0,gray,diamond
0.0,4.0,4.0,0.0,7.0,6.0,991.2229710025712,3.0,1.0,part_3,go,0.0,0.0,0.0,98.0,2.0,49.0,294.0,196.0,147.0,245.0,98.0,green,flipped triangle
0.0,1.0,1.0,0.0,7.0,1.0,2383.7895579999895,3.0,1.0,part_3,go,0.0,0.0,0.0,136.0,4.0,136.0,34.0,204.0,170.0,68.0,102.0,blue,square
0.0,5.0,1.0,1.0,7.0,3.0,1834.508289997757,3.0,1.0,part_3,go,0.0,0.0,0.0,176.0,4.0,132.0,264.0,176.0,88.0,44.0,220.0,cyan,hexagon
0.0,3.0,3.0,0.0,7.0,5.0,2455.409474998305,4.0,1.0,part_3,go,0.0,0.0,0.0,39.0,1.0,234.0,195.0,117.0,78.0,39.0,156.0,magenta,circle
0.0,8.0,4.0,1.0,7.0,3.0,1626.6777040000306,4.0,1.0,part_3,go,0.0,0.0,0.0,117.0,3.0,78.0,39.0,117.0,234.0,195.0,156.0,white,I
0.0,4.0,4.0,0.0,7.0,4.0,1692.888010002207,4.0,1.0,part_3,go,0.0,0.0,0.0,162.0,3.0,270.0,324.0,108.0,162.0,54.0,216.0,green,flipped triangle
0.0,6.0,2.0,1.0,7.0,2.0,4135.836809000466,4.0,1.0,part_3,go,0.0,0.0,0.0,132.0,3.0,220.0,132.0,176.0,88.0,44.0,264.0,yellow,triangle
0.0,6.0,2.0,1.0,7.0,2.0,2781.035563999467,4.0,1.0,part_3,go,0.0,0.0,0.0,147.0,3.0,245.0,147.0,294.0,49.0,98.0,196.0,yellow,triangle
0.0,2.0,2.0,0.0,7.0,4.0,1450.5191190000917,4.0,1.0,part_3,go,0.0,0.0,0.0,176.0,4.0,44.0,88.0,220.0,176.0,264.0,132.0,gray,diamond
0.0,5.0,1.0,1.0,7.0,1.0,1913.0291809997289,4.0,1.0,part_3,go,0.0,0.0,0.0,324.0,6.0,324.0,216.0,270.0,162.0,108.0,54.0,cyan,hexagon
0.0,4.0,4.0,0.0,7.0,1.0,4220.664914999361,4.0,1.0,part_3,go,0.0,0.0,0.0,132.0,3.0,132.0,220.0,88.0,264.0,44.0,176.0,green,flipped triangle
0.0,1.0,1.0,0.0,7.0,3.0,1789.5288369982154,4.0,1.0,part_3,go,0.0,0.0,0.0,270.0,5.0,162.0,324.0,270.0,54.0,108.0,216.0,blue,square
0.0,7.0,3.0,1.0,7.0,3.0,1848.9411560003648,4.0,1.0,part_3,go,0.0,0.0,0.0,44.0,1.0,88.0,176.0,44.0,264.0,132.0,220.0,orange,cross
0.0,1.0,1.0,0.0,7.0,4.0,1885.348776999308,4.0,1.0,part_3,go,0.0,0.0,0.0,108.0,2.0,216.0,324.0,162.0,108.0,270.0,54.0,blue,square
0.0,6.0,2.0,1.0,7.0,2.0,1511.2698299999463,4.0,1.0,part_3,go,0.0,0.0,0.0,234.0,6.0,117.0,234.0,39.0,78.0,156.0,195.0,yellow,triangle
0.0,2.0,2.0,0.0,7.0,5.0,1355.7044730005146,4.0,1.0,part_3,go,0.0,0.0,0.0,117.0,3.0,78.0,195.0,234.0,39.0,117.0,156.0,gray,diamond
0.0,4.0,4.0,0.0,7.0,5.0,1536.3027739986137,4.0,1.0,part_3,go,0.0,0.0,0.0,162.0,3.0,270.0,324.0,54.0,216.0,162.0,108.0,green,flipped triangle
0.0,8.0,4.0,1.0,7.0,5.0,2359.9332440026046,4.0,1.0,part_3,go,0.0,0.0,0.0,136.0,4.0,68.0,34.0,170.0,102.0,136.0,204.0,white,I
0.0,6.0,2.0,1.0,7.0,3.0,1686.2925790010197,4.0,1.0,part_3,go,0.0,0.0,0.0,162.0,3.0,324.0,54.0,162.0,216.0,270.0,108.0,yellow,triangle
0.0,5.0,1.0,1.0,7.0,1.0,1438.9363269983733,4.0,1.0,part_3,go,0.0,0.0,0.0,88.0,2.0,88.0,132.0,176.0,220.0,44.0,264.0,cyan,hexagon
0.0,4.0,4.0,0.0,7.0,4.0,3002.3801660026948,4.0,1.0,part_3,go,0.0,0.0,0.0,102.0,3.0,136.0,170.0,68.0,102.0,34.0,204.0,green,flipped triangle
0.0,5.0,1.0,1.0,7.0,3.0,2295.5525309989753,4.0,1.0,part_3,go,0.0,0.0,0.0,156.0,4.0,195.0,234.0,156.0,78.0,117.0,39.0,cyan,hexagon
0.0,1.0,1.0,0.0,7.0,3.0,2525.48551700238,4.0,1.0,part_3,go,0.0,0.0,0.0,176.0,4.0,264.0,44.0,176.0,132.0,220.0,88.0,blue,square
