raw_reward_magnitude,stim_reward,stepwise_reward_magnitude,paired_with_stopping,stim_location,response,reaction_time,block,num_trial_presentations,which_phase,stop_signal_trial_type,left_SSD,right_SSD,accuracy,chosen_bidding_amount,chosen_bidding_level,possible_bid_1,possible_bid_2,possible_bid_3,possible_bid_4,possible_bid_5,possible_bid_6,color_text,shape_text
0.0,3.0,0.0,0.0,3.0,3.0,459.9338359839748,1.0,1.0,phase_1,,,,,,,,,,,,,cyan,hexagon
0.0,7.0,0.0,1.0,4.0,4.0,493.9232190081384,1.0,1.0,phase_1,,,,,,,,,,,,,orange,circle
412.0,8.0,4.0,1.0,3.0,3.0,438.3676139987074,1.0,1.0,phase_1,,,,,,,,,,,,,blue,flipped triangle
0.0,3.0,0.0,0.0,2.0,2.0,361.6110059956554,1.0,1.0,phase_1,,,,,,,,,,,,,cyan,hexagon
0.0,2.0,0.0,0.0,4.0,4.0,395.9263799770269,1.0,1.0,phase_1,,,,,,,,,,,,,gray,diamond
181.0,7.0,2.0,1.0,3.0,3.0,316.5243669936899,1.0,1.0,phase_1,,,,,,,,,,,,,orange,circle
75.0,5.0,0.5,1.0,2.0,2.0,284.9611830024514,1.0,1.0,phase_1,,,,,,,,,,,,,yellow,square
0.0,2.0,0.0,0.0,3.0,3.0,296.7372949933633,1.0,1.0,phase_1,,,,,,,,,,,,,gray,diamond
401.0,8.0,4.0,1.0,2.0,2.0,317.9127740149852,1.0,1.0,phase_1,,,,,,,,,,,,,blue,flipped triangle
88.0,2.0,1.0,0.0,4.0,4.0,264.4354120129719,1.0,1.0,phase_1,,,,,,,,,,,,,gray,diamond
0.0,7.0,0.0,1.0,2.0,2.0,251.56970898387948,1.0,1.0,phase_1,,,,,,,,,,,,,orange,circle
109.0,6.0,1.0,1.0,4.0,4.0,366.6538109828252,1.0,2.0,phase_1,,,,,,,,,,,,,green,cross
386.0,8.0,4.0,1.0,4.0,4.0,312.4217239965219,1.0,1.0,phase_1,,,,,,,,,,,,,blue,flipped triangle
39.0,1.0,0.5,0.0,2.0,2.0,424.0702670067549,1.0,1.0,phase_1,,,,,,,,,,,,,white,triangle
412.0,4.0,4.0,0.0,1.0,1.0,368.2092920062132,1.0,1.0,phase_1,,,,,,,,,,,,,magenta,I
0.0,8.0,0.0,1.0,1.0,1.0,389.5733969984576,1.0,1.0,phase_1,,,,,,,,,,,,,blue,flipped triangle
53.0,5.0,0.5,1.0,1.0,1.0,337.8803649975452,1.0,1.0,phase_1,,,,,,,,,,,,,yellow,square
384.0,8.0,4.0,1.0,4.0,4.0,269.0610590216238,1.0,1.0,phase_1,,,,,,,,,,,,,blue,flipped triangle
179.0,3.0,2.0,0.0,4.0,4.0,347.1240180078894,1.0,1.0,phase_1,,,,,,,,,,,,,cyan,hexagon
180.0,7.0,2.0,1.0,2.0,2.0,346.6445560043212,1.0,1.0,phase_1,,,,,,,,,,,,,orange,circle
0.0,5.0,0.0,1.0,2.0,2.0,425.8888860058505,1.0,1.0,phase_1,,,,,,,,,,,,,yellow,square
70.0,1.0,0.5,0.0,4.0,4.0,280.4034479777328,1.0,1.0,phase_1,,,,,,,,,,,,,white,triangle
96.0,2.0,1.0,0.0,2.0,2.0,293.440843001008,1.0,1.0,phase_1,,,,,,,,,,,,,gray,diamond
0.0,5.0,0.0,1.0,1.0,1.0,328.0301420018077,1.0,1.0,phase_1,,,,,,,,,,,,,yellow,square
392.0,8.0,4.0,1.0,3.0,3.0,386.2363939988427,1.0,1.0,phase_1,,,,,,,,,,,,,blue,flipped triangle
378.0,4.0,4.0,0.0,2.0,2.0,440.4003710078541,1.0,1.0,phase_1,,,,,,,,,,,,,magenta,I
388.0,4.0,4.0,0.0,3.0,3.0,463.714287005132,1.0,1.0,phase_1,,,,,,,,,,,,,magenta,I
404.0,4.0,4.0,0.0,1.0,1.0,385.1342529815156,1.0,1.0,phase_1,,,,,,,,,,,,,magenta,I
0.0,8.0,0.0,1.0,3.0,3.0,375.793398998212,1.0,1.0,phase_1,,,,,,,,,,,,,blue,flipped triangle
418.0,4.0,4.0,0.0,4.0,4.0,322.0771339838393,1.0,1.0,phase_1,,,,,,,,,,,,,magenta,I
382.0,8.0,4.0,1.0,4.0,4.0,399.6783309848979,1.0,1.0,phase_1,,,,,,,,,,,,,blue,flipped triangle
392.0,4.0,4.0,0.0,4.0,4.0,288.6768210155424,1.0,1.0,phase_1,,,,,,,,,,,,,magenta,I
121.0,6.0,1.0,1.0,1.0,1.0,411.1378800007514,1.0,1.0,phase_1,,,,,,,,,,,,,green,cross
217.0,7.0,2.0,1.0,4.0,4.0,357.6932860014494,1.0,1.0,phase_1,,,,,,,,,,,,,orange,circle
57.0,1.0,0.5,0.0,1.0,1.0,369.6207030152436,1.0,1.0,phase_1,,,,,,,,,,,,,white,triangle
47.0,1.0,0.5,0.0,4.0,4.0,267.0504470006563,1.0,1.0,phase_1,,,,,,,,,,,,,white,triangle
0.0,1.0,0.0,0.0,2.0,2.0,402.2154539998155,1.0,1.0,phase_1,,,,,,,,,,,,,white,triangle
419.0,8.0,4.0,1.0,1.0,1.0,415.4831570049282,1.0,1.0,phase_1,,,,,,,,,,,,,blue,flipped triangle
221.0,3.0,2.0,0.0,2.0,2.0,371.4094049937557,1.0,1.0,phase_1,,,,,,,,,,,,,cyan,hexagon
0.0,8.0,0.0,1.0,2.0,2.0,358.1277760094963,1.0,1.0,phase_1,,,,,,,,,,,,,blue,flipped triangle
195.0,3.0,2.0,0.0,3.0,3.0,337.7582230023108,1.0,1.0,phase_1,,,,,,,,,,,,,cyan,hexagon
0.0,7.0,0.0,1.0,2.0,2.0,506.4113459957298,1.0,1.0,phase_1,,,,,,,,,,,,,orange,circle
94.0,6.0,1.0,1.0,2.0,2.0,383.2380779786035,1.0,1.0,phase_1,,,,,,,,,,,,,green,cross
0.0,7.0,0.0,1.0,4.0,4.0,375.8191720116883,1.0,1.0,phase_1,,,,,,,,,,,,,orange,circle
198.0,3.0,2.0,0.0,1.0,1.0,362.7929679933004,1.0,1.0,phase_1,,,,,,,,,,,,,cyan,hexagon
0.0,3.0,0.0,0.0,1.0,1.0,329.2956459918059,1.0,1.0,phase_1,,,,,,,,,,,,,cyan,hexagon
417.0,4.0,4.0,0.0,2.0,2.0,296.020163979847,1.0,1.0,phase_1,,,,,,,,,,,,,magenta,I
0.0,1.0,0.0,0.0,1.0,1.0,411.81003602105187,1.0,2.0,phase_1,,,,,,,,,,,,,white,triangle
41.0,1.0,0.5,0.0,4.0,4.0,423.1873980024829,1.0,1.0,phase_1,,,,,,,,,,,,,white,triangle
100.0,6.0,1.0,1.0,4.0,4.0,389.5728319766931,1.0,1.0,phase_1,,,,,,,,,,,,,green,cross
121.0,2.0,1.0,0.0,4.0,4.0,319.9653250048868,1.0,1.0,phase_1,,,,,,,,,,,,,gray,diamond
0.0,2.0,0.0,0.0,1.0,1.0,321.4164189994335,1.0,1.0,phase_1,,,,,,,,,,,,,gray,diamond
0.0,4.0,0.0,0.0,2.0,2.0,312.7595859987195,1.0,1.0,phase_1,,,,,,,,,,,,,magenta,I
183.0,7.0,2.0,1.0,4.0,4.0,344.0353600017261,1.0,1.0,phase_1,,,,,,,,,,,,,orange,circle
0.0,6.0,0.0,1.0,2.0,2.0,358.1376700021792,1.0,1.0,phase_1,,,,,,,,,,,,,green,cross
390.0,8.0,4.0,1.0,1.0,1.0,326.8150569929275,1.0,1.0,phase_1,,,,,,,,,,,,,blue,flipped triangle
405.0,8.0,4.0,1.0,2.0,2.0,412.8346129728015,1.0,1.0,phase_1,,,,,,,,,,,,,blue,flipped triangle
0.0,4.0,0.0,0.0,3.0,3.0,450.2216459950432,1.0,1.0,phase_1,,,,,,,,,,,,,magenta,I
94.0,6.0,1.0,1.0,2.0,2.0,552.4111070262734,1.0,1.0,phase_1,,,,,,,,,,,,,green,cross
68.0,5.0,0.5,1.0,2.0,2.0,358.3005570108071,1.0,1.0,phase_1,,,,,,,,,,,,,yellow,square
100.0,2.0,1.0,0.0,2.0,2.0,325.4301619890611,1.0,1.0,phase_1,,,,,,,,,,,,,gray,diamond
43.0,1.0,0.5,0.0,1.0,1.0,292.6093679852783,1.0,1.0,phase_1,,,,,,,,,,,,,white,triangle
77.0,2.0,1.0,0.0,1.0,1.0,328.7000079872086,1.0,1.0,phase_1,,,,,,,,,,,,,gray,diamond
0.0,7.0,0.0,1.0,4.0,4.0,362.8002339974046,1.0,1.0,phase_1,,,,,,,,,,,,,orange,circle
55.0,1.0,0.5,0.0,1.0,1.0,305.81916598021047,1.0,1.0,phase_1,,,,,,,,,,,,,white,triangle
0.0,3.0,0.0,0.0,2.0,2.0,296.9707640004344,1.0,1.0,phase_1,,,,,,,,,,,,,cyan,hexagon
0.0,5.0,0.0,1.0,4.0,4.0,272.825419990113,1.0,1.0,phase_1,,,,,,,,,,,,,yellow,square
76.0,2.0,1.0,0.0,3.0,3.0,434.4717460044194,1.0,2.0,phase_1,,,,,,,,,,,,,gray,diamond
111.0,2.0,1.0,0.0,2.0,2.0,457.8244279837236,1.0,1.0,phase_1,,,,,,,,,,,,,gray,diamond
88.0,6.0,1.0,1.0,4.0,4.0,345.8431439939886,1.0,1.0,phase_1,,,,,,,,,,,,,green,cross
0.0,4.0,0.0,0.0,4.0,4.0,378.1535869929939,1.0,1.0,phase_1,,,,,,,,,,,,,magenta,I
61.0,1.0,0.5,0.0,3.0,3.0,346.3480970240198,1.0,1.0,phase_1,,,,,,,,,,,,,white,triangle
201.0,3.0,2.0,0.0,2.0,2.0,380.3197219967842,1.0,1.0,phase_1,,,,,,,,,,,,,cyan,hexagon
82.0,6.0,1.0,1.0,1.0,1.0,457.6392759918235,1.0,1.0,phase_1,,,,,,,,,,,,,green,cross
0.0,6.0,0.0,1.0,4.0,4.0,367.8135630034376,1.0,1.0,phase_1,,,,,,,,,,,,,green,cross
72.0,5.0,0.5,1.0,4.0,4.0,405.9478089911863,1.0,1.0,phase_1,,,,,,,,,,,,,yellow,square
179.0,7.0,2.0,1.0,2.0,2.0,403.6155159992631,1.0,1.0,phase_1,,,,,,,,,,,,,orange,circle
220.0,7.0,2.0,1.0,4.0,4.0,327.8049739892594,1.0,1.0,phase_1,,,,,,,,,,,,,orange,circle
55.0,5.0,0.5,1.0,1.0,1.0,407.8509230166673,1.0,1.0,phase_1,,,,,,,,,,,,,yellow,square
410.0,4.0,4.0,0.0,1.0,1.0,438.8519439962692,1.0,1.0,phase_1,,,,,,,,,,,,,magenta,I
220.0,3.0,2.0,0.0,3.0,3.0,337.3840890126303,1.0,1.0,phase_1,,,,,,,,,,,,,cyan,hexagon
391.0,4.0,4.0,0.0,1.0,1.0,350.7421120011713,1.0,1.0,phase_1,,,,,,,,,,,,,magenta,I
180.0,7.0,2.0,1.0,3.0,3.0,271.3398369960487,1.0,1.0,phase_1,,,,,,,,,,,,,orange,circle
415.0,8.0,4.0,1.0,4.0,4.0,353.46395999658847,1.0,1.0,phase_1,,,,,,,,,,,,,blue,flipped triangle
0.0,6.0,0.0,1.0,3.0,3.0,365.9126920101698,1.0,1.0,phase_1,,,,,,,,,,,,,green,cross
423.0,4.0,4.0,0.0,4.0,4.0,351.3953849906102,1.0,1.0,phase_1,,,,,,,,,,,,,magenta,I
35.0,1.0,0.5,0.0,1.0,1.0,386.7871180118527,1.0,1.0,phase_1,,,,,,,,,,,,,white,triangle
30.0,5.0,0.5,1.0,2.0,2.0,533.4936440049205,1.0,1.0,phase_1,,,,,,,,,,,,,yellow,square
101.0,2.0,1.0,0.0,4.0,4.0,333.2113740034401,1.0,1.0,phase_1,,,,,,,,,,,,,gray,diamond
0.0,6.0,0.0,1.0,4.0,4.0,366.425291984342,1.0,1.0,phase_1,,,,,,,,,,,,,green,cross
219.0,7.0,2.0,1.0,1.0,1.0,467.2113500128034,1.0,1.0,phase_1,,,,,,,,,,,,,orange,circle
31.0,1.0,0.5,0.0,3.0,3.0,390.4024339863099,1.0,1.0,phase_1,,,,,,,,,,,,,white,triangle
177.0,7.0,2.0,1.0,3.0,3.0,379.2788079881575,1.0,1.0,phase_1,,,,,,,,,,,,,orange,circle
394.0,8.0,4.0,1.0,3.0,3.0,391.7579179978929,1.0,1.0,phase_1,,,,,,,,,,,,,blue,flipped triangle
0.0,1.0,0.0,0.0,3.0,3.0,356.1848030076362,1.0,1.0,phase_1,,,,,,,,,,,,,white,triangle
70.0,5.0,0.5,1.0,3.0,3.0,326.1312249815091,1.0,1.0,phase_1,,,,,,,,,,,,,yellow,square
401.0,4.0,4.0,0.0,4.0,4.0,346.3299040158745,1.0,1.0,phase_1,,,,,,,,,,,,,magenta,I
119.0,2.0,1.0,0.0,1.0,1.0,450.9948450140655,1.0,1.0,phase_1,,,,,,,,,,,,,gray,diamond
388.0,8.0,4.0,1.0,4.0,4.0,383.8031089981086,1.0,1.0,phase_1,,,,,,,,,,,,,blue,flipped triangle
384.0,4.0,4.0,0.0,4.0,4.0,348.3316860219929,1.0,1.0,phase_1,,,,,,,,,,,,,magenta,I
391.0,8.0,4.0,1.0,3.0,3.0,445.1120180019643,2.0,1.0,phase_1,,,,,,,,,,,,,blue,flipped triangle
0.0,1.0,0.0,0.0,1.0,1.0,275.2019510080572,2.0,1.0,phase_1,,,,,,,,,,,,,white,triangle
200.0,3.0,2.0,0.0,1.0,1.0,391.9562300143298,2.0,2.0,phase_1,,,,,,,,,,,,,cyan,hexagon
220.0,3.0,2.0,0.0,4.0,4.0,415.207909012679,2.0,1.0,phase_1,,,,,,,,,,,,,cyan,hexagon
39.0,5.0,0.5,1.0,4.0,4.0,357.6602550165262,2.0,1.0,phase_1,,,,,,,,,,,,,yellow,square
122.0,2.0,1.0,0.0,4.0,4.0,324.2634529888164,2.0,1.0,phase_1,,,,,,,,,,,,,gray,diamond
0.0,6.0,0.0,1.0,3.0,3.0,383.7403939978685,2.0,1.0,phase_1,,,,,,,,,,,,,green,cross
392.0,4.0,4.0,0.0,4.0,4.0,369.0015109896194,2.0,1.0,phase_1,,,,,,,,,,,,,magenta,I
208.0,3.0,2.0,0.0,1.0,1.0,383.5833050252404,2.0,1.0,phase_1,,,,,,,,,,,,,cyan,hexagon
421.0,4.0,4.0,0.0,3.0,3.0,326.0340499982703,2.0,1.0,phase_1,,,,,,,,,,,,,magenta,I
99.0,2.0,1.0,0.0,3.0,3.0,341.2230410031043,2.0,1.0,phase_1,,,,,,,,,,,,,gray,diamond
89.0,2.0,1.0,0.0,1.0,1.0,306.3435640069656,2.0,1.0,phase_1,,,,,,,,,,,,,gray,diamond
219.0,3.0,2.0,0.0,4.0,4.0,295.7257689849939,2.0,1.0,phase_1,,,,,,,,,,,,,cyan,hexagon
0.0,5.0,0.0,1.0,3.0,3.0,376.2450339854695,2.0,1.0,phase_1,,,,,,,,,,,,,yellow,square
209.0,3.0,2.0,0.0,3.0,3.0,440.5379529925994,2.0,1.0,phase_1,,,,,,,,,,,,,cyan,hexagon
103.0,2.0,1.0,0.0,4.0,4.0,523.5124469909351,2.0,1.0,phase_1,,,,,,,,,,,,,gray,diamond
0.0,7.0,0.0,1.0,1.0,1.0,489.8704679799266,2.0,1.0,phase_1,,,,,,,,,,,,,orange,circle
420.0,4.0,4.0,0.0,2.0,2.0,433.8689110008999,2.0,1.0,phase_1,,,,,,,,,,,,,magenta,I
181.0,3.0,2.0,0.0,3.0,3.0,568.4332189848647,2.0,1.0,phase_1,,,,,,,,,,,,,cyan,hexagon
214.0,7.0,2.0,1.0,1.0,1.0,444.7060310048982,2.0,1.0,phase_1,,,,,,,,,,,,,orange,circle
27.0,5.0,0.5,1.0,1.0,1.0,411.016899975948,2.0,1.0,phase_1,,,,,,,,,,,,,yellow,square
62.0,5.0,0.5,1.0,3.0,3.0,399.6407370141241,2.0,1.0,phase_1,,,,,,,,,,,,,yellow,square
91.0,6.0,1.0,1.0,4.0,4.0,366.6815759788733,2.0,1.0,phase_1,,,,,,,,,,,,,green,cross
386.0,8.0,4.0,1.0,3.0,3.0,448.9786000049207,2.0,1.0,phase_1,,,,,,,,,,,,,blue,flipped triangle
119.0,6.0,1.0,1.0,1.0,1.0,303.6468320060521,2.0,1.0,phase_1,,,,,,,,,,,,,green,cross
73.0,1.0,0.5,0.0,2.0,2.0,618.3403030154295,2.0,1.0,phase_1,,,,,,,,,,,,,white,triangle
421.0,8.0,4.0,1.0,1.0,1.0,448.6112640006467,2.0,1.0,phase_1,,,,,,,,,,,,,blue,flipped triangle
217.0,7.0,2.0,1.0,2.0,2.0,348.9368939772248,2.0,1.0,phase_1,,,,,,,,,,,,,orange,circle
30.0,1.0,0.5,0.0,4.0,4.0,370.1217210036702,2.0,1.0,phase_1,,,,,,,,,,,,,white,triangle
88.0,2.0,1.0,0.0,1.0,1.0,291.3507759803906,2.0,1.0,phase_1,,,,,,,,,,,,,gray,diamond
221.0,3.0,2.0,0.0,3.0,3.0,314.253906981321,2.0,1.0,phase_1,,,,,,,,,,,,,cyan,hexagon
119.0,6.0,1.0,1.0,2.0,2.0,350.5324609868694,2.0,1.0,phase_1,,,,,,,,,,,,,green,cross
38.0,5.0,0.5,1.0,2.0,2.0,408.8842149940319,2.0,1.0,phase_1,,,,,,,,,,,,,yellow,square
193.0,7.0,2.0,1.0,3.0,3.0,374.462713021785,2.0,1.0,phase_1,,,,,,,,,,,,,orange,circle
186.0,3.0,2.0,0.0,2.0,2.0,475.3749619994778,2.0,1.0,phase_1,,,,,,,,,,,,,cyan,hexagon
56.0,1.0,0.5,0.0,1.0,1.0,317.8479689813684,2.0,1.0,phase_1,,,,,,,,,,,,,white,triangle
0.0,2.0,0.0,0.0,1.0,1.0,408.3750009885989,2.0,1.0,phase_1,,,,,,,,,,,,,gray,diamond
181.0,3.0,2.0,0.0,2.0,2.0,375.9406180179212,2.0,1.0,phase_1,,,,,,,,,,,,,cyan,hexagon
410.0,8.0,4.0,1.0,1.0,1.0,397.9784109978936,2.0,1.0,phase_1,,,,,,,,,,,,,blue,flipped triangle
405.0,4.0,4.0,0.0,2.0,2.0,321.566722006537,2.0,1.0,phase_1,,,,,,,,,,,,,magenta,I
193.0,3.0,2.0,0.0,4.0,4.0,321.5202300052624,2.0,1.0,phase_1,,,,,,,,,,,,,cyan,hexagon
195.0,7.0,2.0,1.0,2.0,2.0,287.5098059885204,2.0,1.0,phase_1,,,,,,,,,,,,,orange,circle
205.0,3.0,2.0,0.0,2.0,2.0,444.7325450018979,2.0,1.0,phase_1,,,,,,,,,,,,,cyan,hexagon
27.0,1.0,0.5,0.0,3.0,3.0,391.9508830003906,2.0,1.0,phase_1,,,,,,,,,,,,,white,triangle
99.0,6.0,1.0,1.0,1.0,1.0,266.9510220002848,2.0,1.0,phase_1,,,,,,,,,,,,,green,cross
52.0,5.0,0.5,1.0,4.0,4.0,312.2380400018301,2.0,1.0,phase_1,,,,,,,,,,,,,yellow,square
186.0,3.0,2.0,0.0,4.0,4.0,415.0640480220318,2.0,1.0,phase_1,,,,,,,,,,,,,cyan,hexagon
81.0,2.0,1.0,0.0,2.0,2.0,337.2183169994969,2.0,1.0,phase_1,,,,,,,,,,,,,gray,diamond
0.0,2.0,0.0,0.0,3.0,3.0,324.3154450028669,2.0,1.0,phase_1,,,,,,,,,,,,,gray,diamond
412.0,8.0,4.0,1.0,4.0,4.0,336.6240829927847,2.0,1.0,phase_1,,,,,,,,,,,,,blue,flipped triangle
64.0,1.0,0.5,0.0,2.0,2.0,395.4103789874352,2.0,1.0,phase_1,,,,,,,,,,,,,white,triangle
0.0,8.0,0.0,1.0,4.0,4.0,406.394088990055,2.0,1.0,phase_1,,,,,,,,,,,,,blue,flipped triangle
0.0,2.0,0.0,0.0,2.0,2.0,361.686568998266,2.0,1.0,phase_1,,,,,,,,,,,,,gray,diamond
418.0,8.0,4.0,1.0,4.0,4.0,329.9541160231456,2.0,1.0,phase_1,,,,,,,,,,,,,blue,flipped triangle
47.0,5.0,0.5,1.0,4.0,4.0,385.3960300039034,2.0,1.0,phase_1,,,,,,,,,,,,,yellow,square
71.0,5.0,0.5,1.0,4.0,4.0,386.8123609863687,2.0,1.0,phase_1,,,,,,,,,,,,,yellow,square
395.0,4.0,4.0,0.0,4.0,4.0,309.4492180098314,2.0,1.0,phase_1,,,,,,,,,,,,,magenta,I
377.0,8.0,4.0,1.0,3.0,3.0,377.3035700141918,2.0,1.0,phase_1,,,,,,,,,,,,,blue,flipped triangle
212.0,7.0,2.0,1.0,4.0,4.0,321.4637599885463,2.0,1.0,phase_1,,,,,,,,,,,,,orange,circle
0.0,7.0,0.0,1.0,1.0,1.0,409.9919559957925,2.0,1.0,phase_1,,,,,,,,,,,,,orange,circle
223.0,7.0,2.0,1.0,3.0,3.0,311.5090070059523,2.0,1.0,phase_1,,,,,,,,,,,,,orange,circle
0.0,5.0,0.0,1.0,3.0,3.0,369.3072510068305,2.0,1.0,phase_1,,,,,,,,,,,,,yellow,square
0.0,1.0,0.0,0.0,3.0,3.0,354.476390988566,2.0,1.0,phase_1,,,,,,,,,,,,,white,triangle
82.0,6.0,1.0,1.0,1.0,1.0,321.2634079973213,2.0,1.0,phase_1,,,,,,,,,,,,,green,cross
218.0,7.0,2.0,1.0,2.0,2.0,415.1646140089724,2.0,1.0,phase_1,,,,,,,,,,,,,orange,circle
40.0,1.0,0.5,0.0,1.0,1.0,333.944212005008,2.0,1.0,phase_1,,,,,,,,,,,,,white,triangle
82.0,2.0,1.0,0.0,3.0,3.0,280.4395690036472,2.0,1.0,phase_1,,,,,,,,,,,,,gray,diamond
384.0,4.0,4.0,0.0,2.0,2.0,382.1117799961939,2.0,1.0,phase_1,,,,,,,,,,,,,magenta,I
390.0,4.0,4.0,0.0,1.0,1.0,325.791549985297,2.0,1.0,phase_1,,,,,,,,,,,,,magenta,I
0.0,6.0,0.0,1.0,1.0,1.0,316.2729530013166,2.0,1.0,phase_1,,,,,,,,,,,,,green,cross
415.0,4.0,4.0,0.0,1.0,1.0,328.3078940003179,2.0,1.0,phase_1,,,,,,,,,,,,,magenta,I
79.0,2.0,1.0,0.0,4.0,4.0,419.6219010045752,2.0,1.0,phase_1,,,,,,,,,,,,,gray,diamond
121.0,6.0,1.0,1.0,3.0,3.0,520.8031819784082,2.0,1.0,phase_1,,,,,,,,,,,,,green,cross
47.0,5.0,0.5,1.0,1.0,1.0,251.88652399810962,2.0,1.0,phase_1,,,,,,,,,,,,,yellow,square
190.0,7.0,2.0,1.0,1.0,1.0,443.1443429784849,2.0,1.0,phase_1,,,,,,,,,,,,,orange,circle
218.0,3.0,2.0,0.0,2.0,2.0,497.7090010070242,2.0,1.0,phase_1,,,,,,,,,,,,,cyan,hexagon
180.0,3.0,2.0,0.0,2.0,2.0,431.5831849817186,2.0,1.0,phase_1,,,,,,,,,,,,,cyan,hexagon
212.0,3.0,2.0,0.0,3.0,3.0,366.0831750021316,2.0,1.0,phase_1,,,,,,,,,,,,,cyan,hexagon
412.0,4.0,4.0,0.0,1.0,1.0,299.8157419788185,2.0,1.0,phase_1,,,,,,,,,,,,,magenta,I
53.0,1.0,0.5,0.0,2.0,2.0,411.2898859893903,2.0,1.0,phase_1,,,,,,,,,,,,,white,triangle
0.0,8.0,0.0,1.0,4.0,4.0,456.9831670087296,2.0,1.0,phase_1,,,,,,,,,,,,,blue,flipped triangle
381.0,8.0,4.0,1.0,2.0,2.0,299.8788219993002,2.0,1.0,phase_1,,,,,,,,,,,,,blue,flipped triangle
104.0,2.0,1.0,0.0,3.0,3.0,357.9551619768608,2.0,1.0,phase_1,,,,,,,,,,,,,gray,diamond
29.0,5.0,0.5,1.0,1.0,1.0,411.9159970141481,2.0,1.0,phase_1,,,,,,,,,,,,,yellow,square
103.0,6.0,1.0,1.0,3.0,3.0,357.5160140171647,2.0,1.0,phase_1,,,,,,,,,,,,,green,cross
186.0,7.0,2.0,1.0,3.0,3.0,394.5580910076387,2.0,1.0,phase_1,,,,,,,,,,,,,orange,circle
108.0,2.0,1.0,0.0,3.0,3.0,323.6006989900488,2.0,1.0,phase_1,,,,,,,,,,,,,gray,diamond
193.0,3.0,2.0,0.0,3.0,3.0,337.7910889976192,2.0,1.0,phase_1,,,,,,,,,,,,,cyan,hexagon
0.0,7.0,0.0,1.0,1.0,1.0,414.7188520000782,2.0,1.0,phase_1,,,,,,,,,,,,,orange,circle
216.0,7.0,2.0,1.0,1.0,1.0,381.3331869896501,2.0,1.0,phase_1,,,,,,,,,,,,,orange,circle
208.0,7.0,2.0,1.0,4.0,4.0,337.6654469757341,2.0,1.0,phase_1,,,,,,,,,,,,,orange,circle
216.0,3.0,2.0,0.0,2.0,2.0,371.1062989896163,2.0,1.0,phase_1,,,,,,,,,,,,,cyan,hexagon
382.0,4.0,4.0,0.0,2.0,2.0,361.4791030122433,2.0,1.0,phase_1,,,,,,,,,,,,,magenta,I
0.0,5.0,0.0,1.0,2.0,2.0,351.7939939920325,2.0,1.0,phase_1,,,,,,,,,,,,,yellow,square
410.0,8.0,4.0,1.0,1.0,1.0,406.7626770120114,2.0,1.0,phase_1,,,,,,,,,,,,,blue,flipped triangle
96.0,6.0,1.0,1.0,1.0,1.0,374.6840439853258,2.0,1.0,phase_1,,,,,,,,,,,,,green,cross
122.0,6.0,1.0,1.0,4.0,4.0,430.2480350015685,2.0,1.0,phase_1,,,,,,,,,,,,,green,cross
111.0,6.0,1.0,1.0,1.0,1.0,332.2510010038968,2.0,1.0,phase_1,,,,,,,,,,,,,green,cross
384.0,8.0,4.0,1.0,4.0,4.0,322.6913509715814,2.0,1.0,phase_1,,,,,,,,,,,,,blue,flipped triangle
221.0,7.0,2.0,1.0,3.0,3.0,445.1279330241959,2.0,1.0,phase_1,,,,,,,,,,,,,orange,circle
400.0,8.0,4.0,1.0,2.0,2.0,600.6229959893972,3.0,1.0,phase_1,,,,,,,,,,,,,blue,flipped triangle
421.0,4.0,4.0,0.0,3.0,3.0,703.906268987339,3.0,1.0,phase_1,,,,,,,,,,,,,magenta,I
214.0,3.0,2.0,0.0,4.0,4.0,465.2002039947547,3.0,1.0,phase_1,,,,,,,,,,,,,cyan,hexagon
35.0,1.0,0.5,0.0,1.0,1.0,435.2828720002435,3.0,1.0,phase_1,,,,,,,,,,,,,white,triangle
27.0,1.0,0.5,0.0,3.0,3.0,379.3520910257939,3.0,1.0,phase_1,,,,,,,,,,,,,white,triangle
222.0,7.0,2.0,1.0,1.0,1.0,522.5183700094931,3.0,1.0,phase_1,,,,,,,,,,,,,orange,circle
223.0,3.0,2.0,0.0,1.0,1.0,469.0674239827785,3.0,1.0,phase_1,,,,,,,,,,,,,cyan,hexagon
48.0,5.0,0.5,1.0,3.0,3.0,390.0933909753803,3.0,1.0,phase_1,,,,,,,,,,,,,yellow,square
94.0,2.0,1.0,0.0,3.0,3.0,427.082859998336,3.0,1.0,phase_1,,,,,,,,,,,,,gray,diamond
121.0,2.0,1.0,0.0,1.0,1.0,439.0364169958047,3.0,1.0,phase_1,,,,,,,,,,,,,gray,diamond
91.0,6.0,1.0,1.0,2.0,2.0,357.2768669982906,3.0,1.0,phase_1,,,,,,,,,,,,,green,cross
401.0,8.0,4.0,1.0,2.0,2.0,435.9026129823178,3.0,1.0,phase_1,,,,,,,,,,,,,blue,flipped triangle
56.0,5.0,0.5,1.0,1.0,1.0,337.0797469979152,3.0,1.0,phase_1,,,,,,,,,,,,,yellow,square
0.0,4.0,0.0,0.0,3.0,3.0,349.152729002526,3.0,1.0,phase_1,,,,,,,,,,,,,magenta,I
67.0,5.0,0.5,1.0,3.0,3.0,337.6816280069761,3.0,1.0,phase_1,,,,,,,,,,,,,yellow,square
0.0,5.0,0.0,1.0,1.0,1.0,371.2485780124552,3.0,1.0,phase_1,,,,,,,,,,,,,yellow,square
35.0,5.0,0.5,1.0,3.0,3.0,339.5718430110719,3.0,1.0,phase_1,,,,,,,,,,,,,yellow,square
386.0,4.0,4.0,0.0,3.0,3.0,352.3398360121064,3.0,1.0,phase_1,,,,,,,,,,,,,magenta,I
0.0,1.0,0.0,0.0,4.0,4.0,407.2522720089182,3.0,1.0,phase_1,,,,,,,,,,,,,white,triangle
423.0,8.0,4.0,1.0,2.0,2.0,534.3709510052577,3.0,1.0,phase_1,,,,,,,,,,,,,blue,flipped triangle
419.0,4.0,4.0,0.0,1.0,1.0,387.3743619769811,3.0,1.0,phase_1,,,,,,,,,,,,,magenta,I
201.0,7.0,2.0,1.0,2.0,2.0,412.0004059805069,3.0,1.0,phase_1,,,,,,,,,,,,,orange,circle
34.0,5.0,0.5,1.0,4.0,4.0,308.2346750015858,3.0,1.0,phase_1,,,,,,,,,,,,,yellow,square
72.0,1.0,0.5,0.0,4.0,4.0,390.7250380143523,3.0,1.0,phase_1,,,,,,,,,,,,,white,triangle
88.0,2.0,1.0,0.0,1.0,1.0,357.460364990402,3.0,1.0,phase_1,,,,,,,,,,,,,gray,diamond
208.0,3.0,2.0,0.0,1.0,1.0,549.5802590157837,3.0,1.0,phase_1,,,,,,,,,,,,,cyan,hexagon
0.0,5.0,0.0,1.0,2.0,2.0,424.0224080276675,3.0,1.0,phase_1,,,,,,,,,,,,,yellow,square
0.0,6.0,0.0,1.0,3.0,3.0,346.0470240097493,3.0,1.0,phase_1,,,,,,,,,,,,,green,cross
75.0,1.0,0.5,0.0,3.0,3.0,291.25741799362,3.0,1.0,phase_1,,,,,,,,,,,,,white,triangle
82.0,2.0,1.0,0.0,1.0,1.0,392.2042049816809,3.0,1.0,phase_1,,,,,,,,,,,,,gray,diamond
0.0,6.0,0.0,1.0,1.0,1.0,402.642303990433,3.0,2.0,phase_1,,,,,,,,,,,,,green,cross
56.0,1.0,0.5,0.0,4.0,4.0,394.0543429926038,3.0,1.0,phase_1,,,,,,,,,,,,,white,triangle
77.0,6.0,1.0,1.0,1.0,1.0,304.2773049965035,3.0,1.0,phase_1,,,,,,,,,,,,,green,cross
177.0,7.0,2.0,1.0,3.0,3.0,471.762215020135,3.0,1.0,phase_1,,,,,,,,,,,,,orange,circle
0.0,8.0,0.0,1.0,4.0,4.0,505.71380599285476,3.0,1.0,phase_1,,,,,,,,,,,,,blue,flipped triangle
386.0,4.0,4.0,0.0,2.0,2.0,427.3845060088206,3.0,1.0,phase_1,,,,,,,,,,,,,magenta,I
101.0,6.0,1.0,1.0,3.0,3.0,397.6893539947923,3.0,1.0,phase_1,,,,,,,,,,,,,green,cross
176.0,3.0,2.0,0.0,2.0,2.0,476.8312700034585,3.0,1.0,phase_1,,,,,,,,,,,,,cyan,hexagon
43.0,5.0,0.5,1.0,4.0,4.0,309.8661520052701,3.0,1.0,phase_1,,,,,,,,,,,,,yellow,square
186.0,7.0,2.0,1.0,1.0,1.0,386.748807010008,3.0,1.0,phase_1,,,,,,,,,,,,,orange,circle
106.0,2.0,1.0,0.0,3.0,3.0,333.1689790065866,3.0,1.0,phase_1,,,,,,,,,,,,,gray,diamond
395.0,8.0,4.0,1.0,2.0,2.0,341.1916200129781,3.0,1.0,phase_1,,,,,,,,,,,,,blue,flipped triangle
198.0,7.0,2.0,1.0,4.0,4.0,308.7617289857007,3.0,1.0,phase_1,,,,,,,,,,,,,orange,circle
378.0,8.0,4.0,1.0,3.0,3.0,321.3345099939033,3.0,1.0,phase_1,,,,,,,,,,,,,blue,flipped triangle
190.0,3.0,2.0,0.0,1.0,1.0,309.2237739765551,3.0,1.0,phase_1,,,,,,,,,,,,,cyan,hexagon
0.0,8.0,0.0,1.0,4.0,4.0,345.3529459948186,3.0,1.0,phase_1,,,,,,,,,,,,,blue,flipped triangle
189.0,3.0,2.0,0.0,3.0,3.0,369.3679429998155,3.0,1.0,phase_1,,,,,,,,,,,,,cyan,hexagon
120.0,2.0,1.0,0.0,3.0,3.0,334.0088129916694,3.0,1.0,phase_1,,,,,,,,,,,,,gray,diamond
114.0,2.0,1.0,0.0,1.0,1.0,333.9081710146274,3.0,1.0,phase_1,,,,,,,,,,,,,gray,diamond
0.0,4.0,0.0,0.0,4.0,4.0,348.7734099908266,3.0,1.0,phase_1,,,,,,,,,,,,,magenta,I
81.0,6.0,1.0,1.0,3.0,3.0,338.5437149845529,3.0,1.0,phase_1,,,,,,,,,,,,,green,cross
405.0,8.0,4.0,1.0,1.0,1.0,346.966159006115,3.0,1.0,phase_1,,,,,,,,,,,,,blue,flipped triangle
384.0,4.0,4.0,0.0,4.0,4.0,317.742201994406,3.0,1.0,phase_1,,,,,,,,,,,,,magenta,I
0.0,6.0,0.0,1.0,4.0,4.0,384.5995599986054,3.0,1.0,phase_1,,,,,,,,,,,,,green,cross
101.0,2.0,1.0,0.0,2.0,2.0,393.1841840094421,3.0,1.0,phase_1,,,,,,,,,,,,,gray,diamond
0.0,6.0,0.0,1.0,1.0,1.0,382.8735580027569,3.0,1.0,phase_1,,,,,,,,,,,,,green,cross
64.0,5.0,0.5,1.0,3.0,3.0,352.9650109994691,3.0,1.0,phase_1,,,,,,,,,,,,,yellow,square
94.0,2.0,1.0,0.0,2.0,2.0,587.1221539855469,3.0,1.0,phase_1,,,,,,,,,,,,,gray,diamond
105.0,6.0,1.0,1.0,4.0,4.0,356.1702450097073,3.0,1.0,phase_1,,,,,,,,,,,,,green,cross
384.0,8.0,4.0,1.0,4.0,4.0,340.368938021129,3.0,1.0,phase_1,,,,,,,,,,,,,blue,flipped triangle
94.0,6.0,1.0,1.0,3.0,3.0,432.084516971372,3.0,1.0,phase_1,,,,,,,,,,,,,green,cross
47.0,1.0,0.5,0.0,1.0,1.0,397.4586770054884,3.0,1.0,phase_1,,,,,,,,,,,,,white,triangle
0.0,3.0,0.0,0.0,1.0,1.0,411.357789998874,3.0,1.0,phase_1,,,,,,,,,,,,,cyan,hexagon
35.0,5.0,0.5,1.0,2.0,2.0,409.7601240209769,3.0,1.0,phase_1,,,,,,,,,,,,,yellow,square
222.0,3.0,2.0,0.0,1.0,1.0,311.5740880020894,3.0,1.0,phase_1,,,,,,,,,,,,,cyan,hexagon
200.0,7.0,2.0,1.0,4.0,4.0,392.3708380025346,3.0,1.0,phase_1,,,,,,,,,,,,,orange,circle
193.0,7.0,2.0,1.0,2.0,2.0,381.1997969751246,3.0,1.0,phase_1,,,,,,,,,,,,,orange,circle
389.0,4.0,4.0,0.0,3.0,3.0,346.2899599981028,3.0,1.0,phase_1,,,,,,,,,,,,,magenta,I
410.0,4.0,4.0,0.0,2.0,2.0,490.9812609839719,3.0,1.0,phase_1,,,,,,,,,,,,,magenta,I
40.0,5.0,0.5,1.0,4.0,4.0,383.0229739833157,3.0,1.0,phase_1,,,,,,,,,,,,,yellow,square
0.0,4.0,0.0,0.0,1.0,1.0,345.9501790057402,3.0,1.0,phase_1,,,,,,,,,,,,,magenta,I
0.0,4.0,0.0,0.0,2.0,2.0,462.5963239814155,3.0,1.0,phase_1,,,,,,,,,,,,,magenta,I
79.0,6.0,1.0,1.0,3.0,3.0,359.3637129815761,3.0,1.0,phase_1,,,,,,,,,,,,,green,cross
57.0,5.0,0.5,1.0,1.0,1.0,350.2759139810223,3.0,1.0,phase_1,,,,,,,,,,,,,yellow,square
109.0,2.0,1.0,0.0,2.0,2.0,407.1243480138946,3.0,1.0,phase_1,,,,,,,,,,,,,gray,diamond
74.0,5.0,0.5,1.0,2.0,2.0,732.6671580085531,3.0,1.0,phase_1,,,,,,,,,,,,,yellow,square
35.0,1.0,0.5,0.0,2.0,2.0,453.2173819898162,3.0,1.0,phase_1,,,,,,,,,,,,,white,triangle
177.0,3.0,2.0,0.0,1.0,1.0,338.6851389950607,3.0,1.0,phase_1,,,,,,,,,,,,,cyan,hexagon
0.0,1.0,0.0,0.0,2.0,2.0,330.6754719815217,3.0,1.0,phase_1,,,,,,,,,,,,,white,triangle
60.0,1.0,0.5,0.0,2.0,2.0,317.4784450093284,3.0,1.0,phase_1,,,,,,,,,,,,,white,triangle
189.0,7.0,2.0,1.0,2.0,2.0,328.9835139876231,3.0,1.0,phase_1,,,,,,,,,,,,,orange,circle
399.0,4.0,4.0,0.0,2.0,2.0,341.3906409987248,3.0,1.0,phase_1,,,,,,,,,,,,,magenta,I
85.0,2.0,1.0,0.0,4.0,4.0,378.7458220031112,3.0,1.0,phase_1,,,,,,,,,,,,,gray,diamond
0.0,3.0,0.0,0.0,1.0,1.0,432.0078500022646,3.0,1.0,phase_1,,,,,,,,,,,,,cyan,hexagon
52.0,1.0,0.5,0.0,4.0,4.0,365.0125279964413,3.0,1.0,phase_1,,,,,,,,,,,,,white,triangle
91.0,2.0,1.0,0.0,1.0,1.0,332.1784169820603,3.0,1.0,phase_1,,,,,,,,,,,,,gray,diamond
122.0,6.0,1.0,1.0,2.0,2.0,389.9090190243441,3.0,1.0,phase_1,,,,,,,,,,,,,green,cross
404.0,8.0,4.0,1.0,1.0,1.0,449.5829929946922,3.0,1.0,phase_1,,,,,,,,,,,,,blue,flipped triangle
114.0,6.0,1.0,1.0,3.0,3.0,322.4610119941644,3.0,1.0,phase_1,,,,,,,,,,,,,green,cross
209.0,7.0,2.0,1.0,2.0,2.0,381.9008520222269,3.0,1.0,phase_1,,,,,,,,,,,,,orange,circle
48.0,1.0,0.5,0.0,2.0,2.0,324.5515640010126,3.0,1.0,phase_1,,,,,,,,,,,,,white,triangle
418.0,8.0,4.0,1.0,4.0,4.0,336.5450260171201,3.0,1.0,phase_1,,,,,,,,,,,,,blue,flipped triangle
417.0,8.0,4.0,1.0,2.0,2.0,325.3261260106228,3.0,1.0,phase_1,,,,,,,,,,,,,blue,flipped triangle
206.0,7.0,2.0,1.0,3.0,3.0,317.8420329932123,3.0,1.0,phase_1,,,,,,,,,,,,,orange,circle
68.0,1.0,0.5,0.0,3.0,3.0,351.3255110010505,3.0,1.0,phase_1,,,,,,,,,,,,,white,triangle
0.0,1.0,0.0,0.0,4.0,4.0,304.2594460130203,3.0,1.0,phase_1,,,,,,,,,,,,,white,triangle
0.0,8.0,0.0,1.0,4.0,4.0,328.1633899896405,3.0,1.0,phase_1,,,,,,,,,,,,,blue,flipped triangle
394.0,4.0,4.0,0.0,1.0,1.0,362.4865309975575,3.0,2.0,phase_1,,,,,,,,,,,,,magenta,I
0.0,1.0,0.0,0.0,4.0,4.0,466.2097980035469,3.0,1.0,phase_1,,,,,,,,,,,,,white,triangle
122.0,2.0,1.0,0.0,4.0,4.0,466.8814860051498,3.0,1.0,phase_1,,,,,,,,,,,,,gray,diamond
403.0,4.0,4.0,0.0,1.0,1.0,523.6225349945016,4.0,1.0,phase_1,,,,,,,,,,,,,magenta,I
64.0,1.0,0.5,0.0,4.0,4.0,378.4777690016199,4.0,1.0,phase_1,,,,,,,,,,,,,white,triangle
0.0,3.0,0.0,0.0,1.0,1.0,368.7918100040406,4.0,1.0,phase_1,,,,,,,,,,,,,cyan,hexagon
418.0,4.0,4.0,0.0,3.0,3.0,448.8539320009295,4.0,1.0,phase_1,,,,,,,,,,,,,magenta,I
0.0,7.0,0.0,1.0,1.0,1.0,348.1937189935706,4.0,1.0,phase_1,,,,,,,,,,,,,orange,circle
118.0,6.0,1.0,1.0,4.0,4.0,391.4678699802607,4.0,1.0,phase_1,,,,,,,,,,,,,green,cross
62.0,1.0,0.5,0.0,3.0,3.0,403.2882440078538,4.0,1.0,phase_1,,,,,,,,,,,,,white,triangle
87.0,6.0,1.0,1.0,2.0,2.0,461.8475880124606,4.0,1.0,phase_1,,,,,,,,,,,,,green,cross
405.0,4.0,4.0,0.0,3.0,3.0,440.1838880148716,4.0,1.0,phase_1,,,,,,,,,,,,,magenta,I
0.0,1.0,0.0,0.0,4.0,4.0,453.9394510211423,4.0,1.0,phase_1,,,,,,,,,,,,,white,triangle
406.0,4.0,4.0,0.0,3.0,3.0,420.028355991235,4.0,1.0,phase_1,,,,,,,,,,,,,magenta,I
208.0,7.0,2.0,1.0,4.0,4.0,408.0567729834001,4.0,1.0,phase_1,,,,,,,,,,,,,orange,circle
85.0,6.0,1.0,1.0,1.0,1.0,465.5807710078079,4.0,1.0,phase_1,,,,,,,,,,,,,green,cross
0.0,5.0,0.0,1.0,4.0,4.0,464.406206010608,4.0,1.0,phase_1,,,,,,,,,,,,,yellow,square
392.0,8.0,4.0,1.0,3.0,3.0,329.6909479831811,4.0,1.0,phase_1,,,,,,,,,,,,,blue,flipped triangle
36.0,5.0,0.5,1.0,1.0,1.0,342.3589199956041,4.0,1.0,phase_1,,,,,,,,,,,,,yellow,square
45.0,1.0,0.5,0.0,3.0,3.0,412.704479007516,4.0,1.0,phase_1,,,,,,,,,,,,,white,triangle
27.0,5.0,0.5,1.0,4.0,4.0,401.8150199844967,4.0,1.0,phase_1,,,,,,,,,,,,,yellow,square
183.0,3.0,2.0,0.0,2.0,2.0,323.374278988922,4.0,1.0,phase_1,,,,,,,,,,,,,cyan,hexagon
119.0,2.0,1.0,0.0,4.0,4.0,399.2444119940046,4.0,1.0,phase_1,,,,,,,,,,,,,gray,diamond
217.0,3.0,2.0,0.0,4.0,4.0,367.2065240098163,4.0,1.0,phase_1,,,,,,,,,,,,,cyan,hexagon
74.0,1.0,0.5,0.0,1.0,1.0,345.6006000051275,4.0,1.0,phase_1,,,,,,,,,,,,,white,triangle
403.0,8.0,4.0,1.0,1.0,1.0,359.0877969982102,4.0,1.0,phase_1,,,,,,,,,,,,,blue,flipped triangle
87.0,2.0,1.0,0.0,2.0,2.0,391.4241309976205,4.0,1.0,phase_1,,,,,,,,,,,,,gray,diamond
176.0,7.0,2.0,1.0,2.0,2.0,358.9597319951281,4.0,1.0,phase_1,,,,,,,,,,,,,orange,circle
64.0,5.0,0.5,1.0,2.0,2.0,371.8593459925614,4.0,1.0,phase_1,,,,,,,,,,,,,yellow,square
221.0,7.0,2.0,1.0,4.0,4.0,361.1688890086952,4.0,1.0,phase_1,,,,,,,,,,,,,orange,circle
31.0,5.0,0.5,1.0,3.0,3.0,572.6460279838648,4.0,1.0,phase_1,,,,,,,,,,,,,yellow,square
104.0,6.0,1.0,1.0,4.0,4.0,407.3672529775649,4.0,1.0,phase_1,,,,,,,,,,,,,green,cross
0.0,8.0,0.0,1.0,3.0,3.0,304.2719160148408,4.0,1.0,phase_1,,,,,,,,,,,,,blue,flipped triangle
0.0,2.0,0.0,0.0,1.0,1.0,371.8577209801879,4.0,1.0,phase_1,,,,,,,,,,,,,gray,diamond
180.0,3.0,2.0,0.0,1.0,1.0,386.9973469991237,4.0,1.0,phase_1,,,,,,,,,,,,,cyan,hexagon
34.0,1.0,0.5,0.0,1.0,1.0,350.6808529782574,4.0,1.0,phase_1,,,,,,,,,,,,,white,triangle
0.0,3.0,0.0,0.0,1.0,1.0,341.2721089844126,4.0,1.0,phase_1,,,,,,,,,,,,,cyan,hexagon
0.0,8.0,0.0,1.0,1.0,1.0,309.9398759950418,4.0,1.0,phase_1,,,,,,,,,,,,,blue,flipped triangle
61.0,5.0,0.5,1.0,1.0,1.0,264.9608950014226,4.0,1.0,phase_1,,,,,,,,,,,,,yellow,square
60.0,5.0,0.5,1.0,2.0,2.0,411.2131550209597,4.0,1.0,phase_1,,,,,,,,,,,,,yellow,square
120.0,6.0,1.0,1.0,4.0,4.0,387.6400309964083,4.0,1.0,phase_1,,,,,,,,,,,,,green,cross
71.0,1.0,0.5,0.0,4.0,4.0,513.4980540024117,4.0,1.0,phase_1,,,,,,,,,,,,,white,triangle
0.0,4.0,0.0,0.0,1.0,1.0,478.7115909857675,4.0,1.0,phase_1,,,,,,,,,,,,,magenta,I
406.0,8.0,4.0,1.0,1.0,1.0,378.3723909873515,4.0,1.0,phase_1,,,,,,,,,,,,,blue,flipped triangle
187.0,3.0,2.0,0.0,4.0,4.0,458.9171470142901,4.0,1.0,phase_1,,,,,,,,,,,,,cyan,hexagon
381.0,4.0,4.0,0.0,3.0,3.0,389.7644440003205,4.0,1.0,phase_1,,,,,,,,,,,,,magenta,I
38.0,1.0,0.5,0.0,4.0,4.0,392.8831980156246,4.0,1.0,phase_1,,,,,,,,,,,,,white,triangle
0.0,4.0,0.0,0.0,1.0,1.0,449.7405609872658,4.0,1.0,phase_1,,,,,,,,,,,,,magenta,I
400.0,4.0,4.0,0.0,3.0,3.0,369.7722729993984,4.0,1.0,phase_1,,,,,,,,,,,,,magenta,I
73.0,5.0,0.5,1.0,3.0,3.0,338.1315679871477,4.0,1.0,phase_1,,,,,,,,,,,,,yellow,square
27.0,1.0,0.5,0.0,3.0,3.0,370.6311949936207,4.0,1.0,phase_1,,,,,,,,,,,,,white,triangle
118.0,2.0,1.0,0.0,2.0,2.0,325.9273409785237,4.0,2.0,phase_1,,,,,,,,,,,,,gray,diamond
0.0,3.0,0.0,0.0,1.0,1.0,408.00226299325,4.0,1.0,phase_1,,,,,,,,,,,,,cyan,hexagon
401.0,4.0,4.0,0.0,4.0,4.0,440.5900469864718,4.0,1.0,phase_1,,,,,,,,,,,,,magenta,I
0.0,2.0,0.0,0.0,2.0,2.0,316.9728789944201,4.0,1.0,phase_1,,,,,,,,,,,,,gray,diamond
37.0,1.0,0.5,0.0,2.0,2.0,531.578674010234,4.0,1.0,phase_1,,,,,,,,,,,,,white,triangle
89.0,6.0,1.0,1.0,3.0,3.0,411.8531970016192,4.0,1.0,phase_1,,,,,,,,,,,,,green,cross
105.0,2.0,1.0,0.0,3.0,3.0,420.9943590103648,4.0,1.0,phase_1,,,,,,,,,,,,,gray,diamond
420.0,8.0,4.0,1.0,1.0,1.0,363.8965169957373,4.0,1.0,phase_1,,,,,,,,,,,,,blue,flipped triangle
0.0,2.0,0.0,0.0,4.0,4.0,367.827584996121,4.0,1.0,phase_1,,,,,,,,,,,,,gray,diamond
206.0,3.0,2.0,0.0,4.0,4.0,354.092903988203,4.0,1.0,phase_1,,,,,,,,,,,,,cyan,hexagon
217.0,3.0,2.0,0.0,3.0,3.0,366.2507910048589,4.0,1.0,phase_1,,,,,,,,,,,,,cyan,hexagon
220.0,7.0,2.0,1.0,1.0,1.0,320.9718340076506,4.0,1.0,phase_1,,,,,,,,,,,,,orange,circle
187.0,7.0,2.0,1.0,1.0,1.0,403.6172349879052,4.0,1.0,phase_1,,,,,,,,,,,,,orange,circle
389.0,8.0,4.0,1.0,3.0,3.0,345.3628509887494,4.0,1.0,phase_1,,,,,,,,,,,,,blue,flipped triangle
0.0,2.0,0.0,0.0,2.0,2.0,457.7363219868857,4.0,1.0,phase_1,,,,,,,,,,,,,gray,diamond
36.0,1.0,0.5,0.0,3.0,3.0,379.5516010141,4.0,1.0,phase_1,,,,,,,,,,,,,white,triangle
116.0,2.0,1.0,0.0,3.0,3.0,392.0143640134483,4.0,1.0,phase_1,,,,,,,,,,,,,gray,diamond
27.0,5.0,0.5,1.0,1.0,1.0,629.8285160155501,4.0,1.0,phase_1,,,,,,,,,,,,,yellow,square
116.0,6.0,1.0,1.0,3.0,3.0,483.0813099979423,4.0,1.0,phase_1,,,,,,,,,,,,,green,cross
101.0,6.0,1.0,1.0,4.0,4.0,404.962615983095,4.0,1.0,phase_1,,,,,,,,,,,,,green,cross
41.0,5.0,0.5,1.0,4.0,4.0,385.8792269893456,4.0,1.0,phase_1,,,,,,,,,,,,,yellow,square
0.0,4.0,0.0,0.0,3.0,3.0,349.8263729852624,4.0,1.0,phase_1,,,,,,,,,,,,,magenta,I
108.0,6.0,1.0,1.0,2.0,2.0,362.78737502289,4.0,1.0,phase_1,,,,,,,,,,,,,green,cross
35.0,5.0,0.5,1.0,2.0,2.0,542.8312389994971,4.0,1.0,phase_1,,,,,,,,,,,,,yellow,square
205.0,7.0,2.0,1.0,3.0,3.0,465.6189790111966,4.0,1.0,phase_1,,,,,,,,,,,,,orange,circle
197.0,7.0,2.0,1.0,4.0,4.0,365.0521390081849,4.0,1.0,phase_1,,,,,,,,,,,,,orange,circle
0.0,3.0,0.0,0.0,2.0,2.0,354.1317100171,4.0,1.0,phase_1,,,,,,,,,,,,,cyan,hexagon
88.0,6.0,1.0,1.0,1.0,1.0,385.9809479909017,4.0,1.0,phase_1,,,,,,,,,,,,,green,cross
377.0,4.0,4.0,0.0,4.0,4.0,329.8892409948166,4.0,1.0,phase_1,,,,,,,,,,,,,magenta,I
208.0,7.0,2.0,1.0,1.0,1.0,481.3439729914535,4.0,1.0,phase_1,,,,,,,,,,,,,orange,circle
106.0,6.0,1.0,1.0,2.0,2.0,379.4761339959223,4.0,1.0,phase_1,,,,,,,,,,,,,green,cross
91.0,2.0,1.0,0.0,1.0,1.0,456.5768230240792,4.0,1.0,phase_1,,,,,,,,,,,,,gray,diamond
177.0,3.0,2.0,0.0,3.0,3.0,346.0009910049848,4.0,1.0,phase_1,,,,,,,,,,,,,cyan,hexagon
88.0,6.0,1.0,1.0,2.0,2.0,401.79107899894,4.0,1.0,phase_1,,,,,,,,,,,,,green,cross
115.0,6.0,1.0,1.0,2.0,2.0,371.1913030128926,4.0,1.0,phase_1,,,,,,,,,,,,,green,cross
115.0,2.0,1.0,0.0,4.0,4.0,360.4331029928289,4.0,1.0,phase_1,,,,,,,,,,,,,gray,diamond
76.0,6.0,1.0,1.0,3.0,3.0,449.6410520223435,4.0,1.0,phase_1,,,,,,,,,,,,,green,cross
56.0,5.0,0.5,1.0,3.0,3.0,552.3817969951779,4.0,1.0,phase_1,,,,,,,,,,,,,yellow,square
29.0,1.0,0.5,0.0,2.0,2.0,448.4398950007744,4.0,1.0,phase_1,,,,,,,,,,,,,white,triangle
394.0,4.0,4.0,0.0,2.0,2.0,370.6854780029971,4.0,1.0,phase_1,,,,,,,,,,,,,magenta,I
0.0,5.0,0.0,1.0,1.0,1.0,363.6658840114251,4.0,1.0,phase_1,,,,,,,,,,,,,yellow,square
181.0,7.0,2.0,1.0,1.0,1.0,304.7833919990808,4.0,1.0,phase_1,,,,,,,,,,,,,orange,circle
208.0,3.0,2.0,0.0,4.0,4.0,341.2270510161761,4.0,1.0,phase_1,,,,,,,,,,,,,cyan,hexagon
421.0,8.0,4.0,1.0,2.0,2.0,349.6490140096284,4.0,1.0,phase_1,,,,,,,,,,,,,blue,flipped triangle
399.0,8.0,4.0,1.0,3.0,3.0,407.4813120241742,4.0,1.0,phase_1,,,,,,,,,,,,,blue,flipped triangle
67.0,1.0,0.5,0.0,2.0,2.0,373.4461420099251,4.0,1.0,phase_1,,,,,,,,,,,,,white,triangle
197.0,3.0,2.0,0.0,1.0,1.0,453.1705979898106,4.0,1.0,phase_1,,,,,,,,,,,,,cyan,hexagon
94.0,2.0,1.0,0.0,2.0,2.0,398.6088740057312,4.0,1.0,phase_1,,,,,,,,,,,,,gray,diamond
37.0,5.0,0.5,1.0,3.0,3.0,345.2146519848611,4.0,1.0,phase_1,,,,,,,,,,,,,yellow,square
45.0,5.0,0.5,1.0,2.0,2.0,423.3201509923674,4.0,1.0,phase_1,,,,,,,,,,,,,yellow,square
0.0,7.0,0.0,1.0,2.0,2.0,356.3407800102141,4.0,1.0,phase_1,,,,,,,,,,,,,orange,circle
394.0,8.0,4.0,1.0,2.0,2.0,320.5059980100486,4.0,1.0,phase_1,,,,,,,,,,,,,blue,flipped triangle
0.0,1.0,0.5,0.0,5.0,5.0,996.4936799951828,1.0,1.0,phase_2,go,250.0,250.0,1.0,,,,,,,,,white,triangle
0.0,3.0,2.0,0.0,5.0,5.0,353.6822570022195,1.0,1.0,phase_2,go,250.0,250.0,1.0,,,,,,,,,cyan,hexagon
0.0,2.0,1.0,0.0,5.0,5.0,364.5108299970161,1.0,1.0,phase_2,go,250.0,250.0,1.0,,,,,,,,,gray,diamond
0.0,3.0,2.0,0.0,5.0,5.0,310.3856509842444,1.0,1.0,phase_2,go,250.0,250.0,1.0,,,,,,,,,cyan,hexagon
0.0,3.0,2.0,0.0,5.0,5.0,330.8929510239977,1.0,1.0,phase_2,go,250.0,250.0,1.0,,,,,,,,,cyan,hexagon
0.0,6.0,1.0,1.0,6.0,0.0,0.0,1.0,1.0,phase_2,stop,250.0,250.0,4.0,,,,,,,,,green,cross
0.0,8.0,4.0,1.0,5.0,5.0,320.229269011179,1.0,1.0,phase_2,stop,250.0,300.0,3.0,,,,,,,,,blue,flipped triangle
0.0,5.0,0.5,1.0,6.0,0.0,0.0,1.0,1.0,phase_2,stop,200.0,300.0,4.0,,,,,,,,,yellow,square
0.0,5.0,0.5,1.0,6.0,6.0,549.3423340085428,1.0,1.0,phase_2,go,200.0,350.0,1.0,,,,,,,,,yellow,square
0.0,7.0,2.0,1.0,5.0,5.0,468.9182139991317,1.0,1.0,phase_2,stop,200.0,350.0,3.0,,,,,,,,,orange,circle
0.0,6.0,1.0,1.0,6.0,6.0,483.7483059964143,1.0,1.0,phase_2,stop,150.0,350.0,3.0,,,,,,,,,green,cross
0.0,4.0,4.0,0.0,6.0,6.0,788.7182169943117,1.0,1.0,phase_2,go,150.0,300.0,1.0,,,,,,,,,magenta,I
0.0,7.0,2.0,1.0,5.0,0.0,0.0,1.0,1.0,phase_2,stop,150.0,300.0,4.0,,,,,,,,,orange,circle
0.0,6.0,1.0,1.0,6.0,0.0,0.0,1.0,1.0,phase_2,stop,200.0,300.0,4.0,,,,,,,,,green,cross
0.0,4.0,4.0,0.0,6.0,6.0,847.9341510101222,1.0,1.0,phase_2,go,200.0,350.0,1.0,,,,,,,,,magenta,I
0.0,8.0,4.0,1.0,6.0,0.0,0.0,1.0,1.0,phase_2,stop,200.0,350.0,4.0,,,,,,,,,blue,flipped triangle
0.0,8.0,4.0,1.0,5.0,0.0,0.0,1.0,1.0,phase_2,stop,200.0,400.0,4.0,,,,,,,,,blue,flipped triangle
0.0,7.0,2.0,1.0,6.0,6.0,387.2869159968104,1.0,1.0,phase_2,stop,250.0,400.0,3.0,,,,,,,,,orange,circle
0.0,6.0,1.0,1.0,6.0,6.0,647.8803489881102,1.0,1.0,phase_2,go,250.0,350.0,1.0,,,,,,,,,green,cross
0.0,3.0,2.0,0.0,5.0,5.0,615.538596000988,1.0,1.0,phase_2,go,250.0,350.0,1.0,,,,,,,,,cyan,hexagon
0.0,8.0,4.0,1.0,6.0,6.0,492.0250129944179,1.0,1.0,phase_2,stop,250.0,350.0,3.0,,,,,,,,,blue,flipped triangle
0.0,6.0,1.0,1.0,5.0,0.0,0.0,1.0,1.0,phase_2,stop,250.0,300.0,4.0,,,,,,,,,green,cross
0.0,6.0,1.0,1.0,6.0,0.0,0.0,1.0,1.0,phase_2,stop,300.0,300.0,4.0,,,,,,,,,green,cross
0.0,2.0,1.0,0.0,6.0,6.0,528.5401130095124,1.0,1.0,phase_2,go,300.0,350.0,1.0,,,,,,,,,gray,diamond
0.0,4.0,4.0,0.0,6.0,6.0,451.0212500172201,1.0,1.0,phase_2,go,300.0,350.0,1.0,,,,,,,,,magenta,I
0.0,5.0,0.5,1.0,5.0,5.0,326.0601999936625,1.0,1.0,phase_2,go,300.0,350.0,1.0,,,,,,,,,yellow,square
0.0,6.0,1.0,1.0,5.0,5.0,438.3734480070416,1.0,1.0,phase_2,go,300.0,350.0,1.0,,,,,,,,,green,cross
0.0,4.0,4.0,0.0,6.0,6.0,363.0715720064472,1.0,1.0,phase_2,go,300.0,350.0,1.0,,,,,,,,,magenta,I
0.0,6.0,1.0,1.0,6.0,6.0,372.7489880111534,1.0,1.0,phase_2,stop,300.0,350.0,3.0,,,,,,,,,green,cross
0.0,3.0,2.0,0.0,6.0,6.0,713.5849129990675,1.0,1.0,phase_2,go,300.0,300.0,1.0,,,,,,,,,cyan,hexagon
0.0,4.0,4.0,0.0,5.0,5.0,362.7140109892934,1.0,1.0,phase_2,go,300.0,300.0,1.0,,,,,,,,,magenta,I
0.0,2.0,1.0,0.0,5.0,5.0,420.3553429979365,1.0,1.0,phase_2,go,300.0,300.0,1.0,,,,,,,,,gray,diamond
0.0,4.0,4.0,0.0,5.0,5.0,401.0920060100034,1.0,1.0,phase_2,go,300.0,300.0,1.0,,,,,,,,,magenta,I
0.0,8.0,4.0,1.0,5.0,0.0,0.0,1.0,1.0,phase_2,stop,300.0,300.0,4.0,,,,,,,,,blue,flipped triangle
0.0,4.0,4.0,0.0,5.0,5.0,572.6088229857851,1.0,1.0,phase_2,go,350.0,300.0,1.0,,,,,,,,,magenta,I
0.0,7.0,2.0,1.0,5.0,0.0,0.0,1.0,1.0,phase_2,stop,350.0,300.0,4.0,,,,,,,,,orange,circle
0.0,5.0,0.5,1.0,5.0,5.0,433.3219159743748,2.0,1.0,phase_2,stop,400.0,300.0,3.0,,,,,,,,,yellow,square
0.0,2.0,1.0,0.0,6.0,6.0,396.9583979924209,2.0,1.0,phase_2,go,350.0,300.0,1.0,,,,,,,,,gray,diamond
0.0,7.0,2.0,1.0,6.0,6.0,342.5894899992272,2.0,1.0,phase_2,stop,350.0,300.0,3.0,,,,,,,,,orange,circle
0.0,5.0,0.5,1.0,6.0,6.0,557.1419250045437,2.0,1.0,phase_2,stop,350.0,250.0,3.0,,,,,,,,,yellow,square
0.0,2.0,1.0,0.0,5.0,5.0,365.4241889889817,2.0,1.0,phase_2,go,350.0,200.0,1.0,,,,,,,,,gray,diamond
0.0,2.0,1.0,0.0,6.0,6.0,479.8838519782293,2.0,1.0,phase_2,go,350.0,200.0,1.0,,,,,,,,,gray,diamond
0.0,6.0,1.0,1.0,5.0,5.0,277.7487639978062,2.0,1.0,phase_2,stop,350.0,200.0,3.0,,,,,,,,,green,cross
0.0,1.0,0.5,0.0,6.0,6.0,447.3910390224773,2.0,1.0,phase_2,go,300.0,200.0,1.0,,,,,,,,,white,triangle
0.0,4.0,4.0,0.0,5.0,5.0,391.7977300006896,2.0,1.0,phase_2,go,300.0,200.0,1.0,,,,,,,,,magenta,I
0.0,4.0,4.0,0.0,5.0,5.0,538.3351740019862,2.0,1.0,phase_2,go,300.0,200.0,1.0,,,,,,,,,magenta,I
0.0,2.0,1.0,0.0,5.0,5.0,329.7035360010341,2.0,1.0,phase_2,go,300.0,200.0,1.0,,,,,,,,,gray,diamond
0.0,8.0,4.0,1.0,5.0,5.0,341.0084680072032,2.0,1.0,phase_2,stop,300.0,200.0,3.0,,,,,,,,,blue,flipped triangle
0.0,3.0,2.0,0.0,6.0,6.0,361.3839150057174,2.0,1.0,phase_2,go,250.0,200.0,1.0,,,,,,,,,cyan,hexagon
0.0,3.0,2.0,0.0,6.0,6.0,354.2954260192346,2.0,1.0,phase_2,go,250.0,200.0,1.0,,,,,,,,,cyan,hexagon
0.0,7.0,2.0,1.0,6.0,6.0,364.6911469986662,2.0,1.0,phase_2,stop,250.0,200.0,3.0,,,,,,,,,orange,circle
0.0,1.0,0.5,0.0,6.0,6.0,399.609631014755,2.0,1.0,phase_2,go,250.0,150.0,1.0,,,,,,,,,white,triangle
0.0,1.0,0.5,0.0,6.0,6.0,333.3496070117689,2.0,1.0,phase_2,go,250.0,150.0,1.0,,,,,,,,,white,triangle
0.0,7.0,2.0,1.0,6.0,6.0,368.0571540025994,2.0,1.0,phase_2,stop,250.0,150.0,3.0,,,,,,,,,orange,circle
0.0,8.0,4.0,1.0,6.0,0.0,0.0,2.0,1.0,phase_2,stop,250.0,100.0,4.0,,,,,,,,,blue,flipped triangle
0.0,1.0,0.5,0.0,5.0,5.0,391.4520630205516,2.0,1.0,phase_2,go,250.0,150.0,1.0,,,,,,,,,white,triangle
0.0,3.0,2.0,0.0,5.0,5.0,649.768873990979,2.0,1.0,phase_2,go,250.0,150.0,1.0,,,,,,,,,cyan,hexagon
0.0,8.0,4.0,1.0,6.0,0.0,0.0,2.0,1.0,phase_2,stop,250.0,150.0,4.0,,,,,,,,,blue,flipped triangle
0.0,1.0,0.5,0.0,5.0,5.0,259.6786030044313,2.0,1.0,phase_2,go,250.0,200.0,1.0,,,,,,,,,white,triangle
0.0,8.0,4.0,1.0,6.0,6.0,449.0267609944567,2.0,1.0,phase_2,go,250.0,200.0,1.0,,,,,,,,,blue,flipped triangle
0.0,2.0,1.0,0.0,5.0,5.0,248.9801140036434,2.0,1.0,phase_2,go,250.0,200.0,1.0,,,,,,,,,gray,diamond
0.0,2.0,1.0,0.0,5.0,5.0,329.7722569841426,2.0,1.0,phase_2,go,250.0,200.0,1.0,,,,,,,,,gray,diamond
0.0,6.0,1.0,1.0,5.0,5.0,317.1386850008275,2.0,1.0,phase_2,stop,250.0,200.0,3.0,,,,,,,,,green,cross
0.0,1.0,0.5,0.0,5.0,5.0,463.7056909850798,2.0,1.0,phase_2,go,200.0,200.0,1.0,,,,,,,,,white,triangle
0.0,2.0,1.0,0.0,5.0,5.0,422.9275090037845,2.0,1.0,phase_2,go,200.0,200.0,1.0,,,,,,,,,gray,diamond
0.0,5.0,0.5,1.0,5.0,5.0,341.3651510199997,2.0,1.0,phase_2,stop,200.0,200.0,3.0,,,,,,,,,yellow,square
0.0,1.0,0.5,0.0,6.0,6.0,380.0803599879145,2.0,1.0,phase_2,go,150.0,200.0,1.0,,,,,,,,,white,triangle
0.0,4.0,4.0,0.0,5.0,5.0,433.7681000179145,2.0,1.0,phase_2,go,150.0,200.0,1.0,,,,,,,,,magenta,I
0.0,6.0,1.0,1.0,5.0,5.0,299.2670979874674,2.0,1.0,phase_2,stop,150.0,200.0,3.0,,,,,,,,,green,cross
0.0,2.0,1.0,0.0,6.0,6.0,514.0627050132025,2.0,1.0,phase_2,go,100.0,200.0,1.0,,,,,,,,,gray,diamond
0.0,7.0,2.0,1.0,6.0,6.0,348.2884730037767,2.0,1.0,phase_2,stop,100.0,200.0,3.0,,,,,,,,,orange,circle
0.0,5.0,0.5,1.0,6.0,0.0,0.0,2.0,1.0,phase_2,stop,100.0,150.0,4.0,,,,,,,,,yellow,square
0.0,1.0,0.5,0.0,5.0,5.0,387.8255059826188,3.0,1.0,phase_2,go,100.0,200.0,1.0,,,,,,,,,white,triangle
0.0,2.0,1.0,0.0,6.0,6.0,287.5801250047516,3.0,1.0,phase_2,go,100.0,200.0,1.0,,,,,,,,,gray,diamond
0.0,6.0,1.0,1.0,6.0,6.0,345.0190800067503,3.0,1.0,phase_2,stop,100.0,200.0,3.0,,,,,,,,,green,cross
0.0,2.0,1.0,0.0,6.0,6.0,673.954784986563,3.0,1.0,phase_2,go,100.0,150.0,1.0,,,,,,,,,gray,diamond
0.0,6.0,1.0,1.0,5.0,0.0,0.0,3.0,1.0,phase_2,stop,100.0,150.0,4.0,,,,,,,,,green,cross
0.0,3.0,2.0,0.0,6.0,6.0,312.3139789968263,3.0,1.0,phase_2,go,150.0,150.0,1.0,,,,,,,,,cyan,hexagon
0.0,5.0,0.5,1.0,5.0,5.0,451.8083260045387,3.0,1.0,phase_2,go,150.0,150.0,1.0,,,,,,,,,yellow,square
0.0,4.0,4.0,0.0,6.0,6.0,532.0422730001155,3.0,1.0,phase_2,go,150.0,150.0,1.0,,,,,,,,,magenta,I
0.0,2.0,1.0,0.0,6.0,6.0,519.1426450037397,3.0,1.0,phase_2,go,150.0,150.0,1.0,,,,,,,,,gray,diamond
0.0,8.0,4.0,1.0,6.0,0.0,0.0,3.0,1.0,phase_2,stop,150.0,150.0,4.0,,,,,,,,,blue,flipped triangle
0.0,2.0,1.0,0.0,6.0,6.0,589.6962319966406,3.0,1.0,phase_2,go,150.0,200.0,1.0,,,,,,,,,gray,diamond
0.0,8.0,4.0,1.0,5.0,5.0,328.7077719869558,3.0,1.0,phase_2,stop,150.0,200.0,3.0,,,,,,,,,blue,flipped triangle
0.0,7.0,2.0,1.0,6.0,0.0,0.0,3.0,1.0,phase_2,stop,100.0,200.0,4.0,,,,,,,,,orange,circle
0.0,4.0,4.0,0.0,6.0,6.0,332.4851469951682,3.0,1.0,phase_2,go,100.0,250.0,1.0,,,,,,,,,magenta,I
0.0,4.0,4.0,0.0,5.0,5.0,523.7844999937806,3.0,1.0,phase_2,go,100.0,250.0,1.0,,,,,,,,,magenta,I
0.0,6.0,1.0,1.0,6.0,6.0,523.3489699894562,3.0,1.0,phase_2,go,100.0,250.0,1.0,,,,,,,,,green,cross
0.0,6.0,1.0,1.0,5.0,5.0,312.478307983838,3.0,1.0,phase_2,go,100.0,250.0,1.0,,,,,,,,,green,cross
0.0,8.0,4.0,1.0,5.0,0.0,0.0,3.0,1.0,phase_2,stop,100.0,250.0,4.0,,,,,,,,,blue,flipped triangle
0.0,1.0,0.5,0.0,6.0,6.0,304.2665140237659,3.0,1.0,phase_2,go,150.0,250.0,1.0,,,,,,,,,white,triangle
0.0,5.0,0.5,1.0,6.0,0.0,0.0,3.0,1.0,phase_2,stop,150.0,250.0,4.0,,,,,,,,,yellow,square
0.0,3.0,2.0,0.0,6.0,6.0,451.2127559864893,3.0,1.0,phase_2,go,150.0,300.0,1.0,,,,,,,,,cyan,hexagon
0.0,7.0,2.0,1.0,6.0,6.0,486.3900439813733,3.0,1.0,phase_2,stop,150.0,300.0,3.0,,,,,,,,,orange,circle
0.0,4.0,4.0,0.0,6.0,6.0,791.9922470173333,3.0,1.0,phase_2,go,150.0,250.0,1.0,,,,,,,,,magenta,I
0.0,3.0,2.0,0.0,6.0,6.0,645.4734620056115,3.0,1.0,phase_2,go,150.0,250.0,1.0,,,,,,,,,cyan,hexagon
0.0,8.0,4.0,1.0,6.0,6.0,589.3776029988658,3.0,1.0,phase_2,go,150.0,250.0,1.0,,,,,,,,,blue,flipped triangle
0.0,5.0,0.5,1.0,5.0,0.0,0.0,3.0,1.0,phase_2,stop,150.0,250.0,4.0,,,,,,,,,yellow,square
0.0,2.0,1.0,0.0,5.0,5.0,388.1252169958316,3.0,1.0,phase_2,go,200.0,250.0,1.0,,,,,,,,,gray,diamond
0.0,8.0,4.0,1.0,5.0,5.0,469.3064059829339,3.0,1.0,phase_2,go,200.0,250.0,1.0,,,,,,,,,blue,flipped triangle
0.0,6.0,1.0,1.0,6.0,0.0,0.0,3.0,1.0,phase_2,stop,200.0,250.0,4.0,,,,,,,,,green,cross
0.0,7.0,2.0,1.0,5.0,5.0,536.3160629931372,3.0,1.0,phase_2,go,200.0,300.0,1.0,,,,,,,,,orange,circle
0.0,4.0,4.0,0.0,6.0,6.0,574.0031530149281,3.0,1.0,phase_2,go,200.0,300.0,1.0,,,,,,,,,magenta,I
0.0,6.0,1.0,1.0,5.0,5.0,402.0086200034711,3.0,1.0,phase_2,stop,200.0,300.0,3.0,,,,,,,,,green,cross
0.0,1.0,0.5,0.0,6.0,6.0,560.6552189856302,3.0,1.0,phase_2,go,150.0,300.0,1.0,,,,,,,,,white,triangle
0.0,1.0,0.5,0.0,5.0,5.0,335.9684199967887,3.0,1.0,phase_2,go,150.0,300.0,1.0,,,,,,,,,white,triangle
0.0,1.0,0.5,0.0,5.0,5.0,416.8126709992066,3.0,1.0,phase_2,go,150.0,300.0,1.0,,,,,,,,,white,triangle
0.0,7.0,2.0,1.0,5.0,5.0,408.5548960138112,3.0,1.0,phase_2,stop,150.0,300.0,3.0,,,,,,,,,orange,circle
0.0,6.0,1.0,1.0,6.0,6.0,341.4348360092845,4.0,1.0,phase_2,stop,100.0,300.0,3.0,,,,,,,,,green,cross
0.0,1.0,0.5,0.0,6.0,6.0,553.8766079989728,4.0,1.0,phase_2,go,100.0,250.0,1.0,,,,,,,,,white,triangle
0.0,5.0,0.5,1.0,5.0,5.0,545.8216860133689,4.0,1.0,phase_2,go,100.0,250.0,1.0,,,,,,,,,yellow,square
0.0,7.0,2.0,1.0,5.0,0.0,0.0,4.0,1.0,phase_2,stop,100.0,250.0,4.0,,,,,,,,,orange,circle
0.0,6.0,1.0,1.0,6.0,6.0,423.7703429826069,4.0,1.0,phase_2,go,150.0,250.0,1.0,,,,,,,,,green,cross
0.0,8.0,4.0,1.0,6.0,0.0,0.0,4.0,1.0,phase_2,stop,150.0,250.0,4.0,,,,,,,,,blue,flipped triangle
0.0,5.0,0.5,1.0,6.0,6.0,458.0098500009626,4.0,1.0,phase_2,stop,150.0,300.0,3.0,,,,,,,,,yellow,square
0.0,8.0,4.0,1.0,6.0,6.0,581.276031996822,4.0,1.0,phase_2,go,150.0,250.0,1.0,,,,,,,,,blue,flipped triangle
0.0,2.0,1.0,0.0,6.0,6.0,494.5158300106413,4.0,1.0,phase_2,go,150.0,250.0,1.0,,,,,,,,,gray,diamond
0.0,4.0,4.0,0.0,5.0,5.0,291.9920060085132,4.0,1.0,phase_2,go,150.0,250.0,1.0,,,,,,,,,magenta,I
0.0,2.0,1.0,0.0,6.0,6.0,316.6776160069275,4.0,1.0,phase_2,go,150.0,250.0,1.0,,,,,,,,,gray,diamond
0.0,5.0,0.5,1.0,5.0,5.0,283.3323669910896,4.0,1.0,phase_2,stop,150.0,250.0,3.0,,,,,,,,,yellow,square
0.0,3.0,2.0,0.0,5.0,5.0,420.5661360174417,4.0,1.0,phase_2,go,100.0,250.0,1.0,,,,,,,,,cyan,hexagon
0.0,8.0,4.0,1.0,5.0,5.0,362.7593480050564,4.0,1.0,phase_2,go,100.0,250.0,1.0,,,,,,,,,blue,flipped triangle
0.0,2.0,1.0,0.0,6.0,6.0,354.4732280133758,4.0,1.0,phase_2,go,100.0,250.0,1.0,,,,,,,,,gray,diamond
0.0,3.0,2.0,0.0,6.0,6.0,341.8506840243935,4.0,1.0,phase_2,go,100.0,250.0,1.0,,,,,,,,,cyan,hexagon
0.0,7.0,2.0,1.0,6.0,6.0,333.4434719872661,4.0,1.0,phase_2,go,100.0,250.0,1.0,,,,,,,,,orange,circle
0.0,7.0,2.0,1.0,6.0,0.0,0.0,4.0,1.0,phase_2,stop,100.0,250.0,4.0,,,,,,,,,orange,circle
0.0,8.0,4.0,1.0,5.0,5.0,432.7846189844422,4.0,1.0,phase_2,go,100.0,300.0,1.0,,,,,,,,,blue,flipped triangle
0.0,5.0,0.5,1.0,5.0,0.0,0.0,4.0,1.0,phase_2,stop,100.0,300.0,4.0,,,,,,,,,yellow,square
0.0,3.0,2.0,0.0,6.0,6.0,326.0259589878842,4.0,1.0,phase_2,go,150.0,300.0,1.0,,,,,,,,,cyan,hexagon
0.0,8.0,4.0,1.0,6.0,6.0,404.9083270074334,4.0,1.0,phase_2,stop,150.0,300.0,3.0,,,,,,,,,blue,flipped triangle
0.0,2.0,1.0,0.0,6.0,6.0,572.9618780023884,4.0,1.0,phase_2,go,150.0,250.0,1.0,,,,,,,,,gray,diamond
0.0,8.0,4.0,1.0,6.0,0.0,0.0,4.0,1.0,phase_2,stop,150.0,250.0,4.0,,,,,,,,,blue,flipped triangle
0.0,6.0,1.0,1.0,5.0,5.0,339.865068992367,4.0,1.0,phase_2,stop,150.0,300.0,3.0,,,,,,,,,green,cross
0.0,7.0,2.0,1.0,6.0,6.0,284.5526309974957,4.0,1.0,phase_2,go,100.0,300.0,1.0,,,,,,,,,orange,circle
0.0,7.0,2.0,1.0,5.0,0.0,0.0,4.0,1.0,phase_2,stop,100.0,300.0,4.0,,,,,,,,,orange,circle
0.0,8.0,4.0,1.0,6.0,6.0,285.5266070109792,4.0,1.0,phase_2,stop,150.0,300.0,3.0,,,,,,,,,blue,flipped triangle
0.0,4.0,4.0,0.0,5.0,5.0,330.7147179730236,4.0,1.0,phase_2,go,150.0,250.0,1.0,,,,,,,,,magenta,I
0.0,1.0,0.5,0.0,6.0,6.0,274.7998239938169,4.0,1.0,phase_2,go,150.0,250.0,1.0,,,,,,,,,white,triangle
0.0,3.0,2.0,0.0,5.0,5.0,397.772040014388,4.0,1.0,phase_2,go,150.0,250.0,1.0,,,,,,,,,cyan,hexagon
0.0,6.0,1.0,1.0,6.0,6.0,274.7720579791348,4.0,1.0,phase_2,stop,150.0,250.0,3.0,,,,,,,,,green,cross
0.0,7.0,2.0,1.0,6.0,0.0,0.0,4.0,1.0,phase_2,stop,150.0,200.0,4.0,,,,,,,,,orange,circle
0.0,8.0,4.0,1.0,5.0,5.0,280.068898020545,4.0,1.0,phase_2,go,150.0,250.0,1.0,,,,,,,,,blue,flipped triangle
0.0,8.0,4.0,1.0,5.0,5.0,335.6302389875054,4.0,1.0,phase_2,stop,150.0,250.0,3.0,,,,,,,,,blue,flipped triangle
0.0,5.0,0.5,1.0,5.0,5.0,504.14359002024867,4.0,1.0,phase_2,go,100.0,250.0,1.0,,,,,,,,,yellow,square
0.0,3.0,2.0,0.0,5.0,5.0,542.5852129992563,5.0,1.0,phase_2,go,100.0,250.0,1.0,,,,,,,,,cyan,hexagon
0.0,7.0,2.0,1.0,5.0,5.0,454.2573249782435,5.0,1.0,phase_2,go,100.0,250.0,1.0,,,,,,,,,orange,circle
0.0,3.0,2.0,0.0,5.0,5.0,408.0161519814282,5.0,1.0,phase_2,go,100.0,250.0,1.0,,,,,,,,,cyan,hexagon
0.0,6.0,1.0,1.0,6.0,6.0,400.6496029905975,5.0,1.0,phase_2,stop,100.0,250.0,3.0,,,,,,,,,green,cross
0.0,3.0,2.0,0.0,6.0,6.0,601.94130599848,5.0,1.0,phase_2,go,100.0,200.0,1.0,,,,,,,,,cyan,hexagon
0.0,7.0,2.0,1.0,5.0,0.0,0.0,5.0,1.0,phase_2,stop,100.0,200.0,4.0,,,,,,,,,orange,circle
0.0,4.0,4.0,0.0,6.0,6.0,535.6580470106564,5.0,1.0,phase_2,go,150.0,200.0,1.0,,,,,,,,,magenta,I
0.0,5.0,0.5,1.0,6.0,6.0,538.6422979936469,5.0,1.0,phase_2,go,150.0,200.0,1.0,,,,,,,,,yellow,square
0.0,8.0,4.0,1.0,5.0,5.0,371.9511000090278,5.0,1.0,phase_2,stop,150.0,200.0,3.0,,,,,,,,,blue,flipped triangle
0.0,1.0,0.5,0.0,6.0,6.0,483.2713909854647,5.0,1.0,phase_2,go,100.0,200.0,1.0,,,,,,,,,white,triangle
0.0,5.0,0.5,1.0,6.0,0.0,0.0,5.0,1.0,phase_2,stop,100.0,200.0,4.0,,,,,,,,,yellow,square
0.0,6.0,1.0,1.0,6.0,6.0,351.1620549834333,5.0,1.0,phase_2,go,100.0,250.0,1.0,,,,,,,,,green,cross
0.0,3.0,2.0,0.0,6.0,6.0,407.990186009556,5.0,1.0,phase_2,go,100.0,250.0,1.0,,,,,,,,,cyan,hexagon
0.0,1.0,0.5,0.0,6.0,6.0,441.6418530163355,5.0,1.0,phase_2,go,100.0,250.0,1.0,,,,,,,,,white,triangle
0.0,6.0,1.0,1.0,5.0,5.0,320.3905719856266,5.0,1.0,phase_2,go,100.0,250.0,1.0,,,,,,,,,green,cross
0.0,7.0,2.0,1.0,5.0,5.0,283.8782100006938,5.0,1.0,phase_2,stop,100.0,250.0,3.0,,,,,,,,,orange,circle
0.0,3.0,2.0,0.0,5.0,5.0,377.2338129929267,5.0,1.0,phase_2,go,50.0,250.0,1.0,,,,,,,,,cyan,hexagon
0.0,1.0,0.5,0.0,5.0,5.0,410.0373440014664,5.0,1.0,phase_2,go,50.0,250.0,1.0,,,,,,,,,white,triangle
0.0,3.0,2.0,0.0,6.0,6.0,241.6166540060658,5.0,1.0,phase_2,go,50.0,250.0,1.0,,,,,,,,,cyan,hexagon
0.0,5.0,0.5,1.0,6.0,6.0,377.9123549757059,5.0,1.0,phase_2,stop,50.0,250.0,3.0,,,,,,,,,yellow,square
0.0,6.0,1.0,1.0,5.0,5.0,580.7324149936903,5.0,1.0,phase_2,go,50.0,200.0,1.0,,,,,,,,,green,cross
0.0,5.0,0.5,1.0,5.0,0.0,0.0,5.0,1.0,phase_2,stop,50.0,200.0,4.0,,,,,,,,,yellow,square
0.0,2.0,1.0,0.0,5.0,5.0,357.6963609957602,5.0,1.0,phase_2,go,100.0,200.0,1.0,,,,,,,,,gray,diamond
0.0,8.0,4.0,1.0,6.0,0.0,0.0,5.0,1.0,phase_2,stop,100.0,200.0,4.0,,,,,,,,,blue,flipped triangle
0.0,2.0,1.0,0.0,6.0,6.0,328.8203219999559,5.0,1.0,phase_2,go,100.0,250.0,1.0,,,,,,,,,gray,diamond
0.0,2.0,1.0,0.0,5.0,5.0,303.6397050018422,5.0,1.0,phase_2,go,100.0,250.0,1.0,,,,,,,,,gray,diamond
0.0,8.0,4.0,1.0,5.0,5.0,319.0621759858913,5.0,1.0,phase_2,stop,100.0,250.0,3.0,,,,,,,,,blue,flipped triangle
0.0,1.0,0.5,0.0,5.0,5.0,822.6917469874024,5.0,1.0,phase_2,go,50.0,250.0,1.0,,,,,,,,,white,triangle
0.0,3.0,2.0,0.0,6.0,6.0,600.9436670283321,5.0,1.0,phase_2,go,50.0,250.0,1.0,,,,,,,,,cyan,hexagon
0.0,2.0,1.0,0.0,6.0,6.0,464.2823970061727,5.0,1.0,phase_2,go,50.0,250.0,1.0,,,,,,,,,gray,diamond
0.0,7.0,2.0,1.0,5.0,0.0,0.0,5.0,1.0,phase_2,stop,50.0,250.0,4.0,,,,,,,,,orange,circle
0.0,7.0,2.0,1.0,6.0,6.0,467.5924580078572,5.0,1.0,phase_2,stop,100.0,250.0,3.0,,,,,,,,,orange,circle
0.0,3.0,2.0,0.0,5.0,5.0,571.0364410188049,5.0,1.0,phase_2,go,100.0,200.0,1.0,,,,,,,,,cyan,hexagon
0.0,2.0,1.0,0.0,6.0,6.0,504.55608798074536,5.0,1.0,phase_2,go,100.0,200.0,1.0,,,,,,,,,gray,diamond
0.0,5.0,0.5,1.0,6.0,0.0,0.0,5.0,1.0,phase_2,stop,100.0,200.0,4.0,,,,,,,,,yellow,square
0.0,1.0,0.5,0.0,6.0,6.0,435.6554120022338,5.0,1.0,phase_2,go,100.0,250.0,1.0,,,,,,,,,white,triangle
0.0,5.0,0.5,1.0,6.0,6.0,350.9933059976902,6.0,1.0,phase_2,go,100.0,250.0,1.0,,,,,,,,,yellow,square
0.0,3.0,2.0,0.0,5.0,5.0,376.2462800077628,6.0,1.0,phase_2,go,100.0,250.0,1.0,,,,,,,,,cyan,hexagon
0.0,1.0,0.5,0.0,6.0,6.0,297.9845580121036,6.0,1.0,phase_2,go,100.0,250.0,1.0,,,,,,,,,white,triangle
0.0,7.0,2.0,1.0,5.0,0.0,0.0,6.0,1.0,phase_2,stop,100.0,250.0,4.0,,,,,,,,,orange,circle
0.0,7.0,2.0,1.0,6.0,6.0,456.9005240045953,6.0,1.0,phase_2,stop,150.0,250.0,3.0,,,,,,,,,orange,circle
0.0,2.0,1.0,0.0,5.0,5.0,558.5060300072655,6.0,1.0,phase_2,go,150.0,200.0,1.0,,,,,,,,,gray,diamond
0.0,7.0,2.0,1.0,6.0,0.0,0.0,6.0,1.0,phase_2,stop,150.0,200.0,4.0,,,,,,,,,orange,circle
0.0,5.0,0.5,1.0,6.0,0.0,0.0,6.0,1.0,phase_2,stop,150.0,250.0,4.0,,,,,,,,,yellow,square
0.0,4.0,4.0,0.0,5.0,5.0,346.9590070017148,6.0,1.0,phase_2,go,150.0,300.0,1.0,,,,,,,,,magenta,I
0.0,1.0,0.5,0.0,6.0,6.0,561.011764977593,6.0,1.0,phase_2,go,150.0,300.0,1.0,,,,,,,,,white,triangle
0.0,8.0,4.0,1.0,5.0,0.0,0.0,6.0,1.0,phase_2,stop,150.0,300.0,4.0,,,,,,,,,blue,flipped triangle
0.0,8.0,4.0,1.0,5.0,0.0,0.0,6.0,1.0,phase_2,stop,200.0,300.0,4.0,,,,,,,,,blue,flipped triangle
0.0,5.0,0.5,1.0,5.0,5.0,427.9468029853888,6.0,1.0,phase_2,stop,250.0,300.0,3.0,,,,,,,,,yellow,square
0.0,1.0,0.5,0.0,5.0,5.0,599.888283002656,6.0,1.0,phase_2,go,200.0,300.0,1.0,,,,,,,,,white,triangle
0.0,4.0,4.0,0.0,6.0,6.0,409.4192910124548,6.0,1.0,phase_2,go,200.0,300.0,1.0,,,,,,,,,magenta,I
0.0,1.0,0.5,0.0,5.0,5.0,654.9931579793338,6.0,1.0,phase_2,go,200.0,300.0,1.0,,,,,,,,,white,triangle
0.0,4.0,4.0,0.0,6.0,6.0,558.056575973751,6.0,1.0,phase_2,go,200.0,300.0,1.0,,,,,,,,,magenta,I
0.0,5.0,0.5,1.0,5.0,5.0,387.8179549938068,6.0,1.0,phase_2,stop,200.0,300.0,3.0,,,,,,,,,yellow,square
0.0,3.0,2.0,0.0,5.0,5.0,627.4026019964367,6.0,1.0,phase_2,go,150.0,300.0,1.0,,,,,,,,,cyan,hexagon
0.0,5.0,0.5,1.0,5.0,0.0,0.0,6.0,1.0,phase_2,stop,150.0,300.0,4.0,,,,,,,,,yellow,square
0.0,1.0,0.5,0.0,6.0,6.0,445.7198059826623,6.0,1.0,phase_2,go,200.0,300.0,1.0,,,,,,,,,white,triangle
0.0,2.0,1.0,0.0,5.0,5.0,528.5751859773882,6.0,1.0,phase_2,go,200.0,300.0,1.0,,,,,,,,,gray,diamond
0.0,5.0,0.5,1.0,6.0,0.0,0.0,6.0,1.0,phase_2,stop,200.0,300.0,4.0,,,,,,,,,yellow,square
0.0,2.0,1.0,0.0,6.0,6.0,451.3037170108873,6.0,1.0,phase_2,go,200.0,350.0,1.0,,,,,,,,,gray,diamond
0.0,3.0,2.0,0.0,6.0,6.0,460.3839379851706,6.0,1.0,phase_2,go,200.0,350.0,1.0,,,,,,,,,cyan,hexagon
0.0,5.0,0.5,1.0,6.0,0.0,0.0,6.0,1.0,phase_2,stop,200.0,350.0,4.0,,,,,,,,,yellow,square
0.0,6.0,1.0,1.0,5.0,0.0,0.0,6.0,1.0,phase_2,stop,200.0,400.0,4.0,,,,,,,,,green,cross
0.0,7.0,2.0,1.0,6.0,6.0,329.2334959842264,6.0,1.0,phase_2,stop,250.0,400.0,3.0,,,,,,,,,orange,circle
0.0,8.0,4.0,1.0,6.0,6.0,362.7112749963999,6.0,1.0,phase_2,go,250.0,350.0,1.0,,,,,,,,,blue,flipped triangle
0.0,5.0,0.5,1.0,6.0,6.0,317.4407180049456,6.0,1.0,phase_2,stop,250.0,350.0,3.0,,,,,,,,,yellow,square
0.0,6.0,1.0,1.0,5.0,5.0,375.2835800114553,6.0,1.0,phase_2,stop,250.0,300.0,3.0,,,,,,,,,green,cross
0.0,1.0,0.5,0.0,6.0,6.0,412.6565979968291,6.0,1.0,phase_2,go,200.0,300.0,1.0,,,,,,,,,white,triangle
0.0,1.0,0.5,0.0,5.0,5.0,514.9820249935146,6.0,1.0,phase_2,go,200.0,300.0,1.0,,,,,,,,,white,triangle
0.0,8.0,4.0,1.0,5.0,0.0,0.0,6.0,1.0,phase_2,stop,200.0,300.0,4.0,,,,,,,,,blue,flipped triangle
0.0,4.0,4.0,0.0,5.0,5.0,358.2656740036327,6.0,1.0,phase_2,go,250.0,300.0,1.0,,,,,,,,,magenta,I
0.0,6.0,1.0,1.0,6.0,6.0,356.6894489922561,6.0,1.0,phase_2,stop,250.0,300.0,3.0,,,,,,,,,green,cross
0.0,4.0,4.0,0.0,6.0,6.0,389.8093349998817,7.0,1.0,phase_2,go,250.0,250.0,1.0,,,,,,,,,magenta,I
0.0,7.0,2.0,1.0,5.0,5.0,311.785427009454,7.0,1.0,phase_2,go,250.0,250.0,1.0,,,,,,,,,orange,circle
0.0,6.0,1.0,1.0,6.0,6.0,392.5813309906516,7.0,1.0,phase_2,stop,250.0,250.0,3.0,,,,,,,,,green,cross
0.0,4.0,4.0,0.0,5.0,5.0,381.7883250012528,7.0,1.0,phase_2,go,250.0,200.0,1.0,,,,,,,,,magenta,I
0.0,1.0,0.5,0.0,5.0,5.0,462.1880509948823,7.0,1.0,phase_2,go,250.0,200.0,1.0,,,,,,,,,white,triangle
0.0,4.0,4.0,0.0,5.0,5.0,495.4664460092317,7.0,1.0,phase_2,go,250.0,200.0,1.0,,,,,,,,,magenta,I
0.0,1.0,0.5,0.0,5.0,5.0,465.8762229955755,7.0,1.0,phase_2,go,250.0,200.0,1.0,,,,,,,,,white,triangle
0.0,2.0,1.0,0.0,5.0,5.0,388.5919859749265,7.0,1.0,phase_2,go,250.0,200.0,1.0,,,,,,,,,gray,diamond
0.0,6.0,1.0,1.0,6.0,0.0,0.0,7.0,1.0,phase_2,stop,250.0,200.0,4.0,,,,,,,,,green,cross
0.0,1.0,0.5,0.0,6.0,6.0,389.7974440187681,7.0,1.0,phase_2,go,250.0,250.0,1.0,,,,,,,,,white,triangle
0.0,5.0,0.5,1.0,6.0,6.0,411.3012019952293,7.0,1.0,phase_2,go,250.0,250.0,1.0,,,,,,,,,yellow,square
0.0,1.0,0.5,0.0,5.0,5.0,286.6212310036644,7.0,1.0,phase_2,go,250.0,250.0,1.0,,,,,,,,,white,triangle
0.0,4.0,4.0,0.0,5.0,5.0,400.4341609834227,7.0,1.0,phase_2,go,250.0,250.0,1.0,,,,,,,,,magenta,I
0.0,6.0,1.0,1.0,6.0,6.0,302.3749479907565,7.0,1.0,phase_2,stop,250.0,250.0,3.0,,,,,,,,,green,cross
0.0,6.0,1.0,1.0,5.0,0.0,0.0,7.0,1.0,phase_2,stop,250.0,200.0,4.0,,,,,,,,,green,cross
0.0,4.0,4.0,0.0,6.0,6.0,461.7115019937046,7.0,1.0,phase_2,go,300.0,200.0,1.0,,,,,,,,,magenta,I
0.0,4.0,4.0,0.0,6.0,6.0,425.9630290034693,7.0,1.0,phase_2,go,300.0,200.0,1.0,,,,,,,,,magenta,I
0.0,8.0,4.0,1.0,6.0,6.0,347.9133530054241,7.0,1.0,phase_2,go,300.0,200.0,1.0,,,,,,,,,blue,flipped triangle
0.0,8.0,4.0,1.0,6.0,6.0,316.7784289980773,7.0,1.0,phase_2,stop,300.0,200.0,3.0,,,,,,,,,blue,flipped triangle
0.0,3.0,2.0,0.0,5.0,5.0,553.7180800165515,7.0,1.0,phase_2,go,300.0,150.0,1.0,,,,,,,,,cyan,hexagon
0.0,5.0,0.5,1.0,5.0,5.0,386.2302530033048,7.0,1.0,phase_2,stop,300.0,150.0,3.0,,,,,,,,,yellow,square
0.0,8.0,4.0,1.0,5.0,0.0,0.0,7.0,1.0,phase_2,stop,250.0,150.0,4.0,,,,,,,,,blue,flipped triangle
0.0,7.0,2.0,1.0,6.0,0.0,0.0,7.0,1.0,phase_2,stop,300.0,150.0,4.0,,,,,,,,,orange,circle
0.0,2.0,1.0,0.0,5.0,5.0,488.8618020049762,7.0,1.0,phase_2,go,300.0,200.0,1.0,,,,,,,,,gray,diamond
0.0,7.0,2.0,1.0,5.0,5.0,435.7772910152562,7.0,1.0,phase_2,go,300.0,200.0,1.0,,,,,,,,,orange,circle
0.0,3.0,2.0,0.0,6.0,6.0,346.9259240082465,7.0,1.0,phase_2,go,300.0,200.0,1.0,,,,,,,,,cyan,hexagon
0.0,2.0,1.0,0.0,5.0,5.0,267.1295329928398,7.0,1.0,phase_2,go,300.0,200.0,1.0,,,,,,,,,gray,diamond
0.0,1.0,0.5,0.0,5.0,5.0,359.4808330235537,7.0,1.0,phase_2,go,300.0,200.0,1.0,,,,,,,,,white,triangle
0.0,4.0,4.0,0.0,6.0,6.0,213.1161649886053,7.0,1.0,phase_2,go,300.0,200.0,1.0,,,,,,,,,magenta,I
0.0,1.0,0.5,0.0,5.0,5.0,272.1169580181595,7.0,1.0,phase_2,go,300.0,200.0,1.0,,,,,,,,,white,triangle
0.0,2.0,1.0,0.0,6.0,6.0,212.0562810159754,7.0,1.0,phase_2,go,300.0,200.0,1.0,,,,,,,,,gray,diamond
0.0,8.0,4.0,1.0,5.0,5.0,415.9922339895274,7.0,1.0,phase_2,stop,300.0,200.0,3.0,,,,,,,,,blue,flipped triangle
0.0,1.0,0.5,0.0,6.0,6.0,653.7065430020448,7.0,1.0,phase_2,go,250.0,200.0,1.0,,,,,,,,,white,triangle
0.0,4.0,4.0,0.0,6.0,6.0,329.7805709880776,7.0,1.0,phase_2,go,250.0,200.0,1.0,,,,,,,,,magenta,I
0.0,4.0,4.0,0.0,6.0,6.0,496.7449379910249,7.0,1.0,phase_2,go,250.0,200.0,1.0,,,,,,,,,magenta,I
0.0,4.0,4.0,0.0,5.0,5.0,376.1252720141783,7.0,1.0,phase_2,go,250.0,200.0,1.0,,,,,,,,,magenta,I
0.0,1.0,0.5,0.0,6.0,6.0,542.6201829977799,8.0,1.0,phase_2,go,250.0,200.0,1.0,,,,,,,,,white,triangle
0.0,7.0,2.0,1.0,6.0,0.0,0.0,8.0,1.0,phase_2,stop,250.0,200.0,4.0,,,,,,,,,orange,circle
0.0,8.0,4.0,1.0,6.0,6.0,343.1467729969881,8.0,1.0,phase_2,stop,250.0,250.0,3.0,,,,,,,,,blue,flipped triangle
0.0,3.0,2.0,0.0,6.0,6.0,736.9865370274056,8.0,1.0,phase_2,go,250.0,200.0,1.0,,,,,,,,,cyan,hexagon
0.0,3.0,2.0,0.0,6.0,6.0,502.4981000169646,8.0,1.0,phase_2,go,250.0,200.0,1.0,,,,,,,,,cyan,hexagon
0.0,2.0,1.0,0.0,5.0,5.0,534.9857749824878,8.0,1.0,phase_2,go,250.0,200.0,1.0,,,,,,,,,gray,diamond
0.0,4.0,4.0,0.0,5.0,5.0,479.7576279961504,8.0,1.0,phase_2,go,250.0,200.0,1.0,,,,,,,,,magenta,I
0.0,2.0,1.0,0.0,6.0,6.0,468.1971299869474,8.0,1.0,phase_2,go,250.0,200.0,1.0,,,,,,,,,gray,diamond
0.0,2.0,1.0,0.0,5.0,5.0,325.3632889827713,8.0,1.0,phase_2,go,250.0,200.0,1.0,,,,,,,,,gray,diamond
0.0,4.0,4.0,0.0,6.0,6.0,324.908968003001,8.0,1.0,phase_2,go,250.0,200.0,1.0,,,,,,,,,magenta,I
0.0,5.0,0.5,1.0,6.0,6.0,337.0256549969781,8.0,1.0,phase_2,stop,250.0,200.0,3.0,,,,,,,,,yellow,square
0.0,1.0,0.5,0.0,5.0,5.0,438.5888669930864,8.0,1.0,phase_2,go,250.0,150.0,1.0,,,,,,,,,white,triangle
0.0,7.0,2.0,1.0,6.0,6.0,574.14134600549,8.0,1.0,phase_2,go,250.0,150.0,1.0,,,,,,,,,orange,circle
0.0,8.0,4.0,1.0,6.0,0.0,0.0,8.0,1.0,phase_2,stop,250.0,150.0,4.0,,,,,,,,,blue,flipped triangle
0.0,5.0,0.5,1.0,5.0,0.0,0.0,8.0,1.0,phase_2,stop,250.0,200.0,4.0,,,,,,,,,yellow,square
0.0,4.0,4.0,0.0,5.0,5.0,507.57350100320764,8.0,1.0,phase_2,go,300.0,200.0,1.0,,,,,,,,,magenta,I
0.0,7.0,2.0,1.0,5.0,5.0,590.9499420085922,8.0,1.0,phase_2,go,300.0,200.0,1.0,,,,,,,,,orange,circle
0.0,3.0,2.0,0.0,6.0,6.0,534.4329889921937,8.0,1.0,phase_2,go,300.0,200.0,1.0,,,,,,,,,cyan,hexagon
0.0,3.0,2.0,0.0,5.0,5.0,455.2808179869316,8.0,1.0,phase_2,go,300.0,200.0,1.0,,,,,,,,,cyan,hexagon
0.0,6.0,1.0,1.0,5.0,5.0,402.2078870038967,8.0,1.0,phase_2,stop,300.0,200.0,3.0,,,,,,,,,green,cross
0.0,5.0,0.5,1.0,5.0,0.0,0.0,8.0,1.0,phase_2,stop,250.0,200.0,4.0,,,,,,,,,yellow,square
0.0,6.0,1.0,1.0,5.0,5.0,706.9125350099057,8.0,1.0,phase_2,go,300.0,200.0,1.0,,,,,,,,,green,cross
0.0,7.0,2.0,1.0,5.0,5.0,401.1079009796958,8.0,1.0,phase_2,stop,300.0,200.0,3.0,,,,,,,,,orange,circle
0.0,5.0,0.5,1.0,5.0,0.0,0.0,8.0,1.0,phase_2,stop,250.0,200.0,4.0,,,,,,,,,yellow,square
0.0,3.0,2.0,0.0,5.0,5.0,809.2880329932086,8.0,1.0,phase_2,go,300.0,200.0,1.0,,,,,,,,,cyan,hexagon
0.0,7.0,2.0,1.0,5.0,5.0,597.6533769862726,8.0,1.0,phase_2,go,300.0,200.0,1.0,,,,,,,,,orange,circle
0.0,5.0,0.5,1.0,5.0,5.0,529.0050850016996,8.0,1.0,phase_2,go,300.0,200.0,1.0,,,,,,,,,yellow,square
0.0,3.0,2.0,0.0,5.0,5.0,430.5244089919142,8.0,1.0,phase_2,go,300.0,200.0,1.0,,,,,,,,,cyan,hexagon
0.0,5.0,0.5,1.0,6.0,0.0,0.0,8.0,1.0,phase_2,stop,300.0,200.0,4.0,,,,,,,,,yellow,square
0.0,3.0,2.0,0.0,6.0,6.0,522.8801760240458,8.0,1.0,phase_2,go,300.0,250.0,1.0,,,,,,,,,cyan,hexagon
0.0,3.0,2.0,0.0,5.0,5.0,553.7213290226646,8.0,1.0,phase_2,go,300.0,250.0,1.0,,,,,,,,,cyan,hexagon
0.0,6.0,1.0,1.0,5.0,0.0,0.0,8.0,1.0,phase_2,stop,300.0,250.0,4.0,,,,,,,,,green,cross
0.0,2.0,1.0,0.0,5.0,5.0,510.9443860128522,8.0,1.0,phase_2,go,350.0,250.0,1.0,,,,,,,,,gray,diamond
0.0,4.0,4.0,0.0,5.0,5.0,434.5577780040912,8.0,1.0,phase_2,go,350.0,250.0,1.0,,,,,,,,,magenta,I
0.0,6.0,1.0,1.0,5.0,5.0,310.5074829945806,8.0,1.0,phase_2,stop,350.0,250.0,3.0,,,,,,,,,green,cross
0.0,7.0,2.0,1.0,5.0,0.0,0.0,8.0,1.0,phase_2,stop,300.0,250.0,4.0,,,,,,,,,orange,circle
0.0,7.0,2.0,1.0,7.0,3.0,2666.362042975379,1.0,1.0,phase_3,,,,,270.0,5.0,108.0,324.0,270.0,216.0,54.0,162.0,orange,circle
0.0,4.0,4.0,0.0,7.0,2.0,2120.4575420124456,1.0,1.0,phase_3,,,,,132.0,3.0,264.0,132.0,220.0,88.0,176.0,44.0,magenta,I
0.0,3.0,2.0,0.0,7.0,2.0,3075.333065993618,1.0,1.0,phase_3,,,,,108.0,2.0,270.0,108.0,216.0,162.0,324.0,54.0,cyan,hexagon
0.0,2.0,1.0,0.0,7.0,5.0,3359.240493999096,1.0,1.0,phase_3,,,,,147.0,3.0,294.0,196.0,245.0,98.0,147.0,49.0,gray,diamond
0.0,3.0,2.0,0.0,7.0,5.0,2777.2318450151943,1.0,1.0,phase_3,,,,,49.0,1.0,294.0,196.0,147.0,245.0,49.0,98.0,cyan,hexagon
0.0,6.0,1.0,1.0,7.0,1.0,2935.3985249763355,1.0,1.0,phase_3,,,,,204.0,6.0,204.0,34.0,170.0,68.0,102.0,136.0,green,cross
0.0,2.0,1.0,0.0,7.0,4.0,2657.469087978825,1.0,2.0,phase_3,,,,,88.0,2.0,176.0,132.0,44.0,88.0,220.0,264.0,gray,diamond
0.0,6.0,1.0,1.0,7.0,4.0,1780.8425789989997,1.0,1.0,phase_3,,,,,196.0,4.0,98.0,245.0,294.0,196.0,147.0,49.0,green,cross
0.0,1.0,0.5,0.0,7.0,6.0,2198.287276987685,1.0,1.0,phase_3,,,,,216.0,4.0,162.0,270.0,54.0,324.0,108.0,216.0,white,triangle
0.0,4.0,4.0,0.0,7.0,6.0,2421.6358869744,1.0,1.0,phase_3,,,,,196.0,4.0,294.0,245.0,49.0,98.0,147.0,196.0,magenta,I
0.0,3.0,2.0,0.0,7.0,4.0,2403.8754400098696,1.0,1.0,phase_3,,,,,162.0,3.0,54.0,216.0,270.0,162.0,324.0,108.0,cyan,hexagon
0.0,8.0,4.0,1.0,7.0,5.0,1954.92779702181,1.0,1.0,phase_3,,,,,220.0,5.0,132.0,264.0,44.0,88.0,220.0,176.0,blue,flipped triangle
0.0,3.0,2.0,0.0,7.0,4.0,3756.2689229962416,1.0,1.0,phase_3,,,,,220.0,5.0,264.0,132.0,88.0,220.0,44.0,176.0,cyan,hexagon
0.0,7.0,2.0,1.0,7.0,2.0,3742.5315369910095,1.0,1.0,phase_3,,,,,132.0,3.0,176.0,132.0,88.0,220.0,44.0,264.0,orange,circle
0.0,1.0,0.5,0.0,7.0,5.0,2844.8475699988194,1.0,1.0,phase_3,,,,,204.0,6.0,102.0,34.0,170.0,68.0,204.0,136.0,white,triangle
0.0,7.0,2.0,1.0,7.0,5.0,3385.479688993655,1.0,1.0,phase_3,,,,,156.0,4.0,234.0,78.0,195.0,39.0,156.0,117.0,orange,circle
0.0,8.0,4.0,1.0,7.0,4.0,2218.5156120103784,1.0,1.0,phase_3,,,,,136.0,4.0,204.0,102.0,170.0,136.0,34.0,68.0,blue,flipped triangle
0.0,4.0,4.0,0.0,7.0,4.0,2465.954735991545,1.0,1.0,phase_3,,,,,78.0,2.0,117.0,39.0,234.0,78.0,156.0,195.0,magenta,I
0.0,8.0,4.0,1.0,7.0,5.0,2849.651169992285,1.0,1.0,phase_3,,,,,220.0,5.0,132.0,264.0,88.0,176.0,220.0,44.0,blue,flipped triangle
0.0,8.0,4.0,1.0,7.0,2.0,2627.611584990518,1.0,1.0,phase_3,,,,,216.0,4.0,324.0,216.0,54.0,270.0,108.0,162.0,blue,flipped triangle
0.0,6.0,1.0,1.0,7.0,4.0,1535.6766619952396,2.0,1.0,phase_3,,,,,234.0,6.0,195.0,39.0,78.0,234.0,117.0,156.0,green,cross
0.0,1.0,0.5,0.0,7.0,5.0,1300.5461530119646,2.0,1.0,phase_3,,,,,156.0,4.0,117.0,78.0,234.0,195.0,156.0,39.0,white,triangle
0.0,4.0,4.0,0.0,7.0,4.0,1951.252249011304,2.0,1.0,phase_3,,,,,216.0,4.0,270.0,162.0,108.0,216.0,324.0,54.0,magenta,I
0.0,2.0,1.0,0.0,7.0,6.0,1864.1571890038904,2.0,1.0,phase_3,,,,,44.0,1.0,132.0,220.0,264.0,176.0,88.0,44.0,gray,diamond
0.0,1.0,0.5,0.0,7.0,3.0,1998.273493984016,2.0,1.0,phase_3,,,,,264.0,6.0,176.0,220.0,264.0,132.0,88.0,44.0,white,triangle
0.0,7.0,2.0,1.0,7.0,2.0,2620.312565006316,2.0,1.0,phase_3,,,,,176.0,4.0,264.0,176.0,88.0,220.0,44.0,132.0,orange,circle
0.0,6.0,1.0,1.0,7.0,4.0,3317.16877798317,2.0,1.0,phase_3,,,,,162.0,3.0,270.0,324.0,54.0,162.0,216.0,108.0,green,cross
0.0,7.0,2.0,1.0,7.0,2.0,2429.583446995821,2.0,1.0,phase_3,,,,,147.0,3.0,196.0,147.0,294.0,49.0,245.0,98.0,orange,circle
0.0,2.0,1.0,0.0,7.0,2.0,2252.488030004315,2.0,1.0,phase_3,,,,,156.0,4.0,39.0,156.0,78.0,234.0,117.0,195.0,gray,diamond
0.0,3.0,2.0,0.0,7.0,6.0,2367.616289993748,2.0,1.0,phase_3,,,,,147.0,3.0,196.0,98.0,49.0,294.0,245.0,147.0,cyan,hexagon
0.0,5.0,0.5,1.0,7.0,5.0,1895.1803719974123,2.0,1.0,phase_3,,,,,162.0,3.0,324.0,108.0,216.0,54.0,162.0,270.0,yellow,square
0.0,5.0,0.5,1.0,7.0,3.0,2749.133170000277,2.0,1.0,phase_3,,,,,132.0,3.0,176.0,88.0,132.0,44.0,220.0,264.0,yellow,square
0.0,8.0,4.0,1.0,7.0,1.0,3865.388420992531,2.0,1.0,phase_3,,,,,147.0,3.0,147.0,49.0,294.0,245.0,98.0,196.0,blue,flipped triangle
0.0,5.0,0.5,1.0,7.0,6.0,1940.9711970074568,2.0,1.0,phase_3,,,,,147.0,3.0,98.0,245.0,294.0,49.0,196.0,147.0,yellow,square
0.0,4.0,4.0,0.0,7.0,3.0,3224.919622007292,2.0,1.0,phase_3,,,,,136.0,4.0,170.0,204.0,136.0,68.0,102.0,34.0,magenta,I
0.0,3.0,2.0,0.0,7.0,4.0,2058.172190998448,2.0,1.0,phase_3,,,,,136.0,4.0,102.0,170.0,68.0,136.0,204.0,34.0,cyan,hexagon
0.0,4.0,4.0,0.0,7.0,4.0,2238.1109579873737,2.0,1.0,phase_3,,,,,162.0,3.0,324.0,270.0,54.0,162.0,216.0,108.0,magenta,I
0.0,5.0,0.5,1.0,7.0,3.0,2025.576337997336,2.0,1.0,phase_3,,,,,136.0,4.0,68.0,170.0,136.0,34.0,102.0,204.0,yellow,square
0.0,7.0,2.0,1.0,7.0,3.0,2498.7687270040624,2.0,1.0,phase_3,,,,,324.0,6.0,216.0,54.0,324.0,162.0,270.0,108.0,orange,circle
0.0,7.0,2.0,1.0,7.0,5.0,2749.6495860104915,2.0,1.0,phase_3,,,,,156.0,4.0,117.0,39.0,234.0,195.0,156.0,78.0,orange,circle
0.0,1.0,0.5,0.0,7.0,4.0,1584.7872020094655,3.0,1.0,phase_3,,,,,117.0,3.0,39.0,78.0,234.0,117.0,156.0,195.0,white,triangle
0.0,5.0,0.5,1.0,7.0,6.0,1312.501983018592,3.0,1.0,phase_3,,,,,196.0,4.0,49.0,98.0,245.0,294.0,147.0,196.0,yellow,square
0.0,4.0,4.0,0.0,7.0,4.0,1631.1413410003297,3.0,1.0,phase_3,,,,,136.0,4.0,34.0,68.0,170.0,136.0,102.0,204.0,magenta,I
0.0,5.0,0.5,1.0,7.0,4.0,1507.8497939975932,3.0,1.0,phase_3,,,,,136.0,4.0,204.0,34.0,102.0,136.0,68.0,170.0,yellow,square
0.0,1.0,0.5,0.0,7.0,3.0,1619.608884997433,3.0,1.0,phase_3,,,,,176.0,4.0,132.0,88.0,176.0,264.0,44.0,220.0,white,triangle
0.0,2.0,1.0,0.0,7.0,5.0,1870.6172819947824,3.0,1.0,phase_3,,,,,162.0,3.0,54.0,216.0,270.0,324.0,162.0,108.0,gray,diamond
0.0,7.0,2.0,1.0,7.0,5.0,2005.9875209990423,3.0,1.0,phase_3,,,,,170.0,5.0,68.0,102.0,136.0,204.0,170.0,34.0,orange,circle
0.0,1.0,0.5,0.0,7.0,5.0,1332.5580219971016,3.0,1.0,phase_3,,,,,196.0,4.0,147.0,294.0,245.0,49.0,196.0,98.0,white,triangle
0.0,6.0,1.0,1.0,7.0,5.0,1301.2758860131726,3.0,1.0,phase_3,,,,,195.0,5.0,156.0,234.0,78.0,39.0,195.0,117.0,green,cross
0.0,3.0,2.0,0.0,7.0,1.0,1593.6262659961358,3.0,1.0,phase_3,,,,,136.0,4.0,136.0,204.0,170.0,34.0,102.0,68.0,cyan,hexagon
0.0,4.0,4.0,0.0,7.0,3.0,1978.0201929970644,3.0,1.0,phase_3,,,,,156.0,4.0,117.0,234.0,156.0,78.0,195.0,39.0,magenta,I
0.0,1.0,0.5,0.0,7.0,4.0,1865.7061209960373,3.0,1.0,phase_3,,,,,162.0,3.0,324.0,54.0,108.0,162.0,270.0,216.0,white,triangle
0.0,5.0,0.5,1.0,7.0,5.0,1843.8377680140547,3.0,1.0,phase_3,,,,,162.0,3.0,216.0,108.0,54.0,270.0,162.0,324.0,yellow,square
0.0,8.0,4.0,1.0,7.0,6.0,2047.6205150189344,3.0,1.0,phase_3,,,,,136.0,4.0,204.0,102.0,68.0,170.0,34.0,136.0,blue,flipped triangle
0.0,6.0,1.0,1.0,7.0,4.0,1236.179984989576,3.0,1.0,phase_3,,,,,176.0,4.0,264.0,132.0,220.0,176.0,88.0,44.0,green,cross
0.0,5.0,0.5,1.0,7.0,3.0,1330.1751280087046,3.0,1.0,phase_3,,,,,156.0,4.0,117.0,234.0,156.0,78.0,39.0,195.0,yellow,square
0.0,8.0,4.0,1.0,7.0,4.0,1510.0495740189217,3.0,1.0,phase_3,,,,,196.0,4.0,98.0,245.0,49.0,196.0,147.0,294.0,blue,flipped triangle
0.0,7.0,2.0,1.0,7.0,4.0,1399.8231209989171,3.0,1.0,phase_3,,,,,196.0,4.0,147.0,245.0,294.0,196.0,49.0,98.0,orange,circle
0.0,5.0,0.5,1.0,7.0,2.0,1850.736015010625,3.0,1.0,phase_3,,,,,195.0,5.0,156.0,195.0,234.0,117.0,78.0,39.0,yellow,square
0.0,4.0,4.0,0.0,7.0,3.0,2637.54493300803,3.0,1.0,phase_3,,,,,176.0,4.0,264.0,132.0,176.0,220.0,44.0,88.0,magenta,I
0.0,8.0,4.0,1.0,7.0,4.0,2268.4019249863923,4.0,1.0,phase_3,,,,,108.0,2.0,54.0,324.0,270.0,108.0,216.0,162.0,blue,flipped triangle
0.0,3.0,2.0,0.0,7.0,4.0,1707.490808010334,4.0,1.0,phase_3,,,,,156.0,4.0,195.0,78.0,117.0,156.0,234.0,39.0,cyan,hexagon
0.0,2.0,1.0,0.0,7.0,4.0,1157.3778780002613,4.0,1.0,phase_3,,,,,147.0,3.0,98.0,49.0,294.0,147.0,245.0,196.0,gray,diamond
0.0,1.0,0.5,0.0,7.0,4.0,1271.074382995721,4.0,1.0,phase_3,,,,,147.0,3.0,294.0,49.0,245.0,147.0,98.0,196.0,white,triangle
0.0,2.0,1.0,0.0,7.0,4.0,1837.2220539895352,4.0,1.0,phase_3,,,,,162.0,3.0,324.0,108.0,54.0,162.0,216.0,270.0,gray,diamond
0.0,3.0,2.0,0.0,7.0,6.0,3703.8030739931855,4.0,1.0,phase_3,,,,,176.0,4.0,88.0,44.0,132.0,220.0,264.0,176.0,cyan,hexagon
0.0,2.0,1.0,0.0,7.0,4.0,1194.4759680191055,4.0,1.0,phase_3,,,,,136.0,4.0,34.0,102.0,68.0,136.0,204.0,170.0,gray,diamond
0.0,6.0,1.0,1.0,7.0,1.0,2481.119391013636,4.0,1.0,phase_3,,,,,147.0,3.0,147.0,294.0,49.0,245.0,98.0,196.0,green,cross
0.0,6.0,1.0,1.0,7.0,4.0,1984.4882790057452,4.0,1.0,phase_3,,,,,170.0,5.0,204.0,136.0,34.0,170.0,102.0,68.0,green,cross
0.0,2.0,1.0,0.0,7.0,6.0,1929.340325994417,4.0,1.0,phase_3,,,,,156.0,4.0,117.0,78.0,195.0,39.0,234.0,156.0,gray,diamond
0.0,1.0,0.5,0.0,7.0,6.0,1979.4726030086167,4.0,1.0,phase_3,,,,,136.0,4.0,170.0,34.0,204.0,68.0,102.0,136.0,white,triangle
0.0,6.0,1.0,1.0,7.0,5.0,2561.9473429978825,4.0,1.0,phase_3,,,,,162.0,3.0,54.0,216.0,324.0,108.0,162.0,270.0,green,cross
0.0,6.0,1.0,1.0,7.0,2.0,2023.329471994657,4.0,1.0,phase_3,,,,,176.0,4.0,264.0,176.0,88.0,44.0,220.0,132.0,green,cross
0.0,2.0,1.0,0.0,7.0,4.0,2653.95810699556,4.0,1.0,phase_3,,,,,136.0,4.0,68.0,102.0,204.0,136.0,170.0,34.0,gray,diamond
0.0,4.0,4.0,0.0,7.0,1.0,2340.2392649732064,4.0,1.0,phase_3,,,,,147.0,3.0,147.0,49.0,245.0,294.0,196.0,98.0,magenta,I
0.0,5.0,0.5,1.0,7.0,3.0,2681.140465021599,4.0,1.0,phase_3,,,,,132.0,3.0,176.0,44.0,132.0,220.0,88.0,264.0,yellow,square
0.0,8.0,4.0,1.0,7.0,4.0,2075.4816309781745,4.0,1.0,phase_3,,,,,156.0,4.0,234.0,195.0,78.0,156.0,39.0,117.0,blue,flipped triangle
0.0,8.0,4.0,1.0,7.0,1.0,2208.1376890128013,4.0,1.0,phase_3,,,,,156.0,4.0,156.0,195.0,78.0,117.0,39.0,234.0,blue,flipped triangle
0.0,7.0,2.0,1.0,7.0,6.0,2100.820870982716,4.0,1.0,phase_3,,,,,136.0,4.0,204.0,170.0,34.0,68.0,102.0,136.0,orange,circle
0.0,3.0,2.0,0.0,7.0,1.0,1963.5291850136127,4.0,1.0,phase_3,,,,,156.0,4.0,156.0,195.0,39.0,234.0,117.0,78.0,cyan,hexagon
