raw_reward_magnitude,stim_reward,stepwise_reward_magnitude,paired_with_stopping,stim_location,response,reaction_time,block,num_trial_presentations,which_phase,stop_signal_trial_type,left_SSD,right_SSD,accuracy,chosen_bidding_amount,chosen_bidding_level,possible_bid_1,possible_bid_2,possible_bid_3,possible_bid_4,possible_bid_5,possible_bid_6,color_text,shape_text
392.0,4.0,4.0,0.0,2.0,2.0,315.6549549894407,1.0,1.0,phase_1,,,,,,,,,,,,,orange,diamond
88.0,6.0,1.0,1.0,3.0,3.0,352.1912860160228,1.0,1.0,phase_1,,,,,,,,,,,,,gray,circle
191.0,7.0,2.0,1.0,3.0,3.0,319.7539060201961,1.0,1.0,phase_1,,,,,,,,,,,,,magenta,square
81.0,6.0,1.0,1.0,1.0,1.0,328.7652359867934,1.0,1.0,phase_1,,,,,,,,,,,,,gray,circle
222.0,3.0,2.0,0.0,2.0,2.0,262.701734987786,1.0,1.0,phase_1,,,,,,,,,,,,,white,flipped triangle
409.0,4.0,4.0,0.0,1.0,1.0,297.1852149930782,1.0,1.0,phase_1,,,,,,,,,,,,,orange,diamond
0.0,5.0,0.0,1.0,3.0,3.0,310.8200969872996,1.0,1.0,phase_1,,,,,,,,,,,,,cyan,I
43.0,5.0,0.5,1.0,1.0,1.0,342.389869998442,1.0,1.0,phase_1,,,,,,,,,,,,,cyan,I
39.0,5.0,0.5,1.0,3.0,3.0,289.5705440023448,1.0,1.0,phase_1,,,,,,,,,,,,,cyan,I
52.0,1.0,0.5,0.0,1.0,1.0,391.4838609925937,1.0,1.0,phase_1,,,,,,,,,,,,,yellow,cross
0.0,7.0,0.0,1.0,2.0,2.0,291.8241419829428,1.0,1.0,phase_1,,,,,,,,,,,,,magenta,square
0.0,5.0,0.0,1.0,2.0,2.0,279.2038680054247,1.0,1.0,phase_1,,,,,,,,,,,,,cyan,I
51.0,5.0,0.5,1.0,3.0,3.0,446.6863670095335,1.0,1.0,phase_1,,,,,,,,,,,,,cyan,I
0.0,3.0,0.0,0.0,4.0,4.0,324.6448980062268,1.0,1.0,phase_1,,,,,,,,,,,,,white,flipped triangle
209.0,3.0,2.0,0.0,4.0,4.0,425.4427799896803,1.0,1.0,phase_1,,,,,,,,,,,,,white,flipped triangle
68.0,5.0,0.5,1.0,3.0,3.0,279.4683139945846,1.0,1.0,phase_1,,,,,,,,,,,,,cyan,I
56.0,5.0,0.5,1.0,3.0,3.0,271.4291000156663,1.0,1.0,phase_1,,,,,,,,,,,,,cyan,I
0.0,6.0,0.0,1.0,2.0,2.0,259.0120500244666,1.0,1.0,phase_1,,,,,,,,,,,,,gray,circle
0.0,5.0,0.0,1.0,1.0,1.0,204.7845859779045,1.0,1.0,phase_1,,,,,,,,,,,,,cyan,I
402.0,8.0,4.0,1.0,3.0,3.0,283.5137869988102,1.0,1.0,phase_1,,,,,,,,,,,,,blue,triangle
84.0,2.0,1.0,0.0,3.0,3.0,319.8597870068624,1.0,1.0,phase_1,,,,,,,,,,,,,green,hexagon
52.0,5.0,0.5,1.0,1.0,1.0,261.7682839918416,1.0,1.0,phase_1,,,,,,,,,,,,,cyan,I
407.0,8.0,4.0,1.0,1.0,1.0,353.1404410023242,1.0,2.0,phase_1,,,,,,,,,,,,,blue,triangle
120.0,6.0,1.0,1.0,1.0,1.0,318.4403179911896,1.0,1.0,phase_1,,,,,,,,,,,,,gray,circle
421.0,4.0,4.0,0.0,3.0,3.0,421.0681990080047,1.0,1.0,phase_1,,,,,,,,,,,,,orange,diamond
183.0,3.0,2.0,0.0,1.0,1.0,342.8788680175785,1.0,1.0,phase_1,,,,,,,,,,,,,white,flipped triangle
39.0,1.0,0.5,0.0,4.0,4.0,264.8304589965846,1.0,1.0,phase_1,,,,,,,,,,,,,yellow,cross
198.0,7.0,2.0,1.0,1.0,1.0,254.1899179923348,1.0,1.0,phase_1,,,,,,,,,,,,,magenta,square
0.0,1.0,0.0,0.0,1.0,1.0,268.5448080010246,1.0,1.0,phase_1,,,,,,,,,,,,,yellow,cross
0.0,6.0,0.0,1.0,3.0,3.0,280.3682969824876,1.0,1.0,phase_1,,,,,,,,,,,,,gray,circle
176.0,7.0,2.0,1.0,2.0,2.0,265.6569789978675,1.0,1.0,phase_1,,,,,,,,,,,,,magenta,square
106.0,6.0,1.0,1.0,4.0,4.0,280.4312179796397,1.0,1.0,phase_1,,,,,,,,,,,,,gray,circle
0.0,6.0,0.0,1.0,3.0,3.0,348.771257995395,1.0,1.0,phase_1,,,,,,,,,,,,,gray,circle
409.0,4.0,4.0,0.0,4.0,4.0,290.7172279956285,1.0,1.0,phase_1,,,,,,,,,,,,,orange,diamond
72.0,5.0,0.5,1.0,4.0,4.0,302.9303280054591,1.0,1.0,phase_1,,,,,,,,,,,,,cyan,I
47.0,1.0,0.5,0.0,2.0,2.0,248.7444660218898,1.0,1.0,phase_1,,,,,,,,,,,,,yellow,cross
186.0,3.0,2.0,0.0,3.0,3.0,329.6840309922118,1.0,1.0,phase_1,,,,,,,,,,,,,white,flipped triangle
113.0,6.0,1.0,1.0,2.0,2.0,296.0133920132648,1.0,1.0,phase_1,,,,,,,,,,,,,gray,circle
183.0,3.0,2.0,0.0,4.0,4.0,285.1272150001023,1.0,1.0,phase_1,,,,,,,,,,,,,white,flipped triangle
224.0,7.0,2.0,1.0,4.0,4.0,341.4790109964087,1.0,1.0,phase_1,,,,,,,,,,,,,magenta,square
110.0,6.0,1.0,1.0,2.0,2.0,261.8393050215672,1.0,1.0,phase_1,,,,,,,,,,,,,gray,circle
0.0,3.0,0.0,0.0,1.0,1.0,295.7252430205699,1.0,1.0,phase_1,,,,,,,,,,,,,white,flipped triangle
216.0,3.0,2.0,0.0,3.0,3.0,283.983373985393,1.0,1.0,phase_1,,,,,,,,,,,,,white,flipped triangle
0.0,6.0,0.0,1.0,1.0,1.0,298.814081994351,1.0,1.0,phase_1,,,,,,,,,,,,,gray,circle
213.0,7.0,2.0,1.0,3.0,3.0,286.118209012784,1.0,1.0,phase_1,,,,,,,,,,,,,magenta,square
0.0,4.0,0.0,0.0,3.0,3.0,367.7679520042147,1.0,1.0,phase_1,,,,,,,,,,,,,orange,diamond
390.0,4.0,4.0,0.0,1.0,1.0,310.0386839942075,1.0,1.0,phase_1,,,,,,,,,,,,,orange,diamond
375.0,8.0,4.0,1.0,4.0,4.0,323.5706110135652,1.0,1.0,phase_1,,,,,,,,,,,,,blue,triangle
68.0,5.0,0.5,1.0,4.0,4.0,332.283231022302,1.0,1.0,phase_1,,,,,,,,,,,,,cyan,I
38.0,1.0,0.5,0.0,2.0,2.0,278.66194100352,1.0,1.0,phase_1,,,,,,,,,,,,,yellow,cross
0.0,2.0,0.0,0.0,4.0,4.0,437.0114750054199,1.0,1.0,phase_1,,,,,,,,,,,,,green,hexagon
414.0,8.0,4.0,1.0,2.0,2.0,245.9251930122263,1.0,1.0,phase_1,,,,,,,,,,,,,blue,triangle
399.0,4.0,4.0,0.0,1.0,1.0,345.5328679992817,1.0,1.0,phase_1,,,,,,,,,,,,,orange,diamond
421.0,8.0,4.0,1.0,3.0,3.0,279.3697140004951,1.0,1.0,phase_1,,,,,,,,,,,,,blue,triangle
54.0,1.0,0.5,0.0,2.0,2.0,271.1235489987302,1.0,1.0,phase_1,,,,,,,,,,,,,yellow,cross
177.0,3.0,2.0,0.0,1.0,1.0,282.5552730064373,1.0,1.0,phase_1,,,,,,,,,,,,,white,flipped triangle
68.0,1.0,0.5,0.0,3.0,3.0,272.3966519988607,1.0,1.0,phase_1,,,,,,,,,,,,,yellow,cross
101.0,6.0,1.0,1.0,2.0,2.0,326.1554070049897,1.0,1.0,phase_1,,,,,,,,,,,,,gray,circle
77.0,2.0,1.0,0.0,3.0,3.0,341.8511970085092,1.0,1.0,phase_1,,,,,,,,,,,,,green,hexagon
199.0,3.0,2.0,0.0,1.0,1.0,304.722238011891,1.0,1.0,phase_1,,,,,,,,,,,,,white,flipped triangle
396.0,4.0,4.0,0.0,3.0,3.0,296.7643760202918,1.0,1.0,phase_1,,,,,,,,,,,,,orange,diamond
0.0,8.0,0.0,1.0,3.0,3.0,430.7614949939307,1.0,2.0,phase_1,,,,,,,,,,,,,blue,triangle
0.0,5.0,0.0,1.0,1.0,1.0,353.6482480121776,1.0,1.0,phase_1,,,,,,,,,,,,,cyan,I
76.0,6.0,1.0,1.0,4.0,4.0,533.2974689954426,1.0,2.0,phase_1,,,,,,,,,,,,,gray,circle
0.0,3.0,0.0,0.0,4.0,4.0,345.6431829836219,1.0,1.0,phase_1,,,,,,,,,,,,,white,flipped triangle
391.0,8.0,4.0,1.0,2.0,2.0,490.2168300177436,1.0,1.0,phase_1,,,,,,,,,,,,,blue,triangle
0.0,1.0,0.0,0.0,2.0,2.0,298.1846219918225,1.0,1.0,phase_1,,,,,,,,,,,,,yellow,cross
0.0,2.0,0.0,0.0,3.0,3.0,311.0972149879671,1.0,1.0,phase_1,,,,,,,,,,,,,green,hexagon
41.0,5.0,0.5,1.0,4.0,4.0,347.4765919963829,1.0,1.0,phase_1,,,,,,,,,,,,,cyan,I
41.0,1.0,0.5,0.0,1.0,1.0,311.7022840015124,1.0,1.0,phase_1,,,,,,,,,,,,,yellow,cross
181.0,3.0,2.0,0.0,3.0,3.0,390.5518059909809,1.0,1.0,phase_1,,,,,,,,,,,,,white,flipped triangle
106.0,2.0,1.0,0.0,3.0,3.0,312.6393329876009,1.0,1.0,phase_1,,,,,,,,,,,,,green,hexagon
46.0,5.0,0.5,1.0,1.0,1.0,349.116472993046,1.0,1.0,phase_1,,,,,,,,,,,,,cyan,I
392.0,8.0,4.0,1.0,3.0,3.0,406.5481199941132,1.0,1.0,phase_1,,,,,,,,,,,,,blue,triangle
422.0,8.0,4.0,1.0,4.0,4.0,374.1349129995797,1.0,1.0,phase_1,,,,,,,,,,,,,blue,triangle
109.0,2.0,1.0,0.0,3.0,3.0,292.0927710074465,1.0,1.0,phase_1,,,,,,,,,,,,,green,hexagon
81.0,2.0,1.0,0.0,4.0,4.0,506.5461990016047,1.0,1.0,phase_1,,,,,,,,,,,,,green,hexagon
221.0,7.0,2.0,1.0,3.0,3.0,317.0422759721987,1.0,1.0,phase_1,,,,,,,,,,,,,magenta,square
98.0,6.0,1.0,1.0,3.0,3.0,374.6891519986093,1.0,1.0,phase_1,,,,,,,,,,,,,gray,circle
0.0,5.0,0.0,1.0,3.0,3.0,296.1897120112553,1.0,1.0,phase_1,,,,,,,,,,,,,cyan,I
54.0,5.0,0.5,1.0,4.0,4.0,321.8445439997595,1.0,1.0,phase_1,,,,,,,,,,,,,cyan,I
108.0,6.0,1.0,1.0,1.0,1.0,534.0417679981329,1.0,1.0,phase_1,,,,,,,,,,,,,gray,circle
96.0,2.0,1.0,0.0,4.0,4.0,343.7775910133496,1.0,1.0,phase_1,,,,,,,,,,,,,green,hexagon
416.0,8.0,4.0,1.0,3.0,3.0,513.1049740011804,1.0,1.0,phase_1,,,,,,,,,,,,,blue,triangle
0.0,7.0,0.0,1.0,4.0,4.0,500.3287589934189,1.0,1.0,phase_1,,,,,,,,,,,,,magenta,square
88.0,2.0,1.0,0.0,2.0,2.0,402.2472420183476,1.0,1.0,phase_1,,,,,,,,,,,,,green,hexagon
216.0,3.0,2.0,0.0,2.0,2.0,797.0966050052084,1.0,1.0,phase_1,,,,,,,,,,,,,white,flipped triangle
416.0,4.0,4.0,0.0,1.0,1.0,493.4852729784325,1.0,1.0,phase_1,,,,,,,,,,,,,orange,diamond
124.0,2.0,1.0,0.0,1.0,1.0,536.7555370030459,1.0,1.0,phase_1,,,,,,,,,,,,,green,hexagon
406.0,8.0,4.0,1.0,1.0,1.0,349.1125610016752,1.0,1.0,phase_1,,,,,,,,,,,,,blue,triangle
186.0,7.0,2.0,1.0,1.0,1.0,357.5342920084949,1.0,1.0,phase_1,,,,,,,,,,,,,magenta,square
416.0,4.0,4.0,0.0,4.0,4.0,392.2275560034904,1.0,1.0,phase_1,,,,,,,,,,,,,orange,diamond
0.0,8.0,0.0,1.0,4.0,4.0,336.215687013464,1.0,1.0,phase_1,,,,,,,,,,,,,blue,triangle
177.0,7.0,2.0,1.0,1.0,1.0,438.1277990178205,1.0,1.0,phase_1,,,,,,,,,,,,,magenta,square
46.0,5.0,0.5,1.0,1.0,1.0,360.8860280073713,1.0,1.0,phase_1,,,,,,,,,,,,,cyan,I
0.0,6.0,0.0,1.0,4.0,4.0,439.4662679987959,1.0,1.0,phase_1,,,,,,,,,,,,,gray,circle
419.0,8.0,4.0,1.0,1.0,1.0,363.8306980137713,1.0,1.0,phase_1,,,,,,,,,,,,,blue,triangle
0.0,6.0,0.0,1.0,1.0,1.0,508.91339901136234,1.0,1.0,phase_1,,,,,,,,,,,,,gray,circle
25.0,5.0,0.5,1.0,3.0,3.0,429.9032870039809,1.0,1.0,phase_1,,,,,,,,,,,,,cyan,I
112.0,2.0,1.0,0.0,1.0,1.0,353.43025700422,1.0,1.0,phase_1,,,,,,,,,,,,,green,hexagon
0.0,1.0,0.0,0.0,2.0,2.0,447.4419390026014,2.0,1.0,phase_1,,,,,,,,,,,,,yellow,cross
0.0,8.0,0.0,1.0,2.0,2.0,324.1041830042377,2.0,1.0,phase_1,,,,,,,,,,,,,blue,triangle
0.0,7.0,0.0,1.0,4.0,4.0,316.3705510087311,2.0,1.0,phase_1,,,,,,,,,,,,,magenta,square
416.0,8.0,4.0,1.0,2.0,2.0,328.0330909765325,2.0,1.0,phase_1,,,,,,,,,,,,,blue,triangle
0.0,8.0,0.0,1.0,4.0,4.0,473.3154799905605,2.0,1.0,phase_1,,,,,,,,,,,,,blue,triangle
194.0,3.0,2.0,0.0,4.0,4.0,372.9710719780996,2.0,1.0,phase_1,,,,,,,,,,,,,white,flipped triangle
34.0,1.0,0.5,0.0,2.0,2.0,439.5781299972441,2.0,1.0,phase_1,,,,,,,,,,,,,yellow,cross
46.0,1.0,0.5,0.0,4.0,4.0,295.9605029900558,2.0,1.0,phase_1,,,,,,,,,,,,,yellow,cross
108.0,2.0,1.0,0.0,4.0,4.0,397.0407579909079,2.0,1.0,phase_1,,,,,,,,,,,,,green,hexagon
119.0,6.0,1.0,1.0,1.0,1.0,654.2815619905014,2.0,1.0,phase_1,,,,,,,,,,,,,gray,circle
224.0,3.0,2.0,0.0,2.0,2.0,329.2343039938714,2.0,1.0,phase_1,,,,,,,,,,,,,white,flipped triangle
97.0,2.0,1.0,0.0,3.0,3.0,365.4575239925179,2.0,1.0,phase_1,,,,,,,,,,,,,green,hexagon
25.0,1.0,0.5,0.0,3.0,3.0,397.6931949728168,2.0,1.0,phase_1,,,,,,,,,,,,,yellow,cross
88.0,2.0,1.0,0.0,1.0,1.0,386.6099439910613,2.0,1.0,phase_1,,,,,,,,,,,,,green,hexagon
0.0,5.0,0.0,1.0,4.0,4.0,398.7605730071664,2.0,1.0,phase_1,,,,,,,,,,,,,cyan,I
0.0,1.0,0.0,0.0,1.0,1.0,320.5152539885603,2.0,1.0,phase_1,,,,,,,,,,,,,yellow,cross
176.0,3.0,2.0,0.0,3.0,3.0,312.1556889964267,2.0,1.0,phase_1,,,,,,,,,,,,,white,flipped triangle
117.0,6.0,1.0,1.0,4.0,4.0,324.6445959957782,2.0,1.0,phase_1,,,,,,,,,,,,,gray,circle
0.0,4.0,0.0,0.0,1.0,1.0,267.2130760038271,2.0,1.0,phase_1,,,,,,,,,,,,,orange,diamond
393.0,4.0,4.0,0.0,3.0,3.0,255.0031549762934,2.0,1.0,phase_1,,,,,,,,,,,,,orange,diamond
30.0,1.0,0.5,0.0,1.0,1.0,426.5870770032052,2.0,1.0,phase_1,,,,,,,,,,,,,yellow,cross
199.0,7.0,2.0,1.0,1.0,1.0,323.2864139718003,2.0,1.0,phase_1,,,,,,,,,,,,,magenta,square
404.0,8.0,4.0,1.0,1.0,1.0,381.5615569765214,2.0,1.0,phase_1,,,,,,,,,,,,,blue,triangle
97.0,6.0,1.0,1.0,4.0,4.0,438.7985740031581,2.0,1.0,phase_1,,,,,,,,,,,,,gray,circle
419.0,8.0,4.0,1.0,3.0,3.0,317.4458789872005,2.0,1.0,phase_1,,,,,,,,,,,,,blue,triangle
31.0,5.0,0.5,1.0,2.0,2.0,282.7648159873206,2.0,1.0,phase_1,,,,,,,,,,,,,cyan,I
68.0,1.0,0.5,0.0,4.0,4.0,340.5319399898872,2.0,1.0,phase_1,,,,,,,,,,,,,yellow,cross
191.0,7.0,2.0,1.0,2.0,2.0,259.0181039995514,2.0,1.0,phase_1,,,,,,,,,,,,,magenta,square
84.0,6.0,1.0,1.0,1.0,1.0,331.7502049903851,2.0,1.0,phase_1,,,,,,,,,,,,,gray,circle
87.0,2.0,1.0,0.0,2.0,2.0,295.1528409903403,2.0,1.0,phase_1,,,,,,,,,,,,,green,hexagon
66.0,5.0,0.5,1.0,4.0,4.0,384.6234899829142,2.0,1.0,phase_1,,,,,,,,,,,,,cyan,I
75.0,2.0,1.0,0.0,4.0,4.0,355.1884619810153,2.0,1.0,phase_1,,,,,,,,,,,,,green,hexagon
376.0,4.0,4.0,0.0,1.0,1.0,701.5493820072152,2.0,1.0,phase_1,,,,,,,,,,,,,orange,diamond
27.0,1.0,0.5,0.0,1.0,1.0,487.777858012123,2.0,1.0,phase_1,,,,,,,,,,,,,yellow,cross
79.0,6.0,1.0,1.0,4.0,4.0,344.6057510154787,2.0,1.0,phase_1,,,,,,,,,,,,,gray,circle
0.0,2.0,0.0,0.0,4.0,4.0,311.9913250266108,2.0,1.0,phase_1,,,,,,,,,,,,,green,hexagon
387.0,8.0,4.0,1.0,4.0,4.0,323.6488070106134,2.0,1.0,phase_1,,,,,,,,,,,,,blue,triangle
74.0,1.0,0.5,0.0,2.0,2.0,268.0296049802564,2.0,1.0,phase_1,,,,,,,,,,,,,yellow,cross
209.0,3.0,2.0,0.0,1.0,1.0,324.7972849931102,2.0,1.0,phase_1,,,,,,,,,,,,,white,flipped triangle
0.0,4.0,0.0,0.0,3.0,3.0,311.1288170039188,2.0,1.0,phase_1,,,,,,,,,,,,,orange,diamond
30.0,5.0,0.5,1.0,1.0,1.0,412.6651829865295,2.0,1.0,phase_1,,,,,,,,,,,,,cyan,I
191.0,3.0,2.0,0.0,4.0,4.0,360.4051480069756,2.0,1.0,phase_1,,,,,,,,,,,,,white,flipped triangle
0.0,2.0,0.0,0.0,4.0,4.0,304.5177019957918,2.0,1.0,phase_1,,,,,,,,,,,,,green,hexagon
405.0,8.0,4.0,1.0,2.0,2.0,291.2028029968496,2.0,1.0,phase_1,,,,,,,,,,,,,blue,triangle
115.0,2.0,1.0,0.0,3.0,3.0,302.9492500063497,2.0,1.0,phase_1,,,,,,,,,,,,,green,hexagon
396.0,8.0,4.0,1.0,2.0,2.0,381.940042017959,2.0,1.0,phase_1,,,,,,,,,,,,,blue,triangle
35.0,5.0,0.5,1.0,2.0,2.0,329.1658399975858,2.0,1.0,phase_1,,,,,,,,,,,,,cyan,I
183.0,7.0,2.0,1.0,3.0,3.0,296.9567450054455,2.0,1.0,phase_1,,,,,,,,,,,,,magenta,square
77.0,6.0,1.0,1.0,2.0,2.0,328.2136210182216,2.0,1.0,phase_1,,,,,,,,,,,,,gray,circle
110.0,2.0,1.0,0.0,4.0,4.0,407.8832970117219,2.0,1.0,phase_1,,,,,,,,,,,,,green,hexagon
114.0,2.0,1.0,0.0,4.0,4.0,377.7580430032685,2.0,1.0,phase_1,,,,,,,,,,,,,green,hexagon
98.0,6.0,1.0,1.0,3.0,3.0,331.0015510069206,2.0,1.0,phase_1,,,,,,,,,,,,,gray,circle
389.0,4.0,4.0,0.0,3.0,3.0,299.9751019815448,2.0,1.0,phase_1,,,,,,,,,,,,,orange,diamond
0.0,3.0,0.0,0.0,3.0,3.0,309.4208929978777,2.0,1.0,phase_1,,,,,,,,,,,,,white,flipped triangle
49.0,1.0,0.5,0.0,3.0,3.0,277.8317600023001,2.0,1.0,phase_1,,,,,,,,,,,,,yellow,cross
216.0,7.0,2.0,1.0,1.0,1.0,402.1910759911407,2.0,1.0,phase_1,,,,,,,,,,,,,magenta,square
0.0,3.0,0.0,0.0,1.0,1.0,299.0562180057168,2.0,1.0,phase_1,,,,,,,,,,,,,white,flipped triangle
0.0,8.0,0.0,1.0,1.0,1.0,358.1422170100268,2.0,1.0,phase_1,,,,,,,,,,,,,blue,triangle
186.0,7.0,2.0,1.0,3.0,3.0,324.6001699881162,2.0,1.0,phase_1,,,,,,,,,,,,,magenta,square
0.0,4.0,0.0,0.0,4.0,4.0,310.9979910077527,2.0,1.0,phase_1,,,,,,,,,,,,,orange,diamond
216.0,3.0,2.0,0.0,2.0,2.0,278.9174460049253,2.0,1.0,phase_1,,,,,,,,,,,,,white,flipped triangle
51.0,5.0,0.5,1.0,4.0,4.0,314.1454080177936,2.0,1.0,phase_1,,,,,,,,,,,,,cyan,I
74.0,1.0,0.5,0.0,3.0,3.0,326.4037419867236,2.0,1.0,phase_1,,,,,,,,,,,,,yellow,cross
175.0,3.0,2.0,0.0,2.0,2.0,336.5735840052366,2.0,1.0,phase_1,,,,,,,,,,,,,white,flipped triangle
36.0,5.0,0.5,1.0,2.0,2.0,304.5732009923085,2.0,1.0,phase_1,,,,,,,,,,,,,cyan,I
51.0,1.0,0.5,0.0,2.0,2.0,272.5241449952591,2.0,1.0,phase_1,,,,,,,,,,,,,yellow,cross
383.0,4.0,4.0,0.0,4.0,4.0,303.7306450132746,2.0,1.0,phase_1,,,,,,,,,,,,,orange,diamond
213.0,3.0,2.0,0.0,1.0,1.0,387.0847689977381,2.0,1.0,phase_1,,,,,,,,,,,,,white,flipped triangle
209.0,3.0,2.0,0.0,2.0,2.0,305.0688969960902,2.0,1.0,phase_1,,,,,,,,,,,,,white,flipped triangle
76.0,2.0,1.0,0.0,3.0,3.0,341.1030179995578,2.0,1.0,phase_1,,,,,,,,,,,,,green,hexagon
209.0,7.0,2.0,1.0,4.0,4.0,340.480535000097,2.0,1.0,phase_1,,,,,,,,,,,,,magenta,square
204.0,3.0,2.0,0.0,4.0,4.0,352.2915150097105,2.0,1.0,phase_1,,,,,,,,,,,,,white,flipped triangle
0.0,2.0,0.0,0.0,3.0,3.0,365.8572739805095,2.0,1.0,phase_1,,,,,,,,,,,,,green,hexagon
42.0,5.0,0.5,1.0,4.0,4.0,319.9804160103667,2.0,1.0,phase_1,,,,,,,,,,,,,cyan,I
109.0,2.0,1.0,0.0,4.0,4.0,377.9269899823703,2.0,1.0,phase_1,,,,,,,,,,,,,green,hexagon
42.0,1.0,0.5,0.0,4.0,4.0,298.5600079991855,2.0,1.0,phase_1,,,,,,,,,,,,,yellow,cross
0.0,6.0,0.0,1.0,1.0,1.0,323.1356089818291,2.0,1.0,phase_1,,,,,,,,,,,,,gray,circle
49.0,5.0,0.5,1.0,1.0,1.0,287.550757988356,2.0,1.0,phase_1,,,,,,,,,,,,,cyan,I
76.0,6.0,1.0,1.0,4.0,4.0,526.4570770086721,2.0,1.0,phase_1,,,,,,,,,,,,,gray,circle
375.0,4.0,4.0,0.0,2.0,2.0,290.3451159945689,2.0,1.0,phase_1,,,,,,,,,,,,,orange,diamond
0.0,3.0,0.0,0.0,1.0,1.0,278.3885440148879,2.0,1.0,phase_1,,,,,,,,,,,,,white,flipped triangle
30.0,1.0,0.5,0.0,1.0,1.0,324.7643329959828,2.0,1.0,phase_1,,,,,,,,,,,,,yellow,cross
381.0,4.0,4.0,0.0,2.0,2.0,359.0991770033724,2.0,1.0,phase_1,,,,,,,,,,,,,orange,diamond
0.0,7.0,0.0,1.0,1.0,1.0,279.6877950022463,2.0,1.0,phase_1,,,,,,,,,,,,,magenta,square
398.0,8.0,4.0,1.0,4.0,4.0,317.16245401185,2.0,1.0,phase_1,,,,,,,,,,,,,blue,triangle
73.0,1.0,0.5,0.0,2.0,2.0,284.3616240133997,2.0,1.0,phase_1,,,,,,,,,,,,,yellow,cross
0.0,2.0,0.0,0.0,3.0,3.0,292.6785449963063,2.0,1.0,phase_1,,,,,,,,,,,,,green,hexagon
115.0,6.0,1.0,1.0,2.0,2.0,349.4446800032165,2.0,1.0,phase_1,,,,,,,,,,,,,gray,circle
50.0,5.0,0.5,1.0,1.0,1.0,386.7101810174063,2.0,1.0,phase_1,,,,,,,,,,,,,cyan,I
0.0,1.0,0.0,0.0,3.0,3.0,487.3913659830577,2.0,1.0,phase_1,,,,,,,,,,,,,yellow,cross
407.0,4.0,4.0,0.0,3.0,3.0,611.9860619946849,2.0,1.0,phase_1,,,,,,,,,,,,,orange,diamond
204.0,7.0,2.0,1.0,2.0,2.0,374.5558579976205,2.0,1.0,phase_1,,,,,,,,,,,,,magenta,square
0.0,7.0,0.0,1.0,1.0,1.0,434.1121060133446,2.0,1.0,phase_1,,,,,,,,,,,,,magenta,square
57.0,5.0,0.5,1.0,1.0,1.0,319.2630099947564,2.0,1.0,phase_1,,,,,,,,,,,,,cyan,I
387.0,4.0,4.0,0.0,1.0,1.0,357.0758439891506,2.0,1.0,phase_1,,,,,,,,,,,,,orange,diamond
63.0,1.0,0.5,0.0,2.0,2.0,275.4348010057583,2.0,1.0,phase_1,,,,,,,,,,,,,yellow,cross
401.0,8.0,4.0,1.0,3.0,3.0,312.3404769867193,2.0,1.0,phase_1,,,,,,,,,,,,,blue,triangle
0.0,5.0,0.0,1.0,1.0,1.0,300.6205070123542,2.0,1.0,phase_1,,,,,,,,,,,,,cyan,I
0.0,7.0,0.0,1.0,1.0,1.0,325.1969880075194,2.0,1.0,phase_1,,,,,,,,,,,,,magenta,square
28.0,1.0,0.5,0.0,4.0,4.0,391.2599330069497,2.0,2.0,phase_1,,,,,,,,,,,,,yellow,cross
60.0,5.0,0.5,1.0,2.0,2.0,298.7812859937548,3.0,1.0,phase_1,,,,,,,,,,,,,cyan,I
0.0,8.0,0.0,1.0,4.0,4.0,312.2931830002926,3.0,1.0,phase_1,,,,,,,,,,,,,blue,triangle
59.0,5.0,0.5,1.0,2.0,2.0,275.1888329803478,3.0,1.0,phase_1,,,,,,,,,,,,,cyan,I
97.0,2.0,1.0,0.0,1.0,1.0,380.5664949759375,3.0,1.0,phase_1,,,,,,,,,,,,,green,hexagon
396.0,8.0,4.0,1.0,1.0,1.0,369.2527270177379,3.0,1.0,phase_1,,,,,,,,,,,,,blue,triangle
70.0,5.0,0.5,1.0,3.0,3.0,311.4259289868641,3.0,1.0,phase_1,,,,,,,,,,,,,cyan,I
390.0,4.0,4.0,0.0,4.0,4.0,323.1450690072961,3.0,1.0,phase_1,,,,,,,,,,,,,orange,diamond
216.0,7.0,2.0,1.0,2.0,2.0,311.2900599953718,3.0,1.0,phase_1,,,,,,,,,,,,,magenta,square
100.0,6.0,1.0,1.0,4.0,4.0,323.9108939887956,3.0,1.0,phase_1,,,,,,,,,,,,,gray,circle
50.0,1.0,0.5,0.0,4.0,4.0,313.9205999905243,3.0,1.0,phase_1,,,,,,,,,,,,,yellow,cross
413.0,4.0,4.0,0.0,2.0,2.0,280.4474659787956,3.0,1.0,phase_1,,,,,,,,,,,,,orange,diamond
120.0,6.0,1.0,1.0,2.0,2.0,272.4499900068622,3.0,1.0,phase_1,,,,,,,,,,,,,gray,circle
56.0,1.0,0.5,0.0,1.0,1.0,438.3714249997865,3.0,1.0,phase_1,,,,,,,,,,,,,yellow,cross
0.0,4.0,0.0,0.0,1.0,1.0,337.8921080147847,3.0,1.0,phase_1,,,,,,,,,,,,,orange,diamond
413.0,8.0,4.0,1.0,2.0,2.0,284.081858000718,3.0,1.0,phase_1,,,,,,,,,,,,,blue,triangle
107.0,6.0,1.0,1.0,2.0,2.0,271.0026789864059,3.0,1.0,phase_1,,,,,,,,,,,,,gray,circle
97.0,2.0,1.0,0.0,2.0,2.0,283.5178420064039,3.0,1.0,phase_1,,,,,,,,,,,,,green,hexagon
220.0,7.0,2.0,1.0,2.0,2.0,264.5244150189683,3.0,1.0,phase_1,,,,,,,,,,,,,magenta,square
38.0,5.0,0.5,1.0,1.0,1.0,275.8468390093185,3.0,1.0,phase_1,,,,,,,,,,,,,cyan,I
97.0,6.0,1.0,1.0,4.0,4.0,353.9059660106431,3.0,1.0,phase_1,,,,,,,,,,,,,gray,circle
409.0,8.0,4.0,1.0,4.0,4.0,308.0316259874962,3.0,1.0,phase_1,,,,,,,,,,,,,blue,triangle
414.0,8.0,4.0,1.0,1.0,1.0,323.1344220112078,3.0,1.0,phase_1,,,,,,,,,,,,,blue,triangle
93.0,2.0,1.0,0.0,2.0,2.0,312.3736930137966,3.0,1.0,phase_1,,,,,,,,,,,,,green,hexagon
120.0,2.0,1.0,0.0,2.0,2.0,253.9265829836949,3.0,1.0,phase_1,,,,,,,,,,,,,green,hexagon
87.0,6.0,1.0,1.0,3.0,3.0,323.7285200157203,3.0,1.0,phase_1,,,,,,,,,,,,,gray,circle
101.0,2.0,1.0,0.0,2.0,2.0,291.2770500115584,3.0,1.0,phase_1,,,,,,,,,,,,,green,hexagon
187.0,7.0,2.0,1.0,3.0,3.0,277.929233998293,3.0,1.0,phase_1,,,,,,,,,,,,,magenta,square
47.0,5.0,0.5,1.0,3.0,3.0,312.3510209843516,3.0,1.0,phase_1,,,,,,,,,,,,,cyan,I
51.0,1.0,0.5,0.0,1.0,1.0,281.8109130021184,3.0,1.0,phase_1,,,,,,,,,,,,,yellow,cross
100.0,2.0,1.0,0.0,2.0,2.0,268.5869539855048,3.0,1.0,phase_1,,,,,,,,,,,,,green,hexagon
97.0,6.0,1.0,1.0,1.0,1.0,302.6848640001844,3.0,1.0,phase_1,,,,,,,,,,,,,gray,circle
0.0,1.0,0.0,0.0,3.0,3.0,429.1013040055986,3.0,1.0,phase_1,,,,,,,,,,,,,yellow,cross
209.0,7.0,2.0,1.0,3.0,3.0,283.8056529872119,3.0,1.0,phase_1,,,,,,,,,,,,,magenta,square
66.0,1.0,0.5,0.0,1.0,1.0,272.8887620032765,3.0,1.0,phase_1,,,,,,,,,,,,,yellow,cross
30.0,5.0,0.5,1.0,4.0,4.0,307.9506149806548,3.0,1.0,phase_1,,,,,,,,,,,,,cyan,I
218.0,7.0,2.0,1.0,2.0,2.0,262.4110819888301,3.0,1.0,phase_1,,,,,,,,,,,,,magenta,square
0.0,8.0,0.0,1.0,4.0,4.0,321.0077380063012,3.0,1.0,phase_1,,,,,,,,,,,,,blue,triangle
176.0,3.0,2.0,0.0,2.0,2.0,331.0731409874279,3.0,1.0,phase_1,,,,,,,,,,,,,white,flipped triangle
0.0,2.0,0.0,0.0,2.0,2.0,275.72674199473107,3.0,1.0,phase_1,,,,,,,,,,,,,green,hexagon
0.0,8.0,0.0,1.0,2.0,2.0,263.2362910080701,3.0,1.0,phase_1,,,,,,,,,,,,,blue,triangle
96.0,6.0,1.0,1.0,1.0,1.0,276.2359539919998,3.0,1.0,phase_1,,,,,,,,,,,,,gray,circle
175.0,7.0,2.0,1.0,1.0,1.0,332.2030990093481,3.0,1.0,phase_1,,,,,,,,,,,,,magenta,square
60.0,1.0,0.5,0.0,2.0,2.0,275.6935869983863,3.0,1.0,phase_1,,,,,,,,,,,,,yellow,cross
0.0,1.0,0.0,0.0,1.0,1.0,267.6557219820097,3.0,1.0,phase_1,,,,,,,,,,,,,yellow,cross
185.0,3.0,2.0,0.0,1.0,1.0,301.223562011728,3.0,1.0,phase_1,,,,,,,,,,,,,white,flipped triangle
396.0,4.0,4.0,0.0,3.0,3.0,311.4283129980322,3.0,1.0,phase_1,,,,,,,,,,,,,orange,diamond
35.0,1.0,0.5,0.0,3.0,3.0,303.90713000088,3.0,1.0,phase_1,,,,,,,,,,,,,yellow,cross
36.0,1.0,0.5,0.0,4.0,4.0,267.2708860191051,3.0,1.0,phase_1,,,,,,,,,,,,,yellow,cross
198.0,3.0,2.0,0.0,4.0,4.0,291.1199270165525,3.0,1.0,phase_1,,,,,,,,,,,,,white,flipped triangle
181.0,7.0,2.0,1.0,4.0,4.0,414.2360370024107,3.0,1.0,phase_1,,,,,,,,,,,,,magenta,square
0.0,5.0,0.0,1.0,3.0,3.0,271.8609379953705,3.0,1.0,phase_1,,,,,,,,,,,,,cyan,I
67.0,1.0,0.5,0.0,1.0,1.0,236.6950410068966,3.0,1.0,phase_1,,,,,,,,,,,,,yellow,cross
98.0,2.0,1.0,0.0,2.0,2.0,291.6839289828203,3.0,1.0,phase_1,,,,,,,,,,,,,green,hexagon
81.0,6.0,1.0,1.0,3.0,3.0,284.1740419971756,3.0,1.0,phase_1,,,,,,,,,,,,,gray,circle
98.0,2.0,1.0,0.0,3.0,3.0,296.1713440017774,3.0,1.0,phase_1,,,,,,,,,,,,,green,hexagon
0.0,8.0,0.0,1.0,2.0,2.0,282.8659390215762,3.0,1.0,phase_1,,,,,,,,,,,,,blue,triangle
391.0,4.0,4.0,0.0,4.0,4.0,353.3548999985214,3.0,1.0,phase_1,,,,,,,,,,,,,orange,diamond
0.0,3.0,0.0,0.0,1.0,1.0,249.4560439954511,3.0,1.0,phase_1,,,,,,,,,,,,,white,flipped triangle
398.0,8.0,4.0,1.0,2.0,2.0,308.468838018598,3.0,1.0,phase_1,,,,,,,,,,,,,blue,triangle
390.0,8.0,4.0,1.0,2.0,2.0,274.78714499739,3.0,1.0,phase_1,,,,,,,,,,,,,blue,triangle
107.0,2.0,1.0,0.0,4.0,4.0,274.1725219821092,3.0,1.0,phase_1,,,,,,,,,,,,,green,hexagon
74.0,5.0,0.5,1.0,4.0,4.0,308.5719609807711,3.0,1.0,phase_1,,,,,,,,,,,,,cyan,I
100.0,6.0,1.0,1.0,1.0,1.0,332.1666640113108,3.0,2.0,phase_1,,,,,,,,,,,,,gray,circle
183.0,7.0,2.0,1.0,4.0,4.0,298.9302600035444,3.0,1.0,phase_1,,,,,,,,,,,,,magenta,square
0.0,6.0,0.0,1.0,1.0,1.0,291.8622550205327,3.0,1.0,phase_1,,,,,,,,,,,,,gray,circle
0.0,8.0,0.0,1.0,3.0,3.0,324.6824920061044,3.0,1.0,phase_1,,,,,,,,,,,,,blue,triangle
109.0,6.0,1.0,1.0,2.0,2.0,292.8055480006151,3.0,1.0,phase_1,,,,,,,,,,,,,gray,circle
396.0,8.0,4.0,1.0,3.0,3.0,268.2597629900556,3.0,1.0,phase_1,,,,,,,,,,,,,blue,triangle
0.0,3.0,0.0,0.0,1.0,1.0,283.0131170048844,3.0,1.0,phase_1,,,,,,,,,,,,,white,flipped triangle
0.0,1.0,0.0,0.0,4.0,4.0,370.4082960030064,3.0,1.0,phase_1,,,,,,,,,,,,,yellow,cross
0.0,7.0,0.0,1.0,2.0,2.0,280.3429779887665,3.0,1.0,phase_1,,,,,,,,,,,,,magenta,square
183.0,3.0,2.0,0.0,1.0,1.0,271.186291007325,3.0,1.0,phase_1,,,,,,,,,,,,,white,flipped triangle
378.0,8.0,4.0,1.0,3.0,3.0,304.7551479830872,3.0,1.0,phase_1,,,,,,,,,,,,,blue,triangle
207.0,3.0,2.0,0.0,3.0,3.0,341.0959230095614,3.0,1.0,phase_1,,,,,,,,,,,,,white,flipped triangle
390.0,8.0,4.0,1.0,3.0,3.0,262.8201560000889,3.0,1.0,phase_1,,,,,,,,,,,,,blue,triangle
0.0,1.0,0.0,0.0,3.0,3.0,275.6881870154757,3.0,1.0,phase_1,,,,,,,,,,,,,yellow,cross
94.0,2.0,1.0,0.0,2.0,2.0,262.0596459892113,3.0,1.0,phase_1,,,,,,,,,,,,,green,hexagon
109.0,6.0,1.0,1.0,4.0,4.0,366.4047569909598,3.0,1.0,phase_1,,,,,,,,,,,,,gray,circle
0.0,4.0,0.0,0.0,4.0,4.0,333.7667119922116,3.0,1.0,phase_1,,,,,,,,,,,,,orange,diamond
124.0,6.0,1.0,1.0,1.0,1.0,274.6647489839233,3.0,1.0,phase_1,,,,,,,,,,,,,gray,circle
0.0,6.0,0.0,1.0,3.0,3.0,267.4506970215589,3.0,1.0,phase_1,,,,,,,,,,,,,gray,circle
120.0,2.0,1.0,0.0,2.0,2.0,278.0746450007427,3.0,1.0,phase_1,,,,,,,,,,,,,green,hexagon
0.0,5.0,0.0,1.0,3.0,3.0,286.8797510163858,3.0,1.0,phase_1,,,,,,,,,,,,,cyan,I
31.0,1.0,0.5,0.0,4.0,4.0,242.7389369986485,3.0,1.0,phase_1,,,,,,,,,,,,,yellow,cross
28.0,5.0,0.5,1.0,2.0,2.0,278.2037820143159,3.0,1.0,phase_1,,,,,,,,,,,,,cyan,I
81.0,2.0,1.0,0.0,1.0,1.0,299.8163440206554,3.0,1.0,phase_1,,,,,,,,,,,,,green,hexagon
75.0,6.0,1.0,1.0,2.0,2.0,526.1180409870576,3.0,1.0,phase_1,,,,,,,,,,,,,gray,circle
204.0,7.0,2.0,1.0,1.0,1.0,335.9084870025981,3.0,1.0,phase_1,,,,,,,,,,,,,magenta,square
117.0,2.0,1.0,0.0,1.0,1.0,337.6620739873033,3.0,1.0,phase_1,,,,,,,,,,,,,green,hexagon
376.0,8.0,4.0,1.0,4.0,4.0,270.3415089927148,3.0,3.0,phase_1,,,,,,,,,,,,,blue,triangle
0.0,4.0,0.0,0.0,1.0,1.0,273.2036479865201,3.0,2.0,phase_1,,,,,,,,,,,,,orange,diamond
63.0,5.0,0.5,1.0,4.0,4.0,352.7879659959581,3.0,1.0,phase_1,,,,,,,,,,,,,cyan,I
194.0,7.0,2.0,1.0,2.0,2.0,317.5075110048055,3.0,1.0,phase_1,,,,,,,,,,,,,magenta,square
109.0,2.0,1.0,0.0,4.0,4.0,328.876763000153,3.0,1.0,phase_1,,,,,,,,,,,,,green,hexagon
204.0,7.0,2.0,1.0,1.0,1.0,320.2001480094623,3.0,1.0,phase_1,,,,,,,,,,,,,magenta,square
0.0,3.0,0.0,0.0,1.0,1.0,354.582146013854,3.0,1.0,phase_1,,,,,,,,,,,,,white,flipped triangle
203.0,7.0,2.0,1.0,1.0,1.0,320.2123980154283,3.0,1.0,phase_1,,,,,,,,,,,,,magenta,square
396.0,4.0,4.0,0.0,4.0,4.0,286.8215070047881,3.0,1.0,phase_1,,,,,,,,,,,,,orange,diamond
406.0,4.0,4.0,0.0,4.0,4.0,377.690082998015,3.0,1.0,phase_1,,,,,,,,,,,,,orange,diamond
63.0,5.0,0.5,1.0,2.0,2.0,321.289451996563,3.0,1.0,phase_1,,,,,,,,,,,,,cyan,I
0.0,6.0,0.0,1.0,4.0,4.0,308.3288930065464,4.0,1.0,phase_1,,,,,,,,,,,,,gray,circle
112.0,6.0,1.0,1.0,4.0,4.0,296.0203519905917,4.0,1.0,phase_1,,,,,,,,,,,,,gray,circle
381.0,8.0,4.0,1.0,1.0,1.0,305.6005599792115,4.0,1.0,phase_1,,,,,,,,,,,,,blue,triangle
0.0,4.0,0.0,0.0,1.0,1.0,320.21744499797927,4.0,1.0,phase_1,,,,,,,,,,,,,orange,diamond
220.0,3.0,2.0,0.0,4.0,4.0,308.6042940267361,4.0,1.0,phase_1,,,,,,,,,,,,,white,flipped triangle
207.0,7.0,2.0,1.0,4.0,4.0,333.7338489945978,4.0,1.0,phase_1,,,,,,,,,,,,,magenta,square
88.0,6.0,1.0,1.0,2.0,2.0,274.737298983382,4.0,1.0,phase_1,,,,,,,,,,,,,gray,circle
101.0,2.0,1.0,0.0,1.0,1.0,286.490604019491,4.0,1.0,phase_1,,,,,,,,,,,,,green,hexagon
404.0,4.0,4.0,0.0,4.0,4.0,255.7476299989503,4.0,1.0,phase_1,,,,,,,,,,,,,orange,diamond
196.0,3.0,2.0,0.0,3.0,3.0,332.5653309875633,4.0,1.0,phase_1,,,,,,,,,,,,,white,flipped triangle
389.0,8.0,4.0,1.0,4.0,4.0,279.4515569985378,4.0,1.0,phase_1,,,,,,,,,,,,,blue,triangle
0.0,2.0,0.0,0.0,3.0,3.0,310.9428439929615,4.0,1.0,phase_1,,,,,,,,,,,,,green,hexagon
0.0,2.0,0.0,0.0,4.0,4.0,299.7987970011309,4.0,1.0,phase_1,,,,,,,,,,,,,green,hexagon
94.0,6.0,1.0,1.0,3.0,3.0,289.09411499626,4.0,1.0,phase_1,,,,,,,,,,,,,gray,circle
388.0,8.0,4.0,1.0,2.0,2.0,257.8961749968584,4.0,1.0,phase_1,,,,,,,,,,,,,blue,triangle
186.0,3.0,2.0,0.0,1.0,1.0,290.7000799896195,4.0,1.0,phase_1,,,,,,,,,,,,,white,flipped triangle
109.0,6.0,1.0,1.0,3.0,3.0,271.4219730114564,4.0,1.0,phase_1,,,,,,,,,,,,,gray,circle
0.0,7.0,0.0,1.0,1.0,1.0,257.9286720138043,4.0,1.0,phase_1,,,,,,,,,,,,,magenta,square
185.0,7.0,2.0,1.0,4.0,4.0,258.8826819846872,4.0,1.0,phase_1,,,,,,,,,,,,,magenta,square
74.0,5.0,0.5,1.0,2.0,2.0,271.6491280007176,4.0,1.0,phase_1,,,,,,,,,,,,,cyan,I
101.0,6.0,1.0,1.0,1.0,1.0,259.1412290057633,4.0,1.0,phase_1,,,,,,,,,,,,,gray,circle
43.0,1.0,0.5,0.0,3.0,3.0,329.3402070121374,4.0,1.0,phase_1,,,,,,,,,,,,,yellow,cross
119.0,2.0,1.0,0.0,1.0,1.0,271.6358710022177,4.0,1.0,phase_1,,,,,,,,,,,,,green,hexagon
46.0,1.0,0.5,0.0,4.0,4.0,264.4262250105385,4.0,1.0,phase_1,,,,,,,,,,,,,yellow,cross
396.0,4.0,4.0,0.0,4.0,4.0,320.8593960152939,4.0,1.0,phase_1,,,,,,,,,,,,,orange,diamond
422.0,4.0,4.0,0.0,3.0,3.0,288.7952940072864,4.0,1.0,phase_1,,,,,,,,,,,,,orange,diamond
119.0,6.0,1.0,1.0,3.0,3.0,275.6217150017619,4.0,1.0,phase_1,,,,,,,,,,,,,gray,circle
70.0,1.0,0.5,0.0,3.0,3.0,288.1519969960209,4.0,1.0,phase_1,,,,,,,,,,,,,yellow,cross
72.0,1.0,0.5,0.0,3.0,3.0,275.8597600040957,4.0,1.0,phase_1,,,,,,,,,,,,,yellow,cross
27.0,5.0,0.5,1.0,3.0,3.0,287.3392819892615,4.0,1.0,phase_1,,,,,,,,,,,,,cyan,I
221.0,3.0,2.0,0.0,4.0,4.0,300.1825330138672,4.0,1.0,phase_1,,,,,,,,,,,,,white,flipped triangle
57.0,1.0,0.5,0.0,3.0,3.0,267.8061999904457,4.0,1.0,phase_1,,,,,,,,,,,,,yellow,cross
113.0,2.0,1.0,0.0,4.0,4.0,303.8437969808001,4.0,1.0,phase_1,,,,,,,,,,,,,green,hexagon
396.0,8.0,4.0,1.0,1.0,1.0,382.9326330160256,4.0,1.0,phase_1,,,,,,,,,,,,,blue,triangle
206.0,3.0,2.0,0.0,2.0,2.0,302.8688530030194,4.0,1.0,phase_1,,,,,,,,,,,,,white,flipped triangle
194.0,3.0,2.0,0.0,1.0,1.0,271.6321659972891,4.0,1.0,phase_1,,,,,,,,,,,,,white,flipped triangle
188.0,7.0,2.0,1.0,1.0,1.0,258.9125449885614,4.0,1.0,phase_1,,,,,,,,,,,,,magenta,square
402.0,4.0,4.0,0.0,2.0,2.0,245.7609870180022,4.0,1.0,phase_1,,,,,,,,,,,,,orange,diamond
0.0,1.0,0.0,0.0,4.0,4.0,382.3893259977922,4.0,2.0,phase_1,,,,,,,,,,,,,yellow,cross
100.0,2.0,1.0,0.0,1.0,1.0,351.9797330081928,4.0,1.0,phase_1,,,,,,,,,,,,,green,hexagon
381.0,8.0,4.0,1.0,4.0,4.0,296.9013020046986,4.0,1.0,phase_1,,,,,,,,,,,,,blue,triangle
0.0,7.0,0.0,1.0,3.0,3.0,307.6281450048554,4.0,1.0,phase_1,,,,,,,,,,,,,magenta,square
393.0,8.0,4.0,1.0,4.0,4.0,296.2611890106927,4.0,1.0,phase_1,,,,,,,,,,,,,blue,triangle
216.0,7.0,2.0,1.0,3.0,3.0,442.2515360056422,4.0,1.0,phase_1,,,,,,,,,,,,,magenta,square
183.0,7.0,2.0,1.0,3.0,3.0,322.5664950150531,4.0,1.0,phase_1,,,,,,,,,,,,,magenta,square
419.0,4.0,4.0,0.0,1.0,1.0,289.1645680065267,4.0,1.0,phase_1,,,,,,,,,,,,,orange,diamond
59.0,1.0,0.5,0.0,3.0,3.0,275.3555410017725,4.0,1.0,phase_1,,,,,,,,,,,,,yellow,cross
27.0,5.0,0.5,1.0,3.0,3.0,324.1388979949988,4.0,2.0,phase_1,,,,,,,,,,,,,cyan,I
67.0,5.0,0.5,1.0,3.0,3.0,312.0028910052497,4.0,1.0,phase_1,,,,,,,,,,,,,cyan,I
176.0,7.0,2.0,1.0,2.0,2.0,332.5539359939284,4.0,1.0,phase_1,,,,,,,,,,,,,magenta,square
220.0,7.0,2.0,1.0,4.0,4.0,346.7266020015813,4.0,1.0,phase_1,,,,,,,,,,,,,magenta,square
414.0,4.0,4.0,0.0,4.0,4.0,337.1126290003303,4.0,1.0,phase_1,,,,,,,,,,,,,orange,diamond
222.0,7.0,2.0,1.0,2.0,2.0,300.4256810236256,4.0,1.0,phase_1,,,,,,,,,,,,,magenta,square
73.0,5.0,0.5,1.0,1.0,1.0,361.5906890190672,4.0,1.0,phase_1,,,,,,,,,,,,,cyan,I
398.0,4.0,4.0,0.0,3.0,3.0,460.3856009780429,4.0,1.0,phase_1,,,,,,,,,,,,,orange,diamond
220.0,3.0,2.0,0.0,3.0,3.0,283.5018830082845,4.0,1.0,phase_1,,,,,,,,,,,,,white,flipped triangle
422.0,4.0,4.0,0.0,2.0,2.0,371.0164689982775,4.0,1.0,phase_1,,,,,,,,,,,,,orange,diamond
114.0,6.0,1.0,1.0,3.0,3.0,282.4173879926093,4.0,1.0,phase_1,,,,,,,,,,,,,gray,circle
76.0,2.0,1.0,0.0,3.0,3.0,295.4593329923227,4.0,1.0,phase_1,,,,,,,,,,,,,green,hexagon
204.0,3.0,2.0,0.0,2.0,2.0,262.7748140075709,4.0,1.0,phase_1,,,,,,,,,,,,,white,flipped triangle
381.0,4.0,4.0,0.0,1.0,1.0,263.0415970052127,4.0,1.0,phase_1,,,,,,,,,,,,,orange,diamond
119.0,2.0,1.0,0.0,1.0,1.0,364.0409420186188,4.0,1.0,phase_1,,,,,,,,,,,,,green,hexagon
399.0,8.0,4.0,1.0,4.0,4.0,263.9248349878471,4.0,1.0,phase_1,,,,,,,,,,,,,blue,triangle
419.0,4.0,4.0,0.0,2.0,2.0,320.0507610163186,4.0,1.0,phase_1,,,,,,,,,,,,,orange,diamond
191.0,3.0,2.0,0.0,3.0,3.0,288.2075330126099,4.0,1.0,phase_1,,,,,,,,,,,,,white,flipped triangle
206.0,7.0,2.0,1.0,4.0,4.0,243.3174469915684,4.0,2.0,phase_1,,,,,,,,,,,,,magenta,square
401.0,4.0,4.0,0.0,1.0,1.0,299.8881180246826,4.0,1.0,phase_1,,,,,,,,,,,,,orange,diamond
0.0,7.0,0.0,1.0,3.0,3.0,357.186924025882,4.0,1.0,phase_1,,,,,,,,,,,,,magenta,square
422.0,8.0,4.0,1.0,3.0,3.0,299.7145589906722,4.0,1.0,phase_1,,,,,,,,,,,,,blue,triangle
215.0,3.0,2.0,0.0,3.0,3.0,357.521258003544,4.0,1.0,phase_1,,,,,,,,,,,,,white,flipped triangle
34.0,5.0,0.5,1.0,2.0,2.0,324.8751510109287,4.0,1.0,phase_1,,,,,,,,,,,,,cyan,I
398.0,4.0,4.0,0.0,3.0,3.0,267.3348469834309,4.0,1.0,phase_1,,,,,,,,,,,,,orange,diamond
0.0,5.0,0.0,1.0,4.0,4.0,279.8486149986274,4.0,1.0,phase_1,,,,,,,,,,,,,cyan,I
27.0,1.0,0.5,0.0,1.0,1.0,360.4891900031362,4.0,1.0,phase_1,,,,,,,,,,,,,yellow,cross
0.0,4.0,0.0,0.0,3.0,3.0,349.5828760205768,4.0,1.0,phase_1,,,,,,,,,,,,,orange,diamond
79.0,2.0,1.0,0.0,3.0,3.0,291.8959469825495,4.0,1.0,phase_1,,,,,,,,,,,,,green,hexagon
0.0,3.0,0.0,0.0,2.0,2.0,258.0461780016776,4.0,1.0,phase_1,,,,,,,,,,,,,white,flipped triangle
203.0,3.0,2.0,0.0,4.0,4.0,296.6965099913068,4.0,1.0,phase_1,,,,,,,,,,,,,white,flipped triangle
194.0,7.0,2.0,1.0,2.0,2.0,262.3640419915318,4.0,1.0,phase_1,,,,,,,,,,,,,magenta,square
388.0,4.0,4.0,0.0,3.0,3.0,249.1439939767588,4.0,1.0,phase_1,,,,,,,,,,,,,orange,diamond
196.0,7.0,2.0,1.0,3.0,3.0,286.6215459944214,4.0,1.0,phase_1,,,,,,,,,,,,,magenta,square
93.0,6.0,1.0,1.0,3.0,3.0,274.3350650125649,4.0,1.0,phase_1,,,,,,,,,,,,,gray,circle
0.0,2.0,0.0,0.0,3.0,3.0,286.7954459798056,4.0,1.0,phase_1,,,,,,,,,,,,,green,hexagon
204.0,3.0,2.0,0.0,1.0,1.0,298.9561379945371,4.0,1.0,phase_1,,,,,,,,,,,,,white,flipped triangle
419.0,8.0,4.0,1.0,1.0,1.0,217.8417980030644,4.0,1.0,phase_1,,,,,,,,,,,,,blue,triangle
59.0,5.0,0.5,1.0,2.0,2.0,230.0108280032873,4.0,1.0,phase_1,,,,,,,,,,,,,cyan,I
383.0,8.0,4.0,1.0,2.0,2.0,242.490684002405,4.0,1.0,phase_1,,,,,,,,,,,,,blue,triangle
409.0,8.0,4.0,1.0,1.0,1.0,278.947362996405,4.0,1.0,phase_1,,,,,,,,,,,,,blue,triangle
59.0,1.0,0.5,0.0,4.0,4.0,258.5467039898503,4.0,2.0,phase_1,,,,,,,,,,,,,yellow,cross
378.0,4.0,4.0,0.0,1.0,1.0,315.2191610133741,4.0,1.0,phase_1,,,,,,,,,,,,,orange,diamond
188.0,3.0,2.0,0.0,4.0,4.0,291.7726720042992,4.0,1.0,phase_1,,,,,,,,,,,,,white,flipped triangle
63.0,1.0,0.5,0.0,2.0,2.0,473.1882089981809,4.0,1.0,phase_1,,,,,,,,,,,,,yellow,cross
405.0,4.0,4.0,0.0,2.0,2.0,280.0828539766371,4.0,1.0,phase_1,,,,,,,,,,,,,orange,diamond
218.0,3.0,2.0,0.0,2.0,2.0,293.2151739951223,4.0,1.0,phase_1,,,,,,,,,,,,,white,flipped triangle
215.0,7.0,2.0,1.0,4.0,4.0,259.8459360015113,4.0,1.0,phase_1,,,,,,,,,,,,,magenta,square
187.0,3.0,2.0,0.0,3.0,3.0,292.1446010004729,4.0,1.0,phase_1,,,,,,,,,,,,,white,flipped triangle
419.0,4.0,4.0,0.0,2.0,2.0,239.355372992577,4.0,1.0,phase_1,,,,,,,,,,,,,orange,diamond
0.0,4.0,0.0,0.0,1.0,1.0,226.7410870117601,4.0,1.0,phase_1,,,,,,,,,,,,,orange,diamond
209.0,7.0,2.0,1.0,4.0,4.0,284.3425349856261,4.0,1.0,phase_1,,,,,,,,,,,,,magenta,square
414.0,4.0,4.0,0.0,2.0,2.0,251.7097090021707,4.0,1.0,phase_1,,,,,,,,,,,,,orange,diamond
0.0,4.0,4.0,0.0,5.0,5.0,374.3712700088508,1.0,1.0,phase_2,go,250.0,250.0,1.0,,,,,,,,,orange,diamond
0.0,7.0,2.0,1.0,5.0,5.0,613.3078259881586,1.0,1.0,phase_2,stop,250.0,250.0,3.0,,,,,,,,,magenta,square
0.0,2.0,1.0,0.0,6.0,6.0,332.7806279994547,1.0,1.0,phase_2,go,200.0,250.0,1.0,,,,,,,,,green,hexagon
0.0,5.0,0.5,1.0,6.0,6.0,366.4083360054064,1.0,1.0,phase_2,stop,200.0,250.0,3.0,,,,,,,,,cyan,I
0.0,7.0,2.0,1.0,5.0,0.0,0.0,1.0,1.0,phase_2,stop,200.0,200.0,4.0,,,,,,,,,magenta,square
0.0,2.0,1.0,0.0,5.0,5.0,547.6082180102821,1.0,1.0,phase_2,go,250.0,200.0,1.0,,,,,,,,,green,hexagon
0.0,3.0,2.0,0.0,5.0,5.0,300.55593900033267,1.0,1.0,phase_2,go,250.0,200.0,1.0,,,,,,,,,white,flipped triangle
0.0,3.0,2.0,0.0,5.0,5.0,338.3050349948462,1.0,1.0,phase_2,go,250.0,200.0,1.0,,,,,,,,,white,flipped triangle
0.0,1.0,0.5,0.0,5.0,5.0,415.088563982863,1.0,1.0,phase_2,go,250.0,200.0,1.0,,,,,,,,,yellow,cross
0.0,3.0,2.0,0.0,6.0,6.0,430.0924999988638,1.0,1.0,phase_2,go,250.0,200.0,1.0,,,,,,,,,white,flipped triangle
0.0,6.0,1.0,1.0,5.0,5.0,464.0067979926243,1.0,1.0,phase_2,stop,250.0,200.0,3.0,,,,,,,,,gray,circle
0.0,8.0,4.0,1.0,5.0,5.0,632.0845530135557,1.0,1.0,phase_2,go,200.0,200.0,1.0,,,,,,,,,blue,triangle
0.0,4.0,4.0,0.0,6.0,6.0,487.8198379883542,1.0,1.0,phase_2,go,200.0,200.0,1.0,,,,,,,,,orange,diamond
0.0,4.0,4.0,0.0,5.0,5.0,565.1569520123303,1.0,1.0,phase_2,go,200.0,200.0,1.0,,,,,,,,,orange,diamond
0.0,8.0,4.0,1.0,6.0,0.0,0.0,1.0,1.0,phase_2,stop,200.0,200.0,4.0,,,,,,,,,blue,triangle
0.0,6.0,1.0,1.0,5.0,5.0,322.5706930097658,1.0,1.0,phase_2,go,200.0,250.0,1.0,,,,,,,,,gray,circle
0.0,7.0,2.0,1.0,5.0,0.0,0.0,1.0,1.0,phase_2,stop,200.0,250.0,4.0,,,,,,,,,magenta,square
0.0,1.0,0.5,0.0,5.0,5.0,381.2342500023078,1.0,1.0,phase_2,go,250.0,250.0,1.0,,,,,,,,,yellow,cross
0.0,6.0,1.0,1.0,5.0,5.0,524.9970290169585,1.0,1.0,phase_2,go,250.0,250.0,1.0,,,,,,,,,gray,circle
0.0,7.0,2.0,1.0,6.0,6.0,404.1414130188059,1.0,1.0,phase_2,stop,250.0,250.0,3.0,,,,,,,,,magenta,square
0.0,2.0,1.0,0.0,6.0,6.0,562.2698950173799,1.0,1.0,phase_2,go,250.0,200.0,1.0,,,,,,,,,green,hexagon
0.0,3.0,2.0,0.0,6.0,6.0,462.0653009915259,1.0,1.0,phase_2,go,250.0,200.0,1.0,,,,,,,,,white,flipped triangle
0.0,7.0,2.0,1.0,6.0,0.0,0.0,1.0,1.0,phase_2,stop,250.0,200.0,4.0,,,,,,,,,magenta,square
0.0,3.0,2.0,0.0,6.0,6.0,314.7008969972376,1.0,1.0,phase_2,go,250.0,250.0,1.0,,,,,,,,,white,flipped triangle
0.0,7.0,2.0,1.0,6.0,0.0,0.0,1.0,1.0,phase_2,stop,250.0,250.0,4.0,,,,,,,,,magenta,square
0.0,6.0,1.0,1.0,5.0,5.0,339.5544989907648,1.0,1.0,phase_2,stop,250.0,300.0,3.0,,,,,,,,,gray,circle
0.0,3.0,2.0,0.0,5.0,5.0,531.6898890014272,1.0,1.0,phase_2,go,200.0,300.0,1.0,,,,,,,,,white,flipped triangle
0.0,7.0,2.0,1.0,5.0,0.0,0.0,1.0,1.0,phase_2,stop,200.0,300.0,4.0,,,,,,,,,magenta,square
0.0,4.0,4.0,0.0,5.0,5.0,354.9649000051431,1.0,1.0,phase_2,go,250.0,300.0,1.0,,,,,,,,,orange,diamond
0.0,1.0,0.5,0.0,5.0,5.0,478.2687819970306,1.0,1.0,phase_2,go,250.0,300.0,1.0,,,,,,,,,yellow,cross
0.0,3.0,2.0,0.0,5.0,5.0,489.8645539942663,1.0,1.0,phase_2,go,250.0,300.0,1.0,,,,,,,,,white,flipped triangle
0.0,5.0,0.5,1.0,5.0,0.0,0.0,1.0,1.0,phase_2,stop,250.0,300.0,4.0,,,,,,,,,cyan,I
0.0,1.0,0.5,0.0,5.0,5.0,524.8071020178031,1.0,1.0,phase_2,go,300.0,300.0,1.0,,,,,,,,,yellow,cross
0.0,8.0,4.0,1.0,6.0,0.0,0.0,1.0,1.0,phase_2,stop,300.0,300.0,4.0,,,,,,,,,blue,triangle
0.0,2.0,1.0,0.0,6.0,6.0,518.264607002493,1.0,1.0,phase_2,go,300.0,350.0,1.0,,,,,,,,,green,hexagon
0.0,2.0,1.0,0.0,5.0,5.0,383.2257570174988,1.0,1.0,phase_2,go,300.0,350.0,1.0,,,,,,,,,green,hexagon
0.0,6.0,1.0,1.0,6.0,6.0,1184.0526850137394,2.0,1.0,phase_2,go,300.0,350.0,1.0,,,,,,,,,gray,circle
0.0,6.0,1.0,1.0,5.0,5.0,318.0771220067981,2.0,1.0,phase_2,go,300.0,350.0,1.0,,,,,,,,,gray,circle
0.0,7.0,2.0,1.0,5.0,5.0,443.2829589932225,2.0,1.0,phase_2,go,300.0,350.0,1.0,,,,,,,,,magenta,square
0.0,5.0,0.5,1.0,6.0,6.0,339.4668329856358,2.0,1.0,phase_2,stop,300.0,350.0,3.0,,,,,,,,,cyan,I
0.0,2.0,1.0,0.0,6.0,6.0,354.881387000205,2.0,1.0,phase_2,go,300.0,300.0,1.0,,,,,,,,,green,hexagon
0.0,1.0,0.5,0.0,6.0,6.0,309.6918369992636,2.0,1.0,phase_2,go,300.0,300.0,1.0,,,,,,,,,yellow,cross
0.0,8.0,4.0,1.0,6.0,6.0,341.5701540070586,2.0,1.0,phase_2,stop,300.0,300.0,3.0,,,,,,,,,blue,triangle
0.0,3.0,2.0,0.0,6.0,6.0,514.2728060018271,2.0,1.0,phase_2,go,300.0,250.0,1.0,,,,,,,,,white,flipped triangle
0.0,5.0,0.5,1.0,6.0,6.0,389.1693069890607,2.0,1.0,phase_2,stop,300.0,250.0,3.0,,,,,,,,,cyan,I
0.0,3.0,2.0,0.0,5.0,5.0,517.0804449880961,2.0,1.0,phase_2,go,300.0,200.0,1.0,,,,,,,,,white,flipped triangle
0.0,8.0,4.0,1.0,6.0,6.0,435.5022970121354,2.0,1.0,phase_2,go,300.0,200.0,1.0,,,,,,,,,blue,triangle
0.0,1.0,0.5,0.0,6.0,6.0,360.09938901406707,2.0,1.0,phase_2,go,300.0,200.0,1.0,,,,,,,,,yellow,cross
0.0,8.0,4.0,1.0,5.0,0.0,0.0,2.0,1.0,phase_2,stop,300.0,200.0,4.0,,,,,,,,,blue,triangle
0.0,4.0,4.0,0.0,6.0,6.0,317.7071000100113,2.0,1.0,phase_2,go,350.0,200.0,1.0,,,,,,,,,orange,diamond
0.0,1.0,0.5,0.0,6.0,6.0,396.701933001168,2.0,1.0,phase_2,go,350.0,200.0,1.0,,,,,,,,,yellow,cross
0.0,1.0,0.5,0.0,5.0,5.0,430.949306988623,2.0,1.0,phase_2,go,350.0,200.0,1.0,,,,,,,,,yellow,cross
0.0,6.0,1.0,1.0,6.0,0.0,0.0,2.0,1.0,phase_2,stop,350.0,200.0,4.0,,,,,,,,,gray,circle
0.0,6.0,1.0,1.0,6.0,0.0,0.0,2.0,1.0,phase_2,stop,350.0,250.0,4.0,,,,,,,,,gray,circle
0.0,5.0,0.5,1.0,6.0,6.0,532.6151820190717,2.0,1.0,phase_2,stop,350.0,300.0,3.0,,,,,,,,,cyan,I
0.0,2.0,1.0,0.0,5.0,5.0,547.091813001316,2.0,1.0,phase_2,go,350.0,250.0,1.0,,,,,,,,,green,hexagon
0.0,8.0,4.0,1.0,5.0,0.0,0.0,2.0,1.0,phase_2,stop,350.0,250.0,4.0,,,,,,,,,blue,triangle
0.0,8.0,4.0,1.0,5.0,5.0,427.1695810020901,2.0,1.0,phase_2,stop,400.0,250.0,3.0,,,,,,,,,blue,triangle
0.0,4.0,4.0,0.0,5.0,5.0,1030.4906599922106,2.0,1.0,phase_2,go,350.0,250.0,1.0,,,,,,,,,orange,diamond
0.0,4.0,4.0,0.0,5.0,5.0,481.6130639810581,2.0,1.0,phase_2,go,350.0,250.0,1.0,,,,,,,,,orange,diamond
0.0,5.0,0.5,1.0,5.0,5.0,313.6938050156459,2.0,1.0,phase_2,go,350.0,250.0,1.0,,,,,,,,,cyan,I
0.0,4.0,4.0,0.0,5.0,5.0,662.2697770071682,2.0,1.0,phase_2,go,350.0,250.0,1.0,,,,,,,,,orange,diamond
0.0,1.0,0.5,0.0,5.0,5.0,516.364655981306,2.0,1.0,phase_2,go,350.0,250.0,1.0,,,,,,,,,yellow,cross
0.0,7.0,2.0,1.0,5.0,0.0,0.0,2.0,1.0,phase_2,stop,350.0,250.0,4.0,,,,,,,,,magenta,square
0.0,2.0,1.0,0.0,5.0,5.0,499.0601960162166,2.0,1.0,phase_2,go,400.0,250.0,1.0,,,,,,,,,green,hexagon
0.0,4.0,4.0,0.0,5.0,5.0,555.6364929943811,2.0,1.0,phase_2,go,400.0,250.0,1.0,,,,,,,,,orange,diamond
0.0,7.0,2.0,1.0,5.0,0.0,0.0,2.0,1.0,phase_2,stop,400.0,250.0,4.0,,,,,,,,,magenta,square
0.0,1.0,0.5,0.0,5.0,5.0,501.88986101420596,2.0,1.0,phase_2,go,450.0,250.0,1.0,,,,,,,,,yellow,cross
0.0,8.0,4.0,1.0,6.0,0.0,0.0,2.0,1.0,phase_2,stop,450.0,250.0,4.0,,,,,,,,,blue,triangle
0.0,2.0,1.0,0.0,6.0,6.0,376.4817779883742,2.0,1.0,phase_2,go,450.0,300.0,1.0,,,,,,,,,green,hexagon
0.0,3.0,2.0,0.0,6.0,6.0,537.7962960046716,2.0,1.0,phase_2,go,450.0,300.0,1.0,,,,,,,,,white,flipped triangle
0.0,7.0,2.0,1.0,5.0,5.0,550.0514830055181,2.0,1.0,phase_2,stop,450.0,300.0,3.0,,,,,,,,,magenta,square
0.0,7.0,2.0,1.0,5.0,5.0,683.1932839995716,3.0,1.0,phase_2,stop,400.0,300.0,3.0,,,,,,,,,magenta,square
0.0,3.0,2.0,0.0,6.0,6.0,628.420016990276,3.0,1.0,phase_2,go,350.0,300.0,1.0,,,,,,,,,white,flipped triangle
0.0,1.0,0.5,0.0,5.0,5.0,481.6152709827292,3.0,1.0,phase_2,go,350.0,300.0,1.0,,,,,,,,,yellow,cross
0.0,3.0,2.0,0.0,6.0,6.0,339.7827619919553,3.0,1.0,phase_2,go,350.0,300.0,1.0,,,,,,,,,white,flipped triangle
0.0,2.0,1.0,0.0,5.0,5.0,350.229549978394,3.0,1.0,phase_2,go,350.0,300.0,1.0,,,,,,,,,green,hexagon
0.0,7.0,2.0,1.0,5.0,5.0,438.8246389862615,3.0,1.0,phase_2,stop,350.0,300.0,3.0,,,,,,,,,magenta,square
0.0,1.0,0.5,0.0,6.0,6.0,518.7582980142906,3.0,1.0,phase_2,go,300.0,300.0,1.0,,,,,,,,,yellow,cross
0.0,1.0,0.5,0.0,6.0,6.0,327.3176420188974,3.0,1.0,phase_2,go,300.0,300.0,1.0,,,,,,,,,yellow,cross
0.0,7.0,2.0,1.0,6.0,6.0,297.1251909912098,3.0,1.0,phase_2,stop,300.0,300.0,3.0,,,,,,,,,magenta,square
0.0,1.0,0.5,0.0,6.0,6.0,580.2877899841405,3.0,1.0,phase_2,go,300.0,250.0,1.0,,,,,,,,,yellow,cross
0.0,3.0,2.0,0.0,5.0,5.0,476.6175060067326,3.0,1.0,phase_2,go,300.0,250.0,1.0,,,,,,,,,white,flipped triangle
0.0,4.0,4.0,0.0,6.0,6.0,536.2264900177252,3.0,1.0,phase_2,go,300.0,250.0,1.0,,,,,,,,,orange,diamond
0.0,6.0,1.0,1.0,5.0,5.0,434.5040769840125,3.0,1.0,phase_2,stop,300.0,250.0,3.0,,,,,,,,,gray,circle
0.0,5.0,0.5,1.0,5.0,0.0,0.0,3.0,1.0,phase_2,stop,250.0,250.0,4.0,,,,,,,,,cyan,I
0.0,6.0,1.0,1.0,6.0,6.0,494.5209599973168,3.0,1.0,phase_2,go,300.0,250.0,1.0,,,,,,,,,gray,circle
0.0,1.0,0.5,0.0,6.0,6.0,503.95720000960864,3.0,1.0,phase_2,go,300.0,250.0,1.0,,,,,,,,,yellow,cross
0.0,2.0,1.0,0.0,6.0,6.0,338.5938389983494,3.0,1.0,phase_2,go,300.0,250.0,1.0,,,,,,,,,green,hexagon
0.0,3.0,2.0,0.0,5.0,5.0,437.7557460102252,3.0,1.0,phase_2,go,300.0,250.0,1.0,,,,,,,,,white,flipped triangle
0.0,3.0,2.0,0.0,6.0,6.0,497.1650229999795,3.0,1.0,phase_2,go,300.0,250.0,1.0,,,,,,,,,white,flipped triangle
0.0,6.0,1.0,1.0,6.0,6.0,419.5764239993877,3.0,1.0,phase_2,stop,300.0,250.0,3.0,,,,,,,,,gray,circle
0.0,5.0,0.5,1.0,5.0,0.0,0.0,3.0,1.0,phase_2,stop,300.0,200.0,4.0,,,,,,,,,cyan,I
0.0,5.0,0.5,1.0,5.0,5.0,500.8993859810289,3.0,1.0,phase_2,stop,350.0,200.0,3.0,,,,,,,,,cyan,I
0.0,4.0,4.0,0.0,6.0,6.0,466.7975480260793,3.0,1.0,phase_2,go,300.0,200.0,1.0,,,,,,,,,orange,diamond
0.0,6.0,1.0,1.0,5.0,5.0,343.9542520209215,3.0,1.0,phase_2,stop,300.0,200.0,3.0,,,,,,,,,gray,circle
0.0,1.0,0.5,0.0,6.0,6.0,555.4805930005386,3.0,1.0,phase_2,go,250.0,200.0,1.0,,,,,,,,,yellow,cross
0.0,4.0,4.0,0.0,6.0,6.0,491.5880069893319,3.0,1.0,phase_2,go,250.0,200.0,1.0,,,,,,,,,orange,diamond
0.0,7.0,2.0,1.0,6.0,6.0,456.3620970002375,3.0,1.0,phase_2,go,250.0,200.0,1.0,,,,,,,,,magenta,square
0.0,7.0,2.0,1.0,6.0,0.0,0.0,3.0,1.0,phase_2,stop,250.0,200.0,4.0,,,,,,,,,magenta,square
0.0,5.0,0.5,1.0,5.0,0.0,0.0,3.0,1.0,phase_2,stop,250.0,250.0,4.0,,,,,,,,,cyan,I
0.0,1.0,0.5,0.0,6.0,6.0,493.1249139772262,3.0,1.0,phase_2,go,300.0,250.0,1.0,,,,,,,,,yellow,cross
0.0,7.0,2.0,1.0,6.0,6.0,460.4137610003818,3.0,1.0,phase_2,go,300.0,250.0,1.0,,,,,,,,,magenta,square
0.0,5.0,0.5,1.0,6.0,6.0,406.9146330002695,3.0,1.0,phase_2,stop,300.0,250.0,3.0,,,,,,,,,cyan,I
0.0,3.0,2.0,0.0,6.0,6.0,585.506900009932,3.0,1.0,phase_2,go,300.0,200.0,1.0,,,,,,,,,white,flipped triangle
0.0,6.0,1.0,1.0,5.0,0.0,0.0,3.0,1.0,phase_2,stop,300.0,200.0,4.0,,,,,,,,,gray,circle
0.0,8.0,4.0,1.0,5.0,0.0,0.0,3.0,1.0,phase_2,stop,350.0,200.0,4.0,,,,,,,,,blue,triangle
0.0,6.0,1.0,1.0,6.0,6.0,557.3650889855344,3.0,1.0,phase_2,go,400.0,200.0,1.0,,,,,,,,,gray,circle
0.0,4.0,4.0,0.0,6.0,6.0,556.38678901596,4.0,1.0,phase_2,go,400.0,200.0,1.0,,,,,,,,,orange,diamond
0.0,3.0,2.0,0.0,6.0,6.0,368.0011570104398,4.0,1.0,phase_2,go,400.0,200.0,1.0,,,,,,,,,white,flipped triangle
0.0,5.0,0.5,1.0,6.0,6.0,313.7637979816645,4.0,1.0,phase_2,stop,400.0,200.0,3.0,,,,,,,,,cyan,I
0.0,4.0,4.0,0.0,5.0,5.0,459.711846022401,4.0,1.0,phase_2,go,400.0,150.0,1.0,,,,,,,,,orange,diamond
0.0,5.0,0.5,1.0,5.0,5.0,402.321274013957,4.0,1.0,phase_2,go,400.0,150.0,1.0,,,,,,,,,cyan,I
0.0,1.0,0.5,0.0,6.0,6.0,518.8790089741815,4.0,1.0,phase_2,go,400.0,150.0,1.0,,,,,,,,,yellow,cross
0.0,2.0,1.0,0.0,6.0,6.0,484.2638270056341,4.0,1.0,phase_2,go,400.0,150.0,1.0,,,,,,,,,green,hexagon
0.0,7.0,2.0,1.0,5.0,5.0,429.0465950034559,4.0,1.0,phase_2,go,400.0,150.0,1.0,,,,,,,,,magenta,square
0.0,4.0,4.0,0.0,6.0,6.0,452.6530870061833,4.0,1.0,phase_2,go,400.0,150.0,1.0,,,,,,,,,orange,diamond
0.0,3.0,2.0,0.0,5.0,5.0,318.9789099851623,4.0,1.0,phase_2,go,400.0,150.0,1.0,,,,,,,,,white,flipped triangle
0.0,1.0,0.5,0.0,5.0,5.0,374.195498006884,4.0,1.0,phase_2,go,400.0,150.0,1.0,,,,,,,,,yellow,cross
0.0,2.0,1.0,0.0,6.0,6.0,296.5778509969823,4.0,1.0,phase_2,go,400.0,150.0,1.0,,,,,,,,,green,hexagon
0.0,8.0,4.0,1.0,6.0,6.0,332.3057209781836,4.0,1.0,phase_2,stop,400.0,150.0,3.0,,,,,,,,,blue,triangle
0.0,3.0,2.0,0.0,5.0,5.0,365.1015619980171,4.0,1.0,phase_2,go,400.0,100.0,1.0,,,,,,,,,white,flipped triangle
0.0,5.0,0.5,1.0,5.0,5.0,425.2010589989368,4.0,1.0,phase_2,stop,400.0,100.0,3.0,,,,,,,,,cyan,I
0.0,5.0,0.5,1.0,5.0,5.0,501.8188440008089,4.0,1.0,phase_2,go,350.0,100.0,1.0,,,,,,,,,cyan,I
0.0,8.0,4.0,1.0,6.0,0.0,0.0,4.0,1.0,phase_2,stop,350.0,100.0,4.0,,,,,,,,,blue,triangle
0.0,5.0,0.5,1.0,5.0,0.0,0.0,4.0,1.0,phase_2,stop,350.0,150.0,4.0,,,,,,,,,cyan,I
0.0,8.0,4.0,1.0,6.0,0.0,0.0,4.0,1.0,phase_2,stop,400.0,150.0,4.0,,,,,,,,,blue,triangle
0.0,4.0,4.0,0.0,5.0,5.0,439.6796250075567,4.0,1.0,phase_2,go,400.0,200.0,1.0,,,,,,,,,orange,diamond
0.0,3.0,2.0,0.0,5.0,5.0,475.1944220042787,4.0,1.0,phase_2,go,400.0,200.0,1.0,,,,,,,,,white,flipped triangle
0.0,8.0,4.0,1.0,5.0,5.0,352.2200779989362,4.0,1.0,phase_2,stop,400.0,200.0,3.0,,,,,,,,,blue,triangle
0.0,4.0,4.0,0.0,5.0,5.0,565.5672900029458,4.0,1.0,phase_2,go,350.0,200.0,1.0,,,,,,,,,orange,diamond
0.0,6.0,1.0,1.0,6.0,0.0,0.0,4.0,1.0,phase_2,stop,350.0,200.0,4.0,,,,,,,,,gray,circle
0.0,2.0,1.0,0.0,5.0,5.0,476.8603550037369,4.0,1.0,phase_2,go,350.0,250.0,1.0,,,,,,,,,green,hexagon
0.0,5.0,0.5,1.0,5.0,5.0,488.6449720070231,4.0,1.0,phase_2,stop,350.0,250.0,3.0,,,,,,,,,cyan,I
0.0,1.0,0.5,0.0,6.0,6.0,612.6323549833614,4.0,1.0,phase_2,go,300.0,250.0,1.0,,,,,,,,,yellow,cross
0.0,3.0,2.0,0.0,6.0,6.0,421.7901470256038,4.0,1.0,phase_2,go,300.0,250.0,1.0,,,,,,,,,white,flipped triangle
0.0,4.0,4.0,0.0,5.0,5.0,500.8215959824156,4.0,1.0,phase_2,go,300.0,250.0,1.0,,,,,,,,,orange,diamond
0.0,8.0,4.0,1.0,5.0,5.0,402.4081300012767,4.0,1.0,phase_2,stop,300.0,250.0,3.0,,,,,,,,,blue,triangle
0.0,3.0,2.0,0.0,5.0,5.0,459.5171880209818,4.0,1.0,phase_2,go,250.0,250.0,1.0,,,,,,,,,white,flipped triangle
0.0,8.0,4.0,1.0,5.0,0.0,0.0,4.0,1.0,phase_2,stop,250.0,250.0,4.0,,,,,,,,,blue,triangle
0.0,6.0,1.0,1.0,5.0,5.0,539.1573749948293,4.0,1.0,phase_2,go,300.0,250.0,1.0,,,,,,,,,gray,circle
0.0,8.0,4.0,1.0,6.0,6.0,460.7565629994496,4.0,1.0,phase_2,go,300.0,250.0,1.0,,,,,,,,,blue,triangle
0.0,6.0,1.0,1.0,6.0,0.0,0.0,4.0,1.0,phase_2,stop,300.0,250.0,4.0,,,,,,,,,gray,circle
0.0,7.0,2.0,1.0,6.0,6.0,507.2141530108638,4.0,1.0,phase_2,go,300.0,300.0,1.0,,,,,,,,,magenta,square
0.0,4.0,4.0,0.0,6.0,6.0,422.9801599867642,5.0,1.0,phase_2,go,300.0,300.0,1.0,,,,,,,,,orange,diamond
0.0,6.0,1.0,1.0,6.0,6.0,319.3497710162774,5.0,1.0,phase_2,stop,300.0,300.0,3.0,,,,,,,,,gray,circle
0.0,5.0,0.5,1.0,6.0,0.0,0.0,5.0,1.0,phase_2,stop,300.0,250.0,4.0,,,,,,,,,cyan,I
0.0,8.0,4.0,1.0,6.0,6.0,492.4014919961337,5.0,1.0,phase_2,go,300.0,300.0,1.0,,,,,,,,,blue,triangle
0.0,5.0,0.5,1.0,5.0,5.0,370.9904770075809,5.0,1.0,phase_2,go,300.0,300.0,1.0,,,,,,,,,cyan,I
0.0,1.0,0.5,0.0,5.0,5.0,561.7674569948576,5.0,1.0,phase_2,go,300.0,300.0,1.0,,,,,,,,,yellow,cross
0.0,8.0,4.0,1.0,6.0,6.0,472.6583900046535,5.0,1.0,phase_2,stop,300.0,300.0,3.0,,,,,,,,,blue,triangle
0.0,4.0,4.0,0.0,6.0,6.0,458.8790169800631,5.0,1.0,phase_2,go,300.0,250.0,1.0,,,,,,,,,orange,diamond
0.0,8.0,4.0,1.0,5.0,5.0,405.067557003349,5.0,1.0,phase_2,go,300.0,250.0,1.0,,,,,,,,,blue,triangle
0.0,2.0,1.0,0.0,6.0,6.0,505.71272399974987,5.0,1.0,phase_2,go,300.0,250.0,1.0,,,,,,,,,green,hexagon
0.0,1.0,0.5,0.0,5.0,5.0,383.3853350079153,5.0,1.0,phase_2,go,300.0,250.0,1.0,,,,,,,,,yellow,cross
0.0,8.0,4.0,1.0,5.0,5.0,443.4622680128086,5.0,1.0,phase_2,go,300.0,250.0,1.0,,,,,,,,,blue,triangle
0.0,5.0,0.5,1.0,5.0,0.0,0.0,5.0,1.0,phase_2,stop,300.0,250.0,4.0,,,,,,,,,cyan,I
0.0,6.0,1.0,1.0,5.0,0.0,0.0,5.0,1.0,phase_2,stop,350.0,250.0,4.0,,,,,,,,,gray,circle
0.0,4.0,4.0,0.0,5.0,5.0,455.93030800228,5.0,1.0,phase_2,go,400.0,250.0,1.0,,,,,,,,,orange,diamond
0.0,5.0,0.5,1.0,6.0,0.0,0.0,5.0,1.0,phase_2,stop,400.0,250.0,4.0,,,,,,,,,cyan,I
0.0,2.0,1.0,0.0,5.0,5.0,568.029296991881,5.0,1.0,phase_2,go,400.0,300.0,1.0,,,,,,,,,green,hexagon
0.0,2.0,1.0,0.0,6.0,6.0,467.467989976285,5.0,1.0,phase_2,go,400.0,300.0,1.0,,,,,,,,,green,hexagon
0.0,7.0,2.0,1.0,5.0,0.0,0.0,5.0,1.0,phase_2,stop,400.0,300.0,4.0,,,,,,,,,magenta,square
0.0,7.0,2.0,1.0,5.0,5.0,538.7977999926079,5.0,1.0,phase_2,stop,450.0,300.0,3.0,,,,,,,,,magenta,square
0.0,4.0,4.0,0.0,5.0,5.0,664.5086719945539,5.0,1.0,phase_2,go,400.0,300.0,1.0,,,,,,,,,orange,diamond
0.0,7.0,2.0,1.0,6.0,6.0,338.8951199885923,5.0,1.0,phase_2,go,400.0,300.0,1.0,,,,,,,,,magenta,square
0.0,7.0,2.0,1.0,6.0,0.0,0.0,5.0,1.0,phase_2,stop,400.0,300.0,4.0,,,,,,,,,magenta,square
0.0,8.0,4.0,1.0,5.0,5.0,430.7464610028546,5.0,1.0,phase_2,stop,400.0,350.0,3.0,,,,,,,,,blue,triangle
0.0,2.0,1.0,0.0,6.0,6.0,484.2296779970638,5.0,1.0,phase_2,go,350.0,350.0,1.0,,,,,,,,,green,hexagon
0.0,6.0,1.0,1.0,6.0,6.0,441.3904639950488,5.0,1.0,phase_2,stop,350.0,350.0,3.0,,,,,,,,,gray,circle
0.0,8.0,4.0,1.0,5.0,5.0,589.0045650012325,5.0,1.0,phase_2,go,350.0,300.0,1.0,,,,,,,,,blue,triangle
0.0,4.0,4.0,0.0,5.0,5.0,576.6876460111234,5.0,1.0,phase_2,go,350.0,300.0,1.0,,,,,,,,,orange,diamond
0.0,3.0,2.0,0.0,6.0,6.0,455.5198499874677,5.0,1.0,phase_2,go,350.0,300.0,1.0,,,,,,,,,white,flipped triangle
0.0,8.0,4.0,1.0,5.0,5.0,446.4875289995689,5.0,1.0,phase_2,stop,350.0,300.0,3.0,,,,,,,,,blue,triangle
0.0,2.0,1.0,0.0,6.0,6.0,525.5706009920686,5.0,1.0,phase_2,go,300.0,300.0,1.0,,,,,,,,,green,hexagon
0.0,8.0,4.0,1.0,6.0,0.0,0.0,5.0,1.0,phase_2,stop,300.0,300.0,4.0,,,,,,,,,blue,triangle
0.0,3.0,2.0,0.0,6.0,6.0,709.0493839932606,5.0,1.0,phase_2,go,300.0,350.0,1.0,,,,,,,,,white,flipped triangle
0.0,5.0,0.5,1.0,6.0,6.0,405.7293650112115,5.0,1.0,phase_2,stop,300.0,350.0,3.0,,,,,,,,,cyan,I
0.0,2.0,1.0,0.0,5.0,5.0,529.8972699965816,5.0,1.0,phase_2,go,300.0,300.0,1.0,,,,,,,,,green,hexagon
0.0,6.0,1.0,1.0,5.0,5.0,361.7947339953389,5.0,1.0,phase_2,stop,300.0,300.0,3.0,,,,,,,,,gray,circle
0.0,1.0,0.5,0.0,5.0,5.0,655.0485610205214,6.0,1.0,phase_2,go,250.0,300.0,1.0,,,,,,,,,yellow,cross
0.0,2.0,1.0,0.0,5.0,5.0,396.3759119797032,6.0,1.0,phase_2,go,250.0,300.0,1.0,,,,,,,,,green,hexagon
0.0,6.0,1.0,1.0,5.0,5.0,318.1748909992166,6.0,1.0,phase_2,stop,250.0,300.0,3.0,,,,,,,,,gray,circle
0.0,7.0,2.0,1.0,6.0,6.0,366.5034070145339,6.0,1.0,phase_2,stop,200.0,300.0,3.0,,,,,,,,,magenta,square
0.0,2.0,1.0,0.0,6.0,6.0,534.6779599785805,6.0,1.0,phase_2,go,200.0,250.0,1.0,,,,,,,,,green,hexagon
0.0,6.0,1.0,1.0,6.0,6.0,367.9059090209193,6.0,1.0,phase_2,stop,200.0,250.0,3.0,,,,,,,,,gray,circle
0.0,2.0,1.0,0.0,5.0,5.0,516.131796000991,6.0,1.0,phase_2,go,200.0,200.0,1.0,,,,,,,,,green,hexagon
0.0,6.0,1.0,1.0,6.0,0.0,0.0,6.0,1.0,phase_2,stop,200.0,200.0,4.0,,,,,,,,,gray,circle
0.0,3.0,2.0,0.0,6.0,6.0,539.9584090046119,6.0,1.0,phase_2,go,200.0,250.0,1.0,,,,,,,,,white,flipped triangle
0.0,2.0,1.0,0.0,5.0,5.0,480.9091310016811,6.0,1.0,phase_2,go,200.0,250.0,1.0,,,,,,,,,green,hexagon
0.0,6.0,1.0,1.0,5.0,5.0,361.3328810024541,6.0,1.0,phase_2,stop,200.0,250.0,3.0,,,,,,,,,gray,circle
0.0,5.0,0.5,1.0,5.0,5.0,685.4767110198736,6.0,1.0,phase_2,go,150.0,250.0,1.0,,,,,,,,,cyan,I
0.0,8.0,4.0,1.0,5.0,0.0,0.0,6.0,1.0,phase_2,stop,150.0,250.0,4.0,,,,,,,,,blue,triangle
0.0,4.0,4.0,0.0,6.0,6.0,439.1681739944033,6.0,1.0,phase_2,go,200.0,250.0,1.0,,,,,,,,,orange,diamond
0.0,1.0,0.5,0.0,6.0,6.0,522.3621730110608,6.0,1.0,phase_2,go,200.0,250.0,1.0,,,,,,,,,yellow,cross
0.0,4.0,4.0,0.0,6.0,6.0,418.8255560002289,6.0,1.0,phase_2,go,200.0,250.0,1.0,,,,,,,,,orange,diamond
0.0,8.0,4.0,1.0,6.0,0.0,0.0,6.0,1.0,phase_2,stop,200.0,250.0,4.0,,,,,,,,,blue,triangle
0.0,8.0,4.0,1.0,6.0,0.0,0.0,6.0,1.0,phase_2,stop,200.0,300.0,4.0,,,,,,,,,blue,triangle
0.0,3.0,2.0,0.0,5.0,5.0,411.4775839843787,6.0,1.0,phase_2,go,200.0,350.0,1.0,,,,,,,,,white,flipped triangle
0.0,8.0,4.0,1.0,6.0,6.0,535.6582429958507,6.0,1.0,phase_2,stop,200.0,350.0,3.0,,,,,,,,,blue,triangle
0.0,6.0,1.0,1.0,6.0,0.0,0.0,6.0,1.0,phase_2,stop,200.0,300.0,4.0,,,,,,,,,gray,circle
0.0,3.0,2.0,0.0,6.0,6.0,740.5112130218185,6.0,1.0,phase_2,go,200.0,350.0,1.0,,,,,,,,,white,flipped triangle
0.0,1.0,0.5,0.0,6.0,6.0,528.3648890035693,6.0,1.0,phase_2,go,200.0,350.0,1.0,,,,,,,,,yellow,cross
0.0,5.0,0.5,1.0,6.0,6.0,335.2921699988656,6.0,1.0,phase_2,stop,200.0,350.0,3.0,,,,,,,,,cyan,I
0.0,7.0,2.0,1.0,5.0,0.0,0.0,6.0,1.0,phase_2,stop,200.0,300.0,4.0,,,,,,,,,magenta,square
0.0,6.0,1.0,1.0,6.0,6.0,439.32126800064,6.0,1.0,phase_2,stop,250.0,300.0,3.0,,,,,,,,,gray,circle
0.0,2.0,1.0,0.0,5.0,5.0,453.7647389806807,6.0,1.0,phase_2,go,250.0,250.0,1.0,,,,,,,,,green,hexagon
0.0,2.0,1.0,0.0,5.0,5.0,419.462136022048,6.0,1.0,phase_2,go,250.0,250.0,1.0,,,,,,,,,green,hexagon
0.0,5.0,0.5,1.0,5.0,5.0,342.8274109901394,6.0,1.0,phase_2,stop,250.0,250.0,3.0,,,,,,,,,cyan,I
0.0,1.0,0.5,0.0,5.0,5.0,556.694400991546,6.0,1.0,phase_2,go,200.0,250.0,1.0,,,,,,,,,yellow,cross
0.0,7.0,2.0,1.0,6.0,6.0,524.8731290048454,6.0,1.0,phase_2,stop,200.0,250.0,3.0,,,,,,,,,magenta,square
0.0,5.0,0.5,1.0,5.0,0.0,0.0,6.0,1.0,phase_2,stop,200.0,200.0,4.0,,,,,,,,,cyan,I
0.0,5.0,0.5,1.0,5.0,5.0,624.3132469826378,6.0,1.0,phase_2,go,250.0,200.0,1.0,,,,,,,,,cyan,I
0.0,5.0,0.5,1.0,6.0,0.0,0.0,6.0,1.0,phase_2,stop,250.0,200.0,4.0,,,,,,,,,cyan,I
0.0,1.0,0.5,0.0,6.0,6.0,615.6870929989964,6.0,1.0,phase_2,go,250.0,250.0,1.0,,,,,,,,,yellow,cross
0.0,7.0,2.0,1.0,5.0,0.0,0.0,6.0,1.0,phase_2,stop,250.0,250.0,4.0,,,,,,,,,magenta,square
0.0,2.0,1.0,0.0,5.0,5.0,517.7525319741108,7.0,1.0,phase_2,go,300.0,250.0,1.0,,,,,,,,,green,hexagon
0.0,6.0,1.0,1.0,6.0,6.0,405.1698010007385,7.0,1.0,phase_2,go,300.0,250.0,1.0,,,,,,,,,gray,circle
0.0,6.0,1.0,1.0,5.0,5.0,373.5408599895891,7.0,1.0,phase_2,stop,300.0,250.0,3.0,,,,,,,,,gray,circle
0.0,1.0,0.5,0.0,5.0,5.0,499.30032901465887,7.0,1.0,phase_2,go,250.0,250.0,1.0,,,,,,,,,yellow,cross
0.0,8.0,4.0,1.0,5.0,0.0,0.0,7.0,1.0,phase_2,stop,250.0,250.0,4.0,,,,,,,,,blue,triangle
0.0,5.0,0.5,1.0,6.0,6.0,455.3850230004173,7.0,1.0,phase_2,go,300.0,250.0,1.0,,,,,,,,,cyan,I
0.0,6.0,1.0,1.0,6.0,6.0,455.9590249846224,7.0,1.0,phase_2,go,300.0,250.0,1.0,,,,,,,,,gray,circle
0.0,2.0,1.0,0.0,6.0,6.0,402.2520320140756,7.0,1.0,phase_2,go,300.0,250.0,1.0,,,,,,,,,green,hexagon
0.0,8.0,4.0,1.0,5.0,0.0,0.0,7.0,1.0,phase_2,stop,300.0,250.0,4.0,,,,,,,,,blue,triangle
0.0,4.0,4.0,0.0,6.0,6.0,313.5982450039591,7.0,1.0,phase_2,go,350.0,250.0,1.0,,,,,,,,,orange,diamond
0.0,2.0,1.0,0.0,6.0,6.0,380.8183660148643,7.0,1.0,phase_2,go,350.0,250.0,1.0,,,,,,,,,green,hexagon
0.0,4.0,4.0,0.0,5.0,5.0,458.0434380040969,7.0,1.0,phase_2,go,350.0,250.0,1.0,,,,,,,,,orange,diamond
0.0,5.0,0.5,1.0,6.0,0.0,0.0,7.0,1.0,phase_2,stop,350.0,250.0,4.0,,,,,,,,,cyan,I
0.0,4.0,4.0,0.0,5.0,5.0,519.0586920070928,7.0,1.0,phase_2,go,350.0,300.0,1.0,,,,,,,,,orange,diamond
0.0,1.0,0.5,0.0,6.0,6.0,460.93039601692,7.0,1.0,phase_2,go,350.0,300.0,1.0,,,,,,,,,yellow,cross
0.0,2.0,1.0,0.0,6.0,6.0,408.9725399971939,7.0,1.0,phase_2,go,350.0,300.0,1.0,,,,,,,,,green,hexagon
0.0,8.0,4.0,1.0,6.0,6.0,443.4892860008403,7.0,1.0,phase_2,go,350.0,300.0,1.0,,,,,,,,,blue,triangle
0.0,4.0,4.0,0.0,6.0,6.0,409.4873789872508,7.0,1.0,phase_2,go,350.0,300.0,1.0,,,,,,,,,orange,diamond
0.0,3.0,2.0,0.0,6.0,6.0,385.6405059923418,7.0,1.0,phase_2,go,350.0,300.0,1.0,,,,,,,,,white,flipped triangle
0.0,5.0,0.5,1.0,5.0,5.0,486.9687449827324,7.0,1.0,phase_2,stop,350.0,300.0,3.0,,,,,,,,,cyan,I
0.0,8.0,4.0,1.0,6.0,6.0,479.6265820041299,7.0,1.0,phase_2,go,300.0,300.0,1.0,,,,,,,,,blue,triangle
0.0,3.0,2.0,0.0,6.0,6.0,376.5574930002913,7.0,1.0,phase_2,go,300.0,300.0,1.0,,,,,,,,,white,flipped triangle
0.0,7.0,2.0,1.0,6.0,6.0,436.4948259899393,7.0,1.0,phase_2,go,300.0,300.0,1.0,,,,,,,,,magenta,square
0.0,2.0,1.0,0.0,5.0,5.0,426.7881790001411,7.0,1.0,phase_2,go,300.0,300.0,1.0,,,,,,,,,green,hexagon
0.0,7.0,2.0,1.0,6.0,6.0,392.6850429852493,7.0,1.0,phase_2,go,300.0,300.0,1.0,,,,,,,,,magenta,square
0.0,5.0,0.5,1.0,6.0,6.0,359.557179006515,7.0,1.0,phase_2,stop,300.0,300.0,3.0,,,,,,,,,cyan,I
0.0,7.0,2.0,1.0,5.0,5.0,461.4373310178052,7.0,1.0,phase_2,stop,300.0,250.0,3.0,,,,,,,,,magenta,square
0.0,1.0,0.5,0.0,6.0,6.0,438.5873980063479,7.0,1.0,phase_2,go,250.0,250.0,1.0,,,,,,,,,yellow,cross
0.0,5.0,0.5,1.0,6.0,6.0,371.7039659968577,7.0,1.0,phase_2,stop,250.0,250.0,3.0,,,,,,,,,cyan,I
0.0,4.0,4.0,0.0,6.0,6.0,498.7029490002896,7.0,1.0,phase_2,go,250.0,200.0,1.0,,,,,,,,,orange,diamond
0.0,6.0,1.0,1.0,5.0,0.0,0.0,7.0,1.0,phase_2,stop,250.0,200.0,4.0,,,,,,,,,gray,circle
0.0,3.0,2.0,0.0,5.0,5.0,725.1615950081032,7.0,1.0,phase_2,go,300.0,200.0,1.0,,,,,,,,,white,flipped triangle
0.0,7.0,2.0,1.0,6.0,0.0,0.0,7.0,1.0,phase_2,stop,300.0,200.0,4.0,,,,,,,,,magenta,square
0.0,1.0,0.5,0.0,6.0,6.0,557.7098389912862,7.0,1.0,phase_2,go,300.0,250.0,1.0,,,,,,,,,yellow,cross
0.0,1.0,0.5,0.0,6.0,6.0,412.4791020003613,7.0,1.0,phase_2,go,300.0,250.0,1.0,,,,,,,,,yellow,cross
0.0,1.0,0.5,0.0,5.0,5.0,425.2092200040351,7.0,1.0,phase_2,go,300.0,250.0,1.0,,,,,,,,,yellow,cross
0.0,3.0,2.0,0.0,6.0,6.0,546.4645150059368,8.0,1.0,phase_2,go,300.0,250.0,1.0,,,,,,,,,white,flipped triangle
0.0,4.0,4.0,0.0,6.0,6.0,332.9145990137476,8.0,1.0,phase_2,go,300.0,250.0,1.0,,,,,,,,,orange,diamond
0.0,4.0,4.0,0.0,6.0,6.0,412.0443990104832,8.0,1.0,phase_2,go,300.0,250.0,1.0,,,,,,,,,orange,diamond
0.0,1.0,0.5,0.0,5.0,5.0,480.9448629966937,8.0,1.0,phase_2,go,300.0,250.0,1.0,,,,,,,,,yellow,cross
0.0,4.0,4.0,0.0,6.0,6.0,517.2211610188242,8.0,1.0,phase_2,go,300.0,250.0,1.0,,,,,,,,,orange,diamond
0.0,2.0,1.0,0.0,6.0,6.0,417.8087890031747,8.0,1.0,phase_2,go,300.0,250.0,1.0,,,,,,,,,green,hexagon
0.0,7.0,2.0,1.0,6.0,0.0,0.0,8.0,1.0,phase_2,stop,300.0,250.0,4.0,,,,,,,,,magenta,square
0.0,5.0,0.5,1.0,6.0,6.0,373.0924669944215,8.0,1.0,phase_2,go,300.0,300.0,1.0,,,,,,,,,cyan,I
0.0,3.0,2.0,0.0,5.0,5.0,450.889942003414,8.0,1.0,phase_2,go,300.0,300.0,1.0,,,,,,,,,white,flipped triangle
0.0,3.0,2.0,0.0,5.0,5.0,452.04730698606,8.0,1.0,phase_2,go,300.0,300.0,1.0,,,,,,,,,white,flipped triangle
0.0,6.0,1.0,1.0,6.0,6.0,351.739183999598,8.0,1.0,phase_2,stop,300.0,300.0,3.0,,,,,,,,,gray,circle
0.0,1.0,0.5,0.0,5.0,5.0,456.190113996854,8.0,1.0,phase_2,go,300.0,250.0,1.0,,,,,,,,,yellow,cross
0.0,7.0,2.0,1.0,5.0,5.0,356.0685410047881,8.0,1.0,phase_2,go,300.0,250.0,1.0,,,,,,,,,magenta,square
0.0,7.0,2.0,1.0,6.0,6.0,409.6683130192105,8.0,1.0,phase_2,stop,300.0,250.0,3.0,,,,,,,,,magenta,square
0.0,6.0,1.0,1.0,5.0,0.0,0.0,8.0,1.0,phase_2,stop,300.0,200.0,4.0,,,,,,,,,gray,circle
0.0,2.0,1.0,0.0,6.0,6.0,468.4143569902517,8.0,1.0,phase_2,go,350.0,200.0,1.0,,,,,,,,,green,hexagon
0.0,8.0,4.0,1.0,5.0,5.0,376.0386150097474,8.0,1.0,phase_2,stop,350.0,200.0,3.0,,,,,,,,,blue,triangle
0.0,5.0,0.5,1.0,6.0,0.0,0.0,8.0,1.0,phase_2,stop,300.0,200.0,4.0,,,,,,,,,cyan,I
0.0,7.0,2.0,1.0,5.0,5.0,382.9264609958045,8.0,1.0,phase_2,stop,300.0,250.0,3.0,,,,,,,,,magenta,square
0.0,3.0,2.0,0.0,5.0,5.0,459.5026189927012,8.0,1.0,phase_2,go,250.0,250.0,1.0,,,,,,,,,white,flipped triangle
0.0,2.0,1.0,0.0,5.0,5.0,451.661930012051,8.0,1.0,phase_2,go,250.0,250.0,1.0,,,,,,,,,green,hexagon
0.0,4.0,4.0,0.0,5.0,5.0,554.9978810013272,8.0,1.0,phase_2,go,250.0,250.0,1.0,,,,,,,,,orange,diamond
0.0,6.0,1.0,1.0,5.0,5.0,350.0425749807618,8.0,1.0,phase_2,stop,250.0,250.0,3.0,,,,,,,,,gray,circle
0.0,2.0,1.0,0.0,5.0,5.0,543.2952659903094,8.0,1.0,phase_2,go,200.0,250.0,1.0,,,,,,,,,green,hexagon
0.0,2.0,1.0,0.0,5.0,5.0,441.7178340081591,8.0,1.0,phase_2,go,200.0,250.0,1.0,,,,,,,,,green,hexagon
0.0,3.0,2.0,0.0,5.0,5.0,454.8793629801366,8.0,1.0,phase_2,go,200.0,250.0,1.0,,,,,,,,,white,flipped triangle
0.0,4.0,4.0,0.0,5.0,5.0,454.93274598266,8.0,1.0,phase_2,go,200.0,250.0,1.0,,,,,,,,,orange,diamond
0.0,7.0,2.0,1.0,6.0,0.0,0.0,8.0,1.0,phase_2,stop,200.0,250.0,4.0,,,,,,,,,magenta,square
0.0,8.0,4.0,1.0,5.0,0.0,0.0,8.0,1.0,phase_2,stop,200.0,300.0,4.0,,,,,,,,,blue,triangle
0.0,4.0,4.0,0.0,6.0,6.0,448.8263300154358,8.0,1.0,phase_2,go,250.0,300.0,1.0,,,,,,,,,orange,diamond
0.0,6.0,1.0,1.0,5.0,0.0,0.0,8.0,1.0,phase_2,stop,250.0,300.0,4.0,,,,,,,,,gray,circle
0.0,5.0,0.5,1.0,6.0,6.0,540.2865780051798,8.0,1.0,phase_2,go,300.0,300.0,1.0,,,,,,,,,cyan,I
0.0,6.0,1.0,1.0,6.0,6.0,617.8000720101409,8.0,1.0,phase_2,stop,300.0,300.0,3.0,,,,,,,,,gray,circle
0.0,1.0,0.5,0.0,5.0,5.0,655.1091840083245,8.0,1.0,phase_2,go,300.0,250.0,1.0,,,,,,,,,yellow,cross
0.0,3.0,2.0,0.0,5.0,5.0,510.10892301565036,8.0,1.0,phase_2,go,300.0,250.0,1.0,,,,,,,,,white,flipped triangle
0.0,8.0,4.0,1.0,6.0,0.0,0.0,8.0,1.0,phase_2,stop,300.0,250.0,4.0,,,,,,,,,blue,triangle
0.0,7.0,2.0,1.0,7.0,3.0,4942.393923003692,1.0,1.0,phase_3,,,,,220.0,5.0,176.0,44.0,220.0,88.0,132.0,264.0,magenta,square
0.0,1.0,0.5,0.0,7.0,4.0,4058.816679986194,1.0,1.0,phase_3,,,,,88.0,2.0,132.0,44.0,220.0,88.0,176.0,264.0,yellow,cross
0.0,4.0,4.0,0.0,7.0,6.0,3556.1608280113437,1.0,1.0,phase_3,,,,,39.0,1.0,117.0,156.0,234.0,195.0,78.0,39.0,orange,diamond
0.0,6.0,1.0,1.0,7.0,1.0,3313.0106430035084,1.0,1.0,phase_3,,,,,324.0,6.0,324.0,162.0,108.0,216.0,54.0,270.0,gray,circle
0.0,5.0,0.5,1.0,7.0,3.0,3449.2535660101566,1.0,1.0,phase_3,,,,,170.0,5.0,136.0,68.0,170.0,204.0,102.0,34.0,cyan,I
0.0,3.0,2.0,0.0,7.0,2.0,4055.081843980588,1.0,1.0,phase_3,,,,,108.0,2.0,216.0,108.0,162.0,270.0,54.0,324.0,white,flipped triangle
0.0,2.0,1.0,0.0,7.0,5.0,3592.4148820049595,1.0,1.0,phase_3,,,,,156.0,4.0,117.0,39.0,234.0,78.0,156.0,195.0,green,hexagon
0.0,6.0,1.0,1.0,7.0,6.0,4561.855284002377,1.0,1.0,phase_3,,,,,44.0,1.0,176.0,88.0,220.0,264.0,132.0,44.0,gray,circle
0.0,8.0,4.0,1.0,7.0,1.0,4539.697475003777,1.0,1.0,phase_3,,,,,294.0,6.0,294.0,245.0,147.0,196.0,98.0,49.0,blue,triangle
0.0,5.0,0.5,1.0,7.0,3.0,3785.750609007664,1.0,1.0,phase_3,,,,,44.0,1.0,176.0,220.0,44.0,88.0,264.0,132.0,cyan,I
0.0,1.0,0.5,0.0,7.0,5.0,2411.427096987609,1.0,1.0,phase_3,,,,,136.0,4.0,68.0,170.0,204.0,34.0,136.0,102.0,yellow,cross
0.0,1.0,0.5,0.0,7.0,1.0,4191.298227000516,1.0,1.0,phase_3,,,,,88.0,2.0,88.0,44.0,220.0,264.0,176.0,132.0,yellow,cross
0.0,1.0,0.5,0.0,7.0,4.0,2661.4902000001166,1.0,1.0,phase_3,,,,,270.0,5.0,108.0,216.0,162.0,270.0,324.0,54.0,yellow,cross
0.0,6.0,1.0,1.0,7.0,5.0,2143.327686993871,1.0,1.0,phase_3,,,,,195.0,5.0,117.0,234.0,156.0,78.0,195.0,39.0,gray,circle
0.0,2.0,1.0,0.0,7.0,2.0,2380.961649992969,1.0,1.0,phase_3,,,,,270.0,5.0,324.0,270.0,162.0,54.0,216.0,108.0,green,hexagon
0.0,4.0,4.0,0.0,7.0,2.0,4159.457754023606,1.0,1.0,phase_3,,,,,196.0,4.0,49.0,196.0,245.0,147.0,294.0,98.0,orange,diamond
0.0,1.0,0.5,0.0,7.0,3.0,3695.852240023669,1.0,1.0,phase_3,,,,,78.0,2.0,39.0,156.0,78.0,117.0,234.0,195.0,yellow,cross
0.0,3.0,2.0,0.0,7.0,6.0,2549.329047993524,1.0,1.0,phase_3,,,,,245.0,5.0,196.0,49.0,147.0,294.0,98.0,245.0,white,flipped triangle
0.0,3.0,2.0,0.0,7.0,2.0,2774.318518990185,1.0,1.0,phase_3,,,,,220.0,5.0,132.0,220.0,44.0,264.0,176.0,88.0,white,flipped triangle
0.0,6.0,1.0,1.0,7.0,6.0,4034.6978859743103,1.0,1.0,phase_3,,,,,196.0,4.0,294.0,98.0,147.0,49.0,245.0,196.0,gray,circle
0.0,6.0,1.0,1.0,7.0,4.0,3305.467720987508,2.0,1.0,phase_3,,,,,108.0,2.0,162.0,324.0,270.0,108.0,216.0,54.0,gray,circle
0.0,7.0,2.0,1.0,7.0,3.0,2899.9872700078413,2.0,1.0,phase_3,,,,,108.0,2.0,324.0,162.0,108.0,54.0,270.0,216.0,magenta,square
0.0,7.0,2.0,1.0,7.0,5.0,2000.5436289939098,2.0,1.0,phase_3,,,,,49.0,1.0,98.0,147.0,294.0,245.0,49.0,196.0,magenta,square
0.0,4.0,4.0,0.0,7.0,1.0,1854.8693479970095,2.0,1.0,phase_3,,,,,264.0,6.0,264.0,88.0,176.0,132.0,220.0,44.0,orange,diamond
0.0,2.0,1.0,0.0,7.0,5.0,2845.844318013405,2.0,1.0,phase_3,,,,,170.0,5.0,136.0,204.0,68.0,102.0,170.0,34.0,green,hexagon
0.0,5.0,0.5,1.0,7.0,4.0,87.2893850028049,2.0,2.0,phase_3,,,,,98.0,2.0,196.0,49.0,147.0,98.0,245.0,294.0,cyan,I
0.0,2.0,1.0,0.0,7.0,1.0,3103.622586990241,2.0,1.0,phase_3,,,,,195.0,5.0,195.0,156.0,39.0,78.0,117.0,234.0,green,hexagon
0.0,5.0,0.5,1.0,7.0,4.0,2779.339022003114,2.0,1.0,phase_3,,,,,39.0,1.0,78.0,234.0,195.0,39.0,156.0,117.0,cyan,I
0.0,1.0,0.5,0.0,7.0,2.0,1971.473733021412,2.0,1.0,phase_3,,,,,68.0,2.0,136.0,68.0,170.0,34.0,102.0,204.0,yellow,cross
0.0,4.0,4.0,0.0,7.0,4.0,2007.6300970104057,2.0,1.0,phase_3,,,,,88.0,2.0,176.0,132.0,44.0,88.0,264.0,220.0,orange,diamond
0.0,3.0,2.0,0.0,7.0,4.0,2477.491642988753,2.0,1.0,phase_3,,,,,78.0,2.0,195.0,117.0,39.0,78.0,234.0,156.0,white,flipped triangle
0.0,6.0,1.0,1.0,7.0,4.0,2985.4990459862165,2.0,1.0,phase_3,,,,,117.0,3.0,234.0,195.0,156.0,117.0,39.0,78.0,gray,circle
0.0,5.0,0.5,1.0,7.0,2.0,2706.930558983004,2.0,1.0,phase_3,,,,,156.0,4.0,195.0,156.0,78.0,117.0,39.0,234.0,cyan,I
0.0,7.0,2.0,1.0,7.0,2.0,2211.3512239884585,2.0,1.0,phase_3,,,,,234.0,6.0,78.0,234.0,117.0,195.0,156.0,39.0,magenta,square
0.0,8.0,4.0,1.0,7.0,4.0,2282.071889989311,2.0,1.0,phase_3,,,,,98.0,2.0,147.0,196.0,294.0,98.0,245.0,49.0,blue,triangle
0.0,6.0,1.0,1.0,7.0,4.0,3364.679796010023,2.0,1.0,phase_3,,,,,245.0,5.0,49.0,98.0,196.0,245.0,294.0,147.0,gray,circle
0.0,8.0,4.0,1.0,7.0,4.0,3385.385519999545,2.0,1.0,phase_3,,,,,324.0,6.0,270.0,162.0,54.0,324.0,216.0,108.0,blue,triangle
0.0,1.0,0.5,0.0,7.0,3.0,3566.19142999989,2.0,1.0,phase_3,,,,,216.0,4.0,162.0,108.0,216.0,270.0,54.0,324.0,yellow,cross
0.0,8.0,4.0,1.0,7.0,5.0,2961.61452200613,2.0,1.0,phase_3,,,,,170.0,5.0,102.0,68.0,136.0,34.0,170.0,204.0,blue,triangle
0.0,6.0,1.0,1.0,7.0,5.0,3099.272538005607,2.0,1.0,phase_3,,,,,170.0,5.0,136.0,204.0,102.0,68.0,170.0,34.0,gray,circle
0.0,5.0,0.5,1.0,7.0,2.0,2495.363466994604,3.0,1.0,phase_3,,,,,324.0,6.0,162.0,324.0,216.0,54.0,270.0,108.0,cyan,I
0.0,5.0,0.5,1.0,7.0,4.0,3003.594533976866,3.0,1.0,phase_3,,,,,170.0,5.0,136.0,204.0,102.0,170.0,34.0,68.0,cyan,I
0.0,3.0,2.0,0.0,7.0,5.0,2994.008103996748,3.0,1.0,phase_3,,,,,156.0,4.0,117.0,78.0,39.0,234.0,156.0,195.0,white,flipped triangle
0.0,6.0,1.0,1.0,7.0,1.0,2725.532070006011,3.0,1.0,phase_3,,,,,132.0,3.0,132.0,176.0,44.0,264.0,88.0,220.0,gray,circle
0.0,2.0,1.0,0.0,7.0,3.0,1805.5317329999525,3.0,1.0,phase_3,,,,,49.0,1.0,294.0,245.0,49.0,147.0,98.0,196.0,green,hexagon
0.0,2.0,1.0,0.0,7.0,2.0,1939.0289550065063,3.0,1.0,phase_3,,,,,98.0,2.0,196.0,98.0,294.0,49.0,245.0,147.0,green,hexagon
0.0,4.0,4.0,0.0,7.0,3.0,2637.8244109801017,3.0,1.0,phase_3,,,,,147.0,3.0,49.0,245.0,147.0,294.0,98.0,196.0,orange,diamond
0.0,3.0,2.0,0.0,7.0,2.0,2214.6629199851304,3.0,1.0,phase_3,,,,,204.0,6.0,170.0,204.0,34.0,68.0,136.0,102.0,white,flipped triangle
0.0,2.0,1.0,0.0,7.0,5.0,2913.4702399896923,3.0,1.0,phase_3,,,,,324.0,6.0,162.0,108.0,54.0,216.0,324.0,270.0,green,hexagon
0.0,7.0,2.0,1.0,7.0,1.0,2801.1018809920643,3.0,1.0,phase_3,,,,,270.0,5.0,270.0,54.0,162.0,108.0,216.0,324.0,magenta,square
0.0,8.0,4.0,1.0,7.0,5.0,2349.662599008297,3.0,1.0,phase_3,,,,,176.0,4.0,88.0,132.0,220.0,264.0,176.0,44.0,blue,triangle
0.0,2.0,1.0,0.0,7.0,2.0,3801.5208819997497,3.0,1.0,phase_3,,,,,132.0,3.0,88.0,132.0,44.0,220.0,176.0,264.0,green,hexagon
0.0,8.0,4.0,1.0,7.0,3.0,2228.174229006981,3.0,1.0,phase_3,,,,,34.0,1.0,204.0,102.0,34.0,136.0,170.0,68.0,blue,triangle
0.0,8.0,4.0,1.0,7.0,5.0,2218.375897995429,3.0,1.0,phase_3,,,,,78.0,2.0,234.0,195.0,39.0,117.0,78.0,156.0,blue,triangle
0.0,8.0,4.0,1.0,7.0,4.0,2400.6922359985765,3.0,1.0,phase_3,,,,,132.0,3.0,88.0,44.0,176.0,132.0,220.0,264.0,blue,triangle
0.0,3.0,2.0,0.0,7.0,6.0,2872.054455016041,3.0,1.0,phase_3,,,,,264.0,6.0,44.0,176.0,88.0,220.0,132.0,264.0,white,flipped triangle
0.0,5.0,0.5,1.0,7.0,3.0,2806.1202820099425,3.0,1.0,phase_3,,,,,216.0,4.0,108.0,270.0,216.0,54.0,324.0,162.0,cyan,I
0.0,5.0,0.5,1.0,7.0,5.0,2672.790544020245,3.0,1.0,phase_3,,,,,196.0,4.0,294.0,98.0,245.0,49.0,196.0,147.0,cyan,I
0.0,7.0,2.0,1.0,7.0,2.0,1730.310384999029,3.0,1.0,phase_3,,,,,34.0,1.0,170.0,34.0,204.0,136.0,102.0,68.0,magenta,square
0.0,7.0,2.0,1.0,7.0,4.0,2249.424394016387,3.0,1.0,phase_3,,,,,68.0,2.0,136.0,34.0,102.0,68.0,204.0,170.0,magenta,square
0.0,2.0,1.0,0.0,7.0,4.0,2532.524159993045,4.0,1.0,phase_3,,,,,102.0,3.0,136.0,170.0,34.0,102.0,68.0,204.0,green,hexagon
0.0,6.0,1.0,1.0,7.0,5.0,4060.2773379941937,4.0,1.0,phase_3,,,,,204.0,6.0,102.0,136.0,170.0,68.0,204.0,34.0,gray,circle
0.0,3.0,2.0,0.0,7.0,5.0,2549.717165005859,4.0,1.0,phase_3,,,,,270.0,5.0,108.0,162.0,54.0,324.0,270.0,216.0,white,flipped triangle
0.0,5.0,0.5,1.0,7.0,1.0,2955.7135960203595,4.0,1.0,phase_3,,,,,176.0,4.0,176.0,44.0,220.0,132.0,264.0,88.0,cyan,I
0.0,4.0,4.0,0.0,7.0,3.0,2687.0112759934277,4.0,1.0,phase_3,,,,,54.0,1.0,108.0,270.0,54.0,216.0,162.0,324.0,orange,diamond
0.0,4.0,4.0,0.0,7.0,4.0,2105.276604997925,4.0,1.0,phase_3,,,,,78.0,2.0,156.0,39.0,117.0,78.0,195.0,234.0,orange,diamond
0.0,4.0,4.0,0.0,7.0,4.0,2701.018515013857,4.0,1.0,phase_3,,,,,102.0,3.0,136.0,34.0,170.0,102.0,204.0,68.0,orange,diamond
0.0,3.0,2.0,0.0,7.0,6.0,2275.2718279953115,4.0,1.0,phase_3,,,,,294.0,6.0,245.0,98.0,196.0,49.0,147.0,294.0,white,flipped triangle
0.0,1.0,0.5,0.0,7.0,4.0,2139.3652179976925,4.0,1.0,phase_3,,,,,245.0,5.0,196.0,98.0,147.0,245.0,49.0,294.0,yellow,cross
0.0,7.0,2.0,1.0,7.0,2.0,3402.789057989139,4.0,1.0,phase_3,,,,,176.0,4.0,132.0,176.0,88.0,264.0,44.0,220.0,magenta,square
0.0,2.0,1.0,0.0,7.0,2.0,1684.6533039934002,4.0,1.0,phase_3,,,,,44.0,1.0,264.0,44.0,220.0,132.0,176.0,88.0,green,hexagon
0.0,1.0,0.5,0.0,7.0,5.0,2019.597659993451,4.0,1.0,phase_3,,,,,78.0,2.0,234.0,156.0,117.0,39.0,78.0,195.0,yellow,cross
0.0,8.0,4.0,1.0,7.0,4.0,4046.6531139973085,4.0,1.0,phase_3,,,,,162.0,3.0,54.0,108.0,216.0,162.0,270.0,324.0,blue,triangle
0.0,3.0,2.0,0.0,7.0,1.0,3205.0672599871177,4.0,1.0,phase_3,,,,,204.0,6.0,204.0,102.0,170.0,136.0,34.0,68.0,white,flipped triangle
0.0,1.0,0.5,0.0,7.0,3.0,2836.2117869837675,4.0,1.0,phase_3,,,,,245.0,5.0,294.0,98.0,245.0,196.0,147.0,49.0,yellow,cross
0.0,4.0,4.0,0.0,7.0,5.0,2972.256046021357,4.0,1.0,phase_3,,,,,136.0,4.0,204.0,68.0,102.0,170.0,136.0,34.0,orange,diamond
0.0,7.0,2.0,1.0,7.0,6.0,1780.2450949966442,4.0,1.0,phase_3,,,,,39.0,1.0,78.0,195.0,156.0,117.0,234.0,39.0,magenta,square
0.0,8.0,4.0,1.0,7.0,3.0,2120.26056801551,4.0,1.0,phase_3,,,,,78.0,2.0,234.0,195.0,78.0,39.0,156.0,117.0,blue,triangle
0.0,4.0,4.0,0.0,7.0,1.0,3750.995579001028,4.0,1.0,phase_3,,,,,162.0,3.0,162.0,108.0,270.0,54.0,216.0,324.0,orange,diamond
0.0,7.0,2.0,1.0,7.0,4.0,2716.991661000065,4.0,1.0,phase_3,,,,,294.0,6.0,245.0,196.0,98.0,294.0,49.0,147.0,magenta,square
