raw_reward_magnitude,stim_reward,stepwise_reward_magnitude,paired_with_stopping,quadrant,response,reaction_time,block,num_trial_presentations,which_part,stop_signal_trial_type,left_SSD,right_SSD,accuracy,chosen_bidding_amount,chosen_bidding_level,possible_bid_1,possible_bid_2,possible_bid_3,possible_bid_4,possible_bid_5,possible_bid_6,color_text,shape_text
388.0,8.0,4.0,1.0,1.0,1.0,319.9030659743584,1.0,1.0,part_1,,,,,,,,,,,,,magenta,diamond
58.0,5.0,1.0,1.0,1.0,1.0,307.315053010825,1.0,1.0,part_1,,,,,,,,,,,,,blue,circle
403.0,8.0,4.0,1.0,4.0,4.0,262.3881209874525,1.0,1.0,part_1,,,,,,,,,,,,,magenta,diamond
86.0,2.0,2.0,0.0,3.0,3.0,358.2355169928632,1.0,1.0,part_1,,,,,,,,,,,,,cyan,cross
401.0,8.0,4.0,1.0,4.0,4.0,249.8543839901685,1.0,1.0,part_1,,,,,,,,,,,,,magenta,diamond
0.0,1.0,0.0,0.0,2.0,2.0,304.2586710071191,1.0,1.0,part_1,,,,,,,,,,,,,orange,hexagon
0.0,7.0,0.0,1.0,3.0,3.0,416.9105350156314,1.0,1.0,part_1,,,,,,,,,,,,,gray,I
425.0,8.0,4.0,1.0,1.0,1.0,287.4358809785917,1.0,1.0,part_1,,,,,,,,,,,,,magenta,diamond
384.0,8.0,4.0,1.0,1.0,1.0,349.2657080059871,1.0,1.0,part_1,,,,,,,,,,,,,magenta,diamond
80.0,2.0,2.0,0.0,4.0,4.0,311.8534149834886,1.0,1.0,part_1,,,,,,,,,,,,,cyan,cross
393.0,8.0,4.0,1.0,1.0,1.0,243.7602689606137,1.0,1.0,part_1,,,,,,,,,,,,,magenta,diamond
0.0,6.0,0.0,1.0,1.0,1.0,368.4847439872101,1.0,1.0,part_1,,,,,,,,,,,,,yellow,triangle
122.0,2.0,2.0,0.0,2.0,2.0,277.8536880505271,1.0,1.0,part_1,,,,,,,,,,,,,cyan,cross
212.0,3.0,3.0,0.0,2.0,2.0,409.3977460288442,1.0,1.0,part_1,,,,,,,,,,,,,white,square
0.0,7.0,0.0,1.0,4.0,4.0,408.3941680146381,1.0,1.0,part_1,,,,,,,,,,,,,gray,I
93.0,6.0,2.0,1.0,2.0,2.0,282.8160179778933,1.0,1.0,part_1,,,,,,,,,,,,,yellow,triangle
30.0,1.0,1.0,0.0,1.0,1.0,312.1788110001944,1.0,1.0,part_1,,,,,,,,,,,,,orange,hexagon
401.0,4.0,4.0,0.0,2.0,2.0,286.4815089851618,1.0,1.0,part_1,,,,,,,,,,,,,green,flipped triangle
191.0,7.0,3.0,1.0,4.0,4.0,315.4843850061297,1.0,1.0,part_1,,,,,,,,,,,,,gray,I
0.0,2.0,0.0,0.0,4.0,4.0,313.5537729831412,1.0,1.0,part_1,,,,,,,,,,,,,cyan,cross
418.0,8.0,4.0,1.0,2.0,2.0,274.9038030160591,1.0,1.0,part_1,,,,,,,,,,,,,magenta,diamond
400.0,8.0,4.0,1.0,2.0,2.0,288.0169739946723,1.0,1.0,part_1,,,,,,,,,,,,,magenta,diamond
198.0,7.0,3.0,1.0,1.0,1.0,331.7871239851229,1.0,1.0,part_1,,,,,,,,,,,,,gray,I
0.0,7.0,0.0,1.0,2.0,2.0,265.4992330353707,1.0,1.0,part_1,,,,,,,,,,,,,gray,I
31.0,5.0,1.0,1.0,4.0,4.0,278.5194710013456,1.0,1.0,part_1,,,,,,,,,,,,,blue,circle
0.0,2.0,0.0,0.0,1.0,1.0,249.8963199905119,1.0,1.0,part_1,,,,,,,,,,,,,cyan,cross
196.0,3.0,3.0,0.0,3.0,3.0,295.5272579565644,1.0,1.0,part_1,,,,,,,,,,,,,white,square
78.0,2.0,2.0,0.0,1.0,1.0,295.1705990126356,1.0,1.0,part_1,,,,,,,,,,,,,cyan,cross
178.0,7.0,3.0,1.0,3.0,3.0,256.8743620067835,1.0,1.0,part_1,,,,,,,,,,,,,gray,I
0.0,5.0,0.0,1.0,3.0,3.0,343.5360990115441,1.0,1.0,part_1,,,,,,,,,,,,,blue,circle
380.0,4.0,4.0,0.0,2.0,2.0,372.3149810102768,1.0,1.0,part_1,,,,,,,,,,,,,green,flipped triangle
27.0,1.0,1.0,0.0,3.0,3.0,295.4430480021983,1.0,1.0,part_1,,,,,,,,,,,,,orange,hexagon
27.0,1.0,1.0,0.0,3.0,3.0,283.1029529916122,1.0,1.0,part_1,,,,,,,,,,,,,orange,hexagon
176.0,3.0,3.0,0.0,1.0,1.0,337.1507889823988,1.0,1.0,part_1,,,,,,,,,,,,,white,square
57.0,1.0,1.0,0.0,2.0,2.0,292.0755490195006,1.0,1.0,part_1,,,,,,,,,,,,,orange,hexagon
100.0,6.0,2.0,1.0,4.0,4.0,276.0627749958075,1.0,1.0,part_1,,,,,,,,,,,,,yellow,triangle
105.0,2.0,2.0,0.0,3.0,3.0,312.2184439562261,1.0,1.0,part_1,,,,,,,,,,,,,cyan,cross
0.0,3.0,0.0,0.0,4.0,4.0,318.7594069750048,1.0,2.0,part_1,,,,,,,,,,,,,white,square
409.0,4.0,4.0,0.0,2.0,2.0,510.50443603890017,1.0,1.0,part_1,,,,,,,,,,,,,green,flipped triangle
207.0,3.0,3.0,0.0,4.0,4.0,288.8790530269034,1.0,1.0,part_1,,,,,,,,,,,,,white,square
188.0,3.0,3.0,0.0,3.0,3.0,359.1080919723026,1.0,1.0,part_1,,,,,,,,,,,,,white,square
53.0,5.0,1.0,1.0,4.0,4.0,314.2726750229485,1.0,1.0,part_1,,,,,,,,,,,,,blue,circle
175.0,7.0,3.0,1.0,1.0,1.0,457.0557259721681,1.0,1.0,part_1,,,,,,,,,,,,,gray,I
211.0,3.0,3.0,0.0,1.0,1.0,300.9233100456185,1.0,1.0,part_1,,,,,,,,,,,,,white,square
29.0,1.0,1.0,0.0,2.0,2.0,281.71927400399,1.0,1.0,part_1,,,,,,,,,,,,,orange,hexagon
209.0,7.0,3.0,1.0,2.0,2.0,342.4457039800472,1.0,1.0,part_1,,,,,,,,,,,,,gray,I
0.0,3.0,0.0,0.0,3.0,3.0,298.6754779703915,1.0,1.0,part_1,,,,,,,,,,,,,white,square
0.0,3.0,0.0,0.0,2.0,2.0,287.61299100006,1.0,1.0,part_1,,,,,,,,,,,,,white,square
0.0,5.0,0.0,1.0,3.0,3.0,339.1229940461926,1.0,1.0,part_1,,,,,,,,,,,,,blue,circle
32.0,1.0,1.0,0.0,3.0,3.0,328.0095939990133,1.0,1.0,part_1,,,,,,,,,,,,,orange,hexagon
55.0,1.0,1.0,0.0,1.0,1.0,374.8520460212603,1.0,1.0,part_1,,,,,,,,,,,,,orange,hexagon
100.0,2.0,2.0,0.0,2.0,2.0,355.1435790141113,1.0,1.0,part_1,,,,,,,,,,,,,cyan,cross
36.0,1.0,1.0,0.0,4.0,4.0,272.0516039989888,1.0,1.0,part_1,,,,,,,,,,,,,orange,hexagon
182.0,3.0,3.0,0.0,3.0,3.0,298.2318380381912,1.0,1.0,part_1,,,,,,,,,,,,,white,square
0.0,5.0,0.0,1.0,3.0,3.0,328.8484340300783,1.0,1.0,part_1,,,,,,,,,,,,,blue,circle
0.0,7.0,0.0,1.0,4.0,4.0,396.3963619899004,1.0,1.0,part_1,,,,,,,,,,,,,gray,I
393.0,4.0,4.0,0.0,2.0,2.0,291.1809610086493,1.0,1.0,part_1,,,,,,,,,,,,,green,flipped triangle
60.0,1.0,1.0,0.0,4.0,4.0,336.0085459426045,1.0,1.0,part_1,,,,,,,,,,,,,orange,hexagon
94.0,6.0,2.0,1.0,1.0,1.0,371.1385519709438,1.0,1.0,part_1,,,,,,,,,,,,,yellow,triangle
99.0,6.0,2.0,1.0,4.0,4.0,278.1960820429958,1.0,1.0,part_1,,,,,,,,,,,,,yellow,triangle
0.0,8.0,0.0,1.0,4.0,4.0,290.5975910252891,1.0,1.0,part_1,,,,,,,,,,,,,magenta,diamond
60.0,5.0,1.0,1.0,3.0,3.0,383.5450520273298,1.0,1.0,part_1,,,,,,,,,,,,,blue,circle
393.0,4.0,4.0,0.0,1.0,1.0,276.4248009771108,1.0,1.0,part_1,,,,,,,,,,,,,green,flipped triangle
215.0,3.0,3.0,0.0,4.0,4.0,313.4793860372156,1.0,1.0,part_1,,,,,,,,,,,,,white,square
74.0,5.0,1.0,1.0,3.0,3.0,479.2679900419898,1.0,1.0,part_1,,,,,,,,,,,,,blue,circle
185.0,3.0,3.0,0.0,3.0,3.0,421.4165839948691,1.0,1.0,part_1,,,,,,,,,,,,,white,square
117.0,6.0,2.0,1.0,3.0,3.0,311.2004249705933,1.0,1.0,part_1,,,,,,,,,,,,,yellow,triangle
0.0,5.0,0.0,1.0,3.0,3.0,360.013700032141,1.0,1.0,part_1,,,,,,,,,,,,,blue,circle
105.0,6.0,2.0,1.0,1.0,1.0,337.7065599779598,1.0,1.0,part_1,,,,,,,,,,,,,yellow,triangle
58.0,5.0,1.0,1.0,1.0,1.0,334.9251530016772,1.0,1.0,part_1,,,,,,,,,,,,,blue,circle
396.0,4.0,4.0,0.0,1.0,1.0,329.4259159592911,1.0,1.0,part_1,,,,,,,,,,,,,green,flipped triangle
62.0,5.0,1.0,1.0,2.0,2.0,327.1839570370503,1.0,1.0,part_1,,,,,,,,,,,,,blue,circle
417.0,8.0,4.0,1.0,2.0,2.0,283.2020429777913,1.0,1.0,part_1,,,,,,,,,,,,,magenta,diamond
40.0,5.0,1.0,1.0,2.0,2.0,283.3224509959109,1.0,1.0,part_1,,,,,,,,,,,,,blue,circle
104.0,6.0,2.0,1.0,2.0,2.0,324.1707060369663,1.0,1.0,part_1,,,,,,,,,,,,,yellow,triangle
409.0,8.0,4.0,1.0,1.0,1.0,394.27349000470707,1.0,1.0,part_1,,,,,,,,,,,,,magenta,diamond
205.0,3.0,3.0,0.0,2.0,2.0,369.2328930483199,1.0,1.0,part_1,,,,,,,,,,,,,white,square
49.0,5.0,1.0,1.0,1.0,1.0,365.4881169786677,1.0,1.0,part_1,,,,,,,,,,,,,blue,circle
98.0,6.0,2.0,1.0,3.0,3.0,307.404616032727,1.0,1.0,part_1,,,,,,,,,,,,,yellow,triangle
118.0,2.0,2.0,0.0,1.0,1.0,293.6815180000849,1.0,1.0,part_1,,,,,,,,,,,,,cyan,cross
378.0,8.0,4.0,1.0,4.0,4.0,378.0339020304382,1.0,1.0,part_1,,,,,,,,,,,,,magenta,diamond
37.0,1.0,1.0,0.0,4.0,4.0,287.0270850253291,1.0,1.0,part_1,,,,,,,,,,,,,orange,hexagon
0.0,2.0,0.0,0.0,1.0,1.0,396.7218490433879,1.0,1.0,part_1,,,,,,,,,,,,,cyan,cross
111.0,6.0,2.0,1.0,4.0,4.0,287.2920510126278,1.0,1.0,part_1,,,,,,,,,,,,,yellow,triangle
208.0,7.0,3.0,1.0,3.0,3.0,364.4710130174644,1.0,1.0,part_1,,,,,,,,,,,,,gray,I
0.0,2.0,0.0,0.0,2.0,2.0,288.699556956999,1.0,1.0,part_1,,,,,,,,,,,,,cyan,cross
104.0,2.0,2.0,0.0,4.0,4.0,383.4789019892923,1.0,1.0,part_1,,,,,,,,,,,,,cyan,cross
0.0,5.0,0.0,1.0,2.0,2.0,362.0313429855741,1.0,1.0,part_1,,,,,,,,,,,,,blue,circle
103.0,6.0,2.0,1.0,2.0,2.0,349.6741820126772,1.0,1.0,part_1,,,,,,,,,,,,,yellow,triangle
384.0,8.0,4.0,1.0,3.0,3.0,301.6610819613561,1.0,1.0,part_1,,,,,,,,,,,,,magenta,diamond
0.0,3.0,0.0,0.0,1.0,1.0,352.1211929619312,1.0,1.0,part_1,,,,,,,,,,,,,white,square
0.0,5.0,0.0,1.0,3.0,3.0,412.0017269742675,1.0,1.0,part_1,,,,,,,,,,,,,blue,circle
29.0,5.0,1.0,1.0,2.0,2.0,355.0530010252259,1.0,1.0,part_1,,,,,,,,,,,,,blue,circle
375.0,4.0,4.0,0.0,2.0,2.0,349.4542230037041,1.0,1.0,part_1,,,,,,,,,,,,,green,flipped triangle
0.0,1.0,0.0,0.0,1.0,1.0,362.4866299796849,1.0,1.0,part_1,,,,,,,,,,,,,orange,hexagon
0.0,6.0,0.0,1.0,1.0,1.0,305.8185590198263,1.0,1.0,part_1,,,,,,,,,,,,,yellow,triangle
404.0,4.0,4.0,0.0,2.0,2.0,382.0853849756531,1.0,1.0,part_1,,,,,,,,,,,,,green,flipped triangle
220.0,3.0,3.0,0.0,4.0,4.0,346.2586780078709,1.0,1.0,part_1,,,,,,,,,,,,,white,square
0.0,8.0,0.0,1.0,1.0,1.0,293.5987029923126,1.0,1.0,part_1,,,,,,,,,,,,,magenta,diamond
94.0,2.0,2.0,0.0,4.0,4.0,331.5711080213077,1.0,1.0,part_1,,,,,,,,,,,,,cyan,cross
188.0,3.0,3.0,0.0,1.0,1.0,301.7500169808045,2.0,1.0,part_1,,,,,,,,,,,,,white,square
53.0,5.0,1.0,1.0,1.0,1.0,330.3803309681825,2.0,1.0,part_1,,,,,,,,,,,,,blue,circle
92.0,2.0,2.0,0.0,3.0,3.0,262.1678609866649,2.0,1.0,part_1,,,,,,,,,,,,,cyan,cross
375.0,8.0,4.0,1.0,1.0,1.0,338.924843003042,2.0,1.0,part_1,,,,,,,,,,,,,magenta,diamond
205.0,3.0,3.0,0.0,2.0,2.0,424.4470560224727,2.0,1.0,part_1,,,,,,,,,,,,,white,square
25.0,1.0,1.0,0.0,2.0,2.0,379.690173023846,2.0,1.0,part_1,,,,,,,,,,,,,orange,hexagon
0.0,1.0,0.0,0.0,4.0,4.0,265.2519670082256,2.0,1.0,part_1,,,,,,,,,,,,,orange,hexagon
421.0,4.0,4.0,0.0,3.0,3.0,319.6101500070654,2.0,1.0,part_1,,,,,,,,,,,,,green,flipped triangle
107.0,2.0,2.0,0.0,3.0,3.0,348.2632410014048,2.0,1.0,part_1,,,,,,,,,,,,,cyan,cross
200.0,7.0,3.0,1.0,1.0,1.0,272.6754759787582,2.0,1.0,part_1,,,,,,,,,,,,,gray,I
200.0,3.0,3.0,0.0,2.0,2.0,278.5354430088773,2.0,1.0,part_1,,,,,,,,,,,,,white,square
421.0,8.0,4.0,1.0,4.0,4.0,417.1056020422838,2.0,1.0,part_1,,,,,,,,,,,,,magenta,diamond
92.0,6.0,2.0,1.0,4.0,4.0,333.0018509877845,2.0,1.0,part_1,,,,,,,,,,,,,yellow,triangle
72.0,1.0,1.0,0.0,4.0,4.0,332.5835299910977,2.0,1.0,part_1,,,,,,,,,,,,,orange,hexagon
408.0,8.0,4.0,1.0,3.0,3.0,345.3831279766746,2.0,1.0,part_1,,,,,,,,,,,,,magenta,diamond
400.0,8.0,4.0,1.0,4.0,4.0,323.6659790272824,2.0,1.0,part_1,,,,,,,,,,,,,magenta,diamond
37.0,5.0,1.0,1.0,1.0,1.0,353.418682992924,2.0,1.0,part_1,,,,,,,,,,,,,blue,circle
0.0,6.0,0.0,1.0,2.0,2.0,381.9544300204143,2.0,1.0,part_1,,,,,,,,,,,,,yellow,triangle
219.0,7.0,3.0,1.0,3.0,3.0,482.5512469979003,2.0,1.0,part_1,,,,,,,,,,,,,gray,I
0.0,8.0,0.0,1.0,4.0,4.0,364.2009169561788,2.0,2.0,part_1,,,,,,,,,,,,,magenta,diamond
32.0,5.0,1.0,1.0,2.0,2.0,344.5284849731251,2.0,1.0,part_1,,,,,,,,,,,,,blue,circle
30.0,1.0,1.0,0.0,4.0,4.0,373.4828479937278,2.0,1.0,part_1,,,,,,,,,,,,,orange,hexagon
223.0,3.0,3.0,0.0,2.0,2.0,332.4958700104616,2.0,1.0,part_1,,,,,,,,,,,,,white,square
0.0,6.0,0.0,1.0,3.0,3.0,329.3122440227307,2.0,1.0,part_1,,,,,,,,,,,,,yellow,triangle
182.0,7.0,3.0,1.0,1.0,1.0,418.6557620414532,2.0,1.0,part_1,,,,,,,,,,,,,gray,I
410.0,4.0,4.0,0.0,1.0,1.0,409.583967004437,2.0,1.0,part_1,,,,,,,,,,,,,green,flipped triangle
398.0,8.0,4.0,1.0,3.0,3.0,332.0971609791741,2.0,1.0,part_1,,,,,,,,,,,,,magenta,diamond
79.0,2.0,2.0,0.0,4.0,4.0,291.1072980496101,2.0,1.0,part_1,,,,,,,,,,,,,cyan,cross
57.0,5.0,1.0,1.0,2.0,2.0,302.9105539899319,2.0,1.0,part_1,,,,,,,,,,,,,blue,circle
116.0,2.0,2.0,0.0,1.0,1.0,291.1533940350637,2.0,1.0,part_1,,,,,,,,,,,,,cyan,cross
215.0,3.0,3.0,0.0,4.0,4.0,294.8067199904471,2.0,1.0,part_1,,,,,,,,,,,,,white,square
48.0,5.0,1.0,1.0,2.0,2.0,291.4752459619194,2.0,1.0,part_1,,,,,,,,,,,,,blue,circle
0.0,6.0,0.0,1.0,4.0,4.0,427.6233410346322,2.0,1.0,part_1,,,,,,,,,,,,,yellow,triangle
191.0,3.0,3.0,0.0,2.0,2.0,307.9899090225808,2.0,1.0,part_1,,,,,,,,,,,,,white,square
0.0,8.0,0.0,1.0,3.0,3.0,377.0261589670554,2.0,1.0,part_1,,,,,,,,,,,,,magenta,diamond
83.0,6.0,2.0,1.0,4.0,4.0,318.3399399858899,2.0,1.0,part_1,,,,,,,,,,,,,yellow,triangle
0.0,1.0,0.0,0.0,4.0,4.0,355.8853529975749,2.0,1.0,part_1,,,,,,,,,,,,,orange,hexagon
72.0,1.0,1.0,0.0,3.0,3.0,385.696196986828,2.0,1.0,part_1,,,,,,,,,,,,,orange,hexagon
205.0,7.0,3.0,1.0,1.0,1.0,363.516429963056,2.0,1.0,part_1,,,,,,,,,,,,,gray,I
0.0,4.0,0.0,0.0,3.0,3.0,425.1489050220698,2.0,1.0,part_1,,,,,,,,,,,,,green,flipped triangle
417.0,4.0,4.0,0.0,2.0,2.0,356.5101970452815,2.0,1.0,part_1,,,,,,,,,,,,,green,flipped triangle
380.0,4.0,4.0,0.0,1.0,1.0,346.5186610119417,2.0,1.0,part_1,,,,,,,,,,,,,green,flipped triangle
92.0,6.0,2.0,1.0,1.0,1.0,361.1420370289124,2.0,1.0,part_1,,,,,,,,,,,,,yellow,triangle
40.0,1.0,1.0,0.0,2.0,2.0,291.2227110355161,2.0,1.0,part_1,,,,,,,,,,,,,orange,hexagon
375.0,8.0,4.0,1.0,2.0,2.0,266.0189179587178,2.0,1.0,part_1,,,,,,,,,,,,,magenta,diamond
88.0,2.0,2.0,0.0,4.0,4.0,380.7686069631018,2.0,1.0,part_1,,,,,,,,,,,,,cyan,cross
81.0,2.0,2.0,0.0,2.0,2.0,298.0062869610265,2.0,1.0,part_1,,,,,,,,,,,,,cyan,cross
380.0,8.0,4.0,1.0,2.0,2.0,302.5099969818257,2.0,1.0,part_1,,,,,,,,,,,,,magenta,diamond
68.0,1.0,1.0,0.0,2.0,2.0,421.2091409717686,2.0,1.0,part_1,,,,,,,,,,,,,orange,hexagon
409.0,4.0,4.0,0.0,1.0,1.0,466.368458000943,2.0,1.0,part_1,,,,,,,,,,,,,green,flipped triangle
191.0,7.0,3.0,1.0,4.0,4.0,343.1774509954266,2.0,1.0,part_1,,,,,,,,,,,,,gray,I
407.0,4.0,4.0,0.0,3.0,3.0,344.5477830246091,2.0,1.0,part_1,,,,,,,,,,,,,green,flipped triangle
405.0,8.0,4.0,1.0,3.0,3.0,469.8368120007217,2.0,1.0,part_1,,,,,,,,,,,,,magenta,diamond
86.0,6.0,2.0,1.0,3.0,3.0,354.2305519804358,2.0,1.0,part_1,,,,,,,,,,,,,yellow,triangle
37.0,1.0,1.0,0.0,2.0,2.0,296.3693009805865,2.0,1.0,part_1,,,,,,,,,,,,,orange,hexagon
422.0,4.0,4.0,0.0,3.0,3.0,373.7591200042516,2.0,1.0,part_1,,,,,,,,,,,,,green,flipped triangle
422.0,4.0,4.0,0.0,3.0,3.0,311.7886619875207,2.0,1.0,part_1,,,,,,,,,,,,,green,flipped triangle
73.0,5.0,1.0,1.0,4.0,4.0,526.1360889999196,2.0,1.0,part_1,,,,,,,,,,,,,blue,circle
0.0,7.0,0.0,1.0,3.0,3.0,349.2036740062758,2.0,1.0,part_1,,,,,,,,,,,,,gray,I
216.0,3.0,3.0,0.0,4.0,4.0,295.5818640184589,2.0,1.0,part_1,,,,,,,,,,,,,white,square
87.0,2.0,2.0,0.0,4.0,4.0,283.4774380316958,2.0,1.0,part_1,,,,,,,,,,,,,cyan,cross
394.0,8.0,4.0,1.0,2.0,2.0,311.539028014522,2.0,1.0,part_1,,,,,,,,,,,,,magenta,diamond
0.0,3.0,0.0,0.0,3.0,3.0,287.9668569657951,2.0,1.0,part_1,,,,,,,,,,,,,white,square
119.0,2.0,2.0,0.0,4.0,4.0,296.6774019878357,2.0,1.0,part_1,,,,,,,,,,,,,cyan,cross
185.0,7.0,3.0,1.0,4.0,4.0,366.0873100161552,2.0,1.0,part_1,,,,,,,,,,,,,gray,I
409.0,8.0,4.0,1.0,3.0,3.0,412.8481460502371,2.0,1.0,part_1,,,,,,,,,,,,,magenta,diamond
30.0,5.0,1.0,1.0,2.0,2.0,286.8188199936412,2.0,1.0,part_1,,,,,,,,,,,,,blue,circle
178.0,7.0,3.0,1.0,4.0,4.0,307.2835939819924,2.0,1.0,part_1,,,,,,,,,,,,,gray,I
0.0,4.0,0.0,0.0,3.0,3.0,531.6310049965978,2.0,1.0,part_1,,,,,,,,,,,,,green,flipped triangle
79.0,6.0,2.0,1.0,1.0,1.0,399.2309760069474,2.0,1.0,part_1,,,,,,,,,,,,,yellow,triangle
113.0,6.0,2.0,1.0,2.0,2.0,401.2903040274977,2.0,1.0,part_1,,,,,,,,,,,,,yellow,triangle
48.0,1.0,1.0,0.0,2.0,2.0,480.3257610183209,2.0,1.0,part_1,,,,,,,,,,,,,orange,hexagon
0.0,4.0,0.0,0.0,2.0,2.0,405.7767449994571,2.0,1.0,part_1,,,,,,,,,,,,,green,flipped triangle
62.0,5.0,1.0,1.0,3.0,3.0,353.39845798444,2.0,1.0,part_1,,,,,,,,,,,,,blue,circle
0.0,5.0,0.0,1.0,4.0,4.0,389.7706189891323,2.0,1.0,part_1,,,,,,,,,,,,,blue,circle
0.0,7.0,0.0,1.0,2.0,2.0,274.9948090058751,2.0,1.0,part_1,,,,,,,,,,,,,gray,I
216.0,7.0,3.0,1.0,2.0,2.0,493.5940739815123,2.0,1.0,part_1,,,,,,,,,,,,,gray,I
69.0,5.0,1.0,1.0,3.0,3.0,346.4117560070008,2.0,1.0,part_1,,,,,,,,,,,,,blue,circle
216.0,3.0,3.0,0.0,3.0,3.0,328.6088469903916,2.0,1.0,part_1,,,,,,,,,,,,,white,square
87.0,6.0,2.0,1.0,4.0,4.0,316.37498002965,2.0,1.0,part_1,,,,,,,,,,,,,yellow,triangle
107.0,6.0,2.0,1.0,4.0,4.0,410.2439319831319,2.0,1.0,part_1,,,,,,,,,,,,,yellow,triangle
0.0,7.0,0.0,1.0,2.0,2.0,360.3750809561461,2.0,1.0,part_1,,,,,,,,,,,,,gray,I
409.0,4.0,4.0,0.0,4.0,4.0,364.6461360040121,2.0,1.0,part_1,,,,,,,,,,,,,green,flipped triangle
72.0,1.0,1.0,0.0,2.0,2.0,426.2852690299041,2.0,1.0,part_1,,,,,,,,,,,,,orange,hexagon
69.0,5.0,1.0,1.0,1.0,1.0,349.2337019997649,2.0,1.0,part_1,,,,,,,,,,,,,blue,circle
396.0,8.0,4.0,1.0,3.0,3.0,338.1747949752025,2.0,1.0,part_1,,,,,,,,,,,,,magenta,diamond
395.0,4.0,4.0,0.0,3.0,3.0,372.1957019879482,2.0,1.0,part_1,,,,,,,,,,,,,green,flipped triangle
60.0,1.0,1.0,0.0,4.0,4.0,338.277984992601,2.0,1.0,part_1,,,,,,,,,,,,,orange,hexagon
198.0,3.0,3.0,0.0,4.0,4.0,341.9192759902216,2.0,1.0,part_1,,,,,,,,,,,,,white,square
117.0,2.0,2.0,0.0,1.0,1.0,260.4720150120556,2.0,1.0,part_1,,,,,,,,,,,,,cyan,cross
417.0,8.0,4.0,1.0,2.0,2.0,360.1700510480441,2.0,1.0,part_1,,,,,,,,,,,,,magenta,diamond
213.0,3.0,3.0,0.0,2.0,2.0,478.8223659852519,2.0,1.0,part_1,,,,,,,,,,,,,white,square
182.0,3.0,3.0,0.0,2.0,2.0,369.0265390323475,2.0,1.0,part_1,,,,,,,,,,,,,white,square
77.0,6.0,2.0,1.0,2.0,2.0,388.6603040155023,2.0,1.0,part_1,,,,,,,,,,,,,yellow,triangle
86.0,6.0,2.0,1.0,1.0,1.0,363.378832989838,2.0,1.0,part_1,,,,,,,,,,,,,yellow,triangle
96.0,6.0,2.0,1.0,3.0,3.0,282.4141489691101,2.0,1.0,part_1,,,,,,,,,,,,,yellow,triangle
112.0,2.0,2.0,0.0,2.0,2.0,278.2360519631766,2.0,1.0,part_1,,,,,,,,,,,,,cyan,cross
422.0,8.0,4.0,1.0,1.0,1.0,400.5637569935061,2.0,1.0,part_1,,,,,,,,,,,,,magenta,diamond
37.0,5.0,1.0,1.0,3.0,3.0,408.5759640438482,2.0,1.0,part_1,,,,,,,,,,,,,blue,circle
200.0,3.0,3.0,0.0,1.0,1.0,275.5528949783183,2.0,1.0,part_1,,,,,,,,,,,,,white,square
0.0,5.0,0.0,1.0,3.0,3.0,298.8732430385425,3.0,1.0,part_1,,,,,,,,,,,,,blue,circle
0.0,7.0,0.0,1.0,3.0,3.0,329.0310350130312,3.0,1.0,part_1,,,,,,,,,,,,,gray,I
0.0,3.0,0.0,0.0,3.0,3.0,269.7601580293849,3.0,1.0,part_1,,,,,,,,,,,,,white,square
0.0,1.0,0.0,0.0,3.0,3.0,306.5380520420149,3.0,1.0,part_1,,,,,,,,,,,,,orange,hexagon
178.0,3.0,3.0,0.0,1.0,1.0,322.3501770407893,3.0,2.0,part_1,,,,,,,,,,,,,white,square
223.0,7.0,3.0,1.0,4.0,4.0,394.2077009705826,3.0,1.0,part_1,,,,,,,,,,,,,gray,I
0.0,3.0,0.0,0.0,3.0,3.0,404.6777929761447,3.0,1.0,part_1,,,,,,,,,,,,,white,square
42.0,5.0,1.0,1.0,2.0,2.0,323.725554975681,3.0,1.0,part_1,,,,,,,,,,,,,blue,circle
94.0,6.0,2.0,1.0,1.0,1.0,294.6325449738651,3.0,1.0,part_1,,,,,,,,,,,,,yellow,triangle
69.0,1.0,1.0,0.0,3.0,3.0,362.4448220361955,3.0,1.0,part_1,,,,,,,,,,,,,orange,hexagon
113.0,2.0,2.0,0.0,1.0,1.0,328.969424997922,3.0,1.0,part_1,,,,,,,,,,,,,cyan,cross
209.0,3.0,3.0,0.0,4.0,4.0,246.0936610004864,3.0,1.0,part_1,,,,,,,,,,,,,white,square
69.0,1.0,1.0,0.0,1.0,1.0,401.8468679860234,3.0,1.0,part_1,,,,,,,,,,,,,orange,hexagon
413.0,8.0,4.0,1.0,3.0,3.0,288.7018690234981,3.0,1.0,part_1,,,,,,,,,,,,,magenta,diamond
32.0,5.0,1.0,1.0,1.0,1.0,377.7204299694858,3.0,1.0,part_1,,,,,,,,,,,,,blue,circle
93.0,2.0,2.0,0.0,1.0,1.0,329.0469679632224,3.0,1.0,part_1,,,,,,,,,,,,,cyan,cross
124.0,2.0,2.0,0.0,1.0,1.0,262.2073630336672,3.0,1.0,part_1,,,,,,,,,,,,,cyan,cross
407.0,8.0,4.0,1.0,4.0,4.0,283.2213080255314,3.0,1.0,part_1,,,,,,,,,,,,,magenta,diamond
88.0,6.0,2.0,1.0,2.0,2.0,365.9554339828901,3.0,1.0,part_1,,,,,,,,,,,,,yellow,triangle
178.0,3.0,3.0,0.0,3.0,3.0,417.4071670277044,3.0,1.0,part_1,,,,,,,,,,,,,white,square
380.0,8.0,4.0,1.0,4.0,4.0,694.6660199901089,3.0,1.0,part_1,,,,,,,,,,,,,magenta,diamond
416.0,8.0,4.0,1.0,4.0,4.0,428.0027740169316,3.0,1.0,part_1,,,,,,,,,,,,,magenta,diamond
46.0,1.0,1.0,0.0,3.0,3.0,345.3822699957527,3.0,1.0,part_1,,,,,,,,,,,,,orange,hexagon
68.0,5.0,1.0,1.0,2.0,2.0,299.6335499919951,3.0,1.0,part_1,,,,,,,,,,,,,blue,circle
213.0,7.0,3.0,1.0,2.0,2.0,347.1460799919441,3.0,1.0,part_1,,,,,,,,,,,,,gray,I
0.0,7.0,0.0,1.0,3.0,3.0,501.1361479992047,3.0,1.0,part_1,,,,,,,,,,,,,gray,I
114.0,6.0,2.0,1.0,4.0,4.0,402.2904360317625,3.0,1.0,part_1,,,,,,,,,,,,,yellow,triangle
0.0,4.0,0.0,0.0,3.0,3.0,321.4224490220658,3.0,1.0,part_1,,,,,,,,,,,,,green,flipped triangle
0.0,8.0,0.0,1.0,4.0,4.0,309.0809819987044,3.0,1.0,part_1,,,,,,,,,,,,,magenta,diamond
0.0,2.0,0.0,0.0,2.0,2.0,234.9950200296007,3.0,1.0,part_1,,,,,,,,,,,,,cyan,cross
53.0,1.0,1.0,0.0,1.0,1.0,310.6281590298749,3.0,1.0,part_1,,,,,,,,,,,,,orange,hexagon
77.0,2.0,2.0,0.0,2.0,2.0,329.8577410168946,3.0,1.0,part_1,,,,,,,,,,,,,cyan,cross
212.0,7.0,3.0,1.0,3.0,3.0,369.1487680189311,3.0,1.0,part_1,,,,,,,,,,,,,gray,I
378.0,4.0,4.0,0.0,4.0,4.0,333.0541320028715,3.0,1.0,part_1,,,,,,,,,,,,,green,flipped triangle
416.0,4.0,4.0,0.0,4.0,4.0,321.5385469957255,3.0,1.0,part_1,,,,,,,,,,,,,green,flipped triangle
422.0,8.0,4.0,1.0,2.0,2.0,284.151780011598,3.0,1.0,part_1,,,,,,,,,,,,,magenta,diamond
0.0,4.0,0.0,0.0,3.0,3.0,300.3784850006923,3.0,1.0,part_1,,,,,,,,,,,,,green,flipped triangle
114.0,6.0,2.0,1.0,1.0,1.0,272.7758580003865,3.0,1.0,part_1,,,,,,,,,,,,,yellow,triangle
203.0,7.0,3.0,1.0,1.0,1.0,284.9609319819137,3.0,1.0,part_1,,,,,,,,,,,,,gray,I
114.0,2.0,2.0,0.0,3.0,3.0,320.3122970298864,3.0,1.0,part_1,,,,,,,,,,,,,cyan,cross
65.0,1.0,1.0,0.0,1.0,1.0,324.7983290348202,3.0,1.0,part_1,,,,,,,,,,,,,orange,hexagon
181.0,7.0,3.0,1.0,4.0,4.0,303.4863590146415,3.0,1.0,part_1,,,,,,,,,,,,,gray,I
382.0,8.0,4.0,1.0,2.0,2.0,349.9092870042659,3.0,1.0,part_1,,,,,,,,,,,,,magenta,diamond
118.0,6.0,2.0,1.0,3.0,3.0,250.7136709755286,3.0,1.0,part_1,,,,,,,,,,,,,yellow,triangle
80.0,6.0,2.0,1.0,2.0,2.0,262.7966669970192,3.0,1.0,part_1,,,,,,,,,,,,,yellow,triangle
0.0,8.0,0.0,1.0,4.0,4.0,308.9224030263722,3.0,1.0,part_1,,,,,,,,,,,,,magenta,diamond
78.0,6.0,2.0,1.0,4.0,4.0,295.0881030410528,3.0,1.0,part_1,,,,,,,,,,,,,yellow,triangle
400.0,4.0,4.0,0.0,1.0,1.0,246.5740169864148,3.0,1.0,part_1,,,,,,,,,,,,,green,flipped triangle
0.0,1.0,0.0,0.0,1.0,1.0,344.8164149885997,3.0,1.0,part_1,,,,,,,,,,,,,orange,hexagon
100.0,2.0,2.0,0.0,4.0,4.0,416.287995991297,3.0,1.0,part_1,,,,,,,,,,,,,cyan,cross
60.0,5.0,1.0,1.0,4.0,4.0,337.7691290224902,3.0,1.0,part_1,,,,,,,,,,,,,blue,circle
119.0,6.0,2.0,1.0,2.0,2.0,496.1017059977166,3.0,1.0,part_1,,,,,,,,,,,,,yellow,triangle
215.0,7.0,3.0,1.0,1.0,1.0,405.0666540279053,3.0,1.0,part_1,,,,,,,,,,,,,gray,I
207.0,7.0,3.0,1.0,4.0,4.0,303.6074650008231,3.0,1.0,part_1,,,,,,,,,,,,,gray,I
98.0,2.0,2.0,0.0,2.0,2.0,287.7787689794786,3.0,1.0,part_1,,,,,,,,,,,,,cyan,cross
0.0,6.0,0.0,1.0,1.0,1.0,348.6190169933252,3.0,1.0,part_1,,,,,,,,,,,,,yellow,triangle
96.0,2.0,2.0,0.0,2.0,2.0,319.1206399933435,3.0,1.0,part_1,,,,,,,,,,,,,cyan,cross
0.0,6.0,0.0,1.0,2.0,2.0,362.5828360090963,3.0,1.0,part_1,,,,,,,,,,,,,yellow,triangle
403.0,4.0,4.0,0.0,4.0,4.0,554.8073319951072,3.0,1.0,part_1,,,,,,,,,,,,,green,flipped triangle
191.0,3.0,3.0,0.0,3.0,3.0,453.5851179971359,3.0,1.0,part_1,,,,,,,,,,,,,white,square
404.0,8.0,4.0,1.0,3.0,3.0,378.6175890127197,3.0,1.0,part_1,,,,,,,,,,,,,magenta,diamond
388.0,4.0,4.0,0.0,4.0,4.0,441.6749679949134,3.0,1.0,part_1,,,,,,,,,,,,,green,flipped triangle
0.0,2.0,0.0,0.0,3.0,3.0,509.97892703162506,3.0,1.0,part_1,,,,,,,,,,,,,cyan,cross
0.0,1.0,0.0,0.0,3.0,3.0,390.8161960425786,3.0,1.0,part_1,,,,,,,,,,,,,orange,hexagon
58.0,1.0,1.0,0.0,4.0,4.0,315.4185669845901,3.0,1.0,part_1,,,,,,,,,,,,,orange,hexagon
0.0,8.0,0.0,1.0,2.0,2.0,311.9741949485615,3.0,1.0,part_1,,,,,,,,,,,,,magenta,diamond
182.0,7.0,3.0,1.0,2.0,2.0,294.5776440319605,3.0,1.0,part_1,,,,,,,,,,,,,gray,I
53.0,1.0,1.0,0.0,2.0,2.0,491.39030900551,3.0,1.0,part_1,,,,,,,,,,,,,orange,hexagon
62.0,1.0,1.0,0.0,3.0,3.0,329.6305229887366,3.0,1.0,part_1,,,,,,,,,,,,,orange,hexagon
223.0,3.0,3.0,0.0,2.0,2.0,348.4865839709528,3.0,1.0,part_1,,,,,,,,,,,,,white,square
394.0,8.0,4.0,1.0,4.0,4.0,471.7510739574209,3.0,1.0,part_1,,,,,,,,,,,,,magenta,diamond
396.0,8.0,4.0,1.0,1.0,1.0,319.9147710110992,3.0,1.0,part_1,,,,,,,,,,,,,magenta,diamond
0.0,1.0,0.0,0.0,1.0,1.0,337.5535040395334,3.0,1.0,part_1,,,,,,,,,,,,,orange,hexagon
394.0,4.0,4.0,0.0,4.0,4.0,270.4787059919908,3.0,1.0,part_1,,,,,,,,,,,,,green,flipped triangle
59.0,1.0,1.0,0.0,1.0,1.0,308.2620400236919,3.0,1.0,part_1,,,,,,,,,,,,,orange,hexagon
81.0,6.0,2.0,1.0,1.0,1.0,374.7930030222051,3.0,1.0,part_1,,,,,,,,,,,,,yellow,triangle
55.0,5.0,1.0,1.0,3.0,3.0,462.7515209722332,3.0,1.0,part_1,,,,,,,,,,,,,blue,circle
0.0,3.0,0.0,0.0,3.0,3.0,323.6210719915107,3.0,1.0,part_1,,,,,,,,,,,,,white,square
105.0,6.0,2.0,1.0,2.0,2.0,428.9914530236274,3.0,1.0,part_1,,,,,,,,,,,,,yellow,triangle
30.0,1.0,1.0,0.0,4.0,4.0,363.0684270174242,3.0,1.0,part_1,,,,,,,,,,,,,orange,hexagon
62.0,1.0,1.0,0.0,2.0,2.0,287.2984809800982,3.0,1.0,part_1,,,,,,,,,,,,,orange,hexagon
408.0,4.0,4.0,0.0,4.0,4.0,315.340178029146,3.0,1.0,part_1,,,,,,,,,,,,,green,flipped triangle
72.0,5.0,1.0,1.0,1.0,1.0,576.523597992491,3.0,1.0,part_1,,,,,,,,,,,,,blue,circle
42.0,1.0,1.0,0.0,1.0,1.0,551.63485504454,3.0,1.0,part_1,,,,,,,,,,,,,orange,hexagon
195.0,3.0,3.0,0.0,1.0,1.0,516.955237952061,3.0,1.0,part_1,,,,,,,,,,,,,white,square
0.0,3.0,0.0,0.0,1.0,1.0,424.9021839932538,3.0,1.0,part_1,,,,,,,,,,,,,white,square
30.0,5.0,1.0,1.0,4.0,4.0,323.317856003996,3.0,1.0,part_1,,,,,,,,,,,,,blue,circle
405.0,4.0,4.0,0.0,4.0,4.0,303.9827349712141,3.0,1.0,part_1,,,,,,,,,,,,,green,flipped triangle
36.0,5.0,1.0,1.0,4.0,4.0,331.9914530147798,3.0,1.0,part_1,,,,,,,,,,,,,blue,circle
58.0,1.0,1.0,0.0,3.0,3.0,496.8429870205,3.0,1.0,part_1,,,,,,,,,,,,,orange,hexagon
175.0,3.0,3.0,0.0,3.0,3.0,368.9236560021527,3.0,1.0,part_1,,,,,,,,,,,,,white,square
116.0,6.0,2.0,1.0,4.0,4.0,475.6387239904143,3.0,1.0,part_1,,,,,,,,,,,,,yellow,triangle
201.0,7.0,3.0,1.0,2.0,2.0,590.7535569858737,3.0,1.0,part_1,,,,,,,,,,,,,gray,I
0.0,1.0,0.0,0.0,2.0,2.0,283.3484500297345,3.0,1.0,part_1,,,,,,,,,,,,,orange,hexagon
196.0,7.0,3.0,1.0,2.0,2.0,259.0272150118835,3.0,1.0,part_1,,,,,,,,,,,,,gray,I
27.0,5.0,1.0,1.0,4.0,4.0,304.9452700070105,3.0,1.0,part_1,,,,,,,,,,,,,blue,circle
0.0,5.0,0.0,1.0,4.0,4.0,292.2986000194214,3.0,1.0,part_1,,,,,,,,,,,,,blue,circle
0.0,8.0,0.0,1.0,4.0,4.0,543.8689399743453,3.0,1.0,part_1,,,,,,,,,,,,,magenta,diamond
219.0,3.0,3.0,0.0,3.0,3.0,333.6841199779883,3.0,1.0,part_1,,,,,,,,,,,,,white,square
196.0,3.0,3.0,0.0,4.0,4.0,306.5401450148783,3.0,1.0,part_1,,,,,,,,,,,,,white,square
0.0,8.0,0.0,1.0,2.0,2.0,431.5180400153622,4.0,1.0,part_1,,,,,,,,,,,,,magenta,diamond
100.0,6.0,2.0,1.0,3.0,3.0,282.4002659763209,4.0,1.0,part_1,,,,,,,,,,,,,yellow,triangle
213.0,3.0,3.0,0.0,4.0,4.0,262.0904139475897,4.0,1.0,part_1,,,,,,,,,,,,,white,square
118.0,6.0,2.0,1.0,3.0,3.0,315.5184650095179,4.0,1.0,part_1,,,,,,,,,,,,,yellow,triangle
208.0,3.0,3.0,0.0,1.0,1.0,240.7278040191158,4.0,1.0,part_1,,,,,,,,,,,,,white,square
99.0,2.0,2.0,0.0,3.0,3.0,270.8839910337701,4.0,1.0,part_1,,,,,,,,,,,,,cyan,cross
92.0,2.0,2.0,0.0,4.0,4.0,276.0850229533389,4.0,1.0,part_1,,,,,,,,,,,,,cyan,cross
399.0,8.0,4.0,1.0,3.0,3.0,303.0693830223754,4.0,1.0,part_1,,,,,,,,,,,,,magenta,diamond
200.0,3.0,3.0,0.0,2.0,2.0,300.4420200013555,4.0,1.0,part_1,,,,,,,,,,,,,white,square
46.0,5.0,1.0,1.0,2.0,2.0,399.5040630106814,4.0,1.0,part_1,,,,,,,,,,,,,blue,circle
223.0,7.0,3.0,1.0,2.0,2.0,374.4269919698126,4.0,1.0,part_1,,,,,,,,,,,,,gray,I
0.0,2.0,0.0,0.0,2.0,2.0,267.8985859965905,4.0,1.0,part_1,,,,,,,,,,,,,cyan,cross
376.0,8.0,4.0,1.0,1.0,1.0,328.5450840485282,4.0,1.0,part_1,,,,,,,,,,,,,magenta,diamond
105.0,2.0,2.0,0.0,3.0,3.0,308.3232679637149,4.0,1.0,part_1,,,,,,,,,,,,,cyan,cross
395.0,8.0,4.0,1.0,1.0,1.0,361.5148959797807,4.0,1.0,part_1,,,,,,,,,,,,,magenta,diamond
410.0,8.0,4.0,1.0,4.0,4.0,461.031982966233,4.0,1.0,part_1,,,,,,,,,,,,,magenta,diamond
0.0,7.0,0.0,1.0,1.0,1.0,287.9334560129791,4.0,1.0,part_1,,,,,,,,,,,,,gray,I
112.0,6.0,2.0,1.0,1.0,1.0,247.7199690183624,4.0,1.0,part_1,,,,,,,,,,,,,yellow,triangle
0.0,4.0,0.0,0.0,3.0,3.0,332.9311789711937,4.0,1.0,part_1,,,,,,,,,,,,,green,flipped triangle
32.0,1.0,1.0,0.0,3.0,3.0,343.8031160039827,4.0,1.0,part_1,,,,,,,,,,,,,orange,hexagon
49.0,1.0,1.0,0.0,3.0,3.0,307.5408379663713,4.0,1.0,part_1,,,,,,,,,,,,,orange,hexagon
394.0,4.0,4.0,0.0,1.0,1.0,394.6522769983858,4.0,1.0,part_1,,,,,,,,,,,,,green,flipped triangle
0.0,6.0,0.0,1.0,3.0,3.0,349.5927599724382,4.0,1.0,part_1,,,,,,,,,,,,,yellow,triangle
393.0,8.0,4.0,1.0,2.0,2.0,312.5540949986316,4.0,1.0,part_1,,,,,,,,,,,,,magenta,diamond
413.0,4.0,4.0,0.0,1.0,1.0,400.8351379889063,4.0,1.0,part_1,,,,,,,,,,,,,green,flipped triangle
396.0,4.0,4.0,0.0,3.0,3.0,317.7016059635207,4.0,1.0,part_1,,,,,,,,,,,,,green,flipped triangle
196.0,7.0,3.0,1.0,4.0,4.0,368.9736159867607,4.0,1.0,part_1,,,,,,,,,,,,,gray,I
375.0,4.0,4.0,0.0,3.0,3.0,300.2024629968218,4.0,1.0,part_1,,,,,,,,,,,,,green,flipped triangle
0.0,2.0,0.0,0.0,4.0,4.0,291.0592110129073,4.0,1.0,part_1,,,,,,,,,,,,,cyan,cross
30.0,5.0,1.0,1.0,1.0,1.0,461.3027179730125,4.0,1.0,part_1,,,,,,,,,,,,,blue,circle
39.0,5.0,1.0,1.0,3.0,3.0,409.4557209755294,4.0,1.0,part_1,,,,,,,,,,,,,blue,circle
122.0,6.0,2.0,1.0,3.0,3.0,345.0631459709257,4.0,1.0,part_1,,,,,,,,,,,,,yellow,triangle
83.0,2.0,2.0,0.0,2.0,2.0,246.2896070210263,4.0,1.0,part_1,,,,,,,,,,,,,cyan,cross
114.0,2.0,2.0,0.0,3.0,3.0,359.955586027354,4.0,1.0,part_1,,,,,,,,,,,,,cyan,cross
118.0,6.0,2.0,1.0,3.0,3.0,324.096949014347,4.0,1.0,part_1,,,,,,,,,,,,,yellow,triangle
179.0,3.0,3.0,0.0,1.0,1.0,265.5996109824627,4.0,1.0,part_1,,,,,,,,,,,,,white,square
124.0,6.0,2.0,1.0,3.0,3.0,446.7400280409492,4.0,1.0,part_1,,,,,,,,,,,,,yellow,triangle
39.0,1.0,1.0,0.0,1.0,1.0,317.2150559839792,4.0,1.0,part_1,,,,,,,,,,,,,orange,hexagon
0.0,8.0,0.0,1.0,2.0,2.0,272.189662035089,4.0,1.0,part_1,,,,,,,,,,,,,magenta,diamond
0.0,2.0,0.0,0.0,4.0,4.0,276.2336789746769,4.0,1.0,part_1,,,,,,,,,,,,,cyan,cross
77.0,6.0,2.0,1.0,1.0,1.0,336.3243830390274,4.0,1.0,part_1,,,,,,,,,,,,,yellow,triangle
205.0,7.0,3.0,1.0,3.0,3.0,308.8941519963555,4.0,1.0,part_1,,,,,,,,,,,,,gray,I
418.0,4.0,4.0,0.0,3.0,3.0,308.4416480269283,4.0,1.0,part_1,,,,,,,,,,,,,green,flipped triangle
384.0,4.0,4.0,0.0,4.0,4.0,440.2183680213056,4.0,1.0,part_1,,,,,,,,,,,,,green,flipped triangle
213.0,7.0,3.0,1.0,3.0,3.0,430.8950169943273,4.0,1.0,part_1,,,,,,,,,,,,,gray,I
384.0,4.0,4.0,0.0,3.0,3.0,345.2134200488217,4.0,1.0,part_1,,,,,,,,,,,,,green,flipped triangle
65.0,5.0,1.0,1.0,4.0,4.0,380.388690973632,4.0,1.0,part_1,,,,,,,,,,,,,blue,circle
0.0,3.0,0.0,0.0,4.0,4.0,292.3722949926741,4.0,1.0,part_1,,,,,,,,,,,,,white,square
425.0,4.0,4.0,0.0,2.0,2.0,505.1037800149061,4.0,1.0,part_1,,,,,,,,,,,,,green,flipped triangle
86.0,2.0,2.0,0.0,2.0,2.0,316.4974579703994,4.0,1.0,part_1,,,,,,,,,,,,,cyan,cross
201.0,3.0,3.0,0.0,4.0,4.0,391.972484998405,4.0,1.0,part_1,,,,,,,,,,,,,white,square
399.0,4.0,4.0,0.0,4.0,4.0,372.5451130303554,4.0,1.0,part_1,,,,,,,,,,,,,green,flipped triangle
0.0,5.0,0.0,1.0,3.0,3.0,354.3392129940912,4.0,1.0,part_1,,,,,,,,,,,,,blue,circle
73.0,1.0,1.0,0.0,1.0,1.0,340.6861110124737,4.0,1.0,part_1,,,,,,,,,,,,,orange,hexagon
118.0,2.0,2.0,0.0,4.0,4.0,267.1523680328391,4.0,1.0,part_1,,,,,,,,,,,,,cyan,cross
0.0,6.0,0.0,1.0,1.0,1.0,320.1775529887527,4.0,1.0,part_1,,,,,,,,,,,,,yellow,triangle
31.0,1.0,1.0,0.0,1.0,1.0,467.0633369823918,4.0,1.0,part_1,,,,,,,,,,,,,orange,hexagon
72.0,5.0,1.0,1.0,4.0,4.0,311.7535390192643,4.0,1.0,part_1,,,,,,,,,,,,,blue,circle
188.0,7.0,3.0,1.0,2.0,2.0,303.4778740257025,4.0,1.0,part_1,,,,,,,,,,,,,gray,I
111.0,2.0,2.0,0.0,3.0,3.0,281.8254050216637,4.0,1.0,part_1,,,,,,,,,,,,,cyan,cross
103.0,2.0,2.0,0.0,2.0,2.0,310.3753670002334,4.0,1.0,part_1,,,,,,,,,,,,,cyan,cross
0.0,4.0,0.0,0.0,3.0,3.0,413.6473769904114,4.0,1.0,part_1,,,,,,,,,,,,,green,flipped triangle
118.0,2.0,2.0,0.0,1.0,1.0,399.8178009642288,4.0,1.0,part_1,,,,,,,,,,,,,cyan,cross
409.0,8.0,4.0,1.0,3.0,3.0,405.2646920317784,4.0,1.0,part_1,,,,,,,,,,,,,magenta,diamond
179.0,7.0,3.0,1.0,3.0,3.0,440.6657689833082,4.0,1.0,part_1,,,,,,,,,,,,,gray,I
200.0,7.0,3.0,1.0,3.0,3.0,373.817968997173,4.0,1.0,part_1,,,,,,,,,,,,,gray,I
220.0,7.0,3.0,1.0,4.0,4.0,315.8505280152894,4.0,1.0,part_1,,,,,,,,,,,,,gray,I
188.0,7.0,3.0,1.0,3.0,3.0,328.7762679974548,4.0,1.0,part_1,,,,,,,,,,,,,gray,I
94.0,2.0,2.0,0.0,1.0,1.0,332.1562489727512,4.0,1.0,part_1,,,,,,,,,,,,,cyan,cross
212.0,7.0,3.0,1.0,4.0,4.0,296.0041800397448,4.0,1.0,part_1,,,,,,,,,,,,,gray,I
27.0,5.0,1.0,1.0,3.0,3.0,296.474406030029,4.0,1.0,part_1,,,,,,,,,,,,,blue,circle
215.0,7.0,3.0,1.0,2.0,2.0,377.4271020083688,4.0,1.0,part_1,,,,,,,,,,,,,gray,I
25.0,5.0,1.0,1.0,4.0,4.0,369.4327700068243,4.0,1.0,part_1,,,,,,,,,,,,,blue,circle
0.0,2.0,0.0,0.0,1.0,1.0,348.2772059505805,4.0,1.0,part_1,,,,,,,,,,,,,cyan,cross
0.0,6.0,0.0,1.0,4.0,4.0,296.3571299915202,4.0,1.0,part_1,,,,,,,,,,,,,yellow,triangle
74.0,1.0,1.0,0.0,4.0,4.0,350.1718700281344,4.0,1.0,part_1,,,,,,,,,,,,,orange,hexagon
376.0,4.0,4.0,0.0,2.0,2.0,376.759567996487,4.0,1.0,part_1,,,,,,,,,,,,,green,flipped triangle
116.0,2.0,2.0,0.0,3.0,3.0,344.5531610050238,4.0,1.0,part_1,,,,,,,,,,,,,cyan,cross
417.0,4.0,4.0,0.0,1.0,1.0,335.8936309814453,4.0,2.0,part_1,,,,,,,,,,,,,green,flipped triangle
212.0,3.0,3.0,0.0,3.0,3.0,431.072915031109,4.0,1.0,part_1,,,,,,,,,,,,,white,square
77.0,2.0,2.0,0.0,1.0,1.0,324.1482229786925,4.0,1.0,part_1,,,,,,,,,,,,,cyan,cross
0.0,4.0,0.0,0.0,3.0,3.0,397.8377029998228,4.0,1.0,part_1,,,,,,,,,,,,,green,flipped triangle
382.0,4.0,4.0,0.0,2.0,2.0,306.96016701404,4.0,1.0,part_1,,,,,,,,,,,,,green,flipped triangle
203.0,3.0,3.0,0.0,1.0,1.0,376.5355320065282,4.0,1.0,part_1,,,,,,,,,,,,,white,square
181.0,3.0,3.0,0.0,1.0,1.0,266.9963139924221,4.0,1.0,part_1,,,,,,,,,,,,,white,square
211.0,7.0,3.0,1.0,2.0,2.0,345.8226940128952,4.0,1.0,part_1,,,,,,,,,,,,,gray,I
0.0,4.0,0.0,0.0,1.0,1.0,380.2951940451748,4.0,1.0,part_1,,,,,,,,,,,,,green,flipped triangle
0.0,4.0,0.0,0.0,4.0,4.0,401.8984300200827,4.0,1.0,part_1,,,,,,,,,,,,,green,flipped triangle
398.0,4.0,4.0,0.0,1.0,1.0,358.2377079874277,4.0,1.0,part_1,,,,,,,,,,,,,green,flipped triangle
59.0,5.0,1.0,1.0,3.0,3.0,372.6190010202117,4.0,1.0,part_1,,,,,,,,,,,,,blue,circle
200.0,7.0,3.0,1.0,1.0,1.0,409.8745000082999,4.0,1.0,part_1,,,,,,,,,,,,,gray,I
176.0,7.0,3.0,1.0,3.0,3.0,447.9804849834181,4.0,1.0,part_1,,,,,,,,,,,,,gray,I
0.0,1.0,0.0,0.0,3.0,3.0,408.5369880194776,4.0,1.0,part_1,,,,,,,,,,,,,orange,hexagon
216.0,7.0,3.0,1.0,1.0,1.0,525.073743017856,4.0,1.0,part_1,,,,,,,,,,,,,gray,I
195.0,7.0,3.0,1.0,1.0,1.0,325.1137029728852,4.0,1.0,part_1,,,,,,,,,,,,,gray,I
72.0,5.0,1.0,1.0,3.0,3.0,336.4678249927237,4.0,1.0,part_1,,,,,,,,,,,,,blue,circle
52.0,5.0,1.0,1.0,1.0,1.0,300.0619349768385,4.0,1.0,part_1,,,,,,,,,,,,,blue,circle
400.0,4.0,4.0,0.0,3.0,3.0,618.9797560218722,4.0,1.0,part_1,,,,,,,,,,,,,green,flipped triangle
52.0,1.0,1.0,0.0,4.0,4.0,356.8221220048144,4.0,1.0,part_1,,,,,,,,,,,,,orange,hexagon
116.0,6.0,2.0,1.0,2.0,2.0,251.3895090087317,4.0,1.0,part_1,,,,,,,,,,,,,yellow,triangle
0.0,7.0,3.0,1.0,6.0,6.0,461.0208929516375,1.0,0.0,part_2,stop,250.0,250.0,3.0,,,,,,,,,gray,I
0.0,2.0,2.0,0.0,5.0,5.0,288.4982849936932,1.0,0.0,part_2,go,250.0,200.0,1.0,,,,,,,,,cyan,cross
0.0,5.0,1.0,1.0,6.0,0.0,0.0,1.0,0.0,part_2,stop,250.0,200.0,4.0,,,,,,,,,blue,circle
0.0,5.0,1.0,1.0,6.0,0.0,0.0,1.0,0.0,part_2,stop,250.0,250.0,4.0,,,,,,,,,blue,circle
0.0,6.0,2.0,1.0,5.0,5.0,421.9336870010011,1.0,0.0,part_2,stop,250.0,300.0,3.0,,,,,,,,,yellow,triangle
0.0,1.0,1.0,0.0,5.0,5.0,276.573769049719,1.0,0.0,part_2,go,200.0,300.0,1.0,,,,,,,,,orange,hexagon
0.0,7.0,3.0,1.0,5.0,5.0,587.8174050012603,1.0,0.0,part_2,go,200.0,300.0,1.0,,,,,,,,,gray,I
0.0,3.0,3.0,0.0,5.0,5.0,491.4628220140002,1.0,0.0,part_2,go,200.0,300.0,1.0,,,,,,,,,white,square
0.0,1.0,1.0,0.0,5.0,5.0,426.6552840126678,1.0,0.0,part_2,go,200.0,300.0,1.0,,,,,,,,,orange,hexagon
0.0,3.0,3.0,0.0,6.0,6.0,601.9588880008087,1.0,0.0,part_2,go,200.0,300.0,1.0,,,,,,,,,white,square
0.0,8.0,4.0,1.0,5.0,5.0,379.0417999844067,1.0,0.0,part_2,stop,200.0,300.0,3.0,,,,,,,,,magenta,diamond
0.0,6.0,2.0,1.0,5.0,0.0,0.0,1.0,0.0,part_2,stop,150.0,300.0,4.0,,,,,,,,,yellow,triangle
0.0,3.0,3.0,0.0,5.0,5.0,257.4586150003597,1.0,0.0,part_2,go,200.0,300.0,1.0,,,,,,,,,white,square
0.0,4.0,4.0,0.0,6.0,6.0,459.4115209765732,1.0,0.0,part_2,go,200.0,300.0,1.0,,,,,,,,,green,flipped triangle
0.0,5.0,1.0,1.0,5.0,0.0,0.0,1.0,0.0,part_2,stop,200.0,300.0,4.0,,,,,,,,,blue,circle
0.0,6.0,2.0,1.0,5.0,5.0,727.693572989665,1.0,0.0,part_2,go,250.0,300.0,1.0,,,,,,,,,yellow,triangle
0.0,7.0,3.0,1.0,5.0,0.0,0.0,1.0,0.0,part_2,stop,250.0,300.0,4.0,,,,,,,,,gray,I
0.0,7.0,3.0,1.0,6.0,6.0,382.0544239715673,1.0,0.0,part_2,go,300.0,300.0,1.0,,,,,,,,,gray,I
0.0,2.0,2.0,0.0,6.0,6.0,460.8532940037548,1.0,0.0,part_2,go,300.0,300.0,1.0,,,,,,,,,cyan,cross
0.0,8.0,4.0,1.0,6.0,6.0,574.5986250112765,1.0,0.0,part_2,go,300.0,300.0,1.0,,,,,,,,,magenta,diamond
0.0,1.0,1.0,0.0,6.0,6.0,539.663269999437,1.0,0.0,part_2,go,300.0,300.0,1.0,,,,,,,,,orange,hexagon
0.0,4.0,4.0,0.0,6.0,6.0,349.0813630050979,1.0,0.0,part_2,go,300.0,300.0,1.0,,,,,,,,,green,flipped triangle
0.0,2.0,2.0,0.0,5.0,5.0,350.4290050477721,1.0,0.0,part_2,go,300.0,300.0,1.0,,,,,,,,,cyan,cross
0.0,4.0,4.0,0.0,5.0,5.0,324.1906680050306,1.0,0.0,part_2,go,300.0,300.0,1.0,,,,,,,,,green,flipped triangle
0.0,8.0,4.0,1.0,6.0,6.0,253.4506269730627,1.0,0.0,part_2,stop,300.0,300.0,3.0,,,,,,,,,magenta,diamond
0.0,4.0,4.0,0.0,6.0,6.0,442.6069940091111,1.0,0.0,part_2,go,300.0,250.0,1.0,,,,,,,,,green,flipped triangle
0.0,2.0,2.0,0.0,5.0,5.0,692.3960109706968,1.0,0.0,part_2,go,300.0,250.0,1.0,,,,,,,,,cyan,cross
0.0,8.0,4.0,1.0,6.0,6.0,277.7638810221106,1.0,0.0,part_2,stop,300.0,250.0,3.0,,,,,,,,,magenta,diamond
0.0,1.0,1.0,0.0,6.0,6.0,464.7176419966854,1.0,0.0,part_2,go,300.0,200.0,1.0,,,,,,,,,orange,hexagon
0.0,5.0,1.0,1.0,5.0,0.0,0.0,1.0,0.0,part_2,stop,300.0,200.0,4.0,,,,,,,,,blue,circle
0.0,7.0,3.0,1.0,5.0,0.0,0.0,1.0,0.0,part_2,stop,350.0,200.0,4.0,,,,,,,,,gray,I
0.0,6.0,2.0,1.0,5.0,0.0,0.0,1.0,0.0,part_2,stop,400.0,200.0,4.0,,,,,,,,,yellow,triangle
0.0,1.0,1.0,0.0,6.0,6.0,320.8029340021312,1.0,0.0,part_2,go,450.0,200.0,1.0,,,,,,,,,orange,hexagon
0.0,3.0,3.0,0.0,6.0,6.0,396.3042160030454,1.0,0.0,part_2,go,450.0,200.0,1.0,,,,,,,,,white,square
0.0,2.0,2.0,0.0,6.0,6.0,437.4874019995332,1.0,0.0,part_2,go,450.0,200.0,1.0,,,,,,,,,cyan,cross
0.0,1.0,1.0,0.0,5.0,5.0,558.5572819691151,1.0,0.0,part_2,go,450.0,200.0,1.0,,,,,,,,,orange,hexagon
0.0,1.0,1.0,0.0,5.0,5.0,289.8018599953502,2.0,0.0,part_2,go,450.0,200.0,1.0,,,,,,,,,orange,hexagon
0.0,3.0,3.0,0.0,5.0,5.0,279.3060769909061,2.0,0.0,part_2,go,450.0,200.0,1.0,,,,,,,,,white,square
0.0,7.0,3.0,1.0,6.0,0.0,0.0,2.0,0.0,part_2,stop,450.0,200.0,4.0,,,,,,,,,gray,I
0.0,1.0,1.0,0.0,6.0,6.0,320.3505940036848,2.0,0.0,part_2,go,450.0,250.0,1.0,,,,,,,,,orange,hexagon
0.0,3.0,3.0,0.0,5.0,5.0,286.6308849770576,2.0,0.0,part_2,go,450.0,250.0,1.0,,,,,,,,,white,square
0.0,6.0,2.0,1.0,6.0,6.0,311.051374010276,2.0,0.0,part_2,go,450.0,250.0,1.0,,,,,,,,,yellow,triangle
0.0,2.0,2.0,0.0,5.0,5.0,251.50544004281977,2.0,0.0,part_2,go,450.0,250.0,1.0,,,,,,,,,cyan,cross
0.0,8.0,4.0,1.0,6.0,6.0,274.8882919549942,2.0,0.0,part_2,stop,450.0,250.0,3.0,,,,,,,,,magenta,diamond
0.0,8.0,4.0,1.0,5.0,5.0,274.0999719826504,2.0,0.0,part_2,stop,450.0,200.0,3.0,,,,,,,,,magenta,diamond
0.0,3.0,3.0,0.0,6.0,6.0,396.737792994827,2.0,0.0,part_2,go,400.0,200.0,1.0,,,,,,,,,white,square
0.0,1.0,1.0,0.0,5.0,5.0,443.1758450227789,2.0,0.0,part_2,go,400.0,200.0,1.0,,,,,,,,,orange,hexagon
0.0,8.0,4.0,1.0,5.0,5.0,561.0198490321636,2.0,0.0,part_2,stop,400.0,200.0,3.0,,,,,,,,,magenta,diamond
0.0,3.0,3.0,0.0,5.0,5.0,587.8122500143945,2.0,0.0,part_2,go,350.0,200.0,1.0,,,,,,,,,white,square
0.0,2.0,2.0,0.0,5.0,5.0,666.192872042302,2.0,0.0,part_2,go,350.0,200.0,1.0,,,,,,,,,cyan,cross
0.0,7.0,3.0,1.0,6.0,6.0,257.8966289875097,2.0,0.0,part_2,stop,350.0,200.0,3.0,,,,,,,,,gray,I
0.0,2.0,2.0,0.0,5.0,5.0,664.0952810412273,2.0,0.0,part_2,go,350.0,150.0,1.0,,,,,,,,,cyan,cross
0.0,2.0,2.0,0.0,6.0,6.0,527.940332016442,2.0,0.0,part_2,go,350.0,150.0,1.0,,,,,,,,,cyan,cross
0.0,1.0,1.0,0.0,5.0,5.0,575.1803569728509,2.0,0.0,part_2,go,350.0,150.0,1.0,,,,,,,,,orange,hexagon
0.0,2.0,2.0,0.0,6.0,6.0,364.564755000174,2.0,0.0,part_2,go,350.0,150.0,1.0,,,,,,,,,cyan,cross
0.0,5.0,1.0,1.0,5.0,5.0,460.4559330036863,2.0,0.0,part_2,stop,350.0,150.0,3.0,,,,,,,,,blue,circle
0.0,4.0,4.0,0.0,6.0,6.0,532.9984159907326,2.0,0.0,part_2,go,300.0,150.0,1.0,,,,,,,,,green,flipped triangle
0.0,8.0,4.0,1.0,5.0,5.0,411.5523269865662,2.0,0.0,part_2,stop,300.0,150.0,3.0,,,,,,,,,magenta,diamond
0.0,5.0,1.0,1.0,5.0,0.0,0.0,2.0,0.0,part_2,stop,250.0,150.0,4.0,,,,,,,,,blue,circle
0.0,2.0,2.0,0.0,5.0,5.0,676.8034510314465,2.0,0.0,part_2,go,300.0,150.0,1.0,,,,,,,,,cyan,cross
0.0,2.0,2.0,0.0,6.0,6.0,556.2554720090702,2.0,0.0,part_2,go,300.0,150.0,1.0,,,,,,,,,cyan,cross
0.0,4.0,4.0,0.0,5.0,5.0,507.8431830042973,2.0,0.0,part_2,go,300.0,150.0,1.0,,,,,,,,,green,flipped triangle
0.0,2.0,2.0,0.0,5.0,5.0,292.7656840183772,2.0,0.0,part_2,go,300.0,150.0,1.0,,,,,,,,,cyan,cross
0.0,3.0,3.0,0.0,6.0,6.0,408.1884420011192,2.0,0.0,part_2,go,300.0,150.0,1.0,,,,,,,,,white,square
0.0,4.0,4.0,0.0,5.0,5.0,233.5399910225533,2.0,0.0,part_2,go,300.0,150.0,1.0,,,,,,,,,green,flipped triangle
0.0,4.0,4.0,0.0,5.0,5.0,407.3412300203927,2.0,0.0,part_2,go,300.0,150.0,1.0,,,,,,,,,green,flipped triangle
0.0,6.0,2.0,1.0,5.0,0.0,0.0,2.0,0.0,part_2,stop,300.0,150.0,4.0,,,,,,,,,yellow,triangle
0.0,4.0,4.0,0.0,6.0,6.0,496.4369929512031,2.0,0.0,part_2,go,350.0,150.0,1.0,,,,,,,,,green,flipped triangle
0.0,5.0,1.0,1.0,6.0,0.0,0.0,2.0,0.0,part_2,stop,350.0,150.0,4.0,,,,,,,,,blue,circle
0.0,5.0,1.0,1.0,5.0,5.0,238.4993119630962,2.0,0.0,part_2,go,350.0,200.0,1.0,,,,,,,,,blue,circle
0.0,2.0,2.0,0.0,5.0,5.0,383.7078809738159,2.0,0.0,part_2,go,350.0,200.0,1.0,,,,,,,,,cyan,cross
0.0,7.0,3.0,1.0,5.0,5.0,515.4772640089504,2.0,0.0,part_2,stop,350.0,200.0,3.0,,,,,,,,,gray,I
0.0,8.0,4.0,1.0,5.0,0.0,0.0,3.0,0.0,part_2,stop,300.0,200.0,4.0,,,,,,,,,magenta,diamond
0.0,7.0,3.0,1.0,5.0,0.0,0.0,3.0,0.0,part_2,stop,350.0,200.0,4.0,,,,,,,,,gray,I
0.0,2.0,2.0,0.0,6.0,6.0,379.8374069738202,3.0,0.0,part_2,go,400.0,200.0,1.0,,,,,,,,,cyan,cross
0.0,8.0,4.0,1.0,5.0,5.0,350.9243680164218,3.0,0.0,part_2,go,400.0,200.0,1.0,,,,,,,,,magenta,diamond
0.0,1.0,1.0,0.0,5.0,5.0,386.550787021406,3.0,0.0,part_2,go,400.0,200.0,1.0,,,,,,,,,orange,hexagon
0.0,4.0,4.0,0.0,6.0,6.0,313.9187810011208,3.0,0.0,part_2,go,400.0,200.0,1.0,,,,,,,,,green,flipped triangle
0.0,2.0,2.0,0.0,6.0,6.0,309.2000909964554,3.0,0.0,part_2,go,400.0,200.0,1.0,,,,,,,,,cyan,cross
0.0,1.0,1.0,0.0,6.0,6.0,288.7286380282603,3.0,0.0,part_2,go,400.0,200.0,1.0,,,,,,,,,orange,hexagon
0.0,2.0,2.0,0.0,5.0,5.0,392.9981240071356,3.0,0.0,part_2,go,400.0,200.0,1.0,,,,,,,,,cyan,cross
0.0,6.0,2.0,1.0,5.0,5.0,384.8783199791796,3.0,0.0,part_2,stop,400.0,200.0,3.0,,,,,,,,,yellow,triangle
0.0,8.0,4.0,1.0,5.0,0.0,0.0,3.0,0.0,part_2,stop,350.0,200.0,4.0,,,,,,,,,magenta,diamond
0.0,8.0,4.0,1.0,5.0,5.0,759.3191049527377,3.0,0.0,part_2,go,400.0,200.0,1.0,,,,,,,,,magenta,diamond
0.0,1.0,1.0,0.0,6.0,6.0,296.0899990284815,3.0,0.0,part_2,go,400.0,200.0,1.0,,,,,,,,,orange,hexagon
0.0,8.0,4.0,1.0,6.0,6.0,301.6287090140395,3.0,0.0,part_2,go,400.0,200.0,1.0,,,,,,,,,magenta,diamond
0.0,7.0,3.0,1.0,5.0,5.0,503.4288829774596,3.0,0.0,part_2,stop,400.0,200.0,3.0,,,,,,,,,gray,I
0.0,4.0,4.0,0.0,6.0,6.0,566.4171919925138,3.0,0.0,part_2,go,350.0,200.0,1.0,,,,,,,,,green,flipped triangle
0.0,1.0,1.0,0.0,5.0,5.0,590.4041079920717,3.0,0.0,part_2,go,350.0,200.0,1.0,,,,,,,,,orange,hexagon
0.0,7.0,3.0,1.0,5.0,5.0,604.1983229806647,3.0,0.0,part_2,go,350.0,200.0,1.0,,,,,,,,,gray,I
0.0,5.0,1.0,1.0,6.0,0.0,0.0,3.0,0.0,part_2,stop,350.0,200.0,4.0,,,,,,,,,blue,circle
0.0,2.0,2.0,0.0,5.0,5.0,484.9959349958226,3.0,0.0,part_2,go,350.0,250.0,1.0,,,,,,,,,cyan,cross
0.0,1.0,1.0,0.0,6.0,6.0,497.3961430368945,3.0,0.0,part_2,go,350.0,250.0,1.0,,,,,,,,,orange,hexagon
0.0,3.0,3.0,0.0,5.0,5.0,491.5038589970208,3.0,0.0,part_2,go,350.0,250.0,1.0,,,,,,,,,white,square
0.0,5.0,1.0,1.0,6.0,0.0,0.0,3.0,0.0,part_2,stop,350.0,250.0,4.0,,,,,,,,,blue,circle
0.0,2.0,2.0,0.0,5.0,5.0,601.207030005753,3.0,0.0,part_2,go,350.0,300.0,1.0,,,,,,,,,cyan,cross
0.0,2.0,2.0,0.0,6.0,6.0,642.3700439627282,3.0,0.0,part_2,go,350.0,300.0,1.0,,,,,,,,,cyan,cross
0.0,2.0,2.0,0.0,5.0,5.0,271.4498720015399,3.0,0.0,part_2,go,350.0,300.0,1.0,,,,,,,,,cyan,cross
0.0,5.0,1.0,1.0,5.0,5.0,472.2763340105302,3.0,0.0,part_2,go,350.0,300.0,1.0,,,,,,,,,blue,circle
0.0,3.0,3.0,0.0,5.0,5.0,449.2632490000687,3.0,0.0,part_2,go,350.0,300.0,1.0,,,,,,,,,white,square
0.0,5.0,1.0,1.0,5.0,0.0,0.0,3.0,0.0,part_2,stop,350.0,300.0,4.0,,,,,,,,,blue,circle
0.0,4.0,4.0,0.0,6.0,6.0,581.026469997596,3.0,0.0,part_2,go,400.0,300.0,1.0,,,,,,,,,green,flipped triangle
0.0,6.0,2.0,1.0,5.0,0.0,0.0,3.0,0.0,part_2,stop,400.0,300.0,4.0,,,,,,,,,yellow,triangle
0.0,8.0,4.0,1.0,5.0,5.0,373.4161040047183,3.0,0.0,part_2,stop,450.0,300.0,3.0,,,,,,,,,magenta,diamond
0.0,1.0,1.0,0.0,6.0,6.0,431.3696440076455,3.0,0.0,part_2,go,400.0,300.0,1.0,,,,,,,,,orange,hexagon
0.0,1.0,1.0,0.0,5.0,5.0,667.4950079759583,3.0,0.0,part_2,go,400.0,300.0,1.0,,,,,,,,,orange,hexagon
0.0,7.0,3.0,1.0,5.0,5.0,652.3716999799944,3.0,0.0,part_2,go,400.0,300.0,1.0,,,,,,,,,gray,I
0.0,8.0,4.0,1.0,6.0,6.0,421.5722099761478,3.0,0.0,part_2,stop,400.0,300.0,3.0,,,,,,,,,magenta,diamond
0.0,7.0,3.0,1.0,6.0,0.0,0.0,4.0,0.0,part_2,stop,400.0,250.0,4.0,,,,,,,,,gray,I
0.0,7.0,3.0,1.0,5.0,5.0,393.3145769988186,4.0,0.0,part_2,stop,400.0,300.0,3.0,,,,,,,,,gray,I
0.0,1.0,1.0,0.0,6.0,6.0,485.3296639630571,4.0,0.0,part_2,go,350.0,300.0,1.0,,,,,,,,,orange,hexagon
0.0,7.0,3.0,1.0,5.0,5.0,295.2818080084398,4.0,0.0,part_2,stop,350.0,300.0,3.0,,,,,,,,,gray,I
0.0,5.0,1.0,1.0,5.0,0.0,0.0,4.0,0.0,part_2,stop,300.0,300.0,4.0,,,,,,,,,blue,circle
0.0,5.0,1.0,1.0,6.0,0.0,0.0,4.0,0.0,part_2,stop,350.0,300.0,4.0,,,,,,,,,blue,circle
0.0,4.0,4.0,0.0,6.0,6.0,670.0919980066828,4.0,0.0,part_2,go,350.0,350.0,1.0,,,,,,,,,green,flipped triangle
0.0,6.0,2.0,1.0,6.0,6.0,514.1252169851214,4.0,0.0,part_2,go,350.0,350.0,1.0,,,,,,,,,yellow,triangle
0.0,5.0,1.0,1.0,6.0,0.0,0.0,4.0,0.0,part_2,stop,350.0,350.0,4.0,,,,,,,,,blue,circle
0.0,4.0,4.0,0.0,6.0,6.0,545.8053869660944,4.0,0.0,part_2,go,350.0,400.0,1.0,,,,,,,,,green,flipped triangle
0.0,5.0,1.0,1.0,6.0,6.0,537.8832640126348,4.0,0.0,part_2,stop,350.0,400.0,3.0,,,,,,,,,blue,circle
0.0,7.0,3.0,1.0,6.0,6.0,537.8039359929971,4.0,0.0,part_2,go,350.0,350.0,1.0,,,,,,,,,gray,I
0.0,1.0,1.0,0.0,5.0,5.0,465.1618319912813,4.0,0.0,part_2,go,350.0,350.0,1.0,,,,,,,,,orange,hexagon
0.0,4.0,4.0,0.0,5.0,5.0,543.2749190367758,4.0,0.0,part_2,go,350.0,350.0,1.0,,,,,,,,,green,flipped triangle
0.0,5.0,1.0,1.0,6.0,6.0,535.3173390030861,4.0,0.0,part_2,go,350.0,350.0,1.0,,,,,,,,,blue,circle
0.0,3.0,3.0,0.0,6.0,6.0,526.6558969742619,4.0,0.0,part_2,go,350.0,350.0,1.0,,,,,,,,,white,square
0.0,7.0,3.0,1.0,6.0,6.0,287.3193800332956,4.0,0.0,part_2,stop,350.0,350.0,3.0,,,,,,,,,gray,I
0.0,7.0,3.0,1.0,6.0,6.0,429.0846810326911,4.0,0.0,part_2,go,350.0,300.0,1.0,,,,,,,,,gray,I
0.0,8.0,4.0,1.0,5.0,0.0,0.0,4.0,0.0,part_2,stop,350.0,300.0,4.0,,,,,,,,,magenta,diamond
0.0,6.0,2.0,1.0,5.0,5.0,430.2917909808457,4.0,0.0,part_2,stop,400.0,300.0,3.0,,,,,,,,,yellow,triangle
0.0,3.0,3.0,0.0,6.0,6.0,700.9217370068654,4.0,0.0,part_2,go,350.0,300.0,1.0,,,,,,,,,white,square
0.0,7.0,3.0,1.0,6.0,6.0,492.5237880088389,4.0,0.0,part_2,go,350.0,300.0,1.0,,,,,,,,,gray,I
0.0,6.0,2.0,1.0,6.0,0.0,0.0,4.0,0.0,part_2,stop,350.0,300.0,4.0,,,,,,,,,yellow,triangle
0.0,4.0,4.0,0.0,6.0,6.0,564.2662860336713,4.0,0.0,part_2,go,350.0,350.0,1.0,,,,,,,,,green,flipped triangle
0.0,3.0,3.0,0.0,6.0,6.0,514.5071729784831,4.0,0.0,part_2,go,350.0,350.0,1.0,,,,,,,,,white,square
0.0,1.0,1.0,0.0,5.0,5.0,516.5311039891094,4.0,0.0,part_2,go,350.0,350.0,1.0,,,,,,,,,orange,hexagon
0.0,4.0,4.0,0.0,5.0,5.0,344.6429030154831,4.0,0.0,part_2,go,350.0,350.0,1.0,,,,,,,,,green,flipped triangle
0.0,8.0,4.0,1.0,6.0,0.0,0.0,4.0,0.0,part_2,stop,350.0,350.0,4.0,,,,,,,,,magenta,diamond
0.0,3.0,3.0,0.0,6.0,6.0,513.5570610291325,4.0,0.0,part_2,go,350.0,400.0,1.0,,,,,,,,,white,square
0.0,6.0,2.0,1.0,5.0,0.0,0.0,4.0,0.0,part_2,stop,350.0,400.0,4.0,,,,,,,,,yellow,triangle
0.0,7.0,3.0,1.0,6.0,6.0,470.0808379566297,4.0,0.0,part_2,stop,400.0,400.0,3.0,,,,,,,,,gray,I
0.0,1.0,1.0,0.0,5.0,5.0,584.3618100043386,4.0,0.0,part_2,go,400.0,350.0,1.0,,,,,,,,,orange,hexagon
0.0,5.0,1.0,1.0,6.0,0.0,0.0,4.0,0.0,part_2,stop,400.0,350.0,4.0,,,,,,,,,blue,circle
0.0,8.0,4.0,1.0,6.0,0.0,0.0,4.0,0.0,part_2,stop,400.0,400.0,4.0,,,,,,,,,magenta,diamond
0.0,8.0,4.0,1.0,6.0,0.0,0.0,4.0,0.0,part_2,stop,400.0,450.0,4.0,,,,,,,,,magenta,diamond
0.0,2.0,2.0,0.0,6.0,6.0,475.0781650072895,4.0,0.0,part_2,go,400.0,500.0,1.0,,,,,,,,,cyan,cross
0.0,1.0,1.0,0.0,6.0,6.0,484.1343300067819,5.0,0.0,part_2,go,400.0,500.0,1.0,,,,,,,,,orange,hexagon
0.0,6.0,2.0,1.0,5.0,5.0,443.3869560016319,5.0,0.0,part_2,stop,400.0,500.0,3.0,,,,,,,,,yellow,triangle
0.0,6.0,2.0,1.0,6.0,6.0,376.958756998647,5.0,0.0,part_2,stop,350.0,500.0,3.0,,,,,,,,,yellow,triangle
0.0,2.0,2.0,0.0,6.0,6.0,526.9778480287641,5.0,0.0,part_2,go,350.0,450.0,1.0,,,,,,,,,cyan,cross
0.0,8.0,4.0,1.0,6.0,6.0,542.2081180149689,5.0,0.0,part_2,stop,350.0,450.0,3.0,,,,,,,,,magenta,diamond
0.0,6.0,2.0,1.0,5.0,5.0,527.4893669993617,5.0,0.0,part_2,go,350.0,400.0,1.0,,,,,,,,,yellow,triangle
0.0,8.0,4.0,1.0,6.0,6.0,558.2746840082109,5.0,0.0,part_2,go,350.0,400.0,1.0,,,,,,,,,magenta,diamond
0.0,2.0,2.0,0.0,6.0,6.0,605.7291380129755,5.0,0.0,part_2,go,350.0,400.0,1.0,,,,,,,,,cyan,cross
0.0,3.0,3.0,0.0,6.0,6.0,283.9879849925637,5.0,0.0,part_2,go,350.0,400.0,1.0,,,,,,,,,white,square
0.0,4.0,4.0,0.0,5.0,5.0,461.5427429671399,5.0,0.0,part_2,go,350.0,400.0,1.0,,,,,,,,,green,flipped triangle
0.0,5.0,1.0,1.0,6.0,6.0,379.9583009677008,5.0,0.0,part_2,go,350.0,400.0,1.0,,,,,,,,,blue,circle
0.0,7.0,3.0,1.0,5.0,5.0,275.5221250117756,5.0,0.0,part_2,stop,350.0,400.0,3.0,,,,,,,,,gray,I
0.0,4.0,4.0,0.0,6.0,6.0,434.4950559898279,5.0,0.0,part_2,go,300.0,400.0,1.0,,,,,,,,,green,flipped triangle
0.0,7.0,3.0,1.0,6.0,6.0,563.5834360145964,5.0,0.0,part_2,stop,300.0,400.0,3.0,,,,,,,,,gray,I
0.0,4.0,4.0,0.0,6.0,6.0,667.9279750096612,5.0,0.0,part_2,go,300.0,350.0,1.0,,,,,,,,,green,flipped triangle
0.0,3.0,3.0,0.0,5.0,5.0,436.8194150156341,5.0,0.0,part_2,go,300.0,350.0,1.0,,,,,,,,,white,square
0.0,6.0,2.0,1.0,6.0,0.0,0.0,5.0,0.0,part_2,stop,300.0,350.0,4.0,,,,,,,,,yellow,triangle
0.0,7.0,3.0,1.0,6.0,0.0,0.0,5.0,0.0,part_2,stop,300.0,400.0,4.0,,,,,,,,,gray,I
0.0,3.0,3.0,0.0,6.0,6.0,482.2020810097456,5.0,0.0,part_2,go,300.0,450.0,1.0,,,,,,,,,white,square
0.0,6.0,2.0,1.0,6.0,6.0,554.3085660319775,5.0,0.0,part_2,go,300.0,450.0,1.0,,,,,,,,,yellow,triangle
0.0,6.0,2.0,1.0,5.0,5.0,264.8445349768735,5.0,0.0,part_2,stop,300.0,450.0,3.0,,,,,,,,,yellow,triangle
0.0,5.0,1.0,1.0,5.0,5.0,341.4617630187422,5.0,0.0,part_2,stop,250.0,450.0,3.0,,,,,,,,,blue,circle
0.0,5.0,1.0,1.0,6.0,6.0,438.3966429741122,5.0,0.0,part_2,go,200.0,450.0,1.0,,,,,,,,,blue,circle
0.0,6.0,2.0,1.0,5.0,0.0,0.0,5.0,0.0,part_2,stop,200.0,450.0,4.0,,,,,,,,,yellow,triangle
0.0,8.0,4.0,1.0,5.0,0.0,0.0,5.0,0.0,part_2,stop,250.0,450.0,4.0,,,,,,,,,magenta,diamond
0.0,7.0,3.0,1.0,5.0,6.0,923.7737420480698,5.0,0.0,part_2,go,300.0,450.0,2.0,,,,,,,,,gray,I
0.0,3.0,3.0,0.0,6.0,6.0,476.3169310172088,5.0,0.0,part_2,go,300.0,450.0,1.0,,,,,,,,,white,square
0.0,3.0,3.0,0.0,5.0,5.0,604.923588980455,5.0,0.0,part_2,go,300.0,450.0,1.0,,,,,,,,,white,square
0.0,4.0,4.0,0.0,5.0,5.0,442.4272950273007,5.0,0.0,part_2,go,300.0,450.0,1.0,,,,,,,,,green,flipped triangle
0.0,6.0,2.0,1.0,5.0,5.0,369.5634969626553,5.0,0.0,part_2,go,300.0,450.0,1.0,,,,,,,,,yellow,triangle
0.0,5.0,1.0,1.0,5.0,0.0,0.0,5.0,0.0,part_2,stop,300.0,450.0,4.0,,,,,,,,,blue,circle
0.0,5.0,1.0,1.0,5.0,0.0,0.0,5.0,0.0,part_2,stop,350.0,450.0,4.0,,,,,,,,,blue,circle
0.0,7.0,3.0,1.0,5.0,5.0,547.3054450121708,5.0,0.0,part_2,stop,400.0,450.0,3.0,,,,,,,,,gray,I
0.0,4.0,4.0,0.0,5.0,5.0,606.7496030009352,5.0,0.0,part_2,go,350.0,450.0,1.0,,,,,,,,,green,flipped triangle
0.0,1.0,1.0,0.0,5.0,5.0,560.3339320514351,5.0,0.0,part_2,go,350.0,450.0,1.0,,,,,,,,,orange,hexagon
0.0,7.0,3.0,1.0,5.0,0.0,0.0,5.0,0.0,part_2,stop,350.0,450.0,4.0,,,,,,,,,gray,I
0.0,2.0,2.0,0.0,5.0,5.0,384.5785079756751,6.0,0.0,part_2,go,400.0,450.0,1.0,,,,,,,,,cyan,cross
0.0,2.0,2.0,0.0,6.0,6.0,399.8912820243276,6.0,0.0,part_2,go,400.0,450.0,1.0,,,,,,,,,cyan,cross
0.0,2.0,2.0,0.0,6.0,6.0,415.1165729854256,6.0,0.0,part_2,go,400.0,450.0,1.0,,,,,,,,,cyan,cross
0.0,3.0,3.0,0.0,5.0,5.0,366.817970003467,6.0,0.0,part_2,go,400.0,450.0,1.0,,,,,,,,,white,square
0.0,8.0,4.0,1.0,6.0,6.0,478.6073259892873,6.0,0.0,part_2,go,400.0,450.0,1.0,,,,,,,,,magenta,diamond
0.0,1.0,1.0,0.0,6.0,6.0,278.3424340304918,6.0,0.0,part_2,go,400.0,450.0,1.0,,,,,,,,,orange,hexagon
0.0,6.0,2.0,1.0,6.0,6.0,303.0657809576951,6.0,0.0,part_2,stop,400.0,450.0,3.0,,,,,,,,,yellow,triangle
0.0,4.0,4.0,0.0,5.0,5.0,360.2102560107596,6.0,0.0,part_2,go,400.0,400.0,1.0,,,,,,,,,green,flipped triangle
0.0,1.0,1.0,0.0,6.0,6.0,277.761981007643,6.0,0.0,part_2,go,400.0,400.0,1.0,,,,,,,,,orange,hexagon
0.0,6.0,2.0,1.0,6.0,6.0,253.31209099385887,6.0,0.0,part_2,stop,400.0,400.0,3.0,,,,,,,,,yellow,triangle
0.0,7.0,3.0,1.0,6.0,0.0,0.0,6.0,0.0,part_2,stop,400.0,350.0,4.0,,,,,,,,,gray,I
0.0,6.0,2.0,1.0,6.0,0.0,0.0,6.0,0.0,part_2,stop,400.0,400.0,4.0,,,,,,,,,yellow,triangle
0.0,2.0,2.0,0.0,5.0,5.0,450.3586459904909,6.0,0.0,part_2,go,400.0,450.0,1.0,,,,,,,,,cyan,cross
0.0,5.0,1.0,1.0,6.0,6.0,410.9010329702869,6.0,0.0,part_2,stop,400.0,450.0,3.0,,,,,,,,,blue,circle
0.0,5.0,1.0,1.0,6.0,0.0,0.0,6.0,0.0,part_2,stop,400.0,400.0,4.0,,,,,,,,,blue,circle
0.0,4.0,4.0,0.0,6.0,6.0,491.3705650251359,6.0,0.0,part_2,go,400.0,450.0,1.0,,,,,,,,,green,flipped triangle
0.0,6.0,2.0,1.0,5.0,5.0,287.8104870324023,6.0,0.0,part_2,stop,400.0,450.0,3.0,,,,,,,,,yellow,triangle
0.0,4.0,4.0,0.0,5.0,5.0,752.847419003956,6.0,0.0,part_2,go,350.0,450.0,1.0,,,,,,,,,green,flipped triangle
0.0,5.0,1.0,1.0,5.0,0.0,0.0,6.0,0.0,part_2,stop,350.0,450.0,4.0,,,,,,,,,blue,circle
0.0,8.0,4.0,1.0,6.0,6.0,545.7074000150897,6.0,0.0,part_2,stop,400.0,450.0,3.0,,,,,,,,,magenta,diamond
0.0,4.0,4.0,0.0,5.0,5.0,589.5604300312698,6.0,0.0,part_2,go,400.0,400.0,1.0,,,,,,,,,green,flipped triangle
0.0,4.0,4.0,0.0,5.0,5.0,535.9998769708909,6.0,0.0,part_2,go,400.0,400.0,1.0,,,,,,,,,green,flipped triangle
0.0,8.0,4.0,1.0,6.0,6.0,444.4752130075358,6.0,0.0,part_2,stop,400.0,400.0,3.0,,,,,,,,,magenta,diamond
0.0,8.0,4.0,1.0,6.0,6.0,493.2065870380029,6.0,0.0,part_2,go,400.0,350.0,1.0,,,,,,,,,magenta,diamond
0.0,3.0,3.0,0.0,6.0,6.0,660.0147939752787,6.0,0.0,part_2,go,400.0,350.0,1.0,,,,,,,,,white,square
0.0,3.0,3.0,0.0,6.0,6.0,414.2338440287858,6.0,0.0,part_2,go,400.0,350.0,1.0,,,,,,,,,white,square
0.0,4.0,4.0,0.0,6.0,6.0,380.324515979737,6.0,0.0,part_2,go,400.0,350.0,1.0,,,,,,,,,green,flipped triangle
0.0,7.0,3.0,1.0,6.0,0.0,0.0,6.0,0.0,part_2,stop,400.0,350.0,4.0,,,,,,,,,gray,I
0.0,1.0,1.0,0.0,5.0,5.0,523.9241570234299,6.0,0.0,part_2,go,400.0,400.0,1.0,,,,,,,,,orange,hexagon
0.0,5.0,1.0,1.0,5.0,5.0,250.71778998244548,6.0,0.0,part_2,go,400.0,400.0,1.0,,,,,,,,,blue,circle
0.0,8.0,4.0,1.0,5.0,5.0,441.9553659972735,6.0,0.0,part_2,stop,400.0,400.0,3.0,,,,,,,,,magenta,diamond
0.0,1.0,1.0,0.0,6.0,6.0,504.1408590041101,6.0,0.0,part_2,go,350.0,400.0,1.0,,,,,,,,,orange,hexagon
0.0,1.0,1.0,0.0,6.0,6.0,520.7974340301007,6.0,0.0,part_2,go,350.0,400.0,1.0,,,,,,,,,orange,hexagon
0.0,4.0,4.0,0.0,6.0,6.0,574.8350330395624,6.0,0.0,part_2,go,350.0,400.0,1.0,,,,,,,,,green,flipped triangle
0.0,6.0,2.0,1.0,6.0,6.0,622.2691049915738,6.0,0.0,part_2,stop,350.0,400.0,3.0,,,,,,,,,yellow,triangle
0.0,4.0,4.0,0.0,5.0,5.0,470.234964042902,6.0,0.0,part_2,go,350.0,350.0,1.0,,,,,,,,,green,flipped triangle
0.0,8.0,4.0,1.0,5.0,5.0,311.8468419997953,7.0,0.0,part_2,stop,350.0,350.0,3.0,,,,,,,,,magenta,diamond
0.0,5.0,1.0,1.0,6.0,6.0,422.9998390073888,7.0,0.0,part_2,stop,300.0,350.0,3.0,,,,,,,,,blue,circle
0.0,6.0,2.0,1.0,5.0,5.0,454.7167749842629,7.0,0.0,part_2,go,300.0,300.0,1.0,,,,,,,,,yellow,triangle
0.0,8.0,4.0,1.0,5.0,5.0,296.1829849518835,7.0,0.0,part_2,stop,300.0,300.0,3.0,,,,,,,,,magenta,diamond
0.0,7.0,3.0,1.0,5.0,0.0,0.0,7.0,0.0,part_2,stop,250.0,300.0,4.0,,,,,,,,,gray,I
0.0,7.0,3.0,1.0,5.0,0.0,0.0,7.0,0.0,part_2,stop,300.0,300.0,4.0,,,,,,,,,gray,I
0.0,1.0,1.0,0.0,5.0,5.0,572.350098984316,7.0,0.0,part_2,go,350.0,300.0,1.0,,,,,,,,,orange,hexagon
0.0,2.0,2.0,0.0,6.0,6.0,244.6915360051207,7.0,0.0,part_2,go,350.0,300.0,1.0,,,,,,,,,cyan,cross
0.0,6.0,2.0,1.0,6.0,6.0,348.7600840162486,7.0,0.0,part_2,stop,350.0,300.0,3.0,,,,,,,,,yellow,triangle
0.0,5.0,1.0,1.0,5.0,5.0,371.9082169700414,7.0,0.0,part_2,stop,350.0,250.0,3.0,,,,,,,,,blue,circle
0.0,6.0,2.0,1.0,6.0,0.0,0.0,7.0,0.0,part_2,stop,300.0,250.0,4.0,,,,,,,,,yellow,triangle
0.0,3.0,3.0,0.0,6.0,6.0,581.0623760335147,7.0,0.0,part_2,go,300.0,300.0,1.0,,,,,,,,,white,square
0.0,2.0,2.0,0.0,6.0,6.0,472.6348199765198,7.0,0.0,part_2,go,300.0,300.0,1.0,,,,,,,,,cyan,cross
0.0,4.0,4.0,0.0,5.0,5.0,512.7248719800264,7.0,0.0,part_2,go,300.0,300.0,1.0,,,,,,,,,green,flipped triangle
0.0,3.0,3.0,0.0,6.0,6.0,447.52601900836447,7.0,0.0,part_2,go,300.0,300.0,1.0,,,,,,,,,white,square
0.0,5.0,1.0,1.0,6.0,0.0,0.0,7.0,0.0,part_2,stop,300.0,300.0,4.0,,,,,,,,,blue,circle
0.0,7.0,3.0,1.0,6.0,6.0,503.1341739813797,7.0,0.0,part_2,stop,300.0,350.0,3.0,,,,,,,,,gray,I
0.0,1.0,1.0,0.0,6.0,6.0,557.8486919985153,7.0,0.0,part_2,go,300.0,300.0,1.0,,,,,,,,,orange,hexagon
0.0,5.0,1.0,1.0,6.0,6.0,1094.916692993138,7.0,0.0,part_2,go,300.0,300.0,1.0,,,,,,,,,blue,circle
0.0,3.0,3.0,0.0,5.0,5.0,278.4453849890269,7.0,0.0,part_2,go,300.0,300.0,1.0,,,,,,,,,white,square
0.0,6.0,2.0,1.0,6.0,6.0,429.9468829995021,7.0,0.0,part_2,stop,300.0,300.0,3.0,,,,,,,,,yellow,triangle
0.0,3.0,3.0,0.0,5.0,5.0,516.6480640182272,7.0,0.0,part_2,go,300.0,250.0,1.0,,,,,,,,,white,square
0.0,3.0,3.0,0.0,5.0,5.0,447.1567419823259,7.0,0.0,part_2,go,300.0,250.0,1.0,,,,,,,,,white,square
0.0,7.0,3.0,1.0,5.0,0.0,0.0,7.0,0.0,part_2,stop,300.0,250.0,4.0,,,,,,,,,gray,I
0.0,4.0,4.0,0.0,5.0,5.0,509.63413499994203,7.0,0.0,part_2,go,350.0,250.0,1.0,,,,,,,,,green,flipped triangle
0.0,3.0,3.0,0.0,5.0,5.0,401.5145630110055,7.0,0.0,part_2,go,350.0,250.0,1.0,,,,,,,,,white,square
0.0,8.0,4.0,1.0,5.0,5.0,257.3118809959851,7.0,0.0,part_2,go,350.0,250.0,1.0,,,,,,,,,magenta,diamond
0.0,6.0,2.0,1.0,5.0,5.0,250.50218997057527,7.0,0.0,part_2,go,350.0,250.0,1.0,,,,,,,,,yellow,triangle
0.0,6.0,2.0,1.0,6.0,6.0,249.1169760469347,7.0,0.0,part_2,go,350.0,250.0,1.0,,,,,,,,,yellow,triangle
0.0,3.0,3.0,0.0,6.0,6.0,302.8472010046243,7.0,0.0,part_2,go,350.0,250.0,1.0,,,,,,,,,white,square
0.0,1.0,1.0,0.0,5.0,5.0,449.3296729633584,7.0,0.0,part_2,go,350.0,250.0,1.0,,,,,,,,,orange,hexagon
0.0,8.0,4.0,1.0,6.0,6.0,290.0723600178025,7.0,0.0,part_2,stop,350.0,250.0,3.0,,,,,,,,,magenta,diamond
0.0,3.0,3.0,0.0,5.0,5.0,421.697853016667,7.0,0.0,part_2,go,350.0,200.0,1.0,,,,,,,,,white,square
0.0,2.0,2.0,0.0,5.0,5.0,445.9296989953145,7.0,0.0,part_2,go,350.0,200.0,1.0,,,,,,,,,cyan,cross
0.0,8.0,4.0,1.0,6.0,0.0,0.0,7.0,0.0,part_2,stop,350.0,200.0,4.0,,,,,,,,,magenta,diamond
0.0,5.0,1.0,1.0,6.0,0.0,0.0,7.0,0.0,part_2,stop,350.0,250.0,4.0,,,,,,,,,blue,circle
0.0,2.0,2.0,0.0,5.0,5.0,393.9363190438598,8.0,0.0,part_2,go,350.0,300.0,1.0,,,,,,,,,cyan,cross
0.0,7.0,3.0,1.0,5.0,5.0,386.7713029612787,8.0,0.0,part_2,stop,350.0,300.0,3.0,,,,,,,,,gray,I
0.0,7.0,3.0,1.0,6.0,0.0,0.0,8.0,0.0,part_2,stop,300.0,300.0,4.0,,,,,,,,,gray,I
0.0,2.0,2.0,0.0,6.0,6.0,558.8953779661097,8.0,0.0,part_2,go,300.0,350.0,1.0,,,,,,,,,cyan,cross
0.0,5.0,1.0,1.0,5.0,0.0,0.0,8.0,0.0,part_2,stop,300.0,350.0,4.0,,,,,,,,,blue,circle
0.0,2.0,2.0,0.0,6.0,6.0,444.7190299979411,8.0,0.0,part_2,go,350.0,350.0,1.0,,,,,,,,,cyan,cross
0.0,3.0,3.0,0.0,5.0,5.0,403.6575159989297,8.0,0.0,part_2,go,350.0,350.0,1.0,,,,,,,,,white,square
0.0,5.0,1.0,1.0,5.0,5.0,731.8994459928945,8.0,0.0,part_2,go,350.0,350.0,1.0,,,,,,,,,blue,circle
0.0,1.0,1.0,0.0,6.0,6.0,324.9859400093555,8.0,0.0,part_2,go,350.0,350.0,1.0,,,,,,,,,orange,hexagon
0.0,7.0,3.0,1.0,6.0,6.0,514.0495779924095,8.0,0.0,part_2,stop,350.0,350.0,3.0,,,,,,,,,gray,I
0.0,4.0,4.0,0.0,6.0,6.0,587.8433239995502,8.0,0.0,part_2,go,350.0,300.0,1.0,,,,,,,,,green,flipped triangle
0.0,6.0,2.0,1.0,6.0,0.0,0.0,8.0,0.0,part_2,stop,350.0,300.0,4.0,,,,,,,,,yellow,triangle
0.0,4.0,4.0,0.0,5.0,5.0,460.0855099852197,8.0,0.0,part_2,go,350.0,350.0,1.0,,,,,,,,,green,flipped triangle
0.0,3.0,3.0,0.0,5.0,5.0,947.0506840152666,8.0,0.0,part_2,go,350.0,350.0,1.0,,,,,,,,,white,square
0.0,6.0,2.0,1.0,5.0,5.0,381.3775950111449,8.0,0.0,part_2,stop,350.0,350.0,3.0,,,,,,,,,yellow,triangle
0.0,1.0,1.0,0.0,5.0,5.0,528.6424779915251,8.0,0.0,part_2,go,300.0,350.0,1.0,,,,,,,,,orange,hexagon
0.0,4.0,4.0,0.0,6.0,6.0,337.2082039713859,8.0,0.0,part_2,go,300.0,350.0,1.0,,,,,,,,,green,flipped triangle
0.0,5.0,1.0,1.0,5.0,5.0,197.8916589869186,8.0,0.0,part_2,stop,300.0,350.0,3.0,,,,,,,,,blue,circle
0.0,3.0,3.0,0.0,6.0,6.0,436.9884679908864,8.0,0.0,part_2,go,250.0,350.0,1.0,,,,,,,,,white,square
0.0,3.0,3.0,0.0,5.0,5.0,271.2568989954889,8.0,0.0,part_2,go,250.0,350.0,1.0,,,,,,,,,white,square
0.0,5.0,1.0,1.0,5.0,5.0,324.3726539658382,8.0,0.0,part_2,go,250.0,350.0,1.0,,,,,,,,,blue,circle
0.0,6.0,2.0,1.0,6.0,6.0,243.4311260003596,8.0,0.0,part_2,stop,250.0,350.0,3.0,,,,,,,,,yellow,triangle
0.0,8.0,4.0,1.0,6.0,0.0,0.0,8.0,0.0,part_2,stop,250.0,300.0,4.0,,,,,,,,,magenta,diamond
0.0,8.0,4.0,1.0,5.0,5.0,275.4048479837365,8.0,0.0,part_2,stop,250.0,350.0,3.0,,,,,,,,,magenta,diamond
0.0,1.0,1.0,0.0,5.0,5.0,218.0076689692214,8.0,0.0,part_2,go,200.0,350.0,1.0,,,,,,,,,orange,hexagon
0.0,3.0,3.0,0.0,6.0,6.0,405.4877120070159,8.0,0.0,part_2,go,200.0,350.0,1.0,,,,,,,,,white,square
0.0,7.0,3.0,1.0,6.0,6.0,296.4677009731531,8.0,0.0,part_2,go,200.0,350.0,1.0,,,,,,,,,gray,I
0.0,6.0,2.0,1.0,6.0,6.0,299.5588560006581,8.0,0.0,part_2,stop,200.0,350.0,3.0,,,,,,,,,yellow,triangle
0.0,1.0,1.0,0.0,6.0,6.0,504.50241297949106,8.0,0.0,part_2,go,200.0,300.0,1.0,,,,,,,,,orange,hexagon
0.0,2.0,2.0,0.0,5.0,5.0,351.2399360188283,8.0,0.0,part_2,go,200.0,300.0,1.0,,,,,,,,,cyan,cross
0.0,1.0,1.0,0.0,6.0,6.0,336.5609989850782,8.0,0.0,part_2,go,200.0,300.0,1.0,,,,,,,,,orange,hexagon
0.0,8.0,4.0,1.0,5.0,5.0,265.7029459951445,8.0,0.0,part_2,go,200.0,300.0,1.0,,,,,,,,,magenta,diamond
0.0,6.0,2.0,1.0,6.0,6.0,262.9932719864882,8.0,0.0,part_2,stop,200.0,300.0,3.0,,,,,,,,,yellow,triangle
0.0,4.0,4.0,0.0,5.0,5.0,406.5705349785276,8.0,0.0,part_2,go,200.0,250.0,1.0,,,,,,,,,green,flipped triangle
0.0,8.0,4.0,1.0,5.0,0.0,0.0,8.0,0.0,part_2,stop,200.0,250.0,4.0,,,,,,,,,magenta,diamond
0.0,2.0,2.0,0.0,6.0,6.0,415.4601379996165,8.0,0.0,part_2,go,250.0,250.0,1.0,,,,,,,,,cyan,cross
0.0,7.0,3.0,1.0,7.0,4.0,2139.00173399999,1.0,1.0,part_3,go,0.0,0.0,0.0,176.0,4.0,220.0,44.0,88.0,176.0,132.0,264.0,gray,I
0.0,4.0,4.0,0.0,7.0,1.0,1056.876127999999,1.0,1.0,part_3,go,0.0,0.0,0.0,220.0,5.0,220.0,132.0,88.0,264.0,44.0,176.0,green,flipped triangle
0.0,4.0,4.0,0.0,7.0,6.0,512.5486860000024,1.0,1.0,part_3,go,0.0,0.0,0.0,39.0,1.0,156.0,234.0,195.0,117.0,78.0,39.0,green,flipped triangle
0.0,5.0,1.0,1.0,7.0,5.0,993.7482469999992,1.0,1.0,part_3,go,0.0,0.0,0.0,44.0,1.0,264.0,176.0,220.0,88.0,44.0,132.0,blue,circle
0.0,3.0,3.0,0.0,7.0,2.0,1037.3108849999967,1.0,1.0,part_3,go,0.0,0.0,0.0,204.0,6.0,170.0,204.0,68.0,34.0,136.0,102.0,white,square
0.0,4.0,4.0,0.0,7.0,5.0,846.5417390000027,1.0,1.0,part_3,go,0.0,0.0,0.0,245.0,5.0,294.0,98.0,49.0,147.0,245.0,196.0,green,flipped triangle
0.0,2.0,2.0,0.0,7.0,2.0,920.9096840000086,1.0,1.0,part_3,go,0.0,0.0,0.0,34.0,1.0,136.0,34.0,102.0,170.0,204.0,68.0,cyan,cross
0.0,4.0,4.0,0.0,7.0,6.0,952.459957000002,1.0,1.0,part_3,go,0.0,0.0,0.0,264.0,6.0,220.0,176.0,88.0,132.0,44.0,264.0,green,flipped triangle
0.0,8.0,4.0,1.0,7.0,2.0,801.6438859999937,1.0,1.0,part_3,go,0.0,0.0,0.0,204.0,6.0,68.0,204.0,170.0,102.0,34.0,136.0,magenta,diamond
0.0,3.0,3.0,0.0,7.0,3.0,1260.2216429999942,1.0,1.0,part_3,go,0.0,0.0,0.0,34.0,1.0,204.0,136.0,34.0,102.0,68.0,170.0,white,square
0.0,8.0,4.0,1.0,7.0,1.0,2764.9110540000092,1.0,1.0,part_3,go,0.0,0.0,0.0,270.0,5.0,270.0,216.0,108.0,54.0,162.0,324.0,magenta,diamond
0.0,8.0,4.0,1.0,7.0,1.0,1301.3837880000096,1.0,1.0,part_3,go,0.0,0.0,0.0,204.0,6.0,204.0,34.0,136.0,102.0,68.0,170.0,magenta,diamond
0.0,7.0,3.0,1.0,7.0,4.0,1503.555127999988,1.0,1.0,part_3,go,0.0,0.0,0.0,117.0,3.0,39.0,195.0,234.0,117.0,156.0,78.0,gray,I
0.0,5.0,1.0,1.0,7.0,3.0,1656.4842180000028,1.0,1.0,part_3,go,0.0,0.0,0.0,78.0,2.0,117.0,156.0,78.0,195.0,39.0,234.0,blue,circle
0.0,1.0,1.0,0.0,7.0,3.0,2192.5593320000016,1.0,1.0,part_3,go,0.0,0.0,0.0,156.0,4.0,78.0,117.0,156.0,234.0,39.0,195.0,orange,hexagon
0.0,8.0,4.0,1.0,7.0,1.0,1393.3123260000002,1.0,1.0,part_3,go,0.0,0.0,0.0,264.0,6.0,264.0,176.0,220.0,44.0,88.0,132.0,magenta,diamond
0.0,6.0,2.0,1.0,7.0,6.0,747.4707270000067,1.0,1.0,part_3,go,0.0,0.0,0.0,176.0,4.0,88.0,220.0,44.0,132.0,264.0,176.0,yellow,triangle
0.0,5.0,1.0,1.0,7.0,5.0,700.3900519999888,1.0,1.0,part_3,go,0.0,0.0,0.0,216.0,4.0,108.0,162.0,54.0,270.0,216.0,324.0,blue,circle
0.0,1.0,1.0,0.0,7.0,3.0,1056.5489169999864,1.0,1.0,part_3,go,0.0,0.0,0.0,204.0,6.0,136.0,68.0,204.0,34.0,102.0,170.0,orange,hexagon
0.0,4.0,4.0,0.0,7.0,2.0,1343.0779229999814,1.0,1.0,part_3,go,0.0,0.0,0.0,196.0,4.0,98.0,196.0,245.0,147.0,49.0,294.0,green,flipped triangle
0.0,8.0,4.0,1.0,7.0,5.0,323.7037609999902,2.0,1.0,part_3,go,0.0,0.0,0.0,98.0,2.0,245.0,49.0,196.0,294.0,98.0,147.0,magenta,diamond
0.0,4.0,4.0,0.0,7.0,6.0,650.5581300000074,2.0,1.0,part_3,go,0.0,0.0,0.0,136.0,4.0,68.0,204.0,34.0,170.0,102.0,136.0,green,flipped triangle
0.0,2.0,2.0,0.0,7.0,1.0,539.2648090000023,2.0,1.0,part_3,go,0.0,0.0,0.0,220.0,5.0,220.0,264.0,44.0,176.0,88.0,132.0,cyan,cross
0.0,2.0,2.0,0.0,7.0,2.0,807.231886000011,2.0,1.0,part_3,go,0.0,0.0,0.0,234.0,6.0,195.0,234.0,117.0,78.0,156.0,39.0,cyan,cross
0.0,2.0,2.0,0.0,7.0,5.0,487.0965730000023,2.0,1.0,part_3,go,0.0,0.0,0.0,108.0,2.0,324.0,216.0,54.0,162.0,108.0,270.0,cyan,cross
0.0,2.0,2.0,0.0,7.0,6.0,706.2600389999716,2.0,1.0,part_3,go,0.0,0.0,0.0,49.0,1.0,98.0,147.0,294.0,245.0,196.0,49.0,cyan,cross
0.0,6.0,2.0,1.0,7.0,2.0,1154.65112199999,2.0,1.0,part_3,go,0.0,0.0,0.0,216.0,4.0,54.0,216.0,162.0,270.0,108.0,324.0,yellow,triangle
0.0,4.0,4.0,0.0,7.0,5.0,802.7836020000336,2.0,1.0,part_3,go,0.0,0.0,0.0,156.0,4.0,39.0,195.0,117.0,234.0,156.0,78.0,green,flipped triangle
0.0,2.0,2.0,0.0,7.0,4.0,579.8530160000155,2.0,1.0,part_3,go,0.0,0.0,0.0,108.0,2.0,54.0,270.0,162.0,108.0,324.0,216.0,cyan,cross
0.0,1.0,1.0,0.0,7.0,6.0,637.1791930000086,2.0,1.0,part_3,go,0.0,0.0,0.0,39.0,1.0,117.0,234.0,78.0,156.0,195.0,39.0,orange,hexagon
0.0,1.0,1.0,0.0,7.0,2.0,697.8061570000023,2.0,1.0,part_3,go,0.0,0.0,0.0,98.0,2.0,196.0,98.0,245.0,294.0,49.0,147.0,orange,hexagon
0.0,1.0,1.0,0.0,7.0,1.0,457.9477359999941,2.0,1.0,part_3,go,0.0,0.0,0.0,147.0,3.0,147.0,196.0,49.0,294.0,245.0,98.0,orange,hexagon
0.0,6.0,2.0,1.0,7.0,6.0,449.9209859999951,2.0,1.0,part_3,go,0.0,0.0,0.0,234.0,6.0,195.0,117.0,156.0,39.0,78.0,234.0,yellow,triangle
0.0,3.0,3.0,0.0,7.0,6.0,2138.5690719999957,2.0,1.0,part_3,go,0.0,0.0,0.0,176.0,4.0,220.0,44.0,132.0,264.0,88.0,176.0,white,square
0.0,7.0,3.0,1.0,7.0,5.0,695.7784040000092,2.0,1.0,part_3,go,0.0,0.0,0.0,324.0,6.0,108.0,216.0,54.0,270.0,324.0,162.0,gray,I
0.0,7.0,3.0,1.0,7.0,5.0,1113.2482250000066,2.0,1.0,part_3,go,0.0,0.0,0.0,220.0,5.0,44.0,264.0,88.0,132.0,220.0,176.0,gray,I
0.0,2.0,2.0,0.0,7.0,2.0,872.2800969999867,2.0,1.0,part_3,go,0.0,0.0,0.0,147.0,3.0,98.0,147.0,196.0,245.0,49.0,294.0,cyan,cross
0.0,4.0,4.0,0.0,7.0,4.0,1121.1197459999769,2.0,1.0,part_3,go,0.0,0.0,0.0,108.0,2.0,270.0,54.0,162.0,108.0,324.0,216.0,green,flipped triangle
0.0,7.0,3.0,1.0,7.0,1.0,954.3018949999578,2.0,1.0,part_3,go,0.0,0.0,0.0,68.0,2.0,68.0,170.0,34.0,136.0,204.0,102.0,gray,I
0.0,6.0,2.0,1.0,7.0,5.0,1053.418269000019,2.0,1.0,part_3,go,0.0,0.0,0.0,294.0,6.0,245.0,147.0,196.0,49.0,294.0,98.0,yellow,triangle
0.0,5.0,1.0,1.0,7.0,1.0,939.4697689999704,3.0,1.0,part_3,go,0.0,0.0,0.0,49.0,1.0,49.0,98.0,196.0,245.0,294.0,147.0,blue,circle
0.0,5.0,1.0,1.0,7.0,3.0,1389.8185350000176,3.0,1.0,part_3,go,0.0,0.0,0.0,49.0,1.0,98.0,147.0,49.0,294.0,196.0,245.0,blue,circle
0.0,2.0,2.0,0.0,7.0,4.0,1046.1704060000443,3.0,1.0,part_3,go,0.0,0.0,0.0,170.0,5.0,34.0,136.0,102.0,170.0,204.0,68.0,cyan,cross
0.0,1.0,1.0,0.0,7.0,3.0,690.7917380000299,3.0,1.0,part_3,go,0.0,0.0,0.0,264.0,6.0,132.0,220.0,264.0,88.0,44.0,176.0,orange,hexagon
0.0,8.0,4.0,1.0,7.0,2.0,1370.828285000016,3.0,1.0,part_3,go,0.0,0.0,0.0,195.0,5.0,117.0,195.0,78.0,39.0,234.0,156.0,magenta,diamond
0.0,6.0,2.0,1.0,7.0,4.0,866.4953630000127,3.0,1.0,part_3,go,0.0,0.0,0.0,102.0,3.0,170.0,34.0,136.0,102.0,68.0,204.0,yellow,triangle
0.0,3.0,3.0,0.0,7.0,6.0,468.3902559999637,3.0,1.0,part_3,go,0.0,0.0,0.0,156.0,4.0,234.0,117.0,195.0,39.0,78.0,156.0,white,square
0.0,6.0,2.0,1.0,7.0,5.0,453.2122680000157,3.0,1.0,part_3,go,0.0,0.0,0.0,162.0,3.0,270.0,324.0,54.0,108.0,162.0,216.0,yellow,triangle
0.0,3.0,3.0,0.0,7.0,2.0,542.6903310000171,3.0,1.0,part_3,go,0.0,0.0,0.0,78.0,2.0,39.0,78.0,117.0,156.0,195.0,234.0,white,square
0.0,5.0,1.0,1.0,7.0,4.0,257.6296189999993,3.0,1.0,part_3,go,0.0,0.0,0.0,88.0,2.0,44.0,220.0,264.0,88.0,132.0,176.0,blue,circle
0.0,7.0,3.0,1.0,7.0,6.0,315.1219149999633,3.0,1.0,part_3,go,0.0,0.0,0.0,216.0,4.0,270.0,108.0,324.0,54.0,162.0,216.0,gray,I
0.0,2.0,2.0,0.0,7.0,2.0,1883.4348600000224,3.0,1.0,part_3,go,0.0,0.0,0.0,156.0,4.0,39.0,156.0,117.0,234.0,195.0,78.0,cyan,cross
0.0,8.0,4.0,1.0,7.0,5.0,1357.958216999975,3.0,1.0,part_3,go,0.0,0.0,0.0,196.0,4.0,147.0,49.0,245.0,98.0,196.0,294.0,magenta,diamond
0.0,5.0,1.0,1.0,7.0,4.0,437.5629840000101,3.0,1.0,part_3,go,0.0,0.0,0.0,78.0,2.0,39.0,117.0,156.0,78.0,195.0,234.0,blue,circle
0.0,1.0,1.0,0.0,7.0,6.0,978.8517539999476,3.0,1.0,part_3,go,0.0,0.0,0.0,270.0,5.0,324.0,162.0,54.0,108.0,216.0,270.0,orange,hexagon
0.0,7.0,3.0,1.0,7.0,2.0,292.1776850000128,3.0,1.0,part_3,go,0.0,0.0,0.0,147.0,3.0,98.0,147.0,49.0,294.0,196.0,245.0,gray,I
0.0,4.0,4.0,0.0,7.0,3.0,947.6172950000432,3.0,1.0,part_3,go,0.0,0.0,0.0,270.0,5.0,54.0,108.0,270.0,324.0,162.0,216.0,green,flipped triangle
0.0,1.0,1.0,0.0,7.0,5.0,797.4915930000179,3.0,1.0,part_3,go,0.0,0.0,0.0,102.0,3.0,170.0,136.0,34.0,204.0,102.0,68.0,orange,hexagon
0.0,5.0,1.0,1.0,7.0,1.0,605.3092619999916,3.0,1.0,part_3,go,0.0,0.0,0.0,324.0,6.0,324.0,162.0,216.0,108.0,54.0,270.0,blue,circle
0.0,7.0,3.0,1.0,7.0,2.0,1757.9772779999985,3.0,1.0,part_3,go,0.0,0.0,0.0,102.0,3.0,34.0,102.0,204.0,170.0,68.0,136.0,gray,I
0.0,8.0,4.0,1.0,7.0,5.0,952.7026569999748,4.0,1.0,part_3,go,0.0,0.0,0.0,132.0,3.0,44.0,264.0,88.0,220.0,132.0,176.0,magenta,diamond
0.0,4.0,4.0,0.0,7.0,3.0,586.3202520000073,4.0,1.0,part_3,go,0.0,0.0,0.0,136.0,4.0,102.0,34.0,136.0,68.0,204.0,170.0,green,flipped triangle
0.0,3.0,3.0,0.0,7.0,1.0,563.9825999999744,4.0,1.0,part_3,go,0.0,0.0,0.0,245.0,5.0,245.0,49.0,294.0,147.0,196.0,98.0,white,square
0.0,6.0,2.0,1.0,7.0,3.0,443.377020000014,4.0,1.0,part_3,go,0.0,0.0,0.0,49.0,1.0,147.0,196.0,49.0,245.0,98.0,294.0,yellow,triangle
0.0,5.0,1.0,1.0,7.0,3.0,892.8683740000452,4.0,1.0,part_3,go,0.0,0.0,0.0,34.0,1.0,68.0,136.0,34.0,170.0,204.0,102.0,blue,circle
0.0,3.0,3.0,0.0,7.0,2.0,856.8841559999782,4.0,1.0,part_3,go,0.0,0.0,0.0,216.0,4.0,54.0,216.0,108.0,324.0,270.0,162.0,white,square
0.0,8.0,4.0,1.0,7.0,5.0,1145.9856960000252,4.0,1.0,part_3,go,0.0,0.0,0.0,324.0,6.0,270.0,216.0,54.0,108.0,324.0,162.0,magenta,diamond
0.0,3.0,3.0,0.0,7.0,3.0,1104.477997999993,4.0,1.0,part_3,go,0.0,0.0,0.0,294.0,6.0,147.0,196.0,294.0,245.0,49.0,98.0,white,square
0.0,1.0,1.0,0.0,7.0,5.0,709.050935999926,4.0,1.0,part_3,go,0.0,0.0,0.0,176.0,4.0,264.0,220.0,88.0,44.0,176.0,132.0,orange,hexagon
0.0,7.0,3.0,1.0,7.0,1.0,405.5345780000152,4.0,1.0,part_3,go,0.0,0.0,0.0,78.0,2.0,78.0,156.0,117.0,234.0,195.0,39.0,gray,I
0.0,5.0,1.0,1.0,7.0,5.0,661.7781179999156,4.0,1.0,part_3,go,0.0,0.0,0.0,68.0,2.0,102.0,170.0,136.0,204.0,68.0,34.0,blue,circle
0.0,2.0,2.0,0.0,7.0,4.0,527.5774970000384,4.0,1.0,part_3,go,0.0,0.0,0.0,132.0,3.0,44.0,88.0,220.0,132.0,264.0,176.0,cyan,cross
0.0,7.0,3.0,1.0,7.0,2.0,841.0707250000087,4.0,1.0,part_3,go,0.0,0.0,0.0,196.0,4.0,294.0,196.0,245.0,98.0,49.0,147.0,gray,I
0.0,3.0,3.0,0.0,7.0,6.0,1017.8263819999529,4.0,1.0,part_3,go,0.0,0.0,0.0,176.0,4.0,88.0,132.0,264.0,44.0,220.0,176.0,white,square
0.0,1.0,1.0,0.0,7.0,1.0,1229.0523460000031,4.0,1.0,part_3,go,0.0,0.0,0.0,54.0,1.0,54.0,216.0,270.0,324.0,108.0,162.0,orange,hexagon
0.0,6.0,2.0,1.0,7.0,3.0,942.6199389999964,4.0,1.0,part_3,go,0.0,0.0,0.0,44.0,1.0,176.0,88.0,44.0,264.0,220.0,132.0,yellow,triangle
0.0,8.0,4.0,1.0,7.0,2.0,341.597911000008,4.0,1.0,part_3,go,0.0,0.0,0.0,39.0,1.0,156.0,39.0,78.0,195.0,117.0,234.0,magenta,diamond
0.0,6.0,2.0,1.0,7.0,4.0,1062.843863000012,4.0,1.0,part_3,go,0.0,0.0,0.0,170.0,5.0,68.0,102.0,204.0,170.0,34.0,136.0,yellow,triangle
0.0,6.0,2.0,1.0,7.0,6.0,1033.822043999976,4.0,1.0,part_3,go,0.0,0.0,0.0,234.0,6.0,195.0,78.0,39.0,156.0,117.0,234.0,yellow,triangle
0.0,3.0,3.0,0.0,7.0,2.0,1097.3005849999709,4.0,1.0,part_3,go,0.0,0.0,0.0,324.0,6.0,270.0,324.0,216.0,162.0,54.0,108.0,white,square
