raw_reward_magnitude,stim_reward,stepwise_reward_magnitude,paired_with_stopping,quadrant,response,reaction_time,block,num_trial_presentations,which_part,stop_signal_trial_type,left_SSD,right_SSD,accuracy,chosen_bidding_amount,chosen_bidding_level,possible_bid_1,possible_bid_2,possible_bid_3,possible_bid_4,possible_bid_5,possible_bid_6,color_text,shape_text
0.0,6.0,0.0,1.0,2.0,2.0,393.5886300168931,1.0,1.0,part_1,,,,,,,,,,,,,magenta,I
107.0,6.0,2.0,1.0,4.0,4.0,431.5209859923925,1.0,1.0,part_1,,,,,,,,,,,,,magenta,I
177.0,3.0,3.0,0.0,2.0,2.0,553.2557459955569,1.0,3.0,part_1,,,,,,,,,,,,,gray,hexagon
224.0,7.0,3.0,1.0,4.0,4.0,385.6890309834853,1.0,1.0,part_1,,,,,,,,,,,,,cyan,triangle
105.0,2.0,2.0,0.0,1.0,1.0,366.57589999958867,1.0,1.0,part_1,,,,,,,,,,,,,yellow,cross
34.0,1.0,1.0,0.0,3.0,3.0,288.1675339885987,1.0,1.0,part_1,,,,,,,,,,,,,orange,flipped triangle
415.0,8.0,4.0,1.0,3.0,3.0,391.0692160134204,1.0,1.0,part_1,,,,,,,,,,,,,blue,diamond
202.0,3.0,3.0,0.0,1.0,1.0,345.3724709979724,1.0,2.0,part_1,,,,,,,,,,,,,gray,hexagon
61.0,5.0,1.0,1.0,2.0,2.0,288.4368610102683,1.0,1.0,part_1,,,,,,,,,,,,,white,square
381.0,4.0,4.0,0.0,3.0,3.0,371.1537070048507,1.0,1.0,part_1,,,,,,,,,,,,,green,circle
184.0,7.0,3.0,1.0,2.0,2.0,359.9450289912056,1.0,1.0,part_1,,,,,,,,,,,,,cyan,triangle
60.0,1.0,1.0,0.0,4.0,4.0,457.9725330113433,1.0,1.0,part_1,,,,,,,,,,,,,orange,flipped triangle
415.0,4.0,4.0,0.0,1.0,1.0,315.5278760241344,1.0,1.0,part_1,,,,,,,,,,,,,green,circle
81.0,2.0,2.0,0.0,2.0,2.0,259.661257994594,1.0,1.0,part_1,,,,,,,,,,,,,yellow,cross
201.0,7.0,3.0,1.0,4.0,4.0,383.6298009846359,1.0,1.0,part_1,,,,,,,,,,,,,cyan,triangle
0.0,7.0,0.0,1.0,2.0,2.0,351.6043330018874,1.0,1.0,part_1,,,,,,,,,,,,,cyan,triangle
397.0,4.0,4.0,0.0,4.0,4.0,418.1984720053151,1.0,1.0,part_1,,,,,,,,,,,,,green,circle
220.0,7.0,3.0,1.0,2.0,2.0,394.7746549965814,1.0,1.0,part_1,,,,,,,,,,,,,cyan,triangle
61.0,1.0,1.0,0.0,2.0,2.0,338.4671559906564,1.0,1.0,part_1,,,,,,,,,,,,,orange,flipped triangle
0.0,5.0,0.0,1.0,3.0,3.0,396.1463469895534,1.0,1.0,part_1,,,,,,,,,,,,,white,square
205.0,7.0,3.0,1.0,3.0,3.0,407.9574680072255,1.0,1.0,part_1,,,,,,,,,,,,,cyan,triangle
376.0,8.0,4.0,1.0,4.0,4.0,352.8734040155541,1.0,1.0,part_1,,,,,,,,,,,,,blue,diamond
0.0,1.0,0.0,0.0,3.0,3.0,364.7779230086598,1.0,1.0,part_1,,,,,,,,,,,,,orange,flipped triangle
418.0,8.0,4.0,1.0,2.0,2.0,329.5316459843889,1.0,1.0,part_1,,,,,,,,,,,,,blue,diamond
85.0,2.0,2.0,0.0,4.0,4.0,413.3333719801157,1.0,1.0,part_1,,,,,,,,,,,,,yellow,cross
0.0,1.0,0.0,0.0,4.0,4.0,333.0190000124275,1.0,1.0,part_1,,,,,,,,,,,,,orange,flipped triangle
81.0,6.0,2.0,1.0,1.0,1.0,365.0825929944403,1.0,1.0,part_1,,,,,,,,,,,,,magenta,I
202.0,7.0,3.0,1.0,2.0,2.0,252.8182639798615,1.0,1.0,part_1,,,,,,,,,,,,,cyan,triangle
181.0,7.0,3.0,1.0,3.0,3.0,265.9002400177996,1.0,1.0,part_1,,,,,,,,,,,,,cyan,triangle
193.0,3.0,3.0,0.0,2.0,2.0,347.3127259931061,1.0,1.0,part_1,,,,,,,,,,,,,gray,hexagon
36.0,1.0,1.0,0.0,3.0,3.0,473.0028699850663,1.0,1.0,part_1,,,,,,,,,,,,,orange,flipped triangle
407.0,8.0,4.0,1.0,2.0,2.0,403.7838609947357,1.0,1.0,part_1,,,,,,,,,,,,,blue,diamond
26.0,1.0,1.0,0.0,2.0,2.0,369.3923139944672,1.0,1.0,part_1,,,,,,,,,,,,,orange,flipped triangle
116.0,6.0,2.0,1.0,2.0,2.0,359.9892810161691,1.0,1.0,part_1,,,,,,,,,,,,,magenta,I
78.0,6.0,2.0,1.0,1.0,1.0,371.1027700046543,1.0,1.0,part_1,,,,,,,,,,,,,magenta,I
176.0,7.0,3.0,1.0,4.0,4.0,270.8837300015148,1.0,1.0,part_1,,,,,,,,,,,,,cyan,triangle
179.0,7.0,3.0,1.0,1.0,1.0,371.1235819791909,1.0,1.0,part_1,,,,,,,,,,,,,cyan,triangle
418.0,4.0,4.0,0.0,3.0,3.0,409.0909670048859,1.0,1.0,part_1,,,,,,,,,,,,,green,circle
67.0,1.0,1.0,0.0,1.0,1.0,339.3868779821787,1.0,2.0,part_1,,,,,,,,,,,,,orange,flipped triangle
0.0,7.0,0.0,1.0,2.0,2.0,305.755023000529,1.0,1.0,part_1,,,,,,,,,,,,,cyan,triangle
0.0,3.0,0.0,0.0,4.0,4.0,452.4996800173539,1.0,1.0,part_1,,,,,,,,,,,,,gray,hexagon
0.0,3.0,0.0,0.0,3.0,3.0,431.0268620029092,1.0,1.0,part_1,,,,,,,,,,,,,gray,hexagon
26.0,1.0,1.0,0.0,2.0,2.0,288.2585299958009,1.0,1.0,part_1,,,,,,,,,,,,,orange,flipped triangle
190.0,3.0,3.0,0.0,2.0,2.0,319.5334720076062,1.0,1.0,part_1,,,,,,,,,,,,,gray,hexagon
121.0,2.0,2.0,0.0,1.0,1.0,331.9860830088146,1.0,1.0,part_1,,,,,,,,,,,,,yellow,cross
397.0,8.0,4.0,1.0,3.0,3.0,400.6841680093203,1.0,1.0,part_1,,,,,,,,,,,,,blue,diamond
43.0,1.0,1.0,0.0,2.0,2.0,387.7708110085223,1.0,1.0,part_1,,,,,,,,,,,,,orange,flipped triangle
397.0,4.0,4.0,0.0,1.0,1.0,312.0675619866233,1.0,1.0,part_1,,,,,,,,,,,,,green,circle
0.0,3.0,0.0,0.0,4.0,4.0,392.2211319732014,1.0,1.0,part_1,,,,,,,,,,,,,gray,hexagon
176.0,7.0,3.0,1.0,2.0,2.0,400.8427379885688,1.0,1.0,part_1,,,,,,,,,,,,,cyan,triangle
35.0,1.0,1.0,0.0,1.0,1.0,348.9563799812458,1.0,1.0,part_1,,,,,,,,,,,,,orange,flipped triangle
75.0,6.0,2.0,1.0,4.0,4.0,405.169350997312,1.0,1.0,part_1,,,,,,,,,,,,,magenta,I
85.0,6.0,2.0,1.0,1.0,1.0,482.5556069845333,1.0,1.0,part_1,,,,,,,,,,,,,magenta,I
111.0,2.0,2.0,0.0,4.0,4.0,427.9701710038353,1.0,1.0,part_1,,,,,,,,,,,,,yellow,cross
98.0,6.0,2.0,1.0,2.0,2.0,369.9437099858187,1.0,1.0,part_1,,,,,,,,,,,,,magenta,I
205.0,3.0,3.0,0.0,3.0,3.0,449.25857000635,1.0,1.0,part_1,,,,,,,,,,,,,gray,hexagon
403.0,4.0,4.0,0.0,3.0,3.0,574.1965810011607,1.0,1.0,part_1,,,,,,,,,,,,,green,circle
0.0,8.0,0.0,1.0,1.0,1.0,499.5184669969603,1.0,1.0,part_1,,,,,,,,,,,,,blue,diamond
64.0,1.0,1.0,0.0,4.0,4.0,463.4403050004039,1.0,1.0,part_1,,,,,,,,,,,,,orange,flipped triangle
190.0,7.0,3.0,1.0,1.0,1.0,566.3028240087442,1.0,1.0,part_1,,,,,,,,,,,,,cyan,triangle
407.0,4.0,4.0,0.0,4.0,4.0,397.0171109831426,1.0,1.0,part_1,,,,,,,,,,,,,green,circle
94.0,6.0,2.0,1.0,4.0,4.0,520.780360995559,1.0,1.0,part_1,,,,,,,,,,,,,magenta,I
205.0,3.0,3.0,0.0,2.0,2.0,377.8579799982253,1.0,1.0,part_1,,,,,,,,,,,,,gray,hexagon
381.0,4.0,4.0,0.0,3.0,3.0,319.3394260015338,1.0,2.0,part_1,,,,,,,,,,,,,green,circle
0.0,8.0,0.0,1.0,2.0,2.0,290.0477270013653,1.0,1.0,part_1,,,,,,,,,,,,,blue,diamond
386.0,4.0,4.0,0.0,4.0,4.0,355.2003029908519,1.0,1.0,part_1,,,,,,,,,,,,,green,circle
81.0,6.0,2.0,1.0,4.0,4.0,391.0191259928979,1.0,1.0,part_1,,,,,,,,,,,,,magenta,I
117.0,2.0,2.0,0.0,4.0,4.0,401.6761740203947,1.0,1.0,part_1,,,,,,,,,,,,,yellow,cross
197.0,7.0,3.0,1.0,3.0,3.0,301.3819409825373,1.0,1.0,part_1,,,,,,,,,,,,,cyan,triangle
98.0,6.0,2.0,1.0,2.0,2.0,291.0589730017818,1.0,1.0,part_1,,,,,,,,,,,,,magenta,I
94.0,6.0,2.0,1.0,2.0,2.0,369.4121389999054,1.0,1.0,part_1,,,,,,,,,,,,,magenta,I
28.0,1.0,1.0,0.0,2.0,2.0,359.1992179863155,1.0,1.0,part_1,,,,,,,,,,,,,orange,flipped triangle
94.0,2.0,2.0,0.0,1.0,1.0,416.6010740154888,1.0,1.0,part_1,,,,,,,,,,,,,yellow,cross
91.0,2.0,2.0,0.0,3.0,3.0,383.7344170024153,1.0,1.0,part_1,,,,,,,,,,,,,yellow,cross
177.0,7.0,3.0,1.0,2.0,2.0,464.1569749801419,1.0,1.0,part_1,,,,,,,,,,,,,cyan,triangle
192.0,7.0,3.0,1.0,1.0,1.0,385.3651829995215,1.0,1.0,part_1,,,,,,,,,,,,,cyan,triangle
55.0,1.0,1.0,0.0,1.0,1.0,529.760672012344,1.0,1.0,part_1,,,,,,,,,,,,,orange,flipped triangle
206.0,3.0,3.0,0.0,2.0,2.0,362.467232014751,1.0,1.0,part_1,,,,,,,,,,,,,gray,hexagon
75.0,2.0,2.0,0.0,3.0,3.0,419.1007720073685,1.0,1.0,part_1,,,,,,,,,,,,,yellow,cross
421.0,4.0,4.0,0.0,2.0,2.0,274.4359600183088,1.0,1.0,part_1,,,,,,,,,,,,,green,circle
410.0,8.0,4.0,1.0,3.0,3.0,509.64356400072575,1.0,1.0,part_1,,,,,,,,,,,,,blue,diamond
26.0,5.0,1.0,1.0,4.0,4.0,478.8170700194314,1.0,1.0,part_1,,,,,,,,,,,,,white,square
37.0,5.0,1.0,1.0,1.0,1.0,377.1130579989403,1.0,1.0,part_1,,,,,,,,,,,,,white,square
98.0,2.0,2.0,0.0,2.0,2.0,287.8667339973617,1.0,1.0,part_1,,,,,,,,,,,,,yellow,cross
69.0,5.0,1.0,1.0,3.0,3.0,343.3735530124977,1.0,1.0,part_1,,,,,,,,,,,,,white,square
79.0,2.0,2.0,0.0,2.0,2.0,402.2866339946631,1.0,1.0,part_1,,,,,,,,,,,,,yellow,cross
0.0,6.0,0.0,1.0,1.0,1.0,456.709137011785,1.0,1.0,part_1,,,,,,,,,,,,,magenta,I
71.0,1.0,1.0,0.0,2.0,2.0,335.5674920021556,1.0,1.0,part_1,,,,,,,,,,,,,orange,flipped triangle
121.0,6.0,2.0,1.0,4.0,4.0,391.7428599961567,1.0,1.0,part_1,,,,,,,,,,,,,magenta,I
0.0,4.0,0.0,0.0,4.0,4.0,448.7339699990116,1.0,1.0,part_1,,,,,,,,,,,,,green,circle
387.0,8.0,4.0,1.0,4.0,4.0,436.1251649970654,1.0,1.0,part_1,,,,,,,,,,,,,blue,diamond
0.0,2.0,0.0,0.0,3.0,3.0,447.9288079892285,1.0,1.0,part_1,,,,,,,,,,,,,yellow,cross
423.0,8.0,4.0,1.0,2.0,2.0,258.1264130130876,1.0,1.0,part_1,,,,,,,,,,,,,blue,diamond
42.0,1.0,1.0,0.0,3.0,3.0,542.9485930071678,1.0,1.0,part_1,,,,,,,,,,,,,orange,flipped triangle
218.0,3.0,3.0,0.0,2.0,2.0,395.5386549932882,1.0,1.0,part_1,,,,,,,,,,,,,gray,hexagon
51.0,1.0,1.0,0.0,2.0,2.0,341.1735240078997,1.0,1.0,part_1,,,,,,,,,,,,,orange,flipped triangle
91.0,2.0,2.0,0.0,2.0,2.0,416.7230100138113,1.0,1.0,part_1,,,,,,,,,,,,,yellow,cross
0.0,8.0,0.0,1.0,1.0,1.0,361.4199739822652,1.0,1.0,part_1,,,,,,,,,,,,,blue,diamond
175.0,7.0,3.0,1.0,4.0,4.0,375.2015389909502,1.0,1.0,part_1,,,,,,,,,,,,,cyan,triangle
56.0,5.0,1.0,1.0,2.0,2.0,274.9003200151492,1.0,1.0,part_1,,,,,,,,,,,,,white,square
29.0,1.0,1.0,0.0,1.0,1.0,358.7281509826425,2.0,1.0,part_1,,,,,,,,,,,,,orange,flipped triangle
117.0,6.0,2.0,1.0,1.0,1.0,514.0202739858069,2.0,1.0,part_1,,,,,,,,,,,,,magenta,I
181.0,3.0,3.0,0.0,3.0,3.0,412.5858430052176,2.0,1.0,part_1,,,,,,,,,,,,,gray,hexagon
0.0,6.0,0.0,1.0,4.0,4.0,334.4604200101457,2.0,1.0,part_1,,,,,,,,,,,,,magenta,I
396.0,4.0,4.0,0.0,3.0,3.0,405.909902008716,2.0,1.0,part_1,,,,,,,,,,,,,green,circle
0.0,6.0,0.0,1.0,4.0,4.0,437.63520300854,2.0,1.0,part_1,,,,,,,,,,,,,magenta,I
114.0,6.0,2.0,1.0,4.0,4.0,404.4528020021971,2.0,1.0,part_1,,,,,,,,,,,,,magenta,I
57.0,5.0,1.0,1.0,3.0,3.0,363.1454980059061,2.0,1.0,part_1,,,,,,,,,,,,,white,square
423.0,4.0,4.0,0.0,1.0,1.0,396.1065239855088,2.0,1.0,part_1,,,,,,,,,,,,,green,circle
96.0,6.0,2.0,1.0,1.0,1.0,383.4328369994182,2.0,1.0,part_1,,,,,,,,,,,,,magenta,I
195.0,7.0,3.0,1.0,1.0,1.0,417.0058209856506,2.0,1.0,part_1,,,,,,,,,,,,,cyan,triangle
74.0,1.0,1.0,0.0,1.0,1.0,428.4657109819818,2.0,1.0,part_1,,,,,,,,,,,,,orange,flipped triangle
96.0,2.0,2.0,0.0,1.0,1.0,351.7160630144644,2.0,1.0,part_1,,,,,,,,,,,,,yellow,cross
50.0,1.0,1.0,0.0,4.0,4.0,433.7554629892111,2.0,1.0,part_1,,,,,,,,,,,,,orange,flipped triangle
51.0,1.0,1.0,0.0,4.0,4.0,399.6563249966129,2.0,1.0,part_1,,,,,,,,,,,,,orange,flipped triangle
224.0,3.0,3.0,0.0,3.0,3.0,612.9498269874603,2.0,1.0,part_1,,,,,,,,,,,,,gray,hexagon
77.0,6.0,2.0,1.0,3.0,3.0,443.5137909895275,2.0,1.0,part_1,,,,,,,,,,,,,magenta,I
222.0,3.0,3.0,0.0,3.0,3.0,432.9579969926271,2.0,1.0,part_1,,,,,,,,,,,,,gray,hexagon
396.0,8.0,4.0,1.0,3.0,3.0,481.7888610123191,2.0,1.0,part_1,,,,,,,,,,,,,blue,diamond
0.0,1.0,0.0,0.0,1.0,1.0,423.7816349777858,2.0,1.0,part_1,,,,,,,,,,,,,orange,flipped triangle
107.0,2.0,2.0,0.0,2.0,2.0,323.9783250028267,2.0,1.0,part_1,,,,,,,,,,,,,yellow,cross
206.0,7.0,3.0,1.0,4.0,4.0,357.4203810130711,2.0,1.0,part_1,,,,,,,,,,,,,cyan,triangle
47.0,5.0,1.0,1.0,4.0,4.0,480.0527940096799,2.0,1.0,part_1,,,,,,,,,,,,,white,square
378.0,8.0,4.0,1.0,2.0,2.0,381.9888680009171,2.0,1.0,part_1,,,,,,,,,,,,,blue,diamond
43.0,1.0,1.0,0.0,1.0,1.0,323.7019109947141,2.0,1.0,part_1,,,,,,,,,,,,,orange,flipped triangle
119.0,6.0,2.0,1.0,3.0,3.0,517.2788789786864,2.0,1.0,part_1,,,,,,,,,,,,,magenta,I
0.0,4.0,0.0,0.0,1.0,1.0,348.4583030221984,2.0,1.0,part_1,,,,,,,,,,,,,green,circle
0.0,5.0,0.0,1.0,1.0,1.0,373.4431240009144,2.0,2.0,part_1,,,,,,,,,,,,,white,square
211.0,3.0,3.0,0.0,4.0,4.0,453.8955950119998,2.0,1.0,part_1,,,,,,,,,,,,,gray,hexagon
56.0,1.0,1.0,0.0,3.0,3.0,529.8349350050557,2.0,1.0,part_1,,,,,,,,,,,,,orange,flipped triangle
0.0,2.0,0.0,0.0,1.0,1.0,406.4936799986753,2.0,1.0,part_1,,,,,,,,,,,,,yellow,cross
202.0,7.0,3.0,1.0,1.0,1.0,396.265653980663,2.0,1.0,part_1,,,,,,,,,,,,,cyan,triangle
107.0,6.0,2.0,1.0,2.0,2.0,565.2328870201018,2.0,1.0,part_1,,,,,,,,,,,,,magenta,I
0.0,6.0,0.0,1.0,1.0,1.0,445.3166799794417,2.0,1.0,part_1,,,,,,,,,,,,,magenta,I
205.0,7.0,3.0,1.0,3.0,3.0,409.3813679937739,2.0,1.0,part_1,,,,,,,,,,,,,cyan,triangle
403.0,4.0,4.0,0.0,2.0,2.0,354.588104004506,2.0,1.0,part_1,,,,,,,,,,,,,green,circle
0.0,3.0,0.0,0.0,3.0,3.0,389.7971090045757,2.0,1.0,part_1,,,,,,,,,,,,,gray,hexagon
0.0,5.0,0.0,1.0,2.0,2.0,378.6690889974125,2.0,1.0,part_1,,,,,,,,,,,,,white,square
0.0,6.0,0.0,1.0,2.0,2.0,347.04031501314597,2.0,1.0,part_1,,,,,,,,,,,,,magenta,I
381.0,4.0,4.0,0.0,1.0,1.0,535.8863849833142,2.0,1.0,part_1,,,,,,,,,,,,,green,circle
81.0,2.0,2.0,0.0,3.0,3.0,436.7380289768334,2.0,1.0,part_1,,,,,,,,,,,,,yellow,cross
0.0,7.0,0.0,1.0,4.0,4.0,449.0658770082518,2.0,1.0,part_1,,,,,,,,,,,,,cyan,triangle
402.0,4.0,4.0,0.0,4.0,4.0,405.2394259779248,2.0,1.0,part_1,,,,,,,,,,,,,green,circle
186.0,7.0,3.0,1.0,1.0,1.0,323.6803640029393,2.0,1.0,part_1,,,,,,,,,,,,,cyan,triangle
112.0,2.0,2.0,0.0,3.0,3.0,382.1558600175194,2.0,1.0,part_1,,,,,,,,,,,,,yellow,cross
211.0,7.0,3.0,1.0,1.0,1.0,326.7671079956926,2.0,1.0,part_1,,,,,,,,,,,,,cyan,triangle
408.0,8.0,4.0,1.0,1.0,1.0,431.3100040017161,2.0,1.0,part_1,,,,,,,,,,,,,blue,diamond
198.0,7.0,3.0,1.0,1.0,1.0,326.1544679990038,2.0,1.0,part_1,,,,,,,,,,,,,cyan,triangle
224.0,3.0,3.0,0.0,1.0,1.0,318.4323989844415,2.0,1.0,part_1,,,,,,,,,,,,,gray,hexagon
179.0,3.0,3.0,0.0,4.0,4.0,779.8640550172422,2.0,1.0,part_1,,,,,,,,,,,,,gray,hexagon
0.0,8.0,0.0,1.0,3.0,3.0,477.4414639978204,2.0,1.0,part_1,,,,,,,,,,,,,blue,diamond
181.0,3.0,3.0,0.0,1.0,1.0,376.7818950000219,2.0,2.0,part_1,,,,,,,,,,,,,gray,hexagon
0.0,8.0,0.0,1.0,2.0,2.0,352.3094579868484,2.0,1.0,part_1,,,,,,,,,,,,,blue,diamond
0.0,4.0,0.0,0.0,2.0,2.0,409.4782790052704,2.0,1.0,part_1,,,,,,,,,,,,,green,circle
80.0,6.0,2.0,1.0,2.0,2.0,308.7382249941584,2.0,1.0,part_1,,,,,,,,,,,,,magenta,I
423.0,4.0,4.0,0.0,4.0,4.0,458.1560889782849,2.0,1.0,part_1,,,,,,,,,,,,,green,circle
186.0,3.0,3.0,0.0,1.0,1.0,311.6601280053146,2.0,1.0,part_1,,,,,,,,,,,,,gray,hexagon
197.0,3.0,3.0,0.0,1.0,1.0,391.2634349835571,2.0,1.0,part_1,,,,,,,,,,,,,gray,hexagon
0.0,1.0,0.0,0.0,3.0,3.0,647.565832012333,2.0,1.0,part_1,,,,,,,,,,,,,orange,flipped triangle
29.0,5.0,1.0,1.0,2.0,2.0,321.3726420071907,2.0,1.0,part_1,,,,,,,,,,,,,white,square
0.0,2.0,0.0,0.0,3.0,3.0,560.1803309982643,2.0,1.0,part_1,,,,,,,,,,,,,yellow,cross
224.0,7.0,3.0,1.0,4.0,4.0,415.075072000036,2.0,1.0,part_1,,,,,,,,,,,,,cyan,triangle
412.0,8.0,4.0,1.0,2.0,2.0,359.6079169947188,2.0,1.0,part_1,,,,,,,,,,,,,blue,diamond
0.0,2.0,0.0,0.0,4.0,4.0,427.3871219775174,2.0,1.0,part_1,,,,,,,,,,,,,yellow,cross
0.0,1.0,0.0,0.0,1.0,1.0,325.1453250122722,2.0,1.0,part_1,,,,,,,,,,,,,orange,flipped triangle
407.0,8.0,4.0,1.0,1.0,1.0,403.6244979943149,2.0,1.0,part_1,,,,,,,,,,,,,blue,diamond
89.0,2.0,2.0,0.0,1.0,1.0,348.2120130211115,2.0,1.0,part_1,,,,,,,,,,,,,yellow,cross
407.0,8.0,4.0,1.0,4.0,4.0,362.7784570271615,2.0,1.0,part_1,,,,,,,,,,,,,blue,diamond
378.0,4.0,4.0,0.0,2.0,2.0,373.1186079967301,2.0,1.0,part_1,,,,,,,,,,,,,green,circle
376.0,8.0,4.0,1.0,4.0,4.0,396.5356410189997,2.0,1.0,part_1,,,,,,,,,,,,,blue,diamond
387.0,4.0,4.0,0.0,3.0,3.0,453.1312189938035,2.0,1.0,part_1,,,,,,,,,,,,,green,circle
202.0,3.0,3.0,0.0,3.0,3.0,407.6717389980331,2.0,1.0,part_1,,,,,,,,,,,,,gray,hexagon
0.0,1.0,0.0,0.0,3.0,3.0,466.4899990020785,2.0,1.0,part_1,,,,,,,,,,,,,orange,flipped triangle
196.0,7.0,3.0,1.0,2.0,2.0,520.8598519966472,2.0,1.0,part_1,,,,,,,,,,,,,cyan,triangle
94.0,2.0,2.0,0.0,3.0,3.0,533.4344360162504,2.0,1.0,part_1,,,,,,,,,,,,,yellow,cross
85.0,6.0,2.0,1.0,3.0,3.0,623.3138740062714,2.0,1.0,part_1,,,,,,,,,,,,,magenta,I
0.0,7.0,0.0,1.0,1.0,1.0,343.8599499932024,2.0,1.0,part_1,,,,,,,,,,,,,cyan,triangle
404.0,8.0,4.0,1.0,1.0,1.0,470.8542139851488,2.0,1.0,part_1,,,,,,,,,,,,,blue,diamond
119.0,2.0,2.0,0.0,4.0,4.0,379.8461699916515,2.0,1.0,part_1,,,,,,,,,,,,,yellow,cross
407.0,4.0,4.0,0.0,3.0,3.0,437.5174320011865,2.0,1.0,part_1,,,,,,,,,,,,,green,circle
55.0,1.0,1.0,0.0,4.0,4.0,426.29437299910927,2.0,1.0,part_1,,,,,,,,,,,,,orange,flipped triangle
26.0,1.0,1.0,0.0,3.0,3.0,390.341784019256,2.0,1.0,part_1,,,,,,,,,,,,,orange,flipped triangle
412.0,4.0,4.0,0.0,4.0,4.0,608.5949690022971,2.0,1.0,part_1,,,,,,,,,,,,,green,circle
175.0,3.0,3.0,0.0,1.0,1.0,458.9533309917897,2.0,1.0,part_1,,,,,,,,,,,,,gray,hexagon
0.0,8.0,0.0,1.0,1.0,1.0,351.0013130144216,2.0,2.0,part_1,,,,,,,,,,,,,blue,diamond
0.0,7.0,0.0,1.0,3.0,3.0,496.0507370124105,2.0,1.0,part_1,,,,,,,,,,,,,cyan,triangle
43.0,5.0,1.0,1.0,1.0,1.0,374.3562829913571,2.0,1.0,part_1,,,,,,,,,,,,,white,square
106.0,6.0,2.0,1.0,3.0,3.0,383.2867649907712,2.0,1.0,part_1,,,,,,,,,,,,,magenta,I
55.0,5.0,1.0,1.0,2.0,2.0,352.2570859931875,2.0,1.0,part_1,,,,,,,,,,,,,white,square
73.0,1.0,1.0,0.0,2.0,2.0,407.48426999198267,2.0,1.0,part_1,,,,,,,,,,,,,orange,flipped triangle
0.0,5.0,0.0,1.0,4.0,4.0,396.085893997224,2.0,1.0,part_1,,,,,,,,,,,,,white,square
196.0,3.0,3.0,0.0,2.0,2.0,475.3912059823051,2.0,1.0,part_1,,,,,,,,,,,,,gray,hexagon
39.0,5.0,1.0,1.0,4.0,4.0,522.6052790239919,2.0,1.0,part_1,,,,,,,,,,,,,white,square
79.0,6.0,2.0,1.0,1.0,1.0,377.7327100106049,2.0,1.0,part_1,,,,,,,,,,,,,magenta,I
111.0,6.0,2.0,1.0,3.0,3.0,422.533047007164,2.0,1.0,part_1,,,,,,,,,,,,,magenta,I
65.0,5.0,1.0,1.0,1.0,1.0,387.1557739912532,2.0,1.0,part_1,,,,,,,,,,,,,white,square
117.0,6.0,2.0,1.0,2.0,2.0,331.8813820078503,2.0,1.0,part_1,,,,,,,,,,,,,magenta,I
404.0,4.0,4.0,0.0,3.0,3.0,366.9004560215398,2.0,1.0,part_1,,,,,,,,,,,,,green,circle
183.0,7.0,3.0,1.0,3.0,3.0,493.016758991871,2.0,1.0,part_1,,,,,,,,,,,,,cyan,triangle
418.0,4.0,4.0,0.0,2.0,2.0,392.6715209963731,2.0,1.0,part_1,,,,,,,,,,,,,green,circle
0.0,6.0,0.0,1.0,2.0,2.0,363.9105900074355,3.0,1.0,part_1,,,,,,,,,,,,,magenta,I
414.0,4.0,4.0,0.0,4.0,4.0,463.1137789983768,3.0,1.0,part_1,,,,,,,,,,,,,green,circle
423.0,8.0,4.0,1.0,4.0,4.0,386.5656550042331,3.0,1.0,part_1,,,,,,,,,,,,,blue,diamond
0.0,4.0,0.0,0.0,4.0,4.0,508.484040008625,3.0,1.0,part_1,,,,,,,,,,,,,green,circle
192.0,3.0,3.0,0.0,4.0,4.0,498.534890008159,3.0,1.0,part_1,,,,,,,,,,,,,gray,hexagon
0.0,6.0,0.0,1.0,1.0,1.0,399.1944370209239,3.0,1.0,part_1,,,,,,,,,,,,,magenta,I
28.0,5.0,1.0,1.0,2.0,2.0,319.5098600117489,3.0,1.0,part_1,,,,,,,,,,,,,white,square
0.0,7.0,0.0,1.0,3.0,3.0,355.9312130091712,3.0,1.0,part_1,,,,,,,,,,,,,cyan,triangle
218.0,7.0,3.0,1.0,2.0,2.0,387.7901909872889,3.0,1.0,part_1,,,,,,,,,,,,,cyan,triangle
386.0,8.0,4.0,1.0,3.0,3.0,423.976477002725,3.0,1.0,part_1,,,,,,,,,,,,,blue,diamond
42.0,5.0,1.0,1.0,3.0,3.0,369.0256460104137,3.0,1.0,part_1,,,,,,,,,,,,,white,square
0.0,8.0,0.0,1.0,1.0,1.0,381.8177639914211,3.0,1.0,part_1,,,,,,,,,,,,,blue,diamond
0.0,6.0,0.0,1.0,3.0,3.0,423.3729270054027,3.0,1.0,part_1,,,,,,,,,,,,,magenta,I
0.0,3.0,0.0,0.0,4.0,4.0,436.6360940039158,3.0,1.0,part_1,,,,,,,,,,,,,gray,hexagon
195.0,3.0,3.0,0.0,3.0,3.0,381.3500700052827,3.0,1.0,part_1,,,,,,,,,,,,,gray,hexagon
61.0,1.0,1.0,0.0,4.0,4.0,474.2650359985418,3.0,1.0,part_1,,,,,,,,,,,,,orange,flipped triangle
386.0,4.0,4.0,0.0,1.0,1.0,618.7208899937104,3.0,1.0,part_1,,,,,,,,,,,,,green,circle
55.0,5.0,1.0,1.0,4.0,4.0,493.4755269787274,3.0,1.0,part_1,,,,,,,,,,,,,white,square
52.0,5.0,1.0,1.0,3.0,3.0,351.1203730013221,3.0,1.0,part_1,,,,,,,,,,,,,white,square
413.0,8.0,4.0,1.0,3.0,3.0,338.4097949892748,3.0,1.0,part_1,,,,,,,,,,,,,blue,diamond
376.0,4.0,4.0,0.0,1.0,1.0,442.8231719939504,3.0,1.0,part_1,,,,,,,,,,,,,green,circle
184.0,3.0,3.0,0.0,4.0,4.0,361.635194014525,3.0,1.0,part_1,,,,,,,,,,,,,gray,hexagon
50.0,5.0,1.0,1.0,2.0,2.0,375.8162049925886,3.0,1.0,part_1,,,,,,,,,,,,,white,square
0.0,8.0,0.0,1.0,2.0,2.0,351.4021659793798,3.0,2.0,part_1,,,,,,,,,,,,,blue,diamond
35.0,5.0,1.0,1.0,4.0,4.0,452.8764809947461,3.0,1.0,part_1,,,,,,,,,,,,,white,square
220.0,3.0,3.0,0.0,4.0,4.0,421.6449789819307,3.0,1.0,part_1,,,,,,,,,,,,,gray,hexagon
109.0,6.0,2.0,1.0,1.0,1.0,453.9801400096621,3.0,1.0,part_1,,,,,,,,,,,,,magenta,I
36.0,5.0,1.0,1.0,4.0,4.0,400.5170929885935,3.0,1.0,part_1,,,,,,,,,,,,,white,square
0.0,4.0,0.0,0.0,3.0,3.0,503.690960991662,3.0,1.0,part_1,,,,,,,,,,,,,green,circle
193.0,7.0,3.0,1.0,3.0,3.0,560.3557440044824,3.0,1.0,part_1,,,,,,,,,,,,,cyan,triangle
381.0,8.0,4.0,1.0,4.0,4.0,379.7869860136416,3.0,2.0,part_1,,,,,,,,,,,,,blue,diamond
0.0,7.0,0.0,1.0,1.0,1.0,414.0130400191992,3.0,1.0,part_1,,,,,,,,,,,,,cyan,triangle
45.0,1.0,1.0,0.0,1.0,1.0,504.9422140000388,3.0,1.0,part_1,,,,,,,,,,,,,orange,flipped triangle
65.0,1.0,1.0,0.0,2.0,2.0,357.4533420032821,3.0,1.0,part_1,,,,,,,,,,,,,orange,flipped triangle
390.0,4.0,4.0,0.0,1.0,1.0,372.7353420108557,3.0,1.0,part_1,,,,,,,,,,,,,green,circle
54.0,1.0,1.0,0.0,1.0,1.0,674.3928370124195,3.0,1.0,part_1,,,,,,,,,,,,,orange,flipped triangle
217.0,3.0,3.0,0.0,2.0,2.0,349.4487290154211,3.0,1.0,part_1,,,,,,,,,,,,,gray,hexagon
421.0,8.0,4.0,1.0,2.0,2.0,359.1860440210439,3.0,1.0,part_1,,,,,,,,,,,,,blue,diamond
176.0,3.0,3.0,0.0,1.0,1.0,328.4752089821268,3.0,1.0,part_1,,,,,,,,,,,,,gray,hexagon
0.0,5.0,0.0,1.0,2.0,2.0,363.6410290200729,3.0,1.0,part_1,,,,,,,,,,,,,white,square
0.0,4.0,0.0,0.0,4.0,4.0,406.5851000195835,3.0,1.0,part_1,,,,,,,,,,,,,green,circle
206.0,7.0,3.0,1.0,3.0,3.0,411.2814720137976,3.0,2.0,part_1,,,,,,,,,,,,,cyan,triangle
0.0,7.0,0.0,1.0,3.0,3.0,420.0594419962726,3.0,1.0,part_1,,,,,,,,,,,,,cyan,triangle
0.0,7.0,0.0,1.0,1.0,1.0,388.2274340139702,3.0,1.0,part_1,,,,,,,,,,,,,cyan,triangle
74.0,5.0,1.0,1.0,2.0,2.0,386.8592579965479,3.0,1.0,part_1,,,,,,,,,,,,,white,square
82.0,6.0,2.0,1.0,3.0,3.0,469.9663950013928,3.0,1.0,part_1,,,,,,,,,,,,,magenta,I
201.0,3.0,3.0,0.0,4.0,4.0,638.7001579860225,3.0,1.0,part_1,,,,,,,,,,,,,gray,hexagon
45.0,1.0,1.0,0.0,1.0,1.0,469.7937220043968,3.0,1.0,part_1,,,,,,,,,,,,,orange,flipped triangle
39.0,1.0,1.0,0.0,3.0,3.0,616.6505879955366,3.0,1.0,part_1,,,,,,,,,,,,,orange,flipped triangle
104.0,6.0,2.0,1.0,3.0,3.0,492.5720040046144,3.0,1.0,part_1,,,,,,,,,,,,,magenta,I
78.0,2.0,2.0,0.0,4.0,4.0,505.2973989804741,3.0,1.0,part_1,,,,,,,,,,,,,yellow,cross
408.0,4.0,4.0,0.0,2.0,2.0,402.6351829816121,3.0,1.0,part_1,,,,,,,,,,,,,green,circle
211.0,7.0,3.0,1.0,2.0,2.0,368.3643330004997,3.0,1.0,part_1,,,,,,,,,,,,,cyan,triangle
52.0,1.0,1.0,0.0,3.0,3.0,675.2912249939982,3.0,1.0,part_1,,,,,,,,,,,,,orange,flipped triangle
0.0,8.0,0.0,1.0,1.0,1.0,483.7078310083598,3.0,1.0,part_1,,,,,,,,,,,,,blue,diamond
402.0,8.0,4.0,1.0,2.0,2.0,347.6225150225218,3.0,1.0,part_1,,,,,,,,,,,,,blue,diamond
112.0,6.0,2.0,1.0,3.0,3.0,495.2654450025875,3.0,1.0,part_1,,,,,,,,,,,,,magenta,I
0.0,7.0,0.0,1.0,1.0,1.0,484.1250409954227,3.0,1.0,part_1,,,,,,,,,,,,,cyan,triangle
82.0,2.0,2.0,0.0,2.0,2.0,339.3412840086967,3.0,1.0,part_1,,,,,,,,,,,,,yellow,cross
206.0,3.0,3.0,0.0,2.0,2.0,552.1133700094651,3.0,1.0,part_1,,,,,,,,,,,,,gray,hexagon
45.0,5.0,1.0,1.0,1.0,1.0,474.2316580086481,3.0,1.0,part_1,,,,,,,,,,,,,white,square
385.0,4.0,4.0,0.0,2.0,2.0,307.6791710045654,3.0,1.0,part_1,,,,,,,,,,,,,green,circle
117.0,2.0,2.0,0.0,2.0,2.0,565.8455140073784,3.0,1.0,part_1,,,,,,,,,,,,,yellow,cross
85.0,2.0,2.0,0.0,4.0,4.0,466.8214150005951,3.0,1.0,part_1,,,,,,,,,,,,,yellow,cross
222.0,7.0,3.0,1.0,2.0,2.0,477.5323390203994,3.0,1.0,part_1,,,,,,,,,,,,,cyan,triangle
71.0,5.0,1.0,1.0,1.0,1.0,366.5154890040867,3.0,1.0,part_1,,,,,,,,,,,,,white,square
412.0,4.0,4.0,0.0,1.0,1.0,401.3338290096726,3.0,1.0,part_1,,,,,,,,,,,,,green,circle
378.0,4.0,4.0,0.0,2.0,2.0,321.8417049793061,3.0,1.0,part_1,,,,,,,,,,,,,green,circle
183.0,3.0,3.0,0.0,3.0,3.0,514.5848430111073,3.0,1.0,part_1,,,,,,,,,,,,,gray,hexagon
71.0,5.0,1.0,1.0,1.0,1.0,662.6465229783207,3.0,1.0,part_1,,,,,,,,,,,,,white,square
209.0,7.0,3.0,1.0,2.0,2.0,358.7143309996463,3.0,1.0,part_1,,,,,,,,,,,,,cyan,triangle
0.0,5.0,0.0,1.0,1.0,1.0,414.2097609874327,3.0,1.0,part_1,,,,,,,,,,,,,white,square
0.0,6.0,0.0,1.0,2.0,2.0,312.0140859973617,3.0,1.0,part_1,,,,,,,,,,,,,magenta,I
0.0,2.0,0.0,0.0,2.0,2.0,461.2953820032999,3.0,1.0,part_1,,,,,,,,,,,,,yellow,cross
91.0,6.0,2.0,1.0,4.0,4.0,561.3687470031437,3.0,1.0,part_1,,,,,,,,,,,,,magenta,I
82.0,6.0,2.0,1.0,1.0,1.0,328.626168979099,3.0,1.0,part_1,,,,,,,,,,,,,magenta,I
181.0,7.0,3.0,1.0,4.0,4.0,429.771280993009,3.0,1.0,part_1,,,,,,,,,,,,,cyan,triangle
47.0,1.0,1.0,0.0,3.0,3.0,486.8855130043812,3.0,1.0,part_1,,,,,,,,,,,,,orange,flipped triangle
222.0,3.0,3.0,0.0,2.0,2.0,608.1541820021812,3.0,1.0,part_1,,,,,,,,,,,,,gray,hexagon
120.0,2.0,2.0,0.0,2.0,2.0,440.0192670000251,3.0,1.0,part_1,,,,,,,,,,,,,yellow,cross
94.0,2.0,2.0,0.0,1.0,1.0,316.864872991573,3.0,1.0,part_1,,,,,,,,,,,,,yellow,cross
206.0,3.0,3.0,0.0,3.0,3.0,466.4526359993033,3.0,1.0,part_1,,,,,,,,,,,,,gray,hexagon
57.0,1.0,1.0,0.0,4.0,4.0,452.9397019941825,3.0,1.0,part_1,,,,,,,,,,,,,orange,flipped triangle
397.0,8.0,4.0,1.0,2.0,2.0,419.4298229995183,3.0,1.0,part_1,,,,,,,,,,,,,blue,diamond
193.0,3.0,3.0,0.0,4.0,4.0,443.2378530036658,3.0,1.0,part_1,,,,,,,,,,,,,gray,hexagon
0.0,3.0,0.0,0.0,4.0,4.0,477.1851869882084,3.0,1.0,part_1,,,,,,,,,,,,,gray,hexagon
122.0,6.0,2.0,1.0,2.0,2.0,311.3166039984207,3.0,1.0,part_1,,,,,,,,,,,,,magenta,I
80.0,2.0,2.0,0.0,4.0,4.0,457.561210001586,3.0,1.0,part_1,,,,,,,,,,,,,yellow,cross
188.0,7.0,3.0,1.0,4.0,4.0,422.373086999869,3.0,1.0,part_1,,,,,,,,,,,,,cyan,triangle
82.0,2.0,2.0,0.0,4.0,4.0,347.0504309807438,3.0,1.0,part_1,,,,,,,,,,,,,yellow,cross
45.0,5.0,1.0,1.0,3.0,3.0,536.3086219877005,3.0,1.0,part_1,,,,,,,,,,,,,white,square
0.0,1.0,0.0,0.0,3.0,3.0,449.3909190059639,3.0,1.0,part_1,,,,,,,,,,,,,orange,flipped triangle
220.0,3.0,3.0,0.0,4.0,4.0,369.2446499771904,3.0,1.0,part_1,,,,,,,,,,,,,gray,hexagon
211.0,3.0,3.0,0.0,3.0,3.0,404.7509759839158,3.0,1.0,part_1,,,,,,,,,,,,,gray,hexagon
378.0,8.0,4.0,1.0,3.0,3.0,328.2641640107613,3.0,1.0,part_1,,,,,,,,,,,,,blue,diamond
120.0,6.0,2.0,1.0,4.0,4.0,338.9208969892934,3.0,1.0,part_1,,,,,,,,,,,,,magenta,I
29.0,5.0,1.0,1.0,2.0,2.0,731.8711080006324,3.0,1.0,part_1,,,,,,,,,,,,,white,square
107.0,2.0,2.0,0.0,1.0,1.0,417.0239150116686,3.0,1.0,part_1,,,,,,,,,,,,,yellow,cross
0.0,1.0,0.0,0.0,2.0,2.0,472.753748006653,3.0,1.0,part_1,,,,,,,,,,,,,orange,flipped triangle
0.0,2.0,0.0,0.0,1.0,1.0,373.7782250100281,3.0,1.0,part_1,,,,,,,,,,,,,yellow,cross
61.0,5.0,1.0,1.0,4.0,4.0,493.5099660069681,4.0,1.0,part_1,,,,,,,,,,,,,white,square
0.0,2.0,0.0,0.0,4.0,4.0,383.4284180193208,4.0,1.0,part_1,,,,,,,,,,,,,yellow,cross
124.0,2.0,2.0,0.0,3.0,3.0,417.6105569931678,4.0,1.0,part_1,,,,,,,,,,,,,yellow,cross
118.0,2.0,2.0,0.0,1.0,1.0,867.418213019846,4.0,2.0,part_1,,,,,,,,,,,,,yellow,cross
220.0,7.0,3.0,1.0,1.0,1.0,363.3503720047883,4.0,1.0,part_1,,,,,,,,,,,,,cyan,triangle
393.0,4.0,4.0,0.0,3.0,3.0,462.5646749918815,4.0,1.0,part_1,,,,,,,,,,,,,green,circle
48.0,1.0,1.0,0.0,1.0,1.0,677.3415310017299,4.0,1.0,part_1,,,,,,,,,,,,,orange,flipped triangle
0.0,2.0,0.0,0.0,1.0,1.0,421.9507579982746,4.0,1.0,part_1,,,,,,,,,,,,,yellow,cross
176.0,3.0,3.0,0.0,3.0,3.0,421.3085990049876,4.0,2.0,part_1,,,,,,,,,,,,,gray,hexagon
0.0,1.0,0.0,0.0,3.0,3.0,455.2934160165023,4.0,1.0,part_1,,,,,,,,,,,,,orange,flipped triangle
98.0,2.0,2.0,0.0,1.0,1.0,355.7783929863944,4.0,1.0,part_1,,,,,,,,,,,,,yellow,cross
0.0,4.0,0.0,0.0,1.0,1.0,388.4721010108478,4.0,1.0,part_1,,,,,,,,,,,,,green,circle
125.0,6.0,2.0,1.0,2.0,2.0,579.3050900101662,4.0,1.0,part_1,,,,,,,,,,,,,magenta,I
52.0,5.0,1.0,1.0,4.0,4.0,437.4225679785013,4.0,1.0,part_1,,,,,,,,,,,,,white,square
26.0,5.0,1.0,1.0,3.0,3.0,493.8609389937483,4.0,1.0,part_1,,,,,,,,,,,,,white,square
421.0,8.0,4.0,1.0,4.0,4.0,458.6455970129464,4.0,1.0,part_1,,,,,,,,,,,,,blue,diamond
222.0,7.0,3.0,1.0,4.0,4.0,526.0884939925745,4.0,1.0,part_1,,,,,,,,,,,,,cyan,triangle
69.0,1.0,1.0,0.0,4.0,4.0,495.8815129939466,4.0,1.0,part_1,,,,,,,,,,,,,orange,flipped triangle
0.0,4.0,0.0,0.0,2.0,2.0,617.522332991939,4.0,1.0,part_1,,,,,,,,,,,,,green,circle
381.0,8.0,4.0,1.0,1.0,1.0,358.0899719963781,4.0,1.0,part_1,,,,,,,,,,,,,blue,diamond
94.0,6.0,2.0,1.0,4.0,4.0,392.37134999712,4.0,1.0,part_1,,,,,,,,,,,,,magenta,I
376.0,4.0,4.0,0.0,1.0,1.0,358.812278980622,4.0,1.0,part_1,,,,,,,,,,,,,green,circle
68.0,5.0,1.0,1.0,1.0,1.0,373.2067760138307,4.0,1.0,part_1,,,,,,,,,,,,,white,square
51.0,5.0,1.0,1.0,4.0,4.0,383.6101059860084,4.0,1.0,part_1,,,,,,,,,,,,,white,square
0.0,4.0,0.0,0.0,1.0,1.0,396.7953789979219,4.0,1.0,part_1,,,,,,,,,,,,,green,circle
43.0,5.0,1.0,1.0,4.0,4.0,563.645493995864,4.0,1.0,part_1,,,,,,,,,,,,,white,square
0.0,1.0,0.0,0.0,1.0,1.0,307.3189129936509,4.0,1.0,part_1,,,,,,,,,,,,,orange,flipped triangle
106.0,2.0,2.0,0.0,4.0,4.0,453.408112982288,4.0,1.0,part_1,,,,,,,,,,,,,yellow,cross
122.0,2.0,2.0,0.0,4.0,4.0,532.4611510150135,4.0,1.0,part_1,,,,,,,,,,,,,yellow,cross
407.0,4.0,4.0,0.0,2.0,2.0,409.2408250144217,4.0,1.0,part_1,,,,,,,,,,,,,green,circle
213.0,7.0,3.0,1.0,3.0,3.0,589.7704689996317,4.0,1.0,part_1,,,,,,,,,,,,,cyan,triangle
418.0,8.0,4.0,1.0,1.0,1.0,377.6166239986196,4.0,1.0,part_1,,,,,,,,,,,,,blue,diamond
211.0,7.0,3.0,1.0,3.0,3.0,455.9996409807354,4.0,1.0,part_1,,,,,,,,,,,,,cyan,triangle
89.0,6.0,2.0,1.0,2.0,2.0,526.2417159974575,4.0,1.0,part_1,,,,,,,,,,,,,magenta,I
376.0,8.0,4.0,1.0,1.0,1.0,313.8714309898205,4.0,1.0,part_1,,,,,,,,,,,,,blue,diamond
118.0,6.0,2.0,1.0,3.0,3.0,842.7396469924133,4.0,1.0,part_1,,,,,,,,,,,,,magenta,I
67.0,5.0,1.0,1.0,3.0,3.0,401.1492249846924,4.0,1.0,part_1,,,,,,,,,,,,,white,square
109.0,2.0,2.0,0.0,1.0,1.0,370.8503879897762,4.0,1.0,part_1,,,,,,,,,,,,,yellow,cross
0.0,3.0,0.0,0.0,1.0,1.0,380.1162989984732,4.0,1.0,part_1,,,,,,,,,,,,,gray,hexagon
206.0,7.0,3.0,1.0,3.0,3.0,450.8040240034461,4.0,1.0,part_1,,,,,,,,,,,,,cyan,triangle
0.0,3.0,0.0,0.0,4.0,4.0,439.59394400008017,4.0,1.0,part_1,,,,,,,,,,,,,gray,hexagon
421.0,4.0,4.0,0.0,4.0,4.0,407.0944350096397,4.0,1.0,part_1,,,,,,,,,,,,,green,circle
51.0,5.0,1.0,1.0,1.0,1.0,327.3059579951223,4.0,1.0,part_1,,,,,,,,,,,,,white,square
60.0,5.0,1.0,1.0,2.0,2.0,314.5285540085751,4.0,1.0,part_1,,,,,,,,,,,,,white,square
0.0,5.0,0.0,1.0,4.0,4.0,328.1726209970657,4.0,1.0,part_1,,,,,,,,,,,,,white,square
188.0,3.0,3.0,0.0,1.0,1.0,271.008918993175,4.0,1.0,part_1,,,,,,,,,,,,,gray,hexagon
217.0,7.0,3.0,1.0,1.0,1.0,351.2571640021633,4.0,1.0,part_1,,,,,,,,,,,,,cyan,triangle
105.0,6.0,2.0,1.0,1.0,1.0,343.7647829996422,4.0,1.0,part_1,,,,,,,,,,,,,magenta,I
79.0,2.0,2.0,0.0,3.0,3.0,467.3763879982289,4.0,1.0,part_1,,,,,,,,,,,,,yellow,cross
399.0,8.0,4.0,1.0,3.0,3.0,478.8989019871223,4.0,1.0,part_1,,,,,,,,,,,,,blue,diamond
385.0,8.0,4.0,1.0,3.0,3.0,377.0531640038825,4.0,1.0,part_1,,,,,,,,,,,,,blue,diamond
68.0,1.0,1.0,0.0,4.0,4.0,367.3181390040554,4.0,1.0,part_1,,,,,,,,,,,,,orange,flipped triangle
209.0,3.0,3.0,0.0,4.0,4.0,355.8107650023885,4.0,1.0,part_1,,,,,,,,,,,,,gray,hexagon
403.0,8.0,4.0,1.0,1.0,1.0,321.2181109993253,4.0,1.0,part_1,,,,,,,,,,,,,blue,diamond
0.0,2.0,0.0,0.0,4.0,4.0,381.6617910051718,4.0,1.0,part_1,,,,,,,,,,,,,yellow,cross
0.0,5.0,0.0,1.0,2.0,2.0,514.7718480147887,4.0,1.0,part_1,,,,,,,,,,,,,white,square
0.0,2.0,0.0,0.0,4.0,4.0,392.6838359911926,4.0,1.0,part_1,,,,,,,,,,,,,yellow,cross
26.0,5.0,1.0,1.0,3.0,3.0,437.3318809957709,4.0,1.0,part_1,,,,,,,,,,,,,white,square
0.0,5.0,0.0,1.0,1.0,1.0,312.5636689946987,4.0,1.0,part_1,,,,,,,,,,,,,white,square
48.0,5.0,1.0,1.0,3.0,3.0,371.4231389749329,4.0,1.0,part_1,,,,,,,,,,,,,white,square
0.0,8.0,0.0,1.0,4.0,4.0,369.3984360143076,4.0,1.0,part_1,,,,,,,,,,,,,blue,diamond
91.0,6.0,2.0,1.0,3.0,3.0,766.145236993907,4.0,1.0,part_1,,,,,,,,,,,,,magenta,I
73.0,5.0,1.0,1.0,2.0,2.0,475.3507259883918,4.0,1.0,part_1,,,,,,,,,,,,,white,square
125.0,2.0,2.0,0.0,3.0,3.0,597.5420430186205,4.0,1.0,part_1,,,,,,,,,,,,,yellow,cross
390.0,8.0,4.0,1.0,4.0,4.0,361.5539919992443,4.0,1.0,part_1,,,,,,,,,,,,,blue,diamond
64.0,5.0,1.0,1.0,1.0,1.0,327.6745940092951,4.0,1.0,part_1,,,,,,,,,,,,,white,square
0.0,3.0,0.0,0.0,1.0,1.0,386.6105889901519,4.0,1.0,part_1,,,,,,,,,,,,,gray,hexagon
410.0,4.0,4.0,0.0,4.0,4.0,350.8979630132671,4.0,1.0,part_1,,,,,,,,,,,,,green,circle
0.0,3.0,0.0,0.0,2.0,2.0,499.3795909977052,4.0,1.0,part_1,,,,,,,,,,,,,gray,hexagon
0.0,5.0,0.0,1.0,2.0,2.0,375.5571579968091,4.0,1.0,part_1,,,,,,,,,,,,,white,square
414.0,8.0,4.0,1.0,1.0,1.0,389.8102520033717,4.0,1.0,part_1,,,,,,,,,,,,,blue,diamond
124.0,6.0,2.0,1.0,1.0,1.0,848.2863770041149,4.0,1.0,part_1,,,,,,,,,,,,,magenta,I
52.0,1.0,1.0,0.0,4.0,4.0,424.499807995744,4.0,2.0,part_1,,,,,,,,,,,,,orange,flipped triangle
376.0,4.0,4.0,0.0,3.0,3.0,392.513446015073,4.0,1.0,part_1,,,,,,,,,,,,,green,circle
397.0,4.0,4.0,0.0,2.0,2.0,434.4388210156467,4.0,1.0,part_1,,,,,,,,,,,,,green,circle
211.0,3.0,3.0,0.0,1.0,1.0,311.6594470047857,4.0,1.0,part_1,,,,,,,,,,,,,gray,hexagon
397.0,8.0,4.0,1.0,4.0,4.0,348.0099270236678,4.0,1.0,part_1,,,,,,,,,,,,,blue,diamond
114.0,2.0,2.0,0.0,2.0,2.0,303.0607870023232,4.0,1.0,part_1,,,,,,,,,,,,,yellow,cross
399.0,4.0,4.0,0.0,1.0,1.0,292.799372022273,4.0,1.0,part_1,,,,,,,,,,,,,green,circle
77.0,2.0,2.0,0.0,2.0,2.0,361.4784050150774,4.0,1.0,part_1,,,,,,,,,,,,,yellow,cross
420.0,8.0,4.0,1.0,3.0,3.0,394.8307050159201,4.0,1.0,part_1,,,,,,,,,,,,,blue,diamond
71.0,1.0,1.0,0.0,3.0,3.0,384.2407320044003,4.0,1.0,part_1,,,,,,,,,,,,,orange,flipped triangle
393.0,8.0,4.0,1.0,4.0,4.0,508.70636699255556,4.0,1.0,part_1,,,,,,,,,,,,,blue,diamond
37.0,1.0,1.0,0.0,2.0,2.0,340.6960029969923,4.0,1.0,part_1,,,,,,,,,,,,,orange,flipped triangle
386.0,8.0,4.0,1.0,1.0,1.0,373.5703249985818,4.0,1.0,part_1,,,,,,,,,,,,,blue,diamond
34.0,5.0,1.0,1.0,1.0,1.0,361.8105179921258,4.0,1.0,part_1,,,,,,,,,,,,,white,square
412.0,8.0,4.0,1.0,1.0,1.0,283.7465140037238,4.0,1.0,part_1,,,,,,,,,,,,,blue,diamond
413.0,4.0,4.0,0.0,4.0,4.0,430.4973719990812,4.0,1.0,part_1,,,,,,,,,,,,,green,circle
104.0,2.0,2.0,0.0,3.0,3.0,645.1274120190646,4.0,1.0,part_1,,,,,,,,,,,,,yellow,cross
213.0,3.0,3.0,0.0,1.0,1.0,591.0561839991715,4.0,1.0,part_1,,,,,,,,,,,,,gray,hexagon
198.0,3.0,3.0,0.0,4.0,4.0,423.9447519939858,4.0,1.0,part_1,,,,,,,,,,,,,gray,hexagon
79.0,6.0,2.0,1.0,4.0,4.0,377.9316800064407,4.0,2.0,part_1,,,,,,,,,,,,,magenta,I
54.0,5.0,1.0,1.0,3.0,3.0,482.2964940103702,4.0,1.0,part_1,,,,,,,,,,,,,white,square
29.0,1.0,1.0,0.0,3.0,3.0,493.6424030165653,4.0,1.0,part_1,,,,,,,,,,,,,orange,flipped triangle
381.0,8.0,4.0,1.0,2.0,2.0,976.6706090013032,4.0,1.0,part_1,,,,,,,,,,,,,blue,diamond
420.0,4.0,4.0,0.0,2.0,2.0,584.2614370048977,4.0,1.0,part_1,,,,,,,,,,,,,green,circle
193.0,7.0,3.0,1.0,4.0,4.0,414.9533640011213,4.0,1.0,part_1,,,,,,,,,,,,,cyan,triangle
0.0,4.0,0.0,0.0,3.0,3.0,428.4411119879223,4.0,1.0,part_1,,,,,,,,,,,,,green,circle
116.0,2.0,2.0,0.0,3.0,3.0,460.728031990584,4.0,1.0,part_1,,,,,,,,,,,,,yellow,cross
403.0,8.0,4.0,1.0,2.0,2.0,494.0668109920807,4.0,1.0,part_1,,,,,,,,,,,,,blue,diamond
0.0,5.0,1.0,1.0,6.0,6.0,358.0345799855422,1.0,0.0,part_2,go,250.0,250.0,1.0,,,,,,,,,white,square
0.0,6.0,2.0,1.0,5.0,5.0,507.6290259894449,1.0,0.0,part_2,stop,250.0,250.0,3.0,,,,,,,,,magenta,I
0.0,1.0,1.0,0.0,5.0,5.0,690.1356330199633,1.0,0.0,part_2,go,200.0,250.0,1.0,,,,,,,,,orange,flipped triangle
0.0,5.0,1.0,1.0,6.0,0.0,0.0,1.0,0.0,part_2,stop,200.0,250.0,4.0,,,,,,,,,white,square
0.0,5.0,1.0,1.0,6.0,0.0,0.0,1.0,0.0,part_2,stop,200.0,300.0,4.0,,,,,,,,,white,square
0.0,3.0,3.0,0.0,6.0,6.0,413.4553089970723,1.0,0.0,part_2,go,200.0,350.0,1.0,,,,,,,,,gray,hexagon
0.0,4.0,4.0,0.0,5.0,5.0,447.0176699978765,1.0,0.0,part_2,go,200.0,350.0,1.0,,,,,,,,,green,circle
0.0,4.0,4.0,0.0,6.0,6.0,615.5375569942407,1.0,0.0,part_2,go,200.0,350.0,1.0,,,,,,,,,green,circle
0.0,2.0,2.0,0.0,5.0,5.0,338.2498380087781,1.0,0.0,part_2,go,200.0,350.0,1.0,,,,,,,,,yellow,cross
0.0,3.0,3.0,0.0,5.0,5.0,484.4156160252169,1.0,0.0,part_2,go,200.0,350.0,1.0,,,,,,,,,gray,hexagon
0.0,2.0,2.0,0.0,6.0,6.0,483.44870100845577,1.0,0.0,part_2,go,200.0,350.0,1.0,,,,,,,,,yellow,cross
0.0,6.0,2.0,1.0,6.0,6.0,371.8581730208825,1.0,0.0,part_2,go,200.0,350.0,1.0,,,,,,,,,magenta,I
0.0,2.0,2.0,0.0,5.0,5.0,294.3824139947537,1.0,0.0,part_2,go,200.0,350.0,1.0,,,,,,,,,yellow,cross
0.0,7.0,3.0,1.0,5.0,0.0,0.0,1.0,0.0,part_2,stop,200.0,350.0,4.0,,,,,,,,,cyan,triangle
0.0,2.0,2.0,0.0,6.0,6.0,779.5693369989749,1.0,0.0,part_2,go,250.0,350.0,1.0,,,,,,,,,yellow,cross
0.0,2.0,2.0,0.0,5.0,5.0,759.4814420153853,1.0,0.0,part_2,go,250.0,350.0,1.0,,,,,,,,,yellow,cross
0.0,1.0,1.0,0.0,6.0,6.0,804.4978420075495,1.0,0.0,part_2,go,250.0,350.0,1.0,,,,,,,,,orange,flipped triangle
0.0,7.0,3.0,1.0,5.0,0.0,0.0,1.0,0.0,part_2,stop,250.0,350.0,4.0,,,,,,,,,cyan,triangle
0.0,4.0,4.0,0.0,6.0,6.0,951.2629810196812,1.0,0.0,part_2,go,300.0,350.0,1.0,,,,,,,,,green,circle
0.0,4.0,4.0,0.0,5.0,5.0,527.4476349877659,1.0,0.0,part_2,go,300.0,350.0,1.0,,,,,,,,,green,circle
0.0,5.0,1.0,1.0,6.0,6.0,897.2230160143226,1.0,0.0,part_2,go,300.0,350.0,1.0,,,,,,,,,white,square
0.0,5.0,1.0,1.0,6.0,0.0,0.0,1.0,0.0,part_2,stop,300.0,350.0,4.0,,,,,,,,,white,square
0.0,6.0,2.0,1.0,5.0,0.0,0.0,1.0,0.0,part_2,stop,300.0,400.0,4.0,,,,,,,,,magenta,I
0.0,2.0,2.0,0.0,6.0,6.0,1011.5024789993186,1.0,0.0,part_2,go,350.0,400.0,1.0,,,,,,,,,yellow,cross
0.0,1.0,1.0,0.0,5.0,5.0,877.2083870135248,1.0,0.0,part_2,go,350.0,400.0,1.0,,,,,,,,,orange,flipped triangle
0.0,8.0,4.0,1.0,5.0,5.0,597.7663420198951,1.0,0.0,part_2,go,350.0,400.0,1.0,,,,,,,,,blue,diamond
0.0,3.0,3.0,0.0,6.0,6.0,654.4870929792523,1.0,0.0,part_2,go,350.0,400.0,1.0,,,,,,,,,gray,hexagon
0.0,4.0,4.0,0.0,6.0,6.0,587.6391560013872,1.0,0.0,part_2,go,350.0,400.0,1.0,,,,,,,,,green,circle
0.0,1.0,1.0,0.0,6.0,6.0,558.427757001482,1.0,0.0,part_2,go,350.0,400.0,1.0,,,,,,,,,orange,flipped triangle
0.0,3.0,3.0,0.0,6.0,6.0,636.6663270164281,1.0,0.0,part_2,go,350.0,400.0,1.0,,,,,,,,,gray,hexagon
0.0,8.0,4.0,1.0,6.0,6.0,399.0376479923725,1.0,0.0,part_2,stop,350.0,400.0,3.0,,,,,,,,,blue,diamond
0.0,4.0,4.0,0.0,5.0,5.0,579.5432370214257,1.0,0.0,part_2,go,350.0,350.0,1.0,,,,,,,,,green,circle
0.0,4.0,4.0,0.0,5.0,5.0,706.238006008789,1.0,0.0,part_2,go,350.0,350.0,1.0,,,,,,,,,green,circle
0.0,7.0,3.0,1.0,5.0,0.0,0.0,1.0,0.0,part_2,stop,350.0,350.0,4.0,,,,,,,,,cyan,triangle
0.0,4.0,4.0,0.0,6.0,6.0,639.0858189843129,1.0,0.0,part_2,go,400.0,350.0,1.0,,,,,,,,,green,circle
0.0,1.0,1.0,0.0,6.0,6.0,594.8397440079134,1.0,0.0,part_2,go,400.0,350.0,1.0,,,,,,,,,orange,flipped triangle
0.0,7.0,3.0,1.0,6.0,6.0,564.2427450220566,2.0,0.0,part_2,stop,400.0,350.0,3.0,,,,,,,,,cyan,triangle
0.0,4.0,4.0,0.0,6.0,6.0,397.2804390068631,2.0,0.0,part_2,go,400.0,300.0,1.0,,,,,,,,,green,circle
0.0,6.0,2.0,1.0,6.0,6.0,488.4074860019609,2.0,0.0,part_2,stop,400.0,300.0,3.0,,,,,,,,,magenta,I
0.0,1.0,1.0,0.0,5.0,5.0,645.337787020253,2.0,0.0,part_2,go,400.0,250.0,1.0,,,,,,,,,orange,flipped triangle
0.0,6.0,2.0,1.0,6.0,0.0,0.0,2.0,0.0,part_2,stop,400.0,250.0,4.0,,,,,,,,,magenta,I
0.0,6.0,2.0,1.0,6.0,0.0,0.0,2.0,0.0,part_2,stop,400.0,300.0,4.0,,,,,,,,,magenta,I
0.0,7.0,3.0,1.0,5.0,5.0,380.8882749872282,2.0,0.0,part_2,stop,400.0,350.0,3.0,,,,,,,,,cyan,triangle
0.0,4.0,4.0,0.0,5.0,5.0,640.4695640085265,2.0,0.0,part_2,go,350.0,350.0,1.0,,,,,,,,,green,circle
0.0,4.0,4.0,0.0,6.0,6.0,776.3966899947263,2.0,0.0,part_2,go,350.0,350.0,1.0,,,,,,,,,green,circle
0.0,1.0,1.0,0.0,6.0,6.0,640.6007169862278,2.0,0.0,part_2,go,350.0,350.0,1.0,,,,,,,,,orange,flipped triangle
0.0,1.0,1.0,0.0,6.0,6.0,472.6734980067704,2.0,0.0,part_2,go,350.0,350.0,1.0,,,,,,,,,orange,flipped triangle
0.0,5.0,1.0,1.0,5.0,0.0,0.0,2.0,0.0,part_2,stop,350.0,350.0,4.0,,,,,,,,,white,square
0.0,5.0,1.0,1.0,6.0,0.0,0.0,2.0,0.0,part_2,stop,400.0,350.0,4.0,,,,,,,,,white,square
0.0,1.0,1.0,0.0,5.0,5.0,1049.6171560080256,2.0,0.0,part_2,go,400.0,400.0,1.0,,,,,,,,,orange,flipped triangle
0.0,3.0,3.0,0.0,5.0,5.0,698.7471639877185,2.0,0.0,part_2,go,400.0,400.0,1.0,,,,,,,,,gray,hexagon
0.0,5.0,1.0,1.0,5.0,5.0,666.2340830080211,2.0,0.0,part_2,go,400.0,400.0,1.0,,,,,,,,,white,square
0.0,8.0,4.0,1.0,6.0,0.0,0.0,2.0,0.0,part_2,stop,400.0,400.0,4.0,,,,,,,,,blue,diamond
0.0,5.0,1.0,1.0,6.0,0.0,0.0,2.0,0.0,part_2,stop,400.0,450.0,4.0,,,,,,,,,white,square
0.0,1.0,1.0,0.0,5.0,5.0,363.8527159928344,2.0,0.0,part_2,go,400.0,500.0,1.0,,,,,,,,,orange,flipped triangle
0.0,7.0,3.0,1.0,6.0,0.0,0.0,2.0,0.0,part_2,stop,400.0,500.0,4.0,,,,,,,,,cyan,triangle
0.0,6.0,2.0,1.0,5.0,0.0,0.0,2.0,0.0,part_2,stop,400.0,550.0,4.0,,,,,,,,,magenta,I
0.0,6.0,2.0,1.0,5.0,5.0,985.8221860195044,2.0,0.0,part_2,go,450.0,550.0,1.0,,,,,,,,,magenta,I
0.0,1.0,1.0,0.0,5.0,5.0,933.072860003449,2.0,0.0,part_2,go,450.0,550.0,1.0,,,,,,,,,orange,flipped triangle
0.0,7.0,3.0,1.0,6.0,0.0,0.0,2.0,0.0,part_2,stop,450.0,550.0,4.0,,,,,,,,,cyan,triangle
0.0,7.0,3.0,1.0,6.0,0.0,0.0,2.0,0.0,part_2,stop,450.0,600.0,4.0,,,,,,,,,cyan,triangle
0.0,7.0,3.0,1.0,6.0,0.0,0.0,2.0,0.0,part_2,stop,450.0,650.0,4.0,,,,,,,,,cyan,triangle
0.0,3.0,3.0,0.0,6.0,0.0,0.0,2.0,0.0,part_2,go,450.0,700.0,5.0,,,,,,,,,gray,hexagon
0.0,4.0,4.0,0.0,6.0,6.0,473.3101190067827,2.0,0.0,part_2,go,450.0,700.0,1.0,,,,,,,,,green,circle
0.0,8.0,4.0,1.0,6.0,6.0,374.9528609914705,2.0,0.0,part_2,stop,450.0,700.0,3.0,,,,,,,,,blue,diamond
0.0,1.0,1.0,0.0,6.0,6.0,564.7243380080909,2.0,0.0,part_2,go,450.0,650.0,1.0,,,,,,,,,orange,flipped triangle
0.0,6.0,2.0,1.0,5.0,5.0,444.9051829869859,2.0,0.0,part_2,stop,450.0,650.0,3.0,,,,,,,,,magenta,I
0.0,3.0,3.0,0.0,6.0,6.0,491.0712659766432,2.0,0.0,part_2,go,400.0,650.0,1.0,,,,,,,,,gray,hexagon
0.0,8.0,4.0,1.0,6.0,6.0,432.0784750161692,2.0,0.0,part_2,stop,400.0,650.0,3.0,,,,,,,,,blue,diamond
0.0,5.0,1.0,1.0,6.0,6.0,347.1941419993527,2.0,0.0,part_2,go,400.0,600.0,1.0,,,,,,,,,white,square
0.0,8.0,4.0,1.0,5.0,5.0,310.6399899988901,2.0,0.0,part_2,stop,400.0,600.0,3.0,,,,,,,,,blue,diamond
0.0,3.0,3.0,0.0,5.0,5.0,369.6025510143954,2.0,0.0,part_2,go,350.0,600.0,1.0,,,,,,,,,gray,hexagon
0.0,6.0,2.0,1.0,6.0,6.0,461.7839679995086,3.0,0.0,part_2,stop,350.0,600.0,3.0,,,,,,,,,magenta,I
0.0,1.0,1.0,0.0,6.0,6.0,462.4539620126597,3.0,0.0,part_2,go,350.0,550.0,1.0,,,,,,,,,orange,flipped triangle
0.0,7.0,3.0,1.0,6.0,6.0,373.280147992773,3.0,0.0,part_2,stop,350.0,550.0,3.0,,,,,,,,,cyan,triangle
0.0,7.0,3.0,1.0,5.0,5.0,497.3384120094124,3.0,0.0,part_2,go,350.0,500.0,1.0,,,,,,,,,cyan,triangle
0.0,8.0,4.0,1.0,6.0,6.0,556.9892270141281,3.0,0.0,part_2,stop,350.0,500.0,3.0,,,,,,,,,blue,diamond
0.0,7.0,3.0,1.0,5.0,5.0,343.595999001991,3.0,0.0,part_2,go,350.0,450.0,1.0,,,,,,,,,cyan,triangle
0.0,3.0,3.0,0.0,6.0,6.0,578.2908370019868,3.0,0.0,part_2,go,350.0,450.0,1.0,,,,,,,,,gray,hexagon
0.0,6.0,2.0,1.0,6.0,6.0,489.5856489893049,3.0,0.0,part_2,stop,350.0,450.0,3.0,,,,,,,,,magenta,I
0.0,5.0,1.0,1.0,5.0,5.0,389.9260099860839,3.0,0.0,part_2,stop,350.0,400.0,3.0,,,,,,,,,white,square
0.0,3.0,3.0,0.0,5.0,5.0,445.9657429833896,3.0,0.0,part_2,go,300.0,400.0,1.0,,,,,,,,,gray,hexagon
0.0,7.0,3.0,1.0,6.0,6.0,911.1921020084992,3.0,0.0,part_2,go,300.0,400.0,1.0,,,,,,,,,cyan,triangle
0.0,2.0,2.0,0.0,5.0,5.0,585.3680940053891,3.0,0.0,part_2,go,300.0,400.0,1.0,,,,,,,,,yellow,cross
0.0,3.0,3.0,0.0,5.0,5.0,347.9099929973017,3.0,0.0,part_2,go,300.0,400.0,1.0,,,,,,,,,gray,hexagon
0.0,8.0,4.0,1.0,6.0,0.0,0.0,3.0,0.0,part_2,stop,300.0,400.0,4.0,,,,,,,,,blue,diamond
0.0,3.0,3.0,0.0,5.0,5.0,327.0416470186319,3.0,0.0,part_2,go,300.0,450.0,1.0,,,,,,,,,gray,hexagon
0.0,1.0,1.0,0.0,6.0,6.0,768.6921580170747,3.0,0.0,part_2,go,300.0,450.0,1.0,,,,,,,,,orange,flipped triangle
0.0,8.0,4.0,1.0,6.0,0.0,0.0,3.0,0.0,part_2,stop,300.0,450.0,4.0,,,,,,,,,blue,diamond
0.0,6.0,2.0,1.0,5.0,0.0,0.0,3.0,0.0,part_2,stop,300.0,500.0,4.0,,,,,,,,,magenta,I
0.0,4.0,4.0,0.0,6.0,6.0,690.074141981313,3.0,0.0,part_2,go,350.0,500.0,1.0,,,,,,,,,green,circle
0.0,4.0,4.0,0.0,5.0,5.0,410.0606830033939,3.0,0.0,part_2,go,350.0,500.0,1.0,,,,,,,,,green,circle
0.0,3.0,3.0,0.0,6.0,6.0,749.9086110037751,3.0,0.0,part_2,go,350.0,500.0,1.0,,,,,,,,,gray,hexagon
0.0,3.0,3.0,0.0,5.0,5.0,604.2923739878461,3.0,0.0,part_2,go,350.0,500.0,1.0,,,,,,,,,gray,hexagon
0.0,8.0,4.0,1.0,6.0,6.0,324.4154470157809,3.0,0.0,part_2,go,350.0,500.0,1.0,,,,,,,,,blue,diamond
0.0,7.0,3.0,1.0,5.0,5.0,425.1870659936685,3.0,0.0,part_2,stop,350.0,500.0,3.0,,,,,,,,,cyan,triangle
0.0,6.0,2.0,1.0,5.0,0.0,0.0,3.0,0.0,part_2,stop,300.0,500.0,4.0,,,,,,,,,magenta,I
0.0,1.0,1.0,0.0,6.0,6.0,1024.2146480013616,3.0,0.0,part_2,go,350.0,500.0,1.0,,,,,,,,,orange,flipped triangle
0.0,2.0,2.0,0.0,6.0,6.0,697.5513900106307,3.0,0.0,part_2,go,350.0,500.0,1.0,,,,,,,,,yellow,cross
0.0,3.0,3.0,0.0,6.0,6.0,373.6549300083425,3.0,0.0,part_2,go,350.0,500.0,1.0,,,,,,,,,gray,hexagon
0.0,5.0,1.0,1.0,5.0,0.0,0.0,3.0,0.0,part_2,stop,350.0,500.0,4.0,,,,,,,,,white,square
0.0,5.0,1.0,1.0,5.0,5.0,441.2593439919874,3.0,0.0,part_2,stop,400.0,500.0,3.0,,,,,,,,,white,square
0.0,3.0,3.0,0.0,6.0,6.0,680.6425229879096,3.0,0.0,part_2,go,350.0,500.0,1.0,,,,,,,,,gray,hexagon
0.0,5.0,1.0,1.0,6.0,6.0,602.9634389851708,3.0,0.0,part_2,stop,350.0,500.0,3.0,,,,,,,,,white,square
0.0,2.0,2.0,0.0,5.0,5.0,1186.410562018864,3.0,0.0,part_2,go,350.0,450.0,1.0,,,,,,,,,yellow,cross
0.0,6.0,2.0,1.0,5.0,5.0,638.8228069990873,3.0,0.0,part_2,go,350.0,450.0,1.0,,,,,,,,,magenta,I
0.0,6.0,2.0,1.0,6.0,6.0,333.8828760024626,3.0,0.0,part_2,go,350.0,450.0,1.0,,,,,,,,,magenta,I
0.0,6.0,2.0,1.0,6.0,6.0,707.9476070066448,3.0,0.0,part_2,go,350.0,450.0,1.0,,,,,,,,,magenta,I
0.0,5.0,1.0,1.0,6.0,6.0,397.9685920057818,4.0,0.0,part_2,stop,350.0,450.0,3.0,,,,,,,,,white,square
0.0,5.0,1.0,1.0,5.0,5.0,375.1290910004172,4.0,0.0,part_2,stop,350.0,400.0,3.0,,,,,,,,,white,square
0.0,4.0,4.0,0.0,6.0,6.0,554.3864660139661,4.0,0.0,part_2,go,300.0,400.0,1.0,,,,,,,,,green,circle
0.0,4.0,4.0,0.0,6.0,6.0,295.76985599123867,4.0,0.0,part_2,go,300.0,400.0,1.0,,,,,,,,,green,circle
0.0,6.0,2.0,1.0,5.0,5.0,332.4226149998139,4.0,0.0,part_2,go,300.0,400.0,1.0,,,,,,,,,magenta,I
0.0,8.0,4.0,1.0,5.0,5.0,299.7043390059843,4.0,0.0,part_2,go,300.0,400.0,1.0,,,,,,,,,blue,diamond
0.0,8.0,4.0,1.0,5.0,5.0,335.3052320017013,4.0,0.0,part_2,stop,300.0,400.0,3.0,,,,,,,,,blue,diamond
0.0,2.0,2.0,0.0,5.0,5.0,478.9025769860018,4.0,0.0,part_2,go,250.0,400.0,1.0,,,,,,,,,yellow,cross
0.0,7.0,3.0,1.0,5.0,5.0,370.0803459796589,4.0,0.0,part_2,stop,250.0,400.0,3.0,,,,,,,,,cyan,triangle
0.0,2.0,2.0,0.0,5.0,5.0,650.3417680214625,4.0,0.0,part_2,go,200.0,400.0,1.0,,,,,,,,,yellow,cross
0.0,7.0,3.0,1.0,5.0,5.0,324.4252760196104,4.0,0.0,part_2,stop,200.0,400.0,3.0,,,,,,,,,cyan,triangle
0.0,7.0,3.0,1.0,6.0,6.0,359.9422340048477,4.0,0.0,part_2,stop,150.0,400.0,3.0,,,,,,,,,cyan,triangle
0.0,3.0,3.0,0.0,6.0,6.0,663.182112009963,4.0,0.0,part_2,go,150.0,350.0,1.0,,,,,,,,,gray,hexagon
0.0,8.0,4.0,1.0,5.0,0.0,0.0,4.0,0.0,part_2,stop,150.0,350.0,4.0,,,,,,,,,blue,diamond
0.0,3.0,3.0,0.0,5.0,5.0,732.726547983475,4.0,0.0,part_2,go,200.0,350.0,1.0,,,,,,,,,gray,hexagon
0.0,8.0,4.0,1.0,5.0,0.0,0.0,4.0,0.0,part_2,stop,200.0,350.0,4.0,,,,,,,,,blue,diamond
0.0,6.0,2.0,1.0,5.0,5.0,726.4841010037344,4.0,0.0,part_2,go,250.0,350.0,1.0,,,,,,,,,magenta,I
0.0,8.0,4.0,1.0,5.0,0.0,0.0,4.0,0.0,part_2,stop,250.0,350.0,4.0,,,,,,,,,blue,diamond
0.0,6.0,2.0,1.0,5.0,0.0,0.0,4.0,0.0,part_2,stop,300.0,350.0,4.0,,,,,,,,,magenta,I
0.0,1.0,1.0,0.0,6.0,6.0,365.1144479808863,4.0,0.0,part_2,go,350.0,350.0,1.0,,,,,,,,,orange,flipped triangle
0.0,6.0,2.0,1.0,6.0,0.0,0.0,4.0,0.0,part_2,stop,350.0,350.0,4.0,,,,,,,,,magenta,I
0.0,5.0,1.0,1.0,5.0,5.0,547.4025760195218,4.0,0.0,part_2,go,350.0,400.0,1.0,,,,,,,,,white,square
0.0,6.0,2.0,1.0,5.0,0.0,0.0,4.0,0.0,part_2,stop,350.0,400.0,4.0,,,,,,,,,magenta,I
0.0,4.0,4.0,0.0,6.0,6.0,528.4372820169665,4.0,0.0,part_2,go,400.0,400.0,1.0,,,,,,,,,green,circle
0.0,1.0,1.0,0.0,5.0,5.0,448.4212009992916,4.0,0.0,part_2,go,400.0,400.0,1.0,,,,,,,,,orange,flipped triangle
0.0,5.0,1.0,1.0,6.0,6.0,609.004599013133,4.0,0.0,part_2,go,400.0,400.0,1.0,,,,,,,,,white,square
0.0,2.0,2.0,0.0,6.0,6.0,326.3262069958728,4.0,0.0,part_2,go,400.0,400.0,1.0,,,,,,,,,yellow,cross
0.0,5.0,1.0,1.0,6.0,6.0,383.8268850231543,4.0,0.0,part_2,stop,400.0,400.0,3.0,,,,,,,,,white,square
0.0,4.0,4.0,0.0,6.0,6.0,567.4869069771376,4.0,0.0,part_2,go,400.0,350.0,1.0,,,,,,,,,green,circle
0.0,4.0,4.0,0.0,5.0,5.0,599.889200006146,4.0,0.0,part_2,go,400.0,350.0,1.0,,,,,,,,,green,circle
0.0,8.0,4.0,1.0,5.0,5.0,565.3763610171154,4.0,0.0,part_2,go,400.0,350.0,1.0,,,,,,,,,blue,diamond
0.0,6.0,2.0,1.0,5.0,0.0,0.0,4.0,0.0,part_2,stop,400.0,350.0,4.0,,,,,,,,,magenta,I
0.0,8.0,4.0,1.0,5.0,0.0,0.0,4.0,0.0,part_2,stop,450.0,350.0,4.0,,,,,,,,,blue,diamond
0.0,4.0,4.0,0.0,5.0,5.0,649.8254599864595,4.0,0.0,part_2,go,500.0,350.0,1.0,,,,,,,,,green,circle
0.0,3.0,3.0,0.0,6.0,6.0,569.8912959778681,4.0,0.0,part_2,go,500.0,350.0,1.0,,,,,,,,,gray,hexagon
0.0,6.0,2.0,1.0,6.0,6.0,375.359046010999,4.0,0.0,part_2,stop,500.0,350.0,3.0,,,,,,,,,magenta,I
0.0,2.0,2.0,0.0,6.0,6.0,510.0647379877046,5.0,0.0,part_2,go,500.0,300.0,1.0,,,,,,,,,yellow,cross
0.0,3.0,3.0,0.0,5.0,5.0,429.8046469921246,5.0,0.0,part_2,go,500.0,300.0,1.0,,,,,,,,,gray,hexagon
0.0,4.0,4.0,0.0,5.0,5.0,375.4167510196566,5.0,0.0,part_2,go,500.0,300.0,1.0,,,,,,,,,green,circle
0.0,5.0,1.0,1.0,6.0,6.0,387.3588139831554,5.0,0.0,part_2,stop,500.0,300.0,3.0,,,,,,,,,white,square
0.0,2.0,2.0,0.0,6.0,6.0,527.2496530087665,5.0,0.0,part_2,go,500.0,250.0,1.0,,,,,,,,,yellow,cross
0.0,8.0,4.0,1.0,5.0,5.0,492.9268779815174,5.0,0.0,part_2,stop,500.0,250.0,3.0,,,,,,,,,blue,diamond
0.0,5.0,1.0,1.0,5.0,5.0,414.2236119951121,5.0,0.0,part_2,go,450.0,250.0,1.0,,,,,,,,,white,square
0.0,1.0,1.0,0.0,6.0,6.0,450.7089039834682,5.0,0.0,part_2,go,450.0,250.0,1.0,,,,,,,,,orange,flipped triangle
0.0,8.0,4.0,1.0,5.0,5.0,302.9328899865504,5.0,0.0,part_2,go,450.0,250.0,1.0,,,,,,,,,blue,diamond
0.0,7.0,3.0,1.0,5.0,5.0,335.575119999703,5.0,0.0,part_2,stop,450.0,250.0,3.0,,,,,,,,,cyan,triangle
0.0,7.0,3.0,1.0,6.0,0.0,0.0,5.0,0.0,part_2,stop,400.0,250.0,4.0,,,,,,,,,cyan,triangle
0.0,1.0,1.0,0.0,5.0,5.0,563.9348149998114,5.0,0.0,part_2,go,400.0,300.0,1.0,,,,,,,,,orange,flipped triangle
0.0,4.0,4.0,0.0,5.0,5.0,531.1203600140288,5.0,0.0,part_2,go,400.0,300.0,1.0,,,,,,,,,green,circle
0.0,6.0,2.0,1.0,6.0,6.0,497.4468990112655,5.0,0.0,part_2,go,400.0,300.0,1.0,,,,,,,,,magenta,I
0.0,6.0,2.0,1.0,5.0,5.0,263.5804319870658,5.0,0.0,part_2,stop,400.0,300.0,3.0,,,,,,,,,magenta,I
0.0,1.0,1.0,0.0,5.0,5.0,343.8826049969066,5.0,0.0,part_2,go,350.0,300.0,1.0,,,,,,,,,orange,flipped triangle
0.0,2.0,2.0,0.0,6.0,6.0,478.5993700206745,5.0,0.0,part_2,go,350.0,300.0,1.0,,,,,,,,,yellow,cross
0.0,3.0,3.0,0.0,5.0,5.0,376.1942429991904,5.0,0.0,part_2,go,350.0,300.0,1.0,,,,,,,,,gray,hexagon
0.0,7.0,3.0,1.0,5.0,5.0,391.2358800007496,5.0,0.0,part_2,go,350.0,300.0,1.0,,,,,,,,,cyan,triangle
0.0,5.0,1.0,1.0,6.0,0.0,0.0,5.0,0.0,part_2,stop,350.0,300.0,4.0,,,,,,,,,white,square
0.0,8.0,4.0,1.0,5.0,5.0,356.0855440155137,5.0,0.0,part_2,go,350.0,350.0,1.0,,,,,,,,,blue,diamond
0.0,8.0,4.0,1.0,5.0,0.0,0.0,5.0,0.0,part_2,stop,350.0,350.0,4.0,,,,,,,,,blue,diamond
0.0,3.0,3.0,0.0,6.0,6.0,743.6335870006587,5.0,0.0,part_2,go,400.0,350.0,1.0,,,,,,,,,gray,hexagon
0.0,8.0,4.0,1.0,5.0,5.0,422.0021899964195,5.0,0.0,part_2,stop,400.0,350.0,3.0,,,,,,,,,blue,diamond
0.0,4.0,4.0,0.0,5.0,5.0,633.5484099981841,5.0,0.0,part_2,go,350.0,350.0,1.0,,,,,,,,,green,circle
0.0,6.0,2.0,1.0,6.0,0.0,0.0,5.0,0.0,part_2,stop,350.0,350.0,4.0,,,,,,,,,magenta,I
0.0,8.0,4.0,1.0,5.0,5.0,383.8202119804919,5.0,0.0,part_2,stop,350.0,400.0,3.0,,,,,,,,,blue,diamond
0.0,2.0,2.0,0.0,5.0,5.0,713.6633990157861,5.0,0.0,part_2,go,300.0,400.0,1.0,,,,,,,,,yellow,cross
0.0,8.0,4.0,1.0,6.0,0.0,0.0,5.0,0.0,part_2,stop,300.0,400.0,4.0,,,,,,,,,blue,diamond
0.0,3.0,3.0,0.0,6.0,6.0,668.337622017134,5.0,0.0,part_2,go,300.0,450.0,1.0,,,,,,,,,gray,hexagon
0.0,2.0,2.0,0.0,6.0,6.0,802.7964560023975,5.0,0.0,part_2,go,300.0,450.0,1.0,,,,,,,,,yellow,cross
0.0,7.0,3.0,1.0,5.0,0.0,0.0,5.0,0.0,part_2,stop,300.0,450.0,4.0,,,,,,,,,cyan,triangle
0.0,7.0,3.0,1.0,5.0,5.0,624.911628983682,5.0,0.0,part_2,go,350.0,450.0,1.0,,,,,,,,,cyan,triangle
0.0,6.0,2.0,1.0,5.0,0.0,0.0,5.0,0.0,part_2,stop,350.0,450.0,4.0,,,,,,,,,magenta,I
0.0,8.0,4.0,1.0,6.0,6.0,473.2196079858113,5.0,0.0,part_2,stop,400.0,450.0,3.0,,,,,,,,,blue,diamond
0.0,4.0,4.0,0.0,5.0,5.0,628.0603169871029,5.0,0.0,part_2,go,400.0,400.0,1.0,,,,,,,,,green,circle
0.0,5.0,1.0,1.0,5.0,5.0,424.43309398368,6.0,0.0,part_2,stop,400.0,400.0,3.0,,,,,,,,,white,square
0.0,6.0,2.0,1.0,6.0,6.0,319.954836013494,6.0,0.0,part_2,stop,350.0,400.0,3.0,,,,,,,,,magenta,I
0.0,2.0,2.0,0.0,5.0,5.0,331.7776969925035,6.0,0.0,part_2,go,350.0,350.0,1.0,,,,,,,,,yellow,cross
0.0,8.0,4.0,1.0,6.0,6.0,274.2524390050675,6.0,0.0,part_2,go,350.0,350.0,1.0,,,,,,,,,blue,diamond
0.0,1.0,1.0,0.0,5.0,5.0,287.4984800000675,6.0,0.0,part_2,go,350.0,350.0,1.0,,,,,,,,,orange,flipped triangle
0.0,5.0,1.0,1.0,6.0,6.0,312.9225049924571,6.0,0.0,part_2,go,350.0,350.0,1.0,,,,,,,,,white,square
0.0,1.0,1.0,0.0,6.0,6.0,772.9664480139036,6.0,0.0,part_2,go,350.0,350.0,1.0,,,,,,,,,orange,flipped triangle
0.0,5.0,1.0,1.0,6.0,6.0,323.9799410221167,6.0,0.0,part_2,stop,350.0,350.0,3.0,,,,,,,,,white,square
0.0,1.0,1.0,0.0,5.0,5.0,404.8656359955203,6.0,0.0,part_2,go,350.0,300.0,1.0,,,,,,,,,orange,flipped triangle
0.0,3.0,3.0,0.0,5.0,5.0,392.9576269874815,6.0,0.0,part_2,go,350.0,300.0,1.0,,,,,,,,,gray,hexagon
0.0,8.0,4.0,1.0,6.0,6.0,380.5761929834261,6.0,0.0,part_2,stop,350.0,300.0,3.0,,,,,,,,,blue,diamond
0.0,3.0,3.0,0.0,5.0,5.0,283.5020890051964,6.0,0.0,part_2,go,350.0,250.0,1.0,,,,,,,,,gray,hexagon
0.0,5.0,1.0,1.0,5.0,0.0,0.0,6.0,0.0,part_2,stop,350.0,250.0,4.0,,,,,,,,,white,square
0.0,2.0,2.0,0.0,5.0,5.0,508.82618202012964,6.0,0.0,part_2,go,400.0,250.0,1.0,,,,,,,,,yellow,cross
0.0,7.0,3.0,1.0,6.0,0.0,0.0,6.0,0.0,part_2,stop,400.0,250.0,4.0,,,,,,,,,cyan,triangle
0.0,3.0,3.0,0.0,5.0,5.0,464.0000330109615,6.0,0.0,part_2,go,400.0,300.0,1.0,,,,,,,,,gray,hexagon
0.0,6.0,2.0,1.0,6.0,0.0,0.0,6.0,0.0,part_2,stop,400.0,300.0,4.0,,,,,,,,,magenta,I
0.0,5.0,1.0,1.0,5.0,5.0,333.3398120012134,6.0,0.0,part_2,stop,400.0,350.0,3.0,,,,,,,,,white,square
0.0,2.0,2.0,0.0,6.0,6.0,681.2199869891629,6.0,0.0,part_2,go,350.0,350.0,1.0,,,,,,,,,yellow,cross
0.0,3.0,3.0,0.0,6.0,6.0,570.5191110027954,6.0,0.0,part_2,go,350.0,350.0,1.0,,,,,,,,,gray,hexagon
0.0,8.0,4.0,1.0,5.0,5.0,468.5582579986658,6.0,0.0,part_2,stop,350.0,350.0,3.0,,,,,,,,,blue,diamond
0.0,5.0,1.0,1.0,5.0,0.0,0.0,6.0,0.0,part_2,stop,300.0,350.0,4.0,,,,,,,,,white,square
0.0,3.0,3.0,0.0,6.0,6.0,549.5809259882662,6.0,0.0,part_2,go,350.0,350.0,1.0,,,,,,,,,gray,hexagon
0.0,8.0,4.0,1.0,6.0,6.0,496.4597839862108,6.0,0.0,part_2,go,350.0,350.0,1.0,,,,,,,,,blue,diamond
0.0,2.0,2.0,0.0,5.0,5.0,350.2697549993172,6.0,0.0,part_2,go,350.0,350.0,1.0,,,,,,,,,yellow,cross
0.0,3.0,3.0,0.0,6.0,6.0,382.3870100022759,6.0,0.0,part_2,go,350.0,350.0,1.0,,,,,,,,,gray,hexagon
0.0,4.0,4.0,0.0,6.0,6.0,306.9998930150177,6.0,0.0,part_2,go,350.0,350.0,1.0,,,,,,,,,green,circle
0.0,7.0,3.0,1.0,6.0,6.0,473.8656220142729,6.0,0.0,part_2,stop,350.0,350.0,3.0,,,,,,,,,cyan,triangle
0.0,5.0,1.0,1.0,5.0,0.0,0.0,6.0,0.0,part_2,stop,350.0,300.0,4.0,,,,,,,,,white,square
0.0,4.0,4.0,0.0,5.0,5.0,385.8832659898326,6.0,0.0,part_2,go,400.0,300.0,1.0,,,,,,,,,green,circle
0.0,4.0,4.0,0.0,6.0,6.0,420.7071770215407,6.0,0.0,part_2,go,400.0,300.0,1.0,,,,,,,,,green,circle
0.0,2.0,2.0,0.0,5.0,5.0,589.5885149948299,6.0,0.0,part_2,go,400.0,300.0,1.0,,,,,,,,,yellow,cross
0.0,8.0,4.0,1.0,6.0,0.0,0.0,6.0,0.0,part_2,stop,400.0,300.0,4.0,,,,,,,,,blue,diamond
0.0,3.0,3.0,0.0,5.0,5.0,514.9799600185361,6.0,0.0,part_2,go,400.0,350.0,1.0,,,,,,,,,gray,hexagon
0.0,6.0,2.0,1.0,5.0,5.0,616.3354399905074,6.0,0.0,part_2,stop,400.0,350.0,3.0,,,,,,,,,magenta,I
0.0,3.0,3.0,0.0,6.0,6.0,606.3870399957523,6.0,0.0,part_2,go,350.0,350.0,1.0,,,,,,,,,gray,hexagon
0.0,1.0,1.0,0.0,5.0,5.0,358.6123250133823,7.0,0.0,part_2,go,350.0,350.0,1.0,,,,,,,,,orange,flipped triangle
0.0,3.0,3.0,0.0,5.0,5.0,414.4852039753459,7.0,0.0,part_2,go,350.0,350.0,1.0,,,,,,,,,gray,hexagon
0.0,8.0,4.0,1.0,6.0,6.0,516.2878170085605,7.0,0.0,part_2,stop,350.0,350.0,3.0,,,,,,,,,blue,diamond
0.0,3.0,3.0,0.0,5.0,5.0,325.0673149887007,7.0,0.0,part_2,go,350.0,300.0,1.0,,,,,,,,,gray,hexagon
0.0,1.0,1.0,0.0,5.0,5.0,553.096652001841,7.0,0.0,part_2,go,350.0,300.0,1.0,,,,,,,,,orange,flipped triangle
0.0,1.0,1.0,0.0,6.0,6.0,630.0450130074751,7.0,0.0,part_2,go,350.0,300.0,1.0,,,,,,,,,orange,flipped triangle
0.0,4.0,4.0,0.0,6.0,6.0,352.0130859978962,7.0,0.0,part_2,go,350.0,300.0,1.0,,,,,,,,,green,circle
0.0,8.0,4.0,1.0,6.0,0.0,0.0,7.0,0.0,part_2,stop,350.0,300.0,4.0,,,,,,,,,blue,diamond
0.0,4.0,4.0,0.0,6.0,6.0,463.7716620054561,7.0,0.0,part_2,go,350.0,350.0,1.0,,,,,,,,,green,circle
0.0,7.0,3.0,1.0,6.0,6.0,370.9875789936632,7.0,0.0,part_2,stop,350.0,350.0,3.0,,,,,,,,,cyan,triangle
0.0,6.0,2.0,1.0,5.0,5.0,409.2037589871324,7.0,0.0,part_2,stop,350.0,300.0,3.0,,,,,,,,,magenta,I
0.0,2.0,2.0,0.0,6.0,6.0,604.9812469864264,7.0,0.0,part_2,go,300.0,300.0,1.0,,,,,,,,,yellow,cross
0.0,6.0,2.0,1.0,5.0,0.0,0.0,7.0,0.0,part_2,stop,300.0,300.0,4.0,,,,,,,,,magenta,I
0.0,5.0,1.0,1.0,5.0,5.0,605.8145389833953,7.0,0.0,part_2,go,350.0,300.0,1.0,,,,,,,,,white,square
0.0,7.0,3.0,1.0,5.0,5.0,347.6179040153511,7.0,0.0,part_2,stop,350.0,300.0,3.0,,,,,,,,,cyan,triangle
0.0,8.0,4.0,1.0,6.0,0.0,0.0,7.0,0.0,part_2,stop,300.0,300.0,4.0,,,,,,,,,blue,diamond
0.0,1.0,1.0,0.0,5.0,5.0,575.9293540031649,7.0,0.0,part_2,go,300.0,350.0,1.0,,,,,,,,,orange,flipped triangle
0.0,5.0,1.0,1.0,5.0,0.0,0.0,7.0,0.0,part_2,stop,300.0,350.0,4.0,,,,,,,,,white,square
0.0,2.0,2.0,0.0,5.0,5.0,610.4063340171706,7.0,0.0,part_2,go,350.0,350.0,1.0,,,,,,,,,yellow,cross
0.0,6.0,2.0,1.0,6.0,0.0,0.0,7.0,0.0,part_2,stop,350.0,350.0,4.0,,,,,,,,,magenta,I
0.0,1.0,1.0,0.0,6.0,6.0,667.4299370206427,7.0,0.0,part_2,go,350.0,400.0,1.0,,,,,,,,,orange,flipped triangle
0.0,2.0,2.0,0.0,6.0,6.0,567.7299050148576,7.0,0.0,part_2,go,350.0,400.0,1.0,,,,,,,,,yellow,cross
0.0,4.0,4.0,0.0,6.0,6.0,400.7490139920264,7.0,0.0,part_2,go,350.0,400.0,1.0,,,,,,,,,green,circle
0.0,5.0,1.0,1.0,5.0,5.0,465.62786801951,7.0,0.0,part_2,stop,350.0,400.0,3.0,,,,,,,,,white,square
0.0,2.0,2.0,0.0,5.0,5.0,728.1703749904409,7.0,0.0,part_2,go,300.0,400.0,1.0,,,,,,,,,yellow,cross
0.0,2.0,2.0,0.0,6.0,6.0,424.4033409922849,7.0,0.0,part_2,go,300.0,400.0,1.0,,,,,,,,,yellow,cross
0.0,7.0,3.0,1.0,6.0,0.0,0.0,7.0,0.0,part_2,stop,300.0,400.0,4.0,,,,,,,,,cyan,triangle
0.0,7.0,3.0,1.0,5.0,0.0,0.0,7.0,0.0,part_2,stop,300.0,450.0,4.0,,,,,,,,,cyan,triangle
0.0,4.0,4.0,0.0,5.0,5.0,641.8812890187837,7.0,0.0,part_2,go,350.0,450.0,1.0,,,,,,,,,green,circle
0.0,2.0,2.0,0.0,6.0,0.0,0.0,7.0,0.0,part_2,go,350.0,450.0,5.0,,,,,,,,,yellow,cross
0.0,2.0,2.0,0.0,6.0,6.0,438.309446995845,7.0,0.0,part_2,go,350.0,450.0,1.0,,,,,,,,,yellow,cross
0.0,7.0,3.0,1.0,5.0,5.0,383.5731450235471,7.0,0.0,part_2,go,350.0,450.0,1.0,,,,,,,,,cyan,triangle
0.0,4.0,4.0,0.0,5.0,5.0,329.1282290010713,7.0,0.0,part_2,go,350.0,450.0,1.0,,,,,,,,,green,circle
0.0,1.0,1.0,0.0,6.0,6.0,499.3644019996281,7.0,0.0,part_2,go,350.0,450.0,1.0,,,,,,,,,orange,flipped triangle
0.0,2.0,2.0,0.0,5.0,5.0,375.7240150007419,7.0,0.0,part_2,go,350.0,450.0,1.0,,,,,,,,,yellow,cross
0.0,7.0,3.0,1.0,6.0,6.0,385.0553229858633,7.0,0.0,part_2,go,350.0,450.0,1.0,,,,,,,,,cyan,triangle
0.0,7.0,3.0,1.0,5.0,5.0,368.3392759994603,8.0,0.0,part_2,stop,350.0,450.0,3.0,,,,,,,,,cyan,triangle
0.0,2.0,2.0,0.0,5.0,5.0,603.5169099923223,8.0,0.0,part_2,go,300.0,450.0,1.0,,,,,,,,,yellow,cross
0.0,3.0,3.0,0.0,5.0,5.0,415.2707010216545,8.0,0.0,part_2,go,300.0,450.0,1.0,,,,,,,,,gray,hexagon
0.0,3.0,3.0,0.0,6.0,6.0,381.1983460036572,8.0,0.0,part_2,go,300.0,450.0,1.0,,,,,,,,,gray,hexagon
0.0,5.0,1.0,1.0,6.0,6.0,392.6016859768424,8.0,0.0,part_2,stop,300.0,450.0,3.0,,,,,,,,,white,square
0.0,7.0,3.0,1.0,5.0,5.0,359.6977419801987,8.0,0.0,part_2,go,300.0,400.0,1.0,,,,,,,,,cyan,triangle
0.0,6.0,2.0,1.0,6.0,0.0,0.0,8.0,0.0,part_2,stop,300.0,400.0,4.0,,,,,,,,,magenta,I
0.0,8.0,4.0,1.0,5.0,0.0,0.0,8.0,0.0,part_2,stop,300.0,450.0,4.0,,,,,,,,,blue,diamond
0.0,2.0,2.0,0.0,5.0,5.0,622.2913300152868,8.0,0.0,part_2,go,350.0,450.0,1.0,,,,,,,,,yellow,cross
0.0,6.0,2.0,1.0,6.0,6.0,471.6396380099468,8.0,0.0,part_2,stop,350.0,450.0,3.0,,,,,,,,,magenta,I
0.0,1.0,1.0,0.0,5.0,5.0,399.4241439795587,8.0,0.0,part_2,go,350.0,400.0,1.0,,,,,,,,,orange,flipped triangle
0.0,5.0,1.0,1.0,5.0,0.0,0.0,8.0,0.0,part_2,stop,350.0,400.0,4.0,,,,,,,,,white,square
0.0,5.0,1.0,1.0,5.0,0.0,0.0,8.0,0.0,part_2,stop,400.0,400.0,4.0,,,,,,,,,white,square
0.0,7.0,3.0,1.0,6.0,0.0,0.0,8.0,0.0,part_2,stop,450.0,400.0,4.0,,,,,,,,,cyan,triangle
0.0,1.0,1.0,0.0,6.0,5.0,682.3707410076167,8.0,0.0,part_2,go,450.0,450.0,2.0,,,,,,,,,orange,flipped triangle
0.0,1.0,1.0,0.0,5.0,5.0,558.9915169985034,8.0,0.0,part_2,go,450.0,450.0,1.0,,,,,,,,,orange,flipped triangle
0.0,1.0,1.0,0.0,5.0,5.0,470.2667669916991,8.0,0.0,part_2,go,450.0,450.0,1.0,,,,,,,,,orange,flipped triangle
0.0,5.0,1.0,1.0,6.0,6.0,506.0428800061345,8.0,0.0,part_2,stop,450.0,450.0,3.0,,,,,,,,,white,square
0.0,6.0,2.0,1.0,6.0,6.0,553.3783420105465,8.0,0.0,part_2,go,450.0,400.0,1.0,,,,,,,,,magenta,I
0.0,7.0,3.0,1.0,6.0,0.0,0.0,8.0,0.0,part_2,stop,450.0,400.0,4.0,,,,,,,,,cyan,triangle
0.0,2.0,2.0,0.0,6.0,6.0,757.2505610005464,8.0,0.0,part_2,go,450.0,450.0,1.0,,,,,,,,,yellow,cross
0.0,4.0,4.0,0.0,5.0,5.0,498.8725289877038,8.0,0.0,part_2,go,450.0,450.0,1.0,,,,,,,,,green,circle
0.0,8.0,4.0,1.0,6.0,0.0,0.0,8.0,0.0,part_2,stop,450.0,450.0,4.0,,,,,,,,,blue,diamond
0.0,1.0,1.0,0.0,6.0,6.0,621.7800870072097,8.0,0.0,part_2,go,450.0,500.0,1.0,,,,,,,,,orange,flipped triangle
0.0,1.0,1.0,0.0,5.0,5.0,345.5555309774354,8.0,0.0,part_2,go,450.0,500.0,1.0,,,,,,,,,orange,flipped triangle
0.0,4.0,4.0,0.0,5.0,5.0,580.0479110039305,8.0,0.0,part_2,go,450.0,500.0,1.0,,,,,,,,,green,circle
0.0,3.0,3.0,0.0,5.0,5.0,390.9092639805749,8.0,0.0,part_2,go,450.0,500.0,1.0,,,,,,,,,gray,hexagon
0.0,4.0,4.0,0.0,6.0,6.0,380.5085130152292,8.0,0.0,part_2,go,450.0,500.0,1.0,,,,,,,,,green,circle
0.0,2.0,2.0,0.0,6.0,6.0,570.6084690173157,8.0,0.0,part_2,go,450.0,500.0,1.0,,,,,,,,,yellow,cross
0.0,4.0,4.0,0.0,5.0,5.0,334.4893320172559,8.0,0.0,part_2,go,450.0,500.0,1.0,,,,,,,,,green,circle
0.0,1.0,1.0,0.0,6.0,6.0,474.0481800108682,8.0,0.0,part_2,go,450.0,500.0,1.0,,,,,,,,,orange,flipped triangle
0.0,7.0,3.0,1.0,6.0,6.0,415.5604830011725,8.0,0.0,part_2,go,450.0,500.0,1.0,,,,,,,,,cyan,triangle
0.0,7.0,3.0,1.0,6.0,6.0,525.0288899987936,8.0,0.0,part_2,stop,450.0,500.0,3.0,,,,,,,,,cyan,triangle
0.0,2.0,2.0,0.0,5.0,5.0,295.6862870196346,8.0,0.0,part_2,go,450.0,450.0,1.0,,,,,,,,,yellow,cross
0.0,8.0,4.0,1.0,5.0,5.0,619.9623120191973,8.0,0.0,part_2,go,450.0,450.0,1.0,,,,,,,,,blue,diamond
0.0,2.0,2.0,0.0,6.0,6.0,744.3271760130301,8.0,0.0,part_2,go,450.0,450.0,1.0,,,,,,,,,yellow,cross
0.0,5.0,1.0,1.0,7.0,3.0,3991.3007540162657,1.0,1.0,part_3,go,0.0,0.0,0.0,245.0,5.0,147.0,294.0,245.0,98.0,49.0,196.0,white,square
0.0,7.0,3.0,1.0,7.0,3.0,3301.264050998725,1.0,1.0,part_3,go,0.0,0.0,0.0,196.0,4.0,98.0,294.0,196.0,49.0,245.0,147.0,cyan,triangle
0.0,8.0,4.0,1.0,7.0,6.0,2134.6747950010467,1.0,1.0,part_3,go,0.0,0.0,0.0,98.0,2.0,245.0,147.0,294.0,196.0,49.0,98.0,blue,diamond
0.0,8.0,4.0,1.0,7.0,1.0,4497.599052992882,1.0,1.0,part_3,go,0.0,0.0,0.0,98.0,2.0,98.0,245.0,196.0,294.0,147.0,49.0,blue,diamond
0.0,1.0,1.0,0.0,7.0,4.0,3071.169724018546,1.0,1.0,part_3,go,0.0,0.0,0.0,136.0,4.0,170.0,68.0,102.0,136.0,204.0,34.0,orange,flipped triangle
0.0,7.0,3.0,1.0,7.0,3.0,2464.889816008508,1.0,1.0,part_3,go,0.0,0.0,0.0,117.0,3.0,156.0,78.0,117.0,195.0,39.0,234.0,cyan,triangle
0.0,3.0,3.0,0.0,7.0,6.0,2511.843078013044,1.0,1.0,part_3,go,0.0,0.0,0.0,195.0,5.0,78.0,39.0,156.0,234.0,117.0,195.0,gray,hexagon
0.0,8.0,4.0,1.0,7.0,4.0,2928.6750869941898,1.0,1.0,part_3,go,0.0,0.0,0.0,68.0,2.0,34.0,102.0,204.0,68.0,136.0,170.0,blue,diamond
0.0,4.0,4.0,0.0,7.0,2.0,2455.0823510217015,1.0,1.0,part_3,go,0.0,0.0,0.0,39.0,1.0,234.0,39.0,195.0,156.0,117.0,78.0,green,circle
0.0,4.0,4.0,0.0,7.0,5.0,3830.1297090074513,1.0,1.0,part_3,go,0.0,0.0,0.0,49.0,1.0,294.0,196.0,98.0,147.0,49.0,245.0,green,circle
0.0,2.0,2.0,0.0,7.0,4.0,2501.9687059975695,1.0,1.0,part_3,go,0.0,0.0,0.0,170.0,5.0,204.0,68.0,34.0,170.0,102.0,136.0,yellow,cross
0.0,1.0,1.0,0.0,7.0,4.0,2415.569609001978,1.0,1.0,part_3,go,0.0,0.0,0.0,147.0,3.0,196.0,49.0,245.0,147.0,294.0,98.0,orange,flipped triangle
0.0,3.0,3.0,0.0,7.0,6.0,3224.637191015063,1.0,1.0,part_3,go,0.0,0.0,0.0,147.0,3.0,49.0,98.0,294.0,245.0,196.0,147.0,gray,hexagon
0.0,5.0,1.0,1.0,7.0,1.0,1473.5222510062158,1.0,1.0,part_3,go,0.0,0.0,0.0,54.0,1.0,54.0,324.0,216.0,108.0,270.0,162.0,white,square
0.0,2.0,2.0,0.0,7.0,4.0,2575.964571995428,1.0,1.0,part_3,go,0.0,0.0,0.0,234.0,6.0,78.0,39.0,195.0,234.0,117.0,156.0,yellow,cross
0.0,6.0,2.0,1.0,7.0,4.0,2813.1227050034795,1.0,1.0,part_3,go,0.0,0.0,0.0,132.0,3.0,264.0,220.0,88.0,132.0,44.0,176.0,magenta,I
0.0,4.0,4.0,0.0,7.0,3.0,824.9026820121799,1.0,2.0,part_3,go,0.0,0.0,0.0,44.0,1.0,132.0,88.0,44.0,176.0,220.0,264.0,green,circle
0.0,4.0,4.0,0.0,7.0,4.0,2230.8331019885372,1.0,1.0,part_3,go,0.0,0.0,0.0,34.0,1.0,102.0,68.0,170.0,34.0,136.0,204.0,green,circle
0.0,4.0,4.0,0.0,7.0,2.0,3448.668440018082,1.0,1.0,part_3,go,0.0,0.0,0.0,54.0,1.0,216.0,54.0,324.0,108.0,270.0,162.0,green,circle
0.0,3.0,3.0,0.0,7.0,6.0,3809.935703000519,1.0,1.0,part_3,go,0.0,0.0,0.0,68.0,2.0,136.0,102.0,204.0,34.0,170.0,68.0,gray,hexagon
0.0,5.0,1.0,1.0,7.0,4.0,2641.247491003014,2.0,1.0,part_3,go,0.0,0.0,0.0,132.0,3.0,88.0,264.0,220.0,132.0,44.0,176.0,white,square
0.0,1.0,1.0,0.0,7.0,3.0,1357.6927859976422,2.0,1.0,part_3,go,0.0,0.0,0.0,156.0,4.0,117.0,39.0,156.0,195.0,234.0,78.0,orange,flipped triangle
0.0,1.0,1.0,0.0,7.0,5.0,2169.006794982124,2.0,1.0,part_3,go,0.0,0.0,0.0,132.0,3.0,264.0,176.0,220.0,44.0,132.0,88.0,orange,flipped triangle
0.0,5.0,1.0,1.0,7.0,3.0,2960.1324659888633,2.0,1.0,part_3,go,0.0,0.0,0.0,108.0,2.0,162.0,216.0,108.0,54.0,270.0,324.0,white,square
0.0,6.0,2.0,1.0,7.0,1.0,3319.2924819886684,2.0,1.0,part_3,go,0.0,0.0,0.0,147.0,3.0,147.0,294.0,245.0,196.0,98.0,49.0,magenta,I
0.0,5.0,1.0,1.0,7.0,4.0,697.5748469994869,2.0,2.0,part_3,go,0.0,0.0,0.0,204.0,6.0,170.0,34.0,136.0,204.0,102.0,68.0,white,square
0.0,6.0,2.0,1.0,7.0,2.0,922.1955969987904,2.0,1.0,part_3,go,0.0,0.0,0.0,204.0,6.0,102.0,204.0,34.0,68.0,136.0,170.0,magenta,I
0.0,6.0,2.0,1.0,7.0,5.0,1574.0271829999983,2.0,1.0,part_3,go,0.0,0.0,0.0,220.0,5.0,44.0,88.0,132.0,176.0,220.0,264.0,magenta,I
0.0,3.0,3.0,0.0,7.0,5.0,1980.7678109791595,2.0,1.0,part_3,go,0.0,0.0,0.0,108.0,2.0,162.0,54.0,270.0,216.0,108.0,324.0,gray,hexagon
0.0,1.0,1.0,0.0,7.0,3.0,1151.2219769938383,2.0,1.0,part_3,go,0.0,0.0,0.0,216.0,4.0,162.0,108.0,216.0,270.0,324.0,54.0,orange,flipped triangle
0.0,8.0,4.0,1.0,7.0,4.0,1454.6238440088928,2.0,1.0,part_3,go,0.0,0.0,0.0,156.0,4.0,78.0,117.0,234.0,156.0,39.0,195.0,blue,diamond
0.0,3.0,3.0,0.0,7.0,3.0,1783.096401981311,2.0,1.0,part_3,go,0.0,0.0,0.0,34.0,1.0,170.0,68.0,34.0,204.0,136.0,102.0,gray,hexagon
0.0,4.0,4.0,0.0,7.0,5.0,1399.4950090127531,2.0,1.0,part_3,go,0.0,0.0,0.0,54.0,1.0,162.0,216.0,270.0,108.0,54.0,324.0,green,circle
0.0,7.0,3.0,1.0,7.0,1.0,2911.5965100063477,2.0,1.0,part_3,go,0.0,0.0,0.0,78.0,2.0,78.0,39.0,234.0,195.0,156.0,117.0,cyan,triangle
0.0,4.0,4.0,0.0,7.0,1.0,1874.2328340013048,2.0,1.0,part_3,go,0.0,0.0,0.0,34.0,1.0,34.0,170.0,102.0,204.0,68.0,136.0,green,circle
0.0,6.0,2.0,1.0,7.0,3.0,730.9105519962031,2.0,1.0,part_3,go,0.0,0.0,0.0,117.0,3.0,234.0,195.0,117.0,156.0,39.0,78.0,magenta,I
0.0,8.0,4.0,1.0,7.0,4.0,1224.878234002972,2.0,1.0,part_3,go,0.0,0.0,0.0,220.0,5.0,132.0,176.0,88.0,220.0,44.0,264.0,blue,diamond
0.0,4.0,4.0,0.0,7.0,2.0,1858.0903969996143,2.0,1.0,part_3,go,0.0,0.0,0.0,49.0,1.0,196.0,49.0,98.0,147.0,245.0,294.0,green,circle
0.0,6.0,2.0,1.0,7.0,2.0,1836.400992993731,2.0,1.0,part_3,go,0.0,0.0,0.0,162.0,3.0,54.0,162.0,324.0,108.0,270.0,216.0,magenta,I
0.0,5.0,1.0,1.0,7.0,3.0,1296.8624560162425,2.0,1.0,part_3,go,0.0,0.0,0.0,196.0,4.0,245.0,294.0,196.0,49.0,147.0,98.0,white,square
0.0,2.0,2.0,0.0,7.0,3.0,1571.8000970082358,3.0,1.0,part_3,go,0.0,0.0,0.0,270.0,5.0,162.0,108.0,270.0,216.0,324.0,54.0,yellow,cross
0.0,5.0,1.0,1.0,7.0,4.0,1438.508493010886,3.0,1.0,part_3,go,0.0,0.0,0.0,102.0,3.0,204.0,136.0,68.0,102.0,34.0,170.0,white,square
0.0,2.0,2.0,0.0,7.0,3.0,1811.7453920131084,3.0,1.0,part_3,go,0.0,0.0,0.0,156.0,4.0,117.0,78.0,156.0,195.0,234.0,39.0,yellow,cross
0.0,1.0,1.0,0.0,7.0,4.0,1466.0690879973115,3.0,1.0,part_3,go,0.0,0.0,0.0,147.0,3.0,49.0,294.0,98.0,147.0,196.0,245.0,orange,flipped triangle
0.0,8.0,4.0,1.0,7.0,4.0,1981.1143449915107,3.0,1.0,part_3,go,0.0,0.0,0.0,220.0,5.0,264.0,44.0,88.0,220.0,176.0,132.0,blue,diamond
0.0,7.0,3.0,1.0,7.0,2.0,1940.13606000226,3.0,1.0,part_3,go,0.0,0.0,0.0,324.0,6.0,162.0,324.0,216.0,270.0,54.0,108.0,cyan,triangle
0.0,3.0,3.0,0.0,7.0,2.0,1874.5324609917589,3.0,1.0,part_3,go,0.0,0.0,0.0,264.0,6.0,220.0,264.0,88.0,176.0,132.0,44.0,gray,hexagon
0.0,1.0,1.0,0.0,7.0,4.0,1377.5294889928773,3.0,1.0,part_3,go,0.0,0.0,0.0,170.0,5.0,102.0,136.0,34.0,170.0,204.0,68.0,orange,flipped triangle
0.0,8.0,4.0,1.0,7.0,4.0,1514.288057020167,3.0,1.0,part_3,go,0.0,0.0,0.0,117.0,3.0,234.0,39.0,195.0,117.0,78.0,156.0,blue,diamond
0.0,1.0,1.0,0.0,7.0,3.0,2147.221854014788,3.0,1.0,part_3,go,0.0,0.0,0.0,324.0,6.0,270.0,162.0,324.0,54.0,216.0,108.0,orange,flipped triangle
0.0,8.0,4.0,1.0,7.0,5.0,1966.0478080040775,3.0,1.0,part_3,go,0.0,0.0,0.0,170.0,5.0,34.0,102.0,204.0,136.0,170.0,68.0,blue,diamond
0.0,4.0,4.0,0.0,7.0,2.0,1856.3220849900972,3.0,1.0,part_3,go,0.0,0.0,0.0,44.0,1.0,176.0,44.0,264.0,220.0,132.0,88.0,green,circle
0.0,7.0,3.0,1.0,7.0,4.0,1564.1397149884142,3.0,1.0,part_3,go,0.0,0.0,0.0,44.0,1.0,88.0,176.0,220.0,44.0,132.0,264.0,cyan,triangle
0.0,2.0,2.0,0.0,7.0,4.0,1319.4393150042742,3.0,1.0,part_3,go,0.0,0.0,0.0,270.0,5.0,216.0,108.0,162.0,270.0,324.0,54.0,yellow,cross
0.0,7.0,3.0,1.0,7.0,3.0,1216.524590010522,3.0,1.0,part_3,go,0.0,0.0,0.0,216.0,4.0,162.0,270.0,216.0,108.0,324.0,54.0,cyan,triangle
0.0,4.0,4.0,0.0,7.0,1.0,1824.6910680027213,3.0,1.0,part_3,go,0.0,0.0,0.0,39.0,1.0,39.0,78.0,156.0,117.0,195.0,234.0,green,circle
0.0,6.0,2.0,1.0,7.0,3.0,1310.661605995847,3.0,1.0,part_3,go,0.0,0.0,0.0,270.0,5.0,216.0,162.0,270.0,324.0,108.0,54.0,magenta,I
0.0,5.0,1.0,1.0,7.0,3.0,1446.6156490088906,3.0,1.0,part_3,go,0.0,0.0,0.0,234.0,6.0,195.0,117.0,234.0,39.0,78.0,156.0,white,square
0.0,7.0,3.0,1.0,7.0,2.0,1332.642941008089,3.0,1.0,part_3,go,0.0,0.0,0.0,196.0,4.0,147.0,196.0,245.0,49.0,98.0,294.0,cyan,triangle
0.0,2.0,2.0,0.0,7.0,3.0,1618.6945989902597,3.0,1.0,part_3,go,0.0,0.0,0.0,245.0,5.0,147.0,196.0,245.0,98.0,294.0,49.0,yellow,cross
0.0,3.0,3.0,0.0,7.0,2.0,1261.5503739798442,4.0,1.0,part_3,go,0.0,0.0,0.0,162.0,3.0,270.0,162.0,54.0,324.0,216.0,108.0,gray,hexagon
0.0,1.0,1.0,0.0,7.0,3.0,1825.9961560252125,4.0,1.0,part_3,go,0.0,0.0,0.0,117.0,3.0,156.0,195.0,117.0,234.0,78.0,39.0,orange,flipped triangle
0.0,3.0,3.0,0.0,7.0,2.0,1397.753441997338,4.0,1.0,part_3,go,0.0,0.0,0.0,156.0,4.0,195.0,156.0,234.0,39.0,117.0,78.0,gray,hexagon
0.0,1.0,1.0,0.0,7.0,1.0,1626.064470008714,4.0,1.0,part_3,go,0.0,0.0,0.0,176.0,4.0,176.0,264.0,88.0,44.0,132.0,220.0,orange,flipped triangle
0.0,2.0,2.0,0.0,7.0,4.0,2528.530868003145,4.0,1.0,part_3,go,0.0,0.0,0.0,245.0,5.0,196.0,294.0,98.0,245.0,147.0,49.0,yellow,cross
0.0,6.0,2.0,1.0,7.0,5.0,1828.73555101105,4.0,1.0,part_3,go,0.0,0.0,0.0,245.0,5.0,49.0,147.0,196.0,294.0,245.0,98.0,magenta,I
0.0,3.0,3.0,0.0,7.0,2.0,2313.8359940203372,4.0,1.0,part_3,go,0.0,0.0,0.0,196.0,4.0,49.0,196.0,294.0,245.0,98.0,147.0,gray,hexagon
0.0,7.0,3.0,1.0,7.0,1.0,1619.9072359886486,4.0,1.0,part_3,go,0.0,0.0,0.0,88.0,2.0,88.0,220.0,176.0,264.0,132.0,44.0,cyan,triangle
0.0,8.0,4.0,1.0,7.0,6.0,2362.8458400198724,4.0,1.0,part_3,go,0.0,0.0,0.0,162.0,3.0,270.0,324.0,108.0,216.0,54.0,162.0,blue,diamond
0.0,5.0,1.0,1.0,7.0,3.0,1430.4119169828482,4.0,1.0,part_3,go,0.0,0.0,0.0,156.0,4.0,78.0,234.0,156.0,39.0,195.0,117.0,white,square
0.0,8.0,4.0,1.0,7.0,4.0,1835.180971014779,4.0,1.0,part_3,go,0.0,0.0,0.0,270.0,5.0,162.0,54.0,216.0,270.0,108.0,324.0,blue,diamond
0.0,5.0,1.0,1.0,7.0,3.0,1906.519345997367,4.0,1.0,part_3,go,0.0,0.0,0.0,220.0,5.0,264.0,44.0,220.0,88.0,176.0,132.0,white,square
0.0,2.0,2.0,0.0,7.0,3.0,1432.3855510156136,4.0,1.0,part_3,go,0.0,0.0,0.0,132.0,3.0,220.0,176.0,132.0,264.0,44.0,88.0,yellow,cross
0.0,7.0,3.0,1.0,7.0,1.0,1659.655287017813,4.0,1.0,part_3,go,0.0,0.0,0.0,170.0,5.0,170.0,204.0,68.0,136.0,102.0,34.0,cyan,triangle
0.0,2.0,2.0,0.0,7.0,5.0,1594.4208659930157,4.0,1.0,part_3,go,0.0,0.0,0.0,220.0,5.0,264.0,44.0,132.0,88.0,220.0,176.0,yellow,cross
0.0,6.0,2.0,1.0,7.0,3.0,1457.969108974794,4.0,1.0,part_3,go,0.0,0.0,0.0,136.0,4.0,68.0,170.0,136.0,102.0,34.0,204.0,magenta,I
0.0,6.0,2.0,1.0,7.0,1.0,1438.876887987135,4.0,1.0,part_3,go,0.0,0.0,0.0,156.0,4.0,156.0,234.0,78.0,117.0,195.0,39.0,magenta,I
0.0,3.0,3.0,0.0,7.0,6.0,2148.36134298821,4.0,1.0,part_3,go,0.0,0.0,0.0,132.0,3.0,88.0,220.0,44.0,176.0,264.0,132.0,gray,hexagon
0.0,7.0,3.0,1.0,7.0,3.0,2014.8900000203867,4.0,1.0,part_3,go,0.0,0.0,0.0,102.0,3.0,34.0,68.0,102.0,204.0,136.0,170.0,cyan,triangle
0.0,2.0,2.0,0.0,7.0,2.0,1832.853881001938,4.0,1.0,part_3,go,0.0,0.0,0.0,68.0,2.0,34.0,68.0,136.0,204.0,102.0,170.0,yellow,cross
