raw_reward_magnitude,stim_reward,stepwise_reward_magnitude,paired_with_stopping,stim_location,response,reaction_time,block,num_trial_presentations,which_phase,stop_signal_trial_type,left_SSD,right_SSD,accuracy,chosen_bidding_amount,chosen_bidding_level,possible_bid_1,possible_bid_2,possible_bid_3,possible_bid_4,possible_bid_5,possible_bid_6,color_text,shape_text
176.0,3.0,3.0,0.0,2.0,2.0,497.9482989874668,1.0,1.0,phase_1,,,,,,,,,,,,,orange,flipped triangle
417.0,8.0,4.0,1.0,3.0,3.0,255.08554899715818,1.0,1.0,phase_1,,,,,,,,,,,,,cyan,I
54.0,5.0,1.0,1.0,3.0,3.0,285.4666920029558,1.0,1.0,phase_1,,,,,,,,,,,,,gray,cross
200.0,3.0,3.0,0.0,1.0,1.0,229.5326059975195,1.0,1.0,phase_1,,,,,,,,,,,,,orange,flipped triangle
0.0,8.0,0.0,1.0,4.0,4.0,278.3142249973025,1.0,2.0,phase_1,,,,,,,,,,,,,cyan,I
112.0,6.0,2.0,1.0,1.0,1.0,253.43408199842088,1.0,1.0,phase_1,,,,,,,,,,,,,green,hexagon
85.0,6.0,2.0,1.0,4.0,4.0,267.9147099843249,1.0,1.0,phase_1,,,,,,,,,,,,,green,hexagon
113.0,6.0,2.0,1.0,4.0,4.0,279.8921869834885,1.0,1.0,phase_1,,,,,,,,,,,,,green,hexagon
0.0,7.0,0.0,1.0,3.0,3.0,356.6414270026143,1.0,1.0,phase_1,,,,,,,,,,,,,yellow,diamond
115.0,6.0,2.0,1.0,1.0,1.0,267.5489600223955,1.0,1.0,phase_1,,,,,,,,,,,,,green,hexagon
0.0,8.0,0.0,1.0,1.0,1.0,281.2730449950322,1.0,1.0,phase_1,,,,,,,,,,,,,cyan,I
202.0,3.0,3.0,0.0,3.0,3.0,313.7180389894638,1.0,2.0,phase_1,,,,,,,,,,,,,orange,flipped triangle
39.0,1.0,1.0,0.0,3.0,3.0,292.167724983301,1.0,1.0,phase_1,,,,,,,,,,,,,white,square
415.0,4.0,4.0,0.0,1.0,1.0,283.2725470070727,1.0,1.0,phase_1,,,,,,,,,,,,,magenta,triangle
48.0,1.0,1.0,0.0,3.0,3.0,237.7671629947144,1.0,2.0,phase_1,,,,,,,,,,,,,white,square
404.0,8.0,4.0,1.0,3.0,3.0,406.4237190177664,1.0,1.0,phase_1,,,,,,,,,,,,,cyan,I
0.0,7.0,0.0,1.0,1.0,1.0,343.6553589999676,1.0,1.0,phase_1,,,,,,,,,,,,,yellow,diamond
118.0,2.0,2.0,0.0,3.0,3.0,263.6367490049451,1.0,1.0,phase_1,,,,,,,,,,,,,blue,circle
0.0,6.0,0.0,1.0,1.0,1.0,309.0182649902999,1.0,2.0,phase_1,,,,,,,,,,,,,green,hexagon
219.0,3.0,3.0,0.0,2.0,2.0,355.4805199964903,1.0,1.0,phase_1,,,,,,,,,,,,,orange,flipped triangle
79.0,2.0,2.0,0.0,1.0,1.0,264.7497829748317,1.0,1.0,phase_1,,,,,,,,,,,,,blue,circle
400.0,4.0,4.0,0.0,3.0,3.0,313.2280179997906,1.0,1.0,phase_1,,,,,,,,,,,,,magenta,triangle
176.0,7.0,3.0,1.0,1.0,1.0,355.7134579750709,1.0,1.0,phase_1,,,,,,,,,,,,,yellow,diamond
103.0,2.0,2.0,0.0,4.0,4.0,280.7785000186413,1.0,1.0,phase_1,,,,,,,,,,,,,blue,circle
197.0,3.0,3.0,0.0,2.0,2.0,258.330421987921,1.0,2.0,phase_1,,,,,,,,,,,,,orange,flipped triangle
176.0,3.0,3.0,0.0,2.0,2.0,292.3607850098051,1.0,1.0,phase_1,,,,,,,,,,,,,orange,flipped triangle
54.0,1.0,1.0,0.0,4.0,4.0,292.8373029862996,1.0,2.0,phase_1,,,,,,,,,,,,,white,square
121.0,6.0,2.0,1.0,2.0,2.0,304.4342889916152,1.0,1.0,phase_1,,,,,,,,,,,,,green,hexagon
90.0,6.0,2.0,1.0,2.0,2.0,362.0439330115914,1.0,1.0,phase_1,,,,,,,,,,,,,green,hexagon
27.0,1.0,1.0,0.0,1.0,1.0,283.0144769977778,1.0,1.0,phase_1,,,,,,,,,,,,,white,square
183.0,3.0,3.0,0.0,2.0,2.0,315.3784709866158,1.0,1.0,phase_1,,,,,,,,,,,,,orange,flipped triangle
376.0,8.0,4.0,1.0,3.0,3.0,282.6256140251644,1.0,1.0,phase_1,,,,,,,,,,,,,cyan,I
30.0,1.0,1.0,0.0,2.0,2.0,295.1899830077309,1.0,1.0,phase_1,,,,,,,,,,,,,white,square
0.0,5.0,0.0,1.0,4.0,4.0,308.8790109904948,1.0,1.0,phase_1,,,,,,,,,,,,,gray,cross
212.0,3.0,3.0,0.0,3.0,3.0,295.9830049949232,1.0,1.0,phase_1,,,,,,,,,,,,,orange,flipped triangle
386.0,4.0,4.0,0.0,1.0,1.0,262.5648120010737,1.0,1.0,phase_1,,,,,,,,,,,,,magenta,triangle
0.0,3.0,0.0,0.0,2.0,2.0,265.4604740091599,1.0,1.0,phase_1,,,,,,,,,,,,,orange,flipped triangle
48.0,5.0,1.0,1.0,1.0,1.0,289.7163349844049,1.0,1.0,phase_1,,,,,,,,,,,,,gray,cross
64.0,1.0,1.0,0.0,3.0,3.0,279.068850009935,1.0,1.0,phase_1,,,,,,,,,,,,,white,square
0.0,3.0,0.0,0.0,4.0,4.0,286.5552720031701,1.0,1.0,phase_1,,,,,,,,,,,,,orange,flipped triangle
0.0,3.0,0.0,0.0,2.0,2.0,256.9790150155313,1.0,1.0,phase_1,,,,,,,,,,,,,orange,flipped triangle
200.0,7.0,3.0,1.0,4.0,4.0,234.2296970018651,1.0,2.0,phase_1,,,,,,,,,,,,,yellow,diamond
213.0,7.0,3.0,1.0,4.0,4.0,314.4339600112289,1.0,1.0,phase_1,,,,,,,,,,,,,yellow,diamond
27.0,1.0,1.0,0.0,3.0,3.0,257.8806820092723,1.0,1.0,phase_1,,,,,,,,,,,,,white,square
0.0,7.0,0.0,1.0,4.0,4.0,249.8790379904676,1.0,2.0,phase_1,,,,,,,,,,,,,yellow,diamond
39.0,1.0,1.0,0.0,1.0,1.0,373.1385470018722,1.0,1.0,phase_1,,,,,,,,,,,,,white,square
404.0,4.0,4.0,0.0,3.0,3.0,291.6167380171828,1.0,1.0,phase_1,,,,,,,,,,,,,magenta,triangle
0.0,5.0,0.0,1.0,3.0,3.0,303.3987739763688,1.0,1.0,phase_1,,,,,,,,,,,,,gray,cross
40.0,5.0,1.0,1.0,4.0,4.0,272.6174840063322,1.0,1.0,phase_1,,,,,,,,,,,,,gray,cross
401.0,8.0,4.0,1.0,2.0,2.0,260.2407140075229,1.0,1.0,phase_1,,,,,,,,,,,,,cyan,I
0.0,1.0,0.0,0.0,3.0,3.0,316.3589379983023,1.0,1.0,phase_1,,,,,,,,,,,,,white,square
119.0,6.0,2.0,1.0,3.0,3.0,264.6836780186277,1.0,1.0,phase_1,,,,,,,,,,,,,green,hexagon
0.0,2.0,0.0,0.0,2.0,2.0,320.770115009509,1.0,1.0,phase_1,,,,,,,,,,,,,blue,circle
119.0,6.0,2.0,1.0,3.0,3.0,250.7289369823411,1.0,1.0,phase_1,,,,,,,,,,,,,green,hexagon
41.0,1.0,1.0,0.0,2.0,2.0,252.7198150055483,1.0,1.0,phase_1,,,,,,,,,,,,,white,square
377.0,8.0,4.0,1.0,4.0,4.0,286.5756039973348,1.0,1.0,phase_1,,,,,,,,,,,,,cyan,I
40.0,5.0,1.0,1.0,1.0,1.0,276.68554300908,1.0,1.0,phase_1,,,,,,,,,,,,,gray,cross
83.0,2.0,2.0,0.0,1.0,1.0,210.2242730034049,1.0,2.0,phase_1,,,,,,,,,,,,,blue,circle
102.0,2.0,2.0,0.0,3.0,3.0,302.6096289977431,1.0,1.0,phase_1,,,,,,,,,,,,,blue,circle
415.0,8.0,4.0,1.0,2.0,2.0,266.2801240221597,1.0,1.0,phase_1,,,,,,,,,,,,,cyan,I
70.0,5.0,1.0,1.0,3.0,3.0,322.7410200051963,1.0,1.0,phase_1,,,,,,,,,,,,,gray,cross
199.0,7.0,3.0,1.0,2.0,2.0,267.2828779905103,1.0,1.0,phase_1,,,,,,,,,,,,,yellow,diamond
39.0,5.0,1.0,1.0,1.0,1.0,280.9083710017148,1.0,1.0,phase_1,,,,,,,,,,,,,gray,cross
33.0,1.0,1.0,0.0,1.0,1.0,292.0323410071432,1.0,1.0,phase_1,,,,,,,,,,,,,white,square
0.0,2.0,0.0,0.0,1.0,1.0,326.8838209914975,1.0,1.0,phase_1,,,,,,,,,,,,,blue,circle
61.0,5.0,1.0,1.0,3.0,3.0,292.2832379990723,1.0,1.0,phase_1,,,,,,,,,,,,,gray,cross
41.0,5.0,1.0,1.0,1.0,1.0,295.5283889896236,1.0,1.0,phase_1,,,,,,,,,,,,,gray,cross
0.0,7.0,0.0,1.0,4.0,4.0,283.7925600179005,1.0,1.0,phase_1,,,,,,,,,,,,,yellow,diamond
89.0,6.0,2.0,1.0,2.0,2.0,315.5295309843495,1.0,1.0,phase_1,,,,,,,,,,,,,green,hexagon
0.0,6.0,0.0,1.0,2.0,2.0,274.4584240135737,1.0,1.0,phase_1,,,,,,,,,,,,,green,hexagon
98.0,2.0,2.0,0.0,1.0,1.0,273.8234010175802,1.0,1.0,phase_1,,,,,,,,,,,,,blue,circle
82.0,2.0,2.0,0.0,1.0,1.0,283.8925699761603,1.0,2.0,phase_1,,,,,,,,,,,,,blue,circle
384.0,8.0,4.0,1.0,2.0,2.0,329.8655530088581,1.0,1.0,phase_1,,,,,,,,,,,,,cyan,I
0.0,2.0,0.0,0.0,1.0,1.0,299.1899389890022,1.0,1.0,phase_1,,,,,,,,,,,,,blue,circle
55.0,5.0,1.0,1.0,2.0,2.0,375.7082249794621,1.0,1.0,phase_1,,,,,,,,,,,,,gray,cross
97.0,6.0,2.0,1.0,4.0,4.0,387.6050269755069,1.0,1.0,phase_1,,,,,,,,,,,,,green,hexagon
0.0,4.0,0.0,0.0,1.0,1.0,334.4305400096345,1.0,1.0,phase_1,,,,,,,,,,,,,magenta,triangle
95.0,2.0,2.0,0.0,1.0,1.0,265.8566129975952,1.0,1.0,phase_1,,,,,,,,,,,,,blue,circle
41.0,1.0,1.0,0.0,2.0,2.0,280.1454519794788,1.0,1.0,phase_1,,,,,,,,,,,,,white,square
0.0,4.0,0.0,0.0,2.0,2.0,267.379607015755,1.0,1.0,phase_1,,,,,,,,,,,,,magenta,triangle
190.0,3.0,3.0,0.0,4.0,4.0,302.4985210213344,1.0,1.0,phase_1,,,,,,,,,,,,,orange,flipped triangle
214.0,3.0,3.0,0.0,1.0,1.0,292.7988760056905,1.0,1.0,phase_1,,,,,,,,,,,,,orange,flipped triangle
404.0,4.0,4.0,0.0,4.0,4.0,414.7396449989173,1.0,1.0,phase_1,,,,,,,,,,,,,magenta,triangle
400.0,8.0,4.0,1.0,1.0,1.0,348.062236997066,1.0,1.0,phase_1,,,,,,,,,,,,,cyan,I
104.0,2.0,2.0,0.0,4.0,4.0,292.4248030176386,1.0,1.0,phase_1,,,,,,,,,,,,,blue,circle
208.0,3.0,3.0,0.0,4.0,4.0,350.0474930042401,1.0,1.0,phase_1,,,,,,,,,,,,,orange,flipped triangle
208.0,7.0,3.0,1.0,2.0,2.0,283.285818004515,1.0,1.0,phase_1,,,,,,,,,,,,,yellow,diamond
406.0,4.0,4.0,0.0,1.0,1.0,305.1777219807263,1.0,1.0,phase_1,,,,,,,,,,,,,magenta,triangle
211.0,7.0,3.0,1.0,2.0,2.0,238.5954089986626,1.0,2.0,phase_1,,,,,,,,,,,,,yellow,diamond
52.0,5.0,1.0,1.0,4.0,4.0,498.4219670004677,1.0,1.0,phase_1,,,,,,,,,,,,,gray,cross
395.0,4.0,4.0,0.0,2.0,2.0,443.7952619919088,1.0,1.0,phase_1,,,,,,,,,,,,,magenta,triangle
404.0,8.0,4.0,1.0,1.0,1.0,322.2785730031319,1.0,1.0,phase_1,,,,,,,,,,,,,cyan,I
0.0,4.0,0.0,0.0,4.0,4.0,353.5000259871594,1.0,1.0,phase_1,,,,,,,,,,,,,magenta,triangle
39.0,5.0,1.0,1.0,4.0,4.0,278.7568960047792,1.0,1.0,phase_1,,,,,,,,,,,,,gray,cross
115.0,2.0,2.0,0.0,1.0,1.0,312.0728179928846,1.0,1.0,phase_1,,,,,,,,,,,,,blue,circle
394.0,4.0,4.0,0.0,1.0,1.0,347.16491799918,1.0,1.0,phase_1,,,,,,,,,,,,,magenta,triangle
41.0,5.0,1.0,1.0,2.0,2.0,299.9501030135434,1.0,1.0,phase_1,,,,,,,,,,,,,gray,cross
412.0,4.0,4.0,0.0,4.0,4.0,288.8924099970609,1.0,2.0,phase_1,,,,,,,,,,,,,magenta,triangle
113.0,2.0,2.0,0.0,3.0,3.0,348.5560459957924,1.0,1.0,phase_1,,,,,,,,,,,,,blue,circle
425.0,4.0,4.0,0.0,3.0,3.0,292.9044630145654,1.0,1.0,phase_1,,,,,,,,,,,,,magenta,triangle
188.0,3.0,3.0,0.0,4.0,4.0,438.2232640055008,2.0,1.0,phase_1,,,,,,,,,,,,,orange,flipped triangle
0.0,8.0,0.0,1.0,4.0,4.0,407.4261559871956,2.0,1.0,phase_1,,,,,,,,,,,,,cyan,I
393.0,8.0,4.0,1.0,1.0,1.0,292.3196050105616,2.0,1.0,phase_1,,,,,,,,,,,,,cyan,I
0.0,3.0,0.0,0.0,4.0,4.0,338.1361800129525,2.0,1.0,phase_1,,,,,,,,,,,,,orange,flipped triangle
207.0,3.0,3.0,0.0,3.0,3.0,275.1448799972422,2.0,2.0,phase_1,,,,,,,,,,,,,orange,flipped triangle
57.0,5.0,1.0,1.0,4.0,4.0,273.3256330247968,2.0,1.0,phase_1,,,,,,,,,,,,,gray,cross
378.0,4.0,4.0,0.0,3.0,3.0,320.2122910006437,2.0,1.0,phase_1,,,,,,,,,,,,,magenta,triangle
0.0,4.0,0.0,0.0,3.0,3.0,319.201072998112,2.0,1.0,phase_1,,,,,,,,,,,,,magenta,triangle
208.0,3.0,3.0,0.0,4.0,4.0,332.6758580224123,2.0,1.0,phase_1,,,,,,,,,,,,,orange,flipped triangle
109.0,2.0,2.0,0.0,2.0,2.0,307.4509209836833,2.0,1.0,phase_1,,,,,,,,,,,,,blue,circle
0.0,1.0,0.0,0.0,3.0,3.0,231.2805010005831,2.0,1.0,phase_1,,,,,,,,,,,,,white,square
395.0,4.0,4.0,0.0,2.0,2.0,264.5806139917113,2.0,1.0,phase_1,,,,,,,,,,,,,magenta,triangle
0.0,6.0,0.0,1.0,3.0,3.0,255.4208780056797,2.0,1.0,phase_1,,,,,,,,,,,,,green,hexagon
66.0,5.0,1.0,1.0,3.0,3.0,311.5877509990241,2.0,1.0,phase_1,,,,,,,,,,,,,gray,cross
50.0,5.0,1.0,1.0,2.0,2.0,366.5727539919317,2.0,1.0,phase_1,,,,,,,,,,,,,gray,cross
183.0,7.0,3.0,1.0,2.0,2.0,288.5177849966567,2.0,1.0,phase_1,,,,,,,,,,,,,yellow,diamond
71.0,1.0,1.0,0.0,3.0,3.0,289.2655130126513,2.0,1.0,phase_1,,,,,,,,,,,,,white,square
390.0,8.0,4.0,1.0,4.0,4.0,416.3402359990868,2.0,1.0,phase_1,,,,,,,,,,,,,cyan,I
121.0,6.0,2.0,1.0,3.0,3.0,373.0314999993425,2.0,1.0,phase_1,,,,,,,,,,,,,green,hexagon
210.0,7.0,3.0,1.0,1.0,1.0,339.5361299917567,2.0,1.0,phase_1,,,,,,,,,,,,,yellow,diamond
92.0,6.0,2.0,1.0,2.0,2.0,214.5601559896022,2.0,2.0,phase_1,,,,,,,,,,,,,green,hexagon
82.0,6.0,2.0,1.0,1.0,1.0,306.7222480021883,2.0,1.0,phase_1,,,,,,,,,,,,,green,hexagon
376.0,4.0,4.0,0.0,1.0,1.0,295.8547660091426,2.0,1.0,phase_1,,,,,,,,,,,,,magenta,triangle
43.0,5.0,1.0,1.0,2.0,2.0,349.7315739805344,2.0,1.0,phase_1,,,,,,,,,,,,,gray,cross
95.0,6.0,2.0,1.0,1.0,1.0,296.3059110043105,2.0,1.0,phase_1,,,,,,,,,,,,,green,hexagon
0.0,8.0,0.0,1.0,2.0,2.0,284.8105629964266,2.0,1.0,phase_1,,,,,,,,,,,,,cyan,I
176.0,7.0,3.0,1.0,2.0,2.0,285.2730879967566,2.0,1.0,phase_1,,,,,,,,,,,,,yellow,diamond
0.0,5.0,0.0,1.0,3.0,3.0,321.1664500122424,2.0,1.0,phase_1,,,,,,,,,,,,,gray,cross
223.0,7.0,3.0,1.0,3.0,3.0,264.1971389821265,2.0,1.0,phase_1,,,,,,,,,,,,,yellow,diamond
0.0,5.0,0.0,1.0,2.0,2.0,273.8933099899441,2.0,1.0,phase_1,,,,,,,,,,,,,gray,cross
64.0,1.0,1.0,0.0,4.0,4.0,287.0166710054036,2.0,1.0,phase_1,,,,,,,,,,,,,white,square
0.0,2.0,0.0,0.0,2.0,2.0,278.6570780153852,2.0,1.0,phase_1,,,,,,,,,,,,,blue,circle
186.0,3.0,3.0,0.0,1.0,1.0,290.9703530021943,2.0,1.0,phase_1,,,,,,,,,,,,,orange,flipped triangle
0.0,5.0,0.0,1.0,3.0,3.0,302.1845789917279,2.0,1.0,phase_1,,,,,,,,,,,,,gray,cross
379.0,8.0,4.0,1.0,2.0,2.0,266.8826910085045,2.0,1.0,phase_1,,,,,,,,,,,,,cyan,I
64.0,5.0,1.0,1.0,1.0,1.0,325.6340440129861,2.0,1.0,phase_1,,,,,,,,,,,,,gray,cross
415.0,8.0,4.0,1.0,1.0,1.0,289.3059749912936,2.0,1.0,phase_1,,,,,,,,,,,,,cyan,I
0.0,7.0,0.0,1.0,1.0,1.0,371.5268250089139,2.0,1.0,phase_1,,,,,,,,,,,,,yellow,diamond
0.0,4.0,0.0,0.0,3.0,3.0,279.6450270107016,2.0,1.0,phase_1,,,,,,,,,,,,,magenta,triangle
72.0,5.0,1.0,1.0,2.0,2.0,245.7766399893444,2.0,1.0,phase_1,,,,,,,,,,,,,gray,cross
0.0,4.0,0.0,0.0,3.0,3.0,327.3257590190042,2.0,1.0,phase_1,,,,,,,,,,,,,magenta,triangle
0.0,5.0,0.0,1.0,3.0,3.0,237.5810369849205,2.0,2.0,phase_1,,,,,,,,,,,,,gray,cross
0.0,6.0,0.0,1.0,4.0,4.0,260.9063809795771,2.0,2.0,phase_1,,,,,,,,,,,,,green,hexagon
48.0,1.0,1.0,0.0,4.0,4.0,273.5747510159854,2.0,1.0,phase_1,,,,,,,,,,,,,white,square
0.0,1.0,0.0,0.0,2.0,2.0,286.4849760080687,2.0,1.0,phase_1,,,,,,,,,,,,,white,square
0.0,8.0,0.0,1.0,4.0,4.0,242.0978079899214,2.0,2.0,phase_1,,,,,,,,,,,,,cyan,I
0.0,3.0,0.0,0.0,2.0,2.0,344.3909570050891,2.0,1.0,phase_1,,,,,,,,,,,,,orange,flipped triangle
406.0,8.0,4.0,1.0,3.0,3.0,287.9385729902424,2.0,1.0,phase_1,,,,,,,,,,,,,cyan,I
0.0,8.0,0.0,1.0,3.0,3.0,253.305296995677,2.0,1.0,phase_1,,,,,,,,,,,,,cyan,I
61.0,1.0,1.0,0.0,2.0,2.0,301.3230159995146,2.0,1.0,phase_1,,,,,,,,,,,,,white,square
405.0,8.0,4.0,1.0,1.0,1.0,356.4028200053144,2.0,1.0,phase_1,,,,,,,,,,,,,cyan,I
191.0,3.0,3.0,0.0,3.0,3.0,267.9829249973409,2.0,1.0,phase_1,,,,,,,,,,,,,orange,flipped triangle
192.0,3.0,3.0,0.0,2.0,2.0,256.618035986321,2.0,1.0,phase_1,,,,,,,,,,,,,orange,flipped triangle
396.0,4.0,4.0,0.0,4.0,4.0,312.1622129983734,2.0,1.0,phase_1,,,,,,,,,,,,,magenta,triangle
72.0,1.0,1.0,0.0,3.0,3.0,370.8166230062488,2.0,1.0,phase_1,,,,,,,,,,,,,white,square
405.0,4.0,4.0,0.0,4.0,4.0,270.576675015036,2.0,1.0,phase_1,,,,,,,,,,,,,magenta,triangle
62.0,1.0,1.0,0.0,4.0,4.0,282.5955239823088,2.0,1.0,phase_1,,,,,,,,,,,,,white,square
395.0,8.0,4.0,1.0,4.0,4.0,338.936170010129,2.0,1.0,phase_1,,,,,,,,,,,,,cyan,I
197.0,7.0,3.0,1.0,4.0,4.0,304.2026899929624,2.0,1.0,phase_1,,,,,,,,,,,,,yellow,diamond
0.0,8.0,0.0,1.0,1.0,1.0,315.0406429776922,2.0,1.0,phase_1,,,,,,,,,,,,,cyan,I
398.0,4.0,4.0,0.0,3.0,3.0,327.4366969999391,2.0,1.0,phase_1,,,,,,,,,,,,,magenta,triangle
0.0,7.0,0.0,1.0,3.0,3.0,284.6639710187446,2.0,1.0,phase_1,,,,,,,,,,,,,yellow,diamond
64.0,5.0,1.0,1.0,3.0,3.0,319.4226530031301,2.0,1.0,phase_1,,,,,,,,,,,,,gray,cross
48.0,5.0,1.0,1.0,4.0,4.0,275.8891969860997,2.0,1.0,phase_1,,,,,,,,,,,,,gray,cross
40.0,1.0,1.0,0.0,4.0,4.0,307.3951550177298,2.0,1.0,phase_1,,,,,,,,,,,,,white,square
27.0,5.0,1.0,1.0,4.0,4.0,262.8514349926263,2.0,1.0,phase_1,,,,,,,,,,,,,gray,cross
394.0,8.0,4.0,1.0,4.0,4.0,276.159142027609,2.0,1.0,phase_1,,,,,,,,,,,,,cyan,I
0.0,4.0,0.0,0.0,4.0,4.0,278.2103650097269,2.0,1.0,phase_1,,,,,,,,,,,,,magenta,triangle
0.0,4.0,0.0,0.0,1.0,1.0,333.9773100160528,2.0,1.0,phase_1,,,,,,,,,,,,,magenta,triangle
79.0,6.0,2.0,1.0,1.0,1.0,276.3716369809117,2.0,1.0,phase_1,,,,,,,,,,,,,green,hexagon
40.0,1.0,1.0,0.0,2.0,2.0,276.1253020144067,2.0,1.0,phase_1,,,,,,,,,,,,,white,square
216.0,7.0,3.0,1.0,2.0,2.0,244.7964920138474,2.0,1.0,phase_1,,,,,,,,,,,,,yellow,diamond
393.0,4.0,4.0,0.0,2.0,2.0,302.3959729762282,2.0,1.0,phase_1,,,,,,,,,,,,,magenta,triangle
87.0,6.0,2.0,1.0,2.0,2.0,246.6007610200904,2.0,1.0,phase_1,,,,,,,,,,,,,green,hexagon
413.0,4.0,4.0,0.0,4.0,4.0,301.3676349946763,2.0,1.0,phase_1,,,,,,,,,,,,,magenta,triangle
191.0,7.0,3.0,1.0,3.0,3.0,292.8666360094212,2.0,1.0,phase_1,,,,,,,,,,,,,yellow,diamond
215.0,7.0,3.0,1.0,1.0,1.0,404.8204160062596,2.0,1.0,phase_1,,,,,,,,,,,,,yellow,diamond
395.0,8.0,4.0,1.0,4.0,4.0,315.9563280059956,2.0,1.0,phase_1,,,,,,,,,,,,,cyan,I
92.0,6.0,2.0,1.0,3.0,3.0,337.282184016658,2.0,1.0,phase_1,,,,,,,,,,,,,green,hexagon
201.0,7.0,3.0,1.0,4.0,4.0,351.0087500035297,2.0,1.0,phase_1,,,,,,,,,,,,,yellow,diamond
83.0,6.0,2.0,1.0,2.0,2.0,293.3683169831056,2.0,2.0,phase_1,,,,,,,,,,,,,green,hexagon
103.0,6.0,2.0,1.0,1.0,1.0,305.4179809987545,2.0,1.0,phase_1,,,,,,,,,,,,,green,hexagon
89.0,2.0,2.0,0.0,4.0,4.0,317.9993399826344,2.0,1.0,phase_1,,,,,,,,,,,,,blue,circle
390.0,4.0,4.0,0.0,2.0,2.0,275.3124310111161,2.0,1.0,phase_1,,,,,,,,,,,,,magenta,triangle
109.0,6.0,2.0,1.0,1.0,1.0,329.7348839987535,2.0,1.0,phase_1,,,,,,,,,,,,,green,hexagon
119.0,2.0,2.0,0.0,1.0,1.0,353.8740450167097,2.0,1.0,phase_1,,,,,,,,,,,,,blue,circle
112.0,2.0,2.0,0.0,2.0,2.0,299.7460830083582,2.0,1.0,phase_1,,,,,,,,,,,,,blue,circle
0.0,7.0,0.0,1.0,1.0,1.0,287.027198006399,2.0,1.0,phase_1,,,,,,,,,,,,,yellow,diamond
76.0,6.0,2.0,1.0,1.0,1.0,231.2259860045742,2.0,1.0,phase_1,,,,,,,,,,,,,green,hexagon
414.0,4.0,4.0,0.0,3.0,3.0,256.3977559912018,2.0,1.0,phase_1,,,,,,,,,,,,,magenta,triangle
376.0,4.0,4.0,0.0,1.0,1.0,287.9621739848517,2.0,1.0,phase_1,,,,,,,,,,,,,magenta,triangle
68.0,1.0,1.0,0.0,3.0,3.0,258.8690569973551,2.0,1.0,phase_1,,,,,,,,,,,,,white,square
0.0,2.0,0.0,0.0,2.0,2.0,314.740500994958,2.0,1.0,phase_1,,,,,,,,,,,,,blue,circle
110.0,6.0,2.0,1.0,4.0,4.0,300.9857030119747,2.0,1.0,phase_1,,,,,,,,,,,,,green,hexagon
78.0,6.0,2.0,1.0,3.0,3.0,193.1066859979182,2.0,2.0,phase_1,,,,,,,,,,,,,green,hexagon
377.0,4.0,4.0,0.0,1.0,1.0,260.5424219800625,2.0,1.0,phase_1,,,,,,,,,,,,,magenta,triangle
78.0,2.0,2.0,0.0,2.0,2.0,260.810412990395,2.0,2.0,phase_1,,,,,,,,,,,,,blue,circle
48.0,1.0,1.0,0.0,1.0,1.0,383.3111129933968,2.0,1.0,phase_1,,,,,,,,,,,,,white,square
58.0,1.0,1.0,0.0,3.0,3.0,241.1760489922016,2.0,1.0,phase_1,,,,,,,,,,,,,white,square
424.0,4.0,4.0,0.0,4.0,4.0,217.5057040003594,2.0,2.0,phase_1,,,,,,,,,,,,,magenta,triangle
196.0,7.0,3.0,1.0,1.0,1.0,457.7239899954293,3.0,1.0,phase_1,,,,,,,,,,,,,yellow,diamond
58.0,1.0,1.0,0.0,1.0,1.0,232.5488589995075,3.0,1.0,phase_1,,,,,,,,,,,,,white,square
177.0,7.0,3.0,1.0,3.0,3.0,244.8134990117978,3.0,1.0,phase_1,,,,,,,,,,,,,yellow,diamond
185.0,3.0,3.0,0.0,1.0,1.0,346.0600370017346,3.0,1.0,phase_1,,,,,,,,,,,,,orange,flipped triangle
55.0,1.0,1.0,0.0,2.0,2.0,291.2150420015678,3.0,1.0,phase_1,,,,,,,,,,,,,white,square
393.0,4.0,4.0,0.0,1.0,1.0,300.4288839874789,3.0,1.0,phase_1,,,,,,,,,,,,,magenta,triangle
97.0,2.0,2.0,0.0,3.0,3.0,303.8885309942998,3.0,1.0,phase_1,,,,,,,,,,,,,blue,circle
225.0,7.0,3.0,1.0,1.0,1.0,312.8950919781346,3.0,1.0,phase_1,,,,,,,,,,,,,yellow,diamond
102.0,2.0,2.0,0.0,2.0,2.0,370.1484290068038,3.0,1.0,phase_1,,,,,,,,,,,,,blue,circle
48.0,1.0,1.0,0.0,4.0,4.0,291.4517809986137,3.0,1.0,phase_1,,,,,,,,,,,,,white,square
34.0,1.0,1.0,0.0,1.0,1.0,304.1621669835876,3.0,1.0,phase_1,,,,,,,,,,,,,white,square
121.0,2.0,2.0,0.0,2.0,2.0,262.3629580193665,3.0,1.0,phase_1,,,,,,,,,,,,,blue,circle
425.0,8.0,4.0,1.0,2.0,2.0,384.5211630105041,3.0,1.0,phase_1,,,,,,,,,,,,,cyan,I
0.0,8.0,0.0,1.0,4.0,4.0,207.8757419949397,3.0,2.0,phase_1,,,,,,,,,,,,,cyan,I
214.0,7.0,3.0,1.0,3.0,3.0,332.4601640051696,3.0,1.0,phase_1,,,,,,,,,,,,,yellow,diamond
97.0,2.0,2.0,0.0,2.0,2.0,51.4855000074021,3.0,2.0,phase_1,,,,,,,,,,,,,blue,circle
48.0,5.0,1.0,1.0,4.0,4.0,409.5072179916315,3.0,1.0,phase_1,,,,,,,,,,,,,gray,cross
0.0,6.0,0.0,1.0,4.0,4.0,534.6780459803995,3.0,1.0,phase_1,,,,,,,,,,,,,green,hexagon
415.0,4.0,4.0,0.0,4.0,4.0,322.209070000099,3.0,1.0,phase_1,,,,,,,,,,,,,magenta,triangle
118.0,6.0,2.0,1.0,3.0,3.0,244.9078369827475,3.0,1.0,phase_1,,,,,,,,,,,,,green,hexagon
380.0,8.0,4.0,1.0,1.0,1.0,290.1806169829797,3.0,1.0,phase_1,,,,,,,,,,,,,cyan,I
176.0,3.0,3.0,0.0,1.0,1.0,391.1093029892072,3.0,1.0,phase_1,,,,,,,,,,,,,orange,flipped triangle
87.0,2.0,2.0,0.0,3.0,3.0,336.3214579876512,3.0,1.0,phase_1,,,,,,,,,,,,,blue,circle
177.0,3.0,3.0,0.0,1.0,1.0,324.6954850037582,3.0,1.0,phase_1,,,,,,,,,,,,,orange,flipped triangle
88.0,2.0,2.0,0.0,2.0,2.0,312.1115179965272,3.0,1.0,phase_1,,,,,,,,,,,,,blue,circle
207.0,7.0,3.0,1.0,2.0,2.0,325.9684760123491,3.0,1.0,phase_1,,,,,,,,,,,,,yellow,diamond
181.0,7.0,3.0,1.0,3.0,3.0,339.6967290027533,3.0,1.0,phase_1,,,,,,,,,,,,,yellow,diamond
197.0,7.0,3.0,1.0,3.0,3.0,304.6483540092595,3.0,1.0,phase_1,,,,,,,,,,,,,yellow,diamond
185.0,7.0,3.0,1.0,4.0,4.0,292.8295090096071,3.0,1.0,phase_1,,,,,,,,,,,,,yellow,diamond
102.0,6.0,2.0,1.0,4.0,4.0,419.7025419853162,3.0,1.0,phase_1,,,,,,,,,,,,,green,hexagon
378.0,8.0,4.0,1.0,4.0,4.0,386.6558489971794,3.0,1.0,phase_1,,,,,,,,,,,,,cyan,I
0.0,1.0,0.0,0.0,1.0,1.0,329.5606580213643,3.0,1.0,phase_1,,,,,,,,,,,,,white,square
117.0,6.0,2.0,1.0,3.0,3.0,161.509471014142,3.0,2.0,phase_1,,,,,,,,,,,,,green,hexagon
0.0,3.0,0.0,0.0,4.0,4.0,295.3468810010236,3.0,1.0,phase_1,,,,,,,,,,,,,orange,flipped triangle
393.0,8.0,4.0,1.0,2.0,2.0,0.1953199971467,3.0,2.0,phase_1,,,,,,,,,,,,,cyan,I
396.0,8.0,4.0,1.0,2.0,2.0,16.2711100128944,3.0,2.0,phase_1,,,,,,,,,,,,,cyan,I
413.0,4.0,4.0,0.0,3.0,3.0,365.2352880162652,3.0,1.0,phase_1,,,,,,,,,,,,,magenta,triangle
211.0,3.0,3.0,0.0,1.0,1.0,356.1220089904964,3.0,1.0,phase_1,,,,,,,,,,,,,orange,flipped triangle
96.0,2.0,2.0,0.0,1.0,1.0,348.031732981326,3.0,1.0,phase_1,,,,,,,,,,,,,blue,circle
210.0,7.0,3.0,1.0,3.0,3.0,267.8405230108183,3.0,1.0,phase_1,,,,,,,,,,,,,yellow,diamond
385.0,4.0,4.0,0.0,4.0,4.0,403.8753760105464,3.0,1.0,phase_1,,,,,,,,,,,,,magenta,triangle
413.0,8.0,4.0,1.0,2.0,2.0,503.7852310051676,3.0,1.0,phase_1,,,,,,,,,,,,,cyan,I
78.0,6.0,2.0,1.0,2.0,2.0,402.591380989179,3.0,1.0,phase_1,,,,,,,,,,,,,green,hexagon
30.0,5.0,1.0,1.0,2.0,2.0,347.9323339997791,3.0,1.0,phase_1,,,,,,,,,,,,,gray,cross
417.0,4.0,4.0,0.0,4.0,4.0,293.2657870114781,3.0,1.0,phase_1,,,,,,,,,,,,,magenta,triangle
0.0,3.0,0.0,0.0,4.0,4.0,338.6213900230359,3.0,1.0,phase_1,,,,,,,,,,,,,orange,flipped triangle
380.0,4.0,4.0,0.0,2.0,2.0,196.302407013718,3.0,2.0,phase_1,,,,,,,,,,,,,magenta,triangle
36.0,1.0,1.0,0.0,2.0,2.0,339.0331779955886,3.0,1.0,phase_1,,,,,,,,,,,,,white,square
58.0,5.0,1.0,1.0,1.0,1.0,384.4557559932582,3.0,1.0,phase_1,,,,,,,,,,,,,gray,cross
409.0,4.0,4.0,0.0,1.0,1.0,353.6991919972934,3.0,1.0,phase_1,,,,,,,,,,,,,magenta,triangle
384.0,4.0,4.0,0.0,2.0,2.0,285.8137970033567,3.0,1.0,phase_1,,,,,,,,,,,,,magenta,triangle
422.0,8.0,4.0,1.0,2.0,2.0,658.3155879925471,3.0,1.0,phase_1,,,,,,,,,,,,,cyan,I
0.0,6.0,0.0,1.0,1.0,1.0,389.0683249919675,3.0,1.0,phase_1,,,,,,,,,,,,,green,hexagon
415.0,8.0,4.0,1.0,1.0,1.0,377.7024590235669,3.0,1.0,phase_1,,,,,,,,,,,,,cyan,I
219.0,7.0,3.0,1.0,1.0,1.0,353.2298739883117,3.0,1.0,phase_1,,,,,,,,,,,,,yellow,diamond
0.0,6.0,0.0,1.0,4.0,4.0,402.2498260019347,3.0,1.0,phase_1,,,,,,,,,,,,,green,hexagon
120.0,2.0,2.0,0.0,4.0,4.0,343.1058790010866,3.0,1.0,phase_1,,,,,,,,,,,,,blue,circle
117.0,2.0,2.0,0.0,4.0,4.0,302.9168320063036,3.0,1.0,phase_1,,,,,,,,,,,,,blue,circle
96.0,6.0,2.0,1.0,2.0,2.0,311.1391079728491,3.0,1.0,phase_1,,,,,,,,,,,,,green,hexagon
57.0,1.0,1.0,0.0,1.0,1.0,480.6846540013794,3.0,1.0,phase_1,,,,,,,,,,,,,white,square
194.0,3.0,3.0,0.0,1.0,1.0,381.7601289774757,3.0,1.0,phase_1,,,,,,,,,,,,,orange,flipped triangle
34.0,5.0,1.0,1.0,1.0,1.0,323.3388410008047,3.0,1.0,phase_1,,,,,,,,,,,,,gray,cross
223.0,3.0,3.0,0.0,3.0,3.0,267.8835050028283,3.0,1.0,phase_1,,,,,,,,,,,,,orange,flipped triangle
387.0,4.0,4.0,0.0,2.0,2.0,290.8451510011218,3.0,1.0,phase_1,,,,,,,,,,,,,magenta,triangle
0.0,6.0,0.0,1.0,4.0,4.0,351.2547120044473,3.0,1.0,phase_1,,,,,,,,,,,,,green,hexagon
0.0,2.0,0.0,0.0,3.0,3.0,359.9902050045784,3.0,1.0,phase_1,,,,,,,,,,,,,blue,circle
201.0,3.0,3.0,0.0,2.0,2.0,283.6408299917821,3.0,1.0,phase_1,,,,,,,,,,,,,orange,flipped triangle
33.0,5.0,1.0,1.0,3.0,3.0,295.939785981318,3.0,1.0,phase_1,,,,,,,,,,,,,gray,cross
176.0,3.0,3.0,0.0,2.0,2.0,296.2134309927933,3.0,1.0,phase_1,,,,,,,,,,,,,orange,flipped triangle
0.0,7.0,0.0,1.0,1.0,1.0,327.8826889873016,3.0,1.0,phase_1,,,,,,,,,,,,,yellow,diamond
398.0,8.0,4.0,1.0,2.0,2.0,329.2485069832764,3.0,1.0,phase_1,,,,,,,,,,,,,cyan,I
71.0,5.0,1.0,1.0,2.0,2.0,299.054900999181,3.0,1.0,phase_1,,,,,,,,,,,,,gray,cross
0.0,1.0,0.0,0.0,3.0,3.0,341.1012739816215,3.0,1.0,phase_1,,,,,,,,,,,,,white,square
109.0,2.0,2.0,0.0,2.0,2.0,330.1855470053851,3.0,1.0,phase_1,,,,,,,,,,,,,blue,circle
210.0,3.0,3.0,0.0,2.0,2.0,569.1082869889215,3.0,1.0,phase_1,,,,,,,,,,,,,orange,flipped triangle
32.0,1.0,1.0,0.0,4.0,4.0,310.4419389856048,3.0,1.0,phase_1,,,,,,,,,,,,,white,square
92.0,2.0,2.0,0.0,4.0,4.0,436.0560580098536,3.0,2.0,phase_1,,,,,,,,,,,,,blue,circle
0.0,2.0,0.0,0.0,1.0,1.0,367.1895579900592,3.0,1.0,phase_1,,,,,,,,,,,,,blue,circle
121.0,6.0,2.0,1.0,1.0,1.0,359.7907610237598,3.0,1.0,phase_1,,,,,,,,,,,,,green,hexagon
95.0,6.0,2.0,1.0,4.0,4.0,528.3466590044554,3.0,1.0,phase_1,,,,,,,,,,,,,green,hexagon
395.0,8.0,4.0,1.0,3.0,3.0,335.8421390003059,3.0,1.0,phase_1,,,,,,,,,,,,,cyan,I
413.0,8.0,4.0,1.0,3.0,3.0,0.1445709785912,3.0,2.0,phase_1,,,,,,,,,,,,,cyan,I
0.0,1.0,0.0,0.0,3.0,3.0,417.0534379954915,3.0,1.0,phase_1,,,,,,,,,,,,,white,square
0.0,1.0,0.0,0.0,2.0,2.0,217.1672150143422,3.0,2.0,phase_1,,,,,,,,,,,,,white,square
405.0,8.0,4.0,1.0,4.0,4.0,294.7365590080153,3.0,1.0,phase_1,,,,,,,,,,,,,cyan,I
379.0,4.0,4.0,0.0,1.0,1.0,331.4137489942368,3.0,1.0,phase_1,,,,,,,,,,,,,magenta,triangle
68.0,1.0,1.0,0.0,4.0,4.0,207.800167001551,3.0,2.0,phase_1,,,,,,,,,,,,,white,square
197.0,3.0,3.0,0.0,4.0,4.0,523.0634359759279,3.0,1.0,phase_1,,,,,,,,,,,,,orange,flipped triangle
404.0,4.0,4.0,0.0,3.0,3.0,309.7659499908332,3.0,1.0,phase_1,,,,,,,,,,,,,magenta,triangle
0.0,5.0,0.0,1.0,2.0,2.0,319.0512410074007,3.0,1.0,phase_1,,,,,,,,,,,,,gray,cross
120.0,6.0,2.0,1.0,3.0,3.0,310.1149550057016,3.0,1.0,phase_1,,,,,,,,,,,,,green,hexagon
387.0,8.0,4.0,1.0,1.0,1.0,433.761502004927,3.0,1.0,phase_1,,,,,,,,,,,,,cyan,I
90.0,6.0,2.0,1.0,4.0,4.0,348.7986390246078,3.0,1.0,phase_1,,,,,,,,,,,,,green,hexagon
0.0,5.0,0.0,1.0,1.0,1.0,379.1006489773281,3.0,1.0,phase_1,,,,,,,,,,,,,gray,cross
91.0,6.0,2.0,1.0,2.0,2.0,390.4790919914376,3.0,1.0,phase_1,,,,,,,,,,,,,green,hexagon
196.0,3.0,3.0,0.0,3.0,3.0,292.5317309855018,3.0,1.0,phase_1,,,,,,,,,,,,,orange,flipped triangle
401.0,4.0,4.0,0.0,3.0,3.0,279.0067229943815,3.0,1.0,phase_1,,,,,,,,,,,,,magenta,triangle
386.0,8.0,4.0,1.0,3.0,3.0,292.2748489945661,3.0,1.0,phase_1,,,,,,,,,,,,,cyan,I
78.0,2.0,2.0,0.0,2.0,2.0,349.3806179903913,3.0,1.0,phase_1,,,,,,,,,,,,,blue,circle
52.0,1.0,1.0,0.0,1.0,1.0,405.4047660029027,3.0,1.0,phase_1,,,,,,,,,,,,,white,square
198.0,7.0,3.0,1.0,3.0,3.0,372.0640459796414,4.0,1.0,phase_1,,,,,,,,,,,,,yellow,diamond
385.0,8.0,4.0,1.0,3.0,3.0,318.3243870153092,4.0,1.0,phase_1,,,,,,,,,,,,,cyan,I
110.0,2.0,2.0,0.0,4.0,4.0,327.4917909875512,4.0,1.0,phase_1,,,,,,,,,,,,,blue,circle
220.0,7.0,3.0,1.0,3.0,3.0,340.0824540003668,4.0,1.0,phase_1,,,,,,,,,,,,,yellow,diamond
32.0,5.0,1.0,1.0,2.0,2.0,283.915692998562,4.0,1.0,phase_1,,,,,,,,,,,,,gray,cross
198.0,7.0,3.0,1.0,4.0,4.0,408.6730849812738,4.0,1.0,phase_1,,,,,,,,,,,,,yellow,diamond
181.0,3.0,3.0,0.0,2.0,2.0,342.511116003152,4.0,1.0,phase_1,,,,,,,,,,,,,orange,flipped triangle
27.0,5.0,1.0,1.0,3.0,3.0,290.3980960254557,4.0,1.0,phase_1,,,,,,,,,,,,,gray,cross
56.0,5.0,1.0,1.0,3.0,3.0,277.6327909959946,4.0,1.0,phase_1,,,,,,,,,,,,,gray,cross
210.0,3.0,3.0,0.0,4.0,4.0,286.5287169988733,4.0,1.0,phase_1,,,,,,,,,,,,,orange,flipped triangle
90.0,2.0,2.0,0.0,3.0,3.0,322.2154139948543,4.0,1.0,phase_1,,,,,,,,,,,,,blue,circle
415.0,4.0,4.0,0.0,2.0,2.0,264.7247090062592,4.0,1.0,phase_1,,,,,,,,,,,,,magenta,triangle
0.0,7.0,0.0,1.0,1.0,1.0,243.7503340188413,4.0,2.0,phase_1,,,,,,,,,,,,,yellow,diamond
215.0,3.0,3.0,0.0,3.0,3.0,278.5368350159842,4.0,1.0,phase_1,,,,,,,,,,,,,orange,flipped triangle
85.0,2.0,2.0,0.0,4.0,4.0,291.8691560043953,4.0,1.0,phase_1,,,,,,,,,,,,,blue,circle
190.0,7.0,3.0,1.0,4.0,4.0,281.7563779826741,4.0,1.0,phase_1,,,,,,,,,,,,,yellow,diamond
0.0,8.0,0.0,1.0,1.0,1.0,403.5029509977903,4.0,1.0,phase_1,,,,,,,,,,,,,cyan,I
0.0,4.0,0.0,0.0,3.0,3.0,304.7358460025862,4.0,1.0,phase_1,,,,,,,,,,,,,magenta,triangle
0.0,6.0,0.0,1.0,1.0,1.0,268.9219930034596,4.0,1.0,phase_1,,,,,,,,,,,,,green,hexagon
208.0,7.0,3.0,1.0,2.0,2.0,161.501822003629,4.0,2.0,phase_1,,,,,,,,,,,,,yellow,diamond
0.0,2.0,0.0,0.0,3.0,3.0,286.2489969993476,4.0,1.0,phase_1,,,,,,,,,,,,,blue,circle
198.0,3.0,3.0,0.0,4.0,4.0,306.0694790037814,4.0,1.0,phase_1,,,,,,,,,,,,,orange,flipped triangle
0.0,6.0,0.0,1.0,4.0,4.0,198.0244800215587,4.0,2.0,phase_1,,,,,,,,,,,,,green,hexagon
0.0,5.0,0.0,1.0,1.0,1.0,363.4427050128579,4.0,1.0,phase_1,,,,,,,,,,,,,gray,cross
0.0,3.0,0.0,0.0,2.0,2.0,377.8428219957277,4.0,1.0,phase_1,,,,,,,,,,,,,orange,flipped triangle
0.0,7.0,0.0,1.0,1.0,1.0,297.4711260176264,4.0,1.0,phase_1,,,,,,,,,,,,,yellow,diamond
92.0,2.0,2.0,0.0,1.0,1.0,286.2130510038696,4.0,1.0,phase_1,,,,,,,,,,,,,blue,circle
0.0,1.0,0.0,0.0,4.0,4.0,410.2516139973886,4.0,1.0,phase_1,,,,,,,,,,,,,white,square
58.0,5.0,1.0,1.0,2.0,2.0,286.9284510088619,4.0,1.0,phase_1,,,,,,,,,,,,,gray,cross
0.0,2.0,0.0,0.0,3.0,3.0,346.2516349973157,4.0,1.0,phase_1,,,,,,,,,,,,,blue,circle
0.0,2.0,0.0,0.0,1.0,1.0,190.4411189898383,4.0,2.0,phase_1,,,,,,,,,,,,,blue,circle
97.0,6.0,2.0,1.0,2.0,2.0,268.6134469986427,4.0,1.0,phase_1,,,,,,,,,,,,,green,hexagon
0.0,3.0,0.0,0.0,3.0,3.0,302.9519730189349,4.0,1.0,phase_1,,,,,,,,,,,,,orange,flipped triangle
0.0,1.0,0.0,0.0,2.0,2.0,44.4551960099488,4.0,2.0,phase_1,,,,,,,,,,,,,white,square
102.0,6.0,2.0,1.0,3.0,3.0,258.6359099950641,4.0,1.0,phase_1,,,,,,,,,,,,,green,hexagon
88.0,6.0,2.0,1.0,4.0,4.0,341.2796710035763,4.0,1.0,phase_1,,,,,,,,,,,,,green,hexagon
62.0,5.0,1.0,1.0,3.0,3.0,272.1936909947544,4.0,1.0,phase_1,,,,,,,,,,,,,gray,cross
70.0,1.0,1.0,0.0,1.0,1.0,304.2773950146511,4.0,1.0,phase_1,,,,,,,,,,,,,white,square
47.0,5.0,1.0,1.0,1.0,1.0,61.1095579806715,4.0,2.0,phase_1,,,,,,,,,,,,,gray,cross
186.0,7.0,3.0,1.0,3.0,3.0,219.2621549766045,4.0,2.0,phase_1,,,,,,,,,,,,,yellow,diamond
44.0,5.0,1.0,1.0,4.0,4.0,262.3762139992323,4.0,1.0,phase_1,,,,,,,,,,,,,gray,cross
68.0,5.0,1.0,1.0,3.0,3.0,297.4346579867415,4.0,1.0,phase_1,,,,,,,,,,,,,gray,cross
66.0,1.0,1.0,0.0,2.0,2.0,311.382544983644,4.0,1.0,phase_1,,,,,,,,,,,,,white,square
225.0,3.0,3.0,0.0,3.0,3.0,309.335829981137,4.0,1.0,phase_1,,,,,,,,,,,,,orange,flipped triangle
121.0,2.0,2.0,0.0,2.0,2.0,300.3363509778864,4.0,1.0,phase_1,,,,,,,,,,,,,blue,circle
56.0,1.0,1.0,0.0,4.0,4.0,323.2948010263499,4.0,1.0,phase_1,,,,,,,,,,,,,white,square
176.0,7.0,3.0,1.0,2.0,2.0,101.1907900101505,4.0,2.0,phase_1,,,,,,,,,,,,,yellow,diamond
194.0,7.0,3.0,1.0,2.0,2.0,493.0345430038869,4.0,1.0,phase_1,,,,,,,,,,,,,yellow,diamond
68.0,5.0,1.0,1.0,1.0,1.0,326.1121510004159,4.0,1.0,phase_1,,,,,,,,,,,,,gray,cross
50.0,1.0,1.0,0.0,1.0,1.0,190.990782022709,4.0,2.0,phase_1,,,,,,,,,,,,,white,square
121.0,2.0,2.0,0.0,3.0,3.0,359.8407400131691,4.0,1.0,phase_1,,,,,,,,,,,,,blue,circle
176.0,7.0,3.0,1.0,1.0,1.0,349.681721010711,4.0,1.0,phase_1,,,,,,,,,,,,,yellow,diamond
68.0,5.0,1.0,1.0,2.0,2.0,350.7743339869194,4.0,1.0,phase_1,,,,,,,,,,,,,gray,cross
90.0,2.0,2.0,0.0,3.0,3.0,341.7693229857832,4.0,1.0,phase_1,,,,,,,,,,,,,blue,circle
205.0,3.0,3.0,0.0,4.0,4.0,376.4296100125648,4.0,1.0,phase_1,,,,,,,,,,,,,orange,flipped triangle
412.0,4.0,4.0,0.0,4.0,4.0,342.1886680007446,4.0,1.0,phase_1,,,,,,,,,,,,,magenta,triangle
47.0,1.0,1.0,0.0,2.0,2.0,264.6171389787923,4.0,1.0,phase_1,,,,,,,,,,,,,white,square
76.0,2.0,2.0,0.0,3.0,3.0,341.8629890074953,4.0,1.0,phase_1,,,,,,,,,,,,,blue,circle
217.0,3.0,3.0,0.0,4.0,4.0,332.6413400063757,4.0,1.0,phase_1,,,,,,,,,,,,,orange,flipped triangle
422.0,4.0,4.0,0.0,2.0,2.0,274.582690995885,4.0,1.0,phase_1,,,,,,,,,,,,,magenta,triangle
91.0,2.0,2.0,0.0,4.0,4.0,287.7951760019641,4.0,1.0,phase_1,,,,,,,,,,,,,blue,circle
98.0,6.0,2.0,1.0,1.0,1.0,424.30474399589,4.0,1.0,phase_1,,,,,,,,,,,,,green,hexagon
119.0,2.0,2.0,0.0,1.0,1.0,334.5424250001088,4.0,1.0,phase_1,,,,,,,,,,,,,blue,circle
213.0,3.0,3.0,0.0,3.0,3.0,323.6729679920245,4.0,1.0,phase_1,,,,,,,,,,,,,orange,flipped triangle
424.0,8.0,4.0,1.0,3.0,3.0,515.5524520087056,4.0,1.0,phase_1,,,,,,,,,,,,,cyan,I
44.0,1.0,1.0,0.0,4.0,4.0,368.2483169832267,4.0,1.0,phase_1,,,,,,,,,,,,,white,square
36.0,5.0,1.0,1.0,1.0,1.0,381.5705319866538,4.0,1.0,phase_1,,,,,,,,,,,,,gray,cross
205.0,7.0,3.0,1.0,4.0,4.0,111.43472799449219,4.0,2.0,phase_1,,,,,,,,,,,,,yellow,diamond
43.0,1.0,1.0,0.0,3.0,3.0,257.3854179936461,4.0,1.0,phase_1,,,,,,,,,,,,,white,square
412.0,8.0,4.0,1.0,1.0,1.0,337.7793219988234,4.0,1.0,phase_1,,,,,,,,,,,,,cyan,I
188.0,7.0,3.0,1.0,1.0,1.0,349.8893659852911,4.0,1.0,phase_1,,,,,,,,,,,,,yellow,diamond
104.0,6.0,2.0,1.0,4.0,4.0,248.5321850108448,4.0,1.0,phase_1,,,,,,,,,,,,,green,hexagon
48.0,5.0,1.0,1.0,4.0,4.0,0.1867889950517,4.0,2.0,phase_1,,,,,,,,,,,,,gray,cross
0.0,4.0,0.0,0.0,2.0,2.0,352.7708199981134,4.0,1.0,phase_1,,,,,,,,,,,,,magenta,triangle
109.0,6.0,2.0,1.0,4.0,4.0,286.7023390135728,4.0,1.0,phase_1,,,,,,,,,,,,,green,hexagon
68.0,1.0,1.0,0.0,2.0,2.0,453.6062729894183,4.0,1.0,phase_1,,,,,,,,,,,,,white,square
212.0,7.0,3.0,1.0,1.0,1.0,310.2068969747051,4.0,1.0,phase_1,,,,,,,,,,,,,yellow,diamond
216.0,3.0,3.0,0.0,4.0,4.0,298.2461969950236,4.0,1.0,phase_1,,,,,,,,,,,,,orange,flipped triangle
202.0,7.0,3.0,1.0,1.0,1.0,398.2757260091603,4.0,1.0,phase_1,,,,,,,,,,,,,yellow,diamond
409.0,8.0,4.0,1.0,4.0,4.0,297.4553100066259,4.0,1.0,phase_1,,,,,,,,,,,,,cyan,I
52.0,1.0,1.0,0.0,3.0,3.0,311.9939109892584,4.0,1.0,phase_1,,,,,,,,,,,,,white,square
118.0,2.0,2.0,0.0,3.0,3.0,345.9178489865735,4.0,1.0,phase_1,,,,,,,,,,,,,blue,circle
414.0,8.0,4.0,1.0,1.0,1.0,425.3582649980671,4.0,1.0,phase_1,,,,,,,,,,,,,cyan,I
0.0,1.0,0.0,0.0,1.0,1.0,368.7140359834302,4.0,1.0,phase_1,,,,,,,,,,,,,white,square
95.0,2.0,2.0,0.0,4.0,4.0,313.9379509957507,4.0,1.0,phase_1,,,,,,,,,,,,,blue,circle
412.0,8.0,4.0,1.0,4.0,4.0,301.0928200092166,4.0,1.0,phase_1,,,,,,,,,,,,,cyan,I
52.0,5.0,1.0,1.0,4.0,4.0,292.3940329928882,4.0,1.0,phase_1,,,,,,,,,,,,,gray,cross
405.0,4.0,4.0,0.0,3.0,3.0,348.9068420021795,4.0,1.0,phase_1,,,,,,,,,,,,,magenta,triangle
0.0,3.0,0.0,0.0,3.0,3.0,384.8349680192768,4.0,1.0,phase_1,,,,,,,,,,,,,orange,flipped triangle
217.0,7.0,3.0,1.0,4.0,4.0,304.4179799908306,4.0,1.0,phase_1,,,,,,,,,,,,,yellow,diamond
192.0,7.0,3.0,1.0,4.0,4.0,294.7040630097035,4.0,1.0,phase_1,,,,,,,,,,,,,yellow,diamond
395.0,4.0,4.0,0.0,2.0,2.0,0.1872389984782,4.0,2.0,phase_1,,,,,,,,,,,,,magenta,triangle
0.0,5.0,0.0,1.0,3.0,3.0,327.9641940025612,4.0,1.0,phase_1,,,,,,,,,,,,,gray,cross
220.0,3.0,3.0,0.0,1.0,1.0,384.8857760021928,4.0,1.0,phase_1,,,,,,,,,,,,,orange,flipped triangle
199.0,3.0,3.0,0.0,1.0,1.0,351.8623780109919,4.0,1.0,phase_1,,,,,,,,,,,,,orange,flipped triangle
376.0,8.0,4.0,1.0,3.0,3.0,321.5661940048449,4.0,1.0,phase_1,,,,,,,,,,,,,cyan,I
118.0,6.0,2.0,1.0,3.0,3.0,311.3390229991637,4.0,1.0,phase_1,,,,,,,,,,,,,green,hexagon
404.0,8.0,4.0,1.0,4.0,4.0,321.8944219988771,4.0,1.0,phase_1,,,,,,,,,,,,,cyan,I
0.0,8.0,0.0,1.0,4.0,4.0,208.5485449933912,4.0,2.0,phase_1,,,,,,,,,,,,,cyan,I
198.0,3.0,3.0,0.0,3.0,3.0,310.3391259792261,4.0,1.0,phase_1,,,,,,,,,,,,,orange,flipped triangle
0.0,8.0,4.0,1.0,6.0,0.0,0.0,1.0,1.0,phase_2,stop,250.0,250.0,4.0,,,,,,,,,cyan,I
0.0,5.0,1.0,1.0,6.0,6.0,415.2807619830128,1.0,1.0,phase_2,stop,250.0,300.0,3.0,,,,,,,,,gray,cross
0.0,6.0,2.0,1.0,6.0,6.0,272.7218559884932,1.0,1.0,phase_2,go,250.0,250.0,1.0,,,,,,,,,green,hexagon
0.0,6.0,2.0,1.0,6.0,6.0,260.0241939944681,1.0,1.0,phase_2,go,250.0,250.0,1.0,,,,,,,,,green,hexagon
0.0,8.0,4.0,1.0,5.0,5.0,269.8512370116077,1.0,1.0,phase_2,stop,250.0,250.0,3.0,,,,,,,,,cyan,I
0.0,5.0,1.0,1.0,5.0,5.0,295.6599519820884,1.0,1.0,phase_2,go,200.0,250.0,1.0,,,,,,,,,gray,cross
0.0,7.0,3.0,1.0,5.0,5.0,283.2658260012977,1.0,1.0,phase_2,stop,200.0,250.0,3.0,,,,,,,,,yellow,diamond
0.0,1.0,1.0,0.0,6.0,6.0,319.2074759863317,1.0,1.0,phase_2,go,150.0,250.0,1.0,,,,,,,,,white,square
0.0,8.0,4.0,1.0,6.0,6.0,308.5919810109772,1.0,1.0,phase_2,stop,150.0,250.0,3.0,,,,,,,,,cyan,I
0.0,4.0,4.0,0.0,5.0,5.0,296.8467559840064,1.0,1.0,phase_2,go,150.0,200.0,1.0,,,,,,,,,magenta,triangle
0.0,4.0,4.0,0.0,5.0,5.0,309.3992229842115,1.0,1.0,phase_2,go,150.0,200.0,1.0,,,,,,,,,magenta,triangle
0.0,5.0,1.0,1.0,6.0,6.0,322.8132940130308,1.0,1.0,phase_2,stop,150.0,200.0,3.0,,,,,,,,,gray,cross
0.0,4.0,4.0,0.0,6.0,6.0,434.4731769815553,1.0,1.0,phase_2,go,150.0,150.0,1.0,,,,,,,,,magenta,triangle
0.0,8.0,4.0,1.0,5.0,5.0,356.3866810000036,1.0,1.0,phase_2,stop,150.0,150.0,3.0,,,,,,,,,cyan,I
0.0,5.0,1.0,1.0,5.0,0.0,0.0,1.0,1.0,phase_2,stop,100.0,150.0,4.0,,,,,,,,,gray,cross
0.0,1.0,1.0,0.0,5.0,5.0,328.7669860001188,1.0,1.0,phase_2,go,150.0,150.0,1.0,,,,,,,,,white,square
0.0,8.0,4.0,1.0,5.0,5.0,349.41240801708767,1.0,1.0,phase_2,stop,150.0,150.0,3.0,,,,,,,,,cyan,I
0.0,4.0,4.0,0.0,6.0,6.0,363.0036629911046,1.0,1.0,phase_2,go,100.0,150.0,1.0,,,,,,,,,magenta,triangle
0.0,6.0,2.0,1.0,5.0,0.0,0.0,1.0,1.0,phase_2,stop,100.0,150.0,4.0,,,,,,,,,green,hexagon
0.0,1.0,1.0,0.0,6.0,6.0,294.0164039900992,1.0,1.0,phase_2,go,150.0,150.0,1.0,,,,,,,,,white,square
0.0,2.0,2.0,0.0,6.0,6.0,318.9769610180519,1.0,1.0,phase_2,go,150.0,150.0,1.0,,,,,,,,,blue,circle
0.0,8.0,4.0,1.0,6.0,6.0,509.46051499340683,1.0,1.0,phase_2,stop,150.0,150.0,3.0,,,,,,,,,cyan,I
0.0,6.0,2.0,1.0,5.0,5.0,331.3247650221456,1.0,1.0,phase_2,stop,150.0,100.0,3.0,,,,,,,,,green,hexagon
0.0,4.0,4.0,0.0,6.0,6.0,388.2755679951515,1.0,1.0,phase_2,go,100.0,100.0,1.0,,,,,,,,,magenta,triangle
0.0,8.0,4.0,1.0,5.0,5.0,422.9500779765658,1.0,1.0,phase_2,go,100.0,100.0,1.0,,,,,,,,,cyan,I
0.0,5.0,1.0,1.0,6.0,6.0,456.7395549966022,1.0,1.0,phase_2,go,100.0,100.0,1.0,,,,,,,,,gray,cross
0.0,5.0,1.0,1.0,5.0,5.0,412.9182980104815,1.0,1.0,phase_2,go,100.0,100.0,1.0,,,,,,,,,gray,cross
0.0,7.0,3.0,1.0,5.0,5.0,358.6174020019825,1.0,1.0,phase_2,go,100.0,100.0,1.0,,,,,,,,,yellow,diamond
0.0,7.0,3.0,1.0,6.0,0.0,0.0,1.0,1.0,phase_2,stop,100.0,100.0,4.0,,,,,,,,,yellow,diamond
0.0,6.0,2.0,1.0,5.0,5.0,335.7070719939656,1.0,1.0,phase_2,stop,100.0,150.0,3.0,,,,,,,,,green,hexagon
0.0,1.0,1.0,0.0,6.0,6.0,404.630377975991,1.0,1.0,phase_2,go,50.0,150.0,1.0,,,,,,,,,white,square
0.0,2.0,2.0,0.0,6.0,6.0,393.3314699970651,1.0,1.0,phase_2,go,50.0,150.0,1.0,,,,,,,,,blue,circle
0.0,3.0,3.0,0.0,5.0,5.0,653.3824930083938,1.0,1.0,phase_2,go,50.0,150.0,1.0,,,,,,,,,orange,flipped triangle
0.0,7.0,3.0,1.0,6.0,6.0,398.8854729977902,1.0,1.0,phase_2,stop,50.0,150.0,3.0,,,,,,,,,yellow,diamond
0.0,3.0,3.0,0.0,6.0,6.0,373.9598329993896,1.0,1.0,phase_2,go,50.0,100.0,1.0,,,,,,,,,orange,flipped triangle
0.0,1.0,1.0,0.0,6.0,6.0,366.2545010156464,1.0,1.0,phase_2,go,50.0,100.0,1.0,,,,,,,,,white,square
0.0,5.0,1.0,1.0,6.0,0.0,0.0,2.0,1.0,phase_2,stop,50.0,100.0,4.0,,,,,,,,,gray,cross
0.0,7.0,3.0,1.0,5.0,0.0,0.0,2.0,1.0,phase_2,stop,50.0,150.0,4.0,,,,,,,,,yellow,diamond
0.0,6.0,2.0,1.0,6.0,6.0,413.3777229872066,2.0,1.0,phase_2,stop,100.0,150.0,3.0,,,,,,,,,green,hexagon
0.0,1.0,1.0,0.0,5.0,5.0,380.4768629779573,2.0,1.0,phase_2,go,100.0,100.0,1.0,,,,,,,,,white,square
0.0,3.0,3.0,0.0,6.0,6.0,366.3647100038361,2.0,1.0,phase_2,go,100.0,100.0,1.0,,,,,,,,,orange,flipped triangle
0.0,7.0,3.0,1.0,5.0,5.0,483.1627710082102,2.0,1.0,phase_2,go,100.0,100.0,1.0,,,,,,,,,yellow,diamond
0.0,7.0,3.0,1.0,6.0,6.0,357.8182199853472,2.0,1.0,phase_2,go,100.0,100.0,1.0,,,,,,,,,yellow,diamond
0.0,6.0,2.0,1.0,6.0,6.0,347.9982079879846,2.0,1.0,phase_2,stop,100.0,100.0,3.0,,,,,,,,,green,hexagon
0.0,2.0,2.0,0.0,5.0,5.0,450.8194609952625,2.0,1.0,phase_2,go,100.0,50.0,1.0,,,,,,,,,blue,circle
0.0,3.0,3.0,0.0,5.0,5.0,418.850432994077,2.0,1.0,phase_2,go,100.0,50.0,1.0,,,,,,,,,orange,flipped triangle
0.0,4.0,4.0,0.0,6.0,6.0,385.3274239809252,2.0,1.0,phase_2,go,100.0,50.0,1.0,,,,,,,,,magenta,triangle
0.0,7.0,3.0,1.0,5.0,0.0,0.0,2.0,1.0,phase_2,stop,100.0,50.0,4.0,,,,,,,,,yellow,diamond
0.0,6.0,2.0,1.0,6.0,0.0,0.0,2.0,1.0,phase_2,stop,150.0,50.0,4.0,,,,,,,,,green,hexagon
0.0,2.0,2.0,0.0,6.0,6.0,444.8416950181126,2.0,1.0,phase_2,go,150.0,100.0,1.0,,,,,,,,,blue,circle
0.0,5.0,1.0,1.0,5.0,5.0,378.8807639793958,2.0,1.0,phase_2,stop,150.0,100.0,3.0,,,,,,,,,gray,cross
0.0,5.0,1.0,1.0,5.0,5.0,444.0723160223569,2.0,1.0,phase_2,go,100.0,100.0,1.0,,,,,,,,,gray,cross
0.0,8.0,4.0,1.0,5.0,0.0,0.0,2.0,1.0,phase_2,stop,100.0,100.0,4.0,,,,,,,,,cyan,I
0.0,5.0,1.0,1.0,5.0,0.0,0.0,2.0,1.0,phase_2,stop,150.0,100.0,4.0,,,,,,,,,gray,cross
0.0,3.0,3.0,0.0,5.0,5.0,572.699295997154,2.0,1.0,phase_2,go,200.0,100.0,1.0,,,,,,,,,orange,flipped triangle
0.0,6.0,2.0,1.0,5.0,5.0,368.8137760036625,2.0,1.0,phase_2,stop,200.0,100.0,3.0,,,,,,,,,green,hexagon
0.0,8.0,4.0,1.0,6.0,0.0,0.0,2.0,1.0,phase_2,stop,150.0,100.0,4.0,,,,,,,,,cyan,I
0.0,1.0,1.0,0.0,6.0,6.0,475.1258239848539,2.0,1.0,phase_2,go,150.0,150.0,1.0,,,,,,,,,white,square
0.0,7.0,3.0,1.0,5.0,5.0,464.7775379999075,2.0,1.0,phase_2,go,150.0,150.0,1.0,,,,,,,,,yellow,diamond
0.0,2.0,2.0,0.0,6.0,6.0,473.0864599987399,2.0,1.0,phase_2,go,150.0,150.0,1.0,,,,,,,,,blue,circle
0.0,6.0,2.0,1.0,6.0,6.0,384.0867049875669,2.0,1.0,phase_2,go,150.0,150.0,1.0,,,,,,,,,green,hexagon
0.0,5.0,1.0,1.0,6.0,0.0,0.0,2.0,1.0,phase_2,stop,150.0,150.0,4.0,,,,,,,,,gray,cross
0.0,2.0,2.0,0.0,6.0,6.0,445.2445869974326,2.0,1.0,phase_2,go,150.0,200.0,1.0,,,,,,,,,blue,circle
0.0,4.0,4.0,0.0,5.0,5.0,602.2114449879155,2.0,1.0,phase_2,go,150.0,200.0,1.0,,,,,,,,,magenta,triangle
0.0,7.0,3.0,1.0,5.0,5.0,522.9556740086991,2.0,1.0,phase_2,go,150.0,200.0,1.0,,,,,,,,,yellow,diamond
0.0,7.0,3.0,1.0,6.0,6.0,568.3817749959417,2.0,1.0,phase_2,go,150.0,200.0,1.0,,,,,,,,,yellow,diamond
0.0,1.0,1.0,0.0,5.0,5.0,470.3414390096441,2.0,1.0,phase_2,go,150.0,200.0,1.0,,,,,,,,,white,square
0.0,6.0,2.0,1.0,5.0,0.0,0.0,2.0,1.0,phase_2,stop,150.0,200.0,4.0,,,,,,,,,green,hexagon
0.0,3.0,3.0,0.0,5.0,5.0,471.726112999022,2.0,1.0,phase_2,go,200.0,200.0,1.0,,,,,,,,,orange,flipped triangle
0.0,7.0,3.0,1.0,6.0,0.0,0.0,2.0,1.0,phase_2,stop,200.0,200.0,4.0,,,,,,,,,yellow,diamond
0.0,3.0,3.0,0.0,5.0,5.0,462.5962729915045,2.0,1.0,phase_2,go,200.0,250.0,1.0,,,,,,,,,orange,flipped triangle
0.0,5.0,1.0,1.0,5.0,5.0,472.4829170154407,2.0,1.0,phase_2,go,200.0,250.0,1.0,,,,,,,,,gray,cross
0.0,5.0,1.0,1.0,6.0,6.0,555.6564010039438,3.0,1.0,phase_2,stop,200.0,250.0,3.0,,,,,,,,,gray,cross
0.0,2.0,2.0,0.0,5.0,5.0,456.6397049929946,3.0,1.0,phase_2,go,200.0,200.0,1.0,,,,,,,,,blue,circle
0.0,3.0,3.0,0.0,6.0,6.0,503.766808018554,3.0,1.0,phase_2,go,200.0,200.0,1.0,,,,,,,,,orange,flipped triangle
0.0,7.0,3.0,1.0,6.0,6.0,401.405493990751,3.0,1.0,phase_2,stop,200.0,200.0,3.0,,,,,,,,,yellow,diamond
0.0,7.0,3.0,1.0,6.0,0.0,0.0,3.0,1.0,phase_2,stop,200.0,150.0,4.0,,,,,,,,,yellow,diamond
0.0,6.0,2.0,1.0,5.0,0.0,0.0,3.0,1.0,phase_2,stop,200.0,200.0,4.0,,,,,,,,,green,hexagon
0.0,1.0,1.0,0.0,5.0,5.0,427.675991988508,3.0,1.0,phase_2,go,250.0,200.0,1.0,,,,,,,,,white,square
0.0,7.0,3.0,1.0,6.0,0.0,0.0,3.0,1.0,phase_2,stop,250.0,200.0,4.0,,,,,,,,,yellow,diamond
0.0,4.0,4.0,0.0,5.0,5.0,531.4495009952225,3.0,1.0,phase_2,go,250.0,250.0,1.0,,,,,,,,,magenta,triangle
0.0,8.0,4.0,1.0,6.0,0.0,0.0,3.0,1.0,phase_2,stop,250.0,250.0,4.0,,,,,,,,,cyan,I
0.0,1.0,1.0,0.0,6.0,6.0,541.895892994944,3.0,1.0,phase_2,go,250.0,300.0,1.0,,,,,,,,,white,square
0.0,6.0,2.0,1.0,6.0,0.0,0.0,3.0,1.0,phase_2,stop,250.0,300.0,4.0,,,,,,,,,green,hexagon
0.0,3.0,3.0,0.0,6.0,6.0,587.7901569765527,3.0,1.0,phase_2,go,250.0,350.0,1.0,,,,,,,,,orange,flipped triangle
0.0,2.0,2.0,0.0,6.0,6.0,589.0138590184506,3.0,1.0,phase_2,go,250.0,350.0,1.0,,,,,,,,,blue,circle
0.0,3.0,3.0,0.0,5.0,5.0,446.2682429875713,3.0,1.0,phase_2,go,250.0,350.0,1.0,,,,,,,,,orange,flipped triangle
0.0,5.0,1.0,1.0,5.0,0.0,0.0,3.0,1.0,phase_2,stop,250.0,350.0,4.0,,,,,,,,,gray,cross
0.0,3.0,3.0,0.0,6.0,6.0,638.7420909886714,3.0,1.0,phase_2,go,300.0,350.0,1.0,,,,,,,,,orange,flipped triangle
0.0,5.0,1.0,1.0,6.0,0.0,0.0,3.0,1.0,phase_2,stop,300.0,350.0,4.0,,,,,,,,,gray,cross
0.0,1.0,1.0,0.0,6.0,6.0,652.0063240022864,3.0,1.0,phase_2,go,300.0,400.0,1.0,,,,,,,,,white,square
0.0,8.0,4.0,1.0,6.0,6.0,665.1034130190965,3.0,1.0,phase_2,go,300.0,400.0,1.0,,,,,,,,,cyan,I
0.0,3.0,3.0,0.0,5.0,5.0,350.1820779929403,3.0,1.0,phase_2,go,300.0,400.0,1.0,,,,,,,,,orange,flipped triangle
0.0,6.0,2.0,1.0,5.0,5.0,462.6549649983644,3.0,1.0,phase_2,stop,300.0,400.0,3.0,,,,,,,,,green,hexagon
0.0,4.0,4.0,0.0,6.0,6.0,776.5913610055577,3.0,1.0,phase_2,go,250.0,400.0,1.0,,,,,,,,,magenta,triangle
0.0,5.0,1.0,1.0,5.0,0.0,0.0,3.0,1.0,phase_2,stop,250.0,400.0,4.0,,,,,,,,,gray,cross
0.0,5.0,1.0,1.0,6.0,0.0,0.0,3.0,1.0,phase_2,stop,300.0,400.0,4.0,,,,,,,,,gray,cross
0.0,3.0,3.0,0.0,6.0,6.0,726.2070980214048,3.0,1.0,phase_2,go,300.0,450.0,1.0,,,,,,,,,orange,flipped triangle
0.0,4.0,4.0,0.0,6.0,6.0,736.1889549938496,3.0,1.0,phase_2,go,300.0,450.0,1.0,,,,,,,,,magenta,triangle
0.0,3.0,3.0,0.0,6.0,6.0,602.9974770208355,3.0,1.0,phase_2,go,300.0,450.0,1.0,,,,,,,,,orange,flipped triangle
0.0,6.0,2.0,1.0,6.0,0.0,0.0,3.0,1.0,phase_2,stop,300.0,450.0,4.0,,,,,,,,,green,hexagon
0.0,8.0,4.0,1.0,5.0,5.0,715.5266990012024,3.0,1.0,phase_2,go,300.0,500.0,1.0,,,,,,,,,cyan,I
0.0,6.0,2.0,1.0,5.0,0.0,0.0,3.0,1.0,phase_2,stop,300.0,500.0,4.0,,,,,,,,,green,hexagon
0.0,7.0,3.0,1.0,5.0,0.0,0.0,3.0,1.0,phase_2,stop,350.0,500.0,4.0,,,,,,,,,yellow,diamond
0.0,1.0,1.0,0.0,6.0,6.0,707.1342390263453,3.0,1.0,phase_2,go,400.0,500.0,1.0,,,,,,,,,white,square
0.0,7.0,3.0,1.0,5.0,0.0,0.0,3.0,1.0,phase_2,stop,400.0,500.0,4.0,,,,,,,,,yellow,diamond
0.0,7.0,3.0,1.0,5.0,5.0,651.4176510099787,3.0,1.0,phase_2,go,450.0,500.0,1.0,,,,,,,,,yellow,diamond
0.0,6.0,2.0,1.0,5.0,0.0,0.0,3.0,1.0,phase_2,stop,450.0,500.0,4.0,,,,,,,,,green,hexagon
0.0,8.0,4.0,1.0,5.0,0.0,0.0,4.0,1.0,phase_2,stop,500.0,500.0,4.0,,,,,,,,,cyan,I
0.0,1.0,1.0,0.0,5.0,5.0,725.0563300040085,4.0,1.0,phase_2,go,550.0,500.0,1.0,,,,,,,,,white,square
0.0,8.0,4.0,1.0,6.0,0.0,0.0,4.0,1.0,phase_2,stop,550.0,500.0,4.0,,,,,,,,,cyan,I
0.0,4.0,4.0,0.0,5.0,5.0,679.5291409944184,4.0,1.0,phase_2,go,550.0,550.0,1.0,,,,,,,,,magenta,triangle
0.0,4.0,4.0,0.0,5.0,5.0,860.381545004202,4.0,1.0,phase_2,go,550.0,550.0,1.0,,,,,,,,,magenta,triangle
0.0,7.0,3.0,1.0,5.0,0.0,0.0,4.0,1.0,phase_2,stop,550.0,550.0,4.0,,,,,,,,,yellow,diamond
0.0,3.0,3.0,0.0,5.0,5.0,762.1700189774856,4.0,1.0,phase_2,go,600.0,550.0,1.0,,,,,,,,,orange,flipped triangle
0.0,4.0,4.0,0.0,5.0,5.0,842.7343090006616,4.0,1.0,phase_2,go,600.0,550.0,1.0,,,,,,,,,magenta,triangle
0.0,2.0,2.0,0.0,5.0,5.0,573.1203499890398,4.0,1.0,phase_2,go,600.0,550.0,1.0,,,,,,,,,blue,circle
0.0,3.0,3.0,0.0,6.0,6.0,788.5445779829752,4.0,1.0,phase_2,go,600.0,550.0,1.0,,,,,,,,,orange,flipped triangle
0.0,6.0,2.0,1.0,6.0,0.0,0.0,4.0,1.0,phase_2,stop,600.0,550.0,4.0,,,,,,,,,green,hexagon
0.0,7.0,3.0,1.0,5.0,0.0,0.0,4.0,1.0,phase_2,stop,600.0,600.0,4.0,,,,,,,,,yellow,diamond
0.0,5.0,1.0,1.0,6.0,0.0,0.0,4.0,1.0,phase_2,stop,650.0,600.0,4.0,,,,,,,,,gray,cross
0.0,2.0,2.0,0.0,5.0,5.0,1047.6134010241367,4.0,1.0,phase_2,go,650.0,650.0,1.0,,,,,,,,,blue,circle
0.0,4.0,4.0,0.0,6.0,6.0,914.9607630097308,4.0,1.0,phase_2,go,650.0,650.0,1.0,,,,,,,,,magenta,triangle
0.0,5.0,1.0,1.0,6.0,0.0,0.0,4.0,1.0,phase_2,stop,650.0,650.0,4.0,,,,,,,,,gray,cross
0.0,1.0,1.0,0.0,5.0,5.0,906.8357319920324,4.0,1.0,phase_2,go,650.0,700.0,1.0,,,,,,,,,white,square
0.0,2.0,2.0,0.0,5.0,5.0,893.8914170139469,4.0,1.0,phase_2,go,650.0,700.0,1.0,,,,,,,,,blue,circle
0.0,3.0,3.0,0.0,5.0,5.0,817.2022249782458,4.0,1.0,phase_2,go,650.0,700.0,1.0,,,,,,,,,orange,flipped triangle
0.0,8.0,4.0,1.0,6.0,0.0,0.0,4.0,1.0,phase_2,stop,650.0,700.0,4.0,,,,,,,,,cyan,I
0.0,2.0,2.0,0.0,6.0,6.0,908.582766976906,4.0,1.0,phase_2,go,650.0,750.0,1.0,,,,,,,,,blue,circle
0.0,1.0,1.0,0.0,6.0,6.0,921.2585070054048,4.0,1.0,phase_2,go,650.0,750.0,1.0,,,,,,,,,white,square
0.0,2.0,2.0,0.0,5.0,5.0,887.3701810080092,4.0,1.0,phase_2,go,650.0,750.0,1.0,,,,,,,,,blue,circle
0.0,6.0,2.0,1.0,5.0,0.0,0.0,4.0,1.0,phase_2,stop,650.0,750.0,4.0,,,,,,,,,green,hexagon
0.0,4.0,4.0,0.0,5.0,5.0,889.2999550153036,4.0,1.0,phase_2,go,700.0,750.0,1.0,,,,,,,,,magenta,triangle
0.0,2.0,2.0,0.0,5.0,5.0,383.7804929935373,4.0,1.0,phase_2,go,700.0,750.0,1.0,,,,,,,,,blue,circle
0.0,2.0,2.0,0.0,5.0,5.0,822.1443670045119,4.0,1.0,phase_2,go,700.0,750.0,1.0,,,,,,,,,blue,circle
0.0,1.0,1.0,0.0,5.0,5.0,935.9303140081464,4.0,1.0,phase_2,go,700.0,750.0,1.0,,,,,,,,,white,square
0.0,7.0,3.0,1.0,6.0,0.0,0.0,4.0,1.0,phase_2,stop,700.0,750.0,4.0,,,,,,,,,yellow,diamond
0.0,3.0,3.0,0.0,6.0,6.0,827.4443600093946,4.0,1.0,phase_2,go,700.0,800.0,1.0,,,,,,,,,orange,flipped triangle
0.0,5.0,1.0,1.0,5.0,0.0,0.0,4.0,1.0,phase_2,stop,700.0,800.0,4.0,,,,,,,,,gray,cross
0.0,5.0,1.0,1.0,5.0,5.0,863.4181050001644,4.0,1.0,phase_2,stop,750.0,800.0,3.0,,,,,,,,,gray,cross
0.0,7.0,3.0,1.0,6.0,0.0,0.0,4.0,1.0,phase_2,stop,700.0,800.0,4.0,,,,,,,,,yellow,diamond
0.0,4.0,4.0,0.0,5.0,5.0,1181.2643459998071,4.0,1.0,phase_2,go,700.0,850.0,1.0,,,,,,,,,magenta,triangle
0.0,4.0,4.0,0.0,6.0,6.0,932.9457560088484,4.0,1.0,phase_2,go,700.0,850.0,1.0,,,,,,,,,magenta,triangle
0.0,1.0,1.0,0.0,5.0,5.0,1170.2002760139294,4.0,1.0,phase_2,go,700.0,850.0,1.0,,,,,,,,,white,square
0.0,4.0,4.0,0.0,6.0,6.0,370.74126501102,5.0,1.0,phase_2,go,700.0,850.0,1.0,,,,,,,,,magenta,triangle
0.0,6.0,2.0,1.0,6.0,6.0,564.6097769786138,5.0,1.0,phase_2,go,700.0,850.0,1.0,,,,,,,,,green,hexagon
0.0,1.0,1.0,0.0,6.0,6.0,551.5941010089591,5.0,1.0,phase_2,go,700.0,850.0,1.0,,,,,,,,,white,square
0.0,3.0,3.0,0.0,6.0,6.0,362.3735709988978,5.0,1.0,phase_2,go,700.0,850.0,1.0,,,,,,,,,orange,flipped triangle
0.0,6.0,2.0,1.0,6.0,6.0,655.4658300010487,5.0,1.0,phase_2,stop,700.0,850.0,3.0,,,,,,,,,green,hexagon
0.0,2.0,2.0,0.0,5.0,5.0,703.9751209958922,5.0,1.0,phase_2,go,700.0,800.0,1.0,,,,,,,,,blue,circle
0.0,3.0,3.0,0.0,6.0,6.0,637.9435610142536,5.0,1.0,phase_2,go,700.0,800.0,1.0,,,,,,,,,orange,flipped triangle
0.0,8.0,4.0,1.0,5.0,5.0,511.3398550020065,5.0,1.0,phase_2,stop,700.0,800.0,3.0,,,,,,,,,cyan,I
0.0,7.0,3.0,1.0,6.0,6.0,661.265781003749,5.0,1.0,phase_2,stop,650.0,800.0,3.0,,,,,,,,,yellow,diamond
0.0,5.0,1.0,1.0,6.0,6.0,862.5095899915323,5.0,1.0,phase_2,stop,650.0,750.0,3.0,,,,,,,,,gray,cross
0.0,3.0,3.0,0.0,6.0,6.0,921.4308079972398,5.0,1.0,phase_2,go,650.0,700.0,1.0,,,,,,,,,orange,flipped triangle
0.0,3.0,3.0,0.0,5.0,5.0,347.9431470041163,5.0,1.0,phase_2,go,650.0,700.0,1.0,,,,,,,,,orange,flipped triangle
0.0,6.0,2.0,1.0,5.0,5.0,425.755134987412,5.0,1.0,phase_2,go,650.0,700.0,1.0,,,,,,,,,green,hexagon
0.0,3.0,3.0,0.0,5.0,5.0,416.6517830162775,5.0,1.0,phase_2,go,650.0,700.0,1.0,,,,,,,,,orange,flipped triangle
0.0,2.0,2.0,0.0,6.0,6.0,496.3234440074302,5.0,1.0,phase_2,go,650.0,700.0,1.0,,,,,,,,,blue,circle
0.0,2.0,2.0,0.0,5.0,5.0,643.7957640155219,5.0,1.0,phase_2,go,650.0,700.0,1.0,,,,,,,,,blue,circle
0.0,6.0,2.0,1.0,5.0,5.0,948.38430598611,5.0,1.0,phase_2,stop,650.0,700.0,3.0,,,,,,,,,green,hexagon
0.0,2.0,2.0,0.0,6.0,6.0,827.4391999875661,5.0,1.0,phase_2,go,600.0,700.0,1.0,,,,,,,,,blue,circle
0.0,8.0,4.0,1.0,6.0,6.0,353.8017169921659,5.0,1.0,phase_2,stop,600.0,700.0,3.0,,,,,,,,,cyan,I
0.0,2.0,2.0,0.0,6.0,6.0,363.7336039973888,5.0,1.0,phase_2,go,600.0,650.0,1.0,,,,,,,,,blue,circle
0.0,4.0,4.0,0.0,5.0,5.0,782.1737259801012,5.0,1.0,phase_2,go,600.0,650.0,1.0,,,,,,,,,magenta,triangle
0.0,7.0,3.0,1.0,6.0,6.0,591.4590610191226,5.0,1.0,phase_2,stop,600.0,650.0,3.0,,,,,,,,,yellow,diamond
0.0,5.0,1.0,1.0,6.0,6.0,1009.3061390216462,5.0,1.0,phase_2,go,600.0,600.0,1.0,,,,,,,,,gray,cross
0.0,5.0,1.0,1.0,5.0,5.0,479.8361810098868,5.0,1.0,phase_2,go,600.0,600.0,1.0,,,,,,,,,gray,cross
0.0,4.0,4.0,0.0,6.0,6.0,402.787540020654,5.0,1.0,phase_2,go,600.0,600.0,1.0,,,,,,,,,magenta,triangle
0.0,8.0,4.0,1.0,5.0,5.0,471.9178820087109,5.0,1.0,phase_2,go,600.0,600.0,1.0,,,,,,,,,cyan,I
0.0,7.0,3.0,1.0,5.0,5.0,326.5634490235243,5.0,1.0,phase_2,stop,600.0,600.0,3.0,,,,,,,,,yellow,diamond
0.0,6.0,2.0,1.0,6.0,6.0,392.9031930165365,5.0,1.0,phase_2,stop,550.0,600.0,3.0,,,,,,,,,green,hexagon
0.0,3.0,3.0,0.0,5.0,5.0,644.1170210018754,5.0,1.0,phase_2,go,550.0,550.0,1.0,,,,,,,,,orange,flipped triangle
0.0,2.0,2.0,0.0,6.0,6.0,327.5337590021081,5.0,1.0,phase_2,go,550.0,550.0,1.0,,,,,,,,,blue,circle
0.0,1.0,1.0,0.0,6.0,6.0,320.1509689970407,5.0,1.0,phase_2,go,550.0,550.0,1.0,,,,,,,,,white,square
0.0,2.0,2.0,0.0,6.0,6.0,385.3948529867921,5.0,1.0,phase_2,go,550.0,550.0,1.0,,,,,,,,,blue,circle
0.0,3.0,3.0,0.0,5.0,5.0,467.2922370082233,5.0,1.0,phase_2,go,550.0,550.0,1.0,,,,,,,,,orange,flipped triangle
0.0,6.0,2.0,1.0,5.0,0.0,0.0,5.0,1.0,phase_2,stop,550.0,550.0,4.0,,,,,,,,,green,hexagon
0.0,1.0,1.0,0.0,6.0,6.0,604.8203410173301,5.0,1.0,phase_2,go,600.0,550.0,1.0,,,,,,,,,white,square
0.0,4.0,4.0,0.0,5.0,5.0,650.9695840068161,5.0,1.0,phase_2,go,600.0,550.0,1.0,,,,,,,,,magenta,triangle
0.0,8.0,4.0,1.0,5.0,5.0,487.2765160107519,6.0,1.0,phase_2,go,600.0,550.0,1.0,,,,,,,,,cyan,I
0.0,8.0,4.0,1.0,6.0,6.0,419.4271579908672,6.0,1.0,phase_2,stop,600.0,550.0,3.0,,,,,,,,,cyan,I
0.0,4.0,4.0,0.0,5.0,5.0,487.8591410233639,6.0,1.0,phase_2,go,600.0,500.0,1.0,,,,,,,,,magenta,triangle
0.0,3.0,3.0,0.0,5.0,5.0,558.4033120248932,6.0,1.0,phase_2,go,600.0,500.0,1.0,,,,,,,,,orange,flipped triangle
0.0,4.0,4.0,0.0,5.0,5.0,684.5110600115731,6.0,1.0,phase_2,go,600.0,500.0,1.0,,,,,,,,,magenta,triangle
0.0,2.0,2.0,0.0,5.0,5.0,369.1994860128034,6.0,1.0,phase_2,go,600.0,500.0,1.0,,,,,,,,,blue,circle
0.0,4.0,4.0,0.0,6.0,6.0,594.185263995314,6.0,1.0,phase_2,go,600.0,500.0,1.0,,,,,,,,,magenta,triangle
0.0,2.0,2.0,0.0,6.0,6.0,628.9906760212034,6.0,1.0,phase_2,go,600.0,500.0,1.0,,,,,,,,,blue,circle
0.0,8.0,4.0,1.0,5.0,5.0,347.7254659810569,6.0,1.0,phase_2,stop,600.0,500.0,3.0,,,,,,,,,cyan,I
0.0,4.0,4.0,0.0,6.0,6.0,585.7066460011993,6.0,1.0,phase_2,go,550.0,500.0,1.0,,,,,,,,,magenta,triangle
0.0,8.0,4.0,1.0,5.0,5.0,640.5868570145685,6.0,1.0,phase_2,stop,550.0,500.0,3.0,,,,,,,,,cyan,I
0.0,8.0,4.0,1.0,5.0,5.0,428.153809014475,6.0,1.0,phase_2,stop,500.0,500.0,3.0,,,,,,,,,cyan,I
0.0,1.0,1.0,0.0,5.0,5.0,743.7850019778125,6.0,1.0,phase_2,go,450.0,500.0,1.0,,,,,,,,,white,square
0.0,2.0,2.0,0.0,6.0,6.0,362.2087620024103,6.0,1.0,phase_2,go,450.0,500.0,1.0,,,,,,,,,blue,circle
0.0,8.0,4.0,1.0,6.0,6.0,455.883418006124,6.0,1.0,phase_2,stop,450.0,500.0,3.0,,,,,,,,,cyan,I
0.0,8.0,4.0,1.0,5.0,0.0,0.0,6.0,1.0,phase_2,stop,450.0,450.0,4.0,,,,,,,,,cyan,I
0.0,3.0,3.0,0.0,6.0,6.0,410.1226050115656,6.0,1.0,phase_2,go,500.0,450.0,1.0,,,,,,,,,orange,flipped triangle
0.0,7.0,3.0,1.0,6.0,6.0,557.8117849945556,6.0,1.0,phase_2,stop,500.0,450.0,3.0,,,,,,,,,yellow,diamond
0.0,6.0,2.0,1.0,6.0,6.0,526.2784629885573,6.0,1.0,phase_2,stop,500.0,400.0,3.0,,,,,,,,,green,hexagon
0.0,6.0,2.0,1.0,5.0,5.0,873.9807680249214,6.0,1.0,phase_2,go,500.0,350.0,1.0,,,,,,,,,green,hexagon
0.0,8.0,4.0,1.0,5.0,5.0,978.714308992494,6.0,1.0,phase_2,go,500.0,350.0,1.0,,,,,,,,,cyan,I
0.0,8.0,4.0,1.0,5.0,5.0,672.1922519791406,6.0,1.0,phase_2,go,500.0,350.0,1.0,,,,,,,,,cyan,I
0.0,5.0,1.0,1.0,6.0,6.0,474.2768479918595,6.0,1.0,phase_2,stop,500.0,350.0,3.0,,,,,,,,,gray,cross
0.0,8.0,4.0,1.0,5.0,0.0,0.0,6.0,1.0,phase_2,stop,500.0,300.0,4.0,,,,,,,,,cyan,I
0.0,5.0,1.0,1.0,6.0,6.0,484.3510819773655,6.0,1.0,phase_2,stop,550.0,300.0,3.0,,,,,,,,,gray,cross
0.0,1.0,1.0,0.0,6.0,6.0,712.307697016513,6.0,1.0,phase_2,go,550.0,250.0,1.0,,,,,,,,,white,square
0.0,7.0,3.0,1.0,6.0,0.0,0.0,6.0,1.0,phase_2,stop,550.0,250.0,4.0,,,,,,,,,yellow,diamond
0.0,2.0,2.0,0.0,6.0,6.0,542.3457639990374,6.0,1.0,phase_2,go,550.0,300.0,1.0,,,,,,,,,blue,circle
0.0,5.0,1.0,1.0,6.0,6.0,468.5391589882783,6.0,1.0,phase_2,stop,550.0,300.0,3.0,,,,,,,,,gray,cross
0.0,1.0,1.0,0.0,5.0,5.0,837.1478659973945,6.0,1.0,phase_2,go,550.0,250.0,1.0,,,,,,,,,white,square
0.0,6.0,2.0,1.0,6.0,0.0,0.0,6.0,1.0,phase_2,stop,550.0,250.0,4.0,,,,,,,,,green,hexagon
0.0,8.0,4.0,1.0,6.0,0.0,0.0,6.0,1.0,phase_2,stop,550.0,300.0,4.0,,,,,,,,,cyan,I
0.0,6.0,2.0,1.0,5.0,5.0,536.11191699747,6.0,1.0,phase_2,go,550.0,350.0,1.0,,,,,,,,,green,hexagon
0.0,7.0,3.0,1.0,5.0,5.0,547.4316190229729,6.0,1.0,phase_2,stop,550.0,350.0,3.0,,,,,,,,,yellow,diamond
0.0,3.0,3.0,0.0,6.0,6.0,583.7903200008441,6.0,1.0,phase_2,go,500.0,350.0,1.0,,,,,,,,,orange,flipped triangle
0.0,1.0,1.0,0.0,5.0,5.0,708.0741949903313,6.0,1.0,phase_2,go,500.0,350.0,1.0,,,,,,,,,white,square
0.0,1.0,1.0,0.0,6.0,6.0,99.51330101466729,7.0,1.0,phase_2,go,500.0,350.0,1.0,,,,,,,,,white,square
0.0,7.0,3.0,1.0,5.0,5.0,524.9550989829004,7.0,1.0,phase_2,go,500.0,350.0,1.0,,,,,,,,,yellow,diamond
0.0,4.0,4.0,0.0,5.0,5.0,428.2346730178687,7.0,1.0,phase_2,go,500.0,350.0,1.0,,,,,,,,,magenta,triangle
0.0,2.0,2.0,0.0,5.0,5.0,595.9298420057166,7.0,1.0,phase_2,go,500.0,350.0,1.0,,,,,,,,,blue,circle
0.0,3.0,3.0,0.0,5.0,5.0,403.9184460125398,7.0,1.0,phase_2,go,500.0,350.0,1.0,,,,,,,,,orange,flipped triangle
0.0,5.0,1.0,1.0,5.0,5.0,461.3269679830409,7.0,1.0,phase_2,stop,500.0,350.0,3.0,,,,,,,,,gray,cross
0.0,6.0,2.0,1.0,6.0,6.0,767.7223230130039,7.0,1.0,phase_2,go,450.0,350.0,1.0,,,,,,,,,green,hexagon
0.0,7.0,3.0,1.0,6.0,0.0,0.0,7.0,1.0,phase_2,stop,450.0,350.0,4.0,,,,,,,,,yellow,diamond
0.0,8.0,4.0,1.0,6.0,0.0,0.0,7.0,1.0,phase_2,stop,450.0,400.0,4.0,,,,,,,,,cyan,I
0.0,6.0,2.0,1.0,5.0,5.0,466.1749450024217,7.0,1.0,phase_2,go,450.0,450.0,1.0,,,,,,,,,green,hexagon
0.0,2.0,2.0,0.0,5.0,5.0,513.1011049961671,7.0,1.0,phase_2,go,450.0,450.0,1.0,,,,,,,,,blue,circle
0.0,8.0,4.0,1.0,5.0,5.0,615.1231039839331,7.0,1.0,phase_2,go,450.0,450.0,1.0,,,,,,,,,cyan,I
0.0,7.0,3.0,1.0,6.0,0.0,0.0,7.0,1.0,phase_2,stop,450.0,450.0,4.0,,,,,,,,,yellow,diamond
0.0,1.0,1.0,0.0,5.0,5.0,636.5148699842393,7.0,1.0,phase_2,go,450.0,500.0,1.0,,,,,,,,,white,square
0.0,6.0,2.0,1.0,6.0,6.0,467.8448100166861,7.0,1.0,phase_2,stop,450.0,500.0,3.0,,,,,,,,,green,hexagon
0.0,4.0,4.0,0.0,6.0,6.0,840.2921259985305,7.0,1.0,phase_2,go,450.0,450.0,1.0,,,,,,,,,magenta,triangle
0.0,8.0,4.0,1.0,6.0,0.0,0.0,7.0,1.0,phase_2,stop,450.0,450.0,4.0,,,,,,,,,cyan,I
0.0,1.0,1.0,0.0,5.0,5.0,608.8441330066416,7.0,1.0,phase_2,go,450.0,500.0,1.0,,,,,,,,,white,square
0.0,7.0,3.0,1.0,6.0,0.0,0.0,7.0,1.0,phase_2,stop,450.0,500.0,4.0,,,,,,,,,yellow,diamond
0.0,4.0,4.0,0.0,6.0,6.0,520.5364410066977,7.0,1.0,phase_2,go,450.0,550.0,1.0,,,,,,,,,magenta,triangle
0.0,5.0,1.0,1.0,6.0,6.0,510.03964501433074,7.0,1.0,phase_2,stop,450.0,550.0,3.0,,,,,,,,,gray,cross
0.0,3.0,3.0,0.0,6.0,6.0,780.1882720086724,7.0,1.0,phase_2,go,450.0,500.0,1.0,,,,,,,,,orange,flipped triangle
0.0,3.0,3.0,0.0,5.0,5.0,452.6637349918019,7.0,1.0,phase_2,go,450.0,500.0,1.0,,,,,,,,,orange,flipped triangle
0.0,5.0,1.0,1.0,6.0,6.0,581.1524699965958,7.0,1.0,phase_2,stop,450.0,500.0,3.0,,,,,,,,,gray,cross
0.0,2.0,2.0,0.0,5.0,5.0,344.2296069988515,7.0,1.0,phase_2,go,450.0,450.0,1.0,,,,,,,,,blue,circle
0.0,2.0,2.0,0.0,5.0,5.0,616.4831399801187,7.0,1.0,phase_2,go,450.0,450.0,1.0,,,,,,,,,blue,circle
0.0,5.0,1.0,1.0,5.0,0.0,0.0,7.0,1.0,phase_2,stop,450.0,450.0,4.0,,,,,,,,,gray,cross
0.0,3.0,3.0,0.0,6.0,6.0,593.2393870025408,7.0,1.0,phase_2,go,500.0,450.0,1.0,,,,,,,,,orange,flipped triangle
0.0,5.0,1.0,1.0,5.0,5.0,603.7968730088323,7.0,1.0,phase_2,go,500.0,450.0,1.0,,,,,,,,,gray,cross
0.0,4.0,4.0,0.0,5.0,5.0,604.477742977906,7.0,1.0,phase_2,go,500.0,450.0,1.0,,,,,,,,,magenta,triangle
0.0,8.0,4.0,1.0,6.0,6.0,672.7926110033877,7.0,1.0,phase_2,go,500.0,450.0,1.0,,,,,,,,,cyan,I
0.0,6.0,2.0,1.0,5.0,0.0,0.0,7.0,1.0,phase_2,stop,500.0,450.0,4.0,,,,,,,,,green,hexagon
0.0,2.0,2.0,0.0,5.0,5.0,508.6592859879602,7.0,1.0,phase_2,go,550.0,450.0,1.0,,,,,,,,,blue,circle
0.0,6.0,2.0,1.0,6.0,0.0,0.0,7.0,1.0,phase_2,stop,550.0,450.0,4.0,,,,,,,,,green,hexagon
0.0,4.0,4.0,0.0,6.0,6.0,417.3625840048771,7.0,1.0,phase_2,go,550.0,500.0,1.0,,,,,,,,,magenta,triangle
0.0,1.0,1.0,0.0,5.0,5.0,521.5070050035138,7.0,1.0,phase_2,go,550.0,500.0,1.0,,,,,,,,,white,square
0.0,1.0,1.0,0.0,5.0,5.0,450.794261007104,8.0,1.0,phase_2,go,550.0,500.0,1.0,,,,,,,,,white,square
0.0,4.0,4.0,0.0,6.0,6.0,487.4104239861481,8.0,1.0,phase_2,go,550.0,500.0,1.0,,,,,,,,,magenta,triangle
0.0,4.0,4.0,0.0,6.0,6.0,473.6327449791133,8.0,1.0,phase_2,go,550.0,500.0,1.0,,,,,,,,,magenta,triangle
0.0,2.0,2.0,0.0,6.0,6.0,532.0369889959693,8.0,1.0,phase_2,go,550.0,500.0,1.0,,,,,,,,,blue,circle
0.0,3.0,3.0,0.0,6.0,6.0,396.0411169973667,8.0,1.0,phase_2,go,550.0,500.0,1.0,,,,,,,,,orange,flipped triangle
0.0,6.0,2.0,1.0,6.0,6.0,388.525128015317,8.0,1.0,phase_2,stop,550.0,500.0,3.0,,,,,,,,,green,hexagon
0.0,5.0,1.0,1.0,5.0,5.0,734.7320859844331,8.0,1.0,phase_2,stop,550.0,450.0,3.0,,,,,,,,,gray,cross
0.0,1.0,1.0,0.0,6.0,6.0,769.5450829924084,8.0,1.0,phase_2,go,500.0,450.0,1.0,,,,,,,,,white,square
0.0,3.0,3.0,0.0,5.0,5.0,470.1359169848729,8.0,1.0,phase_2,go,500.0,450.0,1.0,,,,,,,,,orange,flipped triangle
0.0,1.0,1.0,0.0,6.0,6.0,478.5720620129723,8.0,1.0,phase_2,go,500.0,450.0,1.0,,,,,,,,,white,square
0.0,7.0,3.0,1.0,5.0,0.0,0.0,8.0,1.0,phase_2,stop,500.0,450.0,4.0,,,,,,,,,yellow,diamond
0.0,7.0,3.0,1.0,5.0,5.0,571.657635999145,8.0,1.0,phase_2,stop,550.0,450.0,3.0,,,,,,,,,yellow,diamond
0.0,5.0,1.0,1.0,5.0,0.0,0.0,8.0,1.0,phase_2,stop,500.0,450.0,4.0,,,,,,,,,gray,cross
0.0,2.0,2.0,0.0,5.0,5.0,314.0087859937921,8.0,1.0,phase_2,go,550.0,450.0,1.0,,,,,,,,,blue,circle
0.0,1.0,1.0,0.0,5.0,5.0,768.2910430012271,8.0,1.0,phase_2,go,550.0,450.0,1.0,,,,,,,,,white,square
0.0,2.0,2.0,0.0,5.0,5.0,350.9369000094011,8.0,1.0,phase_2,go,550.0,450.0,1.0,,,,,,,,,blue,circle
0.0,8.0,4.0,1.0,6.0,6.0,498.6526489956304,8.0,1.0,phase_2,stop,550.0,450.0,3.0,,,,,,,,,cyan,I
0.0,7.0,3.0,1.0,5.0,5.0,957.8607860021292,8.0,1.0,phase_2,go,550.0,400.0,1.0,,,,,,,,,yellow,diamond
0.0,4.0,4.0,0.0,5.0,5.0,688.8112449960317,8.0,1.0,phase_2,go,550.0,400.0,1.0,,,,,,,,,magenta,triangle
0.0,1.0,1.0,0.0,6.0,6.0,434.2425909999292,8.0,1.0,phase_2,go,550.0,400.0,1.0,,,,,,,,,white,square
0.0,8.0,4.0,1.0,6.0,0.0,0.0,8.0,1.0,phase_2,stop,550.0,400.0,4.0,,,,,,,,,cyan,I
0.0,2.0,2.0,0.0,6.0,6.0,478.5300619842019,8.0,1.0,phase_2,go,550.0,450.0,1.0,,,,,,,,,blue,circle
0.0,7.0,3.0,1.0,6.0,0.0,0.0,8.0,1.0,phase_2,stop,550.0,450.0,4.0,,,,,,,,,yellow,diamond
0.0,8.0,4.0,1.0,6.0,0.0,0.0,8.0,1.0,phase_2,stop,550.0,500.0,4.0,,,,,,,,,cyan,I
0.0,5.0,1.0,1.0,5.0,5.0,413.4983090043533,8.0,1.0,phase_2,stop,550.0,550.0,3.0,,,,,,,,,gray,cross
0.0,4.0,4.0,0.0,6.0,6.0,672.2340720007196,8.0,1.0,phase_2,go,500.0,550.0,1.0,,,,,,,,,magenta,triangle
0.0,4.0,4.0,0.0,5.0,5.0,652.8078819974326,8.0,1.0,phase_2,go,500.0,550.0,1.0,,,,,,,,,magenta,triangle
0.0,3.0,3.0,0.0,5.0,5.0,800.3215199860279,8.0,1.0,phase_2,go,500.0,550.0,1.0,,,,,,,,,orange,flipped triangle
0.0,6.0,2.0,1.0,5.0,0.0,0.0,8.0,1.0,phase_2,stop,500.0,550.0,4.0,,,,,,,,,green,hexagon
0.0,1.0,1.0,0.0,5.0,5.0,881.2576360069215,8.0,1.0,phase_2,go,550.0,550.0,1.0,,,,,,,,,white,square
0.0,4.0,4.0,0.0,5.0,5.0,768.7114129948895,8.0,1.0,phase_2,go,550.0,550.0,1.0,,,,,,,,,magenta,triangle
0.0,5.0,1.0,1.0,6.0,6.0,553.7430900149047,8.0,1.0,phase_2,go,550.0,550.0,1.0,,,,,,,,,gray,cross
0.0,3.0,3.0,0.0,6.0,6.0,634.4285229861271,8.0,1.0,phase_2,go,550.0,550.0,1.0,,,,,,,,,orange,flipped triangle
0.0,1.0,1.0,0.0,5.0,5.0,735.0644969847053,8.0,1.0,phase_2,go,550.0,550.0,1.0,,,,,,,,,white,square
0.0,1.0,1.0,0.0,6.0,6.0,605.4579839983489,8.0,1.0,phase_2,go,550.0,550.0,1.0,,,,,,,,,white,square
0.0,2.0,2.0,0.0,6.0,6.0,547.9811330151279,8.0,1.0,phase_2,go,550.0,550.0,1.0,,,,,,,,,blue,circle
0.0,7.0,3.0,1.0,7.0,4.0,2114.996602991596,1.0,2.0,phase_3,,,,,88.0,2.0,132.0,220.0,44.0,88.0,264.0,176.0,yellow,diamond
0.0,5.0,1.0,1.0,7.0,3.0,2535.866034013452,1.0,1.0,phase_3,,,,,156.0,4.0,234.0,78.0,156.0,195.0,39.0,117.0,gray,cross
0.0,2.0,2.0,0.0,7.0,4.0,2939.792707999004,1.0,1.0,phase_3,,,,,88.0,2.0,264.0,132.0,176.0,88.0,44.0,220.0,blue,circle
0.0,1.0,1.0,0.0,7.0,4.0,4537.079195986735,1.0,1.0,phase_3,,,,,108.0,2.0,216.0,270.0,162.0,108.0,54.0,324.0,white,square
0.0,5.0,1.0,1.0,7.0,3.0,2929.04414300574,1.0,1.0,phase_3,,,,,170.0,5.0,102.0,136.0,170.0,68.0,34.0,204.0,gray,cross
0.0,7.0,3.0,1.0,7.0,2.0,2480.522273981478,1.0,1.0,phase_3,,,,,136.0,4.0,68.0,136.0,102.0,170.0,204.0,34.0,yellow,diamond
0.0,6.0,2.0,1.0,7.0,6.0,4704.78938598535,1.0,1.0,phase_3,,,,,39.0,1.0,117.0,78.0,234.0,195.0,156.0,39.0,green,hexagon
0.0,8.0,4.0,1.0,7.0,5.0,4220.389834983507,1.0,1.0,phase_3,,,,,234.0,6.0,117.0,156.0,195.0,78.0,234.0,39.0,cyan,I
0.0,1.0,1.0,0.0,7.0,3.0,4162.847498984775,1.0,1.0,phase_3,,,,,117.0,3.0,234.0,78.0,117.0,39.0,156.0,195.0,white,square
0.0,3.0,3.0,0.0,7.0,1.0,2126.9897440215573,1.0,1.0,phase_3,,,,,234.0,6.0,234.0,39.0,195.0,117.0,78.0,156.0,orange,flipped triangle
0.0,4.0,4.0,0.0,7.0,2.0,2158.996707992628,1.0,1.0,phase_3,,,,,294.0,6.0,147.0,294.0,196.0,49.0,245.0,98.0,magenta,triangle
0.0,1.0,1.0,0.0,7.0,1.0,2273.8714949809946,1.0,1.0,phase_3,,,,,98.0,2.0,98.0,196.0,294.0,147.0,49.0,245.0,white,square
0.0,6.0,2.0,1.0,7.0,4.0,1422.391485015396,1.0,1.0,phase_3,,,,,108.0,2.0,54.0,324.0,162.0,108.0,216.0,270.0,green,hexagon
0.0,1.0,1.0,0.0,7.0,2.0,960.687307000626,1.0,1.0,phase_3,,,,,170.0,5.0,102.0,170.0,204.0,68.0,136.0,34.0,white,square
0.0,8.0,4.0,1.0,7.0,6.0,1446.2196649983523,1.0,1.0,phase_3,,,,,170.0,5.0,68.0,204.0,136.0,34.0,102.0,170.0,cyan,I
0.0,6.0,2.0,1.0,7.0,2.0,2359.533540991833,1.0,1.0,phase_3,,,,,132.0,3.0,264.0,132.0,44.0,88.0,220.0,176.0,green,hexagon
0.0,8.0,4.0,1.0,7.0,1.0,1434.483643999556,1.0,1.0,phase_3,,,,,245.0,5.0,245.0,196.0,49.0,294.0,147.0,98.0,cyan,I
0.0,8.0,4.0,1.0,7.0,5.0,696.2389380205423,1.0,1.0,phase_3,,,,,294.0,6.0,98.0,147.0,49.0,196.0,294.0,245.0,cyan,I
0.0,3.0,3.0,0.0,7.0,2.0,268.7516500009224,1.0,1.0,phase_3,,,,,270.0,5.0,108.0,270.0,216.0,162.0,324.0,54.0,orange,flipped triangle
0.0,4.0,4.0,0.0,7.0,6.0,1215.7982130011078,1.0,1.0,phase_3,,,,,102.0,3.0,136.0,34.0,170.0,204.0,68.0,102.0,magenta,triangle
0.0,8.0,4.0,1.0,7.0,5.0,2248.852435994195,2.0,1.0,phase_3,,,,,162.0,3.0,270.0,324.0,216.0,54.0,162.0,108.0,cyan,I
0.0,7.0,3.0,1.0,7.0,3.0,1911.3713889964856,2.0,1.0,phase_3,,,,,136.0,4.0,170.0,102.0,136.0,204.0,68.0,34.0,yellow,diamond
0.0,2.0,2.0,0.0,7.0,4.0,3950.089406018378,2.0,1.0,phase_3,,,,,147.0,3.0,98.0,294.0,196.0,147.0,49.0,245.0,blue,circle
0.0,1.0,1.0,0.0,7.0,3.0,2540.482768992661,2.0,1.0,phase_3,,,,,117.0,3.0,78.0,39.0,117.0,156.0,195.0,234.0,white,square
0.0,5.0,1.0,1.0,7.0,2.0,1582.2804979979992,2.0,1.0,phase_3,,,,,108.0,2.0,216.0,108.0,54.0,270.0,162.0,324.0,gray,cross
0.0,6.0,2.0,1.0,7.0,5.0,648.7737050047144,2.0,1.0,phase_3,,,,,270.0,5.0,216.0,54.0,162.0,108.0,270.0,324.0,green,hexagon
0.0,3.0,3.0,0.0,7.0,2.0,1552.476023993222,2.0,1.0,phase_3,,,,,136.0,4.0,102.0,136.0,34.0,170.0,204.0,68.0,orange,flipped triangle
0.0,1.0,1.0,0.0,7.0,4.0,651.5672540117521,2.0,1.0,phase_3,,,,,147.0,3.0,196.0,98.0,49.0,147.0,294.0,245.0,white,square
0.0,8.0,4.0,1.0,7.0,3.0,2377.418285992462,2.0,1.0,phase_3,,,,,204.0,6.0,102.0,34.0,204.0,68.0,170.0,136.0,cyan,I
0.0,1.0,1.0,0.0,7.0,4.0,1242.4330119974911,2.0,1.0,phase_3,,,,,270.0,5.0,216.0,324.0,54.0,270.0,162.0,108.0,white,square
0.0,5.0,1.0,1.0,7.0,4.0,3063.7002919975203,2.0,1.0,phase_3,,,,,162.0,3.0,270.0,54.0,108.0,162.0,324.0,216.0,gray,cross
0.0,2.0,2.0,0.0,7.0,4.0,1896.186237980146,2.0,1.0,phase_3,,,,,102.0,3.0,204.0,68.0,170.0,102.0,34.0,136.0,blue,circle
0.0,8.0,4.0,1.0,7.0,1.0,1425.8840109978337,2.0,1.0,phase_3,,,,,220.0,5.0,220.0,264.0,88.0,44.0,176.0,132.0,cyan,I
0.0,2.0,2.0,0.0,7.0,5.0,1065.6399360159412,2.0,1.0,phase_3,,,,,78.0,2.0,195.0,234.0,156.0,39.0,78.0,117.0,blue,circle
0.0,6.0,2.0,1.0,7.0,2.0,649.8809620097745,2.0,1.0,phase_3,,,,,117.0,3.0,195.0,117.0,78.0,234.0,156.0,39.0,green,hexagon
0.0,2.0,2.0,0.0,7.0,6.0,2291.753974015592,2.0,1.0,phase_3,,,,,234.0,6.0,117.0,39.0,156.0,195.0,78.0,234.0,blue,circle
0.0,6.0,2.0,1.0,7.0,3.0,3308.1071820051875,2.0,1.0,phase_3,,,,,245.0,5.0,49.0,294.0,245.0,196.0,98.0,147.0,green,hexagon
0.0,7.0,3.0,1.0,7.0,6.0,3835.303670988651,2.0,1.0,phase_3,,,,,156.0,4.0,39.0,117.0,195.0,234.0,78.0,156.0,yellow,diamond
0.0,4.0,4.0,0.0,7.0,2.0,1788.796273001935,2.0,1.0,phase_3,,,,,132.0,3.0,88.0,132.0,44.0,264.0,220.0,176.0,magenta,triangle
0.0,4.0,4.0,0.0,7.0,6.0,2075.003965990618,2.0,1.0,phase_3,,,,,234.0,6.0,117.0,39.0,195.0,156.0,78.0,234.0,magenta,triangle
0.0,4.0,4.0,0.0,7.0,3.0,1327.3814849962946,3.0,1.0,phase_3,,,,,324.0,6.0,162.0,108.0,324.0,216.0,270.0,54.0,magenta,triangle
0.0,4.0,4.0,0.0,7.0,2.0,1351.3016029901337,3.0,1.0,phase_3,,,,,170.0,5.0,68.0,170.0,34.0,204.0,136.0,102.0,magenta,triangle
0.0,3.0,3.0,0.0,7.0,5.0,945.6884209939744,3.0,1.0,phase_3,,,,,196.0,4.0,245.0,98.0,49.0,294.0,196.0,147.0,orange,flipped triangle
0.0,5.0,1.0,1.0,7.0,2.0,1664.977918000659,3.0,1.0,phase_3,,,,,204.0,6.0,34.0,204.0,170.0,136.0,68.0,102.0,gray,cross
0.0,7.0,3.0,1.0,7.0,3.0,1396.3132739881985,3.0,1.0,phase_3,,,,,98.0,2.0,196.0,147.0,98.0,245.0,294.0,49.0,yellow,diamond
0.0,8.0,4.0,1.0,7.0,5.0,1307.5413900078274,3.0,1.0,phase_3,,,,,216.0,4.0,162.0,270.0,54.0,324.0,216.0,108.0,cyan,I
0.0,2.0,2.0,0.0,7.0,4.0,2085.279694001656,3.0,1.0,phase_3,,,,,132.0,3.0,176.0,220.0,44.0,132.0,264.0,88.0,blue,circle
0.0,4.0,4.0,0.0,7.0,2.0,1277.765337988967,3.0,1.0,phase_3,,,,,270.0,5.0,162.0,270.0,216.0,108.0,54.0,324.0,magenta,triangle
0.0,2.0,2.0,0.0,7.0,6.0,1715.6857929949183,3.0,1.0,phase_3,,,,,170.0,5.0,68.0,204.0,34.0,136.0,102.0,170.0,blue,circle
0.0,5.0,1.0,1.0,7.0,2.0,1739.2420889809728,3.0,1.0,phase_3,,,,,49.0,1.0,245.0,49.0,196.0,294.0,147.0,98.0,gray,cross
0.0,3.0,3.0,0.0,7.0,3.0,2472.91083302116,3.0,1.0,phase_3,,,,,264.0,6.0,44.0,88.0,264.0,176.0,132.0,220.0,orange,flipped triangle
0.0,7.0,3.0,1.0,7.0,5.0,2451.3321990089025,3.0,1.0,phase_3,,,,,176.0,4.0,220.0,44.0,264.0,88.0,176.0,132.0,yellow,diamond
0.0,7.0,3.0,1.0,7.0,6.0,2068.4695699892472,3.0,1.0,phase_3,,,,,78.0,2.0,156.0,117.0,39.0,234.0,195.0,78.0,yellow,diamond
0.0,1.0,1.0,0.0,7.0,1.0,2647.087710996857,3.0,1.0,phase_3,,,,,132.0,3.0,132.0,176.0,44.0,264.0,220.0,88.0,white,square
0.0,4.0,4.0,0.0,7.0,3.0,1474.2126450000796,3.0,1.0,phase_3,,,,,220.0,5.0,44.0,264.0,220.0,132.0,88.0,176.0,magenta,triangle
0.0,1.0,1.0,0.0,7.0,5.0,845.7609179895371,3.0,1.0,phase_3,,,,,204.0,6.0,34.0,170.0,68.0,102.0,204.0,136.0,white,square
0.0,6.0,2.0,1.0,7.0,6.0,3052.084894006839,3.0,1.0,phase_3,,,,,176.0,4.0,88.0,264.0,220.0,132.0,44.0,176.0,green,hexagon
0.0,6.0,2.0,1.0,7.0,2.0,1083.946819009725,3.0,1.0,phase_3,,,,,49.0,1.0,147.0,49.0,245.0,294.0,98.0,196.0,green,hexagon
0.0,3.0,3.0,0.0,7.0,3.0,1008.7886700057425,3.0,1.0,phase_3,,,,,68.0,2.0,102.0,204.0,68.0,136.0,170.0,34.0,orange,flipped triangle
0.0,4.0,4.0,0.0,7.0,5.0,1100.2353290095923,3.0,1.0,phase_3,,,,,147.0,3.0,294.0,196.0,49.0,245.0,147.0,98.0,magenta,triangle
0.0,6.0,2.0,1.0,7.0,2.0,662.4759230180643,4.0,1.0,phase_3,,,,,204.0,6.0,170.0,204.0,34.0,136.0,68.0,102.0,green,hexagon
0.0,3.0,3.0,0.0,7.0,2.0,3811.758013995132,4.0,1.0,phase_3,,,,,162.0,3.0,108.0,162.0,216.0,54.0,324.0,270.0,orange,flipped triangle
0.0,8.0,4.0,1.0,7.0,6.0,1820.613744988805,4.0,1.0,phase_3,,,,,132.0,3.0,264.0,44.0,176.0,220.0,88.0,132.0,cyan,I
0.0,5.0,1.0,1.0,7.0,4.0,629.3194780009799,4.0,1.0,phase_3,,,,,39.0,1.0,117.0,234.0,156.0,39.0,195.0,78.0,gray,cross
0.0,3.0,3.0,0.0,7.0,1.0,700.4864520276897,4.0,1.0,phase_3,,,,,156.0,4.0,156.0,234.0,195.0,117.0,39.0,78.0,orange,flipped triangle
0.0,2.0,2.0,0.0,7.0,1.0,1250.4958210047334,4.0,1.0,phase_3,,,,,294.0,6.0,294.0,98.0,245.0,147.0,49.0,196.0,blue,circle
0.0,3.0,3.0,0.0,7.0,5.0,737.0305079966784,4.0,1.0,phase_3,,,,,220.0,5.0,132.0,44.0,264.0,88.0,220.0,176.0,orange,flipped triangle
0.0,7.0,3.0,1.0,7.0,3.0,1007.5975320069119,4.0,1.0,phase_3,,,,,162.0,3.0,270.0,216.0,162.0,108.0,54.0,324.0,yellow,diamond
0.0,7.0,3.0,1.0,7.0,5.0,2333.4720029961322,4.0,1.0,phase_3,,,,,324.0,6.0,270.0,108.0,216.0,54.0,324.0,162.0,yellow,diamond
0.0,7.0,3.0,1.0,7.0,1.0,3236.538900004234,4.0,1.0,phase_3,,,,,294.0,6.0,294.0,196.0,147.0,49.0,98.0,245.0,yellow,diamond
0.0,8.0,4.0,1.0,7.0,1.0,1449.7539099829737,4.0,1.0,phase_3,,,,,156.0,4.0,156.0,117.0,39.0,234.0,78.0,195.0,cyan,I
0.0,2.0,2.0,0.0,7.0,3.0,1110.5257179879118,4.0,1.0,phase_3,,,,,108.0,2.0,162.0,54.0,108.0,324.0,270.0,216.0,blue,circle
0.0,6.0,2.0,1.0,7.0,3.0,1407.0497350185178,4.0,1.0,phase_3,,,,,204.0,6.0,102.0,136.0,204.0,34.0,170.0,68.0,green,hexagon
0.0,2.0,2.0,0.0,7.0,5.0,2859.3588820076548,4.0,1.0,phase_3,,,,,270.0,5.0,108.0,216.0,324.0,162.0,270.0,54.0,blue,circle
0.0,5.0,1.0,1.0,7.0,4.0,1158.5523170069791,4.0,1.0,phase_3,,,,,88.0,2.0,264.0,176.0,132.0,88.0,220.0,44.0,gray,cross
0.0,3.0,3.0,0.0,7.0,3.0,1185.3244689991698,4.0,1.0,phase_3,,,,,196.0,4.0,147.0,294.0,196.0,245.0,49.0,98.0,orange,flipped triangle
0.0,4.0,4.0,0.0,7.0,2.0,1513.6039549834095,4.0,1.0,phase_3,,,,,156.0,4.0,195.0,156.0,78.0,39.0,117.0,234.0,magenta,triangle
0.0,1.0,1.0,0.0,7.0,1.0,2852.9290150036104,4.0,1.0,phase_3,,,,,220.0,5.0,220.0,264.0,176.0,44.0,88.0,132.0,white,square
0.0,5.0,1.0,1.0,7.0,6.0,885.9073110215832,4.0,1.0,phase_3,,,,,196.0,4.0,147.0,98.0,49.0,245.0,294.0,196.0,gray,cross
0.0,5.0,1.0,1.0,7.0,4.0,2863.782606000313,4.0,1.0,phase_3,,,,,132.0,3.0,220.0,88.0,264.0,132.0,44.0,176.0,gray,cross
