raw_reward_magnitude,stim_reward,stepwise_reward_magnitude,paired_with_stopping,stim_location,response,reaction_time,block,num_trial_presentations,which_phase,stop_signal_trial_type,left_SSD,right_SSD,accuracy,chosen_bidding_amount,chosen_bidding_level,possible_bid_1,possible_bid_2,possible_bid_3,possible_bid_4,possible_bid_5,possible_bid_6,color_text,shape_text
0.0,6.0,0.0,1.0,3.0,3.0,468.8502070493996,1.0,1.0,phase_1,,,,,,,,,,,,,green,I
393.0,8.0,4.0,1.0,1.0,1.0,347.9497379157692,1.0,1.0,phase_1,,,,,,,,,,,,,blue,diamond
74.0,1.0,1.0,0.0,2.0,2.0,359.1972030699253,1.0,1.0,phase_1,,,,,,,,,,,,,yellow,triangle
200.0,7.0,3.0,1.0,4.0,4.0,324.7567729558795,1.0,1.0,phase_1,,,,,,,,,,,,,magenta,flipped triangle
73.0,1.0,1.0,0.0,3.0,3.0,292.450729990378,1.0,1.0,phase_1,,,,,,,,,,,,,yellow,triangle
223.0,3.0,3.0,0.0,4.0,4.0,373.2417260762304,1.0,1.0,phase_1,,,,,,,,,,,,,gray,square
181.0,3.0,3.0,0.0,1.0,1.0,359.185678884387,1.0,1.0,phase_1,,,,,,,,,,,,,gray,square
0.0,5.0,0.0,1.0,2.0,2.0,349.6455010026693,1.0,1.0,phase_1,,,,,,,,,,,,,cyan,cross
84.0,2.0,2.0,0.0,2.0,2.0,382.644505938515,1.0,1.0,phase_1,,,,,,,,,,,,,white,hexagon
100.0,2.0,2.0,0.0,4.0,4.0,374.3614950217306,1.0,1.0,phase_1,,,,,,,,,,,,,white,hexagon
59.0,1.0,1.0,0.0,2.0,2.0,296.4740118477493,1.0,1.0,phase_1,,,,,,,,,,,,,yellow,triangle
415.0,8.0,4.0,1.0,2.0,2.0,353.4086288418621,1.0,1.0,phase_1,,,,,,,,,,,,,blue,diamond
177.0,3.0,3.0,0.0,4.0,4.0,389.1293101478368,1.0,1.0,phase_1,,,,,,,,,,,,,gray,square
0.0,3.0,0.0,0.0,4.0,4.0,378.1068951357156,1.0,1.0,phase_1,,,,,,,,,,,,,gray,square
0.0,7.0,0.0,1.0,2.0,2.0,344.4352850783616,1.0,1.0,phase_1,,,,,,,,,,,,,magenta,flipped triangle
225.0,7.0,3.0,1.0,2.0,2.0,344.7740720584988,1.0,1.0,phase_1,,,,,,,,,,,,,magenta,flipped triangle
409.0,4.0,4.0,0.0,1.0,1.0,422.6242050062865,1.0,1.0,phase_1,,,,,,,,,,,,,orange,circle
185.0,7.0,3.0,1.0,3.0,3.0,479.5532119460404,1.0,1.0,phase_1,,,,,,,,,,,,,magenta,flipped triangle
206.0,7.0,3.0,1.0,3.0,3.0,402.5675018783659,1.0,1.0,phase_1,,,,,,,,,,,,,magenta,flipped triangle
77.0,2.0,2.0,0.0,2.0,2.0,323.8704309333116,1.0,1.0,phase_1,,,,,,,,,,,,,white,hexagon
63.0,5.0,1.0,1.0,1.0,1.0,358.9208510238677,1.0,1.0,phase_1,,,,,,,,,,,,,cyan,cross
33.0,5.0,1.0,1.0,2.0,2.0,302.3316359613091,1.0,1.0,phase_1,,,,,,,,,,,,,cyan,cross
200.0,3.0,3.0,0.0,3.0,3.0,336.9683360215276,1.0,1.0,phase_1,,,,,,,,,,,,,gray,square
188.0,3.0,3.0,0.0,1.0,1.0,323.624090058729,1.0,1.0,phase_1,,,,,,,,,,,,,gray,square
182.0,3.0,3.0,0.0,2.0,2.0,313.3936189115047,1.0,1.0,phase_1,,,,,,,,,,,,,gray,square
60.0,1.0,1.0,0.0,2.0,2.0,371.8815629836172,1.0,1.0,phase_1,,,,,,,,,,,,,yellow,triangle
422.0,4.0,4.0,0.0,3.0,3.0,374.7644529212266,1.0,1.0,phase_1,,,,,,,,,,,,,orange,circle
44.0,5.0,1.0,1.0,4.0,4.0,441.5033110417425,1.0,1.0,phase_1,,,,,,,,,,,,,cyan,cross
35.0,1.0,1.0,0.0,4.0,4.0,450.883770128712,1.0,1.0,phase_1,,,,,,,,,,,,,yellow,triangle
214.0,7.0,3.0,1.0,1.0,1.0,488.569590030238,1.0,1.0,phase_1,,,,,,,,,,,,,magenta,flipped triangle
422.0,4.0,4.0,0.0,3.0,3.0,361.431990051642,1.0,1.0,phase_1,,,,,,,,,,,,,orange,circle
0.0,2.0,0.0,0.0,4.0,4.0,443.8784369267523,1.0,1.0,phase_1,,,,,,,,,,,,,white,hexagon
85.0,2.0,2.0,0.0,1.0,1.0,589.1358209773898,1.0,1.0,phase_1,,,,,,,,,,,,,white,hexagon
0.0,6.0,0.0,1.0,4.0,4.0,531.6318050026894,1.0,1.0,phase_1,,,,,,,,,,,,,green,I
206.0,3.0,3.0,0.0,1.0,1.0,433.1766490358859,1.0,1.0,phase_1,,,,,,,,,,,,,gray,square
199.0,7.0,3.0,1.0,4.0,4.0,447.2748360130936,1.0,1.0,phase_1,,,,,,,,,,,,,magenta,flipped triangle
388.0,4.0,4.0,0.0,1.0,1.0,389.8391958791762,1.0,1.0,phase_1,,,,,,,,,,,,,orange,circle
43.0,1.0,1.0,0.0,4.0,4.0,401.5132791828364,1.0,1.0,phase_1,,,,,,,,,,,,,yellow,triangle
0.0,1.0,0.0,0.0,1.0,1.0,346.9727749470621,1.0,1.0,phase_1,,,,,,,,,,,,,yellow,triangle
410.0,4.0,4.0,0.0,2.0,2.0,335.5418778955936,1.0,1.0,phase_1,,,,,,,,,,,,,orange,circle
401.0,4.0,4.0,0.0,4.0,4.0,414.7288929671049,1.0,1.0,phase_1,,,,,,,,,,,,,orange,circle
66.0,5.0,1.0,1.0,3.0,3.0,336.4439231809228,1.0,1.0,phase_1,,,,,,,,,,,,,cyan,cross
188.0,3.0,3.0,0.0,2.0,2.0,324.0964559372514,1.0,1.0,phase_1,,,,,,,,,,,,,gray,square
212.0,7.0,3.0,1.0,1.0,1.0,425.1480579841882,1.0,1.0,phase_1,,,,,,,,,,,,,magenta,flipped triangle
387.0,4.0,4.0,0.0,1.0,1.0,484.8303119651973,1.0,1.0,phase_1,,,,,,,,,,,,,orange,circle
87.0,6.0,2.0,1.0,4.0,4.0,381.0583460144698,1.0,1.0,phase_1,,,,,,,,,,,,,green,I
30.0,5.0,1.0,1.0,2.0,2.0,360.2129598148167,1.0,1.0,phase_1,,,,,,,,,,,,,cyan,cross
44.0,1.0,1.0,0.0,1.0,1.0,397.5925089325756,1.0,1.0,phase_1,,,,,,,,,,,,,yellow,triangle
99.0,6.0,2.0,1.0,1.0,1.0,409.0385609306395,1.0,1.0,phase_1,,,,,,,,,,,,,green,I
65.0,5.0,1.0,1.0,3.0,3.0,351.4418520499021,1.0,1.0,phase_1,,,,,,,,,,,,,cyan,cross
84.0,6.0,2.0,1.0,2.0,2.0,384.9531321320683,1.0,1.0,phase_1,,,,,,,,,,,,,green,I
91.0,2.0,2.0,0.0,3.0,3.0,456.0271468944847,1.0,1.0,phase_1,,,,,,,,,,,,,white,hexagon
123.0,6.0,2.0,1.0,2.0,2.0,374.5524489786476,1.0,1.0,phase_1,,,,,,,,,,,,,green,I
224.0,7.0,3.0,1.0,4.0,4.0,319.2048210185021,1.0,1.0,phase_1,,,,,,,,,,,,,magenta,flipped triangle
39.0,5.0,1.0,1.0,1.0,1.0,286.8105920497328,1.0,1.0,phase_1,,,,,,,,,,,,,cyan,cross
206.0,3.0,3.0,0.0,4.0,4.0,389.387923059985,1.0,1.0,phase_1,,,,,,,,,,,,,gray,square
0.0,7.0,0.0,1.0,1.0,1.0,379.1877229232341,1.0,1.0,phase_1,,,,,,,,,,,,,magenta,flipped triangle
90.0,2.0,2.0,0.0,3.0,3.0,343.4597088489681,1.0,1.0,phase_1,,,,,,,,,,,,,white,hexagon
415.0,4.0,4.0,0.0,2.0,2.0,380.4823639802634,1.0,1.0,phase_1,,,,,,,,,,,,,orange,circle
409.0,8.0,4.0,1.0,1.0,1.0,393.0154549889266,1.0,1.0,phase_1,,,,,,,,,,,,,blue,diamond
0.0,4.0,0.0,0.0,3.0,3.0,313.2535081822425,1.0,1.0,phase_1,,,,,,,,,,,,,orange,circle
0.0,4.0,0.0,0.0,3.0,3.0,302.8023629449308,1.0,1.0,phase_1,,,,,,,,,,,,,orange,circle
205.0,7.0,3.0,1.0,2.0,2.0,336.3456898368895,1.0,1.0,phase_1,,,,,,,,,,,,,magenta,flipped triangle
72.0,1.0,1.0,0.0,4.0,4.0,346.5059951413423,1.0,1.0,phase_1,,,,,,,,,,,,,yellow,triangle
117.0,6.0,2.0,1.0,2.0,2.0,337.1233430225402,1.0,1.0,phase_1,,,,,,,,,,,,,green,I
0.0,5.0,0.0,1.0,1.0,1.0,392.564320936799,1.0,1.0,phase_1,,,,,,,,,,,,,cyan,cross
400.0,8.0,4.0,1.0,4.0,4.0,452.9928741976619,1.0,1.0,phase_1,,,,,,,,,,,,,blue,diamond
180.0,7.0,3.0,1.0,3.0,3.0,418.8516109716147,1.0,1.0,phase_1,,,,,,,,,,,,,magenta,flipped triangle
50.0,5.0,1.0,1.0,4.0,4.0,384.8861150909215,1.0,1.0,phase_1,,,,,,,,,,,,,cyan,cross
408.0,4.0,4.0,0.0,3.0,3.0,397.5088121369481,1.0,1.0,phase_1,,,,,,,,,,,,,orange,circle
406.0,4.0,4.0,0.0,1.0,1.0,541.6283519007266,1.0,1.0,phase_1,,,,,,,,,,,,,orange,circle
389.0,4.0,4.0,0.0,2.0,2.0,373.3953430783003,1.0,1.0,phase_1,,,,,,,,,,,,,orange,circle
57.0,5.0,1.0,1.0,1.0,1.0,385.1791471242904,1.0,1.0,phase_1,,,,,,,,,,,,,cyan,cross
221.0,3.0,3.0,0.0,4.0,4.0,376.0646900627762,1.0,1.0,phase_1,,,,,,,,,,,,,gray,square
224.0,7.0,3.0,1.0,3.0,3.0,411.5923270583153,1.0,1.0,phase_1,,,,,,,,,,,,,magenta,flipped triangle
78.0,2.0,2.0,0.0,3.0,3.0,375.5323658697307,1.0,1.0,phase_1,,,,,,,,,,,,,white,hexagon
49.0,5.0,1.0,1.0,1.0,1.0,479.3091418687254,1.0,1.0,phase_1,,,,,,,,,,,,,cyan,cross
192.0,7.0,3.0,1.0,4.0,4.0,378.5703699104488,1.0,1.0,phase_1,,,,,,,,,,,,,magenta,flipped triangle
401.0,8.0,4.0,1.0,1.0,1.0,433.3695080131292,1.0,1.0,phase_1,,,,,,,,,,,,,blue,diamond
199.0,3.0,3.0,0.0,1.0,1.0,447.8829689323902,1.0,1.0,phase_1,,,,,,,,,,,,,gray,square
45.0,5.0,1.0,1.0,3.0,3.0,468.356269178912,1.0,1.0,phase_1,,,,,,,,,,,,,cyan,cross
125.0,6.0,2.0,1.0,1.0,1.0,347.6790299173444,1.0,1.0,phase_1,,,,,,,,,,,,,green,I
396.0,8.0,4.0,1.0,4.0,4.0,394.3060669116676,1.0,1.0,phase_1,,,,,,,,,,,,,blue,diamond
113.0,6.0,2.0,1.0,2.0,2.0,404.8214459326118,1.0,1.0,phase_1,,,,,,,,,,,,,green,I
72.0,5.0,1.0,1.0,4.0,4.0,594.6771700400859,1.0,1.0,phase_1,,,,,,,,,,,,,cyan,cross
63.0,1.0,1.0,0.0,3.0,3.0,440.3485350776464,1.0,1.0,phase_1,,,,,,,,,,,,,yellow,triangle
202.0,3.0,3.0,0.0,4.0,4.0,539.759973064065,1.0,1.0,phase_1,,,,,,,,,,,,,gray,square
87.0,2.0,2.0,0.0,4.0,4.0,405.6241977959871,1.0,1.0,phase_1,,,,,,,,,,,,,white,hexagon
42.0,5.0,1.0,1.0,3.0,3.0,396.39468700625,1.0,1.0,phase_1,,,,,,,,,,,,,cyan,cross
0.0,1.0,0.0,0.0,1.0,1.0,450.9280829224735,1.0,1.0,phase_1,,,,,,,,,,,,,yellow,triangle
107.0,2.0,2.0,0.0,2.0,2.0,396.566845010966,1.0,1.0,phase_1,,,,,,,,,,,,,white,hexagon
90.0,6.0,2.0,1.0,1.0,1.0,388.4373591281473,1.0,1.0,phase_1,,,,,,,,,,,,,green,I
50.0,5.0,1.0,1.0,3.0,3.0,307.3445481713861,1.0,1.0,phase_1,,,,,,,,,,,,,cyan,cross
114.0,6.0,2.0,1.0,3.0,3.0,408.6338211782276,1.0,1.0,phase_1,,,,,,,,,,,,,green,I
122.0,6.0,2.0,1.0,4.0,4.0,400.8635489735752,1.0,1.0,phase_1,,,,,,,,,,,,,green,I
113.0,2.0,2.0,0.0,3.0,3.0,413.0131851416081,1.0,1.0,phase_1,,,,,,,,,,,,,white,hexagon
50.0,1.0,1.0,0.0,1.0,1.0,423.7682160455733,1.0,1.0,phase_1,,,,,,,,,,,,,yellow,triangle
45.0,5.0,1.0,1.0,3.0,3.0,390.5947189778089,1.0,1.0,phase_1,,,,,,,,,,,,,cyan,cross
221.0,7.0,3.0,1.0,2.0,2.0,368.8023509457707,1.0,1.0,phase_1,,,,,,,,,,,,,magenta,flipped triangle
0.0,1.0,0.0,0.0,2.0,2.0,335.8845100738108,1.0,1.0,phase_1,,,,,,,,,,,,,yellow,triangle
43.0,1.0,1.0,0.0,2.0,2.0,339.7900001145899,2.0,1.0,phase_1,,,,,,,,,,,,,yellow,triangle
43.0,5.0,1.0,1.0,2.0,2.0,284.5995950046927,2.0,1.0,phase_1,,,,,,,,,,,,,cyan,cross
190.0,3.0,3.0,0.0,4.0,4.0,342.2149820253253,2.0,1.0,phase_1,,,,,,,,,,,,,gray,square
0.0,7.0,0.0,1.0,1.0,1.0,340.2011380530894,2.0,1.0,phase_1,,,,,,,,,,,,,magenta,flipped triangle
415.0,4.0,4.0,0.0,4.0,4.0,354.7937190160155,2.0,1.0,phase_1,,,,,,,,,,,,,orange,circle
30.0,1.0,1.0,0.0,4.0,4.0,343.4757080394774,2.0,1.0,phase_1,,,,,,,,,,,,,yellow,triangle
0.0,2.0,0.0,0.0,3.0,3.0,445.4657100141048,2.0,1.0,phase_1,,,,,,,,,,,,,white,hexagon
0.0,6.0,0.0,1.0,3.0,3.0,323.5551279503852,2.0,1.0,phase_1,,,,,,,,,,,,,green,I
395.0,8.0,4.0,1.0,1.0,1.0,388.7796609196812,2.0,1.0,phase_1,,,,,,,,,,,,,blue,diamond
123.0,2.0,2.0,0.0,1.0,1.0,446.9574820250273,2.0,1.0,phase_1,,,,,,,,,,,,,white,hexagon
98.0,6.0,2.0,1.0,1.0,1.0,366.2657779641449,2.0,1.0,phase_1,,,,,,,,,,,,,green,I
71.0,5.0,1.0,1.0,4.0,4.0,427.4752328637987,2.0,1.0,phase_1,,,,,,,,,,,,,cyan,cross
222.0,3.0,3.0,0.0,1.0,1.0,446.4450981467962,2.0,1.0,phase_1,,,,,,,,,,,,,gray,square
0.0,1.0,0.0,0.0,1.0,1.0,416.573683032766,2.0,1.0,phase_1,,,,,,,,,,,,,yellow,triangle
0.0,1.0,0.0,0.0,1.0,1.0,405.2965750452131,2.0,1.0,phase_1,,,,,,,,,,,,,yellow,triangle
104.0,6.0,2.0,1.0,4.0,4.0,436.9368480984121,2.0,1.0,phase_1,,,,,,,,,,,,,green,I
78.0,6.0,2.0,1.0,1.0,1.0,339.0902560204267,2.0,1.0,phase_1,,,,,,,,,,,,,green,I
0.0,5.0,0.0,1.0,2.0,2.0,418.2020879816264,2.0,1.0,phase_1,,,,,,,,,,,,,cyan,cross
78.0,6.0,2.0,1.0,4.0,4.0,382.3936530388891,2.0,1.0,phase_1,,,,,,,,,,,,,green,I
0.0,1.0,0.0,0.0,1.0,1.0,326.5668600797653,2.0,1.0,phase_1,,,,,,,,,,,,,yellow,triangle
410.0,4.0,4.0,0.0,2.0,2.0,340.1223169639706,2.0,1.0,phase_1,,,,,,,,,,,,,orange,circle
0.0,3.0,0.0,0.0,3.0,3.0,376.7506449948996,2.0,1.0,phase_1,,,,,,,,,,,,,gray,square
39.0,1.0,1.0,0.0,1.0,1.0,330.8815041091293,2.0,1.0,phase_1,,,,,,,,,,,,,yellow,triangle
0.0,3.0,0.0,0.0,1.0,1.0,386.1199109815061,2.0,1.0,phase_1,,,,,,,,,,,,,gray,square
68.0,5.0,1.0,1.0,2.0,2.0,418.8973340205848,2.0,1.0,phase_1,,,,,,,,,,,,,cyan,cross
34.0,5.0,1.0,1.0,4.0,4.0,615.3133248444647,2.0,1.0,phase_1,,,,,,,,,,,,,cyan,cross
50.0,1.0,1.0,0.0,1.0,1.0,827.6899259071797,2.0,1.0,phase_1,,,,,,,,,,,,,yellow,triangle
0.0,7.0,0.0,1.0,2.0,2.0,354.1363920085132,2.0,1.0,phase_1,,,,,,,,,,,,,magenta,flipped triangle
388.0,8.0,4.0,1.0,3.0,3.0,324.4939728174358,2.0,1.0,phase_1,,,,,,,,,,,,,blue,diamond
414.0,4.0,4.0,0.0,4.0,4.0,468.6547829769552,2.0,1.0,phase_1,,,,,,,,,,,,,orange,circle
423.0,8.0,4.0,1.0,4.0,4.0,437.568605877459,2.0,1.0,phase_1,,,,,,,,,,,,,blue,diamond
42.0,1.0,1.0,0.0,2.0,2.0,357.5011559296399,2.0,1.0,phase_1,,,,,,,,,,,,,yellow,triangle
206.0,7.0,3.0,1.0,4.0,4.0,449.7623939532786,2.0,1.0,phase_1,,,,,,,,,,,,,magenta,flipped triangle
388.0,4.0,4.0,0.0,2.0,2.0,416.2643610034138,2.0,1.0,phase_1,,,,,,,,,,,,,orange,circle
377.0,8.0,4.0,1.0,1.0,1.0,425.0424648635089,2.0,1.0,phase_1,,,,,,,,,,,,,blue,diamond
408.0,8.0,4.0,1.0,2.0,2.0,392.1142059843987,2.0,1.0,phase_1,,,,,,,,,,,,,blue,diamond
188.0,7.0,3.0,1.0,4.0,4.0,361.6884590592235,2.0,1.0,phase_1,,,,,,,,,,,,,magenta,flipped triangle
39.0,5.0,1.0,1.0,4.0,4.0,460.7150270603597,2.0,1.0,phase_1,,,,,,,,,,,,,cyan,cross
376.0,4.0,4.0,0.0,3.0,3.0,449.796934146434,2.0,1.0,phase_1,,,,,,,,,,,,,orange,circle
91.0,6.0,2.0,1.0,2.0,2.0,438.6465598363429,2.0,1.0,phase_1,,,,,,,,,,,,,green,I
0.0,8.0,0.0,1.0,1.0,1.0,586.0119380522519,2.0,1.0,phase_1,,,,,,,,,,,,,blue,diamond
0.0,4.0,0.0,0.0,3.0,3.0,397.986033000052,2.0,1.0,phase_1,,,,,,,,,,,,,orange,circle
0.0,7.0,0.0,1.0,4.0,4.0,478.2562139444053,2.0,1.0,phase_1,,,,,,,,,,,,,magenta,flipped triangle
414.0,8.0,4.0,1.0,3.0,3.0,464.2602431122213,2.0,1.0,phase_1,,,,,,,,,,,,,blue,diamond
0.0,4.0,0.0,0.0,1.0,1.0,343.6740031465888,2.0,1.0,phase_1,,,,,,,,,,,,,orange,circle
206.0,3.0,3.0,0.0,2.0,2.0,375.4563599359244,2.0,1.0,phase_1,,,,,,,,,,,,,gray,square
0.0,1.0,0.0,0.0,3.0,3.0,320.1251979917288,2.0,1.0,phase_1,,,,,,,,,,,,,yellow,triangle
0.0,6.0,0.0,1.0,3.0,3.0,400.4712768364697,2.0,1.0,phase_1,,,,,,,,,,,,,green,I
57.0,1.0,1.0,0.0,3.0,3.0,323.0973440222442,2.0,1.0,phase_1,,,,,,,,,,,,,yellow,triangle
200.0,7.0,3.0,1.0,2.0,2.0,290.2751180808991,2.0,1.0,phase_1,,,,,,,,,,,,,magenta,flipped triangle
103.0,6.0,2.0,1.0,1.0,1.0,299.7648341115564,2.0,1.0,phase_1,,,,,,,,,,,,,green,I
395.0,4.0,4.0,0.0,4.0,4.0,276.7407270148396,2.0,1.0,phase_1,,,,,,,,,,,,,orange,circle
30.0,5.0,1.0,1.0,3.0,3.0,311.205361969769,2.0,1.0,phase_1,,,,,,,,,,,,,cyan,cross
83.0,6.0,2.0,1.0,1.0,1.0,325.3400938119739,2.0,1.0,phase_1,,,,,,,,,,,,,green,I
415.0,4.0,4.0,0.0,3.0,3.0,349.1340901236981,2.0,1.0,phase_1,,,,,,,,,,,,,orange,circle
124.0,6.0,2.0,1.0,3.0,3.0,314.5877500064671,2.0,1.0,phase_1,,,,,,,,,,,,,green,I
393.0,4.0,4.0,0.0,1.0,1.0,246.6117439325899,2.0,1.0,phase_1,,,,,,,,,,,,,orange,circle
178.0,3.0,3.0,0.0,1.0,1.0,348.7552038859576,2.0,1.0,phase_1,,,,,,,,,,,,,gray,square
82.0,6.0,2.0,1.0,4.0,4.0,677.8103481046855,2.0,1.0,phase_1,,,,,,,,,,,,,green,I
0.0,6.0,0.0,1.0,3.0,3.0,419.4171919953078,2.0,1.0,phase_1,,,,,,,,,,,,,green,I
177.0,7.0,3.0,1.0,3.0,3.0,340.4122111387551,2.0,1.0,phase_1,,,,,,,,,,,,,magenta,flipped triangle
395.0,4.0,4.0,0.0,2.0,2.0,308.8070310186595,2.0,1.0,phase_1,,,,,,,,,,,,,orange,circle
60.0,1.0,1.0,0.0,2.0,2.0,365.6586960423738,2.0,1.0,phase_1,,,,,,,,,,,,,yellow,triangle
0.0,7.0,0.0,1.0,4.0,4.0,328.7972540128976,2.0,1.0,phase_1,,,,,,,,,,,,,magenta,flipped triangle
0.0,5.0,0.0,1.0,1.0,1.0,341.330706840381,2.0,1.0,phase_1,,,,,,,,,,,,,cyan,cross
60.0,5.0,1.0,1.0,2.0,2.0,502.52515100874007,2.0,1.0,phase_1,,,,,,,,,,,,,cyan,cross
45.0,1.0,1.0,0.0,3.0,3.0,390.997574897483,2.0,2.0,phase_1,,,,,,,,,,,,,yellow,triangle
212.0,3.0,3.0,0.0,2.0,2.0,379.2843630071729,2.0,1.0,phase_1,,,,,,,,,,,,,gray,square
78.0,6.0,2.0,1.0,2.0,2.0,346.1445968132466,2.0,1.0,phase_1,,,,,,,,,,,,,green,I
180.0,3.0,3.0,0.0,2.0,2.0,380.8981280308217,2.0,1.0,phase_1,,,,,,,,,,,,,gray,square
0.0,3.0,0.0,0.0,4.0,4.0,481.6973360721022,2.0,1.0,phase_1,,,,,,,,,,,,,gray,square
187.0,7.0,3.0,1.0,3.0,3.0,471.3482840452343,2.0,1.0,phase_1,,,,,,,,,,,,,magenta,flipped triangle
114.0,2.0,2.0,0.0,1.0,1.0,414.7869001608342,2.0,1.0,phase_1,,,,,,,,,,,,,white,hexagon
216.0,7.0,3.0,1.0,2.0,2.0,379.8021369148046,2.0,1.0,phase_1,,,,,,,,,,,,,magenta,flipped triangle
0.0,5.0,0.0,1.0,2.0,2.0,417.7557420916855,2.0,1.0,phase_1,,,,,,,,,,,,,cyan,cross
0.0,7.0,0.0,1.0,1.0,1.0,482.846612110734,2.0,1.0,phase_1,,,,,,,,,,,,,magenta,flipped triangle
0.0,3.0,0.0,0.0,2.0,2.0,515.996664064005,2.0,1.0,phase_1,,,,,,,,,,,,,gray,square
60.0,1.0,1.0,0.0,4.0,4.0,486.2863139715045,2.0,1.0,phase_1,,,,,,,,,,,,,yellow,triangle
181.0,7.0,3.0,1.0,1.0,1.0,442.6213540136814,2.0,1.0,phase_1,,,,,,,,,,,,,magenta,flipped triangle
68.0,1.0,1.0,0.0,1.0,1.0,405.8449899312109,2.0,1.0,phase_1,,,,,,,,,,,,,yellow,triangle
123.0,2.0,2.0,0.0,1.0,1.0,375.7819170132279,2.0,1.0,phase_1,,,,,,,,,,,,,white,hexagon
415.0,8.0,4.0,1.0,4.0,4.0,478.2041069120168,2.0,1.0,phase_1,,,,,,,,,,,,,blue,diamond
0.0,6.0,0.0,1.0,1.0,1.0,396.3799939956516,2.0,1.0,phase_1,,,,,,,,,,,,,green,I
49.0,1.0,1.0,0.0,3.0,3.0,486.9739890564233,2.0,1.0,phase_1,,,,,,,,,,,,,yellow,triangle
410.0,8.0,4.0,1.0,3.0,3.0,500.12243702076375,2.0,1.0,phase_1,,,,,,,,,,,,,blue,diamond
0.0,3.0,0.0,0.0,2.0,2.0,401.7536148894578,2.0,1.0,phase_1,,,,,,,,,,,,,gray,square
182.0,7.0,3.0,1.0,4.0,4.0,388.4412348270416,2.0,1.0,phase_1,,,,,,,,,,,,,magenta,flipped triangle
178.0,7.0,3.0,1.0,4.0,4.0,535.8672579750419,2.0,1.0,phase_1,,,,,,,,,,,,,magenta,flipped triangle
115.0,2.0,2.0,0.0,1.0,1.0,344.3202399648726,2.0,1.0,phase_1,,,,,,,,,,,,,white,hexagon
82.0,6.0,2.0,1.0,4.0,4.0,425.8172621484846,2.0,1.0,phase_1,,,,,,,,,,,,,green,I
396.0,4.0,4.0,0.0,3.0,3.0,368.8482800498605,2.0,1.0,phase_1,,,,,,,,,,,,,orange,circle
98.0,6.0,2.0,1.0,3.0,3.0,426.393907982856,2.0,1.0,phase_1,,,,,,,,,,,,,green,I
91.0,6.0,2.0,1.0,3.0,3.0,368.7317040748894,2.0,1.0,phase_1,,,,,,,,,,,,,green,I
100.0,6.0,2.0,1.0,3.0,3.0,289.893367793411,2.0,1.0,phase_1,,,,,,,,,,,,,green,I
0.0,5.0,0.0,1.0,2.0,2.0,301.9413230940699,2.0,1.0,phase_1,,,,,,,,,,,,,cyan,cross
0.0,8.0,0.0,1.0,2.0,2.0,314.4837310537696,2.0,1.0,phase_1,,,,,,,,,,,,,blue,diamond
115.0,6.0,2.0,1.0,4.0,4.0,460.4310090653598,2.0,1.0,phase_1,,,,,,,,,,,,,green,I
37.0,1.0,1.0,0.0,1.0,1.0,474.3381331209093,2.0,1.0,phase_1,,,,,,,,,,,,,yellow,triangle
177.0,7.0,3.0,1.0,3.0,3.0,416.3486589677632,2.0,1.0,phase_1,,,,,,,,,,,,,magenta,flipped triangle
77.0,6.0,2.0,1.0,3.0,3.0,363.2400010246783,2.0,1.0,phase_1,,,,,,,,,,,,,green,I
0.0,1.0,0.0,0.0,3.0,3.0,417.4033650197088,3.0,1.0,phase_1,,,,,,,,,,,,,yellow,triangle
125.0,2.0,2.0,0.0,2.0,2.0,315.4929459560662,3.0,1.0,phase_1,,,,,,,,,,,,,white,hexagon
396.0,4.0,4.0,0.0,3.0,3.0,329.0473569650203,3.0,1.0,phase_1,,,,,,,,,,,,,orange,circle
74.0,5.0,1.0,1.0,3.0,3.0,429.6089219860732,3.0,1.0,phase_1,,,,,,,,,,,,,cyan,cross
80.0,6.0,2.0,1.0,3.0,3.0,397.7147629484534,3.0,1.0,phase_1,,,,,,,,,,,,,green,I
392.0,8.0,4.0,1.0,2.0,2.0,318.587644957006,3.0,1.0,phase_1,,,,,,,,,,,,,blue,diamond
0.0,4.0,0.0,0.0,2.0,2.0,465.0551080703735,3.0,1.0,phase_1,,,,,,,,,,,,,orange,circle
63.0,5.0,1.0,1.0,1.0,1.0,387.4720740132034,3.0,1.0,phase_1,,,,,,,,,,,,,cyan,cross
183.0,7.0,3.0,1.0,2.0,2.0,330.6104191578924,3.0,1.0,phase_1,,,,,,,,,,,,,magenta,flipped triangle
35.0,5.0,1.0,1.0,2.0,2.0,357.5034949462861,3.0,1.0,phase_1,,,,,,,,,,,,,cyan,cross
199.0,3.0,3.0,0.0,1.0,1.0,345.5462229903787,3.0,1.0,phase_1,,,,,,,,,,,,,gray,square
386.0,8.0,4.0,1.0,4.0,4.0,556.4877358265221,3.0,1.0,phase_1,,,,,,,,,,,,,blue,diamond
0.0,2.0,0.0,0.0,2.0,2.0,346.6259799897671,3.0,1.0,phase_1,,,,,,,,,,,,,white,hexagon
197.0,3.0,3.0,0.0,4.0,4.0,356.9158639293164,3.0,1.0,phase_1,,,,,,,,,,,,,gray,square
0.0,5.0,0.0,1.0,1.0,1.0,300.2384891733527,3.0,1.0,phase_1,,,,,,,,,,,,,cyan,cross
400.0,4.0,4.0,0.0,2.0,2.0,338.3925538510084,3.0,1.0,phase_1,,,,,,,,,,,,,orange,circle
26.0,5.0,1.0,1.0,1.0,1.0,391.7346848174929,3.0,1.0,phase_1,,,,,,,,,,,,,cyan,cross
97.0,2.0,2.0,0.0,3.0,3.0,358.474746113643,3.0,1.0,phase_1,,,,,,,,,,,,,white,hexagon
0.0,4.0,0.0,0.0,4.0,4.0,428.8041931577027,3.0,1.0,phase_1,,,,,,,,,,,,,orange,circle
198.0,3.0,3.0,0.0,4.0,4.0,508.7445550598204,3.0,1.0,phase_1,,,,,,,,,,,,,gray,square
48.0,1.0,1.0,0.0,2.0,2.0,427.2946959827095,3.0,1.0,phase_1,,,,,,,,,,,,,yellow,triangle
392.0,4.0,4.0,0.0,1.0,1.0,416.972798993811,3.0,1.0,phase_1,,,,,,,,,,,,,orange,circle
52.0,1.0,1.0,0.0,1.0,1.0,642.772083170712,3.0,1.0,phase_1,,,,,,,,,,,,,yellow,triangle
50.0,1.0,1.0,0.0,1.0,1.0,475.269032176584,3.0,1.0,phase_1,,,,,,,,,,,,,yellow,triangle
415.0,8.0,4.0,1.0,3.0,3.0,621.912915026769,3.0,1.0,phase_1,,,,,,,,,,,,,blue,diamond
210.0,3.0,3.0,0.0,3.0,3.0,433.3323549944907,3.0,1.0,phase_1,,,,,,,,,,,,,gray,square
0.0,2.0,0.0,0.0,3.0,3.0,352.020805934444,3.0,1.0,phase_1,,,,,,,,,,,,,white,hexagon
115.0,2.0,2.0,0.0,4.0,4.0,366.8899741023779,3.0,1.0,phase_1,,,,,,,,,,,,,white,hexagon
387.0,8.0,4.0,1.0,4.0,4.0,379.1881590150296,3.0,1.0,phase_1,,,,,,,,,,,,,blue,diamond
37.0,5.0,1.0,1.0,4.0,4.0,366.7928180657327,3.0,1.0,phase_1,,,,,,,,,,,,,cyan,cross
0.0,8.0,0.0,1.0,3.0,3.0,377.017511986196,3.0,1.0,phase_1,,,,,,,,,,,,,blue,diamond
60.0,5.0,1.0,1.0,4.0,4.0,413.2394259795546,3.0,1.0,phase_1,,,,,,,,,,,,,cyan,cross
122.0,2.0,2.0,0.0,1.0,1.0,359.033663989976,3.0,1.0,phase_1,,,,,,,,,,,,,white,hexagon
0.0,2.0,0.0,0.0,1.0,1.0,391.4790509734303,3.0,1.0,phase_1,,,,,,,,,,,,,white,hexagon
52.0,5.0,1.0,1.0,3.0,3.0,401.4841478783637,3.0,1.0,phase_1,,,,,,,,,,,,,cyan,cross
206.0,7.0,3.0,1.0,4.0,4.0,458.5811730939895,3.0,1.0,phase_1,,,,,,,,,,,,,magenta,flipped triangle
398.0,8.0,4.0,1.0,1.0,1.0,357.6576909981668,3.0,1.0,phase_1,,,,,,,,,,,,,blue,diamond
124.0,6.0,2.0,1.0,3.0,3.0,324.215104104951,3.0,1.0,phase_1,,,,,,,,,,,,,green,I
200.0,7.0,3.0,1.0,1.0,1.0,315.1269177906215,3.0,1.0,phase_1,,,,,,,,,,,,,magenta,flipped triangle
71.0,5.0,1.0,1.0,1.0,1.0,527.8423731215298,3.0,1.0,phase_1,,,,,,,,,,,,,cyan,cross
222.0,7.0,3.0,1.0,4.0,4.0,363.7113471049815,3.0,1.0,phase_1,,,,,,,,,,,,,magenta,flipped triangle
396.0,8.0,4.0,1.0,2.0,2.0,397.9797719512135,3.0,1.0,phase_1,,,,,,,,,,,,,blue,diamond
214.0,3.0,3.0,0.0,1.0,1.0,429.4942580163479,3.0,1.0,phase_1,,,,,,,,,,,,,gray,square
30.0,1.0,1.0,0.0,3.0,3.0,442.6935261581093,3.0,1.0,phase_1,,,,,,,,,,,,,yellow,triangle
48.0,5.0,1.0,1.0,3.0,3.0,397.4396218545735,3.0,1.0,phase_1,,,,,,,,,,,,,cyan,cross
394.0,8.0,4.0,1.0,3.0,3.0,409.8921369295567,3.0,1.0,phase_1,,,,,,,,,,,,,blue,diamond
0.0,4.0,0.0,0.0,3.0,3.0,330.34299290739,3.0,1.0,phase_1,,,,,,,,,,,,,orange,circle
206.0,3.0,3.0,0.0,3.0,3.0,352.941685821861,3.0,1.0,phase_1,,,,,,,,,,,,,gray,square
193.0,7.0,3.0,1.0,2.0,2.0,388.9612930361181,3.0,1.0,phase_1,,,,,,,,,,,,,magenta,flipped triangle
216.0,3.0,3.0,0.0,3.0,3.0,376.5619590412825,3.0,1.0,phase_1,,,,,,,,,,,,,gray,square
99.0,2.0,2.0,0.0,2.0,2.0,500.5637970753014,3.0,1.0,phase_1,,,,,,,,,,,,,white,hexagon
96.0,2.0,2.0,0.0,2.0,2.0,425.1121708657592,3.0,1.0,phase_1,,,,,,,,,,,,,white,hexagon
384.0,4.0,4.0,0.0,2.0,2.0,389.3206191714853,3.0,1.0,phase_1,,,,,,,,,,,,,orange,circle
198.0,7.0,3.0,1.0,2.0,2.0,515.8252830151469,3.0,1.0,phase_1,,,,,,,,,,,,,magenta,flipped triangle
410.0,4.0,4.0,0.0,3.0,3.0,414.0788489021361,3.0,1.0,phase_1,,,,,,,,,,,,,orange,circle
205.0,3.0,3.0,0.0,4.0,4.0,503.30615183338523,3.0,1.0,phase_1,,,,,,,,,,,,,gray,square
376.0,8.0,4.0,1.0,2.0,2.0,380.1087678875774,3.0,1.0,phase_1,,,,,,,,,,,,,blue,diamond
78.0,2.0,2.0,0.0,2.0,2.0,507.2377279866487,3.0,1.0,phase_1,,,,,,,,,,,,,white,hexagon
199.0,7.0,3.0,1.0,1.0,1.0,384.2855091206729,3.0,1.0,phase_1,,,,,,,,,,,,,magenta,flipped triangle
183.0,3.0,3.0,0.0,3.0,3.0,438.855417072773,3.0,1.0,phase_1,,,,,,,,,,,,,gray,square
0.0,7.0,0.0,1.0,1.0,1.0,427.1836718544364,3.0,1.0,phase_1,,,,,,,,,,,,,magenta,flipped triangle
98.0,2.0,2.0,0.0,2.0,2.0,397.0937910489738,3.0,1.0,phase_1,,,,,,,,,,,,,white,hexagon
406.0,8.0,4.0,1.0,3.0,3.0,339.1729358118027,3.0,1.0,phase_1,,,,,,,,,,,,,blue,diamond
0.0,8.0,0.0,1.0,2.0,2.0,374.6671050321311,3.0,1.0,phase_1,,,,,,,,,,,,,blue,diamond
105.0,2.0,2.0,0.0,3.0,3.0,409.1409880202263,3.0,1.0,phase_1,,,,,,,,,,,,,white,hexagon
43.0,5.0,1.0,1.0,4.0,4.0,444.1012509632855,3.0,1.0,phase_1,,,,,,,,,,,,,cyan,cross
50.0,5.0,1.0,1.0,1.0,1.0,600.9364598430693,3.0,1.0,phase_1,,,,,,,,,,,,,cyan,cross
34.0,1.0,1.0,0.0,4.0,4.0,498.8982048816979,3.0,1.0,phase_1,,,,,,,,,,,,,yellow,triangle
0.0,3.0,0.0,0.0,2.0,2.0,420.5648011993617,3.0,1.0,phase_1,,,,,,,,,,,,,gray,square
200.0,3.0,3.0,0.0,1.0,1.0,389.5010570995509,3.0,1.0,phase_1,,,,,,,,,,,,,gray,square
0.0,4.0,0.0,0.0,3.0,3.0,376.6152849420905,3.0,1.0,phase_1,,,,,,,,,,,,,orange,circle
29.0,1.0,1.0,0.0,2.0,2.0,346.9754329416901,3.0,1.0,phase_1,,,,,,,,,,,,,yellow,triangle
105.0,6.0,2.0,1.0,4.0,4.0,401.4535250607878,3.0,1.0,phase_1,,,,,,,,,,,,,green,I
214.0,7.0,3.0,1.0,1.0,1.0,436.9845918845385,3.0,1.0,phase_1,,,,,,,,,,,,,magenta,flipped triangle
43.0,5.0,1.0,1.0,4.0,4.0,405.3222371730953,3.0,1.0,phase_1,,,,,,,,,,,,,cyan,cross
423.0,4.0,4.0,0.0,1.0,1.0,458.32579000853,3.0,1.0,phase_1,,,,,,,,,,,,,orange,circle
39.0,1.0,1.0,0.0,3.0,3.0,383.4740240126848,3.0,1.0,phase_1,,,,,,,,,,,,,yellow,triangle
71.0,1.0,1.0,0.0,4.0,4.0,416.3968760985881,3.0,1.0,phase_1,,,,,,,,,,,,,yellow,triangle
60.0,5.0,1.0,1.0,1.0,1.0,359.7213779576123,3.0,1.0,phase_1,,,,,,,,,,,,,cyan,cross
395.0,8.0,4.0,1.0,4.0,4.0,452.8467401396483,3.0,1.0,phase_1,,,,,,,,,,,,,blue,diamond
0.0,7.0,0.0,1.0,1.0,1.0,552.7641109656543,3.0,1.0,phase_1,,,,,,,,,,,,,magenta,flipped triangle
71.0,1.0,1.0,0.0,3.0,3.0,498.8514280412346,3.0,1.0,phase_1,,,,,,,,,,,,,yellow,triangle
376.0,4.0,4.0,0.0,4.0,4.0,374.5933249592781,3.0,1.0,phase_1,,,,,,,,,,,,,orange,circle
193.0,7.0,3.0,1.0,1.0,1.0,342.597508104518,3.0,1.0,phase_1,,,,,,,,,,,,,magenta,flipped triangle
83.0,2.0,2.0,0.0,3.0,3.0,440.6431501265615,3.0,1.0,phase_1,,,,,,,,,,,,,white,hexagon
59.0,5.0,1.0,1.0,2.0,2.0,363.8766091316938,3.0,1.0,phase_1,,,,,,,,,,,,,cyan,cross
410.0,8.0,4.0,1.0,1.0,1.0,691.5151160210371,3.0,1.0,phase_1,,,,,,,,,,,,,blue,diamond
0.0,3.0,0.0,0.0,2.0,2.0,431.5506289713084,3.0,1.0,phase_1,,,,,,,,,,,,,gray,square
0.0,6.0,0.0,1.0,2.0,2.0,431.6160578746348,3.0,1.0,phase_1,,,,,,,,,,,,,green,I
78.0,6.0,2.0,1.0,3.0,3.0,424.9501780141145,3.0,1.0,phase_1,,,,,,,,,,,,,green,I
124.0,2.0,2.0,0.0,1.0,1.0,477.9448930639773,3.0,1.0,phase_1,,,,,,,,,,,,,white,hexagon
93.0,2.0,2.0,0.0,2.0,2.0,424.50752411969,3.0,1.0,phase_1,,,,,,,,,,,,,white,hexagon
192.0,3.0,3.0,0.0,3.0,3.0,415.3900591190904,3.0,1.0,phase_1,,,,,,,,,,,,,gray,square
410.0,8.0,4.0,1.0,1.0,1.0,403.8062179461121,3.0,1.0,phase_1,,,,,,,,,,,,,blue,diamond
389.0,4.0,4.0,0.0,1.0,1.0,458.3607329986989,3.0,1.0,phase_1,,,,,,,,,,,,,orange,circle
116.0,6.0,2.0,1.0,2.0,2.0,315.6588841229677,3.0,1.0,phase_1,,,,,,,,,,,,,green,I
78.0,2.0,2.0,0.0,1.0,1.0,372.1767761744559,3.0,1.0,phase_1,,,,,,,,,,,,,white,hexagon
422.0,8.0,4.0,1.0,2.0,2.0,316.7686469387263,3.0,1.0,phase_1,,,,,,,,,,,,,blue,diamond
80.0,2.0,2.0,0.0,4.0,4.0,395.9010129328817,3.0,1.0,phase_1,,,,,,,,,,,,,white,hexagon
104.0,2.0,2.0,0.0,3.0,3.0,384.0485899709165,3.0,1.0,phase_1,,,,,,,,,,,,,white,hexagon
82.0,2.0,2.0,0.0,3.0,3.0,430.2878950256854,4.0,1.0,phase_1,,,,,,,,,,,,,white,hexagon
78.0,2.0,2.0,0.0,4.0,4.0,329.6836698427796,4.0,1.0,phase_1,,,,,,,,,,,,,white,hexagon
375.0,4.0,4.0,0.0,4.0,4.0,411.9785809889436,4.0,1.0,phase_1,,,,,,,,,,,,,orange,circle
224.0,3.0,3.0,0.0,2.0,2.0,331.0727081261575,4.0,1.0,phase_1,,,,,,,,,,,,,gray,square
0.0,6.0,0.0,1.0,1.0,1.0,300.9031310211867,4.0,1.0,phase_1,,,,,,,,,,,,,green,I
193.0,3.0,3.0,0.0,3.0,3.0,391.9518201146275,4.0,1.0,phase_1,,,,,,,,,,,,,gray,square
214.0,3.0,3.0,0.0,3.0,3.0,357.5359471142292,4.0,1.0,phase_1,,,,,,,,,,,,,gray,square
185.0,3.0,3.0,0.0,2.0,2.0,345.5859089735895,4.0,1.0,phase_1,,,,,,,,,,,,,gray,square
197.0,7.0,3.0,1.0,1.0,1.0,313.8997009955346,4.0,1.0,phase_1,,,,,,,,,,,,,magenta,flipped triangle
376.0,8.0,4.0,1.0,3.0,3.0,437.0658569969237,4.0,1.0,phase_1,,,,,,,,,,,,,blue,diamond
0.0,3.0,0.0,0.0,4.0,4.0,381.9509039167315,4.0,1.0,phase_1,,,,,,,,,,,,,gray,square
0.0,8.0,0.0,1.0,3.0,3.0,349.2101640440523,4.0,1.0,phase_1,,,,,,,,,,,,,blue,diamond
384.0,8.0,4.0,1.0,2.0,2.0,335.5642659589648,4.0,1.0,phase_1,,,,,,,,,,,,,blue,diamond
193.0,3.0,3.0,0.0,3.0,3.0,347.8907078970223,4.0,1.0,phase_1,,,,,,,,,,,,,gray,square
190.0,7.0,3.0,1.0,1.0,1.0,293.6067900154739,4.0,1.0,phase_1,,,,,,,,,,,,,magenta,flipped triangle
206.0,7.0,3.0,1.0,2.0,2.0,314.5183289889246,4.0,1.0,phase_1,,,,,,,,,,,,,magenta,flipped triangle
0.0,8.0,0.0,1.0,1.0,1.0,306.2484099064022,4.0,1.0,phase_1,,,,,,,,,,,,,blue,diamond
423.0,4.0,4.0,0.0,3.0,3.0,319.4284029304981,4.0,1.0,phase_1,,,,,,,,,,,,,orange,circle
85.0,6.0,2.0,1.0,2.0,2.0,353.6128830164671,4.0,1.0,phase_1,,,,,,,,,,,,,green,I
188.0,7.0,3.0,1.0,3.0,3.0,521.2377582211047,4.0,1.0,phase_1,,,,,,,,,,,,,magenta,flipped triangle
103.0,2.0,2.0,0.0,4.0,4.0,399.0810730028897,4.0,1.0,phase_1,,,,,,,,,,,,,white,hexagon
177.0,3.0,3.0,0.0,1.0,1.0,388.8672951143235,4.0,1.0,phase_1,,,,,,,,,,,,,gray,square
0.0,1.0,0.0,0.0,2.0,2.0,352.7193630579859,4.0,1.0,phase_1,,,,,,,,,,,,,yellow,triangle
0.0,8.0,0.0,1.0,1.0,1.0,332.5654850341379,4.0,1.0,phase_1,,,,,,,,,,,,,blue,diamond
0.0,6.0,0.0,1.0,1.0,1.0,456.0182390268892,4.0,1.0,phase_1,,,,,,,,,,,,,green,I
45.0,1.0,1.0,0.0,1.0,1.0,446.3071818463504,4.0,1.0,phase_1,,,,,,,,,,,,,yellow,triangle
73.0,5.0,1.0,1.0,2.0,2.0,344.9808910954743,4.0,1.0,phase_1,,,,,,,,,,,,,cyan,cross
225.0,3.0,3.0,0.0,2.0,2.0,380.483018932864,4.0,1.0,phase_1,,,,,,,,,,,,,gray,square
123.0,6.0,2.0,1.0,1.0,1.0,389.4432100933045,4.0,1.0,phase_1,,,,,,,,,,,,,green,I
116.0,2.0,2.0,0.0,4.0,4.0,402.1941639948636,4.0,1.0,phase_1,,,,,,,,,,,,,white,hexagon
98.0,2.0,2.0,0.0,4.0,4.0,439.4194961059838,4.0,1.0,phase_1,,,,,,,,,,,,,white,hexagon
389.0,8.0,4.0,1.0,2.0,2.0,470.8484529983252,4.0,1.0,phase_1,,,,,,,,,,,,,blue,diamond
95.0,6.0,2.0,1.0,1.0,1.0,346.8199169728905,4.0,1.0,phase_1,,,,,,,,,,,,,green,I
0.0,4.0,0.0,0.0,1.0,1.0,506.454159040004,4.0,1.0,phase_1,,,,,,,,,,,,,orange,circle
417.0,4.0,4.0,0.0,1.0,1.0,382.339142030105,4.0,1.0,phase_1,,,,,,,,,,,,,orange,circle
200.0,3.0,3.0,0.0,4.0,4.0,487.7152910921722,4.0,1.0,phase_1,,,,,,,,,,,,,gray,square
394.0,8.0,4.0,1.0,2.0,2.0,337.7108660060912,4.0,1.0,phase_1,,,,,,,,,,,,,blue,diamond
66.0,1.0,1.0,0.0,4.0,4.0,408.6837971117347,4.0,1.0,phase_1,,,,,,,,,,,,,yellow,triangle
65.0,1.0,1.0,0.0,4.0,4.0,377.1053240634501,4.0,1.0,phase_1,,,,,,,,,,,,,yellow,triangle
197.0,7.0,3.0,1.0,1.0,1.0,452.3991988971829,4.0,1.0,phase_1,,,,,,,,,,,,,magenta,flipped triangle
125.0,2.0,2.0,0.0,4.0,4.0,399.3478480260819,4.0,1.0,phase_1,,,,,,,,,,,,,white,hexagon
91.0,2.0,2.0,0.0,4.0,4.0,388.36356298998,4.0,1.0,phase_1,,,,,,,,,,,,,white,hexagon
29.0,5.0,1.0,1.0,2.0,2.0,397.5506629794836,4.0,1.0,phase_1,,,,,,,,,,,,,cyan,cross
63.0,1.0,1.0,0.0,2.0,2.0,342.3042059876025,4.0,1.0,phase_1,,,,,,,,,,,,,yellow,triangle
401.0,8.0,4.0,1.0,1.0,1.0,353.6081449128687,4.0,1.0,phase_1,,,,,,,,,,,,,blue,diamond
388.0,8.0,4.0,1.0,4.0,4.0,391.3164809346199,4.0,1.0,phase_1,,,,,,,,,,,,,blue,diamond
381.0,8.0,4.0,1.0,1.0,1.0,445.3049409203231,4.0,1.0,phase_1,,,,,,,,,,,,,blue,diamond
0.0,5.0,0.0,1.0,3.0,3.0,366.5267769247293,4.0,1.0,phase_1,,,,,,,,,,,,,cyan,cross
389.0,8.0,4.0,1.0,4.0,4.0,536.2271810881793,4.0,1.0,phase_1,,,,,,,,,,,,,blue,diamond
0.0,2.0,0.0,0.0,2.0,2.0,348.0273080058396,4.0,1.0,phase_1,,,,,,,,,,,,,white,hexagon
0.0,7.0,0.0,1.0,3.0,3.0,451.0016539134085,4.0,1.0,phase_1,,,,,,,,,,,,,magenta,flipped triangle
95.0,2.0,2.0,0.0,3.0,3.0,413.879653904587,4.0,1.0,phase_1,,,,,,,,,,,,,white,hexagon
187.0,3.0,3.0,0.0,2.0,2.0,495.7101789768785,4.0,1.0,phase_1,,,,,,,,,,,,,gray,square
375.0,8.0,4.0,1.0,4.0,4.0,372.8309969883412,4.0,1.0,phase_1,,,,,,,,,,,,,blue,diamond
422.0,8.0,4.0,1.0,2.0,2.0,384.6588837914169,4.0,1.0,phase_1,,,,,,,,,,,,,blue,diamond
26.0,1.0,1.0,0.0,2.0,2.0,666.6943491436541,4.0,1.0,phase_1,,,,,,,,,,,,,yellow,triangle
0.0,6.0,0.0,1.0,4.0,4.0,585.3651189245284,4.0,1.0,phase_1,,,,,,,,,,,,,green,I
115.0,6.0,2.0,1.0,1.0,1.0,451.7551290336996,4.0,1.0,phase_1,,,,,,,,,,,,,green,I
398.0,4.0,4.0,0.0,4.0,4.0,422.1013861242682,4.0,1.0,phase_1,,,,,,,,,,,,,orange,circle
223.0,7.0,3.0,1.0,3.0,3.0,385.3969022165984,4.0,1.0,phase_1,,,,,,,,,,,,,magenta,flipped triangle
0.0,3.0,0.0,0.0,3.0,3.0,467.6617530640214,4.0,1.0,phase_1,,,,,,,,,,,,,gray,square
414.0,4.0,4.0,0.0,4.0,4.0,498.6490739975124,4.0,1.0,phase_1,,,,,,,,,,,,,orange,circle
417.0,8.0,4.0,1.0,3.0,3.0,352.6048581115901,4.0,1.0,phase_1,,,,,,,,,,,,,blue,diamond
401.0,4.0,4.0,0.0,2.0,2.0,333.3744071424007,4.0,1.0,phase_1,,,,,,,,,,,,,orange,circle
65.0,5.0,1.0,1.0,2.0,2.0,503.4405319020152,4.0,1.0,phase_1,,,,,,,,,,,,,cyan,cross
33.0,1.0,1.0,0.0,4.0,4.0,469.5156088564545,4.0,1.0,phase_1,,,,,,,,,,,,,yellow,triangle
0.0,8.0,0.0,1.0,3.0,3.0,414.8121520411223,4.0,1.0,phase_1,,,,,,,,,,,,,blue,diamond
414.0,8.0,4.0,1.0,3.0,3.0,355.964896036312,4.0,1.0,phase_1,,,,,,,,,,,,,blue,diamond
124.0,2.0,2.0,0.0,1.0,1.0,528.4934840165079,4.0,1.0,phase_1,,,,,,,,,,,,,white,hexagon
96.0,6.0,2.0,1.0,4.0,4.0,583.2162359729409,4.0,1.0,phase_1,,,,,,,,,,,,,green,I
65.0,1.0,1.0,0.0,1.0,1.0,482.8144079074263,4.0,1.0,phase_1,,,,,,,,,,,,,yellow,triangle
0.0,5.0,0.0,1.0,4.0,4.0,403.1469831243157,4.0,1.0,phase_1,,,,,,,,,,,,,cyan,cross
377.0,4.0,4.0,0.0,4.0,4.0,437.3552519828081,4.0,1.0,phase_1,,,,,,,,,,,,,orange,circle
0.0,2.0,0.0,0.0,4.0,4.0,338.7988291215151,4.0,1.0,phase_1,,,,,,,,,,,,,white,hexagon
93.0,6.0,2.0,1.0,2.0,2.0,417.0641489326954,4.0,1.0,phase_1,,,,,,,,,,,,,green,I
210.0,7.0,3.0,1.0,3.0,3.0,340.4863281175494,4.0,1.0,phase_1,,,,,,,,,,,,,magenta,flipped triangle
0.0,8.0,0.0,1.0,3.0,3.0,396.3948898017406,4.0,1.0,phase_1,,,,,,,,,,,,,blue,diamond
25.0,1.0,1.0,0.0,3.0,3.0,352.0221130456775,4.0,1.0,phase_1,,,,,,,,,,,,,yellow,triangle
97.0,6.0,2.0,1.0,2.0,2.0,429.9811560194939,4.0,1.0,phase_1,,,,,,,,,,,,,green,I
197.0,3.0,3.0,0.0,2.0,2.0,441.4622930344194,4.0,1.0,phase_1,,,,,,,,,,,,,gray,square
117.0,2.0,2.0,0.0,1.0,1.0,364.3985411617905,4.0,1.0,phase_1,,,,,,,,,,,,,white,hexagon
0.0,2.0,0.0,0.0,1.0,1.0,307.6565768569708,4.0,1.0,phase_1,,,,,,,,,,,,,white,hexagon
0.0,8.0,0.0,1.0,2.0,2.0,354.2179111391306,4.0,1.0,phase_1,,,,,,,,,,,,,blue,diamond
386.0,4.0,4.0,0.0,1.0,1.0,411.6201740689575,4.0,1.0,phase_1,,,,,,,,,,,,,orange,circle
107.0,6.0,2.0,1.0,4.0,4.0,379.9370520282537,4.0,1.0,phase_1,,,,,,,,,,,,,green,I
394.0,4.0,4.0,0.0,3.0,3.0,323.4559569973498,4.0,1.0,phase_1,,,,,,,,,,,,,orange,circle
0.0,2.0,0.0,0.0,2.0,2.0,358.1435298547148,4.0,1.0,phase_1,,,,,,,,,,,,,white,hexagon
224.0,3.0,3.0,0.0,3.0,3.0,346.0031729191541,4.0,1.0,phase_1,,,,,,,,,,,,,gray,square
0.0,1.0,0.0,0.0,4.0,4.0,446.2954429909587,4.0,1.0,phase_1,,,,,,,,,,,,,yellow,triangle
423.0,8.0,4.0,1.0,3.0,3.0,412.3565480113029,4.0,1.0,phase_1,,,,,,,,,,,,,blue,diamond
43.0,1.0,1.0,0.0,3.0,3.0,405.5778398178518,4.0,1.0,phase_1,,,,,,,,,,,,,yellow,triangle
0.0,2.0,0.0,0.0,1.0,1.0,346.7511178459972,4.0,1.0,phase_1,,,,,,,,,,,,,white,hexagon
0.0,4.0,0.0,0.0,2.0,2.0,326.4876529574394,4.0,1.0,phase_1,,,,,,,,,,,,,orange,circle
25.0,5.0,1.0,1.0,1.0,1.0,462.2221998870373,4.0,1.0,phase_1,,,,,,,,,,,,,cyan,cross
82.0,2.0,2.0,0.0,2.0,2.0,340.0767899584025,4.0,1.0,phase_1,,,,,,,,,,,,,white,hexagon
381.0,4.0,4.0,0.0,4.0,4.0,372.5371670443564,4.0,1.0,phase_1,,,,,,,,,,,,,orange,circle
125.0,6.0,2.0,1.0,3.0,3.0,339.2449119128287,4.0,1.0,phase_1,,,,,,,,,,,,,green,I
0.0,5.0,0.0,1.0,4.0,4.0,488.0255640018731,4.0,1.0,phase_1,,,,,,,,,,,,,cyan,cross
394.0,4.0,4.0,0.0,2.0,2.0,339.3797688186168,4.0,1.0,phase_1,,,,,,,,,,,,,orange,circle
202.0,7.0,3.0,1.0,2.0,2.0,419.2880769260227,4.0,1.0,phase_1,,,,,,,,,,,,,magenta,flipped triangle
0.0,6.0,2.0,1.0,6.0,6.0,755.2500499878079,1.0,1.0,phase_2,stop,250.0,250.0,3.0,,,,,,,,,green,I
0.0,6.0,2.0,1.0,5.0,5.0,382.6401219703257,1.0,1.0,phase_2,go,250.0,200.0,1.0,,,,,,,,,green,I
0.0,6.0,2.0,1.0,5.0,5.0,395.0687441974878,1.0,1.0,phase_2,go,250.0,200.0,1.0,,,,,,,,,green,I
0.0,3.0,3.0,0.0,6.0,6.0,466.3505789358169,1.0,1.0,phase_2,go,250.0,200.0,1.0,,,,,,,,,gray,square
0.0,5.0,1.0,1.0,5.0,5.0,340.1231030002236,1.0,1.0,phase_2,go,250.0,200.0,1.0,,,,,,,,,cyan,cross
0.0,7.0,3.0,1.0,5.0,5.0,319.3761620204896,1.0,1.0,phase_2,stop,250.0,200.0,3.0,,,,,,,,,magenta,flipped triangle
0.0,6.0,2.0,1.0,5.0,0.0,0.0,1.0,1.0,phase_2,stop,200.0,200.0,4.0,,,,,,,,,green,I
0.0,1.0,1.0,0.0,6.0,6.0,345.5145910847932,1.0,1.0,phase_2,go,250.0,200.0,1.0,,,,,,,,,yellow,triangle
0.0,1.0,1.0,0.0,5.0,5.0,491.4266029372811,1.0,1.0,phase_2,go,250.0,200.0,1.0,,,,,,,,,yellow,triangle
0.0,8.0,4.0,1.0,5.0,5.0,391.8307588901371,1.0,1.0,phase_2,go,250.0,200.0,1.0,,,,,,,,,blue,diamond
0.0,2.0,2.0,0.0,6.0,6.0,446.440203813836,1.0,1.0,phase_2,go,250.0,200.0,1.0,,,,,,,,,white,hexagon
0.0,1.0,1.0,0.0,6.0,6.0,392.9631679784506,1.0,1.0,phase_2,go,250.0,200.0,1.0,,,,,,,,,yellow,triangle
0.0,6.0,2.0,1.0,6.0,6.0,505.3169659804553,1.0,1.0,phase_2,stop,250.0,200.0,3.0,,,,,,,,,green,I
0.0,2.0,2.0,0.0,6.0,6.0,630.0927200354636,1.0,1.0,phase_2,go,250.0,150.0,1.0,,,,,,,,,white,hexagon
0.0,5.0,1.0,1.0,6.0,0.0,0.0,1.0,1.0,phase_2,stop,250.0,150.0,4.0,,,,,,,,,cyan,cross
0.0,2.0,2.0,0.0,6.0,6.0,608.1102841999382,1.0,1.0,phase_2,go,250.0,200.0,1.0,,,,,,,,,white,hexagon
0.0,7.0,3.0,1.0,6.0,0.0,0.0,1.0,1.0,phase_2,stop,250.0,200.0,4.0,,,,,,,,,magenta,flipped triangle
0.0,5.0,1.0,1.0,5.0,5.0,407.5378719717264,1.0,1.0,phase_2,stop,250.0,250.0,3.0,,,,,,,,,cyan,cross
0.0,6.0,2.0,1.0,6.0,0.0,0.0,1.0,1.0,phase_2,stop,200.0,250.0,4.0,,,,,,,,,green,I
0.0,2.0,2.0,0.0,6.0,6.0,723.558986093849,1.0,1.0,phase_2,go,200.0,300.0,1.0,,,,,,,,,white,hexagon
0.0,6.0,2.0,1.0,5.0,0.0,0.0,1.0,1.0,phase_2,stop,200.0,300.0,4.0,,,,,,,,,green,I
0.0,5.0,1.0,1.0,5.0,0.0,0.0,1.0,1.0,phase_2,stop,250.0,300.0,4.0,,,,,,,,,cyan,cross
0.0,1.0,1.0,0.0,6.0,6.0,602.6606818195432,1.0,1.0,phase_2,go,300.0,300.0,1.0,,,,,,,,,yellow,triangle
0.0,8.0,4.0,1.0,5.0,5.0,516.4888419676572,1.0,1.0,phase_2,go,300.0,300.0,1.0,,,,,,,,,blue,diamond
0.0,3.0,3.0,0.0,6.0,6.0,528.206910006702,1.0,1.0,phase_2,go,300.0,300.0,1.0,,,,,,,,,gray,square
0.0,4.0,4.0,0.0,6.0,6.0,529.902681009844,1.0,1.0,phase_2,go,300.0,300.0,1.0,,,,,,,,,orange,circle
0.0,5.0,1.0,1.0,5.0,0.0,0.0,1.0,1.0,phase_2,stop,300.0,300.0,4.0,,,,,,,,,cyan,cross
0.0,1.0,1.0,0.0,5.0,5.0,531.2491469085217,1.0,1.0,phase_2,go,350.0,300.0,1.0,,,,,,,,,yellow,triangle
0.0,6.0,2.0,1.0,5.0,5.0,789.8055040277541,1.0,1.0,phase_2,go,350.0,300.0,1.0,,,,,,,,,green,I
0.0,3.0,3.0,0.0,6.0,6.0,533.7613360024989,1.0,1.0,phase_2,go,350.0,300.0,1.0,,,,,,,,,gray,square
0.0,5.0,1.0,1.0,6.0,6.0,388.0456530023366,1.0,1.0,phase_2,stop,350.0,300.0,3.0,,,,,,,,,cyan,cross
0.0,6.0,2.0,1.0,6.0,0.0,0.0,1.0,1.0,phase_2,stop,350.0,250.0,4.0,,,,,,,,,green,I
0.0,2.0,2.0,0.0,6.0,6.0,600.3174369689077,1.0,1.0,phase_2,go,350.0,300.0,1.0,,,,,,,,,white,hexagon
0.0,7.0,3.0,1.0,5.0,5.0,703.7694500759244,1.0,1.0,phase_2,go,350.0,300.0,1.0,,,,,,,,,magenta,flipped triangle
0.0,4.0,4.0,0.0,5.0,5.0,425.0843808986246,1.0,1.0,phase_2,go,350.0,300.0,1.0,,,,,,,,,orange,circle
0.0,5.0,1.0,1.0,5.0,5.0,557.4535958003253,1.0,1.0,phase_2,go,350.0,300.0,1.0,,,,,,,,,cyan,cross
0.0,6.0,2.0,1.0,6.0,6.0,652.3702698759735,2.0,1.0,phase_2,stop,350.0,300.0,3.0,,,,,,,,,green,I
0.0,3.0,3.0,0.0,6.0,6.0,709.9417431745678,2.0,1.0,phase_2,go,350.0,250.0,1.0,,,,,,,,,gray,square
0.0,5.0,1.0,1.0,5.0,5.0,432.0385730825364,2.0,1.0,phase_2,stop,350.0,250.0,3.0,,,,,,,,,cyan,cross
0.0,4.0,4.0,0.0,6.0,6.0,579.743942944333,2.0,1.0,phase_2,go,300.0,250.0,1.0,,,,,,,,,orange,circle
0.0,2.0,2.0,0.0,6.0,6.0,363.1713860668242,2.0,1.0,phase_2,go,300.0,250.0,1.0,,,,,,,,,white,hexagon
0.0,4.0,4.0,0.0,6.0,6.0,374.9061501584947,2.0,1.0,phase_2,go,300.0,250.0,1.0,,,,,,,,,orange,circle
0.0,6.0,2.0,1.0,5.0,0.0,0.0,2.0,1.0,phase_2,stop,300.0,250.0,4.0,,,,,,,,,green,I
0.0,1.0,1.0,0.0,6.0,6.0,455.393407959491,2.0,1.0,phase_2,go,350.0,250.0,1.0,,,,,,,,,yellow,triangle
0.0,2.0,2.0,0.0,5.0,5.0,583.7010589893907,2.0,1.0,phase_2,go,350.0,250.0,1.0,,,,,,,,,white,hexagon
0.0,4.0,4.0,0.0,6.0,6.0,570.8838270511478,2.0,1.0,phase_2,go,350.0,250.0,1.0,,,,,,,,,orange,circle
0.0,1.0,1.0,0.0,6.0,6.0,561.8665511719882,2.0,1.0,phase_2,go,350.0,250.0,1.0,,,,,,,,,yellow,triangle
0.0,2.0,2.0,0.0,6.0,6.0,324.1700418293476,2.0,1.0,phase_2,go,350.0,250.0,1.0,,,,,,,,,white,hexagon
0.0,8.0,4.0,1.0,5.0,5.0,338.4957979433238,2.0,1.0,phase_2,go,350.0,250.0,1.0,,,,,,,,,blue,diamond
0.0,8.0,4.0,1.0,5.0,5.0,485.8852548059076,2.0,1.0,phase_2,stop,350.0,250.0,3.0,,,,,,,,,blue,diamond
0.0,7.0,3.0,1.0,5.0,0.0,0.0,2.0,1.0,phase_2,stop,300.0,250.0,4.0,,,,,,,,,magenta,flipped triangle
0.0,3.0,3.0,0.0,5.0,5.0,713.551081949845,2.0,1.0,phase_2,go,350.0,250.0,1.0,,,,,,,,,gray,square
0.0,5.0,1.0,1.0,6.0,0.0,0.0,2.0,1.0,phase_2,stop,350.0,250.0,4.0,,,,,,,,,cyan,cross
0.0,3.0,3.0,0.0,5.0,5.0,623.664960032329,2.0,1.0,phase_2,go,350.0,300.0,1.0,,,,,,,,,gray,square
0.0,6.0,2.0,1.0,5.0,5.0,656.4047420397401,2.0,1.0,phase_2,go,350.0,300.0,1.0,,,,,,,,,green,I
0.0,7.0,3.0,1.0,5.0,5.0,444.8040989227593,2.0,1.0,phase_2,go,350.0,300.0,1.0,,,,,,,,,magenta,flipped triangle
0.0,3.0,3.0,0.0,6.0,6.0,637.3567120172083,2.0,1.0,phase_2,go,350.0,300.0,1.0,,,,,,,,,gray,square
0.0,8.0,4.0,1.0,5.0,0.0,0.0,2.0,1.0,phase_2,stop,350.0,300.0,4.0,,,,,,,,,blue,diamond
0.0,1.0,1.0,0.0,6.0,6.0,393.105227034539,2.0,1.0,phase_2,go,400.0,300.0,1.0,,,,,,,,,yellow,triangle
0.0,4.0,4.0,0.0,5.0,5.0,605.890623992309,2.0,1.0,phase_2,go,400.0,300.0,1.0,,,,,,,,,orange,circle
0.0,8.0,4.0,1.0,6.0,6.0,391.239999094978,2.0,1.0,phase_2,stop,400.0,300.0,3.0,,,,,,,,,blue,diamond
0.0,7.0,3.0,1.0,5.0,0.0,0.0,2.0,1.0,phase_2,stop,400.0,250.0,4.0,,,,,,,,,magenta,flipped triangle
0.0,4.0,4.0,0.0,5.0,5.0,663.1417968310416,2.0,1.0,phase_2,go,450.0,250.0,1.0,,,,,,,,,orange,circle
0.0,2.0,2.0,0.0,6.0,6.0,676.5214609913528,2.0,1.0,phase_2,go,450.0,250.0,1.0,,,,,,,,,white,hexagon
0.0,8.0,4.0,1.0,5.0,0.0,0.0,2.0,1.0,phase_2,stop,450.0,250.0,4.0,,,,,,,,,blue,diamond
0.0,8.0,4.0,1.0,6.0,0.0,0.0,2.0,1.0,phase_2,stop,500.0,250.0,4.0,,,,,,,,,blue,diamond
0.0,6.0,2.0,1.0,5.0,5.0,690.6640150118619,2.0,1.0,phase_2,go,500.0,300.0,1.0,,,,,,,,,green,I
0.0,4.0,4.0,0.0,6.0,6.0,659.1620401013643,2.0,1.0,phase_2,go,500.0,300.0,1.0,,,,,,,,,orange,circle
0.0,3.0,3.0,0.0,5.0,5.0,398.7890549469739,2.0,1.0,phase_2,go,500.0,300.0,1.0,,,,,,,,,gray,square
0.0,7.0,3.0,1.0,5.0,5.0,502.9943820554763,2.0,1.0,phase_2,go,500.0,300.0,1.0,,,,,,,,,magenta,flipped triangle
0.0,3.0,3.0,0.0,6.0,6.0,425.2843798603862,2.0,1.0,phase_2,go,500.0,300.0,1.0,,,,,,,,,gray,square
0.0,5.0,1.0,1.0,6.0,0.0,0.0,2.0,1.0,phase_2,stop,500.0,300.0,4.0,,,,,,,,,cyan,cross
0.0,3.0,3.0,0.0,5.0,5.0,705.383055144921,3.0,1.0,phase_2,go,500.0,350.0,1.0,,,,,,,,,gray,square
0.0,7.0,3.0,1.0,6.0,6.0,405.3599729668349,3.0,1.0,phase_2,stop,500.0,350.0,3.0,,,,,,,,,magenta,flipped triangle
0.0,8.0,4.0,1.0,6.0,6.0,1237.6927551813424,3.0,1.0,phase_2,go,500.0,300.0,1.0,,,,,,,,,blue,diamond
0.0,7.0,3.0,1.0,5.0,5.0,594.6187190711498,3.0,1.0,phase_2,stop,500.0,300.0,3.0,,,,,,,,,magenta,flipped triangle
0.0,7.0,3.0,1.0,6.0,0.0,0.0,3.0,1.0,phase_2,stop,450.0,300.0,4.0,,,,,,,,,magenta,flipped triangle
0.0,8.0,4.0,1.0,5.0,5.0,371.293192030862,3.0,1.0,phase_2,stop,450.0,350.0,3.0,,,,,,,,,blue,diamond
0.0,4.0,4.0,0.0,5.0,5.0,733.1305500119925,3.0,1.0,phase_2,go,400.0,350.0,1.0,,,,,,,,,orange,circle
0.0,4.0,4.0,0.0,6.0,6.0,499.4481599424034,3.0,1.0,phase_2,go,400.0,350.0,1.0,,,,,,,,,orange,circle
0.0,2.0,2.0,0.0,5.0,5.0,600.3383051138371,3.0,1.0,phase_2,go,400.0,350.0,1.0,,,,,,,,,white,hexagon
0.0,4.0,4.0,0.0,6.0,6.0,411.167873069644,3.0,1.0,phase_2,go,400.0,350.0,1.0,,,,,,,,,orange,circle
0.0,6.0,2.0,1.0,5.0,5.0,510.76948503032327,3.0,1.0,phase_2,stop,400.0,350.0,3.0,,,,,,,,,green,I
0.0,5.0,1.0,1.0,6.0,6.0,627.7293178718537,3.0,1.0,phase_2,go,350.0,350.0,1.0,,,,,,,,,cyan,cross
0.0,3.0,3.0,0.0,6.0,6.0,412.8778160084039,3.0,1.0,phase_2,go,350.0,350.0,1.0,,,,,,,,,gray,square
0.0,6.0,2.0,1.0,5.0,5.0,627.5303829461336,3.0,1.0,phase_2,go,350.0,350.0,1.0,,,,,,,,,green,I
0.0,1.0,1.0,0.0,5.0,5.0,435.6397299561649,3.0,1.0,phase_2,go,350.0,350.0,1.0,,,,,,,,,yellow,triangle
0.0,8.0,4.0,1.0,6.0,6.0,515.228311996907,3.0,1.0,phase_2,stop,350.0,350.0,3.0,,,,,,,,,blue,diamond
0.0,3.0,3.0,0.0,6.0,6.0,619.8909741360694,3.0,1.0,phase_2,go,350.0,300.0,1.0,,,,,,,,,gray,square
0.0,3.0,3.0,0.0,5.0,5.0,743.5787639115006,3.0,1.0,phase_2,go,350.0,300.0,1.0,,,,,,,,,gray,square
0.0,7.0,3.0,1.0,6.0,0.0,0.0,3.0,1.0,phase_2,stop,350.0,300.0,4.0,,,,,,,,,magenta,flipped triangle
0.0,1.0,1.0,0.0,5.0,5.0,473.8818549085408,3.0,1.0,phase_2,go,350.0,350.0,1.0,,,,,,,,,yellow,triangle
0.0,7.0,3.0,1.0,6.0,0.0,0.0,3.0,1.0,phase_2,stop,350.0,350.0,4.0,,,,,,,,,magenta,flipped triangle
0.0,3.0,3.0,0.0,5.0,5.0,361.8894871324301,3.0,1.0,phase_2,go,350.0,400.0,1.0,,,,,,,,,gray,square
0.0,8.0,4.0,1.0,5.0,0.0,0.0,3.0,1.0,phase_2,stop,350.0,400.0,4.0,,,,,,,,,blue,diamond
0.0,6.0,2.0,1.0,5.0,5.0,602.0624039229006,3.0,1.0,phase_2,go,400.0,400.0,1.0,,,,,,,,,green,I
0.0,3.0,3.0,0.0,6.0,6.0,1130.9250919148326,3.0,1.0,phase_2,go,400.0,400.0,1.0,,,,,,,,,gray,square
0.0,5.0,1.0,1.0,5.0,0.0,0.0,3.0,1.0,phase_2,stop,400.0,400.0,4.0,,,,,,,,,cyan,cross
0.0,6.0,2.0,1.0,6.0,6.0,368.8991679809987,3.0,1.0,phase_2,stop,450.0,400.0,3.0,,,,,,,,,green,I
0.0,1.0,1.0,0.0,5.0,5.0,627.5162040255964,3.0,1.0,phase_2,go,450.0,350.0,1.0,,,,,,,,,yellow,triangle
0.0,1.0,1.0,0.0,6.0,6.0,729.7203070484102,3.0,1.0,phase_2,go,450.0,350.0,1.0,,,,,,,,,yellow,triangle
0.0,7.0,3.0,1.0,5.0,0.0,0.0,3.0,1.0,phase_2,stop,450.0,350.0,4.0,,,,,,,,,magenta,flipped triangle
0.0,3.0,3.0,0.0,6.0,6.0,640.3801839333028,3.0,1.0,phase_2,go,500.0,350.0,1.0,,,,,,,,,gray,square
0.0,1.0,1.0,0.0,6.0,6.0,722.0980240963399,3.0,1.0,phase_2,go,500.0,350.0,1.0,,,,,,,,,yellow,triangle
0.0,8.0,4.0,1.0,6.0,0.0,0.0,3.0,1.0,phase_2,stop,500.0,350.0,4.0,,,,,,,,,blue,diamond
0.0,7.0,3.0,1.0,6.0,6.0,611.112997867167,3.0,1.0,phase_2,go,500.0,400.0,1.0,,,,,,,,,magenta,flipped triangle
0.0,4.0,4.0,0.0,5.0,5.0,385.4563320055604,3.0,1.0,phase_2,go,500.0,400.0,1.0,,,,,,,,,orange,circle
0.0,1.0,1.0,0.0,6.0,6.0,648.1847129762173,3.0,1.0,phase_2,go,500.0,400.0,1.0,,,,,,,,,yellow,triangle
0.0,8.0,4.0,1.0,5.0,5.0,1040.925535839051,4.0,1.0,phase_2,stop,500.0,400.0,3.0,,,,,,,,,blue,diamond
0.0,6.0,2.0,1.0,6.0,0.0,0.0,4.0,1.0,phase_2,stop,450.0,400.0,4.0,,,,,,,,,green,I
0.0,3.0,3.0,0.0,5.0,5.0,798.696561018005,4.0,1.0,phase_2,go,450.0,450.0,1.0,,,,,,,,,gray,square
0.0,8.0,4.0,1.0,6.0,6.0,368.2114079128951,4.0,1.0,phase_2,stop,450.0,450.0,3.0,,,,,,,,,blue,diamond
0.0,5.0,1.0,1.0,5.0,5.0,699.2106239777058,4.0,1.0,phase_2,go,450.0,400.0,1.0,,,,,,,,,cyan,cross
0.0,4.0,4.0,0.0,5.0,5.0,404.8376430291682,4.0,1.0,phase_2,go,450.0,400.0,1.0,,,,,,,,,orange,circle
0.0,7.0,3.0,1.0,5.0,5.0,542.3063389025629,4.0,1.0,phase_2,stop,450.0,400.0,3.0,,,,,,,,,magenta,flipped triangle
0.0,2.0,2.0,0.0,5.0,5.0,598.4181170351803,4.0,1.0,phase_2,go,400.0,400.0,1.0,,,,,,,,,white,hexagon
0.0,5.0,1.0,1.0,6.0,6.0,498.21463809348637,4.0,1.0,phase_2,stop,400.0,400.0,3.0,,,,,,,,,cyan,cross
0.0,1.0,1.0,0.0,6.0,6.0,601.1714411433786,4.0,1.0,phase_2,go,400.0,350.0,1.0,,,,,,,,,yellow,triangle
0.0,5.0,1.0,1.0,5.0,0.0,0.0,4.0,1.0,phase_2,stop,400.0,350.0,4.0,,,,,,,,,cyan,cross
0.0,4.0,4.0,0.0,5.0,5.0,557.3825209867209,4.0,1.0,phase_2,go,450.0,350.0,1.0,,,,,,,,,orange,circle
0.0,4.0,4.0,0.0,6.0,6.0,750.5116108804941,4.0,1.0,phase_2,go,450.0,350.0,1.0,,,,,,,,,orange,circle
0.0,8.0,4.0,1.0,5.0,5.0,476.3976109679788,4.0,1.0,phase_2,stop,450.0,350.0,3.0,,,,,,,,,blue,diamond
0.0,3.0,3.0,0.0,6.0,6.0,511.86105515807867,4.0,1.0,phase_2,go,400.0,350.0,1.0,,,,,,,,,gray,square
0.0,4.0,4.0,0.0,6.0,6.0,525.1085818745196,4.0,1.0,phase_2,go,400.0,350.0,1.0,,,,,,,,,orange,circle
0.0,5.0,1.0,1.0,6.0,6.0,379.7599209938198,4.0,1.0,phase_2,go,400.0,350.0,1.0,,,,,,,,,cyan,cross
0.0,7.0,3.0,1.0,5.0,0.0,0.0,4.0,1.0,phase_2,stop,400.0,350.0,4.0,,,,,,,,,magenta,flipped triangle
0.0,7.0,3.0,1.0,6.0,0.0,0.0,4.0,1.0,phase_2,stop,450.0,350.0,4.0,,,,,,,,,magenta,flipped triangle
0.0,3.0,3.0,0.0,5.0,5.0,585.3899009525776,4.0,1.0,phase_2,go,450.0,400.0,1.0,,,,,,,,,gray,square
0.0,1.0,1.0,0.0,6.0,6.0,463.5723868850618,4.0,1.0,phase_2,go,450.0,400.0,1.0,,,,,,,,,yellow,triangle
0.0,3.0,3.0,0.0,5.0,5.0,967.7019759546964,4.0,1.0,phase_2,go,450.0,400.0,1.0,,,,,,,,,gray,square
0.0,2.0,2.0,0.0,5.0,5.0,914.5422340370716,4.0,1.0,phase_2,go,450.0,400.0,1.0,,,,,,,,,white,hexagon
0.0,7.0,3.0,1.0,6.0,0.0,0.0,4.0,1.0,phase_2,stop,450.0,400.0,4.0,,,,,,,,,magenta,flipped triangle
0.0,1.0,1.0,0.0,6.0,6.0,613.8194389641285,4.0,1.0,phase_2,go,450.0,450.0,1.0,,,,,,,,,yellow,triangle
0.0,3.0,3.0,0.0,5.0,5.0,805.0652199890465,4.0,1.0,phase_2,go,450.0,450.0,1.0,,,,,,,,,gray,square
0.0,1.0,1.0,0.0,6.0,6.0,522.5168310571462,4.0,1.0,phase_2,go,450.0,450.0,1.0,,,,,,,,,yellow,triangle
0.0,7.0,3.0,1.0,5.0,5.0,783.548932056874,4.0,1.0,phase_2,go,450.0,450.0,1.0,,,,,,,,,magenta,flipped triangle
0.0,4.0,4.0,0.0,6.0,6.0,794.8228281456977,4.0,1.0,phase_2,go,450.0,450.0,1.0,,,,,,,,,orange,circle
0.0,2.0,2.0,0.0,5.0,5.0,749.4990518316627,4.0,1.0,phase_2,go,450.0,450.0,1.0,,,,,,,,,white,hexagon
0.0,2.0,2.0,0.0,5.0,5.0,1057.6183809898794,4.0,1.0,phase_2,go,450.0,450.0,1.0,,,,,,,,,white,hexagon
0.0,6.0,2.0,1.0,5.0,0.0,0.0,4.0,1.0,phase_2,stop,450.0,450.0,4.0,,,,,,,,,green,I
0.0,4.0,4.0,0.0,6.0,6.0,676.0323389898986,4.0,1.0,phase_2,go,500.0,450.0,1.0,,,,,,,,,orange,circle
0.0,4.0,4.0,0.0,5.0,5.0,696.5337709989399,4.0,1.0,phase_2,go,500.0,450.0,1.0,,,,,,,,,orange,circle
0.0,5.0,1.0,1.0,5.0,0.0,0.0,4.0,1.0,phase_2,stop,500.0,450.0,4.0,,,,,,,,,cyan,cross
0.0,7.0,3.0,1.0,5.0,0.0,0.0,4.0,1.0,phase_2,stop,550.0,450.0,4.0,,,,,,,,,magenta,flipped triangle
0.0,3.0,3.0,0.0,6.0,6.0,427.5956619530916,5.0,1.0,phase_2,go,600.0,450.0,1.0,,,,,,,,,gray,square
0.0,3.0,3.0,0.0,6.0,6.0,347.658694954589,5.0,1.0,phase_2,go,600.0,450.0,1.0,,,,,,,,,gray,square
0.0,1.0,1.0,0.0,5.0,5.0,337.1722239535302,5.0,1.0,phase_2,go,600.0,450.0,1.0,,,,,,,,,yellow,triangle
0.0,5.0,1.0,1.0,6.0,6.0,326.5802590176463,5.0,1.0,phase_2,stop,600.0,450.0,3.0,,,,,,,,,cyan,cross
0.0,4.0,4.0,0.0,6.0,6.0,307.0283969864249,5.0,1.0,phase_2,go,600.0,400.0,1.0,,,,,,,,,orange,circle
0.0,4.0,4.0,0.0,5.0,5.0,388.3619240950793,5.0,1.0,phase_2,go,600.0,400.0,1.0,,,,,,,,,orange,circle
0.0,8.0,4.0,1.0,5.0,5.0,510.88417996652424,5.0,1.0,phase_2,stop,600.0,400.0,3.0,,,,,,,,,blue,diamond
0.0,8.0,4.0,1.0,5.0,5.0,588.1918820086867,5.0,1.0,phase_2,stop,550.0,400.0,3.0,,,,,,,,,blue,diamond
0.0,7.0,3.0,1.0,6.0,0.0,0.0,5.0,1.0,phase_2,stop,500.0,400.0,4.0,,,,,,,,,magenta,flipped triangle
0.0,2.0,2.0,0.0,5.0,5.0,344.0452730283141,5.0,1.0,phase_2,go,500.0,450.0,1.0,,,,,,,,,white,hexagon
0.0,4.0,4.0,0.0,6.0,6.0,537.0490639470518,5.0,1.0,phase_2,go,500.0,450.0,1.0,,,,,,,,,orange,circle
0.0,2.0,2.0,0.0,5.0,5.0,291.0975681152195,5.0,1.0,phase_2,go,500.0,450.0,1.0,,,,,,,,,white,hexagon
0.0,5.0,1.0,1.0,6.0,6.0,346.7405759729445,5.0,1.0,phase_2,stop,500.0,450.0,3.0,,,,,,,,,cyan,cross
0.0,5.0,1.0,1.0,5.0,5.0,537.3164869379252,5.0,1.0,phase_2,stop,500.0,400.0,3.0,,,,,,,,,cyan,cross
0.0,8.0,4.0,1.0,6.0,0.0,0.0,5.0,1.0,phase_2,stop,450.0,400.0,4.0,,,,,,,,,blue,diamond
0.0,2.0,2.0,0.0,5.0,5.0,539.903290104121,5.0,1.0,phase_2,go,450.0,450.0,1.0,,,,,,,,,white,hexagon
0.0,8.0,4.0,1.0,6.0,0.0,0.0,5.0,1.0,phase_2,stop,450.0,450.0,4.0,,,,,,,,,blue,diamond
0.0,6.0,2.0,1.0,5.0,5.0,632.8463079407811,5.0,1.0,phase_2,stop,450.0,500.0,3.0,,,,,,,,,green,I
0.0,8.0,4.0,1.0,5.0,0.0,0.0,5.0,1.0,phase_2,stop,400.0,500.0,4.0,,,,,,,,,blue,diamond
0.0,2.0,2.0,0.0,5.0,5.0,533.3776590414345,5.0,1.0,phase_2,go,450.0,500.0,1.0,,,,,,,,,white,hexagon
0.0,3.0,3.0,0.0,5.0,5.0,658.0756700132042,5.0,1.0,phase_2,go,450.0,500.0,1.0,,,,,,,,,gray,square
0.0,8.0,4.0,1.0,6.0,0.0,0.0,5.0,1.0,phase_2,stop,450.0,500.0,4.0,,,,,,,,,blue,diamond
0.0,3.0,3.0,0.0,5.0,5.0,611.977820051834,5.0,1.0,phase_2,go,450.0,550.0,1.0,,,,,,,,,gray,square
0.0,8.0,4.0,1.0,5.0,0.0,0.0,5.0,1.0,phase_2,stop,450.0,550.0,4.0,,,,,,,,,blue,diamond
0.0,6.0,2.0,1.0,6.0,0.0,0.0,5.0,1.0,phase_2,stop,500.0,550.0,4.0,,,,,,,,,green,I
0.0,1.0,1.0,0.0,5.0,5.0,582.5223168358207,5.0,1.0,phase_2,go,500.0,600.0,1.0,,,,,,,,,yellow,triangle
0.0,2.0,2.0,0.0,6.0,6.0,528.4306050743908,5.0,1.0,phase_2,go,500.0,600.0,1.0,,,,,,,,,white,hexagon
0.0,7.0,3.0,1.0,6.0,0.0,0.0,5.0,1.0,phase_2,stop,500.0,600.0,4.0,,,,,,,,,magenta,flipped triangle
0.0,7.0,3.0,1.0,5.0,0.0,0.0,5.0,1.0,phase_2,stop,500.0,650.0,4.0,,,,,,,,,magenta,flipped triangle
0.0,1.0,1.0,0.0,5.0,5.0,541.3883537985384,5.0,1.0,phase_2,go,550.0,650.0,1.0,,,,,,,,,yellow,triangle
0.0,2.0,2.0,0.0,5.0,5.0,509.4643118791282,5.0,1.0,phase_2,go,550.0,650.0,1.0,,,,,,,,,white,hexagon
0.0,4.0,4.0,0.0,5.0,5.0,631.128093926236,5.0,1.0,phase_2,go,550.0,650.0,1.0,,,,,,,,,orange,circle
0.0,1.0,1.0,0.0,6.0,6.0,487.6316590234637,5.0,1.0,phase_2,go,550.0,650.0,1.0,,,,,,,,,yellow,triangle
0.0,5.0,1.0,1.0,5.0,5.0,1344.4338829722255,5.0,1.0,phase_2,go,550.0,650.0,1.0,,,,,,,,,cyan,cross
0.0,7.0,3.0,1.0,5.0,5.0,1084.5022699795663,5.0,1.0,phase_2,go,550.0,650.0,1.0,,,,,,,,,magenta,flipped triangle
0.0,1.0,1.0,0.0,5.0,5.0,714.8766578175128,5.0,1.0,phase_2,go,550.0,650.0,1.0,,,,,,,,,yellow,triangle
0.0,2.0,2.0,0.0,6.0,6.0,709.7907818388194,6.0,1.0,phase_2,go,550.0,650.0,1.0,,,,,,,,,white,hexagon
0.0,7.0,3.0,1.0,6.0,0.0,0.0,6.0,1.0,phase_2,stop,550.0,650.0,4.0,,,,,,,,,magenta,flipped triangle
0.0,5.0,1.0,1.0,6.0,0.0,0.0,6.0,1.0,phase_2,stop,550.0,700.0,4.0,,,,,,,,,cyan,cross
0.0,7.0,3.0,1.0,5.0,0.0,0.0,6.0,1.0,phase_2,stop,550.0,750.0,4.0,,,,,,,,,magenta,flipped triangle
0.0,2.0,2.0,0.0,6.0,6.0,532.7741070650518,6.0,1.0,phase_2,go,600.0,750.0,1.0,,,,,,,,,white,hexagon
0.0,4.0,4.0,0.0,5.0,5.0,502.2126520052552,6.0,1.0,phase_2,go,600.0,750.0,1.0,,,,,,,,,orange,circle
0.0,8.0,4.0,1.0,5.0,5.0,1073.056961875409,6.0,1.0,phase_2,go,600.0,750.0,1.0,,,,,,,,,blue,diamond
0.0,2.0,2.0,0.0,6.0,6.0,525.0501490663737,6.0,1.0,phase_2,go,600.0,750.0,1.0,,,,,,,,,white,hexagon
0.0,6.0,2.0,1.0,6.0,6.0,716.9230780564249,6.0,1.0,phase_2,stop,600.0,750.0,3.0,,,,,,,,,green,I
0.0,1.0,1.0,0.0,6.0,6.0,660.3212091140449,6.0,1.0,phase_2,go,600.0,700.0,1.0,,,,,,,,,yellow,triangle
0.0,6.0,2.0,1.0,6.0,0.0,0.0,6.0,1.0,phase_2,stop,600.0,700.0,4.0,,,,,,,,,green,I
0.0,3.0,3.0,0.0,6.0,6.0,582.9872458707541,6.0,1.0,phase_2,go,600.0,750.0,1.0,,,,,,,,,gray,square
0.0,7.0,3.0,1.0,6.0,6.0,1382.915873778984,6.0,1.0,phase_2,go,600.0,750.0,1.0,,,,,,,,,magenta,flipped triangle
0.0,2.0,2.0,0.0,5.0,5.0,516.6784941684455,6.0,1.0,phase_2,go,600.0,750.0,1.0,,,,,,,,,white,hexagon
0.0,7.0,3.0,1.0,6.0,0.0,0.0,6.0,1.0,phase_2,stop,600.0,750.0,4.0,,,,,,,,,magenta,flipped triangle
0.0,4.0,4.0,0.0,5.0,5.0,519.215916050598,6.0,1.0,phase_2,go,600.0,800.0,1.0,,,,,,,,,orange,circle
0.0,7.0,3.0,1.0,6.0,0.0,0.0,6.0,1.0,phase_2,stop,600.0,800.0,4.0,,,,,,,,,magenta,flipped triangle
0.0,3.0,3.0,0.0,6.0,6.0,613.2709600497037,6.0,1.0,phase_2,go,600.0,850.0,1.0,,,,,,,,,gray,square
0.0,6.0,2.0,1.0,5.0,0.0,0.0,6.0,1.0,phase_2,stop,600.0,850.0,4.0,,,,,,,,,green,I
0.0,5.0,1.0,1.0,5.0,5.0,1309.4660060014576,6.0,1.0,phase_2,go,650.0,850.0,1.0,,,,,,,,,cyan,cross
0.0,7.0,3.0,1.0,5.0,0.0,0.0,6.0,1.0,phase_2,stop,650.0,850.0,4.0,,,,,,,,,magenta,flipped triangle
0.0,2.0,2.0,0.0,6.0,6.0,662.5615558587015,6.0,1.0,phase_2,go,700.0,850.0,1.0,,,,,,,,,white,hexagon
0.0,1.0,1.0,0.0,6.0,6.0,670.8780669141561,6.0,1.0,phase_2,go,700.0,850.0,1.0,,,,,,,,,yellow,triangle
0.0,8.0,4.0,1.0,6.0,0.0,0.0,6.0,1.0,phase_2,stop,700.0,850.0,4.0,,,,,,,,,blue,diamond
0.0,5.0,1.0,1.0,6.0,0.0,0.0,6.0,1.0,phase_2,stop,700.0,900.0,4.0,,,,,,,,,cyan,cross
0.0,4.0,4.0,0.0,5.0,5.0,553.0609039124101,6.0,1.0,phase_2,go,700.0,950.0,1.0,,,,,,,,,orange,circle
0.0,7.0,3.0,1.0,5.0,0.0,0.0,6.0,1.0,phase_2,stop,700.0,950.0,4.0,,,,,,,,,magenta,flipped triangle
0.0,8.0,4.0,1.0,5.0,0.0,0.0,6.0,1.0,phase_2,stop,750.0,950.0,4.0,,,,,,,,,blue,diamond
0.0,1.0,1.0,0.0,5.0,5.0,765.321483835578,6.0,1.0,phase_2,go,800.0,950.0,1.0,,,,,,,,,yellow,triangle
0.0,3.0,3.0,0.0,5.0,5.0,679.2082788888365,6.0,1.0,phase_2,go,800.0,950.0,1.0,,,,,,,,,gray,square
0.0,5.0,1.0,1.0,6.0,6.0,1274.308260064572,6.0,1.0,phase_2,go,800.0,950.0,1.0,,,,,,,,,cyan,cross
0.0,6.0,2.0,1.0,6.0,6.0,1005.9887329116464,6.0,1.0,phase_2,stop,800.0,950.0,3.0,,,,,,,,,green,I
0.0,6.0,2.0,1.0,6.0,0.0,0.0,6.0,1.0,phase_2,stop,800.0,900.0,4.0,,,,,,,,,green,I
0.0,2.0,2.0,0.0,5.0,5.0,558.2456151023507,6.0,1.0,phase_2,go,800.0,950.0,1.0,,,,,,,,,white,hexagon
0.0,2.0,2.0,0.0,6.0,6.0,525.3905279096216,6.0,1.0,phase_2,go,800.0,950.0,1.0,,,,,,,,,white,hexagon
0.0,6.0,2.0,1.0,5.0,0.0,0.0,6.0,1.0,phase_2,stop,800.0,950.0,4.0,,,,,,,,,green,I
0.0,4.0,4.0,0.0,5.0,5.0,451.5348859131336,7.0,1.0,phase_2,go,850.0,950.0,1.0,,,,,,,,,orange,circle
0.0,8.0,4.0,1.0,6.0,6.0,1310.2743751369417,7.0,1.0,phase_2,go,850.0,950.0,1.0,,,,,,,,,blue,diamond
0.0,5.0,1.0,1.0,6.0,6.0,824.5918529573828,7.0,1.0,phase_2,stop,850.0,950.0,3.0,,,,,,,,,cyan,cross
0.0,6.0,2.0,1.0,6.0,6.0,1039.4356278702617,7.0,1.0,phase_2,stop,850.0,900.0,3.0,,,,,,,,,green,I
0.0,3.0,3.0,0.0,5.0,5.0,533.8593791238964,7.0,1.0,phase_2,go,850.0,850.0,1.0,,,,,,,,,gray,square
0.0,7.0,3.0,1.0,6.0,6.0,613.5511270258576,7.0,1.0,phase_2,go,850.0,850.0,1.0,,,,,,,,,magenta,flipped triangle
0.0,4.0,4.0,0.0,6.0,6.0,534.6799499820918,7.0,1.0,phase_2,go,850.0,850.0,1.0,,,,,,,,,orange,circle
0.0,8.0,4.0,1.0,6.0,0.0,0.0,7.0,1.0,phase_2,stop,850.0,850.0,4.0,,,,,,,,,blue,diamond
0.0,3.0,3.0,0.0,6.0,6.0,504.5772499870509,7.0,1.0,phase_2,go,850.0,900.0,1.0,,,,,,,,,gray,square
0.0,8.0,4.0,1.0,5.0,5.0,1032.4364150874317,7.0,1.0,phase_2,stop,850.0,900.0,3.0,,,,,,,,,blue,diamond
0.0,8.0,4.0,1.0,6.0,0.0,0.0,7.0,1.0,phase_2,stop,800.0,900.0,4.0,,,,,,,,,blue,diamond
0.0,2.0,2.0,0.0,6.0,6.0,598.2444698456675,7.0,1.0,phase_2,go,800.0,950.0,1.0,,,,,,,,,white,hexagon
0.0,7.0,3.0,1.0,6.0,0.0,0.0,7.0,1.0,phase_2,stop,800.0,950.0,4.0,,,,,,,,,magenta,flipped triangle
0.0,7.0,3.0,1.0,6.0,0.0,0.0,7.0,1.0,phase_2,stop,800.0,1000.0,4.0,,,,,,,,,magenta,flipped triangle
0.0,4.0,4.0,0.0,5.0,5.0,552.6467598974705,7.0,1.0,phase_2,go,800.0,1050.0,1.0,,,,,,,,,orange,circle
0.0,5.0,1.0,1.0,6.0,0.0,0.0,7.0,1.0,phase_2,stop,800.0,1050.0,4.0,,,,,,,,,cyan,cross
0.0,3.0,3.0,0.0,5.0,5.0,692.6865270361304,7.0,1.0,phase_2,go,800.0,1100.0,1.0,,,,,,,,,gray,square
0.0,2.0,2.0,0.0,6.0,6.0,457.1868549101054,7.0,1.0,phase_2,go,800.0,1100.0,1.0,,,,,,,,,white,hexagon
0.0,1.0,1.0,0.0,5.0,5.0,693.8316761516035,7.0,1.0,phase_2,go,800.0,1100.0,1.0,,,,,,,,,yellow,triangle
0.0,3.0,3.0,0.0,6.0,6.0,545.6367929000407,7.0,1.0,phase_2,go,800.0,1100.0,1.0,,,,,,,,,gray,square
0.0,2.0,2.0,0.0,5.0,5.0,603.6133258603513,7.0,1.0,phase_2,go,800.0,1100.0,1.0,,,,,,,,,white,hexagon
0.0,5.0,1.0,1.0,6.0,0.0,0.0,7.0,1.0,phase_2,stop,800.0,1100.0,4.0,,,,,,,,,cyan,cross
0.0,8.0,4.0,1.0,6.0,0.0,0.0,7.0,1.0,phase_2,go,800.0,1150.0,5.0,,,,,,,,,blue,diamond
0.0,6.0,2.0,1.0,5.0,0.0,0.0,7.0,1.0,phase_2,stop,800.0,1150.0,4.0,,,,,,,,,green,I
0.0,5.0,1.0,1.0,6.0,6.0,1011.7296669632196,7.0,1.0,phase_2,stop,850.0,1150.0,3.0,,,,,,,,,cyan,cross
0.0,3.0,3.0,0.0,5.0,5.0,574.333239113912,7.0,1.0,phase_2,go,850.0,1100.0,1.0,,,,,,,,,gray,square
0.0,1.0,1.0,0.0,6.0,6.0,767.1784469857812,7.0,1.0,phase_2,go,850.0,1100.0,1.0,,,,,,,,,yellow,triangle
0.0,5.0,1.0,1.0,6.0,0.0,0.0,7.0,1.0,phase_2,stop,850.0,1100.0,4.0,,,,,,,,,cyan,cross
0.0,1.0,1.0,0.0,5.0,5.0,519.988294923678,7.0,1.0,phase_2,go,850.0,1150.0,1.0,,,,,,,,,yellow,triangle
0.0,3.0,3.0,0.0,5.0,5.0,498.5336079262197,7.0,1.0,phase_2,go,850.0,1150.0,1.0,,,,,,,,,gray,square
0.0,8.0,4.0,1.0,5.0,5.0,1252.066393150017,7.0,1.0,phase_2,go,850.0,1150.0,1.0,,,,,,,,,blue,diamond
0.0,2.0,2.0,0.0,5.0,5.0,635.7672319281846,7.0,1.0,phase_2,go,850.0,1150.0,1.0,,,,,,,,,white,hexagon
0.0,2.0,2.0,0.0,5.0,5.0,447.826829040423,7.0,1.0,phase_2,go,850.0,1150.0,1.0,,,,,,,,,white,hexagon
0.0,6.0,2.0,1.0,6.0,6.0,1111.7397719062865,7.0,1.0,phase_2,stop,850.0,1150.0,3.0,,,,,,,,,green,I
0.0,6.0,2.0,1.0,6.0,6.0,1278.1370820011944,7.0,1.0,phase_2,stop,850.0,1100.0,3.0,,,,,,,,,green,I
0.0,8.0,4.0,1.0,6.0,6.0,1076.0955750010908,7.0,1.0,phase_2,stop,850.0,1050.0,3.0,,,,,,,,,blue,diamond
0.0,1.0,1.0,0.0,5.0,5.0,687.5016039703041,8.0,1.0,phase_2,go,850.0,1000.0,1.0,,,,,,,,,yellow,triangle
0.0,1.0,1.0,0.0,5.0,5.0,612.6766779925674,8.0,1.0,phase_2,go,850.0,1000.0,1.0,,,,,,,,,yellow,triangle
0.0,5.0,1.0,1.0,5.0,0.0,0.0,8.0,1.0,phase_2,stop,850.0,1000.0,4.0,,,,,,,,,cyan,cross
0.0,2.0,2.0,0.0,6.0,6.0,589.8421218153089,8.0,1.0,phase_2,go,900.0,1000.0,1.0,,,,,,,,,white,hexagon
0.0,4.0,4.0,0.0,5.0,5.0,557.4839969631284,8.0,1.0,phase_2,go,900.0,1000.0,1.0,,,,,,,,,orange,circle
0.0,7.0,3.0,1.0,5.0,5.0,1355.2096581552178,8.0,1.0,phase_2,go,900.0,1000.0,1.0,,,,,,,,,magenta,flipped triangle
0.0,8.0,4.0,1.0,6.0,6.0,1101.028020028025,8.0,1.0,phase_2,stop,900.0,1000.0,3.0,,,,,,,,,blue,diamond
0.0,1.0,1.0,0.0,5.0,5.0,596.4238410815597,8.0,1.0,phase_2,go,900.0,950.0,1.0,,,,,,,,,yellow,triangle
0.0,1.0,1.0,0.0,5.0,5.0,491.7589637916535,8.0,1.0,phase_2,go,900.0,950.0,1.0,,,,,,,,,yellow,triangle
0.0,2.0,2.0,0.0,6.0,6.0,639.3720938358456,8.0,1.0,phase_2,go,900.0,950.0,1.0,,,,,,,,,white,hexagon
0.0,2.0,2.0,0.0,5.0,5.0,493.9455199055373,8.0,1.0,phase_2,go,900.0,950.0,1.0,,,,,,,,,white,hexagon
0.0,4.0,4.0,0.0,6.0,6.0,572.6628198754042,8.0,1.0,phase_2,go,900.0,950.0,1.0,,,,,,,,,orange,circle
0.0,6.0,2.0,1.0,5.0,5.0,934.4457588158548,8.0,1.0,phase_2,go,900.0,950.0,1.0,,,,,,,,,green,I
0.0,5.0,1.0,1.0,5.0,5.0,1016.1732761189342,8.0,1.0,phase_2,go,900.0,950.0,1.0,,,,,,,,,cyan,cross
0.0,8.0,4.0,1.0,6.0,6.0,530.2139860577881,8.0,1.0,phase_2,go,900.0,950.0,1.0,,,,,,,,,blue,diamond
0.0,1.0,1.0,0.0,6.0,6.0,475.0671908259392,8.0,1.0,phase_2,go,900.0,950.0,1.0,,,,,,,,,yellow,triangle
0.0,7.0,3.0,1.0,6.0,6.0,692.341759102419,8.0,1.0,phase_2,stop,900.0,950.0,3.0,,,,,,,,,magenta,flipped triangle
0.0,6.0,2.0,1.0,5.0,0.0,0.0,8.0,1.0,phase_2,stop,900.0,900.0,4.0,,,,,,,,,green,I
0.0,5.0,1.0,1.0,5.0,0.0,0.0,8.0,1.0,phase_2,stop,950.0,900.0,4.0,,,,,,,,,cyan,cross
0.0,1.0,1.0,0.0,5.0,5.0,649.4851899333298,8.0,1.0,phase_2,go,1000.0,900.0,1.0,,,,,,,,,yellow,triangle
0.0,8.0,4.0,1.0,6.0,0.0,0.0,8.0,1.0,phase_2,stop,1000.0,900.0,4.0,,,,,,,,,blue,diamond
0.0,4.0,4.0,0.0,6.0,6.0,673.3982819132507,8.0,1.0,phase_2,go,1000.0,950.0,1.0,,,,,,,,,orange,circle
0.0,4.0,4.0,0.0,5.0,5.0,732.0152199827135,8.0,1.0,phase_2,go,1000.0,950.0,1.0,,,,,,,,,orange,circle
0.0,6.0,2.0,1.0,6.0,6.0,1394.773201085627,8.0,1.0,phase_2,go,1000.0,950.0,1.0,,,,,,,,,green,I
0.0,6.0,2.0,1.0,6.0,0.0,0.0,8.0,1.0,phase_2,stop,1000.0,950.0,4.0,,,,,,,,,green,I
0.0,4.0,4.0,0.0,6.0,6.0,630.7315761223435,8.0,1.0,phase_2,go,1000.0,1000.0,1.0,,,,,,,,,orange,circle
0.0,4.0,4.0,0.0,6.0,6.0,498.3914461918175,8.0,1.0,phase_2,go,1000.0,1000.0,1.0,,,,,,,,,orange,circle
0.0,5.0,1.0,1.0,5.0,5.0,913.5197510477155,8.0,1.0,phase_2,stop,1000.0,1000.0,3.0,,,,,,,,,cyan,cross
0.0,2.0,2.0,0.0,5.0,5.0,636.0711799934506,8.0,1.0,phase_2,go,950.0,1000.0,1.0,,,,,,,,,white,hexagon
0.0,3.0,3.0,0.0,5.0,5.0,532.7813269104809,8.0,1.0,phase_2,go,950.0,1000.0,1.0,,,,,,,,,gray,square
0.0,4.0,4.0,0.0,5.0,5.0,569.8800410609692,8.0,1.0,phase_2,go,950.0,1000.0,1.0,,,,,,,,,orange,circle
0.0,5.0,1.0,1.0,5.0,0.0,0.0,8.0,1.0,phase_2,stop,950.0,1000.0,4.0,,,,,,,,,cyan,cross
0.0,1.0,1.0,0.0,5.0,5.0,659.2317158356309,8.0,1.0,phase_2,go,1000.0,1000.0,1.0,,,,,,,,,yellow,triangle
0.0,5.0,1.0,1.0,6.0,0.0,0.0,8.0,1.0,phase_2,stop,1000.0,1000.0,4.0,,,,,,,,,cyan,cross
0.0,6.0,2.0,1.0,6.0,0.0,0.0,8.0,1.0,phase_2,stop,1000.0,1050.0,4.0,,,,,,,,,green,I
0.0,3.0,3.0,0.0,6.0,6.0,582.0024420972914,8.0,1.0,phase_2,go,1000.0,1100.0,1.0,,,,,,,,,gray,square
0.0,8.0,4.0,1.0,7.0,3.0,0.27979910373679995,1.0,2.0,phase_3,,,,,195.0,5.0,78.0,156.0,195.0,39.0,234.0,117.0,blue,diamond
0.0,2.0,2.0,0.0,7.0,5.0,2160.310229053721,1.0,1.0,phase_3,,,,,54.0,1.0,162.0,324.0,270.0,108.0,54.0,216.0,white,hexagon
0.0,6.0,2.0,1.0,7.0,4.0,3622.394845122472,1.0,1.0,phase_3,,,,,147.0,3.0,294.0,49.0,196.0,147.0,98.0,245.0,green,I
0.0,1.0,1.0,0.0,7.0,2.0,2408.6180748417974,1.0,1.0,phase_3,,,,,176.0,4.0,44.0,176.0,88.0,220.0,264.0,132.0,yellow,triangle
0.0,5.0,1.0,1.0,7.0,5.0,1126.2189401313665,1.0,1.0,phase_3,,,,,68.0,2.0,170.0,34.0,136.0,102.0,68.0,204.0,cyan,cross
0.0,6.0,2.0,1.0,7.0,6.0,2367.641595890745,1.0,1.0,phase_3,,,,,78.0,2.0,195.0,234.0,156.0,117.0,39.0,78.0,green,I
0.0,6.0,2.0,1.0,7.0,3.0,1872.7534641511736,1.0,1.0,phase_3,,,,,88.0,2.0,132.0,176.0,88.0,220.0,264.0,44.0,green,I
0.0,7.0,3.0,1.0,7.0,4.0,1651.058403076604,1.0,1.0,phase_3,,,,,234.0,6.0,117.0,78.0,39.0,234.0,195.0,156.0,magenta,flipped triangle
0.0,4.0,4.0,0.0,7.0,1.0,2424.575282027945,1.0,1.0,phase_3,,,,,102.0,3.0,102.0,204.0,170.0,68.0,34.0,136.0,orange,circle
0.0,1.0,1.0,0.0,7.0,3.0,1394.6118459571153,1.0,1.0,phase_3,,,,,156.0,4.0,78.0,117.0,156.0,39.0,195.0,234.0,yellow,triangle
0.0,7.0,3.0,1.0,7.0,2.0,1755.701001966372,1.0,1.0,phase_3,,,,,44.0,1.0,132.0,44.0,264.0,220.0,176.0,88.0,magenta,flipped triangle
0.0,8.0,4.0,1.0,7.0,2.0,1416.678308043629,1.0,1.0,phase_3,,,,,44.0,1.0,132.0,44.0,88.0,264.0,176.0,220.0,blue,diamond
0.0,3.0,3.0,0.0,7.0,6.0,1326.7861478962004,1.0,1.0,phase_3,,,,,324.0,6.0,108.0,54.0,216.0,270.0,162.0,324.0,gray,square
0.0,5.0,1.0,1.0,7.0,3.0,1508.4982451517135,1.0,1.0,phase_3,,,,,98.0,2.0,245.0,294.0,98.0,49.0,196.0,147.0,cyan,cross
0.0,8.0,4.0,1.0,7.0,6.0,1261.7753900121895,1.0,1.0,phase_3,,,,,54.0,1.0,162.0,108.0,324.0,216.0,270.0,54.0,blue,diamond
0.0,7.0,3.0,1.0,7.0,3.0,2029.3407859280705,1.0,1.0,phase_3,,,,,98.0,2.0,294.0,147.0,98.0,245.0,196.0,49.0,magenta,flipped triangle
0.0,1.0,1.0,0.0,7.0,4.0,2210.599828977138,1.0,1.0,phase_3,,,,,170.0,5.0,68.0,136.0,102.0,170.0,204.0,34.0,yellow,triangle
0.0,2.0,2.0,0.0,7.0,1.0,2055.0914839841425,1.0,1.0,phase_3,,,,,234.0,6.0,234.0,117.0,195.0,156.0,78.0,39.0,white,hexagon
0.0,5.0,1.0,1.0,7.0,3.0,2459.234577836469,1.0,1.0,phase_3,,,,,108.0,2.0,324.0,216.0,108.0,162.0,54.0,270.0,cyan,cross
0.0,4.0,4.0,0.0,7.0,2.0,2102.6129689998925,1.0,1.0,phase_3,,,,,234.0,6.0,156.0,234.0,117.0,39.0,195.0,78.0,orange,circle
0.0,4.0,4.0,0.0,7.0,4.0,1437.2012270614505,2.0,1.0,phase_3,,,,,324.0,6.0,216.0,54.0,162.0,324.0,108.0,270.0,orange,circle
0.0,6.0,2.0,1.0,7.0,2.0,2451.838803011924,2.0,1.0,phase_3,,,,,98.0,2.0,49.0,98.0,294.0,196.0,147.0,245.0,green,I
0.0,4.0,4.0,0.0,7.0,5.0,2159.445766126737,2.0,1.0,phase_3,,,,,234.0,6.0,156.0,39.0,117.0,195.0,234.0,78.0,orange,circle
0.0,8.0,4.0,1.0,7.0,5.0,1646.2279327679423,2.0,1.0,phase_3,,,,,49.0,1.0,147.0,98.0,245.0,294.0,49.0,196.0,blue,diamond
0.0,6.0,2.0,1.0,7.0,4.0,2296.6917229350656,2.0,1.0,phase_3,,,,,88.0,2.0,44.0,132.0,176.0,88.0,220.0,264.0,green,I
0.0,1.0,1.0,0.0,7.0,4.0,2207.16364402324,2.0,1.0,phase_3,,,,,245.0,5.0,294.0,147.0,49.0,245.0,196.0,98.0,yellow,triangle
0.0,8.0,4.0,1.0,7.0,6.0,1896.0669632069769,2.0,1.0,phase_3,,,,,39.0,1.0,234.0,156.0,78.0,117.0,195.0,39.0,blue,diamond
0.0,2.0,2.0,0.0,7.0,5.0,1309.0177150443196,2.0,1.0,phase_3,,,,,264.0,6.0,44.0,176.0,132.0,220.0,264.0,88.0,white,hexagon
0.0,6.0,2.0,1.0,7.0,5.0,1243.425713852048,2.0,1.0,phase_3,,,,,54.0,1.0,270.0,108.0,162.0,216.0,54.0,324.0,green,I
0.0,6.0,2.0,1.0,7.0,3.0,1514.86186706461,2.0,1.0,phase_3,,,,,54.0,1.0,108.0,270.0,54.0,162.0,324.0,216.0,green,I
0.0,2.0,2.0,0.0,7.0,3.0,1833.6755859199911,2.0,1.0,phase_3,,,,,324.0,6.0,108.0,54.0,324.0,216.0,162.0,270.0,white,hexagon
0.0,7.0,3.0,1.0,7.0,4.0,2034.683730918914,2.0,1.0,phase_3,,,,,98.0,2.0,245.0,196.0,294.0,98.0,147.0,49.0,magenta,flipped triangle
0.0,5.0,1.0,1.0,7.0,5.0,2263.4255439043045,2.0,1.0,phase_3,,,,,117.0,3.0,78.0,156.0,195.0,234.0,117.0,39.0,cyan,cross
0.0,8.0,4.0,1.0,7.0,4.0,1373.6122120171783,2.0,1.0,phase_3,,,,,44.0,1.0,220.0,176.0,88.0,44.0,264.0,132.0,blue,diamond
0.0,4.0,4.0,0.0,7.0,2.0,1600.968605140224,2.0,1.0,phase_3,,,,,324.0,6.0,270.0,324.0,216.0,162.0,54.0,108.0,orange,circle
0.0,5.0,1.0,1.0,7.0,3.0,2748.149330029264,2.0,1.0,phase_3,,,,,147.0,3.0,196.0,98.0,147.0,49.0,294.0,245.0,cyan,cross
0.0,6.0,2.0,1.0,7.0,5.0,1813.7487010098996,2.0,1.0,phase_3,,,,,68.0,2.0,34.0,204.0,136.0,170.0,68.0,102.0,green,I
0.0,4.0,4.0,0.0,7.0,1.0,1829.145886003971,2.0,1.0,phase_3,,,,,204.0,6.0,204.0,34.0,68.0,170.0,102.0,136.0,orange,circle
0.0,1.0,1.0,0.0,7.0,2.0,2865.5571187846363,2.0,1.0,phase_3,,,,,245.0,5.0,49.0,245.0,98.0,147.0,196.0,294.0,yellow,triangle
0.0,4.0,4.0,0.0,7.0,2.0,1786.0200630966574,2.0,1.0,phase_3,,,,,264.0,6.0,88.0,264.0,132.0,220.0,44.0,176.0,orange,circle
0.0,4.0,4.0,0.0,7.0,5.0,1883.3660040982068,3.0,1.0,phase_3,,,,,294.0,6.0,196.0,49.0,98.0,245.0,294.0,147.0,orange,circle
0.0,3.0,3.0,0.0,7.0,4.0,1909.94112403132,3.0,1.0,phase_3,,,,,264.0,6.0,176.0,44.0,88.0,264.0,132.0,220.0,gray,square
0.0,2.0,2.0,0.0,7.0,2.0,1686.3844620529562,3.0,1.0,phase_3,,,,,294.0,6.0,98.0,294.0,196.0,147.0,245.0,49.0,white,hexagon
0.0,7.0,3.0,1.0,7.0,4.0,1619.9441379867494,3.0,1.0,phase_3,,,,,68.0,2.0,204.0,170.0,34.0,68.0,102.0,136.0,magenta,flipped triangle
0.0,1.0,1.0,0.0,7.0,5.0,1820.8863569889215,3.0,1.0,phase_3,,,,,216.0,4.0,162.0,270.0,54.0,108.0,216.0,324.0,yellow,triangle
0.0,7.0,3.0,1.0,7.0,6.0,1575.3022159915415,3.0,1.0,phase_3,,,,,68.0,2.0,34.0,170.0,136.0,204.0,102.0,68.0,magenta,flipped triangle
0.0,3.0,3.0,0.0,7.0,4.0,2857.775876065716,3.0,1.0,phase_3,,,,,170.0,5.0,102.0,34.0,68.0,170.0,136.0,204.0,gray,square
0.0,3.0,3.0,0.0,7.0,3.0,1444.3366420455277,3.0,1.0,phase_3,,,,,170.0,5.0,204.0,136.0,170.0,68.0,102.0,34.0,gray,square
0.0,5.0,1.0,1.0,7.0,5.0,1601.3427518773824,3.0,1.0,phase_3,,,,,220.0,5.0,176.0,264.0,132.0,88.0,220.0,44.0,cyan,cross
0.0,1.0,1.0,0.0,7.0,5.0,2570.863211993128,3.0,1.0,phase_3,,,,,162.0,3.0,270.0,108.0,54.0,324.0,162.0,216.0,yellow,triangle
0.0,5.0,1.0,1.0,7.0,6.0,1277.0111979916692,3.0,1.0,phase_3,,,,,88.0,2.0,176.0,132.0,44.0,264.0,220.0,88.0,cyan,cross
0.0,5.0,1.0,1.0,7.0,5.0,1595.978043042123,3.0,1.0,phase_3,,,,,68.0,2.0,136.0,170.0,34.0,204.0,68.0,102.0,cyan,cross
0.0,8.0,4.0,1.0,7.0,6.0,943.0951620452106,3.0,1.0,phase_3,,,,,34.0,1.0,136.0,68.0,204.0,102.0,170.0,34.0,blue,diamond
0.0,2.0,2.0,0.0,7.0,6.0,2393.051692051813,3.0,1.0,phase_3,,,,,204.0,6.0,136.0,170.0,102.0,34.0,68.0,204.0,white,hexagon
0.0,1.0,1.0,0.0,7.0,5.0,1876.4738659374416,3.0,1.0,phase_3,,,,,156.0,4.0,78.0,234.0,117.0,39.0,156.0,195.0,yellow,triangle
0.0,8.0,4.0,1.0,7.0,3.0,1134.838290978223,3.0,1.0,phase_3,,,,,34.0,1.0,68.0,170.0,34.0,102.0,136.0,204.0,blue,diamond
0.0,1.0,1.0,0.0,7.0,1.0,2488.731981953606,3.0,1.0,phase_3,,,,,176.0,4.0,176.0,44.0,132.0,220.0,88.0,264.0,yellow,triangle
0.0,3.0,3.0,0.0,7.0,3.0,2172.7972321677958,3.0,1.0,phase_3,,,,,324.0,6.0,270.0,162.0,324.0,108.0,54.0,216.0,gray,square
0.0,2.0,2.0,0.0,7.0,3.0,1319.495707983151,3.0,1.0,phase_3,,,,,294.0,6.0,98.0,49.0,294.0,147.0,245.0,196.0,white,hexagon
0.0,8.0,4.0,1.0,7.0,2.0,1346.062019933015,3.0,1.0,phase_3,,,,,98.0,2.0,196.0,98.0,49.0,245.0,147.0,294.0,blue,diamond
0.0,4.0,4.0,0.0,7.0,1.0,1256.864752154797,4.0,1.0,phase_3,,,,,294.0,6.0,294.0,147.0,245.0,98.0,49.0,196.0,orange,circle
0.0,7.0,3.0,1.0,7.0,6.0,1717.4485980067402,4.0,1.0,phase_3,,,,,78.0,2.0,39.0,195.0,117.0,156.0,234.0,78.0,magenta,flipped triangle
0.0,2.0,2.0,0.0,7.0,3.0,1876.7443378455937,4.0,1.0,phase_3,,,,,234.0,6.0,78.0,117.0,234.0,39.0,195.0,156.0,white,hexagon
0.0,8.0,4.0,1.0,7.0,5.0,1088.9744060114026,4.0,1.0,phase_3,,,,,216.0,4.0,162.0,108.0,324.0,54.0,216.0,270.0,blue,diamond
0.0,3.0,3.0,0.0,7.0,3.0,1630.592262139544,4.0,1.0,phase_3,,,,,294.0,6.0,49.0,98.0,294.0,196.0,245.0,147.0,gray,square
0.0,5.0,1.0,1.0,7.0,1.0,1765.7907279208302,4.0,1.0,phase_3,,,,,78.0,2.0,78.0,39.0,117.0,195.0,156.0,234.0,cyan,cross
0.0,5.0,1.0,1.0,7.0,6.0,1072.514456929639,4.0,1.0,phase_3,,,,,54.0,1.0,216.0,324.0,162.0,270.0,108.0,54.0,cyan,cross
0.0,7.0,3.0,1.0,7.0,1.0,1995.975991943851,4.0,1.0,phase_3,,,,,108.0,2.0,108.0,270.0,162.0,216.0,324.0,54.0,magenta,flipped triangle
0.0,7.0,3.0,1.0,7.0,3.0,2038.507467834279,4.0,1.0,phase_3,,,,,88.0,2.0,220.0,44.0,88.0,132.0,264.0,176.0,magenta,flipped triangle
0.0,6.0,2.0,1.0,7.0,4.0,1838.728467002511,4.0,1.0,phase_3,,,,,68.0,2.0,170.0,136.0,204.0,68.0,34.0,102.0,green,I
0.0,3.0,3.0,0.0,7.0,2.0,1929.47540897876,4.0,1.0,phase_3,,,,,245.0,5.0,147.0,245.0,294.0,49.0,98.0,196.0,gray,square
0.0,4.0,4.0,0.0,7.0,6.0,1752.124065067619,4.0,1.0,phase_3,,,,,264.0,6.0,132.0,88.0,176.0,220.0,44.0,264.0,orange,circle
0.0,2.0,2.0,0.0,7.0,1.0,1820.5178971402347,4.0,1.0,phase_3,,,,,204.0,6.0,204.0,102.0,34.0,170.0,68.0,136.0,white,hexagon
0.0,2.0,2.0,0.0,7.0,4.0,2113.509749993682,4.0,1.0,phase_3,,,,,264.0,6.0,88.0,220.0,44.0,264.0,132.0,176.0,white,hexagon
0.0,7.0,3.0,1.0,7.0,1.0,1933.976541971788,4.0,1.0,phase_3,,,,,108.0,2.0,108.0,54.0,270.0,216.0,162.0,324.0,magenta,flipped triangle
0.0,3.0,3.0,0.0,7.0,6.0,2352.8484171256423,4.0,1.0,phase_3,,,,,220.0,5.0,132.0,44.0,264.0,88.0,176.0,220.0,gray,square
0.0,6.0,2.0,1.0,7.0,3.0,1724.2662969511002,4.0,1.0,phase_3,,,,,78.0,2.0,117.0,234.0,78.0,39.0,156.0,195.0,green,I
0.0,3.0,3.0,0.0,7.0,5.0,2107.7745370566845,4.0,1.0,phase_3,,,,,195.0,5.0,117.0,78.0,156.0,234.0,195.0,39.0,gray,square
0.0,1.0,1.0,0.0,7.0,2.0,1590.0970150250942,4.0,1.0,phase_3,,,,,170.0,5.0,102.0,170.0,136.0,204.0,34.0,68.0,yellow,triangle
0.0,3.0,3.0,0.0,7.0,6.0,2422.7682519704103,4.0,1.0,phase_3,,,,,195.0,5.0,117.0,78.0,234.0,156.0,39.0,195.0,gray,square
