raw_reward_magnitude,stim_reward,stepwise_reward_magnitude,paired_with_stopping,stim_location,response,reaction_time,block,num_trial_presentations,which_phase,stop_signal_trial_type,left_SSD,right_SSD,accuracy,chosen_bidding_amount,chosen_bidding_level,possible_bid_1,possible_bid_2,possible_bid_3,possible_bid_4,possible_bid_5,possible_bid_6,color_text,shape_text
0.0,8.0,0.0,1.0,3.0,3.0,315.4070808086544,1.0,1.0,phase_1,,,,,,,,,,,,,yellow,circle
122.0,6.0,1.0,1.0,4.0,4.0,284.6509208902716,1.0,1.0,phase_1,,,,,,,,,,,,,magenta,cross
123.0,6.0,1.0,1.0,2.0,2.0,250.6359310355037,1.0,1.0,phase_1,,,,,,,,,,,,,magenta,cross
424.0,4.0,4.0,0.0,4.0,4.0,330.0712900236249,1.0,1.0,phase_1,,,,,,,,,,,,,cyan,diamond
209.0,7.0,2.0,1.0,4.0,4.0,316.7270680423826,1.0,1.0,phase_1,,,,,,,,,,,,,green,triangle
216.0,3.0,2.0,0.0,2.0,2.0,320.7608892116695,1.0,1.0,phase_1,,,,,,,,,,,,,orange,flipped triangle
34.0,5.0,0.5,1.0,4.0,4.0,264.8776387795806,1.0,1.0,phase_1,,,,,,,,,,,,,white,square
102.0,6.0,1.0,1.0,1.0,1.0,296.3757279794663,1.0,1.0,phase_1,,,,,,,,,,,,,magenta,cross
177.0,7.0,2.0,1.0,2.0,2.0,356.4707948826253,1.0,1.0,phase_1,,,,,,,,,,,,,green,triangle
417.0,8.0,4.0,1.0,2.0,2.0,308.8853240478784,1.0,1.0,phase_1,,,,,,,,,,,,,yellow,circle
176.0,7.0,2.0,1.0,2.0,2.0,278.0463320668787,1.0,1.0,phase_1,,,,,,,,,,,,,green,triangle
81.0,2.0,1.0,0.0,4.0,4.0,311.366147827357,1.0,1.0,phase_1,,,,,,,,,,,,,gray,hexagon
101.0,2.0,1.0,0.0,1.0,1.0,389.6438139490783,1.0,1.0,phase_1,,,,,,,,,,,,,gray,hexagon
0.0,7.0,0.0,1.0,1.0,1.0,314.0672601293772,1.0,1.0,phase_1,,,,,,,,,,,,,green,triangle
0.0,3.0,0.0,0.0,1.0,1.0,367.3870528582483,1.0,1.0,phase_1,,,,,,,,,,,,,orange,flipped triangle
31.0,5.0,0.5,1.0,1.0,1.0,289.0502160880714,1.0,1.0,phase_1,,,,,,,,,,,,,white,square
68.0,5.0,0.5,1.0,2.0,2.0,281.1567462049424,1.0,1.0,phase_1,,,,,,,,,,,,,white,square
101.0,6.0,1.0,1.0,3.0,3.0,295.3789019957185,1.0,1.0,phase_1,,,,,,,,,,,,,magenta,cross
44.0,1.0,0.5,0.0,3.0,3.0,407.0096658542752,1.0,2.0,phase_1,,,,,,,,,,,,,blue,I
0.0,5.0,0.0,1.0,3.0,3.0,306.0199660249054,1.0,1.0,phase_1,,,,,,,,,,,,,white,square
0.0,4.0,0.0,0.0,2.0,2.0,318.5609059873968,1.0,1.0,phase_1,,,,,,,,,,,,,cyan,diamond
49.0,1.0,0.5,0.0,3.0,3.0,304.3979459907859,1.0,1.0,phase_1,,,,,,,,,,,,,blue,I
184.0,7.0,2.0,1.0,3.0,3.0,296.0257011000067,1.0,1.0,phase_1,,,,,,,,,,,,,green,triangle
414.0,8.0,4.0,1.0,4.0,4.0,308.6813820991665,1.0,1.0,phase_1,,,,,,,,,,,,,yellow,circle
71.0,5.0,0.5,1.0,1.0,1.0,317.0638640876859,1.0,1.0,phase_1,,,,,,,,,,,,,white,square
104.0,6.0,1.0,1.0,2.0,2.0,465.1795420795679,1.0,1.0,phase_1,,,,,,,,,,,,,magenta,cross
219.0,3.0,2.0,0.0,3.0,3.0,321.3859400711953,1.0,1.0,phase_1,,,,,,,,,,,,,orange,flipped triangle
410.0,8.0,4.0,1.0,2.0,2.0,307.7224430162459,1.0,1.0,phase_1,,,,,,,,,,,,,yellow,circle
410.0,4.0,4.0,0.0,3.0,3.0,274.6770128142088,1.0,1.0,phase_1,,,,,,,,,,,,,cyan,diamond
0.0,5.0,0.0,1.0,2.0,2.0,263.4728699922561,1.0,1.0,phase_1,,,,,,,,,,,,,white,square
82.0,6.0,1.0,1.0,3.0,3.0,324.0459540393203,1.0,1.0,phase_1,,,,,,,,,,,,,magenta,cross
208.0,3.0,2.0,0.0,4.0,4.0,348.4760720748454,1.0,2.0,phase_1,,,,,,,,,,,,,orange,flipped triangle
76.0,2.0,1.0,0.0,2.0,2.0,382.1484858635813,1.0,1.0,phase_1,,,,,,,,,,,,,gray,hexagon
35.0,5.0,0.5,1.0,4.0,4.0,277.6844790205359,1.0,1.0,phase_1,,,,,,,,,,,,,white,square
0.0,6.0,0.0,1.0,3.0,3.0,334.5348620787263,1.0,1.0,phase_1,,,,,,,,,,,,,magenta,cross
121.0,6.0,1.0,1.0,3.0,3.0,349.43573782220477,1.0,1.0,phase_1,,,,,,,,,,,,,magenta,cross
225.0,3.0,2.0,0.0,1.0,1.0,293.0924401152879,1.0,1.0,phase_1,,,,,,,,,,,,,orange,flipped triangle
0.0,6.0,0.0,1.0,3.0,3.0,324.7092529200017,1.0,1.0,phase_1,,,,,,,,,,,,,magenta,cross
209.0,7.0,2.0,1.0,3.0,3.0,315.4758489690721,1.0,1.0,phase_1,,,,,,,,,,,,,green,triangle
42.0,1.0,0.5,0.0,4.0,4.0,303.6986300721764,1.0,1.0,phase_1,,,,,,,,,,,,,blue,I
48.0,1.0,0.5,0.0,4.0,4.0,328.7356940563768,1.0,1.0,phase_1,,,,,,,,,,,,,blue,I
0.0,2.0,0.0,0.0,2.0,2.0,293.3049739804119,1.0,1.0,phase_1,,,,,,,,,,,,,gray,hexagon
225.0,7.0,2.0,1.0,4.0,4.0,328.7451658397913,1.0,1.0,phase_1,,,,,,,,,,,,,green,triangle
49.0,5.0,0.5,1.0,3.0,3.0,309.5209151506424,1.0,1.0,phase_1,,,,,,,,,,,,,white,square
0.0,1.0,0.0,0.0,4.0,4.0,297.4285059608519,1.0,1.0,phase_1,,,,,,,,,,,,,blue,I
0.0,5.0,0.0,1.0,3.0,3.0,309.7685668617487,1.0,1.0,phase_1,,,,,,,,,,,,,white,square
125.0,6.0,1.0,1.0,2.0,2.0,277.1075118798762,1.0,1.0,phase_1,,,,,,,,,,,,,magenta,cross
0.0,4.0,0.0,0.0,1.0,1.0,309.1058109421283,1.0,1.0,phase_1,,,,,,,,,,,,,cyan,diamond
0.0,1.0,0.0,0.0,4.0,4.0,322.8418719954788,1.0,1.0,phase_1,,,,,,,,,,,,,blue,I
398.0,4.0,4.0,0.0,3.0,3.0,312.8718568477779,1.0,1.0,phase_1,,,,,,,,,,,,,cyan,diamond
70.0,5.0,0.5,1.0,3.0,3.0,287.981750909239,1.0,1.0,phase_1,,,,,,,,,,,,,white,square
101.0,6.0,1.0,1.0,3.0,3.0,346.2578789331019,1.0,1.0,phase_1,,,,,,,,,,,,,magenta,cross
0.0,5.0,0.0,1.0,1.0,1.0,325.9298549965024,1.0,1.0,phase_1,,,,,,,,,,,,,white,square
222.0,3.0,2.0,0.0,1.0,1.0,336.2249138299376,1.0,1.0,phase_1,,,,,,,,,,,,,orange,flipped triangle
33.0,1.0,0.5,0.0,3.0,3.0,371.0137330926955,1.0,1.0,phase_1,,,,,,,,,,,,,blue,I
409.0,8.0,4.0,1.0,3.0,3.0,336.4774810615927,1.0,1.0,phase_1,,,,,,,,,,,,,yellow,circle
193.0,3.0,2.0,0.0,4.0,4.0,304.268707986921,1.0,1.0,phase_1,,,,,,,,,,,,,orange,flipped triangle
424.0,8.0,4.0,1.0,1.0,1.0,338.7323550414294,1.0,1.0,phase_1,,,,,,,,,,,,,yellow,circle
219.0,7.0,2.0,1.0,1.0,1.0,305.2332981023937,1.0,1.0,phase_1,,,,,,,,,,,,,green,triangle
182.0,7.0,2.0,1.0,4.0,4.0,427.6427871081978,1.0,1.0,phase_1,,,,,,,,,,,,,green,triangle
97.0,2.0,1.0,0.0,4.0,4.0,306.99582118541,1.0,1.0,phase_1,,,,,,,,,,,,,gray,hexagon
386.0,8.0,4.0,1.0,3.0,3.0,318.1999099906534,1.0,1.0,phase_1,,,,,,,,,,,,,yellow,circle
392.0,8.0,4.0,1.0,4.0,4.0,308.5898631252348,1.0,1.0,phase_1,,,,,,,,,,,,,yellow,circle
0.0,6.0,0.0,1.0,3.0,3.0,321.0772098973393,1.0,1.0,phase_1,,,,,,,,,,,,,magenta,cross
0.0,5.0,0.0,1.0,2.0,2.0,342.1445949934423,1.0,1.0,phase_1,,,,,,,,,,,,,white,square
405.0,8.0,4.0,1.0,1.0,1.0,353.9349229540676,1.0,1.0,phase_1,,,,,,,,,,,,,yellow,circle
196.0,3.0,2.0,0.0,2.0,2.0,343.9636819530278,1.0,1.0,phase_1,,,,,,,,,,,,,orange,flipped triangle
0.0,4.0,0.0,0.0,4.0,4.0,309.065073961392,1.0,1.0,phase_1,,,,,,,,,,,,,cyan,diamond
0.0,4.0,0.0,0.0,2.0,2.0,322.0348670147359,1.0,1.0,phase_1,,,,,,,,,,,,,cyan,diamond
110.0,6.0,1.0,1.0,1.0,1.0,312.9010070115328,1.0,1.0,phase_1,,,,,,,,,,,,,magenta,cross
181.0,3.0,2.0,0.0,4.0,4.0,321.099828928709,1.0,1.0,phase_1,,,,,,,,,,,,,orange,flipped triangle
377.0,8.0,4.0,1.0,1.0,1.0,310.1580140646547,1.0,1.0,phase_1,,,,,,,,,,,,,yellow,circle
0.0,4.0,0.0,0.0,1.0,1.0,313.7659567873925,1.0,1.0,phase_1,,,,,,,,,,,,,cyan,diamond
64.0,5.0,0.5,1.0,4.0,4.0,390.159741975367,1.0,1.0,phase_1,,,,,,,,,,,,,white,square
117.0,2.0,1.0,0.0,4.0,4.0,338.2546890061348,1.0,1.0,phase_1,,,,,,,,,,,,,gray,hexagon
391.0,4.0,4.0,0.0,3.0,3.0,325.6575101986527,1.0,1.0,phase_1,,,,,,,,,,,,,cyan,diamond
29.0,1.0,0.5,0.0,1.0,1.0,337.8304289653897,1.0,1.0,phase_1,,,,,,,,,,,,,blue,I
0.0,8.0,0.0,1.0,1.0,1.0,279.4855809770524,1.0,1.0,phase_1,,,,,,,,,,,,,yellow,circle
211.0,3.0,2.0,0.0,2.0,2.0,294.3205928895622,1.0,1.0,phase_1,,,,,,,,,,,,,orange,flipped triangle
67.0,5.0,0.5,1.0,4.0,4.0,258.6172800511122,1.0,1.0,phase_1,,,,,,,,,,,,,white,square
388.0,4.0,4.0,0.0,1.0,1.0,281.7960439715534,1.0,1.0,phase_1,,,,,,,,,,,,,cyan,diamond
197.0,7.0,2.0,1.0,1.0,1.0,317.8894910961389,1.0,1.0,phase_1,,,,,,,,,,,,,green,triangle
67.0,1.0,0.5,0.0,2.0,2.0,375.6911328528076,1.0,1.0,phase_1,,,,,,,,,,,,,blue,I
122.0,2.0,1.0,0.0,1.0,1.0,294.5626960135996,1.0,1.0,phase_1,,,,,,,,,,,,,gray,hexagon
0.0,6.0,0.0,1.0,2.0,2.0,350.6044000387192,1.0,1.0,phase_1,,,,,,,,,,,,,magenta,cross
32.0,1.0,0.5,0.0,2.0,2.0,318.6486770864576,1.0,1.0,phase_1,,,,,,,,,,,,,blue,I
0.0,2.0,0.0,0.0,4.0,4.0,341.8475470971316,1.0,1.0,phase_1,,,,,,,,,,,,,gray,hexagon
25.0,5.0,0.5,1.0,1.0,1.0,334.0832509566098,1.0,1.0,phase_1,,,,,,,,,,,,,white,square
399.0,8.0,4.0,1.0,3.0,3.0,299.9477870762348,1.0,1.0,phase_1,,,,,,,,,,,,,yellow,circle
64.0,5.0,0.5,1.0,3.0,3.0,345.1223401352763,1.0,1.0,phase_1,,,,,,,,,,,,,white,square
0.0,3.0,0.0,0.0,2.0,2.0,379.5663430355489,1.0,1.0,phase_1,,,,,,,,,,,,,orange,flipped triangle
405.0,8.0,4.0,1.0,4.0,4.0,299.571132985875,1.0,1.0,phase_1,,,,,,,,,,,,,yellow,circle
395.0,4.0,4.0,0.0,1.0,1.0,287.9532671067863,1.0,1.0,phase_1,,,,,,,,,,,,,cyan,diamond
0.0,1.0,0.0,0.0,3.0,3.0,325.4436841234565,1.0,1.0,phase_1,,,,,,,,,,,,,blue,I
107.0,6.0,1.0,1.0,4.0,4.0,312.1099851559847,1.0,1.0,phase_1,,,,,,,,,,,,,magenta,cross
198.0,3.0,2.0,0.0,2.0,2.0,278.4156911075115,1.0,1.0,phase_1,,,,,,,,,,,,,orange,flipped triangle
0.0,5.0,0.0,1.0,2.0,2.0,314.2712260596454,1.0,1.0,phase_1,,,,,,,,,,,,,white,square
114.0,6.0,1.0,1.0,4.0,4.0,302.9171719681471,1.0,1.0,phase_1,,,,,,,,,,,,,magenta,cross
397.0,4.0,4.0,0.0,1.0,1.0,293.5260450467467,1.0,1.0,phase_1,,,,,,,,,,,,,cyan,diamond
184.0,3.0,2.0,0.0,1.0,1.0,303.2519498374313,1.0,1.0,phase_1,,,,,,,,,,,,,orange,flipped triangle
107.0,2.0,1.0,0.0,1.0,1.0,273.1973929330706,2.0,1.0,phase_1,,,,,,,,,,,,,gray,hexagon
0.0,8.0,0.0,1.0,4.0,4.0,298.008281039074,2.0,2.0,phase_1,,,,,,,,,,,,,yellow,circle
410.0,4.0,4.0,0.0,2.0,2.0,298.0552869848907,2.0,1.0,phase_1,,,,,,,,,,,,,cyan,diamond
387.0,8.0,4.0,1.0,1.0,1.0,278.7301719654351,2.0,1.0,phase_1,,,,,,,,,,,,,yellow,circle
89.0,2.0,1.0,0.0,1.0,1.0,309.1523451730609,2.0,1.0,phase_1,,,,,,,,,,,,,gray,hexagon
403.0,8.0,4.0,1.0,4.0,4.0,323.8993100821972,2.0,1.0,phase_1,,,,,,,,,,,,,yellow,circle
212.0,7.0,2.0,1.0,1.0,1.0,287.5643749721348,2.0,1.0,phase_1,,,,,,,,,,,,,green,triangle
425.0,4.0,4.0,0.0,2.0,2.0,325.6465108133852,2.0,1.0,phase_1,,,,,,,,,,,,,cyan,diamond
125.0,6.0,1.0,1.0,1.0,1.0,312.7934939693659,2.0,1.0,phase_1,,,,,,,,,,,,,magenta,cross
399.0,4.0,4.0,0.0,4.0,4.0,349.7584781143814,2.0,1.0,phase_1,,,,,,,,,,,,,cyan,diamond
214.0,7.0,2.0,1.0,1.0,1.0,312.9454860463738,2.0,1.0,phase_1,,,,,,,,,,,,,green,triangle
423.0,8.0,4.0,1.0,4.0,4.0,327.0415370352566,2.0,1.0,phase_1,,,,,,,,,,,,,yellow,circle
218.0,3.0,2.0,0.0,1.0,1.0,268.5385530348867,2.0,1.0,phase_1,,,,,,,,,,,,,orange,flipped triangle
31.0,5.0,0.5,1.0,2.0,2.0,305.2849920932203,2.0,1.0,phase_1,,,,,,,,,,,,,white,square
0.0,4.0,0.0,0.0,4.0,4.0,337.5332818832248,2.0,1.0,phase_1,,,,,,,,,,,,,cyan,diamond
38.0,5.0,0.5,1.0,3.0,3.0,304.8852619249373,2.0,1.0,phase_1,,,,,,,,,,,,,white,square
88.0,2.0,1.0,0.0,2.0,2.0,319.6500539779663,2.0,1.0,phase_1,,,,,,,,,,,,,gray,hexagon
185.0,3.0,2.0,0.0,1.0,1.0,285.2723759133369,2.0,1.0,phase_1,,,,,,,,,,,,,orange,flipped triangle
122.0,6.0,1.0,1.0,2.0,2.0,251.8488068599254,2.0,1.0,phase_1,,,,,,,,,,,,,magenta,cross
222.0,7.0,2.0,1.0,3.0,3.0,329.5643669553101,2.0,1.0,phase_1,,,,,,,,,,,,,green,triangle
110.0,2.0,1.0,0.0,3.0,3.0,363.3169080130756,2.0,1.0,phase_1,,,,,,,,,,,,,gray,hexagon
0.0,5.0,0.0,1.0,4.0,4.0,310.7251599431038,2.0,1.0,phase_1,,,,,,,,,,,,,white,square
97.0,6.0,1.0,1.0,1.0,1.0,333.7245099246502,2.0,1.0,phase_1,,,,,,,,,,,,,magenta,cross
76.0,2.0,1.0,0.0,4.0,4.0,297.0430061686784,2.0,1.0,phase_1,,,,,,,,,,,,,gray,hexagon
42.0,1.0,0.5,0.0,2.0,2.0,264.5906340330839,2.0,1.0,phase_1,,,,,,,,,,,,,blue,I
51.0,1.0,0.5,0.0,4.0,4.0,278.9641350973397,2.0,1.0,phase_1,,,,,,,,,,,,,blue,I
0.0,6.0,0.0,1.0,4.0,4.0,311.1767219379544,2.0,1.0,phase_1,,,,,,,,,,,,,magenta,cross
27.0,1.0,0.5,0.0,4.0,4.0,325.6231360137462,2.0,1.0,phase_1,,,,,,,,,,,,,blue,I
212.0,3.0,2.0,0.0,3.0,3.0,311.4840330090374,2.0,1.0,phase_1,,,,,,,,,,,,,orange,flipped triangle
0.0,3.0,0.0,0.0,4.0,4.0,304.8872370272875,2.0,1.0,phase_1,,,,,,,,,,,,,orange,flipped triangle
0.0,6.0,0.0,1.0,1.0,1.0,293.1573160458356,2.0,1.0,phase_1,,,,,,,,,,,,,magenta,cross
0.0,2.0,0.0,0.0,3.0,3.0,326.1196590028703,2.0,1.0,phase_1,,,,,,,,,,,,,gray,hexagon
101.0,2.0,1.0,0.0,4.0,4.0,360.8022280968725,2.0,2.0,phase_1,,,,,,,,,,,,,gray,hexagon
195.0,3.0,2.0,0.0,2.0,2.0,373.5759181436151,2.0,1.0,phase_1,,,,,,,,,,,,,orange,flipped triangle
378.0,4.0,4.0,0.0,4.0,4.0,293.517641024664,2.0,1.0,phase_1,,,,,,,,,,,,,cyan,diamond
0.0,1.0,0.0,0.0,3.0,3.0,284.2495630029589,2.0,1.0,phase_1,,,,,,,,,,,,,blue,I
411.0,8.0,4.0,1.0,2.0,2.0,271.2653861381113,2.0,1.0,phase_1,,,,,,,,,,,,,yellow,circle
123.0,2.0,1.0,0.0,1.0,1.0,284.5512249041348,2.0,1.0,phase_1,,,,,,,,,,,,,gray,hexagon
70.0,1.0,0.5,0.0,3.0,3.0,295.1682440470904,2.0,1.0,phase_1,,,,,,,,,,,,,blue,I
0.0,4.0,0.0,0.0,1.0,1.0,284.6279200166464,2.0,1.0,phase_1,,,,,,,,,,,,,cyan,diamond
0.0,3.0,0.0,0.0,1.0,1.0,400.7264839019626,2.0,1.0,phase_1,,,,,,,,,,,,,orange,flipped triangle
97.0,2.0,1.0,0.0,2.0,2.0,300.3000000026077,2.0,1.0,phase_1,,,,,,,,,,,,,gray,hexagon
56.0,5.0,0.5,1.0,1.0,1.0,288.0517239682376,2.0,1.0,phase_1,,,,,,,,,,,,,white,square
383.0,4.0,4.0,0.0,3.0,3.0,312.0315871201455,2.0,1.0,phase_1,,,,,,,,,,,,,cyan,diamond
63.0,1.0,0.5,0.0,2.0,2.0,301.0957799851894,2.0,1.0,phase_1,,,,,,,,,,,,,blue,I
32.0,5.0,0.5,1.0,3.0,3.0,289.196192054078,2.0,1.0,phase_1,,,,,,,,,,,,,white,square
39.0,1.0,0.5,0.0,1.0,1.0,378.3551640808582,2.0,1.0,phase_1,,,,,,,,,,,,,blue,I
77.0,6.0,1.0,1.0,2.0,2.0,258.6031241808086,2.0,1.0,phase_1,,,,,,,,,,,,,magenta,cross
0.0,3.0,0.0,0.0,2.0,2.0,312.1652142144739,2.0,1.0,phase_1,,,,,,,,,,,,,orange,flipped triangle
383.0,8.0,4.0,1.0,1.0,1.0,302.1889750380069,2.0,1.0,phase_1,,,,,,,,,,,,,yellow,circle
0.0,5.0,0.0,1.0,4.0,4.0,326.559096109122,2.0,1.0,phase_1,,,,,,,,,,,,,white,square
196.0,3.0,2.0,0.0,2.0,2.0,267.8900538012385,2.0,1.0,phase_1,,,,,,,,,,,,,orange,flipped triangle
41.0,5.0,0.5,1.0,2.0,2.0,302.7400949504226,2.0,1.0,phase_1,,,,,,,,,,,,,white,square
0.0,7.0,0.0,1.0,2.0,2.0,295.8463639952242,2.0,1.0,phase_1,,,,,,,,,,,,,green,triangle
93.0,2.0,1.0,0.0,4.0,4.0,304.7844171524048,2.0,2.0,phase_1,,,,,,,,,,,,,gray,hexagon
182.0,3.0,2.0,0.0,4.0,4.0,297.4889657925814,2.0,1.0,phase_1,,,,,,,,,,,,,orange,flipped triangle
202.0,7.0,2.0,1.0,1.0,1.0,328.361578984186,2.0,1.0,phase_1,,,,,,,,,,,,,green,triangle
414.0,4.0,4.0,0.0,2.0,2.0,249.9806261621415,2.0,1.0,phase_1,,,,,,,,,,,,,cyan,diamond
378.0,8.0,4.0,1.0,2.0,2.0,309.9661951418966,2.0,1.0,phase_1,,,,,,,,,,,,,yellow,circle
67.0,1.0,0.5,0.0,1.0,1.0,318.2928978931159,2.0,1.0,phase_1,,,,,,,,,,,,,blue,I
204.0,7.0,2.0,1.0,1.0,1.0,276.6687169205397,2.0,1.0,phase_1,,,,,,,,,,,,,green,triangle
381.0,4.0,4.0,0.0,1.0,1.0,333.4048630204052,2.0,1.0,phase_1,,,,,,,,,,,,,cyan,diamond
398.0,4.0,4.0,0.0,3.0,3.0,298.9830130245536,2.0,1.0,phase_1,,,,,,,,,,,,,cyan,diamond
214.0,3.0,2.0,0.0,4.0,4.0,288.8125600293278,2.0,1.0,phase_1,,,,,,,,,,,,,orange,flipped triangle
381.0,8.0,4.0,1.0,2.0,2.0,231.9719351362437,2.0,1.0,phase_1,,,,,,,,,,,,,yellow,circle
425.0,8.0,4.0,1.0,2.0,2.0,244.3980951793491,2.0,1.0,phase_1,,,,,,,,,,,,,yellow,circle
211.0,7.0,2.0,1.0,2.0,2.0,266.3012321572751,2.0,1.0,phase_1,,,,,,,,,,,,,green,triangle
411.0,4.0,4.0,0.0,4.0,4.0,324.9025871045887,2.0,1.0,phase_1,,,,,,,,,,,,,cyan,diamond
0.0,8.0,0.0,1.0,4.0,4.0,358.1717000342905,2.0,1.0,phase_1,,,,,,,,,,,,,yellow,circle
56.0,1.0,0.5,0.0,1.0,1.0,370.0446889270097,2.0,1.0,phase_1,,,,,,,,,,,,,blue,I
384.0,8.0,4.0,1.0,1.0,1.0,542.1554120257497,2.0,1.0,phase_1,,,,,,,,,,,,,yellow,circle
387.0,8.0,4.0,1.0,4.0,4.0,349.1820469498634,2.0,1.0,phase_1,,,,,,,,,,,,,yellow,circle
99.0,6.0,1.0,1.0,3.0,3.0,248.9427579566836,2.0,1.0,phase_1,,,,,,,,,,,,,magenta,cross
0.0,3.0,0.0,0.0,4.0,4.0,318.0691390298307,2.0,2.0,phase_1,,,,,,,,,,,,,orange,flipped triangle
196.0,7.0,2.0,1.0,4.0,4.0,330.5127280764282,2.0,1.0,phase_1,,,,,,,,,,,,,green,triangle
387.0,4.0,4.0,0.0,1.0,1.0,317.8136229980737,2.0,1.0,phase_1,,,,,,,,,,,,,cyan,diamond
385.0,8.0,4.0,1.0,3.0,3.0,329.3026080355048,2.0,1.0,phase_1,,,,,,,,,,,,,yellow,circle
201.0,3.0,2.0,0.0,4.0,4.0,319.89278504624957,2.0,1.0,phase_1,,,,,,,,,,,,,orange,flipped triangle
218.0,3.0,2.0,0.0,2.0,2.0,306.9479258265346,2.0,1.0,phase_1,,,,,,,,,,,,,orange,flipped triangle
41.0,1.0,0.5,0.0,4.0,4.0,274.2062241304666,2.0,1.0,phase_1,,,,,,,,,,,,,blue,I
397.0,8.0,4.0,1.0,3.0,3.0,311.5816339850425,2.0,1.0,phase_1,,,,,,,,,,,,,yellow,circle
414.0,4.0,4.0,0.0,4.0,4.0,321.0637120064348,2.0,1.0,phase_1,,,,,,,,,,,,,cyan,diamond
377.0,4.0,4.0,0.0,1.0,1.0,332.7518440783024,2.0,1.0,phase_1,,,,,,,,,,,,,cyan,diamond
409.0,4.0,4.0,0.0,3.0,3.0,276.3839948456734,2.0,1.0,phase_1,,,,,,,,,,,,,cyan,diamond
108.0,6.0,1.0,1.0,1.0,1.0,403.4049978945404,2.0,1.0,phase_1,,,,,,,,,,,,,magenta,cross
75.0,6.0,1.0,1.0,1.0,1.0,322.1607101149857,2.0,1.0,phase_1,,,,,,,,,,,,,magenta,cross
89.0,2.0,1.0,0.0,1.0,1.0,293.0666340980679,2.0,1.0,phase_1,,,,,,,,,,,,,gray,hexagon
67.0,1.0,0.5,0.0,2.0,2.0,390.6612759456038,2.0,1.0,phase_1,,,,,,,,,,,,,blue,I
398.0,8.0,4.0,1.0,1.0,1.0,290.6627701595425,2.0,1.0,phase_1,,,,,,,,,,,,,yellow,circle
424.0,4.0,4.0,0.0,1.0,1.0,302.7952702250331,2.0,1.0,phase_1,,,,,,,,,,,,,cyan,diamond
379.0,4.0,4.0,0.0,2.0,2.0,291.5063370019197,2.0,1.0,phase_1,,,,,,,,,,,,,cyan,diamond
42.0,5.0,0.5,1.0,3.0,3.0,328.092040028423,2.0,1.0,phase_1,,,,,,,,,,,,,white,square
209.0,3.0,2.0,0.0,4.0,4.0,431.6620850004256,2.0,1.0,phase_1,,,,,,,,,,,,,orange,flipped triangle
424.0,4.0,4.0,0.0,3.0,3.0,518.5344421770424,2.0,1.0,phase_1,,,,,,,,,,,,,cyan,diamond
392.0,4.0,4.0,0.0,4.0,4.0,374.5228738989681,2.0,1.0,phase_1,,,,,,,,,,,,,cyan,diamond
35.0,1.0,0.5,0.0,4.0,4.0,364.8986478801816,2.0,1.0,phase_1,,,,,,,,,,,,,blue,I
79.0,2.0,1.0,0.0,3.0,3.0,309.1302211396396,2.0,1.0,phase_1,,,,,,,,,,,,,gray,hexagon
117.0,6.0,1.0,1.0,4.0,4.0,342.1791391447186,2.0,1.0,phase_1,,,,,,,,,,,,,magenta,cross
424.0,4.0,4.0,0.0,2.0,2.0,330.3541929926723,2.0,1.0,phase_1,,,,,,,,,,,,,cyan,diamond
66.0,5.0,0.5,1.0,4.0,4.0,275.709010893479,2.0,1.0,phase_1,,,,,,,,,,,,,white,square
31.0,1.0,0.5,0.0,2.0,2.0,365.8414150122553,3.0,1.0,phase_1,,,,,,,,,,,,,blue,I
198.0,7.0,2.0,1.0,4.0,4.0,398.2812769245356,3.0,1.0,phase_1,,,,,,,,,,,,,green,triangle
212.0,3.0,2.0,0.0,3.0,3.0,321.8067311681807,3.0,1.0,phase_1,,,,,,,,,,,,,orange,flipped triangle
74.0,5.0,0.5,1.0,1.0,1.0,289.0814270358532,3.0,1.0,phase_1,,,,,,,,,,,,,white,square
393.0,4.0,4.0,0.0,3.0,3.0,300.1309020910412,3.0,1.0,phase_1,,,,,,,,,,,,,cyan,diamond
384.0,4.0,4.0,0.0,4.0,4.0,321.8066159170121,3.0,2.0,phase_1,,,,,,,,,,,,,cyan,diamond
67.0,5.0,0.5,1.0,3.0,3.0,334.3950069975108,3.0,1.0,phase_1,,,,,,,,,,,,,white,square
0.0,8.0,0.0,1.0,2.0,2.0,345.1357041485607,3.0,1.0,phase_1,,,,,,,,,,,,,yellow,circle
76.0,6.0,1.0,1.0,3.0,3.0,290.7511289231479,3.0,1.0,phase_1,,,,,,,,,,,,,magenta,cross
185.0,7.0,2.0,1.0,2.0,2.0,346.9241710845381,3.0,1.0,phase_1,,,,,,,,,,,,,green,triangle
63.0,5.0,0.5,1.0,1.0,1.0,339.5877419970929,3.0,1.0,phase_1,,,,,,,,,,,,,white,square
0.0,2.0,0.0,0.0,3.0,3.0,348.0398098472506,3.0,1.0,phase_1,,,,,,,,,,,,,gray,hexagon
77.0,2.0,1.0,0.0,2.0,2.0,292.51200100407,3.0,1.0,phase_1,,,,,,,,,,,,,gray,hexagon
0.0,1.0,0.0,0.0,2.0,2.0,340.157519094646,3.0,1.0,phase_1,,,,,,,,,,,,,blue,I
189.0,3.0,2.0,0.0,3.0,3.0,326.9087050575763,3.0,1.0,phase_1,,,,,,,,,,,,,orange,flipped triangle
0.0,8.0,0.0,1.0,4.0,4.0,307.7354389242828,3.0,1.0,phase_1,,,,,,,,,,,,,yellow,circle
56.0,5.0,0.5,1.0,3.0,3.0,340.4599050991237,3.0,1.0,phase_1,,,,,,,,,,,,,white,square
31.0,1.0,0.5,0.0,3.0,3.0,443.2468640152365,3.0,1.0,phase_1,,,,,,,,,,,,,blue,I
193.0,3.0,2.0,0.0,1.0,1.0,385.6596930418163,3.0,1.0,phase_1,,,,,,,,,,,,,orange,flipped triangle
201.0,3.0,2.0,0.0,4.0,4.0,332.5597501825541,3.0,1.0,phase_1,,,,,,,,,,,,,orange,flipped triangle
71.0,1.0,0.5,0.0,4.0,4.0,321.94026396609837,3.0,1.0,phase_1,,,,,,,,,,,,,blue,I
49.0,5.0,0.5,1.0,2.0,2.0,264.2579569946974,3.0,1.0,phase_1,,,,,,,,,,,,,white,square
122.0,2.0,1.0,0.0,1.0,1.0,322.6121279876679,3.0,1.0,phase_1,,,,,,,,,,,,,gray,hexagon
386.0,4.0,4.0,0.0,3.0,3.0,310.4120690841228,3.0,1.0,phase_1,,,,,,,,,,,,,cyan,diamond
393.0,8.0,4.0,1.0,2.0,2.0,302.367014111951,3.0,1.0,phase_1,,,,,,,,,,,,,yellow,circle
125.0,2.0,1.0,0.0,2.0,2.0,310.5570080224424,3.0,1.0,phase_1,,,,,,,,,,,,,gray,hexagon
195.0,7.0,2.0,1.0,2.0,2.0,280.9344828128814,3.0,1.0,phase_1,,,,,,,,,,,,,green,triangle
397.0,8.0,4.0,1.0,4.0,4.0,381.8321800790727,3.0,1.0,phase_1,,,,,,,,,,,,,yellow,circle
60.0,5.0,0.5,1.0,1.0,1.0,349.5816360227763,3.0,1.0,phase_1,,,,,,,,,,,,,white,square
51.0,5.0,0.5,1.0,4.0,4.0,361.9222459383309,3.0,1.0,phase_1,,,,,,,,,,,,,white,square
67.0,5.0,0.5,1.0,2.0,2.0,302.8869051486254,3.0,1.0,phase_1,,,,,,,,,,,,,white,square
81.0,6.0,1.0,1.0,2.0,2.0,539.2508849035949,3.0,1.0,phase_1,,,,,,,,,,,,,magenta,cross
0.0,2.0,0.0,0.0,4.0,4.0,326.2612430844456,3.0,1.0,phase_1,,,,,,,,,,,,,gray,hexagon
199.0,3.0,2.0,0.0,1.0,1.0,283.8123659603297,3.0,1.0,phase_1,,,,,,,,,,,,,orange,flipped triangle
212.0,7.0,2.0,1.0,2.0,2.0,385.241555981338,3.0,1.0,phase_1,,,,,,,,,,,,,green,triangle
25.0,1.0,0.5,0.0,1.0,1.0,284.5871979370713,3.0,1.0,phase_1,,,,,,,,,,,,,blue,I
41.0,5.0,0.5,1.0,4.0,4.0,340.2194660156965,3.0,1.0,phase_1,,,,,,,,,,,,,white,square
84.0,2.0,1.0,0.0,2.0,2.0,284.3403650913387,3.0,1.0,phase_1,,,,,,,,,,,,,gray,hexagon
0.0,5.0,0.0,1.0,2.0,2.0,340.360650094226,3.0,1.0,phase_1,,,,,,,,,,,,,white,square
177.0,3.0,2.0,0.0,1.0,1.0,288.6265558190644,3.0,1.0,phase_1,,,,,,,,,,,,,orange,flipped triangle
51.0,1.0,0.5,0.0,4.0,4.0,319.3540489301085,3.0,1.0,phase_1,,,,,,,,,,,,,blue,I
58.0,1.0,0.5,0.0,1.0,1.0,365.6880490016192,3.0,1.0,phase_1,,,,,,,,,,,,,blue,I
49.0,1.0,0.5,0.0,1.0,1.0,244.455219944939,3.0,1.0,phase_1,,,,,,,,,,,,,blue,I
193.0,7.0,2.0,1.0,2.0,2.0,276.3784150592983,3.0,1.0,phase_1,,,,,,,,,,,,,green,triangle
189.0,3.0,2.0,0.0,3.0,3.0,333.2916651852429,3.0,1.0,phase_1,,,,,,,,,,,,,orange,flipped triangle
0.0,8.0,0.0,1.0,4.0,4.0,346.5367718599736,3.0,1.0,phase_1,,,,,,,,,,,,,yellow,circle
56.0,1.0,0.5,0.0,4.0,4.0,289.0077899210155,3.0,1.0,phase_1,,,,,,,,,,,,,blue,I
199.0,7.0,2.0,1.0,3.0,3.0,313.1895270198583,3.0,2.0,phase_1,,,,,,,,,,,,,green,triangle
0.0,7.0,0.0,1.0,1.0,1.0,302.2537620272487,3.0,1.0,phase_1,,,,,,,,,,,,,green,triangle
0.0,7.0,0.0,1.0,4.0,4.0,294.1824719309807,3.0,1.0,phase_1,,,,,,,,,,,,,green,triangle
67.0,5.0,0.5,1.0,4.0,4.0,281.991204014048,3.0,1.0,phase_1,,,,,,,,,,,,,white,square
0.0,2.0,0.0,0.0,2.0,2.0,339.3649568315595,3.0,1.0,phase_1,,,,,,,,,,,,,gray,hexagon
222.0,3.0,2.0,0.0,4.0,4.0,350.6942649837583,3.0,1.0,phase_1,,,,,,,,,,,,,orange,flipped triangle
0.0,7.0,0.0,1.0,4.0,4.0,317.5233961082995,3.0,1.0,phase_1,,,,,,,,,,,,,green,triangle
211.0,7.0,2.0,1.0,2.0,2.0,305.9908519499004,3.0,1.0,phase_1,,,,,,,,,,,,,green,triangle
0.0,1.0,0.0,0.0,4.0,4.0,294.481738936156,3.0,1.0,phase_1,,,,,,,,,,,,,blue,I
64.0,1.0,0.5,0.0,3.0,3.0,308.5809000767767,3.0,1.0,phase_1,,,,,,,,,,,,,blue,I
29.0,5.0,0.5,1.0,1.0,1.0,330.0465419888496,3.0,1.0,phase_1,,,,,,,,,,,,,white,square
89.0,6.0,1.0,1.0,2.0,2.0,276.1702660936862,3.0,1.0,phase_1,,,,,,,,,,,,,magenta,cross
419.0,8.0,4.0,1.0,4.0,4.0,312.0255889371037,3.0,1.0,phase_1,,,,,,,,,,,,,yellow,circle
201.0,7.0,2.0,1.0,1.0,1.0,300.5712220910936,3.0,1.0,phase_1,,,,,,,,,,,,,green,triangle
41.0,1.0,0.5,0.0,3.0,3.0,489.1183420550078,3.0,1.0,phase_1,,,,,,,,,,,,,blue,I
25.0,1.0,0.5,0.0,2.0,2.0,410.5864120647311,3.0,1.0,phase_1,,,,,,,,,,,,,blue,I
0.0,2.0,0.0,0.0,4.0,4.0,333.1171721220016,3.0,1.0,phase_1,,,,,,,,,,,,,gray,hexagon
121.0,2.0,1.0,0.0,3.0,3.0,321.8693791422993,3.0,1.0,phase_1,,,,,,,,,,,,,gray,hexagon
193.0,7.0,2.0,1.0,1.0,1.0,312.9381469916552,3.0,1.0,phase_1,,,,,,,,,,,,,green,triangle
405.0,4.0,4.0,0.0,2.0,2.0,280.6481819134205,3.0,1.0,phase_1,,,,,,,,,,,,,cyan,diamond
84.0,6.0,1.0,1.0,4.0,4.0,337.8593530505895,3.0,1.0,phase_1,,,,,,,,,,,,,magenta,cross
0.0,7.0,0.0,1.0,1.0,1.0,347.8868310339749,3.0,1.0,phase_1,,,,,,,,,,,,,green,triangle
88.0,6.0,1.0,1.0,1.0,1.0,337.7308191265911,3.0,1.0,phase_1,,,,,,,,,,,,,magenta,cross
193.0,7.0,2.0,1.0,3.0,3.0,372.5183699280023,3.0,1.0,phase_1,,,,,,,,,,,,,green,triangle
419.0,4.0,4.0,0.0,1.0,1.0,271.2476789020002,3.0,1.0,phase_1,,,,,,,,,,,,,cyan,diamond
0.0,6.0,0.0,1.0,1.0,1.0,330.1206910982728,3.0,1.0,phase_1,,,,,,,,,,,,,magenta,cross
387.0,4.0,4.0,0.0,2.0,2.0,337.5005880370736,3.0,1.0,phase_1,,,,,,,,,,,,,cyan,diamond
379.0,8.0,4.0,1.0,3.0,3.0,285.3639659006148,3.0,1.0,phase_1,,,,,,,,,,,,,yellow,circle
423.0,4.0,4.0,0.0,2.0,2.0,340.9315920434892,3.0,1.0,phase_1,,,,,,,,,,,,,cyan,diamond
72.0,1.0,0.5,0.0,4.0,4.0,511.5520351100713,3.0,1.0,phase_1,,,,,,,,,,,,,blue,I
44.0,5.0,0.5,1.0,2.0,2.0,387.2210220433771,3.0,1.0,phase_1,,,,,,,,,,,,,white,square
88.0,2.0,1.0,0.0,4.0,4.0,265.1093420572579,3.0,1.0,phase_1,,,,,,,,,,,,,gray,hexagon
117.0,6.0,1.0,1.0,1.0,1.0,277.8410199098289,3.0,1.0,phase_1,,,,,,,,,,,,,magenta,cross
114.0,2.0,1.0,0.0,1.0,1.0,342.8218450862914,3.0,1.0,phase_1,,,,,,,,,,,,,gray,hexagon
0.0,7.0,0.0,1.0,2.0,2.0,333.2879359368235,3.0,1.0,phase_1,,,,,,,,,,,,,green,triangle
380.0,4.0,4.0,0.0,3.0,3.0,309.4153811689466,3.0,1.0,phase_1,,,,,,,,,,,,,cyan,diamond
0.0,6.0,0.0,1.0,2.0,2.0,322.0292690675705,3.0,1.0,phase_1,,,,,,,,,,,,,magenta,cross
0.0,8.0,0.0,1.0,3.0,3.0,332.9003090038895,3.0,1.0,phase_1,,,,,,,,,,,,,yellow,circle
106.0,2.0,1.0,0.0,3.0,3.0,313.364164205268,3.0,1.0,phase_1,,,,,,,,,,,,,gray,hexagon
117.0,2.0,1.0,0.0,4.0,4.0,324.5012848637998,3.0,1.0,phase_1,,,,,,,,,,,,,gray,hexagon
387.0,4.0,4.0,0.0,4.0,4.0,313.0269600078463,3.0,1.0,phase_1,,,,,,,,,,,,,cyan,diamond
58.0,5.0,0.5,1.0,2.0,2.0,324.349557980895,3.0,1.0,phase_1,,,,,,,,,,,,,white,square
68.0,1.0,0.5,0.0,1.0,1.0,337.7777838613838,3.0,1.0,phase_1,,,,,,,,,,,,,blue,I
108.0,2.0,1.0,0.0,1.0,1.0,279.6550169587135,3.0,1.0,phase_1,,,,,,,,,,,,,gray,hexagon
398.0,8.0,4.0,1.0,1.0,1.0,271.6366481035948,3.0,1.0,phase_1,,,,,,,,,,,,,yellow,circle
111.0,6.0,1.0,1.0,4.0,4.0,328.7050460930913,3.0,1.0,phase_1,,,,,,,,,,,,,magenta,cross
116.0,6.0,1.0,1.0,2.0,2.0,315.8433251082897,3.0,1.0,phase_1,,,,,,,,,,,,,magenta,cross
77.0,2.0,1.0,0.0,3.0,3.0,486.1711228732019,3.0,1.0,phase_1,,,,,,,,,,,,,gray,hexagon
0.0,7.0,0.0,1.0,2.0,2.0,305.4760859813541,3.0,1.0,phase_1,,,,,,,,,,,,,green,triangle
395.0,8.0,4.0,1.0,4.0,4.0,296.7876610346138,3.0,1.0,phase_1,,,,,,,,,,,,,yellow,circle
397.0,4.0,4.0,0.0,2.0,2.0,272.9806038551032,3.0,1.0,phase_1,,,,,,,,,,,,,cyan,diamond
0.0,2.0,0.0,0.0,2.0,2.0,284.7911110147834,3.0,1.0,phase_1,,,,,,,,,,,,,gray,hexagon
60.0,1.0,0.5,0.0,1.0,1.0,322.016007034108,3.0,1.0,phase_1,,,,,,,,,,,,,blue,I
97.0,6.0,1.0,1.0,1.0,1.0,341.5605400223285,4.0,1.0,phase_1,,,,,,,,,,,,,magenta,cross
0.0,6.0,0.0,1.0,2.0,2.0,329.5018430799246,4.0,1.0,phase_1,,,,,,,,,,,,,magenta,cross
403.0,4.0,4.0,0.0,4.0,4.0,342.0098200440407,4.0,1.0,phase_1,,,,,,,,,,,,,cyan,diamond
72.0,5.0,0.5,1.0,1.0,1.0,467.3375720158219,4.0,1.0,phase_1,,,,,,,,,,,,,white,square
192.0,7.0,2.0,1.0,3.0,3.0,341.9530990067869,4.0,1.0,phase_1,,,,,,,,,,,,,green,triangle
82.0,2.0,1.0,0.0,4.0,4.0,263.6657748371362,4.0,1.0,phase_1,,,,,,,,,,,,,gray,hexagon
196.0,7.0,2.0,1.0,1.0,1.0,289.0426770318299,4.0,1.0,phase_1,,,,,,,,,,,,,green,triangle
125.0,2.0,1.0,0.0,3.0,3.0,301.6991179902106,4.0,1.0,phase_1,,,,,,,,,,,,,gray,hexagon
218.0,7.0,2.0,1.0,3.0,3.0,333.2687260117382,4.0,1.0,phase_1,,,,,,,,,,,,,green,triangle
177.0,7.0,2.0,1.0,4.0,4.0,337.3374121729284,4.0,1.0,phase_1,,,,,,,,,,,,,green,triangle
197.0,3.0,2.0,0.0,1.0,1.0,346.6720280703157,4.0,1.0,phase_1,,,,,,,,,,,,,orange,flipped triangle
0.0,4.0,0.0,0.0,4.0,4.0,472.5517760962248,4.0,1.0,phase_1,,,,,,,,,,,,,cyan,diamond
176.0,3.0,2.0,0.0,3.0,3.0,324.8857378493994,4.0,1.0,phase_1,,,,,,,,,,,,,orange,flipped triangle
89.0,6.0,1.0,1.0,4.0,4.0,361.1100979615003,4.0,1.0,phase_1,,,,,,,,,,,,,magenta,cross
67.0,1.0,0.5,0.0,3.0,3.0,281.1964880675077,4.0,1.0,phase_1,,,,,,,,,,,,,blue,I
27.0,5.0,0.5,1.0,3.0,3.0,315.3042991179973,4.0,1.0,phase_1,,,,,,,,,,,,,white,square
385.0,4.0,4.0,0.0,1.0,1.0,362.1472008526325,4.0,2.0,phase_1,,,,,,,,,,,,,cyan,diamond
0.0,3.0,0.0,0.0,2.0,2.0,308.6974129546433,4.0,1.0,phase_1,,,,,,,,,,,,,orange,flipped triangle
34.0,1.0,0.5,0.0,2.0,2.0,297.9345959611237,4.0,1.0,phase_1,,,,,,,,,,,,,blue,I
189.0,7.0,2.0,1.0,4.0,4.0,308.4373259916901,4.0,1.0,phase_1,,,,,,,,,,,,,green,triangle
405.0,4.0,4.0,0.0,4.0,4.0,318.3797551319003,4.0,1.0,phase_1,,,,,,,,,,,,,cyan,diamond
403.0,4.0,4.0,0.0,1.0,1.0,309.9134820513427,4.0,1.0,phase_1,,,,,,,,,,,,,cyan,diamond
114.0,2.0,1.0,0.0,2.0,2.0,342.8132450208068,4.0,1.0,phase_1,,,,,,,,,,,,,gray,hexagon
403.0,8.0,4.0,1.0,2.0,2.0,400.7178850006312,4.0,1.0,phase_1,,,,,,,,,,,,,yellow,circle
0.0,3.0,0.0,0.0,3.0,3.0,343.2428820524364,4.0,1.0,phase_1,,,,,,,,,,,,,orange,flipped triangle
104.0,6.0,1.0,1.0,3.0,3.0,347.0019930973649,4.0,1.0,phase_1,,,,,,,,,,,,,magenta,cross
48.0,5.0,0.5,1.0,2.0,2.0,515.8488359302282,4.0,1.0,phase_1,,,,,,,,,,,,,white,square
202.0,3.0,2.0,0.0,1.0,1.0,344.5750898681581,4.0,1.0,phase_1,,,,,,,,,,,,,orange,flipped triangle
179.0,7.0,2.0,1.0,2.0,2.0,288.7229570187628,4.0,1.0,phase_1,,,,,,,,,,,,,green,triangle
0.0,1.0,0.0,0.0,4.0,4.0,325.7487511727959,4.0,1.0,phase_1,,,,,,,,,,,,,blue,I
0.0,8.0,0.0,1.0,2.0,2.0,289.863103069365,4.0,1.0,phase_1,,,,,,,,,,,,,yellow,circle
106.0,6.0,1.0,1.0,4.0,4.0,371.1735198739916,4.0,1.0,phase_1,,,,,,,,,,,,,magenta,cross
116.0,2.0,1.0,0.0,4.0,4.0,362.43810900487,4.0,1.0,phase_1,,,,,,,,,,,,,gray,hexagon
196.0,7.0,2.0,1.0,3.0,3.0,370.2608670573681,4.0,1.0,phase_1,,,,,,,,,,,,,green,triangle
0.0,1.0,0.0,0.0,1.0,1.0,337.3265319969505,4.0,1.0,phase_1,,,,,,,,,,,,,blue,I
0.0,2.0,0.0,0.0,1.0,1.0,303.7849490065127,4.0,1.0,phase_1,,,,,,,,,,,,,gray,hexagon
39.0,5.0,0.5,1.0,4.0,4.0,316.4721629582345,4.0,1.0,phase_1,,,,,,,,,,,,,white,square
0.0,3.0,0.0,0.0,1.0,1.0,331.100818933919,4.0,1.0,phase_1,,,,,,,,,,,,,orange,flipped triangle
189.0,7.0,2.0,1.0,4.0,4.0,362.8952850122005,4.0,1.0,phase_1,,,,,,,,,,,,,green,triangle
218.0,7.0,2.0,1.0,4.0,4.0,284.9119699094444,4.0,1.0,phase_1,,,,,,,,,,,,,green,triangle
387.0,8.0,4.0,1.0,3.0,3.0,295.9468651097268,4.0,1.0,phase_1,,,,,,,,,,,,,yellow,circle
424.0,8.0,4.0,1.0,1.0,1.0,355.4932088591158,4.0,1.0,phase_1,,,,,,,,,,,,,yellow,circle
0.0,7.0,0.0,1.0,1.0,1.0,296.4015658944845,4.0,1.0,phase_1,,,,,,,,,,,,,green,triangle
0.0,8.0,0.0,1.0,2.0,2.0,197.7583509869873,4.0,1.0,phase_1,,,,,,,,,,,,,yellow,circle
38.0,1.0,0.5,0.0,2.0,2.0,345.0492199044674,4.0,1.0,phase_1,,,,,,,,,,,,,blue,I
0.0,6.0,0.0,1.0,1.0,1.0,344.2223370075226,4.0,2.0,phase_1,,,,,,,,,,,,,magenta,cross
76.0,2.0,1.0,0.0,2.0,2.0,244.1493230871856,4.0,1.0,phase_1,,,,,,,,,,,,,gray,hexagon
75.0,2.0,1.0,0.0,2.0,2.0,345.7914041355252,4.0,1.0,phase_1,,,,,,,,,,,,,gray,hexagon
196.0,3.0,2.0,0.0,4.0,4.0,312.289176043123,4.0,1.0,phase_1,,,,,,,,,,,,,orange,flipped triangle
0.0,3.0,0.0,0.0,2.0,2.0,349.5715588796884,4.0,1.0,phase_1,,,,,,,,,,,,,orange,flipped triangle
192.0,3.0,2.0,0.0,3.0,3.0,339.0240559820086,4.0,1.0,phase_1,,,,,,,,,,,,,orange,flipped triangle
76.0,6.0,1.0,1.0,4.0,4.0,327.9517870396375,4.0,1.0,phase_1,,,,,,,,,,,,,magenta,cross
424.0,8.0,4.0,1.0,3.0,3.0,325.1552239526063,4.0,1.0,phase_1,,,,,,,,,,,,,yellow,circle
76.0,6.0,1.0,1.0,3.0,3.0,314.7136399056762,4.0,1.0,phase_1,,,,,,,,,,,,,magenta,cross
64.0,1.0,0.5,0.0,1.0,1.0,305.2861229516566,4.0,1.0,phase_1,,,,,,,,,,,,,blue,I
424.0,8.0,4.0,1.0,2.0,2.0,292.9842858575284,4.0,1.0,phase_1,,,,,,,,,,,,,yellow,circle
102.0,2.0,1.0,0.0,3.0,3.0,352.0044269971549,4.0,1.0,phase_1,,,,,,,,,,,,,gray,hexagon
222.0,7.0,2.0,1.0,3.0,3.0,317.3832511529326,4.0,1.0,phase_1,,,,,,,,,,,,,green,triangle
391.0,8.0,4.0,1.0,3.0,3.0,284.3351778574288,4.0,1.0,phase_1,,,,,,,,,,,,,yellow,circle
0.0,5.0,0.0,1.0,3.0,3.0,365.1986171025783,4.0,1.0,phase_1,,,,,,,,,,,,,white,square
92.0,6.0,1.0,1.0,2.0,2.0,329.5959259849041,4.0,1.0,phase_1,,,,,,,,,,,,,magenta,cross
181.0,7.0,2.0,1.0,4.0,4.0,286.8944371584803,4.0,1.0,phase_1,,,,,,,,,,,,,green,triangle
48.0,5.0,0.5,1.0,4.0,4.0,343.837226042524,4.0,1.0,phase_1,,,,,,,,,,,,,white,square
25.0,5.0,0.5,1.0,3.0,3.0,320.4578161239624,4.0,1.0,phase_1,,,,,,,,,,,,,white,square
0.0,2.0,0.0,0.0,3.0,3.0,354.0927020367235,4.0,1.0,phase_1,,,,,,,,,,,,,gray,hexagon
33.0,5.0,0.5,1.0,2.0,2.0,346.4304329827428,4.0,1.0,phase_1,,,,,,,,,,,,,white,square
77.0,6.0,1.0,1.0,1.0,1.0,367.2804951202124,4.0,2.0,phase_1,,,,,,,,,,,,,magenta,cross
66.0,1.0,0.5,0.0,3.0,3.0,357.8106469940394,4.0,1.0,phase_1,,,,,,,,,,,,,blue,I
0.0,4.0,0.0,0.0,2.0,2.0,300.6683161947876,4.0,1.0,phase_1,,,,,,,,,,,,,cyan,diamond
93.0,6.0,1.0,1.0,4.0,4.0,379.7517069615423,4.0,1.0,phase_1,,,,,,,,,,,,,magenta,cross
48.0,1.0,0.5,0.0,2.0,2.0,346.9130988232791,4.0,1.0,phase_1,,,,,,,,,,,,,blue,I
216.0,7.0,2.0,1.0,1.0,1.0,270.9686697926372,4.0,1.0,phase_1,,,,,,,,,,,,,green,triangle
79.0,6.0,1.0,1.0,3.0,3.0,349.575076950714,4.0,1.0,phase_1,,,,,,,,,,,,,magenta,cross
380.0,8.0,4.0,1.0,1.0,1.0,337.8381871152669,4.0,1.0,phase_1,,,,,,,,,,,,,yellow,circle
177.0,3.0,2.0,0.0,2.0,2.0,330.071859061718,4.0,1.0,phase_1,,,,,,,,,,,,,orange,flipped triangle
414.0,8.0,4.0,1.0,4.0,4.0,318.3293680194765,4.0,1.0,phase_1,,,,,,,,,,,,,yellow,circle
0.0,1.0,0.0,0.0,3.0,3.0,350.5019370932132,4.0,1.0,phase_1,,,,,,,,,,,,,blue,I
209.0,3.0,2.0,0.0,2.0,2.0,273.0213650502264,4.0,1.0,phase_1,,,,,,,,,,,,,orange,flipped triangle
104.0,2.0,1.0,0.0,3.0,3.0,353.964134817943,4.0,1.0,phase_1,,,,,,,,,,,,,gray,hexagon
417.0,4.0,4.0,0.0,2.0,2.0,273.5525080934167,4.0,1.0,phase_1,,,,,,,,,,,,,cyan,diamond
114.0,6.0,1.0,1.0,3.0,3.0,321.9312999863177,4.0,2.0,phase_1,,,,,,,,,,,,,magenta,cross
179.0,3.0,2.0,0.0,2.0,2.0,444.1832029260695,4.0,1.0,phase_1,,,,,,,,,,,,,orange,flipped triangle
0.0,1.0,0.0,0.0,4.0,4.0,323.1918381061405,4.0,1.0,phase_1,,,,,,,,,,,,,blue,I
201.0,7.0,2.0,1.0,3.0,3.0,358.2540329080075,4.0,1.0,phase_1,,,,,,,,,,,,,green,triangle
88.0,6.0,1.0,1.0,2.0,2.0,345.6475120037794,4.0,1.0,phase_1,,,,,,,,,,,,,magenta,cross
388.0,8.0,4.0,1.0,2.0,2.0,302.3285958915949,4.0,1.0,phase_1,,,,,,,,,,,,,yellow,circle
42.0,5.0,0.5,1.0,1.0,1.0,378.6760829389095,4.0,1.0,phase_1,,,,,,,,,,,,,white,square
193.0,3.0,2.0,0.0,3.0,3.0,301.5705740544945,4.0,1.0,phase_1,,,,,,,,,,,,,orange,flipped triangle
51.0,5.0,0.5,1.0,2.0,2.0,301.2008648365736,4.0,1.0,phase_1,,,,,,,,,,,,,white,square
99.0,2.0,1.0,0.0,2.0,2.0,316.2585250101983,4.0,1.0,phase_1,,,,,,,,,,,,,gray,hexagon
208.0,7.0,2.0,1.0,2.0,2.0,282.053017988801,4.0,1.0,phase_1,,,,,,,,,,,,,green,triangle
410.0,8.0,4.0,1.0,3.0,3.0,338.7097641825676,4.0,1.0,phase_1,,,,,,,,,,,,,yellow,circle
104.0,2.0,1.0,0.0,1.0,1.0,350.1790740992874,4.0,1.0,phase_1,,,,,,,,,,,,,gray,hexagon
74.0,1.0,0.5,0.0,3.0,3.0,382.733287056908,4.0,1.0,phase_1,,,,,,,,,,,,,blue,I
211.0,3.0,2.0,0.0,3.0,3.0,394.6156459860503,4.0,1.0,phase_1,,,,,,,,,,,,,orange,flipped triangle
0.0,7.0,0.0,1.0,4.0,4.0,362.2975239995867,4.0,1.0,phase_1,,,,,,,,,,,,,green,triangle
204.0,3.0,2.0,0.0,3.0,3.0,419.5514279417693,4.0,1.0,phase_1,,,,,,,,,,,,,orange,flipped triangle
111.0,2.0,1.0,0.0,3.0,3.0,432.3283908888697,4.0,1.0,phase_1,,,,,,,,,,,,,gray,hexagon
92.0,2.0,1.0,0.0,3.0,3.0,399.17121687904,4.0,1.0,phase_1,,,,,,,,,,,,,gray,hexagon
0.0,4.0,0.0,0.0,2.0,2.0,274.4652049150318,4.0,1.0,phase_1,,,,,,,,,,,,,cyan,diamond
0.0,5.0,0.5,1.0,6.0,6.0,396.0475220810622,1.0,1.0,phase_2,go,250.0,250.0,1.0,,,,,,,,,white,square
0.0,6.0,1.0,1.0,5.0,5.0,516.6759600397199,1.0,1.0,phase_2,stop,250.0,250.0,3.0,,,,,,,,,magenta,cross
0.0,1.0,0.5,0.0,6.0,6.0,307.5528149493038,1.0,1.0,phase_2,go,200.0,250.0,1.0,,,,,,,,,blue,I
0.0,4.0,4.0,0.0,5.0,5.0,366.5143691468984,1.0,1.0,phase_2,go,200.0,250.0,1.0,,,,,,,,,cyan,diamond
0.0,5.0,0.5,1.0,6.0,6.0,301.601966843009,1.0,1.0,phase_2,stop,200.0,250.0,3.0,,,,,,,,,white,square
0.0,7.0,2.0,1.0,5.0,5.0,291.8159638065845,1.0,1.0,phase_2,go,200.0,200.0,1.0,,,,,,,,,green,triangle
0.0,1.0,0.5,0.0,6.0,6.0,684.0821160003543,1.0,1.0,phase_2,go,200.0,200.0,1.0,,,,,,,,,blue,I
0.0,6.0,1.0,1.0,5.0,0.0,0.0,1.0,1.0,phase_2,stop,200.0,200.0,4.0,,,,,,,,,magenta,cross
0.0,2.0,1.0,0.0,6.0,6.0,279.3617581482976,1.0,1.0,phase_2,go,250.0,200.0,1.0,,,,,,,,,gray,hexagon
0.0,3.0,2.0,0.0,5.0,5.0,698.2498469296843,1.0,1.0,phase_2,go,250.0,200.0,1.0,,,,,,,,,orange,flipped triangle
0.0,3.0,2.0,0.0,6.0,6.0,440.026898868382,1.0,1.0,phase_2,go,250.0,200.0,1.0,,,,,,,,,orange,flipped triangle
0.0,7.0,2.0,1.0,5.0,0.0,0.0,1.0,1.0,phase_2,stop,250.0,200.0,4.0,,,,,,,,,green,triangle
0.0,7.0,2.0,1.0,6.0,0.0,0.0,1.0,1.0,phase_2,stop,300.0,200.0,4.0,,,,,,,,,green,triangle
0.0,2.0,1.0,0.0,6.0,6.0,429.8913201782852,1.0,1.0,phase_2,go,300.0,250.0,1.0,,,,,,,,,gray,hexagon
0.0,8.0,4.0,1.0,5.0,5.0,332.7252741437405,1.0,1.0,phase_2,stop,300.0,250.0,3.0,,,,,,,,,yellow,circle
0.0,3.0,2.0,0.0,6.0,6.0,543.3405151125044,1.0,1.0,phase_2,go,250.0,250.0,1.0,,,,,,,,,orange,flipped triangle
0.0,2.0,1.0,0.0,5.0,5.0,512.7976180519909,1.0,1.0,phase_2,go,250.0,250.0,1.0,,,,,,,,,gray,hexagon
0.0,2.0,1.0,0.0,5.0,5.0,704.4312078505754,1.0,1.0,phase_2,go,250.0,250.0,1.0,,,,,,,,,gray,hexagon
0.0,6.0,1.0,1.0,6.0,0.0,0.0,1.0,1.0,phase_2,stop,250.0,250.0,4.0,,,,,,,,,magenta,cross
0.0,2.0,1.0,0.0,6.0,6.0,592.3833879642189,1.0,1.0,phase_2,go,250.0,300.0,1.0,,,,,,,,,gray,hexagon
0.0,7.0,2.0,1.0,6.0,6.0,358.9493329636752,1.0,1.0,phase_2,stop,250.0,300.0,3.0,,,,,,,,,green,triangle
0.0,4.0,4.0,0.0,5.0,5.0,674.8198149725795,1.0,1.0,phase_2,go,250.0,250.0,1.0,,,,,,,,,cyan,diamond
0.0,7.0,2.0,1.0,6.0,0.0,0.0,1.0,1.0,phase_2,stop,250.0,250.0,4.0,,,,,,,,,green,triangle
0.0,4.0,4.0,0.0,6.0,6.0,471.4713951107114,1.0,1.0,phase_2,go,250.0,300.0,1.0,,,,,,,,,cyan,diamond
0.0,8.0,4.0,1.0,5.0,0.0,0.0,1.0,1.0,phase_2,stop,250.0,300.0,4.0,,,,,,,,,yellow,circle
0.0,4.0,4.0,0.0,6.0,6.0,542.0406581833959,1.0,1.0,phase_2,go,300.0,300.0,1.0,,,,,,,,,cyan,diamond
0.0,7.0,2.0,1.0,6.0,0.0,0.0,1.0,1.0,phase_2,stop,300.0,300.0,4.0,,,,,,,,,green,triangle
0.0,8.0,4.0,1.0,6.0,6.0,553.4400420729071,1.0,1.0,phase_2,go,300.0,350.0,1.0,,,,,,,,,yellow,circle
0.0,1.0,0.5,0.0,6.0,6.0,542.7030180580914,1.0,1.0,phase_2,go,300.0,350.0,1.0,,,,,,,,,blue,I
0.0,2.0,1.0,0.0,5.0,5.0,523.6261861864477,1.0,1.0,phase_2,go,300.0,350.0,1.0,,,,,,,,,gray,hexagon
0.0,8.0,4.0,1.0,6.0,6.0,784.3964870553464,1.0,1.0,phase_2,go,300.0,350.0,1.0,,,,,,,,,yellow,circle
0.0,7.0,2.0,1.0,6.0,0.0,0.0,1.0,1.0,phase_2,stop,300.0,350.0,4.0,,,,,,,,,green,triangle
0.0,1.0,0.5,0.0,6.0,6.0,392.832265002653,1.0,1.0,phase_2,go,300.0,400.0,1.0,,,,,,,,,blue,I
0.0,4.0,4.0,0.0,6.0,6.0,356.1140629462898,1.0,1.0,phase_2,go,300.0,400.0,1.0,,,,,,,,,cyan,diamond
0.0,2.0,1.0,0.0,6.0,6.0,594.6789821609855,1.0,1.0,phase_2,go,300.0,400.0,1.0,,,,,,,,,gray,hexagon
0.0,5.0,0.5,1.0,5.0,0.0,0.0,1.0,1.0,phase_2,stop,300.0,400.0,4.0,,,,,,,,,white,square
0.0,6.0,1.0,1.0,5.0,5.0,421.2803330738097,2.0,1.0,phase_2,stop,350.0,400.0,3.0,,,,,,,,,magenta,cross
0.0,3.0,2.0,0.0,5.0,5.0,514.2945251427591,2.0,1.0,phase_2,go,300.0,400.0,1.0,,,,,,,,,orange,flipped triangle
0.0,5.0,0.5,1.0,5.0,0.0,0.0,2.0,1.0,phase_2,stop,300.0,400.0,4.0,,,,,,,,,white,square
0.0,4.0,4.0,0.0,6.0,6.0,489.7848519030958,2.0,1.0,phase_2,go,350.0,400.0,1.0,,,,,,,,,cyan,diamond
0.0,7.0,2.0,1.0,6.0,6.0,434.8274229560047,2.0,1.0,phase_2,stop,350.0,400.0,3.0,,,,,,,,,green,triangle
0.0,1.0,0.5,0.0,5.0,5.0,686.9978320319206,2.0,1.0,phase_2,go,350.0,350.0,1.0,,,,,,,,,blue,I
0.0,5.0,0.5,1.0,5.0,5.0,717.48670283705,2.0,1.0,phase_2,go,350.0,350.0,1.0,,,,,,,,,white,square
0.0,8.0,4.0,1.0,5.0,0.0,0.0,2.0,1.0,phase_2,stop,350.0,350.0,4.0,,,,,,,,,yellow,circle
0.0,1.0,0.5,0.0,5.0,5.0,362.276961794123,2.0,1.0,phase_2,go,400.0,350.0,1.0,,,,,,,,,blue,I
0.0,6.0,1.0,1.0,5.0,0.0,0.0,2.0,1.0,phase_2,stop,400.0,350.0,4.0,,,,,,,,,magenta,cross
0.0,5.0,0.5,1.0,5.0,5.0,619.6705289185047,2.0,1.0,phase_2,go,450.0,350.0,1.0,,,,,,,,,white,square
0.0,8.0,4.0,1.0,5.0,0.0,0.0,2.0,1.0,phase_2,stop,450.0,350.0,4.0,,,,,,,,,yellow,circle
0.0,8.0,4.0,1.0,6.0,0.0,0.0,2.0,1.0,phase_2,stop,500.0,350.0,4.0,,,,,,,,,yellow,circle
0.0,3.0,2.0,0.0,5.0,5.0,589.6104900166392,2.0,1.0,phase_2,go,500.0,400.0,1.0,,,,,,,,,orange,flipped triangle
0.0,4.0,4.0,0.0,5.0,5.0,578.2194971106946,2.0,1.0,phase_2,go,500.0,400.0,1.0,,,,,,,,,cyan,diamond
0.0,7.0,2.0,1.0,5.0,5.0,590.2591210324317,2.0,1.0,phase_2,stop,500.0,400.0,3.0,,,,,,,,,green,triangle
0.0,2.0,1.0,0.0,6.0,6.0,581.7042919807136,2.0,1.0,phase_2,go,450.0,400.0,1.0,,,,,,,,,gray,hexagon
0.0,3.0,2.0,0.0,5.0,5.0,727.4195200297982,2.0,1.0,phase_2,go,450.0,400.0,1.0,,,,,,,,,orange,flipped triangle
0.0,6.0,1.0,1.0,5.0,0.0,0.0,2.0,1.0,phase_2,stop,450.0,400.0,4.0,,,,,,,,,magenta,cross
0.0,5.0,0.5,1.0,5.0,5.0,595.5065560992807,2.0,1.0,phase_2,stop,500.0,400.0,3.0,,,,,,,,,white,square
0.0,6.0,1.0,1.0,6.0,0.0,0.0,2.0,1.0,phase_2,stop,450.0,400.0,4.0,,,,,,,,,magenta,cross
0.0,6.0,1.0,1.0,6.0,6.0,709.5707149710506,2.0,1.0,phase_2,go,450.0,450.0,1.0,,,,,,,,,magenta,cross
0.0,2.0,1.0,0.0,6.0,6.0,858.6156589444727,2.0,1.0,phase_2,go,450.0,450.0,1.0,,,,,,,,,gray,hexagon
0.0,2.0,1.0,0.0,5.0,5.0,844.917651033029,2.0,1.0,phase_2,go,450.0,450.0,1.0,,,,,,,,,gray,hexagon
0.0,5.0,0.5,1.0,6.0,0.0,0.0,2.0,1.0,phase_2,stop,450.0,450.0,4.0,,,,,,,,,white,square
0.0,6.0,1.0,1.0,6.0,6.0,734.1642710380256,2.0,1.0,phase_2,go,450.0,500.0,1.0,,,,,,,,,magenta,cross
0.0,6.0,1.0,1.0,5.0,0.0,0.0,2.0,1.0,phase_2,stop,450.0,500.0,4.0,,,,,,,,,magenta,cross
0.0,1.0,0.5,0.0,5.0,5.0,648.588809883222,2.0,1.0,phase_2,go,500.0,500.0,1.0,,,,,,,,,blue,I
0.0,4.0,4.0,0.0,6.0,6.0,692.908301949501,2.0,1.0,phase_2,go,500.0,500.0,1.0,,,,,,,,,cyan,diamond
0.0,5.0,0.5,1.0,6.0,0.0,0.0,2.0,1.0,phase_2,stop,500.0,500.0,4.0,,,,,,,,,white,square
0.0,7.0,2.0,1.0,6.0,6.0,730.3519919514656,2.0,1.0,phase_2,stop,500.0,550.0,3.0,,,,,,,,,green,triangle
0.0,6.0,1.0,1.0,5.0,0.0,0.0,2.0,1.0,phase_2,stop,500.0,500.0,4.0,,,,,,,,,magenta,cross
0.0,4.0,4.0,0.0,5.0,5.0,595.0415269471705,2.0,1.0,phase_2,go,550.0,500.0,1.0,,,,,,,,,cyan,diamond
0.0,7.0,2.0,1.0,6.0,0.0,0.0,2.0,1.0,phase_2,stop,550.0,500.0,4.0,,,,,,,,,green,triangle
0.0,4.0,4.0,0.0,6.0,6.0,954.7896119765936,2.0,1.0,phase_2,go,550.0,550.0,1.0,,,,,,,,,cyan,diamond
0.0,6.0,1.0,1.0,5.0,0.0,0.0,2.0,1.0,phase_2,stop,550.0,550.0,4.0,,,,,,,,,magenta,cross
0.0,7.0,2.0,1.0,5.0,5.0,663.0359659902751,3.0,1.0,phase_2,stop,600.0,550.0,3.0,,,,,,,,,green,triangle
0.0,7.0,2.0,1.0,5.0,5.0,675.44752988033,3.0,1.0,phase_2,go,550.0,550.0,1.0,,,,,,,,,green,triangle
0.0,5.0,0.5,1.0,6.0,6.0,597.5731168873608,3.0,1.0,phase_2,go,550.0,550.0,1.0,,,,,,,,,white,square
0.0,5.0,0.5,1.0,5.0,5.0,631.5302969887853,3.0,1.0,phase_2,stop,550.0,550.0,3.0,,,,,,,,,white,square
0.0,7.0,2.0,1.0,6.0,0.0,0.0,3.0,1.0,phase_2,stop,500.0,550.0,4.0,,,,,,,,,green,triangle
0.0,8.0,4.0,1.0,6.0,6.0,676.4685111120343,3.0,1.0,phase_2,go,500.0,600.0,1.0,,,,,,,,,yellow,circle
0.0,5.0,0.5,1.0,6.0,0.0,0.0,3.0,1.0,phase_2,stop,500.0,600.0,4.0,,,,,,,,,white,square
0.0,4.0,4.0,0.0,5.0,5.0,850.7104460150003,3.0,1.0,phase_2,go,500.0,650.0,1.0,,,,,,,,,cyan,diamond
0.0,1.0,0.5,0.0,6.0,6.0,929.5583912171425,3.0,1.0,phase_2,go,500.0,650.0,1.0,,,,,,,,,blue,I
0.0,7.0,2.0,1.0,6.0,6.0,603.3110320568085,3.0,1.0,phase_2,go,500.0,650.0,1.0,,,,,,,,,green,triangle
0.0,4.0,4.0,0.0,5.0,5.0,750.2913270145655,3.0,1.0,phase_2,go,500.0,650.0,1.0,,,,,,,,,cyan,diamond
0.0,3.0,2.0,0.0,5.0,5.0,850.9483200032264,3.0,1.0,phase_2,go,500.0,650.0,1.0,,,,,,,,,orange,flipped triangle
0.0,6.0,1.0,1.0,6.0,6.0,706.5306131262332,3.0,1.0,phase_2,stop,500.0,650.0,3.0,,,,,,,,,magenta,cross
0.0,1.0,0.5,0.0,5.0,5.0,674.1290530189872,3.0,1.0,phase_2,go,500.0,600.0,1.0,,,,,,,,,blue,I
0.0,2.0,1.0,0.0,6.0,6.0,695.5141290090978,3.0,1.0,phase_2,go,500.0,600.0,1.0,,,,,,,,,gray,hexagon
0.0,2.0,1.0,0.0,5.0,5.0,978.6125281825662,3.0,1.0,phase_2,go,500.0,600.0,1.0,,,,,,,,,gray,hexagon
0.0,7.0,2.0,1.0,6.0,6.0,686.5895111113787,3.0,1.0,phase_2,go,500.0,600.0,1.0,,,,,,,,,green,triangle
0.0,5.0,0.5,1.0,6.0,6.0,664.7996320389211,3.0,1.0,phase_2,go,500.0,600.0,1.0,,,,,,,,,white,square
0.0,6.0,1.0,1.0,5.0,5.0,643.6701200436801,3.0,1.0,phase_2,go,500.0,600.0,1.0,,,,,,,,,magenta,cross
0.0,8.0,4.0,1.0,5.0,5.0,621.219523018226,3.0,1.0,phase_2,stop,500.0,600.0,3.0,,,,,,,,,yellow,circle
0.0,7.0,2.0,1.0,5.0,0.0,0.0,3.0,1.0,phase_2,stop,450.0,600.0,4.0,,,,,,,,,green,triangle
0.0,4.0,4.0,0.0,6.0,6.0,644.8363449890167,3.0,1.0,phase_2,go,500.0,600.0,1.0,,,,,,,,,cyan,diamond
0.0,3.0,2.0,0.0,5.0,5.0,660.4505369905382,3.0,1.0,phase_2,go,500.0,600.0,1.0,,,,,,,,,orange,flipped triangle
0.0,1.0,0.5,0.0,6.0,6.0,635.6181588489562,3.0,1.0,phase_2,go,500.0,600.0,1.0,,,,,,,,,blue,I
0.0,8.0,4.0,1.0,6.0,6.0,424.6559329330921,3.0,1.0,phase_2,stop,500.0,600.0,3.0,,,,,,,,,yellow,circle
0.0,5.0,0.5,1.0,5.0,0.0,0.0,3.0,1.0,phase_2,stop,500.0,550.0,4.0,,,,,,,,,white,square
0.0,4.0,4.0,0.0,6.0,6.0,717.6571029704064,3.0,1.0,phase_2,go,550.0,550.0,1.0,,,,,,,,,cyan,diamond
0.0,7.0,2.0,1.0,6.0,6.0,822.0806689932942,3.0,1.0,phase_2,go,550.0,550.0,1.0,,,,,,,,,green,triangle
0.0,1.0,0.5,0.0,5.0,5.0,799.4320360012352,3.0,1.0,phase_2,go,550.0,550.0,1.0,,,,,,,,,blue,I
0.0,1.0,0.5,0.0,5.0,5.0,788.933850126341,3.0,1.0,phase_2,go,550.0,550.0,1.0,,,,,,,,,blue,I
0.0,2.0,1.0,0.0,6.0,6.0,641.3976917974651,3.0,1.0,phase_2,go,550.0,550.0,1.0,,,,,,,,,gray,hexagon
0.0,2.0,1.0,0.0,6.0,6.0,611.9182140100747,3.0,1.0,phase_2,go,550.0,550.0,1.0,,,,,,,,,gray,hexagon
0.0,1.0,0.5,0.0,5.0,5.0,892.5483929924667,3.0,1.0,phase_2,go,550.0,550.0,1.0,,,,,,,,,blue,I
0.0,5.0,0.5,1.0,6.0,6.0,679.9466558732092,3.0,1.0,phase_2,stop,550.0,550.0,3.0,,,,,,,,,white,square
0.0,6.0,1.0,1.0,6.0,6.0,670.678076101467,3.0,1.0,phase_2,go,550.0,500.0,1.0,,,,,,,,,magenta,cross
0.0,7.0,2.0,1.0,5.0,0.0,0.0,3.0,1.0,phase_2,stop,550.0,500.0,4.0,,,,,,,,,green,triangle
0.0,5.0,0.5,1.0,5.0,5.0,528.3885088283569,4.0,1.0,phase_2,stop,600.0,500.0,3.0,,,,,,,,,white,square
0.0,1.0,0.5,0.0,5.0,5.0,475.7912228815257,4.0,1.0,phase_2,go,550.0,500.0,1.0,,,,,,,,,blue,I
0.0,7.0,2.0,1.0,5.0,5.0,573.3509520068765,4.0,1.0,phase_2,stop,550.0,500.0,3.0,,,,,,,,,green,triangle
0.0,8.0,4.0,1.0,5.0,0.0,0.0,4.0,1.0,phase_2,stop,500.0,500.0,4.0,,,,,,,,,yellow,circle
0.0,2.0,1.0,0.0,6.0,6.0,600.8573900908232,4.0,1.0,phase_2,go,550.0,500.0,1.0,,,,,,,,,gray,hexagon
0.0,5.0,0.5,1.0,6.0,6.0,546.6637690551579,4.0,1.0,phase_2,go,550.0,500.0,1.0,,,,,,,,,white,square
0.0,5.0,0.5,1.0,5.0,5.0,578.3119860570878,4.0,1.0,phase_2,stop,550.0,500.0,3.0,,,,,,,,,white,square
0.0,3.0,2.0,0.0,6.0,6.0,659.9040238652378,4.0,1.0,phase_2,go,500.0,500.0,1.0,,,,,,,,,orange,flipped triangle
0.0,7.0,2.0,1.0,6.0,0.0,0.0,4.0,1.0,phase_2,stop,500.0,500.0,4.0,,,,,,,,,green,triangle
0.0,1.0,0.5,0.0,6.0,6.0,704.3428202159703,4.0,1.0,phase_2,go,500.0,550.0,1.0,,,,,,,,,blue,I
0.0,2.0,1.0,0.0,5.0,5.0,686.6106039378792,4.0,1.0,phase_2,go,500.0,550.0,1.0,,,,,,,,,gray,hexagon
0.0,1.0,0.5,0.0,5.0,5.0,695.5239060334861,4.0,1.0,phase_2,go,500.0,550.0,1.0,,,,,,,,,blue,I
0.0,5.0,0.5,1.0,6.0,0.0,0.0,4.0,1.0,phase_2,stop,500.0,550.0,4.0,,,,,,,,,white,square
0.0,8.0,4.0,1.0,6.0,6.0,563.0513511132449,4.0,1.0,phase_2,stop,500.0,600.0,3.0,,,,,,,,,yellow,circle
0.0,1.0,0.5,0.0,6.0,6.0,686.8483040016145,4.0,1.0,phase_2,go,500.0,550.0,1.0,,,,,,,,,blue,I
0.0,5.0,0.5,1.0,5.0,5.0,655.4797468706965,4.0,1.0,phase_2,stop,500.0,550.0,3.0,,,,,,,,,white,square
0.0,5.0,0.5,1.0,5.0,0.0,0.0,4.0,1.0,phase_2,stop,450.0,550.0,4.0,,,,,,,,,white,square
0.0,8.0,4.0,1.0,6.0,0.0,0.0,4.0,1.0,phase_2,stop,500.0,550.0,4.0,,,,,,,,,yellow,circle
0.0,2.0,1.0,0.0,6.0,6.0,577.4818700738251,4.0,1.0,phase_2,go,500.0,600.0,1.0,,,,,,,,,gray,hexagon
0.0,1.0,0.5,0.0,5.0,5.0,816.2257301155478,4.0,1.0,phase_2,go,500.0,600.0,1.0,,,,,,,,,blue,I
0.0,3.0,2.0,0.0,6.0,6.0,679.9329509958625,4.0,1.0,phase_2,go,500.0,600.0,1.0,,,,,,,,,orange,flipped triangle
0.0,1.0,0.5,0.0,5.0,5.0,648.4923248644918,4.0,1.0,phase_2,go,500.0,600.0,1.0,,,,,,,,,blue,I
0.0,6.0,1.0,1.0,6.0,6.0,480.647160904482,4.0,1.0,phase_2,stop,500.0,600.0,3.0,,,,,,,,,magenta,cross
0.0,5.0,0.5,1.0,6.0,6.0,628.0455661471933,4.0,1.0,phase_2,go,500.0,550.0,1.0,,,,,,,,,white,square
0.0,5.0,0.5,1.0,6.0,0.0,0.0,4.0,1.0,phase_2,stop,500.0,550.0,4.0,,,,,,,,,white,square
0.0,1.0,0.5,0.0,5.0,5.0,627.9168289620429,4.0,1.0,phase_2,go,500.0,600.0,1.0,,,,,,,,,blue,I
0.0,4.0,4.0,0.0,6.0,6.0,756.0560589190573,4.0,1.0,phase_2,go,500.0,600.0,1.0,,,,,,,,,cyan,diamond
0.0,6.0,1.0,1.0,6.0,0.0,0.0,4.0,1.0,phase_2,stop,500.0,600.0,4.0,,,,,,,,,magenta,cross
0.0,5.0,0.5,1.0,5.0,0.0,0.0,4.0,1.0,phase_2,stop,500.0,650.0,4.0,,,,,,,,,white,square
0.0,6.0,1.0,1.0,6.0,6.0,673.8823419436812,4.0,1.0,phase_2,stop,550.0,650.0,3.0,,,,,,,,,magenta,cross
0.0,3.0,2.0,0.0,6.0,6.0,656.9582810625434,4.0,1.0,phase_2,go,550.0,600.0,1.0,,,,,,,,,orange,flipped triangle
0.0,1.0,0.5,0.0,6.0,6.0,578.9543520659208,4.0,1.0,phase_2,go,550.0,600.0,1.0,,,,,,,,,blue,I
0.0,4.0,4.0,0.0,5.0,5.0,611.0611348412931,4.0,1.0,phase_2,go,550.0,600.0,1.0,,,,,,,,,cyan,diamond
0.0,6.0,1.0,1.0,6.0,6.0,828.4632069990039,4.0,1.0,phase_2,go,550.0,600.0,1.0,,,,,,,,,magenta,cross
0.0,3.0,2.0,0.0,5.0,5.0,882.5119230896235,4.0,1.0,phase_2,go,550.0,600.0,1.0,,,,,,,,,orange,flipped triangle
0.0,8.0,4.0,1.0,5.0,5.0,580.3533028811216,4.0,1.0,phase_2,stop,550.0,600.0,3.0,,,,,,,,,yellow,circle
0.0,7.0,2.0,1.0,5.0,5.0,476.1938338633626,5.0,1.0,phase_2,go,500.0,600.0,1.0,,,,,,,,,green,triangle
0.0,5.0,0.5,1.0,6.0,6.0,286.6877629421651,5.0,1.0,phase_2,stop,500.0,600.0,3.0,,,,,,,,,white,square
0.0,3.0,2.0,0.0,5.0,5.0,501.83296389877796,5.0,1.0,phase_2,go,500.0,550.0,1.0,,,,,,,,,orange,flipped triangle
0.0,2.0,1.0,0.0,6.0,6.0,510.75244485400617,5.0,1.0,phase_2,go,500.0,550.0,1.0,,,,,,,,,gray,hexagon
0.0,1.0,0.5,0.0,6.0,6.0,549.1619710810483,5.0,1.0,phase_2,go,500.0,550.0,1.0,,,,,,,,,blue,I
0.0,3.0,2.0,0.0,6.0,6.0,423.2208968605846,5.0,1.0,phase_2,go,500.0,550.0,1.0,,,,,,,,,orange,flipped triangle
0.0,4.0,4.0,0.0,6.0,6.0,325.7452549878508,5.0,1.0,phase_2,go,500.0,550.0,1.0,,,,,,,,,cyan,diamond
0.0,1.0,0.5,0.0,5.0,5.0,584.0684298891574,5.0,1.0,phase_2,go,500.0,550.0,1.0,,,,,,,,,blue,I
0.0,8.0,4.0,1.0,5.0,0.0,0.0,5.0,1.0,phase_2,stop,500.0,550.0,4.0,,,,,,,,,yellow,circle
0.0,1.0,0.5,0.0,6.0,6.0,722.1676800400019,5.0,1.0,phase_2,go,550.0,550.0,1.0,,,,,,,,,blue,I
0.0,2.0,1.0,0.0,5.0,5.0,314.8796188179403,5.0,1.0,phase_2,go,550.0,550.0,1.0,,,,,,,,,gray,hexagon
0.0,8.0,4.0,1.0,5.0,0.0,0.0,5.0,1.0,phase_2,stop,550.0,550.0,4.0,,,,,,,,,yellow,circle
0.0,7.0,2.0,1.0,5.0,5.0,453.4918710123747,5.0,1.0,phase_2,stop,600.0,550.0,3.0,,,,,,,,,green,triangle
0.0,4.0,4.0,0.0,5.0,5.0,485.4526529088616,5.0,1.0,phase_2,go,550.0,550.0,1.0,,,,,,,,,cyan,diamond
0.0,2.0,1.0,0.0,5.0,5.0,497.8138329461217,5.0,1.0,phase_2,go,550.0,550.0,1.0,,,,,,,,,gray,hexagon
0.0,4.0,4.0,0.0,6.0,6.0,849.8255219310522,5.0,1.0,phase_2,go,550.0,550.0,1.0,,,,,,,,,cyan,diamond
0.0,1.0,0.5,0.0,6.0,6.0,476.8947421107441,5.0,1.0,phase_2,go,550.0,550.0,1.0,,,,,,,,,blue,I
0.0,1.0,0.5,0.0,6.0,6.0,502.42993817664683,5.0,1.0,phase_2,go,550.0,550.0,1.0,,,,,,,,,blue,I
0.0,8.0,4.0,1.0,5.0,5.0,511.982677038759,5.0,1.0,phase_2,go,550.0,550.0,1.0,,,,,,,,,yellow,circle
0.0,5.0,0.5,1.0,6.0,6.0,593.9892379101366,5.0,1.0,phase_2,stop,550.0,550.0,3.0,,,,,,,,,white,square
0.0,8.0,4.0,1.0,6.0,6.0,314.3107900395989,5.0,1.0,phase_2,stop,550.0,500.0,3.0,,,,,,,,,yellow,circle
0.0,7.0,2.0,1.0,6.0,6.0,415.8208828885108,5.0,1.0,phase_2,go,550.0,450.0,1.0,,,,,,,,,green,triangle
0.0,2.0,1.0,0.0,6.0,6.0,493.4252931270748,5.0,1.0,phase_2,go,550.0,450.0,1.0,,,,,,,,,gray,hexagon
0.0,6.0,1.0,1.0,6.0,6.0,437.8228238783777,5.0,1.0,phase_2,stop,550.0,450.0,3.0,,,,,,,,,magenta,cross
0.0,8.0,4.0,1.0,6.0,6.0,472.201487980783,5.0,1.0,phase_2,go,550.0,400.0,1.0,,,,,,,,,yellow,circle
0.0,8.0,4.0,1.0,5.0,5.0,644.4888198748231,5.0,1.0,phase_2,stop,550.0,400.0,3.0,,,,,,,,,yellow,circle
0.0,2.0,1.0,0.0,5.0,5.0,566.9237279798836,5.0,1.0,phase_2,go,500.0,400.0,1.0,,,,,,,,,gray,hexagon
0.0,3.0,2.0,0.0,5.0,5.0,443.6653768643737,5.0,1.0,phase_2,go,500.0,400.0,1.0,,,,,,,,,orange,flipped triangle
0.0,1.0,0.5,0.0,6.0,6.0,317.6693997811526,5.0,1.0,phase_2,go,500.0,400.0,1.0,,,,,,,,,blue,I
0.0,6.0,1.0,1.0,5.0,5.0,309.8644809797406,5.0,1.0,phase_2,stop,500.0,400.0,3.0,,,,,,,,,magenta,cross
0.0,6.0,1.0,1.0,6.0,6.0,432.1585597936064,5.0,1.0,phase_2,stop,450.0,400.0,3.0,,,,,,,,,magenta,cross
0.0,7.0,2.0,1.0,5.0,0.0,0.0,5.0,1.0,phase_2,stop,450.0,350.0,4.0,,,,,,,,,green,triangle
0.0,3.0,2.0,0.0,5.0,5.0,572.1241519786417,5.0,1.0,phase_2,go,500.0,350.0,1.0,,,,,,,,,orange,flipped triangle
0.0,5.0,0.5,1.0,6.0,6.0,693.1362969335169,5.0,1.0,phase_2,go,500.0,350.0,1.0,,,,,,,,,white,square
0.0,5.0,0.5,1.0,5.0,5.0,619.45670703426,5.0,1.0,phase_2,stop,500.0,350.0,3.0,,,,,,,,,white,square
0.0,7.0,2.0,1.0,5.0,0.0,0.0,5.0,1.0,phase_2,stop,450.0,350.0,4.0,,,,,,,,,green,triangle
0.0,6.0,1.0,1.0,6.0,6.0,572.02187506482,6.0,1.0,phase_2,go,500.0,350.0,1.0,,,,,,,,,magenta,cross
0.0,1.0,0.5,0.0,6.0,6.0,358.1912270747125,6.0,1.0,phase_2,go,500.0,350.0,1.0,,,,,,,,,blue,I
0.0,8.0,4.0,1.0,6.0,6.0,357.1820368524641,6.0,1.0,phase_2,go,500.0,350.0,1.0,,,,,,,,,yellow,circle
0.0,3.0,2.0,0.0,6.0,6.0,351.1184840463102,6.0,1.0,phase_2,go,500.0,350.0,1.0,,,,,,,,,orange,flipped triangle
0.0,2.0,1.0,0.0,5.0,5.0,517.9321721661836,6.0,1.0,phase_2,go,500.0,350.0,1.0,,,,,,,,,gray,hexagon
0.0,6.0,1.0,1.0,5.0,5.0,348.9933609962463,6.0,1.0,phase_2,go,500.0,350.0,1.0,,,,,,,,,magenta,cross
0.0,3.0,2.0,0.0,5.0,5.0,405.8910920284688,6.0,1.0,phase_2,go,500.0,350.0,1.0,,,,,,,,,orange,flipped triangle
0.0,6.0,1.0,1.0,6.0,6.0,420.1188220176846,6.0,1.0,phase_2,stop,500.0,350.0,3.0,,,,,,,,,magenta,cross
0.0,5.0,0.5,1.0,5.0,0.0,0.0,6.0,1.0,phase_2,stop,500.0,300.0,4.0,,,,,,,,,white,square
0.0,7.0,2.0,1.0,5.0,5.0,397.6103230379522,6.0,1.0,phase_2,go,550.0,300.0,1.0,,,,,,,,,green,triangle
0.0,8.0,4.0,1.0,5.0,0.0,0.0,6.0,1.0,phase_2,stop,550.0,300.0,4.0,,,,,,,,,yellow,circle
0.0,1.0,0.5,0.0,6.0,6.0,624.8768849764019,6.0,1.0,phase_2,go,600.0,300.0,1.0,,,,,,,,,blue,I
0.0,3.0,2.0,0.0,6.0,6.0,839.3557628151029,6.0,1.0,phase_2,go,600.0,300.0,1.0,,,,,,,,,orange,flipped triangle
0.0,3.0,2.0,0.0,6.0,6.0,581.4193759579211,6.0,1.0,phase_2,go,600.0,300.0,1.0,,,,,,,,,orange,flipped triangle
0.0,4.0,4.0,0.0,5.0,5.0,795.111085055396,6.0,1.0,phase_2,go,600.0,300.0,1.0,,,,,,,,,cyan,diamond
0.0,2.0,1.0,0.0,5.0,5.0,650.3582738805562,6.0,1.0,phase_2,go,600.0,300.0,1.0,,,,,,,,,gray,hexagon
0.0,4.0,4.0,0.0,6.0,6.0,438.5500829666853,6.0,1.0,phase_2,go,600.0,300.0,1.0,,,,,,,,,cyan,diamond
0.0,7.0,2.0,1.0,5.0,5.0,585.8697530347854,6.0,1.0,phase_2,stop,600.0,300.0,3.0,,,,,,,,,green,triangle
0.0,1.0,0.5,0.0,5.0,5.0,596.803851891309,6.0,1.0,phase_2,go,550.0,300.0,1.0,,,,,,,,,blue,I
0.0,5.0,0.5,1.0,5.0,0.0,0.0,6.0,1.0,phase_2,stop,550.0,300.0,4.0,,,,,,,,,white,square
0.0,4.0,4.0,0.0,5.0,5.0,665.5214349739254,6.0,1.0,phase_2,go,600.0,300.0,1.0,,,,,,,,,cyan,diamond
0.0,6.0,1.0,1.0,5.0,5.0,478.3960818313062,6.0,1.0,phase_2,stop,600.0,300.0,3.0,,,,,,,,,magenta,cross
0.0,6.0,1.0,1.0,5.0,0.0,0.0,6.0,1.0,phase_2,stop,550.0,300.0,4.0,,,,,,,,,magenta,cross
0.0,4.0,4.0,0.0,6.0,6.0,655.8897020295262,6.0,1.0,phase_2,go,600.0,300.0,1.0,,,,,,,,,cyan,diamond
0.0,1.0,0.5,0.0,6.0,6.0,761.9084359612316,6.0,1.0,phase_2,go,600.0,300.0,1.0,,,,,,,,,blue,I
0.0,8.0,4.0,1.0,5.0,0.0,0.0,6.0,1.0,phase_2,stop,600.0,300.0,4.0,,,,,,,,,yellow,circle
0.0,4.0,4.0,0.0,5.0,5.0,692.5892948638648,6.0,1.0,phase_2,go,650.0,300.0,1.0,,,,,,,,,cyan,diamond
0.0,3.0,2.0,0.0,6.0,6.0,683.479439932853,6.0,1.0,phase_2,go,650.0,300.0,1.0,,,,,,,,,orange,flipped triangle
0.0,4.0,4.0,0.0,6.0,6.0,447.2626149654388,6.0,1.0,phase_2,go,650.0,300.0,1.0,,,,,,,,,cyan,diamond
0.0,3.0,2.0,0.0,5.0,5.0,753.321616910398,6.0,1.0,phase_2,go,650.0,300.0,1.0,,,,,,,,,orange,flipped triangle
0.0,3.0,2.0,0.0,5.0,5.0,561.3595510367304,6.0,1.0,phase_2,go,650.0,300.0,1.0,,,,,,,,,orange,flipped triangle
0.0,8.0,4.0,1.0,5.0,5.0,596.2316109798849,6.0,1.0,phase_2,go,650.0,300.0,1.0,,,,,,,,,yellow,circle
0.0,7.0,2.0,1.0,5.0,5.0,776.4145359396935,6.0,1.0,phase_2,stop,650.0,300.0,3.0,,,,,,,,,green,triangle
0.0,3.0,2.0,0.0,6.0,6.0,564.0827692113817,6.0,1.0,phase_2,go,600.0,300.0,1.0,,,,,,,,,orange,flipped triangle
0.0,2.0,1.0,0.0,5.0,5.0,553.2440810929984,6.0,1.0,phase_2,go,600.0,300.0,1.0,,,,,,,,,gray,hexagon
0.0,3.0,2.0,0.0,5.0,5.0,454.1037150193006,6.0,1.0,phase_2,go,600.0,300.0,1.0,,,,,,,,,orange,flipped triangle
0.0,1.0,0.5,0.0,5.0,5.0,324.1920380387455,7.0,1.0,phase_2,go,600.0,300.0,1.0,,,,,,,,,blue,I
0.0,7.0,2.0,1.0,6.0,6.0,403.1814869958907,7.0,1.0,phase_2,stop,600.0,300.0,3.0,,,,,,,,,green,triangle
0.0,6.0,1.0,1.0,6.0,6.0,441.3015909958631,7.0,1.0,phase_2,go,600.0,250.0,1.0,,,,,,,,,magenta,cross
0.0,6.0,1.0,1.0,5.0,5.0,498.9999521058053,7.0,1.0,phase_2,go,600.0,250.0,1.0,,,,,,,,,magenta,cross
0.0,1.0,0.5,0.0,5.0,5.0,531.5234269946814,7.0,1.0,phase_2,go,600.0,250.0,1.0,,,,,,,,,blue,I
0.0,2.0,1.0,0.0,5.0,5.0,354.7427980229258,7.0,1.0,phase_2,go,600.0,250.0,1.0,,,,,,,,,gray,hexagon
0.0,8.0,4.0,1.0,6.0,0.0,0.0,7.0,1.0,phase_2,stop,600.0,250.0,4.0,,,,,,,,,yellow,circle
0.0,8.0,4.0,1.0,6.0,0.0,0.0,7.0,1.0,phase_2,stop,600.0,300.0,4.0,,,,,,,,,yellow,circle
0.0,2.0,1.0,0.0,5.0,5.0,353.7789571564644,7.0,1.0,phase_2,go,600.0,350.0,1.0,,,,,,,,,gray,hexagon
0.0,6.0,1.0,1.0,5.0,5.0,620.459372876212,7.0,1.0,phase_2,stop,600.0,350.0,3.0,,,,,,,,,magenta,cross
0.0,2.0,1.0,0.0,6.0,6.0,515.8936688676476,7.0,1.0,phase_2,go,550.0,350.0,1.0,,,,,,,,,gray,hexagon
0.0,4.0,4.0,0.0,5.0,5.0,659.561445005238,7.0,1.0,phase_2,go,550.0,350.0,1.0,,,,,,,,,cyan,diamond
0.0,8.0,4.0,1.0,6.0,0.0,0.0,7.0,1.0,phase_2,stop,550.0,350.0,4.0,,,,,,,,,yellow,circle
0.0,1.0,0.5,0.0,5.0,5.0,641.6539140045643,7.0,1.0,phase_2,go,550.0,400.0,1.0,,,,,,,,,blue,I
0.0,2.0,1.0,0.0,5.0,5.0,608.3410268183798,7.0,1.0,phase_2,go,550.0,400.0,1.0,,,,,,,,,gray,hexagon
0.0,5.0,0.5,1.0,5.0,0.0,0.0,7.0,1.0,phase_2,stop,550.0,400.0,4.0,,,,,,,,,white,square
0.0,6.0,1.0,1.0,6.0,0.0,0.0,7.0,1.0,phase_2,stop,600.0,400.0,4.0,,,,,,,,,magenta,cross
0.0,3.0,2.0,0.0,5.0,5.0,530.0251401495188,7.0,1.0,phase_2,go,600.0,450.0,1.0,,,,,,,,,orange,flipped triangle
0.0,3.0,2.0,0.0,6.0,6.0,609.2783769126981,7.0,1.0,phase_2,go,600.0,450.0,1.0,,,,,,,,,orange,flipped triangle
0.0,2.0,1.0,0.0,5.0,5.0,669.0958079416305,7.0,1.0,phase_2,go,600.0,450.0,1.0,,,,,,,,,gray,hexagon
0.0,4.0,4.0,0.0,5.0,5.0,454.8472231253981,7.0,1.0,phase_2,go,600.0,450.0,1.0,,,,,,,,,cyan,diamond
0.0,4.0,4.0,0.0,6.0,6.0,636.8739469908178,7.0,1.0,phase_2,go,600.0,450.0,1.0,,,,,,,,,cyan,diamond
0.0,2.0,1.0,0.0,6.0,6.0,514.5691018551588,7.0,1.0,phase_2,go,600.0,450.0,1.0,,,,,,,,,gray,hexagon
0.0,4.0,4.0,0.0,5.0,5.0,346.8245568219572,7.0,1.0,phase_2,go,600.0,450.0,1.0,,,,,,,,,cyan,diamond
0.0,7.0,2.0,1.0,5.0,5.0,445.1864811126143,7.0,1.0,phase_2,stop,600.0,450.0,3.0,,,,,,,,,green,triangle
0.0,3.0,2.0,0.0,6.0,6.0,662.1667919680476,7.0,1.0,phase_2,go,550.0,450.0,1.0,,,,,,,,,orange,flipped triangle
0.0,8.0,4.0,1.0,5.0,5.0,810.067730024457,7.0,1.0,phase_2,go,550.0,450.0,1.0,,,,,,,,,yellow,circle
0.0,3.0,2.0,0.0,5.0,5.0,527.8564600739628,7.0,1.0,phase_2,go,550.0,450.0,1.0,,,,,,,,,orange,flipped triangle
0.0,2.0,1.0,0.0,6.0,6.0,450.8925259578973,7.0,1.0,phase_2,go,550.0,450.0,1.0,,,,,,,,,gray,hexagon
0.0,4.0,4.0,0.0,5.0,5.0,361.4267848897725,7.0,1.0,phase_2,go,550.0,450.0,1.0,,,,,,,,,cyan,diamond
0.0,2.0,1.0,0.0,5.0,5.0,485.9449740033597,7.0,1.0,phase_2,go,550.0,450.0,1.0,,,,,,,,,gray,hexagon
0.0,8.0,4.0,1.0,6.0,6.0,611.4222519099712,7.0,1.0,phase_2,stop,550.0,450.0,3.0,,,,,,,,,yellow,circle
0.0,8.0,4.0,1.0,6.0,0.0,0.0,7.0,1.0,phase_2,stop,550.0,400.0,4.0,,,,,,,,,yellow,circle
0.0,7.0,2.0,1.0,6.0,6.0,713.6423708871007,7.0,1.0,phase_2,go,550.0,450.0,1.0,,,,,,,,,green,triangle
0.0,7.0,2.0,1.0,5.0,0.0,0.0,7.0,1.0,phase_2,stop,550.0,450.0,4.0,,,,,,,,,green,triangle
0.0,3.0,2.0,0.0,6.0,6.0,555.9847659897059,7.0,1.0,phase_2,go,600.0,450.0,1.0,,,,,,,,,orange,flipped triangle
0.0,8.0,4.0,1.0,6.0,6.0,507.63615407049656,8.0,1.0,phase_2,stop,600.0,450.0,3.0,,,,,,,,,yellow,circle
0.0,3.0,2.0,0.0,5.0,5.0,495.1412461232394,8.0,1.0,phase_2,go,600.0,400.0,1.0,,,,,,,,,orange,flipped triangle
0.0,6.0,1.0,1.0,6.0,6.0,397.2876048646867,8.0,1.0,phase_2,stop,600.0,400.0,3.0,,,,,,,,,magenta,cross
0.0,5.0,0.5,1.0,5.0,5.0,567.3756119795144,8.0,1.0,phase_2,go,600.0,350.0,1.0,,,,,,,,,white,square
0.0,5.0,0.5,1.0,6.0,0.0,0.0,8.0,1.0,phase_2,stop,600.0,350.0,4.0,,,,,,,,,white,square
0.0,5.0,0.5,1.0,6.0,0.0,0.0,8.0,1.0,phase_2,stop,600.0,400.0,4.0,,,,,,,,,white,square
0.0,1.0,0.5,0.0,6.0,6.0,536.5392209496349,8.0,1.0,phase_2,go,600.0,450.0,1.0,,,,,,,,,blue,I
0.0,6.0,1.0,1.0,5.0,5.0,625.2094788942486,8.0,1.0,phase_2,stop,600.0,450.0,3.0,,,,,,,,,magenta,cross
0.0,3.0,2.0,0.0,6.0,6.0,695.228602970019,8.0,1.0,phase_2,go,550.0,450.0,1.0,,,,,,,,,orange,flipped triangle
0.0,8.0,4.0,1.0,6.0,0.0,0.0,8.0,1.0,phase_2,stop,550.0,450.0,4.0,,,,,,,,,yellow,circle
0.0,7.0,2.0,1.0,5.0,0.0,0.0,8.0,1.0,phase_2,stop,550.0,500.0,4.0,,,,,,,,,green,triangle
0.0,1.0,0.5,0.0,5.0,5.0,685.3762108366936,8.0,1.0,phase_2,go,600.0,500.0,1.0,,,,,,,,,blue,I
0.0,5.0,0.5,1.0,6.0,0.0,0.0,8.0,1.0,phase_2,stop,600.0,500.0,4.0,,,,,,,,,white,square
0.0,6.0,1.0,1.0,6.0,0.0,0.0,8.0,1.0,phase_2,stop,600.0,550.0,4.0,,,,,,,,,magenta,cross
0.0,8.0,4.0,1.0,5.0,0.0,0.0,8.0,1.0,phase_2,stop,600.0,600.0,4.0,,,,,,,,,yellow,circle
0.0,8.0,4.0,1.0,6.0,6.0,732.5650420971215,8.0,1.0,phase_2,go,650.0,600.0,1.0,,,,,,,,,yellow,circle
0.0,2.0,1.0,0.0,6.0,6.0,633.8156939018518,8.0,1.0,phase_2,go,650.0,600.0,1.0,,,,,,,,,gray,hexagon
0.0,3.0,2.0,0.0,6.0,6.0,758.1806119997054,8.0,1.0,phase_2,go,650.0,600.0,1.0,,,,,,,,,orange,flipped triangle
0.0,4.0,4.0,0.0,5.0,5.0,636.6010459605604,8.0,1.0,phase_2,go,650.0,600.0,1.0,,,,,,,,,cyan,diamond
0.0,8.0,4.0,1.0,5.0,5.0,626.3348928187042,8.0,1.0,phase_2,stop,650.0,600.0,3.0,,,,,,,,,yellow,circle
0.0,4.0,4.0,0.0,5.0,5.0,646.2263478897512,8.0,1.0,phase_2,go,600.0,600.0,1.0,,,,,,,,,cyan,diamond
0.0,7.0,2.0,1.0,6.0,0.0,0.0,8.0,1.0,phase_2,stop,600.0,600.0,4.0,,,,,,,,,green,triangle
0.0,5.0,0.5,1.0,5.0,5.0,647.7528989780694,8.0,1.0,phase_2,stop,600.0,650.0,3.0,,,,,,,,,white,square
0.0,4.0,4.0,0.0,6.0,6.0,728.3008210361004,8.0,1.0,phase_2,go,550.0,650.0,1.0,,,,,,,,,cyan,diamond
0.0,2.0,1.0,0.0,5.0,5.0,536.7199177853763,8.0,1.0,phase_2,go,550.0,650.0,1.0,,,,,,,,,gray,hexagon
0.0,6.0,1.0,1.0,5.0,0.0,0.0,8.0,1.0,phase_2,stop,550.0,650.0,4.0,,,,,,,,,magenta,cross
0.0,8.0,4.0,1.0,5.0,0.0,0.0,8.0,1.0,phase_2,stop,600.0,650.0,4.0,,,,,,,,,yellow,circle
0.0,4.0,4.0,0.0,6.0,6.0,956.4394201152028,8.0,1.0,phase_2,go,650.0,650.0,1.0,,,,,,,,,cyan,diamond
0.0,7.0,2.0,1.0,6.0,6.0,789.8447380866855,8.0,1.0,phase_2,stop,650.0,650.0,3.0,,,,,,,,,green,triangle
0.0,6.0,1.0,1.0,5.0,0.0,0.0,8.0,1.0,phase_2,stop,650.0,600.0,4.0,,,,,,,,,magenta,cross
0.0,3.0,2.0,0.0,6.0,6.0,567.0782569795847,8.0,1.0,phase_2,go,700.0,600.0,1.0,,,,,,,,,orange,flipped triangle
0.0,2.0,1.0,0.0,6.0,6.0,746.1917370092124,8.0,1.0,phase_2,go,700.0,600.0,1.0,,,,,,,,,gray,hexagon
0.0,4.0,4.0,0.0,6.0,6.0,847.831373102963,8.0,1.0,phase_2,go,700.0,600.0,1.0,,,,,,,,,cyan,diamond
0.0,3.0,2.0,0.0,6.0,6.0,791.5183450095356,8.0,1.0,phase_2,go,700.0,600.0,1.0,,,,,,,,,orange,flipped triangle
0.0,4.0,4.0,0.0,5.0,5.0,601.95880709216,8.0,1.0,phase_2,go,700.0,600.0,1.0,,,,,,,,,cyan,diamond
0.0,3.0,2.0,0.0,5.0,5.0,568.9211059361696,8.0,1.0,phase_2,go,700.0,600.0,1.0,,,,,,,,,orange,flipped triangle
0.0,3.0,2.0,0.0,7.0,3.0,3749.3442639242858,1.0,1.0,phase_3,,,,,78.0,2.0,234.0,156.0,78.0,39.0,117.0,195.0,orange,flipped triangle
0.0,2.0,1.0,0.0,7.0,4.0,2459.521837066859,1.0,1.0,phase_3,,,,,264.0,6.0,220.0,176.0,132.0,264.0,44.0,88.0,gray,hexagon
0.0,5.0,0.5,1.0,7.0,3.0,2257.832403993234,1.0,1.0,phase_3,,,,,39.0,1.0,117.0,156.0,39.0,78.0,195.0,234.0,white,square
0.0,8.0,4.0,1.0,7.0,1.0,843.5794261749834,1.0,1.0,phase_3,,,,,44.0,1.0,44.0,264.0,220.0,88.0,176.0,132.0,yellow,circle
0.0,4.0,4.0,0.0,7.0,3.0,2792.5115381367505,1.0,1.0,phase_3,,,,,54.0,1.0,324.0,270.0,54.0,162.0,108.0,216.0,cyan,diamond
0.0,4.0,4.0,0.0,7.0,5.0,2703.3972640056163,1.0,1.0,phase_3,,,,,34.0,1.0,204.0,102.0,170.0,68.0,34.0,136.0,cyan,diamond
0.0,5.0,0.5,1.0,7.0,1.0,1948.5840969718995,1.0,1.0,phase_3,,,,,264.0,6.0,264.0,176.0,88.0,132.0,44.0,220.0,white,square
0.0,1.0,0.5,0.0,7.0,3.0,2410.7390108983964,1.0,1.0,phase_3,,,,,176.0,4.0,132.0,220.0,176.0,44.0,88.0,264.0,blue,I
0.0,5.0,0.5,1.0,7.0,1.0,2613.886591978371,1.0,1.0,phase_3,,,,,147.0,3.0,147.0,245.0,196.0,98.0,294.0,49.0,white,square
0.0,3.0,2.0,0.0,7.0,4.0,2189.1057130414997,1.0,1.0,phase_3,,,,,216.0,4.0,324.0,108.0,270.0,216.0,162.0,54.0,orange,flipped triangle
0.0,6.0,1.0,1.0,7.0,3.0,3089.42485996522,1.0,1.0,phase_3,,,,,220.0,5.0,44.0,132.0,220.0,176.0,264.0,88.0,magenta,cross
0.0,6.0,1.0,1.0,7.0,5.0,3461.72010502778,1.0,1.0,phase_3,,,,,102.0,3.0,68.0,136.0,34.0,204.0,102.0,170.0,magenta,cross
0.0,1.0,0.5,0.0,7.0,2.0,2134.9416009616107,1.0,1.0,phase_3,,,,,270.0,5.0,54.0,270.0,162.0,216.0,108.0,324.0,blue,I
0.0,3.0,2.0,0.0,7.0,1.0,3485.3397698607296,1.0,1.0,phase_3,,,,,264.0,6.0,264.0,88.0,44.0,132.0,176.0,220.0,orange,flipped triangle
0.0,7.0,2.0,1.0,7.0,6.0,2811.216781148687,1.0,1.0,phase_3,,,,,132.0,3.0,176.0,220.0,88.0,44.0,264.0,132.0,green,triangle
0.0,6.0,1.0,1.0,7.0,3.0,4591.187235200778,1.0,1.0,phase_3,,,,,108.0,2.0,162.0,324.0,108.0,54.0,216.0,270.0,magenta,cross
0.0,4.0,4.0,0.0,7.0,3.0,2930.16548990272,1.0,1.0,phase_3,,,,,216.0,4.0,270.0,162.0,216.0,108.0,324.0,54.0,cyan,diamond
0.0,2.0,1.0,0.0,7.0,5.0,1995.6104648299515,1.0,1.0,phase_3,,,,,49.0,1.0,196.0,245.0,147.0,294.0,49.0,98.0,gray,hexagon
0.0,3.0,2.0,0.0,7.0,4.0,3247.806061990559,1.0,1.0,phase_3,,,,,68.0,2.0,136.0,170.0,102.0,68.0,34.0,204.0,orange,flipped triangle
0.0,2.0,1.0,0.0,7.0,3.0,3674.248175928369,1.0,1.0,phase_3,,,,,39.0,1.0,234.0,156.0,39.0,117.0,78.0,195.0,gray,hexagon
0.0,7.0,2.0,1.0,7.0,4.0,1518.7911491375417,2.0,1.0,phase_3,,,,,264.0,6.0,132.0,44.0,176.0,264.0,88.0,220.0,green,triangle
0.0,1.0,0.5,0.0,7.0,6.0,2663.9275138732046,2.0,1.0,phase_3,,,,,132.0,3.0,220.0,264.0,88.0,176.0,44.0,132.0,blue,I
0.0,2.0,1.0,0.0,7.0,6.0,1202.281454810873,2.0,1.0,phase_3,,,,,49.0,1.0,98.0,245.0,147.0,196.0,294.0,49.0,gray,hexagon
0.0,7.0,2.0,1.0,7.0,6.0,3704.493846045807,2.0,1.0,phase_3,,,,,324.0,6.0,162.0,270.0,216.0,54.0,108.0,324.0,green,triangle
0.0,8.0,4.0,1.0,7.0,1.0,3164.7799650672823,2.0,1.0,phase_3,,,,,216.0,4.0,216.0,324.0,162.0,270.0,108.0,54.0,yellow,circle
0.0,2.0,1.0,0.0,7.0,2.0,2150.684673106298,2.0,1.0,phase_3,,,,,39.0,1.0,78.0,39.0,195.0,156.0,117.0,234.0,gray,hexagon
0.0,8.0,4.0,1.0,7.0,5.0,2804.46160514839,2.0,1.0,phase_3,,,,,195.0,5.0,117.0,78.0,156.0,234.0,195.0,39.0,yellow,circle
0.0,1.0,0.5,0.0,7.0,1.0,2649.426608113572,2.0,1.0,phase_3,,,,,294.0,6.0,294.0,196.0,147.0,245.0,49.0,98.0,blue,I
0.0,2.0,1.0,0.0,7.0,2.0,1749.4455550331622,2.0,1.0,phase_3,,,,,54.0,1.0,216.0,54.0,108.0,324.0,270.0,162.0,gray,hexagon
0.0,5.0,0.5,1.0,7.0,3.0,2426.245650043711,2.0,1.0,phase_3,,,,,147.0,3.0,245.0,49.0,147.0,196.0,294.0,98.0,white,square
0.0,8.0,4.0,1.0,7.0,2.0,1529.0632450487465,2.0,1.0,phase_3,,,,,170.0,5.0,136.0,170.0,34.0,204.0,68.0,102.0,yellow,circle
0.0,3.0,2.0,0.0,7.0,4.0,3328.8662990089506,2.0,1.0,phase_3,,,,,78.0,2.0,117.0,39.0,156.0,78.0,195.0,234.0,orange,flipped triangle
0.0,2.0,1.0,0.0,7.0,2.0,2203.376296907664,2.0,1.0,phase_3,,,,,34.0,1.0,102.0,34.0,136.0,170.0,68.0,204.0,gray,hexagon
0.0,5.0,0.5,1.0,7.0,1.0,2747.602593852207,2.0,1.0,phase_3,,,,,117.0,3.0,117.0,39.0,195.0,78.0,234.0,156.0,white,square
0.0,1.0,0.5,0.0,7.0,6.0,3064.696640940383,2.0,1.0,phase_3,,,,,102.0,3.0,136.0,204.0,68.0,34.0,170.0,102.0,blue,I
0.0,6.0,1.0,1.0,7.0,2.0,2589.95675877668,2.0,1.0,phase_3,,,,,102.0,3.0,136.0,102.0,68.0,204.0,34.0,170.0,magenta,cross
0.0,4.0,4.0,0.0,7.0,2.0,2614.5066500175744,2.0,1.0,phase_3,,,,,156.0,4.0,39.0,156.0,117.0,234.0,195.0,78.0,cyan,diamond
0.0,3.0,2.0,0.0,7.0,4.0,2594.3688359111547,2.0,1.0,phase_3,,,,,162.0,3.0,216.0,324.0,108.0,162.0,54.0,270.0,orange,flipped triangle
0.0,1.0,0.5,0.0,7.0,2.0,3717.5659239292154,2.0,1.0,phase_3,,,,,156.0,4.0,195.0,156.0,39.0,78.0,234.0,117.0,blue,I
0.0,6.0,1.0,1.0,7.0,1.0,1268.804243998602,2.0,1.0,phase_3,,,,,294.0,6.0,294.0,98.0,245.0,147.0,196.0,49.0,magenta,cross
0.0,2.0,1.0,0.0,7.0,6.0,2175.715219927952,3.0,1.0,phase_3,,,,,34.0,1.0,136.0,170.0,102.0,204.0,68.0,34.0,gray,hexagon
0.0,1.0,0.5,0.0,7.0,1.0,1952.9056488536296,3.0,1.0,phase_3,,,,,170.0,5.0,170.0,204.0,68.0,136.0,102.0,34.0,blue,I
0.0,6.0,1.0,1.0,7.0,6.0,1999.649787088856,3.0,1.0,phase_3,,,,,324.0,6.0,108.0,54.0,216.0,270.0,162.0,324.0,magenta,cross
0.0,8.0,4.0,1.0,7.0,1.0,1672.7632600814104,3.0,1.0,phase_3,,,,,117.0,3.0,117.0,156.0,39.0,78.0,234.0,195.0,yellow,circle
0.0,8.0,4.0,1.0,7.0,1.0,3207.5197130907327,3.0,1.0,phase_3,,,,,270.0,5.0,270.0,162.0,216.0,324.0,54.0,108.0,yellow,circle
0.0,4.0,4.0,0.0,7.0,6.0,2038.93429110758,3.0,1.0,phase_3,,,,,132.0,3.0,44.0,88.0,220.0,176.0,264.0,132.0,cyan,diamond
0.0,7.0,2.0,1.0,7.0,3.0,2105.4735449142754,3.0,1.0,phase_3,,,,,216.0,4.0,54.0,162.0,216.0,108.0,270.0,324.0,green,triangle
0.0,6.0,1.0,1.0,7.0,2.0,1610.9116338193417,3.0,1.0,phase_3,,,,,294.0,6.0,196.0,294.0,147.0,98.0,49.0,245.0,magenta,cross
0.0,1.0,0.5,0.0,7.0,4.0,1704.434661893174,3.0,1.0,phase_3,,,,,324.0,6.0,108.0,54.0,162.0,324.0,216.0,270.0,blue,I
0.0,3.0,2.0,0.0,7.0,2.0,1556.5114519558847,3.0,1.0,phase_3,,,,,170.0,5.0,204.0,170.0,136.0,34.0,102.0,68.0,orange,flipped triangle
0.0,4.0,4.0,0.0,7.0,6.0,1241.7792789638042,3.0,1.0,phase_3,,,,,234.0,6.0,78.0,156.0,195.0,39.0,117.0,234.0,cyan,diamond
0.0,6.0,1.0,1.0,7.0,2.0,2169.150070985779,3.0,1.0,phase_3,,,,,195.0,5.0,39.0,195.0,78.0,117.0,234.0,156.0,magenta,cross
0.0,7.0,2.0,1.0,7.0,1.0,2932.4842980131507,3.0,1.0,phase_3,,,,,102.0,3.0,102.0,34.0,68.0,136.0,204.0,170.0,green,triangle
0.0,4.0,4.0,0.0,7.0,4.0,2168.212543008849,3.0,1.0,phase_3,,,,,147.0,3.0,294.0,245.0,98.0,147.0,49.0,196.0,cyan,diamond
0.0,8.0,4.0,1.0,7.0,2.0,1080.4452542215586,3.0,1.0,phase_3,,,,,147.0,3.0,49.0,147.0,196.0,98.0,294.0,245.0,yellow,circle
0.0,3.0,2.0,0.0,7.0,3.0,1843.6934968922287,3.0,1.0,phase_3,,,,,98.0,2.0,147.0,196.0,98.0,294.0,49.0,245.0,orange,flipped triangle
0.0,7.0,2.0,1.0,7.0,4.0,1642.0005671679974,3.0,1.0,phase_3,,,,,136.0,4.0,204.0,34.0,102.0,136.0,68.0,170.0,green,triangle
0.0,3.0,2.0,0.0,7.0,5.0,1320.701332995668,3.0,1.0,phase_3,,,,,147.0,3.0,49.0,196.0,98.0,294.0,147.0,245.0,orange,flipped triangle
0.0,7.0,2.0,1.0,7.0,4.0,1073.514746967703,3.0,1.0,phase_3,,,,,147.0,3.0,49.0,294.0,98.0,147.0,245.0,196.0,green,triangle
0.0,7.0,2.0,1.0,7.0,1.0,1319.9511640705168,3.0,1.0,phase_3,,,,,195.0,5.0,195.0,234.0,39.0,78.0,156.0,117.0,green,triangle
0.0,2.0,1.0,0.0,7.0,6.0,1550.6708601024002,4.0,1.0,phase_3,,,,,44.0,1.0,176.0,88.0,132.0,220.0,264.0,44.0,gray,hexagon
0.0,2.0,1.0,0.0,7.0,5.0,1392.6142167765647,4.0,1.0,phase_3,,,,,54.0,1.0,324.0,216.0,108.0,270.0,54.0,162.0,gray,hexagon
0.0,4.0,4.0,0.0,7.0,2.0,2159.89570110105,4.0,1.0,phase_3,,,,,132.0,3.0,88.0,132.0,264.0,220.0,44.0,176.0,cyan,diamond
0.0,3.0,2.0,0.0,7.0,3.0,1622.9929700493813,4.0,1.0,phase_3,,,,,44.0,1.0,88.0,132.0,44.0,176.0,264.0,220.0,orange,flipped triangle
0.0,1.0,0.5,0.0,7.0,6.0,1623.4064169693738,4.0,1.0,phase_3,,,,,245.0,5.0,98.0,294.0,49.0,147.0,196.0,245.0,blue,I
0.0,8.0,4.0,1.0,7.0,5.0,1107.896622037515,4.0,1.0,phase_3,,,,,170.0,5.0,204.0,102.0,34.0,68.0,170.0,136.0,yellow,circle
0.0,5.0,0.5,1.0,7.0,3.0,2265.317239100113,4.0,1.0,phase_3,,,,,270.0,5.0,324.0,108.0,270.0,216.0,54.0,162.0,white,square
0.0,1.0,0.5,0.0,7.0,4.0,1544.9937200173736,4.0,1.0,phase_3,,,,,195.0,5.0,78.0,156.0,117.0,195.0,234.0,39.0,blue,I
0.0,8.0,4.0,1.0,7.0,2.0,1414.669072953984,4.0,1.0,phase_3,,,,,220.0,5.0,132.0,220.0,176.0,264.0,44.0,88.0,yellow,circle
0.0,5.0,0.5,1.0,7.0,5.0,2053.991915890947,4.0,1.0,phase_3,,,,,176.0,4.0,264.0,44.0,132.0,220.0,176.0,88.0,white,square
0.0,5.0,0.5,1.0,7.0,6.0,2011.5171181969345,4.0,1.0,phase_3,,,,,102.0,3.0,170.0,136.0,34.0,68.0,204.0,102.0,white,square
0.0,5.0,0.5,1.0,7.0,5.0,1631.3309299293903,4.0,1.0,phase_3,,,,,102.0,3.0,136.0,170.0,34.0,204.0,102.0,68.0,white,square
0.0,6.0,1.0,1.0,7.0,2.0,2780.079015064985,4.0,1.0,phase_3,,,,,234.0,6.0,78.0,234.0,156.0,39.0,195.0,117.0,magenta,cross
0.0,6.0,1.0,1.0,7.0,1.0,1723.1183219701052,4.0,1.0,phase_3,,,,,132.0,3.0,132.0,88.0,264.0,220.0,44.0,176.0,magenta,cross
0.0,7.0,2.0,1.0,7.0,4.0,2746.013405965641,4.0,1.0,phase_3,,,,,245.0,5.0,147.0,294.0,49.0,245.0,196.0,98.0,green,triangle
0.0,5.0,0.5,1.0,7.0,6.0,1644.5506820455194,4.0,1.0,phase_3,,,,,270.0,5.0,108.0,216.0,324.0,54.0,162.0,270.0,white,square
0.0,4.0,4.0,0.0,7.0,3.0,2526.2654828839004,4.0,1.0,phase_3,,,,,204.0,6.0,102.0,170.0,204.0,136.0,34.0,68.0,cyan,diamond
0.0,8.0,4.0,1.0,7.0,1.0,2005.7252100668848,4.0,1.0,phase_3,,,,,147.0,3.0,147.0,98.0,196.0,245.0,294.0,49.0,yellow,circle
0.0,4.0,4.0,0.0,7.0,6.0,1582.434737123549,4.0,1.0,phase_3,,,,,98.0,2.0,196.0,245.0,294.0,49.0,147.0,98.0,cyan,diamond
0.0,7.0,2.0,1.0,7.0,1.0,1603.4602138679477,4.0,1.0,phase_3,,,,,78.0,2.0,78.0,39.0,195.0,156.0,234.0,117.0,green,triangle
