raw_reward_magnitude,stim_reward,stepwise_reward_magnitude,paired_with_stopping,stim_location,response,reaction_time,block,num_trial_presentations,which_phase,stop_signal_trial_type,left_SSD,right_SSD,accuracy,chosen_bidding_amount,chosen_bidding_level,possible_bid_1,possible_bid_2,possible_bid_3,possible_bid_4,possible_bid_5,possible_bid_6,color_text,shape_text
0.0,2.0,0.0,0.0,2.0,2.0,409.7854699939489,1.0,1.0,phase_1,,,,,,,,,,,,,blue,circle
40.0,5.0,0.5,1.0,1.0,1.0,399.7197241988033,1.0,1.0,phase_1,,,,,,,,,,,,,white,cross
181.0,3.0,2.0,0.0,4.0,4.0,299.349183216691,1.0,1.0,phase_1,,,,,,,,,,,,,gray,I
122.0,6.0,1.0,1.0,3.0,3.0,420.2439438086003,1.0,1.0,phase_1,,,,,,,,,,,,,green,hexagon
379.0,8.0,4.0,1.0,3.0,3.0,364.1457620542496,1.0,1.0,phase_1,,,,,,,,,,,,,orange,diamond
396.0,4.0,4.0,0.0,2.0,2.0,355.1104089710861,1.0,1.0,phase_1,,,,,,,,,,,,,cyan,triangle
222.0,3.0,2.0,0.0,3.0,3.0,526.2780471239239,1.0,1.0,phase_1,,,,,,,,,,,,,gray,I
188.0,3.0,2.0,0.0,1.0,1.0,334.7595259547233,1.0,1.0,phase_1,,,,,,,,,,,,,gray,I
114.0,6.0,1.0,1.0,1.0,1.0,415.0260859169066,1.0,1.0,phase_1,,,,,,,,,,,,,green,hexagon
397.0,4.0,4.0,0.0,1.0,1.0,358.9826440438628,1.0,1.0,phase_1,,,,,,,,,,,,,cyan,triangle
0.0,1.0,0.0,0.0,1.0,1.0,301.5052040573209,1.0,1.0,phase_1,,,,,,,,,,,,,yellow,flipped triangle
115.0,2.0,1.0,0.0,1.0,1.0,358.8902680203318,1.0,1.0,phase_1,,,,,,,,,,,,,blue,circle
375.0,8.0,4.0,1.0,1.0,1.0,371.51626590639347,1.0,1.0,phase_1,,,,,,,,,,,,,orange,diamond
59.0,1.0,0.5,0.0,1.0,1.0,358.6568359751254,1.0,1.0,phase_1,,,,,,,,,,,,,yellow,flipped triangle
211.0,3.0,2.0,0.0,3.0,3.0,371.3885939214378,1.0,1.0,phase_1,,,,,,,,,,,,,gray,I
95.0,6.0,1.0,1.0,2.0,2.0,451.0483569465577,1.0,1.0,phase_1,,,,,,,,,,,,,green,hexagon
86.0,2.0,1.0,0.0,3.0,3.0,370.813594199717,1.0,1.0,phase_1,,,,,,,,,,,,,blue,circle
199.0,3.0,2.0,0.0,2.0,2.0,383.7786540389061,1.0,1.0,phase_1,,,,,,,,,,,,,gray,I
0.0,1.0,0.0,0.0,3.0,3.0,350.7136509288102,1.0,1.0,phase_1,,,,,,,,,,,,,yellow,flipped triangle
26.0,5.0,0.5,1.0,4.0,4.0,430.7740549556911,1.0,1.0,phase_1,,,,,,,,,,,,,white,cross
197.0,3.0,2.0,0.0,4.0,4.0,328.0771030113101,1.0,1.0,phase_1,,,,,,,,,,,,,gray,I
180.0,3.0,2.0,0.0,3.0,3.0,410.4670730885118,1.0,1.0,phase_1,,,,,,,,,,,,,gray,I
66.0,1.0,0.5,0.0,2.0,2.0,377.2217740770429,1.0,1.0,phase_1,,,,,,,,,,,,,yellow,flipped triangle
39.0,5.0,0.5,1.0,2.0,2.0,387.3377370182425,1.0,1.0,phase_1,,,,,,,,,,,,,white,cross
389.0,8.0,4.0,1.0,4.0,4.0,424.7414909768849,1.0,1.0,phase_1,,,,,,,,,,,,,orange,diamond
188.0,3.0,2.0,0.0,4.0,4.0,413.3960069157183,1.0,1.0,phase_1,,,,,,,,,,,,,gray,I
208.0,7.0,2.0,1.0,3.0,3.0,354.5087839011103,1.0,1.0,phase_1,,,,,,,,,,,,,magenta,square
111.0,6.0,1.0,1.0,2.0,2.0,413.0110580008477,1.0,1.0,phase_1,,,,,,,,,,,,,green,hexagon
0.0,8.0,0.0,1.0,4.0,4.0,426.1363560799509,1.0,1.0,phase_1,,,,,,,,,,,,,orange,diamond
222.0,7.0,2.0,1.0,4.0,4.0,367.7141249645501,1.0,1.0,phase_1,,,,,,,,,,,,,magenta,square
0.0,6.0,0.0,1.0,4.0,4.0,314.247207948938,1.0,1.0,phase_1,,,,,,,,,,,,,green,hexagon
175.0,7.0,2.0,1.0,3.0,3.0,346.1594430264085,1.0,1.0,phase_1,,,,,,,,,,,,,magenta,square
90.0,6.0,1.0,1.0,4.0,4.0,359.3292359728366,1.0,1.0,phase_1,,,,,,,,,,,,,green,hexagon
0.0,6.0,0.0,1.0,2.0,2.0,437.8024239558726,1.0,1.0,phase_1,,,,,,,,,,,,,green,hexagon
0.0,3.0,0.0,0.0,1.0,1.0,383.508285973221,1.0,1.0,phase_1,,,,,,,,,,,,,gray,I
0.0,5.0,0.0,1.0,3.0,3.0,349.7955338098109,1.0,1.0,phase_1,,,,,,,,,,,,,white,cross
108.0,2.0,1.0,0.0,2.0,2.0,382.8710420057177,1.0,1.0,phase_1,,,,,,,,,,,,,blue,circle
96.0,6.0,1.0,1.0,1.0,1.0,485.1735271513462,1.0,1.0,phase_1,,,,,,,,,,,,,green,hexagon
81.0,2.0,1.0,0.0,4.0,4.0,428.3855720423162,1.0,1.0,phase_1,,,,,,,,,,,,,blue,circle
34.0,5.0,0.5,1.0,4.0,4.0,354.1968669742346,1.0,1.0,phase_1,,,,,,,,,,,,,white,cross
0.0,7.0,0.0,1.0,1.0,1.0,386.7725729942322,1.0,1.0,phase_1,,,,,,,,,,,,,magenta,square
383.0,4.0,4.0,0.0,4.0,4.0,400.6117428652942,1.0,1.0,phase_1,,,,,,,,,,,,,cyan,triangle
36.0,5.0,0.5,1.0,1.0,1.0,386.6592799313366,1.0,1.0,phase_1,,,,,,,,,,,,,white,cross
80.0,6.0,1.0,1.0,2.0,2.0,420.6755838822573,1.0,1.0,phase_1,,,,,,,,,,,,,green,hexagon
419.0,8.0,4.0,1.0,3.0,3.0,341.7341099120676,1.0,1.0,phase_1,,,,,,,,,,,,,orange,diamond
95.0,2.0,1.0,0.0,1.0,1.0,378.5291921813041,1.0,1.0,phase_1,,,,,,,,,,,,,blue,circle
54.0,1.0,0.5,0.0,1.0,1.0,366.267103003338,1.0,1.0,phase_1,,,,,,,,,,,,,yellow,flipped triangle
0.0,3.0,0.0,0.0,1.0,1.0,377.2327660117298,1.0,1.0,phase_1,,,,,,,,,,,,,gray,I
407.0,4.0,4.0,0.0,1.0,1.0,367.1704970765859,1.0,1.0,phase_1,,,,,,,,,,,,,cyan,triangle
114.0,2.0,1.0,0.0,4.0,4.0,423.8293410744518,1.0,1.0,phase_1,,,,,,,,,,,,,blue,circle
0.0,5.0,0.0,1.0,3.0,3.0,528.6917469929904,1.0,1.0,phase_1,,,,,,,,,,,,,white,cross
186.0,7.0,2.0,1.0,1.0,1.0,358.7381010875106,1.0,1.0,phase_1,,,,,,,,,,,,,magenta,square
184.0,7.0,2.0,1.0,4.0,4.0,373.0089359451085,1.0,1.0,phase_1,,,,,,,,,,,,,magenta,square
53.0,1.0,0.5,0.0,3.0,3.0,361.1106551252305,1.0,1.0,phase_1,,,,,,,,,,,,,yellow,flipped triangle
419.0,4.0,4.0,0.0,2.0,2.0,374.0230859257281,1.0,1.0,phase_1,,,,,,,,,,,,,cyan,triangle
220.0,3.0,2.0,0.0,2.0,2.0,362.7441120333969,1.0,1.0,phase_1,,,,,,,,,,,,,gray,I
393.0,8.0,4.0,1.0,2.0,2.0,349.2783310357481,1.0,1.0,phase_1,,,,,,,,,,,,,orange,diamond
385.0,8.0,4.0,1.0,1.0,1.0,363.4860799647867,1.0,1.0,phase_1,,,,,,,,,,,,,orange,diamond
213.0,3.0,2.0,0.0,1.0,1.0,372.7053601760417,1.0,1.0,phase_1,,,,,,,,,,,,,gray,I
91.0,6.0,1.0,1.0,3.0,3.0,454.563447041437,1.0,1.0,phase_1,,,,,,,,,,,,,green,hexagon
107.0,6.0,1.0,1.0,4.0,4.0,376.9935201853513,1.0,1.0,phase_1,,,,,,,,,,,,,green,hexagon
399.0,8.0,4.0,1.0,3.0,3.0,362.8623120021075,1.0,1.0,phase_1,,,,,,,,,,,,,orange,diamond
413.0,4.0,4.0,0.0,3.0,3.0,332.6114150695503,1.0,1.0,phase_1,,,,,,,,,,,,,cyan,triangle
0.0,6.0,0.0,1.0,3.0,3.0,343.6211429070681,1.0,1.0,phase_1,,,,,,,,,,,,,green,hexagon
54.0,5.0,0.5,1.0,3.0,3.0,400.0258920714259,1.0,1.0,phase_1,,,,,,,,,,,,,white,cross
375.0,4.0,4.0,0.0,3.0,3.0,321.2338988669216,1.0,1.0,phase_1,,,,,,,,,,,,,cyan,triangle
50.0,1.0,0.5,0.0,2.0,2.0,380.0545770209282,1.0,1.0,phase_1,,,,,,,,,,,,,yellow,flipped triangle
215.0,7.0,2.0,1.0,4.0,4.0,368.5453978832811,1.0,1.0,phase_1,,,,,,,,,,,,,magenta,square
421.0,8.0,4.0,1.0,4.0,4.0,335.5973830912262,1.0,1.0,phase_1,,,,,,,,,,,,,orange,diamond
202.0,3.0,2.0,0.0,4.0,4.0,369.1354640759527,1.0,1.0,phase_1,,,,,,,,,,,,,gray,I
108.0,6.0,1.0,1.0,4.0,4.0,267.3171940259635,1.0,1.0,phase_1,,,,,,,,,,,,,green,hexagon
407.0,8.0,4.0,1.0,4.0,4.0,347.9877938516438,1.0,1.0,phase_1,,,,,,,,,,,,,orange,diamond
94.0,6.0,1.0,1.0,3.0,3.0,339.0883170068264,1.0,1.0,phase_1,,,,,,,,,,,,,green,hexagon
108.0,2.0,1.0,0.0,1.0,1.0,347.8648320306092,1.0,1.0,phase_1,,,,,,,,,,,,,blue,circle
0.0,6.0,0.0,1.0,1.0,1.0,294.906087918207,1.0,1.0,phase_1,,,,,,,,,,,,,green,hexagon
66.0,5.0,0.5,1.0,4.0,4.0,441.2198669742793,1.0,1.0,phase_1,,,,,,,,,,,,,white,cross
66.0,5.0,0.5,1.0,3.0,3.0,338.8788909651339,1.0,1.0,phase_1,,,,,,,,,,,,,white,cross
0.0,4.0,0.0,0.0,1.0,1.0,349.6819890569895,1.0,1.0,phase_1,,,,,,,,,,,,,cyan,triangle
423.0,4.0,4.0,0.0,3.0,3.0,363.268967019394,1.0,1.0,phase_1,,,,,,,,,,,,,cyan,triangle
377.0,4.0,4.0,0.0,4.0,4.0,330.107880057767,1.0,1.0,phase_1,,,,,,,,,,,,,cyan,triangle
66.0,1.0,0.5,0.0,2.0,2.0,363.3018778637051,1.0,1.0,phase_1,,,,,,,,,,,,,yellow,flipped triangle
410.0,8.0,4.0,1.0,1.0,1.0,309.1055459808558,1.0,1.0,phase_1,,,,,,,,,,,,,orange,diamond
0.0,1.0,0.0,0.0,3.0,3.0,321.4102790225297,1.0,1.0,phase_1,,,,,,,,,,,,,yellow,flipped triangle
93.0,6.0,1.0,1.0,1.0,1.0,377.906555077061,1.0,1.0,phase_1,,,,,,,,,,,,,green,hexagon
177.0,3.0,2.0,0.0,4.0,4.0,522.6811938919127,1.0,1.0,phase_1,,,,,,,,,,,,,gray,I
107.0,2.0,1.0,0.0,2.0,2.0,377.3038189392537,1.0,1.0,phase_1,,,,,,,,,,,,,blue,circle
385.0,4.0,4.0,0.0,3.0,3.0,414.5375068765133,1.0,1.0,phase_1,,,,,,,,,,,,,cyan,triangle
94.0,6.0,1.0,1.0,2.0,2.0,332.9270048998296,1.0,1.0,phase_1,,,,,,,,,,,,,green,hexagon
51.0,1.0,0.5,0.0,1.0,1.0,323.5768901649862,1.0,1.0,phase_1,,,,,,,,,,,,,yellow,flipped triangle
116.0,6.0,1.0,1.0,2.0,2.0,358.7436750531196,1.0,1.0,phase_1,,,,,,,,,,,,,green,hexagon
196.0,3.0,2.0,0.0,1.0,1.0,326.0215600021183,1.0,1.0,phase_1,,,,,,,,,,,,,gray,I
73.0,1.0,0.5,0.0,1.0,1.0,337.5150880310684,1.0,1.0,phase_1,,,,,,,,,,,,,yellow,flipped triangle
77.0,2.0,1.0,0.0,1.0,1.0,414.5842520520091,1.0,1.0,phase_1,,,,,,,,,,,,,blue,circle
207.0,7.0,2.0,1.0,4.0,4.0,403.5261401440948,1.0,1.0,phase_1,,,,,,,,,,,,,magenta,square
51.0,5.0,0.5,1.0,1.0,1.0,350.6199310068041,1.0,1.0,phase_1,,,,,,,,,,,,,white,cross
62.0,5.0,0.5,1.0,3.0,3.0,449.6653699316084,1.0,1.0,phase_1,,,,,,,,,,,,,white,cross
124.0,2.0,1.0,0.0,3.0,3.0,329.8200569115579,1.0,1.0,phase_1,,,,,,,,,,,,,blue,circle
193.0,3.0,2.0,0.0,4.0,4.0,377.1270071156323,1.0,2.0,phase_1,,,,,,,,,,,,,gray,I
381.0,8.0,4.0,1.0,3.0,3.0,478.0628751032054,1.0,1.0,phase_1,,,,,,,,,,,,,orange,diamond
377.0,8.0,4.0,1.0,2.0,2.0,422.0782369375229,1.0,1.0,phase_1,,,,,,,,,,,,,orange,diamond
27.0,1.0,0.5,0.0,4.0,4.0,402.1507401484996,2.0,1.0,phase_1,,,,,,,,,,,,,yellow,flipped triangle
32.0,1.0,0.5,0.0,1.0,1.0,367.1725341118872,2.0,1.0,phase_1,,,,,,,,,,,,,yellow,flipped triangle
214.0,3.0,2.0,0.0,3.0,3.0,423.0593799147755,2.0,1.0,phase_1,,,,,,,,,,,,,gray,I
35.0,1.0,0.5,0.0,1.0,1.0,389.9508800823241,2.0,1.0,phase_1,,,,,,,,,,,,,yellow,flipped triangle
29.0,5.0,0.5,1.0,1.0,1.0,359.9906109739095,2.0,1.0,phase_1,,,,,,,,,,,,,white,cross
0.0,6.0,0.0,1.0,1.0,1.0,368.8970918301493,2.0,1.0,phase_1,,,,,,,,,,,,,green,hexagon
379.0,8.0,4.0,1.0,3.0,3.0,605.9342978987843,2.0,1.0,phase_1,,,,,,,,,,,,,orange,diamond
58.0,1.0,0.5,0.0,3.0,3.0,371.7745400499552,2.0,1.0,phase_1,,,,,,,,,,,,,yellow,flipped triangle
425.0,8.0,4.0,1.0,1.0,1.0,363.1445979699492,2.0,1.0,phase_1,,,,,,,,,,,,,orange,diamond
211.0,7.0,2.0,1.0,3.0,3.0,439.1743009909987,2.0,1.0,phase_1,,,,,,,,,,,,,magenta,square
390.0,8.0,4.0,1.0,3.0,3.0,472.6186040788889,2.0,1.0,phase_1,,,,,,,,,,,,,orange,diamond
403.0,8.0,4.0,1.0,2.0,2.0,507.43254786357284,2.0,1.0,phase_1,,,,,,,,,,,,,orange,diamond
199.0,3.0,2.0,0.0,3.0,3.0,565.1941418182105,2.0,1.0,phase_1,,,,,,,,,,,,,gray,I
205.0,7.0,2.0,1.0,4.0,4.0,328.9876959752291,2.0,1.0,phase_1,,,,,,,,,,,,,magenta,square
177.0,7.0,2.0,1.0,3.0,3.0,385.912223951891,2.0,1.0,phase_1,,,,,,,,,,,,,magenta,square
399.0,4.0,4.0,0.0,1.0,1.0,330.012704944238,2.0,1.0,phase_1,,,,,,,,,,,,,cyan,triangle
34.0,1.0,0.5,0.0,3.0,3.0,431.4150849822908,2.0,1.0,phase_1,,,,,,,,,,,,,yellow,flipped triangle
113.0,2.0,1.0,0.0,2.0,2.0,401.1787171475589,2.0,1.0,phase_1,,,,,,,,,,,,,blue,circle
0.0,8.0,0.0,1.0,4.0,4.0,301.2017279397696,2.0,1.0,phase_1,,,,,,,,,,,,,orange,diamond
419.0,4.0,4.0,0.0,2.0,2.0,468.5904460493475,2.0,1.0,phase_1,,,,,,,,,,,,,cyan,triangle
32.0,1.0,0.5,0.0,2.0,2.0,389.2020757775754,2.0,1.0,phase_1,,,,,,,,,,,,,yellow,flipped triangle
393.0,4.0,4.0,0.0,1.0,1.0,355.5003160145134,2.0,1.0,phase_1,,,,,,,,,,,,,cyan,triangle
0.0,1.0,0.0,0.0,2.0,2.0,368.9860429149121,2.0,1.0,phase_1,,,,,,,,,,,,,yellow,flipped triangle
220.0,7.0,2.0,1.0,2.0,2.0,379.11679199896747,2.0,1.0,phase_1,,,,,,,,,,,,,magenta,square
58.0,5.0,0.5,1.0,4.0,4.0,530.1466709934175,2.0,1.0,phase_1,,,,,,,,,,,,,white,cross
104.0,6.0,1.0,1.0,3.0,3.0,380.3356639109552,2.0,1.0,phase_1,,,,,,,,,,,,,green,hexagon
202.0,3.0,2.0,0.0,1.0,1.0,459.714459022507,2.0,1.0,phase_1,,,,,,,,,,,,,gray,I
0.0,6.0,0.0,1.0,4.0,4.0,406.4873838797211,2.0,1.0,phase_1,,,,,,,,,,,,,green,hexagon
207.0,3.0,2.0,0.0,2.0,2.0,371.652026893571,2.0,1.0,phase_1,,,,,,,,,,,,,gray,I
77.0,2.0,1.0,0.0,4.0,4.0,338.2138509768992,2.0,1.0,phase_1,,,,,,,,,,,,,blue,circle
68.0,5.0,0.5,1.0,1.0,1.0,330.7878251653164,2.0,1.0,phase_1,,,,,,,,,,,,,white,cross
0.0,5.0,0.0,1.0,1.0,1.0,341.7458881158381,2.0,1.0,phase_1,,,,,,,,,,,,,white,cross
177.0,3.0,2.0,0.0,3.0,3.0,602.0488019566983,2.0,1.0,phase_1,,,,,,,,,,,,,gray,I
104.0,2.0,1.0,0.0,1.0,1.0,610.4541560634971,2.0,1.0,phase_1,,,,,,,,,,,,,blue,circle
110.0,6.0,1.0,1.0,1.0,1.0,329.7131010331213,2.0,1.0,phase_1,,,,,,,,,,,,,green,hexagon
0.0,5.0,0.0,1.0,2.0,2.0,363.4768198244273,2.0,1.0,phase_1,,,,,,,,,,,,,white,cross
396.0,8.0,4.0,1.0,4.0,4.0,353.1142470892519,2.0,1.0,phase_1,,,,,,,,,,,,,orange,diamond
190.0,7.0,2.0,1.0,3.0,3.0,342.9874069988727,2.0,1.0,phase_1,,,,,,,,,,,,,magenta,square
0.0,5.0,0.0,1.0,1.0,1.0,312.4514820519835,2.0,1.0,phase_1,,,,,,,,,,,,,white,cross
59.0,5.0,0.5,1.0,4.0,4.0,388.3203910663724,2.0,1.0,phase_1,,,,,,,,,,,,,white,cross
0.0,3.0,0.0,0.0,3.0,3.0,333.9522308669984,2.0,1.0,phase_1,,,,,,,,,,,,,gray,I
71.0,5.0,0.5,1.0,4.0,4.0,368.7829819973558,2.0,1.0,phase_1,,,,,,,,,,,,,white,cross
35.0,5.0,0.5,1.0,1.0,1.0,470.3845400363207,2.0,1.0,phase_1,,,,,,,,,,,,,white,cross
224.0,3.0,2.0,0.0,4.0,4.0,368.1640641298145,2.0,1.0,phase_1,,,,,,,,,,,,,gray,I
47.0,5.0,0.5,1.0,2.0,2.0,334.5010550692677,2.0,1.0,phase_1,,,,,,,,,,,,,white,cross
34.0,5.0,0.5,1.0,3.0,3.0,349.0830329246819,2.0,1.0,phase_1,,,,,,,,,,,,,white,cross
425.0,4.0,4.0,0.0,3.0,3.0,383.9522709604352,2.0,1.0,phase_1,,,,,,,,,,,,,cyan,triangle
119.0,6.0,1.0,1.0,1.0,1.0,305.5320680141449,2.0,1.0,phase_1,,,,,,,,,,,,,green,hexagon
29.0,1.0,0.5,0.0,2.0,2.0,337.7556460909545,2.0,1.0,phase_1,,,,,,,,,,,,,yellow,flipped triangle
96.0,6.0,1.0,1.0,1.0,1.0,372.7119050454348,2.0,1.0,phase_1,,,,,,,,,,,,,green,hexagon
219.0,7.0,2.0,1.0,2.0,2.0,337.5466561410576,2.0,1.0,phase_1,,,,,,,,,,,,,magenta,square
39.0,1.0,0.5,0.0,2.0,2.0,327.4892100598663,2.0,1.0,phase_1,,,,,,,,,,,,,yellow,flipped triangle
406.0,4.0,4.0,0.0,4.0,4.0,409.4596859067678,2.0,1.0,phase_1,,,,,,,,,,,,,cyan,triangle
0.0,1.0,0.0,0.0,2.0,2.0,396.8790310900658,2.0,1.0,phase_1,,,,,,,,,,,,,yellow,flipped triangle
83.0,6.0,1.0,1.0,3.0,3.0,387.2994310222566,2.0,1.0,phase_1,,,,,,,,,,,,,green,hexagon
0.0,1.0,0.0,0.0,2.0,2.0,466.090794885531,2.0,1.0,phase_1,,,,,,,,,,,,,yellow,flipped triangle
0.0,2.0,0.0,0.0,1.0,1.0,366.0264420323074,2.0,1.0,phase_1,,,,,,,,,,,,,blue,circle
0.0,3.0,0.0,0.0,2.0,2.0,377.8682381380349,2.0,1.0,phase_1,,,,,,,,,,,,,gray,I
388.0,8.0,4.0,1.0,2.0,2.0,345.7902770023793,2.0,1.0,phase_1,,,,,,,,,,,,,orange,diamond
34.0,1.0,0.5,0.0,4.0,4.0,446.1059318855405,2.0,1.0,phase_1,,,,,,,,,,,,,yellow,flipped triangle
385.0,4.0,4.0,0.0,3.0,3.0,345.7119569648057,2.0,1.0,phase_1,,,,,,,,,,,,,cyan,triangle
77.0,6.0,1.0,1.0,4.0,4.0,380.4915039800107,2.0,1.0,phase_1,,,,,,,,,,,,,green,hexagon
203.0,3.0,2.0,0.0,3.0,3.0,346.2341160047799,2.0,1.0,phase_1,,,,,,,,,,,,,gray,I
207.0,7.0,2.0,1.0,1.0,1.0,358.486294047907,2.0,1.0,phase_1,,,,,,,,,,,,,magenta,square
89.0,2.0,1.0,0.0,4.0,4.0,460.2116581518203,2.0,1.0,phase_1,,,,,,,,,,,,,blue,circle
48.0,1.0,0.5,0.0,4.0,4.0,357.9551470465958,2.0,1.0,phase_1,,,,,,,,,,,,,yellow,flipped triangle
0.0,1.0,0.0,0.0,1.0,1.0,372.811442008242,2.0,1.0,phase_1,,,,,,,,,,,,,yellow,flipped triangle
381.0,4.0,4.0,0.0,4.0,4.0,337.948152096942,2.0,1.0,phase_1,,,,,,,,,,,,,cyan,triangle
115.0,6.0,1.0,1.0,1.0,1.0,329.4847540091723,2.0,1.0,phase_1,,,,,,,,,,,,,green,hexagon
207.0,3.0,2.0,0.0,1.0,1.0,451.6982519999146,2.0,1.0,phase_1,,,,,,,,,,,,,gray,I
0.0,3.0,0.0,0.0,3.0,3.0,665.6534648500383,2.0,1.0,phase_1,,,,,,,,,,,,,gray,I
0.0,3.0,0.0,0.0,4.0,4.0,388.200371991843,2.0,1.0,phase_1,,,,,,,,,,,,,gray,I
62.0,1.0,0.5,0.0,4.0,4.0,463.3684970904141,2.0,1.0,phase_1,,,,,,,,,,,,,yellow,flipped triangle
96.0,2.0,1.0,0.0,3.0,3.0,363.3130509406328,2.0,1.0,phase_1,,,,,,,,,,,,,blue,circle
0.0,4.0,0.0,0.0,4.0,4.0,331.4617369323969,2.0,1.0,phase_1,,,,,,,,,,,,,cyan,triangle
27.0,1.0,0.5,0.0,1.0,1.0,296.026605181396,2.0,1.0,phase_1,,,,,,,,,,,,,yellow,flipped triangle
85.0,2.0,1.0,0.0,4.0,4.0,356.2824889086187,2.0,1.0,phase_1,,,,,,,,,,,,,blue,circle
184.0,3.0,2.0,0.0,2.0,2.0,412.6148310024291,2.0,1.0,phase_1,,,,,,,,,,,,,gray,I
64.0,1.0,0.5,0.0,2.0,2.0,421.6765710152685,2.0,1.0,phase_1,,,,,,,,,,,,,yellow,flipped triangle
212.0,3.0,2.0,0.0,3.0,3.0,366.3777830079198,2.0,1.0,phase_1,,,,,,,,,,,,,gray,I
401.0,8.0,4.0,1.0,2.0,2.0,378.8053779862821,2.0,1.0,phase_1,,,,,,,,,,,,,orange,diamond
66.0,1.0,0.5,0.0,1.0,1.0,392.3645010218024,2.0,1.0,phase_1,,,,,,,,,,,,,yellow,flipped triangle
101.0,2.0,1.0,0.0,4.0,4.0,337.7312480006367,2.0,1.0,phase_1,,,,,,,,,,,,,blue,circle
108.0,6.0,1.0,1.0,4.0,4.0,347.1940879244357,2.0,1.0,phase_1,,,,,,,,,,,,,green,hexagon
0.0,3.0,0.0,0.0,2.0,2.0,379.819757072255,2.0,1.0,phase_1,,,,,,,,,,,,,gray,I
209.0,7.0,2.0,1.0,2.0,2.0,372.9510989505797,2.0,1.0,phase_1,,,,,,,,,,,,,magenta,square
377.0,4.0,4.0,0.0,2.0,2.0,292.3292580526322,2.0,1.0,phase_1,,,,,,,,,,,,,cyan,triangle
53.0,5.0,0.5,1.0,3.0,3.0,349.5854688808322,2.0,1.0,phase_1,,,,,,,,,,,,,white,cross
0.0,8.0,0.0,1.0,1.0,1.0,364.0667921863496,2.0,1.0,phase_1,,,,,,,,,,,,,orange,diamond
0.0,7.0,0.0,1.0,2.0,2.0,330.2458070684224,2.0,1.0,phase_1,,,,,,,,,,,,,magenta,square
384.0,4.0,4.0,0.0,1.0,1.0,317.3630910459906,2.0,1.0,phase_1,,,,,,,,,,,,,cyan,triangle
215.0,7.0,2.0,1.0,3.0,3.0,396.6698220465332,2.0,1.0,phase_1,,,,,,,,,,,,,magenta,square
80.0,2.0,1.0,0.0,2.0,2.0,363.5525261051953,2.0,1.0,phase_1,,,,,,,,,,,,,blue,circle
77.0,6.0,1.0,1.0,3.0,3.0,534.612595802173,2.0,1.0,phase_1,,,,,,,,,,,,,green,hexagon
48.0,5.0,0.5,1.0,2.0,2.0,341.7373469565063,2.0,1.0,phase_1,,,,,,,,,,,,,white,cross
119.0,6.0,1.0,1.0,1.0,1.0,333.0896410625428,2.0,1.0,phase_1,,,,,,,,,,,,,green,hexagon
0.0,3.0,0.0,0.0,1.0,1.0,320.6111600156873,2.0,1.0,phase_1,,,,,,,,,,,,,gray,I
0.0,2.0,0.0,0.0,2.0,2.0,376.1221750173718,2.0,1.0,phase_1,,,,,,,,,,,,,blue,circle
0.0,8.0,0.0,1.0,2.0,2.0,347.2742510493845,2.0,1.0,phase_1,,,,,,,,,,,,,orange,diamond
0.0,5.0,0.0,1.0,4.0,4.0,400.1715038903057,2.0,1.0,phase_1,,,,,,,,,,,,,white,cross
0.0,6.0,0.0,1.0,2.0,2.0,401.6748711001128,3.0,1.0,phase_1,,,,,,,,,,,,,green,hexagon
0.0,1.0,0.0,0.0,2.0,2.0,321.0395378991961,3.0,1.0,phase_1,,,,,,,,,,,,,yellow,flipped triangle
407.0,8.0,4.0,1.0,3.0,3.0,400.7703559473157,3.0,1.0,phase_1,,,,,,,,,,,,,orange,diamond
0.0,5.0,0.0,1.0,4.0,4.0,346.810586983338,3.0,1.0,phase_1,,,,,,,,,,,,,white,cross
120.0,6.0,1.0,1.0,2.0,2.0,313.081915024668,3.0,1.0,phase_1,,,,,,,,,,,,,green,hexagon
397.0,4.0,4.0,0.0,3.0,3.0,347.2187470179051,3.0,1.0,phase_1,,,,,,,,,,,,,cyan,triangle
191.0,3.0,2.0,0.0,3.0,3.0,358.5743871517479,3.0,1.0,phase_1,,,,,,,,,,,,,gray,I
0.0,8.0,0.0,1.0,1.0,1.0,303.7625839933753,3.0,1.0,phase_1,,,,,,,,,,,,,orange,diamond
120.0,2.0,1.0,0.0,4.0,4.0,358.6556029040366,3.0,1.0,phase_1,,,,,,,,,,,,,blue,circle
388.0,4.0,4.0,0.0,1.0,1.0,325.8347548544407,3.0,1.0,phase_1,,,,,,,,,,,,,cyan,triangle
191.0,7.0,2.0,1.0,2.0,2.0,362.6480740495026,3.0,1.0,phase_1,,,,,,,,,,,,,magenta,square
74.0,1.0,0.5,0.0,4.0,4.0,351.3083551079035,3.0,1.0,phase_1,,,,,,,,,,,,,yellow,flipped triangle
0.0,7.0,0.0,1.0,2.0,2.0,383.9998519979417,3.0,1.0,phase_1,,,,,,,,,,,,,magenta,square
413.0,8.0,4.0,1.0,1.0,1.0,329.2908789590001,3.0,1.0,phase_1,,,,,,,,,,,,,orange,diamond
0.0,8.0,0.0,1.0,4.0,4.0,320.8458221051842,3.0,1.0,phase_1,,,,,,,,,,,,,orange,diamond
205.0,3.0,2.0,0.0,1.0,1.0,328.824294032529,3.0,1.0,phase_1,,,,,,,,,,,,,gray,I
0.0,2.0,0.0,0.0,1.0,1.0,386.3601288758218,3.0,1.0,phase_1,,,,,,,,,,,,,blue,circle
215.0,3.0,2.0,0.0,2.0,2.0,374.8558489605784,3.0,1.0,phase_1,,,,,,,,,,,,,gray,I
94.0,2.0,1.0,0.0,2.0,2.0,387.9552858415991,3.0,1.0,phase_1,,,,,,,,,,,,,blue,circle
190.0,3.0,2.0,0.0,1.0,1.0,354.4805659912526,3.0,1.0,phase_1,,,,,,,,,,,,,gray,I
177.0,7.0,2.0,1.0,1.0,1.0,500.53988210856915,3.0,1.0,phase_1,,,,,,,,,,,,,magenta,square
214.0,7.0,2.0,1.0,2.0,2.0,357.8268040437251,3.0,1.0,phase_1,,,,,,,,,,,,,magenta,square
96.0,2.0,1.0,0.0,3.0,3.0,393.0487870238721,3.0,1.0,phase_1,,,,,,,,,,,,,blue,circle
26.0,1.0,0.5,0.0,3.0,3.0,313.6713241692632,3.0,1.0,phase_1,,,,,,,,,,,,,yellow,flipped triangle
94.0,2.0,1.0,0.0,3.0,3.0,367.3142991028726,3.0,1.0,phase_1,,,,,,,,,,,,,blue,circle
119.0,2.0,1.0,0.0,4.0,4.0,426.291846903041,3.0,1.0,phase_1,,,,,,,,,,,,,blue,circle
0.0,7.0,0.0,1.0,1.0,1.0,326.1435031890869,3.0,1.0,phase_1,,,,,,,,,,,,,magenta,square
377.0,8.0,4.0,1.0,2.0,2.0,358.0318819731474,3.0,1.0,phase_1,,,,,,,,,,,,,orange,diamond
59.0,1.0,0.5,0.0,2.0,2.0,325.417905813083,3.0,1.0,phase_1,,,,,,,,,,,,,yellow,flipped triangle
415.0,4.0,4.0,0.0,1.0,1.0,313.8382469769567,3.0,1.0,phase_1,,,,,,,,,,,,,cyan,triangle
90.0,2.0,1.0,0.0,4.0,4.0,396.2854668498039,3.0,1.0,phase_1,,,,,,,,,,,,,blue,circle
379.0,4.0,4.0,0.0,4.0,4.0,292.8945978637784,3.0,1.0,phase_1,,,,,,,,,,,,,cyan,triangle
219.0,3.0,2.0,0.0,1.0,1.0,330.6842721067369,3.0,1.0,phase_1,,,,,,,,,,,,,gray,I
406.0,8.0,4.0,1.0,1.0,1.0,342.0104829128831,3.0,1.0,phase_1,,,,,,,,,,,,,orange,diamond
387.0,4.0,4.0,0.0,2.0,2.0,287.0414739008993,3.0,1.0,phase_1,,,,,,,,,,,,,cyan,triangle
0.0,7.0,0.0,1.0,1.0,1.0,321.0824709385633,3.0,1.0,phase_1,,,,,,,,,,,,,magenta,square
85.0,6.0,1.0,1.0,2.0,2.0,332.8060221392661,3.0,1.0,phase_1,,,,,,,,,,,,,green,hexagon
390.0,4.0,4.0,0.0,4.0,4.0,365.4680058825761,3.0,1.0,phase_1,,,,,,,,,,,,,cyan,triangle
91.0,2.0,1.0,0.0,1.0,1.0,333.015136886388,3.0,1.0,phase_1,,,,,,,,,,,,,blue,circle
0.0,2.0,0.0,0.0,3.0,3.0,387.4688849318772,3.0,1.0,phase_1,,,,,,,,,,,,,blue,circle
410.0,4.0,4.0,0.0,2.0,2.0,331.8244470283389,3.0,1.0,phase_1,,,,,,,,,,,,,cyan,triangle
210.0,7.0,2.0,1.0,4.0,4.0,526.5157991088927,3.0,1.0,phase_1,,,,,,,,,,,,,magenta,square
50.0,5.0,0.5,1.0,3.0,3.0,513.6333531700075,3.0,1.0,phase_1,,,,,,,,,,,,,white,cross
36.0,1.0,0.5,0.0,4.0,4.0,391.1866201087832,3.0,1.0,phase_1,,,,,,,,,,,,,yellow,flipped triangle
0.0,6.0,0.0,1.0,3.0,3.0,334.3797561246902,3.0,1.0,phase_1,,,,,,,,,,,,,green,hexagon
209.0,3.0,2.0,0.0,3.0,3.0,325.2485191915184,3.0,1.0,phase_1,,,,,,,,,,,,,gray,I
379.0,4.0,4.0,0.0,4.0,4.0,358.3134422078728,3.0,1.0,phase_1,,,,,,,,,,,,,cyan,triangle
47.0,1.0,0.5,0.0,1.0,1.0,347.0153911039233,3.0,1.0,phase_1,,,,,,,,,,,,,yellow,flipped triangle
110.0,2.0,1.0,0.0,2.0,2.0,383.9456979185343,3.0,1.0,phase_1,,,,,,,,,,,,,blue,circle
0.0,4.0,0.0,0.0,4.0,4.0,325.5337250884622,3.0,1.0,phase_1,,,,,,,,,,,,,cyan,triangle
77.0,6.0,1.0,1.0,3.0,3.0,315.2079218998551,3.0,1.0,phase_1,,,,,,,,,,,,,green,hexagon
0.0,7.0,0.0,1.0,2.0,2.0,329.8852001316845,3.0,1.0,phase_1,,,,,,,,,,,,,magenta,square
387.0,8.0,4.0,1.0,3.0,3.0,341.9476139824837,3.0,1.0,phase_1,,,,,,,,,,,,,orange,diamond
71.0,1.0,0.5,0.0,4.0,4.0,485.44806195423,3.0,1.0,phase_1,,,,,,,,,,,,,yellow,flipped triangle
71.0,5.0,0.5,1.0,2.0,2.0,342.6847408991307,3.0,1.0,phase_1,,,,,,,,,,,,,white,cross
66.0,5.0,0.5,1.0,2.0,2.0,262.9148350097239,3.0,1.0,phase_1,,,,,,,,,,,,,white,cross
119.0,2.0,1.0,0.0,2.0,2.0,344.5934148039669,3.0,1.0,phase_1,,,,,,,,,,,,,blue,circle
423.0,8.0,4.0,1.0,2.0,2.0,307.9720698297024,3.0,1.0,phase_1,,,,,,,,,,,,,orange,diamond
192.0,7.0,2.0,1.0,4.0,4.0,367.7415929269045,3.0,1.0,phase_1,,,,,,,,,,,,,magenta,square
0.0,7.0,0.0,1.0,2.0,2.0,311.4927869755775,3.0,1.0,phase_1,,,,,,,,,,,,,magenta,square
203.0,7.0,2.0,1.0,2.0,2.0,279.0764719247818,3.0,1.0,phase_1,,,,,,,,,,,,,magenta,square
186.0,3.0,2.0,0.0,2.0,2.0,357.6806029304862,3.0,1.0,phase_1,,,,,,,,,,,,,gray,I
94.0,6.0,1.0,1.0,1.0,1.0,325.3310520667583,3.0,1.0,phase_1,,,,,,,,,,,,,green,hexagon
32.0,5.0,0.5,1.0,3.0,3.0,370.63356814906,3.0,2.0,phase_1,,,,,,,,,,,,,white,cross
402.0,4.0,4.0,0.0,1.0,1.0,403.4550120122731,3.0,1.0,phase_1,,,,,,,,,,,,,cyan,triangle
0.0,3.0,0.0,0.0,2.0,2.0,371.7703639995307,3.0,1.0,phase_1,,,,,,,,,,,,,gray,I
407.0,4.0,4.0,0.0,4.0,4.0,358.3964121062308,3.0,1.0,phase_1,,,,,,,,,,,,,cyan,triangle
205.0,3.0,2.0,0.0,2.0,2.0,416.7611040174961,3.0,1.0,phase_1,,,,,,,,,,,,,gray,I
0.0,8.0,0.0,1.0,1.0,1.0,361.7536309175193,3.0,1.0,phase_1,,,,,,,,,,,,,orange,diamond
401.0,4.0,4.0,0.0,2.0,2.0,396.9264610204845,3.0,1.0,phase_1,,,,,,,,,,,,,cyan,triangle
421.0,4.0,4.0,0.0,2.0,2.0,316.3350201211869,3.0,1.0,phase_1,,,,,,,,,,,,,cyan,triangle
0.0,5.0,0.0,1.0,4.0,4.0,375.9556361474097,3.0,1.0,phase_1,,,,,,,,,,,,,white,cross
86.0,6.0,1.0,1.0,3.0,3.0,676.874723052606,3.0,1.0,phase_1,,,,,,,,,,,,,green,hexagon
0.0,2.0,0.0,0.0,4.0,4.0,463.4875350166112,3.0,1.0,phase_1,,,,,,,,,,,,,blue,circle
71.0,1.0,0.5,0.0,3.0,3.0,366.7249870486557,3.0,1.0,phase_1,,,,,,,,,,,,,yellow,flipped triangle
35.0,1.0,0.5,0.0,3.0,3.0,353.8228590041399,3.0,1.0,phase_1,,,,,,,,,,,,,yellow,flipped triangle
119.0,2.0,1.0,0.0,3.0,3.0,320.8701130934059,3.0,1.0,phase_1,,,,,,,,,,,,,blue,circle
182.0,7.0,2.0,1.0,1.0,1.0,357.4234310071915,3.0,1.0,phase_1,,,,,,,,,,,,,magenta,square
93.0,6.0,1.0,1.0,1.0,1.0,391.7129621841013,3.0,1.0,phase_1,,,,,,,,,,,,,green,hexagon
64.0,5.0,0.5,1.0,4.0,4.0,561.1140290275216,3.0,1.0,phase_1,,,,,,,,,,,,,white,cross
188.0,7.0,2.0,1.0,4.0,4.0,321.5309721417725,3.0,1.0,phase_1,,,,,,,,,,,,,magenta,square
192.0,3.0,2.0,0.0,4.0,4.0,312.6711598597467,3.0,1.0,phase_1,,,,,,,,,,,,,gray,I
0.0,5.0,0.0,1.0,3.0,3.0,322.9234740138054,3.0,1.0,phase_1,,,,,,,,,,,,,white,cross
424.0,4.0,4.0,0.0,3.0,3.0,312.5398098491132,3.0,1.0,phase_1,,,,,,,,,,,,,cyan,triangle
83.0,2.0,1.0,0.0,3.0,3.0,303.9108910597861,3.0,1.0,phase_1,,,,,,,,,,,,,blue,circle
27.0,5.0,0.5,1.0,3.0,3.0,357.8895488753915,3.0,1.0,phase_1,,,,,,,,,,,,,white,cross
50.0,1.0,0.5,0.0,3.0,3.0,303.0047051142901,3.0,1.0,phase_1,,,,,,,,,,,,,yellow,flipped triangle
0.0,4.0,0.0,0.0,4.0,4.0,450.5865979008376,3.0,1.0,phase_1,,,,,,,,,,,,,cyan,triangle
212.0,7.0,2.0,1.0,1.0,1.0,370.8592520561069,3.0,1.0,phase_1,,,,,,,,,,,,,magenta,square
94.0,2.0,1.0,0.0,3.0,3.0,362.1092331595719,3.0,1.0,phase_1,,,,,,,,,,,,,blue,circle
175.0,3.0,2.0,0.0,1.0,1.0,350.1923088915646,3.0,1.0,phase_1,,,,,,,,,,,,,gray,I
0.0,8.0,0.0,1.0,2.0,2.0,507.6752689201385,3.0,2.0,phase_1,,,,,,,,,,,,,orange,diamond
423.0,8.0,4.0,1.0,4.0,4.0,500.3542781341821,3.0,1.0,phase_1,,,,,,,,,,,,,orange,diamond
77.0,2.0,1.0,0.0,1.0,1.0,329.3545900378376,3.0,1.0,phase_1,,,,,,,,,,,,,blue,circle
52.0,1.0,0.5,0.0,3.0,3.0,408.3745770622045,3.0,1.0,phase_1,,,,,,,,,,,,,yellow,flipped triangle
389.0,4.0,4.0,0.0,2.0,2.0,333.7202628608793,3.0,1.0,phase_1,,,,,,,,,,,,,cyan,triangle
402.0,8.0,4.0,1.0,1.0,1.0,342.8656419273466,3.0,1.0,phase_1,,,,,,,,,,,,,orange,diamond
185.0,3.0,2.0,0.0,2.0,2.0,354.3076938949525,3.0,1.0,phase_1,,,,,,,,,,,,,gray,I
27.0,5.0,0.5,1.0,2.0,2.0,504.6748351305723,3.0,1.0,phase_1,,,,,,,,,,,,,white,cross
39.0,1.0,0.5,0.0,2.0,2.0,333.1970991566777,3.0,1.0,phase_1,,,,,,,,,,,,,yellow,flipped triangle
93.0,2.0,1.0,0.0,1.0,1.0,546.016173902899,4.0,1.0,phase_1,,,,,,,,,,,,,blue,circle
424.0,8.0,4.0,1.0,4.0,4.0,356.8299061153084,4.0,1.0,phase_1,,,,,,,,,,,,,orange,diamond
85.0,2.0,1.0,0.0,3.0,3.0,367.266520857811,4.0,1.0,phase_1,,,,,,,,,,,,,blue,circle
215.0,3.0,2.0,0.0,4.0,4.0,358.1101598683744,4.0,1.0,phase_1,,,,,,,,,,,,,gray,I
119.0,6.0,1.0,1.0,2.0,2.0,413.6534021236002,4.0,1.0,phase_1,,,,,,,,,,,,,green,hexagon
30.0,1.0,0.5,0.0,4.0,4.0,403.3469320274889,4.0,1.0,phase_1,,,,,,,,,,,,,yellow,flipped triangle
208.0,3.0,2.0,0.0,2.0,2.0,370.7114809658378,4.0,1.0,phase_1,,,,,,,,,,,,,gray,I
0.0,7.0,0.0,1.0,3.0,3.0,358.2700840197503,4.0,1.0,phase_1,,,,,,,,,,,,,magenta,square
100.0,6.0,1.0,1.0,3.0,3.0,391.9877898879349,4.0,1.0,phase_1,,,,,,,,,,,,,green,hexagon
403.0,4.0,4.0,0.0,1.0,1.0,336.5547040011734,4.0,1.0,phase_1,,,,,,,,,,,,,cyan,triangle
124.0,6.0,1.0,1.0,4.0,4.0,373.24576103128487,4.0,1.0,phase_1,,,,,,,,,,,,,green,hexagon
116.0,2.0,1.0,0.0,2.0,2.0,361.6746228653937,4.0,1.0,phase_1,,,,,,,,,,,,,blue,circle
100.0,2.0,1.0,0.0,1.0,1.0,325.6310359574854,4.0,1.0,phase_1,,,,,,,,,,,,,blue,circle
103.0,6.0,1.0,1.0,4.0,4.0,339.1584730707109,4.0,1.0,phase_1,,,,,,,,,,,,,green,hexagon
209.0,3.0,2.0,0.0,2.0,2.0,394.2528050392866,4.0,1.0,phase_1,,,,,,,,,,,,,gray,I
0.0,2.0,0.0,0.0,4.0,4.0,430.1957229617983,4.0,1.0,phase_1,,,,,,,,,,,,,blue,circle
0.0,7.0,0.0,1.0,3.0,3.0,350.9388570673764,4.0,1.0,phase_1,,,,,,,,,,,,,magenta,square
32.0,5.0,0.5,1.0,2.0,2.0,341.5057661477476,4.0,1.0,phase_1,,,,,,,,,,,,,white,cross
185.0,7.0,2.0,1.0,2.0,2.0,353.6031409166753,4.0,1.0,phase_1,,,,,,,,,,,,,magenta,square
0.0,4.0,0.0,0.0,2.0,2.0,298.7951620016247,4.0,1.0,phase_1,,,,,,,,,,,,,cyan,triangle
0.0,1.0,0.0,0.0,2.0,2.0,310.9015480149537,4.0,1.0,phase_1,,,,,,,,,,,,,yellow,flipped triangle
193.0,7.0,2.0,1.0,1.0,1.0,341.7847941163927,4.0,1.0,phase_1,,,,,,,,,,,,,magenta,square
202.0,7.0,2.0,1.0,3.0,3.0,445.6098349764943,4.0,1.0,phase_1,,,,,,,,,,,,,magenta,square
196.0,7.0,2.0,1.0,4.0,4.0,345.8970978390425,4.0,1.0,phase_1,,,,,,,,,,,,,magenta,square
50.0,5.0,0.5,1.0,1.0,1.0,334.2046770267188,4.0,1.0,phase_1,,,,,,,,,,,,,white,cross
106.0,6.0,1.0,1.0,2.0,2.0,347.4583991337567,4.0,1.0,phase_1,,,,,,,,,,,,,green,hexagon
417.0,8.0,4.0,1.0,3.0,3.0,355.7050770614296,4.0,1.0,phase_1,,,,,,,,,,,,,orange,diamond
224.0,7.0,2.0,1.0,4.0,4.0,300.805564969778,4.0,1.0,phase_1,,,,,,,,,,,,,magenta,square
407.0,8.0,4.0,1.0,2.0,2.0,471.7948879115283,4.0,1.0,phase_1,,,,,,,,,,,,,orange,diamond
101.0,6.0,1.0,1.0,4.0,4.0,290.9616359975189,4.0,2.0,phase_1,,,,,,,,,,,,,green,hexagon
197.0,7.0,2.0,1.0,1.0,1.0,418.2140198536217,4.0,1.0,phase_1,,,,,,,,,,,,,magenta,square
103.0,2.0,1.0,0.0,1.0,1.0,404.6115060336888,4.0,1.0,phase_1,,,,,,,,,,,,,blue,circle
81.0,6.0,1.0,1.0,2.0,2.0,350.0049628783017,4.0,1.0,phase_1,,,,,,,,,,,,,green,hexagon
419.0,8.0,4.0,1.0,1.0,1.0,363.4679319802671,4.0,1.0,phase_1,,,,,,,,,,,,,orange,diamond
417.0,4.0,4.0,0.0,4.0,4.0,396.5227419976145,4.0,1.0,phase_1,,,,,,,,,,,,,cyan,triangle
419.0,8.0,4.0,1.0,1.0,1.0,363.857634132728,4.0,1.0,phase_1,,,,,,,,,,,,,orange,diamond
181.0,7.0,2.0,1.0,3.0,3.0,487.9422248341143,4.0,1.0,phase_1,,,,,,,,,,,,,magenta,square
48.0,1.0,0.5,0.0,4.0,4.0,454.0585479699075,4.0,1.0,phase_1,,,,,,,,,,,,,yellow,flipped triangle
202.0,7.0,2.0,1.0,1.0,1.0,354.871419025585,4.0,1.0,phase_1,,,,,,,,,,,,,magenta,square
72.0,1.0,0.5,0.0,1.0,1.0,389.4390689674765,4.0,1.0,phase_1,,,,,,,,,,,,,yellow,flipped triangle
0.0,4.0,0.0,0.0,2.0,2.0,399.823839077726,4.0,1.0,phase_1,,,,,,,,,,,,,cyan,triangle
397.0,8.0,4.0,1.0,4.0,4.0,412.4096999876201,4.0,1.0,phase_1,,,,,,,,,,,,,orange,diamond
30.0,5.0,0.5,1.0,1.0,1.0,399.5758220553398,4.0,1.0,phase_1,,,,,,,,,,,,,white,cross
59.0,5.0,0.5,1.0,4.0,4.0,366.5752599481493,4.0,1.0,phase_1,,,,,,,,,,,,,white,cross
410.0,4.0,4.0,0.0,1.0,1.0,332.9844390973449,4.0,1.0,phase_1,,,,,,,,,,,,,cyan,triangle
85.0,6.0,1.0,1.0,4.0,4.0,324.4415607769042,4.0,1.0,phase_1,,,,,,,,,,,,,green,hexagon
0.0,4.0,0.0,0.0,2.0,2.0,358.7034121155739,4.0,1.0,phase_1,,,,,,,,,,,,,cyan,triangle
0.0,6.0,0.0,1.0,1.0,1.0,436.6604650858789,4.0,1.0,phase_1,,,,,,,,,,,,,green,hexagon
0.0,4.0,0.0,0.0,1.0,1.0,403.2893471885472,4.0,1.0,phase_1,,,,,,,,,,,,,cyan,triangle
423.0,4.0,4.0,0.0,3.0,3.0,349.8426128644496,4.0,1.0,phase_1,,,,,,,,,,,,,cyan,triangle
410.0,8.0,4.0,1.0,4.0,4.0,337.3899660073221,4.0,1.0,phase_1,,,,,,,,,,,,,orange,diamond
0.0,3.0,0.0,0.0,2.0,2.0,350.1282730139792,4.0,1.0,phase_1,,,,,,,,,,,,,gray,I
199.0,7.0,2.0,1.0,3.0,3.0,340.7611509319395,4.0,1.0,phase_1,,,,,,,,,,,,,magenta,square
199.0,7.0,2.0,1.0,2.0,2.0,374.9835309572518,4.0,1.0,phase_1,,,,,,,,,,,,,magenta,square
397.0,8.0,4.0,1.0,3.0,3.0,383.6293430067599,4.0,1.0,phase_1,,,,,,,,,,,,,orange,diamond
419.0,4.0,4.0,0.0,2.0,2.0,329.2068389710039,4.0,1.0,phase_1,,,,,,,,,,,,,cyan,triangle
106.0,2.0,1.0,0.0,3.0,3.0,341.974213020876,4.0,1.0,phase_1,,,,,,,,,,,,,blue,circle
35.0,5.0,0.5,1.0,1.0,1.0,329.9127710051834,4.0,1.0,phase_1,,,,,,,,,,,,,white,cross
407.0,4.0,4.0,0.0,4.0,4.0,342.4279489554465,4.0,1.0,phase_1,,,,,,,,,,,,,cyan,triangle
122.0,2.0,1.0,0.0,2.0,2.0,355.3248380776495,4.0,1.0,phase_1,,,,,,,,,,,,,blue,circle
383.0,8.0,4.0,1.0,4.0,4.0,342.2244279645383,4.0,1.0,phase_1,,,,,,,,,,,,,orange,diamond
52.0,5.0,0.5,1.0,4.0,4.0,400.757199851796,4.0,1.0,phase_1,,,,,,,,,,,,,white,cross
40.0,1.0,0.5,0.0,3.0,3.0,366.2556500639766,4.0,1.0,phase_1,,,,,,,,,,,,,yellow,flipped triangle
384.0,8.0,4.0,1.0,2.0,2.0,354.9059440847486,4.0,1.0,phase_1,,,,,,,,,,,,,orange,diamond
182.0,3.0,2.0,0.0,1.0,1.0,368.0820469744503,4.0,1.0,phase_1,,,,,,,,,,,,,gray,I
389.0,8.0,4.0,1.0,2.0,2.0,358.3626318722963,4.0,1.0,phase_1,,,,,,,,,,,,,orange,diamond
0.0,5.0,0.0,1.0,4.0,4.0,326.7922019585967,4.0,1.0,phase_1,,,,,,,,,,,,,white,cross
72.0,5.0,0.5,1.0,4.0,4.0,358.0277021974325,4.0,1.0,phase_1,,,,,,,,,,,,,white,cross
40.0,5.0,0.5,1.0,1.0,1.0,347.2808229271322,4.0,1.0,phase_1,,,,,,,,,,,,,white,cross
66.0,5.0,0.5,1.0,3.0,3.0,358.6774209979921,4.0,1.0,phase_1,,,,,,,,,,,,,white,cross
0.0,4.0,0.0,0.0,4.0,4.0,370.6982878502458,4.0,1.0,phase_1,,,,,,,,,,,,,cyan,triangle
93.0,2.0,1.0,0.0,4.0,4.0,363.5968167800456,4.0,1.0,phase_1,,,,,,,,,,,,,blue,circle
188.0,7.0,2.0,1.0,1.0,1.0,416.8293108232319,4.0,1.0,phase_1,,,,,,,,,,,,,magenta,square
205.0,7.0,2.0,1.0,3.0,3.0,430.0618811976164,4.0,1.0,phase_1,,,,,,,,,,,,,magenta,square
213.0,7.0,2.0,1.0,2.0,2.0,374.9158168211579,4.0,1.0,phase_1,,,,,,,,,,,,,magenta,square
73.0,5.0,0.5,1.0,3.0,3.0,387.388400034979,4.0,1.0,phase_1,,,,,,,,,,,,,white,cross
0.0,7.0,0.0,1.0,3.0,3.0,420.9389530587941,4.0,1.0,phase_1,,,,,,,,,,,,,magenta,square
0.0,4.0,0.0,0.0,4.0,4.0,432.49073298648,4.0,1.0,phase_1,,,,,,,,,,,,,cyan,triangle
210.0,3.0,2.0,0.0,4.0,4.0,422.068458981812,4.0,1.0,phase_1,,,,,,,,,,,,,gray,I
74.0,5.0,0.5,1.0,2.0,2.0,365.8913620747626,4.0,1.0,phase_1,,,,,,,,,,,,,white,cross
0.0,8.0,0.0,1.0,3.0,3.0,379.4732980895787,4.0,1.0,phase_1,,,,,,,,,,,,,orange,diamond
209.0,7.0,2.0,1.0,2.0,2.0,344.4821599405259,4.0,1.0,phase_1,,,,,,,,,,,,,magenta,square
40.0,1.0,0.5,0.0,4.0,4.0,399.7526050079614,4.0,1.0,phase_1,,,,,,,,,,,,,yellow,flipped triangle
180.0,7.0,2.0,1.0,1.0,1.0,344.3134929984808,4.0,1.0,phase_1,,,,,,,,,,,,,magenta,square
0.0,2.0,0.0,0.0,2.0,2.0,403.613988077268,4.0,1.0,phase_1,,,,,,,,,,,,,blue,circle
89.0,6.0,1.0,1.0,4.0,4.0,347.0800418872386,4.0,1.0,phase_1,,,,,,,,,,,,,green,hexagon
0.0,8.0,0.0,1.0,2.0,2.0,584.9825281184167,4.0,1.0,phase_1,,,,,,,,,,,,,orange,diamond
0.0,2.0,0.0,0.0,4.0,4.0,413.8134210370481,4.0,1.0,phase_1,,,,,,,,,,,,,blue,circle
415.0,8.0,4.0,1.0,4.0,4.0,339.1252560541034,4.0,1.0,phase_1,,,,,,,,,,,,,orange,diamond
0.0,1.0,0.0,0.0,3.0,3.0,395.1699840836227,4.0,1.0,phase_1,,,,,,,,,,,,,yellow,flipped triangle
66.0,1.0,0.5,0.0,3.0,3.0,315.3156610205769,4.0,1.0,phase_1,,,,,,,,,,,,,yellow,flipped triangle
48.0,5.0,0.5,1.0,2.0,2.0,438.900092151016,4.0,1.0,phase_1,,,,,,,,,,,,,white,cross
0.0,2.0,0.0,0.0,2.0,2.0,360.5476019438356,4.0,1.0,phase_1,,,,,,,,,,,,,blue,circle
389.0,4.0,4.0,0.0,3.0,3.0,373.686671955511,4.0,1.0,phase_1,,,,,,,,,,,,,cyan,triangle
113.0,6.0,1.0,1.0,3.0,3.0,610.1881789509207,4.0,1.0,phase_1,,,,,,,,,,,,,green,hexagon
0.0,6.0,0.0,1.0,4.0,4.0,442.4824381712824,4.0,1.0,phase_1,,,,,,,,,,,,,green,hexagon
385.0,8.0,4.0,1.0,1.0,1.0,318.443413125351,4.0,1.0,phase_1,,,,,,,,,,,,,orange,diamond
68.0,1.0,0.5,0.0,2.0,2.0,354.2190999723971,4.0,1.0,phase_1,,,,,,,,,,,,,yellow,flipped triangle
39.0,5.0,0.5,1.0,2.0,2.0,342.9665139410645,4.0,1.0,phase_1,,,,,,,,,,,,,white,cross
111.0,2.0,1.0,0.0,2.0,2.0,375.5830398295074,4.0,1.0,phase_1,,,,,,,,,,,,,blue,circle
0.0,8.0,4.0,1.0,5.0,0.0,0.0,1.0,1.0,phase_2,stop,250.0,250.0,4.0,,,,,,,,,orange,diamond
0.0,4.0,4.0,0.0,6.0,6.0,515.8120568376034,1.0,1.0,phase_2,go,300.0,250.0,1.0,,,,,,,,,cyan,triangle
0.0,2.0,1.0,0.0,6.0,6.0,639.7911307867616,1.0,1.0,phase_2,go,300.0,250.0,1.0,,,,,,,,,blue,circle
0.0,3.0,2.0,0.0,5.0,5.0,662.7434729598463,1.0,1.0,phase_2,go,300.0,250.0,1.0,,,,,,,,,gray,I
0.0,1.0,0.5,0.0,6.0,6.0,337.6603729557246,1.0,1.0,phase_2,go,300.0,250.0,1.0,,,,,,,,,yellow,flipped triangle
0.0,5.0,0.5,1.0,6.0,0.0,0.0,1.0,1.0,phase_2,stop,300.0,250.0,4.0,,,,,,,,,white,cross
0.0,7.0,2.0,1.0,5.0,5.0,339.7996500134468,1.0,1.0,phase_2,stop,300.0,300.0,3.0,,,,,,,,,magenta,square
0.0,8.0,4.0,1.0,6.0,6.0,691.0429960116744,1.0,1.0,phase_2,go,250.0,300.0,1.0,,,,,,,,,orange,diamond
0.0,8.0,4.0,1.0,5.0,0.0,0.0,1.0,1.0,phase_2,stop,250.0,300.0,4.0,,,,,,,,,orange,diamond
0.0,4.0,4.0,0.0,6.0,6.0,671.3522411882877,1.0,1.0,phase_2,go,300.0,300.0,1.0,,,,,,,,,cyan,triangle
0.0,1.0,0.5,0.0,5.0,5.0,751.6792600508779,1.0,1.0,phase_2,go,300.0,300.0,1.0,,,,,,,,,yellow,flipped triangle
0.0,6.0,1.0,1.0,6.0,0.0,0.0,1.0,1.0,phase_2,stop,300.0,300.0,4.0,,,,,,,,,green,hexagon
0.0,5.0,0.5,1.0,6.0,0.0,0.0,1.0,1.0,phase_2,stop,300.0,350.0,4.0,,,,,,,,,white,cross
0.0,6.0,1.0,1.0,5.0,5.0,652.2018890827894,1.0,1.0,phase_2,go,300.0,400.0,1.0,,,,,,,,,green,hexagon
0.0,2.0,1.0,0.0,6.0,6.0,820.7792779430747,1.0,1.0,phase_2,go,300.0,400.0,1.0,,,,,,,,,blue,circle
0.0,3.0,2.0,0.0,6.0,6.0,808.1032820045948,1.0,1.0,phase_2,go,300.0,400.0,1.0,,,,,,,,,gray,I
0.0,8.0,4.0,1.0,6.0,6.0,754.7176759690046,1.0,1.0,phase_2,go,300.0,400.0,1.0,,,,,,,,,orange,diamond
0.0,5.0,0.5,1.0,5.0,0.0,0.0,1.0,1.0,phase_2,stop,300.0,400.0,4.0,,,,,,,,,white,cross
0.0,6.0,1.0,1.0,5.0,0.0,0.0,1.0,1.0,phase_2,stop,350.0,400.0,4.0,,,,,,,,,green,hexagon
0.0,8.0,4.0,1.0,6.0,6.0,590.1303798891604,1.0,1.0,phase_2,go,400.0,400.0,1.0,,,,,,,,,orange,diamond
0.0,1.0,0.5,0.0,5.0,5.0,779.8738880082965,1.0,1.0,phase_2,go,400.0,400.0,1.0,,,,,,,,,yellow,flipped triangle
0.0,6.0,1.0,1.0,6.0,0.0,0.0,1.0,1.0,phase_2,stop,400.0,400.0,4.0,,,,,,,,,green,hexagon
0.0,6.0,1.0,1.0,5.0,5.0,716.5021740365773,1.0,1.0,phase_2,go,400.0,450.0,1.0,,,,,,,,,green,hexagon
0.0,7.0,2.0,1.0,6.0,6.0,771.7101180460304,1.0,1.0,phase_2,go,400.0,450.0,1.0,,,,,,,,,magenta,square
0.0,8.0,4.0,1.0,5.0,0.0,0.0,1.0,1.0,phase_2,stop,400.0,450.0,4.0,,,,,,,,,orange,diamond
0.0,7.0,2.0,1.0,6.0,0.0,0.0,1.0,1.0,phase_2,stop,450.0,450.0,4.0,,,,,,,,,magenta,square
0.0,5.0,0.5,1.0,5.0,0.0,0.0,1.0,1.0,phase_2,stop,450.0,500.0,4.0,,,,,,,,,white,cross
0.0,5.0,0.5,1.0,6.0,6.0,640.7078369520605,1.0,1.0,phase_2,go,500.0,500.0,1.0,,,,,,,,,white,cross
0.0,5.0,0.5,1.0,6.0,6.0,899.9786039348692,1.0,1.0,phase_2,go,500.0,500.0,1.0,,,,,,,,,white,cross
0.0,4.0,4.0,0.0,5.0,5.0,888.5448139626533,1.0,1.0,phase_2,go,500.0,500.0,1.0,,,,,,,,,cyan,triangle
0.0,8.0,4.0,1.0,5.0,5.0,922.8239308577032,1.0,1.0,phase_2,go,500.0,500.0,1.0,,,,,,,,,orange,diamond
0.0,5.0,0.5,1.0,6.0,0.0,0.0,1.0,1.0,phase_2,stop,500.0,500.0,4.0,,,,,,,,,white,cross
0.0,2.0,1.0,0.0,6.0,6.0,880.6375409476459,1.0,1.0,phase_2,go,500.0,550.0,1.0,,,,,,,,,blue,circle
0.0,1.0,0.5,0.0,6.0,6.0,868.9057691954076,1.0,1.0,phase_2,go,500.0,550.0,1.0,,,,,,,,,yellow,flipped triangle
0.0,5.0,0.5,1.0,6.0,0.0,0.0,1.0,1.0,phase_2,stop,500.0,550.0,4.0,,,,,,,,,white,cross
0.0,5.0,0.5,1.0,5.0,0.0,0.0,1.0,1.0,phase_2,stop,500.0,600.0,4.0,,,,,,,,,white,cross
0.0,4.0,4.0,0.0,5.0,5.0,388.742908835411,2.0,1.0,phase_2,go,550.0,600.0,1.0,,,,,,,,,cyan,triangle
0.0,4.0,4.0,0.0,6.0,6.0,441.7844808194786,2.0,1.0,phase_2,go,550.0,600.0,1.0,,,,,,,,,cyan,triangle
0.0,3.0,2.0,0.0,5.0,5.0,363.8262699823826,2.0,1.0,phase_2,go,550.0,600.0,1.0,,,,,,,,,gray,I
0.0,6.0,1.0,1.0,5.0,5.0,467.50612789765,2.0,1.0,phase_2,go,550.0,600.0,1.0,,,,,,,,,green,hexagon
0.0,8.0,4.0,1.0,6.0,6.0,681.4068900421262,2.0,1.0,phase_2,stop,550.0,600.0,3.0,,,,,,,,,orange,diamond
0.0,7.0,2.0,1.0,6.0,0.0,0.0,2.0,1.0,phase_2,stop,550.0,550.0,4.0,,,,,,,,,magenta,square
0.0,3.0,2.0,0.0,6.0,6.0,775.1523058395833,2.0,1.0,phase_2,go,550.0,600.0,1.0,,,,,,,,,gray,I
0.0,1.0,0.5,0.0,5.0,5.0,584.3662079423666,2.0,1.0,phase_2,go,550.0,600.0,1.0,,,,,,,,,yellow,flipped triangle
0.0,8.0,4.0,1.0,5.0,5.0,549.5090030599385,2.0,1.0,phase_2,stop,550.0,600.0,3.0,,,,,,,,,orange,diamond
0.0,6.0,1.0,1.0,5.0,0.0,0.0,2.0,1.0,phase_2,stop,500.0,600.0,4.0,,,,,,,,,green,hexagon
0.0,7.0,2.0,1.0,5.0,0.0,0.0,2.0,1.0,phase_2,stop,550.0,600.0,4.0,,,,,,,,,magenta,square
0.0,1.0,0.5,0.0,5.0,5.0,588.2433690130711,2.0,1.0,phase_2,go,600.0,600.0,1.0,,,,,,,,,yellow,flipped triangle
0.0,8.0,4.0,1.0,6.0,0.0,0.0,2.0,1.0,phase_2,stop,600.0,600.0,4.0,,,,,,,,,orange,diamond
0.0,5.0,0.5,1.0,5.0,5.0,927.1216010674834,2.0,1.0,phase_2,go,600.0,650.0,1.0,,,,,,,,,white,cross
0.0,3.0,2.0,0.0,5.0,5.0,576.5066989697516,2.0,1.0,phase_2,go,600.0,650.0,1.0,,,,,,,,,gray,I
0.0,8.0,4.0,1.0,5.0,5.0,930.3724539931864,2.0,1.0,phase_2,go,600.0,650.0,1.0,,,,,,,,,orange,diamond
0.0,8.0,4.0,1.0,5.0,5.0,580.0842610187829,2.0,1.0,phase_2,stop,600.0,650.0,3.0,,,,,,,,,orange,diamond
0.0,3.0,2.0,0.0,5.0,5.0,683.6533630266786,2.0,1.0,phase_2,go,550.0,650.0,1.0,,,,,,,,,gray,I
0.0,5.0,0.5,1.0,5.0,0.0,0.0,2.0,1.0,phase_2,stop,550.0,650.0,4.0,,,,,,,,,white,cross
0.0,6.0,1.0,1.0,5.0,0.0,0.0,2.0,1.0,phase_2,stop,600.0,650.0,4.0,,,,,,,,,green,hexagon
0.0,1.0,0.5,0.0,5.0,5.0,896.5479219332337,2.0,1.0,phase_2,go,650.0,650.0,1.0,,,,,,,,,yellow,flipped triangle
0.0,5.0,0.5,1.0,6.0,6.0,371.8266270589083,2.0,1.0,phase_2,stop,650.0,650.0,3.0,,,,,,,,,white,cross
0.0,7.0,2.0,1.0,5.0,5.0,932.261317037046,2.0,1.0,phase_2,go,650.0,600.0,1.0,,,,,,,,,magenta,square
0.0,3.0,2.0,0.0,5.0,5.0,1115.2217402122917,2.0,1.0,phase_2,go,650.0,600.0,1.0,,,,,,,,,gray,I
0.0,7.0,2.0,1.0,5.0,0.0,0.0,2.0,1.0,phase_2,stop,650.0,600.0,4.0,,,,,,,,,magenta,square
0.0,2.0,1.0,0.0,5.0,5.0,620.5100491642952,2.0,1.0,phase_2,go,700.0,600.0,1.0,,,,,,,,,blue,circle
0.0,7.0,2.0,1.0,6.0,6.0,789.2829920165241,2.0,1.0,phase_2,go,700.0,600.0,1.0,,,,,,,,,magenta,square
0.0,2.0,1.0,0.0,6.0,6.0,1027.3060849867759,2.0,1.0,phase_2,go,700.0,600.0,1.0,,,,,,,,,blue,circle
0.0,6.0,1.0,1.0,6.0,0.0,0.0,2.0,1.0,phase_2,stop,700.0,600.0,4.0,,,,,,,,,green,hexagon
0.0,2.0,1.0,0.0,5.0,5.0,601.0299581103027,2.0,1.0,phase_2,go,700.0,650.0,1.0,,,,,,,,,blue,circle
0.0,6.0,1.0,1.0,5.0,5.0,770.3111141454428,2.0,1.0,phase_2,stop,700.0,650.0,3.0,,,,,,,,,green,hexagon
0.0,8.0,4.0,1.0,6.0,0.0,0.0,2.0,1.0,phase_2,stop,650.0,650.0,4.0,,,,,,,,,orange,diamond
0.0,1.0,0.5,0.0,5.0,5.0,638.4717270266265,2.0,1.0,phase_2,go,650.0,700.0,1.0,,,,,,,,,yellow,flipped triangle
0.0,5.0,0.5,1.0,6.0,0.0,0.0,2.0,1.0,phase_2,stop,650.0,700.0,4.0,,,,,,,,,white,cross
0.0,3.0,2.0,0.0,5.0,5.0,642.6724100019783,2.0,1.0,phase_2,go,650.0,750.0,1.0,,,,,,,,,gray,I
0.0,1.0,0.5,0.0,5.0,5.0,1059.6070119645449,2.0,1.0,phase_2,go,650.0,750.0,1.0,,,,,,,,,yellow,flipped triangle
0.0,8.0,4.0,1.0,6.0,6.0,374.3809689767658,3.0,1.0,phase_2,stop,650.0,750.0,3.0,,,,,,,,,orange,diamond
0.0,8.0,4.0,1.0,6.0,6.0,315.5344659462571,3.0,1.0,phase_2,stop,650.0,700.0,3.0,,,,,,,,,orange,diamond
0.0,8.0,4.0,1.0,6.0,6.0,646.9421610236168,3.0,1.0,phase_2,stop,650.0,650.0,3.0,,,,,,,,,orange,diamond
0.0,2.0,1.0,0.0,5.0,5.0,566.4630578830838,3.0,1.0,phase_2,go,650.0,600.0,1.0,,,,,,,,,blue,circle
0.0,1.0,0.5,0.0,5.0,5.0,689.9192009586841,3.0,1.0,phase_2,go,650.0,600.0,1.0,,,,,,,,,yellow,flipped triangle
0.0,4.0,4.0,0.0,5.0,5.0,365.5706280842423,3.0,1.0,phase_2,go,650.0,600.0,1.0,,,,,,,,,cyan,triangle
0.0,3.0,2.0,0.0,6.0,6.0,759.1923419386148,3.0,1.0,phase_2,go,650.0,600.0,1.0,,,,,,,,,gray,I
0.0,4.0,4.0,0.0,6.0,6.0,298.7974658608436,3.0,1.0,phase_2,go,650.0,600.0,1.0,,,,,,,,,cyan,triangle
0.0,5.0,0.5,1.0,5.0,5.0,582.5786490458995,3.0,1.0,phase_2,go,650.0,600.0,1.0,,,,,,,,,white,cross
0.0,8.0,4.0,1.0,5.0,5.0,842.3953261226416,3.0,1.0,phase_2,stop,650.0,600.0,3.0,,,,,,,,,orange,diamond
0.0,2.0,1.0,0.0,6.0,6.0,784.82138318941,3.0,1.0,phase_2,go,600.0,600.0,1.0,,,,,,,,,blue,circle
0.0,1.0,0.5,0.0,5.0,5.0,641.7528109159321,3.0,1.0,phase_2,go,600.0,600.0,1.0,,,,,,,,,yellow,flipped triangle
0.0,2.0,1.0,0.0,6.0,6.0,786.356694996357,3.0,1.0,phase_2,go,600.0,600.0,1.0,,,,,,,,,blue,circle
0.0,4.0,4.0,0.0,5.0,5.0,643.96739192307,3.0,1.0,phase_2,go,600.0,600.0,1.0,,,,,,,,,cyan,triangle
0.0,8.0,4.0,1.0,5.0,5.0,432.2642779443413,3.0,1.0,phase_2,stop,600.0,600.0,3.0,,,,,,,,,orange,diamond
0.0,4.0,4.0,0.0,5.0,5.0,825.9205010253936,3.0,1.0,phase_2,go,550.0,600.0,1.0,,,,,,,,,cyan,triangle
0.0,3.0,2.0,0.0,6.0,6.0,790.1084071490914,3.0,1.0,phase_2,go,550.0,600.0,1.0,,,,,,,,,gray,I
0.0,7.0,2.0,1.0,5.0,5.0,264.2581679392606,3.0,1.0,phase_2,go,550.0,600.0,1.0,,,,,,,,,magenta,square
0.0,6.0,1.0,1.0,6.0,6.0,411.1848180182278,3.0,1.0,phase_2,stop,550.0,600.0,3.0,,,,,,,,,green,hexagon
0.0,6.0,1.0,1.0,6.0,0.0,0.0,3.0,1.0,phase_2,stop,550.0,550.0,4.0,,,,,,,,,green,hexagon
0.0,3.0,2.0,0.0,6.0,6.0,703.4450331702828,3.0,1.0,phase_2,go,550.0,600.0,1.0,,,,,,,,,gray,I
0.0,3.0,2.0,0.0,5.0,5.0,694.5399679243565,3.0,1.0,phase_2,go,550.0,600.0,1.0,,,,,,,,,gray,I
0.0,8.0,4.0,1.0,6.0,6.0,772.5108929444104,3.0,1.0,phase_2,go,550.0,600.0,1.0,,,,,,,,,orange,diamond
0.0,8.0,4.0,1.0,6.0,6.0,539.2395018134266,3.0,1.0,phase_2,go,550.0,600.0,1.0,,,,,,,,,orange,diamond
0.0,2.0,1.0,0.0,5.0,5.0,346.8119779136032,3.0,1.0,phase_2,go,550.0,600.0,1.0,,,,,,,,,blue,circle
0.0,2.0,1.0,0.0,5.0,5.0,876.8952521495521,3.0,1.0,phase_2,go,550.0,600.0,1.0,,,,,,,,,blue,circle
0.0,6.0,1.0,1.0,5.0,5.0,531.4242020249367,3.0,1.0,phase_2,stop,550.0,600.0,3.0,,,,,,,,,green,hexagon
0.0,6.0,1.0,1.0,6.0,6.0,625.283258035779,3.0,1.0,phase_2,stop,500.0,600.0,3.0,,,,,,,,,green,hexagon
0.0,6.0,1.0,1.0,6.0,0.0,0.0,3.0,1.0,phase_2,stop,500.0,550.0,4.0,,,,,,,,,green,hexagon
0.0,2.0,1.0,0.0,5.0,5.0,497.5266619585454,3.0,1.0,phase_2,go,500.0,600.0,1.0,,,,,,,,,blue,circle
0.0,2.0,1.0,0.0,5.0,5.0,397.2199999261647,3.0,1.0,phase_2,go,500.0,600.0,1.0,,,,,,,,,blue,circle
0.0,5.0,0.5,1.0,6.0,6.0,364.8775417823344,3.0,1.0,phase_2,stop,500.0,600.0,3.0,,,,,,,,,white,cross
0.0,7.0,2.0,1.0,6.0,6.0,331.8545080255717,3.0,1.0,phase_2,stop,500.0,550.0,3.0,,,,,,,,,magenta,square
0.0,8.0,4.0,1.0,6.0,6.0,864.7009280975908,3.0,1.0,phase_2,go,500.0,500.0,1.0,,,,,,,,,orange,diamond
0.0,1.0,0.5,0.0,5.0,5.0,334.8456609528512,3.0,1.0,phase_2,go,500.0,500.0,1.0,,,,,,,,,yellow,flipped triangle
0.0,5.0,0.5,1.0,6.0,6.0,347.5945759564638,3.0,1.0,phase_2,go,500.0,500.0,1.0,,,,,,,,,white,cross
0.0,4.0,4.0,0.0,5.0,5.0,439.4605979323387,4.0,1.0,phase_2,go,500.0,500.0,1.0,,,,,,,,,cyan,triangle
0.0,8.0,4.0,1.0,6.0,6.0,339.380380930379,4.0,1.0,phase_2,stop,500.0,500.0,3.0,,,,,,,,,orange,diamond
0.0,4.0,4.0,0.0,6.0,6.0,329.6236519236117,4.0,1.0,phase_2,go,500.0,450.0,1.0,,,,,,,,,cyan,triangle
0.0,7.0,2.0,1.0,6.0,6.0,319.2637099418789,4.0,1.0,phase_2,stop,500.0,450.0,3.0,,,,,,,,,magenta,square
0.0,2.0,1.0,0.0,6.0,6.0,782.4345089029521,4.0,1.0,phase_2,go,500.0,400.0,1.0,,,,,,,,,blue,circle
0.0,5.0,0.5,1.0,6.0,6.0,655.9190128464252,4.0,1.0,phase_2,go,500.0,400.0,1.0,,,,,,,,,white,cross
0.0,6.0,1.0,1.0,6.0,6.0,556.9986570626497,4.0,1.0,phase_2,stop,500.0,400.0,3.0,,,,,,,,,green,hexagon
0.0,3.0,2.0,0.0,6.0,6.0,818.5732029378414,4.0,1.0,phase_2,go,500.0,350.0,1.0,,,,,,,,,gray,I
0.0,4.0,4.0,0.0,5.0,5.0,647.3001779522747,4.0,1.0,phase_2,go,500.0,350.0,1.0,,,,,,,,,cyan,triangle
0.0,4.0,4.0,0.0,6.0,6.0,549.5364018715918,4.0,1.0,phase_2,go,500.0,350.0,1.0,,,,,,,,,cyan,triangle
0.0,3.0,2.0,0.0,6.0,6.0,516.2790038157254,4.0,1.0,phase_2,go,500.0,350.0,1.0,,,,,,,,,gray,I
0.0,1.0,0.5,0.0,6.0,6.0,684.0976371895522,4.0,1.0,phase_2,go,500.0,350.0,1.0,,,,,,,,,yellow,flipped triangle
0.0,1.0,0.5,0.0,6.0,6.0,427.6060000993311,4.0,1.0,phase_2,go,500.0,350.0,1.0,,,,,,,,,yellow,flipped triangle
0.0,4.0,4.0,0.0,6.0,6.0,325.5350100807845,4.0,1.0,phase_2,go,500.0,350.0,1.0,,,,,,,,,cyan,triangle
0.0,1.0,0.5,0.0,5.0,5.0,562.1247729286551,4.0,1.0,phase_2,go,500.0,350.0,1.0,,,,,,,,,yellow,flipped triangle
0.0,6.0,1.0,1.0,6.0,0.0,0.0,4.0,1.0,phase_2,stop,500.0,350.0,4.0,,,,,,,,,green,hexagon
0.0,1.0,0.5,0.0,5.0,5.0,564.4224260468036,4.0,1.0,phase_2,go,500.0,400.0,1.0,,,,,,,,,yellow,flipped triangle
0.0,5.0,0.5,1.0,5.0,5.0,463.9634578488767,4.0,1.0,phase_2,stop,500.0,400.0,3.0,,,,,,,,,white,cross
0.0,6.0,1.0,1.0,5.0,5.0,636.3818880636245,4.0,1.0,phase_2,go,450.0,400.0,1.0,,,,,,,,,green,hexagon
0.0,6.0,1.0,1.0,5.0,5.0,472.2962330561131,4.0,1.0,phase_2,stop,450.0,400.0,3.0,,,,,,,,,green,hexagon
0.0,4.0,4.0,0.0,5.0,5.0,612.5058720353991,4.0,1.0,phase_2,go,400.0,400.0,1.0,,,,,,,,,cyan,triangle
0.0,3.0,2.0,0.0,5.0,5.0,737.7631790004671,4.0,1.0,phase_2,go,400.0,400.0,1.0,,,,,,,,,gray,I
0.0,6.0,1.0,1.0,5.0,5.0,795.0518620200455,4.0,1.0,phase_2,go,400.0,400.0,1.0,,,,,,,,,green,hexagon
0.0,7.0,2.0,1.0,6.0,0.0,0.0,4.0,1.0,phase_2,stop,400.0,400.0,4.0,,,,,,,,,magenta,square
0.0,6.0,1.0,1.0,5.0,5.0,324.0502020344138,4.0,1.0,phase_2,stop,400.0,450.0,3.0,,,,,,,,,green,hexagon
0.0,7.0,2.0,1.0,5.0,0.0,0.0,4.0,1.0,phase_2,stop,350.0,450.0,4.0,,,,,,,,,magenta,square
0.0,4.0,4.0,0.0,5.0,5.0,528.7554929964244,4.0,1.0,phase_2,go,400.0,450.0,1.0,,,,,,,,,cyan,triangle
0.0,3.0,2.0,0.0,5.0,5.0,610.1961559616029,4.0,1.0,phase_2,go,400.0,450.0,1.0,,,,,,,,,gray,I
0.0,4.0,4.0,0.0,6.0,6.0,755.6766089983284,4.0,1.0,phase_2,go,400.0,450.0,1.0,,,,,,,,,cyan,triangle
0.0,3.0,2.0,0.0,6.0,6.0,499.4304839055985,4.0,1.0,phase_2,go,400.0,450.0,1.0,,,,,,,,,gray,I
0.0,1.0,0.5,0.0,6.0,6.0,575.8743970654905,4.0,1.0,phase_2,go,400.0,450.0,1.0,,,,,,,,,yellow,flipped triangle
0.0,3.0,2.0,0.0,5.0,5.0,385.5732530355453,4.0,1.0,phase_2,go,400.0,450.0,1.0,,,,,,,,,gray,I
0.0,2.0,1.0,0.0,5.0,5.0,646.8199989758432,4.0,1.0,phase_2,go,400.0,450.0,1.0,,,,,,,,,blue,circle
0.0,7.0,2.0,1.0,6.0,6.0,480.7457469869405,4.0,1.0,phase_2,stop,400.0,450.0,3.0,,,,,,,,,magenta,square
0.0,2.0,1.0,0.0,5.0,5.0,423.9732520654797,4.0,1.0,phase_2,go,400.0,400.0,1.0,,,,,,,,,blue,circle
0.0,2.0,1.0,0.0,5.0,5.0,546.6945618391037,4.0,1.0,phase_2,go,400.0,400.0,1.0,,,,,,,,,blue,circle
0.0,7.0,2.0,1.0,5.0,5.0,523.647635942325,5.0,1.0,phase_2,stop,400.0,400.0,3.0,,,,,,,,,magenta,square
0.0,7.0,2.0,1.0,6.0,6.0,470.6318080425262,5.0,1.0,phase_2,stop,350.0,400.0,3.0,,,,,,,,,magenta,square
0.0,2.0,1.0,0.0,6.0,6.0,615.4683800414205,5.0,1.0,phase_2,go,350.0,350.0,1.0,,,,,,,,,blue,circle
0.0,4.0,4.0,0.0,6.0,6.0,675.2617708407342,5.0,1.0,phase_2,go,350.0,350.0,1.0,,,,,,,,,cyan,triangle
0.0,3.0,2.0,0.0,6.0,6.0,706.4370468724519,5.0,1.0,phase_2,go,350.0,350.0,1.0,,,,,,,,,gray,I
0.0,5.0,0.5,1.0,5.0,0.0,0.0,5.0,1.0,phase_2,stop,350.0,350.0,4.0,,,,,,,,,white,cross
0.0,8.0,4.0,1.0,5.0,0.0,0.0,5.0,1.0,phase_2,stop,400.0,350.0,4.0,,,,,,,,,orange,diamond
0.0,1.0,0.5,0.0,6.0,6.0,677.2420441266149,5.0,1.0,phase_2,go,450.0,350.0,1.0,,,,,,,,,yellow,flipped triangle
0.0,5.0,0.5,1.0,5.0,5.0,418.2324388530105,5.0,1.0,phase_2,stop,450.0,350.0,3.0,,,,,,,,,white,cross
0.0,2.0,1.0,0.0,5.0,5.0,747.9884079657495,5.0,1.0,phase_2,go,400.0,350.0,1.0,,,,,,,,,blue,circle
0.0,5.0,0.5,1.0,5.0,5.0,824.3543289136142,5.0,1.0,phase_2,go,400.0,350.0,1.0,,,,,,,,,white,cross
0.0,3.0,2.0,0.0,5.0,5.0,410.2848430629819,5.0,1.0,phase_2,go,400.0,350.0,1.0,,,,,,,,,gray,I
0.0,6.0,1.0,1.0,6.0,0.0,0.0,5.0,1.0,phase_2,stop,400.0,350.0,4.0,,,,,,,,,green,hexagon
0.0,2.0,1.0,0.0,5.0,5.0,546.8724130187184,5.0,1.0,phase_2,go,400.0,400.0,1.0,,,,,,,,,blue,circle
0.0,8.0,4.0,1.0,5.0,5.0,404.0246731601655,5.0,1.0,phase_2,go,400.0,400.0,1.0,,,,,,,,,orange,diamond
0.0,7.0,2.0,1.0,6.0,0.0,0.0,5.0,1.0,phase_2,stop,400.0,400.0,4.0,,,,,,,,,magenta,square
0.0,4.0,4.0,0.0,6.0,6.0,427.2767319343984,5.0,1.0,phase_2,go,400.0,450.0,1.0,,,,,,,,,cyan,triangle
0.0,6.0,1.0,1.0,5.0,0.0,0.0,5.0,1.0,phase_2,stop,400.0,450.0,4.0,,,,,,,,,green,hexagon
0.0,4.0,4.0,0.0,6.0,6.0,360.3816509712487,5.0,1.0,phase_2,go,450.0,450.0,1.0,,,,,,,,,cyan,triangle
0.0,5.0,0.5,1.0,5.0,5.0,370.5405918881297,5.0,1.0,phase_2,stop,450.0,450.0,3.0,,,,,,,,,white,cross
0.0,4.0,4.0,0.0,5.0,5.0,341.2225309293717,5.0,1.0,phase_2,go,400.0,450.0,1.0,,,,,,,,,cyan,triangle
0.0,2.0,1.0,0.0,6.0,6.0,757.2215551044792,5.0,1.0,phase_2,go,400.0,450.0,1.0,,,,,,,,,blue,circle
0.0,3.0,2.0,0.0,5.0,5.0,609.4824920874089,5.0,1.0,phase_2,go,400.0,450.0,1.0,,,,,,,,,gray,I
0.0,5.0,0.5,1.0,5.0,5.0,430.1188888493925,5.0,1.0,phase_2,stop,400.0,450.0,3.0,,,,,,,,,white,cross
0.0,4.0,4.0,0.0,5.0,5.0,342.615565052256,5.0,1.0,phase_2,go,350.0,450.0,1.0,,,,,,,,,cyan,triangle
0.0,3.0,2.0,0.0,6.0,6.0,357.4803269002586,5.0,1.0,phase_2,go,350.0,450.0,1.0,,,,,,,,,gray,I
0.0,3.0,2.0,0.0,6.0,6.0,773.4635879751295,5.0,1.0,phase_2,go,350.0,450.0,1.0,,,,,,,,,gray,I
0.0,2.0,1.0,0.0,5.0,5.0,786.7660119663924,5.0,1.0,phase_2,go,350.0,450.0,1.0,,,,,,,,,blue,circle
0.0,5.0,0.5,1.0,6.0,6.0,483.4859559778124,5.0,1.0,phase_2,stop,350.0,450.0,3.0,,,,,,,,,white,cross
0.0,5.0,0.5,1.0,5.0,0.0,0.0,5.0,1.0,phase_2,stop,350.0,400.0,4.0,,,,,,,,,white,cross
0.0,2.0,1.0,0.0,6.0,6.0,436.1709340009838,5.0,1.0,phase_2,go,400.0,400.0,1.0,,,,,,,,,blue,circle
0.0,7.0,2.0,1.0,5.0,5.0,448.5510741360485,5.0,1.0,phase_2,stop,400.0,400.0,3.0,,,,,,,,,magenta,square
0.0,5.0,0.5,1.0,5.0,0.0,0.0,5.0,1.0,phase_2,stop,350.0,400.0,4.0,,,,,,,,,white,cross
0.0,5.0,0.5,1.0,6.0,6.0,382.7107429970056,5.0,1.0,phase_2,stop,400.0,400.0,3.0,,,,,,,,,white,cross
0.0,4.0,4.0,0.0,6.0,6.0,490.0338149163872,5.0,1.0,phase_2,go,400.0,350.0,1.0,,,,,,,,,cyan,triangle
0.0,6.0,1.0,1.0,6.0,0.0,0.0,5.0,1.0,phase_2,stop,400.0,350.0,4.0,,,,,,,,,green,hexagon
0.0,1.0,0.5,0.0,6.0,6.0,337.9347529262304,6.0,1.0,phase_2,go,400.0,400.0,1.0,,,,,,,,,yellow,flipped triangle
0.0,1.0,0.5,0.0,5.0,5.0,618.7542900443077,6.0,1.0,phase_2,go,400.0,400.0,1.0,,,,,,,,,yellow,flipped triangle
0.0,1.0,0.5,0.0,6.0,6.0,765.5770669225603,6.0,1.0,phase_2,go,400.0,400.0,1.0,,,,,,,,,yellow,flipped triangle
0.0,8.0,4.0,1.0,5.0,5.0,483.8932920247316,6.0,1.0,phase_2,stop,400.0,400.0,3.0,,,,,,,,,orange,diamond
0.0,4.0,4.0,0.0,6.0,6.0,385.0368489511311,6.0,1.0,phase_2,go,350.0,400.0,1.0,,,,,,,,,cyan,triangle
0.0,7.0,2.0,1.0,5.0,0.0,0.0,6.0,1.0,phase_2,stop,350.0,400.0,4.0,,,,,,,,,magenta,square
0.0,8.0,4.0,1.0,5.0,0.0,0.0,6.0,1.0,phase_2,stop,400.0,400.0,4.0,,,,,,,,,orange,diamond
0.0,6.0,1.0,1.0,5.0,5.0,669.3090449552983,6.0,1.0,phase_2,stop,450.0,400.0,3.0,,,,,,,,,green,hexagon
0.0,7.0,2.0,1.0,6.0,6.0,453.2925961539149,6.0,1.0,phase_2,go,400.0,400.0,1.0,,,,,,,,,magenta,square
0.0,6.0,1.0,1.0,5.0,0.0,0.0,6.0,1.0,phase_2,stop,400.0,400.0,4.0,,,,,,,,,green,hexagon
0.0,8.0,4.0,1.0,6.0,6.0,390.4356081038713,6.0,1.0,phase_2,stop,450.0,400.0,3.0,,,,,,,,,orange,diamond
0.0,3.0,2.0,0.0,6.0,6.0,716.3324190769345,6.0,1.0,phase_2,go,450.0,350.0,1.0,,,,,,,,,gray,I
0.0,2.0,1.0,0.0,5.0,5.0,526.2488520238549,6.0,1.0,phase_2,go,450.0,350.0,1.0,,,,,,,,,blue,circle
0.0,4.0,4.0,0.0,5.0,5.0,806.2690950464457,6.0,1.0,phase_2,go,450.0,350.0,1.0,,,,,,,,,cyan,triangle
0.0,7.0,2.0,1.0,5.0,5.0,953.4462129231542,6.0,1.0,phase_2,go,450.0,350.0,1.0,,,,,,,,,magenta,square
0.0,2.0,1.0,0.0,6.0,6.0,605.1763279829174,6.0,1.0,phase_2,go,450.0,350.0,1.0,,,,,,,,,blue,circle
0.0,7.0,2.0,1.0,5.0,0.0,0.0,6.0,1.0,phase_2,stop,450.0,350.0,4.0,,,,,,,,,magenta,square
0.0,3.0,2.0,0.0,6.0,6.0,584.8534449469298,6.0,1.0,phase_2,go,500.0,350.0,1.0,,,,,,,,,gray,I
0.0,3.0,2.0,0.0,6.0,6.0,598.3582050539553,6.0,1.0,phase_2,go,500.0,350.0,1.0,,,,,,,,,gray,I
0.0,7.0,2.0,1.0,5.0,0.0,0.0,6.0,1.0,phase_2,stop,500.0,350.0,4.0,,,,,,,,,magenta,square
0.0,5.0,0.5,1.0,6.0,6.0,690.3246690053493,6.0,1.0,phase_2,go,550.0,350.0,1.0,,,,,,,,,white,cross
0.0,8.0,4.0,1.0,6.0,0.0,0.0,6.0,1.0,phase_2,stop,550.0,350.0,4.0,,,,,,,,,orange,diamond
0.0,2.0,1.0,0.0,6.0,6.0,512.1277200523764,6.0,1.0,phase_2,go,550.0,400.0,1.0,,,,,,,,,blue,circle
0.0,1.0,0.5,0.0,6.0,6.0,657.1058731060475,6.0,1.0,phase_2,go,550.0,400.0,1.0,,,,,,,,,yellow,flipped triangle
0.0,6.0,1.0,1.0,6.0,6.0,512.9598320927471,6.0,1.0,phase_2,go,550.0,400.0,1.0,,,,,,,,,green,hexagon
0.0,1.0,0.5,0.0,5.0,5.0,796.155066927895,6.0,1.0,phase_2,go,550.0,400.0,1.0,,,,,,,,,yellow,flipped triangle
0.0,1.0,0.5,0.0,6.0,6.0,404.5435700099915,6.0,1.0,phase_2,go,550.0,400.0,1.0,,,,,,,,,yellow,flipped triangle
0.0,7.0,2.0,1.0,6.0,6.0,438.0005397833884,6.0,1.0,phase_2,go,550.0,400.0,1.0,,,,,,,,,magenta,square
0.0,2.0,1.0,0.0,5.0,5.0,672.6539740338922,6.0,1.0,phase_2,go,550.0,400.0,1.0,,,,,,,,,blue,circle
0.0,7.0,2.0,1.0,5.0,5.0,583.2165440078825,6.0,1.0,phase_2,stop,550.0,400.0,3.0,,,,,,,,,magenta,square
0.0,8.0,4.0,1.0,5.0,5.0,653.0688381753862,6.0,1.0,phase_2,stop,500.0,400.0,3.0,,,,,,,,,orange,diamond
0.0,1.0,0.5,0.0,6.0,6.0,777.4220569990575,6.0,1.0,phase_2,go,450.0,400.0,1.0,,,,,,,,,yellow,flipped triangle
0.0,3.0,2.0,0.0,5.0,5.0,1058.759809937328,6.0,1.0,phase_2,go,450.0,400.0,1.0,,,,,,,,,gray,I
0.0,7.0,2.0,1.0,5.0,5.0,441.0734109114855,6.0,1.0,phase_2,stop,450.0,400.0,3.0,,,,,,,,,magenta,square
0.0,5.0,0.5,1.0,5.0,0.0,0.0,6.0,1.0,phase_2,stop,400.0,400.0,4.0,,,,,,,,,white,cross
0.0,3.0,2.0,0.0,6.0,6.0,670.2211019583046,6.0,1.0,phase_2,go,450.0,400.0,1.0,,,,,,,,,gray,I
0.0,8.0,4.0,1.0,5.0,5.0,549.9565780628473,7.0,1.0,phase_2,stop,450.0,400.0,3.0,,,,,,,,,orange,diamond
0.0,1.0,0.5,0.0,5.0,5.0,671.7926959972829,7.0,1.0,phase_2,go,400.0,400.0,1.0,,,,,,,,,yellow,flipped triangle
0.0,5.0,0.5,1.0,6.0,0.0,0.0,7.0,1.0,phase_2,stop,400.0,400.0,4.0,,,,,,,,,white,cross
0.0,4.0,4.0,0.0,5.0,5.0,627.6703369803727,7.0,1.0,phase_2,go,400.0,450.0,1.0,,,,,,,,,cyan,triangle
0.0,4.0,4.0,0.0,6.0,6.0,439.2539190594107,7.0,1.0,phase_2,go,400.0,450.0,1.0,,,,,,,,,cyan,triangle
0.0,4.0,4.0,0.0,5.0,5.0,722.8436060249805,7.0,1.0,phase_2,go,400.0,450.0,1.0,,,,,,,,,cyan,triangle
0.0,3.0,2.0,0.0,5.0,5.0,776.4308489859104,7.0,1.0,phase_2,go,400.0,450.0,1.0,,,,,,,,,gray,I
0.0,6.0,1.0,1.0,6.0,0.0,0.0,7.0,1.0,phase_2,stop,400.0,450.0,4.0,,,,,,,,,green,hexagon
0.0,2.0,1.0,0.0,5.0,5.0,667.5652421545237,7.0,1.0,phase_2,go,400.0,500.0,1.0,,,,,,,,,blue,circle
0.0,6.0,1.0,1.0,5.0,5.0,542.091386159882,7.0,1.0,phase_2,go,400.0,500.0,1.0,,,,,,,,,green,hexagon
0.0,3.0,2.0,0.0,5.0,5.0,826.6263301484287,7.0,1.0,phase_2,go,400.0,500.0,1.0,,,,,,,,,gray,I
0.0,7.0,2.0,1.0,6.0,6.0,546.3569390121847,7.0,1.0,phase_2,stop,400.0,500.0,3.0,,,,,,,,,magenta,square
0.0,4.0,4.0,0.0,6.0,6.0,736.3860472105443,7.0,1.0,phase_2,go,400.0,450.0,1.0,,,,,,,,,cyan,triangle
0.0,1.0,0.5,0.0,5.0,5.0,840.9625759813935,7.0,1.0,phase_2,go,400.0,450.0,1.0,,,,,,,,,yellow,flipped triangle
0.0,8.0,4.0,1.0,6.0,0.0,0.0,7.0,1.0,phase_2,stop,400.0,450.0,4.0,,,,,,,,,orange,diamond
0.0,8.0,4.0,1.0,5.0,0.0,0.0,7.0,1.0,phase_2,stop,400.0,500.0,4.0,,,,,,,,,orange,diamond
0.0,1.0,0.5,0.0,5.0,5.0,492.0833520591259,7.0,1.0,phase_2,go,450.0,500.0,1.0,,,,,,,,,yellow,flipped triangle
0.0,3.0,2.0,0.0,5.0,5.0,686.7172617930919,7.0,1.0,phase_2,go,450.0,500.0,1.0,,,,,,,,,gray,I
0.0,7.0,2.0,1.0,6.0,6.0,743.0230928584933,7.0,1.0,phase_2,stop,450.0,500.0,3.0,,,,,,,,,magenta,square
0.0,5.0,0.5,1.0,5.0,5.0,822.9338249657303,7.0,1.0,phase_2,go,450.0,450.0,1.0,,,,,,,,,white,cross
0.0,1.0,0.5,0.0,5.0,5.0,790.06213019602,7.0,1.0,phase_2,go,450.0,450.0,1.0,,,,,,,,,yellow,flipped triangle
0.0,2.0,1.0,0.0,6.0,6.0,644.45540914312,7.0,1.0,phase_2,go,450.0,450.0,1.0,,,,,,,,,blue,circle
0.0,2.0,1.0,0.0,6.0,6.0,386.3340839743614,7.0,1.0,phase_2,go,450.0,450.0,1.0,,,,,,,,,blue,circle
0.0,6.0,1.0,1.0,6.0,6.0,419.9979070108384,7.0,1.0,phase_2,go,450.0,450.0,1.0,,,,,,,,,green,hexagon
0.0,8.0,4.0,1.0,6.0,6.0,364.2466140445322,7.0,1.0,phase_2,stop,450.0,450.0,3.0,,,,,,,,,orange,diamond
0.0,6.0,1.0,1.0,6.0,0.0,0.0,7.0,1.0,phase_2,stop,450.0,400.0,4.0,,,,,,,,,green,hexagon
0.0,7.0,2.0,1.0,6.0,0.0,0.0,7.0,1.0,phase_2,stop,450.0,450.0,4.0,,,,,,,,,magenta,square
0.0,1.0,0.5,0.0,6.0,6.0,445.6967089790851,7.0,1.0,phase_2,go,450.0,500.0,1.0,,,,,,,,,yellow,flipped triangle
0.0,2.0,1.0,0.0,5.0,5.0,570.7654738798738,7.0,1.0,phase_2,go,450.0,500.0,1.0,,,,,,,,,blue,circle
0.0,5.0,0.5,1.0,6.0,6.0,335.1581250317395,7.0,1.0,phase_2,stop,450.0,500.0,3.0,,,,,,,,,white,cross
0.0,4.0,4.0,0.0,5.0,5.0,618.010314879939,7.0,1.0,phase_2,go,450.0,450.0,1.0,,,,,,,,,cyan,triangle
0.0,8.0,4.0,1.0,6.0,0.0,0.0,7.0,1.0,phase_2,stop,450.0,450.0,4.0,,,,,,,,,orange,diamond
0.0,2.0,1.0,0.0,6.0,6.0,709.977000951767,7.0,1.0,phase_2,go,450.0,500.0,1.0,,,,,,,,,blue,circle
0.0,1.0,0.5,0.0,6.0,6.0,630.2841228898615,7.0,1.0,phase_2,go,450.0,500.0,1.0,,,,,,,,,yellow,flipped triangle
0.0,7.0,2.0,1.0,5.0,0.0,0.0,7.0,1.0,phase_2,stop,450.0,500.0,4.0,,,,,,,,,magenta,square
0.0,5.0,0.5,1.0,5.0,0.0,0.0,7.0,1.0,phase_2,stop,500.0,500.0,4.0,,,,,,,,,white,cross
0.0,7.0,2.0,1.0,5.0,5.0,505.7208149228245,8.0,1.0,phase_2,go,550.0,500.0,1.0,,,,,,,,,magenta,square
0.0,6.0,1.0,1.0,6.0,6.0,563.0711710546166,8.0,1.0,phase_2,go,550.0,500.0,1.0,,,,,,,,,green,hexagon
0.0,6.0,1.0,1.0,6.0,6.0,457.8961371444165,8.0,1.0,phase_2,stop,550.0,500.0,3.0,,,,,,,,,green,hexagon
0.0,2.0,1.0,0.0,5.0,5.0,493.7756529543549,8.0,1.0,phase_2,go,550.0,450.0,1.0,,,,,,,,,blue,circle
0.0,1.0,0.5,0.0,6.0,6.0,730.1861040759832,8.0,1.0,phase_2,go,550.0,450.0,1.0,,,,,,,,,yellow,flipped triangle
0.0,4.0,4.0,0.0,5.0,5.0,496.6693811584264,8.0,1.0,phase_2,go,550.0,450.0,1.0,,,,,,,,,cyan,triangle
0.0,8.0,4.0,1.0,5.0,5.0,395.1327409595251,8.0,1.0,phase_2,stop,550.0,450.0,3.0,,,,,,,,,orange,diamond
0.0,3.0,2.0,0.0,5.0,5.0,812.6810840331018,8.0,1.0,phase_2,go,500.0,450.0,1.0,,,,,,,,,gray,I
0.0,2.0,1.0,0.0,6.0,6.0,666.4529738482088,8.0,1.0,phase_2,go,500.0,450.0,1.0,,,,,,,,,blue,circle
0.0,6.0,1.0,1.0,5.0,5.0,611.7535119410604,8.0,1.0,phase_2,stop,500.0,450.0,3.0,,,,,,,,,green,hexagon
0.0,1.0,0.5,0.0,6.0,6.0,329.9559969455004,8.0,1.0,phase_2,go,450.0,450.0,1.0,,,,,,,,,yellow,flipped triangle
0.0,6.0,1.0,1.0,6.0,6.0,323.9308730699122,8.0,1.0,phase_2,stop,450.0,450.0,3.0,,,,,,,,,green,hexagon
0.0,4.0,4.0,0.0,5.0,5.0,649.933991022408,8.0,1.0,phase_2,go,450.0,400.0,1.0,,,,,,,,,cyan,triangle
0.0,5.0,0.5,1.0,6.0,0.0,0.0,8.0,1.0,phase_2,stop,450.0,400.0,4.0,,,,,,,,,white,cross
0.0,1.0,0.5,0.0,6.0,6.0,740.3489239513874,8.0,1.0,phase_2,go,450.0,450.0,1.0,,,,,,,,,yellow,flipped triangle
0.0,7.0,2.0,1.0,6.0,0.0,0.0,8.0,1.0,phase_2,stop,450.0,450.0,4.0,,,,,,,,,magenta,square
0.0,5.0,0.5,1.0,5.0,5.0,477.1556991618126,8.0,1.0,phase_2,stop,450.0,500.0,3.0,,,,,,,,,white,cross
0.0,3.0,2.0,0.0,6.0,6.0,395.7956819795072,8.0,1.0,phase_2,go,400.0,500.0,1.0,,,,,,,,,gray,I
0.0,8.0,4.0,1.0,5.0,0.0,0.0,8.0,1.0,phase_2,stop,400.0,500.0,4.0,,,,,,,,,orange,diamond
0.0,6.0,1.0,1.0,5.0,5.0,371.7553138267249,8.0,1.0,phase_2,stop,450.0,500.0,3.0,,,,,,,,,green,hexagon
0.0,2.0,1.0,0.0,6.0,6.0,406.381162116304,8.0,1.0,phase_2,go,400.0,500.0,1.0,,,,,,,,,blue,circle
0.0,4.0,4.0,0.0,6.0,6.0,620.5329888034612,8.0,1.0,phase_2,go,400.0,500.0,1.0,,,,,,,,,cyan,triangle
0.0,3.0,2.0,0.0,5.0,5.0,793.8663670793176,8.0,1.0,phase_2,go,400.0,500.0,1.0,,,,,,,,,gray,I
0.0,4.0,4.0,0.0,6.0,6.0,622.0226751174778,8.0,1.0,phase_2,go,400.0,500.0,1.0,,,,,,,,,cyan,triangle
0.0,7.0,2.0,1.0,5.0,0.0,0.0,8.0,1.0,phase_2,stop,400.0,500.0,4.0,,,,,,,,,magenta,square
0.0,4.0,4.0,0.0,6.0,6.0,422.4976010154933,8.0,1.0,phase_2,go,450.0,500.0,1.0,,,,,,,,,cyan,triangle
0.0,1.0,0.5,0.0,6.0,6.0,905.8588400948792,8.0,1.0,phase_2,go,450.0,500.0,1.0,,,,,,,,,yellow,flipped triangle
0.0,4.0,4.0,0.0,5.0,5.0,808.9302389416844,8.0,1.0,phase_2,go,450.0,500.0,1.0,,,,,,,,,cyan,triangle
0.0,1.0,0.5,0.0,6.0,6.0,436.3901349715888,8.0,1.0,phase_2,go,450.0,500.0,1.0,,,,,,,,,yellow,flipped triangle
0.0,5.0,0.5,1.0,6.0,6.0,522.8734998963773,8.0,1.0,phase_2,stop,450.0,500.0,3.0,,,,,,,,,white,cross
0.0,2.0,1.0,0.0,6.0,6.0,508.5564060136676,8.0,1.0,phase_2,go,450.0,450.0,1.0,,,,,,,,,blue,circle
0.0,7.0,2.0,1.0,6.0,0.0,0.0,8.0,1.0,phase_2,stop,450.0,450.0,4.0,,,,,,,,,magenta,square
0.0,3.0,2.0,0.0,6.0,6.0,642.6963140256703,8.0,1.0,phase_2,go,450.0,500.0,1.0,,,,,,,,,gray,I
0.0,7.0,2.0,1.0,6.0,6.0,655.9805311262608,8.0,1.0,phase_2,go,450.0,500.0,1.0,,,,,,,,,magenta,square
0.0,7.0,2.0,1.0,5.0,5.0,579.6379460953176,8.0,1.0,phase_2,stop,450.0,500.0,3.0,,,,,,,,,magenta,square
0.0,3.0,2.0,0.0,6.0,6.0,724.1838928312063,8.0,1.0,phase_2,go,400.0,500.0,1.0,,,,,,,,,gray,I
0.0,3.0,2.0,0.0,7.0,3.0,1779.5175339560956,1.0,2.0,phase_3,,,,,204.0,6.0,68.0,136.0,204.0,34.0,102.0,170.0,gray,I
0.0,6.0,1.0,1.0,7.0,4.0,2680.276270955801,1.0,1.0,phase_3,,,,,102.0,3.0,68.0,170.0,204.0,102.0,136.0,34.0,green,hexagon
0.0,4.0,4.0,0.0,7.0,2.0,1914.7358229383824,1.0,1.0,phase_3,,,,,270.0,5.0,162.0,270.0,216.0,108.0,54.0,324.0,cyan,triangle
0.0,8.0,4.0,1.0,7.0,4.0,1963.849295862019,1.0,1.0,phase_3,,,,,204.0,6.0,34.0,136.0,68.0,204.0,102.0,170.0,orange,diamond
0.0,6.0,1.0,1.0,7.0,1.0,3134.376209927723,1.0,1.0,phase_3,,,,,136.0,4.0,136.0,102.0,204.0,68.0,34.0,170.0,green,hexagon
0.0,7.0,2.0,1.0,7.0,3.0,1672.2090169787407,1.0,1.0,phase_3,,,,,195.0,5.0,78.0,156.0,195.0,117.0,234.0,39.0,magenta,square
0.0,3.0,2.0,0.0,7.0,5.0,2301.950375083834,1.0,1.0,phase_3,,,,,162.0,3.0,324.0,270.0,216.0,108.0,162.0,54.0,gray,I
0.0,4.0,4.0,0.0,7.0,4.0,2100.906663108617,1.0,1.0,phase_3,,,,,156.0,4.0,234.0,117.0,78.0,156.0,195.0,39.0,cyan,triangle
0.0,2.0,1.0,0.0,7.0,2.0,2778.5131810233,1.0,1.0,phase_3,,,,,176.0,4.0,44.0,176.0,264.0,132.0,88.0,220.0,blue,circle
0.0,6.0,1.0,1.0,7.0,5.0,1922.824818873778,1.0,1.0,phase_3,,,,,270.0,5.0,216.0,108.0,54.0,324.0,270.0,162.0,green,hexagon
0.0,7.0,2.0,1.0,7.0,3.0,1992.30634002015,1.0,1.0,phase_3,,,,,234.0,6.0,39.0,195.0,234.0,78.0,156.0,117.0,magenta,square
0.0,2.0,1.0,0.0,7.0,3.0,2420.853018062189,1.0,1.0,phase_3,,,,,204.0,6.0,102.0,68.0,204.0,34.0,136.0,170.0,blue,circle
0.0,2.0,1.0,0.0,7.0,4.0,1523.245108081028,1.0,1.0,phase_3,,,,,147.0,3.0,49.0,245.0,98.0,147.0,294.0,196.0,blue,circle
0.0,1.0,0.5,0.0,7.0,4.0,2466.875691898167,1.0,1.0,phase_3,,,,,136.0,4.0,68.0,204.0,34.0,136.0,102.0,170.0,yellow,flipped triangle
0.0,4.0,4.0,0.0,7.0,6.0,2042.9929259698838,1.0,1.0,phase_3,,,,,156.0,4.0,195.0,78.0,117.0,39.0,234.0,156.0,cyan,triangle
0.0,7.0,2.0,1.0,7.0,3.0,1412.2885270044208,1.0,1.0,phase_3,,,,,270.0,5.0,108.0,324.0,270.0,162.0,216.0,54.0,magenta,square
0.0,5.0,0.5,1.0,7.0,2.0,1415.0848330464214,1.0,1.0,phase_3,,,,,216.0,4.0,54.0,216.0,108.0,162.0,324.0,270.0,white,cross
0.0,4.0,4.0,0.0,7.0,1.0,2134.4164048787206,1.0,1.0,phase_3,,,,,204.0,6.0,204.0,170.0,68.0,102.0,136.0,34.0,cyan,triangle
0.0,6.0,1.0,1.0,7.0,3.0,1755.8725730050355,1.0,1.0,phase_3,,,,,245.0,5.0,294.0,98.0,245.0,196.0,49.0,147.0,green,hexagon
0.0,7.0,2.0,1.0,7.0,1.0,1483.675385126844,1.0,1.0,phase_3,,,,,245.0,5.0,245.0,49.0,294.0,147.0,98.0,196.0,magenta,square
0.0,3.0,2.0,0.0,7.0,4.0,2998.052350012585,2.0,1.0,phase_3,,,,,170.0,5.0,34.0,136.0,204.0,170.0,68.0,102.0,gray,I
0.0,3.0,2.0,0.0,7.0,3.0,1582.6672511175277,2.0,1.0,phase_3,,,,,195.0,5.0,39.0,117.0,195.0,234.0,156.0,78.0,gray,I
0.0,5.0,0.5,1.0,7.0,2.0,3246.3361339177936,2.0,1.0,phase_3,,,,,170.0,5.0,136.0,170.0,102.0,204.0,68.0,34.0,white,cross
0.0,4.0,4.0,0.0,7.0,5.0,2711.368033196777,2.0,1.0,phase_3,,,,,245.0,5.0,49.0,147.0,98.0,294.0,245.0,196.0,cyan,triangle
0.0,6.0,1.0,1.0,7.0,4.0,3520.3050179407,2.0,1.0,phase_3,,,,,216.0,4.0,270.0,54.0,108.0,216.0,324.0,162.0,green,hexagon
0.0,6.0,1.0,1.0,7.0,3.0,2622.500481083989,2.0,1.0,phase_3,,,,,220.0,5.0,132.0,88.0,220.0,44.0,264.0,176.0,green,hexagon
0.0,8.0,4.0,1.0,7.0,5.0,2421.320258174092,2.0,1.0,phase_3,,,,,216.0,4.0,270.0,162.0,108.0,54.0,216.0,324.0,orange,diamond
0.0,7.0,2.0,1.0,7.0,4.0,2464.5617480855435,2.0,1.0,phase_3,,,,,220.0,5.0,88.0,176.0,132.0,220.0,264.0,44.0,magenta,square
0.0,5.0,0.5,1.0,7.0,2.0,2601.0411970783025,2.0,1.0,phase_3,,,,,195.0,5.0,117.0,195.0,156.0,39.0,78.0,234.0,white,cross
0.0,1.0,0.5,0.0,7.0,2.0,2578.59897101298,2.0,1.0,phase_3,,,,,78.0,2.0,195.0,78.0,117.0,234.0,156.0,39.0,yellow,flipped triangle
0.0,2.0,1.0,0.0,7.0,2.0,2716.023294022307,2.0,1.0,phase_3,,,,,132.0,3.0,220.0,132.0,44.0,264.0,88.0,176.0,blue,circle
0.0,7.0,2.0,1.0,7.0,3.0,3012.384478002786,2.0,1.0,phase_3,,,,,216.0,4.0,270.0,162.0,216.0,54.0,108.0,324.0,magenta,square
0.0,5.0,0.5,1.0,7.0,1.0,2742.6328659057617,2.0,1.0,phase_3,,,,,220.0,5.0,220.0,176.0,44.0,132.0,88.0,264.0,white,cross
0.0,1.0,0.5,0.0,7.0,5.0,1999.8109040316197,2.0,1.0,phase_3,,,,,245.0,5.0,98.0,147.0,196.0,49.0,245.0,294.0,yellow,flipped triangle
0.0,7.0,2.0,1.0,7.0,2.0,2271.7926709447056,2.0,1.0,phase_3,,,,,245.0,5.0,98.0,245.0,49.0,147.0,196.0,294.0,magenta,square
0.0,1.0,0.5,0.0,7.0,2.0,2475.3685409668838,2.0,1.0,phase_3,,,,,220.0,5.0,132.0,220.0,88.0,176.0,44.0,264.0,yellow,flipped triangle
0.0,6.0,1.0,1.0,7.0,1.0,2497.4035560153425,2.0,1.0,phase_3,,,,,195.0,5.0,195.0,234.0,39.0,156.0,117.0,78.0,green,hexagon
0.0,6.0,1.0,1.0,7.0,4.0,2432.266439078376,2.0,1.0,phase_3,,,,,245.0,5.0,294.0,147.0,196.0,245.0,49.0,98.0,green,hexagon
0.0,5.0,0.5,1.0,7.0,6.0,2050.893143983558,2.0,1.0,phase_3,,,,,245.0,5.0,147.0,49.0,196.0,294.0,98.0,245.0,white,cross
0.0,7.0,2.0,1.0,7.0,3.0,3291.465240996331,2.0,1.0,phase_3,,,,,204.0,6.0,170.0,102.0,204.0,68.0,136.0,34.0,magenta,square
0.0,8.0,4.0,1.0,7.0,3.0,2364.2075590323657,3.0,1.0,phase_3,,,,,204.0,6.0,170.0,136.0,204.0,68.0,102.0,34.0,orange,diamond
0.0,4.0,4.0,0.0,7.0,1.0,2365.6411338597536,3.0,1.0,phase_3,,,,,220.0,5.0,220.0,132.0,88.0,264.0,176.0,44.0,cyan,triangle
0.0,7.0,2.0,1.0,7.0,5.0,2301.281827036292,3.0,1.0,phase_3,,,,,170.0,5.0,102.0,34.0,68.0,204.0,170.0,136.0,magenta,square
0.0,8.0,4.0,1.0,7.0,4.0,2458.0961239989847,3.0,1.0,phase_3,,,,,147.0,3.0,196.0,98.0,49.0,147.0,245.0,294.0,orange,diamond
0.0,2.0,1.0,0.0,7.0,6.0,3381.167210172862,3.0,1.0,phase_3,,,,,270.0,5.0,108.0,54.0,162.0,216.0,324.0,270.0,blue,circle
0.0,4.0,4.0,0.0,7.0,2.0,2122.3699022084475,3.0,1.0,phase_3,,,,,245.0,5.0,147.0,245.0,49.0,98.0,294.0,196.0,cyan,triangle
0.0,2.0,1.0,0.0,7.0,4.0,2978.482667822391,3.0,1.0,phase_3,,,,,195.0,5.0,234.0,78.0,39.0,195.0,156.0,117.0,blue,circle
0.0,1.0,0.5,0.0,7.0,6.0,3340.270453132689,3.0,1.0,phase_3,,,,,270.0,5.0,54.0,108.0,324.0,216.0,162.0,270.0,yellow,flipped triangle
0.0,5.0,0.5,1.0,7.0,1.0,2735.5587808415294,3.0,1.0,phase_3,,,,,220.0,5.0,220.0,176.0,44.0,132.0,88.0,264.0,white,cross
0.0,3.0,2.0,0.0,7.0,4.0,3004.249615827576,3.0,1.0,phase_3,,,,,270.0,5.0,324.0,216.0,162.0,270.0,54.0,108.0,gray,I
0.0,7.0,2.0,1.0,7.0,5.0,2826.319413026795,3.0,1.0,phase_3,,,,,220.0,5.0,44.0,88.0,132.0,264.0,220.0,176.0,magenta,square
0.0,8.0,4.0,1.0,7.0,5.0,2713.898135814816,3.0,1.0,phase_3,,,,,195.0,5.0,78.0,156.0,39.0,117.0,195.0,234.0,orange,diamond
0.0,2.0,1.0,0.0,7.0,5.0,2584.344662027433,3.0,1.0,phase_3,,,,,204.0,6.0,68.0,102.0,170.0,136.0,204.0,34.0,blue,circle
0.0,5.0,0.5,1.0,7.0,1.0,2875.0322428531945,3.0,1.0,phase_3,,,,,324.0,6.0,324.0,162.0,216.0,108.0,54.0,270.0,white,cross
0.0,1.0,0.5,0.0,7.0,4.0,3236.8264498654758,3.0,1.0,phase_3,,,,,204.0,6.0,170.0,136.0,102.0,204.0,34.0,68.0,yellow,flipped triangle
0.0,1.0,0.5,0.0,7.0,1.0,1818.7816708814355,3.0,1.0,phase_3,,,,,324.0,6.0,324.0,216.0,270.0,108.0,54.0,162.0,yellow,flipped triangle
0.0,3.0,2.0,0.0,7.0,1.0,2404.195914044976,3.0,1.0,phase_3,,,,,264.0,6.0,264.0,88.0,132.0,176.0,44.0,220.0,gray,I
0.0,5.0,0.5,1.0,7.0,3.0,1959.3173419125376,3.0,1.0,phase_3,,,,,245.0,5.0,294.0,98.0,245.0,49.0,196.0,147.0,white,cross
0.0,6.0,1.0,1.0,7.0,3.0,2273.5831479076296,3.0,1.0,phase_3,,,,,195.0,5.0,39.0,234.0,195.0,156.0,117.0,78.0,green,hexagon
0.0,4.0,4.0,0.0,7.0,2.0,2047.8936741128564,3.0,1.0,phase_3,,,,,264.0,6.0,176.0,264.0,220.0,88.0,132.0,44.0,cyan,triangle
0.0,3.0,2.0,0.0,7.0,3.0,2352.769643999636,4.0,1.0,phase_3,,,,,195.0,5.0,78.0,234.0,195.0,156.0,39.0,117.0,gray,I
0.0,4.0,4.0,0.0,7.0,4.0,2915.8614098560065,4.0,1.0,phase_3,,,,,204.0,6.0,68.0,170.0,102.0,204.0,136.0,34.0,cyan,triangle
0.0,2.0,1.0,0.0,7.0,5.0,2199.07844811678,4.0,1.0,phase_3,,,,,270.0,5.0,162.0,108.0,54.0,324.0,270.0,216.0,blue,circle
0.0,3.0,2.0,0.0,7.0,4.0,2128.847963176668,4.0,1.0,phase_3,,,,,220.0,5.0,44.0,264.0,132.0,220.0,88.0,176.0,gray,I
0.0,8.0,4.0,1.0,7.0,4.0,2467.7983780857176,4.0,1.0,phase_3,,,,,220.0,5.0,176.0,132.0,264.0,220.0,44.0,88.0,orange,diamond
0.0,2.0,1.0,0.0,7.0,3.0,2268.769551999867,4.0,1.0,phase_3,,,,,234.0,6.0,39.0,195.0,234.0,156.0,117.0,78.0,blue,circle
0.0,1.0,0.5,0.0,7.0,4.0,2717.692779842764,4.0,1.0,phase_3,,,,,234.0,6.0,195.0,39.0,117.0,234.0,78.0,156.0,yellow,flipped triangle
0.0,8.0,4.0,1.0,7.0,6.0,2358.9239600114524,4.0,1.0,phase_3,,,,,245.0,5.0,147.0,98.0,49.0,294.0,196.0,245.0,orange,diamond
0.0,3.0,2.0,0.0,7.0,5.0,2495.914608007297,4.0,1.0,phase_3,,,,,245.0,5.0,294.0,49.0,98.0,147.0,245.0,196.0,gray,I
0.0,4.0,4.0,0.0,7.0,3.0,2023.874043021351,4.0,1.0,phase_3,,,,,270.0,5.0,162.0,216.0,270.0,108.0,324.0,54.0,cyan,triangle
0.0,6.0,1.0,1.0,7.0,6.0,2520.196553086862,4.0,1.0,phase_3,,,,,220.0,5.0,44.0,132.0,88.0,264.0,176.0,220.0,green,hexagon
0.0,3.0,2.0,0.0,7.0,1.0,1846.0226240567863,4.0,1.0,phase_3,,,,,245.0,5.0,245.0,98.0,147.0,49.0,294.0,196.0,gray,I
0.0,5.0,0.5,1.0,7.0,1.0,2366.167637053877,4.0,1.0,phase_3,,,,,195.0,5.0,195.0,117.0,156.0,39.0,78.0,234.0,white,cross
0.0,5.0,0.5,1.0,7.0,1.0,1736.992699094117,4.0,1.0,phase_3,,,,,204.0,6.0,204.0,34.0,102.0,170.0,136.0,68.0,white,cross
0.0,8.0,4.0,1.0,7.0,5.0,1871.6261030640453,4.0,1.0,phase_3,,,,,270.0,5.0,324.0,54.0,108.0,162.0,270.0,216.0,orange,diamond
0.0,8.0,4.0,1.0,7.0,4.0,2325.6411019247025,4.0,1.0,phase_3,,,,,220.0,5.0,132.0,88.0,44.0,220.0,176.0,264.0,orange,diamond
0.0,2.0,1.0,0.0,7.0,3.0,1919.957253150642,4.0,1.0,phase_3,,,,,196.0,4.0,245.0,49.0,196.0,147.0,98.0,294.0,blue,circle
0.0,1.0,0.5,0.0,7.0,6.0,2527.432580012828,4.0,1.0,phase_3,,,,,220.0,5.0,44.0,264.0,88.0,132.0,176.0,220.0,yellow,flipped triangle
0.0,8.0,4.0,1.0,7.0,4.0,2440.2804491110146,4.0,1.0,phase_3,,,,,195.0,5.0,156.0,117.0,78.0,195.0,234.0,39.0,orange,diamond
0.0,1.0,0.5,0.0,7.0,2.0,2353.2886130269617,4.0,1.0,phase_3,,,,,196.0,4.0,49.0,196.0,147.0,98.0,294.0,245.0,yellow,flipped triangle
