raw_reward_magnitude,stim_reward,stepwise_reward_magnitude,paired_with_stopping,stim_location,response,reaction_time,block,num_trial_presentations,which_phase,stop_signal_trial_type,left_SSD,right_SSD,accuracy,chosen_bidding_amount,chosen_bidding_level,possible_bid_1,possible_bid_2,possible_bid_3,possible_bid_4,possible_bid_5,possible_bid_6,color_text,shape_text
0.0,3.0,0.0,0.0,2.0,2.0,330.7635718956589,1.0,1.0,phase_1,,,,,,,,,,,,,magenta,I
73.0,5.0,0.5,1.0,3.0,3.0,376.6696387901902,1.0,1.0,phase_1,,,,,,,,,,,,,white,triangle
67.0,5.0,0.5,1.0,2.0,2.0,285.8243940863758,1.0,1.0,phase_1,,,,,,,,,,,,,white,triangle
421.0,8.0,4.0,1.0,1.0,1.0,307.501076022163,1.0,1.0,phase_1,,,,,,,,,,,,,blue,circle
31.0,5.0,0.5,1.0,3.0,3.0,375.3845100291073,1.0,1.0,phase_1,,,,,,,,,,,,,white,triangle
393.0,4.0,4.0,0.0,1.0,1.0,321.9969552010298,1.0,1.0,phase_1,,,,,,,,,,,,,orange,cross
112.0,2.0,1.0,0.0,4.0,4.0,310.9341950621456,1.0,1.0,phase_1,,,,,,,,,,,,,cyan,flipped triangle
0.0,8.0,0.0,1.0,4.0,4.0,300.2687399275601,1.0,1.0,phase_1,,,,,,,,,,,,,blue,circle
0.0,7.0,0.0,1.0,1.0,1.0,310.0679088383913,1.0,1.0,phase_1,,,,,,,,,,,,,gray,hexagon
108.0,6.0,1.0,1.0,4.0,4.0,322.0056111458689,1.0,1.0,phase_1,,,,,,,,,,,,,green,diamond
0.0,7.0,0.0,1.0,4.0,4.0,311.2579570151865,1.0,1.0,phase_1,,,,,,,,,,,,,gray,hexagon
68.0,5.0,0.5,1.0,3.0,3.0,360.8473988715559,1.0,1.0,phase_1,,,,,,,,,,,,,white,triangle
407.0,4.0,4.0,0.0,2.0,2.0,281.9665810093283,1.0,1.0,phase_1,,,,,,,,,,,,,orange,cross
0.0,8.0,0.0,1.0,4.0,4.0,290.7716920599341,1.0,1.0,phase_1,,,,,,,,,,,,,blue,circle
89.0,2.0,1.0,0.0,4.0,4.0,317.5037228502333,1.0,1.0,phase_1,,,,,,,,,,,,,cyan,flipped triangle
61.0,5.0,0.5,1.0,1.0,1.0,372.8896600659936,1.0,1.0,phase_1,,,,,,,,,,,,,white,triangle
418.0,4.0,4.0,0.0,1.0,1.0,293.8910771626979,1.0,1.0,phase_1,,,,,,,,,,,,,orange,cross
0.0,1.0,0.0,0.0,2.0,2.0,261.1989979632199,1.0,1.0,phase_1,,,,,,,,,,,,,yellow,square
222.0,7.0,2.0,1.0,1.0,1.0,249.4399771094322,1.0,1.0,phase_1,,,,,,,,,,,,,gray,hexagon
214.0,7.0,2.0,1.0,2.0,2.0,261.7371347732842,1.0,1.0,phase_1,,,,,,,,,,,,,gray,hexagon
177.0,3.0,2.0,0.0,2.0,2.0,272.359092021361,1.0,1.0,phase_1,,,,,,,,,,,,,magenta,I
0.0,5.0,0.0,1.0,2.0,2.0,260.584315052256,1.0,1.0,phase_1,,,,,,,,,,,,,white,triangle
0.0,2.0,0.0,0.0,4.0,4.0,318.4385781642049,1.0,1.0,phase_1,,,,,,,,,,,,,cyan,flipped triangle
0.0,7.0,0.0,1.0,3.0,3.0,332.4207300320267,1.0,1.0,phase_1,,,,,,,,,,,,,gray,hexagon
70.0,1.0,0.5,0.0,4.0,4.0,389.4238730426878,1.0,1.0,phase_1,,,,,,,,,,,,,yellow,square
38.0,1.0,0.5,0.0,4.0,4.0,377.836843021214,1.0,1.0,phase_1,,,,,,,,,,,,,yellow,square
53.0,1.0,0.5,0.0,1.0,1.0,342.6085610408336,1.0,1.0,phase_1,,,,,,,,,,,,,yellow,square
397.0,4.0,4.0,0.0,3.0,3.0,334.8048799671232,1.0,1.0,phase_1,,,,,,,,,,,,,orange,cross
192.0,7.0,2.0,1.0,1.0,1.0,323.4075899235904,1.0,1.0,phase_1,,,,,,,,,,,,,gray,hexagon
379.0,8.0,4.0,1.0,4.0,4.0,311.2573449034244,1.0,1.0,phase_1,,,,,,,,,,,,,blue,circle
192.0,3.0,2.0,0.0,3.0,3.0,347.3992289509624,1.0,1.0,phase_1,,,,,,,,,,,,,magenta,I
0.0,1.0,0.0,0.0,3.0,3.0,358.9087098371237,1.0,1.0,phase_1,,,,,,,,,,,,,yellow,square
27.0,5.0,0.5,1.0,3.0,3.0,334.8808051086962,1.0,2.0,phase_1,,,,,,,,,,,,,white,triangle
67.0,1.0,0.5,0.0,4.0,4.0,347.5188540760427,1.0,1.0,phase_1,,,,,,,,,,,,,yellow,square
387.0,8.0,4.0,1.0,2.0,2.0,314.3264290411025,1.0,1.0,phase_1,,,,,,,,,,,,,blue,circle
0.0,2.0,0.0,0.0,1.0,1.0,294.1371079068631,1.0,1.0,phase_1,,,,,,,,,,,,,cyan,flipped triangle
218.0,7.0,2.0,1.0,4.0,4.0,351.4847070910036,1.0,1.0,phase_1,,,,,,,,,,,,,gray,hexagon
184.0,7.0,2.0,1.0,3.0,3.0,317.6799600478261,1.0,1.0,phase_1,,,,,,,,,,,,,gray,hexagon
0.0,4.0,0.0,0.0,1.0,1.0,304.6248229220509,1.0,1.0,phase_1,,,,,,,,,,,,,orange,cross
207.0,7.0,2.0,1.0,3.0,3.0,294.1521590109914,1.0,1.0,phase_1,,,,,,,,,,,,,gray,hexagon
192.0,7.0,2.0,1.0,4.0,4.0,343.4030509088188,1.0,1.0,phase_1,,,,,,,,,,,,,gray,hexagon
418.0,8.0,4.0,1.0,2.0,2.0,329.875233117491,1.0,1.0,phase_1,,,,,,,,,,,,,blue,circle
121.0,6.0,1.0,1.0,4.0,4.0,342.2908820211887,1.0,1.0,phase_1,,,,,,,,,,,,,green,diamond
0.0,4.0,0.0,0.0,3.0,3.0,330.6959779001772,1.0,1.0,phase_1,,,,,,,,,,,,,orange,cross
0.0,4.0,0.0,0.0,4.0,4.0,343.889471841976,1.0,1.0,phase_1,,,,,,,,,,,,,orange,cross
215.0,3.0,2.0,0.0,3.0,3.0,332.3766740504652,1.0,1.0,phase_1,,,,,,,,,,,,,magenta,I
86.0,6.0,1.0,1.0,1.0,1.0,399.9931020662188,1.0,1.0,phase_1,,,,,,,,,,,,,green,diamond
189.0,3.0,2.0,0.0,4.0,4.0,366.0327040124684,1.0,1.0,phase_1,,,,,,,,,,,,,magenta,I
114.0,2.0,1.0,0.0,1.0,1.0,280.5195669643581,1.0,1.0,phase_1,,,,,,,,,,,,,cyan,flipped triangle
209.0,3.0,2.0,0.0,3.0,3.0,381.6301231272518,1.0,1.0,phase_1,,,,,,,,,,,,,magenta,I
0.0,5.0,0.0,1.0,3.0,3.0,337.7360738813877,1.0,1.0,phase_1,,,,,,,,,,,,,white,triangle
65.0,1.0,0.5,0.0,3.0,3.0,336.8121448438614,1.0,1.0,phase_1,,,,,,,,,,,,,yellow,square
221.0,7.0,2.0,1.0,2.0,2.0,303.7460469640791,1.0,1.0,phase_1,,,,,,,,,,,,,gray,hexagon
119.0,2.0,1.0,0.0,3.0,3.0,315.7338190358132,1.0,1.0,phase_1,,,,,,,,,,,,,cyan,flipped triangle
394.0,8.0,4.0,1.0,2.0,2.0,304.0692619979381,1.0,1.0,phase_1,,,,,,,,,,,,,blue,circle
124.0,2.0,1.0,0.0,3.0,3.0,318.22678190656,1.0,1.0,phase_1,,,,,,,,,,,,,cyan,flipped triangle
72.0,5.0,0.5,1.0,2.0,2.0,306.5150768961757,1.0,1.0,phase_1,,,,,,,,,,,,,white,triangle
99.0,2.0,1.0,0.0,2.0,2.0,317.412847885862,1.0,1.0,phase_1,,,,,,,,,,,,,cyan,flipped triangle
393.0,8.0,4.0,1.0,4.0,4.0,317.9175639525056,1.0,1.0,phase_1,,,,,,,,,,,,,blue,circle
391.0,4.0,4.0,0.0,2.0,2.0,330.4690711665898,1.0,1.0,phase_1,,,,,,,,,,,,,orange,cross
77.0,6.0,1.0,1.0,4.0,4.0,385.4671590961516,1.0,1.0,phase_1,,,,,,,,,,,,,green,diamond
63.0,1.0,0.5,0.0,1.0,1.0,308.5145631339401,1.0,1.0,phase_1,,,,,,,,,,,,,yellow,square
222.0,3.0,2.0,0.0,1.0,1.0,366.05859990231687,1.0,1.0,phase_1,,,,,,,,,,,,,magenta,I
192.0,3.0,2.0,0.0,4.0,4.0,377.2008130326867,1.0,1.0,phase_1,,,,,,,,,,,,,magenta,I
395.0,8.0,4.0,1.0,1.0,1.0,387.2429470065981,1.0,1.0,phase_1,,,,,,,,,,,,,blue,circle
389.0,4.0,4.0,0.0,3.0,3.0,353.7417610641569,1.0,1.0,phase_1,,,,,,,,,,,,,orange,cross
395.0,4.0,4.0,0.0,2.0,2.0,491.7621740605682,1.0,1.0,phase_1,,,,,,,,,,,,,orange,cross
0.0,4.0,0.0,0.0,4.0,4.0,368.6527200043201,1.0,1.0,phase_1,,,,,,,,,,,,,orange,cross
0.0,5.0,0.0,1.0,3.0,3.0,358.9455450419336,1.0,1.0,phase_1,,,,,,,,,,,,,white,triangle
79.0,6.0,1.0,1.0,3.0,3.0,344.6204231586307,1.0,1.0,phase_1,,,,,,,,,,,,,green,diamond
45.0,1.0,0.5,0.0,3.0,3.0,338.0519971251488,1.0,1.0,phase_1,,,,,,,,,,,,,yellow,square
0.0,5.0,0.0,1.0,4.0,4.0,349.6352490037679,1.0,1.0,phase_1,,,,,,,,,,,,,white,triangle
222.0,7.0,2.0,1.0,3.0,3.0,327.2763770073652,1.0,1.0,phase_1,,,,,,,,,,,,,gray,hexagon
178.0,7.0,2.0,1.0,1.0,1.0,293.2124040089547,1.0,1.0,phase_1,,,,,,,,,,,,,gray,hexagon
195.0,3.0,2.0,0.0,2.0,2.0,305.2034128922969,1.0,1.0,phase_1,,,,,,,,,,,,,magenta,I
0.0,8.0,0.0,1.0,4.0,4.0,360.7854000292718,1.0,1.0,phase_1,,,,,,,,,,,,,blue,circle
0.0,1.0,0.0,0.0,2.0,2.0,508.43486399389803,1.0,1.0,phase_1,,,,,,,,,,,,,yellow,square
0.0,2.0,0.0,0.0,1.0,1.0,318.1213659700006,1.0,1.0,phase_1,,,,,,,,,,,,,cyan,flipped triangle
391.0,4.0,4.0,0.0,3.0,3.0,352.990228915587,1.0,1.0,phase_1,,,,,,,,,,,,,orange,cross
0.0,3.0,0.0,0.0,1.0,1.0,273.4465028624981,1.0,1.0,phase_1,,,,,,,,,,,,,magenta,I
413.0,4.0,4.0,0.0,3.0,3.0,309.5314800739288,1.0,1.0,phase_1,,,,,,,,,,,,,orange,cross
201.0,3.0,2.0,0.0,1.0,1.0,321.1637318599969,1.0,1.0,phase_1,,,,,,,,,,,,,magenta,I
52.0,5.0,0.5,1.0,1.0,1.0,309.3301029875874,1.0,1.0,phase_1,,,,,,,,,,,,,white,triangle
41.0,5.0,0.5,1.0,3.0,3.0,320.0926659628749,1.0,1.0,phase_1,,,,,,,,,,,,,white,triangle
61.0,5.0,0.5,1.0,4.0,4.0,352.9948340728879,1.0,1.0,phase_1,,,,,,,,,,,,,white,triangle
423.0,8.0,4.0,1.0,1.0,1.0,275.4912218078971,1.0,1.0,phase_1,,,,,,,,,,,,,blue,circle
391.0,8.0,4.0,1.0,3.0,3.0,346.8426228500902,1.0,2.0,phase_1,,,,,,,,,,,,,blue,circle
45.0,1.0,0.5,0.0,2.0,2.0,448.394649894908,1.0,1.0,phase_1,,,,,,,,,,,,,yellow,square
75.0,5.0,0.5,1.0,1.0,1.0,288.9797750394791,1.0,1.0,phase_1,,,,,,,,,,,,,white,triangle
395.0,8.0,4.0,1.0,1.0,1.0,266.7213501408696,1.0,1.0,phase_1,,,,,,,,,,,,,blue,circle
88.0,2.0,1.0,0.0,4.0,4.0,394.3220789078623,1.0,1.0,phase_1,,,,,,,,,,,,,cyan,flipped triangle
213.0,7.0,2.0,1.0,4.0,4.0,406.4861459191888,1.0,1.0,phase_1,,,,,,,,,,,,,gray,hexagon
378.0,4.0,4.0,0.0,1.0,1.0,324.7032968793064,1.0,1.0,phase_1,,,,,,,,,,,,,orange,cross
114.0,6.0,1.0,1.0,3.0,3.0,348.7412538379431,1.0,1.0,phase_1,,,,,,,,,,,,,green,diamond
184.0,3.0,2.0,0.0,3.0,3.0,316.9643268920481,1.0,1.0,phase_1,,,,,,,,,,,,,magenta,I
407.0,4.0,4.0,0.0,3.0,3.0,292.2746450640261,1.0,1.0,phase_1,,,,,,,,,,,,,orange,cross
0.0,6.0,0.0,1.0,1.0,1.0,304.4663979671895,1.0,1.0,phase_1,,,,,,,,,,,,,green,diamond
0.0,5.0,0.0,1.0,4.0,4.0,363.6668159160763,1.0,1.0,phase_1,,,,,,,,,,,,,white,triangle
85.0,6.0,1.0,1.0,4.0,4.0,534.0259210206568,1.0,1.0,phase_1,,,,,,,,,,,,,green,diamond
31.0,5.0,0.5,1.0,4.0,4.0,346.6403079219162,1.0,1.0,phase_1,,,,,,,,,,,,,white,triangle
81.0,6.0,1.0,1.0,1.0,1.0,281.8281948566437,2.0,1.0,phase_1,,,,,,,,,,,,,green,diamond
380.0,8.0,4.0,1.0,3.0,3.0,360.5897340457886,2.0,1.0,phase_1,,,,,,,,,,,,,blue,circle
221.0,3.0,2.0,0.0,2.0,2.0,260.2990940213203,2.0,1.0,phase_1,,,,,,,,,,,,,magenta,I
61.0,1.0,0.5,0.0,1.0,1.0,297.1661689225584,2.0,1.0,phase_1,,,,,,,,,,,,,yellow,square
0.0,5.0,0.0,1.0,3.0,3.0,375.2015680074692,2.0,1.0,phase_1,,,,,,,,,,,,,white,triangle
423.0,4.0,4.0,0.0,2.0,2.0,318.2902499102056,2.0,1.0,phase_1,,,,,,,,,,,,,orange,cross
0.0,3.0,0.0,0.0,1.0,1.0,329.9575699493289,2.0,1.0,phase_1,,,,,,,,,,,,,magenta,I
190.0,7.0,2.0,1.0,2.0,2.0,363.5431961156428,2.0,1.0,phase_1,,,,,,,,,,,,,gray,hexagon
58.0,1.0,0.5,0.0,1.0,1.0,275.3652399405837,2.0,1.0,phase_1,,,,,,,,,,,,,yellow,square
411.0,4.0,4.0,0.0,3.0,3.0,379.0654800832271,2.0,1.0,phase_1,,,,,,,,,,,,,orange,cross
38.0,5.0,0.5,1.0,2.0,2.0,323.4820610377937,2.0,1.0,phase_1,,,,,,,,,,,,,white,triangle
0.0,4.0,0.0,0.0,4.0,4.0,403.2936589792371,2.0,1.0,phase_1,,,,,,,,,,,,,orange,cross
102.0,6.0,1.0,1.0,1.0,1.0,278.1728361733258,2.0,1.0,phase_1,,,,,,,,,,,,,green,diamond
190.0,7.0,2.0,1.0,1.0,1.0,333.6927751079201,2.0,1.0,phase_1,,,,,,,,,,,,,gray,hexagon
0.0,1.0,0.0,0.0,4.0,4.0,459.1359379701316,2.0,1.0,phase_1,,,,,,,,,,,,,yellow,square
409.0,4.0,4.0,0.0,4.0,4.0,383.8055778760463,2.0,1.0,phase_1,,,,,,,,,,,,,orange,cross
87.0,6.0,1.0,1.0,4.0,4.0,348.9259409252554,2.0,1.0,phase_1,,,,,,,,,,,,,green,diamond
225.0,7.0,2.0,1.0,2.0,2.0,383.2051868084818,2.0,1.0,phase_1,,,,,,,,,,,,,gray,hexagon
27.0,1.0,0.5,0.0,4.0,4.0,349.810189101845,2.0,1.0,phase_1,,,,,,,,,,,,,yellow,square
34.0,1.0,0.5,0.0,2.0,2.0,303.7859748583287,2.0,1.0,phase_1,,,,,,,,,,,,,yellow,square
0.0,5.0,0.0,1.0,1.0,1.0,362.3129099141806,2.0,1.0,phase_1,,,,,,,,,,,,,white,triangle
0.0,2.0,0.0,0.0,4.0,4.0,341.7518921196461,2.0,1.0,phase_1,,,,,,,,,,,,,cyan,flipped triangle
201.0,7.0,2.0,1.0,3.0,3.0,421.1811490822583,2.0,1.0,phase_1,,,,,,,,,,,,,gray,hexagon
33.0,5.0,0.5,1.0,1.0,1.0,294.0967318136245,2.0,1.0,phase_1,,,,,,,,,,,,,white,triangle
402.0,8.0,4.0,1.0,1.0,1.0,364.6944260690361,2.0,1.0,phase_1,,,,,,,,,,,,,blue,circle
121.0,6.0,1.0,1.0,2.0,2.0,331.8999861367047,2.0,1.0,phase_1,,,,,,,,,,,,,green,diamond
84.0,2.0,1.0,0.0,2.0,2.0,296.422452898696,2.0,1.0,phase_1,,,,,,,,,,,,,cyan,flipped triangle
121.0,2.0,1.0,0.0,2.0,2.0,398.2106528710574,2.0,1.0,phase_1,,,,,,,,,,,,,cyan,flipped triangle
184.0,7.0,2.0,1.0,1.0,1.0,299.2960419505834,2.0,1.0,phase_1,,,,,,,,,,,,,gray,hexagon
110.0,6.0,1.0,1.0,3.0,3.0,390.0858759880066,2.0,1.0,phase_1,,,,,,,,,,,,,green,diamond
409.0,4.0,4.0,0.0,1.0,1.0,313.362353015691,2.0,1.0,phase_1,,,,,,,,,,,,,orange,cross
391.0,8.0,4.0,1.0,4.0,4.0,411.5417019929737,2.0,1.0,phase_1,,,,,,,,,,,,,blue,circle
396.0,8.0,4.0,1.0,4.0,4.0,313.2293839007616,2.0,1.0,phase_1,,,,,,,,,,,,,blue,circle
95.0,2.0,1.0,0.0,1.0,1.0,346.7281821649521,2.0,1.0,phase_1,,,,,,,,,,,,,cyan,flipped triangle
413.0,8.0,4.0,1.0,2.0,2.0,334.8085829056799,2.0,1.0,phase_1,,,,,,,,,,,,,blue,circle
189.0,3.0,2.0,0.0,1.0,1.0,371.3793591596186,2.0,1.0,phase_1,,,,,,,,,,,,,magenta,I
0.0,6.0,0.0,1.0,1.0,1.0,382.2961451951414,2.0,1.0,phase_1,,,,,,,,,,,,,green,diamond
0.0,2.0,0.0,0.0,2.0,2.0,290.4270391445607,2.0,1.0,phase_1,,,,,,,,,,,,,cyan,flipped triangle
410.0,4.0,4.0,0.0,1.0,1.0,282.6338920276612,2.0,1.0,phase_1,,,,,,,,,,,,,orange,cross
29.0,1.0,0.5,0.0,3.0,3.0,453.0868870206177,2.0,1.0,phase_1,,,,,,,,,,,,,yellow,square
0.0,2.0,0.0,0.0,4.0,4.0,394.5403289981186,2.0,1.0,phase_1,,,,,,,,,,,,,cyan,flipped triangle
90.0,6.0,1.0,1.0,2.0,2.0,274.1283939685672,2.0,1.0,phase_1,,,,,,,,,,,,,green,diamond
116.0,6.0,1.0,1.0,4.0,4.0,407.3546219151467,2.0,1.0,phase_1,,,,,,,,,,,,,green,diamond
101.0,6.0,1.0,1.0,2.0,2.0,330.3146502003073,2.0,1.0,phase_1,,,,,,,,,,,,,green,diamond
189.0,7.0,2.0,1.0,4.0,4.0,410.5679800268262,2.0,1.0,phase_1,,,,,,,,,,,,,gray,hexagon
62.0,1.0,0.5,0.0,2.0,2.0,286.4767520222813,2.0,1.0,phase_1,,,,,,,,,,,,,yellow,square
60.0,5.0,0.5,1.0,1.0,1.0,298.0476210359484,2.0,1.0,phase_1,,,,,,,,,,,,,white,triangle
0.0,7.0,0.0,1.0,4.0,4.0,376.1090449988842,2.0,2.0,phase_1,,,,,,,,,,,,,gray,hexagon
97.0,6.0,1.0,1.0,2.0,2.0,300.8870529010892,2.0,1.0,phase_1,,,,,,,,,,,,,green,diamond
0.0,3.0,0.0,0.0,2.0,2.0,421.572205144912,2.0,1.0,phase_1,,,,,,,,,,,,,magenta,I
188.0,3.0,2.0,0.0,3.0,3.0,392.5860899034887,2.0,1.0,phase_1,,,,,,,,,,,,,magenta,I
36.0,1.0,0.5,0.0,3.0,3.0,358.0470278393477,2.0,1.0,phase_1,,,,,,,,,,,,,yellow,square
209.0,3.0,2.0,0.0,1.0,1.0,300.0405980274081,2.0,1.0,phase_1,,,,,,,,,,,,,magenta,I
386.0,4.0,4.0,0.0,4.0,4.0,416.7258529923856,2.0,1.0,phase_1,,,,,,,,,,,,,orange,cross
0.0,7.0,0.0,1.0,4.0,4.0,517.4779680091888,2.0,1.0,phase_1,,,,,,,,,,,,,gray,hexagon
29.0,5.0,0.5,1.0,3.0,3.0,346.5533279813826,2.0,1.0,phase_1,,,,,,,,,,,,,white,triangle
212.0,7.0,2.0,1.0,2.0,2.0,337.437632959336,2.0,1.0,phase_1,,,,,,,,,,,,,gray,hexagon
380.0,4.0,4.0,0.0,4.0,4.0,439.7201971150934,2.0,1.0,phase_1,,,,,,,,,,,,,orange,cross
71.0,1.0,0.5,0.0,1.0,1.0,494.976723799482,2.0,1.0,phase_1,,,,,,,,,,,,,yellow,square
113.0,6.0,1.0,1.0,4.0,4.0,375.2931491471827,2.0,1.0,phase_1,,,,,,,,,,,,,green,diamond
108.0,2.0,1.0,0.0,3.0,3.0,431.2279119621962,2.0,1.0,phase_1,,,,,,,,,,,,,cyan,flipped triangle
184.0,3.0,2.0,0.0,1.0,1.0,395.0714850798249,2.0,1.0,phase_1,,,,,,,,,,,,,magenta,I
0.0,5.0,0.0,1.0,1.0,1.0,339.4709290005266,2.0,1.0,phase_1,,,,,,,,,,,,,white,triangle
209.0,7.0,2.0,1.0,3.0,3.0,419.5933749433607,2.0,1.0,phase_1,,,,,,,,,,,,,gray,hexagon
44.0,5.0,0.5,1.0,1.0,1.0,309.5787109341472,2.0,1.0,phase_1,,,,,,,,,,,,,white,triangle
189.0,3.0,2.0,0.0,4.0,4.0,385.8480839990079,2.0,1.0,phase_1,,,,,,,,,,,,,magenta,I
188.0,7.0,2.0,1.0,4.0,4.0,366.1288111470639,2.0,1.0,phase_1,,,,,,,,,,,,,gray,hexagon
204.0,3.0,2.0,0.0,4.0,4.0,378.5528989974409,2.0,1.0,phase_1,,,,,,,,,,,,,magenta,I
215.0,7.0,2.0,1.0,1.0,1.0,545.7530068233609,2.0,1.0,phase_1,,,,,,,,,,,,,gray,hexagon
413.0,4.0,4.0,0.0,1.0,1.0,354.6169698238373,2.0,1.0,phase_1,,,,,,,,,,,,,orange,cross
192.0,3.0,2.0,0.0,3.0,3.0,366.020139073953,2.0,1.0,phase_1,,,,,,,,,,,,,magenta,I
383.0,8.0,4.0,1.0,1.0,1.0,288.3756468072533,2.0,1.0,phase_1,,,,,,,,,,,,,blue,circle
58.0,5.0,0.5,1.0,2.0,2.0,312.7406500279903,2.0,1.0,phase_1,,,,,,,,,,,,,white,triangle
213.0,3.0,2.0,0.0,1.0,1.0,300.5644760560244,2.0,1.0,phase_1,,,,,,,,,,,,,magenta,I
0.0,3.0,0.0,0.0,3.0,3.0,345.8583359606564,2.0,1.0,phase_1,,,,,,,,,,,,,magenta,I
53.0,5.0,0.5,1.0,4.0,4.0,359.1561138164252,2.0,1.0,phase_1,,,,,,,,,,,,,white,triangle
386.0,8.0,4.0,1.0,2.0,2.0,291.5705619379878,2.0,1.0,phase_1,,,,,,,,,,,,,blue,circle
84.0,6.0,1.0,1.0,1.0,1.0,282.8510329127311,2.0,1.0,phase_1,,,,,,,,,,,,,green,diamond
122.0,2.0,1.0,0.0,4.0,4.0,374.3895550724119,2.0,1.0,phase_1,,,,,,,,,,,,,cyan,flipped triangle
117.0,6.0,1.0,1.0,2.0,2.0,361.3823128398508,2.0,1.0,phase_1,,,,,,,,,,,,,green,diamond
394.0,8.0,4.0,1.0,3.0,3.0,361.4598519634455,2.0,1.0,phase_1,,,,,,,,,,,,,blue,circle
378.0,8.0,4.0,1.0,1.0,1.0,353.7197760306299,2.0,1.0,phase_1,,,,,,,,,,,,,blue,circle
0.0,3.0,0.0,0.0,4.0,4.0,385.9682511538267,2.0,1.0,phase_1,,,,,,,,,,,,,magenta,I
88.0,6.0,1.0,1.0,2.0,2.0,305.5036270525306,2.0,1.0,phase_1,,,,,,,,,,,,,green,diamond
81.0,2.0,1.0,0.0,4.0,4.0,409.7541009541601,2.0,1.0,phase_1,,,,,,,,,,,,,cyan,flipped triangle
53.0,1.0,0.5,0.0,1.0,1.0,261.913918890059,2.0,1.0,phase_1,,,,,,,,,,,,,yellow,square
191.0,3.0,2.0,0.0,4.0,4.0,410.9848900698125,2.0,1.0,phase_1,,,,,,,,,,,,,magenta,I
0.0,8.0,0.0,1.0,3.0,3.0,386.9449908379465,2.0,1.0,phase_1,,,,,,,,,,,,,blue,circle
53.0,5.0,0.5,1.0,3.0,3.0,423.3055410441011,2.0,1.0,phase_1,,,,,,,,,,,,,white,triangle
214.0,3.0,2.0,0.0,4.0,4.0,455.6467949878424,2.0,1.0,phase_1,,,,,,,,,,,,,magenta,I
0.0,8.0,0.0,1.0,2.0,2.0,403.0820319894701,2.0,1.0,phase_1,,,,,,,,,,,,,blue,circle
102.0,2.0,1.0,0.0,4.0,4.0,402.1020920481533,2.0,1.0,phase_1,,,,,,,,,,,,,cyan,flipped triangle
195.0,7.0,2.0,1.0,2.0,2.0,347.9626809712499,2.0,1.0,phase_1,,,,,,,,,,,,,gray,hexagon
0.0,1.0,0.0,0.0,4.0,4.0,381.5506231039762,2.0,1.0,phase_1,,,,,,,,,,,,,yellow,square
0.0,5.0,0.0,1.0,3.0,3.0,439.5172148942947,2.0,1.0,phase_1,,,,,,,,,,,,,white,triangle
0.0,7.0,0.0,1.0,2.0,2.0,316.0096020437777,2.0,1.0,phase_1,,,,,,,,,,,,,gray,hexagon
178.0,3.0,2.0,0.0,1.0,1.0,256.6784790251404,2.0,1.0,phase_1,,,,,,,,,,,,,magenta,I
68.0,1.0,0.5,0.0,2.0,2.0,306.0136751737445,2.0,1.0,phase_1,,,,,,,,,,,,,yellow,square
109.0,2.0,1.0,0.0,3.0,3.0,314.6271691657603,2.0,1.0,phase_1,,,,,,,,,,,,,cyan,flipped triangle
191.0,7.0,2.0,1.0,4.0,4.0,393.8654069788754,2.0,1.0,phase_1,,,,,,,,,,,,,gray,hexagon
49.0,5.0,0.5,1.0,1.0,1.0,305.329762166366,3.0,1.0,phase_1,,,,,,,,,,,,,white,triangle
89.0,6.0,1.0,1.0,1.0,1.0,338.3484149817377,3.0,1.0,phase_1,,,,,,,,,,,,,green,diamond
190.0,3.0,2.0,0.0,1.0,1.0,283.453008858487,3.0,1.0,phase_1,,,,,,,,,,,,,magenta,I
61.0,1.0,0.5,0.0,4.0,4.0,409.9042320158332,3.0,1.0,phase_1,,,,,,,,,,,,,yellow,square
112.0,6.0,1.0,1.0,2.0,2.0,328.1726960558444,3.0,1.0,phase_1,,,,,,,,,,,,,green,diamond
396.0,4.0,4.0,0.0,1.0,1.0,454.4941559433937,3.0,1.0,phase_1,,,,,,,,,,,,,orange,cross
108.0,6.0,1.0,1.0,2.0,2.0,309.2203980777412,3.0,1.0,phase_1,,,,,,,,,,,,,green,diamond
121.0,2.0,1.0,0.0,1.0,1.0,295.49576807767147,3.0,1.0,phase_1,,,,,,,,,,,,,cyan,flipped triangle
204.0,7.0,2.0,1.0,1.0,1.0,332.244967110455,3.0,1.0,phase_1,,,,,,,,,,,,,gray,hexagon
208.0,3.0,2.0,0.0,4.0,4.0,512.4833628069609,3.0,1.0,phase_1,,,,,,,,,,,,,magenta,I
177.0,3.0,2.0,0.0,2.0,2.0,299.8986910097301,3.0,1.0,phase_1,,,,,,,,,,,,,magenta,I
47.0,5.0,0.5,1.0,4.0,4.0,425.4675260744989,3.0,1.0,phase_1,,,,,,,,,,,,,white,triangle
52.0,1.0,0.5,0.0,2.0,2.0,279.4124991632998,3.0,1.0,phase_1,,,,,,,,,,,,,yellow,square
27.0,5.0,0.5,1.0,2.0,2.0,309.9100589752197,3.0,1.0,phase_1,,,,,,,,,,,,,white,triangle
124.0,6.0,1.0,1.0,4.0,4.0,456.877799006179,3.0,1.0,phase_1,,,,,,,,,,,,,green,diamond
119.0,6.0,1.0,1.0,1.0,1.0,269.6723819244653,3.0,1.0,phase_1,,,,,,,,,,,,,green,diamond
119.0,6.0,1.0,1.0,3.0,3.0,357.34254587441677,3.0,1.0,phase_1,,,,,,,,,,,,,green,diamond
380.0,4.0,4.0,0.0,1.0,1.0,280.5624220054596,3.0,1.0,phase_1,,,,,,,,,,,,,orange,cross
114.0,2.0,1.0,0.0,3.0,3.0,405.7771130464971,3.0,1.0,phase_1,,,,,,,,,,,,,cyan,flipped triangle
0.0,6.0,0.0,1.0,2.0,2.0,324.7159540187567,3.0,1.0,phase_1,,,,,,,,,,,,,green,diamond
85.0,2.0,1.0,0.0,2.0,2.0,269.3837659899145,3.0,1.0,phase_1,,,,,,,,,,,,,cyan,flipped triangle
108.0,2.0,1.0,0.0,3.0,3.0,394.2756450269371,3.0,1.0,phase_1,,,,,,,,,,,,,cyan,flipped triangle
414.0,8.0,4.0,1.0,3.0,3.0,383.0209549050778,3.0,1.0,phase_1,,,,,,,,,,,,,blue,circle
27.0,1.0,0.5,0.0,2.0,2.0,327.1807229612022,3.0,1.0,phase_1,,,,,,,,,,,,,yellow,square
410.0,4.0,4.0,0.0,4.0,4.0,361.9530100841075,3.0,1.0,phase_1,,,,,,,,,,,,,orange,cross
109.0,6.0,1.0,1.0,3.0,3.0,351.0058040264994,3.0,1.0,phase_1,,,,,,,,,,,,,green,diamond
419.0,4.0,4.0,0.0,3.0,3.0,365.6930050347,3.0,1.0,phase_1,,,,,,,,,,,,,orange,cross
190.0,3.0,2.0,0.0,2.0,2.0,376.1598570272326,3.0,1.0,phase_1,,,,,,,,,,,,,magenta,I
0.0,6.0,0.0,1.0,4.0,4.0,377.0925069693476,3.0,1.0,phase_1,,,,,,,,,,,,,green,diamond
86.0,2.0,1.0,0.0,2.0,2.0,296.7045430559665,3.0,1.0,phase_1,,,,,,,,,,,,,cyan,flipped triangle
114.0,6.0,1.0,1.0,1.0,1.0,319.5694598834961,3.0,1.0,phase_1,,,,,,,,,,,,,green,diamond
397.0,8.0,4.0,1.0,2.0,2.0,286.7213049903512,3.0,1.0,phase_1,,,,,,,,,,,,,blue,circle
42.0,5.0,0.5,1.0,4.0,4.0,413.2828200235963,3.0,1.0,phase_1,,,,,,,,,,,,,white,triangle
0.0,4.0,0.0,0.0,1.0,1.0,369.2883518524468,3.0,1.0,phase_1,,,,,,,,,,,,,orange,cross
73.0,5.0,0.5,1.0,2.0,2.0,267.6093729678541,3.0,1.0,phase_1,,,,,,,,,,,,,white,triangle
113.0,2.0,1.0,0.0,2.0,2.0,301.8574940506369,3.0,1.0,phase_1,,,,,,,,,,,,,cyan,flipped triangle
0.0,2.0,0.0,0.0,4.0,4.0,450.3881211858243,3.0,1.0,phase_1,,,,,,,,,,,,,cyan,flipped triangle
73.0,1.0,0.5,0.0,3.0,3.0,414.6299168933183,3.0,1.0,phase_1,,,,,,,,,,,,,yellow,square
117.0,2.0,1.0,0.0,2.0,2.0,324.3818150367588,3.0,1.0,phase_1,,,,,,,,,,,,,cyan,flipped triangle
41.0,1.0,0.5,0.0,4.0,4.0,360.7003879733383,3.0,1.0,phase_1,,,,,,,,,,,,,yellow,square
189.0,7.0,2.0,1.0,2.0,2.0,339.1985679045319,3.0,1.0,phase_1,,,,,,,,,,,,,gray,hexagon
84.0,2.0,1.0,0.0,3.0,3.0,350.1446000300348,3.0,1.0,phase_1,,,,,,,,,,,,,cyan,flipped triangle
0.0,1.0,0.0,0.0,1.0,1.0,273.8110381178558,3.0,1.0,phase_1,,,,,,,,,,,,,yellow,square
0.0,8.0,0.0,1.0,4.0,4.0,394.9752959888428,3.0,1.0,phase_1,,,,,,,,,,,,,blue,circle
86.0,2.0,1.0,0.0,1.0,1.0,316.7452090419829,3.0,1.0,phase_1,,,,,,,,,,,,,cyan,flipped triangle
0.0,4.0,0.0,0.0,4.0,4.0,365.8375279046595,3.0,1.0,phase_1,,,,,,,,,,,,,orange,cross
378.0,8.0,4.0,1.0,2.0,2.0,285.34527705051,3.0,1.0,phase_1,,,,,,,,,,,,,blue,circle
34.0,5.0,0.5,1.0,4.0,4.0,340.9431579057127,3.0,1.0,phase_1,,,,,,,,,,,,,white,triangle
33.0,1.0,0.5,0.0,3.0,3.0,352.5765249505639,3.0,1.0,phase_1,,,,,,,,,,,,,yellow,square
44.0,1.0,0.5,0.0,1.0,1.0,296.7027649283409,3.0,1.0,phase_1,,,,,,,,,,,,,yellow,square
380.0,4.0,4.0,0.0,3.0,3.0,387.9274849314242,3.0,1.0,phase_1,,,,,,,,,,,,,orange,cross
77.0,2.0,1.0,0.0,4.0,4.0,459.555571898818,3.0,1.0,phase_1,,,,,,,,,,,,,cyan,flipped triangle
36.0,1.0,0.5,0.0,2.0,2.0,312.6635188236832,3.0,1.0,phase_1,,,,,,,,,,,,,yellow,square
84.0,6.0,1.0,1.0,4.0,4.0,369.0044700633734,3.0,1.0,phase_1,,,,,,,,,,,,,green,diamond
116.0,2.0,1.0,0.0,3.0,3.0,427.0771581213921,3.0,1.0,phase_1,,,,,,,,,,,,,cyan,flipped triangle
180.0,3.0,2.0,0.0,1.0,1.0,345.1812150888145,3.0,1.0,phase_1,,,,,,,,,,,,,magenta,I
405.0,4.0,4.0,0.0,4.0,4.0,370.3298598993569,3.0,1.0,phase_1,,,,,,,,,,,,,orange,cross
86.0,6.0,1.0,1.0,2.0,2.0,335.820467909798,3.0,1.0,phase_1,,,,,,,,,,,,,green,diamond
407.0,8.0,4.0,1.0,2.0,2.0,316.8668020516634,3.0,1.0,phase_1,,,,,,,,,,,,,blue,circle
45.0,5.0,0.5,1.0,3.0,3.0,392.839526059106,3.0,1.0,phase_1,,,,,,,,,,,,,white,triangle
0.0,3.0,0.0,0.0,4.0,4.0,383.7710409425199,3.0,1.0,phase_1,,,,,,,,,,,,,magenta,I
421.0,8.0,4.0,1.0,3.0,3.0,375.0488029327243,3.0,1.0,phase_1,,,,,,,,,,,,,blue,circle
0.0,5.0,0.0,1.0,2.0,2.0,519.2468948662281,3.0,1.0,phase_1,,,,,,,,,,,,,white,triangle
99.0,2.0,1.0,0.0,2.0,2.0,304.7507361043244,3.0,1.0,phase_1,,,,,,,,,,,,,cyan,flipped triangle
192.0,3.0,2.0,0.0,3.0,3.0,361.4204849582165,3.0,1.0,phase_1,,,,,,,,,,,,,magenta,I
81.0,2.0,1.0,0.0,1.0,1.0,330.0190570298582,3.0,1.0,phase_1,,,,,,,,,,,,,cyan,flipped triangle
80.0,2.0,1.0,0.0,3.0,3.0,339.6028059069067,3.0,1.0,phase_1,,,,,,,,,,,,,cyan,flipped triangle
0.0,2.0,0.0,0.0,2.0,2.0,329.0695608593523,3.0,1.0,phase_1,,,,,,,,,,,,,cyan,flipped triangle
25.0,1.0,0.5,0.0,3.0,3.0,343.5947238467634,3.0,1.0,phase_1,,,,,,,,,,,,,yellow,square
389.0,8.0,4.0,1.0,2.0,2.0,487.8669548779726,3.0,1.0,phase_1,,,,,,,,,,,,,blue,circle
418.0,4.0,4.0,0.0,4.0,4.0,390.7226060982793,3.0,2.0,phase_1,,,,,,,,,,,,,orange,cross
405.0,8.0,4.0,1.0,4.0,4.0,378.8283849135041,3.0,1.0,phase_1,,,,,,,,,,,,,blue,circle
92.0,2.0,1.0,0.0,2.0,2.0,347.0208689104765,3.0,1.0,phase_1,,,,,,,,,,,,,cyan,flipped triangle
120.0,6.0,1.0,1.0,2.0,2.0,357.5910439249128,3.0,1.0,phase_1,,,,,,,,,,,,,green,diamond
0.0,7.0,0.0,1.0,1.0,1.0,345.2184251509607,3.0,1.0,phase_1,,,,,,,,,,,,,gray,hexagon
0.0,6.0,0.0,1.0,4.0,4.0,358.9776491280645,3.0,1.0,phase_1,,,,,,,,,,,,,green,diamond
395.0,4.0,4.0,0.0,2.0,2.0,314.6691850852221,3.0,1.0,phase_1,,,,,,,,,,,,,orange,cross
182.0,7.0,2.0,1.0,4.0,4.0,369.8681511450559,3.0,1.0,phase_1,,,,,,,,,,,,,gray,hexagon
77.0,6.0,1.0,1.0,3.0,3.0,517.0719709713012,3.0,1.0,phase_1,,,,,,,,,,,,,green,diamond
0.0,6.0,0.0,1.0,1.0,1.0,415.5418849550187,3.0,1.0,phase_1,,,,,,,,,,,,,green,diamond
92.0,6.0,1.0,1.0,3.0,3.0,408.3362000528723,3.0,1.0,phase_1,,,,,,,,,,,,,green,diamond
101.0,2.0,1.0,0.0,4.0,4.0,417.2417020890862,3.0,1.0,phase_1,,,,,,,,,,,,,cyan,flipped triangle
182.0,3.0,2.0,0.0,2.0,2.0,339.6977030206471,3.0,1.0,phase_1,,,,,,,,,,,,,magenta,I
0.0,8.0,0.0,1.0,4.0,4.0,353.7254671100527,3.0,1.0,phase_1,,,,,,,,,,,,,blue,circle
0.0,3.0,0.0,0.0,1.0,1.0,364.7616088856011,3.0,1.0,phase_1,,,,,,,,,,,,,magenta,I
0.0,1.0,0.0,0.0,2.0,2.0,332.30473496951157,3.0,1.0,phase_1,,,,,,,,,,,,,yellow,square
402.0,4.0,4.0,0.0,3.0,3.0,431.5375939477235,3.0,1.0,phase_1,,,,,,,,,,,,,orange,cross
73.0,1.0,0.5,0.0,4.0,4.0,465.6031720805913,3.0,1.0,phase_1,,,,,,,,,,,,,yellow,square
380.0,8.0,4.0,1.0,3.0,3.0,410.1168098859489,3.0,1.0,phase_1,,,,,,,,,,,,,blue,circle
216.0,7.0,2.0,1.0,2.0,2.0,309.0553430374712,3.0,1.0,phase_1,,,,,,,,,,,,,gray,hexagon
47.0,1.0,0.5,0.0,3.0,3.0,379.0922150947153,3.0,1.0,phase_1,,,,,,,,,,,,,yellow,square
423.0,8.0,4.0,1.0,3.0,3.0,333.3176178857684,3.0,1.0,phase_1,,,,,,,,,,,,,blue,circle
177.0,7.0,2.0,1.0,2.0,2.0,344.9330199509859,3.0,1.0,phase_1,,,,,,,,,,,,,gray,hexagon
418.0,8.0,4.0,1.0,3.0,3.0,337.1526640839875,3.0,1.0,phase_1,,,,,,,,,,,,,blue,circle
77.0,2.0,1.0,0.0,1.0,1.0,280.1932049915194,3.0,1.0,phase_1,,,,,,,,,,,,,cyan,flipped triangle
195.0,3.0,2.0,0.0,2.0,2.0,345.1905481051653,3.0,1.0,phase_1,,,,,,,,,,,,,magenta,I
423.0,4.0,4.0,0.0,1.0,1.0,338.6831821408123,3.0,1.0,phase_1,,,,,,,,,,,,,orange,cross
0.0,8.0,0.0,1.0,4.0,4.0,437.9928410053253,3.0,1.0,phase_1,,,,,,,,,,,,,blue,circle
110.0,2.0,1.0,0.0,1.0,1.0,317.060471046716,3.0,1.0,phase_1,,,,,,,,,,,,,cyan,flipped triangle
52.0,5.0,0.5,1.0,1.0,1.0,325.433722930029,3.0,1.0,phase_1,,,,,,,,,,,,,white,triangle
49.0,1.0,0.5,0.0,3.0,3.0,372.8465239983052,4.0,1.0,phase_1,,,,,,,,,,,,,yellow,square
36.0,5.0,0.5,1.0,3.0,3.0,342.0108761638403,4.0,1.0,phase_1,,,,,,,,,,,,,white,triangle
0.0,1.0,0.0,0.0,1.0,1.0,308.5285820998251,4.0,1.0,phase_1,,,,,,,,,,,,,yellow,square
214.0,3.0,2.0,0.0,3.0,3.0,331.7041560076177,4.0,1.0,phase_1,,,,,,,,,,,,,magenta,I
214.0,7.0,2.0,1.0,1.0,1.0,319.8284411337226,4.0,1.0,phase_1,,,,,,,,,,,,,gray,hexagon
410.0,8.0,4.0,1.0,4.0,4.0,341.7905608657747,4.0,1.0,phase_1,,,,,,,,,,,,,blue,circle
0.0,1.0,0.0,0.0,1.0,1.0,285.1117788814008,4.0,1.0,phase_1,,,,,,,,,,,,,yellow,square
403.0,4.0,4.0,0.0,2.0,2.0,300.0274270307272,4.0,1.0,phase_1,,,,,,,,,,,,,orange,cross
212.0,3.0,2.0,0.0,1.0,1.0,288.4586008731276,4.0,1.0,phase_1,,,,,,,,,,,,,magenta,I
383.0,4.0,4.0,0.0,2.0,2.0,413.8624959159642,4.0,1.0,phase_1,,,,,,,,,,,,,orange,cross
411.0,8.0,4.0,1.0,4.0,4.0,377.8849979862571,4.0,1.0,phase_1,,,,,,,,,,,,,blue,circle
0.0,2.0,0.0,0.0,3.0,3.0,325.7390789221972,4.0,1.0,phase_1,,,,,,,,,,,,,cyan,flipped triangle
218.0,3.0,2.0,0.0,2.0,2.0,288.9497501309961,4.0,1.0,phase_1,,,,,,,,,,,,,magenta,I
71.0,5.0,0.5,1.0,3.0,3.0,412.9276929888874,4.0,1.0,phase_1,,,,,,,,,,,,,white,triangle
0.0,2.0,0.0,0.0,1.0,1.0,292.0233309268951,4.0,1.0,phase_1,,,,,,,,,,,,,cyan,flipped triangle
0.0,7.0,0.0,1.0,3.0,3.0,372.6591689046472,4.0,1.0,phase_1,,,,,,,,,,,,,gray,hexagon
87.0,2.0,1.0,0.0,1.0,1.0,290.9707890357822,4.0,1.0,phase_1,,,,,,,,,,,,,cyan,flipped triangle
99.0,6.0,1.0,1.0,1.0,1.0,304.6555598266423,4.0,1.0,phase_1,,,,,,,,,,,,,green,diamond
80.0,6.0,1.0,1.0,1.0,1.0,336.5556709468364,4.0,1.0,phase_1,,,,,,,,,,,,,green,diamond
0.0,8.0,0.0,1.0,1.0,1.0,285.2423889562487,4.0,1.0,phase_1,,,,,,,,,,,,,blue,circle
394.0,4.0,4.0,0.0,1.0,1.0,273.5691820271313,4.0,1.0,phase_1,,,,,,,,,,,,,orange,cross
409.0,8.0,4.0,1.0,1.0,1.0,260.2188838645816,4.0,1.0,phase_1,,,,,,,,,,,,,blue,circle
379.0,4.0,4.0,0.0,2.0,2.0,272.4465171340853,4.0,1.0,phase_1,,,,,,,,,,,,,orange,cross
189.0,7.0,2.0,1.0,4.0,4.0,374.4453499093652,4.0,1.0,phase_1,,,,,,,,,,,,,gray,hexagon
413.0,8.0,4.0,1.0,3.0,3.0,385.8522900845855,4.0,1.0,phase_1,,,,,,,,,,,,,blue,circle
216.0,3.0,2.0,0.0,4.0,4.0,375.0979108735919,4.0,1.0,phase_1,,,,,,,,,,,,,magenta,I
378.0,4.0,4.0,0.0,4.0,4.0,365.8221131190657,4.0,1.0,phase_1,,,,,,,,,,,,,orange,cross
42.0,1.0,0.5,0.0,1.0,1.0,446.8302570749074,4.0,1.0,phase_1,,,,,,,,,,,,,yellow,square
421.0,4.0,4.0,0.0,2.0,2.0,308.8536891154945,4.0,1.0,phase_1,,,,,,,,,,,,,orange,cross
81.0,6.0,1.0,1.0,3.0,3.0,367.0923300087452,4.0,1.0,phase_1,,,,,,,,,,,,,green,diamond
192.0,7.0,2.0,1.0,1.0,1.0,291.3323729299009,4.0,1.0,phase_1,,,,,,,,,,,,,gray,hexagon
421.0,4.0,4.0,0.0,4.0,4.0,391.5594168938696,4.0,1.0,phase_1,,,,,,,,,,,,,orange,cross
45.0,5.0,0.5,1.0,2.0,2.0,313.6847850400954,4.0,1.0,phase_1,,,,,,,,,,,,,white,triangle
0.0,3.0,0.0,0.0,2.0,2.0,349.09329097718,4.0,1.0,phase_1,,,,,,,,,,,,,magenta,I
70.0,5.0,0.5,1.0,1.0,1.0,290.2820340823382,4.0,1.0,phase_1,,,,,,,,,,,,,white,triangle
393.0,8.0,4.0,1.0,3.0,3.0,372.9860999155789,4.0,1.0,phase_1,,,,,,,,,,,,,blue,circle
195.0,7.0,2.0,1.0,3.0,3.0,517.7860129624605,4.0,1.0,phase_1,,,,,,,,,,,,,gray,hexagon
63.0,5.0,0.5,1.0,4.0,4.0,539.6505040116608,4.0,1.0,phase_1,,,,,,,,,,,,,white,triangle
48.0,5.0,0.5,1.0,2.0,2.0,360.9993809368461,4.0,1.0,phase_1,,,,,,,,,,,,,white,triangle
419.0,8.0,4.0,1.0,2.0,2.0,304.7613909002393,4.0,1.0,phase_1,,,,,,,,,,,,,blue,circle
120.0,2.0,1.0,0.0,3.0,3.0,361.320564057678,4.0,1.0,phase_1,,,,,,,,,,,,,cyan,flipped triangle
0.0,8.0,0.0,1.0,3.0,3.0,297.1810919698328,4.0,1.0,phase_1,,,,,,,,,,,,,blue,circle
52.0,1.0,0.5,0.0,4.0,4.0,376.2392830103636,4.0,1.0,phase_1,,,,,,,,,,,,,yellow,square
109.0,6.0,1.0,1.0,3.0,3.0,385.4116969741881,4.0,1.0,phase_1,,,,,,,,,,,,,green,diamond
200.0,7.0,2.0,1.0,3.0,3.0,331.3498049974441,4.0,1.0,phase_1,,,,,,,,,,,,,gray,hexagon
65.0,5.0,0.5,1.0,2.0,2.0,319.374255137518,4.0,1.0,phase_1,,,,,,,,,,,,,white,triangle
410.0,8.0,4.0,1.0,1.0,1.0,288.6546750087291,4.0,1.0,phase_1,,,,,,,,,,,,,blue,circle
40.0,1.0,0.5,0.0,2.0,2.0,251.8338721711188,4.0,1.0,phase_1,,,,,,,,,,,,,yellow,square
209.0,7.0,2.0,1.0,3.0,3.0,333.0252869054675,4.0,1.0,phase_1,,,,,,,,,,,,,gray,hexagon
119.0,2.0,1.0,0.0,1.0,1.0,387.5886138994246,4.0,1.0,phase_1,,,,,,,,,,,,,cyan,flipped triangle
215.0,7.0,2.0,1.0,2.0,2.0,265.9232809673995,4.0,1.0,phase_1,,,,,,,,,,,,,gray,hexagon
222.0,3.0,2.0,0.0,3.0,3.0,321.8980189412832,4.0,1.0,phase_1,,,,,,,,,,,,,magenta,I
393.0,4.0,4.0,0.0,4.0,4.0,446.1120390333235,4.0,1.0,phase_1,,,,,,,,,,,,,orange,cross
51.0,1.0,0.5,0.0,1.0,1.0,300.1607009209692,4.0,1.0,phase_1,,,,,,,,,,,,,yellow,square
0.0,3.0,0.0,0.0,1.0,1.0,293.3125179260969,4.0,1.0,phase_1,,,,,,,,,,,,,magenta,I
192.0,7.0,2.0,1.0,3.0,3.0,315.2821660041809,4.0,1.0,phase_1,,,,,,,,,,,,,gray,hexagon
380.0,8.0,4.0,1.0,4.0,4.0,395.3203770797699,4.0,1.0,phase_1,,,,,,,,,,,,,blue,circle
0.0,4.0,0.0,0.0,1.0,1.0,282.1610970422625,4.0,1.0,phase_1,,,,,,,,,,,,,orange,cross
409.0,8.0,4.0,1.0,1.0,1.0,338.6763869784772,4.0,1.0,phase_1,,,,,,,,,,,,,blue,circle
25.0,5.0,0.5,1.0,4.0,4.0,374.759822152555,4.0,1.0,phase_1,,,,,,,,,,,,,white,triangle
0.0,6.0,0.0,1.0,2.0,2.0,272.5484839174896,4.0,1.0,phase_1,,,,,,,,,,,,,green,diamond
0.0,1.0,0.0,0.0,1.0,1.0,286.1286359839141,4.0,1.0,phase_1,,,,,,,,,,,,,yellow,square
207.0,3.0,2.0,0.0,2.0,2.0,429.2642020154744,4.0,1.0,phase_1,,,,,,,,,,,,,magenta,I
0.0,7.0,0.0,1.0,4.0,4.0,444.3272929638624,4.0,1.0,phase_1,,,,,,,,,,,,,gray,hexagon
387.0,4.0,4.0,0.0,2.0,2.0,320.2341261785477,4.0,1.0,phase_1,,,,,,,,,,,,,orange,cross
31.0,1.0,0.5,0.0,1.0,1.0,264.0315140597522,4.0,1.0,phase_1,,,,,,,,,,,,,yellow,square
0.0,7.0,0.0,1.0,4.0,4.0,375.2173951361328,4.0,1.0,phase_1,,,,,,,,,,,,,gray,hexagon
208.0,7.0,2.0,1.0,4.0,4.0,390.9575759898871,4.0,1.0,phase_1,,,,,,,,,,,,,gray,hexagon
0.0,4.0,0.0,0.0,2.0,2.0,276.9365590065717,4.0,1.0,phase_1,,,,,,,,,,,,,orange,cross
97.0,2.0,1.0,0.0,4.0,4.0,399.419808993116,4.0,1.0,phase_1,,,,,,,,,,,,,cyan,flipped triangle
177.0,7.0,2.0,1.0,1.0,1.0,265.0223220698535,4.0,1.0,phase_1,,,,,,,,,,,,,gray,hexagon
180.0,7.0,2.0,1.0,3.0,3.0,366.4598390460014,4.0,1.0,phase_1,,,,,,,,,,,,,gray,hexagon
90.0,2.0,1.0,0.0,2.0,2.0,288.9735270291567,4.0,1.0,phase_1,,,,,,,,,,,,,cyan,flipped triangle
403.0,8.0,4.0,1.0,4.0,4.0,457.7954129781574,4.0,1.0,phase_1,,,,,,,,,,,,,blue,circle
51.0,5.0,0.5,1.0,1.0,1.0,289.5731111057102,4.0,1.0,phase_1,,,,,,,,,,,,,white,triangle
122.0,6.0,1.0,1.0,1.0,1.0,279.1919698938727,4.0,1.0,phase_1,,,,,,,,,,,,,green,diamond
394.0,4.0,4.0,0.0,4.0,4.0,383.399031823501,4.0,1.0,phase_1,,,,,,,,,,,,,orange,cross
0.0,6.0,0.0,1.0,3.0,3.0,394.8168680071831,4.0,1.0,phase_1,,,,,,,,,,,,,green,diamond
407.0,8.0,4.0,1.0,4.0,4.0,472.4418248515576,4.0,1.0,phase_1,,,,,,,,,,,,,blue,circle
36.0,5.0,0.5,1.0,4.0,4.0,397.0492489170283,4.0,1.0,phase_1,,,,,,,,,,,,,white,triangle
62.0,5.0,0.5,1.0,4.0,4.0,386.0705669503659,4.0,1.0,phase_1,,,,,,,,,,,,,white,triangle
40.0,5.0,0.5,1.0,2.0,2.0,331.065904116258,4.0,1.0,phase_1,,,,,,,,,,,,,white,triangle
31.0,1.0,0.5,0.0,2.0,2.0,362.9477561917156,4.0,1.0,phase_1,,,,,,,,,,,,,yellow,square
79.0,2.0,1.0,0.0,4.0,4.0,398.0419980362057,4.0,1.0,phase_1,,,,,,,,,,,,,cyan,flipped triangle
75.0,1.0,0.5,0.0,4.0,4.0,410.722424974665,4.0,1.0,phase_1,,,,,,,,,,,,,yellow,square
95.0,6.0,1.0,1.0,4.0,4.0,329.5262639876455,4.0,1.0,phase_1,,,,,,,,,,,,,green,diamond
221.0,7.0,2.0,1.0,4.0,4.0,352.6659689377993,4.0,1.0,phase_1,,,,,,,,,,,,,gray,hexagon
72.0,1.0,0.5,0.0,3.0,3.0,345.2287269756198,4.0,1.0,phase_1,,,,,,,,,,,,,yellow,square
0.0,6.0,0.0,1.0,4.0,4.0,353.5297960042953,4.0,1.0,phase_1,,,,,,,,,,,,,green,diamond
200.0,3.0,2.0,0.0,4.0,4.0,345.3353049699217,4.0,1.0,phase_1,,,,,,,,,,,,,magenta,I
414.0,4.0,4.0,0.0,3.0,3.0,535.8000199776143,4.0,1.0,phase_1,,,,,,,,,,,,,orange,cross
60.0,1.0,0.5,0.0,4.0,4.0,357.9935929737985,4.0,1.0,phase_1,,,,,,,,,,,,,yellow,square
48.0,1.0,0.5,0.0,2.0,2.0,345.1580770779401,4.0,1.0,phase_1,,,,,,,,,,,,,yellow,square
99.0,6.0,1.0,1.0,3.0,3.0,324.1249618586153,4.0,1.0,phase_1,,,,,,,,,,,,,green,diamond
225.0,3.0,2.0,0.0,3.0,3.0,381.7118490114808,4.0,1.0,phase_1,,,,,,,,,,,,,magenta,I
221.0,3.0,2.0,0.0,2.0,2.0,324.1495180409401,4.0,1.0,phase_1,,,,,,,,,,,,,magenta,I
109.0,2.0,1.0,0.0,1.0,1.0,381.6204250324517,4.0,1.0,phase_1,,,,,,,,,,,,,cyan,flipped triangle
0.0,4.0,0.0,0.0,3.0,3.0,639.8914391174912,4.0,1.0,phase_1,,,,,,,,,,,,,orange,cross
0.0,6.0,0.0,1.0,4.0,4.0,360.1135849021375,4.0,1.0,phase_1,,,,,,,,,,,,,green,diamond
215.0,3.0,2.0,0.0,4.0,4.0,397.6448748726398,4.0,1.0,phase_1,,,,,,,,,,,,,magenta,I
0.0,7.0,2.0,1.0,6.0,6.0,807.3206271510571,1.0,1.0,phase_2,go,250.0,250.0,1.0,,,,,,,,,gray,hexagon
0.0,5.0,0.5,1.0,5.0,5.0,607.0228160824627,1.0,1.0,phase_2,stop,250.0,250.0,3.0,,,,,,,,,white,triangle
0.0,3.0,2.0,0.0,5.0,5.0,538.8570551294833,1.0,1.0,phase_2,go,200.0,250.0,1.0,,,,,,,,,magenta,I
0.0,5.0,0.5,1.0,5.0,5.0,494.0700179431587,1.0,1.0,phase_2,go,200.0,250.0,1.0,,,,,,,,,white,triangle
0.0,8.0,4.0,1.0,6.0,6.0,438.6269701644778,1.0,1.0,phase_2,go,200.0,250.0,1.0,,,,,,,,,blue,circle
0.0,8.0,4.0,1.0,6.0,6.0,317.4537650775164,1.0,1.0,phase_2,stop,200.0,250.0,3.0,,,,,,,,,blue,circle
0.0,4.0,4.0,0.0,5.0,5.0,452.3619478568434,1.0,1.0,phase_2,go,200.0,200.0,1.0,,,,,,,,,orange,cross
0.0,6.0,1.0,1.0,6.0,0.0,0.0,1.0,1.0,phase_2,stop,200.0,200.0,4.0,,,,,,,,,green,diamond
0.0,5.0,0.5,1.0,5.0,5.0,565.5193070415407,1.0,1.0,phase_2,go,200.0,250.0,1.0,,,,,,,,,white,triangle
0.0,6.0,1.0,1.0,5.0,5.0,566.9539470691234,1.0,1.0,phase_2,go,200.0,250.0,1.0,,,,,,,,,green,diamond
0.0,6.0,1.0,1.0,5.0,0.0,0.0,1.0,1.0,phase_2,stop,200.0,250.0,4.0,,,,,,,,,green,diamond
0.0,2.0,1.0,0.0,6.0,6.0,537.0141339953989,1.0,1.0,phase_2,go,250.0,250.0,1.0,,,,,,,,,cyan,flipped triangle
0.0,6.0,1.0,1.0,6.0,6.0,380.7687649969011,1.0,1.0,phase_2,stop,250.0,250.0,3.0,,,,,,,,,green,diamond
0.0,1.0,0.5,0.0,6.0,6.0,505.9371709357947,1.0,1.0,phase_2,go,250.0,200.0,1.0,,,,,,,,,yellow,square
0.0,8.0,4.0,1.0,5.0,0.0,0.0,1.0,1.0,phase_2,stop,250.0,200.0,4.0,,,,,,,,,blue,circle
0.0,4.0,4.0,0.0,6.0,6.0,459.4448450952768,1.0,1.0,phase_2,go,300.0,200.0,1.0,,,,,,,,,orange,cross
0.0,3.0,2.0,0.0,5.0,5.0,618.9103561919183,1.0,1.0,phase_2,go,300.0,200.0,1.0,,,,,,,,,magenta,I
0.0,6.0,1.0,1.0,6.0,0.0,0.0,1.0,1.0,phase_2,stop,300.0,200.0,4.0,,,,,,,,,green,diamond
0.0,3.0,2.0,0.0,6.0,6.0,556.022014003247,1.0,1.0,phase_2,go,300.0,250.0,1.0,,,,,,,,,magenta,I
0.0,8.0,4.0,1.0,5.0,5.0,475.1237060409039,1.0,1.0,phase_2,go,300.0,250.0,1.0,,,,,,,,,blue,circle
0.0,8.0,4.0,1.0,5.0,0.0,0.0,1.0,1.0,phase_2,stop,300.0,250.0,4.0,,,,,,,,,blue,circle
0.0,1.0,0.5,0.0,6.0,6.0,567.8867979440838,1.0,1.0,phase_2,go,350.0,250.0,1.0,,,,,,,,,yellow,square
0.0,2.0,1.0,0.0,6.0,6.0,488.0695228930563,1.0,1.0,phase_2,go,350.0,250.0,1.0,,,,,,,,,cyan,flipped triangle
0.0,4.0,4.0,0.0,6.0,6.0,365.4122359585017,1.0,1.0,phase_2,go,350.0,250.0,1.0,,,,,,,,,orange,cross
0.0,7.0,2.0,1.0,6.0,6.0,504.93157212622464,1.0,1.0,phase_2,go,350.0,250.0,1.0,,,,,,,,,gray,hexagon
0.0,6.0,1.0,1.0,6.0,0.0,0.0,1.0,1.0,phase_2,stop,350.0,250.0,4.0,,,,,,,,,green,diamond
0.0,4.0,4.0,0.0,6.0,6.0,446.7905140481889,1.0,1.0,phase_2,go,350.0,300.0,1.0,,,,,,,,,orange,cross
0.0,6.0,1.0,1.0,5.0,0.0,0.0,1.0,1.0,phase_2,stop,350.0,300.0,4.0,,,,,,,,,green,diamond
0.0,5.0,0.5,1.0,6.0,0.0,0.0,1.0,1.0,phase_2,stop,400.0,300.0,4.0,,,,,,,,,white,triangle
0.0,3.0,2.0,0.0,5.0,5.0,611.0319548752159,1.0,1.0,phase_2,go,400.0,350.0,1.0,,,,,,,,,magenta,I
0.0,8.0,4.0,1.0,5.0,5.0,609.2679239809513,1.0,1.0,phase_2,go,400.0,350.0,1.0,,,,,,,,,blue,circle
0.0,2.0,1.0,0.0,6.0,6.0,599.5254209265113,1.0,1.0,phase_2,go,400.0,350.0,1.0,,,,,,,,,cyan,flipped triangle
0.0,6.0,1.0,1.0,6.0,0.0,0.0,1.0,1.0,phase_2,stop,400.0,350.0,4.0,,,,,,,,,green,diamond
0.0,4.0,4.0,0.0,5.0,5.0,759.3066659756005,1.0,1.0,phase_2,go,400.0,400.0,1.0,,,,,,,,,orange,cross
0.0,2.0,1.0,0.0,5.0,5.0,737.3629009816796,1.0,1.0,phase_2,go,400.0,400.0,1.0,,,,,,,,,cyan,flipped triangle
0.0,1.0,0.5,0.0,5.0,5.0,578.5900221671909,1.0,1.0,phase_2,go,400.0,400.0,1.0,,,,,,,,,yellow,square
0.0,5.0,0.5,1.0,5.0,0.0,0.0,2.0,1.0,phase_2,stop,400.0,400.0,4.0,,,,,,,,,white,triangle
0.0,1.0,0.5,0.0,5.0,5.0,527.2728248964995,2.0,1.0,phase_2,go,450.0,400.0,1.0,,,,,,,,,yellow,square
0.0,4.0,4.0,0.0,6.0,6.0,652.999971061945,2.0,1.0,phase_2,go,450.0,400.0,1.0,,,,,,,,,orange,cross
0.0,3.0,2.0,0.0,5.0,5.0,530.0867420155555,2.0,1.0,phase_2,go,450.0,400.0,1.0,,,,,,,,,magenta,I
0.0,4.0,4.0,0.0,5.0,5.0,406.340705929324,2.0,1.0,phase_2,go,450.0,400.0,1.0,,,,,,,,,orange,cross
0.0,3.0,2.0,0.0,6.0,6.0,530.9865328017622,2.0,1.0,phase_2,go,450.0,400.0,1.0,,,,,,,,,magenta,I
0.0,6.0,1.0,1.0,5.0,5.0,398.2547069899738,2.0,1.0,phase_2,stop,450.0,400.0,3.0,,,,,,,,,green,diamond
0.0,4.0,4.0,0.0,5.0,5.0,590.5717290006578,2.0,1.0,phase_2,go,400.0,400.0,1.0,,,,,,,,,orange,cross
0.0,5.0,0.5,1.0,5.0,0.0,0.0,2.0,1.0,phase_2,stop,400.0,400.0,4.0,,,,,,,,,white,triangle
0.0,6.0,1.0,1.0,5.0,0.0,0.0,2.0,1.0,phase_2,stop,450.0,400.0,4.0,,,,,,,,,green,diamond
0.0,1.0,0.5,0.0,6.0,6.0,679.4535948429257,2.0,1.0,phase_2,go,500.0,400.0,1.0,,,,,,,,,yellow,square
0.0,3.0,2.0,0.0,5.0,5.0,512.4518261291087,2.0,1.0,phase_2,go,500.0,400.0,1.0,,,,,,,,,magenta,I
0.0,7.0,2.0,1.0,5.0,5.0,459.2423080466687,2.0,1.0,phase_2,stop,500.0,400.0,3.0,,,,,,,,,gray,hexagon
0.0,5.0,0.5,1.0,5.0,0.0,0.0,2.0,1.0,phase_2,stop,450.0,400.0,4.0,,,,,,,,,white,triangle
0.0,6.0,1.0,1.0,6.0,0.0,0.0,2.0,1.0,phase_2,stop,500.0,400.0,4.0,,,,,,,,,green,diamond
0.0,3.0,2.0,0.0,5.0,5.0,706.1962529551238,2.0,1.0,phase_2,go,500.0,450.0,1.0,,,,,,,,,magenta,I
0.0,1.0,0.5,0.0,6.0,6.0,393.1386519689113,2.0,1.0,phase_2,go,500.0,450.0,1.0,,,,,,,,,yellow,square
0.0,5.0,0.5,1.0,6.0,0.0,0.0,2.0,1.0,phase_2,stop,500.0,450.0,4.0,,,,,,,,,white,triangle
0.0,6.0,1.0,1.0,6.0,6.0,641.032658983022,2.0,1.0,phase_2,stop,500.0,500.0,3.0,,,,,,,,,green,diamond
0.0,1.0,0.5,0.0,5.0,5.0,746.9244699459523,2.0,1.0,phase_2,go,500.0,450.0,1.0,,,,,,,,,yellow,square
0.0,8.0,4.0,1.0,6.0,6.0,599.2000161204487,2.0,1.0,phase_2,stop,500.0,450.0,3.0,,,,,,,,,blue,circle
0.0,2.0,1.0,0.0,5.0,5.0,677.917867898941,2.0,1.0,phase_2,go,500.0,400.0,1.0,,,,,,,,,cyan,flipped triangle
0.0,8.0,4.0,1.0,5.0,0.0,0.0,2.0,1.0,phase_2,stop,500.0,400.0,4.0,,,,,,,,,blue,circle
0.0,1.0,0.5,0.0,5.0,5.0,636.2917949445546,2.0,1.0,phase_2,go,550.0,400.0,1.0,,,,,,,,,yellow,square
0.0,1.0,0.5,0.0,5.0,5.0,885.2380199823529,2.0,1.0,phase_2,go,550.0,400.0,1.0,,,,,,,,,yellow,square
0.0,7.0,2.0,1.0,5.0,5.0,627.6835731696337,2.0,1.0,phase_2,stop,550.0,400.0,3.0,,,,,,,,,gray,hexagon
0.0,4.0,4.0,0.0,6.0,6.0,571.994517929852,2.0,1.0,phase_2,go,500.0,400.0,1.0,,,,,,,,,orange,cross
0.0,5.0,0.5,1.0,6.0,6.0,831.3245018944144,2.0,1.0,phase_2,go,500.0,400.0,1.0,,,,,,,,,white,triangle
0.0,1.0,0.5,0.0,5.0,5.0,640.8881649840623,2.0,1.0,phase_2,go,500.0,400.0,1.0,,,,,,,,,yellow,square
0.0,7.0,2.0,1.0,5.0,5.0,449.013328878209,2.0,1.0,phase_2,stop,500.0,400.0,3.0,,,,,,,,,gray,hexagon
0.0,5.0,0.5,1.0,6.0,0.0,0.0,2.0,1.0,phase_2,stop,450.0,400.0,4.0,,,,,,,,,white,triangle
0.0,3.0,2.0,0.0,6.0,6.0,554.5425398740917,2.0,1.0,phase_2,go,450.0,450.0,1.0,,,,,,,,,magenta,I
0.0,5.0,0.5,1.0,6.0,6.0,551.5315439552069,2.0,1.0,phase_2,stop,450.0,450.0,3.0,,,,,,,,,white,triangle
0.0,2.0,1.0,0.0,6.0,6.0,814.0291140880436,2.0,1.0,phase_2,go,450.0,400.0,1.0,,,,,,,,,cyan,flipped triangle
0.0,7.0,2.0,1.0,6.0,6.0,847.8258668910712,2.0,1.0,phase_2,go,450.0,400.0,1.0,,,,,,,,,gray,hexagon
0.0,3.0,2.0,0.0,5.0,5.0,704.2776071466506,2.0,1.0,phase_2,go,450.0,400.0,1.0,,,,,,,,,magenta,I
0.0,5.0,0.5,1.0,5.0,0.0,0.0,3.0,1.0,phase_2,stop,450.0,400.0,4.0,,,,,,,,,white,triangle
0.0,8.0,4.0,1.0,5.0,5.0,655.9653452131897,3.0,1.0,phase_2,stop,500.0,400.0,3.0,,,,,,,,,blue,circle
0.0,2.0,1.0,0.0,5.0,5.0,664.1877209767699,3.0,1.0,phase_2,go,450.0,400.0,1.0,,,,,,,,,cyan,flipped triangle
0.0,3.0,2.0,0.0,6.0,6.0,770.2052148524672,3.0,1.0,phase_2,go,450.0,400.0,1.0,,,,,,,,,magenta,I
0.0,5.0,0.5,1.0,6.0,6.0,578.8163139950484,3.0,1.0,phase_2,go,450.0,400.0,1.0,,,,,,,,,white,triangle
0.0,7.0,2.0,1.0,5.0,0.0,0.0,3.0,1.0,phase_2,stop,450.0,400.0,4.0,,,,,,,,,gray,hexagon
0.0,1.0,0.5,0.0,5.0,5.0,656.8097278941423,3.0,1.0,phase_2,go,500.0,400.0,1.0,,,,,,,,,yellow,square
0.0,7.0,2.0,1.0,6.0,6.0,804.135061101988,3.0,1.0,phase_2,go,500.0,400.0,1.0,,,,,,,,,gray,hexagon
0.0,2.0,1.0,0.0,5.0,5.0,727.497735992074,3.0,1.0,phase_2,go,500.0,400.0,1.0,,,,,,,,,cyan,flipped triangle
0.0,5.0,0.5,1.0,5.0,5.0,583.3481720183045,3.0,1.0,phase_2,stop,500.0,400.0,3.0,,,,,,,,,white,triangle
0.0,6.0,1.0,1.0,5.0,5.0,884.6988941077143,3.0,1.0,phase_2,go,450.0,400.0,1.0,,,,,,,,,green,diamond
0.0,3.0,2.0,0.0,5.0,5.0,900.4174040164798,3.0,1.0,phase_2,go,450.0,400.0,1.0,,,,,,,,,magenta,I
0.0,4.0,4.0,0.0,6.0,6.0,1000.8378380443901,3.0,1.0,phase_2,go,450.0,400.0,1.0,,,,,,,,,orange,cross
0.0,8.0,4.0,1.0,6.0,0.0,0.0,3.0,1.0,phase_2,stop,450.0,400.0,4.0,,,,,,,,,blue,circle
0.0,7.0,2.0,1.0,6.0,0.0,0.0,3.0,1.0,phase_2,stop,450.0,450.0,4.0,,,,,,,,,gray,hexagon
0.0,2.0,1.0,0.0,5.0,5.0,810.2912120521069,3.0,1.0,phase_2,go,450.0,500.0,1.0,,,,,,,,,cyan,flipped triangle
0.0,7.0,2.0,1.0,6.0,6.0,937.374443979934,3.0,1.0,phase_2,go,450.0,500.0,1.0,,,,,,,,,gray,hexagon
0.0,8.0,4.0,1.0,5.0,5.0,770.1930229086429,3.0,1.0,phase_2,go,450.0,500.0,1.0,,,,,,,,,blue,circle
0.0,2.0,1.0,0.0,6.0,6.0,690.0237761437893,3.0,1.0,phase_2,go,450.0,500.0,1.0,,,,,,,,,cyan,flipped triangle
0.0,5.0,0.5,1.0,5.0,5.0,569.7743659839034,3.0,1.0,phase_2,stop,450.0,500.0,3.0,,,,,,,,,white,triangle
0.0,6.0,1.0,1.0,5.0,5.0,649.7182308230549,3.0,1.0,phase_2,go,400.0,500.0,1.0,,,,,,,,,green,diamond
0.0,6.0,1.0,1.0,6.0,6.0,639.5095330663025,3.0,1.0,phase_2,go,400.0,500.0,1.0,,,,,,,,,green,diamond
0.0,1.0,0.5,0.0,6.0,6.0,718.0651440285146,3.0,1.0,phase_2,go,400.0,500.0,1.0,,,,,,,,,yellow,square
0.0,7.0,2.0,1.0,6.0,0.0,0.0,3.0,1.0,phase_2,stop,400.0,500.0,4.0,,,,,,,,,gray,hexagon
0.0,8.0,4.0,1.0,5.0,5.0,536.9577938690782,3.0,1.0,phase_2,stop,400.0,550.0,3.0,,,,,,,,,blue,circle
0.0,4.0,4.0,0.0,6.0,6.0,874.9891049228609,3.0,1.0,phase_2,go,350.0,550.0,1.0,,,,,,,,,orange,cross
0.0,6.0,1.0,1.0,5.0,5.0,957.4158068280668,3.0,1.0,phase_2,go,350.0,550.0,1.0,,,,,,,,,green,diamond
0.0,6.0,1.0,1.0,6.0,0.0,0.0,3.0,1.0,phase_2,stop,350.0,550.0,4.0,,,,,,,,,green,diamond
0.0,8.0,4.0,1.0,6.0,6.0,834.8903388250619,3.0,1.0,phase_2,go,350.0,600.0,1.0,,,,,,,,,blue,circle
0.0,4.0,4.0,0.0,5.0,5.0,892.7555088885128,3.0,1.0,phase_2,go,350.0,600.0,1.0,,,,,,,,,orange,cross
0.0,4.0,4.0,0.0,6.0,6.0,824.41052980721,3.0,1.0,phase_2,go,350.0,600.0,1.0,,,,,,,,,orange,cross
0.0,5.0,0.5,1.0,6.0,0.0,0.0,3.0,1.0,phase_2,stop,350.0,600.0,4.0,,,,,,,,,white,triangle
0.0,3.0,2.0,0.0,6.0,6.0,871.9496871344745,3.0,1.0,phase_2,go,350.0,650.0,1.0,,,,,,,,,magenta,I
0.0,4.0,4.0,0.0,5.0,5.0,411.9718410074711,3.0,1.0,phase_2,go,350.0,650.0,1.0,,,,,,,,,orange,cross
0.0,1.0,0.5,0.0,5.0,5.0,669.5299069397151,3.0,1.0,phase_2,go,350.0,650.0,1.0,,,,,,,,,yellow,square
0.0,4.0,4.0,0.0,6.0,6.0,513.6994449421763,3.0,1.0,phase_2,go,350.0,650.0,1.0,,,,,,,,,orange,cross
0.0,7.0,2.0,1.0,5.0,5.0,415.0641430169344,4.0,1.0,phase_2,stop,350.0,650.0,3.0,,,,,,,,,gray,hexagon
0.0,3.0,2.0,0.0,6.0,6.0,400.4275999031961,4.0,1.0,phase_2,go,300.0,650.0,1.0,,,,,,,,,magenta,I
0.0,4.0,4.0,0.0,6.0,6.0,402.0254039205611,4.0,1.0,phase_2,go,300.0,650.0,1.0,,,,,,,,,orange,cross
0.0,7.0,2.0,1.0,5.0,5.0,417.048831935972,4.0,1.0,phase_2,stop,300.0,650.0,3.0,,,,,,,,,gray,hexagon
0.0,8.0,4.0,1.0,6.0,0.0,0.0,4.0,1.0,phase_2,stop,250.0,650.0,4.0,,,,,,,,,blue,circle
0.0,8.0,4.0,1.0,6.0,6.0,606.4880369231105,4.0,1.0,phase_2,stop,250.0,700.0,3.0,,,,,,,,,blue,circle
0.0,3.0,2.0,0.0,5.0,5.0,438.6122080031782,4.0,1.0,phase_2,go,250.0,650.0,1.0,,,,,,,,,magenta,I
0.0,5.0,0.5,1.0,5.0,0.0,0.0,4.0,1.0,phase_2,stop,250.0,650.0,4.0,,,,,,,,,white,triangle
0.0,8.0,4.0,1.0,5.0,5.0,398.374947020784,4.0,1.0,phase_2,stop,300.0,650.0,3.0,,,,,,,,,blue,circle
0.0,8.0,4.0,1.0,5.0,0.0,0.0,4.0,1.0,phase_2,stop,250.0,650.0,4.0,,,,,,,,,blue,circle
0.0,2.0,1.0,0.0,5.0,5.0,375.8399749640375,4.0,1.0,phase_2,go,300.0,650.0,1.0,,,,,,,,,cyan,flipped triangle
0.0,4.0,4.0,0.0,5.0,5.0,456.0467978008091,4.0,1.0,phase_2,go,300.0,650.0,1.0,,,,,,,,,orange,cross
0.0,4.0,4.0,0.0,6.0,6.0,964.0786291565746,4.0,1.0,phase_2,go,300.0,650.0,1.0,,,,,,,,,orange,cross
0.0,7.0,2.0,1.0,5.0,5.0,345.5309611745178,4.0,1.0,phase_2,stop,300.0,650.0,3.0,,,,,,,,,gray,hexagon
0.0,1.0,0.5,0.0,5.0,5.0,400.4102579783648,4.0,1.0,phase_2,go,250.0,650.0,1.0,,,,,,,,,yellow,square
0.0,8.0,4.0,1.0,5.0,0.0,0.0,4.0,1.0,phase_2,stop,250.0,650.0,4.0,,,,,,,,,blue,circle
0.0,7.0,2.0,1.0,6.0,6.0,641.422935994342,4.0,1.0,phase_2,stop,300.0,650.0,3.0,,,,,,,,,gray,hexagon
0.0,2.0,1.0,0.0,5.0,5.0,886.7781211156398,4.0,1.0,phase_2,go,300.0,600.0,1.0,,,,,,,,,cyan,flipped triangle
0.0,7.0,2.0,1.0,5.0,5.0,360.6683190446347,4.0,1.0,phase_2,stop,300.0,600.0,3.0,,,,,,,,,gray,hexagon
0.0,4.0,4.0,0.0,6.0,6.0,486.248318105936,4.0,1.0,phase_2,go,250.0,600.0,1.0,,,,,,,,,orange,cross
0.0,2.0,1.0,0.0,5.0,5.0,520.530034089461,4.0,1.0,phase_2,go,250.0,600.0,1.0,,,,,,,,,cyan,flipped triangle
0.0,3.0,2.0,0.0,5.0,5.0,644.1670139320195,4.0,1.0,phase_2,go,250.0,600.0,1.0,,,,,,,,,magenta,I
0.0,4.0,4.0,0.0,6.0,6.0,294.1336000803858,4.0,1.0,phase_2,go,250.0,600.0,1.0,,,,,,,,,orange,cross
0.0,1.0,0.5,0.0,6.0,6.0,1184.9166578613222,4.0,1.0,phase_2,go,250.0,600.0,1.0,,,,,,,,,yellow,square
0.0,1.0,0.5,0.0,6.0,6.0,297.4099579732865,4.0,1.0,phase_2,go,250.0,600.0,1.0,,,,,,,,,yellow,square
0.0,1.0,0.5,0.0,6.0,6.0,422.5571858696639,4.0,1.0,phase_2,go,250.0,600.0,1.0,,,,,,,,,yellow,square
0.0,5.0,0.5,1.0,6.0,6.0,367.2718331217766,4.0,1.0,phase_2,stop,250.0,600.0,3.0,,,,,,,,,white,triangle
0.0,7.0,2.0,1.0,5.0,0.0,0.0,4.0,1.0,phase_2,stop,250.0,550.0,4.0,,,,,,,,,gray,hexagon
0.0,1.0,0.5,0.0,6.0,6.0,467.9325460456311,4.0,1.0,phase_2,go,300.0,550.0,1.0,,,,,,,,,yellow,square
0.0,5.0,0.5,1.0,5.0,0.0,0.0,4.0,1.0,phase_2,stop,300.0,550.0,4.0,,,,,,,,,white,triangle
0.0,4.0,4.0,0.0,5.0,5.0,852.0730999298394,4.0,1.0,phase_2,go,350.0,550.0,1.0,,,,,,,,,orange,cross
0.0,5.0,0.5,1.0,5.0,5.0,305.3700760938227,4.0,1.0,phase_2,go,350.0,550.0,1.0,,,,,,,,,white,triangle
0.0,6.0,1.0,1.0,6.0,6.0,396.961651975289,4.0,1.0,phase_2,stop,350.0,550.0,3.0,,,,,,,,,green,diamond
0.0,5.0,0.5,1.0,6.0,6.0,295.3101710882038,4.0,1.0,phase_2,stop,350.0,500.0,3.0,,,,,,,,,white,triangle
0.0,5.0,0.5,1.0,5.0,5.0,304.3772941455245,4.0,1.0,phase_2,stop,350.0,450.0,3.0,,,,,,,,,white,triangle
0.0,4.0,4.0,0.0,5.0,5.0,520.8261811640114,4.0,1.0,phase_2,go,300.0,450.0,1.0,,,,,,,,,orange,cross
0.0,6.0,1.0,1.0,5.0,5.0,554.6573388855904,5.0,1.0,phase_2,go,300.0,450.0,1.0,,,,,,,,,green,diamond
0.0,2.0,1.0,0.0,6.0,6.0,401.9459281116724,5.0,1.0,phase_2,go,300.0,450.0,1.0,,,,,,,,,cyan,flipped triangle
0.0,7.0,2.0,1.0,5.0,5.0,413.9715968631208,5.0,1.0,phase_2,stop,300.0,450.0,3.0,,,,,,,,,gray,hexagon
0.0,2.0,1.0,0.0,5.0,5.0,434.4239579513669,5.0,1.0,phase_2,go,250.0,450.0,1.0,,,,,,,,,cyan,flipped triangle
0.0,1.0,0.5,0.0,5.0,5.0,491.103305015713,5.0,1.0,phase_2,go,250.0,450.0,1.0,,,,,,,,,yellow,square
0.0,1.0,0.5,0.0,5.0,5.0,380.2458678837865,5.0,1.0,phase_2,go,250.0,450.0,1.0,,,,,,,,,yellow,square
0.0,2.0,1.0,0.0,5.0,5.0,448.4611658845097,5.0,1.0,phase_2,go,250.0,450.0,1.0,,,,,,,,,cyan,flipped triangle
0.0,2.0,1.0,0.0,6.0,6.0,303.9649440906942,5.0,1.0,phase_2,go,250.0,450.0,1.0,,,,,,,,,cyan,flipped triangle
0.0,1.0,0.5,0.0,6.0,6.0,418.7824339605868,5.0,1.0,phase_2,go,250.0,450.0,1.0,,,,,,,,,yellow,square
0.0,8.0,4.0,1.0,6.0,6.0,551.8961949273944,5.0,1.0,phase_2,go,250.0,450.0,1.0,,,,,,,,,blue,circle
0.0,6.0,1.0,1.0,6.0,6.0,510.21590013988316,5.0,1.0,phase_2,stop,250.0,450.0,3.0,,,,,,,,,green,diamond
0.0,1.0,0.5,0.0,5.0,5.0,520.3835591673851,5.0,1.0,phase_2,go,250.0,400.0,1.0,,,,,,,,,yellow,square
0.0,1.0,0.5,0.0,6.0,6.0,318.5909921303391,5.0,1.0,phase_2,go,250.0,400.0,1.0,,,,,,,,,yellow,square
0.0,7.0,2.0,1.0,6.0,6.0,389.9290410336107,5.0,1.0,phase_2,stop,250.0,400.0,3.0,,,,,,,,,gray,hexagon
0.0,7.0,2.0,1.0,5.0,5.0,446.7969820834696,5.0,1.0,phase_2,go,250.0,350.0,1.0,,,,,,,,,gray,hexagon
0.0,2.0,1.0,0.0,5.0,5.0,527.7048680000007,5.0,1.0,phase_2,go,250.0,350.0,1.0,,,,,,,,,cyan,flipped triangle
0.0,2.0,1.0,0.0,6.0,6.0,402.9273109044879,5.0,1.0,phase_2,go,250.0,350.0,1.0,,,,,,,,,cyan,flipped triangle
0.0,4.0,4.0,0.0,5.0,5.0,416.6276878677308,5.0,1.0,phase_2,go,250.0,350.0,1.0,,,,,,,,,orange,cross
0.0,1.0,0.5,0.0,6.0,6.0,312.854227842763,5.0,1.0,phase_2,go,250.0,350.0,1.0,,,,,,,,,yellow,square
0.0,5.0,0.5,1.0,6.0,6.0,405.871523078531,5.0,1.0,phase_2,go,250.0,350.0,1.0,,,,,,,,,white,triangle
0.0,8.0,4.0,1.0,5.0,0.0,0.0,5.0,1.0,phase_2,stop,250.0,350.0,4.0,,,,,,,,,blue,circle
0.0,3.0,2.0,0.0,5.0,5.0,574.609398143366,5.0,1.0,phase_2,go,300.0,350.0,1.0,,,,,,,,,magenta,I
0.0,1.0,0.5,0.0,5.0,5.0,599.7365098446608,5.0,1.0,phase_2,go,300.0,350.0,1.0,,,,,,,,,yellow,square
0.0,2.0,1.0,0.0,5.0,5.0,644.2065541632473,5.0,1.0,phase_2,go,300.0,350.0,1.0,,,,,,,,,cyan,flipped triangle
0.0,5.0,0.5,1.0,6.0,0.0,0.0,5.0,1.0,phase_2,stop,300.0,350.0,4.0,,,,,,,,,white,triangle
0.0,4.0,4.0,0.0,5.0,5.0,509.9196538794786,5.0,1.0,phase_2,go,300.0,400.0,1.0,,,,,,,,,orange,cross
0.0,3.0,2.0,0.0,5.0,5.0,580.7337600272149,5.0,1.0,phase_2,go,300.0,400.0,1.0,,,,,,,,,magenta,I
0.0,2.0,1.0,0.0,6.0,6.0,444.2392608616501,5.0,1.0,phase_2,go,300.0,400.0,1.0,,,,,,,,,cyan,flipped triangle
0.0,7.0,2.0,1.0,6.0,6.0,493.1498300284147,5.0,1.0,phase_2,stop,300.0,400.0,3.0,,,,,,,,,gray,hexagon
0.0,1.0,0.5,0.0,6.0,6.0,987.3801749199628,5.0,1.0,phase_2,go,300.0,350.0,1.0,,,,,,,,,yellow,square
0.0,4.0,4.0,0.0,6.0,6.0,505.6145479902625,5.0,1.0,phase_2,go,300.0,350.0,1.0,,,,,,,,,orange,cross
0.0,1.0,0.5,0.0,6.0,6.0,447.0772030763328,5.0,1.0,phase_2,go,300.0,350.0,1.0,,,,,,,,,yellow,square
0.0,1.0,0.5,0.0,5.0,5.0,475.1491120550781,5.0,1.0,phase_2,go,300.0,350.0,1.0,,,,,,,,,yellow,square
0.0,8.0,4.0,1.0,6.0,6.0,520.6244748551399,5.0,1.0,phase_2,go,300.0,350.0,1.0,,,,,,,,,blue,circle
0.0,5.0,0.5,1.0,6.0,6.0,507.08375801332295,5.0,1.0,phase_2,go,300.0,350.0,1.0,,,,,,,,,white,triangle
0.0,7.0,2.0,1.0,5.0,5.0,417.213968001306,5.0,1.0,phase_2,stop,300.0,350.0,3.0,,,,,,,,,gray,hexagon
0.0,2.0,1.0,0.0,6.0,6.0,325.8293650578707,6.0,1.0,phase_2,go,250.0,350.0,1.0,,,,,,,,,cyan,flipped triangle
0.0,2.0,1.0,0.0,6.0,6.0,428.2655341085046,6.0,1.0,phase_2,go,250.0,350.0,1.0,,,,,,,,,cyan,flipped triangle
0.0,1.0,0.5,0.0,5.0,5.0,471.7071210034191,6.0,1.0,phase_2,go,250.0,350.0,1.0,,,,,,,,,yellow,square
0.0,8.0,4.0,1.0,5.0,0.0,0.0,6.0,1.0,phase_2,stop,250.0,350.0,4.0,,,,,,,,,blue,circle
0.0,2.0,1.0,0.0,6.0,6.0,509.7966918256134,6.0,1.0,phase_2,go,300.0,350.0,1.0,,,,,,,,,cyan,flipped triangle
0.0,4.0,4.0,0.0,6.0,6.0,646.7419438995421,6.0,1.0,phase_2,go,300.0,350.0,1.0,,,,,,,,,orange,cross
0.0,7.0,2.0,1.0,5.0,0.0,0.0,6.0,1.0,phase_2,stop,300.0,350.0,4.0,,,,,,,,,gray,hexagon
0.0,8.0,4.0,1.0,6.0,6.0,499.9726309906691,6.0,1.0,phase_2,stop,350.0,350.0,3.0,,,,,,,,,blue,circle
0.0,3.0,2.0,0.0,6.0,6.0,919.9471459724008,6.0,1.0,phase_2,go,350.0,300.0,1.0,,,,,,,,,magenta,I
0.0,3.0,2.0,0.0,6.0,6.0,661.3660240545869,6.0,1.0,phase_2,go,350.0,300.0,1.0,,,,,,,,,magenta,I
0.0,5.0,0.5,1.0,5.0,0.0,0.0,6.0,1.0,phase_2,stop,350.0,300.0,4.0,,,,,,,,,white,triangle
0.0,6.0,1.0,1.0,6.0,0.0,0.0,6.0,1.0,phase_2,stop,400.0,300.0,4.0,,,,,,,,,green,diamond
0.0,6.0,1.0,1.0,6.0,6.0,829.6656000893563,6.0,1.0,phase_2,go,400.0,350.0,1.0,,,,,,,,,green,diamond
0.0,2.0,1.0,0.0,6.0,6.0,573.7026329152286,6.0,1.0,phase_2,go,400.0,350.0,1.0,,,,,,,,,cyan,flipped triangle
0.0,3.0,2.0,0.0,5.0,5.0,539.6653569769114,6.0,1.0,phase_2,go,400.0,350.0,1.0,,,,,,,,,magenta,I
0.0,2.0,1.0,0.0,6.0,6.0,462.003624998033,6.0,1.0,phase_2,go,400.0,350.0,1.0,,,,,,,,,cyan,flipped triangle
0.0,4.0,4.0,0.0,5.0,5.0,473.3797661028802,6.0,1.0,phase_2,go,400.0,350.0,1.0,,,,,,,,,orange,cross
0.0,6.0,1.0,1.0,5.0,5.0,439.2112120985985,6.0,1.0,phase_2,stop,400.0,350.0,3.0,,,,,,,,,green,diamond
0.0,8.0,4.0,1.0,5.0,0.0,0.0,6.0,1.0,phase_2,stop,350.0,350.0,4.0,,,,,,,,,blue,circle
0.0,2.0,1.0,0.0,5.0,5.0,488.1013110280037,6.0,1.0,phase_2,go,400.0,350.0,1.0,,,,,,,,,cyan,flipped triangle
0.0,7.0,2.0,1.0,6.0,0.0,0.0,6.0,1.0,phase_2,stop,400.0,350.0,4.0,,,,,,,,,gray,hexagon
0.0,5.0,0.5,1.0,5.0,0.0,0.0,6.0,1.0,phase_2,stop,400.0,400.0,4.0,,,,,,,,,white,triangle
0.0,4.0,4.0,0.0,5.0,5.0,456.8392301443964,6.0,1.0,phase_2,go,450.0,400.0,1.0,,,,,,,,,orange,cross
0.0,3.0,2.0,0.0,6.0,6.0,512.2404340654612,6.0,1.0,phase_2,go,450.0,400.0,1.0,,,,,,,,,magenta,I
0.0,3.0,2.0,0.0,6.0,6.0,524.4341818615794,6.0,1.0,phase_2,go,450.0,400.0,1.0,,,,,,,,,magenta,I
0.0,4.0,4.0,0.0,6.0,6.0,514.323728857562,6.0,1.0,phase_2,go,450.0,400.0,1.0,,,,,,,,,orange,cross
0.0,4.0,4.0,0.0,6.0,6.0,483.75489190220827,6.0,1.0,phase_2,go,450.0,400.0,1.0,,,,,,,,,orange,cross
0.0,8.0,4.0,1.0,6.0,6.0,335.6004341039806,6.0,1.0,phase_2,stop,450.0,400.0,3.0,,,,,,,,,blue,circle
0.0,8.0,4.0,1.0,5.0,5.0,549.3568880483508,6.0,1.0,phase_2,stop,450.0,350.0,3.0,,,,,,,,,blue,circle
0.0,3.0,2.0,0.0,5.0,5.0,655.7087851688266,6.0,1.0,phase_2,go,400.0,350.0,1.0,,,,,,,,,magenta,I
0.0,4.0,4.0,0.0,5.0,5.0,555.2449091337621,6.0,1.0,phase_2,go,400.0,350.0,1.0,,,,,,,,,orange,cross
0.0,8.0,4.0,1.0,5.0,0.0,0.0,6.0,1.0,phase_2,stop,400.0,350.0,4.0,,,,,,,,,blue,circle
0.0,6.0,1.0,1.0,5.0,5.0,465.2332039549947,6.0,1.0,phase_2,go,450.0,350.0,1.0,,,,,,,,,green,diamond
0.0,7.0,2.0,1.0,6.0,6.0,522.5373171269894,6.0,1.0,phase_2,stop,450.0,350.0,3.0,,,,,,,,,gray,hexagon
0.0,2.0,1.0,0.0,6.0,6.0,579.5546981971711,6.0,1.0,phase_2,go,450.0,300.0,1.0,,,,,,,,,cyan,flipped triangle
0.0,1.0,0.5,0.0,5.0,5.0,907.8576141037048,6.0,1.0,phase_2,go,450.0,300.0,1.0,,,,,,,,,yellow,square
0.0,8.0,4.0,1.0,6.0,0.0,0.0,7.0,1.0,phase_2,stop,450.0,300.0,4.0,,,,,,,,,blue,circle
0.0,4.0,4.0,0.0,5.0,5.0,510.6699778698385,7.0,1.0,phase_2,go,450.0,350.0,1.0,,,,,,,,,orange,cross
0.0,5.0,0.5,1.0,5.0,5.0,592.0041219796985,7.0,1.0,phase_2,stop,450.0,350.0,3.0,,,,,,,,,white,triangle
0.0,5.0,0.5,1.0,6.0,0.0,0.0,7.0,1.0,phase_2,stop,400.0,350.0,4.0,,,,,,,,,white,triangle
0.0,6.0,1.0,1.0,5.0,5.0,500.92638889327645,7.0,1.0,phase_2,stop,400.0,400.0,3.0,,,,,,,,,green,diamond
0.0,3.0,2.0,0.0,6.0,6.0,505.3888310212642,7.0,1.0,phase_2,go,350.0,400.0,1.0,,,,,,,,,magenta,I
0.0,7.0,2.0,1.0,6.0,6.0,829.177516978234,7.0,1.0,phase_2,go,350.0,400.0,1.0,,,,,,,,,gray,hexagon
0.0,7.0,2.0,1.0,6.0,0.0,0.0,7.0,1.0,phase_2,stop,350.0,400.0,4.0,,,,,,,,,gray,hexagon
0.0,8.0,4.0,1.0,6.0,0.0,0.0,7.0,1.0,phase_2,stop,350.0,450.0,4.0,,,,,,,,,blue,circle
0.0,7.0,2.0,1.0,5.0,5.0,778.8406941108406,7.0,1.0,phase_2,go,350.0,500.0,1.0,,,,,,,,,gray,hexagon
0.0,2.0,1.0,0.0,5.0,5.0,508.19741003215313,7.0,1.0,phase_2,go,350.0,500.0,1.0,,,,,,,,,cyan,flipped triangle
0.0,6.0,1.0,1.0,6.0,6.0,642.1034468803555,7.0,1.0,phase_2,stop,350.0,500.0,3.0,,,,,,,,,green,diamond
0.0,5.0,0.5,1.0,6.0,0.0,0.0,7.0,1.0,phase_2,stop,350.0,450.0,4.0,,,,,,,,,white,triangle
0.0,2.0,1.0,0.0,5.0,5.0,575.7617179770023,7.0,1.0,phase_2,go,350.0,500.0,1.0,,,,,,,,,cyan,flipped triangle
0.0,8.0,4.0,1.0,6.0,0.0,0.0,7.0,1.0,phase_2,stop,350.0,500.0,4.0,,,,,,,,,blue,circle
0.0,2.0,1.0,0.0,5.0,5.0,694.1775160375983,7.0,1.0,phase_2,go,350.0,550.0,1.0,,,,,,,,,cyan,flipped triangle
0.0,5.0,0.5,1.0,5.0,0.0,0.0,7.0,1.0,phase_2,stop,350.0,550.0,4.0,,,,,,,,,white,triangle
0.0,1.0,0.5,0.0,6.0,6.0,658.7473519612104,7.0,1.0,phase_2,go,400.0,550.0,1.0,,,,,,,,,yellow,square
0.0,7.0,2.0,1.0,6.0,0.0,0.0,7.0,1.0,phase_2,stop,400.0,550.0,4.0,,,,,,,,,gray,hexagon
0.0,3.0,2.0,0.0,6.0,6.0,584.8690299317241,7.0,1.0,phase_2,go,400.0,600.0,1.0,,,,,,,,,magenta,I
0.0,2.0,1.0,0.0,6.0,6.0,732.308188918978,7.0,1.0,phase_2,go,400.0,600.0,1.0,,,,,,,,,cyan,flipped triangle
0.0,1.0,0.5,0.0,6.0,6.0,575.4359709098935,7.0,1.0,phase_2,go,400.0,600.0,1.0,,,,,,,,,yellow,square
0.0,5.0,0.5,1.0,6.0,0.0,0.0,7.0,1.0,phase_2,stop,400.0,600.0,4.0,,,,,,,,,white,triangle
0.0,2.0,1.0,0.0,6.0,6.0,697.3459259606898,7.0,1.0,phase_2,go,400.0,650.0,1.0,,,,,,,,,cyan,flipped triangle
0.0,7.0,2.0,1.0,5.0,0.0,0.0,7.0,1.0,phase_2,stop,400.0,650.0,4.0,,,,,,,,,gray,hexagon
0.0,7.0,2.0,1.0,5.0,0.0,0.0,7.0,1.0,phase_2,stop,450.0,650.0,4.0,,,,,,,,,gray,hexagon
0.0,3.0,2.0,0.0,6.0,6.0,523.2061420101672,7.0,1.0,phase_2,go,500.0,650.0,1.0,,,,,,,,,magenta,I
0.0,8.0,4.0,1.0,6.0,0.0,0.0,7.0,1.0,phase_2,stop,500.0,650.0,4.0,,,,,,,,,blue,circle
0.0,3.0,2.0,0.0,5.0,5.0,604.2107499670237,7.0,1.0,phase_2,go,500.0,700.0,1.0,,,,,,,,,magenta,I
0.0,7.0,2.0,1.0,5.0,5.0,974.4042980019004,7.0,1.0,phase_2,go,500.0,700.0,1.0,,,,,,,,,gray,hexagon
0.0,4.0,4.0,0.0,5.0,5.0,505.29162981547415,7.0,1.0,phase_2,go,500.0,700.0,1.0,,,,,,,,,orange,cross
0.0,5.0,0.5,1.0,6.0,6.0,997.019741917029,7.0,1.0,phase_2,go,500.0,700.0,1.0,,,,,,,,,white,triangle
0.0,2.0,1.0,0.0,5.0,5.0,496.0533608682453,7.0,1.0,phase_2,go,500.0,700.0,1.0,,,,,,,,,cyan,flipped triangle
0.0,8.0,4.0,1.0,5.0,5.0,684.0839711949229,7.0,1.0,phase_2,go,500.0,700.0,1.0,,,,,,,,,blue,circle
0.0,1.0,0.5,0.0,5.0,5.0,486.2513889092952,7.0,1.0,phase_2,go,500.0,700.0,1.0,,,,,,,,,yellow,square
0.0,5.0,0.5,1.0,6.0,6.0,520.45819000341,7.0,1.0,phase_2,stop,500.0,700.0,3.0,,,,,,,,,white,triangle
0.0,4.0,4.0,0.0,6.0,6.0,441.0120320972055,8.0,1.0,phase_2,go,500.0,650.0,1.0,,,,,,,,,orange,cross
0.0,3.0,2.0,0.0,5.0,5.0,532.7214829158038,8.0,1.0,phase_2,go,500.0,650.0,1.0,,,,,,,,,magenta,I
0.0,3.0,2.0,0.0,6.0,6.0,462.8970720805228,8.0,1.0,phase_2,go,500.0,650.0,1.0,,,,,,,,,magenta,I
0.0,2.0,1.0,0.0,5.0,5.0,432.2202270850539,8.0,1.0,phase_2,go,500.0,650.0,1.0,,,,,,,,,cyan,flipped triangle
0.0,5.0,0.5,1.0,6.0,6.0,531.7094640340656,8.0,1.0,phase_2,stop,500.0,650.0,3.0,,,,,,,,,white,triangle
0.0,4.0,4.0,0.0,5.0,5.0,423.1949199456721,8.0,1.0,phase_2,go,500.0,600.0,1.0,,,,,,,,,orange,cross
0.0,1.0,0.5,0.0,5.0,5.0,560.226125176996,8.0,1.0,phase_2,go,500.0,600.0,1.0,,,,,,,,,yellow,square
0.0,6.0,1.0,1.0,5.0,5.0,591.0424080211669,8.0,1.0,phase_2,stop,500.0,600.0,3.0,,,,,,,,,green,diamond
0.0,7.0,2.0,1.0,6.0,6.0,660.5203109793365,8.0,1.0,phase_2,stop,450.0,600.0,3.0,,,,,,,,,gray,hexagon
0.0,4.0,4.0,0.0,5.0,5.0,661.8813360109925,8.0,1.0,phase_2,go,450.0,550.0,1.0,,,,,,,,,orange,cross
0.0,3.0,2.0,0.0,6.0,6.0,561.8997670244426,8.0,1.0,phase_2,go,450.0,550.0,1.0,,,,,,,,,magenta,I
0.0,7.0,2.0,1.0,6.0,0.0,0.0,8.0,1.0,phase_2,stop,450.0,550.0,4.0,,,,,,,,,gray,hexagon
0.0,6.0,1.0,1.0,5.0,5.0,575.6862829439342,8.0,1.0,phase_2,stop,450.0,600.0,3.0,,,,,,,,,green,diamond
0.0,3.0,2.0,0.0,6.0,6.0,564.8620100691915,8.0,1.0,phase_2,go,400.0,600.0,1.0,,,,,,,,,magenta,I
0.0,7.0,2.0,1.0,5.0,0.0,0.0,8.0,1.0,phase_2,stop,400.0,600.0,4.0,,,,,,,,,gray,hexagon
0.0,2.0,1.0,0.0,6.0,6.0,587.944676168263,8.0,1.0,phase_2,go,450.0,600.0,1.0,,,,,,,,,cyan,flipped triangle
0.0,6.0,1.0,1.0,6.0,0.0,0.0,8.0,1.0,phase_2,stop,450.0,600.0,4.0,,,,,,,,,green,diamond
0.0,6.0,1.0,1.0,6.0,0.0,0.0,8.0,1.0,phase_2,stop,450.0,650.0,4.0,,,,,,,,,green,diamond
0.0,6.0,1.0,1.0,5.0,0.0,0.0,8.0,1.0,phase_2,stop,450.0,700.0,4.0,,,,,,,,,green,diamond
0.0,5.0,0.5,1.0,5.0,5.0,873.8929878454655,8.0,1.0,phase_2,go,500.0,700.0,1.0,,,,,,,,,white,triangle
0.0,3.0,2.0,0.0,6.0,6.0,493.5532151721418,8.0,1.0,phase_2,go,500.0,700.0,1.0,,,,,,,,,magenta,I
0.0,7.0,2.0,1.0,6.0,6.0,816.8685589917004,8.0,1.0,phase_2,stop,500.0,700.0,3.0,,,,,,,,,gray,hexagon
0.0,8.0,4.0,1.0,6.0,0.0,0.0,8.0,1.0,phase_2,stop,500.0,650.0,4.0,,,,,,,,,blue,circle
0.0,1.0,0.5,0.0,6.0,6.0,653.8747129961848,8.0,1.0,phase_2,go,500.0,700.0,1.0,,,,,,,,,yellow,square
0.0,6.0,1.0,1.0,5.0,0.0,0.0,8.0,1.0,phase_2,stop,500.0,700.0,4.0,,,,,,,,,green,diamond
0.0,3.0,2.0,0.0,5.0,5.0,497.1829080022871,8.0,1.0,phase_2,go,550.0,700.0,1.0,,,,,,,,,magenta,I
0.0,6.0,1.0,1.0,5.0,0.0,0.0,8.0,1.0,phase_2,stop,550.0,700.0,4.0,,,,,,,,,green,diamond
0.0,8.0,4.0,1.0,6.0,6.0,992.0230449642986,8.0,1.0,phase_2,go,600.0,700.0,1.0,,,,,,,,,blue,circle
0.0,3.0,2.0,0.0,6.0,6.0,488.3237378671765,8.0,1.0,phase_2,go,600.0,700.0,1.0,,,,,,,,,magenta,I
0.0,6.0,1.0,1.0,5.0,0.0,0.0,8.0,1.0,phase_2,stop,600.0,700.0,4.0,,,,,,,,,green,diamond
0.0,8.0,4.0,1.0,5.0,0.0,0.0,8.0,1.0,phase_2,stop,650.0,700.0,4.0,,,,,,,,,blue,circle
0.0,6.0,1.0,1.0,6.0,0.0,0.0,8.0,1.0,phase_2,stop,700.0,700.0,4.0,,,,,,,,,green,diamond
0.0,3.0,2.0,0.0,5.0,5.0,593.7233809381723,8.0,1.0,phase_2,go,700.0,750.0,1.0,,,,,,,,,magenta,I
0.0,6.0,1.0,1.0,6.0,6.0,1068.0608740076425,8.0,1.0,phase_2,go,700.0,750.0,1.0,,,,,,,,,green,diamond
0.0,1.0,0.5,0.0,6.0,6.0,741.5227401070297,8.0,1.0,phase_2,go,700.0,750.0,1.0,,,,,,,,,yellow,square
0.0,8.0,4.0,1.0,6.0,0.0,0.0,8.0,1.0,phase_2,stop,700.0,750.0,4.0,,,,,,,,,blue,circle
0.0,6.0,1.0,1.0,7.0,3.0,1418.7629881780597,1.0,1.0,phase_3,,,,,195.0,5.0,117.0,234.0,195.0,78.0,156.0,39.0,green,diamond
0.0,2.0,1.0,0.0,7.0,5.0,1622.3163830582052,1.0,1.0,phase_3,,,,,132.0,3.0,264.0,176.0,88.0,44.0,132.0,220.0,cyan,flipped triangle
0.0,1.0,0.5,0.0,7.0,5.0,3751.6129210125655,1.0,1.0,phase_3,,,,,196.0,4.0,98.0,147.0,294.0,245.0,196.0,49.0,yellow,square
0.0,2.0,1.0,0.0,7.0,6.0,3253.348698839545,1.0,1.0,phase_3,,,,,156.0,4.0,39.0,78.0,117.0,195.0,234.0,156.0,cyan,flipped triangle
0.0,8.0,4.0,1.0,7.0,5.0,2246.332312002778,1.0,1.0,phase_3,,,,,234.0,6.0,156.0,117.0,78.0,39.0,234.0,195.0,blue,circle
0.0,1.0,0.5,0.0,7.0,2.0,2042.176361195743,1.0,1.0,phase_3,,,,,54.0,1.0,324.0,54.0,216.0,108.0,270.0,162.0,yellow,square
0.0,2.0,1.0,0.0,7.0,4.0,2561.6307889577,1.0,1.0,phase_3,,,,,196.0,4.0,49.0,98.0,147.0,196.0,294.0,245.0,cyan,flipped triangle
0.0,6.0,1.0,1.0,7.0,3.0,1584.1690939851103,1.0,1.0,phase_3,,,,,294.0,6.0,98.0,196.0,294.0,245.0,147.0,49.0,green,diamond
0.0,6.0,1.0,1.0,7.0,2.0,2452.9464018996805,1.0,1.0,phase_3,,,,,68.0,2.0,170.0,68.0,34.0,102.0,204.0,136.0,green,diamond
0.0,3.0,2.0,0.0,7.0,3.0,2226.880863076076,1.0,1.0,phase_3,,,,,147.0,3.0,98.0,196.0,147.0,245.0,294.0,49.0,magenta,I
0.0,7.0,2.0,1.0,7.0,5.0,1215.193131007254,1.0,1.0,phase_3,,,,,39.0,1.0,156.0,78.0,234.0,195.0,39.0,117.0,gray,hexagon
0.0,8.0,4.0,1.0,7.0,5.0,1959.485129918903,1.0,1.0,phase_3,,,,,264.0,6.0,176.0,132.0,44.0,88.0,264.0,220.0,blue,circle
0.0,4.0,4.0,0.0,7.0,1.0,3051.1612019035965,1.0,1.0,phase_3,,,,,88.0,2.0,88.0,44.0,264.0,220.0,176.0,132.0,orange,cross
0.0,1.0,0.5,0.0,7.0,6.0,1050.076018087566,1.0,1.0,phase_3,,,,,156.0,4.0,195.0,117.0,78.0,39.0,234.0,156.0,yellow,square
0.0,3.0,2.0,0.0,7.0,5.0,3704.89481696859,1.0,1.0,phase_3,,,,,136.0,4.0,170.0,204.0,102.0,34.0,136.0,68.0,magenta,I
0.0,7.0,2.0,1.0,7.0,6.0,1221.185012953356,1.0,1.0,phase_3,,,,,54.0,1.0,216.0,270.0,324.0,108.0,162.0,54.0,gray,hexagon
0.0,4.0,4.0,0.0,7.0,5.0,3211.68942283839,1.0,1.0,phase_3,,,,,78.0,2.0,117.0,156.0,234.0,39.0,78.0,195.0,orange,cross
0.0,3.0,2.0,0.0,7.0,4.0,1346.1883089039477,1.0,1.0,phase_3,,,,,147.0,3.0,294.0,196.0,49.0,147.0,245.0,98.0,magenta,I
0.0,5.0,0.5,1.0,7.0,3.0,1484.3838210217657,1.0,1.0,phase_3,,,,,117.0,3.0,234.0,195.0,117.0,78.0,39.0,156.0,white,triangle
0.0,7.0,2.0,1.0,7.0,1.0,2295.5985609442,1.0,1.0,phase_3,,,,,49.0,1.0,49.0,98.0,196.0,147.0,294.0,245.0,gray,hexagon
0.0,4.0,4.0,0.0,7.0,1.0,2135.600150097161,2.0,1.0,phase_3,,,,,147.0,3.0,147.0,196.0,49.0,294.0,245.0,98.0,orange,cross
0.0,8.0,4.0,1.0,7.0,6.0,2045.868945773691,2.0,1.0,phase_3,,,,,294.0,6.0,196.0,98.0,49.0,245.0,147.0,294.0,blue,circle
0.0,2.0,1.0,0.0,7.0,2.0,1224.2000228725374,2.0,1.0,phase_3,,,,,162.0,3.0,216.0,162.0,270.0,108.0,54.0,324.0,cyan,flipped triangle
0.0,5.0,0.5,1.0,7.0,4.0,1340.8895388711244,2.0,1.0,phase_3,,,,,136.0,4.0,170.0,204.0,68.0,136.0,34.0,102.0,white,triangle
0.0,8.0,4.0,1.0,7.0,4.0,1993.852748069912,2.0,1.0,phase_3,,,,,294.0,6.0,245.0,196.0,98.0,294.0,147.0,49.0,blue,circle
0.0,3.0,2.0,0.0,7.0,4.0,2062.812048010528,2.0,1.0,phase_3,,,,,68.0,2.0,102.0,136.0,170.0,68.0,34.0,204.0,magenta,I
0.0,5.0,0.5,1.0,7.0,3.0,2379.5396210625768,2.0,1.0,phase_3,,,,,270.0,5.0,108.0,54.0,270.0,162.0,216.0,324.0,white,triangle
0.0,6.0,1.0,1.0,7.0,2.0,1165.3633750975132,2.0,1.0,phase_3,,,,,270.0,5.0,54.0,270.0,324.0,216.0,162.0,108.0,green,diamond
0.0,1.0,0.5,0.0,7.0,5.0,793.9607589505613,2.0,1.0,phase_3,,,,,102.0,3.0,136.0,34.0,204.0,68.0,102.0,170.0,yellow,square
0.0,5.0,0.5,1.0,7.0,3.0,2594.9632090050727,2.0,1.0,phase_3,,,,,176.0,4.0,132.0,44.0,176.0,88.0,264.0,220.0,white,triangle
0.0,1.0,0.5,0.0,7.0,4.0,2549.9452659860253,2.0,1.0,phase_3,,,,,162.0,3.0,108.0,216.0,54.0,162.0,324.0,270.0,yellow,square
0.0,3.0,2.0,0.0,7.0,5.0,1414.4366360269487,2.0,1.0,phase_3,,,,,39.0,1.0,234.0,195.0,117.0,156.0,39.0,78.0,magenta,I
0.0,2.0,1.0,0.0,7.0,2.0,2541.482102824375,2.0,1.0,phase_3,,,,,132.0,3.0,220.0,132.0,44.0,176.0,264.0,88.0,cyan,flipped triangle
0.0,6.0,1.0,1.0,7.0,4.0,3127.066113986075,2.0,1.0,phase_3,,,,,264.0,6.0,88.0,132.0,176.0,264.0,44.0,220.0,green,diamond
0.0,3.0,2.0,0.0,7.0,6.0,924.2771351709962,2.0,1.0,phase_3,,,,,162.0,3.0,108.0,270.0,216.0,324.0,54.0,162.0,magenta,I
0.0,1.0,0.5,0.0,7.0,2.0,1103.1734459102154,2.0,1.0,phase_3,,,,,170.0,5.0,136.0,170.0,34.0,68.0,102.0,204.0,yellow,square
0.0,2.0,1.0,0.0,7.0,5.0,869.6703128516674,2.0,1.0,phase_3,,,,,108.0,2.0,324.0,54.0,162.0,270.0,108.0,216.0,cyan,flipped triangle
0.0,4.0,4.0,0.0,7.0,3.0,2309.918927028775,2.0,1.0,phase_3,,,,,324.0,6.0,54.0,108.0,324.0,270.0,216.0,162.0,orange,cross
0.0,5.0,0.5,1.0,7.0,5.0,940.710284980014,2.0,1.0,phase_3,,,,,196.0,4.0,147.0,49.0,245.0,98.0,196.0,294.0,white,triangle
0.0,6.0,1.0,1.0,7.0,2.0,1221.889081876725,2.0,1.0,phase_3,,,,,102.0,3.0,170.0,102.0,68.0,136.0,34.0,204.0,green,diamond
0.0,8.0,4.0,1.0,7.0,3.0,1656.8810469470918,3.0,1.0,phase_3,,,,,204.0,6.0,136.0,170.0,204.0,68.0,34.0,102.0,blue,circle
0.0,8.0,4.0,1.0,7.0,1.0,1263.9340669848025,3.0,1.0,phase_3,,,,,264.0,6.0,264.0,44.0,132.0,176.0,88.0,220.0,blue,circle
0.0,4.0,4.0,0.0,7.0,3.0,2142.960038036108,3.0,1.0,phase_3,,,,,196.0,4.0,245.0,98.0,196.0,294.0,49.0,147.0,orange,cross
0.0,7.0,2.0,1.0,7.0,4.0,1311.7214569356292,3.0,1.0,phase_3,,,,,68.0,2.0,34.0,170.0,102.0,68.0,136.0,204.0,gray,hexagon
0.0,8.0,4.0,1.0,7.0,3.0,1402.7622940484434,3.0,1.0,phase_3,,,,,324.0,6.0,162.0,216.0,324.0,108.0,54.0,270.0,blue,circle
0.0,2.0,1.0,0.0,7.0,3.0,2256.7851410713047,3.0,1.0,phase_3,,,,,98.0,2.0,294.0,147.0,98.0,49.0,245.0,196.0,cyan,flipped triangle
0.0,4.0,4.0,0.0,7.0,5.0,842.0292760711163,3.0,1.0,phase_3,,,,,132.0,3.0,220.0,176.0,88.0,44.0,132.0,264.0,orange,cross
0.0,5.0,0.5,1.0,7.0,5.0,2676.9226719625294,3.0,1.0,phase_3,,,,,102.0,3.0,136.0,170.0,204.0,34.0,102.0,68.0,white,triangle
0.0,1.0,0.5,0.0,7.0,1.0,2169.532414060086,3.0,1.0,phase_3,,,,,98.0,2.0,98.0,147.0,294.0,196.0,245.0,49.0,yellow,square
0.0,6.0,1.0,1.0,7.0,5.0,1023.7436119932679,3.0,1.0,phase_3,,,,,324.0,6.0,54.0,216.0,162.0,108.0,324.0,270.0,green,diamond
0.0,3.0,2.0,0.0,7.0,5.0,1272.9566311463714,3.0,1.0,phase_3,,,,,88.0,2.0,132.0,264.0,220.0,176.0,88.0,44.0,magenta,I
0.0,4.0,4.0,0.0,7.0,3.0,1904.3929080944508,3.0,1.0,phase_3,,,,,78.0,2.0,234.0,39.0,78.0,156.0,117.0,195.0,orange,cross
0.0,5.0,0.5,1.0,7.0,2.0,1749.811841873452,3.0,1.0,phase_3,,,,,196.0,4.0,245.0,196.0,147.0,98.0,294.0,49.0,white,triangle
0.0,7.0,2.0,1.0,7.0,3.0,1523.038777988404,3.0,1.0,phase_3,,,,,156.0,4.0,78.0,39.0,156.0,117.0,195.0,234.0,gray,hexagon
0.0,3.0,2.0,0.0,7.0,4.0,1411.449208157137,3.0,1.0,phase_3,,,,,132.0,3.0,88.0,44.0,264.0,132.0,220.0,176.0,magenta,I
0.0,5.0,0.5,1.0,7.0,3.0,1528.2418578863144,3.0,1.0,phase_3,,,,,88.0,2.0,44.0,220.0,88.0,264.0,176.0,132.0,white,triangle
0.0,7.0,2.0,1.0,7.0,4.0,1323.8263980019838,3.0,1.0,phase_3,,,,,44.0,1.0,220.0,264.0,132.0,44.0,88.0,176.0,gray,hexagon
0.0,6.0,1.0,1.0,7.0,2.0,1843.1880129501224,3.0,1.0,phase_3,,,,,196.0,4.0,49.0,196.0,147.0,245.0,98.0,294.0,green,diamond
0.0,1.0,0.5,0.0,7.0,4.0,1125.8778211195022,3.0,1.0,phase_3,,,,,132.0,3.0,264.0,88.0,220.0,132.0,44.0,176.0,yellow,square
0.0,1.0,0.5,0.0,7.0,5.0,1551.9733829423783,3.0,1.0,phase_3,,,,,117.0,3.0,156.0,78.0,195.0,39.0,117.0,234.0,yellow,square
0.0,2.0,1.0,0.0,7.0,3.0,1192.3825950361788,4.0,1.0,phase_3,,,,,78.0,2.0,156.0,39.0,78.0,234.0,195.0,117.0,cyan,flipped triangle
0.0,8.0,4.0,1.0,7.0,5.0,1892.252813791856,4.0,1.0,phase_3,,,,,324.0,6.0,216.0,270.0,108.0,162.0,324.0,54.0,blue,circle
0.0,4.0,4.0,0.0,7.0,2.0,1198.6856202129277,4.0,1.0,phase_3,,,,,108.0,2.0,162.0,108.0,324.0,270.0,54.0,216.0,orange,cross
0.0,1.0,0.5,0.0,7.0,4.0,1230.3055620286614,4.0,1.0,phase_3,,,,,88.0,2.0,132.0,264.0,220.0,88.0,176.0,44.0,yellow,square
0.0,5.0,0.5,1.0,7.0,2.0,1401.0055048856884,4.0,1.0,phase_3,,,,,39.0,1.0,195.0,39.0,156.0,234.0,78.0,117.0,white,triangle
0.0,6.0,1.0,1.0,7.0,5.0,1122.843702090904,4.0,1.0,phase_3,,,,,264.0,6.0,132.0,44.0,88.0,220.0,264.0,176.0,green,diamond
0.0,4.0,4.0,0.0,7.0,4.0,1356.3605560921133,4.0,1.0,phase_3,,,,,136.0,4.0,204.0,68.0,170.0,136.0,34.0,102.0,orange,cross
0.0,4.0,4.0,0.0,7.0,1.0,1515.6554891727865,4.0,1.0,phase_3,,,,,170.0,5.0,170.0,102.0,34.0,136.0,204.0,68.0,orange,cross
0.0,8.0,4.0,1.0,7.0,2.0,2000.6960700266063,4.0,1.0,phase_3,,,,,204.0,6.0,34.0,204.0,102.0,170.0,68.0,136.0,blue,circle
0.0,7.0,2.0,1.0,7.0,5.0,1101.4779389370233,4.0,1.0,phase_3,,,,,216.0,4.0,162.0,54.0,324.0,108.0,216.0,270.0,gray,hexagon
0.0,5.0,0.5,1.0,7.0,1.0,1127.7346590068191,4.0,1.0,phase_3,,,,,54.0,1.0,54.0,108.0,270.0,162.0,216.0,324.0,white,triangle
0.0,7.0,2.0,1.0,7.0,2.0,2858.946212101728,4.0,1.0,phase_3,,,,,132.0,3.0,176.0,132.0,88.0,264.0,220.0,44.0,gray,hexagon
0.0,6.0,1.0,1.0,7.0,4.0,995.9445961285384,4.0,1.0,phase_3,,,,,117.0,3.0,195.0,156.0,39.0,117.0,78.0,234.0,green,diamond
0.0,7.0,2.0,1.0,7.0,5.0,1626.9584498368204,4.0,1.0,phase_3,,,,,294.0,6.0,196.0,49.0,245.0,98.0,294.0,147.0,gray,hexagon
0.0,3.0,2.0,0.0,7.0,5.0,1016.9802540913224,4.0,1.0,phase_3,,,,,78.0,2.0,156.0,117.0,39.0,195.0,78.0,234.0,magenta,I
0.0,3.0,2.0,0.0,7.0,4.0,1538.3892820682377,4.0,1.0,phase_3,,,,,108.0,2.0,216.0,324.0,162.0,108.0,54.0,270.0,magenta,I
0.0,2.0,1.0,0.0,7.0,3.0,1897.471016040072,4.0,1.0,phase_3,,,,,102.0,3.0,204.0,34.0,102.0,136.0,170.0,68.0,cyan,flipped triangle
0.0,8.0,4.0,1.0,7.0,3.0,1675.1629770733416,4.0,1.0,phase_3,,,,,234.0,6.0,78.0,117.0,234.0,39.0,195.0,156.0,blue,circle
0.0,2.0,1.0,0.0,7.0,6.0,1786.3511100877076,4.0,1.0,phase_3,,,,,136.0,4.0,102.0,34.0,68.0,204.0,170.0,136.0,cyan,flipped triangle
0.0,7.0,2.0,1.0,7.0,2.0,1090.0882889982313,4.0,1.0,phase_3,,,,,102.0,3.0,34.0,102.0,136.0,170.0,204.0,68.0,gray,hexagon
