raw_reward_magnitude,stim_reward,stepwise_reward_magnitude,paired_with_stopping,quadrant,response,reaction_time,block,num_trial_presentations,which_part,stop_signal_trial_type,left_SSD,right_SSD,accuracy,chosen_bidding_amount,chosen_bidding_level,possible_bid_1,possible_bid_2,possible_bid_3,possible_bid_4,possible_bid_5,possible_bid_6,color_text,shape_text
0.0,2.0,0.0,0.0,2.0,2.0,439.8306580260396,1.0,1.0,part_1,,,,,,,,,,,,,gray,flipped triangle
420.0,8.0,4.0,1.0,3.0,3.0,452.1409140434116,1.0,1.0,part_1,,,,,,,,,,,,,white,hexagon
197.0,7.0,3.0,1.0,1.0,1.0,393.8993928022682,1.0,1.0,part_1,,,,,,,,,,,,,magenta,diamond
0.0,3.0,0.0,0.0,4.0,4.0,326.6929141245782,1.0,1.0,part_1,,,,,,,,,,,,,green,I
181.0,7.0,3.0,1.0,1.0,1.0,363.2319890893996,1.0,1.0,part_1,,,,,,,,,,,,,magenta,diamond
90.0,2.0,2.0,0.0,4.0,4.0,351.6577591653913,1.0,1.0,part_1,,,,,,,,,,,,,gray,flipped triangle
204.0,3.0,3.0,0.0,1.0,1.0,328.7489530630409,1.0,1.0,part_1,,,,,,,,,,,,,green,I
395.0,8.0,4.0,1.0,1.0,1.0,387.7072979230433,1.0,1.0,part_1,,,,,,,,,,,,,white,hexagon
104.0,2.0,2.0,0.0,3.0,3.0,352.6957260910421,1.0,1.0,part_1,,,,,,,,,,,,,gray,flipped triangle
395.0,4.0,4.0,0.0,2.0,2.0,433.4111309144646,1.0,1.0,part_1,,,,,,,,,,,,,cyan,cross
0.0,6.0,0.0,1.0,4.0,4.0,331.723224138841,1.0,1.0,part_1,,,,,,,,,,,,,yellow,triangle
422.0,8.0,4.0,1.0,3.0,3.0,356.2977609690279,1.0,1.0,part_1,,,,,,,,,,,,,white,hexagon
0.0,2.0,0.0,0.0,3.0,3.0,343.6736669391393,1.0,1.0,part_1,,,,,,,,,,,,,gray,flipped triangle
0.0,8.0,0.0,1.0,2.0,2.0,289.4751918502152,1.0,1.0,part_1,,,,,,,,,,,,,white,hexagon
183.0,7.0,3.0,1.0,2.0,2.0,369.5275839418173,1.0,1.0,part_1,,,,,,,,,,,,,magenta,diamond
0.0,8.0,0.0,1.0,2.0,2.0,400.6759498734027,1.0,1.0,part_1,,,,,,,,,,,,,white,hexagon
58.0,1.0,1.0,0.0,1.0,1.0,345.4419600311667,1.0,1.0,part_1,,,,,,,,,,,,,orange,circle
65.0,5.0,1.0,1.0,2.0,2.0,314.85501001589,1.0,1.0,part_1,,,,,,,,,,,,,blue,square
120.0,2.0,2.0,0.0,3.0,3.0,350.1963999588042,1.0,1.0,part_1,,,,,,,,,,,,,gray,flipped triangle
71.0,1.0,1.0,0.0,2.0,2.0,294.2282629664987,1.0,1.0,part_1,,,,,,,,,,,,,orange,circle
208.0,3.0,3.0,0.0,3.0,3.0,328.9048278238624,1.0,1.0,part_1,,,,,,,,,,,,,green,I
97.0,6.0,2.0,1.0,1.0,1.0,280.837421072647,1.0,1.0,part_1,,,,,,,,,,,,,yellow,triangle
382.0,8.0,4.0,1.0,4.0,4.0,429.3103779200464,1.0,1.0,part_1,,,,,,,,,,,,,white,hexagon
82.0,2.0,2.0,0.0,3.0,3.0,395.5368250608444,1.0,1.0,part_1,,,,,,,,,,,,,gray,flipped triangle
422.0,4.0,4.0,0.0,2.0,2.0,293.7944198492914,1.0,1.0,part_1,,,,,,,,,,,,,cyan,cross
0.0,7.0,0.0,1.0,4.0,4.0,283.1711699254811,1.0,1.0,part_1,,,,,,,,,,,,,magenta,diamond
114.0,2.0,2.0,0.0,4.0,4.0,342.6235800143331,1.0,1.0,part_1,,,,,,,,,,,,,gray,flipped triangle
214.0,3.0,3.0,0.0,3.0,3.0,330.4774670396,1.0,1.0,part_1,,,,,,,,,,,,,green,I
95.0,2.0,2.0,0.0,3.0,3.0,341.6097490116954,1.0,1.0,part_1,,,,,,,,,,,,,gray,flipped triangle
185.0,7.0,3.0,1.0,4.0,4.0,354.0905881673097,1.0,1.0,part_1,,,,,,,,,,,,,magenta,diamond
74.0,1.0,1.0,0.0,2.0,2.0,297.8547988459468,1.0,1.0,part_1,,,,,,,,,,,,,orange,circle
0.0,1.0,0.0,0.0,4.0,4.0,309.7547788638621,1.0,1.0,part_1,,,,,,,,,,,,,orange,circle
0.0,2.0,0.0,0.0,3.0,3.0,320.5712160561234,1.0,1.0,part_1,,,,,,,,,,,,,gray,flipped triangle
47.0,1.0,1.0,0.0,4.0,4.0,334.0304479934275,1.0,1.0,part_1,,,,,,,,,,,,,orange,circle
41.0,5.0,1.0,1.0,1.0,1.0,333.4707198664546,1.0,2.0,part_1,,,,,,,,,,,,,blue,square
26.0,5.0,1.0,1.0,4.0,4.0,426.8746990710497,1.0,1.0,part_1,,,,,,,,,,,,,blue,square
59.0,5.0,1.0,1.0,2.0,2.0,326.2408671434968,1.0,1.0,part_1,,,,,,,,,,,,,blue,square
39.0,1.0,1.0,0.0,4.0,4.0,392.0488499570638,1.0,1.0,part_1,,,,,,,,,,,,,orange,circle
28.0,5.0,1.0,1.0,1.0,1.0,404.0886270813644,1.0,1.0,part_1,,,,,,,,,,,,,blue,square
0.0,3.0,0.0,0.0,1.0,1.0,441.3756050635129,1.0,1.0,part_1,,,,,,,,,,,,,green,I
37.0,5.0,1.0,1.0,2.0,2.0,338.1558179389685,1.0,1.0,part_1,,,,,,,,,,,,,blue,square
201.0,7.0,3.0,1.0,4.0,4.0,419.583261013031,1.0,1.0,part_1,,,,,,,,,,,,,magenta,diamond
0.0,7.0,0.0,1.0,3.0,3.0,566.6132348123938,1.0,1.0,part_1,,,,,,,,,,,,,magenta,diamond
72.0,5.0,1.0,1.0,3.0,3.0,421.0756099782884,1.0,1.0,part_1,,,,,,,,,,,,,blue,square
28.0,1.0,1.0,0.0,2.0,2.0,429.3529880233109,1.0,1.0,part_1,,,,,,,,,,,,,orange,circle
0.0,3.0,0.0,0.0,2.0,2.0,329.3201709166169,1.0,1.0,part_1,,,,,,,,,,,,,green,I
192.0,3.0,3.0,0.0,4.0,4.0,366.7158321477473,1.0,1.0,part_1,,,,,,,,,,,,,green,I
0.0,2.0,0.0,0.0,3.0,3.0,422.3410808481276,1.0,1.0,part_1,,,,,,,,,,,,,gray,flipped triangle
391.0,8.0,4.0,1.0,2.0,2.0,365.7176899723708,1.0,1.0,part_1,,,,,,,,,,,,,white,hexagon
191.0,7.0,3.0,1.0,4.0,4.0,355.4036861751228,1.0,1.0,part_1,,,,,,,,,,,,,magenta,diamond
192.0,7.0,3.0,1.0,3.0,3.0,389.8710208013654,1.0,1.0,part_1,,,,,,,,,,,,,magenta,diamond
420.0,4.0,4.0,0.0,2.0,2.0,308.6697459220886,1.0,1.0,part_1,,,,,,,,,,,,,cyan,cross
0.0,3.0,0.0,0.0,3.0,3.0,324.6635738760233,1.0,1.0,part_1,,,,,,,,,,,,,green,I
115.0,2.0,2.0,0.0,2.0,2.0,357.0925709791481,1.0,1.0,part_1,,,,,,,,,,,,,gray,flipped triangle
115.0,6.0,2.0,1.0,2.0,2.0,367.4757808912545,1.0,1.0,part_1,,,,,,,,,,,,,yellow,triangle
0.0,3.0,0.0,0.0,1.0,1.0,348.5157871618867,1.0,1.0,part_1,,,,,,,,,,,,,green,I
121.0,2.0,2.0,0.0,1.0,1.0,426.7817388754338,1.0,1.0,part_1,,,,,,,,,,,,,gray,flipped triangle
117.0,6.0,2.0,1.0,1.0,1.0,392.2908378299325,1.0,1.0,part_1,,,,,,,,,,,,,yellow,triangle
56.0,5.0,1.0,1.0,4.0,4.0,361.0675490926951,1.0,1.0,part_1,,,,,,,,,,,,,blue,square
44.0,1.0,1.0,0.0,3.0,3.0,370.0339770875871,1.0,1.0,part_1,,,,,,,,,,,,,orange,circle
0.0,2.0,0.0,0.0,4.0,4.0,406.1106650624424,1.0,1.0,part_1,,,,,,,,,,,,,gray,flipped triangle
93.0,6.0,2.0,1.0,1.0,1.0,363.1557519547641,1.0,1.0,part_1,,,,,,,,,,,,,yellow,triangle
96.0,2.0,2.0,0.0,4.0,4.0,375.1800819300115,1.0,1.0,part_1,,,,,,,,,,,,,gray,flipped triangle
34.0,1.0,1.0,0.0,1.0,1.0,340.6866120640188,1.0,1.0,part_1,,,,,,,,,,,,,orange,circle
85.0,2.0,2.0,0.0,2.0,2.0,373.3093098271638,1.0,1.0,part_1,,,,,,,,,,,,,gray,flipped triangle
30.0,5.0,1.0,1.0,1.0,1.0,386.8770620319992,1.0,1.0,part_1,,,,,,,,,,,,,blue,square
0.0,7.0,0.0,1.0,1.0,1.0,305.1330109592527,1.0,1.0,part_1,,,,,,,,,,,,,magenta,diamond
46.0,1.0,1.0,0.0,1.0,1.0,295.5569650512188,1.0,1.0,part_1,,,,,,,,,,,,,orange,circle
81.0,2.0,2.0,0.0,4.0,4.0,422.9194319341331,1.0,1.0,part_1,,,,,,,,,,,,,gray,flipped triangle
90.0,6.0,2.0,1.0,4.0,4.0,365.0406261440366,1.0,1.0,part_1,,,,,,,,,,,,,yellow,triangle
0.0,6.0,0.0,1.0,3.0,3.0,444.2790420725941,1.0,1.0,part_1,,,,,,,,,,,,,yellow,triangle
412.0,4.0,4.0,0.0,3.0,3.0,346.801744075492,1.0,1.0,part_1,,,,,,,,,,,,,cyan,cross
54.0,5.0,1.0,1.0,4.0,4.0,401.3241399079561,1.0,1.0,part_1,,,,,,,,,,,,,blue,square
379.0,8.0,4.0,1.0,1.0,1.0,369.6848629042506,1.0,1.0,part_1,,,,,,,,,,,,,white,hexagon
210.0,3.0,3.0,0.0,3.0,3.0,334.3489661347121,1.0,1.0,part_1,,,,,,,,,,,,,green,I
422.0,4.0,4.0,0.0,4.0,4.0,278.0924739781767,1.0,1.0,part_1,,,,,,,,,,,,,cyan,cross
183.0,7.0,3.0,1.0,3.0,3.0,315.6706830486655,1.0,1.0,part_1,,,,,,,,,,,,,magenta,diamond
378.0,4.0,4.0,0.0,4.0,4.0,278.7715208251029,1.0,1.0,part_1,,,,,,,,,,,,,cyan,cross
0.0,2.0,0.0,0.0,2.0,2.0,337.4498798511922,1.0,1.0,part_1,,,,,,,,,,,,,gray,flipped triangle
62.0,5.0,1.0,1.0,3.0,3.0,395.1822391245514,1.0,1.0,part_1,,,,,,,,,,,,,blue,square
198.0,3.0,3.0,0.0,2.0,2.0,314.4915120210498,1.0,1.0,part_1,,,,,,,,,,,,,green,I
218.0,3.0,3.0,0.0,1.0,1.0,303.9427031762898,1.0,1.0,part_1,,,,,,,,,,,,,green,I
55.0,1.0,1.0,0.0,4.0,4.0,316.9048249255866,1.0,1.0,part_1,,,,,,,,,,,,,orange,circle
95.0,6.0,2.0,1.0,4.0,4.0,349.2607020307332,1.0,1.0,part_1,,,,,,,,,,,,,yellow,triangle
380.0,4.0,4.0,0.0,3.0,3.0,316.6614479850977,1.0,1.0,part_1,,,,,,,,,,,,,cyan,cross
185.0,3.0,3.0,0.0,1.0,1.0,285.3726558387279,1.0,1.0,part_1,,,,,,,,,,,,,green,I
188.0,7.0,3.0,1.0,1.0,1.0,295.7921400666237,1.0,1.0,part_1,,,,,,,,,,,,,magenta,diamond
378.0,8.0,4.0,1.0,2.0,2.0,308.5481862071901,1.0,1.0,part_1,,,,,,,,,,,,,white,hexagon
111.0,6.0,2.0,1.0,1.0,1.0,308.4307429380715,1.0,1.0,part_1,,,,,,,,,,,,,yellow,triangle
0.0,8.0,0.0,1.0,4.0,4.0,322.9205580428242,1.0,1.0,part_1,,,,,,,,,,,,,white,hexagon
81.0,6.0,2.0,1.0,4.0,4.0,309.1177651658654,1.0,1.0,part_1,,,,,,,,,,,,,yellow,triangle
71.0,5.0,1.0,1.0,1.0,1.0,301.2860340531915,1.0,1.0,part_1,,,,,,,,,,,,,blue,square
0.0,4.0,0.0,0.0,4.0,4.0,310.1030869875103,1.0,1.0,part_1,,,,,,,,,,,,,cyan,cross
96.0,6.0,2.0,1.0,2.0,2.0,346.4669140521437,1.0,1.0,part_1,,,,,,,,,,,,,yellow,triangle
412.0,4.0,4.0,0.0,4.0,4.0,335.0789009127766,1.0,1.0,part_1,,,,,,,,,,,,,cyan,cross
0.0,7.0,0.0,1.0,1.0,1.0,302.2344610653817,1.0,1.0,part_1,,,,,,,,,,,,,magenta,diamond
215.0,7.0,3.0,1.0,3.0,3.0,337.4278140254318,1.0,1.0,part_1,,,,,,,,,,,,,magenta,diamond
188.0,7.0,3.0,1.0,3.0,3.0,313.1890369113534,1.0,1.0,part_1,,,,,,,,,,,,,magenta,diamond
84.0,2.0,2.0,0.0,1.0,1.0,305.2137889899313,1.0,1.0,part_1,,,,,,,,,,,,,gray,flipped triangle
191.0,3.0,3.0,0.0,4.0,4.0,336.0139201395213,1.0,1.0,part_1,,,,,,,,,,,,,green,I
0.0,5.0,0.0,1.0,1.0,1.0,325.1695060171187,2.0,1.0,part_1,,,,,,,,,,,,,blue,square
218.0,3.0,3.0,0.0,3.0,3.0,289.4288601819426,2.0,1.0,part_1,,,,,,,,,,,,,green,I
224.0,3.0,3.0,0.0,2.0,2.0,257.5675549451262,2.0,1.0,part_1,,,,,,,,,,,,,green,I
110.0,2.0,2.0,0.0,1.0,1.0,290.2613230980932,2.0,1.0,part_1,,,,,,,,,,,,,gray,flipped triangle
121.0,6.0,2.0,1.0,2.0,2.0,259.5385948661715,2.0,1.0,part_1,,,,,,,,,,,,,yellow,triangle
383.0,4.0,4.0,0.0,3.0,3.0,294.0998789854347,2.0,1.0,part_1,,,,,,,,,,,,,cyan,cross
107.0,6.0,2.0,1.0,4.0,4.0,306.357747875154,2.0,1.0,part_1,,,,,,,,,,,,,yellow,triangle
77.0,6.0,2.0,1.0,4.0,4.0,337.8608808852732,2.0,1.0,part_1,,,,,,,,,,,,,yellow,triangle
0.0,7.0,0.0,1.0,2.0,2.0,304.9992150627076,2.0,1.0,part_1,,,,,,,,,,,,,magenta,diamond
176.0,7.0,3.0,1.0,2.0,2.0,317.0933159999549,2.0,1.0,part_1,,,,,,,,,,,,,magenta,diamond
0.0,4.0,0.0,0.0,4.0,4.0,353.1252699904144,2.0,1.0,part_1,,,,,,,,,,,,,cyan,cross
183.0,3.0,3.0,0.0,4.0,4.0,272.3691111896187,2.0,1.0,part_1,,,,,,,,,,,,,green,I
188.0,3.0,3.0,0.0,4.0,4.0,308.8493819814175,2.0,1.0,part_1,,,,,,,,,,,,,green,I
0.0,2.0,0.0,0.0,3.0,3.0,399.9003379140049,2.0,1.0,part_1,,,,,,,,,,,,,gray,flipped triangle
101.0,2.0,2.0,0.0,4.0,4.0,274.4179330766201,2.0,1.0,part_1,,,,,,,,,,,,,gray,flipped triangle
107.0,2.0,2.0,0.0,1.0,1.0,287.5986190047115,2.0,1.0,part_1,,,,,,,,,,,,,gray,flipped triangle
0.0,5.0,0.0,1.0,2.0,2.0,274.6082709636539,2.0,1.0,part_1,,,,,,,,,,,,,blue,square
0.0,1.0,0.0,0.0,2.0,2.0,243.9089561812579,2.0,1.0,part_1,,,,,,,,,,,,,orange,circle
92.0,6.0,2.0,1.0,3.0,3.0,347.4686739500612,2.0,1.0,part_1,,,,,,,,,,,,,yellow,triangle
406.0,8.0,4.0,1.0,1.0,1.0,266.0702420398593,2.0,1.0,part_1,,,,,,,,,,,,,white,hexagon
224.0,7.0,3.0,1.0,2.0,2.0,314.9375980719924,2.0,1.0,part_1,,,,,,,,,,,,,magenta,diamond
0.0,7.0,0.0,1.0,4.0,4.0,302.3551090154797,2.0,1.0,part_1,,,,,,,,,,,,,magenta,diamond
56.0,1.0,1.0,0.0,2.0,2.0,270.2222198713571,2.0,1.0,part_1,,,,,,,,,,,,,orange,circle
96.0,6.0,2.0,1.0,1.0,1.0,260.5443189386278,2.0,1.0,part_1,,,,,,,,,,,,,yellow,triangle
387.0,8.0,4.0,1.0,3.0,3.0,315.1532770134508,2.0,1.0,part_1,,,,,,,,,,,,,white,hexagon
96.0,2.0,2.0,0.0,4.0,4.0,370.2738538850099,2.0,1.0,part_1,,,,,,,,,,,,,gray,flipped triangle
41.0,1.0,1.0,0.0,3.0,3.0,317.0418441295624,2.0,1.0,part_1,,,,,,,,,,,,,orange,circle
105.0,2.0,2.0,0.0,2.0,2.0,394.4907609838992,2.0,1.0,part_1,,,,,,,,,,,,,gray,flipped triangle
90.0,6.0,2.0,1.0,3.0,3.0,318.2235611602664,2.0,1.0,part_1,,,,,,,,,,,,,yellow,triangle
69.0,5.0,1.0,1.0,3.0,3.0,259.7309201955795,2.0,1.0,part_1,,,,,,,,,,,,,blue,square
0.0,4.0,0.0,0.0,4.0,4.0,316.4520938880741,2.0,1.0,part_1,,,,,,,,,,,,,cyan,cross
54.0,5.0,1.0,1.0,3.0,3.0,283.4007109049707,2.0,1.0,part_1,,,,,,,,,,,,,blue,square
105.0,6.0,2.0,1.0,1.0,1.0,377.0789140835404,2.0,2.0,part_1,,,,,,,,,,,,,yellow,triangle
125.0,2.0,2.0,0.0,4.0,4.0,343.6712068505585,2.0,1.0,part_1,,,,,,,,,,,,,gray,flipped triangle
124.0,2.0,2.0,0.0,2.0,2.0,375.9045619517565,2.0,1.0,part_1,,,,,,,,,,,,,gray,flipped triangle
405.0,4.0,4.0,0.0,3.0,3.0,343.4349410235882,2.0,1.0,part_1,,,,,,,,,,,,,cyan,cross
406.0,4.0,4.0,0.0,2.0,2.0,434.5898060128093,2.0,1.0,part_1,,,,,,,,,,,,,cyan,cross
69.0,1.0,1.0,0.0,1.0,1.0,355.3527719341218,2.0,1.0,part_1,,,,,,,,,,,,,orange,circle
409.0,8.0,4.0,1.0,4.0,4.0,348.1703829020262,2.0,1.0,part_1,,,,,,,,,,,,,white,hexagon
208.0,7.0,3.0,1.0,1.0,1.0,313.9367799740284,2.0,1.0,part_1,,,,,,,,,,,,,magenta,diamond
198.0,3.0,3.0,0.0,4.0,4.0,300.1498549710959,2.0,1.0,part_1,,,,,,,,,,,,,green,I
0.0,4.0,0.0,0.0,1.0,1.0,315.7790161203593,2.0,1.0,part_1,,,,,,,,,,,,,cyan,cross
188.0,3.0,3.0,0.0,2.0,2.0,326.8216720316559,2.0,1.0,part_1,,,,,,,,,,,,,green,I
378.0,8.0,4.0,1.0,4.0,4.0,381.1143089551478,2.0,1.0,part_1,,,,,,,,,,,,,white,hexagon
205.0,7.0,3.0,1.0,2.0,2.0,292.3714029602706,2.0,1.0,part_1,,,,,,,,,,,,,magenta,diamond
407.0,8.0,4.0,1.0,3.0,3.0,349.558083107695,2.0,1.0,part_1,,,,,,,,,,,,,white,hexagon
0.0,8.0,0.0,1.0,2.0,2.0,359.6340541262179,2.0,1.0,part_1,,,,,,,,,,,,,white,hexagon
193.0,7.0,3.0,1.0,2.0,2.0,307.3762219864875,2.0,1.0,part_1,,,,,,,,,,,,,magenta,diamond
180.0,7.0,3.0,1.0,1.0,1.0,271.656297147274,2.0,1.0,part_1,,,,,,,,,,,,,magenta,diamond
204.0,7.0,3.0,1.0,3.0,3.0,319.7259989101439,2.0,1.0,part_1,,,,,,,,,,,,,magenta,diamond
0.0,3.0,0.0,0.0,4.0,4.0,306.0853669885546,2.0,1.0,part_1,,,,,,,,,,,,,green,I
380.0,8.0,4.0,1.0,1.0,1.0,294.8399418964982,2.0,1.0,part_1,,,,,,,,,,,,,white,hexagon
93.0,2.0,2.0,0.0,3.0,3.0,330.8895800728351,2.0,1.0,part_1,,,,,,,,,,,,,gray,flipped triangle
0.0,2.0,0.0,0.0,2.0,2.0,319.3436260335147,2.0,1.0,part_1,,,,,,,,,,,,,gray,flipped triangle
0.0,5.0,0.0,1.0,3.0,3.0,310.9130668453872,2.0,1.0,part_1,,,,,,,,,,,,,blue,square
389.0,8.0,4.0,1.0,4.0,4.0,322.6612969301641,2.0,1.0,part_1,,,,,,,,,,,,,white,hexagon
119.0,6.0,2.0,1.0,4.0,4.0,311.7825298104435,2.0,1.0,part_1,,,,,,,,,,,,,yellow,triangle
204.0,7.0,3.0,1.0,3.0,3.0,380.8708959259093,2.0,1.0,part_1,,,,,,,,,,,,,magenta,diamond
409.0,4.0,4.0,0.0,3.0,3.0,343.9102978445589,2.0,1.0,part_1,,,,,,,,,,,,,cyan,cross
412.0,8.0,4.0,1.0,2.0,2.0,336.9070638436824,2.0,1.0,part_1,,,,,,,,,,,,,white,hexagon
382.0,4.0,4.0,0.0,1.0,1.0,300.7137470412999,2.0,1.0,part_1,,,,,,,,,,,,,cyan,cross
64.0,1.0,1.0,0.0,2.0,2.0,312.1295219752937,2.0,1.0,part_1,,,,,,,,,,,,,orange,circle
82.0,6.0,2.0,1.0,3.0,3.0,280.6186799425632,2.0,1.0,part_1,,,,,,,,,,,,,yellow,triangle
0.0,3.0,0.0,0.0,3.0,3.0,348.7145169638097,2.0,1.0,part_1,,,,,,,,,,,,,green,I
378.0,4.0,4.0,0.0,2.0,2.0,316.7738569900393,2.0,1.0,part_1,,,,,,,,,,,,,cyan,cross
0.0,1.0,0.0,0.0,2.0,2.0,302.842881064862,2.0,1.0,part_1,,,,,,,,,,,,,orange,circle
224.0,7.0,3.0,1.0,4.0,4.0,317.7359129767865,2.0,1.0,part_1,,,,,,,,,,,,,magenta,diamond
415.0,4.0,4.0,0.0,1.0,1.0,350.2164189703762,2.0,1.0,part_1,,,,,,,,,,,,,cyan,cross
389.0,4.0,4.0,0.0,4.0,4.0,296.8192789703607,2.0,1.0,part_1,,,,,,,,,,,,,cyan,cross
0.0,4.0,0.0,0.0,3.0,3.0,286.6733470000326,2.0,1.0,part_1,,,,,,,,,,,,,cyan,cross
406.0,8.0,4.0,1.0,3.0,3.0,298.3955799136311,2.0,1.0,part_1,,,,,,,,,,,,,white,hexagon
41.0,1.0,1.0,0.0,1.0,1.0,309.6941660623997,2.0,1.0,part_1,,,,,,,,,,,,,orange,circle
72.0,1.0,1.0,0.0,3.0,3.0,331.204931018874,2.0,1.0,part_1,,,,,,,,,,,,,orange,circle
28.0,5.0,1.0,1.0,2.0,2.0,388.4869480971247,2.0,1.0,part_1,,,,,,,,,,,,,blue,square
105.0,2.0,2.0,0.0,1.0,1.0,308.4341690409928,2.0,1.0,part_1,,,,,,,,,,,,,gray,flipped triangle
390.0,4.0,4.0,0.0,1.0,1.0,342.5685740076005,2.0,1.0,part_1,,,,,,,,,,,,,cyan,cross
85.0,6.0,2.0,1.0,1.0,1.0,309.8626330029219,2.0,1.0,part_1,,,,,,,,,,,,,yellow,triangle
218.0,7.0,3.0,1.0,1.0,1.0,254.8464371357113,2.0,1.0,part_1,,,,,,,,,,,,,magenta,diamond
63.0,5.0,1.0,1.0,4.0,4.0,312.1387190185487,2.0,1.0,part_1,,,,,,,,,,,,,blue,square
0.0,6.0,0.0,1.0,2.0,2.0,370.7798679824918,2.0,1.0,part_1,,,,,,,,,,,,,yellow,triangle
78.0,2.0,2.0,0.0,4.0,4.0,334.5555809792131,2.0,1.0,part_1,,,,,,,,,,,,,gray,flipped triangle
387.0,4.0,4.0,0.0,1.0,1.0,281.0771851800382,2.0,1.0,part_1,,,,,,,,,,,,,cyan,cross
28.0,1.0,1.0,0.0,1.0,1.0,337.42619398981327,2.0,1.0,part_1,,,,,,,,,,,,,orange,circle
124.0,6.0,2.0,1.0,2.0,2.0,350.1698558684438,2.0,1.0,part_1,,,,,,,,,,,,,yellow,triangle
0.0,4.0,0.0,0.0,2.0,2.0,339.8150647990405,2.0,1.0,part_1,,,,,,,,,,,,,cyan,cross
33.0,5.0,1.0,1.0,4.0,4.0,305.8891010005027,2.0,1.0,part_1,,,,,,,,,,,,,blue,square
203.0,7.0,3.0,1.0,3.0,3.0,316.8175029568374,2.0,1.0,part_1,,,,,,,,,,,,,magenta,diamond
57.0,1.0,1.0,0.0,3.0,3.0,337.8792270086705,2.0,1.0,part_1,,,,,,,,,,,,,orange,circle
84.0,2.0,2.0,0.0,2.0,2.0,349.3943721987307,2.0,1.0,part_1,,,,,,,,,,,,,gray,flipped triangle
204.0,3.0,3.0,0.0,1.0,1.0,274.8196420725435,2.0,1.0,part_1,,,,,,,,,,,,,green,I
416.0,4.0,4.0,0.0,2.0,2.0,350.2369388006627,2.0,1.0,part_1,,,,,,,,,,,,,cyan,cross
218.0,7.0,3.0,1.0,1.0,1.0,298.7610429991036,2.0,1.0,part_1,,,,,,,,,,,,,magenta,diamond
27.0,5.0,1.0,1.0,1.0,1.0,287.5729370862245,2.0,1.0,part_1,,,,,,,,,,,,,blue,square
96.0,6.0,2.0,1.0,3.0,3.0,318.4436918236315,2.0,1.0,part_1,,,,,,,,,,,,,yellow,triangle
77.0,2.0,2.0,0.0,1.0,1.0,265.9687229897827,2.0,1.0,part_1,,,,,,,,,,,,,gray,flipped triangle
199.0,3.0,3.0,0.0,3.0,3.0,288.9472797978669,2.0,1.0,part_1,,,,,,,,,,,,,green,I
58.0,1.0,1.0,0.0,1.0,1.0,275.1227628905326,2.0,1.0,part_1,,,,,,,,,,,,,orange,circle
117.0,6.0,2.0,1.0,2.0,2.0,309.2739998828619,2.0,1.0,part_1,,,,,,,,,,,,,yellow,triangle
380.0,8.0,4.0,1.0,1.0,1.0,301.9640219863504,2.0,1.0,part_1,,,,,,,,,,,,,white,hexagon
74.0,5.0,1.0,1.0,3.0,3.0,345.4332770779729,2.0,2.0,part_1,,,,,,,,,,,,,blue,square
0.0,5.0,0.0,1.0,2.0,2.0,345.8330510184169,3.0,1.0,part_1,,,,,,,,,,,,,blue,square
401.0,4.0,4.0,0.0,1.0,1.0,264.4395071547478,3.0,1.0,part_1,,,,,,,,,,,,,cyan,cross
0.0,1.0,0.0,0.0,4.0,4.0,302.3640250321477,3.0,1.0,part_1,,,,,,,,,,,,,orange,circle
186.0,7.0,3.0,1.0,1.0,1.0,269.4535169284791,3.0,1.0,part_1,,,,,,,,,,,,,magenta,diamond
204.0,7.0,3.0,1.0,2.0,2.0,344.9161970056593,3.0,1.0,part_1,,,,,,,,,,,,,magenta,diamond
399.0,8.0,4.0,1.0,2.0,2.0,268.5919140931219,3.0,1.0,part_1,,,,,,,,,,,,,white,hexagon
121.0,2.0,2.0,0.0,3.0,3.0,347.7492791134864,3.0,1.0,part_1,,,,,,,,,,,,,gray,flipped triangle
397.0,4.0,4.0,0.0,3.0,3.0,293.6922260560095,3.0,1.0,part_1,,,,,,,,,,,,,cyan,cross
215.0,3.0,3.0,0.0,2.0,2.0,302.0317798946053,3.0,1.0,part_1,,,,,,,,,,,,,green,I
0.0,6.0,0.0,1.0,3.0,3.0,362.086929148063,3.0,1.0,part_1,,,,,,,,,,,,,yellow,triangle
201.0,3.0,3.0,0.0,4.0,4.0,439.1163939144462,3.0,1.0,part_1,,,,,,,,,,,,,green,I
422.0,8.0,4.0,1.0,4.0,4.0,295.6734199542552,3.0,1.0,part_1,,,,,,,,,,,,,white,hexagon
57.0,5.0,1.0,1.0,1.0,1.0,285.5036018881947,3.0,1.0,part_1,,,,,,,,,,,,,blue,square
182.0,7.0,3.0,1.0,3.0,3.0,295.4480180051178,3.0,1.0,part_1,,,,,,,,,,,,,magenta,diamond
197.0,3.0,3.0,0.0,3.0,3.0,307.8980259597301,3.0,1.0,part_1,,,,,,,,,,,,,green,I
193.0,3.0,3.0,0.0,2.0,2.0,362.3094060458243,3.0,1.0,part_1,,,,,,,,,,,,,green,I
97.0,2.0,2.0,0.0,4.0,4.0,331.034725997597,3.0,1.0,part_1,,,,,,,,,,,,,gray,flipped triangle
188.0,3.0,3.0,0.0,4.0,4.0,298.7911119125783,3.0,1.0,part_1,,,,,,,,,,,,,green,I
420.0,4.0,4.0,0.0,2.0,2.0,264.3464200664311,3.0,1.0,part_1,,,,,,,,,,,,,cyan,cross
415.0,8.0,4.0,1.0,1.0,1.0,345.0926651712507,3.0,1.0,part_1,,,,,,,,,,,,,white,hexagon
0.0,8.0,0.0,1.0,4.0,4.0,286.2170920707285,3.0,1.0,part_1,,,,,,,,,,,,,white,hexagon
51.0,5.0,1.0,1.0,1.0,1.0,323.9510499406606,3.0,1.0,part_1,,,,,,,,,,,,,blue,square
404.0,8.0,4.0,1.0,3.0,3.0,471.3135040365159,3.0,1.0,part_1,,,,,,,,,,,,,white,hexagon
414.0,4.0,4.0,0.0,3.0,3.0,369.8920540045947,3.0,1.0,part_1,,,,,,,,,,,,,cyan,cross
54.0,1.0,1.0,0.0,2.0,2.0,334.2791949398815,3.0,1.0,part_1,,,,,,,,,,,,,orange,circle
0.0,2.0,0.0,0.0,2.0,2.0,347.1866850741207,3.0,1.0,part_1,,,,,,,,,,,,,gray,flipped triangle
0.0,4.0,0.0,0.0,1.0,1.0,312.4946120660752,3.0,1.0,part_1,,,,,,,,,,,,,cyan,cross
214.0,7.0,3.0,1.0,4.0,4.0,325.4796271212399,3.0,1.0,part_1,,,,,,,,,,,,,magenta,diamond
0.0,6.0,0.0,1.0,2.0,2.0,279.2946849949658,3.0,1.0,part_1,,,,,,,,,,,,,yellow,triangle
0.0,8.0,0.0,1.0,1.0,1.0,360.86878599599,3.0,1.0,part_1,,,,,,,,,,,,,white,hexagon
84.0,6.0,2.0,1.0,3.0,3.0,329.48431186378,3.0,1.0,part_1,,,,,,,,,,,,,yellow,triangle
405.0,8.0,4.0,1.0,1.0,1.0,303.5764170344919,3.0,1.0,part_1,,,,,,,,,,,,,white,hexagon
27.0,1.0,1.0,0.0,4.0,4.0,341.5108909830451,3.0,1.0,part_1,,,,,,,,,,,,,orange,circle
188.0,7.0,3.0,1.0,4.0,4.0,350.1545200124383,3.0,1.0,part_1,,,,,,,,,,,,,magenta,diamond
0.0,7.0,0.0,1.0,4.0,4.0,319.4509919267148,3.0,1.0,part_1,,,,,,,,,,,,,magenta,diamond
0.0,1.0,0.0,0.0,1.0,1.0,306.9274427834898,3.0,1.0,part_1,,,,,,,,,,,,,orange,circle
0.0,4.0,0.0,0.0,2.0,2.0,339.6392129361629,3.0,1.0,part_1,,,,,,,,,,,,,cyan,cross
417.0,4.0,4.0,0.0,4.0,4.0,331.4753451850265,3.0,1.0,part_1,,,,,,,,,,,,,cyan,cross
224.0,7.0,3.0,1.0,2.0,2.0,310.6200529728085,3.0,1.0,part_1,,,,,,,,,,,,,magenta,diamond
212.0,7.0,3.0,1.0,4.0,4.0,296.6193901374936,3.0,1.0,part_1,,,,,,,,,,,,,magenta,diamond
92.0,2.0,2.0,0.0,1.0,1.0,331.1655779834836,3.0,1.0,part_1,,,,,,,,,,,,,gray,flipped triangle
59.0,1.0,1.0,0.0,1.0,1.0,367.7870079409331,3.0,1.0,part_1,,,,,,,,,,,,,orange,circle
198.0,7.0,3.0,1.0,2.0,2.0,309.2883538920432,3.0,1.0,part_1,,,,,,,,,,,,,magenta,diamond
383.0,8.0,4.0,1.0,1.0,1.0,278.51332584396,3.0,1.0,part_1,,,,,,,,,,,,,white,hexagon
390.0,8.0,4.0,1.0,1.0,1.0,244.1929331980645,3.0,1.0,part_1,,,,,,,,,,,,,white,hexagon
37.0,1.0,1.0,0.0,2.0,2.0,326.5657979063689,3.0,1.0,part_1,,,,,,,,,,,,,orange,circle
206.0,7.0,3.0,1.0,3.0,3.0,424.5438049547374,3.0,1.0,part_1,,,,,,,,,,,,,magenta,diamond
44.0,5.0,1.0,1.0,2.0,2.0,326.4623670838773,3.0,1.0,part_1,,,,,,,,,,,,,blue,square
0.0,5.0,0.0,1.0,2.0,2.0,290.291559882462,3.0,1.0,part_1,,,,,,,,,,,,,blue,square
208.0,3.0,3.0,0.0,2.0,2.0,279.6176860574633,3.0,1.0,part_1,,,,,,,,,,,,,green,I
414.0,8.0,4.0,1.0,3.0,3.0,314.8484861012548,3.0,1.0,part_1,,,,,,,,,,,,,white,hexagon
406.0,8.0,4.0,1.0,3.0,3.0,306.1377671547234,3.0,1.0,part_1,,,,,,,,,,,,,white,hexagon
103.0,6.0,2.0,1.0,1.0,1.0,294.8689700569957,3.0,1.0,part_1,,,,,,,,,,,,,yellow,triangle
420.0,8.0,4.0,1.0,4.0,4.0,327.4143729358911,3.0,1.0,part_1,,,,,,,,,,,,,white,hexagon
176.0,3.0,3.0,0.0,1.0,1.0,316.9454939197749,3.0,1.0,part_1,,,,,,,,,,,,,green,I
203.0,3.0,3.0,0.0,1.0,1.0,308.089055120945,3.0,1.0,part_1,,,,,,,,,,,,,green,I
117.0,2.0,2.0,0.0,3.0,3.0,343.8215819187462,3.0,1.0,part_1,,,,,,,,,,,,,gray,flipped triangle
0.0,1.0,0.0,0.0,1.0,1.0,287.4164700042456,3.0,1.0,part_1,,,,,,,,,,,,,orange,circle
105.0,6.0,2.0,1.0,3.0,3.0,318.635615054518,3.0,1.0,part_1,,,,,,,,,,,,,yellow,triangle
76.0,6.0,2.0,1.0,1.0,1.0,285.5090759694576,3.0,1.0,part_1,,,,,,,,,,,,,yellow,triangle
27.0,5.0,1.0,1.0,4.0,4.0,343.1158890016377,3.0,1.0,part_1,,,,,,,,,,,,,blue,square
0.0,7.0,0.0,1.0,1.0,1.0,297.78543394058937,3.0,1.0,part_1,,,,,,,,,,,,,magenta,diamond
199.0,7.0,3.0,1.0,4.0,4.0,415.2049911208451,3.0,1.0,part_1,,,,,,,,,,,,,magenta,diamond
380.0,4.0,4.0,0.0,1.0,1.0,302.2659509442746,3.0,1.0,part_1,,,,,,,,,,,,,cyan,cross
0.0,6.0,0.0,1.0,1.0,1.0,268.7217788770795,3.0,1.0,part_1,,,,,,,,,,,,,yellow,triangle
28.0,1.0,1.0,0.0,3.0,3.0,460.9778041485697,3.0,1.0,part_1,,,,,,,,,,,,,orange,circle
53.0,1.0,1.0,0.0,4.0,4.0,336.1175509635359,3.0,1.0,part_1,,,,,,,,,,,,,orange,circle
105.0,2.0,2.0,0.0,4.0,4.0,392.2075750306248,3.0,1.0,part_1,,,,,,,,,,,,,gray,flipped triangle
194.0,7.0,3.0,1.0,1.0,1.0,314.4214700441807,3.0,1.0,part_1,,,,,,,,,,,,,magenta,diamond
218.0,7.0,3.0,1.0,2.0,2.0,302.0709559787065,3.0,1.0,part_1,,,,,,,,,,,,,magenta,diamond
73.0,1.0,1.0,0.0,2.0,2.0,336.9113940279931,3.0,1.0,part_1,,,,,,,,,,,,,orange,circle
0.0,1.0,0.0,0.0,1.0,1.0,284.2391591984778,3.0,1.0,part_1,,,,,,,,,,,,,orange,circle
76.0,2.0,2.0,0.0,2.0,2.0,340.8056511543691,3.0,1.0,part_1,,,,,,,,,,,,,gray,flipped triangle
384.0,4.0,4.0,0.0,4.0,4.0,328.0193689279258,3.0,1.0,part_1,,,,,,,,,,,,,cyan,cross
78.0,6.0,2.0,1.0,4.0,4.0,317.57799116894597,3.0,1.0,part_1,,,,,,,,,,,,,yellow,triangle
194.0,3.0,3.0,0.0,4.0,4.0,307.3454748373478,3.0,1.0,part_1,,,,,,,,,,,,,green,I
197.0,7.0,3.0,1.0,2.0,2.0,296.6072929557413,3.0,1.0,part_1,,,,,,,,,,,,,magenta,diamond
0.0,8.0,0.0,1.0,2.0,2.0,287.633246043697,3.0,1.0,part_1,,,,,,,,,,,,,white,hexagon
125.0,6.0,2.0,1.0,2.0,2.0,332.5358629226684,3.0,1.0,part_1,,,,,,,,,,,,,yellow,triangle
397.0,4.0,4.0,0.0,3.0,3.0,364.4902580417692,3.0,1.0,part_1,,,,,,,,,,,,,cyan,cross
27.0,1.0,1.0,0.0,4.0,4.0,357.2836720850318,3.0,1.0,part_1,,,,,,,,,,,,,orange,circle
79.0,6.0,2.0,1.0,2.0,2.0,301.1608708184212,3.0,1.0,part_1,,,,,,,,,,,,,yellow,triangle
53.0,5.0,1.0,1.0,2.0,2.0,399.9727689661085,3.0,1.0,part_1,,,,,,,,,,,,,blue,square
0.0,3.0,0.0,0.0,2.0,2.0,410.8935368712991,3.0,1.0,part_1,,,,,,,,,,,,,green,I
64.0,5.0,1.0,1.0,1.0,1.0,336.9887720327824,3.0,1.0,part_1,,,,,,,,,,,,,blue,square
399.0,4.0,4.0,0.0,1.0,1.0,302.8615231160074,3.0,1.0,part_1,,,,,,,,,,,,,cyan,cross
0.0,4.0,0.0,0.0,1.0,1.0,247.5453589577227,3.0,1.0,part_1,,,,,,,,,,,,,cyan,cross
46.0,5.0,1.0,1.0,4.0,4.0,369.6419249754399,3.0,1.0,part_1,,,,,,,,,,,,,blue,square
117.0,2.0,2.0,0.0,1.0,1.0,271.1260470096022,3.0,1.0,part_1,,,,,,,,,,,,,gray,flipped triangle
203.0,7.0,3.0,1.0,4.0,4.0,327.6713781524449,3.0,1.0,part_1,,,,,,,,,,,,,magenta,diamond
406.0,4.0,4.0,0.0,2.0,2.0,294.0434850752353,3.0,1.0,part_1,,,,,,,,,,,,,cyan,cross
413.0,4.0,4.0,0.0,1.0,1.0,282.4810219462961,3.0,1.0,part_1,,,,,,,,,,,,,cyan,cross
30.0,1.0,1.0,0.0,1.0,1.0,294.3352109286934,3.0,1.0,part_1,,,,,,,,,,,,,orange,circle
65.0,1.0,1.0,0.0,4.0,4.0,327.1837921347469,3.0,1.0,part_1,,,,,,,,,,,,,orange,circle
0.0,5.0,0.0,1.0,1.0,1.0,339.812622172758,3.0,1.0,part_1,,,,,,,,,,,,,blue,square
384.0,8.0,4.0,1.0,2.0,2.0,328.6287779919803,3.0,1.0,part_1,,,,,,,,,,,,,white,hexagon
89.0,2.0,2.0,0.0,3.0,3.0,339.8370570503175,3.0,1.0,part_1,,,,,,,,,,,,,gray,flipped triangle
0.0,2.0,0.0,0.0,4.0,4.0,333.9242709334939,3.0,2.0,part_1,,,,,,,,,,,,,gray,flipped triangle
60.0,1.0,1.0,0.0,4.0,4.0,341.6928639635443,3.0,1.0,part_1,,,,,,,,,,,,,orange,circle
73.0,5.0,1.0,1.0,3.0,3.0,342.2556519508362,3.0,1.0,part_1,,,,,,,,,,,,,blue,square
224.0,3.0,3.0,0.0,2.0,2.0,360.688691958785,4.0,1.0,part_1,,,,,,,,,,,,,green,I
379.0,4.0,4.0,0.0,4.0,4.0,285.748200956732,4.0,1.0,part_1,,,,,,,,,,,,,cyan,cross
404.0,4.0,4.0,0.0,3.0,3.0,361.417711013928,4.0,1.0,part_1,,,,,,,,,,,,,cyan,cross
63.0,1.0,1.0,0.0,4.0,4.0,328.6236219573766,4.0,1.0,part_1,,,,,,,,,,,,,orange,circle
114.0,6.0,2.0,1.0,3.0,3.0,297.488649142906,4.0,1.0,part_1,,,,,,,,,,,,,yellow,triangle
96.0,2.0,2.0,0.0,2.0,2.0,351.7214141320437,4.0,1.0,part_1,,,,,,,,,,,,,gray,flipped triangle
90.0,2.0,2.0,0.0,2.0,2.0,385.9870999585837,4.0,1.0,part_1,,,,,,,,,,,,,gray,flipped triangle
0.0,7.0,0.0,1.0,1.0,1.0,311.970551032573,4.0,1.0,part_1,,,,,,,,,,,,,magenta,diamond
407.0,4.0,4.0,0.0,4.0,4.0,320.1527139171958,4.0,1.0,part_1,,,,,,,,,,,,,cyan,cross
390.0,8.0,4.0,1.0,2.0,2.0,290.699252160266,4.0,1.0,part_1,,,,,,,,,,,,,white,hexagon
417.0,8.0,4.0,1.0,1.0,1.0,289.9292609654367,4.0,1.0,part_1,,,,,,,,,,,,,white,hexagon
0.0,5.0,0.0,1.0,3.0,3.0,347.3035139031708,4.0,1.0,part_1,,,,,,,,,,,,,blue,square
413.0,4.0,4.0,0.0,4.0,4.0,312.9657590761781,4.0,1.0,part_1,,,,,,,,,,,,,cyan,cross
382.0,4.0,4.0,0.0,1.0,1.0,325.1243599224835,4.0,1.0,part_1,,,,,,,,,,,,,cyan,cross
198.0,7.0,3.0,1.0,3.0,3.0,291.4165190886706,4.0,1.0,part_1,,,,,,,,,,,,,magenta,diamond
401.0,8.0,4.0,1.0,2.0,2.0,278.8975718431175,4.0,1.0,part_1,,,,,,,,,,,,,white,hexagon
390.0,4.0,4.0,0.0,2.0,2.0,268.3990481309593,4.0,1.0,part_1,,,,,,,,,,,,,cyan,cross
67.0,1.0,1.0,0.0,1.0,1.0,306.4412919338792,4.0,1.0,part_1,,,,,,,,,,,,,orange,circle
204.0,3.0,3.0,0.0,1.0,1.0,316.7043821886182,4.0,1.0,part_1,,,,,,,,,,,,,green,I
84.0,6.0,2.0,1.0,3.0,3.0,293.3866758830845,4.0,1.0,part_1,,,,,,,,,,,,,yellow,triangle
91.0,6.0,2.0,1.0,4.0,4.0,349.5420019607991,4.0,1.0,part_1,,,,,,,,,,,,,yellow,triangle
416.0,8.0,4.0,1.0,2.0,2.0,285.243869991973,4.0,1.0,part_1,,,,,,,,,,,,,white,hexagon
212.0,3.0,3.0,0.0,4.0,4.0,341.891409130767,4.0,1.0,part_1,,,,,,,,,,,,,green,I
206.0,3.0,3.0,0.0,2.0,2.0,308.6374178528785,4.0,1.0,part_1,,,,,,,,,,,,,green,I
62.0,1.0,1.0,0.0,3.0,3.0,342.4377010669559,4.0,1.0,part_1,,,,,,,,,,,,,orange,circle
46.0,1.0,1.0,0.0,2.0,2.0,309.4055699184537,4.0,1.0,part_1,,,,,,,,,,,,,orange,circle
413.0,8.0,4.0,1.0,3.0,3.0,376.9393449183553,4.0,1.0,part_1,,,,,,,,,,,,,white,hexagon
387.0,4.0,4.0,0.0,1.0,1.0,344.9824152048677,4.0,1.0,part_1,,,,,,,,,,,,,cyan,cross
197.0,3.0,3.0,0.0,1.0,1.0,311.1000109929591,4.0,1.0,part_1,,,,,,,,,,,,,green,I
413.0,8.0,4.0,1.0,3.0,3.0,290.6701350584626,4.0,1.0,part_1,,,,,,,,,,,,,white,hexagon
0.0,6.0,0.0,1.0,3.0,3.0,344.326855847612,4.0,1.0,part_1,,,,,,,,,,,,,yellow,triangle
0.0,1.0,0.0,0.0,3.0,3.0,313.0901250988245,4.0,1.0,part_1,,,,,,,,,,,,,orange,circle
0.0,8.0,0.0,1.0,4.0,4.0,367.0635409653187,4.0,1.0,part_1,,,,,,,,,,,,,white,hexagon
38.0,1.0,1.0,0.0,3.0,3.0,334.6584790851921,4.0,1.0,part_1,,,,,,,,,,,,,orange,circle
89.0,6.0,2.0,1.0,2.0,2.0,415.8163261599839,4.0,1.0,part_1,,,,,,,,,,,,,yellow,triangle
387.0,8.0,4.0,1.0,4.0,4.0,335.3549118619412,4.0,1.0,part_1,,,,,,,,,,,,,white,hexagon
67.0,5.0,1.0,1.0,4.0,4.0,303.8239879533648,4.0,1.0,part_1,,,,,,,,,,,,,blue,square
111.0,2.0,2.0,0.0,1.0,1.0,403.9423309732228,4.0,1.0,part_1,,,,,,,,,,,,,gray,flipped triangle
39.0,5.0,1.0,1.0,2.0,2.0,518.8330209348351,4.0,1.0,part_1,,,,,,,,,,,,,blue,square
28.0,5.0,1.0,1.0,2.0,2.0,440.5018999241292,4.0,1.0,part_1,,,,,,,,,,,,,blue,square
55.0,5.0,1.0,1.0,2.0,2.0,296.738781966269,4.0,1.0,part_1,,,,,,,,,,,,,blue,square
0.0,1.0,0.0,0.0,1.0,1.0,327.9070060234517,4.0,1.0,part_1,,,,,,,,,,,,,orange,circle
0.0,1.0,0.0,0.0,3.0,3.0,341.7816888540983,4.0,1.0,part_1,,,,,,,,,,,,,orange,circle
218.0,3.0,3.0,0.0,4.0,4.0,511.57925580628216,4.0,1.0,part_1,,,,,,,,,,,,,green,I
121.0,6.0,2.0,1.0,2.0,2.0,308.2829560153186,4.0,1.0,part_1,,,,,,,,,,,,,yellow,triangle
101.0,6.0,2.0,1.0,2.0,2.0,296.6324961744249,4.0,1.0,part_1,,,,,,,,,,,,,yellow,triangle
58.0,5.0,1.0,1.0,3.0,3.0,309.3121561687439,4.0,1.0,part_1,,,,,,,,,,,,,blue,square
79.0,2.0,2.0,0.0,2.0,2.0,319.3973661400378,4.0,1.0,part_1,,,,,,,,,,,,,gray,flipped triangle
88.0,6.0,2.0,1.0,4.0,4.0,333.3319760859012,4.0,1.0,part_1,,,,,,,,,,,,,yellow,triangle
26.0,1.0,1.0,0.0,3.0,3.0,500.4184690769762,4.0,1.0,part_1,,,,,,,,,,,,,orange,circle
33.0,1.0,1.0,0.0,2.0,2.0,334.6301130950451,4.0,1.0,part_1,,,,,,,,,,,,,orange,circle
391.0,4.0,4.0,0.0,3.0,3.0,303.1356441788375,4.0,1.0,part_1,,,,,,,,,,,,,cyan,cross
0.0,4.0,0.0,0.0,4.0,4.0,291.2674129474908,4.0,1.0,part_1,,,,,,,,,,,,,cyan,cross
0.0,8.0,0.0,1.0,2.0,2.0,322.3591831047088,4.0,1.0,part_1,,,,,,,,,,,,,white,hexagon
186.0,3.0,3.0,0.0,2.0,2.0,334.9432297982275,4.0,1.0,part_1,,,,,,,,,,,,,green,I
400.0,8.0,4.0,1.0,4.0,4.0,350.2095800358802,4.0,1.0,part_1,,,,,,,,,,,,,white,hexagon
412.0,8.0,4.0,1.0,4.0,4.0,339.3906818237155,4.0,1.0,part_1,,,,,,,,,,,,,white,hexagon
54.0,1.0,1.0,0.0,4.0,4.0,326.2798050418496,4.0,1.0,part_1,,,,,,,,,,,,,orange,circle
103.0,2.0,2.0,0.0,3.0,3.0,316.1459660623222,4.0,1.0,part_1,,,,,,,,,,,,,gray,flipped triangle
0.0,3.0,0.0,0.0,2.0,2.0,306.1813751701265,4.0,1.0,part_1,,,,,,,,,,,,,green,I
0.0,6.0,0.0,1.0,1.0,1.0,296.3689339812845,4.0,1.0,part_1,,,,,,,,,,,,,yellow,triangle
104.0,6.0,2.0,1.0,3.0,3.0,351.787893101573,4.0,1.0,part_1,,,,,,,,,,,,,yellow,triangle
46.0,5.0,1.0,1.0,3.0,3.0,316.49548583664,4.0,1.0,part_1,,,,,,,,,,,,,blue,square
0.0,5.0,0.0,1.0,2.0,2.0,372.7891538292169,4.0,1.0,part_1,,,,,,,,,,,,,blue,square
400.0,4.0,4.0,0.0,4.0,4.0,295.1345851179212,4.0,1.0,part_1,,,,,,,,,,,,,cyan,cross
224.0,3.0,3.0,0.0,3.0,3.0,308.8902179151773,4.0,1.0,part_1,,,,,,,,,,,,,green,I
0.0,6.0,0.0,1.0,2.0,2.0,340.8768998924643,4.0,1.0,part_1,,,,,,,,,,,,,yellow,triangle
203.0,3.0,3.0,0.0,1.0,1.0,287.6100521534681,4.0,1.0,part_1,,,,,,,,,,,,,green,I
120.0,6.0,2.0,1.0,3.0,3.0,321.2180088739842,4.0,1.0,part_1,,,,,,,,,,,,,yellow,triangle
91.0,2.0,2.0,0.0,1.0,1.0,356.0680290684104,4.0,1.0,part_1,,,,,,,,,,,,,gray,flipped triangle
60.0,5.0,1.0,1.0,1.0,1.0,279.4607509858906,4.0,1.0,part_1,,,,,,,,,,,,,blue,square
41.0,5.0,1.0,1.0,2.0,2.0,356.0960469767451,4.0,1.0,part_1,,,,,,,,,,,,,blue,square
58.0,5.0,1.0,1.0,4.0,4.0,347.1872038207948,4.0,1.0,part_1,,,,,,,,,,,,,blue,square
105.0,6.0,2.0,1.0,4.0,4.0,334.122106898576,4.0,1.0,part_1,,,,,,,,,,,,,yellow,triangle
0.0,6.0,0.0,1.0,4.0,4.0,346.3542249519378,4.0,1.0,part_1,,,,,,,,,,,,,yellow,triangle
397.0,8.0,4.0,1.0,2.0,2.0,371.2213898543268,4.0,1.0,part_1,,,,,,,,,,,,,white,hexagon
56.0,5.0,1.0,1.0,3.0,3.0,314.5371831487864,4.0,1.0,part_1,,,,,,,,,,,,,blue,square
0.0,5.0,0.0,1.0,4.0,4.0,303.4049491398036,4.0,1.0,part_1,,,,,,,,,,,,,blue,square
119.0,2.0,2.0,0.0,2.0,2.0,314.5895570050925,4.0,1.0,part_1,,,,,,,,,,,,,gray,flipped triangle
34.0,5.0,1.0,1.0,4.0,4.0,281.3345969188958,4.0,1.0,part_1,,,,,,,,,,,,,blue,square
0.0,7.0,0.0,1.0,1.0,1.0,270.1900918036699,4.0,1.0,part_1,,,,,,,,,,,,,magenta,diamond
205.0,3.0,3.0,0.0,3.0,3.0,350.3588978201151,4.0,1.0,part_1,,,,,,,,,,,,,green,I
51.0,1.0,1.0,0.0,3.0,3.0,361.355691915378,4.0,1.0,part_1,,,,,,,,,,,,,orange,circle
182.0,3.0,3.0,0.0,3.0,3.0,590.9813598264009,4.0,1.0,part_1,,,,,,,,,,,,,green,I
181.0,3.0,3.0,0.0,1.0,1.0,264.2811639234423,4.0,1.0,part_1,,,,,,,,,,,,,green,I
38.0,5.0,1.0,1.0,1.0,1.0,309.1061587911099,4.0,1.0,part_1,,,,,,,,,,,,,blue,square
183.0,3.0,3.0,0.0,3.0,3.0,297.0571010373533,4.0,1.0,part_1,,,,,,,,,,,,,green,I
56.0,1.0,1.0,0.0,3.0,3.0,333.8757969904691,4.0,1.0,part_1,,,,,,,,,,,,,orange,circle
210.0,7.0,3.0,1.0,4.0,4.0,333.7687060702592,4.0,1.0,part_1,,,,,,,,,,,,,magenta,diamond
47.0,5.0,1.0,1.0,3.0,3.0,320.0059649534523,4.0,1.0,part_1,,,,,,,,,,,,,blue,square
88.0,2.0,2.0,0.0,3.0,3.0,332.8088091220706,4.0,1.0,part_1,,,,,,,,,,,,,gray,flipped triangle
397.0,8.0,4.0,1.0,4.0,4.0,300.757068907842,4.0,1.0,part_1,,,,,,,,,,,,,white,hexagon
110.0,6.0,2.0,1.0,1.0,1.0,267.3652549274266,4.0,1.0,part_1,,,,,,,,,,,,,yellow,triangle
0.0,3.0,0.0,0.0,3.0,3.0,349.1721639875322,4.0,1.0,part_1,,,,,,,,,,,,,green,I
0.0,8.0,0.0,1.0,4.0,4.0,291.7066859081387,4.0,1.0,part_1,,,,,,,,,,,,,white,hexagon
180.0,3.0,3.0,0.0,2.0,2.0,346.6470278799534,4.0,1.0,part_1,,,,,,,,,,,,,green,I
382.0,8.0,4.0,1.0,2.0,2.0,370.5924740061164,4.0,2.0,part_1,,,,,,,,,,,,,white,hexagon
0.0,5.0,0.0,1.0,3.0,3.0,382.2944988496601,4.0,1.0,part_1,,,,,,,,,,,,,blue,square
406.0,4.0,4.0,0.0,2.0,2.0,306.44437298178667,4.0,1.0,part_1,,,,,,,,,,,,,cyan,cross
208.0,7.0,3.0,1.0,1.0,1.0,281.6027249209583,4.0,1.0,part_1,,,,,,,,,,,,,magenta,diamond
0.0,2.0,2.0,0.0,5.0,5.0,411.8056781589985,1.0,0.0,part_2,go,259.0,259.0,1.0,,,,,,,,,gray,flipped triangle
0.0,3.0,3.0,0.0,5.0,5.0,469.5212300866842,1.0,0.0,part_2,go,259.0,259.0,1.0,,,,,,,,,green,I
0.0,1.0,1.0,0.0,5.0,5.0,349.0344989113509,1.0,0.0,part_2,go,259.0,259.0,1.0,,,,,,,,,orange,circle
0.0,1.0,1.0,0.0,6.0,6.0,539.6511408034712,1.0,0.0,part_2,go,259.0,259.0,1.0,,,,,,,,,orange,circle
0.0,8.0,4.0,1.0,5.0,5.0,526.1898499447852,1.0,0.0,part_2,stop,259.0,259.0,3.0,,,,,,,,,white,hexagon
0.0,1.0,1.0,0.0,5.0,5.0,416.0628318786621,1.0,0.0,part_2,go,209.0,259.0,1.0,,,,,,,,,orange,circle
0.0,8.0,4.0,1.0,6.0,6.0,633.0187229905277,1.0,0.0,part_2,go,209.0,259.0,1.0,,,,,,,,,white,hexagon
0.0,4.0,4.0,0.0,5.0,5.0,676.5992830041796,1.0,0.0,part_2,go,209.0,259.0,1.0,,,,,,,,,cyan,cross
0.0,4.0,4.0,0.0,5.0,5.0,575.565735111013,1.0,0.0,part_2,go,209.0,259.0,1.0,,,,,,,,,cyan,cross
0.0,7.0,3.0,1.0,6.0,0.0,0.0,1.0,0.0,part_2,stop,209.0,259.0,4.0,,,,,,,,,magenta,diamond
0.0,1.0,1.0,0.0,5.0,5.0,478.6336179822683,1.0,0.0,part_2,go,209.0,309.0,1.0,,,,,,,,,orange,circle
0.0,8.0,4.0,1.0,5.0,0.0,0.0,1.0,0.0,part_2,stop,209.0,309.0,4.0,,,,,,,,,white,hexagon
0.0,7.0,3.0,1.0,5.0,5.0,614.8045700974762,1.0,0.0,part_2,go,259.0,309.0,1.0,,,,,,,,,magenta,diamond
0.0,1.0,1.0,0.0,6.0,6.0,658.101016888395,1.0,0.0,part_2,go,259.0,309.0,1.0,,,,,,,,,orange,circle
0.0,1.0,1.0,0.0,6.0,6.0,471.368522150442,1.0,0.0,part_2,go,259.0,309.0,1.0,,,,,,,,,orange,circle
0.0,4.0,4.0,0.0,5.0,5.0,580.8414381463081,1.0,0.0,part_2,go,259.0,309.0,1.0,,,,,,,,,cyan,cross
0.0,6.0,2.0,1.0,6.0,6.0,581.859938101843,1.0,0.0,part_2,go,259.0,309.0,1.0,,,,,,,,,yellow,triangle
0.0,7.0,3.0,1.0,5.0,0.0,0.0,1.0,0.0,part_2,stop,259.0,309.0,4.0,,,,,,,,,magenta,diamond
0.0,8.0,4.0,1.0,5.0,5.0,428.609725786373,1.0,0.0,part_2,stop,309.0,309.0,3.0,,,,,,,,,white,hexagon
0.0,5.0,1.0,1.0,5.0,0.0,0.0,1.0,0.0,part_2,stop,259.0,309.0,4.0,,,,,,,,,blue,square
0.0,1.0,1.0,0.0,5.0,5.0,584.853749955073,1.0,0.0,part_2,go,309.0,309.0,1.0,,,,,,,,,orange,circle
0.0,4.0,4.0,0.0,6.0,6.0,800.5778130609542,1.0,0.0,part_2,go,309.0,309.0,1.0,,,,,,,,,cyan,cross
0.0,1.0,1.0,0.0,6.0,6.0,746.8980080448091,1.0,0.0,part_2,go,309.0,309.0,1.0,,,,,,,,,orange,circle
0.0,2.0,2.0,0.0,5.0,5.0,801.8798921257257,1.0,0.0,part_2,go,309.0,309.0,1.0,,,,,,,,,gray,flipped triangle
0.0,4.0,4.0,0.0,6.0,6.0,700.8616558741778,1.0,0.0,part_2,go,309.0,309.0,1.0,,,,,,,,,cyan,cross
0.0,8.0,4.0,1.0,6.0,0.0,0.0,1.0,0.0,part_2,stop,309.0,309.0,4.0,,,,,,,,,white,hexagon
0.0,5.0,1.0,1.0,6.0,0.0,0.0,1.0,0.0,part_2,stop,309.0,359.0,4.0,,,,,,,,,blue,square
0.0,5.0,1.0,1.0,6.0,0.0,0.0,1.0,0.0,part_2,stop,309.0,409.0,4.0,,,,,,,,,blue,square
0.0,7.0,3.0,1.0,6.0,6.0,762.925063027069,1.0,0.0,part_2,go,309.0,459.0,1.0,,,,,,,,,magenta,diamond
0.0,2.0,2.0,0.0,6.0,6.0,628.8522528484464,1.0,0.0,part_2,go,309.0,459.0,1.0,,,,,,,,,gray,flipped triangle
0.0,5.0,1.0,1.0,6.0,0.0,0.0,1.0,0.0,part_2,stop,309.0,459.0,4.0,,,,,,,,,blue,square
0.0,7.0,3.0,1.0,6.0,6.0,471.8176028691232,1.0,0.0,part_2,stop,309.0,509.0,3.0,,,,,,,,,magenta,diamond
0.0,1.0,1.0,0.0,5.0,5.0,689.0388100873679,1.0,0.0,part_2,go,309.0,459.0,1.0,,,,,,,,,orange,circle
0.0,4.0,4.0,0.0,6.0,6.0,768.6456849332899,1.0,0.0,part_2,go,309.0,459.0,1.0,,,,,,,,,cyan,cross
0.0,1.0,1.0,0.0,6.0,6.0,869.0122738480568,1.0,0.0,part_2,go,309.0,459.0,1.0,,,,,,,,,orange,circle
0.0,5.0,1.0,1.0,6.0,0.0,0.0,1.0,0.0,part_2,stop,309.0,459.0,4.0,,,,,,,,,blue,square
0.0,5.0,1.0,1.0,5.0,5.0,743.736770004034,2.0,0.0,part_2,go,309.0,509.0,1.0,,,,,,,,,blue,square
0.0,2.0,2.0,0.0,5.0,5.0,757.2012902237475,2.0,0.0,part_2,go,309.0,509.0,1.0,,,,,,,,,gray,flipped triangle
0.0,8.0,4.0,1.0,6.0,0.0,0.0,2.0,0.0,part_2,stop,309.0,509.0,4.0,,,,,,,,,white,hexagon
0.0,5.0,1.0,1.0,6.0,6.0,646.785331889987,2.0,0.0,part_2,stop,309.0,559.0,3.0,,,,,,,,,blue,square
0.0,7.0,3.0,1.0,5.0,0.0,0.0,2.0,0.0,part_2,stop,309.0,509.0,4.0,,,,,,,,,magenta,diamond
0.0,3.0,3.0,0.0,6.0,6.0,769.4830410182476,2.0,0.0,part_2,go,359.0,509.0,1.0,,,,,,,,,green,I
0.0,6.0,2.0,1.0,5.0,0.0,0.0,2.0,0.0,part_2,stop,359.0,509.0,4.0,,,,,,,,,yellow,triangle
0.0,5.0,1.0,1.0,5.0,0.0,0.0,2.0,0.0,part_2,stop,409.0,509.0,4.0,,,,,,,,,blue,square
0.0,2.0,2.0,0.0,6.0,6.0,638.9452398288995,2.0,0.0,part_2,go,459.0,509.0,1.0,,,,,,,,,gray,flipped triangle
0.0,1.0,1.0,0.0,5.0,5.0,807.079441845417,2.0,0.0,part_2,go,459.0,509.0,1.0,,,,,,,,,orange,circle
0.0,1.0,1.0,0.0,6.0,6.0,729.9627379979938,2.0,0.0,part_2,go,459.0,509.0,1.0,,,,,,,,,orange,circle
0.0,6.0,2.0,1.0,5.0,0.0,0.0,2.0,0.0,part_2,stop,459.0,509.0,4.0,,,,,,,,,yellow,triangle
0.0,8.0,4.0,1.0,6.0,0.0,0.0,2.0,0.0,part_2,stop,509.0,509.0,4.0,,,,,,,,,white,hexagon
0.0,5.0,1.0,1.0,6.0,0.0,0.0,2.0,0.0,part_2,stop,509.0,559.0,4.0,,,,,,,,,blue,square
0.0,1.0,1.0,0.0,6.0,6.0,666.0822101403028,2.0,0.0,part_2,go,509.0,609.0,1.0,,,,,,,,,orange,circle
0.0,3.0,3.0,0.0,5.0,5.0,915.6206739135088,2.0,0.0,part_2,go,509.0,609.0,1.0,,,,,,,,,green,I
0.0,6.0,2.0,1.0,6.0,6.0,996.0676759947092,2.0,0.0,part_2,go,509.0,609.0,1.0,,,,,,,,,yellow,triangle
0.0,2.0,2.0,0.0,6.0,6.0,1073.106436058879,2.0,0.0,part_2,go,509.0,609.0,1.0,,,,,,,,,gray,flipped triangle
0.0,8.0,4.0,1.0,6.0,0.0,0.0,2.0,0.0,part_2,stop,509.0,609.0,4.0,,,,,,,,,white,hexagon
0.0,1.0,1.0,0.0,5.0,5.0,626.0703110601753,2.0,0.0,part_2,go,509.0,659.0,1.0,,,,,,,,,orange,circle
0.0,2.0,2.0,0.0,5.0,5.0,1063.6517370585352,2.0,0.0,part_2,go,509.0,659.0,1.0,,,,,,,,,gray,flipped triangle
0.0,8.0,4.0,1.0,5.0,0.0,0.0,2.0,0.0,part_2,stop,509.0,659.0,4.0,,,,,,,,,white,hexagon
0.0,7.0,3.0,1.0,5.0,0.0,0.0,2.0,0.0,part_2,stop,559.0,659.0,4.0,,,,,,,,,magenta,diamond
0.0,4.0,4.0,0.0,5.0,5.0,942.9459390230476,2.0,0.0,part_2,go,609.0,659.0,1.0,,,,,,,,,cyan,cross
0.0,6.0,2.0,1.0,5.0,0.0,0.0,2.0,0.0,part_2,stop,609.0,659.0,4.0,,,,,,,,,yellow,triangle
0.0,7.0,3.0,1.0,5.0,0.0,0.0,2.0,0.0,part_2,stop,659.0,659.0,4.0,,,,,,,,,magenta,diamond
0.0,1.0,1.0,0.0,6.0,6.0,802.0888431929052,2.0,0.0,part_2,go,709.0,659.0,1.0,,,,,,,,,orange,circle
0.0,6.0,2.0,1.0,5.0,0.0,0.0,2.0,0.0,part_2,stop,709.0,659.0,4.0,,,,,,,,,yellow,triangle
0.0,8.0,4.0,1.0,6.0,0.0,0.0,2.0,0.0,part_2,stop,759.0,659.0,4.0,,,,,,,,,white,hexagon
0.0,7.0,3.0,1.0,6.0,0.0,0.0,2.0,0.0,part_2,stop,759.0,709.0,4.0,,,,,,,,,magenta,diamond
0.0,1.0,1.0,0.0,6.0,6.0,939.3554741982372,2.0,0.0,part_2,go,759.0,759.0,1.0,,,,,,,,,orange,circle
0.0,3.0,3.0,0.0,6.0,6.0,1041.1819270811975,2.0,0.0,part_2,go,759.0,759.0,1.0,,,,,,,,,green,I
0.0,4.0,4.0,0.0,6.0,6.0,1051.3345447834579,2.0,0.0,part_2,go,759.0,759.0,1.0,,,,,,,,,cyan,cross
0.0,2.0,2.0,0.0,6.0,6.0,1062.9142818506807,2.0,0.0,part_2,go,759.0,759.0,1.0,,,,,,,,,gray,flipped triangle
0.0,2.0,2.0,0.0,6.0,6.0,1278.144160984084,2.0,0.0,part_2,go,759.0,759.0,1.0,,,,,,,,,gray,flipped triangle
0.0,6.0,2.0,1.0,6.0,0.0,0.0,2.0,0.0,part_2,stop,759.0,759.0,4.0,,,,,,,,,yellow,triangle
0.0,6.0,2.0,1.0,6.0,6.0,977.557489881292,3.0,0.0,part_2,go,759.0,809.0,1.0,,,,,,,,,yellow,triangle
0.0,8.0,4.0,1.0,6.0,6.0,1010.9415110200644,3.0,0.0,part_2,go,759.0,809.0,1.0,,,,,,,,,white,hexagon
0.0,2.0,2.0,0.0,6.0,6.0,775.398544035852,3.0,0.0,part_2,go,759.0,809.0,1.0,,,,,,,,,gray,flipped triangle
0.0,5.0,1.0,1.0,5.0,5.0,880.3410620894283,3.0,0.0,part_2,go,759.0,809.0,1.0,,,,,,,,,blue,square
0.0,6.0,2.0,1.0,6.0,6.0,844.3526260089129,3.0,0.0,part_2,go,759.0,809.0,1.0,,,,,,,,,yellow,triangle
0.0,3.0,3.0,0.0,6.0,6.0,574.8723340220749,3.0,0.0,part_2,go,759.0,809.0,1.0,,,,,,,,,green,I
0.0,6.0,2.0,1.0,5.0,5.0,812.9534991458058,3.0,0.0,part_2,stop,759.0,809.0,3.0,,,,,,,,,yellow,triangle
0.0,5.0,1.0,1.0,6.0,6.0,692.7340410184115,3.0,0.0,part_2,stop,709.0,809.0,3.0,,,,,,,,,blue,square
0.0,2.0,2.0,0.0,6.0,6.0,884.3410541303456,3.0,0.0,part_2,go,709.0,759.0,1.0,,,,,,,,,gray,flipped triangle
0.0,8.0,4.0,1.0,5.0,0.0,0.0,3.0,0.0,part_2,stop,709.0,759.0,4.0,,,,,,,,,white,hexagon
0.0,2.0,2.0,0.0,6.0,6.0,1043.37946488522,3.0,0.0,part_2,go,759.0,759.0,1.0,,,,,,,,,gray,flipped triangle
0.0,3.0,3.0,0.0,6.0,6.0,1032.5272059999406,3.0,0.0,part_2,go,759.0,759.0,1.0,,,,,,,,,green,I
0.0,6.0,2.0,1.0,5.0,5.0,303.3313830383122,3.0,0.0,part_2,stop,759.0,759.0,3.0,,,,,,,,,yellow,triangle
0.0,8.0,4.0,1.0,5.0,0.0,0.0,3.0,0.0,part_2,stop,709.0,759.0,4.0,,,,,,,,,white,hexagon
0.0,8.0,4.0,1.0,6.0,6.0,1203.148300992325,3.0,0.0,part_2,go,759.0,759.0,1.0,,,,,,,,,white,hexagon
0.0,6.0,2.0,1.0,5.0,0.0,0.0,3.0,0.0,part_2,stop,759.0,759.0,4.0,,,,,,,,,yellow,triangle
0.0,6.0,2.0,1.0,6.0,0.0,0.0,3.0,0.0,part_2,stop,809.0,759.0,4.0,,,,,,,,,yellow,triangle
0.0,7.0,3.0,1.0,5.0,5.0,967.392351012677,3.0,0.0,part_2,stop,809.0,809.0,3.0,,,,,,,,,magenta,diamond
0.0,5.0,1.0,1.0,5.0,5.0,1024.3043368682263,3.0,0.0,part_2,go,759.0,809.0,1.0,,,,,,,,,blue,square
0.0,4.0,4.0,0.0,5.0,0.0,0.0,3.0,0.0,part_2,go,759.0,809.0,5.0,,,,,,,,,cyan,cross
0.0,1.0,1.0,0.0,6.0,0.0,0.0,3.0,0.0,part_2,go,759.0,809.0,5.0,,,,,,,,,orange,circle
0.0,7.0,3.0,1.0,6.0,6.0,565.9219741355628,3.0,0.0,part_2,stop,759.0,809.0,3.0,,,,,,,,,magenta,diamond
0.0,4.0,4.0,0.0,6.0,6.0,465.9037780947983,3.0,0.0,part_2,go,759.0,759.0,1.0,,,,,,,,,cyan,cross
0.0,7.0,3.0,1.0,5.0,5.0,590.0345500558615,3.0,0.0,part_2,stop,759.0,759.0,3.0,,,,,,,,,magenta,diamond
0.0,7.0,3.0,1.0,5.0,5.0,962.4680110719056,3.0,0.0,part_2,go,709.0,759.0,1.0,,,,,,,,,magenta,diamond
0.0,6.0,2.0,1.0,6.0,6.0,480.5179820396006,3.0,0.0,part_2,stop,709.0,759.0,3.0,,,,,,,,,yellow,triangle
0.0,5.0,1.0,1.0,5.0,0.0,0.0,3.0,0.0,part_2,stop,709.0,709.0,4.0,,,,,,,,,blue,square
0.0,8.0,4.0,1.0,5.0,0.0,0.0,3.0,0.0,part_2,stop,759.0,709.0,4.0,,,,,,,,,white,hexagon
0.0,8.0,4.0,1.0,6.0,6.0,953.7554080598056,3.0,0.0,part_2,go,809.0,709.0,1.0,,,,,,,,,white,hexagon
0.0,3.0,3.0,0.0,6.0,6.0,1124.7732900083065,3.0,0.0,part_2,go,809.0,709.0,1.0,,,,,,,,,green,I
0.0,7.0,3.0,1.0,5.0,0.0,0.0,3.0,0.0,part_2,stop,809.0,709.0,4.0,,,,,,,,,magenta,diamond
0.0,4.0,4.0,0.0,6.0,6.0,1384.084743913263,3.0,0.0,part_2,go,859.0,709.0,1.0,,,,,,,,,cyan,cross
0.0,1.0,1.0,0.0,5.0,5.0,1104.122520890087,3.0,0.0,part_2,go,859.0,709.0,1.0,,,,,,,,,orange,circle
0.0,5.0,1.0,1.0,6.0,0.0,0.0,3.0,0.0,part_2,stop,859.0,709.0,4.0,,,,,,,,,blue,square
0.0,3.0,3.0,0.0,6.0,6.0,994.8767181485892,3.0,0.0,part_2,go,859.0,759.0,1.0,,,,,,,,,green,I
0.0,4.0,4.0,0.0,5.0,5.0,1322.9732508771122,3.0,0.0,part_2,go,859.0,759.0,1.0,,,,,,,,,cyan,cross
0.0,2.0,2.0,0.0,5.0,5.0,924.6891729999334,4.0,0.0,part_2,go,859.0,759.0,1.0,,,,,,,,,gray,flipped triangle
0.0,6.0,2.0,1.0,5.0,5.0,996.2886411231012,4.0,0.0,part_2,stop,859.0,759.0,3.0,,,,,,,,,yellow,triangle
0.0,7.0,3.0,1.0,6.0,6.0,893.8240280840546,4.0,0.0,part_2,go,809.0,759.0,1.0,,,,,,,,,magenta,diamond
0.0,1.0,1.0,0.0,6.0,6.0,825.1204339321703,4.0,0.0,part_2,go,809.0,759.0,1.0,,,,,,,,,orange,circle
0.0,2.0,2.0,0.0,5.0,5.0,817.9021738469601,4.0,0.0,part_2,go,809.0,759.0,1.0,,,,,,,,,gray,flipped triangle
0.0,6.0,2.0,1.0,5.0,5.0,647.7344250306487,4.0,0.0,part_2,stop,809.0,759.0,3.0,,,,,,,,,yellow,triangle
0.0,3.0,3.0,0.0,5.0,5.0,749.3722049985081,4.0,0.0,part_2,go,759.0,759.0,1.0,,,,,,,,,green,I
0.0,3.0,3.0,0.0,5.0,5.0,1113.1697550881654,4.0,0.0,part_2,go,759.0,759.0,1.0,,,,,,,,,green,I
0.0,6.0,2.0,1.0,6.0,6.0,753.1208929140121,4.0,0.0,part_2,stop,759.0,759.0,3.0,,,,,,,,,yellow,triangle
0.0,2.0,2.0,0.0,6.0,6.0,1284.4879319891334,4.0,0.0,part_2,go,759.0,709.0,1.0,,,,,,,,,gray,flipped triangle
0.0,7.0,3.0,1.0,6.0,6.0,662.637391127646,4.0,0.0,part_2,stop,759.0,709.0,3.0,,,,,,,,,magenta,diamond
0.0,6.0,2.0,1.0,6.0,6.0,745.095418067649,4.0,0.0,part_2,stop,759.0,659.0,3.0,,,,,,,,,yellow,triangle
0.0,3.0,3.0,0.0,6.0,6.0,1046.817229129374,4.0,0.0,part_2,go,759.0,609.0,1.0,,,,,,,,,green,I
0.0,2.0,2.0,0.0,5.0,5.0,905.1788551732898,4.0,0.0,part_2,go,759.0,609.0,1.0,,,,,,,,,gray,flipped triangle
0.0,3.0,3.0,0.0,5.0,5.0,1141.0352408420297,4.0,0.0,part_2,go,759.0,609.0,1.0,,,,,,,,,green,I
0.0,4.0,4.0,0.0,5.0,5.0,1355.085771065205,4.0,0.0,part_2,go,759.0,609.0,1.0,,,,,,,,,cyan,cross
0.0,8.0,4.0,1.0,6.0,6.0,713.4078871458769,4.0,0.0,part_2,stop,759.0,609.0,3.0,,,,,,,,,white,hexagon
0.0,8.0,4.0,1.0,5.0,5.0,1043.3225180022418,4.0,0.0,part_2,go,759.0,559.0,1.0,,,,,,,,,white,hexagon
0.0,7.0,3.0,1.0,6.0,6.0,1145.782213890925,4.0,0.0,part_2,go,759.0,559.0,1.0,,,,,,,,,magenta,diamond
0.0,1.0,1.0,0.0,5.0,5.0,1045.5733470153064,4.0,0.0,part_2,go,759.0,559.0,1.0,,,,,,,,,orange,circle
0.0,3.0,3.0,0.0,6.0,6.0,1461.7577840108424,4.0,0.0,part_2,go,759.0,559.0,1.0,,,,,,,,,green,I
0.0,2.0,2.0,0.0,6.0,6.0,1158.09137490578,4.0,0.0,part_2,go,759.0,559.0,1.0,,,,,,,,,gray,flipped triangle
0.0,5.0,1.0,1.0,5.0,0.0,0.0,4.0,0.0,part_2,stop,759.0,559.0,4.0,,,,,,,,,blue,square
0.0,7.0,3.0,1.0,6.0,0.0,0.0,4.0,0.0,part_2,stop,809.0,559.0,4.0,,,,,,,,,magenta,diamond
0.0,3.0,3.0,0.0,5.0,5.0,990.2617919724436,4.0,0.0,part_2,go,809.0,609.0,1.0,,,,,,,,,green,I
0.0,8.0,4.0,1.0,5.0,5.0,1250.3920458257198,4.0,0.0,part_2,go,809.0,609.0,1.0,,,,,,,,,white,hexagon
0.0,6.0,2.0,1.0,5.0,0.0,0.0,4.0,0.0,part_2,stop,809.0,609.0,4.0,,,,,,,,,yellow,triangle
0.0,2.0,2.0,0.0,5.0,5.0,893.926520831883,4.0,0.0,part_2,go,859.0,609.0,1.0,,,,,,,,,gray,flipped triangle
0.0,7.0,3.0,1.0,5.0,0.0,0.0,4.0,0.0,part_2,stop,859.0,609.0,4.0,,,,,,,,,magenta,diamond
0.0,4.0,4.0,0.0,6.0,6.0,1074.9448391143233,4.0,0.0,part_2,go,909.0,609.0,1.0,,,,,,,,,cyan,cross
0.0,8.0,4.0,1.0,5.0,0.0,0.0,4.0,0.0,part_2,stop,909.0,609.0,4.0,,,,,,,,,white,hexagon
0.0,4.0,4.0,0.0,6.0,6.0,605.604609940201,4.0,0.0,part_2,go,959.0,609.0,1.0,,,,,,,,,cyan,cross
0.0,6.0,2.0,1.0,6.0,0.0,0.0,4.0,0.0,part_2,stop,959.0,609.0,4.0,,,,,,,,,yellow,triangle
0.0,2.0,2.0,0.0,6.0,6.0,1010.9936990775168,4.0,0.0,part_2,go,959.0,659.0,1.0,,,,,,,,,gray,flipped triangle
0.0,5.0,1.0,1.0,6.0,0.0,0.0,4.0,0.0,part_2,stop,959.0,659.0,4.0,,,,,,,,,blue,square
0.0,3.0,3.0,0.0,5.0,5.0,964.8444780614228,4.0,0.0,part_2,go,959.0,709.0,1.0,,,,,,,,,green,I
0.0,5.0,1.0,1.0,5.0,5.0,951.0246750432998,5.0,0.0,part_2,stop,959.0,709.0,3.0,,,,,,,,,blue,square
0.0,3.0,3.0,0.0,5.0,5.0,737.2466258239001,5.0,0.0,part_2,go,909.0,709.0,1.0,,,,,,,,,green,I
0.0,2.0,2.0,0.0,5.0,5.0,851.7733451444656,5.0,0.0,part_2,go,909.0,709.0,1.0,,,,,,,,,gray,flipped triangle
0.0,5.0,1.0,1.0,5.0,5.0,911.0008419957012,5.0,0.0,part_2,go,909.0,709.0,1.0,,,,,,,,,blue,square
0.0,3.0,3.0,0.0,6.0,6.0,515.2079730760306,5.0,0.0,part_2,go,909.0,709.0,1.0,,,,,,,,,green,I
0.0,2.0,2.0,0.0,5.0,5.0,854.1208968963474,5.0,0.0,part_2,go,909.0,709.0,1.0,,,,,,,,,gray,flipped triangle
0.0,8.0,4.0,1.0,5.0,5.0,1002.7820251416415,5.0,0.0,part_2,stop,909.0,709.0,3.0,,,,,,,,,white,hexagon
0.0,5.0,1.0,1.0,5.0,5.0,970.4080859664828,5.0,0.0,part_2,stop,859.0,709.0,3.0,,,,,,,,,blue,square
0.0,8.0,4.0,1.0,5.0,5.0,757.2719729505479,5.0,0.0,part_2,stop,809.0,709.0,3.0,,,,,,,,,white,hexagon
0.0,3.0,3.0,0.0,6.0,6.0,834.6630269661546,5.0,0.0,part_2,go,759.0,709.0,1.0,,,,,,,,,green,I
0.0,3.0,3.0,0.0,5.0,5.0,554.4696820434183,5.0,0.0,part_2,go,759.0,709.0,1.0,,,,,,,,,green,I
0.0,5.0,1.0,1.0,6.0,6.0,794.1905539482832,5.0,0.0,part_2,stop,759.0,709.0,3.0,,,,,,,,,blue,square
0.0,1.0,1.0,0.0,6.0,6.0,870.5042188521475,5.0,0.0,part_2,go,759.0,659.0,1.0,,,,,,,,,orange,circle
0.0,2.0,2.0,0.0,5.0,5.0,1179.0215279906988,5.0,0.0,part_2,go,759.0,659.0,1.0,,,,,,,,,gray,flipped triangle
0.0,7.0,3.0,1.0,5.0,5.0,898.3467910438776,5.0,0.0,part_2,stop,759.0,659.0,3.0,,,,,,,,,magenta,diamond
0.0,8.0,4.0,1.0,6.0,6.0,996.4398578740656,5.0,0.0,part_2,go,709.0,659.0,1.0,,,,,,,,,white,hexagon
0.0,7.0,3.0,1.0,6.0,0.0,0.0,5.0,0.0,part_2,stop,709.0,659.0,4.0,,,,,,,,,magenta,diamond
0.0,2.0,2.0,0.0,6.0,6.0,1159.539154963568,5.0,0.0,part_2,go,709.0,709.0,1.0,,,,,,,,,gray,flipped triangle
0.0,8.0,4.0,1.0,6.0,0.0,0.0,5.0,0.0,part_2,stop,709.0,709.0,4.0,,,,,,,,,white,hexagon
0.0,3.0,3.0,0.0,5.0,5.0,1070.144858211279,5.0,0.0,part_2,go,709.0,759.0,1.0,,,,,,,,,green,I
0.0,7.0,3.0,1.0,5.0,0.0,0.0,5.0,0.0,part_2,stop,709.0,759.0,4.0,,,,,,,,,magenta,diamond
0.0,4.0,4.0,0.0,6.0,6.0,1206.7107390612364,5.0,0.0,part_2,go,759.0,759.0,1.0,,,,,,,,,cyan,cross
0.0,6.0,2.0,1.0,6.0,6.0,1039.4476968795059,5.0,0.0,part_2,go,759.0,759.0,1.0,,,,,,,,,yellow,triangle
0.0,7.0,3.0,1.0,5.0,0.0,0.0,5.0,0.0,part_2,stop,759.0,759.0,4.0,,,,,,,,,magenta,diamond
0.0,6.0,2.0,1.0,6.0,6.0,905.9850089251996,5.0,0.0,part_2,stop,809.0,759.0,3.0,,,,,,,,,yellow,triangle
0.0,2.0,2.0,0.0,5.0,5.0,1075.641404138878,5.0,0.0,part_2,go,809.0,709.0,1.0,,,,,,,,,gray,flipped triangle
0.0,5.0,1.0,1.0,5.0,5.0,1166.6432719212023,5.0,0.0,part_2,go,809.0,709.0,1.0,,,,,,,,,blue,square
0.0,6.0,2.0,1.0,5.0,0.0,0.0,5.0,0.0,part_2,stop,809.0,709.0,4.0,,,,,,,,,yellow,triangle
0.0,5.0,1.0,1.0,6.0,0.0,0.0,5.0,0.0,part_2,stop,859.0,709.0,4.0,,,,,,,,,blue,square
0.0,3.0,3.0,0.0,6.0,6.0,1270.194408018142,5.0,0.0,part_2,go,859.0,759.0,1.0,,,,,,,,,green,I
0.0,7.0,3.0,1.0,6.0,0.0,0.0,5.0,0.0,part_2,stop,859.0,759.0,4.0,,,,,,,,,magenta,diamond
0.0,4.0,4.0,0.0,5.0,5.0,889.1933199483901,5.0,0.0,part_2,go,859.0,809.0,1.0,,,,,,,,,cyan,cross
0.0,7.0,3.0,1.0,5.0,0.0,0.0,5.0,0.0,part_2,stop,859.0,809.0,4.0,,,,,,,,,magenta,diamond
0.0,4.0,4.0,0.0,6.0,6.0,1138.2620751392096,5.0,0.0,part_2,go,909.0,809.0,1.0,,,,,,,,,cyan,cross
0.0,3.0,3.0,0.0,5.0,0.0,0.0,5.0,0.0,part_2,go,909.0,809.0,5.0,,,,,,,,,green,I
0.0,5.0,1.0,1.0,5.0,5.0,925.8743219543248,5.0,0.0,part_2,stop,909.0,809.0,3.0,,,,,,,,,blue,square
0.0,2.0,2.0,0.0,6.0,6.0,683.439418906346,6.0,0.0,part_2,go,859.0,809.0,1.0,,,,,,,,,gray,flipped triangle
0.0,8.0,4.0,1.0,5.0,5.0,1012.1219879947605,6.0,0.0,part_2,stop,859.0,809.0,3.0,,,,,,,,,white,hexagon
0.0,3.0,3.0,0.0,5.0,5.0,687.2177391778678,6.0,0.0,part_2,go,809.0,809.0,1.0,,,,,,,,,green,I
0.0,1.0,1.0,0.0,6.0,6.0,652.5664010550827,6.0,0.0,part_2,go,809.0,809.0,1.0,,,,,,,,,orange,circle
0.0,4.0,4.0,0.0,6.0,6.0,923.7681860104204,6.0,0.0,part_2,go,809.0,809.0,1.0,,,,,,,,,cyan,cross
0.0,7.0,3.0,1.0,6.0,6.0,374.0192239638418,6.0,0.0,part_2,stop,809.0,809.0,3.0,,,,,,,,,magenta,diamond
0.0,2.0,2.0,0.0,6.0,6.0,745.8239188417792,6.0,0.0,part_2,go,809.0,759.0,1.0,,,,,,,,,gray,flipped triangle
0.0,7.0,3.0,1.0,6.0,6.0,1095.3278290107846,6.0,0.0,part_2,go,809.0,759.0,1.0,,,,,,,,,magenta,diamond
0.0,7.0,3.0,1.0,6.0,6.0,926.7206580843776,6.0,0.0,part_2,go,809.0,759.0,1.0,,,,,,,,,magenta,diamond
0.0,6.0,2.0,1.0,6.0,6.0,343.8430579844862,6.0,0.0,part_2,stop,809.0,759.0,3.0,,,,,,,,,yellow,triangle
0.0,5.0,1.0,1.0,6.0,6.0,796.0082520730793,6.0,0.0,part_2,stop,809.0,709.0,3.0,,,,,,,,,blue,square
0.0,6.0,2.0,1.0,5.0,5.0,873.328675981611,6.0,0.0,part_2,go,809.0,659.0,1.0,,,,,,,,,yellow,triangle
0.0,5.0,1.0,1.0,6.0,0.0,0.0,6.0,0.0,part_2,stop,809.0,659.0,4.0,,,,,,,,,blue,square
0.0,1.0,1.0,0.0,5.0,5.0,739.4775960128754,6.0,0.0,part_2,go,809.0,709.0,1.0,,,,,,,,,orange,circle
0.0,8.0,4.0,1.0,6.0,0.0,0.0,6.0,0.0,part_2,stop,809.0,709.0,4.0,,,,,,,,,white,hexagon
0.0,8.0,4.0,1.0,6.0,6.0,856.4020250923932,6.0,0.0,part_2,stop,809.0,759.0,3.0,,,,,,,,,white,hexagon
0.0,1.0,1.0,0.0,5.0,5.0,845.9310159087181,6.0,0.0,part_2,go,809.0,709.0,1.0,,,,,,,,,orange,circle
0.0,8.0,4.0,1.0,6.0,5.0,45.6587520893663,6.0,0.0,part_2,stop,809.0,709.0,3.0,,,,,,,,,white,hexagon
0.0,5.0,1.0,1.0,6.0,0.0,0.0,6.0,0.0,part_2,stop,809.0,659.0,4.0,,,,,,,,,blue,square
0.0,6.0,2.0,1.0,5.0,5.0,1005.8281680103391,6.0,0.0,part_2,go,809.0,709.0,1.0,,,,,,,,,yellow,triangle
0.0,2.0,2.0,0.0,5.0,5.0,1131.178872892633,6.0,0.0,part_2,go,809.0,709.0,1.0,,,,,,,,,gray,flipped triangle
0.0,8.0,4.0,1.0,5.0,0.0,0.0,6.0,0.0,part_2,stop,809.0,709.0,4.0,,,,,,,,,white,hexagon
0.0,6.0,2.0,1.0,5.0,0.0,0.0,6.0,0.0,part_2,stop,859.0,709.0,4.0,,,,,,,,,yellow,triangle
0.0,1.0,1.0,0.0,5.0,5.0,1032.605532091111,6.0,0.0,part_2,go,909.0,709.0,1.0,,,,,,,,,orange,circle
0.0,8.0,4.0,1.0,5.0,0.0,0.0,6.0,0.0,part_2,stop,909.0,709.0,4.0,,,,,,,,,white,hexagon
0.0,8.0,4.0,1.0,6.0,6.0,806.4514738507569,6.0,0.0,part_2,go,959.0,709.0,1.0,,,,,,,,,white,hexagon
0.0,3.0,3.0,0.0,5.0,5.0,1200.6163408514112,6.0,0.0,part_2,go,959.0,709.0,1.0,,,,,,,,,green,I
0.0,3.0,3.0,0.0,6.0,6.0,943.3397920802236,6.0,0.0,part_2,go,959.0,709.0,1.0,,,,,,,,,green,I
0.0,3.0,3.0,0.0,6.0,6.0,989.1036280896516,6.0,0.0,part_2,go,959.0,709.0,1.0,,,,,,,,,green,I
0.0,6.0,2.0,1.0,5.0,0.0,0.0,6.0,0.0,part_2,stop,959.0,709.0,4.0,,,,,,,,,yellow,triangle
0.0,4.0,4.0,0.0,6.0,6.0,993.3183339890091,6.0,0.0,part_2,go,1009.0,709.0,1.0,,,,,,,,,cyan,cross
0.0,7.0,3.0,1.0,6.0,0.0,0.0,6.0,0.0,part_2,stop,1009.0,709.0,4.0,,,,,,,,,magenta,diamond
0.0,8.0,4.0,1.0,5.0,5.0,960.723805008456,6.0,0.0,part_2,stop,1009.0,759.0,3.0,,,,,,,,,white,hexagon
0.0,3.0,3.0,0.0,5.0,5.0,1412.119026994333,6.0,0.0,part_2,go,959.0,759.0,1.0,,,,,,,,,green,I
0.0,4.0,4.0,0.0,5.0,5.0,1399.26175493747,6.0,0.0,part_2,go,959.0,759.0,1.0,,,,,,,,,cyan,cross
0.0,8.0,4.0,1.0,5.0,5.0,917.5410619936883,6.0,0.0,part_2,stop,959.0,759.0,3.0,,,,,,,,,white,hexagon
0.0,1.0,1.0,0.0,5.0,5.0,550.3999539650977,7.0,0.0,part_2,go,909.0,759.0,1.0,,,,,,,,,orange,circle
0.0,4.0,4.0,0.0,5.0,5.0,899.5664729736745,7.0,0.0,part_2,go,909.0,759.0,1.0,,,,,,,,,cyan,cross
0.0,4.0,4.0,0.0,5.0,5.0,292.0749899931252,7.0,0.0,part_2,go,909.0,759.0,1.0,,,,,,,,,cyan,cross
0.0,1.0,1.0,0.0,5.0,5.0,865.5498209409416,7.0,0.0,part_2,go,909.0,759.0,1.0,,,,,,,,,orange,circle
0.0,4.0,4.0,0.0,5.0,5.0,679.4107079040259,7.0,0.0,part_2,go,909.0,759.0,1.0,,,,,,,,,cyan,cross
0.0,7.0,3.0,1.0,6.0,6.0,533.8837690651417,7.0,0.0,part_2,stop,909.0,759.0,3.0,,,,,,,,,magenta,diamond
0.0,6.0,2.0,1.0,6.0,6.0,476.5640299301594,7.0,0.0,part_2,stop,909.0,709.0,3.0,,,,,,,,,yellow,triangle
0.0,5.0,1.0,1.0,5.0,5.0,310.3281408548355,7.0,0.0,part_2,go,909.0,659.0,1.0,,,,,,,,,blue,square
0.0,1.0,1.0,0.0,5.0,5.0,465.1460631284863,7.0,0.0,part_2,go,909.0,659.0,1.0,,,,,,,,,orange,circle
0.0,4.0,4.0,0.0,6.0,6.0,612.3259989544749,7.0,0.0,part_2,go,909.0,659.0,1.0,,,,,,,,,cyan,cross
0.0,2.0,2.0,0.0,5.0,5.0,387.49711192213,7.0,0.0,part_2,go,909.0,659.0,1.0,,,,,,,,,gray,flipped triangle
0.0,4.0,4.0,0.0,5.0,5.0,504.2908061295748,7.0,0.0,part_2,go,909.0,659.0,1.0,,,,,,,,,cyan,cross
0.0,3.0,3.0,0.0,5.0,5.0,731.2201750464737,7.0,0.0,part_2,go,909.0,659.0,1.0,,,,,,,,,green,I
0.0,6.0,2.0,1.0,5.0,5.0,975.2933129202574,7.0,0.0,part_2,stop,909.0,659.0,3.0,,,,,,,,,yellow,triangle
0.0,7.0,3.0,1.0,5.0,5.0,493.8266649842262,7.0,0.0,part_2,stop,859.0,659.0,3.0,,,,,,,,,magenta,diamond
0.0,5.0,1.0,1.0,5.0,5.0,799.6437100227922,7.0,0.0,part_2,stop,809.0,659.0,3.0,,,,,,,,,blue,square
0.0,6.0,2.0,1.0,6.0,6.0,497.9191299062222,7.0,0.0,part_2,go,759.0,659.0,1.0,,,,,,,,,yellow,triangle
0.0,6.0,2.0,1.0,6.0,6.0,776.082209078595,7.0,0.0,part_2,stop,759.0,659.0,3.0,,,,,,,,,yellow,triangle
0.0,1.0,1.0,0.0,5.0,5.0,990.8670408185573,7.0,0.0,part_2,go,759.0,609.0,1.0,,,,,,,,,orange,circle
0.0,5.0,1.0,1.0,5.0,5.0,1126.8248988781124,7.0,0.0,part_2,go,759.0,609.0,1.0,,,,,,,,,blue,square
0.0,2.0,2.0,0.0,5.0,5.0,972.5014851428568,7.0,0.0,part_2,go,759.0,609.0,1.0,,,,,,,,,gray,flipped triangle
0.0,1.0,1.0,0.0,5.0,5.0,1075.7192869205028,7.0,0.0,part_2,go,759.0,609.0,1.0,,,,,,,,,orange,circle
0.0,5.0,1.0,1.0,5.0,0.0,0.0,7.0,0.0,part_2,stop,759.0,609.0,4.0,,,,,,,,,blue,square
0.0,2.0,2.0,0.0,6.0,6.0,1209.5364481210709,7.0,0.0,part_2,go,809.0,609.0,1.0,,,,,,,,,gray,flipped triangle
0.0,8.0,4.0,1.0,6.0,6.0,1178.5906120203435,7.0,0.0,part_2,go,809.0,609.0,1.0,,,,,,,,,white,hexagon
0.0,2.0,2.0,0.0,5.0,5.0,1412.568193860352,7.0,0.0,part_2,go,809.0,609.0,1.0,,,,,,,,,gray,flipped triangle
0.0,7.0,3.0,1.0,6.0,0.0,0.0,7.0,0.0,part_2,stop,809.0,609.0,4.0,,,,,,,,,magenta,diamond
0.0,7.0,3.0,1.0,5.0,5.0,944.9522339273244,7.0,0.0,part_2,go,809.0,659.0,1.0,,,,,,,,,magenta,diamond
0.0,6.0,2.0,1.0,6.0,6.0,888.7535601388663,7.0,0.0,part_2,go,809.0,659.0,1.0,,,,,,,,,yellow,triangle
0.0,2.0,2.0,0.0,6.0,6.0,696.5456590987742,7.0,0.0,part_2,go,809.0,659.0,1.0,,,,,,,,,gray,flipped triangle
0.0,4.0,4.0,0.0,6.0,6.0,913.4270471986384,7.0,0.0,part_2,go,809.0,659.0,1.0,,,,,,,,,cyan,cross
0.0,5.0,1.0,1.0,5.0,5.0,767.3919009976089,7.0,0.0,part_2,go,809.0,659.0,1.0,,,,,,,,,blue,square
0.0,4.0,4.0,0.0,5.0,5.0,845.8015718497336,7.0,0.0,part_2,go,809.0,659.0,1.0,,,,,,,,,cyan,cross
0.0,4.0,4.0,0.0,6.0,6.0,860.1410628762096,7.0,0.0,part_2,go,809.0,659.0,1.0,,,,,,,,,cyan,cross
0.0,3.0,3.0,0.0,6.0,6.0,984.0700621716678,7.0,0.0,part_2,go,809.0,659.0,1.0,,,,,,,,,green,I
0.0,4.0,4.0,0.0,5.0,5.0,704.0829120669514,7.0,0.0,part_2,go,809.0,659.0,1.0,,,,,,,,,cyan,cross
0.0,7.0,3.0,1.0,6.0,6.0,546.4653160888702,8.0,0.0,part_2,stop,809.0,659.0,3.0,,,,,,,,,magenta,diamond
0.0,3.0,3.0,0.0,6.0,6.0,468.068788992241,8.0,0.0,part_2,go,809.0,609.0,1.0,,,,,,,,,green,I
0.0,4.0,4.0,0.0,5.0,5.0,378.8866268005222,8.0,0.0,part_2,go,809.0,609.0,1.0,,,,,,,,,cyan,cross
0.0,3.0,3.0,0.0,6.0,6.0,424.8465921264142,8.0,0.0,part_2,go,809.0,609.0,1.0,,,,,,,,,green,I
0.0,5.0,1.0,1.0,6.0,6.0,594.8497368954122,8.0,0.0,part_2,go,809.0,609.0,1.0,,,,,,,,,blue,square
0.0,1.0,1.0,0.0,6.0,6.0,539.8721559904516,8.0,0.0,part_2,go,809.0,609.0,1.0,,,,,,,,,orange,circle
0.0,7.0,3.0,1.0,5.0,5.0,507.6867698226124,8.0,0.0,part_2,stop,809.0,609.0,3.0,,,,,,,,,magenta,diamond
0.0,2.0,2.0,0.0,6.0,6.0,315.6153929885477,8.0,0.0,part_2,go,759.0,609.0,1.0,,,,,,,,,gray,flipped triangle
0.0,8.0,4.0,1.0,5.0,5.0,663.052286952734,8.0,0.0,part_2,stop,759.0,609.0,3.0,,,,,,,,,white,hexagon
0.0,3.0,3.0,0.0,5.0,5.0,362.2815150301903,8.0,0.0,part_2,go,709.0,609.0,1.0,,,,,,,,,green,I
0.0,1.0,1.0,0.0,6.0,6.0,620.6472928170115,8.0,0.0,part_2,go,709.0,609.0,1.0,,,,,,,,,orange,circle
0.0,3.0,3.0,0.0,5.0,5.0,591.0579171031713,8.0,0.0,part_2,go,709.0,609.0,1.0,,,,,,,,,green,I
0.0,1.0,1.0,0.0,5.0,5.0,580.7248638011515,8.0,0.0,part_2,go,709.0,609.0,1.0,,,,,,,,,orange,circle
0.0,4.0,4.0,0.0,6.0,6.0,769.9548811651766,8.0,0.0,part_2,go,709.0,609.0,1.0,,,,,,,,,cyan,cross
0.0,5.0,1.0,1.0,5.0,5.0,760.661993175745,8.0,0.0,part_2,stop,709.0,609.0,3.0,,,,,,,,,blue,square
0.0,1.0,1.0,0.0,6.0,6.0,796.3578950148076,8.0,0.0,part_2,go,659.0,609.0,1.0,,,,,,,,,orange,circle
0.0,1.0,1.0,0.0,6.0,6.0,964.4693818408996,8.0,0.0,part_2,go,659.0,609.0,1.0,,,,,,,,,orange,circle
0.0,5.0,1.0,1.0,6.0,0.0,0.0,8.0,0.0,part_2,stop,659.0,609.0,4.0,,,,,,,,,blue,square
0.0,3.0,3.0,0.0,6.0,6.0,1124.602546915412,8.0,0.0,part_2,go,659.0,659.0,1.0,,,,,,,,,green,I
0.0,4.0,4.0,0.0,5.0,5.0,529.4560769107193,8.0,0.0,part_2,go,659.0,659.0,1.0,,,,,,,,,cyan,cross
0.0,4.0,4.0,0.0,5.0,5.0,721.6457149479538,8.0,0.0,part_2,go,659.0,659.0,1.0,,,,,,,,,cyan,cross
0.0,3.0,3.0,0.0,5.0,5.0,824.1330969613045,8.0,0.0,part_2,go,659.0,659.0,1.0,,,,,,,,,green,I
0.0,6.0,2.0,1.0,5.0,0.0,0.0,8.0,0.0,part_2,stop,659.0,659.0,4.0,,,,,,,,,yellow,triangle
0.0,2.0,2.0,0.0,6.0,6.0,465.6930558849126,8.0,0.0,part_2,go,709.0,659.0,1.0,,,,,,,,,gray,flipped triangle
0.0,6.0,2.0,1.0,5.0,0.0,0.0,8.0,0.0,part_2,stop,709.0,659.0,4.0,,,,,,,,,yellow,triangle
0.0,6.0,2.0,1.0,6.0,6.0,835.6621931307018,8.0,0.0,part_2,stop,759.0,659.0,3.0,,,,,,,,,yellow,triangle
0.0,5.0,1.0,1.0,6.0,0.0,0.0,8.0,0.0,part_2,stop,759.0,609.0,4.0,,,,,,,,,blue,square
0.0,1.0,1.0,0.0,6.0,6.0,860.745282843709,8.0,0.0,part_2,go,759.0,659.0,1.0,,,,,,,,,orange,circle
0.0,3.0,3.0,0.0,6.0,6.0,1256.7609678953886,8.0,0.0,part_2,go,759.0,659.0,1.0,,,,,,,,,green,I
0.0,4.0,4.0,0.0,6.0,6.0,954.1059390176088,8.0,0.0,part_2,go,759.0,659.0,1.0,,,,,,,,,cyan,cross
0.0,2.0,2.0,0.0,5.0,5.0,852.5533298961818,8.0,0.0,part_2,go,759.0,659.0,1.0,,,,,,,,,gray,flipped triangle
0.0,2.0,2.0,0.0,5.0,5.0,370.7804600708186,8.0,0.0,part_2,go,759.0,659.0,1.0,,,,,,,,,gray,flipped triangle
0.0,7.0,3.0,1.0,5.0,5.0,889.2307949718088,8.0,0.0,part_2,go,759.0,659.0,1.0,,,,,,,,,magenta,diamond
0.0,4.0,4.0,0.0,6.0,6.0,898.8401419483125,8.0,0.0,part_2,go,759.0,659.0,1.0,,,,,,,,,cyan,cross
0.0,8.0,4.0,1.0,6.0,5.0,395.4641178715974,8.0,0.0,part_2,stop,759.0,659.0,3.0,,,,,,,,,white,hexagon
0.0,5.0,1.0,1.0,6.0,6.0,677.536582108587,8.0,0.0,part_2,stop,759.0,609.0,3.0,,,,,,,,,blue,square
0.0,1.0,1.0,0.0,7.0,4.0,3416.053872089833,1.0,2.0,part_3,go,0.0,0.0,0.0,176.0,4.0,88.0,264.0,132.0,176.0,44.0,220.0,orange,circle
0.0,6.0,2.0,1.0,7.0,3.0,3349.6920499019325,1.0,1.0,part_3,go,0.0,0.0,0.0,147.0,3.0,49.0,245.0,147.0,98.0,196.0,294.0,yellow,triangle
0.0,1.0,1.0,0.0,7.0,6.0,3486.39532411471,1.0,1.0,part_3,go,0.0,0.0,0.0,132.0,3.0,264.0,44.0,220.0,176.0,88.0,132.0,orange,circle
0.0,4.0,4.0,0.0,7.0,2.0,2657.026625936851,1.0,1.0,part_3,go,0.0,0.0,0.0,147.0,3.0,98.0,147.0,245.0,49.0,196.0,294.0,cyan,cross
0.0,1.0,1.0,0.0,7.0,6.0,3187.4188808724284,1.0,1.0,part_3,go,0.0,0.0,0.0,117.0,3.0,195.0,156.0,234.0,78.0,39.0,117.0,orange,circle
0.0,4.0,4.0,0.0,7.0,5.0,3343.178388895467,1.0,1.0,part_3,go,0.0,0.0,0.0,132.0,3.0,88.0,220.0,264.0,44.0,132.0,176.0,cyan,cross
0.0,8.0,4.0,1.0,7.0,1.0,3636.537506012246,1.0,1.0,part_3,go,0.0,0.0,0.0,147.0,3.0,147.0,196.0,245.0,49.0,294.0,98.0,white,hexagon
0.0,8.0,4.0,1.0,7.0,4.0,3683.758398983627,1.0,1.0,part_3,go,0.0,0.0,0.0,162.0,3.0,324.0,54.0,216.0,162.0,270.0,108.0,white,hexagon
0.0,6.0,2.0,1.0,7.0,5.0,2539.153025019914,1.0,1.0,part_3,go,0.0,0.0,0.0,136.0,4.0,102.0,170.0,34.0,68.0,136.0,204.0,yellow,triangle
0.0,3.0,3.0,0.0,7.0,3.0,2111.596960108727,1.0,1.0,part_3,go,0.0,0.0,0.0,102.0,3.0,34.0,68.0,102.0,204.0,170.0,136.0,green,I
0.0,7.0,3.0,1.0,7.0,5.0,1472.4119789898396,1.0,1.0,part_3,go,0.0,0.0,0.0,147.0,3.0,245.0,294.0,98.0,196.0,147.0,49.0,magenta,diamond
0.0,1.0,1.0,0.0,7.0,4.0,1065.5985169578344,1.0,1.0,part_3,go,0.0,0.0,0.0,117.0,3.0,195.0,78.0,156.0,117.0,234.0,39.0,orange,circle
0.0,5.0,1.0,1.0,7.0,3.0,1719.3829291500151,1.0,1.0,part_3,go,0.0,0.0,0.0,147.0,3.0,294.0,196.0,147.0,49.0,245.0,98.0,blue,square
0.0,2.0,2.0,0.0,7.0,4.0,1588.1651618983597,1.0,1.0,part_3,go,0.0,0.0,0.0,176.0,4.0,132.0,220.0,88.0,176.0,264.0,44.0,gray,flipped triangle
0.0,2.0,2.0,0.0,7.0,4.0,1634.9650381598622,1.0,1.0,part_3,go,0.0,0.0,0.0,102.0,3.0,170.0,34.0,68.0,102.0,204.0,136.0,gray,flipped triangle
0.0,6.0,2.0,1.0,7.0,5.0,1272.4204182159156,1.0,1.0,part_3,go,0.0,0.0,0.0,162.0,3.0,270.0,54.0,216.0,324.0,162.0,108.0,yellow,triangle
0.0,2.0,2.0,0.0,7.0,3.0,872.0595170743763,1.0,1.0,part_3,go,0.0,0.0,0.0,147.0,3.0,196.0,49.0,147.0,98.0,294.0,245.0,gray,flipped triangle
0.0,3.0,3.0,0.0,7.0,3.0,1590.367981931195,1.0,1.0,part_3,go,0.0,0.0,0.0,108.0,2.0,216.0,270.0,108.0,324.0,162.0,54.0,green,I
0.0,5.0,1.0,1.0,7.0,5.0,1254.8954989761114,1.0,1.0,part_3,go,0.0,0.0,0.0,136.0,4.0,204.0,68.0,170.0,102.0,136.0,34.0,blue,square
0.0,2.0,2.0,0.0,7.0,4.0,1368.894656188786,1.0,1.0,part_3,go,0.0,0.0,0.0,176.0,4.0,132.0,220.0,44.0,176.0,264.0,88.0,gray,flipped triangle
0.0,7.0,3.0,1.0,7.0,2.0,1452.3376191500574,2.0,1.0,part_3,go,0.0,0.0,0.0,162.0,3.0,54.0,162.0,270.0,216.0,324.0,108.0,magenta,diamond
0.0,8.0,4.0,1.0,7.0,6.0,2219.1341388970613,2.0,1.0,part_3,go,0.0,0.0,0.0,156.0,4.0,117.0,78.0,195.0,39.0,234.0,156.0,white,hexagon
0.0,8.0,4.0,1.0,7.0,3.0,1096.8297140207142,2.0,1.0,part_3,go,0.0,0.0,0.0,117.0,3.0,195.0,234.0,117.0,39.0,78.0,156.0,white,hexagon
0.0,3.0,3.0,0.0,7.0,6.0,1389.9791231378913,2.0,1.0,part_3,go,0.0,0.0,0.0,132.0,3.0,44.0,88.0,176.0,264.0,220.0,132.0,green,I
0.0,5.0,1.0,1.0,7.0,5.0,1568.567993119359,2.0,1.0,part_3,go,0.0,0.0,0.0,108.0,2.0,270.0,162.0,216.0,54.0,108.0,324.0,blue,square
0.0,7.0,3.0,1.0,7.0,6.0,851.4486129861325,2.0,1.0,part_3,go,0.0,0.0,0.0,117.0,3.0,234.0,78.0,156.0,39.0,195.0,117.0,magenta,diamond
0.0,4.0,4.0,0.0,7.0,2.0,1775.828026002273,2.0,1.0,part_3,go,0.0,0.0,0.0,162.0,3.0,54.0,162.0,270.0,324.0,108.0,216.0,cyan,cross
0.0,5.0,1.0,1.0,7.0,6.0,1030.7072610594332,2.0,1.0,part_3,go,0.0,0.0,0.0,176.0,4.0,132.0,264.0,88.0,44.0,220.0,176.0,blue,square
0.0,3.0,3.0,0.0,7.0,1.0,674.7441741172224,2.0,1.0,part_3,go,0.0,0.0,0.0,132.0,3.0,132.0,88.0,44.0,264.0,176.0,220.0,green,I
0.0,7.0,3.0,1.0,7.0,3.0,651.4509769622236,2.0,1.0,part_3,go,0.0,0.0,0.0,117.0,3.0,156.0,234.0,117.0,195.0,78.0,39.0,magenta,diamond
0.0,5.0,1.0,1.0,7.0,4.0,1690.440212842077,2.0,1.0,part_3,go,0.0,0.0,0.0,108.0,2.0,324.0,216.0,270.0,108.0,54.0,162.0,blue,square
0.0,2.0,2.0,0.0,7.0,5.0,746.9845910090953,2.0,1.0,part_3,go,0.0,0.0,0.0,117.0,3.0,234.0,156.0,78.0,39.0,117.0,195.0,gray,flipped triangle
0.0,2.0,2.0,0.0,7.0,5.0,1421.662817010656,2.0,1.0,part_3,go,0.0,0.0,0.0,102.0,3.0,136.0,170.0,68.0,204.0,102.0,34.0,gray,flipped triangle
0.0,1.0,1.0,0.0,7.0,3.0,1409.495009109378,2.0,1.0,part_3,go,0.0,0.0,0.0,147.0,3.0,49.0,196.0,147.0,98.0,294.0,245.0,orange,circle
0.0,7.0,3.0,1.0,7.0,5.0,1972.475556889549,2.0,1.0,part_3,go,0.0,0.0,0.0,170.0,5.0,102.0,204.0,68.0,136.0,170.0,34.0,magenta,diamond
0.0,8.0,4.0,1.0,7.0,5.0,1256.1384248547256,2.0,1.0,part_3,go,0.0,0.0,0.0,102.0,3.0,136.0,170.0,204.0,68.0,102.0,34.0,white,hexagon
0.0,7.0,3.0,1.0,7.0,4.0,1910.4704491328448,2.0,1.0,part_3,go,0.0,0.0,0.0,147.0,3.0,294.0,98.0,196.0,147.0,245.0,49.0,magenta,diamond
0.0,6.0,2.0,1.0,7.0,6.0,1270.6621258985251,2.0,1.0,part_3,go,0.0,0.0,0.0,162.0,3.0,108.0,216.0,270.0,324.0,54.0,162.0,yellow,triangle
0.0,4.0,4.0,0.0,7.0,6.0,1246.4014280121771,2.0,1.0,part_3,go,0.0,0.0,0.0,176.0,4.0,44.0,264.0,220.0,132.0,88.0,176.0,cyan,cross
0.0,4.0,4.0,0.0,7.0,5.0,1632.1558021008968,2.0,1.0,part_3,go,0.0,0.0,0.0,136.0,4.0,170.0,68.0,204.0,102.0,136.0,34.0,cyan,cross
0.0,8.0,4.0,1.0,7.0,4.0,2632.9398590605706,3.0,1.0,part_3,go,0.0,0.0,0.0,136.0,4.0,68.0,102.0,204.0,136.0,170.0,34.0,white,hexagon
0.0,4.0,4.0,0.0,7.0,2.0,1666.5564789436758,3.0,1.0,part_3,go,0.0,0.0,0.0,117.0,3.0,195.0,117.0,39.0,156.0,78.0,234.0,cyan,cross
0.0,6.0,2.0,1.0,7.0,2.0,1170.55291403085,3.0,1.0,part_3,go,0.0,0.0,0.0,176.0,4.0,88.0,176.0,220.0,264.0,44.0,132.0,yellow,triangle
0.0,3.0,3.0,0.0,7.0,5.0,1386.4589279983193,3.0,1.0,part_3,go,0.0,0.0,0.0,117.0,3.0,195.0,78.0,39.0,156.0,117.0,234.0,green,I
0.0,6.0,2.0,1.0,7.0,5.0,669.5924000814557,3.0,1.0,part_3,go,0.0,0.0,0.0,176.0,4.0,220.0,264.0,44.0,88.0,176.0,132.0,yellow,triangle
0.0,3.0,3.0,0.0,7.0,2.0,1434.0495308861136,3.0,1.0,part_3,go,0.0,0.0,0.0,34.0,1.0,68.0,34.0,102.0,170.0,204.0,136.0,green,I
0.0,2.0,2.0,0.0,7.0,3.0,940.925625152886,3.0,1.0,part_3,go,0.0,0.0,0.0,147.0,3.0,98.0,245.0,147.0,294.0,49.0,196.0,gray,flipped triangle
0.0,4.0,4.0,0.0,7.0,2.0,1831.5829189959911,3.0,1.0,part_3,go,0.0,0.0,0.0,108.0,2.0,324.0,108.0,54.0,162.0,270.0,216.0,cyan,cross
0.0,4.0,4.0,0.0,7.0,3.0,827.6295259129256,3.0,1.0,part_3,go,0.0,0.0,0.0,156.0,4.0,39.0,234.0,156.0,78.0,195.0,117.0,cyan,cross
0.0,1.0,1.0,0.0,7.0,5.0,1953.7837030366063,3.0,1.0,part_3,go,0.0,0.0,0.0,108.0,2.0,270.0,324.0,54.0,162.0,108.0,216.0,orange,circle
0.0,8.0,4.0,1.0,7.0,5.0,942.2414840664716,3.0,1.0,part_3,go,0.0,0.0,0.0,147.0,3.0,245.0,196.0,98.0,294.0,147.0,49.0,white,hexagon
0.0,1.0,1.0,0.0,7.0,4.0,650.9073271881789,3.0,1.0,part_3,go,0.0,0.0,0.0,147.0,3.0,294.0,196.0,245.0,147.0,49.0,98.0,orange,circle
0.0,8.0,4.0,1.0,7.0,5.0,810.6931708753109,3.0,1.0,part_3,go,0.0,0.0,0.0,132.0,3.0,264.0,176.0,220.0,44.0,132.0,88.0,white,hexagon
0.0,6.0,2.0,1.0,7.0,5.0,969.9571139644833,3.0,1.0,part_3,go,0.0,0.0,0.0,195.0,5.0,117.0,156.0,78.0,234.0,195.0,39.0,yellow,triangle
0.0,7.0,3.0,1.0,7.0,6.0,1399.4759239722043,3.0,1.0,part_3,go,0.0,0.0,0.0,132.0,3.0,220.0,88.0,264.0,176.0,44.0,132.0,magenta,diamond
0.0,7.0,3.0,1.0,7.0,3.0,813.7797911185771,3.0,1.0,part_3,go,0.0,0.0,0.0,136.0,4.0,204.0,102.0,136.0,34.0,170.0,68.0,magenta,diamond
0.0,4.0,4.0,0.0,7.0,6.0,996.7666959855704,3.0,1.0,part_3,go,0.0,0.0,0.0,147.0,3.0,98.0,245.0,196.0,49.0,294.0,147.0,cyan,cross
0.0,8.0,4.0,1.0,7.0,2.0,1380.1105271559209,3.0,1.0,part_3,go,0.0,0.0,0.0,132.0,3.0,176.0,132.0,88.0,220.0,264.0,44.0,white,hexagon
0.0,2.0,2.0,0.0,7.0,6.0,1312.8653061576188,3.0,1.0,part_3,go,0.0,0.0,0.0,108.0,2.0,216.0,324.0,162.0,54.0,270.0,108.0,gray,flipped triangle
0.0,1.0,1.0,0.0,7.0,4.0,854.18421914801,3.0,1.0,part_3,go,0.0,0.0,0.0,136.0,4.0,102.0,68.0,170.0,136.0,204.0,34.0,orange,circle
0.0,3.0,3.0,0.0,7.0,5.0,1485.5526199098676,4.0,1.0,part_3,go,0.0,0.0,0.0,156.0,4.0,195.0,78.0,39.0,234.0,156.0,117.0,green,I
0.0,7.0,3.0,1.0,7.0,2.0,1399.604604113847,4.0,1.0,part_3,go,0.0,0.0,0.0,108.0,2.0,162.0,108.0,270.0,216.0,324.0,54.0,magenta,diamond
0.0,4.0,4.0,0.0,7.0,2.0,946.7610041610895,4.0,1.0,part_3,go,0.0,0.0,0.0,170.0,5.0,102.0,170.0,204.0,136.0,34.0,68.0,cyan,cross
0.0,5.0,1.0,1.0,7.0,2.0,567.8660690318793,4.0,1.0,part_3,go,0.0,0.0,0.0,117.0,3.0,78.0,117.0,195.0,234.0,156.0,39.0,blue,square
0.0,8.0,4.0,1.0,7.0,2.0,1311.710624024272,4.0,1.0,part_3,go,0.0,0.0,0.0,108.0,2.0,54.0,108.0,324.0,270.0,162.0,216.0,white,hexagon
0.0,5.0,1.0,1.0,7.0,2.0,826.8505060113966,4.0,1.0,part_3,go,0.0,0.0,0.0,176.0,4.0,44.0,176.0,264.0,220.0,88.0,132.0,blue,square
0.0,6.0,2.0,1.0,7.0,2.0,1368.012655992061,4.0,1.0,part_3,go,0.0,0.0,0.0,102.0,3.0,136.0,102.0,170.0,34.0,68.0,204.0,yellow,triangle
0.0,5.0,1.0,1.0,7.0,3.0,1458.8787930551916,4.0,1.0,part_3,go,0.0,0.0,0.0,195.0,5.0,234.0,117.0,195.0,156.0,39.0,78.0,blue,square
0.0,6.0,2.0,1.0,7.0,5.0,1192.2211460769176,4.0,1.0,part_3,go,0.0,0.0,0.0,117.0,3.0,156.0,78.0,234.0,195.0,117.0,39.0,yellow,triangle
0.0,6.0,2.0,1.0,7.0,2.0,1542.1754650305957,4.0,1.0,part_3,go,0.0,0.0,0.0,147.0,3.0,98.0,147.0,245.0,196.0,49.0,294.0,yellow,triangle
0.0,1.0,1.0,0.0,7.0,2.0,845.8423521369696,4.0,1.0,part_3,go,0.0,0.0,0.0,170.0,5.0,68.0,170.0,204.0,102.0,34.0,136.0,orange,circle
0.0,3.0,3.0,0.0,7.0,4.0,1251.1573198717088,4.0,1.0,part_3,go,0.0,0.0,0.0,162.0,3.0,216.0,54.0,270.0,162.0,108.0,324.0,green,I
0.0,1.0,1.0,0.0,7.0,4.0,803.3123309724033,4.0,1.0,part_3,go,0.0,0.0,0.0,108.0,2.0,216.0,324.0,54.0,108.0,270.0,162.0,orange,circle
0.0,5.0,1.0,1.0,7.0,4.0,670.7108078990132,4.0,1.0,part_3,go,0.0,0.0,0.0,147.0,3.0,49.0,245.0,196.0,147.0,294.0,98.0,blue,square
0.0,7.0,3.0,1.0,7.0,5.0,871.0614559240639,4.0,1.0,part_3,go,0.0,0.0,0.0,132.0,3.0,264.0,220.0,176.0,44.0,132.0,88.0,magenta,diamond
0.0,3.0,3.0,0.0,7.0,4.0,1907.621209975332,4.0,1.0,part_3,go,0.0,0.0,0.0,196.0,4.0,147.0,49.0,98.0,196.0,294.0,245.0,green,I
0.0,3.0,3.0,0.0,7.0,2.0,1817.8098679054528,4.0,1.0,part_3,go,0.0,0.0,0.0,147.0,3.0,245.0,147.0,49.0,98.0,294.0,196.0,green,I
0.0,5.0,1.0,1.0,7.0,3.0,1596.5730308089403,4.0,1.0,part_3,go,0.0,0.0,0.0,170.0,5.0,102.0,204.0,170.0,68.0,34.0,136.0,blue,square
0.0,2.0,2.0,0.0,7.0,2.0,2720.9724970161915,4.0,1.0,part_3,go,0.0,0.0,0.0,162.0,3.0,216.0,162.0,324.0,54.0,270.0,108.0,gray,flipped triangle
0.0,2.0,2.0,0.0,7.0,4.0,1070.436398033053,4.0,1.0,part_3,go,0.0,0.0,0.0,156.0,4.0,39.0,195.0,78.0,156.0,117.0,234.0,gray,flipped triangle
