raw_reward_magnitude,stim_reward,stepwise_reward_magnitude,paired_with_stopping,quadrant,response,reaction_time,block,num_trial_presentations,which_part,stop_signal_trial_type,left_SSD,right_SSD,accuracy,chosen_bidding_amount,chosen_bidding_level,possible_bid_1,possible_bid_2,possible_bid_3,possible_bid_4,possible_bid_5,possible_bid_6,color_text,shape_text
0.0,6.0,0.0,1.0,4.0,4.0,362.5004878267646,1.0,1.0,part_1,,,,,,,,,,,,,cyan,triangle
39.0,5.0,1.0,1.0,4.0,4.0,373.4083487652242,1.0,1.0,part_1,,,,,,,,,,,,,white,I
388.0,4.0,4.0,0.0,1.0,1.0,339.8156398907304,1.0,1.0,part_1,,,,,,,,,,,,,magenta,flipped triangle
0.0,8.0,0.0,1.0,1.0,1.0,422.5273239426315,1.0,1.0,part_1,,,,,,,,,,,,,green,diamond
421.0,4.0,4.0,0.0,1.0,1.0,366.8522713705897,1.0,1.0,part_1,,,,,,,,,,,,,magenta,flipped triangle
377.0,8.0,4.0,1.0,2.0,2.0,443.9650680869818,1.0,1.0,part_1,,,,,,,,,,,,,green,diamond
206.0,7.0,3.0,1.0,4.0,4.0,354.1579567827284,1.0,1.0,part_1,,,,,,,,,,,,,blue,square
421.0,8.0,4.0,1.0,2.0,2.0,389.7860059514642,1.0,1.0,part_1,,,,,,,,,,,,,green,diamond
175.0,7.0,3.0,1.0,2.0,2.0,357.3194909840822,1.0,1.0,part_1,,,,,,,,,,,,,blue,square
194.0,3.0,3.0,0.0,4.0,4.0,344.0835978835821,1.0,1.0,part_1,,,,,,,,,,,,,orange,cross
0.0,3.0,0.0,0.0,1.0,1.0,358.5198852233588,1.0,1.0,part_1,,,,,,,,,,,,,orange,cross
0.0,6.0,0.0,1.0,3.0,3.0,323.4928296878934,1.0,1.0,part_1,,,,,,,,,,,,,cyan,triangle
209.0,3.0,3.0,0.0,2.0,2.0,290.3352282010019,1.0,1.0,part_1,,,,,,,,,,,,,orange,cross
0.0,2.0,0.0,0.0,1.0,1.0,323.8446051254868,1.0,1.0,part_1,,,,,,,,,,,,,gray,hexagon
202.0,7.0,3.0,1.0,1.0,1.0,271.178406663239,1.0,1.0,part_1,,,,,,,,,,,,,blue,square
395.0,8.0,4.0,1.0,1.0,1.0,302.1608269773423,1.0,1.0,part_1,,,,,,,,,,,,,green,diamond
124.0,6.0,2.0,1.0,4.0,4.0,295.9109665825963,1.0,1.0,part_1,,,,,,,,,,,,,cyan,triangle
0.0,7.0,0.0,1.0,2.0,2.0,349.5562761090696,1.0,1.0,part_1,,,,,,,,,,,,,blue,square
0.0,6.0,0.0,1.0,3.0,3.0,294.5882128551602,1.0,1.0,part_1,,,,,,,,,,,,,cyan,triangle
194.0,7.0,3.0,1.0,1.0,1.0,282.6176839880645,1.0,1.0,part_1,,,,,,,,,,,,,blue,square
419.0,8.0,4.0,1.0,4.0,4.0,271.5874132700264,1.0,1.0,part_1,,,,,,,,,,,,,green,diamond
114.0,2.0,2.0,0.0,4.0,4.0,353.3080318011343,1.0,1.0,part_1,,,,,,,,,,,,,gray,hexagon
52.0,1.0,1.0,0.0,4.0,4.0,320.2570499852299,1.0,1.0,part_1,,,,,,,,,,,,,yellow,circle
402.0,4.0,4.0,0.0,4.0,4.0,287.4726862646639,1.0,1.0,part_1,,,,,,,,,,,,,magenta,flipped triangle
0.0,1.0,0.0,0.0,4.0,4.0,296.4808428660035,1.0,1.0,part_1,,,,,,,,,,,,,yellow,circle
25.0,5.0,1.0,1.0,2.0,2.0,331.6267961636185,1.0,1.0,part_1,,,,,,,,,,,,,white,I
122.0,2.0,2.0,0.0,3.0,3.0,357.1736230514943,1.0,1.0,part_1,,,,,,,,,,,,,gray,hexagon
407.0,8.0,4.0,1.0,4.0,4.0,279.5811798423528,1.0,1.0,part_1,,,,,,,,,,,,,green,diamond
0.0,4.0,0.0,0.0,4.0,4.0,332.5700932182371,1.0,1.0,part_1,,,,,,,,,,,,,magenta,flipped triangle
46.0,1.0,1.0,0.0,4.0,4.0,355.5790488608181,1.0,1.0,part_1,,,,,,,,,,,,,yellow,circle
0.0,5.0,0.0,1.0,2.0,2.0,324.8374350368976,1.0,1.0,part_1,,,,,,,,,,,,,white,I
408.0,4.0,4.0,0.0,4.0,4.0,291.002859827131,1.0,1.0,part_1,,,,,,,,,,,,,magenta,flipped triangle
76.0,2.0,2.0,0.0,1.0,1.0,325.2010717988014,1.0,1.0,part_1,,,,,,,,,,,,,gray,hexagon
217.0,7.0,3.0,1.0,3.0,3.0,315.5121388845145,1.0,1.0,part_1,,,,,,,,,,,,,blue,square
39.0,1.0,1.0,0.0,3.0,3.0,280.4271546192467,1.0,1.0,part_1,,,,,,,,,,,,,yellow,circle
387.0,8.0,4.0,1.0,1.0,1.0,336.1130249686539,1.0,1.0,part_1,,,,,,,,,,,,,green,diamond
38.0,1.0,1.0,0.0,4.0,4.0,282.7099403366446,1.0,1.0,part_1,,,,,,,,,,,,,yellow,circle
0.0,4.0,0.0,0.0,1.0,1.0,270.1814137399196,1.0,1.0,part_1,,,,,,,,,,,,,magenta,flipped triangle
380.0,4.0,4.0,0.0,2.0,2.0,262.1031738817692,1.0,1.0,part_1,,,,,,,,,,,,,magenta,flipped triangle
42.0,5.0,1.0,1.0,3.0,3.0,315.9859315492213,1.0,1.0,part_1,,,,,,,,,,,,,white,I
177.0,7.0,3.0,1.0,4.0,4.0,274.5056436397135,1.0,1.0,part_1,,,,,,,,,,,,,blue,square
81.0,2.0,2.0,0.0,3.0,3.0,307.3479402810335,1.0,1.0,part_1,,,,,,,,,,,,,gray,hexagon
33.0,1.0,1.0,0.0,3.0,3.0,364.6717211231589,1.0,1.0,part_1,,,,,,,,,,,,,yellow,circle
42.0,5.0,1.0,1.0,1.0,1.0,297.8221420198679,1.0,1.0,part_1,,,,,,,,,,,,,white,I
411.0,8.0,4.0,1.0,2.0,2.0,369.2298731766641,1.0,2.0,part_1,,,,,,,,,,,,,green,diamond
102.0,6.0,2.0,1.0,1.0,1.0,381.0073598287999,1.0,1.0,part_1,,,,,,,,,,,,,cyan,triangle
423.0,8.0,4.0,1.0,2.0,2.0,288.492240011692,1.0,1.0,part_1,,,,,,,,,,,,,green,diamond
0.0,8.0,0.0,1.0,3.0,3.0,346.2553061544895,1.0,1.0,part_1,,,,,,,,,,,,,green,diamond
90.0,6.0,2.0,1.0,4.0,4.0,335.6695659458637,1.0,1.0,part_1,,,,,,,,,,,,,cyan,triangle
70.0,1.0,1.0,0.0,2.0,2.0,369.3079180084169,1.0,1.0,part_1,,,,,,,,,,,,,yellow,circle
0.0,8.0,0.0,1.0,4.0,4.0,314.9508112110197,1.0,1.0,part_1,,,,,,,,,,,,,green,diamond
0.0,7.0,0.0,1.0,4.0,4.0,301.367131061852,1.0,1.0,part_1,,,,,,,,,,,,,blue,square
195.0,3.0,3.0,0.0,2.0,2.0,312.3958827927708,1.0,1.0,part_1,,,,,,,,,,,,,orange,cross
212.0,3.0,3.0,0.0,1.0,1.0,403.8737551309168,1.0,1.0,part_1,,,,,,,,,,,,,orange,cross
35.0,1.0,1.0,0.0,1.0,1.0,302.5577049702406,1.0,1.0,part_1,,,,,,,,,,,,,yellow,circle
114.0,6.0,2.0,1.0,1.0,1.0,295.8003617823124,1.0,1.0,part_1,,,,,,,,,,,,,cyan,triangle
42.0,1.0,1.0,0.0,2.0,2.0,329.5186078175902,1.0,1.0,part_1,,,,,,,,,,,,,yellow,circle
377.0,4.0,4.0,0.0,1.0,1.0,318.6316988430917,1.0,1.0,part_1,,,,,,,,,,,,,magenta,flipped triangle
76.0,6.0,2.0,1.0,3.0,3.0,417.4083289690316,1.0,1.0,part_1,,,,,,,,,,,,,cyan,triangle
73.0,5.0,1.0,1.0,1.0,1.0,364.5981126464903,1.0,1.0,part_1,,,,,,,,,,,,,white,I
98.0,6.0,2.0,1.0,3.0,3.0,320.2165132388472,1.0,1.0,part_1,,,,,,,,,,,,,cyan,triangle
92.0,6.0,2.0,1.0,3.0,3.0,332.3436100035906,1.0,1.0,part_1,,,,,,,,,,,,,cyan,triangle
218.0,7.0,3.0,1.0,2.0,2.0,262.0877069421112,1.0,1.0,part_1,,,,,,,,,,,,,blue,square
208.0,7.0,3.0,1.0,3.0,3.0,343.9783751964569,1.0,1.0,part_1,,,,,,,,,,,,,blue,square
122.0,2.0,2.0,0.0,4.0,4.0,365.2665610425174,1.0,1.0,part_1,,,,,,,,,,,,,gray,hexagon
420.0,8.0,4.0,1.0,2.0,2.0,353.1593447551131,1.0,1.0,part_1,,,,,,,,,,,,,green,diamond
403.0,4.0,4.0,0.0,3.0,3.0,344.7191291488707,1.0,1.0,part_1,,,,,,,,,,,,,magenta,flipped triangle
201.0,7.0,3.0,1.0,2.0,2.0,288.1520669907331,1.0,1.0,part_1,,,,,,,,,,,,,blue,square
114.0,6.0,2.0,1.0,3.0,3.0,303.0398730188608,1.0,1.0,part_1,,,,,,,,,,,,,cyan,triangle
64.0,1.0,1.0,0.0,2.0,2.0,446.9343097880482,1.0,1.0,part_1,,,,,,,,,,,,,yellow,circle
417.0,4.0,4.0,0.0,1.0,1.0,304.1119310073554,1.0,1.0,part_1,,,,,,,,,,,,,magenta,flipped triangle
44.0,1.0,1.0,0.0,1.0,1.0,293.6437651515007,1.0,1.0,part_1,,,,,,,,,,,,,yellow,circle
0.0,4.0,0.0,0.0,2.0,2.0,303.4437489695847,1.0,1.0,part_1,,,,,,,,,,,,,magenta,flipped triangle
124.0,2.0,2.0,0.0,4.0,4.0,360.6093991547823,1.0,1.0,part_1,,,,,,,,,,,,,gray,hexagon
33.0,5.0,1.0,1.0,1.0,1.0,395.2519791200757,1.0,1.0,part_1,,,,,,,,,,,,,white,I
194.0,3.0,3.0,0.0,3.0,3.0,361.8479557335377,1.0,1.0,part_1,,,,,,,,,,,,,orange,cross
383.0,4.0,4.0,0.0,3.0,3.0,327.5524596683681,1.0,1.0,part_1,,,,,,,,,,,,,magenta,flipped triangle
108.0,6.0,2.0,1.0,3.0,3.0,339.6226237528026,1.0,1.0,part_1,,,,,,,,,,,,,cyan,triangle
0.0,4.0,0.0,0.0,2.0,2.0,315.9992471337318,1.0,1.0,part_1,,,,,,,,,,,,,magenta,flipped triangle
0.0,7.0,0.0,1.0,4.0,4.0,352.9401291161775,1.0,1.0,part_1,,,,,,,,,,,,,blue,square
204.0,3.0,3.0,0.0,1.0,1.0,339.6079172380268,1.0,1.0,part_1,,,,,,,,,,,,,orange,cross
83.0,2.0,2.0,0.0,2.0,2.0,306.8750011734664,1.0,1.0,part_1,,,,,,,,,,,,,gray,hexagon
404.0,4.0,4.0,0.0,3.0,3.0,299.3764178827405,1.0,1.0,part_1,,,,,,,,,,,,,magenta,flipped triangle
65.0,5.0,1.0,1.0,1.0,1.0,309.956728015095,1.0,1.0,part_1,,,,,,,,,,,,,white,I
37.0,1.0,1.0,0.0,1.0,1.0,298.7825055606663,1.0,1.0,part_1,,,,,,,,,,,,,yellow,circle
412.0,8.0,4.0,1.0,4.0,4.0,390.6997200101614,1.0,2.0,part_1,,,,,,,,,,,,,green,diamond
79.0,6.0,2.0,1.0,3.0,3.0,333.3185091614723,1.0,1.0,part_1,,,,,,,,,,,,,cyan,triangle
69.0,1.0,1.0,0.0,4.0,4.0,299.2022759281099,1.0,1.0,part_1,,,,,,,,,,,,,yellow,circle
378.0,8.0,4.0,1.0,1.0,1.0,378.3617410808801,1.0,1.0,part_1,,,,,,,,,,,,,green,diamond
399.0,8.0,4.0,1.0,3.0,3.0,460.1308698765933,1.0,1.0,part_1,,,,,,,,,,,,,green,diamond
0.0,7.0,0.0,1.0,4.0,4.0,311.9107699021697,1.0,1.0,part_1,,,,,,,,,,,,,blue,square
187.0,7.0,3.0,1.0,3.0,3.0,280.8053502812981,1.0,1.0,part_1,,,,,,,,,,,,,blue,square
418.0,4.0,4.0,0.0,4.0,4.0,361.8693747557699,1.0,2.0,part_1,,,,,,,,,,,,,magenta,flipped triangle
0.0,5.0,0.0,1.0,4.0,4.0,348.2130989432335,1.0,1.0,part_1,,,,,,,,,,,,,white,I
69.0,5.0,1.0,1.0,3.0,3.0,406.6232107579708,1.0,1.0,part_1,,,,,,,,,,,,,white,I
98.0,2.0,2.0,0.0,4.0,4.0,397.2630291245878,1.0,1.0,part_1,,,,,,,,,,,,,gray,hexagon
176.0,3.0,3.0,0.0,1.0,1.0,428.3841443248093,1.0,1.0,part_1,,,,,,,,,,,,,orange,cross
388.0,4.0,4.0,0.0,1.0,1.0,327.8196770697832,1.0,1.0,part_1,,,,,,,,,,,,,magenta,flipped triangle
394.0,8.0,4.0,1.0,1.0,1.0,410.493238363415,1.0,1.0,part_1,,,,,,,,,,,,,green,diamond
0.0,8.0,0.0,1.0,3.0,3.0,488.7954602017998,1.0,1.0,part_1,,,,,,,,,,,,,green,diamond
224.0,3.0,3.0,0.0,4.0,4.0,329.299493227154,2.0,1.0,part_1,,,,,,,,,,,,,orange,cross
202.0,7.0,3.0,1.0,4.0,4.0,291.871455963701,2.0,1.0,part_1,,,,,,,,,,,,,blue,square
400.0,8.0,4.0,1.0,4.0,4.0,283.9788561686873,2.0,1.0,part_1,,,,,,,,,,,,,green,diamond
400.0,4.0,4.0,0.0,2.0,2.0,315.6982809305191,2.0,1.0,part_1,,,,,,,,,,,,,magenta,flipped triangle
408.0,8.0,4.0,1.0,2.0,2.0,373.4068451449275,2.0,1.0,part_1,,,,,,,,,,,,,green,diamond
96.0,6.0,2.0,1.0,2.0,2.0,296.3817967101931,2.0,1.0,part_1,,,,,,,,,,,,,cyan,triangle
55.0,5.0,1.0,1.0,1.0,1.0,373.0987319722771,2.0,1.0,part_1,,,,,,,,,,,,,white,I
106.0,6.0,2.0,1.0,4.0,4.0,298.6070308834314,2.0,1.0,part_1,,,,,,,,,,,,,cyan,triangle
187.0,3.0,3.0,0.0,2.0,2.0,343.980343081057,2.0,1.0,part_1,,,,,,,,,,,,,orange,cross
417.0,8.0,4.0,1.0,3.0,3.0,355.1633032038808,2.0,1.0,part_1,,,,,,,,,,,,,green,diamond
49.0,1.0,1.0,0.0,2.0,2.0,397.8227409534156,2.0,1.0,part_1,,,,,,,,,,,,,yellow,circle
423.0,4.0,4.0,0.0,4.0,4.0,300.0557231716811,2.0,1.0,part_1,,,,,,,,,,,,,magenta,flipped triangle
395.0,4.0,4.0,0.0,2.0,2.0,267.342384904623,2.0,1.0,part_1,,,,,,,,,,,,,magenta,flipped triangle
212.0,7.0,3.0,1.0,1.0,1.0,366.8914348818362,2.0,1.0,part_1,,,,,,,,,,,,,blue,square
0.0,7.0,0.0,1.0,4.0,4.0,313.4339661337435,2.0,1.0,part_1,,,,,,,,,,,,,blue,square
396.0,8.0,4.0,1.0,1.0,1.0,389.8932039737701,2.0,1.0,part_1,,,,,,,,,,,,,green,diamond
71.0,1.0,1.0,0.0,4.0,4.0,311.68203195557,2.0,1.0,part_1,,,,,,,,,,,,,yellow,circle
401.0,4.0,4.0,0.0,4.0,4.0,346.1531633511185,2.0,1.0,part_1,,,,,,,,,,,,,magenta,flipped triangle
98.0,2.0,2.0,0.0,1.0,1.0,448.0467843823135,2.0,1.0,part_1,,,,,,,,,,,,,gray,hexagon
53.0,5.0,1.0,1.0,2.0,2.0,290.9842790104449,2.0,1.0,part_1,,,,,,,,,,,,,white,I
96.0,2.0,2.0,0.0,2.0,2.0,348.2237569987774,2.0,1.0,part_1,,,,,,,,,,,,,gray,hexagon
80.0,2.0,2.0,0.0,4.0,4.0,406.7092640325427,2.0,1.0,part_1,,,,,,,,,,,,,gray,hexagon
0.0,2.0,0.0,0.0,2.0,2.0,315.6030969694257,2.0,1.0,part_1,,,,,,,,,,,,,gray,hexagon
89.0,6.0,2.0,1.0,1.0,1.0,373.6662347801029,2.0,1.0,part_1,,,,,,,,,,,,,cyan,triangle
107.0,2.0,2.0,0.0,2.0,2.0,372.3648879677057,2.0,1.0,part_1,,,,,,,,,,,,,gray,hexagon
114.0,2.0,2.0,0.0,3.0,3.0,420.8741383627057,2.0,2.0,part_1,,,,,,,,,,,,,gray,hexagon
0.0,2.0,0.0,0.0,2.0,2.0,374.7779098339379,2.0,1.0,part_1,,,,,,,,,,,,,gray,hexagon
0.0,6.0,0.0,1.0,4.0,4.0,343.1158680468797,2.0,1.0,part_1,,,,,,,,,,,,,cyan,triangle
0.0,3.0,0.0,0.0,1.0,1.0,354.0797070600092,2.0,1.0,part_1,,,,,,,,,,,,,orange,cross
388.0,4.0,4.0,0.0,3.0,3.0,342.1983690932393,2.0,1.0,part_1,,,,,,,,,,,,,magenta,flipped triangle
52.0,5.0,1.0,1.0,4.0,4.0,312.4281726777553,2.0,1.0,part_1,,,,,,,,,,,,,white,I
69.0,1.0,1.0,0.0,4.0,4.0,321.1166150867939,2.0,1.0,part_1,,,,,,,,,,,,,yellow,circle
0.0,3.0,0.0,0.0,4.0,4.0,288.7572767212987,2.0,1.0,part_1,,,,,,,,,,,,,orange,cross
412.0,8.0,4.0,1.0,3.0,3.0,279.7209369018674,2.0,1.0,part_1,,,,,,,,,,,,,green,diamond
205.0,7.0,3.0,1.0,2.0,2.0,356.586726848036,2.0,1.0,part_1,,,,,,,,,,,,,blue,square
110.0,6.0,2.0,1.0,2.0,2.0,325.4060866311192,2.0,1.0,part_1,,,,,,,,,,,,,cyan,triangle
194.0,7.0,3.0,1.0,4.0,4.0,304.2887290939688,2.0,1.0,part_1,,,,,,,,,,,,,blue,square
214.0,7.0,3.0,1.0,2.0,2.0,301.8037588335573,2.0,1.0,part_1,,,,,,,,,,,,,blue,square
412.0,4.0,4.0,0.0,3.0,3.0,292.2310680150985,2.0,1.0,part_1,,,,,,,,,,,,,magenta,flipped triangle
119.0,2.0,2.0,0.0,2.0,2.0,405.6449839845299,2.0,1.0,part_1,,,,,,,,,,,,,gray,hexagon
192.0,7.0,3.0,1.0,4.0,4.0,327.7540639974177,2.0,1.0,part_1,,,,,,,,,,,,,blue,square
0.0,3.0,0.0,0.0,2.0,2.0,408.472494687885,2.0,1.0,part_1,,,,,,,,,,,,,orange,cross
184.0,3.0,3.0,0.0,1.0,1.0,394.4357251748442,2.0,1.0,part_1,,,,,,,,,,,,,orange,cross
42.0,1.0,1.0,0.0,1.0,1.0,453.0513808131218,2.0,1.0,part_1,,,,,,,,,,,,,yellow,circle
102.0,2.0,2.0,0.0,4.0,4.0,340.1682069525122,2.0,1.0,part_1,,,,,,,,,,,,,gray,hexagon
394.0,4.0,4.0,0.0,2.0,2.0,353.096324019134,2.0,1.0,part_1,,,,,,,,,,,,,magenta,flipped triangle
378.0,4.0,4.0,0.0,3.0,3.0,344.0728220157325,2.0,1.0,part_1,,,,,,,,,,,,,magenta,flipped triangle
56.0,1.0,1.0,0.0,3.0,3.0,377.1988549269736,2.0,1.0,part_1,,,,,,,,,,,,,yellow,circle
205.0,3.0,3.0,0.0,4.0,4.0,319.4638867862522,2.0,1.0,part_1,,,,,,,,,,,,,orange,cross
385.0,4.0,4.0,0.0,4.0,4.0,312.0087506249547,2.0,1.0,part_1,,,,,,,,,,,,,magenta,flipped triangle
212.0,7.0,3.0,1.0,3.0,3.0,367.2589133493602,2.0,1.0,part_1,,,,,,,,,,,,,blue,square
0.0,2.0,0.0,0.0,3.0,3.0,399.5067640207708,2.0,1.0,part_1,,,,,,,,,,,,,gray,hexagon
0.0,1.0,0.0,0.0,2.0,2.0,456.0895878821611,2.0,1.0,part_1,,,,,,,,,,,,,yellow,circle
420.0,4.0,4.0,0.0,4.0,4.0,336.5628370083868,2.0,1.0,part_1,,,,,,,,,,,,,magenta,flipped triangle
0.0,8.0,0.0,1.0,3.0,3.0,404.7717177309096,2.0,1.0,part_1,,,,,,,,,,,,,green,diamond
0.0,2.0,0.0,0.0,2.0,2.0,415.8990876749158,2.0,1.0,part_1,,,,,,,,,,,,,gray,hexagon
97.0,2.0,2.0,0.0,1.0,1.0,402.9187206178903,2.0,1.0,part_1,,,,,,,,,,,,,gray,hexagon
402.0,8.0,4.0,1.0,1.0,1.0,325.0303617678582,2.0,1.0,part_1,,,,,,,,,,,,,green,diamond
209.0,7.0,3.0,1.0,4.0,4.0,381.1103366315365,2.0,1.0,part_1,,,,,,,,,,,,,blue,square
378.0,4.0,4.0,0.0,2.0,2.0,428.2443597912788,2.0,1.0,part_1,,,,,,,,,,,,,magenta,flipped triangle
385.0,8.0,4.0,1.0,3.0,3.0,460.5565522797405,2.0,1.0,part_1,,,,,,,,,,,,,green,diamond
221.0,7.0,3.0,1.0,2.0,2.0,518.1568502448499,2.0,1.0,part_1,,,,,,,,,,,,,blue,square
86.0,6.0,2.0,1.0,4.0,4.0,371.9297568313777,2.0,1.0,part_1,,,,,,,,,,,,,cyan,triangle
92.0,2.0,2.0,0.0,1.0,1.0,385.7251871377229,2.0,1.0,part_1,,,,,,,,,,,,,gray,hexagon
38.0,1.0,1.0,0.0,3.0,3.0,316.5100123733282,2.0,1.0,part_1,,,,,,,,,,,,,yellow,circle
81.0,6.0,2.0,1.0,1.0,1.0,306.7245888523757,2.0,1.0,part_1,,,,,,,,,,,,,cyan,triangle
0.0,4.0,0.0,0.0,1.0,1.0,344.2179597914219,2.0,1.0,part_1,,,,,,,,,,,,,magenta,flipped triangle
224.0,7.0,3.0,1.0,3.0,3.0,332.7925112098455,2.0,1.0,part_1,,,,,,,,,,,,,blue,square
109.0,2.0,2.0,0.0,3.0,3.0,353.0102670192718,2.0,1.0,part_1,,,,,,,,,,,,,gray,hexagon
100.0,2.0,2.0,0.0,1.0,1.0,299.0175988525152,2.0,1.0,part_1,,,,,,,,,,,,,gray,hexagon
0.0,4.0,0.0,0.0,4.0,4.0,443.7066433019936,2.0,1.0,part_1,,,,,,,,,,,,,magenta,flipped triangle
387.0,4.0,4.0,0.0,4.0,4.0,368.2467602193355,2.0,1.0,part_1,,,,,,,,,,,,,magenta,flipped triangle
120.0,6.0,2.0,1.0,4.0,4.0,357.0040818303823,2.0,1.0,part_1,,,,,,,,,,,,,cyan,triangle
396.0,4.0,4.0,0.0,1.0,1.0,368.5698923654854,2.0,1.0,part_1,,,,,,,,,,,,,magenta,flipped triangle
209.0,7.0,3.0,1.0,3.0,3.0,333.9177509769797,2.0,1.0,part_1,,,,,,,,,,,,,blue,square
0.0,1.0,0.0,0.0,3.0,3.0,349.512982647866,2.0,1.0,part_1,,,,,,,,,,,,,yellow,circle
35.0,5.0,1.0,1.0,2.0,2.0,369.7748403064906,2.0,1.0,part_1,,,,,,,,,,,,,white,I
63.0,5.0,1.0,1.0,2.0,2.0,347.2101939842105,2.0,1.0,part_1,,,,,,,,,,,,,white,I
37.0,5.0,1.0,1.0,3.0,3.0,336.8110810406506,2.0,1.0,part_1,,,,,,,,,,,,,white,I
0.0,5.0,0.0,1.0,2.0,2.0,304.928919300437,2.0,1.0,part_1,,,,,,,,,,,,,white,I
206.0,3.0,3.0,0.0,2.0,2.0,383.2698580808937,2.0,1.0,part_1,,,,,,,,,,,,,orange,cross
89.0,2.0,2.0,0.0,3.0,3.0,375.1274002715945,2.0,1.0,part_1,,,,,,,,,,,,,gray,hexagon
212.0,7.0,3.0,1.0,1.0,1.0,271.0802890360355,2.0,1.0,part_1,,,,,,,,,,,,,blue,square
114.0,6.0,2.0,1.0,3.0,3.0,397.4997512996197,2.0,1.0,part_1,,,,,,,,,,,,,cyan,triangle
92.0,2.0,2.0,0.0,2.0,2.0,341.2103587761521,2.0,1.0,part_1,,,,,,,,,,,,,gray,hexagon
192.0,3.0,3.0,0.0,1.0,1.0,274.2565120570361,2.0,1.0,part_1,,,,,,,,,,,,,orange,cross
0.0,2.0,0.0,0.0,2.0,2.0,374.0645437501371,2.0,1.0,part_1,,,,,,,,,,,,,gray,hexagon
81.0,2.0,2.0,0.0,2.0,2.0,331.580210942775,2.0,2.0,part_1,,,,,,,,,,,,,gray,hexagon
42.0,1.0,1.0,0.0,2.0,2.0,345.0593277812004,2.0,1.0,part_1,,,,,,,,,,,,,yellow,circle
108.0,2.0,2.0,0.0,4.0,4.0,299.5610460639,2.0,1.0,part_1,,,,,,,,,,,,,gray,hexagon
81.0,6.0,2.0,1.0,2.0,2.0,299.6662659570575,2.0,1.0,part_1,,,,,,,,,,,,,cyan,triangle
403.0,8.0,4.0,1.0,3.0,3.0,299.6534830890596,2.0,1.0,part_1,,,,,,,,,,,,,green,diamond
0.0,1.0,0.0,0.0,4.0,4.0,356.4578690566122,2.0,1.0,part_1,,,,,,,,,,,,,yellow,circle
177.0,3.0,3.0,0.0,1.0,1.0,324.5612820610404,2.0,1.0,part_1,,,,,,,,,,,,,orange,cross
407.0,8.0,4.0,1.0,3.0,3.0,291.2277481518686,2.0,1.0,part_1,,,,,,,,,,,,,green,diamond
391.0,4.0,4.0,0.0,3.0,3.0,360.9598721377551,2.0,1.0,part_1,,,,,,,,,,,,,magenta,flipped triangle
108.0,6.0,2.0,1.0,4.0,4.0,348.7326833419502,2.0,1.0,part_1,,,,,,,,,,,,,cyan,triangle
378.0,8.0,4.0,1.0,1.0,1.0,337.6853559166193,2.0,1.0,part_1,,,,,,,,,,,,,green,diamond
110.0,2.0,2.0,0.0,2.0,2.0,325.1828677020967,2.0,1.0,part_1,,,,,,,,,,,,,gray,hexagon
79.0,2.0,2.0,0.0,1.0,1.0,329.3225867673754,2.0,1.0,part_1,,,,,,,,,,,,,gray,hexagon
414.0,4.0,4.0,0.0,1.0,1.0,261.175197083503,3.0,1.0,part_1,,,,,,,,,,,,,magenta,flipped triangle
209.0,3.0,3.0,0.0,2.0,2.0,410.2245839312672,3.0,1.0,part_1,,,,,,,,,,,,,orange,cross
108.0,2.0,2.0,0.0,3.0,3.0,332.535982131958,3.0,1.0,part_1,,,,,,,,,,,,,gray,hexagon
90.0,2.0,2.0,0.0,4.0,4.0,323.3209978789091,3.0,1.0,part_1,,,,,,,,,,,,,gray,hexagon
0.0,3.0,0.0,0.0,4.0,4.0,299.3145249783993,3.0,1.0,part_1,,,,,,,,,,,,,orange,cross
419.0,4.0,4.0,0.0,4.0,4.0,356.305877212435,3.0,1.0,part_1,,,,,,,,,,,,,magenta,flipped triangle
0.0,4.0,0.0,0.0,3.0,3.0,368.7165011651814,3.0,1.0,part_1,,,,,,,,,,,,,magenta,flipped triangle
92.0,6.0,2.0,1.0,1.0,1.0,302.9893850907683,3.0,1.0,part_1,,,,,,,,,,,,,cyan,triangle
403.0,8.0,4.0,1.0,2.0,2.0,628.161225002259,3.0,1.0,part_1,,,,,,,,,,,,,green,diamond
114.0,2.0,2.0,0.0,2.0,2.0,368.466068059206,3.0,1.0,part_1,,,,,,,,,,,,,gray,hexagon
417.0,4.0,4.0,0.0,3.0,3.0,336.2204916775226,3.0,1.0,part_1,,,,,,,,,,,,,magenta,flipped triangle
214.0,3.0,3.0,0.0,4.0,4.0,395.23661788553,3.0,1.0,part_1,,,,,,,,,,,,,orange,cross
0.0,3.0,0.0,0.0,1.0,1.0,316.7469929903745,3.0,1.0,part_1,,,,,,,,,,,,,orange,cross
60.0,5.0,1.0,1.0,2.0,2.0,328.7137360312044,3.0,1.0,part_1,,,,,,,,,,,,,white,I
0.0,5.0,0.0,1.0,4.0,4.0,440.6573590822518,3.0,2.0,part_1,,,,,,,,,,,,,white,I
398.0,8.0,4.0,1.0,3.0,3.0,383.9033800177276,3.0,1.0,part_1,,,,,,,,,,,,,green,diamond
0.0,3.0,0.0,0.0,3.0,3.0,440.0724079459905,3.0,1.0,part_1,,,,,,,,,,,,,orange,cross
67.0,5.0,1.0,1.0,1.0,1.0,275.3201653249562,3.0,1.0,part_1,,,,,,,,,,,,,white,I
0.0,2.0,0.0,0.0,4.0,4.0,375.6676991470158,3.0,1.0,part_1,,,,,,,,,,,,,gray,hexagon
51.0,5.0,1.0,1.0,3.0,3.0,321.879921015352,3.0,1.0,part_1,,,,,,,,,,,,,white,I
104.0,2.0,2.0,0.0,4.0,4.0,287.9598950967192,3.0,1.0,part_1,,,,,,,,,,,,,gray,hexagon
0.0,6.0,0.0,1.0,3.0,3.0,333.09645112603897,3.0,1.0,part_1,,,,,,,,,,,,,cyan,triangle
0.0,4.0,0.0,0.0,3.0,3.0,345.2159320004284,3.0,1.0,part_1,,,,,,,,,,,,,magenta,flipped triangle
189.0,3.0,3.0,0.0,3.0,3.0,377.7901018038392,3.0,1.0,part_1,,,,,,,,,,,,,orange,cross
220.0,3.0,3.0,0.0,1.0,1.0,365.7593480311334,3.0,1.0,part_1,,,,,,,,,,,,,orange,cross
416.0,8.0,4.0,1.0,4.0,4.0,357.1326807141304,3.0,1.0,part_1,,,,,,,,,,,,,green,diamond
0.0,5.0,0.0,1.0,3.0,3.0,324.8321707360446,3.0,1.0,part_1,,,,,,,,,,,,,white,I
56.0,5.0,1.0,1.0,4.0,4.0,291.7903470806777,3.0,1.0,part_1,,,,,,,,,,,,,white,I
208.0,3.0,3.0,0.0,3.0,3.0,325.0763029791415,3.0,1.0,part_1,,,,,,,,,,,,,orange,cross
188.0,7.0,3.0,1.0,1.0,1.0,324.4720906950533,3.0,1.0,part_1,,,,,,,,,,,,,blue,square
0.0,5.0,0.0,1.0,2.0,2.0,315.7776109874248,3.0,1.0,part_1,,,,,,,,,,,,,white,I
73.0,1.0,1.0,0.0,4.0,4.0,303.4454798325896,3.0,1.0,part_1,,,,,,,,,,,,,yellow,circle
70.0,5.0,1.0,1.0,4.0,4.0,316.7418800294399,3.0,1.0,part_1,,,,,,,,,,,,,white,I
212.0,3.0,3.0,0.0,1.0,1.0,415.6286753714084,3.0,1.0,part_1,,,,,,,,,,,,,orange,cross
391.0,8.0,4.0,1.0,3.0,3.0,292.3344490118325,3.0,1.0,part_1,,,,,,,,,,,,,green,diamond
412.0,4.0,4.0,0.0,4.0,4.0,262.2265582904219,3.0,1.0,part_1,,,,,,,,,,,,,magenta,flipped triangle
76.0,6.0,2.0,1.0,4.0,4.0,352.4619461968541,3.0,1.0,part_1,,,,,,,,,,,,,cyan,triangle
36.0,1.0,1.0,0.0,3.0,3.0,431.4253171905875,3.0,1.0,part_1,,,,,,,,,,,,,yellow,circle
402.0,4.0,4.0,0.0,3.0,3.0,295.2230689115822,3.0,1.0,part_1,,,,,,,,,,,,,magenta,flipped triangle
200.0,3.0,3.0,0.0,4.0,4.0,262.0094451121986,3.0,1.0,part_1,,,,,,,,,,,,,orange,cross
402.0,8.0,4.0,1.0,4.0,4.0,295.7805036567151,3.0,1.0,part_1,,,,,,,,,,,,,green,diamond
202.0,3.0,3.0,0.0,4.0,4.0,274.230157956481,3.0,1.0,part_1,,,,,,,,,,,,,orange,cross
217.0,3.0,3.0,0.0,3.0,3.0,333.0309810116887,3.0,1.0,part_1,,,,,,,,,,,,,orange,cross
0.0,3.0,0.0,0.0,4.0,4.0,256.1666048131883,3.0,1.0,part_1,,,,,,,,,,,,,orange,cross
0.0,8.0,0.0,1.0,3.0,3.0,263.8431992381811,3.0,1.0,part_1,,,,,,,,,,,,,green,diamond
403.0,4.0,4.0,0.0,1.0,1.0,300.2626979723573,3.0,1.0,part_1,,,,,,,,,,,,,magenta,flipped triangle
65.0,1.0,1.0,0.0,3.0,3.0,287.9358897916972,3.0,1.0,part_1,,,,,,,,,,,,,yellow,circle
36.0,5.0,1.0,1.0,1.0,1.0,333.5582478903234,3.0,1.0,part_1,,,,,,,,,,,,,white,I
381.0,8.0,4.0,1.0,1.0,1.0,348.894340917468,3.0,1.0,part_1,,,,,,,,,,,,,green,diamond
107.0,6.0,2.0,1.0,2.0,2.0,357.5894916430115,3.0,1.0,part_1,,,,,,,,,,,,,cyan,triangle
113.0,2.0,2.0,0.0,3.0,3.0,304.5784044079482,3.0,1.0,part_1,,,,,,,,,,,,,gray,hexagon
212.0,3.0,3.0,0.0,3.0,3.0,337.1810037642717,3.0,1.0,part_1,,,,,,,,,,,,,orange,cross
0.0,7.0,0.0,1.0,1.0,1.0,279.628932941705,3.0,1.0,part_1,,,,,,,,,,,,,blue,square
184.0,7.0,3.0,1.0,4.0,4.0,269.0573269501328,3.0,1.0,part_1,,,,,,,,,,,,,blue,square
68.0,1.0,1.0,0.0,1.0,1.0,373.5116478055715,3.0,1.0,part_1,,,,,,,,,,,,,yellow,circle
188.0,3.0,3.0,0.0,3.0,3.0,317.849260289222,3.0,1.0,part_1,,,,,,,,,,,,,orange,cross
188.0,7.0,3.0,1.0,1.0,1.0,237.7576860599219,3.0,1.0,part_1,,,,,,,,,,,,,blue,square
119.0,6.0,2.0,1.0,1.0,1.0,275.3157112747431,3.0,1.0,part_1,,,,,,,,,,,,,cyan,triangle
0.0,6.0,0.0,1.0,2.0,2.0,373.4625661745667,3.0,1.0,part_1,,,,,,,,,,,,,cyan,triangle
380.0,8.0,4.0,1.0,1.0,1.0,251.7793788574636,3.0,1.0,part_1,,,,,,,,,,,,,green,diamond
0.0,5.0,0.0,1.0,2.0,2.0,498.3233101665973,3.0,1.0,part_1,,,,,,,,,,,,,white,I
53.0,1.0,1.0,0.0,1.0,1.0,307.5682590715587,3.0,1.0,part_1,,,,,,,,,,,,,yellow,circle
120.0,2.0,2.0,0.0,1.0,1.0,275.18813591450447,3.0,1.0,part_1,,,,,,,,,,,,,gray,hexagon
0.0,1.0,0.0,0.0,4.0,4.0,333.1548850983381,3.0,1.0,part_1,,,,,,,,,,,,,yellow,circle
414.0,8.0,4.0,1.0,4.0,4.0,275.0328322872519,3.0,1.0,part_1,,,,,,,,,,,,,green,diamond
0.0,6.0,0.0,1.0,3.0,3.0,301.2445359490812,3.0,1.0,part_1,,,,,,,,,,,,,cyan,triangle
225.0,3.0,3.0,0.0,2.0,2.0,403.6391861736774,3.0,1.0,part_1,,,,,,,,,,,,,orange,cross
177.0,3.0,3.0,0.0,4.0,4.0,277.9901181347668,3.0,1.0,part_1,,,,,,,,,,,,,orange,cross
113.0,6.0,2.0,1.0,1.0,1.0,382.2522130794823,3.0,1.0,part_1,,,,,,,,,,,,,cyan,triangle
188.0,3.0,3.0,0.0,4.0,4.0,279.4048553332686,3.0,1.0,part_1,,,,,,,,,,,,,orange,cross
33.0,1.0,1.0,0.0,1.0,1.0,358.564977068454,3.0,1.0,part_1,,,,,,,,,,,,,yellow,circle
78.0,2.0,2.0,0.0,4.0,4.0,326.8853649497032,3.0,1.0,part_1,,,,,,,,,,,,,gray,hexagon
0.0,1.0,0.0,0.0,3.0,3.0,325.1795400865376,3.0,1.0,part_1,,,,,,,,,,,,,yellow,circle
0.0,8.0,0.0,1.0,4.0,4.0,273.2449281029403,3.0,1.0,part_1,,,,,,,,,,,,,green,diamond
33.0,5.0,1.0,1.0,1.0,1.0,284.9213667213917,3.0,1.0,part_1,,,,,,,,,,,,,white,I
71.0,5.0,1.0,1.0,1.0,1.0,317.1327109448612,3.0,1.0,part_1,,,,,,,,,,,,,white,I
388.0,8.0,4.0,1.0,2.0,2.0,349.2587711662054,3.0,1.0,part_1,,,,,,,,,,,,,green,diamond
98.0,6.0,2.0,1.0,1.0,1.0,316.5497719310224,3.0,1.0,part_1,,,,,,,,,,,,,cyan,triangle
64.0,5.0,1.0,1.0,2.0,2.0,485.8024907298386,3.0,1.0,part_1,,,,,,,,,,,,,white,I
196.0,7.0,3.0,1.0,1.0,1.0,328.8983209058642,3.0,1.0,part_1,,,,,,,,,,,,,blue,square
0.0,8.0,0.0,1.0,1.0,1.0,320.5454470589757,3.0,1.0,part_1,,,,,,,,,,,,,green,diamond
401.0,8.0,4.0,1.0,3.0,3.0,287.9712469875812,3.0,1.0,part_1,,,,,,,,,,,,,green,diamond
63.0,1.0,1.0,0.0,4.0,4.0,311.8769680149853,3.0,1.0,part_1,,,,,,,,,,,,,yellow,circle
27.0,1.0,1.0,0.0,1.0,1.0,254.6402020379901,3.0,1.0,part_1,,,,,,,,,,,,,yellow,circle
60.0,1.0,1.0,0.0,2.0,2.0,320.1269712299108,3.0,1.0,part_1,,,,,,,,,,,,,yellow,circle
214.0,3.0,3.0,0.0,3.0,3.0,357.1903719566762,3.0,1.0,part_1,,,,,,,,,,,,,orange,cross
42.0,5.0,1.0,1.0,3.0,3.0,299.0628071129322,3.0,1.0,part_1,,,,,,,,,,,,,white,I
180.0,3.0,3.0,0.0,2.0,2.0,402.0529501140117,3.0,1.0,part_1,,,,,,,,,,,,,orange,cross
418.0,8.0,4.0,1.0,2.0,2.0,356.3336818479001,3.0,1.0,part_1,,,,,,,,,,,,,green,diamond
220.0,7.0,3.0,1.0,1.0,1.0,323.4484121203422,3.0,1.0,part_1,,,,,,,,,,,,,blue,square
92.0,6.0,2.0,1.0,2.0,2.0,291.9654767028987,3.0,1.0,part_1,,,,,,,,,,,,,cyan,triangle
109.0,6.0,2.0,1.0,2.0,2.0,279.4788009487092,3.0,1.0,part_1,,,,,,,,,,,,,cyan,triangle
380.0,4.0,4.0,0.0,2.0,2.0,293.064933270216,3.0,1.0,part_1,,,,,,,,,,,,,magenta,flipped triangle
218.0,3.0,3.0,0.0,4.0,4.0,484.9027479067445,3.0,1.0,part_1,,,,,,,,,,,,,orange,cross
200.0,7.0,3.0,1.0,3.0,3.0,382.5252410024404,3.0,1.0,part_1,,,,,,,,,,,,,blue,square
44.0,5.0,1.0,1.0,2.0,2.0,439.9914010427892,3.0,1.0,part_1,,,,,,,,,,,,,white,I
192.0,7.0,3.0,1.0,2.0,2.0,363.3257020264864,3.0,1.0,part_1,,,,,,,,,,,,,blue,square
202.0,3.0,3.0,0.0,1.0,1.0,308.7918972596526,3.0,1.0,part_1,,,,,,,,,,,,,orange,cross
0.0,2.0,0.0,0.0,4.0,4.0,362.3715336434543,3.0,1.0,part_1,,,,,,,,,,,,,gray,hexagon
380.0,8.0,4.0,1.0,1.0,1.0,419.3976130336523,3.0,1.0,part_1,,,,,,,,,,,,,green,diamond
0.0,8.0,0.0,1.0,1.0,1.0,274.5263040997088,4.0,1.0,part_1,,,,,,,,,,,,,green,diamond
31.0,1.0,1.0,0.0,3.0,3.0,288.0745762959122,4.0,1.0,part_1,,,,,,,,,,,,,yellow,circle
59.0,1.0,1.0,0.0,1.0,1.0,287.8485401161015,4.0,1.0,part_1,,,,,,,,,,,,,yellow,circle
0.0,1.0,0.0,0.0,1.0,1.0,300.9574580937624,4.0,1.0,part_1,,,,,,,,,,,,,yellow,circle
31.0,5.0,1.0,1.0,4.0,4.0,448.9511619322002,4.0,1.0,part_1,,,,,,,,,,,,,white,I
44.0,1.0,1.0,0.0,2.0,2.0,301.04352068156,4.0,1.0,part_1,,,,,,,,,,,,,yellow,circle
224.0,7.0,3.0,1.0,4.0,4.0,402.7115697972476,4.0,1.0,part_1,,,,,,,,,,,,,blue,square
204.0,7.0,3.0,1.0,1.0,1.0,324.4732189923525,4.0,1.0,part_1,,,,,,,,,,,,,blue,square
0.0,7.0,0.0,1.0,1.0,1.0,290.7142927870154,4.0,1.0,part_1,,,,,,,,,,,,,blue,square
0.0,3.0,0.0,0.0,1.0,1.0,313.0859169177711,4.0,1.0,part_1,,,,,,,,,,,,,orange,cross
104.0,6.0,2.0,1.0,4.0,4.0,370.015628170222,4.0,1.0,part_1,,,,,,,,,,,,,cyan,triangle
44.0,5.0,1.0,1.0,2.0,2.0,336.592473089695,4.0,1.0,part_1,,,,,,,,,,,,,white,I
106.0,2.0,2.0,0.0,2.0,2.0,370.5445271916687,4.0,1.0,part_1,,,,,,,,,,,,,gray,hexagon
417.0,8.0,4.0,1.0,2.0,2.0,382.927895989269,4.0,1.0,part_1,,,,,,,,,,,,,green,diamond
175.0,3.0,3.0,0.0,1.0,1.0,349.113070871681,4.0,1.0,part_1,,,,,,,,,,,,,orange,cross
0.0,7.0,0.0,1.0,3.0,3.0,329.3075151741504,4.0,1.0,part_1,,,,,,,,,,,,,blue,square
0.0,1.0,0.0,0.0,4.0,4.0,452.9074360616505,4.0,1.0,part_1,,,,,,,,,,,,,yellow,circle
383.0,8.0,4.0,1.0,4.0,4.0,419.0058303065598,4.0,1.0,part_1,,,,,,,,,,,,,green,diamond
36.0,1.0,1.0,0.0,4.0,4.0,431.0015728697181,4.0,1.0,part_1,,,,,,,,,,,,,yellow,circle
47.0,5.0,1.0,1.0,2.0,2.0,353.934939019382,4.0,1.0,part_1,,,,,,,,,,,,,white,I
122.0,6.0,2.0,1.0,3.0,3.0,366.2007628008723,4.0,1.0,part_1,,,,,,,,,,,,,cyan,triangle
80.0,6.0,2.0,1.0,1.0,1.0,307.9836540855467,4.0,1.0,part_1,,,,,,,,,,,,,cyan,triangle
196.0,3.0,3.0,0.0,2.0,2.0,320.1923598535359,4.0,1.0,part_1,,,,,,,,,,,,,orange,cross
221.0,3.0,3.0,0.0,2.0,2.0,331.7742790095508,4.0,1.0,part_1,,,,,,,,,,,,,orange,cross
407.0,4.0,4.0,0.0,1.0,1.0,368.3265061117708,4.0,1.0,part_1,,,,,,,,,,,,,magenta,flipped triangle
201.0,3.0,3.0,0.0,3.0,3.0,311.8785307742655,4.0,1.0,part_1,,,,,,,,,,,,,orange,cross
416.0,4.0,4.0,0.0,1.0,1.0,266.9644900597632,4.0,1.0,part_1,,,,,,,,,,,,,magenta,flipped triangle
38.0,5.0,1.0,1.0,4.0,4.0,414.9299911223352,4.0,1.0,part_1,,,,,,,,,,,,,white,I
195.0,7.0,3.0,1.0,3.0,3.0,324.6092088520527,4.0,1.0,part_1,,,,,,,,,,,,,blue,square
36.0,5.0,1.0,1.0,3.0,3.0,291.7889789678156,4.0,1.0,part_1,,,,,,,,,,,,,white,I
189.0,7.0,3.0,1.0,2.0,2.0,291.155471932143,4.0,1.0,part_1,,,,,,,,,,,,,blue,square
0.0,1.0,0.0,0.0,1.0,1.0,369.6047673001885,4.0,1.0,part_1,,,,,,,,,,,,,yellow,circle
214.0,7.0,3.0,1.0,2.0,2.0,372.5270889699459,4.0,1.0,part_1,,,,,,,,,,,,,blue,square
185.0,7.0,3.0,1.0,1.0,1.0,427.5187789462507,4.0,1.0,part_1,,,,,,,,,,,,,blue,square
122.0,6.0,2.0,1.0,4.0,4.0,518.7144591473043,4.0,3.0,part_1,,,,,,,,,,,,,cyan,triangle
388.0,8.0,4.0,1.0,4.0,4.0,365.2160689234733,4.0,1.0,part_1,,,,,,,,,,,,,green,diamond
33.0,5.0,1.0,1.0,4.0,4.0,332.9570759087801,4.0,1.0,part_1,,,,,,,,,,,,,white,I
177.0,7.0,3.0,1.0,4.0,4.0,275.57457331568,4.0,1.0,part_1,,,,,,,,,,,,,blue,square
398.0,4.0,4.0,0.0,2.0,2.0,400.3426101990044,4.0,1.0,part_1,,,,,,,,,,,,,magenta,flipped triangle
411.0,4.0,4.0,0.0,2.0,2.0,331.6781441681087,4.0,2.0,part_1,,,,,,,,,,,,,magenta,flipped triangle
180.0,7.0,3.0,1.0,4.0,4.0,391.5363606065511,4.0,1.0,part_1,,,,,,,,,,,,,blue,square
0.0,1.0,0.0,0.0,2.0,2.0,289.5952183753252,4.0,1.0,part_1,,,,,,,,,,,,,yellow,circle
185.0,3.0,3.0,0.0,3.0,3.0,434.8967080004513,4.0,1.0,part_1,,,,,,,,,,,,,orange,cross
92.0,2.0,2.0,0.0,1.0,1.0,344.584739767015,4.0,2.0,part_1,,,,,,,,,,,,,gray,hexagon
0.0,2.0,0.0,0.0,1.0,1.0,336.8566441349685,4.0,1.0,part_1,,,,,,,,,,,,,gray,hexagon
90.0,2.0,2.0,0.0,1.0,1.0,304.0085448883474,4.0,1.0,part_1,,,,,,,,,,,,,gray,hexagon
27.0,5.0,1.0,1.0,3.0,3.0,402.5758220814168,4.0,1.0,part_1,,,,,,,,,,,,,white,I
407.0,4.0,4.0,0.0,2.0,2.0,370.2191808260977,4.0,1.0,part_1,,,,,,,,,,,,,magenta,flipped triangle
0.0,3.0,0.0,0.0,3.0,3.0,427.5506711564958,4.0,1.0,part_1,,,,,,,,,,,,,orange,cross
0.0,7.0,0.0,1.0,4.0,4.0,328.740666154772,4.0,1.0,part_1,,,,,,,,,,,,,blue,square
47.0,1.0,1.0,0.0,3.0,3.0,397.7927528321743,4.0,1.0,part_1,,,,,,,,,,,,,yellow,circle
76.0,2.0,2.0,0.0,1.0,1.0,319.6764797903597,4.0,1.0,part_1,,,,,,,,,,,,,gray,hexagon
119.0,6.0,2.0,1.0,2.0,2.0,282.5667653232813,4.0,1.0,part_1,,,,,,,,,,,,,cyan,triangle
0.0,5.0,0.0,1.0,2.0,2.0,407.4023957364261,4.0,1.0,part_1,,,,,,,,,,,,,white,I
0.0,8.0,0.0,1.0,4.0,4.0,306.5345459617674,4.0,1.0,part_1,,,,,,,,,,,,,green,diamond
100.0,6.0,2.0,1.0,2.0,2.0,320.1158060692251,4.0,1.0,part_1,,,,,,,,,,,,,cyan,triangle
69.0,5.0,1.0,1.0,4.0,4.0,401.1026383377611,4.0,1.0,part_1,,,,,,,,,,,,,white,I
0.0,6.0,0.0,1.0,1.0,1.0,297.1695181913674,4.0,1.0,part_1,,,,,,,,,,,,,cyan,triangle
188.0,7.0,3.0,1.0,3.0,3.0,378.4421472810209,4.0,1.0,part_1,,,,,,,,,,,,,blue,square
51.0,1.0,1.0,0.0,3.0,3.0,343.0848680436611,4.0,1.0,part_1,,,,,,,,,,,,,yellow,circle
0.0,5.0,0.0,1.0,1.0,1.0,358.1493329256773,4.0,1.0,part_1,,,,,,,,,,,,,white,I
123.0,6.0,2.0,1.0,3.0,3.0,366.8968081474304,4.0,1.0,part_1,,,,,,,,,,,,,cyan,triangle
25.0,1.0,1.0,0.0,2.0,2.0,369.3719180300832,4.0,1.0,part_1,,,,,,,,,,,,,yellow,circle
381.0,4.0,4.0,0.0,2.0,2.0,356.3751350156963,4.0,1.0,part_1,,,,,,,,,,,,,magenta,flipped triangle
0.0,4.0,0.0,0.0,1.0,1.0,345.025482121855,4.0,1.0,part_1,,,,,,,,,,,,,magenta,flipped triangle
62.0,1.0,1.0,0.0,4.0,4.0,413.9035707339644,4.0,1.0,part_1,,,,,,,,,,,,,yellow,circle
404.0,8.0,4.0,1.0,3.0,3.0,337.0958948507905,4.0,1.0,part_1,,,,,,,,,,,,,green,diamond
86.0,2.0,2.0,0.0,3.0,3.0,350.7649297825992,4.0,1.0,part_1,,,,,,,,,,,,,gray,hexagon
0.0,6.0,0.0,1.0,3.0,3.0,383.940267842263,4.0,1.0,part_1,,,,,,,,,,,,,cyan,triangle
55.0,1.0,1.0,0.0,3.0,3.0,374.9562720768153,4.0,1.0,part_1,,,,,,,,,,,,,yellow,circle
388.0,8.0,4.0,1.0,4.0,4.0,317.1108239330351,4.0,1.0,part_1,,,,,,,,,,,,,green,diamond
62.0,5.0,1.0,1.0,3.0,3.0,484.7222208045423,4.0,1.0,part_1,,,,,,,,,,,,,white,I
0.0,7.0,0.0,1.0,4.0,4.0,362.1715190820396,4.0,1.0,part_1,,,,,,,,,,,,,blue,square
71.0,5.0,1.0,1.0,4.0,4.0,375.4280577413738,4.0,1.0,part_1,,,,,,,,,,,,,white,I
97.0,6.0,2.0,1.0,3.0,3.0,386.7599158547818,4.0,1.0,part_1,,,,,,,,,,,,,cyan,triangle
67.0,1.0,1.0,0.0,2.0,2.0,329.2813817970454,4.0,1.0,part_1,,,,,,,,,,,,,yellow,circle
94.0,2.0,2.0,0.0,3.0,3.0,342.288970015943,4.0,1.0,part_1,,,,,,,,,,,,,gray,hexagon
399.0,4.0,4.0,0.0,3.0,3.0,318.9711049199104,4.0,1.0,part_1,,,,,,,,,,,,,magenta,flipped triangle
83.0,6.0,2.0,1.0,2.0,2.0,387.2983297333121,4.0,1.0,part_1,,,,,,,,,,,,,cyan,triangle
46.0,5.0,1.0,1.0,3.0,3.0,333.3021798171103,4.0,1.0,part_1,,,,,,,,,,,,,white,I
78.0,6.0,2.0,1.0,1.0,1.0,366.3233108818531,4.0,1.0,part_1,,,,,,,,,,,,,cyan,triangle
192.0,3.0,3.0,0.0,4.0,4.0,403.049673885107,4.0,1.0,part_1,,,,,,,,,,,,,orange,cross
0.0,2.0,0.0,0.0,3.0,3.0,390.1553470641374,4.0,1.0,part_1,,,,,,,,,,,,,gray,hexagon
0.0,6.0,0.0,1.0,1.0,1.0,291.0825009457767,4.0,1.0,part_1,,,,,,,,,,,,,cyan,triangle
123.0,2.0,2.0,0.0,3.0,3.0,290.8410062082112,4.0,1.0,part_1,,,,,,,,,,,,,gray,hexagon
71.0,1.0,1.0,0.0,2.0,2.0,349.7782740741968,4.0,1.0,part_1,,,,,,,,,,,,,yellow,circle
176.0,7.0,3.0,1.0,2.0,2.0,312.8807209432125,4.0,1.0,part_1,,,,,,,,,,,,,blue,square
224.0,3.0,3.0,0.0,2.0,2.0,313.2421388290822,4.0,1.0,part_1,,,,,,,,,,,,,orange,cross
119.0,2.0,2.0,0.0,2.0,2.0,407.3950173333287,4.0,1.0,part_1,,,,,,,,,,,,,gray,hexagon
49.0,5.0,1.0,1.0,1.0,1.0,349.1691737435758,4.0,1.0,part_1,,,,,,,,,,,,,white,I
68.0,5.0,1.0,1.0,2.0,2.0,360.5994982644915,4.0,1.0,part_1,,,,,,,,,,,,,white,I
0.0,5.0,0.0,1.0,1.0,1.0,304.215723183006,4.0,1.0,part_1,,,,,,,,,,,,,white,I
188.0,3.0,3.0,0.0,3.0,3.0,386.4458138123154,4.0,1.0,part_1,,,,,,,,,,,,,orange,cross
0.0,4.0,0.0,0.0,3.0,3.0,353.8826541043818,4.0,1.0,part_1,,,,,,,,,,,,,magenta,flipped triangle
90.0,6.0,2.0,1.0,2.0,2.0,365.9956799820065,4.0,1.0,part_1,,,,,,,,,,,,,cyan,triangle
33.0,1.0,1.0,0.0,1.0,1.0,397.5328258238733,4.0,1.0,part_1,,,,,,,,,,,,,yellow,circle
225.0,7.0,3.0,1.0,3.0,3.0,412.0452580973506,4.0,1.0,part_1,,,,,,,,,,,,,blue,square
94.0,6.0,2.0,1.0,4.0,4.0,379.0105511434376,4.0,1.0,part_1,,,,,,,,,,,,,cyan,triangle
59.0,5.0,1.0,1.0,4.0,4.0,333.62782234326,4.0,1.0,part_1,,,,,,,,,,,,,white,I
38.0,5.0,1.0,1.0,3.0,3.0,346.0440211929381,4.0,1.0,part_1,,,,,,,,,,,,,white,I
0.0,1.0,1.0,0.0,6.0,6.0,502.71112797781825,1.0,0.0,part_2,go,250.0,250.0,1.0,,,,,,,,,yellow,circle
0.0,5.0,1.0,1.0,6.0,0.0,0.0,1.0,0.0,part_2,stop,250.0,250.0,4.0,,,,,,,,,white,I
0.0,7.0,3.0,1.0,5.0,5.0,364.179303869605,1.0,0.0,part_2,go,250.0,300.0,1.0,,,,,,,,,blue,square
0.0,5.0,1.0,1.0,5.0,5.0,401.1901286430657,1.0,0.0,part_2,stop,250.0,300.0,3.0,,,,,,,,,white,I
0.0,2.0,2.0,0.0,5.0,5.0,335.9402380883693,1.0,0.0,part_2,go,200.0,300.0,1.0,,,,,,,,,gray,hexagon
0.0,7.0,3.0,1.0,6.0,6.0,346.2429200299084,1.0,0.0,part_2,stop,200.0,300.0,3.0,,,,,,,,,blue,square
0.0,1.0,1.0,0.0,5.0,5.0,381.7462488077581,1.0,0.0,part_2,go,200.0,250.0,1.0,,,,,,,,,yellow,circle
0.0,1.0,1.0,0.0,6.0,6.0,357.3136902414262,1.0,0.0,part_2,go,200.0,250.0,1.0,,,,,,,,,yellow,circle
0.0,4.0,4.0,0.0,5.0,5.0,327.4319120682776,1.0,0.0,part_2,go,200.0,250.0,1.0,,,,,,,,,magenta,flipped triangle
0.0,3.0,3.0,0.0,6.0,6.0,350.9402330964803,1.0,0.0,part_2,go,200.0,250.0,1.0,,,,,,,,,orange,cross
0.0,1.0,1.0,0.0,5.0,5.0,405.9607968665659,1.0,0.0,part_2,go,200.0,250.0,1.0,,,,,,,,,yellow,circle
0.0,7.0,3.0,1.0,5.0,5.0,294.7998610325157,1.0,0.0,part_2,stop,200.0,250.0,3.0,,,,,,,,,blue,square
0.0,2.0,2.0,0.0,5.0,5.0,409.076910931617,1.0,0.0,part_2,go,150.0,250.0,1.0,,,,,,,,,gray,hexagon
0.0,2.0,2.0,0.0,6.0,6.0,420.5587171018123,1.0,0.0,part_2,go,150.0,250.0,1.0,,,,,,,,,gray,hexagon
0.0,4.0,4.0,0.0,5.0,5.0,411.9142959825694,1.0,0.0,part_2,go,150.0,250.0,1.0,,,,,,,,,magenta,flipped triangle
0.0,6.0,2.0,1.0,6.0,6.0,278.4846383146941,1.0,0.0,part_2,stop,150.0,250.0,3.0,,,,,,,,,cyan,triangle
0.0,5.0,1.0,1.0,5.0,5.0,286.8637051433325,1.0,0.0,part_2,stop,150.0,200.0,3.0,,,,,,,,,white,I
0.0,7.0,3.0,1.0,6.0,6.0,256.4157312735915,1.0,0.0,part_2,stop,100.0,200.0,3.0,,,,,,,,,blue,square
0.0,2.0,2.0,0.0,5.0,5.0,377.6538958773017,1.0,0.0,part_2,go,100.0,150.0,1.0,,,,,,,,,gray,hexagon
0.0,7.0,3.0,1.0,5.0,0.0,0.0,1.0,0.0,part_2,stop,100.0,150.0,4.0,,,,,,,,,blue,square
0.0,8.0,4.0,1.0,5.0,0.0,0.0,1.0,0.0,part_2,stop,150.0,150.0,4.0,,,,,,,,,green,diamond
0.0,3.0,3.0,0.0,5.0,5.0,368.4293157421052,1.0,0.0,part_2,go,200.0,150.0,1.0,,,,,,,,,orange,cross
0.0,7.0,3.0,1.0,6.0,6.0,339.7088800556957,1.0,0.0,part_2,go,200.0,150.0,1.0,,,,,,,,,blue,square
0.0,2.0,2.0,0.0,5.0,5.0,351.2375657446682,1.0,0.0,part_2,go,200.0,150.0,1.0,,,,,,,,,gray,hexagon
0.0,5.0,1.0,1.0,5.0,0.0,0.0,1.0,0.0,part_2,stop,200.0,150.0,4.0,,,,,,,,,white,I
0.0,7.0,3.0,1.0,6.0,6.0,306.5648428164422,1.0,0.0,part_2,stop,250.0,150.0,3.0,,,,,,,,,blue,square
0.0,4.0,4.0,0.0,6.0,6.0,298.0032060295343,1.0,0.0,part_2,go,250.0,100.0,1.0,,,,,,,,,magenta,flipped triangle
0.0,8.0,4.0,1.0,6.0,6.0,355.275098234415,1.0,0.0,part_2,stop,250.0,100.0,3.0,,,,,,,,,green,diamond
0.0,5.0,1.0,1.0,6.0,6.0,633.6874547414482,1.0,0.0,part_2,go,250.0,50.0,1.0,,,,,,,,,white,I
0.0,2.0,2.0,0.0,6.0,6.0,422.8849587962031,1.0,0.0,part_2,go,250.0,50.0,1.0,,,,,,,,,gray,hexagon
0.0,6.0,2.0,1.0,5.0,5.0,413.2601362653076,1.0,0.0,part_2,stop,250.0,50.0,3.0,,,,,,,,,cyan,triangle
0.0,6.0,2.0,1.0,6.0,6.0,357.1462221443653,1.0,0.0,part_2,stop,200.0,50.0,3.0,,,,,,,,,cyan,triangle
0.0,5.0,1.0,1.0,6.0,0.0,0.0,1.0,0.0,part_2,stop,200.0,0.0,4.0,,,,,,,,,white,I
0.0,4.0,4.0,0.0,5.0,5.0,468.5062076896429,1.0,0.0,part_2,go,200.0,50.0,1.0,,,,,,,,,magenta,flipped triangle
0.0,6.0,2.0,1.0,5.0,0.0,0.0,1.0,0.0,part_2,stop,200.0,50.0,4.0,,,,,,,,,cyan,triangle
0.0,2.0,2.0,0.0,6.0,6.0,619.5849180221558,1.0,0.0,part_2,go,250.0,50.0,1.0,,,,,,,,,gray,hexagon
0.0,3.0,3.0,0.0,6.0,6.0,486.5335910581052,2.0,0.0,part_2,go,250.0,50.0,1.0,,,,,,,,,orange,cross
0.0,1.0,1.0,0.0,5.0,5.0,303.2716191373765,2.0,0.0,part_2,go,250.0,50.0,1.0,,,,,,,,,yellow,circle
0.0,7.0,3.0,1.0,5.0,5.0,293.3802548795938,2.0,0.0,part_2,stop,250.0,50.0,3.0,,,,,,,,,blue,square
0.0,2.0,2.0,0.0,6.0,6.0,454.4431362301111,2.0,0.0,part_2,go,200.0,50.0,1.0,,,,,,,,,gray,hexagon
0.0,5.0,1.0,1.0,5.0,5.0,374.258388299495,2.0,0.0,part_2,stop,200.0,50.0,3.0,,,,,,,,,white,I
0.0,7.0,3.0,1.0,5.0,0.0,0.0,2.0,0.0,part_2,stop,150.0,50.0,4.0,,,,,,,,,blue,square
0.0,1.0,1.0,0.0,5.0,5.0,681.3636119477451,2.0,0.0,part_2,go,200.0,50.0,1.0,,,,,,,,,yellow,circle
0.0,4.0,4.0,0.0,6.0,6.0,375.5660830065608,2.0,0.0,part_2,go,200.0,50.0,1.0,,,,,,,,,magenta,flipped triangle
0.0,6.0,2.0,1.0,6.0,0.0,0.0,2.0,0.0,part_2,stop,200.0,50.0,4.0,,,,,,,,,cyan,triangle
0.0,7.0,3.0,1.0,5.0,0.0,0.0,2.0,0.0,part_2,stop,200.0,100.0,4.0,,,,,,,,,blue,square
0.0,6.0,2.0,1.0,5.0,5.0,391.0878063179552,2.0,0.0,part_2,go,250.0,100.0,1.0,,,,,,,,,cyan,triangle
0.0,2.0,2.0,0.0,6.0,6.0,368.0027099326253,2.0,0.0,part_2,go,250.0,100.0,1.0,,,,,,,,,gray,hexagon
0.0,7.0,3.0,1.0,5.0,5.0,347.9032777249813,2.0,0.0,part_2,stop,250.0,100.0,3.0,,,,,,,,,blue,square
0.0,5.0,1.0,1.0,5.0,5.0,428.6473011597991,2.0,0.0,part_2,go,200.0,100.0,1.0,,,,,,,,,white,I
0.0,6.0,2.0,1.0,5.0,0.0,0.0,2.0,0.0,part_2,stop,200.0,100.0,4.0,,,,,,,,,cyan,triangle
0.0,7.0,3.0,1.0,6.0,0.0,0.0,2.0,0.0,part_2,stop,250.0,100.0,4.0,,,,,,,,,blue,square
0.0,1.0,1.0,0.0,6.0,6.0,454.0603789500892,2.0,0.0,part_2,go,250.0,150.0,1.0,,,,,,,,,yellow,circle
0.0,8.0,4.0,1.0,6.0,6.0,330.8203392662108,2.0,0.0,part_2,stop,250.0,150.0,3.0,,,,,,,,,green,diamond
0.0,5.0,1.0,1.0,5.0,5.0,387.87838025018567,2.0,0.0,part_2,stop,250.0,100.0,3.0,,,,,,,,,white,I
0.0,1.0,1.0,0.0,6.0,6.0,444.8918541893363,2.0,0.0,part_2,go,200.0,100.0,1.0,,,,,,,,,yellow,circle
0.0,8.0,4.0,1.0,6.0,0.0,0.0,2.0,0.0,part_2,stop,200.0,100.0,4.0,,,,,,,,,green,diamond
0.0,6.0,2.0,1.0,6.0,6.0,356.6145966760814,2.0,0.0,part_2,stop,200.0,150.0,3.0,,,,,,,,,cyan,triangle
0.0,2.0,2.0,0.0,6.0,6.0,503.80313489586115,2.0,0.0,part_2,go,200.0,100.0,1.0,,,,,,,,,gray,hexagon
0.0,8.0,4.0,1.0,6.0,0.0,0.0,2.0,0.0,part_2,stop,200.0,100.0,4.0,,,,,,,,,green,diamond
0.0,4.0,4.0,0.0,5.0,5.0,356.6467720083892,2.0,0.0,part_2,go,200.0,150.0,1.0,,,,,,,,,magenta,flipped triangle
0.0,2.0,2.0,0.0,5.0,5.0,394.6125013753772,2.0,0.0,part_2,go,200.0,150.0,1.0,,,,,,,,,gray,hexagon
0.0,7.0,3.0,1.0,6.0,6.0,325.1363709568977,2.0,0.0,part_2,stop,200.0,150.0,3.0,,,,,,,,,blue,square
0.0,3.0,3.0,0.0,6.0,6.0,609.4681499525905,2.0,0.0,part_2,go,200.0,100.0,1.0,,,,,,,,,orange,cross
0.0,7.0,3.0,1.0,5.0,5.0,654.6470890752971,2.0,0.0,part_2,go,200.0,100.0,1.0,,,,,,,,,blue,square
0.0,5.0,1.0,1.0,6.0,0.0,0.0,2.0,0.0,part_2,stop,200.0,100.0,4.0,,,,,,,,,white,I
0.0,2.0,2.0,0.0,5.0,5.0,520.9182649850845,2.0,0.0,part_2,go,200.0,150.0,1.0,,,,,,,,,gray,hexagon
0.0,3.0,3.0,0.0,5.0,5.0,463.7942668050527,2.0,0.0,part_2,go,200.0,150.0,1.0,,,,,,,,,orange,cross
0.0,1.0,1.0,0.0,5.0,5.0,340.5061652883887,2.0,0.0,part_2,go,200.0,150.0,1.0,,,,,,,,,yellow,circle
0.0,8.0,4.0,1.0,6.0,0.0,0.0,2.0,0.0,part_2,stop,200.0,150.0,4.0,,,,,,,,,green,diamond
0.0,4.0,4.0,0.0,6.0,6.0,479.4268701225519,2.0,0.0,part_2,go,200.0,200.0,1.0,,,,,,,,,magenta,flipped triangle
0.0,1.0,1.0,0.0,5.0,5.0,309.4664812088012,2.0,0.0,part_2,go,200.0,200.0,1.0,,,,,,,,,yellow,circle
0.0,8.0,4.0,1.0,5.0,6.0,645.0257641263306,3.0,0.0,part_2,stop,200.0,200.0,3.0,,,,,,,,,green,diamond
0.0,5.0,1.0,1.0,6.0,6.0,546.5167532674968,3.0,0.0,part_2,stop,150.0,200.0,3.0,,,,,,,,,white,I
0.0,3.0,3.0,0.0,6.0,6.0,481.1260988935828,3.0,0.0,part_2,go,150.0,150.0,1.0,,,,,,,,,orange,cross
0.0,8.0,4.0,1.0,5.0,5.0,358.2717827521264,3.0,0.0,part_2,stop,150.0,150.0,3.0,,,,,,,,,green,diamond
0.0,5.0,1.0,1.0,5.0,5.0,512.2472671791911,3.0,0.0,part_2,go,100.0,150.0,1.0,,,,,,,,,white,I
0.0,1.0,1.0,0.0,6.0,6.0,502.3029278963804,3.0,0.0,part_2,go,100.0,150.0,1.0,,,,,,,,,yellow,circle
0.0,5.0,1.0,1.0,6.0,6.0,435.0806218571961,3.0,0.0,part_2,go,100.0,150.0,1.0,,,,,,,,,white,I
0.0,5.0,1.0,1.0,5.0,5.0,404.3947532773018,3.0,0.0,part_2,go,100.0,150.0,1.0,,,,,,,,,white,I
0.0,1.0,1.0,0.0,5.0,5.0,437.1953890658915,3.0,0.0,part_2,go,100.0,150.0,1.0,,,,,,,,,yellow,circle
0.0,2.0,2.0,0.0,6.0,6.0,328.7003948353231,3.0,0.0,part_2,go,100.0,150.0,1.0,,,,,,,,,gray,hexagon
0.0,8.0,4.0,1.0,6.0,6.0,337.8766262903809,3.0,0.0,part_2,go,100.0,150.0,1.0,,,,,,,,,green,diamond
0.0,5.0,1.0,1.0,6.0,6.0,329.1065800003707,3.0,0.0,part_2,stop,100.0,150.0,3.0,,,,,,,,,white,I
0.0,3.0,3.0,0.0,6.0,6.0,387.7062019892037,3.0,0.0,part_2,go,100.0,100.0,1.0,,,,,,,,,orange,cross
0.0,7.0,3.0,1.0,5.0,0.0,0.0,3.0,0.0,part_2,stop,100.0,100.0,4.0,,,,,,,,,blue,square
0.0,6.0,2.0,1.0,6.0,0.0,0.0,3.0,0.0,part_2,stop,150.0,100.0,4.0,,,,,,,,,cyan,triangle
0.0,7.0,3.0,1.0,6.0,6.0,322.2003942355513,3.0,0.0,part_2,stop,150.0,150.0,3.0,,,,,,,,,blue,square
0.0,4.0,4.0,0.0,6.0,6.0,627.8777620755136,3.0,0.0,part_2,go,150.0,100.0,1.0,,,,,,,,,magenta,flipped triangle
0.0,6.0,2.0,1.0,5.0,0.0,0.0,3.0,0.0,part_2,stop,150.0,100.0,4.0,,,,,,,,,cyan,triangle
0.0,1.0,1.0,0.0,6.0,6.0,525.434157345444,3.0,0.0,part_2,go,200.0,100.0,1.0,,,,,,,,,yellow,circle
0.0,7.0,3.0,1.0,5.0,5.0,518.1840830482543,3.0,0.0,part_2,go,200.0,100.0,1.0,,,,,,,,,blue,square
0.0,7.0,3.0,1.0,6.0,0.0,0.0,3.0,0.0,part_2,stop,200.0,100.0,4.0,,,,,,,,,blue,square
0.0,7.0,3.0,1.0,6.0,0.0,0.0,3.0,0.0,part_2,stop,200.0,150.0,4.0,,,,,,,,,blue,square
0.0,1.0,1.0,0.0,6.0,6.0,438.1782608106732,3.0,0.0,part_2,go,200.0,200.0,1.0,,,,,,,,,yellow,circle
0.0,7.0,3.0,1.0,6.0,0.0,0.0,3.0,0.0,part_2,stop,200.0,200.0,4.0,,,,,,,,,blue,square
0.0,6.0,2.0,1.0,5.0,0.0,0.0,3.0,0.0,part_2,stop,200.0,250.0,4.0,,,,,,,,,cyan,triangle
0.0,5.0,1.0,1.0,6.0,6.0,429.7664416953921,3.0,0.0,part_2,stop,250.0,250.0,3.0,,,,,,,,,white,I
0.0,2.0,2.0,0.0,5.0,5.0,487.9914168268442,3.0,0.0,part_2,go,250.0,200.0,1.0,,,,,,,,,gray,hexagon
0.0,3.0,3.0,0.0,5.0,5.0,441.9713281095028,3.0,0.0,part_2,go,250.0,200.0,1.0,,,,,,,,,orange,cross
0.0,8.0,4.0,1.0,5.0,5.0,434.281047899276,3.0,0.0,part_2,stop,250.0,200.0,3.0,,,,,,,,,green,diamond
0.0,8.0,4.0,1.0,5.0,0.0,0.0,3.0,0.0,part_2,stop,200.0,200.0,4.0,,,,,,,,,green,diamond
0.0,4.0,4.0,0.0,6.0,6.0,435.7534637674689,3.0,0.0,part_2,go,250.0,200.0,1.0,,,,,,,,,magenta,flipped triangle
0.0,4.0,4.0,0.0,6.0,6.0,416.8655681423843,3.0,0.0,part_2,go,250.0,200.0,1.0,,,,,,,,,magenta,flipped triangle
0.0,8.0,4.0,1.0,6.0,6.0,427.1415639668703,3.0,0.0,part_2,go,250.0,200.0,1.0,,,,,,,,,green,diamond
0.0,1.0,1.0,0.0,5.0,5.0,325.0993681140244,3.0,0.0,part_2,go,250.0,200.0,1.0,,,,,,,,,yellow,circle
0.0,1.0,1.0,0.0,6.0,6.0,470.9991198033094,3.0,0.0,part_2,go,250.0,200.0,1.0,,,,,,,,,yellow,circle
0.0,6.0,2.0,1.0,5.0,5.0,305.474922992289,3.0,0.0,part_2,stop,250.0,200.0,3.0,,,,,,,,,cyan,triangle
0.0,8.0,4.0,1.0,6.0,6.0,552.0345601253211,4.0,0.0,part_2,stop,200.0,200.0,3.0,,,,,,,,,green,diamond
0.0,6.0,2.0,1.0,6.0,0.0,0.0,4.0,0.0,part_2,stop,200.0,150.0,4.0,,,,,,,,,cyan,triangle
0.0,6.0,2.0,1.0,6.0,6.0,530.8690769597888,4.0,0.0,part_2,go,200.0,200.0,1.0,,,,,,,,,cyan,triangle
0.0,8.0,4.0,1.0,5.0,5.0,405.9481150470674,4.0,0.0,part_2,stop,200.0,200.0,3.0,,,,,,,,,green,diamond
0.0,4.0,4.0,0.0,5.0,5.0,440.5410606414079,4.0,0.0,part_2,go,150.0,200.0,1.0,,,,,,,,,magenta,flipped triangle
0.0,4.0,4.0,0.0,5.0,5.0,407.1329850703478,4.0,0.0,part_2,go,150.0,200.0,1.0,,,,,,,,,magenta,flipped triangle
0.0,2.0,2.0,0.0,5.0,5.0,421.1587212048471,4.0,0.0,part_2,go,150.0,200.0,1.0,,,,,,,,,gray,hexagon
0.0,3.0,3.0,0.0,5.0,5.0,376.2343786656856,4.0,0.0,part_2,go,150.0,200.0,1.0,,,,,,,,,orange,cross
0.0,3.0,3.0,0.0,5.0,5.0,343.8804037868976,4.0,0.0,part_2,go,150.0,200.0,1.0,,,,,,,,,orange,cross
0.0,4.0,4.0,0.0,5.0,5.0,366.0591207444668,4.0,0.0,part_2,go,150.0,200.0,1.0,,,,,,,,,magenta,flipped triangle
0.0,6.0,2.0,1.0,6.0,6.0,356.6092839464545,4.0,0.0,part_2,stop,150.0,200.0,3.0,,,,,,,,,cyan,triangle
0.0,6.0,2.0,1.0,5.0,5.0,617.1513698063791,4.0,0.0,part_2,go,150.0,150.0,1.0,,,,,,,,,cyan,triangle
0.0,3.0,3.0,0.0,5.0,5.0,402.5682359933853,4.0,0.0,part_2,go,150.0,150.0,1.0,,,,,,,,,orange,cross
0.0,1.0,1.0,0.0,5.0,5.0,414.7964701987803,4.0,0.0,part_2,go,150.0,150.0,1.0,,,,,,,,,yellow,circle
0.0,4.0,4.0,0.0,6.0,6.0,508.214115165174,4.0,0.0,part_2,go,150.0,150.0,1.0,,,,,,,,,magenta,flipped triangle
0.0,4.0,4.0,0.0,6.0,6.0,327.4847068823874,4.0,0.0,part_2,go,150.0,150.0,1.0,,,,,,,,,magenta,flipped triangle
0.0,2.0,2.0,0.0,6.0,6.0,364.2970072105527,4.0,0.0,part_2,go,150.0,150.0,1.0,,,,,,,,,gray,hexagon
0.0,3.0,3.0,0.0,5.0,5.0,351.8646471202373,4.0,0.0,part_2,go,150.0,150.0,1.0,,,,,,,,,orange,cross
0.0,6.0,2.0,1.0,6.0,6.0,362.7078738063574,4.0,0.0,part_2,go,150.0,150.0,1.0,,,,,,,,,cyan,triangle
0.0,6.0,2.0,1.0,5.0,0.0,0.0,4.0,0.0,part_2,stop,150.0,150.0,4.0,,,,,,,,,cyan,triangle
0.0,6.0,2.0,1.0,6.0,0.0,0.0,4.0,0.0,part_2,stop,200.0,150.0,4.0,,,,,,,,,cyan,triangle
0.0,1.0,1.0,0.0,6.0,6.0,443.6175660230219,4.0,0.0,part_2,go,200.0,200.0,1.0,,,,,,,,,yellow,circle
0.0,6.0,2.0,1.0,5.0,0.0,0.0,4.0,0.0,part_2,stop,200.0,200.0,4.0,,,,,,,,,cyan,triangle
0.0,3.0,3.0,0.0,6.0,6.0,515.6369786709547,4.0,0.0,part_2,go,250.0,200.0,1.0,,,,,,,,,orange,cross
0.0,8.0,4.0,1.0,6.0,6.0,299.9639003537595,4.0,0.0,part_2,stop,250.0,200.0,3.0,,,,,,,,,green,diamond
0.0,2.0,2.0,0.0,5.0,5.0,357.4829483404755,4.0,0.0,part_2,go,250.0,150.0,1.0,,,,,,,,,gray,hexagon
0.0,8.0,4.0,1.0,5.0,5.0,440.1893122121691,4.0,0.0,part_2,go,250.0,150.0,1.0,,,,,,,,,green,diamond
0.0,7.0,3.0,1.0,5.0,5.0,426.5273259952664,4.0,0.0,part_2,stop,250.0,150.0,3.0,,,,,,,,,blue,square
0.0,4.0,4.0,0.0,6.0,6.0,415.3757039457559,4.0,0.0,part_2,go,200.0,150.0,1.0,,,,,,,,,magenta,flipped triangle
0.0,2.0,2.0,0.0,6.0,6.0,406.148191075772,4.0,0.0,part_2,go,200.0,150.0,1.0,,,,,,,,,gray,hexagon
0.0,7.0,3.0,1.0,6.0,6.0,374.8976169154048,4.0,0.0,part_2,stop,200.0,150.0,3.0,,,,,,,,,blue,square
0.0,1.0,1.0,0.0,6.0,6.0,384.1848941519856,4.0,0.0,part_2,go,200.0,100.0,1.0,,,,,,,,,yellow,circle
0.0,2.0,2.0,0.0,5.0,5.0,377.1510417573154,4.0,0.0,part_2,go,200.0,100.0,1.0,,,,,,,,,gray,hexagon
0.0,8.0,4.0,1.0,6.0,6.0,296.6532539576292,4.0,0.0,part_2,stop,200.0,100.0,3.0,,,,,,,,,green,diamond
0.0,8.0,4.0,1.0,6.0,6.0,378.476076759398,4.0,0.0,part_2,stop,200.0,50.0,3.0,,,,,,,,,green,diamond
0.0,6.0,2.0,1.0,6.0,6.0,522.4330960772932,4.0,0.0,part_2,go,200.0,0.0,1.0,,,,,,,,,cyan,triangle
0.0,7.0,3.0,1.0,6.0,6.0,564.1541392542422,5.0,0.0,part_2,go,200.0,0.0,1.0,,,,,,,,,blue,square
0.0,5.0,1.0,1.0,6.0,6.0,282.7443610876798,5.0,0.0,part_2,stop,200.0,0.0,3.0,,,,,,,,,white,I
0.0,1.0,1.0,0.0,5.0,5.0,372.161341831088,5.0,0.0,part_2,go,200.0,0.0,1.0,,,,,,,,,yellow,circle
0.0,1.0,1.0,0.0,6.0,6.0,341.3243512623012,5.0,0.0,part_2,go,200.0,0.0,1.0,,,,,,,,,yellow,circle
0.0,7.0,3.0,1.0,6.0,6.0,262.8657100722193,5.0,0.0,part_2,stop,200.0,0.0,3.0,,,,,,,,,blue,square
0.0,2.0,2.0,0.0,6.0,6.0,432.1158970706165,5.0,0.0,part_2,go,200.0,0.0,1.0,,,,,,,,,gray,hexagon
0.0,1.0,1.0,0.0,5.0,5.0,375.6127338856458,5.0,0.0,part_2,go,200.0,0.0,1.0,,,,,,,,,yellow,circle
0.0,4.0,4.0,0.0,6.0,6.0,364.210715983063,5.0,0.0,part_2,go,200.0,0.0,1.0,,,,,,,,,magenta,flipped triangle
0.0,6.0,2.0,1.0,5.0,5.0,465.5425711534917,5.0,0.0,part_2,stop,200.0,0.0,3.0,,,,,,,,,cyan,triangle
0.0,5.0,1.0,1.0,5.0,0.0,0.0,5.0,0.0,part_2,stop,150.0,0.0,4.0,,,,,,,,,white,I
0.0,2.0,2.0,0.0,5.0,5.0,580.5271570570767,5.0,0.0,part_2,go,200.0,0.0,1.0,,,,,,,,,gray,hexagon
0.0,8.0,4.0,1.0,5.0,5.0,403.2545308582484,5.0,0.0,part_2,stop,200.0,0.0,3.0,,,,,,,,,green,diamond
0.0,7.0,3.0,1.0,5.0,5.0,405.1748081110418,5.0,0.0,part_2,go,150.0,0.0,1.0,,,,,,,,,blue,square
0.0,4.0,4.0,0.0,6.0,6.0,356.9222870282829,5.0,0.0,part_2,go,150.0,0.0,1.0,,,,,,,,,magenta,flipped triangle
0.0,5.0,1.0,1.0,5.0,0.0,0.0,5.0,0.0,part_2,stop,150.0,0.0,4.0,,,,,,,,,white,I
0.0,6.0,2.0,1.0,5.0,5.0,630.4772794246674,5.0,0.0,part_2,go,200.0,0.0,1.0,,,,,,,,,cyan,triangle
0.0,6.0,2.0,1.0,6.0,6.0,359.966232907027,5.0,0.0,part_2,stop,200.0,0.0,3.0,,,,,,,,,cyan,triangle
0.0,6.0,2.0,1.0,5.0,0.0,0.0,5.0,0.0,part_2,stop,200.0,0.0,4.0,,,,,,,,,cyan,triangle
0.0,8.0,4.0,1.0,5.0,5.0,454.7063959762454,5.0,0.0,part_2,stop,250.0,0.0,3.0,,,,,,,,,green,diamond
0.0,4.0,4.0,0.0,6.0,6.0,486.472241114825,5.0,0.0,part_2,go,200.0,0.0,1.0,,,,,,,,,magenta,flipped triangle
0.0,8.0,4.0,1.0,6.0,0.0,0.0,5.0,0.0,part_2,stop,200.0,0.0,4.0,,,,,,,,,green,diamond
0.0,8.0,4.0,1.0,6.0,0.0,0.0,5.0,0.0,part_2,stop,200.0,50.0,4.0,,,,,,,,,green,diamond
0.0,5.0,1.0,1.0,5.0,5.0,390.3142400085926,5.0,0.0,part_2,stop,200.0,100.0,3.0,,,,,,,,,white,I
0.0,4.0,4.0,0.0,6.0,6.0,511.67900022119284,5.0,0.0,part_2,go,150.0,100.0,1.0,,,,,,,,,magenta,flipped triangle
0.0,7.0,3.0,1.0,5.0,0.0,0.0,5.0,0.0,part_2,stop,150.0,100.0,4.0,,,,,,,,,blue,square
0.0,7.0,3.0,1.0,6.0,0.0,0.0,5.0,0.0,part_2,stop,200.0,100.0,4.0,,,,,,,,,blue,square
0.0,3.0,3.0,0.0,6.0,6.0,638.6513570323586,5.0,0.0,part_2,go,200.0,150.0,1.0,,,,,,,,,orange,cross
0.0,4.0,4.0,0.0,5.0,5.0,382.6504219323396,5.0,0.0,part_2,go,200.0,150.0,1.0,,,,,,,,,magenta,flipped triangle
0.0,8.0,4.0,1.0,5.0,5.0,415.2592881582677,5.0,0.0,part_2,go,200.0,150.0,1.0,,,,,,,,,green,diamond
0.0,3.0,3.0,0.0,6.0,6.0,363.6116497218609,5.0,0.0,part_2,go,200.0,150.0,1.0,,,,,,,,,orange,cross
0.0,3.0,3.0,0.0,5.0,5.0,330.7583821006119,5.0,0.0,part_2,go,200.0,150.0,1.0,,,,,,,,,orange,cross
0.0,1.0,1.0,0.0,5.0,5.0,396.9400278292596,5.0,0.0,part_2,go,200.0,150.0,1.0,,,,,,,,,yellow,circle
0.0,3.0,3.0,0.0,5.0,5.0,432.4739421717822,5.0,0.0,part_2,go,200.0,150.0,1.0,,,,,,,,,orange,cross
0.0,4.0,4.0,0.0,6.0,6.0,375.8898018859327,5.0,0.0,part_2,go,200.0,150.0,1.0,,,,,,,,,magenta,flipped triangle
0.0,7.0,3.0,1.0,5.0,5.0,341.0755740478635,5.0,0.0,part_2,stop,200.0,150.0,3.0,,,,,,,,,blue,square
0.0,5.0,1.0,1.0,6.0,6.0,850.8907370269299,5.0,0.0,part_2,go,150.0,150.0,1.0,,,,,,,,,white,I
0.0,6.0,2.0,1.0,6.0,6.0,542.2122539021075,6.0,0.0,part_2,stop,150.0,150.0,3.0,,,,,,,,,cyan,triangle
0.0,6.0,2.0,1.0,6.0,6.0,499.4131326675415,6.0,0.0,part_2,go,150.0,100.0,1.0,,,,,,,,,cyan,triangle
0.0,8.0,4.0,1.0,5.0,5.0,375.9786230511963,6.0,0.0,part_2,stop,150.0,100.0,3.0,,,,,,,,,green,diamond
0.0,6.0,2.0,1.0,6.0,6.0,343.7112448737025,6.0,0.0,part_2,stop,100.0,100.0,3.0,,,,,,,,,cyan,triangle
0.0,1.0,1.0,0.0,5.0,5.0,345.0582292862236,6.0,0.0,part_2,go,100.0,50.0,1.0,,,,,,,,,yellow,circle
0.0,3.0,3.0,0.0,5.0,5.0,400.9311771951616,6.0,0.0,part_2,go,100.0,50.0,1.0,,,,,,,,,orange,cross
0.0,7.0,3.0,1.0,5.0,5.0,312.216836027801,6.0,0.0,part_2,go,100.0,50.0,1.0,,,,,,,,,blue,square
0.0,3.0,3.0,0.0,6.0,6.0,337.1904301457107,6.0,0.0,part_2,go,100.0,50.0,1.0,,,,,,,,,orange,cross
0.0,1.0,1.0,0.0,6.0,6.0,337.0869262143969,6.0,0.0,part_2,go,100.0,50.0,1.0,,,,,,,,,yellow,circle
0.0,5.0,1.0,1.0,6.0,6.0,380.0009367987513,6.0,0.0,part_2,stop,100.0,50.0,3.0,,,,,,,,,white,I
0.0,8.0,4.0,1.0,6.0,0.0,0.0,6.0,0.0,part_2,stop,100.0,0.0,4.0,,,,,,,,,green,diamond
0.0,1.0,1.0,0.0,5.0,5.0,449.3355853483081,6.0,0.0,part_2,go,100.0,50.0,1.0,,,,,,,,,yellow,circle
0.0,8.0,4.0,1.0,6.0,6.0,374.7677528299391,6.0,0.0,part_2,go,100.0,50.0,1.0,,,,,,,,,green,diamond
0.0,8.0,4.0,1.0,6.0,6.0,319.0235518850386,6.0,0.0,part_2,stop,100.0,50.0,3.0,,,,,,,,,green,diamond
0.0,5.0,1.0,1.0,6.0,6.0,500.17789332196116,6.0,0.0,part_2,go,100.0,0.0,1.0,,,,,,,,,white,I
0.0,4.0,4.0,0.0,5.0,5.0,339.8284651339054,6.0,0.0,part_2,go,100.0,0.0,1.0,,,,,,,,,magenta,flipped triangle
0.0,4.0,4.0,0.0,5.0,5.0,457.0188918150961,6.0,0.0,part_2,go,100.0,0.0,1.0,,,,,,,,,magenta,flipped triangle
0.0,6.0,2.0,1.0,5.0,0.0,0.0,6.0,0.0,part_2,stop,100.0,0.0,4.0,,,,,,,,,cyan,triangle
0.0,8.0,4.0,1.0,5.0,0.0,0.0,6.0,0.0,part_2,stop,150.0,0.0,4.0,,,,,,,,,green,diamond
0.0,3.0,3.0,0.0,6.0,6.0,491.2648708559572,6.0,0.0,part_2,go,200.0,0.0,1.0,,,,,,,,,orange,cross
0.0,4.0,4.0,0.0,6.0,6.0,390.6967970542609,6.0,0.0,part_2,go,200.0,0.0,1.0,,,,,,,,,magenta,flipped triangle
0.0,1.0,1.0,0.0,6.0,6.0,380.8587081730366,6.0,0.0,part_2,go,200.0,0.0,1.0,,,,,,,,,yellow,circle
0.0,4.0,4.0,0.0,5.0,5.0,381.113288924098,6.0,0.0,part_2,go,200.0,0.0,1.0,,,,,,,,,magenta,flipped triangle
0.0,8.0,4.0,1.0,5.0,5.0,440.3503439389169,6.0,0.0,part_2,go,200.0,0.0,1.0,,,,,,,,,green,diamond
0.0,8.0,4.0,1.0,5.0,0.0,0.0,6.0,0.0,part_2,stop,200.0,0.0,4.0,,,,,,,,,green,diamond
0.0,4.0,4.0,0.0,5.0,5.0,510.1554808206856,6.0,0.0,part_2,go,250.0,0.0,1.0,,,,,,,,,magenta,flipped triangle
0.0,2.0,2.0,0.0,6.0,6.0,495.8321610465646,6.0,0.0,part_2,go,250.0,0.0,1.0,,,,,,,,,gray,hexagon
0.0,3.0,3.0,0.0,6.0,6.0,452.7072440832853,6.0,0.0,part_2,go,250.0,0.0,1.0,,,,,,,,,orange,cross
0.0,6.0,2.0,1.0,5.0,0.0,0.0,6.0,0.0,part_2,stop,250.0,0.0,4.0,,,,,,,,,cyan,triangle
0.0,2.0,2.0,0.0,6.0,6.0,408.4236188791692,6.0,0.0,part_2,go,300.0,0.0,1.0,,,,,,,,,gray,hexagon
0.0,7.0,3.0,1.0,5.0,0.0,0.0,6.0,0.0,part_2,stop,300.0,0.0,4.0,,,,,,,,,blue,square
0.0,7.0,3.0,1.0,5.0,0.0,0.0,6.0,0.0,part_2,stop,350.0,0.0,4.0,,,,,,,,,blue,square
0.0,8.0,4.0,1.0,5.0,5.0,489.747725892812,6.0,0.0,part_2,stop,400.0,0.0,3.0,,,,,,,,,green,diamond
0.0,2.0,2.0,0.0,5.0,5.0,594.2888911813498,6.0,0.0,part_2,go,350.0,0.0,1.0,,,,,,,,,gray,hexagon
0.0,1.0,1.0,0.0,6.0,6.0,469.0369786694646,6.0,0.0,part_2,go,350.0,0.0,1.0,,,,,,,,,yellow,circle
0.0,3.0,3.0,0.0,6.0,6.0,371.6578530147671,6.0,0.0,part_2,go,350.0,0.0,1.0,,,,,,,,,orange,cross
0.0,3.0,3.0,0.0,6.0,6.0,352.997554000467,7.0,0.0,part_2,go,350.0,0.0,1.0,,,,,,,,,orange,cross
0.0,5.0,1.0,1.0,5.0,5.0,344.3104568868875,7.0,0.0,part_2,go,350.0,0.0,1.0,,,,,,,,,white,I
0.0,5.0,1.0,1.0,5.0,5.0,378.4902412444353,7.0,0.0,part_2,stop,350.0,0.0,3.0,,,,,,,,,white,I
0.0,2.0,2.0,0.0,5.0,5.0,478.5496387630701,7.0,0.0,part_2,go,300.0,0.0,1.0,,,,,,,,,gray,hexagon
0.0,6.0,2.0,1.0,5.0,5.0,391.1773790605366,7.0,0.0,part_2,go,300.0,0.0,1.0,,,,,,,,,cyan,triangle
0.0,7.0,3.0,1.0,6.0,0.0,0.0,7.0,0.0,part_2,stop,300.0,0.0,4.0,,,,,,,,,blue,square
0.0,3.0,3.0,0.0,5.0,5.0,505.6914649903774,7.0,0.0,part_2,go,300.0,50.0,1.0,,,,,,,,,orange,cross
0.0,4.0,4.0,0.0,5.0,5.0,346.3991824537515,7.0,0.0,part_2,go,300.0,50.0,1.0,,,,,,,,,magenta,flipped triangle
0.0,3.0,3.0,0.0,5.0,5.0,474.8819242231548,7.0,0.0,part_2,go,300.0,50.0,1.0,,,,,,,,,orange,cross
0.0,2.0,2.0,0.0,5.0,5.0,363.0372122861445,7.0,0.0,part_2,go,300.0,50.0,1.0,,,,,,,,,gray,hexagon
0.0,5.0,1.0,1.0,6.0,0.0,0.0,7.0,0.0,part_2,stop,300.0,50.0,4.0,,,,,,,,,white,I
0.0,3.0,3.0,0.0,5.0,5.0,328.8501380011439,7.0,0.0,part_2,go,300.0,100.0,1.0,,,,,,,,,orange,cross
0.0,4.0,4.0,0.0,6.0,6.0,396.8175002373755,7.0,0.0,part_2,go,300.0,100.0,1.0,,,,,,,,,magenta,flipped triangle
0.0,2.0,2.0,0.0,6.0,6.0,297.96136310324067,7.0,0.0,part_2,go,300.0,100.0,1.0,,,,,,,,,gray,hexagon
0.0,5.0,1.0,1.0,6.0,6.0,341.2199602462351,7.0,0.0,part_2,stop,300.0,100.0,3.0,,,,,,,,,white,I
0.0,8.0,4.0,1.0,5.0,5.0,379.0893098339438,7.0,0.0,part_2,go,300.0,50.0,1.0,,,,,,,,,green,diamond
0.0,3.0,3.0,0.0,5.0,5.0,390.2974920347333,7.0,0.0,part_2,go,300.0,50.0,1.0,,,,,,,,,orange,cross
0.0,5.0,1.0,1.0,6.0,6.0,343.8575668260455,7.0,0.0,part_2,go,300.0,50.0,1.0,,,,,,,,,white,I
0.0,1.0,1.0,0.0,6.0,6.0,424.421455245465,7.0,0.0,part_2,go,300.0,50.0,1.0,,,,,,,,,yellow,circle
0.0,8.0,4.0,1.0,6.0,6.0,311.3345908932388,7.0,0.0,part_2,stop,300.0,50.0,3.0,,,,,,,,,green,diamond
0.0,5.0,1.0,1.0,5.0,0.0,0.0,7.0,0.0,part_2,stop,300.0,0.0,4.0,,,,,,,,,white,I
0.0,4.0,4.0,0.0,5.0,5.0,663.8557920232415,7.0,0.0,part_2,go,350.0,0.0,1.0,,,,,,,,,magenta,flipped triangle
0.0,3.0,3.0,0.0,6.0,6.0,314.3596337176859,7.0,0.0,part_2,go,350.0,0.0,1.0,,,,,,,,,orange,cross
0.0,4.0,4.0,0.0,5.0,5.0,348.9447589963674,7.0,0.0,part_2,go,350.0,0.0,1.0,,,,,,,,,magenta,flipped triangle
0.0,1.0,1.0,0.0,5.0,5.0,589.4697373732924,7.0,0.0,part_2,go,350.0,0.0,1.0,,,,,,,,,yellow,circle
0.0,4.0,4.0,0.0,5.0,5.0,373.0342914350331,7.0,0.0,part_2,go,350.0,0.0,1.0,,,,,,,,,magenta,flipped triangle
0.0,4.0,4.0,0.0,5.0,5.0,478.8980768062174,7.0,0.0,part_2,go,350.0,0.0,1.0,,,,,,,,,magenta,flipped triangle
0.0,2.0,2.0,0.0,6.0,6.0,332.2726776823401,7.0,0.0,part_2,go,350.0,0.0,1.0,,,,,,,,,gray,hexagon
0.0,8.0,4.0,1.0,6.0,6.0,321.765799075365,7.0,0.0,part_2,stop,350.0,0.0,3.0,,,,,,,,,green,diamond
0.0,3.0,3.0,0.0,5.0,5.0,490.9474840387702,7.0,0.0,part_2,go,350.0,0.0,1.0,,,,,,,,,orange,cross
0.0,2.0,2.0,0.0,6.0,6.0,358.1188367679715,7.0,0.0,part_2,go,350.0,0.0,1.0,,,,,,,,,gray,hexagon
0.0,1.0,1.0,0.0,5.0,5.0,336.299539078027,7.0,0.0,part_2,go,350.0,0.0,1.0,,,,,,,,,yellow,circle
0.0,7.0,3.0,1.0,6.0,0.0,0.0,7.0,0.0,part_2,stop,350.0,0.0,4.0,,,,,,,,,blue,square
0.0,3.0,3.0,0.0,5.0,5.0,401.4674499630928,7.0,0.0,part_2,go,350.0,50.0,1.0,,,,,,,,,orange,cross
0.0,5.0,1.0,1.0,5.0,5.0,372.5906340405345,7.0,0.0,part_2,stop,350.0,50.0,3.0,,,,,,,,,white,I
0.0,6.0,2.0,1.0,6.0,0.0,0.0,7.0,0.0,part_2,stop,300.0,50.0,4.0,,,,,,,,,cyan,triangle
0.0,7.0,3.0,1.0,6.0,6.0,358.5020420141518,8.0,0.0,part_2,go,300.0,100.0,1.0,,,,,,,,,blue,square
0.0,5.0,1.0,1.0,5.0,5.0,367.1052660793066,8.0,0.0,part_2,stop,300.0,100.0,3.0,,,,,,,,,white,I
0.0,8.0,4.0,1.0,5.0,5.0,405.1841320469975,8.0,0.0,part_2,go,250.0,100.0,1.0,,,,,,,,,green,diamond
0.0,6.0,2.0,1.0,6.0,0.0,0.0,8.0,0.0,part_2,stop,250.0,100.0,4.0,,,,,,,,,cyan,triangle
0.0,6.0,2.0,1.0,5.0,5.0,483.1497641280293,8.0,0.0,part_2,stop,250.0,150.0,3.0,,,,,,,,,cyan,triangle
0.0,5.0,1.0,1.0,5.0,5.0,404.3309418484568,8.0,0.0,part_2,stop,200.0,150.0,3.0,,,,,,,,,white,I
0.0,2.0,2.0,0.0,5.0,5.0,562.2761500999331,8.0,0.0,part_2,go,150.0,150.0,1.0,,,,,,,,,gray,hexagon
0.0,4.0,4.0,0.0,6.0,6.0,463.9049000106752,8.0,0.0,part_2,go,150.0,150.0,1.0,,,,,,,,,magenta,flipped triangle
0.0,2.0,2.0,0.0,5.0,5.0,407.0248831994831,8.0,0.0,part_2,go,150.0,150.0,1.0,,,,,,,,,gray,hexagon
0.0,1.0,1.0,0.0,5.0,5.0,398.5383459366858,8.0,0.0,part_2,go,150.0,150.0,1.0,,,,,,,,,yellow,circle
0.0,8.0,4.0,1.0,5.0,5.0,344.5344539359212,8.0,0.0,part_2,go,150.0,150.0,1.0,,,,,,,,,green,diamond
0.0,6.0,2.0,1.0,5.0,5.0,625.4523727111518,8.0,0.0,part_2,go,150.0,150.0,1.0,,,,,,,,,cyan,triangle
0.0,3.0,3.0,0.0,6.0,6.0,434.4252008013427,8.0,0.0,part_2,go,150.0,150.0,1.0,,,,,,,,,orange,cross
0.0,6.0,2.0,1.0,6.0,0.0,0.0,8.0,0.0,part_2,stop,150.0,150.0,4.0,,,,,,,,,cyan,triangle
0.0,2.0,2.0,0.0,6.0,6.0,525.2538812346756,8.0,0.0,part_2,go,150.0,200.0,1.0,,,,,,,,,gray,hexagon
0.0,4.0,4.0,0.0,5.0,5.0,471.3885742239654,8.0,0.0,part_2,go,150.0,200.0,1.0,,,,,,,,,magenta,flipped triangle
0.0,5.0,1.0,1.0,6.0,0.0,0.0,8.0,0.0,part_2,stop,150.0,200.0,4.0,,,,,,,,,white,I
0.0,2.0,2.0,0.0,5.0,5.0,427.1544232033193,8.0,0.0,part_2,go,150.0,250.0,1.0,,,,,,,,,gray,hexagon
0.0,3.0,3.0,0.0,6.0,6.0,393.1589741259813,8.0,0.0,part_2,go,150.0,250.0,1.0,,,,,,,,,orange,cross
0.0,4.0,4.0,0.0,6.0,6.0,403.9963711984455,8.0,0.0,part_2,go,150.0,250.0,1.0,,,,,,,,,magenta,flipped triangle
0.0,2.0,2.0,0.0,5.0,5.0,326.4549490995705,8.0,0.0,part_2,go,150.0,250.0,1.0,,,,,,,,,gray,hexagon
0.0,1.0,1.0,0.0,6.0,6.0,363.5020586661994,8.0,0.0,part_2,go,150.0,250.0,1.0,,,,,,,,,yellow,circle
0.0,3.0,3.0,0.0,6.0,6.0,351.1122982017696,8.0,0.0,part_2,go,150.0,250.0,1.0,,,,,,,,,orange,cross
0.0,2.0,2.0,0.0,6.0,6.0,309.8905319347977,8.0,0.0,part_2,go,150.0,250.0,1.0,,,,,,,,,gray,hexagon
0.0,3.0,3.0,0.0,5.0,5.0,343.3754229918122,8.0,0.0,part_2,go,150.0,250.0,1.0,,,,,,,,,orange,cross
0.0,5.0,1.0,1.0,5.0,0.0,0.0,8.0,0.0,part_2,stop,150.0,250.0,4.0,,,,,,,,,white,I
0.0,5.0,1.0,1.0,6.0,0.0,0.0,8.0,0.0,part_2,stop,200.0,250.0,4.0,,,,,,,,,white,I
0.0,3.0,3.0,0.0,6.0,6.0,469.6741458028555,8.0,0.0,part_2,go,200.0,300.0,1.0,,,,,,,,,orange,cross
0.0,3.0,3.0,0.0,5.0,5.0,334.9884399212897,8.0,0.0,part_2,go,200.0,300.0,1.0,,,,,,,,,orange,cross
0.0,7.0,3.0,1.0,6.0,6.0,392.5884519703686,8.0,0.0,part_2,stop,200.0,300.0,3.0,,,,,,,,,blue,square
0.0,1.0,1.0,0.0,6.0,6.0,450.1393153332174,8.0,0.0,part_2,go,200.0,250.0,1.0,,,,,,,,,yellow,circle
0.0,1.0,1.0,0.0,5.0,5.0,328.3533230423927,8.0,0.0,part_2,go,200.0,250.0,1.0,,,,,,,,,yellow,circle
0.0,1.0,1.0,0.0,6.0,6.0,338.9879930764436,8.0,0.0,part_2,go,200.0,250.0,1.0,,,,,,,,,yellow,circle
0.0,5.0,1.0,1.0,6.0,6.0,385.6562562286854,8.0,0.0,part_2,stop,200.0,250.0,3.0,,,,,,,,,white,I
0.0,2.0,2.0,0.0,6.0,6.0,643.6257841996849,8.0,0.0,part_2,go,200.0,200.0,1.0,,,,,,,,,gray,hexagon
0.0,7.0,3.0,1.0,5.0,5.0,365.5621116049588,8.0,0.0,part_2,go,200.0,200.0,1.0,,,,,,,,,blue,square
0.0,3.0,3.0,0.0,7.0,3.0,1245.0594580732286,1.0,2.0,part_3,go,0.0,0.0,0.0,196.0,4.0,147.0,98.0,196.0,245.0,49.0,294.0,orange,cross
0.0,7.0,3.0,1.0,7.0,2.0,3970.687492750585,1.0,1.0,part_3,go,0.0,0.0,0.0,195.0,5.0,39.0,195.0,234.0,78.0,117.0,156.0,blue,square
0.0,4.0,4.0,0.0,7.0,5.0,3327.091892249882,1.0,1.0,part_3,go,0.0,0.0,0.0,294.0,6.0,196.0,98.0,245.0,49.0,294.0,147.0,magenta,flipped triangle
0.0,4.0,4.0,0.0,7.0,1.0,3286.8106490932405,1.0,1.0,part_3,go,0.0,0.0,0.0,294.0,6.0,294.0,147.0,98.0,196.0,49.0,245.0,magenta,flipped triangle
0.0,4.0,4.0,0.0,7.0,2.0,2815.9441389143467,1.0,1.0,part_3,go,0.0,0.0,0.0,270.0,5.0,324.0,270.0,162.0,54.0,108.0,216.0,magenta,flipped triangle
0.0,5.0,1.0,1.0,7.0,6.0,2363.0110998637974,1.0,1.0,part_3,go,0.0,0.0,0.0,98.0,2.0,196.0,147.0,49.0,245.0,294.0,98.0,white,I
0.0,8.0,4.0,1.0,7.0,3.0,2715.6481710262597,1.0,1.0,part_3,go,0.0,0.0,0.0,324.0,6.0,270.0,54.0,324.0,162.0,216.0,108.0,green,diamond
0.0,1.0,1.0,0.0,7.0,1.0,2724.9569189734757,1.0,1.0,part_3,go,0.0,0.0,0.0,88.0,2.0,88.0,176.0,220.0,132.0,264.0,44.0,yellow,circle
0.0,3.0,3.0,0.0,7.0,4.0,3143.885238096118,1.0,1.0,part_3,go,0.0,0.0,0.0,204.0,6.0,68.0,34.0,136.0,204.0,102.0,170.0,orange,cross
0.0,6.0,2.0,1.0,7.0,2.0,1616.366058122367,1.0,1.0,part_3,go,0.0,0.0,0.0,147.0,3.0,98.0,147.0,49.0,294.0,196.0,245.0,cyan,triangle
0.0,7.0,3.0,1.0,7.0,3.0,3261.2630669027567,1.0,1.0,part_3,go,0.0,0.0,0.0,234.0,6.0,39.0,117.0,234.0,195.0,78.0,156.0,blue,square
0.0,7.0,3.0,1.0,7.0,6.0,2688.348899129778,1.0,1.0,part_3,go,0.0,0.0,0.0,196.0,4.0,147.0,98.0,294.0,49.0,245.0,196.0,blue,square
0.0,3.0,3.0,0.0,7.0,2.0,3038.4117090143263,1.0,1.0,part_3,go,0.0,0.0,0.0,220.0,5.0,44.0,220.0,176.0,88.0,264.0,132.0,orange,cross
0.0,1.0,1.0,0.0,7.0,5.0,3441.5331268683076,1.0,1.0,part_3,go,0.0,0.0,0.0,54.0,1.0,162.0,216.0,108.0,270.0,54.0,324.0,yellow,circle
0.0,4.0,4.0,0.0,7.0,2.0,3239.4305458292365,1.0,1.0,part_3,go,0.0,0.0,0.0,204.0,6.0,170.0,204.0,68.0,136.0,34.0,102.0,magenta,flipped triangle
0.0,2.0,2.0,0.0,7.0,4.0,2544.99792214483,1.0,1.0,part_3,go,0.0,0.0,0.0,88.0,2.0,44.0,220.0,176.0,88.0,132.0,264.0,gray,hexagon
0.0,2.0,2.0,0.0,7.0,2.0,2577.7087626047432,1.0,1.0,part_3,go,0.0,0.0,0.0,88.0,2.0,132.0,88.0,264.0,220.0,176.0,44.0,gray,hexagon
0.0,6.0,2.0,1.0,7.0,6.0,3503.3226502127945,1.0,1.0,part_3,go,0.0,0.0,0.0,176.0,4.0,264.0,220.0,88.0,44.0,132.0,176.0,cyan,triangle
0.0,8.0,4.0,1.0,7.0,2.0,2838.8933748938143,1.0,1.0,part_3,go,0.0,0.0,0.0,324.0,6.0,108.0,324.0,162.0,54.0,216.0,270.0,green,diamond
0.0,7.0,3.0,1.0,7.0,6.0,2392.738926690072,1.0,1.0,part_3,go,0.0,0.0,0.0,204.0,6.0,136.0,170.0,34.0,68.0,102.0,204.0,blue,square
0.0,2.0,2.0,0.0,7.0,4.0,3310.635362751782,2.0,1.0,part_3,go,0.0,0.0,0.0,108.0,2.0,270.0,324.0,162.0,108.0,54.0,216.0,gray,hexagon
0.0,6.0,2.0,1.0,7.0,3.0,2948.360180016607,2.0,1.0,part_3,go,0.0,0.0,0.0,245.0,5.0,294.0,98.0,245.0,147.0,196.0,49.0,cyan,triangle
0.0,7.0,3.0,1.0,7.0,5.0,2220.617226790637,2.0,1.0,part_3,go,0.0,0.0,0.0,204.0,6.0,170.0,136.0,68.0,102.0,204.0,34.0,blue,square
0.0,3.0,3.0,0.0,7.0,4.0,2243.468107189983,2.0,1.0,part_3,go,0.0,0.0,0.0,234.0,6.0,117.0,78.0,156.0,234.0,39.0,195.0,orange,cross
0.0,8.0,4.0,1.0,7.0,6.0,2615.794246084988,2.0,1.0,part_3,go,0.0,0.0,0.0,204.0,6.0,170.0,68.0,136.0,102.0,34.0,204.0,green,diamond
0.0,1.0,1.0,0.0,7.0,6.0,2660.0790740922093,2.0,1.0,part_3,go,0.0,0.0,0.0,78.0,2.0,39.0,156.0,195.0,117.0,234.0,78.0,yellow,circle
0.0,6.0,2.0,1.0,7.0,5.0,2460.091654676944,2.0,1.0,part_3,go,0.0,0.0,0.0,270.0,5.0,216.0,108.0,162.0,324.0,270.0,54.0,cyan,triangle
0.0,2.0,2.0,0.0,7.0,3.0,3014.4668640568852,2.0,1.0,part_3,go,0.0,0.0,0.0,170.0,5.0,34.0,102.0,170.0,136.0,204.0,68.0,gray,hexagon
0.0,2.0,2.0,0.0,7.0,2.0,1932.4815501458943,2.0,1.0,part_3,go,0.0,0.0,0.0,98.0,2.0,49.0,98.0,147.0,245.0,196.0,294.0,gray,hexagon
0.0,3.0,3.0,0.0,7.0,4.0,2068.712366744876,2.0,1.0,part_3,go,0.0,0.0,0.0,216.0,4.0,270.0,324.0,54.0,216.0,108.0,162.0,orange,cross
0.0,6.0,2.0,1.0,7.0,5.0,2330.7698788121343,2.0,1.0,part_3,go,0.0,0.0,0.0,216.0,4.0,324.0,108.0,162.0,270.0,216.0,54.0,cyan,triangle
0.0,1.0,1.0,0.0,7.0,2.0,2061.071611009538,2.0,1.0,part_3,go,0.0,0.0,0.0,98.0,2.0,294.0,98.0,196.0,49.0,245.0,147.0,yellow,circle
0.0,3.0,3.0,0.0,7.0,5.0,3230.084648821503,2.0,1.0,part_3,go,0.0,0.0,0.0,234.0,6.0,117.0,39.0,156.0,195.0,234.0,78.0,orange,cross
0.0,7.0,3.0,1.0,7.0,2.0,3377.6036691851914,2.0,1.0,part_3,go,0.0,0.0,0.0,196.0,4.0,245.0,196.0,147.0,49.0,98.0,294.0,blue,square
0.0,4.0,4.0,0.0,7.0,6.0,2411.120074801147,2.0,1.0,part_3,go,0.0,0.0,0.0,324.0,6.0,162.0,270.0,216.0,108.0,54.0,324.0,magenta,flipped triangle
0.0,3.0,3.0,0.0,7.0,2.0,2818.3503337204456,2.0,1.0,part_3,go,0.0,0.0,0.0,216.0,4.0,108.0,216.0,270.0,324.0,54.0,162.0,orange,cross
0.0,1.0,1.0,0.0,7.0,1.0,3100.3919513896108,2.0,1.0,part_3,go,0.0,0.0,0.0,98.0,2.0,98.0,196.0,245.0,147.0,49.0,294.0,yellow,circle
0.0,5.0,1.0,1.0,7.0,5.0,2133.134562987834,2.0,1.0,part_3,go,0.0,0.0,0.0,98.0,2.0,196.0,294.0,49.0,245.0,98.0,147.0,white,I
0.0,6.0,2.0,1.0,7.0,6.0,2539.561841171235,2.0,1.0,part_3,go,0.0,0.0,0.0,195.0,5.0,234.0,78.0,117.0,39.0,156.0,195.0,cyan,triangle
0.0,2.0,2.0,0.0,7.0,5.0,3724.9683900736272,2.0,1.0,part_3,go,0.0,0.0,0.0,68.0,2.0,34.0,170.0,136.0,204.0,68.0,102.0,gray,hexagon
0.0,5.0,1.0,1.0,7.0,5.0,2483.75166580081,3.0,1.0,part_3,go,0.0,0.0,0.0,54.0,1.0,270.0,162.0,324.0,216.0,54.0,108.0,white,I
0.0,5.0,1.0,1.0,7.0,6.0,1734.0962481684985,3.0,1.0,part_3,go,0.0,0.0,0.0,78.0,2.0,156.0,39.0,117.0,234.0,195.0,78.0,white,I
0.0,7.0,3.0,1.0,7.0,6.0,2734.0896180830896,3.0,1.0,part_3,go,0.0,0.0,0.0,220.0,5.0,44.0,88.0,264.0,176.0,132.0,220.0,blue,square
0.0,5.0,1.0,1.0,7.0,6.0,2261.991614010185,3.0,1.0,part_3,go,0.0,0.0,0.0,88.0,2.0,220.0,176.0,44.0,264.0,132.0,88.0,white,I
0.0,5.0,1.0,1.0,7.0,4.0,3459.336939733475,3.0,1.0,part_3,go,0.0,0.0,0.0,108.0,2.0,54.0,324.0,216.0,108.0,270.0,162.0,white,I
0.0,6.0,2.0,1.0,7.0,6.0,2245.1504967175424,3.0,1.0,part_3,go,0.0,0.0,0.0,220.0,5.0,88.0,176.0,132.0,44.0,264.0,220.0,cyan,triangle
0.0,1.0,1.0,0.0,7.0,3.0,1479.1845488362014,3.0,1.0,part_3,go,0.0,0.0,0.0,78.0,2.0,39.0,156.0,78.0,195.0,234.0,117.0,yellow,circle
0.0,1.0,1.0,0.0,7.0,6.0,2157.116945832968,3.0,1.0,part_3,go,0.0,0.0,0.0,88.0,2.0,132.0,176.0,44.0,264.0,220.0,88.0,yellow,circle
0.0,5.0,1.0,1.0,7.0,4.0,2473.763970658183,3.0,1.0,part_3,go,0.0,0.0,0.0,68.0,2.0,136.0,102.0,34.0,68.0,204.0,170.0,white,I
0.0,8.0,4.0,1.0,7.0,3.0,2382.6097059063613,3.0,1.0,part_3,go,0.0,0.0,0.0,234.0,6.0,195.0,117.0,234.0,39.0,156.0,78.0,green,diamond
0.0,1.0,1.0,0.0,7.0,3.0,2607.3621441610157,3.0,1.0,part_3,go,0.0,0.0,0.0,68.0,2.0,136.0,170.0,68.0,204.0,102.0,34.0,yellow,circle
0.0,8.0,4.0,1.0,7.0,3.0,2398.058214224875,3.0,1.0,part_3,go,0.0,0.0,0.0,204.0,6.0,102.0,136.0,204.0,170.0,34.0,68.0,green,diamond
0.0,6.0,2.0,1.0,7.0,2.0,3905.374206136912,3.0,1.0,part_3,go,0.0,0.0,0.0,195.0,5.0,39.0,195.0,234.0,78.0,117.0,156.0,cyan,triangle
0.0,8.0,4.0,1.0,7.0,2.0,3050.115087069571,3.0,1.0,part_3,go,0.0,0.0,0.0,294.0,6.0,98.0,294.0,196.0,49.0,245.0,147.0,green,diamond
0.0,4.0,4.0,0.0,7.0,6.0,2018.291830085218,3.0,1.0,part_3,go,0.0,0.0,0.0,234.0,6.0,156.0,195.0,39.0,117.0,78.0,234.0,magenta,flipped triangle
0.0,5.0,1.0,1.0,7.0,2.0,2129.095610231161,3.0,1.0,part_3,go,0.0,0.0,0.0,78.0,2.0,195.0,78.0,234.0,156.0,117.0,39.0,white,I
0.0,1.0,1.0,0.0,7.0,4.0,2804.827436804771,3.0,1.0,part_3,go,0.0,0.0,0.0,54.0,1.0,270.0,108.0,162.0,54.0,324.0,216.0,yellow,circle
0.0,8.0,4.0,1.0,7.0,5.0,4912.418720778078,3.0,1.0,part_3,go,0.0,0.0,0.0,264.0,6.0,132.0,220.0,44.0,176.0,264.0,88.0,green,diamond
0.0,6.0,2.0,1.0,7.0,3.0,3651.468912139535,3.0,1.0,part_3,go,0.0,0.0,0.0,170.0,5.0,102.0,34.0,170.0,68.0,136.0,204.0,cyan,triangle
0.0,3.0,3.0,0.0,7.0,5.0,1717.9693230427802,3.0,1.0,part_3,go,0.0,0.0,0.0,220.0,5.0,176.0,44.0,264.0,88.0,220.0,132.0,orange,cross
0.0,2.0,2.0,0.0,7.0,3.0,2706.202991772443,4.0,1.0,part_3,go,0.0,0.0,0.0,147.0,3.0,245.0,196.0,147.0,98.0,49.0,294.0,gray,hexagon
0.0,2.0,2.0,0.0,7.0,4.0,1626.782780978829,4.0,1.0,part_3,go,0.0,0.0,0.0,108.0,2.0,324.0,270.0,54.0,108.0,216.0,162.0,gray,hexagon
0.0,5.0,1.0,1.0,7.0,2.0,2943.7911440618336,4.0,1.0,part_3,go,0.0,0.0,0.0,88.0,2.0,44.0,88.0,132.0,220.0,264.0,176.0,white,I
0.0,7.0,3.0,1.0,7.0,1.0,2518.4610630385578,4.0,1.0,part_3,go,0.0,0.0,0.0,216.0,4.0,216.0,162.0,54.0,324.0,108.0,270.0,blue,square
0.0,4.0,4.0,0.0,7.0,5.0,2544.3368516862392,4.0,1.0,part_3,go,0.0,0.0,0.0,264.0,6.0,88.0,44.0,176.0,132.0,264.0,220.0,magenta,flipped triangle
0.0,4.0,4.0,0.0,7.0,2.0,1758.4674679674208,4.0,1.0,part_3,go,0.0,0.0,0.0,234.0,6.0,39.0,234.0,195.0,117.0,78.0,156.0,magenta,flipped triangle
0.0,2.0,2.0,0.0,7.0,4.0,1758.2610337994993,4.0,1.0,part_3,go,0.0,0.0,0.0,117.0,3.0,234.0,39.0,195.0,117.0,78.0,156.0,gray,hexagon
0.0,2.0,2.0,0.0,7.0,3.0,1872.769023757428,4.0,1.0,part_3,go,0.0,0.0,0.0,117.0,3.0,195.0,156.0,117.0,39.0,78.0,234.0,gray,hexagon
0.0,1.0,1.0,0.0,7.0,4.0,1604.708505794406,4.0,1.0,part_3,go,0.0,0.0,0.0,68.0,2.0,34.0,136.0,170.0,68.0,204.0,102.0,yellow,circle
0.0,3.0,3.0,0.0,7.0,5.0,2054.315818939358,4.0,1.0,part_3,go,0.0,0.0,0.0,245.0,5.0,147.0,294.0,49.0,98.0,245.0,196.0,orange,cross
0.0,7.0,3.0,1.0,7.0,5.0,3023.400611244142,4.0,1.0,part_3,go,0.0,0.0,0.0,220.0,5.0,176.0,88.0,132.0,264.0,220.0,44.0,blue,square
0.0,4.0,4.0,0.0,7.0,2.0,2595.274888910353,4.0,1.0,part_3,go,0.0,0.0,0.0,204.0,6.0,68.0,204.0,102.0,136.0,170.0,34.0,magenta,flipped triangle
0.0,5.0,1.0,1.0,7.0,5.0,2372.9344541206956,4.0,1.0,part_3,go,0.0,0.0,0.0,68.0,2.0,102.0,204.0,170.0,34.0,68.0,136.0,white,I
0.0,3.0,3.0,0.0,7.0,1.0,3023.934722878039,4.0,1.0,part_3,go,0.0,0.0,0.0,204.0,6.0,204.0,102.0,136.0,68.0,170.0,34.0,orange,cross
0.0,6.0,2.0,1.0,7.0,6.0,3003.1061940826476,4.0,1.0,part_3,go,0.0,0.0,0.0,204.0,6.0,68.0,136.0,102.0,170.0,34.0,204.0,cyan,triangle
0.0,8.0,4.0,1.0,7.0,5.0,2646.2284941226244,4.0,1.0,part_3,go,0.0,0.0,0.0,234.0,6.0,156.0,117.0,39.0,195.0,234.0,78.0,green,diamond
0.0,7.0,3.0,1.0,7.0,5.0,1905.712055042386,4.0,1.0,part_3,go,0.0,0.0,0.0,216.0,4.0,108.0,324.0,270.0,162.0,216.0,54.0,blue,square
0.0,4.0,4.0,0.0,7.0,3.0,2051.883158273995,4.0,1.0,part_3,go,0.0,0.0,0.0,264.0,6.0,220.0,88.0,264.0,132.0,176.0,44.0,magenta,flipped triangle
0.0,8.0,4.0,1.0,7.0,4.0,2051.0117281228304,4.0,1.0,part_3,go,0.0,0.0,0.0,294.0,6.0,98.0,147.0,49.0,294.0,196.0,245.0,green,diamond
0.0,8.0,4.0,1.0,7.0,1.0,2456.324481870979,4.0,1.0,part_3,go,0.0,0.0,0.0,264.0,6.0,264.0,176.0,132.0,44.0,88.0,220.0,green,diamond
