raw_reward_magnitude,stim_reward,stepwise_reward_magnitude,paired_with_stopping,stim_location,response,reaction_time,block,num_trial_presentations,which_phase,stop_signal_trial_type,left_SSD,right_SSD,accuracy,chosen_bidding_amount,chosen_bidding_level,possible_bid_1,possible_bid_2,possible_bid_3,possible_bid_4,possible_bid_5,possible_bid_6,color_text,shape_text
0.0,5.0,0.0,1.0,3.0,3.0,362.1271569281816,1.0,1.0,phase_1,,,,,,,,,,,,,gray,diamond
416.0,4.0,4.0,0.0,2.0,2.0,280.5598126724362,1.0,1.0,phase_1,,,,,,,,,,,,,green,cross
102.0,2.0,2.0,0.0,3.0,3.0,329.6662489883601,1.0,1.0,phase_1,,,,,,,,,,,,,yellow,circle
406.0,4.0,4.0,0.0,1.0,1.0,292.6062550395727,1.0,1.0,phase_1,,,,,,,,,,,,,green,cross
423.0,8.0,4.0,1.0,4.0,4.0,327.141597867012,1.0,1.0,phase_1,,,,,,,,,,,,,cyan,flipped triangle
399.0,8.0,4.0,1.0,3.0,3.0,294.807787053287,1.0,1.0,phase_1,,,,,,,,,,,,,cyan,flipped triangle
388.0,4.0,4.0,0.0,4.0,4.0,305.4277217015624,1.0,1.0,phase_1,,,,,,,,,,,,,green,cross
221.0,3.0,3.0,0.0,1.0,1.0,306.1870709061622,1.0,1.0,phase_1,,,,,,,,,,,,,white,triangle
0.0,7.0,0.0,1.0,3.0,3.0,319.2080799490213,1.0,1.0,phase_1,,,,,,,,,,,,,orange,hexagon
49.0,1.0,1.0,0.0,3.0,3.0,307.4666247703135,1.0,1.0,phase_1,,,,,,,,,,,,,magenta,square
102.0,2.0,2.0,0.0,3.0,3.0,299.2037502117455,1.0,1.0,phase_1,,,,,,,,,,,,,yellow,circle
398.0,4.0,4.0,0.0,2.0,2.0,311.6196589544415,1.0,1.0,phase_1,,,,,,,,,,,,,green,cross
0.0,8.0,0.0,1.0,4.0,4.0,311.2956122495234,1.0,1.0,phase_1,,,,,,,,,,,,,cyan,flipped triangle
0.0,8.0,0.0,1.0,2.0,2.0,275.3261118195951,1.0,1.0,phase_1,,,,,,,,,,,,,cyan,flipped triangle
84.0,6.0,2.0,1.0,3.0,3.0,332.6950361952185,1.0,1.0,phase_1,,,,,,,,,,,,,blue,I
83.0,2.0,2.0,0.0,1.0,1.0,278.900349047035,1.0,1.0,phase_1,,,,,,,,,,,,,yellow,circle
62.0,5.0,1.0,1.0,2.0,2.0,337.0666047558188,1.0,1.0,phase_1,,,,,,,,,,,,,gray,diamond
415.0,8.0,4.0,1.0,2.0,2.0,322.6090930402279,1.0,1.0,phase_1,,,,,,,,,,,,,cyan,flipped triangle
177.0,7.0,3.0,1.0,3.0,3.0,312.2371463105082,1.0,1.0,phase_1,,,,,,,,,,,,,orange,hexagon
389.0,8.0,4.0,1.0,3.0,3.0,303.8836210034787,1.0,1.0,phase_1,,,,,,,,,,,,,cyan,flipped triangle
90.0,6.0,2.0,1.0,4.0,4.0,313.0497829988599,1.0,1.0,phase_1,,,,,,,,,,,,,blue,I
49.0,1.0,1.0,0.0,1.0,1.0,281.4374207518995,1.0,1.0,phase_1,,,,,,,,,,,,,magenta,square
192.0,3.0,3.0,0.0,4.0,4.0,271.8102680519223,1.0,1.0,phase_1,,,,,,,,,,,,,white,triangle
224.0,3.0,3.0,0.0,4.0,4.0,283.94720191136,1.0,1.0,phase_1,,,,,,,,,,,,,white,triangle
0.0,2.0,0.0,0.0,2.0,2.0,259.3665523454547,1.0,1.0,phase_1,,,,,,,,,,,,,yellow,circle
120.0,6.0,2.0,1.0,4.0,4.0,295.4298923723399,1.0,1.0,phase_1,,,,,,,,,,,,,blue,I
98.0,2.0,2.0,0.0,1.0,1.0,274.1567781195044,1.0,1.0,phase_1,,,,,,,,,,,,,yellow,circle
52.0,1.0,1.0,0.0,1.0,1.0,263.1987351924181,1.0,1.0,phase_1,,,,,,,,,,,,,magenta,square
62.0,5.0,1.0,1.0,1.0,1.0,274.62426899001,1.0,1.0,phase_1,,,,,,,,,,,,,gray,diamond
385.0,8.0,4.0,1.0,1.0,1.0,287.0513126254082,1.0,1.0,phase_1,,,,,,,,,,,,,cyan,flipped triangle
0.0,1.0,0.0,0.0,3.0,3.0,299.7991181910038,1.0,1.0,phase_1,,,,,,,,,,,,,magenta,square
212.0,3.0,3.0,0.0,2.0,2.0,287.3105136677623,1.0,1.0,phase_1,,,,,,,,,,,,,white,triangle
0.0,8.0,0.0,1.0,4.0,4.0,277.9449727386236,1.0,1.0,phase_1,,,,,,,,,,,,,cyan,flipped triangle
212.0,7.0,3.0,1.0,3.0,3.0,290.1919572614133,1.0,1.0,phase_1,,,,,,,,,,,,,orange,hexagon
399.0,4.0,4.0,0.0,1.0,1.0,298.4600197523832,1.0,1.0,phase_1,,,,,,,,,,,,,green,cross
193.0,7.0,3.0,1.0,1.0,1.0,291.4994219318032,1.0,1.0,phase_1,,,,,,,,,,,,,orange,hexagon
67.0,5.0,1.0,1.0,1.0,1.0,303.2003813423216,1.0,1.0,phase_1,,,,,,,,,,,,,gray,diamond
0.0,8.0,0.0,1.0,1.0,1.0,288.7518852949142,1.0,1.0,phase_1,,,,,,,,,,,,,cyan,flipped triangle
0.0,4.0,0.0,0.0,4.0,4.0,326.7009309493005,1.0,1.0,phase_1,,,,,,,,,,,,,green,cross
224.0,3.0,3.0,0.0,2.0,2.0,290.9915060736239,1.0,1.0,phase_1,,,,,,,,,,,,,white,triangle
32.0,1.0,1.0,0.0,2.0,2.0,393.9355029724538,1.0,1.0,phase_1,,,,,,,,,,,,,magenta,square
91.0,2.0,2.0,0.0,2.0,2.0,426.166377030313,1.0,1.0,phase_1,,,,,,,,,,,,,yellow,circle
401.0,4.0,4.0,0.0,4.0,4.0,284.1566782444715,1.0,1.0,phase_1,,,,,,,,,,,,,green,cross
211.0,7.0,3.0,1.0,4.0,4.0,294.5885052904486,1.0,1.0,phase_1,,,,,,,,,,,,,orange,hexagon
0.0,8.0,0.0,1.0,2.0,2.0,282.5166820548475,1.0,1.0,phase_1,,,,,,,,,,,,,cyan,flipped triangle
0.0,7.0,0.0,1.0,4.0,4.0,294.518609996885,1.0,1.0,phase_1,,,,,,,,,,,,,orange,hexagon
0.0,7.0,0.0,1.0,2.0,2.0,307.0397241972387,1.0,1.0,phase_1,,,,,,,,,,,,,orange,hexagon
218.0,7.0,3.0,1.0,1.0,1.0,275.531648658216,1.0,1.0,phase_1,,,,,,,,,,,,,orange,hexagon
206.0,7.0,3.0,1.0,3.0,3.0,287.9440868273377,1.0,1.0,phase_1,,,,,,,,,,,,,orange,hexagon
48.0,1.0,1.0,0.0,2.0,2.0,274.0206192247569,1.0,1.0,phase_1,,,,,,,,,,,,,magenta,square
66.0,5.0,1.0,1.0,3.0,3.0,308.1458578817546,1.0,1.0,phase_1,,,,,,,,,,,,,gray,diamond
45.0,5.0,1.0,1.0,1.0,1.0,265.4152601025998,1.0,1.0,phase_1,,,,,,,,,,,,,gray,diamond
0.0,3.0,0.0,0.0,3.0,3.0,298.664091154933,1.0,1.0,phase_1,,,,,,,,,,,,,white,triangle
75.0,2.0,2.0,0.0,4.0,4.0,332.4950938113034,1.0,1.0,phase_1,,,,,,,,,,,,,yellow,circle
37.0,5.0,1.0,1.0,3.0,3.0,323.6728007905185,1.0,1.0,phase_1,,,,,,,,,,,,,gray,diamond
65.0,1.0,1.0,0.0,4.0,4.0,314.1425396315753,1.0,1.0,phase_1,,,,,,,,,,,,,magenta,square
412.0,4.0,4.0,0.0,1.0,1.0,322.26849300786847,1.0,1.0,phase_1,,,,,,,,,,,,,green,cross
0.0,3.0,0.0,0.0,4.0,4.0,291.062471922487,1.0,1.0,phase_1,,,,,,,,,,,,,white,triangle
40.0,1.0,1.0,0.0,4.0,4.0,301.7849372699857,1.0,1.0,phase_1,,,,,,,,,,,,,magenta,square
408.0,4.0,4.0,0.0,4.0,4.0,290.1237397454679,1.0,1.0,phase_1,,,,,,,,,,,,,green,cross
124.0,6.0,2.0,1.0,3.0,3.0,316.0250228829682,1.0,1.0,phase_1,,,,,,,,,,,,,blue,I
59.0,5.0,1.0,1.0,3.0,3.0,327.5378700345754,1.0,1.0,phase_1,,,,,,,,,,,,,gray,diamond
26.0,5.0,1.0,1.0,4.0,4.0,315.4006646946072,1.0,1.0,phase_1,,,,,,,,,,,,,gray,diamond
196.0,3.0,3.0,0.0,4.0,4.0,294.2136288620531,1.0,1.0,phase_1,,,,,,,,,,,,,white,triangle
0.0,6.0,0.0,1.0,2.0,2.0,282.1708358824253,1.0,1.0,phase_1,,,,,,,,,,,,,blue,I
422.0,4.0,4.0,0.0,3.0,3.0,293.5610599815845,1.0,1.0,phase_1,,,,,,,,,,,,,green,cross
388.0,8.0,4.0,1.0,3.0,3.0,308.3949103020131,1.0,1.0,phase_1,,,,,,,,,,,,,cyan,flipped triangle
0.0,3.0,0.0,0.0,2.0,2.0,295.4788291826844,1.0,1.0,phase_1,,,,,,,,,,,,,white,triangle
0.0,6.0,0.0,1.0,1.0,1.0,276.6365236602723,1.0,1.0,phase_1,,,,,,,,,,,,,blue,I
0.0,2.0,0.0,0.0,4.0,4.0,307.1513343602419,1.0,1.0,phase_1,,,,,,,,,,,,,yellow,circle
420.0,8.0,4.0,1.0,1.0,1.0,318.9519713632762,1.0,1.0,phase_1,,,,,,,,,,,,,cyan,flipped triangle
203.0,7.0,3.0,1.0,2.0,2.0,264.9561497382819,1.0,1.0,phase_1,,,,,,,,,,,,,orange,hexagon
206.0,3.0,3.0,0.0,4.0,4.0,335.2186856791377,1.0,2.0,phase_1,,,,,,,,,,,,,white,triangle
391.0,8.0,4.0,1.0,4.0,4.0,321.7451800592243,1.0,1.0,phase_1,,,,,,,,,,,,,cyan,flipped triangle
391.0,8.0,4.0,1.0,3.0,3.0,332.9652626998722,1.0,1.0,phase_1,,,,,,,,,,,,,cyan,flipped triangle
43.0,5.0,1.0,1.0,4.0,4.0,321.9507713802159,1.0,1.0,phase_1,,,,,,,,,,,,,gray,diamond
110.0,2.0,2.0,0.0,4.0,4.0,314.8348787799477,1.0,1.0,phase_1,,,,,,,,,,,,,yellow,circle
405.0,8.0,4.0,1.0,1.0,1.0,301.38796102255577,1.0,1.0,phase_1,,,,,,,,,,,,,cyan,flipped triangle
0.0,1.0,0.0,0.0,3.0,3.0,336.1830417998135,1.0,1.0,phase_1,,,,,,,,,,,,,magenta,square
75.0,1.0,1.0,0.0,3.0,3.0,304.1069931350648,1.0,1.0,phase_1,,,,,,,,,,,,,magenta,square
124.0,2.0,2.0,0.0,4.0,4.0,315.4143090359866,1.0,1.0,phase_1,,,,,,,,,,,,,yellow,circle
218.0,7.0,3.0,1.0,2.0,2.0,303.4462737850845,1.0,1.0,phase_1,,,,,,,,,,,,,orange,hexagon
179.0,7.0,3.0,1.0,2.0,2.0,315.0695720687508,1.0,1.0,phase_1,,,,,,,,,,,,,orange,hexagon
109.0,2.0,2.0,0.0,3.0,3.0,417.4515986815095,1.0,1.0,phase_1,,,,,,,,,,,,,yellow,circle
90.0,2.0,2.0,0.0,4.0,4.0,361.221456900239,1.0,1.0,phase_1,,,,,,,,,,,,,yellow,circle
0.0,5.0,0.0,1.0,1.0,1.0,813.5953359305859,1.0,1.0,phase_1,,,,,,,,,,,,,gray,diamond
48.0,5.0,1.0,1.0,1.0,1.0,331.3458142802119,1.0,1.0,phase_1,,,,,,,,,,,,,gray,diamond
61.0,1.0,1.0,0.0,2.0,2.0,275.5412827245891,1.0,1.0,phase_1,,,,,,,,,,,,,magenta,square
388.0,8.0,4.0,1.0,3.0,3.0,299.0785548463464,1.0,1.0,phase_1,,,,,,,,,,,,,cyan,flipped triangle
72.0,5.0,1.0,1.0,1.0,1.0,330.5449350737035,1.0,1.0,phase_1,,,,,,,,,,,,,gray,diamond
88.0,2.0,2.0,0.0,3.0,3.0,330.8607558719814,1.0,1.0,phase_1,,,,,,,,,,,,,yellow,circle
70.0,1.0,1.0,0.0,2.0,2.0,299.5684021152556,1.0,1.0,phase_1,,,,,,,,,,,,,magenta,square
0.0,6.0,0.0,1.0,2.0,2.0,276.4728092588484,1.0,1.0,phase_1,,,,,,,,,,,,,blue,I
175.0,7.0,3.0,1.0,3.0,3.0,289.7536880336702,1.0,1.0,phase_1,,,,,,,,,,,,,orange,hexagon
181.0,7.0,3.0,1.0,4.0,4.0,299.2085362784564,1.0,1.0,phase_1,,,,,,,,,,,,,orange,hexagon
206.0,3.0,3.0,0.0,1.0,1.0,277.4350792169571,1.0,1.0,phase_1,,,,,,,,,,,,,white,triangle
0.0,5.0,0.0,1.0,4.0,4.0,360.5976100079715,1.0,1.0,phase_1,,,,,,,,,,,,,gray,diamond
55.0,5.0,1.0,1.0,2.0,2.0,302.7118379250169,1.0,1.0,phase_1,,,,,,,,,,,,,gray,diamond
415.0,8.0,4.0,1.0,2.0,2.0,302.3478938266635,1.0,1.0,phase_1,,,,,,,,,,,,,cyan,flipped triangle
0.0,3.0,0.0,0.0,2.0,2.0,294.5030750706792,1.0,1.0,phase_1,,,,,,,,,,,,,white,triangle
388.0,4.0,4.0,0.0,1.0,1.0,299.782495945692,2.0,1.0,phase_1,,,,,,,,,,,,,green,cross
39.0,1.0,1.0,0.0,2.0,2.0,262.9066207446158,2.0,1.0,phase_1,,,,,,,,,,,,,magenta,square
29.0,5.0,1.0,1.0,2.0,2.0,299.2931585758924,2.0,1.0,phase_1,,,,,,,,,,,,,gray,diamond
188.0,3.0,3.0,0.0,3.0,3.0,332.8492161817848,2.0,1.0,phase_1,,,,,,,,,,,,,white,triangle
217.0,7.0,3.0,1.0,2.0,2.0,300.7776611484587,2.0,1.0,phase_1,,,,,,,,,,,,,orange,hexagon
410.0,8.0,4.0,1.0,2.0,2.0,309.5073369331658,2.0,1.0,phase_1,,,,,,,,,,,,,cyan,flipped triangle
31.0,1.0,1.0,0.0,3.0,3.0,323.3507550321519,2.0,1.0,phase_1,,,,,,,,,,,,,magenta,square
221.0,7.0,3.0,1.0,2.0,2.0,266.474234405905,2.0,1.0,phase_1,,,,,,,,,,,,,orange,hexagon
102.0,2.0,2.0,0.0,3.0,3.0,302.8615028597414,2.0,1.0,phase_1,,,,,,,,,,,,,yellow,circle
211.0,3.0,3.0,0.0,3.0,3.0,304.6967042610049,2.0,1.0,phase_1,,,,,,,,,,,,,white,triangle
0.0,1.0,0.0,0.0,2.0,2.0,291.833218652755,2.0,1.0,phase_1,,,,,,,,,,,,,magenta,square
406.0,8.0,4.0,1.0,1.0,1.0,302.5464308448136,2.0,1.0,phase_1,,,,,,,,,,,,,cyan,flipped triangle
0.0,1.0,0.0,0.0,2.0,2.0,270.6061298958957,2.0,1.0,phase_1,,,,,,,,,,,,,magenta,square
420.0,4.0,4.0,0.0,1.0,1.0,306.3483880832791,2.0,1.0,phase_1,,,,,,,,,,,,,green,cross
406.0,8.0,4.0,1.0,4.0,4.0,303.4378192387521,2.0,1.0,phase_1,,,,,,,,,,,,,cyan,flipped triangle
57.0,1.0,1.0,0.0,4.0,4.0,294.1164458170533,2.0,1.0,phase_1,,,,,,,,,,,,,magenta,square
177.0,3.0,3.0,0.0,3.0,3.0,329.5789402909577,2.0,1.0,phase_1,,,,,,,,,,,,,white,triangle
219.0,7.0,3.0,1.0,4.0,4.0,305.4845994338393,2.0,1.0,phase_1,,,,,,,,,,,,,orange,hexagon
117.0,2.0,2.0,0.0,2.0,2.0,275.1886360347271,2.0,1.0,phase_1,,,,,,,,,,,,,yellow,circle
88.0,6.0,2.0,1.0,4.0,4.0,351.0791338048875,2.0,1.0,phase_1,,,,,,,,,,,,,blue,I
0.0,3.0,0.0,0.0,1.0,1.0,299.4940849021077,2.0,1.0,phase_1,,,,,,,,,,,,,white,triangle
117.0,6.0,2.0,1.0,2.0,2.0,307.4822388589382,2.0,1.0,phase_1,,,,,,,,,,,,,blue,I
124.0,6.0,2.0,1.0,3.0,3.0,297.1714120358228,2.0,1.0,phase_1,,,,,,,,,,,,,blue,I
93.0,2.0,2.0,0.0,3.0,3.0,310.5313456617296,2.0,1.0,phase_1,,,,,,,,,,,,,yellow,circle
33.0,1.0,1.0,0.0,1.0,1.0,255.5406717583537,2.0,1.0,phase_1,,,,,,,,,,,,,magenta,square
212.0,7.0,3.0,1.0,1.0,1.0,312.0383932255208,2.0,1.0,phase_1,,,,,,,,,,,,,orange,hexagon
203.0,3.0,3.0,0.0,2.0,2.0,287.737546954304,2.0,1.0,phase_1,,,,,,,,,,,,,white,triangle
192.0,7.0,3.0,1.0,4.0,4.0,335.1046848110854,2.0,1.0,phase_1,,,,,,,,,,,,,orange,hexagon
98.0,6.0,2.0,1.0,3.0,3.0,277.8626410290599,2.0,1.0,phase_1,,,,,,,,,,,,,blue,I
60.0,1.0,1.0,0.0,1.0,1.0,436.9787778705358,2.0,1.0,phase_1,,,,,,,,,,,,,magenta,square
0.0,1.0,0.0,0.0,4.0,4.0,360.309868119657,2.0,1.0,phase_1,,,,,,,,,,,,,magenta,square
389.0,4.0,4.0,0.0,3.0,3.0,327.1426749415695,2.0,1.0,phase_1,,,,,,,,,,,,,green,cross
38.0,5.0,1.0,1.0,2.0,2.0,271.404858212918,2.0,1.0,phase_1,,,,,,,,,,,,,gray,diamond
26.0,1.0,1.0,0.0,3.0,3.0,282.7317048795521,2.0,1.0,phase_1,,,,,,,,,,,,,magenta,square
0.0,6.0,0.0,1.0,4.0,4.0,385.547389741987,2.0,1.0,phase_1,,,,,,,,,,,,,blue,I
0.0,1.0,0.0,0.0,1.0,1.0,283.5587756708264,2.0,1.0,phase_1,,,,,,,,,,,,,magenta,square
71.0,5.0,1.0,1.0,4.0,4.0,316.2811379879713,2.0,1.0,phase_1,,,,,,,,,,,,,gray,diamond
77.0,2.0,2.0,0.0,3.0,3.0,295.05500709638,2.0,1.0,phase_1,,,,,,,,,,,,,yellow,circle
415.0,4.0,4.0,0.0,3.0,3.0,320.9745790809393,2.0,1.0,phase_1,,,,,,,,,,,,,green,cross
114.0,6.0,2.0,1.0,2.0,2.0,320.8775059320032,2.0,1.0,phase_1,,,,,,,,,,,,,blue,I
402.0,4.0,4.0,0.0,2.0,2.0,329.0141993202269,2.0,1.0,phase_1,,,,,,,,,,,,,green,cross
52.0,5.0,1.0,1.0,3.0,3.0,320.9047620184719,2.0,1.0,phase_1,,,,,,,,,,,,,gray,diamond
0.0,8.0,0.0,1.0,2.0,2.0,311.4399891346693,2.0,1.0,phase_1,,,,,,,,,,,,,cyan,flipped triangle
86.0,2.0,2.0,0.0,4.0,4.0,344.2134330980479,2.0,1.0,phase_1,,,,,,,,,,,,,yellow,circle
410.0,8.0,4.0,1.0,4.0,4.0,365.5218221247196,2.0,1.0,phase_1,,,,,,,,,,,,,cyan,flipped triangle
62.0,1.0,1.0,0.0,2.0,2.0,287.4175519682467,2.0,1.0,phase_1,,,,,,,,,,,,,magenta,square
75.0,6.0,2.0,1.0,3.0,3.0,325.3743518143892,2.0,1.0,phase_1,,,,,,,,,,,,,blue,I
225.0,7.0,3.0,1.0,3.0,3.0,299.3553737178445,2.0,1.0,phase_1,,,,,,,,,,,,,orange,hexagon
0.0,5.0,0.0,1.0,3.0,3.0,291.76123905926937,2.0,1.0,phase_1,,,,,,,,,,,,,gray,diamond
0.0,4.0,0.0,0.0,2.0,2.0,301.1141521856189,2.0,1.0,phase_1,,,,,,,,,,,,,green,cross
108.0,2.0,2.0,0.0,1.0,1.0,304.1457398794591,2.0,1.0,phase_1,,,,,,,,,,,,,yellow,circle
39.0,5.0,1.0,1.0,4.0,4.0,338.3330549113452,2.0,1.0,phase_1,,,,,,,,,,,,,gray,diamond
212.0,3.0,3.0,0.0,4.0,4.0,361.6014523431659,2.0,1.0,phase_1,,,,,,,,,,,,,white,triangle
179.0,3.0,3.0,0.0,2.0,2.0,326.1892017908394,2.0,1.0,phase_1,,,,,,,,,,,,,white,triangle
177.0,7.0,3.0,1.0,4.0,4.0,328.8903241045773,2.0,1.0,phase_1,,,,,,,,,,,,,orange,hexagon
0.0,3.0,0.0,0.0,2.0,2.0,283.7177948094904,2.0,1.0,phase_1,,,,,,,,,,,,,white,triangle
207.0,7.0,3.0,1.0,1.0,1.0,296.9291731715202,2.0,1.0,phase_1,,,,,,,,,,,,,orange,hexagon
107.0,2.0,2.0,0.0,3.0,3.0,397.6627108640969,2.0,1.0,phase_1,,,,,,,,,,,,,yellow,circle
388.0,4.0,4.0,0.0,4.0,4.0,317.3557138070464,2.0,1.0,phase_1,,,,,,,,,,,,,green,cross
103.0,2.0,2.0,0.0,4.0,4.0,296.0167001001537,2.0,1.0,phase_1,,,,,,,,,,,,,yellow,circle
27.0,5.0,1.0,1.0,4.0,4.0,329.4853297993541,2.0,1.0,phase_1,,,,,,,,,,,,,gray,diamond
392.0,4.0,4.0,0.0,1.0,1.0,333.6369502358138,2.0,1.0,phase_1,,,,,,,,,,,,,green,cross
0.0,8.0,0.0,1.0,1.0,1.0,341.3358787074685,2.0,1.0,phase_1,,,,,,,,,,,,,cyan,flipped triangle
376.0,4.0,4.0,0.0,4.0,4.0,309.1423050500452,2.0,1.0,phase_1,,,,,,,,,,,,,green,cross
87.0,6.0,2.0,1.0,3.0,3.0,421.6782618314028,2.0,1.0,phase_1,,,,,,,,,,,,,blue,I
49.0,5.0,1.0,1.0,3.0,3.0,301.0858250781894,2.0,1.0,phase_1,,,,,,,,,,,,,gray,diamond
0.0,2.0,0.0,0.0,4.0,4.0,357.9604090191424,2.0,1.0,phase_1,,,,,,,,,,,,,yellow,circle
409.0,4.0,4.0,0.0,3.0,3.0,348.1062208302319,2.0,1.0,phase_1,,,,,,,,,,,,,green,cross
375.0,4.0,4.0,0.0,4.0,4.0,379.2794751934707,2.0,1.0,phase_1,,,,,,,,,,,,,green,cross
417.0,4.0,4.0,0.0,2.0,2.0,324.148362968117,2.0,1.0,phase_1,,,,,,,,,,,,,green,cross
75.0,5.0,1.0,1.0,2.0,2.0,461.4915740676224,2.0,1.0,phase_1,,,,,,,,,,,,,gray,diamond
29.0,1.0,1.0,0.0,1.0,1.0,384.3189030885696,2.0,1.0,phase_1,,,,,,,,,,,,,magenta,square
224.0,7.0,3.0,1.0,4.0,4.0,349.3632120080292,2.0,1.0,phase_1,,,,,,,,,,,,,orange,hexagon
401.0,8.0,4.0,1.0,2.0,2.0,316.9484450481832,2.0,1.0,phase_1,,,,,,,,,,,,,cyan,flipped triangle
119.0,2.0,2.0,0.0,4.0,4.0,349.3835069239139,2.0,1.0,phase_1,,,,,,,,,,,,,yellow,circle
103.0,6.0,2.0,1.0,2.0,2.0,361.1437352374196,2.0,1.0,phase_1,,,,,,,,,,,,,blue,I
107.0,6.0,2.0,1.0,1.0,1.0,329.1097981855273,2.0,1.0,phase_1,,,,,,,,,,,,,blue,I
62.0,1.0,1.0,0.0,1.0,1.0,354.1111601516604,2.0,1.0,phase_1,,,,,,,,,,,,,magenta,square
208.0,7.0,3.0,1.0,1.0,1.0,317.1606007963419,2.0,1.0,phase_1,,,,,,,,,,,,,orange,hexagon
29.0,5.0,1.0,1.0,3.0,3.0,328.6858987994492,2.0,1.0,phase_1,,,,,,,,,,,,,gray,diamond
208.0,3.0,3.0,0.0,3.0,3.0,340.6737549230456,2.0,1.0,phase_1,,,,,,,,,,,,,white,triangle
192.0,7.0,3.0,1.0,4.0,4.0,379.0324931032955,2.0,1.0,phase_1,,,,,,,,,,,,,orange,hexagon
206.0,7.0,3.0,1.0,2.0,2.0,366.6734588332474,2.0,1.0,phase_1,,,,,,,,,,,,,orange,hexagon
195.0,7.0,3.0,1.0,1.0,1.0,332.4124128557741,2.0,1.0,phase_1,,,,,,,,,,,,,orange,hexagon
31.0,5.0,1.0,1.0,4.0,4.0,323.6440438777208,2.0,1.0,phase_1,,,,,,,,,,,,,gray,diamond
391.0,4.0,4.0,0.0,2.0,2.0,444.8406021110713,2.0,1.0,phase_1,,,,,,,,,,,,,green,cross
117.0,2.0,2.0,0.0,1.0,1.0,321.4624240063131,2.0,1.0,phase_1,,,,,,,,,,,,,yellow,circle
181.0,3.0,3.0,0.0,3.0,3.0,313.4769727475941,2.0,1.0,phase_1,,,,,,,,,,,,,white,triangle
0.0,7.0,0.0,1.0,1.0,1.0,367.2808473929763,2.0,1.0,phase_1,,,,,,,,,,,,,orange,hexagon
0.0,6.0,0.0,1.0,3.0,3.0,347.2174210473895,2.0,1.0,phase_1,,,,,,,,,,,,,blue,I
0.0,8.0,0.0,1.0,2.0,2.0,312.1566278859973,2.0,1.0,phase_1,,,,,,,,,,,,,cyan,flipped triangle
175.0,3.0,3.0,0.0,1.0,1.0,349.7674418613314,2.0,1.0,phase_1,,,,,,,,,,,,,white,triangle
398.0,8.0,4.0,1.0,1.0,1.0,336.7670020088553,2.0,1.0,phase_1,,,,,,,,,,,,,cyan,flipped triangle
209.0,3.0,3.0,0.0,3.0,3.0,394.4701268337667,2.0,1.0,phase_1,,,,,,,,,,,,,white,triangle
388.0,8.0,4.0,1.0,1.0,1.0,337.7277236431837,2.0,1.0,phase_1,,,,,,,,,,,,,cyan,flipped triangle
63.0,1.0,1.0,0.0,3.0,3.0,328.0435521155596,2.0,1.0,phase_1,,,,,,,,,,,,,magenta,square
217.0,3.0,3.0,0.0,4.0,4.0,317.7976836450398,2.0,1.0,phase_1,,,,,,,,,,,,,white,triangle
56.0,1.0,1.0,0.0,4.0,4.0,330.1367671228945,2.0,1.0,phase_1,,,,,,,,,,,,,magenta,square
194.0,3.0,3.0,0.0,4.0,4.0,362.9307220689952,2.0,1.0,phase_1,,,,,,,,,,,,,white,triangle
90.0,2.0,2.0,0.0,2.0,2.0,306.5783400088548,2.0,1.0,phase_1,,,,,,,,,,,,,yellow,circle
61.0,5.0,1.0,1.0,3.0,3.0,320.2533121220767,3.0,1.0,phase_1,,,,,,,,,,,,,gray,diamond
114.0,2.0,2.0,0.0,2.0,2.0,284.0272169560194,3.0,1.0,phase_1,,,,,,,,,,,,,yellow,circle
195.0,3.0,3.0,0.0,2.0,2.0,295.4713511280715,3.0,1.0,phase_1,,,,,,,,,,,,,white,triangle
120.0,2.0,2.0,0.0,2.0,2.0,308.2474903203547,3.0,1.0,phase_1,,,,,,,,,,,,,yellow,circle
0.0,2.0,0.0,0.0,3.0,3.0,320.1161683537066,3.0,1.0,phase_1,,,,,,,,,,,,,yellow,circle
40.0,5.0,1.0,1.0,3.0,3.0,274.8597348108887,3.0,1.0,phase_1,,,,,,,,,,,,,gray,diamond
193.0,3.0,3.0,0.0,3.0,3.0,309.1187761165201,3.0,1.0,phase_1,,,,,,,,,,,,,white,triangle
71.0,1.0,1.0,0.0,3.0,3.0,279.1861980222165,3.0,1.0,phase_1,,,,,,,,,,,,,magenta,square
119.0,6.0,2.0,1.0,1.0,1.0,299.5913908816874,3.0,1.0,phase_1,,,,,,,,,,,,,blue,I
0.0,4.0,0.0,0.0,1.0,1.0,323.5350018367171,3.0,2.0,phase_1,,,,,,,,,,,,,green,cross
88.0,2.0,2.0,0.0,2.0,2.0,290.5637770891189,3.0,1.0,phase_1,,,,,,,,,,,,,yellow,circle
200.0,3.0,3.0,0.0,1.0,1.0,256.6849547438323,3.0,1.0,phase_1,,,,,,,,,,,,,white,triangle
416.0,8.0,4.0,1.0,3.0,3.0,294.3892059847712,3.0,1.0,phase_1,,,,,,,,,,,,,cyan,flipped triangle
196.0,7.0,3.0,1.0,3.0,3.0,327.2054018452763,3.0,1.0,phase_1,,,,,,,,,,,,,orange,hexagon
118.0,6.0,2.0,1.0,2.0,2.0,314.5793206058442,3.0,1.0,phase_1,,,,,,,,,,,,,blue,I
380.0,8.0,4.0,1.0,1.0,1.0,281.7827309481799,3.0,1.0,phase_1,,,,,,,,,,,,,cyan,flipped triangle
67.0,1.0,1.0,0.0,4.0,4.0,405.6847332976758,3.0,1.0,phase_1,,,,,,,,,,,,,magenta,square
180.0,3.0,3.0,0.0,1.0,1.0,308.0415530130267,3.0,1.0,phase_1,,,,,,,,,,,,,white,triangle
77.0,6.0,2.0,1.0,2.0,2.0,316.261360887438,3.0,1.0,phase_1,,,,,,,,,,,,,blue,I
410.0,4.0,4.0,0.0,3.0,3.0,353.4190198406577,3.0,1.0,phase_1,,,,,,,,,,,,,green,cross
0.0,8.0,0.0,1.0,4.0,4.0,275.3975028172135,3.0,1.0,phase_1,,,,,,,,,,,,,cyan,flipped triangle
39.0,1.0,1.0,0.0,1.0,1.0,308.140414301306,3.0,1.0,phase_1,,,,,,,,,,,,,magenta,square
0.0,1.0,0.0,0.0,2.0,2.0,254.60204109549522,3.0,1.0,phase_1,,,,,,,,,,,,,magenta,square
391.0,8.0,4.0,1.0,1.0,1.0,275.4965159110725,3.0,1.0,phase_1,,,,,,,,,,,,,cyan,flipped triangle
193.0,3.0,3.0,0.0,4.0,4.0,263.701094314456,3.0,1.0,phase_1,,,,,,,,,,,,,white,triangle
93.0,6.0,2.0,1.0,4.0,4.0,344.3636493757367,3.0,1.0,phase_1,,,,,,,,,,,,,blue,I
195.0,3.0,3.0,0.0,2.0,2.0,287.832987960428,3.0,1.0,phase_1,,,,,,,,,,,,,white,triangle
424.0,8.0,4.0,1.0,3.0,3.0,279.6861529350281,3.0,1.0,phase_1,,,,,,,,,,,,,cyan,flipped triangle
82.0,6.0,2.0,1.0,2.0,2.0,266.3176716305315,3.0,1.0,phase_1,,,,,,,,,,,,,blue,I
0.0,6.0,0.0,1.0,1.0,1.0,266.9440936297178,3.0,1.0,phase_1,,,,,,,,,,,,,blue,I
0.0,2.0,0.0,0.0,2.0,2.0,326.9611266441643,3.0,1.0,phase_1,,,,,,,,,,,,,yellow,circle
180.0,7.0,3.0,1.0,2.0,2.0,315.9818737767637,3.0,1.0,phase_1,,,,,,,,,,,,,orange,hexagon
0.0,3.0,0.0,0.0,2.0,2.0,303.0576058663428,3.0,1.0,phase_1,,,,,,,,,,,,,white,triangle
194.0,7.0,3.0,1.0,1.0,1.0,249.827133025974,3.0,1.0,phase_1,,,,,,,,,,,,,orange,hexagon
111.0,2.0,2.0,0.0,3.0,3.0,303.2452156767249,3.0,1.0,phase_1,,,,,,,,,,,,,yellow,circle
406.0,4.0,4.0,0.0,1.0,1.0,270.0324729084968,3.0,1.0,phase_1,,,,,,,,,,,,,green,cross
0.0,4.0,0.0,0.0,1.0,1.0,307.2386621497571,3.0,1.0,phase_1,,,,,,,,,,,,,green,cross
49.0,5.0,1.0,1.0,2.0,2.0,296.6187847778201,3.0,1.0,phase_1,,,,,,,,,,,,,gray,diamond
0.0,4.0,0.0,0.0,2.0,2.0,282.8593528829515,3.0,1.0,phase_1,,,,,,,,,,,,,green,cross
102.0,6.0,2.0,1.0,1.0,1.0,274.4211181998253,3.0,1.0,phase_1,,,,,,,,,,,,,blue,I
397.0,8.0,4.0,1.0,4.0,4.0,283.7676666676998,3.0,1.0,phase_1,,,,,,,,,,,,,cyan,flipped triangle
102.0,6.0,2.0,1.0,1.0,1.0,276.6019203700125,3.0,1.0,phase_1,,,,,,,,,,,,,blue,I
77.0,2.0,2.0,0.0,1.0,1.0,307.8588517382741,3.0,1.0,phase_1,,,,,,,,,,,,,yellow,circle
108.0,6.0,2.0,1.0,2.0,2.0,299.1423979401588,3.0,1.0,phase_1,,,,,,,,,,,,,blue,I
111.0,6.0,2.0,1.0,4.0,4.0,286.8129932321608,3.0,1.0,phase_1,,,,,,,,,,,,,blue,I
63.0,5.0,1.0,1.0,3.0,3.0,275.6694708950817,3.0,1.0,phase_1,,,,,,,,,,,,,gray,diamond
0.0,7.0,0.0,1.0,2.0,2.0,266.4132551290095,3.0,1.0,phase_1,,,,,,,,,,,,,orange,hexagon
224.0,7.0,3.0,1.0,2.0,2.0,324.5834819972515,3.0,1.0,phase_1,,,,,,,,,,,,,orange,hexagon
380.0,4.0,4.0,0.0,3.0,3.0,290.4973663389683,3.0,1.0,phase_1,,,,,,,,,,,,,green,cross
55.0,1.0,1.0,0.0,4.0,4.0,304.1698788292706,3.0,1.0,phase_1,,,,,,,,,,,,,magenta,square
391.0,4.0,4.0,0.0,3.0,3.0,314.6245493553579,3.0,1.0,phase_1,,,,,,,,,,,,,green,cross
53.0,5.0,1.0,1.0,4.0,4.0,279.5084891840815,3.0,1.0,phase_1,,,,,,,,,,,,,gray,diamond
53.0,1.0,1.0,0.0,3.0,3.0,292.4249991774559,3.0,1.0,phase_1,,,,,,,,,,,,,magenta,square
88.0,6.0,2.0,1.0,2.0,2.0,315.2034948579967,3.0,2.0,phase_1,,,,,,,,,,,,,blue,I
66.0,1.0,1.0,0.0,3.0,3.0,328.229411970824,3.0,1.0,phase_1,,,,,,,,,,,,,magenta,square
422.0,8.0,4.0,1.0,2.0,2.0,307.8959118574857,3.0,1.0,phase_1,,,,,,,,,,,,,cyan,flipped triangle
0.0,8.0,0.0,1.0,2.0,2.0,294.2439951002598,3.0,1.0,phase_1,,,,,,,,,,,,,cyan,flipped triangle
72.0,1.0,1.0,0.0,1.0,1.0,330.8391692116856,3.0,1.0,phase_1,,,,,,,,,,,,,magenta,square
70.0,5.0,1.0,1.0,1.0,1.0,272.4816529080271,3.0,1.0,phase_1,,,,,,,,,,,,,gray,diamond
79.0,2.0,2.0,0.0,1.0,1.0,332.67919532954687,3.0,1.0,phase_1,,,,,,,,,,,,,yellow,circle
65.0,5.0,1.0,1.0,2.0,2.0,297.8068552911281,3.0,1.0,phase_1,,,,,,,,,,,,,gray,diamond
102.0,6.0,2.0,1.0,1.0,1.0,266.2690351717174,3.0,1.0,phase_1,,,,,,,,,,,,,blue,I
0.0,4.0,0.0,0.0,1.0,1.0,274.0531200543046,3.0,1.0,phase_1,,,,,,,,,,,,,green,cross
189.0,7.0,3.0,1.0,3.0,3.0,288.5579369030893,3.0,1.0,phase_1,,,,,,,,,,,,,orange,hexagon
209.0,7.0,3.0,1.0,4.0,4.0,298.5846940428018,3.0,1.0,phase_1,,,,,,,,,,,,,orange,hexagon
423.0,4.0,4.0,0.0,2.0,2.0,310.4588049463928,3.0,1.0,phase_1,,,,,,,,,,,,,green,cross
0.0,4.0,0.0,0.0,4.0,4.0,302.4090579710901,3.0,1.0,phase_1,,,,,,,,,,,,,green,cross
410.0,8.0,4.0,1.0,4.0,4.0,311.7808108218014,3.0,1.0,phase_1,,,,,,,,,,,,,cyan,flipped triangle
0.0,6.0,0.0,1.0,1.0,1.0,291.8571191839874,3.0,1.0,phase_1,,,,,,,,,,,,,blue,I
38.0,1.0,1.0,0.0,3.0,3.0,484.9169556982815,3.0,1.0,phase_1,,,,,,,,,,,,,magenta,square
49.0,1.0,1.0,0.0,3.0,3.0,290.1223376393318,3.0,1.0,phase_1,,,,,,,,,,,,,magenta,square
49.0,1.0,1.0,0.0,1.0,1.0,279.2314998805523,3.0,1.0,phase_1,,,,,,,,,,,,,magenta,square
31.0,5.0,1.0,1.0,2.0,2.0,270.5817320384085,3.0,1.0,phase_1,,,,,,,,,,,,,gray,diamond
97.0,6.0,2.0,1.0,1.0,1.0,295.2699358575046,3.0,1.0,phase_1,,,,,,,,,,,,,blue,I
99.0,6.0,2.0,1.0,3.0,3.0,304.359526373446,3.0,1.0,phase_1,,,,,,,,,,,,,blue,I
83.0,6.0,2.0,1.0,4.0,4.0,337.7527939155698,3.0,1.0,phase_1,,,,,,,,,,,,,blue,I
0.0,6.0,0.0,1.0,2.0,2.0,284.086974337697,3.0,1.0,phase_1,,,,,,,,,,,,,blue,I
123.0,6.0,2.0,1.0,2.0,2.0,295.1950887218117,3.0,1.0,phase_1,,,,,,,,,,,,,blue,I
177.0,3.0,3.0,0.0,3.0,3.0,262.7967251464724,3.0,1.0,phase_1,,,,,,,,,,,,,white,triangle
57.0,5.0,1.0,1.0,4.0,4.0,295.0997808948159,3.0,1.0,phase_1,,,,,,,,,,,,,gray,diamond
384.0,8.0,4.0,1.0,2.0,2.0,261.7973717860877,3.0,1.0,phase_1,,,,,,,,,,,,,cyan,flipped triangle
97.0,2.0,2.0,0.0,1.0,1.0,297.855774872005,3.0,1.0,phase_1,,,,,,,,,,,,,yellow,circle
192.0,3.0,3.0,0.0,3.0,3.0,285.6960631906986,3.0,1.0,phase_1,,,,,,,,,,,,,white,triangle
27.0,1.0,1.0,0.0,4.0,4.0,277.6755476370454,3.0,1.0,phase_1,,,,,,,,,,,,,magenta,square
225.0,3.0,3.0,0.0,3.0,3.0,310.7891590334475,3.0,1.0,phase_1,,,,,,,,,,,,,white,triangle
0.0,7.0,0.0,1.0,1.0,1.0,266.3762206211686,3.0,1.0,phase_1,,,,,,,,,,,,,orange,hexagon
197.0,7.0,3.0,1.0,3.0,3.0,303.1965340487659,3.0,1.0,phase_1,,,,,,,,,,,,,orange,hexagon
408.0,8.0,4.0,1.0,3.0,3.0,290.6294129788875,3.0,1.0,phase_1,,,,,,,,,,,,,cyan,flipped triangle
389.0,4.0,4.0,0.0,1.0,1.0,300.4507008008659,3.0,1.0,phase_1,,,,,,,,,,,,,green,cross
0.0,5.0,0.0,1.0,1.0,1.0,334.9031726829707,3.0,1.0,phase_1,,,,,,,,,,,,,gray,diamond
0.0,3.0,0.0,0.0,1.0,1.0,327.463517896831,3.0,1.0,phase_1,,,,,,,,,,,,,white,triangle
91.0,6.0,2.0,1.0,3.0,3.0,314.5215753465891,3.0,1.0,phase_1,,,,,,,,,,,,,blue,I
424.0,4.0,4.0,0.0,4.0,4.0,303.0216949991882,3.0,1.0,phase_1,,,,,,,,,,,,,green,cross
87.0,2.0,2.0,0.0,1.0,1.0,294.9759527109563,3.0,1.0,phase_1,,,,,,,,,,,,,yellow,circle
409.0,8.0,4.0,1.0,4.0,4.0,304.1277970187366,3.0,1.0,phase_1,,,,,,,,,,,,,cyan,flipped triangle
84.0,2.0,2.0,0.0,2.0,2.0,305.0129236653447,3.0,1.0,phase_1,,,,,,,,,,,,,yellow,circle
181.0,3.0,3.0,0.0,2.0,2.0,295.579036232084,3.0,1.0,phase_1,,,,,,,,,,,,,white,triangle
0.0,2.0,0.0,0.0,4.0,4.0,283.3788758143782,3.0,1.0,phase_1,,,,,,,,,,,,,yellow,circle
404.0,8.0,4.0,1.0,1.0,1.0,250.24025980383158,3.0,1.0,phase_1,,,,,,,,,,,,,cyan,flipped triangle
110.0,6.0,2.0,1.0,3.0,3.0,285.4041503742337,3.0,1.0,phase_1,,,,,,,,,,,,,blue,I
412.0,8.0,4.0,1.0,1.0,1.0,374.2591887712478,4.0,1.0,phase_1,,,,,,,,,,,,,cyan,flipped triangle
397.0,4.0,4.0,0.0,3.0,3.0,297.351345885545,4.0,1.0,phase_1,,,,,,,,,,,,,green,cross
0.0,2.0,0.0,0.0,3.0,3.0,287.702530156821,4.0,1.0,phase_1,,,,,,,,,,,,,yellow,circle
405.0,4.0,4.0,0.0,3.0,3.0,296.9295410439372,4.0,1.0,phase_1,,,,,,,,,,,,,green,cross
396.0,8.0,4.0,1.0,3.0,3.0,289.6703160367906,4.0,1.0,phase_1,,,,,,,,,,,,,cyan,flipped triangle
49.0,5.0,1.0,1.0,1.0,1.0,313.5907612740993,4.0,1.0,phase_1,,,,,,,,,,,,,gray,diamond
115.0,2.0,2.0,0.0,1.0,1.0,325.1883499324322,4.0,1.0,phase_1,,,,,,,,,,,,,yellow,circle
115.0,6.0,2.0,1.0,1.0,1.0,234.93292927742,4.0,1.0,phase_1,,,,,,,,,,,,,blue,I
0.0,5.0,0.0,1.0,4.0,4.0,292.6368089392781,4.0,1.0,phase_1,,,,,,,,,,,,,gray,diamond
50.0,5.0,1.0,1.0,4.0,4.0,290.6062598340213,4.0,2.0,phase_1,,,,,,,,,,,,,gray,diamond
195.0,7.0,3.0,1.0,2.0,2.0,278.6469478160143,4.0,1.0,phase_1,,,,,,,,,,,,,orange,hexagon
0.0,6.0,0.0,1.0,4.0,4.0,270.1472267508507,4.0,1.0,phase_1,,,,,,,,,,,,,blue,I
0.0,1.0,0.0,0.0,1.0,1.0,282.8777781687677,4.0,1.0,phase_1,,,,,,,,,,,,,magenta,square
90.0,6.0,2.0,1.0,4.0,4.0,295.2620978467166,4.0,1.0,phase_1,,,,,,,,,,,,,blue,I
417.0,8.0,4.0,1.0,4.0,4.0,258.8897407986223,4.0,1.0,phase_1,,,,,,,,,,,,,cyan,flipped triangle
43.0,1.0,1.0,0.0,4.0,4.0,295.8020982332527,4.0,1.0,phase_1,,,,,,,,,,,,,magenta,square
388.0,8.0,4.0,1.0,4.0,4.0,271.2881001643836,4.0,1.0,phase_1,,,,,,,,,,,,,cyan,flipped triangle
0.0,2.0,0.0,0.0,3.0,3.0,296.1735781282186,4.0,1.0,phase_1,,,,,,,,,,,,,yellow,circle
118.0,2.0,2.0,0.0,3.0,3.0,299.0322369150817,4.0,1.0,phase_1,,,,,,,,,,,,,yellow,circle
0.0,5.0,0.0,1.0,3.0,3.0,284.2193227261305,4.0,1.0,phase_1,,,,,,,,,,,,,gray,diamond
0.0,5.0,0.0,1.0,2.0,2.0,298.8003077916801,4.0,1.0,phase_1,,,,,,,,,,,,,gray,diamond
0.0,3.0,0.0,0.0,1.0,1.0,286.8915470317006,4.0,1.0,phase_1,,,,,,,,,,,,,white,triangle
219.0,3.0,3.0,0.0,1.0,1.0,331.6061082296073,4.0,1.0,phase_1,,,,,,,,,,,,,white,triangle
200.0,7.0,3.0,1.0,2.0,2.0,277.8692501597106,4.0,1.0,phase_1,,,,,,,,,,,,,orange,hexagon
0.0,7.0,0.0,1.0,4.0,4.0,275.794624350965,4.0,1.0,phase_1,,,,,,,,,,,,,orange,hexagon
31.0,1.0,1.0,0.0,2.0,2.0,313.9256150461733,4.0,1.0,phase_1,,,,,,,,,,,,,magenta,square
104.0,6.0,2.0,1.0,2.0,2.0,325.4623748362064,4.0,1.0,phase_1,,,,,,,,,,,,,blue,I
37.0,1.0,1.0,0.0,2.0,2.0,288.8583848252892,4.0,1.0,phase_1,,,,,,,,,,,,,magenta,square
0.0,4.0,0.0,0.0,3.0,3.0,304.0691860951483,4.0,1.0,phase_1,,,,,,,,,,,,,green,cross
213.0,7.0,3.0,1.0,3.0,3.0,292.7006697282195,4.0,1.0,phase_1,,,,,,,,,,,,,orange,hexagon
79.0,6.0,2.0,1.0,3.0,3.0,325.6647121161222,4.0,1.0,phase_1,,,,,,,,,,,,,blue,I
410.0,4.0,4.0,0.0,4.0,4.0,426.92068684846157,4.0,1.0,phase_1,,,,,,,,,,,,,green,cross
195.0,3.0,3.0,0.0,2.0,2.0,281.8272761069238,4.0,1.0,phase_1,,,,,,,,,,,,,white,triangle
0.0,4.0,0.0,0.0,2.0,2.0,316.2372959777713,4.0,1.0,phase_1,,,,,,,,,,,,,green,cross
33.0,5.0,1.0,1.0,1.0,1.0,304.4041879475117,4.0,1.0,phase_1,,,,,,,,,,,,,gray,diamond
396.0,4.0,4.0,0.0,2.0,2.0,270.4019057564437,4.0,1.0,phase_1,,,,,,,,,,,,,green,cross
189.0,3.0,3.0,0.0,4.0,4.0,284.3014998361468,4.0,1.0,phase_1,,,,,,,,,,,,,white,triangle
29.0,1.0,1.0,0.0,4.0,4.0,274.5042932219803,4.0,1.0,phase_1,,,,,,,,,,,,,magenta,square
218.0,3.0,3.0,0.0,1.0,1.0,309.688828419894,4.0,1.0,phase_1,,,,,,,,,,,,,white,triangle
384.0,4.0,4.0,0.0,4.0,4.0,319.7175459936261,4.0,1.0,phase_1,,,,,,,,,,,,,green,cross
60.0,5.0,1.0,1.0,3.0,3.0,329.4353689998388,4.0,1.0,phase_1,,,,,,,,,,,,,gray,diamond
109.0,6.0,2.0,1.0,4.0,4.0,297.0384079962969,4.0,1.0,phase_1,,,,,,,,,,,,,blue,I
49.0,5.0,1.0,1.0,4.0,4.0,300.3822611644864,4.0,1.0,phase_1,,,,,,,,,,,,,gray,diamond
0.0,4.0,0.0,0.0,1.0,1.0,275.7849530316889,4.0,1.0,phase_1,,,,,,,,,,,,,green,cross
0.0,7.0,0.0,1.0,2.0,2.0,311.0274039208889,4.0,1.0,phase_1,,,,,,,,,,,,,orange,hexagon
0.0,6.0,0.0,1.0,2.0,2.0,300.8742900565266,4.0,1.0,phase_1,,,,,,,,,,,,,blue,I
39.0,5.0,1.0,1.0,2.0,2.0,278.9526409469545,4.0,1.0,phase_1,,,,,,,,,,,,,gray,diamond
382.0,8.0,4.0,1.0,4.0,4.0,337.3047211207449,4.0,1.0,phase_1,,,,,,,,,,,,,cyan,flipped triangle
97.0,6.0,2.0,1.0,1.0,1.0,304.3654668144882,4.0,1.0,phase_1,,,,,,,,,,,,,blue,I
73.0,5.0,1.0,1.0,1.0,1.0,291.2307060323655,4.0,1.0,phase_1,,,,,,,,,,,,,gray,diamond
59.0,1.0,1.0,0.0,4.0,4.0,279.2635671794414,4.0,1.0,phase_1,,,,,,,,,,,,,magenta,square
56.0,5.0,1.0,1.0,2.0,2.0,279.0677160955965,4.0,1.0,phase_1,,,,,,,,,,,,,gray,diamond
218.0,3.0,3.0,0.0,2.0,2.0,383.761977776885,4.0,1.0,phase_1,,,,,,,,,,,,,white,triangle
185.0,3.0,3.0,0.0,2.0,2.0,258.7576881051063,4.0,1.0,phase_1,,,,,,,,,,,,,white,triangle
32.0,5.0,1.0,1.0,1.0,1.0,307.2939892299473,4.0,2.0,phase_1,,,,,,,,,,,,,gray,diamond
382.0,4.0,4.0,0.0,2.0,2.0,294.6214852854609,4.0,1.0,phase_1,,,,,,,,,,,,,green,cross
0.0,1.0,0.0,0.0,4.0,4.0,283.1889139488339,4.0,1.0,phase_1,,,,,,,,,,,,,magenta,square
77.0,6.0,2.0,1.0,1.0,1.0,275.3310217522084,4.0,1.0,phase_1,,,,,,,,,,,,,blue,I
193.0,7.0,3.0,1.0,4.0,4.0,351.385538931936,4.0,1.0,phase_1,,,,,,,,,,,,,orange,hexagon
388.0,4.0,4.0,0.0,1.0,1.0,296.3765277527272,4.0,1.0,phase_1,,,,,,,,,,,,,green,cross
197.0,3.0,3.0,0.0,1.0,1.0,332.4951319955289,4.0,1.0,phase_1,,,,,,,,,,,,,white,triangle
100.0,6.0,2.0,1.0,4.0,4.0,343.3075319044292,4.0,1.0,phase_1,,,,,,,,,,,,,blue,I
385.0,4.0,4.0,0.0,1.0,1.0,287.9759240895509,4.0,1.0,phase_1,,,,,,,,,,,,,green,cross
213.0,3.0,3.0,0.0,1.0,1.0,298.9718243479728,4.0,1.0,phase_1,,,,,,,,,,,,,white,triangle
73.0,1.0,1.0,0.0,1.0,1.0,278.6532598547637,4.0,1.0,phase_1,,,,,,,,,,,,,magenta,square
97.0,2.0,2.0,0.0,2.0,2.0,525.4097348079085,4.0,1.0,phase_1,,,,,,,,,,,,,yellow,circle
391.0,4.0,4.0,0.0,2.0,2.0,288.5819328948855,4.0,1.0,phase_1,,,,,,,,,,,,,green,cross
404.0,4.0,4.0,0.0,4.0,4.0,300.1709212549031,4.0,1.0,phase_1,,,,,,,,,,,,,green,cross
207.0,3.0,3.0,0.0,4.0,4.0,312.2449349611997,4.0,1.0,phase_1,,,,,,,,,,,,,white,triangle
45.0,1.0,1.0,0.0,2.0,2.0,346.4624183252454,4.0,1.0,phase_1,,,,,,,,,,,,,magenta,square
50.0,1.0,1.0,0.0,2.0,2.0,292.8762882947922,4.0,1.0,phase_1,,,,,,,,,,,,,magenta,square
0.0,5.0,0.0,1.0,3.0,3.0,350.2221922390163,4.0,1.0,phase_1,,,,,,,,,,,,,gray,diamond
0.0,7.0,0.0,1.0,4.0,4.0,292.0254413038492,4.0,1.0,phase_1,,,,,,,,,,,,,orange,hexagon
376.0,8.0,4.0,1.0,3.0,3.0,329.6826630830765,4.0,1.0,phase_1,,,,,,,,,,,,,cyan,flipped triangle
181.0,7.0,3.0,1.0,3.0,3.0,315.68698072806,4.0,1.0,phase_1,,,,,,,,,,,,,orange,hexagon
86.0,6.0,2.0,1.0,4.0,4.0,305.1650379784405,4.0,1.0,phase_1,,,,,,,,,,,,,blue,I
0.0,3.0,0.0,0.0,1.0,1.0,294.2442507483065,4.0,1.0,phase_1,,,,,,,,,,,,,white,triangle
392.0,8.0,4.0,1.0,2.0,2.0,418.5594017617404,4.0,1.0,phase_1,,,,,,,,,,,,,cyan,flipped triangle
204.0,7.0,3.0,1.0,1.0,1.0,320.0388732366264,4.0,1.0,phase_1,,,,,,,,,,,,,orange,hexagon
410.0,4.0,4.0,0.0,2.0,2.0,307.8196048736572,4.0,1.0,phase_1,,,,,,,,,,,,,green,cross
82.0,2.0,2.0,0.0,4.0,4.0,296.4179958216846,4.0,1.0,phase_1,,,,,,,,,,,,,yellow,circle
100.0,2.0,2.0,0.0,4.0,4.0,308.8522180914879,4.0,1.0,phase_1,,,,,,,,,,,,,yellow,circle
0.0,2.0,0.0,0.0,3.0,3.0,333.7178872898221,4.0,2.0,phase_1,,,,,,,,,,,,,yellow,circle
0.0,2.0,0.0,0.0,2.0,2.0,300.9530492126941,4.0,1.0,phase_1,,,,,,,,,,,,,yellow,circle
204.0,3.0,3.0,0.0,1.0,1.0,310.5592993088066,4.0,1.0,phase_1,,,,,,,,,,,,,white,triangle
124.0,2.0,2.0,0.0,2.0,2.0,357.8597409650683,4.0,1.0,phase_1,,,,,,,,,,,,,yellow,circle
402.0,8.0,4.0,1.0,2.0,2.0,325.3170847892761,4.0,1.0,phase_1,,,,,,,,,,,,,cyan,flipped triangle
104.0,2.0,2.0,0.0,1.0,1.0,316.0065929405391,4.0,1.0,phase_1,,,,,,,,,,,,,yellow,circle
99.0,2.0,2.0,0.0,2.0,2.0,324.9274007976055,4.0,1.0,phase_1,,,,,,,,,,,,,yellow,circle
0.0,7.0,0.0,1.0,2.0,2.0,270.4815850593149,4.0,1.0,phase_1,,,,,,,,,,,,,orange,hexagon
117.0,6.0,2.0,1.0,1.0,1.0,349.0931591950357,4.0,1.0,phase_1,,,,,,,,,,,,,blue,I
389.0,8.0,4.0,1.0,2.0,2.0,303.6058051511645,4.0,1.0,phase_1,,,,,,,,,,,,,cyan,flipped triangle
188.0,7.0,3.0,1.0,1.0,1.0,271.6806852258742,4.0,1.0,phase_1,,,,,,,,,,,,,orange,hexagon
375.0,8.0,4.0,1.0,2.0,2.0,295.8408761769533,4.0,1.0,phase_1,,,,,,,,,,,,,cyan,flipped triangle
0.0,5.0,0.0,1.0,2.0,2.0,296.6165272518992,4.0,1.0,phase_1,,,,,,,,,,,,,gray,diamond
195.0,7.0,3.0,1.0,1.0,1.0,293.9258432015776,4.0,1.0,phase_1,,,,,,,,,,,,,orange,hexagon
0.0,1.0,0.0,0.0,1.0,1.0,307.0134627632797,4.0,1.0,phase_1,,,,,,,,,,,,,magenta,square
123.0,2.0,2.0,0.0,4.0,4.0,308.129474055022,4.0,1.0,phase_1,,,,,,,,,,,,,yellow,circle
185.0,7.0,3.0,1.0,4.0,4.0,274.9992008320987,4.0,1.0,phase_1,,,,,,,,,,,,,orange,hexagon
415.0,4.0,4.0,0.0,3.0,3.0,319.6861990727484,4.0,1.0,phase_1,,,,,,,,,,,,,green,cross
0.0,3.0,3.0,0.0,6.0,6.0,333.0692122690379,1.0,1.0,phase_2,go,250.0,250.0,1.0,,,,,,,,,white,triangle
0.0,3.0,3.0,0.0,6.0,6.0,291.3186959922313,1.0,1.0,phase_2,go,250.0,250.0,1.0,,,,,,,,,white,triangle
0.0,7.0,3.0,1.0,5.0,0.0,0.0,1.0,1.0,phase_2,stop,250.0,250.0,4.0,,,,,,,,,orange,hexagon
0.0,3.0,3.0,0.0,5.0,5.0,359.8827044479549,1.0,1.0,phase_2,go,300.0,250.0,1.0,,,,,,,,,white,triangle
0.0,7.0,3.0,1.0,5.0,5.0,322.9571981355548,1.0,1.0,phase_2,stop,300.0,250.0,3.0,,,,,,,,,orange,hexagon
0.0,4.0,4.0,0.0,6.0,6.0,281.0771618969738,1.0,1.0,phase_2,go,250.0,250.0,1.0,,,,,,,,,green,cross
0.0,5.0,1.0,1.0,5.0,0.0,0.0,1.0,1.0,phase_2,stop,250.0,250.0,4.0,,,,,,,,,gray,diamond
0.0,6.0,2.0,1.0,5.0,5.0,393.6449862085283,1.0,1.0,phase_2,stop,300.0,250.0,3.0,,,,,,,,,blue,I
0.0,3.0,3.0,0.0,6.0,6.0,541.8835398741066,1.0,1.0,phase_2,go,250.0,250.0,1.0,,,,,,,,,white,triangle
0.0,3.0,3.0,0.0,5.0,5.0,577.2472559474409,1.0,1.0,phase_2,go,250.0,250.0,1.0,,,,,,,,,white,triangle
0.0,3.0,3.0,0.0,6.0,6.0,453.0619890429079,1.0,1.0,phase_2,go,250.0,250.0,1.0,,,,,,,,,white,triangle
0.0,8.0,4.0,1.0,5.0,5.0,418.8314490020275,1.0,1.0,phase_2,go,250.0,250.0,1.0,,,,,,,,,cyan,flipped triangle
0.0,2.0,2.0,0.0,6.0,6.0,487.2864442877471,1.0,1.0,phase_2,go,250.0,250.0,1.0,,,,,,,,,yellow,circle
0.0,3.0,3.0,0.0,6.0,6.0,458.044696599245,1.0,1.0,phase_2,go,250.0,250.0,1.0,,,,,,,,,white,triangle
0.0,2.0,2.0,0.0,5.0,5.0,447.7330558001995,1.0,1.0,phase_2,go,250.0,250.0,1.0,,,,,,,,,yellow,circle
0.0,8.0,4.0,1.0,6.0,6.0,411.2630360759794,1.0,1.0,phase_2,stop,250.0,250.0,3.0,,,,,,,,,cyan,flipped triangle
0.0,4.0,4.0,0.0,6.0,6.0,557.630221825093,1.0,1.0,phase_2,go,250.0,200.0,1.0,,,,,,,,,green,cross
0.0,5.0,1.0,1.0,6.0,0.0,0.0,1.0,1.0,phase_2,stop,250.0,200.0,4.0,,,,,,,,,gray,diamond
0.0,1.0,1.0,0.0,5.0,5.0,571.0349269211292,1.0,1.0,phase_2,go,250.0,250.0,1.0,,,,,,,,,magenta,square
0.0,6.0,2.0,1.0,6.0,0.0,0.0,1.0,1.0,phase_2,stop,250.0,250.0,4.0,,,,,,,,,blue,I
0.0,2.0,2.0,0.0,6.0,6.0,505.37192495539784,1.0,1.0,phase_2,go,250.0,300.0,1.0,,,,,,,,,yellow,circle
0.0,8.0,4.0,1.0,5.0,0.0,0.0,1.0,1.0,phase_2,stop,250.0,300.0,4.0,,,,,,,,,cyan,flipped triangle
0.0,5.0,1.0,1.0,6.0,6.0,394.7078632190823,1.0,1.0,phase_2,stop,300.0,300.0,3.0,,,,,,,,,gray,diamond
0.0,1.0,1.0,0.0,6.0,6.0,691.086201928556,1.0,1.0,phase_2,go,300.0,250.0,1.0,,,,,,,,,magenta,square
0.0,8.0,4.0,1.0,5.0,5.0,564.7816462442279,1.0,1.0,phase_2,go,300.0,250.0,1.0,,,,,,,,,cyan,flipped triangle
0.0,6.0,2.0,1.0,5.0,5.0,712.3688790015876,1.0,1.0,phase_2,go,300.0,250.0,1.0,,,,,,,,,blue,I
0.0,8.0,4.0,1.0,5.0,0.0,0.0,1.0,1.0,phase_2,stop,300.0,250.0,4.0,,,,,,,,,cyan,flipped triangle
0.0,7.0,3.0,1.0,5.0,0.0,0.0,1.0,1.0,phase_2,stop,350.0,250.0,4.0,,,,,,,,,orange,hexagon
0.0,2.0,2.0,0.0,5.0,5.0,455.679995007813,1.0,1.0,phase_2,go,400.0,250.0,1.0,,,,,,,,,yellow,circle
0.0,5.0,1.0,1.0,6.0,0.0,0.0,1.0,1.0,phase_2,stop,400.0,250.0,4.0,,,,,,,,,gray,diamond
0.0,3.0,3.0,0.0,5.0,5.0,503.77715891227126,1.0,1.0,phase_2,go,400.0,300.0,1.0,,,,,,,,,white,triangle
0.0,2.0,2.0,0.0,6.0,6.0,627.833308186382,1.0,1.0,phase_2,go,400.0,300.0,1.0,,,,,,,,,yellow,circle
0.0,6.0,2.0,1.0,5.0,5.0,664.2819289118052,1.0,1.0,phase_2,go,400.0,300.0,1.0,,,,,,,,,blue,I
0.0,1.0,1.0,0.0,5.0,5.0,472.9550848715007,1.0,1.0,phase_2,go,400.0,300.0,1.0,,,,,,,,,magenta,square
0.0,5.0,1.0,1.0,5.0,5.0,393.1359718553722,1.0,1.0,phase_2,go,400.0,300.0,1.0,,,,,,,,,gray,diamond
0.0,7.0,3.0,1.0,6.0,6.0,406.3310232013464,1.0,1.0,phase_2,stop,400.0,300.0,3.0,,,,,,,,,orange,hexagon
0.0,8.0,4.0,1.0,5.0,5.0,372.8816900402307,2.0,1.0,phase_2,stop,400.0,250.0,3.0,,,,,,,,,cyan,flipped triangle
0.0,2.0,2.0,0.0,6.0,6.0,450.8897289633751,2.0,1.0,phase_2,go,350.0,250.0,1.0,,,,,,,,,yellow,circle
0.0,5.0,1.0,1.0,5.0,5.0,461.9487118907273,2.0,1.0,phase_2,stop,350.0,250.0,3.0,,,,,,,,,gray,diamond
0.0,4.0,4.0,0.0,5.0,5.0,676.341503392905,2.0,1.0,phase_2,go,300.0,250.0,1.0,,,,,,,,,green,cross
0.0,4.0,4.0,0.0,5.0,5.0,466.7420638725161,2.0,1.0,phase_2,go,300.0,250.0,1.0,,,,,,,,,green,cross
0.0,8.0,4.0,1.0,5.0,0.0,0.0,2.0,1.0,phase_2,stop,300.0,250.0,4.0,,,,,,,,,cyan,flipped triangle
0.0,3.0,3.0,0.0,5.0,5.0,555.1187959499657,2.0,1.0,phase_2,go,350.0,250.0,1.0,,,,,,,,,white,triangle
0.0,1.0,1.0,0.0,5.0,5.0,701.9481570459902,2.0,1.0,phase_2,go,350.0,250.0,1.0,,,,,,,,,magenta,square
0.0,7.0,3.0,1.0,5.0,0.0,0.0,2.0,1.0,phase_2,stop,350.0,250.0,4.0,,,,,,,,,orange,hexagon
0.0,1.0,1.0,0.0,5.0,5.0,435.4462893679738,2.0,1.0,phase_2,go,400.0,250.0,1.0,,,,,,,,,magenta,square
0.0,6.0,2.0,1.0,5.0,0.0,0.0,2.0,1.0,phase_2,stop,400.0,250.0,4.0,,,,,,,,,blue,I
0.0,1.0,1.0,0.0,6.0,6.0,607.6842080801725,2.0,1.0,phase_2,go,450.0,250.0,1.0,,,,,,,,,magenta,square
0.0,1.0,1.0,0.0,6.0,6.0,684.4938322901726,2.0,1.0,phase_2,go,450.0,250.0,1.0,,,,,,,,,magenta,square
0.0,7.0,3.0,1.0,6.0,0.0,0.0,2.0,1.0,phase_2,stop,450.0,250.0,4.0,,,,,,,,,orange,hexagon
0.0,4.0,4.0,0.0,6.0,6.0,597.006181254983,2.0,1.0,phase_2,go,450.0,300.0,1.0,,,,,,,,,green,cross
0.0,6.0,2.0,1.0,5.0,0.0,0.0,2.0,1.0,phase_2,stop,450.0,300.0,4.0,,,,,,,,,blue,I
0.0,7.0,3.0,1.0,6.0,0.0,0.0,2.0,1.0,phase_2,stop,500.0,300.0,4.0,,,,,,,,,orange,hexagon
0.0,4.0,4.0,0.0,5.0,5.0,497.2777501679957,2.0,1.0,phase_2,go,500.0,350.0,1.0,,,,,,,,,green,cross
0.0,2.0,2.0,0.0,5.0,5.0,646.9731037504971,2.0,1.0,phase_2,go,500.0,350.0,1.0,,,,,,,,,yellow,circle
0.0,7.0,3.0,1.0,5.0,5.0,614.347146358341,2.0,1.0,phase_2,stop,500.0,350.0,3.0,,,,,,,,,orange,hexagon
0.0,3.0,3.0,0.0,6.0,6.0,645.4867869615555,2.0,1.0,phase_2,go,450.0,350.0,1.0,,,,,,,,,white,triangle
0.0,5.0,1.0,1.0,6.0,6.0,803.8121238350868,2.0,1.0,phase_2,go,450.0,350.0,1.0,,,,,,,,,gray,diamond
0.0,6.0,2.0,1.0,6.0,6.0,527.0691402256489,2.0,1.0,phase_2,go,450.0,350.0,1.0,,,,,,,,,blue,I
0.0,3.0,3.0,0.0,5.0,5.0,670.6632138229907,2.0,1.0,phase_2,go,450.0,350.0,1.0,,,,,,,,,white,triangle
0.0,5.0,1.0,1.0,5.0,5.0,572.8992759250104,2.0,1.0,phase_2,stop,450.0,350.0,3.0,,,,,,,,,gray,diamond
0.0,7.0,3.0,1.0,6.0,6.0,460.5909478850662,2.0,1.0,phase_2,stop,400.0,350.0,3.0,,,,,,,,,orange,hexagon
0.0,5.0,1.0,1.0,5.0,0.0,0.0,2.0,1.0,phase_2,stop,400.0,300.0,4.0,,,,,,,,,gray,diamond
0.0,2.0,2.0,0.0,6.0,6.0,662.7819649875164,2.0,1.0,phase_2,go,450.0,300.0,1.0,,,,,,,,,yellow,circle
0.0,2.0,2.0,0.0,6.0,6.0,585.1588449440897,2.0,1.0,phase_2,go,450.0,300.0,1.0,,,,,,,,,yellow,circle
0.0,3.0,3.0,0.0,5.0,5.0,735.7171708717942,2.0,1.0,phase_2,go,450.0,300.0,1.0,,,,,,,,,white,triangle
0.0,7.0,3.0,1.0,5.0,0.0,0.0,2.0,1.0,phase_2,stop,450.0,300.0,4.0,,,,,,,,,orange,hexagon
0.0,1.0,1.0,0.0,6.0,6.0,734.0639526955783,2.0,1.0,phase_2,go,500.0,300.0,1.0,,,,,,,,,magenta,square
0.0,8.0,4.0,1.0,6.0,0.0,0.0,2.0,1.0,phase_2,stop,500.0,300.0,4.0,,,,,,,,,cyan,flipped triangle
0.0,6.0,2.0,1.0,6.0,0.0,0.0,2.0,1.0,phase_2,stop,500.0,350.0,4.0,,,,,,,,,blue,I
0.0,8.0,4.0,1.0,5.0,0.0,0.0,2.0,1.0,phase_2,stop,500.0,400.0,4.0,,,,,,,,,cyan,flipped triangle
0.0,3.0,3.0,0.0,6.0,6.0,714.5997220650315,2.0,1.0,phase_2,go,550.0,400.0,1.0,,,,,,,,,white,triangle
0.0,2.0,2.0,0.0,6.0,6.0,439.2230249941349,3.0,1.0,phase_2,go,550.0,400.0,1.0,,,,,,,,,yellow,circle
0.0,6.0,2.0,1.0,5.0,5.0,317.1588070690632,3.0,1.0,phase_2,stop,550.0,400.0,3.0,,,,,,,,,blue,I
0.0,3.0,3.0,0.0,6.0,6.0,442.5299260765314,3.0,1.0,phase_2,go,500.0,400.0,1.0,,,,,,,,,white,triangle
0.0,8.0,4.0,1.0,5.0,5.0,442.3923529684543,3.0,1.0,phase_2,stop,500.0,400.0,3.0,,,,,,,,,cyan,flipped triangle
0.0,7.0,3.0,1.0,6.0,6.0,431.5730412490666,3.0,1.0,phase_2,go,450.0,400.0,1.0,,,,,,,,,orange,hexagon
0.0,8.0,4.0,1.0,6.0,6.0,554.4159091077745,3.0,1.0,phase_2,stop,450.0,400.0,3.0,,,,,,,,,cyan,flipped triangle
0.0,2.0,2.0,0.0,5.0,5.0,345.3528280369937,3.0,1.0,phase_2,go,450.0,350.0,1.0,,,,,,,,,yellow,circle
0.0,3.0,3.0,0.0,5.0,5.0,309.6095900982618,3.0,1.0,phase_2,go,450.0,350.0,1.0,,,,,,,,,white,triangle
0.0,4.0,4.0,0.0,5.0,5.0,556.7917749285698,3.0,1.0,phase_2,go,450.0,350.0,1.0,,,,,,,,,green,cross
0.0,1.0,1.0,0.0,6.0,6.0,435.967450030148,3.0,1.0,phase_2,go,450.0,350.0,1.0,,,,,,,,,magenta,square
0.0,7.0,3.0,1.0,5.0,5.0,447.2741619683802,3.0,1.0,phase_2,stop,450.0,350.0,3.0,,,,,,,,,orange,hexagon
0.0,2.0,2.0,0.0,5.0,5.0,615.4853380285203,3.0,1.0,phase_2,go,400.0,350.0,1.0,,,,,,,,,yellow,circle
0.0,4.0,4.0,0.0,6.0,6.0,337.4253897927701,3.0,1.0,phase_2,go,400.0,350.0,1.0,,,,,,,,,green,cross
0.0,5.0,1.0,1.0,6.0,6.0,597.6997190155089,3.0,1.0,phase_2,go,400.0,350.0,1.0,,,,,,,,,gray,diamond
0.0,8.0,4.0,1.0,6.0,6.0,562.4655419960618,3.0,1.0,phase_2,go,400.0,350.0,1.0,,,,,,,,,cyan,flipped triangle
0.0,6.0,2.0,1.0,5.0,5.0,427.2787240333855,3.0,1.0,phase_2,stop,400.0,350.0,3.0,,,,,,,,,blue,I
0.0,8.0,4.0,1.0,5.0,5.0,383.2539310678839,3.0,1.0,phase_2,stop,350.0,350.0,3.0,,,,,,,,,cyan,flipped triangle
0.0,5.0,1.0,1.0,6.0,0.0,0.0,3.0,1.0,phase_2,stop,300.0,350.0,4.0,,,,,,,,,gray,diamond
0.0,4.0,4.0,0.0,6.0,6.0,398.2284418307245,3.0,1.0,phase_2,go,300.0,400.0,1.0,,,,,,,,,green,cross
0.0,7.0,3.0,1.0,6.0,0.0,0.0,3.0,1.0,phase_2,stop,300.0,400.0,4.0,,,,,,,,,orange,hexagon
0.0,6.0,2.0,1.0,5.0,5.0,457.6959572732448,3.0,1.0,phase_2,stop,300.0,450.0,3.0,,,,,,,,,blue,I
0.0,3.0,3.0,0.0,6.0,6.0,646.8708990141749,3.0,1.0,phase_2,go,250.0,450.0,1.0,,,,,,,,,white,triangle
0.0,6.0,2.0,1.0,5.0,5.0,616.4419483393431,3.0,1.0,phase_2,go,250.0,450.0,1.0,,,,,,,,,blue,I
0.0,4.0,4.0,0.0,6.0,6.0,335.4046968743205,3.0,1.0,phase_2,go,250.0,450.0,1.0,,,,,,,,,green,cross
0.0,4.0,4.0,0.0,5.0,5.0,570.1812109909952,3.0,1.0,phase_2,go,250.0,450.0,1.0,,,,,,,,,green,cross
0.0,7.0,3.0,1.0,5.0,0.0,0.0,3.0,1.0,phase_2,stop,250.0,450.0,4.0,,,,,,,,,orange,hexagon
0.0,4.0,4.0,0.0,5.0,5.0,598.4152918681502,3.0,1.0,phase_2,go,300.0,450.0,1.0,,,,,,,,,green,cross
0.0,2.0,2.0,0.0,5.0,5.0,493.7134180217981,3.0,1.0,phase_2,go,300.0,450.0,1.0,,,,,,,,,yellow,circle
0.0,8.0,4.0,1.0,5.0,5.0,539.4312827847898,3.0,1.0,phase_2,go,300.0,450.0,1.0,,,,,,,,,cyan,flipped triangle
0.0,5.0,1.0,1.0,6.0,6.0,574.4593748822808,3.0,1.0,phase_2,stop,300.0,450.0,3.0,,,,,,,,,gray,diamond
0.0,6.0,2.0,1.0,5.0,0.0,0.0,3.0,1.0,phase_2,stop,300.0,400.0,4.0,,,,,,,,,blue,I
0.0,3.0,3.0,0.0,6.0,6.0,511.03468192741275,3.0,1.0,phase_2,go,350.0,400.0,1.0,,,,,,,,,white,triangle
0.0,3.0,3.0,0.0,6.0,6.0,588.2823653519154,3.0,1.0,phase_2,go,350.0,400.0,1.0,,,,,,,,,white,triangle
0.0,5.0,1.0,1.0,6.0,6.0,378.4024999476969,3.0,1.0,phase_2,stop,350.0,400.0,3.0,,,,,,,,,gray,diamond
0.0,2.0,2.0,0.0,5.0,5.0,476.95038234815,3.0,1.0,phase_2,go,350.0,350.0,1.0,,,,,,,,,yellow,circle
0.0,1.0,1.0,0.0,6.0,6.0,560.303098987788,3.0,1.0,phase_2,go,350.0,350.0,1.0,,,,,,,,,magenta,square
0.0,4.0,4.0,0.0,6.0,6.0,375.1246072351932,4.0,1.0,phase_2,go,350.0,350.0,1.0,,,,,,,,,green,cross
0.0,5.0,1.0,1.0,6.0,6.0,323.0914128944278,4.0,1.0,phase_2,stop,350.0,350.0,3.0,,,,,,,,,gray,diamond
0.0,3.0,3.0,0.0,5.0,5.0,357.1226112544536,4.0,1.0,phase_2,go,350.0,300.0,1.0,,,,,,,,,white,triangle
0.0,6.0,2.0,1.0,6.0,6.0,546.0237781517208,4.0,1.0,phase_2,go,350.0,300.0,1.0,,,,,,,,,blue,I
0.0,7.0,3.0,1.0,6.0,6.0,327.0676862448454,4.0,1.0,phase_2,stop,350.0,300.0,3.0,,,,,,,,,orange,hexagon
0.0,8.0,4.0,1.0,6.0,6.0,337.6301806420088,4.0,1.0,phase_2,stop,350.0,250.0,3.0,,,,,,,,,cyan,flipped triangle
0.0,2.0,2.0,0.0,6.0,6.0,439.6737720817327,4.0,1.0,phase_2,go,350.0,200.0,1.0,,,,,,,,,yellow,circle
0.0,6.0,2.0,1.0,6.0,6.0,313.5055699385702,4.0,1.0,phase_2,stop,350.0,200.0,3.0,,,,,,,,,blue,I
0.0,7.0,3.0,1.0,6.0,0.0,0.0,4.0,1.0,phase_2,stop,350.0,150.0,4.0,,,,,,,,,orange,hexagon
0.0,6.0,2.0,1.0,6.0,0.0,0.0,4.0,1.0,phase_2,stop,350.0,200.0,4.0,,,,,,,,,blue,I
0.0,3.0,3.0,0.0,6.0,6.0,364.0148239210248,4.0,1.0,phase_2,go,350.0,250.0,1.0,,,,,,,,,white,triangle
0.0,6.0,2.0,1.0,6.0,0.0,0.0,4.0,1.0,phase_2,stop,350.0,250.0,4.0,,,,,,,,,blue,I
0.0,1.0,1.0,0.0,5.0,5.0,633.2389982417226,4.0,1.0,phase_2,go,350.0,300.0,1.0,,,,,,,,,magenta,square
0.0,1.0,1.0,0.0,6.0,6.0,445.109874010086,4.0,1.0,phase_2,go,350.0,300.0,1.0,,,,,,,,,magenta,square
0.0,6.0,2.0,1.0,6.0,0.0,0.0,4.0,1.0,phase_2,stop,350.0,300.0,4.0,,,,,,,,,blue,I
0.0,7.0,3.0,1.0,5.0,5.0,379.4606737792492,4.0,1.0,phase_2,stop,350.0,350.0,3.0,,,,,,,,,orange,hexagon
0.0,7.0,3.0,1.0,6.0,6.0,638.489929959178,4.0,1.0,phase_2,go,300.0,350.0,1.0,,,,,,,,,orange,hexagon
0.0,2.0,2.0,0.0,5.0,5.0,491.6146877221763,4.0,1.0,phase_2,go,300.0,350.0,1.0,,,,,,,,,yellow,circle
0.0,6.0,2.0,1.0,5.0,0.0,0.0,4.0,1.0,phase_2,stop,300.0,350.0,4.0,,,,,,,,,blue,I
0.0,7.0,3.0,1.0,6.0,6.0,469.57898279652,4.0,1.0,phase_2,go,350.0,350.0,1.0,,,,,,,,,orange,hexagon
0.0,5.0,1.0,1.0,6.0,0.0,0.0,4.0,1.0,phase_2,stop,350.0,350.0,4.0,,,,,,,,,gray,diamond
0.0,7.0,3.0,1.0,6.0,6.0,540.157298091799,4.0,1.0,phase_2,go,350.0,400.0,1.0,,,,,,,,,orange,hexagon
0.0,7.0,3.0,1.0,6.0,0.0,0.0,4.0,1.0,phase_2,stop,350.0,400.0,4.0,,,,,,,,,orange,hexagon
0.0,5.0,1.0,1.0,5.0,0.0,0.0,4.0,1.0,phase_2,stop,350.0,450.0,4.0,,,,,,,,,gray,diamond
0.0,4.0,4.0,0.0,5.0,5.0,563.8924674130976,4.0,1.0,phase_2,go,400.0,450.0,1.0,,,,,,,,,green,cross
0.0,4.0,4.0,0.0,6.0,6.0,655.8691598474979,4.0,1.0,phase_2,go,400.0,450.0,1.0,,,,,,,,,green,cross
0.0,1.0,1.0,0.0,5.0,5.0,668.1784521788359,4.0,1.0,phase_2,go,400.0,450.0,1.0,,,,,,,,,magenta,square
0.0,1.0,1.0,0.0,6.0,6.0,444.5455307140946,4.0,1.0,phase_2,go,400.0,450.0,1.0,,,,,,,,,magenta,square
0.0,5.0,1.0,1.0,5.0,0.0,0.0,4.0,1.0,phase_2,stop,400.0,450.0,4.0,,,,,,,,,gray,diamond
0.0,1.0,1.0,0.0,6.0,6.0,604.0819929912686,4.0,1.0,phase_2,go,450.0,450.0,1.0,,,,,,,,,magenta,square
0.0,1.0,1.0,0.0,6.0,6.0,640.4030658304691,4.0,1.0,phase_2,go,450.0,450.0,1.0,,,,,,,,,magenta,square
0.0,4.0,4.0,0.0,6.0,6.0,607.8095529228449,4.0,1.0,phase_2,go,450.0,450.0,1.0,,,,,,,,,green,cross
0.0,2.0,2.0,0.0,6.0,6.0,662.1770421043038,4.0,1.0,phase_2,go,450.0,450.0,1.0,,,,,,,,,yellow,circle
0.0,2.0,2.0,0.0,6.0,6.0,674.168610945344,4.0,1.0,phase_2,go,450.0,450.0,1.0,,,,,,,,,yellow,circle
0.0,2.0,2.0,0.0,5.0,5.0,464.1158250160515,4.0,1.0,phase_2,go,450.0,450.0,1.0,,,,,,,,,yellow,circle
0.0,5.0,1.0,1.0,5.0,5.0,449.6690589003265,4.0,1.0,phase_2,go,450.0,450.0,1.0,,,,,,,,,gray,diamond
0.0,8.0,4.0,1.0,5.0,5.0,377.0617893896997,5.0,1.0,phase_2,stop,450.0,450.0,3.0,,,,,,,,,cyan,flipped triangle
0.0,1.0,1.0,0.0,6.0,6.0,342.6540321670472,5.0,1.0,phase_2,go,400.0,450.0,1.0,,,,,,,,,magenta,square
0.0,4.0,4.0,0.0,6.0,6.0,307.6353399083018,5.0,1.0,phase_2,go,400.0,450.0,1.0,,,,,,,,,green,cross
0.0,2.0,2.0,0.0,5.0,5.0,323.4749510884285,5.0,1.0,phase_2,go,400.0,450.0,1.0,,,,,,,,,yellow,circle
0.0,7.0,3.0,1.0,5.0,5.0,311.5587709471583,5.0,1.0,phase_2,stop,400.0,450.0,3.0,,,,,,,,,orange,hexagon
0.0,4.0,4.0,0.0,6.0,6.0,309.6052440814674,5.0,1.0,phase_2,go,350.0,450.0,1.0,,,,,,,,,green,cross
0.0,1.0,1.0,0.0,5.0,5.0,459.8501957952976,5.0,1.0,phase_2,go,350.0,450.0,1.0,,,,,,,,,magenta,square
0.0,6.0,2.0,1.0,6.0,6.0,277.4179610423744,5.0,1.0,phase_2,stop,350.0,450.0,3.0,,,,,,,,,blue,I
0.0,3.0,3.0,0.0,5.0,5.0,428.2390670850873,5.0,1.0,phase_2,go,350.0,400.0,1.0,,,,,,,,,white,triangle
0.0,8.0,4.0,1.0,5.0,5.0,507.34713207930326,5.0,1.0,phase_2,go,350.0,400.0,1.0,,,,,,,,,cyan,flipped triangle
0.0,7.0,3.0,1.0,6.0,6.0,494.5135386660695,5.0,1.0,phase_2,stop,350.0,400.0,3.0,,,,,,,,,orange,hexagon
0.0,1.0,1.0,0.0,6.0,6.0,574.0022300742567,5.0,1.0,phase_2,go,350.0,350.0,1.0,,,,,,,,,magenta,square
0.0,8.0,4.0,1.0,6.0,6.0,451.1154871433973,5.0,1.0,phase_2,go,350.0,350.0,1.0,,,,,,,,,cyan,flipped triangle
0.0,4.0,4.0,0.0,5.0,5.0,620.9562448784709,5.0,1.0,phase_2,go,350.0,350.0,1.0,,,,,,,,,green,cross
0.0,2.0,2.0,0.0,5.0,5.0,523.0551161803305,5.0,1.0,phase_2,go,350.0,350.0,1.0,,,,,,,,,yellow,circle
0.0,1.0,1.0,0.0,5.0,5.0,330.7832791469991,5.0,1.0,phase_2,go,350.0,350.0,1.0,,,,,,,,,magenta,square
0.0,5.0,1.0,1.0,6.0,6.0,454.2522919364273,5.0,1.0,phase_2,stop,350.0,350.0,3.0,,,,,,,,,gray,diamond
0.0,4.0,4.0,0.0,6.0,6.0,333.7072902359068,5.0,1.0,phase_2,go,350.0,300.0,1.0,,,,,,,,,green,cross
0.0,4.0,4.0,0.0,5.0,5.0,458.294540643692,5.0,1.0,phase_2,go,350.0,300.0,1.0,,,,,,,,,green,cross
0.0,6.0,2.0,1.0,6.0,6.0,334.8048157058656,5.0,1.0,phase_2,stop,350.0,300.0,3.0,,,,,,,,,blue,I
0.0,8.0,4.0,1.0,6.0,0.0,0.0,5.0,1.0,phase_2,stop,350.0,250.0,4.0,,,,,,,,,cyan,flipped triangle
0.0,4.0,4.0,0.0,6.0,6.0,492.8133450448513,5.0,1.0,phase_2,go,350.0,300.0,1.0,,,,,,,,,green,cross
0.0,6.0,2.0,1.0,6.0,6.0,504.93709510192275,5.0,1.0,phase_2,go,350.0,300.0,1.0,,,,,,,,,blue,I
0.0,5.0,1.0,1.0,6.0,0.0,0.0,5.0,1.0,phase_2,stop,350.0,300.0,4.0,,,,,,,,,gray,diamond
0.0,8.0,4.0,1.0,6.0,6.0,518.9583338797092,5.0,1.0,phase_2,stop,350.0,350.0,3.0,,,,,,,,,cyan,flipped triangle
0.0,3.0,3.0,0.0,6.0,6.0,609.5366911031306,5.0,1.0,phase_2,go,350.0,300.0,1.0,,,,,,,,,white,triangle
0.0,5.0,1.0,1.0,6.0,0.0,0.0,5.0,1.0,phase_2,stop,350.0,300.0,4.0,,,,,,,,,gray,diamond
0.0,3.0,3.0,0.0,5.0,5.0,364.6466778591275,5.0,1.0,phase_2,go,350.0,350.0,1.0,,,,,,,,,white,triangle
0.0,7.0,3.0,1.0,5.0,5.0,434.2874861322343,5.0,1.0,phase_2,go,350.0,350.0,1.0,,,,,,,,,orange,hexagon
0.0,3.0,3.0,0.0,5.0,5.0,509.9248751066625,5.0,1.0,phase_2,go,350.0,350.0,1.0,,,,,,,,,white,triangle
0.0,7.0,3.0,1.0,5.0,5.0,345.0894327834248,5.0,1.0,phase_2,stop,350.0,350.0,3.0,,,,,,,,,orange,hexagon
0.0,5.0,1.0,1.0,6.0,0.0,0.0,5.0,1.0,phase_2,stop,300.0,350.0,4.0,,,,,,,,,gray,diamond
0.0,2.0,2.0,0.0,6.0,6.0,434.4654977321625,5.0,1.0,phase_2,go,300.0,400.0,1.0,,,,,,,,,yellow,circle
0.0,1.0,1.0,0.0,6.0,6.0,560.3440972045064,5.0,1.0,phase_2,go,300.0,400.0,1.0,,,,,,,,,magenta,square
0.0,4.0,4.0,0.0,5.0,5.0,482.2335233911872,5.0,1.0,phase_2,go,300.0,400.0,1.0,,,,,,,,,green,cross
0.0,2.0,2.0,0.0,5.0,5.0,506.33502192795277,5.0,1.0,phase_2,go,300.0,400.0,1.0,,,,,,,,,yellow,circle
0.0,1.0,1.0,0.0,5.0,5.0,368.6568420380354,6.0,1.0,phase_2,go,300.0,400.0,1.0,,,,,,,,,magenta,square
0.0,3.0,3.0,0.0,5.0,5.0,583.7114187888801,6.0,1.0,phase_2,go,300.0,400.0,1.0,,,,,,,,,white,triangle
0.0,5.0,1.0,1.0,5.0,5.0,312.7433420158922,6.0,1.0,phase_2,go,300.0,400.0,1.0,,,,,,,,,gray,diamond
0.0,6.0,2.0,1.0,6.0,6.0,541.2670057266951,6.0,1.0,phase_2,stop,300.0,400.0,3.0,,,,,,,,,blue,I
0.0,3.0,3.0,0.0,5.0,5.0,316.121585201472,6.0,1.0,phase_2,go,300.0,350.0,1.0,,,,,,,,,white,triangle
0.0,7.0,3.0,1.0,5.0,5.0,372.8518518619239,6.0,1.0,phase_2,stop,300.0,350.0,3.0,,,,,,,,,orange,hexagon
0.0,4.0,4.0,0.0,6.0,6.0,678.4229092299938,6.0,1.0,phase_2,go,250.0,350.0,1.0,,,,,,,,,green,cross
0.0,3.0,3.0,0.0,6.0,6.0,553.5367587581277,6.0,1.0,phase_2,go,250.0,350.0,1.0,,,,,,,,,white,triangle
0.0,2.0,2.0,0.0,6.0,6.0,545.0215069577098,6.0,1.0,phase_2,go,250.0,350.0,1.0,,,,,,,,,yellow,circle
0.0,3.0,3.0,0.0,5.0,5.0,467.7183288149535,6.0,1.0,phase_2,go,250.0,350.0,1.0,,,,,,,,,white,triangle
0.0,5.0,1.0,1.0,5.0,0.0,0.0,6.0,1.0,phase_2,stop,250.0,350.0,4.0,,,,,,,,,gray,diamond
0.0,1.0,1.0,0.0,5.0,5.0,368.7489330768585,6.0,1.0,phase_2,go,300.0,350.0,1.0,,,,,,,,,magenta,square
0.0,3.0,3.0,0.0,6.0,6.0,335.9585301950574,6.0,1.0,phase_2,go,300.0,350.0,1.0,,,,,,,,,white,triangle
0.0,7.0,3.0,1.0,5.0,5.0,411.4844352006912,6.0,1.0,phase_2,stop,300.0,350.0,3.0,,,,,,,,,orange,hexagon
0.0,5.0,1.0,1.0,5.0,5.0,458.3668350242078,6.0,1.0,phase_2,go,250.0,350.0,1.0,,,,,,,,,gray,diamond
0.0,4.0,4.0,0.0,6.0,6.0,338.2528559304774,6.0,1.0,phase_2,go,250.0,350.0,1.0,,,,,,,,,green,cross
0.0,4.0,4.0,0.0,5.0,5.0,416.7667860165238,6.0,1.0,phase_2,go,250.0,350.0,1.0,,,,,,,,,green,cross
0.0,7.0,3.0,1.0,5.0,5.0,473.1080471538007,6.0,1.0,phase_2,go,250.0,350.0,1.0,,,,,,,,,orange,hexagon
0.0,7.0,3.0,1.0,6.0,6.0,406.309163197875,6.0,1.0,phase_2,stop,250.0,350.0,3.0,,,,,,,,,orange,hexagon
0.0,4.0,4.0,0.0,5.0,5.0,371.5624748729169,6.0,1.0,phase_2,go,250.0,300.0,1.0,,,,,,,,,green,cross
0.0,6.0,2.0,1.0,6.0,0.0,0.0,6.0,1.0,phase_2,stop,250.0,300.0,4.0,,,,,,,,,blue,I
0.0,7.0,3.0,1.0,6.0,6.0,554.3345436453819,6.0,1.0,phase_2,go,250.0,350.0,1.0,,,,,,,,,orange,hexagon
0.0,3.0,3.0,0.0,5.0,5.0,318.4977532364428,6.0,1.0,phase_2,go,250.0,350.0,1.0,,,,,,,,,white,triangle
0.0,6.0,2.0,1.0,6.0,0.0,0.0,6.0,1.0,phase_2,stop,250.0,350.0,4.0,,,,,,,,,blue,I
0.0,7.0,3.0,1.0,6.0,6.0,501.6787718050182,6.0,1.0,phase_2,go,250.0,400.0,1.0,,,,,,,,,orange,hexagon
0.0,6.0,2.0,1.0,5.0,0.0,0.0,6.0,1.0,phase_2,stop,250.0,400.0,4.0,,,,,,,,,blue,I
0.0,6.0,2.0,1.0,5.0,5.0,593.6889639124274,6.0,1.0,phase_2,go,300.0,400.0,1.0,,,,,,,,,blue,I
0.0,4.0,4.0,0.0,5.0,5.0,560.3572246618569,6.0,1.0,phase_2,go,300.0,400.0,1.0,,,,,,,,,green,cross
0.0,1.0,1.0,0.0,5.0,5.0,378.6309389397502,6.0,1.0,phase_2,go,300.0,400.0,1.0,,,,,,,,,magenta,square
0.0,2.0,2.0,0.0,6.0,6.0,436.2151119858026,6.0,1.0,phase_2,go,300.0,400.0,1.0,,,,,,,,,yellow,circle
0.0,4.0,4.0,0.0,6.0,6.0,360.8198189176619,6.0,1.0,phase_2,go,300.0,400.0,1.0,,,,,,,,,green,cross
0.0,1.0,1.0,0.0,5.0,5.0,316.8979003094136,6.0,1.0,phase_2,go,300.0,400.0,1.0,,,,,,,,,magenta,square
0.0,7.0,3.0,1.0,6.0,6.0,352.1902463398874,6.0,1.0,phase_2,go,300.0,400.0,1.0,,,,,,,,,orange,hexagon
0.0,8.0,4.0,1.0,5.0,5.0,419.4276928901672,6.0,1.0,phase_2,stop,300.0,400.0,3.0,,,,,,,,,cyan,flipped triangle
0.0,8.0,4.0,1.0,6.0,6.0,498.691797722131,6.0,1.0,phase_2,stop,250.0,400.0,3.0,,,,,,,,,cyan,flipped triangle
0.0,5.0,1.0,1.0,6.0,0.0,0.0,6.0,1.0,phase_2,stop,250.0,350.0,4.0,,,,,,,,,gray,diamond
0.0,3.0,3.0,0.0,5.0,5.0,363.9127728529274,7.0,1.0,phase_2,go,250.0,400.0,1.0,,,,,,,,,white,triangle
0.0,5.0,1.0,1.0,5.0,5.0,377.8433580882847,7.0,1.0,phase_2,go,250.0,400.0,1.0,,,,,,,,,gray,diamond
0.0,2.0,2.0,0.0,6.0,6.0,332.3141457512975,7.0,1.0,phase_2,go,250.0,400.0,1.0,,,,,,,,,yellow,circle
0.0,2.0,2.0,0.0,6.0,6.0,412.7652351744473,7.0,1.0,phase_2,go,250.0,400.0,1.0,,,,,,,,,yellow,circle
0.0,8.0,4.0,1.0,5.0,5.0,404.1741238906979,7.0,1.0,phase_2,stop,250.0,400.0,3.0,,,,,,,,,cyan,flipped triangle
0.0,7.0,3.0,1.0,6.0,6.0,459.3373262323439,7.0,1.0,phase_2,stop,200.0,400.0,3.0,,,,,,,,,orange,hexagon
0.0,2.0,2.0,0.0,5.0,5.0,607.061826158315,7.0,1.0,phase_2,go,200.0,350.0,1.0,,,,,,,,,yellow,circle
0.0,6.0,2.0,1.0,5.0,5.0,733.0943192355335,7.0,1.0,phase_2,go,200.0,350.0,1.0,,,,,,,,,blue,I
0.0,8.0,4.0,1.0,6.0,6.0,564.8524570278823,7.0,1.0,phase_2,go,200.0,350.0,1.0,,,,,,,,,cyan,flipped triangle
0.0,5.0,1.0,1.0,5.0,0.0,0.0,7.0,1.0,phase_2,stop,200.0,350.0,4.0,,,,,,,,,gray,diamond
0.0,5.0,1.0,1.0,5.0,0.0,0.0,7.0,1.0,phase_2,stop,250.0,350.0,4.0,,,,,,,,,gray,diamond
0.0,4.0,4.0,0.0,5.0,5.0,409.6422852016985,7.0,1.0,phase_2,go,300.0,350.0,1.0,,,,,,,,,green,cross
0.0,6.0,2.0,1.0,6.0,0.0,0.0,7.0,1.0,phase_2,stop,300.0,350.0,4.0,,,,,,,,,blue,I
0.0,2.0,2.0,0.0,6.0,6.0,611.4958547987044,7.0,1.0,phase_2,go,300.0,400.0,1.0,,,,,,,,,yellow,circle
0.0,4.0,4.0,0.0,5.0,5.0,648.0117156170309,7.0,1.0,phase_2,go,300.0,400.0,1.0,,,,,,,,,green,cross
0.0,7.0,3.0,1.0,5.0,0.0,0.0,7.0,1.0,phase_2,stop,300.0,400.0,4.0,,,,,,,,,orange,hexagon
0.0,2.0,2.0,0.0,6.0,6.0,583.3572167903185,7.0,1.0,phase_2,go,350.0,400.0,1.0,,,,,,,,,yellow,circle
0.0,6.0,2.0,1.0,6.0,0.0,0.0,7.0,1.0,phase_2,stop,350.0,400.0,4.0,,,,,,,,,blue,I
0.0,1.0,1.0,0.0,5.0,5.0,617.1072493307292,7.0,1.0,phase_2,go,350.0,450.0,1.0,,,,,,,,,magenta,square
0.0,6.0,2.0,1.0,6.0,0.0,0.0,7.0,1.0,phase_2,stop,350.0,450.0,4.0,,,,,,,,,blue,I
0.0,8.0,4.0,1.0,5.0,0.0,0.0,7.0,1.0,phase_2,stop,350.0,500.0,4.0,,,,,,,,,cyan,flipped triangle
0.0,1.0,1.0,0.0,6.0,6.0,586.4682560786605,7.0,1.0,phase_2,go,400.0,500.0,1.0,,,,,,,,,magenta,square
0.0,8.0,4.0,1.0,6.0,6.0,554.4338491745293,7.0,1.0,phase_2,go,400.0,500.0,1.0,,,,,,,,,cyan,flipped triangle
0.0,3.0,3.0,0.0,5.0,5.0,518.0297973565757,7.0,1.0,phase_2,go,400.0,500.0,1.0,,,,,,,,,white,triangle
0.0,5.0,1.0,1.0,5.0,5.0,486.2923622131347,7.0,1.0,phase_2,stop,400.0,500.0,3.0,,,,,,,,,gray,diamond
0.0,2.0,2.0,0.0,5.0,5.0,568.476886022836,7.0,1.0,phase_2,go,350.0,500.0,1.0,,,,,,,,,yellow,circle
0.0,5.0,1.0,1.0,5.0,0.0,0.0,7.0,1.0,phase_2,stop,350.0,500.0,4.0,,,,,,,,,gray,diamond
0.0,5.0,1.0,1.0,6.0,6.0,516.9790829531848,7.0,1.0,phase_2,stop,400.0,500.0,3.0,,,,,,,,,gray,diamond
0.0,1.0,1.0,0.0,5.0,5.0,783.0723281949759,7.0,1.0,phase_2,go,400.0,450.0,1.0,,,,,,,,,magenta,square
0.0,8.0,4.0,1.0,6.0,0.0,0.0,7.0,1.0,phase_2,stop,400.0,450.0,4.0,,,,,,,,,cyan,flipped triangle
0.0,5.0,1.0,1.0,6.0,6.0,739.4180768169463,7.0,1.0,phase_2,go,400.0,500.0,1.0,,,,,,,,,gray,diamond
0.0,6.0,2.0,1.0,5.0,0.0,0.0,7.0,1.0,phase_2,stop,400.0,500.0,4.0,,,,,,,,,blue,I
0.0,6.0,2.0,1.0,6.0,6.0,539.693720638752,7.0,1.0,phase_2,stop,450.0,500.0,3.0,,,,,,,,,blue,I
0.0,2.0,2.0,0.0,5.0,5.0,774.6370830573142,7.0,1.0,phase_2,go,450.0,450.0,1.0,,,,,,,,,yellow,circle
0.0,2.0,2.0,0.0,5.0,5.0,463.3176419883966,7.0,1.0,phase_2,go,450.0,450.0,1.0,,,,,,,,,yellow,circle
0.0,6.0,2.0,1.0,5.0,5.0,584.9336232058704,7.0,1.0,phase_2,stop,450.0,450.0,3.0,,,,,,,,,blue,I
0.0,8.0,4.0,1.0,6.0,6.0,521.9226283952594,8.0,1.0,phase_2,go,400.0,450.0,1.0,,,,,,,,,cyan,flipped triangle
0.0,8.0,4.0,1.0,6.0,6.0,342.7464761771261,8.0,1.0,phase_2,stop,400.0,450.0,3.0,,,,,,,,,cyan,flipped triangle
0.0,5.0,1.0,1.0,5.0,5.0,286.1285861581564,8.0,1.0,phase_2,stop,400.0,400.0,3.0,,,,,,,,,gray,diamond
0.0,8.0,4.0,1.0,6.0,6.0,535.1701197214425,8.0,1.0,phase_2,stop,350.0,400.0,3.0,,,,,,,,,cyan,flipped triangle
0.0,5.0,1.0,1.0,6.0,6.0,726.0753978043795,8.0,1.0,phase_2,go,350.0,350.0,1.0,,,,,,,,,gray,diamond
0.0,1.0,1.0,0.0,6.0,6.0,471.6613171622157,8.0,1.0,phase_2,go,350.0,350.0,1.0,,,,,,,,,magenta,square
0.0,1.0,1.0,0.0,6.0,6.0,369.0280970185995,8.0,1.0,phase_2,go,350.0,350.0,1.0,,,,,,,,,magenta,square
0.0,8.0,4.0,1.0,6.0,0.0,0.0,8.0,1.0,phase_2,stop,350.0,350.0,4.0,,,,,,,,,cyan,flipped triangle
0.0,7.0,3.0,1.0,5.0,5.0,528.0423979274929,8.0,1.0,phase_2,stop,350.0,400.0,3.0,,,,,,,,,orange,hexagon
0.0,3.0,3.0,0.0,6.0,6.0,678.0179091729224,8.0,1.0,phase_2,go,300.0,400.0,1.0,,,,,,,,,white,triangle
0.0,3.0,3.0,0.0,6.0,6.0,767.6118332892656,8.0,1.0,phase_2,go,300.0,400.0,1.0,,,,,,,,,white,triangle
0.0,8.0,4.0,1.0,5.0,0.0,0.0,8.0,1.0,phase_2,stop,300.0,400.0,4.0,,,,,,,,,cyan,flipped triangle
0.0,1.0,1.0,0.0,5.0,5.0,613.4389941580594,8.0,1.0,phase_2,go,350.0,400.0,1.0,,,,,,,,,magenta,square
0.0,1.0,1.0,0.0,6.0,6.0,534.2778512276709,8.0,1.0,phase_2,go,350.0,400.0,1.0,,,,,,,,,magenta,square
0.0,1.0,1.0,0.0,5.0,5.0,476.7210739664733,8.0,1.0,phase_2,go,350.0,400.0,1.0,,,,,,,,,magenta,square
0.0,3.0,3.0,0.0,5.0,5.0,514.5979998633265,8.0,1.0,phase_2,go,350.0,400.0,1.0,,,,,,,,,white,triangle
0.0,8.0,4.0,1.0,5.0,5.0,372.9578629136085,8.0,1.0,phase_2,stop,350.0,400.0,3.0,,,,,,,,,cyan,flipped triangle
0.0,1.0,1.0,0.0,5.0,5.0,547.263290733099,8.0,1.0,phase_2,go,300.0,400.0,1.0,,,,,,,,,magenta,square
0.0,4.0,4.0,0.0,6.0,6.0,526.8361358903348,8.0,1.0,phase_2,go,300.0,400.0,1.0,,,,,,,,,green,cross
0.0,4.0,4.0,0.0,5.0,5.0,536.9760440662503,8.0,1.0,phase_2,go,300.0,400.0,1.0,,,,,,,,,green,cross
0.0,8.0,4.0,1.0,6.0,0.0,0.0,8.0,1.0,phase_2,stop,300.0,400.0,4.0,,,,,,,,,cyan,flipped triangle
0.0,1.0,1.0,0.0,6.0,6.0,572.9893040843308,8.0,1.0,phase_2,go,300.0,450.0,1.0,,,,,,,,,magenta,square
0.0,2.0,2.0,0.0,6.0,6.0,631.7497468553483,8.0,1.0,phase_2,go,300.0,450.0,1.0,,,,,,,,,yellow,circle
0.0,8.0,4.0,1.0,5.0,0.0,0.0,8.0,1.0,phase_2,stop,300.0,450.0,4.0,,,,,,,,,cyan,flipped triangle
0.0,4.0,4.0,0.0,5.0,5.0,619.8353888466954,8.0,1.0,phase_2,go,350.0,450.0,1.0,,,,,,,,,green,cross
0.0,8.0,4.0,1.0,6.0,0.0,0.0,8.0,1.0,phase_2,stop,350.0,450.0,4.0,,,,,,,,,cyan,flipped triangle
0.0,4.0,4.0,0.0,6.0,6.0,521.8920316547155,8.0,1.0,phase_2,go,350.0,500.0,1.0,,,,,,,,,green,cross
0.0,7.0,3.0,1.0,5.0,0.0,0.0,8.0,1.0,phase_2,stop,350.0,500.0,4.0,,,,,,,,,orange,hexagon
0.0,6.0,2.0,1.0,5.0,0.0,0.0,8.0,1.0,phase_2,stop,400.0,500.0,4.0,,,,,,,,,blue,I
0.0,6.0,2.0,1.0,5.0,5.0,558.5186551325023,8.0,1.0,phase_2,go,450.0,500.0,1.0,,,,,,,,,blue,I
0.0,5.0,1.0,1.0,5.0,5.0,548.7877507694066,8.0,1.0,phase_2,stop,450.0,500.0,3.0,,,,,,,,,gray,diamond
0.0,1.0,1.0,0.0,5.0,5.0,648.1274999678135,8.0,1.0,phase_2,go,400.0,500.0,1.0,,,,,,,,,magenta,square
0.0,2.0,2.0,0.0,5.0,5.0,696.4864023029804,8.0,1.0,phase_2,go,400.0,500.0,1.0,,,,,,,,,yellow,circle
0.0,4.0,4.0,0.0,5.0,5.0,706.447774078697,8.0,1.0,phase_2,go,400.0,500.0,1.0,,,,,,,,,green,cross
0.0,3.0,3.0,0.0,6.0,6.0,686.247019097209,8.0,1.0,phase_2,go,400.0,500.0,1.0,,,,,,,,,white,triangle
0.0,2.0,2.0,0.0,5.0,5.0,629.5799459330738,8.0,1.0,phase_2,go,400.0,500.0,1.0,,,,,,,,,yellow,circle
0.0,2.0,2.0,0.0,7.0,3.0,1544.418737757951,1.0,2.0,phase_3,,,,,162.0,3.0,216.0,270.0,162.0,108.0,54.0,324.0,yellow,circle
0.0,8.0,4.0,1.0,7.0,4.0,2331.6806638613343,1.0,1.0,phase_3,,,,,216.0,4.0,54.0,324.0,270.0,216.0,108.0,162.0,cyan,flipped triangle
0.0,5.0,1.0,1.0,7.0,1.0,3301.128061022609,1.0,1.0,phase_3,,,,,98.0,2.0,98.0,196.0,294.0,147.0,49.0,245.0,gray,diamond
0.0,8.0,4.0,1.0,7.0,6.0,3594.2229642532766,1.0,1.0,phase_3,,,,,234.0,6.0,117.0,39.0,78.0,156.0,195.0,234.0,cyan,flipped triangle
0.0,3.0,3.0,0.0,7.0,6.0,1910.3485010564327,1.0,1.0,phase_3,,,,,78.0,2.0,39.0,234.0,195.0,117.0,156.0,78.0,white,triangle
0.0,8.0,4.0,1.0,7.0,1.0,3959.995443932712,1.0,1.0,phase_3,,,,,264.0,6.0,264.0,132.0,88.0,176.0,220.0,44.0,cyan,flipped triangle
0.0,7.0,3.0,1.0,7.0,1.0,3199.779217131436,1.0,1.0,phase_3,,,,,98.0,2.0,98.0,147.0,245.0,49.0,196.0,294.0,orange,hexagon
0.0,5.0,1.0,1.0,7.0,2.0,3381.9893426261838,1.0,1.0,phase_3,,,,,196.0,4.0,245.0,196.0,98.0,147.0,294.0,49.0,gray,diamond
0.0,4.0,4.0,0.0,7.0,4.0,4565.503659658134,1.0,1.0,phase_3,,,,,270.0,5.0,108.0,216.0,54.0,270.0,162.0,324.0,green,cross
0.0,2.0,2.0,0.0,7.0,2.0,4488.647382240742,1.0,1.0,phase_3,,,,,245.0,5.0,49.0,245.0,294.0,196.0,147.0,98.0,yellow,circle
0.0,6.0,2.0,1.0,7.0,3.0,2138.853780925274,1.0,1.0,phase_3,,,,,102.0,3.0,170.0,204.0,102.0,34.0,68.0,136.0,blue,I
0.0,7.0,3.0,1.0,7.0,4.0,3037.0543031021957,1.0,1.0,phase_3,,,,,108.0,2.0,324.0,216.0,54.0,108.0,162.0,270.0,orange,hexagon
0.0,3.0,3.0,0.0,7.0,3.0,1522.3135617561638,1.0,1.0,phase_3,,,,,132.0,3.0,220.0,176.0,132.0,88.0,44.0,264.0,white,triangle
0.0,1.0,1.0,0.0,7.0,2.0,3771.670374087989,1.0,1.0,phase_3,,,,,245.0,5.0,294.0,245.0,147.0,196.0,49.0,98.0,magenta,square
0.0,6.0,2.0,1.0,7.0,4.0,1795.163164846599,1.0,1.0,phase_3,,,,,108.0,2.0,162.0,216.0,54.0,108.0,270.0,324.0,blue,I
0.0,5.0,1.0,1.0,7.0,2.0,2433.348132763058,1.0,1.0,phase_3,,,,,108.0,2.0,162.0,108.0,270.0,324.0,54.0,216.0,gray,diamond
0.0,3.0,3.0,0.0,7.0,1.0,3169.633607845753,1.0,1.0,phase_3,,,,,147.0,3.0,147.0,196.0,98.0,245.0,294.0,49.0,white,triangle
0.0,5.0,1.0,1.0,7.0,3.0,3317.5368579104543,1.0,1.0,phase_3,,,,,216.0,4.0,162.0,270.0,216.0,108.0,54.0,324.0,gray,diamond
0.0,4.0,4.0,0.0,7.0,4.0,3700.519683305174,1.0,1.0,phase_3,,,,,294.0,6.0,196.0,245.0,49.0,294.0,147.0,98.0,green,cross
0.0,6.0,2.0,1.0,7.0,4.0,3116.27498222515,1.0,1.0,phase_3,,,,,147.0,3.0,196.0,49.0,98.0,147.0,294.0,245.0,blue,I
0.0,7.0,3.0,1.0,7.0,2.0,2083.8877628557384,2.0,1.0,phase_3,,,,,117.0,3.0,234.0,117.0,78.0,39.0,195.0,156.0,orange,hexagon
0.0,8.0,4.0,1.0,7.0,6.0,2783.5236112587154,2.0,1.0,phase_3,,,,,245.0,5.0,294.0,49.0,196.0,98.0,147.0,245.0,cyan,flipped triangle
0.0,1.0,1.0,0.0,7.0,2.0,2673.86786499992,2.0,1.0,phase_3,,,,,270.0,5.0,216.0,270.0,54.0,162.0,324.0,108.0,magenta,square
0.0,1.0,1.0,0.0,7.0,6.0,4225.192578975111,2.0,1.0,phase_3,,,,,264.0,6.0,88.0,176.0,44.0,220.0,132.0,264.0,magenta,square
0.0,2.0,2.0,0.0,7.0,5.0,2011.214426252991,2.0,1.0,phase_3,,,,,294.0,6.0,98.0,49.0,147.0,196.0,294.0,245.0,yellow,circle
0.0,1.0,1.0,0.0,7.0,6.0,2056.5380239859223,2.0,1.0,phase_3,,,,,245.0,5.0,49.0,196.0,147.0,98.0,294.0,245.0,magenta,square
0.0,5.0,1.0,1.0,7.0,3.0,2156.5381959080696,2.0,1.0,phase_3,,,,,78.0,2.0,117.0,39.0,78.0,234.0,156.0,195.0,gray,diamond
0.0,4.0,4.0,0.0,7.0,2.0,3508.495733141899,2.0,1.0,phase_3,,,,,234.0,6.0,78.0,234.0,117.0,195.0,39.0,156.0,green,cross
0.0,5.0,1.0,1.0,7.0,3.0,3734.106914140284,2.0,1.0,phase_3,,,,,176.0,4.0,44.0,220.0,176.0,264.0,88.0,132.0,gray,diamond
0.0,2.0,2.0,0.0,7.0,2.0,2946.7139868065715,2.0,1.0,phase_3,,,,,156.0,4.0,78.0,156.0,39.0,117.0,234.0,195.0,yellow,circle
0.0,3.0,3.0,0.0,7.0,4.0,3175.2575640566647,2.0,1.0,phase_3,,,,,117.0,3.0,39.0,195.0,234.0,117.0,78.0,156.0,white,triangle
0.0,4.0,4.0,0.0,7.0,3.0,3668.429012876004,2.0,1.0,phase_3,,,,,156.0,4.0,234.0,78.0,156.0,195.0,39.0,117.0,green,cross
0.0,7.0,3.0,1.0,7.0,3.0,1355.4265657439828,2.0,1.0,phase_3,,,,,102.0,3.0,170.0,136.0,102.0,68.0,204.0,34.0,orange,hexagon
0.0,4.0,4.0,0.0,7.0,4.0,2961.885584052652,2.0,1.0,phase_3,,,,,216.0,4.0,54.0,162.0,270.0,216.0,108.0,324.0,green,cross
0.0,7.0,3.0,1.0,7.0,4.0,3076.4625491574407,2.0,1.0,phase_3,,,,,98.0,2.0,294.0,245.0,49.0,98.0,196.0,147.0,orange,hexagon
0.0,2.0,2.0,0.0,7.0,4.0,2000.939231365919,2.0,1.0,phase_3,,,,,270.0,5.0,162.0,108.0,216.0,270.0,54.0,324.0,yellow,circle
0.0,7.0,3.0,1.0,7.0,3.0,2473.4789901413023,2.0,1.0,phase_3,,,,,132.0,3.0,176.0,220.0,132.0,264.0,88.0,44.0,orange,hexagon
0.0,3.0,3.0,0.0,7.0,2.0,2293.958274181932,2.0,1.0,phase_3,,,,,162.0,3.0,324.0,162.0,216.0,108.0,270.0,54.0,white,triangle
0.0,8.0,4.0,1.0,7.0,5.0,2193.58950573951,2.0,1.0,phase_3,,,,,196.0,4.0,294.0,49.0,147.0,245.0,196.0,98.0,cyan,flipped triangle
0.0,1.0,1.0,0.0,7.0,2.0,2283.5526280105114,2.0,1.0,phase_3,,,,,170.0,5.0,34.0,170.0,68.0,136.0,204.0,102.0,magenta,square
0.0,8.0,4.0,1.0,7.0,3.0,975.4478288814424,3.0,1.0,phase_3,,,,,270.0,5.0,216.0,108.0,270.0,162.0,54.0,324.0,cyan,flipped triangle
0.0,7.0,3.0,1.0,7.0,2.0,2215.898397844285,3.0,1.0,phase_3,,,,,162.0,3.0,324.0,162.0,108.0,270.0,216.0,54.0,orange,hexagon
0.0,4.0,4.0,0.0,7.0,6.0,2644.421307370066,3.0,1.0,phase_3,,,,,204.0,6.0,170.0,102.0,34.0,68.0,136.0,204.0,green,cross
0.0,5.0,1.0,1.0,7.0,4.0,1675.301515031606,3.0,1.0,phase_3,,,,,117.0,3.0,78.0,195.0,39.0,117.0,234.0,156.0,gray,diamond
0.0,3.0,3.0,0.0,7.0,2.0,2443.1299190036952,3.0,1.0,phase_3,,,,,49.0,1.0,147.0,49.0,294.0,245.0,196.0,98.0,white,triangle
0.0,3.0,3.0,0.0,7.0,6.0,1812.4596350826323,3.0,1.0,phase_3,,,,,108.0,2.0,324.0,270.0,54.0,216.0,162.0,108.0,white,triangle
0.0,5.0,1.0,1.0,7.0,4.0,2030.2766277454798,3.0,1.0,phase_3,,,,,176.0,4.0,220.0,88.0,264.0,176.0,44.0,132.0,gray,diamond
0.0,1.0,1.0,0.0,7.0,3.0,2763.0102820694447,3.0,1.0,phase_3,,,,,136.0,4.0,34.0,102.0,136.0,68.0,170.0,204.0,magenta,square
0.0,6.0,2.0,1.0,7.0,4.0,2670.3699976205826,3.0,1.0,phase_3,,,,,204.0,6.0,34.0,68.0,170.0,204.0,102.0,136.0,blue,I
0.0,1.0,1.0,0.0,7.0,3.0,4157.883805688471,3.0,1.0,phase_3,,,,,108.0,2.0,54.0,270.0,108.0,216.0,324.0,162.0,magenta,square
0.0,5.0,1.0,1.0,7.0,2.0,3491.128151770681,3.0,1.0,phase_3,,,,,170.0,5.0,102.0,170.0,68.0,136.0,204.0,34.0,gray,diamond
0.0,8.0,4.0,1.0,7.0,5.0,2200.60588279739,3.0,1.0,phase_3,,,,,88.0,2.0,132.0,264.0,176.0,220.0,88.0,44.0,cyan,flipped triangle
0.0,4.0,4.0,0.0,7.0,6.0,4764.453598763794,3.0,1.0,phase_3,,,,,68.0,2.0,102.0,204.0,170.0,136.0,34.0,68.0,green,cross
0.0,2.0,2.0,0.0,7.0,2.0,2947.5272428244352,3.0,1.0,phase_3,,,,,136.0,4.0,34.0,136.0,204.0,170.0,102.0,68.0,yellow,circle
0.0,7.0,3.0,1.0,7.0,4.0,3154.043785762042,3.0,1.0,phase_3,,,,,132.0,3.0,44.0,176.0,220.0,132.0,264.0,88.0,orange,hexagon
0.0,8.0,4.0,1.0,7.0,6.0,2434.994515031576,3.0,1.0,phase_3,,,,,102.0,3.0,68.0,136.0,34.0,204.0,170.0,102.0,cyan,flipped triangle
0.0,2.0,2.0,0.0,7.0,2.0,4609.187928028405,3.0,1.0,phase_3,,,,,78.0,2.0,156.0,78.0,39.0,195.0,117.0,234.0,yellow,circle
0.0,6.0,2.0,1.0,7.0,4.0,2388.1439459510148,3.0,1.0,phase_3,,,,,117.0,3.0,156.0,195.0,234.0,117.0,39.0,78.0,blue,I
0.0,1.0,1.0,0.0,7.0,5.0,2996.849327813834,3.0,1.0,phase_3,,,,,195.0,5.0,39.0,117.0,78.0,156.0,195.0,234.0,magenta,square
0.0,2.0,2.0,0.0,7.0,3.0,2814.857389777899,3.0,1.0,phase_3,,,,,204.0,6.0,170.0,136.0,204.0,34.0,102.0,68.0,yellow,circle
0.0,8.0,4.0,1.0,7.0,3.0,1470.0824422761798,4.0,1.0,phase_3,,,,,195.0,5.0,39.0,234.0,195.0,78.0,156.0,117.0,cyan,flipped triangle
0.0,3.0,3.0,0.0,7.0,5.0,2585.429519880563,4.0,1.0,phase_3,,,,,204.0,6.0,102.0,34.0,136.0,170.0,204.0,68.0,white,triangle
0.0,2.0,2.0,0.0,7.0,3.0,3260.939219966531,4.0,1.0,phase_3,,,,,132.0,3.0,220.0,88.0,132.0,44.0,264.0,176.0,yellow,circle
0.0,5.0,1.0,1.0,7.0,2.0,4544.254475738853,4.0,1.0,phase_3,,,,,170.0,5.0,204.0,170.0,102.0,68.0,34.0,136.0,gray,diamond
0.0,8.0,4.0,1.0,7.0,4.0,3112.870013806969,4.0,1.0,phase_3,,,,,170.0,5.0,34.0,68.0,102.0,170.0,204.0,136.0,cyan,flipped triangle
0.0,7.0,3.0,1.0,7.0,5.0,4669.536417350173,4.0,1.0,phase_3,,,,,68.0,2.0,170.0,102.0,34.0,204.0,68.0,136.0,orange,hexagon
0.0,6.0,2.0,1.0,7.0,6.0,2767.0635981485248,4.0,1.0,phase_3,,,,,98.0,2.0,196.0,294.0,245.0,147.0,49.0,98.0,blue,I
0.0,7.0,3.0,1.0,7.0,2.0,3417.1542078256607,4.0,1.0,phase_3,,,,,117.0,3.0,234.0,117.0,39.0,78.0,156.0,195.0,orange,hexagon
0.0,3.0,3.0,0.0,7.0,4.0,2731.994796078652,4.0,1.0,phase_3,,,,,102.0,3.0,170.0,34.0,68.0,102.0,204.0,136.0,white,triangle
0.0,1.0,1.0,0.0,7.0,2.0,3206.797287799418,4.0,1.0,phase_3,,,,,220.0,5.0,44.0,220.0,132.0,176.0,88.0,264.0,magenta,square
0.0,6.0,2.0,1.0,7.0,3.0,4241.788676939905,4.0,1.0,phase_3,,,,,216.0,4.0,54.0,108.0,216.0,324.0,162.0,270.0,blue,I
0.0,4.0,4.0,0.0,7.0,6.0,2773.622029926628,4.0,1.0,phase_3,,,,,196.0,4.0,294.0,147.0,245.0,49.0,98.0,196.0,green,cross
0.0,2.0,2.0,0.0,7.0,2.0,2000.8135470561683,4.0,1.0,phase_3,,,,,264.0,6.0,44.0,264.0,176.0,88.0,132.0,220.0,yellow,circle
0.0,6.0,2.0,1.0,7.0,6.0,3913.4298879653215,4.0,1.0,phase_3,,,,,156.0,4.0,234.0,195.0,39.0,117.0,78.0,156.0,blue,I
0.0,4.0,4.0,0.0,7.0,1.0,432.3416389524936,4.0,2.0,phase_3,,,,,220.0,5.0,220.0,44.0,88.0,132.0,176.0,264.0,green,cross
0.0,4.0,4.0,0.0,7.0,3.0,2458.338123280555,4.0,1.0,phase_3,,,,,220.0,5.0,88.0,44.0,220.0,132.0,176.0,264.0,green,cross
0.0,1.0,1.0,0.0,7.0,5.0,2773.746230173856,4.0,1.0,phase_3,,,,,234.0,6.0,78.0,156.0,195.0,117.0,234.0,39.0,magenta,square
0.0,6.0,2.0,1.0,7.0,3.0,3045.2468479052186,4.0,1.0,phase_3,,,,,220.0,5.0,176.0,88.0,220.0,44.0,132.0,264.0,blue,I
0.0,6.0,2.0,1.0,7.0,6.0,2080.6559612974524,4.0,1.0,phase_3,,,,,220.0,5.0,132.0,88.0,264.0,176.0,44.0,220.0,blue,I
0.0,3.0,3.0,0.0,7.0,4.0,1272.7186670526862,4.0,1.0,phase_3,,,,,220.0,5.0,264.0,132.0,176.0,220.0,88.0,44.0,white,triangle
