raw_reward_magnitude,stim_reward,stepwise_reward_magnitude,paired_with_stopping,stim_location,response,reaction_time,block,num_trial_presentations,which_phase,stop_signal_trial_type,left_SSD,right_SSD,accuracy,chosen_bidding_amount,chosen_bidding_level,possible_bid_1,possible_bid_2,possible_bid_3,possible_bid_4,possible_bid_5,possible_bid_6,color_text,shape_text
105.0,6.0,1.0,1.0,1.0,1.0,321.7629482969641,1.0,1.0,phase_1,,,,,,,,,,,,,white,triangle
408.0,8.0,4.0,1.0,2.0,2.0,346.4953638613224,1.0,1.0,phase_1,,,,,,,,,,,,,magenta,circle
401.0,4.0,4.0,0.0,4.0,4.0,311.8846421130001,1.0,1.0,phase_1,,,,,,,,,,,,,blue,square
209.0,7.0,2.0,1.0,4.0,4.0,390.4179777018726,1.0,1.0,phase_1,,,,,,,,,,,,,orange,I
419.0,4.0,4.0,0.0,3.0,3.0,276.787475682795,1.0,1.0,phase_1,,,,,,,,,,,,,blue,square
197.0,3.0,2.0,0.0,2.0,2.0,263.8089139945805,1.0,1.0,phase_1,,,,,,,,,,,,,yellow,flipped triangle
416.0,8.0,4.0,1.0,3.0,3.0,259.9949887953698,1.0,1.0,phase_1,,,,,,,,,,,,,magenta,circle
0.0,8.0,0.0,1.0,3.0,3.0,327.217502053827,1.0,1.0,phase_1,,,,,,,,,,,,,magenta,circle
0.0,6.0,0.0,1.0,1.0,1.0,367.2537705861032,1.0,1.0,phase_1,,,,,,,,,,,,,white,triangle
81.0,6.0,1.0,1.0,1.0,1.0,320.35927567631,1.0,1.0,phase_1,,,,,,,,,,,,,white,triangle
0.0,7.0,0.0,1.0,4.0,4.0,335.7668663375079,1.0,1.0,phase_1,,,,,,,,,,,,,orange,I
66.0,5.0,0.5,1.0,1.0,1.0,393.2681786827743,1.0,1.0,phase_1,,,,,,,,,,,,,gray,diamond
42.0,1.0,0.5,0.0,2.0,2.0,383.6765461601317,1.0,1.0,phase_1,,,,,,,,,,,,,cyan,hexagon
396.0,8.0,4.0,1.0,1.0,1.0,388.2369641214609,1.0,1.0,phase_1,,,,,,,,,,,,,magenta,circle
216.0,3.0,2.0,0.0,4.0,4.0,330.0120537169277,1.0,1.0,phase_1,,,,,,,,,,,,,yellow,flipped triangle
0.0,5.0,0.0,1.0,2.0,2.0,276.2444298714399,1.0,1.0,phase_1,,,,,,,,,,,,,gray,diamond
79.0,2.0,1.0,0.0,4.0,4.0,280.7175801135599,1.0,1.0,phase_1,,,,,,,,,,,,,green,cross
402.0,4.0,4.0,0.0,1.0,1.0,263.5542778298259,1.0,1.0,phase_1,,,,,,,,,,,,,blue,square
109.0,2.0,1.0,0.0,4.0,4.0,283.9508717879653,1.0,1.0,phase_1,,,,,,,,,,,,,green,cross
91.0,2.0,1.0,0.0,1.0,1.0,263.4301790967583,1.0,1.0,phase_1,,,,,,,,,,,,,green,cross
0.0,5.0,0.0,1.0,1.0,1.0,276.1690206825733,1.0,1.0,phase_1,,,,,,,,,,,,,gray,diamond
0.0,8.0,0.0,1.0,1.0,1.0,296.7571029439568,1.0,1.0,phase_1,,,,,,,,,,,,,magenta,circle
204.0,3.0,2.0,0.0,1.0,1.0,279.3572857044637,1.0,1.0,phase_1,,,,,,,,,,,,,yellow,flipped triangle
0.0,6.0,0.0,1.0,4.0,4.0,321.738364174962,1.0,1.0,phase_1,,,,,,,,,,,,,white,triangle
52.0,1.0,0.5,0.0,4.0,4.0,286.8622927926481,1.0,1.0,phase_1,,,,,,,,,,,,,cyan,hexagon
0.0,2.0,0.0,0.0,3.0,3.0,309.0417957864702,1.0,1.0,phase_1,,,,,,,,,,,,,green,cross
112.0,6.0,1.0,1.0,2.0,2.0,321.4058582670986,1.0,1.0,phase_1,,,,,,,,,,,,,white,triangle
0.0,4.0,0.0,0.0,3.0,3.0,292.0890767127275,1.0,1.0,phase_1,,,,,,,,,,,,,blue,square
124.0,2.0,1.0,0.0,4.0,4.0,346.3499178178608,1.0,1.0,phase_1,,,,,,,,,,,,,green,cross
113.0,6.0,1.0,1.0,3.0,3.0,325.5810090340674,1.0,1.0,phase_1,,,,,,,,,,,,,white,triangle
0.0,1.0,0.0,0.0,4.0,4.0,283.5589512251317,1.0,1.0,phase_1,,,,,,,,,,,,,cyan,hexagon
80.0,6.0,1.0,1.0,2.0,2.0,242.6384668797254,1.0,1.0,phase_1,,,,,,,,,,,,,white,triangle
28.0,5.0,0.5,1.0,3.0,3.0,230.0238157622516,1.0,1.0,phase_1,,,,,,,,,,,,,gray,diamond
210.0,7.0,2.0,1.0,3.0,3.0,256.6665909253061,1.0,1.0,phase_1,,,,,,,,,,,,,orange,I
53.0,1.0,0.5,0.0,4.0,4.0,317.5615249201655,1.0,1.0,phase_1,,,,,,,,,,,,,cyan,hexagon
0.0,7.0,0.0,1.0,4.0,4.0,325.0316521152854,1.0,1.0,phase_1,,,,,,,,,,,,,orange,I
386.0,8.0,4.0,1.0,3.0,3.0,222.4042257294058,1.0,1.0,phase_1,,,,,,,,,,,,,magenta,circle
120.0,2.0,1.0,0.0,2.0,2.0,339.1078072600066,1.0,1.0,phase_1,,,,,,,,,,,,,green,cross
382.0,4.0,4.0,0.0,1.0,1.0,321.7059611342847,1.0,1.0,phase_1,,,,,,,,,,,,,blue,square
124.0,6.0,1.0,1.0,1.0,1.0,310.6688666157424,1.0,1.0,phase_1,,,,,,,,,,,,,white,triangle
0.0,3.0,0.0,0.0,4.0,4.0,305.9637588448822,1.0,1.0,phase_1,,,,,,,,,,,,,yellow,flipped triangle
394.0,4.0,4.0,0.0,1.0,1.0,289.508325047791,1.0,1.0,phase_1,,,,,,,,,,,,,blue,square
188.0,3.0,2.0,0.0,3.0,3.0,301.8858549185097,1.0,1.0,phase_1,,,,,,,,,,,,,yellow,flipped triangle
28.0,5.0,0.5,1.0,1.0,1.0,280.8172861114144,1.0,1.0,phase_1,,,,,,,,,,,,,gray,diamond
44.0,1.0,0.5,0.0,4.0,4.0,316.6789291426539,1.0,1.0,phase_1,,,,,,,,,,,,,cyan,hexagon
93.0,2.0,1.0,0.0,2.0,2.0,304.986678995192,1.0,1.0,phase_1,,,,,,,,,,,,,green,cross
0.0,2.0,0.0,0.0,2.0,2.0,295.0707762502134,1.0,1.0,phase_1,,,,,,,,,,,,,green,cross
26.0,1.0,0.5,0.0,3.0,3.0,267.3830492421984,1.0,1.0,phase_1,,,,,,,,,,,,,cyan,hexagon
389.0,8.0,4.0,1.0,2.0,2.0,259.0315099805593,1.0,1.0,phase_1,,,,,,,,,,,,,magenta,circle
0.0,8.0,0.0,1.0,4.0,4.0,292.2141230665147,1.0,1.0,phase_1,,,,,,,,,,,,,magenta,circle
99.0,6.0,1.0,1.0,4.0,4.0,293.4999209828675,1.0,1.0,phase_1,,,,,,,,,,,,,white,triangle
85.0,2.0,1.0,0.0,1.0,1.0,365.3771663084626,1.0,1.0,phase_1,,,,,,,,,,,,,green,cross
36.0,1.0,0.5,0.0,2.0,2.0,275.3769233822822,1.0,1.0,phase_1,,,,,,,,,,,,,cyan,hexagon
44.0,5.0,0.5,1.0,2.0,2.0,310.968822799623,1.0,1.0,phase_1,,,,,,,,,,,,,gray,diamond
0.0,8.0,0.0,1.0,3.0,3.0,283.3002200350165,1.0,1.0,phase_1,,,,,,,,,,,,,magenta,circle
67.0,5.0,0.5,1.0,3.0,3.0,271.8352796509862,1.0,1.0,phase_1,,,,,,,,,,,,,gray,diamond
91.0,6.0,1.0,1.0,2.0,2.0,253.98255791515112,1.0,1.0,phase_1,,,,,,,,,,,,,white,triangle
122.0,6.0,1.0,1.0,4.0,4.0,337.4670357443392,1.0,1.0,phase_1,,,,,,,,,,,,,white,triangle
416.0,4.0,4.0,0.0,2.0,2.0,261.6569600068033,1.0,1.0,phase_1,,,,,,,,,,,,,blue,square
53.0,1.0,0.5,0.0,3.0,3.0,222.0574752427637,1.0,1.0,phase_1,,,,,,,,,,,,,cyan,hexagon
0.0,2.0,0.0,0.0,2.0,2.0,257.4372072704136,1.0,1.0,phase_1,,,,,,,,,,,,,green,cross
214.0,7.0,2.0,1.0,4.0,4.0,262.3897581361234,1.0,1.0,phase_1,,,,,,,,,,,,,orange,I
411.0,4.0,4.0,0.0,2.0,2.0,216.0024940967559,1.0,1.0,phase_1,,,,,,,,,,,,,blue,square
389.0,4.0,4.0,0.0,4.0,4.0,289.1788128763437,1.0,1.0,phase_1,,,,,,,,,,,,,blue,square
0.0,2.0,0.0,0.0,4.0,4.0,300.1148430630564,1.0,1.0,phase_1,,,,,,,,,,,,,green,cross
395.0,8.0,4.0,1.0,3.0,3.0,346.6203287243843,1.0,1.0,phase_1,,,,,,,,,,,,,magenta,circle
105.0,2.0,1.0,0.0,1.0,1.0,276.8949018791318,1.0,1.0,phase_1,,,,,,,,,,,,,green,cross
0.0,3.0,0.0,0.0,4.0,4.0,296.6596093028784,1.0,1.0,phase_1,,,,,,,,,,,,,yellow,flipped triangle
195.0,3.0,2.0,0.0,1.0,1.0,293.1931177154183,1.0,1.0,phase_1,,,,,,,,,,,,,yellow,flipped triangle
26.0,1.0,0.5,0.0,3.0,3.0,268.2164199650287,1.0,1.0,phase_1,,,,,,,,,,,,,cyan,hexagon
110.0,2.0,1.0,0.0,3.0,3.0,257.6578753069043,1.0,1.0,phase_1,,,,,,,,,,,,,green,cross
42.0,1.0,0.5,0.0,1.0,1.0,275.5285180173814,1.0,1.0,phase_1,,,,,,,,,,,,,cyan,hexagon
211.0,3.0,2.0,0.0,3.0,3.0,271.525461692363,1.0,1.0,phase_1,,,,,,,,,,,,,yellow,flipped triangle
0.0,7.0,0.0,1.0,3.0,3.0,288.5213010013103,1.0,2.0,phase_1,,,,,,,,,,,,,orange,I
77.0,6.0,1.0,1.0,3.0,3.0,285.9960552304983,1.0,1.0,phase_1,,,,,,,,,,,,,white,triangle
122.0,2.0,1.0,0.0,2.0,2.0,292.2959951683879,1.0,1.0,phase_1,,,,,,,,,,,,,green,cross
184.0,3.0,2.0,0.0,2.0,2.0,366.9865187257528,1.0,1.0,phase_1,,,,,,,,,,,,,yellow,flipped triangle
73.0,5.0,0.5,1.0,1.0,1.0,356.8972097709775,1.0,1.0,phase_1,,,,,,,,,,,,,gray,diamond
91.0,6.0,1.0,1.0,1.0,1.0,338.8171517290175,1.0,1.0,phase_1,,,,,,,,,,,,,white,triangle
53.0,1.0,0.5,0.0,1.0,1.0,293.3816071599722,1.0,1.0,phase_1,,,,,,,,,,,,,cyan,hexagon
120.0,6.0,1.0,1.0,4.0,4.0,330.2179249003529,1.0,1.0,phase_1,,,,,,,,,,,,,white,triangle
53.0,5.0,0.5,1.0,3.0,3.0,318.6373128555715,1.0,1.0,phase_1,,,,,,,,,,,,,gray,diamond
33.0,1.0,0.5,0.0,1.0,1.0,285.5557478033006,1.0,1.0,phase_1,,,,,,,,,,,,,cyan,hexagon
389.0,4.0,4.0,0.0,2.0,2.0,257.8739887103438,1.0,1.0,phase_1,,,,,,,,,,,,,blue,square
178.0,3.0,2.0,0.0,2.0,2.0,279.2910612188279,1.0,1.0,phase_1,,,,,,,,,,,,,yellow,flipped triangle
76.0,6.0,1.0,1.0,3.0,3.0,259.1459848918021,1.0,1.0,phase_1,,,,,,,,,,,,,white,triangle
395.0,4.0,4.0,0.0,4.0,4.0,318.4850038960576,1.0,1.0,phase_1,,,,,,,,,,,,,blue,square
411.0,8.0,4.0,1.0,3.0,3.0,265.9571198746562,1.0,1.0,phase_1,,,,,,,,,,,,,magenta,circle
404.0,8.0,4.0,1.0,4.0,4.0,311.0329699702561,1.0,1.0,phase_1,,,,,,,,,,,,,magenta,circle
215.0,3.0,2.0,0.0,3.0,3.0,252.8325030580163,1.0,1.0,phase_1,,,,,,,,,,,,,yellow,flipped triangle
183.0,7.0,2.0,1.0,1.0,1.0,290.5001887120306,1.0,1.0,phase_1,,,,,,,,,,,,,orange,I
82.0,2.0,1.0,0.0,3.0,3.0,304.0310549549758,1.0,1.0,phase_1,,,,,,,,,,,,,green,cross
175.0,3.0,2.0,0.0,2.0,2.0,267.5176309421658,1.0,1.0,phase_1,,,,,,,,,,,,,yellow,flipped triangle
113.0,6.0,1.0,1.0,3.0,3.0,254.35007503256202,1.0,1.0,phase_1,,,,,,,,,,,,,white,triangle
379.0,4.0,4.0,0.0,2.0,2.0,262.0044918730855,1.0,1.0,phase_1,,,,,,,,,,,,,blue,square
193.0,3.0,2.0,0.0,3.0,3.0,242.3612270504236,1.0,1.0,phase_1,,,,,,,,,,,,,yellow,flipped triangle
96.0,6.0,1.0,1.0,1.0,1.0,287.4527270905673,1.0,1.0,phase_1,,,,,,,,,,,,,white,triangle
0.0,4.0,0.0,0.0,4.0,4.0,312.3836792074144,1.0,1.0,phase_1,,,,,,,,,,,,,blue,square
176.0,7.0,2.0,1.0,2.0,2.0,260.9307118691504,1.0,1.0,phase_1,,,,,,,,,,,,,orange,I
386.0,4.0,4.0,0.0,4.0,4.0,300.6619270890951,1.0,1.0,phase_1,,,,,,,,,,,,,blue,square
0.0,2.0,0.0,0.0,2.0,2.0,260.2950627915561,2.0,1.0,phase_1,,,,,,,,,,,,,green,cross
0.0,5.0,0.0,1.0,4.0,4.0,305.8225368149578,2.0,1.0,phase_1,,,,,,,,,,,,,gray,diamond
49.0,1.0,0.5,0.0,2.0,2.0,268.0442999117076,2.0,1.0,phase_1,,,,,,,,,,,,,cyan,hexagon
112.0,2.0,1.0,0.0,2.0,2.0,305.869631934911,2.0,1.0,phase_1,,,,,,,,,,,,,green,cross
216.0,7.0,2.0,1.0,3.0,3.0,256.3442126847803,2.0,1.0,phase_1,,,,,,,,,,,,,orange,I
44.0,1.0,0.5,0.0,4.0,4.0,283.6053599603474,2.0,1.0,phase_1,,,,,,,,,,,,,cyan,hexagon
207.0,7.0,2.0,1.0,2.0,2.0,254.55942703410977,2.0,1.0,phase_1,,,,,,,,,,,,,orange,I
26.0,5.0,0.5,1.0,2.0,2.0,318.4720249846577,2.0,1.0,phase_1,,,,,,,,,,,,,gray,diamond
0.0,7.0,0.0,1.0,4.0,4.0,250.85604516789311,2.0,1.0,phase_1,,,,,,,,,,,,,orange,I
382.0,8.0,4.0,1.0,3.0,3.0,237.3269582167267,2.0,1.0,phase_1,,,,,,,,,,,,,magenta,circle
70.0,1.0,0.5,0.0,1.0,1.0,273.130230139941,2.0,1.0,phase_1,,,,,,,,,,,,,cyan,hexagon
210.0,3.0,2.0,0.0,4.0,4.0,278.6859450861811,2.0,1.0,phase_1,,,,,,,,,,,,,yellow,flipped triangle
392.0,8.0,4.0,1.0,3.0,3.0,259.0962429530918,2.0,1.0,phase_1,,,,,,,,,,,,,magenta,circle
62.0,5.0,0.5,1.0,4.0,4.0,311.9040387682616,2.0,1.0,phase_1,,,,,,,,,,,,,gray,diamond
118.0,6.0,1.0,1.0,1.0,1.0,340.6310593709349,2.0,1.0,phase_1,,,,,,,,,,,,,white,triangle
405.0,4.0,4.0,0.0,4.0,4.0,250.9581390768289,2.0,1.0,phase_1,,,,,,,,,,,,,blue,square
213.0,3.0,2.0,0.0,4.0,4.0,313.3386839181185,2.0,1.0,phase_1,,,,,,,,,,,,,yellow,flipped triangle
103.0,6.0,1.0,1.0,2.0,2.0,330.8734591118991,2.0,1.0,phase_1,,,,,,,,,,,,,white,triangle
49.0,1.0,0.5,0.0,4.0,4.0,270.5690152943134,2.0,1.0,phase_1,,,,,,,,,,,,,cyan,hexagon
121.0,2.0,1.0,0.0,3.0,3.0,267.3830850981176,2.0,1.0,phase_1,,,,,,,,,,,,,green,cross
219.0,7.0,2.0,1.0,4.0,4.0,267.4978692084551,2.0,1.0,phase_1,,,,,,,,,,,,,orange,I
422.0,4.0,4.0,0.0,2.0,2.0,301.6446027904749,2.0,1.0,phase_1,,,,,,,,,,,,,blue,square
62.0,1.0,0.5,0.0,3.0,3.0,259.9739278666675,2.0,1.0,phase_1,,,,,,,,,,,,,cyan,hexagon
28.0,1.0,0.5,0.0,4.0,4.0,294.97100366279477,2.0,2.0,phase_1,,,,,,,,,,,,,cyan,hexagon
32.0,1.0,0.5,0.0,2.0,2.0,313.3365381509065,2.0,1.0,phase_1,,,,,,,,,,,,,cyan,hexagon
0.0,1.0,0.0,0.0,1.0,1.0,358.6303535848856,2.0,1.0,phase_1,,,,,,,,,,,,,cyan,hexagon
215.0,7.0,2.0,1.0,3.0,3.0,284.2287202365696,2.0,1.0,phase_1,,,,,,,,,,,,,orange,I
44.0,1.0,0.5,0.0,1.0,1.0,302.0479502156377,2.0,1.0,phase_1,,,,,,,,,,,,,cyan,hexagon
204.0,3.0,2.0,0.0,3.0,3.0,268.097102176398,2.0,1.0,phase_1,,,,,,,,,,,,,yellow,flipped triangle
85.0,6.0,1.0,1.0,4.0,4.0,296.0832067765295,2.0,1.0,phase_1,,,,,,,,,,,,,white,triangle
52.0,5.0,0.5,1.0,2.0,2.0,310.4755221866071,2.0,1.0,phase_1,,,,,,,,,,,,,gray,diamond
408.0,4.0,4.0,0.0,2.0,2.0,297.3444671370089,2.0,1.0,phase_1,,,,,,,,,,,,,blue,square
106.0,2.0,1.0,0.0,3.0,3.0,261.7876380681991,2.0,1.0,phase_1,,,,,,,,,,,,,green,cross
56.0,1.0,0.5,0.0,2.0,2.0,289.2945199273526,2.0,1.0,phase_1,,,,,,,,,,,,,cyan,hexagon
0.0,2.0,0.0,0.0,1.0,1.0,327.0166418515146,2.0,1.0,phase_1,,,,,,,,,,,,,green,cross
71.0,5.0,0.5,1.0,4.0,4.0,307.8267779201269,2.0,1.0,phase_1,,,,,,,,,,,,,gray,diamond
62.0,5.0,0.5,1.0,3.0,3.0,351.9074497744441,2.0,1.0,phase_1,,,,,,,,,,,,,gray,diamond
109.0,6.0,1.0,1.0,4.0,4.0,295.0258022174239,2.0,1.0,phase_1,,,,,,,,,,,,,white,triangle
0.0,5.0,0.0,1.0,4.0,4.0,361.326677724719,2.0,1.0,phase_1,,,,,,,,,,,,,gray,diamond
0.0,6.0,0.0,1.0,2.0,2.0,361.3095316104591,2.0,1.0,phase_1,,,,,,,,,,,,,white,triangle
0.0,1.0,0.0,0.0,3.0,3.0,254.81307366862887,2.0,1.0,phase_1,,,,,,,,,,,,,cyan,hexagon
407.0,8.0,4.0,1.0,2.0,2.0,312.9188567399978,2.0,1.0,phase_1,,,,,,,,,,,,,magenta,circle
79.0,6.0,1.0,1.0,1.0,1.0,323.8336979411542,2.0,1.0,phase_1,,,,,,,,,,,,,white,triangle
208.0,7.0,2.0,1.0,1.0,1.0,377.4008499458432,2.0,1.0,phase_1,,,,,,,,,,,,,orange,I
67.0,1.0,0.5,0.0,2.0,2.0,286.6366202943027,2.0,1.0,phase_1,,,,,,,,,,,,,cyan,hexagon
93.0,6.0,1.0,1.0,4.0,4.0,298.4622358344495,2.0,1.0,phase_1,,,,,,,,,,,,,white,triangle
0.0,1.0,0.0,0.0,3.0,3.0,263.2448179647326,2.0,1.0,phase_1,,,,,,,,,,,,,cyan,hexagon
425.0,4.0,4.0,0.0,3.0,3.0,277.408645953983,2.0,1.0,phase_1,,,,,,,,,,,,,blue,square
0.0,3.0,0.0,0.0,4.0,4.0,304.3978414498269,2.0,1.0,phase_1,,,,,,,,,,,,,yellow,flipped triangle
0.0,3.0,0.0,0.0,1.0,1.0,340.9367157146334,2.0,1.0,phase_1,,,,,,,,,,,,,yellow,flipped triangle
183.0,3.0,2.0,0.0,3.0,3.0,285.1744568906724,2.0,1.0,phase_1,,,,,,,,,,,,,yellow,flipped triangle
58.0,5.0,0.5,1.0,1.0,1.0,318.0072768591344,2.0,1.0,phase_1,,,,,,,,,,,,,gray,diamond
0.0,6.0,0.0,1.0,2.0,2.0,283.9930700138211,2.0,1.0,phase_1,,,,,,,,,,,,,white,triangle
187.0,7.0,2.0,1.0,1.0,1.0,313.136394135654,2.0,1.0,phase_1,,,,,,,,,,,,,orange,I
412.0,8.0,4.0,1.0,2.0,2.0,316.78719772025937,2.0,1.0,phase_1,,,,,,,,,,,,,magenta,circle
59.0,1.0,0.5,0.0,4.0,4.0,289.4570459611714,2.0,1.0,phase_1,,,,,,,,,,,,,cyan,hexagon
422.0,8.0,4.0,1.0,1.0,1.0,335.3481288067996,2.0,1.0,phase_1,,,,,,,,,,,,,magenta,circle
44.0,5.0,0.5,1.0,2.0,2.0,277.1627609618008,2.0,1.0,phase_1,,,,,,,,,,,,,gray,diamond
113.0,2.0,1.0,0.0,3.0,3.0,282.2497058659792,2.0,1.0,phase_1,,,,,,,,,,,,,green,cross
38.0,5.0,0.5,1.0,2.0,2.0,276.4473753049969,2.0,1.0,phase_1,,,,,,,,,,,,,gray,diamond
184.0,7.0,2.0,1.0,4.0,4.0,314.2295740544796,2.0,1.0,phase_1,,,,,,,,,,,,,orange,I
85.0,6.0,1.0,1.0,3.0,3.0,269.0734714269638,2.0,1.0,phase_1,,,,,,,,,,,,,white,triangle
205.0,7.0,2.0,1.0,1.0,1.0,297.8490861132741,2.0,1.0,phase_1,,,,,,,,,,,,,orange,I
207.0,3.0,2.0,0.0,1.0,1.0,334.3026242218911,2.0,1.0,phase_1,,,,,,,,,,,,,yellow,flipped triangle
407.0,8.0,4.0,1.0,1.0,1.0,419.9857101775706,2.0,1.0,phase_1,,,,,,,,,,,,,magenta,circle
218.0,3.0,2.0,0.0,2.0,2.0,304.8711926676333,2.0,1.0,phase_1,,,,,,,,,,,,,yellow,flipped triangle
204.0,7.0,2.0,1.0,4.0,4.0,285.3268017061054,2.0,1.0,phase_1,,,,,,,,,,,,,orange,I
0.0,7.0,0.0,1.0,3.0,3.0,273.2050199992955,2.0,1.0,phase_1,,,,,,,,,,,,,orange,I
79.0,2.0,1.0,0.0,3.0,3.0,271.657960023731,2.0,1.0,phase_1,,,,,,,,,,,,,green,cross
220.0,3.0,2.0,0.0,2.0,2.0,290.4644021764397,2.0,1.0,phase_1,,,,,,,,,,,,,yellow,flipped triangle
49.0,5.0,0.5,1.0,2.0,2.0,305.5115849711001,2.0,1.0,phase_1,,,,,,,,,,,,,gray,diamond
0.0,1.0,0.0,0.0,4.0,4.0,316.616668831557,2.0,1.0,phase_1,,,,,,,,,,,,,cyan,hexagon
389.0,8.0,4.0,1.0,3.0,3.0,275.6471219472587,2.0,1.0,phase_1,,,,,,,,,,,,,magenta,circle
119.0,2.0,1.0,0.0,2.0,2.0,262.639197986573,2.0,1.0,phase_1,,,,,,,,,,,,,green,cross
97.0,2.0,1.0,0.0,4.0,4.0,292.711682152003,2.0,1.0,phase_1,,,,,,,,,,,,,green,cross
378.0,4.0,4.0,0.0,4.0,4.0,434.2069621197879,2.0,1.0,phase_1,,,,,,,,,,,,,blue,square
186.0,7.0,2.0,1.0,2.0,2.0,324.9797467142343,2.0,1.0,phase_1,,,,,,,,,,,,,orange,I
0.0,2.0,0.0,0.0,2.0,2.0,329.7699359245598,2.0,1.0,phase_1,,,,,,,,,,,,,green,cross
0.0,7.0,0.0,1.0,3.0,3.0,272.1684020943939,2.0,1.0,phase_1,,,,,,,,,,,,,orange,I
405.0,8.0,4.0,1.0,4.0,4.0,298.2508279383182,2.0,1.0,phase_1,,,,,,,,,,,,,magenta,circle
32.0,5.0,0.5,1.0,4.0,4.0,310.2700859308243,2.0,1.0,phase_1,,,,,,,,,,,,,gray,diamond
198.0,3.0,2.0,0.0,1.0,1.0,325.0558753497898,2.0,1.0,phase_1,,,,,,,,,,,,,yellow,flipped triangle
63.0,5.0,0.5,1.0,1.0,1.0,305.8334719389677,2.0,1.0,phase_1,,,,,,,,,,,,,gray,diamond
70.0,5.0,0.5,1.0,1.0,1.0,294.6161706931889,2.0,1.0,phase_1,,,,,,,,,,,,,gray,diamond
186.0,3.0,2.0,0.0,4.0,4.0,290.7756720669567,2.0,1.0,phase_1,,,,,,,,,,,,,yellow,flipped triangle
0.0,1.0,0.0,0.0,3.0,3.0,257.5868000276387,2.0,1.0,phase_1,,,,,,,,,,,,,cyan,hexagon
223.0,3.0,2.0,0.0,2.0,2.0,355.2878773771226,2.0,1.0,phase_1,,,,,,,,,,,,,yellow,flipped triangle
393.0,4.0,4.0,0.0,3.0,3.0,327.7623979374766,2.0,2.0,phase_1,,,,,,,,,,,,,blue,square
0.0,4.0,0.0,0.0,4.0,4.0,347.2063839435577,2.0,1.0,phase_1,,,,,,,,,,,,,blue,square
0.0,3.0,0.0,0.0,3.0,3.0,286.84106701985,2.0,1.0,phase_1,,,,,,,,,,,,,yellow,flipped triangle
404.0,4.0,4.0,0.0,1.0,1.0,379.8452890478074,2.0,1.0,phase_1,,,,,,,,,,,,,blue,square
214.0,3.0,2.0,0.0,3.0,3.0,287.8072652965784,2.0,1.0,phase_1,,,,,,,,,,,,,yellow,flipped triangle
85.0,2.0,1.0,0.0,4.0,4.0,308.6916073225438,2.0,1.0,phase_1,,,,,,,,,,,,,green,cross
42.0,5.0,0.5,1.0,2.0,2.0,337.0778448879719,2.0,1.0,phase_1,,,,,,,,,,,,,gray,diamond
28.0,1.0,0.5,0.0,2.0,2.0,404.7793913632631,2.0,1.0,phase_1,,,,,,,,,,,,,cyan,hexagon
100.0,6.0,1.0,1.0,4.0,4.0,299.6086440980434,2.0,1.0,phase_1,,,,,,,,,,,,,white,triangle
34.0,5.0,0.5,1.0,3.0,3.0,319.9973017908633,2.0,1.0,phase_1,,,,,,,,,,,,,gray,diamond
0.0,4.0,0.0,0.0,4.0,4.0,387.9739730618894,2.0,1.0,phase_1,,,,,,,,,,,,,blue,square
405.0,4.0,4.0,0.0,2.0,2.0,303.8542061112821,2.0,1.0,phase_1,,,,,,,,,,,,,blue,square
218.0,7.0,2.0,1.0,3.0,3.0,300.795785151422,2.0,1.0,phase_1,,,,,,,,,,,,,orange,I
100.0,2.0,1.0,0.0,1.0,1.0,370.7675565965473,3.0,1.0,phase_1,,,,,,,,,,,,,green,cross
391.0,8.0,4.0,1.0,3.0,3.0,279.8737450502813,3.0,1.0,phase_1,,,,,,,,,,,,,magenta,circle
0.0,5.0,0.0,1.0,1.0,1.0,339.3388353288173,3.0,1.0,phase_1,,,,,,,,,,,,,gray,diamond
57.0,1.0,0.5,0.0,3.0,3.0,260.1566389203071,3.0,1.0,phase_1,,,,,,,,,,,,,cyan,hexagon
0.0,4.0,0.0,0.0,3.0,3.0,334.3948912806809,3.0,1.0,phase_1,,,,,,,,,,,,,blue,square
0.0,8.0,0.0,1.0,4.0,4.0,301.0505493730306,3.0,1.0,phase_1,,,,,,,,,,,,,magenta,circle
413.0,4.0,4.0,0.0,4.0,4.0,336.5266523323953,3.0,1.0,phase_1,,,,,,,,,,,,,blue,square
81.0,2.0,1.0,0.0,1.0,1.0,294.1820691339671,3.0,1.0,phase_1,,,,,,,,,,,,,green,cross
190.0,3.0,2.0,0.0,1.0,1.0,329.7469271346926,3.0,1.0,phase_1,,,,,,,,,,,,,yellow,flipped triangle
204.0,3.0,2.0,0.0,3.0,3.0,279.0963631123304,3.0,1.0,phase_1,,,,,,,,,,,,,yellow,flipped triangle
58.0,1.0,0.5,0.0,2.0,2.0,291.0038996487856,3.0,1.0,phase_1,,,,,,,,,,,,,cyan,hexagon
0.0,4.0,0.0,0.0,3.0,3.0,262.5888637267053,3.0,1.0,phase_1,,,,,,,,,,,,,blue,square
219.0,3.0,2.0,0.0,1.0,1.0,293.3206409215927,3.0,1.0,phase_1,,,,,,,,,,,,,yellow,flipped triangle
190.0,7.0,2.0,1.0,2.0,2.0,295.3473310917616,3.0,1.0,phase_1,,,,,,,,,,,,,orange,I
204.0,7.0,2.0,1.0,1.0,1.0,327.7200539596379,3.0,1.0,phase_1,,,,,,,,,,,,,orange,I
106.0,6.0,1.0,1.0,4.0,4.0,296.2789521552622,3.0,1.0,phase_1,,,,,,,,,,,,,white,triangle
90.0,6.0,1.0,1.0,3.0,3.0,261.89328031614417,3.0,1.0,phase_1,,,,,,,,,,,,,white,triangle
406.0,8.0,4.0,1.0,4.0,4.0,298.6639030277729,3.0,1.0,phase_1,,,,,,,,,,,,,magenta,circle
198.0,7.0,2.0,1.0,4.0,4.0,362.7213910222053,3.0,1.0,phase_1,,,,,,,,,,,,,orange,I
389.0,8.0,4.0,1.0,1.0,1.0,366.9020188972354,3.0,1.0,phase_1,,,,,,,,,,,,,magenta,circle
0.0,5.0,0.0,1.0,1.0,1.0,353.7514829076826,3.0,1.0,phase_1,,,,,,,,,,,,,gray,diamond
0.0,4.0,0.0,0.0,4.0,4.0,302.0396209321916,3.0,1.0,phase_1,,,,,,,,,,,,,blue,square
44.0,5.0,0.5,1.0,1.0,1.0,321.7765102162957,3.0,1.0,phase_1,,,,,,,,,,,,,gray,diamond
189.0,7.0,2.0,1.0,1.0,1.0,301.7672561109066,3.0,1.0,phase_1,,,,,,,,,,,,,orange,I
405.0,8.0,4.0,1.0,2.0,2.0,268.5967190191149,3.0,1.0,phase_1,,,,,,,,,,,,,magenta,circle
111.0,2.0,1.0,0.0,3.0,3.0,273.3570453710854,3.0,1.0,phase_1,,,,,,,,,,,,,green,cross
183.0,7.0,2.0,1.0,3.0,3.0,302.342374343425,3.0,1.0,phase_1,,,,,,,,,,,,,orange,I
106.0,6.0,1.0,1.0,1.0,1.0,321.1796917021274,3.0,1.0,phase_1,,,,,,,,,,,,,white,triangle
59.0,5.0,0.5,1.0,3.0,3.0,269.4458146579563,3.0,1.0,phase_1,,,,,,,,,,,,,gray,diamond
0.0,6.0,0.0,1.0,4.0,4.0,309.8262040875852,3.0,1.0,phase_1,,,,,,,,,,,,,white,triangle
394.0,8.0,4.0,1.0,2.0,2.0,305.5026982910931,3.0,1.0,phase_1,,,,,,,,,,,,,magenta,circle
0.0,3.0,0.0,0.0,3.0,3.0,271.2912959977984,3.0,1.0,phase_1,,,,,,,,,,,,,yellow,flipped triangle
0.0,5.0,0.0,1.0,3.0,3.0,274.2036217823624,3.0,1.0,phase_1,,,,,,,,,,,,,gray,diamond
118.0,6.0,1.0,1.0,3.0,3.0,271.0239388979971,3.0,1.0,phase_1,,,,,,,,,,,,,white,triangle
197.0,7.0,2.0,1.0,1.0,1.0,307.9716311767697,3.0,1.0,phase_1,,,,,,,,,,,,,orange,I
99.0,2.0,1.0,0.0,1.0,1.0,337.4419179745018,3.0,1.0,phase_1,,,,,,,,,,,,,green,cross
194.0,7.0,2.0,1.0,2.0,2.0,373.3360711485147,3.0,1.0,phase_1,,,,,,,,,,,,,orange,I
383.0,4.0,4.0,0.0,2.0,2.0,287.2737222351134,3.0,1.0,phase_1,,,,,,,,,,,,,blue,square
0.0,5.0,0.0,1.0,1.0,1.0,332.1466348133981,3.0,1.0,phase_1,,,,,,,,,,,,,gray,diamond
0.0,1.0,0.0,0.0,1.0,1.0,312.6001129858196,3.0,1.0,phase_1,,,,,,,,,,,,,cyan,hexagon
211.0,7.0,2.0,1.0,2.0,2.0,296.1546876467764,3.0,1.0,phase_1,,,,,,,,,,,,,orange,I
73.0,5.0,0.5,1.0,3.0,3.0,252.84664193168283,3.0,1.0,phase_1,,,,,,,,,,,,,gray,diamond
121.0,6.0,1.0,1.0,3.0,3.0,262.9356789402663,3.0,1.0,phase_1,,,,,,,,,,,,,white,triangle
183.0,3.0,2.0,0.0,4.0,4.0,339.8165730759501,3.0,1.0,phase_1,,,,,,,,,,,,,yellow,flipped triangle
118.0,2.0,1.0,0.0,3.0,3.0,265.8895859494805,3.0,1.0,phase_1,,,,,,,,,,,,,green,cross
0.0,6.0,0.0,1.0,2.0,2.0,317.5699687562883,3.0,1.0,phase_1,,,,,,,,,,,,,white,triangle
196.0,3.0,2.0,0.0,1.0,1.0,297.5964290089905,3.0,1.0,phase_1,,,,,,,,,,,,,yellow,flipped triangle
396.0,4.0,4.0,0.0,4.0,4.0,321.9177005812526,3.0,1.0,phase_1,,,,,,,,,,,,,blue,square
412.0,4.0,4.0,0.0,3.0,3.0,268.4864867478609,3.0,1.0,phase_1,,,,,,,,,,,,,blue,square
0.0,5.0,0.0,1.0,1.0,1.0,289.863440208137,3.0,1.0,phase_1,,,,,,,,,,,,,gray,diamond
85.0,2.0,1.0,0.0,4.0,4.0,310.508755967021,3.0,1.0,phase_1,,,,,,,,,,,,,green,cross
0.0,5.0,0.0,1.0,3.0,3.0,292.947209905833,3.0,1.0,phase_1,,,,,,,,,,,,,gray,diamond
51.0,1.0,0.5,0.0,3.0,3.0,342.2903721220791,3.0,1.0,phase_1,,,,,,,,,,,,,cyan,hexagon
420.0,8.0,4.0,1.0,3.0,3.0,283.6181940510869,3.0,1.0,phase_1,,,,,,,,,,,,,magenta,circle
213.0,7.0,2.0,1.0,3.0,3.0,264.1674219630658,3.0,1.0,phase_1,,,,,,,,,,,,,orange,I
90.0,2.0,1.0,0.0,1.0,1.0,309.9919147789478,3.0,1.0,phase_1,,,,,,,,,,,,,green,cross
91.0,2.0,1.0,0.0,2.0,2.0,305.6353293359279,3.0,1.0,phase_1,,,,,,,,,,,,,green,cross
98.0,6.0,1.0,1.0,2.0,2.0,413.3952870033681,3.0,1.0,phase_1,,,,,,,,,,,,,white,triangle
192.0,3.0,2.0,0.0,4.0,4.0,292.1940460801124,3.0,1.0,phase_1,,,,,,,,,,,,,yellow,flipped triangle
114.0,2.0,1.0,0.0,4.0,4.0,344.4156781770289,3.0,1.0,phase_1,,,,,,,,,,,,,green,cross
36.0,5.0,0.5,1.0,3.0,3.0,267.9829457774758,3.0,1.0,phase_1,,,,,,,,,,,,,gray,diamond
216.0,3.0,2.0,0.0,4.0,4.0,330.2931259386241,3.0,1.0,phase_1,,,,,,,,,,,,,yellow,flipped triangle
0.0,3.0,0.0,0.0,1.0,1.0,335.1585022173822,3.0,1.0,phase_1,,,,,,,,,,,,,yellow,flipped triangle
187.0,3.0,2.0,0.0,3.0,3.0,274.8977453447878,3.0,1.0,phase_1,,,,,,,,,,,,,yellow,flipped triangle
393.0,8.0,4.0,1.0,1.0,1.0,327.7447838336229,3.0,1.0,phase_1,,,,,,,,,,,,,magenta,circle
176.0,3.0,2.0,0.0,1.0,1.0,340.800458099693,3.0,1.0,phase_1,,,,,,,,,,,,,yellow,flipped triangle
0.0,6.0,0.0,1.0,1.0,1.0,352.9264470562339,3.0,1.0,phase_1,,,,,,,,,,,,,white,triangle
49.0,5.0,0.5,1.0,4.0,4.0,325.0914490781724,3.0,1.0,phase_1,,,,,,,,,,,,,gray,diamond
382.0,4.0,4.0,0.0,3.0,3.0,257.6800938695669,3.0,1.0,phase_1,,,,,,,,,,,,,blue,square
0.0,3.0,0.0,0.0,2.0,2.0,312.8360258415341,3.0,1.0,phase_1,,,,,,,,,,,,,yellow,flipped triangle
406.0,4.0,4.0,0.0,4.0,4.0,308.0879221670329,3.0,1.0,phase_1,,,,,,,,,,,,,blue,square
192.0,7.0,2.0,1.0,1.0,1.0,369.8866707272827,3.0,1.0,phase_1,,,,,,,,,,,,,orange,I
42.0,5.0,0.5,1.0,4.0,4.0,328.0093567445874,3.0,1.0,phase_1,,,,,,,,,,,,,gray,diamond
0.0,8.0,0.0,1.0,2.0,2.0,280.3446422331035,3.0,1.0,phase_1,,,,,,,,,,,,,magenta,circle
0.0,8.0,0.0,1.0,2.0,2.0,293.5159020125866,3.0,1.0,phase_1,,,,,,,,,,,,,magenta,circle
0.0,6.0,0.0,1.0,4.0,4.0,269.6933848783374,3.0,1.0,phase_1,,,,,,,,,,,,,white,triangle
34.0,1.0,0.5,0.0,3.0,3.0,273.1164759024977,3.0,1.0,phase_1,,,,,,,,,,,,,cyan,hexagon
56.0,5.0,0.5,1.0,2.0,2.0,300.9911961853504,3.0,1.0,phase_1,,,,,,,,,,,,,gray,diamond
413.0,8.0,4.0,1.0,1.0,1.0,330.7534949854016,3.0,1.0,phase_1,,,,,,,,,,,,,magenta,circle
85.0,2.0,1.0,0.0,2.0,2.0,356.4868159592151,3.0,1.0,phase_1,,,,,,,,,,,,,green,cross
57.0,5.0,0.5,1.0,4.0,4.0,305.4955289699137,3.0,1.0,phase_1,,,,,,,,,,,,,gray,diamond
208.0,3.0,2.0,0.0,2.0,2.0,297.1307109110057,3.0,1.0,phase_1,,,,,,,,,,,,,yellow,flipped triangle
175.0,7.0,2.0,1.0,3.0,3.0,266.6425537317991,3.0,1.0,phase_1,,,,,,,,,,,,,orange,I
0.0,7.0,0.0,1.0,3.0,3.0,391.7283322662115,3.0,1.0,phase_1,,,,,,,,,,,,,orange,I
196.0,7.0,2.0,1.0,3.0,3.0,294.4816811941564,3.0,1.0,phase_1,,,,,,,,,,,,,orange,I
398.0,4.0,4.0,0.0,1.0,1.0,324.5702940039336,3.0,1.0,phase_1,,,,,,,,,,,,,blue,square
0.0,1.0,0.0,0.0,4.0,4.0,327.1728036925196,3.0,1.0,phase_1,,,,,,,,,,,,,cyan,hexagon
57.0,5.0,0.5,1.0,3.0,3.0,290.4551890678704,3.0,1.0,phase_1,,,,,,,,,,,,,gray,diamond
51.0,5.0,0.5,1.0,2.0,2.0,262.9448380321264,3.0,1.0,phase_1,,,,,,,,,,,,,gray,diamond
82.0,6.0,1.0,1.0,1.0,1.0,310.9675077721476,3.0,1.0,phase_1,,,,,,,,,,,,,white,triangle
382.0,8.0,4.0,1.0,1.0,1.0,307.8598883002996,3.0,1.0,phase_1,,,,,,,,,,,,,magenta,circle
67.0,1.0,0.5,0.0,4.0,4.0,287.007390987128,3.0,1.0,phase_1,,,,,,,,,,,,,cyan,hexagon
29.0,5.0,0.5,1.0,4.0,4.0,357.5739013031125,3.0,1.0,phase_1,,,,,,,,,,,,,gray,diamond
382.0,8.0,4.0,1.0,2.0,2.0,318.8422438688576,3.0,1.0,phase_1,,,,,,,,,,,,,magenta,circle
0.0,6.0,0.0,1.0,4.0,4.0,299.7336802072823,3.0,1.0,phase_1,,,,,,,,,,,,,white,triangle
401.0,4.0,4.0,0.0,3.0,3.0,251.40501419082278,3.0,1.0,phase_1,,,,,,,,,,,,,blue,square
422.0,4.0,4.0,0.0,1.0,1.0,340.6863361597061,3.0,1.0,phase_1,,,,,,,,,,,,,blue,square
49.0,1.0,0.5,0.0,1.0,1.0,503.8635218515992,3.0,2.0,phase_1,,,,,,,,,,,,,cyan,hexagon
401.0,8.0,4.0,1.0,4.0,4.0,357.5062761083245,3.0,1.0,phase_1,,,,,,,,,,,,,magenta,circle
57.0,1.0,0.5,0.0,4.0,4.0,330.1992607302964,3.0,1.0,phase_1,,,,,,,,,,,,,cyan,hexagon
385.0,8.0,4.0,1.0,1.0,1.0,296.0452907718718,4.0,1.0,phase_1,,,,,,,,,,,,,magenta,circle
0.0,7.0,0.0,1.0,4.0,4.0,434.4649501144886,4.0,1.0,phase_1,,,,,,,,,,,,,orange,I
419.0,8.0,4.0,1.0,2.0,2.0,361.0195941291749,4.0,1.0,phase_1,,,,,,,,,,,,,magenta,circle
45.0,5.0,0.5,1.0,4.0,4.0,332.1056887507438,4.0,1.0,phase_1,,,,,,,,,,,,,gray,diamond
220.0,7.0,2.0,1.0,1.0,1.0,306.0924531891942,4.0,1.0,phase_1,,,,,,,,,,,,,orange,I
194.0,3.0,2.0,0.0,4.0,4.0,280.9273698367178,4.0,1.0,phase_1,,,,,,,,,,,,,yellow,flipped triangle
106.0,2.0,1.0,0.0,3.0,3.0,322.2455661743879,4.0,1.0,phase_1,,,,,,,,,,,,,green,cross
62.0,1.0,0.5,0.0,3.0,3.0,272.867726162076,4.0,1.0,phase_1,,,,,,,,,,,,,cyan,hexagon
197.0,3.0,2.0,0.0,3.0,3.0,261.18203997612,4.0,1.0,phase_1,,,,,,,,,,,,,yellow,flipped triangle
402.0,8.0,4.0,1.0,4.0,4.0,314.8693656548857,4.0,1.0,phase_1,,,,,,,,,,,,,magenta,circle
204.0,7.0,2.0,1.0,4.0,4.0,302.2548239678144,4.0,1.0,phase_1,,,,,,,,,,,,,orange,I
63.0,1.0,0.5,0.0,1.0,1.0,322.0486682839691,4.0,1.0,phase_1,,,,,,,,,,,,,cyan,hexagon
26.0,5.0,0.5,1.0,4.0,4.0,389.542942866683,4.0,1.0,phase_1,,,,,,,,,,,,,gray,diamond
420.0,4.0,4.0,0.0,3.0,3.0,276.0018398985266,4.0,1.0,phase_1,,,,,,,,,,,,,blue,square
204.0,7.0,2.0,1.0,1.0,1.0,336.8341941386461,4.0,1.0,phase_1,,,,,,,,,,,,,orange,I
425.0,8.0,4.0,1.0,2.0,2.0,355.5687512271106,4.0,1.0,phase_1,,,,,,,,,,,,,magenta,circle
195.0,7.0,2.0,1.0,2.0,2.0,330.9506699442863,4.0,1.0,phase_1,,,,,,,,,,,,,orange,I
0.0,7.0,0.0,1.0,1.0,1.0,316.8245377019048,4.0,1.0,phase_1,,,,,,,,,,,,,orange,I
53.0,5.0,0.5,1.0,3.0,3.0,418.6196089722216,4.0,1.0,phase_1,,,,,,,,,,,,,gray,diamond
223.0,7.0,2.0,1.0,2.0,2.0,295.0327228754759,4.0,1.0,phase_1,,,,,,,,,,,,,orange,I
204.0,7.0,2.0,1.0,3.0,3.0,284.6788908354938,4.0,1.0,phase_1,,,,,,,,,,,,,orange,I
29.0,1.0,0.5,0.0,3.0,3.0,284.0960822068155,4.0,1.0,phase_1,,,,,,,,,,,,,cyan,hexagon
62.0,1.0,0.5,0.0,1.0,1.0,383.4936339408159,4.0,1.0,phase_1,,,,,,,,,,,,,cyan,hexagon
73.0,1.0,0.5,0.0,3.0,3.0,259.9322153255343,4.0,1.0,phase_1,,,,,,,,,,,,,cyan,hexagon
204.0,3.0,2.0,0.0,4.0,4.0,353.3560298383236,4.0,1.0,phase_1,,,,,,,,,,,,,yellow,flipped triangle
422.0,8.0,4.0,1.0,4.0,4.0,373.8685520365834,4.0,1.0,phase_1,,,,,,,,,,,,,magenta,circle
392.0,4.0,4.0,0.0,2.0,2.0,295.2005979605019,4.0,1.0,phase_1,,,,,,,,,,,,,blue,square
114.0,6.0,1.0,1.0,2.0,2.0,283.6421560496092,4.0,1.0,phase_1,,,,,,,,,,,,,white,triangle
0.0,2.0,0.0,0.0,3.0,3.0,257.7862138859927,4.0,1.0,phase_1,,,,,,,,,,,,,green,cross
407.0,4.0,4.0,0.0,1.0,1.0,337.3389500193298,4.0,1.0,phase_1,,,,,,,,,,,,,blue,square
425.0,4.0,4.0,0.0,2.0,2.0,291.7723818682134,4.0,1.0,phase_1,,,,,,,,,,,,,blue,square
76.0,2.0,1.0,0.0,4.0,4.0,319.2583750933409,4.0,1.0,phase_1,,,,,,,,,,,,,green,cross
425.0,8.0,4.0,1.0,4.0,4.0,323.3561916276812,4.0,1.0,phase_1,,,,,,,,,,,,,magenta,circle
115.0,6.0,1.0,1.0,4.0,4.0,323.2825049199164,4.0,1.0,phase_1,,,,,,,,,,,,,white,triangle
91.0,6.0,1.0,1.0,3.0,3.0,279.9700298346579,4.0,1.0,phase_1,,,,,,,,,,,,,white,triangle
209.0,3.0,2.0,0.0,2.0,2.0,277.4675851687789,4.0,1.0,phase_1,,,,,,,,,,,,,yellow,flipped triangle
103.0,2.0,1.0,0.0,1.0,1.0,305.3962560370564,4.0,1.0,phase_1,,,,,,,,,,,,,green,cross
79.0,6.0,1.0,1.0,3.0,3.0,276.4867320656776,4.0,1.0,phase_1,,,,,,,,,,,,,white,triangle
97.0,6.0,1.0,1.0,4.0,4.0,330.7475838810205,4.0,1.0,phase_1,,,,,,,,,,,,,white,triangle
98.0,2.0,1.0,0.0,3.0,3.0,374.728849157691,4.0,1.0,phase_1,,,,,,,,,,,,,green,cross
0.0,8.0,0.0,1.0,4.0,4.0,297.7939848788082,4.0,1.0,phase_1,,,,,,,,,,,,,magenta,circle
407.0,4.0,4.0,0.0,1.0,1.0,334.2307680286467,4.0,1.0,phase_1,,,,,,,,,,,,,blue,square
85.0,6.0,1.0,1.0,2.0,2.0,323.1804682873189,4.0,1.0,phase_1,,,,,,,,,,,,,white,triangle
0.0,3.0,0.0,0.0,3.0,3.0,281.6522200591862,4.0,1.0,phase_1,,,,,,,,,,,,,yellow,flipped triangle
188.0,7.0,2.0,1.0,4.0,4.0,319.1302809864282,4.0,1.0,phase_1,,,,,,,,,,,,,orange,I
197.0,3.0,2.0,0.0,4.0,4.0,459.0623020194471,4.0,1.0,phase_1,,,,,,,,,,,,,yellow,flipped triangle
62.0,5.0,0.5,1.0,2.0,2.0,350.6694021634757,4.0,1.0,phase_1,,,,,,,,,,,,,gray,diamond
386.0,8.0,4.0,1.0,3.0,3.0,266.9341159053147,4.0,1.0,phase_1,,,,,,,,,,,,,magenta,circle
73.0,1.0,0.5,0.0,1.0,1.0,328.5060101188719,4.0,1.0,phase_1,,,,,,,,,,,,,cyan,hexagon
80.0,2.0,1.0,0.0,2.0,2.0,323.7615008838475,4.0,1.0,phase_1,,,,,,,,,,,,,green,cross
0.0,6.0,0.0,1.0,4.0,4.0,304.3210506439209,4.0,1.0,phase_1,,,,,,,,,,,,,white,triangle
0.0,2.0,0.0,0.0,4.0,4.0,316.6535091586411,4.0,1.0,phase_1,,,,,,,,,,,,,green,cross
205.0,3.0,2.0,0.0,2.0,2.0,284.259021282196,4.0,1.0,phase_1,,,,,,,,,,,,,yellow,flipped triangle
0.0,8.0,0.0,1.0,4.0,4.0,263.3151598274708,4.0,1.0,phase_1,,,,,,,,,,,,,magenta,circle
0.0,7.0,0.0,1.0,1.0,1.0,372.8872830979526,4.0,1.0,phase_1,,,,,,,,,,,,,orange,I
49.0,5.0,0.5,1.0,1.0,1.0,450.37253620103,4.0,1.0,phase_1,,,,,,,,,,,,,gray,diamond
115.0,2.0,1.0,0.0,4.0,4.0,309.3906529247761,4.0,1.0,phase_1,,,,,,,,,,,,,green,cross
189.0,3.0,2.0,0.0,1.0,1.0,355.5509820580482,4.0,1.0,phase_1,,,,,,,,,,,,,yellow,flipped triangle
71.0,1.0,0.5,0.0,2.0,2.0,285.3142479434609,4.0,1.0,phase_1,,,,,,,,,,,,,cyan,hexagon
383.0,8.0,4.0,1.0,4.0,4.0,309.0173848904669,4.0,1.0,phase_1,,,,,,,,,,,,,magenta,circle
45.0,1.0,0.5,0.0,2.0,2.0,271.7838771641254,4.0,1.0,phase_1,,,,,,,,,,,,,cyan,hexagon
391.0,4.0,4.0,0.0,3.0,3.0,252.4976260028779,4.0,1.0,phase_1,,,,,,,,,,,,,blue,square
0.0,4.0,0.0,0.0,1.0,1.0,312.5574900768697,4.0,1.0,phase_1,,,,,,,,,,,,,blue,square
398.0,8.0,4.0,1.0,4.0,4.0,304.6811027452349,4.0,1.0,phase_1,,,,,,,,,,,,,magenta,circle
0.0,1.0,0.0,0.0,2.0,2.0,372.7646931074559,4.0,1.0,phase_1,,,,,,,,,,,,,cyan,hexagon
0.0,1.0,0.0,0.0,4.0,4.0,294.018171261996,4.0,1.0,phase_1,,,,,,,,,,,,,cyan,hexagon
67.0,5.0,0.5,1.0,4.0,4.0,286.7504758760333,4.0,1.0,phase_1,,,,,,,,,,,,,gray,diamond
178.0,7.0,2.0,1.0,3.0,3.0,306.6685553640127,4.0,1.0,phase_1,,,,,,,,,,,,,orange,I
389.0,4.0,4.0,0.0,1.0,1.0,292.1530059538781,4.0,1.0,phase_1,,,,,,,,,,,,,blue,square
85.0,6.0,1.0,1.0,1.0,1.0,330.6769141927361,4.0,1.0,phase_1,,,,,,,,,,,,,white,triangle
385.0,4.0,4.0,0.0,1.0,1.0,280.8258710429072,4.0,1.0,phase_1,,,,,,,,,,,,,blue,square
38.0,1.0,0.5,0.0,1.0,1.0,298.0580278672278,4.0,1.0,phase_1,,,,,,,,,,,,,cyan,hexagon
379.0,8.0,4.0,1.0,2.0,2.0,289.9588420987129,4.0,1.0,phase_1,,,,,,,,,,,,,magenta,circle
118.0,2.0,1.0,0.0,1.0,1.0,310.3025620803237,4.0,1.0,phase_1,,,,,,,,,,,,,green,cross
53.0,5.0,0.5,1.0,1.0,1.0,280.8088860474527,4.0,1.0,phase_1,,,,,,,,,,,,,gray,diamond
197.0,7.0,2.0,1.0,4.0,4.0,333.5138782858848,4.0,1.0,phase_1,,,,,,,,,,,,,orange,I
77.0,2.0,1.0,0.0,2.0,2.0,276.5260692685842,4.0,1.0,phase_1,,,,,,,,,,,,,green,cross
416.0,8.0,4.0,1.0,4.0,4.0,279.8889842815697,4.0,1.0,phase_1,,,,,,,,,,,,,magenta,circle
197.0,7.0,2.0,1.0,4.0,4.0,302.3993009701371,4.0,1.0,phase_1,,,,,,,,,,,,,orange,I
66.0,1.0,0.5,0.0,4.0,4.0,303.6285722628236,4.0,1.0,phase_1,,,,,,,,,,,,,cyan,hexagon
216.0,7.0,2.0,1.0,2.0,2.0,283.9257679879665,4.0,1.0,phase_1,,,,,,,,,,,,,orange,I
382.0,4.0,4.0,0.0,3.0,3.0,266.3549538701772,4.0,1.0,phase_1,,,,,,,,,,,,,blue,square
378.0,8.0,4.0,1.0,1.0,1.0,311.6319361142814,4.0,1.0,phase_1,,,,,,,,,,,,,magenta,circle
110.0,6.0,1.0,1.0,2.0,2.0,325.4502499476075,4.0,1.0,phase_1,,,,,,,,,,,,,white,triangle
0.0,3.0,0.0,0.0,3.0,3.0,249.127265997231,4.0,1.0,phase_1,,,,,,,,,,,,,yellow,flipped triangle
401.0,8.0,4.0,1.0,1.0,1.0,286.8227129802108,4.0,1.0,phase_1,,,,,,,,,,,,,magenta,circle
204.0,3.0,2.0,0.0,1.0,1.0,323.9140911027789,4.0,1.0,phase_1,,,,,,,,,,,,,yellow,flipped triangle
0.0,4.0,0.0,0.0,1.0,1.0,279.6018831431865,4.0,1.0,phase_1,,,,,,,,,,,,,blue,square
96.0,2.0,1.0,0.0,1.0,1.0,274.2276950739324,4.0,1.0,phase_1,,,,,,,,,,,,,green,cross
91.0,2.0,1.0,0.0,2.0,2.0,246.6709818691015,4.0,1.0,phase_1,,,,,,,,,,,,,green,cross
33.0,5.0,0.5,1.0,1.0,1.0,286.6024081595242,4.0,1.0,phase_1,,,,,,,,,,,,,gray,diamond
113.0,2.0,1.0,0.0,4.0,4.0,299.1730091162026,4.0,1.0,phase_1,,,,,,,,,,,,,green,cross
0.0,8.0,0.0,1.0,1.0,1.0,328.5473259165883,4.0,1.0,phase_1,,,,,,,,,,,,,magenta,circle
0.0,2.0,0.0,0.0,1.0,1.0,283.4609779529273,4.0,1.0,phase_1,,,,,,,,,,,,,green,cross
386.0,4.0,4.0,0.0,4.0,4.0,290.100157726556,4.0,1.0,phase_1,,,,,,,,,,,,,blue,square
119.0,6.0,1.0,1.0,2.0,2.0,284.5039530657232,4.0,1.0,phase_1,,,,,,,,,,,,,white,triangle
193.0,7.0,2.0,1.0,2.0,2.0,296.3273348286748,4.0,1.0,phase_1,,,,,,,,,,,,,orange,I
416.0,4.0,4.0,0.0,3.0,3.0,293.3327700011432,4.0,1.0,phase_1,,,,,,,,,,,,,blue,square
111.0,6.0,1.0,1.0,2.0,2.0,273.1958031654358,4.0,1.0,phase_1,,,,,,,,,,,,,white,triangle
0.0,4.0,0.0,0.0,3.0,3.0,273.6807679757476,4.0,1.0,phase_1,,,,,,,,,,,,,blue,square
0.0,1.0,0.5,0.0,5.0,5.0,449.4059020653367,1.0,1.0,phase_2,go,250.0,250.0,1.0,,,,,,,,,cyan,hexagon
0.0,6.0,1.0,1.0,5.0,5.0,415.4789382591843,1.0,1.0,phase_2,stop,250.0,250.0,3.0,,,,,,,,,white,triangle
0.0,1.0,0.5,0.0,6.0,6.0,358.196523040533,1.0,1.0,phase_2,go,200.0,250.0,1.0,,,,,,,,,cyan,hexagon
0.0,7.0,2.0,1.0,6.0,6.0,390.7869327813387,1.0,1.0,phase_2,go,200.0,250.0,1.0,,,,,,,,,orange,I
0.0,3.0,2.0,0.0,5.0,5.0,221.4122428558766,1.0,1.0,phase_2,go,200.0,250.0,1.0,,,,,,,,,yellow,flipped triangle
0.0,8.0,4.0,1.0,6.0,6.0,400.8291768841445,1.0,1.0,phase_2,stop,200.0,250.0,3.0,,,,,,,,,magenta,circle
0.0,8.0,4.0,1.0,5.0,5.0,502.4030855856836,1.0,1.0,phase_2,go,200.0,200.0,1.0,,,,,,,,,magenta,circle
0.0,2.0,1.0,0.0,5.0,5.0,412.4807538464665,1.0,1.0,phase_2,go,200.0,200.0,1.0,,,,,,,,,green,cross
0.0,3.0,2.0,0.0,5.0,5.0,275.8997050113976,1.0,1.0,phase_2,go,200.0,200.0,1.0,,,,,,,,,yellow,flipped triangle
0.0,8.0,4.0,1.0,6.0,6.0,434.8101569339633,1.0,1.0,phase_2,go,200.0,200.0,1.0,,,,,,,,,magenta,circle
0.0,1.0,0.5,0.0,5.0,5.0,378.0699661001563,1.0,1.0,phase_2,go,200.0,200.0,1.0,,,,,,,,,cyan,hexagon
0.0,7.0,2.0,1.0,5.0,0.0,0.0,1.0,1.0,phase_2,stop,200.0,200.0,4.0,,,,,,,,,orange,I
0.0,5.0,0.5,1.0,5.0,5.0,276.0907360352576,1.0,1.0,phase_2,stop,250.0,200.0,3.0,,,,,,,,,gray,diamond
0.0,5.0,0.5,1.0,5.0,5.0,387.7480188384652,1.0,1.0,phase_2,go,200.0,200.0,1.0,,,,,,,,,gray,diamond
0.0,3.0,2.0,0.0,6.0,6.0,186.465626116842,1.0,1.0,phase_2,go,200.0,200.0,1.0,,,,,,,,,yellow,flipped triangle
0.0,8.0,4.0,1.0,5.0,5.0,295.6008440814912,1.0,1.0,phase_2,stop,200.0,200.0,3.0,,,,,,,,,magenta,circle
0.0,8.0,4.0,1.0,6.0,6.0,329.2335928417742,1.0,1.0,phase_2,stop,150.0,200.0,3.0,,,,,,,,,magenta,circle
0.0,2.0,1.0,0.0,5.0,5.0,238.2888630963862,1.0,1.0,phase_2,go,150.0,150.0,1.0,,,,,,,,,green,cross
0.0,5.0,0.5,1.0,6.0,0.0,0.0,1.0,1.0,phase_2,stop,150.0,150.0,4.0,,,,,,,,,gray,diamond
0.0,6.0,1.0,1.0,5.0,5.0,310.6675581075251,1.0,1.0,phase_2,stop,150.0,200.0,3.0,,,,,,,,,white,triangle
0.0,2.0,1.0,0.0,5.0,5.0,292.4542590044439,1.0,1.0,phase_2,go,100.0,200.0,1.0,,,,,,,,,green,cross
0.0,6.0,1.0,1.0,6.0,6.0,421.4499052613973,1.0,1.0,phase_2,go,100.0,200.0,1.0,,,,,,,,,white,triangle
0.0,8.0,4.0,1.0,5.0,0.0,0.0,1.0,1.0,phase_2,stop,100.0,200.0,4.0,,,,,,,,,magenta,circle
0.0,1.0,0.5,0.0,6.0,6.0,274.9733189120888,1.0,1.0,phase_2,go,150.0,200.0,1.0,,,,,,,,,cyan,hexagon
0.0,6.0,1.0,1.0,6.0,6.0,322.519863024354,1.0,1.0,phase_2,go,150.0,200.0,1.0,,,,,,,,,white,triangle
0.0,6.0,1.0,1.0,5.0,5.0,257.6920329593122,1.0,1.0,phase_2,stop,150.0,200.0,3.0,,,,,,,,,white,triangle
0.0,6.0,1.0,1.0,5.0,5.0,548.868210054934,1.0,1.0,phase_2,go,100.0,200.0,1.0,,,,,,,,,white,triangle
0.0,4.0,4.0,0.0,6.0,6.0,283.7996259331703,1.0,1.0,phase_2,go,100.0,200.0,1.0,,,,,,,,,blue,square
0.0,2.0,1.0,0.0,6.0,6.0,240.1200123131275,1.0,1.0,phase_2,go,100.0,200.0,1.0,,,,,,,,,green,cross
0.0,6.0,1.0,1.0,6.0,6.0,247.4768068641424,1.0,1.0,phase_2,stop,100.0,200.0,3.0,,,,,,,,,white,triangle
0.0,7.0,2.0,1.0,5.0,5.0,311.710188165307,1.0,1.0,phase_2,stop,100.0,150.0,3.0,,,,,,,,,orange,I
0.0,8.0,4.0,1.0,5.0,5.0,386.3159320317209,1.0,1.0,phase_2,go,50.0,150.0,1.0,,,,,,,,,magenta,circle
0.0,7.0,2.0,1.0,6.0,0.0,0.0,1.0,1.0,phase_2,stop,50.0,150.0,4.0,,,,,,,,,orange,I
0.0,3.0,2.0,0.0,5.0,5.0,263.0743007175624,1.0,1.0,phase_2,go,50.0,200.0,1.0,,,,,,,,,yellow,flipped triangle
0.0,1.0,0.5,0.0,5.0,5.0,316.7761140502989,1.0,1.0,phase_2,go,50.0,200.0,1.0,,,,,,,,,cyan,hexagon
0.0,7.0,2.0,1.0,6.0,6.0,229.2659697122872,1.0,1.0,phase_2,stop,50.0,200.0,3.0,,,,,,,,,orange,I
0.0,7.0,2.0,1.0,5.0,0.0,0.0,2.0,1.0,phase_2,stop,50.0,150.0,4.0,,,,,,,,,orange,I
0.0,1.0,0.5,0.0,6.0,6.0,406.0307727195322,2.0,1.0,phase_2,go,100.0,150.0,1.0,,,,,,,,,cyan,hexagon
0.0,1.0,0.5,0.0,5.0,5.0,385.3450720198452,2.0,1.0,phase_2,go,100.0,150.0,1.0,,,,,,,,,cyan,hexagon
0.0,5.0,0.5,1.0,6.0,6.0,285.3790442459285,2.0,1.0,phase_2,stop,100.0,150.0,3.0,,,,,,,,,gray,diamond
0.0,3.0,2.0,0.0,6.0,6.0,396.2644138373434,2.0,1.0,phase_2,go,100.0,100.0,1.0,,,,,,,,,yellow,flipped triangle
0.0,2.0,1.0,0.0,6.0,6.0,290.9840391948819,2.0,1.0,phase_2,go,100.0,100.0,1.0,,,,,,,,,green,cross
0.0,5.0,0.5,1.0,5.0,0.0,0.0,2.0,1.0,phase_2,stop,100.0,100.0,4.0,,,,,,,,,gray,diamond
0.0,8.0,4.0,1.0,6.0,0.0,0.0,2.0,1.0,phase_2,stop,150.0,100.0,4.0,,,,,,,,,magenta,circle
0.0,6.0,1.0,1.0,6.0,6.0,328.0214359983802,2.0,1.0,phase_2,stop,150.0,150.0,3.0,,,,,,,,,white,triangle
0.0,5.0,0.5,1.0,6.0,6.0,385.5560040101409,2.0,1.0,phase_2,go,150.0,100.0,1.0,,,,,,,,,gray,diamond
0.0,3.0,2.0,0.0,6.0,6.0,520.7589361816645,2.0,1.0,phase_2,go,150.0,100.0,1.0,,,,,,,,,yellow,flipped triangle
0.0,7.0,2.0,1.0,6.0,6.0,389.1830407083034,2.0,1.0,phase_2,go,150.0,100.0,1.0,,,,,,,,,orange,I
0.0,1.0,0.5,0.0,5.0,5.0,452.9621372930705,2.0,1.0,phase_2,go,150.0,100.0,1.0,,,,,,,,,cyan,hexagon
0.0,7.0,2.0,1.0,6.0,0.0,0.0,2.0,1.0,phase_2,stop,150.0,100.0,4.0,,,,,,,,,orange,I
0.0,8.0,4.0,1.0,6.0,0.0,0.0,2.0,1.0,phase_2,stop,150.0,150.0,4.0,,,,,,,,,magenta,circle
0.0,4.0,4.0,0.0,6.0,6.0,382.3363659903407,2.0,1.0,phase_2,go,150.0,200.0,1.0,,,,,,,,,blue,square
0.0,5.0,0.5,1.0,6.0,6.0,378.8665146566927,2.0,1.0,phase_2,go,150.0,200.0,1.0,,,,,,,,,gray,diamond
0.0,4.0,4.0,0.0,6.0,6.0,376.9425190985203,2.0,1.0,phase_2,go,150.0,200.0,1.0,,,,,,,,,blue,square
0.0,7.0,2.0,1.0,6.0,6.0,336.7614089511335,2.0,1.0,phase_2,stop,150.0,200.0,3.0,,,,,,,,,orange,I
0.0,6.0,1.0,1.0,5.0,5.0,395.9214901551604,2.0,1.0,phase_2,go,150.0,150.0,1.0,,,,,,,,,white,triangle
0.0,5.0,0.5,1.0,6.0,6.0,255.7862559333443,2.0,1.0,phase_2,stop,150.0,150.0,3.0,,,,,,,,,gray,diamond
0.0,7.0,2.0,1.0,6.0,0.0,0.0,2.0,1.0,phase_2,stop,150.0,100.0,4.0,,,,,,,,,orange,I
0.0,4.0,4.0,0.0,5.0,5.0,392.7551740780473,2.0,1.0,phase_2,go,150.0,150.0,1.0,,,,,,,,,blue,square
0.0,5.0,0.5,1.0,6.0,0.0,0.0,2.0,1.0,phase_2,stop,150.0,150.0,4.0,,,,,,,,,gray,diamond
0.0,2.0,1.0,0.0,6.0,6.0,457.1500620804727,2.0,1.0,phase_2,go,150.0,200.0,1.0,,,,,,,,,green,cross
0.0,6.0,1.0,1.0,6.0,6.0,341.0667362622916,2.0,1.0,phase_2,stop,150.0,200.0,3.0,,,,,,,,,white,triangle
0.0,4.0,4.0,0.0,5.0,5.0,390.0098530575633,2.0,1.0,phase_2,go,150.0,150.0,1.0,,,,,,,,,blue,square
0.0,7.0,2.0,1.0,6.0,0.0,0.0,2.0,1.0,phase_2,stop,150.0,150.0,4.0,,,,,,,,,orange,I
0.0,3.0,2.0,0.0,5.0,5.0,390.5140622518956,2.0,1.0,phase_2,go,150.0,200.0,1.0,,,,,,,,,yellow,flipped triangle
0.0,2.0,1.0,0.0,6.0,6.0,435.8929018490016,2.0,1.0,phase_2,go,150.0,200.0,1.0,,,,,,,,,green,cross
0.0,6.0,1.0,1.0,5.0,5.0,341.8192020617425,2.0,1.0,phase_2,stop,150.0,200.0,3.0,,,,,,,,,white,triangle
0.0,7.0,2.0,1.0,5.0,5.0,433.9325702749192,2.0,1.0,phase_2,go,100.0,200.0,1.0,,,,,,,,,orange,I
0.0,5.0,0.5,1.0,6.0,6.0,361.5998420864343,2.0,1.0,phase_2,stop,100.0,200.0,3.0,,,,,,,,,gray,diamond
0.0,1.0,0.5,0.0,5.0,5.0,401.7624179832637,2.0,1.0,phase_2,go,100.0,150.0,1.0,,,,,,,,,cyan,hexagon
0.0,7.0,2.0,1.0,6.0,6.0,608.0250991508365,2.0,1.0,phase_2,go,100.0,150.0,1.0,,,,,,,,,orange,I
0.0,2.0,1.0,0.0,6.0,6.0,459.4274559058249,2.0,1.0,phase_2,go,100.0,150.0,1.0,,,,,,,,,green,cross
0.0,4.0,4.0,0.0,5.0,5.0,642.9344057105482,3.0,1.0,phase_2,go,100.0,150.0,1.0,,,,,,,,,blue,square
0.0,8.0,4.0,1.0,5.0,5.0,332.4653580784797,3.0,1.0,phase_2,go,100.0,150.0,1.0,,,,,,,,,magenta,circle
0.0,7.0,2.0,1.0,6.0,0.0,0.0,3.0,1.0,phase_2,stop,100.0,150.0,4.0,,,,,,,,,orange,I
0.0,6.0,1.0,1.0,6.0,0.0,0.0,3.0,1.0,phase_2,stop,100.0,200.0,4.0,,,,,,,,,white,triangle
0.0,1.0,0.5,0.0,6.0,6.0,391.7316393926739,3.0,1.0,phase_2,go,100.0,250.0,1.0,,,,,,,,,cyan,hexagon
0.0,2.0,1.0,0.0,6.0,6.0,401.4012757688761,3.0,1.0,phase_2,go,100.0,250.0,1.0,,,,,,,,,green,cross
0.0,5.0,0.5,1.0,5.0,0.0,0.0,3.0,1.0,phase_2,stop,100.0,250.0,4.0,,,,,,,,,gray,diamond
0.0,5.0,0.5,1.0,5.0,0.0,0.0,3.0,1.0,phase_2,stop,150.0,250.0,4.0,,,,,,,,,gray,diamond
0.0,4.0,4.0,0.0,5.0,5.0,495.8913479931652,3.0,1.0,phase_2,go,200.0,250.0,1.0,,,,,,,,,blue,square
0.0,5.0,0.5,1.0,6.0,0.0,0.0,3.0,1.0,phase_2,stop,200.0,250.0,4.0,,,,,,,,,gray,diamond
0.0,7.0,2.0,1.0,5.0,5.0,366.337682120502,3.0,1.0,phase_2,stop,200.0,300.0,3.0,,,,,,,,,orange,I
0.0,5.0,0.5,1.0,6.0,6.0,270.6084041856229,3.0,1.0,phase_2,stop,150.0,300.0,3.0,,,,,,,,,gray,diamond
0.0,4.0,4.0,0.0,6.0,6.0,428.8322259671986,3.0,1.0,phase_2,go,150.0,250.0,1.0,,,,,,,,,blue,square
0.0,1.0,0.5,0.0,6.0,6.0,369.7111778892576,3.0,1.0,phase_2,go,150.0,250.0,1.0,,,,,,,,,cyan,hexagon
0.0,2.0,1.0,0.0,5.0,5.0,291.1302298307419,3.0,1.0,phase_2,go,150.0,250.0,1.0,,,,,,,,,green,cross
0.0,7.0,2.0,1.0,5.0,5.0,435.1812619715929,3.0,1.0,phase_2,go,150.0,250.0,1.0,,,,,,,,,orange,I
0.0,4.0,4.0,0.0,6.0,6.0,420.6101936288178,3.0,1.0,phase_2,go,150.0,250.0,1.0,,,,,,,,,blue,square
0.0,6.0,1.0,1.0,5.0,5.0,465.7351388595998,3.0,1.0,phase_2,go,150.0,250.0,1.0,,,,,,,,,white,triangle
0.0,3.0,2.0,0.0,5.0,5.0,314.4285161979496,3.0,1.0,phase_2,go,150.0,250.0,1.0,,,,,,,,,yellow,flipped triangle
0.0,7.0,2.0,1.0,6.0,6.0,302.9005550779402,3.0,1.0,phase_2,go,150.0,250.0,1.0,,,,,,,,,orange,I
0.0,4.0,4.0,0.0,5.0,5.0,383.363660890609,3.0,1.0,phase_2,go,150.0,250.0,1.0,,,,,,,,,blue,square
0.0,6.0,1.0,1.0,6.0,6.0,295.4978789202869,3.0,1.0,phase_2,stop,150.0,250.0,3.0,,,,,,,,,white,triangle
0.0,1.0,0.5,0.0,6.0,6.0,351.5634750947356,3.0,1.0,phase_2,go,150.0,200.0,1.0,,,,,,,,,cyan,hexagon
0.0,4.0,4.0,0.0,6.0,6.0,389.4457658752799,3.0,1.0,phase_2,go,150.0,200.0,1.0,,,,,,,,,blue,square
0.0,5.0,0.5,1.0,5.0,0.0,0.0,3.0,1.0,phase_2,stop,150.0,200.0,4.0,,,,,,,,,gray,diamond
0.0,2.0,1.0,0.0,5.0,5.0,294.9017998762429,3.0,1.0,phase_2,go,200.0,200.0,1.0,,,,,,,,,green,cross
0.0,2.0,1.0,0.0,5.0,5.0,404.9488971941173,3.0,1.0,phase_2,go,200.0,200.0,1.0,,,,,,,,,green,cross
0.0,5.0,0.5,1.0,5.0,0.0,0.0,3.0,1.0,phase_2,stop,200.0,200.0,4.0,,,,,,,,,gray,diamond
0.0,1.0,0.5,0.0,6.0,6.0,540.4323600232601,3.0,1.0,phase_2,go,250.0,200.0,1.0,,,,,,,,,cyan,hexagon
0.0,8.0,4.0,1.0,5.0,5.0,443.9090997911989,3.0,1.0,phase_2,go,250.0,200.0,1.0,,,,,,,,,magenta,circle
0.0,1.0,0.5,0.0,5.0,5.0,481.3089552335441,3.0,1.0,phase_2,go,250.0,200.0,1.0,,,,,,,,,cyan,hexagon
0.0,1.0,0.5,0.0,5.0,5.0,345.2263157814741,3.0,1.0,phase_2,go,250.0,200.0,1.0,,,,,,,,,cyan,hexagon
0.0,4.0,4.0,0.0,6.0,6.0,266.4017686620354,3.0,1.0,phase_2,go,250.0,200.0,1.0,,,,,,,,,blue,square
0.0,5.0,0.5,1.0,6.0,6.0,408.4955160506069,3.0,1.0,phase_2,go,250.0,200.0,1.0,,,,,,,,,gray,diamond
0.0,2.0,1.0,0.0,5.0,5.0,430.6407580152154,3.0,1.0,phase_2,go,250.0,200.0,1.0,,,,,,,,,green,cross
0.0,8.0,4.0,1.0,5.0,5.0,374.2596614174545,3.0,1.0,phase_2,stop,250.0,200.0,3.0,,,,,,,,,magenta,circle
0.0,8.0,4.0,1.0,5.0,5.0,555.4618951864541,4.0,1.0,phase_2,go,200.0,200.0,1.0,,,,,,,,,magenta,circle
0.0,4.0,4.0,0.0,5.0,5.0,312.8149900585413,4.0,1.0,phase_2,go,200.0,200.0,1.0,,,,,,,,,blue,square
0.0,1.0,0.5,0.0,5.0,5.0,295.5463882535696,4.0,1.0,phase_2,go,200.0,200.0,1.0,,,,,,,,,cyan,hexagon
0.0,4.0,4.0,0.0,5.0,5.0,313.1509628146887,4.0,1.0,phase_2,go,200.0,200.0,1.0,,,,,,,,,blue,square
0.0,4.0,4.0,0.0,6.0,6.0,440.1733828708529,4.0,1.0,phase_2,go,200.0,200.0,1.0,,,,,,,,,blue,square
0.0,1.0,0.5,0.0,5.0,5.0,414.3585721030831,4.0,1.0,phase_2,go,200.0,200.0,1.0,,,,,,,,,cyan,hexagon
0.0,6.0,1.0,1.0,6.0,6.0,245.3905306756496,4.0,1.0,phase_2,stop,200.0,200.0,3.0,,,,,,,,,white,triangle
0.0,7.0,2.0,1.0,5.0,5.0,311.7354330606758,4.0,1.0,phase_2,go,200.0,150.0,1.0,,,,,,,,,orange,I
0.0,1.0,0.5,0.0,5.0,5.0,300.501043908298,4.0,1.0,phase_2,go,200.0,150.0,1.0,,,,,,,,,cyan,hexagon
0.0,8.0,4.0,1.0,5.0,5.0,302.7247809804976,4.0,1.0,phase_2,stop,200.0,150.0,3.0,,,,,,,,,magenta,circle
0.0,4.0,4.0,0.0,5.0,5.0,507.3518226854503,4.0,1.0,phase_2,go,150.0,150.0,1.0,,,,,,,,,blue,square
0.0,3.0,2.0,0.0,5.0,5.0,306.9487032480538,4.0,1.0,phase_2,go,150.0,150.0,1.0,,,,,,,,,yellow,flipped triangle
0.0,8.0,4.0,1.0,6.0,6.0,275.4098419100046,4.0,1.0,phase_2,stop,150.0,150.0,3.0,,,,,,,,,magenta,circle
0.0,1.0,0.5,0.0,6.0,6.0,337.6584970392287,4.0,1.0,phase_2,go,150.0,100.0,1.0,,,,,,,,,cyan,hexagon
0.0,6.0,1.0,1.0,6.0,0.0,0.0,4.0,1.0,phase_2,stop,150.0,100.0,4.0,,,,,,,,,white,triangle
0.0,4.0,4.0,0.0,5.0,5.0,432.3631646111607,4.0,1.0,phase_2,go,150.0,150.0,1.0,,,,,,,,,blue,square
0.0,2.0,1.0,0.0,5.0,5.0,321.9297798350453,4.0,1.0,phase_2,go,150.0,150.0,1.0,,,,,,,,,green,cross
0.0,1.0,0.5,0.0,5.0,5.0,280.8240428566932,4.0,1.0,phase_2,go,150.0,150.0,1.0,,,,,,,,,cyan,hexagon
0.0,3.0,2.0,0.0,6.0,6.0,330.7993710041046,4.0,1.0,phase_2,go,150.0,150.0,1.0,,,,,,,,,yellow,flipped triangle
0.0,3.0,2.0,0.0,6.0,6.0,280.4603073745966,4.0,1.0,phase_2,go,150.0,150.0,1.0,,,,,,,,,yellow,flipped triangle
0.0,3.0,2.0,0.0,5.0,5.0,263.068214058876,4.0,1.0,phase_2,go,150.0,150.0,1.0,,,,,,,,,yellow,flipped triangle
0.0,8.0,4.0,1.0,6.0,6.0,253.8928128778934,4.0,1.0,phase_2,stop,150.0,150.0,3.0,,,,,,,,,magenta,circle
0.0,4.0,4.0,0.0,6.0,6.0,308.7373352609575,4.0,1.0,phase_2,go,150.0,100.0,1.0,,,,,,,,,blue,square
0.0,2.0,1.0,0.0,6.0,6.0,292.9687229916453,4.0,1.0,phase_2,go,150.0,100.0,1.0,,,,,,,,,green,cross
0.0,8.0,4.0,1.0,6.0,0.0,0.0,4.0,1.0,phase_2,stop,150.0,100.0,4.0,,,,,,,,,magenta,circle
0.0,6.0,1.0,1.0,6.0,0.0,0.0,4.0,1.0,phase_2,stop,150.0,150.0,4.0,,,,,,,,,white,triangle
0.0,2.0,1.0,0.0,5.0,5.0,317.1908939257264,4.0,1.0,phase_2,go,150.0,200.0,1.0,,,,,,,,,green,cross
0.0,1.0,0.5,0.0,6.0,6.0,300.8412532508373,4.0,1.0,phase_2,go,150.0,200.0,1.0,,,,,,,,,cyan,hexagon
0.0,8.0,4.0,1.0,6.0,6.0,300.1042930409312,4.0,1.0,phase_2,stop,150.0,200.0,3.0,,,,,,,,,magenta,circle
0.0,8.0,4.0,1.0,5.0,5.0,370.2789088711142,4.0,1.0,phase_2,stop,150.0,150.0,3.0,,,,,,,,,magenta,circle
0.0,4.0,4.0,0.0,5.0,5.0,392.0359718613326,4.0,1.0,phase_2,go,100.0,150.0,1.0,,,,,,,,,blue,square
0.0,5.0,0.5,1.0,6.0,6.0,295.7344399765134,4.0,1.0,phase_2,stop,100.0,150.0,3.0,,,,,,,,,gray,diamond
0.0,1.0,0.5,0.0,6.0,6.0,458.7730760686099,4.0,1.0,phase_2,go,100.0,100.0,1.0,,,,,,,,,cyan,hexagon
0.0,5.0,0.5,1.0,5.0,0.0,0.0,4.0,1.0,phase_2,stop,100.0,100.0,4.0,,,,,,,,,gray,diamond
0.0,8.0,4.0,1.0,5.0,0.0,0.0,4.0,1.0,phase_2,stop,150.0,100.0,4.0,,,,,,,,,magenta,circle
0.0,5.0,0.5,1.0,6.0,0.0,0.0,4.0,1.0,phase_2,stop,200.0,100.0,4.0,,,,,,,,,gray,diamond
0.0,5.0,0.5,1.0,5.0,5.0,1317.931889090687,5.0,1.0,phase_2,go,200.0,150.0,1.0,,,,,,,,,gray,diamond
0.0,1.0,0.5,0.0,6.0,6.0,490.0695099495351,5.0,1.0,phase_2,go,200.0,150.0,1.0,,,,,,,,,cyan,hexagon
0.0,7.0,2.0,1.0,6.0,0.0,0.0,5.0,1.0,phase_2,stop,200.0,150.0,4.0,,,,,,,,,orange,I
0.0,1.0,0.5,0.0,5.0,5.0,337.4752020463347,5.0,1.0,phase_2,go,200.0,200.0,1.0,,,,,,,,,cyan,hexagon
0.0,2.0,1.0,0.0,6.0,6.0,394.7269837372005,5.0,1.0,phase_2,go,200.0,200.0,1.0,,,,,,,,,green,cross
0.0,6.0,1.0,1.0,5.0,0.0,0.0,5.0,1.0,phase_2,stop,200.0,200.0,4.0,,,,,,,,,white,triangle
0.0,2.0,1.0,0.0,5.0,5.0,448.6882565543055,5.0,1.0,phase_2,go,250.0,200.0,1.0,,,,,,,,,green,cross
0.0,2.0,1.0,0.0,5.0,5.0,479.6974998898804,5.0,1.0,phase_2,go,250.0,200.0,1.0,,,,,,,,,green,cross
0.0,4.0,4.0,0.0,6.0,6.0,502.90363375097513,5.0,1.0,phase_2,go,250.0,200.0,1.0,,,,,,,,,blue,square
0.0,7.0,2.0,1.0,5.0,0.0,0.0,5.0,1.0,phase_2,stop,250.0,200.0,4.0,,,,,,,,,orange,I
0.0,8.0,4.0,1.0,6.0,0.0,0.0,5.0,1.0,phase_2,stop,300.0,200.0,4.0,,,,,,,,,magenta,circle
0.0,5.0,0.5,1.0,5.0,0.0,0.0,5.0,1.0,phase_2,stop,300.0,250.0,4.0,,,,,,,,,gray,diamond
0.0,1.0,0.5,0.0,5.0,5.0,503.7316191010177,5.0,1.0,phase_2,go,350.0,250.0,1.0,,,,,,,,,cyan,hexagon
0.0,5.0,0.5,1.0,5.0,5.0,437.9301341250539,5.0,1.0,phase_2,stop,350.0,250.0,3.0,,,,,,,,,gray,diamond
0.0,4.0,4.0,0.0,5.0,5.0,635.7367080636322,5.0,1.0,phase_2,go,300.0,250.0,1.0,,,,,,,,,blue,square
0.0,5.0,0.5,1.0,6.0,0.0,0.0,5.0,1.0,phase_2,stop,300.0,250.0,4.0,,,,,,,,,gray,diamond
0.0,1.0,0.5,0.0,6.0,6.0,458.3748248405754,5.0,1.0,phase_2,go,300.0,300.0,1.0,,,,,,,,,cyan,hexagon
0.0,4.0,4.0,0.0,5.0,5.0,554.839096032083,5.0,1.0,phase_2,go,300.0,300.0,1.0,,,,,,,,,blue,square
0.0,6.0,1.0,1.0,6.0,0.0,0.0,5.0,1.0,phase_2,stop,300.0,300.0,4.0,,,,,,,,,white,triangle
0.0,2.0,1.0,0.0,5.0,5.0,441.6179847903549,5.0,1.0,phase_2,go,300.0,350.0,1.0,,,,,,,,,green,cross
0.0,4.0,4.0,0.0,6.0,6.0,842.8374528884888,5.0,1.0,phase_2,go,300.0,350.0,1.0,,,,,,,,,blue,square
0.0,7.0,2.0,1.0,6.0,6.0,481.8352633155882,5.0,1.0,phase_2,stop,300.0,350.0,3.0,,,,,,,,,orange,I
0.0,4.0,4.0,0.0,6.0,6.0,670.4053329303861,5.0,1.0,phase_2,go,300.0,300.0,1.0,,,,,,,,,blue,square
0.0,1.0,0.5,0.0,5.0,5.0,495.8913889713585,5.0,1.0,phase_2,go,300.0,300.0,1.0,,,,,,,,,cyan,hexagon
0.0,3.0,2.0,0.0,5.0,5.0,417.5588898360729,5.0,1.0,phase_2,go,300.0,300.0,1.0,,,,,,,,,yellow,flipped triangle
0.0,4.0,4.0,0.0,5.0,5.0,300.850564148277,5.0,1.0,phase_2,go,300.0,300.0,1.0,,,,,,,,,blue,square
0.0,6.0,1.0,1.0,6.0,0.0,0.0,5.0,1.0,phase_2,stop,300.0,300.0,4.0,,,,,,,,,white,triangle
0.0,5.0,0.5,1.0,5.0,5.0,397.3672739230096,5.0,1.0,phase_2,go,300.0,350.0,1.0,,,,,,,,,gray,diamond
0.0,3.0,2.0,0.0,5.0,5.0,477.1521962247789,5.0,1.0,phase_2,go,300.0,350.0,1.0,,,,,,,,,yellow,flipped triangle
0.0,5.0,0.5,1.0,5.0,0.0,0.0,5.0,1.0,phase_2,stop,300.0,350.0,4.0,,,,,,,,,gray,diamond
0.0,7.0,2.0,1.0,5.0,5.0,490.3201749548316,5.0,1.0,phase_2,stop,350.0,350.0,3.0,,,,,,,,,orange,I
0.0,5.0,0.5,1.0,6.0,0.0,0.0,5.0,1.0,phase_2,stop,300.0,350.0,4.0,,,,,,,,,gray,diamond
0.0,2.0,1.0,0.0,6.0,6.0,466.5063638240099,5.0,1.0,phase_2,go,300.0,400.0,1.0,,,,,,,,,green,cross
0.0,1.0,0.5,0.0,6.0,6.0,514.174073934555,5.0,1.0,phase_2,go,300.0,400.0,1.0,,,,,,,,,cyan,hexagon
0.0,3.0,2.0,0.0,5.0,5.0,568.8554039224982,5.0,1.0,phase_2,go,300.0,400.0,1.0,,,,,,,,,yellow,flipped triangle
0.0,7.0,2.0,1.0,6.0,6.0,439.5140958949923,5.0,1.0,phase_2,stop,300.0,400.0,3.0,,,,,,,,,orange,I
0.0,2.0,1.0,0.0,6.0,6.0,650.3853211179376,6.0,1.0,phase_2,go,300.0,350.0,1.0,,,,,,,,,green,cross
0.0,6.0,1.0,1.0,5.0,0.0,0.0,6.0,1.0,phase_2,stop,300.0,350.0,4.0,,,,,,,,,white,triangle
0.0,5.0,0.5,1.0,6.0,6.0,475.9835372678935,6.0,1.0,phase_2,go,350.0,350.0,1.0,,,,,,,,,gray,diamond
0.0,3.0,2.0,0.0,6.0,6.0,458.3186227828264,6.0,1.0,phase_2,go,350.0,350.0,1.0,,,,,,,,,yellow,flipped triangle
0.0,4.0,4.0,0.0,5.0,5.0,450.3003368154168,6.0,1.0,phase_2,go,350.0,350.0,1.0,,,,,,,,,blue,square
0.0,5.0,0.5,1.0,6.0,0.0,0.0,6.0,1.0,phase_2,stop,350.0,350.0,4.0,,,,,,,,,gray,diamond
0.0,3.0,2.0,0.0,5.0,5.0,463.1973230279982,6.0,1.0,phase_2,go,350.0,400.0,1.0,,,,,,,,,yellow,flipped triangle
0.0,4.0,4.0,0.0,6.0,6.0,550.3303450532258,6.0,1.0,phase_2,go,350.0,400.0,1.0,,,,,,,,,blue,square
0.0,3.0,2.0,0.0,5.0,5.0,558.6726740002632,6.0,1.0,phase_2,go,350.0,400.0,1.0,,,,,,,,,yellow,flipped triangle
0.0,6.0,1.0,1.0,5.0,5.0,397.2554211504757,6.0,1.0,phase_2,stop,350.0,400.0,3.0,,,,,,,,,white,triangle
0.0,2.0,1.0,0.0,5.0,5.0,695.473728235811,6.0,1.0,phase_2,go,300.0,400.0,1.0,,,,,,,,,green,cross
0.0,2.0,1.0,0.0,6.0,6.0,652.519182767719,6.0,1.0,phase_2,go,300.0,400.0,1.0,,,,,,,,,green,cross
0.0,4.0,4.0,0.0,5.0,5.0,461.6542058065533,6.0,1.0,phase_2,go,300.0,400.0,1.0,,,,,,,,,blue,square
0.0,2.0,1.0,0.0,6.0,6.0,564.2094500362873,6.0,1.0,phase_2,go,300.0,400.0,1.0,,,,,,,,,green,cross
0.0,4.0,4.0,0.0,6.0,6.0,500.74490206316113,6.0,1.0,phase_2,go,300.0,400.0,1.0,,,,,,,,,blue,square
0.0,1.0,0.5,0.0,6.0,6.0,509.01044718921185,6.0,1.0,phase_2,go,300.0,400.0,1.0,,,,,,,,,cyan,hexagon
0.0,2.0,1.0,0.0,5.0,5.0,498.4170272946358,6.0,1.0,phase_2,go,300.0,400.0,1.0,,,,,,,,,green,cross
0.0,4.0,4.0,0.0,5.0,5.0,492.0099461451173,6.0,1.0,phase_2,go,300.0,400.0,1.0,,,,,,,,,blue,square
0.0,1.0,0.5,0.0,6.0,6.0,618.1468088179827,6.0,1.0,phase_2,go,300.0,400.0,1.0,,,,,,,,,cyan,hexagon
0.0,6.0,1.0,1.0,5.0,0.0,0.0,6.0,1.0,phase_2,stop,300.0,400.0,4.0,,,,,,,,,white,triangle
0.0,8.0,4.0,1.0,6.0,6.0,481.0622078366577,6.0,1.0,phase_2,stop,350.0,400.0,3.0,,,,,,,,,magenta,circle
0.0,2.0,1.0,0.0,6.0,6.0,562.1944349259138,6.0,1.0,phase_2,go,350.0,350.0,1.0,,,,,,,,,green,cross
0.0,5.0,0.5,1.0,5.0,0.0,0.0,6.0,1.0,phase_2,stop,350.0,350.0,4.0,,,,,,,,,gray,diamond
0.0,3.0,2.0,0.0,5.0,5.0,495.542611926794,6.0,1.0,phase_2,go,400.0,350.0,1.0,,,,,,,,,yellow,flipped triangle
0.0,3.0,2.0,0.0,6.0,6.0,567.2319638542831,6.0,1.0,phase_2,go,400.0,350.0,1.0,,,,,,,,,yellow,flipped triangle
0.0,2.0,1.0,0.0,5.0,5.0,629.3017719872296,6.0,1.0,phase_2,go,400.0,350.0,1.0,,,,,,,,,green,cross
0.0,3.0,2.0,0.0,5.0,5.0,525.1911240629852,6.0,1.0,phase_2,go,400.0,350.0,1.0,,,,,,,,,yellow,flipped triangle
0.0,8.0,4.0,1.0,5.0,0.0,0.0,6.0,1.0,phase_2,stop,400.0,350.0,4.0,,,,,,,,,magenta,circle
0.0,6.0,1.0,1.0,5.0,5.0,571.1867986246943,6.0,1.0,phase_2,stop,450.0,350.0,3.0,,,,,,,,,white,triangle
0.0,3.0,2.0,0.0,5.0,5.0,652.5342492386699,6.0,1.0,phase_2,go,400.0,350.0,1.0,,,,,,,,,yellow,flipped triangle
0.0,1.0,0.5,0.0,6.0,6.0,605.9849122539163,6.0,1.0,phase_2,go,400.0,350.0,1.0,,,,,,,,,cyan,hexagon
0.0,2.0,1.0,0.0,5.0,5.0,891.0720450803638,6.0,1.0,phase_2,go,400.0,350.0,1.0,,,,,,,,,green,cross
0.0,6.0,1.0,1.0,6.0,6.0,674.6930810622871,6.0,1.0,phase_2,go,400.0,350.0,1.0,,,,,,,,,white,triangle
0.0,3.0,2.0,0.0,6.0,6.0,584.0833480469882,6.0,1.0,phase_2,go,400.0,350.0,1.0,,,,,,,,,yellow,flipped triangle
0.0,4.0,4.0,0.0,5.0,5.0,632.8076599165797,6.0,1.0,phase_2,go,400.0,350.0,1.0,,,,,,,,,blue,square
0.0,3.0,2.0,0.0,6.0,6.0,623.8915668800473,6.0,1.0,phase_2,go,400.0,350.0,1.0,,,,,,,,,yellow,flipped triangle
0.0,2.0,1.0,0.0,6.0,6.0,764.8478159680963,7.0,1.0,phase_2,go,400.0,350.0,1.0,,,,,,,,,green,cross
0.0,7.0,2.0,1.0,5.0,5.0,476.3198657892644,7.0,1.0,phase_2,go,400.0,350.0,1.0,,,,,,,,,orange,I
0.0,6.0,1.0,1.0,5.0,0.0,0.0,7.0,1.0,phase_2,stop,400.0,350.0,4.0,,,,,,,,,white,triangle
0.0,8.0,4.0,1.0,6.0,6.0,457.3283270001411,7.0,1.0,phase_2,stop,450.0,350.0,3.0,,,,,,,,,magenta,circle
0.0,3.0,2.0,0.0,6.0,6.0,632.8199598938227,7.0,1.0,phase_2,go,450.0,300.0,1.0,,,,,,,,,yellow,flipped triangle
0.0,3.0,2.0,0.0,6.0,6.0,522.1427110955119,7.0,1.0,phase_2,go,450.0,300.0,1.0,,,,,,,,,yellow,flipped triangle
0.0,7.0,2.0,1.0,6.0,0.0,0.0,7.0,1.0,phase_2,stop,450.0,300.0,4.0,,,,,,,,,orange,I
0.0,7.0,2.0,1.0,5.0,0.0,0.0,7.0,1.0,phase_2,stop,450.0,350.0,4.0,,,,,,,,,orange,I
0.0,2.0,1.0,0.0,6.0,6.0,769.4290550425649,7.0,1.0,phase_2,go,500.0,350.0,1.0,,,,,,,,,green,cross
0.0,1.0,0.5,0.0,6.0,6.0,694.9135959148407,7.0,1.0,phase_2,go,500.0,350.0,1.0,,,,,,,,,cyan,hexagon
0.0,3.0,2.0,0.0,6.0,6.0,879.9007870256901,7.0,1.0,phase_2,go,500.0,350.0,1.0,,,,,,,,,yellow,flipped triangle
0.0,8.0,4.0,1.0,6.0,0.0,0.0,7.0,1.0,phase_2,stop,500.0,350.0,4.0,,,,,,,,,magenta,circle
0.0,3.0,2.0,0.0,5.0,5.0,828.1778530217707,7.0,1.0,phase_2,go,500.0,400.0,1.0,,,,,,,,,yellow,flipped triangle
0.0,8.0,4.0,1.0,6.0,0.0,0.0,7.0,1.0,phase_2,stop,500.0,400.0,4.0,,,,,,,,,magenta,circle
0.0,6.0,1.0,1.0,5.0,0.0,0.0,7.0,1.0,phase_2,stop,500.0,450.0,4.0,,,,,,,,,white,triangle
0.0,6.0,1.0,1.0,5.0,5.0,652.917412109673,7.0,1.0,phase_2,stop,550.0,450.0,3.0,,,,,,,,,white,triangle
0.0,4.0,4.0,0.0,5.0,5.0,716.1966767162085,7.0,1.0,phase_2,go,500.0,450.0,1.0,,,,,,,,,blue,square
0.0,8.0,4.0,1.0,6.0,0.0,0.0,7.0,1.0,phase_2,stop,500.0,450.0,4.0,,,,,,,,,magenta,circle
0.0,5.0,0.5,1.0,5.0,0.0,0.0,7.0,1.0,phase_2,stop,500.0,500.0,4.0,,,,,,,,,gray,diamond
0.0,8.0,4.0,1.0,6.0,6.0,835.3401329368353,7.0,1.0,phase_2,go,550.0,500.0,1.0,,,,,,,,,magenta,circle
0.0,7.0,2.0,1.0,5.0,5.0,465.0234351865947,7.0,1.0,phase_2,stop,550.0,500.0,3.0,,,,,,,,,orange,I
0.0,8.0,4.0,1.0,5.0,0.0,0.0,7.0,1.0,phase_2,stop,500.0,500.0,4.0,,,,,,,,,magenta,circle
0.0,3.0,2.0,0.0,6.0,6.0,962.925781030208,7.0,1.0,phase_2,go,550.0,500.0,1.0,,,,,,,,,yellow,flipped triangle
0.0,8.0,4.0,1.0,5.0,5.0,1154.6240858733654,7.0,1.0,phase_2,go,550.0,500.0,1.0,,,,,,,,,magenta,circle
0.0,7.0,2.0,1.0,6.0,0.0,0.0,7.0,1.0,phase_2,stop,550.0,500.0,4.0,,,,,,,,,orange,I
0.0,3.0,2.0,0.0,6.0,6.0,824.2081762291491,7.0,1.0,phase_2,go,550.0,550.0,1.0,,,,,,,,,yellow,flipped triangle
0.0,7.0,2.0,1.0,5.0,0.0,0.0,7.0,1.0,phase_2,stop,550.0,550.0,4.0,,,,,,,,,orange,I
0.0,5.0,0.5,1.0,5.0,0.0,0.0,7.0,1.0,phase_2,stop,600.0,550.0,4.0,,,,,,,,,gray,diamond
0.0,7.0,2.0,1.0,6.0,0.0,0.0,7.0,1.0,phase_2,stop,650.0,550.0,4.0,,,,,,,,,orange,I
0.0,4.0,4.0,0.0,6.0,6.0,694.0077790059149,7.0,1.0,phase_2,go,650.0,600.0,1.0,,,,,,,,,blue,square
0.0,6.0,1.0,1.0,6.0,0.0,0.0,7.0,1.0,phase_2,stop,650.0,600.0,4.0,,,,,,,,,white,triangle
0.0,7.0,2.0,1.0,6.0,6.0,802.0780459046364,7.0,1.0,phase_2,go,650.0,650.0,1.0,,,,,,,,,orange,I
0.0,6.0,1.0,1.0,6.0,6.0,881.9930818863213,7.0,1.0,phase_2,go,650.0,650.0,1.0,,,,,,,,,white,triangle
0.0,6.0,1.0,1.0,5.0,0.0,0.0,7.0,1.0,phase_2,stop,650.0,650.0,4.0,,,,,,,,,white,triangle
0.0,3.0,2.0,0.0,6.0,6.0,864.3843079917133,7.0,1.0,phase_2,go,700.0,650.0,1.0,,,,,,,,,yellow,flipped triangle
0.0,7.0,2.0,1.0,5.0,5.0,856.6949469968677,7.0,1.0,phase_2,stop,700.0,650.0,3.0,,,,,,,,,orange,I
0.0,6.0,1.0,1.0,6.0,6.0,361.686201300472,8.0,1.0,phase_2,stop,650.0,650.0,3.0,,,,,,,,,white,triangle
0.0,8.0,4.0,1.0,6.0,6.0,423.7674023024738,8.0,1.0,phase_2,stop,650.0,600.0,3.0,,,,,,,,,magenta,circle
0.0,4.0,4.0,0.0,6.0,6.0,783.9488401077688,8.0,1.0,phase_2,go,650.0,550.0,1.0,,,,,,,,,blue,square
0.0,8.0,4.0,1.0,5.0,5.0,778.6002089269459,8.0,1.0,phase_2,stop,650.0,550.0,3.0,,,,,,,,,magenta,circle
0.0,8.0,4.0,1.0,6.0,6.0,808.5034689866006,8.0,1.0,phase_2,go,600.0,550.0,1.0,,,,,,,,,magenta,circle
0.0,6.0,1.0,1.0,5.0,5.0,637.9596400074661,8.0,1.0,phase_2,go,600.0,550.0,1.0,,,,,,,,,white,triangle
0.0,3.0,2.0,0.0,5.0,5.0,616.183496080339,8.0,1.0,phase_2,go,600.0,550.0,1.0,,,,,,,,,yellow,flipped triangle
0.0,1.0,0.5,0.0,5.0,5.0,693.9654340967536,8.0,1.0,phase_2,go,600.0,550.0,1.0,,,,,,,,,cyan,hexagon
0.0,1.0,0.5,0.0,5.0,5.0,645.4902901314199,8.0,1.0,phase_2,go,600.0,550.0,1.0,,,,,,,,,cyan,hexagon
0.0,2.0,1.0,0.0,6.0,6.0,508.35268199443817,8.0,1.0,phase_2,go,600.0,550.0,1.0,,,,,,,,,green,cross
0.0,8.0,4.0,1.0,5.0,5.0,500.44615007936954,8.0,1.0,phase_2,stop,600.0,550.0,3.0,,,,,,,,,magenta,circle
0.0,3.0,2.0,0.0,6.0,6.0,653.5592111758888,8.0,1.0,phase_2,go,550.0,550.0,1.0,,,,,,,,,yellow,flipped triangle
0.0,2.0,1.0,0.0,6.0,6.0,691.7721629142761,8.0,1.0,phase_2,go,550.0,550.0,1.0,,,,,,,,,green,cross
0.0,7.0,2.0,1.0,5.0,0.0,0.0,8.0,1.0,phase_2,stop,550.0,550.0,4.0,,,,,,,,,orange,I
0.0,1.0,0.5,0.0,6.0,6.0,649.2219883948565,8.0,1.0,phase_2,go,600.0,550.0,1.0,,,,,,,,,cyan,hexagon
0.0,8.0,4.0,1.0,5.0,0.0,0.0,8.0,1.0,phase_2,stop,600.0,550.0,4.0,,,,,,,,,magenta,circle
0.0,4.0,4.0,0.0,6.0,6.0,897.1912357956171,8.0,1.0,phase_2,go,650.0,550.0,1.0,,,,,,,,,blue,square
0.0,8.0,4.0,1.0,5.0,0.0,0.0,8.0,1.0,phase_2,stop,650.0,550.0,4.0,,,,,,,,,magenta,circle
0.0,3.0,2.0,0.0,6.0,6.0,518.0235640145838,8.0,1.0,phase_2,go,700.0,550.0,1.0,,,,,,,,,yellow,flipped triangle
0.0,6.0,1.0,1.0,6.0,0.0,0.0,8.0,1.0,phase_2,stop,700.0,550.0,4.0,,,,,,,,,white,triangle
0.0,5.0,0.5,1.0,5.0,5.0,767.9729978553951,8.0,1.0,phase_2,stop,700.0,600.0,3.0,,,,,,,,,gray,diamond
0.0,1.0,0.5,0.0,5.0,5.0,902.7383457869292,8.0,1.0,phase_2,go,650.0,600.0,1.0,,,,,,,,,cyan,hexagon
0.0,7.0,2.0,1.0,5.0,0.0,0.0,8.0,1.0,phase_2,stop,650.0,600.0,4.0,,,,,,,,,orange,I
0.0,6.0,1.0,1.0,5.0,5.0,828.5091938450933,8.0,1.0,phase_2,stop,700.0,600.0,3.0,,,,,,,,,white,triangle
0.0,7.0,2.0,1.0,5.0,0.0,0.0,8.0,1.0,phase_2,stop,650.0,600.0,4.0,,,,,,,,,orange,I
0.0,5.0,0.5,1.0,5.0,5.0,858.9760102331638,8.0,1.0,phase_2,go,700.0,600.0,1.0,,,,,,,,,gray,diamond
0.0,4.0,4.0,0.0,6.0,6.0,706.1450500041246,8.0,1.0,phase_2,go,700.0,600.0,1.0,,,,,,,,,blue,square
0.0,3.0,2.0,0.0,5.0,5.0,744.9288498610258,8.0,1.0,phase_2,go,700.0,600.0,1.0,,,,,,,,,yellow,flipped triangle
0.0,3.0,2.0,0.0,6.0,6.0,665.5400772579014,8.0,1.0,phase_2,go,700.0,600.0,1.0,,,,,,,,,yellow,flipped triangle
0.0,2.0,1.0,0.0,5.0,5.0,471.9507088884711,8.0,1.0,phase_2,go,700.0,600.0,1.0,,,,,,,,,green,cross
0.0,5.0,0.5,1.0,6.0,6.0,480.0853664055466,8.0,1.0,phase_2,go,700.0,600.0,1.0,,,,,,,,,gray,diamond
0.0,7.0,2.0,1.0,5.0,5.0,511.7939920164645,8.0,1.0,phase_2,stop,700.0,600.0,3.0,,,,,,,,,orange,I
0.0,5.0,0.5,1.0,6.0,0.0,0.0,8.0,1.0,phase_2,stop,650.0,600.0,4.0,,,,,,,,,gray,diamond
0.0,2.0,1.0,0.0,5.0,5.0,1065.8907010219991,8.0,1.0,phase_2,go,650.0,650.0,1.0,,,,,,,,,green,cross
0.0,6.0,1.0,1.0,6.0,6.0,789.1725082881749,8.0,1.0,phase_2,go,650.0,650.0,1.0,,,,,,,,,white,triangle
0.0,2.0,1.0,0.0,6.0,6.0,592.1072107739747,8.0,1.0,phase_2,go,650.0,650.0,1.0,,,,,,,,,green,cross
0.0,5.0,0.5,1.0,7.0,5.0,121.27998005598779,1.0,1.0,phase_3,,,,,270.0,5.0,54.0,108.0,162.0,216.0,270.0,324.0,gray,diamond
0.0,2.0,1.0,0.0,7.0,2.0,533.0238612368703,1.0,2.0,phase_3,,,,,117.0,3.0,78.0,117.0,234.0,195.0,156.0,39.0,green,cross
0.0,5.0,0.5,1.0,7.0,4.0,1379.0292730554938,1.0,1.0,phase_3,,,,,270.0,5.0,216.0,162.0,54.0,270.0,108.0,324.0,gray,diamond
0.0,2.0,1.0,0.0,7.0,1.0,2556.69789807871,1.0,1.0,phase_3,,,,,132.0,3.0,132.0,220.0,264.0,88.0,44.0,176.0,green,cross
0.0,5.0,0.5,1.0,7.0,4.0,2247.6057559251785,1.0,1.0,phase_3,,,,,132.0,3.0,220.0,176.0,88.0,132.0,44.0,264.0,gray,diamond
0.0,8.0,4.0,1.0,7.0,6.0,1766.7629830539229,1.0,1.0,phase_3,,,,,324.0,6.0,54.0,270.0,108.0,216.0,162.0,324.0,magenta,circle
0.0,4.0,4.0,0.0,7.0,3.0,1304.3949017301202,1.0,1.0,phase_3,,,,,156.0,4.0,234.0,117.0,156.0,78.0,39.0,195.0,blue,square
0.0,3.0,2.0,0.0,7.0,1.0,1612.8935418091714,1.0,1.0,phase_3,,,,,294.0,6.0,294.0,196.0,98.0,245.0,147.0,49.0,yellow,flipped triangle
0.0,1.0,0.5,0.0,7.0,5.0,826.8220131285489,1.0,1.0,phase_3,,,,,34.0,1.0,170.0,102.0,204.0,136.0,34.0,68.0,cyan,hexagon
0.0,5.0,0.5,1.0,7.0,6.0,430.2633996121585,1.0,1.0,phase_3,,,,,204.0,6.0,34.0,68.0,102.0,136.0,170.0,204.0,gray,diamond
0.0,7.0,2.0,1.0,7.0,1.0,2231.257890816778,1.0,1.0,phase_3,,,,,324.0,6.0,324.0,270.0,108.0,54.0,162.0,216.0,orange,I
0.0,8.0,4.0,1.0,7.0,6.0,1794.281133916229,1.0,1.0,phase_3,,,,,39.0,1.0,117.0,195.0,234.0,78.0,156.0,39.0,magenta,circle
0.0,5.0,0.5,1.0,7.0,1.0,1651.6589289531112,1.0,1.0,phase_3,,,,,176.0,4.0,176.0,44.0,264.0,132.0,220.0,88.0,gray,diamond
0.0,3.0,2.0,0.0,7.0,2.0,1242.685572244227,1.0,1.0,phase_3,,,,,220.0,5.0,88.0,220.0,44.0,176.0,264.0,132.0,yellow,flipped triangle
0.0,7.0,2.0,1.0,7.0,4.0,1476.289036218077,1.0,1.0,phase_3,,,,,34.0,1.0,136.0,204.0,170.0,34.0,102.0,68.0,orange,I
0.0,6.0,1.0,1.0,7.0,2.0,1822.3617267794907,1.0,1.0,phase_3,,,,,147.0,3.0,196.0,147.0,49.0,294.0,245.0,98.0,white,triangle
0.0,5.0,0.5,1.0,7.0,6.0,2111.996495164931,1.0,1.0,phase_3,,,,,98.0,2.0,294.0,245.0,196.0,147.0,49.0,98.0,gray,diamond
0.0,3.0,2.0,0.0,7.0,3.0,1602.558858692646,1.0,1.0,phase_3,,,,,78.0,2.0,234.0,156.0,78.0,195.0,117.0,39.0,yellow,flipped triangle
0.0,8.0,4.0,1.0,7.0,3.0,2091.617383994162,1.0,1.0,phase_3,,,,,44.0,1.0,176.0,88.0,44.0,220.0,132.0,264.0,magenta,circle
0.0,2.0,1.0,0.0,7.0,1.0,1130.261064041406,1.0,1.0,phase_3,,,,,132.0,3.0,132.0,88.0,44.0,220.0,176.0,264.0,green,cross
0.0,2.0,1.0,0.0,7.0,2.0,769.351904746145,2.0,1.0,phase_3,,,,,34.0,1.0,204.0,34.0,170.0,136.0,68.0,102.0,green,cross
0.0,6.0,1.0,1.0,7.0,6.0,1051.8967998214066,2.0,1.0,phase_3,,,,,108.0,2.0,270.0,54.0,162.0,324.0,216.0,108.0,white,triangle
0.0,1.0,0.5,0.0,7.0,5.0,965.1838447898626,2.0,1.0,phase_3,,,,,39.0,1.0,195.0,117.0,234.0,156.0,39.0,78.0,cyan,hexagon
0.0,4.0,4.0,0.0,7.0,1.0,1326.6435880213976,2.0,1.0,phase_3,,,,,170.0,5.0,170.0,136.0,68.0,34.0,102.0,204.0,blue,square
0.0,4.0,4.0,0.0,7.0,6.0,1165.312395431101,2.0,1.0,phase_3,,,,,176.0,4.0,44.0,88.0,264.0,220.0,132.0,176.0,blue,square
0.0,3.0,2.0,0.0,7.0,3.0,1006.743717007339,2.0,1.0,phase_3,,,,,54.0,1.0,270.0,324.0,54.0,216.0,108.0,162.0,yellow,flipped triangle
0.0,3.0,2.0,0.0,7.0,2.0,1543.675931636244,2.0,1.0,phase_3,,,,,136.0,4.0,102.0,136.0,68.0,170.0,34.0,204.0,yellow,flipped triangle
0.0,7.0,2.0,1.0,7.0,5.0,811.0058377496898,2.0,1.0,phase_3,,,,,88.0,2.0,44.0,132.0,264.0,176.0,88.0,220.0,orange,I
0.0,2.0,1.0,0.0,7.0,1.0,1972.2334938123824,2.0,1.0,phase_3,,,,,108.0,2.0,108.0,270.0,216.0,54.0,324.0,162.0,green,cross
0.0,6.0,1.0,1.0,7.0,2.0,1483.1021749414504,2.0,1.0,phase_3,,,,,78.0,2.0,39.0,78.0,195.0,117.0,156.0,234.0,white,triangle
0.0,8.0,4.0,1.0,7.0,5.0,764.1988140530884,2.0,1.0,phase_3,,,,,102.0,3.0,68.0,136.0,170.0,34.0,102.0,204.0,magenta,circle
0.0,8.0,4.0,1.0,7.0,1.0,1320.3859273344278,2.0,1.0,phase_3,,,,,68.0,2.0,68.0,170.0,34.0,136.0,204.0,102.0,magenta,circle
0.0,2.0,1.0,0.0,7.0,4.0,1671.3317018002272,2.0,1.0,phase_3,,,,,170.0,5.0,102.0,204.0,34.0,170.0,68.0,136.0,green,cross
0.0,6.0,1.0,1.0,7.0,4.0,2072.612103074789,2.0,1.0,phase_3,,,,,170.0,5.0,34.0,136.0,68.0,170.0,204.0,102.0,white,triangle
0.0,1.0,0.5,0.0,7.0,1.0,1545.7570189610124,2.0,1.0,phase_3,,,,,147.0,3.0,147.0,294.0,245.0,196.0,98.0,49.0,cyan,hexagon
0.0,4.0,4.0,0.0,7.0,6.0,1061.2607062794268,2.0,1.0,phase_3,,,,,102.0,3.0,34.0,68.0,136.0,204.0,170.0,102.0,blue,square
0.0,1.0,0.5,0.0,7.0,1.0,924.2336479946972,2.0,1.0,phase_3,,,,,34.0,1.0,34.0,102.0,170.0,136.0,204.0,68.0,cyan,hexagon
0.0,3.0,2.0,0.0,7.0,4.0,1454.7295067459345,2.0,1.0,phase_3,,,,,204.0,6.0,34.0,136.0,170.0,204.0,68.0,102.0,yellow,flipped triangle
0.0,2.0,1.0,0.0,7.0,6.0,1563.1072912365198,2.0,1.0,phase_3,,,,,54.0,1.0,162.0,324.0,216.0,270.0,108.0,54.0,green,cross
0.0,7.0,2.0,1.0,7.0,5.0,1146.24815993011,2.0,1.0,phase_3,,,,,196.0,4.0,49.0,245.0,294.0,98.0,196.0,147.0,orange,I
0.0,6.0,1.0,1.0,7.0,6.0,782.7421808615327,3.0,1.0,phase_3,,,,,39.0,1.0,195.0,234.0,117.0,78.0,156.0,39.0,white,triangle
0.0,5.0,0.5,1.0,7.0,5.0,831.447129137814,3.0,1.0,phase_3,,,,,34.0,1.0,204.0,68.0,136.0,102.0,34.0,170.0,gray,diamond
0.0,8.0,4.0,1.0,7.0,6.0,1703.0912325717509,3.0,1.0,phase_3,,,,,196.0,4.0,98.0,294.0,147.0,49.0,245.0,196.0,magenta,circle
0.0,1.0,0.5,0.0,7.0,1.0,1059.073848184198,3.0,1.0,phase_3,,,,,216.0,4.0,216.0,324.0,162.0,270.0,54.0,108.0,cyan,hexagon
0.0,6.0,1.0,1.0,7.0,2.0,627.7682930231094,3.0,1.0,phase_3,,,,,44.0,1.0,176.0,44.0,132.0,220.0,264.0,88.0,white,triangle
0.0,3.0,2.0,0.0,7.0,3.0,1141.6934090666473,3.0,1.0,phase_3,,,,,54.0,1.0,108.0,216.0,54.0,270.0,162.0,324.0,yellow,flipped triangle
0.0,1.0,0.5,0.0,7.0,1.0,1214.1182920895517,3.0,1.0,phase_3,,,,,54.0,1.0,54.0,216.0,270.0,162.0,324.0,108.0,cyan,hexagon
0.0,1.0,0.5,0.0,7.0,5.0,1216.952480841428,3.0,1.0,phase_3,,,,,234.0,6.0,156.0,78.0,117.0,39.0,234.0,195.0,cyan,hexagon
0.0,8.0,4.0,1.0,7.0,5.0,1288.8685390353205,3.0,1.0,phase_3,,,,,44.0,1.0,220.0,264.0,132.0,88.0,44.0,176.0,magenta,circle
0.0,4.0,4.0,0.0,7.0,2.0,1264.0822557732465,3.0,1.0,phase_3,,,,,49.0,1.0,294.0,49.0,147.0,196.0,98.0,245.0,blue,square
0.0,5.0,0.5,1.0,7.0,6.0,1355.8639879338443,3.0,1.0,phase_3,,,,,117.0,3.0,234.0,195.0,156.0,78.0,39.0,117.0,gray,diamond
0.0,7.0,2.0,1.0,7.0,1.0,1101.3247040100396,3.0,1.0,phase_3,,,,,196.0,4.0,196.0,98.0,147.0,294.0,245.0,49.0,orange,I
0.0,4.0,4.0,0.0,7.0,1.0,980.3981790319084,3.0,1.0,phase_3,,,,,270.0,5.0,270.0,162.0,324.0,108.0,54.0,216.0,blue,square
0.0,7.0,2.0,1.0,7.0,2.0,1309.8630998283625,3.0,1.0,phase_3,,,,,234.0,6.0,78.0,234.0,39.0,117.0,195.0,156.0,orange,I
0.0,8.0,4.0,1.0,7.0,4.0,1322.903649881482,3.0,1.0,phase_3,,,,,78.0,2.0,195.0,117.0,39.0,78.0,156.0,234.0,magenta,circle
0.0,6.0,1.0,1.0,7.0,5.0,1321.155765093863,3.0,1.0,phase_3,,,,,162.0,3.0,324.0,108.0,216.0,54.0,162.0,270.0,white,triangle
0.0,1.0,0.5,0.0,7.0,5.0,877.3353258147836,3.0,1.0,phase_3,,,,,49.0,1.0,98.0,294.0,245.0,147.0,49.0,196.0,cyan,hexagon
0.0,4.0,4.0,0.0,7.0,2.0,1053.0586019158363,3.0,1.0,phase_3,,,,,54.0,1.0,216.0,54.0,270.0,162.0,324.0,108.0,blue,square
0.0,5.0,0.5,1.0,7.0,5.0,974.4705148041248,3.0,1.0,phase_3,,,,,147.0,3.0,98.0,245.0,294.0,196.0,147.0,49.0,gray,diamond
0.0,1.0,0.5,0.0,7.0,1.0,1582.1047560311854,3.0,1.0,phase_3,,,,,132.0,3.0,132.0,88.0,44.0,264.0,176.0,220.0,cyan,hexagon
0.0,7.0,2.0,1.0,7.0,4.0,1037.1982138603926,4.0,1.0,phase_3,,,,,54.0,1.0,108.0,324.0,270.0,54.0,162.0,216.0,orange,I
0.0,6.0,1.0,1.0,7.0,3.0,956.9685431197286,4.0,1.0,phase_3,,,,,98.0,2.0,196.0,147.0,98.0,49.0,294.0,245.0,white,triangle
0.0,1.0,0.5,0.0,7.0,6.0,766.6998701170087,4.0,1.0,phase_3,,,,,88.0,2.0,132.0,220.0,264.0,176.0,44.0,88.0,cyan,hexagon
0.0,3.0,2.0,0.0,7.0,2.0,737.4153402633965,4.0,1.0,phase_3,,,,,294.0,6.0,98.0,294.0,147.0,196.0,49.0,245.0,yellow,flipped triangle
0.0,7.0,2.0,1.0,7.0,2.0,731.1695204116404,4.0,1.0,phase_3,,,,,136.0,4.0,204.0,136.0,34.0,102.0,68.0,170.0,orange,I
0.0,4.0,4.0,0.0,7.0,5.0,427.0940581336617,4.0,1.0,phase_3,,,,,156.0,4.0,234.0,39.0,117.0,78.0,156.0,195.0,blue,square
0.0,2.0,1.0,0.0,7.0,1.0,395.7962798886001,4.0,1.0,phase_3,,,,,78.0,2.0,78.0,195.0,117.0,39.0,234.0,156.0,green,cross
0.0,4.0,4.0,0.0,7.0,2.0,485.2884341962635,4.0,1.0,phase_3,,,,,147.0,3.0,294.0,147.0,98.0,245.0,196.0,49.0,blue,square
0.0,7.0,2.0,1.0,7.0,5.0,722.3493279889226,4.0,1.0,phase_3,,,,,176.0,4.0,44.0,220.0,264.0,132.0,176.0,88.0,orange,I
0.0,2.0,1.0,0.0,7.0,6.0,0.1940596848726,4.0,1.0,phase_3,,,,,147.0,3.0,294.0,245.0,196.0,98.0,49.0,147.0,green,cross
0.0,7.0,2.0,1.0,7.0,5.0,1281.1358007602394,4.0,1.0,phase_3,,,,,234.0,6.0,195.0,39.0,156.0,117.0,234.0,78.0,orange,I
0.0,2.0,1.0,0.0,7.0,3.0,1620.2707360498607,4.0,1.0,phase_3,,,,,294.0,6.0,49.0,98.0,294.0,196.0,147.0,245.0,green,cross
0.0,3.0,2.0,0.0,7.0,2.0,1380.3588752634823,4.0,1.0,phase_3,,,,,88.0,2.0,176.0,88.0,44.0,132.0,220.0,264.0,yellow,flipped triangle
0.0,3.0,2.0,0.0,7.0,6.0,917.9185549728572,4.0,1.0,phase_3,,,,,234.0,6.0,195.0,156.0,78.0,39.0,117.0,234.0,yellow,flipped triangle
0.0,6.0,1.0,1.0,7.0,4.0,1192.1397102996707,4.0,1.0,phase_3,,,,,88.0,2.0,132.0,44.0,176.0,88.0,264.0,220.0,white,triangle
0.0,8.0,4.0,1.0,7.0,5.0,675.3539280034602,4.0,1.0,phase_3,,,,,162.0,3.0,216.0,108.0,324.0,54.0,162.0,270.0,magenta,circle
0.0,8.0,4.0,1.0,7.0,6.0,1637.006422970444,4.0,1.0,phase_3,,,,,196.0,4.0,294.0,245.0,147.0,98.0,49.0,196.0,magenta,circle
0.0,6.0,1.0,1.0,7.0,3.0,2213.785430882126,4.0,1.0,phase_3,,,,,102.0,3.0,136.0,68.0,102.0,170.0,204.0,34.0,white,triangle
0.0,5.0,0.5,1.0,7.0,2.0,2495.2412438578904,4.0,1.0,phase_3,,,,,117.0,3.0,195.0,117.0,234.0,78.0,39.0,156.0,gray,diamond
0.0,4.0,4.0,0.0,7.0,5.0,1885.7777551747856,4.0,1.0,phase_3,,,,,132.0,3.0,220.0,88.0,44.0,264.0,132.0,176.0,blue,square
