raw_reward_magnitude,stim_reward,stepwise_reward_magnitude,paired_with_stopping,stim_location,response,reaction_time,block,num_trial_presentations,which_phase,stop_signal_trial_type,left_SSD,right_SSD,accuracy,chosen_bidding_amount,chosen_bidding_level,possible_bid_1,possible_bid_2,possible_bid_3,possible_bid_4,possible_bid_5,possible_bid_6,color_text,shape_text
383.0,8.0,4.0,1.0,3.0,3.0,483.7074120005127,1.0,1.0,phase_1,,,,,,,,,,,,,cyan,triangle
95.0,6.0,1.0,1.0,2.0,2.0,441.7262369825039,1.0,1.0,phase_1,,,,,,,,,,,,,magenta,hexagon
215.0,3.0,2.0,0.0,2.0,2.0,441.7684620129876,1.0,1.0,phase_1,,,,,,,,,,,,,orange,flipped triangle
193.0,7.0,2.0,1.0,3.0,3.0,409.0297869988717,1.0,1.0,phase_1,,,,,,,,,,,,,white,square
56.0,1.0,0.5,0.0,2.0,2.0,419.6905120043084,1.0,1.0,phase_1,,,,,,,,,,,,,green,I
123.0,6.0,1.0,1.0,1.0,1.0,407.3548640008084,1.0,1.0,phase_1,,,,,,,,,,,,,magenta,hexagon
93.0,6.0,1.0,1.0,1.0,1.0,490.1499060215428,1.0,1.0,phase_1,,,,,,,,,,,,,magenta,hexagon
0.0,8.0,0.0,1.0,2.0,2.0,442.0748560223728,1.0,1.0,phase_1,,,,,,,,,,,,,cyan,triangle
391.0,8.0,4.0,1.0,4.0,4.0,432.3457339778542,1.0,1.0,phase_1,,,,,,,,,,,,,cyan,triangle
0.0,6.0,0.0,1.0,1.0,1.0,355.141520005418,1.0,1.0,phase_1,,,,,,,,,,,,,magenta,hexagon
49.0,5.0,0.5,1.0,2.0,2.0,300.2085789921693,1.0,1.0,phase_1,,,,,,,,,,,,,blue,diamond
189.0,3.0,2.0,0.0,1.0,1.0,398.685273976298,1.0,1.0,phase_1,,,,,,,,,,,,,orange,flipped triangle
401.0,4.0,4.0,0.0,4.0,4.0,369.3392789864447,1.0,1.0,phase_1,,,,,,,,,,,,,gray,circle
0.0,6.0,0.0,1.0,4.0,4.0,379.840690002311,1.0,1.0,phase_1,,,,,,,,,,,,,magenta,hexagon
391.0,4.0,4.0,0.0,1.0,1.0,480.0015029904898,1.0,1.0,phase_1,,,,,,,,,,,,,gray,circle
391.0,4.0,4.0,0.0,1.0,1.0,356.0405010066461,1.0,1.0,phase_1,,,,,,,,,,,,,gray,circle
0.0,5.0,0.0,1.0,3.0,3.0,390.363607002655,1.0,1.0,phase_1,,,,,,,,,,,,,blue,diamond
41.0,5.0,0.5,1.0,2.0,2.0,356.7092530138325,1.0,1.0,phase_1,,,,,,,,,,,,,blue,diamond
52.0,1.0,0.5,0.0,4.0,4.0,360.1996520010289,1.0,1.0,phase_1,,,,,,,,,,,,,green,I
70.0,1.0,0.5,0.0,3.0,3.0,394.1795330028981,1.0,1.0,phase_1,,,,,,,,,,,,,green,I
385.0,8.0,4.0,1.0,1.0,1.0,338.6476610030513,1.0,1.0,phase_1,,,,,,,,,,,,,cyan,triangle
185.0,3.0,2.0,0.0,2.0,2.0,314.007898006821,1.0,1.0,phase_1,,,,,,,,,,,,,orange,flipped triangle
0.0,1.0,0.0,0.0,4.0,4.0,282.8875870036427,1.0,1.0,phase_1,,,,,,,,,,,,,green,I
395.0,8.0,4.0,1.0,1.0,1.0,362.720527977217,1.0,1.0,phase_1,,,,,,,,,,,,,cyan,triangle
0.0,5.0,0.0,1.0,2.0,2.0,305.1378340169322,1.0,1.0,phase_1,,,,,,,,,,,,,blue,diamond
42.0,1.0,0.5,0.0,3.0,3.0,340.8651259960606,1.0,1.0,phase_1,,,,,,,,,,,,,green,I
213.0,3.0,2.0,0.0,3.0,3.0,406.7938810039777,1.0,1.0,phase_1,,,,,,,,,,,,,orange,flipped triangle
65.0,5.0,0.5,1.0,3.0,3.0,353.5301340161823,1.0,1.0,phase_1,,,,,,,,,,,,,blue,diamond
53.0,5.0,0.5,1.0,1.0,1.0,342.2072760004084,1.0,1.0,phase_1,,,,,,,,,,,,,blue,diamond
0.0,3.0,0.0,0.0,4.0,4.0,365.7388560241088,1.0,1.0,phase_1,,,,,,,,,,,,,orange,flipped triangle
53.0,5.0,0.5,1.0,2.0,2.0,377.4147030198946,1.0,1.0,phase_1,,,,,,,,,,,,,blue,diamond
193.0,3.0,2.0,0.0,1.0,1.0,389.8672829964198,1.0,1.0,phase_1,,,,,,,,,,,,,orange,flipped triangle
62.0,1.0,0.5,0.0,4.0,4.0,398.7869940174278,1.0,1.0,phase_1,,,,,,,,,,,,,green,I
58.0,5.0,0.5,1.0,3.0,3.0,435.6878219987266,1.0,1.0,phase_1,,,,,,,,,,,,,blue,diamond
425.0,8.0,4.0,1.0,2.0,2.0,310.837539989734,1.0,1.0,phase_1,,,,,,,,,,,,,cyan,triangle
83.0,6.0,1.0,1.0,4.0,4.0,299.549177987501,1.0,1.0,phase_1,,,,,,,,,,,,,magenta,hexagon
0.0,7.0,0.0,1.0,3.0,3.0,450.1154529862106,1.0,1.0,phase_1,,,,,,,,,,,,,white,square
117.0,2.0,1.0,0.0,2.0,2.0,368.0231379985343,1.0,1.0,phase_1,,,,,,,,,,,,,yellow,cross
57.0,1.0,0.5,0.0,3.0,3.0,470.1249130012002,1.0,1.0,phase_1,,,,,,,,,,,,,green,I
112.0,2.0,1.0,0.0,2.0,2.0,394.650432979688,1.0,1.0,phase_1,,,,,,,,,,,,,yellow,cross
0.0,8.0,0.0,1.0,2.0,2.0,381.2697719840798,1.0,1.0,phase_1,,,,,,,,,,,,,cyan,triangle
70.0,5.0,0.5,1.0,2.0,2.0,414.7566769970581,1.0,1.0,phase_1,,,,,,,,,,,,,blue,diamond
388.0,4.0,4.0,0.0,1.0,1.0,383.7389769905712,1.0,1.0,phase_1,,,,,,,,,,,,,gray,circle
86.0,6.0,1.0,1.0,4.0,4.0,438.4844129963312,1.0,1.0,phase_1,,,,,,,,,,,,,magenta,hexagon
419.0,4.0,4.0,0.0,3.0,3.0,431.4641539822332,1.0,1.0,phase_1,,,,,,,,,,,,,gray,circle
175.0,3.0,2.0,0.0,4.0,4.0,375.4783809999935,1.0,1.0,phase_1,,,,,,,,,,,,,orange,flipped triangle
205.0,7.0,2.0,1.0,3.0,3.0,386.386318015866,1.0,1.0,phase_1,,,,,,,,,,,,,white,square
0.0,3.0,0.0,0.0,2.0,2.0,331.2903949990868,1.0,1.0,phase_1,,,,,,,,,,,,,orange,flipped triangle
0.0,8.0,0.0,1.0,1.0,1.0,362.5479549809824,1.0,1.0,phase_1,,,,,,,,,,,,,cyan,triangle
37.0,5.0,0.5,1.0,4.0,4.0,331.6169830213766,1.0,1.0,phase_1,,,,,,,,,,,,,blue,diamond
390.0,4.0,4.0,0.0,2.0,2.0,342.2529669769574,1.0,1.0,phase_1,,,,,,,,,,,,,gray,circle
206.0,3.0,2.0,0.0,1.0,1.0,331.5593940205872,1.0,1.0,phase_1,,,,,,,,,,,,,orange,flipped triangle
214.0,7.0,2.0,1.0,4.0,4.0,366.568076016847,1.0,1.0,phase_1,,,,,,,,,,,,,white,square
0.0,5.0,0.0,1.0,2.0,2.0,252.3868010030128,1.0,1.0,phase_1,,,,,,,,,,,,,blue,diamond
96.0,2.0,1.0,0.0,3.0,3.0,332.5381290051155,1.0,1.0,phase_1,,,,,,,,,,,,,yellow,cross
123.0,2.0,1.0,0.0,2.0,2.0,414.6449280087836,1.0,1.0,phase_1,,,,,,,,,,,,,yellow,cross
177.0,7.0,2.0,1.0,1.0,1.0,355.7575040031224,1.0,1.0,phase_1,,,,,,,,,,,,,white,square
187.0,3.0,2.0,0.0,3.0,3.0,368.9834400138352,1.0,1.0,phase_1,,,,,,,,,,,,,orange,flipped triangle
198.0,3.0,2.0,0.0,4.0,4.0,404.2418719909619,1.0,2.0,phase_1,,,,,,,,,,,,,orange,flipped triangle
79.0,6.0,1.0,1.0,3.0,3.0,416.9451099878642,1.0,1.0,phase_1,,,,,,,,,,,,,magenta,hexagon
76.0,2.0,1.0,0.0,1.0,1.0,425.1118979882449,1.0,1.0,phase_1,,,,,,,,,,,,,yellow,cross
381.0,8.0,4.0,1.0,1.0,1.0,414.7499230166431,1.0,1.0,phase_1,,,,,,,,,,,,,cyan,triangle
81.0,2.0,1.0,0.0,3.0,3.0,407.9299129953142,1.0,1.0,phase_1,,,,,,,,,,,,,yellow,cross
107.0,2.0,1.0,0.0,1.0,1.0,462.6547030056827,1.0,1.0,phase_1,,,,,,,,,,,,,yellow,cross
0.0,7.0,0.0,1.0,3.0,3.0,450.2027730050031,1.0,1.0,phase_1,,,,,,,,,,,,,white,square
123.0,6.0,1.0,1.0,1.0,1.0,350.069412990706,1.0,1.0,phase_1,,,,,,,,,,,,,magenta,hexagon
52.0,5.0,0.5,1.0,3.0,3.0,418.3659340196755,1.0,1.0,phase_1,,,,,,,,,,,,,blue,diamond
33.0,1.0,0.5,0.0,2.0,2.0,406.3034249993507,1.0,1.0,phase_1,,,,,,,,,,,,,green,I
177.0,3.0,2.0,0.0,3.0,3.0,332.4328470043838,1.0,1.0,phase_1,,,,,,,,,,,,,orange,flipped triangle
105.0,2.0,1.0,0.0,1.0,1.0,430.0795189919881,1.0,1.0,phase_1,,,,,,,,,,,,,yellow,cross
0.0,2.0,0.0,0.0,3.0,3.0,374.965399998473,1.0,1.0,phase_1,,,,,,,,,,,,,yellow,cross
197.0,7.0,2.0,1.0,2.0,2.0,320.5386390036437,1.0,1.0,phase_1,,,,,,,,,,,,,white,square
0.0,4.0,0.0,0.0,3.0,3.0,378.5963680129498,1.0,1.0,phase_1,,,,,,,,,,,,,gray,circle
79.0,2.0,1.0,0.0,2.0,2.0,409.4505689863581,1.0,1.0,phase_1,,,,,,,,,,,,,yellow,cross
221.0,7.0,2.0,1.0,3.0,3.0,511.64360498660244,1.0,1.0,phase_1,,,,,,,,,,,,,white,square
397.0,8.0,4.0,1.0,4.0,4.0,391.1080270190723,1.0,1.0,phase_1,,,,,,,,,,,,,cyan,triangle
78.0,6.0,1.0,1.0,3.0,3.0,378.1877050059847,1.0,1.0,phase_1,,,,,,,,,,,,,magenta,hexagon
102.0,2.0,1.0,0.0,1.0,1.0,390.0746020080987,1.0,1.0,phase_1,,,,,,,,,,,,,yellow,cross
0.0,4.0,0.0,0.0,4.0,4.0,390.6806950108148,1.0,1.0,phase_1,,,,,,,,,,,,,gray,circle
0.0,2.0,0.0,0.0,3.0,3.0,337.8513759816997,1.0,1.0,phase_1,,,,,,,,,,,,,yellow,cross
194.0,3.0,2.0,0.0,3.0,3.0,348.3975880080834,1.0,1.0,phase_1,,,,,,,,,,,,,orange,flipped triangle
125.0,2.0,1.0,0.0,3.0,3.0,425.138007994974,1.0,1.0,phase_1,,,,,,,,,,,,,yellow,cross
0.0,1.0,0.0,0.0,4.0,4.0,439.9709249846637,1.0,1.0,phase_1,,,,,,,,,,,,,green,I
96.0,6.0,1.0,1.0,4.0,4.0,404.1876539995428,1.0,1.0,phase_1,,,,,,,,,,,,,magenta,hexagon
214.0,7.0,2.0,1.0,3.0,3.0,415.788486978272,1.0,1.0,phase_1,,,,,,,,,,,,,white,square
220.0,3.0,2.0,0.0,4.0,4.0,396.9610889907926,1.0,1.0,phase_1,,,,,,,,,,,,,orange,flipped triangle
76.0,2.0,1.0,0.0,4.0,4.0,361.1505760054569,1.0,1.0,phase_1,,,,,,,,,,,,,yellow,cross
0.0,7.0,0.0,1.0,1.0,1.0,420.3448690241202,1.0,1.0,phase_1,,,,,,,,,,,,,white,square
106.0,2.0,1.0,0.0,2.0,2.0,386.5698039880954,1.0,1.0,phase_1,,,,,,,,,,,,,yellow,cross
0.0,3.0,0.0,0.0,4.0,4.0,410.8751269814092,1.0,1.0,phase_1,,,,,,,,,,,,,orange,flipped triangle
392.0,8.0,4.0,1.0,3.0,3.0,398.6277790099848,1.0,1.0,phase_1,,,,,,,,,,,,,cyan,triangle
95.0,2.0,1.0,0.0,4.0,4.0,411.0915720229968,1.0,1.0,phase_1,,,,,,,,,,,,,yellow,cross
33.0,5.0,0.5,1.0,3.0,3.0,442.4477469874546,1.0,1.0,phase_1,,,,,,,,,,,,,blue,diamond
73.0,5.0,0.5,1.0,1.0,1.0,366.5998420037795,1.0,1.0,phase_1,,,,,,,,,,,,,blue,diamond
57.0,5.0,0.5,1.0,2.0,2.0,330.8746879920363,1.0,1.0,phase_1,,,,,,,,,,,,,blue,diamond
220.0,7.0,2.0,1.0,1.0,1.0,366.5266470052302,1.0,1.0,phase_1,,,,,,,,,,,,,white,square
38.0,5.0,0.5,1.0,4.0,4.0,445.8632570167538,1.0,2.0,phase_1,,,,,,,,,,,,,blue,diamond
412.0,8.0,4.0,1.0,3.0,3.0,458.6323619878385,1.0,1.0,phase_1,,,,,,,,,,,,,cyan,triangle
197.0,7.0,2.0,1.0,2.0,2.0,381.6413159947842,1.0,1.0,phase_1,,,,,,,,,,,,,white,square
206.0,7.0,2.0,1.0,2.0,2.0,347.3445599956903,1.0,1.0,phase_1,,,,,,,,,,,,,white,square
205.0,3.0,2.0,0.0,3.0,3.0,446.1687239818275,2.0,1.0,phase_1,,,,,,,,,,,,,orange,flipped triangle
410.0,4.0,4.0,0.0,2.0,2.0,377.8723110153805,2.0,1.0,phase_1,,,,,,,,,,,,,gray,circle
405.0,8.0,4.0,1.0,2.0,2.0,365.2191820146981,2.0,1.0,phase_1,,,,,,,,,,,,,cyan,triangle
48.0,1.0,0.5,0.0,1.0,1.0,446.1998369952198,2.0,1.0,phase_1,,,,,,,,,,,,,green,I
0.0,7.0,0.0,1.0,4.0,4.0,514.7688839933835,2.0,1.0,phase_1,,,,,,,,,,,,,white,square
216.0,3.0,2.0,0.0,1.0,1.0,456.02196699474,2.0,1.0,phase_1,,,,,,,,,,,,,orange,flipped triangle
107.0,2.0,1.0,0.0,3.0,3.0,535.5761999962851,2.0,1.0,phase_1,,,,,,,,,,,,,yellow,cross
0.0,1.0,0.0,0.0,2.0,2.0,505.51580800674856,2.0,1.0,phase_1,,,,,,,,,,,,,green,I
192.0,3.0,2.0,0.0,2.0,2.0,334.0453249984421,2.0,1.0,phase_1,,,,,,,,,,,,,orange,flipped triangle
73.0,1.0,0.5,0.0,2.0,2.0,323.3163749973755,2.0,1.0,phase_1,,,,,,,,,,,,,green,I
48.0,5.0,0.5,1.0,3.0,3.0,334.8647509992588,2.0,1.0,phase_1,,,,,,,,,,,,,blue,diamond
87.0,6.0,1.0,1.0,3.0,3.0,406.6231420147232,2.0,1.0,phase_1,,,,,,,,,,,,,magenta,hexagon
65.0,5.0,0.5,1.0,3.0,3.0,394.4927859993186,2.0,1.0,phase_1,,,,,,,,,,,,,blue,diamond
56.0,5.0,0.5,1.0,1.0,1.0,651.9470000057481,2.0,1.0,phase_1,,,,,,,,,,,,,blue,diamond
392.0,4.0,4.0,0.0,2.0,2.0,382.4843460170086,2.0,1.0,phase_1,,,,,,,,,,,,,gray,circle
415.0,4.0,4.0,0.0,3.0,3.0,350.5658349895384,2.0,1.0,phase_1,,,,,,,,,,,,,gray,circle
99.0,2.0,1.0,0.0,4.0,4.0,454.1523410007357,2.0,1.0,phase_1,,,,,,,,,,,,,yellow,cross
0.0,4.0,0.0,0.0,1.0,1.0,418.1773969903588,2.0,1.0,phase_1,,,,,,,,,,,,,gray,circle
75.0,5.0,0.5,1.0,2.0,2.0,363.3061459986493,2.0,1.0,phase_1,,,,,,,,,,,,,blue,diamond
58.0,1.0,0.5,0.0,3.0,3.0,295.1006859948393,2.0,1.0,phase_1,,,,,,,,,,,,,green,I
412.0,8.0,4.0,1.0,2.0,2.0,354.560173000209,2.0,1.0,phase_1,,,,,,,,,,,,,cyan,triangle
120.0,2.0,1.0,0.0,3.0,3.0,408.9647340006195,2.0,1.0,phase_1,,,,,,,,,,,,,yellow,cross
41.0,1.0,0.5,0.0,4.0,4.0,445.9657860279549,2.0,1.0,phase_1,,,,,,,,,,,,,green,I
0.0,3.0,0.0,0.0,1.0,1.0,434.6568559994921,2.0,1.0,phase_1,,,,,,,,,,,,,orange,flipped triangle
0.0,4.0,0.0,0.0,3.0,3.0,378.5739830054808,2.0,1.0,phase_1,,,,,,,,,,,,,gray,circle
0.0,6.0,0.0,1.0,1.0,1.0,365.686495002592,2.0,1.0,phase_1,,,,,,,,,,,,,magenta,hexagon
39.0,1.0,0.5,0.0,2.0,2.0,401.7268140160013,2.0,1.0,phase_1,,,,,,,,,,,,,green,I
177.0,7.0,2.0,1.0,2.0,2.0,467.3603010014631,2.0,1.0,phase_1,,,,,,,,,,,,,white,square
0.0,8.0,0.0,1.0,2.0,2.0,414.6618939994368,2.0,1.0,phase_1,,,,,,,,,,,,,cyan,triangle
65.0,1.0,0.5,0.0,1.0,1.0,491.1711910099257,2.0,1.0,phase_1,,,,,,,,,,,,,green,I
86.0,2.0,1.0,0.0,1.0,1.0,502.367517008679,2.0,1.0,phase_1,,,,,,,,,,,,,yellow,cross
85.0,2.0,1.0,0.0,4.0,4.0,447.6828849874437,2.0,1.0,phase_1,,,,,,,,,,,,,yellow,cross
396.0,8.0,4.0,1.0,2.0,2.0,450.683011993533,2.0,1.0,phase_1,,,,,,,,,,,,,cyan,triangle
397.0,4.0,4.0,0.0,1.0,1.0,418.3843979844823,2.0,1.0,phase_1,,,,,,,,,,,,,gray,circle
176.0,3.0,2.0,0.0,3.0,3.0,404.0072479983791,2.0,1.0,phase_1,,,,,,,,,,,,,orange,flipped triangle
403.0,8.0,4.0,1.0,1.0,1.0,475.1819910015911,2.0,1.0,phase_1,,,,,,,,,,,,,cyan,triangle
382.0,4.0,4.0,0.0,3.0,3.0,462.2413350152783,2.0,1.0,phase_1,,,,,,,,,,,,,gray,circle
188.0,7.0,2.0,1.0,2.0,2.0,328.3380240027327,2.0,1.0,phase_1,,,,,,,,,,,,,white,square
197.0,3.0,2.0,0.0,2.0,2.0,385.1843480078969,2.0,1.0,phase_1,,,,,,,,,,,,,orange,flipped triangle
67.0,5.0,0.5,1.0,4.0,4.0,554.7182740119752,2.0,1.0,phase_1,,,,,,,,,,,,,blue,diamond
192.0,7.0,2.0,1.0,2.0,2.0,410.7651959930081,2.0,1.0,phase_1,,,,,,,,,,,,,white,square
120.0,6.0,1.0,1.0,2.0,2.0,511.31284798611887,2.0,1.0,phase_1,,,,,,,,,,,,,magenta,hexagon
0.0,3.0,0.0,0.0,2.0,2.0,373.7073670199606,2.0,1.0,phase_1,,,,,,,,,,,,,orange,flipped triangle
189.0,7.0,2.0,1.0,3.0,3.0,386.1080920032691,2.0,1.0,phase_1,,,,,,,,,,,,,white,square
27.0,5.0,0.5,1.0,3.0,3.0,455.0512129790149,2.0,1.0,phase_1,,,,,,,,,,,,,blue,diamond
0.0,5.0,0.0,1.0,4.0,4.0,446.6475950030144,2.0,1.0,phase_1,,,,,,,,,,,,,blue,diamond
415.0,4.0,4.0,0.0,2.0,2.0,344.2889830039348,2.0,1.0,phase_1,,,,,,,,,,,,,gray,circle
49.0,1.0,0.5,0.0,4.0,4.0,534.1270960052498,2.0,1.0,phase_1,,,,,,,,,,,,,green,I
419.0,8.0,4.0,1.0,4.0,4.0,501.0558549838606,2.0,1.0,phase_1,,,,,,,,,,,,,cyan,triangle
0.0,6.0,0.0,1.0,4.0,4.0,470.5145519983489,2.0,1.0,phase_1,,,,,,,,,,,,,magenta,hexagon
107.0,6.0,1.0,1.0,1.0,1.0,346.4123440207913,2.0,1.0,phase_1,,,,,,,,,,,,,magenta,hexagon
0.0,6.0,0.0,1.0,3.0,3.0,359.0585330093745,2.0,1.0,phase_1,,,,,,,,,,,,,magenta,hexagon
39.0,5.0,0.5,1.0,1.0,1.0,412.8883170196786,2.0,1.0,phase_1,,,,,,,,,,,,,blue,diamond
28.0,1.0,0.5,0.0,2.0,2.0,425.1195320102852,2.0,1.0,phase_1,,,,,,,,,,,,,green,I
385.0,4.0,4.0,0.0,3.0,3.0,495.1497029978782,2.0,1.0,phase_1,,,,,,,,,,,,,gray,circle
26.0,1.0,0.5,0.0,3.0,3.0,358.6060849775094,2.0,1.0,phase_1,,,,,,,,,,,,,green,I
125.0,6.0,1.0,1.0,1.0,1.0,486.7233149998355,2.0,1.0,phase_1,,,,,,,,,,,,,magenta,hexagon
93.0,2.0,1.0,0.0,1.0,1.0,407.2476259898394,2.0,1.0,phase_1,,,,,,,,,,,,,yellow,cross
0.0,1.0,0.0,0.0,1.0,1.0,393.700840009842,2.0,1.0,phase_1,,,,,,,,,,,,,green,I
61.0,5.0,0.5,1.0,4.0,4.0,511.42004699795507,2.0,2.0,phase_1,,,,,,,,,,,,,blue,diamond
122.0,2.0,1.0,0.0,4.0,4.0,522.1049370011315,2.0,1.0,phase_1,,,,,,,,,,,,,yellow,cross
424.0,4.0,4.0,0.0,4.0,4.0,534.7342710010707,2.0,1.0,phase_1,,,,,,,,,,,,,gray,circle
0.0,5.0,0.0,1.0,4.0,4.0,590.1701209950261,2.0,1.0,phase_1,,,,,,,,,,,,,blue,diamond
0.0,6.0,0.0,1.0,1.0,1.0,714.8176750051789,2.0,1.0,phase_1,,,,,,,,,,,,,magenta,hexagon
53.0,1.0,0.5,0.0,1.0,1.0,386.6569529927801,2.0,1.0,phase_1,,,,,,,,,,,,,green,I
385.0,8.0,4.0,1.0,4.0,4.0,558.5038950084709,2.0,1.0,phase_1,,,,,,,,,,,,,cyan,triangle
409.0,4.0,4.0,0.0,4.0,4.0,514.4582260109019,2.0,1.0,phase_1,,,,,,,,,,,,,gray,circle
400.0,8.0,4.0,1.0,4.0,4.0,479.1712150035891,2.0,1.0,phase_1,,,,,,,,,,,,,cyan,triangle
0.0,6.0,0.0,1.0,2.0,2.0,378.000714990776,2.0,1.0,phase_1,,,,,,,,,,,,,magenta,hexagon
390.0,8.0,4.0,1.0,3.0,3.0,436.9479060114827,2.0,1.0,phase_1,,,,,,,,,,,,,cyan,triangle
0.0,7.0,0.0,1.0,3.0,3.0,424.8115069931373,2.0,1.0,phase_1,,,,,,,,,,,,,white,square
117.0,6.0,1.0,1.0,1.0,1.0,436.2881449924316,2.0,1.0,phase_1,,,,,,,,,,,,,magenta,hexagon
403.0,4.0,4.0,0.0,2.0,2.0,494.1012389899697,2.0,1.0,phase_1,,,,,,,,,,,,,gray,circle
50.0,1.0,0.5,0.0,1.0,1.0,414.9136469932273,2.0,1.0,phase_1,,,,,,,,,,,,,green,I
382.0,4.0,4.0,0.0,3.0,3.0,381.2412950210273,2.0,1.0,phase_1,,,,,,,,,,,,,gray,circle
104.0,2.0,1.0,0.0,2.0,2.0,395.3793889959343,2.0,1.0,phase_1,,,,,,,,,,,,,yellow,cross
203.0,3.0,2.0,0.0,1.0,1.0,473.3763900003396,2.0,1.0,phase_1,,,,,,,,,,,,,orange,flipped triangle
220.0,7.0,2.0,1.0,2.0,2.0,370.1975379954092,2.0,1.0,phase_1,,,,,,,,,,,,,white,square
378.0,4.0,4.0,0.0,1.0,1.0,472.9693600093014,2.0,1.0,phase_1,,,,,,,,,,,,,gray,circle
122.0,6.0,1.0,1.0,4.0,4.0,644.7265770111699,2.0,1.0,phase_1,,,,,,,,,,,,,magenta,hexagon
416.0,4.0,4.0,0.0,1.0,1.0,498.6458920175209,2.0,1.0,phase_1,,,,,,,,,,,,,gray,circle
65.0,1.0,0.5,0.0,1.0,1.0,417.9959510220215,2.0,1.0,phase_1,,,,,,,,,,,,,green,I
422.0,8.0,4.0,1.0,4.0,4.0,634.5440129807685,2.0,1.0,phase_1,,,,,,,,,,,,,cyan,triangle
0.0,8.0,0.0,1.0,2.0,2.0,633.3917950105388,2.0,1.0,phase_1,,,,,,,,,,,,,cyan,triangle
225.0,7.0,2.0,1.0,3.0,3.0,397.0494999957736,2.0,1.0,phase_1,,,,,,,,,,,,,white,square
185.0,7.0,2.0,1.0,1.0,1.0,453.323936992092,2.0,1.0,phase_1,,,,,,,,,,,,,white,square
392.0,8.0,4.0,1.0,1.0,1.0,399.803417007206,2.0,1.0,phase_1,,,,,,,,,,,,,cyan,triangle
39.0,1.0,0.5,0.0,4.0,4.0,478.1970359908882,2.0,1.0,phase_1,,,,,,,,,,,,,green,I
0.0,4.0,0.0,0.0,4.0,4.0,410.7801160134841,2.0,1.0,phase_1,,,,,,,,,,,,,gray,circle
415.0,8.0,4.0,1.0,2.0,2.0,388.4560379956383,2.0,1.0,phase_1,,,,,,,,,,,,,cyan,triangle
38.0,1.0,0.5,0.0,4.0,4.0,470.7314660190604,2.0,1.0,phase_1,,,,,,,,,,,,,green,I
183.0,7.0,2.0,1.0,3.0,3.0,527.1275889826939,2.0,1.0,phase_1,,,,,,,,,,,,,white,square
55.0,5.0,0.5,1.0,4.0,4.0,495.2708130003884,2.0,1.0,phase_1,,,,,,,,,,,,,blue,diamond
0.0,2.0,0.0,0.0,2.0,2.0,446.3166559871752,2.0,1.0,phase_1,,,,,,,,,,,,,yellow,cross
204.0,7.0,2.0,1.0,1.0,1.0,506.2526830006391,2.0,1.0,phase_1,,,,,,,,,,,,,white,square
202.0,7.0,2.0,1.0,1.0,1.0,482.787382992683,2.0,1.0,phase_1,,,,,,,,,,,,,white,square
70.0,1.0,0.5,0.0,3.0,3.0,562.4619689770043,2.0,1.0,phase_1,,,,,,,,,,,,,green,I
86.0,6.0,1.0,1.0,3.0,3.0,415.1108359801583,2.0,1.0,phase_1,,,,,,,,,,,,,magenta,hexagon
422.0,4.0,4.0,0.0,3.0,3.0,360.3739899990614,2.0,1.0,phase_1,,,,,,,,,,,,,gray,circle
122.0,2.0,1.0,0.0,4.0,4.0,462.4220149999019,2.0,1.0,phase_1,,,,,,,,,,,,,yellow,cross
0.0,8.0,0.0,1.0,1.0,1.0,416.8475859914906,3.0,1.0,phase_1,,,,,,,,,,,,,cyan,triangle
104.0,6.0,1.0,1.0,3.0,3.0,429.2221259966027,3.0,1.0,phase_1,,,,,,,,,,,,,magenta,hexagon
53.0,1.0,0.5,0.0,4.0,4.0,494.332336995285,3.0,1.0,phase_1,,,,,,,,,,,,,green,I
408.0,8.0,4.0,1.0,4.0,4.0,416.6829329915344,3.0,1.0,phase_1,,,,,,,,,,,,,cyan,triangle
182.0,3.0,2.0,0.0,4.0,4.0,362.7075740077998,3.0,1.0,phase_1,,,,,,,,,,,,,orange,flipped triangle
175.0,7.0,2.0,1.0,4.0,4.0,349.9554159934632,3.0,1.0,phase_1,,,,,,,,,,,,,white,square
86.0,2.0,1.0,0.0,2.0,2.0,318.3200870116707,3.0,1.0,phase_1,,,,,,,,,,,,,yellow,cross
96.0,6.0,1.0,1.0,2.0,2.0,419.4442219741177,3.0,1.0,phase_1,,,,,,,,,,,,,magenta,hexagon
0.0,2.0,0.0,0.0,3.0,3.0,362.2544849931728,3.0,1.0,phase_1,,,,,,,,,,,,,yellow,cross
57.0,5.0,0.5,1.0,2.0,2.0,411.1060209979769,3.0,1.0,phase_1,,,,,,,,,,,,,blue,diamond
101.0,2.0,1.0,0.0,3.0,3.0,399.7781079960987,3.0,1.0,phase_1,,,,,,,,,,,,,yellow,cross
190.0,7.0,2.0,1.0,1.0,1.0,410.5494850082323,3.0,1.0,phase_1,,,,,,,,,,,,,white,square
0.0,2.0,0.0,0.0,1.0,1.0,442.8609989990946,3.0,1.0,phase_1,,,,,,,,,,,,,yellow,cross
35.0,1.0,0.5,0.0,1.0,1.0,446.9773530145176,3.0,1.0,phase_1,,,,,,,,,,,,,green,I
34.0,1.0,0.5,0.0,3.0,3.0,478.2492439844645,3.0,1.0,phase_1,,,,,,,,,,,,,green,I
0.0,5.0,0.0,1.0,1.0,1.0,446.9877780065872,3.0,1.0,phase_1,,,,,,,,,,,,,blue,diamond
0.0,7.0,0.0,1.0,3.0,3.0,526.966724981321,3.0,1.0,phase_1,,,,,,,,,,,,,white,square
416.0,8.0,4.0,1.0,1.0,1.0,482.9037709860131,3.0,1.0,phase_1,,,,,,,,,,,,,cyan,triangle
400.0,4.0,4.0,0.0,2.0,2.0,414.2833509831689,3.0,1.0,phase_1,,,,,,,,,,,,,gray,circle
85.0,6.0,1.0,1.0,2.0,2.0,423.8292599911801,3.0,1.0,phase_1,,,,,,,,,,,,,magenta,hexagon
410.0,8.0,4.0,1.0,1.0,1.0,458.3520499872975,3.0,1.0,phase_1,,,,,,,,,,,,,cyan,triangle
182.0,7.0,2.0,1.0,4.0,4.0,470.4633459914475,3.0,1.0,phase_1,,,,,,,,,,,,,white,square
32.0,5.0,0.5,1.0,1.0,1.0,538.668872002745,3.0,1.0,phase_1,,,,,,,,,,,,,blue,diamond
381.0,4.0,4.0,0.0,4.0,4.0,597.6733170100488,3.0,1.0,phase_1,,,,,,,,,,,,,gray,circle
0.0,1.0,0.0,0.0,1.0,1.0,450.3752519958652,3.0,1.0,phase_1,,,,,,,,,,,,,green,I
392.0,4.0,4.0,0.0,4.0,4.0,508.1560570106376,3.0,1.0,phase_1,,,,,,,,,,,,,gray,circle
112.0,6.0,1.0,1.0,4.0,4.0,430.8137580228504,3.0,1.0,phase_1,,,,,,,,,,,,,magenta,hexagon
101.0,6.0,1.0,1.0,3.0,3.0,486.543712002458,3.0,1.0,phase_1,,,,,,,,,,,,,magenta,hexagon
27.0,1.0,0.5,0.0,1.0,1.0,523.0519169999752,3.0,1.0,phase_1,,,,,,,,,,,,,green,I
0.0,4.0,0.0,0.0,2.0,2.0,420.5386149988044,3.0,1.0,phase_1,,,,,,,,,,,,,gray,circle
223.0,3.0,2.0,0.0,2.0,2.0,419.1840989806223,3.0,1.0,phase_1,,,,,,,,,,,,,orange,flipped triangle
0.0,5.0,0.0,1.0,2.0,2.0,407.2537820029538,3.0,1.0,phase_1,,,,,,,,,,,,,blue,diamond
33.0,1.0,0.5,0.0,2.0,2.0,423.3860640088096,3.0,1.0,phase_1,,,,,,,,,,,,,green,I
424.0,8.0,4.0,1.0,3.0,3.0,546.7987309966702,3.0,1.0,phase_1,,,,,,,,,,,,,cyan,triangle
408.0,4.0,4.0,0.0,3.0,3.0,443.3777650119737,3.0,1.0,phase_1,,,,,,,,,,,,,gray,circle
415.0,8.0,4.0,1.0,4.0,4.0,412.0085100003052,3.0,1.0,phase_1,,,,,,,,,,,,,cyan,triangle
69.0,1.0,0.5,0.0,3.0,3.0,467.4138150003273,3.0,1.0,phase_1,,,,,,,,,,,,,green,I
70.0,5.0,0.5,1.0,4.0,4.0,456.204604008235,3.0,1.0,phase_1,,,,,,,,,,,,,blue,diamond
0.0,2.0,0.0,0.0,4.0,4.0,471.0558609804138,3.0,1.0,phase_1,,,,,,,,,,,,,yellow,cross
83.0,2.0,1.0,0.0,3.0,3.0,414.640204020543,3.0,1.0,phase_1,,,,,,,,,,,,,yellow,cross
118.0,6.0,1.0,1.0,4.0,4.0,402.2483989829197,3.0,1.0,phase_1,,,,,,,,,,,,,magenta,hexagon
391.0,8.0,4.0,1.0,2.0,2.0,494.6093439939432,3.0,1.0,phase_1,,,,,,,,,,,,,cyan,triangle
177.0,3.0,2.0,0.0,3.0,3.0,483.5451169929001,3.0,1.0,phase_1,,,,,,,,,,,,,orange,flipped triangle
410.0,4.0,4.0,0.0,1.0,1.0,450.7051410037093,3.0,1.0,phase_1,,,,,,,,,,,,,gray,circle
80.0,2.0,1.0,0.0,1.0,1.0,392.8434679983184,3.0,1.0,phase_1,,,,,,,,,,,,,yellow,cross
84.0,2.0,1.0,0.0,4.0,4.0,475.1247719977982,3.0,1.0,phase_1,,,,,,,,,,,,,yellow,cross
0.0,1.0,0.0,0.0,4.0,4.0,442.6775650063064,3.0,1.0,phase_1,,,,,,,,,,,,,green,I
382.0,8.0,4.0,1.0,1.0,1.0,452.256115997443,3.0,1.0,phase_1,,,,,,,,,,,,,cyan,triangle
181.0,7.0,2.0,1.0,4.0,4.0,462.6300429808907,3.0,1.0,phase_1,,,,,,,,,,,,,white,square
48.0,1.0,0.5,0.0,2.0,2.0,407.2717810049653,3.0,1.0,phase_1,,,,,,,,,,,,,green,I
378.0,8.0,4.0,1.0,2.0,2.0,498.7437539966777,3.0,1.0,phase_1,,,,,,,,,,,,,cyan,triangle
195.0,7.0,2.0,1.0,4.0,4.0,377.0267129875719,3.0,1.0,phase_1,,,,,,,,,,,,,white,square
0.0,1.0,0.0,0.0,3.0,3.0,453.5396290011704,3.0,1.0,phase_1,,,,,,,,,,,,,green,I
376.0,8.0,4.0,1.0,1.0,1.0,364.2619260062929,3.0,1.0,phase_1,,,,,,,,,,,,,cyan,triangle
0.0,8.0,0.0,1.0,3.0,3.0,442.9087259923108,3.0,1.0,phase_1,,,,,,,,,,,,,cyan,triangle
223.0,3.0,2.0,0.0,1.0,1.0,525.2991699962877,3.0,1.0,phase_1,,,,,,,,,,,,,orange,flipped triangle
395.0,4.0,4.0,0.0,2.0,2.0,401.8152499920688,3.0,1.0,phase_1,,,,,,,,,,,,,gray,circle
180.0,7.0,2.0,1.0,1.0,1.0,481.1807869991753,3.0,1.0,phase_1,,,,,,,,,,,,,white,square
48.0,5.0,0.5,1.0,1.0,1.0,460.2093169814907,3.0,1.0,phase_1,,,,,,,,,,,,,blue,diamond
203.0,7.0,2.0,1.0,4.0,4.0,583.8478949735872,3.0,1.0,phase_1,,,,,,,,,,,,,white,square
0.0,4.0,0.0,0.0,2.0,2.0,483.3938759984448,3.0,1.0,phase_1,,,,,,,,,,,,,gray,circle
0.0,3.0,0.0,0.0,3.0,3.0,582.3856389906723,3.0,1.0,phase_1,,,,,,,,,,,,,orange,flipped triangle
0.0,3.0,0.0,0.0,3.0,3.0,551.413572015008,3.0,1.0,phase_1,,,,,,,,,,,,,orange,flipped triangle
221.0,7.0,2.0,1.0,1.0,1.0,451.2071670033037,3.0,1.0,phase_1,,,,,,,,,,,,,white,square
409.0,8.0,4.0,1.0,3.0,3.0,575.1626179844607,3.0,1.0,phase_1,,,,,,,,,,,,,cyan,triangle
122.0,6.0,1.0,1.0,3.0,3.0,429.698023974197,3.0,1.0,phase_1,,,,,,,,,,,,,magenta,hexagon
425.0,4.0,4.0,0.0,3.0,3.0,372.2980319871567,3.0,1.0,phase_1,,,,,,,,,,,,,gray,circle
225.0,3.0,2.0,0.0,2.0,2.0,508.9070870017167,3.0,1.0,phase_1,,,,,,,,,,,,,orange,flipped triangle
84.0,6.0,1.0,1.0,2.0,2.0,475.8616979815997,3.0,1.0,phase_1,,,,,,,,,,,,,magenta,hexagon
0.0,6.0,0.0,1.0,4.0,4.0,542.2865509754047,3.0,1.0,phase_1,,,,,,,,,,,,,magenta,hexagon
32.0,1.0,0.5,0.0,3.0,3.0,496.8735779984854,3.0,1.0,phase_1,,,,,,,,,,,,,green,I
87.0,2.0,1.0,0.0,4.0,4.0,430.2556990005541,3.0,1.0,phase_1,,,,,,,,,,,,,yellow,cross
222.0,7.0,2.0,1.0,4.0,4.0,463.2783039996866,3.0,1.0,phase_1,,,,,,,,,,,,,white,square
203.0,3.0,2.0,0.0,2.0,2.0,407.5939909962471,3.0,1.0,phase_1,,,,,,,,,,,,,orange,flipped triangle
83.0,6.0,1.0,1.0,1.0,1.0,397.1225540153682,3.0,1.0,phase_1,,,,,,,,,,,,,magenta,hexagon
123.0,2.0,1.0,0.0,2.0,2.0,434.544599003857,3.0,1.0,phase_1,,,,,,,,,,,,,yellow,cross
0.0,7.0,0.0,1.0,4.0,4.0,567.9715470178053,3.0,1.0,phase_1,,,,,,,,,,,,,white,square
408.0,8.0,4.0,1.0,3.0,3.0,471.342449018266,3.0,1.0,phase_1,,,,,,,,,,,,,cyan,triangle
75.0,1.0,0.5,0.0,2.0,2.0,388.2061030017212,3.0,1.0,phase_1,,,,,,,,,,,,,green,I
81.0,6.0,1.0,1.0,2.0,2.0,400.7920419971924,3.0,1.0,phase_1,,,,,,,,,,,,,magenta,hexagon
0.0,4.0,0.0,0.0,2.0,2.0,660.5725889967289,3.0,1.0,phase_1,,,,,,,,,,,,,gray,circle
381.0,8.0,4.0,1.0,2.0,2.0,504.19490100466646,3.0,1.0,phase_1,,,,,,,,,,,,,cyan,triangle
197.0,3.0,2.0,0.0,1.0,1.0,514.2963690159377,3.0,1.0,phase_1,,,,,,,,,,,,,orange,flipped triangle
0.0,2.0,0.0,0.0,4.0,4.0,483.2308879995253,3.0,1.0,phase_1,,,,,,,,,,,,,yellow,cross
118.0,2.0,1.0,0.0,3.0,3.0,415.6628019991331,3.0,1.0,phase_1,,,,,,,,,,,,,yellow,cross
0.0,8.0,0.0,1.0,2.0,2.0,451.4495570037979,3.0,1.0,phase_1,,,,,,,,,,,,,cyan,triangle
34.0,5.0,0.5,1.0,4.0,4.0,482.6269440236501,3.0,1.0,phase_1,,,,,,,,,,,,,blue,diamond
376.0,4.0,4.0,0.0,3.0,3.0,482.5309369771275,3.0,1.0,phase_1,,,,,,,,,,,,,gray,circle
202.0,3.0,2.0,0.0,4.0,4.0,531.9152059964836,3.0,1.0,phase_1,,,,,,,,,,,,,orange,flipped triangle
71.0,5.0,0.5,1.0,3.0,3.0,407.076475006761,3.0,1.0,phase_1,,,,,,,,,,,,,blue,diamond
0.0,7.0,0.0,1.0,4.0,4.0,430.8351889776531,3.0,1.0,phase_1,,,,,,,,,,,,,white,square
391.0,4.0,4.0,0.0,4.0,4.0,420.1574960025027,3.0,1.0,phase_1,,,,,,,,,,,,,gray,circle
0.0,6.0,0.0,1.0,4.0,4.0,365.2638689964078,3.0,1.0,phase_1,,,,,,,,,,,,,magenta,hexagon
113.0,2.0,1.0,0.0,2.0,2.0,443.7922180222813,3.0,1.0,phase_1,,,,,,,,,,,,,yellow,cross
76.0,6.0,1.0,1.0,3.0,3.0,410.4416460031643,3.0,1.0,phase_1,,,,,,,,,,,,,magenta,hexagon
412.0,4.0,4.0,0.0,1.0,1.0,531.8841330008581,3.0,1.0,phase_1,,,,,,,,,,,,,gray,circle
99.0,6.0,1.0,1.0,2.0,2.0,376.7423050012439,3.0,1.0,phase_1,,,,,,,,,,,,,magenta,hexagon
223.0,7.0,2.0,1.0,4.0,4.0,388.8318620156497,3.0,1.0,phase_1,,,,,,,,,,,,,white,square
222.0,3.0,2.0,0.0,3.0,3.0,447.2650089883245,3.0,1.0,phase_1,,,,,,,,,,,,,orange,flipped triangle
35.0,5.0,0.5,1.0,4.0,4.0,413.0196930200327,3.0,1.0,phase_1,,,,,,,,,,,,,blue,diamond
53.0,5.0,0.5,1.0,3.0,3.0,708.578977995785,4.0,1.0,phase_1,,,,,,,,,,,,,blue,diamond
96.0,2.0,1.0,0.0,4.0,4.0,521.1905040196143,4.0,1.0,phase_1,,,,,,,,,,,,,yellow,cross
198.0,3.0,2.0,0.0,2.0,2.0,394.8035380162764,4.0,1.0,phase_1,,,,,,,,,,,,,orange,flipped triangle
198.0,7.0,2.0,1.0,1.0,1.0,477.3067269998137,4.0,1.0,phase_1,,,,,,,,,,,,,white,square
396.0,4.0,4.0,0.0,4.0,4.0,465.8410679840017,4.0,1.0,phase_1,,,,,,,,,,,,,gray,circle
0.0,2.0,0.0,0.0,1.0,1.0,444.7134929941967,4.0,1.0,phase_1,,,,,,,,,,,,,yellow,cross
0.0,1.0,0.0,0.0,4.0,4.0,386.717971006874,4.0,1.0,phase_1,,,,,,,,,,,,,green,I
0.0,2.0,0.0,0.0,2.0,2.0,374.5205070008524,4.0,1.0,phase_1,,,,,,,,,,,,,yellow,cross
198.0,7.0,2.0,1.0,4.0,4.0,478.5711810109205,4.0,1.0,phase_1,,,,,,,,,,,,,white,square
176.0,7.0,2.0,1.0,4.0,4.0,466.5592870151158,4.0,1.0,phase_1,,,,,,,,,,,,,white,square
216.0,7.0,2.0,1.0,1.0,1.0,511.14213099936023,4.0,1.0,phase_1,,,,,,,,,,,,,white,square
28.0,5.0,0.5,1.0,1.0,1.0,456.5625409886706,4.0,1.0,phase_1,,,,,,,,,,,,,blue,diamond
71.0,1.0,0.5,0.0,2.0,2.0,402.4784289940726,4.0,1.0,phase_1,,,,,,,,,,,,,green,I
221.0,3.0,2.0,0.0,4.0,4.0,434.5885500079021,4.0,1.0,phase_1,,,,,,,,,,,,,orange,flipped triangle
83.0,2.0,1.0,0.0,2.0,2.0,445.4642890195828,4.0,1.0,phase_1,,,,,,,,,,,,,yellow,cross
69.0,5.0,0.5,1.0,1.0,1.0,615.3661340067629,4.0,1.0,phase_1,,,,,,,,,,,,,blue,diamond
396.0,8.0,4.0,1.0,4.0,4.0,604.6373209974263,4.0,1.0,phase_1,,,,,,,,,,,,,cyan,triangle
103.0,6.0,1.0,1.0,4.0,4.0,549.6709480066784,4.0,1.0,phase_1,,,,,,,,,,,,,magenta,hexagon
116.0,6.0,1.0,1.0,4.0,4.0,515.414977009641,4.0,1.0,phase_1,,,,,,,,,,,,,magenta,hexagon
408.0,4.0,4.0,0.0,1.0,1.0,505.51544097834267,4.0,1.0,phase_1,,,,,,,,,,,,,gray,circle
396.0,4.0,4.0,0.0,2.0,2.0,404.4208760024048,4.0,1.0,phase_1,,,,,,,,,,,,,gray,circle
381.0,4.0,4.0,0.0,3.0,3.0,420.0934749969747,4.0,1.0,phase_1,,,,,,,,,,,,,gray,circle
388.0,8.0,4.0,1.0,2.0,2.0,428.2464699936099,4.0,1.0,phase_1,,,,,,,,,,,,,cyan,triangle
214.0,3.0,2.0,0.0,3.0,3.0,421.0950339911505,4.0,1.0,phase_1,,,,,,,,,,,,,orange,flipped triangle
50.0,5.0,0.5,1.0,4.0,4.0,545.255738979904,4.0,1.0,phase_1,,,,,,,,,,,,,blue,diamond
195.0,3.0,2.0,0.0,4.0,4.0,441.8906969949603,4.0,1.0,phase_1,,,,,,,,,,,,,orange,flipped triangle
0.0,7.0,0.0,1.0,3.0,3.0,431.592617998831,4.0,1.0,phase_1,,,,,,,,,,,,,white,square
0.0,1.0,0.0,0.0,4.0,4.0,442.4853610107675,4.0,1.0,phase_1,,,,,,,,,,,,,green,I
48.0,1.0,0.5,0.0,2.0,2.0,456.4234420249704,4.0,1.0,phase_1,,,,,,,,,,,,,green,I
67.0,1.0,0.5,0.0,4.0,4.0,478.9144359820056,4.0,1.0,phase_1,,,,,,,,,,,,,green,I
103.0,2.0,1.0,0.0,3.0,3.0,354.1462220018729,4.0,1.0,phase_1,,,,,,,,,,,,,yellow,cross
33.0,5.0,0.5,1.0,1.0,1.0,477.1417330193799,4.0,1.0,phase_1,,,,,,,,,,,,,blue,diamond
420.0,8.0,4.0,1.0,4.0,4.0,354.6552750049159,4.0,1.0,phase_1,,,,,,,,,,,,,cyan,triangle
26.0,5.0,0.5,1.0,2.0,2.0,500.4492099978961,4.0,1.0,phase_1,,,,,,,,,,,,,blue,diamond
102.0,6.0,1.0,1.0,1.0,1.0,402.1540549874771,4.0,1.0,phase_1,,,,,,,,,,,,,magenta,hexagon
113.0,6.0,1.0,1.0,2.0,2.0,391.9062000059057,4.0,1.0,phase_1,,,,,,,,,,,,,magenta,hexagon
416.0,8.0,4.0,1.0,3.0,3.0,423.848016973352,4.0,1.0,phase_1,,,,,,,,,,,,,cyan,triangle
203.0,7.0,2.0,1.0,3.0,3.0,348.0207459942903,4.0,1.0,phase_1,,,,,,,,,,,,,white,square
42.0,5.0,0.5,1.0,2.0,2.0,402.882883005077,4.0,1.0,phase_1,,,,,,,,,,,,,blue,diamond
0.0,5.0,0.0,1.0,1.0,1.0,482.3484149819705,4.0,1.0,phase_1,,,,,,,,,,,,,blue,diamond
223.0,7.0,2.0,1.0,2.0,2.0,358.9976140065118,4.0,1.0,phase_1,,,,,,,,,,,,,white,square
105.0,6.0,1.0,1.0,3.0,3.0,351.0062239947729,4.0,1.0,phase_1,,,,,,,,,,,,,magenta,hexagon
77.0,2.0,1.0,0.0,3.0,3.0,383.9084620121866,4.0,1.0,phase_1,,,,,,,,,,,,,yellow,cross
0.0,5.0,0.0,1.0,1.0,1.0,508.72220800374635,4.0,1.0,phase_1,,,,,,,,,,,,,blue,diamond
204.0,3.0,2.0,0.0,4.0,4.0,497.2346780123189,4.0,1.0,phase_1,,,,,,,,,,,,,orange,flipped triangle
410.0,8.0,4.0,1.0,1.0,1.0,418.7812309828587,4.0,1.0,phase_1,,,,,,,,,,,,,cyan,triangle
0.0,8.0,0.0,1.0,3.0,3.0,530.368472012924,4.0,1.0,phase_1,,,,,,,,,,,,,cyan,triangle
53.0,1.0,0.5,0.0,1.0,1.0,430.5709239852149,4.0,1.0,phase_1,,,,,,,,,,,,,green,I
76.0,6.0,1.0,1.0,2.0,2.0,376.0084069799632,4.0,1.0,phase_1,,,,,,,,,,,,,magenta,hexagon
0.0,5.0,0.0,1.0,3.0,3.0,419.3950869957916,4.0,1.0,phase_1,,,,,,,,,,,,,blue,diamond
221.0,3.0,2.0,0.0,1.0,1.0,410.4320589976851,4.0,1.0,phase_1,,,,,,,,,,,,,orange,flipped triangle
187.0,7.0,2.0,1.0,3.0,3.0,514.4613200100139,4.0,1.0,phase_1,,,,,,,,,,,,,white,square
416.0,4.0,4.0,0.0,1.0,1.0,366.9024069968145,4.0,1.0,phase_1,,,,,,,,,,,,,gray,circle
77.0,6.0,1.0,1.0,4.0,4.0,455.2306040131952,4.0,1.0,phase_1,,,,,,,,,,,,,magenta,hexagon
55.0,1.0,0.5,0.0,3.0,3.0,582.5791829847731,4.0,1.0,phase_1,,,,,,,,,,,,,green,I
0.0,3.0,0.0,0.0,3.0,3.0,434.3213090032805,4.0,1.0,phase_1,,,,,,,,,,,,,orange,flipped triangle
112.0,6.0,1.0,1.0,3.0,3.0,358.7474350060802,4.0,1.0,phase_1,,,,,,,,,,,,,magenta,hexagon
213.0,7.0,2.0,1.0,3.0,3.0,357.5717909843661,4.0,1.0,phase_1,,,,,,,,,,,,,white,square
0.0,4.0,0.0,0.0,1.0,1.0,482.6585839909967,4.0,1.0,phase_1,,,,,,,,,,,,,gray,circle
181.0,3.0,2.0,0.0,1.0,1.0,437.5929299858399,4.0,1.0,phase_1,,,,,,,,,,,,,orange,flipped triangle
112.0,2.0,1.0,0.0,1.0,1.0,361.633658001665,4.0,1.0,phase_1,,,,,,,,,,,,,yellow,cross
48.0,5.0,0.5,1.0,2.0,2.0,350.0568650197238,4.0,1.0,phase_1,,,,,,,,,,,,,blue,diamond
382.0,8.0,4.0,1.0,3.0,3.0,381.4649990235921,4.0,1.0,phase_1,,,,,,,,,,,,,cyan,triangle
220.0,3.0,2.0,0.0,4.0,4.0,394.9713610054459,4.0,1.0,phase_1,,,,,,,,,,,,,orange,flipped triangle
0.0,7.0,0.0,1.0,3.0,3.0,383.5824889829382,4.0,1.0,phase_1,,,,,,,,,,,,,white,square
61.0,1.0,0.5,0.0,4.0,4.0,461.4696410135366,4.0,1.0,phase_1,,,,,,,,,,,,,green,I
194.0,7.0,2.0,1.0,2.0,2.0,428.7973110040184,4.0,1.0,phase_1,,,,,,,,,,,,,white,square
113.0,6.0,1.0,1.0,1.0,1.0,375.6605059897993,4.0,1.0,phase_1,,,,,,,,,,,,,magenta,hexagon
106.0,6.0,1.0,1.0,4.0,4.0,429.552068002522,4.0,1.0,phase_1,,,,,,,,,,,,,magenta,hexagon
391.0,8.0,4.0,1.0,3.0,3.0,621.4557429775596,4.0,1.0,phase_1,,,,,,,,,,,,,cyan,triangle
80.0,6.0,1.0,1.0,1.0,1.0,634.0428259863984,4.0,1.0,phase_1,,,,,,,,,,,,,magenta,hexagon
383.0,4.0,4.0,0.0,2.0,2.0,352.6451280049514,4.0,1.0,phase_1,,,,,,,,,,,,,gray,circle
107.0,6.0,1.0,1.0,2.0,2.0,455.3707070008386,4.0,1.0,phase_1,,,,,,,,,,,,,magenta,hexagon
113.0,2.0,1.0,0.0,4.0,4.0,929.8447580076754,4.0,1.0,phase_1,,,,,,,,,,,,,yellow,cross
39.0,5.0,0.5,1.0,1.0,1.0,602.8066370054148,4.0,1.0,phase_1,,,,,,,,,,,,,blue,diamond
78.0,2.0,1.0,0.0,1.0,1.0,635.444697982166,4.0,1.0,phase_1,,,,,,,,,,,,,yellow,cross
180.0,3.0,2.0,0.0,2.0,2.0,512.3624059779104,4.0,1.0,phase_1,,,,,,,,,,,,,orange,flipped triangle
401.0,8.0,4.0,1.0,2.0,2.0,457.3737769969739,4.0,1.0,phase_1,,,,,,,,,,,,,cyan,triangle
183.0,3.0,2.0,0.0,4.0,4.0,494.4983500172384,4.0,1.0,phase_1,,,,,,,,,,,,,orange,flipped triangle
0.0,1.0,0.0,0.0,3.0,3.0,436.7398579779546,4.0,1.0,phase_1,,,,,,,,,,,,,green,I
214.0,3.0,2.0,0.0,1.0,1.0,450.1759879931342,4.0,1.0,phase_1,,,,,,,,,,,,,orange,flipped triangle
57.0,1.0,0.5,0.0,1.0,1.0,482.0408950035926,4.0,1.0,phase_1,,,,,,,,,,,,,green,I
188.0,3.0,2.0,0.0,2.0,2.0,460.0649510102812,4.0,1.0,phase_1,,,,,,,,,,,,,orange,flipped triangle
45.0,5.0,0.5,1.0,4.0,4.0,553.020232997369,4.0,1.0,phase_1,,,,,,,,,,,,,blue,diamond
116.0,2.0,1.0,0.0,1.0,1.0,473.8911439781077,4.0,1.0,phase_1,,,,,,,,,,,,,yellow,cross
0.0,3.0,0.0,0.0,2.0,2.0,482.7972729981411,4.0,1.0,phase_1,,,,,,,,,,,,,orange,flipped triangle
412.0,4.0,4.0,0.0,4.0,4.0,362.6926330034621,4.0,1.0,phase_1,,,,,,,,,,,,,gray,circle
0.0,8.0,0.0,1.0,1.0,1.0,396.6708540101535,4.0,1.0,phase_1,,,,,,,,,,,,,cyan,triangle
0.0,4.0,0.0,0.0,1.0,1.0,565.6920059991535,4.0,1.0,phase_1,,,,,,,,,,,,,gray,circle
405.0,4.0,4.0,0.0,4.0,4.0,532.1274349989835,4.0,1.0,phase_1,,,,,,,,,,,,,gray,circle
215.0,7.0,2.0,1.0,2.0,2.0,387.9012730030808,4.0,1.0,phase_1,,,,,,,,,,,,,white,square
45.0,1.0,0.5,0.0,4.0,4.0,422.6009979902301,4.0,1.0,phase_1,,,,,,,,,,,,,green,I
37.0,1.0,0.5,0.0,1.0,1.0,421.961108018877,4.0,1.0,phase_1,,,,,,,,,,,,,green,I
0.0,2.0,0.0,0.0,2.0,2.0,430.9188009938225,4.0,1.0,phase_1,,,,,,,,,,,,,yellow,cross
190.0,3.0,2.0,0.0,3.0,3.0,465.3376500064041,4.0,1.0,phase_1,,,,,,,,,,,,,orange,flipped triangle
62.0,5.0,0.5,1.0,3.0,3.0,524.3907770200167,4.0,1.0,phase_1,,,,,,,,,,,,,blue,diamond
420.0,4.0,4.0,0.0,2.0,2.0,603.9913490239996,4.0,1.0,phase_1,,,,,,,,,,,,,gray,circle
0.0,3.0,0.0,0.0,3.0,3.0,422.6273980166297,4.0,1.0,phase_1,,,,,,,,,,,,,orange,flipped triangle
385.0,4.0,4.0,0.0,4.0,4.0,435.2582800202071,4.0,1.0,phase_1,,,,,,,,,,,,,gray,circle
0.0,6.0,0.0,1.0,4.0,4.0,515.9503439790569,4.0,1.0,phase_1,,,,,,,,,,,,,magenta,hexagon
0.0,7.0,2.0,1.0,5.0,5.0,665.389066998614,1.0,1.0,phase_2,stop,250.0,250.0,3.0,,,,,,,,,white,square
0.0,7.0,2.0,1.0,5.0,0.0,0.0,1.0,1.0,phase_2,stop,200.0,250.0,4.0,,,,,,,,,white,square
0.0,1.0,0.5,0.0,5.0,5.0,607.9225199937355,1.0,1.0,phase_2,go,250.0,250.0,1.0,,,,,,,,,green,I
0.0,4.0,4.0,0.0,6.0,6.0,846.070880012121,1.0,1.0,phase_2,go,250.0,250.0,1.0,,,,,,,,,gray,circle
0.0,3.0,2.0,0.0,6.0,6.0,1216.5356110199357,1.0,1.0,phase_2,go,250.0,250.0,1.0,,,,,,,,,orange,flipped triangle
0.0,3.0,2.0,0.0,5.0,5.0,958.7428540107794,1.0,1.0,phase_2,go,250.0,250.0,1.0,,,,,,,,,orange,flipped triangle
0.0,3.0,2.0,0.0,6.0,6.0,883.3007360226475,1.0,1.0,phase_2,go,250.0,250.0,1.0,,,,,,,,,orange,flipped triangle
0.0,2.0,1.0,0.0,6.0,6.0,941.5052249969448,1.0,1.0,phase_2,go,250.0,250.0,1.0,,,,,,,,,yellow,cross
0.0,2.0,1.0,0.0,6.0,6.0,1062.270028021885,1.0,1.0,phase_2,go,250.0,250.0,1.0,,,,,,,,,yellow,cross
0.0,4.0,4.0,0.0,5.0,5.0,1121.3053179963026,1.0,1.0,phase_2,go,250.0,250.0,1.0,,,,,,,,,gray,circle
0.0,3.0,2.0,0.0,5.0,5.0,1087.4086389958393,1.0,1.0,phase_2,go,250.0,250.0,1.0,,,,,,,,,orange,flipped triangle
0.0,5.0,0.5,1.0,5.0,0.0,0.0,1.0,1.0,phase_2,stop,250.0,250.0,4.0,,,,,,,,,blue,diamond
0.0,5.0,0.5,1.0,6.0,0.0,0.0,1.0,1.0,phase_2,stop,300.0,250.0,4.0,,,,,,,,,blue,diamond
0.0,1.0,0.5,0.0,6.0,6.0,631.4815749938134,1.0,1.0,phase_2,go,300.0,300.0,1.0,,,,,,,,,green,I
0.0,6.0,1.0,1.0,6.0,0.0,0.0,1.0,1.0,phase_2,stop,300.0,300.0,4.0,,,,,,,,,magenta,hexagon
0.0,5.0,0.5,1.0,5.0,5.0,1059.9821869982406,1.0,1.0,phase_2,go,300.0,350.0,1.0,,,,,,,,,blue,diamond
0.0,5.0,0.5,1.0,5.0,0.0,0.0,1.0,1.0,phase_2,stop,300.0,350.0,4.0,,,,,,,,,blue,diamond
0.0,4.0,4.0,0.0,6.0,6.0,867.9205630032811,1.0,1.0,phase_2,go,350.0,350.0,1.0,,,,,,,,,gray,circle
0.0,3.0,2.0,0.0,6.0,6.0,1128.860925004119,1.0,1.0,phase_2,go,350.0,350.0,1.0,,,,,,,,,orange,flipped triangle
0.0,2.0,1.0,0.0,5.0,5.0,1029.429916001391,1.0,1.0,phase_2,go,350.0,350.0,1.0,,,,,,,,,yellow,cross
0.0,3.0,2.0,0.0,6.0,6.0,679.2509689985309,1.0,1.0,phase_2,go,350.0,350.0,1.0,,,,,,,,,orange,flipped triangle
0.0,4.0,4.0,0.0,5.0,5.0,803.8169580104295,1.0,1.0,phase_2,go,350.0,350.0,1.0,,,,,,,,,gray,circle
0.0,8.0,4.0,1.0,6.0,0.0,0.0,1.0,1.0,phase_2,stop,350.0,350.0,4.0,,,,,,,,,cyan,triangle
0.0,7.0,2.0,1.0,5.0,5.0,909.3756700167432,1.0,1.0,phase_2,go,350.0,400.0,1.0,,,,,,,,,white,square
0.0,8.0,4.0,1.0,6.0,6.0,786.0413920134306,1.0,1.0,phase_2,go,350.0,400.0,1.0,,,,,,,,,cyan,triangle
0.0,3.0,2.0,0.0,5.0,5.0,909.6908569918014,1.0,1.0,phase_2,go,350.0,400.0,1.0,,,,,,,,,orange,flipped triangle
0.0,1.0,0.5,0.0,6.0,6.0,765.1083240052685,1.0,1.0,phase_2,go,350.0,400.0,1.0,,,,,,,,,green,I
0.0,2.0,1.0,0.0,6.0,6.0,921.6799889982212,1.0,1.0,phase_2,go,350.0,400.0,1.0,,,,,,,,,yellow,cross
0.0,6.0,1.0,1.0,6.0,0.0,0.0,1.0,1.0,phase_2,stop,350.0,400.0,4.0,,,,,,,,,magenta,hexagon
0.0,5.0,0.5,1.0,5.0,0.0,0.0,1.0,1.0,phase_2,stop,350.0,450.0,4.0,,,,,,,,,blue,diamond
0.0,4.0,4.0,0.0,6.0,6.0,846.5069549856707,1.0,1.0,phase_2,go,400.0,450.0,1.0,,,,,,,,,gray,circle
0.0,8.0,4.0,1.0,6.0,6.0,1125.9159810142592,1.0,1.0,phase_2,go,400.0,450.0,1.0,,,,,,,,,cyan,triangle
0.0,3.0,2.0,0.0,6.0,6.0,587.4522590020206,1.0,1.0,phase_2,go,400.0,450.0,1.0,,,,,,,,,orange,flipped triangle
0.0,4.0,4.0,0.0,5.0,5.0,1009.0096530038863,1.0,1.0,phase_2,go,400.0,450.0,1.0,,,,,,,,,gray,circle
0.0,3.0,2.0,0.0,6.0,6.0,1105.978400999447,1.0,1.0,phase_2,go,400.0,450.0,1.0,,,,,,,,,orange,flipped triangle
0.0,2.0,1.0,0.0,5.0,5.0,985.4761460155714,1.0,1.0,phase_2,go,400.0,450.0,1.0,,,,,,,,,yellow,cross
0.0,4.0,4.0,0.0,5.0,5.0,833.8320140028372,2.0,1.0,phase_2,go,400.0,450.0,1.0,,,,,,,,,gray,circle
0.0,7.0,2.0,1.0,6.0,0.0,0.0,2.0,1.0,phase_2,stop,400.0,450.0,4.0,,,,,,,,,white,square
0.0,3.0,2.0,0.0,6.0,6.0,992.1446620137432,2.0,1.0,phase_2,go,400.0,500.0,1.0,,,,,,,,,orange,flipped triangle
0.0,6.0,1.0,1.0,6.0,0.0,0.0,2.0,1.0,phase_2,stop,400.0,500.0,4.0,,,,,,,,,magenta,hexagon
0.0,3.0,2.0,0.0,6.0,6.0,1061.8432399933226,2.0,1.0,phase_2,go,400.0,550.0,1.0,,,,,,,,,orange,flipped triangle
0.0,2.0,1.0,0.0,6.0,6.0,1162.3809320153669,2.0,1.0,phase_2,go,400.0,550.0,1.0,,,,,,,,,yellow,cross
0.0,2.0,1.0,0.0,6.0,6.0,1479.997345013544,2.0,1.0,phase_2,go,400.0,550.0,1.0,,,,,,,,,yellow,cross
0.0,8.0,4.0,1.0,5.0,0.0,0.0,2.0,1.0,phase_2,stop,400.0,550.0,4.0,,,,,,,,,cyan,triangle
0.0,4.0,4.0,0.0,6.0,6.0,1085.6834599981084,2.0,1.0,phase_2,go,450.0,550.0,1.0,,,,,,,,,gray,circle
0.0,8.0,4.0,1.0,6.0,6.0,1164.2698829818985,2.0,1.0,phase_2,go,450.0,550.0,1.0,,,,,,,,,cyan,triangle
0.0,6.0,1.0,1.0,5.0,0.0,0.0,2.0,1.0,phase_2,stop,450.0,550.0,4.0,,,,,,,,,magenta,hexagon
0.0,2.0,1.0,0.0,6.0,6.0,1191.7617309954949,2.0,1.0,phase_2,go,500.0,550.0,1.0,,,,,,,,,yellow,cross
0.0,3.0,2.0,0.0,6.0,6.0,1158.517222997034,2.0,1.0,phase_2,go,500.0,550.0,1.0,,,,,,,,,orange,flipped triangle
0.0,7.0,2.0,1.0,6.0,0.0,0.0,2.0,1.0,phase_2,stop,500.0,550.0,4.0,,,,,,,,,white,square
0.0,2.0,1.0,0.0,6.0,6.0,1191.8244679982308,2.0,1.0,phase_2,go,500.0,600.0,1.0,,,,,,,,,yellow,cross
0.0,8.0,4.0,1.0,6.0,0.0,0.0,2.0,1.0,phase_2,stop,500.0,600.0,4.0,,,,,,,,,cyan,triangle
0.0,7.0,2.0,1.0,5.0,0.0,0.0,2.0,1.0,phase_2,stop,500.0,650.0,4.0,,,,,,,,,white,square
0.0,7.0,2.0,1.0,5.0,0.0,0.0,2.0,1.0,phase_2,go,550.0,650.0,5.0,,,,,,,,,white,square
0.0,5.0,0.5,1.0,6.0,0.0,0.0,2.0,1.0,phase_2,stop,550.0,650.0,4.0,,,,,,,,,blue,diamond
0.0,6.0,1.0,1.0,5.0,0.0,0.0,2.0,1.0,phase_2,stop,550.0,700.0,4.0,,,,,,,,,magenta,hexagon
0.0,3.0,2.0,0.0,6.0,6.0,872.0382500032429,2.0,1.0,phase_2,go,600.0,700.0,1.0,,,,,,,,,orange,flipped triangle
0.0,8.0,4.0,1.0,5.0,0.0,0.0,2.0,1.0,phase_2,stop,600.0,700.0,4.0,,,,,,,,,cyan,triangle
0.0,4.0,4.0,0.0,6.0,6.0,1230.523220001487,2.0,1.0,phase_2,go,650.0,700.0,1.0,,,,,,,,,gray,circle
0.0,4.0,4.0,0.0,6.0,6.0,1426.7182330077048,2.0,1.0,phase_2,go,650.0,700.0,1.0,,,,,,,,,gray,circle
0.0,2.0,1.0,0.0,6.0,6.0,1301.2488759995904,2.0,1.0,phase_2,go,650.0,700.0,1.0,,,,,,,,,yellow,cross
0.0,1.0,0.5,0.0,5.0,5.0,1158.6456740042197,2.0,1.0,phase_2,go,650.0,700.0,1.0,,,,,,,,,green,I
0.0,8.0,4.0,1.0,6.0,0.0,0.0,2.0,1.0,phase_2,stop,650.0,700.0,4.0,,,,,,,,,cyan,triangle
0.0,4.0,4.0,0.0,5.0,5.0,1202.7232279942837,2.0,1.0,phase_2,go,650.0,750.0,1.0,,,,,,,,,gray,circle
0.0,8.0,4.0,1.0,6.0,0.0,0.0,2.0,1.0,phase_2,stop,650.0,750.0,4.0,,,,,,,,,cyan,triangle
0.0,7.0,2.0,1.0,6.0,6.0,1180.7324959954713,2.0,1.0,phase_2,go,650.0,800.0,1.0,,,,,,,,,white,square
0.0,2.0,1.0,0.0,5.0,5.0,1217.7456529752817,2.0,1.0,phase_2,go,650.0,800.0,1.0,,,,,,,,,yellow,cross
0.0,8.0,4.0,1.0,6.0,0.0,0.0,2.0,1.0,phase_2,stop,650.0,800.0,4.0,,,,,,,,,cyan,triangle
0.0,6.0,1.0,1.0,5.0,5.0,1264.2489760182798,2.0,1.0,phase_2,go,650.0,850.0,1.0,,,,,,,,,magenta,hexagon
0.0,2.0,1.0,0.0,5.0,5.0,1498.547762981616,2.0,1.0,phase_2,go,650.0,850.0,1.0,,,,,,,,,yellow,cross
0.0,5.0,0.5,1.0,6.0,6.0,1128.4262330154888,2.0,1.0,phase_2,go,650.0,850.0,1.0,,,,,,,,,blue,diamond
0.0,7.0,2.0,1.0,5.0,0.0,0.0,2.0,1.0,phase_2,stop,650.0,850.0,4.0,,,,,,,,,white,square
0.0,2.0,1.0,0.0,6.0,0.0,0.0,3.0,1.0,phase_2,go,700.0,850.0,5.0,,,,,,,,,yellow,cross
0.0,7.0,2.0,1.0,5.0,0.0,0.0,3.0,1.0,phase_2,stop,700.0,850.0,4.0,,,,,,,,,white,square
0.0,8.0,4.0,1.0,5.0,0.0,0.0,3.0,1.0,phase_2,stop,750.0,850.0,4.0,,,,,,,,,cyan,triangle
0.0,5.0,0.5,1.0,5.0,5.0,1005.1128670165781,3.0,1.0,phase_2,stop,800.0,850.0,3.0,,,,,,,,,blue,diamond
0.0,1.0,0.5,0.0,6.0,6.0,1242.7452899864877,3.0,1.0,phase_2,go,750.0,850.0,1.0,,,,,,,,,green,I
0.0,6.0,1.0,1.0,5.0,0.0,0.0,3.0,1.0,phase_2,stop,750.0,850.0,4.0,,,,,,,,,magenta,hexagon
0.0,7.0,2.0,1.0,5.0,0.0,0.0,3.0,1.0,phase_2,stop,800.0,850.0,4.0,,,,,,,,,white,square
0.0,1.0,0.5,0.0,6.0,6.0,1478.9931450213771,3.0,1.0,phase_2,go,850.0,850.0,1.0,,,,,,,,,green,I
0.0,4.0,4.0,0.0,5.0,5.0,1290.0711599795611,3.0,1.0,phase_2,go,850.0,850.0,1.0,,,,,,,,,gray,circle
0.0,5.0,0.5,1.0,6.0,0.0,0.0,3.0,1.0,phase_2,stop,850.0,850.0,4.0,,,,,,,,,blue,diamond
0.0,7.0,2.0,1.0,5.0,5.0,1403.848541987827,3.0,1.0,phase_2,go,850.0,900.0,1.0,,,,,,,,,white,square
0.0,5.0,0.5,1.0,6.0,0.0,0.0,3.0,1.0,phase_2,stop,850.0,900.0,4.0,,,,,,,,,blue,diamond
0.0,6.0,1.0,1.0,5.0,0.0,0.0,3.0,1.0,phase_2,stop,850.0,950.0,4.0,,,,,,,,,magenta,hexagon
0.0,6.0,1.0,1.0,6.0,0.0,0.0,3.0,1.0,phase_2,stop,900.0,950.0,4.0,,,,,,,,,magenta,hexagon
0.0,6.0,1.0,1.0,6.0,6.0,1261.9056809926406,3.0,1.0,phase_2,go,900.0,1000.0,1.0,,,,,,,,,magenta,hexagon
0.0,8.0,4.0,1.0,6.0,6.0,1320.2120420173742,3.0,1.0,phase_2,go,900.0,1000.0,1.0,,,,,,,,,cyan,triangle
0.0,6.0,1.0,1.0,6.0,0.0,0.0,3.0,1.0,phase_2,stop,900.0,1000.0,4.0,,,,,,,,,magenta,hexagon
0.0,3.0,2.0,0.0,5.0,5.0,1341.2154909747187,3.0,1.0,phase_2,go,900.0,1050.0,1.0,,,,,,,,,orange,flipped triangle
0.0,2.0,1.0,0.0,6.0,6.0,1331.6995410132222,3.0,1.0,phase_2,go,900.0,1050.0,1.0,,,,,,,,,yellow,cross
0.0,5.0,0.5,1.0,5.0,0.0,0.0,3.0,1.0,phase_2,stop,900.0,1050.0,4.0,,,,,,,,,blue,diamond
0.0,1.0,0.5,0.0,6.0,6.0,1289.4939619873185,3.0,1.0,phase_2,go,950.0,1050.0,1.0,,,,,,,,,green,I
0.0,2.0,1.0,0.0,5.0,5.0,1344.4720249972306,3.0,1.0,phase_2,go,950.0,1050.0,1.0,,,,,,,,,yellow,cross
0.0,2.0,1.0,0.0,6.0,6.0,1019.0366639872082,3.0,1.0,phase_2,go,950.0,1050.0,1.0,,,,,,,,,yellow,cross
0.0,6.0,1.0,1.0,6.0,0.0,0.0,3.0,1.0,phase_2,stop,950.0,1050.0,4.0,,,,,,,,,magenta,hexagon
0.0,5.0,0.5,1.0,5.0,0.0,0.0,3.0,1.0,phase_2,stop,950.0,1100.0,4.0,,,,,,,,,blue,diamond
0.0,1.0,0.5,0.0,5.0,5.0,1362.4435579986311,3.0,1.0,phase_2,go,1000.0,1100.0,1.0,,,,,,,,,green,I
0.0,6.0,1.0,1.0,6.0,0.0,0.0,3.0,1.0,phase_2,stop,1000.0,1100.0,4.0,,,,,,,,,magenta,hexagon
0.0,5.0,0.5,1.0,6.0,6.0,1463.437583995983,3.0,1.0,phase_2,go,1000.0,1150.0,1.0,,,,,,,,,blue,diamond
0.0,3.0,2.0,0.0,6.0,6.0,1397.2664469911251,3.0,1.0,phase_2,go,1000.0,1150.0,1.0,,,,,,,,,orange,flipped triangle
0.0,7.0,2.0,1.0,6.0,0.0,0.0,3.0,1.0,phase_2,stop,1000.0,1150.0,4.0,,,,,,,,,white,square
0.0,1.0,0.5,0.0,6.0,6.0,1396.1519020085689,3.0,1.0,phase_2,go,1000.0,1200.0,1.0,,,,,,,,,green,I
0.0,4.0,4.0,0.0,5.0,0.0,0.0,3.0,1.0,phase_2,go,1000.0,1200.0,5.0,,,,,,,,,gray,circle
0.0,3.0,2.0,0.0,5.0,5.0,973.3783259871416,3.0,1.0,phase_2,go,1000.0,1200.0,1.0,,,,,,,,,orange,flipped triangle
0.0,7.0,2.0,1.0,5.0,0.0,0.0,3.0,1.0,phase_2,stop,1000.0,1200.0,4.0,,,,,,,,,white,square
0.0,6.0,1.0,1.0,6.0,6.0,1289.9137990025338,3.0,1.0,phase_2,stop,1050.0,1200.0,3.0,,,,,,,,,magenta,hexagon
0.0,5.0,0.5,1.0,6.0,0.0,0.0,3.0,1.0,phase_2,stop,1050.0,1150.0,4.0,,,,,,,,,blue,diamond
0.0,4.0,4.0,0.0,5.0,5.0,1226.4332820195705,4.0,1.0,phase_2,go,1050.0,1200.0,1.0,,,,,,,,,gray,circle
0.0,5.0,0.5,1.0,5.0,5.0,1124.4056769937745,4.0,1.0,phase_2,stop,1050.0,1200.0,3.0,,,,,,,,,blue,diamond
0.0,5.0,0.5,1.0,5.0,5.0,979.3986809963826,4.0,1.0,phase_2,go,1000.0,1200.0,1.0,,,,,,,,,blue,diamond
0.0,5.0,0.5,1.0,5.0,5.0,1220.455814996967,4.0,1.0,phase_2,stop,1000.0,1200.0,3.0,,,,,,,,,blue,diamond
0.0,3.0,2.0,0.0,5.0,5.0,1342.8685609833335,4.0,1.0,phase_2,go,950.0,1200.0,1.0,,,,,,,,,orange,flipped triangle
0.0,1.0,0.5,0.0,6.0,6.0,1286.6406580142211,4.0,1.0,phase_2,go,950.0,1200.0,1.0,,,,,,,,,green,I
0.0,1.0,0.5,0.0,5.0,0.0,0.0,4.0,1.0,phase_2,go,950.0,1200.0,5.0,,,,,,,,,green,I
0.0,3.0,2.0,0.0,6.0,6.0,1222.5987109995913,4.0,1.0,phase_2,go,950.0,1200.0,1.0,,,,,,,,,orange,flipped triangle
0.0,4.0,4.0,0.0,5.0,5.0,1369.4658929889556,4.0,1.0,phase_2,go,950.0,1200.0,1.0,,,,,,,,,gray,circle
0.0,1.0,0.5,0.0,5.0,5.0,1110.566391987959,4.0,1.0,phase_2,go,950.0,1200.0,1.0,,,,,,,,,green,I
0.0,3.0,2.0,0.0,5.0,5.0,1301.68270500144,4.0,1.0,phase_2,go,950.0,1200.0,1.0,,,,,,,,,orange,flipped triangle
0.0,7.0,2.0,1.0,6.0,6.0,1470.8467989985363,4.0,1.0,phase_2,stop,950.0,1200.0,3.0,,,,,,,,,white,square
0.0,2.0,1.0,0.0,5.0,5.0,1257.972969004186,4.0,1.0,phase_2,go,950.0,1150.0,1.0,,,,,,,,,yellow,cross
0.0,3.0,2.0,0.0,6.0,6.0,1295.1606390124653,4.0,1.0,phase_2,go,950.0,1150.0,1.0,,,,,,,,,orange,flipped triangle
0.0,2.0,1.0,0.0,5.0,5.0,1169.4513199909125,4.0,1.0,phase_2,go,950.0,1150.0,1.0,,,,,,,,,yellow,cross
0.0,7.0,2.0,1.0,6.0,6.0,1217.7569399937056,4.0,1.0,phase_2,stop,950.0,1150.0,3.0,,,,,,,,,white,square
0.0,7.0,2.0,1.0,6.0,0.0,0.0,4.0,1.0,phase_2,stop,950.0,1100.0,4.0,,,,,,,,,white,square
0.0,1.0,0.5,0.0,5.0,0.0,0.0,4.0,1.0,phase_2,go,950.0,1150.0,5.0,,,,,,,,,green,I
0.0,3.0,2.0,0.0,5.0,5.0,1387.555238005007,4.0,1.0,phase_2,go,950.0,1150.0,1.0,,,,,,,,,orange,flipped triangle
0.0,7.0,2.0,1.0,6.0,6.0,1263.662192999618,4.0,1.0,phase_2,stop,950.0,1150.0,3.0,,,,,,,,,white,square
0.0,8.0,4.0,1.0,5.0,5.0,1097.2892630088609,4.0,1.0,phase_2,stop,950.0,1100.0,3.0,,,,,,,,,cyan,triangle
0.0,8.0,4.0,1.0,6.0,6.0,1333.9399590040557,4.0,1.0,phase_2,stop,900.0,1100.0,3.0,,,,,,,,,cyan,triangle
0.0,4.0,4.0,0.0,6.0,6.0,1190.5275430181064,4.0,1.0,phase_2,go,900.0,1050.0,1.0,,,,,,,,,gray,circle
0.0,4.0,4.0,0.0,5.0,5.0,1268.8448319968302,4.0,1.0,phase_2,go,900.0,1050.0,1.0,,,,,,,,,gray,circle
0.0,5.0,0.5,1.0,6.0,6.0,831.5467160136905,4.0,1.0,phase_2,stop,900.0,1050.0,3.0,,,,,,,,,blue,diamond
0.0,3.0,2.0,0.0,6.0,6.0,1315.808624989586,4.0,1.0,phase_2,go,900.0,1000.0,1.0,,,,,,,,,orange,flipped triangle
0.0,2.0,1.0,0.0,6.0,0.0,0.0,4.0,1.0,phase_2,go,900.0,1000.0,5.0,,,,,,,,,yellow,cross
0.0,1.0,0.5,0.0,5.0,5.0,820.5338249972556,4.0,1.0,phase_2,go,900.0,1000.0,1.0,,,,,,,,,green,I
0.0,6.0,1.0,1.0,6.0,6.0,1015.4466450039763,4.0,1.0,phase_2,go,900.0,1000.0,1.0,,,,,,,,,magenta,hexagon
0.0,5.0,0.5,1.0,6.0,6.0,1071.4310409966856,4.0,1.0,phase_2,stop,900.0,1000.0,3.0,,,,,,,,,blue,diamond
0.0,5.0,0.5,1.0,5.0,5.0,700.0283170200419,4.0,1.0,phase_2,go,900.0,950.0,1.0,,,,,,,,,blue,diamond
0.0,6.0,1.0,1.0,6.0,6.0,845.5712989962194,4.0,1.0,phase_2,stop,900.0,950.0,3.0,,,,,,,,,magenta,hexagon
0.0,3.0,2.0,0.0,5.0,5.0,835.5125979869626,4.0,1.0,phase_2,go,900.0,900.0,1.0,,,,,,,,,orange,flipped triangle
0.0,1.0,0.5,0.0,6.0,6.0,1499.8780860041734,4.0,1.0,phase_2,go,900.0,900.0,1.0,,,,,,,,,green,I
0.0,1.0,0.5,0.0,5.0,5.0,1290.4337119834963,4.0,1.0,phase_2,go,900.0,900.0,1.0,,,,,,,,,green,I
0.0,8.0,4.0,1.0,5.0,0.0,0.0,4.0,1.0,phase_2,stop,900.0,900.0,4.0,,,,,,,,,cyan,triangle
0.0,4.0,4.0,0.0,6.0,6.0,1052.925513999071,5.0,1.0,phase_2,go,950.0,900.0,1.0,,,,,,,,,gray,circle
0.0,6.0,1.0,1.0,5.0,5.0,927.368482982274,5.0,1.0,phase_2,stop,950.0,900.0,3.0,,,,,,,,,magenta,hexagon
0.0,1.0,0.5,0.0,5.0,5.0,996.6800779802724,5.0,1.0,phase_2,go,900.0,900.0,1.0,,,,,,,,,green,I
0.0,6.0,1.0,1.0,5.0,5.0,1255.1027949957645,5.0,1.0,phase_2,go,900.0,900.0,1.0,,,,,,,,,magenta,hexagon
0.0,5.0,0.5,1.0,6.0,0.0,0.0,5.0,1.0,phase_2,stop,900.0,900.0,4.0,,,,,,,,,blue,diamond
0.0,1.0,0.5,0.0,6.0,6.0,1168.3524230029434,5.0,1.0,phase_2,go,900.0,950.0,1.0,,,,,,,,,green,I
0.0,5.0,0.5,1.0,6.0,0.0,0.0,5.0,1.0,phase_2,stop,900.0,950.0,4.0,,,,,,,,,blue,diamond
0.0,7.0,2.0,1.0,6.0,6.0,1149.4080609991215,5.0,1.0,phase_2,stop,900.0,1000.0,3.0,,,,,,,,,white,square
0.0,7.0,2.0,1.0,5.0,5.0,1450.253671995597,5.0,1.0,phase_2,go,900.0,950.0,1.0,,,,,,,,,white,square
0.0,6.0,1.0,1.0,5.0,5.0,1397.1333730150943,5.0,1.0,phase_2,go,900.0,950.0,1.0,,,,,,,,,magenta,hexagon
0.0,2.0,1.0,0.0,6.0,6.0,1161.6488010040484,5.0,1.0,phase_2,go,900.0,950.0,1.0,,,,,,,,,yellow,cross
0.0,2.0,1.0,0.0,5.0,5.0,1219.3801639950834,5.0,1.0,phase_2,go,900.0,950.0,1.0,,,,,,,,,yellow,cross
0.0,4.0,4.0,0.0,6.0,6.0,892.7717469923664,5.0,1.0,phase_2,go,900.0,950.0,1.0,,,,,,,,,gray,circle
0.0,8.0,4.0,1.0,6.0,6.0,1106.7644160066266,5.0,1.0,phase_2,go,900.0,950.0,1.0,,,,,,,,,cyan,triangle
0.0,2.0,1.0,0.0,5.0,5.0,1278.644075995544,5.0,1.0,phase_2,go,900.0,950.0,1.0,,,,,,,,,yellow,cross
0.0,6.0,1.0,1.0,5.0,0.0,0.0,5.0,1.0,phase_2,stop,900.0,950.0,4.0,,,,,,,,,magenta,hexagon
0.0,8.0,4.0,1.0,5.0,5.0,1142.6855349855032,5.0,1.0,phase_2,stop,950.0,950.0,3.0,,,,,,,,,cyan,triangle
0.0,6.0,1.0,1.0,6.0,6.0,1154.1476849815808,5.0,1.0,phase_2,stop,900.0,950.0,3.0,,,,,,,,,magenta,hexagon
0.0,1.0,0.5,0.0,6.0,6.0,988.033125991933,5.0,1.0,phase_2,go,900.0,900.0,1.0,,,,,,,,,green,I
0.0,5.0,0.5,1.0,5.0,0.0,0.0,5.0,1.0,phase_2,stop,900.0,900.0,4.0,,,,,,,,,blue,diamond
0.0,7.0,2.0,1.0,5.0,5.0,1358.9419079944491,5.0,1.0,phase_2,go,950.0,900.0,1.0,,,,,,,,,white,square
0.0,3.0,2.0,0.0,6.0,6.0,1393.895226996392,5.0,1.0,phase_2,go,950.0,900.0,1.0,,,,,,,,,orange,flipped triangle
0.0,3.0,2.0,0.0,6.0,6.0,1408.0213169800118,5.0,1.0,phase_2,go,950.0,900.0,1.0,,,,,,,,,orange,flipped triangle
0.0,1.0,0.5,0.0,5.0,5.0,1484.885400015628,5.0,1.0,phase_2,go,950.0,900.0,1.0,,,,,,,,,green,I
0.0,7.0,2.0,1.0,5.0,0.0,0.0,5.0,1.0,phase_2,stop,950.0,900.0,4.0,,,,,,,,,white,square
0.0,6.0,1.0,1.0,5.0,0.0,0.0,5.0,1.0,phase_2,stop,1000.0,900.0,4.0,,,,,,,,,magenta,hexagon
0.0,2.0,1.0,0.0,6.0,6.0,1119.725112977903,5.0,1.0,phase_2,go,1050.0,900.0,1.0,,,,,,,,,yellow,cross
0.0,2.0,1.0,0.0,5.0,5.0,1389.059006003663,5.0,1.0,phase_2,go,1050.0,900.0,1.0,,,,,,,,,yellow,cross
0.0,1.0,0.5,0.0,6.0,0.0,0.0,5.0,1.0,phase_2,go,1050.0,900.0,5.0,,,,,,,,,green,I
0.0,4.0,4.0,0.0,6.0,6.0,1390.3576949960552,5.0,1.0,phase_2,go,1050.0,900.0,1.0,,,,,,,,,gray,circle
0.0,3.0,2.0,0.0,5.0,5.0,1246.7142849927768,5.0,1.0,phase_2,go,1050.0,900.0,1.0,,,,,,,,,orange,flipped triangle
0.0,7.0,2.0,1.0,5.0,5.0,1280.921882018447,5.0,1.0,phase_2,stop,1050.0,900.0,3.0,,,,,,,,,white,square
0.0,6.0,1.0,1.0,5.0,5.0,1045.4217749938834,5.0,1.0,phase_2,stop,1000.0,900.0,3.0,,,,,,,,,magenta,hexagon
0.0,4.0,4.0,0.0,6.0,6.0,1170.1332259981427,5.0,1.0,phase_2,go,950.0,900.0,1.0,,,,,,,,,gray,circle
0.0,8.0,4.0,1.0,5.0,5.0,1200.8052080054767,5.0,1.0,phase_2,stop,950.0,900.0,3.0,,,,,,,,,cyan,triangle
0.0,6.0,1.0,1.0,6.0,0.0,0.0,5.0,1.0,phase_2,stop,900.0,900.0,4.0,,,,,,,,,magenta,hexagon
0.0,1.0,0.5,0.0,5.0,5.0,796.5244619990699,6.0,1.0,phase_2,go,900.0,950.0,1.0,,,,,,,,,green,I
0.0,4.0,4.0,0.0,6.0,6.0,334.2852420173585,6.0,1.0,phase_2,go,900.0,950.0,1.0,,,,,,,,,gray,circle
0.0,1.0,0.5,0.0,6.0,6.0,368.4103150153532,6.0,1.0,phase_2,go,900.0,950.0,1.0,,,,,,,,,green,I
0.0,4.0,4.0,0.0,5.0,5.0,361.7257600126322,6.0,1.0,phase_2,go,900.0,950.0,1.0,,,,,,,,,gray,circle
0.0,7.0,2.0,1.0,6.0,6.0,373.3653199742548,6.0,1.0,phase_2,stop,900.0,950.0,3.0,,,,,,,,,white,square
0.0,5.0,0.5,1.0,5.0,5.0,610.0775320082903,6.0,1.0,phase_2,stop,900.0,900.0,3.0,,,,,,,,,blue,diamond
0.0,2.0,1.0,0.0,5.0,5.0,371.4270150230732,6.0,1.0,phase_2,go,850.0,900.0,1.0,,,,,,,,,yellow,cross
0.0,5.0,0.5,1.0,6.0,6.0,274.435508006718,6.0,1.0,phase_2,go,850.0,900.0,1.0,,,,,,,,,blue,diamond
0.0,2.0,1.0,0.0,6.0,6.0,373.9570649922825,6.0,1.0,phase_2,go,850.0,900.0,1.0,,,,,,,,,yellow,cross
0.0,2.0,1.0,0.0,6.0,6.0,275.7449460041243,6.0,1.0,phase_2,go,850.0,900.0,1.0,,,,,,,,,yellow,cross
0.0,6.0,1.0,1.0,5.0,5.0,288.6263060208875,6.0,1.0,phase_2,stop,850.0,900.0,3.0,,,,,,,,,magenta,hexagon
0.0,7.0,2.0,1.0,5.0,5.0,412.2787789965514,6.0,1.0,phase_2,stop,800.0,900.0,3.0,,,,,,,,,white,square
0.0,5.0,0.5,1.0,5.0,5.0,288.6111640254967,6.0,1.0,phase_2,go,750.0,900.0,1.0,,,,,,,,,blue,diamond
0.0,1.0,0.5,0.0,5.0,5.0,344.2561400006525,6.0,1.0,phase_2,go,750.0,900.0,1.0,,,,,,,,,green,I
0.0,8.0,4.0,1.0,6.0,6.0,526.8434369936585,6.0,1.0,phase_2,stop,750.0,900.0,3.0,,,,,,,,,cyan,triangle
0.0,3.0,2.0,0.0,5.0,5.0,310.7372729864437,6.0,1.0,phase_2,go,750.0,850.0,1.0,,,,,,,,,orange,flipped triangle
0.0,4.0,4.0,0.0,6.0,6.0,326.7617840028833,6.0,1.0,phase_2,go,750.0,850.0,1.0,,,,,,,,,gray,circle
0.0,8.0,4.0,1.0,6.0,6.0,349.4971409963909,6.0,1.0,phase_2,stop,750.0,850.0,3.0,,,,,,,,,cyan,triangle
0.0,6.0,1.0,1.0,5.0,5.0,271.9349199905991,6.0,1.0,phase_2,stop,750.0,800.0,3.0,,,,,,,,,magenta,hexagon
0.0,4.0,4.0,0.0,5.0,5.0,336.9119540147949,6.0,1.0,phase_2,go,700.0,800.0,1.0,,,,,,,,,gray,circle
0.0,4.0,4.0,0.0,5.0,5.0,328.9712219848297,6.0,1.0,phase_2,go,700.0,800.0,1.0,,,,,,,,,gray,circle
0.0,5.0,0.5,1.0,6.0,6.0,282.3101480025798,6.0,1.0,phase_2,stop,700.0,800.0,3.0,,,,,,,,,blue,diamond
0.0,5.0,0.5,1.0,6.0,6.0,318.0994969734456,6.0,1.0,phase_2,stop,700.0,750.0,3.0,,,,,,,,,blue,diamond
0.0,6.0,1.0,1.0,5.0,5.0,332.1468939830083,6.0,1.0,phase_2,stop,700.0,700.0,3.0,,,,,,,,,magenta,hexagon
0.0,6.0,1.0,1.0,6.0,6.0,240.1049819891341,6.0,1.0,phase_2,go,650.0,700.0,1.0,,,,,,,,,magenta,hexagon
0.0,6.0,1.0,1.0,5.0,5.0,252.0922860130667,6.0,1.0,phase_2,stop,650.0,700.0,3.0,,,,,,,,,magenta,hexagon
0.0,1.0,0.5,0.0,6.0,6.0,276.8311509862542,6.0,1.0,phase_2,go,600.0,700.0,1.0,,,,,,,,,green,I
0.0,2.0,1.0,0.0,6.0,6.0,255.2580479823518,6.0,1.0,phase_2,go,600.0,700.0,1.0,,,,,,,,,yellow,cross
0.0,4.0,4.0,0.0,5.0,5.0,290.9506149881053,6.0,1.0,phase_2,go,600.0,700.0,1.0,,,,,,,,,gray,circle
0.0,2.0,1.0,0.0,5.0,5.0,356.6816989914514,6.0,1.0,phase_2,go,600.0,700.0,1.0,,,,,,,,,yellow,cross
0.0,8.0,4.0,1.0,5.0,5.0,302.0609460072592,6.0,1.0,phase_2,stop,600.0,700.0,3.0,,,,,,,,,cyan,triangle
0.0,2.0,1.0,0.0,5.0,5.0,337.6741200045217,6.0,1.0,phase_2,go,550.0,700.0,1.0,,,,,,,,,yellow,cross
0.0,7.0,2.0,1.0,6.0,6.0,302.9718559992034,6.0,1.0,phase_2,go,550.0,700.0,1.0,,,,,,,,,white,square
0.0,2.0,1.0,0.0,5.0,5.0,338.320170994848,6.0,1.0,phase_2,go,550.0,700.0,1.0,,,,,,,,,yellow,cross
0.0,3.0,2.0,0.0,5.0,5.0,329.8938950174488,6.0,1.0,phase_2,go,550.0,700.0,1.0,,,,,,,,,orange,flipped triangle
0.0,8.0,4.0,1.0,5.0,5.0,294.5292430231347,6.0,1.0,phase_2,stop,550.0,700.0,3.0,,,,,,,,,cyan,triangle
0.0,5.0,0.5,1.0,6.0,6.0,1219.2222519952338,7.0,1.0,phase_2,go,500.0,700.0,1.0,,,,,,,,,blue,diamond
0.0,2.0,1.0,0.0,6.0,6.0,1318.3570700057317,7.0,1.0,phase_2,go,500.0,700.0,1.0,,,,,,,,,yellow,cross
0.0,7.0,2.0,1.0,6.0,0.0,0.0,7.0,1.0,phase_2,stop,500.0,700.0,4.0,,,,,,,,,white,square
0.0,8.0,4.0,1.0,5.0,0.0,0.0,7.0,1.0,phase_2,stop,500.0,750.0,4.0,,,,,,,,,cyan,triangle
0.0,8.0,4.0,1.0,6.0,0.0,0.0,7.0,1.0,phase_2,stop,550.0,750.0,4.0,,,,,,,,,cyan,triangle
0.0,6.0,1.0,1.0,5.0,5.0,1176.9811459816992,7.0,1.0,phase_2,go,550.0,800.0,1.0,,,,,,,,,magenta,hexagon
0.0,5.0,0.5,1.0,5.0,5.0,1055.5636910139583,7.0,1.0,phase_2,go,550.0,800.0,1.0,,,,,,,,,blue,diamond
0.0,4.0,4.0,0.0,6.0,6.0,1221.7707609815989,7.0,1.0,phase_2,go,550.0,800.0,1.0,,,,,,,,,gray,circle
0.0,4.0,4.0,0.0,6.0,6.0,1077.2288260050118,7.0,1.0,phase_2,go,550.0,800.0,1.0,,,,,,,,,gray,circle
0.0,1.0,0.5,0.0,5.0,5.0,998.5155010072048,7.0,1.0,phase_2,go,550.0,800.0,1.0,,,,,,,,,green,I
0.0,8.0,4.0,1.0,5.0,0.0,0.0,7.0,1.0,phase_2,stop,550.0,800.0,4.0,,,,,,,,,cyan,triangle
0.0,4.0,4.0,0.0,5.0,5.0,1224.6924039791338,7.0,1.0,phase_2,go,600.0,800.0,1.0,,,,,,,,,gray,circle
0.0,1.0,0.5,0.0,6.0,6.0,1092.8680849901866,7.0,1.0,phase_2,go,600.0,800.0,1.0,,,,,,,,,green,I
0.0,4.0,4.0,0.0,5.0,5.0,1102.4782579916064,7.0,1.0,phase_2,go,600.0,800.0,1.0,,,,,,,,,gray,circle
0.0,1.0,0.5,0.0,6.0,6.0,1204.570069006877,7.0,1.0,phase_2,go,600.0,800.0,1.0,,,,,,,,,green,I
0.0,3.0,2.0,0.0,6.0,6.0,1307.111928006634,7.0,1.0,phase_2,go,600.0,800.0,1.0,,,,,,,,,orange,flipped triangle
0.0,3.0,2.0,0.0,5.0,5.0,1230.9300779888872,7.0,1.0,phase_2,go,600.0,800.0,1.0,,,,,,,,,orange,flipped triangle
0.0,5.0,0.5,1.0,6.0,0.0,0.0,7.0,1.0,phase_2,stop,600.0,800.0,4.0,,,,,,,,,blue,diamond
0.0,6.0,1.0,1.0,6.0,6.0,1095.6272690091282,7.0,1.0,phase_2,go,600.0,850.0,1.0,,,,,,,,,magenta,hexagon
0.0,7.0,2.0,1.0,5.0,0.0,0.0,7.0,1.0,phase_2,stop,600.0,850.0,4.0,,,,,,,,,white,square
0.0,4.0,4.0,0.0,6.0,6.0,1031.8995479901787,7.0,1.0,phase_2,go,650.0,850.0,1.0,,,,,,,,,gray,circle
0.0,7.0,2.0,1.0,6.0,0.0,0.0,7.0,1.0,phase_2,stop,650.0,850.0,4.0,,,,,,,,,white,square
0.0,8.0,4.0,1.0,6.0,0.0,0.0,7.0,1.0,phase_2,stop,650.0,900.0,4.0,,,,,,,,,cyan,triangle
0.0,8.0,4.0,1.0,5.0,0.0,0.0,7.0,1.0,phase_2,stop,650.0,950.0,4.0,,,,,,,,,cyan,triangle
0.0,1.0,0.5,0.0,5.0,5.0,1145.2217799960636,7.0,1.0,phase_2,go,700.0,950.0,1.0,,,,,,,,,green,I
0.0,4.0,4.0,0.0,6.0,6.0,1204.448625998339,7.0,1.0,phase_2,go,700.0,950.0,1.0,,,,,,,,,gray,circle
0.0,7.0,2.0,1.0,6.0,6.0,1014.7793370124418,7.0,1.0,phase_2,stop,700.0,950.0,3.0,,,,,,,,,white,square
0.0,6.0,1.0,1.0,6.0,0.0,0.0,7.0,1.0,phase_2,stop,700.0,900.0,4.0,,,,,,,,,magenta,hexagon
0.0,1.0,0.5,0.0,6.0,6.0,1194.178125995677,7.0,1.0,phase_2,go,700.0,950.0,1.0,,,,,,,,,green,I
0.0,1.0,0.5,0.0,5.0,5.0,1385.3385109978262,7.0,1.0,phase_2,go,700.0,950.0,1.0,,,,,,,,,green,I
0.0,2.0,1.0,0.0,5.0,5.0,1377.257997984998,7.0,1.0,phase_2,go,700.0,950.0,1.0,,,,,,,,,yellow,cross
0.0,5.0,0.5,1.0,6.0,0.0,0.0,7.0,1.0,phase_2,stop,700.0,950.0,4.0,,,,,,,,,blue,diamond
0.0,8.0,4.0,1.0,6.0,0.0,0.0,7.0,1.0,phase_2,stop,700.0,1000.0,4.0,,,,,,,,,cyan,triangle
0.0,1.0,0.5,0.0,5.0,5.0,1145.0117570057046,7.0,1.0,phase_2,go,700.0,1050.0,1.0,,,,,,,,,green,I
0.0,7.0,2.0,1.0,5.0,0.0,0.0,7.0,1.0,phase_2,stop,700.0,1050.0,4.0,,,,,,,,,white,square
0.0,5.0,0.5,1.0,5.0,0.0,0.0,7.0,1.0,phase_2,stop,750.0,1050.0,4.0,,,,,,,,,blue,diamond
0.0,5.0,0.5,1.0,5.0,5.0,1079.1825829946902,8.0,1.0,phase_2,stop,800.0,1050.0,3.0,,,,,,,,,blue,diamond
0.0,8.0,4.0,1.0,5.0,5.0,965.2146919979714,8.0,1.0,phase_2,go,750.0,1050.0,1.0,,,,,,,,,cyan,triangle
0.0,5.0,0.5,1.0,5.0,5.0,955.3190559963696,8.0,1.0,phase_2,stop,750.0,1050.0,3.0,,,,,,,,,blue,diamond
0.0,2.0,1.0,0.0,5.0,5.0,1038.185227982467,8.0,1.0,phase_2,go,700.0,1050.0,1.0,,,,,,,,,yellow,cross
0.0,8.0,4.0,1.0,5.0,5.0,982.987309980672,8.0,1.0,phase_2,go,700.0,1050.0,1.0,,,,,,,,,cyan,triangle
0.0,7.0,2.0,1.0,6.0,6.0,700.3846379811876,8.0,1.0,phase_2,stop,700.0,1050.0,3.0,,,,,,,,,white,square
0.0,8.0,4.0,1.0,5.0,0.0,0.0,8.0,1.0,phase_2,stop,700.0,1000.0,4.0,,,,,,,,,cyan,triangle
0.0,3.0,2.0,0.0,5.0,5.0,1083.6090510128995,8.0,1.0,phase_2,go,750.0,1000.0,1.0,,,,,,,,,orange,flipped triangle
0.0,8.0,4.0,1.0,6.0,6.0,1298.722578008892,8.0,1.0,phase_2,go,750.0,1000.0,1.0,,,,,,,,,cyan,triangle
0.0,2.0,1.0,0.0,5.0,5.0,926.4127679925878,8.0,1.0,phase_2,go,750.0,1000.0,1.0,,,,,,,,,yellow,cross
0.0,4.0,4.0,0.0,5.0,5.0,916.5756740258076,8.0,1.0,phase_2,go,750.0,1000.0,1.0,,,,,,,,,gray,circle
0.0,3.0,2.0,0.0,5.0,5.0,1121.8150979839263,8.0,1.0,phase_2,go,750.0,1000.0,1.0,,,,,,,,,orange,flipped triangle
0.0,3.0,2.0,0.0,5.0,5.0,996.6565300128424,8.0,1.0,phase_2,go,750.0,1000.0,1.0,,,,,,,,,orange,flipped triangle
0.0,3.0,2.0,0.0,6.0,6.0,875.6256860215217,8.0,1.0,phase_2,go,750.0,1000.0,1.0,,,,,,,,,orange,flipped triangle
0.0,7.0,2.0,1.0,6.0,6.0,999.9409439915324,8.0,1.0,phase_2,stop,750.0,1000.0,3.0,,,,,,,,,white,square
0.0,1.0,0.5,0.0,6.0,6.0,1270.110170007683,8.0,1.0,phase_2,go,750.0,950.0,1.0,,,,,,,,,green,I
0.0,8.0,4.0,1.0,5.0,0.0,0.0,8.0,1.0,phase_2,stop,750.0,950.0,4.0,,,,,,,,,cyan,triangle
0.0,7.0,2.0,1.0,6.0,0.0,0.0,8.0,1.0,phase_2,stop,800.0,950.0,4.0,,,,,,,,,white,square
0.0,3.0,2.0,0.0,5.0,5.0,992.6690139982384,8.0,1.0,phase_2,go,800.0,1000.0,1.0,,,,,,,,,orange,flipped triangle
0.0,1.0,0.5,0.0,6.0,6.0,1094.3086799816228,8.0,1.0,phase_2,go,800.0,1000.0,1.0,,,,,,,,,green,I
0.0,6.0,1.0,1.0,5.0,0.0,0.0,8.0,1.0,phase_2,stop,800.0,1000.0,4.0,,,,,,,,,magenta,hexagon
0.0,8.0,4.0,1.0,5.0,5.0,913.5846059944016,8.0,1.0,phase_2,stop,850.0,1000.0,3.0,,,,,,,,,cyan,triangle
0.0,8.0,4.0,1.0,6.0,6.0,680.4269340063911,8.0,1.0,phase_2,go,800.0,1000.0,1.0,,,,,,,,,cyan,triangle
0.0,1.0,0.5,0.0,5.0,5.0,1253.2967029837891,8.0,1.0,phase_2,go,800.0,1000.0,1.0,,,,,,,,,green,I
0.0,7.0,2.0,1.0,6.0,6.0,1051.1974670225754,8.0,1.0,phase_2,go,800.0,1000.0,1.0,,,,,,,,,white,square
0.0,4.0,4.0,0.0,6.0,6.0,1096.6888270049822,8.0,1.0,phase_2,go,800.0,1000.0,1.0,,,,,,,,,gray,circle
0.0,5.0,0.5,1.0,6.0,6.0,974.6624779945704,8.0,1.0,phase_2,stop,800.0,1000.0,3.0,,,,,,,,,blue,diamond
0.0,3.0,2.0,0.0,5.0,5.0,897.2768620005809,8.0,1.0,phase_2,go,800.0,950.0,1.0,,,,,,,,,orange,flipped triangle
0.0,6.0,1.0,1.0,6.0,6.0,1042.9626870027278,8.0,1.0,phase_2,stop,800.0,950.0,3.0,,,,,,,,,magenta,hexagon
0.0,7.0,2.0,1.0,5.0,5.0,1327.1934570220765,8.0,1.0,phase_2,go,800.0,900.0,1.0,,,,,,,,,white,square
0.0,2.0,1.0,0.0,5.0,5.0,1338.3724929881282,8.0,1.0,phase_2,go,800.0,900.0,1.0,,,,,,,,,yellow,cross
0.0,8.0,4.0,1.0,5.0,0.0,0.0,8.0,1.0,phase_2,stop,800.0,900.0,4.0,,,,,,,,,cyan,triangle
0.0,6.0,1.0,1.0,5.0,5.0,1204.740128014237,8.0,1.0,phase_2,go,850.0,900.0,1.0,,,,,,,,,magenta,hexagon
0.0,6.0,1.0,1.0,6.0,0.0,0.0,8.0,1.0,phase_2,stop,850.0,900.0,4.0,,,,,,,,,magenta,hexagon
0.0,1.0,0.5,0.0,5.0,5.0,1376.7387330008205,8.0,1.0,phase_2,go,850.0,950.0,1.0,,,,,,,,,green,I
0.0,4.0,4.0,0.0,5.0,5.0,1386.0263410024345,8.0,1.0,phase_2,go,850.0,950.0,1.0,,,,,,,,,gray,circle
0.0,3.0,2.0,0.0,7.0,4.0,2590.7444980111904,1.0,2.0,phase_3,,,,,49.0,1.0,98.0,147.0,245.0,49.0,294.0,196.0,orange,flipped triangle
0.0,2.0,1.0,0.0,7.0,3.0,1656.3810300140176,1.0,1.0,phase_3,,,,,270.0,5.0,108.0,54.0,270.0,324.0,162.0,216.0,yellow,cross
0.0,2.0,1.0,0.0,7.0,1.0,2803.5315120068844,1.0,1.0,phase_3,,,,,132.0,3.0,132.0,176.0,264.0,88.0,220.0,44.0,yellow,cross
0.0,5.0,0.5,1.0,7.0,4.0,2049.7554450121243,1.0,1.0,phase_3,,,,,294.0,6.0,196.0,147.0,245.0,294.0,98.0,49.0,blue,diamond
0.0,8.0,4.0,1.0,7.0,3.0,1827.210474992171,1.0,1.0,phase_3,,,,,324.0,6.0,108.0,162.0,324.0,270.0,54.0,216.0,cyan,triangle
0.0,5.0,0.5,1.0,7.0,4.0,1673.203829996055,1.0,1.0,phase_3,,,,,294.0,6.0,98.0,147.0,245.0,294.0,196.0,49.0,blue,diamond
0.0,8.0,4.0,1.0,7.0,3.0,1603.9032289991155,1.0,1.0,phase_3,,,,,234.0,6.0,78.0,156.0,234.0,195.0,39.0,117.0,cyan,triangle
0.0,3.0,2.0,0.0,7.0,2.0,2393.8259840069804,1.0,1.0,phase_3,,,,,132.0,3.0,176.0,132.0,220.0,44.0,264.0,88.0,orange,flipped triangle
0.0,4.0,4.0,0.0,7.0,5.0,2227.019776008092,1.0,1.0,phase_3,,,,,49.0,1.0,98.0,196.0,147.0,294.0,49.0,245.0,gray,circle
0.0,7.0,2.0,1.0,7.0,2.0,1789.3859350006096,1.0,1.0,phase_3,,,,,204.0,6.0,34.0,204.0,136.0,68.0,170.0,102.0,white,square
0.0,4.0,4.0,0.0,7.0,3.0,2193.480457994156,1.0,1.0,phase_3,,,,,78.0,2.0,234.0,156.0,78.0,195.0,117.0,39.0,gray,circle
0.0,6.0,1.0,1.0,7.0,6.0,2016.5296859922819,1.0,1.0,phase_3,,,,,196.0,4.0,147.0,245.0,98.0,294.0,49.0,196.0,magenta,hexagon
0.0,7.0,2.0,1.0,7.0,2.0,2309.748851985205,1.0,1.0,phase_3,,,,,78.0,2.0,117.0,78.0,195.0,39.0,156.0,234.0,white,square
0.0,8.0,4.0,1.0,7.0,4.0,1970.4284850158729,1.0,1.0,phase_3,,,,,136.0,4.0,102.0,170.0,204.0,136.0,68.0,34.0,cyan,triangle
0.0,1.0,0.5,0.0,7.0,5.0,2130.939316994045,1.0,1.0,phase_3,,,,,324.0,6.0,162.0,270.0,108.0,54.0,324.0,216.0,green,I
0.0,1.0,0.5,0.0,7.0,5.0,1974.7776470030656,1.0,1.0,phase_3,,,,,156.0,4.0,195.0,234.0,117.0,78.0,156.0,39.0,green,I
0.0,2.0,1.0,0.0,7.0,2.0,2382.1074970182963,1.0,1.0,phase_3,,,,,136.0,4.0,170.0,136.0,34.0,102.0,204.0,68.0,yellow,cross
0.0,1.0,0.5,0.0,7.0,1.0,2267.437135014916,1.0,1.0,phase_3,,,,,324.0,6.0,324.0,54.0,108.0,270.0,162.0,216.0,green,I
0.0,3.0,2.0,0.0,7.0,4.0,3269.5075790106785,1.0,1.0,phase_3,,,,,68.0,2.0,34.0,136.0,170.0,68.0,102.0,204.0,orange,flipped triangle
0.0,1.0,0.5,0.0,7.0,4.0,3113.1510240084026,1.0,1.0,phase_3,,,,,234.0,6.0,39.0,78.0,117.0,234.0,195.0,156.0,green,I
0.0,8.0,4.0,1.0,7.0,3.0,2165.726003993768,2.0,1.0,phase_3,,,,,324.0,6.0,162.0,216.0,324.0,108.0,54.0,270.0,cyan,triangle
0.0,3.0,2.0,0.0,7.0,5.0,1672.8712920157705,2.0,1.0,phase_3,,,,,136.0,4.0,204.0,68.0,170.0,34.0,136.0,102.0,orange,flipped triangle
0.0,7.0,2.0,1.0,7.0,2.0,2710.1634120044764,2.0,1.0,phase_3,,,,,220.0,5.0,44.0,220.0,264.0,176.0,88.0,132.0,white,square
0.0,8.0,4.0,1.0,7.0,5.0,1999.4303279963788,2.0,1.0,phase_3,,,,,264.0,6.0,220.0,44.0,176.0,88.0,264.0,132.0,cyan,triangle
0.0,3.0,2.0,0.0,7.0,6.0,1663.7140120146796,2.0,1.0,phase_3,,,,,117.0,3.0,39.0,234.0,195.0,156.0,78.0,117.0,orange,flipped triangle
0.0,2.0,1.0,0.0,7.0,4.0,1576.1144449934363,2.0,1.0,phase_3,,,,,196.0,4.0,49.0,147.0,245.0,196.0,98.0,294.0,yellow,cross
0.0,5.0,0.5,1.0,7.0,1.0,2658.260316005908,2.0,1.0,phase_3,,,,,204.0,6.0,204.0,136.0,34.0,170.0,102.0,68.0,blue,diamond
0.0,7.0,2.0,1.0,7.0,3.0,1464.646378997713,2.0,1.0,phase_3,,,,,170.0,5.0,204.0,34.0,170.0,136.0,102.0,68.0,white,square
0.0,3.0,2.0,0.0,7.0,4.0,1488.7080779881217,2.0,1.0,phase_3,,,,,44.0,1.0,176.0,220.0,132.0,44.0,88.0,264.0,orange,flipped triangle
0.0,3.0,2.0,0.0,7.0,3.0,2503.263259015512,2.0,1.0,phase_3,,,,,54.0,1.0,216.0,108.0,54.0,162.0,324.0,270.0,orange,flipped triangle
0.0,5.0,0.5,1.0,7.0,2.0,3325.1928229874466,2.0,1.0,phase_3,,,,,234.0,6.0,78.0,234.0,156.0,39.0,117.0,195.0,blue,diamond
0.0,7.0,2.0,1.0,7.0,1.0,3055.289175012149,2.0,1.0,phase_3,,,,,132.0,3.0,132.0,264.0,88.0,44.0,176.0,220.0,white,square
0.0,4.0,4.0,0.0,7.0,2.0,3485.0179969798774,2.0,1.0,phase_3,,,,,54.0,1.0,108.0,54.0,162.0,270.0,324.0,216.0,gray,circle
0.0,1.0,0.5,0.0,7.0,2.0,3711.8037669861214,2.0,1.0,phase_3,,,,,264.0,6.0,220.0,264.0,44.0,88.0,132.0,176.0,green,I
0.0,6.0,1.0,1.0,7.0,1.0,3534.043212974211,2.0,1.0,phase_3,,,,,204.0,6.0,204.0,34.0,170.0,102.0,136.0,68.0,magenta,hexagon
0.0,5.0,0.5,1.0,7.0,6.0,3194.921006012009,2.0,1.0,phase_3,,,,,270.0,5.0,108.0,54.0,162.0,216.0,324.0,270.0,blue,diamond
0.0,6.0,1.0,1.0,7.0,6.0,3364.176489994861,2.0,1.0,phase_3,,,,,234.0,6.0,195.0,39.0,117.0,156.0,78.0,234.0,magenta,hexagon
0.0,4.0,4.0,0.0,7.0,2.0,2521.305037022102,2.0,1.0,phase_3,,,,,34.0,1.0,68.0,34.0,170.0,136.0,204.0,102.0,gray,circle
0.0,5.0,0.5,1.0,7.0,5.0,2656.3059570034966,2.0,1.0,phase_3,,,,,264.0,6.0,176.0,44.0,132.0,88.0,264.0,220.0,blue,diamond
0.0,6.0,1.0,1.0,7.0,2.0,2795.691727020312,2.0,1.0,phase_3,,,,,270.0,5.0,54.0,270.0,108.0,162.0,216.0,324.0,magenta,hexagon
0.0,8.0,4.0,1.0,7.0,3.0,3079.4162869860884,3.0,1.0,phase_3,,,,,245.0,5.0,196.0,147.0,245.0,294.0,49.0,98.0,cyan,triangle
0.0,7.0,2.0,1.0,7.0,2.0,1934.733153990237,3.0,1.0,phase_3,,,,,39.0,1.0,117.0,39.0,156.0,195.0,234.0,78.0,white,square
0.0,8.0,4.0,1.0,7.0,5.0,2607.8229770064354,3.0,1.0,phase_3,,,,,294.0,6.0,49.0,245.0,98.0,196.0,294.0,147.0,cyan,triangle
0.0,7.0,2.0,1.0,7.0,6.0,2677.1119449986145,3.0,1.0,phase_3,,,,,98.0,2.0,294.0,147.0,245.0,196.0,49.0,98.0,white,square
0.0,3.0,2.0,0.0,7.0,4.0,3060.616803006269,3.0,1.0,phase_3,,,,,216.0,4.0,324.0,162.0,108.0,216.0,270.0,54.0,orange,flipped triangle
0.0,8.0,4.0,1.0,7.0,5.0,3467.2064460173715,3.0,1.0,phase_3,,,,,234.0,6.0,195.0,117.0,156.0,78.0,234.0,39.0,cyan,triangle
0.0,7.0,2.0,1.0,7.0,2.0,3784.105433005607,3.0,1.0,phase_3,,,,,108.0,2.0,54.0,108.0,324.0,162.0,216.0,270.0,white,square
0.0,4.0,4.0,0.0,7.0,1.0,2716.5695920120925,3.0,1.0,phase_3,,,,,54.0,1.0,54.0,270.0,324.0,216.0,162.0,108.0,gray,circle
0.0,2.0,1.0,0.0,7.0,5.0,3280.361703014933,3.0,1.0,phase_3,,,,,195.0,5.0,234.0,117.0,39.0,78.0,195.0,156.0,yellow,cross
0.0,5.0,0.5,1.0,7.0,3.0,2491.5065320092253,3.0,1.0,phase_3,,,,,204.0,6.0,136.0,102.0,204.0,68.0,34.0,170.0,blue,diamond
0.0,8.0,4.0,1.0,7.0,2.0,2427.3777090129443,3.0,1.0,phase_3,,,,,264.0,6.0,220.0,264.0,176.0,88.0,44.0,132.0,cyan,triangle
0.0,1.0,0.5,0.0,7.0,4.0,3551.227650983492,3.0,1.0,phase_3,,,,,294.0,6.0,245.0,98.0,49.0,294.0,196.0,147.0,green,I
0.0,4.0,4.0,0.0,7.0,4.0,3307.811425998807,3.0,1.0,phase_3,,,,,44.0,1.0,132.0,264.0,88.0,44.0,220.0,176.0,gray,circle
0.0,2.0,1.0,0.0,7.0,5.0,3713.395341997966,3.0,1.0,phase_3,,,,,195.0,5.0,39.0,234.0,117.0,78.0,195.0,156.0,yellow,cross
0.0,2.0,1.0,0.0,7.0,3.0,3320.6721030001063,3.0,1.0,phase_3,,,,,162.0,3.0,54.0,270.0,162.0,324.0,216.0,108.0,yellow,cross
0.0,5.0,0.5,1.0,7.0,5.0,2061.122934013838,3.0,1.0,phase_3,,,,,270.0,5.0,216.0,108.0,324.0,54.0,270.0,162.0,blue,diamond
0.0,2.0,1.0,0.0,7.0,4.0,2354.1436569939838,3.0,1.0,phase_3,,,,,196.0,4.0,294.0,98.0,49.0,196.0,147.0,245.0,yellow,cross
0.0,5.0,0.5,1.0,7.0,5.0,3535.858927993104,3.0,1.0,phase_3,,,,,117.0,3.0,234.0,39.0,78.0,156.0,117.0,195.0,blue,diamond
0.0,3.0,2.0,0.0,7.0,3.0,3377.979753015097,3.0,1.0,phase_3,,,,,98.0,2.0,147.0,294.0,98.0,245.0,49.0,196.0,orange,flipped triangle
0.0,4.0,4.0,0.0,7.0,6.0,1872.867755999323,3.0,1.0,phase_3,,,,,49.0,1.0,98.0,294.0,147.0,196.0,245.0,49.0,gray,circle
0.0,6.0,1.0,1.0,7.0,3.0,4236.8284380063415,4.0,1.0,phase_3,,,,,88.0,2.0,264.0,176.0,88.0,44.0,132.0,220.0,magenta,hexagon
0.0,6.0,1.0,1.0,7.0,4.0,2205.787662998773,4.0,1.0,phase_3,,,,,98.0,2.0,245.0,147.0,49.0,98.0,196.0,294.0,magenta,hexagon
0.0,6.0,1.0,1.0,7.0,2.0,4039.984482980799,4.0,1.0,phase_3,,,,,176.0,4.0,264.0,176.0,220.0,44.0,88.0,132.0,magenta,hexagon
0.0,1.0,0.5,0.0,7.0,3.0,3713.7721220206,4.0,1.0,phase_3,,,,,136.0,4.0,34.0,68.0,136.0,170.0,204.0,102.0,green,I
0.0,7.0,2.0,1.0,7.0,6.0,4031.884235009784,4.0,1.0,phase_3,,,,,54.0,1.0,270.0,108.0,216.0,162.0,324.0,54.0,white,square
0.0,7.0,2.0,1.0,7.0,2.0,3005.349067010684,4.0,1.0,phase_3,,,,,49.0,1.0,98.0,49.0,245.0,196.0,294.0,147.0,white,square
0.0,4.0,4.0,0.0,7.0,2.0,2002.1589930111081,4.0,1.0,phase_3,,,,,34.0,1.0,68.0,34.0,170.0,204.0,136.0,102.0,gray,circle
0.0,8.0,4.0,1.0,7.0,1.0,4605.629066005349,4.0,1.0,phase_3,,,,,136.0,4.0,136.0,204.0,170.0,68.0,34.0,102.0,cyan,triangle
0.0,2.0,1.0,0.0,7.0,4.0,3318.599046993768,4.0,1.0,phase_3,,,,,204.0,6.0,136.0,34.0,102.0,204.0,170.0,68.0,yellow,cross
0.0,3.0,2.0,0.0,7.0,3.0,3161.031836993061,4.0,1.0,phase_3,,,,,78.0,2.0,195.0,156.0,78.0,234.0,39.0,117.0,orange,flipped triangle
0.0,1.0,0.5,0.0,7.0,5.0,4297.200236003846,4.0,1.0,phase_3,,,,,204.0,6.0,102.0,68.0,170.0,34.0,204.0,136.0,green,I
0.0,2.0,1.0,0.0,7.0,3.0,2060.351512016496,4.0,1.0,phase_3,,,,,220.0,5.0,44.0,176.0,220.0,88.0,264.0,132.0,yellow,cross
0.0,4.0,4.0,0.0,7.0,5.0,1813.4234259778168,4.0,1.0,phase_3,,,,,44.0,1.0,264.0,176.0,132.0,220.0,44.0,88.0,gray,circle
0.0,1.0,0.5,0.0,7.0,6.0,4289.831892994698,4.0,1.0,phase_3,,,,,147.0,3.0,245.0,98.0,294.0,196.0,49.0,147.0,green,I
0.0,6.0,1.0,1.0,7.0,4.0,3263.5894730046857,4.0,1.0,phase_3,,,,,204.0,6.0,34.0,102.0,136.0,204.0,170.0,68.0,magenta,hexagon
0.0,4.0,4.0,0.0,7.0,5.0,2231.3382769934838,4.0,1.0,phase_3,,,,,39.0,1.0,234.0,78.0,117.0,195.0,39.0,156.0,gray,circle
0.0,1.0,0.5,0.0,7.0,6.0,3458.9979230077006,4.0,1.0,phase_3,,,,,220.0,5.0,132.0,44.0,264.0,88.0,176.0,220.0,green,I
0.0,6.0,1.0,1.0,7.0,2.0,2806.207749992609,4.0,1.0,phase_3,,,,,234.0,6.0,78.0,234.0,156.0,39.0,195.0,117.0,magenta,hexagon
0.0,5.0,0.5,1.0,7.0,6.0,2178.5317449830472,4.0,1.0,phase_3,,,,,264.0,6.0,132.0,176.0,44.0,220.0,88.0,264.0,blue,diamond
0.0,6.0,1.0,1.0,7.0,4.0,2584.230990993092,4.0,1.0,phase_3,,,,,324.0,6.0,216.0,108.0,54.0,324.0,162.0,270.0,magenta,hexagon
